date	time	script.currenttime	script.elapsedtime	build	script.currentexpt	subject	expressions.LRpleas_acq	expressions.SameOppo	expressions.condition_Lpleas	expressions.ABmasked	expressions.conditionCS_A	expressions.condition_1pleas	expressions.condition_distractor_AMP	expressions.AWACON_AMPEVA_first	trialcode	blockcode	blocknum	trialnum	windowcenter	inwindow	pretrialpause	posttrialpause	trialduration	trialtimeout	latency	response	expressions.correctedscore	correct	values.vis_performance	values.vis_rating_sum	values.vis_rating_mean	stimulusnumber1	stimulusitem1	stimulusonset1	stimulusnumber2	stimulusitem2	stimulusonset2	stimulusnumber3	stimulusitem3	stimulusonset3	stimulusnumber4	stimulusitem4	stimulusonset4	stimulusnumber5	stimulusitem5	stimulusonset5	stimulusnumber6	stimulusitem6	stimulusonset6	stimulusnumber7	stimulusitem7	stimulusonset7	stimulusnumber8	stimulusitem8	stimulusonset8	stimulusnumber9	stimulusitem9	stimulusonset9	stimulusnumber10	stimulusitem10	stimulusonset10	stimulusnumber11	stimulusitem11	stimulusonset11	stimulusnumber12	stimulusitem12	stimulusonset12	stimulusnumber13	stimulusitem13	stimulusonset13	stimulusnumber14	stimulusitem14	stimulusonset14	stimulusnumber15	stimulusitem15	stimulusonset15	stimulusnumber16	stimulusitem16	stimulusonset16	stimulusnumber17	stimulusitem17	stimulusonset17	stimulusnumber18	stimulusitem18	stimulusonset18
011019	13:25:16	13:27:10	113298	5.0.10.0	4_exp_EVA_AMP_AWA_CON	58	Rpleas_acq	Same	Rpleas	Bmasked	CS_B	2pleas	distractor1	EVAbeforeCON	acq_US_unple_masked	acq1_masked	1	1	0	0	300	300	0	0	2840	50	0	0	0	0	0	1	blank2r.bmp	0	1	+	0	6	C2r.bmp	492	1	blank2r.bmp	786	1	BMVZ	786	1	blank2r.bmp	866	3	eitel	866	1	FEHLER	3745	0	0	0	0	0	0	0	0	0	0	0	0	0	0	0	0	0	0	0	0	0	0	0	0	0	0	0	0	0	0
011019	13:25:16	13:27:12	115391	5.0.10.0	4_exp_EVA_AMP_AWA_CON	58	Rpleas_acq	Same	Rpleas	Bmasked	CS_B	2pleas	distractor1	EVAbeforeCON	acq_new_unple_masked	acq1_masked	1	2	0	0	300	300	0	0	830	46	0	1	0	0	0	1	blank2r.bmp	0	1	+	0	5	C1r.bmp	492	1	blank2r.bmp	786	6	C2r.bmp	786	1	blank2r.bmp	866	6	faul	866	0	0	0	0	0	0	0	0	0	0	0	0	0	0	0	0	0	0	0	0	0	0	0	0	0	0	0	0	0	0	0	0	0
011019	13:25:16	13:27:14	117483	5.0.10.0	4_exp_EVA_AMP_AWA_CON	58	Rpleas_acq	Same	Rpleas	Bmasked	CS_B	2pleas	distractor1	EVAbeforeCON	acq_US_pleas_masked	acq1_masked	1	3	0	0	300	300	0	0	603	50	0	1	0	0	0	1	blank2r.bmp	0	1	+	0	3	B3r.bmp	492	1	blank2r.bmp	786	1	GKQX	786	1	blank2r.bmp	866	4	spielen	866	0	0	0	0	0	0	0	0	0	0	0	0	0	0	0	0	0	0	0	0	0	0	0	0	0	0	0	0	0	0	0	0	0
011019	13:25:16	13:27:16	119469	5.0.10.0	4_exp_EVA_AMP_AWA_CON	58	Rpleas_acq	Same	Rpleas	Bmasked	CS_B	2pleas	distractor1	EVAbeforeCON	acq_new_pleas_masked	acq1_masked	1	4	0	0	300	300	0	0	511	50	0	1	0	0	0	1	blank2r.bmp	0	1	+	0	2	B2r.bmp	492	1	blank2r.bmp	786	3	B3r.bmp	786	1	blank2r.bmp	866	1	treu	866	0	0	0	0	0	0	0	0	0	0	0	0	0	0	0	0	0	0	0	0	0	0	0	0	0	0	0	0	0	0	0	0	0
011019	13:25:16	13:27:18	121375	5.0.10.0	4_exp_EVA_AMP_AWA_CON	58	Rpleas_acq	Same	Rpleas	Bmasked	CS_B	2pleas	distractor1	EVAbeforeCON	acq_US_unple_masked	acq1_masked	1	5	0	0	300	300	0	0	428	46	0	1	0	0	0	1	blank2r.bmp	0	1	+	0	1	B1r.bmp	492	1	blank2r.bmp	786	1	BMVZ	786	1	blank2r.bmp	866	2	leiden	866	0	0	0	0	0	0	0	0	0	0	0	0	0	0	0	0	0	0	0	0	0	0	0	0	0	0	0	0	0	0	0	0	0
011019	13:25:16	13:27:20	123627	5.0.10.0	4_exp_EVA_AMP_AWA_CON	58	Rpleas_acq	Same	Rpleas	Bmasked	CS_B	2pleas	distractor1	EVAbeforeCON	acq_new_unple_masked	acq1_masked	1	6	0	0	300	300	0	0	774	46	0	1	0	0	0	1	blank2r.bmp	0	1	+	0	7	C3r.bmp	492	1	blank2r.bmp	786	8	C4r.bmp	786	1	blank2r.bmp	866	2	rächen	866	0	0	0	0	0	0	0	0	0	0	0	0	0	0	0	0	0	0	0	0	0	0	0	0	0	0	0	0	0	0	0	0	0
011019	13:25:16	13:27:23	125960	5.0.10.0	4_exp_EVA_AMP_AWA_CON	58	Rpleas_acq	Same	Rpleas	Bmasked	CS_B	2pleas	distractor1	EVAbeforeCON	acq_US_unple_masked	acq1_masked	1	7	0	0	300	300	0	0	843	46	0	1	0	0	0	1	blank2r.bmp	0	1	+	0	4	B4r.bmp	492	1	blank2r.bmp	786	1	BMVZ	786	1	blank2r.bmp	866	6	schlecht	866	0	0	0	0	0	0	0	0	0	0	0	0	0	0	0	0	0	0	0	0	0	0	0	0	0	0	0	0	0	0	0	0	0
011019	13:25:16	13:27:25	127972	5.0.10.0	4_exp_EVA_AMP_AWA_CON	58	Rpleas_acq	Same	Rpleas	Bmasked	CS_B	2pleas	distractor1	EVAbeforeCON	acq_new_pleas_masked	acq1_masked	1	8	0	0	300	300	0	0	536	50	0	1	0	0	0	1	blank2r.bmp	0	1	+	0	8	C4r.bmp	492	1	blank2r.bmp	786	1	B1r.bmp	786	1	blank2r.bmp	866	2	retten	866	0	0	0	0	0	0	0	0	0	0	0	0	0	0	0	0	0	0	0	0	0	0	0	0	0	0	0	0	0	0	0	0	0
011019	13:25:16	13:27:27	129985	5.0.10.0	4_exp_EVA_AMP_AWA_CON	58	Rpleas_acq	Same	Rpleas	Bmasked	CS_B	2pleas	distractor1	EVAbeforeCON	acq_US_pleas_masked	acq1_masked	1	9	0	0	300	300	0	0	538	50	0	1	0	0	0	1	blank2r.bmp	0	1	+	0	6	C2r.bmp	492	1	blank2r.bmp	786	1	GKQX	786	1	blank2r.bmp	866	2	lachen	866	0	0	0	0	0	0	0	0	0	0	0	0	0	0	0	0	0	0	0	0	0	0	0	0	0	0	0	0	0	0	0	0	0
011019	13:25:16	13:27:29	132277	5.0.10.0	4_exp_EVA_AMP_AWA_CON	58	Rpleas_acq	Same	Rpleas	Bmasked	CS_B	2pleas	distractor1	EVAbeforeCON	acq_new_unple_masked	acq1_masked	1	10	0	0	300	300	0	0	800	46	0	1	0	0	0	1	blank2r.bmp	0	1	+	0	1	B1r.bmp	492	1	blank2r.bmp	786	7	C3r.bmp	786	1	blank2r.bmp	866	4	fanatisch	866	0	0	0	0	0	0	0	0	0	0	0	0	0	0	0	0	0	0	0	0	0	0	0	0	0	0	0	0	0	0	0	0	0
011019	13:25:16	13:27:31	134369	5.0.10.0	4_exp_EVA_AMP_AWA_CON	58	Rpleas_acq	Same	Rpleas	Bmasked	CS_B	2pleas	distractor1	EVAbeforeCON	acq_US_pleas_masked	acq1_masked	1	11	0	0	300	300	0	0	611	50	0	1	0	0	0	1	blank2r.bmp	0	1	+	0	2	B2r.bmp	492	1	blank2r.bmp	786	1	GKQX	786	1	blank2r.bmp	866	3	ehrlich	866	0	0	0	0	0	0	0	0	0	0	0	0	0	0	0	0	0	0	0	0	0	0	0	0	0	0	0	0	0	0	0	0	0
011019	13:25:16	13:27:33	136475	5.0.10.0	4_exp_EVA_AMP_AWA_CON	58	Rpleas_acq	Same	Rpleas	Bmasked	CS_B	2pleas	distractor1	EVAbeforeCON	acq_new_pleas_masked	acq1_masked	1	12	0	0	300	300	0	0	625	50	0	1	0	0	0	1	blank2r.bmp	0	1	+	0	8	C4r.bmp	492	1	blank2r.bmp	786	5	C1r.bmp	786	1	blank2r.bmp	866	5	tolerant	866	0	0	0	0	0	0	0	0	0	0	0	0	0	0	0	0	0	0	0	0	0	0	0	0	0	0	0	0	0	0	0	0	0
011019	13:25:16	13:27:35	138368	5.0.10.0	4_exp_EVA_AMP_AWA_CON	58	Rpleas_acq	Same	Rpleas	Bmasked	CS_B	2pleas	distractor1	EVAbeforeCON	acq_US_pleas_masked	acq1_masked	1	13	0	0	300	300	0	0	424	50	0	1	0	0	0	1	blank2r.bmp	0	1	+	0	3	B3r.bmp	492	1	blank2r.bmp	786	1	GKQX	786	1	blank2r.bmp	866	6	schön	866	0	0	0	0	0	0	0	0	0	0	0	0	0	0	0	0	0	0	0	0	0	0	0	0	0	0	0	0	0	0	0	0	0
011019	13:25:16	13:27:37	140354	5.0.10.0	4_exp_EVA_AMP_AWA_CON	58	Rpleas_acq	Same	Rpleas	Bmasked	CS_B	2pleas	distractor1	EVAbeforeCON	acq_US_unple_masked	acq1_masked	1	14	0	0	300	300	0	0	499	46	0	1	0	0	0	1	blank2r.bmp	0	1	+	0	5	C1r.bmp	492	1	blank2r.bmp	786	1	BMVZ	786	1	blank2r.bmp	866	4	strafen	866	0	0	0	0	0	0	0	0	0	0	0	0	0	0	0	0	0	0	0	0	0	0	0	0	0	0	0	0	0	0	0	0	0
011019	13:25:16	13:27:39	142353	5.0.10.0	4_exp_EVA_AMP_AWA_CON	58	Rpleas_acq	Same	Rpleas	Bmasked	CS_B	2pleas	distractor1	EVAbeforeCON	acq_US_pleas_masked	acq1_masked	1	15	0	0	300	300	0	0	520	50	0	1	0	0	0	1	blank2r.bmp	0	1	+	0	7	C3r.bmp	492	1	blank2r.bmp	786	1	GKQX	786	1	blank2r.bmp	866	1	helfen	866	0	0	0	0	0	0	0	0	0	0	0	0	0	0	0	0	0	0	0	0	0	0	0	0	0	0	0	0	0	0	0	0	0
011019	13:25:16	13:27:41	144339	5.0.10.0	4_exp_EVA_AMP_AWA_CON	58	Rpleas_acq	Same	Rpleas	Bmasked	CS_B	2pleas	distractor1	EVAbeforeCON	acq_new_pleas_masked	acq1_masked	1	16	0	0	300	300	0	0	513	50	0	1	0	0	0	1	blank2r.bmp	0	1	+	0	4	B4r.bmp	492	1	blank2r.bmp	786	2	B2r.bmp	786	1	blank2r.bmp	866	6	fair	866	0	0	0	0	0	0	0	0	0	0	0	0	0	0	0	0	0	0	0	0	0	0	0	0	0	0	0	0	0	0	0	0	0
011019	13:25:16	13:27:43	146804	5.0.10.0	4_exp_EVA_AMP_AWA_CON	58	Rpleas_acq	Same	Rpleas	Bmasked	CS_B	2pleas	distractor1	EVAbeforeCON	acq_new_pleas_masked	acq1_masked	1	17	0	0	300	300	0	0	975	50	0	1	0	0	0	1	blank2r.bmp	0	1	+	0	5	C1r.bmp	492	1	blank2r.bmp	786	4	B4r.bmp	786	1	blank2r.bmp	866	4	freundlich	866	0	0	0	0	0	0	0	0	0	0	0	0	0	0	0	0	0	0	0	0	0	0	0	0	0	0	0	0	0	0	0	0	0
011019	13:25:16	13:27:45	148830	5.0.10.0	4_exp_EVA_AMP_AWA_CON	58	Rpleas_acq	Same	Rpleas	Bmasked	CS_B	2pleas	distractor1	EVAbeforeCON	acq_US_unple_masked	acq1_masked	1	18	0	0	300	300	0	0	537	46	0	1	0	0	0	1	blank2r.bmp	0	1	+	0	8	C4r.bmp	492	1	blank2r.bmp	786	1	BMVZ	786	1	blank2r.bmp	866	5	schroff	866	0	0	0	0	0	0	0	0	0	0	0	0	0	0	0	0	0	0	0	0	0	0	0	0	0	0	0	0	0	0	0	0	0
011019	13:25:16	13:27:48	150949	5.0.10.0	4_exp_EVA_AMP_AWA_CON	58	Rpleas_acq	Same	Rpleas	Bmasked	CS_B	2pleas	distractor1	EVAbeforeCON	acq_new_unple_masked	acq1_masked	1	19	0	0	300	300	0	0	437	50	0	0	0	0	0	1	blank2r.bmp	0	1	+	0	6	C2r.bmp	492	1	blank2r.bmp	786	3	B3r.bmp	786	1	blank2r.bmp	866	3	lasch	866	1	FEHLER	1332	0	0	0	0	0	0	0	0	0	0	0	0	0	0	0	0	0	0	0	0	0	0	0	0	0	0	0	0	0	0
011019	13:25:16	13:27:49	152668	5.0.10.0	4_exp_EVA_AMP_AWA_CON	58	Rpleas_acq	Same	Rpleas	Bmasked	CS_B	2pleas	distractor1	EVAbeforeCON	acq_US_pleas_masked	acq1_masked	1	20	0	0	300	300	0	0	448	50	0	1	0	0	0	1	blank2r.bmp	0	1	+	0	7	C3r.bmp	492	1	blank2r.bmp	786	1	GKQX	786	1	blank2r.bmp	866	5	schlau	866	0	0	0	0	0	0	0	0	0	0	0	0	0	0	0	0	0	0	0	0	0	0	0	0	0	0	0	0	0	0	0	0	0
011019	13:25:16	13:27:51	154774	5.0.10.0	4_exp_EVA_AMP_AWA_CON	58	Rpleas_acq	Same	Rpleas	Bmasked	CS_B	2pleas	distractor1	EVAbeforeCON	acq_new_unple_masked	acq1_masked	1	21	0	0	300	300	0	0	618	46	0	1	0	0	0	1	blank2r.bmp	0	1	+	0	1	B1r.bmp	492	1	blank2r.bmp	786	7	C3r.bmp	786	1	blank2r.bmp	866	1	tot	866	0	0	0	0	0	0	0	0	0	0	0	0	0	0	0	0	0	0	0	0	0	0	0	0	0	0	0	0	0	0	0	0	0
011019	13:25:16	13:27:53	156800	5.0.10.0	4_exp_EVA_AMP_AWA_CON	58	Rpleas_acq	Same	Rpleas	Bmasked	CS_B	2pleas	distractor1	EVAbeforeCON	acq_new_unple_masked	acq1_masked	1	22	0	0	300	300	0	0	544	46	0	1	0	0	0	1	blank2r.bmp	0	1	+	0	2	B2r.bmp	492	1	blank2r.bmp	786	8	C4r.bmp	786	1	blank2r.bmp	866	5	tyrannisch	866	0	0	0	0	0	0	0	0	0	0	0	0	0	0	0	0	0	0	0	0	0	0	0	0	0	0	0	0	0	0	0	0	0
011019	13:25:16	13:27:56	159106	5.0.10.0	4_exp_EVA_AMP_AWA_CON	58	Rpleas_acq	Same	Rpleas	Bmasked	CS_B	2pleas	distractor1	EVAbeforeCON	acq_US_unple_masked	acq1_masked	1	23	0	0	300	300	0	0	821	46	0	1	0	0	0	1	blank2r.bmp	0	1	+	0	3	B3r.bmp	492	1	blank2r.bmp	786	1	BMVZ	786	1	blank2r.bmp	866	1	hindern	866	0	0	0	0	0	0	0	0	0	0	0	0	0	0	0	0	0	0	0	0	0	0	0	0	0	0	0	0	0	0	0	0	0
011019	13:25:16	13:27:58	161132	5.0.10.0	4_exp_EVA_AMP_AWA_CON	58	Rpleas_acq	Same	Rpleas	Bmasked	CS_B	2pleas	distractor1	EVAbeforeCON	acq_new_pleas_masked	acq1_masked	1	24	0	0	300	300	0	0	552	50	0	1	0	0	0	1	blank2r.bmp	0	1	+	0	4	B4r.bmp	492	1	blank2r.bmp	786	1	B1r.bmp	786	1	blank2r.bmp	866	3	loyal	866	0	0	0	0	0	0	0	0	0	0	0	0	0	0	0	0	0	0	0	0	0	0	0	0	0	0	0	0	0	0	0	0	0
011019	13:25:16	13:28:01	164024	5.0.10.0	4_exp_EVA_AMP_AWA_CON	58	Rpleas_acq	Same	Rpleas	Bmasked	CS_B	2pleas	distractor1	EVAbeforeCON	acq_US_unple_masked	acq1_masked	1	25	0	0	300	300	0	0	1423	46	0	1	0	0	0	1	blank2r.bmp	0	1	+	0	6	C2r.bmp	492	1	blank2r.bmp	786	1	BMVZ	786	1	blank2r.bmp	866	6	schlecht	866	0	0	0	0	0	0	0	0	0	0	0	0	0	0	0	0	0	0	0	0	0	0	0	0	0	0	0	0	0	0	0	0	0
011019	13:25:16	13:28:03	166049	5.0.10.0	4_exp_EVA_AMP_AWA_CON	58	Rpleas_acq	Same	Rpleas	Bmasked	CS_B	2pleas	distractor1	EVAbeforeCON	acq_new_pleas_masked	acq1_masked	1	26	0	0	300	300	0	0	533	50	0	1	0	0	0	1	blank2r.bmp	0	1	+	0	2	B2r.bmp	492	1	blank2r.bmp	786	4	B4r.bmp	786	1	blank2r.bmp	866	3	loyal	866	0	0	0	0	0	0	0	0	0	0	0	0	0	0	0	0	0	0	0	0	0	0	0	0	0	0	0	0	0	0	0	0	0
011019	13:25:16	13:28:05	168009	5.0.10.0	4_exp_EVA_AMP_AWA_CON	58	Rpleas_acq	Same	Rpleas	Bmasked	CS_B	2pleas	distractor1	EVAbeforeCON	acq_US_unple_masked	acq1_masked	1	27	0	0	300	300	0	0	485	46	0	1	0	0	0	1	blank2r.bmp	0	1	+	0	4	B4r.bmp	492	1	blank2r.bmp	786	1	BMVZ	786	1	blank2r.bmp	866	2	leiden	866	0	0	0	0	0	0	0	0	0	0	0	0	0	0	0	0	0	0	0	0	0	0	0	0	0	0	0	0	0	0	0	0	0
011019	13:25:16	13:28:07	169941	5.0.10.0	4_exp_EVA_AMP_AWA_CON	58	Rpleas_acq	Same	Rpleas	Bmasked	CS_B	2pleas	distractor1	EVAbeforeCON	acq_new_unple_masked	acq1_masked	1	28	0	0	300	300	0	0	438	46	0	1	0	0	0	1	blank2r.bmp	0	1	+	0	8	C4r.bmp	492	1	blank2r.bmp	786	2	B2r.bmp	786	1	blank2r.bmp	866	1	tot	866	0	0	0	0	0	0	0	0	0	0	0	0	0	0	0	0	0	0	0	0	0	0	0	0	0	0	0	0	0	0	0	0	0
011019	13:25:16	13:28:08	171820	5.0.10.0	4_exp_EVA_AMP_AWA_CON	58	Rpleas_acq	Same	Rpleas	Bmasked	CS_B	2pleas	distractor1	EVAbeforeCON	acq_US_pleas_masked	acq1_masked	1	29	0	0	300	300	0	0	405	50	0	1	0	0	0	1	blank2r.bmp	0	1	+	0	1	B1r.bmp	492	1	blank2r.bmp	786	1	GKQX	786	1	blank2r.bmp	866	6	schön	866	0	0	0	0	0	0	0	0	0	0	0	0	0	0	0	0	0	0	0	0	0	0	0	0	0	0	0	0	0	0	0	0	0
011019	13:25:16	13:28:10	173820	5.0.10.0	4_exp_EVA_AMP_AWA_CON	58	Rpleas_acq	Same	Rpleas	Bmasked	CS_B	2pleas	distractor1	EVAbeforeCON	acq_new_unple_masked	acq1_masked	1	30	0	0	300	300	0	0	531	46	0	1	0	0	0	1	blank2r.bmp	0	1	+	0	7	C3r.bmp	492	1	blank2r.bmp	786	6	C2r.bmp	786	1	blank2r.bmp	866	5	tyrannisch	866	0	0	0	0	0	0	0	0	0	0	0	0	0	0	0	0	0	0	0	0	0	0	0	0	0	0	0	0	0	0	0	0	0
011019	13:25:16	13:28:12	175779	5.0.10.0	4_exp_EVA_AMP_AWA_CON	58	Rpleas_acq	Same	Rpleas	Bmasked	CS_B	2pleas	distractor1	EVAbeforeCON	acq_new_pleas_masked	acq1_masked	1	31	0	0	300	300	0	0	475	50	0	1	0	0	0	1	blank2r.bmp	0	1	+	0	5	C1r.bmp	492	1	blank2r.bmp	786	5	C1r.bmp	786	1	blank2r.bmp	866	2	retten	866	0	0	0	0	0	0	0	0	0	0	0	0	0	0	0	0	0	0	0	0	0	0	0	0	0	0	0	0	0	0	0	0	0
011019	13:25:16	13:28:14	177831	5.0.10.0	4_exp_EVA_AMP_AWA_CON	58	Rpleas_acq	Same	Rpleas	Bmasked	CS_B	2pleas	distractor1	EVAbeforeCON	acq_US_unple_masked	acq1_masked	1	32	0	0	300	300	0	0	561	46	0	1	0	0	0	1	blank2r.bmp	0	1	+	0	3	B3r.bmp	492	1	blank2r.bmp	786	1	BMVZ	786	1	blank2r.bmp	866	1	hindern	866	0	0	0	0	0	0	0	0	0	0	0	0	0	0	0	0	0	0	0	0	0	0	0	0	0	0	0	0	0	0	0	0	0
011019	13:25:16	13:28:17	180070	5.0.10.0	4_exp_EVA_AMP_AWA_CON	58	Rpleas_acq	Same	Rpleas	Bmasked	CS_B	2pleas	distractor1	EVAbeforeCON	acq_new_unple_masked	acq1_masked	1	33	0	0	300	300	0	0	554	50	0	0	0	0	0	1	blank2r.bmp	0	1	+	0	6	C2r.bmp	492	1	blank2r.bmp	786	5	C1r.bmp	786	1	blank2r.bmp	866	3	lasch	866	1	FEHLER	1452	0	0	0	0	0	0	0	0	0	0	0	0	0	0	0	0	0	0	0	0	0	0	0	0	0	0	0	0	0	0
011019	13:25:16	13:28:19	182109	5.0.10.0	4_exp_EVA_AMP_AWA_CON	58	Rpleas_acq	Same	Rpleas	Bmasked	CS_B	2pleas	distractor1	EVAbeforeCON	acq_US_pleas_masked	acq1_masked	1	34	0	0	300	300	0	0	546	46	0	0	0	0	0	1	blank2r.bmp	0	1	+	0	4	B4r.bmp	492	1	blank2r.bmp	786	1	GKQX	786	1	blank2r.bmp	866	2	lachen	866	1	FEHLER	1452	0	0	0	0	0	0	0	0	0	0	0	0	0	0	0	0	0	0	0	0	0	0	0	0	0	0	0	0	0	0
011019	13:25:16	13:28:21	184242	5.0.10.0	4_exp_EVA_AMP_AWA_CON	58	Rpleas_acq	Same	Rpleas	Bmasked	CS_B	2pleas	distractor1	EVAbeforeCON	acq_new_pleas_masked	acq1_masked	1	35	0	0	300	300	0	0	875	50	0	1	0	0	0	1	blank2r.bmp	0	1	+	0	7	C3r.bmp	492	1	blank2r.bmp	786	3	B3r.bmp	786	1	blank2r.bmp	866	1	treu	866	0	0	0	0	0	0	0	0	0	0	0	0	0	0	0	0	0	0	0	0	0	0	0	0	0	0	0	0	0	0	0	0	0
011019	13:25:16	13:28:23	186374	5.0.10.0	4_exp_EVA_AMP_AWA_CON	58	Rpleas_acq	Same	Rpleas	Bmasked	CS_B	2pleas	distractor1	EVAbeforeCON	acq_US_pleas_masked	acq1_masked	1	36	0	0	300	300	0	0	647	50	0	1	0	0	0	1	blank2r.bmp	0	1	+	0	8	C4r.bmp	492	1	blank2r.bmp	786	1	GKQX	786	1	blank2r.bmp	866	1	helfen	866	0	0	0	0	0	0	0	0	0	0	0	0	0	0	0	0	0	0	0	0	0	0	0	0	0	0	0	0	0	0	0	0	0
011019	13:25:16	13:29:00	223759	5.0.10.0	4_exp_EVA_AMP_AWA_CON	58	Rpleas_acq	Same	Rpleas	Bmasked	CS_B	2pleas	distractor1	EVAbeforeCON	acq_US_unple_masked	acq2_masked	2	1	480	0	300	300	0	0	3678	46	0	1	0	0	0	1	blank2r.bmp	0	1	+	0	1	B1r.bmp	492	1	blank2r.bmp	786	1	BMVZ	786	1	blank2r.bmp	866	3	eitel	866	1	!	1319	1	!	-1	0	0	0	0	0	0	0	0	0	0	0	0	0	0	0	0	0	0	0	0	0	0	0	0	0	0	0
011019	13:25:16	13:29:03	226224	5.0.10.0	4_exp_EVA_AMP_AWA_CON	58	Rpleas_acq	Same	Rpleas	Bmasked	CS_B	2pleas	distractor1	EVAbeforeCON	acq_US_pleas_masked	acq2_masked	2	2	480	0	300	300	0	0	686	50	0	1	0	0	0	1	blank2r.bmp	0	1	+	0	5	C1r.bmp	492	1	blank2r.bmp	786	1	GKQX	786	1	blank2r.bmp	866	4	spielen	866	1	!	1319	1	!	-1	0	0	0	0	0	0	0	0	0	0	0	0	0	0	0	0	0	0	0	0	0	0	0	0	0	0	0
011019	13:25:16	13:29:05	228583	5.0.10.0	4_exp_EVA_AMP_AWA_CON	58	Rpleas_acq	Same	Rpleas	Bmasked	CS_B	2pleas	distractor1	EVAbeforeCON	acq_new_pleas_masked	acq2_masked	2	3	480	0	300	300	0	0	576	50	0	1	0	0	0	1	blank2r.bmp	0	1	+	0	2	B2r.bmp	492	1	blank2r.bmp	786	8	C4r.bmp	786	1	blank2r.bmp	866	6	fair	866	1	!	1319	1	!	-1	0	0	0	0	0	0	0	0	0	0	0	0	0	0	0	0	0	0	0	0	0	0	0	0	0	0	0
011019	13:25:16	13:29:08	230929	5.0.10.0	4_exp_EVA_AMP_AWA_CON	58	Rpleas_acq	Same	Rpleas	Bmasked	CS_B	2pleas	distractor1	EVAbeforeCON	acq_new_pleas_masked	acq2_masked	2	4	480	0	300	300	0	0	568	50	0	1	0	0	0	1	blank2r.bmp	0	1	+	0	3	B3r.bmp	492	1	blank2r.bmp	786	6	C2r.bmp	786	1	blank2r.bmp	866	4	freundlich	866	1	!	1319	1	!	-1	0	0	0	0	0	0	0	0	0	0	0	0	0	0	0	0	0	0	0	0	0	0	0	0	0	0	0
011019	13:25:16	13:29:10	233181	5.0.10.0	4_exp_EVA_AMP_AWA_CON	58	Rpleas_acq	Same	Rpleas	Bmasked	CS_B	2pleas	distractor1	EVAbeforeCON	acq_US_unple_masked	acq2_masked	2	5	480	1	300	300	0	0	440	46	0	1	0	0	0	1	blank2r.bmp	0	1	+	0	5	C1r.bmp	492	1	blank2r.bmp	786	1	BMVZ	786	1	blank2r.bmp	866	5	schroff	866	1	!	1319	1	!	1346	0	0	0	0	0	0	0	0	0	0	0	0	0	0	0	0	0	0	0	0	0	0	0	0	0	0	0
011019	13:25:16	13:29:12	235580	5.0.10.0	4_exp_EVA_AMP_AWA_CON	58	Rpleas_acq	Same	Rpleas	Bmasked	CS_B	2pleas	distractor1	EVAbeforeCON	acq_US_unple_masked	acq2_masked	2	6	480	0	300	300	0	0	399	50	0	0	0	0	0	1	blank2r.bmp	0	1	+	0	6	C2r.bmp	492	1	blank2r.bmp	786	1	BMVZ	786	1	blank2r.bmp	866	4	strafen	866	1	FEHLER	1612	1	!	-1	1	!	-1	0	0	0	0	0	0	0	0	0	0	0	0	0	0	0	0	0	0	0	0	0	0	0	0
011019	13:25:16	13:29:14	237646	5.0.10.0	4_exp_EVA_AMP_AWA_CON	58	Rpleas_acq	Same	Rpleas	Bmasked	CS_B	2pleas	distractor1	EVAbeforeCON	acq_new_unple_masked	acq2_masked	2	7	480	1	300	300	0	0	479	46	0	1	0	0	0	1	blank2r.bmp	0	1	+	0	4	B4r.bmp	492	1	blank2r.bmp	786	1	B1r.bmp	786	1	blank2r.bmp	866	6	faul	866	1	!	1319	1	!	1386	0	0	0	0	0	0	0	0	0	0	0	0	0	0	0	0	0	0	0	0	0	0	0	0	0	0	0
011019	13:25:16	13:29:17	240205	5.0.10.0	4_exp_EVA_AMP_AWA_CON	58	Rpleas_acq	Same	Rpleas	Bmasked	CS_B	2pleas	distractor1	EVAbeforeCON	acq_new_unple_masked	acq2_masked	2	8	480	1	300	300	0	0	544	50	0	0	0	0	0	1	blank2r.bmp	0	1	+	0	8	C4r.bmp	492	1	blank2r.bmp	786	7	C3r.bmp	786	1	blank2r.bmp	866	4	fanatisch	866	1	FEHLER	1759	1	!	1319	1	!	1439	0	0	0	0	0	0	0	0	0	0	0	0	0	0	0	0	0	0	0	0	0	0	0	0
011019	13:25:16	13:29:19	242324	5.0.10.0	4_exp_EVA_AMP_AWA_CON	58	Rpleas_acq	Same	Rpleas	Bmasked	CS_B	2pleas	distractor1	EVAbeforeCON	acq_new_unple_masked	acq2_masked	2	9	480	0	300	300	0	0	559	46	0	1	0	0	0	1	blank2r.bmp	0	1	+	0	7	C3r.bmp	492	1	blank2r.bmp	786	4	B4r.bmp	786	1	blank2r.bmp	866	2	rächen	866	1	!	1319	1	!	-1	0	0	0	0	0	0	0	0	0	0	0	0	0	0	0	0	0	0	0	0	0	0	0	0	0	0	0
011019	13:25:16	13:29:21	244670	5.0.10.0	4_exp_EVA_AMP_AWA_CON	58	Rpleas_acq	Same	Rpleas	Bmasked	CS_B	2pleas	distractor1	EVAbeforeCON	acq_US_pleas_masked	acq2_masked	2	10	480	1	300	300	0	0	542	50	0	1	0	0	0	1	blank2r.bmp	0	1	+	0	2	B2r.bmp	492	1	blank2r.bmp	786	1	GKQX	786	1	blank2r.bmp	866	5	schlau	866	1	!	1319	1	!	1439	0	0	0	0	0	0	0	0	0	0	0	0	0	0	0	0	0	0	0	0	0	0	0	0	0	0	0
011019	13:25:16	13:29:24	246922	5.0.10.0	4_exp_EVA_AMP_AWA_CON	58	Rpleas_acq	Same	Rpleas	Bmasked	CS_B	2pleas	distractor1	EVAbeforeCON	acq_US_pleas_masked	acq2_masked	2	11	480	1	300	300	0	0	454	50	0	1	0	0	0	1	blank2r.bmp	0	1	+	0	1	B1r.bmp	492	1	blank2r.bmp	786	1	GKQX	786	1	blank2r.bmp	866	3	ehrlich	866	1	!	1319	1	!	1359	0	0	0	0	0	0	0	0	0	0	0	0	0	0	0	0	0	0	0	0	0	0	0	0	0	0	0
011019	13:25:16	13:29:26	249148	5.0.10.0	4_exp_EVA_AMP_AWA_CON	58	Rpleas_acq	Same	Rpleas	Bmasked	CS_B	2pleas	distractor1	EVAbeforeCON	acq_new_pleas_masked	acq2_masked	2	12	480	1	300	300	0	0	439	50	0	1	0	0	0	1	blank2r.bmp	0	1	+	0	3	B3r.bmp	492	1	blank2r.bmp	786	2	B2r.bmp	786	1	blank2r.bmp	866	5	tolerant	866	1	!	1319	1	!	1332	0	0	0	0	0	0	0	0	0	0	0	0	0	0	0	0	0	0	0	0	0	0	0	0	0	0	0
011019	13:25:16	13:29:28	251400	5.0.10.0	4_exp_EVA_AMP_AWA_CON	58	Rpleas_acq	Same	Rpleas	Bmasked	CS_B	2pleas	distractor1	EVAbeforeCON	acq_US_pleas_masked	acq2_masked	2	13	480	0	300	300	0	0	271	46	0	0	0	0	0	1	blank2r.bmp	0	1	+	0	6	C2r.bmp	492	1	blank2r.bmp	786	1	GKQX	786	1	blank2r.bmp	866	5	schlau	866	1	FEHLER	1479	1	!	-1	1	!	-1	0	0	0	0	0	0	0	0	0	0	0	0	0	0	0	0	0	0	0	0	0	0	0	0
011019	13:25:16	13:29:30	253546	5.0.10.0	4_exp_EVA_AMP_AWA_CON	58	Rpleas_acq	Same	Rpleas	Bmasked	CS_B	2pleas	distractor1	EVAbeforeCON	acq_US_unple_masked	acq2_masked	2	14	480	0	300	300	0	0	582	46	0	1	0	0	0	1	blank2r.bmp	0	1	+	0	8	C4r.bmp	492	1	blank2r.bmp	786	1	BMVZ	786	1	blank2r.bmp	866	2	leiden	866	1	!	1319	1	!	-1	0	0	0	0	0	0	0	0	0	0	0	0	0	0	0	0	0	0	0	0	0	0	0	0	0	0	0
011019	13:25:16	13:29:32	255732	5.0.10.0	4_exp_EVA_AMP_AWA_CON	58	Rpleas_acq	Same	Rpleas	Bmasked	CS_B	2pleas	distractor1	EVAbeforeCON	acq_US_unple_masked	acq2_masked	2	15	480	0	300	300	0	0	386	46	0	1	0	0	0	1	blank2r.bmp	0	1	+	0	7	C3r.bmp	492	1	blank2r.bmp	786	1	BMVZ	786	1	blank2r.bmp	866	6	schlecht	866	1	!	-1	1	!	-1	0	0	0	0	0	0	0	0	0	0	0	0	0	0	0	0	0	0	0	0	0	0	0	0	0	0	0
011019	13:25:16	13:29:35	258078	5.0.10.0	4_exp_EVA_AMP_AWA_CON	58	Rpleas_acq	Same	Rpleas	Bmasked	CS_B	2pleas	distractor1	EVAbeforeCON	acq_US_unple_masked	acq2_masked	2	16	480	0	300	300	0	0	559	46	0	1	0	0	0	1	blank2r.bmp	0	1	+	0	2	B2r.bmp	492	1	blank2r.bmp	786	1	BMVZ	786	1	blank2r.bmp	866	5	schroff	866	1	!	1319	1	!	-1	0	0	0	0	0	0	0	0	0	0	0	0	0	0	0	0	0	0	0	0	0	0	0	0	0	0	0
011019	13:25:16	13:29:37	260223	5.0.10.0	4_exp_EVA_AMP_AWA_CON	58	Rpleas_acq	Same	Rpleas	Bmasked	CS_B	2pleas	distractor1	EVAbeforeCON	acq_new_pleas_masked	acq2_masked	2	17	480	0	300	300	0	0	369	50	0	1	0	0	0	1	blank2r.bmp	0	1	+	0	4	B4r.bmp	492	1	blank2r.bmp	786	6	C2r.bmp	786	1	blank2r.bmp	866	5	tolerant	866	1	!	-1	1	!	-1	0	0	0	0	0	0	0	0	0	0	0	0	0	0	0	0	0	0	0	0	0	0	0	0	0	0	0
011019	13:25:16	13:29:39	262489	5.0.10.0	4_exp_EVA_AMP_AWA_CON	58	Rpleas_acq	Same	Rpleas	Bmasked	CS_B	2pleas	distractor1	EVAbeforeCON	acq_US_pleas_masked	acq2_masked	2	18	480	1	300	300	0	0	444	50	0	1	0	0	0	1	blank2r.bmp	0	1	+	0	3	B3r.bmp	492	1	blank2r.bmp	786	1	GKQX	786	1	blank2r.bmp	866	3	ehrlich	866	1	!	1319	1	!	1346	0	0	0	0	0	0	0	0	0	0	0	0	0	0	0	0	0	0	0	0	0	0	0	0	0	0	0
011019	13:25:16	13:29:42	264968	5.0.10.0	4_exp_EVA_AMP_AWA_CON	58	Rpleas_acq	Same	Rpleas	Bmasked	CS_B	2pleas	distractor1	EVAbeforeCON	acq_new_unple_masked	acq2_masked	2	19	480	1	300	300	0	0	472	50	0	0	0	0	0	1	blank2r.bmp	0	1	+	0	1	B1r.bmp	492	1	blank2r.bmp	786	5	C1r.bmp	786	1	blank2r.bmp	866	4	fanatisch	866	1	FEHLER	1692	1	!	1319	1	!	1372	0	0	0	0	0	0	0	0	0	0	0	0	0	0	0	0	0	0	0	0	0	0	0	0
011019	13:25:16	13:29:44	266980	5.0.10.0	4_exp_EVA_AMP_AWA_CON	58	Rpleas_acq	Same	Rpleas	Bmasked	CS_B	2pleas	distractor1	EVAbeforeCON	acq_new_unple_masked	acq2_masked	2	20	480	1	300	300	0	0	432	46	0	1	0	0	0	1	blank2r.bmp	0	1	+	0	5	C1r.bmp	492	1	blank2r.bmp	786	8	C4r.bmp	786	1	blank2r.bmp	866	6	faul	866	1	!	1319	1	!	1332	0	0	0	0	0	0	0	0	0	0	0	0	0	0	0	0	0	0	0	0	0	0	0	0	0	0	0
011019	13:25:16	13:29:46	269286	5.0.10.0	4_exp_EVA_AMP_AWA_CON	58	Rpleas_acq	Same	Rpleas	Bmasked	CS_B	2pleas	distractor1	EVAbeforeCON	acq_new_pleas_masked	acq2_masked	2	21	480	1	300	300	0	0	509	50	0	1	0	0	0	1	blank2r.bmp	0	1	+	0	7	C3r.bmp	492	1	blank2r.bmp	786	2	B2r.bmp	786	1	blank2r.bmp	866	4	freundlich	866	1	!	1319	1	!	1412	0	0	0	0	0	0	0	0	0	0	0	0	0	0	0	0	0	0	0	0	0	0	0	0	0	0	0
011019	13:25:16	13:29:48	271379	5.0.10.0	4_exp_EVA_AMP_AWA_CON	58	Rpleas_acq	Same	Rpleas	Bmasked	CS_B	2pleas	distractor1	EVAbeforeCON	acq_US_pleas_masked	acq2_masked	2	22	480	0	300	300	0	0	329	50	0	1	0	0	0	1	blank2r.bmp	0	1	+	0	3	B3r.bmp	492	1	blank2r.bmp	786	1	GKQX	786	1	blank2r.bmp	866	6	schön	866	1	!	-1	1	!	-1	0	0	0	0	0	0	0	0	0	0	0	0	0	0	0	0	0	0	0	0	0	0	0	0	0	0	0
011019	13:25:16	13:29:50	273724	5.0.10.0	4_exp_EVA_AMP_AWA_CON	58	Rpleas_acq	Same	Rpleas	Bmasked	CS_B	2pleas	distractor1	EVAbeforeCON	acq_new_unple_masked	acq2_masked	2	23	480	0	300	300	0	0	559	46	0	1	0	0	0	1	blank2r.bmp	0	1	+	0	8	C4r.bmp	492	1	blank2r.bmp	786	7	C3r.bmp	786	1	blank2r.bmp	866	5	tyrannisch	866	1	!	1319	1	!	-1	0	0	0	0	0	0	0	0	0	0	0	0	0	0	0	0	0	0	0	0	0	0	0	0	0	0	0
011019	13:25:16	13:29:53	275963	5.0.10.0	4_exp_EVA_AMP_AWA_CON	58	Rpleas_acq	Same	Rpleas	Bmasked	CS_B	2pleas	distractor1	EVAbeforeCON	acq_new_pleas_masked	acq2_masked	2	24	480	1	300	300	0	0	437	50	0	1	0	0	0	1	blank2r.bmp	0	1	+	0	2	B2r.bmp	492	1	blank2r.bmp	786	1	B1r.bmp	786	1	blank2r.bmp	866	3	loyal	866	1	!	1319	1	!	1332	0	0	0	0	0	0	0	0	0	0	0	0	0	0	0	0	0	0	0	0	0	0	0	0	0	0	0
011019	13:25:16	13:29:55	278202	5.0.10.0	4_exp_EVA_AMP_AWA_CON	58	Rpleas_acq	Same	Rpleas	Bmasked	CS_B	2pleas	distractor1	EVAbeforeCON	acq_US_unple_masked	acq2_masked	2	25	480	1	300	300	0	0	446	46	0	1	0	0	0	1	blank2r.bmp	0	1	+	0	4	B4r.bmp	492	1	blank2r.bmp	786	1	BMVZ	786	1	blank2r.bmp	866	4	strafen	866	1	!	1319	1	!	1346	0	0	0	0	0	0	0	0	0	0	0	0	0	0	0	0	0	0	0	0	0	0	0	0	0	0	0
011019	13:25:16	13:29:57	280361	5.0.10.0	4_exp_EVA_AMP_AWA_CON	58	Rpleas_acq	Same	Rpleas	Bmasked	CS_B	2pleas	distractor1	EVAbeforeCON	acq_US_unple_masked	acq2_masked	2	26	480	0	300	300	0	0	385	46	0	1	0	0	0	1	blank2r.bmp	0	1	+	0	6	C2r.bmp	492	1	blank2r.bmp	786	1	BMVZ	786	1	blank2r.bmp	866	3	eitel	866	1	!	-1	1	!	-1	0	0	0	0	0	0	0	0	0	0	0	0	0	0	0	0	0	0	0	0	0	0	0	0	0	0	0
011019	13:25:16	13:29:59	282507	5.0.10.0	4_exp_EVA_AMP_AWA_CON	58	Rpleas_acq	Same	Rpleas	Bmasked	CS_B	2pleas	distractor1	EVAbeforeCON	acq_US_pleas_masked	acq2_masked	2	27	480	0	300	300	0	0	356	50	0	1	0	0	0	1	blank2r.bmp	0	1	+	0	1	B1r.bmp	492	1	blank2r.bmp	786	1	GKQX	786	1	blank2r.bmp	866	1	helfen	866	1	!	-1	1	!	-1	0	0	0	0	0	0	0	0	0	0	0	0	0	0	0	0	0	0	0	0	0	0	0	0	0	0	0
011019	13:25:16	13:30:04	287265	5.0.10.0	4_exp_EVA_AMP_AWA_CON	58	Rpleas_acq	Same	Rpleas	Bmasked	CS_B	2pleas	distractor1	EVAbeforeCON	acq_new_unple_masked	acq2_masked	2	28	480	0	300	300	0	0	2972	46	0	1	0	0	0	1	blank2r.bmp	0	1	+	0	5	C1r.bmp	492	1	blank2r.bmp	786	3	B3r.bmp	786	1	blank2r.bmp	866	1	tot	866	1	!	1319	1	!	-1	0	0	0	0	0	0	0	0	0	0	0	0	0	0	0	0	0	0	0	0	0	0	0	0	0	0	0
011019	13:25:16	13:30:06	289544	5.0.10.0	4_exp_EVA_AMP_AWA_CON	58	Rpleas_acq	Same	Rpleas	Bmasked	CS_B	2pleas	distractor1	EVAbeforeCON	acq_US_pleas_masked	acq2_masked	2	29	480	1	300	300	0	0	469	50	0	1	0	0	0	1	blank2r.bmp	0	1	+	0	2	B2r.bmp	492	1	blank2r.bmp	786	1	GKQX	786	1	blank2r.bmp	866	2	lachen	866	1	!	1319	1	!	1372	0	0	0	0	0	0	0	0	0	0	0	0	0	0	0	0	0	0	0	0	0	0	0	0	0	0	0
011019	13:25:16	13:30:08	291770	5.0.10.0	4_exp_EVA_AMP_AWA_CON	58	Rpleas_acq	Same	Rpleas	Bmasked	CS_B	2pleas	distractor1	EVAbeforeCON	acq_new_pleas_masked	acq2_masked	2	30	480	1	300	300	0	0	432	50	0	1	0	0	0	1	blank2r.bmp	0	1	+	0	3	B3r.bmp	492	1	blank2r.bmp	786	4	B4r.bmp	786	1	blank2r.bmp	866	2	retten	866	1	!	1319	1	!	1332	0	0	0	0	0	0	0	0	0	0	0	0	0	0	0	0	0	0	0	0	0	0	0	0	0	0	0
011019	13:25:16	13:30:11	293942	5.0.10.0	4_exp_EVA_AMP_AWA_CON	58	Rpleas_acq	Same	Rpleas	Bmasked	CS_B	2pleas	distractor1	EVAbeforeCON	acq_US_unple_masked	acq2_masked	2	31	480	0	300	300	0	0	409	46	0	1	0	0	0	1	blank2r.bmp	0	1	+	0	5	C1r.bmp	492	1	blank2r.bmp	786	1	BMVZ	786	1	blank2r.bmp	866	1	hindern	866	1	!	-1	1	!	-1	0	0	0	0	0	0	0	0	0	0	0	0	0	0	0	0	0	0	0	0	0	0	0	0	0	0	0
011019	13:25:16	13:30:13	296461	5.0.10.0	4_exp_EVA_AMP_AWA_CON	58	Rpleas_acq	Same	Rpleas	Bmasked	CS_B	2pleas	distractor1	EVAbeforeCON	acq_new_pleas_masked	acq2_masked	2	32	480	1	300	300	0	0	494	46	0	0	0	0	0	1	blank2r.bmp	0	1	+	0	4	B4r.bmp	492	1	blank2r.bmp	786	1	B1r.bmp	786	1	blank2r.bmp	866	6	fair	866	1	FEHLER	1719	1	!	1319	1	!	1399	0	0	0	0	0	0	0	0	0	0	0	0	0	0	0	0	0	0	0	0	0	0	0	0
011019	13:25:16	13:30:15	298660	5.0.10.0	4_exp_EVA_AMP_AWA_CON	58	Rpleas_acq	Same	Rpleas	Bmasked	CS_B	2pleas	distractor1	EVAbeforeCON	acq_new_unple_masked	acq2_masked	2	33	480	0	300	300	0	0	648	46	0	1	0	0	0	1	blank2r.bmp	0	1	+	0	6	C2r.bmp	492	1	blank2r.bmp	786	5	C1r.bmp	786	1	blank2r.bmp	866	3	lasch	866	1	!	1319	1	!	-1	0	0	0	0	0	0	0	0	0	0	0	0	0	0	0	0	0	0	0	0	0	0	0	0	0	0	0
011019	13:25:16	13:30:18	301126	5.0.10.0	4_exp_EVA_AMP_AWA_CON	58	Rpleas_acq	Same	Rpleas	Bmasked	CS_B	2pleas	distractor1	EVAbeforeCON	acq_new_unple_masked	acq2_masked	2	34	480	1	300	300	0	0	428	50	0	0	0	0	0	1	blank2r.bmp	0	1	+	0	1	B1r.bmp	492	1	blank2r.bmp	786	8	C4r.bmp	786	1	blank2r.bmp	866	2	rächen	866	1	FEHLER	1652	1	!	1319	1	!	1332	0	0	0	0	0	0	0	0	0	0	0	0	0	0	0	0	0	0	0	0	0	0	0	0
011019	13:25:16	13:30:20	303205	5.0.10.0	4_exp_EVA_AMP_AWA_CON	58	Rpleas_acq	Same	Rpleas	Bmasked	CS_B	2pleas	distractor1	EVAbeforeCON	acq_new_pleas_masked	acq2_masked	2	35	480	1	300	300	0	0	498	50	0	1	0	0	0	1	blank2r.bmp	0	1	+	0	8	C4r.bmp	492	1	blank2r.bmp	786	4	B4r.bmp	786	1	blank2r.bmp	866	1	treu	866	1	!	1319	1	!	1399	0	0	0	0	0	0	0	0	0	0	0	0	0	0	0	0	0	0	0	0	0	0	0	0	0	0	0
011019	13:25:16	13:30:22	305511	5.0.10.0	4_exp_EVA_AMP_AWA_CON	58	Rpleas_acq	Same	Rpleas	Bmasked	CS_B	2pleas	distractor1	EVAbeforeCON	acq_US_pleas_masked	acq2_masked	2	36	480	1	300	300	0	0	508	50	0	1	0	0	0	1	blank2r.bmp	0	1	+	0	7	C3r.bmp	492	1	blank2r.bmp	786	1	GKQX	786	1	blank2r.bmp	866	4	spielen	866	1	!	1319	1	!	1412	0	0	0	0	0	0	0	0	0	0	0	0	0	0	0	0	0	0	0	0	0	0	0	0	0	0	0
011019	13:25:16	13:30:36	319665	5.0.10.0	4_exp_EVA_AMP_AWA_CON	58	Rpleas_acq	Same	Rpleas	Bmasked	CS_B	2pleas	distractor1	EVAbeforeCON	acq_US_unple_masked	acq3_masked	3	1	453	0	300	300	0	0	533	46	0	1	0	0	0	1	blank2r.bmp	0	1	+	0	6	C2r.bmp	492	1	blank2r.bmp	786	1	BMVZ	786	1	blank2r.bmp	866	4	strafen	866	1	!	1292	1	!	-1	0	0	0	0	0	0	0	0	0	0	0	0	0	0	0	0	0	0	0	0	0	0	0	0	0	0	0
011019	13:25:16	13:30:38	321744	5.0.10.0	4_exp_EVA_AMP_AWA_CON	58	Rpleas_acq	Same	Rpleas	Bmasked	CS_B	2pleas	distractor1	EVAbeforeCON	acq_US_pleas_masked	acq3_masked	3	2	453	0	300	300	0	0	294	50	0	1	0	0	0	1	blank2r.bmp	0	1	+	0	3	B3r.bmp	492	1	blank2r.bmp	786	1	GKQX	786	1	blank2r.bmp	866	4	spielen	866	1	!	-1	1	!	-1	0	0	0	0	0	0	0	0	0	0	0	0	0	0	0	0	0	0	0	0	0	0	0	0	0	0	0
011019	13:25:16	13:30:41	324023	5.0.10.0	4_exp_EVA_AMP_AWA_CON	58	Rpleas_acq	Same	Rpleas	Bmasked	CS_B	2pleas	distractor1	EVAbeforeCON	acq_US_pleas_masked	acq3_masked	3	3	453	1	300	300	0	0	466	50	0	1	0	0	0	1	blank2r.bmp	0	1	+	0	4	B4r.bmp	492	1	blank2r.bmp	786	1	GKQX	786	1	blank2r.bmp	866	3	ehrlich	866	1	!	1292	1	!	1372	0	0	0	0	0	0	0	0	0	0	0	0	0	0	0	0	0	0	0	0	0	0	0	0	0	0	0
011019	13:25:16	13:30:43	326249	5.0.10.0	4_exp_EVA_AMP_AWA_CON	58	Rpleas_acq	Same	Rpleas	Bmasked	CS_B	2pleas	distractor1	EVAbeforeCON	acq_US_pleas_masked	acq3_masked	3	4	453	1	300	300	0	0	422	50	0	1	0	0	0	1	blank2r.bmp	0	1	+	0	5	C1r.bmp	492	1	blank2r.bmp	786	1	GKQX	786	1	blank2r.bmp	866	6	schön	866	1	!	1292	1	!	1319	0	0	0	0	0	0	0	0	0	0	0	0	0	0	0	0	0	0	0	0	0	0	0	0	0	0	0
011019	13:25:16	13:30:45	328488	5.0.10.0	4_exp_EVA_AMP_AWA_CON	58	Rpleas_acq	Same	Rpleas	Bmasked	CS_B	2pleas	distractor1	EVAbeforeCON	acq_US_unple_masked	acq3_masked	3	5	453	1	300	300	0	0	439	46	0	1	0	0	0	1	blank2r.bmp	0	1	+	0	7	C3r.bmp	492	1	blank2r.bmp	786	1	BMVZ	786	1	blank2r.bmp	866	3	eitel	866	1	!	1292	1	!	1346	0	0	0	0	0	0	0	0	0	0	0	0	0	0	0	0	0	0	0	0	0	0	0	0	0	0	0
011019	13:25:16	13:30:47	330754	5.0.10.0	4_exp_EVA_AMP_AWA_CON	58	Rpleas_acq	Same	Rpleas	Bmasked	CS_B	2pleas	distractor1	EVAbeforeCON	acq_US_unple_masked	acq3_masked	3	6	453	1	300	300	0	0	466	46	0	1	0	0	0	1	blank2r.bmp	0	1	+	0	8	C4r.bmp	492	1	blank2r.bmp	786	1	BMVZ	786	1	blank2r.bmp	866	5	schroff	866	1	!	1292	1	!	1372	0	0	0	0	0	0	0	0	0	0	0	0	0	0	0	0	0	0	0	0	0	0	0	0	0	0	0
011019	13:25:16	13:30:50	333006	5.0.10.0	4_exp_EVA_AMP_AWA_CON	58	Rpleas_acq	Same	Rpleas	Bmasked	CS_B	2pleas	distractor1	EVAbeforeCON	acq_US_pleas_masked	acq3_masked	3	7	453	1	300	300	0	0	461	50	0	1	0	0	0	1	blank2r.bmp	0	1	+	0	2	B2r.bmp	492	1	blank2r.bmp	786	1	GKQX	786	1	blank2r.bmp	866	5	schlau	866	1	!	1292	1	!	1359	0	0	0	0	0	0	0	0	0	0	0	0	0	0	0	0	0	0	0	0	0	0	0	0	0	0	0
011019	13:25:16	13:30:52	335245	5.0.10.0	4_exp_EVA_AMP_AWA_CON	58	Rpleas_acq	Same	Rpleas	Bmasked	CS_B	2pleas	distractor1	EVAbeforeCON	acq_US_unple_masked	acq3_masked	3	8	453	1	300	300	0	0	447	46	0	1	0	0	0	1	blank2r.bmp	0	1	+	0	1	B1r.bmp	492	1	blank2r.bmp	786	1	BMVZ	786	1	blank2r.bmp	866	6	schlecht	866	1	!	1292	1	!	1346	0	0	0	0	0	0	0	0	0	0	0	0	0	0	0	0	0	0	0	0	0	0	0	0	0	0	0
011019	13:25:16	13:30:54	337471	5.0.10.0	4_exp_EVA_AMP_AWA_CON	58	Rpleas_acq	Same	Rpleas	Bmasked	CS_B	2pleas	distractor1	EVAbeforeCON	acq_US_pleas_masked	acq3_masked	3	9	453	1	300	300	0	0	432	50	0	1	0	0	0	1	blank2r.bmp	0	1	+	0	2	B2r.bmp	492	1	blank2r.bmp	786	1	GKQX	786	1	blank2r.bmp	866	1	helfen	866	1	!	1292	1	!	1332	0	0	0	0	0	0	0	0	0	0	0	0	0	0	0	0	0	0	0	0	0	0	0	0	0	0	0
011019	13:25:16	13:30:56	339803	5.0.10.0	4_exp_EVA_AMP_AWA_CON	58	Rpleas_acq	Same	Rpleas	Bmasked	CS_B	2pleas	distractor1	EVAbeforeCON	acq_US_unple_masked	acq3_masked	3	10	453	0	300	300	0	0	549	46	0	1	0	0	0	1	blank2r.bmp	0	1	+	0	8	C4r.bmp	492	1	blank2r.bmp	786	1	BMVZ	786	1	blank2r.bmp	866	1	hindern	866	1	!	1292	1	!	-1	0	0	0	0	0	0	0	0	0	0	0	0	0	0	0	0	0	0	0	0	0	0	0	0	0	0	0
011019	13:25:16	13:30:59	342176	5.0.10.0	4_exp_EVA_AMP_AWA_CON	58	Rpleas_acq	Same	Rpleas	Bmasked	CS_B	2pleas	distractor1	EVAbeforeCON	acq_US_pleas_masked	acq3_masked	3	11	453	0	300	300	0	0	366	46	0	0	0	0	0	1	blank2r.bmp	0	1	+	0	1	B1r.bmp	492	1	blank2r.bmp	786	1	GKQX	786	1	blank2r.bmp	866	2	lachen	866	1	FEHLER	1572	1	!	-1	1	!	-1	0	0	0	0	0	0	0	0	0	0	0	0	0	0	0	0	0	0	0	0	0	0	0	0
011019	13:25:16	13:31:01	344281	5.0.10.0	4_exp_EVA_AMP_AWA_CON	58	Rpleas_acq	Same	Rpleas	Bmasked	CS_B	2pleas	distractor1	EVAbeforeCON	acq_US_unple_masked	acq3_masked	3	12	453	1	300	300	0	0	511	46	0	1	0	0	0	1	blank2r.bmp	0	1	+	0	7	C3r.bmp	492	1	blank2r.bmp	786	1	BMVZ	786	1	blank2r.bmp	866	2	leiden	866	1	!	1292	1	!	1412	0	0	0	0	0	0	0	0	0	0	0	0	0	0	0	0	0	0	0	0	0	0	0	0	0	0	0
011019	13:25:16	13:31:03	346534	5.0.10.0	4_exp_EVA_AMP_AWA_CON	58	Rpleas_acq	Same	Rpleas	Bmasked	CS_B	2pleas	distractor1	EVAbeforeCON	acq_US_pleas_masked	acq3_masked	3	13	453	1	300	300	0	0	460	50	0	1	0	0	0	1	blank2r.bmp	0	1	+	0	6	C2r.bmp	492	1	blank2r.bmp	786	1	GKQX	786	1	blank2r.bmp	866	6	schön	866	1	!	1292	1	!	1359	0	0	0	0	0	0	0	0	0	0	0	0	0	0	0	0	0	0	0	0	0	0	0	0	0	0	0
011019	13:25:16	13:31:05	348826	5.0.10.0	4_exp_EVA_AMP_AWA_CON	58	Rpleas_acq	Same	Rpleas	Bmasked	CS_B	2pleas	distractor1	EVAbeforeCON	acq_US_pleas_masked	acq3_masked	3	14	453	1	300	300	0	0	485	50	0	1	0	0	0	1	blank2r.bmp	0	1	+	0	5	C1r.bmp	492	1	blank2r.bmp	786	1	GKQX	786	1	blank2r.bmp	866	4	spielen	866	1	!	1292	1	!	1386	0	0	0	0	0	0	0	0	0	0	0	0	0	0	0	0	0	0	0	0	0	0	0	0	0	0	0
011019	13:25:16	13:31:08	351185	5.0.10.0	4_exp_EVA_AMP_AWA_CON	58	Rpleas_acq	Same	Rpleas	Bmasked	CS_B	2pleas	distractor1	EVAbeforeCON	acq_US_unple_masked	acq3_masked	3	15	453	0	300	300	0	0	349	50	0	0	0	0	0	1	blank2r.bmp	0	1	+	0	3	B3r.bmp	492	1	blank2r.bmp	786	1	BMVZ	786	1	blank2r.bmp	866	2	leiden	866	1	FEHLER	1559	1	!	-1	1	!	-1	0	0	0	0	0	0	0	0	0	0	0	0	0	0	0	0	0	0	0	0	0	0	0	0
011019	13:25:16	13:31:10	353238	5.0.10.0	4_exp_EVA_AMP_AWA_CON	58	Rpleas_acq	Same	Rpleas	Bmasked	CS_B	2pleas	distractor1	EVAbeforeCON	acq_US_unple_masked	acq3_masked	3	16	453	1	300	300	0	0	472	46	0	1	0	0	0	1	blank2r.bmp	0	1	+	0	4	B4r.bmp	492	1	blank2r.bmp	786	1	BMVZ	786	1	blank2r.bmp	866	3	eitel	866	1	!	1292	1	!	1372	0	0	0	0	0	0	0	0	0	0	0	0	0	0	0	0	0	0	0	0	0	0	0	0	0	0	0
011019	13:25:16	13:31:12	355477	5.0.10.0	4_exp_EVA_AMP_AWA_CON	58	Rpleas_acq	Same	Rpleas	Bmasked	CS_B	2pleas	distractor1	EVAbeforeCON	acq_US_unple_masked	acq3_masked	3	17	453	1	300	300	0	0	441	46	0	1	0	0	0	1	blank2r.bmp	0	1	+	0	8	C4r.bmp	492	1	blank2r.bmp	786	1	BMVZ	786	1	blank2r.bmp	866	1	hindern	866	1	!	1292	1	!	1346	0	0	0	0	0	0	0	0	0	0	0	0	0	0	0	0	0	0	0	0	0	0	0	0	0	0	0
011019	13:25:16	13:31:14	357769	5.0.10.0	4_exp_EVA_AMP_AWA_CON	58	Rpleas_acq	Same	Rpleas	Bmasked	CS_B	2pleas	distractor1	EVAbeforeCON	acq_US_unple_masked	acq3_masked	3	18	453	1	300	300	0	0	501	46	0	1	0	0	0	1	blank2r.bmp	0	1	+	0	1	B1r.bmp	492	1	blank2r.bmp	786	1	BMVZ	786	1	blank2r.bmp	866	5	schroff	866	1	!	1292	1	!	1399	0	0	0	0	0	0	0	0	0	0	0	0	0	0	0	0	0	0	0	0	0	0	0	0	0	0	0
011019	13:25:16	13:31:17	360075	5.0.10.0	4_exp_EVA_AMP_AWA_CON	58	Rpleas_acq	Same	Rpleas	Bmasked	CS_B	2pleas	distractor1	EVAbeforeCON	acq_US_unple_masked	acq3_masked	3	19	453	1	300	300	0	0	510	46	0	1	0	0	0	1	blank2r.bmp	0	1	+	0	3	B3r.bmp	492	1	blank2r.bmp	786	1	BMVZ	786	1	blank2r.bmp	866	6	schlecht	866	1	!	1292	1	!	1412	0	0	0	0	0	0	0	0	0	0	0	0	0	0	0	0	0	0	0	0	0	0	0	0	0	0	0
011019	13:25:16	13:31:19	362394	5.0.10.0	4_exp_EVA_AMP_AWA_CON	58	Rpleas_acq	Same	Rpleas	Bmasked	CS_B	2pleas	distractor1	EVAbeforeCON	acq_US_unple_masked	acq3_masked	3	20	453	0	300	300	0	0	536	46	0	1	0	0	0	1	blank2r.bmp	0	1	+	0	6	C2r.bmp	492	1	blank2r.bmp	786	1	BMVZ	786	1	blank2r.bmp	866	4	strafen	866	1	!	1292	1	!	-1	0	0	0	0	0	0	0	0	0	0	0	0	0	0	0	0	0	0	0	0	0	0	0	0	0	0	0
011019	13:25:16	13:31:21	364633	5.0.10.0	4_exp_EVA_AMP_AWA_CON	58	Rpleas_acq	Same	Rpleas	Bmasked	CS_B	2pleas	distractor1	EVAbeforeCON	acq_US_pleas_masked	acq3_masked	3	21	453	1	300	300	0	0	435	50	0	1	0	0	0	1	blank2r.bmp	0	1	+	0	7	C3r.bmp	492	1	blank2r.bmp	786	1	GKQX	786	1	blank2r.bmp	866	5	schlau	866	1	!	1292	1	!	1332	0	0	0	0	0	0	0	0	0	0	0	0	0	0	0	0	0	0	0	0	0	0	0	0	0	0	0
011019	13:25:16	13:31:24	366992	5.0.10.0	4_exp_EVA_AMP_AWA_CON	58	Rpleas_acq	Same	Rpleas	Bmasked	CS_B	2pleas	distractor1	EVAbeforeCON	acq_US_pleas_masked	acq3_masked	3	22	453	0	300	300	0	0	591	50	0	1	0	0	0	1	blank2r.bmp	0	1	+	0	4	B4r.bmp	492	1	blank2r.bmp	786	1	GKQX	786	1	blank2r.bmp	866	3	ehrlich	866	1	!	1292	1	!	-1	0	0	0	0	0	0	0	0	0	0	0	0	0	0	0	0	0	0	0	0	0	0	0	0	0	0	0
011019	13:25:16	13:31:26	369204	5.0.10.0	4_exp_EVA_AMP_AWA_CON	58	Rpleas_acq	Same	Rpleas	Bmasked	CS_B	2pleas	distractor1	EVAbeforeCON	acq_US_pleas_masked	acq3_masked	3	23	453	1	300	300	0	0	399	50	0	1	0	0	0	1	blank2r.bmp	0	1	+	0	2	B2r.bmp	492	1	blank2r.bmp	786	1	GKQX	786	1	blank2r.bmp	866	2	lachen	866	1	!	1292	1	!	1306	0	0	0	0	0	0	0	0	0	0	0	0	0	0	0	0	0	0	0	0	0	0	0	0	0	0	0
011019	13:25:16	13:31:28	371310	5.0.10.0	4_exp_EVA_AMP_AWA_CON	58	Rpleas_acq	Same	Rpleas	Bmasked	CS_B	2pleas	distractor1	EVAbeforeCON	acq_US_pleas_masked	acq3_masked	3	24	453	0	300	300	0	0	337	50	0	1	0	0	0	1	blank2r.bmp	0	1	+	0	5	C1r.bmp	492	1	blank2r.bmp	786	1	GKQX	786	1	blank2r.bmp	866	1	helfen	866	1	!	-1	1	!	-1	0	0	0	0	0	0	0	0	0	0	0	0	0	0	0	0	0	0	0	0	0	0	0	0	0	0	0
011019	13:25:16	13:31:30	373576	5.0.10.0	4_exp_EVA_AMP_AWA_CON	58	Rpleas_acq	Same	Rpleas	Bmasked	CS_B	2pleas	distractor1	EVAbeforeCON	acq_US_pleas_masked	acq3_masked	3	25	453	1	300	300	0	0	439	50	0	1	0	0	0	1	blank2r.bmp	0	1	+	0	7	C3r.bmp	492	1	blank2r.bmp	786	1	GKQX	786	1	blank2r.bmp	866	6	schön	866	1	!	1292	1	!	1346	0	0	0	0	0	0	0	0	0	0	0	0	0	0	0	0	0	0	0	0	0	0	0	0	0	0	0
011019	13:25:16	13:31:33	376188	5.0.10.0	4_exp_EVA_AMP_AWA_CON	58	Rpleas_acq	Same	Rpleas	Bmasked	CS_B	2pleas	distractor1	EVAbeforeCON	acq_US_unple_masked	acq3_masked	3	26	453	0	300	300	0	0	850	46	0	1	0	0	0	1	blank2r.bmp	0	1	+	0	5	C1r.bmp	492	1	blank2r.bmp	786	1	BMVZ	786	1	blank2r.bmp	866	6	schlecht	866	1	!	1292	1	!	-1	0	0	0	0	0	0	0	0	0	0	0	0	0	0	0	0	0	0	0	0	0	0	0	0	0	0	0
011019	13:25:16	13:31:35	378400	5.0.10.0	4_exp_EVA_AMP_AWA_CON	58	Rpleas_acq	Same	Rpleas	Bmasked	CS_B	2pleas	distractor1	EVAbeforeCON	acq_US_unple_masked	acq3_masked	3	27	453	1	300	300	0	0	399	46	0	1	0	0	0	1	blank2r.bmp	0	1	+	0	4	B4r.bmp	492	1	blank2r.bmp	786	1	BMVZ	786	1	blank2r.bmp	866	2	leiden	866	1	!	1292	1	!	1306	0	0	0	0	0	0	0	0	0	0	0	0	0	0	0	0	0	0	0	0	0	0	0	0	0	0	0
011019	13:25:16	13:31:37	380599	5.0.10.0	4_exp_EVA_AMP_AWA_CON	58	Rpleas_acq	Same	Rpleas	Bmasked	CS_B	2pleas	distractor1	EVAbeforeCON	acq_US_pleas_masked	acq3_masked	3	28	453	1	300	300	0	0	408	50	0	1	0	0	0	1	blank2r.bmp	0	1	+	0	3	B3r.bmp	492	1	blank2r.bmp	786	1	GKQX	786	1	blank2r.bmp	866	1	helfen	866	1	!	1292	1	!	1306	0	0	0	0	0	0	0	0	0	0	0	0	0	0	0	0	0	0	0	0	0	0	0	0	0	0	0
011019	13:25:16	13:31:40	382852	5.0.10.0	4_exp_EVA_AMP_AWA_CON	58	Rpleas_acq	Same	Rpleas	Bmasked	CS_B	2pleas	distractor1	EVAbeforeCON	acq_US_unple_masked	acq3_masked	3	29	453	1	300	300	0	0	456	46	0	1	0	0	0	1	blank2r.bmp	0	1	+	0	1	B1r.bmp	492	1	blank2r.bmp	786	1	BMVZ	786	1	blank2r.bmp	866	3	eitel	866	1	!	1292	1	!	1359	0	0	0	0	0	0	0	0	0	0	0	0	0	0	0	0	0	0	0	0	0	0	0	0	0	0	0
011019	13:25:16	13:31:42	385091	5.0.10.0	4_exp_EVA_AMP_AWA_CON	58	Rpleas_acq	Same	Rpleas	Bmasked	CS_B	2pleas	distractor1	EVAbeforeCON	acq_US_pleas_masked	acq3_masked	3	30	453	1	300	300	0	0	432	50	0	1	0	0	0	1	blank2r.bmp	0	1	+	0	6	C2r.bmp	492	1	blank2r.bmp	786	1	GKQX	786	1	blank2r.bmp	866	4	spielen	866	1	!	1292	1	!	1332	0	0	0	0	0	0	0	0	0	0	0	0	0	0	0	0	0	0	0	0	0	0	0	0	0	0	0
011019	13:25:16	13:31:44	387223	5.0.10.0	4_exp_EVA_AMP_AWA_CON	58	Rpleas_acq	Same	Rpleas	Bmasked	CS_B	2pleas	distractor1	EVAbeforeCON	acq_US_pleas_masked	acq3_masked	3	31	453	0	300	300	0	0	365	50	0	1	0	0	0	1	blank2r.bmp	0	1	+	0	2	B2r.bmp	492	1	blank2r.bmp	786	1	GKQX	786	1	blank2r.bmp	866	2	lachen	866	1	!	-1	1	!	-1	0	0	0	0	0	0	0	0	0	0	0	0	0	0	0	0	0	0	0	0	0	0	0	0	0	0	0
011019	13:25:16	13:31:51	394527	5.0.10.0	4_exp_EVA_AMP_AWA_CON	58	Rpleas_acq	Same	Rpleas	Bmasked	CS_B	2pleas	distractor1	EVAbeforeCON	acq_US_unple_masked	acq3_masked	3	32	453	0	300	300	0	0	5520	46	0	1	0	0	0	1	blank2r.bmp	0	1	+	0	8	C4r.bmp	492	1	blank2r.bmp	786	1	BMVZ	786	1	blank2r.bmp	866	4	strafen	866	1	!	1292	1	!	-1	0	0	0	0	0	0	0	0	0	0	0	0	0	0	0	0	0	0	0	0	0	0	0	0	0	0	0
011019	13:25:16	13:31:53	396753	5.0.10.0	4_exp_EVA_AMP_AWA_CON	58	Rpleas_acq	Same	Rpleas	Bmasked	CS_B	2pleas	distractor1	EVAbeforeCON	acq_US_pleas_masked	acq3_masked	3	33	453	1	300	300	0	0	417	50	0	1	0	0	0	1	blank2r.bmp	0	1	+	0	5	C1r.bmp	492	1	blank2r.bmp	786	1	GKQX	786	1	blank2r.bmp	866	3	ehrlich	866	1	!	1292	1	!	1319	0	0	0	0	0	0	0	0	0	0	0	0	0	0	0	0	0	0	0	0	0	0	0	0	0	0	0
011019	13:25:16	13:31:56	398965	5.0.10.0	4_exp_EVA_AMP_AWA_CON	58	Rpleas_acq	Same	Rpleas	Bmasked	CS_B	2pleas	distractor1	EVAbeforeCON	acq_US_unple_masked	acq3_masked	3	34	453	1	300	300	0	0	421	46	0	1	0	0	0	1	blank2r.bmp	0	1	+	0	4	B4r.bmp	492	1	blank2r.bmp	786	1	BMVZ	786	1	blank2r.bmp	866	1	hindern	866	1	!	1292	1	!	1319	0	0	0	0	0	0	0	0	0	0	0	0	0	0	0	0	0	0	0	0	0	0	0	0	0	0	0
011019	13:25:16	13:31:58	401204	5.0.10.0	4_exp_EVA_AMP_AWA_CON	58	Rpleas_acq	Same	Rpleas	Bmasked	CS_B	2pleas	distractor1	EVAbeforeCON	acq_US_unple_masked	acq3_masked	3	35	453	1	300	300	0	0	430	46	0	1	0	0	0	1	blank2r.bmp	0	1	+	0	7	C3r.bmp	492	1	blank2r.bmp	786	1	BMVZ	786	1	blank2r.bmp	866	5	schroff	866	1	!	1292	1	!	1332	0	0	0	0	0	0	0	0	0	0	0	0	0	0	0	0	0	0	0	0	0	0	0	0	0	0	0
011019	13:25:16	13:32:00	403430	5.0.10.0	4_exp_EVA_AMP_AWA_CON	58	Rpleas_acq	Same	Rpleas	Bmasked	CS_B	2pleas	distractor1	EVAbeforeCON	acq_US_pleas_masked	acq3_masked	3	36	453	1	300	300	0	0	429	50	0	1	0	0	0	1	blank2r.bmp	0	1	+	0	8	C4r.bmp	492	1	blank2r.bmp	786	1	GKQX	786	1	blank2r.bmp	866	5	schlau	866	1	!	1292	1	!	1332	0	0	0	0	0	0	0	0	0	0	0	0	0	0	0	0	0	0	0	0	0	0	0	0	0	0	0
011019	13:25:16	13:32:19	422808	5.0.10.0	4_exp_EVA_AMP_AWA_CON	58	Rpleas_acq	Same	Rpleas	Bmasked	CS_B	2pleas	distractor1	EVAbeforeCON	acq_US_pleas_masked	acq45_masked	4	1	400	1	300	300	0	0	441	50	0	1	0	0	0	1	blank2r.bmp	0	1	+	0	6	C2r.bmp	492	1	blank2r.bmp	786	1	GKQX	786	1	blank2r.bmp	866	4	spielen	866	1	!	1239	1	!	1346	0	0	0	0	0	0	0	0	0	0	0	0	0	0	0	0	0	0	0	0	0	0	0	0	0	0	0
011019	13:25:16	13:32:22	425047	5.0.10.0	4_exp_EVA_AMP_AWA_CON	58	Rpleas_acq	Same	Rpleas	Bmasked	CS_B	2pleas	distractor1	EVAbeforeCON	acq_US_pleas_masked	acq45_masked	4	2	400	1	300	300	0	0	446	50	0	1	0	0	0	1	blank2r.bmp	0	1	+	0	1	B1r.bmp	492	1	blank2r.bmp	786	1	GKQX	786	1	blank2r.bmp	866	1	helfen	866	1	!	1239	1	!	1346	0	0	0	0	0	0	0	0	0	0	0	0	0	0	0	0	0	0	0	0	0	0	0	0	0	0	0
011019	13:25:16	13:32:24	427260	5.0.10.0	4_exp_EVA_AMP_AWA_CON	58	Rpleas_acq	Same	Rpleas	Bmasked	CS_B	2pleas	distractor1	EVAbeforeCON	acq_US_unple_masked	acq45_masked	4	3	400	1	300	300	0	0	411	46	0	1	0	0	0	1	blank2r.bmp	0	1	+	0	3	B3r.bmp	492	1	blank2r.bmp	786	1	BMVZ	786	1	blank2r.bmp	866	4	strafen	866	1	!	1239	1	!	1306	0	0	0	0	0	0	0	0	0	0	0	0	0	0	0	0	0	0	0	0	0	0	0	0	0	0	0
011019	13:25:16	13:32:26	429326	5.0.10.0	4_exp_EVA_AMP_AWA_CON	58	Rpleas_acq	Same	Rpleas	Bmasked	CS_B	2pleas	distractor1	EVAbeforeCON	acq_US_pleas_masked	acq45_masked	4	4	400	0	300	300	0	0	295	50	0	1	0	0	0	1	blank2r.bmp	0	1	+	0	2	B2r.bmp	492	1	blank2r.bmp	786	1	GKQX	786	1	blank2r.bmp	866	2	lachen	866	1	!	-1	1	!	-1	0	0	0	0	0	0	0	0	0	0	0	0	0	0	0	0	0	0	0	0	0	0	0	0	0	0	0
011019	13:25:16	13:32:28	431565	5.0.10.0	4_exp_EVA_AMP_AWA_CON	58	Rpleas_acq	Same	Rpleas	Bmasked	CS_B	2pleas	distractor1	EVAbeforeCON	acq_US_unple_masked	acq45_masked	4	5	400	1	300	300	0	0	415	46	0	1	0	0	0	1	blank2r.bmp	0	1	+	0	7	C3r.bmp	492	1	blank2r.bmp	786	1	BMVZ	786	1	blank2r.bmp	866	2	leiden	866	1	!	1239	1	!	1319	0	0	0	0	0	0	0	0	0	0	0	0	0	0	0	0	0	0	0	0	0	0	0	0	0	0	0
011019	13:25:16	13:32:30	433710	5.0.10.0	4_exp_EVA_AMP_AWA_CON	58	Rpleas_acq	Same	Rpleas	Bmasked	CS_B	2pleas	distractor1	EVAbeforeCON	acq_US_pleas_masked	acq45_masked	4	6	400	1	300	300	0	0	353	46	0	0	0	0	0	1	blank2r.bmp	0	1	+	0	3	B3r.bmp	492	1	blank2r.bmp	786	1	GKQX	786	1	blank2r.bmp	866	5	schlau	866	1	!	1239	1	!	1252	0	0	0	0	0	0	0	0	0	0	0	0	0	0	0	0	0	0	0	0	0	0	0	0	0	0	0
011019	13:25:16	13:32:32	435710	5.0.10.0	4_exp_EVA_AMP_AWA_CON	58	Rpleas_acq	Same	Rpleas	Bmasked	CS_B	2pleas	distractor1	EVAbeforeCON	acq_US_pleas_masked	acq45_masked	4	7	400	0	300	300	0	0	225	50	0	1	0	0	0	1	blank2r.bmp	0	1	+	0	8	C4r.bmp	492	1	blank2r.bmp	786	1	GKQX	786	1	blank2r.bmp	866	6	schön	866	1	!	-1	1	!	-1	0	0	0	0	0	0	0	0	0	0	0	0	0	0	0	0	0	0	0	0	0	0	0	0	0	0	0
011019	13:25:16	13:32:35	437975	5.0.10.0	4_exp_EVA_AMP_AWA_CON	58	Rpleas_acq	Same	Rpleas	Bmasked	CS_B	2pleas	distractor1	EVAbeforeCON	acq_US_pleas_masked	acq45_masked	4	8	400	0	300	300	0	0	489	50	0	1	0	0	0	1	blank2r.bmp	0	1	+	0	1	B1r.bmp	492	1	blank2r.bmp	786	1	GKQX	786	1	blank2r.bmp	866	3	ehrlich	866	1	!	1239	1	!	-1	0	0	0	0	0	0	0	0	0	0	0	0	0	0	0	0	0	0	0	0	0	0	0	0	0	0	0
011019	13:25:16	13:32:37	440081	5.0.10.0	4_exp_EVA_AMP_AWA_CON	58	Rpleas_acq	Same	Rpleas	Bmasked	CS_B	2pleas	distractor1	EVAbeforeCON	acq_US_pleas_masked	acq45_masked	4	9	400	0	300	300	0	0	329	50	0	1	0	0	0	1	blank2r.bmp	0	1	+	0	2	B2r.bmp	492	1	blank2r.bmp	786	1	GKQX	786	1	blank2r.bmp	866	4	spielen	866	1	!	-1	1	!	-1	0	0	0	0	0	0	0	0	0	0	0	0	0	0	0	0	0	0	0	0	0	0	0	0	0	0	0
011019	13:25:16	13:32:39	442267	5.0.10.0	4_exp_EVA_AMP_AWA_CON	58	Rpleas_acq	Same	Rpleas	Bmasked	CS_B	2pleas	distractor1	EVAbeforeCON	acq_US_pleas_masked	acq45_masked	4	10	400	1	300	300	0	0	384	50	0	1	0	0	0	1	blank2r.bmp	0	1	+	0	6	C2r.bmp	492	1	blank2r.bmp	786	1	GKQX	786	1	blank2r.bmp	866	5	schlau	866	1	!	1239	1	!	1279	0	0	0	0	0	0	0	0	0	0	0	0	0	0	0	0	0	0	0	0	0	0	0	0	0	0	0
011019	13:25:16	13:32:41	444413	5.0.10.0	4_exp_EVA_AMP_AWA_CON	58	Rpleas_acq	Same	Rpleas	Bmasked	CS_B	2pleas	distractor1	EVAbeforeCON	acq_US_unple_masked	acq45_masked	4	11	400	1	300	300	0	0	346	50	0	0	0	0	0	1	blank2r.bmp	0	1	+	0	4	B4r.bmp	492	1	blank2r.bmp	786	1	BMVZ	786	1	blank2r.bmp	866	3	eitel	866	1	!	1239	1	!	1252	0	0	0	0	0	0	0	0	0	0	0	0	0	0	0	0	0	0	0	0	0	0	0	0	0	0	0
011019	13:25:16	13:32:43	446625	5.0.10.0	4_exp_EVA_AMP_AWA_CON	58	Rpleas_acq	Same	Rpleas	Bmasked	CS_B	2pleas	distractor1	EVAbeforeCON	acq_US_unple_masked	acq45_masked	4	12	400	1	300	300	0	0	422	46	0	1	0	0	0	1	blank2r.bmp	0	1	+	0	5	C1r.bmp	492	1	blank2r.bmp	786	1	BMVZ	786	1	blank2r.bmp	866	5	schroff	866	1	!	1239	1	!	1319	0	0	0	0	0	0	0	0	0	0	0	0	0	0	0	0	0	0	0	0	0	0	0	0	0	0	0
011019	13:25:16	13:32:45	448824	5.0.10.0	4_exp_EVA_AMP_AWA_CON	58	Rpleas_acq	Same	Rpleas	Bmasked	CS_B	2pleas	distractor1	EVAbeforeCON	acq_US_unple_masked	acq45_masked	4	13	400	1	300	300	0	0	399	46	0	1	0	0	0	1	blank2r.bmp	0	1	+	0	2	B2r.bmp	492	1	blank2r.bmp	786	1	BMVZ	786	1	blank2r.bmp	866	6	schlecht	866	1	!	1239	1	!	1306	0	0	0	0	0	0	0	0	0	0	0	0	0	0	0	0	0	0	0	0	0	0	0	0	0	0	0
011019	13:25:16	13:32:48	451010	5.0.10.0	4_exp_EVA_AMP_AWA_CON	58	Rpleas_acq	Same	Rpleas	Bmasked	CS_B	2pleas	distractor1	EVAbeforeCON	acq_US_pleas_masked	acq45_masked	4	14	400	1	300	300	0	0	390	50	0	1	0	0	0	1	blank2r.bmp	0	1	+	0	6	C2r.bmp	492	1	blank2r.bmp	786	1	GKQX	786	1	blank2r.bmp	866	6	schön	866	1	!	1239	1	!	1292	0	0	0	0	0	0	0	0	0	0	0	0	0	0	0	0	0	0	0	0	0	0	0	0	0	0	0
011019	13:25:16	13:32:50	453182	5.0.10.0	4_exp_EVA_AMP_AWA_CON	58	Rpleas_acq	Same	Rpleas	Bmasked	CS_B	2pleas	distractor1	EVAbeforeCON	acq_US_unple_masked	acq45_masked	4	15	400	1	300	300	0	0	382	46	0	1	0	0	0	1	blank2r.bmp	0	1	+	0	3	B3r.bmp	492	1	blank2r.bmp	786	1	BMVZ	786	1	blank2r.bmp	866	1	hindern	866	1	!	1239	1	!	1279	0	0	0	0	0	0	0	0	0	0	0	0	0	0	0	0	0	0	0	0	0	0	0	0	0	0	0
011019	13:25:16	13:32:52	455368	5.0.10.0	4_exp_EVA_AMP_AWA_CON	58	Rpleas_acq	Same	Rpleas	Bmasked	CS_B	2pleas	distractor1	EVAbeforeCON	acq_US_unple_masked	acq45_masked	4	16	400	1	300	300	0	0	393	46	0	1	0	0	0	1	blank2r.bmp	0	1	+	0	5	C1r.bmp	492	1	blank2r.bmp	786	1	BMVZ	786	1	blank2r.bmp	866	1	hindern	866	1	!	1239	1	!	1292	0	0	0	0	0	0	0	0	0	0	0	0	0	0	0	0	0	0	0	0	0	0	0	0	0	0	0
011019	13:25:16	13:32:54	457554	5.0.10.0	4_exp_EVA_AMP_AWA_CON	58	Rpleas_acq	Same	Rpleas	Bmasked	CS_B	2pleas	distractor1	EVAbeforeCON	acq_US_unple_masked	acq45_masked	4	17	400	1	300	300	0	0	388	46	0	1	0	0	0	1	blank2r.bmp	0	1	+	0	8	C4r.bmp	492	1	blank2r.bmp	786	1	BMVZ	786	1	blank2r.bmp	866	4	strafen	866	1	!	1239	1	!	1292	0	0	0	0	0	0	0	0	0	0	0	0	0	0	0	0	0	0	0	0	0	0	0	0	0	0	0
011019	13:25:16	13:32:56	459753	5.0.10.0	4_exp_EVA_AMP_AWA_CON	58	Rpleas_acq	Same	Rpleas	Bmasked	CS_B	2pleas	distractor1	EVAbeforeCON	acq_US_unple_masked	acq45_masked	4	18	400	1	300	300	0	0	404	46	0	1	0	0	0	1	blank2r.bmp	0	1	+	0	4	B4r.bmp	492	1	blank2r.bmp	786	1	BMVZ	786	1	blank2r.bmp	866	2	leiden	866	1	!	1239	1	!	1306	0	0	0	0	0	0	0	0	0	0	0	0	0	0	0	0	0	0	0	0	0	0	0	0	0	0	0
011019	13:25:16	13:32:59	461939	5.0.10.0	4_exp_EVA_AMP_AWA_CON	58	Rpleas_acq	Same	Rpleas	Bmasked	CS_B	2pleas	distractor1	EVAbeforeCON	acq_US_pleas_masked	acq45_masked	4	19	400	1	300	300	0	0	393	46	0	0	0	0	0	1	blank2r.bmp	0	1	+	0	7	C3r.bmp	492	1	blank2r.bmp	786	1	GKQX	786	1	blank2r.bmp	866	1	helfen	866	1	!	1239	1	!	1292	0	0	0	0	0	0	0	0	0	0	0	0	0	0	0	0	0	0	0	0	0	0	0	0	0	0	0
011019	13:25:16	13:33:01	464031	5.0.10.0	4_exp_EVA_AMP_AWA_CON	58	Rpleas_acq	Same	Rpleas	Bmasked	CS_B	2pleas	distractor1	EVAbeforeCON	acq_US_unple_masked	acq45_masked	4	20	400	0	300	300	0	0	326	46	0	1	0	0	0	1	blank2r.bmp	0	1	+	0	1	B1r.bmp	492	1	blank2r.bmp	786	1	BMVZ	786	1	blank2r.bmp	866	5	schroff	866	1	!	-1	1	!	-1	0	0	0	0	0	0	0	0	0	0	0	0	0	0	0	0	0	0	0	0	0	0	0	0	0	0	0
011019	13:25:16	13:33:03	466203	5.0.10.0	4_exp_EVA_AMP_AWA_CON	58	Rpleas_acq	Same	Rpleas	Bmasked	CS_B	2pleas	distractor1	EVAbeforeCON	acq_US_unple_masked	acq45_masked	4	21	400	1	300	300	0	0	366	46	0	1	0	0	0	1	blank2r.bmp	0	1	+	0	4	B4r.bmp	492	1	blank2r.bmp	786	1	BMVZ	786	1	blank2r.bmp	866	6	schlecht	866	1	!	1239	1	!	1266	0	0	0	0	0	0	0	0	0	0	0	0	0	0	0	0	0	0	0	0	0	0	0	0	0	0	0
011019	13:25:16	13:33:05	468442	5.0.10.0	4_exp_EVA_AMP_AWA_CON	58	Rpleas_acq	Same	Rpleas	Bmasked	CS_B	2pleas	distractor1	EVAbeforeCON	acq_US_pleas_masked	acq45_masked	4	22	400	1	300	300	0	0	443	50	0	1	0	0	0	1	blank2r.bmp	0	1	+	0	6	C2r.bmp	492	1	blank2r.bmp	786	1	GKQX	786	1	blank2r.bmp	866	2	lachen	866	1	!	1239	1	!	1346	0	0	0	0	0	0	0	0	0	0	0	0	0	0	0	0	0	0	0	0	0	0	0	0	0	0	0
011019	13:25:16	13:33:07	470642	5.0.10.0	4_exp_EVA_AMP_AWA_CON	58	Rpleas_acq	Same	Rpleas	Bmasked	CS_B	2pleas	distractor1	EVAbeforeCON	acq_US_unple_masked	acq45_masked	4	23	400	1	300	300	0	0	403	50	0	0	0	0	0	1	blank2r.bmp	0	1	+	0	2	B2r.bmp	492	1	blank2r.bmp	786	1	BMVZ	786	1	blank2r.bmp	866	3	eitel	866	1	!	1239	1	!	1306	0	0	0	0	0	0	0	0	0	0	0	0	0	0	0	0	0	0	0	0	0	0	0	0	0	0	0
011019	13:25:16	13:33:10	472894	5.0.10.0	4_exp_EVA_AMP_AWA_CON	58	Rpleas_acq	Same	Rpleas	Bmasked	CS_B	2pleas	distractor1	EVAbeforeCON	acq_US_pleas_masked	acq45_masked	4	24	400	0	300	300	0	0	479	50	0	1	0	0	0	1	blank2r.bmp	0	1	+	0	5	C1r.bmp	492	1	blank2r.bmp	786	1	GKQX	786	1	blank2r.bmp	866	3	ehrlich	866	1	!	1239	1	!	-1	0	0	0	0	0	0	0	0	0	0	0	0	0	0	0	0	0	0	0	0	0	0	0	0	0	0	0
011019	13:25:16	13:33:12	475093	5.0.10.0	4_exp_EVA_AMP_AWA_CON	58	Rpleas_acq	Same	Rpleas	Bmasked	CS_B	2pleas	distractor1	EVAbeforeCON	acq_US_pleas_masked	acq45_masked	4	25	400	1	300	300	0	0	373	50	0	1	0	0	0	1	blank2r.bmp	0	1	+	0	8	C4r.bmp	492	1	blank2r.bmp	786	1	GKQX	786	1	blank2r.bmp	866	6	schön	866	1	!	1239	1	!	1279	0	0	0	0	0	0	0	0	0	0	0	0	0	0	0	0	0	0	0	0	0	0	0	0	0	0	0
011019	13:25:16	13:33:14	477332	5.0.10.0	4_exp_EVA_AMP_AWA_CON	58	Rpleas_acq	Same	Rpleas	Bmasked	CS_B	2pleas	distractor1	EVAbeforeCON	acq_US_unple_masked	acq45_masked	4	26	400	1	300	300	0	0	433	46	0	1	0	0	0	1	blank2r.bmp	0	1	+	0	3	B3r.bmp	492	1	blank2r.bmp	786	1	BMVZ	786	1	blank2r.bmp	866	2	leiden	866	1	!	1239	1	!	1332	0	0	0	0	0	0	0	0	0	0	0	0	0	0	0	0	0	0	0	0	0	0	0	0	0	0	0
011019	13:25:16	13:33:16	479518	5.0.10.0	4_exp_EVA_AMP_AWA_CON	58	Rpleas_acq	Same	Rpleas	Bmasked	CS_B	2pleas	distractor1	EVAbeforeCON	acq_US_pleas_masked	acq45_masked	4	27	400	1	300	300	0	0	387	46	0	0	0	0	0	1	blank2r.bmp	0	1	+	0	1	B1r.bmp	492	1	blank2r.bmp	786	1	GKQX	786	1	blank2r.bmp	866	5	schlau	866	1	!	1239	1	!	1292	0	0	0	0	0	0	0	0	0	0	0	0	0	0	0	0	0	0	0	0	0	0	0	0	0	0	0
011019	13:25:16	13:33:18	481677	5.0.10.0	4_exp_EVA_AMP_AWA_CON	58	Rpleas_acq	Same	Rpleas	Bmasked	CS_B	2pleas	distractor1	EVAbeforeCON	acq_US_pleas_masked	acq45_masked	4	28	400	1	300	300	0	0	360	50	0	1	0	0	0	1	blank2r.bmp	0	1	+	0	7	C3r.bmp	492	1	blank2r.bmp	786	1	GKQX	786	1	blank2r.bmp	866	1	helfen	866	1	!	1239	1	!	1266	0	0	0	0	0	0	0	0	0	0	0	0	0	0	0	0	0	0	0	0	0	0	0	0	0	0	0
011019	13:25:16	13:33:20	483849	5.0.10.0	4_exp_EVA_AMP_AWA_CON	58	Rpleas_acq	Same	Rpleas	Bmasked	CS_B	2pleas	distractor1	EVAbeforeCON	acq_US_unple_masked	acq45_masked	4	29	400	1	300	300	0	0	372	46	0	1	0	0	0	1	blank2r.bmp	0	1	+	0	2	B2r.bmp	492	1	blank2r.bmp	786	1	BMVZ	786	1	blank2r.bmp	866	5	schroff	866	1	!	1239	1	!	1266	0	0	0	0	0	0	0	0	0	0	0	0	0	0	0	0	0	0	0	0	0	0	0	0	0	0	0
011019	13:25:16	13:33:23	485942	5.0.10.0	4_exp_EVA_AMP_AWA_CON	58	Rpleas_acq	Same	Rpleas	Bmasked	CS_B	2pleas	distractor1	EVAbeforeCON	acq_US_pleas_masked	acq45_masked	4	30	400	0	300	300	0	0	331	46	0	0	0	0	0	1	blank2r.bmp	0	1	+	0	3	B3r.bmp	492	1	blank2r.bmp	786	1	GKQX	786	1	blank2r.bmp	866	4	spielen	866	1	!	-1	1	!	-1	0	0	0	0	0	0	0	0	0	0	0	0	0	0	0	0	0	0	0	0	0	0	0	0	0	0	0
011019	13:25:16	13:33:25	488128	5.0.10.0	4_exp_EVA_AMP_AWA_CON	58	Rpleas_acq	Same	Rpleas	Bmasked	CS_B	2pleas	distractor1	EVAbeforeCON	acq_US_unple_masked	acq45_masked	4	31	400	1	300	300	0	0	382	50	0	0	0	0	0	1	blank2r.bmp	0	1	+	0	6	C2r.bmp	492	1	blank2r.bmp	786	1	BMVZ	786	1	blank2r.bmp	866	3	eitel	866	1	!	1239	1	!	1279	0	0	0	0	0	0	0	0	0	0	0	0	0	0	0	0	0	0	0	0	0	0	0	0	0	0	0
011019	13:25:16	13:33:27	490220	5.0.10.0	4_exp_EVA_AMP_AWA_CON	58	Rpleas_acq	Same	Rpleas	Bmasked	CS_B	2pleas	distractor1	EVAbeforeCON	acq_US_pleas_masked	acq45_masked	4	32	400	0	300	300	0	0	331	50	0	1	0	0	0	1	blank2r.bmp	0	1	+	0	8	C4r.bmp	492	1	blank2r.bmp	786	1	GKQX	786	1	blank2r.bmp	866	2	lachen	866	1	!	-1	1	!	-1	0	0	0	0	0	0	0	0	0	0	0	0	0	0	0	0	0	0	0	0	0	0	0	0	0	0	0
011019	13:25:16	13:33:31	494445	5.0.10.0	4_exp_EVA_AMP_AWA_CON	58	Rpleas_acq	Same	Rpleas	Bmasked	CS_B	2pleas	distractor1	EVAbeforeCON	acq_US_unple_masked	acq45_masked	4	33	400	0	300	300	0	0	2447	46	0	1	0	0	0	1	blank2r.bmp	0	1	+	0	4	B4r.bmp	492	1	blank2r.bmp	786	1	BMVZ	786	1	blank2r.bmp	866	4	strafen	866	1	!	1239	1	!	-1	0	0	0	0	0	0	0	0	0	0	0	0	0	0	0	0	0	0	0	0	0	0	0	0	0	0	0
011019	13:25:16	13:33:33	496657	5.0.10.0	4_exp_EVA_AMP_AWA_CON	58	Rpleas_acq	Same	Rpleas	Bmasked	CS_B	2pleas	distractor1	EVAbeforeCON	acq_US_unple_masked	acq45_masked	4	34	400	1	300	300	0	0	400	50	0	0	0	0	0	1	blank2r.bmp	0	1	+	0	5	C1r.bmp	492	1	blank2r.bmp	786	1	BMVZ	786	1	blank2r.bmp	866	1	hindern	866	1	!	1239	1	!	1306	0	0	0	0	0	0	0	0	0	0	0	0	0	0	0	0	0	0	0	0	0	0	0	0	0	0	0
011019	13:25:16	13:33:36	498856	5.0.10.0	4_exp_EVA_AMP_AWA_CON	58	Rpleas_acq	Same	Rpleas	Bmasked	CS_B	2pleas	distractor1	EVAbeforeCON	acq_US_unple_masked	acq45_masked	4	35	400	1	300	300	0	0	401	46	0	1	0	0	0	1	blank2r.bmp	0	1	+	0	1	B1r.bmp	492	1	blank2r.bmp	786	1	BMVZ	786	1	blank2r.bmp	866	6	schlecht	866	1	!	1239	1	!	1306	0	0	0	0	0	0	0	0	0	0	0	0	0	0	0	0	0	0	0	0	0	0	0	0	0	0	0
011019	13:25:16	13:33:38	500922	5.0.10.0	4_exp_EVA_AMP_AWA_CON	58	Rpleas_acq	Same	Rpleas	Bmasked	CS_B	2pleas	distractor1	EVAbeforeCON	acq_US_pleas_masked	acq45_masked	4	36	400	0	300	300	0	0	297	50	0	1	0	0	0	1	blank2r.bmp	0	1	+	0	7	C3r.bmp	492	1	blank2r.bmp	786	1	GKQX	786	1	blank2r.bmp	866	3	ehrlich	866	1	!	-1	1	!	-1	0	0	0	0	0	0	0	0	0	0	0	0	0	0	0	0	0	0	0	0	0	0	0	0	0	0	0
011019	13:25:16	13:33:49	512064	5.0.10.0	4_exp_EVA_AMP_AWA_CON	58	Rpleas_acq	Same	Rpleas	Bmasked	CS_B	2pleas	distractor1	EVAbeforeCON	acq_US_pleas_masked	acq45_masked	5	1	400	0	300	300	0	0	302	50	0	1	0	0	0	1	blank2r.bmp	0	1	+	0	7	C3r.bmp	492	1	blank2r.bmp	786	1	GKQX	786	1	blank2r.bmp	866	5	schlau	866	1	!	-1	1	!	-1	0	0	0	0	0	0	0	0	0	0	0	0	0	0	0	0	0	0	0	0	0	0	0	0	0	0	0
011019	13:25:16	13:33:51	514330	5.0.10.0	4_exp_EVA_AMP_AWA_CON	58	Rpleas_acq	Same	Rpleas	Bmasked	CS_B	2pleas	distractor1	EVAbeforeCON	acq_US_pleas_masked	acq45_masked	5	2	400	0	300	300	0	0	479	50	0	1	0	0	0	1	blank2r.bmp	0	1	+	0	4	B4r.bmp	492	1	blank2r.bmp	786	1	GKQX	786	1	blank2r.bmp	866	2	lachen	866	1	!	1239	1	!	-1	0	0	0	0	0	0	0	0	0	0	0	0	0	0	0	0	0	0	0	0	0	0	0	0	0	0	0
011019	13:25:16	13:33:58	521820	5.0.10.0	4_exp_EVA_AMP_AWA_CON	58	Rpleas_acq	Same	Rpleas	Bmasked	CS_B	2pleas	distractor1	EVAbeforeCON	acq_US_unple_masked	acq45_masked	5	3	400	0	300	300	0	0	5709	46	0	1	0	0	0	1	blank2r.bmp	0	1	+	0	8	C4r.bmp	492	1	blank2r.bmp	786	1	BMVZ	786	1	blank2r.bmp	866	5	schroff	866	1	!	1239	1	!	-1	0	0	0	0	0	0	0	0	0	0	0	0	0	0	0	0	0	0	0	0	0	0	0	0	0	0	0
011019	13:25:16	13:34:01	523979	5.0.10.0	4_exp_EVA_AMP_AWA_CON	58	Rpleas_acq	Same	Rpleas	Bmasked	CS_B	2pleas	distractor1	EVAbeforeCON	acq_US_unple_masked	acq45_masked	5	4	400	1	300	300	0	0	354	46	0	1	0	0	0	1	blank2r.bmp	0	1	+	0	6	C2r.bmp	492	1	blank2r.bmp	786	1	BMVZ	786	1	blank2r.bmp	866	4	strafen	866	1	!	1239	1	!	1252	0	0	0	0	0	0	0	0	0	0	0	0	0	0	0	0	0	0	0	0	0	0	0	0	0	0	0
011019	13:25:16	13:34:03	526245	5.0.10.0	4_exp_EVA_AMP_AWA_CON	58	Rpleas_acq	Same	Rpleas	Bmasked	CS_B	2pleas	distractor1	EVAbeforeCON	acq_US_pleas_masked	acq45_masked	5	5	400	1	300	300	0	0	465	50	0	1	0	0	0	1	blank2r.bmp	0	1	+	0	2	B2r.bmp	492	1	blank2r.bmp	786	1	GKQX	786	1	blank2r.bmp	866	3	ehrlich	866	1	!	1239	1	!	1372	0	0	0	0	0	0	0	0	0	0	0	0	0	0	0	0	0	0	0	0	0	0	0	0	0	0	0
011019	13:25:16	13:34:05	528404	5.0.10.0	4_exp_EVA_AMP_AWA_CON	58	Rpleas_acq	Same	Rpleas	Bmasked	CS_B	2pleas	distractor1	EVAbeforeCON	acq_US_pleas_masked	acq45_masked	5	6	400	1	300	300	0	0	359	46	0	0	0	0	0	1	blank2r.bmp	0	1	+	0	1	B1r.bmp	492	1	blank2r.bmp	786	1	GKQX	786	1	blank2r.bmp	866	6	schön	866	1	!	1239	1	!	1252	0	0	0	0	0	0	0	0	0	0	0	0	0	0	0	0	0	0	0	0	0	0	0	0	0	0	0
011019	13:25:16	13:34:07	530563	5.0.10.0	4_exp_EVA_AMP_AWA_CON	58	Rpleas_acq	Same	Rpleas	Bmasked	CS_B	2pleas	distractor1	EVAbeforeCON	acq_US_pleas_masked	acq45_masked	5	7	400	1	300	300	0	0	363	50	0	1	0	0	0	1	blank2r.bmp	0	1	+	0	5	C1r.bmp	492	1	blank2r.bmp	786	1	GKQX	786	1	blank2r.bmp	866	1	helfen	866	1	!	1239	1	!	1266	0	0	0	0	0	0	0	0	0	0	0	0	0	0	0	0	0	0	0	0	0	0	0	0	0	0	0
011019	13:25:16	13:34:09	532789	5.0.10.0	4_exp_EVA_AMP_AWA_CON	58	Rpleas_acq	Same	Rpleas	Bmasked	CS_B	2pleas	distractor1	EVAbeforeCON	acq_US_unple_masked	acq45_masked	5	8	400	1	300	300	0	0	427	50	0	0	0	0	0	1	blank2r.bmp	0	1	+	0	3	B3r.bmp	492	1	blank2r.bmp	786	1	BMVZ	786	1	blank2r.bmp	866	6	schlecht	866	1	!	1239	1	!	1332	0	0	0	0	0	0	0	0	0	0	0	0	0	0	0	0	0	0	0	0	0	0	0	0	0	0	0
011019	13:25:16	13:34:12	534988	5.0.10.0	4_exp_EVA_AMP_AWA_CON	58	Rpleas_acq	Same	Rpleas	Bmasked	CS_B	2pleas	distractor1	EVAbeforeCON	acq_US_pleas_masked	acq45_masked	5	9	400	1	300	300	0	0	409	50	0	1	0	0	0	1	blank2r.bmp	0	1	+	0	7	C3r.bmp	492	1	blank2r.bmp	786	1	GKQX	786	1	blank2r.bmp	866	4	spielen	866	1	!	1239	1	!	1306	0	0	0	0	0	0	0	0	0	0	0	0	0	0	0	0	0	0	0	0	0	0	0	0	0	0	0
011019	13:25:16	13:34:14	537227	5.0.10.0	4_exp_EVA_AMP_AWA_CON	58	Rpleas_acq	Same	Rpleas	Bmasked	CS_B	2pleas	distractor1	EVAbeforeCON	acq_US_pleas_masked	acq45_masked	5	10	400	1	300	300	0	0	442	50	0	1	0	0	0	1	blank2r.bmp	0	1	+	0	1	B1r.bmp	492	1	blank2r.bmp	786	1	GKQX	786	1	blank2r.bmp	866	3	ehrlich	866	1	!	1239	1	!	1346	0	0	0	0	0	0	0	0	0	0	0	0	0	0	0	0	0	0	0	0	0	0	0	0	0	0	0
011019	13:25:16	13:34:16	539426	5.0.10.0	4_exp_EVA_AMP_AWA_CON	58	Rpleas_acq	Same	Rpleas	Bmasked	CS_B	2pleas	distractor1	EVAbeforeCON	acq_US_pleas_masked	acq45_masked	5	11	400	1	300	300	0	0	393	50	0	1	0	0	0	1	blank2r.bmp	0	1	+	0	6	C2r.bmp	492	1	blank2r.bmp	786	1	GKQX	786	1	blank2r.bmp	866	5	schlau	866	1	!	1239	1	!	1292	0	0	0	0	0	0	0	0	0	0	0	0	0	0	0	0	0	0	0	0	0	0	0	0	0	0	0
011019	13:25:16	13:34:18	541625	5.0.10.0	4_exp_EVA_AMP_AWA_CON	58	Rpleas_acq	Same	Rpleas	Bmasked	CS_B	2pleas	distractor1	EVAbeforeCON	acq_US_unple_masked	acq45_masked	5	12	400	1	300	300	0	0	395	46	0	1	0	0	0	1	blank2r.bmp	0	1	+	0	2	B2r.bmp	492	1	blank2r.bmp	786	1	BMVZ	786	1	blank2r.bmp	866	3	eitel	866	1	!	1239	1	!	1292	0	0	0	0	0	0	0	0	0	0	0	0	0	0	0	0	0	0	0	0	0	0	0	0	0	0	0
011019	13:25:16	13:34:20	543851	5.0.10.0	4_exp_EVA_AMP_AWA_CON	58	Rpleas_acq	Same	Rpleas	Bmasked	CS_B	2pleas	distractor1	EVAbeforeCON	acq_US_unple_masked	acq45_masked	5	13	400	1	300	300	0	0	422	46	0	1	0	0	0	1	blank2r.bmp	0	1	+	0	5	C1r.bmp	492	1	blank2r.bmp	786	1	BMVZ	786	1	blank2r.bmp	866	1	hindern	866	1	!	1239	1	!	1319	0	0	0	0	0	0	0	0	0	0	0	0	0	0	0	0	0	0	0	0	0	0	0	0	0	0	0
011019	13:25:16	13:34:23	546077	5.0.10.0	4_exp_EVA_AMP_AWA_CON	58	Rpleas_acq	Same	Rpleas	Bmasked	CS_B	2pleas	distractor1	EVAbeforeCON	acq_US_unple_masked	acq45_masked	5	14	400	1	300	300	0	0	426	46	0	1	0	0	0	1	blank2r.bmp	0	1	+	0	8	C4r.bmp	492	1	blank2r.bmp	786	1	BMVZ	786	1	blank2r.bmp	866	2	leiden	866	1	!	1239	1	!	1332	0	0	0	0	0	0	0	0	0	0	0	0	0	0	0	0	0	0	0	0	0	0	0	0	0	0	0
011019	13:25:16	13:34:25	548249	5.0.10.0	4_exp_EVA_AMP_AWA_CON	58	Rpleas_acq	Same	Rpleas	Bmasked	CS_B	2pleas	distractor1	EVAbeforeCON	acq_US_unple_masked	acq45_masked	5	15	400	1	300	300	0	0	385	46	0	1	0	0	0	1	blank2r.bmp	0	1	+	0	4	B4r.bmp	492	1	blank2r.bmp	786	1	BMVZ	786	1	blank2r.bmp	866	2	leiden	866	1	!	1239	1	!	1279	0	0	0	0	0	0	0	0	0	0	0	0	0	0	0	0	0	0	0	0	0	0	0	0	0	0	0
011019	13:25:16	13:34:27	550435	5.0.10.0	4_exp_EVA_AMP_AWA_CON	58	Rpleas_acq	Same	Rpleas	Bmasked	CS_B	2pleas	distractor1	EVAbeforeCON	acq_US_unple_masked	acq45_masked	5	16	400	1	300	300	0	0	398	46	0	1	0	0	0	1	blank2r.bmp	0	1	+	0	3	B3r.bmp	492	1	blank2r.bmp	786	1	BMVZ	786	1	blank2r.bmp	866	5	schroff	866	1	!	1239	1	!	1292	0	0	0	0	0	0	0	0	0	0	0	0	0	0	0	0	0	0	0	0	0	0	0	0	0	0	0
011019	13:25:16	13:34:29	552687	5.0.10.0	4_exp_EVA_AMP_AWA_CON	58	Rpleas_acq	Same	Rpleas	Bmasked	CS_B	2pleas	distractor1	EVAbeforeCON	acq_US_unple_masked	acq45_masked	5	17	400	1	300	300	0	0	462	46	0	1	0	0	0	1	blank2r.bmp	0	1	+	0	1	B1r.bmp	492	1	blank2r.bmp	786	1	BMVZ	786	1	blank2r.bmp	866	3	eitel	866	1	!	1239	1	!	1359	0	0	0	0	0	0	0	0	0	0	0	0	0	0	0	0	0	0	0	0	0	0	0	0	0	0	0
011019	13:25:16	13:34:32	554913	5.0.10.0	4_exp_EVA_AMP_AWA_CON	58	Rpleas_acq	Same	Rpleas	Bmasked	CS_B	2pleas	distractor1	EVAbeforeCON	acq_US_pleas_masked	acq45_masked	5	18	400	1	300	300	0	0	416	46	0	0	0	0	0	1	blank2r.bmp	0	1	+	0	6	C2r.bmp	492	1	blank2r.bmp	786	1	GKQX	786	1	blank2r.bmp	866	2	lachen	866	1	!	1239	1	!	1319	0	0	0	0	0	0	0	0	0	0	0	0	0	0	0	0	0	0	0	0	0	0	0	0	0	0	0
011019	13:25:16	13:34:36	559204	5.0.10.0	4_exp_EVA_AMP_AWA_CON	58	Rpleas_acq	Same	Rpleas	Bmasked	CS_B	2pleas	distractor1	EVAbeforeCON	acq_US_pleas_masked	acq45_masked	5	19	400	0	300	300	0	0	2526	50	0	1	0	0	0	1	blank2r.bmp	0	1	+	0	3	B3r.bmp	492	1	blank2r.bmp	786	1	GKQX	786	1	blank2r.bmp	866	4	spielen	866	1	!	1239	1	!	-1	0	0	0	0	0	0	0	0	0	0	0	0	0	0	0	0	0	0	0	0	0	0	0	0	0	0	0
011019	13:25:16	13:34:38	561363	5.0.10.0	4_exp_EVA_AMP_AWA_CON	58	Rpleas_acq	Same	Rpleas	Bmasked	CS_B	2pleas	distractor1	EVAbeforeCON	acq_US_unple_masked	acq45_masked	5	20	400	1	300	300	0	0	346	50	0	0	0	0	0	1	blank2r.bmp	0	1	+	0	4	B4r.bmp	492	1	blank2r.bmp	786	1	BMVZ	786	1	blank2r.bmp	866	6	schlecht	866	1	!	1239	1	!	1252	0	0	0	0	0	0	0	0	0	0	0	0	0	0	0	0	0	0	0	0	0	0	0	0	0	0	0
011019	13:25:16	13:34:40	563509	5.0.10.0	4_exp_EVA_AMP_AWA_CON	58	Rpleas_acq	Same	Rpleas	Bmasked	CS_B	2pleas	distractor1	EVAbeforeCON	acq_US_pleas_masked	acq45_masked	5	21	400	1	300	300	0	0	355	46	0	0	0	0	0	1	blank2r.bmp	0	1	+	0	8	C4r.bmp	492	1	blank2r.bmp	786	1	GKQX	786	1	blank2r.bmp	866	1	helfen	866	1	!	1239	1	!	1252	0	0	0	0	0	0	0	0	0	0	0	0	0	0	0	0	0	0	0	0	0	0	0	0	0	0	0
011019	13:25:16	13:34:42	565735	5.0.10.0	4_exp_EVA_AMP_AWA_CON	58	Rpleas_acq	Same	Rpleas	Bmasked	CS_B	2pleas	distractor1	EVAbeforeCON	acq_US_pleas_masked	acq45_masked	5	22	400	1	300	300	0	0	436	50	0	1	0	0	0	1	blank2r.bmp	0	1	+	0	2	B2r.bmp	492	1	blank2r.bmp	786	1	GKQX	786	1	blank2r.bmp	866	6	schön	866	1	!	1239	1	!	1332	0	0	0	0	0	0	0	0	0	0	0	0	0	0	0	0	0	0	0	0	0	0	0	0	0	0	0
011019	13:25:16	13:34:45	568054	5.0.10.0	4_exp_EVA_AMP_AWA_CON	58	Rpleas_acq	Same	Rpleas	Bmasked	CS_B	2pleas	distractor1	EVAbeforeCON	acq_US_pleas_masked	acq45_masked	5	23	400	0	300	300	0	0	552	50	0	1	0	0	0	1	blank2r.bmp	0	1	+	0	5	C1r.bmp	492	1	blank2r.bmp	786	1	GKQX	786	1	blank2r.bmp	866	3	ehrlich	866	1	!	1239	1	!	-1	0	0	0	0	0	0	0	0	0	0	0	0	0	0	0	0	0	0	0	0	0	0	0	0	0	0	0
011019	13:25:16	13:34:47	570373	5.0.10.0	4_exp_EVA_AMP_AWA_CON	58	Rpleas_acq	Same	Rpleas	Bmasked	CS_B	2pleas	distractor1	EVAbeforeCON	acq_US_unple_masked	acq45_masked	5	24	400	0	300	300	0	0	525	46	0	1	0	0	0	1	blank2r.bmp	0	1	+	0	7	C3r.bmp	492	1	blank2r.bmp	786	1	BMVZ	786	1	blank2r.bmp	866	1	hindern	866	1	!	1239	1	!	-1	0	0	0	0	0	0	0	0	0	0	0	0	0	0	0	0	0	0	0	0	0	0	0	0	0	0	0
011019	13:25:16	13:34:49	572665	5.0.10.0	4_exp_EVA_AMP_AWA_CON	58	Rpleas_acq	Same	Rpleas	Bmasked	CS_B	2pleas	distractor1	EVAbeforeCON	acq_US_pleas_masked	acq45_masked	5	25	400	0	300	300	0	0	510	50	0	1	0	0	0	1	blank2r.bmp	0	1	+	0	8	C4r.bmp	492	1	blank2r.bmp	786	1	GKQX	786	1	blank2r.bmp	866	1	helfen	866	1	!	1239	1	!	-1	0	0	0	0	0	0	0	0	0	0	0	0	0	0	0	0	0	0	0	0	0	0	0	0	0	0	0
011019	13:25:16	13:34:51	574731	5.0.10.0	4_exp_EVA_AMP_AWA_CON	58	Rpleas_acq	Same	Rpleas	Bmasked	CS_B	2pleas	distractor1	EVAbeforeCON	acq_US_unple_masked	acq45_masked	5	26	400	0	300	300	0	0	289	50	0	0	0	0	0	1	blank2r.bmp	0	1	+	0	6	C2r.bmp	492	1	blank2r.bmp	786	1	BMVZ	786	1	blank2r.bmp	866	4	strafen	866	1	!	-1	1	!	-1	0	0	0	0	0	0	0	0	0	0	0	0	0	0	0	0	0	0	0	0	0	0	0	0	0	0	0
011019	13:25:16	13:34:53	576784	5.0.10.0	4_exp_EVA_AMP_AWA_CON	58	Rpleas_acq	Same	Rpleas	Bmasked	CS_B	2pleas	distractor1	EVAbeforeCON	acq_US_pleas_masked	acq45_masked	5	27	400	0	300	300	0	0	264	50	0	1	0	0	0	1	blank2r.bmp	0	1	+	0	4	B4r.bmp	492	1	blank2r.bmp	786	1	GKQX	786	1	blank2r.bmp	866	6	schön	866	1	!	-1	1	!	-1	0	0	0	0	0	0	0	0	0	0	0	0	0	0	0	0	0	0	0	0	0	0	0	0	0	0	0
011019	13:25:16	13:34:56	578969	5.0.10.0	4_exp_EVA_AMP_AWA_CON	58	Rpleas_acq	Same	Rpleas	Bmasked	CS_B	2pleas	distractor1	EVAbeforeCON	acq_US_unple_masked	acq45_masked	5	28	400	1	300	300	0	0	376	46	0	1	0	0	0	1	blank2r.bmp	0	1	+	0	1	B1r.bmp	492	1	blank2r.bmp	786	1	BMVZ	786	1	blank2r.bmp	866	1	hindern	866	1	!	1239	1	!	1279	0	0	0	0	0	0	0	0	0	0	0	0	0	0	0	0	0	0	0	0	0	0	0	0	0	0	0
011019	13:25:16	13:34:58	581168	5.0.10.0	4_exp_EVA_AMP_AWA_CON	58	Rpleas_acq	Same	Rpleas	Bmasked	CS_B	2pleas	distractor1	EVAbeforeCON	acq_US_pleas_masked	acq45_masked	5	29	400	1	300	300	0	0	403	50	0	1	0	0	0	1	blank2r.bmp	0	1	+	0	7	C3r.bmp	492	1	blank2r.bmp	786	1	GKQX	786	1	blank2r.bmp	866	5	schlau	866	1	!	1239	1	!	1306	0	0	0	0	0	0	0	0	0	0	0	0	0	0	0	0	0	0	0	0	0	0	0	0	0	0	0
011019	13:25:16	13:35:00	583474	5.0.10.0	4_exp_EVA_AMP_AWA_CON	58	Rpleas_acq	Same	Rpleas	Bmasked	CS_B	2pleas	distractor1	EVAbeforeCON	acq_US_pleas_masked	acq45_masked	5	30	400	0	300	300	0	0	535	50	0	1	0	0	0	1	blank2r.bmp	0	1	+	0	2	B2r.bmp	492	1	blank2r.bmp	786	1	GKQX	786	1	blank2r.bmp	866	4	spielen	866	1	!	1239	1	!	-1	0	0	0	0	0	0	0	0	0	0	0	0	0	0	0	0	0	0	0	0	0	0	0	0	0	0	0
011019	13:25:16	13:35:02	585753	5.0.10.0	4_exp_EVA_AMP_AWA_CON	58	Rpleas_acq	Same	Rpleas	Bmasked	CS_B	2pleas	distractor1	EVAbeforeCON	acq_US_unple_masked	acq45_masked	5	31	400	1	300	300	0	0	466	46	0	1	0	0	0	1	blank2r.bmp	0	1	+	0	3	B3r.bmp	492	1	blank2r.bmp	786	1	BMVZ	786	1	blank2r.bmp	866	5	schroff	866	1	!	1239	1	!	1372	0	0	0	0	0	0	0	0	0	0	0	0	0	0	0	0	0	0	0	0	0	0	0	0	0	0	0
011019	13:25:16	13:35:05	587952	5.0.10.0	4_exp_EVA_AMP_AWA_CON	58	Rpleas_acq	Same	Rpleas	Bmasked	CS_B	2pleas	distractor1	EVAbeforeCON	acq_US_unple_masked	acq45_masked	5	32	400	1	300	300	0	0	409	50	0	0	0	0	0	1	blank2r.bmp	0	1	+	0	5	C1r.bmp	492	1	blank2r.bmp	786	1	BMVZ	786	1	blank2r.bmp	866	3	eitel	866	1	!	1239	1	!	1306	0	0	0	0	0	0	0	0	0	0	0	0	0	0	0	0	0	0	0	0	0	0	0	0	0	0	0
011019	13:25:16	13:35:07	590218	5.0.10.0	4_exp_EVA_AMP_AWA_CON	58	Rpleas_acq	Same	Rpleas	Bmasked	CS_B	2pleas	distractor1	EVAbeforeCON	acq_US_unple_masked	acq45_masked	5	33	400	1	300	300	0	0	465	46	0	1	0	0	0	1	blank2r.bmp	0	1	+	0	2	B2r.bmp	492	1	blank2r.bmp	786	1	BMVZ	786	1	blank2r.bmp	866	2	leiden	866	1	!	1239	1	!	1372	0	0	0	0	0	0	0	0	0	0	0	0	0	0	0	0	0	0	0	0	0	0	0	0	0	0	0
011019	13:25:16	13:35:09	592497	5.0.10.0	4_exp_EVA_AMP_AWA_CON	58	Rpleas_acq	Same	Rpleas	Bmasked	CS_B	2pleas	distractor1	EVAbeforeCON	acq_US_unple_masked	acq45_masked	5	34	400	0	300	300	0	0	502	46	0	1	0	0	0	1	blank2r.bmp	0	1	+	0	1	B1r.bmp	492	1	blank2r.bmp	786	1	BMVZ	786	1	blank2r.bmp	866	6	schlecht	866	1	!	1239	1	!	-1	0	0	0	0	0	0	0	0	0	0	0	0	0	0	0	0	0	0	0	0	0	0	0	0	0	0	0
011019	13:25:16	13:35:13	596442	5.0.10.0	4_exp_EVA_AMP_AWA_CON	58	Rpleas_acq	Same	Rpleas	Bmasked	CS_B	2pleas	distractor1	EVAbeforeCON	acq_US_unple_masked	acq45_masked	5	35	400	0	300	300	0	0	2169	46	0	1	0	0	0	1	blank2r.bmp	0	1	+	0	5	C1r.bmp	492	1	blank2r.bmp	786	1	BMVZ	786	1	blank2r.bmp	866	4	strafen	866	1	!	1239	1	!	-1	0	0	0	0	0	0	0	0	0	0	0	0	0	0	0	0	0	0	0	0	0	0	0	0	0	0	0
011019	13:25:16	13:35:15	598681	5.0.10.0	4_exp_EVA_AMP_AWA_CON	58	Rpleas_acq	Same	Rpleas	Bmasked	CS_B	2pleas	distractor1	EVAbeforeCON	acq_US_pleas_masked	acq45_masked	5	36	400	1	300	300	0	0	435	50	0	1	0	0	0	1	blank2r.bmp	0	1	+	0	7	C3r.bmp	492	1	blank2r.bmp	786	1	GKQX	786	1	blank2r.bmp	866	2	lachen	866	1	!	1239	1	!	1332	0	0	0	0	0	0	0	0	0	0	0	0	0	0	0	0	0	0	0	0	0	0	0	0	0	0	0
011019	13:25:16	13:35:37	620312	5.0.10.0	4_exp_EVA_AMP_AWA_CON	58	Rpleas_acq	Same	Rpleas	Bmasked	CS_B	2pleas	distractor1	EVAbeforeCON	EvalRating_firsttwo	EvalRating_firsttwo	6	1	0	0	300	300	0	0	4785	line	33,203125	0	0	0	0	1	eraser	0	1	Wie angenehm oder unangenehm finden Sie die  Buchstabenkette WFPH?	0	1	leftborder	0	1	rightborder	0	1	line	0	1	Unangenehm	0	1	Angenehm	0	0	0	0	0	0	0	0	0	0	0	0	0	0	0	0	0	0	0	0	0	0	0	0	0	0	0	0	0	0	0	0	0	0
011019	13:25:16	13:35:41	624764	5.0.10.0	4_exp_EVA_AMP_AWA_CON	58	Rpleas_acq	Same	Rpleas	Bmasked	CS_B	2pleas	distractor1	EVAbeforeCON	EvalRating_lastfour	EvalRating_lastfour	7	1	0	0	300	300	0	0	1998	line	26,3671875	0	0	0	0	1	eraser	1	3	Wie angenehm oder unangenehm finden Sie die  Buchstabenkette JCRD?	1	1	leftborder	1	1	rightborder	1	1	line	1	1	Unangenehm	1	1	Angenehm	1	0	0	0	0	0	0	0	0	0	0	0	0	0	0	0	0	0	0	0	0	0	0	0	0	0	0	0	0	0	0	0	0	0
011019	13:25:16	13:35:44	627149	5.0.10.0	4_exp_EVA_AMP_AWA_CON	58	Rpleas_acq	Same	Rpleas	Bmasked	CS_B	2pleas	distractor1	EVAbeforeCON	blank_screen	EvalRating_lastfour	7	3	0	0	300	300	0	0	0	0	26,3671875	0	0	0	0	1	eraser	0	0	0	0	0	0	0	0	0	0	0	0	0	0	0	0	0	0	0	0	0	0	0	0	0	0	0	0	0	0	0	0	0	0	0	0	0	0	0	0	0	0	0	0	0	0	0	0	0	0	0	0
011019	13:25:16	13:35:46	628988	5.0.10.0	4_exp_EVA_AMP_AWA_CON	58	Rpleas_acq	Same	Rpleas	Bmasked	CS_B	2pleas	distractor1	EVAbeforeCON	EvalRating_lastfour	EvalRating_lastfour	7	4	0	0	300	300	0	0	1265	line	-22,216796875	0	0	0	0	1	eraser	1	2	Wie angenehm oder unangenehm finden Sie die  Buchstabenkette GKQX?	1	1	leftborder	1	1	rightborder	1	1	line	1	1	Unangenehm	1	1	Angenehm	1	0	0	0	0	0	0	0	0	0	0	0	0	0	0	0	0	0	0	0	0	0	0	0	0	0	0	0	0	0	0	0	0	0
011019	13:25:16	13:35:48	631374	5.0.10.0	4_exp_EVA_AMP_AWA_CON	58	Rpleas_acq	Same	Rpleas	Bmasked	CS_B	2pleas	distractor1	EVAbeforeCON	blank_screen	EvalRating_lastfour	7	6	0	0	300	300	0	0	0	0	-22,216796875	0	0	0	0	1	eraser	0	0	0	0	0	0	0	0	0	0	0	0	0	0	0	0	0	0	0	0	0	0	0	0	0	0	0	0	0	0	0	0	0	0	0	0	0	0	0	0	0	0	0	0	0	0	0	0	0	0	0	0
011019	13:25:16	13:35:50	632933	5.0.10.0	4_exp_EVA_AMP_AWA_CON	58	Rpleas_acq	Same	Rpleas	Bmasked	CS_B	2pleas	distractor1	EVAbeforeCON	EvalRating_lastfour	EvalRating_lastfour	7	7	0	0	300	300	0	0	984	line	13,427734375	0	0	0	0	1	eraser	0	1	Wie angenehm oder unangenehm finden Sie die  Buchstabenkette BMVZ?	0	1	leftborder	0	1	rightborder	0	1	line	0	1	Unangenehm	0	1	Angenehm	0	0	0	0	0	0	0	0	0	0	0	0	0	0	0	0	0	0	0	0	0	0	0	0	0	0	0	0	0	0	0	0	0	0
011019	13:25:16	13:36:37	680567	5.0.10.0	4_exp_EVA_AMP_AWA_CON	58	Rpleas_acq	Same	Rpleas	Bmasked	CS_B	2pleas	distractor1	EVAbeforeCON	AMP_CSpleas	AMP1_masked	8	1	0	0	300	300	0	0	3221	46	13,427734375	0	0	0	0	1	blank2r.bmp	0	1	GKQX	0	1	blank2r.bmp	79	106	pic106.bmp	199	1	whitenoise_No3.bmp	306	0	0	0	0	0	0	0	0	0	0	0	0	0	0	0	0	0	0	0	0	0	0	0	0	0	0	0	0	0	0	0	0	0	0	0	0	0	0	0
011019	13:25:16	13:36:39	682619	5.0.10.0	4_exp_EVA_AMP_AWA_CON	58	Rpleas_acq	Same	Rpleas	Bmasked	CS_B	2pleas	distractor1	EVAbeforeCON	AMP_CSunple	AMP1_masked	8	2	0	0	300	300	0	0	1121	50	13,427734375	0	0	0	0	1	blank2r.bmp	0	1	BMVZ	0	1	blank2r.bmp	79	53	pic53.bmp	199	1	whitenoise_No3.bmp	306	0	0	0	0	0	0	0	0	0	0	0	0	0	0	0	0	0	0	0	0	0	0	0	0	0	0	0	0	0	0	0	0	0	0	0	0	0	0	0
011019	13:25:16	13:36:41	684165	5.0.10.0	4_exp_EVA_AMP_AWA_CON	58	Rpleas_acq	Same	Rpleas	Bmasked	CS_B	2pleas	distractor1	EVAbeforeCON	AMP_CSunple	AMP1_masked	8	3	0	0	300	300	0	0	616	50	13,427734375	0	0	0	0	1	blank2r.bmp	0	1	BMVZ	0	1	blank2r.bmp	79	136	pic136.bmp	199	1	whitenoise_No3.bmp	306	0	0	0	0	0	0	0	0	0	0	0	0	0	0	0	0	0	0	0	0	0	0	0	0	0	0	0	0	0	0	0	0	0	0	0	0	0	0	0
011019	13:25:16	13:36:42	685671	5.0.10.0	4_exp_EVA_AMP_AWA_CON	58	Rpleas_acq	Same	Rpleas	Bmasked	CS_B	2pleas	distractor1	EVAbeforeCON	AMP_CSunple	AMP1_masked	8	4	0	0	300	300	0	0	593	46	13,427734375	1	0	0	0	1	blank2r.bmp	0	1	BMVZ	0	1	blank2r.bmp	79	151	pic151.bmp	199	1	whitenoise_No3.bmp	306	0	0	0	0	0	0	0	0	0	0	0	0	0	0	0	0	0	0	0	0	0	0	0	0	0	0	0	0	0	0	0	0	0	0	0	0	0	0	0
011019	13:25:16	13:36:44	687097	5.0.10.0	4_exp_EVA_AMP_AWA_CON	58	Rpleas_acq	Same	Rpleas	Bmasked	CS_B	2pleas	distractor1	EVAbeforeCON	AMP_CSunple	AMP1_masked	8	5	0	0	300	300	0	0	500	50	13,427734375	0	0	0	0	1	blank2r.bmp	0	1	BMVZ	0	1	blank2r.bmp	79	1	pic1.bmp	199	1	whitenoise_No3.bmp	306	0	0	0	0	0	0	0	0	0	0	0	0	0	0	0	0	0	0	0	0	0	0	0	0	0	0	0	0	0	0	0	0	0	0	0	0	0	0	0
011019	13:25:16	13:36:45	688417	5.0.10.0	4_exp_EVA_AMP_AWA_CON	58	Rpleas_acq	Same	Rpleas	Bmasked	CS_B	2pleas	distractor1	EVAbeforeCON	AMP_CSpleas	AMP1_masked	8	6	0	0	300	300	0	0	404	50	13,427734375	1	0	0	0	1	blank2r.bmp	0	1	GKQX	0	1	blank2r.bmp	79	87	pic87.bmp	199	1	whitenoise_No3.bmp	306	0	0	0	0	0	0	0	0	0	0	0	0	0	0	0	0	0	0	0	0	0	0	0	0	0	0	0	0	0	0	0	0	0	0	0	0	0	0	0
011019	13:25:16	13:36:46	689710	5.0.10.0	4_exp_EVA_AMP_AWA_CON	58	Rpleas_acq	Same	Rpleas	Bmasked	CS_B	2pleas	distractor1	EVAbeforeCON	AMP_distractor	AMP1_masked	8	7	0	0	300	300	0	0	371	46	13,427734375	0	0	0	0	1	blank2r.bmp	0	1	WFPH	0	1	blank2r.bmp	79	120	pic120.bmp	199	1	whitenoise_No3.bmp	306	0	0	0	0	0	0	0	0	0	0	0	0	0	0	0	0	0	0	0	0	0	0	0	0	0	0	0	0	0	0	0	0	0	0	0	0	0	0	0
011019	13:25:16	13:36:48	691042	5.0.10.0	4_exp_EVA_AMP_AWA_CON	58	Rpleas_acq	Same	Rpleas	Bmasked	CS_B	2pleas	distractor1	EVAbeforeCON	AMP_CSunple	AMP1_masked	8	8	0	0	300	300	0	0	406	50	13,427734375	0	0	0	0	1	blank2r.bmp	0	1	BMVZ	0	1	blank2r.bmp	79	56	pic56.bmp	199	1	whitenoise_No3.bmp	306	0	0	0	0	0	0	0	0	0	0	0	0	0	0	0	0	0	0	0	0	0	0	0	0	0	0	0	0	0	0	0	0	0	0	0	0	0	0	0
011019	13:25:16	13:36:49	692415	5.0.10.0	4_exp_EVA_AMP_AWA_CON	58	Rpleas_acq	Same	Rpleas	Bmasked	CS_B	2pleas	distractor1	EVAbeforeCON	AMP_CSunple	AMP1_masked	8	9	0	0	300	300	0	0	447	50	13,427734375	0	0	0	0	1	blank2r.bmp	0	1	BMVZ	0	1	blank2r.bmp	79	135	pic135.bmp	199	1	whitenoise_No3.bmp	306	0	0	0	0	0	0	0	0	0	0	0	0	0	0	0	0	0	0	0	0	0	0	0	0	0	0	0	0	0	0	0	0	0	0	0	0	0	0	0
011019	13:25:16	13:36:51	694041	5.0.10.0	4_exp_EVA_AMP_AWA_CON	58	Rpleas_acq	Same	Rpleas	Bmasked	CS_B	2pleas	distractor1	EVAbeforeCON	AMP_distractor	AMP1_masked	8	10	0	0	300	300	0	0	698	50	13,427734375	0	0	0	0	1	blank2r.bmp	0	1	WFPH	0	1	blank2r.bmp	79	117	pic117.bmp	199	1	whitenoise_No3.bmp	306	0	0	0	0	0	0	0	0	0	0	0	0	0	0	0	0	0	0	0	0	0	0	0	0	0	0	0	0	0	0	0	0	0	0	0	0	0	0	0
011019	13:25:16	13:36:52	695267	5.0.10.0	4_exp_EVA_AMP_AWA_CON	58	Rpleas_acq	Same	Rpleas	Bmasked	CS_B	2pleas	distractor1	EVAbeforeCON	AMP_CSpleas	AMP1_masked	8	11	0	0	300	300	0	0	313	46	13,427734375	0	0	0	0	1	blank2r.bmp	0	1	GKQX	0	1	blank2r.bmp	79	27	pic27.bmp	199	1	whitenoise_No3.bmp	306	0	0	0	0	0	0	0	0	0	0	0	0	0	0	0	0	0	0	0	0	0	0	0	0	0	0	0	0	0	0	0	0	0	0	0	0	0	0	0
011019	13:25:16	13:36:54	696907	5.0.10.0	4_exp_EVA_AMP_AWA_CON	58	Rpleas_acq	Same	Rpleas	Bmasked	CS_B	2pleas	distractor1	EVAbeforeCON	AMP_CSpleas	AMP1_masked	8	12	0	0	300	300	0	0	706	46	13,427734375	0	0	0	0	1	blank2r.bmp	0	1	GKQX	0	1	blank2r.bmp	79	99	pic99.bmp	199	1	whitenoise_No3.bmp	306	0	0	0	0	0	0	0	0	0	0	0	0	0	0	0	0	0	0	0	0	0	0	0	0	0	0	0	0	0	0	0	0	0	0	0	0	0	0	0
011019	13:25:16	13:36:55	698199	5.0.10.0	4_exp_EVA_AMP_AWA_CON	58	Rpleas_acq	Same	Rpleas	Bmasked	CS_B	2pleas	distractor1	EVAbeforeCON	AMP_distractor	AMP1_masked	8	13	0	0	300	300	0	0	368	50	13,427734375	0	0	0	0	1	blank2r.bmp	0	1	WFPH	0	1	blank2r.bmp	79	150	pic150.bmp	199	1	whitenoise_No3.bmp	306	0	0	0	0	0	0	0	0	0	0	0	0	0	0	0	0	0	0	0	0	0	0	0	0	0	0	0	0	0	0	0	0	0	0	0	0	0	0	0
011019	13:25:16	13:36:56	699585	5.0.10.0	4_exp_EVA_AMP_AWA_CON	58	Rpleas_acq	Same	Rpleas	Bmasked	CS_B	2pleas	distractor1	EVAbeforeCON	AMP_distractor	AMP1_masked	8	14	0	0	300	300	0	0	463	50	13,427734375	0	0	0	0	1	blank2r.bmp	0	1	WFPH	0	1	blank2r.bmp	79	75	pic75.bmp	199	1	whitenoise_No3.bmp	306	0	0	0	0	0	0	0	0	0	0	0	0	0	0	0	0	0	0	0	0	0	0	0	0	0	0	0	0	0	0	0	0	0	0	0	0	0	0	0
011019	13:25:16	13:36:57	700812	5.0.10.0	4_exp_EVA_AMP_AWA_CON	58	Rpleas_acq	Same	Rpleas	Bmasked	CS_B	2pleas	distractor1	EVAbeforeCON	AMP_distractor	AMP1_masked	8	15	0	0	300	300	0	0	297	46	13,427734375	0	0	0	0	1	blank2r.bmp	0	1	WFPH	0	1	blank2r.bmp	79	49	pic49.bmp	199	1	whitenoise_No3.bmp	306	0	0	0	0	0	0	0	0	0	0	0	0	0	0	0	0	0	0	0	0	0	0	0	0	0	0	0	0	0	0	0	0	0	0	0	0	0	0	0
011019	13:25:16	13:36:59	702411	5.0.10.0	4_exp_EVA_AMP_AWA_CON	58	Rpleas_acq	Same	Rpleas	Bmasked	CS_B	2pleas	distractor1	EVAbeforeCON	AMP_CSpleas	AMP1_masked	8	16	0	0	300	300	0	0	690	50	13,427734375	1	0	0	0	1	blank2r.bmp	0	1	GKQX	0	1	blank2r.bmp	79	41	pic41.bmp	199	1	whitenoise_No3.bmp	306	0	0	0	0	0	0	0	0	0	0	0	0	0	0	0	0	0	0	0	0	0	0	0	0	0	0	0	0	0	0	0	0	0	0	0	0	0	0	0
011019	13:25:16	13:37:01	703957	5.0.10.0	4_exp_EVA_AMP_AWA_CON	58	Rpleas_acq	Same	Rpleas	Bmasked	CS_B	2pleas	distractor1	EVAbeforeCON	AMP_CSpleas	AMP1_masked	8	17	0	0	300	300	0	0	612	50	13,427734375	1	0	0	0	1	blank2r.bmp	0	1	GKQX	0	1	blank2r.bmp	79	142	pic142.bmp	199	1	whitenoise_No3.bmp	306	0	0	0	0	0	0	0	0	0	0	0	0	0	0	0	0	0	0	0	0	0	0	0	0	0	0	0	0	0	0	0	0	0	0	0	0	0	0	0
011019	13:25:16	13:37:02	705516	5.0.10.0	4_exp_EVA_AMP_AWA_CON	58	Rpleas_acq	Same	Rpleas	Bmasked	CS_B	2pleas	distractor1	EVAbeforeCON	AMP_CSunple	AMP1_masked	8	18	0	0	300	300	0	0	643	50	13,427734375	0	0	0	0	1	blank2r.bmp	0	1	BMVZ	0	1	blank2r.bmp	79	80	pic80.bmp	199	1	whitenoise_No3.bmp	306	0	0	0	0	0	0	0	0	0	0	0	0	0	0	0	0	0	0	0	0	0	0	0	0	0	0	0	0	0	0	0	0	0	0	0	0	0	0	0
011019	13:25:16	13:37:04	707475	5.0.10.0	4_exp_EVA_AMP_AWA_CON	58	Rpleas_acq	Same	Rpleas	Bmasked	CS_B	2pleas	distractor1	EVAbeforeCON	AMP_CSunple	AMP1_masked	8	19	0	0	300	300	0	0	1037	50	13,427734375	0	0	0	0	1	blank2r.bmp	0	1	BMVZ	0	1	blank2r.bmp	79	93	pic93.bmp	199	1	whitenoise_No3.bmp	306	0	0	0	0	0	0	0	0	0	0	0	0	0	0	0	0	0	0	0	0	0	0	0	0	0	0	0	0	0	0	0	0	0	0	0	0	0	0	0
011019	13:25:16	13:37:06	708901	5.0.10.0	4_exp_EVA_AMP_AWA_CON	58	Rpleas_acq	Same	Rpleas	Bmasked	CS_B	2pleas	distractor1	EVAbeforeCON	AMP_CSunple	AMP1_masked	8	20	0	0	300	300	0	0	494	46	13,427734375	1	0	0	0	1	blank2r.bmp	0	1	BMVZ	0	1	blank2r.bmp	79	78	pic78.bmp	199	1	whitenoise_No3.bmp	306	0	0	0	0	0	0	0	0	0	0	0	0	0	0	0	0	0	0	0	0	0	0	0	0	0	0	0	0	0	0	0	0	0	0	0	0	0	0	0
011019	13:25:16	13:37:07	710194	5.0.10.0	4_exp_EVA_AMP_AWA_CON	58	Rpleas_acq	Same	Rpleas	Bmasked	CS_B	2pleas	distractor1	EVAbeforeCON	AMP_distractor	AMP1_masked	8	21	0	0	300	300	0	0	359	50	13,427734375	0	0	0	0	1	blank2r.bmp	0	1	WFPH	0	1	blank2r.bmp	79	68	pic68.bmp	199	1	whitenoise_No3.bmp	306	0	0	0	0	0	0	0	0	0	0	0	0	0	0	0	0	0	0	0	0	0	0	0	0	0	0	0	0	0	0	0	0	0	0	0	0	0	0	0
011019	13:25:16	13:37:08	711687	5.0.10.0	4_exp_EVA_AMP_AWA_CON	58	Rpleas_acq	Same	Rpleas	Bmasked	CS_B	2pleas	distractor1	EVAbeforeCON	AMP_CSpleas	AMP1_masked	8	22	0	0	300	300	0	0	577	50	13,427734375	1	0	0	0	1	blank2r.bmp	0	1	GKQX	0	1	blank2r.bmp	79	98	pic98.bmp	199	1	whitenoise_No3.bmp	306	0	0	0	0	0	0	0	0	0	0	0	0	0	0	0	0	0	0	0	0	0	0	0	0	0	0	0	0	0	0	0	0	0	0	0	0	0	0	0
011019	13:25:16	13:37:11	714246	5.0.10.0	4_exp_EVA_AMP_AWA_CON	58	Rpleas_acq	Same	Rpleas	Bmasked	CS_B	2pleas	distractor1	EVAbeforeCON	AMP_CSunple	AMP1_masked	8	23	0	0	300	300	0	0	1642	50	13,427734375	0	0	0	0	1	blank2r.bmp	0	1	BMVZ	0	1	blank2r.bmp	79	96	pic96.bmp	199	1	whitenoise_No3.bmp	306	0	0	0	0	0	0	0	0	0	0	0	0	0	0	0	0	0	0	0	0	0	0	0	0	0	0	0	0	0	0	0	0	0	0	0	0	0	0	0
011019	13:25:16	13:37:12	715579	5.0.10.0	4_exp_EVA_AMP_AWA_CON	58	Rpleas_acq	Same	Rpleas	Bmasked	CS_B	2pleas	distractor1	EVAbeforeCON	AMP_distractor	AMP1_masked	8	24	0	0	300	300	0	0	416	46	13,427734375	0	0	0	0	1	blank2r.bmp	0	1	WFPH	0	1	blank2r.bmp	79	63	pic63.bmp	199	1	whitenoise_No3.bmp	306	0	0	0	0	0	0	0	0	0	0	0	0	0	0	0	0	0	0	0	0	0	0	0	0	0	0	0	0	0	0	0	0	0	0	0	0	0	0	0
011019	13:25:16	13:37:14	716965	5.0.10.0	4_exp_EVA_AMP_AWA_CON	58	Rpleas_acq	Same	Rpleas	Bmasked	CS_B	2pleas	distractor1	EVAbeforeCON	AMP_distractor	AMP1_masked	8	25	0	0	300	300	0	0	460	46	13,427734375	0	0	0	0	1	blank2r.bmp	0	1	WFPH	0	1	blank2r.bmp	79	31	pic31.bmp	199	1	whitenoise_No3.bmp	306	0	0	0	0	0	0	0	0	0	0	0	0	0	0	0	0	0	0	0	0	0	0	0	0	0	0	0	0	0	0	0	0	0	0	0	0	0	0	0
011019	13:25:16	13:37:15	718244	5.0.10.0	4_exp_EVA_AMP_AWA_CON	58	Rpleas_acq	Same	Rpleas	Bmasked	CS_B	2pleas	distractor1	EVAbeforeCON	AMP_CSunple	AMP1_masked	8	26	0	0	300	300	0	0	352	50	13,427734375	0	0	0	0	1	blank2r.bmp	0	1	BMVZ	0	1	blank2r.bmp	79	64	pic64.bmp	199	1	whitenoise_No3.bmp	306	0	0	0	0	0	0	0	0	0	0	0	0	0	0	0	0	0	0	0	0	0	0	0	0	0	0	0	0	0	0	0	0	0	0	0	0	0	0	0
011019	13:25:16	13:37:16	719537	5.0.10.0	4_exp_EVA_AMP_AWA_CON	58	Rpleas_acq	Same	Rpleas	Bmasked	CS_B	2pleas	distractor1	EVAbeforeCON	AMP_CSpleas	AMP1_masked	8	27	0	0	300	300	0	0	364	50	13,427734375	1	0	0	0	1	blank2r.bmp	0	1	GKQX	0	1	blank2r.bmp	79	123	pic123.bmp	199	1	whitenoise_No3.bmp	306	0	0	0	0	0	0	0	0	0	0	0	0	0	0	0	0	0	0	0	0	0	0	0	0	0	0	0	0	0	0	0	0	0	0	0	0	0	0	0
011019	13:25:16	13:37:18	720870	5.0.10.0	4_exp_EVA_AMP_AWA_CON	58	Rpleas_acq	Same	Rpleas	Bmasked	CS_B	2pleas	distractor1	EVAbeforeCON	AMP_CSunple	AMP1_masked	8	28	0	0	300	300	0	0	400	50	13,427734375	0	0	0	0	1	blank2r.bmp	0	1	BMVZ	0	1	blank2r.bmp	79	129	pic129.bmp	199	1	whitenoise_No3.bmp	306	0	0	0	0	0	0	0	0	0	0	0	0	0	0	0	0	0	0	0	0	0	0	0	0	0	0	0	0	0	0	0	0	0	0	0	0	0	0	0
011019	13:25:16	13:37:19	722229	5.0.10.0	4_exp_EVA_AMP_AWA_CON	58	Rpleas_acq	Same	Rpleas	Bmasked	CS_B	2pleas	distractor1	EVAbeforeCON	AMP_CSpleas	AMP1_masked	8	29	0	0	300	300	0	0	428	46	13,427734375	0	0	0	0	1	blank2r.bmp	0	1	GKQX	0	1	blank2r.bmp	79	65	pic65.bmp	199	1	whitenoise_No3.bmp	306	0	0	0	0	0	0	0	0	0	0	0	0	0	0	0	0	0	0	0	0	0	0	0	0	0	0	0	0	0	0	0	0	0	0	0	0	0	0	0
011019	13:25:16	13:37:20	723562	5.0.10.0	4_exp_EVA_AMP_AWA_CON	58	Rpleas_acq	Same	Rpleas	Bmasked	CS_B	2pleas	distractor1	EVAbeforeCON	AMP_CSpleas	AMP1_masked	8	30	0	0	300	300	0	0	416	50	13,427734375	1	0	0	0	1	blank2r.bmp	0	1	GKQX	0	1	blank2r.bmp	79	114	pic114.bmp	199	1	whitenoise_No3.bmp	306	0	0	0	0	0	0	0	0	0	0	0	0	0	0	0	0	0	0	0	0	0	0	0	0	0	0	0	0	0	0	0	0	0	0	0	0	0	0	0
011019	13:25:16	13:37:22	724868	5.0.10.0	4_exp_EVA_AMP_AWA_CON	58	Rpleas_acq	Same	Rpleas	Bmasked	CS_B	2pleas	distractor1	EVAbeforeCON	AMP_CSpleas	AMP1_masked	8	31	0	0	300	300	0	0	387	50	13,427734375	1	0	0	0	1	blank2r.bmp	0	1	GKQX	0	1	blank2r.bmp	79	137	pic137.bmp	199	1	whitenoise_No3.bmp	306	0	0	0	0	0	0	0	0	0	0	0	0	0	0	0	0	0	0	0	0	0	0	0	0	0	0	0	0	0	0	0	0	0	0	0	0	0	0	0
011019	13:25:16	13:37:23	726094	5.0.10.0	4_exp_EVA_AMP_AWA_CON	58	Rpleas_acq	Same	Rpleas	Bmasked	CS_B	2pleas	distractor1	EVAbeforeCON	AMP_CSunple	AMP1_masked	8	32	0	0	300	300	0	0	308	46	13,427734375	1	0	0	0	1	blank2r.bmp	0	1	BMVZ	0	1	blank2r.bmp	79	67	pic67.bmp	199	1	whitenoise_No3.bmp	306	0	0	0	0	0	0	0	0	0	0	0	0	0	0	0	0	0	0	0	0	0	0	0	0	0	0	0	0	0	0	0	0	0	0	0	0	0	0	0
011019	13:25:16	13:37:24	727347	5.0.10.0	4_exp_EVA_AMP_AWA_CON	58	Rpleas_acq	Same	Rpleas	Bmasked	CS_B	2pleas	distractor1	EVAbeforeCON	AMP_distractor	AMP1_masked	8	33	0	0	300	300	0	0	321	50	13,427734375	0	0	0	0	1	blank2r.bmp	0	1	WFPH	0	1	blank2r.bmp	79	28	pic28.bmp	199	1	whitenoise_No3.bmp	306	0	0	0	0	0	0	0	0	0	0	0	0	0	0	0	0	0	0	0	0	0	0	0	0	0	0	0	0	0	0	0	0	0	0	0	0	0	0	0
011019	13:25:16	13:37:25	728587	5.0.10.0	4_exp_EVA_AMP_AWA_CON	58	Rpleas_acq	Same	Rpleas	Bmasked	CS_B	2pleas	distractor1	EVAbeforeCON	AMP_CSunple	AMP1_masked	8	34	0	0	300	300	0	0	319	46	13,427734375	1	0	0	0	1	blank2r.bmp	0	1	BMVZ	0	1	blank2r.bmp	79	70	pic70.bmp	199	1	whitenoise_No3.bmp	306	0	0	0	0	0	0	0	0	0	0	0	0	0	0	0	0	0	0	0	0	0	0	0	0	0	0	0	0	0	0	0	0	0	0	0	0	0	0	0
011019	13:25:16	13:37:27	730346	5.0.10.0	4_exp_EVA_AMP_AWA_CON	58	Rpleas_acq	Same	Rpleas	Bmasked	CS_B	2pleas	distractor1	EVAbeforeCON	AMP_CSpleas	AMP1_masked	8	35	0	0	300	300	0	0	839	46	13,427734375	0	0	0	0	1	blank2r.bmp	0	1	GKQX	0	1	blank2r.bmp	79	32	pic32.bmp	199	1	whitenoise_No3.bmp	306	0	0	0	0	0	0	0	0	0	0	0	0	0	0	0	0	0	0	0	0	0	0	0	0	0	0	0	0	0	0	0	0	0	0	0	0	0	0	0
011019	13:25:16	13:37:28	731599	5.0.10.0	4_exp_EVA_AMP_AWA_CON	58	Rpleas_acq	Same	Rpleas	Bmasked	CS_B	2pleas	distractor1	EVAbeforeCON	AMP_CSunple	AMP1_masked	8	36	0	0	300	300	0	0	338	46	13,427734375	1	0	0	0	1	blank2r.bmp	0	1	BMVZ	0	1	blank2r.bmp	79	76	pic76.bmp	199	1	whitenoise_No3.bmp	306	0	0	0	0	0	0	0	0	0	0	0	0	0	0	0	0	0	0	0	0	0	0	0	0	0	0	0	0	0	0	0	0	0	0	0	0	0	0	0
011019	13:25:16	13:37:30	732878	5.0.10.0	4_exp_EVA_AMP_AWA_CON	58	Rpleas_acq	Same	Rpleas	Bmasked	CS_B	2pleas	distractor1	EVAbeforeCON	AMP_distractor	AMP1_masked	8	37	0	0	300	300	0	0	354	46	13,427734375	0	0	0	0	1	blank2r.bmp	0	1	WFPH	0	1	blank2r.bmp	79	4	pic4.bmp	199	1	whitenoise_No3.bmp	306	0	0	0	0	0	0	0	0	0	0	0	0	0	0	0	0	0	0	0	0	0	0	0	0	0	0	0	0	0	0	0	0	0	0	0	0	0	0	0
011019	13:25:16	13:37:31	734477	5.0.10.0	4_exp_EVA_AMP_AWA_CON	58	Rpleas_acq	Same	Rpleas	Bmasked	CS_B	2pleas	distractor1	EVAbeforeCON	AMP_distractor	AMP1_masked	8	38	0	0	300	300	0	0	669	46	13,427734375	0	0	0	0	1	blank2r.bmp	0	1	WFPH	0	1	blank2r.bmp	79	37	pic37.bmp	199	1	whitenoise_No3.bmp	306	0	0	0	0	0	0	0	0	0	0	0	0	0	0	0	0	0	0	0	0	0	0	0	0	0	0	0	0	0	0	0	0	0	0	0	0	0	0	0
011019	13:25:16	13:37:33	735997	5.0.10.0	4_exp_EVA_AMP_AWA_CON	58	Rpleas_acq	Same	Rpleas	Bmasked	CS_B	2pleas	distractor1	EVAbeforeCON	AMP_distractor	AMP1_masked	8	39	0	0	300	300	0	0	608	46	13,427734375	0	0	0	0	1	blank2r.bmp	0	1	WFPH	0	1	blank2r.bmp	79	30	pic30.bmp	199	1	whitenoise_No3.bmp	306	0	0	0	0	0	0	0	0	0	0	0	0	0	0	0	0	0	0	0	0	0	0	0	0	0	0	0	0	0	0	0	0	0	0	0	0	0	0	0
011019	13:25:16	13:37:34	737676	5.0.10.0	4_exp_EVA_AMP_AWA_CON	58	Rpleas_acq	Same	Rpleas	Bmasked	CS_B	2pleas	distractor1	EVAbeforeCON	AMP_CSpleas	AMP1_masked	8	40	0	0	300	300	0	0	749	50	13,427734375	1	0	0	0	1	blank2r.bmp	0	1	GKQX	0	1	blank2r.bmp	79	113	pic113.bmp	199	1	whitenoise_No3.bmp	306	0	0	0	0	0	0	0	0	0	0	0	0	0	0	0	0	0	0	0	0	0	0	0	0	0	0	0	0	0	0	0	0	0	0	0	0	0	0	0
011019	13:25:16	13:37:36	738889	5.0.10.0	4_exp_EVA_AMP_AWA_CON	58	Rpleas_acq	Same	Rpleas	Bmasked	CS_B	2pleas	distractor1	EVAbeforeCON	AMP_distractor	AMP1_masked	8	41	0	0	300	300	0	0	297	50	13,427734375	0	0	0	0	1	blank2r.bmp	0	1	WFPH	0	1	blank2r.bmp	79	7	pic7.bmp	199	1	whitenoise_No3.bmp	306	0	0	0	0	0	0	0	0	0	0	0	0	0	0	0	0	0	0	0	0	0	0	0	0	0	0	0	0	0	0	0	0	0	0	0	0	0	0	0
011019	13:25:16	13:37:37	740235	5.0.10.0	4_exp_EVA_AMP_AWA_CON	58	Rpleas_acq	Same	Rpleas	Bmasked	CS_B	2pleas	distractor1	EVAbeforeCON	AMP_CSpleas	AMP1_masked	8	42	0	0	300	300	0	0	431	46	13,427734375	0	0	0	0	1	blank2r.bmp	0	1	GKQX	0	1	blank2r.bmp	79	62	pic62.bmp	199	1	whitenoise_No3.bmp	306	0	0	0	0	0	0	0	0	0	0	0	0	0	0	0	0	0	0	0	0	0	0	0	0	0	0	0	0	0	0	0	0	0	0	0	0	0	0	0
011019	13:25:16	13:37:38	741634	5.0.10.0	4_exp_EVA_AMP_AWA_CON	58	Rpleas_acq	Same	Rpleas	Bmasked	CS_B	2pleas	distractor1	EVAbeforeCON	AMP_CSpleas	AMP1_masked	8	43	0	0	300	300	0	0	488	50	13,427734375	1	0	0	0	1	blank2r.bmp	0	1	GKQX	0	1	blank2r.bmp	79	19	pic19.bmp	199	1	whitenoise_No3.bmp	306	0	0	0	0	0	0	0	0	0	0	0	0	0	0	0	0	0	0	0	0	0	0	0	0	0	0	0	0	0	0	0	0	0	0	0	0	0	0	0
011019	13:25:16	13:37:40	742874	5.0.10.0	4_exp_EVA_AMP_AWA_CON	58	Rpleas_acq	Same	Rpleas	Bmasked	CS_B	2pleas	distractor1	EVAbeforeCON	AMP_distractor	AMP1_masked	8	44	0	0	300	300	0	0	324	50	13,427734375	0	0	0	0	1	blank2r.bmp	0	1	WFPH	0	1	blank2r.bmp	79	133	pic133.bmp	199	1	whitenoise_No3.bmp	306	0	0	0	0	0	0	0	0	0	0	0	0	0	0	0	0	0	0	0	0	0	0	0	0	0	0	0	0	0	0	0	0	0	0	0	0	0	0	0
011019	13:25:16	13:37:41	744207	5.0.10.0	4_exp_EVA_AMP_AWA_CON	58	Rpleas_acq	Same	Rpleas	Bmasked	CS_B	2pleas	distractor1	EVAbeforeCON	AMP_CSpleas	AMP1_masked	8	45	0	0	300	300	0	0	414	46	13,427734375	0	0	0	0	1	blank2r.bmp	0	1	GKQX	0	1	blank2r.bmp	79	51	pic51.bmp	199	1	whitenoise_No3.bmp	306	0	0	0	0	0	0	0	0	0	0	0	0	0	0	0	0	0	0	0	0	0	0	0	0	0	0	0	0	0	0	0	0	0	0	0	0	0	0	0
011019	13:25:16	13:37:42	745486	5.0.10.0	4_exp_EVA_AMP_AWA_CON	58	Rpleas_acq	Same	Rpleas	Bmasked	CS_B	2pleas	distractor1	EVAbeforeCON	AMP_CSunple	AMP1_masked	8	46	0	0	300	300	0	0	345	50	13,427734375	0	0	0	0	1	blank2r.bmp	0	1	BMVZ	0	1	blank2r.bmp	79	121	pic121.bmp	199	1	whitenoise_No3.bmp	306	0	0	0	0	0	0	0	0	0	0	0	0	0	0	0	0	0	0	0	0	0	0	0	0	0	0	0	0	0	0	0	0	0	0	0	0	0	0	0
011019	13:25:16	13:37:43	746752	5.0.10.0	4_exp_EVA_AMP_AWA_CON	58	Rpleas_acq	Same	Rpleas	Bmasked	CS_B	2pleas	distractor1	EVAbeforeCON	AMP_CSunple	AMP1_masked	8	47	0	0	300	300	0	0	340	50	13,427734375	0	0	0	0	1	blank2r.bmp	0	1	BMVZ	0	1	blank2r.bmp	79	128	pic128.bmp	199	1	whitenoise_No3.bmp	306	0	0	0	0	0	0	0	0	0	0	0	0	0	0	0	0	0	0	0	0	0	0	0	0	0	0	0	0	0	0	0	0	0	0	0	0	0	0	0
011019	13:25:16	13:37:45	748058	5.0.10.0	4_exp_EVA_AMP_AWA_CON	58	Rpleas_acq	Same	Rpleas	Bmasked	CS_B	2pleas	distractor1	EVAbeforeCON	AMP_distractor	AMP1_masked	8	48	0	0	300	300	0	0	387	50	13,427734375	0	0	0	0	1	blank2r.bmp	0	1	WFPH	0	1	blank2r.bmp	79	83	pic83.bmp	199	1	whitenoise_No3.bmp	306	0	0	0	0	0	0	0	0	0	0	0	0	0	0	0	0	0	0	0	0	0	0	0	0	0	0	0	0	0	0	0	0	0	0	0	0	0	0	0
011019	13:25:16	13:37:46	749418	5.0.10.0	4_exp_EVA_AMP_AWA_CON	58	Rpleas_acq	Same	Rpleas	Bmasked	CS_B	2pleas	distractor1	EVAbeforeCON	AMP_CSpleas	AMP1_masked	8	49	0	0	300	300	0	0	425	50	13,427734375	1	0	0	0	1	blank2r.bmp	0	1	GKQX	0	1	blank2r.bmp	79	134	pic134.bmp	199	1	whitenoise_No3.bmp	306	0	0	0	0	0	0	0	0	0	0	0	0	0	0	0	0	0	0	0	0	0	0	0	0	0	0	0	0	0	0	0	0	0	0	0	0	0	0	0
011019	13:25:16	13:37:47	750831	5.0.10.0	4_exp_EVA_AMP_AWA_CON	58	Rpleas_acq	Same	Rpleas	Bmasked	CS_B	2pleas	distractor1	EVAbeforeCON	AMP_distractor	AMP1_masked	8	50	0	0	300	300	0	0	487	50	13,427734375	0	0	0	0	1	blank2r.bmp	0	1	WFPH	0	1	blank2r.bmp	79	23	pic23.bmp	199	1	whitenoise_No3.bmp	306	0	0	0	0	0	0	0	0	0	0	0	0	0	0	0	0	0	0	0	0	0	0	0	0	0	0	0	0	0	0	0	0	0	0	0	0	0	0	0
011019	13:25:16	13:37:49	752137	5.0.10.0	4_exp_EVA_AMP_AWA_CON	58	Rpleas_acq	Same	Rpleas	Bmasked	CS_B	2pleas	distractor1	EVAbeforeCON	AMP_distractor	AMP1_masked	8	51	0	0	300	300	0	0	384	50	13,427734375	0	0	0	0	1	blank2r.bmp	0	1	WFPH	0	1	blank2r.bmp	79	126	pic126.bmp	199	1	whitenoise_No3.bmp	306	0	0	0	0	0	0	0	0	0	0	0	0	0	0	0	0	0	0	0	0	0	0	0	0	0	0	0	0	0	0	0	0	0	0	0	0	0	0	0
011019	13:25:16	13:37:54	757374	5.0.10.0	4_exp_EVA_AMP_AWA_CON	58	Rpleas_acq	Same	Rpleas	Bmasked	CS_B	2pleas	distractor1	EVAbeforeCON	AMP_distractor	AMP23	9	1	0	0	300	300	0	0	467	50	13,427734375	0	0	0	0	1	blank2r.bmp	0	1	WFPH	0	1	blank2r.bmp	79	14	pic14.bmp	199	1	whitenoise_No3.bmp	306	0	0	0	0	0	0	0	0	0	0	0	0	0	0	0	0	0	0	0	0	0	0	0	0	0	0	0	0	0	0	0	0	0	0	0	0	0	0	0
011019	13:25:16	13:37:55	758561	5.0.10.0	4_exp_EVA_AMP_AWA_CON	58	Rpleas_acq	Same	Rpleas	Bmasked	CS_B	2pleas	distractor1	EVAbeforeCON	AMP_CSunple	AMP23	9	2	0	0	300	300	0	0	278	50	13,427734375	0	0	0	0	1	blank2r.bmp	0	1	BMVZ	0	1	blank2r.bmp	79	20	pic20.bmp	199	1	whitenoise_No3.bmp	306	0	0	0	0	0	0	0	0	0	0	0	0	0	0	0	0	0	0	0	0	0	0	0	0	0	0	0	0	0	0	0	0	0	0	0	0	0	0	0
011019	13:25:16	13:37:56	759773	5.0.10.0	4_exp_EVA_AMP_AWA_CON	58	Rpleas_acq	Same	Rpleas	Bmasked	CS_B	2pleas	distractor1	EVAbeforeCON	AMP_CSpleas	AMP23	9	3	0	0	300	300	0	0	272	46	13,427734375	0	0	0	0	1	blank2r.bmp	0	1	GKQX	0	1	blank2r.bmp	79	131	pic131.bmp	199	1	whitenoise_No3.bmp	306	0	0	0	0	0	0	0	0	0	0	0	0	0	0	0	0	0	0	0	0	0	0	0	0	0	0	0	0	0	0	0	0	0	0	0	0	0	0	0
011019	13:25:16	13:37:58	761479	5.0.10.0	4_exp_EVA_AMP_AWA_CON	58	Rpleas_acq	Same	Rpleas	Bmasked	CS_B	2pleas	distractor1	EVAbeforeCON	AMP_CSunple	AMP23	9	4	0	0	300	300	0	0	778	50	13,427734375	0	0	0	0	1	blank2r.bmp	0	1	BMVZ	0	1	blank2r.bmp	79	36	pic36.bmp	199	1	whitenoise_No3.bmp	306	0	0	0	0	0	0	0	0	0	0	0	0	0	0	0	0	0	0	0	0	0	0	0	0	0	0	0	0	0	0	0	0	0	0	0	0	0	0	0
011019	13:25:16	13:37:59	762785	5.0.10.0	4_exp_EVA_AMP_AWA_CON	58	Rpleas_acq	Same	Rpleas	Bmasked	CS_B	2pleas	distractor1	EVAbeforeCON	AMP_CSunple	AMP23	9	5	0	0	300	300	0	0	395	50	13,427734375	0	0	0	0	1	blank2r.bmp	0	1	BMVZ	0	1	blank2r.bmp	79	77	pic77.bmp	199	1	whitenoise_No3.bmp	306	0	0	0	0	0	0	0	0	0	0	0	0	0	0	0	0	0	0	0	0	0	0	0	0	0	0	0	0	0	0	0	0	0	0	0	0	0	0	0
011019	13:25:16	13:38:01	763998	5.0.10.0	4_exp_EVA_AMP_AWA_CON	58	Rpleas_acq	Same	Rpleas	Bmasked	CS_B	2pleas	distractor1	EVAbeforeCON	AMP_CSpleas	AMP23	9	6	0	0	300	300	0	0	284	50	13,427734375	1	0	0	0	1	blank2r.bmp	0	1	GKQX	0	1	blank2r.bmp	79	17	pic17.bmp	199	1	whitenoise_No3.bmp	306	0	0	0	0	0	0	0	0	0	0	0	0	0	0	0	0	0	0	0	0	0	0	0	0	0	0	0	0	0	0	0	0	0	0	0	0	0	0	0
011019	13:25:16	13:38:02	765304	5.0.10.0	4_exp_EVA_AMP_AWA_CON	58	Rpleas_acq	Same	Rpleas	Bmasked	CS_B	2pleas	distractor1	EVAbeforeCON	AMP_CSpleas	AMP23	9	7	0	0	300	300	0	0	374	46	13,427734375	0	0	0	0	1	blank2r.bmp	0	1	GKQX	0	1	blank2r.bmp	79	143	pic143.bmp	199	1	whitenoise_No3.bmp	306	0	0	0	0	0	0	0	0	0	0	0	0	0	0	0	0	0	0	0	0	0	0	0	0	0	0	0	0	0	0	0	0	0	0	0	0	0	0	0
011019	13:25:16	13:38:03	766531	5.0.10.0	4_exp_EVA_AMP_AWA_CON	58	Rpleas_acq	Same	Rpleas	Bmasked	CS_B	2pleas	distractor1	EVAbeforeCON	AMP_CSunple	AMP23	9	8	0	0	300	300	0	0	315	50	13,427734375	0	0	0	0	1	blank2r.bmp	0	1	BMVZ	0	1	blank2r.bmp	79	125	pic125.bmp	199	1	whitenoise_No3.bmp	306	0	0	0	0	0	0	0	0	0	0	0	0	0	0	0	0	0	0	0	0	0	0	0	0	0	0	0	0	0	0	0	0	0	0	0	0	0	0	0
011019	13:25:16	13:38:05	767890	5.0.10.0	4_exp_EVA_AMP_AWA_CON	58	Rpleas_acq	Same	Rpleas	Bmasked	CS_B	2pleas	distractor1	EVAbeforeCON	AMP_CSpleas	AMP23	9	9	0	0	300	300	0	0	425	46	13,427734375	0	0	0	0	1	blank2r.bmp	0	1	GKQX	0	1	blank2r.bmp	79	146	pic146.bmp	199	1	whitenoise_No3.bmp	306	0	0	0	0	0	0	0	0	0	0	0	0	0	0	0	0	0	0	0	0	0	0	0	0	0	0	0	0	0	0	0	0	0	0	0	0	0	0	0
011019	13:25:16	13:38:06	769130	5.0.10.0	4_exp_EVA_AMP_AWA_CON	58	Rpleas_acq	Same	Rpleas	Bmasked	CS_B	2pleas	distractor1	EVAbeforeCON	AMP_distractor	AMP23	9	10	0	0	300	300	0	0	329	50	13,427734375	0	0	0	0	1	blank2r.bmp	0	1	WFPH	0	1	blank2r.bmp	79	116	pic116.bmp	199	1	whitenoise_No3.bmp	306	0	0	0	0	0	0	0	0	0	0	0	0	0	0	0	0	0	0	0	0	0	0	0	0	0	0	0	0	0	0	0	0	0	0	0	0	0	0	0
011019	13:25:16	13:38:07	770382	5.0.10.0	4_exp_EVA_AMP_AWA_CON	58	Rpleas_acq	Same	Rpleas	Bmasked	CS_B	2pleas	distractor1	EVAbeforeCON	AMP_CSpleas	AMP23	9	11	0	0	300	300	0	0	320	50	13,427734375	1	0	0	0	1	blank2r.bmp	0	1	GKQX	0	1	blank2r.bmp	79	92	pic92.bmp	199	1	whitenoise_No3.bmp	306	0	0	0	0	0	0	0	0	0	0	0	0	0	0	0	0	0	0	0	0	0	0	0	0	0	0	0	0	0	0	0	0	0	0	0	0	0	0	0
011019	13:25:16	13:38:08	771675	5.0.10.0	4_exp_EVA_AMP_AWA_CON	58	Rpleas_acq	Same	Rpleas	Bmasked	CS_B	2pleas	distractor1	EVAbeforeCON	AMP_CSunple	AMP23	9	12	0	0	300	300	0	0	360	46	13,427734375	1	0	0	0	1	blank2r.bmp	0	1	BMVZ	0	1	blank2r.bmp	79	109	pic109.bmp	199	1	whitenoise_No3.bmp	306	0	0	0	0	0	0	0	0	0	0	0	0	0	0	0	0	0	0	0	0	0	0	0	0	0	0	0	0	0	0	0	0	0	0	0	0	0	0	0
011019	13:25:16	13:38:10	772901	5.0.10.0	4_exp_EVA_AMP_AWA_CON	58	Rpleas_acq	Same	Rpleas	Bmasked	CS_B	2pleas	distractor1	EVAbeforeCON	AMP_CSpleas	AMP23	9	13	0	0	300	300	0	0	301	50	13,427734375	1	0	0	0	1	blank2r.bmp	0	1	GKQX	0	1	blank2r.bmp	79	82	pic82.bmp	199	1	whitenoise_No3.bmp	306	0	0	0	0	0	0	0	0	0	0	0	0	0	0	0	0	0	0	0	0	0	0	0	0	0	0	0	0	0	0	0	0	0	0	0	0	0	0	0
011019	13:25:16	13:38:11	774234	5.0.10.0	4_exp_EVA_AMP_AWA_CON	58	Rpleas_acq	Same	Rpleas	Bmasked	CS_B	2pleas	distractor1	EVAbeforeCON	AMP_distractor	AMP23	9	14	0	0	300	300	0	0	409	50	13,427734375	0	0	0	0	1	blank2r.bmp	0	1	WFPH	0	1	blank2r.bmp	79	73	pic73.bmp	199	1	whitenoise_No3.bmp	306	0	0	0	0	0	0	0	0	0	0	0	0	0	0	0	0	0	0	0	0	0	0	0	0	0	0	0	0	0	0	0	0	0	0	0	0	0	0	0
011019	13:25:16	13:38:12	775460	5.0.10.0	4_exp_EVA_AMP_AWA_CON	58	Rpleas_acq	Same	Rpleas	Bmasked	CS_B	2pleas	distractor1	EVAbeforeCON	AMP_CSpleas	AMP23	9	15	0	0	300	300	0	0	304	46	13,427734375	0	0	0	0	1	blank2r.bmp	0	1	GKQX	0	1	blank2r.bmp	79	139	pic139.bmp	199	1	whitenoise_No3.bmp	306	0	0	0	0	0	0	0	0	0	0	0	0	0	0	0	0	0	0	0	0	0	0	0	0	0	0	0	0	0	0	0	0	0	0	0	0	0	0	0
011019	13:25:16	13:38:13	776686	5.0.10.0	4_exp_EVA_AMP_AWA_CON	58	Rpleas_acq	Same	Rpleas	Bmasked	CS_B	2pleas	distractor1	EVAbeforeCON	AMP_CSunple	AMP23	9	16	0	0	300	300	0	0	298	50	13,427734375	0	0	0	0	1	blank2r.bmp	0	1	BMVZ	0	1	blank2r.bmp	79	124	pic124.bmp	199	1	whitenoise_No3.bmp	306	0	0	0	0	0	0	0	0	0	0	0	0	0	0	0	0	0	0	0	0	0	0	0	0	0	0	0	0	0	0	0	0	0	0	0	0	0	0	0
011019	13:25:16	13:38:15	777979	5.0.10.0	4_exp_EVA_AMP_AWA_CON	58	Rpleas_acq	Same	Rpleas	Bmasked	CS_B	2pleas	distractor1	EVAbeforeCON	AMP_CSpleas	AMP23	9	17	0	0	300	300	0	0	368	50	13,427734375	1	0	0	0	1	blank2r.bmp	0	1	GKQX	0	1	blank2r.bmp	79	153	pic153.bmp	199	1	whitenoise_No3.bmp	306	0	0	0	0	0	0	0	0	0	0	0	0	0	0	0	0	0	0	0	0	0	0	0	0	0	0	0	0	0	0	0	0	0	0	0	0	0	0	0
011019	13:25:16	13:38:16	779259	5.0.10.0	4_exp_EVA_AMP_AWA_CON	58	Rpleas_acq	Same	Rpleas	Bmasked	CS_B	2pleas	distractor1	EVAbeforeCON	AMP_distractor	AMP23	9	18	0	0	300	300	0	0	346	50	13,427734375	0	0	0	0	1	blank2r.bmp	0	1	WFPH	0	1	blank2r.bmp	79	144	pic144.bmp	199	1	whitenoise_No3.bmp	306	0	0	0	0	0	0	0	0	0	0	0	0	0	0	0	0	0	0	0	0	0	0	0	0	0	0	0	0	0	0	0	0	0	0	0	0	0	0	0
011019	13:25:16	13:38:18	780858	5.0.10.0	4_exp_EVA_AMP_AWA_CON	58	Rpleas_acq	Same	Rpleas	Bmasked	CS_B	2pleas	distractor1	EVAbeforeCON	AMP_distractor	AMP23	9	19	0	0	300	300	0	0	667	46	13,427734375	0	0	0	0	1	blank2r.bmp	0	1	WFPH	0	1	blank2r.bmp	79	110	pic110.bmp	199	1	whitenoise_No3.bmp	306	0	0	0	0	0	0	0	0	0	0	0	0	0	0	0	0	0	0	0	0	0	0	0	0	0	0	0	0	0	0	0	0	0	0	0	0	0	0	0
011019	13:25:16	13:38:19	782244	5.0.10.0	4_exp_EVA_AMP_AWA_CON	58	Rpleas_acq	Same	Rpleas	Bmasked	CS_B	2pleas	distractor1	EVAbeforeCON	AMP_distractor	AMP23	9	20	0	0	300	300	0	0	466	46	13,427734375	0	0	0	0	1	blank2r.bmp	0	1	WFPH	0	1	blank2r.bmp	79	71	pic71.bmp	199	1	whitenoise_No3.bmp	306	0	0	0	0	0	0	0	0	0	0	0	0	0	0	0	0	0	0	0	0	0	0	0	0	0	0	0	0	0	0	0	0	0	0	0	0	0	0	0
011019	13:25:16	13:38:20	783523	5.0.10.0	4_exp_EVA_AMP_AWA_CON	58	Rpleas_acq	Same	Rpleas	Bmasked	CS_B	2pleas	distractor1	EVAbeforeCON	AMP_CSunple	AMP23	9	21	0	0	300	300	0	0	370	46	13,427734375	1	0	0	0	1	blank2r.bmp	0	1	BMVZ	0	1	blank2r.bmp	79	26	pic26.bmp	199	1	whitenoise_No3.bmp	306	0	0	0	0	0	0	0	0	0	0	0	0	0	0	0	0	0	0	0	0	0	0	0	0	0	0	0	0	0	0	0	0	0	0	0	0	0	0	0
011019	13:25:16	13:38:21	784830	5.0.10.0	4_exp_EVA_AMP_AWA_CON	58	Rpleas_acq	Same	Rpleas	Bmasked	CS_B	2pleas	distractor1	EVAbeforeCON	AMP_distractor	AMP23	9	22	0	0	300	300	0	0	384	50	13,427734375	0	0	0	0	1	blank2r.bmp	0	1	WFPH	0	1	blank2r.bmp	79	35	pic35.bmp	199	1	whitenoise_No3.bmp	306	0	0	0	0	0	0	0	0	0	0	0	0	0	0	0	0	0	0	0	0	0	0	0	0	0	0	0	0	0	0	0	0	0	0	0	0	0	0	0
011019	13:25:16	13:38:23	786122	5.0.10.0	4_exp_EVA_AMP_AWA_CON	58	Rpleas_acq	Same	Rpleas	Bmasked	CS_B	2pleas	distractor1	EVAbeforeCON	AMP_CSpleas	AMP23	9	23	0	0	300	300	0	0	371	50	13,427734375	1	0	0	0	1	blank2r.bmp	0	1	GKQX	0	1	blank2r.bmp	79	100	pic100.bmp	199	1	whitenoise_No3.bmp	306	0	0	0	0	0	0	0	0	0	0	0	0	0	0	0	0	0	0	0	0	0	0	0	0	0	0	0	0	0	0	0	0	0	0	0	0	0	0	0
011019	13:25:16	13:38:24	787442	5.0.10.0	4_exp_EVA_AMP_AWA_CON	58	Rpleas_acq	Same	Rpleas	Bmasked	CS_B	2pleas	distractor1	EVAbeforeCON	AMP_CSpleas	AMP23	9	24	0	0	300	300	0	0	395	46	13,427734375	0	0	0	0	1	blank2r.bmp	0	1	GKQX	0	1	blank2r.bmp	79	94	pic94.bmp	199	1	whitenoise_No3.bmp	306	0	0	0	0	0	0	0	0	0	0	0	0	0	0	0	0	0	0	0	0	0	0	0	0	0	0	0	0	0	0	0	0	0	0	0	0	0	0	0
011019	13:25:16	13:38:26	789281	5.0.10.0	4_exp_EVA_AMP_AWA_CON	58	Rpleas_acq	Same	Rpleas	Bmasked	CS_B	2pleas	distractor1	EVAbeforeCON	AMP_distractor	AMP23	9	25	0	0	300	300	0	0	910	50	13,427734375	0	0	0	0	1	blank2r.bmp	0	1	WFPH	0	1	blank2r.bmp	79	152	pic152.bmp	199	1	whitenoise_No3.bmp	306	0	0	0	0	0	0	0	0	0	0	0	0	0	0	0	0	0	0	0	0	0	0	0	0	0	0	0	0	0	0	0	0	0	0	0	0	0	0	0
011019	13:25:16	13:38:27	790600	5.0.10.0	4_exp_EVA_AMP_AWA_CON	58	Rpleas_acq	Same	Rpleas	Bmasked	CS_B	2pleas	distractor1	EVAbeforeCON	AMP_CSunple	AMP23	9	26	0	0	300	300	0	0	407	46	13,427734375	1	0	0	0	1	blank2r.bmp	0	1	BMVZ	0	1	blank2r.bmp	79	18	pic18.bmp	199	1	whitenoise_No3.bmp	306	0	0	0	0	0	0	0	0	0	0	0	0	0	0	0	0	0	0	0	0	0	0	0	0	0	0	0	0	0	0	0	0	0	0	0	0	0	0	0
