date	time	script.currenttime	script.elapsedtime	build	script.currentexpt	subject	expressions.LRpleas_acq	expressions.SameOppo	expressions.condition_Lpleas	expressions.ABmasked	expressions.conditionCS_A	expressions.condition_1pleas	expressions.condition_distractor_AMP	expressions.AWACON_AMPEVA_first	trialcode	blockcode	blocknum	trialnum	windowcenter	inwindow	pretrialpause	posttrialpause	trialduration	trialtimeout	latency	response	expressions.correctedscore	correct	values.vis_performance	values.vis_rating_sum	values.vis_rating_mean	stimulusnumber1	stimulusitem1	stimulusonset1	stimulusnumber2	stimulusitem2	stimulusonset2	stimulusnumber3	stimulusitem3	stimulusonset3	stimulusnumber4	stimulusitem4	stimulusonset4	stimulusnumber5	stimulusitem5	stimulusonset5	stimulusnumber6	stimulusitem6	stimulusonset6	stimulusnumber7	stimulusitem7	stimulusonset7	stimulusnumber8	stimulusitem8	stimulusonset8	stimulusnumber9	stimulusitem9	stimulusonset9	stimulusnumber10	stimulusitem10	stimulusonset10	stimulusnumber11	stimulusitem11	stimulusonset11	stimulusnumber12	stimulusitem12	stimulusonset12	stimulusnumber13	stimulusitem13	stimulusonset13	stimulusnumber14	stimulusitem14	stimulusonset14	stimulusnumber15	stimulusitem15	stimulusonset15	stimulusnumber16	stimulusitem16	stimulusonset16	stimulusnumber17	stimulusitem17	stimulusonset17	stimulusnumber18	stimulusitem18	stimulusonset18
010919	09:08:22	09:12:27	242312	5.0.10.0	4_exp_EVA_AMP_AWA_CON	50	Rpleas_acq	Same	Rpleas	Bmasked	CS_B	1pleas	distractor1	EVAbeforeCON	acq_new_unple_masked	acq1_masked	1	1	0	0	300	300	0	0	1566	50	0	0	0	0	0	1	blank2r.bmp	0	1	+	0	6	C2r.bmp	492	1	blank2r.bmp	786	4	B4r.bmp	786	1	blank2r.bmp	866	3	schlecht	866	1	FEHLER	2465	0	0	0	0	0	0	0	0	0	0	0	0	0	0	0	0	0	0	0	0	0	0	0	0	0	0	0	0	0	0
010919	09:08:22	09:12:29	244591	5.0.10.0	4_exp_EVA_AMP_AWA_CON	50	Rpleas_acq	Same	Rpleas	Bmasked	CS_B	1pleas	distractor1	EVAbeforeCON	acq_new_pleas_masked	acq1_masked	1	2	0	0	300	300	0	0	1012	50	0	1	0	0	0	1	blank2r.bmp	0	1	+	0	4	B4r.bmp	492	1	blank2r.bmp	786	8	C4r.bmp	786	1	blank2r.bmp	866	5	schlau	866	0	0	0	0	0	0	0	0	0	0	0	0	0	0	0	0	0	0	0	0	0	0	0	0	0	0	0	0	0	0	0	0	0
010919	09:08:22	09:12:31	246910	5.0.10.0	4_exp_EVA_AMP_AWA_CON	50	Rpleas_acq	Same	Rpleas	Bmasked	CS_B	1pleas	distractor1	EVAbeforeCON	acq_new_unple_masked	acq1_masked	1	3	0	0	300	300	0	0	843	46	0	1	0	0	0	1	blank2r.bmp	0	1	+	0	2	B2r.bmp	492	1	blank2r.bmp	786	6	C2r.bmp	786	1	blank2r.bmp	866	4	eitel	866	0	0	0	0	0	0	0	0	0	0	0	0	0	0	0	0	0	0	0	0	0	0	0	0	0	0	0	0	0	0	0	0	0
010919	09:08:22	09:12:34	249603	5.0.10.0	4_exp_EVA_AMP_AWA_CON	50	Rpleas_acq	Same	Rpleas	Bmasked	CS_B	2pleas	distractor1	EVAbeforeCON	acq_US_unple_masked	acq1_masked	1	4	0	0	300	300	0	0	1216	46	0	1	0	0	0	1	blank2r.bmp	0	1	+	0	3	B3r.bmp	492	1	blank2r.bmp	786	1	BMVZ	786	1	blank2r.bmp	866	6	hindern	866	0	0	0	0	0	0	0	0	0	0	0	0	0	0	0	0	0	0	0	0	0	0	0	0	0	0	0	0	0	0	0	0	0
010919	09:08:22	09:12:36	252042	5.0.10.0	4_exp_EVA_AMP_AWA_CON	50	Rpleas_acq	Same	Rpleas	Bmasked	CS_B	2pleas	distractor1	EVAbeforeCON	acq_new_unple_masked	acq1_masked	1	5	0	0	300	300	0	0	970	46	0	1	0	0	0	1	blank2r.bmp	0	1	+	0	7	C3r.bmp	492	1	blank2r.bmp	786	3	B3r.bmp	786	1	blank2r.bmp	866	2	rächen	866	0	0	0	0	0	0	0	0	0	0	0	0	0	0	0	0	0	0	0	0	0	0	0	0	0	0	0	0	0	0	0	0	0
010919	09:08:22	09:12:39	254401	5.0.10.0	4_exp_EVA_AMP_AWA_CON	50	Rpleas_acq	Same	Rpleas	Bmasked	CS_B	2pleas	distractor1	EVAbeforeCON	acq_US_unple_masked	acq1_masked	1	6	0	0	300	300	0	0	869	46	0	1	0	0	0	1	blank2r.bmp	0	1	+	0	1	B1r.bmp	492	1	blank2r.bmp	786	1	BMVZ	786	1	blank2r.bmp	866	2	lasch	866	0	0	0	0	0	0	0	0	0	0	0	0	0	0	0	0	0	0	0	0	0	0	0	0	0	0	0	0	0	0	0	0	0
010919	09:08:22	09:12:41	256520	5.0.10.0	4_exp_EVA_AMP_AWA_CON	50	Rpleas_acq	Same	Rpleas	Bmasked	CS_B	2pleas	distractor1	EVAbeforeCON	acq_new_pleas_masked	acq1_masked	1	7	0	0	300	300	0	0	629	50	0	1	0	0	0	1	blank2r.bmp	0	1	+	0	5	C1r.bmp	492	1	blank2r.bmp	786	7	C3r.bmp	786	1	blank2r.bmp	866	3	schön	866	0	0	0	0	0	0	0	0	0	0	0	0	0	0	0	0	0	0	0	0	0	0	0	0	0	0	0	0	0	0	0	0	0
010919	09:08:22	09:12:43	258706	5.0.10.0	4_exp_EVA_AMP_AWA_CON	50	Rpleas_acq	Same	Rpleas	Bmasked	CS_B	2pleas	distractor1	EVAbeforeCON	acq_US_pleas_masked	acq1_masked	1	8	0	0	300	300	0	0	716	50	0	1	0	0	0	1	blank2r.bmp	0	1	+	0	8	C4r.bmp	492	1	blank2r.bmp	786	1	GKQX	786	1	blank2r.bmp	866	3	tolerant	866	0	0	0	0	0	0	0	0	0	0	0	0	0	0	0	0	0	0	0	0	0	0	0	0	0	0	0	0	0	0	0	0	0
010919	09:08:22	09:12:45	261011	5.0.10.0	4_exp_EVA_AMP_AWA_CON	50	Rpleas_acq	Same	Rpleas	Bmasked	CS_B	2pleas	distractor1	EVAbeforeCON	acq_US_unple_masked	acq1_masked	1	9	0	0	300	300	0	0	813	46	0	1	0	0	0	1	blank2r.bmp	0	1	+	0	4	B4r.bmp	492	1	blank2r.bmp	786	1	BMVZ	786	1	blank2r.bmp	866	1	strafen	866	0	0	0	0	0	0	0	0	0	0	0	0	0	0	0	0	0	0	0	0	0	0	0	0	0	0	0	0	0	0	0	0	0
010919	09:08:22	09:12:48	263664	5.0.10.0	4_exp_EVA_AMP_AWA_CON	50	Rpleas_acq	Same	Rpleas	Bmasked	CS_B	2pleas	distractor1	EVAbeforeCON	acq_US_pleas_masked	acq1_masked	1	10	0	0	300	300	0	0	1171	50	0	1	0	0	0	1	blank2r.bmp	0	1	+	0	7	C3r.bmp	492	1	blank2r.bmp	786	1	GKQX	786	1	blank2r.bmp	866	1	spielen	866	0	0	0	0	0	0	0	0	0	0	0	0	0	0	0	0	0	0	0	0	0	0	0	0	0	0	0	0	0	0	0	0	0
010919	09:08:22	09:12:50	265783	5.0.10.0	4_exp_EVA_AMP_AWA_CON	50	Rpleas_acq	Same	Rpleas	Bmasked	CS_B	2pleas	distractor1	EVAbeforeCON	acq_new_pleas_masked	acq1_masked	1	11	0	0	300	300	0	0	642	50	0	1	0	0	0	1	blank2r.bmp	0	1	+	0	5	C1r.bmp	492	1	blank2r.bmp	786	2	B2r.bmp	786	1	blank2r.bmp	866	2	retten	866	0	0	0	0	0	0	0	0	0	0	0	0	0	0	0	0	0	0	0	0	0	0	0	0	0	0	0	0	0	0	0	0	0
010919	09:08:22	09:12:52	267942	5.0.10.0	4_exp_EVA_AMP_AWA_CON	50	Rpleas_acq	Same	Rpleas	Bmasked	CS_B	2pleas	distractor1	EVAbeforeCON	acq_US_pleas_masked	acq1_masked	1	12	0	0	300	300	0	0	682	50	0	1	0	0	0	1	blank2r.bmp	0	1	+	0	8	C4r.bmp	492	1	blank2r.bmp	786	1	GKQX	786	1	blank2r.bmp	866	5	lachen	866	0	0	0	0	0	0	0	0	0	0	0	0	0	0	0	0	0	0	0	0	0	0	0	0	0	0	0	0	0	0	0	0	0
010919	09:08:22	09:12:55	270754	5.0.10.0	4_exp_EVA_AMP_AWA_CON	50	Rpleas_acq	Same	Rpleas	Bmasked	CS_B	2pleas	distractor1	EVAbeforeCON	acq_new_pleas_masked	acq1_masked	1	13	0	0	300	300	0	0	1320	50	0	1	0	0	0	1	blank2r.bmp	0	1	+	0	2	B2r.bmp	492	1	blank2r.bmp	786	1	B1r.bmp	786	1	blank2r.bmp	866	4	ehrlich	866	0	0	0	0	0	0	0	0	0	0	0	0	0	0	0	0	0	0	0	0	0	0	0	0	0	0	0	0	0	0	0	0	0
010919	09:08:22	09:12:57	272780	5.0.10.0	4_exp_EVA_AMP_AWA_CON	50	Rpleas_acq	Same	Rpleas	Bmasked	CS_B	2pleas	distractor1	EVAbeforeCON	acq_US_pleas_masked	acq1_masked	1	14	0	0	300	300	0	0	544	50	0	1	0	0	0	1	blank2r.bmp	0	1	+	0	3	B3r.bmp	492	1	blank2r.bmp	786	1	GKQX	786	1	blank2r.bmp	866	2	loyal	866	0	0	0	0	0	0	0	0	0	0	0	0	0	0	0	0	0	0	0	0	0	0	0	0	0	0	0	0	0	0	0	0	0
010919	09:08:22	09:12:59	274872	5.0.10.0	4_exp_EVA_AMP_AWA_CON	50	Rpleas_acq	Same	Rpleas	Bmasked	CS_B	2pleas	distractor1	EVAbeforeCON	acq_new_pleas_masked	acq1_masked	1	15	0	0	300	300	0	0	601	50	0	1	0	0	0	1	blank2r.bmp	0	1	+	0	6	C2r.bmp	492	1	blank2r.bmp	786	5	C1r.bmp	786	1	blank2r.bmp	866	6	treu	866	0	0	0	0	0	0	0	0	0	0	0	0	0	0	0	0	0	0	0	0	0	0	0	0	0	0	0	0	0	0	0	0	0
010919	09:08:22	09:13:02	277205	5.0.10.0	4_exp_EVA_AMP_AWA_CON	50	Rpleas_acq	Same	Rpleas	Bmasked	CS_B	2pleas	distractor1	EVAbeforeCON	acq_new_unple_masked	acq1_masked	1	16	0	0	300	300	0	0	840	46	0	1	0	0	0	1	blank2r.bmp	0	1	+	0	1	B1r.bmp	492	1	blank2r.bmp	786	4	B4r.bmp	786	1	blank2r.bmp	866	5	schroff	866	0	0	0	0	0	0	0	0	0	0	0	0	0	0	0	0	0	0	0	0	0	0	0	0	0	0	0	0	0	0	0	0	0
010919	09:08:22	09:13:04	279430	5.0.10.0	4_exp_EVA_AMP_AWA_CON	50	Rpleas_acq	Same	Rpleas	Bmasked	CS_B	2pleas	distractor1	EVAbeforeCON	acq_new_pleas_masked	acq1_masked	1	17	0	0	300	300	0	0	744	50	0	1	0	0	0	1	blank2r.bmp	0	1	+	0	3	B3r.bmp	492	1	blank2r.bmp	786	6	C2r.bmp	786	1	blank2r.bmp	866	1	fair	866	0	0	0	0	0	0	0	0	0	0	0	0	0	0	0	0	0	0	0	0	0	0	0	0	0	0	0	0	0	0	0	0	0
010919	09:08:22	09:13:06	281616	5.0.10.0	4_exp_EVA_AMP_AWA_CON	50	Rpleas_acq	Same	Rpleas	Bmasked	CS_B	2pleas	distractor1	EVAbeforeCON	acq_US_pleas_masked	acq1_masked	1	18	0	0	300	300	0	0	717	50	0	1	0	0	0	1	blank2r.bmp	0	1	+	0	8	C4r.bmp	492	1	blank2r.bmp	786	1	GKQX	786	1	blank2r.bmp	866	6	helfen	866	0	0	0	0	0	0	0	0	0	0	0	0	0	0	0	0	0	0	0	0	0	0	0	0	0	0	0	0	0	0	0	0	0
010919	09:08:22	09:13:08	283829	5.0.10.0	4_exp_EVA_AMP_AWA_CON	50	Rpleas_acq	Same	Rpleas	Bmasked	CS_B	2pleas	distractor1	EVAbeforeCON	acq_US_pleas_masked	acq1_masked	1	19	0	0	300	300	0	0	726	50	0	1	0	0	0	1	blank2r.bmp	0	1	+	0	6	C2r.bmp	492	1	blank2r.bmp	786	1	GKQX	786	1	blank2r.bmp	866	4	freundlich	866	0	0	0	0	0	0	0	0	0	0	0	0	0	0	0	0	0	0	0	0	0	0	0	0	0	0	0	0	0	0	0	0	0
010919	09:08:22	09:13:10	286121	5.0.10.0	4_exp_EVA_AMP_AWA_CON	50	Rpleas_acq	Same	Rpleas	Bmasked	CS_B	2pleas	distractor1	EVAbeforeCON	acq_new_unple_masked	acq1_masked	1	20	0	0	300	300	0	0	586	50	0	0	0	0	0	1	blank2r.bmp	0	1	+	0	5	C1r.bmp	492	1	blank2r.bmp	786	2	B2r.bmp	786	1	blank2r.bmp	866	1	faul	866	1	FEHLER	1492	0	0	0	0	0	0	0	0	0	0	0	0	0	0	0	0	0	0	0	0	0	0	0	0	0	0	0	0	0	0
010919	09:08:22	09:13:13	288227	5.0.10.0	4_exp_EVA_AMP_AWA_CON	50	Rpleas_acq	Same	Rpleas	Bmasked	CS_B	2pleas	distractor1	EVAbeforeCON	acq_new_unple_masked	acq1_masked	1	21	0	0	300	300	0	0	849	46	0	1	0	0	0	1	blank2r.bmp	0	1	+	0	7	C3r.bmp	492	1	blank2r.bmp	786	5	C1r.bmp	786	1	blank2r.bmp	866	6	tot	866	0	0	0	0	0	0	0	0	0	0	0	0	0	0	0	0	0	0	0	0	0	0	0	0	0	0	0	0	0	0	0	0	0
010919	09:08:22	09:13:15	290413	5.0.10.0	4_exp_EVA_AMP_AWA_CON	50	Rpleas_acq	Same	Rpleas	Bmasked	CS_B	2pleas	distractor1	EVAbeforeCON	acq_US_unple_masked	acq1_masked	1	22	0	0	300	300	0	0	704	46	0	1	0	0	0	1	blank2r.bmp	0	1	+	0	1	B1r.bmp	492	1	blank2r.bmp	786	1	BMVZ	786	1	blank2r.bmp	866	3	tyrannisch	866	0	0	0	0	0	0	0	0	0	0	0	0	0	0	0	0	0	0	0	0	0	0	0	0	0	0	0	0	0	0	0	0	0
010919	09:08:22	09:13:17	293091	5.0.10.0	4_exp_EVA_AMP_AWA_CON	50	Rpleas_acq	Same	Rpleas	Bmasked	CS_B	2pleas	distractor1	EVAbeforeCON	acq_US_unple_masked	acq1_masked	1	23	0	0	300	300	0	0	1000	50	0	0	0	0	0	1	blank2r.bmp	0	1	+	0	4	B4r.bmp	492	1	blank2r.bmp	786	1	BMVZ	786	1	blank2r.bmp	866	4	fanatisch	866	1	FEHLER	1905	0	0	0	0	0	0	0	0	0	0	0	0	0	0	0	0	0	0	0	0	0	0	0	0	0	0	0	0	0	0
010919	09:08:22	09:13:20	295210	5.0.10.0	4_exp_EVA_AMP_AWA_CON	50	Rpleas_acq	Same	Rpleas	Bmasked	CS_B	2pleas	distractor1	EVAbeforeCON	acq_US_unple_masked	acq1_masked	1	24	0	0	300	300	0	0	834	46	0	1	0	0	0	1	blank2r.bmp	0	1	+	0	2	B2r.bmp	492	1	blank2r.bmp	786	1	BMVZ	786	1	blank2r.bmp	866	5	leiden	866	0	0	0	0	0	0	0	0	0	0	0	0	0	0	0	0	0	0	0	0	0	0	0	0	0	0	0	0	0	0	0	0	0
010919	09:08:22	09:13:22	297450	5.0.10.0	4_exp_EVA_AMP_AWA_CON	50	Rpleas_acq	Same	Rpleas	Bmasked	CS_B	2pleas	distractor1	EVAbeforeCON	acq_US_pleas_masked	acq1_masked	1	25	0	0	300	300	0	0	751	50	0	1	0	0	0	1	blank2r.bmp	0	1	+	0	8	C4r.bmp	492	1	blank2r.bmp	786	1	GKQX	786	1	blank2r.bmp	866	5	lachen	866	0	0	0	0	0	0	0	0	0	0	0	0	0	0	0	0	0	0	0	0	0	0	0	0	0	0	0	0	0	0	0	0	0
010919	09:08:22	09:13:24	299902	5.0.10.0	4_exp_EVA_AMP_AWA_CON	50	Rpleas_acq	Same	Rpleas	Bmasked	CS_B	2pleas	distractor1	EVAbeforeCON	acq_new_unple_masked	acq1_masked	1	26	0	0	300	300	0	0	974	46	0	1	0	0	0	1	blank2r.bmp	0	1	+	0	2	B2r.bmp	492	1	blank2r.bmp	786	7	C3r.bmp	786	1	blank2r.bmp	866	3	schlecht	866	0	0	0	0	0	0	0	0	0	0	0	0	0	0	0	0	0	0	0	0	0	0	0	0	0	0	0	0	0	0	0	0	0
010919	09:08:22	09:13:27	302647	5.0.10.0	4_exp_EVA_AMP_AWA_CON	50	Rpleas_acq	Same	Rpleas	Bmasked	CS_B	2pleas	distractor1	EVAbeforeCON	acq_new_pleas_masked	acq1_masked	1	27	0	0	300	300	0	0	1270	50	0	1	0	0	0	1	blank2r.bmp	0	1	+	0	7	C3r.bmp	492	1	blank2r.bmp	786	8	C4r.bmp	786	1	blank2r.bmp	866	6	treu	866	0	0	0	0	0	0	0	0	0	0	0	0	0	0	0	0	0	0	0	0	0	0	0	0	0	0	0	0	0	0	0	0	0
010919	09:08:22	09:13:29	304767	5.0.10.0	4_exp_EVA_AMP_AWA_CON	50	Rpleas_acq	Same	Rpleas	Bmasked	CS_B	2pleas	distractor1	EVAbeforeCON	acq_US_pleas_masked	acq1_masked	1	28	0	0	300	300	0	0	641	50	0	1	0	0	0	1	blank2r.bmp	0	1	+	0	1	B1r.bmp	492	1	blank2r.bmp	786	1	GKQX	786	1	blank2r.bmp	866	6	helfen	866	0	0	0	0	0	0	0	0	0	0	0	0	0	0	0	0	0	0	0	0	0	0	0	0	0	0	0	0	0	0	0	0	0
010919	09:08:22	09:13:32	307219	5.0.10.0	4_exp_EVA_AMP_AWA_CON	50	Rpleas_acq	Same	Rpleas	Bmasked	CS_B	2pleas	distractor1	EVAbeforeCON	acq_US_unple_masked	acq1_masked	1	29	0	0	300	300	0	0	983	46	0	1	0	0	0	1	blank2r.bmp	0	1	+	0	4	B4r.bmp	492	1	blank2r.bmp	786	1	BMVZ	786	1	blank2r.bmp	866	2	lasch	866	0	0	0	0	0	0	0	0	0	0	0	0	0	0	0	0	0	0	0	0	0	0	0	0	0	0	0	0	0	0	0	0	0
010919	09:08:22	09:13:34	309311	5.0.10.0	4_exp_EVA_AMP_AWA_CON	50	Rpleas_acq	Same	Rpleas	Bmasked	CS_B	2pleas	distractor1	EVAbeforeCON	acq_new_pleas_masked	acq1_masked	1	30	0	0	300	300	0	0	610	50	0	1	0	0	0	1	blank2r.bmp	0	1	+	0	3	B3r.bmp	492	1	blank2r.bmp	786	1	B1r.bmp	786	1	blank2r.bmp	866	3	schön	866	0	0	0	0	0	0	0	0	0	0	0	0	0	0	0	0	0	0	0	0	0	0	0	0	0	0	0	0	0	0	0	0	0
010919	09:08:22	09:13:36	311417	5.0.10.0	4_exp_EVA_AMP_AWA_CON	50	Rpleas_acq	Same	Rpleas	Bmasked	CS_B	2pleas	distractor1	EVAbeforeCON	acq_new_unple_masked	acq1_masked	1	31	0	0	300	300	0	0	624	46	0	1	0	0	0	1	blank2r.bmp	0	1	+	0	5	C1r.bmp	492	1	blank2r.bmp	786	3	B3r.bmp	786	1	blank2r.bmp	866	6	tot	866	0	0	0	0	0	0	0	0	0	0	0	0	0	0	0	0	0	0	0	0	0	0	0	0	0	0	0	0	0	0	0	0	0
010919	09:08:22	09:13:38	313683	5.0.10.0	4_exp_EVA_AMP_AWA_CON	50	Rpleas_acq	Same	Rpleas	Bmasked	CS_B	2pleas	distractor1	EVAbeforeCON	acq_US_unple_masked	acq1_masked	1	32	0	0	300	300	0	0	773	46	0	1	0	0	0	1	blank2r.bmp	0	1	+	0	6	C2r.bmp	492	1	blank2r.bmp	786	1	BMVZ	786	1	blank2r.bmp	866	1	strafen	866	0	0	0	0	0	0	0	0	0	0	0	0	0	0	0	0	0	0	0	0	0	0	0	0	0	0	0	0	0	0	0	0	0
010919	09:08:22	09:13:40	315895	5.0.10.0	4_exp_EVA_AMP_AWA_CON	50	Rpleas_acq	Same	Rpleas	Bmasked	CS_B	2pleas	distractor1	EVAbeforeCON	acq_new_pleas_masked	acq1_masked	1	33	0	0	300	300	0	0	738	50	0	1	0	0	0	1	blank2r.bmp	0	1	+	0	6	C2r.bmp	492	1	blank2r.bmp	786	1	B1r.bmp	786	1	blank2r.bmp	866	1	fair	866	0	0	0	0	0	0	0	0	0	0	0	0	0	0	0	0	0	0	0	0	0	0	0	0	0	0	0	0	0	0	0	0	0
010919	09:08:22	09:13:42	317961	5.0.10.0	4_exp_EVA_AMP_AWA_CON	50	Rpleas_acq	Same	Rpleas	Bmasked	CS_B	2pleas	distractor1	EVAbeforeCON	acq_US_pleas_masked	acq1_masked	1	34	0	0	300	300	0	0	576	50	0	1	0	0	0	1	blank2r.bmp	0	1	+	0	4	B4r.bmp	492	1	blank2r.bmp	786	1	GKQX	786	1	blank2r.bmp	866	4	freundlich	866	0	0	0	0	0	0	0	0	0	0	0	0	0	0	0	0	0	0	0	0	0	0	0	0	0	0	0	0	0	0	0	0	0
010919	09:08:22	09:13:45	320254	5.0.10.0	4_exp_EVA_AMP_AWA_CON	50	Rpleas_acq	Same	Rpleas	Bmasked	CS_B	2pleas	distractor1	EVAbeforeCON	acq_US_unple_masked	acq1_masked	1	35	0	0	300	300	0	0	814	46	0	1	0	0	0	1	blank2r.bmp	0	1	+	0	7	C3r.bmp	492	1	blank2r.bmp	786	1	BMVZ	786	1	blank2r.bmp	866	5	leiden	866	0	0	0	0	0	0	0	0	0	0	0	0	0	0	0	0	0	0	0	0	0	0	0	0	0	0	0	0	0	0	0	0	0
010919	09:08:22	09:13:47	322546	5.0.10.0	4_exp_EVA_AMP_AWA_CON	50	Rpleas_acq	Same	Rpleas	Bmasked	CS_B	2pleas	distractor1	EVAbeforeCON	acq_new_unple_masked	acq1_masked	1	36	0	0	300	300	0	0	810	46	0	1	0	0	0	1	blank2r.bmp	0	1	+	0	3	B3r.bmp	492	1	blank2r.bmp	786	4	B4r.bmp	786	1	blank2r.bmp	866	2	rächen	866	0	0	0	0	0	0	0	0	0	0	0	0	0	0	0	0	0	0	0	0	0	0	0	0	0	0	0	0	0	0	0	0	0
010919	09:08:22	09:15:09	404579	5.0.10.0	4_exp_EVA_AMP_AWA_CON	50	Rpleas_acq	Same	Rpleas	Bmasked	CS_B	2pleas	distractor1	EVAbeforeCON	acq_US_unple_masked	acq2_masked	2	1	480	0	300	300	0	0	22097	46	0	1	0	0	0	1	blank2r.bmp	0	1	+	0	8	C4r.bmp	492	1	blank2r.bmp	786	1	BMVZ	786	1	blank2r.bmp	866	4	fanatisch	866	1	!	1319	1	!	-1	0	0	0	0	0	0	0	0	0	0	0	0	0	0	0	0	0	0	0	0	0	0	0	0	0	0	0
010919	09:08:22	09:15:12	407577	5.0.10.0	4_exp_EVA_AMP_AWA_CON	50	Rpleas_acq	Same	Rpleas	Bmasked	CS_B	2pleas	distractor1	EVAbeforeCON	acq_new_pleas_masked	acq2_masked	2	2	480	0	300	300	0	0	1216	50	0	1	0	0	0	1	blank2r.bmp	0	1	+	0	5	C1r.bmp	492	1	blank2r.bmp	786	2	B2r.bmp	786	1	blank2r.bmp	866	2	retten	866	1	!	1319	1	!	-1	0	0	0	0	0	0	0	0	0	0	0	0	0	0	0	0	0	0	0	0	0	0	0	0	0	0	0
010919	09:08:22	09:15:15	410683	5.0.10.0	4_exp_EVA_AMP_AWA_CON	50	Rpleas_acq	Same	Rpleas	Bmasked	CS_B	2pleas	distractor1	EVAbeforeCON	acq_new_unple_masked	acq2_masked	2	3	480	0	300	300	0	0	1318	46	0	1	0	0	0	1	blank2r.bmp	0	1	+	0	1	B1r.bmp	492	1	blank2r.bmp	786	5	C1r.bmp	786	1	blank2r.bmp	866	4	eitel	866	1	!	1319	1	!	-1	0	0	0	0	0	0	0	0	0	0	0	0	0	0	0	0	0	0	0	0	0	0	0	0	0	0	0
010919	09:08:22	09:15:17	413082	5.0.10.0	4_exp_EVA_AMP_AWA_CON	50	Rpleas_acq	Same	Rpleas	Bmasked	CS_B	2pleas	distractor1	EVAbeforeCON	acq_US_pleas_masked	acq2_masked	2	4	480	0	300	300	0	0	613	50	0	1	0	0	0	1	blank2r.bmp	0	1	+	0	2	B2r.bmp	492	1	blank2r.bmp	786	1	GKQX	786	1	blank2r.bmp	866	2	loyal	866	1	!	1319	1	!	-1	0	0	0	0	0	0	0	0	0	0	0	0	0	0	0	0	0	0	0	0	0	0	0	0	0	0	0
010919	09:08:22	09:15:20	415361	5.0.10.0	4_exp_EVA_AMP_AWA_CON	50	Rpleas_acq	Same	Rpleas	Bmasked	CS_B	2pleas	distractor1	EVAbeforeCON	acq_new_pleas_masked	acq2_masked	2	5	480	1	300	300	0	0	475	50	0	1	0	0	0	1	blank2r.bmp	0	1	+	0	3	B3r.bmp	492	1	blank2r.bmp	786	6	C2r.bmp	786	1	blank2r.bmp	866	4	ehrlich	866	1	!	1319	1	!	1372	0	0	0	0	0	0	0	0	0	0	0	0	0	0	0	0	0	0	0	0	0	0	0	0	0	0	0
010919	09:08:22	09:15:22	417640	5.0.10.0	4_exp_EVA_AMP_AWA_CON	50	Rpleas_acq	Same	Rpleas	Bmasked	CS_B	2pleas	distractor1	EVAbeforeCON	acq_new_pleas_masked	acq2_masked	2	6	480	1	300	300	0	0	480	50	0	1	0	0	0	1	blank2r.bmp	0	1	+	0	6	C2r.bmp	492	1	blank2r.bmp	786	8	C4r.bmp	786	1	blank2r.bmp	866	5	schlau	866	1	!	1319	1	!	1386	0	0	0	0	0	0	0	0	0	0	0	0	0	0	0	0	0	0	0	0	0	0	0	0	0	0	0
010919	09:08:22	09:15:24	419959	5.0.10.0	4_exp_EVA_AMP_AWA_CON	50	Rpleas_acq	Same	Rpleas	Bmasked	CS_B	2pleas	distractor1	EVAbeforeCON	acq_US_unple_masked	acq2_masked	2	7	480	1	300	300	0	0	523	46	0	1	0	0	0	1	blank2r.bmp	0	1	+	0	8	C4r.bmp	492	1	blank2r.bmp	786	1	BMVZ	786	1	blank2r.bmp	866	6	hindern	866	1	!	1319	1	!	1426	0	0	0	0	0	0	0	0	0	0	0	0	0	0	0	0	0	0	0	0	0	0	0	0	0	0	0
010919	09:08:22	09:15:27	422518	5.0.10.0	4_exp_EVA_AMP_AWA_CON	50	Rpleas_acq	Same	Rpleas	Bmasked	CS_B	2pleas	distractor1	EVAbeforeCON	acq_US_unple_masked	acq2_masked	2	8	480	0	300	300	0	0	568	50	0	0	0	0	0	1	blank2r.bmp	0	1	+	0	1	B1r.bmp	492	1	blank2r.bmp	786	1	BMVZ	786	1	blank2r.bmp	866	3	tyrannisch	866	1	FEHLER	1772	1	!	1319	1	!	-1	0	0	0	0	0	0	0	0	0	0	0	0	0	0	0	0	0	0	0	0	0	0	0	0
010919	09:08:22	09:15:29	424864	5.0.10.0	4_exp_EVA_AMP_AWA_CON	50	Rpleas_acq	Same	Rpleas	Bmasked	CS_B	2pleas	distractor1	EVAbeforeCON	acq_new_unple_masked	acq2_masked	2	9	480	0	300	300	0	0	567	50	0	0	0	0	0	1	blank2r.bmp	0	1	+	0	5	C1r.bmp	492	1	blank2r.bmp	786	7	C3r.bmp	786	1	blank2r.bmp	866	5	schroff	866	1	FEHLER	1772	1	!	1319	1	!	-1	0	0	0	0	0	0	0	0	0	0	0	0	0	0	0	0	0	0	0	0	0	0	0	0
010919	09:08:22	09:15:31	426983	5.0.10.0	4_exp_EVA_AMP_AWA_CON	50	Rpleas_acq	Same	Rpleas	Bmasked	CS_B	2pleas	distractor1	EVAbeforeCON	acq_new_unple_masked	acq2_masked	2	10	480	1	300	300	0	0	541	46	0	1	0	0	0	1	blank2r.bmp	0	1	+	0	4	B4r.bmp	492	1	blank2r.bmp	786	3	B3r.bmp	786	1	blank2r.bmp	866	1	faul	866	1	!	1319	1	!	1439	0	0	0	0	0	0	0	0	0	0	0	0	0	0	0	0	0	0	0	0	0	0	0	0	0	0	0
010919	09:08:22	09:15:34	429448	5.0.10.0	4_exp_EVA_AMP_AWA_CON	50	Rpleas_acq	Same	Rpleas	Bmasked	CS_B	2pleas	distractor1	EVAbeforeCON	acq_US_pleas_masked	acq2_masked	2	11	480	1	300	300	0	0	459	46	0	0	0	0	0	1	blank2r.bmp	0	1	+	0	7	C3r.bmp	492	1	blank2r.bmp	786	1	GKQX	786	1	blank2r.bmp	866	1	spielen	866	1	FEHLER	1679	1	!	1319	1	!	1359	0	0	0	0	0	0	0	0	0	0	0	0	0	0	0	0	0	0	0	0	0	0	0	0
010919	09:08:22	09:15:36	431621	5.0.10.0	4_exp_EVA_AMP_AWA_CON	50	Rpleas_acq	Same	Rpleas	Bmasked	CS_B	2pleas	distractor1	EVAbeforeCON	acq_US_pleas_masked	acq2_masked	2	12	480	0	300	300	0	0	618	50	0	1	0	0	0	1	blank2r.bmp	0	1	+	0	2	B2r.bmp	492	1	blank2r.bmp	786	1	GKQX	786	1	blank2r.bmp	866	3	tolerant	866	1	!	1319	1	!	-1	0	0	0	0	0	0	0	0	0	0	0	0	0	0	0	0	0	0	0	0	0	0	0	0	0	0	0
010919	09:08:22	09:15:38	433807	5.0.10.0	4_exp_EVA_AMP_AWA_CON	50	Rpleas_acq	Same	Rpleas	Bmasked	CS_B	2pleas	distractor1	EVAbeforeCON	acq_US_pleas_masked	acq2_masked	2	13	480	0	300	300	0	0	402	50	0	1	0	0	0	1	blank2r.bmp	0	1	+	0	6	C2r.bmp	492	1	blank2r.bmp	786	1	GKQX	786	1	blank2r.bmp	866	1	spielen	866	1	!	-1	1	!	-1	0	0	0	0	0	0	0	0	0	0	0	0	0	0	0	0	0	0	0	0	0	0	0	0	0	0	0
010919	09:08:22	09:15:41	436312	5.0.10.0	4_exp_EVA_AMP_AWA_CON	50	Rpleas_acq	Same	Rpleas	Bmasked	CS_B	2pleas	distractor1	EVAbeforeCON	acq_new_unple_masked	acq2_masked	2	14	480	1	300	300	0	0	475	50	0	0	0	0	0	1	blank2r.bmp	0	1	+	0	4	B4r.bmp	492	1	blank2r.bmp	786	3	B3r.bmp	786	1	blank2r.bmp	866	2	rächen	866	1	FEHLER	1692	1	!	1319	1	!	1372	0	0	0	0	0	0	0	0	0	0	0	0	0	0	0	0	0	0	0	0	0	0	0	0
010919	09:08:22	09:15:43	438431	5.0.10.0	4_exp_EVA_AMP_AWA_CON	50	Rpleas_acq	Same	Rpleas	Bmasked	CS_B	2pleas	distractor1	EVAbeforeCON	acq_US_unple_masked	acq2_masked	2	15	480	0	300	300	0	0	337	50	0	0	0	0	0	1	blank2r.bmp	0	1	+	0	3	B3r.bmp	492	1	blank2r.bmp	786	1	BMVZ	786	1	blank2r.bmp	866	1	strafen	866	1	FEHLER	1546	1	!	-1	1	!	-1	0	0	0	0	0	0	0	0	0	0	0	0	0	0	0	0	0	0	0	0	0	0	0	0
010919	09:08:22	09:15:45	440644	5.0.10.0	4_exp_EVA_AMP_AWA_CON	50	Rpleas_acq	Same	Rpleas	Bmasked	CS_B	2pleas	distractor1	EVAbeforeCON	acq_new_unple_masked	acq2_masked	2	16	480	0	300	300	0	0	644	46	0	1	0	0	0	1	blank2r.bmp	0	1	+	0	1	B1r.bmp	492	1	blank2r.bmp	786	8	C4r.bmp	786	1	blank2r.bmp	866	5	schroff	866	1	!	1319	1	!	-1	0	0	0	0	0	0	0	0	0	0	0	0	0	0	0	0	0	0	0	0	0	0	0	0	0	0	0
010919	09:08:22	09:15:47	443056	5.0.10.0	4_exp_EVA_AMP_AWA_CON	50	Rpleas_acq	Same	Rpleas	Bmasked	CS_B	2pleas	distractor1	EVAbeforeCON	acq_new_unple_masked	acq2_masked	2	17	480	0	300	300	0	0	398	50	0	0	0	0	0	1	blank2r.bmp	0	1	+	0	5	C1r.bmp	492	1	blank2r.bmp	786	6	C2r.bmp	786	1	blank2r.bmp	866	4	eitel	866	1	FEHLER	1612	1	!	-1	1	!	-1	0	0	0	0	0	0	0	0	0	0	0	0	0	0	0	0	0	0	0	0	0	0	0	0
010919	09:08:22	09:15:49	445002	5.0.10.0	4_exp_EVA_AMP_AWA_CON	50	Rpleas_acq	Same	Rpleas	Bmasked	CS_B	2pleas	distractor1	EVAbeforeCON	acq_new_pleas_masked	acq2_masked	2	18	480	0	300	300	0	0	395	50	0	1	0	0	0	1	blank2r.bmp	0	1	+	0	2	B2r.bmp	492	1	blank2r.bmp	786	1	B1r.bmp	786	1	blank2r.bmp	866	3	schön	866	1	!	-1	1	!	-1	0	0	0	0	0	0	0	0	0	0	0	0	0	0	0	0	0	0	0	0	0	0	0	0	0	0	0
010919	09:08:22	09:15:52	447281	5.0.10.0	4_exp_EVA_AMP_AWA_CON	50	Rpleas_acq	Same	Rpleas	Bmasked	CS_B	2pleas	distractor1	EVAbeforeCON	acq_new_pleas_masked	acq2_masked	2	19	480	1	300	300	0	0	472	50	0	1	0	0	0	1	blank2r.bmp	0	1	+	0	8	C4r.bmp	492	1	blank2r.bmp	786	7	C3r.bmp	786	1	blank2r.bmp	866	2	retten	866	1	!	1319	1	!	1372	0	0	0	0	0	0	0	0	0	0	0	0	0	0	0	0	0	0	0	0	0	0	0	0	0	0	0
010919	09:08:22	09:15:54	449374	5.0.10.0	4_exp_EVA_AMP_AWA_CON	50	Rpleas_acq	Same	Rpleas	Bmasked	CS_B	2pleas	distractor1	EVAbeforeCON	acq_US_pleas_masked	acq2_masked	2	20	480	0	300	300	0	0	305	50	0	1	0	0	0	1	blank2r.bmp	0	1	+	0	7	C3r.bmp	492	1	blank2r.bmp	786	1	GKQX	786	1	blank2r.bmp	866	2	loyal	866	1	!	-1	1	!	-1	0	0	0	0	0	0	0	0	0	0	0	0	0	0	0	0	0	0	0	0	0	0	0	0	0	0	0
010919	09:08:22	09:16:00	455864	5.0.10.0	4_exp_EVA_AMP_AWA_CON	50	Rpleas_acq	Same	Rpleas	Bmasked	CS_B	2pleas	distractor1	EVAbeforeCON	acq_US_unple_masked	acq2_masked	2	21	480	0	300	300	0	0	4479	50	0	0	0	0	0	1	blank2r.bmp	0	1	+	0	8	C4r.bmp	492	1	blank2r.bmp	786	1	BMVZ	786	1	blank2r.bmp	866	3	tyrannisch	866	1	FEHLER	5690	1	!	1319	1	!	-1	0	0	0	0	0	0	0	0	0	0	0	0	0	0	0	0	0	0	0	0	0	0	0	0
010919	09:08:22	09:16:02	458103	5.0.10.0	4_exp_EVA_AMP_AWA_CON	50	Rpleas_acq	Same	Rpleas	Bmasked	CS_B	2pleas	distractor1	EVAbeforeCON	acq_new_pleas_masked	acq2_masked	2	22	480	0	300	300	0	0	684	50	0	1	0	0	0	1	blank2r.bmp	0	1	+	0	1	B1r.bmp	492	1	blank2r.bmp	786	2	B2r.bmp	786	1	blank2r.bmp	866	4	ehrlich	866	1	!	1319	1	!	-1	0	0	0	0	0	0	0	0	0	0	0	0	0	0	0	0	0	0	0	0	0	0	0	0	0	0	0
010919	09:08:22	09:16:05	460449	5.0.10.0	4_exp_EVA_AMP_AWA_CON	50	Rpleas_acq	Same	Rpleas	Bmasked	CS_B	2pleas	distractor1	EVAbeforeCON	acq_US_unple_masked	acq2_masked	2	23	480	1	300	300	0	0	543	46	0	1	0	0	0	1	blank2r.bmp	0	1	+	0	4	B4r.bmp	492	1	blank2r.bmp	786	1	BMVZ	786	1	blank2r.bmp	866	4	fanatisch	866	1	!	1319	1	!	1439	0	0	0	0	0	0	0	0	0	0	0	0	0	0	0	0	0	0	0	0	0	0	0	0	0	0	0
010919	09:08:22	09:16:07	462835	5.0.10.0	4_exp_EVA_AMP_AWA_CON	50	Rpleas_acq	Same	Rpleas	Bmasked	CS_B	2pleas	distractor1	EVAbeforeCON	acq_US_pleas_masked	acq2_masked	2	24	480	0	300	300	0	0	600	50	0	1	0	0	0	1	blank2r.bmp	0	1	+	0	6	C2r.bmp	492	1	blank2r.bmp	786	1	GKQX	786	1	blank2r.bmp	866	6	helfen	866	1	!	1319	1	!	-1	0	0	0	0	0	0	0	0	0	0	0	0	0	0	0	0	0	0	0	0	0	0	0	0	0	0	0
010919	09:08:22	09:16:10	465394	5.0.10.0	4_exp_EVA_AMP_AWA_CON	50	Rpleas_acq	Same	Rpleas	Bmasked	CS_B	2pleas	distractor1	EVAbeforeCON	acq_new_unple_masked	acq2_masked	2	25	480	1	300	300	0	0	541	50	0	0	0	0	0	1	blank2r.bmp	0	1	+	0	3	B3r.bmp	492	1	blank2r.bmp	786	4	B4r.bmp	786	1	blank2r.bmp	866	1	faul	866	1	FEHLER	1759	1	!	1319	1	!	1439	0	0	0	0	0	0	0	0	0	0	0	0	0	0	0	0	0	0	0	0	0	0	0	0
010919	09:08:22	09:16:15	470552	5.0.10.0	4_exp_EVA_AMP_AWA_CON	50	Rpleas_acq	Same	Rpleas	Bmasked	CS_B	2pleas	distractor1	EVAbeforeCON	acq_new_pleas_masked	acq2_masked	2	26	480	0	300	300	0	0	3381	46	0	0	0	0	0	1	blank2r.bmp	0	1	+	0	5	C1r.bmp	492	1	blank2r.bmp	786	5	C1r.bmp	786	1	blank2r.bmp	866	6	treu	866	1	FEHLER	4584	1	!	1319	1	!	-1	0	0	0	0	0	0	0	0	0	0	0	0	0	0	0	0	0	0	0	0	0	0	0	0
010919	09:08:22	09:16:17	472977	5.0.10.0	4_exp_EVA_AMP_AWA_CON	50	Rpleas_acq	Same	Rpleas	Bmasked	CS_B	2pleas	distractor1	EVAbeforeCON	acq_US_pleas_masked	acq2_masked	2	27	480	0	300	300	0	0	634	46	0	0	0	0	0	1	blank2r.bmp	0	1	+	0	7	C3r.bmp	492	1	blank2r.bmp	786	1	GKQX	786	1	blank2r.bmp	866	3	tolerant	866	1	FEHLER	1839	1	!	1319	1	!	-1	0	0	0	0	0	0	0	0	0	0	0	0	0	0	0	0	0	0	0	0	0	0	0	0
010919	09:08:22	09:16:19	474990	5.0.10.0	4_exp_EVA_AMP_AWA_CON	50	Rpleas_acq	Same	Rpleas	Bmasked	CS_B	2pleas	distractor1	EVAbeforeCON	acq_US_pleas_masked	acq2_masked	2	28	480	1	300	300	0	0	432	50	0	1	0	0	0	1	blank2r.bmp	0	1	+	0	2	B2r.bmp	492	1	blank2r.bmp	786	1	GKQX	786	1	blank2r.bmp	866	5	lachen	866	1	!	1319	1	!	1332	0	0	0	0	0	0	0	0	0	0	0	0	0	0	0	0	0	0	0	0	0	0	0	0	0	0	0
010919	09:08:22	09:16:22	477482	5.0.10.0	4_exp_EVA_AMP_AWA_CON	50	Rpleas_acq	Same	Rpleas	Bmasked	CS_B	2pleas	distractor1	EVAbeforeCON	acq_new_unple_masked	acq2_masked	2	29	480	1	300	300	0	0	485	50	0	0	0	0	0	1	blank2r.bmp	0	1	+	0	1	B1r.bmp	492	1	blank2r.bmp	786	5	C1r.bmp	786	1	blank2r.bmp	866	3	schlecht	866	1	FEHLER	1705	1	!	1319	1	!	1386	0	0	0	0	0	0	0	0	0	0	0	0	0	0	0	0	0	0	0	0	0	0	0	0
010919	09:08:22	09:16:24	479548	5.0.10.0	4_exp_EVA_AMP_AWA_CON	50	Rpleas_acq	Same	Rpleas	Bmasked	CS_B	2pleas	distractor1	EVAbeforeCON	acq_new_unple_masked	acq2_masked	2	30	480	1	300	300	0	0	491	46	0	1	0	0	0	1	blank2r.bmp	0	1	+	0	8	C4r.bmp	492	1	blank2r.bmp	786	3	B3r.bmp	786	1	blank2r.bmp	866	6	tot	866	1	!	1319	1	!	1386	0	0	0	0	0	0	0	0	0	0	0	0	0	0	0	0	0	0	0	0	0	0	0	0	0	0	0
010919	09:08:22	09:16:26	481920	5.0.10.0	4_exp_EVA_AMP_AWA_CON	50	Rpleas_acq	Same	Rpleas	Bmasked	CS_B	2pleas	distractor1	EVAbeforeCON	acq_US_unple_masked	acq2_masked	2	31	480	0	300	300	0	0	383	50	0	0	0	0	0	1	blank2r.bmp	0	1	+	0	4	B4r.bmp	492	1	blank2r.bmp	786	1	BMVZ	786	1	blank2r.bmp	866	5	leiden	866	1	FEHLER	1586	1	!	-1	1	!	-1	0	0	0	0	0	0	0	0	0	0	0	0	0	0	0	0	0	0	0	0	0	0	0	0
010919	09:08:22	09:16:28	483853	5.0.10.0	4_exp_EVA_AMP_AWA_CON	50	Rpleas_acq	Same	Rpleas	Bmasked	CS_B	2pleas	distractor1	EVAbeforeCON	acq_US_unple_masked	acq2_masked	2	32	480	0	300	300	0	0	384	46	0	1	0	0	0	1	blank2r.bmp	0	1	+	0	3	B3r.bmp	492	1	blank2r.bmp	786	1	BMVZ	786	1	blank2r.bmp	866	2	lasch	866	1	!	-1	1	!	-1	0	0	0	0	0	0	0	0	0	0	0	0	0	0	0	0	0	0	0	0	0	0	0	0	0	0	0
010919	09:08:22	09:16:31	486172	5.0.10.0	4_exp_EVA_AMP_AWA_CON	50	Rpleas_acq	Same	Rpleas	Bmasked	CS_B	2pleas	distractor1	EVAbeforeCON	acq_US_pleas_masked	acq2_masked	2	33	480	1	300	300	0	0	506	50	0	1	0	0	0	1	blank2r.bmp	0	1	+	0	6	C2r.bmp	492	1	blank2r.bmp	786	1	GKQX	786	1	blank2r.bmp	866	4	freundlich	866	1	!	1319	1	!	1412	0	0	0	0	0	0	0	0	0	0	0	0	0	0	0	0	0	0	0	0	0	0	0	0	0	0	0
010919	09:08:22	09:16:33	488411	5.0.10.0	4_exp_EVA_AMP_AWA_CON	50	Rpleas_acq	Same	Rpleas	Bmasked	CS_B	2pleas	distractor1	EVAbeforeCON	acq_new_pleas_masked	acq2_masked	2	34	480	1	300	300	0	0	426	50	0	1	0	0	0	1	blank2r.bmp	0	1	+	0	5	C1r.bmp	492	1	blank2r.bmp	786	6	C2r.bmp	786	1	blank2r.bmp	866	1	fair	866	1	!	1319	1	!	1332	0	0	0	0	0	0	0	0	0	0	0	0	0	0	0	0	0	0	0	0	0	0	0	0	0	0	0
010919	09:08:22	09:16:35	490663	5.0.10.0	4_exp_EVA_AMP_AWA_CON	50	Rpleas_acq	Same	Rpleas	Bmasked	CS_B	2pleas	distractor1	EVAbeforeCON	acq_new_pleas_masked	acq2_masked	2	35	480	1	300	300	0	0	463	50	0	1	0	0	0	1	blank2r.bmp	0	1	+	0	2	B2r.bmp	492	1	blank2r.bmp	786	7	C3r.bmp	786	1	blank2r.bmp	866	5	schlau	866	1	!	1319	1	!	1359	0	0	0	0	0	0	0	0	0	0	0	0	0	0	0	0	0	0	0	0	0	0	0	0	0	0	0
010919	09:08:22	09:16:37	492702	5.0.10.0	4_exp_EVA_AMP_AWA_CON	50	Rpleas_acq	Same	Rpleas	Bmasked	CS_B	2pleas	distractor1	EVAbeforeCON	acq_US_unple_masked	acq2_masked	2	36	480	0	300	300	0	0	272	46	0	1	0	0	0	1	blank2r.bmp	0	1	+	0	7	C3r.bmp	492	1	blank2r.bmp	786	1	BMVZ	786	1	blank2r.bmp	866	6	hindern	866	1	!	-1	1	!	-1	0	0	0	0	0	0	0	0	0	0	0	0	0	0	0	0	0	0	0	0	0	0	0	0	0	0	0
010919	09:08:22	09:17:01	516852	5.0.10.0	4_exp_EVA_AMP_AWA_CON	50	Rpleas_acq	Same	Rpleas	Bmasked	CS_B	2pleas	distractor1	EVAbeforeCON	acq_US_unple_masked	acq3_masked	3	1	453	1	300	300	0	0	510	46	0	1	0	0	0	1	blank2r.bmp	0	1	+	0	3	B3r.bmp	492	1	blank2r.bmp	786	1	BMVZ	786	1	blank2r.bmp	866	5	leiden	866	1	!	1292	1	!	1412	0	0	0	0	0	0	0	0	0	0	0	0	0	0	0	0	0	0	0	0	0	0	0	0	0	0	0
010919	09:08:22	09:17:04	519278	5.0.10.0	4_exp_EVA_AMP_AWA_CON	50	Rpleas_acq	Same	Rpleas	Bmasked	CS_B	2pleas	distractor1	EVAbeforeCON	acq_US_pleas_masked	acq3_masked	3	2	453	1	300	300	0	0	418	46	0	0	0	0	0	1	blank2r.bmp	0	1	+	0	2	B2r.bmp	492	1	blank2r.bmp	786	1	GKQX	786	1	blank2r.bmp	866	1	spielen	866	1	FEHLER	1639	1	!	1292	1	!	1319	0	0	0	0	0	0	0	0	0	0	0	0	0	0	0	0	0	0	0	0	0	0	0	0
010919	09:08:22	09:17:06	521197	5.0.10.0	4_exp_EVA_AMP_AWA_CON	50	Rpleas_acq	Same	Rpleas	Bmasked	CS_B	2pleas	distractor1	EVAbeforeCON	acq_US_unple_masked	acq3_masked	3	3	453	0	300	300	0	0	365	46	0	1	0	0	0	1	blank2r.bmp	0	1	+	0	4	B4r.bmp	492	1	blank2r.bmp	786	1	BMVZ	786	1	blank2r.bmp	866	2	lasch	866	1	!	-1	1	!	-1	0	0	0	0	0	0	0	0	0	0	0	0	0	0	0	0	0	0	0	0	0	0	0	0	0	0	0
010919	09:08:22	09:17:08	523530	5.0.10.0	4_exp_EVA_AMP_AWA_CON	50	Rpleas_acq	Same	Rpleas	Bmasked	CS_B	2pleas	distractor1	EVAbeforeCON	acq_US_unple_masked	acq3_masked	3	4	453	1	300	300	0	0	517	46	0	1	0	0	0	1	blank2r.bmp	0	1	+	0	7	C3r.bmp	492	1	blank2r.bmp	786	1	BMVZ	786	1	blank2r.bmp	866	6	hindern	866	1	!	1292	1	!	1412	0	0	0	0	0	0	0	0	0	0	0	0	0	0	0	0	0	0	0	0	0	0	0	0	0	0	0
010919	09:08:22	09:17:10	525742	5.0.10.0	4_exp_EVA_AMP_AWA_CON	50	Rpleas_acq	Same	Rpleas	Bmasked	CS_B	2pleas	distractor1	EVAbeforeCON	acq_US_unple_masked	acq3_masked	3	5	453	1	300	300	0	0	421	46	0	1	0	0	0	1	blank2r.bmp	0	1	+	0	5	C1r.bmp	492	1	blank2r.bmp	786	1	BMVZ	786	1	blank2r.bmp	866	1	strafen	866	1	!	1292	1	!	1319	0	0	0	0	0	0	0	0	0	0	0	0	0	0	0	0	0	0	0	0	0	0	0	0	0	0	0
010919	09:08:22	09:17:12	527848	5.0.10.0	4_exp_EVA_AMP_AWA_CON	50	Rpleas_acq	Same	Rpleas	Bmasked	CS_B	2pleas	distractor1	EVAbeforeCON	acq_US_pleas_masked	acq3_masked	3	6	453	0	300	300	0	0	344	50	0	1	0	0	0	1	blank2r.bmp	0	1	+	0	1	B1r.bmp	492	1	blank2r.bmp	786	1	GKQX	786	1	blank2r.bmp	866	3	tolerant	866	1	!	-1	1	!	-1	0	0	0	0	0	0	0	0	0	0	0	0	0	0	0	0	0	0	0	0	0	0	0	0	0	0	0
010919	09:08:22	09:17:14	529940	5.0.10.0	4_exp_EVA_AMP_AWA_CON	50	Rpleas_acq	Same	Rpleas	Bmasked	CS_B	2pleas	distractor1	EVAbeforeCON	acq_US_pleas_masked	acq3_masked	3	7	453	0	300	300	0	0	308	50	0	1	0	0	0	1	blank2r.bmp	0	1	+	0	8	C4r.bmp	492	1	blank2r.bmp	786	1	GKQX	786	1	blank2r.bmp	866	4	freundlich	866	1	!	-1	1	!	-1	0	0	0	0	0	0	0	0	0	0	0	0	0	0	0	0	0	0	0	0	0	0	0	0	0	0	0
010919	09:08:22	09:17:16	532020	5.0.10.0	4_exp_EVA_AMP_AWA_CON	50	Rpleas_acq	Same	Rpleas	Bmasked	CS_B	2pleas	distractor1	EVAbeforeCON	acq_US_pleas_masked	acq3_masked	3	8	453	0	300	300	0	0	302	50	0	1	0	0	0	1	blank2r.bmp	0	1	+	0	6	C2r.bmp	492	1	blank2r.bmp	786	1	GKQX	786	1	blank2r.bmp	866	5	lachen	866	1	!	-1	1	!	-1	0	0	0	0	0	0	0	0	0	0	0	0	0	0	0	0	0	0	0	0	0	0	0	0	0	0	0
010919	09:08:22	09:17:18	534152	5.0.10.0	4_exp_EVA_AMP_AWA_CON	50	Rpleas_acq	Same	Rpleas	Bmasked	CS_B	2pleas	distractor1	EVAbeforeCON	acq_US_pleas_masked	acq3_masked	3	9	453	0	300	300	0	0	346	50	0	1	0	0	0	1	blank2r.bmp	0	1	+	0	5	C1r.bmp	492	1	blank2r.bmp	786	1	GKQX	786	1	blank2r.bmp	866	6	helfen	866	1	!	-1	1	!	-1	0	0	0	0	0	0	0	0	0	0	0	0	0	0	0	0	0	0	0	0	0	0	0	0	0	0	0
010919	09:08:22	09:17:21	536284	5.0.10.0	4_exp_EVA_AMP_AWA_CON	50	Rpleas_acq	Same	Rpleas	Bmasked	CS_B	2pleas	distractor1	EVAbeforeCON	acq_US_pleas_masked	acq3_masked	3	10	453	0	300	300	0	0	349	50	0	1	0	0	0	1	blank2r.bmp	0	1	+	0	1	B1r.bmp	492	1	blank2r.bmp	786	1	GKQX	786	1	blank2r.bmp	866	2	loyal	866	1	!	-1	1	!	-1	0	0	0	0	0	0	0	0	0	0	0	0	0	0	0	0	0	0	0	0	0	0	0	0	0	0	0
010919	09:08:22	09:17:23	538524	5.0.10.0	4_exp_EVA_AMP_AWA_CON	50	Rpleas_acq	Same	Rpleas	Bmasked	CS_B	2pleas	distractor1	EVAbeforeCON	acq_US_unple_masked	acq3_masked	3	11	453	0	300	300	0	0	230	50	0	0	0	0	0	1	blank2r.bmp	0	1	+	0	8	C4r.bmp	492	1	blank2r.bmp	786	1	BMVZ	786	1	blank2r.bmp	866	4	fanatisch	866	1	FEHLER	1439	1	!	-1	1	!	-1	0	0	0	0	0	0	0	0	0	0	0	0	0	0	0	0	0	0	0	0	0	0	0	0
010919	09:08:22	09:17:25	540616	5.0.10.0	4_exp_EVA_AMP_AWA_CON	50	Rpleas_acq	Same	Rpleas	Bmasked	CS_B	2pleas	distractor1	EVAbeforeCON	acq_US_unple_masked	acq3_masked	3	12	453	0	300	300	0	0	532	46	0	1	0	0	0	1	blank2r.bmp	0	1	+	0	2	B2r.bmp	492	1	blank2r.bmp	786	1	BMVZ	786	1	blank2r.bmp	866	3	tyrannisch	866	1	!	1292	1	!	-1	0	0	0	0	0	0	0	0	0	0	0	0	0	0	0	0	0	0	0	0	0	0	0	0	0	0	0
010919	09:08:22	09:17:27	542948	5.0.10.0	4_exp_EVA_AMP_AWA_CON	50	Rpleas_acq	Same	Rpleas	Bmasked	CS_B	2pleas	distractor1	EVAbeforeCON	acq_US_pleas_masked	acq3_masked	3	13	453	0	300	300	0	0	326	46	0	0	0	0	0	1	blank2r.bmp	0	1	+	0	6	C2r.bmp	492	1	blank2r.bmp	786	1	GKQX	786	1	blank2r.bmp	866	4	freundlich	866	1	FEHLER	1532	1	!	-1	1	!	-1	0	0	0	0	0	0	0	0	0	0	0	0	0	0	0	0	0	0	0	0	0	0	0	0
010919	09:08:22	09:17:29	545147	5.0.10.0	4_exp_EVA_AMP_AWA_CON	50	Rpleas_acq	Same	Rpleas	Bmasked	CS_B	2pleas	distractor1	EVAbeforeCON	acq_US_pleas_masked	acq3_masked	3	14	453	1	300	300	0	0	399	46	0	0	0	0	0	1	blank2r.bmp	0	1	+	0	7	C3r.bmp	492	1	blank2r.bmp	786	1	GKQX	786	1	blank2r.bmp	866	3	tolerant	866	1	FEHLER	1625	1	!	1292	1	!	1306	0	0	0	0	0	0	0	0	0	0	0	0	0	0	0	0	0	0	0	0	0	0	0	0
010919	09:08:22	09:17:33	548253	5.0.10.0	4_exp_EVA_AMP_AWA_CON	50	Rpleas_acq	Same	Rpleas	Bmasked	CS_B	2pleas	distractor1	EVAbeforeCON	acq_US_unple_masked	acq3_masked	3	15	453	0	300	300	0	0	1553	46	0	1	0	0	0	1	blank2r.bmp	0	1	+	0	4	B4r.bmp	492	1	blank2r.bmp	786	1	BMVZ	786	1	blank2r.bmp	866	1	strafen	866	1	!	1292	1	!	-1	0	0	0	0	0	0	0	0	0	0	0	0	0	0	0	0	0	0	0	0	0	0	0	0	0	0	0
010919	09:08:22	09:17:35	550505	5.0.10.0	4_exp_EVA_AMP_AWA_CON	50	Rpleas_acq	Same	Rpleas	Bmasked	CS_B	2pleas	distractor1	EVAbeforeCON	acq_US_pleas_masked	acq3_masked	3	16	453	1	300	300	0	0	449	50	0	1	0	0	0	1	blank2r.bmp	0	1	+	0	3	B3r.bmp	492	1	blank2r.bmp	786	1	GKQX	786	1	blank2r.bmp	866	2	loyal	866	1	!	1292	1	!	1346	0	0	0	0	0	0	0	0	0	0	0	0	0	0	0	0	0	0	0	0	0	0	0	0	0	0	0
010919	09:08:22	09:17:37	552624	5.0.10.0	4_exp_EVA_AMP_AWA_CON	50	Rpleas_acq	Same	Rpleas	Bmasked	CS_B	2pleas	distractor1	EVAbeforeCON	acq_US_pleas_masked	acq3_masked	3	17	453	0	300	300	0	0	345	50	0	1	0	0	0	1	blank2r.bmp	0	1	+	0	3	B3r.bmp	492	1	blank2r.bmp	786	1	GKQX	786	1	blank2r.bmp	866	5	lachen	866	1	!	-1	1	!	-1	0	0	0	0	0	0	0	0	0	0	0	0	0	0	0	0	0	0	0	0	0	0	0	0	0	0	0
010919	09:08:22	09:17:39	554943	5.0.10.0	4_exp_EVA_AMP_AWA_CON	50	Rpleas_acq	Same	Rpleas	Bmasked	CS_B	2pleas	distractor1	EVAbeforeCON	acq_US_unple_masked	acq3_masked	3	18	453	0	300	300	0	0	326	50	0	0	0	0	0	1	blank2r.bmp	0	1	+	0	4	B4r.bmp	492	1	blank2r.bmp	786	1	BMVZ	786	1	blank2r.bmp	866	2	lasch	866	1	FEHLER	1532	1	!	-1	1	!	-1	0	0	0	0	0	0	0	0	0	0	0	0	0	0	0	0	0	0	0	0	0	0	0	0
010919	09:08:22	09:17:41	556969	5.0.10.0	4_exp_EVA_AMP_AWA_CON	50	Rpleas_acq	Same	Rpleas	Bmasked	CS_B	2pleas	distractor1	EVAbeforeCON	acq_US_unple_masked	acq3_masked	3	19	453	1	300	300	0	0	426	46	0	1	0	0	0	1	blank2r.bmp	0	1	+	0	2	B2r.bmp	492	1	blank2r.bmp	786	1	BMVZ	786	1	blank2r.bmp	866	5	leiden	866	1	!	1292	1	!	1332	0	0	0	0	0	0	0	0	0	0	0	0	0	0	0	0	0	0	0	0	0	0	0	0	0	0	0
010919	09:08:22	09:17:44	559195	5.0.10.0	4_exp_EVA_AMP_AWA_CON	50	Rpleas_acq	Same	Rpleas	Bmasked	CS_B	2pleas	distractor1	EVAbeforeCON	acq_US_pleas_masked	acq3_masked	3	20	453	1	300	300	0	0	430	50	0	1	0	0	0	1	blank2r.bmp	0	1	+	0	5	C1r.bmp	492	1	blank2r.bmp	786	1	GKQX	786	1	blank2r.bmp	866	6	helfen	866	1	!	1292	1	!	1332	0	0	0	0	0	0	0	0	0	0	0	0	0	0	0	0	0	0	0	0	0	0	0	0	0	0	0
010919	09:08:22	09:17:46	561527	5.0.10.0	4_exp_EVA_AMP_AWA_CON	50	Rpleas_acq	Same	Rpleas	Bmasked	CS_B	2pleas	distractor1	EVAbeforeCON	acq_US_unple_masked	acq3_masked	3	21	453	0	300	300	0	0	323	50	0	0	0	0	0	1	blank2r.bmp	0	1	+	0	7	C3r.bmp	492	1	blank2r.bmp	786	1	BMVZ	786	1	blank2r.bmp	866	6	hindern	866	1	FEHLER	1532	1	!	-1	1	!	-1	0	0	0	0	0	0	0	0	0	0	0	0	0	0	0	0	0	0	0	0	0	0	0	0
010919	09:08:22	09:17:48	563953	5.0.10.0	4_exp_EVA_AMP_AWA_CON	50	Rpleas_acq	Same	Rpleas	Bmasked	CS_B	2pleas	distractor1	EVAbeforeCON	acq_US_unple_masked	acq3_masked	3	22	453	0	300	300	0	0	638	50	0	0	0	0	0	1	blank2r.bmp	0	1	+	0	6	C2r.bmp	492	1	blank2r.bmp	786	1	BMVZ	786	1	blank2r.bmp	866	3	tyrannisch	866	1	FEHLER	1852	1	!	1292	1	!	-1	0	0	0	0	0	0	0	0	0	0	0	0	0	0	0	0	0	0	0	0	0	0	0	0
010919	09:08:22	09:17:50	565992	5.0.10.0	4_exp_EVA_AMP_AWA_CON	50	Rpleas_acq	Same	Rpleas	Bmasked	CS_B	2pleas	distractor1	EVAbeforeCON	acq_US_unple_masked	acq3_masked	3	23	453	1	300	300	0	0	455	46	0	1	0	0	0	1	blank2r.bmp	0	1	+	0	1	B1r.bmp	492	1	blank2r.bmp	786	1	BMVZ	786	1	blank2r.bmp	866	4	fanatisch	866	1	!	1292	1	!	1359	0	0	0	0	0	0	0	0	0	0	0	0	0	0	0	0	0	0	0	0	0	0	0	0	0	0	0
010919	09:08:22	09:17:53	568405	5.0.10.0	4_exp_EVA_AMP_AWA_CON	50	Rpleas_acq	Same	Rpleas	Bmasked	CS_B	2pleas	distractor1	EVAbeforeCON	acq_US_pleas_masked	acq3_masked	3	24	453	1	300	300	0	0	399	46	0	0	0	0	0	1	blank2r.bmp	0	1	+	0	8	C4r.bmp	492	1	blank2r.bmp	786	1	GKQX	786	1	blank2r.bmp	866	1	spielen	866	1	FEHLER	1625	1	!	1292	1	!	1306	0	0	0	0	0	0	0	0	0	0	0	0	0	0	0	0	0	0	0	0	0	0	0	0
010919	09:08:22	09:17:55	570497	5.0.10.0	4_exp_EVA_AMP_AWA_CON	50	Rpleas_acq	Same	Rpleas	Bmasked	CS_B	2pleas	distractor1	EVAbeforeCON	acq_US_unple_masked	acq3_masked	3	25	453	1	300	300	0	0	508	46	0	1	0	0	0	1	blank2r.bmp	0	1	+	0	7	C3r.bmp	492	1	blank2r.bmp	786	1	BMVZ	786	1	blank2r.bmp	866	6	hindern	866	1	!	1292	1	!	1412	0	0	0	0	0	0	0	0	0	0	0	0	0	0	0	0	0	0	0	0	0	0	0	0	0	0	0
010919	09:08:22	09:17:57	572723	5.0.10.0	4_exp_EVA_AMP_AWA_CON	50	Rpleas_acq	Same	Rpleas	Bmasked	CS_B	2pleas	distractor1	EVAbeforeCON	acq_US_pleas_masked	acq3_masked	3	26	453	1	300	300	0	0	438	50	0	1	0	0	0	1	blank2r.bmp	0	1	+	0	5	C1r.bmp	492	1	blank2r.bmp	786	1	GKQX	786	1	blank2r.bmp	866	5	lachen	866	1	!	1292	1	!	1332	0	0	0	0	0	0	0	0	0	0	0	0	0	0	0	0	0	0	0	0	0	0	0	0	0	0	0
010919	09:08:22	09:17:59	574962	5.0.10.0	4_exp_EVA_AMP_AWA_CON	50	Rpleas_acq	Same	Rpleas	Bmasked	CS_B	2pleas	distractor1	EVAbeforeCON	acq_US_pleas_masked	acq3_masked	3	27	453	1	300	300	0	0	433	50	0	1	0	0	0	1	blank2r.bmp	0	1	+	0	8	C4r.bmp	492	1	blank2r.bmp	786	1	GKQX	786	1	blank2r.bmp	866	4	freundlich	866	1	!	1292	1	!	1332	0	0	0	0	0	0	0	0	0	0	0	0	0	0	0	0	0	0	0	0	0	0	0	0	0	0	0
010919	09:08:22	09:18:01	577081	5.0.10.0	4_exp_EVA_AMP_AWA_CON	50	Rpleas_acq	Same	Rpleas	Bmasked	CS_B	2pleas	distractor1	EVAbeforeCON	acq_US_pleas_masked	acq3_masked	3	28	453	0	300	300	0	0	349	50	0	1	0	0	0	1	blank2r.bmp	0	1	+	0	4	B4r.bmp	492	1	blank2r.bmp	786	1	GKQX	786	1	blank2r.bmp	866	6	helfen	866	1	!	-1	1	!	-1	0	0	0	0	0	0	0	0	0	0	0	0	0	0	0	0	0	0	0	0	0	0	0	0	0	0	0
010919	09:08:22	09:18:04	579347	5.0.10.0	4_exp_EVA_AMP_AWA_CON	50	Rpleas_acq	Same	Rpleas	Bmasked	CS_B	2pleas	distractor1	EVAbeforeCON	acq_US_pleas_masked	acq3_masked	3	29	453	1	300	300	0	0	459	50	0	1	0	0	0	1	blank2r.bmp	0	1	+	0	1	B1r.bmp	492	1	blank2r.bmp	786	1	GKQX	786	1	blank2r.bmp	866	2	loyal	866	1	!	1292	1	!	1359	0	0	0	0	0	0	0	0	0	0	0	0	0	0	0	0	0	0	0	0	0	0	0	0	0	0	0
010919	09:08:22	09:18:06	581772	5.0.10.0	4_exp_EVA_AMP_AWA_CON	50	Rpleas_acq	Same	Rpleas	Bmasked	CS_B	2pleas	distractor1	EVAbeforeCON	acq_US_unple_masked	acq3_masked	3	30	453	1	300	300	0	0	420	50	0	0	0	0	0	1	blank2r.bmp	0	1	+	0	3	B3r.bmp	492	1	blank2r.bmp	786	1	BMVZ	786	1	blank2r.bmp	866	2	lasch	866	1	FEHLER	1639	1	!	1292	1	!	1319	0	0	0	0	0	0	0	0	0	0	0	0	0	0	0	0	0	0	0	0	0	0	0	0
010919	09:08:22	09:18:08	583865	5.0.10.0	4_exp_EVA_AMP_AWA_CON	50	Rpleas_acq	Same	Rpleas	Bmasked	CS_B	2pleas	distractor1	EVAbeforeCON	acq_US_unple_masked	acq3_masked	3	31	453	1	300	300	0	0	513	46	0	1	0	0	0	1	blank2r.bmp	0	1	+	0	2	B2r.bmp	492	1	blank2r.bmp	786	1	BMVZ	786	1	blank2r.bmp	866	4	fanatisch	866	1	!	1292	1	!	1412	0	0	0	0	0	0	0	0	0	0	0	0	0	0	0	0	0	0	0	0	0	0	0	0	0	0	0
010919	09:08:22	09:18:10	586091	5.0.10.0	4_exp_EVA_AMP_AWA_CON	50	Rpleas_acq	Same	Rpleas	Bmasked	CS_B	2pleas	distractor1	EVAbeforeCON	acq_US_unple_masked	acq3_masked	3	32	453	1	300	300	0	0	438	46	0	1	0	0	0	1	blank2r.bmp	0	1	+	0	6	C2r.bmp	492	1	blank2r.bmp	786	1	BMVZ	786	1	blank2r.bmp	866	1	strafen	866	1	!	1292	1	!	1332	0	0	0	0	0	0	0	0	0	0	0	0	0	0	0	0	0	0	0	0	0	0	0	0	0	0	0
010919	09:08:22	09:18:13	588556	5.0.10.0	4_exp_EVA_AMP_AWA_CON	50	Rpleas_acq	Same	Rpleas	Bmasked	CS_B	2pleas	distractor1	EVAbeforeCON	acq_US_unple_masked	acq3_masked	3	33	453	1	300	300	0	0	440	50	0	0	0	0	0	1	blank2r.bmp	0	1	+	0	2	B2r.bmp	492	1	blank2r.bmp	786	1	BMVZ	786	1	blank2r.bmp	866	3	tyrannisch	866	1	FEHLER	1665	1	!	1292	1	!	1346	0	0	0	0	0	0	0	0	0	0	0	0	0	0	0	0	0	0	0	0	0	0	0	0
010919	09:08:22	09:18:15	590635	5.0.10.0	4_exp_EVA_AMP_AWA_CON	50	Rpleas_acq	Same	Rpleas	Bmasked	CS_B	2pleas	distractor1	EVAbeforeCON	acq_US_pleas_masked	acq3_masked	3	34	453	1	300	300	0	0	498	50	0	1	0	0	0	1	blank2r.bmp	0	1	+	0	5	C1r.bmp	492	1	blank2r.bmp	786	1	GKQX	786	1	blank2r.bmp	866	1	spielen	866	1	!	1292	1	!	1399	0	0	0	0	0	0	0	0	0	0	0	0	0	0	0	0	0	0	0	0	0	0	0	0	0	0	0
010919	09:08:22	09:18:17	592834	5.0.10.0	4_exp_EVA_AMP_AWA_CON	50	Rpleas_acq	Same	Rpleas	Bmasked	CS_B	2pleas	distractor1	EVAbeforeCON	acq_US_pleas_masked	acq3_masked	3	35	453	1	300	300	0	0	399	50	0	1	0	0	0	1	blank2r.bmp	0	1	+	0	6	C2r.bmp	492	1	blank2r.bmp	786	1	GKQX	786	1	blank2r.bmp	866	3	tolerant	866	1	!	1292	1	!	1306	0	0	0	0	0	0	0	0	0	0	0	0	0	0	0	0	0	0	0	0	0	0	0	0	0	0	0
010919	09:08:22	09:18:20	595234	5.0.10.0	4_exp_EVA_AMP_AWA_CON	50	Rpleas_acq	Same	Rpleas	Bmasked	CS_B	2pleas	distractor1	EVAbeforeCON	acq_US_unple_masked	acq3_masked	3	36	453	1	300	300	0	0	411	50	0	0	0	0	0	1	blank2r.bmp	0	1	+	0	1	B1r.bmp	492	1	blank2r.bmp	786	1	BMVZ	786	1	blank2r.bmp	866	5	leiden	866	1	FEHLER	1625	1	!	1292	1	!	1306	0	0	0	0	0	0	0	0	0	0	0	0	0	0	0	0	0	0	0	0	0	0	0	0
010919	09:08:22	09:18:44	619224	5.0.10.0	4_exp_EVA_AMP_AWA_CON	50	Rpleas_acq	Same	Rpleas	Bmasked	CS_B	2pleas	distractor1	EVAbeforeCON	acq_US_pleas_masked	acq45_masked	4	1	400	0	300	300	0	0	516	46	0	0	0	0	0	1	blank2r.bmp	0	1	+	0	3	B3r.bmp	492	1	blank2r.bmp	786	1	GKQX	786	1	blank2r.bmp	866	3	tolerant	866	1	!	1239	1	!	-1	0	0	0	0	0	0	0	0	0	0	0	0	0	0	0	0	0	0	0	0	0	0	0	0	0	0	0
010919	09:08:22	09:18:46	621489	5.0.10.0	4_exp_EVA_AMP_AWA_CON	50	Rpleas_acq	Same	Rpleas	Bmasked	CS_B	2pleas	distractor1	EVAbeforeCON	acq_US_pleas_masked	acq45_masked	4	2	400	1	300	300	0	0	458	50	0	1	0	0	0	1	blank2r.bmp	0	1	+	0	4	B4r.bmp	492	1	blank2r.bmp	786	1	GKQX	786	1	blank2r.bmp	866	1	spielen	866	1	!	1239	1	!	1359	0	0	0	0	0	0	0	0	0	0	0	0	0	0	0	0	0	0	0	0	0	0	0	0	0	0	0
010919	09:08:22	09:18:48	623715	5.0.10.0	4_exp_EVA_AMP_AWA_CON	50	Rpleas_acq	Same	Rpleas	Bmasked	CS_B	2pleas	distractor1	EVAbeforeCON	acq_US_unple_masked	acq45_masked	4	3	400	1	300	300	0	0	438	50	0	0	0	0	0	1	blank2r.bmp	0	1	+	0	7	C3r.bmp	492	1	blank2r.bmp	786	1	BMVZ	786	1	blank2r.bmp	866	5	leiden	866	1	!	1239	1	!	1332	0	0	0	0	0	0	0	0	0	0	0	0	0	0	0	0	0	0	0	0	0	0	0	0	0	0	0
010919	09:08:22	09:18:50	626074	5.0.10.0	4_exp_EVA_AMP_AWA_CON	50	Rpleas_acq	Same	Rpleas	Bmasked	CS_B	2pleas	distractor1	EVAbeforeCON	acq_US_unple_masked	acq45_masked	4	4	400	0	300	300	0	0	590	46	0	1	0	0	0	1	blank2r.bmp	0	1	+	0	8	C4r.bmp	492	1	blank2r.bmp	786	1	BMVZ	786	1	blank2r.bmp	866	4	fanatisch	866	1	!	1239	1	!	-1	0	0	0	0	0	0	0	0	0	0	0	0	0	0	0	0	0	0	0	0	0	0	0	0	0	0	0
010919	09:08:22	09:18:53	628380	5.0.10.0	4_exp_EVA_AMP_AWA_CON	50	Rpleas_acq	Same	Rpleas	Bmasked	CS_B	2pleas	distractor1	EVAbeforeCON	acq_US_unple_masked	acq45_masked	4	5	400	0	300	300	0	0	506	46	0	1	0	0	0	1	blank2r.bmp	0	1	+	0	8	C4r.bmp	492	1	blank2r.bmp	786	1	BMVZ	786	1	blank2r.bmp	866	1	strafen	866	1	!	1239	1	!	-1	0	0	0	0	0	0	0	0	0	0	0	0	0	0	0	0	0	0	0	0	0	0	0	0	0	0	0
010919	09:08:22	09:18:55	630486	5.0.10.0	4_exp_EVA_AMP_AWA_CON	50	Rpleas_acq	Same	Rpleas	Bmasked	CS_B	2pleas	distractor1	EVAbeforeCON	acq_US_pleas_masked	acq45_masked	4	6	400	0	300	300	0	0	325	50	0	1	0	0	0	1	blank2r.bmp	0	1	+	0	5	C1r.bmp	492	1	blank2r.bmp	786	1	GKQX	786	1	blank2r.bmp	866	2	loyal	866	1	!	-1	1	!	-1	0	0	0	0	0	0	0	0	0	0	0	0	0	0	0	0	0	0	0	0	0	0	0	0	0	0	0
010919	09:08:22	09:18:57	632698	5.0.10.0	4_exp_EVA_AMP_AWA_CON	50	Rpleas_acq	Same	Rpleas	Bmasked	CS_B	2pleas	distractor1	EVAbeforeCON	acq_US_unple_masked	acq45_masked	4	7	400	1	300	300	0	0	407	46	0	1	0	0	0	1	blank2r.bmp	0	1	+	0	1	B1r.bmp	492	1	blank2r.bmp	786	1	BMVZ	786	1	blank2r.bmp	866	2	lasch	866	1	!	1239	1	!	1306	0	0	0	0	0	0	0	0	0	0	0	0	0	0	0	0	0	0	0	0	0	0	0	0	0	0	0
010919	09:08:22	09:18:59	634924	5.0.10.0	4_exp_EVA_AMP_AWA_CON	50	Rpleas_acq	Same	Rpleas	Bmasked	CS_B	2pleas	distractor1	EVAbeforeCON	acq_US_unple_masked	acq45_masked	4	8	400	1	300	300	0	0	429	46	0	1	0	0	0	1	blank2r.bmp	0	1	+	0	3	B3r.bmp	492	1	blank2r.bmp	786	1	BMVZ	786	1	blank2r.bmp	866	3	tyrannisch	866	1	!	1239	1	!	1332	0	0	0	0	0	0	0	0	0	0	0	0	0	0	0	0	0	0	0	0	0	0	0	0	0	0	0
010919	09:08:22	09:19:01	637070	5.0.10.0	4_exp_EVA_AMP_AWA_CON	50	Rpleas_acq	Same	Rpleas	Bmasked	CS_B	2pleas	distractor1	EVAbeforeCON	acq_US_pleas_masked	acq45_masked	4	9	400	1	300	300	0	0	346	46	0	0	0	0	0	1	blank2r.bmp	0	1	+	0	4	B4r.bmp	492	1	blank2r.bmp	786	1	GKQX	786	1	blank2r.bmp	866	6	helfen	866	1	!	1239	1	!	1252	0	0	0	0	0	0	0	0	0	0	0	0	0	0	0	0	0	0	0	0	0	0	0	0	0	0	0
010919	09:08:22	09:19:04	639309	5.0.10.0	4_exp_EVA_AMP_AWA_CON	50	Rpleas_acq	Same	Rpleas	Bmasked	CS_B	2pleas	distractor1	EVAbeforeCON	acq_US_unple_masked	acq45_masked	4	10	400	1	300	300	0	0	445	50	0	0	0	0	0	1	blank2r.bmp	0	1	+	0	2	B2r.bmp	492	1	blank2r.bmp	786	1	BMVZ	786	1	blank2r.bmp	866	6	hindern	866	1	!	1239	1	!	1346	0	0	0	0	0	0	0	0	0	0	0	0	0	0	0	0	0	0	0	0	0	0	0	0	0	0	0
010919	09:08:22	09:19:06	641521	5.0.10.0	4_exp_EVA_AMP_AWA_CON	50	Rpleas_acq	Same	Rpleas	Bmasked	CS_B	2pleas	distractor1	EVAbeforeCON	acq_US_pleas_masked	acq45_masked	4	11	400	1	300	300	0	0	421	46	0	0	0	0	0	1	blank2r.bmp	0	1	+	0	7	C3r.bmp	492	1	blank2r.bmp	786	1	GKQX	786	1	blank2r.bmp	866	4	freundlich	866	1	!	1239	1	!	1319	0	0	0	0	0	0	0	0	0	0	0	0	0	0	0	0	0	0	0	0	0	0	0	0	0	0	0
010919	09:08:22	09:19:08	643774	5.0.10.0	4_exp_EVA_AMP_AWA_CON	50	Rpleas_acq	Same	Rpleas	Bmasked	CS_B	2pleas	distractor1	EVAbeforeCON	acq_US_pleas_masked	acq45_masked	4	12	400	0	300	300	0	0	479	50	0	1	0	0	0	1	blank2r.bmp	0	1	+	0	6	C2r.bmp	492	1	blank2r.bmp	786	1	GKQX	786	1	blank2r.bmp	866	5	lachen	866	1	!	1239	1	!	-1	0	0	0	0	0	0	0	0	0	0	0	0	0	0	0	0	0	0	0	0	0	0	0	0	0	0	0
010919	09:08:22	09:19:10	645946	5.0.10.0	4_exp_EVA_AMP_AWA_CON	50	Rpleas_acq	Same	Rpleas	Bmasked	CS_B	2pleas	distractor1	EVAbeforeCON	acq_US_unple_masked	acq45_masked	4	13	400	1	300	300	0	0	371	50	0	0	0	0	0	1	blank2r.bmp	0	1	+	0	7	C3r.bmp	492	1	blank2r.bmp	786	1	BMVZ	786	1	blank2r.bmp	866	4	fanatisch	866	1	!	1239	1	!	1266	0	0	0	0	0	0	0	0	0	0	0	0	0	0	0	0	0	0	0	0	0	0	0	0	0	0	0
010919	09:08:22	09:19:12	648025	5.0.10.0	4_exp_EVA_AMP_AWA_CON	50	Rpleas_acq	Same	Rpleas	Bmasked	CS_B	2pleas	distractor1	EVAbeforeCON	acq_US_unple_masked	acq45_masked	4	14	400	0	300	300	0	0	296	46	0	1	0	0	0	1	blank2r.bmp	0	1	+	0	5	C1r.bmp	492	1	blank2r.bmp	786	1	BMVZ	786	1	blank2r.bmp	866	6	hindern	866	1	!	-1	1	!	-1	0	0	0	0	0	0	0	0	0	0	0	0	0	0	0	0	0	0	0	0	0	0	0	0	0	0	0
010919	09:08:22	09:19:15	650304	5.0.10.0	4_exp_EVA_AMP_AWA_CON	50	Rpleas_acq	Same	Rpleas	Bmasked	CS_B	2pleas	distractor1	EVAbeforeCON	acq_US_pleas_masked	acq45_masked	4	15	400	1	300	300	0	0	457	46	0	0	0	0	0	1	blank2r.bmp	0	1	+	0	8	C4r.bmp	492	1	blank2r.bmp	786	1	GKQX	786	1	blank2r.bmp	866	6	helfen	866	1	!	1239	1	!	1359	0	0	0	0	0	0	0	0	0	0	0	0	0	0	0	0	0	0	0	0	0	0	0	0	0	0	0
010919	09:08:22	09:19:17	652610	5.0.10.0	4_exp_EVA_AMP_AWA_CON	50	Rpleas_acq	Same	Rpleas	Bmasked	CS_B	2pleas	distractor1	EVAbeforeCON	acq_US_pleas_masked	acq45_masked	4	16	400	0	300	300	0	0	534	50	0	1	0	0	0	1	blank2r.bmp	0	1	+	0	4	B4r.bmp	492	1	blank2r.bmp	786	1	GKQX	786	1	blank2r.bmp	866	5	lachen	866	1	!	1239	1	!	-1	0	0	0	0	0	0	0	0	0	0	0	0	0	0	0	0	0	0	0	0	0	0	0	0	0	0	0
010919	09:08:22	09:19:19	654782	5.0.10.0	4_exp_EVA_AMP_AWA_CON	50	Rpleas_acq	Same	Rpleas	Bmasked	CS_B	2pleas	distractor1	EVAbeforeCON	acq_US_pleas_masked	acq45_masked	4	17	400	1	300	300	0	0	346	46	0	0	0	0	0	1	blank2r.bmp	0	1	+	0	6	C2r.bmp	492	1	blank2r.bmp	786	1	GKQX	786	1	blank2r.bmp	866	1	spielen	866	1	!	1239	1	!	1252	0	0	0	0	0	0	0	0	0	0	0	0	0	0	0	0	0	0	0	0	0	0	0	0	0	0	0
010919	09:08:22	09:19:21	657048	5.0.10.0	4_exp_EVA_AMP_AWA_CON	50	Rpleas_acq	Same	Rpleas	Bmasked	CS_B	2pleas	distractor1	EVAbeforeCON	acq_US_unple_masked	acq45_masked	4	18	400	0	300	300	0	0	495	46	0	1	0	0	0	1	blank2r.bmp	0	1	+	0	3	B3r.bmp	492	1	blank2r.bmp	786	1	BMVZ	786	1	blank2r.bmp	866	3	tyrannisch	866	1	!	1239	1	!	-1	0	0	0	0	0	0	0	0	0	0	0	0	0	0	0	0	0	0	0	0	0	0	0	0	0	0	0
010919	09:08:22	09:19:24	659287	5.0.10.0	4_exp_EVA_AMP_AWA_CON	50	Rpleas_acq	Same	Rpleas	Bmasked	CS_B	2pleas	distractor1	EVAbeforeCON	acq_US_unple_masked	acq45_masked	4	19	400	1	300	300	0	0	427	50	0	0	0	0	0	1	blank2r.bmp	0	1	+	0	2	B2r.bmp	492	1	blank2r.bmp	786	1	BMVZ	786	1	blank2r.bmp	866	1	strafen	866	1	!	1239	1	!	1332	0	0	0	0	0	0	0	0	0	0	0	0	0	0	0	0	0	0	0	0	0	0	0	0	0	0	0
010919	09:08:22	09:19:26	661393	5.0.10.0	4_exp_EVA_AMP_AWA_CON	50	Rpleas_acq	Same	Rpleas	Bmasked	CS_B	2pleas	distractor1	EVAbeforeCON	acq_US_unple_masked	acq45_masked	4	20	400	0	300	300	0	0	333	46	0	1	0	0	0	1	blank2r.bmp	0	1	+	0	1	B1r.bmp	492	1	blank2r.bmp	786	1	BMVZ	786	1	blank2r.bmp	866	5	leiden	866	1	!	-1	1	!	-1	0	0	0	0	0	0	0	0	0	0	0	0	0	0	0	0	0	0	0	0	0	0	0	0	0	0	0
010919	09:08:22	09:19:28	663672	5.0.10.0	4_exp_EVA_AMP_AWA_CON	50	Rpleas_acq	Same	Rpleas	Bmasked	CS_B	2pleas	distractor1	EVAbeforeCON	acq_US_unple_masked	acq45_masked	4	21	400	0	300	300	0	0	481	46	0	1	0	0	0	1	blank2r.bmp	0	1	+	0	5	C1r.bmp	492	1	blank2r.bmp	786	1	BMVZ	786	1	blank2r.bmp	866	2	lasch	866	1	!	1239	1	!	-1	0	0	0	0	0	0	0	0	0	0	0	0	0	0	0	0	0	0	0	0	0	0	0	0	0	0	0
010919	09:08:22	09:19:30	665951	5.0.10.0	4_exp_EVA_AMP_AWA_CON	50	Rpleas_acq	Same	Rpleas	Bmasked	CS_B	2pleas	distractor1	EVAbeforeCON	acq_US_pleas_masked	acq45_masked	4	22	400	0	300	300	0	0	490	50	0	1	0	0	0	1	blank2r.bmp	0	1	+	0	4	B4r.bmp	492	1	blank2r.bmp	786	1	GKQX	786	1	blank2r.bmp	866	4	freundlich	866	1	!	1239	1	!	-1	0	0	0	0	0	0	0	0	0	0	0	0	0	0	0	0	0	0	0	0	0	0	0	0	0	0	0
010919	09:08:22	09:19:33	668203	5.0.10.0	4_exp_EVA_AMP_AWA_CON	50	Rpleas_acq	Same	Rpleas	Bmasked	CS_B	2pleas	distractor1	EVAbeforeCON	acq_US_pleas_masked	acq45_masked	4	23	400	1	300	300	0	0	440	50	0	1	0	0	0	1	blank2r.bmp	0	1	+	0	2	B2r.bmp	492	1	blank2r.bmp	786	1	GKQX	786	1	blank2r.bmp	866	3	tolerant	866	1	!	1239	1	!	1346	0	0	0	0	0	0	0	0	0	0	0	0	0	0	0	0	0	0	0	0	0	0	0	0	0	0	0
010919	09:08:22	09:19:35	670456	5.0.10.0	4_exp_EVA_AMP_AWA_CON	50	Rpleas_acq	Same	Rpleas	Bmasked	CS_B	2pleas	distractor1	EVAbeforeCON	acq_US_unple_masked	acq45_masked	4	24	400	0	300	300	0	0	489	46	0	1	0	0	0	1	blank2r.bmp	0	1	+	0	7	C3r.bmp	492	1	blank2r.bmp	786	1	BMVZ	786	1	blank2r.bmp	866	5	leiden	866	1	!	1239	1	!	-1	0	0	0	0	0	0	0	0	0	0	0	0	0	0	0	0	0	0	0	0	0	0	0	0	0	0	0
010919	09:08:22	09:19:37	672735	5.0.10.0	4_exp_EVA_AMP_AWA_CON	50	Rpleas_acq	Same	Rpleas	Bmasked	CS_B	2pleas	distractor1	EVAbeforeCON	acq_US_unple_masked	acq45_masked	4	25	400	0	300	300	0	0	479	46	0	1	0	0	0	1	blank2r.bmp	0	1	+	0	3	B3r.bmp	492	1	blank2r.bmp	786	1	BMVZ	786	1	blank2r.bmp	866	1	strafen	866	1	!	1239	1	!	-1	0	0	0	0	0	0	0	0	0	0	0	0	0	0	0	0	0	0	0	0	0	0	0	0	0	0	0
010919	09:08:22	09:19:39	674987	5.0.10.0	4_exp_EVA_AMP_AWA_CON	50	Rpleas_acq	Same	Rpleas	Bmasked	CS_B	2pleas	distractor1	EVAbeforeCON	acq_US_pleas_masked	acq45_masked	4	26	400	1	300	300	0	0	435	50	0	1	0	0	0	1	blank2r.bmp	0	1	+	0	6	C2r.bmp	492	1	blank2r.bmp	786	1	GKQX	786	1	blank2r.bmp	866	2	loyal	866	1	!	1239	1	!	1332	0	0	0	0	0	0	0	0	0	0	0	0	0	0	0	0	0	0	0	0	0	0	0	0	0	0	0
010919	09:08:22	09:19:42	677240	5.0.10.0	4_exp_EVA_AMP_AWA_CON	50	Rpleas_acq	Same	Rpleas	Bmasked	CS_B	2pleas	distractor1	EVAbeforeCON	acq_US_pleas_masked	acq45_masked	4	27	400	1	300	300	0	0	463	50	0	1	0	0	0	1	blank2r.bmp	0	1	+	0	1	B1r.bmp	492	1	blank2r.bmp	786	1	GKQX	786	1	blank2r.bmp	866	6	helfen	866	1	!	1239	1	!	1359	0	0	0	0	0	0	0	0	0	0	0	0	0	0	0	0	0	0	0	0	0	0	0	0	0	0	0
010919	09:08:22	09:19:44	679452	5.0.10.0	4_exp_EVA_AMP_AWA_CON	50	Rpleas_acq	Same	Rpleas	Bmasked	CS_B	2pleas	distractor1	EVAbeforeCON	acq_US_pleas_masked	acq45_masked	4	28	400	1	300	300	0	0	405	50	0	1	0	0	0	1	blank2r.bmp	0	1	+	0	8	C4r.bmp	492	1	blank2r.bmp	786	1	GKQX	786	1	blank2r.bmp	866	4	freundlich	866	1	!	1239	1	!	1306	0	0	0	0	0	0	0	0	0	0	0	0	0	0	0	0	0	0	0	0	0	0	0	0	0	0	0
010919	09:08:22	09:19:46	681758	5.0.10.0	4_exp_EVA_AMP_AWA_CON	50	Rpleas_acq	Same	Rpleas	Bmasked	CS_B	2pleas	distractor1	EVAbeforeCON	acq_US_unple_masked	acq45_masked	4	29	400	0	300	300	0	0	532	46	0	1	0	0	0	1	blank2r.bmp	0	1	+	0	2	B2r.bmp	492	1	blank2r.bmp	786	1	BMVZ	786	1	blank2r.bmp	866	6	hindern	866	1	!	1239	1	!	-1	0	0	0	0	0	0	0	0	0	0	0	0	0	0	0	0	0	0	0	0	0	0	0	0	0	0	0
010919	09:08:22	09:19:48	683917	5.0.10.0	4_exp_EVA_AMP_AWA_CON	50	Rpleas_acq	Same	Rpleas	Bmasked	CS_B	2pleas	distractor1	EVAbeforeCON	acq_US_unple_masked	acq45_masked	4	30	400	1	300	300	0	0	354	50	0	0	0	0	0	1	blank2r.bmp	0	1	+	0	6	C2r.bmp	492	1	blank2r.bmp	786	1	BMVZ	786	1	blank2r.bmp	866	2	lasch	866	1	!	1239	1	!	1252	0	0	0	0	0	0	0	0	0	0	0	0	0	0	0	0	0	0	0	0	0	0	0	0	0	0	0
010919	09:08:22	09:19:50	686089	5.0.10.0	4_exp_EVA_AMP_AWA_CON	50	Rpleas_acq	Same	Rpleas	Bmasked	CS_B	2pleas	distractor1	EVAbeforeCON	acq_US_unple_masked	acq45_masked	4	31	400	1	300	300	0	0	369	46	0	1	0	0	0	1	blank2r.bmp	0	1	+	0	4	B4r.bmp	492	1	blank2r.bmp	786	1	BMVZ	786	1	blank2r.bmp	866	3	tyrannisch	866	1	!	1239	1	!	1266	0	0	0	0	0	0	0	0	0	0	0	0	0	0	0	0	0	0	0	0	0	0	0	0	0	0	0
010919	09:08:22	09:19:53	688315	5.0.10.0	4_exp_EVA_AMP_AWA_CON	50	Rpleas_acq	Same	Rpleas	Bmasked	CS_B	2pleas	distractor1	EVAbeforeCON	acq_US_pleas_masked	acq45_masked	4	32	400	1	300	300	0	0	438	50	0	1	0	0	0	1	blank2r.bmp	0	1	+	0	5	C1r.bmp	492	1	blank2r.bmp	786	1	GKQX	786	1	blank2r.bmp	866	1	spielen	866	1	!	1239	1	!	1332	0	0	0	0	0	0	0	0	0	0	0	0	0	0	0	0	0	0	0	0	0	0	0	0	0	0	0
010919	09:08:22	09:19:55	690581	5.0.10.0	4_exp_EVA_AMP_AWA_CON	50	Rpleas_acq	Same	Rpleas	Bmasked	CS_B	2pleas	distractor1	EVAbeforeCON	acq_US_pleas_masked	acq45_masked	4	33	400	0	300	300	0	0	479	50	0	1	0	0	0	1	blank2r.bmp	0	1	+	0	7	C3r.bmp	492	1	blank2r.bmp	786	1	GKQX	786	1	blank2r.bmp	866	2	loyal	866	1	!	1239	1	!	-1	0	0	0	0	0	0	0	0	0	0	0	0	0	0	0	0	0	0	0	0	0	0	0	0	0	0	0
010919	09:08:22	09:19:57	692793	5.0.10.0	4_exp_EVA_AMP_AWA_CON	50	Rpleas_acq	Same	Rpleas	Bmasked	CS_B	2pleas	distractor1	EVAbeforeCON	acq_US_pleas_masked	acq45_masked	4	34	400	1	300	300	0	0	398	50	0	1	0	0	0	1	blank2r.bmp	0	1	+	0	1	B1r.bmp	492	1	blank2r.bmp	786	1	GKQX	786	1	blank2r.bmp	866	5	lachen	866	1	!	1239	1	!	1292	0	0	0	0	0	0	0	0	0	0	0	0	0	0	0	0	0	0	0	0	0	0	0	0	0	0	0
010919	09:08:22	09:19:59	694979	5.0.10.0	4_exp_EVA_AMP_AWA_CON	50	Rpleas_acq	Same	Rpleas	Bmasked	CS_B	2pleas	distractor1	EVAbeforeCON	acq_US_unple_masked	acq45_masked	4	35	400	1	300	300	0	0	383	50	0	0	0	0	0	1	blank2r.bmp	0	1	+	0	3	B3r.bmp	492	1	blank2r.bmp	786	1	BMVZ	786	1	blank2r.bmp	866	4	fanatisch	866	1	!	1239	1	!	1279	0	0	0	0	0	0	0	0	0	0	0	0	0	0	0	0	0	0	0	0	0	0	0	0	0	0	0
010919	09:08:22	09:20:02	697298	5.0.10.0	4_exp_EVA_AMP_AWA_CON	50	Rpleas_acq	Same	Rpleas	Bmasked	CS_B	2pleas	distractor1	EVAbeforeCON	acq_US_pleas_masked	acq45_masked	4	36	400	0	300	300	0	0	540	50	0	1	0	0	0	1	blank2r.bmp	0	1	+	0	8	C4r.bmp	492	1	blank2r.bmp	786	1	GKQX	786	1	blank2r.bmp	866	3	tolerant	866	1	!	1239	1	!	-1	0	0	0	0	0	0	0	0	0	0	0	0	0	0	0	0	0	0	0	0	0	0	0	0	0	0	0
010919	09:08:22	09:20:21	716370	5.0.10.0	4_exp_EVA_AMP_AWA_CON	50	Rpleas_acq	Same	Rpleas	Bmasked	CS_B	2pleas	distractor1	EVAbeforeCON	acq_US_pleas_masked	acq45_masked	5	1	400	1	300	300	0	0	414	50	0	1	0	0	0	1	blank2r.bmp	0	1	+	0	4	B4r.bmp	492	1	blank2r.bmp	786	1	GKQX	786	1	blank2r.bmp	866	2	loyal	866	1	!	1239	1	!	1319	0	0	0	0	0	0	0	0	0	0	0	0	0	0	0	0	0	0	0	0	0	0	0	0	0	0	0
010919	09:08:22	09:20:23	718743	5.0.10.0	4_exp_EVA_AMP_AWA_CON	50	Rpleas_acq	Same	Rpleas	Bmasked	CS_B	2pleas	distractor1	EVAbeforeCON	acq_US_unple_masked	acq45_masked	5	2	400	0	300	300	0	0	599	46	0	1	0	0	0	1	blank2r.bmp	0	1	+	0	6	C2r.bmp	492	1	blank2r.bmp	786	1	BMVZ	786	1	blank2r.bmp	866	4	fanatisch	866	1	!	1239	1	!	-1	0	0	0	0	0	0	0	0	0	0	0	0	0	0	0	0	0	0	0	0	0	0	0	0	0	0	0
010919	09:08:22	09:20:25	720995	5.0.10.0	4_exp_EVA_AMP_AWA_CON	50	Rpleas_acq	Same	Rpleas	Bmasked	CS_B	2pleas	distractor1	EVAbeforeCON	acq_US_unple_masked	acq45_masked	5	3	400	1	300	300	0	0	445	46	0	1	0	0	0	1	blank2r.bmp	0	1	+	0	3	B3r.bmp	492	1	blank2r.bmp	786	1	BMVZ	786	1	blank2r.bmp	866	3	tyrannisch	866	1	!	1239	1	!	1346	0	0	0	0	0	0	0	0	0	0	0	0	0	0	0	0	0	0	0	0	0	0	0	0	0	0	0
010919	09:08:22	09:20:28	723247	5.0.10.0	4_exp_EVA_AMP_AWA_CON	50	Rpleas_acq	Same	Rpleas	Bmasked	CS_B	2pleas	distractor1	EVAbeforeCON	acq_US_pleas_masked	acq45_masked	5	4	400	1	300	300	0	0	453	50	0	1	0	0	0	1	blank2r.bmp	0	1	+	0	7	C3r.bmp	492	1	blank2r.bmp	786	1	GKQX	786	1	blank2r.bmp	866	3	tolerant	866	1	!	1239	1	!	1359	0	0	0	0	0	0	0	0	0	0	0	0	0	0	0	0	0	0	0	0	0	0	0	0	0	0	0
010919	09:08:22	09:20:30	725393	5.0.10.0	4_exp_EVA_AMP_AWA_CON	50	Rpleas_acq	Same	Rpleas	Bmasked	CS_B	2pleas	distractor1	EVAbeforeCON	acq_US_pleas_masked	acq45_masked	5	5	400	1	300	300	0	0	351	50	0	1	0	0	0	1	blank2r.bmp	0	1	+	0	2	B2r.bmp	492	1	blank2r.bmp	786	1	GKQX	786	1	blank2r.bmp	866	1	spielen	866	1	!	1239	1	!	1252	0	0	0	0	0	0	0	0	0	0	0	0	0	0	0	0	0	0	0	0	0	0	0	0	0	0	0
010919	09:08:22	09:20:32	727539	5.0.10.0	4_exp_EVA_AMP_AWA_CON	50	Rpleas_acq	Same	Rpleas	Bmasked	CS_B	2pleas	distractor1	EVAbeforeCON	acq_US_pleas_masked	acq45_masked	5	6	400	1	300	300	0	0	348	50	0	1	0	0	0	1	blank2r.bmp	0	1	+	0	5	C1r.bmp	492	1	blank2r.bmp	786	1	GKQX	786	1	blank2r.bmp	866	4	freundlich	866	1	!	1239	1	!	1252	0	0	0	0	0	0	0	0	0	0	0	0	0	0	0	0	0	0	0	0	0	0	0	0	0	0	0
010919	09:08:22	09:20:34	729818	5.0.10.0	4_exp_EVA_AMP_AWA_CON	50	Rpleas_acq	Same	Rpleas	Bmasked	CS_B	2pleas	distractor1	EVAbeforeCON	acq_US_unple_masked	acq45_masked	5	7	400	0	300	300	0	0	508	46	0	1	0	0	0	1	blank2r.bmp	0	1	+	0	1	B1r.bmp	492	1	blank2r.bmp	786	1	BMVZ	786	1	blank2r.bmp	866	1	strafen	866	1	!	1239	1	!	-1	0	0	0	0	0	0	0	0	0	0	0	0	0	0	0	0	0	0	0	0	0	0	0	0	0	0	0
010919	09:08:22	09:20:36	732057	5.0.10.0	4_exp_EVA_AMP_AWA_CON	50	Rpleas_acq	Same	Rpleas	Bmasked	CS_B	2pleas	distractor1	EVAbeforeCON	acq_US_pleas_masked	acq45_masked	5	8	400	1	300	300	0	0	438	50	0	1	0	0	0	1	blank2r.bmp	0	1	+	0	8	C4r.bmp	492	1	blank2r.bmp	786	1	GKQX	786	1	blank2r.bmp	866	6	helfen	866	1	!	1239	1	!	1332	0	0	0	0	0	0	0	0	0	0	0	0	0	0	0	0	0	0	0	0	0	0	0	0	0	0	0
010919	09:08:22	09:20:39	734323	5.0.10.0	4_exp_EVA_AMP_AWA_CON	50	Rpleas_acq	Same	Rpleas	Bmasked	CS_B	2pleas	distractor1	EVAbeforeCON	acq_US_unple_masked	acq45_masked	5	9	400	0	300	300	0	0	488	46	0	1	0	0	0	1	blank2r.bmp	0	1	+	0	8	C4r.bmp	492	1	blank2r.bmp	786	1	BMVZ	786	1	blank2r.bmp	866	5	leiden	866	1	!	1239	1	!	-1	0	0	0	0	0	0	0	0	0	0	0	0	0	0	0	0	0	0	0	0	0	0	0	0	0	0	0
010919	09:08:22	09:20:41	736495	5.0.10.0	4_exp_EVA_AMP_AWA_CON	50	Rpleas_acq	Same	Rpleas	Bmasked	CS_B	2pleas	distractor1	EVAbeforeCON	acq_US_pleas_masked	acq45_masked	5	10	400	1	300	300	0	0	353	46	0	0	0	0	0	1	blank2r.bmp	0	1	+	0	6	C2r.bmp	492	1	blank2r.bmp	786	1	GKQX	786	1	blank2r.bmp	866	5	lachen	866	1	!	1239	1	!	1252	0	0	0	0	0	0	0	0	0	0	0	0	0	0	0	0	0	0	0	0	0	0	0	0	0	0	0
010919	09:08:22	09:20:43	738708	5.0.10.0	4_exp_EVA_AMP_AWA_CON	50	Rpleas_acq	Same	Rpleas	Bmasked	CS_B	2pleas	distractor1	EVAbeforeCON	acq_US_unple_masked	acq45_masked	5	11	400	1	300	300	0	0	414	46	0	1	0	0	0	1	blank2r.bmp	0	1	+	0	2	B2r.bmp	492	1	blank2r.bmp	786	1	BMVZ	786	1	blank2r.bmp	866	6	hindern	866	1	!	1239	1	!	1319	0	0	0	0	0	0	0	0	0	0	0	0	0	0	0	0	0	0	0	0	0	0	0	0	0	0	0
010919	09:08:22	09:20:45	740960	5.0.10.0	4_exp_EVA_AMP_AWA_CON	50	Rpleas_acq	Same	Rpleas	Bmasked	CS_B	2pleas	distractor1	EVAbeforeCON	acq_US_unple_masked	acq45_masked	5	12	400	0	300	300	0	0	482	50	0	0	0	0	0	1	blank2r.bmp	0	1	+	0	4	B4r.bmp	492	1	blank2r.bmp	786	1	BMVZ	786	1	blank2r.bmp	866	2	lasch	866	1	!	1239	1	!	-1	0	0	0	0	0	0	0	0	0	0	0	0	0	0	0	0	0	0	0	0	0	0	0	0	0	0	0
010919	09:08:22	09:20:48	743373	5.0.10.0	4_exp_EVA_AMP_AWA_CON	50	Rpleas_acq	Same	Rpleas	Bmasked	CS_B	2pleas	distractor1	EVAbeforeCON	acq_US_unple_masked	acq45_masked	5	13	400	0	300	300	0	0	637	46	0	1	0	0	0	1	blank2r.bmp	0	1	+	0	3	B3r.bmp	492	1	blank2r.bmp	786	1	BMVZ	786	1	blank2r.bmp	866	4	fanatisch	866	1	!	1239	1	!	-1	0	0	0	0	0	0	0	0	0	0	0	0	0	0	0	0	0	0	0	0	0	0	0	0	0	0	0
010919	09:08:22	09:20:50	745638	5.0.10.0	4_exp_EVA_AMP_AWA_CON	50	Rpleas_acq	Same	Rpleas	Bmasked	CS_B	2pleas	distractor1	EVAbeforeCON	acq_US_pleas_masked	acq45_masked	5	14	400	0	300	300	0	0	479	50	0	1	0	0	0	1	blank2r.bmp	0	1	+	0	7	C3r.bmp	492	1	blank2r.bmp	786	1	GKQX	786	1	blank2r.bmp	866	1	spielen	866	1	!	1239	1	!	-1	0	0	0	0	0	0	0	0	0	0	0	0	0	0	0	0	0	0	0	0	0	0	0	0	0	0	0
010919	09:08:22	09:20:52	747851	5.0.10.0	4_exp_EVA_AMP_AWA_CON	50	Rpleas_acq	Same	Rpleas	Bmasked	CS_B	2pleas	distractor1	EVAbeforeCON	acq_US_unple_masked	acq45_masked	5	15	400	1	300	300	0	0	409	50	0	0	0	0	0	1	blank2r.bmp	0	1	+	0	1	B1r.bmp	492	1	blank2r.bmp	786	1	BMVZ	786	1	blank2r.bmp	866	3	tyrannisch	866	1	!	1239	1	!	1306	0	0	0	0	0	0	0	0	0	0	0	0	0	0	0	0	0	0	0	0	0	0	0	0	0	0	0
010919	09:08:22	09:20:54	750063	5.0.10.0	4_exp_EVA_AMP_AWA_CON	50	Rpleas_acq	Same	Rpleas	Bmasked	CS_B	2pleas	distractor1	EVAbeforeCON	acq_US_unple_masked	acq45_masked	5	16	400	1	300	300	0	0	415	46	0	1	0	0	0	1	blank2r.bmp	0	1	+	0	5	C1r.bmp	492	1	blank2r.bmp	786	1	BMVZ	786	1	blank2r.bmp	866	1	strafen	866	1	!	1239	1	!	1319	0	0	0	0	0	0	0	0	0	0	0	0	0	0	0	0	0	0	0	0	0	0	0	0	0	0	0
010919	09:08:22	09:20:57	752302	5.0.10.0	4_exp_EVA_AMP_AWA_CON	50	Rpleas_acq	Same	Rpleas	Bmasked	CS_B	2pleas	distractor1	EVAbeforeCON	acq_US_pleas_masked	acq45_masked	5	17	400	1	300	300	0	0	450	50	0	1	0	0	0	1	blank2r.bmp	0	1	+	0	2	B2r.bmp	492	1	blank2r.bmp	786	1	GKQX	786	1	blank2r.bmp	866	4	freundlich	866	1	!	1239	1	!	1346	0	0	0	0	0	0	0	0	0	0	0	0	0	0	0	0	0	0	0	0	0	0	0	0	0	0	0
010919	09:08:22	09:20:59	754555	5.0.10.0	4_exp_EVA_AMP_AWA_CON	50	Rpleas_acq	Same	Rpleas	Bmasked	CS_B	2pleas	distractor1	EVAbeforeCON	acq_US_pleas_masked	acq45_masked	5	18	400	0	300	300	0	0	484	46	0	0	0	0	0	1	blank2r.bmp	0	1	+	0	4	B4r.bmp	492	1	blank2r.bmp	786	1	GKQX	786	1	blank2r.bmp	866	5	lachen	866	1	!	1239	1	!	-1	0	0	0	0	0	0	0	0	0	0	0	0	0	0	0	0	0	0	0	0	0	0	0	0	0	0	0
010919	09:08:22	09:21:01	756660	5.0.10.0	4_exp_EVA_AMP_AWA_CON	50	Rpleas_acq	Same	Rpleas	Bmasked	CS_B	2pleas	distractor1	EVAbeforeCON	acq_US_unple_masked	acq45_masked	5	19	400	0	300	300	0	0	312	50	0	0	0	0	0	1	blank2r.bmp	0	1	+	0	3	B3r.bmp	492	1	blank2r.bmp	786	1	BMVZ	786	1	blank2r.bmp	866	2	lasch	866	1	!	-1	1	!	-1	0	0	0	0	0	0	0	0	0	0	0	0	0	0	0	0	0	0	0	0	0	0	0	0	0	0	0
010919	09:08:22	09:21:03	758899	5.0.10.0	4_exp_EVA_AMP_AWA_CON	50	Rpleas_acq	Same	Rpleas	Bmasked	CS_B	2pleas	distractor1	EVAbeforeCON	acq_US_unple_masked	acq45_masked	5	20	400	1	300	300	0	0	432	46	0	1	0	0	0	1	blank2r.bmp	0	1	+	0	5	C1r.bmp	492	1	blank2r.bmp	786	1	BMVZ	786	1	blank2r.bmp	866	5	leiden	866	1	!	1239	1	!	1332	0	0	0	0	0	0	0	0	0	0	0	0	0	0	0	0	0	0	0	0	0	0	0	0	0	0	0
010919	09:08:22	09:21:05	760952	5.0.10.0	4_exp_EVA_AMP_AWA_CON	50	Rpleas_acq	Same	Rpleas	Bmasked	CS_B	2pleas	distractor1	EVAbeforeCON	acq_US_pleas_masked	acq45_masked	5	21	400	0	300	300	0	0	281	50	0	1	0	0	0	1	blank2r.bmp	0	1	+	0	1	B1r.bmp	492	1	blank2r.bmp	786	1	GKQX	786	1	blank2r.bmp	866	6	helfen	866	1	!	-1	1	!	-1	0	0	0	0	0	0	0	0	0	0	0	0	0	0	0	0	0	0	0	0	0	0	0	0	0	0	0
010919	09:08:22	09:21:08	763231	5.0.10.0	4_exp_EVA_AMP_AWA_CON	50	Rpleas_acq	Same	Rpleas	Bmasked	CS_B	2pleas	distractor1	EVAbeforeCON	acq_US_pleas_masked	acq45_masked	5	22	400	0	300	300	0	0	479	46	0	0	0	0	0	1	blank2r.bmp	0	1	+	0	6	C2r.bmp	492	1	blank2r.bmp	786	1	GKQX	786	1	blank2r.bmp	866	2	loyal	866	1	!	1239	1	!	-1	0	0	0	0	0	0	0	0	0	0	0	0	0	0	0	0	0	0	0	0	0	0	0	0	0	0	0
010919	09:08:22	09:21:10	765510	5.0.10.0	4_exp_EVA_AMP_AWA_CON	50	Rpleas_acq	Same	Rpleas	Bmasked	CS_B	2pleas	distractor1	EVAbeforeCON	acq_US_pleas_masked	acq45_masked	5	23	400	0	300	300	0	0	497	50	0	1	0	0	0	1	blank2r.bmp	0	1	+	0	7	C3r.bmp	492	1	blank2r.bmp	786	1	GKQX	786	1	blank2r.bmp	866	3	tolerant	866	1	!	1239	1	!	-1	0	0	0	0	0	0	0	0	0	0	0	0	0	0	0	0	0	0	0	0	0	0	0	0	0	0	0
010919	09:08:22	09:21:12	767816	5.0.10.0	4_exp_EVA_AMP_AWA_CON	50	Rpleas_acq	Same	Rpleas	Bmasked	CS_B	2pleas	distractor1	EVAbeforeCON	acq_US_unple_masked	acq45_masked	5	24	400	0	300	300	0	0	521	46	0	1	0	0	0	1	blank2r.bmp	0	1	+	0	8	C4r.bmp	492	1	blank2r.bmp	786	1	BMVZ	786	1	blank2r.bmp	866	6	hindern	866	1	!	1239	1	!	-1	0	0	0	0	0	0	0	0	0	0	0	0	0	0	0	0	0	0	0	0	0	0	0	0	0	0	0
010919	09:08:22	09:21:14	770082	5.0.10.0	4_exp_EVA_AMP_AWA_CON	50	Rpleas_acq	Same	Rpleas	Bmasked	CS_B	2pleas	distractor1	EVAbeforeCON	acq_US_pleas_masked	acq45_masked	5	25	400	1	300	300	0	0	442	50	0	1	0	0	0	1	blank2r.bmp	0	1	+	0	3	B3r.bmp	492	1	blank2r.bmp	786	1	GKQX	786	1	blank2r.bmp	866	5	lachen	866	1	!	1239	1	!	1346	0	0	0	0	0	0	0	0	0	0	0	0	0	0	0	0	0	0	0	0	0	0	0	0	0	0	0
010919	09:08:22	09:21:17	772347	5.0.10.0	4_exp_EVA_AMP_AWA_CON	50	Rpleas_acq	Same	Rpleas	Bmasked	CS_B	2pleas	distractor1	EVAbeforeCON	acq_US_unple_masked	acq45_masked	5	26	400	0	300	300	0	0	493	46	0	1	0	0	0	1	blank2r.bmp	0	1	+	0	2	B2r.bmp	492	1	blank2r.bmp	786	1	BMVZ	786	1	blank2r.bmp	866	4	fanatisch	866	1	!	1239	1	!	-1	0	0	0	0	0	0	0	0	0	0	0	0	0	0	0	0	0	0	0	0	0	0	0	0	0	0	0
010919	09:08:22	09:21:19	774626	5.0.10.0	4_exp_EVA_AMP_AWA_CON	50	Rpleas_acq	Same	Rpleas	Bmasked	CS_B	2pleas	distractor1	EVAbeforeCON	acq_US_pleas_masked	acq45_masked	5	27	400	0	300	300	0	0	495	50	0	1	0	0	0	1	blank2r.bmp	0	1	+	0	8	C4r.bmp	492	1	blank2r.bmp	786	1	GKQX	786	1	blank2r.bmp	866	3	tolerant	866	1	!	1239	1	!	-1	0	0	0	0	0	0	0	0	0	0	0	0	0	0	0	0	0	0	0	0	0	0	0	0	0	0	0
010919	09:08:22	09:21:21	776919	5.0.10.0	4_exp_EVA_AMP_AWA_CON	50	Rpleas_acq	Same	Rpleas	Bmasked	CS_B	2pleas	distractor1	EVAbeforeCON	acq_US_unple_masked	acq45_masked	5	28	400	0	300	300	0	0	511	46	0	1	0	0	0	1	blank2r.bmp	0	1	+	0	6	C2r.bmp	492	1	blank2r.bmp	786	1	BMVZ	786	1	blank2r.bmp	866	6	hindern	866	1	!	1239	1	!	-1	0	0	0	0	0	0	0	0	0	0	0	0	0	0	0	0	0	0	0	0	0	0	0	0	0	0	0
010919	09:08:22	09:21:23	779104	5.0.10.0	4_exp_EVA_AMP_AWA_CON	50	Rpleas_acq	Same	Rpleas	Bmasked	CS_B	2pleas	distractor1	EVAbeforeCON	acq_US_pleas_masked	acq45_masked	5	29	400	1	300	300	0	0	384	50	0	1	0	0	0	1	blank2r.bmp	0	1	+	0	5	C1r.bmp	492	1	blank2r.bmp	786	1	GKQX	786	1	blank2r.bmp	866	1	spielen	866	1	!	1239	1	!	1279	0	0	0	0	0	0	0	0	0	0	0	0	0	0	0	0	0	0	0	0	0	0	0	0	0	0	0
010919	09:08:22	09:21:26	781264	5.0.10.0	4_exp_EVA_AMP_AWA_CON	50	Rpleas_acq	Same	Rpleas	Bmasked	CS_B	2pleas	distractor1	EVAbeforeCON	acq_US_unple_masked	acq45_masked	5	30	400	1	300	300	0	0	365	50	0	0	0	0	0	1	blank2r.bmp	0	1	+	0	1	B1r.bmp	492	1	blank2r.bmp	786	1	BMVZ	786	1	blank2r.bmp	866	2	lasch	866	1	!	1239	1	!	1266	0	0	0	0	0	0	0	0	0	0	0	0	0	0	0	0	0	0	0	0	0	0	0	0	0	0	0
010919	09:08:22	09:21:28	783636	5.0.10.0	4_exp_EVA_AMP_AWA_CON	50	Rpleas_acq	Same	Rpleas	Bmasked	CS_B	2pleas	distractor1	EVAbeforeCON	acq_US_unple_masked	acq45_masked	5	31	400	0	300	300	0	0	606	46	0	1	0	0	0	1	blank2r.bmp	0	1	+	0	4	B4r.bmp	492	1	blank2r.bmp	786	1	BMVZ	786	1	blank2r.bmp	866	3	tyrannisch	866	1	!	1239	1	!	-1	0	0	0	0	0	0	0	0	0	0	0	0	0	0	0	0	0	0	0	0	0	0	0	0	0	0	0
010919	09:08:22	09:21:30	785862	5.0.10.0	4_exp_EVA_AMP_AWA_CON	50	Rpleas_acq	Same	Rpleas	Bmasked	CS_B	2pleas	distractor1	EVAbeforeCON	acq_US_pleas_masked	acq45_masked	5	32	400	1	300	300	0	0	420	50	0	1	0	0	0	1	blank2r.bmp	0	1	+	0	7	C3r.bmp	492	1	blank2r.bmp	786	1	GKQX	786	1	blank2r.bmp	866	6	helfen	866	1	!	1239	1	!	1319	0	0	0	0	0	0	0	0	0	0	0	0	0	0	0	0	0	0	0	0	0	0	0	0	0	0	0
010919	09:08:22	09:21:32	788127	5.0.10.0	4_exp_EVA_AMP_AWA_CON	50	Rpleas_acq	Same	Rpleas	Bmasked	CS_B	2pleas	distractor1	EVAbeforeCON	acq_US_unple_masked	acq45_masked	5	33	400	1	300	300	0	0	457	46	0	1	0	0	0	1	blank2r.bmp	0	1	+	0	6	C2r.bmp	492	1	blank2r.bmp	786	1	BMVZ	786	1	blank2r.bmp	866	1	strafen	866	1	!	1239	1	!	1359	0	0	0	0	0	0	0	0	0	0	0	0	0	0	0	0	0	0	0	0	0	0	0	0	0	0	0
010919	09:08:22	09:21:35	790313	5.0.10.0	4_exp_EVA_AMP_AWA_CON	50	Rpleas_acq	Same	Rpleas	Bmasked	CS_B	2pleas	distractor1	EVAbeforeCON	acq_US_pleas_masked	acq45_masked	5	34	400	1	300	300	0	0	396	50	0	1	0	0	0	1	blank2r.bmp	0	1	+	0	8	C4r.bmp	492	1	blank2r.bmp	786	1	GKQX	786	1	blank2r.bmp	866	2	loyal	866	1	!	1239	1	!	1292	0	0	0	0	0	0	0	0	0	0	0	0	0	0	0	0	0	0	0	0	0	0	0	0	0	0	0
010919	09:08:22	09:21:37	792659	5.0.10.0	4_exp_EVA_AMP_AWA_CON	50	Rpleas_acq	Same	Rpleas	Bmasked	CS_B	2pleas	distractor1	EVAbeforeCON	acq_US_unple_masked	acq45_masked	5	35	400	0	300	300	0	0	578	46	0	1	0	0	0	1	blank2r.bmp	0	1	+	0	4	B4r.bmp	492	1	blank2r.bmp	786	1	BMVZ	786	1	blank2r.bmp	866	5	leiden	866	1	!	1239	1	!	-1	0	0	0	0	0	0	0	0	0	0	0	0	0	0	0	0	0	0	0	0	0	0	0	0	0	0	0
010919	09:08:22	09:21:39	794858	5.0.10.0	4_exp_EVA_AMP_AWA_CON	50	Rpleas_acq	Same	Rpleas	Bmasked	CS_B	2pleas	distractor1	EVAbeforeCON	acq_US_pleas_masked	acq45_masked	5	36	400	1	300	300	0	0	387	50	0	1	0	0	0	1	blank2r.bmp	0	1	+	0	3	B3r.bmp	492	1	blank2r.bmp	786	1	GKQX	786	1	blank2r.bmp	866	4	freundlich	866	1	!	1239	1	!	1292	0	0	0	0	0	0	0	0	0	0	0	0	0	0	0	0	0	0	0	0	0	0	0	0	0	0	0
010919	09:08:22	09:22:28	843611	5.0.10.0	4_exp_EVA_AMP_AWA_CON	50	Rpleas_acq	Same	Rpleas	Bmasked	CS_B	2pleas	distractor1	EVAbeforeCON	EvalRating_firsttwo	EvalRating_firsttwo	6	1	0	0	300	300	0	0	11284	line	-21,484375	0	0	0	0	1	eraser	1	1	Wie angenehm oder unangenehm finden Sie die  Buchstabenkette WFPH?	1	1	leftborder	1	1	rightborder	1	1	line	1	1	Unangenehm	1	1	Angenehm	1	0	0	0	0	0	0	0	0	0	0	0	0	0	0	0	0	0	0	0	0	0	0	0	0	0	0	0	0	0	0	0	0	0
010919	09:08:22	09:22:32	848143	5.0.10.0	4_exp_EVA_AMP_AWA_CON	50	Rpleas_acq	Same	Rpleas	Bmasked	CS_B	2pleas	distractor1	EVAbeforeCON	EvalRating_lastfour	EvalRating_lastfour	7	1	0	0	300	300	0	0	2085	line	41,50390625	0	0	0	0	1	eraser	1	1	Wie angenehm oder unangenehm finden Sie die  Buchstabenkette BMVZ?	1	1	leftborder	1	1	rightborder	1	1	line	1	1	Unangenehm	1	1	Angenehm	1	0	0	0	0	0	0	0	0	0	0	0	0	0	0	0	0	0	0	0	0	0	0	0	0	0	0	0	0	0	0	0	0	0
010919	09:08:22	09:22:35	850515	5.0.10.0	4_exp_EVA_AMP_AWA_CON	50	Rpleas_acq	Same	Rpleas	Bmasked	CS_B	2pleas	distractor1	EVAbeforeCON	blank_screen	EvalRating_lastfour	7	3	0	0	300	300	0	0	0	0	41,50390625	0	0	0	0	1	eraser	0	0	0	0	0	0	0	0	0	0	0	0	0	0	0	0	0	0	0	0	0	0	0	0	0	0	0	0	0	0	0	0	0	0	0	0	0	0	0	0	0	0	0	0	0	0	0	0	0	0	0	0
010919	09:08:22	09:22:40	856059	5.0.10.0	4_exp_EVA_AMP_AWA_CON	50	Rpleas_acq	Same	Rpleas	Bmasked	CS_B	2pleas	distractor1	EVAbeforeCON	EvalRating_lastfour	EvalRating_lastfour	7	4	0	0	300	300	0	0	4959	line	-70,556640625	0	0	0	0	1	eraser	1	2	Wie angenehm oder unangenehm finden Sie die  Buchstabenkette GKQX?	1	1	leftborder	1	1	rightborder	1	1	line	1	1	Unangenehm	1	1	Angenehm	1	0	0	0	0	0	0	0	0	0	0	0	0	0	0	0	0	0	0	0	0	0	0	0	0	0	0	0	0	0	0	0	0	0
010919	09:08:22	09:22:43	858445	5.0.10.0	4_exp_EVA_AMP_AWA_CON	50	Rpleas_acq	Same	Rpleas	Bmasked	CS_B	2pleas	distractor1	EVAbeforeCON	blank_screen	EvalRating_lastfour	7	6	0	0	300	300	0	0	0	0	-70,556640625	0	0	0	0	1	eraser	0	0	0	0	0	0	0	0	0	0	0	0	0	0	0	0	0	0	0	0	0	0	0	0	0	0	0	0	0	0	0	0	0	0	0	0	0	0	0	0	0	0	0	0	0	0	0	0	0	0	0	0
010919	09:08:22	09:22:47	862843	5.0.10.0	4_exp_EVA_AMP_AWA_CON	50	Rpleas_acq	Same	Rpleas	Bmasked	CS_B	2pleas	distractor1	EVAbeforeCON	EvalRating_lastfour	EvalRating_lastfour	7	7	0	0	300	300	0	0	3812	line	-3,662109375	0	0	0	0	1	eraser	1	3	Wie angenehm oder unangenehm finden Sie die  Buchstabenkette JCRD?	1	1	leftborder	1	1	rightborder	1	1	line	1	1	Unangenehm	1	1	Angenehm	1	0	0	0	0	0	0	0	0	0	0	0	0	0	0	0	0	0	0	0	0	0	0	0	0	0	0	0	0	0	0	0	0	0
010919	09:08:22	09:24:09	944263	5.0.10.0	4_exp_EVA_AMP_AWA_CON	50	Rpleas_acq	Same	Rpleas	Bmasked	CS_B	2pleas	distractor1	EVAbeforeCON	AMP_CSpleas	AMP1_masked	8	1	0	0	300	300	0	0	1450	50	-3,662109375	1	0	0	0	1	blank2r.bmp	0	1	GKQX	0	1	blank2r.bmp	79	14	pic14.bmp	199	1	whitenoise_No3.bmp	306	0	0	0	0	0	0	0	0	0	0	0	0	0	0	0	0	0	0	0	0	0	0	0	0	0	0	0	0	0	0	0	0	0	0	0	0	0	0	0
010919	09:08:22	09:24:10	945889	5.0.10.0	4_exp_EVA_AMP_AWA_CON	50	Rpleas_acq	Same	Rpleas	Bmasked	CS_B	2pleas	distractor1	EVAbeforeCON	AMP_CSunple	AMP1_masked	8	2	0	0	300	300	0	0	692	46	-3,662109375	1	0	0	0	1	blank2r.bmp	0	1	BMVZ	0	1	blank2r.bmp	79	97	pic97.bmp	199	1	whitenoise_No3.bmp	306	0	0	0	0	0	0	0	0	0	0	0	0	0	0	0	0	0	0	0	0	0	0	0	0	0	0	0	0	0	0	0	0	0	0	0	0	0	0	0
010919	09:08:22	09:24:12	947289	5.0.10.0	4_exp_EVA_AMP_AWA_CON	50	Rpleas_acq	Same	Rpleas	Bmasked	CS_B	2pleas	distractor1	EVAbeforeCON	AMP_CSpleas	AMP1_masked	8	3	0	0	300	300	0	0	491	50	-3,662109375	1	0	0	0	1	blank2r.bmp	0	1	GKQX	0	1	blank2r.bmp	79	120	pic120.bmp	199	1	whitenoise_No3.bmp	306	0	0	0	0	0	0	0	0	0	0	0	0	0	0	0	0	0	0	0	0	0	0	0	0	0	0	0	0	0	0	0	0	0	0	0	0	0	0	0
010919	09:08:22	09:24:13	948941	5.0.10.0	4_exp_EVA_AMP_AWA_CON	50	Rpleas_acq	Same	Rpleas	Bmasked	CS_B	2pleas	distractor1	EVAbeforeCON	AMP_CSpleas	AMP1_masked	8	4	0	0	300	300	0	0	722	46	-3,662109375	0	0	0	0	1	blank2r.bmp	0	1	GKQX	0	1	blank2r.bmp	79	153	pic153.bmp	199	1	whitenoise_No3.bmp	306	0	0	0	0	0	0	0	0	0	0	0	0	0	0	0	0	0	0	0	0	0	0	0	0	0	0	0	0	0	0	0	0	0	0	0	0	0	0	0
010919	09:08:22	09:24:15	950314	5.0.10.0	4_exp_EVA_AMP_AWA_CON	50	Rpleas_acq	Same	Rpleas	Bmasked	CS_B	2pleas	distractor1	EVAbeforeCON	AMP_CSpleas	AMP1_masked	8	5	0	0	300	300	0	0	449	50	-3,662109375	1	0	0	0	1	blank2r.bmp	0	1	GKQX	0	1	blank2r.bmp	79	73	pic73.bmp	199	1	whitenoise_No3.bmp	306	0	0	0	0	0	0	0	0	0	0	0	0	0	0	0	0	0	0	0	0	0	0	0	0	0	0	0	0	0	0	0	0	0	0	0	0	0	0	0
010919	09:08:22	09:24:16	952047	5.0.10.0	4_exp_EVA_AMP_AWA_CON	50	Rpleas_acq	Same	Rpleas	Bmasked	CS_B	2pleas	distractor1	EVAbeforeCON	AMP_distractor	AMP1_masked	8	6	0	0	300	300	0	0	799	46	-3,662109375	0	0	0	0	1	blank2r.bmp	0	1	WFPH	0	1	blank2r.bmp	79	80	pic80.bmp	199	1	whitenoise_No3.bmp	306	0	0	0	0	0	0	0	0	0	0	0	0	0	0	0	0	0	0	0	0	0	0	0	0	0	0	0	0	0	0	0	0	0	0	0	0	0	0	0
010919	09:08:22	09:24:19	954152	5.0.10.0	4_exp_EVA_AMP_AWA_CON	50	Rpleas_acq	Same	Rpleas	Bmasked	CS_B	2pleas	distractor1	EVAbeforeCON	AMP_CSpleas	AMP1_masked	8	7	0	0	300	300	0	0	1185	46	-3,662109375	0	0	0	0	1	blank2r.bmp	0	1	GKQX	0	1	blank2r.bmp	79	101	pic101.bmp	199	1	whitenoise_No3.bmp	306	0	0	0	0	0	0	0	0	0	0	0	0	0	0	0	0	0	0	0	0	0	0	0	0	0	0	0	0	0	0	0	0	0	0	0	0	0	0	0
010919	09:08:22	09:24:20	955712	5.0.10.0	4_exp_EVA_AMP_AWA_CON	50	Rpleas_acq	Same	Rpleas	Bmasked	CS_B	2pleas	distractor1	EVAbeforeCON	AMP_CSunple	AMP1_masked	8	8	0	0	300	300	0	0	644	50	-3,662109375	0	0	0	0	1	blank2r.bmp	0	1	BMVZ	0	1	blank2r.bmp	79	123	pic123.bmp	199	1	whitenoise_No3.bmp	306	0	0	0	0	0	0	0	0	0	0	0	0	0	0	0	0	0	0	0	0	0	0	0	0	0	0	0	0	0	0	0	0	0	0	0	0	0	0	0
010919	09:08:22	09:24:21	957111	5.0.10.0	4_exp_EVA_AMP_AWA_CON	50	Rpleas_acq	Same	Rpleas	Bmasked	CS_B	2pleas	distractor1	EVAbeforeCON	AMP_CSunple	AMP1_masked	8	9	0	0	300	300	0	0	470	46	-3,662109375	1	0	0	0	1	blank2r.bmp	0	1	BMVZ	0	1	blank2r.bmp	79	124	pic124.bmp	199	1	whitenoise_No3.bmp	306	0	0	0	0	0	0	0	0	0	0	0	0	0	0	0	0	0	0	0	0	0	0	0	0	0	0	0	0	0	0	0	0	0	0	0	0	0	0	0
010919	09:08:22	09:24:23	958577	5.0.10.0	4_exp_EVA_AMP_AWA_CON	50	Rpleas_acq	Same	Rpleas	Bmasked	CS_B	2pleas	distractor1	EVAbeforeCON	AMP_CSpleas	AMP1_masked	8	10	0	0	300	300	0	0	545	50	-3,662109375	1	0	0	0	1	blank2r.bmp	0	1	GKQX	0	1	blank2r.bmp	79	109	pic109.bmp	199	1	whitenoise_No3.bmp	306	0	0	0	0	0	0	0	0	0	0	0	0	0	0	0	0	0	0	0	0	0	0	0	0	0	0	0	0	0	0	0	0	0	0	0	0	0	0	0
010919	09:08:22	09:24:25	960203	5.0.10.0	4_exp_EVA_AMP_AWA_CON	50	Rpleas_acq	Same	Rpleas	Bmasked	CS_B	2pleas	distractor1	EVAbeforeCON	AMP_distractor	AMP1_masked	8	11	0	0	300	300	0	0	705	50	-3,662109375	0	0	0	0	1	blank2r.bmp	0	1	WFPH	0	1	blank2r.bmp	79	115	pic115.bmp	199	1	whitenoise_No3.bmp	306	0	0	0	0	0	0	0	0	0	0	0	0	0	0	0	0	0	0	0	0	0	0	0	0	0	0	0	0	0	0	0	0	0	0	0	0	0	0	0
010919	09:08:22	09:24:26	961576	5.0.10.0	4_exp_EVA_AMP_AWA_CON	50	Rpleas_acq	Same	Rpleas	Bmasked	CS_B	2pleas	distractor1	EVAbeforeCON	AMP_CSpleas	AMP1_masked	8	12	0	0	300	300	0	0	453	46	-3,662109375	0	0	0	0	1	blank2r.bmp	0	1	GKQX	0	1	blank2r.bmp	79	96	pic96.bmp	199	1	whitenoise_No3.bmp	306	0	0	0	0	0	0	0	0	0	0	0	0	0	0	0	0	0	0	0	0	0	0	0	0	0	0	0	0	0	0	0	0	0	0	0	0	0	0	0
010919	09:08:22	09:24:27	962869	5.0.10.0	4_exp_EVA_AMP_AWA_CON	50	Rpleas_acq	Same	Rpleas	Bmasked	CS_B	2pleas	distractor1	EVAbeforeCON	AMP_CSunple	AMP1_masked	8	13	0	0	300	300	0	0	372	50	-3,662109375	0	0	0	0	1	blank2r.bmp	0	1	BMVZ	0	1	blank2r.bmp	79	111	pic111.bmp	199	1	whitenoise_No3.bmp	306	0	0	0	0	0	0	0	0	0	0	0	0	0	0	0	0	0	0	0	0	0	0	0	0	0	0	0	0	0	0	0	0	0	0	0	0	0	0	0
010919	09:08:22	09:24:29	964428	5.0.10.0	4_exp_EVA_AMP_AWA_CON	50	Rpleas_acq	Same	Rpleas	Bmasked	CS_B	2pleas	distractor1	EVAbeforeCON	AMP_distractor	AMP1_masked	8	14	0	0	300	300	0	0	644	50	-3,662109375	0	0	0	0	1	blank2r.bmp	0	1	WFPH	0	1	blank2r.bmp	79	113	pic113.bmp	199	1	whitenoise_No3.bmp	306	0	0	0	0	0	0	0	0	0	0	0	0	0	0	0	0	0	0	0	0	0	0	0	0	0	0	0	0	0	0	0	0	0	0	0	0	0	0	0
010919	09:08:22	09:24:30	965814	5.0.10.0	4_exp_EVA_AMP_AWA_CON	50	Rpleas_acq	Same	Rpleas	Bmasked	CS_B	2pleas	distractor1	EVAbeforeCON	AMP_distractor	AMP1_masked	8	15	0	0	300	300	0	0	459	46	-3,662109375	0	0	0	0	1	blank2r.bmp	0	1	WFPH	0	1	blank2r.bmp	79	47	pic47.bmp	199	1	whitenoise_No3.bmp	306	0	0	0	0	0	0	0	0	0	0	0	0	0	0	0	0	0	0	0	0	0	0	0	0	0	0	0	0	0	0	0	0	0	0	0	0	0	0	0
010919	09:08:22	09:24:32	967174	5.0.10.0	4_exp_EVA_AMP_AWA_CON	50	Rpleas_acq	Same	Rpleas	Bmasked	CS_B	2pleas	distractor1	EVAbeforeCON	AMP_distractor	AMP1_masked	8	16	0	0	300	300	0	0	438	50	-3,662109375	0	0	0	0	1	blank2r.bmp	0	1	WFPH	0	1	blank2r.bmp	79	15	pic15.bmp	199	1	whitenoise_No3.bmp	306	0	0	0	0	0	0	0	0	0	0	0	0	0	0	0	0	0	0	0	0	0	0	0	0	0	0	0	0	0	0	0	0	0	0	0	0	0	0	0
010919	09:08:22	09:24:33	968493	5.0.10.0	4_exp_EVA_AMP_AWA_CON	50	Rpleas_acq	Same	Rpleas	Bmasked	CS_B	2pleas	distractor1	EVAbeforeCON	AMP_distractor	AMP1_masked	8	17	0	0	300	300	0	0	402	50	-3,662109375	0	0	0	0	1	blank2r.bmp	0	1	WFPH	0	1	blank2r.bmp	79	7	pic7.bmp	199	1	whitenoise_No3.bmp	306	0	0	0	0	0	0	0	0	0	0	0	0	0	0	0	0	0	0	0	0	0	0	0	0	0	0	0	0	0	0	0	0	0	0	0	0	0	0	0
010919	09:08:22	09:24:35	970199	5.0.10.0	4_exp_EVA_AMP_AWA_CON	50	Rpleas_acq	Same	Rpleas	Bmasked	CS_B	2pleas	distractor1	EVAbeforeCON	AMP_CSunple	AMP1_masked	8	18	0	0	300	300	0	0	796	46	-3,662109375	1	0	0	0	1	blank2r.bmp	0	1	BMVZ	0	1	blank2r.bmp	79	118	pic118.bmp	199	1	whitenoise_No3.bmp	306	0	0	0	0	0	0	0	0	0	0	0	0	0	0	0	0	0	0	0	0	0	0	0	0	0	0	0	0	0	0	0	0	0	0	0	0	0	0	0
010919	09:08:22	09:24:36	971412	5.0.10.0	4_exp_EVA_AMP_AWA_CON	50	Rpleas_acq	Same	Rpleas	Bmasked	CS_B	2pleas	distractor1	EVAbeforeCON	AMP_CSunple	AMP1_masked	8	19	0	0	300	300	0	0	284	50	-3,662109375	0	0	0	0	1	blank2r.bmp	0	1	BMVZ	0	1	blank2r.bmp	79	18	pic18.bmp	199	1	whitenoise_No3.bmp	306	0	0	0	0	0	0	0	0	0	0	0	0	0	0	0	0	0	0	0	0	0	0	0	0	0	0	0	0	0	0	0	0	0	0	0	0	0	0	0
010919	09:08:22	09:24:37	972665	5.0.10.0	4_exp_EVA_AMP_AWA_CON	50	Rpleas_acq	Same	Rpleas	Bmasked	CS_B	2pleas	distractor1	EVAbeforeCON	AMP_CSpleas	AMP1_masked	8	20	0	0	300	300	0	0	336	50	-3,662109375	1	0	0	0	1	blank2r.bmp	0	1	GKQX	0	1	blank2r.bmp	79	150	pic150.bmp	199	1	whitenoise_No3.bmp	306	0	0	0	0	0	0	0	0	0	0	0	0	0	0	0	0	0	0	0	0	0	0	0	0	0	0	0	0	0	0	0	0	0	0	0	0	0	0	0
010919	09:08:22	09:24:38	974051	5.0.10.0	4_exp_EVA_AMP_AWA_CON	50	Rpleas_acq	Same	Rpleas	Bmasked	CS_B	2pleas	distractor1	EVAbeforeCON	AMP_CSunple	AMP1_masked	8	21	0	0	300	300	0	0	478	46	-3,662109375	1	0	0	0	1	blank2r.bmp	0	1	BMVZ	0	1	blank2r.bmp	79	89	pic89.bmp	199	1	whitenoise_No3.bmp	306	0	0	0	0	0	0	0	0	0	0	0	0	0	0	0	0	0	0	0	0	0	0	0	0	0	0	0	0	0	0	0	0	0	0	0	0	0	0	0
010919	09:08:22	09:24:40	975277	5.0.10.0	4_exp_EVA_AMP_AWA_CON	50	Rpleas_acq	Same	Rpleas	Bmasked	CS_B	2pleas	distractor1	EVAbeforeCON	AMP_distractor	AMP1_masked	8	22	0	0	300	300	0	0	297	50	-3,662109375	0	0	0	0	1	blank2r.bmp	0	1	WFPH	0	1	blank2r.bmp	79	42	pic42.bmp	199	1	whitenoise_No3.bmp	306	0	0	0	0	0	0	0	0	0	0	0	0	0	0	0	0	0	0	0	0	0	0	0	0	0	0	0	0	0	0	0	0	0	0	0	0	0	0	0
010919	09:08:22	09:24:41	976823	5.0.10.0	4_exp_EVA_AMP_AWA_CON	50	Rpleas_acq	Same	Rpleas	Bmasked	CS_B	2pleas	distractor1	EVAbeforeCON	AMP_distractor	AMP1_masked	8	23	0	0	300	300	0	0	621	46	-3,662109375	0	0	0	0	1	blank2r.bmp	0	1	WFPH	0	1	blank2r.bmp	79	106	pic106.bmp	199	1	whitenoise_No3.bmp	306	0	0	0	0	0	0	0	0	0	0	0	0	0	0	0	0	0	0	0	0	0	0	0	0	0	0	0	0	0	0	0	0	0	0	0	0	0	0	0
010919	09:08:22	09:24:43	978236	5.0.10.0	4_exp_EVA_AMP_AWA_CON	50	Rpleas_acq	Same	Rpleas	Bmasked	CS_B	2pleas	distractor1	EVAbeforeCON	AMP_distractor	AMP1_masked	8	24	0	0	300	300	0	0	502	50	-3,662109375	0	0	0	0	1	blank2r.bmp	0	1	WFPH	0	1	blank2r.bmp	79	25	pic25.bmp	199	1	whitenoise_No3.bmp	306	0	0	0	0	0	0	0	0	0	0	0	0	0	0	0	0	0	0	0	0	0	0	0	0	0	0	0	0	0	0	0	0	0	0	0	0	0	0	0
010919	09:08:22	09:24:44	979955	5.0.10.0	4_exp_EVA_AMP_AWA_CON	50	Rpleas_acq	Same	Rpleas	Bmasked	CS_B	2pleas	distractor1	EVAbeforeCON	AMP_CSpleas	AMP1_masked	8	25	0	0	300	300	0	0	793	46	-3,662109375	0	0	0	0	1	blank2r.bmp	0	1	GKQX	0	1	blank2r.bmp	79	146	pic146.bmp	199	1	whitenoise_No3.bmp	306	0	0	0	0	0	0	0	0	0	0	0	0	0	0	0	0	0	0	0	0	0	0	0	0	0	0	0	0	0	0	0	0	0	0	0	0	0	0	0
010919	09:08:22	09:24:46	981261	5.0.10.0	4_exp_EVA_AMP_AWA_CON	50	Rpleas_acq	Same	Rpleas	Bmasked	CS_B	2pleas	distractor1	EVAbeforeCON	AMP_CSunple	AMP1_masked	8	26	0	0	300	300	0	0	377	50	-3,662109375	0	0	0	0	1	blank2r.bmp	0	1	BMVZ	0	1	blank2r.bmp	79	81	pic81.bmp	199	1	whitenoise_No3.bmp	306	0	0	0	0	0	0	0	0	0	0	0	0	0	0	0	0	0	0	0	0	0	0	0	0	0	0	0	0	0	0	0	0	0	0	0	0	0	0	0
010919	09:08:22	09:24:47	982781	5.0.10.0	4_exp_EVA_AMP_AWA_CON	50	Rpleas_acq	Same	Rpleas	Bmasked	CS_B	2pleas	distractor1	EVAbeforeCON	AMP_CSunple	AMP1_masked	8	27	0	0	300	300	0	0	603	50	-3,662109375	0	0	0	0	1	blank2r.bmp	0	1	BMVZ	0	1	blank2r.bmp	79	75	pic75.bmp	199	1	whitenoise_No3.bmp	306	0	0	0	0	0	0	0	0	0	0	0	0	0	0	0	0	0	0	0	0	0	0	0	0	0	0	0	0	0	0	0	0	0	0	0	0	0	0	0
010919	09:08:22	09:24:49	984300	5.0.10.0	4_exp_EVA_AMP_AWA_CON	50	Rpleas_acq	Same	Rpleas	Bmasked	CS_B	2pleas	distractor1	EVAbeforeCON	AMP_CSunple	AMP1_masked	8	28	0	0	300	300	0	0	597	46	-3,662109375	1	0	0	0	1	blank2r.bmp	0	1	BMVZ	0	1	blank2r.bmp	79	138	pic138.bmp	199	1	whitenoise_No3.bmp	306	0	0	0	0	0	0	0	0	0	0	0	0	0	0	0	0	0	0	0	0	0	0	0	0	0	0	0	0	0	0	0	0	0	0	0	0	0	0	0
010919	09:08:22	09:24:50	985686	5.0.10.0	4_exp_EVA_AMP_AWA_CON	50	Rpleas_acq	Same	Rpleas	Bmasked	CS_B	2pleas	distractor1	EVAbeforeCON	AMP_distractor	AMP1_masked	8	29	0	0	300	300	0	0	462	50	-3,662109375	0	0	0	0	1	blank2r.bmp	0	1	WFPH	0	1	blank2r.bmp	79	12	pic12.bmp	199	1	whitenoise_No3.bmp	306	0	0	0	0	0	0	0	0	0	0	0	0	0	0	0	0	0	0	0	0	0	0	0	0	0	0	0	0	0	0	0	0	0	0	0	0	0	0	0
010919	09:08:22	09:24:52	987205	5.0.10.0	4_exp_EVA_AMP_AWA_CON	50	Rpleas_acq	Same	Rpleas	Bmasked	CS_B	2pleas	distractor1	EVAbeforeCON	AMP_CSpleas	AMP1_masked	8	30	0	0	300	300	0	0	607	46	-3,662109375	0	0	0	0	1	blank2r.bmp	0	1	GKQX	0	1	blank2r.bmp	79	35	pic35.bmp	199	1	whitenoise_No3.bmp	306	0	0	0	0	0	0	0	0	0	0	0	0	0	0	0	0	0	0	0	0	0	0	0	0	0	0	0	0	0	0	0	0	0	0	0	0	0	0	0
010919	09:08:22	09:24:53	988658	5.0.10.0	4_exp_EVA_AMP_AWA_CON	50	Rpleas_acq	Same	Rpleas	Bmasked	CS_B	2pleas	distractor1	EVAbeforeCON	AMP_CSunple	AMP1_masked	8	31	0	0	300	300	0	0	526	50	-3,662109375	0	0	0	0	1	blank2r.bmp	0	1	BMVZ	0	1	blank2r.bmp	79	107	pic107.bmp	199	1	whitenoise_No3.bmp	306	0	0	0	0	0	0	0	0	0	0	0	0	0	0	0	0	0	0	0	0	0	0	0	0	0	0	0	0	0	0	0	0	0	0	0	0	0	0	0
010919	09:08:22	09:24:55	991057	5.0.10.0	4_exp_EVA_AMP_AWA_CON	50	Rpleas_acq	Same	Rpleas	Bmasked	CS_B	2pleas	distractor1	EVAbeforeCON	AMP_CSunple	AMP1_masked	8	32	0	0	300	300	0	0	1465	50	-3,662109375	0	0	0	0	1	blank2r.bmp	0	1	BMVZ	0	1	blank2r.bmp	79	126	pic126.bmp	199	1	whitenoise_No3.bmp	306	0	0	0	0	0	0	0	0	0	0	0	0	0	0	0	0	0	0	0	0	0	0	0	0	0	0	0	0	0	0	0	0	0	0	0	0	0	0	0
010919	09:08:22	09:24:57	992430	5.0.10.0	4_exp_EVA_AMP_AWA_CON	50	Rpleas_acq	Same	Rpleas	Bmasked	CS_B	2pleas	distractor1	EVAbeforeCON	AMP_CSpleas	AMP1_masked	8	33	0	0	300	300	0	0	454	46	-3,662109375	0	0	0	0	1	blank2r.bmp	0	1	GKQX	0	1	blank2r.bmp	79	51	pic51.bmp	199	1	whitenoise_No3.bmp	306	0	0	0	0	0	0	0	0	0	0	0	0	0	0	0	0	0	0	0	0	0	0	0	0	0	0	0	0	0	0	0	0	0	0	0	0	0	0	0
010919	09:08:22	09:24:58	993883	5.0.10.0	4_exp_EVA_AMP_AWA_CON	50	Rpleas_acq	Same	Rpleas	Bmasked	CS_B	2pleas	distractor1	EVAbeforeCON	AMP_distractor	AMP1_masked	8	34	0	0	300	300	0	0	540	50	-3,662109375	0	0	0	0	1	blank2r.bmp	0	1	WFPH	0	1	blank2r.bmp	79	135	pic135.bmp	199	1	whitenoise_No3.bmp	306	0	0	0	0	0	0	0	0	0	0	0	0	0	0	0	0	0	0	0	0	0	0	0	0	0	0	0	0	0	0	0	0	0	0	0	0	0	0	0
010919	09:08:22	09:25:00	995362	5.0.10.0	4_exp_EVA_AMP_AWA_CON	50	Rpleas_acq	Same	Rpleas	Bmasked	CS_B	2pleas	distractor1	EVAbeforeCON	AMP_distractor	AMP1_masked	8	35	0	0	300	300	0	0	554	50	-3,662109375	0	0	0	0	1	blank2r.bmp	0	1	WFPH	0	1	blank2r.bmp	79	72	pic72.bmp	199	1	whitenoise_No3.bmp	306	0	0	0	0	0	0	0	0	0	0	0	0	0	0	0	0	0	0	0	0	0	0	0	0	0	0	0	0	0	0	0	0	0	0	0	0	0	0	0
010919	09:08:22	09:25:02	997415	5.0.10.0	4_exp_EVA_AMP_AWA_CON	50	Rpleas_acq	Same	Rpleas	Bmasked	CS_B	2pleas	distractor1	EVAbeforeCON	AMP_distractor	AMP1_masked	8	36	0	0	300	300	0	0	1119	50	-3,662109375	0	0	0	0	1	blank2r.bmp	0	1	WFPH	0	1	blank2r.bmp	79	58	pic58.bmp	199	1	whitenoise_No3.bmp	306	0	0	0	0	0	0	0	0	0	0	0	0	0	0	0	0	0	0	0	0	0	0	0	0	0	0	0	0	0	0	0	0	0	0	0	0	0	0	0
010919	09:08:22	09:25:03	999041	5.0.10.0	4_exp_EVA_AMP_AWA_CON	50	Rpleas_acq	Same	Rpleas	Bmasked	CS_B	2pleas	distractor1	EVAbeforeCON	AMP_distractor	AMP1_masked	8	37	0	0	300	300	0	0	707	46	-3,662109375	0	0	0	0	1	blank2r.bmp	0	1	WFPH	0	1	blank2r.bmp	79	114	pic114.bmp	199	1	whitenoise_No3.bmp	306	0	0	0	0	0	0	0	0	0	0	0	0	0	0	0	0	0	0	0	0	0	0	0	0	0	0	0	0	0	0	0	0	0	0	0	0	0	0	0
010919	09:08:22	09:25:05	1000493	5.0.10.0	4_exp_EVA_AMP_AWA_CON	50	Rpleas_acq	Same	Rpleas	Bmasked	CS_B	2pleas	distractor1	EVAbeforeCON	AMP_CSunple	AMP1_masked	8	38	0	0	300	300	0	0	542	50	-3,662109375	0	0	0	0	1	blank2r.bmp	0	1	BMVZ	0	1	blank2r.bmp	79	147	pic147.bmp	199	1	whitenoise_No3.bmp	306	0	0	0	0	0	0	0	0	0	0	0	0	0	0	0	0	0	0	0	0	0	0	0	0	0	0	0	0	0	0	0	0	0	0	0	0	0	0	0
010919	09:08:22	09:25:08	1003199	5.0.10.0	4_exp_EVA_AMP_AWA_CON	50	Rpleas_acq	Same	Rpleas	Bmasked	CS_B	2pleas	distractor1	EVAbeforeCON	AMP_CSpleas	AMP1_masked	8	39	0	0	300	300	0	0	1777	46	-3,662109375	0	0	0	0	1	blank2r.bmp	0	1	GKQX	0	1	blank2r.bmp	79	121	pic121.bmp	199	1	whitenoise_No3.bmp	306	0	0	0	0	0	0	0	0	0	0	0	0	0	0	0	0	0	0	0	0	0	0	0	0	0	0	0	0	0	0	0	0	0	0	0	0	0	0	0
010919	09:08:22	09:25:09	1004412	5.0.10.0	4_exp_EVA_AMP_AWA_CON	50	Rpleas_acq	Same	Rpleas	Bmasked	CS_B	2pleas	distractor1	EVAbeforeCON	AMP_CSunple	AMP1_masked	8	40	0	0	300	300	0	0	287	50	-3,662109375	0	0	0	0	1	blank2r.bmp	0	1	BMVZ	0	1	blank2r.bmp	79	19	pic19.bmp	199	1	whitenoise_No3.bmp	306	0	0	0	0	0	0	0	0	0	0	0	0	0	0	0	0	0	0	0	0	0	0	0	0	0	0	0	0	0	0	0	0	0	0	0	0	0	0	0
010919	09:08:22	09:25:10	1005838	5.0.10.0	4_exp_EVA_AMP_AWA_CON	50	Rpleas_acq	Same	Rpleas	Bmasked	CS_B	2pleas	distractor1	EVAbeforeCON	AMP_distractor	AMP1_masked	8	41	0	0	300	300	0	0	496	46	-3,662109375	0	0	0	0	1	blank2r.bmp	0	1	WFPH	0	1	blank2r.bmp	79	144	pic144.bmp	199	1	whitenoise_No3.bmp	306	0	0	0	0	0	0	0	0	0	0	0	0	0	0	0	0	0	0	0	0	0	0	0	0	0	0	0	0	0	0	0	0	0	0	0	0	0	0	0
010919	09:08:22	09:25:12	1007357	5.0.10.0	4_exp_EVA_AMP_AWA_CON	50	Rpleas_acq	Same	Rpleas	Bmasked	CS_B	2pleas	distractor1	EVAbeforeCON	AMP_CSpleas	AMP1_masked	8	42	0	0	300	300	0	0	593	50	-3,662109375	1	0	0	0	1	blank2r.bmp	0	1	GKQX	0	1	blank2r.bmp	79	64	pic64.bmp	199	1	whitenoise_No3.bmp	306	0	0	0	0	0	0	0	0	0	0	0	0	0	0	0	0	0	0	0	0	0	0	0	0	0	0	0	0	0	0	0	0	0	0	0	0	0	0	0
010919	09:08:22	09:25:13	1008770	5.0.10.0	4_exp_EVA_AMP_AWA_CON	50	Rpleas_acq	Same	Rpleas	Bmasked	CS_B	2pleas	distractor1	EVAbeforeCON	AMP_CSpleas	AMP1_masked	8	43	0	0	300	300	0	0	485	46	-3,662109375	0	0	0	0	1	blank2r.bmp	0	1	GKQX	0	1	blank2r.bmp	79	104	pic104.bmp	199	1	whitenoise_No3.bmp	306	0	0	0	0	0	0	0	0	0	0	0	0	0	0	0	0	0	0	0	0	0	0	0	0	0	0	0	0	0	0	0	0	0	0	0	0	0	0	0
010919	09:08:22	09:25:15	1010769	5.0.10.0	4_exp_EVA_AMP_AWA_CON	50	Rpleas_acq	Same	Rpleas	Bmasked	CS_B	2pleas	distractor1	EVAbeforeCON	AMP_CSunple	AMP1_masked	8	44	0	0	300	300	0	0	1075	46	-3,662109375	1	0	0	0	1	blank2r.bmp	0	1	BMVZ	0	1	blank2r.bmp	79	39	pic39.bmp	199	1	whitenoise_No3.bmp	306	0	0	0	0	0	0	0	0	0	0	0	0	0	0	0	0	0	0	0	0	0	0	0	0	0	0	0	0	0	0	0	0	0	0	0	0	0	0	0
010919	09:08:22	09:25:17	1012288	5.0.10.0	4_exp_EVA_AMP_AWA_CON	50	Rpleas_acq	Same	Rpleas	Bmasked	CS_B	2pleas	distractor1	EVAbeforeCON	AMP_CSpleas	AMP1_masked	8	45	0	0	300	300	0	0	599	46	-3,662109375	0	0	0	0	1	blank2r.bmp	0	1	GKQX	0	1	blank2r.bmp	79	74	pic74.bmp	199	1	whitenoise_No3.bmp	306	0	0	0	0	0	0	0	0	0	0	0	0	0	0	0	0	0	0	0	0	0	0	0	0	0	0	0	0	0	0	0	0	0	0	0	0	0	0	0
010919	09:08:22	09:25:18	1013621	5.0.10.0	4_exp_EVA_AMP_AWA_CON	50	Rpleas_acq	Same	Rpleas	Bmasked	CS_B	2pleas	distractor1	EVAbeforeCON	AMP_CSunple	AMP1_masked	8	46	0	0	300	300	0	0	419	50	-3,662109375	0	0	0	0	1	blank2r.bmp	0	1	BMVZ	0	1	blank2r.bmp	79	20	pic20.bmp	199	1	whitenoise_No3.bmp	306	0	0	0	0	0	0	0	0	0	0	0	0	0	0	0	0	0	0	0	0	0	0	0	0	0	0	0	0	0	0	0	0	0	0	0	0	0	0	0
010919	09:08:22	09:25:19	1014994	5.0.10.0	4_exp_EVA_AMP_AWA_CON	50	Rpleas_acq	Same	Rpleas	Bmasked	CS_B	2pleas	distractor1	EVAbeforeCON	AMP_CSpleas	AMP1_masked	8	47	0	0	300	300	0	0	450	50	-3,662109375	1	0	0	0	1	blank2r.bmp	0	1	GKQX	0	1	blank2r.bmp	79	53	pic53.bmp	199	1	whitenoise_No3.bmp	306	0	0	0	0	0	0	0	0	0	0	0	0	0	0	0	0	0	0	0	0	0	0	0	0	0	0	0	0	0	0	0	0	0	0	0	0	0	0	0
010919	09:08:22	09:25:21	1016593	5.0.10.0	4_exp_EVA_AMP_AWA_CON	50	Rpleas_acq	Same	Rpleas	Bmasked	CS_B	2pleas	distractor1	EVAbeforeCON	AMP_CSunple	AMP1_masked	8	48	0	0	300	300	0	0	666	50	-3,662109375	0	0	0	0	1	blank2r.bmp	0	1	BMVZ	0	1	blank2r.bmp	79	36	pic36.bmp	199	1	whitenoise_No3.bmp	306	0	0	0	0	0	0	0	0	0	0	0	0	0	0	0	0	0	0	0	0	0	0	0	0	0	0	0	0	0	0	0	0	0	0	0	0	0	0	0
010919	09:08:22	09:25:23	1018273	5.0.10.0	4_exp_EVA_AMP_AWA_CON	50	Rpleas_acq	Same	Rpleas	Bmasked	CS_B	2pleas	distractor1	EVAbeforeCON	AMP_distractor	AMP1_masked	8	49	0	0	300	300	0	0	769	46	-3,662109375	0	0	0	0	1	blank2r.bmp	0	1	WFPH	0	1	blank2r.bmp	79	91	pic91.bmp	199	1	whitenoise_No3.bmp	306	0	0	0	0	0	0	0	0	0	0	0	0	0	0	0	0	0	0	0	0	0	0	0	0	0	0	0	0	0	0	0	0	0	0	0	0	0	0	0
010919	09:08:22	09:25:24	1019765	5.0.10.0	4_exp_EVA_AMP_AWA_CON	50	Rpleas_acq	Same	Rpleas	Bmasked	CS_B	2pleas	distractor1	EVAbeforeCON	AMP_CSpleas	AMP1_masked	8	50	0	0	300	300	0	0	582	50	-3,662109375	1	0	0	0	1	blank2r.bmp	0	1	GKQX	0	1	blank2r.bmp	79	46	pic46.bmp	199	1	whitenoise_No3.bmp	306	0	0	0	0	0	0	0	0	0	0	0	0	0	0	0	0	0	0	0	0	0	0	0	0	0	0	0	0	0	0	0	0	0	0	0	0	0	0	0
010919	09:08:22	09:25:26	1021311	5.0.10.0	4_exp_EVA_AMP_AWA_CON	50	Rpleas_acq	Same	Rpleas	Bmasked	CS_B	2pleas	distractor1	EVAbeforeCON	AMP_distractor	AMP1_masked	8	51	0	0	300	300	0	0	618	46	-3,662109375	0	0	0	0	1	blank2r.bmp	0	1	WFPH	0	1	blank2r.bmp	79	131	pic131.bmp	199	1	whitenoise_No3.bmp	306	0	0	0	0	0	0	0	0	0	0	0	0	0	0	0	0	0	0	0	0	0	0	0	0	0	0	0	0	0	0	0	0	0	0	0	0	0	0	0
010919	09:08:22	09:25:40	1035985	5.0.10.0	4_exp_EVA_AMP_AWA_CON	50	Rpleas_acq	Same	Rpleas	Bmasked	CS_B	2pleas	distractor1	EVAbeforeCON	AMP_CSunple	AMP23	9	1	0	0	300	300	0	0	748	50	-3,662109375	0	0	0	0	1	blank2r.bmp	0	1	BMVZ	0	1	blank2r.bmp	79	142	pic142.bmp	199	1	whitenoise_No3.bmp	306	0	0	0	0	0	0	0	0	0	0	0	0	0	0	0	0	0	0	0	0	0	0	0	0	0	0	0	0	0	0	0	0	0	0	0	0	0	0	0
010919	09:08:22	09:25:42	1037838	5.0.10.0	4_exp_EVA_AMP_AWA_CON	50	Rpleas_acq	Same	Rpleas	Bmasked	CS_B	2pleas	distractor1	EVAbeforeCON	AMP_CSpleas	AMP23	9	2	0	0	300	300	0	0	932	46	-3,662109375	0	0	0	0	1	blank2r.bmp	0	1	GKQX	0	1	blank2r.bmp	79	78	pic78.bmp	199	1	whitenoise_No3.bmp	306	0	0	0	0	0	0	0	0	0	0	0	0	0	0	0	0	0	0	0	0	0	0	0	0	0	0	0	0	0	0	0	0	0	0	0	0	0	0	0
010919	09:08:22	09:25:44	1039371	5.0.10.0	4_exp_EVA_AMP_AWA_CON	50	Rpleas_acq	Same	Rpleas	Bmasked	CS_B	2pleas	distractor1	EVAbeforeCON	AMP_CSunple	AMP23	9	3	0	0	300	300	0	0	614	46	-3,662109375	1	0	0	0	1	blank2r.bmp	0	1	BMVZ	0	1	blank2r.bmp	79	92	pic92.bmp	199	1	whitenoise_No3.bmp	306	0	0	0	0	0	0	0	0	0	0	0	0	0	0	0	0	0	0	0	0	0	0	0	0	0	0	0	0	0	0	0	0	0	0	0	0	0	0	0
010919	09:08:22	09:25:45	1040743	5.0.10.0	4_exp_EVA_AMP_AWA_CON	50	Rpleas_acq	Same	Rpleas	Bmasked	CS_B	2pleas	distractor1	EVAbeforeCON	AMP_CSunple	AMP23	9	4	0	0	300	300	0	0	455	50	-3,662109375	0	0	0	0	1	blank2r.bmp	0	1	BMVZ	0	1	blank2r.bmp	79	37	pic37.bmp	199	1	whitenoise_No3.bmp	306	0	0	0	0	0	0	0	0	0	0	0	0	0	0	0	0	0	0	0	0	0	0	0	0	0	0	0	0	0	0	0	0	0	0	0	0	0	0	0
010919	09:08:22	09:25:47	1042236	5.0.10.0	4_exp_EVA_AMP_AWA_CON	50	Rpleas_acq	Same	Rpleas	Bmasked	CS_B	2pleas	distractor1	EVAbeforeCON	AMP_CSunple	AMP23	9	5	0	0	300	300	0	0	584	50	-3,662109375	0	0	0	0	1	blank2r.bmp	0	1	BMVZ	0	1	blank2r.bmp	79	13	pic13.bmp	199	1	whitenoise_No3.bmp	306	0	0	0	0	0	0	0	0	0	0	0	0	0	0	0	0	0	0	0	0	0	0	0	0	0	0	0	0	0	0	0	0	0	0	0	0	0	0	0
010919	09:08:22	09:25:48	1043822	5.0.10.0	4_exp_EVA_AMP_AWA_CON	50	Rpleas_acq	Same	Rpleas	Bmasked	CS_B	2pleas	distractor1	EVAbeforeCON	AMP_distractor	AMP23	9	6	0	0	300	300	0	0	661	50	-3,662109375	0	0	0	0	1	blank2r.bmp	0	1	WFPH	0	1	blank2r.bmp	79	122	pic122.bmp	199	1	whitenoise_No3.bmp	306	0	0	0	0	0	0	0	0	0	0	0	0	0	0	0	0	0	0	0	0	0	0	0	0	0	0	0	0	0	0	0	0	0	0	0	0	0	0	0
010919	09:08:22	09:25:50	1045408	5.0.10.0	4_exp_EVA_AMP_AWA_CON	50	Rpleas_acq	Same	Rpleas	Bmasked	CS_B	2pleas	distractor1	EVAbeforeCON	AMP_CSunple	AMP23	9	7	0	0	300	300	0	0	661	50	-3,662109375	0	0	0	0	1	blank2r.bmp	0	1	BMVZ	0	1	blank2r.bmp	79	8	pic8.bmp	199	1	whitenoise_No3.bmp	306	0	0	0	0	0	0	0	0	0	0	0	0	0	0	0	0	0	0	0	0	0	0	0	0	0	0	0	0	0	0	0	0	0	0	0	0	0	0	0
010919	09:08:22	09:25:51	1046901	5.0.10.0	4_exp_EVA_AMP_AWA_CON	50	Rpleas_acq	Same	Rpleas	Bmasked	CS_B	2pleas	distractor1	EVAbeforeCON	AMP_CSpleas	AMP23	9	8	0	0	300	300	0	0	562	50	-3,662109375	1	0	0	0	1	blank2r.bmp	0	1	GKQX	0	1	blank2r.bmp	79	31	pic31.bmp	199	1	whitenoise_No3.bmp	306	0	0	0	0	0	0	0	0	0	0	0	0	0	0	0	0	0	0	0	0	0	0	0	0	0	0	0	0	0	0	0	0	0	0	0	0	0	0	0
010919	09:08:22	09:25:53	1048260	5.0.10.0	4_exp_EVA_AMP_AWA_CON	50	Rpleas_acq	Same	Rpleas	Bmasked	CS_B	2pleas	distractor1	EVAbeforeCON	AMP_CSpleas	AMP23	9	9	0	0	300	300	0	0	443	46	-3,662109375	0	0	0	0	1	blank2r.bmp	0	1	GKQX	0	1	blank2r.bmp	79	40	pic40.bmp	199	1	whitenoise_No3.bmp	306	0	0	0	0	0	0	0	0	0	0	0	0	0	0	0	0	0	0	0	0	0	0	0	0	0	0	0	0	0	0	0	0	0	0	0	0	0	0	0
010919	09:08:22	09:25:54	1049793	5.0.10.0	4_exp_EVA_AMP_AWA_CON	50	Rpleas_acq	Same	Rpleas	Bmasked	CS_B	2pleas	distractor1	EVAbeforeCON	AMP_CSpleas	AMP23	9	10	0	0	300	300	0	0	622	46	-3,662109375	0	0	0	0	1	blank2r.bmp	0	1	GKQX	0	1	blank2r.bmp	79	6	pic6.bmp	199	1	whitenoise_No3.bmp	306	0	0	0	0	0	0	0	0	0	0	0	0	0	0	0	0	0	0	0	0	0	0	0	0	0	0	0	0	0	0	0	0	0	0	0	0	0	0	0
010919	09:08:22	09:25:56	1051486	5.0.10.0	4_exp_EVA_AMP_AWA_CON	50	Rpleas_acq	Same	Rpleas	Bmasked	CS_B	2pleas	distractor1	EVAbeforeCON	AMP_CSunple	AMP23	9	11	0	0	300	300	0	0	767	50	-3,662109375	0	0	0	0	1	blank2r.bmp	0	1	BMVZ	0	1	blank2r.bmp	79	27	pic27.bmp	199	1	whitenoise_No3.bmp	306	0	0	0	0	0	0	0	0	0	0	0	0	0	0	0	0	0	0	0	0	0	0	0	0	0	0	0	0	0	0	0	0	0	0	0	0	0	0	0
010919	09:08:22	09:25:57	1052858	5.0.10.0	4_exp_EVA_AMP_AWA_CON	50	Rpleas_acq	Same	Rpleas	Bmasked	CS_B	2pleas	distractor1	EVAbeforeCON	AMP_distractor	AMP23	9	12	0	0	300	300	0	0	464	46	-3,662109375	0	0	0	0	1	blank2r.bmp	0	1	WFPH	0	1	blank2r.bmp	79	23	pic23.bmp	199	1	whitenoise_No3.bmp	306	0	0	0	0	0	0	0	0	0	0	0	0	0	0	0	0	0	0	0	0	0	0	0	0	0	0	0	0	0	0	0	0	0	0	0	0	0	0	0
010919	09:08:22	09:25:59	1054538	5.0.10.0	4_exp_EVA_AMP_AWA_CON	50	Rpleas_acq	Same	Rpleas	Bmasked	CS_B	2pleas	distractor1	EVAbeforeCON	AMP_CSpleas	AMP23	9	13	0	0	300	300	0	0	754	50	-3,662109375	1	0	0	0	1	blank2r.bmp	0	1	GKQX	0	1	blank2r.bmp	79	98	pic98.bmp	199	1	whitenoise_No3.bmp	306	0	0	0	0	0	0	0	0	0	0	0	0	0	0	0	0	0	0	0	0	0	0	0	0	0	0	0	0	0	0	0	0	0	0	0	0	0	0	0
010919	09:08:22	09:26:01	1056217	5.0.10.0	4_exp_EVA_AMP_AWA_CON	50	Rpleas_acq	Same	Rpleas	Bmasked	CS_B	2pleas	distractor1	EVAbeforeCON	AMP_distractor	AMP23	9	14	0	0	300	300	0	0	746	46	-3,662109375	0	0	0	0	1	blank2r.bmp	0	1	WFPH	0	1	blank2r.bmp	79	5	pic5.bmp	199	1	whitenoise_No3.bmp	306	0	0	0	0	0	0	0	0	0	0	0	0	0	0	0	0	0	0	0	0	0	0	0	0	0	0	0	0	0	0	0	0	0	0	0	0	0	0	0
010919	09:08:22	09:26:02	1057763	5.0.10.0	4_exp_EVA_AMP_AWA_CON	50	Rpleas_acq	Same	Rpleas	Bmasked	CS_B	2pleas	distractor1	EVAbeforeCON	AMP_distractor	AMP23	9	15	0	0	300	300	0	0	627	46	-3,662109375	0	0	0	0	1	blank2r.bmp	0	1	WFPH	0	1	blank2r.bmp	79	149	pic149.bmp	199	1	whitenoise_No3.bmp	306	0	0	0	0	0	0	0	0	0	0	0	0	0	0	0	0	0	0	0	0	0	0	0	0	0	0	0	0	0	0	0	0	0	0	0	0	0	0	0
010919	09:08:22	09:26:04	1059269	5.0.10.0	4_exp_EVA_AMP_AWA_CON	50	Rpleas_acq	Same	Rpleas	Bmasked	CS_B	2pleas	distractor1	EVAbeforeCON	AMP_CSunple	AMP23	9	16	0	0	300	300	0	0	593	50	-3,662109375	0	0	0	0	1	blank2r.bmp	0	1	BMVZ	0	1	blank2r.bmp	79	48	pic48.bmp	199	1	whitenoise_No3.bmp	306	0	0	0	0	0	0	0	0	0	0	0	0	0	0	0	0	0	0	0	0	0	0	0	0	0	0	0	0	0	0	0	0	0	0	0	0	0	0	0
010919	09:08:22	09:26:05	1060682	5.0.10.0	4_exp_EVA_AMP_AWA_CON	50	Rpleas_acq	Same	Rpleas	Bmasked	CS_B	2pleas	distractor1	EVAbeforeCON	AMP_distractor	AMP23	9	17	0	0	300	300	0	0	500	50	-3,662109375	0	0	0	0	1	blank2r.bmp	0	1	WFPH	0	1	blank2r.bmp	79	94	pic94.bmp	199	1	whitenoise_No3.bmp	306	0	0	0	0	0	0	0	0	0	0	0	0	0	0	0	0	0	0	0	0	0	0	0	0	0	0	0	0	0	0	0	0	0	0	0	0	0	0	0
010919	09:08:22	09:26:06	1062081	5.0.10.0	4_exp_EVA_AMP_AWA_CON	50	Rpleas_acq	Same	Rpleas	Bmasked	CS_B	2pleas	distractor1	EVAbeforeCON	AMP_distractor	AMP23	9	18	0	0	300	300	0	0	469	46	-3,662109375	0	0	0	0	1	blank2r.bmp	0	1	WFPH	0	1	blank2r.bmp	79	116	pic116.bmp	199	1	whitenoise_No3.bmp	306	0	0	0	0	0	0	0	0	0	0	0	0	0	0	0	0	0	0	0	0	0	0	0	0	0	0	0	0	0	0	0	0	0	0	0	0	0	0	0
010919	09:08:22	09:26:08	1063681	5.0.10.0	4_exp_EVA_AMP_AWA_CON	50	Rpleas_acq	Same	Rpleas	Bmasked	CS_B	2pleas	distractor1	EVAbeforeCON	AMP_CSpleas	AMP23	9	19	0	0	300	300	0	0	687	50	-3,662109375	1	0	0	0	1	blank2r.bmp	0	1	GKQX	0	1	blank2r.bmp	79	63	pic63.bmp	199	1	whitenoise_No3.bmp	306	0	0	0	0	0	0	0	0	0	0	0	0	0	0	0	0	0	0	0	0	0	0	0	0	0	0	0	0	0	0	0	0	0	0	0	0	0	0	0
010919	09:08:22	09:26:10	1065253	5.0.10.0	4_exp_EVA_AMP_AWA_CON	50	Rpleas_acq	Same	Rpleas	Bmasked	CS_B	2pleas	distractor1	EVAbeforeCON	AMP_CSpleas	AMP23	9	20	0	0	300	300	0	0	642	46	-3,662109375	0	0	0	0	1	blank2r.bmp	0	1	GKQX	0	1	blank2r.bmp	79	132	pic132.bmp	199	1	whitenoise_No3.bmp	306	0	0	0	0	0	0	0	0	0	0	0	0	0	0	0	0	0	0	0	0	0	0	0	0	0	0	0	0	0	0	0	0	0	0	0	0	0	0	0
010919	09:08:22	09:26:11	1066759	5.0.10.0	4_exp_EVA_AMP_AWA_CON	50	Rpleas_acq	Same	Rpleas	Bmasked	CS_B	2pleas	distractor1	EVAbeforeCON	AMP_CSpleas	AMP23	9	21	0	0	300	300	0	0	579	46	-3,662109375	0	0	0	0	1	blank2r.bmp	0	1	GKQX	0	1	blank2r.bmp	79	83	pic83.bmp	199	1	whitenoise_No3.bmp	306	0	0	0	0	0	0	0	0	0	0	0	0	0	0	0	0	0	0	0	0	0	0	0	0	0	0	0	0	0	0	0	0	0	0	0	0	0	0	0
010919	09:08:22	09:26:13	1068252	5.0.10.0	4_exp_EVA_AMP_AWA_CON	50	Rpleas_acq	Same	Rpleas	Bmasked	CS_B	2pleas	distractor1	EVAbeforeCON	AMP_distractor	AMP23	9	22	0	0	300	300	0	0	580	50	-3,662109375	0	0	0	0	1	blank2r.bmp	0	1	WFPH	0	1	blank2r.bmp	79	49	pic49.bmp	199	1	whitenoise_No3.bmp	306	0	0	0	0	0	0	0	0	0	0	0	0	0	0	0	0	0	0	0	0	0	0	0	0	0	0	0	0	0	0	0	0	0	0	0	0	0	0	0
010919	09:08:22	09:26:14	1069798	5.0.10.0	4_exp_EVA_AMP_AWA_CON	50	Rpleas_acq	Same	Rpleas	Bmasked	CS_B	2pleas	distractor1	EVAbeforeCON	AMP_CSunple	AMP23	9	23	0	0	300	300	0	0	613	50	-3,662109375	0	0	0	0	1	blank2r.bmp	0	1	BMVZ	0	1	blank2r.bmp	79	38	pic38.bmp	199	1	whitenoise_No3.bmp	306	0	0	0	0	0	0	0	0	0	0	0	0	0	0	0	0	0	0	0	0	0	0	0	0	0	0	0	0	0	0	0	0	0	0	0	0	0	0	0
010919	09:08:22	09:26:16	1071211	5.0.10.0	4_exp_EVA_AMP_AWA_CON	50	Rpleas_acq	Same	Rpleas	Bmasked	CS_B	2pleas	distractor1	EVAbeforeCON	AMP_CSunple	AMP23	9	24	0	0	300	300	0	0	503	50	-3,662109375	0	0	0	0	1	blank2r.bmp	0	1	BMVZ	0	1	blank2r.bmp	79	84	pic84.bmp	199	1	whitenoise_No3.bmp	306	0	0	0	0	0	0	0	0	0	0	0	0	0	0	0	0	0	0	0	0	0	0	0	0	0	0	0	0	0	0	0	0	0	0	0	0	0	0	0
010919	09:08:22	09:26:17	1072637	5.0.10.0	4_exp_EVA_AMP_AWA_CON	50	Rpleas_acq	Same	Rpleas	Bmasked	CS_B	2pleas	distractor1	EVAbeforeCON	AMP_distractor	AMP23	9	25	0	0	300	300	0	0	495	46	-3,662109375	0	0	0	0	1	blank2r.bmp	0	1	WFPH	0	1	blank2r.bmp	79	136	pic136.bmp	199	1	whitenoise_No3.bmp	306	0	0	0	0	0	0	0	0	0	0	0	0	0	0	0	0	0	0	0	0	0	0	0	0	0	0	0	0	0	0	0	0	0	0	0	0	0	0	0
010919	09:08:22	09:26:18	1074036	5.0.10.0	4_exp_EVA_AMP_AWA_CON	50	Rpleas_acq	Same	Rpleas	Bmasked	CS_B	2pleas	distractor1	EVAbeforeCON	AMP_CSunple	AMP23	9	26	0	0	300	300	0	0	490	46	-3,662109375	1	0	0	0	1	blank2r.bmp	0	1	BMVZ	0	1	blank2r.bmp	79	130	pic130.bmp	199	1	whitenoise_No3.bmp	306	0	0	0	0	0	0	0	0	0	0	0	0	0	0	0	0	0	0	0	0	0	0	0	0	0	0	0	0	0	0	0	0	0	0	0	0	0	0	0
