date	time	script.currenttime	script.elapsedtime	build	script.currentexpt	subject	expressions.LRpleas_acq	expressions.SameOppo	expressions.condition_Lpleas	expressions.ABmasked	expressions.conditionCS_A	expressions.condition_1pleas	expressions.condition_distractor_AMP	expressions.AWACON_AMPEVA_first	trialcode	blockcode	blocknum	trialnum	windowcenter	inwindow	pretrialpause	posttrialpause	trialduration	trialtimeout	latency	response	expressions.correctedscore	correct	values.vis_performance	values.vis_rating_sum	values.vis_rating_mean	stimulusnumber1	stimulusitem1	stimulusonset1	stimulusnumber2	stimulusitem2	stimulusonset2	stimulusnumber3	stimulusitem3	stimulusonset3	stimulusnumber4	stimulusitem4	stimulusonset4	stimulusnumber5	stimulusitem5	stimulusonset5	stimulusnumber6	stimulusitem6	stimulusonset6	stimulusnumber7	stimulusitem7	stimulusonset7	stimulusnumber8	stimulusitem8	stimulusonset8	stimulusnumber9	stimulusitem9	stimulusonset9	stimulusnumber10	stimulusitem10	stimulusonset10	stimulusnumber11	stimulusitem11	stimulusonset11	stimulusnumber12	stimulusitem12	stimulusonset12	stimulusnumber13	stimulusitem13	stimulusonset13	stimulusnumber14	stimulusitem14	stimulusonset14	stimulusnumber15	stimulusitem15	stimulusonset15	stimulusnumber16	stimulusitem16	stimulusonset16	stimulusnumber17	stimulusitem17	stimulusonset17	stimulusnumber18	stimulusitem18	stimulusonset18
022119	11:28:15	11:32:52	276339	5.0.10.0	4_exp_AWA_CON_EVA_AMP	134	Rpleas_acq	Same	Rpleas	Bmasked	CS_B	1pleas	distractor2	CONbeforeEVA	acq_US_unple_masked	acq1_masked	1	1	0	0	300	300	0	0	1623	46	0	1	0	0	0	1	blank2r.bmp	0	1	+	0	4	B4r.bmp	492	1	blank2r.bmp	786	1	GKQX	786	1	blank2r.bmp	866	1	rächen	866	0	0	0	0	0	0	0	0	0	0	0	0	0	0	0	0	0	0	0	0	0	0	0	0	0	0	0	0	0	0	0	0	0
022119	11:28:15	11:32:54	278338	5.0.10.0	4_exp_AWA_CON_EVA_AMP	134	Rpleas_acq	Same	Rpleas	Bmasked	CS_B	1pleas	distractor2	CONbeforeEVA	acq_US_pleas_masked	acq1_masked	1	2	0	0	300	300	0	0	529	50	0	1	0	0	0	1	blank2r.bmp	0	1	+	0	2	B2r.bmp	492	1	blank2r.bmp	786	1	BMVZ	786	1	blank2r.bmp	866	4	loyal	866	0	0	0	0	0	0	0	0	0	0	0	0	0	0	0	0	0	0	0	0	0	0	0	0	0	0	0	0	0	0	0	0	0
022119	11:28:15	11:32:56	280377	5.0.10.0	4_exp_AWA_CON_EVA_AMP	134	Rpleas_acq	Same	Rpleas	Bmasked	CS_B	1pleas	distractor2	CONbeforeEVA	acq_new_unple_masked	acq1_masked	1	3	0	0	300	300	0	0	560	46	0	1	0	0	0	1	blank2r.bmp	0	1	+	0	7	C3r.bmp	492	1	blank2r.bmp	786	2	B2r.bmp	786	1	blank2r.bmp	866	6	eitel	866	0	0	0	0	0	0	0	0	0	0	0	0	0	0	0	0	0	0	0	0	0	0	0	0	0	0	0	0	0	0	0	0	0
022119	11:28:15	11:32:58	282590	5.0.10.0	4_exp_AWA_CON_EVA_AMP	134	Rpleas_acq	Same	Rpleas	Bmasked	CS_B	1pleas	distractor2	CONbeforeEVA	acq_new_unple_masked	acq1_masked	1	4	0	0	300	300	0	0	730	46	0	1	0	0	0	1	blank2r.bmp	0	1	+	0	1	B1r.bmp	492	1	blank2r.bmp	786	7	C3r.bmp	786	1	blank2r.bmp	866	1	schroff	866	0	0	0	0	0	0	0	0	0	0	0	0	0	0	0	0	0	0	0	0	0	0	0	0	0	0	0	0	0	0	0	0	0
022119	11:28:15	11:33:00	284749	5.0.10.0	4_exp_AWA_CON_EVA_AMP	134	Rpleas_acq	Same	Rpleas	Bmasked	CS_B	1pleas	distractor2	CONbeforeEVA	acq_new_pleas_masked	acq1_masked	1	5	0	0	300	300	0	0	667	50	0	1	0	0	0	1	blank2r.bmp	0	1	+	0	5	C1r.bmp	492	1	blank2r.bmp	786	3	B3r.bmp	786	1	blank2r.bmp	866	4	tolerant	866	0	0	0	0	0	0	0	0	0	0	0	0	0	0	0	0	0	0	0	0	0	0	0	0	0	0	0	0	0	0	0	0	0
022119	11:28:15	11:33:02	286814	5.0.10.0	4_exp_AWA_CON_EVA_AMP	134	Rpleas_acq	Same	Rpleas	Bmasked	CS_B	1pleas	distractor2	CONbeforeEVA	acq_new_unple_masked	acq1_masked	1	6	0	0	300	300	0	0	597	46	0	1	0	0	0	1	blank2r.bmp	0	1	+	0	6	C2r.bmp	492	1	blank2r.bmp	786	5	C1r.bmp	786	1	blank2r.bmp	866	3	strafen	866	0	0	0	0	0	0	0	0	0	0	0	0	0	0	0	0	0	0	0	0	0	0	0	0	0	0	0	0	0	0	0	0	0
022119	11:28:15	11:33:04	288774	5.0.10.0	4_exp_AWA_CON_EVA_AMP	134	Rpleas_acq	Same	Rpleas	Bmasked	CS_B	1pleas	distractor2	CONbeforeEVA	acq_new_pleas_masked	acq1_masked	1	7	0	0	300	300	0	0	468	50	0	1	0	0	0	1	blank2r.bmp	0	1	+	0	3	B3r.bmp	492	1	blank2r.bmp	786	4	B4r.bmp	786	1	blank2r.bmp	866	5	lachen	866	0	0	0	0	0	0	0	0	0	0	0	0	0	0	0	0	0	0	0	0	0	0	0	0	0	0	0	0	0	0	0	0	0
022119	11:28:15	11:33:06	290813	5.0.10.0	4_exp_AWA_CON_EVA_AMP	134	Rpleas_acq	Same	Rpleas	Bmasked	CS_B	1pleas	distractor2	CONbeforeEVA	acq_US_unple_masked	acq1_masked	1	8	0	0	300	300	0	0	570	46	0	1	0	0	0	1	blank2r.bmp	0	1	+	0	8	C4r.bmp	492	1	blank2r.bmp	786	1	GKQX	786	1	blank2r.bmp	866	2	tot	866	0	0	0	0	0	0	0	0	0	0	0	0	0	0	0	0	0	0	0	0	0	0	0	0	0	0	0	0	0	0	0	0	0
022119	11:28:15	11:33:08	292852	5.0.10.0	4_exp_AWA_CON_EVA_AMP	134	Rpleas_acq	Same	Rpleas	Bmasked	CS_B	1pleas	distractor2	CONbeforeEVA	acq_new_pleas_masked	acq1_masked	1	9	0	0	300	300	0	0	553	50	0	1	0	0	0	1	blank2r.bmp	0	1	+	0	3	B3r.bmp	492	1	blank2r.bmp	786	8	C4r.bmp	786	1	blank2r.bmp	866	1	schlau	866	0	0	0	0	0	0	0	0	0	0	0	0	0	0	0	0	0	0	0	0	0	0	0	0	0	0	0	0	0	0	0	0	0
022119	11:28:15	11:33:11	295064	5.0.10.0	4_exp_AWA_CON_EVA_AMP	134	Rpleas_acq	Same	Rpleas	Bmasked	CS_B	1pleas	distractor2	CONbeforeEVA	acq_US_unple_masked	acq1_masked	1	10	0	0	300	300	0	0	506	50	0	0	0	0	0	1	blank2r.bmp	0	1	+	0	1	B1r.bmp	492	1	blank2r.bmp	786	1	GKQX	786	1	blank2r.bmp	866	3	fanatisch	866	1	FEHLER	1412	0	0	0	0	0	0	0	0	0	0	0	0	0	0	0	0	0	0	0	0	0	0	0	0	0	0	0	0	0	0
022119	11:28:15	11:33:13	297264	5.0.10.0	4_exp_AWA_CON_EVA_AMP	134	Rpleas_acq	Same	Rpleas	Bmasked	CS_B	1pleas	distractor2	CONbeforeEVA	acq_US_pleas_masked	acq1_masked	1	11	0	0	300	300	0	0	942	50	0	1	0	0	0	1	blank2r.bmp	0	1	+	0	7	C3r.bmp	492	1	blank2r.bmp	786	1	BMVZ	786	1	blank2r.bmp	866	6	helfen	866	0	0	0	0	0	0	0	0	0	0	0	0	0	0	0	0	0	0	0	0	0	0	0	0	0	0	0	0	0	0	0	0	0
022119	11:28:15	11:33:15	299356	5.0.10.0	4_exp_AWA_CON_EVA_AMP	134	Rpleas_acq	Same	Rpleas	Bmasked	CS_B	1pleas	distractor2	CONbeforeEVA	acq_US_pleas_masked	acq1_masked	1	12	0	0	300	300	0	0	609	50	0	1	0	0	0	1	blank2r.bmp	0	1	+	0	5	C1r.bmp	492	1	blank2r.bmp	786	1	BMVZ	786	1	blank2r.bmp	866	1	retten	866	0	0	0	0	0	0	0	0	0	0	0	0	0	0	0	0	0	0	0	0	0	0	0	0	0	0	0	0	0	0	0	0	0
022119	11:28:15	11:33:17	301408	5.0.10.0	4_exp_AWA_CON_EVA_AMP	134	Rpleas_acq	Same	Rpleas	Bmasked	CS_B	1pleas	distractor2	CONbeforeEVA	acq_US_unple_masked	acq1_masked	1	13	0	0	300	300	0	0	566	46	0	1	0	0	0	1	blank2r.bmp	0	1	+	0	6	C2r.bmp	492	1	blank2r.bmp	786	1	GKQX	786	1	blank2r.bmp	866	6	hindern	866	0	0	0	0	0	0	0	0	0	0	0	0	0	0	0	0	0	0	0	0	0	0	0	0	0	0	0	0	0	0	0	0	0
022119	11:28:15	11:33:19	303661	5.0.10.0	4_exp_AWA_CON_EVA_AMP	134	Rpleas_acq	Same	Rpleas	Bmasked	CS_B	1pleas	distractor2	CONbeforeEVA	acq_US_unple_masked	acq1_masked	1	14	0	0	300	300	0	0	781	46	0	1	0	0	0	1	blank2r.bmp	0	1	+	0	2	B2r.bmp	492	1	blank2r.bmp	786	1	GKQX	786	1	blank2r.bmp	866	4	lasch	866	0	0	0	0	0	0	0	0	0	0	0	0	0	0	0	0	0	0	0	0	0	0	0	0	0	0	0	0	0	0	0	0	0
022119	11:28:15	11:33:21	305660	5.0.10.0	4_exp_AWA_CON_EVA_AMP	134	Rpleas_acq	Same	Rpleas	Bmasked	CS_B	1pleas	distractor2	CONbeforeEVA	acq_US_unple_masked	acq1_masked	1	15	0	0	300	300	0	0	511	46	0	1	0	0	0	1	blank2r.bmp	0	1	+	0	4	B4r.bmp	492	1	blank2r.bmp	786	1	GKQX	786	1	blank2r.bmp	866	5	schlecht	866	0	0	0	0	0	0	0	0	0	0	0	0	0	0	0	0	0	0	0	0	0	0	0	0	0	0	0	0	0	0	0	0	0
022119	11:28:15	11:33:23	307659	5.0.10.0	4_exp_AWA_CON_EVA_AMP	134	Rpleas_acq	Same	Rpleas	Bmasked	CS_B	1pleas	distractor2	CONbeforeEVA	acq_new_pleas_masked	acq1_masked	1	16	0	0	300	300	0	0	509	50	0	1	0	0	0	1	blank2r.bmp	0	1	+	0	8	C4r.bmp	492	1	blank2r.bmp	786	6	C2r.bmp	786	1	blank2r.bmp	866	2	fair	866	0	0	0	0	0	0	0	0	0	0	0	0	0	0	0	0	0	0	0	0	0	0	0	0	0	0	0	0	0	0	0	0	0
022119	11:28:15	11:33:25	309645	5.0.10.0	4_exp_AWA_CON_EVA_AMP	134	Rpleas_acq	Same	Rpleas	Bmasked	CS_B	1pleas	distractor2	CONbeforeEVA	acq_new_pleas_masked	acq1_masked	1	17	0	0	300	300	0	0	502	50	0	1	0	0	0	1	blank2r.bmp	0	1	+	0	6	C2r.bmp	492	1	blank2r.bmp	786	1	B1r.bmp	786	1	blank2r.bmp	866	6	ehrlich	866	0	0	0	0	0	0	0	0	0	0	0	0	0	0	0	0	0	0	0	0	0	0	0	0	0	0	0	0	0	0	0	0	0
022119	11:28:15	11:33:27	311738	5.0.10.0	4_exp_AWA_CON_EVA_AMP	134	Rpleas_acq	Same	Rpleas	Bmasked	CS_B	1pleas	distractor2	CONbeforeEVA	acq_new_unple_masked	acq1_masked	1	18	0	0	300	300	0	0	613	46	0	1	0	0	0	1	blank2r.bmp	0	1	+	0	1	B1r.bmp	492	1	blank2r.bmp	786	6	C2r.bmp	786	1	blank2r.bmp	866	2	faul	866	0	0	0	0	0	0	0	0	0	0	0	0	0	0	0	0	0	0	0	0	0	0	0	0	0	0	0	0	0	0	0	0	0
022119	11:28:15	11:33:30	314043	5.0.10.0	4_exp_AWA_CON_EVA_AMP	134	Rpleas_acq	Same	Rpleas	Bmasked	CS_B	1pleas	distractor2	CONbeforeEVA	acq_new_unple_masked	acq1_masked	1	19	0	0	300	300	0	0	834	46	0	1	0	0	0	1	blank2r.bmp	0	1	+	0	7	C3r.bmp	492	1	blank2r.bmp	786	4	B4r.bmp	786	1	blank2r.bmp	866	4	tyrannisch	866	0	0	0	0	0	0	0	0	0	0	0	0	0	0	0	0	0	0	0	0	0	0	0	0	0	0	0	0	0	0	0	0	0
022119	11:28:15	11:33:31	315936	5.0.10.0	4_exp_AWA_CON_EVA_AMP	134	Rpleas_acq	Same	Rpleas	Bmasked	CS_B	1pleas	distractor2	CONbeforeEVA	acq_US_pleas_masked	acq1_masked	1	20	0	0	300	300	0	0	413	50	0	1	0	0	0	1	blank2r.bmp	0	1	+	0	2	B2r.bmp	492	1	blank2r.bmp	786	1	BMVZ	786	1	blank2r.bmp	866	5	schön	866	0	0	0	0	0	0	0	0	0	0	0	0	0	0	0	0	0	0	0	0	0	0	0	0	0	0	0	0	0	0	0	0	0
022119	11:28:15	11:33:34	317975	5.0.10.0	4_exp_AWA_CON_EVA_AMP	134	Rpleas_acq	Same	Rpleas	Bmasked	CS_B	1pleas	distractor2	CONbeforeEVA	acq_US_pleas_masked	acq1_masked	1	21	0	0	300	300	0	0	567	50	0	1	0	0	0	1	blank2r.bmp	0	1	+	0	4	B4r.bmp	492	1	blank2r.bmp	786	1	BMVZ	786	1	blank2r.bmp	866	3	freundlich	866	0	0	0	0	0	0	0	0	0	0	0	0	0	0	0	0	0	0	0	0	0	0	0	0	0	0	0	0	0	0	0	0	0
022119	11:28:15	11:33:36	320001	5.0.10.0	4_exp_AWA_CON_EVA_AMP	134	Rpleas_acq	Same	Rpleas	Bmasked	CS_B	1pleas	distractor2	CONbeforeEVA	acq_new_unple_masked	acq1_masked	1	22	0	0	300	300	0	0	554	46	0	1	0	0	0	1	blank2r.bmp	0	1	+	0	5	C1r.bmp	492	1	blank2r.bmp	786	3	B3r.bmp	786	1	blank2r.bmp	866	5	leiden	866	0	0	0	0	0	0	0	0	0	0	0	0	0	0	0	0	0	0	0	0	0	0	0	0	0	0	0	0	0	0	0	0	0
022119	11:28:15	11:33:37	321920	5.0.10.0	4_exp_AWA_CON_EVA_AMP	134	Rpleas_acq	Same	Rpleas	Bmasked	CS_B	1pleas	distractor2	CONbeforeEVA	acq_new_pleas_masked	acq1_masked	1	23	0	0	300	300	0	0	434	50	0	1	0	0	0	1	blank2r.bmp	0	1	+	0	8	C4r.bmp	492	1	blank2r.bmp	786	2	B2r.bmp	786	1	blank2r.bmp	866	3	spielen	866	0	0	0	0	0	0	0	0	0	0	0	0	0	0	0	0	0	0	0	0	0	0	0	0	0	0	0	0	0	0	0	0	0
022119	11:28:15	11:33:39	323973	5.0.10.0	4_exp_AWA_CON_EVA_AMP	134	Rpleas_acq	Same	Rpleas	Bmasked	CS_B	1pleas	distractor2	CONbeforeEVA	acq_US_pleas_masked	acq1_masked	1	24	0	0	300	300	0	0	570	50	0	1	0	0	0	1	blank2r.bmp	0	1	+	0	3	B3r.bmp	492	1	blank2r.bmp	786	1	BMVZ	786	1	blank2r.bmp	866	2	treu	866	0	0	0	0	0	0	0	0	0	0	0	0	0	0	0	0	0	0	0	0	0	0	0	0	0	0	0	0	0	0	0	0	0
022119	11:28:15	11:33:41	325972	5.0.10.0	4_exp_AWA_CON_EVA_AMP	134	Rpleas_acq	Same	Rpleas	Bmasked	CS_B	1pleas	distractor2	CONbeforeEVA	acq_new_pleas_masked	acq1_masked	1	25	0	0	300	300	0	0	514	50	0	1	0	0	0	1	blank2r.bmp	0	1	+	0	7	C3r.bmp	492	1	blank2r.bmp	786	1	B1r.bmp	786	1	blank2r.bmp	866	3	spielen	866	0	0	0	0	0	0	0	0	0	0	0	0	0	0	0	0	0	0	0	0	0	0	0	0	0	0	0	0	0	0	0	0	0
022119	11:28:15	11:33:43	327878	5.0.10.0	4_exp_AWA_CON_EVA_AMP	134	Rpleas_acq	Same	Rpleas	Bmasked	CS_B	1pleas	distractor2	CONbeforeEVA	acq_US_pleas_masked	acq1_masked	1	26	0	0	300	300	0	0	413	50	0	1	0	0	0	1	blank2r.bmp	0	1	+	0	1	B1r.bmp	492	1	blank2r.bmp	786	1	BMVZ	786	1	blank2r.bmp	866	1	retten	866	0	0	0	0	0	0	0	0	0	0	0	0	0	0	0	0	0	0	0	0	0	0	0	0	0	0	0	0	0	0	0	0	0
022119	11:28:15	11:33:45	329664	5.0.10.0	4_exp_AWA_CON_EVA_AMP	134	Rpleas_acq	Same	Rpleas	Bmasked	CS_B	1pleas	distractor2	CONbeforeEVA	acq_US_pleas_masked	acq1_masked	1	27	0	0	300	300	0	0	298	50	0	1	0	0	0	1	blank2r.bmp	0	1	+	0	3	B3r.bmp	492	1	blank2r.bmp	786	1	BMVZ	786	1	blank2r.bmp	866	5	schön	866	0	0	0	0	0	0	0	0	0	0	0	0	0	0	0	0	0	0	0	0	0	0	0	0	0	0	0	0	0	0	0	0	0
022119	11:28:15	11:33:47	331556	5.0.10.0	4_exp_AWA_CON_EVA_AMP	134	Rpleas_acq	Same	Rpleas	Bmasked	CS_B	1pleas	distractor2	CONbeforeEVA	acq_US_pleas_masked	acq1_masked	1	28	0	0	300	300	0	0	418	50	0	1	0	0	0	1	blank2r.bmp	0	1	+	0	5	C1r.bmp	492	1	blank2r.bmp	786	1	BMVZ	786	1	blank2r.bmp	866	6	helfen	866	0	0	0	0	0	0	0	0	0	0	0	0	0	0	0	0	0	0	0	0	0	0	0	0	0	0	0	0	0	0	0	0	0
022119	11:28:15	11:33:49	333649	5.0.10.0	4_exp_AWA_CON_EVA_AMP	134	Rpleas_acq	Same	Rpleas	Bmasked	CS_B	1pleas	distractor2	CONbeforeEVA	acq_US_unple_masked	acq1_masked	1	29	0	0	300	300	0	0	606	46	0	1	0	0	0	1	blank2r.bmp	0	1	+	0	6	C2r.bmp	492	1	blank2r.bmp	786	1	GKQX	786	1	blank2r.bmp	866	4	lasch	866	0	0	0	0	0	0	0	0	0	0	0	0	0	0	0	0	0	0	0	0	0	0	0	0	0	0	0	0	0	0	0	0	0
022119	11:28:15	11:33:51	335701	5.0.10.0	4_exp_AWA_CON_EVA_AMP	134	Rpleas_acq	Same	Rpleas	Bmasked	CS_B	1pleas	distractor2	CONbeforeEVA	acq_US_unple_masked	acq1_masked	1	30	0	0	300	300	0	0	568	46	0	1	0	0	0	1	blank2r.bmp	0	1	+	0	2	B2r.bmp	492	1	blank2r.bmp	786	1	GKQX	786	1	blank2r.bmp	866	6	hindern	866	0	0	0	0	0	0	0	0	0	0	0	0	0	0	0	0	0	0	0	0	0	0	0	0	0	0	0	0	0	0	0	0	0
022119	11:28:15	11:33:53	337540	5.0.10.0	4_exp_AWA_CON_EVA_AMP	134	Rpleas_acq	Same	Rpleas	Bmasked	CS_B	1pleas	distractor2	CONbeforeEVA	acq_US_unple_masked	acq1_masked	1	31	0	0	300	300	0	0	346	46	0	1	0	0	0	1	blank2r.bmp	0	1	+	0	8	C4r.bmp	492	1	blank2r.bmp	786	1	GKQX	786	1	blank2r.bmp	866	5	schlecht	866	0	0	0	0	0	0	0	0	0	0	0	0	0	0	0	0	0	0	0	0	0	0	0	0	0	0	0	0	0	0	0	0	0
022119	11:28:15	11:33:55	339486	5.0.10.0	4_exp_AWA_CON_EVA_AMP	134	Rpleas_acq	Same	Rpleas	Bmasked	CS_B	1pleas	distractor2	CONbeforeEVA	acq_new_unple_masked	acq1_masked	1	32	0	0	300	300	0	0	474	46	0	1	0	0	0	1	blank2r.bmp	0	1	+	0	4	B4r.bmp	492	1	blank2r.bmp	786	8	C4r.bmp	786	1	blank2r.bmp	866	3	strafen	866	0	0	0	0	0	0	0	0	0	0	0	0	0	0	0	0	0	0	0	0	0	0	0	0	0	0	0	0	0	0	0	0	0
022119	11:28:15	11:33:57	341445	5.0.10.0	4_exp_AWA_CON_EVA_AMP	134	Rpleas_acq	Same	Rpleas	Bmasked	CS_B	1pleas	distractor2	CONbeforeEVA	acq_new_unple_masked	acq1_masked	1	33	0	0	300	300	0	0	471	46	0	1	0	0	0	1	blank2r.bmp	0	1	+	0	8	C4r.bmp	492	1	blank2r.bmp	786	5	C1r.bmp	786	1	blank2r.bmp	866	1	schroff	866	0	0	0	0	0	0	0	0	0	0	0	0	0	0	0	0	0	0	0	0	0	0	0	0	0	0	0	0	0	0	0	0	0
022119	11:28:15	11:33:59	343578	5.0.10.0	4_exp_AWA_CON_EVA_AMP	134	Rpleas_acq	Same	Rpleas	Bmasked	CS_B	1pleas	distractor2	CONbeforeEVA	acq_new_pleas_masked	acq1_masked	1	34	0	0	300	300	0	0	640	50	0	1	0	0	0	1	blank2r.bmp	0	1	+	0	3	B3r.bmp	492	1	blank2r.bmp	786	7	C3r.bmp	786	1	blank2r.bmp	866	5	lachen	866	0	0	0	0	0	0	0	0	0	0	0	0	0	0	0	0	0	0	0	0	0	0	0	0	0	0	0	0	0	0	0	0	0
022119	11:28:15	11:34:02	346217	5.0.10.0	4_exp_AWA_CON_EVA_AMP	134	Rpleas_acq	Same	Rpleas	Bmasked	CS_B	1pleas	distractor2	CONbeforeEVA	acq_new_pleas_masked	acq1_masked	1	35	0	0	300	300	0	0	1171	50	0	1	0	0	0	1	blank2r.bmp	0	1	+	0	6	C2r.bmp	492	1	blank2r.bmp	786	8	C4r.bmp	786	1	blank2r.bmp	866	1	schlau	866	0	0	0	0	0	0	0	0	0	0	0	0	0	0	0	0	0	0	0	0	0	0	0	0	0	0	0	0	0	0	0	0	0
022119	11:28:15	11:34:04	348269	5.0.10.0	4_exp_AWA_CON_EVA_AMP	134	Rpleas_acq	Same	Rpleas	Bmasked	CS_B	1pleas	distractor2	CONbeforeEVA	acq_new_unple_masked	acq1_masked	1	36	0	0	300	300	0	0	560	46	0	1	0	0	0	1	blank2r.bmp	0	1	+	0	1	B1r.bmp	492	1	blank2r.bmp	786	7	C3r.bmp	786	1	blank2r.bmp	866	4	tyrannisch	866	0	0	0	0	0	0	0	0	0	0	0	0	0	0	0	0	0	0	0	0	0	0	0	0	0	0	0	0	0	0	0	0	0
022119	11:28:15	11:34:35	379363	5.0.10.0	4_exp_AWA_CON_EVA_AMP	134	Rpleas_acq	Same	Rpleas	Bmasked	CS_B	1pleas	distractor2	CONbeforeEVA	acq_new_unple_masked	acq2_masked	2	1	480	0	300	300	0	0	4899	50	0	0	0	0	0	1	blank2r.bmp	0	1	+	0	4	B4r.bmp	492	1	blank2r.bmp	786	3	B3r.bmp	786	1	blank2r.bmp	866	6	eitel	866	1	FEHLER	6104	1	!	1319	1	!	-1	0	0	0	0	0	0	0	0	0	0	0	0	0	0	0	0	0	0	0	0	0	0	0	0
022119	11:28:15	11:34:37	381456	5.0.10.0	4_exp_AWA_CON_EVA_AMP	134	Rpleas_acq	Same	Rpleas	Bmasked	CS_B	1pleas	distractor2	CONbeforeEVA	acq_US_pleas_masked	acq2_masked	2	2	480	1	300	300	0	0	518	50	0	1	0	0	0	1	blank2r.bmp	0	1	+	0	5	C1r.bmp	492	1	blank2r.bmp	786	1	BMVZ	786	1	blank2r.bmp	866	3	freundlich	866	1	!	1319	1	!	1412	0	0	0	0	0	0	0	0	0	0	0	0	0	0	0	0	0	0	0	0	0	0	0	0	0	0	0
022119	11:28:15	11:34:40	384068	5.0.10.0	4_exp_AWA_CON_EVA_AMP	134	Rpleas_acq	Same	Rpleas	Bmasked	CS_B	1pleas	distractor2	CONbeforeEVA	acq_new_pleas_masked	acq2_masked	2	3	480	0	300	300	0	0	617	46	0	0	0	0	0	1	blank2r.bmp	0	1	+	0	7	C3r.bmp	492	1	blank2r.bmp	786	1	B1r.bmp	786	1	blank2r.bmp	866	2	fair	866	1	FEHLER	1825	1	!	1319	1	!	-1	0	0	0	0	0	0	0	0	0	0	0	0	0	0	0	0	0	0	0	0	0	0	0	0
022119	11:28:15	11:34:42	386187	5.0.10.0	4_exp_AWA_CON_EVA_AMP	134	Rpleas_acq	Same	Rpleas	Bmasked	CS_B	1pleas	distractor2	CONbeforeEVA	acq_US_unple_masked	acq2_masked	2	4	480	0	300	300	0	0	559	46	0	1	0	0	0	1	blank2r.bmp	0	1	+	0	2	B2r.bmp	492	1	blank2r.bmp	786	1	GKQX	786	1	blank2r.bmp	866	1	rächen	866	1	!	1319	1	!	-1	0	0	0	0	0	0	0	0	0	0	0	0	0	0	0	0	0	0	0	0	0	0	0	0	0	0	0
022119	11:28:15	11:34:44	388559	5.0.10.0	4_exp_AWA_CON_EVA_AMP	134	Rpleas_acq	Same	Rpleas	Bmasked	CS_B	1pleas	distractor2	CONbeforeEVA	acq_new_pleas_masked	acq2_masked	2	5	480	0	300	300	0	0	593	50	0	1	0	0	0	1	blank2r.bmp	0	1	+	0	5	C1r.bmp	492	1	blank2r.bmp	786	6	C2r.bmp	786	1	blank2r.bmp	866	4	tolerant	866	1	!	1319	1	!	-1	0	0	0	0	0	0	0	0	0	0	0	0	0	0	0	0	0	0	0	0	0	0	0	0	0	0	0
022119	11:28:15	11:34:47	391052	5.0.10.0	4_exp_AWA_CON_EVA_AMP	134	Rpleas_acq	Same	Rpleas	Bmasked	CS_B	1pleas	distractor2	CONbeforeEVA	acq_US_unple_masked	acq2_masked	2	6	480	1	300	300	0	0	475	50	0	0	0	0	0	1	blank2r.bmp	0	1	+	0	4	B4r.bmp	492	1	blank2r.bmp	786	1	GKQX	786	1	blank2r.bmp	866	3	fanatisch	866	1	FEHLER	1692	1	!	1319	1	!	1372	0	0	0	0	0	0	0	0	0	0	0	0	0	0	0	0	0	0	0	0	0	0	0	0
022119	11:28:15	11:34:49	393477	5.0.10.0	4_exp_AWA_CON_EVA_AMP	134	Rpleas_acq	Same	Rpleas	Bmasked	CS_B	1pleas	distractor2	CONbeforeEVA	acq_new_unple_masked	acq2_masked	2	7	480	0	300	300	0	0	856	46	0	1	0	0	0	1	blank2r.bmp	0	1	+	0	1	B1r.bmp	492	1	blank2r.bmp	786	4	B4r.bmp	786	1	blank2r.bmp	866	2	faul	866	1	!	1319	1	!	-1	0	0	0	0	0	0	0	0	0	0	0	0	0	0	0	0	0	0	0	0	0	0	0	0	0	0	0
022119	11:28:15	11:34:51	395783	5.0.10.0	4_exp_AWA_CON_EVA_AMP	134	Rpleas_acq	Same	Rpleas	Bmasked	CS_B	1pleas	distractor2	CONbeforeEVA	acq_US_unple_masked	acq2_masked	2	8	480	1	300	300	0	0	488	46	0	1	0	0	0	1	blank2r.bmp	0	1	+	0	3	B3r.bmp	492	1	blank2r.bmp	786	1	GKQX	786	1	blank2r.bmp	866	2	tot	866	1	!	1319	1	!	1386	0	0	0	0	0	0	0	0	0	0	0	0	0	0	0	0	0	0	0	0	0	0	0	0	0	0	0
022119	11:28:15	11:34:53	397915	5.0.10.0	4_exp_AWA_CON_EVA_AMP	134	Rpleas_acq	Same	Rpleas	Bmasked	CS_B	1pleas	distractor2	CONbeforeEVA	acq_US_pleas_masked	acq2_masked	2	9	480	0	300	300	0	0	366	50	0	1	0	0	0	1	blank2r.bmp	0	1	+	0	2	B2r.bmp	492	1	blank2r.bmp	786	1	BMVZ	786	1	blank2r.bmp	866	4	loyal	866	1	!	-1	1	!	-1	0	0	0	0	0	0	0	0	0	0	0	0	0	0	0	0	0	0	0	0	0	0	0	0	0	0	0
022119	11:28:15	11:34:56	400248	5.0.10.0	4_exp_AWA_CON_EVA_AMP	134	Rpleas_acq	Same	Rpleas	Bmasked	CS_B	1pleas	distractor2	CONbeforeEVA	acq_new_pleas_masked	acq2_masked	2	10	480	1	300	300	0	0	528	50	0	1	0	0	0	1	blank2r.bmp	0	1	+	0	8	C4r.bmp	492	1	blank2r.bmp	786	2	B2r.bmp	786	1	blank2r.bmp	866	6	ehrlich	866	1	!	1319	1	!	1426	0	0	0	0	0	0	0	0	0	0	0	0	0	0	0	0	0	0	0	0	0	0	0	0	0	0	0
022119	11:28:15	11:34:58	402833	5.0.10.0	4_exp_AWA_CON_EVA_AMP	134	Rpleas_acq	Same	Rpleas	Bmasked	CS_B	1pleas	distractor2	CONbeforeEVA	acq_new_unple_masked	acq2_masked	2	11	480	0	300	300	0	0	573	50	0	0	0	0	0	1	blank2r.bmp	0	1	+	0	6	C2r.bmp	492	1	blank2r.bmp	786	5	C1r.bmp	786	1	blank2r.bmp	866	5	leiden	866	1	FEHLER	1785	1	!	1319	1	!	-1	0	0	0	0	0	0	0	0	0	0	0	0	0	0	0	0	0	0	0	0	0	0	0	0
022119	11:28:15	11:35:00	404873	5.0.10.0	4_exp_AWA_CON_EVA_AMP	134	Rpleas_acq	Same	Rpleas	Bmasked	CS_B	1pleas	distractor2	CONbeforeEVA	acq_US_pleas_masked	acq2_masked	2	12	480	1	300	300	0	0	456	50	0	1	0	0	0	1	blank2r.bmp	0	1	+	0	7	C3r.bmp	492	1	blank2r.bmp	786	1	BMVZ	786	1	blank2r.bmp	866	2	treu	866	1	!	1319	1	!	1359	0	0	0	0	0	0	0	0	0	0	0	0	0	0	0	0	0	0	0	0	0	0	0	0	0	0	0
022119	11:28:15	11:35:03	407152	5.0.10.0	4_exp_AWA_CON_EVA_AMP	134	Rpleas_acq	Same	Rpleas	Bmasked	CS_B	1pleas	distractor2	CONbeforeEVA	acq_new_unple_masked	acq2_masked	2	13	480	1	300	300	0	0	490	46	0	1	0	0	0	1	blank2r.bmp	0	1	+	0	6	C2r.bmp	492	1	blank2r.bmp	786	7	C3r.bmp	786	1	blank2r.bmp	866	6	eitel	866	1	!	1319	1	!	1386	0	0	0	0	0	0	0	0	0	0	0	0	0	0	0	0	0	0	0	0	0	0	0	0	0	0	0
022119	11:28:15	11:35:05	409311	5.0.10.0	4_exp_AWA_CON_EVA_AMP	134	Rpleas_acq	Same	Rpleas	Bmasked	CS_B	1pleas	distractor2	CONbeforeEVA	acq_new_pleas_masked	acq2_masked	2	14	480	0	300	300	0	0	395	50	0	1	0	0	0	1	blank2r.bmp	0	1	+	0	4	B4r.bmp	492	1	blank2r.bmp	786	1	B1r.bmp	786	1	blank2r.bmp	866	4	tolerant	866	1	!	-1	1	!	-1	0	0	0	0	0	0	0	0	0	0	0	0	0	0	0	0	0	0	0	0	0	0	0	0	0	0	0
022119	11:28:15	11:35:07	411603	5.0.10.0	4_exp_AWA_CON_EVA_AMP	134	Rpleas_acq	Same	Rpleas	Bmasked	CS_B	1pleas	distractor2	CONbeforeEVA	acq_US_pleas_masked	acq2_masked	2	15	480	1	300	300	0	0	485	50	0	1	0	0	0	1	blank2r.bmp	0	1	+	0	2	B2r.bmp	492	1	blank2r.bmp	786	1	BMVZ	786	1	blank2r.bmp	866	5	schön	866	1	!	1319	1	!	1386	0	0	0	0	0	0	0	0	0	0	0	0	0	0	0	0	0	0	0	0	0	0	0	0	0	0	0
022119	11:28:15	11:35:09	413842	5.0.10.0	4_exp_AWA_CON_EVA_AMP	134	Rpleas_acq	Same	Rpleas	Bmasked	CS_B	1pleas	distractor2	CONbeforeEVA	acq_US_pleas_masked	acq2_masked	2	16	480	1	300	300	0	0	426	50	0	1	0	0	0	1	blank2r.bmp	0	1	+	0	8	C4r.bmp	492	1	blank2r.bmp	786	1	BMVZ	786	1	blank2r.bmp	866	3	freundlich	866	1	!	1319	1	!	1332	0	0	0	0	0	0	0	0	0	0	0	0	0	0	0	0	0	0	0	0	0	0	0	0	0	0	0
022119	11:28:15	11:35:12	416015	5.0.10.0	4_exp_AWA_CON_EVA_AMP	134	Rpleas_acq	Same	Rpleas	Bmasked	CS_B	1pleas	distractor2	CONbeforeEVA	acq_new_pleas_masked	acq2_masked	2	17	480	0	300	300	0	0	400	50	0	1	0	0	0	1	blank2r.bmp	0	1	+	0	3	B3r.bmp	492	1	blank2r.bmp	786	8	C4r.bmp	786	1	blank2r.bmp	866	3	spielen	866	1	!	-1	1	!	-1	0	0	0	0	0	0	0	0	0	0	0	0	0	0	0	0	0	0	0	0	0	0	0	0	0	0	0
022119	11:28:15	11:35:14	418374	5.0.10.0	4_exp_AWA_CON_EVA_AMP	134	Rpleas_acq	Same	Rpleas	Bmasked	CS_B	1pleas	distractor2	CONbeforeEVA	acq_new_unple_masked	acq2_masked	2	18	480	0	300	300	0	0	574	46	0	1	0	0	0	1	blank2r.bmp	0	1	+	0	7	C3r.bmp	492	1	blank2r.bmp	786	6	C2r.bmp	786	1	blank2r.bmp	866	5	leiden	866	1	!	1319	1	!	-1	0	0	0	0	0	0	0	0	0	0	0	0	0	0	0	0	0	0	0	0	0	0	0	0	0	0	0
022119	11:28:15	11:35:16	420786	5.0.10.0	4_exp_AWA_CON_EVA_AMP	134	Rpleas_acq	Same	Rpleas	Bmasked	CS_B	1pleas	distractor2	CONbeforeEVA	acq_US_unple_masked	acq2_masked	2	19	480	0	300	300	0	0	406	50	0	0	0	0	0	1	blank2r.bmp	0	1	+	0	1	B1r.bmp	492	1	blank2r.bmp	786	1	GKQX	786	1	blank2r.bmp	866	4	lasch	866	1	FEHLER	1612	1	!	-1	1	!	-1	0	0	0	0	0	0	0	0	0	0	0	0	0	0	0	0	0	0	0	0	0	0	0	0
022119	11:28:15	11:35:21	425664	5.0.10.0	4_exp_AWA_CON_EVA_AMP	134	Rpleas_acq	Same	Rpleas	Bmasked	CS_B	1pleas	distractor2	CONbeforeEVA	acq_US_unple_masked	acq2_masked	2	20	480	0	300	300	0	0	3308	46	0	1	0	0	0	1	blank2r.bmp	0	1	+	0	5	C1r.bmp	492	1	blank2r.bmp	786	1	GKQX	786	1	blank2r.bmp	866	5	schlecht	866	1	!	1319	1	!	-1	0	0	0	0	0	0	0	0	0	0	0	0	0	0	0	0	0	0	0	0	0	0	0	0	0	0	0
022119	11:28:15	11:35:23	427903	5.0.10.0	4_exp_AWA_CON_EVA_AMP	134	Rpleas_acq	Same	Rpleas	Bmasked	CS_B	1pleas	distractor2	CONbeforeEVA	acq_new_pleas_masked	acq2_masked	2	21	480	1	300	300	0	0	434	50	0	1	0	0	0	1	blank2r.bmp	0	1	+	0	6	C2r.bmp	492	1	blank2r.bmp	786	4	B4r.bmp	786	1	blank2r.bmp	866	1	schlau	866	1	!	1319	1	!	1332	0	0	0	0	0	0	0	0	0	0	0	0	0	0	0	0	0	0	0	0	0	0	0	0	0	0	0
022119	11:28:15	11:35:26	430262	5.0.10.0	4_exp_AWA_CON_EVA_AMP	134	Rpleas_acq	Same	Rpleas	Bmasked	CS_B	1pleas	distractor2	CONbeforeEVA	acq_new_unple_masked	acq2_masked	2	22	480	0	300	300	0	0	588	46	0	1	0	0	0	1	blank2r.bmp	0	1	+	0	7	C3r.bmp	492	1	blank2r.bmp	786	2	B2r.bmp	786	1	blank2r.bmp	866	4	tyrannisch	866	1	!	1319	1	!	-1	0	0	0	0	0	0	0	0	0	0	0	0	0	0	0	0	0	0	0	0	0	0	0	0	0	0	0
022119	11:28:15	11:35:28	432461	5.0.10.0	4_exp_AWA_CON_EVA_AMP	134	Rpleas_acq	Same	Rpleas	Bmasked	CS_B	1pleas	distractor2	CONbeforeEVA	acq_US_pleas_masked	acq2_masked	2	23	480	0	300	300	0	0	398	50	0	1	0	0	0	1	blank2r.bmp	0	1	+	0	5	C1r.bmp	492	1	blank2r.bmp	786	1	BMVZ	786	1	blank2r.bmp	866	1	retten	866	1	!	-1	1	!	-1	0	0	0	0	0	0	0	0	0	0	0	0	0	0	0	0	0	0	0	0	0	0	0	0	0	0	0
022119	11:28:15	11:35:30	434700	5.0.10.0	4_exp_AWA_CON_EVA_AMP	134	Rpleas_acq	Same	Rpleas	Bmasked	CS_B	1pleas	distractor2	CONbeforeEVA	acq_US_unple_masked	acq2_masked	2	24	480	1	300	300	0	0	426	46	0	1	0	0	0	1	blank2r.bmp	0	1	+	0	8	C4r.bmp	492	1	blank2r.bmp	786	1	GKQX	786	1	blank2r.bmp	866	1	rächen	866	1	!	1319	1	!	1332	0	0	0	0	0	0	0	0	0	0	0	0	0	0	0	0	0	0	0	0	0	0	0	0	0	0	0
022119	11:28:15	11:35:32	436739	5.0.10.0	4_exp_AWA_CON_EVA_AMP	134	Rpleas_acq	Same	Rpleas	Bmasked	CS_B	1pleas	distractor2	CONbeforeEVA	acq_US_pleas_masked	acq2_masked	2	25	480	0	300	300	0	0	273	50	0	1	0	0	0	1	blank2r.bmp	0	1	+	0	4	B4r.bmp	492	1	blank2r.bmp	786	1	BMVZ	786	1	blank2r.bmp	866	4	loyal	866	1	!	-1	1	!	-1	0	0	0	0	0	0	0	0	0	0	0	0	0	0	0	0	0	0	0	0	0	0	0	0	0	0	0
022119	11:28:15	11:35:35	439138	5.0.10.0	4_exp_AWA_CON_EVA_AMP	134	Rpleas_acq	Same	Rpleas	Bmasked	CS_B	1pleas	distractor2	CONbeforeEVA	acq_new_pleas_masked	acq2_masked	2	26	480	0	300	300	0	0	385	46	0	0	0	0	0	1	blank2r.bmp	0	1	+	0	2	B2r.bmp	492	1	blank2r.bmp	786	5	C1r.bmp	786	1	blank2r.bmp	866	5	lachen	866	1	FEHLER	1599	1	!	-1	1	!	-1	0	0	0	0	0	0	0	0	0	0	0	0	0	0	0	0	0	0	0	0	0	0	0	0
022119	11:28:15	11:35:37	441244	5.0.10.0	4_exp_AWA_CON_EVA_AMP	134	Rpleas_acq	Same	Rpleas	Bmasked	CS_B	1pleas	distractor2	CONbeforeEVA	acq_US_pleas_masked	acq2_masked	2	27	480	1	300	300	0	0	519	50	0	1	0	0	0	1	blank2r.bmp	0	1	+	0	3	B3r.bmp	492	1	blank2r.bmp	786	1	BMVZ	786	1	blank2r.bmp	866	2	treu	866	1	!	1319	1	!	1426	0	0	0	0	0	0	0	0	0	0	0	0	0	0	0	0	0	0	0	0	0	0	0	0	0	0	0
022119	11:28:15	11:35:39	443443	5.0.10.0	4_exp_AWA_CON_EVA_AMP	134	Rpleas_acq	Same	Rpleas	Bmasked	CS_B	1pleas	distractor2	CONbeforeEVA	acq_US_pleas_masked	acq2_masked	2	28	480	0	300	300	0	0	413	50	0	1	0	0	0	1	blank2r.bmp	0	1	+	0	1	B1r.bmp	492	1	blank2r.bmp	786	1	BMVZ	786	1	blank2r.bmp	866	6	helfen	866	1	!	-1	1	!	-1	0	0	0	0	0	0	0	0	0	0	0	0	0	0	0	0	0	0	0	0	0	0	0	0	0	0	0
022119	11:28:15	11:35:41	445789	5.0.10.0	4_exp_AWA_CON_EVA_AMP	134	Rpleas_acq	Same	Rpleas	Bmasked	CS_B	1pleas	distractor2	CONbeforeEVA	acq_US_unple_masked	acq2_masked	2	29	480	1	300	300	0	0	533	46	0	1	0	0	0	1	blank2r.bmp	0	1	+	0	1	B1r.bmp	492	1	blank2r.bmp	786	1	GKQX	786	1	blank2r.bmp	866	2	tot	866	1	!	1319	1	!	1439	0	0	0	0	0	0	0	0	0	0	0	0	0	0	0	0	0	0	0	0	0	0	0	0	0	0	0
022119	11:28:15	11:35:44	448161	5.0.10.0	4_exp_AWA_CON_EVA_AMP	134	Rpleas_acq	Same	Rpleas	Bmasked	CS_B	1pleas	distractor2	CONbeforeEVA	acq_US_unple_masked	acq2_masked	2	30	480	0	300	300	0	0	386	50	0	0	0	0	0	1	blank2r.bmp	0	1	+	0	7	C3r.bmp	492	1	blank2r.bmp	786	1	GKQX	786	1	blank2r.bmp	866	3	fanatisch	866	1	FEHLER	1599	1	!	-1	1	!	-1	0	0	0	0	0	0	0	0	0	0	0	0	0	0	0	0	0	0	0	0	0	0	0	0
022119	11:28:15	11:35:46	450374	5.0.10.0	4_exp_AWA_CON_EVA_AMP	134	Rpleas_acq	Same	Rpleas	Bmasked	CS_B	1pleas	distractor2	CONbeforeEVA	acq_new_unple_masked	acq2_masked	2	31	480	0	300	300	0	0	650	46	0	1	0	0	0	1	blank2r.bmp	0	1	+	0	5	C1r.bmp	492	1	blank2r.bmp	786	3	B3r.bmp	786	1	blank2r.bmp	866	1	schroff	866	1	!	1319	1	!	-1	0	0	0	0	0	0	0	0	0	0	0	0	0	0	0	0	0	0	0	0	0	0	0	0	0	0	0
022119	11:28:15	11:35:49	453053	5.0.10.0	4_exp_AWA_CON_EVA_AMP	134	Rpleas_acq	Same	Rpleas	Bmasked	CS_B	1pleas	distractor2	CONbeforeEVA	acq_new_unple_masked	acq2_masked	2	32	480	0	300	300	0	0	904	46	0	1	0	0	0	1	blank2r.bmp	0	1	+	0	4	B4r.bmp	492	1	blank2r.bmp	786	1	B1r.bmp	786	1	blank2r.bmp	866	3	strafen	866	1	!	1319	1	!	-1	0	0	0	0	0	0	0	0	0	0	0	0	0	0	0	0	0	0	0	0	0	0	0	0	0	0	0
022119	11:28:15	11:35:51	455545	5.0.10.0	4_exp_AWA_CON_EVA_AMP	134	Rpleas_acq	Same	Rpleas	Bmasked	CS_B	1pleas	distractor2	CONbeforeEVA	acq_new_unple_masked	acq2_masked	2	33	480	1	300	300	0	0	472	50	0	0	0	0	0	1	blank2r.bmp	0	1	+	0	6	C2r.bmp	492	1	blank2r.bmp	786	3	B3r.bmp	786	1	blank2r.bmp	866	2	faul	866	1	FEHLER	1692	1	!	1319	1	!	1372	0	0	0	0	0	0	0	0	0	0	0	0	0	0	0	0	0	0	0	0	0	0	0	0
022119	11:28:15	11:35:53	457558	5.0.10.0	4_exp_AWA_CON_EVA_AMP	134	Rpleas_acq	Same	Rpleas	Bmasked	CS_B	1pleas	distractor2	CONbeforeEVA	acq_new_pleas_masked	acq2_masked	2	34	480	1	300	300	0	0	428	50	0	1	0	0	0	1	blank2r.bmp	0	1	+	0	2	B2r.bmp	492	1	blank2r.bmp	786	8	C4r.bmp	786	1	blank2r.bmp	866	6	ehrlich	866	1	!	1319	1	!	1332	0	0	0	0	0	0	0	0	0	0	0	0	0	0	0	0	0	0	0	0	0	0	0	0	0	0	0
022119	11:28:15	11:35:55	459863	5.0.10.0	4_exp_AWA_CON_EVA_AMP	134	Rpleas_acq	Same	Rpleas	Bmasked	CS_B	1pleas	distractor2	CONbeforeEVA	acq_new_pleas_masked	acq2_masked	2	35	480	1	300	300	0	0	509	50	0	1	0	0	0	1	blank2r.bmp	0	1	+	0	8	C4r.bmp	492	1	blank2r.bmp	786	4	B4r.bmp	786	1	blank2r.bmp	866	2	fair	866	1	!	1319	1	!	1412	0	0	0	0	0	0	0	0	0	0	0	0	0	0	0	0	0	0	0	0	0	0	0	0	0	0	0
022119	11:28:15	11:35:58	462356	5.0.10.0	4_exp_AWA_CON_EVA_AMP	134	Rpleas_acq	Same	Rpleas	Bmasked	CS_B	1pleas	distractor2	CONbeforeEVA	acq_US_unple_masked	acq2_masked	2	36	480	0	300	300	0	0	723	46	0	1	0	0	0	1	blank2r.bmp	0	1	+	0	3	B3r.bmp	492	1	blank2r.bmp	786	1	GKQX	786	1	blank2r.bmp	866	6	hindern	866	1	!	1319	1	!	-1	0	0	0	0	0	0	0	0	0	0	0	0	0	0	0	0	0	0	0	0	0	0	0	0	0	0	0
022119	11:28:15	11:36:13	477043	5.0.10.0	4_exp_AWA_CON_EVA_AMP	134	Rpleas_acq	Same	Rpleas	Bmasked	CS_B	1pleas	distractor2	CONbeforeEVA	acq_US_unple_masked	acq3_masked	3	1	453	0	300	300	0	0	850	46	0	1	0	0	0	1	blank2r.bmp	0	1	+	0	1	B1r.bmp	492	1	blank2r.bmp	786	1	GKQX	786	1	blank2r.bmp	866	1	rächen	866	1	!	1292	1	!	-1	0	0	0	0	0	0	0	0	0	0	0	0	0	0	0	0	0	0	0	0	0	0	0	0	0	0	0
022119	11:28:15	11:36:15	479522	5.0.10.0	4_exp_AWA_CON_EVA_AMP	134	Rpleas_acq	Same	Rpleas	Bmasked	CS_B	1pleas	distractor2	CONbeforeEVA	acq_US_unple_masked	acq3_masked	3	2	453	1	300	300	0	0	464	50	0	0	0	0	0	1	blank2r.bmp	0	1	+	0	6	C2r.bmp	492	1	blank2r.bmp	786	1	GKQX	786	1	blank2r.bmp	866	3	fanatisch	866	1	FEHLER	1679	1	!	1292	1	!	1359	0	0	0	0	0	0	0	0	0	0	0	0	0	0	0	0	0	0	0	0	0	0	0	0
022119	11:28:15	11:36:17	481961	5.0.10.0	4_exp_AWA_CON_EVA_AMP	134	Rpleas_acq	Same	Rpleas	Bmasked	CS_B	1pleas	distractor2	CONbeforeEVA	acq_US_unple_masked	acq3_masked	3	3	453	0	300	300	0	0	878	46	0	1	0	0	0	1	blank2r.bmp	0	1	+	0	7	C3r.bmp	492	1	blank2r.bmp	786	1	GKQX	786	1	blank2r.bmp	866	5	schlecht	866	1	!	1292	1	!	-1	0	0	0	0	0	0	0	0	0	0	0	0	0	0	0	0	0	0	0	0	0	0	0	0	0	0	0
022119	11:28:15	11:36:20	484200	5.0.10.0	4_exp_AWA_CON_EVA_AMP	134	Rpleas_acq	Same	Rpleas	Bmasked	CS_B	1pleas	distractor2	CONbeforeEVA	acq_US_pleas_masked	acq3_masked	3	4	453	1	300	300	0	0	420	50	0	1	0	0	0	1	blank2r.bmp	0	1	+	0	8	C4r.bmp	492	1	blank2r.bmp	786	1	BMVZ	786	1	blank2r.bmp	866	2	treu	866	1	!	1292	1	!	1319	0	0	0	0	0	0	0	0	0	0	0	0	0	0	0	0	0	0	0	0	0	0	0	0	0	0	0
022119	11:28:15	11:36:22	486586	5.0.10.0	4_exp_AWA_CON_EVA_AMP	134	Rpleas_acq	Same	Rpleas	Bmasked	CS_B	1pleas	distractor2	CONbeforeEVA	acq_US_unple_masked	acq3_masked	3	5	453	0	300	300	0	0	619	46	0	1	0	0	0	1	blank2r.bmp	0	1	+	0	5	C1r.bmp	492	1	blank2r.bmp	786	1	GKQX	786	1	blank2r.bmp	866	4	lasch	866	1	!	1292	1	!	-1	0	0	0	0	0	0	0	0	0	0	0	0	0	0	0	0	0	0	0	0	0	0	0	0	0	0	0
022119	11:28:15	11:36:25	489011	5.0.10.0	4_exp_AWA_CON_EVA_AMP	134	Rpleas_acq	Same	Rpleas	Bmasked	CS_B	1pleas	distractor2	CONbeforeEVA	acq_US_pleas_masked	acq3_masked	3	6	453	0	300	300	0	0	638	50	0	1	0	0	0	1	blank2r.bmp	0	1	+	0	2	B2r.bmp	492	1	blank2r.bmp	786	1	BMVZ	786	1	blank2r.bmp	866	3	freundlich	866	1	!	1292	1	!	-1	0	0	0	0	0	0	0	0	0	0	0	0	0	0	0	0	0	0	0	0	0	0	0	0	0	0	0
022119	11:28:15	11:36:27	491344	5.0.10.0	4_exp_AWA_CON_EVA_AMP	134	Rpleas_acq	Same	Rpleas	Bmasked	CS_B	1pleas	distractor2	CONbeforeEVA	acq_US_pleas_masked	acq3_masked	3	7	453	0	300	300	0	0	546	50	0	1	0	0	0	1	blank2r.bmp	0	1	+	0	4	B4r.bmp	492	1	blank2r.bmp	786	1	BMVZ	786	1	blank2r.bmp	866	1	retten	866	1	!	1292	1	!	-1	0	0	0	0	0	0	0	0	0	0	0	0	0	0	0	0	0	0	0	0	0	0	0	0	0	0	0
022119	11:28:15	11:36:29	493569	5.0.10.0	4_exp_AWA_CON_EVA_AMP	134	Rpleas_acq	Same	Rpleas	Bmasked	CS_B	1pleas	distractor2	CONbeforeEVA	acq_US_unple_masked	acq3_masked	3	8	453	1	300	300	0	0	415	46	0	1	0	0	0	1	blank2r.bmp	0	1	+	0	3	B3r.bmp	492	1	blank2r.bmp	786	1	GKQX	786	1	blank2r.bmp	866	2	tot	866	1	!	1292	1	!	1319	0	0	0	0	0	0	0	0	0	0	0	0	0	0	0	0	0	0	0	0	0	0	0	0	0	0	0
022119	11:28:15	11:36:31	495928	5.0.10.0	4_exp_AWA_CON_EVA_AMP	134	Rpleas_acq	Same	Rpleas	Bmasked	CS_B	1pleas	distractor2	CONbeforeEVA	acq_US_unple_masked	acq3_masked	3	9	453	0	300	300	0	0	585	46	0	1	0	0	0	1	blank2r.bmp	0	1	+	0	1	B1r.bmp	492	1	blank2r.bmp	786	1	GKQX	786	1	blank2r.bmp	866	6	hindern	866	1	!	1292	1	!	-1	0	0	0	0	0	0	0	0	0	0	0	0	0	0	0	0	0	0	0	0	0	0	0	0	0	0	0
022119	11:28:15	11:36:34	497981	5.0.10.0	4_exp_AWA_CON_EVA_AMP	134	Rpleas_acq	Same	Rpleas	Bmasked	CS_B	1pleas	distractor2	CONbeforeEVA	acq_US_pleas_masked	acq3_masked	3	10	453	0	300	300	0	0	278	50	0	1	0	0	0	1	blank2r.bmp	0	1	+	0	6	C2r.bmp	492	1	blank2r.bmp	786	1	BMVZ	786	1	blank2r.bmp	866	5	schön	866	1	!	-1	1	!	-1	0	0	0	0	0	0	0	0	0	0	0	0	0	0	0	0	0	0	0	0	0	0	0	0	0	0	0
022119	11:28:15	11:36:36	500553	5.0.10.0	4_exp_AWA_CON_EVA_AMP	134	Rpleas_acq	Same	Rpleas	Bmasked	CS_B	1pleas	distractor2	CONbeforeEVA	acq_US_pleas_masked	acq3_masked	3	11	453	0	300	300	0	0	783	50	0	1	0	0	0	1	blank2r.bmp	0	1	+	0	7	C3r.bmp	492	1	blank2r.bmp	786	1	BMVZ	786	1	blank2r.bmp	866	6	helfen	866	1	!	1292	1	!	-1	0	0	0	0	0	0	0	0	0	0	0	0	0	0	0	0	0	0	0	0	0	0	0	0	0	0	0
022119	11:28:15	11:36:38	502886	5.0.10.0	4_exp_AWA_CON_EVA_AMP	134	Rpleas_acq	Same	Rpleas	Bmasked	CS_B	1pleas	distractor2	CONbeforeEVA	acq_US_pleas_masked	acq3_masked	3	12	453	0	300	300	0	0	547	50	0	1	0	0	0	1	blank2r.bmp	0	1	+	0	4	B4r.bmp	492	1	blank2r.bmp	786	1	BMVZ	786	1	blank2r.bmp	866	4	loyal	866	1	!	1292	1	!	-1	0	0	0	0	0	0	0	0	0	0	0	0	0	0	0	0	0	0	0	0	0	0	0	0	0	0	0
022119	11:28:15	11:36:41	505298	5.0.10.0	4_exp_AWA_CON_EVA_AMP	134	Rpleas_acq	Same	Rpleas	Bmasked	CS_B	1pleas	distractor2	CONbeforeEVA	acq_US_unple_masked	acq3_masked	3	13	453	0	300	300	0	0	636	46	0	1	0	0	0	1	blank2r.bmp	0	1	+	0	5	C1r.bmp	492	1	blank2r.bmp	786	1	GKQX	786	1	blank2r.bmp	866	1	rächen	866	1	!	1292	1	!	-1	0	0	0	0	0	0	0	0	0	0	0	0	0	0	0	0	0	0	0	0	0	0	0	0	0	0	0
022119	11:28:15	11:36:43	507630	5.0.10.0	4_exp_AWA_CON_EVA_AMP	134	Rpleas_acq	Same	Rpleas	Bmasked	CS_B	1pleas	distractor2	CONbeforeEVA	acq_US_pleas_masked	acq3_masked	3	14	453	0	300	300	0	0	541	50	0	1	0	0	0	1	blank2r.bmp	0	1	+	0	3	B3r.bmp	492	1	blank2r.bmp	786	1	BMVZ	786	1	blank2r.bmp	866	1	retten	866	1	!	1292	1	!	-1	0	0	0	0	0	0	0	0	0	0	0	0	0	0	0	0	0	0	0	0	0	0	0	0	0	0	0
022119	11:28:15	11:36:45	509869	5.0.10.0	4_exp_AWA_CON_EVA_AMP	134	Rpleas_acq	Same	Rpleas	Bmasked	CS_B	1pleas	distractor2	CONbeforeEVA	acq_US_unple_masked	acq3_masked	3	15	453	1	300	300	0	0	432	46	0	1	0	0	0	1	blank2r.bmp	0	1	+	0	2	B2r.bmp	492	1	blank2r.bmp	786	1	GKQX	786	1	blank2r.bmp	866	2	tot	866	1	!	1292	1	!	1332	0	0	0	0	0	0	0	0	0	0	0	0	0	0	0	0	0	0	0	0	0	0	0	0	0	0	0
022119	11:28:15	11:36:47	511935	5.0.10.0	4_exp_AWA_CON_EVA_AMP	134	Rpleas_acq	Same	Rpleas	Bmasked	CS_B	1pleas	distractor2	CONbeforeEVA	acq_US_pleas_masked	acq3_masked	3	16	453	0	300	300	0	0	304	50	0	1	0	0	0	1	blank2r.bmp	0	1	+	0	8	C4r.bmp	492	1	blank2r.bmp	786	1	BMVZ	786	1	blank2r.bmp	866	3	freundlich	866	1	!	-1	1	!	-1	0	0	0	0	0	0	0	0	0	0	0	0	0	0	0	0	0	0	0	0	0	0	0	0	0	0	0
022119	11:28:15	11:36:50	514361	5.0.10.0	4_exp_AWA_CON_EVA_AMP	134	Rpleas_acq	Same	Rpleas	Bmasked	CS_B	1pleas	distractor2	CONbeforeEVA	acq_US_pleas_masked	acq3_masked	3	17	453	0	300	300	0	0	649	50	0	1	0	0	0	1	blank2r.bmp	0	1	+	0	8	C4r.bmp	492	1	blank2r.bmp	786	1	BMVZ	786	1	blank2r.bmp	866	5	schön	866	1	!	1292	1	!	-1	0	0	0	0	0	0	0	0	0	0	0	0	0	0	0	0	0	0	0	0	0	0	0	0	0	0	0
022119	11:28:15	11:36:52	516853	5.0.10.0	4_exp_AWA_CON_EVA_AMP	134	Rpleas_acq	Same	Rpleas	Bmasked	CS_B	1pleas	distractor2	CONbeforeEVA	acq_US_unple_masked	acq3_masked	3	18	453	0	300	300	0	0	698	46	0	1	0	0	0	1	blank2r.bmp	0	1	+	0	6	C2r.bmp	492	1	blank2r.bmp	786	1	GKQX	786	1	blank2r.bmp	866	3	fanatisch	866	1	!	1292	1	!	-1	0	0	0	0	0	0	0	0	0	0	0	0	0	0	0	0	0	0	0	0	0	0	0	0	0	0	0
022119	11:28:15	11:36:55	519172	5.0.10.0	4_exp_AWA_CON_EVA_AMP	134	Rpleas_acq	Same	Rpleas	Bmasked	CS_B	1pleas	distractor2	CONbeforeEVA	acq_US_unple_masked	acq3_masked	3	19	453	1	300	300	0	0	511	46	0	1	0	0	0	1	blank2r.bmp	0	1	+	0	2	B2r.bmp	492	1	blank2r.bmp	786	1	GKQX	786	1	blank2r.bmp	866	5	schlecht	866	1	!	1292	1	!	1412	0	0	0	0	0	0	0	0	0	0	0	0	0	0	0	0	0	0	0	0	0	0	0	0	0	0	0
022119	11:28:15	11:36:57	521371	5.0.10.0	4_exp_AWA_CON_EVA_AMP	134	Rpleas_acq	Same	Rpleas	Bmasked	CS_B	1pleas	distractor2	CONbeforeEVA	acq_US_pleas_masked	acq3_masked	3	20	453	1	300	300	0	0	399	50	0	1	0	0	0	1	blank2r.bmp	0	1	+	0	7	C3r.bmp	492	1	blank2r.bmp	786	1	BMVZ	786	1	blank2r.bmp	866	2	treu	866	1	!	1292	1	!	1306	0	0	0	0	0	0	0	0	0	0	0	0	0	0	0	0	0	0	0	0	0	0	0	0	0	0	0
022119	11:28:15	11:36:59	523624	5.0.10.0	4_exp_AWA_CON_EVA_AMP	134	Rpleas_acq	Same	Rpleas	Bmasked	CS_B	1pleas	distractor2	CONbeforeEVA	acq_US_unple_masked	acq3_masked	3	21	453	1	300	300	0	0	460	46	0	1	0	0	0	1	blank2r.bmp	0	1	+	0	4	B4r.bmp	492	1	blank2r.bmp	786	1	GKQX	786	1	blank2r.bmp	866	6	hindern	866	1	!	1292	1	!	1359	0	0	0	0	0	0	0	0	0	0	0	0	0	0	0	0	0	0	0	0	0	0	0	0	0	0	0
022119	11:28:15	11:37:01	525823	5.0.10.0	4_exp_AWA_CON_EVA_AMP	134	Rpleas_acq	Same	Rpleas	Bmasked	CS_B	1pleas	distractor2	CONbeforeEVA	acq_US_pleas_masked	acq3_masked	3	22	453	1	300	300	0	0	408	50	0	1	0	0	0	1	blank2r.bmp	0	1	+	0	3	B3r.bmp	492	1	blank2r.bmp	786	1	BMVZ	786	1	blank2r.bmp	866	6	helfen	866	1	!	1292	1	!	1306	0	0	0	0	0	0	0	0	0	0	0	0	0	0	0	0	0	0	0	0	0	0	0	0	0	0	0
022119	11:28:15	11:37:04	528075	5.0.10.0	4_exp_AWA_CON_EVA_AMP	134	Rpleas_acq	Same	Rpleas	Bmasked	CS_B	1pleas	distractor2	CONbeforeEVA	acq_US_unple_masked	acq3_masked	3	23	453	1	300	300	0	0	462	46	0	1	0	0	0	1	blank2r.bmp	0	1	+	0	1	B1r.bmp	492	1	blank2r.bmp	786	1	GKQX	786	1	blank2r.bmp	866	4	lasch	866	1	!	1292	1	!	1359	0	0	0	0	0	0	0	0	0	0	0	0	0	0	0	0	0	0	0	0	0	0	0	0	0	0	0
022119	11:28:15	11:37:06	530448	5.0.10.0	4_exp_AWA_CON_EVA_AMP	134	Rpleas_acq	Same	Rpleas	Bmasked	CS_B	1pleas	distractor2	CONbeforeEVA	acq_US_pleas_masked	acq3_masked	3	24	453	0	300	300	0	0	610	50	0	1	0	0	0	1	blank2r.bmp	0	1	+	0	5	C1r.bmp	492	1	blank2r.bmp	786	1	BMVZ	786	1	blank2r.bmp	866	4	loyal	866	1	!	1292	1	!	-1	0	0	0	0	0	0	0	0	0	0	0	0	0	0	0	0	0	0	0	0	0	0	0	0	0	0	0
022119	11:28:15	11:37:09	533713	5.0.10.0	4_exp_AWA_CON_EVA_AMP	134	Rpleas_acq	Same	Rpleas	Bmasked	CS_B	1pleas	distractor2	CONbeforeEVA	acq_US_unple_masked	acq3_masked	3	25	453	0	300	300	0	0	1481	46	0	1	0	0	0	1	blank2r.bmp	0	1	+	0	1	B1r.bmp	492	1	blank2r.bmp	786	1	GKQX	786	1	blank2r.bmp	866	3	fanatisch	866	1	!	1292	1	!	-1	0	0	0	0	0	0	0	0	0	0	0	0	0	0	0	0	0	0	0	0	0	0	0	0	0	0	0
022119	11:28:15	11:37:11	535752	5.0.10.0	4_exp_AWA_CON_EVA_AMP	134	Rpleas_acq	Same	Rpleas	Bmasked	CS_B	1pleas	distractor2	CONbeforeEVA	acq_US_pleas_masked	acq3_masked	3	26	453	0	300	300	0	0	263	50	0	1	0	0	0	1	blank2r.bmp	0	1	+	0	8	C4r.bmp	492	1	blank2r.bmp	786	1	BMVZ	786	1	blank2r.bmp	866	2	treu	866	1	!	-1	1	!	-1	0	0	0	0	0	0	0	0	0	0	0	0	0	0	0	0	0	0	0	0	0	0	0	0	0	0	0
022119	11:28:15	11:37:14	538191	5.0.10.0	4_exp_AWA_CON_EVA_AMP	134	Rpleas_acq	Same	Rpleas	Bmasked	CS_B	1pleas	distractor2	CONbeforeEVA	acq_US_pleas_masked	acq3_masked	3	27	453	0	300	300	0	0	658	50	0	1	0	0	0	1	blank2r.bmp	0	1	+	0	5	C1r.bmp	492	1	blank2r.bmp	786	1	BMVZ	786	1	blank2r.bmp	866	3	freundlich	866	1	!	1292	1	!	-1	0	0	0	0	0	0	0	0	0	0	0	0	0	0	0	0	0	0	0	0	0	0	0	0	0	0	0
022119	11:28:15	11:37:16	540577	5.0.10.0	4_exp_AWA_CON_EVA_AMP	134	Rpleas_acq	Same	Rpleas	Bmasked	CS_B	1pleas	distractor2	CONbeforeEVA	acq_US_pleas_masked	acq3_masked	3	28	453	0	300	300	0	0	602	50	0	1	0	0	0	1	blank2r.bmp	0	1	+	0	2	B2r.bmp	492	1	blank2r.bmp	786	1	BMVZ	786	1	blank2r.bmp	866	4	loyal	866	1	!	1292	1	!	-1	0	0	0	0	0	0	0	0	0	0	0	0	0	0	0	0	0	0	0	0	0	0	0	0	0	0	0
022119	11:28:15	11:37:18	542842	5.0.10.0	4_exp_AWA_CON_EVA_AMP	134	Rpleas_acq	Same	Rpleas	Bmasked	CS_B	1pleas	distractor2	CONbeforeEVA	acq_US_unple_masked	acq3_masked	3	29	453	0	300	300	0	0	263	50	0	0	0	0	0	1	blank2r.bmp	0	1	+	0	6	C2r.bmp	492	1	blank2r.bmp	786	1	GKQX	786	1	blank2r.bmp	866	4	lasch	866	1	FEHLER	1466	1	!	-1	1	!	-1	0	0	0	0	0	0	0	0	0	0	0	0	0	0	0	0	0	0	0	0	0	0	0	0
022119	11:28:15	11:37:21	545002	5.0.10.0	4_exp_AWA_CON_EVA_AMP	134	Rpleas_acq	Same	Rpleas	Bmasked	CS_B	1pleas	distractor2	CONbeforeEVA	acq_US_unple_masked	acq3_masked	3	30	453	0	300	300	0	0	609	46	0	1	0	0	0	1	blank2r.bmp	0	1	+	0	3	B3r.bmp	492	1	blank2r.bmp	786	1	GKQX	786	1	blank2r.bmp	866	2	tot	866	1	!	1292	1	!	-1	0	0	0	0	0	0	0	0	0	0	0	0	0	0	0	0	0	0	0	0	0	0	0	0	0	0	0
022119	11:28:15	11:37:23	547307	5.0.10.0	4_exp_AWA_CON_EVA_AMP	134	Rpleas_acq	Same	Rpleas	Bmasked	CS_B	1pleas	distractor2	CONbeforeEVA	acq_US_unple_masked	acq3_masked	3	31	453	1	300	300	0	0	504	46	0	1	0	0	0	1	blank2r.bmp	0	1	+	0	7	C3r.bmp	492	1	blank2r.bmp	786	1	GKQX	786	1	blank2r.bmp	866	6	hindern	866	1	!	1292	1	!	1399	0	0	0	0	0	0	0	0	0	0	0	0	0	0	0	0	0	0	0	0	0	0	0	0	0	0	0
022119	11:28:15	11:37:25	549413	5.0.10.0	4_exp_AWA_CON_EVA_AMP	134	Rpleas_acq	Same	Rpleas	Bmasked	CS_B	1pleas	distractor2	CONbeforeEVA	acq_US_pleas_masked	acq3_masked	3	32	453	0	300	300	0	0	330	50	0	1	0	0	0	1	blank2r.bmp	0	1	+	0	4	B4r.bmp	492	1	blank2r.bmp	786	1	BMVZ	786	1	blank2r.bmp	866	5	schön	866	1	!	-1	1	!	-1	0	0	0	0	0	0	0	0	0	0	0	0	0	0	0	0	0	0	0	0	0	0	0	0	0	0	0
022119	11:28:15	11:37:27	551959	5.0.10.0	4_exp_AWA_CON_EVA_AMP	134	Rpleas_acq	Same	Rpleas	Bmasked	CS_B	1pleas	distractor2	CONbeforeEVA	acq_US_pleas_masked	acq3_masked	3	33	453	0	300	300	0	0	537	46	0	0	0	0	0	1	blank2r.bmp	0	1	+	0	4	B4r.bmp	492	1	blank2r.bmp	786	1	BMVZ	786	1	blank2r.bmp	866	1	retten	866	1	FEHLER	1745	1	!	1292	1	!	-1	0	0	0	0	0	0	0	0	0	0	0	0	0	0	0	0	0	0	0	0	0	0	0	0
022119	11:28:15	11:37:30	554078	5.0.10.0	4_exp_AWA_CON_EVA_AMP	134	Rpleas_acq	Same	Rpleas	Bmasked	CS_B	1pleas	distractor2	CONbeforeEVA	acq_US_unple_masked	acq3_masked	3	34	453	0	300	300	0	0	569	46	0	1	0	0	0	1	blank2r.bmp	0	1	+	0	2	B2r.bmp	492	1	blank2r.bmp	786	1	GKQX	786	1	blank2r.bmp	866	1	rächen	866	1	!	1292	1	!	-1	0	0	0	0	0	0	0	0	0	0	0	0	0	0	0	0	0	0	0	0	0	0	0	0	0	0	0
022119	11:28:15	11:37:32	556384	5.0.10.0	4_exp_AWA_CON_EVA_AMP	134	Rpleas_acq	Same	Rpleas	Bmasked	CS_B	1pleas	distractor2	CONbeforeEVA	acq_US_unple_masked	acq3_masked	3	35	453	1	300	300	0	0	489	46	0	1	0	0	0	1	blank2r.bmp	0	1	+	0	8	C4r.bmp	492	1	blank2r.bmp	786	1	GKQX	786	1	blank2r.bmp	866	5	schlecht	866	1	!	1292	1	!	1386	0	0	0	0	0	0	0	0	0	0	0	0	0	0	0	0	0	0	0	0	0	0	0	0	0	0	0
022119	11:28:15	11:37:34	558516	5.0.10.0	4_exp_AWA_CON_EVA_AMP	134	Rpleas_acq	Same	Rpleas	Bmasked	CS_B	1pleas	distractor2	CONbeforeEVA	acq_US_pleas_masked	acq3_masked	3	36	453	0	300	300	0	0	368	50	0	1	0	0	0	1	blank2r.bmp	0	1	+	0	3	B3r.bmp	492	1	blank2r.bmp	786	1	BMVZ	786	1	blank2r.bmp	866	6	helfen	866	1	!	-1	1	!	-1	0	0	0	0	0	0	0	0	0	0	0	0	0	0	0	0	0	0	0	0	0	0	0	0	0	0	0
022119	11:28:15	11:37:46	570551	5.0.10.0	4_exp_AWA_CON_EVA_AMP	134	Rpleas_acq	Same	Rpleas	Bmasked	CS_B	1pleas	distractor2	CONbeforeEVA	acq_US_pleas_masked	acq45_masked	4	1	400	0	300	300	0	0	315	50	0	1	0	0	0	1	blank2r.bmp	0	1	+	0	5	C1r.bmp	492	1	blank2r.bmp	786	1	BMVZ	786	1	blank2r.bmp	866	3	freundlich	866	1	!	-1	1	!	-1	0	0	0	0	0	0	0	0	0	0	0	0	0	0	0	0	0	0	0	0	0	0	0	0	0	0	0
022119	11:28:15	11:37:48	572790	5.0.10.0	4_exp_AWA_CON_EVA_AMP	134	Rpleas_acq	Same	Rpleas	Bmasked	CS_B	1pleas	distractor2	CONbeforeEVA	acq_US_unple_masked	acq45_masked	4	2	400	1	300	300	0	0	431	46	0	1	0	0	0	1	blank2r.bmp	0	1	+	0	7	C3r.bmp	492	1	blank2r.bmp	786	1	GKQX	786	1	blank2r.bmp	866	2	tot	866	1	!	1239	1	!	1332	0	0	0	0	0	0	0	0	0	0	0	0	0	0	0	0	0	0	0	0	0	0	0	0	0	0	0
022119	11:28:15	11:37:51	575109	5.0.10.0	4_exp_AWA_CON_EVA_AMP	134	Rpleas_acq	Same	Rpleas	Bmasked	CS_B	1pleas	distractor2	CONbeforeEVA	acq_US_unple_masked	acq45_masked	4	3	400	0	300	300	0	0	551	46	0	1	0	0	0	1	blank2r.bmp	0	1	+	0	6	C2r.bmp	492	1	blank2r.bmp	786	1	GKQX	786	1	blank2r.bmp	866	5	schlecht	866	1	!	1239	1	!	-1	0	0	0	0	0	0	0	0	0	0	0	0	0	0	0	0	0	0	0	0	0	0	0	0	0	0	0
022119	11:28:15	11:37:53	577415	5.0.10.0	4_exp_AWA_CON_EVA_AMP	134	Rpleas_acq	Same	Rpleas	Bmasked	CS_B	1pleas	distractor2	CONbeforeEVA	acq_US_unple_masked	acq45_masked	4	4	400	0	300	300	0	0	509	46	0	1	0	0	0	1	blank2r.bmp	0	1	+	0	1	B1r.bmp	492	1	blank2r.bmp	786	1	GKQX	786	1	blank2r.bmp	866	6	hindern	866	1	!	1239	1	!	-1	0	0	0	0	0	0	0	0	0	0	0	0	0	0	0	0	0	0	0	0	0	0	0	0	0	0	0
022119	11:28:15	11:37:55	579654	5.0.10.0	4_exp_AWA_CON_EVA_AMP	134	Rpleas_acq	Same	Rpleas	Bmasked	CS_B	1pleas	distractor2	CONbeforeEVA	acq_US_unple_masked	acq45_masked	4	5	400	1	300	300	0	0	432	46	0	1	0	0	0	1	blank2r.bmp	0	1	+	0	2	B2r.bmp	492	1	blank2r.bmp	786	1	GKQX	786	1	blank2r.bmp	866	4	lasch	866	1	!	1239	1	!	1332	0	0	0	0	0	0	0	0	0	0	0	0	0	0	0	0	0	0	0	0	0	0	0	0	0	0	0
022119	11:28:15	11:37:57	581706	5.0.10.0	4_exp_AWA_CON_EVA_AMP	134	Rpleas_acq	Same	Rpleas	Bmasked	CS_B	1pleas	distractor2	CONbeforeEVA	acq_US_pleas_masked	acq45_masked	4	6	400	0	300	300	0	0	285	50	0	1	0	0	0	1	blank2r.bmp	0	1	+	0	5	C1r.bmp	492	1	blank2r.bmp	786	1	BMVZ	786	1	blank2r.bmp	866	5	schön	866	1	!	-1	1	!	-1	0	0	0	0	0	0	0	0	0	0	0	0	0	0	0	0	0	0	0	0	0	0	0	0	0	0	0
022119	11:28:15	11:38:00	584092	5.0.10.0	4_exp_AWA_CON_EVA_AMP	134	Rpleas_acq	Same	Rpleas	Bmasked	CS_B	1pleas	distractor2	CONbeforeEVA	acq_US_pleas_masked	acq45_masked	4	7	400	0	300	300	0	0	591	50	0	1	0	0	0	1	blank2r.bmp	0	1	+	0	6	C2r.bmp	492	1	blank2r.bmp	786	1	BMVZ	786	1	blank2r.bmp	866	1	retten	866	1	!	1239	1	!	-1	0	0	0	0	0	0	0	0	0	0	0	0	0	0	0	0	0	0	0	0	0	0	0	0	0	0	0
022119	11:28:15	11:38:02	586318	5.0.10.0	4_exp_AWA_CON_EVA_AMP	134	Rpleas_acq	Same	Rpleas	Bmasked	CS_B	1pleas	distractor2	CONbeforeEVA	acq_US_pleas_masked	acq45_masked	4	8	400	1	300	300	0	0	414	50	0	1	0	0	0	1	blank2r.bmp	0	1	+	0	7	C3r.bmp	492	1	blank2r.bmp	786	1	BMVZ	786	1	blank2r.bmp	866	2	treu	866	1	!	1239	1	!	1319	0	0	0	0	0	0	0	0	0	0	0	0	0	0	0	0	0	0	0	0	0	0	0	0	0	0	0
022119	11:28:15	11:38:04	588730	5.0.10.0	4_exp_AWA_CON_EVA_AMP	134	Rpleas_acq	Same	Rpleas	Bmasked	CS_B	1pleas	distractor2	CONbeforeEVA	acq_US_pleas_masked	acq45_masked	4	9	400	0	300	300	0	0	641	50	0	1	0	0	0	1	blank2r.bmp	0	1	+	0	8	C4r.bmp	492	1	blank2r.bmp	786	1	BMVZ	786	1	blank2r.bmp	866	4	loyal	866	1	!	1239	1	!	-1	0	0	0	0	0	0	0	0	0	0	0	0	0	0	0	0	0	0	0	0	0	0	0	0	0	0	0
022119	11:28:15	11:38:07	591143	5.0.10.0	4_exp_AWA_CON_EVA_AMP	134	Rpleas_acq	Same	Rpleas	Bmasked	CS_B	1pleas	distractor2	CONbeforeEVA	acq_US_unple_masked	acq45_masked	4	10	400	0	300	300	0	0	634	46	0	1	0	0	0	1	blank2r.bmp	0	1	+	0	3	B3r.bmp	492	1	blank2r.bmp	786	1	GKQX	786	1	blank2r.bmp	866	3	fanatisch	866	1	!	1239	1	!	-1	0	0	0	0	0	0	0	0	0	0	0	0	0	0	0	0	0	0	0	0	0	0	0	0	0	0	0
022119	11:28:15	11:38:09	593302	5.0.10.0	4_exp_AWA_CON_EVA_AMP	134	Rpleas_acq	Same	Rpleas	Bmasked	CS_B	1pleas	distractor2	CONbeforeEVA	acq_US_pleas_masked	acq45_masked	4	11	400	1	300	300	0	0	357	50	0	1	0	0	0	1	blank2r.bmp	0	1	+	0	1	B1r.bmp	492	1	blank2r.bmp	786	1	BMVZ	786	1	blank2r.bmp	866	6	helfen	866	1	!	1239	1	!	1252	0	0	0	0	0	0	0	0	0	0	0	0	0	0	0	0	0	0	0	0	0	0	0	0	0	0	0
022119	11:28:15	11:38:11	595674	5.0.10.0	4_exp_AWA_CON_EVA_AMP	134	Rpleas_acq	Same	Rpleas	Bmasked	CS_B	1pleas	distractor2	CONbeforeEVA	acq_US_unple_masked	acq45_masked	4	12	400	0	300	300	0	0	606	46	0	1	0	0	0	1	blank2r.bmp	0	1	+	0	4	B4r.bmp	492	1	blank2r.bmp	786	1	GKQX	786	1	blank2r.bmp	866	1	rächen	866	1	!	1239	1	!	-1	0	0	0	0	0	0	0	0	0	0	0	0	0	0	0	0	0	0	0	0	0	0	0	0	0	0	0
022119	11:28:15	11:38:13	597966	5.0.10.0	4_exp_AWA_CON_EVA_AMP	134	Rpleas_acq	Same	Rpleas	Bmasked	CS_B	1pleas	distractor2	CONbeforeEVA	acq_US_pleas_masked	acq45_masked	4	13	400	0	300	300	0	0	513	50	0	1	0	0	0	1	blank2r.bmp	0	1	+	0	6	C2r.bmp	492	1	blank2r.bmp	786	1	BMVZ	786	1	blank2r.bmp	866	2	treu	866	1	!	1239	1	!	-1	0	0	0	0	0	0	0	0	0	0	0	0	0	0	0	0	0	0	0	0	0	0	0	0	0	0	0
022119	11:28:15	11:38:16	600179	5.0.10.0	4_exp_AWA_CON_EVA_AMP	134	Rpleas_acq	Same	Rpleas	Bmasked	CS_B	1pleas	distractor2	CONbeforeEVA	acq_US_unple_masked	acq45_masked	4	14	400	1	300	300	0	0	411	46	0	1	0	0	0	1	blank2r.bmp	0	1	+	0	1	B1r.bmp	492	1	blank2r.bmp	786	1	GKQX	786	1	blank2r.bmp	866	3	fanatisch	866	1	!	1239	1	!	1306	0	0	0	0	0	0	0	0	0	0	0	0	0	0	0	0	0	0	0	0	0	0	0	0	0	0	0
022119	11:28:15	11:38:18	602325	5.0.10.0	4_exp_AWA_CON_EVA_AMP	134	Rpleas_acq	Same	Rpleas	Bmasked	CS_B	1pleas	distractor2	CONbeforeEVA	acq_US_pleas_masked	acq45_masked	4	15	400	1	300	300	0	0	356	50	0	1	0	0	0	1	blank2r.bmp	0	1	+	0	7	C3r.bmp	492	1	blank2r.bmp	786	1	BMVZ	786	1	blank2r.bmp	866	5	schön	866	1	!	1239	1	!	1252	0	0	0	0	0	0	0	0	0	0	0	0	0	0	0	0	0	0	0	0	0	0	0	0	0	0	0
022119	11:28:15	11:38:20	604470	5.0.10.0	4_exp_AWA_CON_EVA_AMP	134	Rpleas_acq	Same	Rpleas	Bmasked	CS_B	1pleas	distractor2	CONbeforeEVA	acq_US_unple_masked	acq45_masked	4	16	400	1	300	300	0	0	350	46	0	1	0	0	0	1	blank2r.bmp	0	1	+	0	8	C4r.bmp	492	1	blank2r.bmp	786	1	GKQX	786	1	blank2r.bmp	866	1	rächen	866	1	!	1239	1	!	1252	0	0	0	0	0	0	0	0	0	0	0	0	0	0	0	0	0	0	0	0	0	0	0	0	0	0	0
022119	11:28:15	11:38:22	606643	5.0.10.0	4_exp_AWA_CON_EVA_AMP	134	Rpleas_acq	Same	Rpleas	Bmasked	CS_B	1pleas	distractor2	CONbeforeEVA	acq_US_unple_masked	acq45_masked	4	17	400	1	300	300	0	0	380	46	0	1	0	0	0	1	blank2r.bmp	0	1	+	0	4	B4r.bmp	492	1	blank2r.bmp	786	1	GKQX	786	1	blank2r.bmp	866	6	hindern	866	1	!	1239	1	!	1279	0	0	0	0	0	0	0	0	0	0	0	0	0	0	0	0	0	0	0	0	0	0	0	0	0	0	0
022119	11:28:15	11:38:24	608735	5.0.10.0	4_exp_AWA_CON_EVA_AMP	134	Rpleas_acq	Same	Rpleas	Bmasked	CS_B	1pleas	distractor2	CONbeforeEVA	acq_US_pleas_masked	acq45_masked	4	18	400	0	300	300	0	0	329	50	0	1	0	0	0	1	blank2r.bmp	0	1	+	0	2	B2r.bmp	492	1	blank2r.bmp	786	1	BMVZ	786	1	blank2r.bmp	866	6	helfen	866	1	!	-1	1	!	-1	0	0	0	0	0	0	0	0	0	0	0	0	0	0	0	0	0	0	0	0	0	0	0	0	0	0	0
022119	11:28:15	11:38:27	611108	5.0.10.0	4_exp_AWA_CON_EVA_AMP	134	Rpleas_acq	Same	Rpleas	Bmasked	CS_B	1pleas	distractor2	CONbeforeEVA	acq_US_unple_masked	acq45_masked	4	19	400	0	300	300	0	0	586	46	0	1	0	0	0	1	blank2r.bmp	0	1	+	0	5	C1r.bmp	492	1	blank2r.bmp	786	1	GKQX	786	1	blank2r.bmp	866	4	lasch	866	1	!	1239	1	!	-1	0	0	0	0	0	0	0	0	0	0	0	0	0	0	0	0	0	0	0	0	0	0	0	0	0	0	0
022119	11:28:15	11:38:29	613373	5.0.10.0	4_exp_AWA_CON_EVA_AMP	134	Rpleas_acq	Same	Rpleas	Bmasked	CS_B	1pleas	distractor2	CONbeforeEVA	acq_US_pleas_masked	acq45_masked	4	20	400	1	300	300	0	0	455	50	0	1	0	0	0	1	blank2r.bmp	0	1	+	0	3	B3r.bmp	492	1	blank2r.bmp	786	1	BMVZ	786	1	blank2r.bmp	866	1	retten	866	1	!	1239	1	!	1359	0	0	0	0	0	0	0	0	0	0	0	0	0	0	0	0	0	0	0	0	0	0	0	0	0	0	0
022119	11:28:15	11:38:31	615572	5.0.10.0	4_exp_AWA_CON_EVA_AMP	134	Rpleas_acq	Same	Rpleas	Bmasked	CS_B	1pleas	distractor2	CONbeforeEVA	acq_US_pleas_masked	acq45_masked	4	21	400	1	300	300	0	0	398	50	0	1	0	0	0	1	blank2r.bmp	0	1	+	0	7	C3r.bmp	492	1	blank2r.bmp	786	1	BMVZ	786	1	blank2r.bmp	866	3	freundlich	866	1	!	1239	1	!	1292	0	0	0	0	0	0	0	0	0	0	0	0	0	0	0	0	0	0	0	0	0	0	0	0	0	0	0
022119	11:28:15	11:38:33	617812	5.0.10.0	4_exp_AWA_CON_EVA_AMP	134	Rpleas_acq	Same	Rpleas	Bmasked	CS_B	1pleas	distractor2	CONbeforeEVA	acq_US_unple_masked	acq45_masked	4	22	400	1	300	300	0	0	430	46	0	1	0	0	0	1	blank2r.bmp	0	1	+	0	1	B1r.bmp	492	1	blank2r.bmp	786	1	GKQX	786	1	blank2r.bmp	866	5	schlecht	866	1	!	1239	1	!	1332	0	0	0	0	0	0	0	0	0	0	0	0	0	0	0	0	0	0	0	0	0	0	0	0	0	0	0
022119	11:28:15	11:38:35	619957	5.0.10.0	4_exp_AWA_CON_EVA_AMP	134	Rpleas_acq	Same	Rpleas	Bmasked	CS_B	1pleas	distractor2	CONbeforeEVA	acq_US_pleas_masked	acq45_masked	4	23	400	1	300	300	0	0	357	50	0	1	0	0	0	1	blank2r.bmp	0	1	+	0	6	C2r.bmp	492	1	blank2r.bmp	786	1	BMVZ	786	1	blank2r.bmp	866	4	loyal	866	1	!	1239	1	!	1252	0	0	0	0	0	0	0	0	0	0	0	0	0	0	0	0	0	0	0	0	0	0	0	0	0	0	0
022119	11:28:15	11:38:38	622263	5.0.10.0	4_exp_AWA_CON_EVA_AMP	134	Rpleas_acq	Same	Rpleas	Bmasked	CS_B	1pleas	distractor2	CONbeforeEVA	acq_US_unple_masked	acq45_masked	4	24	400	0	300	300	0	0	537	46	0	1	0	0	0	1	blank2r.bmp	0	1	+	0	2	B2r.bmp	492	1	blank2r.bmp	786	1	GKQX	786	1	blank2r.bmp	866	2	tot	866	1	!	1239	1	!	-1	0	0	0	0	0	0	0	0	0	0	0	0	0	0	0	0	0	0	0	0	0	0	0	0	0	0	0
022119	11:28:15	11:38:40	624529	5.0.10.0	4_exp_AWA_CON_EVA_AMP	134	Rpleas_acq	Same	Rpleas	Bmasked	CS_B	1pleas	distractor2	CONbeforeEVA	acq_US_unple_masked	acq45_masked	4	25	400	0	300	300	0	0	479	46	0	1	0	0	0	1	blank2r.bmp	0	1	+	0	4	B4r.bmp	492	1	blank2r.bmp	786	1	GKQX	786	1	blank2r.bmp	866	4	lasch	866	1	!	1239	1	!	-1	0	0	0	0	0	0	0	0	0	0	0	0	0	0	0	0	0	0	0	0	0	0	0	0	0	0	0
022119	11:28:15	11:38:42	626741	5.0.10.0	4_exp_AWA_CON_EVA_AMP	134	Rpleas_acq	Same	Rpleas	Bmasked	CS_B	1pleas	distractor2	CONbeforeEVA	acq_US_pleas_masked	acq45_masked	4	26	400	1	300	300	0	0	393	50	0	1	0	0	0	1	blank2r.bmp	0	1	+	0	5	C1r.bmp	492	1	blank2r.bmp	786	1	BMVZ	786	1	blank2r.bmp	866	2	treu	866	1	!	1239	1	!	1292	0	0	0	0	0	0	0	0	0	0	0	0	0	0	0	0	0	0	0	0	0	0	0	0	0	0	0
022119	11:28:15	11:38:45	629020	5.0.10.0	4_exp_AWA_CON_EVA_AMP	134	Rpleas_acq	Same	Rpleas	Bmasked	CS_B	1pleas	distractor2	CONbeforeEVA	acq_US_pleas_masked	acq45_masked	4	27	400	0	300	300	0	0	504	50	0	1	0	0	0	1	blank2r.bmp	0	1	+	0	8	C4r.bmp	492	1	blank2r.bmp	786	1	BMVZ	786	1	blank2r.bmp	866	6	helfen	866	1	!	1239	1	!	-1	0	0	0	0	0	0	0	0	0	0	0	0	0	0	0	0	0	0	0	0	0	0	0	0	0	0	0
022119	11:28:15	11:38:47	631206	5.0.10.0	4_exp_AWA_CON_EVA_AMP	134	Rpleas_acq	Same	Rpleas	Bmasked	CS_B	1pleas	distractor2	CONbeforeEVA	acq_US_unple_masked	acq45_masked	4	28	400	1	300	300	0	0	369	50	0	0	0	0	0	1	blank2r.bmp	0	1	+	0	3	B3r.bmp	492	1	blank2r.bmp	786	1	GKQX	786	1	blank2r.bmp	866	3	fanatisch	866	1	!	1239	1	!	1266	0	0	0	0	0	0	0	0	0	0	0	0	0	0	0	0	0	0	0	0	0	0	0	0	0	0	0
022119	11:28:15	11:38:49	633405	5.0.10.0	4_exp_AWA_CON_EVA_AMP	134	Rpleas_acq	Same	Rpleas	Bmasked	CS_B	1pleas	distractor2	CONbeforeEVA	acq_US_unple_masked	acq45_masked	4	29	400	1	300	300	0	0	409	46	0	1	0	0	0	1	blank2r.bmp	0	1	+	0	6	C2r.bmp	492	1	blank2r.bmp	786	1	GKQX	786	1	blank2r.bmp	866	6	hindern	866	1	!	1239	1	!	1306	0	0	0	0	0	0	0	0	0	0	0	0	0	0	0	0	0	0	0	0	0	0	0	0	0	0	0
022119	11:28:15	11:38:51	635644	5.0.10.0	4_exp_AWA_CON_EVA_AMP	134	Rpleas_acq	Same	Rpleas	Bmasked	CS_B	1pleas	distractor2	CONbeforeEVA	acq_US_unple_masked	acq45_masked	4	30	400	1	300	300	0	0	446	46	0	1	0	0	0	1	blank2r.bmp	0	1	+	0	1	B1r.bmp	492	1	blank2r.bmp	786	1	GKQX	786	1	blank2r.bmp	866	1	rächen	866	1	!	1239	1	!	1346	0	0	0	0	0	0	0	0	0	0	0	0	0	0	0	0	0	0	0	0	0	0	0	0	0	0	0
022119	11:28:15	11:38:53	637737	5.0.10.0	4_exp_AWA_CON_EVA_AMP	134	Rpleas_acq	Same	Rpleas	Bmasked	CS_B	1pleas	distractor2	CONbeforeEVA	acq_US_pleas_masked	acq45_masked	4	31	400	0	300	300	0	0	326	50	0	1	0	0	0	1	blank2r.bmp	0	1	+	0	5	C1r.bmp	492	1	blank2r.bmp	786	1	BMVZ	786	1	blank2r.bmp	866	4	loyal	866	1	!	-1	1	!	-1	0	0	0	0	0	0	0	0	0	0	0	0	0	0	0	0	0	0	0	0	0	0	0	0	0	0	0
022119	11:28:15	11:38:56	640069	5.0.10.0	4_exp_AWA_CON_EVA_AMP	134	Rpleas_acq	Same	Rpleas	Bmasked	CS_B	1pleas	distractor2	CONbeforeEVA	acq_US_pleas_masked	acq45_masked	4	32	400	0	300	300	0	0	556	50	0	1	0	0	0	1	blank2r.bmp	0	1	+	0	3	B3r.bmp	492	1	blank2r.bmp	786	1	BMVZ	786	1	blank2r.bmp	866	1	retten	866	1	!	1239	1	!	-1	0	0	0	0	0	0	0	0	0	0	0	0	0	0	0	0	0	0	0	0	0	0	0	0	0	0	0
022119	11:28:15	11:38:58	642162	5.0.10.0	4_exp_AWA_CON_EVA_AMP	134	Rpleas_acq	Same	Rpleas	Bmasked	CS_B	1pleas	distractor2	CONbeforeEVA	acq_US_pleas_masked	acq45_masked	4	33	400	0	300	300	0	0	311	50	0	1	0	0	0	1	blank2r.bmp	0	1	+	0	4	B4r.bmp	492	1	blank2r.bmp	786	1	BMVZ	786	1	blank2r.bmp	866	5	schön	866	1	!	-1	1	!	-1	0	0	0	0	0	0	0	0	0	0	0	0	0	0	0	0	0	0	0	0	0	0	0	0	0	0	0
022119	11:28:15	11:39:00	644427	5.0.10.0	4_exp_AWA_CON_EVA_AMP	134	Rpleas_acq	Same	Rpleas	Bmasked	CS_B	1pleas	distractor2	CONbeforeEVA	acq_US_unple_masked	acq45_masked	4	34	400	0	300	300	0	0	490	46	0	1	0	0	0	1	blank2r.bmp	0	1	+	0	7	C3r.bmp	492	1	blank2r.bmp	786	1	GKQX	786	1	blank2r.bmp	866	5	schlecht	866	1	!	1239	1	!	-1	0	0	0	0	0	0	0	0	0	0	0	0	0	0	0	0	0	0	0	0	0	0	0	0	0	0	0
022119	11:28:15	11:39:02	646773	5.0.10.0	4_exp_AWA_CON_EVA_AMP	134	Rpleas_acq	Same	Rpleas	Bmasked	CS_B	1pleas	distractor2	CONbeforeEVA	acq_US_pleas_masked	acq45_masked	4	35	400	0	300	300	0	0	563	50	0	1	0	0	0	1	blank2r.bmp	0	1	+	0	2	B2r.bmp	492	1	blank2r.bmp	786	1	BMVZ	786	1	blank2r.bmp	866	3	freundlich	866	1	!	1239	1	!	-1	0	0	0	0	0	0	0	0	0	0	0	0	0	0	0	0	0	0	0	0	0	0	0	0	0	0	0
022119	11:28:15	11:39:04	648879	5.0.10.0	4_exp_AWA_CON_EVA_AMP	134	Rpleas_acq	Same	Rpleas	Bmasked	CS_B	1pleas	distractor2	CONbeforeEVA	acq_US_unple_masked	acq45_masked	4	36	400	0	300	300	0	0	311	46	0	1	0	0	0	1	blank2r.bmp	0	1	+	0	8	C4r.bmp	492	1	blank2r.bmp	786	1	GKQX	786	1	blank2r.bmp	866	2	tot	866	1	!	-1	1	!	-1	0	0	0	0	0	0	0	0	0	0	0	0	0	0	0	0	0	0	0	0	0	0	0	0	0	0	0
022119	11:28:15	11:39:15	659661	5.0.10.0	4_exp_AWA_CON_EVA_AMP	134	Rpleas_acq	Same	Rpleas	Bmasked	CS_B	1pleas	distractor2	CONbeforeEVA	acq_US_unple_masked	acq45_masked	5	1	400	1	300	300	0	0	440	50	0	0	0	0	0	1	blank2r.bmp	0	1	+	0	6	C2r.bmp	492	1	blank2r.bmp	786	1	GKQX	786	1	blank2r.bmp	866	3	fanatisch	866	1	!	1239	1	!	1346	0	0	0	0	0	0	0	0	0	0	0	0	0	0	0	0	0	0	0	0	0	0	0	0	0	0	0
022119	11:28:15	11:39:17	661700	5.0.10.0	4_exp_AWA_CON_EVA_AMP	134	Rpleas_acq	Same	Rpleas	Bmasked	CS_B	1pleas	distractor2	CONbeforeEVA	acq_US_pleas_masked	acq45_masked	5	2	400	0	300	300	0	0	268	50	0	1	0	0	0	1	blank2r.bmp	0	1	+	0	2	B2r.bmp	492	1	blank2r.bmp	786	1	BMVZ	786	1	blank2r.bmp	866	2	treu	866	1	!	-1	1	!	-1	0	0	0	0	0	0	0	0	0	0	0	0	0	0	0	0	0	0	0	0	0	0	0	0	0	0	0
022119	11:28:15	11:39:19	663766	5.0.10.0	4_exp_AWA_CON_EVA_AMP	134	Rpleas_acq	Same	Rpleas	Bmasked	CS_B	1pleas	distractor2	CONbeforeEVA	acq_US_pleas_masked	acq45_masked	5	3	400	0	300	300	0	0	291	46	0	0	0	0	0	1	blank2r.bmp	0	1	+	0	5	C1r.bmp	492	1	blank2r.bmp	786	1	BMVZ	786	1	blank2r.bmp	866	4	loyal	866	1	!	-1	1	!	-1	0	0	0	0	0	0	0	0	0	0	0	0	0	0	0	0	0	0	0	0	0	0	0	0	0	0	0
022119	11:28:15	11:39:22	666085	5.0.10.0	4_exp_AWA_CON_EVA_AMP	134	Rpleas_acq	Same	Rpleas	Bmasked	CS_B	1pleas	distractor2	CONbeforeEVA	acq_US_unple_masked	acq45_masked	5	4	400	0	300	300	0	0	532	46	0	1	0	0	0	1	blank2r.bmp	0	1	+	0	3	B3r.bmp	492	1	blank2r.bmp	786	1	GKQX	786	1	blank2r.bmp	866	2	tot	866	1	!	1239	1	!	-1	0	0	0	0	0	0	0	0	0	0	0	0	0	0	0	0	0	0	0	0	0	0	0	0	0	0	0
022119	11:28:15	11:39:24	668204	5.0.10.0	4_exp_AWA_CON_EVA_AMP	134	Rpleas_acq	Same	Rpleas	Bmasked	CS_B	1pleas	distractor2	CONbeforeEVA	acq_US_pleas_masked	acq45_masked	5	5	400	0	300	300	0	0	325	50	0	1	0	0	0	1	blank2r.bmp	0	1	+	0	7	C3r.bmp	492	1	blank2r.bmp	786	1	BMVZ	786	1	blank2r.bmp	866	3	freundlich	866	1	!	-1	1	!	-1	0	0	0	0	0	0	0	0	0	0	0	0	0	0	0	0	0	0	0	0	0	0	0	0	0	0	0
022119	11:28:15	11:39:26	670537	5.0.10.0	4_exp_AWA_CON_EVA_AMP	134	Rpleas_acq	Same	Rpleas	Bmasked	CS_B	1pleas	distractor2	CONbeforeEVA	acq_US_unple_masked	acq45_masked	5	6	400	0	300	300	0	0	547	46	0	1	0	0	0	1	blank2r.bmp	0	1	+	0	8	C4r.bmp	492	1	blank2r.bmp	786	1	GKQX	786	1	blank2r.bmp	866	4	lasch	866	1	!	1239	1	!	-1	0	0	0	0	0	0	0	0	0	0	0	0	0	0	0	0	0	0	0	0	0	0	0	0	0	0	0
022119	11:28:15	11:39:28	672802	5.0.10.0	4_exp_AWA_CON_EVA_AMP	134	Rpleas_acq	Same	Rpleas	Bmasked	CS_B	1pleas	distractor2	CONbeforeEVA	acq_US_unple_masked	acq45_masked	5	7	400	0	300	300	0	0	479	46	0	1	0	0	0	1	blank2r.bmp	0	1	+	0	1	B1r.bmp	492	1	blank2r.bmp	786	1	GKQX	786	1	blank2r.bmp	866	1	rächen	866	1	!	1239	1	!	-1	0	0	0	0	0	0	0	0	0	0	0	0	0	0	0	0	0	0	0	0	0	0	0	0	0	0	0
022119	11:28:15	11:39:30	674961	5.0.10.0	4_exp_AWA_CON_EVA_AMP	134	Rpleas_acq	Same	Rpleas	Bmasked	CS_B	1pleas	distractor2	CONbeforeEVA	acq_US_pleas_masked	acq45_masked	5	8	400	1	300	300	0	0	354	50	0	1	0	0	0	1	blank2r.bmp	0	1	+	0	4	B4r.bmp	492	1	blank2r.bmp	786	1	BMVZ	786	1	blank2r.bmp	866	6	helfen	866	1	!	1239	1	!	1252	0	0	0	0	0	0	0	0	0	0	0	0	0	0	0	0	0	0	0	0	0	0	0	0	0	0	0
022119	11:28:15	11:39:33	677054	5.0.10.0	4_exp_AWA_CON_EVA_AMP	134	Rpleas_acq	Same	Rpleas	Bmasked	CS_B	1pleas	distractor2	CONbeforeEVA	acq_US_pleas_masked	acq45_masked	5	9	400	0	300	300	0	0	318	50	0	1	0	0	0	1	blank2r.bmp	0	1	+	0	6	C2r.bmp	492	1	blank2r.bmp	786	1	BMVZ	786	1	blank2r.bmp	866	5	schön	866	1	!	-1	1	!	-1	0	0	0	0	0	0	0	0	0	0	0	0	0	0	0	0	0	0	0	0	0	0	0	0	0	0	0
022119	11:28:15	11:39:35	679266	5.0.10.0	4_exp_AWA_CON_EVA_AMP	134	Rpleas_acq	Same	Rpleas	Bmasked	CS_B	1pleas	distractor2	CONbeforeEVA	acq_US_pleas_masked	acq45_masked	5	10	400	1	300	300	0	0	390	46	0	0	0	0	0	1	blank2r.bmp	0	1	+	0	8	C4r.bmp	492	1	blank2r.bmp	786	1	BMVZ	786	1	blank2r.bmp	866	1	retten	866	1	!	1239	1	!	1292	0	0	0	0	0	0	0	0	0	0	0	0	0	0	0	0	0	0	0	0	0	0	0	0	0	0	0
022119	11:28:15	11:39:37	681372	5.0.10.0	4_exp_AWA_CON_EVA_AMP	134	Rpleas_acq	Same	Rpleas	Bmasked	CS_B	1pleas	distractor2	CONbeforeEVA	acq_US_pleas_masked	acq45_masked	5	11	400	0	300	300	0	0	329	50	0	1	0	0	0	1	blank2r.bmp	0	1	+	0	7	C3r.bmp	492	1	blank2r.bmp	786	1	BMVZ	786	1	blank2r.bmp	866	4	loyal	866	1	!	-1	1	!	-1	0	0	0	0	0	0	0	0	0	0	0	0	0	0	0	0	0	0	0	0	0	0	0	0	0	0	0
022119	11:28:15	11:39:39	683678	5.0.10.0	4_exp_AWA_CON_EVA_AMP	134	Rpleas_acq	Same	Rpleas	Bmasked	CS_B	1pleas	distractor2	CONbeforeEVA	acq_US_unple_masked	acq45_masked	5	12	400	0	300	300	0	0	529	46	0	1	0	0	0	1	blank2r.bmp	0	1	+	0	2	B2r.bmp	492	1	blank2r.bmp	786	1	GKQX	786	1	blank2r.bmp	866	6	hindern	866	1	!	1239	1	!	-1	0	0	0	0	0	0	0	0	0	0	0	0	0	0	0	0	0	0	0	0	0	0	0	0	0	0	0
022119	11:28:15	11:39:41	685770	5.0.10.0	4_exp_AWA_CON_EVA_AMP	134	Rpleas_acq	Same	Rpleas	Bmasked	CS_B	1pleas	distractor2	CONbeforeEVA	acq_US_pleas_masked	acq45_masked	5	13	400	0	300	300	0	0	307	50	0	1	0	0	0	1	blank2r.bmp	0	1	+	0	4	B4r.bmp	492	1	blank2r.bmp	786	1	BMVZ	786	1	blank2r.bmp	866	2	treu	866	1	!	-1	1	!	-1	0	0	0	0	0	0	0	0	0	0	0	0	0	0	0	0	0	0	0	0	0	0	0	0	0	0	0
022119	11:28:15	11:39:44	688049	5.0.10.0	4_exp_AWA_CON_EVA_AMP	134	Rpleas_acq	Same	Rpleas	Bmasked	CS_B	1pleas	distractor2	CONbeforeEVA	acq_US_unple_masked	acq45_masked	5	14	400	0	300	300	0	0	496	46	0	1	0	0	0	1	blank2r.bmp	0	1	+	0	1	B1r.bmp	492	1	blank2r.bmp	786	1	GKQX	786	1	blank2r.bmp	866	5	schlecht	866	1	!	1239	1	!	-1	0	0	0	0	0	0	0	0	0	0	0	0	0	0	0	0	0	0	0	0	0	0	0	0	0	0	0
022119	11:28:15	11:39:46	690475	5.0.10.0	4_exp_AWA_CON_EVA_AMP	134	Rpleas_acq	Same	Rpleas	Bmasked	CS_B	1pleas	distractor2	CONbeforeEVA	acq_US_unple_masked	acq45_masked	5	15	400	0	300	300	0	0	641	46	0	1	0	0	0	1	blank2r.bmp	0	1	+	0	3	B3r.bmp	492	1	blank2r.bmp	786	1	GKQX	786	1	blank2r.bmp	866	4	lasch	866	1	!	1239	1	!	-1	0	0	0	0	0	0	0	0	0	0	0	0	0	0	0	0	0	0	0	0	0	0	0	0	0	0	0
022119	11:28:15	11:39:48	692554	5.0.10.0	4_exp_AWA_CON_EVA_AMP	134	Rpleas_acq	Same	Rpleas	Bmasked	CS_B	1pleas	distractor2	CONbeforeEVA	acq_US_unple_masked	acq45_masked	5	16	400	0	300	300	0	0	295	50	0	0	0	0	0	1	blank2r.bmp	0	1	+	0	5	C1r.bmp	492	1	blank2r.bmp	786	1	GKQX	786	1	blank2r.bmp	866	3	fanatisch	866	1	!	-1	1	!	-1	0	0	0	0	0	0	0	0	0	0	0	0	0	0	0	0	0	0	0	0	0	0	0	0	0	0	0
022119	11:28:15	11:39:50	694673	5.0.10.0	4_exp_AWA_CON_EVA_AMP	134	Rpleas_acq	Same	Rpleas	Bmasked	CS_B	1pleas	distractor2	CONbeforeEVA	acq_US_unple_masked	acq45_masked	5	17	400	0	300	300	0	0	333	46	0	1	0	0	0	1	blank2r.bmp	0	1	+	0	3	B3r.bmp	492	1	blank2r.bmp	786	1	GKQX	786	1	blank2r.bmp	866	2	tot	866	1	!	-1	1	!	-1	0	0	0	0	0	0	0	0	0	0	0	0	0	0	0	0	0	0	0	0	0	0	0	0	0	0	0
022119	11:28:15	11:39:52	696926	5.0.10.0	4_exp_AWA_CON_EVA_AMP	134	Rpleas_acq	Same	Rpleas	Bmasked	CS_B	1pleas	distractor2	CONbeforeEVA	acq_US_pleas_masked	acq45_masked	5	18	400	1	300	300	0	0	440	50	0	1	0	0	0	1	blank2r.bmp	0	1	+	0	8	C4r.bmp	492	1	blank2r.bmp	786	1	BMVZ	786	1	blank2r.bmp	866	5	schön	866	1	!	1239	1	!	1346	0	0	0	0	0	0	0	0	0	0	0	0	0	0	0	0	0	0	0	0	0	0	0	0	0	0	0
022119	11:28:15	11:39:55	699191	5.0.10.0	4_exp_AWA_CON_EVA_AMP	134	Rpleas_acq	Same	Rpleas	Bmasked	CS_B	1pleas	distractor2	CONbeforeEVA	acq_US_unple_masked	acq45_masked	5	19	400	0	300	300	0	0	479	46	0	1	0	0	0	1	blank2r.bmp	0	1	+	0	1	B1r.bmp	492	1	blank2r.bmp	786	1	GKQX	786	1	blank2r.bmp	866	6	hindern	866	1	!	1239	1	!	-1	0	0	0	0	0	0	0	0	0	0	0	0	0	0	0	0	0	0	0	0	0	0	0	0	0	0	0
022119	11:28:15	11:39:57	701444	5.0.10.0	4_exp_AWA_CON_EVA_AMP	134	Rpleas_acq	Same	Rpleas	Bmasked	CS_B	1pleas	distractor2	CONbeforeEVA	acq_US_unple_masked	acq45_masked	5	20	400	1	300	300	0	0	440	46	0	1	0	0	0	1	blank2r.bmp	0	1	+	0	7	C3r.bmp	492	1	blank2r.bmp	786	1	GKQX	786	1	blank2r.bmp	866	1	rächen	866	1	!	1239	1	!	1346	0	0	0	0	0	0	0	0	0	0	0	0	0	0	0	0	0	0	0	0	0	0	0	0	0	0	0
022119	11:28:15	11:40:02	706935	5.0.10.0	4_exp_AWA_CON_EVA_AMP	134	Rpleas_acq	Same	Rpleas	Bmasked	CS_B	1pleas	distractor2	CONbeforeEVA	acq_US_unple_masked	acq45_masked	5	21	400	0	300	300	0	0	3729	46	0	1	0	0	0	1	blank2r.bmp	0	1	+	0	5	C1r.bmp	492	1	blank2r.bmp	786	1	GKQX	786	1	blank2r.bmp	866	5	schlecht	866	1	!	1239	1	!	-1	0	0	0	0	0	0	0	0	0	0	0	0	0	0	0	0	0	0	0	0	0	0	0	0	0	0	0
022119	11:28:15	11:40:05	709094	5.0.10.0	4_exp_AWA_CON_EVA_AMP	134	Rpleas_acq	Same	Rpleas	Bmasked	CS_B	1pleas	distractor2	CONbeforeEVA	acq_US_pleas_masked	acq45_masked	5	22	400	1	300	300	0	0	358	50	0	1	0	0	0	1	blank2r.bmp	0	1	+	0	6	C2r.bmp	492	1	blank2r.bmp	786	1	BMVZ	786	1	blank2r.bmp	866	3	freundlich	866	1	!	1239	1	!	1252	0	0	0	0	0	0	0	0	0	0	0	0	0	0	0	0	0	0	0	0	0	0	0	0	0	0	0
022119	11:28:15	11:40:07	711200	5.0.10.0	4_exp_AWA_CON_EVA_AMP	134	Rpleas_acq	Same	Rpleas	Bmasked	CS_B	1pleas	distractor2	CONbeforeEVA	acq_US_pleas_masked	acq45_masked	5	23	400	0	300	300	0	0	321	50	0	1	0	0	0	1	blank2r.bmp	0	1	+	0	4	B4r.bmp	492	1	blank2r.bmp	786	1	BMVZ	786	1	blank2r.bmp	866	6	helfen	866	1	!	-1	1	!	-1	0	0	0	0	0	0	0	0	0	0	0	0	0	0	0	0	0	0	0	0	0	0	0	0	0	0	0
022119	11:28:15	11:40:09	713466	5.0.10.0	4_exp_AWA_CON_EVA_AMP	134	Rpleas_acq	Same	Rpleas	Bmasked	CS_B	1pleas	distractor2	CONbeforeEVA	acq_US_pleas_masked	acq45_masked	5	24	400	1	300	300	0	0	454	50	0	1	0	0	0	1	blank2r.bmp	0	1	+	0	2	B2r.bmp	492	1	blank2r.bmp	786	1	BMVZ	786	1	blank2r.bmp	866	1	retten	866	1	!	1239	1	!	1359	0	0	0	0	0	0	0	0	0	0	0	0	0	0	0	0	0	0	0	0	0	0	0	0	0	0	0
022119	11:28:15	11:40:11	715811	5.0.10.0	4_exp_AWA_CON_EVA_AMP	134	Rpleas_acq	Same	Rpleas	Bmasked	CS_B	1pleas	distractor2	CONbeforeEVA	acq_US_unple_masked	acq45_masked	5	25	400	0	300	300	0	0	573	46	0	1	0	0	0	1	blank2r.bmp	0	1	+	0	3	B3r.bmp	492	1	blank2r.bmp	786	1	GKQX	786	1	blank2r.bmp	866	1	rächen	866	1	!	1239	1	!	-1	0	0	0	0	0	0	0	0	0	0	0	0	0	0	0	0	0	0	0	0	0	0	0	0	0	0	0
022119	11:28:15	11:40:14	718210	5.0.10.0	4_exp_AWA_CON_EVA_AMP	134	Rpleas_acq	Same	Rpleas	Bmasked	CS_B	1pleas	distractor2	CONbeforeEVA	acq_US_unple_masked	acq45_masked	5	26	400	0	300	300	0	0	622	46	0	1	0	0	0	1	blank2r.bmp	0	1	+	0	5	C1r.bmp	492	1	blank2r.bmp	786	1	GKQX	786	1	blank2r.bmp	866	3	fanatisch	866	1	!	1239	1	!	-1	0	0	0	0	0	0	0	0	0	0	0	0	0	0	0	0	0	0	0	0	0	0	0	0	0	0	0
022119	11:28:15	11:40:16	720476	5.0.10.0	4_exp_AWA_CON_EVA_AMP	134	Rpleas_acq	Same	Rpleas	Bmasked	CS_B	1pleas	distractor2	CONbeforeEVA	acq_US_unple_masked	acq45_masked	5	27	400	1	300	300	0	0	452	46	0	1	0	0	0	1	blank2r.bmp	0	1	+	0	7	C3r.bmp	492	1	blank2r.bmp	786	1	GKQX	786	1	blank2r.bmp	866	2	tot	866	1	!	1239	1	!	1359	0	0	0	0	0	0	0	0	0	0	0	0	0	0	0	0	0	0	0	0	0	0	0	0	0	0	0
022119	11:28:15	11:40:18	722702	5.0.10.0	4_exp_AWA_CON_EVA_AMP	134	Rpleas_acq	Same	Rpleas	Bmasked	CS_B	1pleas	distractor2	CONbeforeEVA	acq_US_pleas_masked	acq45_masked	5	28	400	1	300	300	0	0	436	50	0	1	0	0	0	1	blank2r.bmp	0	1	+	0	4	B4r.bmp	492	1	blank2r.bmp	786	1	BMVZ	786	1	blank2r.bmp	866	2	treu	866	1	!	1239	1	!	1332	0	0	0	0	0	0	0	0	0	0	0	0	0	0	0	0	0	0	0	0	0	0	0	0	0	0	0
022119	11:28:15	11:40:21	725061	5.0.10.0	4_exp_AWA_CON_EVA_AMP	134	Rpleas_acq	Same	Rpleas	Bmasked	CS_B	1pleas	distractor2	CONbeforeEVA	acq_US_unple_masked	acq45_masked	5	29	400	0	300	300	0	0	595	46	0	1	0	0	0	1	blank2r.bmp	0	1	+	0	1	B1r.bmp	492	1	blank2r.bmp	786	1	GKQX	786	1	blank2r.bmp	866	4	lasch	866	1	!	1239	1	!	-1	0	0	0	0	0	0	0	0	0	0	0	0	0	0	0	0	0	0	0	0	0	0	0	0	0	0	0
022119	11:28:15	11:40:23	727300	5.0.10.0	4_exp_AWA_CON_EVA_AMP	134	Rpleas_acq	Same	Rpleas	Bmasked	CS_B	1pleas	distractor2	CONbeforeEVA	acq_US_pleas_masked	acq45_masked	5	30	400	1	300	300	0	0	433	50	0	1	0	0	0	1	blank2r.bmp	0	1	+	0	2	B2r.bmp	492	1	blank2r.bmp	786	1	BMVZ	786	1	blank2r.bmp	866	4	loyal	866	1	!	1239	1	!	1332	0	0	0	0	0	0	0	0	0	0	0	0	0	0	0	0	0	0	0	0	0	0	0	0	0	0	0
022119	11:28:15	11:40:25	729552	5.0.10.0	4_exp_AWA_CON_EVA_AMP	134	Rpleas_acq	Same	Rpleas	Bmasked	CS_B	1pleas	distractor2	CONbeforeEVA	acq_US_unple_masked	acq45_masked	5	31	400	0	300	300	0	0	491	46	0	1	0	0	0	1	blank2r.bmp	0	1	+	0	6	C2r.bmp	492	1	blank2r.bmp	786	1	GKQX	786	1	blank2r.bmp	866	6	hindern	866	1	!	1239	1	!	-1	0	0	0	0	0	0	0	0	0	0	0	0	0	0	0	0	0	0	0	0	0	0	0	0	0	0	0
022119	11:28:15	11:40:27	731711	5.0.10.0	4_exp_AWA_CON_EVA_AMP	134	Rpleas_acq	Same	Rpleas	Bmasked	CS_B	1pleas	distractor2	CONbeforeEVA	acq_US_pleas_masked	acq45_masked	5	32	400	1	300	300	0	0	356	50	0	1	0	0	0	1	blank2r.bmp	0	1	+	0	8	C4r.bmp	492	1	blank2r.bmp	786	1	BMVZ	786	1	blank2r.bmp	866	3	freundlich	866	1	!	1239	1	!	1252	0	0	0	0	0	0	0	0	0	0	0	0	0	0	0	0	0	0	0	0	0	0	0	0	0	0	0
022119	11:28:15	11:40:29	733764	5.0.10.0	4_exp_AWA_CON_EVA_AMP	134	Rpleas_acq	Same	Rpleas	Bmasked	CS_B	1pleas	distractor2	CONbeforeEVA	acq_US_unple_masked	acq45_masked	5	33	400	0	300	300	0	0	280	46	0	1	0	0	0	1	blank2r.bmp	0	1	+	0	8	C4r.bmp	492	1	blank2r.bmp	786	1	GKQX	786	1	blank2r.bmp	866	5	schlecht	866	1	!	-1	1	!	-1	0	0	0	0	0	0	0	0	0	0	0	0	0	0	0	0	0	0	0	0	0	0	0	0	0	0	0
022119	11:28:15	11:40:32	735976	5.0.10.0	4_exp_AWA_CON_EVA_AMP	134	Rpleas_acq	Same	Rpleas	Bmasked	CS_B	1pleas	distractor2	CONbeforeEVA	acq_US_pleas_masked	acq45_masked	5	34	400	1	300	300	0	0	409	50	0	1	0	0	0	1	blank2r.bmp	0	1	+	0	7	C3r.bmp	492	1	blank2r.bmp	786	1	BMVZ	786	1	blank2r.bmp	866	1	retten	866	1	!	1239	1	!	1306	0	0	0	0	0	0	0	0	0	0	0	0	0	0	0	0	0	0	0	0	0	0	0	0	0	0	0
022119	11:28:15	11:40:34	738349	5.0.10.0	4_exp_AWA_CON_EVA_AMP	134	Rpleas_acq	Same	Rpleas	Bmasked	CS_B	1pleas	distractor2	CONbeforeEVA	acq_US_pleas_masked	acq45_masked	5	35	400	0	300	300	0	0	607	50	0	1	0	0	0	1	blank2r.bmp	0	1	+	0	2	B2r.bmp	492	1	blank2r.bmp	786	1	BMVZ	786	1	blank2r.bmp	866	5	schön	866	1	!	1239	1	!	-1	0	0	0	0	0	0	0	0	0	0	0	0	0	0	0	0	0	0	0	0	0	0	0	0	0	0	0
022119	11:28:15	11:40:36	740561	5.0.10.0	4_exp_AWA_CON_EVA_AMP	134	Rpleas_acq	Same	Rpleas	Bmasked	CS_B	1pleas	distractor2	CONbeforeEVA	acq_US_pleas_masked	acq45_masked	5	36	400	1	300	300	0	0	399	50	0	1	0	0	0	1	blank2r.bmp	0	1	+	0	1	B1r.bmp	492	1	blank2r.bmp	786	1	BMVZ	786	1	blank2r.bmp	866	6	helfen	866	1	!	1239	1	!	1306	0	0	0	0	0	0	0	0	0	0	0	0	0	0	0	0	0	0	0	0	0	0	0	0	0	0	0
022119	11:28:15	11:41:56	820155	5.0.10.0	4_exp_AWA_CON_EVA_AMP	134	Rpleas_acq	Same	Rpleas	Bmasked	CS_B	1pleas	distractor2	CONbeforeEVA	cond_US_unple_123_masked_CS1	condtest_masked_1	8	1	400	0	300	300	0	0	286	50	0	0	0	0	0	1	blank2r.bmp	0	1	+	0	6	C2r.bmp	492	1	blank2r.bmp	786	1	BMVZ	786	1	blank2r.bmp	866	2	tot	866	1	!	-1	1	!	-1	0	0	0	0	0	0	0	0	0	0	0	0	0	0	0	0	0	0	0	0	0	0	0	0	0	0	0
022119	11:28:15	11:41:58	822327	5.0.10.0	4_exp_AWA_CON_EVA_AMP	134	Rpleas_acq	Same	Rpleas	Bmasked	CS_B	1pleas	distractor2	CONbeforeEVA	cond_US_unple_123_masked_CS2	condtest_masked_1	8	2	400	1	300	300	0	0	364	50	0	0	0	0	0	1	blank2r.bmp	0	1	+	0	4	B4r.bmp	492	1	blank2r.bmp	786	1	GKQX	786	1	blank2r.bmp	866	1	rächen	866	1	!	1239	1	!	1266	0	0	0	0	0	0	0	0	0	0	0	0	0	0	0	0	0	0	0	0	0	0	0	0	0	0	0
022119	11:28:15	11:42:00	824580	5.0.10.0	4_exp_AWA_CON_EVA_AMP	134	Rpleas_acq	Same	Rpleas	Bmasked	CS_B	1pleas	distractor2	CONbeforeEVA	cond_new_pleas_456_masked_CS1	condtest_masked_1	8	3	400	1	300	300	0	0	459	46	0	0	0	0	0	1	blank2r.bmp	0	1	+	0	3	B3r.bmp	492	1	blank2r.bmp	786	1	BMVZ	786	1	blank2r.bmp	866	3	ehrlich	866	1	!	1239	1	!	1359	0	0	0	0	0	0	0	0	0	0	0	0	0	0	0	0	0	0	0	0	0	0	0	0	0	0	0
022119	11:28:15	11:42:03	827059	5.0.10.0	4_exp_AWA_CON_EVA_AMP	134	Rpleas_acq	Same	Rpleas	Bmasked	CS_B	1pleas	distractor2	CONbeforeEVA	cond_new_unple_456_masked_CS2	condtest_masked_1	8	4	400	0	300	300	0	0	701	46	0	1	0	0	0	1	blank2r.bmp	0	1	+	0	5	C1r.bmp	492	1	blank2r.bmp	786	1	GKQX	786	1	blank2r.bmp	866	1	tyrannisch	866	1	!	1239	1	!	-1	0	0	0	0	0	0	0	0	0	0	0	0	0	0	0	0	0	0	0	0	0	0	0	0	0	0	0
022119	11:28:15	11:42:05	829218	5.0.10.0	4_exp_AWA_CON_EVA_AMP	134	Rpleas_acq	Same	Rpleas	Bmasked	CS_B	1pleas	distractor2	CONbeforeEVA	cond_US_pleas_123_masked_CS2	condtest_masked_1	8	5	400	1	300	300	0	0	346	50	0	1	0	0	0	1	blank2r.bmp	0	1	+	0	4	B4r.bmp	492	1	blank2r.bmp	786	1	GKQX	786	1	blank2r.bmp	866	3	freundlich	866	1	!	1239	1	!	1252	0	0	0	0	0	0	0	0	0	0	0	0	0	0	0	0	0	0	0	0	0	0	0	0	0	0	0
022119	11:28:15	11:42:07	831390	5.0.10.0	4_exp_AWA_CON_EVA_AMP	134	Rpleas_acq	Same	Rpleas	Bmasked	CS_B	1pleas	distractor2	CONbeforeEVA	cond_US_pleas_123_masked_CS1	condtest_masked_1	8	6	400	1	300	300	0	0	381	50	0	1	0	0	0	1	blank2r.bmp	0	1	+	0	5	C1r.bmp	492	1	blank2r.bmp	786	1	BMVZ	786	1	blank2r.bmp	866	2	treu	866	1	!	1239	1	!	1279	0	0	0	0	0	0	0	0	0	0	0	0	0	0	0	0	0	0	0	0	0	0	0	0	0	0	0
022119	11:28:15	11:42:09	833536	5.0.10.0	4_exp_AWA_CON_EVA_AMP	134	Rpleas_acq	Same	Rpleas	Bmasked	CS_B	1pleas	distractor2	CONbeforeEVA	cond_new_unple_456_masked_CS1	condtest_masked_1	8	7	400	1	300	300	0	0	355	46	0	1	0	0	0	1	blank2r.bmp	0	1	+	0	8	C4r.bmp	492	1	blank2r.bmp	786	1	BMVZ	786	1	blank2r.bmp	866	3	eitel	866	1	!	1239	1	!	1252	0	0	0	0	0	0	0	0	0	0	0	0	0	0	0	0	0	0	0	0	0	0	0	0	0	0	0
022119	11:28:15	11:42:11	835535	5.0.10.0	4_exp_AWA_CON_EVA_AMP	134	Rpleas_acq	Same	Rpleas	Bmasked	CS_B	1pleas	distractor2	CONbeforeEVA	cond_new_pleas_456_masked_CS2	condtest_masked_1	8	8	400	0	300	300	0	0	225	50	0	1	0	0	0	1	blank2r.bmp	0	1	+	0	6	C2r.bmp	492	1	blank2r.bmp	786	1	GKQX	786	1	blank2r.bmp	866	2	lachen	866	1	!	-1	1	!	-1	0	0	0	0	0	0	0	0	0	0	0	0	0	0	0	0	0	0	0	0	0	0	0	0	0	0	0
022119	11:28:15	11:42:21	845011	5.0.10.0	4_exp_AWA_CON_EVA_AMP	134	Rpleas_acq	Same	Rpleas	Bmasked	CS_B	1pleas	distractor2	CONbeforeEVA	cond_US_unple_123_masked_CS2	condtest_masked_2	9	1	400	1	300	300	0	0	360	50	0	0	0	0	0	1	blank2r.bmp	0	1	+	0	1	B1r.bmp	492	1	blank2r.bmp	786	1	GKQX	786	1	blank2r.bmp	866	3	fanatisch	866	1	!	1239	1	!	1266	0	0	0	0	0	0	0	0	0	0	0	0	0	0	0	0	0	0	0	0	0	0	0	0	0	0	0
022119	11:28:15	11:42:23	847264	5.0.10.0	4_exp_AWA_CON_EVA_AMP	134	Rpleas_acq	Same	Rpleas	Bmasked	CS_B	1pleas	distractor2	CONbeforeEVA	cond_new_unple_456_masked_CS1	condtest_masked_2	9	2	400	0	300	300	0	0	479	46	0	1	0	0	0	1	blank2r.bmp	0	1	+	0	2	B2r.bmp	492	1	blank2r.bmp	786	1	BMVZ	786	1	blank2r.bmp	866	2	leiden	866	1	!	1239	1	!	-1	0	0	0	0	0	0	0	0	0	0	0	0	0	0	0	0	0	0	0	0	0	0	0	0	0	0	0
022119	11:28:15	11:42:25	849436	5.0.10.0	4_exp_AWA_CON_EVA_AMP	134	Rpleas_acq	Same	Rpleas	Bmasked	CS_B	1pleas	distractor2	CONbeforeEVA	cond_new_pleas_456_masked_CS2	condtest_masked_2	9	3	400	1	300	300	0	0	352	46	0	0	0	0	0	1	blank2r.bmp	0	1	+	0	7	C3r.bmp	492	1	blank2r.bmp	786	1	GKQX	786	1	blank2r.bmp	866	1	tolerant	866	1	!	1239	1	!	1252	0	0	0	0	0	0	0	0	0	0	0	0	0	0	0	0	0	0	0	0	0	0	0	0	0	0	0
022119	11:28:15	11:42:27	851582	5.0.10.0	4_exp_AWA_CON_EVA_AMP	134	Rpleas_acq	Same	Rpleas	Bmasked	CS_B	1pleas	distractor2	CONbeforeEVA	cond_new_pleas_456_masked_CS1	condtest_masked_2	9	4	400	1	300	300	0	0	347	50	0	1	0	0	0	1	blank2r.bmp	0	1	+	0	3	B3r.bmp	492	1	blank2r.bmp	786	1	BMVZ	786	1	blank2r.bmp	866	3	ehrlich	866	1	!	1239	1	!	1252	0	0	0	0	0	0	0	0	0	0	0	0	0	0	0	0	0	0	0	0	0	0	0	0	0	0	0
022119	11:28:15	11:42:29	853688	5.0.10.0	4_exp_AWA_CON_EVA_AMP	134	Rpleas_acq	Same	Rpleas	Bmasked	CS_B	1pleas	distractor2	CONbeforeEVA	cond_new_unple_456_masked_CS2	condtest_masked_2	9	5	400	0	300	300	0	0	321	50	0	0	0	0	0	1	blank2r.bmp	0	1	+	0	6	C2r.bmp	492	1	blank2r.bmp	786	1	GKQX	786	1	blank2r.bmp	866	3	eitel	866	1	!	-1	1	!	-1	0	0	0	0	0	0	0	0	0	0	0	0	0	0	0	0	0	0	0	0	0	0	0	0	0	0	0
022119	11:28:15	11:42:31	855914	5.0.10.0	4_exp_AWA_CON_EVA_AMP	134	Rpleas_acq	Same	Rpleas	Bmasked	CS_B	1pleas	distractor2	CONbeforeEVA	cond_US_unple_123_masked_CS1	condtest_masked_2	9	6	400	1	300	300	0	0	424	46	0	1	0	0	0	1	blank2r.bmp	0	1	+	0	4	B4r.bmp	492	1	blank2r.bmp	786	1	BMVZ	786	1	blank2r.bmp	866	2	tot	866	1	!	1239	1	!	1319	0	0	0	0	0	0	0	0	0	0	0	0	0	0	0	0	0	0	0	0	0	0	0	0	0	0	0
022119	11:28:15	11:42:33	857966	5.0.10.0	4_exp_AWA_CON_EVA_AMP	134	Rpleas_acq	Same	Rpleas	Bmasked	CS_B	1pleas	distractor2	CONbeforeEVA	cond_US_pleas_123_masked_CS2	condtest_masked_2	9	7	400	0	300	300	0	0	284	50	0	1	0	0	0	1	blank2r.bmp	0	1	+	0	8	C4r.bmp	492	1	blank2r.bmp	786	1	GKQX	786	1	blank2r.bmp	866	1	retten	866	1	!	-1	1	!	-1	0	0	0	0	0	0	0	0	0	0	0	0	0	0	0	0	0	0	0	0	0	0	0	0	0	0	0
022119	11:28:15	11:42:36	860205	5.0.10.0	4_exp_AWA_CON_EVA_AMP	134	Rpleas_acq	Same	Rpleas	Bmasked	CS_B	1pleas	distractor2	CONbeforeEVA	cond_US_unple_123_masked_CS1	condtest_masked_2	9	8	400	1	300	300	0	0	421	50	0	0	0	0	0	1	blank2r.bmp	0	1	+	0	2	B2r.bmp	492	1	blank2r.bmp	786	1	BMVZ	786	1	blank2r.bmp	866	3	fanatisch	866	1	!	1239	1	!	1319	0	0	0	0	0	0	0	0	0	0	0	0	0	0	0	0	0	0	0	0	0	0	0	0	0	0	0
022119	11:28:15	11:42:38	862458	5.0.10.0	4_exp_AWA_CON_EVA_AMP	134	Rpleas_acq	Same	Rpleas	Bmasked	CS_B	1pleas	distractor2	CONbeforeEVA	cond_US_pleas_123_masked_CS1	condtest_masked_2	9	9	400	0	300	300	0	0	479	50	0	1	0	0	0	1	blank2r.bmp	0	1	+	0	1	B1r.bmp	492	1	blank2r.bmp	786	1	BMVZ	786	1	blank2r.bmp	866	1	retten	866	1	!	1239	1	!	-1	0	0	0	0	0	0	0	0	0	0	0	0	0	0	0	0	0	0	0	0	0	0	0	0	0	0	0
022119	11:28:15	11:42:40	864737	5.0.10.0	4_exp_AWA_CON_EVA_AMP	134	Rpleas_acq	Same	Rpleas	Bmasked	CS_B	1pleas	distractor2	CONbeforeEVA	cond_new_unple_456_masked_CS2	condtest_masked_2	9	10	400	0	300	300	0	0	485	46	0	1	0	0	0	1	blank2r.bmp	0	1	+	0	3	B3r.bmp	492	1	blank2r.bmp	786	1	GKQX	786	1	blank2r.bmp	866	1	tyrannisch	866	1	!	1239	1	!	-1	0	0	0	0	0	0	0	0	0	0	0	0	0	0	0	0	0	0	0	0	0	0	0	0	0	0	0
022119	11:28:15	11:42:42	866922	5.0.10.0	4_exp_AWA_CON_EVA_AMP	134	Rpleas_acq	Same	Rpleas	Bmasked	CS_B	1pleas	distractor2	CONbeforeEVA	cond_US_pleas_123_masked_CS1	condtest_masked_2	9	11	400	1	300	300	0	0	368	50	0	1	0	0	0	1	blank2r.bmp	0	1	+	0	7	C3r.bmp	492	1	blank2r.bmp	786	1	BMVZ	786	1	blank2r.bmp	866	3	freundlich	866	1	!	1239	1	!	1266	0	0	0	0	0	0	0	0	0	0	0	0	0	0	0	0	0	0	0	0	0	0	0	0	0	0	0
022119	11:28:15	11:42:45	869068	5.0.10.0	4_exp_AWA_CON_EVA_AMP	134	Rpleas_acq	Same	Rpleas	Bmasked	CS_B	1pleas	distractor2	CONbeforeEVA	cond_new_unple_456_masked_CS2	condtest_masked_2	9	12	400	1	300	300	0	0	349	46	0	1	0	0	0	1	blank2r.bmp	0	1	+	0	5	C1r.bmp	492	1	blank2r.bmp	786	1	GKQX	786	1	blank2r.bmp	866	2	leiden	866	1	!	1239	1	!	1252	0	0	0	0	0	0	0	0	0	0	0	0	0	0	0	0	0	0	0	0	0	0	0	0	0	0	0
022119	11:28:15	11:42:47	871174	5.0.10.0	4_exp_AWA_CON_EVA_AMP	134	Rpleas_acq	Same	Rpleas	Bmasked	CS_B	1pleas	distractor2	CONbeforeEVA	cond_US_pleas_123_masked_CS2	condtest_masked_2	9	13	400	0	300	300	0	0	331	50	0	1	0	0	0	1	blank2r.bmp	0	1	+	0	8	C4r.bmp	492	1	blank2r.bmp	786	1	GKQX	786	1	blank2r.bmp	866	2	treu	866	1	!	-1	1	!	-1	0	0	0	0	0	0	0	0	0	0	0	0	0	0	0	0	0	0	0	0	0	0	0	0	0	0	0
022119	11:28:15	11:42:49	873373	5.0.10.0	4_exp_AWA_CON_EVA_AMP	134	Rpleas_acq	Same	Rpleas	Bmasked	CS_B	1pleas	distractor2	CONbeforeEVA	cond_US_pleas_123_masked_CS2	condtest_masked_2	9	14	400	1	300	300	0	0	393	50	0	1	0	0	0	1	blank2r.bmp	0	1	+	0	2	B2r.bmp	492	1	blank2r.bmp	786	1	GKQX	786	1	blank2r.bmp	866	2	treu	866	1	!	1239	1	!	1292	0	0	0	0	0	0	0	0	0	0	0	0	0	0	0	0	0	0	0	0	0	0	0	0	0	0	0
022119	11:28:15	11:42:51	875705	5.0.10.0	4_exp_AWA_CON_EVA_AMP	134	Rpleas_acq	Same	Rpleas	Bmasked	CS_B	1pleas	distractor2	CONbeforeEVA	cond_new_pleas_456_masked_CS1	condtest_masked_2	9	15	400	0	300	300	0	0	562	50	0	1	0	0	0	1	blank2r.bmp	0	1	+	0	3	B3r.bmp	492	1	blank2r.bmp	786	1	BMVZ	786	1	blank2r.bmp	866	2	lachen	866	1	!	1239	1	!	-1	0	0	0	0	0	0	0	0	0	0	0	0	0	0	0	0	0	0	0	0	0	0	0	0	0	0	0
022119	11:28:15	11:42:53	877931	5.0.10.0	4_exp_AWA_CON_EVA_AMP	134	Rpleas_acq	Same	Rpleas	Bmasked	CS_B	1pleas	distractor2	CONbeforeEVA	cond_US_pleas_123_masked_CS1	condtest_masked_2	9	16	400	1	300	300	0	0	417	50	0	1	0	0	0	1	blank2r.bmp	0	1	+	0	5	C1r.bmp	492	1	blank2r.bmp	786	1	BMVZ	786	1	blank2r.bmp	866	1	retten	866	1	!	1239	1	!	1319	0	0	0	0	0	0	0	0	0	0	0	0	0	0	0	0	0	0	0	0	0	0	0	0	0	0	0
022119	11:28:15	11:42:56	880170	5.0.10.0	4_exp_AWA_CON_EVA_AMP	134	Rpleas_acq	Same	Rpleas	Bmasked	CS_B	1pleas	distractor2	CONbeforeEVA	cond_new_pleas_456_masked_CS2	condtest_masked_2	9	17	400	1	300	300	0	0	438	50	0	1	0	0	0	1	blank2r.bmp	0	1	+	0	6	C2r.bmp	492	1	blank2r.bmp	786	1	GKQX	786	1	blank2r.bmp	866	1	tolerant	866	1	!	1239	1	!	1332	0	0	0	0	0	0	0	0	0	0	0	0	0	0	0	0	0	0	0	0	0	0	0	0	0	0	0
022119	11:28:15	11:42:58	882356	5.0.10.0	4_exp_AWA_CON_EVA_AMP	134	Rpleas_acq	Same	Rpleas	Bmasked	CS_B	1pleas	distractor2	CONbeforeEVA	cond_US_unple_123_masked_CS2	condtest_masked_2	9	18	400	1	300	300	0	0	396	46	0	1	0	0	0	1	blank2r.bmp	0	1	+	0	1	B1r.bmp	492	1	blank2r.bmp	786	1	GKQX	786	1	blank2r.bmp	866	1	rächen	866	1	!	1239	1	!	1292	0	0	0	0	0	0	0	0	0	0	0	0	0	0	0	0	0	0	0	0	0	0	0	0	0	0	0
022119	11:28:15	11:43:00	884435	5.0.10.0	4_exp_AWA_CON_EVA_AMP	134	Rpleas_acq	Same	Rpleas	Bmasked	CS_B	1pleas	distractor2	CONbeforeEVA	cond_US_pleas_123_masked_CS2	condtest_masked_2	9	19	400	0	300	300	0	0	312	50	0	1	0	0	0	1	blank2r.bmp	0	1	+	0	4	B4r.bmp	492	1	blank2r.bmp	786	1	GKQX	786	1	blank2r.bmp	866	3	freundlich	866	1	!	-1	1	!	-1	0	0	0	0	0	0	0	0	0	0	0	0	0	0	0	0	0	0	0	0	0	0	0	0	0	0	0
022119	11:28:15	11:43:02	886541	5.0.10.0	4_exp_AWA_CON_EVA_AMP	134	Rpleas_acq	Same	Rpleas	Bmasked	CS_B	1pleas	distractor2	CONbeforeEVA	cond_US_unple_123_masked_CS1	condtest_masked_2	9	20	400	0	300	300	0	0	319	46	0	1	0	0	0	1	blank2r.bmp	0	1	+	0	7	C3r.bmp	492	1	blank2r.bmp	786	1	BMVZ	786	1	blank2r.bmp	866	2	tot	866	1	!	-1	1	!	-1	0	0	0	0	0	0	0	0	0	0	0	0	0	0	0	0	0	0	0	0	0	0	0	0	0	0	0
022119	11:28:15	11:43:04	888847	5.0.10.0	4_exp_AWA_CON_EVA_AMP	134	Rpleas_acq	Same	Rpleas	Bmasked	CS_B	1pleas	distractor2	CONbeforeEVA	cond_new_pleas_456_masked_CS2	condtest_masked_2	9	21	400	0	300	300	0	0	531	50	0	1	0	0	0	1	blank2r.bmp	0	1	+	0	1	B1r.bmp	492	1	blank2r.bmp	786	1	GKQX	786	1	blank2r.bmp	866	3	ehrlich	866	1	!	1239	1	!	-1	0	0	0	0	0	0	0	0	0	0	0	0	0	0	0	0	0	0	0	0	0	0	0	0	0	0	0
022119	11:28:15	11:43:07	891152	5.0.10.0	4_exp_AWA_CON_EVA_AMP	134	Rpleas_acq	Same	Rpleas	Bmasked	CS_B	1pleas	distractor2	CONbeforeEVA	cond_new_pleas_456_masked_CS1	condtest_masked_2	9	22	400	0	300	300	0	0	523	50	0	1	0	0	0	1	blank2r.bmp	0	1	+	0	6	C2r.bmp	492	1	blank2r.bmp	786	1	BMVZ	786	1	blank2r.bmp	866	2	lachen	866	1	!	1239	1	!	-1	0	0	0	0	0	0	0	0	0	0	0	0	0	0	0	0	0	0	0	0	0	0	0	0	0	0	0
022119	11:28:15	11:43:09	893325	5.0.10.0	4_exp_AWA_CON_EVA_AMP	134	Rpleas_acq	Same	Rpleas	Bmasked	CS_B	1pleas	distractor2	CONbeforeEVA	cond_new_unple_456_masked_CS1	condtest_masked_2	9	23	400	1	300	300	0	0	365	50	0	0	0	0	0	1	blank2r.bmp	0	1	+	0	7	C3r.bmp	492	1	blank2r.bmp	786	1	BMVZ	786	1	blank2r.bmp	866	2	leiden	866	1	!	1239	1	!	1266	0	0	0	0	0	0	0	0	0	0	0	0	0	0	0	0	0	0	0	0	0	0	0	0	0	0	0
022119	11:28:15	11:43:11	895497	5.0.10.0	4_exp_AWA_CON_EVA_AMP	134	Rpleas_acq	Same	Rpleas	Bmasked	CS_B	1pleas	distractor2	CONbeforeEVA	cond_US_unple_123_masked_CS2	condtest_masked_2	9	24	400	1	300	300	0	0	382	50	0	0	0	0	0	1	blank2r.bmp	0	1	+	0	3	B3r.bmp	492	1	blank2r.bmp	786	1	GKQX	786	1	blank2r.bmp	866	3	fanatisch	866	1	!	1239	1	!	1279	0	0	0	0	0	0	0	0	0	0	0	0	0	0	0	0	0	0	0	0	0	0	0	0	0	0	0
022119	11:28:15	11:43:13	897710	5.0.10.0	4_exp_AWA_CON_EVA_AMP	134	Rpleas_acq	Same	Rpleas	Bmasked	CS_B	1pleas	distractor2	CONbeforeEVA	cond_US_unple_123_masked_CS2	condtest_masked_2	9	25	400	1	300	300	0	0	408	46	0	1	0	0	0	1	blank2r.bmp	0	1	+	0	4	B4r.bmp	492	1	blank2r.bmp	786	1	GKQX	786	1	blank2r.bmp	866	1	rächen	866	1	!	1239	1	!	1306	0	0	0	0	0	0	0	0	0	0	0	0	0	0	0	0	0	0	0	0	0	0	0	0	0	0	0
022119	11:28:15	11:43:15	899935	5.0.10.0	4_exp_AWA_CON_EVA_AMP	134	Rpleas_acq	Same	Rpleas	Bmasked	CS_B	1pleas	distractor2	CONbeforeEVA	cond_US_pleas_123_masked_CS1	condtest_masked_2	9	26	400	1	300	300	0	0	429	50	0	1	0	0	0	1	blank2r.bmp	0	1	+	0	5	C1r.bmp	492	1	blank2r.bmp	786	1	BMVZ	786	1	blank2r.bmp	866	1	retten	866	1	!	1239	1	!	1332	0	0	0	0	0	0	0	0	0	0	0	0	0	0	0	0	0	0	0	0	0	0	0	0	0	0	0
022119	11:28:15	11:43:18	902148	5.0.10.0	4_exp_AWA_CON_EVA_AMP	134	Rpleas_acq	Same	Rpleas	Bmasked	CS_B	1pleas	distractor2	CONbeforeEVA	cond_new_pleas_456_masked_CS1	condtest_masked_2	9	27	400	1	300	300	0	0	418	46	0	0	0	0	0	1	blank2r.bmp	0	1	+	0	2	B2r.bmp	492	1	blank2r.bmp	786	1	BMVZ	786	1	blank2r.bmp	866	1	tolerant	866	1	!	1239	1	!	1319	0	0	0	0	0	0	0	0	0	0	0	0	0	0	0	0	0	0	0	0	0	0	0	0	0	0	0
022119	11:28:15	11:43:20	904400	5.0.10.0	4_exp_AWA_CON_EVA_AMP	134	Rpleas_acq	Same	Rpleas	Bmasked	CS_B	1pleas	distractor2	CONbeforeEVA	cond_new_unple_456_masked_CS1	condtest_masked_2	9	28	400	0	300	300	0	0	479	46	0	1	0	0	0	1	blank2r.bmp	0	1	+	0	8	C4r.bmp	492	1	blank2r.bmp	786	1	BMVZ	786	1	blank2r.bmp	866	1	tyrannisch	866	1	!	1239	1	!	-1	0	0	0	0	0	0	0	0	0	0	0	0	0	0	0	0	0	0	0	0	0	0	0	0	0	0	0
022119	11:28:15	11:43:22	906626	5.0.10.0	4_exp_AWA_CON_EVA_AMP	134	Rpleas_acq	Same	Rpleas	Bmasked	CS_B	1pleas	distractor2	CONbeforeEVA	cond_new_pleas_456_masked_CS2	condtest_masked_2	9	29	400	1	300	300	0	0	422	50	0	1	0	0	0	1	blank2r.bmp	0	1	+	0	3	B3r.bmp	492	1	blank2r.bmp	786	1	GKQX	786	1	blank2r.bmp	866	2	lachen	866	1	!	1239	1	!	1319	0	0	0	0	0	0	0	0	0	0	0	0	0	0	0	0	0	0	0	0	0	0	0	0	0	0	0
022119	11:28:15	11:43:24	908772	5.0.10.0	4_exp_AWA_CON_EVA_AMP	134	Rpleas_acq	Same	Rpleas	Bmasked	CS_B	1pleas	distractor2	CONbeforeEVA	cond_new_unple_456_masked_CS2	condtest_masked_2	9	30	400	1	300	300	0	0	357	50	0	0	0	0	0	1	blank2r.bmp	0	1	+	0	2	B2r.bmp	492	1	blank2r.bmp	786	1	GKQX	786	1	blank2r.bmp	866	3	eitel	866	1	!	1239	1	!	1252	0	0	0	0	0	0	0	0	0	0	0	0	0	0	0	0	0	0	0	0	0	0	0	0	0	0	0
022119	11:28:15	11:43:27	910998	5.0.10.0	4_exp_AWA_CON_EVA_AMP	134	Rpleas_acq	Same	Rpleas	Bmasked	CS_B	1pleas	distractor2	CONbeforeEVA	cond_US_unple_123_masked_CS1	condtest_masked_2	9	31	400	1	300	300	0	0	415	46	0	1	0	0	0	1	blank2r.bmp	0	1	+	0	6	C2r.bmp	492	1	blank2r.bmp	786	1	BMVZ	786	1	blank2r.bmp	866	1	rächen	866	1	!	1239	1	!	1319	0	0	0	0	0	0	0	0	0	0	0	0	0	0	0	0	0	0	0	0	0	0	0	0	0	0	0
022119	11:28:15	11:43:29	913210	5.0.10.0	4_exp_AWA_CON_EVA_AMP	134	Rpleas_acq	Same	Rpleas	Bmasked	CS_B	1pleas	distractor2	CONbeforeEVA	cond_new_unple_456_masked_CS1	condtest_masked_2	9	32	400	1	300	300	0	0	420	50	0	0	0	0	0	1	blank2r.bmp	0	1	+	0	8	C4r.bmp	492	1	blank2r.bmp	786	1	BMVZ	786	1	blank2r.bmp	866	2	leiden	866	1	!	1239	1	!	1319	0	0	0	0	0	0	0	0	0	0	0	0	0	0	0	0	0	0	0	0	0	0	0	0	0	0	0
022119	11:28:15	11:43:31	915462	5.0.10.0	4_exp_AWA_CON_EVA_AMP	134	Rpleas_acq	Same	Rpleas	Bmasked	CS_B	1pleas	distractor2	CONbeforeEVA	cond_new_pleas_456_masked_CS1	condtest_masked_2	9	33	400	1	300	300	0	0	454	50	0	1	0	0	0	1	blank2r.bmp	0	1	+	0	5	C1r.bmp	492	1	blank2r.bmp	786	1	BMVZ	786	1	blank2r.bmp	866	3	ehrlich	866	1	!	1239	1	!	1359	0	0	0	0	0	0	0	0	0	0	0	0	0	0	0	0	0	0	0	0	0	0	0	0	0	0	0
022119	11:28:15	11:43:33	917648	5.0.10.0	4_exp_AWA_CON_EVA_AMP	134	Rpleas_acq	Same	Rpleas	Bmasked	CS_B	1pleas	distractor2	CONbeforeEVA	cond_new_pleas_456_masked_CS2	condtest_masked_2	9	34	400	1	300	300	0	0	396	50	0	1	0	0	0	1	blank2r.bmp	0	1	+	0	7	C3r.bmp	492	1	blank2r.bmp	786	1	GKQX	786	1	blank2r.bmp	866	1	tolerant	866	1	!	1239	1	!	1292	0	0	0	0	0	0	0	0	0	0	0	0	0	0	0	0	0	0	0	0	0	0	0	0	0	0	0
022119	11:28:15	11:43:35	919967	5.0.10.0	4_exp_AWA_CON_EVA_AMP	134	Rpleas_acq	Same	Rpleas	Bmasked	CS_B	1pleas	distractor2	CONbeforeEVA	cond_new_unple_456_masked_CS2	condtest_masked_2	9	35	400	0	300	300	0	0	542	46	0	1	0	0	0	1	blank2r.bmp	0	1	+	0	1	B1r.bmp	492	1	blank2r.bmp	786	1	GKQX	786	1	blank2r.bmp	866	1	tyrannisch	866	1	!	1239	1	!	-1	0	0	0	0	0	0	0	0	0	0	0	0	0	0	0	0	0	0	0	0	0	0	0	0	0	0	0
022119	11:28:15	11:43:38	922233	5.0.10.0	4_exp_AWA_CON_EVA_AMP	134	Rpleas_acq	Same	Rpleas	Bmasked	CS_B	1pleas	distractor2	CONbeforeEVA	cond_new_unple_456_masked_CS1	condtest_masked_2	9	36	400	0	300	300	0	0	479	46	0	1	0	0	0	1	blank2r.bmp	0	1	+	0	4	B4r.bmp	492	1	blank2r.bmp	786	1	BMVZ	786	1	blank2r.bmp	866	3	eitel	866	1	!	1239	1	!	-1	0	0	0	0	0	0	0	0	0	0	0	0	0	0	0	0	0	0	0	0	0	0	0	0	0	0	0
022119	11:28:15	11:43:40	924339	5.0.10.0	4_exp_AWA_CON_EVA_AMP	134	Rpleas_acq	Same	Rpleas	Bmasked	CS_B	1pleas	distractor2	CONbeforeEVA	cond_US_unple_123_masked_CS2	condtest_masked_2	9	37	400	0	300	300	0	0	318	50	0	0	0	0	0	1	blank2r.bmp	0	1	+	0	5	C1r.bmp	492	1	blank2r.bmp	786	1	GKQX	786	1	blank2r.bmp	866	3	fanatisch	866	1	!	-1	1	!	-1	0	0	0	0	0	0	0	0	0	0	0	0	0	0	0	0	0	0	0	0	0	0	0	0	0	0	0
022119	11:28:15	11:43:42	926644	5.0.10.0	4_exp_AWA_CON_EVA_AMP	134	Rpleas_acq	Same	Rpleas	Bmasked	CS_B	1pleas	distractor2	CONbeforeEVA	cond_US_pleas_123_masked_CS2	condtest_masked_2	9	38	400	0	300	300	0	0	530	50	0	1	0	0	0	1	blank2r.bmp	0	1	+	0	1	B1r.bmp	492	1	blank2r.bmp	786	1	GKQX	786	1	blank2r.bmp	866	3	freundlich	866	1	!	1239	1	!	-1	0	0	0	0	0	0	0	0	0	0	0	0	0	0	0	0	0	0	0	0	0	0	0	0	0	0	0
022119	11:28:15	11:43:44	928923	5.0.10.0	4_exp_AWA_CON_EVA_AMP	134	Rpleas_acq	Same	Rpleas	Bmasked	CS_B	1pleas	distractor2	CONbeforeEVA	cond_US_pleas_123_masked_CS1	condtest_masked_2	9	39	400	1	300	300	0	0	465	50	0	1	0	0	0	1	blank2r.bmp	0	1	+	0	7	C3r.bmp	492	1	blank2r.bmp	786	1	BMVZ	786	1	blank2r.bmp	866	2	treu	866	1	!	1239	1	!	1372	0	0	0	0	0	0	0	0	0	0	0	0	0	0	0	0	0	0	0	0	0	0	0	0	0	0	0
022119	11:28:15	11:43:47	931149	5.0.10.0	4_exp_AWA_CON_EVA_AMP	134	Rpleas_acq	Same	Rpleas	Bmasked	CS_B	1pleas	distractor2	CONbeforeEVA	cond_US_unple_123_masked_CS1	condtest_masked_2	9	40	400	1	300	300	0	0	426	46	0	1	0	0	0	1	blank2r.bmp	0	1	+	0	3	B3r.bmp	492	1	blank2r.bmp	786	1	BMVZ	786	1	blank2r.bmp	866	2	tot	866	1	!	1239	1	!	1332	0	0	0	0	0	0	0	0	0	0	0	0	0	0	0	0	0	0	0	0	0	0	0	0	0	0	0
022119	11:28:15	11:43:56	939999	5.0.10.0	4_exp_AWA_CON_EVA_AMP	134	Rpleas_acq	Same	Rpleas	Bmasked	CS_B	1pleas	distractor2	CONbeforeEVA	cond_new_unple_123_masked_CS1	condtest_masked_3	10	1	400	1	300	300	0	0	377	50	0	0	0	0	0	1	blank2r.bmp	0	1	+	0	8	C4r.bmp	492	1	blank2r.bmp	786	1	BMVZ	786	1	blank2r.bmp	866	2	faul	866	1	!	1239	1	!	1279	0	0	0	0	0	0	0	0	0	0	0	0	0	0	0	0	0	0	0	0	0	0	0	0	0	0	0
022119	11:28:15	11:43:58	942198	5.0.10.0	4_exp_AWA_CON_EVA_AMP	134	Rpleas_acq	Same	Rpleas	Bmasked	CS_B	1pleas	distractor2	CONbeforeEVA	cond_US_unple_456_masked_CS1	condtest_masked_3	10	2	400	1	300	300	0	0	410	50	0	0	0	0	0	1	blank2r.bmp	0	1	+	0	2	B2r.bmp	492	1	blank2r.bmp	786	1	BMVZ	786	1	blank2r.bmp	866	1	lasch	866	1	!	1239	1	!	1306	0	0	0	0	0	0	0	0	0	0	0	0	0	0	0	0	0	0	0	0	0	0	0	0	0	0	0
022119	11:28:15	11:44:00	944344	5.0.10.0	4_exp_AWA_CON_EVA_AMP	134	Rpleas_acq	Same	Rpleas	Bmasked	CS_B	1pleas	distractor2	CONbeforeEVA	cond_new_unple_123_masked_CS2	condtest_masked_3	10	3	400	1	300	300	0	0	352	46	0	1	0	0	0	1	blank2r.bmp	0	1	+	0	4	B4r.bmp	492	1	blank2r.bmp	786	1	GKQX	786	1	blank2r.bmp	866	1	schroff	866	1	!	1239	1	!	1252	0	0	0	0	0	0	0	0	0	0	0	0	0	0	0	0	0	0	0	0	0	0	0	0	0	0	0
022119	11:28:15	11:44:02	946543	5.0.10.0	4_exp_AWA_CON_EVA_AMP	134	Rpleas_acq	Same	Rpleas	Bmasked	CS_B	1pleas	distractor2	CONbeforeEVA	cond_new_pleas_123_masked_CS2	condtest_masked_3	10	4	400	1	300	300	0	0	401	50	0	1	0	0	0	1	blank2r.bmp	0	1	+	0	6	C2r.bmp	492	1	blank2r.bmp	786	1	GKQX	786	1	blank2r.bmp	866	3	spielen	866	1	!	1239	1	!	1306	0	0	0	0	0	0	0	0	0	0	0	0	0	0	0	0	0	0	0	0	0	0	0	0	0	0	0
022119	11:28:15	11:44:04	948809	5.0.10.0	4_exp_AWA_CON_EVA_AMP	134	Rpleas_acq	Same	Rpleas	Bmasked	CS_B	1pleas	distractor2	CONbeforeEVA	cond_US_pleas_456_masked_CS1	condtest_masked_3	10	5	400	1	300	300	0	0	466	50	0	1	0	0	0	1	blank2r.bmp	0	1	+	0	7	C3r.bmp	492	1	blank2r.bmp	786	1	BMVZ	786	1	blank2r.bmp	866	1	loyal	866	1	!	1239	1	!	1372	0	0	0	0	0	0	0	0	0	0	0	0	0	0	0	0	0	0	0	0	0	0	0	0	0	0	0
022119	11:28:15	11:44:07	951048	5.0.10.0	4_exp_AWA_CON_EVA_AMP	134	Rpleas_acq	Same	Rpleas	Bmasked	CS_B	1pleas	distractor2	CONbeforeEVA	cond_new_pleas_123_masked_CS1	condtest_masked_3	10	6	400	1	300	300	0	0	449	50	0	1	0	0	0	1	blank2r.bmp	0	1	+	0	4	B4r.bmp	492	1	blank2r.bmp	786	1	BMVZ	786	1	blank2r.bmp	866	2	fair	866	1	!	1239	1	!	1346	0	0	0	0	0	0	0	0	0	0	0	0	0	0	0	0	0	0	0	0	0	0	0	0	0	0	0
022119	11:28:15	11:44:09	953300	5.0.10.0	4_exp_AWA_CON_EVA_AMP	134	Rpleas_acq	Same	Rpleas	Bmasked	CS_B	1pleas	distractor2	CONbeforeEVA	cond_new_unple_123_masked_CS2	condtest_masked_3	10	7	400	1	300	300	0	0	442	46	0	1	0	0	0	1	blank2r.bmp	0	1	+	0	6	C2r.bmp	492	1	blank2r.bmp	786	1	GKQX	786	1	blank2r.bmp	866	3	strafen	866	1	!	1239	1	!	1346	0	0	0	0	0	0	0	0	0	0	0	0	0	0	0	0	0	0	0	0	0	0	0	0	0	0	0
022119	11:28:15	11:44:11	955379	5.0.10.0	4_exp_AWA_CON_EVA_AMP	134	Rpleas_acq	Same	Rpleas	Bmasked	CS_B	1pleas	distractor2	CONbeforeEVA	cond_US_pleas_456_masked_CS1	condtest_masked_3	10	8	400	0	300	300	0	0	314	50	0	1	0	0	0	1	blank2r.bmp	0	1	+	0	2	B2r.bmp	492	1	blank2r.bmp	786	1	BMVZ	786	1	blank2r.bmp	866	2	schön	866	1	!	-1	1	!	-1	0	0	0	0	0	0	0	0	0	0	0	0	0	0	0	0	0	0	0	0	0	0	0	0	0	0	0
022119	11:28:15	11:44:13	957565	5.0.10.0	4_exp_AWA_CON_EVA_AMP	134	Rpleas_acq	Same	Rpleas	Bmasked	CS_B	1pleas	distractor2	CONbeforeEVA	cond_new_pleas_123_masked_CS1	condtest_masked_3	10	9	400	1	300	300	0	0	380	46	0	0	0	0	0	1	blank2r.bmp	0	1	+	0	8	C4r.bmp	492	1	blank2r.bmp	786	1	BMVZ	786	1	blank2r.bmp	866	1	schlau	866	1	!	1239	1	!	1279	0	0	0	0	0	0	0	0	0	0	0	0	0	0	0	0	0	0	0	0	0	0	0	0	0	0	0
022119	11:28:15	11:44:15	959817	5.0.10.0	4_exp_AWA_CON_EVA_AMP	134	Rpleas_acq	Same	Rpleas	Bmasked	CS_B	1pleas	distractor2	CONbeforeEVA	cond_US_unple_456_masked_CS1	condtest_masked_3	10	10	400	0	300	300	0	0	491	46	0	1	0	0	0	1	blank2r.bmp	0	1	+	0	3	B3r.bmp	492	1	blank2r.bmp	786	1	BMVZ	786	1	blank2r.bmp	866	3	hindern	866	1	!	1239	1	!	-1	0	0	0	0	0	0	0	0	0	0	0	0	0	0	0	0	0	0	0	0	0	0	0	0	0	0	0
022119	11:28:15	11:44:18	962057	5.0.10.0	4_exp_AWA_CON_EVA_AMP	134	Rpleas_acq	Same	Rpleas	Bmasked	CS_B	1pleas	distractor2	CONbeforeEVA	cond_new_pleas_123_masked_CS1	condtest_masked_3	10	11	400	1	300	300	0	0	420	50	0	1	0	0	0	1	blank2r.bmp	0	1	+	0	1	B1r.bmp	492	1	blank2r.bmp	786	1	BMVZ	786	1	blank2r.bmp	866	1	schlau	866	1	!	1239	1	!	1319	0	0	0	0	0	0	0	0	0	0	0	0	0	0	0	0	0	0	0	0	0	0	0	0	0	0	0
022119	11:28:15	11:44:20	964229	5.0.10.0	4_exp_AWA_CON_EVA_AMP	134	Rpleas_acq	Same	Rpleas	Bmasked	CS_B	1pleas	distractor2	CONbeforeEVA	cond_new_pleas_123_masked_CS2	condtest_masked_3	10	12	400	1	300	300	0	0	379	50	0	1	0	0	0	1	blank2r.bmp	0	1	+	0	5	C1r.bmp	492	1	blank2r.bmp	786	1	GKQX	786	1	blank2r.bmp	866	3	spielen	866	1	!	1239	1	!	1279	0	0	0	0	0	0	0	0	0	0	0	0	0	0	0	0	0	0	0	0	0	0	0	0	0	0	0
022119	11:28:15	11:44:22	966441	5.0.10.0	4_exp_AWA_CON_EVA_AMP	134	Rpleas_acq	Same	Rpleas	Bmasked	CS_B	1pleas	distractor2	CONbeforeEVA	cond_new_pleas_123_masked_CS2	condtest_masked_3	10	13	400	1	300	300	0	0	410	50	0	1	0	0	0	1	blank2r.bmp	0	1	+	0	7	C3r.bmp	492	1	blank2r.bmp	786	1	GKQX	786	1	blank2r.bmp	866	2	fair	866	1	!	1239	1	!	1306	0	0	0	0	0	0	0	0	0	0	0	0	0	0	0	0	0	0	0	0	0	0	0	0	0	0	0
022119	11:28:15	11:44:24	968694	5.0.10.0	4_exp_AWA_CON_EVA_AMP	134	Rpleas_acq	Same	Rpleas	Bmasked	CS_B	1pleas	distractor2	CONbeforeEVA	cond_US_unple_456_masked_CS2	condtest_masked_3	10	14	400	0	300	300	0	0	479	46	0	1	0	0	0	1	blank2r.bmp	0	1	+	0	1	B1r.bmp	492	1	blank2r.bmp	786	1	GKQX	786	1	blank2r.bmp	866	2	schlecht	866	1	!	1239	1	!	-1	0	0	0	0	0	0	0	0	0	0	0	0	0	0	0	0	0	0	0	0	0	0	0	0	0	0	0
022119	11:28:15	11:44:27	971040	5.0.10.0	4_exp_AWA_CON_EVA_AMP	134	Rpleas_acq	Same	Rpleas	Bmasked	CS_B	1pleas	distractor2	CONbeforeEVA	cond_new_unple_123_masked_CS2	condtest_masked_3	10	15	400	0	300	300	0	0	546	46	0	1	0	0	0	1	blank2r.bmp	0	1	+	0	8	C4r.bmp	492	1	blank2r.bmp	786	1	GKQX	786	1	blank2r.bmp	866	3	strafen	866	1	!	1239	1	!	-1	0	0	0	0	0	0	0	0	0	0	0	0	0	0	0	0	0	0	0	0	0	0	0	0	0	0	0
022119	11:28:15	11:44:29	973319	5.0.10.0	4_exp_AWA_CON_EVA_AMP	134	Rpleas_acq	Same	Rpleas	Bmasked	CS_B	1pleas	distractor2	CONbeforeEVA	cond_new_unple_123_masked_CS2	condtest_masked_3	10	16	400	0	300	300	0	0	494	46	0	1	0	0	0	1	blank2r.bmp	0	1	+	0	5	C1r.bmp	492	1	blank2r.bmp	786	1	GKQX	786	1	blank2r.bmp	866	2	faul	866	1	!	1239	1	!	-1	0	0	0	0	0	0	0	0	0	0	0	0	0	0	0	0	0	0	0	0	0	0	0	0	0	0	0
022119	11:28:15	11:44:31	975531	5.0.10.0	4_exp_AWA_CON_EVA_AMP	134	Rpleas_acq	Same	Rpleas	Bmasked	CS_B	1pleas	distractor2	CONbeforeEVA	cond_US_pleas_456_masked_CS1	condtest_masked_3	10	17	400	1	300	300	0	0	400	50	0	1	0	0	0	1	blank2r.bmp	0	1	+	0	2	B2r.bmp	492	1	blank2r.bmp	786	1	BMVZ	786	1	blank2r.bmp	866	3	helfen	866	1	!	1239	1	!	1306	0	0	0	0	0	0	0	0	0	0	0	0	0	0	0	0	0	0	0	0	0	0	0	0	0	0	0
022119	11:28:15	11:44:33	977703	5.0.10.0	4_exp_AWA_CON_EVA_AMP	134	Rpleas_acq	Same	Rpleas	Bmasked	CS_B	1pleas	distractor2	CONbeforeEVA	cond_US_unple_456_masked_CS2	condtest_masked_3	10	18	400	1	300	300	0	0	378	46	0	1	0	0	0	1	blank2r.bmp	0	1	+	0	4	B4r.bmp	492	1	blank2r.bmp	786	1	GKQX	786	1	blank2r.bmp	866	2	schlecht	866	1	!	1239	1	!	1279	0	0	0	0	0	0	0	0	0	0	0	0	0	0	0	0	0	0	0	0	0	0	0	0	0	0	0
022119	11:28:15	11:44:35	979916	5.0.10.0	4_exp_AWA_CON_EVA_AMP	134	Rpleas_acq	Same	Rpleas	Bmasked	CS_B	1pleas	distractor2	CONbeforeEVA	cond_US_pleas_456_masked_CS2	condtest_masked_3	10	19	400	1	300	300	0	0	420	50	0	1	0	0	0	1	blank2r.bmp	0	1	+	0	6	C2r.bmp	492	1	blank2r.bmp	786	1	GKQX	786	1	blank2r.bmp	866	1	loyal	866	1	!	1239	1	!	1319	0	0	0	0	0	0	0	0	0	0	0	0	0	0	0	0	0	0	0	0	0	0	0	0	0	0	0
022119	11:28:15	11:44:37	981915	5.0.10.0	4_exp_AWA_CON_EVA_AMP	134	Rpleas_acq	Same	Rpleas	Bmasked	CS_B	1pleas	distractor2	CONbeforeEVA	cond_new_unple_123_masked_CS2	condtest_masked_3	10	20	400	0	300	300	0	0	236	46	0	1	0	0	0	1	blank2r.bmp	0	1	+	0	3	B3r.bmp	492	1	blank2r.bmp	786	1	GKQX	786	1	blank2r.bmp	866	1	schroff	866	1	!	-1	1	!	-1	0	0	0	0	0	0	0	0	0	0	0	0	0	0	0	0	0	0	0	0	0	0	0	0	0	0	0
022119	11:28:15	11:44:40	984007	5.0.10.0	4_exp_AWA_CON_EVA_AMP	134	Rpleas_acq	Same	Rpleas	Bmasked	CS_B	1pleas	distractor2	CONbeforeEVA	cond_US_pleas_456_masked_CS2	condtest_masked_3	10	21	400	0	300	300	0	0	309	50	0	1	0	0	0	1	blank2r.bmp	0	1	+	0	2	B2r.bmp	492	1	blank2r.bmp	786	1	GKQX	786	1	blank2r.bmp	866	2	schön	866	1	!	-1	1	!	-1	0	0	0	0	0	0	0	0	0	0	0	0	0	0	0	0	0	0	0	0	0	0	0	0	0	0	0
022119	11:28:15	11:44:42	986433	5.0.10.0	4_exp_AWA_CON_EVA_AMP	134	Rpleas_acq	Same	Rpleas	Bmasked	CS_B	1pleas	distractor2	CONbeforeEVA	cond_US_unple_456_masked_CS2	condtest_masked_3	10	22	400	0	300	300	0	0	641	46	0	1	0	0	0	1	blank2r.bmp	0	1	+	0	3	B3r.bmp	492	1	blank2r.bmp	786	1	GKQX	786	1	blank2r.bmp	866	1	lasch	866	1	!	1239	1	!	-1	0	0	0	0	0	0	0	0	0	0	0	0	0	0	0	0	0	0	0	0	0	0	0	0	0	0	0
022119	11:28:15	11:44:44	988646	5.0.10.0	4_exp_AWA_CON_EVA_AMP	134	Rpleas_acq	Same	Rpleas	Bmasked	CS_B	1pleas	distractor2	CONbeforeEVA	cond_US_unple_456_masked_CS2	condtest_masked_3	10	23	400	1	300	300	0	0	408	46	0	1	0	0	0	1	blank2r.bmp	0	1	+	0	8	C4r.bmp	492	1	blank2r.bmp	786	1	GKQX	786	1	blank2r.bmp	866	3	hindern	866	1	!	1239	1	!	1306	0	0	0	0	0	0	0	0	0	0	0	0	0	0	0	0	0	0	0	0	0	0	0	0	0	0	0
022119	11:28:15	11:44:46	990898	5.0.10.0	4_exp_AWA_CON_EVA_AMP	134	Rpleas_acq	Same	Rpleas	Bmasked	CS_B	1pleas	distractor2	CONbeforeEVA	cond_new_pleas_123_masked_CS1	condtest_masked_3	10	24	400	0	300	300	0	0	481	50	0	1	0	0	0	1	blank2r.bmp	0	1	+	0	5	C1r.bmp	492	1	blank2r.bmp	786	1	BMVZ	786	1	blank2r.bmp	866	1	schlau	866	1	!	1239	1	!	-1	0	0	0	0	0	0	0	0	0	0	0	0	0	0	0	0	0	0	0	0	0	0	0	0	0	0	0
022119	11:28:15	11:44:49	993124	5.0.10.0	4_exp_AWA_CON_EVA_AMP	134	Rpleas_acq	Same	Rpleas	Bmasked	CS_B	1pleas	distractor2	CONbeforeEVA	cond_new_pleas_123_masked_CS1	condtest_masked_3	10	25	400	1	300	300	0	0	422	50	0	1	0	0	0	1	blank2r.bmp	0	1	+	0	1	B1r.bmp	492	1	blank2r.bmp	786	1	BMVZ	786	1	blank2r.bmp	866	3	spielen	866	1	!	1239	1	!	1319	0	0	0	0	0	0	0	0	0	0	0	0	0	0	0	0	0	0	0	0	0	0	0	0	0	0	0
022119	11:28:15	11:44:51	995376	5.0.10.0	4_exp_AWA_CON_EVA_AMP	134	Rpleas_acq	Same	Rpleas	Bmasked	CS_B	1pleas	distractor2	CONbeforeEVA	cond_new_unple_123_masked_CS1	condtest_masked_3	10	26	400	1	300	300	0	0	455	46	0	1	0	0	0	1	blank2r.bmp	0	1	+	0	7	C3r.bmp	492	1	blank2r.bmp	786	1	BMVZ	786	1	blank2r.bmp	866	2	faul	866	1	!	1239	1	!	1359	0	0	0	0	0	0	0	0	0	0	0	0	0	0	0	0	0	0	0	0	0	0	0	0	0	0	0
022119	11:28:15	11:44:53	997709	5.0.10.0	4_exp_AWA_CON_EVA_AMP	134	Rpleas_acq	Same	Rpleas	Bmasked	CS_B	1pleas	distractor2	CONbeforeEVA	cond_US_pleas_456_masked_CS1	condtest_masked_3	10	27	400	0	300	300	0	0	559	50	0	1	0	0	0	1	blank2r.bmp	0	1	+	0	6	C2r.bmp	492	1	blank2r.bmp	786	1	BMVZ	786	1	blank2r.bmp	866	3	helfen	866	1	!	1239	1	!	-1	0	0	0	0	0	0	0	0	0	0	0	0	0	0	0	0	0	0	0	0	0	0	0	0	0	0	0
022119	11:28:15	11:44:55	999934	5.0.10.0	4_exp_AWA_CON_EVA_AMP	134	Rpleas_acq	Same	Rpleas	Bmasked	CS_B	1pleas	distractor2	CONbeforeEVA	cond_new_pleas_123_masked_CS2	condtest_masked_3	10	28	400	1	300	300	0	0	400	46	0	0	0	0	0	1	blank2r.bmp	0	1	+	0	4	B4r.bmp	492	1	blank2r.bmp	786	1	GKQX	786	1	blank2r.bmp	866	2	fair	866	1	!	1239	1	!	1306	0	0	0	0	0	0	0	0	0	0	0	0	0	0	0	0	0	0	0	0	0	0	0	0	0	0	0
022119	11:28:15	11:44:58	1002187	5.0.10.0	4_exp_AWA_CON_EVA_AMP	134	Rpleas_acq	Same	Rpleas	Bmasked	CS_B	1pleas	distractor2	CONbeforeEVA	cond_US_unple_456_masked_CS1	condtest_masked_3	10	29	400	0	300	300	0	0	479	50	0	0	0	0	0	1	blank2r.bmp	0	1	+	0	3	B3r.bmp	492	1	blank2r.bmp	786	1	BMVZ	786	1	blank2r.bmp	866	2	schlecht	866	1	!	1239	1	!	-1	0	0	0	0	0	0	0	0	0	0	0	0	0	0	0	0	0	0	0	0	0	0	0	0	0	0	0
022119	11:28:15	11:45:00	1004386	5.0.10.0	4_exp_AWA_CON_EVA_AMP	134	Rpleas_acq	Same	Rpleas	Bmasked	CS_B	1pleas	distractor2	CONbeforeEVA	cond_US_pleas_456_masked_CS2	condtest_masked_3	10	30	400	1	300	300	0	0	374	50	0	1	0	0	0	1	blank2r.bmp	0	1	+	0	2	B2r.bmp	492	1	blank2r.bmp	786	1	GKQX	786	1	blank2r.bmp	866	2	schön	866	1	!	1239	1	!	1279	0	0	0	0	0	0	0	0	0	0	0	0	0	0	0	0	0	0	0	0	0	0	0	0	0	0	0
022119	11:28:15	11:45:02	1006598	5.0.10.0	4_exp_AWA_CON_EVA_AMP	134	Rpleas_acq	Same	Rpleas	Bmasked	CS_B	1pleas	distractor2	CONbeforeEVA	cond_new_pleas_123_masked_CS1	condtest_masked_3	10	31	400	1	300	300	0	0	421	50	0	1	0	0	0	1	blank2r.bmp	0	1	+	0	4	B4r.bmp	492	1	blank2r.bmp	786	1	BMVZ	786	1	blank2r.bmp	866	2	fair	866	1	!	1239	1	!	1319	0	0	0	0	0	0	0	0	0	0	0	0	0	0	0	0	0	0	0	0	0	0	0	0	0	0	0
