date	time	script.currenttime	script.elapsedtime	build	script.currentexpt	subject	expressions.LRpleas_acq	expressions.SameOppo	expressions.condition_Lpleas	expressions.ABmasked	expressions.conditionCS_A	expressions.condition_1pleas	expressions.condition_distractor_AMP	expressions.AWACON_AMPEVA_first	trialcode	blockcode	blocknum	trialnum	windowcenter	inwindow	pretrialpause	posttrialpause	trialduration	trialtimeout	latency	response	expressions.correctedscore	correct	values.vis_performance	values.vis_rating_sum	values.vis_rating_mean	stimulusnumber1	stimulusitem1	stimulusonset1	stimulusnumber2	stimulusitem2	stimulusonset2	stimulusnumber3	stimulusitem3	stimulusonset3	stimulusnumber4	stimulusitem4	stimulusonset4	stimulusnumber5	stimulusitem5	stimulusonset5	stimulusnumber6	stimulusitem6	stimulusonset6	stimulusnumber7	stimulusitem7	stimulusonset7	stimulusnumber8	stimulusitem8	stimulusonset8	stimulusnumber9	stimulusitem9	stimulusonset9	stimulusnumber10	stimulusitem10	stimulusonset10	stimulusnumber11	stimulusitem11	stimulusonset11	stimulusnumber12	stimulusitem12	stimulusonset12	stimulusnumber13	stimulusitem13	stimulusonset13	stimulusnumber14	stimulusitem14	stimulusonset14	stimulusnumber15	stimulusitem15	stimulusonset15	stimulusnumber16	stimulusitem16	stimulusonset16	stimulusnumber17	stimulusitem17	stimulusonset17	stimulusnumber18	stimulusitem18	stimulusonset18
012419	16:23:02	16:25:50	167424	5.0.10.0	4_exp_EVA_AMP_AWA_CON	90	Rpleas_acq	Same	Rpleas	Bmasked	CS_B	1pleas	distractor2	EVAbeforeCON	acq_US_pleas_masked	acq1_masked	1	1	0	0	300	300	0	0	1579	50	0	1	0	0	0	1	blank2r.bmp	0	1	+	0	7	C3r.bmp	492	1	blank2r.bmp	786	1	BMVZ	786	1	blank2r.bmp	866	4	lachen	866	0	0	0	0	0	0	0	0	0	0	0	0	0	0	0	0	0	0	0	0	0	0	0	0	0	0	0	0	0	0	0	0	0
012419	16:23:02	16:25:53	170329	5.0.10.0	4_exp_EVA_AMP_AWA_CON	90	Rpleas_acq	Same	Rpleas	Bmasked	CS_B	1pleas	distractor2	EVAbeforeCON	acq_US_unple_masked	acq1_masked	1	2	0	0	300	300	0	0	1427	46	0	1	0	0	0	1	blank2r.bmp	0	1	+	0	1	B1r.bmp	492	1	blank2r.bmp	786	1	GKQX	786	1	blank2r.bmp	866	6	rächen	866	0	0	0	0	0	0	0	0	0	0	0	0	0	0	0	0	0	0	0	0	0	0	0	0	0	0	0	0	0	0	0	0	0
012419	16:23:02	16:25:56	172781	5.0.10.0	4_exp_EVA_AMP_AWA_CON	90	Rpleas_acq	Same	Rpleas	Bmasked	CS_B	1pleas	distractor2	EVAbeforeCON	acq_new_pleas_masked	acq1_masked	1	3	0	0	300	300	0	0	978	50	0	1	0	0	0	1	blank2r.bmp	0	1	+	0	8	C4r.bmp	492	1	blank2r.bmp	786	4	B4r.bmp	786	1	blank2r.bmp	866	1	treu	866	0	0	0	0	0	0	0	0	0	0	0	0	0	0	0	0	0	0	0	0	0	0	0	0	0	0	0	0	0	0	0	0	0
012419	16:23:02	16:25:58	175100	5.0.10.0	4_exp_EVA_AMP_AWA_CON	90	Rpleas_acq	Same	Rpleas	Bmasked	CS_B	1pleas	distractor2	EVAbeforeCON	acq_US_unple_masked	acq1_masked	1	4	0	0	300	300	0	0	837	46	0	1	0	0	0	1	blank2r.bmp	0	1	+	0	6	C2r.bmp	492	1	blank2r.bmp	786	1	GKQX	786	1	blank2r.bmp	866	5	strafen	866	0	0	0	0	0	0	0	0	0	0	0	0	0	0	0	0	0	0	0	0	0	0	0	0	0	0	0	0	0	0	0	0	0
012419	16:23:02	16:26:00	177286	5.0.10.0	4_exp_EVA_AMP_AWA_CON	90	Rpleas_acq	Same	Rpleas	Bmasked	CS_B	1pleas	distractor2	EVAbeforeCON	acq_US_pleas_masked	acq1_masked	1	5	0	0	300	300	0	0	698	50	0	1	0	0	0	1	blank2r.bmp	0	1	+	0	3	B3r.bmp	492	1	blank2r.bmp	786	1	BMVZ	786	1	blank2r.bmp	866	3	fair	866	0	0	0	0	0	0	0	0	0	0	0	0	0	0	0	0	0	0	0	0	0	0	0	0	0	0	0	0	0	0	0	0	0
012419	16:23:02	16:26:03	179605	5.0.10.0	4_exp_EVA_AMP_AWA_CON	90	Rpleas_acq	Same	Rpleas	Bmasked	CS_B	1pleas	distractor2	EVAbeforeCON	acq_new_pleas_masked	acq1_masked	1	6	0	0	300	300	0	0	838	50	0	1	0	0	0	1	blank2r.bmp	0	1	+	0	4	B4r.bmp	492	1	blank2r.bmp	786	6	C2r.bmp	786	1	blank2r.bmp	866	5	tolerant	866	0	0	0	0	0	0	0	0	0	0	0	0	0	0	0	0	0	0	0	0	0	0	0	0	0	0	0	0	0	0	0	0	0
012419	16:23:02	16:26:05	181871	5.0.10.0	4_exp_EVA_AMP_AWA_CON	90	Rpleas_acq	Same	Rpleas	Bmasked	CS_B	1pleas	distractor2	EVAbeforeCON	acq_new_pleas_masked	acq1_masked	1	7	0	0	300	300	0	0	784	50	0	1	0	0	0	1	blank2r.bmp	0	1	+	0	2	B2r.bmp	492	1	blank2r.bmp	786	8	C4r.bmp	786	1	blank2r.bmp	866	6	loyal	866	0	0	0	0	0	0	0	0	0	0	0	0	0	0	0	0	0	0	0	0	0	0	0	0	0	0	0	0	0	0	0	0	0
012419	16:23:02	16:26:07	183870	5.0.10.0	4_exp_EVA_AMP_AWA_CON	90	Rpleas_acq	Same	Rpleas	Bmasked	CS_B	1pleas	distractor2	EVAbeforeCON	acq_new_unple_masked	acq1_masked	1	8	0	0	300	300	0	0	510	46	0	1	0	0	0	1	blank2r.bmp	0	1	+	0	5	C1r.bmp	492	1	blank2r.bmp	786	7	C3r.bmp	786	1	blank2r.bmp	866	6	lasch	866	0	0	0	0	0	0	0	0	0	0	0	0	0	0	0	0	0	0	0	0	0	0	0	0	0	0	0	0	0	0	0	0	0
012419	16:23:02	16:26:09	186322	5.0.10.0	4_exp_EVA_AMP_AWA_CON	90	Rpleas_acq	Same	Rpleas	Bmasked	CS_B	1pleas	distractor2	EVAbeforeCON	acq_new_unple_masked	acq1_masked	1	9	0	0	300	300	0	0	976	46	0	1	0	0	0	1	blank2r.bmp	0	1	+	0	6	C2r.bmp	492	1	blank2r.bmp	786	1	B1r.bmp	786	1	blank2r.bmp	866	4	fanatisch	866	0	0	0	0	0	0	0	0	0	0	0	0	0	0	0	0	0	0	0	0	0	0	0	0	0	0	0	0	0	0	0	0	0
012419	16:23:02	16:26:11	188335	5.0.10.0	4_exp_EVA_AMP_AWA_CON	90	Rpleas_acq	Same	Rpleas	Bmasked	CS_B	1pleas	distractor2	EVAbeforeCON	acq_new_unple_masked	acq1_masked	1	10	0	0	300	300	0	0	523	46	0	1	0	0	0	1	blank2r.bmp	0	1	+	0	4	B4r.bmp	492	1	blank2r.bmp	786	2	B2r.bmp	786	1	blank2r.bmp	866	2	schlecht	866	0	0	0	0	0	0	0	0	0	0	0	0	0	0	0	0	0	0	0	0	0	0	0	0	0	0	0	0	0	0	0	0	0
012419	16:23:02	16:26:14	190641	5.0.10.0	4_exp_EVA_AMP_AWA_CON	90	Rpleas_acq	Same	Rpleas	Bmasked	CS_B	1pleas	distractor2	EVAbeforeCON	acq_US_pleas_masked	acq1_masked	1	11	0	0	300	300	0	0	826	50	0	1	0	0	0	1	blank2r.bmp	0	1	+	0	8	C4r.bmp	492	1	blank2r.bmp	786	1	BMVZ	786	1	blank2r.bmp	866	1	ehrlich	866	0	0	0	0	0	0	0	0	0	0	0	0	0	0	0	0	0	0	0	0	0	0	0	0	0	0	0	0	0	0	0	0	0
012419	16:23:02	16:26:16	193066	5.0.10.0	4_exp_EVA_AMP_AWA_CON	90	Rpleas_acq	Same	Rpleas	Bmasked	CS_B	1pleas	distractor2	EVAbeforeCON	acq_US_unple_masked	acq1_masked	1	12	0	0	300	300	0	0	957	46	0	1	0	0	0	1	blank2r.bmp	0	1	+	0	2	B2r.bmp	492	1	blank2r.bmp	786	1	GKQX	786	1	blank2r.bmp	866	1	eitel	866	0	0	0	0	0	0	0	0	0	0	0	0	0	0	0	0	0	0	0	0	0	0	0	0	0	0	0	0	0	0	0	0	0
012419	16:23:02	16:26:18	195252	5.0.10.0	4_exp_EVA_AMP_AWA_CON	90	Rpleas_acq	Same	Rpleas	Bmasked	CS_B	1pleas	distractor2	EVAbeforeCON	acq_new_pleas_masked	acq1_masked	1	13	0	0	300	300	0	0	692	50	0	1	0	0	0	1	blank2r.bmp	0	1	+	0	1	B1r.bmp	492	1	blank2r.bmp	786	3	B3r.bmp	786	1	blank2r.bmp	866	3	helfen	866	0	0	0	0	0	0	0	0	0	0	0	0	0	0	0	0	0	0	0	0	0	0	0	0	0	0	0	0	0	0	0	0	0
012419	16:23:02	16:26:20	197411	5.0.10.0	4_exp_EVA_AMP_AWA_CON	90	Rpleas_acq	Same	Rpleas	Bmasked	CS_B	1pleas	distractor2	EVAbeforeCON	acq_US_pleas_masked	acq1_masked	1	14	0	0	300	300	0	0	677	50	0	1	0	0	0	1	blank2r.bmp	0	1	+	0	7	C3r.bmp	492	1	blank2r.bmp	786	1	BMVZ	786	1	blank2r.bmp	866	2	schlau	866	0	0	0	0	0	0	0	0	0	0	0	0	0	0	0	0	0	0	0	0	0	0	0	0	0	0	0	0	0	0	0	0	0
012419	16:23:02	16:26:23	199717	5.0.10.0	4_exp_EVA_AMP_AWA_CON	90	Rpleas_acq	Same	Rpleas	Bmasked	CS_B	1pleas	distractor2	EVAbeforeCON	acq_new_unple_masked	acq1_masked	1	15	0	0	300	300	0	0	818	46	0	1	0	0	0	1	blank2r.bmp	0	1	+	0	5	C1r.bmp	492	1	blank2r.bmp	786	5	C1r.bmp	786	1	blank2r.bmp	866	3	hindern	866	0	0	0	0	0	0	0	0	0	0	0	0	0	0	0	0	0	0	0	0	0	0	0	0	0	0	0	0	0	0	0	0	0
012419	16:23:02	16:26:25	201903	5.0.10.0	4_exp_EVA_AMP_AWA_CON	90	Rpleas_acq	Same	Rpleas	Bmasked	CS_B	1pleas	distractor2	EVAbeforeCON	acq_US_unple_masked	acq1_masked	1	16	0	0	300	300	0	0	717	46	0	1	0	0	0	1	blank2r.bmp	0	1	+	0	3	B3r.bmp	492	1	blank2r.bmp	786	1	GKQX	786	1	blank2r.bmp	866	4	leiden	866	0	0	0	0	0	0	0	0	0	0	0	0	0	0	0	0	0	0	0	0	0	0	0	0	0	0	0	0	0	0	0	0	0
012419	16:23:02	16:26:27	204062	5.0.10.0	4_exp_EVA_AMP_AWA_CON	90	Rpleas_acq	Same	Rpleas	Bmasked	CS_B	1pleas	distractor2	EVAbeforeCON	acq_new_pleas_masked	acq1_masked	1	17	0	0	300	300	0	0	677	50	0	1	0	0	0	1	blank2r.bmp	0	1	+	0	2	B2r.bmp	492	1	blank2r.bmp	786	4	B4r.bmp	786	1	blank2r.bmp	866	2	schön	866	0	0	0	0	0	0	0	0	0	0	0	0	0	0	0	0	0	0	0	0	0	0	0	0	0	0	0	0	0	0	0	0	0
012419	16:23:02	16:26:29	206274	5.0.10.0	4_exp_EVA_AMP_AWA_CON	90	Rpleas_acq	Same	Rpleas	Bmasked	CS_B	1pleas	distractor2	EVAbeforeCON	acq_US_unple_masked	acq1_masked	1	18	0	0	300	300	0	0	719	46	0	1	0	0	0	1	blank2r.bmp	0	1	+	0	7	C3r.bmp	492	1	blank2r.bmp	786	1	GKQX	786	1	blank2r.bmp	866	2	schroff	866	0	0	0	0	0	0	0	0	0	0	0	0	0	0	0	0	0	0	0	0	0	0	0	0	0	0	0	0	0	0	0	0	0
012419	16:23:02	16:26:31	208433	5.0.10.0	4_exp_EVA_AMP_AWA_CON	90	Rpleas_acq	Same	Rpleas	Bmasked	CS_B	1pleas	distractor2	EVAbeforeCON	acq_new_unple_masked	acq1_masked	1	19	0	0	300	300	0	0	681	46	0	1	0	0	0	1	blank2r.bmp	0	1	+	0	1	B1r.bmp	492	1	blank2r.bmp	786	6	C2r.bmp	786	1	blank2r.bmp	866	1	tot	866	0	0	0	0	0	0	0	0	0	0	0	0	0	0	0	0	0	0	0	0	0	0	0	0	0	0	0	0	0	0	0	0	0
012419	16:23:02	16:26:34	210499	5.0.10.0	4_exp_EVA_AMP_AWA_CON	90	Rpleas_acq	Same	Rpleas	Bmasked	CS_B	1pleas	distractor2	EVAbeforeCON	acq_new_pleas_masked	acq1_masked	1	20	0	0	300	300	0	0	584	50	0	1	0	0	0	1	blank2r.bmp	0	1	+	0	6	C2r.bmp	492	1	blank2r.bmp	786	1	B1r.bmp	786	1	blank2r.bmp	866	4	freundlich	866	0	0	0	0	0	0	0	0	0	0	0	0	0	0	0	0	0	0	0	0	0	0	0	0	0	0	0	0	0	0	0	0	0
012419	16:23:02	16:26:36	212885	5.0.10.0	4_exp_EVA_AMP_AWA_CON	90	Rpleas_acq	Same	Rpleas	Bmasked	CS_B	1pleas	distractor2	EVAbeforeCON	acq_US_pleas_masked	acq1_masked	1	21	0	0	300	300	0	0	898	50	0	1	0	0	0	1	blank2r.bmp	0	1	+	0	4	B4r.bmp	492	1	blank2r.bmp	786	1	BMVZ	786	1	blank2r.bmp	866	6	retten	866	0	0	0	0	0	0	0	0	0	0	0	0	0	0	0	0	0	0	0	0	0	0	0	0	0	0	0	0	0	0	0	0	0
012419	16:23:02	16:26:38	215044	5.0.10.0	4_exp_EVA_AMP_AWA_CON	90	Rpleas_acq	Same	Rpleas	Bmasked	CS_B	1pleas	distractor2	EVAbeforeCON	acq_US_pleas_masked	acq1_masked	1	22	0	0	300	300	0	0	690	50	0	1	0	0	0	1	blank2r.bmp	0	1	+	0	5	C1r.bmp	492	1	blank2r.bmp	786	1	BMVZ	786	1	blank2r.bmp	866	5	spielen	866	0	0	0	0	0	0	0	0	0	0	0	0	0	0	0	0	0	0	0	0	0	0	0	0	0	0	0	0	0	0	0	0	0
012419	16:23:02	16:26:40	217150	5.0.10.0	4_exp_EVA_AMP_AWA_CON	90	Rpleas_acq	Same	Rpleas	Bmasked	CS_B	1pleas	distractor2	EVAbeforeCON	acq_new_unple_masked	acq1_masked	1	23	0	0	300	300	0	0	612	46	0	1	0	0	0	1	blank2r.bmp	0	1	+	0	3	B3r.bmp	492	1	blank2r.bmp	786	2	B2r.bmp	786	1	blank2r.bmp	866	5	tyrannisch	866	0	0	0	0	0	0	0	0	0	0	0	0	0	0	0	0	0	0	0	0	0	0	0	0	0	0	0	0	0	0	0	0	0
012419	16:23:02	16:26:42	219269	5.0.10.0	4_exp_EVA_AMP_AWA_CON	90	Rpleas_acq	Same	Rpleas	Bmasked	CS_B	1pleas	distractor2	EVAbeforeCON	acq_US_unple_masked	acq1_masked	1	24	0	0	300	300	0	0	650	46	0	1	0	0	0	1	blank2r.bmp	0	1	+	0	8	C4r.bmp	492	1	blank2r.bmp	786	1	GKQX	786	1	blank2r.bmp	866	3	faul	866	0	0	0	0	0	0	0	0	0	0	0	0	0	0	0	0	0	0	0	0	0	0	0	0	0	0	0	0	0	0	0	0	0
012419	16:23:02	16:26:45	221561	5.0.10.0	4_exp_EVA_AMP_AWA_CON	90	Rpleas_acq	Same	Rpleas	Bmasked	CS_B	1pleas	distractor2	EVAbeforeCON	acq_new_unple_masked	acq1_masked	1	25	0	0	300	300	0	0	808	46	0	1	0	0	0	1	blank2r.bmp	0	1	+	0	1	B1r.bmp	492	1	blank2r.bmp	786	8	C4r.bmp	786	1	blank2r.bmp	866	4	fanatisch	866	0	0	0	0	0	0	0	0	0	0	0	0	0	0	0	0	0	0	0	0	0	0	0	0	0	0	0	0	0	0	0	0	0
012419	16:23:02	16:26:47	223720	5.0.10.0	4_exp_EVA_AMP_AWA_CON	90	Rpleas_acq	Same	Rpleas	Bmasked	CS_B	1pleas	distractor2	EVAbeforeCON	acq_new_unple_masked	acq1_masked	1	26	0	0	300	300	0	0	671	46	0	1	0	0	0	1	blank2r.bmp	0	1	+	0	7	C3r.bmp	492	1	blank2r.bmp	786	5	C1r.bmp	786	1	blank2r.bmp	866	3	hindern	866	0	0	0	0	0	0	0	0	0	0	0	0	0	0	0	0	0	0	0	0	0	0	0	0	0	0	0	0	0	0	0	0	0
012419	16:23:02	16:26:49	225893	5.0.10.0	4_exp_EVA_AMP_AWA_CON	90	Rpleas_acq	Same	Rpleas	Bmasked	CS_B	1pleas	distractor2	EVAbeforeCON	acq_US_unple_masked	acq1_masked	1	27	0	0	300	300	0	0	688	46	0	1	0	0	0	1	blank2r.bmp	0	1	+	0	4	B4r.bmp	492	1	blank2r.bmp	786	1	GKQX	786	1	blank2r.bmp	866	6	rächen	866	0	0	0	0	0	0	0	0	0	0	0	0	0	0	0	0	0	0	0	0	0	0	0	0	0	0	0	0	0	0	0	0	0
012419	16:23:02	16:26:51	228332	5.0.10.0	4_exp_EVA_AMP_AWA_CON	90	Rpleas_acq	Same	Rpleas	Bmasked	CS_B	1pleas	distractor2	EVAbeforeCON	acq_US_pleas_masked	acq1_masked	1	28	0	0	300	300	0	0	970	50	0	1	0	0	0	1	blank2r.bmp	0	1	+	0	5	C1r.bmp	492	1	blank2r.bmp	786	1	BMVZ	786	1	blank2r.bmp	866	6	retten	866	0	0	0	0	0	0	0	0	0	0	0	0	0	0	0	0	0	0	0	0	0	0	0	0	0	0	0	0	0	0	0	0	0
012419	16:23:02	16:26:54	230598	5.0.10.0	4_exp_EVA_AMP_AWA_CON	90	Rpleas_acq	Same	Rpleas	Bmasked	CS_B	1pleas	distractor2	EVAbeforeCON	acq_new_pleas_masked	acq1_masked	1	29	0	0	300	300	0	0	784	50	0	1	0	0	0	1	blank2r.bmp	0	1	+	0	3	B3r.bmp	492	1	blank2r.bmp	786	7	C3r.bmp	786	1	blank2r.bmp	866	1	treu	866	0	0	0	0	0	0	0	0	0	0	0	0	0	0	0	0	0	0	0	0	0	0	0	0	0	0	0	0	0	0	0	0	0
012419	16:23:02	16:26:56	233410	5.0.10.0	4_exp_EVA_AMP_AWA_CON	90	Rpleas_acq	Same	Rpleas	Bmasked	CS_B	1pleas	distractor2	EVAbeforeCON	acq_new_pleas_masked	acq1_masked	1	30	0	0	300	300	0	0	1322	50	0	1	0	0	0	1	blank2r.bmp	0	1	+	0	8	C4r.bmp	492	1	blank2r.bmp	786	3	B3r.bmp	786	1	blank2r.bmp	866	5	tolerant	866	0	0	0	0	0	0	0	0	0	0	0	0	0	0	0	0	0	0	0	0	0	0	0	0	0	0	0	0	0	0	0	0	0
012419	16:23:02	16:26:58	235462	5.0.10.0	4_exp_EVA_AMP_AWA_CON	90	Rpleas_acq	Same	Rpleas	Bmasked	CS_B	1pleas	distractor2	EVAbeforeCON	acq_US_unple_masked	acq1_masked	1	31	0	0	300	300	0	0	576	46	0	1	0	0	0	1	blank2r.bmp	0	1	+	0	2	B2r.bmp	492	1	blank2r.bmp	786	1	GKQX	786	1	blank2r.bmp	866	3	faul	866	0	0	0	0	0	0	0	0	0	0	0	0	0	0	0	0	0	0	0	0	0	0	0	0	0	0	0	0	0	0	0	0	0
012419	16:23:02	16:27:01	237501	5.0.10.0	4_exp_EVA_AMP_AWA_CON	90	Rpleas_acq	Same	Rpleas	Bmasked	CS_B	1pleas	distractor2	EVAbeforeCON	acq_new_pleas_masked	acq1_masked	1	32	0	0	300	300	0	0	561	50	0	1	0	0	0	1	blank2r.bmp	0	1	+	0	6	C2r.bmp	492	1	blank2r.bmp	786	4	B4r.bmp	786	1	blank2r.bmp	866	2	schön	866	0	0	0	0	0	0	0	0	0	0	0	0	0	0	0	0	0	0	0	0	0	0	0	0	0	0	0	0	0	0	0	0	0
012419	16:23:02	16:27:03	239927	5.0.10.0	4_exp_EVA_AMP_AWA_CON	90	Rpleas_acq	Same	Rpleas	Bmasked	CS_B	1pleas	distractor2	EVAbeforeCON	acq_US_pleas_masked	acq1_masked	1	33	0	0	300	300	0	0	949	50	0	1	0	0	0	1	blank2r.bmp	0	1	+	0	8	C4r.bmp	492	1	blank2r.bmp	786	1	BMVZ	786	1	blank2r.bmp	866	4	lachen	866	0	0	0	0	0	0	0	0	0	0	0	0	0	0	0	0	0	0	0	0	0	0	0	0	0	0	0	0	0	0	0	0	0
012419	16:23:02	16:27:05	241980	5.0.10.0	4_exp_EVA_AMP_AWA_CON	90	Rpleas_acq	Same	Rpleas	Bmasked	CS_B	1pleas	distractor2	EVAbeforeCON	acq_new_unple_masked	acq1_masked	1	34	0	0	300	300	0	0	562	46	0	1	0	0	0	1	blank2r.bmp	0	1	+	0	3	B3r.bmp	492	1	blank2r.bmp	786	7	C3r.bmp	786	1	blank2r.bmp	866	5	tyrannisch	866	0	0	0	0	0	0	0	0	0	0	0	0	0	0	0	0	0	0	0	0	0	0	0	0	0	0	0	0	0	0	0	0	0
012419	16:23:02	16:27:07	244125	5.0.10.0	4_exp_EVA_AMP_AWA_CON	90	Rpleas_acq	Same	Rpleas	Bmasked	CS_B	1pleas	distractor2	EVAbeforeCON	acq_US_unple_masked	acq1_masked	1	35	0	0	300	300	0	0	673	46	0	1	0	0	0	1	blank2r.bmp	0	1	+	0	5	C1r.bmp	492	1	blank2r.bmp	786	1	GKQX	786	1	blank2r.bmp	866	4	leiden	866	0	0	0	0	0	0	0	0	0	0	0	0	0	0	0	0	0	0	0	0	0	0	0	0	0	0	0	0	0	0	0	0	0
012419	16:23:02	16:27:09	246258	5.0.10.0	4_exp_EVA_AMP_AWA_CON	90	Rpleas_acq	Same	Rpleas	Bmasked	CS_B	1pleas	distractor2	EVAbeforeCON	acq_US_pleas_masked	acq1_masked	1	36	0	0	300	300	0	0	649	50	0	1	0	0	0	1	blank2r.bmp	0	1	+	0	7	C3r.bmp	492	1	blank2r.bmp	786	1	BMVZ	786	1	blank2r.bmp	866	2	schlau	866	0	0	0	0	0	0	0	0	0	0	0	0	0	0	0	0	0	0	0	0	0	0	0	0	0	0	0	0	0	0	0	0	0
012419	16:23:02	16:28:32	328677	5.0.10.0	4_exp_EVA_AMP_AWA_CON	90	Rpleas_acq	Same	Rpleas	Bmasked	CS_B	1pleas	distractor2	EVAbeforeCON	acq_US_unple_masked	acq2_masked	2	1	480	0	300	300	0	0	3068	50	0	0	0	0	0	1	blank2r.bmp	0	1	+	0	6	C2r.bmp	492	1	blank2r.bmp	786	1	GKQX	786	1	blank2r.bmp	866	2	schroff	866	1	FEHLER	4278	1	!	1319	1	!	-1	0	0	0	0	0	0	0	0	0	0	0	0	0	0	0	0	0	0	0	0	0	0	0	0
012419	16:23:02	16:28:34	330770	5.0.10.0	4_exp_EVA_AMP_AWA_CON	90	Rpleas_acq	Same	Rpleas	Bmasked	CS_B	1pleas	distractor2	EVAbeforeCON	acq_US_pleas_masked	acq2_masked	2	2	480	1	300	300	0	0	509	50	0	1	0	0	0	1	blank2r.bmp	0	1	+	0	4	B4r.bmp	492	1	blank2r.bmp	786	1	BMVZ	786	1	blank2r.bmp	866	5	spielen	866	1	!	1319	1	!	1412	0	0	0	0	0	0	0	0	0	0	0	0	0	0	0	0	0	0	0	0	0	0	0	0	0	0	0
012419	16:23:02	16:28:36	333075	5.0.10.0	4_exp_EVA_AMP_AWA_CON	90	Rpleas_acq	Same	Rpleas	Bmasked	CS_B	1pleas	distractor2	EVAbeforeCON	acq_US_pleas_masked	acq2_masked	2	3	480	1	300	300	0	0	518	50	0	1	0	0	0	1	blank2r.bmp	0	1	+	0	1	B1r.bmp	492	1	blank2r.bmp	786	1	BMVZ	786	1	blank2r.bmp	866	3	fair	866	1	!	1319	1	!	1412	0	0	0	0	0	0	0	0	0	0	0	0	0	0	0	0	0	0	0	0	0	0	0	0	0	0	0
012419	16:23:02	16:28:38	335421	5.0.10.0	4_exp_EVA_AMP_AWA_CON	90	Rpleas_acq	Same	Rpleas	Bmasked	CS_B	1pleas	distractor2	EVAbeforeCON	acq_new_pleas_masked	acq2_masked	2	4	480	0	300	300	0	0	559	50	0	1	0	0	0	1	blank2r.bmp	0	1	+	0	2	B2r.bmp	492	1	blank2r.bmp	786	8	C4r.bmp	786	1	blank2r.bmp	866	4	freundlich	866	1	!	1319	1	!	-1	0	0	0	0	0	0	0	0	0	0	0	0	0	0	0	0	0	0	0	0	0	0	0	0	0	0	0
012419	16:23:02	16:28:41	337700	5.0.10.0	4_exp_EVA_AMP_AWA_CON	90	Rpleas_acq	Same	Rpleas	Bmasked	CS_B	1pleas	distractor2	EVAbeforeCON	acq_new_unple_masked	acq2_masked	2	5	480	1	300	300	0	0	477	46	0	1	0	0	0	1	blank2r.bmp	0	1	+	0	7	C3r.bmp	492	1	blank2r.bmp	786	6	C2r.bmp	786	1	blank2r.bmp	866	1	tot	866	1	!	1319	1	!	1372	0	0	0	0	0	0	0	0	0	0	0	0	0	0	0	0	0	0	0	0	0	0	0	0	0	0	0
012419	16:23:02	16:28:43	340139	5.0.10.0	4_exp_EVA_AMP_AWA_CON	90	Rpleas_acq	Same	Rpleas	Bmasked	CS_B	1pleas	distractor2	EVAbeforeCON	acq_new_pleas_masked	acq2_masked	2	6	480	1	300	300	0	0	426	46	0	0	0	0	0	1	blank2r.bmp	0	1	+	0	8	C4r.bmp	492	1	blank2r.bmp	786	5	C1r.bmp	786	1	blank2r.bmp	866	6	loyal	866	1	FEHLER	1652	1	!	1319	1	!	1332	0	0	0	0	0	0	0	0	0	0	0	0	0	0	0	0	0	0	0	0	0	0	0	0
012419	16:23:02	16:28:45	342085	5.0.10.0	4_exp_EVA_AMP_AWA_CON	90	Rpleas_acq	Same	Rpleas	Bmasked	CS_B	1pleas	distractor2	EVAbeforeCON	acq_new_pleas_masked	acq2_masked	2	7	480	0	300	300	0	0	389	50	0	1	0	0	0	1	blank2r.bmp	0	1	+	0	6	C2r.bmp	492	1	blank2r.bmp	786	2	B2r.bmp	786	1	blank2r.bmp	866	3	helfen	866	1	!	-1	1	!	-1	0	0	0	0	0	0	0	0	0	0	0	0	0	0	0	0	0	0	0	0	0	0	0	0	0	0	0
012419	16:23:02	16:28:47	344457	5.0.10.0	4_exp_EVA_AMP_AWA_CON	90	Rpleas_acq	Same	Rpleas	Bmasked	CS_B	1pleas	distractor2	EVAbeforeCON	acq_US_unple_masked	acq2_masked	2	8	480	0	300	300	0	0	595	46	0	1	0	0	0	1	blank2r.bmp	0	1	+	0	5	C1r.bmp	492	1	blank2r.bmp	786	1	GKQX	786	1	blank2r.bmp	866	5	strafen	866	1	!	1319	1	!	-1	0	0	0	0	0	0	0	0	0	0	0	0	0	0	0	0	0	0	0	0	0	0	0	0	0	0	0
012419	16:23:02	16:28:50	346750	5.0.10.0	4_exp_EVA_AMP_AWA_CON	90	Rpleas_acq	Same	Rpleas	Bmasked	CS_B	1pleas	distractor2	EVAbeforeCON	acq_new_unple_masked	acq2_masked	2	9	480	1	300	300	0	0	479	46	0	1	0	0	0	1	blank2r.bmp	0	1	+	0	2	B2r.bmp	492	1	blank2r.bmp	786	3	B3r.bmp	786	1	blank2r.bmp	866	6	lasch	866	1	!	1319	1	!	1386	0	0	0	0	0	0	0	0	0	0	0	0	0	0	0	0	0	0	0	0	0	0	0	0	0	0	0
012419	16:23:02	16:28:52	349189	5.0.10.0	4_exp_EVA_AMP_AWA_CON	90	Rpleas_acq	Same	Rpleas	Bmasked	CS_B	1pleas	distractor2	EVAbeforeCON	acq_US_unple_masked	acq2_masked	2	10	480	1	300	300	0	0	426	50	0	0	0	0	0	1	blank2r.bmp	0	1	+	0	4	B4r.bmp	492	1	blank2r.bmp	786	1	GKQX	786	1	blank2r.bmp	866	1	eitel	866	1	FEHLER	1652	1	!	1319	1	!	1332	0	0	0	0	0	0	0	0	0	0	0	0	0	0	0	0	0	0	0	0	0	0	0	0
012419	16:23:02	16:28:54	351335	5.0.10.0	4_exp_EVA_AMP_AWA_CON	90	Rpleas_acq	Same	Rpleas	Bmasked	CS_B	1pleas	distractor2	EVAbeforeCON	acq_US_pleas_masked	acq2_masked	2	11	480	0	300	300	0	0	587	50	0	1	0	0	0	1	blank2r.bmp	0	1	+	0	1	B1r.bmp	492	1	blank2r.bmp	786	1	BMVZ	786	1	blank2r.bmp	866	1	ehrlich	866	1	!	1319	1	!	-1	0	0	0	0	0	0	0	0	0	0	0	0	0	0	0	0	0	0	0	0	0	0	0	0	0	0	0
012419	16:23:02	16:28:57	353654	5.0.10.0	4_exp_EVA_AMP_AWA_CON	90	Rpleas_acq	Same	Rpleas	Bmasked	CS_B	1pleas	distractor2	EVAbeforeCON	acq_new_unple_masked	acq2_masked	2	12	480	1	300	300	0	0	510	46	0	1	0	0	0	1	blank2r.bmp	0	1	+	0	3	B3r.bmp	492	1	blank2r.bmp	786	1	B1r.bmp	786	1	blank2r.bmp	866	2	schlecht	866	1	!	1319	1	!	1412	0	0	0	0	0	0	0	0	0	0	0	0	0	0	0	0	0	0	0	0	0	0	0	0	0	0	0
012419	16:23:02	16:28:59	355946	5.0.10.0	4_exp_EVA_AMP_AWA_CON	90	Rpleas_acq	Same	Rpleas	Bmasked	CS_B	1pleas	distractor2	EVAbeforeCON	acq_new_unple_masked	acq2_masked	2	13	480	1	300	300	0	0	498	46	0	1	0	0	0	1	blank2r.bmp	0	1	+	0	7	C3r.bmp	492	1	blank2r.bmp	786	6	C2r.bmp	786	1	blank2r.bmp	866	4	fanatisch	866	1	!	1319	1	!	1399	0	0	0	0	0	0	0	0	0	0	0	0	0	0	0	0	0	0	0	0	0	0	0	0	0	0	0
012419	16:23:02	16:29:01	358225	5.0.10.0	4_exp_EVA_AMP_AWA_CON	90	Rpleas_acq	Same	Rpleas	Bmasked	CS_B	1pleas	distractor2	EVAbeforeCON	acq_new_pleas_masked	acq2_masked	2	14	480	1	300	300	0	0	466	50	0	1	0	0	0	1	blank2r.bmp	0	1	+	0	6	C2r.bmp	492	1	blank2r.bmp	786	7	C3r.bmp	786	1	blank2r.bmp	866	4	freundlich	866	1	!	1319	1	!	1372	0	0	0	0	0	0	0	0	0	0	0	0	0	0	0	0	0	0	0	0	0	0	0	0	0	0	0
012419	16:23:02	16:29:04	360504	5.0.10.0	4_exp_EVA_AMP_AWA_CON	90	Rpleas_acq	Same	Rpleas	Bmasked	CS_B	1pleas	distractor2	EVAbeforeCON	acq_new_unple_masked	acq2_masked	2	15	480	1	300	300	0	0	483	46	0	1	0	0	0	1	blank2r.bmp	0	1	+	0	2	B2r.bmp	492	1	blank2r.bmp	786	3	B3r.bmp	786	1	blank2r.bmp	866	1	tot	866	1	!	1319	1	!	1386	0	0	0	0	0	0	0	0	0	0	0	0	0	0	0	0	0	0	0	0	0	0	0	0	0	0	0
012419	16:23:02	16:29:06	362650	5.0.10.0	4_exp_EVA_AMP_AWA_CON	90	Rpleas_acq	Same	Rpleas	Bmasked	CS_B	1pleas	distractor2	EVAbeforeCON	acq_US_pleas_masked	acq2_masked	2	16	480	0	300	300	0	0	380	50	0	1	0	0	0	1	blank2r.bmp	0	1	+	0	8	C4r.bmp	492	1	blank2r.bmp	786	1	BMVZ	786	1	blank2r.bmp	866	3	fair	866	1	!	-1	1	!	-1	0	0	0	0	0	0	0	0	0	0	0	0	0	0	0	0	0	0	0	0	0	0	0	0	0	0	0
012419	16:23:02	16:29:10	367195	5.0.10.0	4_exp_EVA_AMP_AWA_CON	90	Rpleas_acq	Same	Rpleas	Bmasked	CS_B	1pleas	distractor2	EVAbeforeCON	acq_US_unple_masked	acq2_masked	2	17	480	0	300	300	0	0	2767	46	0	1	0	0	0	1	blank2r.bmp	0	1	+	0	3	B3r.bmp	492	1	blank2r.bmp	786	1	GKQX	786	1	blank2r.bmp	866	2	schroff	866	1	!	1319	1	!	-1	0	0	0	0	0	0	0	0	0	0	0	0	0	0	0	0	0	0	0	0	0	0	0	0	0	0	0
012419	16:23:02	16:29:13	369740	5.0.10.0	4_exp_EVA_AMP_AWA_CON	90	Rpleas_acq	Same	Rpleas	Bmasked	CS_B	1pleas	distractor2	EVAbeforeCON	acq_new_pleas_masked	acq2_masked	2	18	480	1	300	300	0	0	515	46	0	0	0	0	0	1	blank2r.bmp	0	1	+	0	5	C1r.bmp	492	1	blank2r.bmp	786	2	B2r.bmp	786	1	blank2r.bmp	866	3	helfen	866	1	FEHLER	1732	1	!	1319	1	!	1412	0	0	0	0	0	0	0	0	0	0	0	0	0	0	0	0	0	0	0	0	0	0	0	0
012419	16:23:02	16:29:15	372019	5.0.10.0	4_exp_EVA_AMP_AWA_CON	90	Rpleas_acq	Same	Rpleas	Bmasked	CS_B	1pleas	distractor2	EVAbeforeCON	acq_new_unple_masked	acq2_masked	2	19	480	0	300	300	0	0	729	46	0	1	0	0	0	1	blank2r.bmp	0	1	+	0	4	B4r.bmp	492	1	blank2r.bmp	786	1	B1r.bmp	786	1	blank2r.bmp	866	3	hindern	866	1	!	1319	1	!	-1	0	0	0	0	0	0	0	0	0	0	0	0	0	0	0	0	0	0	0	0	0	0	0	0	0	0	0
012419	16:23:02	16:29:17	374272	5.0.10.0	4_exp_EVA_AMP_AWA_CON	90	Rpleas_acq	Same	Rpleas	Bmasked	CS_B	1pleas	distractor2	EVAbeforeCON	acq_US_unple_masked	acq2_masked	2	20	480	1	300	300	0	0	447	46	0	1	0	0	0	1	blank2r.bmp	0	1	+	0	1	B1r.bmp	492	1	blank2r.bmp	786	1	GKQX	786	1	blank2r.bmp	866	5	strafen	866	1	!	1319	1	!	1346	0	0	0	0	0	0	0	0	0	0	0	0	0	0	0	0	0	0	0	0	0	0	0	0	0	0	0
012419	16:23:02	16:29:20	376737	5.0.10.0	4_exp_EVA_AMP_AWA_CON	90	Rpleas_acq	Same	Rpleas	Bmasked	CS_B	1pleas	distractor2	EVAbeforeCON	acq_US_unple_masked	acq2_masked	2	21	480	1	300	300	0	0	463	50	0	0	0	0	0	1	blank2r.bmp	0	1	+	0	4	B4r.bmp	492	1	blank2r.bmp	786	1	GKQX	786	1	blank2r.bmp	866	6	rächen	866	1	FEHLER	1679	1	!	1319	1	!	1359	0	0	0	0	0	0	0	0	0	0	0	0	0	0	0	0	0	0	0	0	0	0	0	0
012419	16:23:02	16:29:22	378803	5.0.10.0	4_exp_EVA_AMP_AWA_CON	90	Rpleas_acq	Same	Rpleas	Bmasked	CS_B	1pleas	distractor2	EVAbeforeCON	acq_new_pleas_masked	acq2_masked	2	22	480	1	300	300	0	0	490	50	0	1	0	0	0	1	blank2r.bmp	0	1	+	0	7	C3r.bmp	492	1	blank2r.bmp	786	8	C4r.bmp	786	1	blank2r.bmp	866	2	schön	866	1	!	1319	1	!	1386	0	0	0	0	0	0	0	0	0	0	0	0	0	0	0	0	0	0	0	0	0	0	0	0	0	0	0
012419	16:23:02	16:29:24	380976	5.0.10.0	4_exp_EVA_AMP_AWA_CON	90	Rpleas_acq	Same	Rpleas	Bmasked	CS_B	1pleas	distractor2	EVAbeforeCON	acq_US_pleas_masked	acq2_masked	2	23	480	0	300	300	0	0	405	50	0	1	0	0	0	1	blank2r.bmp	0	1	+	0	3	B3r.bmp	492	1	blank2r.bmp	786	1	BMVZ	786	1	blank2r.bmp	866	1	ehrlich	866	1	!	-1	1	!	-1	0	0	0	0	0	0	0	0	0	0	0	0	0	0	0	0	0	0	0	0	0	0	0	0	0	0	0
012419	16:23:02	16:29:26	383281	5.0.10.0	4_exp_EVA_AMP_AWA_CON	90	Rpleas_acq	Same	Rpleas	Bmasked	CS_B	1pleas	distractor2	EVAbeforeCON	acq_US_pleas_masked	acq2_masked	2	24	480	1	300	300	0	0	493	50	0	1	0	0	0	1	blank2r.bmp	0	1	+	0	1	B1r.bmp	492	1	blank2r.bmp	786	1	BMVZ	786	1	blank2r.bmp	866	5	spielen	866	1	!	1319	1	!	1399	0	0	0	0	0	0	0	0	0	0	0	0	0	0	0	0	0	0	0	0	0	0	0	0	0	0	0
012419	16:23:02	16:29:29	385814	5.0.10.0	4_exp_EVA_AMP_AWA_CON	90	Rpleas_acq	Same	Rpleas	Bmasked	CS_B	1pleas	distractor2	EVAbeforeCON	acq_new_unple_masked	acq2_masked	2	25	480	1	300	300	0	0	519	50	0	0	0	0	0	1	blank2r.bmp	0	1	+	0	8	C4r.bmp	492	1	blank2r.bmp	786	5	C1r.bmp	786	1	blank2r.bmp	866	6	lasch	866	1	FEHLER	1745	1	!	1319	1	!	1426	0	0	0	0	0	0	0	0	0	0	0	0	0	0	0	0	0	0	0	0	0	0	0	0
012419	16:23:02	16:29:31	388013	5.0.10.0	4_exp_EVA_AMP_AWA_CON	90	Rpleas_acq	Same	Rpleas	Bmasked	CS_B	1pleas	distractor2	EVAbeforeCON	acq_new_unple_masked	acq2_masked	2	26	480	0	300	300	0	0	630	46	0	1	0	0	0	1	blank2r.bmp	0	1	+	0	5	C1r.bmp	492	1	blank2r.bmp	786	4	B4r.bmp	786	1	blank2r.bmp	866	5	tyrannisch	866	1	!	1319	1	!	-1	0	0	0	0	0	0	0	0	0	0	0	0	0	0	0	0	0	0	0	0	0	0	0	0	0	0	0
012419	16:23:02	16:29:33	390358	5.0.10.0	4_exp_EVA_AMP_AWA_CON	90	Rpleas_acq	Same	Rpleas	Bmasked	CS_B	1pleas	distractor2	EVAbeforeCON	acq_US_pleas_masked	acq2_masked	2	27	480	0	300	300	0	0	339	46	0	0	0	0	0	1	blank2r.bmp	0	1	+	0	6	C2r.bmp	492	1	blank2r.bmp	786	1	BMVZ	786	1	blank2r.bmp	866	2	schlau	866	1	FEHLER	1546	1	!	-1	1	!	-1	0	0	0	0	0	0	0	0	0	0	0	0	0	0	0	0	0	0	0	0	0	0	0	0
012419	16:23:02	16:29:36	392478	5.0.10.0	4_exp_EVA_AMP_AWA_CON	90	Rpleas_acq	Same	Rpleas	Bmasked	CS_B	1pleas	distractor2	EVAbeforeCON	acq_US_unple_masked	acq2_masked	2	28	480	0	300	300	0	0	561	46	0	1	0	0	0	1	blank2r.bmp	0	1	+	0	2	B2r.bmp	492	1	blank2r.bmp	786	1	GKQX	786	1	blank2r.bmp	866	4	leiden	866	1	!	1319	1	!	-1	0	0	0	0	0	0	0	0	0	0	0	0	0	0	0	0	0	0	0	0	0	0	0	0	0	0	0
012419	16:23:02	16:29:38	394743	5.0.10.0	4_exp_EVA_AMP_AWA_CON	90	Rpleas_acq	Same	Rpleas	Bmasked	CS_B	1pleas	distractor2	EVAbeforeCON	acq_US_pleas_masked	acq2_masked	2	29	480	1	300	300	0	0	459	50	0	1	0	0	0	1	blank2r.bmp	0	1	+	0	6	C2r.bmp	492	1	blank2r.bmp	786	1	BMVZ	786	1	blank2r.bmp	866	6	retten	866	1	!	1319	1	!	1359	0	0	0	0	0	0	0	0	0	0	0	0	0	0	0	0	0	0	0	0	0	0	0	0	0	0	0
012419	16:23:02	16:29:40	397289	5.0.10.0	4_exp_EVA_AMP_AWA_CON	90	Rpleas_acq	Same	Rpleas	Bmasked	CS_B	1pleas	distractor2	EVAbeforeCON	acq_new_pleas_masked	acq2_masked	2	30	480	1	300	300	0	0	528	46	0	0	0	0	0	1	blank2r.bmp	0	1	+	0	1	B1r.bmp	492	1	blank2r.bmp	786	6	C2r.bmp	786	1	blank2r.bmp	866	5	tolerant	866	1	FEHLER	1745	1	!	1319	1	!	1426	0	0	0	0	0	0	0	0	0	0	0	0	0	0	0	0	0	0	0	0	0	0	0	0
012419	16:23:02	16:29:42	399408	5.0.10.0	4_exp_EVA_AMP_AWA_CON	90	Rpleas_acq	Same	Rpleas	Bmasked	CS_B	1pleas	distractor2	EVAbeforeCON	acq_US_unple_masked	acq2_masked	2	31	480	1	300	300	0	0	540	46	0	1	0	0	0	1	blank2r.bmp	0	1	+	0	4	B4r.bmp	492	1	blank2r.bmp	786	1	GKQX	786	1	blank2r.bmp	866	3	faul	866	1	!	1319	1	!	1439	0	0	0	0	0	0	0	0	0	0	0	0	0	0	0	0	0	0	0	0	0	0	0	0	0	0	0
012419	16:23:02	16:29:45	401780	5.0.10.0	4_exp_EVA_AMP_AWA_CON	90	Rpleas_acq	Same	Rpleas	Bmasked	CS_B	1pleas	distractor2	EVAbeforeCON	acq_US_unple_masked	acq2_masked	2	32	480	0	300	300	0	0	378	50	0	0	0	0	0	1	blank2r.bmp	0	1	+	0	2	B2r.bmp	492	1	blank2r.bmp	786	1	GKQX	786	1	blank2r.bmp	866	1	eitel	866	1	FEHLER	1586	1	!	-1	1	!	-1	0	0	0	0	0	0	0	0	0	0	0	0	0	0	0	0	0	0	0	0	0	0	0	0
012419	16:23:02	16:29:47	403886	5.0.10.0	4_exp_EVA_AMP_AWA_CON	90	Rpleas_acq	Same	Rpleas	Bmasked	CS_B	1pleas	distractor2	EVAbeforeCON	acq_new_unple_masked	acq2_masked	2	33	480	1	300	300	0	0	525	46	0	1	0	0	0	1	blank2r.bmp	0	1	+	0	3	B3r.bmp	492	1	blank2r.bmp	786	5	C1r.bmp	786	1	blank2r.bmp	866	2	schlecht	866	1	!	1319	1	!	1426	0	0	0	0	0	0	0	0	0	0	0	0	0	0	0	0	0	0	0	0	0	0	0	0	0	0	0
012419	16:23:02	16:29:49	406379	5.0.10.0	4_exp_EVA_AMP_AWA_CON	90	Rpleas_acq	Same	Rpleas	Bmasked	CS_B	1pleas	distractor2	EVAbeforeCON	acq_new_pleas_masked	acq2_masked	2	34	480	0	300	300	0	0	723	50	0	1	0	0	0	1	blank2r.bmp	0	1	+	0	8	C4r.bmp	492	1	blank2r.bmp	786	7	C3r.bmp	786	1	blank2r.bmp	866	6	loyal	866	1	!	1319	1	!	-1	0	0	0	0	0	0	0	0	0	0	0	0	0	0	0	0	0	0	0	0	0	0	0	0	0	0	0
012419	16:23:02	16:29:52	408844	5.0.10.0	4_exp_EVA_AMP_AWA_CON	90	Rpleas_acq	Same	Rpleas	Bmasked	CS_B	1pleas	distractor2	EVAbeforeCON	acq_US_pleas_masked	acq2_masked	2	35	480	1	300	300	0	0	447	46	0	0	0	0	0	1	blank2r.bmp	0	1	+	0	5	C1r.bmp	492	1	blank2r.bmp	786	1	BMVZ	786	1	blank2r.bmp	866	4	lachen	866	1	FEHLER	1665	1	!	1319	1	!	1346	0	0	0	0	0	0	0	0	0	0	0	0	0	0	0	0	0	0	0	0	0	0	0	0
012419	16:23:02	16:29:54	411030	5.0.10.0	4_exp_EVA_AMP_AWA_CON	90	Rpleas_acq	Same	Rpleas	Bmasked	CS_B	1pleas	distractor2	EVAbeforeCON	acq_new_pleas_masked	acq2_masked	2	36	480	0	300	300	0	0	402	46	0	0	0	0	0	1	blank2r.bmp	0	1	+	0	7	C3r.bmp	492	1	blank2r.bmp	786	8	C4r.bmp	786	1	blank2r.bmp	866	1	treu	866	1	FEHLER	1612	1	!	-1	1	!	-1	0	0	0	0	0	0	0	0	0	0	0	0	0	0	0	0	0	0	0	0	0	0	0	0
012419	16:23:02	16:30:18	434927	5.0.10.0	4_exp_EVA_AMP_AWA_CON	90	Rpleas_acq	Same	Rpleas	Bmasked	CS_B	1pleas	distractor2	EVAbeforeCON	acq_US_pleas_masked	acq3_masked	3	1	453	1	300	300	0	0	467	50	0	1	0	0	0	1	blank2r.bmp	0	1	+	0	4	B4r.bmp	492	1	blank2r.bmp	786	1	BMVZ	786	1	blank2r.bmp	866	1	ehrlich	866	1	!	1292	1	!	1372	0	0	0	0	0	0	0	0	0	0	0	0	0	0	0	0	0	0	0	0	0	0	0	0	0	0	0
012419	16:23:02	16:30:20	437152	5.0.10.0	4_exp_EVA_AMP_AWA_CON	90	Rpleas_acq	Same	Rpleas	Bmasked	CS_B	1pleas	distractor2	EVAbeforeCON	acq_US_pleas_masked	acq3_masked	3	2	453	1	300	300	0	0	423	50	0	1	0	0	0	1	blank2r.bmp	0	1	+	0	1	B1r.bmp	492	1	blank2r.bmp	786	1	BMVZ	786	1	blank2r.bmp	866	4	lachen	866	1	!	1292	1	!	1319	0	0	0	0	0	0	0	0	0	0	0	0	0	0	0	0	0	0	0	0	0	0	0	0	0	0	0
012419	16:23:02	16:30:22	439378	5.0.10.0	4_exp_EVA_AMP_AWA_CON	90	Rpleas_acq	Same	Rpleas	Bmasked	CS_B	1pleas	distractor2	EVAbeforeCON	acq_US_unple_masked	acq3_masked	3	3	453	1	300	300	0	0	429	46	0	1	0	0	0	1	blank2r.bmp	0	1	+	0	6	C2r.bmp	492	1	blank2r.bmp	786	1	GKQX	786	1	blank2r.bmp	866	6	rächen	866	1	!	1292	1	!	1332	0	0	0	0	0	0	0	0	0	0	0	0	0	0	0	0	0	0	0	0	0	0	0	0	0	0	0
012419	16:23:02	16:30:25	441791	5.0.10.0	4_exp_EVA_AMP_AWA_CON	90	Rpleas_acq	Same	Rpleas	Bmasked	CS_B	1pleas	distractor2	EVAbeforeCON	acq_US_unple_masked	acq3_masked	3	4	453	1	300	300	0	0	399	50	0	0	0	0	0	1	blank2r.bmp	0	1	+	0	2	B2r.bmp	492	1	blank2r.bmp	786	1	GKQX	786	1	blank2r.bmp	866	1	eitel	866	1	FEHLER	1625	1	!	1292	1	!	1306	0	0	0	0	0	0	0	0	0	0	0	0	0	0	0	0	0	0	0	0	0	0	0	0
012419	16:23:02	16:30:27	443870	5.0.10.0	4_exp_EVA_AMP_AWA_CON	90	Rpleas_acq	Same	Rpleas	Bmasked	CS_B	1pleas	distractor2	EVAbeforeCON	acq_US_unple_masked	acq3_masked	3	5	453	1	300	300	0	0	500	46	0	1	0	0	0	1	blank2r.bmp	0	1	+	0	7	C3r.bmp	492	1	blank2r.bmp	786	1	GKQX	786	1	blank2r.bmp	866	4	leiden	866	1	!	1292	1	!	1399	0	0	0	0	0	0	0	0	0	0	0	0	0	0	0	0	0	0	0	0	0	0	0	0	0	0	0
012419	16:23:02	16:30:29	446122	5.0.10.0	4_exp_EVA_AMP_AWA_CON	90	Rpleas_acq	Same	Rpleas	Bmasked	CS_B	1pleas	distractor2	EVAbeforeCON	acq_US_pleas_masked	acq3_masked	3	6	453	1	300	300	0	0	455	50	0	1	0	0	0	1	blank2r.bmp	0	1	+	0	8	C4r.bmp	492	1	blank2r.bmp	786	1	BMVZ	786	1	blank2r.bmp	866	6	retten	866	1	!	1292	1	!	1359	0	0	0	0	0	0	0	0	0	0	0	0	0	0	0	0	0	0	0	0	0	0	0	0	0	0	0
012419	16:23:02	16:30:31	448428	5.0.10.0	4_exp_EVA_AMP_AWA_CON	90	Rpleas_acq	Same	Rpleas	Bmasked	CS_B	1pleas	distractor2	EVAbeforeCON	acq_US_unple_masked	acq3_masked	3	7	453	1	300	300	0	0	518	46	0	1	0	0	0	1	blank2r.bmp	0	1	+	0	5	C1r.bmp	492	1	blank2r.bmp	786	1	GKQX	786	1	blank2r.bmp	866	2	schroff	866	1	!	1292	1	!	1412	0	0	0	0	0	0	0	0	0	0	0	0	0	0	0	0	0	0	0	0	0	0	0	0	0	0	0
012419	16:23:02	16:30:34	450627	5.0.10.0	4_exp_EVA_AMP_AWA_CON	90	Rpleas_acq	Same	Rpleas	Bmasked	CS_B	1pleas	distractor2	EVAbeforeCON	acq_US_pleas_masked	acq3_masked	3	8	453	1	300	300	0	0	410	50	0	1	0	0	0	1	blank2r.bmp	0	1	+	0	3	B3r.bmp	492	1	blank2r.bmp	786	1	BMVZ	786	1	blank2r.bmp	866	2	schlau	866	1	!	1292	1	!	1306	0	0	0	0	0	0	0	0	0	0	0	0	0	0	0	0	0	0	0	0	0	0	0	0	0	0	0
012419	16:23:02	16:30:36	452839	5.0.10.0	4_exp_EVA_AMP_AWA_CON	90	Rpleas_acq	Same	Rpleas	Bmasked	CS_B	1pleas	distractor2	EVAbeforeCON	acq_US_pleas_masked	acq3_masked	3	9	453	1	300	300	0	0	416	50	0	1	0	0	0	1	blank2r.bmp	0	1	+	0	6	C2r.bmp	492	1	blank2r.bmp	786	1	BMVZ	786	1	blank2r.bmp	866	5	spielen	866	1	!	1292	1	!	1319	0	0	0	0	0	0	0	0	0	0	0	0	0	0	0	0	0	0	0	0	0	0	0	0	0	0	0
012419	16:23:02	16:30:38	455092	5.0.10.0	4_exp_EVA_AMP_AWA_CON	90	Rpleas_acq	Same	Rpleas	Bmasked	CS_B	1pleas	distractor2	EVAbeforeCON	acq_US_unple_masked	acq3_masked	3	10	453	1	300	300	0	0	458	46	0	1	0	0	0	1	blank2r.bmp	0	1	+	0	1	B1r.bmp	492	1	blank2r.bmp	786	1	GKQX	786	1	blank2r.bmp	866	5	strafen	866	1	!	1292	1	!	1359	0	0	0	0	0	0	0	0	0	0	0	0	0	0	0	0	0	0	0	0	0	0	0	0	0	0	0
012419	16:23:02	16:30:40	457304	5.0.10.0	4_exp_EVA_AMP_AWA_CON	90	Rpleas_acq	Same	Rpleas	Bmasked	CS_B	1pleas	distractor2	EVAbeforeCON	acq_US_pleas_masked	acq3_masked	3	11	453	1	300	300	0	0	424	50	0	1	0	0	0	1	blank2r.bmp	0	1	+	0	3	B3r.bmp	492	1	blank2r.bmp	786	1	BMVZ	786	1	blank2r.bmp	866	3	fair	866	1	!	1292	1	!	1319	0	0	0	0	0	0	0	0	0	0	0	0	0	0	0	0	0	0	0	0	0	0	0	0	0	0	0
012419	16:23:02	16:30:43	459677	5.0.10.0	4_exp_EVA_AMP_AWA_CON	90	Rpleas_acq	Same	Rpleas	Bmasked	CS_B	1pleas	distractor2	EVAbeforeCON	acq_US_unple_masked	acq3_masked	3	12	453	0	300	300	0	0	604	46	0	1	0	0	0	1	blank2r.bmp	0	1	+	0	8	C4r.bmp	492	1	blank2r.bmp	786	1	GKQX	786	1	blank2r.bmp	866	3	faul	866	1	!	1292	1	!	-1	0	0	0	0	0	0	0	0	0	0	0	0	0	0	0	0	0	0	0	0	0	0	0	0	0	0	0
012419	16:23:02	16:30:45	461916	5.0.10.0	4_exp_EVA_AMP_AWA_CON	90	Rpleas_acq	Same	Rpleas	Bmasked	CS_B	1pleas	distractor2	EVAbeforeCON	acq_US_pleas_masked	acq3_masked	3	13	453	1	300	300	0	0	431	50	0	1	0	0	0	1	blank2r.bmp	0	1	+	0	2	B2r.bmp	492	1	blank2r.bmp	786	1	BMVZ	786	1	blank2r.bmp	866	5	spielen	866	1	!	1292	1	!	1332	0	0	0	0	0	0	0	0	0	0	0	0	0	0	0	0	0	0	0	0	0	0	0	0	0	0	0
012419	16:23:02	16:30:47	464168	5.0.10.0	4_exp_EVA_AMP_AWA_CON	90	Rpleas_acq	Same	Rpleas	Bmasked	CS_B	1pleas	distractor2	EVAbeforeCON	acq_US_pleas_masked	acq3_masked	3	14	453	1	300	300	0	0	445	50	0	1	0	0	0	1	blank2r.bmp	0	1	+	0	7	C3r.bmp	492	1	blank2r.bmp	786	1	BMVZ	786	1	blank2r.bmp	866	1	ehrlich	866	1	!	1292	1	!	1346	0	0	0	0	0	0	0	0	0	0	0	0	0	0	0	0	0	0	0	0	0	0	0	0	0	0	0
012419	16:23:02	16:30:50	466607	5.0.10.0	4_exp_EVA_AMP_AWA_CON	90	Rpleas_acq	Same	Rpleas	Bmasked	CS_B	1pleas	distractor2	EVAbeforeCON	acq_US_pleas_masked	acq3_masked	3	15	453	1	300	300	0	0	432	46	0	0	0	0	0	1	blank2r.bmp	0	1	+	0	4	B4r.bmp	492	1	blank2r.bmp	786	1	BMVZ	786	1	blank2r.bmp	866	6	retten	866	1	FEHLER	1652	1	!	1292	1	!	1332	0	0	0	0	0	0	0	0	0	0	0	0	0	0	0	0	0	0	0	0	0	0	0	0
012419	16:23:02	16:30:52	468606	5.0.10.0	4_exp_EVA_AMP_AWA_CON	90	Rpleas_acq	Same	Rpleas	Bmasked	CS_B	1pleas	distractor2	EVAbeforeCON	acq_US_unple_masked	acq3_masked	3	16	453	1	300	300	0	0	399	46	0	1	0	0	0	1	blank2r.bmp	0	1	+	0	5	C1r.bmp	492	1	blank2r.bmp	786	1	GKQX	786	1	blank2r.bmp	866	1	eitel	866	1	!	1292	1	!	1306	0	0	0	0	0	0	0	0	0	0	0	0	0	0	0	0	0	0	0	0	0	0	0	0	0	0	0
012419	16:23:02	16:30:54	470899	5.0.10.0	4_exp_EVA_AMP_AWA_CON	90	Rpleas_acq	Same	Rpleas	Bmasked	CS_B	1pleas	distractor2	EVAbeforeCON	acq_US_unple_masked	acq3_masked	3	17	453	1	300	300	0	0	481	46	0	1	0	0	0	1	blank2r.bmp	0	1	+	0	7	C3r.bmp	492	1	blank2r.bmp	786	1	GKQX	786	1	blank2r.bmp	866	6	rächen	866	1	!	1292	1	!	1386	0	0	0	0	0	0	0	0	0	0	0	0	0	0	0	0	0	0	0	0	0	0	0	0	0	0	0
012419	16:23:02	16:30:56	473044	5.0.10.0	4_exp_EVA_AMP_AWA_CON	90	Rpleas_acq	Same	Rpleas	Bmasked	CS_B	1pleas	distractor2	EVAbeforeCON	acq_US_pleas_masked	acq3_masked	3	18	453	0	300	300	0	0	375	50	0	1	0	0	0	1	blank2r.bmp	0	1	+	0	5	C1r.bmp	492	1	blank2r.bmp	786	1	BMVZ	786	1	blank2r.bmp	866	4	lachen	866	1	!	-1	1	!	-1	0	0	0	0	0	0	0	0	0	0	0	0	0	0	0	0	0	0	0	0	0	0	0	0	0	0	0
012419	16:23:02	16:30:58	475283	5.0.10.0	4_exp_EVA_AMP_AWA_CON	90	Rpleas_acq	Same	Rpleas	Bmasked	CS_B	1pleas	distractor2	EVAbeforeCON	acq_US_unple_masked	acq3_masked	3	19	453	1	300	300	0	0	429	46	0	1	0	0	0	1	blank2r.bmp	0	1	+	0	2	B2r.bmp	492	1	blank2r.bmp	786	1	GKQX	786	1	blank2r.bmp	866	5	strafen	866	1	!	1292	1	!	1332	0	0	0	0	0	0	0	0	0	0	0	0	0	0	0	0	0	0	0	0	0	0	0	0	0	0	0
012419	16:23:02	16:31:01	477762	5.0.10.0	4_exp_EVA_AMP_AWA_CON	90	Rpleas_acq	Same	Rpleas	Bmasked	CS_B	1pleas	distractor2	EVAbeforeCON	acq_US_pleas_masked	acq3_masked	3	20	453	1	300	300	0	0	468	46	0	0	0	0	0	1	blank2r.bmp	0	1	+	0	1	B1r.bmp	492	1	blank2r.bmp	786	1	BMVZ	786	1	blank2r.bmp	866	2	schlau	866	1	FEHLER	1692	1	!	1292	1	!	1372	0	0	0	0	0	0	0	0	0	0	0	0	0	0	0	0	0	0	0	0	0	0	0	0
012419	16:23:02	16:31:03	479828	5.0.10.0	4_exp_EVA_AMP_AWA_CON	90	Rpleas_acq	Same	Rpleas	Bmasked	CS_B	1pleas	distractor2	EVAbeforeCON	acq_US_unple_masked	acq3_masked	3	21	453	1	300	300	0	0	454	46	0	1	0	0	0	1	blank2r.bmp	0	1	+	0	8	C4r.bmp	492	1	blank2r.bmp	786	1	GKQX	786	1	blank2r.bmp	866	2	schroff	866	1	!	1292	1	!	1359	0	0	0	0	0	0	0	0	0	0	0	0	0	0	0	0	0	0	0	0	0	0	0	0	0	0	0
012419	16:23:02	16:31:05	482081	5.0.10.0	4_exp_EVA_AMP_AWA_CON	90	Rpleas_acq	Same	Rpleas	Bmasked	CS_B	1pleas	distractor2	EVAbeforeCON	acq_US_unple_masked	acq3_masked	3	22	453	1	300	300	0	0	462	46	0	1	0	0	0	1	blank2r.bmp	0	1	+	0	4	B4r.bmp	492	1	blank2r.bmp	786	1	GKQX	786	1	blank2r.bmp	866	3	faul	866	1	!	1292	1	!	1359	0	0	0	0	0	0	0	0	0	0	0	0	0	0	0	0	0	0	0	0	0	0	0	0	0	0	0
012419	16:23:02	16:31:07	484293	5.0.10.0	4_exp_EVA_AMP_AWA_CON	90	Rpleas_acq	Same	Rpleas	Bmasked	CS_B	1pleas	distractor2	EVAbeforeCON	acq_US_pleas_masked	acq3_masked	3	23	453	1	300	300	0	0	420	50	0	1	0	0	0	1	blank2r.bmp	0	1	+	0	3	B3r.bmp	492	1	blank2r.bmp	786	1	BMVZ	786	1	blank2r.bmp	866	3	fair	866	1	!	1292	1	!	1319	0	0	0	0	0	0	0	0	0	0	0	0	0	0	0	0	0	0	0	0	0	0	0	0	0	0	0
012419	16:23:02	16:31:10	486585	5.0.10.0	4_exp_EVA_AMP_AWA_CON	90	Rpleas_acq	Same	Rpleas	Bmasked	CS_B	1pleas	distractor2	EVAbeforeCON	acq_US_unple_masked	acq3_masked	3	24	453	1	300	300	0	0	492	46	0	1	0	0	0	1	blank2r.bmp	0	1	+	0	6	C2r.bmp	492	1	blank2r.bmp	786	1	GKQX	786	1	blank2r.bmp	866	4	leiden	866	1	!	1292	1	!	1399	0	0	0	0	0	0	0	0	0	0	0	0	0	0	0	0	0	0	0	0	0	0	0	0	0	0	0
012419	16:23:02	16:31:12	489024	5.0.10.0	4_exp_EVA_AMP_AWA_CON	90	Rpleas_acq	Same	Rpleas	Bmasked	CS_B	1pleas	distractor2	EVAbeforeCON	acq_US_pleas_masked	acq3_masked	3	25	453	1	300	300	0	0	439	46	0	0	0	0	0	1	blank2r.bmp	0	1	+	0	6	C2r.bmp	492	1	blank2r.bmp	786	1	BMVZ	786	1	blank2r.bmp	866	3	fair	866	1	FEHLER	1665	1	!	1292	1	!	1346	0	0	0	0	0	0	0	0	0	0	0	0	0	0	0	0	0	0	0	0	0	0	0	0
012419	16:23:02	16:31:14	491117	5.0.10.0	4_exp_EVA_AMP_AWA_CON	90	Rpleas_acq	Same	Rpleas	Bmasked	CS_B	1pleas	distractor2	EVAbeforeCON	acq_US_pleas_masked	acq3_masked	3	26	453	1	300	300	0	0	480	50	0	1	0	0	0	1	blank2r.bmp	0	1	+	0	5	C1r.bmp	492	1	blank2r.bmp	786	1	BMVZ	786	1	blank2r.bmp	866	1	ehrlich	866	1	!	1292	1	!	1386	0	0	0	0	0	0	0	0	0	0	0	0	0	0	0	0	0	0	0	0	0	0	0	0	0	0	0
012419	16:23:02	16:31:16	493329	5.0.10.0	4_exp_EVA_AMP_AWA_CON	90	Rpleas_acq	Same	Rpleas	Bmasked	CS_B	1pleas	distractor2	EVAbeforeCON	acq_US_unple_masked	acq3_masked	3	27	453	1	300	300	0	0	399	46	0	1	0	0	0	1	blank2r.bmp	0	1	+	0	7	C3r.bmp	492	1	blank2r.bmp	786	1	GKQX	786	1	blank2r.bmp	866	2	schroff	866	1	!	1292	1	!	1306	0	0	0	0	0	0	0	0	0	0	0	0	0	0	0	0	0	0	0	0	0	0	0	0	0	0	0
012419	16:23:02	16:31:19	495688	5.0.10.0	4_exp_EVA_AMP_AWA_CON	90	Rpleas_acq	Same	Rpleas	Bmasked	CS_B	1pleas	distractor2	EVAbeforeCON	acq_US_pleas_masked	acq3_masked	3	28	453	0	300	300	0	0	373	46	0	0	0	0	0	1	blank2r.bmp	0	1	+	0	8	C4r.bmp	492	1	blank2r.bmp	786	1	BMVZ	786	1	blank2r.bmp	866	2	schlau	866	1	FEHLER	1586	1	!	-1	1	!	-1	0	0	0	0	0	0	0	0	0	0	0	0	0	0	0	0	0	0	0	0	0	0	0	0
012419	16:23:02	16:31:21	497728	5.0.10.0	4_exp_EVA_AMP_AWA_CON	90	Rpleas_acq	Same	Rpleas	Bmasked	CS_B	1pleas	distractor2	EVAbeforeCON	acq_US_unple_masked	acq3_masked	3	29	453	1	300	300	0	0	442	46	0	1	0	0	0	1	blank2r.bmp	0	1	+	0	4	B4r.bmp	492	1	blank2r.bmp	786	1	GKQX	786	1	blank2r.bmp	866	4	leiden	866	1	!	1292	1	!	1346	0	0	0	0	0	0	0	0	0	0	0	0	0	0	0	0	0	0	0	0	0	0	0	0	0	0	0
012419	16:23:02	16:31:23	499873	5.0.10.0	4_exp_EVA_AMP_AWA_CON	90	Rpleas_acq	Same	Rpleas	Bmasked	CS_B	1pleas	distractor2	EVAbeforeCON	acq_US_unple_masked	acq3_masked	3	30	453	0	300	300	0	0	383	46	0	1	0	0	0	1	blank2r.bmp	0	1	+	0	1	B1r.bmp	492	1	blank2r.bmp	786	1	GKQX	786	1	blank2r.bmp	866	5	strafen	866	1	!	-1	1	!	-1	0	0	0	0	0	0	0	0	0	0	0	0	0	0	0	0	0	0	0	0	0	0	0	0	0	0	0
012419	16:23:02	16:31:25	501966	5.0.10.0	4_exp_EVA_AMP_AWA_CON	90	Rpleas_acq	Same	Rpleas	Bmasked	CS_B	1pleas	distractor2	EVAbeforeCON	acq_US_unple_masked	acq3_masked	3	31	453	0	300	300	0	0	301	46	0	1	0	0	0	1	blank2r.bmp	0	1	+	0	2	B2r.bmp	492	1	blank2r.bmp	786	1	GKQX	786	1	blank2r.bmp	866	1	eitel	866	1	!	-1	1	!	-1	0	0	0	0	0	0	0	0	0	0	0	0	0	0	0	0	0	0	0	0	0	0	0	0	0	0	0
012419	16:23:02	16:31:27	504245	5.0.10.0	4_exp_EVA_AMP_AWA_CON	90	Rpleas_acq	Same	Rpleas	Bmasked	CS_B	1pleas	distractor2	EVAbeforeCON	acq_US_pleas_masked	acq3_masked	3	32	453	1	300	300	0	0	466	50	0	1	0	0	0	1	blank2r.bmp	0	1	+	0	3	B3r.bmp	492	1	blank2r.bmp	786	1	BMVZ	786	1	blank2r.bmp	866	6	retten	866	1	!	1292	1	!	1372	0	0	0	0	0	0	0	0	0	0	0	0	0	0	0	0	0	0	0	0	0	0	0	0	0	0	0
012419	16:23:02	16:31:30	506497	5.0.10.0	4_exp_EVA_AMP_AWA_CON	90	Rpleas_acq	Same	Rpleas	Bmasked	CS_B	1pleas	distractor2	EVAbeforeCON	acq_US_unple_masked	acq3_masked	3	33	453	1	300	300	0	0	464	46	0	1	0	0	0	1	blank2r.bmp	0	1	+	0	3	B3r.bmp	492	1	blank2r.bmp	786	1	GKQX	786	1	blank2r.bmp	866	6	rächen	866	1	!	1292	1	!	1359	0	0	0	0	0	0	0	0	0	0	0	0	0	0	0	0	0	0	0	0	0	0	0	0	0	0	0
012419	16:23:02	16:31:32	508643	5.0.10.0	4_exp_EVA_AMP_AWA_CON	90	Rpleas_acq	Same	Rpleas	Bmasked	CS_B	1pleas	distractor2	EVAbeforeCON	acq_US_pleas_masked	acq3_masked	3	34	453	0	300	300	0	0	382	50	0	1	0	0	0	1	blank2r.bmp	0	1	+	0	5	C1r.bmp	492	1	blank2r.bmp	786	1	BMVZ	786	1	blank2r.bmp	866	5	spielen	866	1	!	-1	1	!	-1	0	0	0	0	0	0	0	0	0	0	0	0	0	0	0	0	0	0	0	0	0	0	0	0	0	0	0
012419	16:23:02	16:31:34	510869	5.0.10.0	4_exp_EVA_AMP_AWA_CON	90	Rpleas_acq	Same	Rpleas	Bmasked	CS_B	1pleas	distractor2	EVAbeforeCON	acq_US_unple_masked	acq3_masked	3	35	453	1	300	300	0	0	416	46	0	1	0	0	0	1	blank2r.bmp	0	1	+	0	4	B4r.bmp	492	1	blank2r.bmp	786	1	GKQX	786	1	blank2r.bmp	866	3	faul	866	1	!	1292	1	!	1319	0	0	0	0	0	0	0	0	0	0	0	0	0	0	0	0	0	0	0	0	0	0	0	0	0	0	0
012419	16:23:02	16:31:36	513401	5.0.10.0	4_exp_EVA_AMP_AWA_CON	90	Rpleas_acq	Same	Rpleas	Bmasked	CS_B	1pleas	distractor2	EVAbeforeCON	acq_US_pleas_masked	acq3_masked	3	36	453	1	300	300	0	0	514	46	0	0	0	0	0	1	blank2r.bmp	0	1	+	0	6	C2r.bmp	492	1	blank2r.bmp	786	1	BMVZ	786	1	blank2r.bmp	866	4	lachen	866	1	FEHLER	1732	1	!	1292	1	!	1412	0	0	0	0	0	0	0	0	0	0	0	0	0	0	0	0	0	0	0	0	0	0	0	0
012419	16:23:02	16:31:56	533286	5.0.10.0	4_exp_EVA_AMP_AWA_CON	90	Rpleas_acq	Same	Rpleas	Bmasked	CS_B	1pleas	distractor2	EVAbeforeCON	acq_US_pleas_masked	acq45_masked	4	1	400	0	300	300	0	0	875	50	0	1	0	0	0	1	blank2r.bmp	0	1	+	0	7	C3r.bmp	492	1	blank2r.bmp	786	1	BMVZ	786	1	blank2r.bmp	866	2	schlau	866	1	!	1239	1	!	-1	0	0	0	0	0	0	0	0	0	0	0	0	0	0	0	0	0	0	0	0	0	0	0	0	0	0	0
012419	16:23:02	16:31:59	535632	5.0.10.0	4_exp_EVA_AMP_AWA_CON	90	Rpleas_acq	Same	Rpleas	Bmasked	CS_B	1pleas	distractor2	EVAbeforeCON	acq_US_pleas_masked	acq45_masked	4	2	400	0	300	300	0	0	556	50	0	1	0	0	0	1	blank2r.bmp	0	1	+	0	1	B1r.bmp	492	1	blank2r.bmp	786	1	BMVZ	786	1	blank2r.bmp	866	4	lachen	866	1	!	1239	1	!	-1	0	0	0	0	0	0	0	0	0	0	0	0	0	0	0	0	0	0	0	0	0	0	0	0	0	0	0
012419	16:23:02	16:32:01	537844	5.0.10.0	4_exp_EVA_AMP_AWA_CON	90	Rpleas_acq	Same	Rpleas	Bmasked	CS_B	1pleas	distractor2	EVAbeforeCON	acq_US_unple_masked	acq45_masked	4	3	400	1	300	300	0	0	409	46	0	1	0	0	0	1	blank2r.bmp	0	1	+	0	2	B2r.bmp	492	1	blank2r.bmp	786	1	GKQX	786	1	blank2r.bmp	866	4	leiden	866	1	!	1239	1	!	1306	0	0	0	0	0	0	0	0	0	0	0	0	0	0	0	0	0	0	0	0	0	0	0	0	0	0	0
012419	16:23:02	16:32:03	540043	5.0.10.0	4_exp_EVA_AMP_AWA_CON	90	Rpleas_acq	Same	Rpleas	Bmasked	CS_B	1pleas	distractor2	EVAbeforeCON	acq_US_unple_masked	acq45_masked	4	4	400	1	300	300	0	0	399	46	0	1	0	0	0	1	blank2r.bmp	0	1	+	0	8	C4r.bmp	492	1	blank2r.bmp	786	1	GKQX	786	1	blank2r.bmp	866	3	faul	866	1	!	1239	1	!	1306	0	0	0	0	0	0	0	0	0	0	0	0	0	0	0	0	0	0	0	0	0	0	0	0	0	0	0
012419	16:23:02	16:32:05	542296	5.0.10.0	4_exp_EVA_AMP_AWA_CON	90	Rpleas_acq	Same	Rpleas	Bmasked	CS_B	1pleas	distractor2	EVAbeforeCON	acq_US_pleas_masked	acq45_masked	4	5	400	0	300	300	0	0	479	46	0	0	0	0	0	1	blank2r.bmp	0	1	+	0	6	C2r.bmp	492	1	blank2r.bmp	786	1	BMVZ	786	1	blank2r.bmp	866	3	fair	866	1	!	1239	1	!	-1	0	0	0	0	0	0	0	0	0	0	0	0	0	0	0	0	0	0	0	0	0	0	0	0	0	0	0
012419	16:23:02	16:32:08	544562	5.0.10.0	4_exp_EVA_AMP_AWA_CON	90	Rpleas_acq	Same	Rpleas	Bmasked	CS_B	1pleas	distractor2	EVAbeforeCON	acq_US_pleas_masked	acq45_masked	4	6	400	0	300	300	0	0	479	46	0	0	0	0	0	1	blank2r.bmp	0	1	+	0	8	C4r.bmp	492	1	blank2r.bmp	786	1	BMVZ	786	1	blank2r.bmp	866	6	retten	866	1	!	1239	1	!	-1	0	0	0	0	0	0	0	0	0	0	0	0	0	0	0	0	0	0	0	0	0	0	0	0	0	0	0
012419	16:23:02	16:32:10	546734	5.0.10.0	4_exp_EVA_AMP_AWA_CON	90	Rpleas_acq	Same	Rpleas	Bmasked	CS_B	1pleas	distractor2	EVAbeforeCON	acq_US_unple_masked	acq45_masked	4	7	400	1	300	300	0	0	370	46	0	1	0	0	0	1	blank2r.bmp	0	1	+	0	7	C3r.bmp	492	1	blank2r.bmp	786	1	GKQX	786	1	blank2r.bmp	866	5	strafen	866	1	!	1239	1	!	1266	0	0	0	0	0	0	0	0	0	0	0	0	0	0	0	0	0	0	0	0	0	0	0	0	0	0	0
012419	16:23:02	16:32:12	548773	5.0.10.0	4_exp_EVA_AMP_AWA_CON	90	Rpleas_acq	Same	Rpleas	Bmasked	CS_B	1pleas	distractor2	EVAbeforeCON	acq_US_unple_masked	acq45_masked	4	8	400	0	300	300	0	0	278	50	0	0	0	0	0	1	blank2r.bmp	0	1	+	0	4	B4r.bmp	492	1	blank2r.bmp	786	1	GKQX	786	1	blank2r.bmp	866	1	eitel	866	1	!	-1	1	!	-1	0	0	0	0	0	0	0	0	0	0	0	0	0	0	0	0	0	0	0	0	0	0	0	0	0	0	0
012419	16:23:02	16:32:14	551066	5.0.10.0	4_exp_EVA_AMP_AWA_CON	90	Rpleas_acq	Same	Rpleas	Bmasked	CS_B	1pleas	distractor2	EVAbeforeCON	acq_US_pleas_masked	acq45_masked	4	9	400	0	300	300	0	0	511	50	0	1	0	0	0	1	blank2r.bmp	0	1	+	0	1	B1r.bmp	492	1	blank2r.bmp	786	1	BMVZ	786	1	blank2r.bmp	866	5	spielen	866	1	!	1239	1	!	-1	0	0	0	0	0	0	0	0	0	0	0	0	0	0	0	0	0	0	0	0	0	0	0	0	0	0	0
012419	16:23:02	16:32:16	553265	5.0.10.0	4_exp_EVA_AMP_AWA_CON	90	Rpleas_acq	Same	Rpleas	Bmasked	CS_B	1pleas	distractor2	EVAbeforeCON	acq_US_unple_masked	acq45_masked	4	10	400	1	300	300	0	0	386	46	0	1	0	0	0	1	blank2r.bmp	0	1	+	0	3	B3r.bmp	492	1	blank2r.bmp	786	1	GKQX	786	1	blank2r.bmp	866	2	schroff	866	1	!	1239	1	!	1292	0	0	0	0	0	0	0	0	0	0	0	0	0	0	0	0	0	0	0	0	0	0	0	0	0	0	0
012419	16:23:02	16:32:19	555610	5.0.10.0	4_exp_EVA_AMP_AWA_CON	90	Rpleas_acq	Same	Rpleas	Bmasked	CS_B	1pleas	distractor2	EVAbeforeCON	acq_US_unple_masked	acq45_masked	4	11	400	0	300	300	0	0	579	46	0	1	0	0	0	1	blank2r.bmp	0	1	+	0	2	B2r.bmp	492	1	blank2r.bmp	786	1	GKQX	786	1	blank2r.bmp	866	6	rächen	866	1	!	1239	1	!	-1	0	0	0	0	0	0	0	0	0	0	0	0	0	0	0	0	0	0	0	0	0	0	0	0	0	0	0
012419	16:23:02	16:32:21	557889	5.0.10.0	4_exp_EVA_AMP_AWA_CON	90	Rpleas_acq	Same	Rpleas	Bmasked	CS_B	1pleas	distractor2	EVAbeforeCON	acq_US_unple_masked	acq45_masked	4	12	400	1	300	300	0	0	453	46	0	1	0	0	0	1	blank2r.bmp	0	1	+	0	5	C1r.bmp	492	1	blank2r.bmp	786	1	GKQX	786	1	blank2r.bmp	866	1	eitel	866	1	!	1239	1	!	1359	0	0	0	0	0	0	0	0	0	0	0	0	0	0	0	0	0	0	0	0	0	0	0	0	0	0	0
012419	16:23:02	16:32:23	560115	5.0.10.0	4_exp_EVA_AMP_AWA_CON	90	Rpleas_acq	Same	Rpleas	Bmasked	CS_B	1pleas	distractor2	EVAbeforeCON	acq_US_unple_masked	acq45_masked	4	13	400	1	300	300	0	0	436	46	0	1	0	0	0	1	blank2r.bmp	0	1	+	0	7	C3r.bmp	492	1	blank2r.bmp	786	1	GKQX	786	1	blank2r.bmp	866	2	schroff	866	1	!	1239	1	!	1332	0	0	0	0	0	0	0	0	0	0	0	0	0	0	0	0	0	0	0	0	0	0	0	0	0	0	0
012419	16:23:02	16:32:25	562328	5.0.10.0	4_exp_EVA_AMP_AWA_CON	90	Rpleas_acq	Same	Rpleas	Bmasked	CS_B	1pleas	distractor2	EVAbeforeCON	acq_US_pleas_masked	acq45_masked	4	14	400	1	300	300	0	0	409	50	0	1	0	0	0	1	blank2r.bmp	0	1	+	0	6	C2r.bmp	492	1	blank2r.bmp	786	1	BMVZ	786	1	blank2r.bmp	866	1	ehrlich	866	1	!	1239	1	!	1306	0	0	0	0	0	0	0	0	0	0	0	0	0	0	0	0	0	0	0	0	0	0	0	0	0	0	0
012419	16:23:02	16:32:28	564500	5.0.10.0	4_exp_EVA_AMP_AWA_CON	90	Rpleas_acq	Same	Rpleas	Bmasked	CS_B	1pleas	distractor2	EVAbeforeCON	acq_US_pleas_masked	acq45_masked	4	15	400	1	300	300	0	0	378	46	0	0	0	0	0	1	blank2r.bmp	0	1	+	0	4	B4r.bmp	492	1	blank2r.bmp	786	1	BMVZ	786	1	blank2r.bmp	866	3	fair	866	1	!	1239	1	!	1279	0	0	0	0	0	0	0	0	0	0	0	0	0	0	0	0	0	0	0	0	0	0	0	0	0	0	0
012419	16:23:02	16:32:30	566726	5.0.10.0	4_exp_EVA_AMP_AWA_CON	90	Rpleas_acq	Same	Rpleas	Bmasked	CS_B	1pleas	distractor2	EVAbeforeCON	acq_US_unple_masked	acq45_masked	4	16	400	1	300	300	0	0	415	50	0	0	0	0	0	1	blank2r.bmp	0	1	+	0	3	B3r.bmp	492	1	blank2r.bmp	786	1	GKQX	786	1	blank2r.bmp	866	4	leiden	866	1	!	1239	1	!	1319	0	0	0	0	0	0	0	0	0	0	0	0	0	0	0	0	0	0	0	0	0	0	0	0	0	0	0
012419	16:23:02	16:32:32	568978	5.0.10.0	4_exp_EVA_AMP_AWA_CON	90	Rpleas_acq	Same	Rpleas	Bmasked	CS_B	1pleas	distractor2	EVAbeforeCON	acq_US_pleas_masked	acq45_masked	4	17	400	0	300	300	0	0	479	46	0	0	0	0	0	1	blank2r.bmp	0	1	+	0	1	B1r.bmp	492	1	blank2r.bmp	786	1	BMVZ	786	1	blank2r.bmp	866	2	schlau	866	1	!	1239	1	!	-1	0	0	0	0	0	0	0	0	0	0	0	0	0	0	0	0	0	0	0	0	0	0	0	0	0	0	0
012419	16:23:02	16:32:34	571284	5.0.10.0	4_exp_EVA_AMP_AWA_CON	90	Rpleas_acq	Same	Rpleas	Bmasked	CS_B	1pleas	distractor2	EVAbeforeCON	acq_US_pleas_masked	acq45_masked	4	18	400	0	300	300	0	0	531	50	0	1	0	0	0	1	blank2r.bmp	0	1	+	0	8	C4r.bmp	492	1	blank2r.bmp	786	1	BMVZ	786	1	blank2r.bmp	866	4	lachen	866	1	!	1239	1	!	-1	0	0	0	0	0	0	0	0	0	0	0	0	0	0	0	0	0	0	0	0	0	0	0	0	0	0	0
012419	16:23:02	16:32:37	573483	5.0.10.0	4_exp_EVA_AMP_AWA_CON	90	Rpleas_acq	Same	Rpleas	Bmasked	CS_B	1pleas	distractor2	EVAbeforeCON	acq_US_pleas_masked	acq45_masked	4	19	400	1	300	300	0	0	390	46	0	0	0	0	0	1	blank2r.bmp	0	1	+	0	2	B2r.bmp	492	1	blank2r.bmp	786	1	BMVZ	786	1	blank2r.bmp	866	6	retten	866	1	!	1239	1	!	1292	0	0	0	0	0	0	0	0	0	0	0	0	0	0	0	0	0	0	0	0	0	0	0	0	0	0	0
012419	16:23:02	16:32:39	575522	5.0.10.0	4_exp_EVA_AMP_AWA_CON	90	Rpleas_acq	Same	Rpleas	Bmasked	CS_B	1pleas	distractor2	EVAbeforeCON	acq_US_pleas_masked	acq45_masked	4	20	400	0	300	300	0	0	269	50	0	1	0	0	0	1	blank2r.bmp	0	1	+	0	5	C1r.bmp	492	1	blank2r.bmp	786	1	BMVZ	786	1	blank2r.bmp	866	5	spielen	866	1	!	-1	1	!	-1	0	0	0	0	0	0	0	0	0	0	0	0	0	0	0	0	0	0	0	0	0	0	0	0	0	0	0
012419	16:23:02	16:32:41	577948	5.0.10.0	4_exp_EVA_AMP_AWA_CON	90	Rpleas_acq	Same	Rpleas	Bmasked	CS_B	1pleas	distractor2	EVAbeforeCON	acq_US_pleas_masked	acq45_masked	4	21	400	0	300	300	0	0	645	50	0	1	0	0	0	1	blank2r.bmp	0	1	+	0	3	B3r.bmp	492	1	blank2r.bmp	786	1	BMVZ	786	1	blank2r.bmp	866	1	ehrlich	866	1	!	1239	1	!	-1	0	0	0	0	0	0	0	0	0	0	0	0	0	0	0	0	0	0	0	0	0	0	0	0	0	0	0
012419	16:23:02	16:32:43	580200	5.0.10.0	4_exp_EVA_AMP_AWA_CON	90	Rpleas_acq	Same	Rpleas	Bmasked	CS_B	1pleas	distractor2	EVAbeforeCON	acq_US_unple_masked	acq45_masked	4	22	400	1	300	300	0	0	443	46	0	1	0	0	0	1	blank2r.bmp	0	1	+	0	8	C4r.bmp	492	1	blank2r.bmp	786	1	GKQX	786	1	blank2r.bmp	866	3	faul	866	1	!	1239	1	!	1346	0	0	0	0	0	0	0	0	0	0	0	0	0	0	0	0	0	0	0	0	0	0	0	0	0	0	0
012419	16:23:02	16:32:45	582399	5.0.10.0	4_exp_EVA_AMP_AWA_CON	90	Rpleas_acq	Same	Rpleas	Bmasked	CS_B	1pleas	distractor2	EVAbeforeCON	acq_US_unple_masked	acq45_masked	4	23	400	1	300	300	0	0	411	46	0	1	0	0	0	1	blank2r.bmp	0	1	+	0	7	C3r.bmp	492	1	blank2r.bmp	786	1	GKQX	786	1	blank2r.bmp	866	5	strafen	866	1	!	1239	1	!	1306	0	0	0	0	0	0	0	0	0	0	0	0	0	0	0	0	0	0	0	0	0	0	0	0	0	0	0
012419	16:23:02	16:32:48	584612	5.0.10.0	4_exp_EVA_AMP_AWA_CON	90	Rpleas_acq	Same	Rpleas	Bmasked	CS_B	1pleas	distractor2	EVAbeforeCON	acq_US_unple_masked	acq45_masked	4	24	400	1	300	300	0	0	420	46	0	1	0	0	0	1	blank2r.bmp	0	1	+	0	1	B1r.bmp	492	1	blank2r.bmp	786	1	GKQX	786	1	blank2r.bmp	866	6	rächen	866	1	!	1239	1	!	1319	0	0	0	0	0	0	0	0	0	0	0	0	0	0	0	0	0	0	0	0	0	0	0	0	0	0	0
012419	16:23:02	16:32:50	586704	5.0.10.0	4_exp_EVA_AMP_AWA_CON	90	Rpleas_acq	Same	Rpleas	Bmasked	CS_B	1pleas	distractor2	EVAbeforeCON	acq_US_pleas_masked	acq45_masked	4	25	400	0	300	300	0	0	328	50	0	1	0	0	0	1	blank2r.bmp	0	1	+	0	6	C2r.bmp	492	1	blank2r.bmp	786	1	BMVZ	786	1	blank2r.bmp	866	3	fair	866	1	!	-1	1	!	-1	0	0	0	0	0	0	0	0	0	0	0	0	0	0	0	0	0	0	0	0	0	0	0	0	0	0	0
012419	16:23:02	16:32:52	588943	5.0.10.0	4_exp_EVA_AMP_AWA_CON	90	Rpleas_acq	Same	Rpleas	Bmasked	CS_B	1pleas	distractor2	EVAbeforeCON	acq_US_pleas_masked	acq45_masked	4	26	400	1	300	300	0	0	432	46	0	0	0	0	0	1	blank2r.bmp	0	1	+	0	4	B4r.bmp	492	1	blank2r.bmp	786	1	BMVZ	786	1	blank2r.bmp	866	2	schlau	866	1	!	1239	1	!	1332	0	0	0	0	0	0	0	0	0	0	0	0	0	0	0	0	0	0	0	0	0	0	0	0	0	0	0
012419	16:23:02	16:32:54	591022	5.0.10.0	4_exp_EVA_AMP_AWA_CON	90	Rpleas_acq	Same	Rpleas	Bmasked	CS_B	1pleas	distractor2	EVAbeforeCON	acq_US_pleas_masked	acq45_masked	4	27	400	0	300	300	0	0	317	46	0	0	0	0	0	1	blank2r.bmp	0	1	+	0	5	C1r.bmp	492	1	blank2r.bmp	786	1	BMVZ	786	1	blank2r.bmp	866	4	lachen	866	1	!	-1	1	!	-1	0	0	0	0	0	0	0	0	0	0	0	0	0	0	0	0	0	0	0	0	0	0	0	0	0	0	0
012419	16:23:02	16:32:56	593235	5.0.10.0	4_exp_EVA_AMP_AWA_CON	90	Rpleas_acq	Same	Rpleas	Bmasked	CS_B	1pleas	distractor2	EVAbeforeCON	acq_US_pleas_masked	acq45_masked	4	28	400	1	300	300	0	0	396	46	0	0	0	0	0	1	blank2r.bmp	0	1	+	0	2	B2r.bmp	492	1	blank2r.bmp	786	1	BMVZ	786	1	blank2r.bmp	866	6	retten	866	1	!	1239	1	!	1292	0	0	0	0	0	0	0	0	0	0	0	0	0	0	0	0	0	0	0	0	0	0	0	0	0	0	0
012419	16:23:02	16:32:58	595314	5.0.10.0	4_exp_EVA_AMP_AWA_CON	90	Rpleas_acq	Same	Rpleas	Bmasked	CS_B	1pleas	distractor2	EVAbeforeCON	acq_US_pleas_masked	acq45_masked	4	29	400	0	300	300	0	0	299	50	0	1	0	0	0	1	blank2r.bmp	0	1	+	0	5	C1r.bmp	492	1	blank2r.bmp	786	1	BMVZ	786	1	blank2r.bmp	866	5	spielen	866	1	!	-1	1	!	-1	0	0	0	0	0	0	0	0	0	0	0	0	0	0	0	0	0	0	0	0	0	0	0	0	0	0	0
012419	16:23:02	16:33:01	597766	5.0.10.0	4_exp_EVA_AMP_AWA_CON	90	Rpleas_acq	Same	Rpleas	Bmasked	CS_B	1pleas	distractor2	EVAbeforeCON	acq_US_unple_masked	acq45_masked	4	30	400	0	300	300	0	0	668	46	0	1	0	0	0	1	blank2r.bmp	0	1	+	0	6	C2r.bmp	492	1	blank2r.bmp	786	1	GKQX	786	1	blank2r.bmp	866	3	faul	866	1	!	1239	1	!	-1	0	0	0	0	0	0	0	0	0	0	0	0	0	0	0	0	0	0	0	0	0	0	0	0	0	0	0
012419	16:23:02	16:33:03	599979	5.0.10.0	4_exp_EVA_AMP_AWA_CON	90	Rpleas_acq	Same	Rpleas	Bmasked	CS_B	1pleas	distractor2	EVAbeforeCON	acq_US_unple_masked	acq45_masked	4	31	400	1	300	300	0	0	401	50	0	0	0	0	0	1	blank2r.bmp	0	1	+	0	4	B4r.bmp	492	1	blank2r.bmp	786	1	GKQX	786	1	blank2r.bmp	866	1	eitel	866	1	!	1239	1	!	1306	0	0	0	0	0	0	0	0	0	0	0	0	0	0	0	0	0	0	0	0	0	0	0	0	0	0	0
012419	16:23:02	16:33:05	602245	5.0.10.0	4_exp_EVA_AMP_AWA_CON	90	Rpleas_acq	Same	Rpleas	Bmasked	CS_B	1pleas	distractor2	EVAbeforeCON	acq_US_unple_masked	acq45_masked	4	32	400	0	300	300	0	0	492	46	0	1	0	0	0	1	blank2r.bmp	0	1	+	0	3	B3r.bmp	492	1	blank2r.bmp	786	1	GKQX	786	1	blank2r.bmp	866	4	leiden	866	1	!	1239	1	!	-1	0	0	0	0	0	0	0	0	0	0	0	0	0	0	0	0	0	0	0	0	0	0	0	0	0	0	0
012419	16:23:02	16:33:08	604510	5.0.10.0	4_exp_EVA_AMP_AWA_CON	90	Rpleas_acq	Same	Rpleas	Bmasked	CS_B	1pleas	distractor2	EVAbeforeCON	acq_US_pleas_masked	acq45_masked	4	33	400	0	300	300	0	0	479	50	0	1	0	0	0	1	blank2r.bmp	0	1	+	0	8	C4r.bmp	492	1	blank2r.bmp	786	1	BMVZ	786	1	blank2r.bmp	866	1	ehrlich	866	1	!	1239	1	!	-1	0	0	0	0	0	0	0	0	0	0	0	0	0	0	0	0	0	0	0	0	0	0	0	0	0	0	0
012419	16:23:02	16:33:10	606963	5.0.10.0	4_exp_EVA_AMP_AWA_CON	90	Rpleas_acq	Same	Rpleas	Bmasked	CS_B	1pleas	distractor2	EVAbeforeCON	acq_US_unple_masked	acq45_masked	4	34	400	0	300	300	0	0	676	46	0	1	0	0	0	1	blank2r.bmp	0	1	+	0	1	B1r.bmp	492	1	blank2r.bmp	786	1	GKQX	786	1	blank2r.bmp	866	6	rächen	866	1	!	1239	1	!	-1	0	0	0	0	0	0	0	0	0	0	0	0	0	0	0	0	0	0	0	0	0	0	0	0	0	0	0
012419	16:23:02	16:33:12	609442	5.0.10.0	4_exp_EVA_AMP_AWA_CON	90	Rpleas_acq	Same	Rpleas	Bmasked	CS_B	1pleas	distractor2	EVAbeforeCON	acq_US_unple_masked	acq45_masked	4	35	400	0	300	300	0	0	701	46	0	1	0	0	0	1	blank2r.bmp	0	1	+	0	2	B2r.bmp	492	1	blank2r.bmp	786	1	GKQX	786	1	blank2r.bmp	866	5	strafen	866	1	!	1239	1	!	-1	0	0	0	0	0	0	0	0	0	0	0	0	0	0	0	0	0	0	0	0	0	0	0	0	0	0	0
012419	16:23:02	16:33:15	611707	5.0.10.0	4_exp_EVA_AMP_AWA_CON	90	Rpleas_acq	Same	Rpleas	Bmasked	CS_B	1pleas	distractor2	EVAbeforeCON	acq_US_unple_masked	acq45_masked	4	36	400	0	300	300	0	0	481	46	0	1	0	0	0	1	blank2r.bmp	0	1	+	0	7	C3r.bmp	492	1	blank2r.bmp	786	1	GKQX	786	1	blank2r.bmp	866	2	schroff	866	1	!	1239	1	!	-1	0	0	0	0	0	0	0	0	0	0	0	0	0	0	0	0	0	0	0	0	0	0	0	0	0	0	0
012419	16:23:02	16:33:47	643721	5.0.10.0	4_exp_EVA_AMP_AWA_CON	90	Rpleas_acq	Same	Rpleas	Bmasked	CS_B	1pleas	distractor2	EVAbeforeCON	acq_US_unple_masked	acq45_masked	5	1	400	1	300	300	0	0	461	46	0	1	0	0	0	1	blank2r.bmp	0	1	+	0	1	B1r.bmp	492	1	blank2r.bmp	786	1	GKQX	786	1	blank2r.bmp	866	5	strafen	866	1	!	1239	1	!	1359	0	0	0	0	0	0	0	0	0	0	0	0	0	0	0	0	0	0	0	0	0	0	0	0	0	0	0
012419	16:23:02	16:33:49	646066	5.0.10.0	4_exp_EVA_AMP_AWA_CON	90	Rpleas_acq	Same	Rpleas	Bmasked	CS_B	1pleas	distractor2	EVAbeforeCON	acq_US_unple_masked	acq45_masked	5	2	400	0	300	300	0	0	584	50	0	0	0	0	0	1	blank2r.bmp	0	1	+	0	2	B2r.bmp	492	1	blank2r.bmp	786	1	GKQX	786	1	blank2r.bmp	866	1	eitel	866	1	!	1239	1	!	-1	0	0	0	0	0	0	0	0	0	0	0	0	0	0	0	0	0	0	0	0	0	0	0	0	0	0	0
012419	16:23:02	16:33:51	648359	5.0.10.0	4_exp_EVA_AMP_AWA_CON	90	Rpleas_acq	Same	Rpleas	Bmasked	CS_B	1pleas	distractor2	EVAbeforeCON	acq_US_pleas_masked	acq45_masked	5	3	400	0	300	300	0	0	515	50	0	1	0	0	0	1	blank2r.bmp	0	1	+	0	8	C4r.bmp	492	1	blank2r.bmp	786	1	BMVZ	786	1	blank2r.bmp	866	2	schlau	866	1	!	1239	1	!	-1	0	0	0	0	0	0	0	0	0	0	0	0	0	0	0	0	0	0	0	0	0	0	0	0	0	0	0
012419	16:23:02	16:33:54	650625	5.0.10.0	4_exp_EVA_AMP_AWA_CON	90	Rpleas_acq	Same	Rpleas	Bmasked	CS_B	1pleas	distractor2	EVAbeforeCON	acq_US_unple_masked	acq45_masked	5	4	400	1	300	300	0	0	459	46	0	1	0	0	0	1	blank2r.bmp	0	1	+	0	3	B3r.bmp	492	1	blank2r.bmp	786	1	GKQX	786	1	blank2r.bmp	866	2	schroff	866	1	!	1239	1	!	1359	0	0	0	0	0	0	0	0	0	0	0	0	0	0	0	0	0	0	0	0	0	0	0	0	0	0	0
012419	16:23:02	16:33:56	652850	5.0.10.0	4_exp_EVA_AMP_AWA_CON	90	Rpleas_acq	Same	Rpleas	Bmasked	CS_B	1pleas	distractor2	EVAbeforeCON	acq_US_pleas_masked	acq45_masked	5	5	400	1	300	300	0	0	426	50	0	1	0	0	0	1	blank2r.bmp	0	1	+	0	7	C3r.bmp	492	1	blank2r.bmp	786	1	BMVZ	786	1	blank2r.bmp	866	6	retten	866	1	!	1239	1	!	1332	0	0	0	0	0	0	0	0	0	0	0	0	0	0	0	0	0	0	0	0	0	0	0	0	0	0	0
012419	16:23:02	16:33:58	655076	5.0.10.0	4_exp_EVA_AMP_AWA_CON	90	Rpleas_acq	Same	Rpleas	Bmasked	CS_B	1pleas	distractor2	EVAbeforeCON	acq_US_pleas_masked	acq45_masked	5	6	400	1	300	300	0	0	437	46	0	0	0	0	0	1	blank2r.bmp	0	1	+	0	6	C2r.bmp	492	1	blank2r.bmp	786	1	BMVZ	786	1	blank2r.bmp	866	4	lachen	866	1	!	1239	1	!	1332	0	0	0	0	0	0	0	0	0	0	0	0	0	0	0	0	0	0	0	0	0	0	0	0	0	0	0
012419	16:23:02	16:34:00	657329	5.0.10.0	4_exp_EVA_AMP_AWA_CON	90	Rpleas_acq	Same	Rpleas	Bmasked	CS_B	1pleas	distractor2	EVAbeforeCON	acq_US_pleas_masked	acq45_masked	5	7	400	0	300	300	0	0	491	46	0	0	0	0	0	1	blank2r.bmp	0	1	+	0	5	C1r.bmp	492	1	blank2r.bmp	786	1	BMVZ	786	1	blank2r.bmp	866	5	spielen	866	1	!	1239	1	!	-1	0	0	0	0	0	0	0	0	0	0	0	0	0	0	0	0	0	0	0	0	0	0	0	0	0	0	0
012419	16:23:02	16:34:03	659648	5.0.10.0	4_exp_EVA_AMP_AWA_CON	90	Rpleas_acq	Same	Rpleas	Bmasked	CS_B	1pleas	distractor2	EVAbeforeCON	acq_US_pleas_masked	acq45_masked	5	8	400	0	300	300	0	0	538	50	0	1	0	0	0	1	blank2r.bmp	0	1	+	0	4	B4r.bmp	492	1	blank2r.bmp	786	1	BMVZ	786	1	blank2r.bmp	866	3	fair	866	1	!	1239	1	!	-1	0	0	0	0	0	0	0	0	0	0	0	0	0	0	0	0	0	0	0	0	0	0	0	0	0	0	0
012419	16:23:02	16:34:05	661913	5.0.10.0	4_exp_EVA_AMP_AWA_CON	90	Rpleas_acq	Same	Rpleas	Bmasked	CS_B	1pleas	distractor2	EVAbeforeCON	acq_US_unple_masked	acq45_masked	5	9	400	1	300	300	0	0	447	46	0	1	0	0	0	1	blank2r.bmp	0	1	+	0	5	C1r.bmp	492	1	blank2r.bmp	786	1	GKQX	786	1	blank2r.bmp	866	6	rächen	866	1	!	1239	1	!	1346	0	0	0	0	0	0	0	0	0	0	0	0	0	0	0	0	0	0	0	0	0	0	0	0	0	0	0
012419	16:23:02	16:34:07	664166	5.0.10.0	4_exp_EVA_AMP_AWA_CON	90	Rpleas_acq	Same	Rpleas	Bmasked	CS_B	1pleas	distractor2	EVAbeforeCON	acq_US_pleas_masked	acq45_masked	5	10	400	1	300	300	0	0	452	50	0	1	0	0	0	1	blank2r.bmp	0	1	+	0	7	C3r.bmp	492	1	blank2r.bmp	786	1	BMVZ	786	1	blank2r.bmp	866	1	ehrlich	866	1	!	1239	1	!	1359	0	0	0	0	0	0	0	0	0	0	0	0	0	0	0	0	0	0	0	0	0	0	0	0	0	0	0
012419	16:23:02	16:34:09	666365	5.0.10.0	4_exp_EVA_AMP_AWA_CON	90	Rpleas_acq	Same	Rpleas	Bmasked	CS_B	1pleas	distractor2	EVAbeforeCON	acq_US_pleas_masked	acq45_masked	5	11	400	1	300	300	0	0	409	50	0	1	0	0	0	1	blank2r.bmp	0	1	+	0	1	B1r.bmp	492	1	blank2r.bmp	786	1	BMVZ	786	1	blank2r.bmp	866	5	spielen	866	1	!	1239	1	!	1306	0	0	0	0	0	0	0	0	0	0	0	0	0	0	0	0	0	0	0	0	0	0	0	0	0	0	0
012419	16:23:02	16:34:12	668617	5.0.10.0	4_exp_EVA_AMP_AWA_CON	90	Rpleas_acq	Same	Rpleas	Bmasked	CS_B	1pleas	distractor2	EVAbeforeCON	acq_US_unple_masked	acq45_masked	5	12	400	0	300	300	0	0	484	50	0	0	0	0	0	1	blank2r.bmp	0	1	+	0	3	B3r.bmp	492	1	blank2r.bmp	786	1	GKQX	786	1	blank2r.bmp	866	4	leiden	866	1	!	1239	1	!	-1	0	0	0	0	0	0	0	0	0	0	0	0	0	0	0	0	0	0	0	0	0	0	0	0	0	0	0
012419	16:23:02	16:34:14	670910	5.0.10.0	4_exp_EVA_AMP_AWA_CON	90	Rpleas_acq	Same	Rpleas	Bmasked	CS_B	1pleas	distractor2	EVAbeforeCON	acq_US_pleas_masked	acq45_masked	5	13	400	0	300	300	0	0	496	50	0	1	0	0	0	1	blank2r.bmp	0	1	+	0	8	C4r.bmp	492	1	blank2r.bmp	786	1	BMVZ	786	1	blank2r.bmp	866	6	retten	866	1	!	1239	1	!	-1	0	0	0	0	0	0	0	0	0	0	0	0	0	0	0	0	0	0	0	0	0	0	0	0	0	0	0
012419	16:23:02	16:34:16	673189	5.0.10.0	4_exp_EVA_AMP_AWA_CON	90	Rpleas_acq	Same	Rpleas	Bmasked	CS_B	1pleas	distractor2	EVAbeforeCON	acq_US_pleas_masked	acq45_masked	5	14	400	1	300	300	0	0	456	46	0	0	0	0	0	1	blank2r.bmp	0	1	+	0	2	B2r.bmp	492	1	blank2r.bmp	786	1	BMVZ	786	1	blank2r.bmp	866	2	schlau	866	1	!	1239	1	!	1359	0	0	0	0	0	0	0	0	0	0	0	0	0	0	0	0	0	0	0	0	0	0	0	0	0	0	0
012419	16:23:02	16:34:19	675521	5.0.10.0	4_exp_EVA_AMP_AWA_CON	90	Rpleas_acq	Same	Rpleas	Bmasked	CS_B	1pleas	distractor2	EVAbeforeCON	acq_US_unple_masked	acq45_masked	5	15	400	0	300	300	0	0	569	46	0	1	0	0	0	1	blank2r.bmp	0	1	+	0	6	C2r.bmp	492	1	blank2r.bmp	786	1	GKQX	786	1	blank2r.bmp	866	3	faul	866	1	!	1239	1	!	-1	0	0	0	0	0	0	0	0	0	0	0	0	0	0	0	0	0	0	0	0	0	0	0	0	0	0	0
012419	16:23:02	16:34:21	677747	5.0.10.0	4_exp_EVA_AMP_AWA_CON	90	Rpleas_acq	Same	Rpleas	Bmasked	CS_B	1pleas	distractor2	EVAbeforeCON	acq_US_unple_masked	acq45_masked	5	16	400	1	300	300	0	0	414	50	0	0	0	0	0	1	blank2r.bmp	0	1	+	0	4	B4r.bmp	492	1	blank2r.bmp	786	1	GKQX	786	1	blank2r.bmp	866	3	faul	866	1	!	1239	1	!	1319	0	0	0	0	0	0	0	0	0	0	0	0	0	0	0	0	0	0	0	0	0	0	0	0	0	0	0
012419	16:23:02	16:34:23	680159	5.0.10.0	4_exp_EVA_AMP_AWA_CON	90	Rpleas_acq	Same	Rpleas	Bmasked	CS_B	1pleas	distractor2	EVAbeforeCON	acq_US_unple_masked	acq45_masked	5	17	400	0	300	300	0	0	650	46	0	1	0	0	0	1	blank2r.bmp	0	1	+	0	1	B1r.bmp	492	1	blank2r.bmp	786	1	GKQX	786	1	blank2r.bmp	866	6	rächen	866	1	!	1239	1	!	-1	0	0	0	0	0	0	0	0	0	0	0	0	0	0	0	0	0	0	0	0	0	0	0	0	0	0	0
012419	16:23:02	16:34:25	682438	5.0.10.0	4_exp_EVA_AMP_AWA_CON	90	Rpleas_acq	Same	Rpleas	Bmasked	CS_B	1pleas	distractor2	EVAbeforeCON	acq_US_unple_masked	acq45_masked	5	18	400	0	300	300	0	0	483	50	0	0	0	0	0	1	blank2r.bmp	0	1	+	0	8	C4r.bmp	492	1	blank2r.bmp	786	1	GKQX	786	1	blank2r.bmp	866	1	eitel	866	1	!	1239	1	!	-1	0	0	0	0	0	0	0	0	0	0	0	0	0	0	0	0	0	0	0	0	0	0	0	0	0	0	0
012419	16:23:02	16:34:28	684744	5.0.10.0	4_exp_EVA_AMP_AWA_CON	90	Rpleas_acq	Same	Rpleas	Bmasked	CS_B	1pleas	distractor2	EVAbeforeCON	acq_US_unple_masked	acq45_masked	5	19	400	0	300	300	0	0	511	46	0	1	0	0	0	1	blank2r.bmp	0	1	+	0	6	C2r.bmp	492	1	blank2r.bmp	786	1	GKQX	786	1	blank2r.bmp	866	4	leiden	866	1	!	1239	1	!	-1	0	0	0	0	0	0	0	0	0	0	0	0	0	0	0	0	0	0	0	0	0	0	0	0	0	0	0
012419	16:23:02	16:34:30	687010	5.0.10.0	4_exp_EVA_AMP_AWA_CON	90	Rpleas_acq	Same	Rpleas	Bmasked	CS_B	1pleas	distractor2	EVAbeforeCON	acq_US_pleas_masked	acq45_masked	5	20	400	1	300	300	0	0	461	50	0	1	0	0	0	1	blank2r.bmp	0	1	+	0	7	C3r.bmp	492	1	blank2r.bmp	786	1	BMVZ	786	1	blank2r.bmp	866	4	lachen	866	1	!	1239	1	!	1359	0	0	0	0	0	0	0	0	0	0	0	0	0	0	0	0	0	0	0	0	0	0	0	0	0	0	0
012419	16:23:02	16:34:32	689262	5.0.10.0	4_exp_EVA_AMP_AWA_CON	90	Rpleas_acq	Same	Rpleas	Bmasked	CS_B	1pleas	distractor2	EVAbeforeCON	acq_US_pleas_masked	acq45_masked	5	21	400	0	300	300	0	0	479	50	0	1	0	0	0	1	blank2r.bmp	0	1	+	0	3	B3r.bmp	492	1	blank2r.bmp	786	1	BMVZ	786	1	blank2r.bmp	866	3	fair	866	1	!	1239	1	!	-1	0	0	0	0	0	0	0	0	0	0	0	0	0	0	0	0	0	0	0	0	0	0	0	0	0	0	0
012419	16:23:02	16:34:35	691541	5.0.10.0	4_exp_EVA_AMP_AWA_CON	90	Rpleas_acq	Same	Rpleas	Bmasked	CS_B	1pleas	distractor2	EVAbeforeCON	acq_US_pleas_masked	acq45_masked	5	22	400	0	300	300	0	0	498	50	0	1	0	0	0	1	blank2r.bmp	0	1	+	0	5	C1r.bmp	492	1	blank2r.bmp	786	1	BMVZ	786	1	blank2r.bmp	866	1	ehrlich	866	1	!	1239	1	!	-1	0	0	0	0	0	0	0	0	0	0	0	0	0	0	0	0	0	0	0	0	0	0	0	0	0	0	0
012419	16:23:02	16:34:37	693767	5.0.10.0	4_exp_EVA_AMP_AWA_CON	90	Rpleas_acq	Same	Rpleas	Bmasked	CS_B	1pleas	distractor2	EVAbeforeCON	acq_US_unple_masked	acq45_masked	5	23	400	1	300	300	0	0	420	46	0	1	0	0	0	1	blank2r.bmp	0	1	+	0	4	B4r.bmp	492	1	blank2r.bmp	786	1	GKQX	786	1	blank2r.bmp	866	2	schroff	866	1	!	1239	1	!	1319	0	0	0	0	0	0	0	0	0	0	0	0	0	0	0	0	0	0	0	0	0	0	0	0	0	0	0
012419	16:23:02	16:34:39	695966	5.0.10.0	4_exp_EVA_AMP_AWA_CON	90	Rpleas_acq	Same	Rpleas	Bmasked	CS_B	1pleas	distractor2	EVAbeforeCON	acq_US_unple_masked	acq45_masked	5	24	400	1	300	300	0	0	408	50	0	0	0	0	0	1	blank2r.bmp	0	1	+	0	2	B2r.bmp	492	1	blank2r.bmp	786	1	GKQX	786	1	blank2r.bmp	866	5	strafen	866	1	!	1239	1	!	1306	0	0	0	0	0	0	0	0	0	0	0	0	0	0	0	0	0	0	0	0	0	0	0	0	0	0	0
012419	16:23:02	16:34:41	698205	5.0.10.0	4_exp_EVA_AMP_AWA_CON	90	Rpleas_acq	Same	Rpleas	Bmasked	CS_B	1pleas	distractor2	EVAbeforeCON	acq_US_unple_masked	acq45_masked	5	25	400	1	300	300	0	0	447	46	0	1	0	0	0	1	blank2r.bmp	0	1	+	0	5	C1r.bmp	492	1	blank2r.bmp	786	1	GKQX	786	1	blank2r.bmp	866	1	eitel	866	1	!	1239	1	!	1346	0	0	0	0	0	0	0	0	0	0	0	0	0	0	0	0	0	0	0	0	0	0	0	0	0	0	0
012419	16:23:02	16:34:44	700524	5.0.10.0	4_exp_EVA_AMP_AWA_CON	90	Rpleas_acq	Same	Rpleas	Bmasked	CS_B	1pleas	distractor2	EVAbeforeCON	acq_US_pleas_masked	acq45_masked	5	26	400	0	300	300	0	0	534	50	0	1	0	0	0	1	blank2r.bmp	0	1	+	0	3	B3r.bmp	492	1	blank2r.bmp	786	1	BMVZ	786	1	blank2r.bmp	866	2	schlau	866	1	!	1239	1	!	-1	0	0	0	0	0	0	0	0	0	0	0	0	0	0	0	0	0	0	0	0	0	0	0	0	0	0	0
012419	16:23:02	16:34:46	702803	5.0.10.0	4_exp_EVA_AMP_AWA_CON	90	Rpleas_acq	Same	Rpleas	Bmasked	CS_B	1pleas	distractor2	EVAbeforeCON	acq_US_pleas_masked	acq45_masked	5	27	400	0	300	300	0	0	492	50	0	1	0	0	0	1	blank2r.bmp	0	1	+	0	7	C3r.bmp	492	1	blank2r.bmp	786	1	BMVZ	786	1	blank2r.bmp	866	3	fair	866	1	!	1239	1	!	-1	0	0	0	0	0	0	0	0	0	0	0	0	0	0	0	0	0	0	0	0	0	0	0	0	0	0	0
012419	16:23:02	16:34:48	705069	5.0.10.0	4_exp_EVA_AMP_AWA_CON	90	Rpleas_acq	Same	Rpleas	Bmasked	CS_B	1pleas	distractor2	EVAbeforeCON	acq_US_unple_masked	acq45_masked	5	28	400	1	300	300	0	0	455	46	0	1	0	0	0	1	blank2r.bmp	0	1	+	0	8	C4r.bmp	492	1	blank2r.bmp	786	1	GKQX	786	1	blank2r.bmp	866	2	schroff	866	1	!	1239	1	!	1359	0	0	0	0	0	0	0	0	0	0	0	0	0	0	0	0	0	0	0	0	0	0	0	0	0	0	0
012419	16:23:02	16:34:50	707228	5.0.10.0	4_exp_EVA_AMP_AWA_CON	90	Rpleas_acq	Same	Rpleas	Bmasked	CS_B	1pleas	distractor2	EVAbeforeCON	acq_US_unple_masked	acq45_masked	5	29	400	1	300	300	0	0	371	50	0	0	0	0	0	1	blank2r.bmp	0	1	+	0	6	C2r.bmp	492	1	blank2r.bmp	786	1	GKQX	786	1	blank2r.bmp	866	5	strafen	866	1	!	1239	1	!	1266	0	0	0	0	0	0	0	0	0	0	0	0	0	0	0	0	0	0	0	0	0	0	0	0	0	0	0
012419	16:23:02	16:34:52	709480	5.0.10.0	4_exp_EVA_AMP_AWA_CON	90	Rpleas_acq	Same	Rpleas	Bmasked	CS_B	1pleas	distractor2	EVAbeforeCON	acq_US_unple_masked	acq45_masked	5	30	400	1	300	300	0	0	463	46	0	1	0	0	0	1	blank2r.bmp	0	1	+	0	4	B4r.bmp	492	1	blank2r.bmp	786	1	GKQX	786	1	blank2r.bmp	866	3	faul	866	1	!	1239	1	!	1359	0	0	0	0	0	0	0	0	0	0	0	0	0	0	0	0	0	0	0	0	0	0	0	0	0	0	0
012419	16:23:02	16:34:55	711679	5.0.10.0	4_exp_EVA_AMP_AWA_CON	90	Rpleas_acq	Same	Rpleas	Bmasked	CS_B	1pleas	distractor2	EVAbeforeCON	acq_US_pleas_masked	acq45_masked	5	31	400	1	300	300	0	0	412	50	0	1	0	0	0	1	blank2r.bmp	0	1	+	0	1	B1r.bmp	492	1	blank2r.bmp	786	1	BMVZ	786	1	blank2r.bmp	866	4	lachen	866	1	!	1239	1	!	1306	0	0	0	0	0	0	0	0	0	0	0	0	0	0	0	0	0	0	0	0	0	0	0	0	0	0	0
012419	16:23:02	16:34:57	713905	5.0.10.0	4_exp_EVA_AMP_AWA_CON	90	Rpleas_acq	Same	Rpleas	Bmasked	CS_B	1pleas	distractor2	EVAbeforeCON	acq_US_unple_masked	acq45_masked	5	32	400	1	300	300	0	0	430	46	0	1	0	0	0	1	blank2r.bmp	0	1	+	0	2	B2r.bmp	492	1	blank2r.bmp	786	1	GKQX	786	1	blank2r.bmp	866	6	rächen	866	1	!	1239	1	!	1332	0	0	0	0	0	0	0	0	0	0	0	0	0	0	0	0	0	0	0	0	0	0	0	0	0	0	0
012419	16:23:02	16:34:59	716104	5.0.10.0	4_exp_EVA_AMP_AWA_CON	90	Rpleas_acq	Same	Rpleas	Bmasked	CS_B	1pleas	distractor2	EVAbeforeCON	acq_US_pleas_masked	acq45_masked	5	33	400	1	300	300	0	0	411	50	0	1	0	0	0	1	blank2r.bmp	0	1	+	0	4	B4r.bmp	492	1	blank2r.bmp	786	1	BMVZ	786	1	blank2r.bmp	866	6	retten	866	1	!	1239	1	!	1306	0	0	0	0	0	0	0	0	0	0	0	0	0	0	0	0	0	0	0	0	0	0	0	0	0	0	0
012419	16:23:02	16:35:01	718343	5.0.10.0	4_exp_EVA_AMP_AWA_CON	90	Rpleas_acq	Same	Rpleas	Bmasked	CS_B	1pleas	distractor2	EVAbeforeCON	acq_US_pleas_masked	acq45_masked	5	34	400	1	300	300	0	0	448	50	0	1	0	0	0	1	blank2r.bmp	0	1	+	0	3	B3r.bmp	492	1	blank2r.bmp	786	1	BMVZ	786	1	blank2r.bmp	866	1	ehrlich	866	1	!	1239	1	!	1346	0	0	0	0	0	0	0	0	0	0	0	0	0	0	0	0	0	0	0	0	0	0	0	0	0	0	0
012419	16:23:02	16:35:04	720596	5.0.10.0	4_exp_EVA_AMP_AWA_CON	90	Rpleas_acq	Same	Rpleas	Bmasked	CS_B	1pleas	distractor2	EVAbeforeCON	acq_US_pleas_masked	acq45_masked	5	35	400	1	300	300	0	0	455	50	0	1	0	0	0	1	blank2r.bmp	0	1	+	0	2	B2r.bmp	492	1	blank2r.bmp	786	1	BMVZ	786	1	blank2r.bmp	866	5	spielen	866	1	!	1239	1	!	1359	0	0	0	0	0	0	0	0	0	0	0	0	0	0	0	0	0	0	0	0	0	0	0	0	0	0	0
012419	16:23:02	16:35:06	722862	5.0.10.0	4_exp_EVA_AMP_AWA_CON	90	Rpleas_acq	Same	Rpleas	Bmasked	CS_B	1pleas	distractor2	EVAbeforeCON	acq_US_unple_masked	acq45_masked	5	36	400	0	300	300	0	0	494	46	0	1	0	0	0	1	blank2r.bmp	0	1	+	0	1	B1r.bmp	492	1	blank2r.bmp	786	1	GKQX	786	1	blank2r.bmp	866	4	leiden	866	1	!	1239	1	!	-1	0	0	0	0	0	0	0	0	0	0	0	0	0	0	0	0	0	0	0	0	0	0	0	0	0	0	0
012419	16:23:02	16:35:30	747265	5.0.10.0	4_exp_EVA_AMP_AWA_CON	90	Rpleas_acq	Same	Rpleas	Bmasked	CS_B	1pleas	distractor2	EVAbeforeCON	EvalRating_firsttwo	EvalRating_firsttwo	6	1	0	0	300	300	0	0	5226	line	-55,6640624999999928946	0	0	0	0	1	eraser	0	1	Wie angenehm oder unangenehm finden Sie die  Buchstabenkette WFPH?	0	1	leftborder	0	1	rightborder	0	1	line	0	1	Unangenehm	0	1	Angenehm	0	0	0	0	0	0	0	0	0	0	0	0	0	0	0	0	0	0	0	0	0	0	0	0	0	0	0	0	0	0	0	0	0	0
012419	16:23:02	16:35:36	753129	5.0.10.0	4_exp_EVA_AMP_AWA_CON	90	Rpleas_acq	Same	Rpleas	Bmasked	CS_B	1pleas	distractor2	EVAbeforeCON	EvalRating_lastfour	EvalRating_lastfour	7	1	0	0	300	300	0	0	3432	line	-33,447265625	0	0	0	0	1	eraser	0	1	Wie angenehm oder unangenehm finden Sie die  Buchstabenkette BMVZ?	0	1	leftborder	0	1	rightborder	0	1	line	0	1	Unangenehm	0	1	Angenehm	0	0	0	0	0	0	0	0	0	0	0	0	0	0	0	0	0	0	0	0	0	0	0	0	0	0	0	0	0	0	0	0	0	0
012419	16:23:02	16:35:39	755501	5.0.10.0	4_exp_EVA_AMP_AWA_CON	90	Rpleas_acq	Same	Rpleas	Bmasked	CS_B	1pleas	distractor2	EVAbeforeCON	blank_screen	EvalRating_lastfour	7	3	0	0	300	300	0	0	0	0	-33,447265625	0	0	0	0	1	eraser	0	0	0	0	0	0	0	0	0	0	0	0	0	0	0	0	0	0	0	0	0	0	0	0	0	0	0	0	0	0	0	0	0	0	0	0	0	0	0	0	0	0	0	0	0	0	0	0	0	0	0	0
012419	16:23:02	16:35:42	758820	5.0.10.0	4_exp_EVA_AMP_AWA_CON	90	Rpleas_acq	Same	Rpleas	Bmasked	CS_B	1pleas	distractor2	EVAbeforeCON	EvalRating_lastfour	EvalRating_lastfour	7	4	0	0	300	300	0	0	2738	line	29,052734375	0	0	0	0	1	eraser	0	3	Wie angenehm oder unangenehm finden Sie die  Buchstabenkette JCRD?	0	1	leftborder	0	1	rightborder	0	1	line	0	1	Unangenehm	0	1	Angenehm	0	0	0	0	0	0	0	0	0	0	0	0	0	0	0	0	0	0	0	0	0	0	0	0	0	0	0	0	0	0	0	0	0	0
012419	16:23:02	16:35:44	761206	5.0.10.0	4_exp_EVA_AMP_AWA_CON	90	Rpleas_acq	Same	Rpleas	Bmasked	CS_B	1pleas	distractor2	EVAbeforeCON	blank_screen	EvalRating_lastfour	7	6	0	0	300	300	0	0	0	0	29,052734375	0	0	0	0	1	eraser	0	0	0	0	0	0	0	0	0	0	0	0	0	0	0	0	0	0	0	0	0	0	0	0	0	0	0	0	0	0	0	0	0	0	0	0	0	0	0	0	0	0	0	0	0	0	0	0	0	0	0	0
012419	16:23:02	16:35:47	763978	5.0.10.0	4_exp_EVA_AMP_AWA_CON	90	Rpleas_acq	Same	Rpleas	Bmasked	CS_B	1pleas	distractor2	EVAbeforeCON	EvalRating_lastfour	EvalRating_lastfour	7	7	0	0	300	300	0	0	2194	line	-90,8203125	0	0	0	0	1	eraser	0	2	Wie angenehm oder unangenehm finden Sie die  Buchstabenkette GKQX?	0	1	leftborder	0	1	rightborder	0	1	line	0	1	Unangenehm	0	1	Angenehm	0	0	0	0	0	0	0	0	0	0	0	0	0	0	0	0	0	0	0	0	0	0	0	0	0	0	0	0	0	0	0	0	0	0
012419	16:23:02	16:36:50	827072	5.0.10.0	4_exp_EVA_AMP_AWA_CON	90	Rpleas_acq	Same	Rpleas	Bmasked	CS_B	1pleas	distractor2	EVAbeforeCON	AMP_CSunple	AMP1_masked	8	1	0	0	300	300	0	0	3583	50	-90,8203125	0	0	0	0	1	blank2r.bmp	0	1	GKQX	0	1	blank2r.bmp	79	8	pic8.bmp	199	1	whitenoise_No3.bmp	306	0	0	0	0	0	0	0	0	0	0	0	0	0	0	0	0	0	0	0	0	0	0	0	0	0	0	0	0	0	0	0	0	0	0	0	0	0	0	0
012419	16:23:02	16:36:52	829338	5.0.10.0	4_exp_EVA_AMP_AWA_CON	90	Rpleas_acq	Same	Rpleas	Bmasked	CS_B	1pleas	distractor2	EVAbeforeCON	AMP_CSunple	AMP1_masked	8	2	0	0	300	300	0	0	1343	50	-90,8203125	0	0	0	0	1	blank2r.bmp	0	1	GKQX	0	1	blank2r.bmp	79	124	pic124.bmp	199	1	whitenoise_No3.bmp	306	0	0	0	0	0	0	0	0	0	0	0	0	0	0	0	0	0	0	0	0	0	0	0	0	0	0	0	0	0	0	0	0	0	0	0	0	0	0	0
012419	16:23:02	16:36:54	831270	5.0.10.0	4_exp_EVA_AMP_AWA_CON	90	Rpleas_acq	Same	Rpleas	Bmasked	CS_B	1pleas	distractor2	EVAbeforeCON	AMP_distractor	AMP1_masked	8	3	0	0	300	300	0	0	1007	50	-90,8203125	0	0	0	0	1	blank2r.bmp	0	1	JCRD	0	1	blank2r.bmp	79	120	pic120.bmp	199	1	whitenoise_No3.bmp	306	0	0	0	0	0	0	0	0	0	0	0	0	0	0	0	0	0	0	0	0	0	0	0	0	0	0	0	0	0	0	0	0	0	0	0	0	0	0	0
012419	16:23:02	16:36:56	833323	5.0.10.0	4_exp_EVA_AMP_AWA_CON	90	Rpleas_acq	Same	Rpleas	Bmasked	CS_B	1pleas	distractor2	EVAbeforeCON	AMP_CSunple	AMP1_masked	8	4	0	0	300	300	0	0	1121	50	-90,8203125	0	0	0	0	1	blank2r.bmp	0	1	GKQX	0	1	blank2r.bmp	79	15	pic15.bmp	199	1	whitenoise_No3.bmp	306	0	0	0	0	0	0	0	0	0	0	0	0	0	0	0	0	0	0	0	0	0	0	0	0	0	0	0	0	0	0	0	0	0	0	0	0	0	0	0
012419	16:23:02	16:37:00	836601	5.0.10.0	4_exp_EVA_AMP_AWA_CON	90	Rpleas_acq	Same	Rpleas	Bmasked	CS_B	1pleas	distractor2	EVAbeforeCON	AMP_CSpleas	AMP1_masked	8	5	0	0	300	300	0	0	2363	50	-90,8203125	1	0	0	0	1	blank2r.bmp	0	1	BMVZ	0	1	blank2r.bmp	79	136	pic136.bmp	199	1	whitenoise_No3.bmp	306	0	0	0	0	0	0	0	0	0	0	0	0	0	0	0	0	0	0	0	0	0	0	0	0	0	0	0	0	0	0	0	0	0	0	0	0	0	0	0
012419	16:23:02	16:37:02	838867	5.0.10.0	4_exp_EVA_AMP_AWA_CON	90	Rpleas_acq	Same	Rpleas	Bmasked	CS_B	1pleas	distractor2	EVAbeforeCON	AMP_CSpleas	AMP1_masked	8	6	0	0	300	300	0	0	1348	50	-90,8203125	1	0	0	0	1	blank2r.bmp	0	1	BMVZ	0	1	blank2r.bmp	79	24	pic24.bmp	199	1	whitenoise_No3.bmp	306	0	0	0	0	0	0	0	0	0	0	0	0	0	0	0	0	0	0	0	0	0	0	0	0	0	0	0	0	0	0	0	0	0	0	0	0	0	0	0
012419	16:23:02	16:37:04	841439	5.0.10.0	4_exp_EVA_AMP_AWA_CON	90	Rpleas_acq	Same	Rpleas	Bmasked	CS_B	1pleas	distractor2	EVAbeforeCON	AMP_CSpleas	AMP1_masked	8	7	0	0	300	300	0	0	1652	46	-90,8203125	0	0	0	0	1	blank2r.bmp	0	1	BMVZ	0	1	blank2r.bmp	79	134	pic134.bmp	199	1	whitenoise_No3.bmp	306	0	0	0	0	0	0	0	0	0	0	0	0	0	0	0	0	0	0	0	0	0	0	0	0	0	0	0	0	0	0	0	0	0	0	0	0	0	0	0
012419	16:23:02	16:37:06	843239	5.0.10.0	4_exp_EVA_AMP_AWA_CON	90	Rpleas_acq	Same	Rpleas	Bmasked	CS_B	1pleas	distractor2	EVAbeforeCON	AMP_CSpleas	AMP1_masked	8	8	0	0	300	300	0	0	891	46	-90,8203125	0	0	0	0	1	blank2r.bmp	0	1	BMVZ	0	1	blank2r.bmp	79	35	pic35.bmp	199	1	whitenoise_No3.bmp	306	0	0	0	0	0	0	0	0	0	0	0	0	0	0	0	0	0	0	0	0	0	0	0	0	0	0	0	0	0	0	0	0	0	0	0	0	0	0	0
012419	16:23:02	16:37:08	845078	5.0.10.0	4_exp_EVA_AMP_AWA_CON	90	Rpleas_acq	Same	Rpleas	Bmasked	CS_B	1pleas	distractor2	EVAbeforeCON	AMP_distractor	AMP1_masked	8	9	0	0	300	300	0	0	912	46	-90,8203125	0	0	0	0	1	blank2r.bmp	0	1	JCRD	0	1	blank2r.bmp	79	107	pic107.bmp	199	1	whitenoise_No3.bmp	306	0	0	0	0	0	0	0	0	0	0	0	0	0	0	0	0	0	0	0	0	0	0	0	0	0	0	0	0	0	0	0	0	0	0	0	0	0	0	0
012419	16:23:02	16:37:10	847464	5.0.10.0	4_exp_EVA_AMP_AWA_CON	90	Rpleas_acq	Same	Rpleas	Bmasked	CS_B	1pleas	distractor2	EVAbeforeCON	AMP_CSunple	AMP1_masked	8	10	0	0	300	300	0	0	1464	46	-90,8203125	1	0	0	0	1	blank2r.bmp	0	1	GKQX	0	1	blank2r.bmp	79	53	pic53.bmp	199	1	whitenoise_No3.bmp	306	0	0	0	0	0	0	0	0	0	0	0	0	0	0	0	0	0	0	0	0	0	0	0	0	0	0	0	0	0	0	0	0	0	0	0	0	0	0	0
012419	16:23:02	16:37:12	848863	5.0.10.0	4_exp_EVA_AMP_AWA_CON	90	Rpleas_acq	Same	Rpleas	Bmasked	CS_B	1pleas	distractor2	EVAbeforeCON	AMP_distractor	AMP1_masked	8	11	0	0	300	300	0	0	478	50	-90,8203125	0	0	0	0	1	blank2r.bmp	0	1	JCRD	0	1	blank2r.bmp	79	54	pic54.bmp	199	1	whitenoise_No3.bmp	306	0	0	0	0	0	0	0	0	0	0	0	0	0	0	0	0	0	0	0	0	0	0	0	0	0	0	0	0	0	0	0	0	0	0	0	0	0	0	0
012419	16:23:02	16:37:14	850476	5.0.10.0	4_exp_EVA_AMP_AWA_CON	90	Rpleas_acq	Same	Rpleas	Bmasked	CS_B	1pleas	distractor2	EVAbeforeCON	AMP_CSunple	AMP1_masked	8	12	0	0	300	300	0	0	678	50	-90,8203125	0	0	0	0	1	blank2r.bmp	0	1	GKQX	0	1	blank2r.bmp	79	5	pic5.bmp	199	1	whitenoise_No3.bmp	306	0	0	0	0	0	0	0	0	0	0	0	0	0	0	0	0	0	0	0	0	0	0	0	0	0	0	0	0	0	0	0	0	0	0	0	0	0	0	0
012419	16:23:02	16:37:15	852262	5.0.10.0	4_exp_EVA_AMP_AWA_CON	90	Rpleas_acq	Same	Rpleas	Bmasked	CS_B	1pleas	distractor2	EVAbeforeCON	AMP_CSpleas	AMP1_masked	8	13	0	0	300	300	0	0	877	46	-90,8203125	0	0	0	0	1	blank2r.bmp	0	1	BMVZ	0	1	blank2r.bmp	79	133	pic133.bmp	199	1	whitenoise_No3.bmp	306	0	0	0	0	0	0	0	0	0	0	0	0	0	0	0	0	0	0	0	0	0	0	0	0	0	0	0	0	0	0	0	0	0	0	0	0	0	0	0
012419	16:23:02	16:37:17	853914	5.0.10.0	4_exp_EVA_AMP_AWA_CON	90	Rpleas_acq	Same	Rpleas	Bmasked	CS_B	1pleas	distractor2	EVAbeforeCON	AMP_CSunple	AMP1_masked	8	14	0	0	300	300	0	0	722	46	-90,8203125	1	0	0	0	1	blank2r.bmp	0	1	GKQX	0	1	blank2r.bmp	79	82	pic82.bmp	199	1	whitenoise_No3.bmp	306	0	0	0	0	0	0	0	0	0	0	0	0	0	0	0	0	0	0	0	0	0	0	0	0	0	0	0	0	0	0	0	0	0	0	0	0	0	0	0
012419	16:23:02	16:37:19	855514	5.0.10.0	4_exp_EVA_AMP_AWA_CON	90	Rpleas_acq	Same	Rpleas	Bmasked	CS_B	1pleas	distractor2	EVAbeforeCON	AMP_distractor	AMP1_masked	8	15	0	0	300	300	0	0	682	50	-90,8203125	0	0	0	0	1	blank2r.bmp	0	1	JCRD	0	1	blank2r.bmp	79	108	pic108.bmp	199	1	whitenoise_No3.bmp	306	0	0	0	0	0	0	0	0	0	0	0	0	0	0	0	0	0	0	0	0	0	0	0	0	0	0	0	0	0	0	0	0	0	0	0	0	0	0	0
012419	16:23:02	16:37:20	857406	5.0.10.0	4_exp_EVA_AMP_AWA_CON	90	Rpleas_acq	Same	Rpleas	Bmasked	CS_B	1pleas	distractor2	EVAbeforeCON	AMP_distractor	AMP1_masked	8	16	0	0	300	300	0	0	969	46	-90,8203125	0	0	0	0	1	blank2r.bmp	0	1	JCRD	0	1	blank2r.bmp	79	93	pic93.bmp	199	1	whitenoise_No3.bmp	306	0	0	0	0	0	0	0	0	0	0	0	0	0	0	0	0	0	0	0	0	0	0	0	0	0	0	0	0	0	0	0	0	0	0	0	0	0	0	0
012419	16:23:02	16:37:22	858992	5.0.10.0	4_exp_EVA_AMP_AWA_CON	90	Rpleas_acq	Same	Rpleas	Bmasked	CS_B	1pleas	distractor2	EVAbeforeCON	AMP_distractor	AMP1_masked	8	17	0	0	300	300	0	0	675	50	-90,8203125	0	0	0	0	1	blank2r.bmp	0	1	JCRD	0	1	blank2r.bmp	79	14	pic14.bmp	199	1	whitenoise_No3.bmp	306	0	0	0	0	0	0	0	0	0	0	0	0	0	0	0	0	0	0	0	0	0	0	0	0	0	0	0	0	0	0	0	0	0	0	0	0	0	0	0
012419	16:23:02	16:37:24	860591	5.0.10.0	4_exp_EVA_AMP_AWA_CON	90	Rpleas_acq	Same	Rpleas	Bmasked	CS_B	1pleas	distractor2	EVAbeforeCON	AMP_CSpleas	AMP1_masked	8	18	0	0	300	300	0	0	678	50	-90,8203125	1	0	0	0	1	blank2r.bmp	0	1	BMVZ	0	1	blank2r.bmp	79	128	pic128.bmp	199	1	whitenoise_No3.bmp	306	0	0	0	0	0	0	0	0	0	0	0	0	0	0	0	0	0	0	0	0	0	0	0	0	0	0	0	0	0	0	0	0	0	0	0	0	0	0	0
012419	16:23:02	16:37:26	862577	5.0.10.0	4_exp_EVA_AMP_AWA_CON	90	Rpleas_acq	Same	Rpleas	Bmasked	CS_B	1pleas	distractor2	EVAbeforeCON	AMP_CSunple	AMP1_masked	8	19	0	0	300	300	0	0	1058	50	-90,8203125	0	0	0	0	1	blank2r.bmp	0	1	GKQX	0	1	blank2r.bmp	79	137	pic137.bmp	199	1	whitenoise_No3.bmp	306	0	0	0	0	0	0	0	0	0	0	0	0	0	0	0	0	0	0	0	0	0	0	0	0	0	0	0	0	0	0	0	0	0	0	0	0	0	0	0
012419	16:23:02	16:37:27	864283	5.0.10.0	4_exp_EVA_AMP_AWA_CON	90	Rpleas_acq	Same	Rpleas	Bmasked	CS_B	1pleas	distractor2	EVAbeforeCON	AMP_CSunple	AMP1_masked	8	20	0	0	300	300	0	0	779	50	-90,8203125	0	0	0	0	1	blank2r.bmp	0	1	GKQX	0	1	blank2r.bmp	79	48	pic48.bmp	199	1	whitenoise_No3.bmp	306	0	0	0	0	0	0	0	0	0	0	0	0	0	0	0	0	0	0	0	0	0	0	0	0	0	0	0	0	0	0	0	0	0	0	0	0	0	0	0
012419	16:23:02	16:37:29	865723	5.0.10.0	4_exp_EVA_AMP_AWA_CON	90	Rpleas_acq	Same	Rpleas	Bmasked	CS_B	1pleas	distractor2	EVAbeforeCON	AMP_CSpleas	AMP1_masked	8	21	0	0	300	300	0	0	512	46	-90,8203125	0	0	0	0	1	blank2r.bmp	0	1	BMVZ	0	1	blank2r.bmp	79	140	pic140.bmp	199	1	whitenoise_No3.bmp	306	0	0	0	0	0	0	0	0	0	0	0	0	0	0	0	0	0	0	0	0	0	0	0	0	0	0	0	0	0	0	0	0	0	0	0	0	0	0	0
012419	16:23:02	16:37:30	867175	5.0.10.0	4_exp_EVA_AMP_AWA_CON	90	Rpleas_acq	Same	Rpleas	Bmasked	CS_B	1pleas	distractor2	EVAbeforeCON	AMP_CSpleas	AMP1_masked	8	22	0	0	300	300	0	0	539	46	-90,8203125	0	0	0	0	1	blank2r.bmp	0	1	BMVZ	0	1	blank2r.bmp	79	147	pic147.bmp	199	1	whitenoise_No3.bmp	306	0	0	0	0	0	0	0	0	0	0	0	0	0	0	0	0	0	0	0	0	0	0	0	0	0	0	0	0	0	0	0	0	0	0	0	0	0	0	0
012419	16:23:02	16:37:32	868708	5.0.10.0	4_exp_EVA_AMP_AWA_CON	90	Rpleas_acq	Same	Rpleas	Bmasked	CS_B	1pleas	distractor2	EVAbeforeCON	AMP_distractor	AMP1_masked	8	23	0	0	300	300	0	0	614	46	-90,8203125	0	0	0	0	1	blank2r.bmp	0	1	JCRD	0	1	blank2r.bmp	79	98	pic98.bmp	199	1	whitenoise_No3.bmp	306	0	0	0	0	0	0	0	0	0	0	0	0	0	0	0	0	0	0	0	0	0	0	0	0	0	0	0	0	0	0	0	0	0	0	0	0	0	0	0
012419	16:23:02	16:37:33	870094	5.0.10.0	4_exp_EVA_AMP_AWA_CON	90	Rpleas_acq	Same	Rpleas	Bmasked	CS_B	1pleas	distractor2	EVAbeforeCON	AMP_distractor	AMP1_masked	8	24	0	0	300	300	0	0	472	50	-90,8203125	0	0	0	0	1	blank2r.bmp	0	1	JCRD	0	1	blank2r.bmp	79	21	pic21.bmp	199	1	whitenoise_No3.bmp	306	0	0	0	0	0	0	0	0	0	0	0	0	0	0	0	0	0	0	0	0	0	0	0	0	0	0	0	0	0	0	0	0	0	0	0	0	0	0	0
012419	16:23:02	16:37:35	871520	5.0.10.0	4_exp_EVA_AMP_AWA_CON	90	Rpleas_acq	Same	Rpleas	Bmasked	CS_B	1pleas	distractor2	EVAbeforeCON	AMP_CSpleas	AMP1_masked	8	25	0	0	300	300	0	0	514	50	-90,8203125	1	0	0	0	1	blank2r.bmp	0	1	BMVZ	0	1	blank2r.bmp	79	42	pic42.bmp	199	1	whitenoise_No3.bmp	306	0	0	0	0	0	0	0	0	0	0	0	0	0	0	0	0	0	0	0	0	0	0	0	0	0	0	0	0	0	0	0	0	0	0	0	0	0	0	0
012419	16:23:02	16:37:36	873253	5.0.10.0	4_exp_EVA_AMP_AWA_CON	90	Rpleas_acq	Same	Rpleas	Bmasked	CS_B	1pleas	distractor2	EVAbeforeCON	AMP_CSunple	AMP1_masked	8	26	0	0	300	300	0	0	810	50	-90,8203125	0	0	0	0	1	blank2r.bmp	0	1	GKQX	0	1	blank2r.bmp	79	18	pic18.bmp	199	1	whitenoise_No3.bmp	306	0	0	0	0	0	0	0	0	0	0	0	0	0	0	0	0	0	0	0	0	0	0	0	0	0	0	0	0	0	0	0	0	0	0	0	0	0	0	0
012419	16:23:02	16:37:38	874892	5.0.10.0	4_exp_EVA_AMP_AWA_CON	90	Rpleas_acq	Same	Rpleas	Bmasked	CS_B	1pleas	distractor2	EVAbeforeCON	AMP_CSpleas	AMP1_masked	8	27	0	0	300	300	0	0	710	50	-90,8203125	1	0	0	0	1	blank2r.bmp	0	1	BMVZ	0	1	blank2r.bmp	79	7	pic7.bmp	199	1	whitenoise_No3.bmp	306	0	0	0	0	0	0	0	0	0	0	0	0	0	0	0	0	0	0	0	0	0	0	0	0	0	0	0	0	0	0	0	0	0	0	0	0	0	0	0
012419	16:23:02	16:37:39	876398	5.0.10.0	4_exp_EVA_AMP_AWA_CON	90	Rpleas_acq	Same	Rpleas	Bmasked	CS_B	1pleas	distractor2	EVAbeforeCON	AMP_distractor	AMP1_masked	8	28	0	0	300	300	0	0	573	46	-90,8203125	0	0	0	0	1	blank2r.bmp	0	1	JCRD	0	1	blank2r.bmp	79	61	pic61.bmp	199	1	whitenoise_No3.bmp	306	0	0	0	0	0	0	0	0	0	0	0	0	0	0	0	0	0	0	0	0	0	0	0	0	0	0	0	0	0	0	0	0	0	0	0	0	0	0	0
012419	16:23:02	16:37:41	877904	5.0.10.0	4_exp_EVA_AMP_AWA_CON	90	Rpleas_acq	Same	Rpleas	Bmasked	CS_B	1pleas	distractor2	EVAbeforeCON	AMP_distractor	AMP1_masked	8	29	0	0	300	300	0	0	598	46	-90,8203125	0	0	0	0	1	blank2r.bmp	0	1	JCRD	0	1	blank2r.bmp	79	142	pic142.bmp	199	1	whitenoise_No3.bmp	306	0	0	0	0	0	0	0	0	0	0	0	0	0	0	0	0	0	0	0	0	0	0	0	0	0	0	0	0	0	0	0	0	0	0	0	0	0	0	0
012419	16:23:02	16:37:43	879730	5.0.10.0	4_exp_EVA_AMP_AWA_CON	90	Rpleas_acq	Same	Rpleas	Bmasked	CS_B	1pleas	distractor2	EVAbeforeCON	AMP_CSunple	AMP1_masked	8	30	0	0	300	300	0	0	880	50	-90,8203125	0	0	0	0	1	blank2r.bmp	0	1	GKQX	0	1	blank2r.bmp	79	6	pic6.bmp	199	1	whitenoise_No3.bmp	306	0	0	0	0	0	0	0	0	0	0	0	0	0	0	0	0	0	0	0	0	0	0	0	0	0	0	0	0	0	0	0	0	0	0	0	0	0	0	0
012419	16:23:02	16:37:45	881769	5.0.10.0	4_exp_EVA_AMP_AWA_CON	90	Rpleas_acq	Same	Rpleas	Bmasked	CS_B	1pleas	distractor2	EVAbeforeCON	AMP_CSunple	AMP1_masked	8	31	0	0	300	300	0	0	1131	50	-90,8203125	0	0	0	0	1	blank2r.bmp	0	1	GKQX	0	1	blank2r.bmp	79	57	pic57.bmp	199	1	whitenoise_No3.bmp	306	0	0	0	0	0	0	0	0	0	0	0	0	0	0	0	0	0	0	0	0	0	0	0	0	0	0	0	0	0	0	0	0	0	0	0	0	0	0	0
012419	16:23:02	16:37:46	883142	5.0.10.0	4_exp_EVA_AMP_AWA_CON	90	Rpleas_acq	Same	Rpleas	Bmasked	CS_B	1pleas	distractor2	EVAbeforeCON	AMP_CSpleas	AMP1_masked	8	32	0	0	300	300	0	0	445	46	-90,8203125	0	0	0	0	1	blank2r.bmp	0	1	BMVZ	0	1	blank2r.bmp	79	131	pic131.bmp	199	1	whitenoise_No3.bmp	306	0	0	0	0	0	0	0	0	0	0	0	0	0	0	0	0	0	0	0	0	0	0	0	0	0	0	0	0	0	0	0	0	0	0	0	0	0	0	0
012419	16:23:02	16:37:48	884675	5.0.10.0	4_exp_EVA_AMP_AWA_CON	90	Rpleas_acq	Same	Rpleas	Bmasked	CS_B	1pleas	distractor2	EVAbeforeCON	AMP_CSunple	AMP1_masked	8	33	0	0	300	300	0	0	602	46	-90,8203125	1	0	0	0	1	blank2r.bmp	0	1	GKQX	0	1	blank2r.bmp	79	103	pic103.bmp	199	1	whitenoise_No3.bmp	306	0	0	0	0	0	0	0	0	0	0	0	0	0	0	0	0	0	0	0	0	0	0	0	0	0	0	0	0	0	0	0	0	0	0	0	0	0	0	0
012419	16:23:02	16:37:49	885994	5.0.10.0	4_exp_EVA_AMP_AWA_CON	90	Rpleas_acq	Same	Rpleas	Bmasked	CS_B	1pleas	distractor2	EVAbeforeCON	AMP_distractor	AMP1_masked	8	34	0	0	300	300	0	0	403	50	-90,8203125	0	0	0	0	1	blank2r.bmp	0	1	JCRD	0	1	blank2r.bmp	79	80	pic80.bmp	199	1	whitenoise_No3.bmp	306	0	0	0	0	0	0	0	0	0	0	0	0	0	0	0	0	0	0	0	0	0	0	0	0	0	0	0	0	0	0	0	0	0	0	0	0	0	0	0
012419	16:23:02	16:37:51	887540	5.0.10.0	4_exp_EVA_AMP_AWA_CON	90	Rpleas_acq	Same	Rpleas	Bmasked	CS_B	1pleas	distractor2	EVAbeforeCON	AMP_distractor	AMP1_masked	8	35	0	0	300	300	0	0	624	50	-90,8203125	0	0	0	0	1	blank2r.bmp	0	1	JCRD	0	1	blank2r.bmp	79	94	pic94.bmp	199	1	whitenoise_No3.bmp	306	0	0	0	0	0	0	0	0	0	0	0	0	0	0	0	0	0	0	0	0	0	0	0	0	0	0	0	0	0	0	0	0	0	0	0	0	0	0	0
012419	16:23:02	16:37:52	888993	5.0.10.0	4_exp_EVA_AMP_AWA_CON	90	Rpleas_acq	Same	Rpleas	Bmasked	CS_B	1pleas	distractor2	EVAbeforeCON	AMP_CSunple	AMP1_masked	8	36	0	0	300	300	0	0	520	50	-90,8203125	0	0	0	0	1	blank2r.bmp	0	1	GKQX	0	1	blank2r.bmp	79	87	pic87.bmp	199	1	whitenoise_No3.bmp	306	0	0	0	0	0	0	0	0	0	0	0	0	0	0	0	0	0	0	0	0	0	0	0	0	0	0	0	0	0	0	0	0	0	0	0	0	0	0	0
012419	16:23:02	16:37:54	891312	5.0.10.0	4_exp_EVA_AMP_AWA_CON	90	Rpleas_acq	Same	Rpleas	Bmasked	CS_B	1pleas	distractor2	EVAbeforeCON	AMP_CSunple	AMP1_masked	8	37	0	0	300	300	0	0	1386	46	-90,8203125	1	0	0	0	1	blank2r.bmp	0	1	GKQX	0	1	blank2r.bmp	79	127	pic127.bmp	199	1	whitenoise_No3.bmp	306	0	0	0	0	0	0	0	0	0	0	0	0	0	0	0	0	0	0	0	0	0	0	0	0	0	0	0	0	0	0	0	0	0	0	0	0	0	0	0
012419	16:23:02	16:37:56	893058	5.0.10.0	4_exp_EVA_AMP_AWA_CON	90	Rpleas_acq	Same	Rpleas	Bmasked	CS_B	1pleas	distractor2	EVAbeforeCON	AMP_CSunple	AMP1_masked	8	38	0	0	300	300	0	0	825	46	-90,8203125	1	0	0	0	1	blank2r.bmp	0	1	GKQX	0	1	blank2r.bmp	79	153	pic153.bmp	199	1	whitenoise_No3.bmp	306	0	0	0	0	0	0	0	0	0	0	0	0	0	0	0	0	0	0	0	0	0	0	0	0	0	0	0	0	0	0	0	0	0	0	0	0	0	0	0
012419	16:23:02	16:37:58	894497	5.0.10.0	4_exp_EVA_AMP_AWA_CON	90	Rpleas_acq	Same	Rpleas	Bmasked	CS_B	1pleas	distractor2	EVAbeforeCON	AMP_CSpleas	AMP1_masked	8	39	0	0	300	300	0	0	526	50	-90,8203125	1	0	0	0	1	blank2r.bmp	0	1	BMVZ	0	1	blank2r.bmp	79	36	pic36.bmp	199	1	whitenoise_No3.bmp	306	0	0	0	0	0	0	0	0	0	0	0	0	0	0	0	0	0	0	0	0	0	0	0	0	0	0	0	0	0	0	0	0	0	0	0	0	0	0	0
012419	16:23:02	16:37:59	896390	5.0.10.0	4_exp_EVA_AMP_AWA_CON	90	Rpleas_acq	Same	Rpleas	Bmasked	CS_B	1pleas	distractor2	EVAbeforeCON	AMP_CSpleas	AMP1_masked	8	40	0	0	300	300	0	0	965	46	-90,8203125	0	0	0	0	1	blank2r.bmp	0	1	BMVZ	0	1	blank2r.bmp	79	38	pic38.bmp	199	1	whitenoise_No3.bmp	306	0	0	0	0	0	0	0	0	0	0	0	0	0	0	0	0	0	0	0	0	0	0	0	0	0	0	0	0	0	0	0	0	0	0	0	0	0	0	0
012419	16:23:02	16:38:01	897856	5.0.10.0	4_exp_EVA_AMP_AWA_CON	90	Rpleas_acq	Same	Rpleas	Bmasked	CS_B	1pleas	distractor2	EVAbeforeCON	AMP_distractor	AMP1_masked	8	41	0	0	300	300	0	0	551	50	-90,8203125	0	0	0	0	1	blank2r.bmp	0	1	JCRD	0	1	blank2r.bmp	79	30	pic30.bmp	199	1	whitenoise_No3.bmp	306	0	0	0	0	0	0	0	0	0	0	0	0	0	0	0	0	0	0	0	0	0	0	0	0	0	0	0	0	0	0	0	0	0	0	0	0	0	0	0
012419	16:23:02	16:38:03	899655	5.0.10.0	4_exp_EVA_AMP_AWA_CON	90	Rpleas_acq	Same	Rpleas	Bmasked	CS_B	1pleas	distractor2	EVAbeforeCON	AMP_CSpleas	AMP1_masked	8	42	0	0	300	300	0	0	890	50	-90,8203125	1	0	0	0	1	blank2r.bmp	0	1	BMVZ	0	1	blank2r.bmp	79	106	pic106.bmp	199	1	whitenoise_No3.bmp	306	0	0	0	0	0	0	0	0	0	0	0	0	0	0	0	0	0	0	0	0	0	0	0	0	0	0	0	0	0	0	0	0	0	0	0	0	0	0	0
012419	16:23:02	16:38:05	902161	5.0.10.0	4_exp_EVA_AMP_AWA_CON	90	Rpleas_acq	Same	Rpleas	Bmasked	CS_B	1pleas	distractor2	EVAbeforeCON	AMP_distractor	AMP1_masked	8	43	0	0	300	300	0	0	1582	46	-90,8203125	0	0	0	0	1	blank2r.bmp	0	1	JCRD	0	1	blank2r.bmp	79	63	pic63.bmp	199	1	whitenoise_No3.bmp	306	0	0	0	0	0	0	0	0	0	0	0	0	0	0	0	0	0	0	0	0	0	0	0	0	0	0	0	0	0	0	0	0	0	0	0	0	0	0	0
012419	16:23:02	16:38:07	903614	5.0.10.0	4_exp_EVA_AMP_AWA_CON	90	Rpleas_acq	Same	Rpleas	Bmasked	CS_B	1pleas	distractor2	EVAbeforeCON	AMP_CSunple	AMP1_masked	8	44	0	0	300	300	0	0	524	46	-90,8203125	1	0	0	0	1	blank2r.bmp	0	1	GKQX	0	1	blank2r.bmp	79	112	pic112.bmp	199	1	whitenoise_No3.bmp	306	0	0	0	0	0	0	0	0	0	0	0	0	0	0	0	0	0	0	0	0	0	0	0	0	0	0	0	0	0	0	0	0	0	0	0	0	0	0	0
012419	16:23:02	16:38:08	905320	5.0.10.0	4_exp_EVA_AMP_AWA_CON	90	Rpleas_acq	Same	Rpleas	Bmasked	CS_B	1pleas	distractor2	EVAbeforeCON	AMP_distractor	AMP1_masked	8	45	0	0	300	300	0	0	785	50	-90,8203125	0	0	0	0	1	blank2r.bmp	0	1	JCRD	0	1	blank2r.bmp	79	10	pic10.bmp	199	1	whitenoise_No3.bmp	306	0	0	0	0	0	0	0	0	0	0	0	0	0	0	0	0	0	0	0	0	0	0	0	0	0	0	0	0	0	0	0	0	0	0	0	0	0	0	0
012419	16:23:02	16:38:10	907226	5.0.10.0	4_exp_EVA_AMP_AWA_CON	90	Rpleas_acq	Same	Rpleas	Bmasked	CS_B	1pleas	distractor2	EVAbeforeCON	AMP_distractor	AMP1_masked	8	46	0	0	300	300	0	0	994	50	-90,8203125	0	0	0	0	1	blank2r.bmp	0	1	JCRD	0	1	blank2r.bmp	79	81	pic81.bmp	199	1	whitenoise_No3.bmp	306	0	0	0	0	0	0	0	0	0	0	0	0	0	0	0	0	0	0	0	0	0	0	0	0	0	0	0	0	0	0	0	0	0	0	0	0	0	0	0
012419	16:23:02	16:38:12	908998	5.0.10.0	4_exp_EVA_AMP_AWA_CON	90	Rpleas_acq	Same	Rpleas	Bmasked	CS_B	1pleas	distractor2	EVAbeforeCON	AMP_CSpleas	AMP1_masked	8	47	0	0	300	300	0	0	842	50	-90,8203125	1	0	0	0	1	blank2r.bmp	0	1	BMVZ	0	1	blank2r.bmp	79	152	pic152.bmp	199	1	whitenoise_No3.bmp	306	0	0	0	0	0	0	0	0	0	0	0	0	0	0	0	0	0	0	0	0	0	0	0	0	0	0	0	0	0	0	0	0	0	0	0	0	0	0	0
012419	16:23:02	16:38:13	910238	5.0.10.0	4_exp_EVA_AMP_AWA_CON	90	Rpleas_acq	Same	Rpleas	Bmasked	CS_B	1pleas	distractor2	EVAbeforeCON	AMP_CSpleas	AMP1_masked	8	48	0	0	300	300	0	0	323	46	-90,8203125	0	0	0	0	1	blank2r.bmp	0	1	BMVZ	0	1	blank2r.bmp	79	22	pic22.bmp	199	1	whitenoise_No3.bmp	306	0	0	0	0	0	0	0	0	0	0	0	0	0	0	0	0	0	0	0	0	0	0	0	0	0	0	0	0	0	0	0	0	0	0	0	0	0	0	0
012419	16:23:02	16:38:16	912557	5.0.10.0	4_exp_EVA_AMP_AWA_CON	90	Rpleas_acq	Same	Rpleas	Bmasked	CS_B	1pleas	distractor2	EVAbeforeCON	AMP_distractor	AMP1_masked	8	49	0	0	300	300	0	0	1391	50	-90,8203125	0	0	0	0	1	blank2r.bmp	0	1	JCRD	0	1	blank2r.bmp	79	16	pic16.bmp	199	1	whitenoise_No3.bmp	306	0	0	0	0	0	0	0	0	0	0	0	0	0	0	0	0	0	0	0	0	0	0	0	0	0	0	0	0	0	0	0	0	0	0	0	0	0	0	0
012419	16:23:02	16:38:17	914076	5.0.10.0	4_exp_EVA_AMP_AWA_CON	90	Rpleas_acq	Same	Rpleas	Bmasked	CS_B	1pleas	distractor2	EVAbeforeCON	AMP_CSpleas	AMP1_masked	8	50	0	0	300	300	0	0	603	46	-90,8203125	0	0	0	0	1	blank2r.bmp	0	1	BMVZ	0	1	blank2r.bmp	79	74	pic74.bmp	199	1	whitenoise_No3.bmp	306	0	0	0	0	0	0	0	0	0	0	0	0	0	0	0	0	0	0	0	0	0	0	0	0	0	0	0	0	0	0	0	0	0	0	0	0	0	0	0
012419	16:23:02	16:38:18	915475	5.0.10.0	4_exp_EVA_AMP_AWA_CON	90	Rpleas_acq	Same	Rpleas	Bmasked	CS_B	1pleas	distractor2	EVAbeforeCON	AMP_CSunple	AMP1_masked	8	51	0	0	300	300	0	0	472	46	-90,8203125	1	0	0	0	1	blank2r.bmp	0	1	GKQX	0	1	blank2r.bmp	79	149	pic149.bmp	199	1	whitenoise_No3.bmp	306	0	0	0	0	0	0	0	0	0	0	0	0	0	0	0	0	0	0	0	0	0	0	0	0	0	0	0	0	0	0	0	0	0	0	0	0	0	0	0
012419	16:23:02	16:38:28	924672	5.0.10.0	4_exp_EVA_AMP_AWA_CON	90	Rpleas_acq	Same	Rpleas	Bmasked	CS_B	1pleas	distractor2	EVAbeforeCON	AMP_CSunple	AMP23	9	1	0	0	300	300	0	0	1204	50	-90,8203125	0	0	0	0	1	blank2r.bmp	0	1	GKQX	0	1	blank2r.bmp	79	2	pic2.bmp	199	1	whitenoise_No3.bmp	306	0	0	0	0	0	0	0	0	0	0	0	0	0	0	0	0	0	0	0	0	0	0	0	0	0	0	0	0	0	0	0	0	0	0	0	0	0	0	0
012419	16:23:02	16:38:29	926058	5.0.10.0	4_exp_EVA_AMP_AWA_CON	90	Rpleas_acq	Same	Rpleas	Bmasked	CS_B	1pleas	distractor2	EVAbeforeCON	AMP_CSpleas	AMP23	9	2	0	0	300	300	0	0	463	46	-90,8203125	0	0	0	0	1	blank2r.bmp	0	1	BMVZ	0	1	blank2r.bmp	79	101	pic101.bmp	199	1	whitenoise_No3.bmp	306	0	0	0	0	0	0	0	0	0	0	0	0	0	0	0	0	0	0	0	0	0	0	0	0	0	0	0	0	0	0	0	0	0	0	0	0	0	0	0
012419	16:23:02	16:38:31	927631	5.0.10.0	4_exp_EVA_AMP_AWA_CON	90	Rpleas_acq	Same	Rpleas	Bmasked	CS_B	1pleas	distractor2	EVAbeforeCON	AMP_distractor	AMP23	9	3	0	0	300	300	0	0	650	50	-90,8203125	0	0	0	0	1	blank2r.bmp	0	1	JCRD	0	1	blank2r.bmp	79	105	pic105.bmp	199	1	whitenoise_No3.bmp	306	0	0	0	0	0	0	0	0	0	0	0	0	0	0	0	0	0	0	0	0	0	0	0	0	0	0	0	0	0	0	0	0	0	0	0	0	0	0	0
012419	16:23:02	16:38:32	929030	5.0.10.0	4_exp_EVA_AMP_AWA_CON	90	Rpleas_acq	Same	Rpleas	Bmasked	CS_B	1pleas	distractor2	EVAbeforeCON	AMP_CSpleas	AMP23	9	4	0	0	300	300	0	0	472	50	-90,8203125	1	0	0	0	1	blank2r.bmp	0	1	BMVZ	0	1	blank2r.bmp	79	88	pic88.bmp	199	1	whitenoise_No3.bmp	306	0	0	0	0	0	0	0	0	0	0	0	0	0	0	0	0	0	0	0	0	0	0	0	0	0	0	0	0	0	0	0	0	0	0	0	0	0	0	0
012419	16:23:02	16:38:34	930603	5.0.10.0	4_exp_EVA_AMP_AWA_CON	90	Rpleas_acq	Same	Rpleas	Bmasked	CS_B	1pleas	distractor2	EVAbeforeCON	AMP_CSpleas	AMP23	9	5	0	0	300	300	0	0	654	46	-90,8203125	0	0	0	0	1	blank2r.bmp	0	1	BMVZ	0	1	blank2r.bmp	79	117	pic117.bmp	199	1	whitenoise_No3.bmp	306	0	0	0	0	0	0	0	0	0	0	0	0	0	0	0	0	0	0	0	0	0	0	0	0	0	0	0	0	0	0	0	0	0	0	0	0	0	0	0
012419	16:23:02	16:38:35	931909	5.0.10.0	4_exp_EVA_AMP_AWA_CON	90	Rpleas_acq	Same	Rpleas	Bmasked	CS_B	1pleas	distractor2	EVAbeforeCON	AMP_CSpleas	AMP23	9	6	0	0	300	300	0	0	394	46	-90,8203125	0	0	0	0	1	blank2r.bmp	0	1	BMVZ	0	1	blank2r.bmp	79	92	pic92.bmp	199	1	whitenoise_No3.bmp	306	0	0	0	0	0	0	0	0	0	0	0	0	0	0	0	0	0	0	0	0	0	0	0	0	0	0	0	0	0	0	0	0	0	0	0	0	0	0	0
012419	16:23:02	16:38:36	933162	5.0.10.0	4_exp_EVA_AMP_AWA_CON	90	Rpleas_acq	Same	Rpleas	Bmasked	CS_B	1pleas	distractor2	EVAbeforeCON	AMP_distractor	AMP23	9	7	0	0	300	300	0	0	326	50	-90,8203125	0	0	0	0	1	blank2r.bmp	0	1	JCRD	0	1	blank2r.bmp	79	62	pic62.bmp	199	1	whitenoise_No3.bmp	306	0	0	0	0	0	0	0	0	0	0	0	0	0	0	0	0	0	0	0	0	0	0	0	0	0	0	0	0	0	0	0	0	0	0	0	0	0	0	0
012419	16:23:02	16:38:38	934854	5.0.10.0	4_exp_EVA_AMP_AWA_CON	90	Rpleas_acq	Same	Rpleas	Bmasked	CS_B	1pleas	distractor2	EVAbeforeCON	AMP_distractor	AMP23	9	8	0	0	300	300	0	0	780	50	-90,8203125	0	0	0	0	1	blank2r.bmp	0	1	JCRD	0	1	blank2r.bmp	79	104	pic104.bmp	199	1	whitenoise_No3.bmp	306	0	0	0	0	0	0	0	0	0	0	0	0	0	0	0	0	0	0	0	0	0	0	0	0	0	0	0	0	0	0	0	0	0	0	0	0	0	0	0
012419	16:23:02	16:38:39	936214	5.0.10.0	4_exp_EVA_AMP_AWA_CON	90	Rpleas_acq	Same	Rpleas	Bmasked	CS_B	1pleas	distractor2	EVAbeforeCON	AMP_CSunple	AMP23	9	9	0	0	300	300	0	0	432	50	-90,8203125	0	0	0	0	1	blank2r.bmp	0	1	GKQX	0	1	blank2r.bmp	79	73	pic73.bmp	199	1	whitenoise_No3.bmp	306	0	0	0	0	0	0	0	0	0	0	0	0	0	0	0	0	0	0	0	0	0	0	0	0	0	0	0	0	0	0	0	0	0	0	0	0	0	0	0
012419	16:23:02	16:38:41	937720	5.0.10.0	4_exp_EVA_AMP_AWA_CON	90	Rpleas_acq	Same	Rpleas	Bmasked	CS_B	1pleas	distractor2	EVAbeforeCON	AMP_CSunple	AMP23	9	10	0	0	300	300	0	0	577	50	-90,8203125	0	0	0	0	1	blank2r.bmp	0	1	GKQX	0	1	blank2r.bmp	79	75	pic75.bmp	199	1	whitenoise_No3.bmp	306	0	0	0	0	0	0	0	0	0	0	0	0	0	0	0	0	0	0	0	0	0	0	0	0	0	0	0	0	0	0	0	0	0	0	0	0	0	0	0
012419	16:23:02	16:38:42	939132	5.0.10.0	4_exp_EVA_AMP_AWA_CON	90	Rpleas_acq	Same	Rpleas	Bmasked	CS_B	1pleas	distractor2	EVAbeforeCON	AMP_CSpleas	AMP23	9	11	0	0	300	300	0	0	503	46	-90,8203125	0	0	0	0	1	blank2r.bmp	0	1	BMVZ	0	1	blank2r.bmp	79	77	pic77.bmp	199	1	whitenoise_No3.bmp	306	0	0	0	0	0	0	0	0	0	0	0	0	0	0	0	0	0	0	0	0	0	0	0	0	0	0	0	0	0	0	0	0	0	0	0	0	0	0	0
012419	16:23:02	16:38:44	940559	5.0.10.0	4_exp_EVA_AMP_AWA_CON	90	Rpleas_acq	Same	Rpleas	Bmasked	CS_B	1pleas	distractor2	EVAbeforeCON	AMP_CSpleas	AMP23	9	12	0	0	300	300	0	0	497	46	-90,8203125	0	0	0	0	1	blank2r.bmp	0	1	BMVZ	0	1	blank2r.bmp	79	99	pic99.bmp	199	1	whitenoise_No3.bmp	306	0	0	0	0	0	0	0	0	0	0	0	0	0	0	0	0	0	0	0	0	0	0	0	0	0	0	0	0	0	0	0	0	0	0	0	0	0	0	0
012419	16:23:02	16:38:45	941918	5.0.10.0	4_exp_EVA_AMP_AWA_CON	90	Rpleas_acq	Same	Rpleas	Bmasked	CS_B	1pleas	distractor2	EVAbeforeCON	AMP_CSpleas	AMP23	9	13	0	0	300	300	0	0	444	50	-90,8203125	1	0	0	0	1	blank2r.bmp	0	1	BMVZ	0	1	blank2r.bmp	79	67	pic67.bmp	199	1	whitenoise_No3.bmp	306	0	0	0	0	0	0	0	0	0	0	0	0	0	0	0	0	0	0	0	0	0	0	0	0	0	0	0	0	0	0	0	0	0	0	0	0	0	0	0
012419	16:23:02	16:38:47	943597	5.0.10.0	4_exp_EVA_AMP_AWA_CON	90	Rpleas_acq	Same	Rpleas	Bmasked	CS_B	1pleas	distractor2	EVAbeforeCON	AMP_distractor	AMP23	9	14	0	0	300	300	0	0	758	46	-90,8203125	0	0	0	0	1	blank2r.bmp	0	1	JCRD	0	1	blank2r.bmp	79	86	pic86.bmp	199	1	whitenoise_No3.bmp	306	0	0	0	0	0	0	0	0	0	0	0	0	0	0	0	0	0	0	0	0	0	0	0	0	0	0	0	0	0	0	0	0	0	0	0	0	0	0	0
012419	16:23:02	16:38:48	945250	5.0.10.0	4_exp_EVA_AMP_AWA_CON	90	Rpleas_acq	Same	Rpleas	Bmasked	CS_B	1pleas	distractor2	EVAbeforeCON	AMP_CSpleas	AMP23	9	15	0	0	300	300	0	0	727	50	-90,8203125	1	0	0	0	1	blank2r.bmp	0	1	BMVZ	0	1	blank2r.bmp	79	139	pic139.bmp	199	1	whitenoise_No3.bmp	306	0	0	0	0	0	0	0	0	0	0	0	0	0	0	0	0	0	0	0	0	0	0	0	0	0	0	0	0	0	0	0	0	0	0	0	0	0	0	0
012419	16:23:02	16:38:50	946623	5.0.10.0	4_exp_EVA_AMP_AWA_CON	90	Rpleas_acq	Same	Rpleas	Bmasked	CS_B	1pleas	distractor2	EVAbeforeCON	AMP_CSunple	AMP23	9	16	0	0	300	300	0	0	460	50	-90,8203125	0	0	0	0	1	blank2r.bmp	0	1	GKQX	0	1	blank2r.bmp	79	44	pic44.bmp	199	1	whitenoise_No3.bmp	306	0	0	0	0	0	0	0	0	0	0	0	0	0	0	0	0	0	0	0	0	0	0	0	0	0	0	0	0	0	0	0	0	0	0	0	0	0	0	0
012419	16:23:02	16:38:51	948409	5.0.10.0	4_exp_EVA_AMP_AWA_CON	90	Rpleas_acq	Same	Rpleas	Bmasked	CS_B	1pleas	distractor2	EVAbeforeCON	AMP_CSunple	AMP23	9	17	0	0	300	300	0	0	871	46	-90,8203125	1	0	0	0	1	blank2r.bmp	0	1	GKQX	0	1	blank2r.bmp	79	123	pic123.bmp	199	1	whitenoise_No3.bmp	306	0	0	0	0	0	0	0	0	0	0	0	0	0	0	0	0	0	0	0	0	0	0	0	0	0	0	0	0	0	0	0	0	0	0	0	0	0	0	0
012419	16:23:02	16:38:53	950155	5.0.10.0	4_exp_EVA_AMP_AWA_CON	90	Rpleas_acq	Same	Rpleas	Bmasked	CS_B	1pleas	distractor2	EVAbeforeCON	AMP_distractor	AMP23	9	18	0	0	300	300	0	0	813	50	-90,8203125	0	0	0	0	1	blank2r.bmp	0	1	JCRD	0	1	blank2r.bmp	79	90	pic90.bmp	199	1	whitenoise_No3.bmp	306	0	0	0	0	0	0	0	0	0	0	0	0	0	0	0	0	0	0	0	0	0	0	0	0	0	0	0	0	0	0	0	0	0	0	0	0	0	0	0
012419	16:23:02	16:38:55	951634	5.0.10.0	4_exp_EVA_AMP_AWA_CON	90	Rpleas_acq	Same	Rpleas	Bmasked	CS_B	1pleas	distractor2	EVAbeforeCON	AMP_CSunple	AMP23	9	19	0	0	300	300	0	0	558	50	-90,8203125	0	0	0	0	1	blank2r.bmp	0	1	GKQX	0	1	blank2r.bmp	79	69	pic69.bmp	199	1	whitenoise_No3.bmp	306	0	0	0	0	0	0	0	0	0	0	0	0	0	0	0	0	0	0	0	0	0	0	0	0	0	0	0	0	0	0	0	0	0	0	0	0	0	0	0
012419	16:23:02	16:38:56	952993	5.0.10.0	4_exp_EVA_AMP_AWA_CON	90	Rpleas_acq	Same	Rpleas	Bmasked	CS_B	1pleas	distractor2	EVAbeforeCON	AMP_CSunple	AMP23	9	20	0	0	300	300	0	0	447	50	-90,8203125	0	0	0	0	1	blank2r.bmp	0	1	GKQX	0	1	blank2r.bmp	79	55	pic55.bmp	199	1	whitenoise_No3.bmp	306	0	0	0	0	0	0	0	0	0	0	0	0	0	0	0	0	0	0	0	0	0	0	0	0	0	0	0	0	0	0	0	0	0	0	0	0	0	0	0
012419	16:23:02	16:38:57	954379	5.0.10.0	4_exp_EVA_AMP_AWA_CON	90	Rpleas_acq	Same	Rpleas	Bmasked	CS_B	1pleas	distractor2	EVAbeforeCON	AMP_CSpleas	AMP23	9	21	0	0	300	300	0	0	455	50	-90,8203125	1	0	0	0	1	blank2r.bmp	0	1	BMVZ	0	1	blank2r.bmp	79	12	pic12.bmp	199	1	whitenoise_No3.bmp	306	0	0	0	0	0	0	0	0	0	0	0	0	0	0	0	0	0	0	0	0	0	0	0	0	0	0	0	0	0	0	0	0	0	0	0	0	0	0	0
012419	16:23:02	16:38:59	955752	5.0.10.0	4_exp_EVA_AMP_AWA_CON	90	Rpleas_acq	Same	Rpleas	Bmasked	CS_B	1pleas	distractor2	EVAbeforeCON	AMP_CSpleas	AMP23	9	22	0	0	300	300	0	0	452	46	-90,8203125	0	0	0	0	1	blank2r.bmp	0	1	BMVZ	0	1	blank2r.bmp	79	110	pic110.bmp	199	1	whitenoise_No3.bmp	306	0	0	0	0	0	0	0	0	0	0	0	0	0	0	0	0	0	0	0	0	0	0	0	0	0	0	0	0	0	0	0	0	0	0	0	0	0	0	0
012419	16:23:02	16:39:00	957138	5.0.10.0	4_exp_EVA_AMP_AWA_CON	90	Rpleas_acq	Same	Rpleas	Bmasked	CS_B	1pleas	distractor2	EVAbeforeCON	AMP_CSpleas	AMP23	9	23	0	0	300	300	0	0	477	50	-90,8203125	1	0	0	0	1	blank2r.bmp	0	1	BMVZ	0	1	blank2r.bmp	79	148	pic148.bmp	199	1	whitenoise_No3.bmp	306	0	0	0	0	0	0	0	0	0	0	0	0	0	0	0	0	0	0	0	0	0	0	0	0	0	0	0	0	0	0	0	0	0	0	0	0	0	0	0
012419	16:23:02	16:39:02	958684	5.0.10.0	4_exp_EVA_AMP_AWA_CON	90	Rpleas_acq	Same	Rpleas	Bmasked	CS_B	1pleas	distractor2	EVAbeforeCON	AMP_CSunple	AMP23	9	24	0	0	300	300	0	0	624	50	-90,8203125	0	0	0	0	1	blank2r.bmp	0	1	GKQX	0	1	blank2r.bmp	79	132	pic132.bmp	199	1	whitenoise_No3.bmp	306	0	0	0	0	0	0	0	0	0	0	0	0	0	0	0	0	0	0	0	0	0	0	0	0	0	0	0	0	0	0	0	0	0	0	0	0	0	0	0
012419	16:23:02	16:39:05	961617	5.0.10.0	4_exp_EVA_AMP_AWA_CON	90	Rpleas_acq	Same	Rpleas	Bmasked	CS_B	1pleas	distractor2	EVAbeforeCON	AMP_distractor	AMP23	9	25	0	0	300	300	0	0	2010	46	-90,8203125	0	0	0	0	1	blank2r.bmp	0	1	JCRD	0	1	blank2r.bmp	79	27	pic27.bmp	199	1	whitenoise_No3.bmp	306	0	0	0	0	0	0	0	0	0	0	0	0	0	0	0	0	0	0	0	0	0	0	0	0	0	0	0	0	0	0	0	0	0	0	0	0	0	0	0
012419	16:23:02	16:39:06	963136	5.0.10.0	4_exp_EVA_AMP_AWA_CON	90	Rpleas_acq	Same	Rpleas	Bmasked	CS_B	1pleas	distractor2	EVAbeforeCON	AMP_CSpleas	AMP23	9	26	0	0	300	300	0	0	588	46	-90,8203125	0	0	0	0	1	blank2r.bmp	0	1	BMVZ	0	1	blank2r.bmp	79	40	pic40.bmp	199	1	whitenoise_No3.bmp	306	0	0	0	0	0	0	0	0	0	0	0	0	0	0	0	0	0	0	0	0	0	0	0	0	0	0	0	0	0	0	0	0	0	0	0	0	0	0	0
012419	16:23:02	16:39:08	964922	5.0.10.0	4_exp_EVA_AMP_AWA_CON	90	Rpleas_acq	Same	Rpleas	Bmasked	CS_B	1pleas	distractor2	EVAbeforeCON	AMP_CSunple	AMP23	9	27	0	0	300	300	0	0	863	46	-90,8203125	1	0	0	0	1	blank2r.bmp	0	1	GKQX	0	1	blank2r.bmp	79	85	pic85.bmp	199	1	whitenoise_No3.bmp	306	0	0	0	0	0	0	0	0	0	0	0	0	0	0	0	0	0	0	0	0	0	0	0	0	0	0	0	0	0	0	0	0	0	0	0	0	0	0	0
