date	time	script.currenttime	script.elapsedtime	build	script.currentexpt	subject	expressions.LRpleas_acq	expressions.SameOppo	expressions.condition_Lpleas	expressions.ABmasked	expressions.conditionCS_A	expressions.condition_1pleas	expressions.condition_distractor_AMP	expressions.AWACON_AMPEVA_first	trialcode	blockcode	blocknum	trialnum	windowcenter	inwindow	pretrialpause	posttrialpause	trialduration	trialtimeout	latency	response	expressions.correctedscore	correct	values.vis_performance	values.vis_rating_sum	values.vis_rating_mean	stimulusnumber1	stimulusitem1	stimulusonset1	stimulusnumber2	stimulusitem2	stimulusonset2	stimulusnumber3	stimulusitem3	stimulusonset3	stimulusnumber4	stimulusitem4	stimulusonset4	stimulusnumber5	stimulusitem5	stimulusonset5	stimulusnumber6	stimulusitem6	stimulusonset6	stimulusnumber7	stimulusitem7	stimulusonset7	stimulusnumber8	stimulusitem8	stimulusonset8	stimulusnumber9	stimulusitem9	stimulusonset9	stimulusnumber10	stimulusitem10	stimulusonset10	stimulusnumber11	stimulusitem11	stimulusonset11	stimulusnumber12	stimulusitem12	stimulusonset12	stimulusnumber13	stimulusitem13	stimulusonset13	stimulusnumber14	stimulusitem14	stimulusonset14	stimulusnumber15	stimulusitem15	stimulusonset15	stimulusnumber16	stimulusitem16	stimulusonset16	stimulusnumber17	stimulusitem17	stimulusonset17	stimulusnumber18	stimulusitem18	stimulusonset18
012219	10:04:05	10:06:04	116577	5.0.10.0	4_exp_EVA_AMP_AWA_CON	82	Rpleas_acq	Same	Rpleas	Amasked	CS_A	2pleas	distractor1	EVAbeforeCON	acq_US_unple_masked	acq1_masked	1	1	0	0	300	300	0	0	1168	46	0	1	0	0	0	1	blank2r.bmp	0	1	+	0	8	C4r.bmp	492	1	blank2r.bmp	786	1	CPLW	786	1	blank2r.bmp	866	4	krise	866	0	0	0	0	0	0	0	0	0	0	0	0	0	0	0	0	0	0	0	0	0	0	0	0	0	0	0	0	0	0	0	0	0
012219	10:04:05	10:06:06	118549	5.0.10.0	4_exp_EVA_AMP_AWA_CON	82	Rpleas_acq	Same	Rpleas	Amasked	CS_A	2pleas	distractor1	EVAbeforeCON	acq_US_pleas_masked	acq1_masked	1	2	0	0	300	300	0	0	486	50	0	1	0	0	0	1	blank2r.bmp	0	1	+	0	5	C1r.bmp	492	1	blank2r.bmp	786	1	DHJF	786	1	blank2r.bmp	866	1	vertrauen	866	0	0	0	0	0	0	0	0	0	0	0	0	0	0	0	0	0	0	0	0	0	0	0	0	0	0	0	0	0	0	0	0	0
012219	10:04:05	10:06:08	120749	5.0.10.0	4_exp_EVA_AMP_AWA_CON	82	Rpleas_acq	Same	Rpleas	Amasked	CS_A	2pleas	distractor1	EVAbeforeCON	acq_US_unple_masked	acq1_masked	1	3	0	0	300	300	0	0	720	46	0	1	0	0	0	1	blank2r.bmp	0	1	+	0	1	B1r.bmp	492	1	blank2r.bmp	786	1	CPLW	786	1	blank2r.bmp	866	1	versagen	866	0	0	0	0	0	0	0	0	0	0	0	0	0	0	0	0	0	0	0	0	0	0	0	0	0	0	0	0	0	0	0	0	0
012219	10:04:05	10:06:10	123214	5.0.10.0	4_exp_EVA_AMP_AWA_CON	82	Rpleas_acq	Same	Rpleas	Amasked	CS_A	2pleas	distractor1	EVAbeforeCON	acq_new_pleas_masked	acq1_masked	1	4	0	0	300	300	0	0	994	50	0	1	0	0	0	1	blank2r.bmp	0	1	+	0	7	C3r.bmp	492	1	blank2r.bmp	786	6	C2r.bmp	786	1	blank2r.bmp	866	3	anregung	866	0	0	0	0	0	0	0	0	0	0	0	0	0	0	0	0	0	0	0	0	0	0	0	0	0	0	0	0	0	0	0	0	0
012219	10:04:05	10:06:13	125560	5.0.10.0	4_exp_EVA_AMP_AWA_CON	82	Rpleas_acq	Same	Rpleas	Amasked	CS_A	2pleas	distractor1	EVAbeforeCON	acq_new_pleas_masked	acq1_masked	1	5	0	0	300	300	0	0	867	50	0	1	0	0	0	1	blank2r.bmp	0	1	+	0	4	B4r.bmp	492	1	blank2r.bmp	786	7	C3r.bmp	786	1	blank2r.bmp	866	5	gesittet	866	0	0	0	0	0	0	0	0	0	0	0	0	0	0	0	0	0	0	0	0	0	0	0	0	0	0	0	0	0	0	0	0	0
012219	10:04:05	10:06:15	127732	5.0.10.0	4_exp_EVA_AMP_AWA_CON	82	Rpleas_acq	Same	Rpleas	Amasked	CS_A	2pleas	distractor1	EVAbeforeCON	acq_new_pleas_masked	acq1_masked	1	6	0	0	300	300	0	0	695	50	0	1	0	0	0	1	blank2r.bmp	0	1	+	0	6	C2r.bmp	492	1	blank2r.bmp	786	5	C1r.bmp	786	1	blank2r.bmp	866	6	gütig	866	0	0	0	0	0	0	0	0	0	0	0	0	0	0	0	0	0	0	0	0	0	0	0	0	0	0	0	0	0	0	0	0	0
012219	10:04:05	10:06:17	129891	5.0.10.0	4_exp_EVA_AMP_AWA_CON	82	Rpleas_acq	Same	Rpleas	Amasked	CS_A	2pleas	distractor1	EVAbeforeCON	acq_new_unple_masked	acq1_masked	1	7	0	0	300	300	0	0	670	46	0	1	0	0	0	1	blank2r.bmp	0	1	+	0	3	B3r.bmp	492	1	blank2r.bmp	786	1	B1r.bmp	786	1	blank2r.bmp	866	4	gemein	866	0	0	0	0	0	0	0	0	0	0	0	0	0	0	0	0	0	0	0	0	0	0	0	0	0	0	0	0	0	0	0	0	0
012219	10:04:05	10:06:19	132010	5.0.10.0	4_exp_EVA_AMP_AWA_CON	82	Rpleas_acq	Same	Rpleas	Amasked	CS_A	2pleas	distractor1	EVAbeforeCON	acq_new_unple_masked	acq1_masked	1	8	0	0	300	300	0	0	644	46	0	1	0	0	0	1	blank2r.bmp	0	1	+	0	2	B2r.bmp	492	1	blank2r.bmp	786	8	C4r.bmp	786	1	blank2r.bmp	866	1	bange	866	0	0	0	0	0	0	0	0	0	0	0	0	0	0	0	0	0	0	0	0	0	0	0	0	0	0	0	0	0	0	0	0	0
012219	10:04:05	10:06:21	134090	5.0.10.0	4_exp_EVA_AMP_AWA_CON	82	Rpleas_acq	Same	Rpleas	Amasked	CS_A	2pleas	distractor1	EVAbeforeCON	acq_US_pleas_masked	acq1_masked	1	9	0	0	300	300	0	0	600	50	0	1	0	0	0	1	blank2r.bmp	0	1	+	0	7	C3r.bmp	492	1	blank2r.bmp	786	1	DHJF	786	1	blank2r.bmp	866	3	sonnig	866	0	0	0	0	0	0	0	0	0	0	0	0	0	0	0	0	0	0	0	0	0	0	0	0	0	0	0	0	0	0	0	0	0
012219	10:04:05	10:06:23	136155	5.0.10.0	4_exp_EVA_AMP_AWA_CON	82	Rpleas_acq	Same	Rpleas	Amasked	CS_A	2pleas	distractor1	EVAbeforeCON	acq_new_unple_masked	acq1_masked	1	10	0	0	300	300	0	0	592	46	0	1	0	0	0	1	blank2r.bmp	0	1	+	0	4	B4r.bmp	492	1	blank2r.bmp	786	2	B2r.bmp	786	1	blank2r.bmp	866	2	krank	866	0	0	0	0	0	0	0	0	0	0	0	0	0	0	0	0	0	0	0	0	0	0	0	0	0	0	0	0	0	0	0	0	0
012219	10:04:05	10:06:25	138181	5.0.10.0	4_exp_EVA_AMP_AWA_CON	82	Rpleas_acq	Same	Rpleas	Amasked	CS_A	2pleas	distractor1	EVAbeforeCON	acq_US_unple_masked	acq1_masked	1	11	0	0	300	300	0	0	542	46	0	1	0	0	0	1	blank2r.bmp	0	1	+	0	3	B3r.bmp	492	1	blank2r.bmp	786	1	CPLW	786	1	blank2r.bmp	866	3	sterben	866	0	0	0	0	0	0	0	0	0	0	0	0	0	0	0	0	0	0	0	0	0	0	0	0	0	0	0	0	0	0	0	0	0
012219	10:04:05	10:06:27	140220	5.0.10.0	4_exp_EVA_AMP_AWA_CON	82	Rpleas_acq	Same	Rpleas	Amasked	CS_A	2pleas	distractor1	EVAbeforeCON	acq_US_pleas_masked	acq1_masked	1	12	0	0	300	300	0	0	555	50	0	1	0	0	0	1	blank2r.bmp	0	1	+	0	8	C4r.bmp	492	1	blank2r.bmp	786	1	DHJF	786	1	blank2r.bmp	866	5	vergnügt	866	0	0	0	0	0	0	0	0	0	0	0	0	0	0	0	0	0	0	0	0	0	0	0	0	0	0	0	0	0	0	0	0	0
012219	10:04:05	10:06:30	142566	5.0.10.0	4_exp_EVA_AMP_AWA_CON	82	Rpleas_acq	Same	Rpleas	Amasked	CS_A	2pleas	distractor1	EVAbeforeCON	acq_new_unple_masked	acq1_masked	1	13	0	0	300	300	0	0	857	46	0	1	0	0	0	1	blank2r.bmp	0	1	+	0	2	B2r.bmp	492	1	blank2r.bmp	786	3	B3r.bmp	786	1	blank2r.bmp	866	6	gierig	866	0	0	0	0	0	0	0	0	0	0	0	0	0	0	0	0	0	0	0	0	0	0	0	0	0	0	0	0	0	0	0	0	0
012219	10:04:05	10:06:32	144579	5.0.10.0	4_exp_EVA_AMP_AWA_CON	82	Rpleas_acq	Same	Rpleas	Amasked	CS_A	2pleas	distractor1	EVAbeforeCON	acq_US_unple_masked	acq1_masked	1	14	0	0	300	300	0	0	519	46	0	1	0	0	0	1	blank2r.bmp	0	1	+	0	6	C2r.bmp	492	1	blank2r.bmp	786	1	CPLW	786	1	blank2r.bmp	866	6	töten	866	0	0	0	0	0	0	0	0	0	0	0	0	0	0	0	0	0	0	0	0	0	0	0	0	0	0	0	0	0	0	0	0	0
012219	10:04:05	10:06:34	146618	5.0.10.0	4_exp_EVA_AMP_AWA_CON	82	Rpleas_acq	Same	Rpleas	Amasked	CS_A	2pleas	distractor1	EVAbeforeCON	acq_US_pleas_masked	acq1_masked	1	15	0	0	300	300	0	0	567	50	0	1	0	0	0	1	blank2r.bmp	0	1	+	0	1	B1r.bmp	492	1	blank2r.bmp	786	1	DHJF	786	1	blank2r.bmp	866	6	träumen	866	0	0	0	0	0	0	0	0	0	0	0	0	0	0	0	0	0	0	0	0	0	0	0	0	0	0	0	0	0	0	0	0	0
012219	10:04:05	10:06:36	148883	5.0.10.0	4_exp_EVA_AMP_AWA_CON	82	Rpleas_acq	Same	Rpleas	Amasked	CS_A	2pleas	distractor1	EVAbeforeCON	acq_US_unple_masked	acq1_masked	1	16	0	0	300	300	0	0	782	46	0	1	0	0	0	1	blank2r.bmp	0	1	+	0	5	C1r.bmp	492	1	blank2r.bmp	786	1	CPLW	786	1	blank2r.bmp	866	2	engstirnig	866	0	0	0	0	0	0	0	0	0	0	0	0	0	0	0	0	0	0	0	0	0	0	0	0	0	0	0	0	0	0	0	0	0
012219	10:04:05	10:06:38	150923	5.0.10.0	4_exp_EVA_AMP_AWA_CON	82	Rpleas_acq	Same	Rpleas	Amasked	CS_A	2pleas	distractor1	EVAbeforeCON	acq_new_pleas_masked	acq1_masked	1	17	0	0	300	300	0	0	555	50	0	1	0	0	0	1	blank2r.bmp	0	1	+	0	3	B3r.bmp	492	1	blank2r.bmp	786	4	B4r.bmp	786	1	blank2r.bmp	866	1	besonnen	866	0	0	0	0	0	0	0	0	0	0	0	0	0	0	0	0	0	0	0	0	0	0	0	0	0	0	0	0	0	0	0	0	0
012219	10:04:05	10:06:40	153082	5.0.10.0	4_exp_EVA_AMP_AWA_CON	82	Rpleas_acq	Same	Rpleas	Amasked	CS_A	2pleas	distractor1	EVAbeforeCON	acq_new_pleas_masked	acq1_masked	1	18	0	0	300	300	0	0	672	50	0	1	0	0	0	1	blank2r.bmp	0	1	+	0	4	B4r.bmp	492	1	blank2r.bmp	786	3	B3r.bmp	786	1	blank2r.bmp	866	2	kreativ	866	0	0	0	0	0	0	0	0	0	0	0	0	0	0	0	0	0	0	0	0	0	0	0	0	0	0	0	0	0	0	0	0	0
012219	10:04:05	10:06:42	155001	5.0.10.0	4_exp_EVA_AMP_AWA_CON	82	Rpleas_acq	Same	Rpleas	Amasked	CS_A	2pleas	distractor1	EVAbeforeCON	acq_new_pleas_masked	acq1_masked	1	19	0	0	300	300	0	0	433	50	0	1	0	0	0	1	blank2r.bmp	0	1	+	0	7	C3r.bmp	492	1	blank2r.bmp	786	1	B1r.bmp	786	1	blank2r.bmp	866	4	genießen	866	0	0	0	0	0	0	0	0	0	0	0	0	0	0	0	0	0	0	0	0	0	0	0	0	0	0	0	0	0	0	0	0	0
012219	10:04:05	10:06:44	157373	5.0.10.0	4_exp_EVA_AMP_AWA_CON	82	Rpleas_acq	Same	Rpleas	Amasked	CS_A	2pleas	distractor1	EVAbeforeCON	acq_new_unple_masked	acq1_masked	1	20	0	0	300	300	0	0	666	50	0	0	0	0	0	1	blank2r.bmp	0	1	+	0	6	C2r.bmp	492	1	blank2r.bmp	786	2	B2r.bmp	786	1	blank2r.bmp	866	5	geizig	866	1	FEHLER	1572	0	0	0	0	0	0	0	0	0	0	0	0	0	0	0	0	0	0	0	0	0	0	0	0	0	0	0	0	0	0
012219	10:04:05	10:06:46	159519	5.0.10.0	4_exp_EVA_AMP_AWA_CON	82	Rpleas_acq	Same	Rpleas	Amasked	CS_A	2pleas	distractor1	EVAbeforeCON	acq_US_unple_masked	acq1_masked	1	21	0	0	300	300	0	0	887	46	0	1	0	0	0	1	blank2r.bmp	0	1	+	0	8	C4r.bmp	492	1	blank2r.bmp	786	1	CPLW	786	1	blank2r.bmp	866	5	verbissen	866	0	0	0	0	0	0	0	0	0	0	0	0	0	0	0	0	0	0	0	0	0	0	0	0	0	0	0	0	0	0	0	0	0
012219	10:04:05	10:06:49	161638	5.0.10.0	4_exp_EVA_AMP_AWA_CON	82	Rpleas_acq	Same	Rpleas	Amasked	CS_A	2pleas	distractor1	EVAbeforeCON	acq_US_pleas_masked	acq1_masked	1	22	0	0	300	300	0	0	631	50	0	1	0	0	0	1	blank2r.bmp	0	1	+	0	1	B1r.bmp	492	1	blank2r.bmp	786	1	DHJF	786	1	blank2r.bmp	866	4	kuss	866	0	0	0	0	0	0	0	0	0	0	0	0	0	0	0	0	0	0	0	0	0	0	0	0	0	0	0	0	0	0	0	0	0
012219	10:04:05	10:06:51	164197	5.0.10.0	4_exp_EVA_AMP_AWA_CON	82	Rpleas_acq	Same	Rpleas	Amasked	CS_A	2pleas	distractor1	EVAbeforeCON	acq_US_pleas_masked	acq1_masked	1	23	0	0	300	300	0	0	1090	50	0	1	0	0	0	1	blank2r.bmp	0	1	+	0	2	B2r.bmp	492	1	blank2r.bmp	786	1	DHJF	786	1	blank2r.bmp	866	2	engagiert	866	0	0	0	0	0	0	0	0	0	0	0	0	0	0	0	0	0	0	0	0	0	0	0	0	0	0	0	0	0	0	0	0	0
012219	10:04:05	10:06:53	166369	5.0.10.0	4_exp_EVA_AMP_AWA_CON	82	Rpleas_acq	Same	Rpleas	Amasked	CS_A	2pleas	distractor1	EVAbeforeCON	acq_new_unple_masked	acq1_masked	1	24	0	0	300	300	0	0	685	46	0	1	0	0	0	1	blank2r.bmp	0	1	+	0	5	C1r.bmp	492	1	blank2r.bmp	786	4	B4r.bmp	786	1	blank2r.bmp	866	3	ausrottung	866	0	0	0	0	0	0	0	0	0	0	0	0	0	0	0	0	0	0	0	0	0	0	0	0	0	0	0	0	0	0	0	0	0
012219	10:04:05	10:06:55	168448	5.0.10.0	4_exp_EVA_AMP_AWA_CON	82	Rpleas_acq	Same	Rpleas	Amasked	CS_A	2pleas	distractor1	EVAbeforeCON	acq_US_pleas_masked	acq1_masked	1	25	0	0	300	300	0	0	589	50	0	1	0	0	0	1	blank2r.bmp	0	1	+	0	2	B2r.bmp	492	1	blank2r.bmp	786	1	DHJF	786	1	blank2r.bmp	866	6	träumen	866	0	0	0	0	0	0	0	0	0	0	0	0	0	0	0	0	0	0	0	0	0	0	0	0	0	0	0	0	0	0	0	0	0
012219	10:04:05	10:06:58	170994	5.0.10.0	4_exp_EVA_AMP_AWA_CON	82	Rpleas_acq	Same	Rpleas	Amasked	CS_A	2pleas	distractor1	EVAbeforeCON	acq_US_pleas_masked	acq1_masked	1	26	0	0	300	300	0	0	1054	50	0	1	0	0	0	1	blank2r.bmp	0	1	+	0	6	C2r.bmp	492	1	blank2r.bmp	786	1	DHJF	786	1	blank2r.bmp	866	2	engagiert	866	0	0	0	0	0	0	0	0	0	0	0	0	0	0	0	0	0	0	0	0	0	0	0	0	0	0	0	0	0	0	0	0	0
012219	10:04:05	10:07:00	173100	5.0.10.0	4_exp_EVA_AMP_AWA_CON	82	Rpleas_acq	Same	Rpleas	Amasked	CS_A	2pleas	distractor1	EVAbeforeCON	acq_new_unple_masked	acq1_masked	1	27	0	0	300	300	0	0	637	46	0	1	0	0	0	1	blank2r.bmp	0	1	+	0	4	B4r.bmp	492	1	blank2r.bmp	786	6	C2r.bmp	786	1	blank2r.bmp	866	3	ausrottung	866	0	0	0	0	0	0	0	0	0	0	0	0	0	0	0	0	0	0	0	0	0	0	0	0	0	0	0	0	0	0	0	0	0
012219	10:04:05	10:07:02	175259	5.0.10.0	4_exp_EVA_AMP_AWA_CON	82	Rpleas_acq	Same	Rpleas	Amasked	CS_A	2pleas	distractor1	EVAbeforeCON	acq_new_pleas_masked	acq1_masked	1	28	0	0	300	300	0	0	662	50	0	1	0	0	0	1	blank2r.bmp	0	1	+	0	3	B3r.bmp	492	1	blank2r.bmp	786	8	C4r.bmp	786	1	blank2r.bmp	866	5	gesittet	866	0	0	0	0	0	0	0	0	0	0	0	0	0	0	0	0	0	0	0	0	0	0	0	0	0	0	0	0	0	0	0	0	0
012219	10:04:05	10:07:04	177271	5.0.10.0	4_exp_EVA_AMP_AWA_CON	82	Rpleas_acq	Same	Rpleas	Amasked	CS_A	2pleas	distractor1	EVAbeforeCON	acq_US_unple_masked	acq1_masked	1	29	0	0	300	300	0	0	525	46	0	1	0	0	0	1	blank2r.bmp	0	1	+	0	5	C1r.bmp	492	1	blank2r.bmp	786	1	CPLW	786	1	blank2r.bmp	866	6	töten	866	0	0	0	0	0	0	0	0	0	0	0	0	0	0	0	0	0	0	0	0	0	0	0	0	0	0	0	0	0	0	0	0	0
012219	10:04:05	10:07:06	179271	5.0.10.0	4_exp_EVA_AMP_AWA_CON	82	Rpleas_acq	Same	Rpleas	Amasked	CS_A	2pleas	distractor1	EVAbeforeCON	acq_US_unple_masked	acq1_masked	1	30	0	0	300	300	0	0	508	46	0	1	0	0	0	1	blank2r.bmp	0	1	+	0	7	C3r.bmp	492	1	blank2r.bmp	786	1	CPLW	786	1	blank2r.bmp	866	3	sterben	866	0	0	0	0	0	0	0	0	0	0	0	0	0	0	0	0	0	0	0	0	0	0	0	0	0	0	0	0	0	0	0	0	0
012219	10:04:05	10:07:08	181376	5.0.10.0	4_exp_EVA_AMP_AWA_CON	82	Rpleas_acq	Same	Rpleas	Amasked	CS_A	2pleas	distractor1	EVAbeforeCON	acq_new_unple_masked	acq1_masked	1	31	0	0	300	300	0	0	620	46	0	1	0	0	0	1	blank2r.bmp	0	1	+	0	8	C4r.bmp	492	1	blank2r.bmp	786	5	C1r.bmp	786	1	blank2r.bmp	866	2	krank	866	0	0	0	0	0	0	0	0	0	0	0	0	0	0	0	0	0	0	0	0	0	0	0	0	0	0	0	0	0	0	0	0	0
012219	10:04:05	10:07:10	183495	5.0.10.0	4_exp_EVA_AMP_AWA_CON	82	Rpleas_acq	Same	Rpleas	Amasked	CS_A	2pleas	distractor1	EVAbeforeCON	acq_new_unple_masked	acq1_masked	1	32	0	0	300	300	0	0	631	46	0	1	0	0	0	1	blank2r.bmp	0	1	+	0	1	B1r.bmp	492	1	blank2r.bmp	786	7	C3r.bmp	786	1	blank2r.bmp	866	5	geizig	866	0	0	0	0	0	0	0	0	0	0	0	0	0	0	0	0	0	0	0	0	0	0	0	0	0	0	0	0	0	0	0	0	0
012219	10:04:05	10:07:12	185508	5.0.10.0	4_exp_EVA_AMP_AWA_CON	82	Rpleas_acq	Same	Rpleas	Amasked	CS_A	2pleas	distractor1	EVAbeforeCON	acq_new_pleas_masked	acq1_masked	1	33	0	0	300	300	0	0	524	50	0	1	0	0	0	1	blank2r.bmp	0	1	+	0	5	C1r.bmp	492	1	blank2r.bmp	786	7	C3r.bmp	786	1	blank2r.bmp	866	4	genießen	866	0	0	0	0	0	0	0	0	0	0	0	0	0	0	0	0	0	0	0	0	0	0	0	0	0	0	0	0	0	0	0	0	0
012219	10:04:05	10:07:15	187547	5.0.10.0	4_exp_EVA_AMP_AWA_CON	82	Rpleas_acq	Same	Rpleas	Amasked	CS_A	2pleas	distractor1	EVAbeforeCON	acq_US_unple_masked	acq1_masked	1	34	0	0	300	300	0	0	554	46	0	1	0	0	0	1	blank2r.bmp	0	1	+	0	1	B1r.bmp	492	1	blank2r.bmp	786	1	CPLW	786	1	blank2r.bmp	866	4	krise	866	0	0	0	0	0	0	0	0	0	0	0	0	0	0	0	0	0	0	0	0	0	0	0	0	0	0	0	0	0	0	0	0	0
012219	10:04:05	10:07:17	189573	5.0.10.0	4_exp_EVA_AMP_AWA_CON	82	Rpleas_acq	Same	Rpleas	Amasked	CS_A	2pleas	distractor1	EVAbeforeCON	acq_US_pleas_masked	acq1_masked	1	35	0	0	300	300	0	0	545	50	0	1	0	0	0	1	blank2r.bmp	0	1	+	0	6	C2r.bmp	492	1	blank2r.bmp	786	1	DHJF	786	1	blank2r.bmp	866	1	vertrauen	866	0	0	0	0	0	0	0	0	0	0	0	0	0	0	0	0	0	0	0	0	0	0	0	0	0	0	0	0	0	0	0	0	0
012219	10:04:05	10:07:18	191492	5.0.10.0	4_exp_EVA_AMP_AWA_CON	82	Rpleas_acq	Same	Rpleas	Amasked	CS_A	2pleas	distractor1	EVAbeforeCON	acq_new_pleas_masked	acq1_masked	1	36	0	0	300	300	0	0	447	50	0	1	0	0	0	1	blank2r.bmp	0	1	+	0	8	C4r.bmp	492	1	blank2r.bmp	786	4	B4r.bmp	786	1	blank2r.bmp	866	1	besonnen	866	0	0	0	0	0	0	0	0	0	0	0	0	0	0	0	0	0	0	0	0	0	0	0	0	0	0	0	0	0	0	0	0	0
012219	10:04:05	10:08:03	236460	5.0.10.0	4_exp_EVA_AMP_AWA_CON	82	Rpleas_acq	Same	Rpleas	Amasked	CS_A	2pleas	distractor1	EVAbeforeCON	acq_US_unple_masked	acq2_masked	2	1	480	0	300	300	0	0	757	46	0	1	0	0	0	1	blank2r.bmp	0	1	+	0	7	C3r.bmp	492	1	blank2r.bmp	786	1	CPLW	786	1	blank2r.bmp	866	2	engstirnig	866	1	!	1319	1	!	-1	0	0	0	0	0	0	0	0	0	0	0	0	0	0	0	0	0	0	0	0	0	0	0	0	0	0	0
012219	10:04:05	10:08:06	238699	5.0.10.0	4_exp_EVA_AMP_AWA_CON	82	Rpleas_acq	Same	Rpleas	Amasked	CS_A	2pleas	distractor1	EVAbeforeCON	acq_US_unple_masked	acq2_masked	2	2	480	1	300	300	0	0	426	46	0	1	0	0	0	1	blank2r.bmp	0	1	+	0	4	B4r.bmp	492	1	blank2r.bmp	786	1	CPLW	786	1	blank2r.bmp	866	1	versagen	866	1	!	1319	1	!	1332	0	0	0	0	0	0	0	0	0	0	0	0	0	0	0	0	0	0	0	0	0	0	0	0	0	0	0
012219	10:04:05	10:08:08	240845	5.0.10.0	4_exp_EVA_AMP_AWA_CON	82	Rpleas_acq	Same	Rpleas	Amasked	CS_A	2pleas	distractor1	EVAbeforeCON	acq_US_unple_masked	acq2_masked	2	3	480	0	300	300	0	0	376	46	0	1	0	0	0	1	blank2r.bmp	0	1	+	0	2	B2r.bmp	492	1	blank2r.bmp	786	1	CPLW	786	1	blank2r.bmp	866	5	verbissen	866	1	!	-1	1	!	-1	0	0	0	0	0	0	0	0	0	0	0	0	0	0	0	0	0	0	0	0	0	0	0	0	0	0	0
012219	10:04:05	10:08:10	243084	5.0.10.0	4_exp_EVA_AMP_AWA_CON	82	Rpleas_acq	Same	Rpleas	Amasked	CS_A	2pleas	distractor1	EVAbeforeCON	acq_new_pleas_masked	acq2_masked	2	4	480	1	300	300	0	0	426	50	0	1	0	0	0	1	blank2r.bmp	0	1	+	0	3	B3r.bmp	492	1	blank2r.bmp	786	8	C4r.bmp	786	1	blank2r.bmp	866	6	gütig	866	1	!	1319	1	!	1332	0	0	0	0	0	0	0	0	0	0	0	0	0	0	0	0	0	0	0	0	0	0	0	0	0	0	0
012219	10:04:05	10:08:12	245310	5.0.10.0	4_exp_EVA_AMP_AWA_CON	82	Rpleas_acq	Same	Rpleas	Amasked	CS_A	2pleas	distractor1	EVAbeforeCON	acq_new_unple_masked	acq2_masked	2	5	480	1	300	300	0	0	438	46	0	1	0	0	0	1	blank2r.bmp	0	1	+	0	6	C2r.bmp	492	1	blank2r.bmp	786	3	B3r.bmp	786	1	blank2r.bmp	866	1	bange	866	1	!	1319	1	!	1332	0	0	0	0	0	0	0	0	0	0	0	0	0	0	0	0	0	0	0	0	0	0	0	0	0	0	0
012219	10:04:05	10:08:15	247828	5.0.10.0	4_exp_EVA_AMP_AWA_CON	82	Rpleas_acq	Same	Rpleas	Amasked	CS_A	2pleas	distractor1	EVAbeforeCON	acq_new_unple_masked	acq2_masked	2	6	480	1	300	300	0	0	495	50	0	0	0	0	0	1	blank2r.bmp	0	1	+	0	7	C3r.bmp	492	1	blank2r.bmp	786	1	B1r.bmp	786	1	blank2r.bmp	866	4	gemein	866	1	FEHLER	1719	1	!	1319	1	!	1399	0	0	0	0	0	0	0	0	0	0	0	0	0	0	0	0	0	0	0	0	0	0	0	0
012219	10:04:05	10:08:17	249868	5.0.10.0	4_exp_EVA_AMP_AWA_CON	82	Rpleas_acq	Same	Rpleas	Amasked	CS_A	2pleas	distractor1	EVAbeforeCON	acq_US_pleas_masked	acq2_masked	2	7	480	1	300	300	0	0	462	50	0	1	0	0	0	1	blank2r.bmp	0	1	+	0	1	B1r.bmp	492	1	blank2r.bmp	786	1	DHJF	786	1	blank2r.bmp	866	4	kuss	866	1	!	1319	1	!	1359	0	0	0	0	0	0	0	0	0	0	0	0	0	0	0	0	0	0	0	0	0	0	0	0	0	0	0
012219	10:04:05	10:08:19	252267	5.0.10.0	4_exp_EVA_AMP_AWA_CON	82	Rpleas_acq	Same	Rpleas	Amasked	CS_A	2pleas	distractor1	EVAbeforeCON	acq_new_pleas_masked	acq2_masked	2	8	480	0	300	300	0	0	405	46	0	0	0	0	0	1	blank2r.bmp	0	1	+	0	4	B4r.bmp	492	1	blank2r.bmp	786	6	C2r.bmp	786	1	blank2r.bmp	866	2	kreativ	866	1	FEHLER	1612	1	!	-1	1	!	-1	0	0	0	0	0	0	0	0	0	0	0	0	0	0	0	0	0	0	0	0	0	0	0	0
012219	10:04:05	10:08:22	254599	5.0.10.0	4_exp_EVA_AMP_AWA_CON	82	Rpleas_acq	Same	Rpleas	Amasked	CS_A	2pleas	distractor1	EVAbeforeCON	acq_new_pleas_masked	acq2_masked	2	9	480	1	300	300	0	0	538	46	0	0	0	0	0	1	blank2r.bmp	0	1	+	0	8	C4r.bmp	492	1	blank2r.bmp	786	5	C1r.bmp	786	1	blank2r.bmp	866	3	anregung	866	1	FEHLER	1759	1	!	1319	1	!	1439	0	0	0	0	0	0	0	0	0	0	0	0	0	0	0	0	0	0	0	0	0	0	0	0
012219	10:04:05	10:08:24	256731	5.0.10.0	4_exp_EVA_AMP_AWA_CON	82	Rpleas_acq	Same	Rpleas	Amasked	CS_A	2pleas	distractor1	EVAbeforeCON	acq_new_unple_masked	acq2_masked	2	10	480	0	300	300	0	0	584	46	0	1	0	0	0	1	blank2r.bmp	0	1	+	0	2	B2r.bmp	492	1	blank2r.bmp	786	2	B2r.bmp	786	1	blank2r.bmp	866	6	gierig	866	1	!	1319	1	!	-1	0	0	0	0	0	0	0	0	0	0	0	0	0	0	0	0	0	0	0	0	0	0	0	0	0	0	0
012219	10:04:05	10:08:26	259037	5.0.10.0	4_exp_EVA_AMP_AWA_CON	82	Rpleas_acq	Same	Rpleas	Amasked	CS_A	2pleas	distractor1	EVAbeforeCON	acq_US_pleas_masked	acq2_masked	2	11	480	1	300	300	0	0	486	50	0	1	0	0	0	1	blank2r.bmp	0	1	+	0	5	C1r.bmp	492	1	blank2r.bmp	786	1	DHJF	786	1	blank2r.bmp	866	5	vergnügt	866	1	!	1319	1	!	1386	0	0	0	0	0	0	0	0	0	0	0	0	0	0	0	0	0	0	0	0	0	0	0	0	0	0	0
012219	10:04:05	10:08:28	261223	5.0.10.0	4_exp_EVA_AMP_AWA_CON	82	Rpleas_acq	Same	Rpleas	Amasked	CS_A	2pleas	distractor1	EVAbeforeCON	acq_US_pleas_masked	acq2_masked	2	12	480	0	300	300	0	0	410	50	0	1	0	0	0	1	blank2r.bmp	0	1	+	0	3	B3r.bmp	492	1	blank2r.bmp	786	1	DHJF	786	1	blank2r.bmp	866	3	sonnig	866	1	!	-1	1	!	-1	0	0	0	0	0	0	0	0	0	0	0	0	0	0	0	0	0	0	0	0	0	0	0	0	0	0	0
012219	10:04:05	10:08:31	263582	5.0.10.0	4_exp_EVA_AMP_AWA_CON	82	Rpleas_acq	Same	Rpleas	Amasked	CS_A	2pleas	distractor1	EVAbeforeCON	acq_new_pleas_masked	acq2_masked	2	13	480	1	300	300	0	0	537	50	0	1	0	0	0	1	blank2r.bmp	0	1	+	0	2	B2r.bmp	492	1	blank2r.bmp	786	5	C1r.bmp	786	1	blank2r.bmp	866	1	besonnen	866	1	!	1319	1	!	1439	0	0	0	0	0	0	0	0	0	0	0	0	0	0	0	0	0	0	0	0	0	0	0	0	0	0	0
012219	10:04:05	10:08:33	265808	5.0.10.0	4_exp_EVA_AMP_AWA_CON	82	Rpleas_acq	Same	Rpleas	Amasked	CS_A	2pleas	distractor1	EVAbeforeCON	acq_US_unple_masked	acq2_masked	2	14	480	1	300	300	0	0	437	46	0	1	0	0	0	1	blank2r.bmp	0	1	+	0	4	B4r.bmp	492	1	blank2r.bmp	786	1	CPLW	786	1	blank2r.bmp	866	6	töten	866	1	!	1319	1	!	1332	0	0	0	0	0	0	0	0	0	0	0	0	0	0	0	0	0	0	0	0	0	0	0	0	0	0	0
012219	10:04:05	10:08:35	268087	5.0.10.0	4_exp_EVA_AMP_AWA_CON	82	Rpleas_acq	Same	Rpleas	Amasked	CS_A	2pleas	distractor1	EVAbeforeCON	acq_new_pleas_masked	acq2_masked	2	15	480	1	300	300	0	0	478	50	0	1	0	0	0	1	blank2r.bmp	0	1	+	0	6	C2r.bmp	492	1	blank2r.bmp	786	1	B1r.bmp	786	1	blank2r.bmp	866	2	kreativ	866	1	!	1319	1	!	1372	0	0	0	0	0	0	0	0	0	0	0	0	0	0	0	0	0	0	0	0	0	0	0	0	0	0	0
012219	10:04:05	10:08:38	270592	5.0.10.0	4_exp_EVA_AMP_AWA_CON	82	Rpleas_acq	Same	Rpleas	Amasked	CS_A	2pleas	distractor1	EVAbeforeCON	acq_US_pleas_masked	acq2_masked	2	16	480	0	300	300	0	0	737	50	0	1	0	0	0	1	blank2r.bmp	0	1	+	0	5	C1r.bmp	492	1	blank2r.bmp	786	1	DHJF	786	1	blank2r.bmp	866	3	sonnig	866	1	!	1319	1	!	-1	0	0	0	0	0	0	0	0	0	0	0	0	0	0	0	0	0	0	0	0	0	0	0	0	0	0	0
012219	10:04:05	10:08:40	273018	5.0.10.0	4_exp_EVA_AMP_AWA_CON	82	Rpleas_acq	Same	Rpleas	Amasked	CS_A	2pleas	distractor1	EVAbeforeCON	acq_US_unple_masked	acq2_masked	2	17	480	0	300	300	0	0	651	46	0	1	0	0	0	1	blank2r.bmp	0	1	+	0	1	B1r.bmp	492	1	blank2r.bmp	786	1	CPLW	786	1	blank2r.bmp	866	2	engstirnig	866	1	!	1319	1	!	-1	0	0	0	0	0	0	0	0	0	0	0	0	0	0	0	0	0	0	0	0	0	0	0	0	0	0	0
012219	10:04:05	10:08:42	275257	5.0.10.0	4_exp_EVA_AMP_AWA_CON	82	Rpleas_acq	Same	Rpleas	Amasked	CS_A	2pleas	distractor1	EVAbeforeCON	acq_US_unple_masked	acq2_masked	2	18	480	1	300	300	0	0	431	46	0	1	0	0	0	1	blank2r.bmp	0	1	+	0	8	C4r.bmp	492	1	blank2r.bmp	786	1	CPLW	786	1	blank2r.bmp	866	5	verbissen	866	1	!	1319	1	!	1332	0	0	0	0	0	0	0	0	0	0	0	0	0	0	0	0	0	0	0	0	0	0	0	0	0	0	0
012219	10:04:05	10:08:44	277389	5.0.10.0	4_exp_EVA_AMP_AWA_CON	82	Rpleas_acq	Same	Rpleas	Amasked	CS_A	2pleas	distractor1	EVAbeforeCON	acq_US_pleas_masked	acq2_masked	2	19	480	0	300	300	0	0	362	50	0	1	0	0	0	1	blank2r.bmp	0	1	+	0	7	C3r.bmp	492	1	blank2r.bmp	786	1	DHJF	786	1	blank2r.bmp	866	4	kuss	866	1	!	-1	1	!	-1	0	0	0	0	0	0	0	0	0	0	0	0	0	0	0	0	0	0	0	0	0	0	0	0	0	0	0
012219	10:04:05	10:08:47	279788	5.0.10.0	4_exp_EVA_AMP_AWA_CON	82	Rpleas_acq	Same	Rpleas	Amasked	CS_A	2pleas	distractor1	EVAbeforeCON	acq_new_unple_masked	acq2_masked	2	20	480	0	300	300	0	0	617	46	0	1	0	0	0	1	blank2r.bmp	0	1	+	0	3	B3r.bmp	492	1	blank2r.bmp	786	8	C4r.bmp	786	1	blank2r.bmp	866	2	krank	866	1	!	1319	1	!	-1	0	0	0	0	0	0	0	0	0	0	0	0	0	0	0	0	0	0	0	0	0	0	0	0	0	0	0
012219	10:04:05	10:08:49	282161	5.0.10.0	4_exp_EVA_AMP_AWA_CON	82	Rpleas_acq	Same	Rpleas	Amasked	CS_A	2pleas	distractor1	EVAbeforeCON	acq_new_unple_masked	acq2_masked	2	21	480	0	300	300	0	0	359	50	0	0	0	0	0	1	blank2r.bmp	0	1	+	0	4	B4r.bmp	492	1	blank2r.bmp	786	3	B3r.bmp	786	1	blank2r.bmp	866	6	gierig	866	1	FEHLER	1572	1	!	-1	1	!	-1	0	0	0	0	0	0	0	0	0	0	0	0	0	0	0	0	0	0	0	0	0	0	0	0
012219	10:04:05	10:08:51	284173	5.0.10.0	4_exp_EVA_AMP_AWA_CON	82	Rpleas_acq	Same	Rpleas	Amasked	CS_A	2pleas	distractor1	EVAbeforeCON	acq_new_pleas_masked	acq2_masked	2	22	480	1	300	300	0	0	428	50	0	1	0	0	0	1	blank2r.bmp	0	1	+	0	5	C1r.bmp	492	1	blank2r.bmp	786	2	B2r.bmp	786	1	blank2r.bmp	866	4	genießen	866	1	!	1319	1	!	1332	0	0	0	0	0	0	0	0	0	0	0	0	0	0	0	0	0	0	0	0	0	0	0	0	0	0	0
012219	10:04:05	10:08:53	286439	5.0.10.0	4_exp_EVA_AMP_AWA_CON	82	Rpleas_acq	Same	Rpleas	Amasked	CS_A	2pleas	distractor1	EVAbeforeCON	acq_new_unple_masked	acq2_masked	2	23	480	1	300	300	0	0	473	46	0	1	0	0	0	1	blank2r.bmp	0	1	+	0	7	C3r.bmp	492	1	blank2r.bmp	786	4	B4r.bmp	786	1	blank2r.bmp	866	4	gemein	866	1	!	1319	1	!	1372	0	0	0	0	0	0	0	0	0	0	0	0	0	0	0	0	0	0	0	0	0	0	0	0	0	0	0
012219	10:04:05	10:08:56	288718	5.0.10.0	4_exp_EVA_AMP_AWA_CON	82	Rpleas_acq	Same	Rpleas	Amasked	CS_A	2pleas	distractor1	EVAbeforeCON	acq_US_pleas_masked	acq2_masked	2	24	480	0	300	300	0	0	290	46	0	0	0	0	0	1	blank2r.bmp	0	1	+	0	8	C4r.bmp	492	1	blank2r.bmp	786	1	DHJF	786	1	blank2r.bmp	866	1	vertrauen	866	1	FEHLER	1492	1	!	-1	1	!	-1	0	0	0	0	0	0	0	0	0	0	0	0	0	0	0	0	0	0	0	0	0	0	0	0
012219	10:04:05	10:08:58	290810	5.0.10.0	4_exp_EVA_AMP_AWA_CON	82	Rpleas_acq	Same	Rpleas	Amasked	CS_A	2pleas	distractor1	EVAbeforeCON	acq_US_pleas_masked	acq2_masked	2	25	480	1	300	300	0	0	498	50	0	1	0	0	0	1	blank2r.bmp	0	1	+	0	2	B2r.bmp	492	1	blank2r.bmp	786	1	DHJF	786	1	blank2r.bmp	866	6	träumen	866	1	!	1319	1	!	1399	0	0	0	0	0	0	0	0	0	0	0	0	0	0	0	0	0	0	0	0	0	0	0	0	0	0	0
012219	10:04:05	10:09:00	293076	5.0.10.0	4_exp_EVA_AMP_AWA_CON	82	Rpleas_acq	Same	Rpleas	Amasked	CS_A	2pleas	distractor1	EVAbeforeCON	acq_US_unple_masked	acq2_masked	2	26	480	1	300	300	0	0	470	46	0	1	0	0	0	1	blank2r.bmp	0	1	+	0	3	B3r.bmp	492	1	blank2r.bmp	786	1	CPLW	786	1	blank2r.bmp	866	4	krise	866	1	!	1319	1	!	1372	0	0	0	0	0	0	0	0	0	0	0	0	0	0	0	0	0	0	0	0	0	0	0	0	0	0	0
012219	10:04:05	10:09:02	295329	5.0.10.0	4_exp_EVA_AMP_AWA_CON	82	Rpleas_acq	Same	Rpleas	Amasked	CS_A	2pleas	distractor1	EVAbeforeCON	acq_new_unple_masked	acq2_masked	2	27	480	1	300	300	0	0	439	46	0	1	0	0	0	1	blank2r.bmp	0	1	+	0	1	B1r.bmp	492	1	blank2r.bmp	786	6	C2r.bmp	786	1	blank2r.bmp	866	3	ausrottung	866	1	!	1319	1	!	1346	0	0	0	0	0	0	0	0	0	0	0	0	0	0	0	0	0	0	0	0	0	0	0	0	0	0	0
012219	10:04:05	10:09:05	297648	5.0.10.0	4_exp_EVA_AMP_AWA_CON	82	Rpleas_acq	Same	Rpleas	Amasked	CS_A	2pleas	distractor1	EVAbeforeCON	acq_new_pleas_masked	acq2_masked	2	28	480	0	300	300	0	0	327	46	0	0	0	0	0	1	blank2r.bmp	0	1	+	0	6	C2r.bmp	492	1	blank2r.bmp	786	7	C3r.bmp	786	1	blank2r.bmp	866	3	anregung	866	1	FEHLER	1532	1	!	-1	1	!	-1	0	0	0	0	0	0	0	0	0	0	0	0	0	0	0	0	0	0	0	0	0	0	0	0
012219	10:04:05	10:09:07	299820	5.0.10.0	4_exp_EVA_AMP_AWA_CON	82	Rpleas_acq	Same	Rpleas	Amasked	CS_A	2pleas	distractor1	EVAbeforeCON	acq_new_unple_masked	acq2_masked	2	29	480	0	300	300	0	0	396	50	0	0	0	0	0	1	blank2r.bmp	0	1	+	0	3	B3r.bmp	492	1	blank2r.bmp	786	2	B2r.bmp	786	1	blank2r.bmp	866	1	bange	866	1	FEHLER	1599	1	!	-1	1	!	-1	0	0	0	0	0	0	0	0	0	0	0	0	0	0	0	0	0	0	0	0	0	0	0	0
012219	10:04:05	10:09:09	301846	5.0.10.0	4_exp_EVA_AMP_AWA_CON	82	Rpleas_acq	Same	Rpleas	Amasked	CS_A	2pleas	distractor1	EVAbeforeCON	acq_US_unple_masked	acq2_masked	2	30	480	1	300	300	0	0	447	46	0	1	0	0	0	1	blank2r.bmp	0	1	+	0	8	C4r.bmp	492	1	blank2r.bmp	786	1	CPLW	786	1	blank2r.bmp	866	1	versagen	866	1	!	1319	1	!	1346	0	0	0	0	0	0	0	0	0	0	0	0	0	0	0	0	0	0	0	0	0	0	0	0	0	0	0
012219	10:04:05	10:09:11	303992	5.0.10.0	4_exp_EVA_AMP_AWA_CON	82	Rpleas_acq	Same	Rpleas	Amasked	CS_A	2pleas	distractor1	EVAbeforeCON	acq_new_unple_masked	acq2_masked	2	31	480	0	300	300	0	0	376	46	0	1	0	0	0	1	blank2r.bmp	0	1	+	0	6	C2r.bmp	492	1	blank2r.bmp	786	1	B1r.bmp	786	1	blank2r.bmp	866	5	geizig	866	1	!	-1	1	!	-1	0	0	0	0	0	0	0	0	0	0	0	0	0	0	0	0	0	0	0	0	0	0	0	0	0	0	0
012219	10:04:05	10:09:13	306324	5.0.10.0	4_exp_EVA_AMP_AWA_CON	82	Rpleas_acq	Same	Rpleas	Amasked	CS_A	2pleas	distractor1	EVAbeforeCON	acq_US_unple_masked	acq2_masked	2	32	480	1	300	300	0	0	525	46	0	1	0	0	0	1	blank2r.bmp	0	1	+	0	1	B1r.bmp	492	1	blank2r.bmp	786	1	CPLW	786	1	blank2r.bmp	866	3	sterben	866	1	!	1319	1	!	1426	0	0	0	0	0	0	0	0	0	0	0	0	0	0	0	0	0	0	0	0	0	0	0	0	0	0	0
012219	10:04:05	10:09:16	308550	5.0.10.0	4_exp_EVA_AMP_AWA_CON	82	Rpleas_acq	Same	Rpleas	Amasked	CS_A	2pleas	distractor1	EVAbeforeCON	acq_US_pleas_masked	acq2_masked	2	33	480	1	300	300	0	0	430	50	0	1	0	0	0	1	blank2r.bmp	0	1	+	0	2	B2r.bmp	492	1	blank2r.bmp	786	1	DHJF	786	1	blank2r.bmp	866	2	engagiert	866	1	!	1319	1	!	1332	0	0	0	0	0	0	0	0	0	0	0	0	0	0	0	0	0	0	0	0	0	0	0	0	0	0	0
012219	10:04:05	10:09:18	310975	5.0.10.0	4_exp_EVA_AMP_AWA_CON	82	Rpleas_acq	Same	Rpleas	Amasked	CS_A	2pleas	distractor1	EVAbeforeCON	acq_new_pleas_masked	acq2_masked	2	34	480	0	300	300	0	0	413	46	0	0	0	0	0	1	blank2r.bmp	0	1	+	0	5	C1r.bmp	492	1	blank2r.bmp	786	6	C2r.bmp	786	1	blank2r.bmp	866	6	gütig	866	1	FEHLER	1625	1	!	-1	1	!	-1	0	0	0	0	0	0	0	0	0	0	0	0	0	0	0	0	0	0	0	0	0	0	0	0
012219	10:04:05	10:09:20	313161	5.0.10.0	4_exp_EVA_AMP_AWA_CON	82	Rpleas_acq	Same	Rpleas	Amasked	CS_A	2pleas	distractor1	EVAbeforeCON	acq_new_pleas_masked	acq2_masked	2	35	480	0	300	300	0	0	631	50	0	1	0	0	0	1	blank2r.bmp	0	1	+	0	4	B4r.bmp	492	1	blank2r.bmp	786	5	C1r.bmp	786	1	blank2r.bmp	866	5	gesittet	866	1	!	1319	1	!	-1	0	0	0	0	0	0	0	0	0	0	0	0	0	0	0	0	0	0	0	0	0	0	0	0	0	0	0
012219	10:04:05	10:09:22	315280	5.0.10.0	4_exp_EVA_AMP_AWA_CON	82	Rpleas_acq	Same	Rpleas	Amasked	CS_A	2pleas	distractor1	EVAbeforeCON	acq_US_pleas_masked	acq2_masked	2	36	480	0	300	300	0	0	343	50	0	1	0	0	0	1	blank2r.bmp	0	1	+	0	7	C3r.bmp	492	1	blank2r.bmp	786	1	DHJF	786	1	blank2r.bmp	866	5	vergnügt	866	1	!	-1	1	!	-1	0	0	0	0	0	0	0	0	0	0	0	0	0	0	0	0	0	0	0	0	0	0	0	0	0	0	0
012219	10:04:05	10:09:40	332886	5.0.10.0	4_exp_EVA_AMP_AWA_CON	82	Rpleas_acq	Same	Rpleas	Amasked	CS_A	2pleas	distractor1	EVAbeforeCON	acq_US_pleas_masked	acq3_masked	3	1	453	1	300	300	0	0	463	50	0	1	0	0	0	1	blank2r.bmp	0	1	+	0	3	B3r.bmp	492	1	blank2r.bmp	786	1	DHJF	786	1	blank2r.bmp	866	2	engagiert	866	1	!	1292	1	!	1359	0	0	0	0	0	0	0	0	0	0	0	0	0	0	0	0	0	0	0	0	0	0	0	0	0	0	0
012219	10:04:05	10:09:42	335165	5.0.10.0	4_exp_EVA_AMP_AWA_CON	82	Rpleas_acq	Same	Rpleas	Amasked	CS_A	2pleas	distractor1	EVAbeforeCON	acq_US_pleas_masked	acq3_masked	3	2	453	1	300	300	0	0	473	50	0	1	0	0	0	1	blank2r.bmp	0	1	+	0	2	B2r.bmp	492	1	blank2r.bmp	786	1	DHJF	786	1	blank2r.bmp	866	3	sonnig	866	1	!	1292	1	!	1372	0	0	0	0	0	0	0	0	0	0	0	0	0	0	0	0	0	0	0	0	0	0	0	0	0	0	0
012219	10:04:05	10:09:44	337418	5.0.10.0	4_exp_EVA_AMP_AWA_CON	82	Rpleas_acq	Same	Rpleas	Amasked	CS_A	2pleas	distractor1	EVAbeforeCON	acq_US_unple_masked	acq3_masked	3	3	453	1	300	300	0	0	449	46	0	1	0	0	0	1	blank2r.bmp	0	1	+	0	6	C2r.bmp	492	1	blank2r.bmp	786	1	CPLW	786	1	blank2r.bmp	866	3	sterben	866	1	!	1292	1	!	1346	0	0	0	0	0	0	0	0	0	0	0	0	0	0	0	0	0	0	0	0	0	0	0	0	0	0	0
012219	10:04:05	10:09:47	339830	5.0.10.0	4_exp_EVA_AMP_AWA_CON	82	Rpleas_acq	Same	Rpleas	Amasked	CS_A	2pleas	distractor1	EVAbeforeCON	acq_US_unple_masked	acq3_masked	3	4	453	1	300	300	0	0	400	50	0	0	0	0	0	1	blank2r.bmp	0	1	+	0	4	B4r.bmp	492	1	blank2r.bmp	786	1	CPLW	786	1	blank2r.bmp	866	4	krise	866	1	FEHLER	1625	1	!	1292	1	!	1306	0	0	0	0	0	0	0	0	0	0	0	0	0	0	0	0	0	0	0	0	0	0	0	0
012219	10:04:05	10:09:49	341816	5.0.10.0	4_exp_EVA_AMP_AWA_CON	82	Rpleas_acq	Same	Rpleas	Amasked	CS_A	2pleas	distractor1	EVAbeforeCON	acq_US_unple_masked	acq3_masked	3	5	453	1	300	300	0	0	399	46	0	1	0	0	0	1	blank2r.bmp	0	1	+	0	8	C4r.bmp	492	1	blank2r.bmp	786	1	CPLW	786	1	blank2r.bmp	866	1	versagen	866	1	!	1292	1	!	1306	0	0	0	0	0	0	0	0	0	0	0	0	0	0	0	0	0	0	0	0	0	0	0	0	0	0	0
012219	10:04:05	10:09:51	343855	5.0.10.0	4_exp_EVA_AMP_AWA_CON	82	Rpleas_acq	Same	Rpleas	Amasked	CS_A	2pleas	distractor1	EVAbeforeCON	acq_US_unple_masked	acq3_masked	3	6	453	0	300	300	0	0	278	46	0	1	0	0	0	1	blank2r.bmp	0	1	+	0	5	C1r.bmp	492	1	blank2r.bmp	786	1	CPLW	786	1	blank2r.bmp	866	6	töten	866	1	!	-1	1	!	-1	0	0	0	0	0	0	0	0	0	0	0	0	0	0	0	0	0	0	0	0	0	0	0	0	0	0	0
012219	10:04:05	10:09:53	346107	5.0.10.0	4_exp_EVA_AMP_AWA_CON	82	Rpleas_acq	Same	Rpleas	Amasked	CS_A	2pleas	distractor1	EVAbeforeCON	acq_US_unple_masked	acq3_masked	3	7	453	1	300	300	0	0	427	46	0	1	0	0	0	1	blank2r.bmp	0	1	+	0	7	C3r.bmp	492	1	blank2r.bmp	786	1	CPLW	786	1	blank2r.bmp	866	2	engstirnig	866	1	!	1292	1	!	1332	0	0	0	0	0	0	0	0	0	0	0	0	0	0	0	0	0	0	0	0	0	0	0	0	0	0	0
012219	10:04:05	10:09:55	348306	5.0.10.0	4_exp_EVA_AMP_AWA_CON	82	Rpleas_acq	Same	Rpleas	Amasked	CS_A	2pleas	distractor1	EVAbeforeCON	acq_US_pleas_masked	acq3_masked	3	8	453	1	300	300	0	0	407	50	0	1	0	0	0	1	blank2r.bmp	0	1	+	0	1	B1r.bmp	492	1	blank2r.bmp	786	1	DHJF	786	1	blank2r.bmp	866	6	träumen	866	1	!	1292	1	!	1306	0	0	0	0	0	0	0	0	0	0	0	0	0	0	0	0	0	0	0	0	0	0	0	0	0	0	0
012219	10:04:05	10:09:58	350625	5.0.10.0	4_exp_EVA_AMP_AWA_CON	82	Rpleas_acq	Same	Rpleas	Amasked	CS_A	2pleas	distractor1	EVAbeforeCON	acq_US_pleas_masked	acq3_masked	3	9	453	0	300	300	0	0	327	46	0	0	0	0	0	1	blank2r.bmp	0	1	+	0	3	B3r.bmp	492	1	blank2r.bmp	786	1	DHJF	786	1	blank2r.bmp	866	5	vergnügt	866	1	FEHLER	1532	1	!	-1	1	!	-1	0	0	0	0	0	0	0	0	0	0	0	0	0	0	0	0	0	0	0	0	0	0	0	0
012219	10:04:05	10:10:00	352678	5.0.10.0	4_exp_EVA_AMP_AWA_CON	82	Rpleas_acq	Same	Rpleas	Amasked	CS_A	2pleas	distractor1	EVAbeforeCON	acq_US_pleas_masked	acq3_masked	3	10	453	1	300	300	0	0	478	50	0	1	0	0	0	1	blank2r.bmp	0	1	+	0	7	C3r.bmp	492	1	blank2r.bmp	786	1	DHJF	786	1	blank2r.bmp	866	1	vertrauen	866	1	!	1292	1	!	1372	0	0	0	0	0	0	0	0	0	0	0	0	0	0	0	0	0	0	0	0	0	0	0	0	0	0	0
012219	10:04:05	10:10:02	354784	5.0.10.0	4_exp_EVA_AMP_AWA_CON	82	Rpleas_acq	Same	Rpleas	Amasked	CS_A	2pleas	distractor1	EVAbeforeCON	acq_US_unple_masked	acq3_masked	3	11	453	0	300	300	0	0	342	46	0	1	0	0	0	1	blank2r.bmp	0	1	+	0	5	C1r.bmp	492	1	blank2r.bmp	786	1	CPLW	786	1	blank2r.bmp	866	5	verbissen	866	1	!	-1	1	!	-1	0	0	0	0	0	0	0	0	0	0	0	0	0	0	0	0	0	0	0	0	0	0	0	0	0	0	0
012219	10:04:05	10:10:04	356996	5.0.10.0	4_exp_EVA_AMP_AWA_CON	82	Rpleas_acq	Same	Rpleas	Amasked	CS_A	2pleas	distractor1	EVAbeforeCON	acq_US_pleas_masked	acq3_masked	3	12	453	1	300	300	0	0	399	50	0	1	0	0	0	1	blank2r.bmp	0	1	+	0	2	B2r.bmp	492	1	blank2r.bmp	786	1	DHJF	786	1	blank2r.bmp	866	4	kuss	866	1	!	1292	1	!	1306	0	0	0	0	0	0	0	0	0	0	0	0	0	0	0	0	0	0	0	0	0	0	0	0	0	0	0
012219	10:04:05	10:10:06	359195	5.0.10.0	4_exp_EVA_AMP_AWA_CON	82	Rpleas_acq	Same	Rpleas	Amasked	CS_A	2pleas	distractor1	EVAbeforeCON	acq_US_pleas_masked	acq3_masked	3	13	453	1	300	300	0	0	399	50	0	1	0	0	0	1	blank2r.bmp	0	1	+	0	1	B1r.bmp	492	1	blank2r.bmp	786	1	DHJF	786	1	blank2r.bmp	866	5	vergnügt	866	1	!	1292	1	!	1306	0	0	0	0	0	0	0	0	0	0	0	0	0	0	0	0	0	0	0	0	0	0	0	0	0	0	0
012219	10:04:05	10:10:08	361447	5.0.10.0	4_exp_EVA_AMP_AWA_CON	82	Rpleas_acq	Same	Rpleas	Amasked	CS_A	2pleas	distractor1	EVAbeforeCON	acq_US_unple_masked	acq3_masked	3	14	453	1	300	300	0	0	456	46	0	1	0	0	0	1	blank2r.bmp	0	1	+	0	8	C4r.bmp	492	1	blank2r.bmp	786	1	CPLW	786	1	blank2r.bmp	866	2	engstirnig	866	1	!	1292	1	!	1359	0	0	0	0	0	0	0	0	0	0	0	0	0	0	0	0	0	0	0	0	0	0	0	0	0	0	0
012219	10:04:05	10:10:11	363740	5.0.10.0	4_exp_EVA_AMP_AWA_CON	82	Rpleas_acq	Same	Rpleas	Amasked	CS_A	2pleas	distractor1	EVAbeforeCON	acq_US_unple_masked	acq3_masked	3	15	453	1	300	300	0	0	501	46	0	1	0	0	0	1	blank2r.bmp	0	1	+	0	4	B4r.bmp	492	1	blank2r.bmp	786	1	CPLW	786	1	blank2r.bmp	866	3	sterben	866	1	!	1292	1	!	1399	0	0	0	0	0	0	0	0	0	0	0	0	0	0	0	0	0	0	0	0	0	0	0	0	0	0	0
012219	10:04:05	10:10:13	365766	5.0.10.0	4_exp_EVA_AMP_AWA_CON	82	Rpleas_acq	Same	Rpleas	Amasked	CS_A	2pleas	distractor1	EVAbeforeCON	acq_US_unple_masked	acq3_masked	3	16	453	0	300	300	0	0	261	46	0	1	0	0	0	1	blank2r.bmp	0	1	+	0	6	C2r.bmp	492	1	blank2r.bmp	786	1	CPLW	786	1	blank2r.bmp	866	4	krise	866	1	!	-1	1	!	-1	0	0	0	0	0	0	0	0	0	0	0	0	0	0	0	0	0	0	0	0	0	0	0	0	0	0	0
012219	10:04:05	10:10:15	368031	5.0.10.0	4_exp_EVA_AMP_AWA_CON	82	Rpleas_acq	Same	Rpleas	Amasked	CS_A	2pleas	distractor1	EVAbeforeCON	acq_US_pleas_masked	acq3_masked	3	17	453	1	300	300	0	0	459	50	0	1	0	0	0	1	blank2r.bmp	0	1	+	0	8	C4r.bmp	492	1	blank2r.bmp	786	1	DHJF	786	1	blank2r.bmp	866	6	träumen	866	1	!	1292	1	!	1359	0	0	0	0	0	0	0	0	0	0	0	0	0	0	0	0	0	0	0	0	0	0	0	0	0	0	0
012219	10:04:05	10:10:17	370230	5.0.10.0	4_exp_EVA_AMP_AWA_CON	82	Rpleas_acq	Same	Rpleas	Amasked	CS_A	2pleas	distractor1	EVAbeforeCON	acq_US_pleas_masked	acq3_masked	3	18	453	1	300	300	0	0	399	50	0	1	0	0	0	1	blank2r.bmp	0	1	+	0	4	B4r.bmp	492	1	blank2r.bmp	786	1	DHJF	786	1	blank2r.bmp	866	1	vertrauen	866	1	!	1292	1	!	1306	0	0	0	0	0	0	0	0	0	0	0	0	0	0	0	0	0	0	0	0	0	0	0	0	0	0	0
012219	10:04:05	10:10:20	372589	5.0.10.0	4_exp_EVA_AMP_AWA_CON	82	Rpleas_acq	Same	Rpleas	Amasked	CS_A	2pleas	distractor1	EVAbeforeCON	acq_US_pleas_masked	acq3_masked	3	19	453	0	300	300	0	0	366	46	0	0	0	0	0	1	blank2r.bmp	0	1	+	0	2	B2r.bmp	492	1	blank2r.bmp	786	1	DHJF	786	1	blank2r.bmp	866	4	kuss	866	1	FEHLER	1572	1	!	-1	1	!	-1	0	0	0	0	0	0	0	0	0	0	0	0	0	0	0	0	0	0	0	0	0	0	0	0
012219	10:04:05	10:10:22	374602	5.0.10.0	4_exp_EVA_AMP_AWA_CON	82	Rpleas_acq	Same	Rpleas	Amasked	CS_A	2pleas	distractor1	EVAbeforeCON	acq_US_unple_masked	acq3_masked	3	20	453	1	300	300	0	0	438	46	0	1	0	0	0	1	blank2r.bmp	0	1	+	0	3	B3r.bmp	492	1	blank2r.bmp	786	1	CPLW	786	1	blank2r.bmp	866	5	verbissen	866	1	!	1292	1	!	1332	0	0	0	0	0	0	0	0	0	0	0	0	0	0	0	0	0	0	0	0	0	0	0	0	0	0	0
012219	10:04:05	10:10:24	376668	5.0.10.0	4_exp_EVA_AMP_AWA_CON	82	Rpleas_acq	Same	Rpleas	Amasked	CS_A	2pleas	distractor1	EVAbeforeCON	acq_US_pleas_masked	acq3_masked	3	21	453	0	300	300	0	0	283	50	0	1	0	0	0	1	blank2r.bmp	0	1	+	0	6	C2r.bmp	492	1	blank2r.bmp	786	1	DHJF	786	1	blank2r.bmp	866	2	engagiert	866	1	!	-1	1	!	-1	0	0	0	0	0	0	0	0	0	0	0	0	0	0	0	0	0	0	0	0	0	0	0	0	0	0	0
012219	10:04:05	10:10:26	378907	5.0.10.0	4_exp_EVA_AMP_AWA_CON	82	Rpleas_acq	Same	Rpleas	Amasked	CS_A	2pleas	distractor1	EVAbeforeCON	acq_US_unple_masked	acq3_masked	3	22	453	1	300	300	0	0	432	46	0	1	0	0	0	1	blank2r.bmp	0	1	+	0	5	C1r.bmp	492	1	blank2r.bmp	786	1	CPLW	786	1	blank2r.bmp	866	1	versagen	866	1	!	1292	1	!	1332	0	0	0	0	0	0	0	0	0	0	0	0	0	0	0	0	0	0	0	0	0	0	0	0	0	0	0
012219	10:04:05	10:10:28	381026	5.0.10.0	4_exp_EVA_AMP_AWA_CON	82	Rpleas_acq	Same	Rpleas	Amasked	CS_A	2pleas	distractor1	EVAbeforeCON	acq_US_unple_masked	acq3_masked	3	23	453	0	300	300	0	0	335	46	0	1	0	0	0	1	blank2r.bmp	0	1	+	0	1	B1r.bmp	492	1	blank2r.bmp	786	1	CPLW	786	1	blank2r.bmp	866	6	töten	866	1	!	-1	1	!	-1	0	0	0	0	0	0	0	0	0	0	0	0	0	0	0	0	0	0	0	0	0	0	0	0	0	0	0
012219	10:04:05	10:10:30	383185	5.0.10.0	4_exp_EVA_AMP_AWA_CON	82	Rpleas_acq	Same	Rpleas	Amasked	CS_A	2pleas	distractor1	EVAbeforeCON	acq_US_pleas_masked	acq3_masked	3	24	453	0	300	300	0	0	373	50	0	1	0	0	0	1	blank2r.bmp	0	1	+	0	7	C3r.bmp	492	1	blank2r.bmp	786	1	DHJF	786	1	blank2r.bmp	866	3	sonnig	866	1	!	-1	1	!	-1	0	0	0	0	0	0	0	0	0	0	0	0	0	0	0	0	0	0	0	0	0	0	0	0	0	0	0
012219	10:04:05	10:10:32	385517	5.0.10.0	4_exp_EVA_AMP_AWA_CON	82	Rpleas_acq	Same	Rpleas	Amasked	CS_A	2pleas	distractor1	EVAbeforeCON	acq_US_unple_masked	acq3_masked	3	25	453	0	300	300	0	0	548	46	0	1	0	0	0	1	blank2r.bmp	0	1	+	0	1	B1r.bmp	492	1	blank2r.bmp	786	1	CPLW	786	1	blank2r.bmp	866	2	engstirnig	866	1	!	1292	1	!	-1	0	0	0	0	0	0	0	0	0	0	0	0	0	0	0	0	0	0	0	0	0	0	0	0	0	0	0
012219	10:04:05	10:10:35	387610	5.0.10.0	4_exp_EVA_AMP_AWA_CON	82	Rpleas_acq	Same	Rpleas	Amasked	CS_A	2pleas	distractor1	EVAbeforeCON	acq_US_pleas_masked	acq3_masked	3	26	453	0	300	300	0	0	309	50	0	1	0	0	0	1	blank2r.bmp	0	1	+	0	3	B3r.bmp	492	1	blank2r.bmp	786	1	DHJF	786	1	blank2r.bmp	866	5	vergnügt	866	1	!	-1	1	!	-1	0	0	0	0	0	0	0	0	0	0	0	0	0	0	0	0	0	0	0	0	0	0	0	0	0	0	0
012219	10:04:05	10:10:37	389729	5.0.10.0	4_exp_EVA_AMP_AWA_CON	82	Rpleas_acq	Same	Rpleas	Amasked	CS_A	2pleas	distractor1	EVAbeforeCON	acq_US_unple_masked	acq3_masked	3	27	453	0	300	300	0	0	339	46	0	1	0	0	0	1	blank2r.bmp	0	1	+	0	2	B2r.bmp	492	1	blank2r.bmp	786	1	CPLW	786	1	blank2r.bmp	866	3	sterben	866	1	!	-1	1	!	-1	0	0	0	0	0	0	0	0	0	0	0	0	0	0	0	0	0	0	0	0	0	0	0	0	0	0	0
012219	10:04:05	10:10:39	392048	5.0.10.0	4_exp_EVA_AMP_AWA_CON	82	Rpleas_acq	Same	Rpleas	Amasked	CS_A	2pleas	distractor1	EVAbeforeCON	acq_US_unple_masked	acq3_masked	3	28	453	1	300	300	0	0	514	46	0	1	0	0	0	1	blank2r.bmp	0	1	+	0	5	C1r.bmp	492	1	blank2r.bmp	786	1	CPLW	786	1	blank2r.bmp	866	1	versagen	866	1	!	1292	1	!	1412	0	0	0	0	0	0	0	0	0	0	0	0	0	0	0	0	0	0	0	0	0	0	0	0	0	0	0
012219	10:04:05	10:10:41	394274	5.0.10.0	4_exp_EVA_AMP_AWA_CON	82	Rpleas_acq	Same	Rpleas	Amasked	CS_A	2pleas	distractor1	EVAbeforeCON	acq_US_unple_masked	acq3_masked	3	29	453	1	300	300	0	0	433	46	0	1	0	0	0	1	blank2r.bmp	0	1	+	0	4	B4r.bmp	492	1	blank2r.bmp	786	1	CPLW	786	1	blank2r.bmp	866	4	krise	866	1	!	1292	1	!	1332	0	0	0	0	0	0	0	0	0	0	0	0	0	0	0	0	0	0	0	0	0	0	0	0	0	0	0
012219	10:04:05	10:10:44	396579	5.0.10.0	4_exp_EVA_AMP_AWA_CON	82	Rpleas_acq	Same	Rpleas	Amasked	CS_A	2pleas	distractor1	EVAbeforeCON	acq_US_pleas_masked	acq3_masked	3	30	453	1	300	300	0	0	518	50	0	1	0	0	0	1	blank2r.bmp	0	1	+	0	6	C2r.bmp	492	1	blank2r.bmp	786	1	DHJF	786	1	blank2r.bmp	866	4	kuss	866	1	!	1292	1	!	1412	0	0	0	0	0	0	0	0	0	0	0	0	0	0	0	0	0	0	0	0	0	0	0	0	0	0	0
012219	10:04:05	10:10:46	398738	5.0.10.0	4_exp_EVA_AMP_AWA_CON	82	Rpleas_acq	Same	Rpleas	Amasked	CS_A	2pleas	distractor1	EVAbeforeCON	acq_US_pleas_masked	acq3_masked	3	31	453	0	300	300	0	0	386	50	0	1	0	0	0	1	blank2r.bmp	0	1	+	0	7	C3r.bmp	492	1	blank2r.bmp	786	1	DHJF	786	1	blank2r.bmp	866	6	träumen	866	1	!	-1	1	!	-1	0	0	0	0	0	0	0	0	0	0	0	0	0	0	0	0	0	0	0	0	0	0	0	0	0	0	0
012219	10:04:05	10:10:48	401031	5.0.10.0	4_exp_EVA_AMP_AWA_CON	82	Rpleas_acq	Same	Rpleas	Amasked	CS_A	2pleas	distractor1	EVAbeforeCON	acq_US_unple_masked	acq3_masked	3	32	453	1	300	300	0	0	480	46	0	1	0	0	0	1	blank2r.bmp	0	1	+	0	8	C4r.bmp	492	1	blank2r.bmp	786	1	CPLW	786	1	blank2r.bmp	866	6	töten	866	1	!	1292	1	!	1386	0	0	0	0	0	0	0	0	0	0	0	0	0	0	0	0	0	0	0	0	0	0	0	0	0	0	0
012219	10:04:05	10:10:50	403363	5.0.10.0	4_exp_EVA_AMP_AWA_CON	82	Rpleas_acq	Same	Rpleas	Amasked	CS_A	2pleas	distractor1	EVAbeforeCON	acq_US_pleas_masked	acq3_masked	3	33	453	0	300	300	0	0	567	50	0	1	0	0	0	1	blank2r.bmp	0	1	+	0	1	B1r.bmp	492	1	blank2r.bmp	786	1	DHJF	786	1	blank2r.bmp	866	3	sonnig	866	1	!	1292	1	!	-1	0	0	0	0	0	0	0	0	0	0	0	0	0	0	0	0	0	0	0	0	0	0	0	0	0	0	0
012219	10:04:05	10:10:52	405429	5.0.10.0	4_exp_EVA_AMP_AWA_CON	82	Rpleas_acq	Same	Rpleas	Amasked	CS_A	2pleas	distractor1	EVAbeforeCON	acq_US_unple_masked	acq3_masked	3	34	453	0	300	300	0	0	289	46	0	1	0	0	0	1	blank2r.bmp	0	1	+	0	3	B3r.bmp	492	1	blank2r.bmp	786	1	CPLW	786	1	blank2r.bmp	866	5	verbissen	866	1	!	-1	1	!	-1	0	0	0	0	0	0	0	0	0	0	0	0	0	0	0	0	0	0	0	0	0	0	0	0	0	0	0
012219	10:04:05	10:10:55	407588	5.0.10.0	4_exp_EVA_AMP_AWA_CON	82	Rpleas_acq	Same	Rpleas	Amasked	CS_A	2pleas	distractor1	EVAbeforeCON	acq_US_pleas_masked	acq3_masked	3	35	453	0	300	300	0	0	362	50	0	1	0	0	0	1	blank2r.bmp	0	1	+	0	4	B4r.bmp	492	1	blank2r.bmp	786	1	DHJF	786	1	blank2r.bmp	866	1	vertrauen	866	1	!	-1	1	!	-1	0	0	0	0	0	0	0	0	0	0	0	0	0	0	0	0	0	0	0	0	0	0	0	0	0	0	0
012219	10:04:05	10:10:57	410014	5.0.10.0	4_exp_EVA_AMP_AWA_CON	82	Rpleas_acq	Same	Rpleas	Amasked	CS_A	2pleas	distractor1	EVAbeforeCON	acq_US_pleas_masked	acq3_masked	3	36	453	1	300	300	0	0	410	46	0	0	0	0	0	1	blank2r.bmp	0	1	+	0	6	C2r.bmp	492	1	blank2r.bmp	786	1	DHJF	786	1	blank2r.bmp	866	2	engagiert	866	1	FEHLER	1625	1	!	1292	1	!	1306	0	0	0	0	0	0	0	0	0	0	0	0	0	0	0	0	0	0	0	0	0	0	0	0
012219	10:04:05	10:11:13	426207	5.0.10.0	4_exp_EVA_AMP_AWA_CON	82	Rpleas_acq	Same	Rpleas	Amasked	CS_A	2pleas	distractor1	EVAbeforeCON	acq_US_unple_masked	acq45_masked	4	1	400	0	300	300	0	0	593	46	0	1	0	0	0	1	blank2r.bmp	0	1	+	0	7	C3r.bmp	492	1	blank2r.bmp	786	1	CPLW	786	1	blank2r.bmp	866	5	verbissen	866	1	!	1239	1	!	-1	0	0	0	0	0	0	0	0	0	0	0	0	0	0	0	0	0	0	0	0	0	0	0	0	0	0	0
012219	10:04:05	10:11:15	428419	5.0.10.0	4_exp_EVA_AMP_AWA_CON	82	Rpleas_acq	Same	Rpleas	Amasked	CS_A	2pleas	distractor1	EVAbeforeCON	acq_US_pleas_masked	acq45_masked	4	2	400	1	300	300	0	0	391	50	0	1	0	0	0	1	blank2r.bmp	0	1	+	0	2	B2r.bmp	492	1	blank2r.bmp	786	1	DHJF	786	1	blank2r.bmp	866	1	vertrauen	866	1	!	1239	1	!	1292	0	0	0	0	0	0	0	0	0	0	0	0	0	0	0	0	0	0	0	0	0	0	0	0	0	0	0
012219	10:04:05	10:11:18	430645	5.0.10.0	4_exp_EVA_AMP_AWA_CON	82	Rpleas_acq	Same	Rpleas	Amasked	CS_A	2pleas	distractor1	EVAbeforeCON	acq_US_pleas_masked	acq45_masked	4	3	400	1	300	300	0	0	412	46	0	0	0	0	0	1	blank2r.bmp	0	1	+	0	5	C1r.bmp	492	1	blank2r.bmp	786	1	DHJF	786	1	blank2r.bmp	866	2	engagiert	866	1	!	1239	1	!	1319	0	0	0	0	0	0	0	0	0	0	0	0	0	0	0	0	0	0	0	0	0	0	0	0	0	0	0
012219	10:04:05	10:11:20	432871	5.0.10.0	4_exp_EVA_AMP_AWA_CON	82	Rpleas_acq	Same	Rpleas	Amasked	CS_A	2pleas	distractor1	EVAbeforeCON	acq_US_unple_masked	acq45_masked	4	4	400	1	300	300	0	0	427	50	0	0	0	0	0	1	blank2r.bmp	0	1	+	0	8	C4r.bmp	492	1	blank2r.bmp	786	1	CPLW	786	1	blank2r.bmp	866	1	versagen	866	1	!	1239	1	!	1332	0	0	0	0	0	0	0	0	0	0	0	0	0	0	0	0	0	0	0	0	0	0	0	0	0	0	0
012219	10:04:05	10:11:22	435123	5.0.10.0	4_exp_EVA_AMP_AWA_CON	82	Rpleas_acq	Same	Rpleas	Amasked	CS_A	2pleas	distractor1	EVAbeforeCON	acq_US_pleas_masked	acq45_masked	4	5	400	1	300	300	0	0	456	50	0	1	0	0	0	1	blank2r.bmp	0	1	+	0	7	C3r.bmp	492	1	blank2r.bmp	786	1	DHJF	786	1	blank2r.bmp	866	5	vergnügt	866	1	!	1239	1	!	1359	0	0	0	0	0	0	0	0	0	0	0	0	0	0	0	0	0	0	0	0	0	0	0	0	0	0	0
012219	10:04:05	10:11:24	437229	5.0.10.0	4_exp_EVA_AMP_AWA_CON	82	Rpleas_acq	Same	Rpleas	Amasked	CS_A	2pleas	distractor1	EVAbeforeCON	acq_US_unple_masked	acq45_masked	4	6	400	0	300	300	0	0	332	46	0	1	0	0	0	1	blank2r.bmp	0	1	+	0	5	C1r.bmp	492	1	blank2r.bmp	786	1	CPLW	786	1	blank2r.bmp	866	2	engstirnig	866	1	!	-1	1	!	-1	0	0	0	0	0	0	0	0	0	0	0	0	0	0	0	0	0	0	0	0	0	0	0	0	0	0	0
012219	10:04:05	10:11:26	439455	5.0.10.0	4_exp_EVA_AMP_AWA_CON	82	Rpleas_acq	Same	Rpleas	Amasked	CS_A	2pleas	distractor1	EVAbeforeCON	acq_US_unple_masked	acq45_masked	4	7	400	1	300	300	0	0	416	46	0	1	0	0	0	1	blank2r.bmp	0	1	+	0	4	B4r.bmp	492	1	blank2r.bmp	786	1	CPLW	786	1	blank2r.bmp	866	6	töten	866	1	!	1239	1	!	1319	0	0	0	0	0	0	0	0	0	0	0	0	0	0	0	0	0	0	0	0	0	0	0	0	0	0	0
012219	10:04:05	10:11:29	441694	5.0.10.0	4_exp_EVA_AMP_AWA_CON	82	Rpleas_acq	Same	Rpleas	Amasked	CS_A	2pleas	distractor1	EVAbeforeCON	acq_US_unple_masked	acq45_masked	4	8	400	1	300	300	0	0	448	46	0	1	0	0	0	1	blank2r.bmp	0	1	+	0	2	B2r.bmp	492	1	blank2r.bmp	786	1	CPLW	786	1	blank2r.bmp	866	3	sterben	866	1	!	1239	1	!	1346	0	0	0	0	0	0	0	0	0	0	0	0	0	0	0	0	0	0	0	0	0	0	0	0	0	0	0
012219	10:04:05	10:11:31	443933	5.0.10.0	4_exp_EVA_AMP_AWA_CON	82	Rpleas_acq	Same	Rpleas	Amasked	CS_A	2pleas	distractor1	EVAbeforeCON	acq_US_pleas_masked	acq45_masked	4	9	400	1	300	300	0	0	446	50	0	1	0	0	0	1	blank2r.bmp	0	1	+	0	6	C2r.bmp	492	1	blank2r.bmp	786	1	DHJF	786	1	blank2r.bmp	866	4	kuss	866	1	!	1239	1	!	1346	0	0	0	0	0	0	0	0	0	0	0	0	0	0	0	0	0	0	0	0	0	0	0	0	0	0	0
012219	10:04:05	10:11:33	446172	5.0.10.0	4_exp_EVA_AMP_AWA_CON	82	Rpleas_acq	Same	Rpleas	Amasked	CS_A	2pleas	distractor1	EVAbeforeCON	acq_US_unple_masked	acq45_masked	4	10	400	1	300	300	0	0	441	46	0	1	0	0	0	1	blank2r.bmp	0	1	+	0	1	B1r.bmp	492	1	blank2r.bmp	786	1	CPLW	786	1	blank2r.bmp	866	4	krise	866	1	!	1239	1	!	1346	0	0	0	0	0	0	0	0	0	0	0	0	0	0	0	0	0	0	0	0	0	0	0	0	0	0	0
012219	10:04:05	10:11:35	448438	5.0.10.0	4_exp_EVA_AMP_AWA_CON	82	Rpleas_acq	Same	Rpleas	Amasked	CS_A	2pleas	distractor1	EVAbeforeCON	acq_US_unple_masked	acq45_masked	4	11	400	1	300	300	0	0	465	46	0	1	0	0	0	1	blank2r.bmp	0	1	+	0	8	C4r.bmp	492	1	blank2r.bmp	786	1	CPLW	786	1	blank2r.bmp	866	2	engstirnig	866	1	!	1239	1	!	1372	0	0	0	0	0	0	0	0	0	0	0	0	0	0	0	0	0	0	0	0	0	0	0	0	0	0	0
012219	10:04:05	10:11:37	450477	5.0.10.0	4_exp_EVA_AMP_AWA_CON	82	Rpleas_acq	Same	Rpleas	Amasked	CS_A	2pleas	distractor1	EVAbeforeCON	acq_US_pleas_masked	acq45_masked	4	12	400	0	300	300	0	0	271	46	0	0	0	0	0	1	blank2r.bmp	0	1	+	0	3	B3r.bmp	492	1	blank2r.bmp	786	1	DHJF	786	1	blank2r.bmp	866	6	träumen	866	1	!	-1	1	!	-1	0	0	0	0	0	0	0	0	0	0	0	0	0	0	0	0	0	0	0	0	0	0	0	0	0	0	0
012219	10:04:05	10:11:40	452742	5.0.10.0	4_exp_EVA_AMP_AWA_CON	82	Rpleas_acq	Same	Rpleas	Amasked	CS_A	2pleas	distractor1	EVAbeforeCON	acq_US_unple_masked	acq45_masked	4	13	400	1	300	300	0	0	463	46	0	1	0	0	0	1	blank2r.bmp	0	1	+	0	8	C4r.bmp	492	1	blank2r.bmp	786	1	CPLW	786	1	blank2r.bmp	866	3	sterben	866	1	!	1239	1	!	1359	0	0	0	0	0	0	0	0	0	0	0	0	0	0	0	0	0	0	0	0	0	0	0	0	0	0	0
012219	10:04:05	10:11:42	454795	5.0.10.0	4_exp_EVA_AMP_AWA_CON	82	Rpleas_acq	Same	Rpleas	Amasked	CS_A	2pleas	distractor1	EVAbeforeCON	acq_US_pleas_masked	acq45_masked	4	14	400	0	300	300	0	0	278	46	0	0	0	0	0	1	blank2r.bmp	0	1	+	0	1	B1r.bmp	492	1	blank2r.bmp	786	1	DHJF	786	1	blank2r.bmp	866	3	sonnig	866	1	!	-1	1	!	-1	0	0	0	0	0	0	0	0	0	0	0	0	0	0	0	0	0	0	0	0	0	0	0	0	0	0	0
012219	10:04:05	10:11:44	457034	5.0.10.0	4_exp_EVA_AMP_AWA_CON	82	Rpleas_acq	Same	Rpleas	Amasked	CS_A	2pleas	distractor1	EVAbeforeCON	acq_US_pleas_masked	acq45_masked	4	15	400	1	300	300	0	0	429	50	0	1	0	0	0	1	blank2r.bmp	0	1	+	0	5	C1r.bmp	492	1	blank2r.bmp	786	1	DHJF	786	1	blank2r.bmp	866	4	kuss	866	1	!	1239	1	!	1332	0	0	0	0	0	0	0	0	0	0	0	0	0	0	0	0	0	0	0	0	0	0	0	0	0	0	0
012219	10:04:05	10:11:46	459193	5.0.10.0	4_exp_EVA_AMP_AWA_CON	82	Rpleas_acq	Same	Rpleas	Amasked	CS_A	2pleas	distractor1	EVAbeforeCON	acq_US_pleas_masked	acq45_masked	4	16	400	1	300	300	0	0	367	46	0	0	0	0	0	1	blank2r.bmp	0	1	+	0	6	C2r.bmp	492	1	blank2r.bmp	786	1	DHJF	786	1	blank2r.bmp	866	5	vergnügt	866	1	!	1239	1	!	1266	0	0	0	0	0	0	0	0	0	0	0	0	0	0	0	0	0	0	0	0	0	0	0	0	0	0	0
012219	10:04:05	10:11:48	461405	5.0.10.0	4_exp_EVA_AMP_AWA_CON	82	Rpleas_acq	Same	Rpleas	Amasked	CS_A	2pleas	distractor1	EVAbeforeCON	acq_US_pleas_masked	acq45_masked	4	17	400	1	300	300	0	0	424	50	0	1	0	0	0	1	blank2r.bmp	0	1	+	0	7	C3r.bmp	492	1	blank2r.bmp	786	1	DHJF	786	1	blank2r.bmp	866	1	vertrauen	866	1	!	1239	1	!	1319	0	0	0	0	0	0	0	0	0	0	0	0	0	0	0	0	0	0	0	0	0	0	0	0	0	0	0
012219	10:04:05	10:11:50	463498	5.0.10.0	4_exp_EVA_AMP_AWA_CON	82	Rpleas_acq	Same	Rpleas	Amasked	CS_A	2pleas	distractor1	EVAbeforeCON	acq_US_unple_masked	acq45_masked	4	18	400	0	300	300	0	0	327	46	0	1	0	0	0	1	blank2r.bmp	0	1	+	0	4	B4r.bmp	492	1	blank2r.bmp	786	1	CPLW	786	1	blank2r.bmp	866	1	versagen	866	1	!	-1	1	!	-1	0	0	0	0	0	0	0	0	0	0	0	0	0	0	0	0	0	0	0	0	0	0	0	0	0	0	0
012219	10:04:05	10:11:53	465657	5.0.10.0	4_exp_EVA_AMP_AWA_CON	82	Rpleas_acq	Same	Rpleas	Amasked	CS_A	2pleas	distractor1	EVAbeforeCON	acq_US_pleas_masked	acq45_masked	4	19	400	1	300	300	0	0	353	50	0	1	0	0	0	1	blank2r.bmp	0	1	+	0	3	B3r.bmp	492	1	blank2r.bmp	786	1	DHJF	786	1	blank2r.bmp	866	3	sonnig	866	1	!	1239	1	!	1252	0	0	0	0	0	0	0	0	0	0	0	0	0	0	0	0	0	0	0	0	0	0	0	0	0	0	0
012219	10:04:05	10:11:55	467923	5.0.10.0	4_exp_EVA_AMP_AWA_CON	82	Rpleas_acq	Same	Rpleas	Amasked	CS_A	2pleas	distractor1	EVAbeforeCON	acq_US_unple_masked	acq45_masked	4	20	400	1	300	300	0	0	457	46	0	1	0	0	0	1	blank2r.bmp	0	1	+	0	2	B2r.bmp	492	1	blank2r.bmp	786	1	CPLW	786	1	blank2r.bmp	866	4	krise	866	1	!	1239	1	!	1359	0	0	0	0	0	0	0	0	0	0	0	0	0	0	0	0	0	0	0	0	0	0	0	0	0	0	0
012219	10:04:05	10:11:57	470242	5.0.10.0	4_exp_EVA_AMP_AWA_CON	82	Rpleas_acq	Same	Rpleas	Amasked	CS_A	2pleas	distractor1	EVAbeforeCON	acq_US_unple_masked	acq45_masked	4	21	400	0	300	300	0	0	545	46	0	1	0	0	0	1	blank2r.bmp	0	1	+	0	4	B4r.bmp	492	1	blank2r.bmp	786	1	CPLW	786	1	blank2r.bmp	866	5	verbissen	866	1	!	1239	1	!	-1	0	0	0	0	0	0	0	0	0	0	0	0	0	0	0	0	0	0	0	0	0	0	0	0	0	0	0
012219	10:04:05	10:11:59	472321	5.0.10.0	4_exp_EVA_AMP_AWA_CON	82	Rpleas_acq	Same	Rpleas	Amasked	CS_A	2pleas	distractor1	EVAbeforeCON	acq_US_unple_masked	acq45_masked	4	22	400	0	300	300	0	0	302	46	0	1	0	0	0	1	blank2r.bmp	0	1	+	0	8	C4r.bmp	492	1	blank2r.bmp	786	1	CPLW	786	1	blank2r.bmp	866	6	töten	866	1	!	-1	1	!	-1	0	0	0	0	0	0	0	0	0	0	0	0	0	0	0	0	0	0	0	0	0	0	0	0	0	0	0
012219	10:04:05	10:12:02	474573	5.0.10.0	4_exp_EVA_AMP_AWA_CON	82	Rpleas_acq	Same	Rpleas	Amasked	CS_A	2pleas	distractor1	EVAbeforeCON	acq_US_pleas_masked	acq45_masked	4	23	400	1	300	300	0	0	428	50	0	1	0	0	0	1	blank2r.bmp	0	1	+	0	5	C1r.bmp	492	1	blank2r.bmp	786	1	DHJF	786	1	blank2r.bmp	866	6	träumen	866	1	!	1239	1	!	1332	0	0	0	0	0	0	0	0	0	0	0	0	0	0	0	0	0	0	0	0	0	0	0	0	0	0	0
012219	10:04:05	10:12:04	476826	5.0.10.0	4_exp_EVA_AMP_AWA_CON	82	Rpleas_acq	Same	Rpleas	Amasked	CS_A	2pleas	distractor1	EVAbeforeCON	acq_US_pleas_masked	acq45_masked	4	24	400	1	300	300	0	0	465	46	0	0	0	0	0	1	blank2r.bmp	0	1	+	0	1	B1r.bmp	492	1	blank2r.bmp	786	1	DHJF	786	1	blank2r.bmp	866	2	engagiert	866	1	!	1239	1	!	1359	0	0	0	0	0	0	0	0	0	0	0	0	0	0	0	0	0	0	0	0	0	0	0	0	0	0	0
012219	10:04:05	10:12:06	479011	5.0.10.0	4_exp_EVA_AMP_AWA_CON	82	Rpleas_acq	Same	Rpleas	Amasked	CS_A	2pleas	distractor1	EVAbeforeCON	acq_US_unple_masked	acq45_masked	4	25	400	1	300	300	0	0	376	50	0	0	0	0	0	1	blank2r.bmp	0	1	+	0	6	C2r.bmp	492	1	blank2r.bmp	786	1	CPLW	786	1	blank2r.bmp	866	4	krise	866	1	!	1239	1	!	1279	0	0	0	0	0	0	0	0	0	0	0	0	0	0	0	0	0	0	0	0	0	0	0	0	0	0	0
012219	10:04:05	10:12:08	481171	5.0.10.0	4_exp_EVA_AMP_AWA_CON	82	Rpleas_acq	Same	Rpleas	Amasked	CS_A	2pleas	distractor1	EVAbeforeCON	acq_US_unple_masked	acq45_masked	4	26	400	1	300	300	0	0	346	46	0	1	0	0	0	1	blank2r.bmp	0	1	+	0	2	B2r.bmp	492	1	blank2r.bmp	786	1	CPLW	786	1	blank2r.bmp	866	6	töten	866	1	!	1239	1	!	1252	0	0	0	0	0	0	0	0	0	0	0	0	0	0	0	0	0	0	0	0	0	0	0	0	0	0	0
012219	10:04:05	10:12:10	483316	5.0.10.0	4_exp_EVA_AMP_AWA_CON	82	Rpleas_acq	Same	Rpleas	Amasked	CS_A	2pleas	distractor1	EVAbeforeCON	acq_US_unple_masked	acq45_masked	4	27	400	1	300	300	0	0	355	50	0	0	0	0	0	1	blank2r.bmp	0	1	+	0	3	B3r.bmp	492	1	blank2r.bmp	786	1	CPLW	786	1	blank2r.bmp	866	1	versagen	866	1	!	1239	1	!	1252	0	0	0	0	0	0	0	0	0	0	0	0	0	0	0	0	0	0	0	0	0	0	0	0	0	0	0
012219	10:04:05	10:12:13	485515	5.0.10.0	4_exp_EVA_AMP_AWA_CON	82	Rpleas_acq	Same	Rpleas	Amasked	CS_A	2pleas	distractor1	EVAbeforeCON	acq_US_unple_masked	acq45_masked	4	28	400	1	300	300	0	0	397	46	0	1	0	0	0	1	blank2r.bmp	0	1	+	0	7	C3r.bmp	492	1	blank2r.bmp	786	1	CPLW	786	1	blank2r.bmp	866	5	verbissen	866	1	!	1239	1	!	1292	0	0	0	0	0	0	0	0	0	0	0	0	0	0	0	0	0	0	0	0	0	0	0	0	0	0	0
012219	10:04:05	10:12:15	487821	5.0.10.0	4_exp_EVA_AMP_AWA_CON	82	Rpleas_acq	Same	Rpleas	Amasked	CS_A	2pleas	distractor1	EVAbeforeCON	acq_US_pleas_masked	acq45_masked	4	29	400	0	300	300	0	0	527	50	0	1	0	0	0	1	blank2r.bmp	0	1	+	0	8	C4r.bmp	492	1	blank2r.bmp	786	1	DHJF	786	1	blank2r.bmp	866	2	engagiert	866	1	!	1239	1	!	-1	0	0	0	0	0	0	0	0	0	0	0	0	0	0	0	0	0	0	0	0	0	0	0	0	0	0	0
012219	10:04:05	10:12:17	489993	5.0.10.0	4_exp_EVA_AMP_AWA_CON	82	Rpleas_acq	Same	Rpleas	Amasked	CS_A	2pleas	distractor1	EVAbeforeCON	acq_US_pleas_masked	acq45_masked	4	30	400	1	300	300	0	0	369	46	0	0	0	0	0	1	blank2r.bmp	0	1	+	0	3	B3r.bmp	492	1	blank2r.bmp	786	1	DHJF	786	1	blank2r.bmp	866	6	träumen	866	1	!	1239	1	!	1266	0	0	0	0	0	0	0	0	0	0	0	0	0	0	0	0	0	0	0	0	0	0	0	0	0	0	0
012219	10:04:05	10:12:19	492246	5.0.10.0	4_exp_EVA_AMP_AWA_CON	82	Rpleas_acq	Same	Rpleas	Amasked	CS_A	2pleas	distractor1	EVAbeforeCON	acq_US_pleas_masked	acq45_masked	4	31	400	1	300	300	0	0	451	50	0	1	0	0	0	1	blank2r.bmp	0	1	+	0	4	B4r.bmp	492	1	blank2r.bmp	786	1	DHJF	786	1	blank2r.bmp	866	1	vertrauen	866	1	!	1239	1	!	1346	0	0	0	0	0	0	0	0	0	0	0	0	0	0	0	0	0	0	0	0	0	0	0	0	0	0	0
012219	10:04:05	10:12:21	494392	5.0.10.0	4_exp_EVA_AMP_AWA_CON	82	Rpleas_acq	Same	Rpleas	Amasked	CS_A	2pleas	distractor1	EVAbeforeCON	acq_US_unple_masked	acq45_masked	4	32	400	1	300	300	0	0	346	46	0	1	0	0	0	1	blank2r.bmp	0	1	+	0	1	B1r.bmp	492	1	blank2r.bmp	786	1	CPLW	786	1	blank2r.bmp	866	2	engstirnig	866	1	!	1239	1	!	1252	0	0	0	0	0	0	0	0	0	0	0	0	0	0	0	0	0	0	0	0	0	0	0	0	0	0	0
012219	10:04:05	10:12:24	496684	5.0.10.0	4_exp_EVA_AMP_AWA_CON	82	Rpleas_acq	Same	Rpleas	Amasked	CS_A	2pleas	distractor1	EVAbeforeCON	acq_US_pleas_masked	acq45_masked	4	33	400	0	300	300	0	0	512	50	0	1	0	0	0	1	blank2r.bmp	0	1	+	0	6	C2r.bmp	492	1	blank2r.bmp	786	1	DHJF	786	1	blank2r.bmp	866	5	vergnügt	866	1	!	1239	1	!	-1	0	0	0	0	0	0	0	0	0	0	0	0	0	0	0	0	0	0	0	0	0	0	0	0	0	0	0
012219	10:04:05	10:12:26	498896	5.0.10.0	4_exp_EVA_AMP_AWA_CON	82	Rpleas_acq	Same	Rpleas	Amasked	CS_A	2pleas	distractor1	EVAbeforeCON	acq_US_pleas_masked	acq45_masked	4	34	400	1	300	300	0	0	401	50	0	1	0	0	0	1	blank2r.bmp	0	1	+	0	5	C1r.bmp	492	1	blank2r.bmp	786	1	DHJF	786	1	blank2r.bmp	866	4	kuss	866	1	!	1239	1	!	1306	0	0	0	0	0	0	0	0	0	0	0	0	0	0	0	0	0	0	0	0	0	0	0	0	0	0	0
012219	10:04:05	10:12:28	501042	5.0.10.0	4_exp_EVA_AMP_AWA_CON	82	Rpleas_acq	Same	Rpleas	Amasked	CS_A	2pleas	distractor1	EVAbeforeCON	acq_US_pleas_masked	acq45_masked	4	35	400	1	300	300	0	0	346	50	0	1	0	0	0	1	blank2r.bmp	0	1	+	0	2	B2r.bmp	492	1	blank2r.bmp	786	1	DHJF	786	1	blank2r.bmp	866	3	sonnig	866	1	!	1239	1	!	1252	0	0	0	0	0	0	0	0	0	0	0	0	0	0	0	0	0	0	0	0	0	0	0	0	0	0	0
012219	10:04:05	10:12:30	503308	5.0.10.0	4_exp_EVA_AMP_AWA_CON	82	Rpleas_acq	Same	Rpleas	Amasked	CS_A	2pleas	distractor1	EVAbeforeCON	acq_US_unple_masked	acq45_masked	4	36	400	0	300	300	0	0	498	46	0	1	0	0	0	1	blank2r.bmp	0	1	+	0	7	C3r.bmp	492	1	blank2r.bmp	786	1	CPLW	786	1	blank2r.bmp	866	3	sterben	866	1	!	1239	1	!	-1	0	0	0	0	0	0	0	0	0	0	0	0	0	0	0	0	0	0	0	0	0	0	0	0	0	0	0
012219	10:04:05	10:12:36	509345	5.0.10.0	4_exp_EVA_AMP_AWA_CON	82	Rpleas_acq	Same	Rpleas	Amasked	CS_A	2pleas	distractor1	EVAbeforeCON	acq_US_pleas_masked	acq45_masked	5	1	400	0	300	300	0	0	613	50	0	1	0	0	0	1	blank2r.bmp	0	1	+	0	1	B1r.bmp	492	1	blank2r.bmp	786	1	DHJF	786	1	blank2r.bmp	866	5	vergnügt	866	1	!	1239	1	!	-1	0	0	0	0	0	0	0	0	0	0	0	0	0	0	0	0	0	0	0	0	0	0	0	0	0	0	0
012219	10:04:05	10:12:38	511451	5.0.10.0	4_exp_EVA_AMP_AWA_CON	82	Rpleas_acq	Same	Rpleas	Amasked	CS_A	2pleas	distractor1	EVAbeforeCON	acq_US_pleas_masked	acq45_masked	5	2	400	0	300	300	0	0	324	46	0	0	0	0	0	1	blank2r.bmp	0	1	+	0	5	C1r.bmp	492	1	blank2r.bmp	786	1	DHJF	786	1	blank2r.bmp	866	6	träumen	866	1	!	-1	1	!	-1	0	0	0	0	0	0	0	0	0	0	0	0	0	0	0	0	0	0	0	0	0	0	0	0	0	0	0
012219	10:04:05	10:12:41	513637	5.0.10.0	4_exp_EVA_AMP_AWA_CON	82	Rpleas_acq	Same	Rpleas	Amasked	CS_A	2pleas	distractor1	EVAbeforeCON	acq_US_unple_masked	acq45_masked	5	3	400	1	300	300	0	0	383	50	0	0	0	0	0	1	blank2r.bmp	0	1	+	0	4	B4r.bmp	492	1	blank2r.bmp	786	1	CPLW	786	1	blank2r.bmp	866	6	töten	866	1	!	1239	1	!	1279	0	0	0	0	0	0	0	0	0	0	0	0	0	0	0	0	0	0	0	0	0	0	0	0	0	0	0
012219	10:04:05	10:12:43	515689	5.0.10.0	4_exp_EVA_AMP_AWA_CON	82	Rpleas_acq	Same	Rpleas	Amasked	CS_A	2pleas	distractor1	EVAbeforeCON	acq_US_pleas_masked	acq45_masked	5	4	400	0	300	300	0	0	278	46	0	0	0	0	0	1	blank2r.bmp	0	1	+	0	6	C2r.bmp	492	1	blank2r.bmp	786	1	DHJF	786	1	blank2r.bmp	866	1	vertrauen	866	1	!	-1	1	!	-1	0	0	0	0	0	0	0	0	0	0	0	0	0	0	0	0	0	0	0	0	0	0	0	0	0	0	0
012219	10:04:05	10:12:45	517862	5.0.10.0	4_exp_EVA_AMP_AWA_CON	82	Rpleas_acq	Same	Rpleas	Amasked	CS_A	2pleas	distractor1	EVAbeforeCON	acq_US_pleas_masked	acq45_masked	5	5	400	1	300	300	0	0	346	50	0	1	0	0	0	1	blank2r.bmp	0	1	+	0	8	C4r.bmp	492	1	blank2r.bmp	786	1	DHJF	786	1	blank2r.bmp	866	4	kuss	866	1	!	1239	1	!	1252	0	0	0	0	0	0	0	0	0	0	0	0	0	0	0	0	0	0	0	0	0	0	0	0	0	0	0
012219	10:04:05	10:12:47	520008	5.0.10.0	4_exp_EVA_AMP_AWA_CON	82	Rpleas_acq	Same	Rpleas	Amasked	CS_A	2pleas	distractor1	EVAbeforeCON	acq_US_unple_masked	acq45_masked	5	6	400	1	300	300	0	0	346	46	0	1	0	0	0	1	blank2r.bmp	0	1	+	0	7	C3r.bmp	492	1	blank2r.bmp	786	1	CPLW	786	1	blank2r.bmp	866	5	verbissen	866	1	!	1239	1	!	1252	0	0	0	0	0	0	0	0	0	0	0	0	0	0	0	0	0	0	0	0	0	0	0	0	0	0	0
012219	10:04:05	10:12:49	522247	5.0.10.0	4_exp_EVA_AMP_AWA_CON	82	Rpleas_acq	Same	Rpleas	Amasked	CS_A	2pleas	distractor1	EVAbeforeCON	acq_US_pleas_masked	acq45_masked	5	7	400	1	300	300	0	0	429	50	0	1	0	0	0	1	blank2r.bmp	0	1	+	0	2	B2r.bmp	492	1	blank2r.bmp	786	1	DHJF	786	1	blank2r.bmp	866	3	sonnig	866	1	!	1239	1	!	1332	0	0	0	0	0	0	0	0	0	0	0	0	0	0	0	0	0	0	0	0	0	0	0	0	0	0	0
012219	10:04:05	10:12:51	524299	5.0.10.0	4_exp_EVA_AMP_AWA_CON	82	Rpleas_acq	Same	Rpleas	Amasked	CS_A	2pleas	distractor1	EVAbeforeCON	acq_US_unple_masked	acq45_masked	5	8	400	0	300	300	0	0	287	46	0	1	0	0	0	1	blank2r.bmp	0	1	+	0	3	B3r.bmp	492	1	blank2r.bmp	786	1	CPLW	786	1	blank2r.bmp	866	2	engstirnig	866	1	!	-1	1	!	-1	0	0	0	0	0	0	0	0	0	0	0	0	0	0	0	0	0	0	0	0	0	0	0	0	0	0	0
012219	10:04:05	10:12:54	526525	5.0.10.0	4_exp_EVA_AMP_AWA_CON	82	Rpleas_acq	Same	Rpleas	Amasked	CS_A	2pleas	distractor1	EVAbeforeCON	acq_US_unple_masked	acq45_masked	5	9	400	1	300	300	0	0	411	50	0	0	0	0	0	1	blank2r.bmp	0	1	+	0	4	B4r.bmp	492	1	blank2r.bmp	786	1	CPLW	786	1	blank2r.bmp	866	1	versagen	866	1	!	1239	1	!	1306	0	0	0	0	0	0	0	0	0	0	0	0	0	0	0	0	0	0	0	0	0	0	0	0	0	0	0
012219	10:04:05	10:12:56	528711	5.0.10.0	4_exp_EVA_AMP_AWA_CON	82	Rpleas_acq	Same	Rpleas	Amasked	CS_A	2pleas	distractor1	EVAbeforeCON	acq_US_unple_masked	acq45_masked	5	10	400	1	300	300	0	0	388	46	0	1	0	0	0	1	blank2r.bmp	0	1	+	0	1	B1r.bmp	492	1	blank2r.bmp	786	1	CPLW	786	1	blank2r.bmp	866	4	krise	866	1	!	1239	1	!	1292	0	0	0	0	0	0	0	0	0	0	0	0	0	0	0	0	0	0	0	0	0	0	0	0	0	0	0
012219	10:04:05	10:12:58	530750	5.0.10.0	4_exp_EVA_AMP_AWA_CON	82	Rpleas_acq	Same	Rpleas	Amasked	CS_A	2pleas	distractor1	EVAbeforeCON	acq_US_unple_masked	acq45_masked	5	11	400	0	300	300	0	0	278	46	0	1	0	0	0	1	blank2r.bmp	0	1	+	0	6	C2r.bmp	492	1	blank2r.bmp	786	1	CPLW	786	1	blank2r.bmp	866	3	sterben	866	1	!	-1	1	!	-1	0	0	0	0	0	0	0	0	0	0	0	0	0	0	0	0	0	0	0	0	0	0	0	0	0	0	0
012219	10:04:05	10:13:00	532909	5.0.10.0	4_exp_EVA_AMP_AWA_CON	82	Rpleas_acq	Same	Rpleas	Amasked	CS_A	2pleas	distractor1	EVAbeforeCON	acq_US_unple_masked	acq45_masked	5	12	400	1	300	300	0	0	357	46	0	1	0	0	0	1	blank2r.bmp	0	1	+	0	7	C3r.bmp	492	1	blank2r.bmp	786	1	CPLW	786	1	blank2r.bmp	866	6	töten	866	1	!	1239	1	!	1252	0	0	0	0	0	0	0	0	0	0	0	0	0	0	0	0	0	0	0	0	0	0	0	0	0	0	0
012219	10:04:05	10:13:02	535015	5.0.10.0	4_exp_EVA_AMP_AWA_CON	82	Rpleas_acq	Same	Rpleas	Amasked	CS_A	2pleas	distractor1	EVAbeforeCON	acq_US_unple_masked	acq45_masked	5	13	400	0	300	300	0	0	324	46	0	1	0	0	0	1	blank2r.bmp	0	1	+	0	5	C1r.bmp	492	1	blank2r.bmp	786	1	CPLW	786	1	blank2r.bmp	866	3	sterben	866	1	!	-1	1	!	-1	0	0	0	0	0	0	0	0	0	0	0	0	0	0	0	0	0	0	0	0	0	0	0	0	0	0	0
012219	10:04:05	10:13:04	537120	5.0.10.0	4_exp_EVA_AMP_AWA_CON	82	Rpleas_acq	Same	Rpleas	Amasked	CS_A	2pleas	distractor1	EVAbeforeCON	acq_US_pleas_masked	acq45_masked	5	14	400	0	300	300	0	0	325	46	0	0	0	0	0	1	blank2r.bmp	0	1	+	0	8	C4r.bmp	492	1	blank2r.bmp	786	1	DHJF	786	1	blank2r.bmp	866	2	engagiert	866	1	!	-1	1	!	-1	0	0	0	0	0	0	0	0	0	0	0	0	0	0	0	0	0	0	0	0	0	0	0	0	0	0	0
012219	10:04:05	10:13:06	539373	5.0.10.0	4_exp_EVA_AMP_AWA_CON	82	Rpleas_acq	Same	Rpleas	Amasked	CS_A	2pleas	distractor1	EVAbeforeCON	acq_US_unple_masked	acq45_masked	5	15	400	1	300	300	0	0	451	46	0	1	0	0	0	1	blank2r.bmp	0	1	+	0	3	B3r.bmp	492	1	blank2r.bmp	786	1	CPLW	786	1	blank2r.bmp	866	4	krise	866	1	!	1239	1	!	1346	0	0	0	0	0	0	0	0	0	0	0	0	0	0	0	0	0	0	0	0	0	0	0	0	0	0	0
012219	10:04:05	10:13:08	541425	5.0.10.0	4_exp_EVA_AMP_AWA_CON	82	Rpleas_acq	Same	Rpleas	Amasked	CS_A	2pleas	distractor1	EVAbeforeCON	acq_US_pleas_masked	acq45_masked	5	16	400	0	300	300	0	0	283	46	0	0	0	0	0	1	blank2r.bmp	0	1	+	0	2	B2r.bmp	492	1	blank2r.bmp	786	1	DHJF	786	1	blank2r.bmp	866	6	träumen	866	1	!	-1	1	!	-1	0	0	0	0	0	0	0	0	0	0	0	0	0	0	0	0	0	0	0	0	0	0	0	0	0	0	0
012219	10:04:05	10:13:11	543664	5.0.10.0	4_exp_EVA_AMP_AWA_CON	82	Rpleas_acq	Same	Rpleas	Amasked	CS_A	2pleas	distractor1	EVAbeforeCON	acq_US_pleas_masked	acq45_masked	5	17	400	1	300	300	0	0	436	50	0	1	0	0	0	1	blank2r.bmp	0	1	+	0	7	C3r.bmp	492	1	blank2r.bmp	786	1	DHJF	786	1	blank2r.bmp	866	4	kuss	866	1	!	1239	1	!	1332	0	0	0	0	0	0	0	0	0	0	0	0	0	0	0	0	0	0	0	0	0	0	0	0	0	0	0
012219	10:04:05	10:13:13	545823	5.0.10.0	4_exp_EVA_AMP_AWA_CON	82	Rpleas_acq	Same	Rpleas	Amasked	CS_A	2pleas	distractor1	EVAbeforeCON	acq_US_pleas_masked	acq45_masked	5	18	400	1	300	300	0	0	371	50	0	1	0	0	0	1	blank2r.bmp	0	1	+	0	2	B2r.bmp	492	1	blank2r.bmp	786	1	DHJF	786	1	blank2r.bmp	866	3	sonnig	866	1	!	1239	1	!	1266	0	0	0	0	0	0	0	0	0	0	0	0	0	0	0	0	0	0	0	0	0	0	0	0	0	0	0
012219	10:04:05	10:13:15	548022	5.0.10.0	4_exp_EVA_AMP_AWA_CON	82	Rpleas_acq	Same	Rpleas	Amasked	CS_A	2pleas	distractor1	EVAbeforeCON	acq_US_unple_masked	acq45_masked	5	19	400	1	300	300	0	0	410	46	0	1	0	0	0	1	blank2r.bmp	0	1	+	0	1	B1r.bmp	492	1	blank2r.bmp	786	1	CPLW	786	1	blank2r.bmp	866	5	verbissen	866	1	!	1239	1	!	1306	0	0	0	0	0	0	0	0	0	0	0	0	0	0	0	0	0	0	0	0	0	0	0	0	0	0	0
012219	10:04:05	10:13:17	550275	5.0.10.0	4_exp_EVA_AMP_AWA_CON	82	Rpleas_acq	Same	Rpleas	Amasked	CS_A	2pleas	distractor1	EVAbeforeCON	acq_US_pleas_masked	acq45_masked	5	20	400	1	300	300	0	0	463	50	0	1	0	0	0	1	blank2r.bmp	0	1	+	0	4	B4r.bmp	492	1	blank2r.bmp	786	1	DHJF	786	1	blank2r.bmp	866	5	vergnügt	866	1	!	1239	1	!	1359	0	0	0	0	0	0	0	0	0	0	0	0	0	0	0	0	0	0	0	0	0	0	0	0	0	0	0
012219	10:04:05	10:13:20	552607	5.0.10.0	4_exp_EVA_AMP_AWA_CON	82	Rpleas_acq	Same	Rpleas	Amasked	CS_A	2pleas	distractor1	EVAbeforeCON	acq_US_unple_masked	acq45_masked	5	21	400	0	300	300	0	0	569	46	0	1	0	0	0	1	blank2r.bmp	0	1	+	0	8	C4r.bmp	492	1	blank2r.bmp	786	1	CPLW	786	1	blank2r.bmp	866	2	engstirnig	866	1	!	1239	1	!	-1	0	0	0	0	0	0	0	0	0	0	0	0	0	0	0	0	0	0	0	0	0	0	0	0	0	0	0
012219	10:04:05	10:13:22	554873	5.0.10.0	4_exp_EVA_AMP_AWA_CON	82	Rpleas_acq	Same	Rpleas	Amasked	CS_A	2pleas	distractor1	EVAbeforeCON	acq_US_pleas_masked	acq45_masked	5	22	400	1	300	300	0	0	464	50	0	1	0	0	0	1	blank2r.bmp	0	1	+	0	3	B3r.bmp	492	1	blank2r.bmp	786	1	DHJF	786	1	blank2r.bmp	866	2	engagiert	866	1	!	1239	1	!	1359	0	0	0	0	0	0	0	0	0	0	0	0	0	0	0	0	0	0	0	0	0	0	0	0	0	0	0
012219	10:04:05	10:13:24	557139	5.0.10.0	4_exp_EVA_AMP_AWA_CON	82	Rpleas_acq	Same	Rpleas	Amasked	CS_A	2pleas	distractor1	EVAbeforeCON	acq_US_pleas_masked	acq45_masked	5	23	400	1	300	300	0	0	461	50	0	1	0	0	0	1	blank2r.bmp	0	1	+	0	5	C1r.bmp	492	1	blank2r.bmp	786	1	DHJF	786	1	blank2r.bmp	866	1	vertrauen	866	1	!	1239	1	!	1359	0	0	0	0	0	0	0	0	0	0	0	0	0	0	0	0	0	0	0	0	0	0	0	0	0	0	0
012219	10:04:05	10:13:26	559364	5.0.10.0	4_exp_EVA_AMP_AWA_CON	82	Rpleas_acq	Same	Rpleas	Amasked	CS_A	2pleas	distractor1	EVAbeforeCON	acq_US_pleas_masked	acq45_masked	5	24	400	1	300	300	0	0	436	50	0	1	0	0	0	1	blank2r.bmp	0	1	+	0	6	C2r.bmp	492	1	blank2r.bmp	786	1	DHJF	786	1	blank2r.bmp	866	1	vertrauen	866	1	!	1239	1	!	1332	0	0	0	0	0	0	0	0	0	0	0	0	0	0	0	0	0	0	0	0	0	0	0	0	0	0	0
012219	10:04:05	10:13:28	561470	5.0.10.0	4_exp_EVA_AMP_AWA_CON	82	Rpleas_acq	Same	Rpleas	Amasked	CS_A	2pleas	distractor1	EVAbeforeCON	acq_US_unple_masked	acq45_masked	5	25	400	0	300	300	0	0	326	50	0	0	0	0	0	1	blank2r.bmp	0	1	+	0	5	C1r.bmp	492	1	blank2r.bmp	786	1	CPLW	786	1	blank2r.bmp	866	1	versagen	866	1	!	-1	1	!	-1	0	0	0	0	0	0	0	0	0	0	0	0	0	0	0	0	0	0	0	0	0	0	0	0	0	0	0
012219	10:04:05	10:13:31	563683	5.0.10.0	4_exp_EVA_AMP_AWA_CON	82	Rpleas_acq	Same	Rpleas	Amasked	CS_A	2pleas	distractor1	EVAbeforeCON	acq_US_unple_masked	acq45_masked	5	26	400	1	300	300	0	0	404	46	0	1	0	0	0	1	blank2r.bmp	0	1	+	0	6	C2r.bmp	492	1	blank2r.bmp	786	1	CPLW	786	1	blank2r.bmp	866	1	versagen	866	1	!	1239	1	!	1306	0	0	0	0	0	0	0	0	0	0	0	0	0	0	0	0	0	0	0	0	0	0	0	0	0	0	0
012219	10:04:05	10:13:33	565882	5.0.10.0	4_exp_EVA_AMP_AWA_CON	82	Rpleas_acq	Same	Rpleas	Amasked	CS_A	2pleas	distractor1	EVAbeforeCON	acq_US_unple_masked	acq45_masked	5	27	400	1	300	300	0	0	399	46	0	1	0	0	0	1	blank2r.bmp	0	1	+	0	1	B1r.bmp	492	1	blank2r.bmp	786	1	CPLW	786	1	blank2r.bmp	866	3	sterben	866	1	!	1239	1	!	1306	0	0	0	0	0	0	0	0	0	0	0	0	0	0	0	0	0	0	0	0	0	0	0	0	0	0	0
012219	10:04:05	10:13:35	568134	5.0.10.0	4_exp_EVA_AMP_AWA_CON	82	Rpleas_acq	Same	Rpleas	Amasked	CS_A	2pleas	distractor1	EVAbeforeCON	acq_US_pleas_masked	acq45_masked	5	28	400	0	300	300	0	0	488	50	0	1	0	0	0	1	blank2r.bmp	0	1	+	0	3	B3r.bmp	492	1	blank2r.bmp	786	1	DHJF	786	1	blank2r.bmp	866	4	kuss	866	1	!	1239	1	!	-1	0	0	0	0	0	0	0	0	0	0	0	0	0	0	0	0	0	0	0	0	0	0	0	0	0	0	0
012219	10:04:05	10:13:37	570253	5.0.10.0	4_exp_EVA_AMP_AWA_CON	82	Rpleas_acq	Same	Rpleas	Amasked	CS_A	2pleas	distractor1	EVAbeforeCON	acq_US_unple_masked	acq45_masked	5	29	400	0	300	300	0	0	322	46	0	1	0	0	0	1	blank2r.bmp	0	1	+	0	4	B4r.bmp	492	1	blank2r.bmp	786	1	CPLW	786	1	blank2r.bmp	866	6	töten	866	1	!	-1	1	!	-1	0	0	0	0	0	0	0	0	0	0	0	0	0	0	0	0	0	0	0	0	0	0	0	0	0	0	0
012219	10:04:05	10:13:39	572505	5.0.10.0	4_exp_EVA_AMP_AWA_CON	82	Rpleas_acq	Same	Rpleas	Amasked	CS_A	2pleas	distractor1	EVAbeforeCON	acq_US_unple_masked	acq45_masked	5	30	400	1	300	300	0	0	446	46	0	1	0	0	0	1	blank2r.bmp	0	1	+	0	7	C3r.bmp	492	1	blank2r.bmp	786	1	CPLW	786	1	blank2r.bmp	866	2	engstirnig	866	1	!	1239	1	!	1346	0	0	0	0	0	0	0	0	0	0	0	0	0	0	0	0	0	0	0	0	0	0	0	0	0	0	0
012219	10:04:05	10:13:42	574651	5.0.10.0	4_exp_EVA_AMP_AWA_CON	82	Rpleas_acq	Same	Rpleas	Amasked	CS_A	2pleas	distractor1	EVAbeforeCON	acq_US_pleas_masked	acq45_masked	5	31	400	1	300	300	0	0	346	46	0	0	0	0	0	1	blank2r.bmp	0	1	+	0	2	B2r.bmp	492	1	blank2r.bmp	786	1	DHJF	786	1	blank2r.bmp	866	2	engagiert	866	1	!	1239	1	!	1252	0	0	0	0	0	0	0	0	0	0	0	0	0	0	0	0	0	0	0	0	0	0	0	0	0	0	0
012219	10:04:05	10:13:44	576904	5.0.10.0	4_exp_EVA_AMP_AWA_CON	82	Rpleas_acq	Same	Rpleas	Amasked	CS_A	2pleas	distractor1	EVAbeforeCON	acq_US_pleas_masked	acq45_masked	5	32	400	0	300	300	0	0	479	50	0	1	0	0	0	1	blank2r.bmp	0	1	+	0	8	C4r.bmp	492	1	blank2r.bmp	786	1	DHJF	786	1	blank2r.bmp	866	3	sonnig	866	1	!	1239	1	!	-1	0	0	0	0	0	0	0	0	0	0	0	0	0	0	0	0	0	0	0	0	0	0	0	0	0	0	0
012219	10:04:05	10:13:46	579129	5.0.10.0	4_exp_EVA_AMP_AWA_CON	82	Rpleas_acq	Same	Rpleas	Amasked	CS_A	2pleas	distractor1	EVAbeforeCON	acq_US_unple_masked	acq45_masked	5	33	400	1	300	300	0	0	406	46	0	1	0	0	0	1	blank2r.bmp	0	1	+	0	4	B4r.bmp	492	1	blank2r.bmp	786	1	CPLW	786	1	blank2r.bmp	866	4	krise	866	1	!	1239	1	!	1306	0	0	0	0	0	0	0	0	0	0	0	0	0	0	0	0	0	0	0	0	0	0	0	0	0	0	0
012219	10:04:05	10:13:48	581368	5.0.10.0	4_exp_EVA_AMP_AWA_CON	82	Rpleas_acq	Same	Rpleas	Amasked	CS_A	2pleas	distractor1	EVAbeforeCON	acq_US_pleas_masked	acq45_masked	5	34	400	1	300	300	0	0	438	50	0	1	0	0	0	1	blank2r.bmp	0	1	+	0	1	B1r.bmp	492	1	blank2r.bmp	786	1	DHJF	786	1	blank2r.bmp	866	5	vergnügt	866	1	!	1239	1	!	1332	0	0	0	0	0	0	0	0	0	0	0	0	0	0	0	0	0	0	0	0	0	0	0	0	0	0	0
012219	10:04:05	10:13:50	583434	5.0.10.0	4_exp_EVA_AMP_AWA_CON	82	Rpleas_acq	Same	Rpleas	Amasked	CS_A	2pleas	distractor1	EVAbeforeCON	acq_US_pleas_masked	acq45_masked	5	35	400	0	300	300	0	0	296	46	0	0	0	0	0	1	blank2r.bmp	0	1	+	0	6	C2r.bmp	492	1	blank2r.bmp	786	1	DHJF	786	1	blank2r.bmp	866	6	träumen	866	1	!	-1	1	!	-1	0	0	0	0	0	0	0	0	0	0	0	0	0	0	0	0	0	0	0	0	0	0	0	0	0	0	0
012219	10:04:05	10:13:53	585793	5.0.10.0	4_exp_EVA_AMP_AWA_CON	82	Rpleas_acq	Same	Rpleas	Amasked	CS_A	2pleas	distractor1	EVAbeforeCON	acq_US_unple_masked	acq45_masked	5	36	400	0	300	300	0	0	574	46	0	1	0	0	0	1	blank2r.bmp	0	1	+	0	7	C3r.bmp	492	1	blank2r.bmp	786	1	CPLW	786	1	blank2r.bmp	866	5	verbissen	866	1	!	1239	1	!	-1	0	0	0	0	0	0	0	0	0	0	0	0	0	0	0	0	0	0	0	0	0	0	0	0	0	0	0
012219	10:04:05	10:14:22	614541	5.0.10.0	4_exp_EVA_AMP_AWA_CON	82	Rpleas_acq	Same	Rpleas	Amasked	CS_A	2pleas	distractor1	EVAbeforeCON	EvalRating_firsttwo	EvalRating_firsttwo	6	1	0	0	300	300	0	0	2343	line	-68,84765625	0	0	0	0	1	eraser	1	1	Wie angenehm oder unangenehm finden Sie die  Buchstabenkette ZGXT?	1	1	leftborder	1	1	rightborder	1	1	line	1	1	Unangenehm	1	1	Angenehm	1	0	0	0	0	0	0	0	0	0	0	0	0	0	0	0	0	0	0	0	0	0	0	0	0	0	0	0	0	0	0	0	0	0
012219	10:04:05	10:14:26	618699	5.0.10.0	4_exp_EVA_AMP_AWA_CON	82	Rpleas_acq	Same	Rpleas	Amasked	CS_A	2pleas	distractor1	EVAbeforeCON	EvalRating_lastfour	EvalRating_lastfour	7	1	0	0	300	300	0	0	1710	line	18,798828125	0	0	0	0	1	eraser	1	1	Wie angenehm oder unangenehm finden Sie die  Buchstabenkette CPLW?	1	1	leftborder	1	1	rightborder	1	1	line	1	1	Unangenehm	1	1	Angenehm	1	0	0	0	0	0	0	0	0	0	0	0	0	0	0	0	0	0	0	0	0	0	0	0	0	0	0	0	0	0	0	0	0	0
012219	10:04:05	10:14:28	621085	5.0.10.0	4_exp_EVA_AMP_AWA_CON	82	Rpleas_acq	Same	Rpleas	Amasked	CS_A	2pleas	distractor1	EVAbeforeCON	blank_screen	EvalRating_lastfour	7	3	0	0	300	300	0	0	0	0	18,798828125	0	0	0	0	1	eraser	0	0	0	0	0	0	0	0	0	0	0	0	0	0	0	0	0	0	0	0	0	0	0	0	0	0	0	0	0	0	0	0	0	0	0	0	0	0	0	0	0	0	0	0	0	0	0	0	0	0	0	0
012219	10:04:05	10:14:30	623204	5.0.10.0	4_exp_EVA_AMP_AWA_CON	82	Rpleas_acq	Same	Rpleas	Amasked	CS_A	2pleas	distractor1	EVAbeforeCON	EvalRating_lastfour	EvalRating_lastfour	7	4	0	0	300	300	0	0	1536	line	48,828125	0	0	0	0	1	eraser	0	2	Wie angenehm oder unangenehm finden Sie die  Buchstabenkette DHJF?	0	1	leftborder	0	1	rightborder	0	1	line	0	1	Unangenehm	0	1	Angenehm	0	0	0	0	0	0	0	0	0	0	0	0	0	0	0	0	0	0	0	0	0	0	0	0	0	0	0	0	0	0	0	0	0	0
012219	10:04:05	10:14:33	625577	5.0.10.0	4_exp_EVA_AMP_AWA_CON	82	Rpleas_acq	Same	Rpleas	Amasked	CS_A	2pleas	distractor1	EVAbeforeCON	blank_screen	EvalRating_lastfour	7	6	0	0	300	300	0	0	0	0	48,828125	0	0	0	0	1	eraser	0	0	0	0	0	0	0	0	0	0	0	0	0	0	0	0	0	0	0	0	0	0	0	0	0	0	0	0	0	0	0	0	0	0	0	0	0	0	0	0	0	0	0	0	0	0	0	0	0	0	0	0
012219	10:04:05	10:14:35	627776	5.0.10.0	4_exp_EVA_AMP_AWA_CON	82	Rpleas_acq	Same	Rpleas	Amasked	CS_A	2pleas	distractor1	EVAbeforeCON	EvalRating_lastfour	EvalRating_lastfour	7	7	0	0	300	300	0	0	1613	line	0,9765625	0	0	0	0	1	eraser	0	3	Wie angenehm oder unangenehm finden Sie die  Buchstabenkette QYSB?	0	1	leftborder	0	1	rightborder	0	1	line	0	1	Unangenehm	0	1	Angenehm	0	0	0	0	0	0	0	0	0	0	0	0	0	0	0	0	0	0	0	0	0	0	0	0	0	0	0	0	0	0	0	0	0	0
012219	10:04:05	10:15:30	682686	5.0.10.0	4_exp_EVA_AMP_AWA_CON	82	Rpleas_acq	Same	Rpleas	Amasked	CS_A	2pleas	distractor1	EVAbeforeCON	AMP_CSunple	AMP1_masked	8	1	0	0	300	300	0	0	1108	46	0,9765625	1	0	0	0	1	blank2r.bmp	0	1	CPLW	0	1	blank2r.bmp	79	6	pic6.bmp	199	1	whitenoise_No3.bmp	306	0	0	0	0	0	0	0	0	0	0	0	0	0	0	0	0	0	0	0	0	0	0	0	0	0	0	0	0	0	0	0	0	0	0	0	0	0	0	0
012219	10:04:05	10:15:31	684272	5.0.10.0	4_exp_EVA_AMP_AWA_CON	82	Rpleas_acq	Same	Rpleas	Amasked	CS_A	2pleas	distractor1	EVAbeforeCON	AMP_distractor	AMP1_masked	8	2	0	0	300	300	0	0	676	50	0,9765625	0	0	0	0	1	blank2r.bmp	0	1	ZGXT	0	1	blank2r.bmp	79	102	pic102.bmp	199	1	whitenoise_No3.bmp	306	0	0	0	0	0	0	0	0	0	0	0	0	0	0	0	0	0	0	0	0	0	0	0	0	0	0	0	0	0	0	0	0	0	0	0	0	0	0	0
012219	10:04:05	10:15:33	685805	5.0.10.0	4_exp_EVA_AMP_AWA_CON	82	Rpleas_acq	Same	Rpleas	Amasked	CS_A	2pleas	distractor1	EVAbeforeCON	AMP_CSunple	AMP1_masked	8	3	0	0	300	300	0	0	602	50	0,9765625	0	0	0	0	1	blank2r.bmp	0	1	CPLW	0	1	blank2r.bmp	79	30	pic30.bmp	199	1	whitenoise_No3.bmp	306	0	0	0	0	0	0	0	0	0	0	0	0	0	0	0	0	0	0	0	0	0	0	0	0	0	0	0	0	0	0	0	0	0	0	0	0	0	0	0
012219	10:04:05	10:15:34	687511	5.0.10.0	4_exp_EVA_AMP_AWA_CON	82	Rpleas_acq	Same	Rpleas	Amasked	CS_A	2pleas	distractor1	EVAbeforeCON	AMP_distractor	AMP1_masked	8	4	0	0	300	300	0	0	790	50	0,9765625	0	0	0	0	1	blank2r.bmp	0	1	ZGXT	0	1	blank2r.bmp	79	116	pic116.bmp	199	1	whitenoise_No3.bmp	306	0	0	0	0	0	0	0	0	0	0	0	0	0	0	0	0	0	0	0	0	0	0	0	0	0	0	0	0	0	0	0	0	0	0	0	0	0	0	0
012219	10:04:05	10:15:36	689483	5.0.10.0	4_exp_EVA_AMP_AWA_CON	82	Rpleas_acq	Same	Rpleas	Amasked	CS_A	2pleas	distractor1	EVAbeforeCON	AMP_distractor	AMP1_masked	8	5	0	0	300	300	0	0	1061	50	0,9765625	0	0	0	0	1	blank2r.bmp	0	1	ZGXT	0	1	blank2r.bmp	79	66	pic66.bmp	199	1	whitenoise_No3.bmp	306	0	0	0	0	0	0	0	0	0	0	0	0	0	0	0	0	0	0	0	0	0	0	0	0	0	0	0	0	0	0	0	0	0	0	0	0	0	0	0
012219	10:04:05	10:15:38	690976	5.0.10.0	4_exp_EVA_AMP_AWA_CON	82	Rpleas_acq	Same	Rpleas	Amasked	CS_A	2pleas	distractor1	EVAbeforeCON	AMP_CSunple	AMP1_masked	8	6	0	0	300	300	0	0	566	46	0,9765625	1	0	0	0	1	blank2r.bmp	0	1	CPLW	0	1	blank2r.bmp	79	47	pic47.bmp	199	1	whitenoise_No3.bmp	306	0	0	0	0	0	0	0	0	0	0	0	0	0	0	0	0	0	0	0	0	0	0	0	0	0	0	0	0	0	0	0	0	0	0	0	0	0	0	0
012219	10:04:05	10:15:40	692548	5.0.10.0	4_exp_EVA_AMP_AWA_CON	82	Rpleas_acq	Same	Rpleas	Amasked	CS_A	2pleas	distractor1	EVAbeforeCON	AMP_distractor	AMP1_masked	8	7	0	0	300	300	0	0	649	46	0,9765625	0	0	0	0	1	blank2r.bmp	0	1	ZGXT	0	1	blank2r.bmp	79	79	pic79.bmp	199	1	whitenoise_No3.bmp	306	0	0	0	0	0	0	0	0	0	0	0	0	0	0	0	0	0	0	0	0	0	0	0	0	0	0	0	0	0	0	0	0	0	0	0	0	0	0	0
012219	10:04:05	10:15:41	694001	5.0.10.0	4_exp_EVA_AMP_AWA_CON	82	Rpleas_acq	Same	Rpleas	Amasked	CS_A	2pleas	distractor1	EVAbeforeCON	AMP_CSpleas	AMP1_masked	8	8	0	0	300	300	0	0	525	46	0,9765625	0	0	0	0	1	blank2r.bmp	0	1	DHJF	0	1	blank2r.bmp	79	108	pic108.bmp	199	1	whitenoise_No3.bmp	306	0	0	0	0	0	0	0	0	0	0	0	0	0	0	0	0	0	0	0	0	0	0	0	0	0	0	0	0	0	0	0	0	0	0	0	0	0	0	0
012219	10:04:05	10:15:43	695947	5.0.10.0	4_exp_EVA_AMP_AWA_CON	82	Rpleas_acq	Same	Rpleas	Amasked	CS_A	2pleas	distractor1	EVAbeforeCON	AMP_distractor	AMP1_masked	8	9	0	0	300	300	0	0	1024	50	0,9765625	0	0	0	0	1	blank2r.bmp	0	1	ZGXT	0	1	blank2r.bmp	79	11	pic11.bmp	199	1	whitenoise_No3.bmp	306	0	0	0	0	0	0	0	0	0	0	0	0	0	0	0	0	0	0	0	0	0	0	0	0	0	0	0	0	0	0	0	0	0	0	0	0	0	0	0
012219	10:04:05	10:15:45	697840	5.0.10.0	4_exp_EVA_AMP_AWA_CON	82	Rpleas_acq	Same	Rpleas	Amasked	CS_A	2pleas	distractor1	EVAbeforeCON	AMP_CSpleas	AMP1_masked	8	10	0	0	300	300	0	0	965	46	0,9765625	0	0	0	0	1	blank2r.bmp	0	1	DHJF	0	1	blank2r.bmp	79	72	pic72.bmp	199	1	whitenoise_No3.bmp	306	0	0	0	0	0	0	0	0	0	0	0	0	0	0	0	0	0	0	0	0	0	0	0	0	0	0	0	0	0	0	0	0	0	0	0	0	0	0	0
012219	10:04:05	10:15:46	699279	5.0.10.0	4_exp_EVA_AMP_AWA_CON	82	Rpleas_acq	Same	Rpleas	Amasked	CS_A	2pleas	distractor1	EVAbeforeCON	AMP_CSunple	AMP1_masked	8	11	0	0	300	300	0	0	509	50	0,9765625	0	0	0	0	1	blank2r.bmp	0	1	CPLW	0	1	blank2r.bmp	79	84	pic84.bmp	199	1	whitenoise_No3.bmp	306	0	0	0	0	0	0	0	0	0	0	0	0	0	0	0	0	0	0	0	0	0	0	0	0	0	0	0	0	0	0	0	0	0	0	0	0	0	0	0
012219	10:04:05	10:15:48	700932	5.0.10.0	4_exp_EVA_AMP_AWA_CON	82	Rpleas_acq	Same	Rpleas	Amasked	CS_A	2pleas	distractor1	EVAbeforeCON	AMP_CSpleas	AMP1_masked	8	12	0	0	300	300	0	0	720	50	0,9765625	1	0	0	0	1	blank2r.bmp	0	1	DHJF	0	1	blank2r.bmp	79	94	pic94.bmp	199	1	whitenoise_No3.bmp	306	0	0	0	0	0	0	0	0	0	0	0	0	0	0	0	0	0	0	0	0	0	0	0	0	0	0	0	0	0	0	0	0	0	0	0	0	0	0	0
012219	10:04:05	10:15:50	703291	5.0.10.0	4_exp_EVA_AMP_AWA_CON	82	Rpleas_acq	Same	Rpleas	Amasked	CS_A	2pleas	distractor1	EVAbeforeCON	AMP_CSpleas	AMP1_masked	8	13	0	0	300	300	0	0	1443	50	0,9765625	1	0	0	0	1	blank2r.bmp	0	1	DHJF	0	1	blank2r.bmp	79	20	pic20.bmp	199	1	whitenoise_No3.bmp	306	0	0	0	0	0	0	0	0	0	0	0	0	0	0	0	0	0	0	0	0	0	0	0	0	0	0	0	0	0	0	0	0	0	0	0	0	0	0	0
012219	10:04:05	10:15:52	705223	5.0.10.0	4_exp_EVA_AMP_AWA_CON	82	Rpleas_acq	Same	Rpleas	Amasked	CS_A	2pleas	distractor1	EVAbeforeCON	AMP_CSpleas	AMP1_masked	8	14	0	0	300	300	0	0	999	46	0,9765625	0	0	0	0	1	blank2r.bmp	0	1	DHJF	0	1	blank2r.bmp	79	90	pic90.bmp	199	1	whitenoise_No3.bmp	306	0	0	0	0	0	0	0	0	0	0	0	0	0	0	0	0	0	0	0	0	0	0	0	0	0	0	0	0	0	0	0	0	0	0	0	0	0	0	0
012219	10:04:05	10:15:54	706876	5.0.10.0	4_exp_EVA_AMP_AWA_CON	82	Rpleas_acq	Same	Rpleas	Amasked	CS_A	2pleas	distractor1	EVAbeforeCON	AMP_CSunple	AMP1_masked	8	15	0	0	300	300	0	0	726	50	0,9765625	0	0	0	0	1	blank2r.bmp	0	1	CPLW	0	1	blank2r.bmp	79	148	pic148.bmp	199	1	whitenoise_No3.bmp	306	0	0	0	0	0	0	0	0	0	0	0	0	0	0	0	0	0	0	0	0	0	0	0	0	0	0	0	0	0	0	0	0	0	0	0	0	0	0	0
012219	10:04:05	10:15:56	708888	5.0.10.0	4_exp_EVA_AMP_AWA_CON	82	Rpleas_acq	Same	Rpleas	Amasked	CS_A	2pleas	distractor1	EVAbeforeCON	AMP_CSpleas	AMP1_masked	8	16	0	0	300	300	0	0	1083	50	0,9765625	1	0	0	0	1	blank2r.bmp	0	1	DHJF	0	1	blank2r.bmp	79	38	pic38.bmp	199	1	whitenoise_No3.bmp	306	0	0	0	0	0	0	0	0	0	0	0	0	0	0	0	0	0	0	0	0	0	0	0	0	0	0	0	0	0	0	0	0	0	0	0	0	0	0	0
012219	10:04:05	10:15:57	710354	5.0.10.0	4_exp_EVA_AMP_AWA_CON	82	Rpleas_acq	Same	Rpleas	Amasked	CS_A	2pleas	distractor1	EVAbeforeCON	AMP_CSunple	AMP1_masked	8	17	0	0	300	300	0	0	535	50	0,9765625	0	0	0	0	1	blank2r.bmp	0	1	CPLW	0	1	blank2r.bmp	79	19	pic19.bmp	199	1	whitenoise_No3.bmp	306	0	0	0	0	0	0	0	0	0	0	0	0	0	0	0	0	0	0	0	0	0	0	0	0	0	0	0	0	0	0	0	0	0	0	0	0	0	0	0
012219	10:04:05	10:15:59	712154	5.0.10.0	4_exp_EVA_AMP_AWA_CON	82	Rpleas_acq	Same	Rpleas	Amasked	CS_A	2pleas	distractor1	EVAbeforeCON	AMP_CSunple	AMP1_masked	8	18	0	0	300	300	0	0	870	46	0,9765625	1	0	0	0	1	blank2r.bmp	0	1	CPLW	0	1	blank2r.bmp	79	31	pic31.bmp	199	1	whitenoise_No3.bmp	306	0	0	0	0	0	0	0	0	0	0	0	0	0	0	0	0	0	0	0	0	0	0	0	0	0	0	0	0	0	0	0	0	0	0	0	0	0	0	0
012219	10:04:05	10:16:01	713673	5.0.10.0	4_exp_EVA_AMP_AWA_CON	82	Rpleas_acq	Same	Rpleas	Amasked	CS_A	2pleas	distractor1	EVAbeforeCON	AMP_CSpleas	AMP1_masked	8	19	0	0	300	300	0	0	605	46	0,9765625	0	0	0	0	1	blank2r.bmp	0	1	DHJF	0	1	blank2r.bmp	79	63	pic63.bmp	199	1	whitenoise_No3.bmp	306	0	0	0	0	0	0	0	0	0	0	0	0	0	0	0	0	0	0	0	0	0	0	0	0	0	0	0	0	0	0	0	0	0	0	0	0	0	0	0
012219	10:04:05	10:16:02	715099	5.0.10.0	4_exp_EVA_AMP_AWA_CON	82	Rpleas_acq	Same	Rpleas	Amasked	CS_A	2pleas	distractor1	EVAbeforeCON	AMP_CSpleas	AMP1_masked	8	20	0	0	300	300	0	0	495	46	0,9765625	0	0	0	0	1	blank2r.bmp	0	1	DHJF	0	1	blank2r.bmp	79	83	pic83.bmp	199	1	whitenoise_No3.bmp	306	0	0	0	0	0	0	0	0	0	0	0	0	0	0	0	0	0	0	0	0	0	0	0	0	0	0	0	0	0	0	0	0	0	0	0	0	0	0	0
012219	10:04:05	10:16:04	716605	5.0.10.0	4_exp_EVA_AMP_AWA_CON	82	Rpleas_acq	Same	Rpleas	Amasked	CS_A	2pleas	distractor1	EVAbeforeCON	AMP_distractor	AMP1_masked	8	21	0	0	300	300	0	0	577	46	0,9765625	0	0	0	0	1	blank2r.bmp	0	1	ZGXT	0	1	blank2r.bmp	79	89	pic89.bmp	199	1	whitenoise_No3.bmp	306	0	0	0	0	0	0	0	0	0	0	0	0	0	0	0	0	0	0	0	0	0	0	0	0	0	0	0	0	0	0	0	0	0	0	0	0	0	0	0
012219	10:04:05	10:16:05	718004	5.0.10.0	4_exp_EVA_AMP_AWA_CON	82	Rpleas_acq	Same	Rpleas	Amasked	CS_A	2pleas	distractor1	EVAbeforeCON	AMP_CSpleas	AMP1_masked	8	22	0	0	300	300	0	0	486	50	0,9765625	1	0	0	0	1	blank2r.bmp	0	1	DHJF	0	1	blank2r.bmp	79	44	pic44.bmp	199	1	whitenoise_No3.bmp	306	0	0	0	0	0	0	0	0	0	0	0	0	0	0	0	0	0	0	0	0	0	0	0	0	0	0	0	0	0	0	0	0	0	0	0	0	0	0	0
012219	10:04:05	10:16:07	719844	5.0.10.0	4_exp_EVA_AMP_AWA_CON	82	Rpleas_acq	Same	Rpleas	Amasked	CS_A	2pleas	distractor1	EVAbeforeCON	AMP_CSpleas	AMP1_masked	8	23	0	0	300	300	0	0	928	46	0,9765625	0	0	0	0	1	blank2r.bmp	0	1	DHJF	0	1	blank2r.bmp	79	32	pic32.bmp	199	1	whitenoise_No3.bmp	306	0	0	0	0	0	0	0	0	0	0	0	0	0	0	0	0	0	0	0	0	0	0	0	0	0	0	0	0	0	0	0	0	0	0	0	0	0	0	0
012219	10:04:05	10:16:09	721630	5.0.10.0	4_exp_EVA_AMP_AWA_CON	82	Rpleas_acq	Same	Rpleas	Amasked	CS_A	2pleas	distractor1	EVAbeforeCON	AMP_CSunple	AMP1_masked	8	24	0	0	300	300	0	0	869	50	0,9765625	0	0	0	0	1	blank2r.bmp	0	1	CPLW	0	1	blank2r.bmp	79	55	pic55.bmp	199	1	whitenoise_No3.bmp	306	0	0	0	0	0	0	0	0	0	0	0	0	0	0	0	0	0	0	0	0	0	0	0	0	0	0	0	0	0	0	0	0	0	0	0	0	0	0	0
012219	10:04:05	10:16:10	723202	5.0.10.0	4_exp_EVA_AMP_AWA_CON	82	Rpleas_acq	Same	Rpleas	Amasked	CS_A	2pleas	distractor1	EVAbeforeCON	AMP_CSunple	AMP1_masked	8	25	0	0	300	300	0	0	664	46	0,9765625	1	0	0	0	1	blank2r.bmp	0	1	CPLW	0	1	blank2r.bmp	79	141	pic141.bmp	199	1	whitenoise_No3.bmp	306	0	0	0	0	0	0	0	0	0	0	0	0	0	0	0	0	0	0	0	0	0	0	0	0	0	0	0	0	0	0	0	0	0	0	0	0	0	0	0
012219	10:04:05	10:16:12	725148	5.0.10.0	4_exp_EVA_AMP_AWA_CON	82	Rpleas_acq	Same	Rpleas	Amasked	CS_A	2pleas	distractor1	EVAbeforeCON	AMP_CSunple	AMP1_masked	8	26	0	0	300	300	0	0	1016	46	0,9765625	1	0	0	0	1	blank2r.bmp	0	1	CPLW	0	1	blank2r.bmp	79	114	pic114.bmp	199	1	whitenoise_No3.bmp	306	0	0	0	0	0	0	0	0	0	0	0	0	0	0	0	0	0	0	0	0	0	0	0	0	0	0	0	0	0	0	0	0	0	0	0	0	0	0	0
012219	10:04:05	10:16:14	726521	5.0.10.0	4_exp_EVA_AMP_AWA_CON	82	Rpleas_acq	Same	Rpleas	Amasked	CS_A	2pleas	distractor1	EVAbeforeCON	AMP_distractor	AMP1_masked	8	27	0	0	300	300	0	0	459	46	0,9765625	0	0	0	0	1	blank2r.bmp	0	1	ZGXT	0	1	blank2r.bmp	79	33	pic33.bmp	199	1	whitenoise_No3.bmp	306	0	0	0	0	0	0	0	0	0	0	0	0	0	0	0	0	0	0	0	0	0	0	0	0	0	0	0	0	0	0	0	0	0	0	0	0	0	0	0
012219	10:04:05	10:16:15	728080	5.0.10.0	4_exp_EVA_AMP_AWA_CON	82	Rpleas_acq	Same	Rpleas	Amasked	CS_A	2pleas	distractor1	EVAbeforeCON	AMP_distractor	AMP1_masked	8	28	0	0	300	300	0	0	642	50	0,9765625	0	0	0	0	1	blank2r.bmp	0	1	ZGXT	0	1	blank2r.bmp	79	29	pic29.bmp	199	1	whitenoise_No3.bmp	306	0	0	0	0	0	0	0	0	0	0	0	0	0	0	0	0	0	0	0	0	0	0	0	0	0	0	0	0	0	0	0	0	0	0	0	0	0	0	0
012219	10:04:05	10:16:16	729453	5.0.10.0	4_exp_EVA_AMP_AWA_CON	82	Rpleas_acq	Same	Rpleas	Amasked	CS_A	2pleas	distractor1	EVAbeforeCON	AMP_CSpleas	AMP1_masked	8	29	0	0	300	300	0	0	460	50	0,9765625	1	0	0	0	1	blank2r.bmp	0	1	DHJF	0	1	blank2r.bmp	79	42	pic42.bmp	199	1	whitenoise_No3.bmp	306	0	0	0	0	0	0	0	0	0	0	0	0	0	0	0	0	0	0	0	0	0	0	0	0	0	0	0	0	0	0	0	0	0	0	0	0	0	0	0
012219	10:04:05	10:16:18	731119	5.0.10.0	4_exp_EVA_AMP_AWA_CON	82	Rpleas_acq	Same	Rpleas	Amasked	CS_A	2pleas	distractor1	EVAbeforeCON	AMP_CSunple	AMP1_masked	8	30	0	0	300	300	0	0	752	46	0,9765625	1	0	0	0	1	blank2r.bmp	0	1	CPLW	0	1	blank2r.bmp	79	73	pic73.bmp	199	1	whitenoise_No3.bmp	306	0	0	0	0	0	0	0	0	0	0	0	0	0	0	0	0	0	0	0	0	0	0	0	0	0	0	0	0	0	0	0	0	0	0	0	0	0	0	0
012219	10:04:05	10:16:19	732465	5.0.10.0	4_exp_EVA_AMP_AWA_CON	82	Rpleas_acq	Same	Rpleas	Amasked	CS_A	2pleas	distractor1	EVAbeforeCON	AMP_distractor	AMP1_masked	8	31	0	0	300	300	0	0	424	50	0,9765625	0	0	0	0	1	blank2r.bmp	0	1	ZGXT	0	1	blank2r.bmp	79	143	pic143.bmp	199	1	whitenoise_No3.bmp	306	0	0	0	0	0	0	0	0	0	0	0	0	0	0	0	0	0	0	0	0	0	0	0	0	0	0	0	0	0	0	0	0	0	0	0	0	0	0	0
012219	10:04:05	10:16:21	733904	5.0.10.0	4_exp_EVA_AMP_AWA_CON	82	Rpleas_acq	Same	Rpleas	Amasked	CS_A	2pleas	distractor1	EVAbeforeCON	AMP_distractor	AMP1_masked	8	32	0	0	300	300	0	0	502	50	0,9765625	0	0	0	0	1	blank2r.bmp	0	1	ZGXT	0	1	blank2r.bmp	79	131	pic131.bmp	199	1	whitenoise_No3.bmp	306	0	0	0	0	0	0	0	0	0	0	0	0	0	0	0	0	0	0	0	0	0	0	0	0	0	0	0	0	0	0	0	0	0	0	0	0	0	0	0
012219	10:04:05	10:16:22	735397	5.0.10.0	4_exp_EVA_AMP_AWA_CON	82	Rpleas_acq	Same	Rpleas	Amasked	CS_A	2pleas	distractor1	EVAbeforeCON	AMP_distractor	AMP1_masked	8	33	0	0	300	300	0	0	563	46	0,9765625	0	0	0	0	1	blank2r.bmp	0	1	ZGXT	0	1	blank2r.bmp	79	12	pic12.bmp	199	1	whitenoise_No3.bmp	306	0	0	0	0	0	0	0	0	0	0	0	0	0	0	0	0	0	0	0	0	0	0	0	0	0	0	0	0	0	0	0	0	0	0	0	0	0	0	0
012219	10:04:05	10:16:24	736810	5.0.10.0	4_exp_EVA_AMP_AWA_CON	82	Rpleas_acq	Same	Rpleas	Amasked	CS_A	2pleas	distractor1	EVAbeforeCON	AMP_distractor	AMP1_masked	8	34	0	0	300	300	0	0	502	50	0,9765625	0	0	0	0	1	blank2r.bmp	0	1	ZGXT	0	1	blank2r.bmp	79	109	pic109.bmp	199	1	whitenoise_No3.bmp	306	0	0	0	0	0	0	0	0	0	0	0	0	0	0	0	0	0	0	0	0	0	0	0	0	0	0	0	0	0	0	0	0	0	0	0	0	0	0	0
012219	10:04:05	10:16:25	738409	5.0.10.0	4_exp_EVA_AMP_AWA_CON	82	Rpleas_acq	Same	Rpleas	Amasked	CS_A	2pleas	distractor1	EVAbeforeCON	AMP_CSpleas	AMP1_masked	8	35	0	0	300	300	0	0	668	50	0,9765625	1	0	0	0	1	blank2r.bmp	0	1	DHJF	0	1	blank2r.bmp	79	15	pic15.bmp	199	1	whitenoise_No3.bmp	306	0	0	0	0	0	0	0	0	0	0	0	0	0	0	0	0	0	0	0	0	0	0	0	0	0	0	0	0	0	0	0	0	0	0	0	0	0	0	0
012219	10:04:05	10:16:27	739995	5.0.10.0	4_exp_EVA_AMP_AWA_CON	82	Rpleas_acq	Same	Rpleas	Amasked	CS_A	2pleas	distractor1	EVAbeforeCON	AMP_CSpleas	AMP1_masked	8	36	0	0	300	300	0	0	672	46	0,9765625	0	0	0	0	1	blank2r.bmp	0	1	DHJF	0	1	blank2r.bmp	79	124	pic124.bmp	199	1	whitenoise_No3.bmp	306	0	0	0	0	0	0	0	0	0	0	0	0	0	0	0	0	0	0	0	0	0	0	0	0	0	0	0	0	0	0	0	0	0	0	0	0	0	0	0
012219	10:04:05	10:16:28	741421	5.0.10.0	4_exp_EVA_AMP_AWA_CON	82	Rpleas_acq	Same	Rpleas	Amasked	CS_A	2pleas	distractor1	EVAbeforeCON	AMP_CSpleas	AMP1_masked	8	37	0	0	300	300	0	0	501	50	0,9765625	1	0	0	0	1	blank2r.bmp	0	1	DHJF	0	1	blank2r.bmp	79	139	pic139.bmp	199	1	whitenoise_No3.bmp	306	0	0	0	0	0	0	0	0	0	0	0	0	0	0	0	0	0	0	0	0	0	0	0	0	0	0	0	0	0	0	0	0	0	0	0	0	0	0	0
012219	10:04:05	10:16:30	742847	5.0.10.0	4_exp_EVA_AMP_AWA_CON	82	Rpleas_acq	Same	Rpleas	Amasked	CS_A	2pleas	distractor1	EVAbeforeCON	AMP_CSpleas	AMP1_masked	8	38	0	0	300	300	0	0	517	46	0,9765625	0	0	0	0	1	blank2r.bmp	0	1	DHJF	0	1	blank2r.bmp	79	130	pic130.bmp	199	1	whitenoise_No3.bmp	306	0	0	0	0	0	0	0	0	0	0	0	0	0	0	0	0	0	0	0	0	0	0	0	0	0	0	0	0	0	0	0	0	0	0	0	0	0	0	0
012219	10:04:05	10:16:31	744140	5.0.10.0	4_exp_EVA_AMP_AWA_CON	82	Rpleas_acq	Same	Rpleas	Amasked	CS_A	2pleas	distractor1	EVAbeforeCON	AMP_distractor	AMP1_masked	8	39	0	0	300	300	0	0	358	46	0,9765625	0	0	0	0	1	blank2r.bmp	0	1	ZGXT	0	1	blank2r.bmp	79	142	pic142.bmp	199	1	whitenoise_No3.bmp	306	0	0	0	0	0	0	0	0	0	0	0	0	0	0	0	0	0	0	0	0	0	0	0	0	0	0	0	0	0	0	0	0	0	0	0	0	0	0	0
012219	10:04:05	10:16:32	745513	5.0.10.0	4_exp_EVA_AMP_AWA_CON	82	Rpleas_acq	Same	Rpleas	Amasked	CS_A	2pleas	distractor1	EVAbeforeCON	AMP_CSunple	AMP1_masked	8	40	0	0	300	300	0	0	458	46	0,9765625	1	0	0	0	1	blank2r.bmp	0	1	CPLW	0	1	blank2r.bmp	79	110	pic110.bmp	199	1	whitenoise_No3.bmp	306	0	0	0	0	0	0	0	0	0	0	0	0	0	0	0	0	0	0	0	0	0	0	0	0	0	0	0	0	0	0	0	0	0	0	0	0	0	0	0
012219	10:04:05	10:16:34	746899	5.0.10.0	4_exp_EVA_AMP_AWA_CON	82	Rpleas_acq	Same	Rpleas	Amasked	CS_A	2pleas	distractor1	EVAbeforeCON	AMP_CSpleas	AMP1_masked	8	41	0	0	300	300	0	0	453	46	0,9765625	0	0	0	0	1	blank2r.bmp	0	1	DHJF	0	1	blank2r.bmp	79	123	pic123.bmp	199	1	whitenoise_No3.bmp	306	0	0	0	0	0	0	0	0	0	0	0	0	0	0	0	0	0	0	0	0	0	0	0	0	0	0	0	0	0	0	0	0	0	0	0	0	0	0	0
012219	10:04:05	10:16:35	748325	5.0.10.0	4_exp_EVA_AMP_AWA_CON	82	Rpleas_acq	Same	Rpleas	Amasked	CS_A	2pleas	distractor1	EVAbeforeCON	AMP_distractor	AMP1_masked	8	42	0	0	300	300	0	0	517	50	0,9765625	0	0	0	0	1	blank2r.bmp	0	1	ZGXT	0	1	blank2r.bmp	79	36	pic36.bmp	199	1	whitenoise_No3.bmp	306	0	0	0	0	0	0	0	0	0	0	0	0	0	0	0	0	0	0	0	0	0	0	0	0	0	0	0	0	0	0	0	0	0	0	0	0	0	0	0
012219	10:04:05	10:16:37	749804	5.0.10.0	4_exp_EVA_AMP_AWA_CON	82	Rpleas_acq	Same	Rpleas	Amasked	CS_A	2pleas	distractor1	EVAbeforeCON	AMP_distractor	AMP1_masked	8	43	0	0	300	300	0	0	552	50	0,9765625	0	0	0	0	1	blank2r.bmp	0	1	ZGXT	0	1	blank2r.bmp	79	113	pic113.bmp	199	1	whitenoise_No3.bmp	306	0	0	0	0	0	0	0	0	0	0	0	0	0	0	0	0	0	0	0	0	0	0	0	0	0	0	0	0	0	0	0	0	0	0	0	0	0	0	0
012219	10:04:05	10:16:38	751177	5.0.10.0	4_exp_EVA_AMP_AWA_CON	82	Rpleas_acq	Same	Rpleas	Amasked	CS_A	2pleas	distractor1	EVAbeforeCON	AMP_CSpleas	AMP1_masked	8	44	0	0	300	300	0	0	444	46	0,9765625	0	0	0	0	1	blank2r.bmp	0	1	DHJF	0	1	blank2r.bmp	79	1	pic1.bmp	199	1	whitenoise_No3.bmp	306	0	0	0	0	0	0	0	0	0	0	0	0	0	0	0	0	0	0	0	0	0	0	0	0	0	0	0	0	0	0	0	0	0	0	0	0	0	0	0
012219	10:04:05	10:16:40	752603	5.0.10.0	4_exp_EVA_AMP_AWA_CON	82	Rpleas_acq	Same	Rpleas	Amasked	CS_A	2pleas	distractor1	EVAbeforeCON	AMP_CSunple	AMP1_masked	8	45	0	0	300	300	0	0	494	46	0,9765625	1	0	0	0	1	blank2r.bmp	0	1	CPLW	0	1	blank2r.bmp	79	137	pic137.bmp	199	1	whitenoise_No3.bmp	306	0	0	0	0	0	0	0	0	0	0	0	0	0	0	0	0	0	0	0	0	0	0	0	0	0	0	0	0	0	0	0	0	0	0	0	0	0	0	0
012219	10:04:05	10:16:41	753936	5.0.10.0	4_exp_EVA_AMP_AWA_CON	82	Rpleas_acq	Same	Rpleas	Amasked	CS_A	2pleas	distractor1	EVAbeforeCON	AMP_CSunple	AMP1_masked	8	46	0	0	300	300	0	0	419	50	0,9765625	0	0	0	0	1	blank2r.bmp	0	1	CPLW	0	1	blank2r.bmp	79	49	pic49.bmp	199	1	whitenoise_No3.bmp	306	0	0	0	0	0	0	0	0	0	0	0	0	0	0	0	0	0	0	0	0	0	0	0	0	0	0	0	0	0	0	0	0	0	0	0	0	0	0	0
012219	10:04:05	10:16:42	755349	5.0.10.0	4_exp_EVA_AMP_AWA_CON	82	Rpleas_acq	Same	Rpleas	Amasked	CS_A	2pleas	distractor1	EVAbeforeCON	AMP_CSunple	AMP1_masked	8	47	0	0	300	300	0	0	484	46	0,9765625	1	0	0	0	1	blank2r.bmp	0	1	CPLW	0	1	blank2r.bmp	79	115	pic115.bmp	199	1	whitenoise_No3.bmp	306	0	0	0	0	0	0	0	0	0	0	0	0	0	0	0	0	0	0	0	0	0	0	0	0	0	0	0	0	0	0	0	0	0	0	0	0	0	0	0
012219	10:04:05	10:16:44	756855	5.0.10.0	4_exp_EVA_AMP_AWA_CON	82	Rpleas_acq	Same	Rpleas	Amasked	CS_A	2pleas	distractor1	EVAbeforeCON	AMP_distractor	AMP1_masked	8	48	0	0	300	300	0	0	589	50	0,9765625	0	0	0	0	1	blank2r.bmp	0	1	ZGXT	0	1	blank2r.bmp	79	95	pic95.bmp	199	1	whitenoise_No3.bmp	306	0	0	0	0	0	0	0	0	0	0	0	0	0	0	0	0	0	0	0	0	0	0	0	0	0	0	0	0	0	0	0	0	0	0	0	0	0	0	0
012219	10:04:05	10:16:45	758228	5.0.10.0	4_exp_EVA_AMP_AWA_CON	82	Rpleas_acq	Same	Rpleas	Amasked	CS_A	2pleas	distractor1	EVAbeforeCON	AMP_distractor	AMP1_masked	8	49	0	0	300	300	0	0	454	46	0,9765625	0	0	0	0	1	blank2r.bmp	0	1	ZGXT	0	1	blank2r.bmp	79	98	pic98.bmp	199	1	whitenoise_No3.bmp	306	0	0	0	0	0	0	0	0	0	0	0	0	0	0	0	0	0	0	0	0	0	0	0	0	0	0	0	0	0	0	0	0	0	0	0	0	0	0	0
012219	10:04:05	10:16:47	759854	5.0.10.0	4_exp_EVA_AMP_AWA_CON	82	Rpleas_acq	Same	Rpleas	Amasked	CS_A	2pleas	distractor1	EVAbeforeCON	AMP_CSunple	AMP1_masked	8	50	0	0	300	300	0	0	715	50	0,9765625	0	0	0	0	1	blank2r.bmp	0	1	CPLW	0	1	blank2r.bmp	79	111	pic111.bmp	199	1	whitenoise_No3.bmp	306	0	0	0	0	0	0	0	0	0	0	0	0	0	0	0	0	0	0	0	0	0	0	0	0	0	0	0	0	0	0	0	0	0	0	0	0	0	0	0
012219	10:04:05	10:16:48	761493	5.0.10.0	4_exp_EVA_AMP_AWA_CON	82	Rpleas_acq	Same	Rpleas	Amasked	CS_A	2pleas	distractor1	EVAbeforeCON	AMP_CSunple	AMP1_masked	8	51	0	0	300	300	0	0	705	50	0,9765625	0	0	0	0	1	blank2r.bmp	0	1	CPLW	0	1	blank2r.bmp	79	97	pic97.bmp	199	1	whitenoise_No3.bmp	306	0	0	0	0	0	0	0	0	0	0	0	0	0	0	0	0	0	0	0	0	0	0	0	0	0	0	0	0	0	0	0	0	0	0	0	0	0	0	0
012219	10:04:05	10:16:56	769183	5.0.10.0	4_exp_EVA_AMP_AWA_CON	82	Rpleas_acq	Same	Rpleas	Amasked	CS_A	2pleas	distractor1	EVAbeforeCON	AMP_distractor	AMP23	9	1	0	0	300	300	0	0	532	46	0,9765625	0	0	0	0	1	blank2r.bmp	0	1	ZGXT	0	1	blank2r.bmp	79	92	pic92.bmp	199	1	whitenoise_No3.bmp	306	0	0	0	0	0	0	0	0	0	0	0	0	0	0	0	0	0	0	0	0	0	0	0	0	0	0	0	0	0	0	0	0	0	0	0	0	0	0	0
012219	10:04:05	10:16:58	770542	5.0.10.0	4_exp_EVA_AMP_AWA_CON	82	Rpleas_acq	Same	Rpleas	Amasked	CS_A	2pleas	distractor1	EVAbeforeCON	AMP_CSunple	AMP23	9	2	0	0	300	300	0	0	439	46	0,9765625	1	0	0	0	1	blank2r.bmp	0	1	CPLW	0	1	blank2r.bmp	79	149	pic149.bmp	199	1	whitenoise_No3.bmp	306	0	0	0	0	0	0	0	0	0	0	0	0	0	0	0	0	0	0	0	0	0	0	0	0	0	0	0	0	0	0	0	0	0	0	0	0	0	0	0
012219	10:04:05	10:16:59	771782	5.0.10.0	4_exp_EVA_AMP_AWA_CON	82	Rpleas_acq	Same	Rpleas	Amasked	CS_A	2pleas	distractor1	EVAbeforeCON	AMP_distractor	AMP23	9	3	0	0	300	300	0	0	316	50	0,9765625	0	0	0	0	1	blank2r.bmp	0	1	ZGXT	0	1	blank2r.bmp	79	57	pic57.bmp	199	1	whitenoise_No3.bmp	306	0	0	0	0	0	0	0	0	0	0	0	0	0	0	0	0	0	0	0	0	0	0	0	0	0	0	0	0	0	0	0	0	0	0	0	0	0	0	0
012219	10:04:05	10:17:00	773141	5.0.10.0	4_exp_EVA_AMP_AWA_CON	82	Rpleas_acq	Same	Rpleas	Amasked	CS_A	2pleas	distractor1	EVAbeforeCON	AMP_CSunple	AMP23	9	4	0	0	300	300	0	0	429	50	0,9765625	0	0	0	0	1	blank2r.bmp	0	1	CPLW	0	1	blank2r.bmp	79	4	pic4.bmp	199	1	whitenoise_No3.bmp	306	0	0	0	0	0	0	0	0	0	0	0	0	0	0	0	0	0	0	0	0	0	0	0	0	0	0	0	0	0	0	0	0	0	0	0	0	0	0	0
012219	10:04:05	10:17:01	774434	5.0.10.0	4_exp_EVA_AMP_AWA_CON	82	Rpleas_acq	Same	Rpleas	Amasked	CS_A	2pleas	distractor1	EVAbeforeCON	AMP_CSunple	AMP23	9	5	0	0	300	300	0	0	376	46	0,9765625	1	0	0	0	1	blank2r.bmp	0	1	CPLW	0	1	blank2r.bmp	79	77	pic77.bmp	199	1	whitenoise_No3.bmp	306	0	0	0	0	0	0	0	0	0	0	0	0	0	0	0	0	0	0	0	0	0	0	0	0	0	0	0	0	0	0	0	0	0	0	0	0	0	0	0
012219	10:04:05	10:17:03	775980	5.0.10.0	4_exp_EVA_AMP_AWA_CON	82	Rpleas_acq	Same	Rpleas	Amasked	CS_A	2pleas	distractor1	EVAbeforeCON	AMP_CSunple	AMP23	9	6	0	0	300	300	0	0	626	50	0,9765625	0	0	0	0	1	blank2r.bmp	0	1	CPLW	0	1	blank2r.bmp	79	17	pic17.bmp	199	1	whitenoise_No3.bmp	306	0	0	0	0	0	0	0	0	0	0	0	0	0	0	0	0	0	0	0	0	0	0	0	0	0	0	0	0	0	0	0	0	0	0	0	0	0	0	0
012219	10:04:05	10:17:05	777713	5.0.10.0	4_exp_EVA_AMP_AWA_CON	82	Rpleas_acq	Same	Rpleas	Amasked	CS_A	2pleas	distractor1	EVAbeforeCON	AMP_distractor	AMP23	9	7	0	0	300	300	0	0	821	46	0,9765625	0	0	0	0	1	blank2r.bmp	0	1	ZGXT	0	1	blank2r.bmp	79	88	pic88.bmp	199	1	whitenoise_No3.bmp	306	0	0	0	0	0	0	0	0	0	0	0	0	0	0	0	0	0	0	0	0	0	0	0	0	0	0	0	0	0	0	0	0	0	0	0	0	0	0	0
012219	10:04:05	10:17:07	779938	5.0.10.0	4_exp_EVA_AMP_AWA_CON	82	Rpleas_acq	Same	Rpleas	Amasked	CS_A	2pleas	distractor1	EVAbeforeCON	AMP_CSpleas	AMP23	9	8	0	0	300	300	0	0	1296	50	0,9765625	1	0	0	0	1	blank2r.bmp	0	1	DHJF	0	1	blank2r.bmp	79	121	pic121.bmp	199	1	whitenoise_No3.bmp	306	0	0	0	0	0	0	0	0	0	0	0	0	0	0	0	0	0	0	0	0	0	0	0	0	0	0	0	0	0	0	0	0	0	0	0	0	0	0	0
012219	10:04:05	10:17:09	781764	5.0.10.0	4_exp_EVA_AMP_AWA_CON	82	Rpleas_acq	Same	Rpleas	Amasked	CS_A	2pleas	distractor1	EVAbeforeCON	AMP_distractor	AMP23	9	9	0	0	300	300	0	0	910	50	0,9765625	0	0	0	0	1	blank2r.bmp	0	1	ZGXT	0	1	blank2r.bmp	79	86	pic86.bmp	199	1	whitenoise_No3.bmp	306	0	0	0	0	0	0	0	0	0	0	0	0	0	0	0	0	0	0	0	0	0	0	0	0	0	0	0	0	0	0	0	0	0	0	0	0	0	0	0
012219	10:04:05	10:17:10	783257	5.0.10.0	4_exp_EVA_AMP_AWA_CON	82	Rpleas_acq	Same	Rpleas	Amasked	CS_A	2pleas	distractor1	EVAbeforeCON	AMP_CSpleas	AMP23	9	10	0	0	300	300	0	0	581	50	0,9765625	1	0	0	0	1	blank2r.bmp	0	1	DHJF	0	1	blank2r.bmp	79	59	pic59.bmp	199	1	whitenoise_No3.bmp	306	0	0	0	0	0	0	0	0	0	0	0	0	0	0	0	0	0	0	0	0	0	0	0	0	0	0	0	0	0	0	0	0	0	0	0	0	0	0	0
012219	10:04:05	10:17:12	784736	5.0.10.0	4_exp_EVA_AMP_AWA_CON	82	Rpleas_acq	Same	Rpleas	Amasked	CS_A	2pleas	distractor1	EVAbeforeCON	AMP_CSunple	AMP23	9	11	0	0	300	300	0	0	563	50	0,9765625	0	0	0	0	1	blank2r.bmp	0	1	CPLW	0	1	blank2r.bmp	79	65	pic65.bmp	199	1	whitenoise_No3.bmp	306	0	0	0	0	0	0	0	0	0	0	0	0	0	0	0	0	0	0	0	0	0	0	0	0	0	0	0	0	0	0	0	0	0	0	0	0	0	0	0
012219	10:04:05	10:17:13	786082	5.0.10.0	4_exp_EVA_AMP_AWA_CON	82	Rpleas_acq	Same	Rpleas	Amasked	CS_A	2pleas	distractor1	EVAbeforeCON	AMP_distractor	AMP23	9	12	0	0	300	300	0	0	417	46	0,9765625	0	0	0	0	1	blank2r.bmp	0	1	ZGXT	0	1	blank2r.bmp	79	16	pic16.bmp	199	1	whitenoise_No3.bmp	306	0	0	0	0	0	0	0	0	0	0	0	0	0	0	0	0	0	0	0	0	0	0	0	0	0	0	0	0	0	0	0	0	0	0	0	0	0	0	0
012219	10:04:05	10:17:14	787389	5.0.10.0	4_exp_EVA_AMP_AWA_CON	82	Rpleas_acq	Same	Rpleas	Amasked	CS_A	2pleas	distractor1	EVAbeforeCON	AMP_distractor	AMP23	9	13	0	0	300	300	0	0	392	46	0,9765625	0	0	0	0	1	blank2r.bmp	0	1	ZGXT	0	1	blank2r.bmp	79	129	pic129.bmp	199	1	whitenoise_No3.bmp	306	0	0	0	0	0	0	0	0	0	0	0	0	0	0	0	0	0	0	0	0	0	0	0	0	0	0	0	0	0	0	0	0	0	0	0	0	0	0	0
012219	10:04:05	10:17:16	788681	5.0.10.0	4_exp_EVA_AMP_AWA_CON	82	Rpleas_acq	Same	Rpleas	Amasked	CS_A	2pleas	distractor1	EVAbeforeCON	AMP_CSpleas	AMP23	9	14	0	0	300	300	0	0	369	46	0,9765625	0	0	0	0	1	blank2r.bmp	0	1	DHJF	0	1	blank2r.bmp	79	117	pic117.bmp	199	1	whitenoise_No3.bmp	306	0	0	0	0	0	0	0	0	0	0	0	0	0	0	0	0	0	0	0	0	0	0	0	0	0	0	0	0	0	0	0	0	0	0	0	0	0	0	0
012219	10:04:05	10:17:17	790121	5.0.10.0	4_exp_EVA_AMP_AWA_CON	82	Rpleas_acq	Same	Rpleas	Amasked	CS_A	2pleas	distractor1	EVAbeforeCON	AMP_CSpleas	AMP23	9	15	0	0	300	300	0	0	511	46	0,9765625	0	0	0	0	1	blank2r.bmp	0	1	DHJF	0	1	blank2r.bmp	79	126	pic126.bmp	199	1	whitenoise_No3.bmp	306	0	0	0	0	0	0	0	0	0	0	0	0	0	0	0	0	0	0	0	0	0	0	0	0	0	0	0	0	0	0	0	0	0	0	0	0	0	0	0
012219	10:04:05	10:17:19	791800	5.0.10.0	4_exp_EVA_AMP_AWA_CON	82	Rpleas_acq	Same	Rpleas	Amasked	CS_A	2pleas	distractor1	EVAbeforeCON	AMP_CSunple	AMP23	9	16	0	0	300	300	0	0	768	46	0,9765625	1	0	0	0	1	blank2r.bmp	0	1	CPLW	0	1	blank2r.bmp	79	81	pic81.bmp	199	1	whitenoise_No3.bmp	306	0	0	0	0	0	0	0	0	0	0	0	0	0	0	0	0	0	0	0	0	0	0	0	0	0	0	0	0	0	0	0	0	0	0	0	0	0	0	0
012219	10:04:05	10:17:21	793599	5.0.10.0	4_exp_EVA_AMP_AWA_CON	82	Rpleas_acq	Same	Rpleas	Amasked	CS_A	2pleas	distractor1	EVAbeforeCON	AMP_CSpleas	AMP23	9	17	0	0	300	300	0	0	875	50	0,9765625	1	0	0	0	1	blank2r.bmp	0	1	DHJF	0	1	blank2r.bmp	79	24	pic24.bmp	199	1	whitenoise_No3.bmp	306	0	0	0	0	0	0	0	0	0	0	0	0	0	0	0	0	0	0	0	0	0	0	0	0	0	0	0	0	0	0	0	0	0	0	0	0	0	0	0
012219	10:04:05	10:17:22	794999	5.0.10.0	4_exp_EVA_AMP_AWA_CON	82	Rpleas_acq	Same	Rpleas	Amasked	CS_A	2pleas	distractor1	EVAbeforeCON	AMP_CSpleas	AMP23	9	18	0	0	300	300	0	0	471	50	0,9765625	1	0	0	0	1	blank2r.bmp	0	1	DHJF	0	1	blank2r.bmp	79	28	pic28.bmp	199	1	whitenoise_No3.bmp	306	0	0	0	0	0	0	0	0	0	0	0	0	0	0	0	0	0	0	0	0	0	0	0	0	0	0	0	0	0	0	0	0	0	0	0	0	0	0	0
012219	10:04:05	10:17:23	796345	5.0.10.0	4_exp_EVA_AMP_AWA_CON	82	Rpleas_acq	Same	Rpleas	Amasked	CS_A	2pleas	distractor1	EVAbeforeCON	AMP_distractor	AMP23	9	19	0	0	300	300	0	0	425	50	0,9765625	0	0	0	0	1	blank2r.bmp	0	1	ZGXT	0	1	blank2r.bmp	79	51	pic51.bmp	199	1	whitenoise_No3.bmp	306	0	0	0	0	0	0	0	0	0	0	0	0	0	0	0	0	0	0	0	0	0	0	0	0	0	0	0	0	0	0	0	0	0	0	0	0	0	0	0
012219	10:04:05	10:17:25	798251	5.0.10.0	4_exp_EVA_AMP_AWA_CON	82	Rpleas_acq	Same	Rpleas	Amasked	CS_A	2pleas	distractor1	EVAbeforeCON	AMP_distractor	AMP23	9	20	0	0	300	300	0	0	978	46	0,9765625	0	0	0	0	1	blank2r.bmp	0	1	ZGXT	0	1	blank2r.bmp	79	2	pic2.bmp	199	1	whitenoise_No3.bmp	306	0	0	0	0	0	0	0	0	0	0	0	0	0	0	0	0	0	0	0	0	0	0	0	0	0	0	0	0	0	0	0	0	0	0	0	0	0	0	0
012219	10:04:05	10:17:27	799610	5.0.10.0	4_exp_EVA_AMP_AWA_CON	82	Rpleas_acq	Same	Rpleas	Amasked	CS_A	2pleas	distractor1	EVAbeforeCON	AMP_distractor	AMP23	9	21	0	0	300	300	0	0	449	46	0,9765625	0	0	0	0	1	blank2r.bmp	0	1	ZGXT	0	1	blank2r.bmp	79	119	pic119.bmp	199	1	whitenoise_No3.bmp	306	0	0	0	0	0	0	0	0	0	0	0	0	0	0	0	0	0	0	0	0	0	0	0	0	0	0	0	0	0	0	0	0	0	0	0	0	0	0	0
012219	10:04:05	10:17:28	801129	5.0.10.0	4_exp_EVA_AMP_AWA_CON	82	Rpleas_acq	Same	Rpleas	Amasked	CS_A	2pleas	distractor1	EVAbeforeCON	AMP_CSpleas	AMP23	9	22	0	0	300	300	0	0	591	50	0,9765625	1	0	0	0	1	blank2r.bmp	0	1	DHJF	0	1	blank2r.bmp	79	37	pic37.bmp	199	1	whitenoise_No3.bmp	306	0	0	0	0	0	0	0	0	0	0	0	0	0	0	0	0	0	0	0	0	0	0	0	0	0	0	0	0	0	0	0	0	0	0	0	0	0	0	0
012219	10:04:05	10:17:30	802769	5.0.10.0	4_exp_EVA_AMP_AWA_CON	82	Rpleas_acq	Same	Rpleas	Amasked	CS_A	2pleas	distractor1	EVAbeforeCON	AMP_distractor	AMP23	9	23	0	0	300	300	0	0	713	46	0,9765625	0	0	0	0	1	blank2r.bmp	0	1	ZGXT	0	1	blank2r.bmp	79	151	pic151.bmp	199	1	whitenoise_No3.bmp	306	0	0	0	0	0	0	0	0	0	0	0	0	0	0	0	0	0	0	0	0	0	0	0	0	0	0	0	0	0	0	0	0	0	0	0	0	0	0	0
012219	10:04:05	10:17:31	804088	5.0.10.0	4_exp_EVA_AMP_AWA_CON	82	Rpleas_acq	Same	Rpleas	Amasked	CS_A	2pleas	distractor1	EVAbeforeCON	AMP_distractor	AMP23	9	24	0	0	300	300	0	0	397	46	0,9765625	0	0	0	0	1	blank2r.bmp	0	1	ZGXT	0	1	blank2r.bmp	79	127	pic127.bmp	199	1	whitenoise_No3.bmp	306	0	0	0	0	0	0	0	0	0	0	0	0	0	0	0	0	0	0	0	0	0	0	0	0	0	0	0	0	0	0	0	0	0	0	0	0	0	0	0
012219	10:04:05	10:17:33	805541	5.0.10.0	4_exp_EVA_AMP_AWA_CON	82	Rpleas_acq	Same	Rpleas	Amasked	CS_A	2pleas	distractor1	EVAbeforeCON	AMP_CSunple	AMP23	9	25	0	0	300	300	0	0	531	46	0,9765625	1	0	0	0	1	blank2r.bmp	0	1	CPLW	0	1	blank2r.bmp	79	74	pic74.bmp	199	1	whitenoise_No3.bmp	306	0	0	0	0	0	0	0	0	0	0	0	0	0	0	0	0	0	0	0	0	0	0	0	0	0	0	0	0	0	0	0	0	0	0	0	0	0	0	0
012219	10:04:05	10:17:34	806834	5.0.10.0	4_exp_EVA_AMP_AWA_CON	82	Rpleas_acq	Same	Rpleas	Amasked	CS_A	2pleas	distractor1	EVAbeforeCON	AMP_distractor	AMP23	9	26	0	0	300	300	0	0	368	50	0,9765625	0	0	0	0	1	blank2r.bmp	0	1	ZGXT	0	1	blank2r.bmp	79	3	pic3.bmp	199	1	whitenoise_No3.bmp	306	0	0	0	0	0	0	0	0	0	0	0	0	0	0	0	0	0	0	0	0	0	0	0	0	0	0	0	0	0	0	0	0	0	0	0	0	0	0	0
012219	10:04:05	10:17:35	808153	5.0.10.0	4_exp_EVA_AMP_AWA_CON	82	Rpleas_acq	Same	Rpleas	Amasked	CS_A	2pleas	distractor1	EVAbeforeCON	AMP_CSpleas	AMP23	9	27	0	0	300	300	0	0	393	50	0,9765625	1	0	0	0	1	blank2r.bmp	0	1	DHJF	0	1	blank2r.bmp	79	7	pic7.bmp	199	1	whitenoise_No3.bmp	306	0	0	0	0	0	0	0	0	0	0	0	0	0	0	0	0	0	0	0	0	0	0	0	0	0	0	0	0	0	0	0	0	0	0	0	0	0	0	0
