date	time	script.currenttime	script.elapsedtime	build	script.currentexpt	subject	expressions.LRpleas_acq	expressions.SameOppo	expressions.condition_Lpleas	expressions.ABmasked	expressions.conditionCS_A	expressions.condition_1pleas	expressions.condition_distractor_AMP	expressions.AWACON_AMPEVA_first	trialcode	blockcode	blocknum	trialnum	windowcenter	inwindow	pretrialpause	posttrialpause	trialduration	trialtimeout	latency	response	expressions.correctedscore	correct	values.vis_performance	values.vis_rating_sum	values.vis_rating_mean	stimulusnumber1	stimulusitem1	stimulusonset1	stimulusnumber2	stimulusitem2	stimulusonset2	stimulusnumber3	stimulusitem3	stimulusonset3	stimulusnumber4	stimulusitem4	stimulusonset4	stimulusnumber5	stimulusitem5	stimulusonset5	stimulusnumber6	stimulusitem6	stimulusonset6	stimulusnumber7	stimulusitem7	stimulusonset7	stimulusnumber8	stimulusitem8	stimulusonset8	stimulusnumber9	stimulusitem9	stimulusonset9	stimulusnumber10	stimulusitem10	stimulusonset10	stimulusnumber11	stimulusitem11	stimulusonset11	stimulusnumber12	stimulusitem12	stimulusonset12	stimulusnumber13	stimulusitem13	stimulusonset13	stimulusnumber14	stimulusitem14	stimulusonset14	stimulusnumber15	stimulusitem15	stimulusonset15	stimulusnumber16	stimulusitem16	stimulusonset16	stimulusnumber17	stimulusitem17	stimulusonset17	stimulusnumber18	stimulusitem18	stimulusonset18
030619	12:53:43	12:55:43	119096	5.0.10.0	4_exp_AWA_CON_AMP_EVA	145	Rpleas_acq	Same	Rpleas	Bmasked	CS_B	1pleas	distractor2	CONbeforeEVA	acq_US_unple_masked	acq1_masked	1	1	0	0	300	300	0	0	991	46	0	1	0	0	0	1	blank2r.bmp	0	1	+	0	5	C1r.bmp	492	1	blank2r.bmp	786	1	GKQX	786	1	blank2r.bmp	866	5	hindern	866	0	0	0	0	0	0	0	0	0	0	0	0	0	0	0	0	0	0	0	0	0	0	0	0	0	0	0	0	0	0	0	0	0
030619	12:53:43	12:55:45	121282	5.0.10.0	4_exp_AWA_CON_AMP_EVA	145	Rpleas_acq	Same	Rpleas	Bmasked	CS_B	1pleas	distractor2	CONbeforeEVA	acq_new_unple_masked	acq1_masked	1	2	0	0	300	300	0	0	692	46	0	1	0	0	0	1	blank2r.bmp	0	1	+	0	3	B3r.bmp	492	1	blank2r.bmp	786	5	C1r.bmp	786	1	blank2r.bmp	866	1	tot	866	0	0	0	0	0	0	0	0	0	0	0	0	0	0	0	0	0	0	0	0	0	0	0	0	0	0	0	0	0	0	0	0	0
030619	12:53:43	12:55:47	123387	5.0.10.0	4_exp_AWA_CON_AMP_EVA	145	Rpleas_acq	Same	Rpleas	Bmasked	CS_B	1pleas	distractor2	CONbeforeEVA	acq_US_unple_masked	acq1_masked	1	3	0	0	300	300	0	0	615	46	0	1	0	0	0	1	blank2r.bmp	0	1	+	0	7	C3r.bmp	492	1	blank2r.bmp	786	1	GKQX	786	1	blank2r.bmp	866	6	tyrannisch	866	0	0	0	0	0	0	0	0	0	0	0	0	0	0	0	0	0	0	0	0	0	0	0	0	0	0	0	0	0	0	0	0	0
030619	12:53:43	12:55:50	125480	5.0.10.0	4_exp_AWA_CON_AMP_EVA	145	Rpleas_acq	Same	Rpleas	Bmasked	CS_B	1pleas	distractor2	CONbeforeEVA	acq_new_pleas_masked	acq1_masked	1	4	0	0	300	300	0	0	603	50	0	1	0	0	0	1	blank2r.bmp	0	1	+	0	4	B4r.bmp	492	1	blank2r.bmp	786	2	B2r.bmp	786	1	blank2r.bmp	866	6	lachen	866	0	0	0	0	0	0	0	0	0	0	0	0	0	0	0	0	0	0	0	0	0	0	0	0	0	0	0	0	0	0	0	0	0
030619	12:53:43	12:55:52	127506	5.0.10.0	4_exp_AWA_CON_AMP_EVA	145	Rpleas_acq	Same	Rpleas	Bmasked	CS_B	1pleas	distractor2	CONbeforeEVA	acq_new_pleas_masked	acq1_masked	1	5	0	0	300	300	0	0	556	50	0	1	0	0	0	1	blank2r.bmp	0	1	+	0	6	C2r.bmp	492	1	blank2r.bmp	786	7	C3r.bmp	786	1	blank2r.bmp	866	3	ehrlich	866	0	0	0	0	0	0	0	0	0	0	0	0	0	0	0	0	0	0	0	0	0	0	0	0	0	0	0	0	0	0	0	0	0
030619	12:53:43	12:55:54	129931	5.0.10.0	4_exp_AWA_CON_AMP_EVA	145	Rpleas_acq	Same	Rpleas	Bmasked	CS_B	1pleas	distractor2	CONbeforeEVA	acq_new_unple_masked	acq1_masked	1	6	0	0	300	300	0	0	935	46	0	1	0	0	0	1	blank2r.bmp	0	1	+	0	1	B1r.bmp	492	1	blank2r.bmp	786	4	B4r.bmp	786	1	blank2r.bmp	866	3	eitel	866	0	0	0	0	0	0	0	0	0	0	0	0	0	0	0	0	0	0	0	0	0	0	0	0	0	0	0	0	0	0	0	0	0
030619	12:53:43	12:55:56	132117	5.0.10.0	4_exp_AWA_CON_AMP_EVA	145	Rpleas_acq	Same	Rpleas	Bmasked	CS_B	1pleas	distractor2	CONbeforeEVA	acq_US_pleas_masked	acq1_masked	1	7	0	0	300	300	0	0	712	50	0	1	0	0	0	1	blank2r.bmp	0	1	+	0	2	B2r.bmp	492	1	blank2r.bmp	786	1	BMVZ	786	1	blank2r.bmp	866	4	fair	866	0	0	0	0	0	0	0	0	0	0	0	0	0	0	0	0	0	0	0	0	0	0	0	0	0	0	0	0	0	0	0	0	0
030619	12:53:43	12:55:58	134236	5.0.10.0	4_exp_AWA_CON_AMP_EVA	145	Rpleas_acq	Same	Rpleas	Bmasked	CS_B	1pleas	distractor2	CONbeforeEVA	acq_US_unple_masked	acq1_masked	1	8	0	0	300	300	0	0	637	46	0	1	0	0	0	1	blank2r.bmp	0	1	+	0	8	C4r.bmp	492	1	blank2r.bmp	786	1	GKQX	786	1	blank2r.bmp	866	2	lasch	866	0	0	0	0	0	0	0	0	0	0	0	0	0	0	0	0	0	0	0	0	0	0	0	0	0	0	0	0	0	0	0	0	0
030619	12:53:43	12:56:01	136475	5.0.10.0	4_exp_AWA_CON_AMP_EVA	145	Rpleas_acq	Same	Rpleas	Bmasked	CS_B	1pleas	distractor2	CONbeforeEVA	acq_new_unple_masked	acq1_masked	1	9	0	0	300	300	0	0	755	46	0	1	0	0	0	1	blank2r.bmp	0	1	+	0	8	C4r.bmp	492	1	blank2r.bmp	786	1	B1r.bmp	786	1	blank2r.bmp	866	6	leiden	866	0	0	0	0	0	0	0	0	0	0	0	0	0	0	0	0	0	0	0	0	0	0	0	0	0	0	0	0	0	0	0	0	0
030619	12:53:43	12:56:03	138634	5.0.10.0	4_exp_AWA_CON_AMP_EVA	145	Rpleas_acq	Same	Rpleas	Bmasked	CS_B	1pleas	distractor2	CONbeforeEVA	acq_new_pleas_masked	acq1_masked	1	10	0	0	300	300	0	0	665	50	0	1	0	0	0	1	blank2r.bmp	0	1	+	0	4	B4r.bmp	492	1	blank2r.bmp	786	3	B3r.bmp	786	1	blank2r.bmp	866	1	treu	866	0	0	0	0	0	0	0	0	0	0	0	0	0	0	0	0	0	0	0	0	0	0	0	0	0	0	0	0	0	0	0	0	0
030619	12:53:43	12:56:05	140700	5.0.10.0	4_exp_AWA_CON_AMP_EVA	145	Rpleas_acq	Same	Rpleas	Bmasked	CS_B	1pleas	distractor2	CONbeforeEVA	acq_US_pleas_masked	acq1_masked	1	11	0	0	300	300	0	0	588	50	0	1	0	0	0	1	blank2r.bmp	0	1	+	0	7	C3r.bmp	492	1	blank2r.bmp	786	1	BMVZ	786	1	blank2r.bmp	866	5	helfen	866	0	0	0	0	0	0	0	0	0	0	0	0	0	0	0	0	0	0	0	0	0	0	0	0	0	0	0	0	0	0	0	0	0
030619	12:53:43	12:56:07	142806	5.0.10.0	4_exp_AWA_CON_AMP_EVA	145	Rpleas_acq	Same	Rpleas	Bmasked	CS_B	1pleas	distractor2	CONbeforeEVA	acq_US_pleas_masked	acq1_masked	1	12	0	0	300	300	0	0	617	50	0	1	0	0	0	1	blank2r.bmp	0	1	+	0	2	B2r.bmp	492	1	blank2r.bmp	786	1	BMVZ	786	1	blank2r.bmp	866	6	tolerant	866	0	0	0	0	0	0	0	0	0	0	0	0	0	0	0	0	0	0	0	0	0	0	0	0	0	0	0	0	0	0	0	0	0
030619	12:53:43	12:56:09	144858	5.0.10.0	4_exp_AWA_CON_AMP_EVA	145	Rpleas_acq	Same	Rpleas	Bmasked	CS_B	1pleas	distractor2	CONbeforeEVA	acq_US_pleas_masked	acq1_masked	1	13	0	0	300	300	0	0	571	50	0	1	0	0	0	1	blank2r.bmp	0	1	+	0	3	B3r.bmp	492	1	blank2r.bmp	786	1	BMVZ	786	1	blank2r.bmp	866	1	freundlich	866	0	0	0	0	0	0	0	0	0	0	0	0	0	0	0	0	0	0	0	0	0	0	0	0	0	0	0	0	0	0	0	0	0
030619	12:53:43	12:56:11	146831	5.0.10.0	4_exp_AWA_CON_AMP_EVA	145	Rpleas_acq	Same	Rpleas	Bmasked	CS_B	1pleas	distractor2	CONbeforeEVA	acq_US_pleas_masked	acq1_masked	1	14	0	0	300	300	0	0	481	50	0	1	0	0	0	1	blank2r.bmp	0	1	+	0	1	B1r.bmp	492	1	blank2r.bmp	786	1	BMVZ	786	1	blank2r.bmp	866	2	loyal	866	0	0	0	0	0	0	0	0	0	0	0	0	0	0	0	0	0	0	0	0	0	0	0	0	0	0	0	0	0	0	0	0	0
030619	12:53:43	12:56:14	149616	5.0.10.0	4_exp_AWA_CON_AMP_EVA	145	Rpleas_acq	Same	Rpleas	Bmasked	CS_B	1pleas	distractor2	CONbeforeEVA	acq_US_unple_masked	acq1_masked	1	15	0	0	300	300	0	0	1293	46	0	1	0	0	0	1	blank2r.bmp	0	1	+	0	5	C1r.bmp	492	1	blank2r.bmp	786	1	GKQX	786	1	blank2r.bmp	866	1	fanatisch	866	0	0	0	0	0	0	0	0	0	0	0	0	0	0	0	0	0	0	0	0	0	0	0	0	0	0	0	0	0	0	0	0	0
030619	12:53:43	12:56:16	151869	5.0.10.0	4_exp_AWA_CON_AMP_EVA	145	Rpleas_acq	Same	Rpleas	Bmasked	CS_B	1pleas	distractor2	CONbeforeEVA	acq_new_pleas_masked	acq1_masked	1	16	0	0	300	300	0	0	776	50	0	1	0	0	0	1	blank2r.bmp	0	1	+	0	6	C2r.bmp	492	1	blank2r.bmp	786	8	C4r.bmp	786	1	blank2r.bmp	866	4	retten	866	0	0	0	0	0	0	0	0	0	0	0	0	0	0	0	0	0	0	0	0	0	0	0	0	0	0	0	0	0	0	0	0	0
030619	12:53:43	12:56:18	154068	5.0.10.0	4_exp_AWA_CON_AMP_EVA	145	Rpleas_acq	Same	Rpleas	Bmasked	CS_B	1pleas	distractor2	CONbeforeEVA	acq_new_pleas_masked	acq1_masked	1	17	0	0	300	300	0	0	715	50	0	1	0	0	0	1	blank2r.bmp	0	1	+	0	4	B4r.bmp	492	1	blank2r.bmp	786	6	C2r.bmp	786	1	blank2r.bmp	866	2	spielen	866	0	0	0	0	0	0	0	0	0	0	0	0	0	0	0	0	0	0	0	0	0	0	0	0	0	0	0	0	0	0	0	0	0
030619	12:53:43	12:56:20	156134	5.0.10.0	4_exp_AWA_CON_AMP_EVA	145	Rpleas_acq	Same	Rpleas	Bmasked	CS_B	1pleas	distractor2	CONbeforeEVA	acq_new_unple_masked	acq1_masked	1	18	0	0	300	300	0	0	577	46	0	1	0	0	0	1	blank2r.bmp	0	1	+	0	7	C3r.bmp	492	1	blank2r.bmp	786	3	B3r.bmp	786	1	blank2r.bmp	866	5	schroff	866	0	0	0	0	0	0	0	0	0	0	0	0	0	0	0	0	0	0	0	0	0	0	0	0	0	0	0	0	0	0	0	0	0
030619	12:53:43	12:56:22	158173	5.0.10.0	4_exp_AWA_CON_AMP_EVA	145	Rpleas_acq	Same	Rpleas	Bmasked	CS_B	1pleas	distractor2	CONbeforeEVA	acq_new_unple_masked	acq1_masked	1	19	0	0	300	300	0	0	568	46	0	1	0	0	0	1	blank2r.bmp	0	1	+	0	2	B2r.bmp	492	1	blank2r.bmp	786	6	C2r.bmp	786	1	blank2r.bmp	866	4	rächen	866	0	0	0	0	0	0	0	0	0	0	0	0	0	0	0	0	0	0	0	0	0	0	0	0	0	0	0	0	0	0	0	0	0
030619	12:53:43	12:56:24	160252	5.0.10.0	4_exp_AWA_CON_AMP_EVA	145	Rpleas_acq	Same	Rpleas	Bmasked	CS_B	1pleas	distractor2	CONbeforeEVA	acq_US_unple_masked	acq1_masked	1	20	0	0	300	300	0	0	586	46	0	1	0	0	0	1	blank2r.bmp	0	1	+	0	8	C4r.bmp	492	1	blank2r.bmp	786	1	GKQX	786	1	blank2r.bmp	866	3	schlecht	866	0	0	0	0	0	0	0	0	0	0	0	0	0	0	0	0	0	0	0	0	0	0	0	0	0	0	0	0	0	0	0	0	0
030619	12:53:43	12:56:26	162224	5.0.10.0	4_exp_AWA_CON_AMP_EVA	145	Rpleas_acq	Same	Rpleas	Bmasked	CS_B	1pleas	distractor2	CONbeforeEVA	acq_US_pleas_masked	acq1_masked	1	21	0	0	300	300	0	0	503	50	0	1	0	0	0	1	blank2r.bmp	0	1	+	0	1	B1r.bmp	492	1	blank2r.bmp	786	1	BMVZ	786	1	blank2r.bmp	866	3	schön	866	0	0	0	0	0	0	0	0	0	0	0	0	0	0	0	0	0	0	0	0	0	0	0	0	0	0	0	0	0	0	0	0	0
030619	12:53:43	12:56:29	164517	5.0.10.0	4_exp_AWA_CON_AMP_EVA	145	Rpleas_acq	Same	Rpleas	Bmasked	CS_B	1pleas	distractor2	CONbeforeEVA	acq_new_unple_masked	acq1_masked	1	22	0	0	300	300	0	0	805	46	0	1	0	0	0	1	blank2r.bmp	0	1	+	0	6	C2r.bmp	492	1	blank2r.bmp	786	4	B4r.bmp	786	1	blank2r.bmp	866	2	strafen	866	0	0	0	0	0	0	0	0	0	0	0	0	0	0	0	0	0	0	0	0	0	0	0	0	0	0	0	0	0	0	0	0	0
030619	12:53:43	12:56:31	166556	5.0.10.0	4_exp_AWA_CON_AMP_EVA	145	Rpleas_acq	Same	Rpleas	Bmasked	CS_B	1pleas	distractor2	CONbeforeEVA	acq_new_pleas_masked	acq1_masked	1	23	0	0	300	300	0	0	548	50	0	1	0	0	0	1	blank2r.bmp	0	1	+	0	3	B3r.bmp	492	1	blank2r.bmp	786	1	B1r.bmp	786	1	blank2r.bmp	866	5	schlau	866	0	0	0	0	0	0	0	0	0	0	0	0	0	0	0	0	0	0	0	0	0	0	0	0	0	0	0	0	0	0	0	0	0
030619	12:53:43	12:56:33	168768	5.0.10.0	4_exp_AWA_CON_AMP_EVA	145	Rpleas_acq	Same	Rpleas	Bmasked	CS_B	1pleas	distractor2	CONbeforeEVA	acq_US_unple_masked	acq1_masked	1	24	0	0	300	300	0	0	738	46	0	1	0	0	0	1	blank2r.bmp	0	1	+	0	5	C1r.bmp	492	1	blank2r.bmp	786	1	GKQX	786	1	blank2r.bmp	866	4	faul	866	0	0	0	0	0	0	0	0	0	0	0	0	0	0	0	0	0	0	0	0	0	0	0	0	0	0	0	0	0	0	0	0	0
030619	12:53:43	12:56:35	170847	5.0.10.0	4_exp_AWA_CON_AMP_EVA	145	Rpleas_acq	Same	Rpleas	Bmasked	CS_B	1pleas	distractor2	CONbeforeEVA	acq_new_pleas_masked	acq1_masked	1	25	0	0	300	300	0	0	593	50	0	1	0	0	0	1	blank2r.bmp	0	1	+	0	3	B3r.bmp	492	1	blank2r.bmp	786	8	C4r.bmp	786	1	blank2r.bmp	866	2	spielen	866	0	0	0	0	0	0	0	0	0	0	0	0	0	0	0	0	0	0	0	0	0	0	0	0	0	0	0	0	0	0	0	0	0
030619	12:53:43	12:56:37	173353	5.0.10.0	4_exp_AWA_CON_AMP_EVA	145	Rpleas_acq	Same	Rpleas	Bmasked	CS_B	1pleas	distractor2	CONbeforeEVA	acq_US_unple_masked	acq1_masked	1	26	0	0	300	300	0	0	1026	46	0	1	0	0	0	1	blank2r.bmp	0	1	+	0	6	C2r.bmp	492	1	blank2r.bmp	786	1	GKQX	786	1	blank2r.bmp	866	1	fanatisch	866	0	0	0	0	0	0	0	0	0	0	0	0	0	0	0	0	0	0	0	0	0	0	0	0	0	0	0	0	0	0	0	0	0
030619	12:53:43	12:56:39	175472	5.0.10.0	4_exp_AWA_CON_AMP_EVA	145	Rpleas_acq	Same	Rpleas	Bmasked	CS_B	1pleas	distractor2	CONbeforeEVA	acq_new_pleas_masked	acq1_masked	1	27	0	0	300	300	0	0	631	50	0	1	0	0	0	1	blank2r.bmp	0	1	+	0	5	C1r.bmp	492	1	blank2r.bmp	786	2	B2r.bmp	786	1	blank2r.bmp	866	3	ehrlich	866	0	0	0	0	0	0	0	0	0	0	0	0	0	0	0	0	0	0	0	0	0	0	0	0	0	0	0	0	0	0	0	0	0
030619	12:53:43	12:56:42	177578	5.0.10.0	4_exp_AWA_CON_AMP_EVA	145	Rpleas_acq	Same	Rpleas	Bmasked	CS_B	1pleas	distractor2	CONbeforeEVA	acq_US_unple_masked	acq1_masked	1	28	0	0	300	300	0	0	614	46	0	1	0	0	0	1	blank2r.bmp	0	1	+	0	7	C3r.bmp	492	1	blank2r.bmp	786	1	GKQX	786	1	blank2r.bmp	866	3	schlecht	866	0	0	0	0	0	0	0	0	0	0	0	0	0	0	0	0	0	0	0	0	0	0	0	0	0	0	0	0	0	0	0	0	0
030619	12:53:43	12:56:44	179670	5.0.10.0	4_exp_AWA_CON_AMP_EVA	145	Rpleas_acq	Same	Rpleas	Bmasked	CS_B	1pleas	distractor2	CONbeforeEVA	acq_US_pleas_masked	acq1_masked	1	29	0	0	300	300	0	0	612	50	0	1	0	0	0	1	blank2r.bmp	0	1	+	0	4	B4r.bmp	492	1	blank2r.bmp	786	1	BMVZ	786	1	blank2r.bmp	866	1	freundlich	866	0	0	0	0	0	0	0	0	0	0	0	0	0	0	0	0	0	0	0	0	0	0	0	0	0	0	0	0	0	0	0	0	0
030619	12:53:43	12:56:46	182136	5.0.10.0	4_exp_AWA_CON_AMP_EVA	145	Rpleas_acq	Same	Rpleas	Bmasked	CS_B	1pleas	distractor2	CONbeforeEVA	acq_US_pleas_masked	acq1_masked	1	30	0	0	300	300	0	0	985	50	0	1	0	0	0	1	blank2r.bmp	0	1	+	0	8	C4r.bmp	492	1	blank2r.bmp	786	1	BMVZ	786	1	blank2r.bmp	866	5	helfen	866	0	0	0	0	0	0	0	0	0	0	0	0	0	0	0	0	0	0	0	0	0	0	0	0	0	0	0	0	0	0	0	0	0
030619	12:53:43	12:56:48	184122	5.0.10.0	4_exp_AWA_CON_AMP_EVA	145	Rpleas_acq	Same	Rpleas	Bmasked	CS_B	1pleas	distractor2	CONbeforeEVA	acq_US_pleas_masked	acq1_masked	1	31	0	0	300	300	0	0	526	50	0	1	0	0	0	1	blank2r.bmp	0	1	+	0	2	B2r.bmp	492	1	blank2r.bmp	786	1	BMVZ	786	1	blank2r.bmp	866	4	fair	866	0	0	0	0	0	0	0	0	0	0	0	0	0	0	0	0	0	0	0	0	0	0	0	0	0	0	0	0	0	0	0	0	0
030619	12:53:43	12:56:50	186361	5.0.10.0	4_exp_AWA_CON_AMP_EVA	145	Rpleas_acq	Same	Rpleas	Bmasked	CS_B	1pleas	distractor2	CONbeforeEVA	acq_new_unple_masked	acq1_masked	1	32	0	0	300	300	0	0	763	46	0	1	0	0	0	1	blank2r.bmp	0	1	+	0	1	B1r.bmp	492	1	blank2r.bmp	786	7	C3r.bmp	786	1	blank2r.bmp	866	6	leiden	866	0	0	0	0	0	0	0	0	0	0	0	0	0	0	0	0	0	0	0	0	0	0	0	0	0	0	0	0	0	0	0	0	0
030619	12:53:43	12:56:52	188467	5.0.10.0	4_exp_AWA_CON_AMP_EVA	145	Rpleas_acq	Same	Rpleas	Bmasked	CS_B	1pleas	distractor2	CONbeforeEVA	acq_new_unple_masked	acq1_masked	1	33	0	0	300	300	0	0	621	46	0	1	0	0	0	1	blank2r.bmp	0	1	+	0	6	C2r.bmp	492	1	blank2r.bmp	786	5	C1r.bmp	786	1	blank2r.bmp	866	3	eitel	866	0	0	0	0	0	0	0	0	0	0	0	0	0	0	0	0	0	0	0	0	0	0	0	0	0	0	0	0	0	0	0	0	0
030619	12:53:43	12:56:54	190439	5.0.10.0	4_exp_AWA_CON_AMP_EVA	145	Rpleas_acq	Same	Rpleas	Bmasked	CS_B	1pleas	distractor2	CONbeforeEVA	acq_new_unple_masked	acq1_masked	1	34	0	0	300	300	0	0	481	46	0	1	0	0	0	1	blank2r.bmp	0	1	+	0	7	C3r.bmp	492	1	blank2r.bmp	786	5	C1r.bmp	786	1	blank2r.bmp	866	1	tot	866	0	0	0	0	0	0	0	0	0	0	0	0	0	0	0	0	0	0	0	0	0	0	0	0	0	0	0	0	0	0	0	0	0
030619	12:53:43	12:56:56	192372	5.0.10.0	4_exp_AWA_CON_AMP_EVA	145	Rpleas_acq	Same	Rpleas	Bmasked	CS_B	1pleas	distractor2	CONbeforeEVA	acq_US_unple_masked	acq1_masked	1	35	0	0	300	300	0	0	464	46	0	1	0	0	0	1	blank2r.bmp	0	1	+	0	4	B4r.bmp	492	1	blank2r.bmp	786	1	GKQX	786	1	blank2r.bmp	866	4	faul	866	0	0	0	0	0	0	0	0	0	0	0	0	0	0	0	0	0	0	0	0	0	0	0	0	0	0	0	0	0	0	0	0	0
030619	12:53:43	12:56:58	194384	5.0.10.0	4_exp_AWA_CON_AMP_EVA	145	Rpleas_acq	Same	Rpleas	Bmasked	CS_B	1pleas	distractor2	CONbeforeEVA	acq_new_pleas_masked	acq1_masked	1	36	0	0	300	300	0	0	533	50	0	1	0	0	0	1	blank2r.bmp	0	1	+	0	8	C4r.bmp	492	1	blank2r.bmp	786	4	B4r.bmp	786	1	blank2r.bmp	866	4	retten	866	0	0	0	0	0	0	0	0	0	0	0	0	0	0	0	0	0	0	0	0	0	0	0	0	0	0	0	0	0	0	0	0	0
030619	12:53:43	12:57:44	239912	5.0.10.0	4_exp_AWA_CON_AMP_EVA	145	Rpleas_acq	Same	Rpleas	Bmasked	CS_B	1pleas	distractor2	CONbeforeEVA	acq_new_pleas_masked	acq2_masked	2	1	480	0	300	300	0	0	901	50	0	1	0	0	0	1	blank2r.bmp	0	1	+	0	1	B1r.bmp	492	1	blank2r.bmp	786	7	C3r.bmp	786	1	blank2r.bmp	866	1	treu	866	1	!	1319	1	!	-1	0	0	0	0	0	0	0	0	0	0	0	0	0	0	0	0	0	0	0	0	0	0	0	0	0	0	0
030619	12:53:43	12:57:46	242417	5.0.10.0	4_exp_AWA_CON_AMP_EVA	145	Rpleas_acq	Same	Rpleas	Bmasked	CS_B	1pleas	distractor2	CONbeforeEVA	acq_US_pleas_masked	acq2_masked	2	2	480	1	300	300	0	0	483	46	0	0	0	0	0	1	blank2r.bmp	0	1	+	0	5	C1r.bmp	492	1	blank2r.bmp	786	1	BMVZ	786	1	blank2r.bmp	866	6	tolerant	866	1	FEHLER	1705	1	!	1319	1	!	1386	0	0	0	0	0	0	0	0	0	0	0	0	0	0	0	0	0	0	0	0	0	0	0	0
030619	12:53:43	12:57:49	244803	5.0.10.0	4_exp_AWA_CON_AMP_EVA	145	Rpleas_acq	Same	Rpleas	Bmasked	CS_B	1pleas	distractor2	CONbeforeEVA	acq_US_pleas_masked	acq2_masked	2	3	480	0	300	300	0	0	600	46	0	0	0	0	0	1	blank2r.bmp	0	1	+	0	3	B3r.bmp	492	1	blank2r.bmp	786	1	BMVZ	786	1	blank2r.bmp	866	2	loyal	866	1	FEHLER	1812	1	!	1319	1	!	-1	0	0	0	0	0	0	0	0	0	0	0	0	0	0	0	0	0	0	0	0	0	0	0	0
030619	12:53:43	12:57:51	246829	5.0.10.0	4_exp_AWA_CON_AMP_EVA	145	Rpleas_acq	Same	Rpleas	Bmasked	CS_B	1pleas	distractor2	CONbeforeEVA	acq_new_pleas_masked	acq2_masked	2	4	480	1	300	300	0	0	440	50	0	1	0	0	0	1	blank2r.bmp	0	1	+	0	2	B2r.bmp	492	1	blank2r.bmp	786	8	C4r.bmp	786	1	blank2r.bmp	866	6	lachen	866	1	!	1319	1	!	1346	0	0	0	0	0	0	0	0	0	0	0	0	0	0	0	0	0	0	0	0	0	0	0	0	0	0	0
030619	12:53:43	12:57:53	249068	5.0.10.0	4_exp_AWA_CON_AMP_EVA	145	Rpleas_acq	Same	Rpleas	Bmasked	CS_B	1pleas	distractor2	CONbeforeEVA	acq_US_pleas_masked	acq2_masked	2	5	480	1	300	300	0	0	426	50	0	1	0	0	0	1	blank2r.bmp	0	1	+	0	4	B4r.bmp	492	1	blank2r.bmp	786	1	BMVZ	786	1	blank2r.bmp	866	3	schön	866	1	!	1319	1	!	1332	0	0	0	0	0	0	0	0	0	0	0	0	0	0	0	0	0	0	0	0	0	0	0	0	0	0	0
030619	12:53:43	12:57:55	251440	5.0.10.0	4_exp_AWA_CON_AMP_EVA	145	Rpleas_acq	Same	Rpleas	Bmasked	CS_B	1pleas	distractor2	CONbeforeEVA	acq_new_unple_masked	acq2_masked	2	6	480	0	300	300	0	0	378	50	0	0	0	0	0	1	blank2r.bmp	0	1	+	0	6	C2r.bmp	492	1	blank2r.bmp	786	1	B1r.bmp	786	1	blank2r.bmp	866	2	strafen	866	1	FEHLER	1586	1	!	-1	1	!	-1	0	0	0	0	0	0	0	0	0	0	0	0	0	0	0	0	0	0	0	0	0	0	0	0
030619	12:53:43	12:57:58	253479	5.0.10.0	4_exp_AWA_CON_AMP_EVA	145	Rpleas_acq	Same	Rpleas	Bmasked	CS_B	1pleas	distractor2	CONbeforeEVA	acq_US_unple_masked	acq2_masked	2	7	480	1	300	300	0	0	453	46	0	1	0	0	0	1	blank2r.bmp	0	1	+	0	3	B3r.bmp	492	1	blank2r.bmp	786	1	GKQX	786	1	blank2r.bmp	866	5	hindern	866	1	!	1319	1	!	1359	0	0	0	0	0	0	0	0	0	0	0	0	0	0	0	0	0	0	0	0	0	0	0	0	0	0	0
030619	12:53:43	12:58:00	255718	5.0.10.0	4_exp_AWA_CON_AMP_EVA	145	Rpleas_acq	Same	Rpleas	Bmasked	CS_B	1pleas	distractor2	CONbeforeEVA	acq_US_unple_masked	acq2_masked	2	8	480	1	300	300	0	0	451	46	0	1	0	0	0	1	blank2r.bmp	0	1	+	0	7	C3r.bmp	492	1	blank2r.bmp	786	1	GKQX	786	1	blank2r.bmp	866	6	tyrannisch	866	1	!	1319	1	!	1346	0	0	0	0	0	0	0	0	0	0	0	0	0	0	0	0	0	0	0	0	0	0	0	0	0	0	0
030619	12:53:43	12:58:02	258117	5.0.10.0	4_exp_AWA_CON_AMP_EVA	145	Rpleas_acq	Same	Rpleas	Bmasked	CS_B	1pleas	distractor2	CONbeforeEVA	acq_US_unple_masked	acq2_masked	2	9	480	0	300	300	0	0	410	50	0	0	0	0	0	1	blank2r.bmp	0	1	+	0	8	C4r.bmp	492	1	blank2r.bmp	786	1	GKQX	786	1	blank2r.bmp	866	2	lasch	866	1	FEHLER	1612	1	!	-1	1	!	-1	0	0	0	0	0	0	0	0	0	0	0	0	0	0	0	0	0	0	0	0	0	0	0	0
030619	12:53:43	12:58:04	260397	5.0.10.0	4_exp_AWA_CON_AMP_EVA	145	Rpleas_acq	Same	Rpleas	Bmasked	CS_B	1pleas	distractor2	CONbeforeEVA	acq_new_unple_masked	acq2_masked	2	10	480	1	300	300	0	0	474	50	0	0	0	0	0	1	blank2r.bmp	0	1	+	0	2	B2r.bmp	492	1	blank2r.bmp	786	3	B3r.bmp	786	1	blank2r.bmp	866	5	schroff	866	1	FEHLER	1692	1	!	1319	1	!	1372	0	0	0	0	0	0	0	0	0	0	0	0	0	0	0	0	0	0	0	0	0	0	0	0
030619	12:53:43	12:58:07	262689	5.0.10.0	4_exp_AWA_CON_AMP_EVA	145	Rpleas_acq	Same	Rpleas	Bmasked	CS_B	1pleas	distractor2	CONbeforeEVA	acq_new_pleas_masked	acq2_masked	2	11	480	1	300	300	0	0	487	46	0	0	0	0	0	1	blank2r.bmp	0	1	+	0	1	B1r.bmp	492	1	blank2r.bmp	786	2	B2r.bmp	786	1	blank2r.bmp	866	5	schlau	866	1	FEHLER	1705	1	!	1319	1	!	1386	0	0	0	0	0	0	0	0	0	0	0	0	0	0	0	0	0	0	0	0	0	0	0	0
030619	12:53:43	12:58:09	264821	5.0.10.0	4_exp_AWA_CON_AMP_EVA	145	Rpleas_acq	Same	Rpleas	Bmasked	CS_B	1pleas	distractor2	CONbeforeEVA	acq_new_unple_masked	acq2_masked	2	12	480	0	300	300	0	0	560	46	0	1	0	0	0	1	blank2r.bmp	0	1	+	0	5	C1r.bmp	492	1	blank2r.bmp	786	6	C2r.bmp	786	1	blank2r.bmp	866	4	rächen	866	1	!	1319	1	!	-1	0	0	0	0	0	0	0	0	0	0	0	0	0	0	0	0	0	0	0	0	0	0	0	0	0	0	0
030619	12:53:43	12:58:11	267007	5.0.10.0	4_exp_AWA_CON_AMP_EVA	145	Rpleas_acq	Same	Rpleas	Bmasked	CS_B	1pleas	distractor2	CONbeforeEVA	acq_new_pleas_masked	acq2_masked	2	13	480	0	300	300	0	0	406	50	0	1	0	0	0	1	blank2r.bmp	0	1	+	0	5	C1r.bmp	492	1	blank2r.bmp	786	6	C2r.bmp	786	1	blank2r.bmp	866	1	treu	866	1	!	-1	1	!	-1	0	0	0	0	0	0	0	0	0	0	0	0	0	0	0	0	0	0	0	0	0	0	0	0	0	0	0
030619	12:53:43	12:58:13	269393	5.0.10.0	4_exp_AWA_CON_AMP_EVA	145	Rpleas_acq	Same	Rpleas	Bmasked	CS_B	1pleas	distractor2	CONbeforeEVA	acq_US_unple_masked	acq2_masked	2	14	480	0	300	300	0	0	609	46	0	1	0	0	0	1	blank2r.bmp	0	1	+	0	7	C3r.bmp	492	1	blank2r.bmp	786	1	GKQX	786	1	blank2r.bmp	866	5	hindern	866	1	!	1319	1	!	-1	0	0	0	0	0	0	0	0	0	0	0	0	0	0	0	0	0	0	0	0	0	0	0	0	0	0	0
030619	12:53:43	12:58:16	271632	5.0.10.0	4_exp_AWA_CON_AMP_EVA	145	Rpleas_acq	Same	Rpleas	Bmasked	CS_B	1pleas	distractor2	CONbeforeEVA	acq_new_unple_masked	acq2_masked	2	15	480	1	300	300	0	0	438	46	0	1	0	0	0	1	blank2r.bmp	0	1	+	0	1	B1r.bmp	492	1	blank2r.bmp	786	5	C1r.bmp	786	1	blank2r.bmp	866	2	strafen	866	1	!	1319	1	!	1332	0	0	0	0	0	0	0	0	0	0	0	0	0	0	0	0	0	0	0	0	0	0	0	0	0	0	0
030619	12:53:43	12:58:18	273898	5.0.10.0	4_exp_AWA_CON_AMP_EVA	145	Rpleas_acq	Same	Rpleas	Bmasked	CS_B	1pleas	distractor2	CONbeforeEVA	acq_US_pleas_masked	acq2_masked	2	16	480	1	300	300	0	0	469	50	0	1	0	0	0	1	blank2r.bmp	0	1	+	0	6	C2r.bmp	492	1	blank2r.bmp	786	1	BMVZ	786	1	blank2r.bmp	866	1	freundlich	866	1	!	1319	1	!	1372	0	0	0	0	0	0	0	0	0	0	0	0	0	0	0	0	0	0	0	0	0	0	0	0	0	0	0
030619	12:53:43	12:58:20	276150	5.0.10.0	4_exp_AWA_CON_AMP_EVA	145	Rpleas_acq	Same	Rpleas	Bmasked	CS_B	1pleas	distractor2	CONbeforeEVA	acq_US_unple_masked	acq2_masked	2	17	480	1	300	300	0	0	455	46	0	1	0	0	0	1	blank2r.bmp	0	1	+	0	8	C4r.bmp	492	1	blank2r.bmp	786	1	GKQX	786	1	blank2r.bmp	866	3	schlecht	866	1	!	1319	1	!	1359	0	0	0	0	0	0	0	0	0	0	0	0	0	0	0	0	0	0	0	0	0	0	0	0	0	0	0
030619	12:53:43	12:58:23	278589	5.0.10.0	4_exp_AWA_CON_AMP_EVA	145	Rpleas_acq	Same	Rpleas	Bmasked	CS_B	1pleas	distractor2	CONbeforeEVA	acq_US_pleas_masked	acq2_masked	2	18	480	1	300	300	0	0	426	46	0	0	0	0	0	1	blank2r.bmp	0	1	+	0	2	B2r.bmp	492	1	blank2r.bmp	786	1	BMVZ	786	1	blank2r.bmp	866	2	loyal	866	1	FEHLER	1652	1	!	1319	1	!	1332	0	0	0	0	0	0	0	0	0	0	0	0	0	0	0	0	0	0	0	0	0	0	0	0
030619	12:53:43	12:58:25	280735	5.0.10.0	4_exp_AWA_CON_AMP_EVA	145	Rpleas_acq	Same	Rpleas	Bmasked	CS_B	1pleas	distractor2	CONbeforeEVA	acq_new_pleas_masked	acq2_masked	2	19	480	0	300	300	0	0	595	50	0	1	0	0	0	1	blank2r.bmp	0	1	+	0	3	B3r.bmp	492	1	blank2r.bmp	786	1	B1r.bmp	786	1	blank2r.bmp	866	5	schlau	866	1	!	1319	1	!	-1	0	0	0	0	0	0	0	0	0	0	0	0	0	0	0	0	0	0	0	0	0	0	0	0	0	0	0
030619	12:53:43	12:58:27	283014	5.0.10.0	4_exp_AWA_CON_AMP_EVA	145	Rpleas_acq	Same	Rpleas	Bmasked	CS_B	1pleas	distractor2	CONbeforeEVA	acq_new_unple_masked	acq2_masked	2	20	480	1	300	300	0	0	468	46	0	1	0	0	0	1	blank2r.bmp	0	1	+	0	4	B4r.bmp	492	1	blank2r.bmp	786	2	B2r.bmp	786	1	blank2r.bmp	866	6	leiden	866	1	!	1319	1	!	1372	0	0	0	0	0	0	0	0	0	0	0	0	0	0	0	0	0	0	0	0	0	0	0	0	0	0	0
030619	12:53:43	12:58:29	285346	5.0.10.0	4_exp_AWA_CON_AMP_EVA	145	Rpleas_acq	Same	Rpleas	Bmasked	CS_B	1pleas	distractor2	CONbeforeEVA	acq_US_pleas_masked	acq2_masked	2	21	480	0	300	300	0	0	564	50	0	1	0	0	0	1	blank2r.bmp	0	1	+	0	5	C1r.bmp	492	1	blank2r.bmp	786	1	BMVZ	786	1	blank2r.bmp	866	6	tolerant	866	1	!	1319	1	!	-1	0	0	0	0	0	0	0	0	0	0	0	0	0	0	0	0	0	0	0	0	0	0	0	0	0	0	0
030619	12:53:43	12:58:32	287598	5.0.10.0	4_exp_AWA_CON_AMP_EVA	145	Rpleas_acq	Same	Rpleas	Bmasked	CS_B	1pleas	distractor2	CONbeforeEVA	acq_US_unple_masked	acq2_masked	2	22	480	1	300	300	0	0	443	46	0	1	0	0	0	1	blank2r.bmp	0	1	+	0	3	B3r.bmp	492	1	blank2r.bmp	786	1	GKQX	786	1	blank2r.bmp	866	2	lasch	866	1	!	1319	1	!	1346	0	0	0	0	0	0	0	0	0	0	0	0	0	0	0	0	0	0	0	0	0	0	0	0	0	0	0
030619	12:53:43	12:58:34	289824	5.0.10.0	4_exp_AWA_CON_AMP_EVA	145	Rpleas_acq	Same	Rpleas	Bmasked	CS_B	1pleas	distractor2	CONbeforeEVA	acq_new_unple_masked	acq2_masked	2	23	480	1	300	300	0	0	429	46	0	1	0	0	0	1	blank2r.bmp	0	1	+	0	6	C2r.bmp	492	1	blank2r.bmp	786	4	B4r.bmp	786	1	blank2r.bmp	866	1	tot	866	1	!	1319	1	!	1332	0	0	0	0	0	0	0	0	0	0	0	0	0	0	0	0	0	0	0	0	0	0	0	0	0	0	0
030619	12:53:43	12:58:36	291983	5.0.10.0	4_exp_AWA_CON_AMP_EVA	145	Rpleas_acq	Same	Rpleas	Bmasked	CS_B	1pleas	distractor2	CONbeforeEVA	acq_new_pleas_masked	acq2_masked	2	24	480	0	300	300	0	0	379	50	0	1	0	0	0	1	blank2r.bmp	0	1	+	0	7	C3r.bmp	492	1	blank2r.bmp	786	8	C4r.bmp	786	1	blank2r.bmp	866	3	ehrlich	866	1	!	-1	1	!	-1	0	0	0	0	0	0	0	0	0	0	0	0	0	0	0	0	0	0	0	0	0	0	0	0	0	0	0
030619	12:53:43	12:58:38	294289	5.0.10.0	4_exp_AWA_CON_AMP_EVA	145	Rpleas_acq	Same	Rpleas	Bmasked	CS_B	1pleas	distractor2	CONbeforeEVA	acq_US_pleas_masked	acq2_masked	2	25	480	1	300	300	0	0	502	50	0	1	0	0	0	1	blank2r.bmp	0	1	+	0	4	B4r.bmp	492	1	blank2r.bmp	786	1	BMVZ	786	1	blank2r.bmp	866	4	fair	866	1	!	1319	1	!	1399	0	0	0	0	0	0	0	0	0	0	0	0	0	0	0	0	0	0	0	0	0	0	0	0	0	0	0
030619	12:53:43	12:58:41	296648	5.0.10.0	4_exp_AWA_CON_AMP_EVA	145	Rpleas_acq	Same	Rpleas	Bmasked	CS_B	1pleas	distractor2	CONbeforeEVA	acq_new_unple_masked	acq2_masked	2	26	480	0	300	300	0	0	592	46	0	1	0	0	0	1	blank2r.bmp	0	1	+	0	2	B2r.bmp	492	1	blank2r.bmp	786	7	C3r.bmp	786	1	blank2r.bmp	866	3	eitel	866	1	!	1319	1	!	-1	0	0	0	0	0	0	0	0	0	0	0	0	0	0	0	0	0	0	0	0	0	0	0	0	0	0	0
030619	12:53:43	12:58:43	298980	5.0.10.0	4_exp_AWA_CON_AMP_EVA	145	Rpleas_acq	Same	Rpleas	Bmasked	CS_B	1pleas	distractor2	CONbeforeEVA	acq_new_pleas_masked	acq2_masked	2	27	480	1	300	300	0	0	527	50	0	1	0	0	0	1	blank2r.bmp	0	1	+	0	1	B1r.bmp	492	1	blank2r.bmp	786	3	B3r.bmp	786	1	blank2r.bmp	866	2	spielen	866	1	!	1319	1	!	1426	0	0	0	0	0	0	0	0	0	0	0	0	0	0	0	0	0	0	0	0	0	0	0	0	0	0	0
030619	12:53:43	12:58:46	301486	5.0.10.0	4_exp_AWA_CON_AMP_EVA	145	Rpleas_acq	Same	Rpleas	Bmasked	CS_B	1pleas	distractor2	CONbeforeEVA	acq_new_pleas_masked	acq2_masked	2	28	480	1	300	300	0	0	489	46	0	0	0	0	0	1	blank2r.bmp	0	1	+	0	8	C4r.bmp	492	1	blank2r.bmp	786	6	C2r.bmp	786	1	blank2r.bmp	866	4	retten	866	1	FEHLER	1705	1	!	1319	1	!	1386	0	0	0	0	0	0	0	0	0	0	0	0	0	0	0	0	0	0	0	0	0	0	0	0
030619	12:53:43	12:58:48	303618	5.0.10.0	4_exp_AWA_CON_AMP_EVA	145	Rpleas_acq	Same	Rpleas	Bmasked	CS_B	1pleas	distractor2	CONbeforeEVA	acq_US_unple_masked	acq2_masked	2	29	480	0	300	300	0	0	564	46	0	1	0	0	0	1	blank2r.bmp	0	1	+	0	2	B2r.bmp	492	1	blank2r.bmp	786	1	GKQX	786	1	blank2r.bmp	866	4	faul	866	1	!	1319	1	!	-1	0	0	0	0	0	0	0	0	0	0	0	0	0	0	0	0	0	0	0	0	0	0	0	0	0	0	0
030619	12:53:43	12:58:50	305737	5.0.10.0	4_exp_AWA_CON_AMP_EVA	145	Rpleas_acq	Same	Rpleas	Bmasked	CS_B	1pleas	distractor2	CONbeforeEVA	acq_US_pleas_masked	acq2_masked	2	30	480	0	300	300	0	0	338	50	0	1	0	0	0	1	blank2r.bmp	0	1	+	0	6	C2r.bmp	492	1	blank2r.bmp	786	1	BMVZ	786	1	blank2r.bmp	866	3	schön	866	1	!	-1	1	!	-1	0	0	0	0	0	0	0	0	0	0	0	0	0	0	0	0	0	0	0	0	0	0	0	0	0	0	0
030619	12:53:43	12:58:52	308030	5.0.10.0	4_exp_AWA_CON_AMP_EVA	145	Rpleas_acq	Same	Rpleas	Bmasked	CS_B	1pleas	distractor2	CONbeforeEVA	acq_US_unple_masked	acq2_masked	2	31	480	1	300	300	0	0	476	46	0	1	0	0	0	1	blank2r.bmp	0	1	+	0	3	B3r.bmp	492	1	blank2r.bmp	786	1	GKQX	786	1	blank2r.bmp	866	6	tyrannisch	866	1	!	1319	1	!	1372	0	0	0	0	0	0	0	0	0	0	0	0	0	0	0	0	0	0	0	0	0	0	0	0	0	0	0
030619	12:53:43	12:58:54	310362	5.0.10.0	4_exp_AWA_CON_AMP_EVA	145	Rpleas_acq	Same	Rpleas	Bmasked	CS_B	1pleas	distractor2	CONbeforeEVA	acq_new_unple_masked	acq2_masked	2	32	480	1	300	300	0	0	538	46	0	1	0	0	0	1	blank2r.bmp	0	1	+	0	8	C4r.bmp	492	1	blank2r.bmp	786	1	B1r.bmp	786	1	blank2r.bmp	866	4	rächen	866	1	!	1319	1	!	1439	0	0	0	0	0	0	0	0	0	0	0	0	0	0	0	0	0	0	0	0	0	0	0	0	0	0	0
030619	12:53:43	12:58:57	312588	5.0.10.0	4_exp_AWA_CON_AMP_EVA	145	Rpleas_acq	Same	Rpleas	Bmasked	CS_B	1pleas	distractor2	CONbeforeEVA	acq_US_unple_masked	acq2_masked	2	33	480	1	300	300	0	0	426	46	0	1	0	0	0	1	blank2r.bmp	0	1	+	0	7	C3r.bmp	492	1	blank2r.bmp	786	1	GKQX	786	1	blank2r.bmp	866	1	fanatisch	866	1	!	1319	1	!	1332	0	0	0	0	0	0	0	0	0	0	0	0	0	0	0	0	0	0	0	0	0	0	0	0	0	0	0
030619	12:53:43	12:58:59	314880	5.0.10.0	4_exp_AWA_CON_AMP_EVA	145	Rpleas_acq	Same	Rpleas	Bmasked	CS_B	1pleas	distractor2	CONbeforeEVA	acq_new_unple_masked	acq2_masked	2	34	480	0	300	300	0	0	301	50	0	0	0	0	0	1	blank2r.bmp	0	1	+	0	4	B4r.bmp	492	1	blank2r.bmp	786	5	C1r.bmp	786	1	blank2r.bmp	866	5	schroff	866	1	FEHLER	1506	1	!	-1	1	!	-1	0	0	0	0	0	0	0	0	0	0	0	0	0	0	0	0	0	0	0	0	0	0	0	0
030619	12:53:43	12:59:01	316786	5.0.10.0	4_exp_AWA_CON_AMP_EVA	145	Rpleas_acq	Same	Rpleas	Bmasked	CS_B	1pleas	distractor2	CONbeforeEVA	acq_new_pleas_masked	acq2_masked	2	35	480	0	300	300	0	0	349	50	0	1	0	0	0	1	blank2r.bmp	0	1	+	0	5	C1r.bmp	492	1	blank2r.bmp	786	4	B4r.bmp	786	1	blank2r.bmp	866	6	lachen	866	1	!	-1	1	!	-1	0	0	0	0	0	0	0	0	0	0	0	0	0	0	0	0	0	0	0	0	0	0	0	0	0	0	0
030619	12:53:43	12:59:03	319079	5.0.10.0	4_exp_AWA_CON_AMP_EVA	145	Rpleas_acq	Same	Rpleas	Bmasked	CS_B	1pleas	distractor2	CONbeforeEVA	acq_US_pleas_masked	acq2_masked	2	36	480	1	300	300	0	0	481	50	0	1	0	0	0	1	blank2r.bmp	0	1	+	0	1	B1r.bmp	492	1	blank2r.bmp	786	1	BMVZ	786	1	blank2r.bmp	866	5	helfen	866	1	!	1319	1	!	1386	0	0	0	0	0	0	0	0	0	0	0	0	0	0	0	0	0	0	0	0	0	0	0	0	0	0	0
030619	12:53:43	12:59:20	335592	5.0.10.0	4_exp_AWA_CON_AMP_EVA	145	Rpleas_acq	Same	Rpleas	Bmasked	CS_B	1pleas	distractor2	CONbeforeEVA	acq_US_unple_masked	acq3_masked	3	1	453	0	300	300	0	0	559	46	0	1	0	0	0	1	blank2r.bmp	0	1	+	0	6	C2r.bmp	492	1	blank2r.bmp	786	1	GKQX	786	1	blank2r.bmp	866	6	tyrannisch	866	1	!	1292	1	!	-1	0	0	0	0	0	0	0	0	0	0	0	0	0	0	0	0	0	0	0	0	0	0	0	0	0	0	0
030619	12:53:43	12:59:22	337631	5.0.10.0	4_exp_AWA_CON_AMP_EVA	145	Rpleas_acq	Same	Rpleas	Bmasked	CS_B	1pleas	distractor2	CONbeforeEVA	acq_US_pleas_masked	acq3_masked	3	2	453	0	300	300	0	0	254	50	0	1	0	0	0	1	blank2r.bmp	0	1	+	0	7	C3r.bmp	492	1	blank2r.bmp	786	1	BMVZ	786	1	blank2r.bmp	866	5	helfen	866	1	!	-1	1	!	-1	0	0	0	0	0	0	0	0	0	0	0	0	0	0	0	0	0	0	0	0	0	0	0	0	0	0	0
030619	12:53:43	12:59:24	339896	5.0.10.0	4_exp_AWA_CON_AMP_EVA	145	Rpleas_acq	Same	Rpleas	Bmasked	CS_B	1pleas	distractor2	CONbeforeEVA	acq_US_unple_masked	acq3_masked	3	3	453	1	300	300	0	0	461	46	0	1	0	0	0	1	blank2r.bmp	0	1	+	0	4	B4r.bmp	492	1	blank2r.bmp	786	1	GKQX	786	1	blank2r.bmp	866	4	faul	866	1	!	1292	1	!	1359	0	0	0	0	0	0	0	0	0	0	0	0	0	0	0	0	0	0	0	0	0	0	0	0	0	0	0
030619	12:53:43	12:59:26	342096	5.0.10.0	4_exp_AWA_CON_AMP_EVA	145	Rpleas_acq	Same	Rpleas	Bmasked	CS_B	1pleas	distractor2	CONbeforeEVA	acq_US_pleas_masked	acq3_masked	3	4	453	1	300	300	0	0	403	50	0	1	0	0	0	1	blank2r.bmp	0	1	+	0	8	C4r.bmp	492	1	blank2r.bmp	786	1	BMVZ	786	1	blank2r.bmp	866	2	loyal	866	1	!	1292	1	!	1306	0	0	0	0	0	0	0	0	0	0	0	0	0	0	0	0	0	0	0	0	0	0	0	0	0	0	0
030619	12:53:43	12:59:28	344255	5.0.10.0	4_exp_AWA_CON_AMP_EVA	145	Rpleas_acq	Same	Rpleas	Bmasked	CS_B	1pleas	distractor2	CONbeforeEVA	acq_US_pleas_masked	acq3_masked	3	5	453	0	300	300	0	0	385	50	0	1	0	0	0	1	blank2r.bmp	0	1	+	0	2	B2r.bmp	492	1	blank2r.bmp	786	1	BMVZ	786	1	blank2r.bmp	866	3	schön	866	1	!	-1	1	!	-1	0	0	0	0	0	0	0	0	0	0	0	0	0	0	0	0	0	0	0	0	0	0	0	0	0	0	0
030619	12:53:43	12:59:31	346574	5.0.10.0	4_exp_AWA_CON_AMP_EVA	145	Rpleas_acq	Same	Rpleas	Bmasked	CS_B	1pleas	distractor2	CONbeforeEVA	acq_US_unple_masked	acq3_masked	3	6	453	0	300	300	0	0	537	46	0	1	0	0	0	1	blank2r.bmp	0	1	+	0	1	B1r.bmp	492	1	blank2r.bmp	786	1	GKQX	786	1	blank2r.bmp	866	5	hindern	866	1	!	1292	1	!	-1	0	0	0	0	0	0	0	0	0	0	0	0	0	0	0	0	0	0	0	0	0	0	0	0	0	0	0
030619	12:53:43	12:59:33	349093	5.0.10.0	4_exp_AWA_CON_AMP_EVA	145	Rpleas_acq	Same	Rpleas	Bmasked	CS_B	1pleas	distractor2	CONbeforeEVA	acq_US_pleas_masked	acq3_masked	3	7	453	1	300	300	0	0	502	46	0	0	0	0	0	1	blank2r.bmp	0	1	+	0	3	B3r.bmp	492	1	blank2r.bmp	786	1	BMVZ	786	1	blank2r.bmp	866	6	tolerant	866	1	FEHLER	1719	1	!	1292	1	!	1399	0	0	0	0	0	0	0	0	0	0	0	0	0	0	0	0	0	0	0	0	0	0	0	0
030619	12:53:43	12:59:35	351358	5.0.10.0	4_exp_AWA_CON_AMP_EVA	145	Rpleas_acq	Same	Rpleas	Bmasked	CS_B	1pleas	distractor2	CONbeforeEVA	acq_US_unple_masked	acq3_masked	3	8	453	1	300	300	0	0	473	50	0	0	0	0	0	1	blank2r.bmp	0	1	+	0	5	C1r.bmp	492	1	blank2r.bmp	786	1	GKQX	786	1	blank2r.bmp	866	2	lasch	866	1	FEHLER	1692	1	!	1292	1	!	1372	0	0	0	0	0	0	0	0	0	0	0	0	0	0	0	0	0	0	0	0	0	0	0	0
030619	12:53:43	12:59:37	353464	5.0.10.0	4_exp_AWA_CON_AMP_EVA	145	Rpleas_acq	Same	Rpleas	Bmasked	CS_B	1pleas	distractor2	CONbeforeEVA	acq_US_unple_masked	acq3_masked	3	9	453	0	300	300	0	0	532	46	0	1	0	0	0	1	blank2r.bmp	0	1	+	0	8	C4r.bmp	492	1	blank2r.bmp	786	1	GKQX	786	1	blank2r.bmp	866	3	schlecht	866	1	!	1292	1	!	-1	0	0	0	0	0	0	0	0	0	0	0	0	0	0	0	0	0	0	0	0	0	0	0	0	0	0	0
030619	12:53:43	12:59:40	355716	5.0.10.0	4_exp_AWA_CON_AMP_EVA	145	Rpleas_acq	Same	Rpleas	Bmasked	CS_B	1pleas	distractor2	CONbeforeEVA	acq_US_pleas_masked	acq3_masked	3	10	453	1	300	300	0	0	448	50	0	1	0	0	0	1	blank2r.bmp	0	1	+	0	2	B2r.bmp	492	1	blank2r.bmp	786	1	BMVZ	786	1	blank2r.bmp	866	1	freundlich	866	1	!	1292	1	!	1346	0	0	0	0	0	0	0	0	0	0	0	0	0	0	0	0	0	0	0	0	0	0	0	0	0	0	0
030619	12:53:43	12:59:42	357956	5.0.10.0	4_exp_AWA_CON_AMP_EVA	145	Rpleas_acq	Same	Rpleas	Bmasked	CS_B	1pleas	distractor2	CONbeforeEVA	acq_US_pleas_masked	acq3_masked	3	11	453	1	300	300	0	0	432	50	0	1	0	0	0	1	blank2r.bmp	0	1	+	0	4	B4r.bmp	492	1	blank2r.bmp	786	1	BMVZ	786	1	blank2r.bmp	866	4	fair	866	1	!	1292	1	!	1332	0	0	0	0	0	0	0	0	0	0	0	0	0	0	0	0	0	0	0	0	0	0	0	0	0	0	0
030619	12:53:43	12:59:44	360275	5.0.10.0	4_exp_AWA_CON_AMP_EVA	145	Rpleas_acq	Same	Rpleas	Bmasked	CS_B	1pleas	distractor2	CONbeforeEVA	acq_US_unple_masked	acq3_masked	3	12	453	1	300	300	0	0	519	46	0	1	0	0	0	1	blank2r.bmp	0	1	+	0	6	C2r.bmp	492	1	blank2r.bmp	786	1	GKQX	786	1	blank2r.bmp	866	1	fanatisch	866	1	!	1292	1	!	1426	0	0	0	0	0	0	0	0	0	0	0	0	0	0	0	0	0	0	0	0	0	0	0	0	0	0	0
030619	12:53:43	12:59:47	362514	5.0.10.0	4_exp_AWA_CON_AMP_EVA	145	Rpleas_acq	Same	Rpleas	Bmasked	CS_B	1pleas	distractor2	CONbeforeEVA	acq_US_unple_masked	acq3_masked	3	13	453	1	300	300	0	0	450	46	0	1	0	0	0	1	blank2r.bmp	0	1	+	0	5	C1r.bmp	492	1	blank2r.bmp	786	1	GKQX	786	1	blank2r.bmp	866	2	lasch	866	1	!	1292	1	!	1346	0	0	0	0	0	0	0	0	0	0	0	0	0	0	0	0	0	0	0	0	0	0	0	0	0	0	0
030619	12:53:43	12:59:49	364939	5.0.10.0	4_exp_AWA_CON_AMP_EVA	145	Rpleas_acq	Same	Rpleas	Bmasked	CS_B	1pleas	distractor2	CONbeforeEVA	acq_US_unple_masked	acq3_masked	3	14	453	1	300	300	0	0	418	50	0	0	0	0	0	1	blank2r.bmp	0	1	+	0	3	B3r.bmp	492	1	blank2r.bmp	786	1	GKQX	786	1	blank2r.bmp	866	4	faul	866	1	FEHLER	1639	1	!	1292	1	!	1319	0	0	0	0	0	0	0	0	0	0	0	0	0	0	0	0	0	0	0	0	0	0	0	0
030619	12:53:43	12:59:51	367032	5.0.10.0	4_exp_AWA_CON_AMP_EVA	145	Rpleas_acq	Same	Rpleas	Bmasked	CS_B	1pleas	distractor2	CONbeforeEVA	acq_US_pleas_masked	acq3_masked	3	15	453	0	300	300	0	0	544	50	0	1	0	0	0	1	blank2r.bmp	0	1	+	0	7	C3r.bmp	492	1	blank2r.bmp	786	1	BMVZ	786	1	blank2r.bmp	866	2	loyal	866	1	!	1292	1	!	-1	0	0	0	0	0	0	0	0	0	0	0	0	0	0	0	0	0	0	0	0	0	0	0	0	0	0	0
030619	12:53:43	12:59:53	369324	5.0.10.0	4_exp_AWA_CON_AMP_EVA	145	Rpleas_acq	Same	Rpleas	Bmasked	CS_B	1pleas	distractor2	CONbeforeEVA	acq_US_unple_masked	acq3_masked	3	16	453	1	300	300	0	0	488	46	0	1	0	0	0	1	blank2r.bmp	0	1	+	0	1	B1r.bmp	492	1	blank2r.bmp	786	1	GKQX	786	1	blank2r.bmp	866	5	hindern	866	1	!	1292	1	!	1386	0	0	0	0	0	0	0	0	0	0	0	0	0	0	0	0	0	0	0	0	0	0	0	0	0	0	0
030619	12:53:43	12:59:56	371550	5.0.10.0	4_exp_AWA_CON_AMP_EVA	145	Rpleas_acq	Same	Rpleas	Bmasked	CS_B	1pleas	distractor2	CONbeforeEVA	acq_US_pleas_masked	acq3_masked	3	17	453	1	300	300	0	0	431	50	0	1	0	0	0	1	blank2r.bmp	0	1	+	0	7	C3r.bmp	492	1	blank2r.bmp	786	1	BMVZ	786	1	blank2r.bmp	866	1	freundlich	866	1	!	1292	1	!	1332	0	0	0	0	0	0	0	0	0	0	0	0	0	0	0	0	0	0	0	0	0	0	0	0	0	0	0
030619	12:53:43	12:59:58	373829	5.0.10.0	4_exp_AWA_CON_AMP_EVA	145	Rpleas_acq	Same	Rpleas	Bmasked	CS_B	1pleas	distractor2	CONbeforeEVA	acq_US_unple_masked	acq3_masked	3	18	453	1	300	300	0	0	470	46	0	1	0	0	0	1	blank2r.bmp	0	1	+	0	2	B2r.bmp	492	1	blank2r.bmp	786	1	GKQX	786	1	blank2r.bmp	866	6	tyrannisch	866	1	!	1292	1	!	1372	0	0	0	0	0	0	0	0	0	0	0	0	0	0	0	0	0	0	0	0	0	0	0	0	0	0	0
030619	12:53:43	13:00:00	376041	5.0.10.0	4_exp_AWA_CON_AMP_EVA	145	Rpleas_acq	Same	Rpleas	Bmasked	CS_B	1pleas	distractor2	CONbeforeEVA	acq_US_pleas_masked	acq3_masked	3	19	453	1	300	300	0	0	399	50	0	1	0	0	0	1	blank2r.bmp	0	1	+	0	3	B3r.bmp	492	1	blank2r.bmp	786	1	BMVZ	786	1	blank2r.bmp	866	3	schön	866	1	!	1292	1	!	1306	0	0	0	0	0	0	0	0	0	0	0	0	0	0	0	0	0	0	0	0	0	0	0	0	0	0	0
030619	12:53:43	13:00:02	378240	5.0.10.0	4_exp_AWA_CON_AMP_EVA	145	Rpleas_acq	Same	Rpleas	Bmasked	CS_B	1pleas	distractor2	CONbeforeEVA	acq_US_unple_masked	acq3_masked	3	20	453	1	300	300	0	0	399	46	0	1	0	0	0	1	blank2r.bmp	0	1	+	0	4	B4r.bmp	492	1	blank2r.bmp	786	1	GKQX	786	1	blank2r.bmp	866	3	schlecht	866	1	!	1292	1	!	1306	0	0	0	0	0	0	0	0	0	0	0	0	0	0	0	0	0	0	0	0	0	0	0	0	0	0	0
030619	12:53:43	13:00:04	380439	5.0.10.0	4_exp_AWA_CON_AMP_EVA	145	Rpleas_acq	Same	Rpleas	Bmasked	CS_B	1pleas	distractor2	CONbeforeEVA	acq_US_pleas_masked	acq3_masked	3	21	453	1	300	300	0	0	402	50	0	1	0	0	0	1	blank2r.bmp	0	1	+	0	6	C2r.bmp	492	1	blank2r.bmp	786	1	BMVZ	786	1	blank2r.bmp	866	5	helfen	866	1	!	1292	1	!	1306	0	0	0	0	0	0	0	0	0	0	0	0	0	0	0	0	0	0	0	0	0	0	0	0	0	0	0
030619	12:53:43	13:00:07	382745	5.0.10.0	4_exp_AWA_CON_AMP_EVA	145	Rpleas_acq	Same	Rpleas	Bmasked	CS_B	1pleas	distractor2	CONbeforeEVA	acq_US_pleas_masked	acq3_masked	3	22	453	1	300	300	0	0	516	50	0	1	0	0	0	1	blank2r.bmp	0	1	+	0	5	C1r.bmp	492	1	blank2r.bmp	786	1	BMVZ	786	1	blank2r.bmp	866	4	fair	866	1	!	1292	1	!	1412	0	0	0	0	0	0	0	0	0	0	0	0	0	0	0	0	0	0	0	0	0	0	0	0	0	0	0
030619	12:53:43	13:00:09	385064	5.0.10.0	4_exp_AWA_CON_AMP_EVA	145	Rpleas_acq	Same	Rpleas	Bmasked	CS_B	1pleas	distractor2	CONbeforeEVA	acq_US_unple_masked	acq3_masked	3	23	453	1	300	300	0	0	520	46	0	1	0	0	0	1	blank2r.bmp	0	1	+	0	8	C4r.bmp	492	1	blank2r.bmp	786	1	GKQX	786	1	blank2r.bmp	866	1	fanatisch	866	1	!	1292	1	!	1426	0	0	0	0	0	0	0	0	0	0	0	0	0	0	0	0	0	0	0	0	0	0	0	0	0	0	0
030619	12:53:43	13:00:11	387370	5.0.10.0	4_exp_AWA_CON_AMP_EVA	145	Rpleas_acq	Same	Rpleas	Bmasked	CS_B	1pleas	distractor2	CONbeforeEVA	acq_US_pleas_masked	acq3_masked	3	24	453	0	300	300	0	0	532	50	0	1	0	0	0	1	blank2r.bmp	0	1	+	0	1	B1r.bmp	492	1	blank2r.bmp	786	1	BMVZ	786	1	blank2r.bmp	866	6	tolerant	866	1	!	1292	1	!	-1	0	0	0	0	0	0	0	0	0	0	0	0	0	0	0	0	0	0	0	0	0	0	0	0	0	0	0
030619	12:53:43	13:00:14	389636	5.0.10.0	4_exp_AWA_CON_AMP_EVA	145	Rpleas_acq	Same	Rpleas	Bmasked	CS_B	1pleas	distractor2	CONbeforeEVA	acq_US_unple_masked	acq3_masked	3	25	453	1	300	300	0	0	447	46	0	1	0	0	0	1	blank2r.bmp	0	1	+	0	5	C1r.bmp	492	1	blank2r.bmp	786	1	GKQX	786	1	blank2r.bmp	866	5	hindern	866	1	!	1292	1	!	1346	0	0	0	0	0	0	0	0	0	0	0	0	0	0	0	0	0	0	0	0	0	0	0	0	0	0	0
030619	12:53:43	13:00:16	392048	5.0.10.0	4_exp_AWA_CON_AMP_EVA	145	Rpleas_acq	Same	Rpleas	Bmasked	CS_B	1pleas	distractor2	CONbeforeEVA	acq_US_pleas_masked	acq3_masked	3	26	453	1	300	300	0	0	407	46	0	0	0	0	0	1	blank2r.bmp	0	1	+	0	6	C2r.bmp	492	1	blank2r.bmp	786	1	BMVZ	786	1	blank2r.bmp	866	1	freundlich	866	1	FEHLER	1625	1	!	1292	1	!	1306	0	0	0	0	0	0	0	0	0	0	0	0	0	0	0	0	0	0	0	0	0	0	0	0
030619	12:53:43	13:00:18	394034	5.0.10.0	4_exp_AWA_CON_AMP_EVA	145	Rpleas_acq	Same	Rpleas	Bmasked	CS_B	1pleas	distractor2	CONbeforeEVA	acq_US_unple_masked	acq3_masked	3	27	453	1	300	300	0	0	411	46	0	1	0	0	0	1	blank2r.bmp	0	1	+	0	8	C4r.bmp	492	1	blank2r.bmp	786	1	GKQX	786	1	blank2r.bmp	866	3	schlecht	866	1	!	1292	1	!	1306	0	0	0	0	0	0	0	0	0	0	0	0	0	0	0	0	0	0	0	0	0	0	0	0	0	0	0
030619	12:53:43	13:00:20	396459	5.0.10.0	4_exp_AWA_CON_AMP_EVA	145	Rpleas_acq	Same	Rpleas	Bmasked	CS_B	1pleas	distractor2	CONbeforeEVA	acq_US_unple_masked	acq3_masked	3	28	453	1	300	300	0	0	419	50	0	0	0	0	0	1	blank2r.bmp	0	1	+	0	3	B3r.bmp	492	1	blank2r.bmp	786	1	GKQX	786	1	blank2r.bmp	866	1	fanatisch	866	1	FEHLER	1639	1	!	1292	1	!	1319	0	0	0	0	0	0	0	0	0	0	0	0	0	0	0	0	0	0	0	0	0	0	0	0
030619	12:53:43	13:00:22	398459	5.0.10.0	4_exp_AWA_CON_AMP_EVA	145	Rpleas_acq	Same	Rpleas	Bmasked	CS_B	1pleas	distractor2	CONbeforeEVA	acq_US_unple_masked	acq3_masked	3	29	453	1	300	300	0	0	399	46	0	1	0	0	0	1	blank2r.bmp	0	1	+	0	2	B2r.bmp	492	1	blank2r.bmp	786	1	GKQX	786	1	blank2r.bmp	866	4	faul	866	1	!	1292	1	!	1306	0	0	0	0	0	0	0	0	0	0	0	0	0	0	0	0	0	0	0	0	0	0	0	0	0	0	0
030619	12:53:43	13:00:25	400604	5.0.10.0	4_exp_AWA_CON_AMP_EVA	145	Rpleas_acq	Same	Rpleas	Bmasked	CS_B	1pleas	distractor2	CONbeforeEVA	acq_US_pleas_masked	acq3_masked	3	30	453	0	300	300	0	0	384	50	0	1	0	0	0	1	blank2r.bmp	0	1	+	0	7	C3r.bmp	492	1	blank2r.bmp	786	1	BMVZ	786	1	blank2r.bmp	866	6	tolerant	866	1	!	-1	1	!	-1	0	0	0	0	0	0	0	0	0	0	0	0	0	0	0	0	0	0	0	0	0	0	0	0	0	0	0
030619	12:53:43	13:00:27	403030	5.0.10.0	4_exp_AWA_CON_AMP_EVA	145	Rpleas_acq	Same	Rpleas	Bmasked	CS_B	1pleas	distractor2	CONbeforeEVA	acq_US_pleas_masked	acq3_masked	3	31	453	1	300	300	0	0	408	46	0	0	0	0	0	1	blank2r.bmp	0	1	+	0	4	B4r.bmp	492	1	blank2r.bmp	786	1	BMVZ	786	1	blank2r.bmp	866	3	schön	866	1	FEHLER	1625	1	!	1292	1	!	1306	0	0	0	0	0	0	0	0	0	0	0	0	0	0	0	0	0	0	0	0	0	0	0	0
030619	12:53:43	13:00:29	405122	5.0.10.0	4_exp_AWA_CON_AMP_EVA	145	Rpleas_acq	Same	Rpleas	Bmasked	CS_B	1pleas	distractor2	CONbeforeEVA	acq_US_pleas_masked	acq3_masked	3	32	453	0	300	300	0	0	536	50	0	1	0	0	0	1	blank2r.bmp	0	1	+	0	1	B1r.bmp	492	1	blank2r.bmp	786	1	BMVZ	786	1	blank2r.bmp	866	4	fair	866	1	!	1292	1	!	-1	0	0	0	0	0	0	0	0	0	0	0	0	0	0	0	0	0	0	0	0	0	0	0	0	0	0	0
030619	12:53:43	13:00:31	407361	5.0.10.0	4_exp_AWA_CON_AMP_EVA	145	Rpleas_acq	Same	Rpleas	Bmasked	CS_B	1pleas	distractor2	CONbeforeEVA	acq_US_pleas_masked	acq3_masked	3	33	453	1	300	300	0	0	432	50	0	1	0	0	0	1	blank2r.bmp	0	1	+	0	7	C3r.bmp	492	1	blank2r.bmp	786	1	BMVZ	786	1	blank2r.bmp	866	2	loyal	866	1	!	1292	1	!	1332	0	0	0	0	0	0	0	0	0	0	0	0	0	0	0	0	0	0	0	0	0	0	0	0	0	0	0
030619	12:53:43	13:00:34	409667	5.0.10.0	4_exp_AWA_CON_AMP_EVA	145	Rpleas_acq	Same	Rpleas	Bmasked	CS_B	1pleas	distractor2	CONbeforeEVA	acq_US_unple_masked	acq3_masked	3	34	453	0	300	300	0	0	306	50	0	0	0	0	0	1	blank2r.bmp	0	1	+	0	4	B4r.bmp	492	1	blank2r.bmp	786	1	GKQX	786	1	blank2r.bmp	866	6	tyrannisch	866	1	FEHLER	1519	1	!	-1	1	!	-1	0	0	0	0	0	0	0	0	0	0	0	0	0	0	0	0	0	0	0	0	0	0	0	0
030619	12:53:43	13:00:36	411653	5.0.10.0	4_exp_AWA_CON_AMP_EVA	145	Rpleas_acq	Same	Rpleas	Bmasked	CS_B	1pleas	distractor2	CONbeforeEVA	acq_US_unple_masked	acq3_masked	3	35	453	1	300	300	0	0	403	46	0	1	0	0	0	1	blank2r.bmp	0	1	+	0	8	C4r.bmp	492	1	blank2r.bmp	786	1	GKQX	786	1	blank2r.bmp	866	2	lasch	866	1	!	1292	1	!	1306	0	0	0	0	0	0	0	0	0	0	0	0	0	0	0	0	0	0	0	0	0	0	0	0	0	0	0
030619	12:53:43	13:00:38	413892	5.0.10.0	4_exp_AWA_CON_AMP_EVA	145	Rpleas_acq	Same	Rpleas	Bmasked	CS_B	1pleas	distractor2	CONbeforeEVA	acq_US_pleas_masked	acq3_masked	3	36	453	1	300	300	0	0	443	50	0	1	0	0	0	1	blank2r.bmp	0	1	+	0	2	B2r.bmp	492	1	blank2r.bmp	786	1	BMVZ	786	1	blank2r.bmp	866	5	helfen	866	1	!	1292	1	!	1346	0	0	0	0	0	0	0	0	0	0	0	0	0	0	0	0	0	0	0	0	0	0	0	0	0	0	0
030619	12:53:43	13:00:53	429286	5.0.10.0	4_exp_AWA_CON_AMP_EVA	145	Rpleas_acq	Same	Rpleas	Bmasked	CS_B	1pleas	distractor2	CONbeforeEVA	acq_US_pleas_masked	acq45_masked	4	1	400	1	300	300	0	0	369	50	0	1	0	0	0	1	blank2r.bmp	0	1	+	0	1	B1r.bmp	492	1	blank2r.bmp	786	1	BMVZ	786	1	blank2r.bmp	866	3	schön	866	1	!	1239	1	!	1266	0	0	0	0	0	0	0	0	0	0	0	0	0	0	0	0	0	0	0	0	0	0	0	0	0	0	0
030619	12:53:43	13:00:56	431511	5.0.10.0	4_exp_AWA_CON_AMP_EVA	145	Rpleas_acq	Same	Rpleas	Bmasked	CS_B	1pleas	distractor2	CONbeforeEVA	acq_US_pleas_masked	acq45_masked	4	2	400	1	300	300	0	0	418	50	0	1	0	0	0	1	blank2r.bmp	0	1	+	0	6	C2r.bmp	492	1	blank2r.bmp	786	1	BMVZ	786	1	blank2r.bmp	866	4	fair	866	1	!	1239	1	!	1319	0	0	0	0	0	0	0	0	0	0	0	0	0	0	0	0	0	0	0	0	0	0	0	0	0	0	0
030619	12:53:43	13:00:58	433764	5.0.10.0	4_exp_AWA_CON_AMP_EVA	145	Rpleas_acq	Same	Rpleas	Bmasked	CS_B	1pleas	distractor2	CONbeforeEVA	acq_US_unple_masked	acq45_masked	4	3	400	0	300	300	0	0	479	46	0	1	0	0	0	1	blank2r.bmp	0	1	+	0	5	C1r.bmp	492	1	blank2r.bmp	786	1	GKQX	786	1	blank2r.bmp	866	5	hindern	866	1	!	1239	1	!	-1	0	0	0	0	0	0	0	0	0	0	0	0	0	0	0	0	0	0	0	0	0	0	0	0	0	0	0
030619	12:53:43	13:01:00	436096	5.0.10.0	4_exp_AWA_CON_AMP_EVA	145	Rpleas_acq	Same	Rpleas	Bmasked	CS_B	1pleas	distractor2	CONbeforeEVA	acq_US_unple_masked	acq45_masked	4	4	400	0	300	300	0	0	547	50	0	0	0	0	0	1	blank2r.bmp	0	1	+	0	3	B3r.bmp	492	1	blank2r.bmp	786	1	GKQX	786	1	blank2r.bmp	866	1	fanatisch	866	1	!	1239	1	!	-1	0	0	0	0	0	0	0	0	0	0	0	0	0	0	0	0	0	0	0	0	0	0	0	0	0	0	0
030619	12:53:43	13:01:02	438362	5.0.10.0	4_exp_AWA_CON_AMP_EVA	145	Rpleas_acq	Same	Rpleas	Bmasked	CS_B	1pleas	distractor2	CONbeforeEVA	acq_US_pleas_masked	acq45_masked	4	5	400	0	300	300	0	0	479	50	0	1	0	0	0	1	blank2r.bmp	0	1	+	0	3	B3r.bmp	492	1	blank2r.bmp	786	1	BMVZ	786	1	blank2r.bmp	866	1	freundlich	866	1	!	1239	1	!	-1	0	0	0	0	0	0	0	0	0	0	0	0	0	0	0	0	0	0	0	0	0	0	0	0	0	0	0
030619	12:53:43	13:01:05	440521	5.0.10.0	4_exp_AWA_CON_AMP_EVA	145	Rpleas_acq	Same	Rpleas	Bmasked	CS_B	1pleas	distractor2	CONbeforeEVA	acq_US_unple_masked	acq45_masked	4	6	400	1	300	300	0	0	353	50	0	0	0	0	0	1	blank2r.bmp	0	1	+	0	2	B2r.bmp	492	1	blank2r.bmp	786	1	GKQX	786	1	blank2r.bmp	866	3	schlecht	866	1	!	1239	1	!	1252	0	0	0	0	0	0	0	0	0	0	0	0	0	0	0	0	0	0	0	0	0	0	0	0	0	0	0
030619	12:53:43	13:01:07	442760	5.0.10.0	4_exp_AWA_CON_AMP_EVA	145	Rpleas_acq	Same	Rpleas	Bmasked	CS_B	1pleas	distractor2	CONbeforeEVA	acq_US_pleas_masked	acq45_masked	4	7	400	1	300	300	0	0	445	46	0	0	0	0	0	1	blank2r.bmp	0	1	+	0	6	C2r.bmp	492	1	blank2r.bmp	786	1	BMVZ	786	1	blank2r.bmp	866	6	tolerant	866	1	!	1239	1	!	1346	0	0	0	0	0	0	0	0	0	0	0	0	0	0	0	0	0	0	0	0	0	0	0	0	0	0	0
030619	12:53:43	13:01:09	444919	5.0.10.0	4_exp_AWA_CON_AMP_EVA	145	Rpleas_acq	Same	Rpleas	Bmasked	CS_B	1pleas	distractor2	CONbeforeEVA	acq_US_unple_masked	acq45_masked	4	8	400	1	300	300	0	0	371	46	0	1	0	0	0	1	blank2r.bmp	0	1	+	0	8	C4r.bmp	492	1	blank2r.bmp	786	1	GKQX	786	1	blank2r.bmp	866	6	tyrannisch	866	1	!	1239	1	!	1266	0	0	0	0	0	0	0	0	0	0	0	0	0	0	0	0	0	0	0	0	0	0	0	0	0	0	0
030619	12:53:43	13:01:11	446998	5.0.10.0	4_exp_AWA_CON_AMP_EVA	145	Rpleas_acq	Same	Rpleas	Bmasked	CS_B	1pleas	distractor2	CONbeforeEVA	acq_US_pleas_masked	acq45_masked	4	9	400	0	300	300	0	0	312	50	0	1	0	0	0	1	blank2r.bmp	0	1	+	0	7	C3r.bmp	492	1	blank2r.bmp	786	1	BMVZ	786	1	blank2r.bmp	866	2	loyal	866	1	!	-1	1	!	-1	0	0	0	0	0	0	0	0	0	0	0	0	0	0	0	0	0	0	0	0	0	0	0	0	0	0	0
030619	12:53:43	13:01:13	449264	5.0.10.0	4_exp_AWA_CON_AMP_EVA	145	Rpleas_acq	Same	Rpleas	Bmasked	CS_B	1pleas	distractor2	CONbeforeEVA	acq_US_unple_masked	acq45_masked	4	10	400	0	300	300	0	0	479	46	0	1	0	0	0	1	blank2r.bmp	0	1	+	0	4	B4r.bmp	492	1	blank2r.bmp	786	1	GKQX	786	1	blank2r.bmp	866	4	faul	866	1	!	1239	1	!	-1	0	0	0	0	0	0	0	0	0	0	0	0	0	0	0	0	0	0	0	0	0	0	0	0	0	0	0
030619	12:53:43	13:01:15	451370	5.0.10.0	4_exp_AWA_CON_AMP_EVA	145	Rpleas_acq	Same	Rpleas	Bmasked	CS_B	1pleas	distractor2	CONbeforeEVA	acq_US_unple_masked	acq45_masked	4	11	400	0	300	300	0	0	328	46	0	1	0	0	0	1	blank2r.bmp	0	1	+	0	5	C1r.bmp	492	1	blank2r.bmp	786	1	GKQX	786	1	blank2r.bmp	866	2	lasch	866	1	!	-1	1	!	-1	0	0	0	0	0	0	0	0	0	0	0	0	0	0	0	0	0	0	0	0	0	0	0	0	0	0	0
030619	12:53:43	13:01:18	453635	5.0.10.0	4_exp_AWA_CON_AMP_EVA	145	Rpleas_acq	Same	Rpleas	Bmasked	CS_B	1pleas	distractor2	CONbeforeEVA	acq_US_pleas_masked	acq45_masked	4	12	400	0	300	300	0	0	479	50	0	1	0	0	0	1	blank2r.bmp	0	1	+	0	1	B1r.bmp	492	1	blank2r.bmp	786	1	BMVZ	786	1	blank2r.bmp	866	5	helfen	866	1	!	1239	1	!	-1	0	0	0	0	0	0	0	0	0	0	0	0	0	0	0	0	0	0	0	0	0	0	0	0	0	0	0
030619	12:53:43	13:01:20	455888	5.0.10.0	4_exp_AWA_CON_AMP_EVA	145	Rpleas_acq	Same	Rpleas	Bmasked	CS_B	1pleas	distractor2	CONbeforeEVA	acq_US_pleas_masked	acq45_masked	4	13	400	1	300	300	0	0	439	50	0	1	0	0	0	1	blank2r.bmp	0	1	+	0	7	C3r.bmp	492	1	blank2r.bmp	786	1	BMVZ	786	1	blank2r.bmp	866	5	helfen	866	1	!	1239	1	!	1346	0	0	0	0	0	0	0	0	0	0	0	0	0	0	0	0	0	0	0	0	0	0	0	0	0	0	0
030619	12:53:43	13:01:22	458140	5.0.10.0	4_exp_AWA_CON_AMP_EVA	145	Rpleas_acq	Same	Rpleas	Bmasked	CS_B	1pleas	distractor2	CONbeforeEVA	acq_US_unple_masked	acq45_masked	4	14	400	0	300	300	0	0	486	50	0	0	0	0	0	1	blank2r.bmp	0	1	+	0	4	B4r.bmp	492	1	blank2r.bmp	786	1	GKQX	786	1	blank2r.bmp	866	1	fanatisch	866	1	!	1239	1	!	-1	0	0	0	0	0	0	0	0	0	0	0	0	0	0	0	0	0	0	0	0	0	0	0	0	0	0	0
030619	12:53:43	13:01:24	460299	5.0.10.0	4_exp_AWA_CON_AMP_EVA	145	Rpleas_acq	Same	Rpleas	Bmasked	CS_B	1pleas	distractor2	CONbeforeEVA	acq_US_unple_masked	acq45_masked	4	15	400	1	300	300	0	0	346	46	0	1	0	0	0	1	blank2r.bmp	0	1	+	0	2	B2r.bmp	492	1	blank2r.bmp	786	1	GKQX	786	1	blank2r.bmp	866	4	faul	866	1	!	1239	1	!	1252	0	0	0	0	0	0	0	0	0	0	0	0	0	0	0	0	0	0	0	0	0	0	0	0	0	0	0
030619	12:53:43	13:01:27	462565	5.0.10.0	4_exp_AWA_CON_AMP_EVA	145	Rpleas_acq	Same	Rpleas	Bmasked	CS_B	1pleas	distractor2	CONbeforeEVA	acq_US_unple_masked	acq45_masked	4	16	400	1	300	300	0	0	452	46	0	1	0	0	0	1	blank2r.bmp	0	1	+	0	8	C4r.bmp	492	1	blank2r.bmp	786	1	GKQX	786	1	blank2r.bmp	866	5	hindern	866	1	!	1239	1	!	1359	0	0	0	0	0	0	0	0	0	0	0	0	0	0	0	0	0	0	0	0	0	0	0	0	0	0	0
030619	12:53:43	13:01:29	464804	5.0.10.0	4_exp_AWA_CON_AMP_EVA	145	Rpleas_acq	Same	Rpleas	Bmasked	CS_B	1pleas	distractor2	CONbeforeEVA	acq_US_pleas_masked	acq45_masked	4	17	400	1	300	300	0	0	442	50	0	1	0	0	0	1	blank2r.bmp	0	1	+	0	1	B1r.bmp	492	1	blank2r.bmp	786	1	BMVZ	786	1	blank2r.bmp	866	2	loyal	866	1	!	1239	1	!	1346	0	0	0	0	0	0	0	0	0	0	0	0	0	0	0	0	0	0	0	0	0	0	0	0	0	0	0
030619	12:53:43	13:01:31	467003	5.0.10.0	4_exp_AWA_CON_AMP_EVA	145	Rpleas_acq	Same	Rpleas	Bmasked	CS_B	1pleas	distractor2	CONbeforeEVA	acq_US_pleas_masked	acq45_masked	4	18	400	1	300	300	0	0	402	50	0	1	0	0	0	1	blank2r.bmp	0	1	+	0	5	C1r.bmp	492	1	blank2r.bmp	786	1	BMVZ	786	1	blank2r.bmp	866	6	tolerant	866	1	!	1239	1	!	1306	0	0	0	0	0	0	0	0	0	0	0	0	0	0	0	0	0	0	0	0	0	0	0	0	0	0	0
030619	12:53:43	13:01:33	469242	5.0.10.0	4_exp_AWA_CON_AMP_EVA	145	Rpleas_acq	Same	Rpleas	Bmasked	CS_B	1pleas	distractor2	CONbeforeEVA	acq_US_unple_masked	acq45_masked	4	19	400	1	300	300	0	0	442	46	0	1	0	0	0	1	blank2r.bmp	0	1	+	0	3	B3r.bmp	492	1	blank2r.bmp	786	1	GKQX	786	1	blank2r.bmp	866	6	tyrannisch	866	1	!	1239	1	!	1346	0	0	0	0	0	0	0	0	0	0	0	0	0	0	0	0	0	0	0	0	0	0	0	0	0	0	0
030619	12:53:43	13:01:35	471415	5.0.10.0	4_exp_AWA_CON_AMP_EVA	145	Rpleas_acq	Same	Rpleas	Bmasked	CS_B	1pleas	distractor2	CONbeforeEVA	acq_US_pleas_masked	acq45_masked	4	20	400	1	300	300	0	0	381	50	0	1	0	0	0	1	blank2r.bmp	0	1	+	0	6	C2r.bmp	492	1	blank2r.bmp	786	1	BMVZ	786	1	blank2r.bmp	866	4	fair	866	1	!	1239	1	!	1279	0	0	0	0	0	0	0	0	0	0	0	0	0	0	0	0	0	0	0	0	0	0	0	0	0	0	0
030619	12:53:43	13:01:38	473494	5.0.10.0	4_exp_AWA_CON_AMP_EVA	145	Rpleas_acq	Same	Rpleas	Bmasked	CS_B	1pleas	distractor2	CONbeforeEVA	acq_US_pleas_masked	acq45_masked	4	21	400	0	300	300	0	0	307	50	0	1	0	0	0	1	blank2r.bmp	0	1	+	0	3	B3r.bmp	492	1	blank2r.bmp	786	1	BMVZ	786	1	blank2r.bmp	866	3	schön	866	1	!	-1	1	!	-1	0	0	0	0	0	0	0	0	0	0	0	0	0	0	0	0	0	0	0	0	0	0	0	0	0	0	0
030619	12:53:43	13:01:40	475759	5.0.10.0	4_exp_AWA_CON_AMP_EVA	145	Rpleas_acq	Same	Rpleas	Bmasked	CS_B	1pleas	distractor2	CONbeforeEVA	acq_US_unple_masked	acq45_masked	4	22	400	1	300	300	0	0	457	46	0	1	0	0	0	1	blank2r.bmp	0	1	+	0	2	B2r.bmp	492	1	blank2r.bmp	786	1	GKQX	786	1	blank2r.bmp	866	3	schlecht	866	1	!	1239	1	!	1359	0	0	0	0	0	0	0	0	0	0	0	0	0	0	0	0	0	0	0	0	0	0	0	0	0	0	0
030619	12:53:43	13:01:42	477932	5.0.10.0	4_exp_AWA_CON_AMP_EVA	145	Rpleas_acq	Same	Rpleas	Bmasked	CS_B	1pleas	distractor2	CONbeforeEVA	acq_US_pleas_masked	acq45_masked	4	23	400	1	300	300	0	0	372	50	0	1	0	0	0	1	blank2r.bmp	0	1	+	0	5	C1r.bmp	492	1	blank2r.bmp	786	1	BMVZ	786	1	blank2r.bmp	866	1	freundlich	866	1	!	1239	1	!	1279	0	0	0	0	0	0	0	0	0	0	0	0	0	0	0	0	0	0	0	0	0	0	0	0	0	0	0
030619	12:53:43	13:01:44	480131	5.0.10.0	4_exp_AWA_CON_AMP_EVA	145	Rpleas_acq	Same	Rpleas	Bmasked	CS_B	1pleas	distractor2	CONbeforeEVA	acq_US_pleas_masked	acq45_masked	4	24	400	1	300	300	0	0	410	50	0	1	0	0	0	1	blank2r.bmp	0	1	+	0	1	B1r.bmp	492	1	blank2r.bmp	786	1	BMVZ	786	1	blank2r.bmp	866	5	helfen	866	1	!	1239	1	!	1306	0	0	0	0	0	0	0	0	0	0	0	0	0	0	0	0	0	0	0	0	0	0	0	0	0	0	0
030619	12:53:43	13:01:46	482343	5.0.10.0	4_exp_AWA_CON_AMP_EVA	145	Rpleas_acq	Same	Rpleas	Bmasked	CS_B	1pleas	distractor2	CONbeforeEVA	acq_US_pleas_masked	acq45_masked	4	25	400	1	300	300	0	0	423	46	0	0	0	0	0	1	blank2r.bmp	0	1	+	0	4	B4r.bmp	492	1	blank2r.bmp	786	1	BMVZ	786	1	blank2r.bmp	866	6	tolerant	866	1	!	1239	1	!	1319	0	0	0	0	0	0	0	0	0	0	0	0	0	0	0	0	0	0	0	0	0	0	0	0	0	0	0
030619	12:53:43	13:01:49	484542	5.0.10.0	4_exp_AWA_CON_AMP_EVA	145	Rpleas_acq	Same	Rpleas	Bmasked	CS_B	1pleas	distractor2	CONbeforeEVA	acq_US_unple_masked	acq45_masked	4	26	400	1	300	300	0	0	400	46	0	1	0	0	0	1	blank2r.bmp	0	1	+	0	8	C4r.bmp	492	1	blank2r.bmp	786	1	GKQX	786	1	blank2r.bmp	866	2	lasch	866	1	!	1239	1	!	1306	0	0	0	0	0	0	0	0	0	0	0	0	0	0	0	0	0	0	0	0	0	0	0	0	0	0	0
030619	12:53:43	13:01:51	486741	5.0.10.0	4_exp_AWA_CON_AMP_EVA	145	Rpleas_acq	Same	Rpleas	Bmasked	CS_B	1pleas	distractor2	CONbeforeEVA	acq_US_unple_masked	acq45_masked	4	27	400	1	300	300	0	0	401	50	0	0	0	0	0	1	blank2r.bmp	0	1	+	0	6	C2r.bmp	492	1	blank2r.bmp	786	1	GKQX	786	1	blank2r.bmp	866	3	schlecht	866	1	!	1239	1	!	1306	0	0	0	0	0	0	0	0	0	0	0	0	0	0	0	0	0	0	0	0	0	0	0	0	0	0	0
030619	12:53:43	13:01:53	488901	5.0.10.0	4_exp_AWA_CON_AMP_EVA	145	Rpleas_acq	Same	Rpleas	Bmasked	CS_B	1pleas	distractor2	CONbeforeEVA	acq_US_unple_masked	acq45_masked	4	28	400	1	300	300	0	0	352	46	0	1	0	0	0	1	blank2r.bmp	0	1	+	0	7	C3r.bmp	492	1	blank2r.bmp	786	1	GKQX	786	1	blank2r.bmp	866	2	lasch	866	1	!	1239	1	!	1252	0	0	0	0	0	0	0	0	0	0	0	0	0	0	0	0	0	0	0	0	0	0	0	0	0	0	0
030619	12:53:43	13:01:55	491060	5.0.10.0	4_exp_AWA_CON_AMP_EVA	145	Rpleas_acq	Same	Rpleas	Bmasked	CS_B	1pleas	distractor2	CONbeforeEVA	acq_US_pleas_masked	acq45_masked	4	29	400	1	300	300	0	0	368	50	0	1	0	0	0	1	blank2r.bmp	0	1	+	0	5	C1r.bmp	492	1	blank2r.bmp	786	1	BMVZ	786	1	blank2r.bmp	866	2	loyal	866	1	!	1239	1	!	1266	0	0	0	0	0	0	0	0	0	0	0	0	0	0	0	0	0	0	0	0	0	0	0	0	0	0	0
030619	12:53:43	13:01:57	493299	5.0.10.0	4_exp_AWA_CON_AMP_EVA	145	Rpleas_acq	Same	Rpleas	Bmasked	CS_B	1pleas	distractor2	CONbeforeEVA	acq_US_unple_masked	acq45_masked	4	30	400	1	300	300	0	0	440	50	0	0	0	0	0	1	blank2r.bmp	0	1	+	0	7	C3r.bmp	492	1	blank2r.bmp	786	1	GKQX	786	1	blank2r.bmp	866	1	fanatisch	866	1	!	1239	1	!	1346	0	0	0	0	0	0	0	0	0	0	0	0	0	0	0	0	0	0	0	0	0	0	0	0	0	0	0
030619	12:53:43	13:01:59	495444	5.0.10.0	4_exp_AWA_CON_AMP_EVA	145	Rpleas_acq	Same	Rpleas	Bmasked	CS_B	1pleas	distractor2	CONbeforeEVA	acq_US_pleas_masked	acq45_masked	4	31	400	1	300	300	0	0	353	46	0	0	0	0	0	1	blank2r.bmp	0	1	+	0	3	B3r.bmp	492	1	blank2r.bmp	786	1	BMVZ	786	1	blank2r.bmp	866	1	freundlich	866	1	!	1239	1	!	1252	0	0	0	0	0	0	0	0	0	0	0	0	0	0	0	0	0	0	0	0	0	0	0	0	0	0	0
030619	12:53:43	13:02:08	503814	5.0.10.0	4_exp_AWA_CON_AMP_EVA	145	Rpleas_acq	Same	Rpleas	Bmasked	CS_B	1pleas	distractor2	CONbeforeEVA	acq_US_unple_masked	acq45_masked	4	32	400	0	300	300	0	0	6592	50	0	0	0	0	0	1	blank2r.bmp	0	1	+	0	4	B4r.bmp	492	1	blank2r.bmp	786	1	GKQX	786	1	blank2r.bmp	866	4	faul	866	1	!	1239	1	!	-1	0	0	0	0	0	0	0	0	0	0	0	0	0	0	0	0	0	0	0	0	0	0	0	0	0	0	0
030619	12:53:43	13:02:13	509265	5.0.10.0	4_exp_AWA_CON_AMP_EVA	145	Rpleas_acq	Same	Rpleas	Bmasked	CS_B	1pleas	distractor2	CONbeforeEVA	acq_US_pleas_masked	acq45_masked	4	33	400	0	300	300	0	0	3663	50	0	1	0	0	0	1	blank2r.bmp	0	1	+	0	6	C2r.bmp	492	1	blank2r.bmp	786	1	BMVZ	786	1	blank2r.bmp	866	4	fair	866	1	!	1239	1	!	-1	0	0	0	0	0	0	0	0	0	0	0	0	0	0	0	0	0	0	0	0	0	0	0	0	0	0	0
030619	12:53:43	13:02:16	511531	5.0.10.0	4_exp_AWA_CON_AMP_EVA	145	Rpleas_acq	Same	Rpleas	Bmasked	CS_B	1pleas	distractor2	CONbeforeEVA	acq_US_unple_masked	acq45_masked	4	34	400	0	300	300	0	0	479	46	0	1	0	0	0	1	blank2r.bmp	0	1	+	0	8	C4r.bmp	492	1	blank2r.bmp	786	1	GKQX	786	1	blank2r.bmp	866	6	tyrannisch	866	1	!	1239	1	!	-1	0	0	0	0	0	0	0	0	0	0	0	0	0	0	0	0	0	0	0	0	0	0	0	0	0	0	0
030619	12:53:43	13:02:18	513597	5.0.10.0	4_exp_AWA_CON_AMP_EVA	145	Rpleas_acq	Same	Rpleas	Bmasked	CS_B	1pleas	distractor2	CONbeforeEVA	acq_US_unple_masked	acq45_masked	4	35	400	0	300	300	0	0	275	46	0	1	0	0	0	1	blank2r.bmp	0	1	+	0	2	B2r.bmp	492	1	blank2r.bmp	786	1	GKQX	786	1	blank2r.bmp	866	5	hindern	866	1	!	-1	1	!	-1	0	0	0	0	0	0	0	0	0	0	0	0	0	0	0	0	0	0	0	0	0	0	0	0	0	0	0
030619	12:53:43	13:02:20	515676	5.0.10.0	4_exp_AWA_CON_AMP_EVA	145	Rpleas_acq	Same	Rpleas	Bmasked	CS_B	1pleas	distractor2	CONbeforeEVA	acq_US_pleas_masked	acq45_masked	4	36	400	0	300	300	0	0	300	50	0	1	0	0	0	1	blank2r.bmp	0	1	+	0	1	B1r.bmp	492	1	blank2r.bmp	786	1	BMVZ	786	1	blank2r.bmp	866	3	schön	866	1	!	-1	1	!	-1	0	0	0	0	0	0	0	0	0	0	0	0	0	0	0	0	0	0	0	0	0	0	0	0	0	0	0
030619	12:53:43	13:02:32	528457	5.0.10.0	4_exp_AWA_CON_AMP_EVA	145	Rpleas_acq	Same	Rpleas	Bmasked	CS_B	1pleas	distractor2	CONbeforeEVA	acq_US_pleas_masked	acq45_masked	5	1	400	1	300	300	0	0	452	46	0	0	0	0	0	1	blank2r.bmp	0	1	+	0	2	B2r.bmp	492	1	blank2r.bmp	786	1	BMVZ	786	1	blank2r.bmp	866	6	tolerant	866	1	!	1239	1	!	1359	0	0	0	0	0	0	0	0	0	0	0	0	0	0	0	0	0	0	0	0	0	0	0	0	0	0	0
030619	12:53:43	13:02:35	530736	5.0.10.0	4_exp_AWA_CON_AMP_EVA	145	Rpleas_acq	Same	Rpleas	Bmasked	CS_B	1pleas	distractor2	CONbeforeEVA	acq_US_pleas_masked	acq45_masked	5	2	400	0	300	300	0	0	516	50	0	1	0	0	0	1	blank2r.bmp	0	1	+	0	7	C3r.bmp	492	1	blank2r.bmp	786	1	BMVZ	786	1	blank2r.bmp	866	2	loyal	866	1	!	1239	1	!	-1	0	0	0	0	0	0	0	0	0	0	0	0	0	0	0	0	0	0	0	0	0	0	0	0	0	0	0
030619	12:53:43	13:02:37	532989	5.0.10.0	4_exp_AWA_CON_AMP_EVA	145	Rpleas_acq	Same	Rpleas	Bmasked	CS_B	1pleas	distractor2	CONbeforeEVA	acq_US_unple_masked	acq45_masked	5	3	400	1	300	300	0	0	443	46	0	1	0	0	0	1	blank2r.bmp	0	1	+	0	5	C1r.bmp	492	1	blank2r.bmp	786	1	GKQX	786	1	blank2r.bmp	866	3	schlecht	866	1	!	1239	1	!	1346	0	0	0	0	0	0	0	0	0	0	0	0	0	0	0	0	0	0	0	0	0	0	0	0	0	0	0
030619	12:53:43	13:02:39	535228	5.0.10.0	4_exp_AWA_CON_AMP_EVA	145	Rpleas_acq	Same	Rpleas	Bmasked	CS_B	1pleas	distractor2	CONbeforeEVA	acq_US_unple_masked	acq45_masked	5	4	400	1	300	300	0	0	449	46	0	1	0	0	0	1	blank2r.bmp	0	1	+	0	8	C4r.bmp	492	1	blank2r.bmp	786	1	GKQX	786	1	blank2r.bmp	866	6	tyrannisch	866	1	!	1239	1	!	1346	0	0	0	0	0	0	0	0	0	0	0	0	0	0	0	0	0	0	0	0	0	0	0	0	0	0	0
030619	12:53:43	13:02:42	537480	5.0.10.0	4_exp_AWA_CON_AMP_EVA	145	Rpleas_acq	Same	Rpleas	Bmasked	CS_B	1pleas	distractor2	CONbeforeEVA	acq_US_pleas_masked	acq45_masked	5	5	400	0	300	300	0	0	479	50	0	1	0	0	0	1	blank2r.bmp	0	1	+	0	1	B1r.bmp	492	1	blank2r.bmp	786	1	BMVZ	786	1	blank2r.bmp	866	1	freundlich	866	1	!	1239	1	!	-1	0	0	0	0	0	0	0	0	0	0	0	0	0	0	0	0	0	0	0	0	0	0	0	0	0	0	0
030619	12:53:43	13:02:44	539639	5.0.10.0	4_exp_AWA_CON_AMP_EVA	145	Rpleas_acq	Same	Rpleas	Bmasked	CS_B	1pleas	distractor2	CONbeforeEVA	acq_US_pleas_masked	acq45_masked	5	6	400	1	300	300	0	0	356	50	0	1	0	0	0	1	blank2r.bmp	0	1	+	0	3	B3r.bmp	492	1	blank2r.bmp	786	1	BMVZ	786	1	blank2r.bmp	866	4	fair	866	1	!	1239	1	!	1252	0	0	0	0	0	0	0	0	0	0	0	0	0	0	0	0	0	0	0	0	0	0	0	0	0	0	0
030619	12:53:43	13:02:46	541852	5.0.10.0	4_exp_AWA_CON_AMP_EVA	145	Rpleas_acq	Same	Rpleas	Bmasked	CS_B	1pleas	distractor2	CONbeforeEVA	acq_US_pleas_masked	acq45_masked	5	7	400	1	300	300	0	0	409	50	0	1	0	0	0	1	blank2r.bmp	0	1	+	0	6	C2r.bmp	492	1	blank2r.bmp	786	1	BMVZ	786	1	blank2r.bmp	866	5	helfen	866	1	!	1239	1	!	1306	0	0	0	0	0	0	0	0	0	0	0	0	0	0	0	0	0	0	0	0	0	0	0	0	0	0	0
030619	12:53:43	13:02:48	544091	5.0.10.0	4_exp_AWA_CON_AMP_EVA	145	Rpleas_acq	Same	Rpleas	Bmasked	CS_B	1pleas	distractor2	CONbeforeEVA	acq_US_pleas_masked	acq45_masked	5	8	400	1	300	300	0	0	446	50	0	1	0	0	0	1	blank2r.bmp	0	1	+	0	4	B4r.bmp	492	1	blank2r.bmp	786	1	BMVZ	786	1	blank2r.bmp	866	3	schön	866	1	!	1239	1	!	1346	0	0	0	0	0	0	0	0	0	0	0	0	0	0	0	0	0	0	0	0	0	0	0	0	0	0	0
030619	12:53:43	13:02:50	546343	5.0.10.0	4_exp_AWA_CON_AMP_EVA	145	Rpleas_acq	Same	Rpleas	Bmasked	CS_B	1pleas	distractor2	CONbeforeEVA	acq_US_unple_masked	acq45_masked	5	9	400	1	300	300	0	0	455	46	0	1	0	0	0	1	blank2r.bmp	0	1	+	0	3	B3r.bmp	492	1	blank2r.bmp	786	1	GKQX	786	1	blank2r.bmp	866	4	faul	866	1	!	1239	1	!	1359	0	0	0	0	0	0	0	0	0	0	0	0	0	0	0	0	0	0	0	0	0	0	0	0	0	0	0
030619	12:53:43	13:02:53	548516	5.0.10.0	4_exp_AWA_CON_AMP_EVA	145	Rpleas_acq	Same	Rpleas	Bmasked	CS_B	1pleas	distractor2	CONbeforeEVA	acq_US_pleas_masked	acq45_masked	5	10	400	1	300	300	0	0	376	50	0	1	0	0	0	1	blank2r.bmp	0	1	+	0	7	C3r.bmp	492	1	blank2r.bmp	786	1	BMVZ	786	1	blank2r.bmp	866	5	helfen	866	1	!	1239	1	!	1279	0	0	0	0	0	0	0	0	0	0	0	0	0	0	0	0	0	0	0	0	0	0	0	0	0	0	0
030619	12:53:43	13:02:55	550768	5.0.10.0	4_exp_AWA_CON_AMP_EVA	145	Rpleas_acq	Same	Rpleas	Bmasked	CS_B	1pleas	distractor2	CONbeforeEVA	acq_US_unple_masked	acq45_masked	5	11	400	1	300	300	0	0	448	46	0	1	0	0	0	1	blank2r.bmp	0	1	+	0	2	B2r.bmp	492	1	blank2r.bmp	786	1	GKQX	786	1	blank2r.bmp	866	5	hindern	866	1	!	1239	1	!	1346	0	0	0	0	0	0	0	0	0	0	0	0	0	0	0	0	0	0	0	0	0	0	0	0	0	0	0
030619	12:53:43	13:02:57	553060	5.0.10.0	4_exp_AWA_CON_AMP_EVA	145	Rpleas_acq	Same	Rpleas	Bmasked	CS_B	1pleas	distractor2	CONbeforeEVA	acq_US_unple_masked	acq45_masked	5	12	400	0	300	300	0	0	524	46	0	1	0	0	0	1	blank2r.bmp	0	1	+	0	6	C2r.bmp	492	1	blank2r.bmp	786	1	GKQX	786	1	blank2r.bmp	866	2	lasch	866	1	!	1239	1	!	-1	0	0	0	0	0	0	0	0	0	0	0	0	0	0	0	0	0	0	0	0	0	0	0	0	0	0	0
030619	12:53:43	13:02:59	555419	5.0.10.0	4_exp_AWA_CON_AMP_EVA	145	Rpleas_acq	Same	Rpleas	Bmasked	CS_B	1pleas	distractor2	CONbeforeEVA	acq_US_unple_masked	acq45_masked	5	13	400	0	300	300	0	0	572	46	0	1	0	0	0	1	blank2r.bmp	0	1	+	0	4	B4r.bmp	492	1	blank2r.bmp	786	1	GKQX	786	1	blank2r.bmp	866	1	fanatisch	866	1	!	1239	1	!	-1	0	0	0	0	0	0	0	0	0	0	0	0	0	0	0	0	0	0	0	0	0	0	0	0	0	0	0
030619	12:53:43	13:03:02	557658	5.0.10.0	4_exp_AWA_CON_AMP_EVA	145	Rpleas_acq	Same	Rpleas	Bmasked	CS_B	1pleas	distractor2	CONbeforeEVA	acq_US_unple_masked	acq45_masked	5	14	400	1	300	300	0	0	427	46	0	1	0	0	0	1	blank2r.bmp	0	1	+	0	5	C1r.bmp	492	1	blank2r.bmp	786	1	GKQX	786	1	blank2r.bmp	866	4	faul	866	1	!	1239	1	!	1332	0	0	0	0	0	0	0	0	0	0	0	0	0	0	0	0	0	0	0	0	0	0	0	0	0	0	0
030619	12:53:43	13:03:04	559857	5.0.10.0	4_exp_AWA_CON_AMP_EVA	145	Rpleas_acq	Same	Rpleas	Bmasked	CS_B	1pleas	distractor2	CONbeforeEVA	acq_US_pleas_masked	acq45_masked	5	15	400	1	300	300	0	0	390	50	0	1	0	0	0	1	blank2r.bmp	0	1	+	0	1	B1r.bmp	492	1	blank2r.bmp	786	1	BMVZ	786	1	blank2r.bmp	866	1	freundlich	866	1	!	1239	1	!	1292	0	0	0	0	0	0	0	0	0	0	0	0	0	0	0	0	0	0	0	0	0	0	0	0	0	0	0
030619	12:53:43	13:03:06	562083	5.0.10.0	4_exp_AWA_CON_AMP_EVA	145	Rpleas_acq	Same	Rpleas	Bmasked	CS_B	1pleas	distractor2	CONbeforeEVA	acq_US_unple_masked	acq45_masked	5	16	400	1	300	300	0	0	412	46	0	1	0	0	0	1	blank2r.bmp	0	1	+	0	8	C4r.bmp	492	1	blank2r.bmp	786	1	GKQX	786	1	blank2r.bmp	866	3	schlecht	866	1	!	1239	1	!	1319	0	0	0	0	0	0	0	0	0	0	0	0	0	0	0	0	0	0	0	0	0	0	0	0	0	0	0
030619	12:53:43	13:03:08	564309	5.0.10.0	4_exp_AWA_CON_AMP_EVA	145	Rpleas_acq	Same	Rpleas	Bmasked	CS_B	1pleas	distractor2	CONbeforeEVA	acq_US_unple_masked	acq45_masked	5	17	400	1	300	300	0	0	430	46	0	1	0	0	0	1	blank2r.bmp	0	1	+	0	2	B2r.bmp	492	1	blank2r.bmp	786	1	GKQX	786	1	blank2r.bmp	866	1	fanatisch	866	1	!	1239	1	!	1332	0	0	0	0	0	0	0	0	0	0	0	0	0	0	0	0	0	0	0	0	0	0	0	0	0	0	0
030619	12:53:43	13:03:10	566455	5.0.10.0	4_exp_AWA_CON_AMP_EVA	145	Rpleas_acq	Same	Rpleas	Bmasked	CS_B	1pleas	distractor2	CONbeforeEVA	acq_US_pleas_masked	acq45_masked	5	18	400	1	300	300	0	0	346	46	0	0	0	0	0	1	blank2r.bmp	0	1	+	0	8	C4r.bmp	492	1	blank2r.bmp	786	1	BMVZ	786	1	blank2r.bmp	866	3	schön	866	1	!	1239	1	!	1252	0	0	0	0	0	0	0	0	0	0	0	0	0	0	0	0	0	0	0	0	0	0	0	0	0	0	0
030619	12:53:43	13:03:13	568614	5.0.10.0	4_exp_AWA_CON_AMP_EVA	145	Rpleas_acq	Same	Rpleas	Bmasked	CS_B	1pleas	distractor2	CONbeforeEVA	acq_US_unple_masked	acq45_masked	5	19	400	1	300	300	0	0	357	46	0	1	0	0	0	1	blank2r.bmp	0	1	+	0	5	C1r.bmp	492	1	blank2r.bmp	786	1	GKQX	786	1	blank2r.bmp	866	2	lasch	866	1	!	1239	1	!	1252	0	0	0	0	0	0	0	0	0	0	0	0	0	0	0	0	0	0	0	0	0	0	0	0	0	0	0
030619	12:53:43	13:03:15	570866	5.0.10.0	4_exp_AWA_CON_AMP_EVA	145	Rpleas_acq	Same	Rpleas	Bmasked	CS_B	1pleas	distractor2	CONbeforeEVA	acq_US_unple_masked	acq45_masked	5	20	400	0	300	300	0	0	484	46	0	1	0	0	0	1	blank2r.bmp	0	1	+	0	6	C2r.bmp	492	1	blank2r.bmp	786	1	GKQX	786	1	blank2r.bmp	866	5	hindern	866	1	!	1239	1	!	-1	0	0	0	0	0	0	0	0	0	0	0	0	0	0	0	0	0	0	0	0	0	0	0	0	0	0	0
030619	12:53:43	13:03:17	573159	5.0.10.0	4_exp_AWA_CON_AMP_EVA	145	Rpleas_acq	Same	Rpleas	Bmasked	CS_B	1pleas	distractor2	CONbeforeEVA	acq_US_unple_masked	acq45_masked	5	21	400	0	300	300	0	0	514	46	0	1	0	0	0	1	blank2r.bmp	0	1	+	0	3	B3r.bmp	492	1	blank2r.bmp	786	1	GKQX	786	1	blank2r.bmp	866	6	tyrannisch	866	1	!	1239	1	!	-1	0	0	0	0	0	0	0	0	0	0	0	0	0	0	0	0	0	0	0	0	0	0	0	0	0	0	0
030619	12:53:43	13:03:19	575318	5.0.10.0	4_exp_AWA_CON_AMP_EVA	145	Rpleas_acq	Same	Rpleas	Bmasked	CS_B	1pleas	distractor2	CONbeforeEVA	acq_US_unple_masked	acq45_masked	5	22	400	1	300	300	0	0	346	50	0	0	0	0	0	1	blank2r.bmp	0	1	+	0	4	B4r.bmp	492	1	blank2r.bmp	786	1	GKQX	786	1	blank2r.bmp	866	3	schlecht	866	1	!	1239	1	!	1252	0	0	0	0	0	0	0	0	0	0	0	0	0	0	0	0	0	0	0	0	0	0	0	0	0	0	0
030619	12:53:43	13:03:22	577570	5.0.10.0	4_exp_AWA_CON_AMP_EVA	145	Rpleas_acq	Same	Rpleas	Bmasked	CS_B	1pleas	distractor2	CONbeforeEVA	acq_US_pleas_masked	acq45_masked	5	23	400	1	300	300	0	0	440	50	0	1	0	0	0	1	blank2r.bmp	0	1	+	0	1	B1r.bmp	492	1	blank2r.bmp	786	1	BMVZ	786	1	blank2r.bmp	866	4	fair	866	1	!	1239	1	!	1346	0	0	0	0	0	0	0	0	0	0	0	0	0	0	0	0	0	0	0	0	0	0	0	0	0	0	0
030619	12:53:43	13:03:24	579822	5.0.10.0	4_exp_AWA_CON_AMP_EVA	145	Rpleas_acq	Same	Rpleas	Bmasked	CS_B	1pleas	distractor2	CONbeforeEVA	acq_US_pleas_masked	acq45_masked	5	24	400	0	300	300	0	0	481	46	0	0	0	0	0	1	blank2r.bmp	0	1	+	0	7	C3r.bmp	492	1	blank2r.bmp	786	1	BMVZ	786	1	blank2r.bmp	866	2	loyal	866	1	!	1239	1	!	-1	0	0	0	0	0	0	0	0	0	0	0	0	0	0	0	0	0	0	0	0	0	0	0	0	0	0	0
030619	12:53:43	13:03:26	582061	5.0.10.0	4_exp_AWA_CON_AMP_EVA	145	Rpleas_acq	Same	Rpleas	Bmasked	CS_B	1pleas	distractor2	CONbeforeEVA	acq_US_unple_masked	acq45_masked	5	25	400	1	300	300	0	0	429	46	0	1	0	0	0	1	blank2r.bmp	0	1	+	0	4	B4r.bmp	492	1	blank2r.bmp	786	1	GKQX	786	1	blank2r.bmp	866	5	hindern	866	1	!	1239	1	!	1332	0	0	0	0	0	0	0	0	0	0	0	0	0	0	0	0	0	0	0	0	0	0	0	0	0	0	0
030619	12:53:43	13:03:28	584447	5.0.10.0	4_exp_AWA_CON_AMP_EVA	145	Rpleas_acq	Same	Rpleas	Bmasked	CS_B	1pleas	distractor2	CONbeforeEVA	acq_US_pleas_masked	acq45_masked	5	26	400	0	300	300	0	0	617	50	0	1	0	0	0	1	blank2r.bmp	0	1	+	0	5	C1r.bmp	492	1	blank2r.bmp	786	1	BMVZ	786	1	blank2r.bmp	866	6	tolerant	866	1	!	1239	1	!	-1	0	0	0	0	0	0	0	0	0	0	0	0	0	0	0	0	0	0	0	0	0	0	0	0	0	0	0
030619	12:53:43	13:03:31	586659	5.0.10.0	4_exp_AWA_CON_AMP_EVA	145	Rpleas_acq	Same	Rpleas	Bmasked	CS_B	1pleas	distractor2	CONbeforeEVA	acq_US_unple_masked	acq45_masked	5	27	400	1	300	300	0	0	402	46	0	1	0	0	0	1	blank2r.bmp	0	1	+	0	7	C3r.bmp	492	1	blank2r.bmp	786	1	GKQX	786	1	blank2r.bmp	866	4	faul	866	1	!	1239	1	!	1306	0	0	0	0	0	0	0	0	0	0	0	0	0	0	0	0	0	0	0	0	0	0	0	0	0	0	0
030619	12:53:43	13:03:33	588925	5.0.10.0	4_exp_AWA_CON_AMP_EVA	145	Rpleas_acq	Same	Rpleas	Bmasked	CS_B	1pleas	distractor2	CONbeforeEVA	acq_US_unple_masked	acq45_masked	5	28	400	0	300	300	0	0	492	46	0	1	0	0	0	1	blank2r.bmp	0	1	+	0	3	B3r.bmp	492	1	blank2r.bmp	786	1	GKQX	786	1	blank2r.bmp	866	1	fanatisch	866	1	!	1239	1	!	-1	0	0	0	0	0	0	0	0	0	0	0	0	0	0	0	0	0	0	0	0	0	0	0	0	0	0	0
030619	12:53:43	13:03:35	591258	5.0.10.0	4_exp_AWA_CON_AMP_EVA	145	Rpleas_acq	Same	Rpleas	Bmasked	CS_B	1pleas	distractor2	CONbeforeEVA	acq_US_pleas_masked	acq45_masked	5	29	400	0	300	300	0	0	555	50	0	1	0	0	0	1	blank2r.bmp	0	1	+	0	2	B2r.bmp	492	1	blank2r.bmp	786	1	BMVZ	786	1	blank2r.bmp	866	5	helfen	866	1	!	1239	1	!	-1	0	0	0	0	0	0	0	0	0	0	0	0	0	0	0	0	0	0	0	0	0	0	0	0	0	0	0
030619	12:53:43	13:03:38	593497	5.0.10.0	4_exp_AWA_CON_AMP_EVA	145	Rpleas_acq	Same	Rpleas	Bmasked	CS_B	1pleas	distractor2	CONbeforeEVA	acq_US_pleas_masked	acq45_masked	5	30	400	1	300	300	0	0	434	50	0	1	0	0	0	1	blank2r.bmp	0	1	+	0	8	C4r.bmp	492	1	blank2r.bmp	786	1	BMVZ	786	1	blank2r.bmp	866	1	freundlich	866	1	!	1239	1	!	1332	0	0	0	0	0	0	0	0	0	0	0	0	0	0	0	0	0	0	0	0	0	0	0	0	0	0	0
030619	12:53:43	13:03:40	595642	5.0.10.0	4_exp_AWA_CON_AMP_EVA	145	Rpleas_acq	Same	Rpleas	Bmasked	CS_B	1pleas	distractor2	CONbeforeEVA	acq_US_pleas_masked	acq45_masked	5	31	400	1	300	300	0	0	354	50	0	1	0	0	0	1	blank2r.bmp	0	1	+	0	1	B1r.bmp	492	1	blank2r.bmp	786	1	BMVZ	786	1	blank2r.bmp	866	3	schön	866	1	!	1239	1	!	1252	0	0	0	0	0	0	0	0	0	0	0	0	0	0	0	0	0	0	0	0	0	0	0	0	0	0	0
030619	12:53:43	13:03:42	597855	5.0.10.0	4_exp_AWA_CON_AMP_EVA	145	Rpleas_acq	Same	Rpleas	Bmasked	CS_B	1pleas	distractor2	CONbeforeEVA	acq_US_pleas_masked	acq45_masked	5	32	400	1	300	300	0	0	411	50	0	1	0	0	0	1	blank2r.bmp	0	1	+	0	6	C2r.bmp	492	1	blank2r.bmp	786	1	BMVZ	786	1	blank2r.bmp	866	6	tolerant	866	1	!	1239	1	!	1306	0	0	0	0	0	0	0	0	0	0	0	0	0	0	0	0	0	0	0	0	0	0	0	0	0	0	0
030619	12:53:43	13:03:44	599921	5.0.10.0	4_exp_AWA_CON_AMP_EVA	145	Rpleas_acq	Same	Rpleas	Bmasked	CS_B	1pleas	distractor2	CONbeforeEVA	acq_US_pleas_masked	acq45_masked	5	33	400	0	300	300	0	0	300	46	0	0	0	0	0	1	blank2r.bmp	0	1	+	0	6	C2r.bmp	492	1	blank2r.bmp	786	1	BMVZ	786	1	blank2r.bmp	866	2	loyal	866	1	!	-1	1	!	-1	0	0	0	0	0	0	0	0	0	0	0	0	0	0	0	0	0	0	0	0	0	0	0	0	0	0	0
030619	12:53:43	13:03:46	602026	5.0.10.0	4_exp_AWA_CON_AMP_EVA	145	Rpleas_acq	Same	Rpleas	Bmasked	CS_B	1pleas	distractor2	CONbeforeEVA	acq_US_unple_masked	acq45_masked	5	34	400	0	300	300	0	0	316	50	0	0	0	0	0	1	blank2r.bmp	0	1	+	0	2	B2r.bmp	492	1	blank2r.bmp	786	1	GKQX	786	1	blank2r.bmp	866	2	lasch	866	1	!	-1	1	!	-1	0	0	0	0	0	0	0	0	0	0	0	0	0	0	0	0	0	0	0	0	0	0	0	0	0	0	0
030619	12:53:43	13:03:48	604252	5.0.10.0	4_exp_AWA_CON_AMP_EVA	145	Rpleas_acq	Same	Rpleas	Bmasked	CS_B	1pleas	distractor2	CONbeforeEVA	acq_US_pleas_masked	acq45_masked	5	35	400	1	300	300	0	0	404	50	0	1	0	0	0	1	blank2r.bmp	0	1	+	0	1	B1r.bmp	492	1	blank2r.bmp	786	1	BMVZ	786	1	blank2r.bmp	866	4	fair	866	1	!	1239	1	!	1306	0	0	0	0	0	0	0	0	0	0	0	0	0	0	0	0	0	0	0	0	0	0	0	0	0	0	0
030619	12:53:43	13:03:51	606491	5.0.10.0	4_exp_AWA_CON_AMP_EVA	145	Rpleas_acq	Same	Rpleas	Bmasked	CS_B	1pleas	distractor2	CONbeforeEVA	acq_US_unple_masked	acq45_masked	5	36	400	1	300	300	0	0	445	46	0	1	0	0	0	1	blank2r.bmp	0	1	+	0	7	C3r.bmp	492	1	blank2r.bmp	786	1	GKQX	786	1	blank2r.bmp	866	6	tyrannisch	866	1	!	1239	1	!	1346	0	0	0	0	0	0	0	0	0	0	0	0	0	0	0	0	0	0	0	0	0	0	0	0	0	0	0
030619	12:53:43	13:06:19	754709	5.0.10.0	4_exp_AWA_CON_AMP_EVA	145	Rpleas_acq	Same	Rpleas	Bmasked	CS_B	1pleas	distractor2	CONbeforeEVA	cond_new_unple_456_masked_CS2	condtest_masked_1	8	1	400	0	300	300	0	0	486	46	0	1	0	0	0	1	blank2r.bmp	0	1	+	0	4	B4r.bmp	492	1	blank2r.bmp	786	1	GKQX	786	1	blank2r.bmp	866	1	rächen	866	1	!	1239	1	!	-1	0	0	0	0	0	0	0	0	0	0	0	0	0	0	0	0	0	0	0	0	0	0	0	0	0	0	0
030619	12:53:43	13:06:21	756948	5.0.10.0	4_exp_AWA_CON_AMP_EVA	145	Rpleas_acq	Same	Rpleas	Bmasked	CS_B	1pleas	distractor2	CONbeforeEVA	cond_US_pleas_123_masked_CS2	condtest_masked_1	8	2	400	1	300	300	0	0	428	50	0	1	0	0	0	1	blank2r.bmp	0	1	+	0	5	C1r.bmp	492	1	blank2r.bmp	786	1	GKQX	786	1	blank2r.bmp	866	3	schön	866	1	!	1239	1	!	1332	0	0	0	0	0	0	0	0	0	0	0	0	0	0	0	0	0	0	0	0	0	0	0	0	0	0	0
030619	12:53:43	13:06:23	759200	5.0.10.0	4_exp_AWA_CON_AMP_EVA	145	Rpleas_acq	Same	Rpleas	Bmasked	CS_B	1pleas	distractor2	CONbeforeEVA	cond_new_pleas_456_masked_CS2	condtest_masked_1	8	3	400	0	300	300	0	0	486	46	0	0	0	0	0	1	blank2r.bmp	0	1	+	0	3	B3r.bmp	492	1	blank2r.bmp	786	1	GKQX	786	1	blank2r.bmp	866	1	retten	866	1	!	1239	1	!	-1	0	0	0	0	0	0	0	0	0	0	0	0	0	0	0	0	0	0	0	0	0	0	0	0	0	0	0
030619	12:53:43	13:06:26	761493	5.0.10.0	4_exp_AWA_CON_AMP_EVA	145	Rpleas_acq	Same	Rpleas	Bmasked	CS_B	1pleas	distractor2	CONbeforeEVA	cond_US_unple_123_masked_CS1	condtest_masked_1	8	4	400	0	300	300	0	0	509	50	0	0	0	0	0	1	blank2r.bmp	0	1	+	0	8	C4r.bmp	492	1	blank2r.bmp	786	1	BMVZ	786	1	blank2r.bmp	866	1	fanatisch	866	1	!	1239	1	!	-1	0	0	0	0	0	0	0	0	0	0	0	0	0	0	0	0	0	0	0	0	0	0	0	0	0	0	0
030619	12:53:43	13:06:28	763745	5.0.10.0	4_exp_AWA_CON_AMP_EVA	145	Rpleas_acq	Same	Rpleas	Bmasked	CS_B	1pleas	distractor2	CONbeforeEVA	cond_US_unple_123_masked_CS2	condtest_masked_1	8	5	400	1	300	300	0	0	439	46	0	1	0	0	0	1	blank2r.bmp	0	1	+	0	7	C3r.bmp	492	1	blank2r.bmp	786	1	GKQX	786	1	blank2r.bmp	866	2	lasch	866	1	!	1239	1	!	1346	0	0	0	0	0	0	0	0	0	0	0	0	0	0	0	0	0	0	0	0	0	0	0	0	0	0	0
030619	12:53:43	13:06:30	765891	5.0.10.0	4_exp_AWA_CON_AMP_EVA	145	Rpleas_acq	Same	Rpleas	Bmasked	CS_B	1pleas	distractor2	CONbeforeEVA	cond_new_pleas_456_masked_CS1	condtest_masked_1	8	6	400	1	300	300	0	0	358	50	0	1	0	0	0	1	blank2r.bmp	0	1	+	0	2	B2r.bmp	492	1	blank2r.bmp	786	1	BMVZ	786	1	blank2r.bmp	866	2	schlau	866	1	!	1239	1	!	1252	0	0	0	0	0	0	0	0	0	0	0	0	0	0	0	0	0	0	0	0	0	0	0	0	0	0	0
030619	12:53:43	13:06:32	768077	5.0.10.0	4_exp_AWA_CON_AMP_EVA	145	Rpleas_acq	Same	Rpleas	Bmasked	CS_B	1pleas	distractor2	CONbeforeEVA	cond_new_unple_456_masked_CS1	condtest_masked_1	8	7	400	1	300	300	0	0	394	46	0	1	0	0	0	1	blank2r.bmp	0	1	+	0	5	C1r.bmp	492	1	blank2r.bmp	786	1	BMVZ	786	1	blank2r.bmp	866	3	leiden	866	1	!	1239	1	!	1292	0	0	0	0	0	0	0	0	0	0	0	0	0	0	0	0	0	0	0	0	0	0	0	0	0	0	0
030619	12:53:43	13:06:34	770316	5.0.10.0	4_exp_AWA_CON_AMP_EVA	145	Rpleas_acq	Same	Rpleas	Bmasked	CS_B	1pleas	distractor2	CONbeforeEVA	cond_US_pleas_123_masked_CS1	condtest_masked_1	8	8	400	1	300	300	0	0	446	50	0	1	0	0	0	1	blank2r.bmp	0	1	+	0	3	B3r.bmp	492	1	blank2r.bmp	786	1	BMVZ	786	1	blank2r.bmp	866	1	freundlich	866	1	!	1239	1	!	1346	0	0	0	0	0	0	0	0	0	0	0	0	0	0	0	0	0	0	0	0	0	0	0	0	0	0	0
030619	12:53:43	13:06:44	779605	5.0.10.0	4_exp_AWA_CON_AMP_EVA	145	Rpleas_acq	Same	Rpleas	Bmasked	CS_B	1pleas	distractor2	CONbeforeEVA	cond_US_unple_123_masked_CS1	condtest_masked_2	9	1	400	1	300	300	0	0	406	46	0	1	0	0	0	1	blank2r.bmp	0	1	+	0	6	C2r.bmp	492	1	blank2r.bmp	786	1	BMVZ	786	1	blank2r.bmp	866	3	schlecht	866	1	!	1239	1	!	1306	0	0	0	0	0	0	0	0	0	0	0	0	0	0	0	0	0	0	0	0	0	0	0	0	0	0	0
030619	12:53:43	13:06:46	781791	5.0.10.0	4_exp_AWA_CON_AMP_EVA	145	Rpleas_acq	Same	Rpleas	Bmasked	CS_B	1pleas	distractor2	CONbeforeEVA	cond_US_unple_123_masked_CS2	condtest_masked_2	9	2	400	1	300	300	0	0	389	46	0	1	0	0	0	1	blank2r.bmp	0	1	+	0	1	B1r.bmp	492	1	blank2r.bmp	786	1	GKQX	786	1	blank2r.bmp	866	3	schlecht	866	1	!	1239	1	!	1292	0	0	0	0	0	0	0	0	0	0	0	0	0	0	0	0	0	0	0	0	0	0	0	0	0	0	0
030619	12:53:43	13:06:48	783950	5.0.10.0	4_exp_AWA_CON_AMP_EVA	145	Rpleas_acq	Same	Rpleas	Bmasked	CS_B	1pleas	distractor2	CONbeforeEVA	cond_new_pleas_456_masked_CS1	condtest_masked_2	9	3	400	1	300	300	0	0	362	46	0	0	0	0	0	1	blank2r.bmp	0	1	+	0	4	B4r.bmp	492	1	blank2r.bmp	786	1	BMVZ	786	1	blank2r.bmp	866	3	lachen	866	1	!	1239	1	!	1266	0	0	0	0	0	0	0	0	0	0	0	0	0	0	0	0	0	0	0	0	0	0	0	0	0	0	0
030619	12:53:43	13:06:50	786202	5.0.10.0	4_exp_AWA_CON_AMP_EVA	145	Rpleas_acq	Same	Rpleas	Bmasked	CS_B	1pleas	distractor2	CONbeforeEVA	cond_new_unple_456_masked_CS2	condtest_masked_2	9	4	400	1	300	300	0	0	447	50	0	0	0	0	0	1	blank2r.bmp	0	1	+	0	8	C4r.bmp	492	1	blank2r.bmp	786	1	GKQX	786	1	blank2r.bmp	866	2	schroff	866	1	!	1239	1	!	1346	0	0	0	0	0	0	0	0	0	0	0	0	0	0	0	0	0	0	0	0	0	0	0	0	0	0	0
030619	12:53:43	13:06:52	788415	5.0.10.0	4_exp_AWA_CON_AMP_EVA	145	Rpleas_acq	Same	Rpleas	Bmasked	CS_B	1pleas	distractor2	CONbeforeEVA	cond_US_pleas_123_masked_CS2	condtest_masked_2	9	5	400	1	300	300	0	0	419	50	0	1	0	0	0	1	blank2r.bmp	0	1	+	0	8	C4r.bmp	492	1	blank2r.bmp	786	1	GKQX	786	1	blank2r.bmp	866	2	loyal	866	1	!	1239	1	!	1319	0	0	0	0	0	0	0	0	0	0	0	0	0	0	0	0	0	0	0	0	0	0	0	0	0	0	0
030619	12:53:43	13:06:55	790587	5.0.10.0	4_exp_AWA_CON_AMP_EVA	145	Rpleas_acq	Same	Rpleas	Bmasked	CS_B	1pleas	distractor2	CONbeforeEVA	cond_new_pleas_456_masked_CS1	condtest_masked_2	9	6	400	1	300	300	0	0	384	46	0	0	0	0	0	1	blank2r.bmp	0	1	+	0	7	C3r.bmp	492	1	blank2r.bmp	786	1	BMVZ	786	1	blank2r.bmp	866	3	lachen	866	1	!	1239	1	!	1279	0	0	0	0	0	0	0	0	0	0	0	0	0	0	0	0	0	0	0	0	0	0	0	0	0	0	0
030619	12:53:43	13:06:57	792840	5.0.10.0	4_exp_AWA_CON_AMP_EVA	145	Rpleas_acq	Same	Rpleas	Bmasked	CS_B	1pleas	distractor2	CONbeforeEVA	cond_US_unple_123_masked_CS2	condtest_masked_2	9	7	400	0	300	300	0	0	479	46	0	1	0	0	0	1	blank2r.bmp	0	1	+	0	1	B1r.bmp	492	1	blank2r.bmp	786	1	GKQX	786	1	blank2r.bmp	866	2	lasch	866	1	!	1239	1	!	-1	0	0	0	0	0	0	0	0	0	0	0	0	0	0	0	0	0	0	0	0	0	0	0	0	0	0	0
030619	12:53:43	13:06:59	794999	5.0.10.0	4_exp_AWA_CON_AMP_EVA	145	Rpleas_acq	Same	Rpleas	Bmasked	CS_B	1pleas	distractor2	CONbeforeEVA	cond_new_pleas_456_masked_CS1	condtest_masked_2	9	8	400	1	300	300	0	0	355	50	0	1	0	0	0	1	blank2r.bmp	0	1	+	0	2	B2r.bmp	492	1	blank2r.bmp	786	1	BMVZ	786	1	blank2r.bmp	866	1	retten	866	1	!	1239	1	!	1252	0	0	0	0	0	0	0	0	0	0	0	0	0	0	0	0	0	0	0	0	0	0	0	0	0	0	0
030619	12:53:43	13:07:01	797211	5.0.10.0	4_exp_AWA_CON_AMP_EVA	145	Rpleas_acq	Same	Rpleas	Bmasked	CS_B	1pleas	distractor2	CONbeforeEVA	cond_US_unple_123_masked_CS2	condtest_masked_2	9	9	400	1	300	300	0	0	417	50	0	0	0	0	0	1	blank2r.bmp	0	1	+	0	5	C1r.bmp	492	1	blank2r.bmp	786	1	GKQX	786	1	blank2r.bmp	866	1	fanatisch	866	1	!	1239	1	!	1319	0	0	0	0	0	0	0	0	0	0	0	0	0	0	0	0	0	0	0	0	0	0	0	0	0	0	0
030619	12:53:43	13:07:03	799463	5.0.10.0	4_exp_AWA_CON_AMP_EVA	145	Rpleas_acq	Same	Rpleas	Bmasked	CS_B	1pleas	distractor2	CONbeforeEVA	cond_US_pleas_123_masked_CS1	condtest_masked_2	9	10	400	0	300	300	0	0	483	46	0	0	0	0	0	1	blank2r.bmp	0	1	+	0	3	B3r.bmp	492	1	blank2r.bmp	786	1	BMVZ	786	1	blank2r.bmp	866	2	loyal	866	1	!	1239	1	!	-1	0	0	0	0	0	0	0	0	0	0	0	0	0	0	0	0	0	0	0	0	0	0	0	0	0	0	0
030619	12:53:43	13:07:06	801756	5.0.10.0	4_exp_AWA_CON_AMP_EVA	145	Rpleas_acq	Same	Rpleas	Bmasked	CS_B	1pleas	distractor2	CONbeforeEVA	cond_new_unple_456_masked_CS2	condtest_masked_2	9	11	400	0	300	300	0	0	509	46	0	1	0	0	0	1	blank2r.bmp	0	1	+	0	6	C2r.bmp	492	1	blank2r.bmp	786	1	GKQX	786	1	blank2r.bmp	866	2	schroff	866	1	!	1239	1	!	-1	0	0	0	0	0	0	0	0	0	0	0	0	0	0	0	0	0	0	0	0	0	0	0	0	0	0	0
030619	12:53:43	13:07:08	804021	5.0.10.0	4_exp_AWA_CON_AMP_EVA	145	Rpleas_acq	Same	Rpleas	Bmasked	CS_B	1pleas	distractor2	CONbeforeEVA	cond_new_unple_456_masked_CS1	condtest_masked_2	9	12	400	1	300	300	0	0	461	46	0	1	0	0	0	1	blank2r.bmp	0	1	+	0	4	B4r.bmp	492	1	blank2r.bmp	786	1	BMVZ	786	1	blank2r.bmp	866	1	rächen	866	1	!	1239	1	!	1359	0	0	0	0	0	0	0	0	0	0	0	0	0	0	0	0	0	0	0	0	0	0	0	0	0	0	0
030619	12:53:43	13:07:10	806234	5.0.10.0	4_exp_AWA_CON_AMP_EVA	145	Rpleas_acq	Same	Rpleas	Bmasked	CS_B	1pleas	distractor2	CONbeforeEVA	cond_new_pleas_456_masked_CS2	condtest_masked_2	9	13	400	1	300	300	0	0	424	50	0	1	0	0	0	1	blank2r.bmp	0	1	+	0	6	C2r.bmp	492	1	blank2r.bmp	786	1	GKQX	786	1	blank2r.bmp	866	2	schlau	866	1	!	1239	1	!	1319	0	0	0	0	0	0	0	0	0	0	0	0	0	0	0	0	0	0	0	0	0	0	0	0	0	0	0
030619	12:53:43	13:07:12	808433	5.0.10.0	4_exp_AWA_CON_AMP_EVA	145	Rpleas_acq	Same	Rpleas	Bmasked	CS_B	1pleas	distractor2	CONbeforeEVA	cond_new_pleas_456_masked_CS2	condtest_masked_2	9	14	400	1	300	300	0	0	411	50	0	1	0	0	0	1	blank2r.bmp	0	1	+	0	7	C3r.bmp	492	1	blank2r.bmp	786	1	GKQX	786	1	blank2r.bmp	866	1	retten	866	1	!	1239	1	!	1306	0	0	0	0	0	0	0	0	0	0	0	0	0	0	0	0	0	0	0	0	0	0	0	0	0	0	0
030619	12:53:43	13:07:15	810499	5.0.10.0	4_exp_AWA_CON_AMP_EVA	145	Rpleas_acq	Same	Rpleas	Bmasked	CS_B	1pleas	distractor2	CONbeforeEVA	cond_new_pleas_456_masked_CS1	condtest_masked_2	9	15	400	0	300	300	0	0	300	50	0	1	0	0	0	1	blank2r.bmp	0	1	+	0	4	B4r.bmp	492	1	blank2r.bmp	786	1	BMVZ	786	1	blank2r.bmp	866	2	schlau	866	1	!	-1	1	!	-1	0	0	0	0	0	0	0	0	0	0	0	0	0	0	0	0	0	0	0	0	0	0	0	0	0	0	0
030619	12:53:43	13:07:17	812605	5.0.10.0	4_exp_AWA_CON_AMP_EVA	145	Rpleas_acq	Same	Rpleas	Bmasked	CS_B	1pleas	distractor2	CONbeforeEVA	cond_US_pleas_123_masked_CS1	condtest_masked_2	9	16	400	0	300	300	0	0	324	50	0	1	0	0	0	1	blank2r.bmp	0	1	+	0	3	B3r.bmp	492	1	blank2r.bmp	786	1	BMVZ	786	1	blank2r.bmp	866	3	schön	866	1	!	-1	1	!	-1	0	0	0	0	0	0	0	0	0	0	0	0	0	0	0	0	0	0	0	0	0	0	0	0	0	0	0
030619	12:53:43	13:07:19	814897	5.0.10.0	4_exp_AWA_CON_AMP_EVA	145	Rpleas_acq	Same	Rpleas	Bmasked	CS_B	1pleas	distractor2	CONbeforeEVA	cond_new_unple_456_masked_CS2	condtest_masked_2	9	17	400	0	300	300	0	0	514	46	0	1	0	0	0	1	blank2r.bmp	0	1	+	0	2	B2r.bmp	492	1	blank2r.bmp	786	1	GKQX	786	1	blank2r.bmp	866	3	leiden	866	1	!	1239	1	!	-1	0	0	0	0	0	0	0	0	0	0	0	0	0	0	0	0	0	0	0	0	0	0	0	0	0	0	0
030619	12:53:43	13:07:21	817149	5.0.10.0	4_exp_AWA_CON_AMP_EVA	145	Rpleas_acq	Same	Rpleas	Bmasked	CS_B	1pleas	distractor2	CONbeforeEVA	cond_US_pleas_123_masked_CS2	condtest_masked_2	9	18	400	1	300	300	0	0	442	50	0	1	0	0	0	1	blank2r.bmp	0	1	+	0	5	C1r.bmp	492	1	blank2r.bmp	786	1	GKQX	786	1	blank2r.bmp	866	1	freundlich	866	1	!	1239	1	!	1346	0	0	0	0	0	0	0	0	0	0	0	0	0	0	0	0	0	0	0	0	0	0	0	0	0	0	0
030619	12:53:43	13:07:23	819375	5.0.10.0	4_exp_AWA_CON_AMP_EVA	145	Rpleas_acq	Same	Rpleas	Bmasked	CS_B	1pleas	distractor2	CONbeforeEVA	cond_new_pleas_456_masked_CS1	condtest_masked_2	9	19	400	1	300	300	0	0	437	50	0	1	0	0	0	1	blank2r.bmp	0	1	+	0	1	B1r.bmp	492	1	blank2r.bmp	786	1	BMVZ	786	1	blank2r.bmp	866	3	lachen	866	1	!	1239	1	!	1332	0	0	0	0	0	0	0	0	0	0	0	0	0	0	0	0	0	0	0	0	0	0	0	0	0	0	0
030619	12:53:43	13:07:26	821641	5.0.10.0	4_exp_AWA_CON_AMP_EVA	145	Rpleas_acq	Same	Rpleas	Bmasked	CS_B	1pleas	distractor2	CONbeforeEVA	cond_US_unple_123_masked_CS1	condtest_masked_2	9	20	400	0	300	300	0	0	479	46	0	1	0	0	0	1	blank2r.bmp	0	1	+	0	8	C4r.bmp	492	1	blank2r.bmp	786	1	BMVZ	786	1	blank2r.bmp	866	2	lasch	866	1	!	1239	1	!	-1	0	0	0	0	0	0	0	0	0	0	0	0	0	0	0	0	0	0	0	0	0	0	0	0	0	0	0
030619	12:53:43	13:07:28	823840	5.0.10.0	4_exp_AWA_CON_AMP_EVA	145	Rpleas_acq	Same	Rpleas	Bmasked	CS_B	1pleas	distractor2	CONbeforeEVA	cond_US_pleas_123_masked_CS2	condtest_masked_2	9	21	400	1	300	300	0	0	383	50	0	1	0	0	0	1	blank2r.bmp	0	1	+	0	1	B1r.bmp	492	1	blank2r.bmp	786	1	GKQX	786	1	blank2r.bmp	866	1	freundlich	866	1	!	1239	1	!	1279	0	0	0	0	0	0	0	0	0	0	0	0	0	0	0	0	0	0	0	0	0	0	0	0	0	0	0
030619	12:53:43	13:07:30	826012	5.0.10.0	4_exp_AWA_CON_AMP_EVA	145	Rpleas_acq	Same	Rpleas	Bmasked	CS_B	1pleas	distractor2	CONbeforeEVA	cond_US_unple_123_masked_CS1	condtest_masked_2	9	22	400	1	300	300	0	0	378	50	0	0	0	0	0	1	blank2r.bmp	0	1	+	0	8	C4r.bmp	492	1	blank2r.bmp	786	1	BMVZ	786	1	blank2r.bmp	866	1	fanatisch	866	1	!	1239	1	!	1279	0	0	0	0	0	0	0	0	0	0	0	0	0	0	0	0	0	0	0	0	0	0	0	0	0	0	0
030619	12:53:43	13:07:32	828265	5.0.10.0	4_exp_AWA_CON_AMP_EVA	145	Rpleas_acq	Same	Rpleas	Bmasked	CS_B	1pleas	distractor2	CONbeforeEVA	cond_new_pleas_456_masked_CS2	condtest_masked_2	9	23	400	1	300	300	0	0	462	50	0	1	0	0	0	1	blank2r.bmp	0	1	+	0	4	B4r.bmp	492	1	blank2r.bmp	786	1	GKQX	786	1	blank2r.bmp	866	3	lachen	866	1	!	1239	1	!	1359	0	0	0	0	0	0	0	0	0	0	0	0	0	0	0	0	0	0	0	0	0	0	0	0	0	0	0
030619	12:53:43	13:07:34	830424	5.0.10.0	4_exp_AWA_CON_AMP_EVA	145	Rpleas_acq	Same	Rpleas	Bmasked	CS_B	1pleas	distractor2	CONbeforeEVA	cond_US_pleas_123_masked_CS1	condtest_masked_2	9	24	400	1	300	300	0	0	363	46	0	0	0	0	0	1	blank2r.bmp	0	1	+	0	7	C3r.bmp	492	1	blank2r.bmp	786	1	BMVZ	786	1	blank2r.bmp	866	2	loyal	866	1	!	1239	1	!	1266	0	0	0	0	0	0	0	0	0	0	0	0	0	0	0	0	0	0	0	0	0	0	0	0	0	0	0
030619	12:53:43	13:07:37	832756	5.0.10.0	4_exp_AWA_CON_AMP_EVA	145	Rpleas_acq	Same	Rpleas	Bmasked	CS_B	1pleas	distractor2	CONbeforeEVA	cond_new_unple_456_masked_CS1	condtest_masked_2	9	25	400	0	300	300	0	0	562	46	0	1	0	0	0	1	blank2r.bmp	0	1	+	0	3	B3r.bmp	492	1	blank2r.bmp	786	1	BMVZ	786	1	blank2r.bmp	866	3	leiden	866	1	!	1239	1	!	-1	0	0	0	0	0	0	0	0	0	0	0	0	0	0	0	0	0	0	0	0	0	0	0	0	0	0	0
030619	12:53:43	13:07:39	835022	5.0.10.0	4_exp_AWA_CON_AMP_EVA	145	Rpleas_acq	Same	Rpleas	Bmasked	CS_B	1pleas	distractor2	CONbeforeEVA	cond_new_pleas_456_masked_CS2	condtest_masked_2	9	26	400	0	300	300	0	0	479	50	0	1	0	0	0	1	blank2r.bmp	0	1	+	0	5	C1r.bmp	492	1	blank2r.bmp	786	1	GKQX	786	1	blank2r.bmp	866	1	retten	866	1	!	1239	1	!	-1	0	0	0	0	0	0	0	0	0	0	0	0	0	0	0	0	0	0	0	0	0	0	0	0	0	0	0
030619	12:53:43	13:07:41	837261	5.0.10.0	4_exp_AWA_CON_AMP_EVA	145	Rpleas_acq	Same	Rpleas	Bmasked	CS_B	1pleas	distractor2	CONbeforeEVA	cond_new_pleas_456_masked_CS2	condtest_masked_2	9	27	400	1	300	300	0	0	432	50	0	1	0	0	0	1	blank2r.bmp	0	1	+	0	6	C2r.bmp	492	1	blank2r.bmp	786	1	GKQX	786	1	blank2r.bmp	866	2	schlau	866	1	!	1239	1	!	1332	0	0	0	0	0	0	0	0	0	0	0	0	0	0	0	0	0	0	0	0	0	0	0	0	0	0	0
030619	12:53:43	13:07:43	839327	5.0.10.0	4_exp_AWA_CON_AMP_EVA	145	Rpleas_acq	Same	Rpleas	Bmasked	CS_B	1pleas	distractor2	CONbeforeEVA	cond_US_pleas_123_masked_CS1	condtest_masked_2	9	28	400	0	300	300	0	0	298	50	0	1	0	0	0	1	blank2r.bmp	0	1	+	0	2	B2r.bmp	492	1	blank2r.bmp	786	1	BMVZ	786	1	blank2r.bmp	866	3	schön	866	1	!	-1	1	!	-1	0	0	0	0	0	0	0	0	0	0	0	0	0	0	0	0	0	0	0	0	0	0	0	0	0	0	0
030619	12:53:43	13:07:46	841512	5.0.10.0	4_exp_AWA_CON_AMP_EVA	145	Rpleas_acq	Same	Rpleas	Bmasked	CS_B	1pleas	distractor2	CONbeforeEVA	cond_US_pleas_123_masked_CS2	condtest_masked_2	9	29	400	1	300	300	0	0	374	50	0	1	0	0	0	1	blank2r.bmp	0	1	+	0	5	C1r.bmp	492	1	blank2r.bmp	786	1	GKQX	786	1	blank2r.bmp	866	2	loyal	866	1	!	1239	1	!	1279	0	0	0	0	0	0	0	0	0	0	0	0	0	0	0	0	0	0	0	0	0	0	0	0	0	0	0
030619	12:53:43	13:07:48	843711	5.0.10.0	4_exp_AWA_CON_AMP_EVA	145	Rpleas_acq	Same	Rpleas	Bmasked	CS_B	1pleas	distractor2	CONbeforeEVA	cond_new_unple_456_masked_CS2	condtest_masked_2	9	30	400	1	300	300	0	0	390	50	0	0	0	0	0	1	blank2r.bmp	0	1	+	0	7	C3r.bmp	492	1	blank2r.bmp	786	1	GKQX	786	1	blank2r.bmp	866	1	rächen	866	1	!	1239	1	!	1292	0	0	0	0	0	0	0	0	0	0	0	0	0	0	0	0	0	0	0	0	0	0	0	0	0	0	0
030619	12:53:43	13:07:50	845977	5.0.10.0	4_exp_AWA_CON_AMP_EVA	145	Rpleas_acq	Same	Rpleas	Bmasked	CS_B	1pleas	distractor2	CONbeforeEVA	cond_US_unple_123_masked_CS1	condtest_masked_2	9	31	400	1	300	300	0	0	453	46	0	1	0	0	0	1	blank2r.bmp	0	1	+	0	3	B3r.bmp	492	1	blank2r.bmp	786	1	BMVZ	786	1	blank2r.bmp	866	3	schlecht	866	1	!	1239	1	!	1359	0	0	0	0	0	0	0	0	0	0	0	0	0	0	0	0	0	0	0	0	0	0	0	0	0	0	0
030619	12:53:43	13:07:52	848163	5.0.10.0	4_exp_AWA_CON_AMP_EVA	145	Rpleas_acq	Same	Rpleas	Bmasked	CS_B	1pleas	distractor2	CONbeforeEVA	cond_new_unple_456_masked_CS2	condtest_masked_2	9	32	400	1	300	300	0	0	396	46	0	1	0	0	0	1	blank2r.bmp	0	1	+	0	2	B2r.bmp	492	1	blank2r.bmp	786	1	GKQX	786	1	blank2r.bmp	866	2	schroff	866	1	!	1239	1	!	1292	0	0	0	0	0	0	0	0	0	0	0	0	0	0	0	0	0	0	0	0	0	0	0	0	0	0	0
030619	12:53:43	13:07:54	850362	5.0.10.0	4_exp_AWA_CON_AMP_EVA	145	Rpleas_acq	Same	Rpleas	Bmasked	CS_B	1pleas	distractor2	CONbeforeEVA	cond_US_pleas_123_masked_CS1	condtest_masked_2	9	33	400	1	300	300	0	0	403	50	0	1	0	0	0	1	blank2r.bmp	0	1	+	0	8	C4r.bmp	492	1	blank2r.bmp	786	1	BMVZ	786	1	blank2r.bmp	866	1	freundlich	866	1	!	1239	1	!	1306	0	0	0	0	0	0	0	0	0	0	0	0	0	0	0	0	0	0	0	0	0	0	0	0	0	0	0
030619	12:53:43	13:07:57	852614	5.0.10.0	4_exp_AWA_CON_AMP_EVA	145	Rpleas_acq	Same	Rpleas	Bmasked	CS_B	1pleas	distractor2	CONbeforeEVA	cond_US_unple_123_masked_CS2	condtest_masked_2	9	34	400	0	300	300	0	0	486	46	0	1	0	0	0	1	blank2r.bmp	0	1	+	0	1	B1r.bmp	492	1	blank2r.bmp	786	1	GKQX	786	1	blank2r.bmp	866	1	fanatisch	866	1	!	1239	1	!	-1	0	0	0	0	0	0	0	0	0	0	0	0	0	0	0	0	0	0	0	0	0	0	0	0	0	0	0
030619	12:53:43	13:07:59	854720	5.0.10.0	4_exp_AWA_CON_AMP_EVA	145	Rpleas_acq	Same	Rpleas	Bmasked	CS_B	1pleas	distractor2	CONbeforeEVA	cond_US_unple_123_masked_CS1	condtest_masked_2	9	35	400	0	300	300	0	0	323	50	0	0	0	0	0	1	blank2r.bmp	0	1	+	0	4	B4r.bmp	492	1	blank2r.bmp	786	1	BMVZ	786	1	blank2r.bmp	866	2	lasch	866	1	!	-1	1	!	-1	0	0	0	0	0	0	0	0	0	0	0	0	0	0	0	0	0	0	0	0	0	0	0	0	0	0	0
030619	12:53:43	13:08:01	856893	5.0.10.0	4_exp_AWA_CON_AMP_EVA	145	Rpleas_acq	Same	Rpleas	Bmasked	CS_B	1pleas	distractor2	CONbeforeEVA	cond_US_unple_123_masked_CS2	condtest_masked_2	9	36	400	1	300	300	0	0	365	46	0	1	0	0	0	1	blank2r.bmp	0	1	+	0	6	C2r.bmp	492	1	blank2r.bmp	786	1	GKQX	786	1	blank2r.bmp	866	3	schlecht	866	1	!	1239	1	!	1266	0	0	0	0	0	0	0	0	0	0	0	0	0	0	0	0	0	0	0	0	0	0	0	0	0	0	0
030619	12:53:43	13:08:03	859105	5.0.10.0	4_exp_AWA_CON_AMP_EVA	145	Rpleas_acq	Same	Rpleas	Bmasked	CS_B	1pleas	distractor2	CONbeforeEVA	cond_new_unple_456_masked_CS1	condtest_masked_2	9	37	400	1	300	300	0	0	418	46	0	1	0	0	0	1	blank2r.bmp	0	1	+	0	8	C4r.bmp	492	1	blank2r.bmp	786	1	BMVZ	786	1	blank2r.bmp	866	2	schroff	866	1	!	1239	1	!	1319	0	0	0	0	0	0	0	0	0	0	0	0	0	0	0	0	0	0	0	0	0	0	0	0	0	0	0
030619	12:53:43	13:08:05	861291	5.0.10.0	4_exp_AWA_CON_AMP_EVA	145	Rpleas_acq	Same	Rpleas	Bmasked	CS_B	1pleas	distractor2	CONbeforeEVA	cond_new_unple_456_masked_CS1	condtest_masked_2	9	38	400	1	300	300	0	0	389	46	0	1	0	0	0	1	blank2r.bmp	0	1	+	0	4	B4r.bmp	492	1	blank2r.bmp	786	1	BMVZ	786	1	blank2r.bmp	866	3	leiden	866	1	!	1239	1	!	1292	0	0	0	0	0	0	0	0	0	0	0	0	0	0	0	0	0	0	0	0	0	0	0	0	0	0	0
030619	12:53:43	13:08:08	863490	5.0.10.0	4_exp_AWA_CON_AMP_EVA	145	Rpleas_acq	Same	Rpleas	Bmasked	CS_B	1pleas	distractor2	CONbeforeEVA	cond_new_unple_456_masked_CS1	condtest_masked_2	9	39	400	1	300	300	0	0	404	46	0	1	0	0	0	1	blank2r.bmp	0	1	+	0	3	B3r.bmp	492	1	blank2r.bmp	786	1	BMVZ	786	1	blank2r.bmp	866	1	rächen	866	1	!	1239	1	!	1306	0	0	0	0	0	0	0	0	0	0	0	0	0	0	0	0	0	0	0	0	0	0	0	0	0	0	0
030619	12:53:43	13:08:10	865676	5.0.10.0	4_exp_AWA_CON_AMP_EVA	145	Rpleas_acq	Same	Rpleas	Bmasked	CS_B	1pleas	distractor2	CONbeforeEVA	cond_US_pleas_123_masked_CS2	condtest_masked_2	9	40	400	1	300	300	0	0	391	50	0	1	0	0	0	1	blank2r.bmp	0	1	+	0	7	C3r.bmp	492	1	blank2r.bmp	786	1	GKQX	786	1	blank2r.bmp	866	3	schön	866	1	!	1239	1	!	1292	0	0	0	0	0	0	0	0	0	0	0	0	0	0	0	0	0	0	0	0	0	0	0	0	0	0	0
030619	12:53:43	13:08:17	873126	5.0.10.0	4_exp_AWA_CON_AMP_EVA	145	Rpleas_acq	Same	Rpleas	Bmasked	CS_B	1pleas	distractor2	CONbeforeEVA	cond_US_pleas_456_masked_CS2	condtest_masked_3	10	1	400	1	300	300	0	0	351	46	0	0	0	0	0	1	blank2r.bmp	0	1	+	0	5	C1r.bmp	492	1	blank2r.bmp	786	1	GKQX	786	1	blank2r.bmp	866	2	helfen	866	1	!	1239	1	!	1252	0	0	0	0	0	0	0	0	0	0	0	0	0	0	0	0	0	0	0	0	0	0	0	0	0	0	0
030619	12:53:43	13:08:19	875285	5.0.10.0	4_exp_AWA_CON_AMP_EVA	145	Rpleas_acq	Same	Rpleas	Bmasked	CS_B	1pleas	distractor2	CONbeforeEVA	cond_new_unple_123_masked_CS1	condtest_masked_3	10	2	400	1	300	300	0	0	369	50	0	0	0	0	0	1	blank2r.bmp	0	1	+	0	2	B2r.bmp	492	1	blank2r.bmp	786	1	BMVZ	786	1	blank2r.bmp	866	2	strafen	866	1	!	1239	1	!	1266	0	0	0	0	0	0	0	0	0	0	0	0	0	0	0	0	0	0	0	0	0	0	0	0	0	0	0
030619	12:53:43	13:08:22	877511	5.0.10.0	4_exp_AWA_CON_AMP_EVA	145	Rpleas_acq	Same	Rpleas	Bmasked	CS_B	1pleas	distractor2	CONbeforeEVA	cond_new_unple_123_masked_CS1	condtest_masked_3	10	3	400	1	300	300	0	0	433	46	0	1	0	0	0	1	blank2r.bmp	0	1	+	0	1	B1r.bmp	492	1	blank2r.bmp	786	1	BMVZ	786	1	blank2r.bmp	866	1	tot	866	1	!	1239	1	!	1332	0	0	0	0	0	0	0	0	0	0	0	0	0	0	0	0	0	0	0	0	0	0	0	0	0	0	0
030619	12:53:43	13:08:24	879856	5.0.10.0	4_exp_AWA_CON_AMP_EVA	145	Rpleas_acq	Same	Rpleas	Bmasked	CS_B	1pleas	distractor2	CONbeforeEVA	cond_US_pleas_456_masked_CS1	condtest_masked_3	10	4	400	0	300	300	0	0	583	50	0	1	0	0	0	1	blank2r.bmp	0	1	+	0	6	C2r.bmp	492	1	blank2r.bmp	786	1	BMVZ	786	1	blank2r.bmp	866	3	tolerant	866	1	!	1239	1	!	-1	0	0	0	0	0	0	0	0	0	0	0	0	0	0	0	0	0	0	0	0	0	0	0	0	0	0	0
030619	12:53:43	13:08:26	882109	5.0.10.0	4_exp_AWA_CON_AMP_EVA	145	Rpleas_acq	Same	Rpleas	Bmasked	CS_B	1pleas	distractor2	CONbeforeEVA	cond_US_unple_456_masked_CS2	condtest_masked_3	10	5	400	1	300	300	0	0	443	46	0	1	0	0	0	1	blank2r.bmp	0	1	+	0	8	C4r.bmp	492	1	blank2r.bmp	786	1	GKQX	786	1	blank2r.bmp	866	3	tyrannisch	866	1	!	1239	1	!	1346	0	0	0	0	0	0	0	0	0	0	0	0	0	0	0	0	0	0	0	0	0	0	0	0	0	0	0
030619	12:53:43	13:08:28	884334	5.0.10.0	4_exp_AWA_CON_AMP_EVA	145	Rpleas_acq	Same	Rpleas	Bmasked	CS_B	1pleas	distractor2	CONbeforeEVA	cond_US_unple_456_masked_CS2	condtest_masked_3	10	6	400	1	300	300	0	0	427	50	0	0	0	0	0	1	blank2r.bmp	0	1	+	0	6	C2r.bmp	492	1	blank2r.bmp	786	1	GKQX	786	1	blank2r.bmp	866	1	faul	866	1	!	1239	1	!	1332	0	0	0	0	0	0	0	0	0	0	0	0	0	0	0	0	0	0	0	0	0	0	0	0	0	0	0
030619	12:53:43	13:08:31	886560	5.0.10.0	4_exp_AWA_CON_AMP_EVA	145	Rpleas_acq	Same	Rpleas	Bmasked	CS_B	1pleas	distractor2	CONbeforeEVA	cond_new_pleas_123_masked_CS1	condtest_masked_3	10	7	400	1	300	300	0	0	415	46	0	0	0	0	0	1	blank2r.bmp	0	1	+	0	7	C3r.bmp	492	1	blank2r.bmp	786	1	BMVZ	786	1	blank2r.bmp	866	2	spielen	866	1	!	1239	1	!	1319	0	0	0	0	0	0	0	0	0	0	0	0	0	0	0	0	0	0	0	0	0	0	0	0	0	0	0
030619	12:53:43	13:08:33	888893	5.0.10.0	4_exp_AWA_CON_AMP_EVA	145	Rpleas_acq	Same	Rpleas	Bmasked	CS_B	1pleas	distractor2	CONbeforeEVA	cond_new_unple_123_masked_CS2	condtest_masked_3	10	8	400	0	300	300	0	0	567	46	0	1	0	0	0	1	blank2r.bmp	0	1	+	0	1	B1r.bmp	492	1	blank2r.bmp	786	1	GKQX	786	1	blank2r.bmp	866	3	eitel	866	1	!	1239	1	!	-1	0	0	0	0	0	0	0	0	0	0	0	0	0	0	0	0	0	0	0	0	0	0	0	0	0	0	0
030619	12:53:43	13:08:35	891358	5.0.10.0	4_exp_AWA_CON_AMP_EVA	145	Rpleas_acq	Same	Rpleas	Bmasked	CS_B	1pleas	distractor2	CONbeforeEVA	cond_new_unple_123_masked_CS2	condtest_masked_3	10	9	400	0	300	300	0	0	669	46	0	1	0	0	0	1	blank2r.bmp	0	1	+	0	5	C1r.bmp	492	1	blank2r.bmp	786	1	GKQX	786	1	blank2r.bmp	866	2	strafen	866	1	!	1239	1	!	-1	0	0	0	0	0	0	0	0	0	0	0	0	0	0	0	0	0	0	0	0	0	0	0	0	0	0	0
030619	12:53:43	13:08:38	893597	5.0.10.0	4_exp_AWA_CON_AMP_EVA	145	Rpleas_acq	Same	Rpleas	Bmasked	CS_B	1pleas	distractor2	CONbeforeEVA	cond_new_pleas_123_masked_CS2	condtest_masked_3	10	10	400	1	300	300	0	0	417	50	0	1	0	0	0	1	blank2r.bmp	0	1	+	0	3	B3r.bmp	492	1	blank2r.bmp	786	1	GKQX	786	1	blank2r.bmp	866	1	treu	866	1	!	1239	1	!	1319	0	0	0	0	0	0	0	0	0	0	0	0	0	0	0	0	0	0	0	0	0	0	0	0	0	0	0
030619	12:53:43	13:08:40	895810	5.0.10.0	4_exp_AWA_CON_AMP_EVA	145	Rpleas_acq	Same	Rpleas	Bmasked	CS_B	1pleas	distractor2	CONbeforeEVA	cond_new_pleas_123_masked_CS1	condtest_masked_3	10	11	400	1	300	300	0	0	415	46	0	0	0	0	0	1	blank2r.bmp	0	1	+	0	2	B2r.bmp	492	1	blank2r.bmp	786	1	BMVZ	786	1	blank2r.bmp	866	3	ehrlich	866	1	!	1239	1	!	1319	0	0	0	0	0	0	0	0	0	0	0	0	0	0	0	0	0	0	0	0	0	0	0	0	0	0	0
030619	12:53:43	13:08:42	898022	5.0.10.0	4_exp_AWA_CON_AMP_EVA	145	Rpleas_acq	Same	Rpleas	Bmasked	CS_B	1pleas	distractor2	CONbeforeEVA	cond_US_pleas_456_masked_CS2	condtest_masked_3	10	12	400	1	300	300	0	0	415	46	0	0	0	0	0	1	blank2r.bmp	0	1	+	0	4	B4r.bmp	492	1	blank2r.bmp	786	1	GKQX	786	1	blank2r.bmp	866	1	fair	866	1	!	1239	1	!	1319	0	0	0	0	0	0	0	0	0	0	0	0	0	0	0	0	0	0	0	0	0	0	0	0	0	0	0
030619	12:53:43	13:08:44	900261	5.0.10.0	4_exp_AWA_CON_AMP_EVA	145	Rpleas_acq	Same	Rpleas	Bmasked	CS_B	1pleas	distractor2	CONbeforeEVA	cond_new_pleas_123_masked_CS2	condtest_masked_3	10	13	400	1	300	300	0	0	450	46	0	0	0	0	0	1	blank2r.bmp	0	1	+	0	6	C2r.bmp	492	1	blank2r.bmp	786	1	GKQX	786	1	blank2r.bmp	866	1	treu	866	1	!	1239	1	!	1346	0	0	0	0	0	0	0	0	0	0	0	0	0	0	0	0	0	0	0	0	0	0	0	0	0	0	0
030619	12:53:43	13:08:47	902513	5.0.10.0	4_exp_AWA_CON_AMP_EVA	145	Rpleas_acq	Same	Rpleas	Bmasked	CS_B	1pleas	distractor2	CONbeforeEVA	cond_US_unple_456_masked_CS1	condtest_masked_3	10	14	400	1	300	300	0	0	443	50	0	0	0	0	0	1	blank2r.bmp	0	1	+	0	2	B2r.bmp	492	1	blank2r.bmp	786	1	BMVZ	786	1	blank2r.bmp	866	2	hindern	866	1	!	1239	1	!	1346	0	0	0	0	0	0	0	0	0	0	0	0	0	0	0	0	0	0	0	0	0	0	0	0	0	0	0
030619	12:53:43	13:08:49	904753	5.0.10.0	4_exp_AWA_CON_AMP_EVA	145	Rpleas_acq	Same	Rpleas	Bmasked	CS_B	1pleas	distractor2	CONbeforeEVA	cond_new_pleas_123_masked_CS2	condtest_masked_3	10	15	400	1	300	300	0	0	449	50	0	1	0	0	0	1	blank2r.bmp	0	1	+	0	5	C1r.bmp	492	1	blank2r.bmp	786	1	GKQX	786	1	blank2r.bmp	866	2	spielen	866	1	!	1239	1	!	1346	0	0	0	0	0	0	0	0	0	0	0	0	0	0	0	0	0	0	0	0	0	0	0	0	0	0	0
030619	12:53:43	13:08:51	907152	5.0.10.0	4_exp_AWA_CON_AMP_EVA	145	Rpleas_acq	Same	Rpleas	Bmasked	CS_B	1pleas	distractor2	CONbeforeEVA	cond_US_pleas_456_masked_CS1	condtest_masked_3	10	16	400	0	300	300	0	0	635	50	0	1	0	0	0	1	blank2r.bmp	0	1	+	0	1	B1r.bmp	492	1	blank2r.bmp	786	1	BMVZ	786	1	blank2r.bmp	866	3	tolerant	866	1	!	1239	1	!	-1	0	0	0	0	0	0	0	0	0	0	0	0	0	0	0	0	0	0	0	0	0	0	0	0	0	0	0
030619	12:53:43	13:08:53	909391	5.0.10.0	4_exp_AWA_CON_AMP_EVA	145	Rpleas_acq	Same	Rpleas	Bmasked	CS_B	1pleas	distractor2	CONbeforeEVA	cond_new_unple_123_masked_CS2	condtest_masked_3	10	17	400	1	300	300	0	0	432	46	0	1	0	0	0	1	blank2r.bmp	0	1	+	0	4	B4r.bmp	492	1	blank2r.bmp	786	1	GKQX	786	1	blank2r.bmp	866	1	tot	866	1	!	1239	1	!	1332	0	0	0	0	0	0	0	0	0	0	0	0	0	0	0	0	0	0	0	0	0	0	0	0	0	0	0
030619	12:53:43	13:08:56	911630	5.0.10.0	4_exp_AWA_CON_AMP_EVA	145	Rpleas_acq	Same	Rpleas	Bmasked	CS_B	1pleas	distractor2	CONbeforeEVA	cond_new_unple_123_masked_CS2	condtest_masked_3	10	18	400	1	300	300	0	0	438	50	0	0	0	0	0	1	blank2r.bmp	0	1	+	0	8	C4r.bmp	492	1	blank2r.bmp	786	1	GKQX	786	1	blank2r.bmp	866	3	eitel	866	1	!	1239	1	!	1346	0	0	0	0	0	0	0	0	0	0	0	0	0	0	0	0	0	0	0	0	0	0	0	0	0	0	0
030619	12:53:43	13:08:58	913815	5.0.10.0	4_exp_AWA_CON_AMP_EVA	145	Rpleas_acq	Same	Rpleas	Bmasked	CS_B	1pleas	distractor2	CONbeforeEVA	cond_US_pleas_456_masked_CS2	condtest_masked_3	10	19	400	1	300	300	0	0	391	50	0	1	0	0	0	1	blank2r.bmp	0	1	+	0	3	B3r.bmp	492	1	blank2r.bmp	786	1	GKQX	786	1	blank2r.bmp	866	1	fair	866	1	!	1239	1	!	1292	0	0	0	0	0	0	0	0	0	0	0	0	0	0	0	0	0	0	0	0	0	0	0	0	0	0	0
030619	12:53:43	13:09:00	916001	5.0.10.0	4_exp_AWA_CON_AMP_EVA	145	Rpleas_acq	Same	Rpleas	Bmasked	CS_B	1pleas	distractor2	CONbeforeEVA	cond_US_pleas_456_masked_CS2	condtest_masked_3	10	20	400	1	300	300	0	0	394	50	0	1	0	0	0	1	blank2r.bmp	0	1	+	0	7	C3r.bmp	492	1	blank2r.bmp	786	1	GKQX	786	1	blank2r.bmp	866	2	helfen	866	1	!	1239	1	!	1292	0	0	0	0	0	0	0	0	0	0	0	0	0	0	0	0	0	0	0	0	0	0	0	0	0	0	0
030619	12:53:43	13:09:02	918160	5.0.10.0	4_exp_AWA_CON_AMP_EVA	145	Rpleas_acq	Same	Rpleas	Bmasked	CS_B	1pleas	distractor2	CONbeforeEVA	cond_new_unple_123_masked_CS1	condtest_masked_3	10	21	400	1	300	300	0	0	346	50	0	0	0	0	0	1	blank2r.bmp	0	1	+	0	4	B4r.bmp	492	1	blank2r.bmp	786	1	BMVZ	786	1	blank2r.bmp	866	1	tot	866	1	!	1239	1	!	1252	0	0	0	0	0	0	0	0	0	0	0	0	0	0	0	0	0	0	0	0	0	0	0	0	0	0	0
030619	12:53:43	13:09:05	920573	5.0.10.0	4_exp_AWA_CON_AMP_EVA	145	Rpleas_acq	Same	Rpleas	Bmasked	CS_B	1pleas	distractor2	CONbeforeEVA	cond_new_pleas_123_masked_CS1	condtest_masked_3	10	22	400	0	300	300	0	0	638	50	0	1	0	0	0	1	blank2r.bmp	0	1	+	0	5	C1r.bmp	492	1	blank2r.bmp	786	1	BMVZ	786	1	blank2r.bmp	866	3	ehrlich	866	1	!	1239	1	!	-1	0	0	0	0	0	0	0	0	0	0	0	0	0	0	0	0	0	0	0	0	0	0	0	0	0	0	0
030619	12:53:43	13:09:07	922785	5.0.10.0	4_exp_AWA_CON_AMP_EVA	145	Rpleas_acq	Same	Rpleas	Bmasked	CS_B	1pleas	distractor2	CONbeforeEVA	cond_US_pleas_456_masked_CS1	condtest_masked_3	10	23	400	1	300	300	0	0	401	50	0	1	0	0	0	1	blank2r.bmp	0	1	+	0	8	C4r.bmp	492	1	blank2r.bmp	786	1	BMVZ	786	1	blank2r.bmp	866	1	fair	866	1	!	1239	1	!	1306	0	0	0	0	0	0	0	0	0	0	0	0	0	0	0	0	0	0	0	0	0	0	0	0	0	0	0
030619	12:53:43	13:09:09	925037	5.0.10.0	4_exp_AWA_CON_AMP_EVA	145	Rpleas_acq	Same	Rpleas	Bmasked	CS_B	1pleas	distractor2	CONbeforeEVA	cond_US_unple_456_masked_CS1	condtest_masked_3	10	24	400	0	300	300	0	0	479	46	0	1	0	0	0	1	blank2r.bmp	0	1	+	0	6	C2r.bmp	492	1	blank2r.bmp	786	1	BMVZ	786	1	blank2r.bmp	866	1	faul	866	1	!	1239	1	!	-1	0	0	0	0	0	0	0	0	0	0	0	0	0	0	0	0	0	0	0	0	0	0	0	0	0	0	0
030619	12:53:43	13:09:11	927303	5.0.10.0	4_exp_AWA_CON_AMP_EVA	145	Rpleas_acq	Same	Rpleas	Bmasked	CS_B	1pleas	distractor2	CONbeforeEVA	cond_US_unple_456_masked_CS1	condtest_masked_3	10	25	400	1	300	300	0	0	451	46	0	1	0	0	0	1	blank2r.bmp	0	1	+	0	2	B2r.bmp	492	1	blank2r.bmp	786	1	BMVZ	786	1	blank2r.bmp	866	3	tyrannisch	866	1	!	1239	1	!	1346	0	0	0	0	0	0	0	0	0	0	0	0	0	0	0	0	0	0	0	0	0	0	0	0	0	0	0
030619	12:53:43	13:09:14	929489	5.0.10.0	4_exp_AWA_CON_AMP_EVA	145	Rpleas_acq	Same	Rpleas	Bmasked	CS_B	1pleas	distractor2	CONbeforeEVA	cond_new_unple_123_masked_CS1	condtest_masked_3	10	26	400	1	300	300	0	0	395	50	0	0	0	0	0	1	blank2r.bmp	0	1	+	0	3	B3r.bmp	492	1	blank2r.bmp	786	1	BMVZ	786	1	blank2r.bmp	866	3	eitel	866	1	!	1239	1	!	1292	0	0	0	0	0	0	0	0	0	0	0	0	0	0	0	0	0	0	0	0	0	0	0	0	0	0	0
030619	12:53:43	13:09:16	931715	5.0.10.0	4_exp_AWA_CON_AMP_EVA	145	Rpleas_acq	Same	Rpleas	Bmasked	CS_B	1pleas	distractor2	CONbeforeEVA	cond_new_pleas_123_masked_CS1	condtest_masked_3	10	27	400	1	300	300	0	0	436	50	0	1	0	0	0	1	blank2r.bmp	0	1	+	0	1	B1r.bmp	492	1	blank2r.bmp	786	1	BMVZ	786	1	blank2r.bmp	866	1	treu	866	1	!	1239	1	!	1332	0	0	0	0	0	0	0	0	0	0	0	0	0	0	0	0	0	0	0	0	0	0	0	0	0	0	0
030619	12:53:43	13:09:18	933967	5.0.10.0	4_exp_AWA_CON_AMP_EVA	145	Rpleas_acq	Same	Rpleas	Bmasked	CS_B	1pleas	distractor2	CONbeforeEVA	cond_US_unple_456_masked_CS2	condtest_masked_3	10	28	400	0	300	300	0	0	479	46	0	1	0	0	0	1	blank2r.bmp	0	1	+	0	7	C3r.bmp	492	1	blank2r.bmp	786	1	GKQX	786	1	blank2r.bmp	866	2	hindern	866	1	!	1239	1	!	-1	0	0	0	0	0	0	0	0	0	0	0	0	0	0	0	0	0	0	0	0	0	0	0	0	0	0	0
030619	12:53:43	13:09:20	936219	5.0.10.0	4_exp_AWA_CON_AMP_EVA	145	Rpleas_acq	Same	Rpleas	Bmasked	CS_B	1pleas	distractor2	CONbeforeEVA	cond_US_unple_456_masked_CS2	condtest_masked_3	10	29	400	1	300	300	0	0	445	46	0	1	0	0	0	1	blank2r.bmp	0	1	+	0	8	C4r.bmp	492	1	blank2r.bmp	786	1	GKQX	786	1	blank2r.bmp	866	1	faul	866	1	!	1239	1	!	1346	0	0	0	0	0	0	0	0	0	0	0	0	0	0	0	0	0	0	0	0	0	0	0	0	0	0	0
030619	12:53:43	13:09:22	938432	5.0.10.0	4_exp_AWA_CON_AMP_EVA	145	Rpleas_acq	Same	Rpleas	Bmasked	CS_B	1pleas	distractor2	CONbeforeEVA	cond_new_pleas_123_masked_CS2	condtest_masked_3	10	30	400	1	300	300	0	0	405	50	0	1	0	0	0	1	blank2r.bmp	0	1	+	0	7	C3r.bmp	492	1	blank2r.bmp	786	1	GKQX	786	1	blank2r.bmp	866	2	spielen	866	1	!	1239	1	!	1306	0	0	0	0	0	0	0	0	0	0	0	0	0	0	0	0	0	0	0	0	0	0	0	0	0	0	0
030619	12:53:43	13:09:25	940644	5.0.10.0	4_exp_AWA_CON_AMP_EVA	145	Rpleas_acq	Same	Rpleas	Bmasked	CS_B	1pleas	distractor2	CONbeforeEVA	cond_new_pleas_123_masked_CS2	condtest_masked_3	10	31	400	1	300	300	0	0	417	46	0	0	0	0	0	1	blank2r.bmp	0	1	+	0	4	B4r.bmp	492	1	blank2r.bmp	786	1	GKQX	786	1	blank2r.bmp	866	3	ehrlich	866	1	!	1239	1	!	1319	0	0	0	0	0	0	0	0	0	0	0	0	0	0	0	0	0	0	0	0	0	0	0	0	0	0	0
