date	time	script.currenttime	script.elapsedtime	build	script.currentexpt	subject	expressions.LRpleas_acq	expressions.SameOppo	expressions.condition_Lpleas	expressions.ABmasked	expressions.conditionCS_A	expressions.condition_1pleas	expressions.condition_distractor_AMP	expressions.AWACON_AMPEVA_first	trialcode	blockcode	blocknum	trialnum	windowcenter	inwindow	pretrialpause	posttrialpause	trialduration	trialtimeout	latency	response	expressions.correctedscore	correct	values.vis_performance	values.vis_rating_sum	values.vis_rating_mean	stimulusnumber1	stimulusitem1	stimulusonset1	stimulusnumber2	stimulusitem2	stimulusonset2	stimulusnumber3	stimulusitem3	stimulusonset3	stimulusnumber4	stimulusitem4	stimulusonset4	stimulusnumber5	stimulusitem5	stimulusonset5	stimulusnumber6	stimulusitem6	stimulusonset6	stimulusnumber7	stimulusitem7	stimulusonset7	stimulusnumber8	stimulusitem8	stimulusonset8	stimulusnumber9	stimulusitem9	stimulusonset9	stimulusnumber10	stimulusitem10	stimulusonset10	stimulusnumber11	stimulusitem11	stimulusonset11	stimulusnumber12	stimulusitem12	stimulusonset12	stimulusnumber13	stimulusitem13	stimulusonset13	stimulusnumber14	stimulusitem14	stimulusonset14	stimulusnumber15	stimulusitem15	stimulusonset15	stimulusnumber16	stimulusitem16	stimulusonset16	stimulusnumber17	stimulusitem17	stimulusonset17	stimulusnumber18	stimulusitem18	stimulusonset18
011519	12:39:22	12:41:20	117736	5.0.10.0	4_exp_EVA_AMP_AWA_CON	69	Rpleas_acq	Oppo	Rpleas	Bmasked	CS_B	1pleas	distractor1	EVAbeforeCON	acq_new_pleas_masked	acq1_masked	1	1	0	0	300	300	0	0	1865	50	0	1	0	0	0	1	blank2r.bmp	0	1	+	0	5	C1r.bmp	492	1	blank2r.bmp	786	2	B2r.bmp	786	1	blank2r.bmp	866	1	schlau	866	0	0	0	0	0	0	0	0	0	0	0	0	0	0	0	0	0	0	0	0	0	0	0	0	0	0	0	0	0	0	0	0	0
011519	12:39:22	12:41:22	120095	5.0.10.0	4_exp_EVA_AMP_AWA_CON	69	Rpleas_acq	Oppo	Rpleas	Bmasked	CS_B	1pleas	distractor1	EVAbeforeCON	acq_US_unple_masked	acq1_masked	1	2	0	0	300	300	0	0	883	46	0	1	0	0	0	1	blank2r.bmp	0	1	+	0	8	C4r.bmp	492	1	blank2r.bmp	786	1	GKQX	786	1	blank2r.bmp	866	6	schlecht	866	0	0	0	0	0	0	0	0	0	0	0	0	0	0	0	0	0	0	0	0	0	0	0	0	0	0	0	0	0	0	0	0	0
011519	12:39:22	12:41:25	122348	5.0.10.0	4_exp_EVA_AMP_AWA_CON	69	Rpleas_acq	Oppo	Rpleas	Bmasked	CS_B	1pleas	distractor1	EVAbeforeCON	acq_new_unple_masked	acq1_masked	1	3	0	0	300	300	0	0	760	46	0	1	0	0	0	1	blank2r.bmp	0	1	+	0	7	C3r.bmp	492	1	blank2r.bmp	786	8	C4r.bmp	786	1	blank2r.bmp	866	3	faul	866	0	0	0	0	0	0	0	0	0	0	0	0	0	0	0	0	0	0	0	0	0	0	0	0	0	0	0	0	0	0	0	0	0
011519	12:39:22	12:41:27	124494	5.0.10.0	4_exp_EVA_AMP_AWA_CON	69	Rpleas_acq	Oppo	Rpleas	Bmasked	CS_B	1pleas	distractor1	EVAbeforeCON	acq_US_unple_masked	acq1_masked	1	4	0	0	300	300	0	0	667	46	0	1	0	0	0	1	blank2r.bmp	0	1	+	0	3	B3r.bmp	492	1	blank2r.bmp	786	1	GKQX	786	1	blank2r.bmp	866	4	lasch	866	0	0	0	0	0	0	0	0	0	0	0	0	0	0	0	0	0	0	0	0	0	0	0	0	0	0	0	0	0	0	0	0	0
011519	12:39:22	12:41:29	126506	5.0.10.0	4_exp_EVA_AMP_AWA_CON	69	Rpleas_acq	Oppo	Rpleas	Bmasked	CS_B	1pleas	distractor1	EVAbeforeCON	acq_new_pleas_masked	acq1_masked	1	5	0	0	300	300	0	0	521	50	0	1	0	0	0	1	blank2r.bmp	0	1	+	0	2	B2r.bmp	492	1	blank2r.bmp	786	6	C2r.bmp	786	1	blank2r.bmp	866	2	ehrlich	866	0	0	0	0	0	0	0	0	0	0	0	0	0	0	0	0	0	0	0	0	0	0	0	0	0	0	0	0	0	0	0	0	0
011519	12:39:22	12:41:31	128639	5.0.10.0	4_exp_EVA_AMP_AWA_CON	69	Rpleas_acq	Oppo	Rpleas	Bmasked	CS_B	1pleas	distractor1	EVAbeforeCON	acq_new_unple_masked	acq1_masked	1	6	0	0	300	300	0	0	639	46	0	1	0	0	0	1	blank2r.bmp	0	1	+	0	6	C2r.bmp	492	1	blank2r.bmp	786	5	C1r.bmp	786	1	blank2r.bmp	866	6	tyrannisch	866	0	0	0	0	0	0	0	0	0	0	0	0	0	0	0	0	0	0	0	0	0	0	0	0	0	0	0	0	0	0	0	0	0
011519	12:39:22	12:41:33	130718	5.0.10.0	4_exp_EVA_AMP_AWA_CON	69	Rpleas_acq	Oppo	Rpleas	Bmasked	CS_B	1pleas	distractor1	EVAbeforeCON	acq_US_pleas_masked	acq1_masked	1	7	0	0	300	300	0	0	603	50	0	1	0	0	0	1	blank2r.bmp	0	1	+	0	1	B1r.bmp	492	1	blank2r.bmp	786	1	BMVZ	786	1	blank2r.bmp	866	2	lachen	866	0	0	0	0	0	0	0	0	0	0	0	0	0	0	0	0	0	0	0	0	0	0	0	0	0	0	0	0	0	0	0	0	0
011519	12:39:22	12:41:35	132757	5.0.10.0	4_exp_EVA_AMP_AWA_CON	69	Rpleas_acq	Oppo	Rpleas	Bmasked	CS_B	1pleas	distractor1	EVAbeforeCON	acq_new_pleas_masked	acq1_masked	1	8	0	0	300	300	0	0	547	50	0	1	0	0	0	1	blank2r.bmp	0	1	+	0	4	B4r.bmp	492	1	blank2r.bmp	786	7	C3r.bmp	786	1	blank2r.bmp	866	4	freundlich	866	0	0	0	0	0	0	0	0	0	0	0	0	0	0	0	0	0	0	0	0	0	0	0	0	0	0	0	0	0	0	0	0	0
011519	12:39:22	12:41:37	134996	5.0.10.0	4_exp_EVA_AMP_AWA_CON	69	Rpleas_acq	Oppo	Rpleas	Bmasked	CS_B	1pleas	distractor1	EVAbeforeCON	acq_new_unple_masked	acq1_masked	1	9	0	0	300	300	0	0	548	50	0	0	0	0	0	1	blank2r.bmp	0	1	+	0	6	C2r.bmp	492	1	blank2r.bmp	786	4	B4r.bmp	786	1	blank2r.bmp	866	2	eitel	866	1	FEHLER	1452	0	0	0	0	0	0	0	0	0	0	0	0	0	0	0	0	0	0	0	0	0	0	0	0	0	0	0	0	0	0
011519	12:39:22	12:41:39	136875	5.0.10.0	4_exp_EVA_AMP_AWA_CON	69	Rpleas_acq	Oppo	Rpleas	Bmasked	CS_B	1pleas	distractor1	EVAbeforeCON	acq_US_pleas_masked	acq1_masked	1	10	0	0	300	300	0	0	618	50	0	1	0	0	0	1	blank2r.bmp	0	1	+	0	2	B2r.bmp	492	1	blank2r.bmp	786	1	BMVZ	786	1	blank2r.bmp	866	4	loyal	866	0	0	0	0	0	0	0	0	0	0	0	0	0	0	0	0	0	0	0	0	0	0	0	0	0	0	0	0	0	0	0	0	0
011519	12:39:22	12:41:41	138954	5.0.10.0	4_exp_EVA_AMP_AWA_CON	69	Rpleas_acq	Oppo	Rpleas	Bmasked	CS_B	1pleas	distractor1	EVAbeforeCON	acq_US_unple_masked	acq1_masked	1	11	0	0	300	300	0	0	595	46	0	1	0	0	0	1	blank2r.bmp	0	1	+	0	5	C1r.bmp	492	1	blank2r.bmp	786	1	GKQX	786	1	blank2r.bmp	866	2	leiden	866	0	0	0	0	0	0	0	0	0	0	0	0	0	0	0	0	0	0	0	0	0	0	0	0	0	0	0	0	0	0	0	0	0
011519	12:39:22	12:41:44	141407	5.0.10.0	4_exp_EVA_AMP_AWA_CON	69	Rpleas_acq	Oppo	Rpleas	Bmasked	CS_B	1pleas	distractor1	EVAbeforeCON	acq_US_pleas_masked	acq1_masked	1	12	0	0	300	300	0	0	752	46	0	0	0	0	0	1	blank2r.bmp	0	1	+	0	3	B3r.bmp	492	1	blank2r.bmp	786	1	BMVZ	786	1	blank2r.bmp	866	1	helfen	866	1	FEHLER	1652	0	0	0	0	0	0	0	0	0	0	0	0	0	0	0	0	0	0	0	0	0	0	0	0	0	0	0	0	0	0
011519	12:39:22	12:41:45	143152	5.0.10.0	4_exp_EVA_AMP_AWA_CON	69	Rpleas_acq	Oppo	Rpleas	Bmasked	CS_B	1pleas	distractor1	EVAbeforeCON	acq_new_unple_masked	acq1_masked	1	13	0	0	300	300	0	0	487	46	0	1	0	0	0	1	blank2r.bmp	0	1	+	0	8	C4r.bmp	492	1	blank2r.bmp	786	1	B1r.bmp	786	1	blank2r.bmp	866	5	tot	866	0	0	0	0	0	0	0	0	0	0	0	0	0	0	0	0	0	0	0	0	0	0	0	0	0	0	0	0	0	0	0	0	0
011519	12:39:22	12:41:48	145245	5.0.10.0	4_exp_EVA_AMP_AWA_CON	69	Rpleas_acq	Oppo	Rpleas	Bmasked	CS_B	1pleas	distractor1	EVAbeforeCON	acq_US_unple_masked	acq1_masked	1	14	0	0	300	300	0	0	607	46	0	1	0	0	0	1	blank2r.bmp	0	1	+	0	1	B1r.bmp	492	1	blank2r.bmp	786	1	GKQX	786	1	blank2r.bmp	866	3	rächen	866	0	0	0	0	0	0	0	0	0	0	0	0	0	0	0	0	0	0	0	0	0	0	0	0	0	0	0	0	0	0	0	0	0
011519	12:39:22	12:41:50	147284	5.0.10.0	4_exp_EVA_AMP_AWA_CON	69	Rpleas_acq	Oppo	Rpleas	Bmasked	CS_B	1pleas	distractor1	EVAbeforeCON	acq_US_unple_masked	acq1_masked	1	15	0	0	300	300	0	0	556	46	0	1	0	0	0	1	blank2r.bmp	0	1	+	0	4	B4r.bmp	492	1	blank2r.bmp	786	1	GKQX	786	1	blank2r.bmp	866	5	strafen	866	0	0	0	0	0	0	0	0	0	0	0	0	0	0	0	0	0	0	0	0	0	0	0	0	0	0	0	0	0	0	0	0	0
011519	12:39:22	12:41:52	149470	5.0.10.0	4_exp_EVA_AMP_AWA_CON	69	Rpleas_acq	Oppo	Rpleas	Bmasked	CS_B	1pleas	distractor1	EVAbeforeCON	acq_US_unple_masked	acq1_masked	1	16	0	0	300	300	0	0	693	46	0	1	0	0	0	1	blank2r.bmp	0	1	+	0	7	C3r.bmp	492	1	blank2r.bmp	786	1	GKQX	786	1	blank2r.bmp	866	1	hindern	866	0	0	0	0	0	0	0	0	0	0	0	0	0	0	0	0	0	0	0	0	0	0	0	0	0	0	0	0	0	0	0	0	0
011519	12:39:22	12:41:54	151469	5.0.10.0	4_exp_EVA_AMP_AWA_CON	69	Rpleas_acq	Oppo	Rpleas	Bmasked	CS_B	1pleas	distractor1	EVAbeforeCON	acq_new_pleas_masked	acq1_masked	1	17	0	0	300	300	0	0	514	50	0	1	0	0	0	1	blank2r.bmp	0	1	+	0	6	C2r.bmp	492	1	blank2r.bmp	786	3	B3r.bmp	786	1	blank2r.bmp	866	3	fair	866	0	0	0	0	0	0	0	0	0	0	0	0	0	0	0	0	0	0	0	0	0	0	0	0	0	0	0	0	0	0	0	0	0
011519	12:39:22	12:41:56	153748	5.0.10.0	4_exp_EVA_AMP_AWA_CON	69	Rpleas_acq	Oppo	Rpleas	Bmasked	CS_B	1pleas	distractor1	EVAbeforeCON	acq_new_unple_masked	acq1_masked	1	18	0	0	300	300	0	0	789	46	0	1	0	0	0	1	blank2r.bmp	0	1	+	0	1	B1r.bmp	492	1	blank2r.bmp	786	6	C2r.bmp	786	1	blank2r.bmp	866	4	fanatisch	866	0	0	0	0	0	0	0	0	0	0	0	0	0	0	0	0	0	0	0	0	0	0	0	0	0	0	0	0	0	0	0	0	0
011519	12:39:22	12:41:58	155760	5.0.10.0	4_exp_EVA_AMP_AWA_CON	69	Rpleas_acq	Oppo	Rpleas	Bmasked	CS_B	1pleas	distractor1	EVAbeforeCON	acq_US_pleas_masked	acq1_masked	1	19	0	0	300	300	0	0	532	50	0	1	0	0	0	1	blank2r.bmp	0	1	+	0	4	B4r.bmp	492	1	blank2r.bmp	786	1	BMVZ	786	1	blank2r.bmp	866	3	retten	866	0	0	0	0	0	0	0	0	0	0	0	0	0	0	0	0	0	0	0	0	0	0	0	0	0	0	0	0	0	0	0	0	0
011519	12:39:22	12:42:00	158013	5.0.10.0	4_exp_EVA_AMP_AWA_CON	69	Rpleas_acq	Oppo	Rpleas	Bmasked	CS_B	1pleas	distractor1	EVAbeforeCON	acq_US_pleas_masked	acq1_masked	1	20	0	0	300	300	0	0	773	50	0	1	0	0	0	1	blank2r.bmp	0	1	+	0	8	C4r.bmp	492	1	blank2r.bmp	786	1	BMVZ	786	1	blank2r.bmp	866	5	spielen	866	0	0	0	0	0	0	0	0	0	0	0	0	0	0	0	0	0	0	0	0	0	0	0	0	0	0	0	0	0	0	0	0	0
011519	12:39:22	12:42:02	160079	5.0.10.0	4_exp_EVA_AMP_AWA_CON	69	Rpleas_acq	Oppo	Rpleas	Bmasked	CS_B	1pleas	distractor1	EVAbeforeCON	acq_new_pleas_masked	acq1_masked	1	21	0	0	300	300	0	0	585	50	0	1	0	0	0	1	blank2r.bmp	0	1	+	0	7	C3r.bmp	492	1	blank2r.bmp	786	4	B4r.bmp	786	1	blank2r.bmp	866	5	treu	866	0	0	0	0	0	0	0	0	0	0	0	0	0	0	0	0	0	0	0	0	0	0	0	0	0	0	0	0	0	0	0	0	0
011519	12:39:22	12:42:05	162251	5.0.10.0	4_exp_EVA_AMP_AWA_CON	69	Rpleas_acq	Oppo	Rpleas	Bmasked	CS_B	1pleas	distractor1	EVAbeforeCON	acq_new_pleas_masked	acq1_masked	1	22	0	0	300	300	0	0	688	50	0	1	0	0	0	1	blank2r.bmp	0	1	+	0	2	B2r.bmp	492	1	blank2r.bmp	786	7	C3r.bmp	786	1	blank2r.bmp	866	6	tolerant	866	0	0	0	0	0	0	0	0	0	0	0	0	0	0	0	0	0	0	0	0	0	0	0	0	0	0	0	0	0	0	0	0	0
011519	12:39:22	12:42:07	164290	5.0.10.0	4_exp_EVA_AMP_AWA_CON	69	Rpleas_acq	Oppo	Rpleas	Bmasked	CS_B	1pleas	distractor1	EVAbeforeCON	acq_US_pleas_masked	acq1_masked	1	23	0	0	300	300	0	0	566	50	0	1	0	0	0	1	blank2r.bmp	0	1	+	0	5	C1r.bmp	492	1	blank2r.bmp	786	1	BMVZ	786	1	blank2r.bmp	866	6	schön	866	0	0	0	0	0	0	0	0	0	0	0	0	0	0	0	0	0	0	0	0	0	0	0	0	0	0	0	0	0	0	0	0	0
011519	12:39:22	12:42:09	166396	5.0.10.0	4_exp_EVA_AMP_AWA_CON	69	Rpleas_acq	Oppo	Rpleas	Bmasked	CS_B	1pleas	distractor1	EVAbeforeCON	acq_new_unple_masked	acq1_masked	1	24	0	0	300	300	0	0	617	46	0	1	0	0	0	1	blank2r.bmp	0	1	+	0	3	B3r.bmp	492	1	blank2r.bmp	786	8	C4r.bmp	786	1	blank2r.bmp	866	1	schroff	866	0	0	0	0	0	0	0	0	0	0	0	0	0	0	0	0	0	0	0	0	0	0	0	0	0	0	0	0	0	0	0	0	0
011519	12:39:22	12:42:11	168462	5.0.10.0	4_exp_EVA_AMP_AWA_CON	69	Rpleas_acq	Oppo	Rpleas	Bmasked	CS_B	1pleas	distractor1	EVAbeforeCON	acq_new_unple_masked	acq1_masked	1	25	0	0	300	300	0	0	578	46	0	1	0	0	0	1	blank2r.bmp	0	1	+	0	3	B3r.bmp	492	1	blank2r.bmp	786	5	C1r.bmp	786	1	blank2r.bmp	866	1	schroff	866	0	0	0	0	0	0	0	0	0	0	0	0	0	0	0	0	0	0	0	0	0	0	0	0	0	0	0	0	0	0	0	0	0
011519	12:39:22	12:42:13	170554	5.0.10.0	4_exp_EVA_AMP_AWA_CON	69	Rpleas_acq	Oppo	Rpleas	Bmasked	CS_B	1pleas	distractor1	EVAbeforeCON	acq_new_unple_masked	acq1_masked	1	26	0	0	300	300	0	0	623	46	0	1	0	0	0	1	blank2r.bmp	0	1	+	0	1	B1r.bmp	492	1	blank2r.bmp	786	2	B2r.bmp	786	1	blank2r.bmp	866	4	fanatisch	866	0	0	0	0	0	0	0	0	0	0	0	0	0	0	0	0	0	0	0	0	0	0	0	0	0	0	0	0	0	0	0	0	0
011519	12:39:22	12:42:15	172593	5.0.10.0	4_exp_EVA_AMP_AWA_CON	69	Rpleas_acq	Oppo	Rpleas	Bmasked	CS_B	1pleas	distractor1	EVAbeforeCON	acq_US_unple_masked	acq1_masked	1	27	0	0	300	300	0	0	558	46	0	1	0	0	0	1	blank2r.bmp	0	1	+	0	8	C4r.bmp	492	1	blank2r.bmp	786	1	GKQX	786	1	blank2r.bmp	866	1	hindern	866	0	0	0	0	0	0	0	0	0	0	0	0	0	0	0	0	0	0	0	0	0	0	0	0	0	0	0	0	0	0	0	0	0
011519	12:39:22	12:42:17	174753	5.0.10.0	4_exp_EVA_AMP_AWA_CON	69	Rpleas_acq	Oppo	Rpleas	Bmasked	CS_B	1pleas	distractor1	EVAbeforeCON	acq_US_pleas_masked	acq1_masked	1	28	0	0	300	300	0	0	663	50	0	1	0	0	0	1	blank2r.bmp	0	1	+	0	7	C3r.bmp	492	1	blank2r.bmp	786	1	BMVZ	786	1	blank2r.bmp	866	3	retten	866	0	0	0	0	0	0	0	0	0	0	0	0	0	0	0	0	0	0	0	0	0	0	0	0	0	0	0	0	0	0	0	0	0
011519	12:39:22	12:42:19	176778	5.0.10.0	4_exp_EVA_AMP_AWA_CON	69	Rpleas_acq	Oppo	Rpleas	Bmasked	CS_B	1pleas	distractor1	EVAbeforeCON	acq_new_pleas_masked	acq1_masked	1	29	0	0	300	300	0	0	544	50	0	1	0	0	0	1	blank2r.bmp	0	1	+	0	2	B2r.bmp	492	1	blank2r.bmp	786	3	B3r.bmp	786	1	blank2r.bmp	866	4	freundlich	866	0	0	0	0	0	0	0	0	0	0	0	0	0	0	0	0	0	0	0	0	0	0	0	0	0	0	0	0	0	0	0	0	0
011519	12:39:22	12:42:21	179017	5.0.10.0	4_exp_EVA_AMP_AWA_CON	69	Rpleas_acq	Oppo	Rpleas	Bmasked	CS_B	1pleas	distractor1	EVAbeforeCON	acq_new_pleas_masked	acq1_masked	1	30	0	0	300	300	0	0	753	50	0	1	0	0	0	1	blank2r.bmp	0	1	+	0	4	B4r.bmp	492	1	blank2r.bmp	786	1	B1r.bmp	786	1	blank2r.bmp	866	6	tolerant	866	0	0	0	0	0	0	0	0	0	0	0	0	0	0	0	0	0	0	0	0	0	0	0	0	0	0	0	0	0	0	0	0	0
011519	12:39:22	12:42:24	181310	5.0.10.0	4_exp_EVA_AMP_AWA_CON	69	Rpleas_acq	Oppo	Rpleas	Bmasked	CS_B	1pleas	distractor1	EVAbeforeCON	acq_new_unple_masked	acq1_masked	1	31	0	0	300	300	0	0	810	46	0	1	0	0	0	1	blank2r.bmp	0	1	+	0	6	C2r.bmp	492	1	blank2r.bmp	786	2	B2r.bmp	786	1	blank2r.bmp	866	3	faul	866	0	0	0	0	0	0	0	0	0	0	0	0	0	0	0	0	0	0	0	0	0	0	0	0	0	0	0	0	0	0	0	0	0
011519	12:39:22	12:42:26	183362	5.0.10.0	4_exp_EVA_AMP_AWA_CON	69	Rpleas_acq	Oppo	Rpleas	Bmasked	CS_B	1pleas	distractor1	EVAbeforeCON	acq_US_unple_masked	acq1_masked	1	32	0	0	300	300	0	0	560	46	0	1	0	0	0	1	blank2r.bmp	0	1	+	0	5	C1r.bmp	492	1	blank2r.bmp	786	1	GKQX	786	1	blank2r.bmp	866	6	schlecht	866	0	0	0	0	0	0	0	0	0	0	0	0	0	0	0	0	0	0	0	0	0	0	0	0	0	0	0	0	0	0	0	0	0
011519	12:39:22	12:42:28	185401	5.0.10.0	4_exp_EVA_AMP_AWA_CON	69	Rpleas_acq	Oppo	Rpleas	Bmasked	CS_B	1pleas	distractor1	EVAbeforeCON	acq_US_pleas_masked	acq1_masked	1	33	0	0	300	300	0	0	561	50	0	1	0	0	0	1	blank2r.bmp	0	1	+	0	2	B2r.bmp	492	1	blank2r.bmp	786	1	BMVZ	786	1	blank2r.bmp	866	4	loyal	866	0	0	0	0	0	0	0	0	0	0	0	0	0	0	0	0	0	0	0	0	0	0	0	0	0	0	0	0	0	0	0	0	0
011519	12:39:22	12:42:30	187960	5.0.10.0	4_exp_EVA_AMP_AWA_CON	69	Rpleas_acq	Oppo	Rpleas	Bmasked	CS_B	1pleas	distractor1	EVAbeforeCON	acq_US_unple_masked	acq1_masked	1	34	0	0	300	300	0	0	1090	46	0	1	0	0	0	1	blank2r.bmp	0	1	+	0	7	C3r.bmp	492	1	blank2r.bmp	786	1	GKQX	786	1	blank2r.bmp	866	4	lasch	866	0	0	0	0	0	0	0	0	0	0	0	0	0	0	0	0	0	0	0	0	0	0	0	0	0	0	0	0	0	0	0	0	0
011519	12:39:22	12:42:32	189973	5.0.10.0	4_exp_EVA_AMP_AWA_CON	69	Rpleas_acq	Oppo	Rpleas	Bmasked	CS_B	1pleas	distractor1	EVAbeforeCON	acq_new_pleas_masked	acq1_masked	1	35	0	0	300	300	0	0	528	50	0	1	0	0	0	1	blank2r.bmp	0	1	+	0	6	C2r.bmp	492	1	blank2r.bmp	786	4	B4r.bmp	786	1	blank2r.bmp	866	2	ehrlich	866	0	0	0	0	0	0	0	0	0	0	0	0	0	0	0	0	0	0	0	0	0	0	0	0	0	0	0	0	0	0	0	0	0
011519	12:39:22	12:42:34	191932	5.0.10.0	4_exp_EVA_AMP_AWA_CON	69	Rpleas_acq	Oppo	Rpleas	Bmasked	CS_B	1pleas	distractor1	EVAbeforeCON	acq_US_pleas_masked	acq1_masked	1	36	0	0	300	300	0	0	491	50	0	1	0	0	0	1	blank2r.bmp	0	1	+	0	8	C4r.bmp	492	1	blank2r.bmp	786	1	BMVZ	786	1	blank2r.bmp	866	6	schön	866	0	0	0	0	0	0	0	0	0	0	0	0	0	0	0	0	0	0	0	0	0	0	0	0	0	0	0	0	0	0	0	0	0
011519	12:39:22	12:43:14	231502	5.0.10.0	4_exp_EVA_AMP_AWA_CON	69	Rpleas_acq	Oppo	Rpleas	Bmasked	CS_B	1pleas	distractor1	EVAbeforeCON	acq_new_unple_masked	acq2_masked	2	1	480	0	300	300	0	0	1283	46	0	1	0	0	0	1	blank2r.bmp	0	1	+	0	4	B4r.bmp	492	1	blank2r.bmp	786	3	B3r.bmp	786	1	blank2r.bmp	866	6	tyrannisch	866	1	!	1319	1	!	-1	0	0	0	0	0	0	0	0	0	0	0	0	0	0	0	0	0	0	0	0	0	0	0	0	0	0	0
011519	12:39:22	12:43:16	233861	5.0.10.0	4_exp_EVA_AMP_AWA_CON	69	Rpleas_acq	Oppo	Rpleas	Bmasked	CS_B	1pleas	distractor1	EVAbeforeCON	acq_US_pleas_masked	acq2_masked	2	2	480	0	300	300	0	0	584	50	0	1	0	0	0	1	blank2r.bmp	0	1	+	0	3	B3r.bmp	492	1	blank2r.bmp	786	1	BMVZ	786	1	blank2r.bmp	866	1	helfen	866	1	!	1319	1	!	-1	0	0	0	0	0	0	0	0	0	0	0	0	0	0	0	0	0	0	0	0	0	0	0	0	0	0	0
011519	12:39:22	12:43:18	236100	5.0.10.0	4_exp_EVA_AMP_AWA_CON	69	Rpleas_acq	Oppo	Rpleas	Bmasked	CS_B	1pleas	distractor1	EVAbeforeCON	acq_US_unple_masked	acq2_masked	2	3	480	1	300	300	0	0	433	46	0	1	0	0	0	1	blank2r.bmp	0	1	+	0	5	C1r.bmp	492	1	blank2r.bmp	786	1	GKQX	786	1	blank2r.bmp	866	3	rächen	866	1	!	1319	1	!	1332	0	0	0	0	0	0	0	0	0	0	0	0	0	0	0	0	0	0	0	0	0	0	0	0	0	0	0
011519	12:39:22	12:43:21	238352	5.0.10.0	4_exp_EVA_AMP_AWA_CON	69	Rpleas_acq	Oppo	Rpleas	Bmasked	CS_B	1pleas	distractor1	EVAbeforeCON	acq_US_unple_masked	acq2_masked	2	4	480	1	300	300	0	0	459	46	0	1	0	0	0	1	blank2r.bmp	0	1	+	0	1	B1r.bmp	492	1	blank2r.bmp	786	1	GKQX	786	1	blank2r.bmp	866	2	leiden	866	1	!	1319	1	!	1359	0	0	0	0	0	0	0	0	0	0	0	0	0	0	0	0	0	0	0	0	0	0	0	0	0	0	0
011519	12:39:22	12:43:23	240498	5.0.10.0	4_exp_EVA_AMP_AWA_CON	69	Rpleas_acq	Oppo	Rpleas	Bmasked	CS_B	1pleas	distractor1	EVAbeforeCON	acq_new_unple_masked	acq2_masked	2	5	480	0	300	300	0	0	380	46	0	1	0	0	0	1	blank2r.bmp	0	1	+	0	7	C3r.bmp	492	1	blank2r.bmp	786	8	C4r.bmp	786	1	blank2r.bmp	866	5	tot	866	1	!	-1	1	!	-1	0	0	0	0	0	0	0	0	0	0	0	0	0	0	0	0	0	0	0	0	0	0	0	0	0	0	0
011519	12:39:22	12:43:25	243004	5.0.10.0	4_exp_EVA_AMP_AWA_CON	69	Rpleas_acq	Oppo	Rpleas	Bmasked	CS_B	1pleas	distractor1	EVAbeforeCON	acq_new_pleas_masked	acq2_masked	2	6	480	0	300	300	0	0	714	50	0	1	0	0	0	1	blank2r.bmp	0	1	+	0	5	C1r.bmp	492	1	blank2r.bmp	786	7	C3r.bmp	786	1	blank2r.bmp	866	1	schlau	866	1	!	1319	1	!	-1	0	0	0	0	0	0	0	0	0	0	0	0	0	0	0	0	0	0	0	0	0	0	0	0	0	0	0
011519	12:39:22	12:43:28	245389	5.0.10.0	4_exp_EVA_AMP_AWA_CON	69	Rpleas_acq	Oppo	Rpleas	Bmasked	CS_B	1pleas	distractor1	EVAbeforeCON	acq_new_pleas_masked	acq2_masked	2	7	480	0	300	300	0	0	380	46	0	0	0	0	0	1	blank2r.bmp	0	1	+	0	4	B4r.bmp	492	1	blank2r.bmp	786	6	C2r.bmp	786	1	blank2r.bmp	866	5	treu	866	1	FEHLER	1585	1	!	-1	1	!	-1	0	0	0	0	0	0	0	0	0	0	0	0	0	0	0	0	0	0	0	0	0	0	0	0
011519	12:39:22	12:43:30	247522	5.0.10.0	4_exp_EVA_AMP_AWA_CON	69	Rpleas_acq	Oppo	Rpleas	Bmasked	CS_B	1pleas	distractor1	EVAbeforeCON	acq_US_pleas_masked	acq2_masked	2	8	480	0	300	300	0	0	559	50	0	1	0	0	0	1	blank2r.bmp	0	1	+	0	8	C4r.bmp	492	1	blank2r.bmp	786	1	BMVZ	786	1	blank2r.bmp	866	2	lachen	866	1	!	1319	1	!	-1	0	0	0	0	0	0	0	0	0	0	0	0	0	0	0	0	0	0	0	0	0	0	0	0	0	0	0
011519	12:39:22	12:43:32	249761	5.0.10.0	4_exp_EVA_AMP_AWA_CON	69	Rpleas_acq	Oppo	Rpleas	Bmasked	CS_B	1pleas	distractor1	EVAbeforeCON	acq_new_unple_masked	acq2_masked	2	9	480	1	300	300	0	0	429	46	0	1	0	0	0	1	blank2r.bmp	0	1	+	0	6	C2r.bmp	492	1	blank2r.bmp	786	5	C1r.bmp	786	1	blank2r.bmp	866	2	eitel	866	1	!	1319	1	!	1332	0	0	0	0	0	0	0	0	0	0	0	0	0	0	0	0	0	0	0	0	0	0	0	0	0	0	0
011519	12:39:22	12:43:34	251907	5.0.10.0	4_exp_EVA_AMP_AWA_CON	69	Rpleas_acq	Oppo	Rpleas	Bmasked	CS_B	1pleas	distractor1	EVAbeforeCON	acq_US_unple_masked	acq2_masked	2	10	480	0	300	300	0	0	381	46	0	1	0	0	0	1	blank2r.bmp	0	1	+	0	1	B1r.bmp	492	1	blank2r.bmp	786	1	GKQX	786	1	blank2r.bmp	866	5	strafen	866	1	!	-1	1	!	-1	0	0	0	0	0	0	0	0	0	0	0	0	0	0	0	0	0	0	0	0	0	0	0	0	0	0	0
011519	12:39:22	12:43:37	254212	5.0.10.0	4_exp_EVA_AMP_AWA_CON	69	Rpleas_acq	Oppo	Rpleas	Bmasked	CS_B	1pleas	distractor1	EVAbeforeCON	acq_new_pleas_masked	acq2_masked	2	11	480	1	300	300	0	0	495	50	0	1	0	0	0	1	blank2r.bmp	0	1	+	0	3	B3r.bmp	492	1	blank2r.bmp	786	1	B1r.bmp	786	1	blank2r.bmp	866	3	fair	866	1	!	1319	1	!	1399	0	0	0	0	0	0	0	0	0	0	0	0	0	0	0	0	0	0	0	0	0	0	0	0	0	0	0
011519	12:39:22	12:43:39	256438	5.0.10.0	4_exp_EVA_AMP_AWA_CON	69	Rpleas_acq	Oppo	Rpleas	Bmasked	CS_B	1pleas	distractor1	EVAbeforeCON	acq_US_pleas_masked	acq2_masked	2	12	480	1	300	300	0	0	426	50	0	1	0	0	0	1	blank2r.bmp	0	1	+	0	2	B2r.bmp	492	1	blank2r.bmp	786	1	BMVZ	786	1	blank2r.bmp	866	5	spielen	866	1	!	1319	1	!	1332	0	0	0	0	0	0	0	0	0	0	0	0	0	0	0	0	0	0	0	0	0	0	0	0	0	0	0
011519	12:39:22	12:43:41	258944	5.0.10.0	4_exp_EVA_AMP_AWA_CON	69	Rpleas_acq	Oppo	Rpleas	Bmasked	CS_B	1pleas	distractor1	EVAbeforeCON	acq_new_unple_masked	acq2_masked	2	13	480	1	300	300	0	0	490	50	0	0	0	0	0	1	blank2r.bmp	0	1	+	0	2	B2r.bmp	492	1	blank2r.bmp	786	6	C2r.bmp	786	1	blank2r.bmp	866	4	fanatisch	866	1	FEHLER	1705	1	!	1319	1	!	1386	0	0	0	0	0	0	0	0	0	0	0	0	0	0	0	0	0	0	0	0	0	0	0	0
011519	12:39:22	12:43:43	261050	5.0.10.0	4_exp_EVA_AMP_AWA_CON	69	Rpleas_acq	Oppo	Rpleas	Bmasked	CS_B	1pleas	distractor1	EVAbeforeCON	acq_new_pleas_masked	acq2_masked	2	14	480	1	300	300	0	0	528	50	0	1	0	0	0	1	blank2r.bmp	0	1	+	0	6	C2r.bmp	492	1	blank2r.bmp	786	5	C1r.bmp	786	1	blank2r.bmp	866	4	freundlich	866	1	!	1319	1	!	1426	0	0	0	0	0	0	0	0	0	0	0	0	0	0	0	0	0	0	0	0	0	0	0	0	0	0	0
011519	12:39:22	12:43:46	263302	5.0.10.0	4_exp_EVA_AMP_AWA_CON	69	Rpleas_acq	Oppo	Rpleas	Bmasked	CS_B	1pleas	distractor1	EVAbeforeCON	acq_US_unple_masked	acq2_masked	2	15	480	1	300	300	0	0	463	46	0	1	0	0	0	1	blank2r.bmp	0	1	+	0	3	B3r.bmp	492	1	blank2r.bmp	786	1	GKQX	786	1	blank2r.bmp	866	1	hindern	866	1	!	1319	1	!	1359	0	0	0	0	0	0	0	0	0	0	0	0	0	0	0	0	0	0	0	0	0	0	0	0	0	0	0
011519	12:39:22	12:43:48	265488	5.0.10.0	4_exp_EVA_AMP_AWA_CON	69	Rpleas_acq	Oppo	Rpleas	Bmasked	CS_B	1pleas	distractor1	EVAbeforeCON	acq_new_unple_masked	acq2_masked	2	16	480	0	300	300	0	0	404	46	0	1	0	0	0	1	blank2r.bmp	0	1	+	0	5	C1r.bmp	492	1	blank2r.bmp	786	3	B3r.bmp	786	1	blank2r.bmp	866	5	tot	866	1	!	-1	1	!	-1	0	0	0	0	0	0	0	0	0	0	0	0	0	0	0	0	0	0	0	0	0	0	0	0	0	0	0
011519	12:39:22	12:43:50	267820	5.0.10.0	4_exp_EVA_AMP_AWA_CON	69	Rpleas_acq	Oppo	Rpleas	Bmasked	CS_B	1pleas	distractor1	EVAbeforeCON	acq_US_pleas_masked	acq2_masked	2	17	480	1	300	300	0	0	522	50	0	1	0	0	0	1	blank2r.bmp	0	1	+	0	7	C3r.bmp	492	1	blank2r.bmp	786	1	BMVZ	786	1	blank2r.bmp	866	5	spielen	866	1	!	1319	1	!	1426	0	0	0	0	0	0	0	0	0	0	0	0	0	0	0	0	0	0	0	0	0	0	0	0	0	0	0
011519	12:39:22	12:43:52	270046	5.0.10.0	4_exp_EVA_AMP_AWA_CON	69	Rpleas_acq	Oppo	Rpleas	Bmasked	CS_B	1pleas	distractor1	EVAbeforeCON	acq_US_unple_masked	acq2_masked	2	18	480	1	300	300	0	0	426	46	0	1	0	0	0	1	blank2r.bmp	0	1	+	0	1	B1r.bmp	492	1	blank2r.bmp	786	1	GKQX	786	1	blank2r.bmp	866	5	strafen	866	1	!	1319	1	!	1332	0	0	0	0	0	0	0	0	0	0	0	0	0	0	0	0	0	0	0	0	0	0	0	0	0	0	0
011519	12:39:22	12:43:55	272378	5.0.10.0	4_exp_EVA_AMP_AWA_CON	69	Rpleas_acq	Oppo	Rpleas	Bmasked	CS_B	1pleas	distractor1	EVAbeforeCON	acq_new_unple_masked	acq2_masked	2	19	480	0	300	300	0	0	562	46	0	1	0	0	0	1	blank2r.bmp	0	1	+	0	4	B4r.bmp	492	1	blank2r.bmp	786	7	C3r.bmp	786	1	blank2r.bmp	866	3	faul	866	1	!	1319	1	!	-1	0	0	0	0	0	0	0	0	0	0	0	0	0	0	0	0	0	0	0	0	0	0	0	0	0	0	0
011519	12:39:22	12:43:57	274724	5.0.10.0	4_exp_EVA_AMP_AWA_CON	69	Rpleas_acq	Oppo	Rpleas	Bmasked	CS_B	1pleas	distractor1	EVAbeforeCON	acq_new_pleas_masked	acq2_masked	2	20	480	0	300	300	0	0	340	46	0	0	0	0	0	1	blank2r.bmp	0	1	+	0	8	C4r.bmp	492	1	blank2r.bmp	786	4	B4r.bmp	786	1	blank2r.bmp	866	6	tolerant	866	1	FEHLER	1546	1	!	-1	1	!	-1	0	0	0	0	0	0	0	0	0	0	0	0	0	0	0	0	0	0	0	0	0	0	0	0
011519	12:39:22	12:43:59	276776	5.0.10.0	4_exp_EVA_AMP_AWA_CON	69	Rpleas_acq	Oppo	Rpleas	Bmasked	CS_B	1pleas	distractor1	EVAbeforeCON	acq_US_pleas_masked	acq2_masked	2	21	480	1	300	300	0	0	477	50	0	1	0	0	0	1	blank2r.bmp	0	1	+	0	1	B1r.bmp	492	1	blank2r.bmp	786	1	BMVZ	786	1	blank2r.bmp	866	4	loyal	866	1	!	1319	1	!	1372	0	0	0	0	0	0	0	0	0	0	0	0	0	0	0	0	0	0	0	0	0	0	0	0	0	0	0
011519	12:39:22	12:44:01	279162	5.0.10.0	4_exp_EVA_AMP_AWA_CON	69	Rpleas_acq	Oppo	Rpleas	Bmasked	CS_B	1pleas	distractor1	EVAbeforeCON	acq_new_pleas_masked	acq2_masked	2	22	480	0	300	300	0	0	391	46	0	0	0	0	0	1	blank2r.bmp	0	1	+	0	4	B4r.bmp	492	1	blank2r.bmp	786	2	B2r.bmp	786	1	blank2r.bmp	866	1	schlau	866	1	FEHLER	1599	1	!	-1	1	!	-1	0	0	0	0	0	0	0	0	0	0	0	0	0	0	0	0	0	0	0	0	0	0	0	0
011519	12:39:22	12:44:04	281201	5.0.10.0	4_exp_EVA_AMP_AWA_CON	69	Rpleas_acq	Oppo	Rpleas	Bmasked	CS_B	1pleas	distractor1	EVAbeforeCON	acq_US_unple_masked	acq2_masked	2	23	480	1	300	300	0	0	464	46	0	1	0	0	0	1	blank2r.bmp	0	1	+	0	6	C2r.bmp	492	1	blank2r.bmp	786	1	GKQX	786	1	blank2r.bmp	866	3	rächen	866	1	!	1319	1	!	1359	0	0	0	0	0	0	0	0	0	0	0	0	0	0	0	0	0	0	0	0	0	0	0	0	0	0	0
011519	12:39:22	12:44:06	283440	5.0.10.0	4_exp_EVA_AMP_AWA_CON	69	Rpleas_acq	Oppo	Rpleas	Bmasked	CS_B	1pleas	distractor1	EVAbeforeCON	acq_US_pleas_masked	acq2_masked	2	24	480	1	300	300	0	0	441	50	0	1	0	0	0	1	blank2r.bmp	0	1	+	0	2	B2r.bmp	492	1	blank2r.bmp	786	1	BMVZ	786	1	blank2r.bmp	866	1	helfen	866	1	!	1319	1	!	1346	0	0	0	0	0	0	0	0	0	0	0	0	0	0	0	0	0	0	0	0	0	0	0	0	0	0	0
011519	12:39:22	12:44:08	285679	5.0.10.0	4_exp_EVA_AMP_AWA_CON	69	Rpleas_acq	Oppo	Rpleas	Bmasked	CS_B	1pleas	distractor1	EVAbeforeCON	acq_US_unple_masked	acq2_masked	2	25	480	1	300	300	0	0	448	46	0	1	0	0	0	1	blank2r.bmp	0	1	+	0	5	C1r.bmp	492	1	blank2r.bmp	786	1	GKQX	786	1	blank2r.bmp	866	4	lasch	866	1	!	1319	1	!	1346	0	0	0	0	0	0	0	0	0	0	0	0	0	0	0	0	0	0	0	0	0	0	0	0	0	0	0
011519	12:39:22	12:44:10	287932	5.0.10.0	4_exp_EVA_AMP_AWA_CON	69	Rpleas_acq	Oppo	Rpleas	Bmasked	CS_B	1pleas	distractor1	EVAbeforeCON	acq_new_unple_masked	acq2_masked	2	26	480	1	300	300	0	0	453	46	0	1	0	0	0	1	blank2r.bmp	0	1	+	0	7	C3r.bmp	492	1	blank2r.bmp	786	8	C4r.bmp	786	1	blank2r.bmp	866	6	tyrannisch	866	1	!	1319	1	!	1359	0	0	0	0	0	0	0	0	0	0	0	0	0	0	0	0	0	0	0	0	0	0	0	0	0	0	0
011519	12:39:22	12:44:13	290264	5.0.10.0	4_exp_EVA_AMP_AWA_CON	69	Rpleas_acq	Oppo	Rpleas	Bmasked	CS_B	1pleas	distractor1	EVAbeforeCON	acq_US_pleas_masked	acq2_masked	2	27	480	0	300	300	0	0	568	50	0	1	0	0	0	1	blank2r.bmp	0	1	+	0	8	C4r.bmp	492	1	blank2r.bmp	786	1	BMVZ	786	1	blank2r.bmp	866	6	schön	866	1	!	1319	1	!	-1	0	0	0	0	0	0	0	0	0	0	0	0	0	0	0	0	0	0	0	0	0	0	0	0	0	0	0
011519	12:39:22	12:44:15	292436	5.0.10.0	4_exp_EVA_AMP_AWA_CON	69	Rpleas_acq	Oppo	Rpleas	Bmasked	CS_B	1pleas	distractor1	EVAbeforeCON	acq_US_unple_masked	acq2_masked	2	28	480	0	300	300	0	0	392	46	0	1	0	0	0	1	blank2r.bmp	0	1	+	0	3	B3r.bmp	492	1	blank2r.bmp	786	1	GKQX	786	1	blank2r.bmp	866	6	schlecht	866	1	!	-1	1	!	-1	0	0	0	0	0	0	0	0	0	0	0	0	0	0	0	0	0	0	0	0	0	0	0	0	0	0	0
011519	12:39:22	12:44:17	294915	5.0.10.0	4_exp_EVA_AMP_AWA_CON	69	Rpleas_acq	Oppo	Rpleas	Bmasked	CS_B	1pleas	distractor1	EVAbeforeCON	acq_new_unple_masked	acq2_masked	2	29	480	1	300	300	0	0	464	50	0	0	0	0	0	1	blank2r.bmp	0	1	+	0	7	C3r.bmp	492	1	blank2r.bmp	786	1	B1r.bmp	786	1	blank2r.bmp	866	2	eitel	866	1	FEHLER	1679	1	!	1319	1	!	1359	0	0	0	0	0	0	0	0	0	0	0	0	0	0	0	0	0	0	0	0	0	0	0	0
011519	12:39:22	12:44:20	297274	5.0.10.0	4_exp_EVA_AMP_AWA_CON	69	Rpleas_acq	Oppo	Rpleas	Bmasked	CS_B	1pleas	distractor1	EVAbeforeCON	acq_US_pleas_masked	acq2_masked	2	30	480	0	300	300	0	0	594	46	0	0	0	0	0	1	blank2r.bmp	0	1	+	0	5	C1r.bmp	492	1	blank2r.bmp	786	1	BMVZ	786	1	blank2r.bmp	866	2	lachen	866	1	FEHLER	1799	1	!	1319	1	!	-1	0	0	0	0	0	0	0	0	0	0	0	0	0	0	0	0	0	0	0	0	0	0	0	0
011519	12:39:22	12:44:22	299340	5.0.10.0	4_exp_EVA_AMP_AWA_CON	69	Rpleas_acq	Oppo	Rpleas	Bmasked	CS_B	1pleas	distractor1	EVAbeforeCON	acq_new_pleas_masked	acq2_masked	2	31	480	1	300	300	0	0	474	50	0	1	0	0	0	1	blank2r.bmp	0	1	+	0	3	B3r.bmp	492	1	blank2r.bmp	786	5	C1r.bmp	786	1	blank2r.bmp	866	5	treu	866	1	!	1319	1	!	1372	0	0	0	0	0	0	0	0	0	0	0	0	0	0	0	0	0	0	0	0	0	0	0	0	0	0	0
011519	12:39:22	12:44:24	301593	5.0.10.0	4_exp_EVA_AMP_AWA_CON	69	Rpleas_acq	Oppo	Rpleas	Bmasked	CS_B	1pleas	distractor1	EVAbeforeCON	acq_new_unple_masked	acq2_masked	2	32	480	1	300	300	0	0	441	46	0	1	0	0	0	1	blank2r.bmp	0	1	+	0	4	B4r.bmp	492	1	blank2r.bmp	786	8	C4r.bmp	786	1	blank2r.bmp	866	1	schroff	866	1	!	1319	1	!	1346	0	0	0	0	0	0	0	0	0	0	0	0	0	0	0	0	0	0	0	0	0	0	0	0	0	0	0
011519	12:39:22	12:44:26	303885	5.0.10.0	4_exp_EVA_AMP_AWA_CON	69	Rpleas_acq	Oppo	Rpleas	Bmasked	CS_B	1pleas	distractor1	EVAbeforeCON	acq_US_pleas_masked	acq2_masked	2	33	480	1	300	300	0	0	501	50	0	1	0	0	0	1	blank2r.bmp	0	1	+	0	1	B1r.bmp	492	1	blank2r.bmp	786	1	BMVZ	786	1	blank2r.bmp	866	3	retten	866	1	!	1319	1	!	1399	0	0	0	0	0	0	0	0	0	0	0	0	0	0	0	0	0	0	0	0	0	0	0	0	0	0	0
011519	12:39:22	12:44:28	306177	5.0.10.0	4_exp_EVA_AMP_AWA_CON	69	Rpleas_acq	Oppo	Rpleas	Bmasked	CS_B	1pleas	distractor1	EVAbeforeCON	acq_new_pleas_masked	acq2_masked	2	34	480	1	300	300	0	0	501	50	0	1	0	0	0	1	blank2r.bmp	0	1	+	0	8	C4r.bmp	492	1	blank2r.bmp	786	3	B3r.bmp	786	1	blank2r.bmp	866	3	fair	866	1	!	1319	1	!	1399	0	0	0	0	0	0	0	0	0	0	0	0	0	0	0	0	0	0	0	0	0	0	0	0	0	0	0
011519	12:39:22	12:44:31	308430	5.0.10.0	4_exp_EVA_AMP_AWA_CON	69	Rpleas_acq	Oppo	Rpleas	Bmasked	CS_B	1pleas	distractor1	EVAbeforeCON	acq_new_pleas_masked	acq2_masked	2	35	480	1	300	300	0	0	463	50	0	1	0	0	0	1	blank2r.bmp	0	1	+	0	2	B2r.bmp	492	1	blank2r.bmp	786	6	C2r.bmp	786	1	blank2r.bmp	866	2	ehrlich	866	1	!	1319	1	!	1359	0	0	0	0	0	0	0	0	0	0	0	0	0	0	0	0	0	0	0	0	0	0	0	0	0	0	0
011519	12:39:22	12:44:33	310615	5.0.10.0	4_exp_EVA_AMP_AWA_CON	69	Rpleas_acq	Oppo	Rpleas	Bmasked	CS_B	1pleas	distractor1	EVAbeforeCON	acq_US_unple_masked	acq2_masked	2	36	480	0	300	300	0	0	412	46	0	1	0	0	0	1	blank2r.bmp	0	1	+	0	6	C2r.bmp	492	1	blank2r.bmp	786	1	GKQX	786	1	blank2r.bmp	866	2	leiden	866	1	!	-1	1	!	-1	0	0	0	0	0	0	0	0	0	0	0	0	0	0	0	0	0	0	0	0	0	0	0	0	0	0	0
011519	12:39:22	12:44:54	331847	5.0.10.0	4_exp_EVA_AMP_AWA_CON	69	Rpleas_acq	Oppo	Rpleas	Bmasked	CS_B	1pleas	distractor1	EVAbeforeCON	acq_US_pleas_masked	acq3_masked	3	1	453	0	300	300	0	0	561	50	0	1	0	0	0	1	blank2r.bmp	0	1	+	0	3	B3r.bmp	492	1	blank2r.bmp	786	1	BMVZ	786	1	blank2r.bmp	866	1	helfen	866	1	!	1292	1	!	-1	0	0	0	0	0	0	0	0	0	0	0	0	0	0	0	0	0	0	0	0	0	0	0	0	0	0	0
011519	12:39:22	12:44:56	334112	5.0.10.0	4_exp_EVA_AMP_AWA_CON	69	Rpleas_acq	Oppo	Rpleas	Bmasked	CS_B	1pleas	distractor1	EVAbeforeCON	acq_US_pleas_masked	acq3_masked	3	2	453	1	300	300	0	0	456	50	0	1	0	0	0	1	blank2r.bmp	0	1	+	0	5	C1r.bmp	492	1	blank2r.bmp	786	1	BMVZ	786	1	blank2r.bmp	866	4	loyal	866	1	!	1292	1	!	1359	0	0	0	0	0	0	0	0	0	0	0	0	0	0	0	0	0	0	0	0	0	0	0	0	0	0	0
011519	12:39:22	12:44:59	336378	5.0.10.0	4_exp_EVA_AMP_AWA_CON	69	Rpleas_acq	Oppo	Rpleas	Bmasked	CS_B	1pleas	distractor1	EVAbeforeCON	acq_US_pleas_masked	acq3_masked	3	3	453	1	300	300	0	0	462	50	0	1	0	0	0	1	blank2r.bmp	0	1	+	0	4	B4r.bmp	492	1	blank2r.bmp	786	1	BMVZ	786	1	blank2r.bmp	866	5	spielen	866	1	!	1292	1	!	1359	0	0	0	0	0	0	0	0	0	0	0	0	0	0	0	0	0	0	0	0	0	0	0	0	0	0	0
011519	12:39:22	12:45:01	338537	5.0.10.0	4_exp_EVA_AMP_AWA_CON	69	Rpleas_acq	Oppo	Rpleas	Bmasked	CS_B	1pleas	distractor1	EVAbeforeCON	acq_US_pleas_masked	acq3_masked	3	4	453	0	300	300	0	0	386	50	0	1	0	0	0	1	blank2r.bmp	0	1	+	0	2	B2r.bmp	492	1	blank2r.bmp	786	1	BMVZ	786	1	blank2r.bmp	866	2	lachen	866	1	!	-1	1	!	-1	0	0	0	0	0	0	0	0	0	0	0	0	0	0	0	0	0	0	0	0	0	0	0	0	0	0	0
011519	12:39:22	12:45:03	340856	5.0.10.0	4_exp_EVA_AMP_AWA_CON	69	Rpleas_acq	Oppo	Rpleas	Bmasked	CS_B	1pleas	distractor1	EVAbeforeCON	acq_US_unple_masked	acq3_masked	3	5	453	1	300	300	0	0	510	46	0	1	0	0	0	1	blank2r.bmp	0	1	+	0	8	C4r.bmp	492	1	blank2r.bmp	786	1	GKQX	786	1	blank2r.bmp	866	1	hindern	866	1	!	1292	1	!	1412	0	0	0	0	0	0	0	0	0	0	0	0	0	0	0	0	0	0	0	0	0	0	0	0	0	0	0
011519	12:39:22	12:45:06	343228	5.0.10.0	4_exp_EVA_AMP_AWA_CON	69	Rpleas_acq	Oppo	Rpleas	Bmasked	CS_B	1pleas	distractor1	EVAbeforeCON	acq_US_unple_masked	acq3_masked	3	6	453	0	300	300	0	0	602	46	0	1	0	0	0	1	blank2r.bmp	0	1	+	0	7	C3r.bmp	492	1	blank2r.bmp	786	1	GKQX	786	1	blank2r.bmp	866	2	leiden	866	1	!	1292	1	!	-1	0	0	0	0	0	0	0	0	0	0	0	0	0	0	0	0	0	0	0	0	0	0	0	0	0	0	0
011519	12:39:22	12:45:08	345667	5.0.10.0	4_exp_EVA_AMP_AWA_CON	69	Rpleas_acq	Oppo	Rpleas	Bmasked	CS_B	1pleas	distractor1	EVAbeforeCON	acq_US_unple_masked	acq3_masked	3	7	453	1	300	300	0	0	425	50	0	0	0	0	0	1	blank2r.bmp	0	1	+	0	6	C2r.bmp	492	1	blank2r.bmp	786	1	GKQX	786	1	blank2r.bmp	866	3	rächen	866	1	FEHLER	1639	1	!	1292	1	!	1319	0	0	0	0	0	0	0	0	0	0	0	0	0	0	0	0	0	0	0	0	0	0	0	0
011519	12:39:22	12:45:10	347600	5.0.10.0	4_exp_EVA_AMP_AWA_CON	69	Rpleas_acq	Oppo	Rpleas	Bmasked	CS_B	1pleas	distractor1	EVAbeforeCON	acq_US_unple_masked	acq3_masked	3	8	453	0	300	300	0	0	377	46	0	1	0	0	0	1	blank2r.bmp	0	1	+	0	1	B1r.bmp	492	1	blank2r.bmp	786	1	GKQX	786	1	blank2r.bmp	866	4	lasch	866	1	!	-1	1	!	-1	0	0	0	0	0	0	0	0	0	0	0	0	0	0	0	0	0	0	0	0	0	0	0	0	0	0	0
011519	12:39:22	12:45:12	349826	5.0.10.0	4_exp_EVA_AMP_AWA_CON	69	Rpleas_acq	Oppo	Rpleas	Bmasked	CS_B	1pleas	distractor1	EVAbeforeCON	acq_US_pleas_masked	acq3_masked	3	9	453	1	300	300	0	0	418	50	0	1	0	0	0	1	blank2r.bmp	0	1	+	0	4	B4r.bmp	492	1	blank2r.bmp	786	1	BMVZ	786	1	blank2r.bmp	866	3	retten	866	1	!	1292	1	!	1319	0	0	0	0	0	0	0	0	0	0	0	0	0	0	0	0	0	0	0	0	0	0	0	0	0	0	0
011519	12:39:22	12:45:14	352038	5.0.10.0	4_exp_EVA_AMP_AWA_CON	69	Rpleas_acq	Oppo	Rpleas	Bmasked	CS_B	1pleas	distractor1	EVAbeforeCON	acq_US_unple_masked	acq3_masked	3	10	453	1	300	300	0	0	412	46	0	1	0	0	0	1	blank2r.bmp	0	1	+	0	6	C2r.bmp	492	1	blank2r.bmp	786	1	GKQX	786	1	blank2r.bmp	866	6	schlecht	866	1	!	1292	1	!	1319	0	0	0	0	0	0	0	0	0	0	0	0	0	0	0	0	0	0	0	0	0	0	0	0	0	0	0
011519	12:39:22	12:45:16	354130	5.0.10.0	4_exp_EVA_AMP_AWA_CON	69	Rpleas_acq	Oppo	Rpleas	Bmasked	CS_B	1pleas	distractor1	EVAbeforeCON	acq_US_unple_masked	acq3_masked	3	11	453	0	300	300	0	0	323	46	0	1	0	0	0	1	blank2r.bmp	0	1	+	0	1	B1r.bmp	492	1	blank2r.bmp	786	1	GKQX	786	1	blank2r.bmp	866	5	strafen	866	1	!	-1	1	!	-1	0	0	0	0	0	0	0	0	0	0	0	0	0	0	0	0	0	0	0	0	0	0	0	0	0	0	0
011519	12:39:22	12:45:19	356290	5.0.10.0	4_exp_EVA_AMP_AWA_CON	69	Rpleas_acq	Oppo	Rpleas	Bmasked	CS_B	1pleas	distractor1	EVAbeforeCON	acq_US_pleas_masked	acq3_masked	3	12	453	0	300	300	0	0	381	50	0	1	0	0	0	1	blank2r.bmp	0	1	+	0	5	C1r.bmp	492	1	blank2r.bmp	786	1	BMVZ	786	1	blank2r.bmp	866	6	schön	866	1	!	-1	1	!	-1	0	0	0	0	0	0	0	0	0	0	0	0	0	0	0	0	0	0	0	0	0	0	0	0	0	0	0
011519	12:39:22	12:45:21	358609	5.0.10.0	4_exp_EVA_AMP_AWA_CON	69	Rpleas_acq	Oppo	Rpleas	Bmasked	CS_B	1pleas	distractor1	EVAbeforeCON	acq_US_unple_masked	acq3_masked	3	13	453	0	300	300	0	0	532	46	0	1	0	0	0	1	blank2r.bmp	0	1	+	0	8	C4r.bmp	492	1	blank2r.bmp	786	1	GKQX	786	1	blank2r.bmp	866	1	hindern	866	1	!	1292	1	!	-1	0	0	0	0	0	0	0	0	0	0	0	0	0	0	0	0	0	0	0	0	0	0	0	0	0	0	0
011519	12:39:22	12:45:23	360928	5.0.10.0	4_exp_EVA_AMP_AWA_CON	69	Rpleas_acq	Oppo	Rpleas	Bmasked	CS_B	1pleas	distractor1	EVAbeforeCON	acq_US_unple_masked	acq3_masked	3	14	453	1	300	300	0	0	514	46	0	1	0	0	0	1	blank2r.bmp	0	1	+	0	3	B3r.bmp	492	1	blank2r.bmp	786	1	GKQX	786	1	blank2r.bmp	866	6	schlecht	866	1	!	1292	1	!	1412	0	0	0	0	0	0	0	0	0	0	0	0	0	0	0	0	0	0	0	0	0	0	0	0	0	0	0
011519	12:39:22	12:45:25	363140	5.0.10.0	4_exp_EVA_AMP_AWA_CON	69	Rpleas_acq	Oppo	Rpleas	Bmasked	CS_B	1pleas	distractor1	EVAbeforeCON	acq_US_pleas_masked	acq3_masked	3	15	453	1	300	300	0	0	412	50	0	1	0	0	0	1	blank2r.bmp	0	1	+	0	7	C3r.bmp	492	1	blank2r.bmp	786	1	BMVZ	786	1	blank2r.bmp	866	1	helfen	866	1	!	1292	1	!	1306	0	0	0	0	0	0	0	0	0	0	0	0	0	0	0	0	0	0	0	0	0	0	0	0	0	0	0
011519	12:39:22	12:45:28	365246	5.0.10.0	4_exp_EVA_AMP_AWA_CON	69	Rpleas_acq	Oppo	Rpleas	Bmasked	CS_B	1pleas	distractor1	EVAbeforeCON	acq_US_unple_masked	acq3_masked	3	16	453	0	300	300	0	0	339	46	0	1	0	0	0	1	blank2r.bmp	0	1	+	0	2	B2r.bmp	492	1	blank2r.bmp	786	1	GKQX	786	1	blank2r.bmp	866	5	strafen	866	1	!	-1	1	!	-1	0	0	0	0	0	0	0	0	0	0	0	0	0	0	0	0	0	0	0	0	0	0	0	0	0	0	0
011519	12:39:22	12:45:30	367565	5.0.10.0	4_exp_EVA_AMP_AWA_CON	69	Rpleas_acq	Oppo	Rpleas	Bmasked	CS_B	1pleas	distractor1	EVAbeforeCON	acq_US_unple_masked	acq3_masked	3	17	453	0	300	300	0	0	534	46	0	1	0	0	0	1	blank2r.bmp	0	1	+	0	2	B2r.bmp	492	1	blank2r.bmp	786	1	GKQX	786	1	blank2r.bmp	866	2	leiden	866	1	!	1292	1	!	-1	0	0	0	0	0	0	0	0	0	0	0	0	0	0	0	0	0	0	0	0	0	0	0	0	0	0	0
011519	12:39:22	12:45:32	369991	5.0.10.0	4_exp_EVA_AMP_AWA_CON	69	Rpleas_acq	Oppo	Rpleas	Bmasked	CS_B	1pleas	distractor1	EVAbeforeCON	acq_US_unple_masked	acq3_masked	3	18	453	1	300	300	0	0	399	50	0	0	0	0	0	1	blank2r.bmp	0	1	+	0	6	C2r.bmp	492	1	blank2r.bmp	786	1	GKQX	786	1	blank2r.bmp	866	3	rächen	866	1	FEHLER	1625	1	!	1292	1	!	1306	0	0	0	0	0	0	0	0	0	0	0	0	0	0	0	0	0	0	0	0	0	0	0	0
011519	12:39:22	12:45:35	372496	5.0.10.0	4_exp_EVA_AMP_AWA_CON	69	Rpleas_acq	Oppo	Rpleas	Bmasked	CS_B	1pleas	distractor1	EVAbeforeCON	acq_US_pleas_masked	acq3_masked	3	19	453	0	300	300	0	0	727	46	0	0	0	0	0	1	blank2r.bmp	0	1	+	0	4	B4r.bmp	492	1	blank2r.bmp	786	1	BMVZ	786	1	blank2r.bmp	866	2	lachen	866	1	FEHLER	1932	1	!	1292	1	!	-1	0	0	0	0	0	0	0	0	0	0	0	0	0	0	0	0	0	0	0	0	0	0	0	0
011519	12:39:22	12:45:37	374509	5.0.10.0	4_exp_EVA_AMP_AWA_CON	69	Rpleas_acq	Oppo	Rpleas	Bmasked	CS_B	1pleas	distractor1	EVAbeforeCON	acq_US_pleas_masked	acq3_masked	3	20	453	1	300	300	0	0	438	50	0	1	0	0	0	1	blank2r.bmp	0	1	+	0	8	C4r.bmp	492	1	blank2r.bmp	786	1	BMVZ	786	1	blank2r.bmp	866	4	loyal	866	1	!	1292	1	!	1332	0	0	0	0	0	0	0	0	0	0	0	0	0	0	0	0	0	0	0	0	0	0	0	0	0	0	0
011519	12:39:22	12:45:39	376934	5.0.10.0	4_exp_EVA_AMP_AWA_CON	69	Rpleas_acq	Oppo	Rpleas	Bmasked	CS_B	1pleas	distractor1	EVAbeforeCON	acq_US_unple_masked	acq3_masked	3	21	453	0	300	300	0	0	655	46	0	1	0	0	0	1	blank2r.bmp	0	1	+	0	5	C1r.bmp	492	1	blank2r.bmp	786	1	GKQX	786	1	blank2r.bmp	866	4	lasch	866	1	!	1292	1	!	-1	0	0	0	0	0	0	0	0	0	0	0	0	0	0	0	0	0	0	0	0	0	0	0	0	0	0	0
011519	12:39:22	12:45:41	379173	5.0.10.0	4_exp_EVA_AMP_AWA_CON	69	Rpleas_acq	Oppo	Rpleas	Bmasked	CS_B	1pleas	distractor1	EVAbeforeCON	acq_US_pleas_masked	acq3_masked	3	22	453	1	300	300	0	0	416	50	0	1	0	0	0	1	blank2r.bmp	0	1	+	0	7	C3r.bmp	492	1	blank2r.bmp	786	1	BMVZ	786	1	blank2r.bmp	866	5	spielen	866	1	!	1292	1	!	1319	0	0	0	0	0	0	0	0	0	0	0	0	0	0	0	0	0	0	0	0	0	0	0	0	0	0	0
011519	12:39:22	12:45:44	381426	5.0.10.0	4_exp_EVA_AMP_AWA_CON	69	Rpleas_acq	Oppo	Rpleas	Bmasked	CS_B	1pleas	distractor1	EVAbeforeCON	acq_US_pleas_masked	acq3_masked	3	23	453	1	300	300	0	0	458	50	0	1	0	0	0	1	blank2r.bmp	0	1	+	0	1	B1r.bmp	492	1	blank2r.bmp	786	1	BMVZ	786	1	blank2r.bmp	866	6	schön	866	1	!	1292	1	!	1359	0	0	0	0	0	0	0	0	0	0	0	0	0	0	0	0	0	0	0	0	0	0	0	0	0	0	0
011519	12:39:22	12:45:46	383731	5.0.10.0	4_exp_EVA_AMP_AWA_CON	69	Rpleas_acq	Oppo	Rpleas	Bmasked	CS_B	1pleas	distractor1	EVAbeforeCON	acq_US_pleas_masked	acq3_masked	3	24	453	1	300	300	0	0	499	50	0	1	0	0	0	1	blank2r.bmp	0	1	+	0	3	B3r.bmp	492	1	blank2r.bmp	786	1	BMVZ	786	1	blank2r.bmp	866	3	retten	866	1	!	1292	1	!	1399	0	0	0	0	0	0	0	0	0	0	0	0	0	0	0	0	0	0	0	0	0	0	0	0	0	0	0
011519	12:39:22	12:45:48	386050	5.0.10.0	4_exp_EVA_AMP_AWA_CON	69	Rpleas_acq	Oppo	Rpleas	Bmasked	CS_B	1pleas	distractor1	EVAbeforeCON	acq_US_pleas_masked	acq3_masked	3	25	453	0	300	300	0	0	548	50	0	1	0	0	0	1	blank2r.bmp	0	1	+	0	3	B3r.bmp	492	1	blank2r.bmp	786	1	BMVZ	786	1	blank2r.bmp	866	3	retten	866	1	!	1292	1	!	-1	0	0	0	0	0	0	0	0	0	0	0	0	0	0	0	0	0	0	0	0	0	0	0	0	0	0	0
011519	12:39:22	12:45:51	388210	5.0.10.0	4_exp_EVA_AMP_AWA_CON	69	Rpleas_acq	Oppo	Rpleas	Bmasked	CS_B	1pleas	distractor1	EVAbeforeCON	acq_US_pleas_masked	acq3_masked	3	26	453	0	300	300	0	0	380	50	0	1	0	0	0	1	blank2r.bmp	0	1	+	0	2	B2r.bmp	492	1	blank2r.bmp	786	1	BMVZ	786	1	blank2r.bmp	866	1	helfen	866	1	!	-1	1	!	-1	0	0	0	0	0	0	0	0	0	0	0	0	0	0	0	0	0	0	0	0	0	0	0	0	0	0	0
011519	12:39:22	12:45:53	390489	5.0.10.0	4_exp_EVA_AMP_AWA_CON	69	Rpleas_acq	Oppo	Rpleas	Bmasked	CS_B	1pleas	distractor1	EVAbeforeCON	acq_US_pleas_masked	acq3_masked	3	27	453	1	300	300	0	0	478	50	0	1	0	0	0	1	blank2r.bmp	0	1	+	0	8	C4r.bmp	492	1	blank2r.bmp	786	1	BMVZ	786	1	blank2r.bmp	866	6	schön	866	1	!	1292	1	!	1372	0	0	0	0	0	0	0	0	0	0	0	0	0	0	0	0	0	0	0	0	0	0	0	0	0	0	0
011519	12:39:22	12:45:55	392714	5.0.10.0	4_exp_EVA_AMP_AWA_CON	69	Rpleas_acq	Oppo	Rpleas	Bmasked	CS_B	1pleas	distractor1	EVAbeforeCON	acq_US_unple_masked	acq3_masked	3	28	453	1	300	300	0	0	420	46	0	1	0	0	0	1	blank2r.bmp	0	1	+	0	5	C1r.bmp	492	1	blank2r.bmp	786	1	GKQX	786	1	blank2r.bmp	866	6	schlecht	866	1	!	1292	1	!	1319	0	0	0	0	0	0	0	0	0	0	0	0	0	0	0	0	0	0	0	0	0	0	0	0	0	0	0
011519	12:39:22	12:45:57	394967	5.0.10.0	4_exp_EVA_AMP_AWA_CON	69	Rpleas_acq	Oppo	Rpleas	Bmasked	CS_B	1pleas	distractor1	EVAbeforeCON	acq_US_unple_masked	acq3_masked	3	29	453	1	300	300	0	0	455	46	0	1	0	0	0	1	blank2r.bmp	0	1	+	0	4	B4r.bmp	492	1	blank2r.bmp	786	1	GKQX	786	1	blank2r.bmp	866	5	strafen	866	1	!	1292	1	!	1359	0	0	0	0	0	0	0	0	0	0	0	0	0	0	0	0	0	0	0	0	0	0	0	0	0	0	0
011519	12:39:22	12:45:59	397099	5.0.10.0	4_exp_EVA_AMP_AWA_CON	69	Rpleas_acq	Oppo	Rpleas	Bmasked	CS_B	1pleas	distractor1	EVAbeforeCON	acq_US_unple_masked	acq3_masked	3	30	453	0	300	300	0	0	353	46	0	1	0	0	0	1	blank2r.bmp	0	1	+	0	6	C2r.bmp	492	1	blank2r.bmp	786	1	GKQX	786	1	blank2r.bmp	866	4	lasch	866	1	!	-1	1	!	-1	0	0	0	0	0	0	0	0	0	0	0	0	0	0	0	0	0	0	0	0	0	0	0	0	0	0	0
011519	12:39:22	12:46:02	399418	5.0.10.0	4_exp_EVA_AMP_AWA_CON	69	Rpleas_acq	Oppo	Rpleas	Bmasked	CS_B	1pleas	distractor1	EVAbeforeCON	acq_US_pleas_masked	acq3_masked	3	31	453	1	300	300	0	0	513	50	0	1	0	0	0	1	blank2r.bmp	0	1	+	0	1	B1r.bmp	492	1	blank2r.bmp	786	1	BMVZ	786	1	blank2r.bmp	866	4	loyal	866	1	!	1292	1	!	1412	0	0	0	0	0	0	0	0	0	0	0	0	0	0	0	0	0	0	0	0	0	0	0	0	0	0	0
011519	12:39:22	12:46:04	401684	5.0.10.0	4_exp_EVA_AMP_AWA_CON	69	Rpleas_acq	Oppo	Rpleas	Bmasked	CS_B	1pleas	distractor1	EVAbeforeCON	acq_US_unple_masked	acq3_masked	3	32	453	1	300	300	0	0	467	46	0	1	0	0	0	1	blank2r.bmp	0	1	+	0	7	C3r.bmp	492	1	blank2r.bmp	786	1	GKQX	786	1	blank2r.bmp	866	2	leiden	866	1	!	1292	1	!	1372	0	0	0	0	0	0	0	0	0	0	0	0	0	0	0	0	0	0	0	0	0	0	0	0	0	0	0
011519	12:39:22	12:46:06	403990	5.0.10.0	4_exp_EVA_AMP_AWA_CON	69	Rpleas_acq	Oppo	Rpleas	Bmasked	CS_B	1pleas	distractor1	EVAbeforeCON	acq_US_unple_masked	acq3_masked	3	33	453	0	300	300	0	0	532	46	0	1	0	0	0	1	blank2r.bmp	0	1	+	0	5	C1r.bmp	492	1	blank2r.bmp	786	1	GKQX	786	1	blank2r.bmp	866	3	rächen	866	1	!	1292	1	!	-1	0	0	0	0	0	0	0	0	0	0	0	0	0	0	0	0	0	0	0	0	0	0	0	0	0	0	0
011519	12:39:22	12:46:09	406309	5.0.10.0	4_exp_EVA_AMP_AWA_CON	69	Rpleas_acq	Oppo	Rpleas	Bmasked	CS_B	1pleas	distractor1	EVAbeforeCON	acq_US_pleas_masked	acq3_masked	3	34	453	0	300	300	0	0	535	50	0	1	0	0	0	1	blank2r.bmp	0	1	+	0	8	C4r.bmp	492	1	blank2r.bmp	786	1	BMVZ	786	1	blank2r.bmp	866	5	spielen	866	1	!	1292	1	!	-1	0	0	0	0	0	0	0	0	0	0	0	0	0	0	0	0	0	0	0	0	0	0	0	0	0	0	0
011519	12:39:22	12:46:11	408574	5.0.10.0	4_exp_EVA_AMP_AWA_CON	69	Rpleas_acq	Oppo	Rpleas	Bmasked	CS_B	1pleas	distractor1	EVAbeforeCON	acq_US_unple_masked	acq3_masked	3	35	453	1	300	300	0	0	459	46	0	1	0	0	0	1	blank2r.bmp	0	1	+	0	3	B3r.bmp	492	1	blank2r.bmp	786	1	GKQX	786	1	blank2r.bmp	866	1	hindern	866	1	!	1292	1	!	1359	0	0	0	0	0	0	0	0	0	0	0	0	0	0	0	0	0	0	0	0	0	0	0	0	0	0	0
011519	12:39:22	12:46:13	410987	5.0.10.0	4_exp_EVA_AMP_AWA_CON	69	Rpleas_acq	Oppo	Rpleas	Bmasked	CS_B	1pleas	distractor1	EVAbeforeCON	acq_US_pleas_masked	acq3_masked	3	36	453	1	300	300	0	0	399	46	0	0	0	0	0	1	blank2r.bmp	0	1	+	0	4	B4r.bmp	492	1	blank2r.bmp	786	1	BMVZ	786	1	blank2r.bmp	866	2	lachen	866	1	FEHLER	1625	1	!	1292	1	!	1306	0	0	0	0	0	0	0	0	0	0	0	0	0	0	0	0	0	0	0	0	0	0	0	0
011519	12:39:22	12:46:28	425927	5.0.10.0	4_exp_EVA_AMP_AWA_CON	69	Rpleas_acq	Oppo	Rpleas	Bmasked	CS_B	1pleas	distractor1	EVAbeforeCON	acq_US_unple_masked	acq45_masked	4	1	400	1	300	300	0	0	466	46	0	1	0	0	0	1	blank2r.bmp	0	1	+	0	2	B2r.bmp	492	1	blank2r.bmp	786	1	GKQX	786	1	blank2r.bmp	866	1	hindern	866	1	!	1239	1	!	1372	0	0	0	0	0	0	0	0	0	0	0	0	0	0	0	0	0	0	0	0	0	0	0	0	0	0	0
011519	12:39:22	12:46:30	428179	5.0.10.0	4_exp_EVA_AMP_AWA_CON	69	Rpleas_acq	Oppo	Rpleas	Bmasked	CS_B	1pleas	distractor1	EVAbeforeCON	acq_US_unple_masked	acq45_masked	4	2	400	0	300	300	0	0	489	46	0	1	0	0	0	1	blank2r.bmp	0	1	+	0	6	C2r.bmp	492	1	blank2r.bmp	786	1	GKQX	786	1	blank2r.bmp	866	3	rächen	866	1	!	1239	1	!	-1	0	0	0	0	0	0	0	0	0	0	0	0	0	0	0	0	0	0	0	0	0	0	0	0	0	0	0
011519	12:39:22	12:46:33	430445	5.0.10.0	4_exp_EVA_AMP_AWA_CON	69	Rpleas_acq	Oppo	Rpleas	Bmasked	CS_B	1pleas	distractor1	EVAbeforeCON	acq_US_pleas_masked	acq45_masked	4	3	400	0	300	300	0	0	482	50	0	1	0	0	0	1	blank2r.bmp	0	1	+	0	1	B1r.bmp	492	1	blank2r.bmp	786	1	BMVZ	786	1	blank2r.bmp	866	2	lachen	866	1	!	1239	1	!	-1	0	0	0	0	0	0	0	0	0	0	0	0	0	0	0	0	0	0	0	0	0	0	0	0	0	0	0
011519	12:39:22	12:46:35	432631	5.0.10.0	4_exp_EVA_AMP_AWA_CON	69	Rpleas_acq	Oppo	Rpleas	Bmasked	CS_B	1pleas	distractor1	EVAbeforeCON	acq_US_pleas_masked	acq45_masked	4	4	400	1	300	300	0	0	379	50	0	1	0	0	0	1	blank2r.bmp	0	1	+	0	7	C3r.bmp	492	1	blank2r.bmp	786	1	BMVZ	786	1	blank2r.bmp	866	4	loyal	866	1	!	1239	1	!	1279	0	0	0	0	0	0	0	0	0	0	0	0	0	0	0	0	0	0	0	0	0	0	0	0	0	0	0
011519	12:39:22	12:46:37	434870	5.0.10.0	4_exp_EVA_AMP_AWA_CON	69	Rpleas_acq	Oppo	Rpleas	Bmasked	CS_B	1pleas	distractor1	EVAbeforeCON	acq_US_pleas_masked	acq45_masked	4	5	400	1	300	300	0	0	447	50	0	1	0	0	0	1	blank2r.bmp	0	1	+	0	3	B3r.bmp	492	1	blank2r.bmp	786	1	BMVZ	786	1	blank2r.bmp	866	5	spielen	866	1	!	1239	1	!	1346	0	0	0	0	0	0	0	0	0	0	0	0	0	0	0	0	0	0	0	0	0	0	0	0	0	0	0
011519	12:39:22	12:46:39	437136	5.0.10.0	4_exp_EVA_AMP_AWA_CON	69	Rpleas_acq	Oppo	Rpleas	Bmasked	CS_B	1pleas	distractor1	EVAbeforeCON	acq_US_unple_masked	acq45_masked	4	6	400	0	300	300	0	0	486	46	0	1	0	0	0	1	blank2r.bmp	0	1	+	0	2	B2r.bmp	492	1	blank2r.bmp	786	1	GKQX	786	1	blank2r.bmp	866	6	schlecht	866	1	!	1239	1	!	-1	0	0	0	0	0	0	0	0	0	0	0	0	0	0	0	0	0	0	0	0	0	0	0	0	0	0	0
011519	12:39:22	12:46:42	439401	5.0.10.0	4_exp_EVA_AMP_AWA_CON	69	Rpleas_acq	Oppo	Rpleas	Bmasked	CS_B	1pleas	distractor1	EVAbeforeCON	acq_US_unple_masked	acq45_masked	4	7	400	1	300	300	0	0	447	46	0	1	0	0	0	1	blank2r.bmp	0	1	+	0	4	B4r.bmp	492	1	blank2r.bmp	786	1	GKQX	786	1	blank2r.bmp	866	5	strafen	866	1	!	1239	1	!	1346	0	0	0	0	0	0	0	0	0	0	0	0	0	0	0	0	0	0	0	0	0	0	0	0	0	0	0
011519	12:39:22	12:46:44	441614	5.0.10.0	4_exp_EVA_AMP_AWA_CON	69	Rpleas_acq	Oppo	Rpleas	Bmasked	CS_B	1pleas	distractor1	EVAbeforeCON	acq_US_pleas_masked	acq45_masked	4	8	400	1	300	300	0	0	423	50	0	1	0	0	0	1	blank2r.bmp	0	1	+	0	8	C4r.bmp	492	1	blank2r.bmp	786	1	BMVZ	786	1	blank2r.bmp	866	3	retten	866	1	!	1239	1	!	1319	0	0	0	0	0	0	0	0	0	0	0	0	0	0	0	0	0	0	0	0	0	0	0	0	0	0	0
011519	12:39:22	12:46:46	443839	5.0.10.0	4_exp_EVA_AMP_AWA_CON	69	Rpleas_acq	Oppo	Rpleas	Bmasked	CS_B	1pleas	distractor1	EVAbeforeCON	acq_US_unple_masked	acq45_masked	4	9	400	1	300	300	0	0	432	46	0	1	0	0	0	1	blank2r.bmp	0	1	+	0	1	B1r.bmp	492	1	blank2r.bmp	786	1	GKQX	786	1	blank2r.bmp	866	2	leiden	866	1	!	1239	1	!	1332	0	0	0	0	0	0	0	0	0	0	0	0	0	0	0	0	0	0	0	0	0	0	0	0	0	0	0
011519	12:39:22	12:46:48	446092	5.0.10.0	4_exp_EVA_AMP_AWA_CON	69	Rpleas_acq	Oppo	Rpleas	Bmasked	CS_B	1pleas	distractor1	EVAbeforeCON	acq_US_pleas_masked	acq45_masked	4	10	400	0	300	300	0	0	479	50	0	1	0	0	0	1	blank2r.bmp	0	1	+	0	6	C2r.bmp	492	1	blank2r.bmp	786	1	BMVZ	786	1	blank2r.bmp	866	6	schön	866	1	!	1239	1	!	-1	0	0	0	0	0	0	0	0	0	0	0	0	0	0	0	0	0	0	0	0	0	0	0	0	0	0	0
011519	12:39:22	12:46:51	448304	5.0.10.0	4_exp_EVA_AMP_AWA_CON	69	Rpleas_acq	Oppo	Rpleas	Bmasked	CS_B	1pleas	distractor1	EVAbeforeCON	acq_US_pleas_masked	acq45_masked	4	11	400	1	300	300	0	0	410	46	0	0	0	0	0	1	blank2r.bmp	0	1	+	0	7	C3r.bmp	492	1	blank2r.bmp	786	1	BMVZ	786	1	blank2r.bmp	866	1	helfen	866	1	!	1239	1	!	1306	0	0	0	0	0	0	0	0	0	0	0	0	0	0	0	0	0	0	0	0	0	0	0	0	0	0	0
011519	12:39:22	12:46:53	450530	5.0.10.0	4_exp_EVA_AMP_AWA_CON	69	Rpleas_acq	Oppo	Rpleas	Bmasked	CS_B	1pleas	distractor1	EVAbeforeCON	acq_US_unple_masked	acq45_masked	4	12	400	1	300	300	0	0	437	46	0	1	0	0	0	1	blank2r.bmp	0	1	+	0	5	C1r.bmp	492	1	blank2r.bmp	786	1	GKQX	786	1	blank2r.bmp	866	4	lasch	866	1	!	1239	1	!	1332	0	0	0	0	0	0	0	0	0	0	0	0	0	0	0	0	0	0	0	0	0	0	0	0	0	0	0
011519	12:39:22	12:46:55	452756	5.0.10.0	4_exp_EVA_AMP_AWA_CON	69	Rpleas_acq	Oppo	Rpleas	Bmasked	CS_B	1pleas	distractor1	EVAbeforeCON	acq_US_unple_masked	acq45_masked	4	13	400	1	300	300	0	0	437	46	0	1	0	0	0	1	blank2r.bmp	0	1	+	0	2	B2r.bmp	492	1	blank2r.bmp	786	1	GKQX	786	1	blank2r.bmp	866	4	lasch	866	1	!	1239	1	!	1332	0	0	0	0	0	0	0	0	0	0	0	0	0	0	0	0	0	0	0	0	0	0	0	0	0	0	0
011519	12:39:22	12:46:57	454981	5.0.10.0	4_exp_EVA_AMP_AWA_CON	69	Rpleas_acq	Oppo	Rpleas	Bmasked	CS_B	1pleas	distractor1	EVAbeforeCON	acq_US_unple_masked	acq45_masked	4	14	400	1	300	300	0	0	429	46	0	1	0	0	0	1	blank2r.bmp	0	1	+	0	1	B1r.bmp	492	1	blank2r.bmp	786	1	GKQX	786	1	blank2r.bmp	866	6	schlecht	866	1	!	1239	1	!	1332	0	0	0	0	0	0	0	0	0	0	0	0	0	0	0	0	0	0	0	0	0	0	0	0	0	0	0
011519	12:39:22	12:47:00	457221	5.0.10.0	4_exp_EVA_AMP_AWA_CON	69	Rpleas_acq	Oppo	Rpleas	Bmasked	CS_B	1pleas	distractor1	EVAbeforeCON	acq_US_pleas_masked	acq45_masked	4	15	400	1	300	300	0	0	444	46	0	0	0	0	0	1	blank2r.bmp	0	1	+	0	4	B4r.bmp	492	1	blank2r.bmp	786	1	BMVZ	786	1	blank2r.bmp	866	4	loyal	866	1	!	1239	1	!	1346	0	0	0	0	0	0	0	0	0	0	0	0	0	0	0	0	0	0	0	0	0	0	0	0	0	0	0
011519	12:39:22	12:47:02	459420	5.0.10.0	4_exp_EVA_AMP_AWA_CON	69	Rpleas_acq	Oppo	Rpleas	Bmasked	CS_B	1pleas	distractor1	EVAbeforeCON	acq_US_pleas_masked	acq45_masked	4	16	400	1	300	300	0	0	401	50	0	1	0	0	0	1	blank2r.bmp	0	1	+	0	8	C4r.bmp	492	1	blank2r.bmp	786	1	BMVZ	786	1	blank2r.bmp	866	6	schön	866	1	!	1239	1	!	1306	0	0	0	0	0	0	0	0	0	0	0	0	0	0	0	0	0	0	0	0	0	0	0	0	0	0	0
011519	12:39:22	12:47:04	461805	5.0.10.0	4_exp_EVA_AMP_AWA_CON	69	Rpleas_acq	Oppo	Rpleas	Bmasked	CS_B	1pleas	distractor1	EVAbeforeCON	acq_US_unple_masked	acq45_masked	4	17	400	0	300	300	0	0	618	46	0	1	0	0	0	1	blank2r.bmp	0	1	+	0	5	C1r.bmp	492	1	blank2r.bmp	786	1	GKQX	786	1	blank2r.bmp	866	5	strafen	866	1	!	1239	1	!	-1	0	0	0	0	0	0	0	0	0	0	0	0	0	0	0	0	0	0	0	0	0	0	0	0	0	0	0
011519	12:39:22	12:47:06	463964	5.0.10.0	4_exp_EVA_AMP_AWA_CON	69	Rpleas_acq	Oppo	Rpleas	Bmasked	CS_B	1pleas	distractor1	EVAbeforeCON	acq_US_pleas_masked	acq45_masked	4	18	400	1	300	300	0	0	356	50	0	1	0	0	0	1	blank2r.bmp	0	1	+	0	7	C3r.bmp	492	1	blank2r.bmp	786	1	BMVZ	786	1	blank2r.bmp	866	5	spielen	866	1	!	1239	1	!	1252	0	0	0	0	0	0	0	0	0	0	0	0	0	0	0	0	0	0	0	0	0	0	0	0	0	0	0
011519	12:39:22	12:47:09	466230	5.0.10.0	4_exp_EVA_AMP_AWA_CON	69	Rpleas_acq	Oppo	Rpleas	Bmasked	CS_B	1pleas	distractor1	EVAbeforeCON	acq_US_unple_masked	acq45_masked	4	19	400	0	300	300	0	0	479	46	0	1	0	0	0	1	blank2r.bmp	0	1	+	0	3	B3r.bmp	492	1	blank2r.bmp	786	1	GKQX	786	1	blank2r.bmp	866	2	leiden	866	1	!	1239	1	!	-1	0	0	0	0	0	0	0	0	0	0	0	0	0	0	0	0	0	0	0	0	0	0	0	0	0	0	0
011519	12:39:22	12:47:11	468429	5.0.10.0	4_exp_EVA_AMP_AWA_CON	69	Rpleas_acq	Oppo	Rpleas	Bmasked	CS_B	1pleas	distractor1	EVAbeforeCON	acq_US_pleas_masked	acq45_masked	4	20	400	1	300	300	0	0	378	50	0	1	0	0	0	1	blank2r.bmp	0	1	+	0	6	C2r.bmp	492	1	blank2r.bmp	786	1	BMVZ	786	1	blank2r.bmp	866	2	lachen	866	1	!	1239	1	!	1279	0	0	0	0	0	0	0	0	0	0	0	0	0	0	0	0	0	0	0	0	0	0	0	0	0	0	0
011519	12:39:22	12:47:13	470655	5.0.10.0	4_exp_EVA_AMP_AWA_CON	69	Rpleas_acq	Oppo	Rpleas	Bmasked	CS_B	1pleas	distractor1	EVAbeforeCON	acq_US_pleas_masked	acq45_masked	4	21	400	1	300	300	0	0	430	50	0	1	0	0	0	1	blank2r.bmp	0	1	+	0	4	B4r.bmp	492	1	blank2r.bmp	786	1	BMVZ	786	1	blank2r.bmp	866	1	helfen	866	1	!	1239	1	!	1332	0	0	0	0	0	0	0	0	0	0	0	0	0	0	0	0	0	0	0	0	0	0	0	0	0	0	0
011519	12:39:22	12:47:15	472987	5.0.10.0	4_exp_EVA_AMP_AWA_CON	69	Rpleas_acq	Oppo	Rpleas	Bmasked	CS_B	1pleas	distractor1	EVAbeforeCON	acq_US_unple_masked	acq45_masked	4	22	400	0	300	300	0	0	566	46	0	1	0	0	0	1	blank2r.bmp	0	1	+	0	8	C4r.bmp	492	1	blank2r.bmp	786	1	GKQX	786	1	blank2r.bmp	866	3	rächen	866	1	!	1239	1	!	-1	0	0	0	0	0	0	0	0	0	0	0	0	0	0	0	0	0	0	0	0	0	0	0	0	0	0	0
011519	12:39:22	12:47:18	475253	5.0.10.0	4_exp_EVA_AMP_AWA_CON	69	Rpleas_acq	Oppo	Rpleas	Bmasked	CS_B	1pleas	distractor1	EVAbeforeCON	acq_US_pleas_masked	acq45_masked	4	23	400	0	300	300	0	0	488	50	0	1	0	0	0	1	blank2r.bmp	0	1	+	0	5	C1r.bmp	492	1	blank2r.bmp	786	1	BMVZ	786	1	blank2r.bmp	866	3	retten	866	1	!	1239	1	!	-1	0	0	0	0	0	0	0	0	0	0	0	0	0	0	0	0	0	0	0	0	0	0	0	0	0	0	0
011519	12:39:22	12:47:20	477425	5.0.10.0	4_exp_EVA_AMP_AWA_CON	69	Rpleas_acq	Oppo	Rpleas	Bmasked	CS_B	1pleas	distractor1	EVAbeforeCON	acq_US_unple_masked	acq45_masked	4	24	400	1	300	300	0	0	371	46	0	1	0	0	0	1	blank2r.bmp	0	1	+	0	6	C2r.bmp	492	1	blank2r.bmp	786	1	GKQX	786	1	blank2r.bmp	866	1	hindern	866	1	!	1239	1	!	1266	0	0	0	0	0	0	0	0	0	0	0	0	0	0	0	0	0	0	0	0	0	0	0	0	0	0	0
011519	12:39:22	12:47:22	479678	5.0.10.0	4_exp_EVA_AMP_AWA_CON	69	Rpleas_acq	Oppo	Rpleas	Bmasked	CS_B	1pleas	distractor1	EVAbeforeCON	acq_US_pleas_masked	acq45_masked	4	25	400	0	300	300	0	0	479	50	0	1	0	0	0	1	blank2r.bmp	0	1	+	0	3	B3r.bmp	492	1	blank2r.bmp	786	1	BMVZ	786	1	blank2r.bmp	866	4	loyal	866	1	!	1239	1	!	-1	0	0	0	0	0	0	0	0	0	0	0	0	0	0	0	0	0	0	0	0	0	0	0	0	0	0	0
011519	12:39:22	12:47:24	481837	5.0.10.0	4_exp_EVA_AMP_AWA_CON	69	Rpleas_acq	Oppo	Rpleas	Bmasked	CS_B	1pleas	distractor1	EVAbeforeCON	acq_US_unple_masked	acq45_masked	4	26	400	1	300	300	0	0	348	46	0	1	0	0	0	1	blank2r.bmp	0	1	+	0	2	B2r.bmp	492	1	blank2r.bmp	786	1	GKQX	786	1	blank2r.bmp	866	3	rächen	866	1	!	1239	1	!	1252	0	0	0	0	0	0	0	0	0	0	0	0	0	0	0	0	0	0	0	0	0	0	0	0	0	0	0
011519	12:39:22	12:47:26	484036	5.0.10.0	4_exp_EVA_AMP_AWA_CON	69	Rpleas_acq	Oppo	Rpleas	Bmasked	CS_B	1pleas	distractor1	EVAbeforeCON	acq_US_unple_masked	acq45_masked	4	27	400	1	300	300	0	0	407	50	0	0	0	0	0	1	blank2r.bmp	0	1	+	0	7	C3r.bmp	492	1	blank2r.bmp	786	1	GKQX	786	1	blank2r.bmp	866	1	hindern	866	1	!	1239	1	!	1306	0	0	0	0	0	0	0	0	0	0	0	0	0	0	0	0	0	0	0	0	0	0	0	0	0	0	0
011519	12:39:22	12:47:29	486208	5.0.10.0	4_exp_EVA_AMP_AWA_CON	69	Rpleas_acq	Oppo	Rpleas	Bmasked	CS_B	1pleas	distractor1	EVAbeforeCON	acq_US_unple_masked	acq45_masked	4	28	400	1	300	300	0	0	374	46	0	1	0	0	0	1	blank2r.bmp	0	1	+	0	1	B1r.bmp	492	1	blank2r.bmp	786	1	GKQX	786	1	blank2r.bmp	866	6	schlecht	866	1	!	1239	1	!	1279	0	0	0	0	0	0	0	0	0	0	0	0	0	0	0	0	0	0	0	0	0	0	0	0	0	0	0
011519	12:39:22	12:47:31	488301	5.0.10.0	4_exp_EVA_AMP_AWA_CON	69	Rpleas_acq	Oppo	Rpleas	Bmasked	CS_B	1pleas	distractor1	EVAbeforeCON	acq_US_pleas_masked	acq45_masked	4	29	400	0	300	300	0	0	328	46	0	0	0	0	0	1	blank2r.bmp	0	1	+	0	2	B2r.bmp	492	1	blank2r.bmp	786	1	BMVZ	786	1	blank2r.bmp	866	3	retten	866	1	!	-1	1	!	-1	0	0	0	0	0	0	0	0	0	0	0	0	0	0	0	0	0	0	0	0	0	0	0	0	0	0	0
011519	12:39:22	12:47:33	490553	5.0.10.0	4_exp_EVA_AMP_AWA_CON	69	Rpleas_acq	Oppo	Rpleas	Bmasked	CS_B	1pleas	distractor1	EVAbeforeCON	acq_US_unple_masked	acq45_masked	4	30	400	1	300	300	0	0	449	46	0	1	0	0	0	1	blank2r.bmp	0	1	+	0	5	C1r.bmp	492	1	blank2r.bmp	786	1	GKQX	786	1	blank2r.bmp	866	4	lasch	866	1	!	1239	1	!	1346	0	0	0	0	0	0	0	0	0	0	0	0	0	0	0	0	0	0	0	0	0	0	0	0	0	0	0
011519	12:39:22	12:47:35	492779	5.0.10.0	4_exp_EVA_AMP_AWA_CON	69	Rpleas_acq	Oppo	Rpleas	Bmasked	CS_B	1pleas	distractor1	EVAbeforeCON	acq_US_pleas_masked	acq45_masked	4	31	400	1	300	300	0	0	428	46	0	0	0	0	0	1	blank2r.bmp	0	1	+	0	6	C2r.bmp	492	1	blank2r.bmp	786	1	BMVZ	786	1	blank2r.bmp	866	1	helfen	866	1	!	1239	1	!	1332	0	0	0	0	0	0	0	0	0	0	0	0	0	0	0	0	0	0	0	0	0	0	0	0	0	0	0
011519	12:39:22	12:47:37	494938	5.0.10.0	4_exp_EVA_AMP_AWA_CON	69	Rpleas_acq	Oppo	Rpleas	Bmasked	CS_B	1pleas	distractor1	EVAbeforeCON	acq_US_pleas_masked	acq45_masked	4	32	400	1	300	300	0	0	346	50	0	1	0	0	0	1	blank2r.bmp	0	1	+	0	3	B3r.bmp	492	1	blank2r.bmp	786	1	BMVZ	786	1	blank2r.bmp	866	6	schön	866	1	!	1239	1	!	1252	0	0	0	0	0	0	0	0	0	0	0	0	0	0	0	0	0	0	0	0	0	0	0	0	0	0	0
011519	12:39:22	12:47:39	497150	5.0.10.0	4_exp_EVA_AMP_AWA_CON	69	Rpleas_acq	Oppo	Rpleas	Bmasked	CS_B	1pleas	distractor1	EVAbeforeCON	acq_US_unple_masked	acq45_masked	4	33	400	1	300	300	0	0	416	46	0	1	0	0	0	1	blank2r.bmp	0	1	+	0	4	B4r.bmp	492	1	blank2r.bmp	786	1	GKQX	786	1	blank2r.bmp	866	2	leiden	866	1	!	1239	1	!	1319	0	0	0	0	0	0	0	0	0	0	0	0	0	0	0	0	0	0	0	0	0	0	0	0	0	0	0
011519	12:39:22	12:47:42	499336	5.0.10.0	4_exp_EVA_AMP_AWA_CON	69	Rpleas_acq	Oppo	Rpleas	Bmasked	CS_B	1pleas	distractor1	EVAbeforeCON	acq_US_pleas_masked	acq45_masked	4	34	400	1	300	300	0	0	387	50	0	1	0	0	0	1	blank2r.bmp	0	1	+	0	8	C4r.bmp	492	1	blank2r.bmp	786	1	BMVZ	786	1	blank2r.bmp	866	2	lachen	866	1	!	1239	1	!	1292	0	0	0	0	0	0	0	0	0	0	0	0	0	0	0	0	0	0	0	0	0	0	0	0	0	0	0
011519	12:39:22	12:47:44	501509	5.0.10.0	4_exp_EVA_AMP_AWA_CON	69	Rpleas_acq	Oppo	Rpleas	Bmasked	CS_B	1pleas	distractor1	EVAbeforeCON	acq_US_unple_masked	acq45_masked	4	35	400	1	300	300	0	0	376	46	0	1	0	0	0	1	blank2r.bmp	0	1	+	0	7	C3r.bmp	492	1	blank2r.bmp	786	1	GKQX	786	1	blank2r.bmp	866	5	strafen	866	1	!	1239	1	!	1279	0	0	0	0	0	0	0	0	0	0	0	0	0	0	0	0	0	0	0	0	0	0	0	0	0	0	0
011519	12:39:22	12:47:46	503708	5.0.10.0	4_exp_EVA_AMP_AWA_CON	69	Rpleas_acq	Oppo	Rpleas	Bmasked	CS_B	1pleas	distractor1	EVAbeforeCON	acq_US_pleas_masked	acq45_masked	4	36	400	1	300	300	0	0	406	50	0	1	0	0	0	1	blank2r.bmp	0	1	+	0	1	B1r.bmp	492	1	blank2r.bmp	786	1	BMVZ	786	1	blank2r.bmp	866	5	spielen	866	1	!	1239	1	!	1306	0	0	0	0	0	0	0	0	0	0	0	0	0	0	0	0	0	0	0	0	0	0	0	0	0	0	0
011519	12:39:22	12:47:58	516009	5.0.10.0	4_exp_EVA_AMP_AWA_CON	69	Rpleas_acq	Oppo	Rpleas	Bmasked	CS_B	1pleas	distractor1	EVAbeforeCON	acq_US_unple_masked	acq45_masked	5	1	400	1	300	300	0	0	414	46	0	1	0	0	0	1	blank2r.bmp	0	1	+	0	8	C4r.bmp	492	1	blank2r.bmp	786	1	GKQX	786	1	blank2r.bmp	866	1	hindern	866	1	!	1239	1	!	1319	0	0	0	0	0	0	0	0	0	0	0	0	0	0	0	0	0	0	0	0	0	0	0	0	0	0	0
011519	12:39:22	12:48:00	518168	5.0.10.0	4_exp_EVA_AMP_AWA_CON	69	Rpleas_acq	Oppo	Rpleas	Bmasked	CS_B	1pleas	distractor1	EVAbeforeCON	acq_US_pleas_masked	acq45_masked	5	2	400	1	300	300	0	0	364	50	0	1	0	0	0	1	blank2r.bmp	0	1	+	0	7	C3r.bmp	492	1	blank2r.bmp	786	1	BMVZ	786	1	blank2r.bmp	866	5	spielen	866	1	!	1239	1	!	1266	0	0	0	0	0	0	0	0	0	0	0	0	0	0	0	0	0	0	0	0	0	0	0	0	0	0	0
011519	12:39:22	12:48:03	520367	5.0.10.0	4_exp_EVA_AMP_AWA_CON	69	Rpleas_acq	Oppo	Rpleas	Bmasked	CS_B	1pleas	distractor1	EVAbeforeCON	acq_US_unple_masked	acq45_masked	5	3	400	1	300	300	0	0	403	46	0	1	0	0	0	1	blank2r.bmp	0	1	+	0	4	B4r.bmp	492	1	blank2r.bmp	786	1	GKQX	786	1	blank2r.bmp	866	6	schlecht	866	1	!	1239	1	!	1306	0	0	0	0	0	0	0	0	0	0	0	0	0	0	0	0	0	0	0	0	0	0	0	0	0	0	0
011519	12:39:22	12:48:05	522620	5.0.10.0	4_exp_EVA_AMP_AWA_CON	69	Rpleas_acq	Oppo	Rpleas	Bmasked	CS_B	1pleas	distractor1	EVAbeforeCON	acq_US_unple_masked	acq45_masked	5	4	400	1	300	300	0	0	461	46	0	1	0	0	0	1	blank2r.bmp	0	1	+	0	3	B3r.bmp	492	1	blank2r.bmp	786	1	GKQX	786	1	blank2r.bmp	866	2	leiden	866	1	!	1239	1	!	1359	0	0	0	0	0	0	0	0	0	0	0	0	0	0	0	0	0	0	0	0	0	0	0	0	0	0	0
011519	12:39:22	12:48:07	524832	5.0.10.0	4_exp_EVA_AMP_AWA_CON	69	Rpleas_acq	Oppo	Rpleas	Bmasked	CS_B	1pleas	distractor1	EVAbeforeCON	acq_US_pleas_masked	acq45_masked	5	5	400	1	300	300	0	0	409	50	0	1	0	0	0	1	blank2r.bmp	0	1	+	0	5	C1r.bmp	492	1	blank2r.bmp	786	1	BMVZ	786	1	blank2r.bmp	866	1	helfen	866	1	!	1239	1	!	1306	0	0	0	0	0	0	0	0	0	0	0	0	0	0	0	0	0	0	0	0	0	0	0	0	0	0	0
011519	12:39:22	12:48:09	527058	5.0.10.0	4_exp_EVA_AMP_AWA_CON	69	Rpleas_acq	Oppo	Rpleas	Bmasked	CS_B	1pleas	distractor1	EVAbeforeCON	acq_US_unple_masked	acq45_masked	5	6	400	1	300	300	0	0	437	46	0	1	0	0	0	1	blank2r.bmp	0	1	+	0	6	C2r.bmp	492	1	blank2r.bmp	786	1	GKQX	786	1	blank2r.bmp	866	5	strafen	866	1	!	1239	1	!	1332	0	0	0	0	0	0	0	0	0	0	0	0	0	0	0	0	0	0	0	0	0	0	0	0	0	0	0
011519	12:39:22	12:48:12	529310	5.0.10.0	4_exp_EVA_AMP_AWA_CON	69	Rpleas_acq	Oppo	Rpleas	Bmasked	CS_B	1pleas	distractor1	EVAbeforeCON	acq_US_unple_masked	acq45_masked	5	7	400	1	300	300	0	0	459	46	0	1	0	0	0	1	blank2r.bmp	0	1	+	0	2	B2r.bmp	492	1	blank2r.bmp	786	1	GKQX	786	1	blank2r.bmp	866	3	rächen	866	1	!	1239	1	!	1359	0	0	0	0	0	0	0	0	0	0	0	0	0	0	0	0	0	0	0	0	0	0	0	0	0	0	0
011519	12:39:22	12:48:14	531563	5.0.10.0	4_exp_EVA_AMP_AWA_CON	69	Rpleas_acq	Oppo	Rpleas	Bmasked	CS_B	1pleas	distractor1	EVAbeforeCON	acq_US_pleas_masked	acq45_masked	5	8	400	0	300	300	0	0	488	50	0	1	0	0	0	1	blank2r.bmp	0	1	+	0	1	B1r.bmp	492	1	blank2r.bmp	786	1	BMVZ	786	1	blank2r.bmp	866	3	retten	866	1	!	1239	1	!	-1	0	0	0	0	0	0	0	0	0	0	0	0	0	0	0	0	0	0	0	0	0	0	0	0	0	0	0
011519	12:39:22	12:48:16	533735	5.0.10.0	4_exp_EVA_AMP_AWA_CON	69	Rpleas_acq	Oppo	Rpleas	Bmasked	CS_B	1pleas	distractor1	EVAbeforeCON	acq_US_pleas_masked	acq45_masked	5	9	400	1	300	300	0	0	346	46	0	0	0	0	0	1	blank2r.bmp	0	1	+	0	3	B3r.bmp	492	1	blank2r.bmp	786	1	BMVZ	786	1	blank2r.bmp	866	6	schön	866	1	!	1239	1	!	1252	0	0	0	0	0	0	0	0	0	0	0	0	0	0	0	0	0	0	0	0	0	0	0	0	0	0	0
011519	12:39:22	12:48:18	535907	5.0.10.0	4_exp_EVA_AMP_AWA_CON	69	Rpleas_acq	Oppo	Rpleas	Bmasked	CS_B	1pleas	distractor1	EVAbeforeCON	acq_US_pleas_masked	acq45_masked	5	10	400	1	300	300	0	0	375	50	0	1	0	0	0	1	blank2r.bmp	0	1	+	0	6	C2r.bmp	492	1	blank2r.bmp	786	1	BMVZ	786	1	blank2r.bmp	866	4	loyal	866	1	!	1239	1	!	1279	0	0	0	0	0	0	0	0	0	0	0	0	0	0	0	0	0	0	0	0	0	0	0	0	0	0	0
011519	12:39:22	12:48:20	538107	5.0.10.0	4_exp_EVA_AMP_AWA_CON	69	Rpleas_acq	Oppo	Rpleas	Bmasked	CS_B	1pleas	distractor1	EVAbeforeCON	acq_US_unple_masked	acq45_masked	5	11	400	1	300	300	0	0	399	46	0	1	0	0	0	1	blank2r.bmp	0	1	+	0	7	C3r.bmp	492	1	blank2r.bmp	786	1	GKQX	786	1	blank2r.bmp	866	4	lasch	866	1	!	1239	1	!	1306	0	0	0	0	0	0	0	0	0	0	0	0	0	0	0	0	0	0	0	0	0	0	0	0	0	0	0
011519	12:39:22	12:48:23	540332	5.0.10.0	4_exp_EVA_AMP_AWA_CON	69	Rpleas_acq	Oppo	Rpleas	Bmasked	CS_B	1pleas	distractor1	EVAbeforeCON	acq_US_pleas_masked	acq45_masked	5	12	400	1	300	300	0	0	425	46	0	0	0	0	0	1	blank2r.bmp	0	1	+	0	1	B1r.bmp	492	1	blank2r.bmp	786	1	BMVZ	786	1	blank2r.bmp	866	2	lachen	866	1	!	1239	1	!	1332	0	0	0	0	0	0	0	0	0	0	0	0	0	0	0	0	0	0	0	0	0	0	0	0	0	0	0
011519	12:39:22	12:48:25	542531	5.0.10.0	4_exp_EVA_AMP_AWA_CON	69	Rpleas_acq	Oppo	Rpleas	Bmasked	CS_B	1pleas	distractor1	EVAbeforeCON	acq_US_pleas_masked	acq45_masked	5	13	400	1	300	300	0	0	407	50	0	1	0	0	0	1	blank2r.bmp	0	1	+	0	2	B2r.bmp	492	1	blank2r.bmp	786	1	BMVZ	786	1	blank2r.bmp	866	1	helfen	866	1	!	1239	1	!	1306	0	0	0	0	0	0	0	0	0	0	0	0	0	0	0	0	0	0	0	0	0	0	0	0	0	0	0
011519	12:39:22	12:48:27	544784	5.0.10.0	4_exp_EVA_AMP_AWA_CON	69	Rpleas_acq	Oppo	Rpleas	Bmasked	CS_B	1pleas	distractor1	EVAbeforeCON	acq_US_unple_masked	acq45_masked	5	14	400	0	300	300	0	0	479	46	0	1	0	0	0	1	blank2r.bmp	0	1	+	0	5	C1r.bmp	492	1	blank2r.bmp	786	1	GKQX	786	1	blank2r.bmp	866	4	lasch	866	1	!	1239	1	!	-1	0	0	0	0	0	0	0	0	0	0	0	0	0	0	0	0	0	0	0	0	0	0	0	0	0	0	0
011519	12:39:22	12:48:29	546970	5.0.10.0	4_exp_EVA_AMP_AWA_CON	69	Rpleas_acq	Oppo	Rpleas	Bmasked	CS_B	1pleas	distractor1	EVAbeforeCON	acq_US_pleas_masked	acq45_masked	5	15	400	1	300	300	0	0	375	50	0	1	0	0	0	1	blank2r.bmp	0	1	+	0	4	B4r.bmp	492	1	blank2r.bmp	786	1	BMVZ	786	1	blank2r.bmp	866	4	loyal	866	1	!	1239	1	!	1279	0	0	0	0	0	0	0	0	0	0	0	0	0	0	0	0	0	0	0	0	0	0	0	0	0	0	0
011519	12:39:22	12:48:31	549062	5.0.10.0	4_exp_EVA_AMP_AWA_CON	69	Rpleas_acq	Oppo	Rpleas	Bmasked	CS_B	1pleas	distractor1	EVAbeforeCON	acq_US_pleas_masked	acq45_masked	5	16	400	0	300	300	0	0	328	46	0	0	0	0	0	1	blank2r.bmp	0	1	+	0	8	C4r.bmp	492	1	blank2r.bmp	786	1	BMVZ	786	1	blank2r.bmp	866	3	retten	866	1	!	-1	1	!	-1	0	0	0	0	0	0	0	0	0	0	0	0	0	0	0	0	0	0	0	0	0	0	0	0	0	0	0
011519	12:39:22	12:48:34	551328	5.0.10.0	4_exp_EVA_AMP_AWA_CON	69	Rpleas_acq	Oppo	Rpleas	Bmasked	CS_B	1pleas	distractor1	EVAbeforeCON	acq_US_unple_masked	acq45_masked	5	17	400	0	300	300	0	0	480	46	0	1	0	0	0	1	blank2r.bmp	0	1	+	0	8	C4r.bmp	492	1	blank2r.bmp	786	1	GKQX	786	1	blank2r.bmp	866	1	hindern	866	1	!	1239	1	!	-1	0	0	0	0	0	0	0	0	0	0	0	0	0	0	0	0	0	0	0	0	0	0	0	0	0	0	0
011519	12:39:22	12:48:36	553620	5.0.10.0	4_exp_EVA_AMP_AWA_CON	69	Rpleas_acq	Oppo	Rpleas	Bmasked	CS_B	1pleas	distractor1	EVAbeforeCON	acq_US_unple_masked	acq45_masked	5	18	400	1	300	300	0	0	466	46	0	1	0	0	0	1	blank2r.bmp	0	1	+	0	1	B1r.bmp	492	1	blank2r.bmp	786	1	GKQX	786	1	blank2r.bmp	866	2	leiden	866	1	!	1239	1	!	1372	0	0	0	0	0	0	0	0	0	0	0	0	0	0	0	0	0	0	0	0	0	0	0	0	0	0	0
011519	12:39:22	12:48:38	555859	5.0.10.0	4_exp_EVA_AMP_AWA_CON	69	Rpleas_acq	Oppo	Rpleas	Bmasked	CS_B	1pleas	distractor1	EVAbeforeCON	acq_US_unple_masked	acq45_masked	5	19	400	1	300	300	0	0	440	46	0	1	0	0	0	1	blank2r.bmp	0	1	+	0	7	C3r.bmp	492	1	blank2r.bmp	786	1	GKQX	786	1	blank2r.bmp	866	5	strafen	866	1	!	1239	1	!	1346	0	0	0	0	0	0	0	0	0	0	0	0	0	0	0	0	0	0	0	0	0	0	0	0	0	0	0
011519	12:39:22	12:48:40	558058	5.0.10.0	4_exp_EVA_AMP_AWA_CON	69	Rpleas_acq	Oppo	Rpleas	Bmasked	CS_B	1pleas	distractor1	EVAbeforeCON	acq_US_unple_masked	acq45_masked	5	20	400	1	300	300	0	0	404	46	0	1	0	0	0	1	blank2r.bmp	0	1	+	0	5	C1r.bmp	492	1	blank2r.bmp	786	1	GKQX	786	1	blank2r.bmp	866	3	rächen	866	1	!	1239	1	!	1306	0	0	0	0	0	0	0	0	0	0	0	0	0	0	0	0	0	0	0	0	0	0	0	0	0	0	0
011519	12:39:22	12:48:43	560297	5.0.10.0	4_exp_EVA_AMP_AWA_CON	69	Rpleas_acq	Oppo	Rpleas	Bmasked	CS_B	1pleas	distractor1	EVAbeforeCON	acq_US_pleas_masked	acq45_masked	5	21	400	1	300	300	0	0	445	50	0	1	0	0	0	1	blank2r.bmp	0	1	+	0	2	B2r.bmp	492	1	blank2r.bmp	786	1	BMVZ	786	1	blank2r.bmp	866	5	spielen	866	1	!	1239	1	!	1346	0	0	0	0	0	0	0	0	0	0	0	0	0	0	0	0	0	0	0	0	0	0	0	0	0	0	0
011519	12:39:22	12:48:45	562470	5.0.10.0	4_exp_EVA_AMP_AWA_CON	69	Rpleas_acq	Oppo	Rpleas	Bmasked	CS_B	1pleas	distractor1	EVAbeforeCON	acq_US_unple_masked	acq45_masked	5	22	400	1	300	300	0	0	373	46	0	1	0	0	0	1	blank2r.bmp	0	1	+	0	3	B3r.bmp	492	1	blank2r.bmp	786	1	GKQX	786	1	blank2r.bmp	866	6	schlecht	866	1	!	1239	1	!	1279	0	0	0	0	0	0	0	0	0	0	0	0	0	0	0	0	0	0	0	0	0	0	0	0	0	0	0
011519	12:39:22	12:48:47	564682	5.0.10.0	4_exp_EVA_AMP_AWA_CON	69	Rpleas_acq	Oppo	Rpleas	Bmasked	CS_B	1pleas	distractor1	EVAbeforeCON	acq_US_pleas_masked	acq45_masked	5	23	400	1	300	300	0	0	413	50	0	1	0	0	0	1	blank2r.bmp	0	1	+	0	4	B4r.bmp	492	1	blank2r.bmp	786	1	BMVZ	786	1	blank2r.bmp	866	2	lachen	866	1	!	1239	1	!	1319	0	0	0	0	0	0	0	0	0	0	0	0	0	0	0	0	0	0	0	0	0	0	0	0	0	0	0
011519	12:39:22	12:48:49	566908	5.0.10.0	4_exp_EVA_AMP_AWA_CON	69	Rpleas_acq	Oppo	Rpleas	Bmasked	CS_B	1pleas	distractor1	EVAbeforeCON	acq_US_unple_masked	acq45_masked	5	24	400	1	300	300	0	0	431	46	0	1	0	0	0	1	blank2r.bmp	0	1	+	0	6	C2r.bmp	492	1	blank2r.bmp	786	1	GKQX	786	1	blank2r.bmp	866	2	leiden	866	1	!	1239	1	!	1332	0	0	0	0	0	0	0	0	0	0	0	0	0	0	0	0	0	0	0	0	0	0	0	0	0	0	0
011519	12:39:22	12:48:51	569147	5.0.10.0	4_exp_EVA_AMP_AWA_CON	69	Rpleas_acq	Oppo	Rpleas	Bmasked	CS_B	1pleas	distractor1	EVAbeforeCON	acq_US_pleas_masked	acq45_masked	5	25	400	1	300	300	0	0	434	50	0	1	0	0	0	1	blank2r.bmp	0	1	+	0	2	B2r.bmp	492	1	blank2r.bmp	786	1	BMVZ	786	1	blank2r.bmp	866	6	schön	866	1	!	1239	1	!	1332	0	0	0	0	0	0	0	0	0	0	0	0	0	0	0	0	0	0	0	0	0	0	0	0	0	0	0
011519	12:39:22	12:48:54	571373	5.0.10.0	4_exp_EVA_AMP_AWA_CON	69	Rpleas_acq	Oppo	Rpleas	Bmasked	CS_B	1pleas	distractor1	EVAbeforeCON	acq_US_pleas_masked	acq45_masked	5	26	400	1	300	300	0	0	429	50	0	1	0	0	0	1	blank2r.bmp	0	1	+	0	3	B3r.bmp	492	1	blank2r.bmp	786	1	BMVZ	786	1	blank2r.bmp	866	1	helfen	866	1	!	1239	1	!	1332	0	0	0	0	0	0	0	0	0	0	0	0	0	0	0	0	0	0	0	0	0	0	0	0	0	0	0
011519	12:39:22	12:48:56	573852	5.0.10.0	4_exp_EVA_AMP_AWA_CON	69	Rpleas_acq	Oppo	Rpleas	Bmasked	CS_B	1pleas	distractor1	EVAbeforeCON	acq_US_unple_masked	acq45_masked	5	27	400	0	300	300	0	0	718	46	0	1	0	0	0	1	blank2r.bmp	0	1	+	0	8	C4r.bmp	492	1	blank2r.bmp	786	1	GKQX	786	1	blank2r.bmp	866	4	lasch	866	1	!	1239	1	!	-1	0	0	0	0	0	0	0	0	0	0	0	0	0	0	0	0	0	0	0	0	0	0	0	0	0	0	0
011519	12:39:22	12:48:58	576077	5.0.10.0	4_exp_EVA_AMP_AWA_CON	69	Rpleas_acq	Oppo	Rpleas	Bmasked	CS_B	1pleas	distractor1	EVAbeforeCON	acq_US_pleas_masked	acq45_masked	5	28	400	1	300	300	0	0	421	50	0	1	0	0	0	1	blank2r.bmp	0	1	+	0	7	C3r.bmp	492	1	blank2r.bmp	786	1	BMVZ	786	1	blank2r.bmp	866	2	lachen	866	1	!	1239	1	!	1319	0	0	0	0	0	0	0	0	0	0	0	0	0	0	0	0	0	0	0	0	0	0	0	0	0	0	0
011519	12:39:22	12:49:01	578303	5.0.10.0	4_exp_EVA_AMP_AWA_CON	69	Rpleas_acq	Oppo	Rpleas	Bmasked	CS_B	1pleas	distractor1	EVAbeforeCON	acq_US_pleas_masked	acq45_masked	5	29	400	1	300	300	0	0	435	50	0	1	0	0	0	1	blank2r.bmp	0	1	+	0	6	C2r.bmp	492	1	blank2r.bmp	786	1	BMVZ	786	1	blank2r.bmp	866	3	retten	866	1	!	1239	1	!	1332	0	0	0	0	0	0	0	0	0	0	0	0	0	0	0	0	0	0	0	0	0	0	0	0	0	0	0
011519	12:39:22	12:49:03	580542	5.0.10.0	4_exp_EVA_AMP_AWA_CON	69	Rpleas_acq	Oppo	Rpleas	Bmasked	CS_B	1pleas	distractor1	EVAbeforeCON	acq_US_unple_masked	acq45_masked	5	30	400	1	300	300	0	0	443	46	0	1	0	0	0	1	blank2r.bmp	0	1	+	0	4	B4r.bmp	492	1	blank2r.bmp	786	1	GKQX	786	1	blank2r.bmp	866	5	strafen	866	1	!	1239	1	!	1346	0	0	0	0	0	0	0	0	0	0	0	0	0	0	0	0	0	0	0	0	0	0	0	0	0	0	0
011519	12:39:22	12:49:05	582754	5.0.10.0	4_exp_EVA_AMP_AWA_CON	69	Rpleas_acq	Oppo	Rpleas	Bmasked	CS_B	1pleas	distractor1	EVAbeforeCON	acq_US_pleas_masked	acq45_masked	5	31	400	1	300	300	0	0	407	50	0	1	0	0	0	1	blank2r.bmp	0	1	+	0	1	B1r.bmp	492	1	blank2r.bmp	786	1	BMVZ	786	1	blank2r.bmp	866	4	loyal	866	1	!	1239	1	!	1306	0	0	0	0	0	0	0	0	0	0	0	0	0	0	0	0	0	0	0	0	0	0	0	0	0	0	0
011519	12:39:22	12:49:07	584980	5.0.10.0	4_exp_EVA_AMP_AWA_CON	69	Rpleas_acq	Oppo	Rpleas	Bmasked	CS_B	1pleas	distractor1	EVAbeforeCON	acq_US_unple_masked	acq45_masked	5	32	400	1	300	300	0	0	430	46	0	1	0	0	0	1	blank2r.bmp	0	1	+	0	5	C1r.bmp	492	1	blank2r.bmp	786	1	GKQX	786	1	blank2r.bmp	866	3	rächen	866	1	!	1239	1	!	1332	0	0	0	0	0	0	0	0	0	0	0	0	0	0	0	0	0	0	0	0	0	0	0	0	0	0	0
011519	12:39:22	12:49:09	587166	5.0.10.0	4_exp_EVA_AMP_AWA_CON	69	Rpleas_acq	Oppo	Rpleas	Bmasked	CS_B	1pleas	distractor1	EVAbeforeCON	acq_US_pleas_masked	acq45_masked	5	33	400	1	300	300	0	0	396	50	0	1	0	0	0	1	blank2r.bmp	0	1	+	0	6	C2r.bmp	492	1	blank2r.bmp	786	1	BMVZ	786	1	blank2r.bmp	866	5	spielen	866	1	!	1239	1	!	1292	0	0	0	0	0	0	0	0	0	0	0	0	0	0	0	0	0	0	0	0	0	0	0	0	0	0	0
011519	12:39:22	12:49:12	589378	5.0.10.0	4_exp_EVA_AMP_AWA_CON	69	Rpleas_acq	Oppo	Rpleas	Bmasked	CS_B	1pleas	distractor1	EVAbeforeCON	acq_US_unple_masked	acq45_masked	5	34	400	1	300	300	0	0	419	46	0	1	0	0	0	1	blank2r.bmp	0	1	+	0	2	B2r.bmp	492	1	blank2r.bmp	786	1	GKQX	786	1	blank2r.bmp	866	1	hindern	866	1	!	1239	1	!	1319	0	0	0	0	0	0	0	0	0	0	0	0	0	0	0	0	0	0	0	0	0	0	0	0	0	0	0
011519	12:39:22	12:49:14	591551	5.0.10.0	4_exp_EVA_AMP_AWA_CON	69	Rpleas_acq	Oppo	Rpleas	Bmasked	CS_B	1pleas	distractor1	EVAbeforeCON	acq_US_unple_masked	acq45_masked	5	35	400	1	300	300	0	0	382	46	0	1	0	0	0	1	blank2r.bmp	0	1	+	0	1	B1r.bmp	492	1	blank2r.bmp	786	1	GKQX	786	1	blank2r.bmp	866	6	schlecht	866	1	!	1239	1	!	1279	0	0	0	0	0	0	0	0	0	0	0	0	0	0	0	0	0	0	0	0	0	0	0	0	0	0	0
011519	12:39:22	12:49:16	593763	5.0.10.0	4_exp_EVA_AMP_AWA_CON	69	Rpleas_acq	Oppo	Rpleas	Bmasked	CS_B	1pleas	distractor1	EVAbeforeCON	acq_US_pleas_masked	acq45_masked	5	36	400	1	300	300	0	0	419	50	0	1	0	0	0	1	blank2r.bmp	0	1	+	0	4	B4r.bmp	492	1	blank2r.bmp	786	1	BMVZ	786	1	blank2r.bmp	866	6	schön	866	1	!	1239	1	!	1319	0	0	0	0	0	0	0	0	0	0	0	0	0	0	0	0	0	0	0	0	0	0	0	0	0	0	0
011519	12:39:22	12:49:37	614341	5.0.10.0	4_exp_EVA_AMP_AWA_CON	69	Rpleas_acq	Oppo	Lpleas	Bmasked	CS_B	1pleas	distractor1	EVAbeforeCON	EvalRating_firsttwo	EvalRating_firsttwo	6	1	0	0	300	300	0	0	4592	line	-46,1425781249999928946	0	0	0	0	1	eraser	1	1	Wie angenehm oder unangenehm finden Sie die  Buchstabenkette WFPH?	1	1	leftborder	1	1	rightborder	1	1	line	1	1	Unangenehm	1	1	Angenehm	1	0	0	0	0	0	0	0	0	0	0	0	0	0	0	0	0	0	0	0	0	0	0	0	0	0	0	0	0	0	0	0	0	0
011519	12:39:22	12:49:43	620779	5.0.10.0	4_exp_EVA_AMP_AWA_CON	69	Rpleas_acq	Oppo	Lpleas	Bmasked	CS_B	1pleas	distractor1	EVAbeforeCON	EvalRating_lastfour	EvalRating_lastfour	7	1	0	0	300	300	0	0	3987	line	10,986328125	0	0	0	0	1	eraser	0	1	Wie angenehm oder unangenehm finden Sie die  Buchstabenkette BMVZ?	0	1	leftborder	0	1	rightborder	0	1	line	0	1	Unangenehm	0	1	Angenehm	0	0	0	0	0	0	0	0	0	0	0	0	0	0	0	0	0	0	0	0	0	0	0	0	0	0	0	0	0	0	0	0	0	0
011519	12:39:22	12:49:45	623151	5.0.10.0	4_exp_EVA_AMP_AWA_CON	69	Rpleas_acq	Oppo	Lpleas	Bmasked	CS_B	1pleas	distractor1	EVAbeforeCON	blank_screen	EvalRating_lastfour	7	3	0	0	300	300	0	0	0	0	10,986328125	0	0	0	0	1	eraser	0	0	0	0	0	0	0	0	0	0	0	0	0	0	0	0	0	0	0	0	0	0	0	0	0	0	0	0	0	0	0	0	0	0	0	0	0	0	0	0	0	0	0	0	0	0	0	0	0	0	0	0
011519	12:39:22	12:49:48	626163	5.0.10.0	4_exp_EVA_AMP_AWA_CON	69	Rpleas_acq	Oppo	Lpleas	Bmasked	CS_B	1pleas	distractor1	EVAbeforeCON	EvalRating_lastfour	EvalRating_lastfour	7	4	0	0	300	300	0	0	2427	line	-70,3125	0	0	0	0	1	eraser	1	2	Wie angenehm oder unangenehm finden Sie die  Buchstabenkette GKQX?	1	1	leftborder	1	1	rightborder	1	1	line	1	1	Unangenehm	1	1	Angenehm	1	0	0	0	0	0	0	0	0	0	0	0	0	0	0	0	0	0	0	0	0	0	0	0	0	0	0	0	0	0	0	0	0	0
011519	12:39:22	12:49:51	628535	5.0.10.0	4_exp_EVA_AMP_AWA_CON	69	Rpleas_acq	Oppo	Lpleas	Bmasked	CS_B	1pleas	distractor1	EVAbeforeCON	blank_screen	EvalRating_lastfour	7	6	0	0	300	300	0	0	0	0	-70,3125	0	0	0	0	1	eraser	0	0	0	0	0	0	0	0	0	0	0	0	0	0	0	0	0	0	0	0	0	0	0	0	0	0	0	0	0	0	0	0	0	0	0	0	0	0	0	0	0	0	0	0	0	0	0	0	0	0	0	0
011519	12:39:22	12:49:55	633160	5.0.10.0	4_exp_EVA_AMP_AWA_CON	69	Rpleas_acq	Oppo	Lpleas	Bmasked	CS_B	1pleas	distractor1	EVAbeforeCON	EvalRating_lastfour	EvalRating_lastfour	7	7	0	0	300	300	0	0	4050	line	7,32421875	0	0	0	0	1	eraser	1	3	Wie angenehm oder unangenehm finden Sie die  Buchstabenkette JCRD?	1	1	leftborder	1	1	rightborder	1	1	line	1	1	Unangenehm	1	1	Angenehm	1	0	0	0	0	0	0	0	0	0	0	0	0	0	0	0	0	0	0	0	0	0	0	0	0	0	0	0	0	0	0	0	0	0
011519	12:39:22	12:50:41	678887	5.0.10.0	4_exp_EVA_AMP_AWA_CON	69	Rpleas_acq	Oppo	Lpleas	Bmasked	CS_B	1pleas	distractor1	EVAbeforeCON	AMP_distractor	AMP1_masked	8	1	0	0	300	300	0	0	4877	46	7,32421875	0	0	0	0	1	blank2r.bmp	0	1	WFPH	0	1	blank2r.bmp	79	78	pic78.bmp	199	1	whitenoise_No3.bmp	306	0	0	0	0	0	0	0	0	0	0	0	0	0	0	0	0	0	0	0	0	0	0	0	0	0	0	0	0	0	0	0	0	0	0	0	0	0	0	0
011519	12:39:22	12:50:47	684498	5.0.10.0	4_exp_EVA_AMP_AWA_CON	69	Rpleas_acq	Oppo	Lpleas	Bmasked	CS_B	1pleas	distractor1	EVAbeforeCON	AMP_CSunple	AMP1_masked	8	2	0	0	300	300	0	0	4691	50	7,32421875	1	0	0	0	1	blank2r.bmp	0	1	GKQX	0	1	blank2r.bmp	79	71	pic71.bmp	199	1	whitenoise_No3.bmp	306	0	0	0	0	0	0	0	0	0	0	0	0	0	0	0	0	0	0	0	0	0	0	0	0	0	0	0	0	0	0	0	0	0	0	0	0	0	0	0
011519	12:39:22	12:50:49	687017	5.0.10.0	4_exp_EVA_AMP_AWA_CON	69	Rpleas_acq	Oppo	Lpleas	Bmasked	CS_B	1pleas	distractor1	EVAbeforeCON	AMP_CSpleas	AMP1_masked	8	3	0	0	300	300	0	0	1586	46	7,32421875	1	0	0	0	1	blank2r.bmp	0	1	BMVZ	0	1	blank2r.bmp	79	36	pic36.bmp	199	1	whitenoise_No3.bmp	306	0	0	0	0	0	0	0	0	0	0	0	0	0	0	0	0	0	0	0	0	0	0	0	0	0	0	0	0	0	0	0	0	0	0	0	0	0	0	0
011519	12:39:22	12:50:52	689883	5.0.10.0	4_exp_EVA_AMP_AWA_CON	69	Rpleas_acq	Oppo	Lpleas	Bmasked	CS_B	1pleas	distractor1	EVAbeforeCON	AMP_CSpleas	AMP1_masked	8	4	0	0	300	300	0	0	1955	46	7,32421875	1	0	0	0	1	blank2r.bmp	0	1	BMVZ	0	1	blank2r.bmp	79	86	pic86.bmp	199	1	whitenoise_No3.bmp	306	0	0	0	0	0	0	0	0	0	0	0	0	0	0	0	0	0	0	0	0	0	0	0	0	0	0	0	0	0	0	0	0	0	0	0	0	0	0	0
011519	12:39:22	12:50:54	691855	5.0.10.0	4_exp_EVA_AMP_AWA_CON	69	Rpleas_acq	Oppo	Lpleas	Bmasked	CS_B	1pleas	distractor1	EVAbeforeCON	AMP_distractor	AMP1_masked	8	5	0	0	300	300	0	0	1046	50	7,32421875	0	0	0	0	1	blank2r.bmp	0	1	WFPH	0	1	blank2r.bmp	79	85	pic85.bmp	199	1	whitenoise_No3.bmp	306	0	0	0	0	0	0	0	0	0	0	0	0	0	0	0	0	0	0	0	0	0	0	0	0	0	0	0	0	0	0	0	0	0	0	0	0	0	0	0
011519	12:39:22	12:50:56	693708	5.0.10.0	4_exp_EVA_AMP_AWA_CON	69	Rpleas_acq	Oppo	Lpleas	Bmasked	CS_B	1pleas	distractor1	EVAbeforeCON	AMP_distractor	AMP1_masked	8	6	0	0	300	300	0	0	923	50	7,32421875	0	0	0	0	1	blank2r.bmp	0	1	WFPH	0	1	blank2r.bmp	79	32	pic32.bmp	199	1	whitenoise_No3.bmp	306	0	0	0	0	0	0	0	0	0	0	0	0	0	0	0	0	0	0	0	0	0	0	0	0	0	0	0	0	0	0	0	0	0	0	0	0	0	0	0
011519	12:39:22	12:50:58	695227	5.0.10.0	4_exp_EVA_AMP_AWA_CON	69	Rpleas_acq	Oppo	Lpleas	Bmasked	CS_B	1pleas	distractor1	EVAbeforeCON	AMP_CSpleas	AMP1_masked	8	7	0	0	300	300	0	0	611	46	7,32421875	1	0	0	0	1	blank2r.bmp	0	1	BMVZ	0	1	blank2r.bmp	79	34	pic34.bmp	199	1	whitenoise_No3.bmp	306	0	0	0	0	0	0	0	0	0	0	0	0	0	0	0	0	0	0	0	0	0	0	0	0	0	0	0	0	0	0	0	0	0	0	0	0	0	0	0
011519	12:39:22	12:50:59	697106	5.0.10.0	4_exp_EVA_AMP_AWA_CON	69	Rpleas_acq	Oppo	Lpleas	Bmasked	CS_B	1pleas	distractor1	EVAbeforeCON	AMP_distractor	AMP1_masked	8	8	0	0	300	300	0	0	954	46	7,32421875	0	0	0	0	1	blank2r.bmp	0	1	WFPH	0	1	blank2r.bmp	79	116	pic116.bmp	199	1	whitenoise_No3.bmp	306	0	0	0	0	0	0	0	0	0	0	0	0	0	0	0	0	0	0	0	0	0	0	0	0	0	0	0	0	0	0	0	0	0	0	0	0	0	0	0
011519	12:39:22	12:51:01	698839	5.0.10.0	4_exp_EVA_AMP_AWA_CON	69	Rpleas_acq	Oppo	Lpleas	Bmasked	CS_B	1pleas	distractor1	EVAbeforeCON	AMP_distractor	AMP1_masked	8	9	0	0	300	300	0	0	803	50	7,32421875	0	0	0	0	1	blank2r.bmp	0	1	WFPH	0	1	blank2r.bmp	79	4	pic4.bmp	199	1	whitenoise_No3.bmp	306	0	0	0	0	0	0	0	0	0	0	0	0	0	0	0	0	0	0	0	0	0	0	0	0	0	0	0	0	0	0	0	0	0	0	0	0	0	0	0
011519	12:39:22	12:51:03	700545	5.0.10.0	4_exp_EVA_AMP_AWA_CON	69	Rpleas_acq	Oppo	Lpleas	Bmasked	CS_B	1pleas	distractor1	EVAbeforeCON	AMP_distractor	AMP1_masked	8	10	0	0	300	300	0	0	785	50	7,32421875	0	0	0	0	1	blank2r.bmp	0	1	WFPH	0	1	blank2r.bmp	79	145	pic145.bmp	199	1	whitenoise_No3.bmp	306	0	0	0	0	0	0	0	0	0	0	0	0	0	0	0	0	0	0	0	0	0	0	0	0	0	0	0	0	0	0	0	0	0	0	0	0	0	0	0
011519	12:39:22	12:51:05	702238	5.0.10.0	4_exp_EVA_AMP_AWA_CON	69	Rpleas_acq	Oppo	Lpleas	Bmasked	CS_B	1pleas	distractor1	EVAbeforeCON	AMP_CSpleas	AMP1_masked	8	11	0	0	300	300	0	0	777	46	7,32421875	1	0	0	0	1	blank2r.bmp	0	1	BMVZ	0	1	blank2r.bmp	79	133	pic133.bmp	199	1	whitenoise_No3.bmp	306	0	0	0	0	0	0	0	0	0	0	0	0	0	0	0	0	0	0	0	0	0	0	0	0	0	0	0	0	0	0	0	0	0	0	0	0	0	0	0
011519	12:39:22	12:51:06	703970	5.0.10.0	4_exp_EVA_AMP_AWA_CON	69	Rpleas_acq	Oppo	Lpleas	Bmasked	CS_B	1pleas	distractor1	EVAbeforeCON	AMP_CSunple	AMP1_masked	8	12	0	0	300	300	0	0	803	50	7,32421875	1	0	0	0	1	blank2r.bmp	0	1	GKQX	0	1	blank2r.bmp	79	87	pic87.bmp	199	1	whitenoise_No3.bmp	306	0	0	0	0	0	0	0	0	0	0	0	0	0	0	0	0	0	0	0	0	0	0	0	0	0	0	0	0	0	0	0	0	0	0	0	0	0	0	0
011519	12:39:22	12:51:08	705503	5.0.10.0	4_exp_EVA_AMP_AWA_CON	69	Rpleas_acq	Oppo	Lpleas	Bmasked	CS_B	1pleas	distractor1	EVAbeforeCON	AMP_distractor	AMP1_masked	8	13	0	0	300	300	0	0	606	46	7,32421875	0	0	0	0	1	blank2r.bmp	0	1	WFPH	0	1	blank2r.bmp	79	88	pic88.bmp	199	1	whitenoise_No3.bmp	306	0	0	0	0	0	0	0	0	0	0	0	0	0	0	0	0	0	0	0	0	0	0	0	0	0	0	0	0	0	0	0	0	0	0	0	0	0	0	0
011519	12:39:22	12:51:10	707555	5.0.10.0	4_exp_EVA_AMP_AWA_CON	69	Rpleas_acq	Oppo	Lpleas	Bmasked	CS_B	1pleas	distractor1	EVAbeforeCON	AMP_CSpleas	AMP1_masked	8	14	0	0	300	300	0	0	1138	46	7,32421875	1	0	0	0	1	blank2r.bmp	0	1	BMVZ	0	1	blank2r.bmp	79	26	pic26.bmp	199	1	whitenoise_No3.bmp	306	0	0	0	0	0	0	0	0	0	0	0	0	0	0	0	0	0	0	0	0	0	0	0	0	0	0	0	0	0	0	0	0	0	0	0	0	0	0	0
011519	12:39:22	12:51:12	709475	5.0.10.0	4_exp_EVA_AMP_AWA_CON	69	Rpleas_acq	Oppo	Lpleas	Bmasked	CS_B	1pleas	distractor1	EVAbeforeCON	AMP_distractor	AMP1_masked	8	15	0	0	300	300	0	0	987	50	7,32421875	0	0	0	0	1	blank2r.bmp	0	1	WFPH	0	1	blank2r.bmp	79	37	pic37.bmp	199	1	whitenoise_No3.bmp	306	0	0	0	0	0	0	0	0	0	0	0	0	0	0	0	0	0	0	0	0	0	0	0	0	0	0	0	0	0	0	0	0	0	0	0	0	0	0	0
011519	12:39:22	12:51:14	711207	5.0.10.0	4_exp_EVA_AMP_AWA_CON	69	Rpleas_acq	Oppo	Lpleas	Bmasked	CS_B	1pleas	distractor1	EVAbeforeCON	AMP_distractor	AMP1_masked	8	16	0	0	300	300	0	0	808	46	7,32421875	0	0	0	0	1	blank2r.bmp	0	1	WFPH	0	1	blank2r.bmp	79	12	pic12.bmp	199	1	whitenoise_No3.bmp	306	0	0	0	0	0	0	0	0	0	0	0	0	0	0	0	0	0	0	0	0	0	0	0	0	0	0	0	0	0	0	0	0	0	0	0	0	0	0	0
011519	12:39:22	12:51:15	712940	5.0.10.0	4_exp_EVA_AMP_AWA_CON	69	Rpleas_acq	Oppo	Lpleas	Bmasked	CS_B	1pleas	distractor1	EVAbeforeCON	AMP_CSpleas	AMP1_masked	8	17	0	0	300	300	0	0	808	46	7,32421875	1	0	0	0	1	blank2r.bmp	0	1	BMVZ	0	1	blank2r.bmp	79	101	pic101.bmp	199	1	whitenoise_No3.bmp	306	0	0	0	0	0	0	0	0	0	0	0	0	0	0	0	0	0	0	0	0	0	0	0	0	0	0	0	0	0	0	0	0	0	0	0	0	0	0	0
011519	12:39:22	12:51:17	714486	5.0.10.0	4_exp_EVA_AMP_AWA_CON	69	Rpleas_acq	Oppo	Lpleas	Bmasked	CS_B	1pleas	distractor1	EVAbeforeCON	AMP_distractor	AMP1_masked	8	18	0	0	300	300	0	0	618	50	7,32421875	0	0	0	0	1	blank2r.bmp	0	1	WFPH	0	1	blank2r.bmp	79	140	pic140.bmp	199	1	whitenoise_No3.bmp	306	0	0	0	0	0	0	0	0	0	0	0	0	0	0	0	0	0	0	0	0	0	0	0	0	0	0	0	0	0	0	0	0	0	0	0	0	0	0	0
011519	12:39:22	12:51:18	716059	5.0.10.0	4_exp_EVA_AMP_AWA_CON	69	Rpleas_acq	Oppo	Lpleas	Bmasked	CS_B	1pleas	distractor1	EVAbeforeCON	AMP_CSunple	AMP1_masked	8	19	0	0	300	300	0	0	655	46	7,32421875	0	0	0	0	1	blank2r.bmp	0	1	GKQX	0	1	blank2r.bmp	79	5	pic5.bmp	199	1	whitenoise_No3.bmp	306	0	0	0	0	0	0	0	0	0	0	0	0	0	0	0	0	0	0	0	0	0	0	0	0	0	0	0	0	0	0	0	0	0	0	0	0	0	0	0
011519	12:39:22	12:51:20	717671	5.0.10.0	4_exp_EVA_AMP_AWA_CON	69	Rpleas_acq	Oppo	Lpleas	Bmasked	CS_B	1pleas	distractor1	EVAbeforeCON	AMP_CSpleas	AMP1_masked	8	20	0	0	300	300	0	0	680	46	7,32421875	1	0	0	0	1	blank2r.bmp	0	1	BMVZ	0	1	blank2r.bmp	79	83	pic83.bmp	199	1	whitenoise_No3.bmp	306	0	0	0	0	0	0	0	0	0	0	0	0	0	0	0	0	0	0	0	0	0	0	0	0	0	0	0	0	0	0	0	0	0	0	0	0	0	0	0
011519	12:39:22	12:51:21	719111	5.0.10.0	4_exp_EVA_AMP_AWA_CON	69	Rpleas_acq	Oppo	Lpleas	Bmasked	CS_B	1pleas	distractor1	EVAbeforeCON	AMP_CSunple	AMP1_masked	8	21	0	0	300	300	0	0	530	46	7,32421875	0	0	0	0	1	blank2r.bmp	0	1	GKQX	0	1	blank2r.bmp	79	151	pic151.bmp	199	1	whitenoise_No3.bmp	306	0	0	0	0	0	0	0	0	0	0	0	0	0	0	0	0	0	0	0	0	0	0	0	0	0	0	0	0	0	0	0	0	0	0	0	0	0	0	0
011519	12:39:22	12:51:23	721003	5.0.10.0	4_exp_EVA_AMP_AWA_CON	69	Rpleas_acq	Oppo	Lpleas	Bmasked	CS_B	1pleas	distractor1	EVAbeforeCON	AMP_CSunple	AMP1_masked	8	22	0	0	300	300	0	0	970	46	7,32421875	0	0	0	0	1	blank2r.bmp	0	1	GKQX	0	1	blank2r.bmp	79	52	pic52.bmp	199	1	whitenoise_No3.bmp	306	0	0	0	0	0	0	0	0	0	0	0	0	0	0	0	0	0	0	0	0	0	0	0	0	0	0	0	0	0	0	0	0	0	0	0	0	0	0	0
011519	12:39:22	12:51:25	722722	5.0.10.0	4_exp_EVA_AMP_AWA_CON	69	Rpleas_acq	Oppo	Lpleas	Bmasked	CS_B	1pleas	distractor1	EVAbeforeCON	AMP_CSpleas	AMP1_masked	8	23	0	0	300	300	0	0	788	46	7,32421875	1	0	0	0	1	blank2r.bmp	0	1	BMVZ	0	1	blank2r.bmp	79	149	pic149.bmp	199	1	whitenoise_No3.bmp	306	0	0	0	0	0	0	0	0	0	0	0	0	0	0	0	0	0	0	0	0	0	0	0	0	0	0	0	0	0	0	0	0	0	0	0	0	0	0	0
011519	12:39:22	12:51:26	724122	5.0.10.0	4_exp_EVA_AMP_AWA_CON	69	Rpleas_acq	Oppo	Lpleas	Bmasked	CS_B	1pleas	distractor1	EVAbeforeCON	AMP_CSunple	AMP1_masked	8	24	0	0	300	300	0	0	479	46	7,32421875	0	0	0	0	1	blank2r.bmp	0	1	GKQX	0	1	blank2r.bmp	79	124	pic124.bmp	199	1	whitenoise_No3.bmp	306	0	0	0	0	0	0	0	0	0	0	0	0	0	0	0	0	0	0	0	0	0	0	0	0	0	0	0	0	0	0	0	0	0	0	0	0	0	0	0
011519	12:39:22	12:51:28	725588	5.0.10.0	4_exp_EVA_AMP_AWA_CON	69	Rpleas_acq	Oppo	Lpleas	Bmasked	CS_B	1pleas	distractor1	EVAbeforeCON	AMP_CSunple	AMP1_masked	8	25	0	0	300	300	0	0	546	50	7,32421875	1	0	0	0	1	blank2r.bmp	0	1	GKQX	0	1	blank2r.bmp	79	14	pic14.bmp	199	1	whitenoise_No3.bmp	306	0	0	0	0	0	0	0	0	0	0	0	0	0	0	0	0	0	0	0	0	0	0	0	0	0	0	0	0	0	0	0	0	0	0	0	0	0	0	0
011519	12:39:22	12:51:29	727014	5.0.10.0	4_exp_EVA_AMP_AWA_CON	69	Rpleas_acq	Oppo	Lpleas	Bmasked	CS_B	1pleas	distractor1	EVAbeforeCON	AMP_CSpleas	AMP1_masked	8	26	0	0	300	300	0	0	517	46	7,32421875	1	0	0	0	1	blank2r.bmp	0	1	BMVZ	0	1	blank2r.bmp	79	67	pic67.bmp	199	1	whitenoise_No3.bmp	306	0	0	0	0	0	0	0	0	0	0	0	0	0	0	0	0	0	0	0	0	0	0	0	0	0	0	0	0	0	0	0	0	0	0	0	0	0	0	0
011519	12:39:22	12:51:31	728613	5.0.10.0	4_exp_EVA_AMP_AWA_CON	69	Rpleas_acq	Oppo	Lpleas	Bmasked	CS_B	1pleas	distractor1	EVAbeforeCON	AMP_CSunple	AMP1_masked	8	27	0	0	300	300	0	0	668	50	7,32421875	1	0	0	0	1	blank2r.bmp	0	1	GKQX	0	1	blank2r.bmp	79	84	pic84.bmp	199	1	whitenoise_No3.bmp	306	0	0	0	0	0	0	0	0	0	0	0	0	0	0	0	0	0	0	0	0	0	0	0	0	0	0	0	0	0	0	0	0	0	0	0	0	0	0	0
011519	12:39:22	12:51:33	730452	5.0.10.0	4_exp_EVA_AMP_AWA_CON	69	Rpleas_acq	Oppo	Lpleas	Bmasked	CS_B	1pleas	distractor1	EVAbeforeCON	AMP_CSpleas	AMP1_masked	8	28	0	0	300	300	0	0	929	50	7,32421875	0	0	0	0	1	blank2r.bmp	0	1	BMVZ	0	1	blank2r.bmp	79	62	pic62.bmp	199	1	whitenoise_No3.bmp	306	0	0	0	0	0	0	0	0	0	0	0	0	0	0	0	0	0	0	0	0	0	0	0	0	0	0	0	0	0	0	0	0	0	0	0	0	0	0	0
011519	12:39:22	12:51:34	732052	5.0.10.0	4_exp_EVA_AMP_AWA_CON	69	Rpleas_acq	Oppo	Lpleas	Bmasked	CS_B	1pleas	distractor1	EVAbeforeCON	AMP_CSpleas	AMP1_masked	8	29	0	0	300	300	0	0	673	46	7,32421875	1	0	0	0	1	blank2r.bmp	0	1	BMVZ	0	1	blank2r.bmp	79	31	pic31.bmp	199	1	whitenoise_No3.bmp	306	0	0	0	0	0	0	0	0	0	0	0	0	0	0	0	0	0	0	0	0	0	0	0	0	0	0	0	0	0	0	0	0	0	0	0	0	0	0	0
011519	12:39:22	12:51:36	733531	5.0.10.0	4_exp_EVA_AMP_AWA_CON	69	Rpleas_acq	Oppo	Lpleas	Bmasked	CS_B	1pleas	distractor1	EVAbeforeCON	AMP_CSunple	AMP1_masked	8	30	0	0	300	300	0	0	562	46	7,32421875	0	0	0	0	1	blank2r.bmp	0	1	GKQX	0	1	blank2r.bmp	79	8	pic8.bmp	199	1	whitenoise_No3.bmp	306	0	0	0	0	0	0	0	0	0	0	0	0	0	0	0	0	0	0	0	0	0	0	0	0	0	0	0	0	0	0	0	0	0	0	0	0	0	0	0
011519	12:39:22	12:51:37	734957	5.0.10.0	4_exp_EVA_AMP_AWA_CON	69	Rpleas_acq	Oppo	Lpleas	Bmasked	CS_B	1pleas	distractor1	EVAbeforeCON	AMP_distractor	AMP1_masked	8	31	0	0	300	300	0	0	498	50	7,32421875	0	0	0	0	1	blank2r.bmp	0	1	WFPH	0	1	blank2r.bmp	79	107	pic107.bmp	199	1	whitenoise_No3.bmp	306	0	0	0	0	0	0	0	0	0	0	0	0	0	0	0	0	0	0	0	0	0	0	0	0	0	0	0	0	0	0	0	0	0	0	0	0	0	0	0
011519	12:39:22	12:51:39	736410	5.0.10.0	4_exp_EVA_AMP_AWA_CON	69	Rpleas_acq	Oppo	Lpleas	Bmasked	CS_B	1pleas	distractor1	EVAbeforeCON	AMP_distractor	AMP1_masked	8	32	0	0	300	300	0	0	540	50	7,32421875	0	0	0	0	1	blank2r.bmp	0	1	WFPH	0	1	blank2r.bmp	79	1	pic1.bmp	199	1	whitenoise_No3.bmp	306	0	0	0	0	0	0	0	0	0	0	0	0	0	0	0	0	0	0	0	0	0	0	0	0	0	0	0	0	0	0	0	0	0	0	0	0	0	0	0
011519	12:39:22	12:51:40	738049	5.0.10.0	4_exp_EVA_AMP_AWA_CON	69	Rpleas_acq	Oppo	Lpleas	Bmasked	CS_B	1pleas	distractor1	EVAbeforeCON	AMP_CSunple	AMP1_masked	8	33	0	0	300	300	0	0	711	50	7,32421875	1	0	0	0	1	blank2r.bmp	0	1	GKQX	0	1	blank2r.bmp	79	120	pic120.bmp	199	1	whitenoise_No3.bmp	306	0	0	0	0	0	0	0	0	0	0	0	0	0	0	0	0	0	0	0	0	0	0	0	0	0	0	0	0	0	0	0	0	0	0	0	0	0	0	0
011519	12:39:22	12:51:42	739649	5.0.10.0	4_exp_EVA_AMP_AWA_CON	69	Rpleas_acq	Oppo	Lpleas	Bmasked	CS_B	1pleas	distractor1	EVAbeforeCON	AMP_CSpleas	AMP1_masked	8	34	0	0	300	300	0	0	667	50	7,32421875	0	0	0	0	1	blank2r.bmp	0	1	BMVZ	0	1	blank2r.bmp	79	129	pic129.bmp	199	1	whitenoise_No3.bmp	306	0	0	0	0	0	0	0	0	0	0	0	0	0	0	0	0	0	0	0	0	0	0	0	0	0	0	0	0	0	0	0	0	0	0	0	0	0	0	0
011519	12:39:22	12:51:43	741075	5.0.10.0	4_exp_EVA_AMP_AWA_CON	69	Rpleas_acq	Oppo	Lpleas	Bmasked	CS_B	1pleas	distractor1	EVAbeforeCON	AMP_CSunple	AMP1_masked	8	35	0	0	300	300	0	0	506	50	7,32421875	1	0	0	0	1	blank2r.bmp	0	1	GKQX	0	1	blank2r.bmp	79	19	pic19.bmp	199	1	whitenoise_No3.bmp	306	0	0	0	0	0	0	0	0	0	0	0	0	0	0	0	0	0	0	0	0	0	0	0	0	0	0	0	0	0	0	0	0	0	0	0	0	0	0	0
011519	12:39:22	12:51:45	742354	5.0.10.0	4_exp_EVA_AMP_AWA_CON	69	Rpleas_acq	Oppo	Lpleas	Bmasked	CS_B	1pleas	distractor1	EVAbeforeCON	AMP_CSunple	AMP1_masked	8	36	0	0	300	300	0	0	369	46	7,32421875	0	0	0	0	1	blank2r.bmp	0	1	GKQX	0	1	blank2r.bmp	79	10	pic10.bmp	199	1	whitenoise_No3.bmp	306	0	0	0	0	0	0	0	0	0	0	0	0	0	0	0	0	0	0	0	0	0	0	0	0	0	0	0	0	0	0	0	0	0	0	0	0	0	0	0
011519	12:39:22	12:51:46	743780	5.0.10.0	4_exp_EVA_AMP_AWA_CON	69	Rpleas_acq	Oppo	Lpleas	Bmasked	CS_B	1pleas	distractor1	EVAbeforeCON	AMP_CSpleas	AMP1_masked	8	37	0	0	300	300	0	0	501	46	7,32421875	1	0	0	0	1	blank2r.bmp	0	1	BMVZ	0	1	blank2r.bmp	79	66	pic66.bmp	199	1	whitenoise_No3.bmp	306	0	0	0	0	0	0	0	0	0	0	0	0	0	0	0	0	0	0	0	0	0	0	0	0	0	0	0	0	0	0	0	0	0	0	0	0	0	0	0
011519	12:39:22	12:51:48	745380	5.0.10.0	4_exp_EVA_AMP_AWA_CON	69	Rpleas_acq	Oppo	Lpleas	Bmasked	CS_B	1pleas	distractor1	EVAbeforeCON	AMP_CSpleas	AMP1_masked	8	38	0	0	300	300	0	0	666	50	7,32421875	0	0	0	0	1	blank2r.bmp	0	1	BMVZ	0	1	blank2r.bmp	79	143	pic143.bmp	199	1	whitenoise_No3.bmp	306	0	0	0	0	0	0	0	0	0	0	0	0	0	0	0	0	0	0	0	0	0	0	0	0	0	0	0	0	0	0	0	0	0	0	0	0	0	0	0
011519	12:39:22	12:51:49	746832	5.0.10.0	4_exp_EVA_AMP_AWA_CON	69	Rpleas_acq	Oppo	Lpleas	Bmasked	CS_B	1pleas	distractor1	EVAbeforeCON	AMP_distractor	AMP1_masked	8	39	0	0	300	300	0	0	533	50	7,32421875	0	0	0	0	1	blank2r.bmp	0	1	WFPH	0	1	blank2r.bmp	79	40	pic40.bmp	199	1	whitenoise_No3.bmp	306	0	0	0	0	0	0	0	0	0	0	0	0	0	0	0	0	0	0	0	0	0	0	0	0	0	0	0	0	0	0	0	0	0	0	0	0	0	0	0
011519	12:39:22	12:51:51	748285	5.0.10.0	4_exp_EVA_AMP_AWA_CON	69	Rpleas_acq	Oppo	Lpleas	Bmasked	CS_B	1pleas	distractor1	EVAbeforeCON	AMP_distractor	AMP1_masked	8	40	0	0	300	300	0	0	541	46	7,32421875	0	0	0	0	1	blank2r.bmp	0	1	WFPH	0	1	blank2r.bmp	79	112	pic112.bmp	199	1	whitenoise_No3.bmp	306	0	0	0	0	0	0	0	0	0	0	0	0	0	0	0	0	0	0	0	0	0	0	0	0	0	0	0	0	0	0	0	0	0	0	0	0	0	0	0
011519	12:39:22	12:51:52	749778	5.0.10.0	4_exp_EVA_AMP_AWA_CON	69	Rpleas_acq	Oppo	Lpleas	Bmasked	CS_B	1pleas	distractor1	EVAbeforeCON	AMP_CSunple	AMP1_masked	8	41	0	0	300	300	0	0	559	46	7,32421875	0	0	0	0	1	blank2r.bmp	0	1	GKQX	0	1	blank2r.bmp	79	33	pic33.bmp	199	1	whitenoise_No3.bmp	306	0	0	0	0	0	0	0	0	0	0	0	0	0	0	0	0	0	0	0	0	0	0	0	0	0	0	0	0	0	0	0	0	0	0	0	0	0	0	0
011519	12:39:22	12:51:54	751217	5.0.10.0	4_exp_EVA_AMP_AWA_CON	69	Rpleas_acq	Oppo	Lpleas	Bmasked	CS_B	1pleas	distractor1	EVAbeforeCON	AMP_CSpleas	AMP1_masked	8	42	0	0	300	300	0	0	529	50	7,32421875	0	0	0	0	1	blank2r.bmp	0	1	BMVZ	0	1	blank2r.bmp	79	75	pic75.bmp	199	1	whitenoise_No3.bmp	306	0	0	0	0	0	0	0	0	0	0	0	0	0	0	0	0	0	0	0	0	0	0	0	0	0	0	0	0	0	0	0	0	0	0	0	0	0	0	0
011519	12:39:22	12:51:55	752577	5.0.10.0	4_exp_EVA_AMP_AWA_CON	69	Rpleas_acq	Oppo	Lpleas	Bmasked	CS_B	1pleas	distractor1	EVAbeforeCON	AMP_distractor	AMP1_masked	8	43	0	0	300	300	0	0	425	46	7,32421875	0	0	0	0	1	blank2r.bmp	0	1	WFPH	0	1	blank2r.bmp	79	11	pic11.bmp	199	1	whitenoise_No3.bmp	306	0	0	0	0	0	0	0	0	0	0	0	0	0	0	0	0	0	0	0	0	0	0	0	0	0	0	0	0	0	0	0	0	0	0	0	0	0	0	0
011519	12:39:22	12:51:56	754029	5.0.10.0	4_exp_EVA_AMP_AWA_CON	69	Rpleas_acq	Oppo	Lpleas	Bmasked	CS_B	1pleas	distractor1	EVAbeforeCON	AMP_distractor	AMP1_masked	8	44	0	0	300	300	0	0	541	50	7,32421875	0	0	0	0	1	blank2r.bmp	0	1	WFPH	0	1	blank2r.bmp	79	97	pic97.bmp	199	1	whitenoise_No3.bmp	306	0	0	0	0	0	0	0	0	0	0	0	0	0	0	0	0	0	0	0	0	0	0	0	0	0	0	0	0	0	0	0	0	0	0	0	0	0	0	0
011519	12:39:22	12:51:58	755535	5.0.10.0	4_exp_EVA_AMP_AWA_CON	69	Rpleas_acq	Oppo	Lpleas	Bmasked	CS_B	1pleas	distractor1	EVAbeforeCON	AMP_CSunple	AMP1_masked	8	45	0	0	300	300	0	0	575	46	7,32421875	0	0	0	0	1	blank2r.bmp	0	1	GKQX	0	1	blank2r.bmp	79	119	pic119.bmp	199	1	whitenoise_No3.bmp	306	0	0	0	0	0	0	0	0	0	0	0	0	0	0	0	0	0	0	0	0	0	0	0	0	0	0	0	0	0	0	0	0	0	0	0	0	0	0	0
011519	12:39:22	12:51:59	756948	5.0.10.0	4_exp_EVA_AMP_AWA_CON	69	Rpleas_acq	Oppo	Lpleas	Bmasked	CS_B	1pleas	distractor1	EVAbeforeCON	AMP_distractor	AMP1_masked	8	46	0	0	300	300	0	0	499	46	7,32421875	0	0	0	0	1	blank2r.bmp	0	1	WFPH	0	1	blank2r.bmp	79	27	pic27.bmp	199	1	whitenoise_No3.bmp	306	0	0	0	0	0	0	0	0	0	0	0	0	0	0	0	0	0	0	0	0	0	0	0	0	0	0	0	0	0	0	0	0	0	0	0	0	0	0	0
011519	12:39:22	12:52:01	758321	5.0.10.0	4_exp_EVA_AMP_AWA_CON	69	Rpleas_acq	Oppo	Lpleas	Bmasked	CS_B	1pleas	distractor1	EVAbeforeCON	AMP_CSunple	AMP1_masked	8	47	0	0	300	300	0	0	455	50	7,32421875	1	0	0	0	1	blank2r.bmp	0	1	GKQX	0	1	blank2r.bmp	79	3	pic3.bmp	199	1	whitenoise_No3.bmp	306	0	0	0	0	0	0	0	0	0	0	0	0	0	0	0	0	0	0	0	0	0	0	0	0	0	0	0	0	0	0	0	0	0	0	0	0	0	0	0
011519	12:39:22	12:52:02	759694	5.0.10.0	4_exp_EVA_AMP_AWA_CON	69	Rpleas_acq	Oppo	Lpleas	Bmasked	CS_B	1pleas	distractor1	EVAbeforeCON	AMP_CSpleas	AMP1_masked	8	48	0	0	300	300	0	0	463	46	7,32421875	1	0	0	0	1	blank2r.bmp	0	1	BMVZ	0	1	blank2r.bmp	79	17	pic17.bmp	199	1	whitenoise_No3.bmp	306	0	0	0	0	0	0	0	0	0	0	0	0	0	0	0	0	0	0	0	0	0	0	0	0	0	0	0	0	0	0	0	0	0	0	0	0	0	0	0
011519	12:39:22	12:52:03	761040	5.0.10.0	4_exp_EVA_AMP_AWA_CON	69	Rpleas_acq	Oppo	Lpleas	Bmasked	CS_B	1pleas	distractor1	EVAbeforeCON	AMP_CSunple	AMP1_masked	8	49	0	0	300	300	0	0	428	50	7,32421875	1	0	0	0	1	blank2r.bmp	0	1	GKQX	0	1	blank2r.bmp	79	131	pic131.bmp	199	1	whitenoise_No3.bmp	306	0	0	0	0	0	0	0	0	0	0	0	0	0	0	0	0	0	0	0	0	0	0	0	0	0	0	0	0	0	0	0	0	0	0	0	0	0	0	0
011519	12:39:22	12:52:05	762332	5.0.10.0	4_exp_EVA_AMP_AWA_CON	69	Rpleas_acq	Oppo	Lpleas	Bmasked	CS_B	1pleas	distractor1	EVAbeforeCON	AMP_CSpleas	AMP1_masked	8	50	0	0	300	300	0	0	381	46	7,32421875	1	0	0	0	1	blank2r.bmp	0	1	BMVZ	0	1	blank2r.bmp	79	29	pic29.bmp	199	1	whitenoise_No3.bmp	306	0	0	0	0	0	0	0	0	0	0	0	0	0	0	0	0	0	0	0	0	0	0	0	0	0	0	0	0	0	0	0	0	0	0	0	0	0	0	0
011519	12:39:22	12:52:06	763772	5.0.10.0	4_exp_EVA_AMP_AWA_CON	69	Rpleas_acq	Oppo	Lpleas	Bmasked	CS_B	1pleas	distractor1	EVAbeforeCON	AMP_CSunple	AMP1_masked	8	51	0	0	300	300	0	0	520	46	7,32421875	0	0	0	0	1	blank2r.bmp	0	1	GKQX	0	1	blank2r.bmp	79	56	pic56.bmp	199	1	whitenoise_No3.bmp	306	0	0	0	0	0	0	0	0	0	0	0	0	0	0	0	0	0	0	0	0	0	0	0	0	0	0	0	0	0	0	0	0	0	0	0	0	0	0	0
011519	12:39:22	12:52:15	772475	5.0.10.0	4_exp_EVA_AMP_AWA_CON	69	Rpleas_acq	Oppo	Lpleas	Bmasked	CS_B	1pleas	distractor1	EVAbeforeCON	AMP_CSpleas	AMP23	9	1	0	0	300	300	0	0	648	46	7,32421875	1	0	0	0	1	blank2r.bmp	0	1	BMVZ	0	1	blank2r.bmp	79	152	pic152.bmp	199	1	whitenoise_No3.bmp	306	0	0	0	0	0	0	0	0	0	0	0	0	0	0	0	0	0	0	0	0	0	0	0	0	0	0	0	0	0	0	0	0	0	0	0	0	0	0	0
011519	12:39:22	12:52:16	773901	5.0.10.0	4_exp_EVA_AMP_AWA_CON	69	Rpleas_acq	Oppo	Lpleas	Bmasked	CS_B	1pleas	distractor1	EVAbeforeCON	AMP_CSunple	AMP23	9	2	0	0	300	300	0	0	503	50	7,32421875	1	0	0	0	1	blank2r.bmp	0	1	GKQX	0	1	blank2r.bmp	79	90	pic90.bmp	199	1	whitenoise_No3.bmp	306	0	0	0	0	0	0	0	0	0	0	0	0	0	0	0	0	0	0	0	0	0	0	0	0	0	0	0	0	0	0	0	0	0	0	0	0	0	0	0
011519	12:39:22	12:52:18	775260	5.0.10.0	4_exp_EVA_AMP_AWA_CON	69	Rpleas_acq	Oppo	Lpleas	Bmasked	CS_B	1pleas	distractor1	EVAbeforeCON	AMP_distractor	AMP23	9	3	0	0	300	300	0	0	434	46	7,32421875	0	0	0	0	1	blank2r.bmp	0	1	WFPH	0	1	blank2r.bmp	79	134	pic134.bmp	199	1	whitenoise_No3.bmp	306	0	0	0	0	0	0	0	0	0	0	0	0	0	0	0	0	0	0	0	0	0	0	0	0	0	0	0	0	0	0	0	0	0	0	0	0	0	0	0
011519	12:39:22	12:52:19	776660	5.0.10.0	4_exp_EVA_AMP_AWA_CON	69	Rpleas_acq	Oppo	Lpleas	Bmasked	CS_B	1pleas	distractor1	EVAbeforeCON	AMP_distractor	AMP23	9	4	0	0	300	300	0	0	475	46	7,32421875	0	0	0	0	1	blank2r.bmp	0	1	WFPH	0	1	blank2r.bmp	79	64	pic64.bmp	199	1	whitenoise_No3.bmp	306	0	0	0	0	0	0	0	0	0	0	0	0	0	0	0	0	0	0	0	0	0	0	0	0	0	0	0	0	0	0	0	0	0	0	0	0	0	0	0
011519	12:39:22	12:52:20	778126	5.0.10.0	4_exp_EVA_AMP_AWA_CON	69	Rpleas_acq	Oppo	Lpleas	Bmasked	CS_B	1pleas	distractor1	EVAbeforeCON	AMP_CSunple	AMP23	9	5	0	0	300	300	0	0	540	50	7,32421875	1	0	0	0	1	blank2r.bmp	0	1	GKQX	0	1	blank2r.bmp	79	109	pic109.bmp	199	1	whitenoise_No3.bmp	306	0	0	0	0	0	0	0	0	0	0	0	0	0	0	0	0	0	0	0	0	0	0	0	0	0	0	0	0	0	0	0	0	0	0	0	0	0	0	0
011519	12:39:22	12:52:22	779618	5.0.10.0	4_exp_EVA_AMP_AWA_CON	69	Rpleas_acq	Oppo	Lpleas	Bmasked	CS_B	1pleas	distractor1	EVAbeforeCON	AMP_CSpleas	AMP23	9	6	0	0	300	300	0	0	562	46	7,32421875	1	0	0	0	1	blank2r.bmp	0	1	BMVZ	0	1	blank2r.bmp	79	95	pic95.bmp	199	1	whitenoise_No3.bmp	306	0	0	0	0	0	0	0	0	0	0	0	0	0	0	0	0	0	0	0	0	0	0	0	0	0	0	0	0	0	0	0	0	0	0	0	0	0	0	0
011519	12:39:22	12:52:23	780925	5.0.10.0	4_exp_EVA_AMP_AWA_CON	69	Rpleas_acq	Oppo	Lpleas	Bmasked	CS_B	1pleas	distractor1	EVAbeforeCON	AMP_CSunple	AMP23	9	7	0	0	300	300	0	0	394	46	7,32421875	0	0	0	0	1	blank2r.bmp	0	1	GKQX	0	1	blank2r.bmp	79	44	pic44.bmp	199	1	whitenoise_No3.bmp	306	0	0	0	0	0	0	0	0	0	0	0	0	0	0	0	0	0	0	0	0	0	0	0	0	0	0	0	0	0	0	0	0	0	0	0	0	0	0	0
011519	12:39:22	12:52:25	782311	5.0.10.0	4_exp_EVA_AMP_AWA_CON	69	Rpleas_acq	Oppo	Lpleas	Bmasked	CS_B	1pleas	distractor1	EVAbeforeCON	AMP_CSunple	AMP23	9	8	0	0	300	300	0	0	452	46	7,32421875	0	0	0	0	1	blank2r.bmp	0	1	GKQX	0	1	blank2r.bmp	79	82	pic82.bmp	199	1	whitenoise_No3.bmp	306	0	0	0	0	0	0	0	0	0	0	0	0	0	0	0	0	0	0	0	0	0	0	0	0	0	0	0	0	0	0	0	0	0	0	0	0	0	0	0
011519	12:39:22	12:52:26	783723	5.0.10.0	4_exp_EVA_AMP_AWA_CON	69	Rpleas_acq	Oppo	Lpleas	Bmasked	CS_B	1pleas	distractor1	EVAbeforeCON	AMP_CSunple	AMP23	9	9	0	0	300	300	0	0	479	46	7,32421875	0	0	0	0	1	blank2r.bmp	0	1	GKQX	0	1	blank2r.bmp	79	15	pic15.bmp	199	1	whitenoise_No3.bmp	306	0	0	0	0	0	0	0	0	0	0	0	0	0	0	0	0	0	0	0	0	0	0	0	0	0	0	0	0	0	0	0	0	0	0	0	0	0	0	0
011519	12:39:22	12:52:27	785083	5.0.10.0	4_exp_EVA_AMP_AWA_CON	69	Rpleas_acq	Oppo	Lpleas	Bmasked	CS_B	1pleas	distractor1	EVAbeforeCON	AMP_CSpleas	AMP23	9	10	0	0	300	300	0	0	447	50	7,32421875	0	0	0	0	1	blank2r.bmp	0	1	BMVZ	0	1	blank2r.bmp	79	28	pic28.bmp	199	1	whitenoise_No3.bmp	306	0	0	0	0	0	0	0	0	0	0	0	0	0	0	0	0	0	0	0	0	0	0	0	0	0	0	0	0	0	0	0	0	0	0	0	0	0	0	0
011519	12:39:22	12:52:29	786416	5.0.10.0	4_exp_EVA_AMP_AWA_CON	69	Rpleas_acq	Oppo	Lpleas	Bmasked	CS_B	1pleas	distractor1	EVAbeforeCON	AMP_CSunple	AMP23	9	11	0	0	300	300	0	0	408	46	7,32421875	0	0	0	0	1	blank2r.bmp	0	1	GKQX	0	1	blank2r.bmp	79	69	pic69.bmp	199	1	whitenoise_No3.bmp	306	0	0	0	0	0	0	0	0	0	0	0	0	0	0	0	0	0	0	0	0	0	0	0	0	0	0	0	0	0	0	0	0	0	0	0	0	0	0	0
011519	12:39:22	12:52:30	787762	5.0.10.0	4_exp_EVA_AMP_AWA_CON	69	Rpleas_acq	Oppo	Lpleas	Bmasked	CS_B	1pleas	distractor1	EVAbeforeCON	AMP_distractor	AMP23	9	12	0	0	300	300	0	0	420	46	7,32421875	0	0	0	0	1	blank2r.bmp	0	1	WFPH	0	1	blank2r.bmp	79	80	pic80.bmp	199	1	whitenoise_No3.bmp	306	0	0	0	0	0	0	0	0	0	0	0	0	0	0	0	0	0	0	0	0	0	0	0	0	0	0	0	0	0	0	0	0	0	0	0	0	0	0	0
011519	12:39:22	12:52:31	789188	5.0.10.0	4_exp_EVA_AMP_AWA_CON	69	Rpleas_acq	Oppo	Lpleas	Bmasked	CS_B	1pleas	distractor1	EVAbeforeCON	AMP_CSpleas	AMP23	9	13	0	0	300	300	0	0	506	46	7,32421875	1	0	0	0	1	blank2r.bmp	0	1	BMVZ	0	1	blank2r.bmp	79	147	pic147.bmp	199	1	whitenoise_No3.bmp	306	0	0	0	0	0	0	0	0	0	0	0	0	0	0	0	0	0	0	0	0	0	0	0	0	0	0	0	0	0	0	0	0	0	0	0	0	0	0	0
011519	12:39:22	12:52:33	790547	5.0.10.0	4_exp_EVA_AMP_AWA_CON	69	Rpleas_acq	Oppo	Lpleas	Bmasked	CS_B	1pleas	distractor1	EVAbeforeCON	AMP_distractor	AMP23	9	14	0	0	300	300	0	0	439	50	7,32421875	0	0	0	0	1	blank2r.bmp	0	1	WFPH	0	1	blank2r.bmp	79	148	pic148.bmp	199	1	whitenoise_No3.bmp	306	0	0	0	0	0	0	0	0	0	0	0	0	0	0	0	0	0	0	0	0	0	0	0	0	0	0	0	0	0	0	0	0	0	0	0	0	0	0	0
011519	12:39:22	12:52:34	792093	5.0.10.0	4_exp_EVA_AMP_AWA_CON	69	Rpleas_acq	Oppo	Lpleas	Bmasked	CS_B	1pleas	distractor1	EVAbeforeCON	AMP_distractor	AMP23	9	15	0	0	300	300	0	0	614	50	7,32421875	0	0	0	0	1	blank2r.bmp	0	1	WFPH	0	1	blank2r.bmp	79	47	pic47.bmp	199	1	whitenoise_No3.bmp	306	0	0	0	0	0	0	0	0	0	0	0	0	0	0	0	0	0	0	0	0	0	0	0	0	0	0	0	0	0	0	0	0	0	0	0	0	0	0	0
011519	12:39:22	12:52:36	793479	5.0.10.0	4_exp_EVA_AMP_AWA_CON	69	Rpleas_acq	Oppo	Lpleas	Bmasked	CS_B	1pleas	distractor1	EVAbeforeCON	AMP_CSpleas	AMP23	9	16	0	0	300	300	0	0	458	46	7,32421875	1	0	0	0	1	blank2r.bmp	0	1	BMVZ	0	1	blank2r.bmp	79	118	pic118.bmp	199	1	whitenoise_No3.bmp	306	0	0	0	0	0	0	0	0	0	0	0	0	0	0	0	0	0	0	0	0	0	0	0	0	0	0	0	0	0	0	0	0	0	0	0	0	0	0	0
011519	12:39:22	12:52:37	794945	5.0.10.0	4_exp_EVA_AMP_AWA_CON	69	Rpleas_acq	Oppo	Lpleas	Bmasked	CS_B	1pleas	distractor1	EVAbeforeCON	AMP_CSunple	AMP23	9	17	0	0	300	300	0	0	535	46	7,32421875	0	0	0	0	1	blank2r.bmp	0	1	GKQX	0	1	blank2r.bmp	79	74	pic74.bmp	199	1	whitenoise_No3.bmp	306	0	0	0	0	0	0	0	0	0	0	0	0	0	0	0	0	0	0	0	0	0	0	0	0	0	0	0	0	0	0	0	0	0	0	0	0	0	0	0
011519	12:39:22	12:52:39	796331	5.0.10.0	4_exp_EVA_AMP_AWA_CON	69	Rpleas_acq	Oppo	Lpleas	Bmasked	CS_B	1pleas	distractor1	EVAbeforeCON	AMP_distractor	AMP23	9	18	0	0	300	300	0	0	454	46	7,32421875	0	0	0	0	1	blank2r.bmp	0	1	WFPH	0	1	blank2r.bmp	79	102	pic102.bmp	199	1	whitenoise_No3.bmp	306	0	0	0	0	0	0	0	0	0	0	0	0	0	0	0	0	0	0	0	0	0	0	0	0	0	0	0	0	0	0	0	0	0	0	0	0	0	0	0
011519	12:39:22	12:52:40	797744	5.0.10.0	4_exp_EVA_AMP_AWA_CON	69	Rpleas_acq	Oppo	Lpleas	Bmasked	CS_B	1pleas	distractor1	EVAbeforeCON	AMP_CSpleas	AMP23	9	19	0	0	300	300	0	0	493	46	7,32421875	1	0	0	0	1	blank2r.bmp	0	1	BMVZ	0	1	blank2r.bmp	79	42	pic42.bmp	199	1	whitenoise_No3.bmp	306	0	0	0	0	0	0	0	0	0	0	0	0	0	0	0	0	0	0	0	0	0	0	0	0	0	0	0	0	0	0	0	0	0	0	0	0	0	0	0
011519	12:39:22	12:52:41	799104	5.0.10.0	4_exp_EVA_AMP_AWA_CON	69	Rpleas_acq	Oppo	Lpleas	Bmasked	CS_B	1pleas	distractor1	EVAbeforeCON	AMP_CSpleas	AMP23	9	20	0	0	300	300	0	0	444	46	7,32421875	1	0	0	0	1	blank2r.bmp	0	1	BMVZ	0	1	blank2r.bmp	79	13	pic13.bmp	199	1	whitenoise_No3.bmp	306	0	0	0	0	0	0	0	0	0	0	0	0	0	0	0	0	0	0	0	0	0	0	0	0	0	0	0	0	0	0	0	0	0	0	0	0	0	0	0
011519	12:39:22	12:52:43	800436	5.0.10.0	4_exp_EVA_AMP_AWA_CON	69	Rpleas_acq	Oppo	Lpleas	Bmasked	CS_B	1pleas	distractor1	EVAbeforeCON	AMP_CSunple	AMP23	9	21	0	0	300	300	0	0	424	50	7,32421875	1	0	0	0	1	blank2r.bmp	0	1	GKQX	0	1	blank2r.bmp	79	122	pic122.bmp	199	1	whitenoise_No3.bmp	306	0	0	0	0	0	0	0	0	0	0	0	0	0	0	0	0	0	0	0	0	0	0	0	0	0	0	0	0	0	0	0	0	0	0	0	0	0	0	0
011519	12:39:22	12:52:44	801822	5.0.10.0	4_exp_EVA_AMP_AWA_CON	69	Rpleas_acq	Oppo	Lpleas	Bmasked	CS_B	1pleas	distractor1	EVAbeforeCON	AMP_CSpleas	AMP23	9	22	0	0	300	300	0	0	458	50	7,32421875	0	0	0	0	1	blank2r.bmp	0	1	BMVZ	0	1	blank2r.bmp	79	59	pic59.bmp	199	1	whitenoise_No3.bmp	306	0	0	0	0	0	0	0	0	0	0	0	0	0	0	0	0	0	0	0	0	0	0	0	0	0	0	0	0	0	0	0	0	0	0	0	0	0	0	0
011519	12:39:22	12:52:46	803395	5.0.10.0	4_exp_EVA_AMP_AWA_CON	69	Rpleas_acq	Oppo	Lpleas	Bmasked	CS_B	1pleas	distractor1	EVAbeforeCON	AMP_distractor	AMP23	9	23	0	0	300	300	0	0	648	46	7,32421875	0	0	0	0	1	blank2r.bmp	0	1	WFPH	0	1	blank2r.bmp	79	49	pic49.bmp	199	1	whitenoise_No3.bmp	306	0	0	0	0	0	0	0	0	0	0	0	0	0	0	0	0	0	0	0	0	0	0	0	0	0	0	0	0	0	0	0	0	0	0	0	0	0	0	0
011519	12:39:22	12:52:47	804808	5.0.10.0	4_exp_EVA_AMP_AWA_CON	69	Rpleas_acq	Oppo	Lpleas	Bmasked	CS_B	1pleas	distractor1	EVAbeforeCON	AMP_CSunple	AMP23	9	24	0	0	300	300	0	0	491	46	7,32421875	0	0	0	0	1	blank2r.bmp	0	1	GKQX	0	1	blank2r.bmp	79	125	pic125.bmp	199	1	whitenoise_No3.bmp	306	0	0	0	0	0	0	0	0	0	0	0	0	0	0	0	0	0	0	0	0	0	0	0	0	0	0	0	0	0	0	0	0	0	0	0	0	0	0	0
011519	12:39:22	12:52:49	806301	5.0.10.0	4_exp_EVA_AMP_AWA_CON	69	Rpleas_acq	Oppo	Lpleas	Bmasked	CS_B	1pleas	distractor1	EVAbeforeCON	AMP_distractor	AMP23	9	25	0	0	300	300	0	0	564	50	7,32421875	0	0	0	0	1	blank2r.bmp	0	1	WFPH	0	1	blank2r.bmp	79	61	pic61.bmp	199	1	whitenoise_No3.bmp	306	0	0	0	0	0	0	0	0	0	0	0	0	0	0	0	0	0	0	0	0	0	0	0	0	0	0	0	0	0	0	0	0	0	0	0	0	0	0	0
011519	12:39:22	12:52:50	807753	5.0.10.0	4_exp_EVA_AMP_AWA_CON	69	Rpleas_acq	Oppo	Lpleas	Bmasked	CS_B	1pleas	distractor1	EVAbeforeCON	AMP_CSunple	AMP23	9	26	0	0	300	300	0	0	530	50	7,32421875	1	0	0	0	1	blank2r.bmp	0	1	GKQX	0	1	blank2r.bmp	79	45	pic45.bmp	199	1	whitenoise_No3.bmp	306	0	0	0	0	0	0	0	0	0	0	0	0	0	0	0	0	0	0	0	0	0	0	0	0	0	0	0	0	0	0	0	0	0	0	0	0	0	0	0
011519	12:39:22	12:52:52	809326	5.0.10.0	4_exp_EVA_AMP_AWA_CON	69	Rpleas_acq	Oppo	Lpleas	Bmasked	CS_B	1pleas	distractor1	EVAbeforeCON	AMP_distractor	AMP23	9	27	0	0	300	300	0	0	644	46	7,32421875	0	0	0	0	1	blank2r.bmp	0	1	WFPH	0	1	blank2r.bmp	79	20	pic20.bmp	199	1	whitenoise_No3.bmp	306	0	0	0	0	0	0	0	0	0	0	0	0	0	0	0	0	0	0	0	0	0	0	0	0	0	0	0	0	0	0	0	0	0	0	0	0	0	0	0
