date	time	script.currenttime	script.elapsedtime	build	script.currentexpt	subject	expressions.LRpleas_acq	expressions.SameOppo	expressions.condition_Lpleas	expressions.ABmasked	expressions.conditionCS_A	expressions.condition_1pleas	expressions.condition_distractor_AMP	expressions.AWACON_AMPEVA_first	trialcode	blockcode	blocknum	trialnum	windowcenter	inwindow	pretrialpause	posttrialpause	trialduration	trialtimeout	latency	response	expressions.correctedscore	correct	values.vis_performance	values.vis_rating_sum	values.vis_rating_mean	stimulusnumber1	stimulusitem1	stimulusonset1	stimulusnumber2	stimulusitem2	stimulusonset2	stimulusnumber3	stimulusitem3	stimulusonset3	stimulusnumber4	stimulusitem4	stimulusonset4	stimulusnumber5	stimulusitem5	stimulusonset5	stimulusnumber6	stimulusitem6	stimulusonset6	stimulusnumber7	stimulusitem7	stimulusonset7	stimulusnumber8	stimulusitem8	stimulusonset8	stimulusnumber9	stimulusitem9	stimulusonset9	stimulusnumber10	stimulusitem10	stimulusonset10	stimulusnumber11	stimulusitem11	stimulusonset11	stimulusnumber12	stimulusitem12	stimulusonset12	stimulusnumber13	stimulusitem13	stimulusonset13	stimulusnumber14	stimulusitem14	stimulusonset14	stimulusnumber15	stimulusitem15	stimulusonset15	stimulusnumber16	stimulusitem16	stimulusonset16	stimulusnumber17	stimulusitem17	stimulusonset17	stimulusnumber18	stimulusitem18	stimulusonset18
032019	13:54:27	13:57:45	197585	5.0.10.0	4_exp_EVA_AMP_AWA_CON	170	Rpleas_acq	Same	Rpleas	Amasked	CS_A	1pleas	distractor2	EVAbeforeCON	acq_new_unple_masked	acq1_masked	1	1	0	0	300	300	0	0	756	46	0	1	0	0	0	1	blank2r.bmp	0	1	+	0	6	C2r.bmp	492	1	blank2r.bmp	786	2	B2r.bmp	786	1	blank2r.bmp	866	4	gemein	866	0	0	0	0	0	0	0	0	0	0	0	0	0	0	0	0	0	0	0	0	0	0	0	0	0	0	0	0	0	0	0	0	0
032019	13:54:27	13:57:47	199677	5.0.10.0	4_exp_EVA_AMP_AWA_CON	170	Rpleas_acq	Same	Rpleas	Amasked	CS_A	1pleas	distractor2	EVAbeforeCON	acq_new_pleas_masked	acq1_masked	1	2	0	0	300	300	0	0	601	50	0	1	0	0	0	1	blank2r.bmp	0	1	+	0	2	B2r.bmp	492	1	blank2r.bmp	786	7	C3r.bmp	786	1	blank2r.bmp	866	1	vergnügt	866	0	0	0	0	0	0	0	0	0	0	0	0	0	0	0	0	0	0	0	0	0	0	0	0	0	0	0	0	0	0	0	0	0
032019	13:54:27	13:57:49	201650	5.0.10.0	4_exp_EVA_AMP_AWA_CON	170	Rpleas_acq	Same	Rpleas	Amasked	CS_A	1pleas	distractor2	EVAbeforeCON	acq_US_pleas_masked	acq1_masked	1	3	0	0	300	300	0	0	496	50	0	1	0	0	0	1	blank2r.bmp	0	1	+	0	8	C4r.bmp	492	1	blank2r.bmp	786	1	CPLW	786	1	blank2r.bmp	866	4	engagiert	866	0	0	0	0	0	0	0	0	0	0	0	0	0	0	0	0	0	0	0	0	0	0	0	0	0	0	0	0	0	0	0	0	0
032019	13:54:27	13:57:51	203809	5.0.10.0	4_exp_EVA_AMP_AWA_CON	170	Rpleas_acq	Same	Rpleas	Amasked	CS_A	1pleas	distractor2	EVAbeforeCON	acq_US_unple_masked	acq1_masked	1	4	0	0	300	300	0	0	452	50	0	0	0	0	0	1	blank2r.bmp	0	1	+	0	1	B1r.bmp	492	1	blank2r.bmp	786	1	DHJF	786	1	blank2r.bmp	866	2	krank	866	1	FEHLER	1359	0	0	0	0	0	0	0	0	0	0	0	0	0	0	0	0	0	0	0	0	0	0	0	0	0	0	0	0	0	0
032019	13:54:27	13:57:53	205821	5.0.10.0	4_exp_EVA_AMP_AWA_CON	170	Rpleas_acq	Same	Rpleas	Amasked	CS_A	1pleas	distractor2	EVAbeforeCON	acq_US_unple_masked	acq1_masked	1	5	0	0	300	300	0	0	533	50	0	0	0	0	0	1	blank2r.bmp	0	1	+	0	4	B4r.bmp	492	1	blank2r.bmp	786	1	DHJF	786	1	blank2r.bmp	866	3	bange	866	1	FEHLER	1439	0	0	0	0	0	0	0	0	0	0	0	0	0	0	0	0	0	0	0	0	0	0	0	0	0	0	0	0	0	0
032019	13:54:27	13:57:55	207661	5.0.10.0	4_exp_EVA_AMP_AWA_CON	170	Rpleas_acq	Same	Rpleas	Amasked	CS_A	1pleas	distractor2	EVAbeforeCON	acq_US_pleas_masked	acq1_masked	1	6	0	0	300	300	0	0	575	50	0	1	0	0	0	1	blank2r.bmp	0	1	+	0	7	C3r.bmp	492	1	blank2r.bmp	786	1	CPLW	786	1	blank2r.bmp	866	3	besonnen	866	0	0	0	0	0	0	0	0	0	0	0	0	0	0	0	0	0	0	0	0	0	0	0	0	0	0	0	0	0	0	0	0	0
032019	13:54:27	13:57:57	209700	5.0.10.0	4_exp_EVA_AMP_AWA_CON	170	Rpleas_acq	Same	Rpleas	Amasked	CS_A	1pleas	distractor2	EVAbeforeCON	acq_new_pleas_masked	acq1_masked	1	7	0	0	300	300	0	0	566	50	0	1	0	0	0	1	blank2r.bmp	0	1	+	0	5	C1r.bmp	492	1	blank2r.bmp	786	4	B4r.bmp	786	1	blank2r.bmp	866	6	gütig	866	0	0	0	0	0	0	0	0	0	0	0	0	0	0	0	0	0	0	0	0	0	0	0	0	0	0	0	0	0	0	0	0	0
032019	13:54:27	13:57:59	211872	5.0.10.0	4_exp_EVA_AMP_AWA_CON	170	Rpleas_acq	Same	Rpleas	Amasked	CS_A	1pleas	distractor2	EVAbeforeCON	acq_US_unple_masked	acq1_masked	1	8	0	0	300	300	0	0	688	46	0	1	0	0	0	1	blank2r.bmp	0	1	+	0	3	B3r.bmp	492	1	blank2r.bmp	786	1	DHJF	786	1	blank2r.bmp	866	4	engstirnig	866	0	0	0	0	0	0	0	0	0	0	0	0	0	0	0	0	0	0	0	0	0	0	0	0	0	0	0	0	0	0	0	0	0
032019	13:54:27	13:58:02	213951	5.0.10.0	4_exp_EVA_AMP_AWA_CON	170	Rpleas_acq	Same	Rpleas	Amasked	CS_A	1pleas	distractor2	EVAbeforeCON	acq_new_unple_masked	acq1_masked	1	9	0	0	300	300	0	0	611	46	0	1	0	0	0	1	blank2r.bmp	0	1	+	0	7	C3r.bmp	492	1	blank2r.bmp	786	5	C1r.bmp	786	1	blank2r.bmp	866	5	krise	866	0	0	0	0	0	0	0	0	0	0	0	0	0	0	0	0	0	0	0	0	0	0	0	0	0	0	0	0	0	0	0	0	0
032019	13:54:27	13:58:04	216137	5.0.10.0	4_exp_EVA_AMP_AWA_CON	170	Rpleas_acq	Same	Rpleas	Amasked	CS_A	1pleas	distractor2	EVAbeforeCON	acq_new_unple_masked	acq1_masked	1	10	0	0	300	300	0	0	482	50	0	0	0	0	0	1	blank2r.bmp	0	1	+	0	1	B1r.bmp	492	1	blank2r.bmp	786	6	C2r.bmp	786	1	blank2r.bmp	866	3	töten	866	1	FEHLER	1386	0	0	0	0	0	0	0	0	0	0	0	0	0	0	0	0	0	0	0	0	0	0	0	0	0	0	0	0	0	0
032019	13:54:27	13:58:06	217910	5.0.10.0	4_exp_EVA_AMP_AWA_CON	170	Rpleas_acq	Same	Rpleas	Amasked	CS_A	1pleas	distractor2	EVAbeforeCON	acq_new_pleas_masked	acq1_masked	1	11	0	0	300	300	0	0	496	50	0	1	0	0	0	1	blank2r.bmp	0	1	+	0	3	B3r.bmp	492	1	blank2r.bmp	786	1	B1r.bmp	786	1	blank2r.bmp	866	2	vertrauen	866	0	0	0	0	0	0	0	0	0	0	0	0	0	0	0	0	0	0	0	0	0	0	0	0	0	0	0	0	0	0	0	0	0
032019	13:54:27	13:58:08	220016	5.0.10.0	4_exp_EVA_AMP_AWA_CON	170	Rpleas_acq	Same	Rpleas	Amasked	CS_A	1pleas	distractor2	EVAbeforeCON	acq_US_pleas_masked	acq1_masked	1	12	0	0	300	300	0	0	627	50	0	1	0	0	0	1	blank2r.bmp	0	1	+	0	4	B4r.bmp	492	1	blank2r.bmp	786	1	CPLW	786	1	blank2r.bmp	866	2	kreativ	866	0	0	0	0	0	0	0	0	0	0	0	0	0	0	0	0	0	0	0	0	0	0	0	0	0	0	0	0	0	0	0	0	0
032019	13:54:27	13:58:10	222068	5.0.10.0	4_exp_EVA_AMP_AWA_CON	170	Rpleas_acq	Same	Rpleas	Amasked	CS_A	1pleas	distractor2	EVAbeforeCON	acq_new_unple_masked	acq1_masked	1	13	0	0	300	300	0	0	579	46	0	1	0	0	0	1	blank2r.bmp	0	1	+	0	8	C4r.bmp	492	1	blank2r.bmp	786	3	B3r.bmp	786	1	blank2r.bmp	866	1	verbissen	866	0	0	0	0	0	0	0	0	0	0	0	0	0	0	0	0	0	0	0	0	0	0	0	0	0	0	0	0	0	0	0	0	0
032019	13:54:27	13:58:12	224121	5.0.10.0	4_exp_EVA_AMP_AWA_CON	170	Rpleas_acq	Same	Rpleas	Amasked	CS_A	1pleas	distractor2	EVAbeforeCON	acq_new_unple_masked	acq1_masked	1	14	0	0	300	300	0	0	568	46	0	1	0	0	0	1	blank2r.bmp	0	1	+	0	6	C2r.bmp	492	1	blank2r.bmp	786	8	C4r.bmp	786	1	blank2r.bmp	866	2	versagen	866	0	0	0	0	0	0	0	0	0	0	0	0	0	0	0	0	0	0	0	0	0	0	0	0	0	0	0	0	0	0	0	0	0
032019	13:54:27	13:58:14	226066	5.0.10.0	4_exp_EVA_AMP_AWA_CON	170	Rpleas_acq	Same	Rpleas	Amasked	CS_A	1pleas	distractor2	EVAbeforeCON	acq_US_unple_masked	acq1_masked	1	15	0	0	300	300	0	0	472	46	0	1	0	0	0	1	blank2r.bmp	0	1	+	0	5	C1r.bmp	492	1	blank2r.bmp	786	1	DHJF	786	1	blank2r.bmp	866	6	sterben	866	0	0	0	0	0	0	0	0	0	0	0	0	0	0	0	0	0	0	0	0	0	0	0	0	0	0	0	0	0	0	0	0	0
032019	13:54:27	13:58:16	228066	5.0.10.0	4_exp_EVA_AMP_AWA_CON	170	Rpleas_acq	Same	Rpleas	Amasked	CS_A	1pleas	distractor2	EVAbeforeCON	acq_new_pleas_masked	acq1_masked	1	16	0	0	300	300	0	0	505	50	0	1	0	0	0	1	blank2r.bmp	0	1	+	0	2	B2r.bmp	492	1	blank2r.bmp	786	5	C1r.bmp	786	1	blank2r.bmp	866	4	genießen	866	0	0	0	0	0	0	0	0	0	0	0	0	0	0	0	0	0	0	0	0	0	0	0	0	0	0	0	0	0	0	0	0	0
032019	13:54:27	13:58:18	230091	5.0.10.0	4_exp_EVA_AMP_AWA_CON	170	Rpleas_acq	Same	Rpleas	Amasked	CS_A	1pleas	distractor2	EVAbeforeCON	acq_US_unple_masked	acq1_masked	1	17	0	0	300	300	0	0	554	46	0	1	0	0	0	1	blank2r.bmp	0	1	+	0	7	C3r.bmp	492	1	blank2r.bmp	786	1	DHJF	786	1	blank2r.bmp	866	5	geizig	866	0	0	0	0	0	0	0	0	0	0	0	0	0	0	0	0	0	0	0	0	0	0	0	0	0	0	0	0	0	0	0	0	0
032019	13:54:27	13:58:20	232291	5.0.10.0	4_exp_EVA_AMP_AWA_CON	170	Rpleas_acq	Same	Rpleas	Amasked	CS_A	1pleas	distractor2	EVAbeforeCON	acq_US_pleas_masked	acq1_masked	1	18	0	0	300	300	0	0	713	50	0	1	0	0	0	1	blank2r.bmp	0	1	+	0	2	B2r.bmp	492	1	blank2r.bmp	786	1	CPLW	786	1	blank2r.bmp	866	5	gesittet	866	0	0	0	0	0	0	0	0	0	0	0	0	0	0	0	0	0	0	0	0	0	0	0	0	0	0	0	0	0	0	0	0	0
032019	13:54:27	13:58:22	234330	5.0.10.0	4_exp_EVA_AMP_AWA_CON	170	Rpleas_acq	Same	Rpleas	Amasked	CS_A	1pleas	distractor2	EVAbeforeCON	acq_US_pleas_masked	acq1_masked	1	19	0	0	300	300	0	0	547	50	0	1	0	0	0	1	blank2r.bmp	0	1	+	0	4	B4r.bmp	492	1	blank2r.bmp	786	1	CPLW	786	1	blank2r.bmp	866	6	sonnig	866	0	0	0	0	0	0	0	0	0	0	0	0	0	0	0	0	0	0	0	0	0	0	0	0	0	0	0	0	0	0	0	0	0
032019	13:54:27	13:58:24	236835	5.0.10.0	4_exp_EVA_AMP_AWA_CON	170	Rpleas_acq	Same	Rpleas	Amasked	CS_A	1pleas	distractor2	EVAbeforeCON	acq_US_pleas_masked	acq1_masked	1	20	0	0	300	300	0	0	1024	50	0	1	0	0	0	1	blank2r.bmp	0	1	+	0	8	C4r.bmp	492	1	blank2r.bmp	786	1	CPLW	786	1	blank2r.bmp	866	1	anregung	866	0	0	0	0	0	0	0	0	0	0	0	0	0	0	0	0	0	0	0	0	0	0	0	0	0	0	0	0	0	0	0	0	0
032019	13:54:27	13:58:26	238874	5.0.10.0	4_exp_EVA_AMP_AWA_CON	170	Rpleas_acq	Same	Rpleas	Amasked	CS_A	1pleas	distractor2	EVAbeforeCON	acq_new_pleas_masked	acq1_masked	1	21	0	0	300	300	0	0	562	50	0	1	0	0	0	1	blank2r.bmp	0	1	+	0	1	B1r.bmp	492	1	blank2r.bmp	786	6	C2r.bmp	786	1	blank2r.bmp	866	5	kuss	866	0	0	0	0	0	0	0	0	0	0	0	0	0	0	0	0	0	0	0	0	0	0	0	0	0	0	0	0	0	0	0	0	0
032019	13:54:27	13:58:29	240914	5.0.10.0	4_exp_EVA_AMP_AWA_CON	170	Rpleas_acq	Same	Rpleas	Amasked	CS_A	1pleas	distractor2	EVAbeforeCON	acq_new_pleas_masked	acq1_masked	1	22	0	0	300	300	0	0	549	50	0	1	0	0	0	1	blank2r.bmp	0	1	+	0	5	C1r.bmp	492	1	blank2r.bmp	786	4	B4r.bmp	786	1	blank2r.bmp	866	3	träumen	866	0	0	0	0	0	0	0	0	0	0	0	0	0	0	0	0	0	0	0	0	0	0	0	0	0	0	0	0	0	0	0	0	0
032019	13:54:27	13:58:31	243006	5.0.10.0	4_exp_EVA_AMP_AWA_CON	170	Rpleas_acq	Same	Rpleas	Amasked	CS_A	1pleas	distractor2	EVAbeforeCON	acq_new_unple_masked	acq1_masked	1	23	0	0	300	300	0	0	599	46	0	1	0	0	0	1	blank2r.bmp	0	1	+	0	6	C2r.bmp	492	1	blank2r.bmp	786	8	C4r.bmp	786	1	blank2r.bmp	866	6	gierig	866	0	0	0	0	0	0	0	0	0	0	0	0	0	0	0	0	0	0	0	0	0	0	0	0	0	0	0	0	0	0	0	0	0
032019	13:54:27	13:58:33	244992	5.0.10.0	4_exp_EVA_AMP_AWA_CON	170	Rpleas_acq	Same	Rpleas	Amasked	CS_A	1pleas	distractor2	EVAbeforeCON	acq_US_unple_masked	acq1_masked	1	24	0	0	300	300	0	0	517	46	0	1	0	0	0	1	blank2r.bmp	0	1	+	0	3	B3r.bmp	492	1	blank2r.bmp	786	1	DHJF	786	1	blank2r.bmp	866	1	ausrottung	866	0	0	0	0	0	0	0	0	0	0	0	0	0	0	0	0	0	0	0	0	0	0	0	0	0	0	0	0	0	0	0	0	0
032019	13:54:27	13:58:35	246951	5.0.10.0	4_exp_EVA_AMP_AWA_CON	170	Rpleas_acq	Same	Rpleas	Amasked	CS_A	1pleas	distractor2	EVAbeforeCON	acq_new_unple_masked	acq1_masked	1	25	0	0	300	300	0	0	462	46	0	1	0	0	0	1	blank2r.bmp	0	1	+	0	8	C4r.bmp	492	1	blank2r.bmp	786	1	B1r.bmp	786	1	blank2r.bmp	866	2	versagen	866	0	0	0	0	0	0	0	0	0	0	0	0	0	0	0	0	0	0	0	0	0	0	0	0	0	0	0	0	0	0	0	0	0
032019	13:54:27	13:58:37	249017	5.0.10.0	4_exp_EVA_AMP_AWA_CON	170	Rpleas_acq	Same	Rpleas	Amasked	CS_A	1pleas	distractor2	EVAbeforeCON	acq_US_pleas_masked	acq1_masked	1	26	0	0	300	300	0	0	576	50	0	1	0	0	0	1	blank2r.bmp	0	1	+	0	3	B3r.bmp	492	1	blank2r.bmp	786	1	CPLW	786	1	blank2r.bmp	866	4	engagiert	866	0	0	0	0	0	0	0	0	0	0	0	0	0	0	0	0	0	0	0	0	0	0	0	0	0	0	0	0	0	0	0	0	0
032019	13:54:27	13:58:39	251149	5.0.10.0	4_exp_EVA_AMP_AWA_CON	170	Rpleas_acq	Same	Rpleas	Amasked	CS_A	1pleas	distractor2	EVAbeforeCON	acq_US_unple_masked	acq1_masked	1	27	0	0	300	300	0	0	661	46	0	1	0	0	0	1	blank2r.bmp	0	1	+	0	7	C3r.bmp	492	1	blank2r.bmp	786	1	DHJF	786	1	blank2r.bmp	866	1	ausrottung	866	0	0	0	0	0	0	0	0	0	0	0	0	0	0	0	0	0	0	0	0	0	0	0	0	0	0	0	0	0	0	0	0	0
032019	13:54:27	13:58:41	253322	5.0.10.0	4_exp_EVA_AMP_AWA_CON	170	Rpleas_acq	Same	Rpleas	Amasked	CS_A	1pleas	distractor2	EVAbeforeCON	acq_US_unple_masked	acq1_masked	1	28	0	0	300	300	0	0	687	46	0	1	0	0	0	1	blank2r.bmp	0	1	+	0	1	B1r.bmp	492	1	blank2r.bmp	786	1	DHJF	786	1	blank2r.bmp	866	3	bange	866	0	0	0	0	0	0	0	0	0	0	0	0	0	0	0	0	0	0	0	0	0	0	0	0	0	0	0	0	0	0	0	0	0
032019	13:54:27	13:58:43	255334	5.0.10.0	4_exp_EVA_AMP_AWA_CON	170	Rpleas_acq	Same	Rpleas	Amasked	CS_A	1pleas	distractor2	EVAbeforeCON	acq_US_unple_masked	acq1_masked	1	29	0	0	300	300	0	0	543	46	0	1	0	0	0	1	blank2r.bmp	0	1	+	0	6	C2r.bmp	492	1	blank2r.bmp	786	1	DHJF	786	1	blank2r.bmp	866	4	engstirnig	866	0	0	0	0	0	0	0	0	0	0	0	0	0	0	0	0	0	0	0	0	0	0	0	0	0	0	0	0	0	0	0	0	0
032019	13:54:27	13:58:45	257374	5.0.10.0	4_exp_EVA_AMP_AWA_CON	170	Rpleas_acq	Same	Rpleas	Amasked	CS_A	1pleas	distractor2	EVAbeforeCON	acq_new_pleas_masked	acq1_masked	1	30	0	0	300	300	0	0	568	50	0	1	0	0	0	1	blank2r.bmp	0	1	+	0	5	C1r.bmp	492	1	blank2r.bmp	786	3	B3r.bmp	786	1	blank2r.bmp	866	6	gütig	866	0	0	0	0	0	0	0	0	0	0	0	0	0	0	0	0	0	0	0	0	0	0	0	0	0	0	0	0	0	0	0	0	0
032019	13:54:27	13:58:47	259626	5.0.10.0	4_exp_EVA_AMP_AWA_CON	170	Rpleas_acq	Same	Rpleas	Amasked	CS_A	1pleas	distractor2	EVAbeforeCON	acq_new_pleas_masked	acq1_masked	1	31	0	0	300	300	0	0	556	46	0	0	0	0	0	1	blank2r.bmp	0	1	+	0	4	B4r.bmp	492	1	blank2r.bmp	786	7	C3r.bmp	786	1	blank2r.bmp	866	4	genießen	866	1	FEHLER	1452	0	0	0	0	0	0	0	0	0	0	0	0	0	0	0	0	0	0	0	0	0	0	0	0	0	0	0	0	0	0
032019	13:54:27	13:58:49	261558	5.0.10.0	4_exp_EVA_AMP_AWA_CON	170	Rpleas_acq	Same	Rpleas	Amasked	CS_A	1pleas	distractor2	EVAbeforeCON	acq_US_pleas_masked	acq1_masked	1	32	0	0	300	300	0	0	441	46	0	0	0	0	0	1	blank2r.bmp	0	1	+	0	2	B2r.bmp	492	1	blank2r.bmp	786	1	CPLW	786	1	blank2r.bmp	866	6	sonnig	866	1	FEHLER	1346	0	0	0	0	0	0	0	0	0	0	0	0	0	0	0	0	0	0	0	0	0	0	0	0	0	0	0	0	0	0
032019	13:54:27	13:58:51	263344	5.0.10.0	4_exp_EVA_AMP_AWA_CON	170	Rpleas_acq	Same	Rpleas	Amasked	CS_A	1pleas	distractor2	EVAbeforeCON	acq_new_unple_masked	acq1_masked	1	33	0	0	300	300	0	0	522	46	0	1	0	0	0	1	blank2r.bmp	0	1	+	0	7	C3r.bmp	492	1	blank2r.bmp	786	2	B2r.bmp	786	1	blank2r.bmp	866	4	gemein	866	0	0	0	0	0	0	0	0	0	0	0	0	0	0	0	0	0	0	0	0	0	0	0	0	0	0	0	0	0	0	0	0	0
032019	13:54:27	13:58:53	265530	5.0.10.0	4_exp_EVA_AMP_AWA_CON	170	Rpleas_acq	Same	Rpleas	Amasked	CS_A	1pleas	distractor2	EVAbeforeCON	acq_new_unple_masked	acq1_masked	1	34	0	0	300	300	0	0	706	46	0	1	0	0	0	1	blank2r.bmp	0	1	+	0	3	B3r.bmp	492	1	blank2r.bmp	786	5	C1r.bmp	786	1	blank2r.bmp	866	6	gierig	866	0	0	0	0	0	0	0	0	0	0	0	0	0	0	0	0	0	0	0	0	0	0	0	0	0	0	0	0	0	0	0	0	0
032019	13:54:27	13:58:55	267716	5.0.10.0	4_exp_EVA_AMP_AWA_CON	170	Rpleas_acq	Same	Rpleas	Amasked	CS_A	1pleas	distractor2	EVAbeforeCON	acq_US_pleas_masked	acq1_masked	1	35	0	0	300	300	0	0	716	50	0	1	0	0	0	1	blank2r.bmp	0	1	+	0	2	B2r.bmp	492	1	blank2r.bmp	786	1	CPLW	786	1	blank2r.bmp	866	1	anregung	866	0	0	0	0	0	0	0	0	0	0	0	0	0	0	0	0	0	0	0	0	0	0	0	0	0	0	0	0	0	0	0	0	0
032019	13:54:27	13:58:58	269915	5.0.10.0	4_exp_EVA_AMP_AWA_CON	170	Rpleas_acq	Same	Rpleas	Amasked	CS_A	1pleas	distractor2	EVAbeforeCON	acq_new_pleas_masked	acq1_masked	1	36	0	0	300	300	0	0	717	50	0	1	0	0	0	1	blank2r.bmp	0	1	+	0	1	B1r.bmp	492	1	blank2r.bmp	786	6	C2r.bmp	786	1	blank2r.bmp	866	3	träumen	866	0	0	0	0	0	0	0	0	0	0	0	0	0	0	0	0	0	0	0	0	0	0	0	0	0	0	0	0	0	0	0	0	0
032019	13:54:27	13:59:51	323133	5.0.10.0	4_exp_EVA_AMP_AWA_CON	170	Rpleas_acq	Same	Rpleas	Amasked	CS_A	1pleas	distractor2	EVAbeforeCON	acq_new_unple_masked	acq2_masked	2	1	480	0	300	300	0	0	3948	46	0	1	0	0	0	1	blank2r.bmp	0	1	+	0	4	B4r.bmp	492	1	blank2r.bmp	786	3	B3r.bmp	786	1	blank2r.bmp	866	5	krise	866	1	!	1319	1	!	-1	0	0	0	0	0	0	0	0	0	0	0	0	0	0	0	0	0	0	0	0	0	0	0	0	0	0	0
032019	13:54:27	13:59:53	325785	5.0.10.0	4_exp_EVA_AMP_AWA_CON	170	Rpleas_acq	Same	Rpleas	Amasked	CS_A	1pleas	distractor2	EVAbeforeCON	acq_US_pleas_masked	acq2_masked	2	2	480	0	300	300	0	0	870	50	0	1	0	0	0	1	blank2r.bmp	0	1	+	0	6	C2r.bmp	492	1	blank2r.bmp	786	1	CPLW	786	1	blank2r.bmp	866	5	gesittet	866	1	!	1319	1	!	-1	0	0	0	0	0	0	0	0	0	0	0	0	0	0	0	0	0	0	0	0	0	0	0	0	0	0	0
032019	13:54:27	13:59:56	328544	5.0.10.0	4_exp_EVA_AMP_AWA_CON	170	Rpleas_acq	Same	Rpleas	Amasked	CS_A	1pleas	distractor2	EVAbeforeCON	acq_US_unple_masked	acq2_masked	2	3	480	0	300	300	0	0	977	46	0	1	0	0	0	1	blank2r.bmp	0	1	+	0	5	C1r.bmp	492	1	blank2r.bmp	786	1	DHJF	786	1	blank2r.bmp	866	6	sterben	866	1	!	1319	1	!	-1	0	0	0	0	0	0	0	0	0	0	0	0	0	0	0	0	0	0	0	0	0	0	0	0	0	0	0
032019	13:54:27	13:59:59	331130	5.0.10.0	4_exp_EVA_AMP_AWA_CON	170	Rpleas_acq	Same	Rpleas	Amasked	CS_A	1pleas	distractor2	EVAbeforeCON	acq_US_unple_masked	acq2_masked	2	4	480	0	300	300	0	0	790	46	0	1	0	0	0	1	blank2r.bmp	0	1	+	0	8	C4r.bmp	492	1	blank2r.bmp	786	1	DHJF	786	1	blank2r.bmp	866	5	geizig	866	1	!	1319	1	!	-1	0	0	0	0	0	0	0	0	0	0	0	0	0	0	0	0	0	0	0	0	0	0	0	0	0	0	0
032019	13:54:27	14:00:01	333755	5.0.10.0	4_exp_EVA_AMP_AWA_CON	170	Rpleas_acq	Same	Rpleas	Amasked	CS_A	1pleas	distractor2	EVAbeforeCON	acq_new_pleas_masked	acq2_masked	2	5	480	0	300	300	0	0	843	50	0	1	0	0	0	1	blank2r.bmp	0	1	+	0	1	B1r.bmp	492	1	blank2r.bmp	786	8	C4r.bmp	786	1	blank2r.bmp	866	2	vertrauen	866	1	!	1319	1	!	-1	0	0	0	0	0	0	0	0	0	0	0	0	0	0	0	0	0	0	0	0	0	0	0	0	0	0	0
032019	13:54:27	14:00:04	336128	5.0.10.0	4_exp_EVA_AMP_AWA_CON	170	Rpleas_acq	Same	Rpleas	Amasked	CS_A	1pleas	distractor2	EVAbeforeCON	acq_new_unple_masked	acq2_masked	2	6	480	0	300	300	0	0	576	46	0	1	0	0	0	1	blank2r.bmp	0	1	+	0	3	B3r.bmp	492	1	blank2r.bmp	786	4	B4r.bmp	786	1	blank2r.bmp	866	3	töten	866	1	!	1319	1	!	-1	0	0	0	0	0	0	0	0	0	0	0	0	0	0	0	0	0	0	0	0	0	0	0	0	0	0	0
032019	13:54:27	14:00:06	338713	5.0.10.0	4_exp_EVA_AMP_AWA_CON	170	Rpleas_acq	Same	Rpleas	Amasked	CS_A	1pleas	distractor2	EVAbeforeCON	acq_US_pleas_masked	acq2_masked	2	7	480	0	300	300	0	0	808	50	0	1	0	0	0	1	blank2r.bmp	0	1	+	0	5	C1r.bmp	492	1	blank2r.bmp	786	1	CPLW	786	1	blank2r.bmp	866	3	besonnen	866	1	!	1319	1	!	-1	0	0	0	0	0	0	0	0	0	0	0	0	0	0	0	0	0	0	0	0	0	0	0	0	0	0	0
032019	13:54:27	14:00:10	341965	5.0.10.0	4_exp_EVA_AMP_AWA_CON	170	Rpleas_acq	Same	Rpleas	Amasked	CS_A	1pleas	distractor2	EVAbeforeCON	acq_new_pleas_masked	acq2_masked	2	8	480	0	300	300	0	0	1257	46	0	0	0	0	0	1	blank2r.bmp	0	1	+	0	6	C2r.bmp	492	1	blank2r.bmp	786	7	C3r.bmp	786	1	blank2r.bmp	866	5	kuss	866	1	FEHLER	2465	1	!	1319	1	!	-1	0	0	0	0	0	0	0	0	0	0	0	0	0	0	0	0	0	0	0	0	0	0	0	0
032019	13:54:27	14:00:12	344364	5.0.10.0	4_exp_EVA_AMP_AWA_CON	170	Rpleas_acq	Same	Rpleas	Amasked	CS_A	1pleas	distractor2	EVAbeforeCON	acq_new_pleas_masked	acq2_masked	2	9	480	0	300	300	0	0	837	50	0	1	0	0	0	1	blank2r.bmp	0	1	+	0	4	B4r.bmp	492	1	blank2r.bmp	786	2	B2r.bmp	786	1	blank2r.bmp	866	1	vergnügt	866	1	!	1319	1	!	-1	0	0	0	0	0	0	0	0	0	0	0	0	0	0	0	0	0	0	0	0	0	0	0	0	0	0	0
032019	13:54:27	14:00:14	346750	5.0.10.0	4_exp_EVA_AMP_AWA_CON	170	Rpleas_acq	Same	Rpleas	Amasked	CS_A	1pleas	distractor2	EVAbeforeCON	acq_new_unple_masked	acq2_masked	2	10	480	0	300	300	0	0	604	46	0	1	0	0	0	1	blank2r.bmp	0	1	+	0	8	C4r.bmp	492	1	blank2r.bmp	786	1	B1r.bmp	786	1	blank2r.bmp	866	1	verbissen	866	1	!	1319	1	!	-1	0	0	0	0	0	0	0	0	0	0	0	0	0	0	0	0	0	0	0	0	0	0	0	0	0	0	0
032019	13:54:27	14:00:17	349056	5.0.10.0	4_exp_EVA_AMP_AWA_CON	170	Rpleas_acq	Same	Rpleas	Amasked	CS_A	1pleas	distractor2	EVAbeforeCON	acq_US_unple_masked	acq2_masked	2	11	480	0	300	300	0	0	289	50	0	0	0	0	0	1	blank2r.bmp	0	1	+	0	7	C3r.bmp	492	1	blank2r.bmp	786	1	DHJF	786	1	blank2r.bmp	866	2	krank	866	1	FEHLER	1492	1	!	-1	1	!	-1	0	0	0	0	0	0	0	0	0	0	0	0	0	0	0	0	0	0	0	0	0	0	0	0
032019	13:54:27	14:00:19	351402	5.0.10.0	4_exp_EVA_AMP_AWA_CON	170	Rpleas_acq	Same	Rpleas	Amasked	CS_A	1pleas	distractor2	EVAbeforeCON	acq_US_pleas_masked	acq2_masked	2	12	480	0	300	300	0	0	791	50	0	1	0	0	0	1	blank2r.bmp	0	1	+	0	2	B2r.bmp	492	1	blank2r.bmp	786	1	CPLW	786	1	blank2r.bmp	866	2	kreativ	866	1	!	1319	1	!	-1	0	0	0	0	0	0	0	0	0	0	0	0	0	0	0	0	0	0	0	0	0	0	0	0	0	0	0
032019	13:54:27	14:00:21	353854	5.0.10.0	4_exp_EVA_AMP_AWA_CON	170	Rpleas_acq	Same	Rpleas	Amasked	CS_A	1pleas	distractor2	EVAbeforeCON	acq_new_unple_masked	acq2_masked	2	13	480	0	300	300	0	0	676	46	0	1	0	0	0	1	blank2r.bmp	0	1	+	0	8	C4r.bmp	492	1	blank2r.bmp	786	7	C3r.bmp	786	1	blank2r.bmp	866	3	töten	866	1	!	1319	1	!	-1	0	0	0	0	0	0	0	0	0	0	0	0	0	0	0	0	0	0	0	0	0	0	0	0	0	0	0
032019	13:54:27	14:00:24	356213	5.0.10.0	4_exp_EVA_AMP_AWA_CON	170	Rpleas_acq	Same	Rpleas	Amasked	CS_A	1pleas	distractor2	EVAbeforeCON	acq_new_pleas_masked	acq2_masked	2	14	480	0	300	300	0	0	573	50	0	1	0	0	0	1	blank2r.bmp	0	1	+	0	6	C2r.bmp	492	1	blank2r.bmp	786	5	C1r.bmp	786	1	blank2r.bmp	866	2	vertrauen	866	1	!	1319	1	!	-1	0	0	0	0	0	0	0	0	0	0	0	0	0	0	0	0	0	0	0	0	0	0	0	0	0	0	0
032019	13:54:27	14:00:26	358625	5.0.10.0	4_exp_EVA_AMP_AWA_CON	170	Rpleas_acq	Same	Rpleas	Amasked	CS_A	1pleas	distractor2	EVAbeforeCON	acq_US_unple_masked	acq2_masked	2	15	480	0	300	300	0	0	409	50	0	0	0	0	0	1	blank2r.bmp	0	1	+	0	1	B1r.bmp	492	1	blank2r.bmp	786	1	DHJF	786	1	blank2r.bmp	866	3	bange	866	1	FEHLER	1612	1	!	-1	1	!	-1	0	0	0	0	0	0	0	0	0	0	0	0	0	0	0	0	0	0	0	0	0	0	0	0
032019	13:54:27	14:00:28	360505	5.0.10.0	4_exp_EVA_AMP_AWA_CON	170	Rpleas_acq	Same	Rpleas	Amasked	CS_A	1pleas	distractor2	EVAbeforeCON	acq_new_unple_masked	acq2_masked	2	16	480	0	300	300	0	0	321	46	0	1	0	0	0	1	blank2r.bmp	0	1	+	0	5	C1r.bmp	492	1	blank2r.bmp	786	8	C4r.bmp	786	1	blank2r.bmp	866	4	gemein	866	1	!	-1	1	!	-1	0	0	0	0	0	0	0	0	0	0	0	0	0	0	0	0	0	0	0	0	0	0	0	0	0	0	0
032019	13:54:27	14:00:32	363983	5.0.10.0	4_exp_EVA_AMP_AWA_CON	170	Rpleas_acq	Same	Rpleas	Amasked	CS_A	1pleas	distractor2	EVAbeforeCON	acq_US_unple_masked	acq2_masked	2	17	480	0	300	300	0	0	1702	46	0	1	0	0	0	1	blank2r.bmp	0	1	+	0	7	C3r.bmp	492	1	blank2r.bmp	786	1	DHJF	786	1	blank2r.bmp	866	6	sterben	866	1	!	1319	1	!	-1	0	0	0	0	0	0	0	0	0	0	0	0	0	0	0	0	0	0	0	0	0	0	0	0	0	0	0
032019	13:54:27	14:00:34	366342	5.0.10.0	4_exp_EVA_AMP_AWA_CON	170	Rpleas_acq	Same	Rpleas	Amasked	CS_A	1pleas	distractor2	EVAbeforeCON	acq_new_pleas_masked	acq2_masked	2	18	480	0	300	300	0	0	578	50	0	1	0	0	0	1	blank2r.bmp	0	1	+	0	2	B2r.bmp	492	1	blank2r.bmp	786	1	B1r.bmp	786	1	blank2r.bmp	866	1	vergnügt	866	1	!	1319	1	!	-1	0	0	0	0	0	0	0	0	0	0	0	0	0	0	0	0	0	0	0	0	0	0	0	0	0	0	0
032019	13:54:27	14:00:36	368674	5.0.10.0	4_exp_EVA_AMP_AWA_CON	170	Rpleas_acq	Same	Rpleas	Amasked	CS_A	1pleas	distractor2	EVAbeforeCON	acq_new_unple_masked	acq2_masked	2	19	480	1	300	300	0	0	511	46	0	1	0	0	0	1	blank2r.bmp	0	1	+	0	3	B3r.bmp	492	1	blank2r.bmp	786	6	C2r.bmp	786	1	blank2r.bmp	866	6	gierig	866	1	!	1319	1	!	1412	0	0	0	0	0	0	0	0	0	0	0	0	0	0	0	0	0	0	0	0	0	0	0	0	0	0	0
032019	13:54:27	14:00:38	370754	5.0.10.0	4_exp_EVA_AMP_AWA_CON	170	Rpleas_acq	Same	Rpleas	Amasked	CS_A	1pleas	distractor2	EVAbeforeCON	acq_US_pleas_masked	acq2_masked	2	20	480	0	300	300	0	0	309	50	0	1	0	0	0	1	blank2r.bmp	0	1	+	0	4	B4r.bmp	492	1	blank2r.bmp	786	1	CPLW	786	1	blank2r.bmp	866	6	sonnig	866	1	!	-1	1	!	-1	0	0	0	0	0	0	0	0	0	0	0	0	0	0	0	0	0	0	0	0	0	0	0	0	0	0	0
032019	13:54:27	14:00:42	374592	5.0.10.0	4_exp_EVA_AMP_AWA_CON	170	Rpleas_acq	Same	Rpleas	Amasked	CS_A	1pleas	distractor2	EVAbeforeCON	acq_US_unple_masked	acq2_masked	2	21	480	0	300	300	0	0	2057	46	0	1	0	0	0	1	blank2r.bmp	0	1	+	0	1	B1r.bmp	492	1	blank2r.bmp	786	1	DHJF	786	1	blank2r.bmp	866	1	ausrottung	866	1	!	1319	1	!	-1	0	0	0	0	0	0	0	0	0	0	0	0	0	0	0	0	0	0	0	0	0	0	0	0	0	0	0
032019	13:54:27	14:00:45	377098	5.0.10.0	4_exp_EVA_AMP_AWA_CON	170	Rpleas_acq	Same	Rpleas	Amasked	CS_A	1pleas	distractor2	EVAbeforeCON	acq_US_pleas_masked	acq2_masked	2	22	480	0	300	300	0	0	727	50	0	1	0	0	0	1	blank2r.bmp	0	1	+	0	7	C3r.bmp	492	1	blank2r.bmp	786	1	CPLW	786	1	blank2r.bmp	866	5	gesittet	866	1	!	1319	1	!	-1	0	0	0	0	0	0	0	0	0	0	0	0	0	0	0	0	0	0	0	0	0	0	0	0	0	0	0
032019	13:54:27	14:00:47	379510	5.0.10.0	4_exp_EVA_AMP_AWA_CON	170	Rpleas_acq	Same	Rpleas	Amasked	CS_A	1pleas	distractor2	EVAbeforeCON	acq_new_pleas_masked	acq2_masked	2	23	480	0	300	300	0	0	635	50	0	1	0	0	0	1	blank2r.bmp	0	1	+	0	4	B4r.bmp	492	1	blank2r.bmp	786	2	B2r.bmp	786	1	blank2r.bmp	866	3	träumen	866	1	!	1319	1	!	-1	0	0	0	0	0	0	0	0	0	0	0	0	0	0	0	0	0	0	0	0	0	0	0	0	0	0	0
032019	13:54:27	14:00:49	381789	5.0.10.0	4_exp_EVA_AMP_AWA_CON	170	Rpleas_acq	Same	Rpleas	Amasked	CS_A	1pleas	distractor2	EVAbeforeCON	acq_US_pleas_masked	acq2_masked	2	24	480	1	300	300	0	0	457	50	0	1	0	0	0	1	blank2r.bmp	0	1	+	0	8	C4r.bmp	492	1	blank2r.bmp	786	1	CPLW	786	1	blank2r.bmp	866	1	anregung	866	1	!	1319	1	!	1359	0	0	0	0	0	0	0	0	0	0	0	0	0	0	0	0	0	0	0	0	0	0	0	0	0	0	0
032019	13:54:27	14:00:52	384121	5.0.10.0	4_exp_EVA_AMP_AWA_CON	170	Rpleas_acq	Same	Rpleas	Amasked	CS_A	1pleas	distractor2	EVAbeforeCON	acq_new_unple_masked	acq2_masked	2	25	480	0	300	300	0	0	571	46	0	1	0	0	0	1	blank2r.bmp	0	1	+	0	2	B2r.bmp	492	1	blank2r.bmp	786	4	B4r.bmp	786	1	blank2r.bmp	866	5	krise	866	1	!	1319	1	!	-1	0	0	0	0	0	0	0	0	0	0	0	0	0	0	0	0	0	0	0	0	0	0	0	0	0	0	0
032019	13:54:27	14:00:54	386467	5.0.10.0	4_exp_EVA_AMP_AWA_CON	170	Rpleas_acq	Same	Rpleas	Amasked	CS_A	1pleas	distractor2	EVAbeforeCON	acq_new_pleas_masked	acq2_masked	2	26	480	0	300	300	0	0	562	50	0	1	0	0	0	1	blank2r.bmp	0	1	+	0	5	C1r.bmp	492	1	blank2r.bmp	786	3	B3r.bmp	786	1	blank2r.bmp	866	6	gütig	866	1	!	1319	1	!	-1	0	0	0	0	0	0	0	0	0	0	0	0	0	0	0	0	0	0	0	0	0	0	0	0	0	0	0
032019	13:54:27	14:00:56	388880	5.0.10.0	4_exp_EVA_AMP_AWA_CON	170	Rpleas_acq	Same	Rpleas	Amasked	CS_A	1pleas	distractor2	EVAbeforeCON	acq_US_unple_masked	acq2_masked	2	27	480	0	300	300	0	0	612	46	0	1	0	0	0	1	blank2r.bmp	0	1	+	0	3	B3r.bmp	492	1	blank2r.bmp	786	1	DHJF	786	1	blank2r.bmp	866	4	engstirnig	866	1	!	1319	1	!	-1	0	0	0	0	0	0	0	0	0	0	0	0	0	0	0	0	0	0	0	0	0	0	0	0	0	0	0
032019	13:54:27	14:00:59	391199	5.0.10.0	4_exp_EVA_AMP_AWA_CON	170	Rpleas_acq	Same	Rpleas	Amasked	CS_A	1pleas	distractor2	EVAbeforeCON	acq_new_pleas_masked	acq2_masked	2	28	480	1	300	300	0	0	516	50	0	1	0	0	0	1	blank2r.bmp	0	1	+	0	6	C2r.bmp	492	1	blank2r.bmp	786	2	B2r.bmp	786	1	blank2r.bmp	866	4	genießen	866	1	!	1319	1	!	1412	0	0	0	0	0	0	0	0	0	0	0	0	0	0	0	0	0	0	0	0	0	0	0	0	0	0	0
032019	13:54:27	14:01:01	393531	5.0.10.0	4_exp_EVA_AMP_AWA_CON	170	Rpleas_acq	Same	Rpleas	Amasked	CS_A	1pleas	distractor2	EVAbeforeCON	acq_new_unple_masked	acq2_masked	2	29	480	0	300	300	0	0	559	46	0	1	0	0	0	1	blank2r.bmp	0	1	+	0	7	C3r.bmp	492	1	blank2r.bmp	786	1	B1r.bmp	786	1	blank2r.bmp	866	1	verbissen	866	1	!	1319	1	!	-1	0	0	0	0	0	0	0	0	0	0	0	0	0	0	0	0	0	0	0	0	0	0	0	0	0	0	0
032019	13:54:27	14:01:04	395997	5.0.10.0	4_exp_EVA_AMP_AWA_CON	170	Rpleas_acq	Same	Rpleas	Amasked	CS_A	1pleas	distractor2	EVAbeforeCON	acq_US_pleas_masked	acq2_masked	2	30	480	1	300	300	0	0	450	46	0	0	0	0	0	1	blank2r.bmp	0	1	+	0	3	B3r.bmp	492	1	blank2r.bmp	786	1	CPLW	786	1	blank2r.bmp	866	2	kreativ	866	1	FEHLER	1665	1	!	1319	1	!	1346	0	0	0	0	0	0	0	0	0	0	0	0	0	0	0	0	0	0	0	0	0	0	0	0
032019	13:54:27	14:01:06	398049	5.0.10.0	4_exp_EVA_AMP_AWA_CON	170	Rpleas_acq	Same	Rpleas	Amasked	CS_A	1pleas	distractor2	EVAbeforeCON	acq_US_unple_masked	acq2_masked	2	31	480	1	300	300	0	0	466	46	0	1	0	0	0	1	blank2r.bmp	0	1	+	0	2	B2r.bmp	492	1	blank2r.bmp	786	1	DHJF	786	1	blank2r.bmp	866	5	geizig	866	1	!	1319	1	!	1372	0	0	0	0	0	0	0	0	0	0	0	0	0	0	0	0	0	0	0	0	0	0	0	0	0	0	0
032019	13:54:27	14:01:08	400501	5.0.10.0	4_exp_EVA_AMP_AWA_CON	170	Rpleas_acq	Same	Rpleas	Amasked	CS_A	1pleas	distractor2	EVAbeforeCON	acq_new_unple_masked	acq2_masked	2	32	480	1	300	300	0	0	450	50	0	0	0	0	0	1	blank2r.bmp	0	1	+	0	4	B4r.bmp	492	1	blank2r.bmp	786	7	C3r.bmp	786	1	blank2r.bmp	866	2	versagen	866	1	FEHLER	1665	1	!	1319	1	!	1346	0	0	0	0	0	0	0	0	0	0	0	0	0	0	0	0	0	0	0	0	0	0	0	0
032019	13:54:27	14:01:10	402394	5.0.10.0	4_exp_EVA_AMP_AWA_CON	170	Rpleas_acq	Same	Rpleas	Amasked	CS_A	1pleas	distractor2	EVAbeforeCON	acq_US_unple_masked	acq2_masked	2	33	480	0	300	300	0	0	333	46	0	1	0	0	0	1	blank2r.bmp	0	1	+	0	5	C1r.bmp	492	1	blank2r.bmp	786	1	DHJF	786	1	blank2r.bmp	866	2	krank	866	1	!	-1	1	!	-1	0	0	0	0	0	0	0	0	0	0	0	0	0	0	0	0	0	0	0	0	0	0	0	0	0	0	0
032019	13:54:27	14:01:12	404726	5.0.10.0	4_exp_EVA_AMP_AWA_CON	170	Rpleas_acq	Same	Rpleas	Amasked	CS_A	1pleas	distractor2	EVAbeforeCON	acq_new_pleas_masked	acq2_masked	2	34	480	1	300	300	0	0	518	50	0	1	0	0	0	1	blank2r.bmp	0	1	+	0	8	C4r.bmp	492	1	blank2r.bmp	786	4	B4r.bmp	786	1	blank2r.bmp	866	5	kuss	866	1	!	1319	1	!	1412	0	0	0	0	0	0	0	0	0	0	0	0	0	0	0	0	0	0	0	0	0	0	0	0	0	0	0
032019	13:54:27	14:01:15	407179	5.0.10.0	4_exp_EVA_AMP_AWA_CON	170	Rpleas_acq	Same	Rpleas	Amasked	CS_A	1pleas	distractor2	EVAbeforeCON	acq_US_pleas_masked	acq2_masked	2	35	480	0	300	300	0	0	685	50	0	1	0	0	0	1	blank2r.bmp	0	1	+	0	6	C2r.bmp	492	1	blank2r.bmp	786	1	CPLW	786	1	blank2r.bmp	866	4	engagiert	866	1	!	1319	1	!	-1	0	0	0	0	0	0	0	0	0	0	0	0	0	0	0	0	0	0	0	0	0	0	0	0	0	0	0
032019	13:54:27	14:01:17	409418	5.0.10.0	4_exp_EVA_AMP_AWA_CON	170	Rpleas_acq	Same	Rpleas	Amasked	CS_A	1pleas	distractor2	EVAbeforeCON	acq_US_pleas_masked	acq2_masked	2	36	480	1	300	300	0	0	426	50	0	1	0	0	0	1	blank2r.bmp	0	1	+	0	1	B1r.bmp	492	1	blank2r.bmp	786	1	CPLW	786	1	blank2r.bmp	866	3	besonnen	866	1	!	1319	1	!	1332	0	0	0	0	0	0	0	0	0	0	0	0	0	0	0	0	0	0	0	0	0	0	0	0	0	0	0
032019	13:54:27	14:01:38	430263	5.0.10.0	4_exp_EVA_AMP_AWA_CON	170	Rpleas_acq	Same	Rpleas	Amasked	CS_A	1pleas	distractor2	EVAbeforeCON	acq_US_unple_masked	acq3_masked	3	1	453	0	300	300	0	0	596	46	0	1	0	0	0	1	blank2r.bmp	0	1	+	0	4	B4r.bmp	492	1	blank2r.bmp	786	1	DHJF	786	1	blank2r.bmp	866	1	ausrottung	866	1	!	1292	1	!	-1	0	0	0	0	0	0	0	0	0	0	0	0	0	0	0	0	0	0	0	0	0	0	0	0	0	0	0
032019	13:54:27	14:01:40	432475	5.0.10.0	4_exp_EVA_AMP_AWA_CON	170	Rpleas_acq	Same	Rpleas	Amasked	CS_A	1pleas	distractor2	EVAbeforeCON	acq_US_pleas_masked	acq3_masked	3	2	453	1	300	300	0	0	399	50	0	1	0	0	0	1	blank2r.bmp	0	1	+	0	6	C2r.bmp	492	1	blank2r.bmp	786	1	CPLW	786	1	blank2r.bmp	866	3	besonnen	866	1	!	1292	1	!	1306	0	0	0	0	0	0	0	0	0	0	0	0	0	0	0	0	0	0	0	0	0	0	0	0	0	0	0
032019	13:54:27	14:01:42	434807	5.0.10.0	4_exp_EVA_AMP_AWA_CON	170	Rpleas_acq	Same	Rpleas	Amasked	CS_A	1pleas	distractor2	EVAbeforeCON	acq_US_unple_masked	acq3_masked	3	3	453	0	300	300	0	0	561	46	0	1	0	0	0	1	blank2r.bmp	0	1	+	0	3	B3r.bmp	492	1	blank2r.bmp	786	1	DHJF	786	1	blank2r.bmp	866	4	engstirnig	866	1	!	1292	1	!	-1	0	0	0	0	0	0	0	0	0	0	0	0	0	0	0	0	0	0	0	0	0	0	0	0	0	0	0
032019	13:54:27	14:01:45	437126	5.0.10.0	4_exp_EVA_AMP_AWA_CON	170	Rpleas_acq	Same	Rpleas	Amasked	CS_A	1pleas	distractor2	EVAbeforeCON	acq_US_unple_masked	acq3_masked	3	4	453	0	300	300	0	0	307	50	0	0	0	0	0	1	blank2r.bmp	0	1	+	0	8	C4r.bmp	492	1	blank2r.bmp	786	1	DHJF	786	1	blank2r.bmp	866	5	geizig	866	1	FEHLER	1519	1	!	-1	1	!	-1	0	0	0	0	0	0	0	0	0	0	0	0	0	0	0	0	0	0	0	0	0	0	0	0
032019	13:54:27	14:01:47	439192	5.0.10.0	4_exp_EVA_AMP_AWA_CON	170	Rpleas_acq	Same	Rpleas	Amasked	CS_A	1pleas	distractor2	EVAbeforeCON	acq_US_unple_masked	acq3_masked	3	5	453	1	300	300	0	0	485	46	0	1	0	0	0	1	blank2r.bmp	0	1	+	0	7	C3r.bmp	492	1	blank2r.bmp	786	1	DHJF	786	1	blank2r.bmp	866	2	krank	866	1	!	1292	1	!	1386	0	0	0	0	0	0	0	0	0	0	0	0	0	0	0	0	0	0	0	0	0	0	0	0	0	0	0
032019	13:54:27	14:01:49	441311	5.0.10.0	4_exp_EVA_AMP_AWA_CON	170	Rpleas_acq	Same	Rpleas	Amasked	CS_A	1pleas	distractor2	EVAbeforeCON	acq_US_pleas_masked	acq3_masked	3	6	453	0	300	300	0	0	333	50	0	1	0	0	0	1	blank2r.bmp	0	1	+	0	5	C1r.bmp	492	1	blank2r.bmp	786	1	CPLW	786	1	blank2r.bmp	866	5	gesittet	866	1	!	-1	1	!	-1	0	0	0	0	0	0	0	0	0	0	0	0	0	0	0	0	0	0	0	0	0	0	0	0	0	0	0
032019	13:54:27	14:01:51	443630	5.0.10.0	4_exp_EVA_AMP_AWA_CON	170	Rpleas_acq	Same	Rpleas	Amasked	CS_A	1pleas	distractor2	EVAbeforeCON	acq_US_pleas_masked	acq3_masked	3	7	453	0	300	300	0	0	532	50	0	1	0	0	0	1	blank2r.bmp	0	1	+	0	2	B2r.bmp	492	1	blank2r.bmp	786	1	CPLW	786	1	blank2r.bmp	866	6	sonnig	866	1	!	1292	1	!	-1	0	0	0	0	0	0	0	0	0	0	0	0	0	0	0	0	0	0	0	0	0	0	0	0	0	0	0
032019	13:54:27	14:01:53	445843	5.0.10.0	4_exp_EVA_AMP_AWA_CON	170	Rpleas_acq	Same	Rpleas	Amasked	CS_A	1pleas	distractor2	EVAbeforeCON	acq_US_pleas_masked	acq3_masked	3	8	453	1	300	300	0	0	399	50	0	1	0	0	0	1	blank2r.bmp	0	1	+	0	1	B1r.bmp	492	1	blank2r.bmp	786	1	CPLW	786	1	blank2r.bmp	866	1	anregung	866	1	!	1292	1	!	1306	0	0	0	0	0	0	0	0	0	0	0	0	0	0	0	0	0	0	0	0	0	0	0	0	0	0	0
032019	13:54:27	14:01:56	447909	5.0.10.0	4_exp_EVA_AMP_AWA_CON	170	Rpleas_acq	Same	Rpleas	Amasked	CS_A	1pleas	distractor2	EVAbeforeCON	acq_US_unple_masked	acq3_masked	3	9	453	0	300	300	0	0	299	46	0	1	0	0	0	1	blank2r.bmp	0	1	+	0	8	C4r.bmp	492	1	blank2r.bmp	786	1	DHJF	786	1	blank2r.bmp	866	6	sterben	866	1	!	-1	1	!	-1	0	0	0	0	0	0	0	0	0	0	0	0	0	0	0	0	0	0	0	0	0	0	0	0	0	0	0
032019	13:54:27	14:01:58	450228	5.0.10.0	4_exp_EVA_AMP_AWA_CON	170	Rpleas_acq	Same	Rpleas	Amasked	CS_A	1pleas	distractor2	EVAbeforeCON	acq_US_unple_masked	acq3_masked	3	10	453	0	300	300	0	0	533	46	0	1	0	0	0	1	blank2r.bmp	0	1	+	0	3	B3r.bmp	492	1	blank2r.bmp	786	1	DHJF	786	1	blank2r.bmp	866	3	bange	866	1	!	1292	1	!	-1	0	0	0	0	0	0	0	0	0	0	0	0	0	0	0	0	0	0	0	0	0	0	0	0	0	0	0
032019	13:54:27	14:02:00	452653	5.0.10.0	4_exp_EVA_AMP_AWA_CON	170	Rpleas_acq	Same	Rpleas	Amasked	CS_A	1pleas	distractor2	EVAbeforeCON	acq_US_pleas_masked	acq3_masked	3	11	453	1	300	300	0	0	405	46	0	0	0	0	0	1	blank2r.bmp	0	1	+	0	7	C3r.bmp	492	1	blank2r.bmp	786	1	CPLW	786	1	blank2r.bmp	866	4	engagiert	866	1	FEHLER	1625	1	!	1292	1	!	1306	0	0	0	0	0	0	0	0	0	0	0	0	0	0	0	0	0	0	0	0	0	0	0	0
032019	13:54:27	14:02:02	454559	5.0.10.0	4_exp_EVA_AMP_AWA_CON	170	Rpleas_acq	Same	Rpleas	Amasked	CS_A	1pleas	distractor2	EVAbeforeCON	acq_US_pleas_masked	acq3_masked	3	12	453	0	300	300	0	0	352	50	0	1	0	0	0	1	blank2r.bmp	0	1	+	0	4	B4r.bmp	492	1	blank2r.bmp	786	1	CPLW	786	1	blank2r.bmp	866	2	kreativ	866	1	!	-1	1	!	-1	0	0	0	0	0	0	0	0	0	0	0	0	0	0	0	0	0	0	0	0	0	0	0	0	0	0	0
032019	13:54:27	14:02:04	456838	5.0.10.0	4_exp_EVA_AMP_AWA_CON	170	Rpleas_acq	Same	Rpleas	Amasked	CS_A	1pleas	distractor2	EVAbeforeCON	acq_US_unple_masked	acq3_masked	3	13	453	1	300	300	0	0	453	46	0	1	0	0	0	1	blank2r.bmp	0	1	+	0	2	B2r.bmp	492	1	blank2r.bmp	786	1	DHJF	786	1	blank2r.bmp	866	4	engstirnig	866	1	!	1292	1	!	1359	0	0	0	0	0	0	0	0	0	0	0	0	0	0	0	0	0	0	0	0	0	0	0	0	0	0	0
032019	13:54:27	14:02:07	459211	5.0.10.0	4_exp_EVA_AMP_AWA_CON	170	Rpleas_acq	Same	Rpleas	Amasked	CS_A	1pleas	distractor2	EVAbeforeCON	acq_US_unple_masked	acq3_masked	3	14	453	0	300	300	0	0	603	46	0	1	0	0	0	1	blank2r.bmp	0	1	+	0	5	C1r.bmp	492	1	blank2r.bmp	786	1	DHJF	786	1	blank2r.bmp	866	1	ausrottung	866	1	!	1292	1	!	-1	0	0	0	0	0	0	0	0	0	0	0	0	0	0	0	0	0	0	0	0	0	0	0	0	0	0	0
032019	13:54:27	14:02:09	461316	5.0.10.0	4_exp_EVA_AMP_AWA_CON	170	Rpleas_acq	Same	Rpleas	Amasked	CS_A	1pleas	distractor2	EVAbeforeCON	acq_US_pleas_masked	acq3_masked	3	15	453	0	300	300	0	0	329	50	0	1	0	0	0	1	blank2r.bmp	0	1	+	0	1	B1r.bmp	492	1	blank2r.bmp	786	1	CPLW	786	1	blank2r.bmp	866	4	engagiert	866	1	!	-1	1	!	-1	0	0	0	0	0	0	0	0	0	0	0	0	0	0	0	0	0	0	0	0	0	0	0	0	0	0	0
032019	13:54:27	14:02:11	463662	5.0.10.0	4_exp_EVA_AMP_AWA_CON	170	Rpleas_acq	Same	Rpleas	Amasked	CS_A	1pleas	distractor2	EVAbeforeCON	acq_US_unple_masked	acq3_masked	3	16	453	0	300	300	0	0	559	46	0	1	0	0	0	1	blank2r.bmp	0	1	+	0	6	C2r.bmp	492	1	blank2r.bmp	786	1	DHJF	786	1	blank2r.bmp	866	2	krank	866	1	!	1292	1	!	-1	0	0	0	0	0	0	0	0	0	0	0	0	0	0	0	0	0	0	0	0	0	0	0	0	0	0	0
032019	13:54:27	14:02:13	465875	5.0.10.0	4_exp_EVA_AMP_AWA_CON	170	Rpleas_acq	Same	Rpleas	Amasked	CS_A	1pleas	distractor2	EVAbeforeCON	acq_US_pleas_masked	acq3_masked	3	17	453	1	300	300	0	0	399	50	0	1	0	0	0	1	blank2r.bmp	0	1	+	0	6	C2r.bmp	492	1	blank2r.bmp	786	1	CPLW	786	1	blank2r.bmp	866	6	sonnig	866	1	!	1292	1	!	1306	0	0	0	0	0	0	0	0	0	0	0	0	0	0	0	0	0	0	0	0	0	0	0	0	0	0	0
032019	13:54:27	14:02:16	467967	5.0.10.0	4_exp_EVA_AMP_AWA_CON	170	Rpleas_acq	Same	Rpleas	Amasked	CS_A	1pleas	distractor2	EVAbeforeCON	acq_US_unple_masked	acq3_masked	3	18	453	0	300	300	0	0	325	46	0	1	0	0	0	1	blank2r.bmp	0	1	+	0	2	B2r.bmp	492	1	blank2r.bmp	786	1	DHJF	786	1	blank2r.bmp	866	6	sterben	866	1	!	-1	1	!	-1	0	0	0	0	0	0	0	0	0	0	0	0	0	0	0	0	0	0	0	0	0	0	0	0	0	0	0
032019	13:54:27	14:02:18	470073	5.0.10.0	4_exp_EVA_AMP_AWA_CON	170	Rpleas_acq	Same	Rpleas	Amasked	CS_A	1pleas	distractor2	EVAbeforeCON	acq_US_pleas_masked	acq3_masked	3	19	453	0	300	300	0	0	327	50	0	1	0	0	0	1	blank2r.bmp	0	1	+	0	5	C1r.bmp	492	1	blank2r.bmp	786	1	CPLW	786	1	blank2r.bmp	866	2	kreativ	866	1	!	-1	1	!	-1	0	0	0	0	0	0	0	0	0	0	0	0	0	0	0	0	0	0	0	0	0	0	0	0	0	0	0
032019	13:54:27	14:02:20	472525	5.0.10.0	4_exp_EVA_AMP_AWA_CON	170	Rpleas_acq	Same	Rpleas	Amasked	CS_A	1pleas	distractor2	EVAbeforeCON	acq_US_pleas_masked	acq3_masked	3	20	453	0	300	300	0	0	665	50	0	1	0	0	0	1	blank2r.bmp	0	1	+	0	1	B1r.bmp	492	1	blank2r.bmp	786	1	CPLW	786	1	blank2r.bmp	866	5	gesittet	866	1	!	1292	1	!	-1	0	0	0	0	0	0	0	0	0	0	0	0	0	0	0	0	0	0	0	0	0	0	0	0	0	0	0
032019	13:54:27	14:02:22	474831	5.0.10.0	4_exp_EVA_AMP_AWA_CON	170	Rpleas_acq	Same	Rpleas	Amasked	CS_A	1pleas	distractor2	EVAbeforeCON	acq_US_pleas_masked	acq3_masked	3	21	453	1	300	300	0	0	496	50	0	1	0	0	0	1	blank2r.bmp	0	1	+	0	7	C3r.bmp	492	1	blank2r.bmp	786	1	CPLW	786	1	blank2r.bmp	866	1	anregung	866	1	!	1292	1	!	1399	0	0	0	0	0	0	0	0	0	0	0	0	0	0	0	0	0	0	0	0	0	0	0	0	0	0	0
032019	13:54:27	14:02:25	477203	5.0.10.0	4_exp_EVA_AMP_AWA_CON	170	Rpleas_acq	Same	Rpleas	Amasked	CS_A	1pleas	distractor2	EVAbeforeCON	acq_US_unple_masked	acq3_masked	3	22	453	0	300	300	0	0	599	46	0	1	0	0	0	1	blank2r.bmp	0	1	+	0	8	C4r.bmp	492	1	blank2r.bmp	786	1	DHJF	786	1	blank2r.bmp	866	3	bange	866	1	!	1292	1	!	-1	0	0	0	0	0	0	0	0	0	0	0	0	0	0	0	0	0	0	0	0	0	0	0	0	0	0	0
032019	13:54:27	14:02:27	479509	5.0.10.0	4_exp_EVA_AMP_AWA_CON	170	Rpleas_acq	Same	Rpleas	Amasked	CS_A	1pleas	distractor2	EVAbeforeCON	acq_US_unple_masked	acq3_masked	3	23	453	0	300	300	0	0	293	50	0	0	0	0	0	1	blank2r.bmp	0	1	+	0	4	B4r.bmp	492	1	blank2r.bmp	786	1	DHJF	786	1	blank2r.bmp	866	5	geizig	866	1	FEHLER	1506	1	!	-1	1	!	-1	0	0	0	0	0	0	0	0	0	0	0	0	0	0	0	0	0	0	0	0	0	0	0	0
032019	13:54:27	14:02:29	481601	5.0.10.0	4_exp_EVA_AMP_AWA_CON	170	Rpleas_acq	Same	Rpleas	Amasked	CS_A	1pleas	distractor2	EVAbeforeCON	acq_US_pleas_masked	acq3_masked	3	24	453	1	300	300	0	0	511	50	0	1	0	0	0	1	blank2r.bmp	0	1	+	0	3	B3r.bmp	492	1	blank2r.bmp	786	1	CPLW	786	1	blank2r.bmp	866	3	besonnen	866	1	!	1292	1	!	1412	0	0	0	0	0	0	0	0	0	0	0	0	0	0	0	0	0	0	0	0	0	0	0	0	0	0	0
032019	13:54:27	14:02:31	483694	5.0.10.0	4_exp_EVA_AMP_AWA_CON	170	Rpleas_acq	Same	Rpleas	Amasked	CS_A	1pleas	distractor2	EVAbeforeCON	acq_US_unple_masked	acq3_masked	3	25	453	0	300	300	0	0	328	46	0	1	0	0	0	1	blank2r.bmp	0	1	+	0	1	B1r.bmp	492	1	blank2r.bmp	786	1	DHJF	786	1	blank2r.bmp	866	4	engstirnig	866	1	!	-1	1	!	-1	0	0	0	0	0	0	0	0	0	0	0	0	0	0	0	0	0	0	0	0	0	0	0	0	0	0	0
032019	13:54:27	14:02:34	485973	5.0.10.0	4_exp_EVA_AMP_AWA_CON	170	Rpleas_acq	Same	Rpleas	Amasked	CS_A	1pleas	distractor2	EVAbeforeCON	acq_US_pleas_masked	acq3_masked	3	26	453	1	300	300	0	0	470	50	0	1	0	0	0	1	blank2r.bmp	0	1	+	0	2	B2r.bmp	492	1	blank2r.bmp	786	1	CPLW	786	1	blank2r.bmp	866	3	besonnen	866	1	!	1292	1	!	1372	0	0	0	0	0	0	0	0	0	0	0	0	0	0	0	0	0	0	0	0	0	0	0	0	0	0	0
032019	13:54:27	14:02:36	488279	5.0.10.0	4_exp_EVA_AMP_AWA_CON	170	Rpleas_acq	Same	Rpleas	Amasked	CS_A	1pleas	distractor2	EVAbeforeCON	acq_US_pleas_masked	acq3_masked	3	27	453	0	300	300	0	0	539	50	0	1	0	0	0	1	blank2r.bmp	0	1	+	0	3	B3r.bmp	492	1	blank2r.bmp	786	1	CPLW	786	1	blank2r.bmp	866	1	anregung	866	1	!	1292	1	!	-1	0	0	0	0	0	0	0	0	0	0	0	0	0	0	0	0	0	0	0	0	0	0	0	0	0	0	0
032019	13:54:27	14:02:38	490491	5.0.10.0	4_exp_EVA_AMP_AWA_CON	170	Rpleas_acq	Same	Rpleas	Amasked	CS_A	1pleas	distractor2	EVAbeforeCON	acq_US_unple_masked	acq3_masked	3	28	453	1	300	300	0	0	401	46	0	1	0	0	0	1	blank2r.bmp	0	1	+	0	4	B4r.bmp	492	1	blank2r.bmp	786	1	DHJF	786	1	blank2r.bmp	866	3	bange	866	1	!	1292	1	!	1306	0	0	0	0	0	0	0	0	0	0	0	0	0	0	0	0	0	0	0	0	0	0	0	0	0	0	0
032019	13:54:27	14:02:40	492690	5.0.10.0	4_exp_EVA_AMP_AWA_CON	170	Rpleas_acq	Same	Rpleas	Amasked	CS_A	1pleas	distractor2	EVAbeforeCON	acq_US_unple_masked	acq3_masked	3	29	453	1	300	300	0	0	399	46	0	1	0	0	0	1	blank2r.bmp	0	1	+	0	5	C1r.bmp	492	1	blank2r.bmp	786	1	DHJF	786	1	blank2r.bmp	866	6	sterben	866	1	!	1292	1	!	1306	0	0	0	0	0	0	0	0	0	0	0	0	0	0	0	0	0	0	0	0	0	0	0	0	0	0	0
032019	13:54:27	14:02:43	495009	5.0.10.0	4_exp_EVA_AMP_AWA_CON	170	Rpleas_acq	Same	Rpleas	Amasked	CS_A	1pleas	distractor2	EVAbeforeCON	acq_US_pleas_masked	acq3_masked	3	30	453	0	300	300	0	0	547	50	0	1	0	0	0	1	blank2r.bmp	0	1	+	0	8	C4r.bmp	492	1	blank2r.bmp	786	1	CPLW	786	1	blank2r.bmp	866	4	engagiert	866	1	!	1292	1	!	-1	0	0	0	0	0	0	0	0	0	0	0	0	0	0	0	0	0	0	0	0	0	0	0	0	0	0	0
032019	13:54:27	14:02:45	497222	5.0.10.0	4_exp_EVA_AMP_AWA_CON	170	Rpleas_acq	Same	Rpleas	Amasked	CS_A	1pleas	distractor2	EVAbeforeCON	acq_US_pleas_masked	acq3_masked	3	31	453	1	300	300	0	0	411	50	0	1	0	0	0	1	blank2r.bmp	0	1	+	0	7	C3r.bmp	492	1	blank2r.bmp	786	1	CPLW	786	1	blank2r.bmp	866	5	gesittet	866	1	!	1292	1	!	1306	0	0	0	0	0	0	0	0	0	0	0	0	0	0	0	0	0	0	0	0	0	0	0	0	0	0	0
032019	13:54:27	14:02:47	499447	5.0.10.0	4_exp_EVA_AMP_AWA_CON	170	Rpleas_acq	Same	Rpleas	Amasked	CS_A	1pleas	distractor2	EVAbeforeCON	acq_US_unple_masked	acq3_masked	3	32	453	1	300	300	0	0	433	46	0	1	0	0	0	1	blank2r.bmp	0	1	+	0	6	C2r.bmp	492	1	blank2r.bmp	786	1	DHJF	786	1	blank2r.bmp	866	2	krank	866	1	!	1292	1	!	1332	0	0	0	0	0	0	0	0	0	0	0	0	0	0	0	0	0	0	0	0	0	0	0	0	0	0	0
032019	13:54:27	14:02:49	501686	5.0.10.0	4_exp_EVA_AMP_AWA_CON	170	Rpleas_acq	Same	Rpleas	Amasked	CS_A	1pleas	distractor2	EVAbeforeCON	acq_US_unple_masked	acq3_masked	3	33	453	1	300	300	0	0	441	46	0	1	0	0	0	1	blank2r.bmp	0	1	+	0	1	B1r.bmp	492	1	blank2r.bmp	786	1	DHJF	786	1	blank2r.bmp	866	1	ausrottung	866	1	!	1292	1	!	1346	0	0	0	0	0	0	0	0	0	0	0	0	0	0	0	0	0	0	0	0	0	0	0	0	0	0	0
032019	13:54:27	14:02:51	503792	5.0.10.0	4_exp_EVA_AMP_AWA_CON	170	Rpleas_acq	Same	Rpleas	Amasked	CS_A	1pleas	distractor2	EVAbeforeCON	acq_US_pleas_masked	acq3_masked	3	34	453	0	300	300	0	0	319	50	0	1	0	0	0	1	blank2r.bmp	0	1	+	0	2	B2r.bmp	492	1	blank2r.bmp	786	1	CPLW	786	1	blank2r.bmp	866	6	sonnig	866	1	!	-1	1	!	-1	0	0	0	0	0	0	0	0	0	0	0	0	0	0	0	0	0	0	0	0	0	0	0	0	0	0	0
032019	13:54:27	14:02:54	506085	5.0.10.0	4_exp_EVA_AMP_AWA_CON	170	Rpleas_acq	Same	Rpleas	Amasked	CS_A	1pleas	distractor2	EVAbeforeCON	acq_US_pleas_masked	acq3_masked	3	35	453	1	300	300	0	0	467	50	0	1	0	0	0	1	blank2r.bmp	0	1	+	0	6	C2r.bmp	492	1	blank2r.bmp	786	1	CPLW	786	1	blank2r.bmp	866	2	kreativ	866	1	!	1292	1	!	1372	0	0	0	0	0	0	0	0	0	0	0	0	0	0	0	0	0	0	0	0	0	0	0	0	0	0	0
032019	13:54:27	14:02:56	508244	5.0.10.0	4_exp_EVA_AMP_AWA_CON	170	Rpleas_acq	Same	Rpleas	Amasked	CS_A	1pleas	distractor2	EVAbeforeCON	acq_US_unple_masked	acq3_masked	3	36	453	0	300	300	0	0	384	46	0	1	0	0	0	1	blank2r.bmp	0	1	+	0	7	C3r.bmp	492	1	blank2r.bmp	786	1	DHJF	786	1	blank2r.bmp	866	5	geizig	866	1	!	-1	1	!	-1	0	0	0	0	0	0	0	0	0	0	0	0	0	0	0	0	0	0	0	0	0	0	0	0	0	0	0
032019	13:54:27	14:03:16	528209	5.0.10.0	4_exp_EVA_AMP_AWA_CON	170	Rpleas_acq	Same	Rpleas	Amasked	CS_A	1pleas	distractor2	EVAbeforeCON	acq_US_pleas_masked	acq45_masked	4	1	400	0	300	300	0	0	1657	50	0	1	0	0	0	1	blank2r.bmp	0	1	+	0	4	B4r.bmp	492	1	blank2r.bmp	786	1	CPLW	786	1	blank2r.bmp	866	3	besonnen	866	1	!	1239	1	!	-1	0	0	0	0	0	0	0	0	0	0	0	0	0	0	0	0	0	0	0	0	0	0	0	0	0	0	0
032019	13:54:27	14:03:18	530475	5.0.10.0	4_exp_EVA_AMP_AWA_CON	170	Rpleas_acq	Same	Rpleas	Amasked	CS_A	1pleas	distractor2	EVAbeforeCON	acq_US_pleas_masked	acq45_masked	4	2	400	0	300	300	0	0	479	50	0	1	0	0	0	1	blank2r.bmp	0	1	+	0	5	C1r.bmp	492	1	blank2r.bmp	786	1	CPLW	786	1	blank2r.bmp	866	1	anregung	866	1	!	1239	1	!	-1	0	0	0	0	0	0	0	0	0	0	0	0	0	0	0	0	0	0	0	0	0	0	0	0	0	0	0
032019	13:54:27	14:03:20	532487	5.0.10.0	4_exp_EVA_AMP_AWA_CON	170	Rpleas_acq	Same	Rpleas	Amasked	CS_A	1pleas	distractor2	EVAbeforeCON	acq_US_unple_masked	acq45_masked	4	3	400	0	300	300	0	0	228	46	0	1	0	0	0	1	blank2r.bmp	0	1	+	0	3	B3r.bmp	492	1	blank2r.bmp	786	1	DHJF	786	1	blank2r.bmp	866	6	sterben	866	1	!	-1	1	!	-1	0	0	0	0	0	0	0	0	0	0	0	0	0	0	0	0	0	0	0	0	0	0	0	0	0	0	0
032019	13:54:27	14:03:22	534673	5.0.10.0	4_exp_EVA_AMP_AWA_CON	170	Rpleas_acq	Same	Rpleas	Amasked	CS_A	1pleas	distractor2	EVAbeforeCON	acq_US_pleas_masked	acq45_masked	4	4	400	1	300	300	0	0	377	50	0	1	0	0	0	1	blank2r.bmp	0	1	+	0	8	C4r.bmp	492	1	blank2r.bmp	786	1	CPLW	786	1	blank2r.bmp	866	2	kreativ	866	1	!	1239	1	!	1279	0	0	0	0	0	0	0	0	0	0	0	0	0	0	0	0	0	0	0	0	0	0	0	0	0	0	0
032019	13:54:27	14:03:24	536872	5.0.10.0	4_exp_EVA_AMP_AWA_CON	170	Rpleas_acq	Same	Rpleas	Amasked	CS_A	1pleas	distractor2	EVAbeforeCON	acq_US_unple_masked	acq45_masked	4	5	400	1	300	300	0	0	406	50	0	0	0	0	0	1	blank2r.bmp	0	1	+	0	5	C1r.bmp	492	1	blank2r.bmp	786	1	DHJF	786	1	blank2r.bmp	866	5	geizig	866	1	!	1239	1	!	1306	0	0	0	0	0	0	0	0	0	0	0	0	0	0	0	0	0	0	0	0	0	0	0	0	0	0	0
032019	13:54:27	14:03:27	538911	5.0.10.0	4_exp_EVA_AMP_AWA_CON	170	Rpleas_acq	Same	Rpleas	Amasked	CS_A	1pleas	distractor2	EVAbeforeCON	acq_US_pleas_masked	acq45_masked	4	6	400	0	300	300	0	0	265	50	0	1	0	0	0	1	blank2r.bmp	0	1	+	0	1	B1r.bmp	492	1	blank2r.bmp	786	1	CPLW	786	1	blank2r.bmp	866	4	engagiert	866	1	!	-1	1	!	-1	0	0	0	0	0	0	0	0	0	0	0	0	0	0	0	0	0	0	0	0	0	0	0	0	0	0	0
032019	13:54:27	14:03:29	540950	5.0.10.0	4_exp_EVA_AMP_AWA_CON	170	Rpleas_acq	Same	Rpleas	Amasked	CS_A	1pleas	distractor2	EVAbeforeCON	acq_US_unple_masked	acq45_masked	4	7	400	0	300	300	0	0	260	46	0	1	0	0	0	1	blank2r.bmp	0	1	+	0	6	C2r.bmp	492	1	blank2r.bmp	786	1	DHJF	786	1	blank2r.bmp	866	2	krank	866	1	!	-1	1	!	-1	0	0	0	0	0	0	0	0	0	0	0	0	0	0	0	0	0	0	0	0	0	0	0	0	0	0	0
032019	13:54:27	14:03:31	543363	5.0.10.0	4_exp_EVA_AMP_AWA_CON	170	Rpleas_acq	Same	Rpleas	Amasked	CS_A	1pleas	distractor2	EVAbeforeCON	acq_US_pleas_masked	acq45_masked	4	8	400	0	300	300	0	0	634	50	0	1	0	0	0	1	blank2r.bmp	0	1	+	0	4	B4r.bmp	492	1	blank2r.bmp	786	1	CPLW	786	1	blank2r.bmp	866	5	gesittet	866	1	!	1239	1	!	-1	0	0	0	0	0	0	0	0	0	0	0	0	0	0	0	0	0	0	0	0	0	0	0	0	0	0	0
032019	13:54:27	14:03:33	545722	5.0.10.0	4_exp_EVA_AMP_AWA_CON	170	Rpleas_acq	Same	Rpleas	Amasked	CS_A	1pleas	distractor2	EVAbeforeCON	acq_US_pleas_masked	acq45_masked	4	9	400	0	300	300	0	0	575	50	0	1	0	0	0	1	blank2r.bmp	0	1	+	0	3	B3r.bmp	492	1	blank2r.bmp	786	1	CPLW	786	1	blank2r.bmp	866	6	sonnig	866	1	!	1239	1	!	-1	0	0	0	0	0	0	0	0	0	0	0	0	0	0	0	0	0	0	0	0	0	0	0	0	0	0	0
032019	13:54:27	14:03:36	548001	5.0.10.0	4_exp_EVA_AMP_AWA_CON	170	Rpleas_acq	Same	Rpleas	Amasked	CS_A	1pleas	distractor2	EVAbeforeCON	acq_US_unple_masked	acq45_masked	4	10	400	0	300	300	0	0	493	46	0	1	0	0	0	1	blank2r.bmp	0	1	+	0	2	B2r.bmp	492	1	blank2r.bmp	786	1	DHJF	786	1	blank2r.bmp	866	1	ausrottung	866	1	!	1239	1	!	-1	0	0	0	0	0	0	0	0	0	0	0	0	0	0	0	0	0	0	0	0	0	0	0	0	0	0	0
032019	13:54:27	14:03:38	550240	5.0.10.0	4_exp_EVA_AMP_AWA_CON	170	Rpleas_acq	Same	Rpleas	Amasked	CS_A	1pleas	distractor2	EVAbeforeCON	acq_US_unple_masked	acq45_masked	4	11	400	1	300	300	0	0	435	46	0	1	0	0	0	1	blank2r.bmp	0	1	+	0	8	C4r.bmp	492	1	blank2r.bmp	786	1	DHJF	786	1	blank2r.bmp	866	3	bange	866	1	!	1239	1	!	1332	0	0	0	0	0	0	0	0	0	0	0	0	0	0	0	0	0	0	0	0	0	0	0	0	0	0	0
032019	13:54:27	14:03:40	552506	5.0.10.0	4_exp_EVA_AMP_AWA_CON	170	Rpleas_acq	Same	Rpleas	Amasked	CS_A	1pleas	distractor2	EVAbeforeCON	acq_US_unple_masked	acq45_masked	4	12	400	0	300	300	0	0	501	46	0	1	0	0	0	1	blank2r.bmp	0	1	+	0	7	C3r.bmp	492	1	blank2r.bmp	786	1	DHJF	786	1	blank2r.bmp	866	4	engstirnig	866	1	!	1239	1	!	-1	0	0	0	0	0	0	0	0	0	0	0	0	0	0	0	0	0	0	0	0	0	0	0	0	0	0	0
032019	13:54:27	14:03:42	554745	5.0.10.0	4_exp_EVA_AMP_AWA_CON	170	Rpleas_acq	Same	Rpleas	Amasked	CS_A	1pleas	distractor2	EVAbeforeCON	acq_US_pleas_masked	acq45_masked	4	13	400	1	300	300	0	0	428	46	0	0	0	0	0	1	blank2r.bmp	0	1	+	0	2	B2r.bmp	492	1	blank2r.bmp	786	1	CPLW	786	1	blank2r.bmp	866	4	engagiert	866	1	!	1239	1	!	1332	0	0	0	0	0	0	0	0	0	0	0	0	0	0	0	0	0	0	0	0	0	0	0	0	0	0	0
032019	13:54:27	14:03:45	556957	5.0.10.0	4_exp_EVA_AMP_AWA_CON	170	Rpleas_acq	Same	Rpleas	Amasked	CS_A	1pleas	distractor2	EVAbeforeCON	acq_US_unple_masked	acq45_masked	4	14	400	1	300	300	0	0	415	46	0	1	0	0	0	1	blank2r.bmp	0	1	+	0	3	B3r.bmp	492	1	blank2r.bmp	786	1	DHJF	786	1	blank2r.bmp	866	2	krank	866	1	!	1239	1	!	1319	0	0	0	0	0	0	0	0	0	0	0	0	0	0	0	0	0	0	0	0	0	0	0	0	0	0	0
032019	13:54:27	14:03:47	559130	5.0.10.0	4_exp_EVA_AMP_AWA_CON	170	Rpleas_acq	Same	Rpleas	Amasked	CS_A	1pleas	distractor2	EVAbeforeCON	acq_US_pleas_masked	acq45_masked	4	15	400	1	300	300	0	0	383	46	0	0	0	0	0	1	blank2r.bmp	0	1	+	0	1	B1r.bmp	492	1	blank2r.bmp	786	1	CPLW	786	1	blank2r.bmp	866	2	kreativ	866	1	!	1239	1	!	1279	0	0	0	0	0	0	0	0	0	0	0	0	0	0	0	0	0	0	0	0	0	0	0	0	0	0	0
032019	13:54:27	14:03:49	561409	5.0.10.0	4_exp_EVA_AMP_AWA_CON	170	Rpleas_acq	Same	Rpleas	Amasked	CS_A	1pleas	distractor2	EVAbeforeCON	acq_US_unple_masked	acq45_masked	4	16	400	0	300	300	0	0	510	46	0	1	0	0	0	1	blank2r.bmp	0	1	+	0	5	C1r.bmp	492	1	blank2r.bmp	786	1	DHJF	786	1	blank2r.bmp	866	4	engstirnig	866	1	!	1239	1	!	-1	0	0	0	0	0	0	0	0	0	0	0	0	0	0	0	0	0	0	0	0	0	0	0	0	0	0	0
032019	13:54:27	14:03:51	563674	5.0.10.0	4_exp_EVA_AMP_AWA_CON	170	Rpleas_acq	Same	Rpleas	Amasked	CS_A	1pleas	distractor2	EVAbeforeCON	acq_US_unple_masked	acq45_masked	4	17	400	0	300	300	0	0	479	46	0	1	0	0	0	1	blank2r.bmp	0	1	+	0	7	C3r.bmp	492	1	blank2r.bmp	786	1	DHJF	786	1	blank2r.bmp	866	1	ausrottung	866	1	!	1239	1	!	-1	0	0	0	0	0	0	0	0	0	0	0	0	0	0	0	0	0	0	0	0	0	0	0	0	0	0	0
032019	13:54:27	14:03:53	565674	5.0.10.0	4_exp_EVA_AMP_AWA_CON	170	Rpleas_acq	Same	Rpleas	Amasked	CS_A	1pleas	distractor2	EVAbeforeCON	acq_US_pleas_masked	acq45_masked	4	18	400	0	300	300	0	0	224	50	0	1	0	0	0	1	blank2r.bmp	0	1	+	0	6	C2r.bmp	492	1	blank2r.bmp	786	1	CPLW	786	1	blank2r.bmp	866	1	anregung	866	1	!	-1	1	!	-1	0	0	0	0	0	0	0	0	0	0	0	0	0	0	0	0	0	0	0	0	0	0	0	0	0	0	0
032019	13:54:27	14:03:55	567766	5.0.10.0	4_exp_EVA_AMP_AWA_CON	170	Rpleas_acq	Same	Rpleas	Amasked	CS_A	1pleas	distractor2	EVAbeforeCON	acq_US_unple_masked	acq45_masked	4	19	400	0	300	300	0	0	317	50	0	0	0	0	0	1	blank2r.bmp	0	1	+	0	8	C4r.bmp	492	1	blank2r.bmp	786	1	DHJF	786	1	blank2r.bmp	866	5	geizig	866	1	!	-1	1	!	-1	0	0	0	0	0	0	0	0	0	0	0	0	0	0	0	0	0	0	0	0	0	0	0	0	0	0	0
032019	13:54:27	14:03:58	570058	5.0.10.0	4_exp_EVA_AMP_AWA_CON	170	Rpleas_acq	Same	Rpleas	Amasked	CS_A	1pleas	distractor2	EVAbeforeCON	acq_US_unple_masked	acq45_masked	4	20	400	0	300	300	0	0	509	46	0	1	0	0	0	1	blank2r.bmp	0	1	+	0	4	B4r.bmp	492	1	blank2r.bmp	786	1	DHJF	786	1	blank2r.bmp	866	6	sterben	866	1	!	1239	1	!	-1	0	0	0	0	0	0	0	0	0	0	0	0	0	0	0	0	0	0	0	0	0	0	0	0	0	0	0
032019	13:54:27	14:04:00	572284	5.0.10.0	4_exp_EVA_AMP_AWA_CON	170	Rpleas_acq	Same	Rpleas	Amasked	CS_A	1pleas	distractor2	EVAbeforeCON	acq_US_pleas_masked	acq45_masked	4	21	400	1	300	300	0	0	422	50	0	1	0	0	0	1	blank2r.bmp	0	1	+	0	8	C4r.bmp	492	1	blank2r.bmp	786	1	CPLW	786	1	blank2r.bmp	866	5	gesittet	866	1	!	1239	1	!	1319	0	0	0	0	0	0	0	0	0	0	0	0	0	0	0	0	0	0	0	0	0	0	0	0	0	0	0
032019	13:54:27	14:04:02	574510	5.0.10.0	4_exp_EVA_AMP_AWA_CON	170	Rpleas_acq	Same	Rpleas	Amasked	CS_A	1pleas	distractor2	EVAbeforeCON	acq_US_pleas_masked	acq45_masked	4	22	400	1	300	300	0	0	426	50	0	1	0	0	0	1	blank2r.bmp	0	1	+	0	4	B4r.bmp	492	1	blank2r.bmp	786	1	CPLW	786	1	blank2r.bmp	866	6	sonnig	866	1	!	1239	1	!	1332	0	0	0	0	0	0	0	0	0	0	0	0	0	0	0	0	0	0	0	0	0	0	0	0	0	0	0
032019	13:54:27	14:04:04	576536	5.0.10.0	4_exp_EVA_AMP_AWA_CON	170	Rpleas_acq	Same	Rpleas	Amasked	CS_A	1pleas	distractor2	EVAbeforeCON	acq_US_unple_masked	acq45_masked	4	23	400	0	300	300	0	0	252	46	0	1	0	0	0	1	blank2r.bmp	0	1	+	0	6	C2r.bmp	492	1	blank2r.bmp	786	1	DHJF	786	1	blank2r.bmp	866	3	bange	866	1	!	-1	1	!	-1	0	0	0	0	0	0	0	0	0	0	0	0	0	0	0	0	0	0	0	0	0	0	0	0	0	0	0
032019	13:54:27	14:04:06	578801	5.0.10.0	4_exp_EVA_AMP_AWA_CON	170	Rpleas_acq	Same	Rpleas	Amasked	CS_A	1pleas	distractor2	EVAbeforeCON	acq_US_pleas_masked	acq45_masked	4	24	400	1	300	300	0	0	443	50	0	1	0	0	0	1	blank2r.bmp	0	1	+	0	5	C1r.bmp	492	1	blank2r.bmp	786	1	CPLW	786	1	blank2r.bmp	866	3	besonnen	866	1	!	1239	1	!	1346	0	0	0	0	0	0	0	0	0	0	0	0	0	0	0	0	0	0	0	0	0	0	0	0	0	0	0
032019	13:54:27	14:04:08	580867	5.0.10.0	4_exp_EVA_AMP_AWA_CON	170	Rpleas_acq	Same	Rpleas	Amasked	CS_A	1pleas	distractor2	EVAbeforeCON	acq_US_pleas_masked	acq45_masked	4	25	400	0	300	300	0	0	292	50	0	1	0	0	0	1	blank2r.bmp	0	1	+	0	2	B2r.bmp	492	1	blank2r.bmp	786	1	CPLW	786	1	blank2r.bmp	866	4	engagiert	866	1	!	-1	1	!	-1	0	0	0	0	0	0	0	0	0	0	0	0	0	0	0	0	0	0	0	0	0	0	0	0	0	0	0
032019	13:54:27	14:04:11	583186	5.0.10.0	4_exp_EVA_AMP_AWA_CON	170	Rpleas_acq	Same	Rpleas	Amasked	CS_A	1pleas	distractor2	EVAbeforeCON	acq_US_unple_masked	acq45_masked	4	26	400	0	300	300	0	0	542	46	0	1	0	0	0	1	blank2r.bmp	0	1	+	0	3	B3r.bmp	492	1	blank2r.bmp	786	1	DHJF	786	1	blank2r.bmp	866	4	engstirnig	866	1	!	1239	1	!	-1	0	0	0	0	0	0	0	0	0	0	0	0	0	0	0	0	0	0	0	0	0	0	0	0	0	0	0
032019	13:54:27	14:04:13	585265	5.0.10.0	4_exp_EVA_AMP_AWA_CON	170	Rpleas_acq	Same	Rpleas	Amasked	CS_A	1pleas	distractor2	EVAbeforeCON	acq_US_pleas_masked	acq45_masked	4	27	400	0	300	300	0	0	304	50	0	1	0	0	0	1	blank2r.bmp	0	1	+	0	7	C3r.bmp	492	1	blank2r.bmp	786	1	CPLW	786	1	blank2r.bmp	866	2	kreativ	866	1	!	-1	1	!	-1	0	0	0	0	0	0	0	0	0	0	0	0	0	0	0	0	0	0	0	0	0	0	0	0	0	0	0
032019	13:54:27	14:04:15	587451	5.0.10.0	4_exp_EVA_AMP_AWA_CON	170	Rpleas_acq	Same	Rpleas	Amasked	CS_A	1pleas	distractor2	EVAbeforeCON	acq_US_pleas_masked	acq45_masked	4	28	400	1	300	300	0	0	378	50	0	1	0	0	0	1	blank2r.bmp	0	1	+	0	1	B1r.bmp	492	1	blank2r.bmp	786	1	CPLW	786	1	blank2r.bmp	866	3	besonnen	866	1	!	1239	1	!	1279	0	0	0	0	0	0	0	0	0	0	0	0	0	0	0	0	0	0	0	0	0	0	0	0	0	0	0
032019	13:54:27	14:04:17	589717	5.0.10.0	4_exp_EVA_AMP_AWA_CON	170	Rpleas_acq	Same	Rpleas	Amasked	CS_A	1pleas	distractor2	EVAbeforeCON	acq_US_unple_masked	acq45_masked	4	29	400	0	300	300	0	0	494	46	0	1	0	0	0	1	blank2r.bmp	0	1	+	0	6	C2r.bmp	492	1	blank2r.bmp	786	1	DHJF	786	1	blank2r.bmp	866	2	krank	866	1	!	1239	1	!	-1	0	0	0	0	0	0	0	0	0	0	0	0	0	0	0	0	0	0	0	0	0	0	0	0	0	0	0
032019	13:54:27	14:04:20	591969	5.0.10.0	4_exp_EVA_AMP_AWA_CON	170	Rpleas_acq	Same	Rpleas	Amasked	CS_A	1pleas	distractor2	EVAbeforeCON	acq_US_unple_masked	acq45_masked	4	30	400	1	300	300	0	0	437	46	0	1	0	0	0	1	blank2r.bmp	0	1	+	0	8	C4r.bmp	492	1	blank2r.bmp	786	1	DHJF	786	1	blank2r.bmp	866	3	bange	866	1	!	1239	1	!	1332	0	0	0	0	0	0	0	0	0	0	0	0	0	0	0	0	0	0	0	0	0	0	0	0	0	0	0
032019	13:54:27	14:04:22	594155	5.0.10.0	4_exp_EVA_AMP_AWA_CON	170	Rpleas_acq	Same	Rpleas	Amasked	CS_A	1pleas	distractor2	EVAbeforeCON	acq_US_unple_masked	acq45_masked	4	31	400	1	300	300	0	0	387	50	0	0	0	0	0	1	blank2r.bmp	0	1	+	0	4	B4r.bmp	492	1	blank2r.bmp	786	1	DHJF	786	1	blank2r.bmp	866	6	sterben	866	1	!	1239	1	!	1292	0	0	0	0	0	0	0	0	0	0	0	0	0	0	0	0	0	0	0	0	0	0	0	0	0	0	0
032019	13:54:27	14:04:24	596354	5.0.10.0	4_exp_EVA_AMP_AWA_CON	170	Rpleas_acq	Same	Rpleas	Amasked	CS_A	1pleas	distractor2	EVAbeforeCON	acq_US_pleas_masked	acq45_masked	4	32	400	1	300	300	0	0	408	50	0	1	0	0	0	1	blank2r.bmp	0	1	+	0	5	C1r.bmp	492	1	blank2r.bmp	786	1	CPLW	786	1	blank2r.bmp	866	5	gesittet	866	1	!	1239	1	!	1306	0	0	0	0	0	0	0	0	0	0	0	0	0	0	0	0	0	0	0	0	0	0	0	0	0	0	0
032019	13:54:27	14:04:26	598527	5.0.10.0	4_exp_EVA_AMP_AWA_CON	170	Rpleas_acq	Same	Rpleas	Amasked	CS_A	1pleas	distractor2	EVAbeforeCON	acq_US_unple_masked	acq45_masked	4	33	400	1	300	300	0	0	380	46	0	1	0	0	0	1	blank2r.bmp	0	1	+	0	1	B1r.bmp	492	1	blank2r.bmp	786	1	DHJF	786	1	blank2r.bmp	866	5	geizig	866	1	!	1239	1	!	1279	0	0	0	0	0	0	0	0	0	0	0	0	0	0	0	0	0	0	0	0	0	0	0	0	0	0	0
032019	13:54:27	14:04:28	600726	5.0.10.0	4_exp_EVA_AMP_AWA_CON	170	Rpleas_acq	Same	Rpleas	Amasked	CS_A	1pleas	distractor2	EVAbeforeCON	acq_US_pleas_masked	acq45_masked	4	34	400	1	300	300	0	0	409	46	0	0	0	0	0	1	blank2r.bmp	0	1	+	0	3	B3r.bmp	492	1	blank2r.bmp	786	1	CPLW	786	1	blank2r.bmp	866	6	sonnig	866	1	!	1239	1	!	1306	0	0	0	0	0	0	0	0	0	0	0	0	0	0	0	0	0	0	0	0	0	0	0	0	0	0	0
032019	13:54:27	14:04:30	602885	5.0.10.0	4_exp_EVA_AMP_AWA_CON	170	Rpleas_acq	Same	Rpleas	Amasked	CS_A	1pleas	distractor2	EVAbeforeCON	acq_US_unple_masked	acq45_masked	4	35	400	1	300	300	0	0	367	46	0	1	0	0	0	1	blank2r.bmp	0	1	+	0	2	B2r.bmp	492	1	blank2r.bmp	786	1	DHJF	786	1	blank2r.bmp	866	1	ausrottung	866	1	!	1239	1	!	1266	0	0	0	0	0	0	0	0	0	0	0	0	0	0	0	0	0	0	0	0	0	0	0	0	0	0	0
032019	13:54:27	14:04:33	604977	5.0.10.0	4_exp_EVA_AMP_AWA_CON	170	Rpleas_acq	Same	Rpleas	Amasked	CS_A	1pleas	distractor2	EVAbeforeCON	acq_US_pleas_masked	acq45_masked	4	36	400	0	300	300	0	0	322	50	0	1	0	0	0	1	blank2r.bmp	0	1	+	0	7	C3r.bmp	492	1	blank2r.bmp	786	1	CPLW	786	1	blank2r.bmp	866	1	anregung	866	1	!	-1	1	!	-1	0	0	0	0	0	0	0	0	0	0	0	0	0	0	0	0	0	0	0	0	0	0	0	0	0	0	0
032019	13:54:27	14:04:48	620478	5.0.10.0	4_exp_EVA_AMP_AWA_CON	170	Rpleas_acq	Same	Rpleas	Amasked	CS_A	1pleas	distractor2	EVAbeforeCON	acq_US_unple_masked	acq45_masked	5	1	400	1	300	300	0	0	418	46	0	1	0	0	0	1	blank2r.bmp	0	1	+	0	5	C1r.bmp	492	1	blank2r.bmp	786	1	DHJF	786	1	blank2r.bmp	866	6	sterben	866	1	!	1239	1	!	1319	0	0	0	0	0	0	0	0	0	0	0	0	0	0	0	0	0	0	0	0	0	0	0	0	0	0	0
032019	13:54:27	14:04:50	622677	5.0.10.0	4_exp_EVA_AMP_AWA_CON	170	Rpleas_acq	Same	Rpleas	Amasked	CS_A	1pleas	distractor2	EVAbeforeCON	acq_US_pleas_masked	acq45_masked	5	2	400	1	300	300	0	0	393	50	0	1	0	0	0	1	blank2r.bmp	0	1	+	0	6	C2r.bmp	492	1	blank2r.bmp	786	1	CPLW	786	1	blank2r.bmp	866	1	anregung	866	1	!	1239	1	!	1292	0	0	0	0	0	0	0	0	0	0	0	0	0	0	0	0	0	0	0	0	0	0	0	0	0	0	0
032019	13:54:27	14:04:53	624916	5.0.10.0	4_exp_EVA_AMP_AWA_CON	170	Rpleas_acq	Same	Rpleas	Amasked	CS_A	1pleas	distractor2	EVAbeforeCON	acq_US_pleas_masked	acq45_masked	5	3	400	1	300	300	0	0	443	50	0	1	0	0	0	1	blank2r.bmp	0	1	+	0	7	C3r.bmp	492	1	blank2r.bmp	786	1	CPLW	786	1	blank2r.bmp	866	3	besonnen	866	1	!	1239	1	!	1346	0	0	0	0	0	0	0	0	0	0	0	0	0	0	0	0	0	0	0	0	0	0	0	0	0	0	0
032019	13:54:27	14:04:55	627168	5.0.10.0	4_exp_EVA_AMP_AWA_CON	170	Rpleas_acq	Same	Rpleas	Amasked	CS_A	1pleas	distractor2	EVAbeforeCON	acq_US_pleas_masked	acq45_masked	5	4	400	1	300	300	0	0	459	50	0	1	0	0	0	1	blank2r.bmp	0	1	+	0	1	B1r.bmp	492	1	blank2r.bmp	786	1	CPLW	786	1	blank2r.bmp	866	2	kreativ	866	1	!	1239	1	!	1359	0	0	0	0	0	0	0	0	0	0	0	0	0	0	0	0	0	0	0	0	0	0	0	0	0	0	0
032019	13:54:27	14:04:57	629394	5.0.10.0	4_exp_EVA_AMP_AWA_CON	170	Rpleas_acq	Same	Rpleas	Amasked	CS_A	1pleas	distractor2	EVAbeforeCON	acq_US_pleas_masked	acq45_masked	5	5	400	1	300	300	0	0	429	50	0	1	0	0	0	1	blank2r.bmp	0	1	+	0	4	B4r.bmp	492	1	blank2r.bmp	786	1	CPLW	786	1	blank2r.bmp	866	5	gesittet	866	1	!	1239	1	!	1332	0	0	0	0	0	0	0	0	0	0	0	0	0	0	0	0	0	0	0	0	0	0	0	0	0	0	0
032019	13:54:27	14:04:59	631580	5.0.10.0	4_exp_EVA_AMP_AWA_CON	170	Rpleas_acq	Same	Rpleas	Amasked	CS_A	1pleas	distractor2	EVAbeforeCON	acq_US_pleas_masked	acq45_masked	5	6	400	1	300	300	0	0	395	46	0	0	0	0	0	1	blank2r.bmp	0	1	+	0	3	B3r.bmp	492	1	blank2r.bmp	786	1	CPLW	786	1	blank2r.bmp	866	4	engagiert	866	1	!	1239	1	!	1292	0	0	0	0	0	0	0	0	0	0	0	0	0	0	0	0	0	0	0	0	0	0	0	0	0	0	0
032019	13:54:27	14:05:01	633832	5.0.10.0	4_exp_EVA_AMP_AWA_CON	170	Rpleas_acq	Same	Rpleas	Amasked	CS_A	1pleas	distractor2	EVAbeforeCON	acq_US_pleas_masked	acq45_masked	5	7	400	0	300	300	0	0	483	50	0	1	0	0	0	1	blank2r.bmp	0	1	+	0	8	C4r.bmp	492	1	blank2r.bmp	786	1	CPLW	786	1	blank2r.bmp	866	6	sonnig	866	1	!	1239	1	!	-1	0	0	0	0	0	0	0	0	0	0	0	0	0	0	0	0	0	0	0	0	0	0	0	0	0	0	0
032019	13:54:27	14:05:04	636098	5.0.10.0	4_exp_EVA_AMP_AWA_CON	170	Rpleas_acq	Same	Rpleas	Amasked	CS_A	1pleas	distractor2	EVAbeforeCON	acq_US_unple_masked	acq45_masked	5	8	400	1	300	300	0	0	457	46	0	1	0	0	0	1	blank2r.bmp	0	1	+	0	2	B2r.bmp	492	1	blank2r.bmp	786	1	DHJF	786	1	blank2r.bmp	866	5	geizig	866	1	!	1239	1	!	1359	0	0	0	0	0	0	0	0	0	0	0	0	0	0	0	0	0	0	0	0	0	0	0	0	0	0	0
032019	13:54:27	14:05:06	638377	5.0.10.0	4_exp_EVA_AMP_AWA_CON	170	Rpleas_acq	Same	Rpleas	Amasked	CS_A	1pleas	distractor2	EVAbeforeCON	acq_US_unple_masked	acq45_masked	5	9	400	0	300	300	0	0	512	46	0	1	0	0	0	1	blank2r.bmp	0	1	+	0	3	B3r.bmp	492	1	blank2r.bmp	786	1	DHJF	786	1	blank2r.bmp	866	2	krank	866	1	!	1239	1	!	-1	0	0	0	0	0	0	0	0	0	0	0	0	0	0	0	0	0	0	0	0	0	0	0	0	0	0	0
032019	13:54:27	14:05:08	640616	5.0.10.0	4_exp_EVA_AMP_AWA_CON	170	Rpleas_acq	Same	Rpleas	Amasked	CS_A	1pleas	distractor2	EVAbeforeCON	acq_US_unple_masked	acq45_masked	5	10	400	1	300	300	0	0	438	50	0	0	0	0	0	1	blank2r.bmp	0	1	+	0	8	C4r.bmp	492	1	blank2r.bmp	786	1	DHJF	786	1	blank2r.bmp	866	1	ausrottung	866	1	!	1239	1	!	1332	0	0	0	0	0	0	0	0	0	0	0	0	0	0	0	0	0	0	0	0	0	0	0	0	0	0	0
032019	13:54:27	14:05:10	642828	5.0.10.0	4_exp_EVA_AMP_AWA_CON	170	Rpleas_acq	Same	Rpleas	Amasked	CS_A	1pleas	distractor2	EVAbeforeCON	acq_US_unple_masked	acq45_masked	5	11	400	1	300	300	0	0	410	46	0	1	0	0	0	1	blank2r.bmp	0	1	+	0	7	C3r.bmp	492	1	blank2r.bmp	786	1	DHJF	786	1	blank2r.bmp	866	4	engstirnig	866	1	!	1239	1	!	1306	0	0	0	0	0	0	0	0	0	0	0	0	0	0	0	0	0	0	0	0	0	0	0	0	0	0	0
032019	13:54:27	14:05:13	645028	5.0.10.0	4_exp_EVA_AMP_AWA_CON	170	Rpleas_acq	Same	Rpleas	Amasked	CS_A	1pleas	distractor2	EVAbeforeCON	acq_US_pleas_masked	acq45_masked	5	12	400	1	300	300	0	0	409	50	0	1	0	0	0	1	blank2r.bmp	0	1	+	0	1	B1r.bmp	492	1	blank2r.bmp	786	1	CPLW	786	1	blank2r.bmp	866	3	besonnen	866	1	!	1239	1	!	1306	0	0	0	0	0	0	0	0	0	0	0	0	0	0	0	0	0	0	0	0	0	0	0	0	0	0	0
032019	13:54:27	14:05:15	647280	5.0.10.0	4_exp_EVA_AMP_AWA_CON	170	Rpleas_acq	Same	Rpleas	Amasked	CS_A	1pleas	distractor2	EVAbeforeCON	acq_US_unple_masked	acq45_masked	5	13	400	1	300	300	0	0	458	46	0	1	0	0	0	1	blank2r.bmp	0	1	+	0	5	C1r.bmp	492	1	blank2r.bmp	786	1	DHJF	786	1	blank2r.bmp	866	3	bange	866	1	!	1239	1	!	1359	0	0	0	0	0	0	0	0	0	0	0	0	0	0	0	0	0	0	0	0	0	0	0	0	0	0	0
032019	13:54:27	14:05:17	649519	5.0.10.0	4_exp_EVA_AMP_AWA_CON	170	Rpleas_acq	Same	Rpleas	Amasked	CS_A	1pleas	distractor2	EVAbeforeCON	acq_US_unple_masked	acq45_masked	5	14	400	1	300	300	0	0	433	46	0	1	0	0	0	1	blank2r.bmp	0	1	+	0	2	B2r.bmp	492	1	blank2r.bmp	786	1	DHJF	786	1	blank2r.bmp	866	5	geizig	866	1	!	1239	1	!	1332	0	0	0	0	0	0	0	0	0	0	0	0	0	0	0	0	0	0	0	0	0	0	0	0	0	0	0
032019	13:54:27	14:05:19	651771	5.0.10.0	4_exp_EVA_AMP_AWA_CON	170	Rpleas_acq	Same	Rpleas	Amasked	CS_A	1pleas	distractor2	EVAbeforeCON	acq_US_pleas_masked	acq45_masked	5	15	400	1	300	300	0	0	457	46	0	0	0	0	0	1	blank2r.bmp	0	1	+	0	4	B4r.bmp	492	1	blank2r.bmp	786	1	CPLW	786	1	blank2r.bmp	866	5	gesittet	866	1	!	1239	1	!	1359	0	0	0	0	0	0	0	0	0	0	0	0	0	0	0	0	0	0	0	0	0	0	0	0	0	0	0
032019	13:54:27	14:05:22	654037	5.0.10.0	4_exp_EVA_AMP_AWA_CON	170	Rpleas_acq	Same	Rpleas	Amasked	CS_A	1pleas	distractor2	EVAbeforeCON	acq_US_unple_masked	acq45_masked	5	16	400	1	300	300	0	0	459	46	0	1	0	0	0	1	blank2r.bmp	0	1	+	0	6	C2r.bmp	492	1	blank2r.bmp	786	1	DHJF	786	1	blank2r.bmp	866	1	ausrottung	866	1	!	1239	1	!	1359	0	0	0	0	0	0	0	0	0	0	0	0	0	0	0	0	0	0	0	0	0	0	0	0	0	0	0
032019	13:54:27	14:05:24	656290	5.0.10.0	4_exp_EVA_AMP_AWA_CON	170	Rpleas_acq	Same	Rpleas	Amasked	CS_A	1pleas	distractor2	EVAbeforeCON	acq_US_unple_masked	acq45_masked	5	17	400	0	300	300	0	0	483	46	0	1	0	0	0	1	blank2r.bmp	0	1	+	0	7	C3r.bmp	492	1	blank2r.bmp	786	1	DHJF	786	1	blank2r.bmp	866	2	krank	866	1	!	1239	1	!	-1	0	0	0	0	0	0	0	0	0	0	0	0	0	0	0	0	0	0	0	0	0	0	0	0	0	0	0
032019	13:54:27	14:05:26	658462	5.0.10.0	4_exp_EVA_AMP_AWA_CON	170	Rpleas_acq	Same	Rpleas	Amasked	CS_A	1pleas	distractor2	EVAbeforeCON	acq_US_pleas_masked	acq45_masked	5	18	400	1	300	300	0	0	365	46	0	0	0	0	0	1	blank2r.bmp	0	1	+	0	2	B2r.bmp	492	1	blank2r.bmp	786	1	CPLW	786	1	blank2r.bmp	866	2	kreativ	866	1	!	1239	1	!	1266	0	0	0	0	0	0	0	0	0	0	0	0	0	0	0	0	0	0	0	0	0	0	0	0	0	0	0
032019	13:54:27	14:05:28	660728	5.0.10.0	4_exp_EVA_AMP_AWA_CON	170	Rpleas_acq	Same	Rpleas	Amasked	CS_A	1pleas	distractor2	EVAbeforeCON	acq_US_pleas_masked	acq45_masked	5	19	400	0	300	300	0	0	501	50	0	1	0	0	0	1	blank2r.bmp	0	1	+	0	3	B3r.bmp	492	1	blank2r.bmp	786	1	CPLW	786	1	blank2r.bmp	866	1	anregung	866	1	!	1239	1	!	-1	0	0	0	0	0	0	0	0	0	0	0	0	0	0	0	0	0	0	0	0	0	0	0	0	0	0	0
032019	13:54:27	14:05:31	662940	5.0.10.0	4_exp_EVA_AMP_AWA_CON	170	Rpleas_acq	Same	Rpleas	Amasked	CS_A	1pleas	distractor2	EVAbeforeCON	acq_US_pleas_masked	acq45_masked	5	20	400	1	300	300	0	0	399	50	0	1	0	0	0	1	blank2r.bmp	0	1	+	0	8	C4r.bmp	492	1	blank2r.bmp	786	1	CPLW	786	1	blank2r.bmp	866	6	sonnig	866	1	!	1239	1	!	1292	0	0	0	0	0	0	0	0	0	0	0	0	0	0	0	0	0	0	0	0	0	0	0	0	0	0	0
032019	13:54:27	14:05:33	665206	5.0.10.0	4_exp_EVA_AMP_AWA_CON	170	Rpleas_acq	Same	Rpleas	Amasked	CS_A	1pleas	distractor2	EVAbeforeCON	acq_US_unple_masked	acq45_masked	5	21	400	0	300	300	0	0	490	46	0	1	0	0	0	1	blank2r.bmp	0	1	+	0	6	C2r.bmp	492	1	blank2r.bmp	786	1	DHJF	786	1	blank2r.bmp	866	3	bange	866	1	!	1239	1	!	-1	0	0	0	0	0	0	0	0	0	0	0	0	0	0	0	0	0	0	0	0	0	0	0	0	0	0	0
032019	13:54:27	14:05:35	667485	5.0.10.0	4_exp_EVA_AMP_AWA_CON	170	Rpleas_acq	Same	Rpleas	Amasked	CS_A	1pleas	distractor2	EVAbeforeCON	acq_US_pleas_masked	acq45_masked	5	22	400	1	300	300	0	0	460	50	0	1	0	0	0	1	blank2r.bmp	0	1	+	0	1	B1r.bmp	492	1	blank2r.bmp	786	1	CPLW	786	1	blank2r.bmp	866	4	engagiert	866	1	!	1239	1	!	1359	0	0	0	0	0	0	0	0	0	0	0	0	0	0	0	0	0	0	0	0	0	0	0	0	0	0	0
032019	13:54:27	14:05:37	669644	5.0.10.0	4_exp_EVA_AMP_AWA_CON	170	Rpleas_acq	Same	Rpleas	Amasked	CS_A	1pleas	distractor2	EVAbeforeCON	acq_US_pleas_masked	acq45_masked	5	23	400	1	300	300	0	0	369	46	0	0	0	0	0	1	blank2r.bmp	0	1	+	0	5	C1r.bmp	492	1	blank2r.bmp	786	1	CPLW	786	1	blank2r.bmp	866	5	gesittet	866	1	!	1239	1	!	1266	0	0	0	0	0	0	0	0	0	0	0	0	0	0	0	0	0	0	0	0	0	0	0	0	0	0	0
032019	13:54:27	14:05:39	671790	5.0.10.0	4_exp_EVA_AMP_AWA_CON	170	Rpleas_acq	Same	Rpleas	Amasked	CS_A	1pleas	distractor2	EVAbeforeCON	acq_US_unple_masked	acq45_masked	5	24	400	1	300	300	0	0	346	46	0	1	0	0	0	1	blank2r.bmp	0	1	+	0	4	B4r.bmp	492	1	blank2r.bmp	786	1	DHJF	786	1	blank2r.bmp	866	4	engstirnig	866	1	!	1239	1	!	1252	0	0	0	0	0	0	0	0	0	0	0	0	0	0	0	0	0	0	0	0	0	0	0	0	0	0	0
032019	13:54:27	14:05:42	674042	5.0.10.0	4_exp_EVA_AMP_AWA_CON	170	Rpleas_acq	Same	Rpleas	Amasked	CS_A	1pleas	distractor2	EVAbeforeCON	acq_US_pleas_masked	acq45_masked	5	25	400	0	300	300	0	0	483	50	0	1	0	0	0	1	blank2r.bmp	0	1	+	0	6	C2r.bmp	492	1	blank2r.bmp	786	1	CPLW	786	1	blank2r.bmp	866	1	anregung	866	1	!	1239	1	!	-1	0	0	0	0	0	0	0	0	0	0	0	0	0	0	0	0	0	0	0	0	0	0	0	0	0	0	0
032019	13:54:27	14:05:44	676215	5.0.10.0	4_exp_EVA_AMP_AWA_CON	170	Rpleas_acq	Same	Rpleas	Amasked	CS_A	1pleas	distractor2	EVAbeforeCON	acq_US_unple_masked	acq45_masked	5	26	400	1	300	300	0	0	360	46	0	1	0	0	0	1	blank2r.bmp	0	1	+	0	1	B1r.bmp	492	1	blank2r.bmp	786	1	DHJF	786	1	blank2r.bmp	866	6	sterben	866	1	!	1239	1	!	1266	0	0	0	0	0	0	0	0	0	0	0	0	0	0	0	0	0	0	0	0	0	0	0	0	0	0	0
032019	13:54:27	14:05:46	678467	5.0.10.0	4_exp_EVA_AMP_AWA_CON	170	Rpleas_acq	Same	Rpleas	Amasked	CS_A	1pleas	distractor2	EVAbeforeCON	acq_US_unple_masked	acq45_masked	5	27	400	0	300	300	0	0	482	46	0	1	0	0	0	1	blank2r.bmp	0	1	+	0	8	C4r.bmp	492	1	blank2r.bmp	786	1	DHJF	786	1	blank2r.bmp	866	5	geizig	866	1	!	1239	1	!	-1	0	0	0	0	0	0	0	0	0	0	0	0	0	0	0	0	0	0	0	0	0	0	0	0	0	0	0
032019	13:54:27	14:05:48	680666	5.0.10.0	4_exp_EVA_AMP_AWA_CON	170	Rpleas_acq	Same	Rpleas	Amasked	CS_A	1pleas	distractor2	EVAbeforeCON	acq_US_pleas_masked	acq45_masked	5	28	400	1	300	300	0	0	387	50	0	1	0	0	0	1	blank2r.bmp	0	1	+	0	2	B2r.bmp	492	1	blank2r.bmp	786	1	CPLW	786	1	blank2r.bmp	866	6	sonnig	866	1	!	1239	1	!	1292	0	0	0	0	0	0	0	0	0	0	0	0	0	0	0	0	0	0	0	0	0	0	0	0	0	0	0
032019	13:54:27	14:05:51	682892	5.0.10.0	4_exp_EVA_AMP_AWA_CON	170	Rpleas_acq	Same	Rpleas	Amasked	CS_A	1pleas	distractor2	EVAbeforeCON	acq_US_unple_masked	acq45_masked	5	29	400	1	300	300	0	0	435	46	0	1	0	0	0	1	blank2r.bmp	0	1	+	0	3	B3r.bmp	492	1	blank2r.bmp	786	1	DHJF	786	1	blank2r.bmp	866	4	engstirnig	866	1	!	1239	1	!	1332	0	0	0	0	0	0	0	0	0	0	0	0	0	0	0	0	0	0	0	0	0	0	0	0	0	0	0
032019	13:54:27	14:05:53	684984	5.0.10.0	4_exp_EVA_AMP_AWA_CON	170	Rpleas_acq	Same	Rpleas	Amasked	CS_A	1pleas	distractor2	EVAbeforeCON	acq_US_unple_masked	acq45_masked	5	30	400	0	300	300	0	0	305	50	0	0	0	0	0	1	blank2r.bmp	0	1	+	0	4	B4r.bmp	492	1	blank2r.bmp	786	1	DHJF	786	1	blank2r.bmp	866	2	krank	866	1	!	-1	1	!	-1	0	0	0	0	0	0	0	0	0	0	0	0	0	0	0	0	0	0	0	0	0	0	0	0	0	0	0
032019	13:54:27	14:05:55	687077	5.0.10.0	4_exp_EVA_AMP_AWA_CON	170	Rpleas_acq	Same	Rpleas	Amasked	CS_A	1pleas	distractor2	EVAbeforeCON	acq_US_unple_masked	acq45_masked	5	31	400	0	300	300	0	0	306	50	0	0	0	0	0	1	blank2r.bmp	0	1	+	0	7	C3r.bmp	492	1	blank2r.bmp	786	1	DHJF	786	1	blank2r.bmp	866	3	bange	866	1	!	-1	1	!	-1	0	0	0	0	0	0	0	0	0	0	0	0	0	0	0	0	0	0	0	0	0	0	0	0	0	0	0
032019	13:54:27	14:05:57	689156	5.0.10.0	4_exp_EVA_AMP_AWA_CON	170	Rpleas_acq	Same	Rpleas	Amasked	CS_A	1pleas	distractor2	EVAbeforeCON	acq_US_unple_masked	acq45_masked	5	32	400	0	300	300	0	0	290	50	0	0	0	0	0	1	blank2r.bmp	0	1	+	0	5	C1r.bmp	492	1	blank2r.bmp	786	1	DHJF	786	1	blank2r.bmp	866	1	ausrottung	866	1	!	-1	1	!	-1	0	0	0	0	0	0	0	0	0	0	0	0	0	0	0	0	0	0	0	0	0	0	0	0	0	0	0
032019	13:54:27	14:05:59	691408	5.0.10.0	4_exp_EVA_AMP_AWA_CON	170	Rpleas_acq	Same	Rpleas	Amasked	CS_A	1pleas	distractor2	EVAbeforeCON	acq_US_pleas_masked	acq45_masked	5	33	400	1	300	300	0	0	448	50	0	1	0	0	0	1	blank2r.bmp	0	1	+	0	7	C3r.bmp	492	1	blank2r.bmp	786	1	CPLW	786	1	blank2r.bmp	866	4	engagiert	866	1	!	1239	1	!	1346	0	0	0	0	0	0	0	0	0	0	0	0	0	0	0	0	0	0	0	0	0	0	0	0	0	0	0
032019	13:54:27	14:06:01	693581	5.0.10.0	4_exp_EVA_AMP_AWA_CON	170	Rpleas_acq	Same	Rpleas	Amasked	CS_A	1pleas	distractor2	EVAbeforeCON	acq_US_pleas_masked	acq45_masked	5	34	400	1	300	300	0	0	383	50	0	1	0	0	0	1	blank2r.bmp	0	1	+	0	6	C2r.bmp	492	1	blank2r.bmp	786	1	CPLW	786	1	blank2r.bmp	866	2	kreativ	866	1	!	1239	1	!	1279	0	0	0	0	0	0	0	0	0	0	0	0	0	0	0	0	0	0	0	0	0	0	0	0	0	0	0
032019	13:54:27	14:06:03	695793	5.0.10.0	4_exp_EVA_AMP_AWA_CON	170	Rpleas_acq	Same	Rpleas	Amasked	CS_A	1pleas	distractor2	EVAbeforeCON	acq_US_unple_masked	acq45_masked	5	35	400	1	300	300	0	0	418	46	0	1	0	0	0	1	blank2r.bmp	0	1	+	0	1	B1r.bmp	492	1	blank2r.bmp	786	1	DHJF	786	1	blank2r.bmp	866	6	sterben	866	1	!	1239	1	!	1319	0	0	0	0	0	0	0	0	0	0	0	0	0	0	0	0	0	0	0	0	0	0	0	0	0	0	0
032019	13:54:27	14:06:06	698032	5.0.10.0	4_exp_EVA_AMP_AWA_CON	170	Rpleas_acq	Same	Rpleas	Amasked	CS_A	1pleas	distractor2	EVAbeforeCON	acq_US_pleas_masked	acq45_masked	5	36	400	1	300	300	0	0	431	50	0	1	0	0	0	1	blank2r.bmp	0	1	+	0	4	B4r.bmp	492	1	blank2r.bmp	786	1	CPLW	786	1	blank2r.bmp	866	3	besonnen	866	1	!	1239	1	!	1332	0	0	0	0	0	0	0	0	0	0	0	0	0	0	0	0	0	0	0	0	0	0	0	0	0	0	0
032019	13:54:27	14:06:35	727647	5.0.10.0	4_exp_EVA_AMP_AWA_CON	170	Rpleas_acq	Same	Rpleas	Amasked	CS_A	1pleas	distractor2	EVAbeforeCON	EvalRating_firsttwo	EvalRating_firsttwo	6	1	0	0	300	300	0	0	6463	line	-66,650390625	0	0	0	0	1	eraser	0	1	Wie angenehm oder unangenehm finden Sie die  Buchstabenkette ZGXT?	0	1	leftborder	0	1	rightborder	0	1	line	0	1	Unangenehm	0	1	Angenehm	0	0	0	0	0	0	0	0	0	0	0	0	0	0	0	0	0	0	0	0	0	0	0	0	0	0	0	0	0	0	0	0	0	0
032019	13:54:27	14:06:43	735550	5.0.10.0	4_exp_EVA_AMP_AWA_CON	170	Rpleas_acq	Same	Rpleas	Amasked	CS_A	1pleas	distractor2	EVAbeforeCON	EvalRating_lastfour	EvalRating_lastfour	7	1	0	0	300	300	0	0	5463	line	79,345703125	0	0	0	0	1	eraser	0	2	Wie angenehm oder unangenehm finden Sie die  Buchstabenkette DHJF?	0	1	leftborder	0	1	rightborder	0	1	line	0	1	Unangenehm	0	1	Angenehm	0	0	0	0	0	0	0	0	0	0	0	0	0	0	0	0	0	0	0	0	0	0	0	0	0	0	0	0	0	0	0	0	0	0
032019	13:54:27	14:06:46	737936	5.0.10.0	4_exp_EVA_AMP_AWA_CON	170	Rpleas_acq	Same	Rpleas	Amasked	CS_A	1pleas	distractor2	EVAbeforeCON	blank_screen	EvalRating_lastfour	7	3	0	0	300	300	0	0	0	0	79,345703125	0	0	0	0	1	eraser	0	0	0	0	0	0	0	0	0	0	0	0	0	0	0	0	0	0	0	0	0	0	0	0	0	0	0	0	0	0	0	0	0	0	0	0	0	0	0	0	0	0	0	0	0	0	0	0	0	0	0	0
032019	13:54:27	14:06:50	742374	5.0.10.0	4_exp_EVA_AMP_AWA_CON	170	Rpleas_acq	Same	Rpleas	Amasked	CS_A	1pleas	distractor2	EVAbeforeCON	EvalRating_lastfour	EvalRating_lastfour	7	4	0	0	300	300	0	0	3856	line	22,216796875	0	0	0	0	1	eraser	1	1	Wie angenehm oder unangenehm finden Sie die  Buchstabenkette CPLW?	1	1	leftborder	1	1	rightborder	1	1	line	1	1	Unangenehm	1	1	Angenehm	1	0	0	0	0	0	0	0	0	0	0	0	0	0	0	0	0	0	0	0	0	0	0	0	0	0	0	0	0	0	0	0	0	0
032019	13:54:27	14:06:52	744760	5.0.10.0	4_exp_EVA_AMP_AWA_CON	170	Rpleas_acq	Same	Rpleas	Amasked	CS_A	1pleas	distractor2	EVAbeforeCON	blank_screen	EvalRating_lastfour	7	6	0	0	300	300	0	0	0	0	22,216796875	0	0	0	0	1	eraser	0	0	0	0	0	0	0	0	0	0	0	0	0	0	0	0	0	0	0	0	0	0	0	0	0	0	0	0	0	0	0	0	0	0	0	0	0	0	0	0	0	0	0	0	0	0	0	0	0	0	0	0
032019	13:54:27	14:06:57	749798	5.0.10.0	4_exp_EVA_AMP_AWA_CON	170	Rpleas_acq	Same	Rpleas	Amasked	CS_A	1pleas	distractor2	EVAbeforeCON	EvalRating_lastfour	EvalRating_lastfour	7	7	0	0	300	300	0	0	4460	line	-37,1093749999999928946	0	0	0	0	1	eraser	0	3	Wie angenehm oder unangenehm finden Sie die  Buchstabenkette QYSB?	0	1	leftborder	0	1	rightborder	0	1	line	0	1	Unangenehm	0	1	Angenehm	0	0	0	0	0	0	0	0	0	0	0	0	0	0	0	0	0	0	0	0	0	0	0	0	0	0	0	0	0	0	0	0	0	0
032019	13:54:27	14:07:50	802456	5.0.10.0	4_exp_EVA_AMP_AWA_CON	170	Rpleas_acq	Same	Rpleas	Amasked	CS_A	1pleas	distractor2	EVAbeforeCON	AMP_distractor	AMP1_masked	8	1	0	0	300	300	0	0	5604	50	-37,1093749999999928946	0	0	0	0	1	blank2r.bmp	0	1	QYSB	0	1	blank2r.bmp	79	25	pic25.bmp	199	1	whitenoise_No3.bmp	306	0	0	0	0	0	0	0	0	0	0	0	0	0	0	0	0	0	0	0	0	0	0	0	0	0	0	0	0	0	0	0	0	0	0	0	0	0	0	0
032019	13:54:27	14:07:52	804629	5.0.10.0	4_exp_EVA_AMP_AWA_CON	170	Rpleas_acq	Same	Rpleas	Amasked	CS_A	1pleas	distractor2	EVAbeforeCON	AMP_CSpleas	AMP1_masked	8	2	0	0	300	300	0	0	1253	46	-37,1093749999999928946	0	0	0	0	1	blank2r.bmp	0	1	CPLW	0	1	blank2r.bmp	79	53	pic53.bmp	199	1	whitenoise_No3.bmp	306	0	0	0	0	0	0	0	0	0	0	0	0	0	0	0	0	0	0	0	0	0	0	0	0	0	0	0	0	0	0	0	0	0	0	0	0	0	0	0
032019	13:54:27	14:07:54	806215	5.0.10.0	4_exp_EVA_AMP_AWA_CON	170	Rpleas_acq	Same	Rpleas	Amasked	CS_A	1pleas	distractor2	EVAbeforeCON	AMP_CSpleas	AMP1_masked	8	3	0	0	300	300	0	0	665	50	-37,1093749999999928946	1	0	0	0	1	blank2r.bmp	0	1	CPLW	0	1	blank2r.bmp	79	23	pic23.bmp	199	1	whitenoise_No3.bmp	306	0	0	0	0	0	0	0	0	0	0	0	0	0	0	0	0	0	0	0	0	0	0	0	0	0	0	0	0	0	0	0	0	0	0	0	0	0	0	0
032019	13:54:27	14:07:55	807801	5.0.10.0	4_exp_EVA_AMP_AWA_CON	170	Rpleas_acq	Same	Rpleas	Amasked	CS_A	1pleas	distractor2	EVAbeforeCON	AMP_CSpleas	AMP1_masked	8	4	0	0	300	300	0	0	667	50	-37,1093749999999928946	1	0	0	0	1	blank2r.bmp	0	1	CPLW	0	1	blank2r.bmp	79	51	pic51.bmp	199	1	whitenoise_No3.bmp	306	0	0	0	0	0	0	0	0	0	0	0	0	0	0	0	0	0	0	0	0	0	0	0	0	0	0	0	0	0	0	0	0	0	0	0	0	0	0	0
032019	13:54:27	14:07:57	809320	5.0.10.0	4_exp_EVA_AMP_AWA_CON	170	Rpleas_acq	Same	Rpleas	Amasked	CS_A	1pleas	distractor2	EVAbeforeCON	AMP_distractor	AMP1_masked	8	5	0	0	300	300	0	0	589	50	-37,1093749999999928946	0	0	0	0	1	blank2r.bmp	0	1	QYSB	0	1	blank2r.bmp	79	133	pic133.bmp	199	1	whitenoise_No3.bmp	306	0	0	0	0	0	0	0	0	0	0	0	0	0	0	0	0	0	0	0	0	0	0	0	0	0	0	0	0	0	0	0	0	0	0	0	0	0	0	0
032019	13:54:27	14:07:59	811319	5.0.10.0	4_exp_EVA_AMP_AWA_CON	170	Rpleas_acq	Same	Rpleas	Amasked	CS_A	1pleas	distractor2	EVAbeforeCON	AMP_distractor	AMP1_masked	8	6	0	0	300	300	0	0	1080	50	-37,1093749999999928946	0	0	0	0	1	blank2r.bmp	0	1	QYSB	0	1	blank2r.bmp	79	38	pic38.bmp	199	1	whitenoise_No3.bmp	306	0	0	0	0	0	0	0	0	0	0	0	0	0	0	0	0	0	0	0	0	0	0	0	0	0	0	0	0	0	0	0	0	0	0	0	0	0	0	0
032019	13:54:27	14:08:00	812572	5.0.10.0	4_exp_EVA_AMP_AWA_CON	170	Rpleas_acq	Same	Rpleas	Amasked	CS_A	1pleas	distractor2	EVAbeforeCON	AMP_CSpleas	AMP1_masked	8	7	0	0	300	300	0	0	333	46	-37,1093749999999928946	0	0	0	0	1	blank2r.bmp	0	1	CPLW	0	1	blank2r.bmp	79	71	pic71.bmp	199	1	whitenoise_No3.bmp	306	0	0	0	0	0	0	0	0	0	0	0	0	0	0	0	0	0	0	0	0	0	0	0	0	0	0	0	0	0	0	0	0	0	0	0	0	0	0	0
032019	13:54:27	14:08:03	815611	5.0.10.0	4_exp_EVA_AMP_AWA_CON	170	Rpleas_acq	Same	Rpleas	Amasked	CS_A	1pleas	distractor2	EVAbeforeCON	AMP_distractor	AMP1_masked	8	8	0	0	300	300	0	0	2119	46	-37,1093749999999928946	0	0	0	0	1	blank2r.bmp	0	1	QYSB	0	1	blank2r.bmp	79	54	pic54.bmp	199	1	whitenoise_No3.bmp	306	0	0	0	0	0	0	0	0	0	0	0	0	0	0	0	0	0	0	0	0	0	0	0	0	0	0	0	0	0	0	0	0	0	0	0	0	0	0	0
032019	13:54:27	14:08:05	817090	5.0.10.0	4_exp_EVA_AMP_AWA_CON	170	Rpleas_acq	Same	Rpleas	Amasked	CS_A	1pleas	distractor2	EVAbeforeCON	AMP_distractor	AMP1_masked	8	9	0	0	300	300	0	0	571	50	-37,1093749999999928946	0	0	0	0	1	blank2r.bmp	0	1	QYSB	0	1	blank2r.bmp	79	80	pic80.bmp	199	1	whitenoise_No3.bmp	306	0	0	0	0	0	0	0	0	0	0	0	0	0	0	0	0	0	0	0	0	0	0	0	0	0	0	0	0	0	0	0	0	0	0	0	0	0	0	0
032019	13:54:27	14:08:06	818503	5.0.10.0	4_exp_EVA_AMP_AWA_CON	170	Rpleas_acq	Same	Rpleas	Amasked	CS_A	1pleas	distractor2	EVAbeforeCON	AMP_CSpleas	AMP1_masked	8	10	0	0	300	300	0	0	486	50	-37,1093749999999928946	1	0	0	0	1	blank2r.bmp	0	1	CPLW	0	1	blank2r.bmp	79	151	pic151.bmp	199	1	whitenoise_No3.bmp	306	0	0	0	0	0	0	0	0	0	0	0	0	0	0	0	0	0	0	0	0	0	0	0	0	0	0	0	0	0	0	0	0	0	0	0	0	0	0	0
032019	13:54:27	14:08:08	819996	5.0.10.0	4_exp_EVA_AMP_AWA_CON	170	Rpleas_acq	Same	Rpleas	Amasked	CS_A	1pleas	distractor2	EVAbeforeCON	AMP_distractor	AMP1_masked	8	11	0	0	300	300	0	0	562	50	-37,1093749999999928946	0	0	0	0	1	blank2r.bmp	0	1	QYSB	0	1	blank2r.bmp	79	143	pic143.bmp	199	1	whitenoise_No3.bmp	306	0	0	0	0	0	0	0	0	0	0	0	0	0	0	0	0	0	0	0	0	0	0	0	0	0	0	0	0	0	0	0	0	0	0	0	0	0	0	0
032019	13:54:27	14:08:09	821528	5.0.10.0	4_exp_EVA_AMP_AWA_CON	170	Rpleas_acq	Same	Rpleas	Amasked	CS_A	1pleas	distractor2	EVAbeforeCON	AMP_CSunple	AMP1_masked	8	12	0	0	300	300	0	0	619	46	-37,1093749999999928946	1	0	0	0	1	blank2r.bmp	0	1	DHJF	0	1	blank2r.bmp	79	58	pic58.bmp	199	1	whitenoise_No3.bmp	306	0	0	0	0	0	0	0	0	0	0	0	0	0	0	0	0	0	0	0	0	0	0	0	0	0	0	0	0	0	0	0	0	0	0	0	0	0	0	0
032019	13:54:27	14:08:11	823714	5.0.10.0	4_exp_EVA_AMP_AWA_CON	170	Rpleas_acq	Same	Rpleas	Amasked	CS_A	1pleas	distractor2	EVAbeforeCON	AMP_CSunple	AMP1_masked	8	13	0	0	300	300	0	0	1261	50	-37,1093749999999928946	0	0	0	0	1	blank2r.bmp	0	1	DHJF	0	1	blank2r.bmp	79	11	pic11.bmp	199	1	whitenoise_No3.bmp	306	0	0	0	0	0	0	0	0	0	0	0	0	0	0	0	0	0	0	0	0	0	0	0	0	0	0	0	0	0	0	0	0	0	0	0	0	0	0	0
032019	13:54:27	14:08:13	825580	5.0.10.0	4_exp_EVA_AMP_AWA_CON	170	Rpleas_acq	Same	Rpleas	Amasked	CS_A	1pleas	distractor2	EVAbeforeCON	AMP_distractor	AMP1_masked	8	14	0	0	300	300	0	0	936	50	-37,1093749999999928946	0	0	0	0	1	blank2r.bmp	0	1	QYSB	0	1	blank2r.bmp	79	147	pic147.bmp	199	1	whitenoise_No3.bmp	306	0	0	0	0	0	0	0	0	0	0	0	0	0	0	0	0	0	0	0	0	0	0	0	0	0	0	0	0	0	0	0	0	0	0	0	0	0	0	0
032019	13:54:27	14:08:15	826979	5.0.10.0	4_exp_EVA_AMP_AWA_CON	170	Rpleas_acq	Same	Rpleas	Amasked	CS_A	1pleas	distractor2	EVAbeforeCON	AMP_distractor	AMP1_masked	8	15	0	0	300	300	0	0	488	50	-37,1093749999999928946	0	0	0	0	1	blank2r.bmp	0	1	QYSB	0	1	blank2r.bmp	79	103	pic103.bmp	199	1	whitenoise_No3.bmp	306	0	0	0	0	0	0	0	0	0	0	0	0	0	0	0	0	0	0	0	0	0	0	0	0	0	0	0	0	0	0	0	0	0	0	0	0	0	0	0
032019	13:54:27	14:08:16	828299	5.0.10.0	4_exp_EVA_AMP_AWA_CON	170	Rpleas_acq	Same	Rpleas	Amasked	CS_A	1pleas	distractor2	EVAbeforeCON	AMP_CSunple	AMP1_masked	8	16	0	0	300	300	0	0	387	50	-37,1093749999999928946	0	0	0	0	1	blank2r.bmp	0	1	DHJF	0	1	blank2r.bmp	79	105	pic105.bmp	199	1	whitenoise_No3.bmp	306	0	0	0	0	0	0	0	0	0	0	0	0	0	0	0	0	0	0	0	0	0	0	0	0	0	0	0	0	0	0	0	0	0	0	0	0	0	0	0
032019	13:54:27	14:08:17	829618	5.0.10.0	4_exp_EVA_AMP_AWA_CON	170	Rpleas_acq	Same	Rpleas	Amasked	CS_A	1pleas	distractor2	EVAbeforeCON	AMP_distractor	AMP1_masked	8	17	0	0	300	300	0	0	389	50	-37,1093749999999928946	0	0	0	0	1	blank2r.bmp	0	1	QYSB	0	1	blank2r.bmp	79	148	pic148.bmp	199	1	whitenoise_No3.bmp	306	0	0	0	0	0	0	0	0	0	0	0	0	0	0	0	0	0	0	0	0	0	0	0	0	0	0	0	0	0	0	0	0	0	0	0	0	0	0	0
032019	13:54:27	14:08:19	830964	5.0.10.0	4_exp_EVA_AMP_AWA_CON	170	Rpleas_acq	Same	Rpleas	Amasked	CS_A	1pleas	distractor2	EVAbeforeCON	AMP_distractor	AMP1_masked	8	18	0	0	300	300	0	0	427	50	-37,1093749999999928946	0	0	0	0	1	blank2r.bmp	0	1	QYSB	0	1	blank2r.bmp	79	119	pic119.bmp	199	1	whitenoise_No3.bmp	306	0	0	0	0	0	0	0	0	0	0	0	0	0	0	0	0	0	0	0	0	0	0	0	0	0	0	0	0	0	0	0	0	0	0	0	0	0	0	0
032019	13:54:27	14:08:20	832550	5.0.10.0	4_exp_EVA_AMP_AWA_CON	170	Rpleas_acq	Same	Rpleas	Amasked	CS_A	1pleas	distractor2	EVAbeforeCON	AMP_CSunple	AMP1_masked	8	19	0	0	300	300	0	0	677	46	-37,1093749999999928946	1	0	0	0	1	blank2r.bmp	0	1	DHJF	0	1	blank2r.bmp	79	76	pic76.bmp	199	1	whitenoise_No3.bmp	306	0	0	0	0	0	0	0	0	0	0	0	0	0	0	0	0	0	0	0	0	0	0	0	0	0	0	0	0	0	0	0	0	0	0	0	0	0	0	0
032019	13:54:27	14:08:22	834017	5.0.10.0	4_exp_EVA_AMP_AWA_CON	170	Rpleas_acq	Same	Rpleas	Amasked	CS_A	1pleas	distractor2	EVAbeforeCON	AMP_CSpleas	AMP1_masked	8	20	0	0	300	300	0	0	534	50	-37,1093749999999928946	1	0	0	0	1	blank2r.bmp	0	1	CPLW	0	1	blank2r.bmp	79	90	pic90.bmp	199	1	whitenoise_No3.bmp	306	0	0	0	0	0	0	0	0	0	0	0	0	0	0	0	0	0	0	0	0	0	0	0	0	0	0	0	0	0	0	0	0	0	0	0	0	0	0	0
032019	13:54:27	14:08:23	835656	5.0.10.0	4_exp_EVA_AMP_AWA_CON	170	Rpleas_acq	Same	Rpleas	Amasked	CS_A	1pleas	distractor2	EVAbeforeCON	AMP_distractor	AMP1_masked	8	21	0	0	300	300	0	0	730	50	-37,1093749999999928946	0	0	0	0	1	blank2r.bmp	0	1	QYSB	0	1	blank2r.bmp	79	33	pic33.bmp	199	1	whitenoise_No3.bmp	306	0	0	0	0	0	0	0	0	0	0	0	0	0	0	0	0	0	0	0	0	0	0	0	0	0	0	0	0	0	0	0	0	0	0	0	0	0	0	0
032019	13:54:27	14:08:25	837082	5.0.10.0	4_exp_EVA_AMP_AWA_CON	170	Rpleas_acq	Same	Rpleas	Amasked	CS_A	1pleas	distractor2	EVAbeforeCON	AMP_CSunple	AMP1_masked	8	22	0	0	300	300	0	0	494	50	-37,1093749999999928946	0	0	0	0	1	blank2r.bmp	0	1	DHJF	0	1	blank2r.bmp	79	93	pic93.bmp	199	1	whitenoise_No3.bmp	306	0	0	0	0	0	0	0	0	0	0	0	0	0	0	0	0	0	0	0	0	0	0	0	0	0	0	0	0	0	0	0	0	0	0	0	0	0	0	0
032019	13:54:27	14:08:26	838748	5.0.10.0	4_exp_EVA_AMP_AWA_CON	170	Rpleas_acq	Same	Rpleas	Amasked	CS_A	1pleas	distractor2	EVAbeforeCON	AMP_CSpleas	AMP1_masked	8	23	0	0	300	300	0	0	740	46	-37,1093749999999928946	0	0	0	0	1	blank2r.bmp	0	1	CPLW	0	1	blank2r.bmp	79	78	pic78.bmp	199	1	whitenoise_No3.bmp	306	0	0	0	0	0	0	0	0	0	0	0	0	0	0	0	0	0	0	0	0	0	0	0	0	0	0	0	0	0	0	0	0	0	0	0	0	0	0	0
032019	13:54:27	14:08:28	840387	5.0.10.0	4_exp_EVA_AMP_AWA_CON	170	Rpleas_acq	Same	Rpleas	Amasked	CS_A	1pleas	distractor2	EVAbeforeCON	AMP_CSpleas	AMP1_masked	8	24	0	0	300	300	0	0	717	50	-37,1093749999999928946	1	0	0	0	1	blank2r.bmp	0	1	CPLW	0	1	blank2r.bmp	79	13	pic13.bmp	199	1	whitenoise_No3.bmp	306	0	0	0	0	0	0	0	0	0	0	0	0	0	0	0	0	0	0	0	0	0	0	0	0	0	0	0	0	0	0	0	0	0	0	0	0	0	0	0
032019	13:54:27	14:08:30	841960	5.0.10.0	4_exp_EVA_AMP_AWA_CON	170	Rpleas_acq	Same	Rpleas	Amasked	CS_A	1pleas	distractor2	EVAbeforeCON	AMP_CSpleas	AMP1_masked	8	25	0	0	300	300	0	0	642	50	-37,1093749999999928946	1	0	0	0	1	blank2r.bmp	0	1	CPLW	0	1	blank2r.bmp	79	101	pic101.bmp	199	1	whitenoise_No3.bmp	306	0	0	0	0	0	0	0	0	0	0	0	0	0	0	0	0	0	0	0	0	0	0	0	0	0	0	0	0	0	0	0	0	0	0	0	0	0	0	0
032019	13:54:27	14:08:31	843453	5.0.10.0	4_exp_EVA_AMP_AWA_CON	170	Rpleas_acq	Same	Rpleas	Amasked	CS_A	1pleas	distractor2	EVAbeforeCON	AMP_CSpleas	AMP1_masked	8	26	0	0	300	300	0	0	581	46	-37,1093749999999928946	0	0	0	0	1	blank2r.bmp	0	1	CPLW	0	1	blank2r.bmp	79	42	pic42.bmp	199	1	whitenoise_No3.bmp	306	0	0	0	0	0	0	0	0	0	0	0	0	0	0	0	0	0	0	0	0	0	0	0	0	0	0	0	0	0	0	0	0	0	0	0	0	0	0	0
032019	13:54:27	14:08:32	844865	5.0.10.0	4_exp_EVA_AMP_AWA_CON	170	Rpleas_acq	Same	Rpleas	Amasked	CS_A	1pleas	distractor2	EVAbeforeCON	AMP_CSunple	AMP1_masked	8	27	0	0	300	300	0	0	499	46	-37,1093749999999928946	1	0	0	0	1	blank2r.bmp	0	1	DHJF	0	1	blank2r.bmp	79	5	pic5.bmp	199	1	whitenoise_No3.bmp	306	0	0	0	0	0	0	0	0	0	0	0	0	0	0	0	0	0	0	0	0	0	0	0	0	0	0	0	0	0	0	0	0	0	0	0	0	0	0	0
032019	13:54:27	14:08:34	846238	5.0.10.0	4_exp_EVA_AMP_AWA_CON	170	Rpleas_acq	Same	Rpleas	Amasked	CS_A	1pleas	distractor2	EVAbeforeCON	AMP_CSunple	AMP1_masked	8	28	0	0	300	300	0	0	448	46	-37,1093749999999928946	1	0	0	0	1	blank2r.bmp	0	1	DHJF	0	1	blank2r.bmp	79	20	pic20.bmp	199	1	whitenoise_No3.bmp	306	0	0	0	0	0	0	0	0	0	0	0	0	0	0	0	0	0	0	0	0	0	0	0	0	0	0	0	0	0	0	0	0	0	0	0	0	0	0	0
032019	13:54:27	14:08:35	847638	5.0.10.0	4_exp_EVA_AMP_AWA_CON	170	Rpleas_acq	Same	Rpleas	Amasked	CS_A	1pleas	distractor2	EVAbeforeCON	AMP_CSunple	AMP1_masked	8	29	0	0	300	300	0	0	469	50	-37,1093749999999928946	0	0	0	0	1	blank2r.bmp	0	1	DHJF	0	1	blank2r.bmp	79	97	pic97.bmp	199	1	whitenoise_No3.bmp	306	0	0	0	0	0	0	0	0	0	0	0	0	0	0	0	0	0	0	0	0	0	0	0	0	0	0	0	0	0	0	0	0	0	0	0	0	0	0	0
032019	13:54:27	14:08:36	848850	5.0.10.0	4_exp_EVA_AMP_AWA_CON	170	Rpleas_acq	Same	Rpleas	Amasked	CS_A	1pleas	distractor2	EVAbeforeCON	AMP_distractor	AMP1_masked	8	30	0	0	300	300	0	0	302	50	-37,1093749999999928946	0	0	0	0	1	blank2r.bmp	0	1	QYSB	0	1	blank2r.bmp	79	91	pic91.bmp	199	1	whitenoise_No3.bmp	306	0	0	0	0	0	0	0	0	0	0	0	0	0	0	0	0	0	0	0	0	0	0	0	0	0	0	0	0	0	0	0	0	0	0	0	0	0	0	0
032019	13:54:27	14:08:38	850596	5.0.10.0	4_exp_EVA_AMP_AWA_CON	170	Rpleas_acq	Same	Rpleas	Amasked	CS_A	1pleas	distractor2	EVAbeforeCON	AMP_CSpleas	AMP1_masked	8	31	0	0	300	300	0	0	816	50	-37,1093749999999928946	1	0	0	0	1	blank2r.bmp	0	1	CPLW	0	1	blank2r.bmp	79	96	pic96.bmp	199	1	whitenoise_No3.bmp	306	0	0	0	0	0	0	0	0	0	0	0	0	0	0	0	0	0	0	0	0	0	0	0	0	0	0	0	0	0	0	0	0	0	0	0	0	0	0	0
032019	13:54:27	14:08:40	852036	5.0.10.0	4_exp_EVA_AMP_AWA_CON	170	Rpleas_acq	Same	Rpleas	Amasked	CS_A	1pleas	distractor2	EVAbeforeCON	AMP_distractor	AMP1_masked	8	32	0	0	300	300	0	0	531	50	-37,1093749999999928946	0	0	0	0	1	blank2r.bmp	0	1	QYSB	0	1	blank2r.bmp	79	135	pic135.bmp	199	1	whitenoise_No3.bmp	306	0	0	0	0	0	0	0	0	0	0	0	0	0	0	0	0	0	0	0	0	0	0	0	0	0	0	0	0	0	0	0	0	0	0	0	0	0	0	0
032019	13:54:27	14:08:42	854195	5.0.10.0	4_exp_EVA_AMP_AWA_CON	170	Rpleas_acq	Same	Rpleas	Amasked	CS_A	1pleas	distractor2	EVAbeforeCON	AMP_CSunple	AMP1_masked	8	33	0	0	300	300	0	0	1238	50	-37,1093749999999928946	0	0	0	0	1	blank2r.bmp	0	1	DHJF	0	1	blank2r.bmp	79	9	pic9.bmp	199	1	whitenoise_No3.bmp	306	0	0	0	0	0	0	0	0	0	0	0	0	0	0	0	0	0	0	0	0	0	0	0	0	0	0	0	0	0	0	0	0	0	0	0	0	0	0	0
032019	13:54:27	14:08:43	855728	5.0.10.0	4_exp_EVA_AMP_AWA_CON	170	Rpleas_acq	Same	Rpleas	Amasked	CS_A	1pleas	distractor2	EVAbeforeCON	AMP_CSpleas	AMP1_masked	8	34	0	0	300	300	0	0	600	46	-37,1093749999999928946	0	0	0	0	1	blank2r.bmp	0	1	CPLW	0	1	blank2r.bmp	79	35	pic35.bmp	199	1	whitenoise_No3.bmp	306	0	0	0	0	0	0	0	0	0	0	0	0	0	0	0	0	0	0	0	0	0	0	0	0	0	0	0	0	0	0	0	0	0	0	0	0	0	0	0
032019	13:54:27	14:08:45	857260	5.0.10.0	4_exp_EVA_AMP_AWA_CON	170	Rpleas_acq	Same	Rpleas	Amasked	CS_A	1pleas	distractor2	EVAbeforeCON	AMP_CSunple	AMP1_masked	8	35	0	0	300	300	0	0	624	46	-37,1093749999999928946	1	0	0	0	1	blank2r.bmp	0	1	DHJF	0	1	blank2r.bmp	79	153	pic153.bmp	199	1	whitenoise_No3.bmp	306	0	0	0	0	0	0	0	0	0	0	0	0	0	0	0	0	0	0	0	0	0	0	0	0	0	0	0	0	0	0	0	0	0	0	0	0	0	0	0
032019	13:54:27	14:08:46	858620	5.0.10.0	4_exp_EVA_AMP_AWA_CON	170	Rpleas_acq	Same	Rpleas	Amasked	CS_A	1pleas	distractor2	EVAbeforeCON	AMP_CSpleas	AMP1_masked	8	36	0	0	300	300	0	0	436	46	-37,1093749999999928946	0	0	0	0	1	blank2r.bmp	0	1	CPLW	0	1	blank2r.bmp	79	18	pic18.bmp	199	1	whitenoise_No3.bmp	306	0	0	0	0	0	0	0	0	0	0	0	0	0	0	0	0	0	0	0	0	0	0	0	0	0	0	0	0	0	0	0	0	0	0	0	0	0	0	0
032019	13:54:27	14:08:48	860499	5.0.10.0	4_exp_EVA_AMP_AWA_CON	170	Rpleas_acq	Same	Rpleas	Amasked	CS_A	1pleas	distractor2	EVAbeforeCON	AMP_distractor	AMP1_masked	8	37	0	0	300	300	0	0	953	46	-37,1093749999999928946	0	0	0	0	1	blank2r.bmp	0	1	QYSB	0	1	blank2r.bmp	79	88	pic88.bmp	199	1	whitenoise_No3.bmp	306	0	0	0	0	0	0	0	0	0	0	0	0	0	0	0	0	0	0	0	0	0	0	0	0	0	0	0	0	0	0	0	0	0	0	0	0	0	0	0
032019	13:54:27	14:08:49	861725	5.0.10.0	4_exp_EVA_AMP_AWA_CON	170	Rpleas_acq	Same	Rpleas	Amasked	CS_A	1pleas	distractor2	EVAbeforeCON	AMP_CSunple	AMP1_masked	8	38	0	0	300	300	0	0	303	50	-37,1093749999999928946	0	0	0	0	1	blank2r.bmp	0	1	DHJF	0	1	blank2r.bmp	79	74	pic74.bmp	199	1	whitenoise_No3.bmp	306	0	0	0	0	0	0	0	0	0	0	0	0	0	0	0	0	0	0	0	0	0	0	0	0	0	0	0	0	0	0	0	0	0	0	0	0	0	0	0
032019	13:54:27	14:08:51	863071	5.0.10.0	4_exp_EVA_AMP_AWA_CON	170	Rpleas_acq	Same	Rpleas	Amasked	CS_A	1pleas	distractor2	EVAbeforeCON	AMP_CSunple	AMP1_masked	8	39	0	0	300	300	0	0	416	46	-37,1093749999999928946	1	0	0	0	1	blank2r.bmp	0	1	DHJF	0	1	blank2r.bmp	79	10	pic10.bmp	199	1	whitenoise_No3.bmp	306	0	0	0	0	0	0	0	0	0	0	0	0	0	0	0	0	0	0	0	0	0	0	0	0	0	0	0	0	0	0	0	0	0	0	0	0	0	0	0
032019	13:54:27	14:08:52	864884	5.0.10.0	4_exp_EVA_AMP_AWA_CON	170	Rpleas_acq	Same	Rpleas	Amasked	CS_A	1pleas	distractor2	EVAbeforeCON	AMP_CSpleas	AMP1_masked	8	40	0	0	300	300	0	0	878	46	-37,1093749999999928946	0	0	0	0	1	blank2r.bmp	0	1	CPLW	0	1	blank2r.bmp	79	140	pic140.bmp	199	1	whitenoise_No3.bmp	306	0	0	0	0	0	0	0	0	0	0	0	0	0	0	0	0	0	0	0	0	0	0	0	0	0	0	0	0	0	0	0	0	0	0	0	0	0	0	0
032019	13:54:27	14:08:54	866177	5.0.10.0	4_exp_EVA_AMP_AWA_CON	170	Rpleas_acq	Same	Rpleas	Amasked	CS_A	1pleas	distractor2	EVAbeforeCON	AMP_distractor	AMP1_masked	8	41	0	0	300	300	0	0	384	46	-37,1093749999999928946	0	0	0	0	1	blank2r.bmp	0	1	QYSB	0	1	blank2r.bmp	79	12	pic12.bmp	199	1	whitenoise_No3.bmp	306	0	0	0	0	0	0	0	0	0	0	0	0	0	0	0	0	0	0	0	0	0	0	0	0	0	0	0	0	0	0	0	0	0	0	0	0	0	0	0
032019	13:54:27	14:08:55	867683	5.0.10.0	4_exp_EVA_AMP_AWA_CON	170	Rpleas_acq	Same	Rpleas	Amasked	CS_A	1pleas	distractor2	EVAbeforeCON	AMP_CSunple	AMP1_masked	8	42	0	0	300	300	0	0	584	50	-37,1093749999999928946	0	0	0	0	1	blank2r.bmp	0	1	DHJF	0	1	blank2r.bmp	79	128	pic128.bmp	199	1	whitenoise_No3.bmp	306	0	0	0	0	0	0	0	0	0	0	0	0	0	0	0	0	0	0	0	0	0	0	0	0	0	0	0	0	0	0	0	0	0	0	0	0	0	0	0
032019	13:54:27	14:08:57	869255	5.0.10.0	4_exp_EVA_AMP_AWA_CON	170	Rpleas_acq	Same	Rpleas	Amasked	CS_A	1pleas	distractor2	EVAbeforeCON	AMP_CSunple	AMP1_masked	8	43	0	0	300	300	0	0	640	46	-37,1093749999999928946	1	0	0	0	1	blank2r.bmp	0	1	DHJF	0	1	blank2r.bmp	79	73	pic73.bmp	199	1	whitenoise_No3.bmp	306	0	0	0	0	0	0	0	0	0	0	0	0	0	0	0	0	0	0	0	0	0	0	0	0	0	0	0	0	0	0	0	0	0	0	0	0	0	0	0
032019	13:54:27	14:08:59	870975	5.0.10.0	4_exp_EVA_AMP_AWA_CON	170	Rpleas_acq	Same	Rpleas	Amasked	CS_A	1pleas	distractor2	EVAbeforeCON	AMP_CSunple	AMP1_masked	8	44	0	0	300	300	0	0	801	46	-37,1093749999999928946	1	0	0	0	1	blank2r.bmp	0	1	DHJF	0	1	blank2r.bmp	79	70	pic70.bmp	199	1	whitenoise_No3.bmp	306	0	0	0	0	0	0	0	0	0	0	0	0	0	0	0	0	0	0	0	0	0	0	0	0	0	0	0	0	0	0	0	0	0	0	0	0	0	0	0
032019	13:54:27	14:09:00	872294	5.0.10.0	4_exp_EVA_AMP_AWA_CON	170	Rpleas_acq	Same	Rpleas	Amasked	CS_A	1pleas	distractor2	EVAbeforeCON	AMP_distractor	AMP1_masked	8	45	0	0	300	300	0	0	410	46	-37,1093749999999928946	0	0	0	0	1	blank2r.bmp	0	1	QYSB	0	1	blank2r.bmp	79	85	pic85.bmp	199	1	whitenoise_No3.bmp	306	0	0	0	0	0	0	0	0	0	0	0	0	0	0	0	0	0	0	0	0	0	0	0	0	0	0	0	0	0	0	0	0	0	0	0	0	0	0	0
032019	13:54:27	14:09:01	873614	5.0.10.0	4_exp_EVA_AMP_AWA_CON	170	Rpleas_acq	Same	Rpleas	Amasked	CS_A	1pleas	distractor2	EVAbeforeCON	AMP_CSunple	AMP1_masked	8	46	0	0	300	300	0	0	399	50	-37,1093749999999928946	0	0	0	0	1	blank2r.bmp	0	1	DHJF	0	1	blank2r.bmp	79	6	pic6.bmp	199	1	whitenoise_No3.bmp	306	0	0	0	0	0	0	0	0	0	0	0	0	0	0	0	0	0	0	0	0	0	0	0	0	0	0	0	0	0	0	0	0	0	0	0	0	0	0	0
032019	13:54:27	14:09:03	874986	5.0.10.0	4_exp_EVA_AMP_AWA_CON	170	Rpleas_acq	Same	Rpleas	Amasked	CS_A	1pleas	distractor2	EVAbeforeCON	AMP_CSunple	AMP1_masked	8	47	0	0	300	300	0	0	459	50	-37,1093749999999928946	0	0	0	0	1	blank2r.bmp	0	1	DHJF	0	1	blank2r.bmp	79	146	pic146.bmp	199	1	whitenoise_No3.bmp	306	0	0	0	0	0	0	0	0	0	0	0	0	0	0	0	0	0	0	0	0	0	0	0	0	0	0	0	0	0	0	0	0	0	0	0	0	0	0	0
032019	13:54:27	14:09:04	876226	5.0.10.0	4_exp_EVA_AMP_AWA_CON	170	Rpleas_acq	Same	Rpleas	Amasked	CS_A	1pleas	distractor2	EVAbeforeCON	AMP_CSpleas	AMP1_masked	8	48	0	0	300	300	0	0	306	50	-37,1093749999999928946	1	0	0	0	1	blank2r.bmp	0	1	CPLW	0	1	blank2r.bmp	79	115	pic115.bmp	199	1	whitenoise_No3.bmp	306	0	0	0	0	0	0	0	0	0	0	0	0	0	0	0	0	0	0	0	0	0	0	0	0	0	0	0	0	0	0	0	0	0	0	0	0	0	0	0
032019	13:54:27	14:09:05	877559	5.0.10.0	4_exp_EVA_AMP_AWA_CON	170	Rpleas_acq	Same	Rpleas	Amasked	CS_A	1pleas	distractor2	EVAbeforeCON	AMP_CSpleas	AMP1_masked	8	49	0	0	300	300	0	0	420	50	-37,1093749999999928946	1	0	0	0	1	blank2r.bmp	0	1	CPLW	0	1	blank2r.bmp	79	114	pic114.bmp	199	1	whitenoise_No3.bmp	306	0	0	0	0	0	0	0	0	0	0	0	0	0	0	0	0	0	0	0	0	0	0	0	0	0	0	0	0	0	0	0	0	0	0	0	0	0	0	0
032019	13:54:27	14:09:06	878811	5.0.10.0	4_exp_EVA_AMP_AWA_CON	170	Rpleas_acq	Same	Rpleas	Amasked	CS_A	1pleas	distractor2	EVAbeforeCON	AMP_CSpleas	AMP1_masked	8	50	0	0	300	300	0	0	324	50	-37,1093749999999928946	1	0	0	0	1	blank2r.bmp	0	1	CPLW	0	1	blank2r.bmp	79	98	pic98.bmp	199	1	whitenoise_No3.bmp	306	0	0	0	0	0	0	0	0	0	0	0	0	0	0	0	0	0	0	0	0	0	0	0	0	0	0	0	0	0	0	0	0	0	0	0	0	0	0	0
032019	13:54:27	14:09:08	880158	5.0.10.0	4_exp_EVA_AMP_AWA_CON	170	Rpleas_acq	Same	Rpleas	Amasked	CS_A	1pleas	distractor2	EVAbeforeCON	AMP_distractor	AMP1_masked	8	51	0	0	300	300	0	0	423	50	-37,1093749999999928946	0	0	0	0	1	blank2r.bmp	0	1	QYSB	0	1	blank2r.bmp	79	138	pic138.bmp	199	1	whitenoise_No3.bmp	306	0	0	0	0	0	0	0	0	0	0	0	0	0	0	0	0	0	0	0	0	0	0	0	0	0	0	0	0	0	0	0	0	0	0	0	0	0	0	0
032019	13:54:27	14:09:16	888674	5.0.10.0	4_exp_EVA_AMP_AWA_CON	170	Rpleas_acq	Same	Rpleas	Amasked	CS_A	1pleas	distractor2	EVAbeforeCON	AMP_distractor	AMP23	9	1	0	0	300	300	0	0	780	46	-37,1093749999999928946	0	0	0	0	1	blank2r.bmp	0	1	QYSB	0	1	blank2r.bmp	79	52	pic52.bmp	199	1	whitenoise_No3.bmp	306	0	0	0	0	0	0	0	0	0	0	0	0	0	0	0	0	0	0	0	0	0	0	0	0	0	0	0	0	0	0	0	0	0	0	0	0	0	0	0
032019	13:54:27	14:09:18	889967	5.0.10.0	4_exp_EVA_AMP_AWA_CON	170	Rpleas_acq	Same	Rpleas	Amasked	CS_A	1pleas	distractor2	EVAbeforeCON	AMP_CSpleas	AMP23	9	2	0	0	300	300	0	0	378	50	-37,1093749999999928946	1	0	0	0	1	blank2r.bmp	0	1	CPLW	0	1	blank2r.bmp	79	94	pic94.bmp	199	1	whitenoise_No3.bmp	306	0	0	0	0	0	0	0	0	0	0	0	0	0	0	0	0	0	0	0	0	0	0	0	0	0	0	0	0	0	0	0	0	0	0	0	0	0	0	0
032019	13:54:27	14:09:19	891326	5.0.10.0	4_exp_EVA_AMP_AWA_CON	170	Rpleas_acq	Same	Rpleas	Amasked	CS_A	1pleas	distractor2	EVAbeforeCON	AMP_CSunple	AMP23	9	3	0	0	300	300	0	0	428	50	-37,1093749999999928946	0	0	0	0	1	blank2r.bmp	0	1	DHJF	0	1	blank2r.bmp	79	24	pic24.bmp	199	1	whitenoise_No3.bmp	306	0	0	0	0	0	0	0	0	0	0	0	0	0	0	0	0	0	0	0	0	0	0	0	0	0	0	0	0	0	0	0	0	0	0	0	0	0	0	0
032019	13:54:27	14:09:20	892779	5.0.10.0	4_exp_EVA_AMP_AWA_CON	170	Rpleas_acq	Same	Rpleas	Amasked	CS_A	1pleas	distractor2	EVAbeforeCON	AMP_CSunple	AMP23	9	4	0	0	300	300	0	0	537	50	-37,1093749999999928946	0	0	0	0	1	blank2r.bmp	0	1	DHJF	0	1	blank2r.bmp	79	142	pic142.bmp	199	1	whitenoise_No3.bmp	306	0	0	0	0	0	0	0	0	0	0	0	0	0	0	0	0	0	0	0	0	0	0	0	0	0	0	0	0	0	0	0	0	0	0	0	0	0	0	0
032019	13:54:27	14:09:22	894325	5.0.10.0	4_exp_EVA_AMP_AWA_CON	170	Rpleas_acq	Same	Rpleas	Amasked	CS_A	1pleas	distractor2	EVAbeforeCON	AMP_CSpleas	AMP23	9	5	0	0	300	300	0	0	634	50	-37,1093749999999928946	1	0	0	0	1	blank2r.bmp	0	1	CPLW	0	1	blank2r.bmp	79	29	pic29.bmp	199	1	whitenoise_No3.bmp	306	0	0	0	0	0	0	0	0	0	0	0	0	0	0	0	0	0	0	0	0	0	0	0	0	0	0	0	0	0	0	0	0	0	0	0	0	0	0	0
032019	13:54:27	14:09:23	895778	5.0.10.0	4_exp_EVA_AMP_AWA_CON	170	Rpleas_acq	Same	Rpleas	Amasked	CS_A	1pleas	distractor2	EVAbeforeCON	AMP_CSunple	AMP23	9	6	0	0	300	300	0	0	520	46	-37,1093749999999928946	1	0	0	0	1	blank2r.bmp	0	1	DHJF	0	1	blank2r.bmp	79	107	pic107.bmp	199	1	whitenoise_No3.bmp	306	0	0	0	0	0	0	0	0	0	0	0	0	0	0	0	0	0	0	0	0	0	0	0	0	0	0	0	0	0	0	0	0	0	0	0	0	0	0	0
032019	13:54:27	14:09:25	897097	5.0.10.0	4_exp_EVA_AMP_AWA_CON	170	Rpleas_acq	Same	Rpleas	Amasked	CS_A	1pleas	distractor2	EVAbeforeCON	AMP_CSunple	AMP23	9	7	0	0	300	300	0	0	401	50	-37,1093749999999928946	0	0	0	0	1	blank2r.bmp	0	1	DHJF	0	1	blank2r.bmp	79	121	pic121.bmp	199	1	whitenoise_No3.bmp	306	0	0	0	0	0	0	0	0	0	0	0	0	0	0	0	0	0	0	0	0	0	0	0	0	0	0	0	0	0	0	0	0	0	0	0	0	0	0	0
032019	13:54:27	14:09:26	898430	5.0.10.0	4_exp_EVA_AMP_AWA_CON	170	Rpleas_acq	Same	Rpleas	Amasked	CS_A	1pleas	distractor2	EVAbeforeCON	AMP_CSpleas	AMP23	9	8	0	0	300	300	0	0	416	46	-37,1093749999999928946	0	0	0	0	1	blank2r.bmp	0	1	CPLW	0	1	blank2r.bmp	79	32	pic32.bmp	199	1	whitenoise_No3.bmp	306	0	0	0	0	0	0	0	0	0	0	0	0	0	0	0	0	0	0	0	0	0	0	0	0	0	0	0	0	0	0	0	0	0	0	0	0	0	0	0
032019	13:54:27	14:09:28	899896	5.0.10.0	4_exp_EVA_AMP_AWA_CON	170	Rpleas_acq	Same	Rpleas	Amasked	CS_A	1pleas	distractor2	EVAbeforeCON	AMP_CSpleas	AMP23	9	9	0	0	300	300	0	0	555	46	-37,1093749999999928946	0	0	0	0	1	blank2r.bmp	0	1	CPLW	0	1	blank2r.bmp	79	57	pic57.bmp	199	1	whitenoise_No3.bmp	306	0	0	0	0	0	0	0	0	0	0	0	0	0	0	0	0	0	0	0	0	0	0	0	0	0	0	0	0	0	0	0	0	0	0	0	0	0	0	0
032019	13:54:27	14:09:29	901575	5.0.10.0	4_exp_EVA_AMP_AWA_CON	170	Rpleas_acq	Same	Rpleas	Amasked	CS_A	1pleas	distractor2	EVAbeforeCON	AMP_distractor	AMP23	9	10	0	0	300	300	0	0	757	46	-37,1093749999999928946	0	0	0	0	1	blank2r.bmp	0	1	QYSB	0	1	blank2r.bmp	79	82	pic82.bmp	199	1	whitenoise_No3.bmp	306	0	0	0	0	0	0	0	0	0	0	0	0	0	0	0	0	0	0	0	0	0	0	0	0	0	0	0	0	0	0	0	0	0	0	0	0	0	0	0
032019	13:54:27	14:09:30	902855	5.0.10.0	4_exp_EVA_AMP_AWA_CON	170	Rpleas_acq	Same	Rpleas	Amasked	CS_A	1pleas	distractor2	EVAbeforeCON	AMP_CSpleas	AMP23	9	11	0	0	300	300	0	0	364	50	-37,1093749999999928946	1	0	0	0	1	blank2r.bmp	0	1	CPLW	0	1	blank2r.bmp	79	83	pic83.bmp	199	1	whitenoise_No3.bmp	306	0	0	0	0	0	0	0	0	0	0	0	0	0	0	0	0	0	0	0	0	0	0	0	0	0	0	0	0	0	0	0	0	0	0	0	0	0	0	0
032019	13:54:27	14:09:32	904148	5.0.10.0	4_exp_EVA_AMP_AWA_CON	170	Rpleas_acq	Same	Rpleas	Amasked	CS_A	1pleas	distractor2	EVAbeforeCON	AMP_CSunple	AMP23	9	12	0	0	300	300	0	0	383	50	-37,1093749999999928946	0	0	0	0	1	blank2r.bmp	0	1	DHJF	0	1	blank2r.bmp	79	137	pic137.bmp	199	1	whitenoise_No3.bmp	306	0	0	0	0	0	0	0	0	0	0	0	0	0	0	0	0	0	0	0	0	0	0	0	0	0	0	0	0	0	0	0	0	0	0	0	0	0	0	0
032019	13:54:27	14:09:33	905427	5.0.10.0	4_exp_EVA_AMP_AWA_CON	170	Rpleas_acq	Same	Rpleas	Amasked	CS_A	1pleas	distractor2	EVAbeforeCON	AMP_distractor	AMP23	9	13	0	0	300	300	0	0	353	46	-37,1093749999999928946	0	0	0	0	1	blank2r.bmp	0	1	QYSB	0	1	blank2r.bmp	79	47	pic47.bmp	199	1	whitenoise_No3.bmp	306	0	0	0	0	0	0	0	0	0	0	0	0	0	0	0	0	0	0	0	0	0	0	0	0	0	0	0	0	0	0	0	0	0	0	0	0	0	0	0
032019	13:54:27	14:09:34	906680	5.0.10.0	4_exp_EVA_AMP_AWA_CON	170	Rpleas_acq	Same	Rpleas	Amasked	CS_A	1pleas	distractor2	EVAbeforeCON	AMP_CSpleas	AMP23	9	14	0	0	300	300	0	0	331	50	-37,1093749999999928946	1	0	0	0	1	blank2r.bmp	0	1	CPLW	0	1	blank2r.bmp	79	39	pic39.bmp	199	1	whitenoise_No3.bmp	306	0	0	0	0	0	0	0	0	0	0	0	0	0	0	0	0	0	0	0	0	0	0	0	0	0	0	0	0	0	0	0	0	0	0	0	0	0	0	0
032019	13:54:27	14:09:36	907973	5.0.10.0	4_exp_EVA_AMP_AWA_CON	170	Rpleas_acq	Same	Rpleas	Amasked	CS_A	1pleas	distractor2	EVAbeforeCON	AMP_distractor	AMP23	9	15	0	0	300	300	0	0	358	46	-37,1093749999999928946	0	0	0	0	1	blank2r.bmp	0	1	QYSB	0	1	blank2r.bmp	79	60	pic60.bmp	199	1	whitenoise_No3.bmp	306	0	0	0	0	0	0	0	0	0	0	0	0	0	0	0	0	0	0	0	0	0	0	0	0	0	0	0	0	0	0	0	0	0	0	0	0	0	0	0
032019	13:54:27	14:09:37	909279	5.0.10.0	4_exp_EVA_AMP_AWA_CON	170	Rpleas_acq	Same	Rpleas	Amasked	CS_A	1pleas	distractor2	EVAbeforeCON	AMP_CSpleas	AMP23	9	16	0	0	300	300	0	0	387	46	-37,1093749999999928946	0	0	0	0	1	blank2r.bmp	0	1	CPLW	0	1	blank2r.bmp	79	69	pic69.bmp	199	1	whitenoise_No3.bmp	306	0	0	0	0	0	0	0	0	0	0	0	0	0	0	0	0	0	0	0	0	0	0	0	0	0	0	0	0	0	0	0	0	0	0	0	0	0	0	0
032019	13:54:27	14:09:38	910732	5.0.10.0	4_exp_EVA_AMP_AWA_CON	170	Rpleas_acq	Same	Rpleas	Amasked	CS_A	1pleas	distractor2	EVAbeforeCON	AMP_CSpleas	AMP23	9	17	0	0	300	300	0	0	521	46	-37,1093749999999928946	0	0	0	0	1	blank2r.bmp	0	1	CPLW	0	1	blank2r.bmp	79	84	pic84.bmp	199	1	whitenoise_No3.bmp	306	0	0	0	0	0	0	0	0	0	0	0	0	0	0	0	0	0	0	0	0	0	0	0	0	0	0	0	0	0	0	0	0	0	0	0	0	0	0	0
032019	13:54:27	14:09:40	912038	5.0.10.0	4_exp_EVA_AMP_AWA_CON	170	Rpleas_acq	Same	Rpleas	Amasked	CS_A	1pleas	distractor2	EVAbeforeCON	AMP_CSunple	AMP23	9	18	0	0	300	300	0	0	398	46	-37,1093749999999928946	1	0	0	0	1	blank2r.bmp	0	1	DHJF	0	1	blank2r.bmp	79	59	pic59.bmp	199	1	whitenoise_No3.bmp	306	0	0	0	0	0	0	0	0	0	0	0	0	0	0	0	0	0	0	0	0	0	0	0	0	0	0	0	0	0	0	0	0	0	0	0	0	0	0	0
032019	13:54:27	14:09:41	913371	5.0.10.0	4_exp_EVA_AMP_AWA_CON	170	Rpleas_acq	Same	Rpleas	Amasked	CS_A	1pleas	distractor2	EVAbeforeCON	AMP_CSpleas	AMP23	9	19	0	0	300	300	0	0	402	50	-37,1093749999999928946	1	0	0	0	1	blank2r.bmp	0	1	CPLW	0	1	blank2r.bmp	79	152	pic152.bmp	199	1	whitenoise_No3.bmp	306	0	0	0	0	0	0	0	0	0	0	0	0	0	0	0	0	0	0	0	0	0	0	0	0	0	0	0	0	0	0	0	0	0	0	0	0	0	0	0
032019	13:54:27	14:09:42	914597	5.0.10.0	4_exp_EVA_AMP_AWA_CON	170	Rpleas_acq	Same	Rpleas	Amasked	CS_A	1pleas	distractor2	EVAbeforeCON	AMP_distractor	AMP23	9	20	0	0	300	300	0	0	314	50	-37,1093749999999928946	0	0	0	0	1	blank2r.bmp	0	1	QYSB	0	1	blank2r.bmp	79	141	pic141.bmp	199	1	whitenoise_No3.bmp	306	0	0	0	0	0	0	0	0	0	0	0	0	0	0	0	0	0	0	0	0	0	0	0	0	0	0	0	0	0	0	0	0	0	0	0	0	0	0	0
032019	13:54:27	14:09:44	916076	5.0.10.0	4_exp_EVA_AMP_AWA_CON	170	Rpleas_acq	Same	Rpleas	Amasked	CS_A	1pleas	distractor2	EVAbeforeCON	AMP_CSunple	AMP23	9	21	0	0	300	300	0	0	547	46	-37,1093749999999928946	1	0	0	0	1	blank2r.bmp	0	1	DHJF	0	1	blank2r.bmp	79	87	pic87.bmp	199	1	whitenoise_No3.bmp	306	0	0	0	0	0	0	0	0	0	0	0	0	0	0	0	0	0	0	0	0	0	0	0	0	0	0	0	0	0	0	0	0	0	0	0	0	0	0	0
032019	13:54:27	14:09:45	917329	5.0.10.0	4_exp_EVA_AMP_AWA_CON	170	Rpleas_acq	Same	Rpleas	Amasked	CS_A	1pleas	distractor2	EVAbeforeCON	AMP_distractor	AMP23	9	22	0	0	300	300	0	0	334	46	-37,1093749999999928946	0	0	0	0	1	blank2r.bmp	0	1	QYSB	0	1	blank2r.bmp	79	14	pic14.bmp	199	1	whitenoise_No3.bmp	306	0	0	0	0	0	0	0	0	0	0	0	0	0	0	0	0	0	0	0	0	0	0	0	0	0	0	0	0	0	0	0	0	0	0	0	0	0	0	0
032019	13:54:27	14:09:46	918715	5.0.10.0	4_exp_EVA_AMP_AWA_CON	170	Rpleas_acq	Same	Rpleas	Amasked	CS_A	1pleas	distractor2	EVAbeforeCON	AMP_CSpleas	AMP23	9	23	0	0	300	300	0	0	460	50	-37,1093749999999928946	1	0	0	0	1	blank2r.bmp	0	1	CPLW	0	1	blank2r.bmp	79	139	pic139.bmp	199	1	whitenoise_No3.bmp	306	0	0	0	0	0	0	0	0	0	0	0	0	0	0	0	0	0	0	0	0	0	0	0	0	0	0	0	0	0	0	0	0	0	0	0	0	0	0	0
