date	time	script.currenttime	script.elapsedtime	build	script.currentexpt	subject	expressions.LRpleas_acq	expressions.SameOppo	expressions.condition_Lpleas	expressions.ABmasked	expressions.conditionCS_A	expressions.condition_1pleas	expressions.condition_distractor_AMP	expressions.AWACON_AMPEVA_first	trialcode	blockcode	blocknum	trialnum	windowcenter	inwindow	pretrialpause	posttrialpause	trialduration	trialtimeout	latency	response	expressions.correctedscore	correct	values.vis_performance	values.vis_rating_sum	values.vis_rating_mean	stimulusnumber1	stimulusitem1	stimulusonset1	stimulusnumber2	stimulusitem2	stimulusonset2	stimulusnumber3	stimulusitem3	stimulusonset3	stimulusnumber4	stimulusitem4	stimulusonset4	stimulusnumber5	stimulusitem5	stimulusonset5	stimulusnumber6	stimulusitem6	stimulusonset6	stimulusnumber7	stimulusitem7	stimulusonset7	stimulusnumber8	stimulusitem8	stimulusonset8	stimulusnumber9	stimulusitem9	stimulusonset9	stimulusnumber10	stimulusitem10	stimulusonset10	stimulusnumber11	stimulusitem11	stimulusonset11	stimulusnumber12	stimulusitem12	stimulusonset12	stimulusnumber13	stimulusitem13	stimulusonset13	stimulusnumber14	stimulusitem14	stimulusonset14	stimulusnumber15	stimulusitem15	stimulusonset15	stimulusnumber16	stimulusitem16	stimulusonset16	stimulusnumber17	stimulusitem17	stimulusonset17	stimulusnumber18	stimulusitem18	stimulusonset18
121218	11:32:23	11:34:29	125880	5.0.10.0	4_exp_AMP_EVA_AWA_CON	8	Rpleas_acq	Oppo	Rpleas	Bmasked	CS_B	1pleas	distractor2	EVAbeforeCON	acq_US_unple_masked	acq1_masked	1	1	0	0	300	300	0	0	1661	46	0	1	0	0	0	1	blank2r.bmp	0	1	+	0	1	B1r.bmp	492	1	blank2r.bmp	786	1	GKQX	786	1	blank2r.bmp	866	1	strafen	866	0	0	0	0	0	0	0	0	0	0	0	0	0	0	0	0	0	0	0	0	0	0	0	0	0	0	0	0	0	0	0	0	0
121218	11:32:23	11:34:32	128265	5.0.10.0	4_exp_AMP_EVA_AWA_CON	8	Rpleas_acq	Oppo	Rpleas	Bmasked	CS_B	1pleas	distractor2	EVAbeforeCON	acq_new_unple_masked	acq1_masked	1	2	0	0	300	300	0	0	896	46	0	1	0	0	0	1	blank2r.bmp	0	1	+	0	8	C4r.bmp	492	1	blank2r.bmp	786	5	C1r.bmp	786	1	blank2r.bmp	866	2	tot	866	0	0	0	0	0	0	0	0	0	0	0	0	0	0	0	0	0	0	0	0	0	0	0	0	0	0	0	0	0	0	0	0	0
121218	11:32:23	11:34:34	130518	5.0.10.0	4_exp_AMP_EVA_AWA_CON	8	Rpleas_acq	Oppo	Rpleas	Bmasked	CS_B	1pleas	distractor2	EVAbeforeCON	acq_new_pleas_masked	acq1_masked	1	3	0	0	300	300	0	0	780	50	0	1	0	0	0	1	blank2r.bmp	0	1	+	0	2	B2r.bmp	492	1	blank2r.bmp	786	8	C4r.bmp	786	1	blank2r.bmp	866	6	tolerant	866	0	0	0	0	0	0	0	0	0	0	0	0	0	0	0	0	0	0	0	0	0	0	0	0	0	0	0	0	0	0	0	0	0
121218	11:32:23	11:34:36	132637	5.0.10.0	4_exp_AMP_EVA_AWA_CON	8	Rpleas_acq	Oppo	Rpleas	Bmasked	CS_B	1pleas	distractor2	EVAbeforeCON	acq_US_pleas_masked	acq1_masked	1	4	0	0	300	300	0	0	628	50	0	1	0	0	0	1	blank2r.bmp	0	1	+	0	3	B3r.bmp	492	1	blank2r.bmp	786	1	BMVZ	786	1	blank2r.bmp	866	5	helfen	866	0	0	0	0	0	0	0	0	0	0	0	0	0	0	0	0	0	0	0	0	0	0	0	0	0	0	0	0	0	0	0	0	0
121218	11:32:23	11:34:38	134863	5.0.10.0	4_exp_AMP_EVA_AWA_CON	8	Rpleas_acq	Oppo	Rpleas	Bmasked	CS_B	1pleas	distractor2	EVAbeforeCON	acq_new_unple_masked	acq1_masked	1	5	0	0	300	300	0	0	751	46	0	1	0	0	0	1	blank2r.bmp	0	1	+	0	6	C2r.bmp	492	1	blank2r.bmp	786	1	B1r.bmp	786	1	blank2r.bmp	866	6	tyrannisch	866	0	0	0	0	0	0	0	0	0	0	0	0	0	0	0	0	0	0	0	0	0	0	0	0	0	0	0	0	0	0	0	0	0
121218	11:32:23	11:34:40	136875	5.0.10.0	4_exp_AMP_EVA_AWA_CON	8	Rpleas_acq	Oppo	Rpleas	Bmasked	CS_B	1pleas	distractor2	EVAbeforeCON	acq_new_pleas_masked	acq1_masked	1	6	0	0	300	300	0	0	542	50	0	1	0	0	0	1	blank2r.bmp	0	1	+	0	7	C3r.bmp	492	1	blank2r.bmp	786	6	C2r.bmp	786	1	blank2r.bmp	866	4	fair	866	0	0	0	0	0	0	0	0	0	0	0	0	0	0	0	0	0	0	0	0	0	0	0	0	0	0	0	0	0	0	0	0	0
121218	11:32:23	11:34:42	138994	5.0.10.0	4_exp_AMP_EVA_AWA_CON	8	Rpleas_acq	Oppo	Rpleas	Bmasked	CS_B	1pleas	distractor2	EVAbeforeCON	acq_US_unple_masked	acq1_masked	1	7	0	0	300	300	0	0	651	46	0	1	0	0	0	1	blank2r.bmp	0	1	+	0	4	B4r.bmp	492	1	blank2r.bmp	786	1	GKQX	786	1	blank2r.bmp	866	2	leiden	866	0	0	0	0	0	0	0	0	0	0	0	0	0	0	0	0	0	0	0	0	0	0	0	0	0	0	0	0	0	0	0	0	0
121218	11:32:23	11:34:45	141193	5.0.10.0	4_exp_AMP_EVA_AWA_CON	8	Rpleas_acq	Oppo	Rpleas	Bmasked	CS_B	1pleas	distractor2	EVAbeforeCON	acq_US_pleas_masked	acq1_masked	1	8	0	0	300	300	0	0	712	50	0	1	0	0	0	1	blank2r.bmp	0	1	+	0	5	C1r.bmp	492	1	blank2r.bmp	786	1	BMVZ	786	1	blank2r.bmp	866	3	retten	866	0	0	0	0	0	0	0	0	0	0	0	0	0	0	0	0	0	0	0	0	0	0	0	0	0	0	0	0	0	0	0	0	0
121218	11:32:23	11:34:46	143086	5.0.10.0	4_exp_AMP_EVA_AWA_CON	8	Rpleas_acq	Oppo	Rpleas	Bmasked	CS_B	1pleas	distractor2	EVAbeforeCON	acq_new_pleas_masked	acq1_masked	1	9	0	0	300	300	0	0	401	50	0	1	0	0	0	1	blank2r.bmp	0	1	+	0	1	B1r.bmp	492	1	blank2r.bmp	786	2	B2r.bmp	786	1	blank2r.bmp	866	1	freundlich	866	0	0	0	0	0	0	0	0	0	0	0	0	0	0	0	0	0	0	0	0	0	0	0	0	0	0	0	0	0	0	0	0	0
121218	11:32:23	11:34:48	145072	5.0.10.0	4_exp_AMP_EVA_AWA_CON	8	Rpleas_acq	Oppo	Rpleas	Bmasked	CS_B	1pleas	distractor2	EVAbeforeCON	acq_new_unple_masked	acq1_masked	1	10	0	0	300	300	0	0	509	46	0	1	0	0	0	1	blank2r.bmp	0	1	+	0	4	B4r.bmp	492	1	blank2r.bmp	786	3	B3r.bmp	786	1	blank2r.bmp	866	5	schlecht	866	0	0	0	0	0	0	0	0	0	0	0	0	0	0	0	0	0	0	0	0	0	0	0	0	0	0	0	0	0	0	0	0	0
121218	11:32:23	11:34:50	147084	5.0.10.0	4_exp_AMP_EVA_AWA_CON	8	Rpleas_acq	Oppo	Rpleas	Bmasked	CS_B	1pleas	distractor2	EVAbeforeCON	acq_US_unple_masked	acq1_masked	1	11	0	0	300	300	0	0	519	46	0	1	0	0	0	1	blank2r.bmp	0	1	+	0	7	C3r.bmp	492	1	blank2r.bmp	786	1	GKQX	786	1	blank2r.bmp	866	3	rächen	866	0	0	0	0	0	0	0	0	0	0	0	0	0	0	0	0	0	0	0	0	0	0	0	0	0	0	0	0	0	0	0	0	0
121218	11:32:23	11:34:52	148977	5.0.10.0	4_exp_AMP_EVA_AWA_CON	8	Rpleas_acq	Oppo	Rpleas	Bmasked	CS_B	1pleas	distractor2	EVAbeforeCON	acq_US_pleas_masked	acq1_masked	1	12	0	0	300	300	0	0	422	50	0	1	0	0	0	1	blank2r.bmp	0	1	+	0	3	B3r.bmp	492	1	blank2r.bmp	786	1	BMVZ	786	1	blank2r.bmp	866	4	loyal	866	0	0	0	0	0	0	0	0	0	0	0	0	0	0	0	0	0	0	0	0	0	0	0	0	0	0	0	0	0	0	0	0	0
121218	11:32:23	11:34:55	151162	5.0.10.0	4_exp_AMP_EVA_AWA_CON	8	Rpleas_acq	Oppo	Rpleas	Bmasked	CS_B	1pleas	distractor2	EVAbeforeCON	acq_new_unple_masked	acq1_masked	1	13	0	0	300	300	0	0	497	50	0	0	0	0	0	1	blank2r.bmp	0	1	+	0	5	C1r.bmp	492	1	blank2r.bmp	786	7	C3r.bmp	786	1	blank2r.bmp	866	3	eitel	866	1	FEHLER	1399	0	0	0	0	0	0	0	0	0	0	0	0	0	0	0	0	0	0	0	0	0	0	0	0	0	0	0	0	0	0
121218	11:32:23	11:34:58	154334	5.0.10.0	4_exp_AMP_EVA_AWA_CON	8	Rpleas_acq	Oppo	Rpleas	Bmasked	CS_B	1pleas	distractor2	EVAbeforeCON	acq_US_unple_masked	acq1_masked	1	14	0	0	300	300	0	0	1896	46	0	1	0	0	0	1	blank2r.bmp	0	1	+	0	8	C4r.bmp	492	1	blank2r.bmp	786	1	GKQX	786	1	blank2r.bmp	866	5	hindern	866	0	0	0	0	0	0	0	0	0	0	0	0	0	0	0	0	0	0	0	0	0	0	0	0	0	0	0	0	0	0	0	0	0
121218	11:32:23	11:35:00	156347	5.0.10.0	4_exp_AMP_EVA_AWA_CON	8	Rpleas_acq	Oppo	Rpleas	Bmasked	CS_B	1pleas	distractor2	EVAbeforeCON	acq_US_pleas_masked	acq1_masked	1	15	0	0	300	300	0	0	533	50	0	1	0	0	0	1	blank2r.bmp	0	1	+	0	2	B2r.bmp	492	1	blank2r.bmp	786	1	BMVZ	786	1	blank2r.bmp	866	2	lachen	866	0	0	0	0	0	0	0	0	0	0	0	0	0	0	0	0	0	0	0	0	0	0	0	0	0	0	0	0	0	0	0	0	0
121218	11:32:23	11:35:02	158519	5.0.10.0	4_exp_AMP_EVA_AWA_CON	8	Rpleas_acq	Oppo	Rpleas	Bmasked	CS_B	1pleas	distractor2	EVAbeforeCON	acq_new_pleas_masked	acq1_masked	1	16	0	0	300	300	0	0	699	50	0	1	0	0	0	1	blank2r.bmp	0	1	+	0	6	C2r.bmp	492	1	blank2r.bmp	786	4	B4r.bmp	786	1	blank2r.bmp	866	2	treu	866	0	0	0	0	0	0	0	0	0	0	0	0	0	0	0	0	0	0	0	0	0	0	0	0	0	0	0	0	0	0	0	0	0
121218	11:32:23	11:35:04	160692	5.0.10.0	4_exp_AMP_EVA_AWA_CON	8	Rpleas_acq	Oppo	Rpleas	Bmasked	CS_B	1pleas	distractor2	EVAbeforeCON	acq_US_unple_masked	acq1_masked	1	17	0	0	300	300	0	0	691	46	0	1	0	0	0	1	blank2r.bmp	0	1	+	0	1	B1r.bmp	492	1	blank2r.bmp	786	1	GKQX	786	1	blank2r.bmp	866	4	lasch	866	0	0	0	0	0	0	0	0	0	0	0	0	0	0	0	0	0	0	0	0	0	0	0	0	0	0	0	0	0	0	0	0	0
121218	11:32:23	11:35:06	163117	5.0.10.0	4_exp_AMP_EVA_AWA_CON	8	Rpleas_acq	Oppo	Rpleas	Bmasked	CS_B	1pleas	distractor2	EVAbeforeCON	acq_US_pleas_masked	acq1_masked	1	18	0	0	300	300	0	0	941	50	0	1	0	0	0	1	blank2r.bmp	0	1	+	0	5	C1r.bmp	492	1	blank2r.bmp	786	1	BMVZ	786	1	blank2r.bmp	866	6	schlau	866	0	0	0	0	0	0	0	0	0	0	0	0	0	0	0	0	0	0	0	0	0	0	0	0	0	0	0	0	0	0	0	0	0
121218	11:32:23	11:35:09	165463	5.0.10.0	4_exp_AMP_EVA_AWA_CON	8	Rpleas_acq	Oppo	Rpleas	Bmasked	CS_B	1pleas	distractor2	EVAbeforeCON	acq_new_unple_masked	acq1_masked	1	19	0	0	300	300	0	0	862	46	0	1	0	0	0	1	blank2r.bmp	0	1	+	0	2	B2r.bmp	492	1	blank2r.bmp	786	1	B1r.bmp	786	1	blank2r.bmp	866	4	faul	866	0	0	0	0	0	0	0	0	0	0	0	0	0	0	0	0	0	0	0	0	0	0	0	0	0	0	0	0	0	0	0	0	0
121218	11:32:23	11:35:11	167689	5.0.10.0	4_exp_AMP_EVA_AWA_CON	8	Rpleas_acq	Oppo	Rpleas	Bmasked	CS_B	1pleas	distractor2	EVAbeforeCON	acq_US_pleas_masked	acq1_masked	1	20	0	0	300	300	0	0	743	50	0	1	0	0	0	1	blank2r.bmp	0	1	+	0	6	C2r.bmp	492	1	blank2r.bmp	786	1	BMVZ	786	1	blank2r.bmp	866	1	spielen	866	0	0	0	0	0	0	0	0	0	0	0	0	0	0	0	0	0	0	0	0	0	0	0	0	0	0	0	0	0	0	0	0	0
121218	11:32:23	11:35:13	169661	5.0.10.0	4_exp_AMP_EVA_AWA_CON	8	Rpleas_acq	Oppo	Rpleas	Bmasked	CS_B	1pleas	distractor2	EVAbeforeCON	acq_new_pleas_masked	acq1_masked	1	21	0	0	300	300	0	0	485	50	0	1	0	0	0	1	blank2r.bmp	0	1	+	0	8	C4r.bmp	492	1	blank2r.bmp	786	5	C1r.bmp	786	1	blank2r.bmp	866	5	schön	866	0	0	0	0	0	0	0	0	0	0	0	0	0	0	0	0	0	0	0	0	0	0	0	0	0	0	0	0	0	0	0	0	0
121218	11:32:23	11:35:15	172007	5.0.10.0	4_exp_AMP_EVA_AWA_CON	8	Rpleas_acq	Oppo	Rpleas	Bmasked	CS_B	1pleas	distractor2	EVAbeforeCON	acq_new_unple_masked	acq1_masked	1	22	0	0	300	300	0	0	646	50	0	0	0	0	0	1	blank2r.bmp	0	1	+	0	4	B4r.bmp	492	1	blank2r.bmp	786	8	C4r.bmp	786	1	blank2r.bmp	866	1	fanatisch	866	1	FEHLER	1546	0	0	0	0	0	0	0	0	0	0	0	0	0	0	0	0	0	0	0	0	0	0	0	0	0	0	0	0	0	0
121218	11:32:23	11:35:17	173860	5.0.10.0	4_exp_AMP_EVA_AWA_CON	8	Rpleas_acq	Oppo	Rpleas	Bmasked	CS_B	1pleas	distractor2	EVAbeforeCON	acq_US_unple_masked	acq1_masked	1	23	0	0	300	300	0	0	574	46	0	1	0	0	0	1	blank2r.bmp	0	1	+	0	3	B3r.bmp	492	1	blank2r.bmp	786	1	GKQX	786	1	blank2r.bmp	866	6	schroff	866	0	0	0	0	0	0	0	0	0	0	0	0	0	0	0	0	0	0	0	0	0	0	0	0	0	0	0	0	0	0	0	0	0
121218	11:32:23	11:35:19	176005	5.0.10.0	4_exp_AMP_EVA_AWA_CON	8	Rpleas_acq	Oppo	Rpleas	Bmasked	CS_B	1pleas	distractor2	EVAbeforeCON	acq_new_pleas_masked	acq1_masked	1	24	0	0	300	300	0	0	658	50	0	1	0	0	0	1	blank2r.bmp	0	1	+	0	7	C3r.bmp	492	1	blank2r.bmp	786	6	C2r.bmp	786	1	blank2r.bmp	866	3	ehrlich	866	0	0	0	0	0	0	0	0	0	0	0	0	0	0	0	0	0	0	0	0	0	0	0	0	0	0	0	0	0	0	0	0	0
121218	11:32:23	11:35:22	178151	5.0.10.0	4_exp_AMP_EVA_AWA_CON	8	Rpleas_acq	Oppo	Rpleas	Bmasked	CS_B	1pleas	distractor2	EVAbeforeCON	acq_US_pleas_masked	acq1_masked	1	25	0	0	300	300	0	0	656	50	0	1	0	0	0	1	blank2r.bmp	0	1	+	0	6	C2r.bmp	492	1	blank2r.bmp	786	1	BMVZ	786	1	blank2r.bmp	866	3	retten	866	0	0	0	0	0	0	0	0	0	0	0	0	0	0	0	0	0	0	0	0	0	0	0	0	0	0	0	0	0	0	0	0	0
121218	11:32:23	11:35:24	180177	5.0.10.0	4_exp_AMP_EVA_AWA_CON	8	Rpleas_acq	Oppo	Rpleas	Bmasked	CS_B	1pleas	distractor2	EVAbeforeCON	acq_new_unple_masked	acq1_masked	1	26	0	0	300	300	0	0	551	46	0	1	0	0	0	1	blank2r.bmp	0	1	+	0	4	B4r.bmp	492	1	blank2r.bmp	786	2	B2r.bmp	786	1	blank2r.bmp	866	5	schlecht	866	0	0	0	0	0	0	0	0	0	0	0	0	0	0	0	0	0	0	0	0	0	0	0	0	0	0	0	0	0	0	0	0	0
121218	11:32:23	11:35:26	182909	5.0.10.0	4_exp_AMP_EVA_AWA_CON	8	Rpleas_acq	Oppo	Rpleas	Bmasked	CS_B	1pleas	distractor2	EVAbeforeCON	acq_US_unple_masked	acq1_masked	1	27	0	0	300	300	0	0	1249	46	0	1	0	0	0	1	blank2r.bmp	0	1	+	0	2	B2r.bmp	492	1	blank2r.bmp	786	1	GKQX	786	1	blank2r.bmp	866	3	rächen	866	0	0	0	0	0	0	0	0	0	0	0	0	0	0	0	0	0	0	0	0	0	0	0	0	0	0	0	0	0	0	0	0	0
121218	11:32:23	11:35:29	185348	5.0.10.0	4_exp_AMP_EVA_AWA_CON	8	Rpleas_acq	Oppo	Rpleas	Bmasked	CS_B	1pleas	distractor2	EVAbeforeCON	acq_US_unple_masked	acq1_masked	1	28	0	0	300	300	0	0	959	46	0	1	0	0	0	1	blank2r.bmp	0	1	+	0	5	C1r.bmp	492	1	blank2r.bmp	786	1	GKQX	786	1	blank2r.bmp	866	5	hindern	866	0	0	0	0	0	0	0	0	0	0	0	0	0	0	0	0	0	0	0	0	0	0	0	0	0	0	0	0	0	0	0	0	0
121218	11:32:23	11:35:31	187534	5.0.10.0	4_exp_AMP_EVA_AWA_CON	8	Rpleas_acq	Oppo	Rpleas	Bmasked	CS_B	1pleas	distractor2	EVAbeforeCON	acq_new_unple_masked	acq1_masked	1	29	0	0	300	300	0	0	709	46	0	1	0	0	0	1	blank2r.bmp	0	1	+	0	7	C3r.bmp	492	1	blank2r.bmp	786	3	B3r.bmp	786	1	blank2r.bmp	866	1	fanatisch	866	0	0	0	0	0	0	0	0	0	0	0	0	0	0	0	0	0	0	0	0	0	0	0	0	0	0	0	0	0	0	0	0	0
121218	11:32:23	11:35:33	189706	5.0.10.0	4_exp_AMP_EVA_AWA_CON	8	Rpleas_acq	Oppo	Rpleas	Bmasked	CS_B	1pleas	distractor2	EVAbeforeCON	acq_new_unple_masked	acq1_masked	1	30	0	0	300	300	0	0	702	46	0	1	0	0	0	1	blank2r.bmp	0	1	+	0	8	C4r.bmp	492	1	blank2r.bmp	786	7	C3r.bmp	786	1	blank2r.bmp	866	6	tyrannisch	866	0	0	0	0	0	0	0	0	0	0	0	0	0	0	0	0	0	0	0	0	0	0	0	0	0	0	0	0	0	0	0	0	0
121218	11:32:23	11:35:35	191932	5.0.10.0	4_exp_AMP_EVA_AWA_CON	8	Rpleas_acq	Oppo	Rpleas	Bmasked	CS_B	1pleas	distractor2	EVAbeforeCON	acq_new_pleas_masked	acq1_masked	1	31	0	0	300	300	0	0	733	50	0	1	0	0	0	1	blank2r.bmp	0	1	+	0	3	B3r.bmp	492	1	blank2r.bmp	786	4	B4r.bmp	786	1	blank2r.bmp	866	3	ehrlich	866	0	0	0	0	0	0	0	0	0	0	0	0	0	0	0	0	0	0	0	0	0	0	0	0	0	0	0	0	0	0	0	0	0
121218	11:32:23	11:35:37	193785	5.0.10.0	4_exp_AMP_EVA_AWA_CON	8	Rpleas_acq	Oppo	Rpleas	Bmasked	CS_B	1pleas	distractor2	EVAbeforeCON	acq_US_pleas_masked	acq1_masked	1	32	0	0	300	300	0	0	383	50	0	1	0	0	0	1	blank2r.bmp	0	1	+	0	1	B1r.bmp	492	1	blank2r.bmp	786	1	BMVZ	786	1	blank2r.bmp	866	2	lachen	866	0	0	0	0	0	0	0	0	0	0	0	0	0	0	0	0	0	0	0	0	0	0	0	0	0	0	0	0	0	0	0	0	0
121218	11:32:23	11:35:39	195770	5.0.10.0	4_exp_AMP_EVA_AWA_CON	8	Rpleas_acq	Oppo	Rpleas	Bmasked	CS_B	1pleas	distractor2	EVAbeforeCON	acq_new_pleas_masked	acq1_masked	1	33	0	0	300	300	0	0	494	50	0	1	0	0	0	1	blank2r.bmp	0	1	+	0	3	B3r.bmp	492	1	blank2r.bmp	786	2	B2r.bmp	786	1	blank2r.bmp	866	5	schön	866	0	0	0	0	0	0	0	0	0	0	0	0	0	0	0	0	0	0	0	0	0	0	0	0	0	0	0	0	0	0	0	0	0
121218	11:32:23	11:35:41	197743	5.0.10.0	4_exp_AMP_EVA_AWA_CON	8	Rpleas_acq	Oppo	Rpleas	Bmasked	CS_B	1pleas	distractor2	EVAbeforeCON	acq_US_pleas_masked	acq1_masked	1	34	0	0	300	300	0	0	502	50	0	1	0	0	0	1	blank2r.bmp	0	1	+	0	6	C2r.bmp	492	1	blank2r.bmp	786	1	BMVZ	786	1	blank2r.bmp	866	1	spielen	866	0	0	0	0	0	0	0	0	0	0	0	0	0	0	0	0	0	0	0	0	0	0	0	0	0	0	0	0	0	0	0	0	0
121218	11:32:23	11:35:43	200062	5.0.10.0	4_exp_AMP_EVA_AWA_CON	8	Rpleas_acq	Oppo	Rpleas	Bmasked	CS_B	1pleas	distractor2	EVAbeforeCON	acq_US_unple_masked	acq1_masked	1	35	0	0	300	300	0	0	829	46	0	1	0	0	0	1	blank2r.bmp	0	1	+	0	7	C3r.bmp	492	1	blank2r.bmp	786	1	GKQX	786	1	blank2r.bmp	866	6	schroff	866	0	0	0	0	0	0	0	0	0	0	0	0	0	0	0	0	0	0	0	0	0	0	0	0	0	0	0	0	0	0	0	0	0
121218	11:32:23	11:35:46	202994	5.0.10.0	4_exp_AMP_EVA_AWA_CON	8	Rpleas_acq	Oppo	Rpleas	Bmasked	CS_B	1pleas	distractor2	EVAbeforeCON	acq_new_pleas_masked	acq1_masked	1	36	0	0	300	300	0	0	1441	50	0	1	0	0	0	1	blank2r.bmp	0	1	+	0	1	B1r.bmp	492	1	blank2r.bmp	786	8	C4r.bmp	786	1	blank2r.bmp	866	2	treu	866	0	0	0	0	0	0	0	0	0	0	0	0	0	0	0	0	0	0	0	0	0	0	0	0	0	0	0	0	0	0	0	0	0
121218	11:32:23	11:36:16	232728	5.0.10.0	4_exp_AMP_EVA_AWA_CON	8	Rpleas_acq	Oppo	Rpleas	Bmasked	CS_B	1pleas	distractor2	EVAbeforeCON	acq_US_pleas_masked	acq2_masked	2	1	480	0	300	300	0	0	931	50	0	1	0	0	0	1	blank2r.bmp	0	1	+	0	5	C1r.bmp	492	1	blank2r.bmp	786	1	BMVZ	786	1	blank2r.bmp	866	4	loyal	866	1	!	1319	1	!	-1	0	0	0	0	0	0	0	0	0	0	0	0	0	0	0	0	0	0	0	0	0	0	0	0	0	0	0
121218	11:32:23	11:36:18	234967	5.0.10.0	4_exp_AMP_EVA_AWA_CON	8	Rpleas_acq	Oppo	Rpleas	Bmasked	CS_B	1pleas	distractor2	EVAbeforeCON	acq_US_pleas_masked	acq2_masked	2	2	480	1	300	300	0	0	430	50	0	1	0	0	0	1	blank2r.bmp	0	1	+	0	4	B4r.bmp	492	1	blank2r.bmp	786	1	BMVZ	786	1	blank2r.bmp	866	5	helfen	866	1	!	1319	1	!	1332	0	0	0	0	0	0	0	0	0	0	0	0	0	0	0	0	0	0	0	0	0	0	0	0	0	0	0
121218	11:32:23	11:36:21	237340	5.0.10.0	4_exp_AMP_EVA_AWA_CON	8	Rpleas_acq	Oppo	Rpleas	Bmasked	CS_B	1pleas	distractor2	EVAbeforeCON	acq_new_pleas_masked	acq2_masked	2	3	480	0	300	300	0	0	382	46	0	0	0	0	0	1	blank2r.bmp	0	1	+	0	2	B2r.bmp	492	1	blank2r.bmp	786	4	B4r.bmp	786	1	blank2r.bmp	866	4	fair	866	1	FEHLER	1586	1	!	-1	1	!	-1	0	0	0	0	0	0	0	0	0	0	0	0	0	0	0	0	0	0	0	0	0	0	0	0
121218	11:32:23	11:36:23	239472	5.0.10.0	4_exp_AMP_EVA_AWA_CON	8	Rpleas_acq	Oppo	Rpleas	Bmasked	CS_B	1pleas	distractor2	EVAbeforeCON	acq_new_unple_masked	acq2_masked	2	4	480	0	300	300	0	0	348	50	0	0	0	0	0	1	blank2r.bmp	0	1	+	0	8	C4r.bmp	492	1	blank2r.bmp	786	5	C1r.bmp	786	1	blank2r.bmp	866	3	eitel	866	1	FEHLER	1559	1	!	-1	1	!	-1	0	0	0	0	0	0	0	0	0	0	0	0	0	0	0	0	0	0	0	0	0	0	0	0
121218	11:32:23	11:36:25	241351	5.0.10.0	4_exp_AMP_EVA_AWA_CON	8	Rpleas_acq	Oppo	Rpleas	Bmasked	CS_B	1pleas	distractor2	EVAbeforeCON	acq_US_pleas_masked	acq2_masked	2	5	480	0	300	300	0	0	329	50	0	1	0	0	0	1	blank2r.bmp	0	1	+	0	7	C3r.bmp	492	1	blank2r.bmp	786	1	BMVZ	786	1	blank2r.bmp	866	6	schlau	866	1	!	-1	1	!	-1	0	0	0	0	0	0	0	0	0	0	0	0	0	0	0	0	0	0	0	0	0	0	0	0	0	0	0
121218	11:32:23	11:36:27	243590	5.0.10.0	4_exp_AMP_EVA_AWA_CON	8	Rpleas_acq	Oppo	Rpleas	Bmasked	CS_B	1pleas	distractor2	EVAbeforeCON	acq_new_unple_masked	acq2_masked	2	6	480	1	300	300	0	0	426	46	0	1	0	0	0	1	blank2r.bmp	0	1	+	0	1	B1r.bmp	492	1	blank2r.bmp	786	7	C3r.bmp	786	1	blank2r.bmp	866	2	tot	866	1	!	1319	1	!	1332	0	0	0	0	0	0	0	0	0	0	0	0	0	0	0	0	0	0	0	0	0	0	0	0	0	0	0
121218	11:32:23	11:36:29	245989	5.0.10.0	4_exp_AMP_EVA_AWA_CON	8	Rpleas_acq	Oppo	Rpleas	Bmasked	CS_B	1pleas	distractor2	EVAbeforeCON	acq_US_unple_masked	acq2_masked	2	7	480	0	300	300	0	0	392	50	0	0	0	0	0	1	blank2r.bmp	0	1	+	0	5	C1r.bmp	492	1	blank2r.bmp	786	1	GKQX	786	1	blank2r.bmp	866	1	strafen	866	1	FEHLER	1599	1	!	-1	1	!	-1	0	0	0	0	0	0	0	0	0	0	0	0	0	0	0	0	0	0	0	0	0	0	0	0
121218	11:32:23	11:36:31	248095	5.0.10.0	4_exp_AMP_EVA_AWA_CON	8	Rpleas_acq	Oppo	Rpleas	Bmasked	CS_B	1pleas	distractor2	EVAbeforeCON	acq_new_unple_masked	acq2_masked	2	8	480	1	300	300	0	0	520	46	0	1	0	0	0	1	blank2r.bmp	0	1	+	0	8	C4r.bmp	492	1	blank2r.bmp	786	3	B3r.bmp	786	1	blank2r.bmp	866	4	faul	866	1	!	1319	1	!	1426	0	0	0	0	0	0	0	0	0	0	0	0	0	0	0	0	0	0	0	0	0	0	0	0	0	0	0
121218	11:32:23	11:36:34	250534	5.0.10.0	4_exp_AMP_EVA_AWA_CON	8	Rpleas_acq	Oppo	Rpleas	Bmasked	CS_B	1pleas	distractor2	EVAbeforeCON	acq_US_unple_masked	acq2_masked	2	9	480	1	300	300	0	0	426	50	0	0	0	0	0	1	blank2r.bmp	0	1	+	0	3	B3r.bmp	492	1	blank2r.bmp	786	1	GKQX	786	1	blank2r.bmp	866	2	leiden	866	1	FEHLER	1652	1	!	1319	1	!	1332	0	0	0	0	0	0	0	0	0	0	0	0	0	0	0	0	0	0	0	0	0	0	0	0
121218	11:32:23	11:36:36	252600	5.0.10.0	4_exp_AMP_EVA_AWA_CON	8	Rpleas_acq	Oppo	Rpleas	Bmasked	CS_B	1pleas	distractor2	EVAbeforeCON	acq_new_pleas_masked	acq2_masked	2	10	480	1	300	300	0	0	482	50	0	1	0	0	0	1	blank2r.bmp	0	1	+	0	6	C2r.bmp	492	1	blank2r.bmp	786	1	B1r.bmp	786	1	blank2r.bmp	866	6	tolerant	866	1	!	1319	1	!	1386	0	0	0	0	0	0	0	0	0	0	0	0	0	0	0	0	0	0	0	0	0	0	0	0	0	0	0
121218	11:32:23	11:36:38	254719	5.0.10.0	4_exp_AMP_EVA_AWA_CON	8	Rpleas_acq	Oppo	Rpleas	Bmasked	CS_B	1pleas	distractor2	EVAbeforeCON	acq_new_pleas_masked	acq2_masked	2	11	480	0	300	300	0	0	356	50	0	1	0	0	0	1	blank2r.bmp	0	1	+	0	4	B4r.bmp	492	1	blank2r.bmp	786	6	C2r.bmp	786	1	blank2r.bmp	866	1	freundlich	866	1	!	-1	1	!	-1	0	0	0	0	0	0	0	0	0	0	0	0	0	0	0	0	0	0	0	0	0	0	0	0	0	0	0
121218	11:32:23	11:36:40	256958	5.0.10.0	4_exp_AMP_EVA_AWA_CON	8	Rpleas_acq	Oppo	Rpleas	Bmasked	CS_B	1pleas	distractor2	EVAbeforeCON	acq_US_unple_masked	acq2_masked	2	12	480	1	300	300	0	0	426	46	0	1	0	0	0	1	blank2r.bmp	0	1	+	0	2	B2r.bmp	492	1	blank2r.bmp	786	1	GKQX	786	1	blank2r.bmp	866	4	lasch	866	1	!	1319	1	!	1332	0	0	0	0	0	0	0	0	0	0	0	0	0	0	0	0	0	0	0	0	0	0	0	0	0	0	0
121218	11:32:23	11:36:43	259197	5.0.10.0	4_exp_AMP_EVA_AWA_CON	8	Rpleas_acq	Oppo	Rpleas	Bmasked	CS_B	1pleas	distractor2	EVAbeforeCON	acq_new_unple_masked	acq2_masked	2	13	480	1	300	300	0	0	426	46	0	1	0	0	0	1	blank2r.bmp	0	1	+	0	7	C3r.bmp	492	1	blank2r.bmp	786	6	C2r.bmp	786	1	blank2r.bmp	866	2	tot	866	1	!	1319	1	!	1332	0	0	0	0	0	0	0	0	0	0	0	0	0	0	0	0	0	0	0	0	0	0	0	0	0	0	0
121218	11:32:23	11:36:45	261569	5.0.10.0	4_exp_AMP_EVA_AWA_CON	8	Rpleas_acq	Oppo	Rpleas	Bmasked	CS_B	1pleas	distractor2	EVAbeforeCON	acq_US_unple_masked	acq2_masked	2	14	480	0	300	300	0	0	388	50	0	0	0	0	0	1	blank2r.bmp	0	1	+	0	8	C4r.bmp	492	1	blank2r.bmp	786	1	GKQX	786	1	blank2r.bmp	866	1	strafen	866	1	FEHLER	1599	1	!	-1	1	!	-1	0	0	0	0	0	0	0	0	0	0	0	0	0	0	0	0	0	0	0	0	0	0	0	0
121218	11:32:23	11:36:47	263848	5.0.10.0	4_exp_AMP_EVA_AWA_CON	8	Rpleas_acq	Oppo	Rpleas	Bmasked	CS_B	1pleas	distractor2	EVAbeforeCON	acq_US_unple_masked	acq2_masked	2	15	480	1	300	300	0	0	481	50	0	0	0	0	0	1	blank2r.bmp	0	1	+	0	2	B2r.bmp	492	1	blank2r.bmp	786	1	GKQX	786	1	blank2r.bmp	866	5	hindern	866	1	FEHLER	1705	1	!	1319	1	!	1386	0	0	0	0	0	0	0	0	0	0	0	0	0	0	0	0	0	0	0	0	0	0	0	0
121218	11:32:23	11:36:49	265914	5.0.10.0	4_exp_AMP_EVA_AWA_CON	8	Rpleas_acq	Oppo	Rpleas	Bmasked	CS_B	1pleas	distractor2	EVAbeforeCON	acq_new_pleas_masked	acq2_masked	2	16	480	1	300	300	0	0	473	50	0	1	0	0	0	1	blank2r.bmp	0	1	+	0	3	B3r.bmp	492	1	blank2r.bmp	786	5	C1r.bmp	786	1	blank2r.bmp	866	5	schön	866	1	!	1319	1	!	1372	0	0	0	0	0	0	0	0	0	0	0	0	0	0	0	0	0	0	0	0	0	0	0	0	0	0	0
121218	11:32:23	11:36:51	268073	5.0.10.0	4_exp_AMP_EVA_AWA_CON	8	Rpleas_acq	Oppo	Rpleas	Bmasked	CS_B	1pleas	distractor2	EVAbeforeCON	acq_US_pleas_masked	acq2_masked	2	17	480	0	300	300	0	0	382	50	0	1	0	0	0	1	blank2r.bmp	0	1	+	0	6	C2r.bmp	492	1	blank2r.bmp	786	1	BMVZ	786	1	blank2r.bmp	866	4	loyal	866	1	!	-1	1	!	-1	0	0	0	0	0	0	0	0	0	0	0	0	0	0	0	0	0	0	0	0	0	0	0	0	0	0	0
121218	11:32:23	11:36:54	270566	5.0.10.0	4_exp_AMP_EVA_AWA_CON	8	Rpleas_acq	Oppo	Rpleas	Bmasked	CS_B	1pleas	distractor2	EVAbeforeCON	acq_new_pleas_masked	acq2_masked	2	18	480	0	300	300	0	0	709	50	0	1	0	0	0	1	blank2r.bmp	0	1	+	0	4	B4r.bmp	492	1	blank2r.bmp	786	2	B2r.bmp	786	1	blank2r.bmp	866	6	tolerant	866	1	!	1319	1	!	-1	0	0	0	0	0	0	0	0	0	0	0	0	0	0	0	0	0	0	0	0	0	0	0	0	0	0	0
121218	11:32:23	11:36:56	272965	5.0.10.0	4_exp_AMP_EVA_AWA_CON	8	Rpleas_acq	Oppo	Rpleas	Bmasked	CS_B	1pleas	distractor2	EVAbeforeCON	acq_new_unple_masked	acq2_masked	2	19	480	0	300	300	0	0	374	50	0	0	0	0	0	1	blank2r.bmp	0	1	+	0	1	B1r.bmp	492	1	blank2r.bmp	786	8	C4r.bmp	786	1	blank2r.bmp	866	3	eitel	866	1	FEHLER	1586	1	!	-1	1	!	-1	0	0	0	0	0	0	0	0	0	0	0	0	0	0	0	0	0	0	0	0	0	0	0	0
121218	11:32:23	11:36:58	274977	5.0.10.0	4_exp_AMP_EVA_AWA_CON	8	Rpleas_acq	Oppo	Rpleas	Bmasked	CS_B	1pleas	distractor2	EVAbeforeCON	acq_US_pleas_masked	acq2_masked	2	20	480	1	300	300	0	0	426	50	0	1	0	0	0	1	blank2r.bmp	0	1	+	0	5	C1r.bmp	492	1	blank2r.bmp	786	1	BMVZ	786	1	blank2r.bmp	866	3	retten	866	1	!	1319	1	!	1332	0	0	0	0	0	0	0	0	0	0	0	0	0	0	0	0	0	0	0	0	0	0	0	0	0	0	0
121218	11:32:23	11:37:00	277030	5.0.10.0	4_exp_AMP_EVA_AWA_CON	8	Rpleas_acq	Oppo	Rpleas	Bmasked	CS_B	1pleas	distractor2	EVAbeforeCON	acq_US_pleas_masked	acq2_masked	2	21	480	0	300	300	0	0	270	50	0	1	0	0	0	1	blank2r.bmp	0	1	+	0	5	C1r.bmp	492	1	blank2r.bmp	786	1	BMVZ	786	1	blank2r.bmp	866	5	helfen	866	1	!	-1	1	!	-1	0	0	0	0	0	0	0	0	0	0	0	0	0	0	0	0	0	0	0	0	0	0	0	0	0	0	0
121218	11:32:23	11:37:03	279215	5.0.10.0	4_exp_AMP_EVA_AWA_CON	8	Rpleas_acq	Oppo	Rpleas	Bmasked	CS_B	1pleas	distractor2	EVAbeforeCON	acq_new_pleas_masked	acq2_masked	2	22	480	0	300	300	0	0	401	50	0	1	0	0	0	1	blank2r.bmp	0	1	+	0	7	C3r.bmp	492	1	blank2r.bmp	786	3	B3r.bmp	786	1	blank2r.bmp	866	4	fair	866	1	!	-1	1	!	-1	0	0	0	0	0	0	0	0	0	0	0	0	0	0	0	0	0	0	0	0	0	0	0	0	0	0	0
121218	11:32:23	11:37:05	281614	5.0.10.0	4_exp_AMP_EVA_AWA_CON	8	Rpleas_acq	Oppo	Rpleas	Bmasked	CS_B	1pleas	distractor2	EVAbeforeCON	acq_new_unple_masked	acq2_masked	2	23	480	0	300	300	0	0	388	50	0	0	0	0	0	1	blank2r.bmp	0	1	+	0	8	C4r.bmp	492	1	blank2r.bmp	786	1	B1r.bmp	786	1	blank2r.bmp	866	6	tyrannisch	866	1	FEHLER	1599	1	!	-1	1	!	-1	0	0	0	0	0	0	0	0	0	0	0	0	0	0	0	0	0	0	0	0	0	0	0	0
121218	11:32:23	11:37:07	283733	5.0.10.0	4_exp_AMP_EVA_AWA_CON	8	Rpleas_acq	Oppo	Rpleas	Bmasked	CS_B	1pleas	distractor2	EVAbeforeCON	acq_US_unple_masked	acq2_masked	2	24	480	0	300	300	0	0	342	50	0	0	0	0	0	1	blank2r.bmp	0	1	+	0	1	B1r.bmp	492	1	blank2r.bmp	786	1	GKQX	786	1	blank2r.bmp	866	6	schroff	866	1	FEHLER	1546	1	!	-1	1	!	-1	0	0	0	0	0	0	0	0	0	0	0	0	0	0	0	0	0	0	0	0	0	0	0	0
121218	11:32:23	11:37:09	285626	5.0.10.0	4_exp_AMP_EVA_AWA_CON	8	Rpleas_acq	Oppo	Rpleas	Bmasked	CS_B	1pleas	distractor2	EVAbeforeCON	acq_new_pleas_masked	acq2_masked	2	25	480	0	300	300	0	0	335	50	0	1	0	0	0	1	blank2r.bmp	0	1	+	0	3	B3r.bmp	492	1	blank2r.bmp	786	4	B4r.bmp	786	1	blank2r.bmp	866	2	treu	866	1	!	-1	1	!	-1	0	0	0	0	0	0	0	0	0	0	0	0	0	0	0	0	0	0	0	0	0	0	0	0	0	0	0
121218	11:32:23	11:37:11	287652	5.0.10.0	4_exp_AMP_EVA_AWA_CON	8	Rpleas_acq	Oppo	Rpleas	Bmasked	CS_B	1pleas	distractor2	EVAbeforeCON	acq_US_pleas_masked	acq2_masked	2	26	480	0	300	300	0	0	247	50	0	1	0	0	0	1	blank2r.bmp	0	1	+	0	4	B4r.bmp	492	1	blank2r.bmp	786	1	BMVZ	786	1	blank2r.bmp	866	2	lachen	866	1	!	-1	1	!	-1	0	0	0	0	0	0	0	0	0	0	0	0	0	0	0	0	0	0	0	0	0	0	0	0	0	0	0
121218	11:32:23	11:37:13	289904	5.0.10.0	4_exp_AMP_EVA_AWA_CON	8	Rpleas_acq	Oppo	Rpleas	Bmasked	CS_B	1pleas	distractor2	EVAbeforeCON	acq_new_pleas_masked	acq2_masked	2	27	480	1	300	300	0	0	442	50	0	1	0	0	0	1	blank2r.bmp	0	1	+	0	2	B2r.bmp	492	1	blank2r.bmp	786	7	C3r.bmp	786	1	blank2r.bmp	866	1	freundlich	866	1	!	1319	1	!	1346	0	0	0	0	0	0	0	0	0	0	0	0	0	0	0	0	0	0	0	0	0	0	0	0	0	0	0
121218	11:32:23	11:37:16	292170	5.0.10.0	4_exp_AMP_EVA_AWA_CON	8	Rpleas_acq	Oppo	Rpleas	Bmasked	CS_B	1pleas	distractor2	EVAbeforeCON	acq_US_unple_masked	acq2_masked	2	28	480	1	300	300	0	0	466	46	0	1	0	0	0	1	blank2r.bmp	0	1	+	0	6	C2r.bmp	492	1	blank2r.bmp	786	1	GKQX	786	1	blank2r.bmp	866	3	rächen	866	1	!	1319	1	!	1372	0	0	0	0	0	0	0	0	0	0	0	0	0	0	0	0	0	0	0	0	0	0	0	0	0	0	0
121218	11:32:23	11:37:18	294502	5.0.10.0	4_exp_AMP_EVA_AWA_CON	8	Rpleas_acq	Oppo	Rpleas	Bmasked	CS_B	1pleas	distractor2	EVAbeforeCON	acq_new_unple_masked	acq2_masked	2	29	480	0	300	300	0	0	338	50	0	0	0	0	0	1	blank2r.bmp	0	1	+	0	8	C4r.bmp	492	1	blank2r.bmp	786	1	B1r.bmp	786	1	blank2r.bmp	866	4	faul	866	1	FEHLER	1546	1	!	-1	1	!	-1	0	0	0	0	0	0	0	0	0	0	0	0	0	0	0	0	0	0	0	0	0	0	0	0
121218	11:32:23	11:37:20	296541	5.0.10.0	4_exp_AMP_EVA_AWA_CON	8	Rpleas_acq	Oppo	Rpleas	Bmasked	CS_B	1pleas	distractor2	EVAbeforeCON	acq_US_pleas_masked	acq2_masked	2	30	480	0	300	300	0	0	258	46	0	0	0	0	0	1	blank2r.bmp	0	1	+	0	3	B3r.bmp	492	1	blank2r.bmp	786	1	BMVZ	786	1	blank2r.bmp	866	6	schlau	866	1	FEHLER	1466	1	!	-1	1	!	-1	0	0	0	0	0	0	0	0	0	0	0	0	0	0	0	0	0	0	0	0	0	0	0	0
121218	11:32:23	11:37:22	298740	5.0.10.0	4_exp_AMP_EVA_AWA_CON	8	Rpleas_acq	Oppo	Rpleas	Bmasked	CS_B	1pleas	distractor2	EVAbeforeCON	acq_new_unple_masked	acq2_masked	2	31	480	0	300	300	0	0	413	50	0	0	0	0	0	1	blank2r.bmp	0	1	+	0	4	B4r.bmp	492	1	blank2r.bmp	786	8	C4r.bmp	786	1	blank2r.bmp	866	1	fanatisch	866	1	FEHLER	1625	1	!	-1	1	!	-1	0	0	0	0	0	0	0	0	0	0	0	0	0	0	0	0	0	0	0	0	0	0	0	0
121218	11:32:23	11:37:24	300793	5.0.10.0	4_exp_AMP_EVA_AWA_CON	8	Rpleas_acq	Oppo	Rpleas	Bmasked	CS_B	1pleas	distractor2	EVAbeforeCON	acq_US_unple_masked	acq2_masked	2	32	480	1	300	300	0	0	454	46	0	1	0	0	0	1	blank2r.bmp	0	1	+	0	6	C2r.bmp	492	1	blank2r.bmp	786	1	GKQX	786	1	blank2r.bmp	866	4	lasch	866	1	!	1319	1	!	1359	0	0	0	0	0	0	0	0	0	0	0	0	0	0	0	0	0	0	0	0	0	0	0	0	0	0	0
121218	11:32:23	11:37:27	303299	5.0.10.0	4_exp_AMP_EVA_AWA_CON	8	Rpleas_acq	Oppo	Rpleas	Bmasked	CS_B	1pleas	distractor2	EVAbeforeCON	acq_new_pleas_masked	acq2_masked	2	33	480	0	300	300	0	0	737	50	0	1	0	0	0	1	blank2r.bmp	0	1	+	0	1	B1r.bmp	492	1	blank2r.bmp	786	6	C2r.bmp	786	1	blank2r.bmp	866	3	ehrlich	866	1	!	1319	1	!	-1	0	0	0	0	0	0	0	0	0	0	0	0	0	0	0	0	0	0	0	0	0	0	0	0	0	0	0
121218	11:32:23	11:37:29	305471	5.0.10.0	4_exp_AMP_EVA_AWA_CON	8	Rpleas_acq	Oppo	Rpleas	Bmasked	CS_B	1pleas	distractor2	EVAbeforeCON	acq_new_unple_masked	acq2_masked	2	34	480	0	300	300	0	0	396	46	0	1	0	0	0	1	blank2r.bmp	0	1	+	0	2	B2r.bmp	492	1	blank2r.bmp	786	3	B3r.bmp	786	1	blank2r.bmp	866	5	schlecht	866	1	!	-1	1	!	-1	0	0	0	0	0	0	0	0	0	0	0	0	0	0	0	0	0	0	0	0	0	0	0	0	0	0	0
121218	11:32:23	11:37:31	307950	5.0.10.0	4_exp_AMP_EVA_AWA_CON	8	Rpleas_acq	Oppo	Rpleas	Bmasked	CS_B	1pleas	distractor2	EVAbeforeCON	acq_US_pleas_masked	acq2_masked	2	35	480	0	300	300	0	0	696	50	0	1	0	0	0	1	blank2r.bmp	0	1	+	0	5	C1r.bmp	492	1	blank2r.bmp	786	1	BMVZ	786	1	blank2r.bmp	866	1	spielen	866	1	!	1319	1	!	-1	0	0	0	0	0	0	0	0	0	0	0	0	0	0	0	0	0	0	0	0	0	0	0	0	0	0	0
121218	11:32:23	11:37:34	310216	5.0.10.0	4_exp_AMP_EVA_AWA_CON	8	Rpleas_acq	Oppo	Rpleas	Bmasked	CS_B	1pleas	distractor2	EVAbeforeCON	acq_US_unple_masked	acq2_masked	2	36	480	1	300	300	0	0	456	46	0	1	0	0	0	1	blank2r.bmp	0	1	+	0	7	C3r.bmp	492	1	blank2r.bmp	786	1	GKQX	786	1	blank2r.bmp	866	2	leiden	866	1	!	1319	1	!	1359	0	0	0	0	0	0	0	0	0	0	0	0	0	0	0	0	0	0	0	0	0	0	0	0	0	0	0
121218	11:32:23	11:37:51	327862	5.0.10.0	4_exp_AMP_EVA_AWA_CON	8	Rpleas_acq	Oppo	Rpleas	Bmasked	CS_B	1pleas	distractor2	EVAbeforeCON	acq_US_pleas_masked	acq3_masked	3	1	453	0	300	300	0	0	552	50	0	1	0	0	0	1	blank2r.bmp	0	1	+	0	4	B4r.bmp	492	1	blank2r.bmp	786	1	BMVZ	786	1	blank2r.bmp	866	3	retten	866	1	!	1292	1	!	-1	0	0	0	0	0	0	0	0	0	0	0	0	0	0	0	0	0	0	0	0	0	0	0	0	0	0	0
121218	11:32:23	11:37:53	329981	5.0.10.0	4_exp_AMP_EVA_AWA_CON	8	Rpleas_acq	Oppo	Rpleas	Bmasked	CS_B	1pleas	distractor2	EVAbeforeCON	acq_US_pleas_masked	acq3_masked	3	2	453	0	300	300	0	0	339	50	0	1	0	0	0	1	blank2r.bmp	0	1	+	0	1	B1r.bmp	492	1	blank2r.bmp	786	1	BMVZ	786	1	blank2r.bmp	866	1	spielen	866	1	!	-1	1	!	-1	0	0	0	0	0	0	0	0	0	0	0	0	0	0	0	0	0	0	0	0	0	0	0	0	0	0	0
121218	11:32:23	11:37:56	332446	5.0.10.0	4_exp_AMP_EVA_AWA_CON	8	Rpleas_acq	Oppo	Rpleas	Bmasked	CS_B	1pleas	distractor2	EVAbeforeCON	acq_US_unple_masked	acq3_masked	3	3	453	0	300	300	0	0	681	46	0	1	0	0	0	1	blank2r.bmp	0	1	+	0	8	C4r.bmp	492	1	blank2r.bmp	786	1	GKQX	786	1	blank2r.bmp	866	1	strafen	866	1	!	1292	1	!	-1	0	0	0	0	0	0	0	0	0	0	0	0	0	0	0	0	0	0	0	0	0	0	0	0	0	0	0
121218	11:32:23	11:37:58	334685	5.0.10.0	4_exp_AMP_EVA_AWA_CON	8	Rpleas_acq	Oppo	Rpleas	Bmasked	CS_B	1pleas	distractor2	EVAbeforeCON	acq_US_pleas_masked	acq3_masked	3	4	453	1	300	300	0	0	429	50	0	1	0	0	0	1	blank2r.bmp	0	1	+	0	7	C3r.bmp	492	1	blank2r.bmp	786	1	BMVZ	786	1	blank2r.bmp	866	6	schlau	866	1	!	1292	1	!	1332	0	0	0	0	0	0	0	0	0	0	0	0	0	0	0	0	0	0	0	0	0	0	0	0	0	0	0
121218	11:32:23	11:38:01	337324	5.0.10.0	4_exp_AMP_EVA_AWA_CON	8	Rpleas_acq	Oppo	Rpleas	Bmasked	CS_B	1pleas	distractor2	EVAbeforeCON	acq_US_unple_masked	acq3_masked	3	5	453	0	300	300	0	0	646	50	0	0	0	0	0	1	blank2r.bmp	0	1	+	0	2	B2r.bmp	492	1	blank2r.bmp	786	1	GKQX	786	1	blank2r.bmp	866	5	hindern	866	1	FEHLER	1852	1	!	1292	1	!	-1	0	0	0	0	0	0	0	0	0	0	0	0	0	0	0	0	0	0	0	0	0	0	0	0
121218	11:32:23	11:38:03	339657	5.0.10.0	4_exp_AMP_EVA_AWA_CON	8	Rpleas_acq	Oppo	Rpleas	Bmasked	CS_B	1pleas	distractor2	EVAbeforeCON	acq_US_pleas_masked	acq3_masked	3	6	453	0	300	300	0	0	767	50	0	1	0	0	0	1	blank2r.bmp	0	1	+	0	3	B3r.bmp	492	1	blank2r.bmp	786	1	BMVZ	786	1	blank2r.bmp	866	5	helfen	866	1	!	1292	1	!	-1	0	0	0	0	0	0	0	0	0	0	0	0	0	0	0	0	0	0	0	0	0	0	0	0	0	0	0
121218	11:32:23	11:38:05	341616	5.0.10.0	4_exp_AMP_EVA_AWA_CON	8	Rpleas_acq	Oppo	Rpleas	Bmasked	CS_B	1pleas	distractor2	EVAbeforeCON	acq_US_pleas_masked	acq3_masked	3	7	453	0	300	300	0	0	168	50	0	1	0	0	0	1	blank2r.bmp	0	1	+	0	5	C1r.bmp	492	1	blank2r.bmp	786	1	BMVZ	786	1	blank2r.bmp	866	4	loyal	866	1	!	-1	1	!	-1	0	0	0	0	0	0	0	0	0	0	0	0	0	0	0	0	0	0	0	0	0	0	0	0	0	0	0
121218	11:32:23	11:38:07	343948	5.0.10.0	4_exp_AMP_EVA_AWA_CON	8	Rpleas_acq	Oppo	Rpleas	Bmasked	CS_B	1pleas	distractor2	EVAbeforeCON	acq_US_unple_masked	acq3_masked	3	8	453	0	300	300	0	0	554	46	0	1	0	0	0	1	blank2r.bmp	0	1	+	0	6	C2r.bmp	492	1	blank2r.bmp	786	1	GKQX	786	1	blank2r.bmp	866	6	schroff	866	1	!	1292	1	!	-1	0	0	0	0	0	0	0	0	0	0	0	0	0	0	0	0	0	0	0	0	0	0	0	0	0	0	0
121218	11:32:23	11:38:10	346174	5.0.10.0	4_exp_AMP_EVA_AWA_CON	8	Rpleas_acq	Oppo	Rpleas	Bmasked	CS_B	1pleas	distractor2	EVAbeforeCON	acq_US_pleas_masked	acq3_masked	3	9	453	1	300	300	0	0	420	50	0	1	0	0	0	1	blank2r.bmp	0	1	+	0	6	C2r.bmp	492	1	blank2r.bmp	786	1	BMVZ	786	1	blank2r.bmp	866	2	lachen	866	1	!	1292	1	!	1319	0	0	0	0	0	0	0	0	0	0	0	0	0	0	0	0	0	0	0	0	0	0	0	0	0	0	0
121218	11:32:23	11:38:12	348440	5.0.10.0	4_exp_AMP_EVA_AWA_CON	8	Rpleas_acq	Oppo	Rpleas	Bmasked	CS_B	1pleas	distractor2	EVAbeforeCON	acq_US_unple_masked	acq3_masked	3	10	453	1	300	300	0	0	459	46	0	1	0	0	0	1	blank2r.bmp	0	1	+	0	4	B4r.bmp	492	1	blank2r.bmp	786	1	GKQX	786	1	blank2r.bmp	866	4	lasch	866	1	!	1292	1	!	1359	0	0	0	0	0	0	0	0	0	0	0	0	0	0	0	0	0	0	0	0	0	0	0	0	0	0	0
121218	11:32:23	11:38:14	350839	5.0.10.0	4_exp_AMP_EVA_AWA_CON	8	Rpleas_acq	Oppo	Rpleas	Bmasked	CS_B	1pleas	distractor2	EVAbeforeCON	acq_US_unple_masked	acq3_masked	3	11	453	0	300	300	0	0	627	46	0	1	0	0	0	1	blank2r.bmp	0	1	+	0	2	B2r.bmp	492	1	blank2r.bmp	786	1	GKQX	786	1	blank2r.bmp	866	3	rächen	866	1	!	1292	1	!	-1	0	0	0	0	0	0	0	0	0	0	0	0	0	0	0	0	0	0	0	0	0	0	0	0	0	0	0
121218	11:32:23	11:38:17	353264	5.0.10.0	4_exp_AMP_EVA_AWA_CON	8	Rpleas_acq	Oppo	Rpleas	Bmasked	CS_B	1pleas	distractor2	EVAbeforeCON	acq_US_unple_masked	acq3_masked	3	12	453	0	300	300	0	0	647	46	0	1	0	0	0	1	blank2r.bmp	0	1	+	0	3	B3r.bmp	492	1	blank2r.bmp	786	1	GKQX	786	1	blank2r.bmp	866	2	leiden	866	1	!	1292	1	!	-1	0	0	0	0	0	0	0	0	0	0	0	0	0	0	0	0	0	0	0	0	0	0	0	0	0	0	0
121218	11:32:23	11:38:19	355530	5.0.10.0	4_exp_AMP_EVA_AWA_CON	8	Rpleas_acq	Oppo	Rpleas	Bmasked	CS_B	1pleas	distractor2	EVAbeforeCON	acq_US_pleas_masked	acq3_masked	3	13	453	1	300	300	0	0	454	50	0	1	0	0	0	1	blank2r.bmp	0	1	+	0	8	C4r.bmp	492	1	blank2r.bmp	786	1	BMVZ	786	1	blank2r.bmp	866	6	schlau	866	1	!	1292	1	!	1359	0	0	0	0	0	0	0	0	0	0	0	0	0	0	0	0	0	0	0	0	0	0	0	0	0	0	0
121218	11:32:23	11:38:21	357929	5.0.10.0	4_exp_AMP_EVA_AWA_CON	8	Rpleas_acq	Oppo	Rpleas	Bmasked	CS_B	1pleas	distractor2	EVAbeforeCON	acq_US_unple_masked	acq3_masked	3	14	453	0	300	300	0	0	632	46	0	1	0	0	0	1	blank2r.bmp	0	1	+	0	1	B1r.bmp	492	1	blank2r.bmp	786	1	GKQX	786	1	blank2r.bmp	866	1	strafen	866	1	!	1292	1	!	-1	0	0	0	0	0	0	0	0	0	0	0	0	0	0	0	0	0	0	0	0	0	0	0	0	0	0	0
121218	11:32:23	11:38:24	360155	5.0.10.0	4_exp_AMP_EVA_AWA_CON	8	Rpleas_acq	Oppo	Rpleas	Bmasked	CS_B	1pleas	distractor2	EVAbeforeCON	acq_US_pleas_masked	acq3_masked	3	15	453	1	300	300	0	0	415	50	0	1	0	0	0	1	blank2r.bmp	0	1	+	0	5	C1r.bmp	492	1	blank2r.bmp	786	1	BMVZ	786	1	blank2r.bmp	866	1	spielen	866	1	!	1292	1	!	1319	0	0	0	0	0	0	0	0	0	0	0	0	0	0	0	0	0	0	0	0	0	0	0	0	0	0	0
121218	11:32:23	11:38:26	362554	5.0.10.0	4_exp_AMP_EVA_AWA_CON	8	Rpleas_acq	Oppo	Rpleas	Bmasked	CS_B	1pleas	distractor2	EVAbeforeCON	acq_US_unple_masked	acq3_masked	3	16	453	0	300	300	0	0	626	46	0	1	0	0	0	1	blank2r.bmp	0	1	+	0	7	C3r.bmp	492	1	blank2r.bmp	786	1	GKQX	786	1	blank2r.bmp	866	2	leiden	866	1	!	1292	1	!	-1	0	0	0	0	0	0	0	0	0	0	0	0	0	0	0	0	0	0	0	0	0	0	0	0	0	0	0
121218	11:32:23	11:38:28	364939	5.0.10.0	4_exp_AMP_EVA_AWA_CON	8	Rpleas_acq	Oppo	Rpleas	Bmasked	CS_B	1pleas	distractor2	EVAbeforeCON	acq_US_pleas_masked	acq3_masked	3	17	453	0	300	300	0	0	606	50	0	1	0	0	0	1	blank2r.bmp	0	1	+	0	2	B2r.bmp	492	1	blank2r.bmp	786	1	BMVZ	786	1	blank2r.bmp	866	2	lachen	866	1	!	1292	1	!	-1	0	0	0	0	0	0	0	0	0	0	0	0	0	0	0	0	0	0	0	0	0	0	0	0	0	0	0
121218	11:32:23	11:38:31	367312	5.0.10.0	4_exp_AMP_EVA_AWA_CON	8	Rpleas_acq	Oppo	Rpleas	Bmasked	CS_B	1pleas	distractor2	EVAbeforeCON	acq_US_pleas_masked	acq3_masked	3	18	453	0	300	300	0	0	368	46	0	0	0	0	0	1	blank2r.bmp	0	1	+	0	7	C3r.bmp	492	1	blank2r.bmp	786	1	BMVZ	786	1	blank2r.bmp	866	5	helfen	866	1	FEHLER	1572	1	!	-1	1	!	-1	0	0	0	0	0	0	0	0	0	0	0	0	0	0	0	0	0	0	0	0	0	0	0	0
121218	11:32:23	11:38:33	369484	5.0.10.0	4_exp_AMP_EVA_AWA_CON	8	Rpleas_acq	Oppo	Rpleas	Bmasked	CS_B	1pleas	distractor2	EVAbeforeCON	acq_US_unple_masked	acq3_masked	3	19	453	0	300	300	0	0	622	46	0	1	0	0	0	1	blank2r.bmp	0	1	+	0	3	B3r.bmp	492	1	blank2r.bmp	786	1	GKQX	786	1	blank2r.bmp	866	3	rächen	866	1	!	1292	1	!	-1	0	0	0	0	0	0	0	0	0	0	0	0	0	0	0	0	0	0	0	0	0	0	0	0	0	0	0
121218	11:32:23	11:38:35	371816	5.0.10.0	4_exp_AMP_EVA_AWA_CON	8	Rpleas_acq	Oppo	Rpleas	Bmasked	CS_B	1pleas	distractor2	EVAbeforeCON	acq_US_unple_masked	acq3_masked	3	20	453	1	300	300	0	0	511	46	0	1	0	0	0	1	blank2r.bmp	0	1	+	0	8	C4r.bmp	492	1	blank2r.bmp	786	1	GKQX	786	1	blank2r.bmp	866	4	lasch	866	1	!	1292	1	!	1412	0	0	0	0	0	0	0	0	0	0	0	0	0	0	0	0	0	0	0	0	0	0	0	0	0	0	0
121218	11:32:23	11:38:38	374229	5.0.10.0	4_exp_AMP_EVA_AWA_CON	8	Rpleas_acq	Oppo	Rpleas	Bmasked	CS_B	1pleas	distractor2	EVAbeforeCON	acq_US_unple_masked	acq3_masked	3	21	453	0	300	300	0	0	643	46	0	1	0	0	0	1	blank2r.bmp	0	1	+	0	4	B4r.bmp	492	1	blank2r.bmp	786	1	GKQX	786	1	blank2r.bmp	866	5	hindern	866	1	!	1292	1	!	-1	0	0	0	0	0	0	0	0	0	0	0	0	0	0	0	0	0	0	0	0	0	0	0	0	0	0	0
121218	11:32:23	11:38:40	376441	5.0.10.0	4_exp_AMP_EVA_AWA_CON	8	Rpleas_acq	Oppo	Rpleas	Bmasked	CS_B	1pleas	distractor2	EVAbeforeCON	acq_US_pleas_masked	acq3_masked	3	22	453	1	300	300	0	0	401	50	0	1	0	0	0	1	blank2r.bmp	0	1	+	0	6	C2r.bmp	492	1	blank2r.bmp	786	1	BMVZ	786	1	blank2r.bmp	866	4	loyal	866	1	!	1292	1	!	1306	0	0	0	0	0	0	0	0	0	0	0	0	0	0	0	0	0	0	0	0	0	0	0	0	0	0	0
121218	11:32:23	11:38:42	378800	5.0.10.0	4_exp_AMP_EVA_AWA_CON	8	Rpleas_acq	Oppo	Rpleas	Bmasked	CS_B	1pleas	distractor2	EVAbeforeCON	acq_US_pleas_masked	acq3_masked	3	23	453	0	300	300	0	0	365	46	0	0	0	0	0	1	blank2r.bmp	0	1	+	0	5	C1r.bmp	492	1	blank2r.bmp	786	1	BMVZ	786	1	blank2r.bmp	866	3	retten	866	1	FEHLER	1572	1	!	-1	1	!	-1	0	0	0	0	0	0	0	0	0	0	0	0	0	0	0	0	0	0	0	0	0	0	0	0
121218	11:32:23	11:38:44	380919	5.0.10.0	4_exp_AMP_EVA_AWA_CON	8	Rpleas_acq	Oppo	Rpleas	Bmasked	CS_B	1pleas	distractor2	EVAbeforeCON	acq_US_unple_masked	acq3_masked	3	24	453	0	300	300	0	0	569	46	0	1	0	0	0	1	blank2r.bmp	0	1	+	0	1	B1r.bmp	492	1	blank2r.bmp	786	1	GKQX	786	1	blank2r.bmp	866	6	schroff	866	1	!	1292	1	!	-1	0	0	0	0	0	0	0	0	0	0	0	0	0	0	0	0	0	0	0	0	0	0	0	0	0	0	0
121218	11:32:23	11:38:47	383238	5.0.10.0	4_exp_AMP_EVA_AWA_CON	8	Rpleas_acq	Oppo	Rpleas	Bmasked	CS_B	1pleas	distractor2	EVAbeforeCON	acq_US_pleas_masked	acq3_masked	3	25	453	0	300	300	0	0	298	46	0	0	0	0	0	1	blank2r.bmp	0	1	+	0	5	C1r.bmp	492	1	blank2r.bmp	786	1	BMVZ	786	1	blank2r.bmp	866	2	lachen	866	1	FEHLER	1506	1	!	-1	1	!	-1	0	0	0	0	0	0	0	0	0	0	0	0	0	0	0	0	0	0	0	0	0	0	0	0
121218	11:32:23	11:38:49	385531	5.0.10.0	4_exp_AMP_EVA_AWA_CON	8	Rpleas_acq	Oppo	Rpleas	Bmasked	CS_B	1pleas	distractor2	EVAbeforeCON	acq_US_pleas_masked	acq3_masked	3	26	453	0	300	300	0	0	743	50	0	1	0	0	0	1	blank2r.bmp	0	1	+	0	1	B1r.bmp	492	1	blank2r.bmp	786	1	BMVZ	786	1	blank2r.bmp	866	5	helfen	866	1	!	1292	1	!	-1	0	0	0	0	0	0	0	0	0	0	0	0	0	0	0	0	0	0	0	0	0	0	0	0	0	0	0
121218	11:32:23	11:38:51	387756	5.0.10.0	4_exp_AMP_EVA_AWA_CON	8	Rpleas_acq	Oppo	Rpleas	Bmasked	CS_B	1pleas	distractor2	EVAbeforeCON	acq_US_pleas_masked	acq3_masked	3	27	453	1	300	300	0	0	419	50	0	1	0	0	0	1	blank2r.bmp	0	1	+	0	4	B4r.bmp	492	1	blank2r.bmp	786	1	BMVZ	786	1	blank2r.bmp	866	1	spielen	866	1	!	1292	1	!	1319	0	0	0	0	0	0	0	0	0	0	0	0	0	0	0	0	0	0	0	0	0	0	0	0	0	0	0
121218	11:32:23	11:38:53	389982	5.0.10.0	4_exp_AMP_EVA_AWA_CON	8	Rpleas_acq	Oppo	Rpleas	Bmasked	CS_B	1pleas	distractor2	EVAbeforeCON	acq_US_unple_masked	acq3_masked	3	28	453	1	300	300	0	0	431	46	0	1	0	0	0	1	blank2r.bmp	0	1	+	0	8	C4r.bmp	492	1	blank2r.bmp	786	1	GKQX	786	1	blank2r.bmp	866	6	schroff	866	1	!	1292	1	!	1332	0	0	0	0	0	0	0	0	0	0	0	0	0	0	0	0	0	0	0	0	0	0	0	0	0	0	0
121218	11:32:23	11:38:56	392221	5.0.10.0	4_exp_AMP_EVA_AWA_CON	8	Rpleas_acq	Oppo	Rpleas	Bmasked	CS_B	1pleas	distractor2	EVAbeforeCON	acq_US_pleas_masked	acq3_masked	3	29	453	1	300	300	0	0	448	50	0	1	0	0	0	1	blank2r.bmp	0	1	+	0	2	B2r.bmp	492	1	blank2r.bmp	786	1	BMVZ	786	1	blank2r.bmp	866	6	schlau	866	1	!	1292	1	!	1346	0	0	0	0	0	0	0	0	0	0	0	0	0	0	0	0	0	0	0	0	0	0	0	0	0	0	0
121218	11:32:23	11:38:58	394620	5.0.10.0	4_exp_AMP_EVA_AWA_CON	8	Rpleas_acq	Oppo	Rpleas	Bmasked	CS_B	1pleas	distractor2	EVAbeforeCON	acq_US_unple_masked	acq3_masked	3	30	453	0	300	300	0	0	631	46	0	1	0	0	0	1	blank2r.bmp	0	1	+	0	3	B3r.bmp	492	1	blank2r.bmp	786	1	GKQX	786	1	blank2r.bmp	866	2	leiden	866	1	!	1292	1	!	-1	0	0	0	0	0	0	0	0	0	0	0	0	0	0	0	0	0	0	0	0	0	0	0	0	0	0	0
121218	11:32:23	11:39:00	396859	5.0.10.0	4_exp_AMP_EVA_AWA_CON	8	Rpleas_acq	Oppo	Rpleas	Bmasked	CS_B	1pleas	distractor2	EVAbeforeCON	acq_US_pleas_masked	acq3_masked	3	31	453	1	300	300	0	0	430	50	0	1	0	0	0	1	blank2r.bmp	0	1	+	0	6	C2r.bmp	492	1	blank2r.bmp	786	1	BMVZ	786	1	blank2r.bmp	866	3	retten	866	1	!	1292	1	!	1332	0	0	0	0	0	0	0	0	0	0	0	0	0	0	0	0	0	0	0	0	0	0	0	0	0	0	0
121218	11:32:23	11:39:02	399085	5.0.10.0	4_exp_AMP_EVA_AWA_CON	8	Rpleas_acq	Oppo	Rpleas	Bmasked	CS_B	1pleas	distractor2	EVAbeforeCON	acq_US_unple_masked	acq3_masked	3	32	453	1	300	300	0	0	412	46	0	1	0	0	0	1	blank2r.bmp	0	1	+	0	7	C3r.bmp	492	1	blank2r.bmp	786	1	GKQX	786	1	blank2r.bmp	866	4	lasch	866	1	!	1292	1	!	1319	0	0	0	0	0	0	0	0	0	0	0	0	0	0	0	0	0	0	0	0	0	0	0	0	0	0	0
121218	11:32:23	11:39:05	401337	5.0.10.0	4_exp_AMP_EVA_AWA_CON	8	Rpleas_acq	Oppo	Rpleas	Bmasked	CS_B	1pleas	distractor2	EVAbeforeCON	acq_US_pleas_masked	acq3_masked	3	33	453	1	300	300	0	0	458	50	0	1	0	0	0	1	blank2r.bmp	0	1	+	0	1	B1r.bmp	492	1	blank2r.bmp	786	1	BMVZ	786	1	blank2r.bmp	866	4	loyal	866	1	!	1292	1	!	1359	0	0	0	0	0	0	0	0	0	0	0	0	0	0	0	0	0	0	0	0	0	0	0	0	0	0	0
121218	11:32:23	11:39:07	403576	5.0.10.0	4_exp_AMP_EVA_AWA_CON	8	Rpleas_acq	Oppo	Rpleas	Bmasked	CS_B	1pleas	distractor2	EVAbeforeCON	acq_US_unple_masked	acq3_masked	3	34	453	1	300	300	0	0	435	46	0	1	0	0	0	1	blank2r.bmp	0	1	+	0	3	B3r.bmp	492	1	blank2r.bmp	786	1	GKQX	786	1	blank2r.bmp	866	5	hindern	866	1	!	1292	1	!	1332	0	0	0	0	0	0	0	0	0	0	0	0	0	0	0	0	0	0	0	0	0	0	0	0	0	0	0
121218	11:32:23	11:39:09	405882	5.0.10.0	4_exp_AMP_EVA_AWA_CON	8	Rpleas_acq	Oppo	Rpleas	Bmasked	CS_B	1pleas	distractor2	EVAbeforeCON	acq_US_unple_masked	acq3_masked	3	35	453	0	300	300	0	0	532	46	0	1	0	0	0	1	blank2r.bmp	0	1	+	0	8	C4r.bmp	492	1	blank2r.bmp	786	1	GKQX	786	1	blank2r.bmp	866	1	strafen	866	1	!	1292	1	!	-1	0	0	0	0	0	0	0	0	0	0	0	0	0	0	0	0	0	0	0	0	0	0	0	0	0	0	0
121218	11:32:23	11:39:12	408321	5.0.10.0	4_exp_AMP_EVA_AWA_CON	8	Rpleas_acq	Oppo	Rpleas	Bmasked	CS_B	1pleas	distractor2	EVAbeforeCON	acq_US_unple_masked	acq3_masked	3	36	453	1	300	300	0	0	416	50	0	0	0	0	0	1	blank2r.bmp	0	1	+	0	6	C2r.bmp	492	1	blank2r.bmp	786	1	GKQX	786	1	blank2r.bmp	866	3	rächen	866	1	FEHLER	1639	1	!	1292	1	!	1319	0	0	0	0	0	0	0	0	0	0	0	0	0	0	0	0	0	0	0	0	0	0	0	0
121218	11:32:23	11:39:33	429379	5.0.10.0	4_exp_AMP_EVA_AWA_CON	8	Rpleas_acq	Oppo	Rpleas	Bmasked	CS_B	1pleas	distractor2	EVAbeforeCON	acq_US_unple_masked	acq45_masked	4	1	400	0	300	300	0	0	494	50	0	0	0	0	0	1	blank2r.bmp	0	1	+	0	2	B2r.bmp	492	1	blank2r.bmp	786	1	GKQX	786	1	blank2r.bmp	866	2	leiden	866	1	!	1239	1	!	-1	0	0	0	0	0	0	0	0	0	0	0	0	0	0	0	0	0	0	0	0	0	0	0	0	0	0	0
121218	11:32:23	11:39:35	431591	5.0.10.0	4_exp_AMP_EVA_AWA_CON	8	Rpleas_acq	Oppo	Rpleas	Bmasked	CS_B	1pleas	distractor2	EVAbeforeCON	acq_US_pleas_masked	acq45_masked	4	2	400	1	300	300	0	0	411	50	0	1	0	0	0	1	blank2r.bmp	0	1	+	0	5	C1r.bmp	492	1	blank2r.bmp	786	1	BMVZ	786	1	blank2r.bmp	866	2	lachen	866	1	!	1239	1	!	1306	0	0	0	0	0	0	0	0	0	0	0	0	0	0	0	0	0	0	0	0	0	0	0	0	0	0	0
121218	11:32:23	11:39:37	433764	5.0.10.0	4_exp_AMP_EVA_AWA_CON	8	Rpleas_acq	Oppo	Rpleas	Bmasked	CS_B	1pleas	distractor2	EVAbeforeCON	acq_US_unple_masked	acq45_masked	4	3	400	1	300	300	0	0	385	50	0	0	0	0	0	1	blank2r.bmp	0	1	+	0	4	B4r.bmp	492	1	blank2r.bmp	786	1	GKQX	786	1	blank2r.bmp	866	4	lasch	866	1	!	1239	1	!	1279	0	0	0	0	0	0	0	0	0	0	0	0	0	0	0	0	0	0	0	0	0	0	0	0	0	0	0
121218	11:32:23	11:39:42	438242	5.0.10.0	4_exp_AMP_EVA_AWA_CON	8	Rpleas_acq	Oppo	Rpleas	Bmasked	CS_B	1pleas	distractor2	EVAbeforeCON	acq_US_pleas_masked	acq45_masked	4	4	400	0	300	300	0	0	2717	50	0	1	0	0	0	1	blank2r.bmp	0	1	+	0	7	C3r.bmp	492	1	blank2r.bmp	786	1	BMVZ	786	1	blank2r.bmp	866	4	loyal	866	1	!	1239	1	!	-1	0	0	0	0	0	0	0	0	0	0	0	0	0	0	0	0	0	0	0	0	0	0	0	0	0	0	0
121218	11:32:23	11:39:44	440468	5.0.10.0	4_exp_AMP_EVA_AWA_CON	8	Rpleas_acq	Oppo	Rpleas	Bmasked	CS_B	1pleas	distractor2	EVAbeforeCON	acq_US_pleas_masked	acq45_masked	4	5	400	1	300	300	0	0	413	46	0	0	0	0	0	1	blank2r.bmp	0	1	+	0	8	C4r.bmp	492	1	blank2r.bmp	786	1	BMVZ	786	1	blank2r.bmp	866	3	retten	866	1	!	1239	1	!	1319	0	0	0	0	0	0	0	0	0	0	0	0	0	0	0	0	0	0	0	0	0	0	0	0	0	0	0
121218	11:32:23	11:39:50	446252	5.0.10.0	4_exp_AMP_EVA_AWA_CON	8	Rpleas_acq	Oppo	Rpleas	Bmasked	CS_B	1pleas	distractor2	EVAbeforeCON	acq_US_unple_masked	acq45_masked	4	6	400	0	300	300	0	0	4020	46	0	1	0	0	0	1	blank2r.bmp	0	1	+	0	4	B4r.bmp	492	1	blank2r.bmp	786	1	GKQX	786	1	blank2r.bmp	866	3	rächen	866	1	!	1239	1	!	-1	0	0	0	0	0	0	0	0	0	0	0	0	0	0	0	0	0	0	0	0	0	0	0	0	0	0	0
121218	11:32:23	11:39:52	448518	5.0.10.0	4_exp_AMP_EVA_AWA_CON	8	Rpleas_acq	Oppo	Rpleas	Bmasked	CS_B	1pleas	distractor2	EVAbeforeCON	acq_US_unple_masked	acq45_masked	4	7	400	1	300	300	0	0	453	46	0	1	0	0	0	1	blank2r.bmp	0	1	+	0	2	B2r.bmp	492	1	blank2r.bmp	786	1	GKQX	786	1	blank2r.bmp	866	1	strafen	866	1	!	1239	1	!	1359	0	0	0	0	0	0	0	0	0	0	0	0	0	0	0	0	0	0	0	0	0	0	0	0	0	0	0
121218	11:32:23	11:39:54	450597	5.0.10.0	4_exp_AMP_EVA_AWA_CON	8	Rpleas_acq	Oppo	Rpleas	Bmasked	CS_B	1pleas	distractor2	EVAbeforeCON	acq_US_unple_masked	acq45_masked	4	8	400	0	300	300	0	0	311	50	0	0	0	0	0	1	blank2r.bmp	0	1	+	0	3	B3r.bmp	492	1	blank2r.bmp	786	1	GKQX	786	1	blank2r.bmp	866	6	schroff	866	1	!	-1	1	!	-1	0	0	0	0	0	0	0	0	0	0	0	0	0	0	0	0	0	0	0	0	0	0	0	0	0	0	0
121218	11:32:23	11:39:56	452836	5.0.10.0	4_exp_AMP_EVA_AWA_CON	8	Rpleas_acq	Oppo	Rpleas	Bmasked	CS_B	1pleas	distractor2	EVAbeforeCON	acq_US_pleas_masked	acq45_masked	4	9	400	1	300	300	0	0	428	50	0	1	0	0	0	1	blank2r.bmp	0	1	+	0	5	C1r.bmp	492	1	blank2r.bmp	786	1	BMVZ	786	1	blank2r.bmp	866	5	helfen	866	1	!	1239	1	!	1332	0	0	0	0	0	0	0	0	0	0	0	0	0	0	0	0	0	0	0	0	0	0	0	0	0	0	0
121218	11:32:23	11:39:58	455022	5.0.10.0	4_exp_AMP_EVA_AWA_CON	8	Rpleas_acq	Oppo	Rpleas	Bmasked	CS_B	1pleas	distractor2	EVAbeforeCON	acq_US_pleas_masked	acq45_masked	4	10	400	1	300	300	0	0	387	50	0	1	0	0	0	1	blank2r.bmp	0	1	+	0	6	C2r.bmp	492	1	blank2r.bmp	786	1	BMVZ	786	1	blank2r.bmp	866	1	spielen	866	1	!	1239	1	!	1292	0	0	0	0	0	0	0	0	0	0	0	0	0	0	0	0	0	0	0	0	0	0	0	0	0	0	0
121218	11:32:23	11:40:01	457341	5.0.10.0	4_exp_AMP_EVA_AWA_CON	8	Rpleas_acq	Oppo	Rpleas	Bmasked	CS_B	1pleas	distractor2	EVAbeforeCON	acq_US_unple_masked	acq45_masked	4	11	400	0	300	300	0	0	552	46	0	1	0	0	0	1	blank2r.bmp	0	1	+	0	7	C3r.bmp	492	1	blank2r.bmp	786	1	GKQX	786	1	blank2r.bmp	866	5	hindern	866	1	!	1239	1	!	-1	0	0	0	0	0	0	0	0	0	0	0	0	0	0	0	0	0	0	0	0	0	0	0	0	0	0	0
121218	11:32:23	11:40:03	459500	5.0.10.0	4_exp_AMP_EVA_AWA_CON	8	Rpleas_acq	Oppo	Rpleas	Bmasked	CS_B	1pleas	distractor2	EVAbeforeCON	acq_US_unple_masked	acq45_masked	4	12	400	1	300	300	0	0	351	50	0	0	0	0	0	1	blank2r.bmp	0	1	+	0	1	B1r.bmp	492	1	blank2r.bmp	786	1	GKQX	786	1	blank2r.bmp	866	3	rächen	866	1	!	1239	1	!	1252	0	0	0	0	0	0	0	0	0	0	0	0	0	0	0	0	0	0	0	0	0	0	0	0	0	0	0
121218	11:32:23	11:40:05	461659	5.0.10.0	4_exp_AMP_EVA_AWA_CON	8	Rpleas_acq	Oppo	Rpleas	Bmasked	CS_B	1pleas	distractor2	EVAbeforeCON	acq_US_pleas_masked	acq45_masked	4	13	400	1	300	300	0	0	368	46	0	0	0	0	0	1	blank2r.bmp	0	1	+	0	8	C4r.bmp	492	1	blank2r.bmp	786	1	BMVZ	786	1	blank2r.bmp	866	6	schlau	866	1	!	1239	1	!	1266	0	0	0	0	0	0	0	0	0	0	0	0	0	0	0	0	0	0	0	0	0	0	0	0	0	0	0
121218	11:32:23	11:40:07	463871	5.0.10.0	4_exp_AMP_EVA_AWA_CON	8	Rpleas_acq	Oppo	Rpleas	Bmasked	CS_B	1pleas	distractor2	EVAbeforeCON	acq_US_unple_masked	acq45_masked	4	14	400	1	300	300	0	0	419	50	0	0	0	0	0	1	blank2r.bmp	0	1	+	0	7	C3r.bmp	492	1	blank2r.bmp	786	1	GKQX	786	1	blank2r.bmp	866	2	leiden	866	1	!	1239	1	!	1319	0	0	0	0	0	0	0	0	0	0	0	0	0	0	0	0	0	0	0	0	0	0	0	0	0	0	0
121218	11:32:23	11:40:09	466044	5.0.10.0	4_exp_AMP_EVA_AWA_CON	8	Rpleas_acq	Oppo	Rpleas	Bmasked	CS_B	1pleas	distractor2	EVAbeforeCON	acq_US_pleas_masked	acq45_masked	4	15	400	1	300	300	0	0	378	50	0	1	0	0	0	1	blank2r.bmp	0	1	+	0	5	C1r.bmp	492	1	blank2r.bmp	786	1	BMVZ	786	1	blank2r.bmp	866	4	loyal	866	1	!	1239	1	!	1279	0	0	0	0	0	0	0	0	0	0	0	0	0	0	0	0	0	0	0	0	0	0	0	0	0	0	0
121218	11:32:23	11:40:12	468203	5.0.10.0	4_exp_AMP_EVA_AWA_CON	8	Rpleas_acq	Oppo	Rpleas	Bmasked	CS_B	1pleas	distractor2	EVAbeforeCON	acq_US_unple_masked	acq45_masked	4	16	400	1	300	300	0	0	346	46	0	1	0	0	0	1	blank2r.bmp	0	1	+	0	1	B1r.bmp	492	1	blank2r.bmp	786	1	GKQX	786	1	blank2r.bmp	866	5	hindern	866	1	!	1239	1	!	1252	0	0	0	0	0	0	0	0	0	0	0	0	0	0	0	0	0	0	0	0	0	0	0	0	0	0	0
121218	11:32:23	11:40:14	470388	5.0.10.0	4_exp_AMP_EVA_AWA_CON	8	Rpleas_acq	Oppo	Rpleas	Bmasked	CS_B	1pleas	distractor2	EVAbeforeCON	acq_US_pleas_masked	acq45_masked	4	17	400	1	300	300	0	0	398	46	0	0	0	0	0	1	blank2r.bmp	0	1	+	0	4	B4r.bmp	492	1	blank2r.bmp	786	1	BMVZ	786	1	blank2r.bmp	866	5	helfen	866	1	!	1239	1	!	1292	0	0	0	0	0	0	0	0	0	0	0	0	0	0	0	0	0	0	0	0	0	0	0	0	0	0	0
121218	11:32:23	11:40:16	472468	5.0.10.0	4_exp_AMP_EVA_AWA_CON	8	Rpleas_acq	Oppo	Rpleas	Bmasked	CS_B	1pleas	distractor2	EVAbeforeCON	acq_US_pleas_masked	acq45_masked	4	18	400	0	300	300	0	0	305	50	0	1	0	0	0	1	blank2r.bmp	0	1	+	0	2	B2r.bmp	492	1	blank2r.bmp	786	1	BMVZ	786	1	blank2r.bmp	866	2	lachen	866	1	!	-1	1	!	-1	0	0	0	0	0	0	0	0	0	0	0	0	0	0	0	0	0	0	0	0	0	0	0	0	0	0	0
121218	11:32:23	11:40:18	474800	5.0.10.0	4_exp_AMP_EVA_AWA_CON	8	Rpleas_acq	Oppo	Rpleas	Bmasked	CS_B	1pleas	distractor2	EVAbeforeCON	acq_US_pleas_masked	acq45_masked	4	19	400	0	300	300	0	0	548	46	0	0	0	0	0	1	blank2r.bmp	0	1	+	0	3	B3r.bmp	492	1	blank2r.bmp	786	1	BMVZ	786	1	blank2r.bmp	866	3	retten	866	1	!	1239	1	!	-1	0	0	0	0	0	0	0	0	0	0	0	0	0	0	0	0	0	0	0	0	0	0	0	0	0	0	0
121218	11:32:23	11:40:20	477026	5.0.10.0	4_exp_AMP_EVA_AWA_CON	8	Rpleas_acq	Oppo	Rpleas	Bmasked	CS_B	1pleas	distractor2	EVAbeforeCON	acq_US_unple_masked	acq45_masked	4	20	400	1	300	300	0	0	415	46	0	1	0	0	0	1	blank2r.bmp	0	1	+	0	6	C2r.bmp	492	1	blank2r.bmp	786	1	GKQX	786	1	blank2r.bmp	866	6	schroff	866	1	!	1239	1	!	1319	0	0	0	0	0	0	0	0	0	0	0	0	0	0	0	0	0	0	0	0	0	0	0	0	0	0	0
121218	11:32:23	11:40:23	479211	5.0.10.0	4_exp_AMP_EVA_AWA_CON	8	Rpleas_acq	Oppo	Rpleas	Bmasked	CS_B	1pleas	distractor2	EVAbeforeCON	acq_US_pleas_masked	acq45_masked	4	21	400	1	300	300	0	0	381	50	0	1	0	0	0	1	blank2r.bmp	0	1	+	0	7	C3r.bmp	492	1	blank2r.bmp	786	1	BMVZ	786	1	blank2r.bmp	866	6	schlau	866	1	!	1239	1	!	1279	0	0	0	0	0	0	0	0	0	0	0	0	0	0	0	0	0	0	0	0	0	0	0	0	0	0	0
121218	11:32:23	11:40:25	481317	5.0.10.0	4_exp_AMP_EVA_AWA_CON	8	Rpleas_acq	Oppo	Rpleas	Bmasked	CS_B	1pleas	distractor2	EVAbeforeCON	acq_US_unple_masked	acq45_masked	4	22	400	0	300	300	0	0	327	46	0	1	0	0	0	1	blank2r.bmp	0	1	+	0	8	C4r.bmp	492	1	blank2r.bmp	786	1	GKQX	786	1	blank2r.bmp	866	1	strafen	866	1	!	-1	1	!	-1	0	0	0	0	0	0	0	0	0	0	0	0	0	0	0	0	0	0	0	0	0	0	0	0	0	0	0
121218	11:32:23	11:40:27	483663	5.0.10.0	4_exp_AMP_EVA_AWA_CON	8	Rpleas_acq	Oppo	Rpleas	Bmasked	CS_B	1pleas	distractor2	EVAbeforeCON	acq_US_unple_masked	acq45_masked	4	23	400	0	300	300	0	0	560	46	0	1	0	0	0	1	blank2r.bmp	0	1	+	0	4	B4r.bmp	492	1	blank2r.bmp	786	1	GKQX	786	1	blank2r.bmp	866	4	lasch	866	1	!	1239	1	!	-1	0	0	0	0	0	0	0	0	0	0	0	0	0	0	0	0	0	0	0	0	0	0	0	0	0	0	0
121218	11:32:23	11:40:29	485822	5.0.10.0	4_exp_AMP_EVA_AWA_CON	8	Rpleas_acq	Oppo	Rpleas	Bmasked	CS_B	1pleas	distractor2	EVAbeforeCON	acq_US_pleas_masked	acq45_masked	4	24	400	1	300	300	0	0	346	50	0	1	0	0	0	1	blank2r.bmp	0	1	+	0	3	B3r.bmp	492	1	blank2r.bmp	786	1	BMVZ	786	1	blank2r.bmp	866	1	spielen	866	1	!	1239	1	!	1252	0	0	0	0	0	0	0	0	0	0	0	0	0	0	0	0	0	0	0	0	0	0	0	0	0	0	0
121218	11:32:23	11:40:31	487994	5.0.10.0	4_exp_AMP_EVA_AWA_CON	8	Rpleas_acq	Oppo	Rpleas	Bmasked	CS_B	1pleas	distractor2	EVAbeforeCON	acq_US_unple_masked	acq45_masked	4	25	400	1	300	300	0	0	379	50	0	0	0	0	0	1	blank2r.bmp	0	1	+	0	2	B2r.bmp	492	1	blank2r.bmp	786	1	GKQX	786	1	blank2r.bmp	866	2	leiden	866	1	!	1239	1	!	1279	0	0	0	0	0	0	0	0	0	0	0	0	0	0	0	0	0	0	0	0	0	0	0	0	0	0	0
121218	11:32:23	11:40:34	490153	5.0.10.0	4_exp_AMP_EVA_AWA_CON	8	Rpleas_acq	Oppo	Rpleas	Bmasked	CS_B	1pleas	distractor2	EVAbeforeCON	acq_US_unple_masked	acq45_masked	4	26	400	1	300	300	0	0	358	46	0	1	0	0	0	1	blank2r.bmp	0	1	+	0	6	C2r.bmp	492	1	blank2r.bmp	786	1	GKQX	786	1	blank2r.bmp	866	1	strafen	866	1	!	1239	1	!	1252	0	0	0	0	0	0	0	0	0	0	0	0	0	0	0	0	0	0	0	0	0	0	0	0	0	0	0
121218	11:32:23	11:40:36	492393	5.0.10.0	4_exp_AMP_EVA_AWA_CON	8	Rpleas_acq	Oppo	Rpleas	Bmasked	CS_B	1pleas	distractor2	EVAbeforeCON	acq_US_unple_masked	acq45_masked	4	27	400	1	300	300	0	0	446	46	0	1	0	0	0	1	blank2r.bmp	0	1	+	0	5	C1r.bmp	492	1	blank2r.bmp	786	1	GKQX	786	1	blank2r.bmp	866	4	lasch	866	1	!	1239	1	!	1346	0	0	0	0	0	0	0	0	0	0	0	0	0	0	0	0	0	0	0	0	0	0	0	0	0	0	0
121218	11:32:23	11:40:38	494738	5.0.10.0	4_exp_AMP_EVA_AWA_CON	8	Rpleas_acq	Oppo	Rpleas	Bmasked	CS_B	1pleas	distractor2	EVAbeforeCON	acq_US_pleas_masked	acq45_masked	4	28	400	0	300	300	0	0	564	50	0	1	0	0	0	1	blank2r.bmp	0	1	+	0	1	B1r.bmp	492	1	blank2r.bmp	786	1	BMVZ	786	1	blank2r.bmp	866	6	schlau	866	1	!	1239	1	!	-1	0	0	0	0	0	0	0	0	0	0	0	0	0	0	0	0	0	0	0	0	0	0	0	0	0	0	0
121218	11:32:23	11:40:40	497084	5.0.10.0	4_exp_AMP_EVA_AWA_CON	8	Rpleas_acq	Oppo	Rpleas	Bmasked	CS_B	1pleas	distractor2	EVAbeforeCON	acq_US_pleas_masked	acq45_masked	4	29	400	0	300	300	0	0	558	50	0	1	0	0	0	1	blank2r.bmp	0	1	+	0	4	B4r.bmp	492	1	blank2r.bmp	786	1	BMVZ	786	1	blank2r.bmp	866	2	lachen	866	1	!	1239	1	!	-1	0	0	0	0	0	0	0	0	0	0	0	0	0	0	0	0	0	0	0	0	0	0	0	0	0	0	0
121218	11:32:23	11:40:43	499310	5.0.10.0	4_exp_AMP_EVA_AWA_CON	8	Rpleas_acq	Oppo	Rpleas	Bmasked	CS_B	1pleas	distractor2	EVAbeforeCON	acq_US_pleas_masked	acq45_masked	4	30	400	1	300	300	0	0	421	50	0	1	0	0	0	1	blank2r.bmp	0	1	+	0	3	B3r.bmp	492	1	blank2r.bmp	786	1	BMVZ	786	1	blank2r.bmp	866	4	loyal	866	1	!	1239	1	!	1319	0	0	0	0	0	0	0	0	0	0	0	0	0	0	0	0	0	0	0	0	0	0	0	0	0	0	0
121218	11:32:23	11:40:45	501469	5.0.10.0	4_exp_AMP_EVA_AWA_CON	8	Rpleas_acq	Oppo	Rpleas	Bmasked	CS_B	1pleas	distractor2	EVAbeforeCON	acq_US_pleas_masked	acq45_masked	4	31	400	1	300	300	0	0	371	50	0	1	0	0	0	1	blank2r.bmp	0	1	+	0	6	C2r.bmp	492	1	blank2r.bmp	786	1	BMVZ	786	1	blank2r.bmp	866	5	helfen	866	1	!	1239	1	!	1266	0	0	0	0	0	0	0	0	0	0	0	0	0	0	0	0	0	0	0	0	0	0	0	0	0	0	0
121218	11:32:23	11:40:47	503641	5.0.10.0	4_exp_AMP_EVA_AWA_CON	8	Rpleas_acq	Oppo	Rpleas	Bmasked	CS_B	1pleas	distractor2	EVAbeforeCON	acq_US_unple_masked	acq45_masked	4	32	400	1	300	300	0	0	379	46	0	1	0	0	0	1	blank2r.bmp	0	1	+	0	1	B1r.bmp	492	1	blank2r.bmp	786	1	GKQX	786	1	blank2r.bmp	866	6	schroff	866	1	!	1239	1	!	1279	0	0	0	0	0	0	0	0	0	0	0	0	0	0	0	0	0	0	0	0	0	0	0	0	0	0	0
121218	11:32:23	11:40:49	505854	5.0.10.0	4_exp_AMP_EVA_AWA_CON	8	Rpleas_acq	Oppo	Rpleas	Bmasked	CS_B	1pleas	distractor2	EVAbeforeCON	acq_US_pleas_masked	acq45_masked	4	33	400	1	300	300	0	0	403	50	0	1	0	0	0	1	blank2r.bmp	0	1	+	0	2	B2r.bmp	492	1	blank2r.bmp	786	1	BMVZ	786	1	blank2r.bmp	866	1	spielen	866	1	!	1239	1	!	1306	0	0	0	0	0	0	0	0	0	0	0	0	0	0	0	0	0	0	0	0	0	0	0	0	0	0	0
121218	11:32:23	11:40:51	508066	5.0.10.0	4_exp_AMP_EVA_AWA_CON	8	Rpleas_acq	Oppo	Rpleas	Bmasked	CS_B	1pleas	distractor2	EVAbeforeCON	acq_US_unple_masked	acq45_masked	4	34	400	1	300	300	0	0	421	46	0	1	0	0	0	1	blank2r.bmp	0	1	+	0	5	C1r.bmp	492	1	blank2r.bmp	786	1	GKQX	786	1	blank2r.bmp	866	5	hindern	866	1	!	1239	1	!	1319	0	0	0	0	0	0	0	0	0	0	0	0	0	0	0	0	0	0	0	0	0	0	0	0	0	0	0
121218	11:32:23	11:40:54	510252	5.0.10.0	4_exp_AMP_EVA_AWA_CON	8	Rpleas_acq	Oppo	Rpleas	Bmasked	CS_B	1pleas	distractor2	EVAbeforeCON	acq_US_pleas_masked	acq45_masked	4	35	400	1	300	300	0	0	398	50	0	1	0	0	0	1	blank2r.bmp	0	1	+	0	8	C4r.bmp	492	1	blank2r.bmp	786	1	BMVZ	786	1	blank2r.bmp	866	3	retten	866	1	!	1239	1	!	1292	0	0	0	0	0	0	0	0	0	0	0	0	0	0	0	0	0	0	0	0	0	0	0	0	0	0	0
121218	11:32:23	11:40:56	512411	5.0.10.0	4_exp_AMP_EVA_AWA_CON	8	Rpleas_acq	Oppo	Rpleas	Bmasked	CS_B	1pleas	distractor2	EVAbeforeCON	acq_US_unple_masked	acq45_masked	4	36	400	1	300	300	0	0	362	50	0	0	0	0	0	1	blank2r.bmp	0	1	+	0	7	C3r.bmp	492	1	blank2r.bmp	786	1	GKQX	786	1	blank2r.bmp	866	3	rächen	866	1	!	1239	1	!	1266	0	0	0	0	0	0	0	0	0	0	0	0	0	0	0	0	0	0	0	0	0	0	0	0	0	0	0
121218	11:32:23	11:41:05	521740	5.0.10.0	4_exp_AMP_EVA_AWA_CON	8	Rpleas_acq	Oppo	Rpleas	Bmasked	CS_B	1pleas	distractor2	EVAbeforeCON	acq_US_unple_masked	acq45_masked	5	1	400	0	300	300	0	0	479	46	0	1	0	0	0	1	blank2r.bmp	0	1	+	0	5	C1r.bmp	492	1	blank2r.bmp	786	1	GKQX	786	1	blank2r.bmp	866	1	strafen	866	1	!	1239	1	!	-1	0	0	0	0	0	0	0	0	0	0	0	0	0	0	0	0	0	0	0	0	0	0	0	0	0	0	0
121218	11:32:23	11:41:07	524006	5.0.10.0	4_exp_AMP_EVA_AWA_CON	8	Rpleas_acq	Oppo	Rpleas	Bmasked	CS_B	1pleas	distractor2	EVAbeforeCON	acq_US_unple_masked	acq45_masked	5	2	400	1	300	300	0	0	460	46	0	1	0	0	0	1	blank2r.bmp	0	1	+	0	1	B1r.bmp	492	1	blank2r.bmp	786	1	GKQX	786	1	blank2r.bmp	866	6	schroff	866	1	!	1239	1	!	1359	0	0	0	0	0	0	0	0	0	0	0	0	0	0	0	0	0	0	0	0	0	0	0	0	0	0	0
121218	11:32:23	11:41:10	526152	5.0.10.0	4_exp_AMP_EVA_AWA_CON	8	Rpleas_acq	Oppo	Rpleas	Bmasked	CS_B	1pleas	distractor2	EVAbeforeCON	acq_US_unple_masked	acq45_masked	5	3	400	1	300	300	0	0	358	50	0	0	0	0	0	1	blank2r.bmp	0	1	+	0	8	C4r.bmp	492	1	blank2r.bmp	786	1	GKQX	786	1	blank2r.bmp	866	3	rächen	866	1	!	1239	1	!	1252	0	0	0	0	0	0	0	0	0	0	0	0	0	0	0	0	0	0	0	0	0	0	0	0	0	0	0
121218	11:32:23	11:41:12	528364	5.0.10.0	4_exp_AMP_EVA_AWA_CON	8	Rpleas_acq	Oppo	Rpleas	Bmasked	CS_B	1pleas	distractor2	EVAbeforeCON	acq_US_unple_masked	acq45_masked	5	4	400	1	300	300	0	0	403	50	0	0	0	0	0	1	blank2r.bmp	0	1	+	0	2	B2r.bmp	492	1	blank2r.bmp	786	1	GKQX	786	1	blank2r.bmp	866	4	lasch	866	1	!	1239	1	!	1306	0	0	0	0	0	0	0	0	0	0	0	0	0	0	0	0	0	0	0	0	0	0	0	0	0	0	0
121218	11:32:23	11:41:14	530603	5.0.10.0	4_exp_AMP_EVA_AWA_CON	8	Rpleas_acq	Oppo	Rpleas	Bmasked	CS_B	1pleas	distractor2	EVAbeforeCON	acq_US_pleas_masked	acq45_masked	5	5	400	1	300	300	0	0	446	46	0	0	0	0	0	1	blank2r.bmp	0	1	+	0	6	C2r.bmp	492	1	blank2r.bmp	786	1	BMVZ	786	1	blank2r.bmp	866	4	loyal	866	1	!	1239	1	!	1346	0	0	0	0	0	0	0	0	0	0	0	0	0	0	0	0	0	0	0	0	0	0	0	0	0	0	0
121218	11:32:23	11:41:16	532816	5.0.10.0	4_exp_AMP_EVA_AWA_CON	8	Rpleas_acq	Oppo	Rpleas	Bmasked	CS_B	1pleas	distractor2	EVAbeforeCON	acq_US_pleas_masked	acq45_masked	5	6	400	1	300	300	0	0	422	50	0	1	0	0	0	1	blank2r.bmp	0	1	+	0	4	B4r.bmp	492	1	blank2r.bmp	786	1	BMVZ	786	1	blank2r.bmp	866	3	retten	866	1	!	1239	1	!	1319	0	0	0	0	0	0	0	0	0	0	0	0	0	0	0	0	0	0	0	0	0	0	0	0	0	0	0
121218	11:32:23	11:41:18	535068	5.0.10.0	4_exp_AMP_EVA_AWA_CON	8	Rpleas_acq	Oppo	Rpleas	Bmasked	CS_B	1pleas	distractor2	EVAbeforeCON	acq_US_pleas_masked	acq45_masked	5	7	400	0	300	300	0	0	491	46	0	0	0	0	0	1	blank2r.bmp	0	1	+	0	7	C3r.bmp	492	1	blank2r.bmp	786	1	BMVZ	786	1	blank2r.bmp	866	6	schlau	866	1	!	1239	1	!	-1	0	0	0	0	0	0	0	0	0	0	0	0	0	0	0	0	0	0	0	0	0	0	0	0	0	0	0
121218	11:32:23	11:41:21	537240	5.0.10.0	4_exp_AMP_EVA_AWA_CON	8	Rpleas_acq	Oppo	Rpleas	Bmasked	CS_B	1pleas	distractor2	EVAbeforeCON	acq_US_unple_masked	acq45_masked	5	8	400	1	300	300	0	0	367	50	0	0	0	0	0	1	blank2r.bmp	0	1	+	0	3	B3r.bmp	492	1	blank2r.bmp	786	1	GKQX	786	1	blank2r.bmp	866	5	hindern	866	1	!	1239	1	!	1266	0	0	0	0	0	0	0	0	0	0	0	0	0	0	0	0	0	0	0	0	0	0	0	0	0	0	0
121218	11:32:23	11:41:23	539493	5.0.10.0	4_exp_AMP_EVA_AWA_CON	8	Rpleas_acq	Oppo	Rpleas	Bmasked	CS_B	1pleas	distractor2	EVAbeforeCON	acq_US_unple_masked	acq45_masked	5	9	400	0	300	300	0	0	479	50	0	0	0	0	0	1	blank2r.bmp	0	1	+	0	5	C1r.bmp	492	1	blank2r.bmp	786	1	GKQX	786	1	blank2r.bmp	866	2	leiden	866	1	!	1239	1	!	-1	0	0	0	0	0	0	0	0	0	0	0	0	0	0	0	0	0	0	0	0	0	0	0	0	0	0	0
121218	11:32:23	11:41:25	541852	5.0.10.0	4_exp_AMP_EVA_AWA_CON	8	Rpleas_acq	Oppo	Rpleas	Bmasked	CS_B	1pleas	distractor2	EVAbeforeCON	acq_US_pleas_masked	acq45_masked	5	10	400	0	300	300	0	0	575	50	0	1	0	0	0	1	blank2r.bmp	0	1	+	0	8	C4r.bmp	492	1	blank2r.bmp	786	1	BMVZ	786	1	blank2r.bmp	866	2	lachen	866	1	!	1239	1	!	-1	0	0	0	0	0	0	0	0	0	0	0	0	0	0	0	0	0	0	0	0	0	0	0	0	0	0	0
121218	11:32:23	11:41:28	544144	5.0.10.0	4_exp_AMP_EVA_AWA_CON	8	Rpleas_acq	Oppo	Rpleas	Bmasked	CS_B	1pleas	distractor2	EVAbeforeCON	acq_US_unple_masked	acq45_masked	5	11	400	0	300	300	0	0	508	46	0	1	0	0	0	1	blank2r.bmp	0	1	+	0	7	C3r.bmp	492	1	blank2r.bmp	786	1	GKQX	786	1	blank2r.bmp	866	6	schroff	866	1	!	1239	1	!	-1	0	0	0	0	0	0	0	0	0	0	0	0	0	0	0	0	0	0	0	0	0	0	0	0	0	0	0
121218	11:32:23	11:41:30	546330	5.0.10.0	4_exp_AMP_EVA_AWA_CON	8	Rpleas_acq	Oppo	Rpleas	Bmasked	CS_B	1pleas	distractor2	EVAbeforeCON	acq_US_pleas_masked	acq45_masked	5	12	400	1	300	300	0	0	381	50	0	1	0	0	0	1	blank2r.bmp	0	1	+	0	1	B1r.bmp	492	1	blank2r.bmp	786	1	BMVZ	786	1	blank2r.bmp	866	5	helfen	866	1	!	1239	1	!	1279	0	0	0	0	0	0	0	0	0	0	0	0	0	0	0	0	0	0	0	0	0	0	0	0	0	0	0
121218	11:32:23	11:41:32	548502	5.0.10.0	4_exp_AMP_EVA_AWA_CON	8	Rpleas_acq	Oppo	Rpleas	Bmasked	CS_B	1pleas	distractor2	EVAbeforeCON	acq_US_pleas_masked	acq45_masked	5	13	400	1	300	300	0	0	374	50	0	1	0	0	0	1	blank2r.bmp	0	1	+	0	2	B2r.bmp	492	1	blank2r.bmp	786	1	BMVZ	786	1	blank2r.bmp	866	1	spielen	866	1	!	1239	1	!	1279	0	0	0	0	0	0	0	0	0	0	0	0	0	0	0	0	0	0	0	0	0	0	0	0	0	0	0
121218	11:32:23	11:41:34	550568	5.0.10.0	4_exp_AMP_EVA_AWA_CON	8	Rpleas_acq	Oppo	Rpleas	Bmasked	CS_B	1pleas	distractor2	EVAbeforeCON	acq_US_pleas_masked	acq45_masked	5	14	400	0	300	300	0	0	302	50	0	1	0	0	0	1	blank2r.bmp	0	1	+	0	4	B4r.bmp	492	1	blank2r.bmp	786	1	BMVZ	786	1	blank2r.bmp	866	3	retten	866	1	!	-1	1	!	-1	0	0	0	0	0	0	0	0	0	0	0	0	0	0	0	0	0	0	0	0	0	0	0	0	0	0	0
121218	11:32:23	11:41:36	552741	5.0.10.0	4_exp_AMP_EVA_AWA_CON	8	Rpleas_acq	Oppo	Rpleas	Bmasked	CS_B	1pleas	distractor2	EVAbeforeCON	acq_US_unple_masked	acq45_masked	5	15	400	1	300	300	0	0	346	50	0	0	0	0	0	1	blank2r.bmp	0	1	+	0	6	C2r.bmp	492	1	blank2r.bmp	786	1	GKQX	786	1	blank2r.bmp	866	2	leiden	866	1	!	1239	1	!	1252	0	0	0	0	0	0	0	0	0	0	0	0	0	0	0	0	0	0	0	0	0	0	0	0	0	0	0
121218	11:32:23	11:41:38	554913	5.0.10.0	4_exp_AMP_EVA_AWA_CON	8	Rpleas_acq	Oppo	Rpleas	Bmasked	CS_B	1pleas	distractor2	EVAbeforeCON	acq_US_pleas_masked	acq45_masked	5	16	400	1	300	300	0	0	379	50	0	1	0	0	0	1	blank2r.bmp	0	1	+	0	3	B3r.bmp	492	1	blank2r.bmp	786	1	BMVZ	786	1	blank2r.bmp	866	6	schlau	866	1	!	1239	1	!	1279	0	0	0	0	0	0	0	0	0	0	0	0	0	0	0	0	0	0	0	0	0	0	0	0	0	0	0
121218	11:32:23	11:41:40	557059	5.0.10.0	4_exp_AMP_EVA_AWA_CON	8	Rpleas_acq	Oppo	Rpleas	Bmasked	CS_B	1pleas	distractor2	EVAbeforeCON	acq_US_pleas_masked	acq45_masked	5	17	400	1	300	300	0	0	346	50	0	1	0	0	0	1	blank2r.bmp	0	1	+	0	2	B2r.bmp	492	1	blank2r.bmp	786	1	BMVZ	786	1	blank2r.bmp	866	1	spielen	866	1	!	1239	1	!	1252	0	0	0	0	0	0	0	0	0	0	0	0	0	0	0	0	0	0	0	0	0	0	0	0	0	0	0
121218	11:32:23	11:41:43	559218	5.0.10.0	4_exp_AMP_EVA_AWA_CON	8	Rpleas_acq	Oppo	Rpleas	Bmasked	CS_B	1pleas	distractor2	EVAbeforeCON	acq_US_unple_masked	acq45_masked	5	18	400	1	300	300	0	0	359	50	0	0	0	0	0	1	blank2r.bmp	0	1	+	0	8	C4r.bmp	492	1	blank2r.bmp	786	1	GKQX	786	1	blank2r.bmp	866	3	rächen	866	1	!	1239	1	!	1266	0	0	0	0	0	0	0	0	0	0	0	0	0	0	0	0	0	0	0	0	0	0	0	0	0	0	0
121218	11:32:23	11:41:45	561377	5.0.10.0	4_exp_AMP_EVA_AWA_CON	8	Rpleas_acq	Oppo	Rpleas	Bmasked	CS_B	1pleas	distractor2	EVAbeforeCON	acq_US_pleas_masked	acq45_masked	5	19	400	1	300	300	0	0	367	50	0	1	0	0	0	1	blank2r.bmp	0	1	+	0	7	C3r.bmp	492	1	blank2r.bmp	786	1	BMVZ	786	1	blank2r.bmp	866	4	loyal	866	1	!	1239	1	!	1266	0	0	0	0	0	0	0	0	0	0	0	0	0	0	0	0	0	0	0	0	0	0	0	0	0	0	0
121218	11:32:23	11:41:47	563456	5.0.10.0	4_exp_AMP_EVA_AWA_CON	8	Rpleas_acq	Oppo	Rpleas	Bmasked	CS_B	1pleas	distractor2	EVAbeforeCON	acq_US_pleas_masked	acq45_masked	5	20	400	0	300	300	0	0	317	50	0	1	0	0	0	1	blank2r.bmp	0	1	+	0	5	C1r.bmp	492	1	blank2r.bmp	786	1	BMVZ	786	1	blank2r.bmp	866	5	helfen	866	1	!	-1	1	!	-1	0	0	0	0	0	0	0	0	0	0	0	0	0	0	0	0	0	0	0	0	0	0	0	0	0	0	0
121218	11:32:23	11:41:49	565628	5.0.10.0	4_exp_AMP_EVA_AWA_CON	8	Rpleas_acq	Oppo	Rpleas	Bmasked	CS_B	1pleas	distractor2	EVAbeforeCON	acq_US_pleas_masked	acq45_masked	5	21	400	1	300	300	0	0	360	50	0	1	0	0	0	1	blank2r.bmp	0	1	+	0	1	B1r.bmp	492	1	blank2r.bmp	786	1	BMVZ	786	1	blank2r.bmp	866	2	lachen	866	1	!	1239	1	!	1266	0	0	0	0	0	0	0	0	0	0	0	0	0	0	0	0	0	0	0	0	0	0	0	0	0	0	0
121218	11:32:23	11:41:51	567894	5.0.10.0	4_exp_AMP_EVA_AWA_CON	8	Rpleas_acq	Oppo	Rpleas	Bmasked	CS_B	1pleas	distractor2	EVAbeforeCON	acq_US_unple_masked	acq45_masked	5	22	400	0	300	300	0	0	499	46	0	1	0	0	0	1	blank2r.bmp	0	1	+	0	3	B3r.bmp	492	1	blank2r.bmp	786	1	GKQX	786	1	blank2r.bmp	866	5	hindern	866	1	!	1239	1	!	-1	0	0	0	0	0	0	0	0	0	0	0	0	0	0	0	0	0	0	0	0	0	0	0	0	0	0	0
121218	11:32:23	11:41:54	570133	5.0.10.0	4_exp_AMP_EVA_AWA_CON	8	Rpleas_acq	Oppo	Rpleas	Bmasked	CS_B	1pleas	distractor2	EVAbeforeCON	acq_US_unple_masked	acq45_masked	5	23	400	1	300	300	0	0	428	46	0	1	0	0	0	1	blank2r.bmp	0	1	+	0	4	B4r.bmp	492	1	blank2r.bmp	786	1	GKQX	786	1	blank2r.bmp	866	1	strafen	866	1	!	1239	1	!	1332	0	0	0	0	0	0	0	0	0	0	0	0	0	0	0	0	0	0	0	0	0	0	0	0	0	0	0
121218	11:32:23	11:41:56	572332	5.0.10.0	4_exp_AMP_EVA_AWA_CON	8	Rpleas_acq	Oppo	Rpleas	Bmasked	CS_B	1pleas	distractor2	EVAbeforeCON	acq_US_unple_masked	acq45_masked	5	24	400	1	300	300	0	0	404	50	0	0	0	0	0	1	blank2r.bmp	0	1	+	0	6	C2r.bmp	492	1	blank2r.bmp	786	1	GKQX	786	1	blank2r.bmp	866	4	lasch	866	1	!	1239	1	!	1306	0	0	0	0	0	0	0	0	0	0	0	0	0	0	0	0	0	0	0	0	0	0	0	0	0	0	0
121218	11:32:23	11:41:58	574545	5.0.10.0	4_exp_AMP_EVA_AWA_CON	8	Rpleas_acq	Oppo	Rpleas	Bmasked	CS_B	1pleas	distractor2	EVAbeforeCON	acq_US_pleas_masked	acq45_masked	5	25	400	1	300	300	0	0	413	50	0	1	0	0	0	1	blank2r.bmp	0	1	+	0	4	B4r.bmp	492	1	blank2r.bmp	786	1	BMVZ	786	1	blank2r.bmp	866	6	schlau	866	1	!	1239	1	!	1319	0	0	0	0	0	0	0	0	0	0	0	0	0	0	0	0	0	0	0	0	0	0	0	0	0	0	0
121218	11:32:23	11:42:00	576757	5.0.10.0	4_exp_AMP_EVA_AWA_CON	8	Rpleas_acq	Oppo	Rpleas	Bmasked	CS_B	1pleas	distractor2	EVAbeforeCON	acq_US_unple_masked	acq45_masked	5	26	400	1	300	300	0	0	413	50	0	0	0	0	0	1	blank2r.bmp	0	1	+	0	1	B1r.bmp	492	1	blank2r.bmp	786	1	GKQX	786	1	blank2r.bmp	866	4	lasch	866	1	!	1239	1	!	1319	0	0	0	0	0	0	0	0	0	0	0	0	0	0	0	0	0	0	0	0	0	0	0	0	0	0	0
121218	11:32:23	11:42:02	578983	5.0.10.0	4_exp_AMP_EVA_AWA_CON	8	Rpleas_acq	Oppo	Rpleas	Bmasked	CS_B	1pleas	distractor2	EVAbeforeCON	acq_US_pleas_masked	acq45_masked	5	27	400	1	300	300	0	0	415	50	0	1	0	0	0	1	blank2r.bmp	0	1	+	0	3	B3r.bmp	492	1	blank2r.bmp	786	1	BMVZ	786	1	blank2r.bmp	866	2	lachen	866	1	!	1239	1	!	1319	0	0	0	0	0	0	0	0	0	0	0	0	0	0	0	0	0	0	0	0	0	0	0	0	0	0	0
121218	11:32:23	11:42:05	581142	5.0.10.0	4_exp_AMP_EVA_AWA_CON	8	Rpleas_acq	Oppo	Rpleas	Bmasked	CS_B	1pleas	distractor2	EVAbeforeCON	acq_US_unple_masked	acq45_masked	5	28	400	1	300	300	0	0	359	46	0	1	0	0	0	1	blank2r.bmp	0	1	+	0	6	C2r.bmp	492	1	blank2r.bmp	786	1	GKQX	786	1	blank2r.bmp	866	1	strafen	866	1	!	1239	1	!	1266	0	0	0	0	0	0	0	0	0	0	0	0	0	0	0	0	0	0	0	0	0	0	0	0	0	0	0
121218	11:32:23	11:42:07	583194	5.0.10.0	4_exp_AMP_EVA_AWA_CON	8	Rpleas_acq	Oppo	Rpleas	Bmasked	CS_B	1pleas	distractor2	EVAbeforeCON	acq_US_pleas_masked	acq45_masked	5	29	400	0	300	300	0	0	284	46	0	0	0	0	0	1	blank2r.bmp	0	1	+	0	7	C3r.bmp	492	1	blank2r.bmp	786	1	BMVZ	786	1	blank2r.bmp	866	3	retten	866	1	!	-1	1	!	-1	0	0	0	0	0	0	0	0	0	0	0	0	0	0	0	0	0	0	0	0	0	0	0	0	0	0	0
121218	11:32:23	11:42:09	585407	5.0.10.0	4_exp_AMP_EVA_AWA_CON	8	Rpleas_acq	Oppo	Rpleas	Bmasked	CS_B	1pleas	distractor2	EVAbeforeCON	acq_US_unple_masked	acq45_masked	5	30	400	1	300	300	0	0	400	46	0	1	0	0	0	1	blank2r.bmp	0	1	+	0	5	C1r.bmp	492	1	blank2r.bmp	786	1	GKQX	786	1	blank2r.bmp	866	6	schroff	866	1	!	1239	1	!	1306	0	0	0	0	0	0	0	0	0	0	0	0	0	0	0	0	0	0	0	0	0	0	0	0	0	0	0
121218	11:32:23	11:42:11	587606	5.0.10.0	4_exp_AMP_EVA_AWA_CON	8	Rpleas_acq	Oppo	Rpleas	Bmasked	CS_B	1pleas	distractor2	EVAbeforeCON	acq_US_pleas_masked	acq45_masked	5	31	400	1	300	300	0	0	405	50	0	1	0	0	0	1	blank2r.bmp	0	1	+	0	2	B2r.bmp	492	1	blank2r.bmp	786	1	BMVZ	786	1	blank2r.bmp	866	1	spielen	866	1	!	1239	1	!	1306	0	0	0	0	0	0	0	0	0	0	0	0	0	0	0	0	0	0	0	0	0	0	0	0	0	0	0
121218	11:32:23	11:42:13	589832	5.0.10.0	4_exp_AMP_EVA_AWA_CON	8	Rpleas_acq	Oppo	Rpleas	Bmasked	CS_B	1pleas	distractor2	EVAbeforeCON	acq_US_unple_masked	acq45_masked	5	32	400	1	300	300	0	0	436	50	0	0	0	0	0	1	blank2r.bmp	0	1	+	0	8	C4r.bmp	492	1	blank2r.bmp	786	1	GKQX	786	1	blank2r.bmp	866	5	hindern	866	1	!	1239	1	!	1332	0	0	0	0	0	0	0	0	0	0	0	0	0	0	0	0	0	0	0	0	0	0	0	0	0	0	0
121218	11:32:23	11:42:15	591937	5.0.10.0	4_exp_AMP_EVA_AWA_CON	8	Rpleas_acq	Oppo	Rpleas	Bmasked	CS_B	1pleas	distractor2	EVAbeforeCON	acq_US_unple_masked	acq45_masked	5	33	400	0	300	300	0	0	333	46	0	1	0	0	0	1	blank2r.bmp	0	1	+	0	1	B1r.bmp	492	1	blank2r.bmp	786	1	GKQX	786	1	blank2r.bmp	866	3	rächen	866	1	!	-1	1	!	-1	0	0	0	0	0	0	0	0	0	0	0	0	0	0	0	0	0	0	0	0	0	0	0	0	0	0	0
121218	11:32:23	11:42:18	594203	5.0.10.0	4_exp_AMP_EVA_AWA_CON	8	Rpleas_acq	Oppo	Rpleas	Bmasked	CS_B	1pleas	distractor2	EVAbeforeCON	acq_US_pleas_masked	acq45_masked	5	34	400	1	300	300	0	0	438	50	0	1	0	0	0	1	blank2r.bmp	0	1	+	0	7	C3r.bmp	492	1	blank2r.bmp	786	1	BMVZ	786	1	blank2r.bmp	866	4	loyal	866	1	!	1239	1	!	1346	0	0	0	0	0	0	0	0	0	0	0	0	0	0	0	0	0	0	0	0	0	0	0	0	0	0	0
121218	11:32:23	11:42:20	596455	5.0.10.0	4_exp_AMP_EVA_AWA_CON	8	Rpleas_acq	Oppo	Rpleas	Bmasked	CS_B	1pleas	distractor2	EVAbeforeCON	acq_US_unple_masked	acq45_masked	5	35	400	1	300	300	0	0	455	50	0	0	0	0	0	1	blank2r.bmp	0	1	+	0	5	C1r.bmp	492	1	blank2r.bmp	786	1	GKQX	786	1	blank2r.bmp	866	2	leiden	866	1	!	1239	1	!	1359	0	0	0	0	0	0	0	0	0	0	0	0	0	0	0	0	0	0	0	0	0	0	0	0	0	0	0
121218	11:32:23	11:42:22	598681	5.0.10.0	4_exp_AMP_EVA_AWA_CON	8	Rpleas_acq	Oppo	Rpleas	Bmasked	CS_B	1pleas	distractor2	EVAbeforeCON	acq_US_pleas_masked	acq45_masked	5	36	400	1	300	300	0	0	429	46	0	0	0	0	0	1	blank2r.bmp	0	1	+	0	6	C2r.bmp	492	1	blank2r.bmp	786	1	BMVZ	786	1	blank2r.bmp	866	5	helfen	866	1	!	1239	1	!	1332	0	0	0	0	0	0	0	0	0	0	0	0	0	0	0	0	0	0	0	0	0	0	0	0	0	0	0
121218	11:32:23	11:43:03	639717	5.0.10.0	4_exp_AMP_EVA_AWA_CON	8	Rpleas_acq	Oppo	Lpleas	Bmasked	CS_B	1pleas	distractor2	EVAbeforeCON	AMP_distractor	AMP1_masked	6	1	0	0	300	300	0	0	2614	46	0	0	0	0	0	1	blank2r.bmp	0	1	JCRD	0	1	blank2r.bmp	79	95	pic95.bmp	199	1	whitenoise_No3.bmp	306	0	0	0	0	0	0	0	0	0	0	0	0	0	0	0	0	0	0	0	0	0	0	0	0	0	0	0	0	0	0	0	0	0	0	0	0	0	0	0
121218	11:32:23	11:43:08	644649	5.0.10.0	4_exp_AMP_EVA_AWA_CON	8	Rpleas_acq	Oppo	Lpleas	Bmasked	CS_B	1pleas	distractor2	EVAbeforeCON	AMP_distractor	AMP1_masked	6	2	0	0	300	300	0	0	4003	46	0	0	0	0	0	1	blank2r.bmp	0	1	JCRD	0	1	blank2r.bmp	79	59	pic59.bmp	199	1	whitenoise_No3.bmp	306	0	0	0	0	0	0	0	0	0	0	0	0	0	0	0	0	0	0	0	0	0	0	0	0	0	0	0	0	0	0	0	0	0	0	0	0	0	0	0
121218	11:32:23	11:43:10	646248	5.0.10.0	4_exp_AMP_EVA_AWA_CON	8	Rpleas_acq	Oppo	Lpleas	Bmasked	CS_B	1pleas	distractor2	EVAbeforeCON	AMP_distractor	AMP1_masked	6	3	0	0	300	300	0	0	673	46	0	0	0	0	0	1	blank2r.bmp	0	1	JCRD	0	1	blank2r.bmp	79	94	pic94.bmp	199	1	whitenoise_No3.bmp	306	0	0	0	0	0	0	0	0	0	0	0	0	0	0	0	0	0	0	0	0	0	0	0	0	0	0	0	0	0	0	0	0	0	0	0	0	0	0	0
121218	11:32:23	11:43:11	647621	5.0.10.0	4_exp_AMP_EVA_AWA_CON	8	Rpleas_acq	Oppo	Lpleas	Bmasked	CS_B	1pleas	distractor2	EVAbeforeCON	AMP_CSunple	AMP1_masked	6	4	0	0	300	300	0	0	439	50	0	1	0	0	0	1	blank2r.bmp	0	1	GKQX	0	1	blank2r.bmp	79	58	pic58.bmp	199	1	whitenoise_No3.bmp	306	0	0	0	0	0	0	0	0	0	0	0	0	0	0	0	0	0	0	0	0	0	0	0	0	0	0	0	0	0	0	0	0	0	0	0	0	0	0	0
121218	11:32:23	11:43:13	649860	5.0.10.0	4_exp_AMP_EVA_AWA_CON	8	Rpleas_acq	Oppo	Lpleas	Bmasked	CS_B	1pleas	distractor2	EVAbeforeCON	AMP_CSunple	AMP1_masked	6	5	0	0	300	300	0	0	1318	46	0	0	0	0	0	1	blank2r.bmp	0	1	GKQX	0	1	blank2r.bmp	79	22	pic22.bmp	199	1	whitenoise_No3.bmp	306	0	0	0	0	0	0	0	0	0	0	0	0	0	0	0	0	0	0	0	0	0	0	0	0	0	0	0	0	0	0	0	0	0	0	0	0	0	0	0
121218	11:32:23	11:43:15	651179	5.0.10.0	4_exp_AMP_EVA_AWA_CON	8	Rpleas_acq	Oppo	Lpleas	Bmasked	CS_B	1pleas	distractor2	EVAbeforeCON	AMP_CSunple	AMP1_masked	6	6	0	0	300	300	0	0	408	46	0	0	0	0	0	1	blank2r.bmp	0	1	GKQX	0	1	blank2r.bmp	79	144	pic144.bmp	199	1	whitenoise_No3.bmp	306	0	0	0	0	0	0	0	0	0	0	0	0	0	0	0	0	0	0	0	0	0	0	0	0	0	0	0	0	0	0	0	0	0	0	0	0	0	0	0
121218	11:32:23	11:43:16	652485	5.0.10.0	4_exp_AMP_EVA_AWA_CON	8	Rpleas_acq	Oppo	Lpleas	Bmasked	CS_B	1pleas	distractor2	EVAbeforeCON	AMP_distractor	AMP1_masked	6	7	0	0	300	300	0	0	383	46	0	0	0	0	0	1	blank2r.bmp	0	1	JCRD	0	1	blank2r.bmp	79	79	pic79.bmp	199	1	whitenoise_No3.bmp	306	0	0	0	0	0	0	0	0	0	0	0	0	0	0	0	0	0	0	0	0	0	0	0	0	0	0	0	0	0	0	0	0	0	0	0	0	0	0	0
121218	11:32:23	11:43:17	654098	5.0.10.0	4_exp_AMP_EVA_AWA_CON	8	Rpleas_acq	Oppo	Lpleas	Bmasked	CS_B	1pleas	distractor2	EVAbeforeCON	AMP_CSunple	AMP1_masked	6	8	0	0	300	300	0	0	685	50	0	1	0	0	0	1	blank2r.bmp	0	1	GKQX	0	1	blank2r.bmp	79	101	pic101.bmp	199	1	whitenoise_No3.bmp	306	0	0	0	0	0	0	0	0	0	0	0	0	0	0	0	0	0	0	0	0	0	0	0	0	0	0	0	0	0	0	0	0	0	0	0	0	0	0	0
121218	11:32:23	11:43:19	655431	5.0.10.0	4_exp_AMP_EVA_AWA_CON	8	Rpleas_acq	Oppo	Lpleas	Bmasked	CS_B	1pleas	distractor2	EVAbeforeCON	AMP_CSunple	AMP1_masked	6	9	0	0	300	300	0	0	406	46	0	0	0	0	0	1	blank2r.bmp	0	1	GKQX	0	1	blank2r.bmp	79	125	pic125.bmp	199	1	whitenoise_No3.bmp	306	0	0	0	0	0	0	0	0	0	0	0	0	0	0	0	0	0	0	0	0	0	0	0	0	0	0	0	0	0	0	0	0	0	0	0	0	0	0	0
121218	11:32:23	11:43:20	657043	5.0.10.0	4_exp_AMP_EVA_AWA_CON	8	Rpleas_acq	Oppo	Lpleas	Bmasked	CS_B	1pleas	distractor2	EVAbeforeCON	AMP_distractor	AMP1_masked	6	10	0	0	300	300	0	0	695	50	0	0	0	0	0	1	blank2r.bmp	0	1	JCRD	0	1	blank2r.bmp	79	93	pic93.bmp	199	1	whitenoise_No3.bmp	306	0	0	0	0	0	0	0	0	0	0	0	0	0	0	0	0	0	0	0	0	0	0	0	0	0	0	0	0	0	0	0	0	0	0	0	0	0	0	0
121218	11:32:23	11:43:22	658403	5.0.10.0	4_exp_AMP_EVA_AWA_CON	8	Rpleas_acq	Oppo	Lpleas	Bmasked	CS_B	1pleas	distractor2	EVAbeforeCON	AMP_CSpleas	AMP1_masked	6	11	0	0	300	300	0	0	449	46	0	1	0	0	0	1	blank2r.bmp	0	1	BMVZ	0	1	blank2r.bmp	79	6	pic6.bmp	199	1	whitenoise_No3.bmp	306	0	0	0	0	0	0	0	0	0	0	0	0	0	0	0	0	0	0	0	0	0	0	0	0	0	0	0	0	0	0	0	0	0	0	0	0	0	0	0
121218	11:32:23	11:43:23	659442	5.0.10.0	4_exp_AMP_EVA_AWA_CON	8	Rpleas_acq	Oppo	Lpleas	Bmasked	CS_B	1pleas	distractor2	EVAbeforeCON	AMP_distractor	AMP1_masked	6	12	0	0	300	300	0	0	106	50	0	0	0	0	0	1	blank2r.bmp	0	1	JCRD	0	1	blank2r.bmp	79	65	pic65.bmp	199	1	whitenoise_No3.bmp	306	0	0	0	0	0	0	0	0	0	0	0	0	0	0	0	0	0	0	0	0	0	0	0	0	0	0	0	0	0	0	0	0	0	0	0	0	0	0	0
121218	11:32:23	11:43:24	660908	5.0.10.0	4_exp_AMP_EVA_AWA_CON	8	Rpleas_acq	Oppo	Lpleas	Bmasked	CS_B	1pleas	distractor2	EVAbeforeCON	AMP_CSunple	AMP1_masked	6	13	0	0	300	300	0	0	546	46	0	0	0	0	0	1	blank2r.bmp	0	1	GKQX	0	1	blank2r.bmp	79	54	pic54.bmp	199	1	whitenoise_No3.bmp	306	0	0	0	0	0	0	0	0	0	0	0	0	0	0	0	0	0	0	0	0	0	0	0	0	0	0	0	0	0	0	0	0	0	0	0	0	0	0	0
121218	11:32:23	11:43:25	661948	5.0.10.0	4_exp_AMP_EVA_AWA_CON	8	Rpleas_acq	Oppo	Lpleas	Bmasked	CS_B	1pleas	distractor2	EVAbeforeCON	AMP_CSpleas	AMP1_masked	6	14	0	0	300	300	0	0	122	46	0	1	0	0	0	1	blank2r.bmp	0	1	BMVZ	0	1	blank2r.bmp	79	76	pic76.bmp	199	1	whitenoise_No3.bmp	306	0	0	0	0	0	0	0	0	0	0	0	0	0	0	0	0	0	0	0	0	0	0	0	0	0	0	0	0	0	0	0	0	0	0	0	0	0	0	0
121218	11:32:23	11:43:27	663507	5.0.10.0	4_exp_AMP_EVA_AWA_CON	8	Rpleas_acq	Oppo	Lpleas	Bmasked	CS_B	1pleas	distractor2	EVAbeforeCON	AMP_CSunple	AMP1_masked	6	15	0	0	300	300	0	0	634	46	0	0	0	0	0	1	blank2r.bmp	0	1	GKQX	0	1	blank2r.bmp	79	26	pic26.bmp	199	1	whitenoise_No3.bmp	306	0	0	0	0	0	0	0	0	0	0	0	0	0	0	0	0	0	0	0	0	0	0	0	0	0	0	0	0	0	0	0	0	0	0	0	0	0	0	0
121218	11:32:23	11:43:28	665053	5.0.10.0	4_exp_AMP_EVA_AWA_CON	8	Rpleas_acq	Oppo	Lpleas	Bmasked	CS_B	1pleas	distractor2	EVAbeforeCON	AMP_CSpleas	AMP1_masked	6	16	0	0	300	300	0	0	619	46	0	1	0	0	0	1	blank2r.bmp	0	1	BMVZ	0	1	blank2r.bmp	79	71	pic71.bmp	199	1	whitenoise_No3.bmp	306	0	0	0	0	0	0	0	0	0	0	0	0	0	0	0	0	0	0	0	0	0	0	0	0	0	0	0	0	0	0	0	0	0	0	0	0	0	0	0
121218	11:32:23	11:43:30	667053	5.0.10.0	4_exp_AMP_EVA_AWA_CON	8	Rpleas_acq	Oppo	Lpleas	Bmasked	CS_B	1pleas	distractor2	EVAbeforeCON	AMP_distractor	AMP1_masked	6	17	0	0	300	300	0	0	1066	46	0	0	0	0	0	1	blank2r.bmp	0	1	JCRD	0	1	blank2r.bmp	79	114	pic114.bmp	199	1	whitenoise_No3.bmp	306	0	0	0	0	0	0	0	0	0	0	0	0	0	0	0	0	0	0	0	0	0	0	0	0	0	0	0	0	0	0	0	0	0	0	0	0	0	0	0
121218	11:32:23	11:43:32	668572	5.0.10.0	4_exp_AMP_EVA_AWA_CON	8	Rpleas_acq	Oppo	Lpleas	Bmasked	CS_B	1pleas	distractor2	EVAbeforeCON	AMP_distractor	AMP1_masked	6	18	0	0	300	300	0	0	603	50	0	0	0	0	0	1	blank2r.bmp	0	1	JCRD	0	1	blank2r.bmp	79	153	pic153.bmp	199	1	whitenoise_No3.bmp	306	0	0	0	0	0	0	0	0	0	0	0	0	0	0	0	0	0	0	0	0	0	0	0	0	0	0	0	0	0	0	0	0	0	0	0	0	0	0	0
121218	11:32:23	11:43:33	670051	5.0.10.0	4_exp_AMP_EVA_AWA_CON	8	Rpleas_acq	Oppo	Lpleas	Bmasked	CS_B	1pleas	distractor2	EVAbeforeCON	AMP_CSpleas	AMP1_masked	6	19	0	0	300	300	0	0	570	46	0	1	0	0	0	1	blank2r.bmp	0	1	BMVZ	0	1	blank2r.bmp	79	52	pic52.bmp	199	1	whitenoise_No3.bmp	306	0	0	0	0	0	0	0	0	0	0	0	0	0	0	0	0	0	0	0	0	0	0	0	0	0	0	0	0	0	0	0	0	0	0	0	0	0	0	0
121218	11:32:23	11:43:36	672770	5.0.10.0	4_exp_AMP_EVA_AWA_CON	8	Rpleas_acq	Oppo	Lpleas	Bmasked	CS_B	1pleas	distractor2	EVAbeforeCON	AMP_CSpleas	AMP1_masked	6	20	0	0	300	300	0	0	1789	46	0	1	0	0	0	1	blank2r.bmp	0	1	BMVZ	0	1	blank2r.bmp	79	35	pic35.bmp	199	1	whitenoise_No3.bmp	306	0	0	0	0	0	0	0	0	0	0	0	0	0	0	0	0	0	0	0	0	0	0	0	0	0	0	0	0	0	0	0	0	0	0	0	0	0	0	0
121218	11:32:23	11:43:38	674223	5.0.10.0	4_exp_AMP_EVA_AWA_CON	8	Rpleas_acq	Oppo	Lpleas	Bmasked	CS_B	1pleas	distractor2	EVAbeforeCON	AMP_CSpleas	AMP1_masked	6	21	0	0	300	300	0	0	528	46	0	1	0	0	0	1	blank2r.bmp	0	1	BMVZ	0	1	blank2r.bmp	79	39	pic39.bmp	199	1	whitenoise_No3.bmp	306	0	0	0	0	0	0	0	0	0	0	0	0	0	0	0	0	0	0	0	0	0	0	0	0	0	0	0	0	0	0	0	0	0	0	0	0	0	0	0
121218	11:32:23	11:43:39	675636	5.0.10.0	4_exp_AMP_EVA_AWA_CON	8	Rpleas_acq	Oppo	Lpleas	Bmasked	CS_B	1pleas	distractor2	EVAbeforeCON	AMP_CSpleas	AMP1_masked	6	22	0	0	300	300	0	0	487	50	0	0	0	0	0	1	blank2r.bmp	0	1	BMVZ	0	1	blank2r.bmp	79	111	pic111.bmp	199	1	whitenoise_No3.bmp	306	0	0	0	0	0	0	0	0	0	0	0	0	0	0	0	0	0	0	0	0	0	0	0	0	0	0	0	0	0	0	0	0	0	0	0	0	0	0	0
121218	11:32:23	11:43:41	677342	5.0.10.0	4_exp_AMP_EVA_AWA_CON	8	Rpleas_acq	Oppo	Lpleas	Bmasked	CS_B	1pleas	distractor2	EVAbeforeCON	AMP_CSunple	AMP1_masked	6	23	0	0	300	300	0	0	772	50	0	1	0	0	0	1	blank2r.bmp	0	1	GKQX	0	1	blank2r.bmp	79	108	pic108.bmp	199	1	whitenoise_No3.bmp	306	0	0	0	0	0	0	0	0	0	0	0	0	0	0	0	0	0	0	0	0	0	0	0	0	0	0	0	0	0	0	0	0	0	0	0	0	0	0	0
121218	11:32:23	11:43:42	678808	5.0.10.0	4_exp_AMP_EVA_AWA_CON	8	Rpleas_acq	Oppo	Lpleas	Bmasked	CS_B	1pleas	distractor2	EVAbeforeCON	AMP_distractor	AMP1_masked	6	24	0	0	300	300	0	0	550	50	0	0	0	0	0	1	blank2r.bmp	0	1	JCRD	0	1	blank2r.bmp	79	116	pic116.bmp	199	1	whitenoise_No3.bmp	306	0	0	0	0	0	0	0	0	0	0	0	0	0	0	0	0	0	0	0	0	0	0	0	0	0	0	0	0	0	0	0	0	0	0	0	0	0	0	0
121218	11:32:23	11:43:44	680460	5.0.10.0	4_exp_AMP_EVA_AWA_CON	8	Rpleas_acq	Oppo	Lpleas	Bmasked	CS_B	1pleas	distractor2	EVAbeforeCON	AMP_CSunple	AMP1_masked	6	25	0	0	300	300	0	0	719	46	0	0	0	0	0	1	blank2r.bmp	0	1	GKQX	0	1	blank2r.bmp	79	102	pic102.bmp	199	1	whitenoise_No3.bmp	306	0	0	0	0	0	0	0	0	0	0	0	0	0	0	0	0	0	0	0	0	0	0	0	0	0	0	0	0	0	0	0	0	0	0	0	0	0	0	0
121218	11:32:23	11:43:45	681873	5.0.10.0	4_exp_AMP_EVA_AWA_CON	8	Rpleas_acq	Oppo	Lpleas	Bmasked	CS_B	1pleas	distractor2	EVAbeforeCON	AMP_CSpleas	AMP1_masked	6	26	0	0	300	300	0	0	496	46	0	1	0	0	0	1	blank2r.bmp	0	1	BMVZ	0	1	blank2r.bmp	79	56	pic56.bmp	199	1	whitenoise_No3.bmp	306	0	0	0	0	0	0	0	0	0	0	0	0	0	0	0	0	0	0	0	0	0	0	0	0	0	0	0	0	0	0	0	0	0	0	0	0	0	0	0
121218	11:32:23	11:43:47	683312	5.0.10.0	4_exp_AMP_EVA_AWA_CON	8	Rpleas_acq	Oppo	Lpleas	Bmasked	CS_B	1pleas	distractor2	EVAbeforeCON	AMP_distractor	AMP1_masked	6	27	0	0	300	300	0	0	525	50	0	0	0	0	0	1	blank2r.bmp	0	1	JCRD	0	1	blank2r.bmp	79	149	pic149.bmp	199	1	whitenoise_No3.bmp	306	0	0	0	0	0	0	0	0	0	0	0	0	0	0	0	0	0	0	0	0	0	0	0	0	0	0	0	0	0	0	0	0	0	0	0	0	0	0	0
121218	11:32:23	11:43:48	684765	5.0.10.0	4_exp_AMP_EVA_AWA_CON	8	Rpleas_acq	Oppo	Lpleas	Bmasked	CS_B	1pleas	distractor2	EVAbeforeCON	AMP_CSpleas	AMP1_masked	6	28	0	0	300	300	0	0	522	46	0	1	0	0	0	1	blank2r.bmp	0	1	BMVZ	0	1	blank2r.bmp	79	117	pic117.bmp	199	1	whitenoise_No3.bmp	306	0	0	0	0	0	0	0	0	0	0	0	0	0	0	0	0	0	0	0	0	0	0	0	0	0	0	0	0	0	0	0	0	0	0	0	0	0	0	0
121218	11:32:23	11:43:50	686244	5.0.10.0	4_exp_AMP_EVA_AWA_CON	8	Rpleas_acq	Oppo	Lpleas	Bmasked	CS_B	1pleas	distractor2	EVAbeforeCON	AMP_distractor	AMP1_masked	6	29	0	0	300	300	0	0	563	50	0	0	0	0	0	1	blank2r.bmp	0	1	JCRD	0	1	blank2r.bmp	79	27	pic27.bmp	199	1	whitenoise_No3.bmp	306	0	0	0	0	0	0	0	0	0	0	0	0	0	0	0	0	0	0	0	0	0	0	0	0	0	0	0	0	0	0	0	0	0	0	0	0	0	0	0
121218	11:32:23	11:43:51	687671	5.0.10.0	4_exp_AMP_EVA_AWA_CON	8	Rpleas_acq	Oppo	Lpleas	Bmasked	CS_B	1pleas	distractor2	EVAbeforeCON	AMP_CSunple	AMP1_masked	6	30	0	0	300	300	0	0	517	50	0	1	0	0	0	1	blank2r.bmp	0	1	GKQX	0	1	blank2r.bmp	79	124	pic124.bmp	199	1	whitenoise_No3.bmp	306	0	0	0	0	0	0	0	0	0	0	0	0	0	0	0	0	0	0	0	0	0	0	0	0	0	0	0	0	0	0	0	0	0	0	0	0	0	0	0
121218	11:32:23	11:43:53	689203	5.0.10.0	4_exp_AMP_EVA_AWA_CON	8	Rpleas_acq	Oppo	Lpleas	Bmasked	CS_B	1pleas	distractor2	EVAbeforeCON	AMP_CSunple	AMP1_masked	6	31	0	0	300	300	0	0	602	50	0	1	0	0	0	1	blank2r.bmp	0	1	GKQX	0	1	blank2r.bmp	79	84	pic84.bmp	199	1	whitenoise_No3.bmp	306	0	0	0	0	0	0	0	0	0	0	0	0	0	0	0	0	0	0	0	0	0	0	0	0	0	0	0	0	0	0	0	0	0	0	0	0	0	0	0
121218	11:32:23	11:43:55	691362	5.0.10.0	4_exp_AMP_EVA_AWA_CON	8	Rpleas_acq	Oppo	Lpleas	Bmasked	CS_B	1pleas	distractor2	EVAbeforeCON	AMP_CSunple	AMP1_masked	6	32	0	0	300	300	0	0	1249	50	0	1	0	0	0	1	blank2r.bmp	0	1	GKQX	0	1	blank2r.bmp	79	30	pic30.bmp	199	1	whitenoise_No3.bmp	306	0	0	0	0	0	0	0	0	0	0	0	0	0	0	0	0	0	0	0	0	0	0	0	0	0	0	0	0	0	0	0	0	0	0	0	0	0	0	0
121218	11:32:23	11:43:56	692668	5.0.10.0	4_exp_AMP_EVA_AWA_CON	8	Rpleas_acq	Oppo	Lpleas	Bmasked	CS_B	1pleas	distractor2	EVAbeforeCON	AMP_CSpleas	AMP1_masked	6	33	0	0	300	300	0	0	384	50	0	0	0	0	0	1	blank2r.bmp	0	1	BMVZ	0	1	blank2r.bmp	79	146	pic146.bmp	199	1	whitenoise_No3.bmp	306	0	0	0	0	0	0	0	0	0	0	0	0	0	0	0	0	0	0	0	0	0	0	0	0	0	0	0	0	0	0	0	0	0	0	0	0	0	0	0
121218	11:32:23	11:43:57	693868	5.0.10.0	4_exp_AMP_EVA_AWA_CON	8	Rpleas_acq	Oppo	Lpleas	Bmasked	CS_B	1pleas	distractor2	EVAbeforeCON	AMP_CSpleas	AMP1_masked	6	34	0	0	300	300	0	0	278	50	0	0	0	0	0	1	blank2r.bmp	0	1	BMVZ	0	1	blank2r.bmp	79	119	pic119.bmp	199	1	whitenoise_No3.bmp	306	0	0	0	0	0	0	0	0	0	0	0	0	0	0	0	0	0	0	0	0	0	0	0	0	0	0	0	0	0	0	0	0	0	0	0	0	0	0	0
121218	11:32:23	11:43:59	695467	5.0.10.0	4_exp_AMP_EVA_AWA_CON	8	Rpleas_acq	Oppo	Lpleas	Bmasked	CS_B	1pleas	distractor2	EVAbeforeCON	AMP_CSpleas	AMP1_masked	6	35	0	0	300	300	0	0	662	46	0	1	0	0	0	1	blank2r.bmp	0	1	BMVZ	0	1	blank2r.bmp	79	120	pic120.bmp	199	1	whitenoise_No3.bmp	306	0	0	0	0	0	0	0	0	0	0	0	0	0	0	0	0	0	0	0	0	0	0	0	0	0	0	0	0	0	0	0	0	0	0	0	0	0	0	0
121218	11:32:23	11:44:00	696693	5.0.10.0	4_exp_AMP_EVA_AWA_CON	8	Rpleas_acq	Oppo	Lpleas	Bmasked	CS_B	1pleas	distractor2	EVAbeforeCON	AMP_CSpleas	AMP1_masked	6	36	0	0	300	300	0	0	296	50	0	0	0	0	0	1	blank2r.bmp	0	1	BMVZ	0	1	blank2r.bmp	79	134	pic134.bmp	199	1	whitenoise_No3.bmp	306	0	0	0	0	0	0	0	0	0	0	0	0	0	0	0	0	0	0	0	0	0	0	0	0	0	0	0	0	0	0	0	0	0	0	0	0	0	0	0
121218	11:32:23	11:44:02	698719	5.0.10.0	4_exp_AMP_EVA_AWA_CON	8	Rpleas_acq	Oppo	Lpleas	Bmasked	CS_B	1pleas	distractor2	EVAbeforeCON	AMP_CSunple	AMP1_masked	6	37	0	0	300	300	0	0	1109	50	0	1	0	0	0	1	blank2r.bmp	0	1	GKQX	0	1	blank2r.bmp	79	8	pic8.bmp	199	1	whitenoise_No3.bmp	306	0	0	0	0	0	0	0	0	0	0	0	0	0	0	0	0	0	0	0	0	0	0	0	0	0	0	0	0	0	0	0	0	0	0	0	0	0	0	0
121218	11:32:23	11:44:03	700039	5.0.10.0	4_exp_AMP_EVA_AWA_CON	8	Rpleas_acq	Oppo	Lpleas	Bmasked	CS_B	1pleas	distractor2	EVAbeforeCON	AMP_distractor	AMP1_masked	6	38	0	0	300	300	0	0	405	50	0	0	0	0	0	1	blank2r.bmp	0	1	JCRD	0	1	blank2r.bmp	79	104	pic104.bmp	199	1	whitenoise_No3.bmp	306	0	0	0	0	0	0	0	0	0	0	0	0	0	0	0	0	0	0	0	0	0	0	0	0	0	0	0	0	0	0	0	0	0	0	0	0	0	0	0
121218	11:32:23	11:44:05	701411	5.0.10.0	4_exp_AMP_EVA_AWA_CON	8	Rpleas_acq	Oppo	Lpleas	Bmasked	CS_B	1pleas	distractor2	EVAbeforeCON	AMP_distractor	AMP1_masked	6	39	0	0	300	300	0	0	447	50	0	0	0	0	0	1	blank2r.bmp	0	1	JCRD	0	1	blank2r.bmp	79	2	pic2.bmp	199	1	whitenoise_No3.bmp	306	0	0	0	0	0	0	0	0	0	0	0	0	0	0	0	0	0	0	0	0	0	0	0	0	0	0	0	0	0	0	0	0	0	0	0	0	0	0	0
121218	11:32:23	11:44:06	702678	5.0.10.0	4_exp_AMP_EVA_AWA_CON	8	Rpleas_acq	Oppo	Lpleas	Bmasked	CS_B	1pleas	distractor2	EVAbeforeCON	AMP_distractor	AMP1_masked	6	40	0	0	300	300	0	0	342	50	0	0	0	0	0	1	blank2r.bmp	0	1	JCRD	0	1	blank2r.bmp	79	41	pic41.bmp	199	1	whitenoise_No3.bmp	306	0	0	0	0	0	0	0	0	0	0	0	0	0	0	0	0	0	0	0	0	0	0	0	0	0	0	0	0	0	0	0	0	0	0	0	0	0	0	0
121218	11:32:23	11:44:08	704197	5.0.10.0	4_exp_AMP_EVA_AWA_CON	8	Rpleas_acq	Oppo	Lpleas	Bmasked	CS_B	1pleas	distractor2	EVAbeforeCON	AMP_distractor	AMP1_masked	6	41	0	0	300	300	0	0	585	46	0	0	0	0	0	1	blank2r.bmp	0	1	JCRD	0	1	blank2r.bmp	79	69	pic69.bmp	199	1	whitenoise_No3.bmp	306	0	0	0	0	0	0	0	0	0	0	0	0	0	0	0	0	0	0	0	0	0	0	0	0	0	0	0	0	0	0	0	0	0	0	0	0	0	0	0
121218	11:32:23	11:44:10	706249	5.0.10.0	4_exp_AMP_EVA_AWA_CON	8	Rpleas_acq	Oppo	Lpleas	Bmasked	CS_B	1pleas	distractor2	EVAbeforeCON	AMP_distractor	AMP1_masked	6	42	0	0	300	300	0	0	1141	46	0	0	0	0	0	1	blank2r.bmp	0	1	JCRD	0	1	blank2r.bmp	79	129	pic129.bmp	199	1	whitenoise_No3.bmp	306	0	0	0	0	0	0	0	0	0	0	0	0	0	0	0	0	0	0	0	0	0	0	0	0	0	0	0	0	0	0	0	0	0	0	0	0	0	0	0
121218	11:32:23	11:44:11	707609	5.0.10.0	4_exp_AMP_EVA_AWA_CON	8	Rpleas_acq	Oppo	Lpleas	Bmasked	CS_B	1pleas	distractor2	EVAbeforeCON	AMP_CSunple	AMP1_masked	6	43	0	0	300	300	0	0	435	46	0	0	0	0	0	1	blank2r.bmp	0	1	GKQX	0	1	blank2r.bmp	79	20	pic20.bmp	199	1	whitenoise_No3.bmp	306	0	0	0	0	0	0	0	0	0	0	0	0	0	0	0	0	0	0	0	0	0	0	0	0	0	0	0	0	0	0	0	0	0	0	0	0	0	0	0
121218	11:32:23	11:44:14	710581	5.0.10.0	4_exp_AMP_EVA_AWA_CON	8	Rpleas_acq	Oppo	Lpleas	Bmasked	CS_B	1pleas	distractor2	EVAbeforeCON	AMP_CSunple	AMP1_masked	6	44	0	0	300	300	0	0	2044	50	0	1	0	0	0	1	blank2r.bmp	0	1	GKQX	0	1	blank2r.bmp	79	68	pic68.bmp	199	1	whitenoise_No3.bmp	306	0	0	0	0	0	0	0	0	0	0	0	0	0	0	0	0	0	0	0	0	0	0	0	0	0	0	0	0	0	0	0	0	0	0	0	0	0	0	0
121218	11:32:23	11:44:16	712607	5.0.10.0	4_exp_AMP_EVA_AWA_CON	8	Rpleas_acq	Oppo	Lpleas	Bmasked	CS_B	1pleas	distractor2	EVAbeforeCON	AMP_CSpleas	AMP1_masked	6	45	0	0	300	300	0	0	1110	50	0	0	0	0	0	1	blank2r.bmp	0	1	BMVZ	0	1	blank2r.bmp	79	19	pic19.bmp	199	1	whitenoise_No3.bmp	306	0	0	0	0	0	0	0	0	0	0	0	0	0	0	0	0	0	0	0	0	0	0	0	0	0	0	0	0	0	0	0	0	0	0	0	0	0	0	0
121218	11:32:23	11:44:17	713820	5.0.10.0	4_exp_AMP_EVA_AWA_CON	8	Rpleas_acq	Oppo	Lpleas	Bmasked	CS_B	1pleas	distractor2	EVAbeforeCON	AMP_CSunple	AMP1_masked	6	46	0	0	300	300	0	0	292	50	0	1	0	0	0	1	blank2r.bmp	0	1	GKQX	0	1	blank2r.bmp	79	49	pic49.bmp	199	1	whitenoise_No3.bmp	306	0	0	0	0	0	0	0	0	0	0	0	0	0	0	0	0	0	0	0	0	0	0	0	0	0	0	0	0	0	0	0	0	0	0	0	0	0	0	0
121218	11:32:23	11:44:19	715352	5.0.10.0	4_exp_AMP_EVA_AWA_CON	8	Rpleas_acq	Oppo	Lpleas	Bmasked	CS_B	1pleas	distractor2	EVAbeforeCON	AMP_CSpleas	AMP1_masked	6	47	0	0	300	300	0	0	615	46	0	1	0	0	0	1	blank2r.bmp	0	1	BMVZ	0	1	blank2r.bmp	79	89	pic89.bmp	199	1	whitenoise_No3.bmp	306	0	0	0	0	0	0	0	0	0	0	0	0	0	0	0	0	0	0	0	0	0	0	0	0	0	0	0	0	0	0	0	0	0	0	0	0	0	0	0
121218	11:32:23	11:44:20	716792	5.0.10.0	4_exp_AMP_EVA_AWA_CON	8	Rpleas_acq	Oppo	Lpleas	Bmasked	CS_B	1pleas	distractor2	EVAbeforeCON	AMP_CSpleas	AMP1_masked	6	48	0	0	300	300	0	0	521	46	0	1	0	0	0	1	blank2r.bmp	0	1	BMVZ	0	1	blank2r.bmp	79	43	pic43.bmp	199	1	whitenoise_No3.bmp	306	0	0	0	0	0	0	0	0	0	0	0	0	0	0	0	0	0	0	0	0	0	0	0	0	0	0	0	0	0	0	0	0	0	0	0	0	0	0	0
121218	11:32:23	11:44:21	718018	5.0.10.0	4_exp_AMP_EVA_AWA_CON	8	Rpleas_acq	Oppo	Lpleas	Bmasked	CS_B	1pleas	distractor2	EVAbeforeCON	AMP_CSunple	AMP1_masked	6	49	0	0	300	300	0	0	305	46	0	0	0	0	0	1	blank2r.bmp	0	1	GKQX	0	1	blank2r.bmp	79	33	pic33.bmp	199	1	whitenoise_No3.bmp	306	0	0	0	0	0	0	0	0	0	0	0	0	0	0	0	0	0	0	0	0	0	0	0	0	0	0	0	0	0	0	0	0	0	0	0	0	0	0	0
121218	11:32:23	11:44:23	719337	5.0.10.0	4_exp_AMP_EVA_AWA_CON	8	Rpleas_acq	Oppo	Lpleas	Bmasked	CS_B	1pleas	distractor2	EVAbeforeCON	AMP_CSpleas	AMP1_masked	6	50	0	0	300	300	0	0	399	50	0	0	0	0	0	1	blank2r.bmp	0	1	BMVZ	0	1	blank2r.bmp	79	37	pic37.bmp	199	1	whitenoise_No3.bmp	306	0	0	0	0	0	0	0	0	0	0	0	0	0	0	0	0	0	0	0	0	0	0	0	0	0	0	0	0	0	0	0	0	0	0	0	0	0	0	0
121218	11:32:23	11:44:24	720590	5.0.10.0	4_exp_AMP_EVA_AWA_CON	8	Rpleas_acq	Oppo	Lpleas	Bmasked	CS_B	1pleas	distractor2	EVAbeforeCON	AMP_distractor	AMP1_masked	6	51	0	0	300	300	0	0	337	46	0	0	0	0	0	1	blank2r.bmp	0	1	JCRD	0	1	blank2r.bmp	79	36	pic36.bmp	199	1	whitenoise_No3.bmp	306	0	0	0	0	0	0	0	0	0	0	0	0	0	0	0	0	0	0	0	0	0	0	0	0	0	0	0	0	0	0	0	0	0	0	0	0	0	0	0
121218	11:32:23	11:44:31	727254	5.0.10.0	4_exp_AMP_EVA_AWA_CON	8	Rpleas_acq	Oppo	Lpleas	Bmasked	CS_B	1pleas	distractor2	EVAbeforeCON	AMP_distractor	AMP23	7	1	0	0	300	300	0	0	814	50	0	0	0	0	0	1	blank2r.bmp	0	1	JCRD	0	1	blank2r.bmp	79	110	pic110.bmp	199	1	whitenoise_No3.bmp	306	0	0	0	0	0	0	0	0	0	0	0	0	0	0	0	0	0	0	0	0	0	0	0	0	0	0	0	0	0	0	0	0	0	0	0	0	0	0	0
121218	11:32:23	11:44:32	728680	5.0.10.0	4_exp_AMP_EVA_AWA_CON	8	Rpleas_acq	Oppo	Lpleas	Bmasked	CS_B	1pleas	distractor2	EVAbeforeCON	AMP_CSpleas	AMP23	7	2	0	0	300	300	0	0	508	46	0	1	0	0	0	1	blank2r.bmp	0	1	BMVZ	0	1	blank2r.bmp	79	57	pic57.bmp	199	1	whitenoise_No3.bmp	306	0	0	0	0	0	0	0	0	0	0	0	0	0	0	0	0	0	0	0	0	0	0	0	0	0	0	0	0	0	0	0	0	0	0	0	0	0	0	0
121218	11:32:23	11:44:33	730039	5.0.10.0	4_exp_AMP_EVA_AWA_CON	8	Rpleas_acq	Oppo	Lpleas	Bmasked	CS_B	1pleas	distractor2	EVAbeforeCON	AMP_distractor	AMP23	7	3	0	0	300	300	0	0	443	46	0	0	0	0	0	1	blank2r.bmp	0	1	JCRD	0	1	blank2r.bmp	79	136	pic136.bmp	199	1	whitenoise_No3.bmp	306	0	0	0	0	0	0	0	0	0	0	0	0	0	0	0	0	0	0	0	0	0	0	0	0	0	0	0	0	0	0	0	0	0	0	0	0	0	0	0
121218	11:32:23	11:44:35	731279	5.0.10.0	4_exp_AMP_EVA_AWA_CON	8	Rpleas_acq	Oppo	Lpleas	Bmasked	CS_B	1pleas	distractor2	EVAbeforeCON	AMP_distractor	AMP23	7	4	0	0	300	300	0	0	311	46	0	0	0	0	0	1	blank2r.bmp	0	1	JCRD	0	1	blank2r.bmp	79	150	pic150.bmp	199	1	whitenoise_No3.bmp	306	0	0	0	0	0	0	0	0	0	0	0	0	0	0	0	0	0	0	0	0	0	0	0	0	0	0	0	0	0	0	0	0	0	0	0	0	0	0	0
121218	11:32:23	11:44:36	732478	5.0.10.0	4_exp_AMP_EVA_AWA_CON	8	Rpleas_acq	Oppo	Lpleas	Bmasked	CS_B	1pleas	distractor2	EVAbeforeCON	AMP_CSunple	AMP23	7	5	0	0	300	300	0	0	287	46	0	0	0	0	0	1	blank2r.bmp	0	1	GKQX	0	1	blank2r.bmp	79	128	pic128.bmp	199	1	whitenoise_No3.bmp	306	0	0	0	0	0	0	0	0	0	0	0	0	0	0	0	0	0	0	0	0	0	0	0	0	0	0	0	0	0	0	0	0	0	0	0	0	0	0	0
121218	11:32:23	11:44:37	733758	5.0.10.0	4_exp_AMP_EVA_AWA_CON	8	Rpleas_acq	Oppo	Lpleas	Bmasked	CS_B	1pleas	distractor2	EVAbeforeCON	AMP_CSpleas	AMP23	7	6	0	0	300	300	0	0	368	46	0	1	0	0	0	1	blank2r.bmp	0	1	BMVZ	0	1	blank2r.bmp	79	4	pic4.bmp	199	1	whitenoise_No3.bmp	306	0	0	0	0	0	0	0	0	0	0	0	0	0	0	0	0	0	0	0	0	0	0	0	0	0	0	0	0	0	0	0	0	0	0	0	0	0	0	0
121218	11:32:23	11:44:38	735024	5.0.10.0	4_exp_AMP_EVA_AWA_CON	8	Rpleas_acq	Oppo	Lpleas	Bmasked	CS_B	1pleas	distractor2	EVAbeforeCON	AMP_CSunple	AMP23	7	7	0	0	300	300	0	0	346	46	0	0	0	0	0	1	blank2r.bmp	0	1	GKQX	0	1	blank2r.bmp	79	48	pic48.bmp	199	1	whitenoise_No3.bmp	306	0	0	0	0	0	0	0	0	0	0	0	0	0	0	0	0	0	0	0	0	0	0	0	0	0	0	0	0	0	0	0	0	0	0	0	0	0	0	0
121218	11:32:23	11:44:40	736490	5.0.10.0	4_exp_AMP_EVA_AWA_CON	8	Rpleas_acq	Oppo	Lpleas	Bmasked	CS_B	1pleas	distractor2	EVAbeforeCON	AMP_distractor	AMP23	7	8	0	0	300	300	0	0	554	46	0	0	0	0	0	1	blank2r.bmp	0	1	JCRD	0	1	blank2r.bmp	79	67	pic67.bmp	199	1	whitenoise_No3.bmp	306	0	0	0	0	0	0	0	0	0	0	0	0	0	0	0	0	0	0	0	0	0	0	0	0	0	0	0	0	0	0	0	0	0	0	0	0	0	0	0
121218	11:32:23	11:44:41	737823	5.0.10.0	4_exp_AMP_EVA_AWA_CON	8	Rpleas_acq	Oppo	Lpleas	Bmasked	CS_B	1pleas	distractor2	EVAbeforeCON	AMP_CSunple	AMP23	7	9	0	0	300	300	0	0	403	46	0	0	0	0	0	1	blank2r.bmp	0	1	GKQX	0	1	blank2r.bmp	79	98	pic98.bmp	199	1	whitenoise_No3.bmp	306	0	0	0	0	0	0	0	0	0	0	0	0	0	0	0	0	0	0	0	0	0	0	0	0	0	0	0	0	0	0	0	0	0	0	0	0	0	0	0
121218	11:32:23	11:44:43	739196	5.0.10.0	4_exp_AMP_EVA_AWA_CON	8	Rpleas_acq	Oppo	Lpleas	Bmasked	CS_B	1pleas	distractor2	EVAbeforeCON	AMP_CSpleas	AMP23	7	10	0	0	300	300	0	0	450	46	0	1	0	0	0	1	blank2r.bmp	0	1	BMVZ	0	1	blank2r.bmp	79	103	pic103.bmp	199	1	whitenoise_No3.bmp	306	0	0	0	0	0	0	0	0	0	0	0	0	0	0	0	0	0	0	0	0	0	0	0	0	0	0	0	0	0	0	0	0	0	0	0	0	0	0	0
121218	11:32:23	11:44:44	740968	5.0.10.0	4_exp_AMP_EVA_AWA_CON	8	Rpleas_acq	Oppo	Lpleas	Bmasked	CS_B	1pleas	distractor2	EVAbeforeCON	AMP_CSunple	AMP23	7	11	0	0	300	300	0	0	849	46	0	0	0	0	0	1	blank2r.bmp	0	1	GKQX	0	1	blank2r.bmp	79	100	pic100.bmp	199	1	whitenoise_No3.bmp	306	0	0	0	0	0	0	0	0	0	0	0	0	0	0	0	0	0	0	0	0	0	0	0	0	0	0	0	0	0	0	0	0	0	0	0	0	0	0	0
121218	11:32:23	11:44:46	742181	5.0.10.0	4_exp_AMP_EVA_AWA_CON	8	Rpleas_acq	Oppo	Lpleas	Bmasked	CS_B	1pleas	distractor2	EVAbeforeCON	AMP_distractor	AMP23	7	12	0	0	300	300	0	0	279	46	0	0	0	0	0	1	blank2r.bmp	0	1	JCRD	0	1	blank2r.bmp	79	121	pic121.bmp	199	1	whitenoise_No3.bmp	306	0	0	0	0	0	0	0	0	0	0	0	0	0	0	0	0	0	0	0	0	0	0	0	0	0	0	0	0	0	0	0	0	0	0	0	0	0	0	0
121218	11:32:23	11:44:47	743354	5.0.10.0	4_exp_AMP_EVA_AWA_CON	8	Rpleas_acq	Oppo	Lpleas	Bmasked	CS_B	1pleas	distractor2	EVAbeforeCON	AMP_CSunple	AMP23	7	13	0	0	300	300	0	0	263	46	0	0	0	0	0	1	blank2r.bmp	0	1	GKQX	0	1	blank2r.bmp	79	137	pic137.bmp	199	1	whitenoise_No3.bmp	306	0	0	0	0	0	0	0	0	0	0	0	0	0	0	0	0	0	0	0	0	0	0	0	0	0	0	0	0	0	0	0	0	0	0	0	0	0	0	0
121218	11:32:23	11:44:48	744807	5.0.10.0	4_exp_AMP_EVA_AWA_CON	8	Rpleas_acq	Oppo	Lpleas	Bmasked	CS_B	1pleas	distractor2	EVAbeforeCON	AMP_distractor	AMP23	7	14	0	0	300	300	0	0	524	46	0	0	0	0	0	1	blank2r.bmp	0	1	JCRD	0	1	blank2r.bmp	79	40	pic40.bmp	199	1	whitenoise_No3.bmp	306	0	0	0	0	0	0	0	0	0	0	0	0	0	0	0	0	0	0	0	0	0	0	0	0	0	0	0	0	0	0	0	0	0	0	0	0	0	0	0
121218	11:32:23	11:44:50	746206	5.0.10.0	4_exp_AMP_EVA_AWA_CON	8	Rpleas_acq	Oppo	Lpleas	Bmasked	CS_B	1pleas	distractor2	EVAbeforeCON	AMP_distractor	AMP23	7	15	0	0	300	300	0	0	487	46	0	0	0	0	0	1	blank2r.bmp	0	1	JCRD	0	1	blank2r.bmp	79	66	pic66.bmp	199	1	whitenoise_No3.bmp	306	0	0	0	0	0	0	0	0	0	0	0	0	0	0	0	0	0	0	0	0	0	0	0	0	0	0	0	0	0	0	0	0	0	0	0	0	0	0	0
121218	11:32:23	11:44:51	747432	5.0.10.0	4_exp_AMP_EVA_AWA_CON	8	Rpleas_acq	Oppo	Lpleas	Bmasked	CS_B	1pleas	distractor2	EVAbeforeCON	AMP_CSpleas	AMP23	7	16	0	0	300	300	0	0	308	50	0	0	0	0	0	1	blank2r.bmp	0	1	BMVZ	0	1	blank2r.bmp	79	113	pic113.bmp	199	1	whitenoise_No3.bmp	306	0	0	0	0	0	0	0	0	0	0	0	0	0	0	0	0	0	0	0	0	0	0	0	0	0	0	0	0	0	0	0	0	0	0	0	0	0	0	0
121218	11:32:23	11:44:53	749605	5.0.10.0	4_exp_AMP_EVA_AWA_CON	8	Rpleas_acq	Oppo	Lpleas	Bmasked	CS_B	1pleas	distractor2	EVAbeforeCON	AMP_CSpleas	AMP23	7	17	0	0	300	300	0	0	1250	46	0	1	0	0	0	1	blank2r.bmp	0	1	BMVZ	0	1	blank2r.bmp	79	152	pic152.bmp	199	1	whitenoise_No3.bmp	306	0	0	0	0	0	0	0	0	0	0	0	0	0	0	0	0	0	0	0	0	0	0	0	0	0	0	0	0	0	0	0	0	0	0	0	0	0	0	0
121218	11:32:23	11:44:54	750964	5.0.10.0	4_exp_AMP_EVA_AWA_CON	8	Rpleas_acq	Oppo	Lpleas	Bmasked	CS_B	1pleas	distractor2	EVAbeforeCON	AMP_CSpleas	AMP23	7	18	0	0	300	300	0	0	427	46	0	1	0	0	0	1	blank2r.bmp	0	1	BMVZ	0	1	blank2r.bmp	79	1	pic1.bmp	199	1	whitenoise_No3.bmp	306	0	0	0	0	0	0	0	0	0	0	0	0	0	0	0	0	0	0	0	0	0	0	0	0	0	0	0	0	0	0	0	0	0	0	0	0	0	0	0
121218	11:32:23	11:44:55	752070	5.0.10.0	4_exp_AMP_EVA_AWA_CON	8	Rpleas_acq	Oppo	Lpleas	Bmasked	CS_B	1pleas	distractor2	EVAbeforeCON	AMP_distractor	AMP23	7	19	0	0	300	300	0	0	186	46	0	0	0	0	0	1	blank2r.bmp	0	1	JCRD	0	1	blank2r.bmp	79	131	pic131.bmp	199	1	whitenoise_No3.bmp	306	0	0	0	0	0	0	0	0	0	0	0	0	0	0	0	0	0	0	0	0	0	0	0	0	0	0	0	0	0	0	0	0	0	0	0	0	0	0	0
121218	11:32:23	11:44:57	753963	5.0.10.0	4_exp_AMP_EVA_AWA_CON	8	Rpleas_acq	Oppo	Lpleas	Bmasked	CS_B	1pleas	distractor2	EVAbeforeCON	AMP_distractor	AMP23	7	20	0	0	300	300	0	0	974	46	0	0	0	0	0	1	blank2r.bmp	0	1	JCRD	0	1	blank2r.bmp	79	3	pic3.bmp	199	1	whitenoise_No3.bmp	306	0	0	0	0	0	0	0	0	0	0	0	0	0	0	0	0	0	0	0	0	0	0	0	0	0	0	0	0	0	0	0	0	0	0	0	0	0	0	0
121218	11:32:23	11:44:58	755029	5.0.10.0	4_exp_AMP_EVA_AWA_CON	8	Rpleas_acq	Oppo	Lpleas	Bmasked	CS_B	1pleas	distractor2	EVAbeforeCON	AMP_CSunple	AMP23	7	21	0	0	300	300	0	0	149	46	0	0	0	0	0	1	blank2r.bmp	0	1	GKQX	0	1	blank2r.bmp	79	147	pic147.bmp	199	1	whitenoise_No3.bmp	306	0	0	0	0	0	0	0	0	0	0	0	0	0	0	0	0	0	0	0	0	0	0	0	0	0	0	0	0	0	0	0	0	0	0	0	0	0	0	0
121218	11:32:23	11:44:59	756108	5.0.10.0	4_exp_AMP_EVA_AWA_CON	8	Rpleas_acq	Oppo	Lpleas	Bmasked	CS_B	1pleas	distractor2	EVAbeforeCON	AMP_CSpleas	AMP23	7	22	0	0	300	300	0	0	145	46	0	1	0	0	0	1	blank2r.bmp	0	1	BMVZ	0	1	blank2r.bmp	79	17	pic17.bmp	199	1	whitenoise_No3.bmp	306	0	0	0	0	0	0	0	0	0	0	0	0	0	0	0	0	0	0	0	0	0	0	0	0	0	0	0	0	0	0	0	0	0	0	0	0	0	0	0
121218	11:32:23	11:45:01	757428	5.0.10.0	4_exp_AMP_EVA_AWA_CON	8	Rpleas_acq	Oppo	Lpleas	Bmasked	CS_B	1pleas	distractor2	EVAbeforeCON	AMP_CSunple	AMP23	7	23	0	0	300	300	0	0	390	46	0	0	0	0	0	1	blank2r.bmp	0	1	GKQX	0	1	blank2r.bmp	79	51	pic51.bmp	199	1	whitenoise_No3.bmp	306	0	0	0	0	0	0	0	0	0	0	0	0	0	0	0	0	0	0	0	0	0	0	0	0	0	0	0	0	0	0	0	0	0	0	0	0	0	0	0
121218	11:32:23	11:45:02	758507	5.0.10.0	4_exp_AMP_EVA_AWA_CON	8	Rpleas_acq	Oppo	Lpleas	Bmasked	CS_B	1pleas	distractor2	EVAbeforeCON	AMP_CSunple	AMP23	7	24	0	0	300	300	0	0	172	46	0	0	0	0	0	1	blank2r.bmp	0	1	GKQX	0	1	blank2r.bmp	79	10	pic10.bmp	199	1	whitenoise_No3.bmp	306	0	0	0	0	0	0	0	0	0	0	0	0	0	0	0	0	0	0	0	0	0	0	0	0	0	0	0	0	0	0	0	0	0	0	0	0	0	0	0
121218	11:32:23	11:45:03	759440	5.0.10.0	4_exp_AMP_EVA_AWA_CON	8	Rpleas_acq	Oppo	Lpleas	Bmasked	CS_B	1pleas	distractor2	EVAbeforeCON	AMP_distractor	AMP23	7	25	0	0	300	300	0	0	5	46	0	0	0	0	0	1	blank2r.bmp	0	1	JCRD	0	1	blank2r.bmp	79	140	pic140.bmp	199	1	whitenoise_No3.bmp	306	0	0	0	0	0	0	0	0	0	0	0	0	0	0	0	0	0	0	0	0	0	0	0	0	0	0	0	0	0	0	0	0	0	0	0	0	0	0	0
121218	11:32:23	11:45:04	760573	5.0.10.0	4_exp_AMP_EVA_AWA_CON	8	Rpleas_acq	Oppo	Lpleas	Bmasked	CS_B	1pleas	distractor2	EVAbeforeCON	AMP_CSunple	AMP23	7	26	0	0	300	300	0	0	205	46	0	0	0	0	0	1	blank2r.bmp	0	1	GKQX	0	1	blank2r.bmp	79	45	pic45.bmp	199	1	whitenoise_No3.bmp	306	0	0	0	0	0	0	0	0	0	0	0	0	0	0	0	0	0	0	0	0	0	0	0	0	0	0	0	0	0	0	0	0	0	0	0	0	0	0	0
121218	11:32:23	11:45:05	762106	5.0.10.0	4_exp_AMP_EVA_AWA_CON	8	Rpleas_acq	Oppo	Lpleas	Bmasked	CS_B	1pleas	distractor2	EVAbeforeCON	AMP_CSpleas	AMP23	7	27	0	0	300	300	0	0	622	46	0	1	0	0	0	1	blank2r.bmp	0	1	BMVZ	0	1	blank2r.bmp	79	87	pic87.bmp	199	1	whitenoise_No3.bmp	306	0	0	0	0	0	0	0	0	0	0	0	0	0	0	0	0	0	0	0	0	0	0	0	0	0	0	0	0	0	0	0	0	0	0	0	0	0	0	0
121218	11:32:23	11:45:08	764572	5.0.10.0	4_exp_AMP_EVA_AWA_CON	8	Rpleas_acq	Oppo	Lpleas	Bmasked	CS_B	1pleas	distractor2	EVAbeforeCON	AMP_CSunple	AMP23	7	28	0	0	300	300	0	0	1541	46	0	0	0	0	0	1	blank2r.bmp	0	1	GKQX	0	1	blank2r.bmp	79	127	pic127.bmp	199	1	whitenoise_No3.bmp	306	0	0	0	0	0	0	0	0	0	0	0	0	0	0	0	0	0	0	0	0	0	0	0	0	0	0	0	0	0	0	0	0	0	0	0	0	0	0	0
121218	11:32:23	11:45:09	765851	5.0.10.0	4_exp_AMP_EVA_AWA_CON	8	Rpleas_acq	Oppo	Lpleas	Bmasked	CS_B	1pleas	distractor2	EVAbeforeCON	AMP_CSunple	AMP23	7	29	0	0	300	300	0	0	350	46	0	0	0	0	0	1	blank2r.bmp	0	1	GKQX	0	1	blank2r.bmp	79	138	pic138.bmp	199	1	whitenoise_No3.bmp	306	0	0	0	0	0	0	0	0	0	0	0	0	0	0	0	0	0	0	0	0	0	0	0	0	0	0	0	0	0	0	0	0	0	0	0	0	0	0	0
121218	11:32:23	11:45:11	767290	5.0.10.0	4_exp_AMP_EVA_AWA_CON	8	Rpleas_acq	Oppo	Lpleas	Bmasked	CS_B	1pleas	distractor2	EVAbeforeCON	AMP_CSpleas	AMP23	7	30	0	0	300	300	0	0	524	50	0	0	0	0	0	1	blank2r.bmp	0	1	BMVZ	0	1	blank2r.bmp	79	9	pic9.bmp	199	1	whitenoise_No3.bmp	306	0	0	0	0	0	0	0	0	0	0	0	0	0	0	0	0	0	0	0	0	0	0	0	0	0	0	0	0	0	0	0	0	0	0	0	0	0	0	0
121218	11:32:23	11:45:12	768956	5.0.10.0	4_exp_AMP_EVA_AWA_CON	8	Rpleas_acq	Oppo	Lpleas	Bmasked	CS_B	1pleas	distractor2	EVAbeforeCON	AMP_CSpleas	AMP23	7	31	0	0	300	300	0	0	741	46	0	1	0	0	0	1	blank2r.bmp	0	1	BMVZ	0	1	blank2r.bmp	79	86	pic86.bmp	199	1	whitenoise_No3.bmp	306	0	0	0	0	0	0	0	0	0	0	0	0	0	0	0	0	0	0	0	0	0	0	0	0	0	0	0	0	0	0	0	0	0	0	0	0	0	0	0
121218	11:32:23	11:45:15	771289	5.0.10.0	4_exp_AMP_EVA_AWA_CON	8	Rpleas_acq	Oppo	Lpleas	Bmasked	CS_B	1pleas	distractor2	EVAbeforeCON	AMP_CSpleas	AMP23	7	32	0	0	300	300	0	0	1405	46	0	1	0	0	0	1	blank2r.bmp	0	1	BMVZ	0	1	blank2r.bmp	79	14	pic14.bmp	199	1	whitenoise_No3.bmp	306	0	0	0	0	0	0	0	0	0	0	0	0	0	0	0	0	0	0	0	0	0	0	0	0	0	0	0	0	0	0	0	0	0	0	0	0	0	0	0
121218	11:32:23	11:45:16	772808	5.0.10.0	4_exp_AMP_EVA_AWA_CON	8	Rpleas_acq	Oppo	Lpleas	Bmasked	CS_B	1pleas	distractor2	EVAbeforeCON	AMP_CSpleas	AMP23	7	33	0	0	300	300	0	0	596	50	0	0	0	0	0	1	blank2r.bmp	0	1	BMVZ	0	1	blank2r.bmp	79	11	pic11.bmp	199	1	whitenoise_No3.bmp	306	0	0	0	0	0	0	0	0	0	0	0	0	0	0	0	0	0	0	0	0	0	0	0	0	0	0	0	0	0	0	0	0	0	0	0	0	0	0	0
121218	11:32:23	11:45:18	774181	5.0.10.0	4_exp_AMP_EVA_AWA_CON	8	Rpleas_acq	Oppo	Lpleas	Bmasked	CS_B	1pleas	distractor2	EVAbeforeCON	AMP_distractor	AMP23	7	34	0	0	300	300	0	0	439	46	0	0	0	0	0	1	blank2r.bmp	0	1	JCRD	0	1	blank2r.bmp	79	29	pic29.bmp	199	1	whitenoise_No3.bmp	306	0	0	0	0	0	0	0	0	0	0	0	0	0	0	0	0	0	0	0	0	0	0	0	0	0	0	0	0	0	0	0	0	0	0	0	0	0	0	0
121218	11:32:23	11:45:19	776047	5.0.10.0	4_exp_AMP_EVA_AWA_CON	8	Rpleas_acq	Oppo	Lpleas	Bmasked	CS_B	1pleas	distractor2	EVAbeforeCON	AMP_CSpleas	AMP23	7	35	0	0	300	300	0	0	952	50	0	0	0	0	0	1	blank2r.bmp	0	1	BMVZ	0	1	blank2r.bmp	79	73	pic73.bmp	199	1	whitenoise_No3.bmp	306	0	0	0	0	0	0	0	0	0	0	0	0	0	0	0	0	0	0	0	0	0	0	0	0	0	0	0	0	0	0	0	0	0	0	0	0	0	0	0
121218	11:32:23	11:45:21	777526	5.0.10.0	4_exp_AMP_EVA_AWA_CON	8	Rpleas_acq	Oppo	Lpleas	Bmasked	CS_B	1pleas	distractor2	EVAbeforeCON	AMP_distractor	AMP23	7	36	0	0	300	300	0	0	548	46	0	0	0	0	0	1	blank2r.bmp	0	1	JCRD	0	1	blank2r.bmp	79	15	pic15.bmp	199	1	whitenoise_No3.bmp	306	0	0	0	0	0	0	0	0	0	0	0	0	0	0	0	0	0	0	0	0	0	0	0	0	0	0	0	0	0	0	0	0	0	0	0	0	0	0	0
121218	11:32:23	11:45:22	778859	5.0.10.0	4_exp_AMP_EVA_AWA_CON	8	Rpleas_acq	Oppo	Lpleas	Bmasked	CS_B	1pleas	distractor2	EVAbeforeCON	AMP_CSunple	AMP23	7	37	0	0	300	300	0	0	406	46	0	0	0	0	0	1	blank2r.bmp	0	1	GKQX	0	1	blank2r.bmp	79	34	pic34.bmp	199	1	whitenoise_No3.bmp	306	0	0	0	0	0	0	0	0	0	0	0	0	0	0	0	0	0	0	0	0	0	0	0	0	0	0	0	0	0	0	0	0	0	0	0	0	0	0	0
