date	time	script.currenttime	script.elapsedtime	build	script.currentexpt	subject	expressions.LRpleas_acq	expressions.SameOppo	expressions.condition_Lpleas	expressions.ABmasked	expressions.conditionCS_A	expressions.condition_1pleas	expressions.condition_distractor_AMP	expressions.AWACON_AMPEVA_first	trialcode	blockcode	blocknum	trialnum	windowcenter	inwindow	pretrialpause	posttrialpause	trialduration	trialtimeout	latency	response	expressions.correctedscore	correct	values.vis_performance	values.vis_rating_sum	values.vis_rating_mean	stimulusnumber1	stimulusitem1	stimulusonset1	stimulusnumber2	stimulusitem2	stimulusonset2	stimulusnumber3	stimulusitem3	stimulusonset3	stimulusnumber4	stimulusitem4	stimulusonset4	stimulusnumber5	stimulusitem5	stimulusonset5	stimulusnumber6	stimulusitem6	stimulusonset6	stimulusnumber7	stimulusitem7	stimulusonset7	stimulusnumber8	stimulusitem8	stimulusonset8	stimulusnumber9	stimulusitem9	stimulusonset9	stimulusnumber10	stimulusitem10	stimulusonset10	stimulusnumber11	stimulusitem11	stimulusonset11	stimulusnumber12	stimulusitem12	stimulusonset12	stimulusnumber13	stimulusitem13	stimulusonset13	stimulusnumber14	stimulusitem14	stimulusonset14	stimulusnumber15	stimulusitem15	stimulusonset15	stimulusnumber16	stimulusitem16	stimulusonset16	stimulusnumber17	stimulusitem17	stimulusonset17	stimulusnumber18	stimulusitem18	stimulusonset18
121218	09:01:30	09:03:34	121441	5.0.10.0	4_exp_AWA_CON_EVA_AMP	6	Rpleas_acq	Same	Rpleas	Bmasked	CS_B	1pleas	distractor2	CONbeforeEVA	acq_new_pleas_masked	acq1_masked	1	1	0	0	300	300	0	0	1106	50	0	1	0	0	0	1	blank2r.bmp	0	1	+	0	7	C3r.bmp	492	1	blank2r.bmp	786	4	B4r.bmp	786	1	blank2r.bmp	866	3	lachen	866	0	0	0	0	0	0	0	0	0	0	0	0	0	0	0	0	0	0	0	0	0	0	0	0	0	0	0	0	0	0	0	0	0
121218	09:01:30	09:03:36	123707	5.0.10.0	4_exp_AWA_CON_EVA_AMP	6	Rpleas_acq	Same	Rpleas	Bmasked	CS_B	2pleas	distractor2	CONbeforeEVA	acq_US_pleas_masked	acq1_masked	1	2	0	0	300	300	0	0	776	50	0	1	0	0	0	1	blank2r.bmp	0	1	+	0	5	C1r.bmp	492	1	blank2r.bmp	786	1	GKQX	786	1	blank2r.bmp	866	2	ehrlich	866	0	0	0	0	0	0	0	0	0	0	0	0	0	0	0	0	0	0	0	0	0	0	0	0	0	0	0	0	0	0	0	0	0
121218	09:01:30	09:03:38	125866	5.0.10.0	4_exp_AWA_CON_EVA_AMP	6	Rpleas_acq	Same	Rpleas	Bmasked	CS_B	2pleas	distractor2	CONbeforeEVA	acq_new_pleas_masked	acq1_masked	1	3	0	0	300	300	0	0	680	50	0	1	0	0	0	1	blank2r.bmp	0	1	+	0	6	C2r.bmp	492	1	blank2r.bmp	786	1	B1r.bmp	786	1	blank2r.bmp	866	2	spielen	866	0	0	0	0	0	0	0	0	0	0	0	0	0	0	0	0	0	0	0	0	0	0	0	0	0	0	0	0	0	0	0	0	0
121218	09:01:30	09:03:40	128159	5.0.10.0	4_exp_AWA_CON_EVA_AMP	6	Rpleas_acq	Same	Rpleas	Bmasked	CS_B	2pleas	distractor2	CONbeforeEVA	acq_US_unple_masked	acq1_masked	1	4	0	0	300	300	0	0	818	46	0	1	0	0	0	1	blank2r.bmp	0	1	+	0	4	B4r.bmp	492	1	blank2r.bmp	786	1	BMVZ	786	1	blank2r.bmp	866	6	fanatisch	866	0	0	0	0	0	0	0	0	0	0	0	0	0	0	0	0	0	0	0	0	0	0	0	0	0	0	0	0	0	0	0	0	0
121218	09:01:30	09:03:43	130371	5.0.10.0	4_exp_AWA_CON_EVA_AMP	6	Rpleas_acq	Same	Rpleas	Bmasked	CS_B	2pleas	distractor2	CONbeforeEVA	acq_US_unple_masked	acq1_masked	1	5	0	0	300	300	0	0	734	46	0	1	0	0	0	1	blank2r.bmp	0	1	+	0	1	B1r.bmp	492	1	blank2r.bmp	786	1	BMVZ	786	1	blank2r.bmp	866	3	lasch	866	0	0	0	0	0	0	0	0	0	0	0	0	0	0	0	0	0	0	0	0	0	0	0	0	0	0	0	0	0	0	0	0	0
121218	09:01:30	09:03:45	132437	5.0.10.0	4_exp_AWA_CON_EVA_AMP	6	Rpleas_acq	Same	Rpleas	Bmasked	CS_B	2pleas	distractor2	CONbeforeEVA	acq_new_unple_masked	acq1_masked	1	6	0	0	300	300	0	0	586	46	0	1	0	0	0	1	blank2r.bmp	0	1	+	0	3	B3r.bmp	492	1	blank2r.bmp	786	8	C4r.bmp	786	1	blank2r.bmp	866	3	leiden	866	0	0	0	0	0	0	0	0	0	0	0	0	0	0	0	0	0	0	0	0	0	0	0	0	0	0	0	0	0	0	0	0	0
121218	09:01:30	09:03:47	134516	5.0.10.0	4_exp_AWA_CON_EVA_AMP	6	Rpleas_acq	Same	Rpleas	Bmasked	CS_B	2pleas	distractor2	CONbeforeEVA	acq_US_pleas_masked	acq1_masked	1	7	0	0	300	300	0	0	602	50	0	1	0	0	0	1	blank2r.bmp	0	1	+	0	2	B2r.bmp	492	1	blank2r.bmp	786	1	GKQX	786	1	blank2r.bmp	866	1	retten	866	0	0	0	0	0	0	0	0	0	0	0	0	0	0	0	0	0	0	0	0	0	0	0	0	0	0	0	0	0	0	0	0	0
121218	09:01:30	09:03:49	137048	5.0.10.0	4_exp_AWA_CON_EVA_AMP	6	Rpleas_acq	Same	Rpleas	Bmasked	CS_B	2pleas	distractor2	CONbeforeEVA	acq_new_unple_masked	acq1_masked	1	8	0	0	300	300	0	0	1047	46	0	1	0	0	0	1	blank2r.bmp	0	1	+	0	8	C4r.bmp	492	1	blank2r.bmp	786	5	C1r.bmp	786	1	blank2r.bmp	866	6	faul	866	0	0	0	0	0	0	0	0	0	0	0	0	0	0	0	0	0	0	0	0	0	0	0	0	0	0	0	0	0	0	0	0	0
121218	09:01:30	09:03:51	139167	5.0.10.0	4_exp_AWA_CON_EVA_AMP	6	Rpleas_acq	Same	Rpleas	Bmasked	CS_B	2pleas	distractor2	CONbeforeEVA	acq_new_pleas_masked	acq1_masked	1	9	0	0	300	300	0	0	639	50	0	1	0	0	0	1	blank2r.bmp	0	1	+	0	6	C2r.bmp	492	1	blank2r.bmp	786	2	B2r.bmp	786	1	blank2r.bmp	866	1	helfen	866	0	0	0	0	0	0	0	0	0	0	0	0	0	0	0	0	0	0	0	0	0	0	0	0	0	0	0	0	0	0	0	0	0
121218	09:01:30	09:03:53	141300	5.0.10.0	4_exp_AWA_CON_EVA_AMP	6	Rpleas_acq	Same	Rpleas	Bmasked	CS_B	2pleas	distractor2	CONbeforeEVA	acq_US_pleas_masked	acq1_masked	1	10	0	0	300	300	0	0	659	50	0	1	0	0	0	1	blank2r.bmp	0	1	+	0	1	B1r.bmp	492	1	blank2r.bmp	786	1	GKQX	786	1	blank2r.bmp	866	5	treu	866	0	0	0	0	0	0	0	0	0	0	0	0	0	0	0	0	0	0	0	0	0	0	0	0	0	0	0	0	0	0	0	0	0
121218	09:01:30	09:03:56	143486	5.0.10.0	4_exp_AWA_CON_EVA_AMP	6	Rpleas_acq	Same	Rpleas	Bmasked	CS_B	2pleas	distractor2	CONbeforeEVA	acq_US_unple_masked	acq1_masked	1	11	0	0	300	300	0	0	702	46	0	1	0	0	0	1	blank2r.bmp	0	1	+	0	4	B4r.bmp	492	1	blank2r.bmp	786	1	BMVZ	786	1	blank2r.bmp	866	4	tyrannisch	866	0	0	0	0	0	0	0	0	0	0	0	0	0	0	0	0	0	0	0	0	0	0	0	0	0	0	0	0	0	0	0	0	0
121218	09:01:30	09:03:58	146018	5.0.10.0	4_exp_AWA_CON_EVA_AMP	6	Rpleas_acq	Same	Rpleas	Bmasked	CS_B	2pleas	distractor2	CONbeforeEVA	acq_new_unple_masked	acq1_masked	1	12	0	0	300	300	0	0	1038	46	0	1	0	0	0	1	blank2r.bmp	0	1	+	0	8	C4r.bmp	492	1	blank2r.bmp	786	3	B3r.bmp	786	1	blank2r.bmp	866	5	schlecht	866	0	0	0	0	0	0	0	0	0	0	0	0	0	0	0	0	0	0	0	0	0	0	0	0	0	0	0	0	0	0	0	0	0
121218	09:01:30	09:04:01	148643	5.0.10.0	4_exp_AWA_CON_EVA_AMP	6	Rpleas_acq	Same	Rpleas	Bmasked	CS_B	2pleas	distractor2	CONbeforeEVA	acq_new_pleas_masked	acq1_masked	1	13	0	0	300	300	0	0	1156	50	0	1	0	0	0	1	blank2r.bmp	0	1	+	0	5	C1r.bmp	492	1	blank2r.bmp	786	7	C3r.bmp	786	1	blank2r.bmp	866	5	schön	866	0	0	0	0	0	0	0	0	0	0	0	0	0	0	0	0	0	0	0	0	0	0	0	0	0	0	0	0	0	0	0	0	0
121218	09:01:30	09:04:04	151362	5.0.10.0	4_exp_AWA_CON_EVA_AMP	6	Rpleas_acq	Same	Rpleas	Bmasked	CS_B	2pleas	distractor2	CONbeforeEVA	acq_US_unple_masked	acq1_masked	1	14	0	0	300	300	0	0	1232	46	0	1	0	0	0	1	blank2r.bmp	0	1	+	0	7	C3r.bmp	492	1	blank2r.bmp	786	1	BMVZ	786	1	blank2r.bmp	866	2	eitel	866	0	0	0	0	0	0	0	0	0	0	0	0	0	0	0	0	0	0	0	0	0	0	0	0	0	0	0	0	0	0	0	0	0
121218	09:01:30	09:04:06	153695	5.0.10.0	4_exp_AWA_CON_EVA_AMP	6	Rpleas_acq	Same	Rpleas	Bmasked	CS_B	2pleas	distractor2	CONbeforeEVA	acq_US_unple_masked	acq1_masked	1	15	0	0	300	300	0	0	846	46	0	1	0	0	0	1	blank2r.bmp	0	1	+	0	2	B2r.bmp	492	1	blank2r.bmp	786	1	BMVZ	786	1	blank2r.bmp	866	5	tot	866	0	0	0	0	0	0	0	0	0	0	0	0	0	0	0	0	0	0	0	0	0	0	0	0	0	0	0	0	0	0	0	0	0
121218	09:01:30	09:04:08	156107	5.0.10.0	4_exp_AWA_CON_EVA_AMP	6	Rpleas_acq	Same	Rpleas	Bmasked	CS_B	2pleas	distractor2	CONbeforeEVA	acq_new_unple_masked	acq1_masked	1	16	0	0	300	300	0	0	932	46	0	1	0	0	0	1	blank2r.bmp	0	1	+	0	3	B3r.bmp	492	1	blank2r.bmp	786	6	C2r.bmp	786	1	blank2r.bmp	866	1	hindern	866	0	0	0	0	0	0	0	0	0	0	0	0	0	0	0	0	0	0	0	0	0	0	0	0	0	0	0	0	0	0	0	0	0
121218	09:01:30	09:04:10	158266	5.0.10.0	4_exp_AWA_CON_EVA_AMP	6	Rpleas_acq	Same	Rpleas	Bmasked	CS_B	2pleas	distractor2	CONbeforeEVA	acq_new_pleas_masked	acq1_masked	1	17	0	0	300	300	0	0	688	50	0	1	0	0	0	1	blank2r.bmp	0	1	+	0	7	C3r.bmp	492	1	blank2r.bmp	786	6	C2r.bmp	786	1	blank2r.bmp	866	4	schlau	866	0	0	0	0	0	0	0	0	0	0	0	0	0	0	0	0	0	0	0	0	0	0	0	0	0	0	0	0	0	0	0	0	0
121218	09:01:30	09:04:13	160585	5.0.10.0	4_exp_AWA_CON_EVA_AMP	6	Rpleas_acq	Same	Rpleas	Bmasked	CS_B	2pleas	distractor2	CONbeforeEVA	acq_new_unple_masked	acq1_masked	1	18	0	0	300	300	0	0	836	46	0	1	0	0	0	1	blank2r.bmp	0	1	+	0	8	C4r.bmp	492	1	blank2r.bmp	786	3	B3r.bmp	786	1	blank2r.bmp	866	4	schroff	866	0	0	0	0	0	0	0	0	0	0	0	0	0	0	0	0	0	0	0	0	0	0	0	0	0	0	0	0	0	0	0	0	0
121218	09:01:30	09:04:15	163251	5.0.10.0	4_exp_AWA_CON_EVA_AMP	6	Rpleas_acq	Same	Rpleas	Bmasked	CS_B	2pleas	distractor2	CONbeforeEVA	acq_US_pleas_masked	acq1_masked	1	19	0	0	300	300	0	0	1195	50	0	1	0	0	0	1	blank2r.bmp	0	1	+	0	1	B1r.bmp	492	1	blank2r.bmp	786	1	GKQX	786	1	blank2r.bmp	866	6	freundlich	866	0	0	0	0	0	0	0	0	0	0	0	0	0	0	0	0	0	0	0	0	0	0	0	0	0	0	0	0	0	0	0	0	0
121218	09:01:30	09:04:18	165490	5.0.10.0	4_exp_AWA_CON_EVA_AMP	6	Rpleas_acq	Same	Rpleas	Bmasked	CS_B	2pleas	distractor2	CONbeforeEVA	acq_US_unple_masked	acq1_masked	1	20	0	0	300	300	0	0	749	46	0	1	0	0	0	1	blank2r.bmp	0	1	+	0	2	B2r.bmp	492	1	blank2r.bmp	786	1	BMVZ	786	1	blank2r.bmp	866	1	rächen	866	0	0	0	0	0	0	0	0	0	0	0	0	0	0	0	0	0	0	0	0	0	0	0	0	0	0	0	0	0	0	0	0	0
121218	09:01:30	09:04:20	167702	5.0.10.0	4_exp_AWA_CON_EVA_AMP	6	Rpleas_acq	Same	Rpleas	Bmasked	CS_B	2pleas	distractor2	CONbeforeEVA	acq_new_unple_masked	acq1_masked	1	21	0	0	300	300	0	0	736	46	0	1	0	0	0	1	blank2r.bmp	0	1	+	0	6	C2r.bmp	492	1	blank2r.bmp	786	8	C4r.bmp	786	1	blank2r.bmp	866	2	strafen	866	0	0	0	0	0	0	0	0	0	0	0	0	0	0	0	0	0	0	0	0	0	0	0	0	0	0	0	0	0	0	0	0	0
121218	09:01:30	09:04:22	169861	5.0.10.0	4_exp_AWA_CON_EVA_AMP	6	Rpleas_acq	Same	Rpleas	Bmasked	CS_B	2pleas	distractor2	CONbeforeEVA	acq_new_pleas_masked	acq1_masked	1	22	0	0	300	300	0	0	682	50	0	1	0	0	0	1	blank2r.bmp	0	1	+	0	4	B4r.bmp	492	1	blank2r.bmp	786	2	B2r.bmp	786	1	blank2r.bmp	866	6	fair	866	0	0	0	0	0	0	0	0	0	0	0	0	0	0	0	0	0	0	0	0	0	0	0	0	0	0	0	0	0	0	0	0	0
121218	09:01:30	09:04:24	172154	5.0.10.0	4_exp_AWA_CON_EVA_AMP	6	Rpleas_acq	Same	Rpleas	Bmasked	CS_B	2pleas	distractor2	CONbeforeEVA	acq_US_pleas_masked	acq1_masked	1	23	0	0	300	300	0	0	798	50	0	1	0	0	0	1	blank2r.bmp	0	1	+	0	5	C1r.bmp	492	1	blank2r.bmp	786	1	GKQX	786	1	blank2r.bmp	866	3	loyal	866	0	0	0	0	0	0	0	0	0	0	0	0	0	0	0	0	0	0	0	0	0	0	0	0	0	0	0	0	0	0	0	0	0
121218	09:01:30	09:04:27	174379	5.0.10.0	4_exp_AWA_CON_EVA_AMP	6	Rpleas_acq	Same	Rpleas	Bmasked	CS_B	2pleas	distractor2	CONbeforeEVA	acq_US_pleas_masked	acq1_masked	1	24	0	0	300	300	0	0	754	50	0	1	0	0	0	1	blank2r.bmp	0	1	+	0	3	B3r.bmp	492	1	blank2r.bmp	786	1	GKQX	786	1	blank2r.bmp	866	4	tolerant	866	0	0	0	0	0	0	0	0	0	0	0	0	0	0	0	0	0	0	0	0	0	0	0	0	0	0	0	0	0	0	0	0	0
121218	09:01:30	09:04:29	176538	5.0.10.0	4_exp_AWA_CON_EVA_AMP	6	Rpleas_acq	Same	Rpleas	Bmasked	CS_B	2pleas	distractor2	CONbeforeEVA	acq_US_pleas_masked	acq1_masked	1	25	0	0	300	300	0	0	669	50	0	1	0	0	0	1	blank2r.bmp	0	1	+	0	8	C4r.bmp	492	1	blank2r.bmp	786	1	GKQX	786	1	blank2r.bmp	866	2	ehrlich	866	0	0	0	0	0	0	0	0	0	0	0	0	0	0	0	0	0	0	0	0	0	0	0	0	0	0	0	0	0	0	0	0	0
121218	09:01:30	09:04:31	178591	5.0.10.0	4_exp_AWA_CON_EVA_AMP	6	Rpleas_acq	Same	Rpleas	Bmasked	CS_B	2pleas	distractor2	CONbeforeEVA	acq_new_unple_masked	acq1_masked	1	26	0	0	300	300	0	0	565	46	0	1	0	0	0	1	blank2r.bmp	0	1	+	0	4	B4r.bmp	492	1	blank2r.bmp	786	1	B1r.bmp	786	1	blank2r.bmp	866	4	schroff	866	0	0	0	0	0	0	0	0	0	0	0	0	0	0	0	0	0	0	0	0	0	0	0	0	0	0	0	0	0	0	0	0	0
121218	09:01:30	09:04:33	180870	5.0.10.0	4_exp_AWA_CON_EVA_AMP	6	Rpleas_acq	Same	Rpleas	Bmasked	CS_B	2pleas	distractor2	CONbeforeEVA	acq_US_unple_masked	acq1_masked	1	27	0	0	300	300	0	0	806	46	0	1	0	0	0	1	blank2r.bmp	0	1	+	0	5	C1r.bmp	492	1	blank2r.bmp	786	1	BMVZ	786	1	blank2r.bmp	866	2	eitel	866	0	0	0	0	0	0	0	0	0	0	0	0	0	0	0	0	0	0	0	0	0	0	0	0	0	0	0	0	0	0	0	0	0
121218	09:01:30	09:04:35	183029	5.0.10.0	4_exp_AWA_CON_EVA_AMP	6	Rpleas_acq	Same	Rpleas	Bmasked	CS_B	2pleas	distractor2	CONbeforeEVA	acq_new_unple_masked	acq1_masked	1	28	0	0	300	300	0	0	681	46	0	1	0	0	0	1	blank2r.bmp	0	1	+	0	7	C3r.bmp	492	1	blank2r.bmp	786	5	C1r.bmp	786	1	blank2r.bmp	866	1	hindern	866	0	0	0	0	0	0	0	0	0	0	0	0	0	0	0	0	0	0	0	0	0	0	0	0	0	0	0	0	0	0	0	0	0
121218	09:01:30	09:04:37	185241	5.0.10.0	4_exp_AWA_CON_EVA_AMP	6	Rpleas_acq	Same	Rpleas	Bmasked	CS_B	2pleas	distractor2	CONbeforeEVA	acq_US_unple_masked	acq1_masked	1	29	0	0	300	300	0	0	726	46	0	1	0	0	0	1	blank2r.bmp	0	1	+	0	1	B1r.bmp	492	1	blank2r.bmp	786	1	BMVZ	786	1	blank2r.bmp	866	6	fanatisch	866	0	0	0	0	0	0	0	0	0	0	0	0	0	0	0	0	0	0	0	0	0	0	0	0	0	0	0	0	0	0	0	0	0
121218	09:01:30	09:04:40	187454	5.0.10.0	4_exp_AWA_CON_EVA_AMP	6	Rpleas_acq	Same	Rpleas	Bmasked	CS_B	2pleas	distractor2	CONbeforeEVA	acq_new_pleas_masked	acq1_masked	1	30	0	0	300	300	0	0	728	50	0	1	0	0	0	1	blank2r.bmp	0	1	+	0	6	C2r.bmp	492	1	blank2r.bmp	786	4	B4r.bmp	786	1	blank2r.bmp	866	4	schlau	866	0	0	0	0	0	0	0	0	0	0	0	0	0	0	0	0	0	0	0	0	0	0	0	0	0	0	0	0	0	0	0	0	0
121218	09:01:30	09:04:42	189546	5.0.10.0	4_exp_AWA_CON_EVA_AMP	6	Rpleas_acq	Same	Rpleas	Bmasked	CS_B	2pleas	distractor2	CONbeforeEVA	acq_new_pleas_masked	acq1_masked	1	31	0	0	300	300	0	0	598	50	0	1	0	0	0	1	blank2r.bmp	0	1	+	0	3	B3r.bmp	492	1	blank2r.bmp	786	7	C3r.bmp	786	1	blank2r.bmp	866	6	fair	866	0	0	0	0	0	0	0	0	0	0	0	0	0	0	0	0	0	0	0	0	0	0	0	0	0	0	0	0	0	0	0	0	0
121218	09:01:30	09:04:44	191652	5.0.10.0	4_exp_AWA_CON_EVA_AMP	6	Rpleas_acq	Same	Rpleas	Bmasked	CS_B	2pleas	distractor2	CONbeforeEVA	acq_new_pleas_masked	acq1_masked	1	32	0	0	300	300	0	0	625	50	0	1	0	0	0	1	blank2r.bmp	0	1	+	0	2	B2r.bmp	492	1	blank2r.bmp	786	1	B1r.bmp	786	1	blank2r.bmp	866	5	schön	866	0	0	0	0	0	0	0	0	0	0	0	0	0	0	0	0	0	0	0	0	0	0	0	0	0	0	0	0	0	0	0	0	0
121218	09:01:30	09:04:46	193678	5.0.10.0	4_exp_AWA_CON_EVA_AMP	6	Rpleas_acq	Same	Rpleas	Bmasked	CS_B	2pleas	distractor2	CONbeforeEVA	acq_US_pleas_masked	acq1_masked	1	33	0	0	300	300	0	0	549	50	0	1	0	0	0	1	blank2r.bmp	0	1	+	0	8	C4r.bmp	492	1	blank2r.bmp	786	1	GKQX	786	1	blank2r.bmp	866	6	freundlich	866	0	0	0	0	0	0	0	0	0	0	0	0	0	0	0	0	0	0	0	0	0	0	0	0	0	0	0	0	0	0	0	0	0
121218	09:01:30	09:04:48	195917	5.0.10.0	4_exp_AWA_CON_EVA_AMP	6	Rpleas_acq	Same	Rpleas	Bmasked	CS_B	2pleas	distractor2	CONbeforeEVA	acq_US_unple_masked	acq1_masked	1	34	0	0	300	300	0	0	764	46	0	1	0	0	0	1	blank2r.bmp	0	1	+	0	7	C3r.bmp	492	1	blank2r.bmp	786	1	BMVZ	786	1	blank2r.bmp	866	4	tyrannisch	866	0	0	0	0	0	0	0	0	0	0	0	0	0	0	0	0	0	0	0	0	0	0	0	0	0	0	0	0	0	0	0	0	0
121218	09:01:30	09:04:50	198023	5.0.10.0	4_exp_AWA_CON_EVA_AMP	6	Rpleas_acq	Same	Rpleas	Bmasked	CS_B	2pleas	distractor2	CONbeforeEVA	acq_US_pleas_masked	acq1_masked	1	35	0	0	300	300	0	0	622	50	0	1	0	0	0	1	blank2r.bmp	0	1	+	0	6	C2r.bmp	492	1	blank2r.bmp	786	1	GKQX	786	1	blank2r.bmp	866	1	retten	866	0	0	0	0	0	0	0	0	0	0	0	0	0	0	0	0	0	0	0	0	0	0	0	0	0	0	0	0	0	0	0	0	0
121218	09:01:30	09:04:52	200262	5.0.10.0	4_exp_AWA_CON_EVA_AMP	6	Rpleas_acq	Same	Rpleas	Bmasked	CS_B	2pleas	distractor2	CONbeforeEVA	acq_new_unple_masked	acq1_masked	1	36	0	0	300	300	0	0	753	46	0	1	0	0	0	1	blank2r.bmp	0	1	+	0	1	B1r.bmp	492	1	blank2r.bmp	786	3	B3r.bmp	786	1	blank2r.bmp	866	5	schlecht	866	0	0	0	0	0	0	0	0	0	0	0	0	0	0	0	0	0	0	0	0	0	0	0	0	0	0	0	0	0	0	0	0	0
121218	09:01:30	09:05:50	257344	5.0.10.0	4_exp_AWA_CON_EVA_AMP	6	Rpleas_acq	Same	Rpleas	Bmasked	CS_B	2pleas	distractor2	CONbeforeEVA	acq_US_pleas_masked	acq2_masked	2	1	480	0	300	300	0	0	1039	50	0	1	0	0	0	1	blank2r.bmp	0	1	+	0	2	B2r.bmp	492	1	blank2r.bmp	786	1	GKQX	786	1	blank2r.bmp	866	4	tolerant	866	1	!	1319	1	!	-1	0	0	0	0	0	0	0	0	0	0	0	0	0	0	0	0	0	0	0	0	0	0	0	0	0	0	0
121218	09:01:30	09:05:52	259663	5.0.10.0	4_exp_AWA_CON_EVA_AMP	6	Rpleas_acq	Same	Rpleas	Bmasked	CS_B	2pleas	distractor2	CONbeforeEVA	acq_new_pleas_masked	acq2_masked	2	2	480	1	300	300	0	0	513	50	0	1	0	0	0	1	blank2r.bmp	0	1	+	0	5	C1r.bmp	492	1	blank2r.bmp	786	2	B2r.bmp	786	1	blank2r.bmp	866	1	helfen	866	1	!	1319	1	!	1412	0	0	0	0	0	0	0	0	0	0	0	0	0	0	0	0	0	0	0	0	0	0	0	0	0	0	0
121218	09:01:30	09:05:54	261969	5.0.10.0	4_exp_AWA_CON_EVA_AMP	6	Rpleas_acq	Same	Rpleas	Bmasked	CS_B	2pleas	distractor2	CONbeforeEVA	acq_new_unple_masked	acq2_masked	2	3	480	1	300	300	0	0	508	46	0	1	0	0	0	1	blank2r.bmp	0	1	+	0	3	B3r.bmp	492	1	blank2r.bmp	786	4	B4r.bmp	786	1	blank2r.bmp	866	3	leiden	866	1	!	1319	1	!	1412	0	0	0	0	0	0	0	0	0	0	0	0	0	0	0	0	0	0	0	0	0	0	0	0	0	0	0
121218	09:01:30	09:05:57	264461	5.0.10.0	4_exp_AWA_CON_EVA_AMP	6	Rpleas_acq	Same	Rpleas	Bmasked	CS_B	2pleas	distractor2	CONbeforeEVA	acq_new_unple_masked	acq2_masked	2	4	480	1	300	300	0	0	505	50	0	0	0	0	0	1	blank2r.bmp	0	1	+	0	4	B4r.bmp	492	1	blank2r.bmp	786	8	C4r.bmp	786	1	blank2r.bmp	866	6	faul	866	1	FEHLER	1719	1	!	1319	1	!	1399	0	0	0	0	0	0	0	0	0	0	0	0	0	0	0	0	0	0	0	0	0	0	0	0
121218	09:01:30	09:05:59	266487	5.0.10.0	4_exp_AWA_CON_EVA_AMP	6	Rpleas_acq	Same	Rpleas	Bmasked	CS_B	2pleas	distractor2	CONbeforeEVA	acq_new_pleas_masked	acq2_masked	2	5	480	1	300	300	0	0	433	50	0	1	0	0	0	1	blank2r.bmp	0	1	+	0	3	B3r.bmp	492	1	blank2r.bmp	786	5	C1r.bmp	786	1	blank2r.bmp	866	2	spielen	866	1	!	1319	1	!	1332	0	0	0	0	0	0	0	0	0	0	0	0	0	0	0	0	0	0	0	0	0	0	0	0	0	0	0
121218	09:01:30	09:06:01	268713	5.0.10.0	4_exp_AWA_CON_EVA_AMP	6	Rpleas_acq	Same	Rpleas	Bmasked	CS_B	2pleas	distractor2	CONbeforeEVA	acq_US_unple_masked	acq2_masked	2	6	480	1	300	300	0	0	426	46	0	1	0	0	0	1	blank2r.bmp	0	1	+	0	1	B1r.bmp	492	1	blank2r.bmp	786	1	BMVZ	786	1	blank2r.bmp	866	5	tot	866	1	!	1319	1	!	1332	0	0	0	0	0	0	0	0	0	0	0	0	0	0	0	0	0	0	0	0	0	0	0	0	0	0	0
121218	09:01:30	09:06:03	271005	5.0.10.0	4_exp_AWA_CON_EVA_AMP	6	Rpleas_acq	Same	Rpleas	Bmasked	CS_B	2pleas	distractor2	CONbeforeEVA	acq_US_pleas_masked	acq2_masked	2	7	480	1	300	300	0	0	492	50	0	1	0	0	0	1	blank2r.bmp	0	1	+	0	4	B4r.bmp	492	1	blank2r.bmp	786	1	GKQX	786	1	blank2r.bmp	866	3	loyal	866	1	!	1319	1	!	1399	0	0	0	0	0	0	0	0	0	0	0	0	0	0	0	0	0	0	0	0	0	0	0	0	0	0	0
121218	09:01:30	09:06:06	273311	5.0.10.0	4_exp_AWA_CON_EVA_AMP	6	Rpleas_acq	Same	Rpleas	Bmasked	CS_B	2pleas	distractor2	CONbeforeEVA	acq_US_unple_masked	acq2_masked	2	8	480	1	300	300	0	0	516	46	0	1	0	0	0	1	blank2r.bmp	0	1	+	0	8	C4r.bmp	492	1	blank2r.bmp	786	1	BMVZ	786	1	blank2r.bmp	866	1	rächen	866	1	!	1319	1	!	1412	0	0	0	0	0	0	0	0	0	0	0	0	0	0	0	0	0	0	0	0	0	0	0	0	0	0	0
121218	09:01:30	09:06:08	275577	5.0.10.0	4_exp_AWA_CON_EVA_AMP	6	Rpleas_acq	Same	Rpleas	Bmasked	CS_B	2pleas	distractor2	CONbeforeEVA	acq_US_pleas_masked	acq2_masked	2	9	480	1	300	300	0	0	476	50	0	1	0	0	0	1	blank2r.bmp	0	1	+	0	2	B2r.bmp	492	1	blank2r.bmp	786	1	GKQX	786	1	blank2r.bmp	866	5	treu	866	1	!	1319	1	!	1372	0	0	0	0	0	0	0	0	0	0	0	0	0	0	0	0	0	0	0	0	0	0	0	0	0	0	0
121218	09:01:30	09:06:10	277709	5.0.10.0	4_exp_AWA_CON_EVA_AMP	6	Rpleas_acq	Same	Rpleas	Bmasked	CS_B	2pleas	distractor2	CONbeforeEVA	acq_US_unple_masked	acq2_masked	2	10	480	0	300	300	0	0	361	46	0	1	0	0	0	1	blank2r.bmp	0	1	+	0	5	C1r.bmp	492	1	blank2r.bmp	786	1	BMVZ	786	1	blank2r.bmp	866	3	lasch	866	1	!	-1	1	!	-1	0	0	0	0	0	0	0	0	0	0	0	0	0	0	0	0	0	0	0	0	0	0	0	0	0	0	0
121218	09:01:30	09:06:13	280361	5.0.10.0	4_exp_AWA_CON_EVA_AMP	6	Rpleas_acq	Same	Rpleas	Bmasked	CS_B	2pleas	distractor2	CONbeforeEVA	acq_new_unple_masked	acq2_masked	2	11	480	0	300	300	0	0	853	46	0	1	0	0	0	1	blank2r.bmp	0	1	+	0	6	C2r.bmp	492	1	blank2r.bmp	786	7	C3r.bmp	786	1	blank2r.bmp	866	2	strafen	866	1	!	1319	1	!	-1	0	0	0	0	0	0	0	0	0	0	0	0	0	0	0	0	0	0	0	0	0	0	0	0	0	0	0
121218	09:01:30	09:06:15	282614	5.0.10.0	4_exp_AWA_CON_EVA_AMP	6	Rpleas_acq	Same	Rpleas	Bmasked	CS_B	2pleas	distractor2	CONbeforeEVA	acq_new_pleas_masked	acq2_masked	2	12	480	1	300	300	0	0	426	50	0	1	0	0	0	1	blank2r.bmp	0	1	+	0	7	C3r.bmp	492	1	blank2r.bmp	786	6	C2r.bmp	786	1	blank2r.bmp	866	3	lachen	866	1	!	1319	1	!	1332	0	0	0	0	0	0	0	0	0	0	0	0	0	0	0	0	0	0	0	0	0	0	0	0	0	0	0
121218	09:01:30	09:06:17	284959	5.0.10.0	4_exp_AWA_CON_EVA_AMP	6	Rpleas_acq	Same	Rpleas	Bmasked	CS_B	2pleas	distractor2	CONbeforeEVA	acq_new_unple_masked	acq2_masked	2	13	480	0	300	300	0	0	574	46	0	1	0	0	0	1	blank2r.bmp	0	1	+	0	3	B3r.bmp	492	1	blank2r.bmp	786	2	B2r.bmp	786	1	blank2r.bmp	866	3	leiden	866	1	!	1319	1	!	-1	0	0	0	0	0	0	0	0	0	0	0	0	0	0	0	0	0	0	0	0	0	0	0	0	0	0	0
121218	09:01:30	09:06:19	287225	5.0.10.0	4_exp_AWA_CON_EVA_AMP	6	Rpleas_acq	Same	Rpleas	Bmasked	CS_B	2pleas	distractor2	CONbeforeEVA	acq_US_pleas_masked	acq2_masked	2	14	480	1	300	300	0	0	460	50	0	1	0	0	0	1	blank2r.bmp	0	1	+	0	4	B4r.bmp	492	1	blank2r.bmp	786	1	GKQX	786	1	blank2r.bmp	866	6	freundlich	866	1	!	1319	1	!	1359	0	0	0	0	0	0	0	0	0	0	0	0	0	0	0	0	0	0	0	0	0	0	0	0	0	0	0
121218	09:01:30	09:06:22	289531	5.0.10.0	4_exp_AWA_CON_EVA_AMP	6	Rpleas_acq	Same	Rpleas	Bmasked	CS_B	2pleas	distractor2	CONbeforeEVA	acq_new_pleas_masked	acq2_masked	2	15	480	1	300	300	0	0	508	50	0	1	0	0	0	1	blank2r.bmp	0	1	+	0	2	B2r.bmp	492	1	blank2r.bmp	786	1	B1r.bmp	786	1	blank2r.bmp	866	4	schlau	866	1	!	1319	1	!	1412	0	0	0	0	0	0	0	0	0	0	0	0	0	0	0	0	0	0	0	0	0	0	0	0	0	0	0
121218	09:01:30	09:06:24	291917	5.0.10.0	4_exp_AWA_CON_EVA_AMP	6	Rpleas_acq	Same	Rpleas	Bmasked	CS_B	2pleas	distractor2	CONbeforeEVA	acq_US_pleas_masked	acq2_masked	2	16	480	0	300	300	0	0	611	50	0	1	0	0	0	1	blank2r.bmp	0	1	+	0	1	B1r.bmp	492	1	blank2r.bmp	786	1	GKQX	786	1	blank2r.bmp	866	4	tolerant	866	1	!	1319	1	!	-1	0	0	0	0	0	0	0	0	0	0	0	0	0	0	0	0	0	0	0	0	0	0	0	0	0	0	0
121218	09:01:30	09:06:26	294102	5.0.10.0	4_exp_AWA_CON_EVA_AMP	6	Rpleas_acq	Same	Rpleas	Bmasked	CS_B	2pleas	distractor2	CONbeforeEVA	acq_US_unple_masked	acq2_masked	2	17	480	0	300	300	0	0	405	46	0	1	0	0	0	1	blank2r.bmp	0	1	+	0	5	C1r.bmp	492	1	blank2r.bmp	786	1	BMVZ	786	1	blank2r.bmp	866	3	lasch	866	1	!	-1	1	!	-1	0	0	0	0	0	0	0	0	0	0	0	0	0	0	0	0	0	0	0	0	0	0	0	0	0	0	0
121218	09:01:30	09:06:29	296568	5.0.10.0	4_exp_AWA_CON_EVA_AMP	6	Rpleas_acq	Same	Rpleas	Bmasked	CS_B	2pleas	distractor2	CONbeforeEVA	acq_US_unple_masked	acq2_masked	2	18	480	1	300	300	0	0	448	50	0	0	0	0	0	1	blank2r.bmp	0	1	+	0	8	C4r.bmp	492	1	blank2r.bmp	786	1	BMVZ	786	1	blank2r.bmp	866	6	fanatisch	866	1	FEHLER	1665	1	!	1319	1	!	1346	0	0	0	0	0	0	0	0	0	0	0	0	0	0	0	0	0	0	0	0	0	0	0	0
121218	09:01:30	09:06:31	298647	5.0.10.0	4_exp_AWA_CON_EVA_AMP	6	Rpleas_acq	Same	Rpleas	Bmasked	CS_B	2pleas	distractor2	CONbeforeEVA	acq_new_pleas_masked	acq2_masked	2	19	480	1	300	300	0	0	501	50	0	1	0	0	0	1	blank2r.bmp	0	1	+	0	6	C2r.bmp	492	1	blank2r.bmp	786	3	B3r.bmp	786	1	blank2r.bmp	866	1	helfen	866	1	!	1319	1	!	1399	0	0	0	0	0	0	0	0	0	0	0	0	0	0	0	0	0	0	0	0	0	0	0	0	0	0	0
121218	09:01:30	09:06:33	300806	5.0.10.0	4_exp_AWA_CON_EVA_AMP	6	Rpleas_acq	Same	Rpleas	Bmasked	CS_B	2pleas	distractor2	CONbeforeEVA	acq_new_unple_masked	acq2_masked	2	20	480	0	300	300	0	0	389	46	0	1	0	0	0	1	blank2r.bmp	0	1	+	0	7	C3r.bmp	492	1	blank2r.bmp	786	5	C1r.bmp	786	1	blank2r.bmp	866	1	hindern	866	1	!	-1	1	!	-1	0	0	0	0	0	0	0	0	0	0	0	0	0	0	0	0	0	0	0	0	0	0	0	0	0	0	0
121218	09:01:30	09:06:35	302992	5.0.10.0	4_exp_AWA_CON_EVA_AMP	6	Rpleas_acq	Same	Rpleas	Bmasked	CS_B	2pleas	distractor2	CONbeforeEVA	acq_US_pleas_masked	acq2_masked	2	21	480	0	300	300	0	0	407	50	0	1	0	0	0	1	blank2r.bmp	0	1	+	0	8	C4r.bmp	492	1	blank2r.bmp	786	1	GKQX	786	1	blank2r.bmp	866	3	loyal	866	1	!	-1	1	!	-1	0	0	0	0	0	0	0	0	0	0	0	0	0	0	0	0	0	0	0	0	0	0	0	0	0	0	0
121218	09:01:30	09:06:38	305338	5.0.10.0	4_exp_AWA_CON_EVA_AMP	6	Rpleas_acq	Same	Rpleas	Bmasked	CS_B	2pleas	distractor2	CONbeforeEVA	acq_new_unple_masked	acq2_masked	2	22	480	0	300	300	0	0	563	46	0	1	0	0	0	1	blank2r.bmp	0	1	+	0	3	B3r.bmp	492	1	blank2r.bmp	786	8	C4r.bmp	786	1	blank2r.bmp	866	2	strafen	866	1	!	1319	1	!	-1	0	0	0	0	0	0	0	0	0	0	0	0	0	0	0	0	0	0	0	0	0	0	0	0	0	0	0
121218	09:01:30	09:06:40	307697	5.0.10.0	4_exp_AWA_CON_EVA_AMP	6	Rpleas_acq	Same	Rpleas	Bmasked	CS_B	2pleas	distractor2	CONbeforeEVA	acq_new_pleas_masked	acq2_masked	2	23	480	1	300	300	0	0	544	50	0	1	0	0	0	1	blank2r.bmp	0	1	+	0	7	C3r.bmp	492	1	blank2r.bmp	786	6	C2r.bmp	786	1	blank2r.bmp	866	2	spielen	866	1	!	1319	1	!	1439	0	0	0	0	0	0	0	0	0	0	0	0	0	0	0	0	0	0	0	0	0	0	0	0	0	0	0
121218	09:01:30	09:06:42	309869	5.0.10.0	4_exp_AWA_CON_EVA_AMP	6	Rpleas_acq	Same	Rpleas	Bmasked	CS_B	2pleas	distractor2	CONbeforeEVA	acq_US_unple_masked	acq2_masked	2	24	480	0	300	300	0	0	406	46	0	1	0	0	0	1	blank2r.bmp	0	1	+	0	4	B4r.bmp	492	1	blank2r.bmp	786	1	BMVZ	786	1	blank2r.bmp	866	1	rächen	866	1	!	-1	1	!	-1	0	0	0	0	0	0	0	0	0	0	0	0	0	0	0	0	0	0	0	0	0	0	0	0	0	0	0
121218	09:01:30	09:06:44	312135	5.0.10.0	4_exp_AWA_CON_EVA_AMP	6	Rpleas_acq	Same	Rpleas	Bmasked	CS_B	2pleas	distractor2	CONbeforeEVA	acq_new_pleas_masked	acq2_masked	2	25	480	1	300	300	0	0	456	50	0	1	0	0	0	1	blank2r.bmp	0	1	+	0	2	B2r.bmp	492	1	blank2r.bmp	786	4	B4r.bmp	786	1	blank2r.bmp	866	6	fair	866	1	!	1319	1	!	1359	0	0	0	0	0	0	0	0	0	0	0	0	0	0	0	0	0	0	0	0	0	0	0	0	0	0	0
121218	09:01:30	09:06:47	314547	5.0.10.0	4_exp_AWA_CON_EVA_AMP	6	Rpleas_acq	Same	Rpleas	Bmasked	CS_B	2pleas	distractor2	CONbeforeEVA	acq_new_unple_masked	acq2_masked	2	26	480	0	300	300	0	0	633	46	0	1	0	0	0	1	blank2r.bmp	0	1	+	0	6	C2r.bmp	492	1	blank2r.bmp	786	7	C3r.bmp	786	1	blank2r.bmp	866	5	schlecht	866	1	!	1319	1	!	-1	0	0	0	0	0	0	0	0	0	0	0	0	0	0	0	0	0	0	0	0	0	0	0	0	0	0	0
121218	09:01:30	09:06:49	316786	5.0.10.0	4_exp_AWA_CON_EVA_AMP	6	Rpleas_acq	Same	Rpleas	Bmasked	CS_B	2pleas	distractor2	CONbeforeEVA	acq_new_unple_masked	acq2_masked	2	27	480	1	300	300	0	0	438	46	0	1	0	0	0	1	blank2r.bmp	0	1	+	0	5	C1r.bmp	492	1	blank2r.bmp	786	1	B1r.bmp	786	1	blank2r.bmp	866	6	faul	866	1	!	1319	1	!	1332	0	0	0	0	0	0	0	0	0	0	0	0	0	0	0	0	0	0	0	0	0	0	0	0	0	0	0
121218	09:01:30	09:06:51	319172	5.0.10.0	4_exp_AWA_CON_EVA_AMP	6	Rpleas_acq	Same	Rpleas	Bmasked	CS_B	2pleas	distractor2	CONbeforeEVA	acq_US_pleas_masked	acq2_masked	2	28	480	0	300	300	0	0	612	50	0	1	0	0	0	1	blank2r.bmp	0	1	+	0	1	B1r.bmp	492	1	blank2r.bmp	786	1	GKQX	786	1	blank2r.bmp	866	1	retten	866	1	!	1319	1	!	-1	0	0	0	0	0	0	0	0	0	0	0	0	0	0	0	0	0	0	0	0	0	0	0	0	0	0	0
121218	09:01:30	09:06:54	321504	5.0.10.0	4_exp_AWA_CON_EVA_AMP	6	Rpleas_acq	Same	Rpleas	Bmasked	CS_B	2pleas	distractor2	CONbeforeEVA	acq_new_pleas_masked	acq2_masked	2	29	480	1	300	300	0	0	521	50	0	1	0	0	0	1	blank2r.bmp	0	1	+	0	8	C4r.bmp	492	1	blank2r.bmp	786	7	C3r.bmp	786	1	blank2r.bmp	866	5	schön	866	1	!	1319	1	!	1426	0	0	0	0	0	0	0	0	0	0	0	0	0	0	0	0	0	0	0	0	0	0	0	0	0	0	0
121218	09:01:30	09:06:56	323876	5.0.10.0	4_exp_AWA_CON_EVA_AMP	6	Rpleas_acq	Same	Rpleas	Bmasked	CS_B	2pleas	distractor2	CONbeforeEVA	acq_new_unple_masked	acq2_masked	2	30	480	0	300	300	0	0	606	46	0	1	0	0	0	1	blank2r.bmp	0	1	+	0	2	B2r.bmp	492	1	blank2r.bmp	786	5	C1r.bmp	786	1	blank2r.bmp	866	4	schroff	866	1	!	1319	1	!	-1	0	0	0	0	0	0	0	0	0	0	0	0	0	0	0	0	0	0	0	0	0	0	0	0	0	0	0
121218	09:01:30	09:06:58	326195	5.0.10.0	4_exp_AWA_CON_EVA_AMP	6	Rpleas_acq	Same	Rpleas	Bmasked	CS_B	2pleas	distractor2	CONbeforeEVA	acq_US_pleas_masked	acq2_masked	2	31	480	1	300	300	0	0	516	50	0	1	0	0	0	1	blank2r.bmp	0	1	+	0	4	B4r.bmp	492	1	blank2r.bmp	786	1	GKQX	786	1	blank2r.bmp	866	5	treu	866	1	!	1319	1	!	1412	0	0	0	0	0	0	0	0	0	0	0	0	0	0	0	0	0	0	0	0	0	0	0	0	0	0	0
121218	09:01:30	09:07:01	328554	5.0.10.0	4_exp_AWA_CON_EVA_AMP	6	Rpleas_acq	Same	Rpleas	Bmasked	CS_B	2pleas	distractor2	CONbeforeEVA	acq_US_unple_masked	acq2_masked	2	32	480	0	300	300	0	0	585	46	0	1	0	0	0	1	blank2r.bmp	0	1	+	0	7	C3r.bmp	492	1	blank2r.bmp	786	1	BMVZ	786	1	blank2r.bmp	866	2	eitel	866	1	!	1319	1	!	-1	0	0	0	0	0	0	0	0	0	0	0	0	0	0	0	0	0	0	0	0	0	0	0	0	0	0	0
121218	09:01:30	09:07:03	330860	5.0.10.0	4_exp_AWA_CON_EVA_AMP	6	Rpleas_acq	Same	Rpleas	Bmasked	CS_B	2pleas	distractor2	CONbeforeEVA	acq_new_pleas_masked	acq2_masked	2	33	480	1	300	300	0	0	494	50	0	1	0	0	0	1	blank2r.bmp	0	1	+	0	1	B1r.bmp	492	1	blank2r.bmp	786	3	B3r.bmp	786	1	blank2r.bmp	866	3	lachen	866	1	!	1319	1	!	1399	0	0	0	0	0	0	0	0	0	0	0	0	0	0	0	0	0	0	0	0	0	0	0	0	0	0	0
121218	09:01:30	09:07:05	333086	5.0.10.0	4_exp_AWA_CON_EVA_AMP	6	Rpleas_acq	Same	Rpleas	Bmasked	CS_B	2pleas	distractor2	CONbeforeEVA	acq_US_unple_masked	acq2_masked	2	34	480	1	300	300	0	0	426	46	0	1	0	0	0	1	blank2r.bmp	0	1	+	0	3	B3r.bmp	492	1	blank2r.bmp	786	1	BMVZ	786	1	blank2r.bmp	866	4	tyrannisch	866	1	!	1319	1	!	1332	0	0	0	0	0	0	0	0	0	0	0	0	0	0	0	0	0	0	0	0	0	0	0	0	0	0	0
121218	09:01:30	09:07:08	335378	5.0.10.0	4_exp_AWA_CON_EVA_AMP	6	Rpleas_acq	Same	Rpleas	Bmasked	CS_B	2pleas	distractor2	CONbeforeEVA	acq_US_unple_masked	acq2_masked	2	35	480	1	300	300	0	0	485	46	0	1	0	0	0	1	blank2r.bmp	0	1	+	0	6	C2r.bmp	492	1	blank2r.bmp	786	1	BMVZ	786	1	blank2r.bmp	866	5	tot	866	1	!	1319	1	!	1386	0	0	0	0	0	0	0	0	0	0	0	0	0	0	0	0	0	0	0	0	0	0	0	0	0	0	0
121218	09:01:30	09:07:10	337711	5.0.10.0	4_exp_AWA_CON_EVA_AMP	6	Rpleas_acq	Same	Rpleas	Bmasked	CS_B	2pleas	distractor2	CONbeforeEVA	acq_US_pleas_masked	acq2_masked	2	36	480	1	300	300	0	0	530	50	0	1	0	0	0	1	blank2r.bmp	0	1	+	0	5	C1r.bmp	492	1	blank2r.bmp	786	1	GKQX	786	1	blank2r.bmp	866	2	ehrlich	866	1	!	1319	1	!	1426	0	0	0	0	0	0	0	0	0	0	0	0	0	0	0	0	0	0	0	0	0	0	0	0	0	0	0
121218	09:01:30	09:07:32	360115	5.0.10.0	4_exp_AWA_CON_EVA_AMP	6	Rpleas_acq	Same	Rpleas	Bmasked	CS_B	2pleas	distractor2	CONbeforeEVA	acq_US_unple_masked	acq3_masked	3	1	453	0	300	300	0	0	575	46	0	1	0	0	0	1	blank2r.bmp	0	1	+	0	6	C2r.bmp	492	1	blank2r.bmp	786	1	BMVZ	786	1	blank2r.bmp	866	6	fanatisch	866	1	!	1292	1	!	-1	0	0	0	0	0	0	0	0	0	0	0	0	0	0	0	0	0	0	0	0	0	0	0	0	0	0	0
121218	09:01:30	09:07:35	362540	5.0.10.0	4_exp_AWA_CON_EVA_AMP	6	Rpleas_acq	Same	Rpleas	Bmasked	CS_B	2pleas	distractor2	CONbeforeEVA	acq_US_unple_masked	acq3_masked	3	2	453	1	300	300	0	0	399	50	0	0	0	0	0	1	blank2r.bmp	0	1	+	0	1	B1r.bmp	492	1	blank2r.bmp	786	1	BMVZ	786	1	blank2r.bmp	866	2	eitel	866	1	FEHLER	1625	1	!	1292	1	!	1306	0	0	0	0	0	0	0	0	0	0	0	0	0	0	0	0	0	0	0	0	0	0	0	0
121218	09:01:30	09:07:37	364566	5.0.10.0	4_exp_AWA_CON_EVA_AMP	6	Rpleas_acq	Same	Rpleas	Bmasked	CS_B	2pleas	distractor2	CONbeforeEVA	acq_US_pleas_masked	acq3_masked	3	3	453	1	300	300	0	0	444	50	0	1	0	0	0	1	blank2r.bmp	0	1	+	0	8	C4r.bmp	492	1	blank2r.bmp	786	1	GKQX	786	1	blank2r.bmp	866	6	freundlich	866	1	!	1292	1	!	1346	0	0	0	0	0	0	0	0	0	0	0	0	0	0	0	0	0	0	0	0	0	0	0	0	0	0	0
121218	09:01:30	09:07:39	366898	5.0.10.0	4_exp_AWA_CON_EVA_AMP	6	Rpleas_acq	Same	Rpleas	Bmasked	CS_B	2pleas	distractor2	CONbeforeEVA	acq_US_pleas_masked	acq3_masked	3	4	453	0	300	300	0	0	550	50	0	1	0	0	0	1	blank2r.bmp	0	1	+	0	3	B3r.bmp	492	1	blank2r.bmp	786	1	GKQX	786	1	blank2r.bmp	866	5	treu	866	1	!	1292	1	!	-1	0	0	0	0	0	0	0	0	0	0	0	0	0	0	0	0	0	0	0	0	0	0	0	0	0	0	0
121218	09:01:30	09:07:41	369297	5.0.10.0	4_exp_AWA_CON_EVA_AMP	6	Rpleas_acq	Same	Rpleas	Bmasked	CS_B	2pleas	distractor2	CONbeforeEVA	acq_US_pleas_masked	acq3_masked	3	5	453	0	300	300	0	0	624	50	0	1	0	0	0	1	blank2r.bmp	0	1	+	0	7	C3r.bmp	492	1	blank2r.bmp	786	1	GKQX	786	1	blank2r.bmp	866	4	tolerant	866	1	!	1292	1	!	-1	0	0	0	0	0	0	0	0	0	0	0	0	0	0	0	0	0	0	0	0	0	0	0	0	0	0	0
121218	09:01:30	09:07:44	371616	5.0.10.0	4_exp_AWA_CON_EVA_AMP	6	Rpleas_acq	Same	Rpleas	Bmasked	CS_B	2pleas	distractor2	CONbeforeEVA	acq_US_pleas_masked	acq3_masked	3	6	453	0	300	300	0	0	536	50	0	1	0	0	0	1	blank2r.bmp	0	1	+	0	2	B2r.bmp	492	1	blank2r.bmp	786	1	GKQX	786	1	blank2r.bmp	866	3	loyal	866	1	!	1292	1	!	-1	0	0	0	0	0	0	0	0	0	0	0	0	0	0	0	0	0	0	0	0	0	0	0	0	0	0	0
121218	09:01:30	09:07:46	373842	5.0.10.0	4_exp_AWA_CON_EVA_AMP	6	Rpleas_acq	Same	Rpleas	Bmasked	CS_B	2pleas	distractor2	CONbeforeEVA	acq_US_pleas_masked	acq3_masked	3	7	453	1	300	300	0	0	412	50	0	1	0	0	0	1	blank2r.bmp	0	1	+	0	4	B4r.bmp	492	1	blank2r.bmp	786	1	GKQX	786	1	blank2r.bmp	866	2	ehrlich	866	1	!	1292	1	!	1319	0	0	0	0	0	0	0	0	0	0	0	0	0	0	0	0	0	0	0	0	0	0	0	0	0	0	0
121218	09:01:30	09:07:48	376081	5.0.10.0	4_exp_AWA_CON_EVA_AMP	6	Rpleas_acq	Same	Rpleas	Bmasked	CS_B	2pleas	distractor2	CONbeforeEVA	acq_US_pleas_masked	acq3_masked	3	8	453	1	300	300	0	0	448	50	0	1	0	0	0	1	blank2r.bmp	0	1	+	0	5	C1r.bmp	492	1	blank2r.bmp	786	1	GKQX	786	1	blank2r.bmp	866	1	retten	866	1	!	1292	1	!	1346	0	0	0	0	0	0	0	0	0	0	0	0	0	0	0	0	0	0	0	0	0	0	0	0	0	0	0
121218	09:01:30	09:07:50	378214	5.0.10.0	4_exp_AWA_CON_EVA_AMP	6	Rpleas_acq	Same	Rpleas	Bmasked	CS_B	2pleas	distractor2	CONbeforeEVA	acq_US_unple_masked	acq3_masked	3	9	453	0	300	300	0	0	366	46	0	1	0	0	0	1	blank2r.bmp	0	1	+	0	4	B4r.bmp	492	1	blank2r.bmp	786	1	BMVZ	786	1	blank2r.bmp	866	4	tyrannisch	866	1	!	-1	1	!	-1	0	0	0	0	0	0	0	0	0	0	0	0	0	0	0	0	0	0	0	0	0	0	0	0	0	0	0
121218	09:01:30	09:07:53	380812	5.0.10.0	4_exp_AWA_CON_EVA_AMP	6	Rpleas_acq	Same	Rpleas	Bmasked	CS_B	2pleas	distractor2	CONbeforeEVA	acq_US_unple_masked	acq3_masked	3	10	453	0	300	300	0	0	595	50	0	0	0	0	0	1	blank2r.bmp	0	1	+	0	8	C4r.bmp	492	1	blank2r.bmp	786	1	BMVZ	786	1	blank2r.bmp	866	1	rächen	866	1	FEHLER	1799	1	!	1292	1	!	-1	0	0	0	0	0	0	0	0	0	0	0	0	0	0	0	0	0	0	0	0	0	0	0	0
121218	09:01:30	09:07:55	382945	5.0.10.0	4_exp_AWA_CON_EVA_AMP	6	Rpleas_acq	Same	Rpleas	Bmasked	CS_B	2pleas	distractor2	CONbeforeEVA	acq_US_unple_masked	acq3_masked	3	11	453	0	300	300	0	0	574	46	0	1	0	0	0	1	blank2r.bmp	0	1	+	0	3	B3r.bmp	492	1	blank2r.bmp	786	1	BMVZ	786	1	blank2r.bmp	866	3	lasch	866	1	!	1292	1	!	-1	0	0	0	0	0	0	0	0	0	0	0	0	0	0	0	0	0	0	0	0	0	0	0	0	0	0	0
121218	09:01:30	09:07:57	385264	5.0.10.0	4_exp_AWA_CON_EVA_AMP	6	Rpleas_acq	Same	Rpleas	Bmasked	CS_B	2pleas	distractor2	CONbeforeEVA	acq_US_unple_masked	acq3_masked	3	12	453	1	300	300	0	0	497	46	0	1	0	0	0	1	blank2r.bmp	0	1	+	0	5	C1r.bmp	492	1	blank2r.bmp	786	1	BMVZ	786	1	blank2r.bmp	866	5	tot	866	1	!	1292	1	!	1399	0	0	0	0	0	0	0	0	0	0	0	0	0	0	0	0	0	0	0	0	0	0	0	0	0	0	0
121218	09:01:30	09:08:00	387516	5.0.10.0	4_exp_AWA_CON_EVA_AMP	6	Rpleas_acq	Same	Rpleas	Bmasked	CS_B	2pleas	distractor2	CONbeforeEVA	acq_US_pleas_masked	acq3_masked	3	13	453	1	300	300	0	0	463	50	0	1	0	0	0	1	blank2r.bmp	0	1	+	0	7	C3r.bmp	492	1	blank2r.bmp	786	1	GKQX	786	1	blank2r.bmp	866	3	loyal	866	1	!	1292	1	!	1359	0	0	0	0	0	0	0	0	0	0	0	0	0	0	0	0	0	0	0	0	0	0	0	0	0	0	0
121218	09:01:30	09:08:02	389982	5.0.10.0	4_exp_AWA_CON_EVA_AMP	6	Rpleas_acq	Same	Rpleas	Bmasked	CS_B	2pleas	distractor2	CONbeforeEVA	acq_US_unple_masked	acq3_masked	3	14	453	1	300	300	0	0	460	50	0	0	0	0	0	1	blank2r.bmp	0	1	+	0	1	B1r.bmp	492	1	blank2r.bmp	786	1	BMVZ	786	1	blank2r.bmp	866	2	eitel	866	1	FEHLER	1679	1	!	1292	1	!	1359	0	0	0	0	0	0	0	0	0	0	0	0	0	0	0	0	0	0	0	0	0	0	0	0
121218	09:01:30	09:08:04	392114	5.0.10.0	4_exp_AWA_CON_EVA_AMP	6	Rpleas_acq	Same	Rpleas	Bmasked	CS_B	2pleas	distractor2	CONbeforeEVA	acq_US_pleas_masked	acq3_masked	3	15	453	0	300	300	0	0	583	50	0	1	0	0	0	1	blank2r.bmp	0	1	+	0	6	C2r.bmp	492	1	blank2r.bmp	786	1	GKQX	786	1	blank2r.bmp	866	5	treu	866	1	!	1292	1	!	-1	0	0	0	0	0	0	0	0	0	0	0	0	0	0	0	0	0	0	0	0	0	0	0	0	0	0	0
121218	09:01:30	09:08:07	394433	5.0.10.0	4_exp_AWA_CON_EVA_AMP	6	Rpleas_acq	Same	Rpleas	Bmasked	CS_B	2pleas	distractor2	CONbeforeEVA	acq_US_pleas_masked	acq3_masked	3	16	453	1	300	300	0	0	519	50	0	1	0	0	0	1	blank2r.bmp	0	1	+	0	2	B2r.bmp	492	1	blank2r.bmp	786	1	GKQX	786	1	blank2r.bmp	866	2	ehrlich	866	1	!	1292	1	!	1413	0	0	0	0	0	0	0	0	0	0	0	0	0	0	0	0	0	0	0	0	0	0	0	0	0	0	0
121218	09:01:30	09:08:11	399072	5.0.10.0	4_exp_AWA_CON_EVA_AMP	6	Rpleas_acq	Same	Rpleas	Bmasked	CS_B	2pleas	distractor2	CONbeforeEVA	acq_US_pleas_masked	acq3_masked	3	17	453	0	300	300	0	0	2867	50	0	1	0	0	0	1	blank2r.bmp	0	1	+	0	2	B2r.bmp	492	1	blank2r.bmp	786	1	GKQX	786	1	blank2r.bmp	866	4	tolerant	866	1	!	1292	1	!	-1	0	0	0	0	0	0	0	0	0	0	0	0	0	0	0	0	0	0	0	0	0	0	0	0	0	0	0
121218	09:01:30	09:08:14	401364	5.0.10.0	4_exp_AWA_CON_EVA_AMP	6	Rpleas_acq	Same	Rpleas	Bmasked	CS_B	2pleas	distractor2	CONbeforeEVA	acq_US_pleas_masked	acq3_masked	3	18	453	1	300	300	0	0	479	50	0	1	0	0	0	1	blank2r.bmp	0	1	+	0	6	C2r.bmp	492	1	blank2r.bmp	786	1	GKQX	786	1	blank2r.bmp	866	1	retten	866	1	!	1292	1	!	1386	0	0	0	0	0	0	0	0	0	0	0	0	0	0	0	0	0	0	0	0	0	0	0	0	0	0	0
121218	09:01:30	09:08:16	403616	5.0.10.0	4_exp_AWA_CON_EVA_AMP	6	Rpleas_acq	Same	Rpleas	Bmasked	CS_B	2pleas	distractor2	CONbeforeEVA	acq_US_unple_masked	acq3_masked	3	19	453	1	300	300	0	0	464	46	0	1	0	0	0	1	blank2r.bmp	0	1	+	0	7	C3r.bmp	492	1	blank2r.bmp	786	1	BMVZ	786	1	blank2r.bmp	866	6	fanatisch	866	1	!	1292	1	!	1359	0	0	0	0	0	0	0	0	0	0	0	0	0	0	0	0	0	0	0	0	0	0	0	0	0	0	0
121218	09:01:30	09:08:18	405869	5.0.10.0	4_exp_AWA_CON_EVA_AMP	6	Rpleas_acq	Same	Rpleas	Bmasked	CS_B	2pleas	distractor2	CONbeforeEVA	acq_US_unple_masked	acq3_masked	3	20	453	1	300	300	0	0	457	46	0	1	0	0	0	1	blank2r.bmp	0	1	+	0	8	C4r.bmp	492	1	blank2r.bmp	786	1	BMVZ	786	1	blank2r.bmp	866	1	rächen	866	1	!	1292	1	!	1359	0	0	0	0	0	0	0	0	0	0	0	0	0	0	0	0	0	0	0	0	0	0	0	0	0	0	0
121218	09:01:30	09:08:20	408214	5.0.10.0	4_exp_AWA_CON_EVA_AMP	6	Rpleas_acq	Same	Rpleas	Bmasked	CS_B	2pleas	distractor2	CONbeforeEVA	acq_US_unple_masked	acq3_masked	3	21	453	0	300	300	0	0	348	50	0	0	0	0	0	1	blank2r.bmp	0	1	+	0	3	B3r.bmp	492	1	blank2r.bmp	786	1	BMVZ	786	1	blank2r.bmp	866	4	tyrannisch	866	1	FEHLER	1559	1	!	-1	1	!	-1	0	0	0	0	0	0	0	0	0	0	0	0	0	0	0	0	0	0	0	0	0	0	0	0
121218	09:01:30	09:08:22	410213	5.0.10.0	4_exp_AWA_CON_EVA_AMP	6	Rpleas_acq	Same	Rpleas	Bmasked	CS_B	2pleas	distractor2	CONbeforeEVA	acq_US_unple_masked	acq3_masked	3	22	453	1	300	300	0	0	421	46	0	1	0	0	0	1	blank2r.bmp	0	1	+	0	5	C1r.bmp	492	1	blank2r.bmp	786	1	BMVZ	786	1	blank2r.bmp	866	5	tot	866	1	!	1292	1	!	1319	0	0	0	0	0	0	0	0	0	0	0	0	0	0	0	0	0	0	0	0	0	0	0	0	0	0	0
121218	09:01:30	09:08:25	412413	5.0.10.0	4_exp_AWA_CON_EVA_AMP	6	Rpleas_acq	Same	Rpleas	Bmasked	CS_B	2pleas	distractor2	CONbeforeEVA	acq_US_pleas_masked	acq3_masked	3	23	453	1	300	300	0	0	401	50	0	1	0	0	0	1	blank2r.bmp	0	1	+	0	4	B4r.bmp	492	1	blank2r.bmp	786	1	GKQX	786	1	blank2r.bmp	866	6	freundlich	866	1	!	1292	1	!	1306	0	0	0	0	0	0	0	0	0	0	0	0	0	0	0	0	0	0	0	0	0	0	0	0	0	0	0
121218	09:01:30	09:08:27	414652	5.0.10.0	4_exp_AWA_CON_EVA_AMP	6	Rpleas_acq	Same	Rpleas	Bmasked	CS_B	2pleas	distractor2	CONbeforeEVA	acq_US_unple_masked	acq3_masked	3	24	453	1	300	300	0	0	432	46	0	1	0	0	0	1	blank2r.bmp	0	1	+	0	1	B1r.bmp	492	1	blank2r.bmp	786	1	BMVZ	786	1	blank2r.bmp	866	3	lasch	866	1	!	1292	1	!	1332	0	0	0	0	0	0	0	0	0	0	0	0	0	0	0	0	0	0	0	0	0	0	0	0	0	0	0
121218	09:01:30	09:08:29	416944	5.0.10.0	4_exp_AWA_CON_EVA_AMP	6	Rpleas_acq	Same	Rpleas	Bmasked	CS_B	2pleas	distractor2	CONbeforeEVA	acq_US_pleas_masked	acq3_masked	3	25	453	1	300	300	0	0	494	50	0	1	0	0	0	1	blank2r.bmp	0	1	+	0	1	B1r.bmp	492	1	blank2r.bmp	786	1	GKQX	786	1	blank2r.bmp	866	5	treu	866	1	!	1292	1	!	1399	0	0	0	0	0	0	0	0	0	0	0	0	0	0	0	0	0	0	0	0	0	0	0	0	0	0	0
121218	09:01:30	09:08:31	419223	5.0.10.0	4_exp_AWA_CON_EVA_AMP	6	Rpleas_acq	Same	Rpleas	Bmasked	CS_B	2pleas	distractor2	CONbeforeEVA	acq_US_unple_masked	acq3_masked	3	26	453	1	300	300	0	0	488	46	0	1	0	0	0	1	blank2r.bmp	0	1	+	0	7	C3r.bmp	492	1	blank2r.bmp	786	1	BMVZ	786	1	blank2r.bmp	866	6	fanatisch	866	1	!	1292	1	!	1386	0	0	0	0	0	0	0	0	0	0	0	0	0	0	0	0	0	0	0	0	0	0	0	0	0	0	0
121218	09:01:30	09:08:34	421515	5.0.10.0	4_exp_AWA_CON_EVA_AMP	6	Rpleas_acq	Same	Rpleas	Bmasked	CS_B	2pleas	distractor2	CONbeforeEVA	acq_US_unple_masked	acq3_masked	3	27	453	0	300	300	0	0	311	50	0	0	0	0	0	1	blank2r.bmp	0	1	+	0	6	C2r.bmp	492	1	blank2r.bmp	786	1	BMVZ	786	1	blank2r.bmp	866	5	tot	866	1	FEHLER	1519	1	!	-1	1	!	-1	0	0	0	0	0	0	0	0	0	0	0	0	0	0	0	0	0	0	0	0	0	0	0	0
121218	09:01:30	09:08:36	423421	5.0.10.0	4_exp_AWA_CON_EVA_AMP	6	Rpleas_acq	Same	Rpleas	Bmasked	CS_B	2pleas	distractor2	CONbeforeEVA	acq_US_pleas_masked	acq3_masked	3	28	453	0	300	300	0	0	344	50	0	1	0	0	0	1	blank2r.bmp	0	1	+	0	2	B2r.bmp	492	1	blank2r.bmp	786	1	GKQX	786	1	blank2r.bmp	866	2	ehrlich	866	1	!	-1	1	!	-1	0	0	0	0	0	0	0	0	0	0	0	0	0	0	0	0	0	0	0	0	0	0	0	0	0	0	0
121218	09:01:30	09:08:38	425820	5.0.10.0	4_exp_AWA_CON_EVA_AMP	6	Rpleas_acq	Same	Rpleas	Bmasked	CS_B	2pleas	distractor2	CONbeforeEVA	acq_US_unple_masked	acq3_masked	3	29	453	0	300	300	0	0	623	46	0	1	0	0	0	1	blank2r.bmp	0	1	+	0	4	B4r.bmp	492	1	blank2r.bmp	786	1	BMVZ	786	1	blank2r.bmp	866	2	eitel	866	1	!	1292	1	!	-1	0	0	0	0	0	0	0	0	0	0	0	0	0	0	0	0	0	0	0	0	0	0	0	0	0	0	0
121218	09:01:30	09:08:40	428113	5.0.10.0	4_exp_AWA_CON_EVA_AMP	6	Rpleas_acq	Same	Rpleas	Bmasked	CS_B	2pleas	distractor2	CONbeforeEVA	acq_US_pleas_masked	acq3_masked	3	30	453	1	300	300	0	0	482	50	0	1	0	0	0	1	blank2r.bmp	0	1	+	0	3	B3r.bmp	492	1	blank2r.bmp	786	1	GKQX	786	1	blank2r.bmp	866	3	loyal	866	1	!	1292	1	!	1386	0	0	0	0	0	0	0	0	0	0	0	0	0	0	0	0	0	0	0	0	0	0	0	0	0	0	0
121218	09:01:30	09:08:43	430392	5.0.10.0	4_exp_AWA_CON_EVA_AMP	6	Rpleas_acq	Same	Rpleas	Bmasked	CS_B	2pleas	distractor2	CONbeforeEVA	acq_US_unple_masked	acq3_masked	3	31	453	1	300	300	0	0	491	46	0	1	0	0	0	1	blank2r.bmp	0	1	+	0	5	C1r.bmp	492	1	blank2r.bmp	786	1	BMVZ	786	1	blank2r.bmp	866	4	tyrannisch	866	1	!	1292	1	!	1386	0	0	0	0	0	0	0	0	0	0	0	0	0	0	0	0	0	0	0	0	0	0	0	0	0	0	0
121218	09:01:30	09:08:45	432831	5.0.10.0	4_exp_AWA_CON_EVA_AMP	6	Rpleas_acq	Same	Rpleas	Bmasked	CS_B	2pleas	distractor2	CONbeforeEVA	acq_US_unple_masked	acq3_masked	3	32	453	1	300	300	0	0	430	50	0	0	0	0	0	1	blank2r.bmp	0	1	+	0	8	C4r.bmp	492	1	blank2r.bmp	786	1	BMVZ	786	1	blank2r.bmp	866	3	lasch	866	1	FEHLER	1652	1	!	1292	1	!	1332	0	0	0	0	0	0	0	0	0	0	0	0	0	0	0	0	0	0	0	0	0	0	0	0
121218	09:01:30	09:08:47	434923	5.0.10.0	4_exp_AWA_CON_EVA_AMP	6	Rpleas_acq	Same	Rpleas	Bmasked	CS_B	2pleas	distractor2	CONbeforeEVA	acq_US_pleas_masked	acq3_masked	3	33	453	1	300	300	0	0	506	50	0	1	0	0	0	1	blank2r.bmp	0	1	+	0	4	B4r.bmp	492	1	blank2r.bmp	786	1	GKQX	786	1	blank2r.bmp	866	4	tolerant	866	1	!	1292	1	!	1412	0	0	0	0	0	0	0	0	0	0	0	0	0	0	0	0	0	0	0	0	0	0	0	0	0	0	0
121218	09:01:30	09:08:49	437229	5.0.10.0	4_exp_AWA_CON_EVA_AMP	6	Rpleas_acq	Same	Rpleas	Bmasked	CS_B	2pleas	distractor2	CONbeforeEVA	acq_US_unple_masked	acq3_masked	3	34	453	1	300	300	0	0	494	46	0	1	0	0	0	1	blank2r.bmp	0	1	+	0	2	B2r.bmp	492	1	blank2r.bmp	786	1	BMVZ	786	1	blank2r.bmp	866	1	rächen	866	1	!	1292	1	!	1399	0	0	0	0	0	0	0	0	0	0	0	0	0	0	0	0	0	0	0	0	0	0	0	0	0	0	0
121218	09:01:30	09:08:52	439468	5.0.10.0	4_exp_AWA_CON_EVA_AMP	6	Rpleas_acq	Same	Rpleas	Bmasked	CS_B	2pleas	distractor2	CONbeforeEVA	acq_US_pleas_masked	acq3_masked	3	35	453	1	300	300	0	0	439	50	0	1	0	0	0	1	blank2r.bmp	0	1	+	0	8	C4r.bmp	492	1	blank2r.bmp	786	1	GKQX	786	1	blank2r.bmp	866	1	retten	866	1	!	1292	1	!	1346	0	0	0	0	0	0	0	0	0	0	0	0	0	0	0	0	0	0	0	0	0	0	0	0	0	0	0
121218	09:01:30	09:08:54	441787	5.0.10.0	4_exp_AWA_CON_EVA_AMP	6	Rpleas_acq	Same	Rpleas	Bmasked	CS_B	2pleas	distractor2	CONbeforeEVA	acq_US_pleas_masked	acq3_masked	3	36	453	1	300	300	0	0	520	50	0	1	0	0	0	1	blank2r.bmp	0	1	+	0	6	C2r.bmp	492	1	blank2r.bmp	786	1	GKQX	786	1	blank2r.bmp	866	6	freundlich	866	1	!	1292	1	!	1426	0	0	0	0	0	0	0	0	0	0	0	0	0	0	0	0	0	0	0	0	0	0	0	0	0	0	0
121218	09:01:30	09:09:10	457833	5.0.10.0	4_exp_AWA_CON_EVA_AMP	6	Rpleas_acq	Same	Rpleas	Bmasked	CS_B	2pleas	distractor2	CONbeforeEVA	acq_US_pleas_masked	acq45_masked	4	1	400	1	300	300	0	0	445	50	0	1	0	0	0	1	blank2r.bmp	0	1	+	0	5	C1r.bmp	492	1	blank2r.bmp	786	1	GKQX	786	1	blank2r.bmp	866	3	loyal	866	1	!	1239	1	!	1346	0	0	0	0	0	0	0	0	0	0	0	0	0	0	0	0	0	0	0	0	0	0	0	0	0	0	0
121218	09:01:30	09:09:12	460059	5.0.10.0	4_exp_AWA_CON_EVA_AMP	6	Rpleas_acq	Same	Rpleas	Bmasked	CS_B	2pleas	distractor2	CONbeforeEVA	acq_US_unple_masked	acq45_masked	4	2	400	1	300	300	0	0	437	46	0	1	0	0	0	1	blank2r.bmp	0	1	+	0	3	B3r.bmp	492	1	blank2r.bmp	786	1	BMVZ	786	1	blank2r.bmp	866	1	rächen	866	1	!	1239	1	!	1332	0	0	0	0	0	0	0	0	0	0	0	0	0	0	0	0	0	0	0	0	0	0	0	0	0	0	0
121218	09:01:30	09:09:15	462325	5.0.10.0	4_exp_AWA_CON_EVA_AMP	6	Rpleas_acq	Same	Rpleas	Bmasked	CS_B	2pleas	distractor2	CONbeforeEVA	acq_US_unple_masked	acq45_masked	4	3	400	0	300	300	0	0	499	50	0	0	0	0	0	1	blank2r.bmp	0	1	+	0	7	C3r.bmp	492	1	blank2r.bmp	786	1	BMVZ	786	1	blank2r.bmp	866	2	eitel	866	1	!	1239	1	!	-1	0	0	0	0	0	0	0	0	0	0	0	0	0	0	0	0	0	0	0	0	0	0	0	0	0	0	0
121218	09:01:30	09:09:17	464591	5.0.10.0	4_exp_AWA_CON_EVA_AMP	6	Rpleas_acq	Same	Rpleas	Bmasked	CS_B	2pleas	distractor2	CONbeforeEVA	acq_US_pleas_masked	acq45_masked	4	4	400	0	300	300	0	0	479	46	0	0	0	0	0	1	blank2r.bmp	0	1	+	0	1	B1r.bmp	492	1	blank2r.bmp	786	1	GKQX	786	1	blank2r.bmp	866	4	tolerant	866	1	!	1239	1	!	-1	0	0	0	0	0	0	0	0	0	0	0	0	0	0	0	0	0	0	0	0	0	0	0	0	0	0	0
121218	09:01:30	09:09:19	466883	5.0.10.0	4_exp_AWA_CON_EVA_AMP	6	Rpleas_acq	Same	Rpleas	Bmasked	CS_B	2pleas	distractor2	CONbeforeEVA	acq_US_pleas_masked	acq45_masked	4	5	400	0	300	300	0	0	510	50	0	1	0	0	0	1	blank2r.bmp	0	1	+	0	5	C1r.bmp	492	1	blank2r.bmp	786	1	GKQX	786	1	blank2r.bmp	866	5	treu	866	1	!	1239	1	!	-1	0	0	0	0	0	0	0	0	0	0	0	0	0	0	0	0	0	0	0	0	0	0	0	0	0	0	0
121218	09:01:30	09:09:21	469109	5.0.10.0	4_exp_AWA_CON_EVA_AMP	6	Rpleas_acq	Same	Rpleas	Bmasked	CS_B	2pleas	distractor2	CONbeforeEVA	acq_US_pleas_masked	acq45_masked	4	6	400	1	300	300	0	0	420	50	0	1	0	0	0	1	blank2r.bmp	0	1	+	0	7	C3r.bmp	492	1	blank2r.bmp	786	1	GKQX	786	1	blank2r.bmp	866	2	ehrlich	866	1	!	1239	1	!	1319	0	0	0	0	0	0	0	0	0	0	0	0	0	0	0	0	0	0	0	0	0	0	0	0	0	0	0
121218	09:01:30	09:09:24	471334	5.0.10.0	4_exp_AWA_CON_EVA_AMP	6	Rpleas_acq	Same	Rpleas	Bmasked	CS_B	2pleas	distractor2	CONbeforeEVA	acq_US_unple_masked	acq45_masked	4	7	400	1	300	300	0	0	430	46	0	1	0	0	0	1	blank2r.bmp	0	1	+	0	2	B2r.bmp	492	1	blank2r.bmp	786	1	BMVZ	786	1	blank2r.bmp	866	3	lasch	866	1	!	1239	1	!	1332	0	0	0	0	0	0	0	0	0	0	0	0	0	0	0	0	0	0	0	0	0	0	0	0	0	0	0
121218	09:01:30	09:09:26	473560	5.0.10.0	4_exp_AWA_CON_EVA_AMP	6	Rpleas_acq	Same	Rpleas	Bmasked	CS_B	2pleas	distractor2	CONbeforeEVA	acq_US_unple_masked	acq45_masked	4	8	400	1	300	300	0	0	433	46	0	1	0	0	0	1	blank2r.bmp	0	1	+	0	6	C2r.bmp	492	1	blank2r.bmp	786	1	BMVZ	786	1	blank2r.bmp	866	4	tyrannisch	866	1	!	1239	1	!	1332	0	0	0	0	0	0	0	0	0	0	0	0	0	0	0	0	0	0	0	0	0	0	0	0	0	0	0
121218	09:01:30	09:09:28	475759	5.0.10.0	4_exp_AWA_CON_EVA_AMP	6	Rpleas_acq	Same	Rpleas	Bmasked	CS_B	2pleas	distractor2	CONbeforeEVA	acq_US_unple_masked	acq45_masked	4	9	400	1	300	300	0	0	403	46	0	1	0	0	0	1	blank2r.bmp	0	1	+	0	1	B1r.bmp	492	1	blank2r.bmp	786	1	BMVZ	786	1	blank2r.bmp	866	5	tot	866	1	!	1239	1	!	1306	0	0	0	0	0	0	0	0	0	0	0	0	0	0	0	0	0	0	0	0	0	0	0	0	0	0	0
121218	09:01:30	09:09:30	477985	5.0.10.0	4_exp_AWA_CON_EVA_AMP	6	Rpleas_acq	Same	Rpleas	Bmasked	CS_B	2pleas	distractor2	CONbeforeEVA	acq_US_unple_masked	acq45_masked	4	10	400	1	300	300	0	0	434	50	0	0	0	0	0	1	blank2r.bmp	0	1	+	0	8	C4r.bmp	492	1	blank2r.bmp	786	1	BMVZ	786	1	blank2r.bmp	866	6	fanatisch	866	1	!	1239	1	!	1332	0	0	0	0	0	0	0	0	0	0	0	0	0	0	0	0	0	0	0	0	0	0	0	0	0	0	0
121218	09:01:30	09:09:32	480197	5.0.10.0	4_exp_AWA_CON_EVA_AMP	6	Rpleas_acq	Same	Rpleas	Bmasked	CS_B	2pleas	distractor2	CONbeforeEVA	acq_US_pleas_masked	acq45_masked	4	11	400	1	300	300	0	0	414	50	0	1	0	0	0	1	blank2r.bmp	0	1	+	0	4	B4r.bmp	492	1	blank2r.bmp	786	1	GKQX	786	1	blank2r.bmp	866	6	freundlich	866	1	!	1239	1	!	1319	0	0	0	0	0	0	0	0	0	0	0	0	0	0	0	0	0	0	0	0	0	0	0	0	0	0	0
121218	09:01:30	09:09:35	482423	5.0.10.0	4_exp_AWA_CON_EVA_AMP	6	Rpleas_acq	Same	Rpleas	Bmasked	CS_B	2pleas	distractor2	CONbeforeEVA	acq_US_pleas_masked	acq45_masked	4	12	400	1	300	300	0	0	435	50	0	1	0	0	0	1	blank2r.bmp	0	1	+	0	3	B3r.bmp	492	1	blank2r.bmp	786	1	GKQX	786	1	blank2r.bmp	866	1	retten	866	1	!	1239	1	!	1332	0	0	0	0	0	0	0	0	0	0	0	0	0	0	0	0	0	0	0	0	0	0	0	0	0	0	0
121218	09:01:30	09:09:38	485622	5.0.10.0	4_exp_AWA_CON_EVA_AMP	6	Rpleas_acq	Same	Rpleas	Bmasked	CS_B	2pleas	distractor2	CONbeforeEVA	acq_US_unple_masked	acq45_masked	4	13	400	0	300	300	0	0	1419	46	0	1	0	0	0	1	blank2r.bmp	0	1	+	0	3	B3r.bmp	492	1	blank2r.bmp	786	1	BMVZ	786	1	blank2r.bmp	866	2	eitel	866	1	!	1239	1	!	-1	0	0	0	0	0	0	0	0	0	0	0	0	0	0	0	0	0	0	0	0	0	0	0	0	0	0	0
121218	09:01:30	09:09:40	487821	5.0.10.0	4_exp_AWA_CON_EVA_AMP	6	Rpleas_acq	Same	Rpleas	Bmasked	CS_B	2pleas	distractor2	CONbeforeEVA	acq_US_pleas_masked	acq45_masked	4	14	400	1	300	300	0	0	393	46	0	0	0	0	0	1	blank2r.bmp	0	1	+	0	1	B1r.bmp	492	1	blank2r.bmp	786	1	GKQX	786	1	blank2r.bmp	866	1	retten	866	1	!	1239	1	!	1292	0	0	0	0	0	0	0	0	0	0	0	0	0	0	0	0	0	0	0	0	0	0	0	0	0	0	0
121218	09:01:30	09:09:42	489980	5.0.10.0	4_exp_AWA_CON_EVA_AMP	6	Rpleas_acq	Same	Rpleas	Bmasked	CS_B	2pleas	distractor2	CONbeforeEVA	acq_US_pleas_masked	acq45_masked	4	15	400	1	300	300	0	0	350	50	0	1	0	0	0	1	blank2r.bmp	0	1	+	0	2	B2r.bmp	492	1	blank2r.bmp	786	1	GKQX	786	1	blank2r.bmp	866	6	freundlich	866	1	!	1239	1	!	1252	0	0	0	0	0	0	0	0	0	0	0	0	0	0	0	0	0	0	0	0	0	0	0	0	0	0	0
121218	09:01:30	09:09:44	492219	5.0.10.0	4_exp_AWA_CON_EVA_AMP	6	Rpleas_acq	Same	Rpleas	Bmasked	CS_B	2pleas	distractor2	CONbeforeEVA	acq_US_pleas_masked	acq45_masked	4	16	400	1	300	300	0	0	447	50	0	1	0	0	0	1	blank2r.bmp	0	1	+	0	4	B4r.bmp	492	1	blank2r.bmp	786	1	GKQX	786	1	blank2r.bmp	866	5	treu	866	1	!	1239	1	!	1346	0	0	0	0	0	0	0	0	0	0	0	0	0	0	0	0	0	0	0	0	0	0	0	0	0	0	0
121218	09:01:30	09:09:47	494485	5.0.10.0	4_exp_AWA_CON_EVA_AMP	6	Rpleas_acq	Same	Rpleas	Bmasked	CS_B	2pleas	distractor2	CONbeforeEVA	acq_US_unple_masked	acq45_masked	4	17	400	0	300	300	0	0	479	46	0	1	0	0	0	1	blank2r.bmp	0	1	+	0	8	C4r.bmp	492	1	blank2r.bmp	786	1	BMVZ	786	1	blank2r.bmp	866	6	fanatisch	866	1	!	1239	1	!	-1	0	0	0	0	0	0	0	0	0	0	0	0	0	0	0	0	0	0	0	0	0	0	0	0	0	0	0
121218	09:01:30	09:09:49	496764	5.0.10.0	4_exp_AWA_CON_EVA_AMP	6	Rpleas_acq	Same	Rpleas	Bmasked	CS_B	2pleas	distractor2	CONbeforeEVA	acq_US_unple_masked	acq45_masked	4	18	400	1	300	300	0	0	463	46	0	1	0	0	0	1	blank2r.bmp	0	1	+	0	6	C2r.bmp	492	1	blank2r.bmp	786	1	BMVZ	786	1	blank2r.bmp	866	1	rächen	866	1	!	1239	1	!	1359	0	0	0	0	0	0	0	0	0	0	0	0	0	0	0	0	0	0	0	0	0	0	0	0	0	0	0
121218	09:01:30	09:09:51	499003	5.0.10.0	4_exp_AWA_CON_EVA_AMP	6	Rpleas_acq	Same	Rpleas	Bmasked	CS_B	2pleas	distractor2	CONbeforeEVA	acq_US_unple_masked	acq45_masked	4	19	400	1	300	300	0	0	445	46	0	1	0	0	0	1	blank2r.bmp	0	1	+	0	7	C3r.bmp	492	1	blank2r.bmp	786	1	BMVZ	786	1	blank2r.bmp	866	3	lasch	866	1	!	1239	1	!	1346	0	0	0	0	0	0	0	0	0	0	0	0	0	0	0	0	0	0	0	0	0	0	0	0	0	0	0
121218	09:01:30	09:09:53	501255	5.0.10.0	4_exp_AWA_CON_EVA_AMP	6	Rpleas_acq	Same	Rpleas	Bmasked	CS_B	2pleas	distractor2	CONbeforeEVA	acq_US_pleas_masked	acq45_masked	4	20	400	0	300	300	0	0	479	50	0	1	0	0	0	1	blank2r.bmp	0	1	+	0	5	C1r.bmp	492	1	blank2r.bmp	786	1	GKQX	786	1	blank2r.bmp	866	4	tolerant	866	1	!	1239	1	!	-1	0	0	0	0	0	0	0	0	0	0	0	0	0	0	0	0	0	0	0	0	0	0	0	0	0	0	0
121218	09:01:30	09:09:56	503708	5.0.10.0	4_exp_AWA_CON_EVA_AMP	6	Rpleas_acq	Same	Rpleas	Bmasked	CS_B	2pleas	distractor2	CONbeforeEVA	acq_US_unple_masked	acq45_masked	4	21	400	0	300	300	0	0	656	46	0	1	0	0	0	1	blank2r.bmp	0	1	+	0	3	B3r.bmp	492	1	blank2r.bmp	786	1	BMVZ	786	1	blank2r.bmp	866	4	tyrannisch	866	1	!	1239	1	!	-1	0	0	0	0	0	0	0	0	0	0	0	0	0	0	0	0	0	0	0	0	0	0	0	0	0	0	0
121218	09:01:30	09:09:58	505947	5.0.10.0	4_exp_AWA_CON_EVA_AMP	6	Rpleas_acq	Same	Rpleas	Bmasked	CS_B	2pleas	distractor2	CONbeforeEVA	acq_US_unple_masked	acq45_masked	4	22	400	1	300	300	0	0	426	46	0	1	0	0	0	1	blank2r.bmp	0	1	+	0	5	C1r.bmp	492	1	blank2r.bmp	786	1	BMVZ	786	1	blank2r.bmp	866	5	tot	866	1	!	1239	1	!	1332	0	0	0	0	0	0	0	0	0	0	0	0	0	0	0	0	0	0	0	0	0	0	0	0	0	0	0
121218	09:01:30	09:10:00	508199	5.0.10.0	4_exp_AWA_CON_EVA_AMP	6	Rpleas_acq	Same	Rpleas	Bmasked	CS_B	2pleas	distractor2	CONbeforeEVA	acq_US_pleas_masked	acq45_masked	4	23	400	1	300	300	0	0	459	50	0	1	0	0	0	1	blank2r.bmp	0	1	+	0	1	B1r.bmp	492	1	blank2r.bmp	786	1	GKQX	786	1	blank2r.bmp	866	2	ehrlich	866	1	!	1239	1	!	1359	0	0	0	0	0	0	0	0	0	0	0	0	0	0	0	0	0	0	0	0	0	0	0	0	0	0	0
121218	09:01:30	09:10:03	510398	5.0.10.0	4_exp_AWA_CON_EVA_AMP	6	Rpleas_acq	Same	Rpleas	Bmasked	CS_B	2pleas	distractor2	CONbeforeEVA	acq_US_pleas_masked	acq45_masked	4	24	400	1	300	300	0	0	403	50	0	1	0	0	0	1	blank2r.bmp	0	1	+	0	6	C2r.bmp	492	1	blank2r.bmp	786	1	GKQX	786	1	blank2r.bmp	866	3	loyal	866	1	!	1239	1	!	1306	0	0	0	0	0	0	0	0	0	0	0	0	0	0	0	0	0	0	0	0	0	0	0	0	0	0	0
121218	09:01:30	09:10:05	512650	5.0.10.0	4_exp_AWA_CON_EVA_AMP	6	Rpleas_acq	Same	Rpleas	Bmasked	CS_B	2pleas	distractor2	CONbeforeEVA	acq_US_pleas_masked	acq45_masked	4	25	400	1	300	300	0	0	452	50	0	1	0	0	0	1	blank2r.bmp	0	1	+	0	8	C4r.bmp	492	1	blank2r.bmp	786	1	GKQX	786	1	blank2r.bmp	866	1	retten	866	1	!	1239	1	!	1359	0	0	0	0	0	0	0	0	0	0	0	0	0	0	0	0	0	0	0	0	0	0	0	0	0	0	0
121218	09:01:30	09:10:07	514850	5.0.10.0	4_exp_AWA_CON_EVA_AMP	6	Rpleas_acq	Same	Rpleas	Bmasked	CS_B	2pleas	distractor2	CONbeforeEVA	acq_US_pleas_masked	acq45_masked	4	26	400	1	300	300	0	0	403	50	0	1	0	0	0	1	blank2r.bmp	0	1	+	0	4	B4r.bmp	492	1	blank2r.bmp	786	1	GKQX	786	1	blank2r.bmp	866	2	ehrlich	866	1	!	1239	1	!	1306	0	0	0	0	0	0	0	0	0	0	0	0	0	0	0	0	0	0	0	0	0	0	0	0	0	0	0
121218	09:01:30	09:10:09	517089	5.0.10.0	4_exp_AWA_CON_EVA_AMP	6	Rpleas_acq	Same	Rpleas	Bmasked	CS_B	2pleas	distractor2	CONbeforeEVA	acq_US_unple_masked	acq45_masked	4	27	400	1	300	300	0	0	445	46	0	1	0	0	0	1	blank2r.bmp	0	1	+	0	7	C3r.bmp	492	1	blank2r.bmp	786	1	BMVZ	786	1	blank2r.bmp	866	4	tyrannisch	866	1	!	1239	1	!	1346	0	0	0	0	0	0	0	0	0	0	0	0	0	0	0	0	0	0	0	0	0	0	0	0	0	0	0
121218	09:01:30	09:10:12	519301	5.0.10.0	4_exp_AWA_CON_EVA_AMP	6	Rpleas_acq	Same	Rpleas	Bmasked	CS_B	2pleas	distractor2	CONbeforeEVA	acq_US_pleas_masked	acq45_masked	4	28	400	1	300	300	0	0	418	46	0	0	0	0	0	1	blank2r.bmp	0	1	+	0	2	B2r.bmp	492	1	blank2r.bmp	786	1	GKQX	786	1	blank2r.bmp	866	3	loyal	866	1	!	1239	1	!	1319	0	0	0	0	0	0	0	0	0	0	0	0	0	0	0	0	0	0	0	0	0	0	0	0	0	0	0
121218	09:01:30	09:10:14	521393	5.0.10.0	4_exp_AWA_CON_EVA_AMP	6	Rpleas_acq	Same	Rpleas	Bmasked	CS_B	2pleas	distractor2	CONbeforeEVA	acq_US_pleas_masked	acq45_masked	4	29	400	0	300	300	0	0	317	50	0	1	0	0	0	1	blank2r.bmp	0	1	+	0	3	B3r.bmp	492	1	blank2r.bmp	786	1	GKQX	786	1	blank2r.bmp	866	6	freundlich	866	1	!	-1	1	!	-1	0	0	0	0	0	0	0	0	0	0	0	0	0	0	0	0	0	0	0	0	0	0	0	0	0	0	0
121218	09:01:30	09:10:16	523646	5.0.10.0	4_exp_AWA_CON_EVA_AMP	6	Rpleas_acq	Same	Rpleas	Bmasked	CS_B	2pleas	distractor2	CONbeforeEVA	acq_US_unple_masked	acq45_masked	4	30	400	1	300	300	0	0	441	50	0	0	0	0	0	1	blank2r.bmp	0	1	+	0	7	C3r.bmp	492	1	blank2r.bmp	786	1	BMVZ	786	1	blank2r.bmp	866	2	eitel	866	1	!	1239	1	!	1346	0	0	0	0	0	0	0	0	0	0	0	0	0	0	0	0	0	0	0	0	0	0	0	0	0	0	0
121218	09:01:30	09:10:18	525938	5.0.10.0	4_exp_AWA_CON_EVA_AMP	6	Rpleas_acq	Same	Rpleas	Bmasked	CS_B	2pleas	distractor2	CONbeforeEVA	acq_US_unple_masked	acq45_masked	4	31	400	0	300	300	0	0	530	46	0	1	0	0	0	1	blank2r.bmp	0	1	+	0	1	B1r.bmp	492	1	blank2r.bmp	786	1	BMVZ	786	1	blank2r.bmp	866	6	fanatisch	866	1	!	1239	1	!	-1	0	0	0	0	0	0	0	0	0	0	0	0	0	0	0	0	0	0	0	0	0	0	0	0	0	0	0
121218	09:01:30	09:10:20	528231	5.0.10.0	4_exp_AWA_CON_EVA_AMP	6	Rpleas_acq	Same	Rpleas	Bmasked	CS_B	2pleas	distractor2	CONbeforeEVA	acq_US_unple_masked	acq45_masked	4	32	400	0	300	300	0	0	511	46	0	1	0	0	0	1	blank2r.bmp	0	1	+	0	5	C1r.bmp	492	1	blank2r.bmp	786	1	BMVZ	786	1	blank2r.bmp	866	1	rächen	866	1	!	1239	1	!	-1	0	0	0	0	0	0	0	0	0	0	0	0	0	0	0	0	0	0	0	0	0	0	0	0	0	0	0
121218	09:01:30	09:10:23	530510	5.0.10.0	4_exp_AWA_CON_EVA_AMP	6	Rpleas_acq	Same	Rpleas	Bmasked	CS_B	2pleas	distractor2	CONbeforeEVA	acq_US_unple_masked	acq45_masked	4	33	400	0	300	300	0	0	493	46	0	1	0	0	0	1	blank2r.bmp	0	1	+	0	8	C4r.bmp	492	1	blank2r.bmp	786	1	BMVZ	786	1	blank2r.bmp	866	3	lasch	866	1	!	1239	1	!	-1	0	0	0	0	0	0	0	0	0	0	0	0	0	0	0	0	0	0	0	0	0	0	0	0	0	0	0
121218	09:01:30	09:10:25	532789	5.0.10.0	4_exp_AWA_CON_EVA_AMP	6	Rpleas_acq	Same	Rpleas	Bmasked	CS_B	2pleas	distractor2	CONbeforeEVA	acq_US_pleas_masked	acq45_masked	4	34	400	0	300	300	0	0	499	50	0	1	0	0	0	1	blank2r.bmp	0	1	+	0	2	B2r.bmp	492	1	blank2r.bmp	786	1	GKQX	786	1	blank2r.bmp	866	5	treu	866	1	!	1239	1	!	-1	0	0	0	0	0	0	0	0	0	0	0	0	0	0	0	0	0	0	0	0	0	0	0	0	0	0	0
121218	09:01:30	09:10:27	535041	5.0.10.0	4_exp_AWA_CON_EVA_AMP	6	Rpleas_acq	Same	Rpleas	Bmasked	CS_B	2pleas	distractor2	CONbeforeEVA	acq_US_unple_masked	acq45_masked	4	35	400	1	300	300	0	0	439	46	0	1	0	0	0	1	blank2r.bmp	0	1	+	0	6	C2r.bmp	492	1	blank2r.bmp	786	1	BMVZ	786	1	blank2r.bmp	866	5	tot	866	1	!	1239	1	!	1346	0	0	0	0	0	0	0	0	0	0	0	0	0	0	0	0	0	0	0	0	0	0	0	0	0	0	0
121218	09:01:30	09:10:29	537227	5.0.10.0	4_exp_AWA_CON_EVA_AMP	6	Rpleas_acq	Same	Rpleas	Bmasked	CS_B	2pleas	distractor2	CONbeforeEVA	acq_US_pleas_masked	acq45_masked	4	36	400	1	300	300	0	0	375	46	0	0	0	0	0	1	blank2r.bmp	0	1	+	0	4	B4r.bmp	492	1	blank2r.bmp	786	1	GKQX	786	1	blank2r.bmp	866	4	tolerant	866	1	!	1239	1	!	1279	0	0	0	0	0	0	0	0	0	0	0	0	0	0	0	0	0	0	0	0	0	0	0	0	0	0	0
121218	09:01:30	09:10:44	551967	5.0.10.0	4_exp_AWA_CON_EVA_AMP	6	Rpleas_acq	Same	Rpleas	Bmasked	CS_B	2pleas	distractor2	CONbeforeEVA	acq_US_pleas_masked	acq45_masked	5	1	400	1	300	300	0	0	346	50	0	1	0	0	0	1	blank2r.bmp	0	1	+	0	7	C3r.bmp	492	1	blank2r.bmp	786	1	GKQX	786	1	blank2r.bmp	866	1	retten	866	1	!	1239	1	!	1252	0	0	0	0	0	0	0	0	0	0	0	0	0	0	0	0	0	0	0	0	0	0	0	0	0	0	0
121218	09:01:30	09:10:46	554180	5.0.10.0	4_exp_AWA_CON_EVA_AMP	6	Rpleas_acq	Same	Rpleas	Bmasked	CS_B	2pleas	distractor2	CONbeforeEVA	acq_US_pleas_masked	acq45_masked	5	2	400	1	300	300	0	0	400	50	0	1	0	0	0	1	blank2r.bmp	0	1	+	0	2	B2r.bmp	492	1	blank2r.bmp	786	1	GKQX	786	1	blank2r.bmp	866	3	loyal	866	1	!	1239	1	!	1306	0	0	0	0	0	0	0	0	0	0	0	0	0	0	0	0	0	0	0	0	0	0	0	0	0	0	0
121218	09:01:30	09:10:49	557085	5.0.10.0	4_exp_AWA_CON_EVA_AMP	6	Rpleas_acq	Same	Rpleas	Bmasked	CS_B	2pleas	distractor2	CONbeforeEVA	acq_US_unple_masked	acq45_masked	5	3	400	0	300	300	0	0	1137	46	0	1	0	0	0	1	blank2r.bmp	0	1	+	0	1	B1r.bmp	492	1	blank2r.bmp	786	1	BMVZ	786	1	blank2r.bmp	866	2	eitel	866	1	!	1239	1	!	-1	0	0	0	0	0	0	0	0	0	0	0	0	0	0	0	0	0	0	0	0	0	0	0	0	0	0	0
121218	09:01:30	09:10:52	559364	5.0.10.0	4_exp_AWA_CON_EVA_AMP	6	Rpleas_acq	Same	Rpleas	Bmasked	CS_B	2pleas	distractor2	CONbeforeEVA	acq_US_unple_masked	acq45_masked	5	4	400	1	300	300	0	0	466	46	0	1	0	0	0	1	blank2r.bmp	0	1	+	0	3	B3r.bmp	492	1	blank2r.bmp	786	1	BMVZ	786	1	blank2r.bmp	866	3	lasch	866	1	!	1239	1	!	1372	0	0	0	0	0	0	0	0	0	0	0	0	0	0	0	0	0	0	0	0	0	0	0	0	0	0	0
121218	09:01:30	09:10:54	561603	5.0.10.0	4_exp_AWA_CON_EVA_AMP	6	Rpleas_acq	Same	Rpleas	Bmasked	CS_B	2pleas	distractor2	CONbeforeEVA	acq_US_pleas_masked	acq45_masked	5	5	400	1	300	300	0	0	446	50	0	1	0	0	0	1	blank2r.bmp	0	1	+	0	6	C2r.bmp	492	1	blank2r.bmp	786	1	GKQX	786	1	blank2r.bmp	866	5	treu	866	1	!	1239	1	!	1346	0	0	0	0	0	0	0	0	0	0	0	0	0	0	0	0	0	0	0	0	0	0	0	0	0	0	0
121218	09:01:30	09:10:56	563802	5.0.10.0	4_exp_AWA_CON_EVA_AMP	6	Rpleas_acq	Same	Rpleas	Bmasked	CS_B	2pleas	distractor2	CONbeforeEVA	acq_US_unple_masked	acq45_masked	5	6	400	1	300	300	0	0	407	46	0	1	0	0	0	1	blank2r.bmp	0	1	+	0	5	C1r.bmp	492	1	blank2r.bmp	786	1	BMVZ	786	1	blank2r.bmp	866	5	tot	866	1	!	1239	1	!	1306	0	0	0	0	0	0	0	0	0	0	0	0	0	0	0	0	0	0	0	0	0	0	0	0	0	0	0
121218	09:01:30	09:10:58	566161	5.0.10.0	4_exp_AWA_CON_EVA_AMP	6	Rpleas_acq	Same	Rpleas	Bmasked	CS_B	2pleas	distractor2	CONbeforeEVA	acq_US_unple_masked	acq45_masked	5	7	400	0	300	300	0	0	595	46	0	1	0	0	0	1	blank2r.bmp	0	1	+	0	8	C4r.bmp	492	1	blank2r.bmp	786	1	BMVZ	786	1	blank2r.bmp	866	1	rächen	866	1	!	1239	1	!	-1	0	0	0	0	0	0	0	0	0	0	0	0	0	0	0	0	0	0	0	0	0	0	0	0	0	0	0
121218	09:01:30	09:11:01	568400	5.0.10.0	4_exp_AWA_CON_EVA_AMP	6	Rpleas_acq	Same	Rpleas	Bmasked	CS_B	2pleas	distractor2	CONbeforeEVA	acq_US_pleas_masked	acq45_masked	5	8	400	1	300	300	0	0	426	50	0	1	0	0	0	1	blank2r.bmp	0	1	+	0	4	B4r.bmp	492	1	blank2r.bmp	786	1	GKQX	786	1	blank2r.bmp	866	2	ehrlich	866	1	!	1239	1	!	1332	0	0	0	0	0	0	0	0	0	0	0	0	0	0	0	0	0	0	0	0	0	0	0	0	0	0	0
121218	09:01:30	09:11:03	570559	5.0.10.0	4_exp_AWA_CON_EVA_AMP	6	Rpleas_acq	Same	Rpleas	Bmasked	CS_B	2pleas	distractor2	CONbeforeEVA	acq_US_pleas_masked	acq45_masked	5	9	400	1	300	300	0	0	367	50	0	1	0	0	0	1	blank2r.bmp	0	1	+	0	6	C2r.bmp	492	1	blank2r.bmp	786	1	GKQX	786	1	blank2r.bmp	866	6	freundlich	866	1	!	1239	1	!	1266	0	0	0	0	0	0	0	0	0	0	0	0	0	0	0	0	0	0	0	0	0	0	0	0	0	0	0
121218	09:01:30	09:11:05	572732	5.0.10.0	4_exp_AWA_CON_EVA_AMP	6	Rpleas_acq	Same	Rpleas	Bmasked	CS_B	2pleas	distractor2	CONbeforeEVA	acq_US_pleas_masked	acq45_masked	5	10	400	1	300	300	0	0	384	46	0	0	0	0	0	1	blank2r.bmp	0	1	+	0	5	C1r.bmp	492	1	blank2r.bmp	786	1	GKQX	786	1	blank2r.bmp	866	4	tolerant	866	1	!	1239	1	!	1279	0	0	0	0	0	0	0	0	0	0	0	0	0	0	0	0	0	0	0	0	0	0	0	0	0	0	0
121218	09:01:30	09:11:07	575011	5.0.10.0	4_exp_AWA_CON_EVA_AMP	6	Rpleas_acq	Same	Rpleas	Bmasked	CS_B	2pleas	distractor2	CONbeforeEVA	acq_US_unple_masked	acq45_masked	5	11	400	0	300	300	0	0	496	46	0	1	0	0	0	1	blank2r.bmp	0	1	+	0	4	B4r.bmp	492	1	blank2r.bmp	786	1	BMVZ	786	1	blank2r.bmp	866	4	tyrannisch	866	1	!	1239	1	!	-1	0	0	0	0	0	0	0	0	0	0	0	0	0	0	0	0	0	0	0	0	0	0	0	0	0	0	0
121218	09:01:30	09:11:09	577183	5.0.10.0	4_exp_AWA_CON_EVA_AMP	6	Rpleas_acq	Same	Rpleas	Bmasked	CS_B	2pleas	distractor2	CONbeforeEVA	acq_US_unple_masked	acq45_masked	5	12	400	1	300	300	0	0	351	46	0	1	0	0	0	1	blank2r.bmp	0	1	+	0	1	B1r.bmp	492	1	blank2r.bmp	786	1	BMVZ	786	1	blank2r.bmp	866	6	fanatisch	866	1	!	1239	1	!	1252	0	0	0	0	0	0	0	0	0	0	0	0	0	0	0	0	0	0	0	0	0	0	0	0	0	0	0
121218	09:01:30	09:11:12	579396	5.0.10.0	4_exp_AWA_CON_EVA_AMP	6	Rpleas_acq	Same	Rpleas	Bmasked	CS_B	2pleas	distractor2	CONbeforeEVA	acq_US_pleas_masked	acq45_masked	5	13	400	1	300	300	0	0	420	50	0	1	0	0	0	1	blank2r.bmp	0	1	+	0	7	C3r.bmp	492	1	blank2r.bmp	786	1	GKQX	786	1	blank2r.bmp	866	3	loyal	866	1	!	1239	1	!	1319	0	0	0	0	0	0	0	0	0	0	0	0	0	0	0	0	0	0	0	0	0	0	0	0	0	0	0
121218	09:01:30	09:11:14	581648	5.0.10.0	4_exp_AWA_CON_EVA_AMP	6	Rpleas_acq	Same	Rpleas	Bmasked	CS_B	2pleas	distractor2	CONbeforeEVA	acq_US_pleas_masked	acq45_masked	5	14	400	0	300	300	0	0	479	50	0	1	0	0	0	1	blank2r.bmp	0	1	+	0	8	C4r.bmp	492	1	blank2r.bmp	786	1	GKQX	786	1	blank2r.bmp	866	1	retten	866	1	!	1239	1	!	-1	0	0	0	0	0	0	0	0	0	0	0	0	0	0	0	0	0	0	0	0	0	0	0	0	0	0	0
121218	09:01:30	09:11:16	583807	5.0.10.0	4_exp_AWA_CON_EVA_AMP	6	Rpleas_acq	Same	Rpleas	Bmasked	CS_B	2pleas	distractor2	CONbeforeEVA	acq_US_pleas_masked	acq45_masked	5	15	400	1	300	300	0	0	350	50	0	1	0	0	0	1	blank2r.bmp	0	1	+	0	3	B3r.bmp	492	1	blank2r.bmp	786	1	GKQX	786	1	blank2r.bmp	866	6	freundlich	866	1	!	1239	1	!	1252	0	0	0	0	0	0	0	0	0	0	0	0	0	0	0	0	0	0	0	0	0	0	0	0	0	0	0
121218	09:01:30	09:11:18	586060	5.0.10.0	4_exp_AWA_CON_EVA_AMP	6	Rpleas_acq	Same	Rpleas	Bmasked	CS_B	2pleas	distractor2	CONbeforeEVA	acq_US_unple_masked	acq45_masked	5	16	400	1	300	300	0	0	442	46	0	1	0	0	0	1	blank2r.bmp	0	1	+	0	2	B2r.bmp	492	1	blank2r.bmp	786	1	BMVZ	786	1	blank2r.bmp	866	4	tyrannisch	866	1	!	1239	1	!	1346	0	0	0	0	0	0	0	0	0	0	0	0	0	0	0	0	0	0	0	0	0	0	0	0	0	0	0
121218	09:01:30	09:11:21	588312	5.0.10.0	4_exp_AWA_CON_EVA_AMP	6	Rpleas_acq	Same	Rpleas	Bmasked	CS_B	2pleas	distractor2	CONbeforeEVA	acq_US_unple_masked	acq45_masked	5	17	400	0	300	300	0	0	479	50	0	0	0	0	0	1	blank2r.bmp	0	1	+	0	5	C1r.bmp	492	1	blank2r.bmp	786	1	BMVZ	786	1	blank2r.bmp	866	6	fanatisch	866	1	!	1239	1	!	-1	0	0	0	0	0	0	0	0	0	0	0	0	0	0	0	0	0	0	0	0	0	0	0	0	0	0	0
121218	09:01:30	09:11:23	590498	5.0.10.0	4_exp_AWA_CON_EVA_AMP	6	Rpleas_acq	Same	Rpleas	Bmasked	CS_B	2pleas	distractor2	CONbeforeEVA	acq_US_unple_masked	acq45_masked	5	18	400	1	300	300	0	0	376	50	0	0	0	0	0	1	blank2r.bmp	0	1	+	0	8	C4r.bmp	492	1	blank2r.bmp	786	1	BMVZ	786	1	blank2r.bmp	866	3	lasch	866	1	!	1239	1	!	1279	0	0	0	0	0	0	0	0	0	0	0	0	0	0	0	0	0	0	0	0	0	0	0	0	0	0	0
121218	09:01:30	09:11:25	592644	5.0.10.0	4_exp_AWA_CON_EVA_AMP	6	Rpleas_acq	Same	Rpleas	Bmasked	CS_B	2pleas	distractor2	CONbeforeEVA	acq_US_pleas_masked	acq45_masked	5	19	400	1	300	300	0	0	346	50	0	1	0	0	0	1	blank2r.bmp	0	1	+	0	2	B2r.bmp	492	1	blank2r.bmp	786	1	GKQX	786	1	blank2r.bmp	866	2	ehrlich	866	1	!	1239	1	!	1252	0	0	0	0	0	0	0	0	0	0	0	0	0	0	0	0	0	0	0	0	0	0	0	0	0	0	0
121218	09:01:30	09:11:27	594869	5.0.10.0	4_exp_AWA_CON_EVA_AMP	6	Rpleas_acq	Same	Rpleas	Bmasked	CS_B	2pleas	distractor2	CONbeforeEVA	acq_US_pleas_masked	acq45_masked	5	20	400	1	300	300	0	0	435	50	0	1	0	0	0	1	blank2r.bmp	0	1	+	0	6	C2r.bmp	492	1	blank2r.bmp	786	1	GKQX	786	1	blank2r.bmp	866	4	tolerant	866	1	!	1239	1	!	1332	0	0	0	0	0	0	0	0	0	0	0	0	0	0	0	0	0	0	0	0	0	0	0	0	0	0	0
121218	09:01:30	09:11:29	597015	5.0.10.0	4_exp_AWA_CON_EVA_AMP	6	Rpleas_acq	Same	Rpleas	Bmasked	CS_B	2pleas	distractor2	CONbeforeEVA	acq_US_unple_masked	acq45_masked	5	21	400	1	300	300	0	0	346	46	0	1	0	0	0	1	blank2r.bmp	0	1	+	0	1	B1r.bmp	492	1	blank2r.bmp	786	1	BMVZ	786	1	blank2r.bmp	866	5	tot	866	1	!	1239	1	!	1252	0	0	0	0	0	0	0	0	0	0	0	0	0	0	0	0	0	0	0	0	0	0	0	0	0	0	0
121218	09:01:30	09:11:31	599214	5.0.10.0	4_exp_AWA_CON_EVA_AMP	6	Rpleas_acq	Same	Rpleas	Bmasked	CS_B	2pleas	distractor2	CONbeforeEVA	acq_US_unple_masked	acq45_masked	5	22	400	1	300	300	0	0	401	46	0	1	0	0	0	1	blank2r.bmp	0	1	+	0	3	B3r.bmp	492	1	blank2r.bmp	786	1	BMVZ	786	1	blank2r.bmp	866	1	rächen	866	1	!	1239	1	!	1306	0	0	0	0	0	0	0	0	0	0	0	0	0	0	0	0	0	0	0	0	0	0	0	0	0	0	0
121218	09:01:30	09:11:33	601267	5.0.10.0	4_exp_AWA_CON_EVA_AMP	6	Rpleas_acq	Same	Rpleas	Bmasked	CS_B	2pleas	distractor2	CONbeforeEVA	acq_US_pleas_masked	acq45_masked	5	23	400	0	300	300	0	0	285	50	0	1	0	0	0	1	blank2r.bmp	0	1	+	0	4	B4r.bmp	492	1	blank2r.bmp	786	1	GKQX	786	1	blank2r.bmp	866	5	treu	866	1	!	-1	1	!	-1	0	0	0	0	0	0	0	0	0	0	0	0	0	0	0	0	0	0	0	0	0	0	0	0	0	0	0
121218	09:01:30	09:11:36	603506	5.0.10.0	4_exp_AWA_CON_EVA_AMP	6	Rpleas_acq	Same	Rpleas	Bmasked	CS_B	2pleas	distractor2	CONbeforeEVA	acq_US_unple_masked	acq45_masked	5	24	400	1	300	300	0	0	422	50	0	0	0	0	0	1	blank2r.bmp	0	1	+	0	7	C3r.bmp	492	1	blank2r.bmp	786	1	BMVZ	786	1	blank2r.bmp	866	2	eitel	866	1	!	1239	1	!	1319	0	0	0	0	0	0	0	0	0	0	0	0	0	0	0	0	0	0	0	0	0	0	0	0	0	0	0
121218	09:01:30	09:11:38	605598	5.0.10.0	4_exp_AWA_CON_EVA_AMP	6	Rpleas_acq	Same	Rpleas	Bmasked	CS_B	2pleas	distractor2	CONbeforeEVA	acq_US_unple_masked	acq45_masked	5	25	400	0	300	300	0	0	328	50	0	0	0	0	0	1	blank2r.bmp	0	1	+	0	6	C2r.bmp	492	1	blank2r.bmp	786	1	BMVZ	786	1	blank2r.bmp	866	2	eitel	866	1	!	-1	1	!	-1	0	0	0	0	0	0	0	0	0	0	0	0	0	0	0	0	0	0	0	0	0	0	0	0	0	0	0
121218	09:01:30	09:11:40	607757	5.0.10.0	4_exp_AWA_CON_EVA_AMP	6	Rpleas_acq	Same	Rpleas	Bmasked	CS_B	2pleas	distractor2	CONbeforeEVA	acq_US_unple_masked	acq45_masked	5	26	400	1	300	300	0	0	348	46	0	1	0	0	0	1	blank2r.bmp	0	1	+	0	1	B1r.bmp	492	1	blank2r.bmp	786	1	BMVZ	786	1	blank2r.bmp	866	5	tot	866	1	!	1239	1	!	1252	0	0	0	0	0	0	0	0	0	0	0	0	0	0	0	0	0	0	0	0	0	0	0	0	0	0	0
121218	09:01:30	09:11:42	609836	5.0.10.0	4_exp_AWA_CON_EVA_AMP	6	Rpleas_acq	Same	Rpleas	Bmasked	CS_B	2pleas	distractor2	CONbeforeEVA	acq_US_unple_masked	acq45_masked	5	27	400	0	300	300	0	0	308	46	0	1	0	0	0	1	blank2r.bmp	0	1	+	0	5	C1r.bmp	492	1	blank2r.bmp	786	1	BMVZ	786	1	blank2r.bmp	866	3	lasch	866	1	!	-1	1	!	-1	0	0	0	0	0	0	0	0	0	0	0	0	0	0	0	0	0	0	0	0	0	0	0	0	0	0	0
121218	09:01:30	09:11:44	612049	5.0.10.0	4_exp_AWA_CON_EVA_AMP	6	Rpleas_acq	Same	Rpleas	Bmasked	CS_B	2pleas	distractor2	CONbeforeEVA	acq_US_unple_masked	acq45_masked	5	28	400	1	300	300	0	0	406	46	0	1	0	0	0	1	blank2r.bmp	0	1	+	0	2	B2r.bmp	492	1	blank2r.bmp	786	1	BMVZ	786	1	blank2r.bmp	866	1	rächen	866	1	!	1239	1	!	1306	0	0	0	0	0	0	0	0	0	0	0	0	0	0	0	0	0	0	0	0	0	0	0	0	0	0	0
121218	09:01:30	09:11:47	614448	5.0.10.0	4_exp_AWA_CON_EVA_AMP	6	Rpleas_acq	Same	Rpleas	Bmasked	CS_B	2pleas	distractor2	CONbeforeEVA	acq_US_pleas_masked	acq45_masked	5	29	400	0	300	300	0	0	631	50	0	1	0	0	0	1	blank2r.bmp	0	1	+	0	8	C4r.bmp	492	1	blank2r.bmp	786	1	GKQX	786	1	blank2r.bmp	866	1	retten	866	1	!	1239	1	!	-1	0	0	0	0	0	0	0	0	0	0	0	0	0	0	0	0	0	0	0	0	0	0	0	0	0	0	0
121218	09:01:30	09:11:49	616833	5.0.10.0	4_exp_AWA_CON_EVA_AMP	6	Rpleas_acq	Same	Rpleas	Bmasked	CS_B	2pleas	distractor2	CONbeforeEVA	acq_US_unple_masked	acq45_masked	5	30	400	0	300	300	0	0	596	46	0	1	0	0	0	1	blank2r.bmp	0	1	+	0	3	B3r.bmp	492	1	blank2r.bmp	786	1	BMVZ	786	1	blank2r.bmp	866	6	fanatisch	866	1	!	1239	1	!	-1	0	0	0	0	0	0	0	0	0	0	0	0	0	0	0	0	0	0	0	0	0	0	0	0	0	0	0
121218	09:01:30	09:11:51	619086	5.0.10.0	4_exp_AWA_CON_EVA_AMP	6	Rpleas_acq	Same	Rpleas	Bmasked	CS_B	2pleas	distractor2	CONbeforeEVA	acq_US_pleas_masked	acq45_masked	5	31	400	1	300	300	0	0	442	50	0	1	0	0	0	1	blank2r.bmp	0	1	+	0	7	C3r.bmp	492	1	blank2r.bmp	786	1	GKQX	786	1	blank2r.bmp	866	6	freundlich	866	1	!	1239	1	!	1346	0	0	0	0	0	0	0	0	0	0	0	0	0	0	0	0	0	0	0	0	0	0	0	0	0	0	0
121218	09:01:30	09:11:53	621258	5.0.10.0	4_exp_AWA_CON_EVA_AMP	6	Rpleas_acq	Same	Rpleas	Bmasked	CS_B	2pleas	distractor2	CONbeforeEVA	acq_US_pleas_masked	acq45_masked	5	32	400	1	300	300	0	0	379	46	0	0	0	0	0	1	blank2r.bmp	0	1	+	0	4	B4r.bmp	492	1	blank2r.bmp	786	1	GKQX	786	1	blank2r.bmp	866	5	treu	866	1	!	1239	1	!	1279	0	0	0	0	0	0	0	0	0	0	0	0	0	0	0	0	0	0	0	0	0	0	0	0	0	0	0
121218	09:01:30	09:11:56	623497	5.0.10.0	4_exp_AWA_CON_EVA_AMP	6	Rpleas_acq	Same	Rpleas	Bmasked	CS_B	2pleas	distractor2	CONbeforeEVA	acq_US_pleas_masked	acq45_masked	5	33	400	1	300	300	0	0	443	50	0	1	0	0	0	1	blank2r.bmp	0	1	+	0	7	C3r.bmp	492	1	blank2r.bmp	786	1	GKQX	786	1	blank2r.bmp	866	2	ehrlich	866	1	!	1239	1	!	1346	0	0	0	0	0	0	0	0	0	0	0	0	0	0	0	0	0	0	0	0	0	0	0	0	0	0	0
121218	09:01:30	09:11:58	625670	5.0.10.0	4_exp_AWA_CON_EVA_AMP	6	Rpleas_acq	Same	Rpleas	Bmasked	CS_B	2pleas	distractor2	CONbeforeEVA	acq_US_pleas_masked	acq45_masked	5	34	400	1	300	300	0	0	385	50	0	1	0	0	0	1	blank2r.bmp	0	1	+	0	3	B3r.bmp	492	1	blank2r.bmp	786	1	GKQX	786	1	blank2r.bmp	866	3	loyal	866	1	!	1239	1	!	1279	0	0	0	0	0	0	0	0	0	0	0	0	0	0	0	0	0	0	0	0	0	0	0	0	0	0	0
121218	09:01:30	09:12:00	627922	5.0.10.0	4_exp_AWA_CON_EVA_AMP	6	Rpleas_acq	Same	Rpleas	Bmasked	CS_B	2pleas	distractor2	CONbeforeEVA	acq_US_unple_masked	acq45_masked	5	35	400	0	300	300	0	0	489	46	0	1	0	0	0	1	blank2r.bmp	0	1	+	0	8	C4r.bmp	492	1	blank2r.bmp	786	1	BMVZ	786	1	blank2r.bmp	866	4	tyrannisch	866	1	!	1239	1	!	-1	0	0	0	0	0	0	0	0	0	0	0	0	0	0	0	0	0	0	0	0	0	0	0	0	0	0	0
121218	09:01:30	09:12:02	630015	5.0.10.0	4_exp_AWA_CON_EVA_AMP	6	Rpleas_acq	Same	Rpleas	Bmasked	CS_B	2pleas	distractor2	CONbeforeEVA	acq_US_pleas_masked	acq45_masked	5	36	400	0	300	300	0	0	306	46	0	0	0	0	0	1	blank2r.bmp	0	1	+	0	6	C2r.bmp	492	1	blank2r.bmp	786	1	GKQX	786	1	blank2r.bmp	866	4	tolerant	866	1	!	-1	1	!	-1	0	0	0	0	0	0	0	0	0	0	0	0	0	0	0	0	0	0	0	0	0	0	0	0	0	0	0
121218	09:01:30	09:13:54	741834	5.0.10.0	4_exp_AWA_CON_EVA_AMP	6	Rpleas_acq	Same	Rpleas	Bmasked	CS_B	2pleas	distractor2	CONbeforeEVA	cond_new_unple_456_masked_CS2	condtest_masked_1	8	1	400	0	300	300	0	0	539	46	0	1	0	0	0	1	blank2r.bmp	0	1	+	0	5	C1r.bmp	492	1	blank2r.bmp	786	1	GKQX	786	1	blank2r.bmp	866	3	faul	866	1	!	1239	1	!	-1	0	0	0	0	0	0	0	0	0	0	0	0	0	0	0	0	0	0	0	0	0	0	0	0	0	0	0
121218	09:01:30	09:13:56	744100	5.0.10.0	4_exp_AWA_CON_EVA_AMP	6	Rpleas_acq	Same	Rpleas	Bmasked	CS_B	2pleas	distractor2	CONbeforeEVA	cond_new_pleas_456_masked_CS1	condtest_masked_1	8	2	400	1	300	300	0	0	453	50	0	1	0	0	0	1	blank2r.bmp	0	1	+	0	1	B1r.bmp	492	1	blank2r.bmp	786	1	BMVZ	786	1	blank2r.bmp	866	1	schlau	866	1	!	1239	1	!	1359	0	0	0	0	0	0	0	0	0	0	0	0	0	0	0	0	0	0	0	0	0	0	0	0	0	0	0
121218	09:01:30	09:13:59	746352	5.0.10.0	4_exp_AWA_CON_EVA_AMP	6	Rpleas_acq	Same	Rpleas	Bmasked	CS_B	2pleas	distractor2	CONbeforeEVA	cond_new_pleas_456_masked_CS2	condtest_masked_1	8	3	400	0	300	300	0	0	480	50	0	1	0	0	0	1	blank2r.bmp	0	1	+	0	2	B2r.bmp	492	1	blank2r.bmp	786	1	GKQX	786	1	blank2r.bmp	866	2	schön	866	1	!	1239	1	!	-1	0	0	0	0	0	0	0	0	0	0	0	0	0	0	0	0	0	0	0	0	0	0	0	0	0	0	0
121218	09:01:30	09:14:01	748525	5.0.10.0	4_exp_AWA_CON_EVA_AMP	6	Rpleas_acq	Same	Rpleas	Bmasked	CS_B	2pleas	distractor2	CONbeforeEVA	cond_US_pleas_123_masked_CS2	condtest_masked_1	8	4	400	1	300	300	0	0	366	50	0	1	0	0	0	1	blank2r.bmp	0	1	+	0	4	B4r.bmp	492	1	blank2r.bmp	786	1	GKQX	786	1	blank2r.bmp	866	3	loyal	866	1	!	1239	1	!	1266	0	0	0	0	0	0	0	0	0	0	0	0	0	0	0	0	0	0	0	0	0	0	0	0	0	0	0
121218	09:01:30	09:14:03	750737	5.0.10.0	4_exp_AWA_CON_EVA_AMP	6	Rpleas_acq	Same	Rpleas	Bmasked	CS_B	2pleas	distractor2	CONbeforeEVA	cond_US_unple_123_masked_CS2	condtest_masked_1	8	5	400	1	300	300	0	0	423	50	0	0	0	0	0	1	blank2r.bmp	0	1	+	0	2	B2r.bmp	492	1	blank2r.bmp	786	1	GKQX	786	1	blank2r.bmp	866	2	eitel	866	1	!	1239	1	!	1319	0	0	0	0	0	0	0	0	0	0	0	0	0	0	0	0	0	0	0	0	0	0	0	0	0	0	0
121218	09:01:30	09:14:05	752963	5.0.10.0	4_exp_AWA_CON_EVA_AMP	6	Rpleas_acq	Same	Rpleas	Bmasked	CS_B	2pleas	distractor2	CONbeforeEVA	cond_new_unple_456_masked_CS1	condtest_masked_1	8	6	400	1	300	300	0	0	426	46	0	1	0	0	0	1	blank2r.bmp	0	1	+	0	8	C4r.bmp	492	1	blank2r.bmp	786	1	BMVZ	786	1	blank2r.bmp	866	2	schlecht	866	1	!	1239	1	!	1332	0	0	0	0	0	0	0	0	0	0	0	0	0	0	0	0	0	0	0	0	0	0	0	0	0	0	0
121218	09:01:30	09:14:07	755175	5.0.10.0	4_exp_AWA_CON_EVA_AMP	6	Rpleas_acq	Same	Rpleas	Bmasked	CS_B	2pleas	distractor2	CONbeforeEVA	cond_US_pleas_123_masked_CS1	condtest_masked_1	8	7	400	1	300	300	0	0	416	50	0	1	0	0	0	1	blank2r.bmp	0	1	+	0	7	C3r.bmp	492	1	blank2r.bmp	786	1	BMVZ	786	1	blank2r.bmp	866	1	retten	866	1	!	1239	1	!	1319	0	0	0	0	0	0	0	0	0	0	0	0	0	0	0	0	0	0	0	0	0	0	0	0	0	0	0
121218	09:01:30	09:14:10	757388	5.0.10.0	4_exp_AWA_CON_EVA_AMP	6	Rpleas_acq	Same	Rpleas	Bmasked	CS_B	2pleas	distractor2	CONbeforeEVA	cond_US_unple_123_masked_CS1	condtest_masked_1	8	8	400	1	300	300	0	0	416	50	0	0	0	0	0	1	blank2r.bmp	0	1	+	0	3	B3r.bmp	492	1	blank2r.bmp	786	1	BMVZ	786	1	blank2r.bmp	866	3	lasch	866	1	!	1239	1	!	1319	0	0	0	0	0	0	0	0	0	0	0	0	0	0	0	0	0	0	0	0	0	0	0	0	0	0	0
121218	09:01:30	09:14:26	773688	5.0.10.0	4_exp_AWA_CON_EVA_AMP	6	Rpleas_acq	Same	Rpleas	Bmasked	CS_B	2pleas	distractor2	CONbeforeEVA	cond_new_unple_456_masked_CS2	condtest_masked_2	9	1	400	0	300	300	0	0	518	46	0	1	0	0	0	1	blank2r.bmp	0	1	+	0	1	B1r.bmp	492	1	blank2r.bmp	786	1	GKQX	786	1	blank2r.bmp	866	1	schroff	866	1	!	1239	1	!	-1	0	0	0	0	0	0	0	0	0	0	0	0	0	0	0	0	0	0	0	0	0	0	0	0	0	0	0
121218	09:01:30	09:14:28	775767	5.0.10.0	4_exp_AWA_CON_EVA_AMP	6	Rpleas_acq	Same	Rpleas	Bmasked	CS_B	2pleas	distractor2	CONbeforeEVA	cond_US_pleas_123_masked_CS2	condtest_masked_2	9	2	400	0	300	300	0	0	292	50	0	1	0	0	0	1	blank2r.bmp	0	1	+	0	6	C2r.bmp	492	1	blank2r.bmp	786	1	GKQX	786	1	blank2r.bmp	866	2	ehrlich	866	1	!	-1	1	!	-1	0	0	0	0	0	0	0	0	0	0	0	0	0	0	0	0	0	0	0	0	0	0	0	0	0	0	0
121218	09:01:30	09:14:30	778046	5.0.10.0	4_exp_AWA_CON_EVA_AMP	6	Rpleas_acq	Same	Rpleas	Bmasked	CS_B	2pleas	distractor2	CONbeforeEVA	cond_US_unple_123_masked_CS2	condtest_masked_2	9	3	400	0	300	300	0	0	482	50	0	0	0	0	0	1	blank2r.bmp	0	1	+	0	5	C1r.bmp	492	1	blank2r.bmp	786	1	GKQX	786	1	blank2r.bmp	866	1	rächen	866	1	!	1239	1	!	-1	0	0	0	0	0	0	0	0	0	0	0	0	0	0	0	0	0	0	0	0	0	0	0	0	0	0	0
121218	09:01:30	09:14:33	780431	5.0.10.0	4_exp_AWA_CON_EVA_AMP	6	Rpleas_acq	Same	Rpleas	Bmasked	CS_B	2pleas	distractor2	CONbeforeEVA	cond_new_pleas_456_masked_CS2	condtest_masked_2	9	4	400	0	300	300	0	0	602	50	0	1	0	0	0	1	blank2r.bmp	0	1	+	0	4	B4r.bmp	492	1	blank2r.bmp	786	1	GKQX	786	1	blank2r.bmp	866	3	fair	866	1	!	1239	1	!	-1	0	0	0	0	0	0	0	0	0	0	0	0	0	0	0	0	0	0	0	0	0	0	0	0	0	0	0
121218	09:01:30	09:14:35	782657	5.0.10.0	4_exp_AWA_CON_EVA_AMP	6	Rpleas_acq	Same	Rpleas	Bmasked	CS_B	2pleas	distractor2	CONbeforeEVA	cond_new_unple_456_masked_CS1	condtest_masked_2	9	5	400	1	300	300	0	0	409	46	0	1	0	0	0	1	blank2r.bmp	0	1	+	0	7	C3r.bmp	492	1	blank2r.bmp	786	1	BMVZ	786	1	blank2r.bmp	866	1	schroff	866	1	!	1239	1	!	1306	0	0	0	0	0	0	0	0	0	0	0	0	0	0	0	0	0	0	0	0	0	0	0	0	0	0	0
121218	09:01:30	09:14:37	784910	5.0.10.0	4_exp_AWA_CON_EVA_AMP	6	Rpleas_acq	Same	Rpleas	Bmasked	CS_B	2pleas	distractor2	CONbeforeEVA	cond_new_unple_456_masked_CS2	condtest_masked_2	9	6	400	0	300	300	0	0	488	46	0	1	0	0	0	1	blank2r.bmp	0	1	+	0	1	B1r.bmp	492	1	blank2r.bmp	786	1	GKQX	786	1	blank2r.bmp	866	3	faul	866	1	!	1239	1	!	-1	0	0	0	0	0	0	0	0	0	0	0	0	0	0	0	0	0	0	0	0	0	0	0	0	0	0	0
121218	09:01:30	09:14:39	787122	5.0.10.0	4_exp_AWA_CON_EVA_AMP	6	Rpleas_acq	Same	Rpleas	Bmasked	CS_B	2pleas	distractor2	CONbeforeEVA	cond_US_pleas_123_masked_CS1	condtest_masked_2	9	7	400	1	300	300	0	0	405	50	0	1	0	0	0	1	blank2r.bmp	0	1	+	0	8	C4r.bmp	492	1	blank2r.bmp	786	1	BMVZ	786	1	blank2r.bmp	866	1	retten	866	1	!	1239	1	!	1306	0	0	0	0	0	0	0	0	0	0	0	0	0	0	0	0	0	0	0	0	0	0	0	0	0	0	0
121218	09:01:30	09:14:42	789334	5.0.10.0	4_exp_AWA_CON_EVA_AMP	6	Rpleas_acq	Same	Rpleas	Bmasked	CS_B	2pleas	distractor2	CONbeforeEVA	cond_US_unple_123_masked_CS2	condtest_masked_2	9	8	400	1	300	300	0	0	403	46	0	1	0	0	0	1	blank2r.bmp	0	1	+	0	6	C2r.bmp	492	1	blank2r.bmp	786	1	GKQX	786	1	blank2r.bmp	866	3	lasch	866	1	!	1239	1	!	1306	0	0	0	0	0	0	0	0	0	0	0	0	0	0	0	0	0	0	0	0	0	0	0	0	0	0	0
121218	09:01:30	09:14:44	791533	5.0.10.0	4_exp_AWA_CON_EVA_AMP	6	Rpleas_acq	Same	Rpleas	Bmasked	CS_B	2pleas	distractor2	CONbeforeEVA	cond_US_pleas_123_masked_CS2	condtest_masked_2	9	9	400	1	300	300	0	0	404	50	0	1	0	0	0	1	blank2r.bmp	0	1	+	0	5	C1r.bmp	492	1	blank2r.bmp	786	1	GKQX	786	1	blank2r.bmp	866	2	ehrlich	866	1	!	1239	1	!	1306	0	0	0	0	0	0	0	0	0	0	0	0	0	0	0	0	0	0	0	0	0	0	0	0	0	0	0
121218	09:01:30	09:14:46	793972	5.0.10.0	4_exp_AWA_CON_EVA_AMP	6	Rpleas_acq	Same	Rpleas	Bmasked	CS_B	2pleas	distractor2	CONbeforeEVA	cond_US_pleas_123_masked_CS1	condtest_masked_2	9	10	400	0	300	300	0	0	666	50	0	1	0	0	0	1	blank2r.bmp	0	1	+	0	4	B4r.bmp	492	1	blank2r.bmp	786	1	BMVZ	786	1	blank2r.bmp	866	3	loyal	866	1	!	1239	1	!	-1	0	0	0	0	0	0	0	0	0	0	0	0	0	0	0	0	0	0	0	0	0	0	0	0	0	0	0
121218	09:01:30	09:14:48	796198	5.0.10.0	4_exp_AWA_CON_EVA_AMP	6	Rpleas_acq	Same	Rpleas	Bmasked	CS_B	2pleas	distractor2	CONbeforeEVA	cond_new_unple_456_masked_CS1	condtest_masked_2	9	11	400	1	300	300	0	0	405	46	0	1	0	0	0	1	blank2r.bmp	0	1	+	0	2	B2r.bmp	492	1	blank2r.bmp	786	1	BMVZ	786	1	blank2r.bmp	866	2	schlecht	866	1	!	1239	1	!	1306	0	0	0	0	0	0	0	0	0	0	0	0	0	0	0	0	0	0	0	0	0	0	0	0	0	0	0
121218	09:01:30	09:14:51	798424	5.0.10.0	4_exp_AWA_CON_EVA_AMP	6	Rpleas_acq	Same	Rpleas	Bmasked	CS_B	2pleas	distractor2	CONbeforeEVA	cond_new_unple_456_masked_CS1	condtest_masked_2	9	12	400	1	300	300	0	0	428	46	0	1	0	0	0	1	blank2r.bmp	0	1	+	0	3	B3r.bmp	492	1	blank2r.bmp	786	1	BMVZ	786	1	blank2r.bmp	866	1	schroff	866	1	!	1239	1	!	1332	0	0	0	0	0	0	0	0	0	0	0	0	0	0	0	0	0	0	0	0	0	0	0	0	0	0	0
121218	09:01:30	09:14:53	800503	5.0.10.0	4_exp_AWA_CON_EVA_AMP	6	Rpleas_acq	Same	Rpleas	Bmasked	CS_B	2pleas	distractor2	CONbeforeEVA	cond_new_pleas_456_masked_CS2	condtest_masked_2	9	13	400	0	300	300	0	0	315	50	0	1	0	0	0	1	blank2r.bmp	0	1	+	0	2	B2r.bmp	492	1	blank2r.bmp	786	1	GKQX	786	1	blank2r.bmp	866	2	schön	866	1	!	-1	1	!	-1	0	0	0	0	0	0	0	0	0	0	0	0	0	0	0	0	0	0	0	0	0	0	0	0	0	0	0
121218	09:01:30	09:14:55	802755	5.0.10.0	4_exp_AWA_CON_EVA_AMP	6	Rpleas_acq	Same	Rpleas	Bmasked	CS_B	2pleas	distractor2	CONbeforeEVA	cond_US_unple_123_masked_CS1	condtest_masked_2	9	14	400	1	300	300	0	0	447	46	0	1	0	0	0	1	blank2r.bmp	0	1	+	0	4	B4r.bmp	492	1	blank2r.bmp	786	1	BMVZ	786	1	blank2r.bmp	866	1	rächen	866	1	!	1239	1	!	1346	0	0	0	0	0	0	0	0	0	0	0	0	0	0	0	0	0	0	0	0	0	0	0	0	0	0	0
121218	09:01:30	09:14:57	804981	5.0.10.0	4_exp_AWA_CON_EVA_AMP	6	Rpleas_acq	Same	Rpleas	Bmasked	CS_B	2pleas	distractor2	CONbeforeEVA	cond_US_unple_123_masked_CS1	condtest_masked_2	9	15	400	1	300	300	0	0	437	50	0	0	0	0	0	1	blank2r.bmp	0	1	+	0	1	B1r.bmp	492	1	blank2r.bmp	786	1	BMVZ	786	1	blank2r.bmp	866	2	eitel	866	1	!	1239	1	!	1332	0	0	0	0	0	0	0	0	0	0	0	0	0	0	0	0	0	0	0	0	0	0	0	0	0	0	0
121218	09:01:30	09:14:59	807233	5.0.10.0	4_exp_AWA_CON_EVA_AMP	6	Rpleas_acq	Same	Rpleas	Bmasked	CS_B	2pleas	distractor2	CONbeforeEVA	cond_new_unple_456_masked_CS1	condtest_masked_2	9	16	400	1	300	300	0	0	444	46	0	1	0	0	0	1	blank2r.bmp	0	1	+	0	5	C1r.bmp	492	1	blank2r.bmp	786	1	BMVZ	786	1	blank2r.bmp	866	2	schlecht	866	1	!	1239	1	!	1346	0	0	0	0	0	0	0	0	0	0	0	0	0	0	0	0	0	0	0	0	0	0	0	0	0	0	0
121218	09:01:30	09:15:02	809486	5.0.10.0	4_exp_AWA_CON_EVA_AMP	6	Rpleas_acq	Same	Rpleas	Bmasked	CS_B	2pleas	distractor2	CONbeforeEVA	cond_new_pleas_456_masked_CS1	condtest_masked_2	9	17	400	0	300	300	0	0	479	50	0	1	0	0	0	1	blank2r.bmp	0	1	+	0	8	C4r.bmp	492	1	blank2r.bmp	786	1	BMVZ	786	1	blank2r.bmp	866	1	schlau	866	1	!	1239	1	!	-1	0	0	0	0	0	0	0	0	0	0	0	0	0	0	0	0	0	0	0	0	0	0	0	0	0	0	0
121218	09:01:30	09:15:04	811778	5.0.10.0	4_exp_AWA_CON_EVA_AMP	6	Rpleas_acq	Same	Rpleas	Bmasked	CS_B	2pleas	distractor2	CONbeforeEVA	cond_US_pleas_123_masked_CS2	condtest_masked_2	9	18	400	0	300	300	0	0	507	50	0	1	0	0	0	1	blank2r.bmp	0	1	+	0	3	B3r.bmp	492	1	blank2r.bmp	786	1	GKQX	786	1	blank2r.bmp	866	3	loyal	866	1	!	1239	1	!	-1	0	0	0	0	0	0	0	0	0	0	0	0	0	0	0	0	0	0	0	0	0	0	0	0	0	0	0
121218	09:01:30	09:15:06	814164	5.0.10.0	4_exp_AWA_CON_EVA_AMP	6	Rpleas_acq	Same	Rpleas	Bmasked	CS_B	2pleas	distractor2	CONbeforeEVA	cond_US_unple_123_masked_CS2	condtest_masked_2	9	19	400	0	300	300	0	0	608	46	0	1	0	0	0	1	blank2r.bmp	0	1	+	0	7	C3r.bmp	492	1	blank2r.bmp	786	1	GKQX	786	1	blank2r.bmp	866	2	eitel	866	1	!	1239	1	!	-1	0	0	0	0	0	0	0	0	0	0	0	0	0	0	0	0	0	0	0	0	0	0	0	0	0	0	0
121218	09:01:30	09:15:09	816376	5.0.10.0	4_exp_AWA_CON_EVA_AMP	6	Rpleas_acq	Same	Rpleas	Bmasked	CS_B	2pleas	distractor2	CONbeforeEVA	cond_new_pleas_456_masked_CS2	condtest_masked_2	9	20	400	1	300	300	0	0	400	50	0	1	0	0	0	1	blank2r.bmp	0	1	+	0	6	C2r.bmp	492	1	blank2r.bmp	786	1	GKQX	786	1	blank2r.bmp	866	3	fair	866	1	!	1239	1	!	1306	0	0	0	0	0	0	0	0	0	0	0	0	0	0	0	0	0	0	0	0	0	0	0	0	0	0	0
121218	09:01:30	09:15:11	818629	5.0.10.0	4_exp_AWA_CON_EVA_AMP	6	Rpleas_acq	Same	Rpleas	Bmasked	CS_B	2pleas	distractor2	CONbeforeEVA	cond_US_pleas_123_masked_CS1	condtest_masked_2	9	21	400	0	300	300	0	0	479	50	0	1	0	0	0	1	blank2r.bmp	0	1	+	0	8	C4r.bmp	492	1	blank2r.bmp	786	1	BMVZ	786	1	blank2r.bmp	866	2	ehrlich	866	1	!	1239	1	!	-1	0	0	0	0	0	0	0	0	0	0	0	0	0	0	0	0	0	0	0	0	0	0	0	0	0	0	0
121218	09:01:30	09:15:13	820908	5.0.10.0	4_exp_AWA_CON_EVA_AMP	6	Rpleas_acq	Same	Rpleas	Bmasked	CS_B	2pleas	distractor2	CONbeforeEVA	cond_US_unple_123_masked_CS1	condtest_masked_2	9	22	400	0	300	300	0	0	496	46	0	1	0	0	0	1	blank2r.bmp	0	1	+	0	1	B1r.bmp	492	1	blank2r.bmp	786	1	BMVZ	786	1	blank2r.bmp	866	3	lasch	866	1	!	1239	1	!	-1	0	0	0	0	0	0	0	0	0	0	0	0	0	0	0	0	0	0	0	0	0	0	0	0	0	0	0
121218	09:01:30	09:15:15	823027	5.0.10.0	4_exp_AWA_CON_EVA_AMP	6	Rpleas_acq	Same	Rpleas	Bmasked	CS_B	2pleas	distractor2	CONbeforeEVA	cond_new_unple_456_masked_CS2	condtest_masked_2	9	23	400	0	300	300	0	0	332	50	0	0	0	0	0	1	blank2r.bmp	0	1	+	0	5	C1r.bmp	492	1	blank2r.bmp	786	1	GKQX	786	1	blank2r.bmp	866	3	faul	866	1	!	-1	1	!	-1	0	0	0	0	0	0	0	0	0	0	0	0	0	0	0	0	0	0	0	0	0	0	0	0	0	0	0
121218	09:01:30	09:15:17	825213	5.0.10.0	4_exp_AWA_CON_EVA_AMP	6	Rpleas_acq	Same	Rpleas	Bmasked	CS_B	2pleas	distractor2	CONbeforeEVA	cond_US_pleas_123_masked_CS2	condtest_masked_2	9	24	400	1	300	300	0	0	384	50	0	1	0	0	0	1	blank2r.bmp	0	1	+	0	7	C3r.bmp	492	1	blank2r.bmp	786	1	GKQX	786	1	blank2r.bmp	866	1	retten	866	1	!	1239	1	!	1279	0	0	0	0	0	0	0	0	0	0	0	0	0	0	0	0	0	0	0	0	0	0	0	0	0	0	0
121218	09:01:30	09:15:20	827478	5.0.10.0	4_exp_AWA_CON_EVA_AMP	6	Rpleas_acq	Same	Rpleas	Bmasked	CS_B	2pleas	distractor2	CONbeforeEVA	cond_new_unple_456_masked_CS2	condtest_masked_2	9	25	400	0	300	300	0	0	496	46	0	1	0	0	0	1	blank2r.bmp	0	1	+	0	3	B3r.bmp	492	1	blank2r.bmp	786	1	GKQX	786	1	blank2r.bmp	866	1	schroff	866	1	!	1239	1	!	-1	0	0	0	0	0	0	0	0	0	0	0	0	0	0	0	0	0	0	0	0	0	0	0	0	0	0	0
121218	09:01:30	09:15:22	829731	5.0.10.0	4_exp_AWA_CON_EVA_AMP	6	Rpleas_acq	Same	Rpleas	Bmasked	CS_B	2pleas	distractor2	CONbeforeEVA	cond_US_pleas_123_masked_CS1	condtest_masked_2	9	26	400	1	300	300	0	0	440	50	0	1	0	0	0	1	blank2r.bmp	0	1	+	0	2	B2r.bmp	492	1	blank2r.bmp	786	1	BMVZ	786	1	blank2r.bmp	866	1	retten	866	1	!	1239	1	!	1346	0	0	0	0	0	0	0	0	0	0	0	0	0	0	0	0	0	0	0	0	0	0	0	0	0	0	0
121218	09:01:30	09:15:24	832063	5.0.10.0	4_exp_AWA_CON_EVA_AMP	6	Rpleas_acq	Same	Rpleas	Bmasked	CS_B	2pleas	distractor2	CONbeforeEVA	cond_US_unple_123_masked_CS1	condtest_masked_2	9	27	400	0	300	300	0	0	567	46	0	1	0	0	0	1	blank2r.bmp	0	1	+	0	4	B4r.bmp	492	1	blank2r.bmp	786	1	BMVZ	786	1	blank2r.bmp	866	1	rächen	866	1	!	1239	1	!	-1	0	0	0	0	0	0	0	0	0	0	0	0	0	0	0	0	0	0	0	0	0	0	0	0	0	0	0
121218	09:01:30	09:15:27	834329	5.0.10.0	4_exp_AWA_CON_EVA_AMP	6	Rpleas_acq	Same	Rpleas	Bmasked	CS_B	2pleas	distractor2	CONbeforeEVA	cond_new_pleas_456_masked_CS1	condtest_masked_2	9	28	400	0	300	300	0	0	479	50	0	1	0	0	0	1	blank2r.bmp	0	1	+	0	6	C2r.bmp	492	1	blank2r.bmp	786	1	BMVZ	786	1	blank2r.bmp	866	1	schlau	866	1	!	1239	1	!	-1	0	0	0	0	0	0	0	0	0	0	0	0	0	0	0	0	0	0	0	0	0	0	0	0	0	0	0
121218	09:01:30	09:15:29	836594	5.0.10.0	4_exp_AWA_CON_EVA_AMP	6	Rpleas_acq	Same	Rpleas	Bmasked	CS_B	2pleas	distractor2	CONbeforeEVA	cond_new_pleas_456_masked_CS1	condtest_masked_2	9	29	400	1	300	300	0	0	448	50	0	1	0	0	0	1	blank2r.bmp	0	1	+	0	6	C2r.bmp	492	1	blank2r.bmp	786	1	BMVZ	786	1	blank2r.bmp	866	3	fair	866	1	!	1239	1	!	1346	0	0	0	0	0	0	0	0	0	0	0	0	0	0	0	0	0	0	0	0	0	0	0	0	0	0	0
121218	09:01:30	09:15:31	838860	5.0.10.0	4_exp_AWA_CON_EVA_AMP	6	Rpleas_acq	Same	Rpleas	Bmasked	CS_B	2pleas	distractor2	CONbeforeEVA	cond_new_unple_456_masked_CS2	condtest_masked_2	9	30	400	0	300	300	0	0	496	46	0	1	0	0	0	1	blank2r.bmp	0	1	+	0	3	B3r.bmp	492	1	blank2r.bmp	786	1	GKQX	786	1	blank2r.bmp	866	3	faul	866	1	!	1239	1	!	-1	0	0	0	0	0	0	0	0	0	0	0	0	0	0	0	0	0	0	0	0	0	0	0	0	0	0	0
121218	09:01:30	09:15:33	841019	5.0.10.0	4_exp_AWA_CON_EVA_AMP	6	Rpleas_acq	Same	Rpleas	Bmasked	CS_B	2pleas	distractor2	CONbeforeEVA	cond_new_pleas_456_masked_CS2	condtest_masked_2	9	31	400	1	300	300	0	0	346	50	0	1	0	0	0	1	blank2r.bmp	0	1	+	0	2	B2r.bmp	492	1	blank2r.bmp	786	1	GKQX	786	1	blank2r.bmp	866	2	schön	866	1	!	1239	1	!	1252	0	0	0	0	0	0	0	0	0	0	0	0	0	0	0	0	0	0	0	0	0	0	0	0	0	0	0
121218	09:01:30	09:15:36	843298	5.0.10.0	4_exp_AWA_CON_EVA_AMP	6	Rpleas_acq	Same	Rpleas	Bmasked	CS_B	2pleas	distractor2	CONbeforeEVA	cond_new_pleas_456_masked_CS2	condtest_masked_2	9	32	400	0	300	300	0	0	501	50	0	1	0	0	0	1	blank2r.bmp	0	1	+	0	5	C1r.bmp	492	1	blank2r.bmp	786	1	GKQX	786	1	blank2r.bmp	866	1	schlau	866	1	!	1239	1	!	-1	0	0	0	0	0	0	0	0	0	0	0	0	0	0	0	0	0	0	0	0	0	0	0	0	0	0	0
121218	09:01:30	09:15:38	845564	5.0.10.0	4_exp_AWA_CON_EVA_AMP	6	Rpleas_acq	Same	Rpleas	Bmasked	CS_B	2pleas	distractor2	CONbeforeEVA	cond_US_unple_123_masked_CS1	condtest_masked_2	9	33	400	1	300	300	0	0	441	46	0	1	0	0	0	1	blank2r.bmp	0	1	+	0	8	C4r.bmp	492	1	blank2r.bmp	786	1	BMVZ	786	1	blank2r.bmp	866	2	eitel	866	1	!	1239	1	!	1346	0	0	0	0	0	0	0	0	0	0	0	0	0	0	0	0	0	0	0	0	0	0	0	0	0	0	0
121218	09:01:30	09:15:40	847790	5.0.10.0	4_exp_AWA_CON_EVA_AMP	6	Rpleas_acq	Same	Rpleas	Bmasked	CS_B	2pleas	distractor2	CONbeforeEVA	cond_US_unple_123_masked_CS2	condtest_masked_2	9	34	400	1	300	300	0	0	429	46	0	1	0	0	0	1	blank2r.bmp	0	1	+	0	1	B1r.bmp	492	1	blank2r.bmp	786	1	GKQX	786	1	blank2r.bmp	866	3	lasch	866	1	!	1239	1	!	1332	0	0	0	0	0	0	0	0	0	0	0	0	0	0	0	0	0	0	0	0	0	0	0	0	0	0	0
121218	09:01:30	09:15:42	850055	5.0.10.0	4_exp_AWA_CON_EVA_AMP	6	Rpleas_acq	Same	Rpleas	Bmasked	CS_B	2pleas	distractor2	CONbeforeEVA	cond_new_unple_456_masked_CS1	condtest_masked_2	9	35	400	0	300	300	0	0	479	46	0	1	0	0	0	1	blank2r.bmp	0	1	+	0	4	B4r.bmp	492	1	blank2r.bmp	786	1	BMVZ	786	1	blank2r.bmp	866	2	schlecht	866	1	!	1239	1	!	-1	0	0	0	0	0	0	0	0	0	0	0	0	0	0	0	0	0	0	0	0	0	0	0	0	0	0	0
121218	09:01:30	09:15:45	852295	5.0.10.0	4_exp_AWA_CON_EVA_AMP	6	Rpleas_acq	Same	Rpleas	Bmasked	CS_B	2pleas	distractor2	CONbeforeEVA	cond_US_unple_123_masked_CS2	condtest_masked_2	9	36	400	1	300	300	0	0	435	50	0	0	0	0	0	1	blank2r.bmp	0	1	+	0	7	C3r.bmp	492	1	blank2r.bmp	786	1	GKQX	786	1	blank2r.bmp	866	1	rächen	866	1	!	1239	1	!	1332	0	0	0	0	0	0	0	0	0	0	0	0	0	0	0	0	0	0	0	0	0	0	0	0	0	0	0
121218	09:01:30	09:15:47	854374	5.0.10.0	4_exp_AWA_CON_EVA_AMP	6	Rpleas_acq	Same	Rpleas	Bmasked	CS_B	2pleas	distractor2	CONbeforeEVA	cond_new_pleas_456_masked_CS1	condtest_masked_2	9	37	400	0	300	300	0	0	313	50	0	1	0	0	0	1	blank2r.bmp	0	1	+	0	7	C3r.bmp	492	1	blank2r.bmp	786	1	BMVZ	786	1	blank2r.bmp	866	3	fair	866	1	!	-1	1	!	-1	0	0	0	0	0	0	0	0	0	0	0	0	0	0	0	0	0	0	0	0	0	0	0	0	0	0	0
121218	09:01:30	09:15:49	856639	5.0.10.0	4_exp_AWA_CON_EVA_AMP	6	Rpleas_acq	Same	Rpleas	Bmasked	CS_B	2pleas	distractor2	CONbeforeEVA	cond_US_pleas_123_masked_CS2	condtest_masked_2	9	38	400	1	300	300	0	0	449	50	0	1	0	0	0	1	blank2r.bmp	0	1	+	0	8	C4r.bmp	492	1	blank2r.bmp	786	1	GKQX	786	1	blank2r.bmp	866	3	loyal	866	1	!	1239	1	!	1346	0	0	0	0	0	0	0	0	0	0	0	0	0	0	0	0	0	0	0	0	0	0	0	0	0	0	0
121218	09:01:30	09:15:51	858825	5.0.10.0	4_exp_AWA_CON_EVA_AMP	6	Rpleas_acq	Same	Rpleas	Bmasked	CS_B	2pleas	distractor2	CONbeforeEVA	cond_new_pleas_456_masked_CS1	condtest_masked_2	9	39	400	1	300	300	0	0	398	50	0	1	0	0	0	1	blank2r.bmp	0	1	+	0	4	B4r.bmp	492	1	blank2r.bmp	786	1	BMVZ	786	1	blank2r.bmp	866	2	schön	866	1	!	1239	1	!	1292	0	0	0	0	0	0	0	0	0	0	0	0	0	0	0	0	0	0	0	0	0	0	0	0	0	0	0
121218	09:01:30	09:15:53	861038	5.0.10.0	4_exp_AWA_CON_EVA_AMP	6	Rpleas_acq	Same	Rpleas	Bmasked	CS_B	2pleas	distractor2	CONbeforeEVA	cond_US_pleas_123_masked_CS1	condtest_masked_2	9	40	400	1	300	300	0	0	423	50	0	1	0	0	0	1	blank2r.bmp	0	1	+	0	1	B1r.bmp	492	1	blank2r.bmp	786	1	BMVZ	786	1	blank2r.bmp	866	2	ehrlich	866	1	!	1239	1	!	1319	0	0	0	0	0	0	0	0	0	0	0	0	0	0	0	0	0	0	0	0	0	0	0	0	0	0	0
121218	09:01:30	09:16:09	876471	5.0.10.0	4_exp_AWA_CON_EVA_AMP	6	Rpleas_acq	Same	Rpleas	Bmasked	CS_B	2pleas	distractor2	CONbeforeEVA	cond_new_unple_123_masked_CS2	condtest_masked_3	10	1	400	1	300	300	0	0	418	46	0	1	0	0	0	1	blank2r.bmp	0	1	+	0	2	B2r.bmp	492	1	blank2r.bmp	786	1	GKQX	786	1	blank2r.bmp	866	3	leiden	866	1	!	1239	1	!	1319	0	0	0	0	0	0	0	0	0	0	0	0	0	0	0	0	0	0	0	0	0	0	0	0	0	0	0
121218	09:01:30	09:16:11	878683	5.0.10.0	4_exp_AWA_CON_EVA_AMP	6	Rpleas_acq	Same	Rpleas	Bmasked	CS_B	2pleas	distractor2	CONbeforeEVA	cond_new_pleas_123_masked_CS2	condtest_masked_3	10	2	400	1	300	300	0	0	418	50	0	1	0	0	0	1	blank2r.bmp	0	1	+	0	6	C2r.bmp	492	1	blank2r.bmp	786	1	GKQX	786	1	blank2r.bmp	866	2	spielen	866	1	!	1239	1	!	1319	0	0	0	0	0	0	0	0	0	0	0	0	0	0	0	0	0	0	0	0	0	0	0	0	0	0	0
121218	09:01:30	09:16:13	880936	5.0.10.0	4_exp_AWA_CON_EVA_AMP	6	Rpleas_acq	Same	Rpleas	Bmasked	CS_B	2pleas	distractor2	CONbeforeEVA	cond_new_pleas_123_masked_CS2	condtest_masked_3	10	3	400	1	300	300	0	0	459	50	0	1	0	0	0	1	blank2r.bmp	0	1	+	0	5	C1r.bmp	492	1	blank2r.bmp	786	1	GKQX	786	1	blank2r.bmp	866	1	helfen	866	1	!	1239	1	!	1359	0	0	0	0	0	0	0	0	0	0	0	0	0	0	0	0	0	0	0	0	0	0	0	0	0	0	0
121218	09:01:30	09:16:15	883268	5.0.10.0	4_exp_AWA_CON_EVA_AMP	6	Rpleas_acq	Same	Rpleas	Bmasked	CS_B	2pleas	distractor2	CONbeforeEVA	cond_US_unple_456_masked_CS2	condtest_masked_3	10	4	400	0	300	300	0	0	559	46	0	1	0	0	0	1	blank2r.bmp	0	1	+	0	3	B3r.bmp	492	1	blank2r.bmp	786	1	GKQX	786	1	blank2r.bmp	866	1	tyrannisch	866	1	!	1239	1	!	-1	0	0	0	0	0	0	0	0	0	0	0	0	0	0	0	0	0	0	0	0	0	0	0	0	0	0	0
121218	09:01:30	09:16:18	885547	5.0.10.0	4_exp_AWA_CON_EVA_AMP	6	Rpleas_acq	Same	Rpleas	Bmasked	CS_B	2pleas	distractor2	CONbeforeEVA	cond_US_pleas_456_masked_CS2	condtest_masked_3	10	5	400	1	300	300	0	0	466	50	0	1	0	0	0	1	blank2r.bmp	0	1	+	0	8	C4r.bmp	492	1	blank2r.bmp	786	1	GKQX	786	1	blank2r.bmp	866	2	treu	866	1	!	1239	1	!	1372	0	0	0	0	0	0	0	0	0	0	0	0	0	0	0	0	0	0	0	0	0	0	0	0	0	0	0
121218	09:01:30	09:16:20	887853	5.0.10.0	4_exp_AWA_CON_EVA_AMP	6	Rpleas_acq	Same	Rpleas	Bmasked	CS_B	2pleas	distractor2	CONbeforeEVA	cond_new_unple_123_masked_CS2	condtest_masked_3	10	6	400	0	300	300	0	0	538	46	0	1	0	0	0	1	blank2r.bmp	0	1	+	0	1	B1r.bmp	492	1	blank2r.bmp	786	1	GKQX	786	1	blank2r.bmp	866	2	strafen	866	1	!	1239	1	!	-1	0	0	0	0	0	0	0	0	0	0	0	0	0	0	0	0	0	0	0	0	0	0	0	0	0	0	0
121218	09:01:30	09:16:22	890145	5.0.10.0	4_exp_AWA_CON_EVA_AMP	6	Rpleas_acq	Same	Rpleas	Bmasked	CS_B	2pleas	distractor2	CONbeforeEVA	cond_new_unple_123_masked_CS1	condtest_masked_3	10	7	400	0	300	300	0	0	507	46	0	1	0	0	0	1	blank2r.bmp	0	1	+	0	5	C1r.bmp	492	1	blank2r.bmp	786	1	BMVZ	786	1	blank2r.bmp	866	1	hindern	866	1	!	1239	1	!	-1	0	0	0	0	0	0	0	0	0	0	0	0	0	0	0	0	0	0	0	0	0	0	0	0	0	0	0
121218	09:01:30	09:16:25	892424	5.0.10.0	4_exp_AWA_CON_EVA_AMP	6	Rpleas_acq	Same	Rpleas	Bmasked	CS_B	2pleas	distractor2	CONbeforeEVA	cond_new_unple_123_masked_CS2	condtest_masked_3	10	8	400	1	300	300	0	0	453	46	0	1	0	0	0	1	blank2r.bmp	0	1	+	0	7	C3r.bmp	492	1	blank2r.bmp	786	1	GKQX	786	1	blank2r.bmp	866	3	leiden	866	1	!	1239	1	!	1359	0	0	0	0	0	0	0	0	0	0	0	0	0	0	0	0	0	0	0	0	0	0	0	0	0	0	0
121218	09:01:30	09:16:27	894690	5.0.10.0	4_exp_AWA_CON_EVA_AMP	6	Rpleas_acq	Same	Rpleas	Bmasked	CS_B	2pleas	distractor2	CONbeforeEVA	cond_US_unple_456_masked_CS1	condtest_masked_3	10	9	400	0	300	300	0	0	505	46	0	1	0	0	0	1	blank2r.bmp	0	1	+	0	3	B3r.bmp	492	1	blank2r.bmp	786	1	BMVZ	786	1	blank2r.bmp	866	2	tot	866	1	!	1239	1	!	-1	0	0	0	0	0	0	0	0	0	0	0	0	0	0	0	0	0	0	0	0	0	0	0	0	0	0	0
121218	09:01:30	09:16:29	896929	5.0.10.0	4_exp_AWA_CON_EVA_AMP	6	Rpleas_acq	Same	Rpleas	Bmasked	CS_B	2pleas	distractor2	CONbeforeEVA	cond_US_unple_456_masked_CS2	condtest_masked_3	10	10	400	1	300	300	0	0	426	50	0	0	0	0	0	1	blank2r.bmp	0	1	+	0	6	C2r.bmp	492	1	blank2r.bmp	786	1	GKQX	786	1	blank2r.bmp	866	3	fanatisch	866	1	!	1239	1	!	1332	0	0	0	0	0	0	0	0	0	0	0	0	0	0	0	0	0	0	0	0	0	0	0	0	0	0	0
121218	09:01:30	09:16:31	899035	5.0.10.0	4_exp_AWA_CON_EVA_AMP	6	Rpleas_acq	Same	Rpleas	Bmasked	CS_B	2pleas	distractor2	CONbeforeEVA	cond_US_pleas_456_masked_CS1	condtest_masked_3	10	11	400	0	300	300	0	0	325	50	0	1	0	0	0	1	blank2r.bmp	0	1	+	0	4	B4r.bmp	492	1	blank2r.bmp	786	1	BMVZ	786	1	blank2r.bmp	866	3	freundlich	866	1	!	-1	1	!	-1	0	0	0	0	0	0	0	0	0	0	0	0	0	0	0	0	0	0	0	0	0	0	0	0	0	0	0
121218	09:01:30	09:16:34	901341	5.0.10.0	4_exp_AWA_CON_EVA_AMP	6	Rpleas_acq	Same	Rpleas	Bmasked	CS_B	2pleas	distractor2	CONbeforeEVA	cond_US_pleas_456_masked_CS2	condtest_masked_3	10	12	400	0	300	300	0	0	520	50	0	1	0	0	0	1	blank2r.bmp	0	1	+	0	2	B2r.bmp	492	1	blank2r.bmp	786	1	GKQX	786	1	blank2r.bmp	866	1	tolerant	866	1	!	1239	1	!	-1	0	0	0	0	0	0	0	0	0	0	0	0	0	0	0	0	0	0	0	0	0	0	0	0	0	0	0
121218	09:01:30	09:16:36	903633	5.0.10.0	4_exp_AWA_CON_EVA_AMP	6	Rpleas_acq	Same	Rpleas	Bmasked	CS_B	2pleas	distractor2	CONbeforeEVA	cond_US_unple_456_masked_CS2	condtest_masked_3	10	13	400	0	300	300	0	0	505	46	0	1	0	0	0	1	blank2r.bmp	0	1	+	0	5	C1r.bmp	492	1	blank2r.bmp	786	1	GKQX	786	1	blank2r.bmp	866	2	tot	866	1	!	1239	1	!	-1	0	0	0	0	0	0	0	0	0	0	0	0	0	0	0	0	0	0	0	0	0	0	0	0	0	0	0
121218	09:01:30	09:16:38	905859	5.0.10.0	4_exp_AWA_CON_EVA_AMP	6	Rpleas_acq	Same	Rpleas	Bmasked	CS_B	2pleas	distractor2	CONbeforeEVA	cond_new_unple_123_masked_CS2	condtest_masked_3	10	14	400	1	300	300	0	0	422	46	0	1	0	0	0	1	blank2r.bmp	0	1	+	0	7	C3r.bmp	492	1	blank2r.bmp	786	1	GKQX	786	1	blank2r.bmp	866	1	hindern	866	1	!	1239	1	!	1319	0	0	0	0	0	0	0	0	0	0	0	0	0	0	0	0	0	0	0	0	0	0	0	0	0	0	0
121218	09:01:30	09:16:40	907925	5.0.10.0	4_exp_AWA_CON_EVA_AMP	6	Rpleas_acq	Same	Rpleas	Bmasked	CS_B	2pleas	distractor2	CONbeforeEVA	cond_new_unple_123_masked_CS1	condtest_masked_3	10	15	400	0	300	300	0	0	292	50	0	0	0	0	0	1	blank2r.bmp	0	1	+	0	3	B3r.bmp	492	1	blank2r.bmp	786	1	BMVZ	786	1	blank2r.bmp	866	2	strafen	866	1	!	-1	1	!	-1	0	0	0	0	0	0	0	0	0	0	0	0	0	0	0	0	0	0	0	0	0	0	0	0	0	0	0
121218	09:01:30	09:16:43	910310	5.0.10.0	4_exp_AWA_CON_EVA_AMP	6	Rpleas_acq	Same	Rpleas	Bmasked	CS_B	2pleas	distractor2	CONbeforeEVA	cond_new_unple_123_masked_CS1	condtest_masked_3	10	16	400	0	300	300	0	0	604	46	0	1	0	0	0	1	blank2r.bmp	0	1	+	0	6	C2r.bmp	492	1	blank2r.bmp	786	1	BMVZ	786	1	blank2r.bmp	866	2	strafen	866	1	!	1239	1	!	-1	0	0	0	0	0	0	0	0	0	0	0	0	0	0	0	0	0	0	0	0	0	0	0	0	0	0	0
121218	09:01:30	09:16:45	912469	5.0.10.0	4_exp_AWA_CON_EVA_AMP	6	Rpleas_acq	Same	Rpleas	Bmasked	CS_B	2pleas	distractor2	CONbeforeEVA	cond_US_pleas_456_masked_CS1	condtest_masked_3	10	17	400	1	300	300	0	0	346	50	0	1	0	0	0	1	blank2r.bmp	0	1	+	0	1	B1r.bmp	492	1	blank2r.bmp	786	1	BMVZ	786	1	blank2r.bmp	866	1	tolerant	866	1	!	1239	1	!	1252	0	0	0	0	0	0	0	0	0	0	0	0	0	0	0	0	0	0	0	0	0	0	0	0	0	0	0
121218	09:01:30	09:16:47	914722	5.0.10.0	4_exp_AWA_CON_EVA_AMP	6	Rpleas_acq	Same	Rpleas	Bmasked	CS_B	2pleas	distractor2	CONbeforeEVA	cond_US_pleas_456_masked_CS1	condtest_masked_3	10	18	400	0	300	300	0	0	490	50	0	1	0	0	0	1	blank2r.bmp	0	1	+	0	4	B4r.bmp	492	1	blank2r.bmp	786	1	BMVZ	786	1	blank2r.bmp	866	2	treu	866	1	!	1239	1	!	-1	0	0	0	0	0	0	0	0	0	0	0	0	0	0	0	0	0	0	0	0	0	0	0	0	0	0	0
121218	09:01:30	09:16:49	916934	5.0.10.0	4_exp_AWA_CON_EVA_AMP	6	Rpleas_acq	Same	Rpleas	Bmasked	CS_B	2pleas	distractor2	CONbeforeEVA	cond_new_pleas_123_masked_CS1	condtest_masked_3	10	19	400	1	300	300	0	0	404	50	0	1	0	0	0	1	blank2r.bmp	0	1	+	0	8	C4r.bmp	492	1	blank2r.bmp	786	1	BMVZ	786	1	blank2r.bmp	866	3	lachen	866	1	!	1239	1	!	1306	0	0	0	0	0	0	0	0	0	0	0	0	0	0	0	0	0	0	0	0	0	0	0	0	0	0	0
121218	09:01:30	09:16:51	919186	5.0.10.0	4_exp_AWA_CON_EVA_AMP	6	Rpleas_acq	Same	Rpleas	Bmasked	CS_B	2pleas	distractor2	CONbeforeEVA	cond_new_pleas_123_masked_CS2	condtest_masked_3	10	20	400	0	300	300	0	0	481	50	0	1	0	0	0	1	blank2r.bmp	0	1	+	0	2	B2r.bmp	492	1	blank2r.bmp	786	1	GKQX	786	1	blank2r.bmp	866	3	lachen	866	1	!	1239	1	!	-1	0	0	0	0	0	0	0	0	0	0	0	0	0	0	0	0	0	0	0	0	0	0	0	0	0	0	0
121218	09:01:30	09:16:54	921372	5.0.10.0	4_exp_AWA_CON_EVA_AMP	6	Rpleas_acq	Same	Rpleas	Bmasked	CS_B	2pleas	distractor2	CONbeforeEVA	cond_US_pleas_456_masked_CS2	condtest_masked_3	10	21	400	1	300	300	0	0	385	46	0	0	0	0	0	1	blank2r.bmp	0	1	+	0	4	B4r.bmp	492	1	blank2r.bmp	786	1	GKQX	786	1	blank2r.bmp	866	3	freundlich	866	1	!	1239	1	!	1279	0	0	0	0	0	0	0	0	0	0	0	0	0	0	0	0	0	0	0	0	0	0	0	0	0	0	0
121218	09:01:30	09:16:56	923638	5.0.10.0	4_exp_AWA_CON_EVA_AMP	6	Rpleas_acq	Same	Rpleas	Bmasked	CS_B	2pleas	distractor2	CONbeforeEVA	cond_new_unple_123_masked_CS1	condtest_masked_3	10	22	400	0	300	300	0	0	479	46	0	1	0	0	0	1	blank2r.bmp	0	1	+	0	5	C1r.bmp	492	1	blank2r.bmp	786	1	BMVZ	786	1	blank2r.bmp	866	3	leiden	866	1	!	1239	1	!	-1	0	0	0	0	0	0	0	0	0	0	0	0	0	0	0	0	0	0	0	0	0	0	0	0	0	0	0
121218	09:01:30	09:16:58	925810	5.0.10.0	4_exp_AWA_CON_EVA_AMP	6	Rpleas_acq	Same	Rpleas	Bmasked	CS_B	2pleas	distractor2	CONbeforeEVA	cond_new_pleas_123_masked_CS2	condtest_masked_3	10	23	400	1	300	300	0	0	348	50	0	1	0	0	0	1	blank2r.bmp	0	1	+	0	2	B2r.bmp	492	1	blank2r.bmp	786	1	GKQX	786	1	blank2r.bmp	866	1	helfen	866	1	!	1239	1	!	1252	0	0	0	0	0	0	0	0	0	0	0	0	0	0	0	0	0	0	0	0	0	0	0	0	0	0	0
121218	09:01:30	09:17:00	928063	5.0.10.0	4_exp_AWA_CON_EVA_AMP	6	Rpleas_acq	Same	Rpleas	Bmasked	CS_B	2pleas	distractor2	CONbeforeEVA	cond_US_pleas_456_masked_CS1	condtest_masked_3	10	24	400	0	300	300	0	0	479	50	0	1	0	0	0	1	blank2r.bmp	0	1	+	0	6	C2r.bmp	492	1	blank2r.bmp	786	1	BMVZ	786	1	blank2r.bmp	866	2	treu	866	1	!	1239	1	!	-1	0	0	0	0	0	0	0	0	0	0	0	0	0	0	0	0	0	0	0	0	0	0	0	0	0	0	0
121218	09:01:30	09:17:03	930395	5.0.10.0	4_exp_AWA_CON_EVA_AMP	6	Rpleas_acq	Same	Rpleas	Bmasked	CS_B	2pleas	distractor2	CONbeforeEVA	cond_new_unple_123_masked_CS2	condtest_masked_3	10	25	400	0	300	300	0	0	546	46	0	1	0	0	0	1	blank2r.bmp	0	1	+	0	8	C4r.bmp	492	1	blank2r.bmp	786	1	GKQX	786	1	blank2r.bmp	866	1	hindern	866	1	!	1239	1	!	-1	0	0	0	0	0	0	0	0	0	0	0	0	0	0	0	0	0	0	0	0	0	0	0	0	0	0	0
121218	09:01:30	09:17:05	932488	5.0.10.0	4_exp_AWA_CON_EVA_AMP	6	Rpleas_acq	Same	Rpleas	Bmasked	CS_B	2pleas	distractor2	CONbeforeEVA	cond_new_pleas_123_masked_CS1	condtest_masked_3	10	26	400	0	300	300	0	0	305	50	0	1	0	0	0	1	blank2r.bmp	0	1	+	0	1	B1r.bmp	492	1	blank2r.bmp	786	1	BMVZ	786	1	blank2r.bmp	866	2	spielen	866	1	!	-1	1	!	-1	0	0	0	0	0	0	0	0	0	0	0	0	0	0	0	0	0	0	0	0	0	0	0	0	0	0	0
121218	09:01:30	09:17:07	934767	5.0.10.0	4_exp_AWA_CON_EVA_AMP	6	Rpleas_acq	Same	Rpleas	Bmasked	CS_B	2pleas	distractor2	CONbeforeEVA	cond_US_unple_456_masked_CS2	condtest_masked_3	10	27	400	1	300	300	0	0	465	50	0	0	0	0	0	1	blank2r.bmp	0	1	+	0	3	B3r.bmp	492	1	blank2r.bmp	786	1	GKQX	786	1	blank2r.bmp	866	1	tyrannisch	866	1	!	1239	1	!	1372	0	0	0	0	0	0	0	0	0	0	0	0	0	0	0	0	0	0	0	0	0	0	0	0	0	0	0
121218	09:01:30	09:17:09	937019	5.0.10.0	4_exp_AWA_CON_EVA_AMP	6	Rpleas_acq	Same	Rpleas	Bmasked	CS_B	2pleas	distractor2	CONbeforeEVA	cond_new_pleas_123_masked_CS1	condtest_masked_3	10	28	400	0	300	300	0	0	485	50	0	1	0	0	0	1	blank2r.bmp	0	1	+	0	7	C3r.bmp	492	1	blank2r.bmp	786	1	BMVZ	786	1	blank2r.bmp	866	1	helfen	866	1	!	1239	1	!	-1	0	0	0	0	0	0	0	0	0	0	0	0	0	0	0	0	0	0	0	0	0	0	0	0	0	0	0
121218	09:01:30	09:17:11	939125	5.0.10.0	4_exp_AWA_CON_EVA_AMP	6	Rpleas_acq	Same	Rpleas	Bmasked	CS_B	2pleas	distractor2	CONbeforeEVA	cond_new_pleas_123_masked_CS1	condtest_masked_3	10	29	400	0	300	300	0	0	319	50	0	1	0	0	0	1	blank2r.bmp	0	1	+	0	4	B4r.bmp	492	1	blank2r.bmp	786	1	BMVZ	786	1	blank2r.bmp	866	2	spielen	866	1	!	-1	1	!	-1	0	0	0	0	0	0	0	0	0	0	0	0	0	0	0	0	0	0	0	0	0	0	0	0	0	0	0
121218	09:01:30	09:17:14	941430	5.0.10.0	4_exp_AWA_CON_EVA_AMP	6	Rpleas_acq	Same	Rpleas	Bmasked	CS_B	2pleas	distractor2	CONbeforeEVA	cond_US_unple_456_masked_CS1	condtest_masked_3	10	30	400	0	300	300	0	0	522	46	0	1	0	0	0	1	blank2r.bmp	0	1	+	0	2	B2r.bmp	492	1	blank2r.bmp	786	1	BMVZ	786	1	blank2r.bmp	866	3	fanatisch	866	1	!	1239	1	!	-1	0	0	0	0	0	0	0	0	0	0	0	0	0	0	0	0	0	0	0	0	0	0	0	0	0	0	0
121218	09:01:30	09:17:16	943696	5.0.10.0	4_exp_AWA_CON_EVA_AMP	6	Rpleas_acq	Same	Rpleas	Bmasked	CS_B	2pleas	distractor2	CONbeforeEVA	cond_US_pleas_456_masked_CS1	condtest_masked_3	10	31	400	1	300	300	0	0	452	50	0	1	0	0	0	1	blank2r.bmp	0	1	+	0	5	C1r.bmp	492	1	blank2r.bmp	786	1	BMVZ	786	1	blank2r.bmp	866	1	tolerant	866	1	!	1239	1	!	1359	0	0	0	0	0	0	0	0	0	0	0	0	0	0	0	0	0	0	0	0	0	0	0	0	0	0	0
121218	09:01:30	09:17:18	945962	5.0.10.0	4_exp_AWA_CON_EVA_AMP	6	Rpleas_acq	Same	Rpleas	Bmasked	CS_B	2pleas	distractor2	CONbeforeEVA	cond_US_pleas_456_masked_CS1	condtest_masked_3	10	32	400	0	300	300	0	0	479	50	0	1	0	0	0	1	blank2r.bmp	0	1	+	0	8	C4r.bmp	492	1	blank2r.bmp	786	1	BMVZ	786	1	blank2r.bmp	866	3	freundlich	866	1	!	1239	1	!	-1	0	0	0	0	0	0	0	0	0	0	0	0	0	0	0	0	0	0	0	0	0	0	0	0	0	0	0
