date	time	script.currenttime	script.elapsedtime	build	script.currentexpt	subject	expressions.LRpleas_acq	expressions.SameOppo	expressions.condition_Lpleas	expressions.ABmasked	expressions.conditionCS_A	expressions.condition_1pleas	expressions.condition_distractor_AMP	expressions.AWACON_AMPEVA_first	trialcode	blockcode	blocknum	trialnum	windowcenter	inwindow	pretrialpause	posttrialpause	trialduration	trialtimeout	latency	response	expressions.correctedscore	correct	values.vis_performance	values.vis_rating_sum	values.vis_rating_mean	stimulusnumber1	stimulusitem1	stimulusonset1	stimulusnumber2	stimulusitem2	stimulusonset2	stimulusnumber3	stimulusitem3	stimulusonset3	stimulusnumber4	stimulusitem4	stimulusonset4	stimulusnumber5	stimulusitem5	stimulusonset5	stimulusnumber6	stimulusitem6	stimulusonset6	stimulusnumber7	stimulusitem7	stimulusonset7	stimulusnumber8	stimulusitem8	stimulusonset8	stimulusnumber9	stimulusitem9	stimulusonset9	stimulusnumber10	stimulusitem10	stimulusonset10	stimulusnumber11	stimulusitem11	stimulusonset11	stimulusnumber12	stimulusitem12	stimulusonset12	stimulusnumber13	stimulusitem13	stimulusonset13	stimulusnumber14	stimulusitem14	stimulusonset14	stimulusnumber15	stimulusitem15	stimulusonset15	stimulusnumber16	stimulusitem16	stimulusonset16	stimulusnumber17	stimulusitem17	stimulusonset17	stimulusnumber18	stimulusitem18	stimulusonset18
030719	12:51:03	12:55:32	268224	5.0.10.0	4_exp_EVA_AMP_AWA_CON	154	Rpleas_acq	Same	Rpleas	Amasked	CS_A	1pleas	distractor2	EVAbeforeCON	acq_new_unple_masked	acq1_masked	1	1	0	0	300	300	0	0	2285	46	0	1	0	0	0	1	blank2r.bmp	0	1	+	0	3	B3r.bmp	492	1	blank2r.bmp	786	4	B4r.bmp	786	1	blank2r.bmp	866	5	sterben	866	0	0	0	0	0	0	0	0	0	0	0	0	0	0	0	0	0	0	0	0	0	0	0	0	0	0	0	0	0	0	0	0	0
030719	12:51:03	12:55:35	271076	5.0.10.0	4_exp_EVA_AMP_AWA_CON	154	Rpleas_acq	Same	Rpleas	Amasked	CS_A	1pleas	distractor2	EVAbeforeCON	acq_US_unple_masked	acq1_masked	1	2	0	0	300	300	0	0	1370	46	0	1	0	0	0	1	blank2r.bmp	0	1	+	0	2	B2r.bmp	492	1	blank2r.bmp	786	1	DHJF	786	1	blank2r.bmp	866	1	krank	866	0	0	0	0	0	0	0	0	0	0	0	0	0	0	0	0	0	0	0	0	0	0	0	0	0	0	0	0	0	0	0	0	0
030719	12:51:03	12:55:38	274408	5.0.10.0	4_exp_EVA_AMP_AWA_CON	154	Rpleas_acq	Same	Rpleas	Amasked	CS_A	1pleas	distractor2	EVAbeforeCON	acq_US_pleas_masked	acq1_masked	1	3	0	0	300	300	0	0	1849	50	0	1	0	0	0	1	blank2r.bmp	0	1	+	0	8	C4r.bmp	492	1	blank2r.bmp	786	1	CPLW	786	1	blank2r.bmp	866	2	gesittet	866	0	0	0	0	0	0	0	0	0	0	0	0	0	0	0	0	0	0	0	0	0	0	0	0	0	0	0	0	0	0	0	0	0
030719	12:51:03	12:55:41	277753	5.0.10.0	4_exp_EVA_AMP_AWA_CON	154	Rpleas_acq	Same	Rpleas	Amasked	CS_A	1pleas	distractor2	EVAbeforeCON	acq_new_unple_masked	acq1_masked	1	4	0	0	300	300	0	0	1860	46	0	1	0	0	0	1	blank2r.bmp	0	1	+	0	1	B1r.bmp	492	1	blank2r.bmp	786	3	B3r.bmp	786	1	blank2r.bmp	866	6	töten	866	0	0	0	0	0	0	0	0	0	0	0	0	0	0	0	0	0	0	0	0	0	0	0	0	0	0	0	0	0	0	0	0	0
030719	12:51:03	12:55:44	280059	5.0.10.0	4_exp_EVA_AMP_AWA_CON	154	Rpleas_acq	Same	Rpleas	Amasked	CS_A	1pleas	distractor2	EVAbeforeCON	acq_new_pleas_masked	acq1_masked	1	5	0	0	300	300	0	0	818	50	0	1	0	0	0	1	blank2r.bmp	0	1	+	0	6	C2r.bmp	492	1	blank2r.bmp	786	2	B2r.bmp	786	1	blank2r.bmp	866	4	kuss	866	0	0	0	0	0	0	0	0	0	0	0	0	0	0	0	0	0	0	0	0	0	0	0	0	0	0	0	0	0	0	0	0	0
030719	12:51:03	12:55:47	283138	5.0.10.0	4_exp_EVA_AMP_AWA_CON	154	Rpleas_acq	Same	Rpleas	Amasked	CS_A	1pleas	distractor2	EVAbeforeCON	acq_US_unple_masked	acq1_masked	1	6	0	0	300	300	0	0	1605	46	0	1	0	0	0	1	blank2r.bmp	0	1	+	0	5	C1r.bmp	492	1	blank2r.bmp	786	1	DHJF	786	1	blank2r.bmp	866	3	versagen	866	0	0	0	0	0	0	0	0	0	0	0	0	0	0	0	0	0	0	0	0	0	0	0	0	0	0	0	0	0	0	0	0	0
030719	12:51:03	12:55:50	286057	5.0.10.0	4_exp_EVA_AMP_AWA_CON	154	Rpleas_acq	Same	Rpleas	Amasked	CS_A	1pleas	distractor2	EVAbeforeCON	acq_US_pleas_masked	acq1_masked	1	7	0	0	300	300	0	0	1435	50	0	1	0	0	0	1	blank2r.bmp	0	1	+	0	7	C3r.bmp	492	1	blank2r.bmp	786	1	CPLW	786	1	blank2r.bmp	866	6	anregung	866	0	0	0	0	0	0	0	0	0	0	0	0	0	0	0	0	0	0	0	0	0	0	0	0	0	0	0	0	0	0	0	0	0
030719	12:51:03	12:55:53	289429	5.0.10.0	4_exp_EVA_AMP_AWA_CON	154	Rpleas_acq	Same	Rpleas	Amasked	CS_A	1pleas	distractor2	EVAbeforeCON	acq_new_pleas_masked	acq1_masked	1	8	0	0	300	300	0	0	1883	50	0	1	0	0	0	1	blank2r.bmp	0	1	+	0	4	B4r.bmp	492	1	blank2r.bmp	786	7	C3r.bmp	786	1	blank2r.bmp	866	2	besonnen	866	0	0	0	0	0	0	0	0	0	0	0	0	0	0	0	0	0	0	0	0	0	0	0	0	0	0	0	0	0	0	0	0	0
030719	12:51:03	12:55:56	292188	5.0.10.0	4_exp_EVA_AMP_AWA_CON	154	Rpleas_acq	Same	Rpleas	Amasked	CS_A	1pleas	distractor2	EVAbeforeCON	acq_US_pleas_masked	acq1_masked	1	9	0	0	300	300	0	0	1269	50	0	1	0	0	0	1	blank2r.bmp	0	1	+	0	3	B3r.bmp	492	1	blank2r.bmp	786	1	CPLW	786	1	blank2r.bmp	866	1	kreativ	866	0	0	0	0	0	0	0	0	0	0	0	0	0	0	0	0	0	0	0	0	0	0	0	0	0	0	0	0	0	0	0	0	0
030719	12:51:03	12:56:00	296119	5.0.10.0	4_exp_EVA_AMP_AWA_CON	154	Rpleas_acq	Same	Rpleas	Amasked	CS_A	1pleas	distractor2	EVAbeforeCON	acq_new_unple_masked	acq1_masked	1	10	0	0	300	300	0	0	2446	46	0	1	0	0	0	1	blank2r.bmp	0	1	+	0	8	C4r.bmp	492	1	blank2r.bmp	786	1	B1r.bmp	786	1	blank2r.bmp	866	2	bange	866	0	0	0	0	0	0	0	0	0	0	0	0	0	0	0	0	0	0	0	0	0	0	0	0	0	0	0	0	0	0	0	0	0
030719	12:51:03	12:56:02	298518	5.0.10.0	4_exp_EVA_AMP_AWA_CON	154	Rpleas_acq	Same	Rpleas	Amasked	CS_A	1pleas	distractor2	EVAbeforeCON	acq_US_unple_masked	acq1_masked	1	11	0	0	300	300	0	0	904	46	0	1	0	0	0	1	blank2r.bmp	0	1	+	0	4	B4r.bmp	492	1	blank2r.bmp	786	1	DHJF	786	1	blank2r.bmp	866	6	ausrottung	866	0	0	0	0	0	0	0	0	0	0	0	0	0	0	0	0	0	0	0	0	0	0	0	0	0	0	0	0	0	0	0	0	0
030719	12:51:03	12:56:05	301064	5.0.10.0	4_exp_EVA_AMP_AWA_CON	154	Rpleas_acq	Same	Rpleas	Amasked	CS_A	1pleas	distractor2	EVAbeforeCON	acq_new_pleas_masked	acq1_masked	1	12	0	0	300	300	0	0	1077	50	0	1	0	0	0	1	blank2r.bmp	0	1	+	0	7	C3r.bmp	492	1	blank2r.bmp	786	8	C4r.bmp	786	1	blank2r.bmp	866	1	vergnügt	866	0	0	0	0	0	0	0	0	0	0	0	0	0	0	0	0	0	0	0	0	0	0	0	0	0	0	0	0	0	0	0	0	0
030719	12:51:03	12:56:08	304329	5.0.10.0	4_exp_EVA_AMP_AWA_CON	154	Rpleas_acq	Same	Rpleas	Amasked	CS_A	1pleas	distractor2	EVAbeforeCON	acq_US_unple_masked	acq1_masked	1	13	0	0	300	300	0	0	1782	46	0	1	0	0	0	1	blank2r.bmp	0	1	+	0	2	B2r.bmp	492	1	blank2r.bmp	786	1	DHJF	786	1	blank2r.bmp	866	5	gierig	866	0	0	0	0	0	0	0	0	0	0	0	0	0	0	0	0	0	0	0	0	0	0	0	0	0	0	0	0	0	0	0	0	0
030719	12:51:03	12:56:10	306622	5.0.10.0	4_exp_EVA_AMP_AWA_CON	154	Rpleas_acq	Same	Rpleas	Amasked	CS_A	1pleas	distractor2	EVAbeforeCON	acq_US_unple_masked	acq1_masked	1	14	0	0	300	300	0	0	801	46	0	1	0	0	0	1	blank2r.bmp	0	1	+	0	1	B1r.bmp	492	1	blank2r.bmp	786	1	DHJF	786	1	blank2r.bmp	866	4	gemein	866	0	0	0	0	0	0	0	0	0	0	0	0	0	0	0	0	0	0	0	0	0	0	0	0	0	0	0	0	0	0	0	0	0
030719	12:51:03	12:56:12	308834	5.0.10.0	4_exp_EVA_AMP_AWA_CON	154	Rpleas_acq	Same	Rpleas	Amasked	CS_A	1pleas	distractor2	EVAbeforeCON	acq_new_unple_masked	acq1_masked	1	15	0	0	300	300	0	0	723	46	0	1	0	0	0	1	blank2r.bmp	0	1	+	0	6	C2r.bmp	492	1	blank2r.bmp	786	5	C1r.bmp	786	1	blank2r.bmp	866	4	krise	866	0	0	0	0	0	0	0	0	0	0	0	0	0	0	0	0	0	0	0	0	0	0	0	0	0	0	0	0	0	0	0	0	0
030719	12:51:03	12:56:15	311353	5.0.10.0	4_exp_EVA_AMP_AWA_CON	154	Rpleas_acq	Same	Rpleas	Amasked	CS_A	1pleas	distractor2	EVAbeforeCON	acq_new_pleas_masked	acq1_masked	1	16	0	0	300	300	0	0	1036	50	0	1	0	0	0	1	blank2r.bmp	0	1	+	0	5	C1r.bmp	492	1	blank2r.bmp	786	6	C2r.bmp	786	1	blank2r.bmp	866	3	engagiert	866	0	0	0	0	0	0	0	0	0	0	0	0	0	0	0	0	0	0	0	0	0	0	0	0	0	0	0	0	0	0	0	0	0
030719	12:51:03	12:56:18	314672	5.0.10.0	4_exp_EVA_AMP_AWA_CON	154	Rpleas_acq	Same	Rpleas	Amasked	CS_A	1pleas	distractor2	EVAbeforeCON	acq_new_unple_masked	acq1_masked	1	17	0	0	300	300	0	0	1836	46	0	1	0	0	0	1	blank2r.bmp	0	1	+	0	7	C3r.bmp	492	1	blank2r.bmp	786	6	C2r.bmp	786	1	blank2r.bmp	866	3	engstirnig	866	0	0	0	0	0	0	0	0	0	0	0	0	0	0	0	0	0	0	0	0	0	0	0	0	0	0	0	0	0	0	0	0	0
030719	12:51:03	12:56:22	318190	5.0.10.0	4_exp_EVA_AMP_AWA_CON	154	Rpleas_acq	Same	Rpleas	Amasked	CS_A	1pleas	distractor2	EVAbeforeCON	acq_US_pleas_masked	acq1_masked	1	18	0	0	300	300	0	0	2031	50	0	1	0	0	0	1	blank2r.bmp	0	1	+	0	2	B2r.bmp	492	1	blank2r.bmp	786	1	CPLW	786	1	blank2r.bmp	866	3	vertrauen	866	0	0	0	0	0	0	0	0	0	0	0	0	0	0	0	0	0	0	0	0	0	0	0	0	0	0	0	0	0	0	0	0	0
030719	12:51:03	12:56:24	320416	5.0.10.0	4_exp_EVA_AMP_AWA_CON	154	Rpleas_acq	Same	Rpleas	Amasked	CS_A	1pleas	distractor2	EVAbeforeCON	acq_new_pleas_masked	acq1_masked	1	19	0	0	300	300	0	0	742	50	0	1	0	0	0	1	blank2r.bmp	0	1	+	0	3	B3r.bmp	492	1	blank2r.bmp	786	5	C1r.bmp	786	1	blank2r.bmp	866	6	träumen	866	0	0	0	0	0	0	0	0	0	0	0	0	0	0	0	0	0	0	0	0	0	0	0	0	0	0	0	0	0	0	0	0	0
030719	12:51:03	12:56:26	322802	5.0.10.0	4_exp_EVA_AMP_AWA_CON	154	Rpleas_acq	Same	Rpleas	Amasked	CS_A	1pleas	distractor2	EVAbeforeCON	acq_US_pleas_masked	acq1_masked	1	20	0	0	300	300	0	0	913	50	0	1	0	0	0	1	blank2r.bmp	0	1	+	0	4	B4r.bmp	492	1	blank2r.bmp	786	1	CPLW	786	1	blank2r.bmp	866	5	gütig	866	0	0	0	0	0	0	0	0	0	0	0	0	0	0	0	0	0	0	0	0	0	0	0	0	0	0	0	0	0	0	0	0	0
030719	12:51:03	12:56:29	325081	5.0.10.0	4_exp_EVA_AMP_AWA_CON	154	Rpleas_acq	Same	Rpleas	Amasked	CS_A	1pleas	distractor2	EVAbeforeCON	acq_new_unple_masked	acq1_masked	1	21	0	0	300	300	0	0	802	46	0	1	0	0	0	1	blank2r.bmp	0	1	+	0	1	B1r.bmp	492	1	blank2r.bmp	786	8	C4r.bmp	786	1	blank2r.bmp	866	1	verbissen	866	0	0	0	0	0	0	0	0	0	0	0	0	0	0	0	0	0	0	0	0	0	0	0	0	0	0	0	0	0	0	0	0	0
030719	12:51:03	12:56:31	327280	5.0.10.0	4_exp_EVA_AMP_AWA_CON	154	Rpleas_acq	Same	Rpleas	Amasked	CS_A	1pleas	distractor2	EVAbeforeCON	acq_new_pleas_masked	acq1_masked	1	22	0	0	300	300	0	0	718	50	0	1	0	0	0	1	blank2r.bmp	0	1	+	0	5	C1r.bmp	492	1	blank2r.bmp	786	4	B4r.bmp	786	1	blank2r.bmp	866	5	sonnig	866	0	0	0	0	0	0	0	0	0	0	0	0	0	0	0	0	0	0	0	0	0	0	0	0	0	0	0	0	0	0	0	0	0
030719	12:51:03	12:56:34	329932	5.0.10.0	4_exp_EVA_AMP_AWA_CON	154	Rpleas_acq	Same	Rpleas	Amasked	CS_A	1pleas	distractor2	EVAbeforeCON	acq_US_unple_masked	acq1_masked	1	23	0	0	300	300	0	0	1178	46	0	1	0	0	0	1	blank2r.bmp	0	1	+	0	6	C2r.bmp	492	1	blank2r.bmp	786	1	DHJF	786	1	blank2r.bmp	866	2	geizig	866	0	0	0	0	0	0	0	0	0	0	0	0	0	0	0	0	0	0	0	0	0	0	0	0	0	0	0	0	0	0	0	0	0
030719	12:51:03	12:56:36	332145	5.0.10.0	4_exp_EVA_AMP_AWA_CON	154	Rpleas_acq	Same	Rpleas	Amasked	CS_A	1pleas	distractor2	EVAbeforeCON	acq_US_pleas_masked	acq1_masked	1	24	0	0	300	300	0	0	741	50	0	1	0	0	0	1	blank2r.bmp	0	1	+	0	8	C4r.bmp	492	1	blank2r.bmp	786	1	CPLW	786	1	blank2r.bmp	866	4	genießen	866	0	0	0	0	0	0	0	0	0	0	0	0	0	0	0	0	0	0	0	0	0	0	0	0	0	0	0	0	0	0	0	0	0
030719	12:51:03	12:56:38	334450	5.0.10.0	4_exp_EVA_AMP_AWA_CON	154	Rpleas_acq	Same	Rpleas	Amasked	CS_A	1pleas	distractor2	EVAbeforeCON	acq_US_pleas_masked	acq1_masked	1	25	0	0	300	300	0	0	821	50	0	1	0	0	0	1	blank2r.bmp	0	1	+	0	8	C4r.bmp	492	1	blank2r.bmp	786	1	CPLW	786	1	blank2r.bmp	866	6	anregung	866	0	0	0	0	0	0	0	0	0	0	0	0	0	0	0	0	0	0	0	0	0	0	0	0	0	0	0	0	0	0	0	0	0
030719	12:51:03	12:56:40	336756	5.0.10.0	4_exp_EVA_AMP_AWA_CON	154	Rpleas_acq	Same	Rpleas	Amasked	CS_A	1pleas	distractor2	EVAbeforeCON	acq_US_unple_masked	acq1_masked	1	26	0	0	300	300	0	0	815	46	0	1	0	0	0	1	blank2r.bmp	0	1	+	0	1	B1r.bmp	492	1	blank2r.bmp	786	1	DHJF	786	1	blank2r.bmp	866	3	versagen	866	0	0	0	0	0	0	0	0	0	0	0	0	0	0	0	0	0	0	0	0	0	0	0	0	0	0	0	0	0	0	0	0	0
030719	12:51:03	12:56:43	339328	5.0.10.0	4_exp_EVA_AMP_AWA_CON	154	Rpleas_acq	Same	Rpleas	Amasked	CS_A	1pleas	distractor2	EVAbeforeCON	acq_US_pleas_masked	acq1_masked	1	27	0	0	300	300	0	0	1096	50	0	1	0	0	0	1	blank2r.bmp	0	1	+	0	6	C2r.bmp	492	1	blank2r.bmp	786	1	CPLW	786	1	blank2r.bmp	866	2	gesittet	866	0	0	0	0	0	0	0	0	0	0	0	0	0	0	0	0	0	0	0	0	0	0	0	0	0	0	0	0	0	0	0	0	0
030719	12:51:03	12:56:46	341954	5.0.10.0	4_exp_EVA_AMP_AWA_CON	154	Rpleas_acq	Same	Rpleas	Amasked	CS_A	1pleas	distractor2	EVAbeforeCON	acq_new_pleas_masked	acq1_masked	1	28	0	0	300	300	0	0	1152	50	0	1	0	0	0	1	blank2r.bmp	0	1	+	0	4	B4r.bmp	492	1	blank2r.bmp	786	2	B2r.bmp	786	1	blank2r.bmp	866	3	engagiert	866	0	0	0	0	0	0	0	0	0	0	0	0	0	0	0	0	0	0	0	0	0	0	0	0	0	0	0	0	0	0	0	0	0
030719	12:51:03	12:56:48	344207	5.0.10.0	4_exp_EVA_AMP_AWA_CON	154	Rpleas_acq	Same	Rpleas	Amasked	CS_A	1pleas	distractor2	EVAbeforeCON	acq_US_pleas_masked	acq1_masked	1	29	0	0	300	300	0	0	767	50	0	1	0	0	0	1	blank2r.bmp	0	1	+	0	2	B2r.bmp	492	1	blank2r.bmp	786	1	CPLW	786	1	blank2r.bmp	866	4	genießen	866	0	0	0	0	0	0	0	0	0	0	0	0	0	0	0	0	0	0	0	0	0	0	0	0	0	0	0	0	0	0	0	0	0
030719	12:51:03	12:56:50	346339	5.0.10.0	4_exp_EVA_AMP_AWA_CON	154	Rpleas_acq	Same	Rpleas	Amasked	CS_A	1pleas	distractor2	EVAbeforeCON	acq_US_unple_masked	acq1_masked	1	30	0	0	300	300	0	0	663	46	0	1	0	0	0	1	blank2r.bmp	0	1	+	0	3	B3r.bmp	492	1	blank2r.bmp	786	1	DHJF	786	1	blank2r.bmp	866	1	krank	866	0	0	0	0	0	0	0	0	0	0	0	0	0	0	0	0	0	0	0	0	0	0	0	0	0	0	0	0	0	0	0	0	0
030719	12:51:03	12:56:52	348485	5.0.10.0	4_exp_EVA_AMP_AWA_CON	154	Rpleas_acq	Same	Rpleas	Amasked	CS_A	1pleas	distractor2	EVAbeforeCON	acq_US_unple_masked	acq1_masked	1	31	0	0	300	300	0	0	664	46	0	1	0	0	0	1	blank2r.bmp	0	1	+	0	7	C3r.bmp	492	1	blank2r.bmp	786	1	DHJF	786	1	blank2r.bmp	866	4	gemein	866	0	0	0	0	0	0	0	0	0	0	0	0	0	0	0	0	0	0	0	0	0	0	0	0	0	0	0	0	0	0	0	0	0
030719	12:51:03	12:56:54	350617	5.0.10.0	4_exp_EVA_AMP_AWA_CON	154	Rpleas_acq	Same	Rpleas	Amasked	CS_A	1pleas	distractor2	EVAbeforeCON	acq_new_pleas_masked	acq1_masked	1	32	0	0	300	300	0	0	641	50	0	1	0	0	0	1	blank2r.bmp	0	1	+	0	5	C1r.bmp	492	1	blank2r.bmp	786	1	B1r.bmp	786	1	blank2r.bmp	866	5	sonnig	866	0	0	0	0	0	0	0	0	0	0	0	0	0	0	0	0	0	0	0	0	0	0	0	0	0	0	0	0	0	0	0	0	0
030719	12:51:03	12:56:56	352750	5.0.10.0	4_exp_EVA_AMP_AWA_CON	154	Rpleas_acq	Same	Rpleas	Amasked	CS_A	1pleas	distractor2	EVAbeforeCON	acq_new_unple_masked	acq1_masked	1	33	0	0	300	300	0	0	657	46	0	1	0	0	0	1	blank2r.bmp	0	1	+	0	7	C3r.bmp	492	1	blank2r.bmp	786	3	B3r.bmp	786	1	blank2r.bmp	866	4	krise	866	0	0	0	0	0	0	0	0	0	0	0	0	0	0	0	0	0	0	0	0	0	0	0	0	0	0	0	0	0	0	0	0	0
030719	12:51:03	12:56:59	355015	5.0.10.0	4_exp_EVA_AMP_AWA_CON	154	Rpleas_acq	Same	Rpleas	Amasked	CS_A	1pleas	distractor2	EVAbeforeCON	acq_new_unple_masked	acq1_masked	1	34	0	0	300	300	0	0	784	46	0	1	0	0	0	1	blank2r.bmp	0	1	+	0	2	B2r.bmp	492	1	blank2r.bmp	786	7	C3r.bmp	786	1	blank2r.bmp	866	1	verbissen	866	0	0	0	0	0	0	0	0	0	0	0	0	0	0	0	0	0	0	0	0	0	0	0	0	0	0	0	0	0	0	0	0	0
030719	12:51:03	12:57:01	357348	5.0.10.0	4_exp_EVA_AMP_AWA_CON	154	Rpleas_acq	Same	Rpleas	Amasked	CS_A	1pleas	distractor2	EVAbeforeCON	acq_new_pleas_masked	acq1_masked	1	35	0	0	300	300	0	0	855	50	0	1	0	0	0	1	blank2r.bmp	0	1	+	0	5	C1r.bmp	492	1	blank2r.bmp	786	6	C2r.bmp	786	1	blank2r.bmp	866	1	vergnügt	866	0	0	0	0	0	0	0	0	0	0	0	0	0	0	0	0	0	0	0	0	0	0	0	0	0	0	0	0	0	0	0	0	0
030719	12:51:03	12:57:03	359440	5.0.10.0	4_exp_EVA_AMP_AWA_CON	154	Rpleas_acq	Same	Rpleas	Amasked	CS_A	1pleas	distractor2	EVAbeforeCON	acq_new_unple_masked	acq1_masked	1	36	0	0	300	300	0	0	614	46	0	1	0	0	0	1	blank2r.bmp	0	1	+	0	6	C2r.bmp	492	1	blank2r.bmp	786	7	C3r.bmp	786	1	blank2r.bmp	866	6	töten	866	0	0	0	0	0	0	0	0	0	0	0	0	0	0	0	0	0	0	0	0	0	0	0	0	0	0	0	0	0	0	0	0	0
030719	12:51:03	12:57:49	405129	5.0.10.0	4_exp_EVA_AMP_AWA_CON	154	Rpleas_acq	Same	Rpleas	Amasked	CS_A	1pleas	distractor2	EVAbeforeCON	acq_new_pleas_masked	acq2_masked	2	1	480	0	300	300	0	0	1028	50	0	1	0	0	0	1	blank2r.bmp	0	1	+	0	3	B3r.bmp	492	1	blank2r.bmp	786	5	C1r.bmp	786	1	blank2r.bmp	866	4	kuss	866	1	!	1319	1	!	-1	0	0	0	0	0	0	0	0	0	0	0	0	0	0	0	0	0	0	0	0	0	0	0	0	0	0	0
030719	12:51:03	12:57:54	410033	5.0.10.0	4_exp_EVA_AMP_AWA_CON	154	Rpleas_acq	Same	Rpleas	Amasked	CS_A	1pleas	distractor2	EVAbeforeCON	acq_US_pleas_masked	acq2_masked	2	2	480	0	300	300	0	0	3125	50	0	1	0	0	0	1	blank2r.bmp	0	1	+	0	1	B1r.bmp	492	1	blank2r.bmp	786	1	CPLW	786	1	blank2r.bmp	866	1	kreativ	866	1	!	1319	1	!	-1	0	0	0	0	0	0	0	0	0	0	0	0	0	0	0	0	0	0	0	0	0	0	0	0	0	0	0
030719	12:51:03	12:57:56	412725	5.0.10.0	4_exp_EVA_AMP_AWA_CON	154	Rpleas_acq	Same	Rpleas	Amasked	CS_A	1pleas	distractor2	EVAbeforeCON	acq_new_unple_masked	acq2_masked	2	3	480	0	300	300	0	0	909	46	0	1	0	0	0	1	blank2r.bmp	0	1	+	0	4	B4r.bmp	492	1	blank2r.bmp	786	1	B1r.bmp	786	1	blank2r.bmp	866	2	bange	866	1	!	1319	1	!	-1	0	0	0	0	0	0	0	0	0	0	0	0	0	0	0	0	0	0	0	0	0	0	0	0	0	0	0
030719	12:51:03	12:57:59	415151	5.0.10.0	4_exp_EVA_AMP_AWA_CON	154	Rpleas_acq	Same	Rpleas	Amasked	CS_A	1pleas	distractor2	EVAbeforeCON	acq_US_unple_masked	acq2_masked	2	4	480	0	300	300	0	0	643	46	0	1	0	0	0	1	blank2r.bmp	0	1	+	0	8	C4r.bmp	492	1	blank2r.bmp	786	1	DHJF	786	1	blank2r.bmp	866	2	geizig	866	1	!	1319	1	!	-1	0	0	0	0	0	0	0	0	0	0	0	0	0	0	0	0	0	0	0	0	0	0	0	0	0	0	0
030719	12:51:03	12:58:01	417510	5.0.10.0	4_exp_EVA_AMP_AWA_CON	154	Rpleas_acq	Same	Rpleas	Amasked	CS_A	1pleas	distractor2	EVAbeforeCON	acq_new_pleas_masked	acq2_masked	2	5	480	0	300	300	0	0	583	50	0	1	0	0	0	1	blank2r.bmp	0	1	+	0	2	B2r.bmp	492	1	blank2r.bmp	786	4	B4r.bmp	786	1	blank2r.bmp	866	6	träumen	866	1	!	1319	1	!	-1	0	0	0	0	0	0	0	0	0	0	0	0	0	0	0	0	0	0	0	0	0	0	0	0	0	0	0
030719	12:51:03	12:58:04	420029	5.0.10.0	4_exp_EVA_AMP_AWA_CON	154	Rpleas_acq	Same	Rpleas	Amasked	CS_A	1pleas	distractor2	EVAbeforeCON	acq_new_pleas_masked	acq2_masked	2	6	480	1	300	300	0	0	485	46	0	0	0	0	0	1	blank2r.bmp	0	1	+	0	7	C3r.bmp	492	1	blank2r.bmp	786	2	B2r.bmp	786	1	blank2r.bmp	866	2	besonnen	866	1	FEHLER	1705	1	!	1319	1	!	1386	0	0	0	0	0	0	0	0	0	0	0	0	0	0	0	0	0	0	0	0	0	0	0	0
030719	12:51:03	12:58:06	422188	5.0.10.0	4_exp_EVA_AMP_AWA_CON	154	Rpleas_acq	Same	Rpleas	Amasked	CS_A	1pleas	distractor2	EVAbeforeCON	acq_US_unple_masked	acq2_masked	2	7	480	0	300	300	0	0	592	46	0	1	0	0	0	1	blank2r.bmp	0	1	+	0	5	C1r.bmp	492	1	blank2r.bmp	786	1	DHJF	786	1	blank2r.bmp	866	5	gierig	866	1	!	1319	1	!	-1	0	0	0	0	0	0	0	0	0	0	0	0	0	0	0	0	0	0	0	0	0	0	0	0	0	0	0
030719	12:51:03	12:58:08	424867	5.0.10.0	4_exp_EVA_AMP_AWA_CON	154	Rpleas_acq	Same	Rpleas	Amasked	CS_A	1pleas	distractor2	EVAbeforeCON	acq_new_unple_masked	acq2_masked	2	8	480	0	300	300	0	0	653	50	0	0	0	0	0	1	blank2r.bmp	0	1	+	0	1	B1r.bmp	492	1	blank2r.bmp	786	8	C4r.bmp	786	1	blank2r.bmp	866	3	engstirnig	866	1	FEHLER	1865	1	!	1319	1	!	-1	0	0	0	0	0	0	0	0	0	0	0	0	0	0	0	0	0	0	0	0	0	0	0	0
030719	12:51:03	12:58:11	427213	5.0.10.0	4_exp_EVA_AMP_AWA_CON	154	Rpleas_acq	Same	Rpleas	Amasked	CS_A	1pleas	distractor2	EVAbeforeCON	acq_US_pleas_masked	acq2_masked	2	9	480	0	300	300	0	0	559	46	0	0	0	0	0	1	blank2r.bmp	0	1	+	0	3	B3r.bmp	492	1	blank2r.bmp	786	1	CPLW	786	1	blank2r.bmp	866	3	vertrauen	866	1	FEHLER	1772	1	!	1319	1	!	-1	0	0	0	0	0	0	0	0	0	0	0	0	0	0	0	0	0	0	0	0	0	0	0	0
030719	12:51:03	12:58:13	429612	5.0.10.0	4_exp_EVA_AMP_AWA_CON	154	Rpleas_acq	Same	Rpleas	Amasked	CS_A	1pleas	distractor2	EVAbeforeCON	acq_US_pleas_masked	acq2_masked	2	10	480	0	300	300	0	0	612	46	0	0	0	0	0	1	blank2r.bmp	0	1	+	0	8	C4r.bmp	492	1	blank2r.bmp	786	1	CPLW	786	1	blank2r.bmp	866	5	gütig	866	1	FEHLER	1825	1	!	1319	1	!	-1	0	0	0	0	0	0	0	0	0	0	0	0	0	0	0	0	0	0	0	0	0	0	0	0
030719	12:51:03	12:58:16	432011	5.0.10.0	4_exp_EVA_AMP_AWA_CON	154	Rpleas_acq	Same	Rpleas	Amasked	CS_A	1pleas	distractor2	EVAbeforeCON	acq_US_unple_masked	acq2_masked	2	11	480	0	300	300	0	0	849	46	0	1	0	0	0	1	blank2r.bmp	0	1	+	0	6	C2r.bmp	492	1	blank2r.bmp	786	1	DHJF	786	1	blank2r.bmp	866	6	ausrottung	866	1	!	1319	1	!	-1	0	0	0	0	0	0	0	0	0	0	0	0	0	0	0	0	0	0	0	0	0	0	0	0	0	0	0
030719	12:51:03	12:58:18	434357	5.0.10.0	4_exp_EVA_AMP_AWA_CON	154	Rpleas_acq	Same	Rpleas	Amasked	CS_A	1pleas	distractor2	EVAbeforeCON	acq_new_unple_masked	acq2_masked	2	12	480	1	300	300	0	0	535	46	0	1	0	0	0	1	blank2r.bmp	0	1	+	0	4	B4r.bmp	492	1	blank2r.bmp	786	3	B3r.bmp	786	1	blank2r.bmp	866	5	sterben	866	1	!	1319	1	!	1439	0	0	0	0	0	0	0	0	0	0	0	0	0	0	0	0	0	0	0	0	0	0	0	0	0	0	0
030719	12:51:03	12:58:21	436942	5.0.10.0	4_exp_EVA_AMP_AWA_CON	154	Rpleas_acq	Same	Rpleas	Amasked	CS_A	1pleas	distractor2	EVAbeforeCON	acq_US_pleas_masked	acq2_masked	2	13	480	0	300	300	0	0	598	46	0	0	0	0	0	1	blank2r.bmp	0	1	+	0	8	C4r.bmp	492	1	blank2r.bmp	786	1	CPLW	786	1	blank2r.bmp	866	5	gütig	866	1	FEHLER	1799	1	!	1319	1	!	-1	0	0	0	0	0	0	0	0	0	0	0	0	0	0	0	0	0	0	0	0	0	0	0	0
030719	12:51:03	12:58:23	439021	5.0.10.0	4_exp_EVA_AMP_AWA_CON	154	Rpleas_acq	Same	Rpleas	Amasked	CS_A	1pleas	distractor2	EVAbeforeCON	acq_new_pleas_masked	acq2_masked	2	14	480	1	300	300	0	0	500	50	0	1	0	0	0	1	blank2r.bmp	0	1	+	0	2	B2r.bmp	492	1	blank2r.bmp	786	8	C4r.bmp	786	1	blank2r.bmp	866	5	sonnig	866	1	!	1319	1	!	1399	0	0	0	0	0	0	0	0	0	0	0	0	0	0	0	0	0	0	0	0	0	0	0	0	0	0	0
030719	12:51:03	12:58:25	441527	5.0.10.0	4_exp_EVA_AMP_AWA_CON	154	Rpleas_acq	Same	Rpleas	Amasked	CS_A	1pleas	distractor2	EVAbeforeCON	acq_new_pleas_masked	acq2_masked	2	15	480	1	300	300	0	0	503	46	0	0	0	0	0	1	blank2r.bmp	0	1	+	0	3	B3r.bmp	492	1	blank2r.bmp	786	5	C1r.bmp	786	1	blank2r.bmp	866	6	träumen	866	1	FEHLER	1719	1	!	1319	1	!	1399	0	0	0	0	0	0	0	0	0	0	0	0	0	0	0	0	0	0	0	0	0	0	0	0
030719	12:51:03	12:58:27	443700	5.0.10.0	4_exp_EVA_AMP_AWA_CON	154	Rpleas_acq	Same	Rpleas	Amasked	CS_A	1pleas	distractor2	EVAbeforeCON	acq_new_unple_masked	acq2_masked	2	16	480	0	300	300	0	0	618	46	0	1	0	0	0	1	blank2r.bmp	0	1	+	0	1	B1r.bmp	492	1	blank2r.bmp	786	6	C2r.bmp	786	1	blank2r.bmp	866	3	engstirnig	866	1	!	1319	1	!	-1	0	0	0	0	0	0	0	0	0	0	0	0	0	0	0	0	0	0	0	0	0	0	0	0	0	0	0
030719	12:51:03	12:58:30	446059	5.0.10.0	4_exp_EVA_AMP_AWA_CON	154	Rpleas_acq	Same	Rpleas	Amasked	CS_A	1pleas	distractor2	EVAbeforeCON	acq_US_pleas_masked	acq2_masked	2	17	480	1	300	300	0	0	545	50	0	1	0	0	0	1	blank2r.bmp	0	1	+	0	7	C3r.bmp	492	1	blank2r.bmp	786	1	CPLW	786	1	blank2r.bmp	866	2	gesittet	866	1	!	1319	1	!	1452	0	0	0	0	0	0	0	0	0	0	0	0	0	0	0	0	0	0	0	0	0	0	0	0	0	0	0
030719	12:51:03	12:58:32	448444	5.0.10.0	4_exp_EVA_AMP_AWA_CON	154	Rpleas_acq	Same	Rpleas	Amasked	CS_A	1pleas	distractor2	EVAbeforeCON	acq_US_unple_masked	acq2_masked	2	18	480	0	300	300	0	0	615	46	0	1	0	0	0	1	blank2r.bmp	0	1	+	0	6	C2r.bmp	492	1	blank2r.bmp	786	1	DHJF	786	1	blank2r.bmp	866	5	gierig	866	1	!	1319	1	!	-1	0	0	0	0	0	0	0	0	0	0	0	0	0	0	0	0	0	0	0	0	0	0	0	0	0	0	0
030719	12:51:03	12:58:34	450803	5.0.10.0	4_exp_EVA_AMP_AWA_CON	154	Rpleas_acq	Same	Rpleas	Amasked	CS_A	1pleas	distractor2	EVAbeforeCON	acq_US_pleas_masked	acq2_masked	2	19	480	0	300	300	0	0	569	50	0	1	0	0	0	1	blank2r.bmp	0	1	+	0	4	B4r.bmp	492	1	blank2r.bmp	786	1	CPLW	786	1	blank2r.bmp	866	3	vertrauen	866	1	!	1319	1	!	-1	0	0	0	0	0	0	0	0	0	0	0	0	0	0	0	0	0	0	0	0	0	0	0	0	0	0	0
030719	12:51:03	12:58:37	452962	5.0.10.0	4_exp_EVA_AMP_AWA_CON	154	Rpleas_acq	Same	Rpleas	Amasked	CS_A	1pleas	distractor2	EVAbeforeCON	acq_US_unple_masked	acq2_masked	2	20	480	0	300	300	0	0	378	46	0	1	0	0	0	1	blank2r.bmp	0	1	+	0	5	C1r.bmp	492	1	blank2r.bmp	786	1	DHJF	786	1	blank2r.bmp	866	1	krank	866	1	!	-1	1	!	-1	0	0	0	0	0	0	0	0	0	0	0	0	0	0	0	0	0	0	0	0	0	0	0	0	0	0	0
030719	12:51:03	12:58:39	455601	5.0.10.0	4_exp_EVA_AMP_AWA_CON	154	Rpleas_acq	Same	Rpleas	Amasked	CS_A	1pleas	distractor2	EVAbeforeCON	acq_new_pleas_masked	acq2_masked	2	21	480	0	300	300	0	0	634	46	0	0	0	0	0	1	blank2r.bmp	0	1	+	0	2	B2r.bmp	492	1	blank2r.bmp	786	1	B1r.bmp	786	1	blank2r.bmp	866	1	vergnügt	866	1	FEHLER	1839	1	!	1319	1	!	-1	0	0	0	0	0	0	0	0	0	0	0	0	0	0	0	0	0	0	0	0	0	0	0	0
030719	12:51:03	12:58:41	457721	5.0.10.0	4_exp_EVA_AMP_AWA_CON	154	Rpleas_acq	Same	Rpleas	Amasked	CS_A	1pleas	distractor2	EVAbeforeCON	acq_new_unple_masked	acq2_masked	2	22	480	0	300	300	0	0	566	46	0	1	0	0	0	1	blank2r.bmp	0	1	+	0	3	B3r.bmp	492	1	blank2r.bmp	786	2	B2r.bmp	786	1	blank2r.bmp	866	1	verbissen	866	1	!	1319	1	!	-1	0	0	0	0	0	0	0	0	0	0	0	0	0	0	0	0	0	0	0	0	0	0	0	0	0	0	0
030719	12:51:03	12:58:44	460080	5.0.10.0	4_exp_EVA_AMP_AWA_CON	154	Rpleas_acq	Same	Rpleas	Amasked	CS_A	1pleas	distractor2	EVAbeforeCON	acq_US_unple_masked	acq2_masked	2	23	480	0	300	300	0	0	572	46	0	1	0	0	0	1	blank2r.bmp	0	1	+	0	8	C4r.bmp	492	1	blank2r.bmp	786	1	DHJF	786	1	blank2r.bmp	866	4	gemein	866	1	!	1319	1	!	-1	0	0	0	0	0	0	0	0	0	0	0	0	0	0	0	0	0	0	0	0	0	0	0	0	0	0	0
030719	12:51:03	12:58:46	462265	5.0.10.0	4_exp_EVA_AMP_AWA_CON	154	Rpleas_acq	Same	Rpleas	Amasked	CS_A	1pleas	distractor2	EVAbeforeCON	acq_new_unple_masked	acq2_masked	2	24	480	0	300	300	0	0	401	46	0	1	0	0	0	1	blank2r.bmp	0	1	+	0	4	B4r.bmp	492	1	blank2r.bmp	786	7	C3r.bmp	786	1	blank2r.bmp	866	5	sterben	866	1	!	-1	1	!	-1	0	0	0	0	0	0	0	0	0	0	0	0	0	0	0	0	0	0	0	0	0	0	0	0	0	0	0
030719	12:51:03	12:58:48	464451	5.0.10.0	4_exp_EVA_AMP_AWA_CON	154	Rpleas_acq	Same	Rpleas	Amasked	CS_A	1pleas	distractor2	EVAbeforeCON	acq_US_pleas_masked	acq2_masked	2	25	480	0	300	300	0	0	386	50	0	1	0	0	0	1	blank2r.bmp	0	1	+	0	7	C3r.bmp	492	1	blank2r.bmp	786	1	CPLW	786	1	blank2r.bmp	866	6	anregung	866	1	!	-1	1	!	-1	0	0	0	0	0	0	0	0	0	0	0	0	0	0	0	0	0	0	0	0	0	0	0	0	0	0	0
030719	12:51:03	12:58:50	466690	5.0.10.0	4_exp_EVA_AMP_AWA_CON	154	Rpleas_acq	Same	Rpleas	Amasked	CS_A	1pleas	distractor2	EVAbeforeCON	acq_US_unple_masked	acq2_masked	2	26	480	1	300	300	0	0	426	46	0	1	0	0	0	1	blank2r.bmp	0	1	+	0	5	C1r.bmp	492	1	blank2r.bmp	786	1	DHJF	786	1	blank2r.bmp	866	6	ausrottung	866	1	!	1319	1	!	1332	0	0	0	0	0	0	0	0	0	0	0	0	0	0	0	0	0	0	0	0	0	0	0	0	0	0	0
030719	12:51:03	12:58:52	468849	5.0.10.0	4_exp_EVA_AMP_AWA_CON	154	Rpleas_acq	Same	Rpleas	Amasked	CS_A	1pleas	distractor2	EVAbeforeCON	acq_new_unple_masked	acq2_masked	2	27	480	0	300	300	0	0	386	46	0	1	0	0	0	1	blank2r.bmp	0	1	+	0	6	C2r.bmp	492	1	blank2r.bmp	786	3	B3r.bmp	786	1	blank2r.bmp	866	6	töten	866	1	!	-1	1	!	-1	0	0	0	0	0	0	0	0	0	0	0	0	0	0	0	0	0	0	0	0	0	0	0	0	0	0	0
030719	12:51:03	12:58:55	471182	5.0.10.0	4_exp_EVA_AMP_AWA_CON	154	Rpleas_acq	Same	Rpleas	Amasked	CS_A	1pleas	distractor2	EVAbeforeCON	acq_US_unple_masked	acq2_masked	2	28	480	1	300	300	0	0	523	46	0	1	0	0	0	1	blank2r.bmp	0	1	+	0	1	B1r.bmp	492	1	blank2r.bmp	786	1	DHJF	786	1	blank2r.bmp	866	3	versagen	866	1	!	1319	1	!	1426	0	0	0	0	0	0	0	0	0	0	0	0	0	0	0	0	0	0	0	0	0	0	0	0	0	0	0
030719	12:51:03	12:58:57	473341	5.0.10.0	4_exp_EVA_AMP_AWA_CON	154	Rpleas_acq	Same	Rpleas	Amasked	CS_A	1pleas	distractor2	EVAbeforeCON	acq_new_pleas_masked	acq2_masked	2	29	480	0	300	300	0	0	397	50	0	1	0	0	0	1	blank2r.bmp	0	1	+	0	2	B2r.bmp	492	1	blank2r.bmp	786	4	B4r.bmp	786	1	blank2r.bmp	866	2	besonnen	866	1	!	-1	1	!	-1	0	0	0	0	0	0	0	0	0	0	0	0	0	0	0	0	0	0	0	0	0	0	0	0	0	0	0
030719	12:51:03	12:58:59	475607	5.0.10.0	4_exp_EVA_AMP_AWA_CON	154	Rpleas_acq	Same	Rpleas	Amasked	CS_A	1pleas	distractor2	EVAbeforeCON	acq_US_pleas_masked	acq2_masked	2	30	480	1	300	300	0	0	450	50	0	1	0	0	0	1	blank2r.bmp	0	1	+	0	8	C4r.bmp	492	1	blank2r.bmp	786	1	CPLW	786	1	blank2r.bmp	866	4	genießen	866	1	!	1319	1	!	1346	0	0	0	0	0	0	0	0	0	0	0	0	0	0	0	0	0	0	0	0	0	0	0	0	0	0	0
030719	12:51:03	12:59:01	477752	5.0.10.0	4_exp_EVA_AMP_AWA_CON	154	Rpleas_acq	Same	Rpleas	Amasked	CS_A	1pleas	distractor2	EVAbeforeCON	acq_new_unple_masked	acq2_masked	2	31	480	0	300	300	0	0	375	46	0	1	0	0	0	1	blank2r.bmp	0	1	+	0	7	C3r.bmp	492	1	blank2r.bmp	786	6	C2r.bmp	786	1	blank2r.bmp	866	2	bange	866	1	!	-1	1	!	-1	0	0	0	0	0	0	0	0	0	0	0	0	0	0	0	0	0	0	0	0	0	0	0	0	0	0	0
030719	12:51:03	12:59:04	480005	5.0.10.0	4_exp_EVA_AMP_AWA_CON	154	Rpleas_acq	Same	Rpleas	Amasked	CS_A	1pleas	distractor2	EVAbeforeCON	acq_new_pleas_masked	acq2_masked	2	32	480	1	300	300	0	0	451	50	0	1	0	0	0	1	blank2r.bmp	0	1	+	0	4	B4r.bmp	492	1	blank2r.bmp	786	2	B2r.bmp	786	1	blank2r.bmp	866	3	engagiert	866	1	!	1319	1	!	1346	0	0	0	0	0	0	0	0	0	0	0	0	0	0	0	0	0	0	0	0	0	0	0	0	0	0	0
030719	12:51:03	12:59:06	482351	5.0.10.0	4_exp_EVA_AMP_AWA_CON	154	Rpleas_acq	Same	Rpleas	Amasked	CS_A	1pleas	distractor2	EVAbeforeCON	acq_new_unple_masked	acq2_masked	2	33	480	0	300	300	0	0	584	46	0	1	0	0	0	1	blank2r.bmp	0	1	+	0	3	B3r.bmp	492	1	blank2r.bmp	786	5	C1r.bmp	786	1	blank2r.bmp	866	4	krise	866	1	!	1319	1	!	-1	0	0	0	0	0	0	0	0	0	0	0	0	0	0	0	0	0	0	0	0	0	0	0	0	0	0	0
030719	12:51:03	12:59:08	484710	5.0.10.0	4_exp_EVA_AMP_AWA_CON	154	Rpleas_acq	Same	Rpleas	Amasked	CS_A	1pleas	distractor2	EVAbeforeCON	acq_US_unple_masked	acq2_masked	2	34	480	0	300	300	0	0	584	46	0	1	0	0	0	1	blank2r.bmp	0	1	+	0	5	C1r.bmp	492	1	blank2r.bmp	786	1	DHJF	786	1	blank2r.bmp	866	2	geizig	866	1	!	1319	1	!	-1	0	0	0	0	0	0	0	0	0	0	0	0	0	0	0	0	0	0	0	0	0	0	0	0	0	0	0
030719	12:51:03	12:59:11	486895	5.0.10.0	4_exp_EVA_AMP_AWA_CON	154	Rpleas_acq	Same	Rpleas	Amasked	CS_A	1pleas	distractor2	EVAbeforeCON	acq_new_pleas_masked	acq2_masked	2	35	480	0	300	300	0	0	404	50	0	1	0	0	0	1	blank2r.bmp	0	1	+	0	6	C2r.bmp	492	1	blank2r.bmp	786	8	C4r.bmp	786	1	blank2r.bmp	866	4	kuss	866	1	!	-1	1	!	-1	0	0	0	0	0	0	0	0	0	0	0	0	0	0	0	0	0	0	0	0	0	0	0	0	0	0	0
030719	12:51:03	12:59:13	489254	5.0.10.0	4_exp_EVA_AMP_AWA_CON	154	Rpleas_acq	Same	Rpleas	Amasked	CS_A	1pleas	distractor2	EVAbeforeCON	acq_US_pleas_masked	acq2_masked	2	36	480	0	300	300	0	0	580	50	0	1	0	0	0	1	blank2r.bmp	0	1	+	0	1	B1r.bmp	492	1	blank2r.bmp	786	1	CPLW	786	1	blank2r.bmp	866	1	kreativ	866	1	!	1319	1	!	-1	0	0	0	0	0	0	0	0	0	0	0	0	0	0	0	0	0	0	0	0	0	0	0	0	0	0	0
030719	12:51:03	12:59:32	508273	5.0.10.0	4_exp_EVA_AMP_AWA_CON	154	Rpleas_acq	Same	Rpleas	Amasked	CS_A	1pleas	distractor2	EVAbeforeCON	acq_US_unple_masked	acq3_masked	3	1	453	0	300	300	0	0	604	46	0	1	0	0	0	1	blank2r.bmp	0	1	+	0	5	C1r.bmp	492	1	blank2r.bmp	786	1	DHJF	786	1	blank2r.bmp	866	6	ausrottung	866	1	!	1292	1	!	-1	0	0	0	0	0	0	0	0	0	0	0	0	0	0	0	0	0	0	0	0	0	0	0	0	0	0	0
030719	12:51:03	12:59:34	510699	5.0.10.0	4_exp_EVA_AMP_AWA_CON	154	Rpleas_acq	Same	Rpleas	Amasked	CS_A	1pleas	distractor2	EVAbeforeCON	acq_US_pleas_masked	acq3_masked	3	2	453	1	300	300	0	0	399	46	0	0	0	0	0	1	blank2r.bmp	0	1	+	0	3	B3r.bmp	492	1	blank2r.bmp	786	1	CPLW	786	1	blank2r.bmp	866	1	kreativ	866	1	FEHLER	1626	1	!	1292	1	!	1306	0	0	0	0	0	0	0	0	0	0	0	0	0	0	0	0	0	0	0	0	0	0	0	0
030719	12:51:03	12:59:36	512605	5.0.10.0	4_exp_EVA_AMP_AWA_CON	154	Rpleas_acq	Same	Rpleas	Amasked	CS_A	1pleas	distractor2	EVAbeforeCON	acq_US_unple_masked	acq3_masked	3	3	453	0	300	300	0	0	356	46	0	1	0	0	0	1	blank2r.bmp	0	1	+	0	4	B4r.bmp	492	1	blank2r.bmp	786	1	DHJF	786	1	blank2r.bmp	866	3	versagen	866	1	!	-1	1	!	-1	0	0	0	0	0	0	0	0	0	0	0	0	0	0	0	0	0	0	0	0	0	0	0	0	0	0	0
030719	12:51:03	12:59:39	514937	5.0.10.0	4_exp_EVA_AMP_AWA_CON	154	Rpleas_acq	Same	Rpleas	Amasked	CS_A	1pleas	distractor2	EVAbeforeCON	acq_US_pleas_masked	acq3_masked	3	4	453	0	300	300	0	0	532	50	0	1	0	0	0	1	blank2r.bmp	0	1	+	0	6	C2r.bmp	492	1	blank2r.bmp	786	1	CPLW	786	1	blank2r.bmp	866	6	anregung	866	1	!	1292	1	!	-1	0	0	0	0	0	0	0	0	0	0	0	0	0	0	0	0	0	0	0	0	0	0	0	0	0	0	0
030719	12:51:03	12:59:41	517296	5.0.10.0	4_exp_EVA_AMP_AWA_CON	154	Rpleas_acq	Same	Rpleas	Amasked	CS_A	1pleas	distractor2	EVAbeforeCON	acq_US_pleas_masked	acq3_masked	3	5	453	0	300	300	0	0	582	50	0	1	0	0	0	1	blank2r.bmp	0	1	+	0	2	B2r.bmp	492	1	blank2r.bmp	786	1	CPLW	786	1	blank2r.bmp	866	5	gütig	866	1	!	1292	1	!	-1	0	0	0	0	0	0	0	0	0	0	0	0	0	0	0	0	0	0	0	0	0	0	0	0	0	0	0
030719	12:51:03	12:59:43	519589	5.0.10.0	4_exp_EVA_AMP_AWA_CON	154	Rpleas_acq	Same	Rpleas	Amasked	CS_A	1pleas	distractor2	EVAbeforeCON	acq_US_pleas_masked	acq3_masked	3	6	453	1	300	300	0	0	481	50	0	1	0	0	0	1	blank2r.bmp	0	1	+	0	8	C4r.bmp	492	1	blank2r.bmp	786	1	CPLW	786	1	blank2r.bmp	866	2	gesittet	866	1	!	1292	1	!	1386	0	0	0	0	0	0	0	0	0	0	0	0	0	0	0	0	0	0	0	0	0	0	0	0	0	0	0
030719	12:51:03	12:59:45	521855	5.0.10.0	4_exp_EVA_AMP_AWA_CON	154	Rpleas_acq	Same	Rpleas	Amasked	CS_A	1pleas	distractor2	EVAbeforeCON	acq_US_unple_masked	acq3_masked	3	7	453	1	300	300	0	0	477	46	0	1	0	0	0	1	blank2r.bmp	0	1	+	0	7	C3r.bmp	492	1	blank2r.bmp	786	1	DHJF	786	1	blank2r.bmp	866	1	krank	866	1	!	1292	1	!	1372	0	0	0	0	0	0	0	0	0	0	0	0	0	0	0	0	0	0	0	0	0	0	0	0	0	0	0
030719	12:51:03	12:59:48	524214	5.0.10.0	4_exp_EVA_AMP_AWA_CON	154	Rpleas_acq	Same	Rpleas	Amasked	CS_A	1pleas	distractor2	EVAbeforeCON	acq_US_unple_masked	acq3_masked	3	8	453	0	300	300	0	0	578	46	0	1	0	0	0	1	blank2r.bmp	0	1	+	0	1	B1r.bmp	492	1	blank2r.bmp	786	1	DHJF	786	1	blank2r.bmp	866	5	gierig	866	1	!	1292	1	!	-1	0	0	0	0	0	0	0	0	0	0	0	0	0	0	0	0	0	0	0	0	0	0	0	0	0	0	0
030719	12:51:03	12:59:50	526493	5.0.10.0	4_exp_EVA_AMP_AWA_CON	154	Rpleas_acq	Same	Rpleas	Amasked	CS_A	1pleas	distractor2	EVAbeforeCON	acq_US_unple_masked	acq3_masked	3	9	453	1	300	300	0	0	468	46	0	1	0	0	0	1	blank2r.bmp	0	1	+	0	7	C3r.bmp	492	1	blank2r.bmp	786	1	DHJF	786	1	blank2r.bmp	866	4	gemein	866	1	!	1292	1	!	1372	0	0	0	0	0	0	0	0	0	0	0	0	0	0	0	0	0	0	0	0	0	0	0	0	0	0	0
030719	12:51:03	12:59:52	528732	5.0.10.0	4_exp_EVA_AMP_AWA_CON	154	Rpleas_acq	Same	Rpleas	Amasked	CS_A	1pleas	distractor2	EVAbeforeCON	acq_US_pleas_masked	acq3_masked	3	10	453	1	300	300	0	0	447	50	0	1	0	0	0	1	blank2r.bmp	0	1	+	0	3	B3r.bmp	492	1	blank2r.bmp	786	1	CPLW	786	1	blank2r.bmp	866	4	genießen	866	1	!	1292	1	!	1346	0	0	0	0	0	0	0	0	0	0	0	0	0	0	0	0	0	0	0	0	0	0	0	0	0	0	0
030719	12:51:03	12:59:55	531224	5.0.10.0	4_exp_EVA_AMP_AWA_CON	154	Rpleas_acq	Same	Rpleas	Amasked	CS_A	1pleas	distractor2	EVAbeforeCON	acq_US_unple_masked	acq3_masked	3	11	453	1	300	300	0	0	481	50	0	0	0	0	0	1	blank2r.bmp	0	1	+	0	5	C1r.bmp	492	1	blank2r.bmp	786	1	DHJF	786	1	blank2r.bmp	866	2	geizig	866	1	FEHLER	1705	1	!	1292	1	!	1386	0	0	0	0	0	0	0	0	0	0	0	0	0	0	0	0	0	0	0	0	0	0	0	0
030719	12:51:03	12:59:57	533477	5.0.10.0	4_exp_EVA_AMP_AWA_CON	154	Rpleas_acq	Same	Rpleas	Amasked	CS_A	1pleas	distractor2	EVAbeforeCON	acq_US_pleas_masked	acq3_masked	3	12	453	1	300	300	0	0	442	46	0	0	0	0	0	1	blank2r.bmp	0	1	+	0	2	B2r.bmp	492	1	blank2r.bmp	786	1	CPLW	786	1	blank2r.bmp	866	3	vertrauen	866	1	FEHLER	1665	1	!	1292	1	!	1346	0	0	0	0	0	0	0	0	0	0	0	0	0	0	0	0	0	0	0	0	0	0	0	0
030719	12:51:03	12:59:59	535542	5.0.10.0	4_exp_EVA_AMP_AWA_CON	154	Rpleas_acq	Same	Rpleas	Amasked	CS_A	1pleas	distractor2	EVAbeforeCON	acq_US_pleas_masked	acq3_masked	3	13	453	1	300	300	0	0	487	50	0	1	0	0	0	1	blank2r.bmp	0	1	+	0	4	B4r.bmp	492	1	blank2r.bmp	786	1	CPLW	786	1	blank2r.bmp	866	6	anregung	866	1	!	1292	1	!	1386	0	0	0	0	0	0	0	0	0	0	0	0	0	0	0	0	0	0	0	0	0	0	0	0	0	0	0
030719	12:51:03	13:00:01	537835	5.0.10.0	4_exp_EVA_AMP_AWA_CON	154	Rpleas_acq	Same	Rpleas	Amasked	CS_A	1pleas	distractor2	EVAbeforeCON	acq_US_unple_masked	acq3_masked	3	14	453	1	300	300	0	0	500	46	0	1	0	0	0	1	blank2r.bmp	0	1	+	0	1	B1r.bmp	492	1	blank2r.bmp	786	1	DHJF	786	1	blank2r.bmp	866	2	geizig	866	1	!	1292	1	!	1399	0	0	0	0	0	0	0	0	0	0	0	0	0	0	0	0	0	0	0	0	0	0	0	0	0	0	0
030719	12:51:03	13:00:04	540141	5.0.10.0	4_exp_EVA_AMP_AWA_CON	154	Rpleas_acq	Same	Rpleas	Amasked	CS_A	1pleas	distractor2	EVAbeforeCON	acq_US_pleas_masked	acq3_masked	3	15	453	0	300	300	0	0	540	50	0	1	0	0	0	1	blank2r.bmp	0	1	+	0	8	C4r.bmp	492	1	blank2r.bmp	786	1	CPLW	786	1	blank2r.bmp	866	4	genießen	866	1	!	1292	1	!	-1	0	0	0	0	0	0	0	0	0	0	0	0	0	0	0	0	0	0	0	0	0	0	0	0	0	0	0
030719	12:51:03	13:00:06	542433	5.0.10.0	4_exp_EVA_AMP_AWA_CON	154	Rpleas_acq	Same	Rpleas	Amasked	CS_A	1pleas	distractor2	EVAbeforeCON	acq_US_unple_masked	acq3_masked	3	16	453	1	300	300	0	0	472	46	0	1	0	0	0	1	blank2r.bmp	0	1	+	0	6	C2r.bmp	492	1	blank2r.bmp	786	1	DHJF	786	1	blank2r.bmp	866	4	gemein	866	1	!	1292	1	!	1372	0	0	0	0	0	0	0	0	0	0	0	0	0	0	0	0	0	0	0	0	0	0	0	0	0	0	0
030719	12:51:03	13:00:08	544659	5.0.10.0	4_exp_EVA_AMP_AWA_CON	154	Rpleas_acq	Same	Rpleas	Amasked	CS_A	1pleas	distractor2	EVAbeforeCON	acq_US_unple_masked	acq3_masked	3	17	453	1	300	300	0	0	438	46	0	1	0	0	0	1	blank2r.bmp	0	1	+	0	5	C1r.bmp	492	1	blank2r.bmp	786	1	DHJF	786	1	blank2r.bmp	866	5	gierig	866	1	!	1292	1	!	1332	0	0	0	0	0	0	0	0	0	0	0	0	0	0	0	0	0	0	0	0	0	0	0	0	0	0	0
030719	12:51:03	13:00:11	547031	5.0.10.0	4_exp_EVA_AMP_AWA_CON	154	Rpleas_acq	Same	Rpleas	Amasked	CS_A	1pleas	distractor2	EVAbeforeCON	acq_US_unple_masked	acq3_masked	3	18	453	0	300	300	0	0	382	50	0	0	0	0	0	1	blank2r.bmp	0	1	+	0	6	C2r.bmp	492	1	blank2r.bmp	786	1	DHJF	786	1	blank2r.bmp	866	6	ausrottung	866	1	FEHLER	1586	1	!	-1	1	!	-1	0	0	0	0	0	0	0	0	0	0	0	0	0	0	0	0	0	0	0	0	0	0	0	0
030719	12:51:03	13:00:13	549017	5.0.10.0	4_exp_EVA_AMP_AWA_CON	154	Rpleas_acq	Same	Rpleas	Amasked	CS_A	1pleas	distractor2	EVAbeforeCON	acq_US_pleas_masked	acq3_masked	3	19	453	1	300	300	0	0	402	50	0	1	0	0	0	1	blank2r.bmp	0	1	+	0	8	C4r.bmp	492	1	blank2r.bmp	786	1	CPLW	786	1	blank2r.bmp	866	1	kreativ	866	1	!	1292	1	!	1306	0	0	0	0	0	0	0	0	0	0	0	0	0	0	0	0	0	0	0	0	0	0	0	0	0	0	0
030719	12:51:03	13:00:15	551323	5.0.10.0	4_exp_EVA_AMP_AWA_CON	154	Rpleas_acq	Same	Rpleas	Amasked	CS_A	1pleas	distractor2	EVAbeforeCON	acq_US_unple_masked	acq3_masked	3	20	453	1	300	300	0	0	510	46	0	1	0	0	0	1	blank2r.bmp	0	1	+	0	3	B3r.bmp	492	1	blank2r.bmp	786	1	DHJF	786	1	blank2r.bmp	866	1	krank	866	1	!	1292	1	!	1412	0	0	0	0	0	0	0	0	0	0	0	0	0	0	0	0	0	0	0	0	0	0	0	0	0	0	0
030719	12:51:03	13:00:17	553708	5.0.10.0	4_exp_EVA_AMP_AWA_CON	154	Rpleas_acq	Same	Rpleas	Amasked	CS_A	1pleas	distractor2	EVAbeforeCON	acq_US_unple_masked	acq3_masked	3	21	453	0	300	300	0	0	610	46	0	1	0	0	0	1	blank2r.bmp	0	1	+	0	2	B2r.bmp	492	1	blank2r.bmp	786	1	DHJF	786	1	blank2r.bmp	866	3	versagen	866	1	!	1292	1	!	-1	0	0	0	0	0	0	0	0	0	0	0	0	0	0	0	0	0	0	0	0	0	0	0	0	0	0	0
030719	12:51:03	13:00:20	556001	5.0.10.0	4_exp_EVA_AMP_AWA_CON	154	Rpleas_acq	Same	Rpleas	Amasked	CS_A	1pleas	distractor2	EVAbeforeCON	acq_US_pleas_masked	acq3_masked	3	22	453	1	300	300	0	0	485	50	0	1	0	0	0	1	blank2r.bmp	0	1	+	0	7	C3r.bmp	492	1	blank2r.bmp	786	1	CPLW	786	1	blank2r.bmp	866	2	gesittet	866	1	!	1292	1	!	1386	0	0	0	0	0	0	0	0	0	0	0	0	0	0	0	0	0	0	0	0	0	0	0	0	0	0	0
030719	12:51:03	13:00:22	558573	5.0.10.0	4_exp_EVA_AMP_AWA_CON	154	Rpleas_acq	Same	Rpleas	Amasked	CS_A	1pleas	distractor2	EVAbeforeCON	acq_US_pleas_masked	acq3_masked	3	23	453	0	300	300	0	0	578	46	0	0	0	0	0	1	blank2r.bmp	0	1	+	0	4	B4r.bmp	492	1	blank2r.bmp	786	1	CPLW	786	1	blank2r.bmp	866	5	gütig	866	1	FEHLER	1785	1	!	1292	1	!	-1	0	0	0	0	0	0	0	0	0	0	0	0	0	0	0	0	0	0	0	0	0	0	0	0
030719	12:51:03	13:00:24	560479	5.0.10.0	4_exp_EVA_AMP_AWA_CON	154	Rpleas_acq	Same	Rpleas	Amasked	CS_A	1pleas	distractor2	EVAbeforeCON	acq_US_pleas_masked	acq3_masked	3	24	453	0	300	300	0	0	356	50	0	1	0	0	0	1	blank2r.bmp	0	1	+	0	1	B1r.bmp	492	1	blank2r.bmp	786	1	CPLW	786	1	blank2r.bmp	866	3	vertrauen	866	1	!	-1	1	!	-1	0	0	0	0	0	0	0	0	0	0	0	0	0	0	0	0	0	0	0	0	0	0	0	0	0	0	0
030719	12:51:03	13:00:26	562731	5.0.10.0	4_exp_EVA_AMP_AWA_CON	154	Rpleas_acq	Same	Rpleas	Amasked	CS_A	1pleas	distractor2	EVAbeforeCON	acq_US_unple_masked	acq3_masked	3	25	453	1	300	300	0	0	444	46	0	1	0	0	0	1	blank2r.bmp	0	1	+	0	8	C4r.bmp	492	1	blank2r.bmp	786	1	DHJF	786	1	blank2r.bmp	866	5	gierig	866	1	!	1292	1	!	1346	0	0	0	0	0	0	0	0	0	0	0	0	0	0	0	0	0	0	0	0	0	0	0	0	0	0	0
030719	12:51:03	13:00:29	565264	5.0.10.0	4_exp_EVA_AMP_AWA_CON	154	Rpleas_acq	Same	Rpleas	Amasked	CS_A	1pleas	distractor2	EVAbeforeCON	acq_US_unple_masked	acq3_masked	3	26	453	0	300	300	0	0	543	50	0	0	0	0	0	1	blank2r.bmp	0	1	+	0	5	C1r.bmp	492	1	blank2r.bmp	786	1	DHJF	786	1	blank2r.bmp	866	6	ausrottung	866	1	FEHLER	1745	1	!	1292	1	!	-1	0	0	0	0	0	0	0	0	0	0	0	0	0	0	0	0	0	0	0	0	0	0	0	0
030719	12:51:03	13:00:31	567263	5.0.10.0	4_exp_EVA_AMP_AWA_CON	154	Rpleas_acq	Same	Rpleas	Amasked	CS_A	1pleas	distractor2	EVAbeforeCON	acq_US_unple_masked	acq3_masked	3	27	453	1	300	300	0	0	399	46	0	1	0	0	0	1	blank2r.bmp	0	1	+	0	2	B2r.bmp	492	1	blank2r.bmp	786	1	DHJF	786	1	blank2r.bmp	866	1	krank	866	1	!	1292	1	!	1306	0	0	0	0	0	0	0	0	0	0	0	0	0	0	0	0	0	0	0	0	0	0	0	0	0	0	0
030719	12:51:03	13:00:33	569395	5.0.10.0	4_exp_EVA_AMP_AWA_CON	154	Rpleas_acq	Same	Rpleas	Amasked	CS_A	1pleas	distractor2	EVAbeforeCON	acq_US_pleas_masked	acq3_masked	3	28	453	0	300	300	0	0	361	50	0	1	0	0	0	1	blank2r.bmp	0	1	+	0	1	B1r.bmp	492	1	blank2r.bmp	786	1	CPLW	786	1	blank2r.bmp	866	3	vertrauen	866	1	!	-1	1	!	-1	0	0	0	0	0	0	0	0	0	0	0	0	0	0	0	0	0	0	0	0	0	0	0	0	0	0	0
030719	12:51:03	13:00:35	571554	5.0.10.0	4_exp_EVA_AMP_AWA_CON	154	Rpleas_acq	Same	Rpleas	Amasked	CS_A	1pleas	distractor2	EVAbeforeCON	acq_US_unple_masked	acq3_masked	3	29	453	0	300	300	0	0	374	46	0	1	0	0	0	1	blank2r.bmp	0	1	+	0	4	B4r.bmp	492	1	blank2r.bmp	786	1	DHJF	786	1	blank2r.bmp	866	2	geizig	866	1	!	-1	1	!	-1	0	0	0	0	0	0	0	0	0	0	0	0	0	0	0	0	0	0	0	0	0	0	0	0	0	0	0
030719	12:51:03	13:00:37	573807	5.0.10.0	4_exp_EVA_AMP_AWA_CON	154	Rpleas_acq	Same	Rpleas	Amasked	CS_A	1pleas	distractor2	EVAbeforeCON	acq_US_unple_masked	acq3_masked	3	30	453	1	300	300	0	0	450	46	0	1	0	0	0	1	blank2r.bmp	0	1	+	0	7	C3r.bmp	492	1	blank2r.bmp	786	1	DHJF	786	1	blank2r.bmp	866	4	gemein	866	1	!	1292	1	!	1346	0	0	0	0	0	0	0	0	0	0	0	0	0	0	0	0	0	0	0	0	0	0	0	0	0	0	0
030719	12:51:03	13:00:40	576126	5.0.10.0	4_exp_EVA_AMP_AWA_CON	154	Rpleas_acq	Same	Rpleas	Amasked	CS_A	1pleas	distractor2	EVAbeforeCON	acq_US_pleas_masked	acq3_masked	3	31	453	0	300	300	0	0	551	50	0	1	0	0	0	1	blank2r.bmp	0	1	+	0	3	B3r.bmp	492	1	blank2r.bmp	786	1	CPLW	786	1	blank2r.bmp	866	6	anregung	866	1	!	1292	1	!	-1	0	0	0	0	0	0	0	0	0	0	0	0	0	0	0	0	0	0	0	0	0	0	0	0	0	0	0
030719	12:51:03	13:00:42	578405	5.0.10.0	4_exp_EVA_AMP_AWA_CON	154	Rpleas_acq	Same	Rpleas	Amasked	CS_A	1pleas	distractor2	EVAbeforeCON	acq_US_pleas_masked	acq3_masked	3	32	453	1	300	300	0	0	471	50	0	1	0	0	0	1	blank2r.bmp	0	1	+	0	6	C2r.bmp	492	1	blank2r.bmp	786	1	CPLW	786	1	blank2r.bmp	866	4	genießen	866	1	!	1292	1	!	1372	0	0	0	0	0	0	0	0	0	0	0	0	0	0	0	0	0	0	0	0	0	0	0	0	0	0	0
030719	12:51:03	13:00:44	580724	5.0.10.0	4_exp_EVA_AMP_AWA_CON	154	Rpleas_acq	Same	Rpleas	Amasked	CS_A	1pleas	distractor2	EVAbeforeCON	acq_US_pleas_masked	acq3_masked	3	33	453	1	300	300	0	0	507	50	0	1	0	0	0	1	blank2r.bmp	0	1	+	0	5	C1r.bmp	492	1	blank2r.bmp	786	1	CPLW	786	1	blank2r.bmp	866	1	kreativ	866	1	!	1292	1	!	1412	0	0	0	0	0	0	0	0	0	0	0	0	0	0	0	0	0	0	0	0	0	0	0	0	0	0	0
030719	12:51:03	13:00:47	583123	5.0.10.0	4_exp_EVA_AMP_AWA_CON	154	Rpleas_acq	Same	Rpleas	Amasked	CS_A	1pleas	distractor2	EVAbeforeCON	acq_US_pleas_masked	acq3_masked	3	34	453	0	300	300	0	0	632	50	0	1	0	0	0	1	blank2r.bmp	0	1	+	0	7	C3r.bmp	492	1	blank2r.bmp	786	1	CPLW	786	1	blank2r.bmp	866	5	gütig	866	1	!	1292	1	!	-1	0	0	0	0	0	0	0	0	0	0	0	0	0	0	0	0	0	0	0	0	0	0	0	0	0	0	0
030719	12:51:03	13:00:49	585589	5.0.10.0	4_exp_EVA_AMP_AWA_CON	154	Rpleas_acq	Same	Rpleas	Amasked	CS_A	1pleas	distractor2	EVAbeforeCON	acq_US_pleas_masked	acq3_masked	3	35	453	1	300	300	0	0	441	46	0	0	0	0	0	1	blank2r.bmp	0	1	+	0	8	C4r.bmp	492	1	blank2r.bmp	786	1	CPLW	786	1	blank2r.bmp	866	2	gesittet	866	1	FEHLER	1665	1	!	1292	1	!	1346	0	0	0	0	0	0	0	0	0	0	0	0	0	0	0	0	0	0	0	0	0	0	0	0
030719	12:51:03	13:00:51	587868	5.0.10.0	4_exp_EVA_AMP_AWA_CON	154	Rpleas_acq	Same	Rpleas	Amasked	CS_A	1pleas	distractor2	EVAbeforeCON	acq_US_unple_masked	acq3_masked	3	36	453	1	300	300	0	0	484	50	0	0	0	0	0	1	blank2r.bmp	0	1	+	0	6	C2r.bmp	492	1	blank2r.bmp	786	1	DHJF	786	1	blank2r.bmp	866	3	versagen	866	1	FEHLER	1705	1	!	1292	1	!	1386	0	0	0	0	0	0	0	0	0	0	0	0	0	0	0	0	0	0	0	0	0	0	0	0
030719	12:51:03	13:01:15	611312	5.0.10.0	4_exp_EVA_AMP_AWA_CON	154	Rpleas_acq	Same	Rpleas	Amasked	CS_A	1pleas	distractor2	EVAbeforeCON	acq_US_pleas_masked	acq45_masked	4	1	400	0	300	300	0	0	609	46	0	0	0	0	0	1	blank2r.bmp	0	1	+	0	4	B4r.bmp	492	1	blank2r.bmp	786	1	CPLW	786	1	blank2r.bmp	866	2	gesittet	866	1	!	1239	1	!	-1	0	0	0	0	0	0	0	0	0	0	0	0	0	0	0	0	0	0	0	0	0	0	0	0	0	0	0
030719	12:51:03	13:01:17	613564	5.0.10.0	4_exp_EVA_AMP_AWA_CON	154	Rpleas_acq	Same	Rpleas	Amasked	CS_A	1pleas	distractor2	EVAbeforeCON	acq_US_pleas_masked	acq45_masked	4	2	400	1	300	300	0	0	440	46	0	0	0	0	0	1	blank2r.bmp	0	1	+	0	3	B3r.bmp	492	1	blank2r.bmp	786	1	CPLW	786	1	blank2r.bmp	866	4	genießen	866	1	!	1239	1	!	1346	0	0	0	0	0	0	0	0	0	0	0	0	0	0	0	0	0	0	0	0	0	0	0	0	0	0	0
030719	12:51:03	13:01:19	615817	5.0.10.0	4_exp_EVA_AMP_AWA_CON	154	Rpleas_acq	Same	Rpleas	Amasked	CS_A	1pleas	distractor2	EVAbeforeCON	acq_US_unple_masked	acq45_masked	4	3	400	0	300	300	0	0	479	46	0	1	0	0	0	1	blank2r.bmp	0	1	+	0	2	B2r.bmp	492	1	blank2r.bmp	786	1	DHJF	786	1	blank2r.bmp	866	6	ausrottung	866	1	!	1239	1	!	-1	0	0	0	0	0	0	0	0	0	0	0	0	0	0	0	0	0	0	0	0	0	0	0	0	0	0	0
030719	12:51:03	13:01:22	618082	5.0.10.0	4_exp_EVA_AMP_AWA_CON	154	Rpleas_acq	Same	Rpleas	Amasked	CS_A	1pleas	distractor2	EVAbeforeCON	acq_US_pleas_masked	acq45_masked	4	4	400	0	300	300	0	0	479	50	0	1	0	0	0	1	blank2r.bmp	0	1	+	0	1	B1r.bmp	492	1	blank2r.bmp	786	1	CPLW	786	1	blank2r.bmp	866	1	kreativ	866	1	!	1239	1	!	-1	0	0	0	0	0	0	0	0	0	0	0	0	0	0	0	0	0	0	0	0	0	0	0	0	0	0	0
030719	12:51:03	13:01:24	620255	5.0.10.0	4_exp_EVA_AMP_AWA_CON	154	Rpleas_acq	Same	Rpleas	Amasked	CS_A	1pleas	distractor2	EVAbeforeCON	acq_US_unple_masked	acq45_masked	4	5	400	1	300	300	0	0	371	46	0	1	0	0	0	1	blank2r.bmp	0	1	+	0	4	B4r.bmp	492	1	blank2r.bmp	786	1	DHJF	786	1	blank2r.bmp	866	1	krank	866	1	!	1239	1	!	1266	0	0	0	0	0	0	0	0	0	0	0	0	0	0	0	0	0	0	0	0	0	0	0	0	0	0	0
030719	12:51:03	13:01:26	622454	5.0.10.0	4_exp_EVA_AMP_AWA_CON	154	Rpleas_acq	Same	Rpleas	Amasked	CS_A	1pleas	distractor2	EVAbeforeCON	acq_US_pleas_masked	acq45_masked	4	6	400	1	300	300	0	0	402	46	0	0	0	0	0	1	blank2r.bmp	0	1	+	0	8	C4r.bmp	492	1	blank2r.bmp	786	1	CPLW	786	1	blank2r.bmp	866	5	gütig	866	1	!	1239	1	!	1306	0	0	0	0	0	0	0	0	0	0	0	0	0	0	0	0	0	0	0	0	0	0	0	0	0	0	0
030719	12:51:03	13:01:28	624626	5.0.10.0	4_exp_EVA_AMP_AWA_CON	154	Rpleas_acq	Same	Rpleas	Amasked	CS_A	1pleas	distractor2	EVAbeforeCON	acq_US_unple_masked	acq45_masked	4	7	400	1	300	300	0	0	383	46	0	1	0	0	0	1	blank2r.bmp	0	1	+	0	7	C3r.bmp	492	1	blank2r.bmp	786	1	DHJF	786	1	blank2r.bmp	866	3	versagen	866	1	!	1239	1	!	1279	0	0	0	0	0	0	0	0	0	0	0	0	0	0	0	0	0	0	0	0	0	0	0	0	0	0	0
030719	12:51:03	13:01:30	626852	5.0.10.0	4_exp_EVA_AMP_AWA_CON	154	Rpleas_acq	Same	Rpleas	Amasked	CS_A	1pleas	distractor2	EVAbeforeCON	acq_US_pleas_masked	acq45_masked	4	8	400	1	300	300	0	0	425	50	0	1	0	0	0	1	blank2r.bmp	0	1	+	0	1	B1r.bmp	492	1	blank2r.bmp	786	1	CPLW	786	1	blank2r.bmp	866	3	vertrauen	866	1	!	1239	1	!	1319	0	0	0	0	0	0	0	0	0	0	0	0	0	0	0	0	0	0	0	0	0	0	0	0	0	0	0
030719	12:51:03	13:01:33	629091	5.0.10.0	4_exp_EVA_AMP_AWA_CON	154	Rpleas_acq	Same	Rpleas	Amasked	CS_A	1pleas	distractor2	EVAbeforeCON	acq_US_pleas_masked	acq45_masked	4	9	400	1	300	300	0	0	443	50	0	1	0	0	0	1	blank2r.bmp	0	1	+	0	5	C1r.bmp	492	1	blank2r.bmp	786	1	CPLW	786	1	blank2r.bmp	866	6	anregung	866	1	!	1239	1	!	1346	0	0	0	0	0	0	0	0	0	0	0	0	0	0	0	0	0	0	0	0	0	0	0	0	0	0	0
030719	12:51:03	13:01:35	631290	5.0.10.0	4_exp_EVA_AMP_AWA_CON	154	Rpleas_acq	Same	Rpleas	Amasked	CS_A	1pleas	distractor2	EVAbeforeCON	acq_US_unple_masked	acq45_masked	4	10	400	1	300	300	0	0	406	46	0	1	0	0	0	1	blank2r.bmp	0	1	+	0	6	C2r.bmp	492	1	blank2r.bmp	786	1	DHJF	786	1	blank2r.bmp	866	4	gemein	866	1	!	1239	1	!	1306	0	0	0	0	0	0	0	0	0	0	0	0	0	0	0	0	0	0	0	0	0	0	0	0	0	0	0
030719	12:51:03	13:01:37	633529	5.0.10.0	4_exp_EVA_AMP_AWA_CON	154	Rpleas_acq	Same	Rpleas	Amasked	CS_A	1pleas	distractor2	EVAbeforeCON	acq_US_unple_masked	acq45_masked	4	11	400	1	300	300	0	0	450	50	0	0	0	0	0	1	blank2r.bmp	0	1	+	0	2	B2r.bmp	492	1	blank2r.bmp	786	1	DHJF	786	1	blank2r.bmp	866	5	gierig	866	1	!	1239	1	!	1346	0	0	0	0	0	0	0	0	0	0	0	0	0	0	0	0	0	0	0	0	0	0	0	0	0	0	0
030719	12:51:03	13:01:39	635702	5.0.10.0	4_exp_EVA_AMP_AWA_CON	154	Rpleas_acq	Same	Rpleas	Amasked	CS_A	1pleas	distractor2	EVAbeforeCON	acq_US_pleas_masked	acq45_masked	4	12	400	1	300	300	0	0	377	50	0	1	0	0	0	1	blank2r.bmp	0	1	+	0	3	B3r.bmp	492	1	blank2r.bmp	786	1	CPLW	786	1	blank2r.bmp	866	1	kreativ	866	1	!	1239	1	!	1279	0	0	0	0	0	0	0	0	0	0	0	0	0	0	0	0	0	0	0	0	0	0	0	0	0	0	0
030719	12:51:03	13:01:42	637968	5.0.10.0	4_exp_EVA_AMP_AWA_CON	154	Rpleas_acq	Same	Rpleas	Amasked	CS_A	1pleas	distractor2	EVAbeforeCON	acq_US_unple_masked	acq45_masked	4	13	400	1	300	300	0	0	456	46	0	1	0	0	0	1	blank2r.bmp	0	1	+	0	1	B1r.bmp	492	1	blank2r.bmp	786	1	DHJF	786	1	blank2r.bmp	866	2	geizig	866	1	!	1239	1	!	1359	0	0	0	0	0	0	0	0	0	0	0	0	0	0	0	0	0	0	0	0	0	0	0	0	0	0	0
030719	12:51:03	13:01:44	640140	5.0.10.0	4_exp_EVA_AMP_AWA_CON	154	Rpleas_acq	Same	Rpleas	Amasked	CS_A	1pleas	distractor2	EVAbeforeCON	acq_US_unple_masked	acq45_masked	4	14	400	1	300	300	0	0	381	46	0	1	0	0	0	1	blank2r.bmp	0	1	+	0	6	C2r.bmp	492	1	blank2r.bmp	786	1	DHJF	786	1	blank2r.bmp	866	2	geizig	866	1	!	1239	1	!	1279	0	0	0	0	0	0	0	0	0	0	0	0	0	0	0	0	0	0	0	0	0	0	0	0	0	0	0
030719	12:51:03	13:01:46	642366	5.0.10.0	4_exp_EVA_AMP_AWA_CON	154	Rpleas_acq	Same	Rpleas	Amasked	CS_A	1pleas	distractor2	EVAbeforeCON	acq_US_pleas_masked	acq45_masked	4	15	400	1	300	300	0	0	433	50	0	1	0	0	0	1	blank2r.bmp	0	1	+	0	7	C3r.bmp	492	1	blank2r.bmp	786	1	CPLW	786	1	blank2r.bmp	866	4	genießen	866	1	!	1239	1	!	1332	0	0	0	0	0	0	0	0	0	0	0	0	0	0	0	0	0	0	0	0	0	0	0	0	0	0	0
030719	12:51:03	13:01:48	644632	5.0.10.0	4_exp_EVA_AMP_AWA_CON	154	Rpleas_acq	Same	Rpleas	Amasked	CS_A	1pleas	distractor2	EVAbeforeCON	acq_US_pleas_masked	acq45_masked	4	16	400	0	300	300	0	0	492	50	0	1	0	0	0	1	blank2r.bmp	0	1	+	0	4	B4r.bmp	492	1	blank2r.bmp	786	1	CPLW	786	1	blank2r.bmp	866	5	gütig	866	1	!	1239	1	!	-1	0	0	0	0	0	0	0	0	0	0	0	0	0	0	0	0	0	0	0	0	0	0	0	0	0	0	0
030719	12:51:03	13:01:50	646791	5.0.10.0	4_exp_EVA_AMP_AWA_CON	154	Rpleas_acq	Same	Rpleas	Amasked	CS_A	1pleas	distractor2	EVAbeforeCON	acq_US_unple_masked	acq45_masked	4	17	400	1	300	300	0	0	348	46	0	1	0	0	0	1	blank2r.bmp	0	1	+	0	5	C1r.bmp	492	1	blank2r.bmp	786	1	DHJF	786	1	blank2r.bmp	866	4	gemein	866	1	!	1239	1	!	1252	0	0	0	0	0	0	0	0	0	0	0	0	0	0	0	0	0	0	0	0	0	0	0	0	0	0	0
030719	12:51:03	13:01:53	648990	5.0.10.0	4_exp_EVA_AMP_AWA_CON	154	Rpleas_acq	Same	Rpleas	Amasked	CS_A	1pleas	distractor2	EVAbeforeCON	acq_US_unple_masked	acq45_masked	4	18	400	1	300	300	0	0	406	46	0	1	0	0	0	1	blank2r.bmp	0	1	+	0	2	B2r.bmp	492	1	blank2r.bmp	786	1	DHJF	786	1	blank2r.bmp	866	6	ausrottung	866	1	!	1239	1	!	1306	0	0	0	0	0	0	0	0	0	0	0	0	0	0	0	0	0	0	0	0	0	0	0	0	0	0	0
030719	12:51:03	13:01:55	651362	5.0.10.0	4_exp_EVA_AMP_AWA_CON	154	Rpleas_acq	Same	Rpleas	Amasked	CS_A	1pleas	distractor2	EVAbeforeCON	acq_US_pleas_masked	acq45_masked	4	19	400	0	300	300	0	0	600	50	0	1	0	0	0	1	blank2r.bmp	0	1	+	0	3	B3r.bmp	492	1	blank2r.bmp	786	1	CPLW	786	1	blank2r.bmp	866	2	gesittet	866	1	!	1239	1	!	-1	0	0	0	0	0	0	0	0	0	0	0	0	0	0	0	0	0	0	0	0	0	0	0	0	0	0	0
030719	12:51:03	13:01:57	653521	5.0.10.0	4_exp_EVA_AMP_AWA_CON	154	Rpleas_acq	Same	Rpleas	Amasked	CS_A	1pleas	distractor2	EVAbeforeCON	acq_US_pleas_masked	acq45_masked	4	20	400	1	300	300	0	0	356	46	0	0	0	0	0	1	blank2r.bmp	0	1	+	0	8	C4r.bmp	492	1	blank2r.bmp	786	1	CPLW	786	1	blank2r.bmp	866	6	anregung	866	1	!	1239	1	!	1252	0	0	0	0	0	0	0	0	0	0	0	0	0	0	0	0	0	0	0	0	0	0	0	0	0	0	0
030719	12:51:03	13:01:59	655734	5.0.10.0	4_exp_EVA_AMP_AWA_CON	154	Rpleas_acq	Same	Rpleas	Amasked	CS_A	1pleas	distractor2	EVAbeforeCON	acq_US_unple_masked	acq45_masked	4	21	400	1	300	300	0	0	422	46	0	1	0	0	0	1	blank2r.bmp	0	1	+	0	1	B1r.bmp	492	1	blank2r.bmp	786	1	DHJF	786	1	blank2r.bmp	866	5	gierig	866	1	!	1239	1	!	1319	0	0	0	0	0	0	0	0	0	0	0	0	0	0	0	0	0	0	0	0	0	0	0	0	0	0	0
030719	12:51:03	13:02:02	658013	5.0.10.0	4_exp_EVA_AMP_AWA_CON	154	Rpleas_acq	Same	Rpleas	Amasked	CS_A	1pleas	distractor2	EVAbeforeCON	acq_US_unple_masked	acq45_masked	4	22	400	0	300	300	0	0	501	46	0	1	0	0	0	1	blank2r.bmp	0	1	+	0	2	B2r.bmp	492	1	blank2r.bmp	786	1	DHJF	786	1	blank2r.bmp	866	3	versagen	866	1	!	1239	1	!	-1	0	0	0	0	0	0	0	0	0	0	0	0	0	0	0	0	0	0	0	0	0	0	0	0	0	0	0
030719	12:51:03	13:02:04	660292	5.0.10.0	4_exp_EVA_AMP_AWA_CON	154	Rpleas_acq	Same	Rpleas	Amasked	CS_A	1pleas	distractor2	EVAbeforeCON	acq_US_pleas_masked	acq45_masked	4	23	400	0	300	300	0	0	479	50	0	1	0	0	0	1	blank2r.bmp	0	1	+	0	4	B4r.bmp	492	1	blank2r.bmp	786	1	CPLW	786	1	blank2r.bmp	866	3	vertrauen	866	1	!	1239	1	!	-1	0	0	0	0	0	0	0	0	0	0	0	0	0	0	0	0	0	0	0	0	0	0	0	0	0	0	0
030719	12:51:03	13:02:06	662478	5.0.10.0	4_exp_EVA_AMP_AWA_CON	154	Rpleas_acq	Same	Rpleas	Amasked	CS_A	1pleas	distractor2	EVAbeforeCON	acq_US_unple_masked	acq45_masked	4	24	400	1	300	300	0	0	374	46	0	1	0	0	0	1	blank2r.bmp	0	1	+	0	5	C1r.bmp	492	1	blank2r.bmp	786	1	DHJF	786	1	blank2r.bmp	866	1	krank	866	1	!	1239	1	!	1279	0	0	0	0	0	0	0	0	0	0	0	0	0	0	0	0	0	0	0	0	0	0	0	0	0	0	0
030719	12:51:03	13:02:08	664703	5.0.10.0	4_exp_EVA_AMP_AWA_CON	154	Rpleas_acq	Same	Rpleas	Amasked	CS_A	1pleas	distractor2	EVAbeforeCON	acq_US_pleas_masked	acq45_masked	4	25	400	1	300	300	0	0	430	50	0	1	0	0	0	1	blank2r.bmp	0	1	+	0	7	C3r.bmp	492	1	blank2r.bmp	786	1	CPLW	786	1	blank2r.bmp	866	2	gesittet	866	1	!	1239	1	!	1332	0	0	0	0	0	0	0	0	0	0	0	0	0	0	0	0	0	0	0	0	0	0	0	0	0	0	0
030719	12:51:03	13:02:11	666929	5.0.10.0	4_exp_EVA_AMP_AWA_CON	154	Rpleas_acq	Same	Rpleas	Amasked	CS_A	1pleas	distractor2	EVAbeforeCON	acq_US_pleas_masked	acq45_masked	4	26	400	1	300	300	0	0	413	50	0	1	0	0	0	1	blank2r.bmp	0	1	+	0	3	B3r.bmp	492	1	blank2r.bmp	786	1	CPLW	786	1	blank2r.bmp	866	5	gütig	866	1	!	1239	1	!	1319	0	0	0	0	0	0	0	0	0	0	0	0	0	0	0	0	0	0	0	0	0	0	0	0	0	0	0
030719	12:51:03	13:02:13	669142	5.0.10.0	4_exp_EVA_AMP_AWA_CON	154	Rpleas_acq	Same	Rpleas	Amasked	CS_A	1pleas	distractor2	EVAbeforeCON	acq_US_unple_masked	acq45_masked	4	27	400	1	300	300	0	0	422	46	0	1	0	0	0	1	blank2r.bmp	0	1	+	0	8	C4r.bmp	492	1	blank2r.bmp	786	1	DHJF	786	1	blank2r.bmp	866	5	gierig	866	1	!	1239	1	!	1319	0	0	0	0	0	0	0	0	0	0	0	0	0	0	0	0	0	0	0	0	0	0	0	0	0	0	0
030719	12:51:03	13:02:15	671167	5.0.10.0	4_exp_EVA_AMP_AWA_CON	154	Rpleas_acq	Same	Rpleas	Amasked	CS_A	1pleas	distractor2	EVAbeforeCON	acq_US_unple_masked	acq45_masked	4	28	400	0	300	300	0	0	259	50	0	0	0	0	0	1	blank2r.bmp	0	1	+	0	6	C2r.bmp	492	1	blank2r.bmp	786	1	DHJF	786	1	blank2r.bmp	866	2	geizig	866	1	!	-1	1	!	-1	0	0	0	0	0	0	0	0	0	0	0	0	0	0	0	0	0	0	0	0	0	0	0	0	0	0	0
030719	12:51:03	13:02:17	673353	5.0.10.0	4_exp_EVA_AMP_AWA_CON	154	Rpleas_acq	Same	Rpleas	Amasked	CS_A	1pleas	distractor2	EVAbeforeCON	acq_US_unple_masked	acq45_masked	4	29	400	1	300	300	0	0	384	46	0	1	0	0	0	1	blank2r.bmp	0	1	+	0	7	C3r.bmp	492	1	blank2r.bmp	786	1	DHJF	786	1	blank2r.bmp	866	1	krank	866	1	!	1239	1	!	1279	0	0	0	0	0	0	0	0	0	0	0	0	0	0	0	0	0	0	0	0	0	0	0	0	0	0	0
030719	12:51:03	13:02:19	675632	5.0.10.0	4_exp_EVA_AMP_AWA_CON	154	Rpleas_acq	Same	Rpleas	Amasked	CS_A	1pleas	distractor2	EVAbeforeCON	acq_US_pleas_masked	acq45_masked	4	30	400	0	300	300	0	0	505	50	0	1	0	0	0	1	blank2r.bmp	0	1	+	0	3	B3r.bmp	492	1	blank2r.bmp	786	1	CPLW	786	1	blank2r.bmp	866	6	anregung	866	1	!	1239	1	!	-1	0	0	0	0	0	0	0	0	0	0	0	0	0	0	0	0	0	0	0	0	0	0	0	0	0	0	0
030719	12:51:03	13:02:21	677818	5.0.10.0	4_exp_EVA_AMP_AWA_CON	154	Rpleas_acq	Same	Rpleas	Amasked	CS_A	1pleas	distractor2	EVAbeforeCON	acq_US_pleas_masked	acq45_masked	4	31	400	1	300	300	0	0	373	46	0	0	0	0	0	1	blank2r.bmp	0	1	+	0	4	B4r.bmp	492	1	blank2r.bmp	786	1	CPLW	786	1	blank2r.bmp	866	4	genießen	866	1	!	1239	1	!	1279	0	0	0	0	0	0	0	0	0	0	0	0	0	0	0	0	0	0	0	0	0	0	0	0	0	0	0
030719	12:51:03	13:02:24	680097	5.0.10.0	4_exp_EVA_AMP_AWA_CON	154	Rpleas_acq	Same	Rpleas	Amasked	CS_A	1pleas	distractor2	EVAbeforeCON	acq_US_unple_masked	acq45_masked	4	32	400	0	300	300	0	0	506	46	0	1	0	0	0	1	blank2r.bmp	0	1	+	0	6	C2r.bmp	492	1	blank2r.bmp	786	1	DHJF	786	1	blank2r.bmp	866	3	versagen	866	1	!	1239	1	!	-1	0	0	0	0	0	0	0	0	0	0	0	0	0	0	0	0	0	0	0	0	0	0	0	0	0	0	0
030719	12:51:03	13:02:26	682390	5.0.10.0	4_exp_EVA_AMP_AWA_CON	154	Rpleas_acq	Same	Rpleas	Amasked	CS_A	1pleas	distractor2	EVAbeforeCON	acq_US_unple_masked	acq45_masked	4	33	400	0	300	300	0	0	510	46	0	1	0	0	0	1	blank2r.bmp	0	1	+	0	2	B2r.bmp	492	1	blank2r.bmp	786	1	DHJF	786	1	blank2r.bmp	866	6	ausrottung	866	1	!	1239	1	!	-1	0	0	0	0	0	0	0	0	0	0	0	0	0	0	0	0	0	0	0	0	0	0	0	0	0	0	0
030719	12:51:03	13:02:28	684549	5.0.10.0	4_exp_EVA_AMP_AWA_CON	154	Rpleas_acq	Same	Rpleas	Amasked	CS_A	1pleas	distractor2	EVAbeforeCON	acq_US_pleas_masked	acq45_masked	4	34	400	1	300	300	0	0	352	50	0	1	0	0	0	1	blank2r.bmp	0	1	+	0	5	C1r.bmp	492	1	blank2r.bmp	786	1	CPLW	786	1	blank2r.bmp	866	3	vertrauen	866	1	!	1239	1	!	1252	0	0	0	0	0	0	0	0	0	0	0	0	0	0	0	0	0	0	0	0	0	0	0	0	0	0	0
030719	12:51:03	13:02:30	686801	5.0.10.0	4_exp_EVA_AMP_AWA_CON	154	Rpleas_acq	Same	Rpleas	Amasked	CS_A	1pleas	distractor2	EVAbeforeCON	acq_US_pleas_masked	acq45_masked	4	35	400	0	300	300	0	0	487	46	0	0	0	0	0	1	blank2r.bmp	0	1	+	0	8	C4r.bmp	492	1	blank2r.bmp	786	1	CPLW	786	1	blank2r.bmp	866	1	kreativ	866	1	!	1239	1	!	-1	0	0	0	0	0	0	0	0	0	0	0	0	0	0	0	0	0	0	0	0	0	0	0	0	0	0	0
030719	12:51:03	13:02:33	689000	5.0.10.0	4_exp_EVA_AMP_AWA_CON	154	Rpleas_acq	Same	Rpleas	Amasked	CS_A	1pleas	distractor2	EVAbeforeCON	acq_US_unple_masked	acq45_masked	4	36	400	1	300	300	0	0	386	46	0	1	0	0	0	1	blank2r.bmp	0	1	+	0	1	B1r.bmp	492	1	blank2r.bmp	786	1	DHJF	786	1	blank2r.bmp	866	4	gemein	866	1	!	1239	1	!	1292	0	0	0	0	0	0	0	0	0	0	0	0	0	0	0	0	0	0	0	0	0	0	0	0	0	0	0
030719	12:51:03	13:02:42	698730	5.0.10.0	4_exp_EVA_AMP_AWA_CON	154	Rpleas_acq	Same	Rpleas	Amasked	CS_A	1pleas	distractor2	EVAbeforeCON	acq_US_unple_masked	acq45_masked	5	1	400	0	300	300	0	0	479	46	0	1	0	0	0	1	blank2r.bmp	0	1	+	0	8	C4r.bmp	492	1	blank2r.bmp	786	1	DHJF	786	1	blank2r.bmp	866	4	gemein	866	1	!	1239	1	!	-1	0	0	0	0	0	0	0	0	0	0	0	0	0	0	0	0	0	0	0	0	0	0	0	0	0	0	0
030719	12:51:03	13:02:45	700955	5.0.10.0	4_exp_EVA_AMP_AWA_CON	154	Rpleas_acq	Same	Rpleas	Amasked	CS_A	1pleas	distractor2	EVAbeforeCON	acq_US_unple_masked	acq45_masked	5	2	400	1	300	300	0	0	412	46	0	1	0	0	0	1	blank2r.bmp	0	1	+	0	1	B1r.bmp	492	1	blank2r.bmp	786	1	DHJF	786	1	blank2r.bmp	866	6	ausrottung	866	1	!	1239	1	!	1319	0	0	0	0	0	0	0	0	0	0	0	0	0	0	0	0	0	0	0	0	0	0	0	0	0	0	0
030719	12:51:03	13:02:47	703248	5.0.10.0	4_exp_EVA_AMP_AWA_CON	154	Rpleas_acq	Same	Rpleas	Amasked	CS_A	1pleas	distractor2	EVAbeforeCON	acq_US_unple_masked	acq45_masked	5	3	400	0	300	300	0	0	510	46	0	1	0	0	0	1	blank2r.bmp	0	1	+	0	6	C2r.bmp	492	1	blank2r.bmp	786	1	DHJF	786	1	blank2r.bmp	866	1	krank	866	1	!	1239	1	!	-1	0	0	0	0	0	0	0	0	0	0	0	0	0	0	0	0	0	0	0	0	0	0	0	0	0	0	0
030719	12:51:03	13:02:49	705340	5.0.10.0	4_exp_EVA_AMP_AWA_CON	154	Rpleas_acq	Same	Rpleas	Amasked	CS_A	1pleas	distractor2	EVAbeforeCON	acq_US_pleas_masked	acq45_masked	5	4	400	0	300	300	0	0	306	46	0	0	0	0	0	1	blank2r.bmp	0	1	+	0	4	B4r.bmp	492	1	blank2r.bmp	786	1	CPLW	786	1	blank2r.bmp	866	1	kreativ	866	1	!	-1	1	!	-1	0	0	0	0	0	0	0	0	0	0	0	0	0	0	0	0	0	0	0	0	0	0	0	0	0	0	0
030719	12:51:03	13:02:51	707539	5.0.10.0	4_exp_EVA_AMP_AWA_CON	154	Rpleas_acq	Same	Rpleas	Amasked	CS_A	1pleas	distractor2	EVAbeforeCON	acq_US_unple_masked	acq45_masked	5	5	400	1	300	300	0	0	398	50	0	0	0	0	0	1	blank2r.bmp	0	1	+	0	2	B2r.bmp	492	1	blank2r.bmp	786	1	DHJF	786	1	blank2r.bmp	866	3	versagen	866	1	!	1239	1	!	1292	0	0	0	0	0	0	0	0	0	0	0	0	0	0	0	0	0	0	0	0	0	0	0	0	0	0	0
030719	12:51:03	13:02:53	709765	5.0.10.0	4_exp_EVA_AMP_AWA_CON	154	Rpleas_acq	Same	Rpleas	Amasked	CS_A	1pleas	distractor2	EVAbeforeCON	acq_US_unple_masked	acq45_masked	5	6	400	1	300	300	0	0	420	46	0	1	0	0	0	1	blank2r.bmp	0	1	+	0	3	B3r.bmp	492	1	blank2r.bmp	786	1	DHJF	786	1	blank2r.bmp	866	5	gierig	866	1	!	1239	1	!	1319	0	0	0	0	0	0	0	0	0	0	0	0	0	0	0	0	0	0	0	0	0	0	0	0	0	0	0
030719	12:51:03	13:02:56	711991	5.0.10.0	4_exp_EVA_AMP_AWA_CON	154	Rpleas_acq	Same	Rpleas	Amasked	CS_A	1pleas	distractor2	EVAbeforeCON	acq_US_pleas_masked	acq45_masked	5	7	400	1	300	300	0	0	425	46	0	0	0	0	0	1	blank2r.bmp	0	1	+	0	7	C3r.bmp	492	1	blank2r.bmp	786	1	CPLW	786	1	blank2r.bmp	866	6	anregung	866	1	!	1239	1	!	1332	0	0	0	0	0	0	0	0	0	0	0	0	0	0	0	0	0	0	0	0	0	0	0	0	0	0	0
030719	12:51:03	13:02:58	714243	5.0.10.0	4_exp_EVA_AMP_AWA_CON	154	Rpleas_acq	Same	Rpleas	Amasked	CS_A	1pleas	distractor2	EVAbeforeCON	acq_US_pleas_masked	acq45_masked	5	8	400	0	300	300	0	0	479	50	0	1	0	0	0	1	blank2r.bmp	0	1	+	0	5	C1r.bmp	492	1	blank2r.bmp	786	1	CPLW	786	1	blank2r.bmp	866	4	genießen	866	1	!	1239	1	!	-1	0	0	0	0	0	0	0	0	0	0	0	0	0	0	0	0	0	0	0	0	0	0	0	0	0	0	0
030719	12:51:03	13:03:00	716349	5.0.10.0	4_exp_EVA_AMP_AWA_CON	154	Rpleas_acq	Same	Rpleas	Amasked	CS_A	1pleas	distractor2	EVAbeforeCON	acq_US_pleas_masked	acq45_masked	5	9	400	0	300	300	0	0	321	50	0	1	0	0	0	1	blank2r.bmp	0	1	+	0	6	C2r.bmp	492	1	blank2r.bmp	786	1	CPLW	786	1	blank2r.bmp	866	5	gütig	866	1	!	-1	1	!	-1	0	0	0	0	0	0	0	0	0	0	0	0	0	0	0	0	0	0	0	0	0	0	0	0	0	0	0
030719	12:51:03	13:03:02	718522	5.0.10.0	4_exp_EVA_AMP_AWA_CON	154	Rpleas_acq	Same	Rpleas	Amasked	CS_A	1pleas	distractor2	EVAbeforeCON	acq_US_unple_masked	acq45_masked	5	10	400	1	300	300	0	0	359	46	0	1	0	0	0	1	blank2r.bmp	0	1	+	0	4	B4r.bmp	492	1	blank2r.bmp	786	1	DHJF	786	1	blank2r.bmp	866	2	geizig	866	1	!	1239	1	!	1266	0	0	0	0	0	0	0	0	0	0	0	0	0	0	0	0	0	0	0	0	0	0	0	0	0	0	0
030719	12:51:03	13:03:04	720707	5.0.10.0	4_exp_EVA_AMP_AWA_CON	154	Rpleas_acq	Same	Rpleas	Amasked	CS_A	1pleas	distractor2	EVAbeforeCON	acq_US_unple_masked	acq45_masked	5	11	400	1	300	300	0	0	376	46	0	1	0	0	0	1	blank2r.bmp	0	1	+	0	3	B3r.bmp	492	1	blank2r.bmp	786	1	DHJF	786	1	blank2r.bmp	866	6	ausrottung	866	1	!	1239	1	!	1279	0	0	0	0	0	0	0	0	0	0	0	0	0	0	0	0	0	0	0	0	0	0	0	0	0	0	0
030719	12:51:03	13:03:06	722880	5.0.10.0	4_exp_EVA_AMP_AWA_CON	154	Rpleas_acq	Same	Rpleas	Amasked	CS_A	1pleas	distractor2	EVAbeforeCON	acq_US_pleas_masked	acq45_masked	5	12	400	1	300	300	0	0	381	46	0	0	0	0	0	1	blank2r.bmp	0	1	+	0	1	B1r.bmp	492	1	blank2r.bmp	786	1	CPLW	786	1	blank2r.bmp	866	2	gesittet	866	1	!	1239	1	!	1279	0	0	0	0	0	0	0	0	0	0	0	0	0	0	0	0	0	0	0	0	0	0	0	0	0	0	0
030719	12:51:03	13:03:09	725026	5.0.10.0	4_exp_EVA_AMP_AWA_CON	154	Rpleas_acq	Same	Rpleas	Amasked	CS_A	1pleas	distractor2	EVAbeforeCON	acq_US_pleas_masked	acq45_masked	5	13	400	1	300	300	0	0	346	50	0	1	0	0	0	1	blank2r.bmp	0	1	+	0	2	B2r.bmp	492	1	blank2r.bmp	786	1	CPLW	786	1	blank2r.bmp	866	3	vertrauen	866	1	!	1239	1	!	1252	0	0	0	0	0	0	0	0	0	0	0	0	0	0	0	0	0	0	0	0	0	0	0	0	0	0	0
030719	12:51:03	13:03:11	727238	5.0.10.0	4_exp_EVA_AMP_AWA_CON	154	Rpleas_acq	Same	Rpleas	Amasked	CS_A	1pleas	distractor2	EVAbeforeCON	acq_US_pleas_masked	acq45_masked	5	14	400	1	300	300	0	0	415	50	0	1	0	0	0	1	blank2r.bmp	0	1	+	0	5	C1r.bmp	492	1	blank2r.bmp	786	1	CPLW	786	1	blank2r.bmp	866	4	genießen	866	1	!	1239	1	!	1319	0	0	0	0	0	0	0	0	0	0	0	0	0	0	0	0	0	0	0	0	0	0	0	0	0	0	0
030719	12:51:03	13:03:13	729384	5.0.10.0	4_exp_EVA_AMP_AWA_CON	154	Rpleas_acq	Same	Rpleas	Amasked	CS_A	1pleas	distractor2	EVAbeforeCON	acq_US_unple_masked	acq45_masked	5	15	400	1	300	300	0	0	357	46	0	1	0	0	0	1	blank2r.bmp	0	1	+	0	7	C3r.bmp	492	1	blank2r.bmp	786	1	DHJF	786	1	blank2r.bmp	866	1	krank	866	1	!	1239	1	!	1252	0	0	0	0	0	0	0	0	0	0	0	0	0	0	0	0	0	0	0	0	0	0	0	0	0	0	0
030719	12:51:03	13:03:15	731530	5.0.10.0	4_exp_EVA_AMP_AWA_CON	154	Rpleas_acq	Same	Rpleas	Amasked	CS_A	1pleas	distractor2	EVAbeforeCON	acq_US_pleas_masked	acq45_masked	5	16	400	1	300	300	0	0	358	46	0	0	0	0	0	1	blank2r.bmp	0	1	+	0	8	C4r.bmp	492	1	blank2r.bmp	786	1	CPLW	786	1	blank2r.bmp	866	1	kreativ	866	1	!	1239	1	!	1252	0	0	0	0	0	0	0	0	0	0	0	0	0	0	0	0	0	0	0	0	0	0	0	0	0	0	0
030719	12:51:03	13:03:17	733729	5.0.10.0	4_exp_EVA_AMP_AWA_CON	154	Rpleas_acq	Same	Rpleas	Amasked	CS_A	1pleas	distractor2	EVAbeforeCON	acq_US_pleas_masked	acq45_masked	5	17	400	1	300	300	0	0	407	50	0	1	0	0	0	1	blank2r.bmp	0	1	+	0	6	C2r.bmp	492	1	blank2r.bmp	786	1	CPLW	786	1	blank2r.bmp	866	3	vertrauen	866	1	!	1239	1	!	1306	0	0	0	0	0	0	0	0	0	0	0	0	0	0	0	0	0	0	0	0	0	0	0	0	0	0	0
030719	12:51:03	13:03:19	735875	5.0.10.0	4_exp_EVA_AMP_AWA_CON	154	Rpleas_acq	Same	Rpleas	Amasked	CS_A	1pleas	distractor2	EVAbeforeCON	acq_US_unple_masked	acq45_masked	5	18	400	1	300	300	0	0	353	46	0	1	0	0	0	1	blank2r.bmp	0	1	+	0	7	C3r.bmp	492	1	blank2r.bmp	786	1	DHJF	786	1	blank2r.bmp	866	2	geizig	866	1	!	1239	1	!	1252	0	0	0	0	0	0	0	0	0	0	0	0	0	0	0	0	0	0	0	0	0	0	0	0	0	0	0
030719	12:51:03	13:03:22	738100	5.0.10.0	4_exp_EVA_AMP_AWA_CON	154	Rpleas_acq	Same	Rpleas	Amasked	CS_A	1pleas	distractor2	EVAbeforeCON	acq_US_pleas_masked	acq45_masked	5	19	400	1	300	300	0	0	436	50	0	1	0	0	0	1	blank2r.bmp	0	1	+	0	8	C4r.bmp	492	1	blank2r.bmp	786	1	CPLW	786	1	blank2r.bmp	866	6	anregung	866	1	!	1239	1	!	1332	0	0	0	0	0	0	0	0	0	0	0	0	0	0	0	0	0	0	0	0	0	0	0	0	0	0	0
030719	12:51:03	13:03:24	740259	5.0.10.0	4_exp_EVA_AMP_AWA_CON	154	Rpleas_acq	Same	Rpleas	Amasked	CS_A	1pleas	distractor2	EVAbeforeCON	acq_US_pleas_masked	acq45_masked	5	20	400	1	300	300	0	0	346	46	0	0	0	0	0	1	blank2r.bmp	0	1	+	0	4	B4r.bmp	492	1	blank2r.bmp	786	1	CPLW	786	1	blank2r.bmp	866	2	gesittet	866	1	!	1239	1	!	1252	0	0	0	0	0	0	0	0	0	0	0	0	0	0	0	0	0	0	0	0	0	0	0	0	0	0	0
030719	12:51:03	13:03:26	742472	5.0.10.0	4_exp_EVA_AMP_AWA_CON	154	Rpleas_acq	Same	Rpleas	Amasked	CS_A	1pleas	distractor2	EVAbeforeCON	acq_US_unple_masked	acq45_masked	5	21	400	1	300	300	0	0	419	46	0	1	0	0	0	1	blank2r.bmp	0	1	+	0	2	B2r.bmp	492	1	blank2r.bmp	786	1	DHJF	786	1	blank2r.bmp	866	4	gemein	866	1	!	1239	1	!	1319	0	0	0	0	0	0	0	0	0	0	0	0	0	0	0	0	0	0	0	0	0	0	0	0	0	0	0
030719	12:51:03	13:03:28	744711	5.0.10.0	4_exp_EVA_AMP_AWA_CON	154	Rpleas_acq	Same	Rpleas	Amasked	CS_A	1pleas	distractor2	EVAbeforeCON	acq_US_pleas_masked	acq45_masked	5	22	400	1	300	300	0	0	448	50	0	1	0	0	0	1	blank2r.bmp	0	1	+	0	3	B3r.bmp	492	1	blank2r.bmp	786	1	CPLW	786	1	blank2r.bmp	866	5	gütig	866	1	!	1239	1	!	1346	0	0	0	0	0	0	0	0	0	0	0	0	0	0	0	0	0	0	0	0	0	0	0	0	0	0	0
030719	12:51:03	13:03:31	746897	5.0.10.0	4_exp_EVA_AMP_AWA_CON	154	Rpleas_acq	Same	Rpleas	Amasked	CS_A	1pleas	distractor2	EVAbeforeCON	acq_US_pleas_masked	acq45_masked	5	23	400	1	300	300	0	0	398	50	0	1	0	0	0	1	blank2r.bmp	0	1	+	0	5	C1r.bmp	492	1	blank2r.bmp	786	1	CPLW	786	1	blank2r.bmp	866	3	vertrauen	866	1	!	1239	1	!	1292	0	0	0	0	0	0	0	0	0	0	0	0	0	0	0	0	0	0	0	0	0	0	0	0	0	0	0
030719	12:51:03	13:03:33	749083	5.0.10.0	4_exp_EVA_AMP_AWA_CON	154	Rpleas_acq	Same	Rpleas	Amasked	CS_A	1pleas	distractor2	EVAbeforeCON	acq_US_unple_masked	acq45_masked	5	24	400	1	300	300	0	0	394	46	0	1	0	0	0	1	blank2r.bmp	0	1	+	0	1	B1r.bmp	492	1	blank2r.bmp	786	1	DHJF	786	1	blank2r.bmp	866	5	gierig	866	1	!	1239	1	!	1292	0	0	0	0	0	0	0	0	0	0	0	0	0	0	0	0	0	0	0	0	0	0	0	0	0	0	0
030719	12:51:03	13:03:35	751282	5.0.10.0	4_exp_EVA_AMP_AWA_CON	154	Rpleas_acq	Same	Rpleas	Amasked	CS_A	1pleas	distractor2	EVAbeforeCON	acq_US_pleas_masked	acq45_masked	5	25	400	1	300	300	0	0	387	50	0	1	0	0	0	1	blank2r.bmp	0	1	+	0	6	C2r.bmp	492	1	blank2r.bmp	786	1	CPLW	786	1	blank2r.bmp	866	2	gesittet	866	1	!	1239	1	!	1292	0	0	0	0	0	0	0	0	0	0	0	0	0	0	0	0	0	0	0	0	0	0	0	0	0	0	0
030719	12:51:03	13:03:37	753561	5.0.10.0	4_exp_EVA_AMP_AWA_CON	154	Rpleas_acq	Same	Rpleas	Amasked	CS_A	1pleas	distractor2	EVAbeforeCON	acq_US_unple_masked	acq45_masked	5	26	400	1	300	300	0	0	466	50	0	0	0	0	0	1	blank2r.bmp	0	1	+	0	4	B4r.bmp	492	1	blank2r.bmp	786	1	DHJF	786	1	blank2r.bmp	866	3	versagen	866	1	!	1239	1	!	1372	0	0	0	0	0	0	0	0	0	0	0	0	0	0	0	0	0	0	0	0	0	0	0	0	0	0	0
030719	12:51:03	13:03:39	755720	5.0.10.0	4_exp_EVA_AMP_AWA_CON	154	Rpleas_acq	Same	Rpleas	Amasked	CS_A	1pleas	distractor2	EVAbeforeCON	acq_US_unple_masked	acq45_masked	5	27	400	1	300	300	0	0	363	46	0	1	0	0	0	1	blank2r.bmp	0	1	+	0	1	B1r.bmp	492	1	blank2r.bmp	786	1	DHJF	786	1	blank2r.bmp	866	6	ausrottung	866	1	!	1239	1	!	1266	0	0	0	0	0	0	0	0	0	0	0	0	0	0	0	0	0	0	0	0	0	0	0	0	0	0	0
030719	12:51:03	13:03:41	757866	5.0.10.0	4_exp_EVA_AMP_AWA_CON	154	Rpleas_acq	Same	Rpleas	Amasked	CS_A	1pleas	distractor2	EVAbeforeCON	acq_US_pleas_masked	acq45_masked	5	28	400	1	300	300	0	0	351	50	0	1	0	0	0	1	blank2r.bmp	0	1	+	0	5	C1r.bmp	492	1	blank2r.bmp	786	1	CPLW	786	1	blank2r.bmp	866	6	anregung	866	1	!	1239	1	!	1252	0	0	0	0	0	0	0	0	0	0	0	0	0	0	0	0	0	0	0	0	0	0	0	0	0	0	0
030719	12:51:03	13:03:44	760065	5.0.10.0	4_exp_EVA_AMP_AWA_CON	154	Rpleas_acq	Same	Rpleas	Amasked	CS_A	1pleas	distractor2	EVAbeforeCON	acq_US_unple_masked	acq45_masked	5	29	400	1	300	300	0	0	387	46	0	1	0	0	0	1	blank2r.bmp	0	1	+	0	3	B3r.bmp	492	1	blank2r.bmp	786	1	DHJF	786	1	blank2r.bmp	866	3	versagen	866	1	!	1239	1	!	1292	0	0	0	0	0	0	0	0	0	0	0	0	0	0	0	0	0	0	0	0	0	0	0	0	0	0	0
030719	12:51:03	13:03:46	762251	5.0.10.0	4_exp_EVA_AMP_AWA_CON	154	Rpleas_acq	Same	Rpleas	Amasked	CS_A	1pleas	distractor2	EVAbeforeCON	acq_US_unple_masked	acq45_masked	5	30	400	1	300	300	0	0	383	46	0	1	0	0	0	1	blank2r.bmp	0	1	+	0	7	C3r.bmp	492	1	blank2r.bmp	786	1	DHJF	786	1	blank2r.bmp	866	2	geizig	866	1	!	1239	1	!	1279	0	0	0	0	0	0	0	0	0	0	0	0	0	0	0	0	0	0	0	0	0	0	0	0	0	0	0
030719	12:51:03	13:03:48	764476	5.0.10.0	4_exp_EVA_AMP_AWA_CON	154	Rpleas_acq	Same	Rpleas	Amasked	CS_A	1pleas	distractor2	EVAbeforeCON	acq_US_unple_masked	acq45_masked	5	31	400	1	300	300	0	0	437	50	0	0	0	0	0	1	blank2r.bmp	0	1	+	0	2	B2r.bmp	492	1	blank2r.bmp	786	1	DHJF	786	1	blank2r.bmp	866	5	gierig	866	1	!	1239	1	!	1332	0	0	0	0	0	0	0	0	0	0	0	0	0	0	0	0	0	0	0	0	0	0	0	0	0	0	0
030719	12:51:03	13:03:50	766635	5.0.10.0	4_exp_EVA_AMP_AWA_CON	154	Rpleas_acq	Same	Rpleas	Amasked	CS_A	1pleas	distractor2	EVAbeforeCON	acq_US_pleas_masked	acq45_masked	5	32	400	1	300	300	0	0	361	50	0	1	0	0	0	1	blank2r.bmp	0	1	+	0	8	C4r.bmp	492	1	blank2r.bmp	786	1	CPLW	786	1	blank2r.bmp	866	5	gütig	866	1	!	1239	1	!	1266	0	0	0	0	0	0	0	0	0	0	0	0	0	0	0	0	0	0	0	0	0	0	0	0	0	0	0
030719	12:51:03	13:03:53	768901	5.0.10.0	4_exp_EVA_AMP_AWA_CON	154	Rpleas_acq	Same	Rpleas	Amasked	CS_A	1pleas	distractor2	EVAbeforeCON	acq_US_pleas_masked	acq45_masked	5	33	400	1	300	300	0	0	465	46	0	0	0	0	0	1	blank2r.bmp	0	1	+	0	3	B3r.bmp	492	1	blank2r.bmp	786	1	CPLW	786	1	blank2r.bmp	866	4	genießen	866	1	!	1239	1	!	1372	0	0	0	0	0	0	0	0	0	0	0	0	0	0	0	0	0	0	0	0	0	0	0	0	0	0	0
030719	12:51:03	13:03:55	771087	5.0.10.0	4_exp_EVA_AMP_AWA_CON	154	Rpleas_acq	Same	Rpleas	Amasked	CS_A	1pleas	distractor2	EVAbeforeCON	acq_US_unple_masked	acq45_masked	5	34	400	1	300	300	0	0	398	46	0	1	0	0	0	1	blank2r.bmp	0	1	+	0	2	B2r.bmp	492	1	blank2r.bmp	786	1	DHJF	786	1	blank2r.bmp	866	1	krank	866	1	!	1239	1	!	1292	0	0	0	0	0	0	0	0	0	0	0	0	0	0	0	0	0	0	0	0	0	0	0	0	0	0	0
030719	12:51:03	13:03:57	773259	5.0.10.0	4_exp_EVA_AMP_AWA_CON	154	Rpleas_acq	Same	Rpleas	Amasked	CS_A	1pleas	distractor2	EVAbeforeCON	acq_US_unple_masked	acq45_masked	5	35	400	1	300	300	0	0	382	46	0	1	0	0	0	1	blank2r.bmp	0	1	+	0	5	C1r.bmp	492	1	blank2r.bmp	786	1	DHJF	786	1	blank2r.bmp	866	4	gemein	866	1	!	1239	1	!	1279	0	0	0	0	0	0	0	0	0	0	0	0	0	0	0	0	0	0	0	0	0	0	0	0	0	0	0
030719	12:51:03	13:03:59	775445	5.0.10.0	4_exp_EVA_AMP_AWA_CON	154	Rpleas_acq	Same	Rpleas	Amasked	CS_A	1pleas	distractor2	EVAbeforeCON	acq_US_pleas_masked	acq45_masked	5	36	400	1	300	300	0	0	390	50	0	1	0	0	0	1	blank2r.bmp	0	1	+	0	8	C4r.bmp	492	1	blank2r.bmp	786	1	CPLW	786	1	blank2r.bmp	866	1	kreativ	866	1	!	1239	1	!	1292	0	0	0	0	0	0	0	0	0	0	0	0	0	0	0	0	0	0	0	0	0	0	0	0	0	0	0
030719	12:51:03	13:04:50	826131	5.0.10.0	4_exp_EVA_AMP_AWA_CON	154	Rpleas_acq	Same	Rpleas	Amasked	CS_A	1pleas	distractor2	EVAbeforeCON	EvalRating_firsttwo	EvalRating_firsttwo	6	1	0	0	300	300	0	0	3794	line	-55,4199218749999928946	0	0	0	0	1	eraser	1	1	Wie angenehm oder unangenehm finden Sie die  Buchstabenkette ZGXT?	1	1	leftborder	1	1	rightborder	1	1	line	1	1	Unangenehm	1	1	Angenehm	1	0	0	0	0	0	0	0	0	0	0	0	0	0	0	0	0	0	0	0	0	0	0	0	0	0	0	0	0	0	0	0	0	0
030719	12:51:03	13:04:56	832236	5.0.10.0	4_exp_EVA_AMP_AWA_CON	154	Rpleas_acq	Same	Rpleas	Amasked	CS_A	1pleas	distractor2	EVAbeforeCON	EvalRating_lastfour	EvalRating_lastfour	7	1	0	0	300	300	0	0	3652	line	-68,359375	0	0	0	0	1	eraser	0	3	Wie angenehm oder unangenehm finden Sie die  Buchstabenkette QYSB?	0	1	leftborder	0	1	rightborder	0	1	line	0	1	Unangenehm	0	1	Angenehm	0	0	0	0	0	0	0	0	0	0	0	0	0	0	0	0	0	0	0	0	0	0	0	0	0	0	0	0	0	0	0	0	0	0
030719	12:51:03	13:04:58	834621	5.0.10.0	4_exp_EVA_AMP_AWA_CON	154	Rpleas_acq	Same	Rpleas	Amasked	CS_A	1pleas	distractor2	EVAbeforeCON	blank_screen	EvalRating_lastfour	7	3	0	0	300	300	0	0	0	0	-68,359375	0	0	0	0	1	eraser	0	0	0	0	0	0	0	0	0	0	0	0	0	0	0	0	0	0	0	0	0	0	0	0	0	0	0	0	0	0	0	0	0	0	0	0	0	0	0	0	0	0	0	0	0	0	0	0	0	0	0	0
030719	12:51:03	13:05:01	837327	5.0.10.0	4_exp_EVA_AMP_AWA_CON	154	Rpleas_acq	Same	Rpleas	Amasked	CS_A	1pleas	distractor2	EVAbeforeCON	EvalRating_lastfour	EvalRating_lastfour	7	4	0	0	300	300	0	0	2124	line	-14,404296875	0	0	0	0	1	eraser	0	1	Wie angenehm oder unangenehm finden Sie die  Buchstabenkette CPLW?	0	1	leftborder	0	1	rightborder	0	1	line	0	1	Unangenehm	0	1	Angenehm	0	0	0	0	0	0	0	0	0	0	0	0	0	0	0	0	0	0	0	0	0	0	0	0	0	0	0	0	0	0	0	0	0	0
030719	12:51:03	13:05:03	839713	5.0.10.0	4_exp_EVA_AMP_AWA_CON	154	Rpleas_acq	Same	Rpleas	Amasked	CS_A	1pleas	distractor2	EVAbeforeCON	blank_screen	EvalRating_lastfour	7	6	0	0	300	300	0	0	0	0	-14,404296875	0	0	0	0	1	eraser	0	0	0	0	0	0	0	0	0	0	0	0	0	0	0	0	0	0	0	0	0	0	0	0	0	0	0	0	0	0	0	0	0	0	0	0	0	0	0	0	0	0	0	0	0	0	0	0	0	0	0	0
030719	12:51:03	13:05:07	843524	5.0.10.0	4_exp_EVA_AMP_AWA_CON	154	Rpleas_acq	Same	Rpleas	Amasked	CS_A	1pleas	distractor2	EVAbeforeCON	EvalRating_lastfour	EvalRating_lastfour	7	7	0	0	300	300	0	0	3233	line	11,71875	0	0	0	0	1	eraser	0	2	Wie angenehm oder unangenehm finden Sie die  Buchstabenkette DHJF?	0	1	leftborder	0	1	rightborder	0	1	line	0	1	Unangenehm	0	1	Angenehm	0	0	0	0	0	0	0	0	0	0	0	0	0	0	0	0	0	0	0	0	0	0	0	0	0	0	0	0	0	0	0	0	0	0
030719	12:51:03	13:05:54	890039	5.0.10.0	4_exp_EVA_AMP_AWA_CON	154	Rpleas_acq	Same	Rpleas	Amasked	CS_A	1pleas	distractor2	EVAbeforeCON	AMP_CSpleas	AMP1_masked	8	1	0	0	300	300	0	0	1793	50	11,71875	1	0	0	0	1	blank2r.bmp	0	1	CPLW	0	1	blank2r.bmp	79	59	pic59.bmp	199	1	whitenoise_No3.bmp	306	0	0	0	0	0	0	0	0	0	0	0	0	0	0	0	0	0	0	0	0	0	0	0	0	0	0	0	0	0	0	0	0	0	0	0	0	0	0	0
030719	12:51:03	13:05:56	891891	5.0.10.0	4_exp_EVA_AMP_AWA_CON	154	Rpleas_acq	Same	Rpleas	Amasked	CS_A	1pleas	distractor2	EVAbeforeCON	AMP_CSpleas	AMP1_masked	8	2	0	0	300	300	0	0	929	46	11,71875	0	0	0	0	1	blank2r.bmp	0	1	CPLW	0	1	blank2r.bmp	79	153	pic153.bmp	199	1	whitenoise_No3.bmp	306	0	0	0	0	0	0	0	0	0	0	0	0	0	0	0	0	0	0	0	0	0	0	0	0	0	0	0	0	0	0	0	0	0	0	0	0	0	0	0
030719	12:51:03	13:05:57	893477	5.0.10.0	4_exp_EVA_AMP_AWA_CON	154	Rpleas_acq	Same	Rpleas	Amasked	CS_A	1pleas	distractor2	EVAbeforeCON	AMP_CSpleas	AMP1_masked	8	3	0	0	300	300	0	0	655	50	11,71875	1	0	0	0	1	blank2r.bmp	0	1	CPLW	0	1	blank2r.bmp	79	77	pic77.bmp	199	1	whitenoise_No3.bmp	306	0	0	0	0	0	0	0	0	0	0	0	0	0	0	0	0	0	0	0	0	0	0	0	0	0	0	0	0	0	0	0	0	0	0	0	0	0	0	0
030719	12:51:03	13:05:58	894890	5.0.10.0	4_exp_EVA_AMP_AWA_CON	154	Rpleas_acq	Same	Rpleas	Amasked	CS_A	1pleas	distractor2	EVAbeforeCON	AMP_CSunple	AMP1_masked	8	4	0	0	300	300	0	0	504	50	11,71875	0	0	0	0	1	blank2r.bmp	0	1	DHJF	0	1	blank2r.bmp	79	103	pic103.bmp	199	1	whitenoise_No3.bmp	306	0	0	0	0	0	0	0	0	0	0	0	0	0	0	0	0	0	0	0	0	0	0	0	0	0	0	0	0	0	0	0	0	0	0	0	0	0	0	0
030719	12:51:03	13:06:00	896476	5.0.10.0	4_exp_EVA_AMP_AWA_CON	154	Rpleas_acq	Same	Rpleas	Amasked	CS_A	1pleas	distractor2	EVAbeforeCON	AMP_distractor	AMP1_masked	8	5	0	0	300	300	0	0	652	50	11,71875	0	0	0	0	1	blank2r.bmp	0	1	QYSB	0	1	blank2r.bmp	79	121	pic121.bmp	199	1	whitenoise_No3.bmp	306	0	0	0	0	0	0	0	0	0	0	0	0	0	0	0	0	0	0	0	0	0	0	0	0	0	0	0	0	0	0	0	0	0	0	0	0	0	0	0
030719	12:51:03	13:06:02	898036	5.0.10.0	4_exp_EVA_AMP_AWA_CON	154	Rpleas_acq	Same	Rpleas	Amasked	CS_A	1pleas	distractor2	EVAbeforeCON	AMP_distractor	AMP1_masked	8	6	0	0	300	300	0	0	645	50	11,71875	0	0	0	0	1	blank2r.bmp	0	1	QYSB	0	1	blank2r.bmp	79	11	pic11.bmp	199	1	whitenoise_No3.bmp	306	0	0	0	0	0	0	0	0	0	0	0	0	0	0	0	0	0	0	0	0	0	0	0	0	0	0	0	0	0	0	0	0	0	0	0	0	0	0	0
030719	12:51:03	13:06:03	899515	5.0.10.0	4_exp_EVA_AMP_AWA_CON	154	Rpleas_acq	Same	Rpleas	Amasked	CS_A	1pleas	distractor2	EVAbeforeCON	AMP_distractor	AMP1_masked	8	7	0	0	300	300	0	0	570	50	11,71875	0	0	0	0	1	blank2r.bmp	0	1	QYSB	0	1	blank2r.bmp	79	68	pic68.bmp	199	1	whitenoise_No3.bmp	306	0	0	0	0	0	0	0	0	0	0	0	0	0	0	0	0	0	0	0	0	0	0	0	0	0	0	0	0	0	0	0	0	0	0	0	0	0	0	0
030719	12:51:03	13:06:05	901394	5.0.10.0	4_exp_EVA_AMP_AWA_CON	154	Rpleas_acq	Same	Rpleas	Amasked	CS_A	1pleas	distractor2	EVAbeforeCON	AMP_distractor	AMP1_masked	8	8	0	0	300	300	0	0	959	46	11,71875	0	0	0	0	1	blank2r.bmp	0	1	QYSB	0	1	blank2r.bmp	79	76	pic76.bmp	199	1	whitenoise_No3.bmp	306	0	0	0	0	0	0	0	0	0	0	0	0	0	0	0	0	0	0	0	0	0	0	0	0	0	0	0	0	0	0	0	0	0	0	0	0	0	0	0
030719	12:51:03	13:06:07	903194	5.0.10.0	4_exp_EVA_AMP_AWA_CON	154	Rpleas_acq	Same	Rpleas	Amasked	CS_A	1pleas	distractor2	EVAbeforeCON	AMP_CSunple	AMP1_masked	8	9	0	0	300	300	0	0	885	50	11,71875	0	0	0	0	1	blank2r.bmp	0	1	DHJF	0	1	blank2r.bmp	79	79	pic79.bmp	199	1	whitenoise_No3.bmp	306	0	0	0	0	0	0	0	0	0	0	0	0	0	0	0	0	0	0	0	0	0	0	0	0	0	0	0	0	0	0	0	0	0	0	0	0	0	0	0
030719	12:51:03	13:06:09	905273	5.0.10.0	4_exp_EVA_AMP_AWA_CON	154	Rpleas_acq	Same	Rpleas	Amasked	CS_A	1pleas	distractor2	EVAbeforeCON	AMP_CSunple	AMP1_masked	8	10	0	0	300	300	0	0	1155	50	11,71875	0	0	0	0	1	blank2r.bmp	0	1	DHJF	0	1	blank2r.bmp	79	82	pic82.bmp	199	1	whitenoise_No3.bmp	306	0	0	0	0	0	0	0	0	0	0	0	0	0	0	0	0	0	0	0	0	0	0	0	0	0	0	0	0	0	0	0	0	0	0	0	0	0	0	0
030719	12:51:03	13:06:11	907192	5.0.10.0	4_exp_EVA_AMP_AWA_CON	154	Rpleas_acq	Same	Rpleas	Amasked	CS_A	1pleas	distractor2	EVAbeforeCON	AMP_distractor	AMP1_masked	8	11	0	0	300	300	0	0	989	50	11,71875	0	0	0	0	1	blank2r.bmp	0	1	QYSB	0	1	blank2r.bmp	79	141	pic141.bmp	199	1	whitenoise_No3.bmp	306	0	0	0	0	0	0	0	0	0	0	0	0	0	0	0	0	0	0	0	0	0	0	0	0	0	0	0	0	0	0	0	0	0	0	0	0	0	0	0
030719	12:51:03	13:06:13	909124	5.0.10.0	4_exp_EVA_AMP_AWA_CON	154	Rpleas_acq	Same	Rpleas	Amasked	CS_A	1pleas	distractor2	EVAbeforeCON	AMP_CSpleas	AMP1_masked	8	12	0	0	300	300	0	0	1018	46	11,71875	0	0	0	0	1	blank2r.bmp	0	1	CPLW	0	1	blank2r.bmp	79	83	pic83.bmp	199	1	whitenoise_No3.bmp	306	0	0	0	0	0	0	0	0	0	0	0	0	0	0	0	0	0	0	0	0	0	0	0	0	0	0	0	0	0	0	0	0	0	0	0	0	0	0	0
030719	12:51:03	13:06:15	910897	5.0.10.0	4_exp_EVA_AMP_AWA_CON	154	Rpleas_acq	Same	Rpleas	Amasked	CS_A	1pleas	distractor2	EVAbeforeCON	AMP_distractor	AMP1_masked	8	13	0	0	300	300	0	0	857	46	11,71875	0	0	0	0	1	blank2r.bmp	0	1	QYSB	0	1	blank2r.bmp	79	20	pic20.bmp	199	1	whitenoise_No3.bmp	306	0	0	0	0	0	0	0	0	0	0	0	0	0	0	0	0	0	0	0	0	0	0	0	0	0	0	0	0	0	0	0	0	0	0	0	0	0	0	0
030719	12:51:03	13:06:16	912843	5.0.10.0	4_exp_EVA_AMP_AWA_CON	154	Rpleas_acq	Same	Rpleas	Amasked	CS_A	1pleas	distractor2	EVAbeforeCON	AMP_CSpleas	AMP1_masked	8	14	0	0	300	300	0	0	1023	50	11,71875	1	0	0	0	1	blank2r.bmp	0	1	CPLW	0	1	blank2r.bmp	79	49	pic49.bmp	199	1	whitenoise_No3.bmp	306	0	0	0	0	0	0	0	0	0	0	0	0	0	0	0	0	0	0	0	0	0	0	0	0	0	0	0	0	0	0	0	0	0	0	0	0	0	0	0
030719	12:51:03	13:06:19	915069	5.0.10.0	4_exp_EVA_AMP_AWA_CON	154	Rpleas_acq	Same	Rpleas	Amasked	CS_A	1pleas	distractor2	EVAbeforeCON	AMP_distractor	AMP1_masked	8	15	0	0	300	300	0	0	1300	46	11,71875	0	0	0	0	1	blank2r.bmp	0	1	QYSB	0	1	blank2r.bmp	79	28	pic28.bmp	199	1	whitenoise_No3.bmp	306	0	0	0	0	0	0	0	0	0	0	0	0	0	0	0	0	0	0	0	0	0	0	0	0	0	0	0	0	0	0	0	0	0	0	0	0	0	0	0
030719	12:51:03	13:06:20	916708	5.0.10.0	4_exp_EVA_AMP_AWA_CON	154	Rpleas_acq	Same	Rpleas	Amasked	CS_A	1pleas	distractor2	EVAbeforeCON	AMP_CSpleas	AMP1_masked	8	16	0	0	300	300	0	0	721	50	11,71875	1	0	0	0	1	blank2r.bmp	0	1	CPLW	0	1	blank2r.bmp	79	90	pic90.bmp	199	1	whitenoise_No3.bmp	306	0	0	0	0	0	0	0	0	0	0	0	0	0	0	0	0	0	0	0	0	0	0	0	0	0	0	0	0	0	0	0	0	0	0	0	0	0	0	0
030719	12:51:03	13:06:23	919054	5.0.10.0	4_exp_EVA_AMP_AWA_CON	154	Rpleas_acq	Same	Rpleas	Amasked	CS_A	1pleas	distractor2	EVAbeforeCON	AMP_CSunple	AMP1_masked	8	17	0	0	300	300	0	0	1431	50	11,71875	0	0	0	0	1	blank2r.bmp	0	1	DHJF	0	1	blank2r.bmp	79	17	pic17.bmp	199	1	whitenoise_No3.bmp	306	0	0	0	0	0	0	0	0	0	0	0	0	0	0	0	0	0	0	0	0	0	0	0	0	0	0	0	0	0	0	0	0	0	0	0	0	0	0	0
030719	12:51:03	13:06:24	920626	5.0.10.0	4_exp_EVA_AMP_AWA_CON	154	Rpleas_acq	Same	Rpleas	Amasked	CS_A	1pleas	distractor2	EVAbeforeCON	AMP_CSunple	AMP1_masked	8	18	0	0	300	300	0	0	646	50	11,71875	0	0	0	0	1	blank2r.bmp	0	1	DHJF	0	1	blank2r.bmp	79	145	pic145.bmp	199	1	whitenoise_No3.bmp	306	0	0	0	0	0	0	0	0	0	0	0	0	0	0	0	0	0	0	0	0	0	0	0	0	0	0	0	0	0	0	0	0	0	0	0	0	0	0	0
030719	12:51:03	13:06:26	922772	5.0.10.0	4_exp_EVA_AMP_AWA_CON	154	Rpleas_acq	Same	Rpleas	Amasked	CS_A	1pleas	distractor2	EVAbeforeCON	AMP_distractor	AMP1_masked	8	19	0	0	300	300	0	0	1213	50	11,71875	0	0	0	0	1	blank2r.bmp	0	1	QYSB	0	1	blank2r.bmp	79	58	pic58.bmp	199	1	whitenoise_No3.bmp	306	0	0	0	0	0	0	0	0	0	0	0	0	0	0	0	0	0	0	0	0	0	0	0	0	0	0	0	0	0	0	0	0	0	0	0	0	0	0	0
030719	12:51:03	13:06:29	925704	5.0.10.0	4_exp_EVA_AMP_AWA_CON	154	Rpleas_acq	Same	Rpleas	Amasked	CS_A	1pleas	distractor2	EVAbeforeCON	AMP_CSpleas	AMP1_masked	8	20	0	0	300	300	0	0	2004	46	11,71875	0	0	0	0	1	blank2r.bmp	0	1	CPLW	0	1	blank2r.bmp	79	146	pic146.bmp	199	1	whitenoise_No3.bmp	306	0	0	0	0	0	0	0	0	0	0	0	0	0	0	0	0	0	0	0	0	0	0	0	0	0	0	0	0	0	0	0	0	0	0	0	0	0	0	0
030719	12:51:03	13:06:31	927317	5.0.10.0	4_exp_EVA_AMP_AWA_CON	154	Rpleas_acq	Same	Rpleas	Amasked	CS_A	1pleas	distractor2	EVAbeforeCON	AMP_distractor	AMP1_masked	8	21	0	0	300	300	0	0	680	46	11,71875	0	0	0	0	1	blank2r.bmp	0	1	QYSB	0	1	blank2r.bmp	79	126	pic126.bmp	199	1	whitenoise_No3.bmp	306	0	0	0	0	0	0	0	0	0	0	0	0	0	0	0	0	0	0	0	0	0	0	0	0	0	0	0	0	0	0	0	0	0	0	0	0	0	0	0
030719	12:51:03	13:06:32	928810	5.0.10.0	4_exp_EVA_AMP_AWA_CON	154	Rpleas_acq	Same	Rpleas	Amasked	CS_A	1pleas	distractor2	EVAbeforeCON	AMP_CSpleas	AMP1_masked	8	22	0	0	300	300	0	0	582	50	11,71875	1	0	0	0	1	blank2r.bmp	0	1	CPLW	0	1	blank2r.bmp	79	25	pic25.bmp	199	1	whitenoise_No3.bmp	306	0	0	0	0	0	0	0	0	0	0	0	0	0	0	0	0	0	0	0	0	0	0	0	0	0	0	0	0	0	0	0	0	0	0	0	0	0	0	0
030719	12:51:03	13:06:34	930556	5.0.10.0	4_exp_EVA_AMP_AWA_CON	154	Rpleas_acq	Same	Rpleas	Amasked	CS_A	1pleas	distractor2	EVAbeforeCON	AMP_distractor	AMP1_masked	8	23	0	0	300	300	0	0	826	50	11,71875	0	0	0	0	1	blank2r.bmp	0	1	QYSB	0	1	blank2r.bmp	79	109	pic109.bmp	199	1	whitenoise_No3.bmp	306	0	0	0	0	0	0	0	0	0	0	0	0	0	0	0	0	0	0	0	0	0	0	0	0	0	0	0	0	0	0	0	0	0	0	0	0	0	0	0
030719	12:51:03	13:06:36	932022	5.0.10.0	4_exp_EVA_AMP_AWA_CON	154	Rpleas_acq	Same	Rpleas	Amasked	CS_A	1pleas	distractor2	EVAbeforeCON	AMP_CSunple	AMP1_masked	8	24	0	0	300	300	0	0	541	46	11,71875	1	0	0	0	1	blank2r.bmp	0	1	DHJF	0	1	blank2r.bmp	79	55	pic55.bmp	199	1	whitenoise_No3.bmp	306	0	0	0	0	0	0	0	0	0	0	0	0	0	0	0	0	0	0	0	0	0	0	0	0	0	0	0	0	0	0	0	0	0	0	0	0	0	0	0
030719	12:51:03	13:06:37	933688	5.0.10.0	4_exp_EVA_AMP_AWA_CON	154	Rpleas_acq	Same	Rpleas	Amasked	CS_A	1pleas	distractor2	EVAbeforeCON	AMP_CSunple	AMP1_masked	8	25	0	0	300	300	0	0	732	46	11,71875	1	0	0	0	1	blank2r.bmp	0	1	DHJF	0	1	blank2r.bmp	79	21	pic21.bmp	199	1	whitenoise_No3.bmp	306	0	0	0	0	0	0	0	0	0	0	0	0	0	0	0	0	0	0	0	0	0	0	0	0	0	0	0	0	0	0	0	0	0	0	0	0	0	0	0
030719	12:51:03	13:06:39	935154	5.0.10.0	4_exp_EVA_AMP_AWA_CON	154	Rpleas_acq	Same	Rpleas	Amasked	CS_A	1pleas	distractor2	EVAbeforeCON	AMP_CSpleas	AMP1_masked	8	26	0	0	300	300	0	0	548	50	11,71875	1	0	0	0	1	blank2r.bmp	0	1	CPLW	0	1	blank2r.bmp	79	131	pic131.bmp	199	1	whitenoise_No3.bmp	306	0	0	0	0	0	0	0	0	0	0	0	0	0	0	0	0	0	0	0	0	0	0	0	0	0	0	0	0	0	0	0	0	0	0	0	0	0	0	0
030719	12:51:03	13:06:40	936580	5.0.10.0	4_exp_EVA_AMP_AWA_CON	154	Rpleas_acq	Same	Rpleas	Amasked	CS_A	1pleas	distractor2	EVAbeforeCON	AMP_distractor	AMP1_masked	8	27	0	0	300	300	0	0	510	50	11,71875	0	0	0	0	1	blank2r.bmp	0	1	QYSB	0	1	blank2r.bmp	79	148	pic148.bmp	199	1	whitenoise_No3.bmp	306	0	0	0	0	0	0	0	0	0	0	0	0	0	0	0	0	0	0	0	0	0	0	0	0	0	0	0	0	0	0	0	0	0	0	0	0	0	0	0
030719	12:51:03	13:06:42	938286	5.0.10.0	4_exp_EVA_AMP_AWA_CON	154	Rpleas_acq	Same	Rpleas	Amasked	CS_A	1pleas	distractor2	EVAbeforeCON	AMP_CSunple	AMP1_masked	8	28	0	0	300	300	0	0	797	46	11,71875	1	0	0	0	1	blank2r.bmp	0	1	DHJF	0	1	blank2r.bmp	79	53	pic53.bmp	199	1	whitenoise_No3.bmp	306	0	0	0	0	0	0	0	0	0	0	0	0	0	0	0	0	0	0	0	0	0	0	0	0	0	0	0	0	0	0	0	0	0	0	0	0	0	0	0
030719	12:51:03	13:06:43	939819	5.0.10.0	4_exp_EVA_AMP_AWA_CON	154	Rpleas_acq	Same	Rpleas	Amasked	CS_A	1pleas	distractor2	EVAbeforeCON	AMP_CSunple	AMP1_masked	8	29	0	0	300	300	0	0	605	50	11,71875	0	0	0	0	1	blank2r.bmp	0	1	DHJF	0	1	blank2r.bmp	79	119	pic119.bmp	199	1	whitenoise_No3.bmp	306	0	0	0	0	0	0	0	0	0	0	0	0	0	0	0	0	0	0	0	0	0	0	0	0	0	0	0	0	0	0	0	0	0	0	0	0	0	0	0
030719	12:51:03	13:06:46	941924	5.0.10.0	4_exp_EVA_AMP_AWA_CON	154	Rpleas_acq	Same	Rpleas	Amasked	CS_A	1pleas	distractor2	EVAbeforeCON	AMP_CSpleas	AMP1_masked	8	30	0	0	300	300	0	0	1174	46	11,71875	0	0	0	0	1	blank2r.bmp	0	1	CPLW	0	1	blank2r.bmp	79	102	pic102.bmp	199	1	whitenoise_No3.bmp	306	0	0	0	0	0	0	0	0	0	0	0	0	0	0	0	0	0	0	0	0	0	0	0	0	0	0	0	0	0	0	0	0	0	0	0	0	0	0	0
030719	12:51:03	13:06:47	943364	5.0.10.0	4_exp_EVA_AMP_AWA_CON	154	Rpleas_acq	Same	Rpleas	Amasked	CS_A	1pleas	distractor2	EVAbeforeCON	AMP_distractor	AMP1_masked	8	31	0	0	300	300	0	0	523	50	11,71875	0	0	0	0	1	blank2r.bmp	0	1	QYSB	0	1	blank2r.bmp	79	140	pic140.bmp	199	1	whitenoise_No3.bmp	306	0	0	0	0	0	0	0	0	0	0	0	0	0	0	0	0	0	0	0	0	0	0	0	0	0	0	0	0	0	0	0	0	0	0	0	0	0	0	0
030719	12:51:03	13:06:49	944897	5.0.10.0	4_exp_EVA_AMP_AWA_CON	154	Rpleas_acq	Same	Rpleas	Amasked	CS_A	1pleas	distractor2	EVAbeforeCON	AMP_CSpleas	AMP1_masked	8	32	0	0	300	300	0	0	603	50	11,71875	1	0	0	0	1	blank2r.bmp	0	1	CPLW	0	1	blank2r.bmp	79	111	pic111.bmp	199	1	whitenoise_No3.bmp	306	0	0	0	0	0	0	0	0	0	0	0	0	0	0	0	0	0	0	0	0	0	0	0	0	0	0	0	0	0	0	0	0	0	0	0	0	0	0	0
030719	12:51:03	13:06:51	947336	5.0.10.0	4_exp_EVA_AMP_AWA_CON	154	Rpleas_acq	Same	Rpleas	Amasked	CS_A	1pleas	distractor2	EVAbeforeCON	AMP_CSunple	AMP1_masked	8	33	0	0	300	300	0	0	1523	50	11,71875	0	0	0	0	1	blank2r.bmp	0	1	DHJF	0	1	blank2r.bmp	79	138	pic138.bmp	199	1	whitenoise_No3.bmp	306	0	0	0	0	0	0	0	0	0	0	0	0	0	0	0	0	0	0	0	0	0	0	0	0	0	0	0	0	0	0	0	0	0	0	0	0	0	0	0
030719	12:51:03	13:06:52	948695	5.0.10.0	4_exp_EVA_AMP_AWA_CON	154	Rpleas_acq	Same	Rpleas	Amasked	CS_A	1pleas	distractor2	EVAbeforeCON	AMP_CSpleas	AMP1_masked	8	34	0	0	300	300	0	0	442	50	11,71875	1	0	0	0	1	blank2r.bmp	0	1	CPLW	0	1	blank2r.bmp	79	124	pic124.bmp	199	1	whitenoise_No3.bmp	306	0	0	0	0	0	0	0	0	0	0	0	0	0	0	0	0	0	0	0	0	0	0	0	0	0	0	0	0	0	0	0	0	0	0	0	0	0	0	0
030719	12:51:03	13:06:54	950348	5.0.10.0	4_exp_EVA_AMP_AWA_CON	154	Rpleas_acq	Same	Rpleas	Amasked	CS_A	1pleas	distractor2	EVAbeforeCON	AMP_CSunple	AMP1_masked	8	35	0	0	300	300	0	0	720	46	11,71875	1	0	0	0	1	blank2r.bmp	0	1	DHJF	0	1	blank2r.bmp	79	57	pic57.bmp	199	1	whitenoise_No3.bmp	306	0	0	0	0	0	0	0	0	0	0	0	0	0	0	0	0	0	0	0	0	0	0	0	0	0	0	0	0	0	0	0	0	0	0	0	0	0	0	0
030719	12:51:03	13:06:55	951707	5.0.10.0	4_exp_EVA_AMP_AWA_CON	154	Rpleas_acq	Same	Rpleas	Amasked	CS_A	1pleas	distractor2	EVAbeforeCON	AMP_CSpleas	AMP1_masked	8	36	0	0	300	300	0	0	440	50	11,71875	1	0	0	0	1	blank2r.bmp	0	1	CPLW	0	1	blank2r.bmp	79	122	pic122.bmp	199	1	whitenoise_No3.bmp	306	0	0	0	0	0	0	0	0	0	0	0	0	0	0	0	0	0	0	0	0	0	0	0	0	0	0	0	0	0	0	0	0	0	0	0	0	0	0	0
030719	12:51:03	13:06:57	953120	5.0.10.0	4_exp_EVA_AMP_AWA_CON	154	Rpleas_acq	Same	Rpleas	Amasked	CS_A	1pleas	distractor2	EVAbeforeCON	AMP_CSpleas	AMP1_masked	8	37	0	0	300	300	0	0	483	50	11,71875	1	0	0	0	1	blank2r.bmp	0	1	CPLW	0	1	blank2r.bmp	79	147	pic147.bmp	199	1	whitenoise_No3.bmp	306	0	0	0	0	0	0	0	0	0	0	0	0	0	0	0	0	0	0	0	0	0	0	0	0	0	0	0	0	0	0	0	0	0	0	0	0	0	0	0
030719	12:51:03	13:06:58	954533	5.0.10.0	4_exp_EVA_AMP_AWA_CON	154	Rpleas_acq	Same	Rpleas	Amasked	CS_A	1pleas	distractor2	EVAbeforeCON	AMP_CSpleas	AMP1_masked	8	38	0	0	300	300	0	0	504	50	11,71875	1	0	0	0	1	blank2r.bmp	0	1	CPLW	0	1	blank2r.bmp	79	46	pic46.bmp	199	1	whitenoise_No3.bmp	306	0	0	0	0	0	0	0	0	0	0	0	0	0	0	0	0	0	0	0	0	0	0	0	0	0	0	0	0	0	0	0	0	0	0	0	0	0	0	0
030719	12:51:03	13:07:00	956399	5.0.10.0	4_exp_EVA_AMP_AWA_CON	154	Rpleas_acq	Same	Rpleas	Amasked	CS_A	1pleas	distractor2	EVAbeforeCON	AMP_CSpleas	AMP1_masked	8	39	0	0	300	300	0	0	934	46	11,71875	0	0	0	0	1	blank2r.bmp	0	1	CPLW	0	1	blank2r.bmp	79	132	pic132.bmp	199	1	whitenoise_No3.bmp	306	0	0	0	0	0	0	0	0	0	0	0	0	0	0	0	0	0	0	0	0	0	0	0	0	0	0	0	0	0	0	0	0	0	0	0	0	0	0	0
030719	12:51:03	13:07:02	957998	5.0.10.0	4_exp_EVA_AMP_AWA_CON	154	Rpleas_acq	Same	Rpleas	Amasked	CS_A	1pleas	distractor2	EVAbeforeCON	AMP_distractor	AMP1_masked	8	40	0	0	300	300	0	0	690	46	11,71875	0	0	0	0	1	blank2r.bmp	0	1	QYSB	0	1	blank2r.bmp	79	13	pic13.bmp	199	1	whitenoise_No3.bmp	306	0	0	0	0	0	0	0	0	0	0	0	0	0	0	0	0	0	0	0	0	0	0	0	0	0	0	0	0	0	0	0	0	0	0	0	0	0	0	0
030719	12:51:03	13:07:03	959317	5.0.10.0	4_exp_EVA_AMP_AWA_CON	154	Rpleas_acq	Same	Rpleas	Amasked	CS_A	1pleas	distractor2	EVAbeforeCON	AMP_distractor	AMP1_masked	8	41	0	0	300	300	0	0	402	50	11,71875	0	0	0	0	1	blank2r.bmp	0	1	QYSB	0	1	blank2r.bmp	79	134	pic134.bmp	199	1	whitenoise_No3.bmp	306	0	0	0	0	0	0	0	0	0	0	0	0	0	0	0	0	0	0	0	0	0	0	0	0	0	0	0	0	0	0	0	0	0	0	0	0	0	0	0
030719	12:51:03	13:07:05	960943	5.0.10.0	4_exp_EVA_AMP_AWA_CON	154	Rpleas_acq	Same	Rpleas	Amasked	CS_A	1pleas	distractor2	EVAbeforeCON	AMP_CSunple	AMP1_masked	8	42	0	0	300	300	0	0	692	46	11,71875	1	0	0	0	1	blank2r.bmp	0	1	DHJF	0	1	blank2r.bmp	79	64	pic64.bmp	199	1	whitenoise_No3.bmp	306	0	0	0	0	0	0	0	0	0	0	0	0	0	0	0	0	0	0	0	0	0	0	0	0	0	0	0	0	0	0	0	0	0	0	0	0	0	0	0
030719	12:51:03	13:07:06	962503	5.0.10.0	4_exp_EVA_AMP_AWA_CON	154	Rpleas_acq	Same	Rpleas	Amasked	CS_A	1pleas	distractor2	EVAbeforeCON	AMP_CSunple	AMP1_masked	8	43	0	0	300	300	0	0	661	50	11,71875	0	0	0	0	1	blank2r.bmp	0	1	DHJF	0	1	blank2r.bmp	79	2	pic2.bmp	199	1	whitenoise_No3.bmp	306	0	0	0	0	0	0	0	0	0	0	0	0	0	0	0	0	0	0	0	0	0	0	0	0	0	0	0	0	0	0	0	0	0	0	0	0	0	0	0
030719	12:51:03	13:07:08	963982	5.0.10.0	4_exp_EVA_AMP_AWA_CON	154	Rpleas_acq	Same	Rpleas	Amasked	CS_A	1pleas	distractor2	EVAbeforeCON	AMP_CSunple	AMP1_masked	8	44	0	0	300	300	0	0	547	46	11,71875	1	0	0	0	1	blank2r.bmp	0	1	DHJF	0	1	blank2r.bmp	79	26	pic26.bmp	199	1	whitenoise_No3.bmp	306	0	0	0	0	0	0	0	0	0	0	0	0	0	0	0	0	0	0	0	0	0	0	0	0	0	0	0	0	0	0	0	0	0	0	0	0	0	0	0
030719	12:51:03	13:07:09	965715	5.0.10.0	4_exp_EVA_AMP_AWA_CON	154	Rpleas_acq	Same	Rpleas	Amasked	CS_A	1pleas	distractor2	EVAbeforeCON	AMP_CSunple	AMP1_masked	8	45	0	0	300	300	0	0	819	46	11,71875	1	0	0	0	1	blank2r.bmp	0	1	DHJF	0	1	blank2r.bmp	79	44	pic44.bmp	199	1	whitenoise_No3.bmp	306	0	0	0	0	0	0	0	0	0	0	0	0	0	0	0	0	0	0	0	0	0	0	0	0	0	0	0	0	0	0	0	0	0	0	0	0	0	0	0
030719	12:51:03	13:07:11	967288	5.0.10.0	4_exp_EVA_AMP_AWA_CON	154	Rpleas_acq	Same	Rpleas	Amasked	CS_A	1pleas	distractor2	EVAbeforeCON	AMP_distractor	AMP1_masked	8	46	0	0	300	300	0	0	641	46	11,71875	0	0	0	0	1	blank2r.bmp	0	1	QYSB	0	1	blank2r.bmp	79	80	pic80.bmp	199	1	whitenoise_No3.bmp	306	0	0	0	0	0	0	0	0	0	0	0	0	0	0	0	0	0	0	0	0	0	0	0	0	0	0	0	0	0	0	0	0	0	0	0	0	0	0	0
030719	12:51:03	13:07:12	968660	5.0.10.0	4_exp_EVA_AMP_AWA_CON	154	Rpleas_acq	Same	Rpleas	Amasked	CS_A	1pleas	distractor2	EVAbeforeCON	AMP_distractor	AMP1_masked	8	47	0	0	300	300	0	0	456	50	11,71875	0	0	0	0	1	blank2r.bmp	0	1	QYSB	0	1	blank2r.bmp	79	130	pic130.bmp	199	1	whitenoise_No3.bmp	306	0	0	0	0	0	0	0	0	0	0	0	0	0	0	0	0	0	0	0	0	0	0	0	0	0	0	0	0	0	0	0	0	0	0	0	0	0	0	0
030719	12:51:03	13:07:14	970406	5.0.10.0	4_exp_EVA_AMP_AWA_CON	154	Rpleas_acq	Same	Rpleas	Amasked	CS_A	1pleas	distractor2	EVAbeforeCON	AMP_CSpleas	AMP1_masked	8	48	0	0	300	300	0	0	834	50	11,71875	1	0	0	0	1	blank2r.bmp	0	1	CPLW	0	1	blank2r.bmp	79	110	pic110.bmp	199	1	whitenoise_No3.bmp	306	0	0	0	0	0	0	0	0	0	0	0	0	0	0	0	0	0	0	0	0	0	0	0	0	0	0	0	0	0	0	0	0	0	0	0	0	0	0	0
030719	12:51:03	13:07:17	972939	5.0.10.0	4_exp_EVA_AMP_AWA_CON	154	Rpleas_acq	Same	Rpleas	Amasked	CS_A	1pleas	distractor2	EVAbeforeCON	AMP_CSunple	AMP1_masked	8	49	0	0	300	300	0	0	1602	46	11,71875	1	0	0	0	1	blank2r.bmp	0	1	DHJF	0	1	blank2r.bmp	79	39	pic39.bmp	199	1	whitenoise_No3.bmp	306	0	0	0	0	0	0	0	0	0	0	0	0	0	0	0	0	0	0	0	0	0	0	0	0	0	0	0	0	0	0	0	0	0	0	0	0	0	0	0
030719	12:51:03	13:07:18	974871	5.0.10.0	4_exp_EVA_AMP_AWA_CON	154	Rpleas_acq	Same	Rpleas	Amasked	CS_A	1pleas	distractor2	EVAbeforeCON	AMP_distractor	AMP1_masked	8	50	0	0	300	300	0	0	1011	46	11,71875	0	0	0	0	1	blank2r.bmp	0	1	QYSB	0	1	blank2r.bmp	79	139	pic139.bmp	199	1	whitenoise_No3.bmp	306	0	0	0	0	0	0	0	0	0	0	0	0	0	0	0	0	0	0	0	0	0	0	0	0	0	0	0	0	0	0	0	0	0	0	0	0	0	0	0
030719	12:51:03	13:07:20	976404	5.0.10.0	4_exp_EVA_AMP_AWA_CON	154	Rpleas_acq	Same	Rpleas	Amasked	CS_A	1pleas	distractor2	EVAbeforeCON	AMP_CSunple	AMP1_masked	8	51	0	0	300	300	0	0	605	46	11,71875	1	0	0	0	1	blank2r.bmp	0	1	DHJF	0	1	blank2r.bmp	79	56	pic56.bmp	199	1	whitenoise_No3.bmp	306	0	0	0	0	0	0	0	0	0	0	0	0	0	0	0	0	0	0	0	0	0	0	0	0	0	0	0	0	0	0	0	0	0	0	0	0	0	0	0
030719	12:51:03	13:07:28	983894	5.0.10.0	4_exp_EVA_AMP_AWA_CON	154	Rpleas_acq	Same	Rpleas	Amasked	CS_A	1pleas	distractor2	EVAbeforeCON	AMP_distractor	AMP23	9	1	0	0	300	300	0	0	684	50	11,71875	0	0	0	0	1	blank2r.bmp	0	1	QYSB	0	1	blank2r.bmp	79	99	pic99.bmp	199	1	whitenoise_No3.bmp	306	0	0	0	0	0	0	0	0	0	0	0	0	0	0	0	0	0	0	0	0	0	0	0	0	0	0	0	0	0	0	0	0	0	0	0	0	0	0	0
030719	12:51:03	13:07:29	985280	5.0.10.0	4_exp_EVA_AMP_AWA_CON	154	Rpleas_acq	Same	Rpleas	Amasked	CS_A	1pleas	distractor2	EVAbeforeCON	AMP_CSunple	AMP23	9	2	0	0	300	300	0	0	473	50	11,71875	0	0	0	0	1	blank2r.bmp	0	1	DHJF	0	1	blank2r.bmp	79	125	pic125.bmp	199	1	whitenoise_No3.bmp	306	0	0	0	0	0	0	0	0	0	0	0	0	0	0	0	0	0	0	0	0	0	0	0	0	0	0	0	0	0	0	0	0	0	0	0	0	0	0	0
030719	12:51:03	13:07:31	987026	5.0.10.0	4_exp_EVA_AMP_AWA_CON	154	Rpleas_acq	Same	Rpleas	Amasked	CS_A	1pleas	distractor2	EVAbeforeCON	AMP_CSpleas	AMP23	9	3	0	0	300	300	0	0	812	50	11,71875	1	0	0	0	1	blank2r.bmp	0	1	CPLW	0	1	blank2r.bmp	79	38	pic38.bmp	199	1	whitenoise_No3.bmp	306	0	0	0	0	0	0	0	0	0	0	0	0	0	0	0	0	0	0	0	0	0	0	0	0	0	0	0	0	0	0	0	0	0	0	0	0	0	0	0
030719	12:51:03	13:07:33	988945	5.0.10.0	4_exp_EVA_AMP_AWA_CON	154	Rpleas_acq	Same	Rpleas	Amasked	CS_A	1pleas	distractor2	EVAbeforeCON	AMP_CSpleas	AMP23	9	4	0	0	300	300	0	0	1011	46	11,71875	0	0	0	0	1	blank2r.bmp	0	1	CPLW	0	1	blank2r.bmp	79	7	pic7.bmp	199	1	whitenoise_No3.bmp	306	0	0	0	0	0	0	0	0	0	0	0	0	0	0	0	0	0	0	0	0	0	0	0	0	0	0	0	0	0	0	0	0	0	0	0	0	0	0	0
030719	12:51:03	13:07:34	990838	5.0.10.0	4_exp_EVA_AMP_AWA_CON	154	Rpleas_acq	Same	Rpleas	Amasked	CS_A	1pleas	distractor2	EVAbeforeCON	AMP_CSpleas	AMP23	9	5	0	0	300	300	0	0	967	50	11,71875	1	0	0	0	1	blank2r.bmp	0	1	CPLW	0	1	blank2r.bmp	79	152	pic152.bmp	199	1	whitenoise_No3.bmp	306	0	0	0	0	0	0	0	0	0	0	0	0	0	0	0	0	0	0	0	0	0	0	0	0	0	0	0	0	0	0	0	0	0	0	0	0	0	0	0
030719	12:51:03	13:07:36	992371	5.0.10.0	4_exp_EVA_AMP_AWA_CON	154	Rpleas_acq	Same	Rpleas	Amasked	CS_A	1pleas	distractor2	EVAbeforeCON	AMP_CSunple	AMP23	9	6	0	0	300	300	0	0	614	50	11,71875	0	0	0	0	1	blank2r.bmp	0	1	DHJF	0	1	blank2r.bmp	79	33	pic33.bmp	199	1	whitenoise_No3.bmp	306	0	0	0	0	0	0	0	0	0	0	0	0	0	0	0	0	0	0	0	0	0	0	0	0	0	0	0	0	0	0	0	0	0	0	0	0	0	0	0
030719	12:51:03	13:07:38	994357	5.0.10.0	4_exp_EVA_AMP_AWA_CON	154	Rpleas_acq	Same	Rpleas	Amasked	CS_A	1pleas	distractor2	EVAbeforeCON	AMP_distractor	AMP23	9	7	0	0	300	300	0	0	1076	50	11,71875	0	0	0	0	1	blank2r.bmp	0	1	QYSB	0	1	blank2r.bmp	79	72	pic72.bmp	199	1	whitenoise_No3.bmp	306	0	0	0	0	0	0	0	0	0	0	0	0	0	0	0	0	0	0	0	0	0	0	0	0	0	0	0	0	0	0	0	0	0	0	0	0	0	0	0
030719	12:51:03	13:07:40	995996	5.0.10.0	4_exp_EVA_AMP_AWA_CON	154	Rpleas_acq	Same	Rpleas	Amasked	CS_A	1pleas	distractor2	EVAbeforeCON	AMP_CSpleas	AMP23	9	8	0	0	300	300	0	0	706	50	11,71875	1	0	0	0	1	blank2r.bmp	0	1	CPLW	0	1	blank2r.bmp	79	54	pic54.bmp	199	1	whitenoise_No3.bmp	306	0	0	0	0	0	0	0	0	0	0	0	0	0	0	0	0	0	0	0	0	0	0	0	0	0	0	0	0	0	0	0	0	0	0	0	0	0	0	0
030719	12:51:03	13:07:41	997489	5.0.10.0	4_exp_EVA_AMP_AWA_CON	154	Rpleas_acq	Same	Rpleas	Amasked	CS_A	1pleas	distractor2	EVAbeforeCON	AMP_CSpleas	AMP23	9	9	0	0	300	300	0	0	579	50	11,71875	1	0	0	0	1	blank2r.bmp	0	1	CPLW	0	1	blank2r.bmp	79	136	pic136.bmp	199	1	whitenoise_No3.bmp	306	0	0	0	0	0	0	0	0	0	0	0	0	0	0	0	0	0	0	0	0	0	0	0	0	0	0	0	0	0	0	0	0	0	0	0	0	0	0	0
030719	12:51:03	13:07:43	998941	5.0.10.0	4_exp_EVA_AMP_AWA_CON	154	Rpleas_acq	Same	Rpleas	Amasked	CS_A	1pleas	distractor2	EVAbeforeCON	AMP_CSpleas	AMP23	9	10	0	0	300	300	0	0	527	50	11,71875	1	0	0	0	1	blank2r.bmp	0	1	CPLW	0	1	blank2r.bmp	79	98	pic98.bmp	199	1	whitenoise_No3.bmp	306	0	0	0	0	0	0	0	0	0	0	0	0	0	0	0	0	0	0	0	0	0	0	0	0	0	0	0	0	0	0	0	0	0	0	0	0	0	0	0
030719	12:51:03	13:07:45	1000914	5.0.10.0	4_exp_EVA_AMP_AWA_CON	154	Rpleas_acq	Same	Rpleas	Amasked	CS_A	1pleas	distractor2	EVAbeforeCON	AMP_CSunple	AMP23	9	11	0	0	300	300	0	0	1044	46	11,71875	1	0	0	0	1	blank2r.bmp	0	1	DHJF	0	1	blank2r.bmp	79	137	pic137.bmp	199	1	whitenoise_No3.bmp	306	0	0	0	0	0	0	0	0	0	0	0	0	0	0	0	0	0	0	0	0	0	0	0	0	0	0	0	0	0	0	0	0	0	0	0	0	0	0	0
030719	12:51:03	13:07:47	1003433	5.0.10.0	4_exp_EVA_AMP_AWA_CON	154	Rpleas_acq	Same	Rpleas	Amasked	CS_A	1pleas	distractor2	EVAbeforeCON	AMP_distractor	AMP23	9	12	0	0	300	300	0	0	1607	46	11,71875	0	0	0	0	1	blank2r.bmp	0	1	QYSB	0	1	blank2r.bmp	79	74	pic74.bmp	199	1	whitenoise_No3.bmp	306	0	0	0	0	0	0	0	0	0	0	0	0	0	0	0	0	0	0	0	0	0	0	0	0	0	0	0	0	0	0	0	0	0	0	0	0	0	0	0
030719	12:51:03	13:07:50	1006032	5.0.10.0	4_exp_EVA_AMP_AWA_CON	154	Rpleas_acq	Same	Rpleas	Amasked	CS_A	1pleas	distractor2	EVAbeforeCON	AMP_distractor	AMP23	9	13	0	0	300	300	0	0	1665	50	11,71875	0	0	0	0	1	blank2r.bmp	0	1	QYSB	0	1	blank2r.bmp	79	88	pic88.bmp	199	1	whitenoise_No3.bmp	306	0	0	0	0	0	0	0	0	0	0	0	0	0	0	0	0	0	0	0	0	0	0	0	0	0	0	0	0	0	0	0	0	0	0	0	0	0	0	0
030719	12:51:03	13:07:51	1007858	5.0.10.0	4_exp_EVA_AMP_AWA_CON	154	Rpleas_acq	Same	Rpleas	Amasked	CS_A	1pleas	distractor2	EVAbeforeCON	AMP_CSpleas	AMP23	9	14	0	0	300	300	0	0	906	46	11,71875	0	0	0	0	1	blank2r.bmp	0	1	CPLW	0	1	blank2r.bmp	79	34	pic34.bmp	199	1	whitenoise_No3.bmp	306	0	0	0	0	0	0	0	0	0	0	0	0	0	0	0	0	0	0	0	0	0	0	0	0	0	0	0	0	0	0	0	0	0	0	0	0	0	0	0
030719	12:51:03	13:07:54	1010683	5.0.10.0	4_exp_EVA_AMP_AWA_CON	154	Rpleas_acq	Same	Rpleas	Amasked	CS_A	1pleas	distractor2	EVAbeforeCON	AMP_distractor	AMP23	9	15	0	0	300	300	0	0	1914	46	11,71875	0	0	0	0	1	blank2r.bmp	0	1	QYSB	0	1	blank2r.bmp	79	37	pic37.bmp	199	1	whitenoise_No3.bmp	306	0	0	0	0	0	0	0	0	0	0	0	0	0	0	0	0	0	0	0	0	0	0	0	0	0	0	0	0	0	0	0	0	0	0	0	0	0	0	0
030719	12:51:03	13:07:56	1012349	5.0.10.0	4_exp_EVA_AMP_AWA_CON	154	Rpleas_acq	Same	Rpleas	Amasked	CS_A	1pleas	distractor2	EVAbeforeCON	AMP_CSpleas	AMP23	9	16	0	0	300	300	0	0	736	46	11,71875	0	0	0	0	1	blank2r.bmp	0	1	CPLW	0	1	blank2r.bmp	79	10	pic10.bmp	199	1	whitenoise_No3.bmp	306	0	0	0	0	0	0	0	0	0	0	0	0	0	0	0	0	0	0	0	0	0	0	0	0	0	0	0	0	0	0	0	0	0	0	0	0	0	0	0
030719	12:51:03	13:07:58	1014029	5.0.10.0	4_exp_EVA_AMP_AWA_CON	154	Rpleas_acq	Same	Rpleas	Amasked	CS_A	1pleas	distractor2	EVAbeforeCON	AMP_CSunple	AMP23	9	17	0	0	300	300	0	0	761	46	11,71875	1	0	0	0	1	blank2r.bmp	0	1	DHJF	0	1	blank2r.bmp	79	42	pic42.bmp	199	1	whitenoise_No3.bmp	306	0	0	0	0	0	0	0	0	0	0	0	0	0	0	0	0	0	0	0	0	0	0	0	0	0	0	0	0	0	0	0	0	0	0	0	0	0	0	0
030719	12:51:03	13:08:00	1016108	5.0.10.0	4_exp_EVA_AMP_AWA_CON	154	Rpleas_acq	Same	Rpleas	Amasked	CS_A	1pleas	distractor2	EVAbeforeCON	AMP_CSunple	AMP23	9	18	0	0	300	300	0	0	1154	46	11,71875	1	0	0	0	1	blank2r.bmp	0	1	DHJF	0	1	blank2r.bmp	79	101	pic101.bmp	199	1	whitenoise_No3.bmp	306	0	0	0	0	0	0	0	0	0	0	0	0	0	0	0	0	0	0	0	0	0	0	0	0	0	0	0	0	0	0	0	0	0	0	0	0	0	0	0
030719	12:51:03	13:08:02	1018200	5.0.10.0	4_exp_EVA_AMP_AWA_CON	154	Rpleas_acq	Same	Rpleas	Amasked	CS_A	1pleas	distractor2	EVAbeforeCON	AMP_CSunple	AMP23	9	19	0	0	300	300	0	0	1176	50	11,71875	0	0	0	0	1	blank2r.bmp	0	1	DHJF	0	1	blank2r.bmp	79	107	pic107.bmp	199	1	whitenoise_No3.bmp	306	0	0	0	0	0	0	0	0	0	0	0	0	0	0	0	0	0	0	0	0	0	0	0	0	0	0	0	0	0	0	0	0	0	0	0	0	0	0	0
030719	12:51:03	13:08:04	1020026	5.0.10.0	4_exp_EVA_AMP_AWA_CON	154	Rpleas_acq	Same	Rpleas	Amasked	CS_A	1pleas	distractor2	EVAbeforeCON	AMP_distractor	AMP23	9	20	0	0	300	300	0	0	913	46	11,71875	0	0	0	0	1	blank2r.bmp	0	1	QYSB	0	1	blank2r.bmp	79	71	pic71.bmp	199	1	whitenoise_No3.bmp	306	0	0	0	0	0	0	0	0	0	0	0	0	0	0	0	0	0	0	0	0	0	0	0	0	0	0	0	0	0	0	0	0	0	0	0	0	0	0	0
030719	12:51:03	13:08:05	1021692	5.0.10.0	4_exp_EVA_AMP_AWA_CON	154	Rpleas_acq	Same	Rpleas	Amasked	CS_A	1pleas	distractor2	EVAbeforeCON	AMP_distractor	AMP23	9	21	0	0	300	300	0	0	750	50	11,71875	0	0	0	0	1	blank2r.bmp	0	1	QYSB	0	1	blank2r.bmp	79	91	pic91.bmp	199	1	whitenoise_No3.bmp	306	0	0	0	0	0	0	0	0	0	0	0	0	0	0	0	0	0	0	0	0	0	0	0	0	0	0	0	0	0	0	0	0	0	0	0	0	0	0	0
030719	12:51:03	13:08:07	1023265	5.0.10.0	4_exp_EVA_AMP_AWA_CON	154	Rpleas_acq	Same	Rpleas	Amasked	CS_A	1pleas	distractor2	EVAbeforeCON	AMP_distractor	AMP23	9	22	0	0	300	300	0	0	654	50	11,71875	0	0	0	0	1	blank2r.bmp	0	1	QYSB	0	1	blank2r.bmp	79	97	pic97.bmp	199	1	whitenoise_No3.bmp	306	0	0	0	0	0	0	0	0	0	0	0	0	0	0	0	0	0	0	0	0	0	0	0	0	0	0	0	0	0	0	0	0	0	0	0	0	0	0	0
030719	12:51:03	13:08:09	1025024	5.0.10.0	4_exp_EVA_AMP_AWA_CON	154	Rpleas_acq	Same	Rpleas	Amasked	CS_A	1pleas	distractor2	EVAbeforeCON	AMP_distractor	AMP23	9	23	0	0	300	300	0	0	838	46	11,71875	0	0	0	0	1	blank2r.bmp	0	1	QYSB	0	1	blank2r.bmp	79	73	pic73.bmp	199	1	whitenoise_No3.bmp	306	0	0	0	0	0	0	0	0	0	0	0	0	0	0	0	0	0	0	0	0	0	0	0	0	0	0	0	0	0	0	0	0	0	0	0	0	0	0	0
030719	12:51:03	13:08:10	1026597	5.0.10.0	4_exp_EVA_AMP_AWA_CON	154	Rpleas_acq	Same	Rpleas	Amasked	CS_A	1pleas	distractor2	EVAbeforeCON	AMP_CSunple	AMP23	9	24	0	0	300	300	0	0	638	50	11,71875	0	0	0	0	1	blank2r.bmp	0	1	DHJF	0	1	blank2r.bmp	79	115	pic115.bmp	199	1	whitenoise_No3.bmp	306	0	0	0	0	0	0	0	0	0	0	0	0	0	0	0	0	0	0	0	0	0	0	0	0	0	0	0	0	0	0	0	0	0	0	0	0	0	0	0
030719	12:51:03	13:08:12	1028090	5.0.10.0	4_exp_EVA_AMP_AWA_CON	154	Rpleas_acq	Same	Rpleas	Amasked	CS_A	1pleas	distractor2	EVAbeforeCON	AMP_CSunple	AMP23	9	25	0	0	300	300	0	0	583	50	11,71875	0	0	0	0	1	blank2r.bmp	0	1	DHJF	0	1	blank2r.bmp	79	87	pic87.bmp	199	1	whitenoise_No3.bmp	306	0	0	0	0	0	0	0	0	0	0	0	0	0	0	0	0	0	0	0	0	0	0	0	0	0	0	0	0	0	0	0	0	0	0	0	0	0	0	0
030719	12:51:03	13:08:13	1029742	5.0.10.0	4_exp_EVA_AMP_AWA_CON	154	Rpleas_acq	Same	Rpleas	Amasked	CS_A	1pleas	distractor2	EVAbeforeCON	AMP_CSunple	AMP23	9	26	0	0	300	300	0	0	744	46	11,71875	1	0	0	0	1	blank2r.bmp	0	1	DHJF	0	1	blank2r.bmp	79	120	pic120.bmp	199	1	whitenoise_No3.bmp	306	0	0	0	0	0	0	0	0	0	0	0	0	0	0	0	0	0	0	0	0	0	0	0	0	0	0	0	0	0	0	0	0	0	0	0	0	0	0	0
