date	time	script.currenttime	script.elapsedtime	build	script.currentexpt	subject	expressions.LRpleas_acq	expressions.SameOppo	expressions.condition_Lpleas	expressions.ABmasked	expressions.conditionCS_A	expressions.condition_1pleas	expressions.condition_distractor_AMP	expressions.AWACON_AMPEVA_first	trialcode	blockcode	blocknum	trialnum	windowcenter	inwindow	pretrialpause	posttrialpause	trialduration	trialtimeout	latency	response	expressions.correctedscore	correct	values.vis_performance	values.vis_rating_sum	values.vis_rating_mean	stimulusnumber1	stimulusitem1	stimulusonset1	stimulusnumber2	stimulusitem2	stimulusonset2	stimulusnumber3	stimulusitem3	stimulusonset3	stimulusnumber4	stimulusitem4	stimulusonset4	stimulusnumber5	stimulusitem5	stimulusonset5	stimulusnumber6	stimulusitem6	stimulusonset6	stimulusnumber7	stimulusitem7	stimulusonset7	stimulusnumber8	stimulusitem8	stimulusonset8	stimulusnumber9	stimulusitem9	stimulusonset9	stimulusnumber10	stimulusitem10	stimulusonset10	stimulusnumber11	stimulusitem11	stimulusonset11	stimulusnumber12	stimulusitem12	stimulusonset12	stimulusnumber13	stimulusitem13	stimulusonset13	stimulusnumber14	stimulusitem14	stimulusonset14	stimulusnumber15	stimulusitem15	stimulusonset15	stimulusnumber16	stimulusitem16	stimulusonset16	stimulusnumber17	stimulusitem17	stimulusonset17	stimulusnumber18	stimulusitem18	stimulusonset18
031119	11:34:45	11:36:26	101078	5.0.10.0	4_exp_AWA_CON_EVA_AMP	159	Rpleas_acq	Oppo	Rpleas	Amasked	CS_A	2pleas	distractor2	CONbeforeEVA	acq_US_pleas_masked	acq1_masked	1	1	0	0	300	300	0	0	985	50	0	1	0	0	0	1	blank2r.bmp	0	1	+	0	1	B1r.bmp	492	1	blank2r.bmp	786	1	DHJF	786	1	blank2r.bmp	866	2	vertrauen	866	0	0	0	0	0	0	0	0	0	0	0	0	0	0	0	0	0	0	0	0	0	0	0	0	0	0	0	0	0	0	0	0	0
031119	11:34:45	11:36:28	103157	5.0.10.0	4_exp_AWA_CON_EVA_AMP	159	Rpleas_acq	Oppo	Rpleas	Amasked	CS_A	2pleas	distractor2	CONbeforeEVA	acq_new_pleas_masked	acq1_masked	1	2	0	0	300	300	0	0	604	50	0	1	0	0	0	1	blank2r.bmp	0	1	+	0	3	B3r.bmp	492	1	blank2r.bmp	786	6	C2r.bmp	786	1	blank2r.bmp	866	4	vergnügt	866	0	0	0	0	0	0	0	0	0	0	0	0	0	0	0	0	0	0	0	0	0	0	0	0	0	0	0	0	0	0	0	0	0
031119	11:34:45	11:36:30	105089	5.0.10.0	4_exp_AWA_CON_EVA_AMP	159	Rpleas_acq	Oppo	Rpleas	Amasked	CS_A	2pleas	distractor2	CONbeforeEVA	acq_US_pleas_masked	acq1_masked	1	3	0	0	300	300	0	0	463	50	0	1	0	0	0	1	blank2r.bmp	0	1	+	0	2	B2r.bmp	492	1	blank2r.bmp	786	1	DHJF	786	1	blank2r.bmp	866	4	gütig	866	0	0	0	0	0	0	0	0	0	0	0	0	0	0	0	0	0	0	0	0	0	0	0	0	0	0	0	0	0	0	0	0	0
031119	11:34:45	11:36:32	107008	5.0.10.0	4_exp_AWA_CON_EVA_AMP	159	Rpleas_acq	Oppo	Rpleas	Amasked	CS_A	2pleas	distractor2	CONbeforeEVA	acq_new_unple_masked	acq1_masked	1	4	0	0	300	300	0	0	426	46	0	1	0	0	0	1	blank2r.bmp	0	1	+	0	4	B4r.bmp	492	1	blank2r.bmp	786	3	B3r.bmp	786	1	blank2r.bmp	866	4	verbissen	866	0	0	0	0	0	0	0	0	0	0	0	0	0	0	0	0	0	0	0	0	0	0	0	0	0	0	0	0	0	0	0	0	0
031119	11:34:45	11:36:34	108941	5.0.10.0	4_exp_AWA_CON_EVA_AMP	159	Rpleas_acq	Oppo	Rpleas	Amasked	CS_A	2pleas	distractor2	CONbeforeEVA	acq_new_unple_masked	acq1_masked	1	5	0	0	300	300	0	0	449	46	0	1	0	0	0	1	blank2r.bmp	0	1	+	0	5	C1r.bmp	492	1	blank2r.bmp	786	2	B2r.bmp	786	1	blank2r.bmp	866	1	krise	866	0	0	0	0	0	0	0	0	0	0	0	0	0	0	0	0	0	0	0	0	0	0	0	0	0	0	0	0	0	0	0	0	0
031119	11:34:45	11:36:36	110954	5.0.10.0	4_exp_AWA_CON_EVA_AMP	159	Rpleas_acq	Oppo	Rpleas	Amasked	CS_A	2pleas	distractor2	CONbeforeEVA	acq_new_pleas_masked	acq1_masked	1	6	0	0	300	300	0	0	530	50	0	1	0	0	0	1	blank2r.bmp	0	1	+	0	7	C3r.bmp	492	1	blank2r.bmp	786	4	B4r.bmp	786	1	blank2r.bmp	866	5	träumen	866	0	0	0	0	0	0	0	0	0	0	0	0	0	0	0	0	0	0	0	0	0	0	0	0	0	0	0	0	0	0	0	0	0
031119	11:34:45	11:36:38	113099	5.0.10.0	4_exp_AWA_CON_EVA_AMP	159	Rpleas_acq	Oppo	Rpleas	Amasked	CS_A	2pleas	distractor2	CONbeforeEVA	acq_US_unple_masked	acq1_masked	1	7	0	0	300	300	0	0	659	46	0	1	0	0	0	1	blank2r.bmp	0	1	+	0	6	C2r.bmp	492	1	blank2r.bmp	786	1	CPLW	786	1	blank2r.bmp	866	1	gemein	866	0	0	0	0	0	0	0	0	0	0	0	0	0	0	0	0	0	0	0	0	0	0	0	0	0	0	0	0	0	0	0	0	0
031119	11:34:45	11:36:41	115245	5.0.10.0	4_exp_AWA_CON_EVA_AMP	159	Rpleas_acq	Oppo	Rpleas	Amasked	CS_A	2pleas	distractor2	CONbeforeEVA	acq_US_unple_masked	acq1_masked	1	8	0	0	300	300	0	0	673	46	0	1	0	0	0	1	blank2r.bmp	0	1	+	0	8	C4r.bmp	492	1	blank2r.bmp	786	1	CPLW	786	1	blank2r.bmp	866	4	gierig	866	0	0	0	0	0	0	0	0	0	0	0	0	0	0	0	0	0	0	0	0	0	0	0	0	0	0	0	0	0	0	0	0	0
031119	11:34:45	11:36:43	117271	5.0.10.0	4_exp_AWA_CON_EVA_AMP	159	Rpleas_acq	Oppo	Rpleas	Amasked	CS_A	2pleas	distractor2	CONbeforeEVA	acq_US_pleas_masked	acq1_masked	1	9	0	0	300	300	0	0	534	50	0	1	0	0	0	1	blank2r.bmp	0	1	+	0	1	B1r.bmp	492	1	blank2r.bmp	786	1	DHJF	786	1	blank2r.bmp	866	3	sonnig	866	0	0	0	0	0	0	0	0	0	0	0	0	0	0	0	0	0	0	0	0	0	0	0	0	0	0	0	0	0	0	0	0	0
031119	11:34:45	11:36:45	119497	5.0.10.0	4_exp_AWA_CON_EVA_AMP	159	Rpleas_acq	Oppo	Rpleas	Amasked	CS_A	2pleas	distractor2	CONbeforeEVA	acq_new_unple_masked	acq1_masked	1	10	0	0	300	300	0	0	739	46	0	1	0	0	0	1	blank2r.bmp	0	1	+	0	3	B3r.bmp	492	1	blank2r.bmp	786	8	C4r.bmp	786	1	blank2r.bmp	866	3	engstirnig	866	0	0	0	0	0	0	0	0	0	0	0	0	0	0	0	0	0	0	0	0	0	0	0	0	0	0	0	0	0	0	0	0	0
031119	11:34:45	11:36:47	121469	5.0.10.0	4_exp_AWA_CON_EVA_AMP	159	Rpleas_acq	Oppo	Rpleas	Amasked	CS_A	2pleas	distractor2	CONbeforeEVA	acq_US_unple_masked	acq1_masked	1	11	0	0	300	300	0	0	488	46	0	1	0	0	0	1	blank2r.bmp	0	1	+	0	5	C1r.bmp	492	1	blank2r.bmp	786	1	CPLW	786	1	blank2r.bmp	866	2	versagen	866	0	0	0	0	0	0	0	0	0	0	0	0	0	0	0	0	0	0	0	0	0	0	0	0	0	0	0	0	0	0	0	0	0
031119	11:34:45	11:36:49	123588	5.0.10.0	4_exp_AWA_CON_EVA_AMP	159	Rpleas_acq	Oppo	Rpleas	Amasked	CS_A	2pleas	distractor2	CONbeforeEVA	acq_new_pleas_masked	acq1_masked	1	12	0	0	300	300	0	0	633	50	0	1	0	0	0	1	blank2r.bmp	0	1	+	0	6	C2r.bmp	492	1	blank2r.bmp	786	5	C1r.bmp	786	1	blank2r.bmp	866	3	engagiert	866	0	0	0	0	0	0	0	0	0	0	0	0	0	0	0	0	0	0	0	0	0	0	0	0	0	0	0	0	0	0	0	0	0
031119	11:34:45	11:36:51	125614	5.0.10.0	4_exp_AWA_CON_EVA_AMP	159	Rpleas_acq	Oppo	Rpleas	Amasked	CS_A	2pleas	distractor2	CONbeforeEVA	acq_US_unple_masked	acq1_masked	1	13	0	0	300	300	0	0	538	46	0	1	0	0	0	1	blank2r.bmp	0	1	+	0	4	B4r.bmp	492	1	blank2r.bmp	786	1	CPLW	786	1	blank2r.bmp	866	6	ausrottung	866	0	0	0	0	0	0	0	0	0	0	0	0	0	0	0	0	0	0	0	0	0	0	0	0	0	0	0	0	0	0	0	0	0
031119	11:34:45	11:36:53	127600	5.0.10.0	4_exp_AWA_CON_EVA_AMP	159	Rpleas_acq	Oppo	Rpleas	Amasked	CS_A	2pleas	distractor2	CONbeforeEVA	acq_new_pleas_masked	acq1_masked	1	14	0	0	300	300	0	0	503	50	0	1	0	0	0	1	blank2r.bmp	0	1	+	0	7	C3r.bmp	492	1	blank2r.bmp	786	1	B1r.bmp	786	1	blank2r.bmp	866	6	besonnen	866	0	0	0	0	0	0	0	0	0	0	0	0	0	0	0	0	0	0	0	0	0	0	0	0	0	0	0	0	0	0	0	0	0
031119	11:34:45	11:36:55	129732	5.0.10.0	4_exp_AWA_CON_EVA_AMP	159	Rpleas_acq	Oppo	Rpleas	Amasked	CS_A	2pleas	distractor2	CONbeforeEVA	acq_new_unple_masked	acq1_masked	1	15	0	0	300	300	0	0	643	46	0	1	0	0	0	1	blank2r.bmp	0	1	+	0	8	C4r.bmp	492	1	blank2r.bmp	786	7	C3r.bmp	786	1	blank2r.bmp	866	5	töten	866	0	0	0	0	0	0	0	0	0	0	0	0	0	0	0	0	0	0	0	0	0	0	0	0	0	0	0	0	0	0	0	0	0
031119	11:34:45	11:36:57	132105	5.0.10.0	4_exp_AWA_CON_EVA_AMP	159	Rpleas_acq	Oppo	Rpleas	Amasked	CS_A	2pleas	distractor2	CONbeforeEVA	acq_US_pleas_masked	acq1_masked	1	16	0	0	300	300	0	0	883	50	0	1	0	0	0	1	blank2r.bmp	0	1	+	0	2	B2r.bmp	492	1	blank2r.bmp	786	1	DHJF	786	1	blank2r.bmp	866	1	genießen	866	0	0	0	0	0	0	0	0	0	0	0	0	0	0	0	0	0	0	0	0	0	0	0	0	0	0	0	0	0	0	0	0	0
031119	11:34:45	11:36:59	134091	5.0.10.0	4_exp_AWA_CON_EVA_AMP	159	Rpleas_acq	Oppo	Rpleas	Amasked	CS_A	2pleas	distractor2	CONbeforeEVA	acq_US_unple_masked	acq1_masked	1	17	0	0	300	300	0	0	503	46	0	1	0	0	0	1	blank2r.bmp	0	1	+	0	7	C3r.bmp	492	1	blank2r.bmp	786	1	CPLW	786	1	blank2r.bmp	866	5	geizig	866	0	0	0	0	0	0	0	0	0	0	0	0	0	0	0	0	0	0	0	0	0	0	0	0	0	0	0	0	0	0	0	0	0
031119	11:34:45	11:37:01	136090	5.0.10.0	4_exp_AWA_CON_EVA_AMP	159	Rpleas_acq	Oppo	Rpleas	Amasked	CS_A	2pleas	distractor2	CONbeforeEVA	acq_new_pleas_masked	acq1_masked	1	18	0	0	300	300	0	0	527	50	0	1	0	0	0	1	blank2r.bmp	0	1	+	0	8	C4r.bmp	492	1	blank2r.bmp	786	3	B3r.bmp	786	1	blank2r.bmp	866	2	kreativ	866	0	0	0	0	0	0	0	0	0	0	0	0	0	0	0	0	0	0	0	0	0	0	0	0	0	0	0	0	0	0	0	0	0
031119	11:34:45	11:37:03	138036	5.0.10.0	4_exp_AWA_CON_EVA_AMP	159	Rpleas_acq	Oppo	Rpleas	Amasked	CS_A	2pleas	distractor2	CONbeforeEVA	acq_new_pleas_masked	acq1_masked	1	19	0	0	300	300	0	0	465	50	0	1	0	0	0	1	blank2r.bmp	0	1	+	0	6	C2r.bmp	492	1	blank2r.bmp	786	7	C3r.bmp	786	1	blank2r.bmp	866	1	kuss	866	0	0	0	0	0	0	0	0	0	0	0	0	0	0	0	0	0	0	0	0	0	0	0	0	0	0	0	0	0	0	0	0	0
031119	11:34:45	11:37:05	140075	5.0.10.0	4_exp_AWA_CON_EVA_AMP	159	Rpleas_acq	Oppo	Rpleas	Amasked	CS_A	2pleas	distractor2	CONbeforeEVA	acq_US_unple_masked	acq1_masked	1	20	0	0	300	300	0	0	550	46	0	1	0	0	0	1	blank2r.bmp	0	1	+	0	5	C1r.bmp	492	1	blank2r.bmp	786	1	CPLW	786	1	blank2r.bmp	866	3	sterben	866	0	0	0	0	0	0	0	0	0	0	0	0	0	0	0	0	0	0	0	0	0	0	0	0	0	0	0	0	0	0	0	0	0
031119	11:34:45	11:37:08	142341	5.0.10.0	4_exp_AWA_CON_EVA_AMP	159	Rpleas_acq	Oppo	Rpleas	Amasked	CS_A	2pleas	distractor2	CONbeforeEVA	acq_US_pleas_masked	acq1_masked	1	21	0	0	300	300	0	0	772	50	0	1	0	0	0	1	blank2r.bmp	0	1	+	0	1	B1r.bmp	492	1	blank2r.bmp	786	1	DHJF	786	1	blank2r.bmp	866	6	anregung	866	0	0	0	0	0	0	0	0	0	0	0	0	0	0	0	0	0	0	0	0	0	0	0	0	0	0	0	0	0	0	0	0	0
031119	11:34:45	11:37:10	144406	5.0.10.0	4_exp_AWA_CON_EVA_AMP	159	Rpleas_acq	Oppo	Rpleas	Amasked	CS_A	2pleas	distractor2	CONbeforeEVA	acq_new_unple_masked	acq1_masked	1	22	0	0	300	300	0	0	579	46	0	1	0	0	0	1	blank2r.bmp	0	1	+	0	3	B3r.bmp	492	1	blank2r.bmp	786	8	C4r.bmp	786	1	blank2r.bmp	866	6	bange	866	0	0	0	0	0	0	0	0	0	0	0	0	0	0	0	0	0	0	0	0	0	0	0	0	0	0	0	0	0	0	0	0	0
031119	11:34:45	11:37:12	146512	5.0.10.0	4_exp_AWA_CON_EVA_AMP	159	Rpleas_acq	Oppo	Rpleas	Amasked	CS_A	2pleas	distractor2	CONbeforeEVA	acq_US_pleas_masked	acq1_masked	1	23	0	0	300	300	0	0	628	50	0	1	0	0	0	1	blank2r.bmp	0	1	+	0	4	B4r.bmp	492	1	blank2r.bmp	786	1	DHJF	786	1	blank2r.bmp	866	5	gesittet	866	0	0	0	0	0	0	0	0	0	0	0	0	0	0	0	0	0	0	0	0	0	0	0	0	0	0	0	0	0	0	0	0	0
031119	11:34:45	11:37:14	148671	5.0.10.0	4_exp_AWA_CON_EVA_AMP	159	Rpleas_acq	Oppo	Rpleas	Amasked	CS_A	2pleas	distractor2	CONbeforeEVA	acq_new_unple_masked	acq1_masked	1	24	0	0	300	300	0	0	683	46	0	1	0	0	0	1	blank2r.bmp	0	1	+	0	2	B2r.bmp	492	1	blank2r.bmp	786	1	B1r.bmp	786	1	blank2r.bmp	866	2	krank	866	0	0	0	0	0	0	0	0	0	0	0	0	0	0	0	0	0	0	0	0	0	0	0	0	0	0	0	0	0	0	0	0	0
031119	11:34:45	11:37:17	151483	5.0.10.0	4_exp_AWA_CON_EVA_AMP	159	Rpleas_acq	Oppo	Rpleas	Amasked	CS_A	2pleas	distractor2	CONbeforeEVA	acq_new_pleas_masked	acq1_masked	1	25	0	0	300	300	0	0	1319	50	0	1	0	0	0	1	blank2r.bmp	0	1	+	0	2	B2r.bmp	492	1	blank2r.bmp	786	5	C1r.bmp	786	1	blank2r.bmp	866	4	vergnügt	866	0	0	0	0	0	0	0	0	0	0	0	0	0	0	0	0	0	0	0	0	0	0	0	0	0	0	0	0	0	0	0	0	0
031119	11:34:45	11:37:19	153723	5.0.10.0	4_exp_AWA_CON_EVA_AMP	159	Rpleas_acq	Oppo	Rpleas	Amasked	CS_A	2pleas	distractor2	CONbeforeEVA	acq_US_pleas_masked	acq1_masked	1	26	0	0	300	300	0	0	755	50	0	1	0	0	0	1	blank2r.bmp	0	1	+	0	1	B1r.bmp	492	1	blank2r.bmp	786	1	DHJF	786	1	blank2r.bmp	866	5	gesittet	866	0	0	0	0	0	0	0	0	0	0	0	0	0	0	0	0	0	0	0	0	0	0	0	0	0	0	0	0	0	0	0	0	0
031119	11:34:45	11:37:21	155722	5.0.10.0	4_exp_AWA_CON_EVA_AMP	159	Rpleas_acq	Oppo	Rpleas	Amasked	CS_A	2pleas	distractor2	CONbeforeEVA	acq_US_unple_masked	acq1_masked	1	27	0	0	300	300	0	0	508	46	0	1	0	0	0	1	blank2r.bmp	0	1	+	0	8	C4r.bmp	492	1	blank2r.bmp	786	1	CPLW	786	1	blank2r.bmp	866	3	sterben	866	0	0	0	0	0	0	0	0	0	0	0	0	0	0	0	0	0	0	0	0	0	0	0	0	0	0	0	0	0	0	0	0	0
031119	11:34:45	11:37:23	157854	5.0.10.0	4_exp_AWA_CON_EVA_AMP	159	Rpleas_acq	Oppo	Rpleas	Amasked	CS_A	2pleas	distractor2	CONbeforeEVA	acq_US_unple_masked	acq1_masked	1	28	0	0	300	300	0	0	439	50	0	0	0	0	0	1	blank2r.bmp	0	1	+	0	4	B4r.bmp	492	1	blank2r.bmp	786	1	CPLW	786	1	blank2r.bmp	866	1	gemein	866	1	FEHLER	1346	0	0	0	0	0	0	0	0	0	0	0	0	0	0	0	0	0	0	0	0	0	0	0	0	0	0	0	0	0	0
031119	11:34:45	11:37:25	159880	5.0.10.0	4_exp_AWA_CON_EVA_AMP	159	Rpleas_acq	Oppo	Rpleas	Amasked	CS_A	2pleas	distractor2	CONbeforeEVA	acq_new_unple_masked	acq1_masked	1	29	0	0	300	300	0	0	763	46	0	1	0	0	0	1	blank2r.bmp	0	1	+	0	5	C1r.bmp	492	1	blank2r.bmp	786	2	B2r.bmp	786	1	blank2r.bmp	866	3	engstirnig	866	0	0	0	0	0	0	0	0	0	0	0	0	0	0	0	0	0	0	0	0	0	0	0	0	0	0	0	0	0	0	0	0	0
031119	11:34:45	11:37:27	162172	5.0.10.0	4_exp_AWA_CON_EVA_AMP	159	Rpleas_acq	Oppo	Rpleas	Amasked	CS_A	2pleas	distractor2	CONbeforeEVA	acq_new_unple_masked	acq1_masked	1	30	0	0	300	300	0	0	812	46	0	1	0	0	0	1	blank2r.bmp	0	1	+	0	7	C3r.bmp	492	1	blank2r.bmp	786	4	B4r.bmp	786	1	blank2r.bmp	866	1	krise	866	0	0	0	0	0	0	0	0	0	0	0	0	0	0	0	0	0	0	0	0	0	0	0	0	0	0	0	0	0	0	0	0	0
031119	11:34:45	11:37:29	164198	5.0.10.0	4_exp_AWA_CON_EVA_AMP	159	Rpleas_acq	Oppo	Rpleas	Amasked	CS_A	2pleas	distractor2	CONbeforeEVA	acq_new_unple_masked	acq1_masked	1	31	0	0	300	300	0	0	551	46	0	1	0	0	0	1	blank2r.bmp	0	1	+	0	3	B3r.bmp	492	1	blank2r.bmp	786	6	C2r.bmp	786	1	blank2r.bmp	866	4	verbissen	866	0	0	0	0	0	0	0	0	0	0	0	0	0	0	0	0	0	0	0	0	0	0	0	0	0	0	0	0	0	0	0	0	0
031119	11:34:45	11:37:32	166317	5.0.10.0	4_exp_AWA_CON_EVA_AMP	159	Rpleas_acq	Oppo	Rpleas	Amasked	CS_A	2pleas	distractor2	CONbeforeEVA	acq_new_pleas_masked	acq1_masked	1	32	0	0	300	300	0	0	639	50	0	1	0	0	0	1	blank2r.bmp	0	1	+	0	6	C2r.bmp	492	1	blank2r.bmp	786	7	C3r.bmp	786	1	blank2r.bmp	866	3	engagiert	866	0	0	0	0	0	0	0	0	0	0	0	0	0	0	0	0	0	0	0	0	0	0	0	0	0	0	0	0	0	0	0	0	0
031119	11:34:45	11:37:34	168570	5.0.10.0	4_exp_AWA_CON_EVA_AMP	159	Rpleas_acq	Oppo	Rpleas	Amasked	CS_A	2pleas	distractor2	CONbeforeEVA	acq_US_unple_masked	acq1_masked	1	33	0	0	300	300	0	0	763	46	0	1	0	0	0	1	blank2r.bmp	0	1	+	0	1	B1r.bmp	492	1	blank2r.bmp	786	1	CPLW	786	1	blank2r.bmp	866	2	versagen	866	0	0	0	0	0	0	0	0	0	0	0	0	0	0	0	0	0	0	0	0	0	0	0	0	0	0	0	0	0	0	0	0	0
031119	11:34:45	11:37:36	170502	5.0.10.0	4_exp_AWA_CON_EVA_AMP	159	Rpleas_acq	Oppo	Rpleas	Amasked	CS_A	2pleas	distractor2	CONbeforeEVA	acq_new_pleas_masked	acq1_masked	1	34	0	0	300	300	0	0	460	50	0	1	0	0	0	1	blank2r.bmp	0	1	+	0	4	B4r.bmp	492	1	blank2r.bmp	786	3	B3r.bmp	786	1	blank2r.bmp	866	1	kuss	866	0	0	0	0	0	0	0	0	0	0	0	0	0	0	0	0	0	0	0	0	0	0	0	0	0	0	0	0	0	0	0	0	0
031119	11:34:45	11:37:39	173434	5.0.10.0	4_exp_AWA_CON_EVA_AMP	159	Rpleas_acq	Oppo	Rpleas	Amasked	CS_A	2pleas	distractor2	CONbeforeEVA	acq_US_pleas_masked	acq1_masked	1	35	0	0	300	300	0	0	1457	50	0	1	0	0	0	1	blank2r.bmp	0	1	+	0	2	B2r.bmp	492	1	blank2r.bmp	786	1	DHJF	786	1	blank2r.bmp	866	2	vertrauen	866	0	0	0	0	0	0	0	0	0	0	0	0	0	0	0	0	0	0	0	0	0	0	0	0	0	0	0	0	0	0	0	0	0
031119	11:34:45	11:37:41	175434	5.0.10.0	4_exp_AWA_CON_EVA_AMP	159	Rpleas_acq	Oppo	Rpleas	Amasked	CS_A	2pleas	distractor2	CONbeforeEVA	acq_US_pleas_masked	acq1_masked	1	36	0	0	300	300	0	0	518	50	0	1	0	0	0	1	blank2r.bmp	0	1	+	0	6	C2r.bmp	492	1	blank2r.bmp	786	1	DHJF	786	1	blank2r.bmp	866	6	anregung	866	0	0	0	0	0	0	0	0	0	0	0	0	0	0	0	0	0	0	0	0	0	0	0	0	0	0	0	0	0	0	0	0	0
031119	11:34:45	11:38:09	203569	5.0.10.0	4_exp_AWA_CON_EVA_AMP	159	Rpleas_acq	Oppo	Rpleas	Amasked	CS_A	2pleas	distractor2	CONbeforeEVA	acq_US_unple_masked	acq2_masked	2	1	480	0	300	300	0	0	890	46	0	1	0	0	0	1	blank2r.bmp	0	1	+	0	7	C3r.bmp	492	1	blank2r.bmp	786	1	CPLW	786	1	blank2r.bmp	866	6	ausrottung	866	1	!	1319	1	!	-1	0	0	0	0	0	0	0	0	0	0	0	0	0	0	0	0	0	0	0	0	0	0	0	0	0	0	0
031119	11:34:45	11:38:11	205848	5.0.10.0	4_exp_AWA_CON_EVA_AMP	159	Rpleas_acq	Oppo	Rpleas	Amasked	CS_A	2pleas	distractor2	CONbeforeEVA	acq_US_pleas_masked	acq2_masked	2	2	480	1	300	300	0	0	474	50	0	1	0	0	0	1	blank2r.bmp	0	1	+	0	3	B3r.bmp	492	1	blank2r.bmp	786	1	DHJF	786	1	blank2r.bmp	866	1	genießen	866	1	!	1319	1	!	1372	0	0	0	0	0	0	0	0	0	0	0	0	0	0	0	0	0	0	0	0	0	0	0	0	0	0	0
031119	11:34:45	11:38:13	208087	5.0.10.0	4_exp_AWA_CON_EVA_AMP	159	Rpleas_acq	Oppo	Rpleas	Amasked	CS_A	2pleas	distractor2	CONbeforeEVA	acq_US_unple_masked	acq2_masked	2	3	480	1	300	300	0	0	438	46	0	1	0	0	0	1	blank2r.bmp	0	1	+	0	8	C4r.bmp	492	1	blank2r.bmp	786	1	CPLW	786	1	blank2r.bmp	866	4	gierig	866	1	!	1319	1	!	1332	0	0	0	0	0	0	0	0	0	0	0	0	0	0	0	0	0	0	0	0	0	0	0	0	0	0	0
031119	11:34:45	11:38:16	210246	5.0.10.0	4_exp_AWA_CON_EVA_AMP	159	Rpleas_acq	Oppo	Rpleas	Amasked	CS_A	2pleas	distractor2	CONbeforeEVA	acq_new_unple_masked	acq2_masked	2	4	480	0	300	300	0	0	389	46	0	1	0	0	0	1	blank2r.bmp	0	1	+	0	5	C1r.bmp	492	1	blank2r.bmp	786	4	B4r.bmp	786	1	blank2r.bmp	866	5	töten	866	1	!	-1	1	!	-1	0	0	0	0	0	0	0	0	0	0	0	0	0	0	0	0	0	0	0	0	0	0	0	0	0	0	0
031119	11:34:45	11:38:18	212752	5.0.10.0	4_exp_AWA_CON_EVA_AMP	159	Rpleas_acq	Oppo	Rpleas	Amasked	CS_A	2pleas	distractor2	CONbeforeEVA	acq_new_pleas_masked	acq2_masked	2	5	480	0	300	300	0	0	726	50	0	1	0	0	0	1	blank2r.bmp	0	1	+	0	1	B1r.bmp	492	1	blank2r.bmp	786	5	C1r.bmp	786	1	blank2r.bmp	866	2	kreativ	866	1	!	1319	1	!	-1	0	0	0	0	0	0	0	0	0	0	0	0	0	0	0	0	0	0	0	0	0	0	0	0	0	0	0
031119	11:34:45	11:38:20	214884	5.0.10.0	4_exp_AWA_CON_EVA_AMP	159	Rpleas_acq	Oppo	Rpleas	Amasked	CS_A	2pleas	distractor2	CONbeforeEVA	acq_US_pleas_masked	acq2_masked	2	6	480	0	300	300	0	0	345	50	0	1	0	0	0	1	blank2r.bmp	0	1	+	0	6	C2r.bmp	492	1	blank2r.bmp	786	1	DHJF	786	1	blank2r.bmp	866	3	sonnig	866	1	!	-1	1	!	-1	0	0	0	0	0	0	0	0	0	0	0	0	0	0	0	0	0	0	0	0	0	0	0	0	0	0	0
031119	11:34:45	11:38:23	217243	5.0.10.0	4_exp_AWA_CON_EVA_AMP	159	Rpleas_acq	Oppo	Rpleas	Amasked	CS_A	2pleas	distractor2	CONbeforeEVA	acq_US_pleas_masked	acq2_masked	2	7	480	0	300	300	0	0	569	50	0	1	0	0	0	1	blank2r.bmp	0	1	+	0	5	C1r.bmp	492	1	blank2r.bmp	786	1	DHJF	786	1	blank2r.bmp	866	4	gütig	866	1	!	1319	1	!	-1	0	0	0	0	0	0	0	0	0	0	0	0	0	0	0	0	0	0	0	0	0	0	0	0	0	0	0
031119	11:34:45	11:38:25	219655	5.0.10.0	4_exp_AWA_CON_EVA_AMP	159	Rpleas_acq	Oppo	Rpleas	Amasked	CS_A	2pleas	distractor2	CONbeforeEVA	acq_new_unple_masked	acq2_masked	2	8	480	0	300	300	0	0	401	50	0	0	0	0	0	1	blank2r.bmp	0	1	+	0	4	B4r.bmp	492	1	blank2r.bmp	786	2	B2r.bmp	786	1	blank2r.bmp	866	6	bange	866	1	FEHLER	1612	1	!	-1	1	!	-1	0	0	0	0	0	0	0	0	0	0	0	0	0	0	0	0	0	0	0	0	0	0	0	0
031119	11:34:45	11:38:27	221815	5.0.10.0	4_exp_AWA_CON_EVA_AMP	159	Rpleas_acq	Oppo	Rpleas	Amasked	CS_A	2pleas	distractor2	CONbeforeEVA	acq_US_unple_masked	acq2_masked	2	9	480	0	300	300	0	0	608	46	0	1	0	0	0	1	blank2r.bmp	0	1	+	0	8	C4r.bmp	492	1	blank2r.bmp	786	1	CPLW	786	1	blank2r.bmp	866	5	geizig	866	1	!	1319	1	!	-1	0	0	0	0	0	0	0	0	0	0	0	0	0	0	0	0	0	0	0	0	0	0	0	0	0	0	0
031119	11:34:45	11:38:29	224054	5.0.10.0	4_exp_AWA_CON_EVA_AMP	159	Rpleas_acq	Oppo	Rpleas	Amasked	CS_A	2pleas	distractor2	CONbeforeEVA	acq_new_pleas_masked	acq2_masked	2	10	480	1	300	300	0	0	434	50	0	1	0	0	0	1	blank2r.bmp	0	1	+	0	7	C3r.bmp	492	1	blank2r.bmp	786	6	C2r.bmp	786	1	blank2r.bmp	866	6	besonnen	866	1	!	1319	1	!	1332	0	0	0	0	0	0	0	0	0	0	0	0	0	0	0	0	0	0	0	0	0	0	0	0	0	0	0
031119	11:34:45	11:38:32	226306	5.0.10.0	4_exp_AWA_CON_EVA_AMP	159	Rpleas_acq	Oppo	Rpleas	Amasked	CS_A	2pleas	distractor2	CONbeforeEVA	acq_new_pleas_masked	acq2_masked	2	11	480	1	300	300	0	0	446	50	0	1	0	0	0	1	blank2r.bmp	0	1	+	0	3	B3r.bmp	492	1	blank2r.bmp	786	1	B1r.bmp	786	1	blank2r.bmp	866	5	träumen	866	1	!	1319	1	!	1346	0	0	0	0	0	0	0	0	0	0	0	0	0	0	0	0	0	0	0	0	0	0	0	0	0	0	0
031119	11:34:45	11:38:34	228638	5.0.10.0	4_exp_AWA_CON_EVA_AMP	159	Rpleas_acq	Oppo	Rpleas	Amasked	CS_A	2pleas	distractor2	CONbeforeEVA	acq_new_unple_masked	acq2_masked	2	12	480	0	300	300	0	0	567	46	0	1	0	0	0	1	blank2r.bmp	0	1	+	0	2	B2r.bmp	492	1	blank2r.bmp	786	8	C4r.bmp	786	1	blank2r.bmp	866	2	krank	866	1	!	1319	1	!	-1	0	0	0	0	0	0	0	0	0	0	0	0	0	0	0	0	0	0	0	0	0	0	0	0	0	0	0
031119	11:34:45	11:38:36	231091	5.0.10.0	4_exp_AWA_CON_EVA_AMP	159	Rpleas_acq	Oppo	Rpleas	Amasked	CS_A	2pleas	distractor2	CONbeforeEVA	acq_new_pleas_masked	acq2_masked	2	13	480	0	300	300	0	0	665	50	0	1	0	0	0	1	blank2r.bmp	0	1	+	0	3	B3r.bmp	492	1	blank2r.bmp	786	1	B1r.bmp	786	1	blank2r.bmp	866	3	engagiert	866	1	!	1319	1	!	-1	0	0	0	0	0	0	0	0	0	0	0	0	0	0	0	0	0	0	0	0	0	0	0	0	0	0	0
031119	11:34:45	11:38:39	233556	5.0.10.0	4_exp_AWA_CON_EVA_AMP	159	Rpleas_acq	Oppo	Rpleas	Amasked	CS_A	2pleas	distractor2	CONbeforeEVA	acq_US_pleas_masked	acq2_masked	2	14	480	1	300	300	0	0	426	46	0	0	0	0	0	1	blank2r.bmp	0	1	+	0	6	C2r.bmp	492	1	blank2r.bmp	786	1	DHJF	786	1	blank2r.bmp	866	5	gesittet	866	1	FEHLER	1652	1	!	1319	1	!	1332	0	0	0	0	0	0	0	0	0	0	0	0	0	0	0	0	0	0	0	0	0	0	0	0
031119	11:34:45	11:38:41	235715	5.0.10.0	4_exp_AWA_CON_EVA_AMP	159	Rpleas_acq	Oppo	Rpleas	Amasked	CS_A	2pleas	distractor2	CONbeforeEVA	acq_US_pleas_masked	acq2_masked	2	15	480	0	300	300	0	0	608	50	0	1	0	0	0	1	blank2r.bmp	0	1	+	0	4	B4r.bmp	492	1	blank2r.bmp	786	1	DHJF	786	1	blank2r.bmp	866	6	anregung	866	1	!	1319	1	!	-1	0	0	0	0	0	0	0	0	0	0	0	0	0	0	0	0	0	0	0	0	0	0	0	0	0	0	0
031119	11:34:45	11:38:43	237955	5.0.10.0	4_exp_AWA_CON_EVA_AMP	159	Rpleas_acq	Oppo	Rpleas	Amasked	CS_A	2pleas	distractor2	CONbeforeEVA	acq_US_unple_masked	acq2_masked	2	16	480	1	300	300	0	0	426	46	0	1	0	0	0	1	blank2r.bmp	0	1	+	0	7	C3r.bmp	492	1	blank2r.bmp	786	1	CPLW	786	1	blank2r.bmp	866	1	gemein	866	1	!	1319	1	!	1332	0	0	0	0	0	0	0	0	0	0	0	0	0	0	0	0	0	0	0	0	0	0	0	0	0	0	0
031119	11:34:45	11:38:46	240287	5.0.10.0	4_exp_AWA_CON_EVA_AMP	159	Rpleas_acq	Oppo	Rpleas	Amasked	CS_A	2pleas	distractor2	CONbeforeEVA	acq_new_pleas_masked	acq2_masked	2	17	480	0	300	300	0	0	566	50	0	1	0	0	0	1	blank2r.bmp	0	1	+	0	2	B2r.bmp	492	1	blank2r.bmp	786	6	C2r.bmp	786	1	blank2r.bmp	866	2	kreativ	866	1	!	1319	1	!	-1	0	0	0	0	0	0	0	0	0	0	0	0	0	0	0	0	0	0	0	0	0	0	0	0	0	0	0
031119	11:34:45	11:38:48	242419	5.0.10.0	4_exp_AWA_CON_EVA_AMP	159	Rpleas_acq	Oppo	Rpleas	Amasked	CS_A	2pleas	distractor2	CONbeforeEVA	acq_US_pleas_masked	acq2_masked	2	18	480	0	300	300	0	0	347	50	0	1	0	0	0	1	blank2r.bmp	0	1	+	0	8	C4r.bmp	492	1	blank2r.bmp	786	1	DHJF	786	1	blank2r.bmp	866	3	sonnig	866	1	!	-1	1	!	-1	0	0	0	0	0	0	0	0	0	0	0	0	0	0	0	0	0	0	0	0	0	0	0	0	0	0	0
031119	11:34:45	11:38:50	244765	5.0.10.0	4_exp_AWA_CON_EVA_AMP	159	Rpleas_acq	Oppo	Rpleas	Amasked	CS_A	2pleas	distractor2	CONbeforeEVA	acq_new_pleas_masked	acq2_masked	2	19	480	0	300	300	0	0	559	50	0	1	0	0	0	1	blank2r.bmp	0	1	+	0	5	C1r.bmp	492	1	blank2r.bmp	786	4	B4r.bmp	786	1	blank2r.bmp	866	6	besonnen	866	1	!	1319	1	!	-1	0	0	0	0	0	0	0	0	0	0	0	0	0	0	0	0	0	0	0	0	0	0	0	0	0	0	0
031119	11:34:45	11:38:52	247071	5.0.10.0	4_exp_AWA_CON_EVA_AMP	159	Rpleas_acq	Oppo	Rpleas	Amasked	CS_A	2pleas	distractor2	CONbeforeEVA	acq_new_unple_masked	acq2_masked	2	20	480	1	300	300	0	0	492	46	0	1	0	0	0	1	blank2r.bmp	0	1	+	0	1	B1r.bmp	492	1	blank2r.bmp	786	7	C3r.bmp	786	1	blank2r.bmp	866	6	bange	866	1	!	1319	1	!	1399	0	0	0	0	0	0	0	0	0	0	0	0	0	0	0	0	0	0	0	0	0	0	0	0	0	0	0
031119	11:34:45	11:38:55	249363	5.0.10.0	4_exp_AWA_CON_EVA_AMP	159	Rpleas_acq	Oppo	Rpleas	Amasked	CS_A	2pleas	distractor2	CONbeforeEVA	acq_new_unple_masked	acq2_masked	2	21	480	1	300	300	0	0	499	46	0	1	0	0	0	1	blank2r.bmp	0	1	+	0	6	C2r.bmp	492	1	blank2r.bmp	786	5	C1r.bmp	786	1	blank2r.bmp	866	5	töten	866	1	!	1319	1	!	1399	0	0	0	0	0	0	0	0	0	0	0	0	0	0	0	0	0	0	0	0	0	0	0	0	0	0	0
031119	11:34:45	11:38:57	251656	5.0.10.0	4_exp_AWA_CON_EVA_AMP	159	Rpleas_acq	Oppo	Rpleas	Amasked	CS_A	2pleas	distractor2	CONbeforeEVA	acq_US_unple_masked	acq2_masked	2	22	480	1	300	300	0	0	497	46	0	1	0	0	0	1	blank2r.bmp	0	1	+	0	4	B4r.bmp	492	1	blank2r.bmp	786	1	CPLW	786	1	blank2r.bmp	866	6	ausrottung	866	1	!	1319	1	!	1399	0	0	0	0	0	0	0	0	0	0	0	0	0	0	0	0	0	0	0	0	0	0	0	0	0	0	0
031119	11:34:45	11:38:59	254001	5.0.10.0	4_exp_AWA_CON_EVA_AMP	159	Rpleas_acq	Oppo	Rpleas	Amasked	CS_A	2pleas	distractor2	CONbeforeEVA	acq_new_unple_masked	acq2_masked	2	23	480	0	300	300	0	0	580	46	0	1	0	0	0	1	blank2r.bmp	0	1	+	0	8	C4r.bmp	492	1	blank2r.bmp	786	2	B2r.bmp	786	1	blank2r.bmp	866	3	engstirnig	866	1	!	1319	1	!	-1	0	0	0	0	0	0	0	0	0	0	0	0	0	0	0	0	0	0	0	0	0	0	0	0	0	0	0
031119	11:34:45	11:39:02	256400	5.0.10.0	4_exp_AWA_CON_EVA_AMP	159	Rpleas_acq	Oppo	Rpleas	Amasked	CS_A	2pleas	distractor2	CONbeforeEVA	acq_US_unple_masked	acq2_masked	2	24	480	0	300	300	0	0	386	50	0	0	0	0	0	1	blank2r.bmp	0	1	+	0	2	B2r.bmp	492	1	blank2r.bmp	786	1	CPLW	786	1	blank2r.bmp	866	4	gierig	866	1	FEHLER	1599	1	!	-1	1	!	-1	0	0	0	0	0	0	0	0	0	0	0	0	0	0	0	0	0	0	0	0	0	0	0	0
031119	11:34:45	11:39:04	258466	5.0.10.0	4_exp_AWA_CON_EVA_AMP	159	Rpleas_acq	Oppo	Rpleas	Amasked	CS_A	2pleas	distractor2	CONbeforeEVA	acq_US_pleas_masked	acq2_masked	2	25	480	1	300	300	0	0	490	50	0	1	0	0	0	1	blank2r.bmp	0	1	+	0	3	B3r.bmp	492	1	blank2r.bmp	786	1	DHJF	786	1	blank2r.bmp	866	2	vertrauen	866	1	!	1319	1	!	1386	0	0	0	0	0	0	0	0	0	0	0	0	0	0	0	0	0	0	0	0	0	0	0	0	0	0	0
031119	11:34:45	11:39:06	260545	5.0.10.0	4_exp_AWA_CON_EVA_AMP	159	Rpleas_acq	Oppo	Rpleas	Amasked	CS_A	2pleas	distractor2	CONbeforeEVA	acq_US_pleas_masked	acq2_masked	2	26	480	0	300	300	0	0	301	50	0	1	0	0	0	1	blank2r.bmp	0	1	+	0	7	C3r.bmp	492	1	blank2r.bmp	786	1	DHJF	786	1	blank2r.bmp	866	1	genießen	866	1	!	-1	1	!	-1	0	0	0	0	0	0	0	0	0	0	0	0	0	0	0	0	0	0	0	0	0	0	0	0	0	0	0
031119	11:34:45	11:39:08	262931	5.0.10.0	4_exp_AWA_CON_EVA_AMP	159	Rpleas_acq	Oppo	Rpleas	Amasked	CS_A	2pleas	distractor2	CONbeforeEVA	acq_US_pleas_masked	acq2_masked	2	27	480	0	300	300	0	0	366	46	0	0	0	0	0	1	blank2r.bmp	0	1	+	0	1	B1r.bmp	492	1	blank2r.bmp	786	1	DHJF	786	1	blank2r.bmp	866	4	gütig	866	1	FEHLER	1572	1	!	-1	1	!	-1	0	0	0	0	0	0	0	0	0	0	0	0	0	0	0	0	0	0	0	0	0	0	0	0
031119	11:34:45	11:39:10	264863	5.0.10.0	4_exp_AWA_CON_EVA_AMP	159	Rpleas_acq	Oppo	Rpleas	Amasked	CS_A	2pleas	distractor2	CONbeforeEVA	acq_new_pleas_masked	acq2_masked	2	28	480	0	300	300	0	0	381	50	0	1	0	0	0	1	blank2r.bmp	0	1	+	0	5	C1r.bmp	492	1	blank2r.bmp	786	3	B3r.bmp	786	1	blank2r.bmp	866	1	kuss	866	1	!	-1	1	!	-1	0	0	0	0	0	0	0	0	0	0	0	0	0	0	0	0	0	0	0	0	0	0	0	0	0	0	0
031119	11:34:45	11:39:13	267262	5.0.10.0	4_exp_AWA_CON_EVA_AMP	159	Rpleas_acq	Oppo	Rpleas	Amasked	CS_A	2pleas	distractor2	CONbeforeEVA	acq_new_unple_masked	acq2_masked	2	29	480	0	300	300	0	0	624	46	0	1	0	0	0	1	blank2r.bmp	0	1	+	0	8	C4r.bmp	492	1	blank2r.bmp	786	8	C4r.bmp	786	1	blank2r.bmp	866	1	krise	866	1	!	1319	1	!	-1	0	0	0	0	0	0	0	0	0	0	0	0	0	0	0	0	0	0	0	0	0	0	0	0	0	0	0
031119	11:34:45	11:39:15	269502	5.0.10.0	4_exp_AWA_CON_EVA_AMP	159	Rpleas_acq	Oppo	Rpleas	Amasked	CS_A	2pleas	distractor2	CONbeforeEVA	acq_new_unple_masked	acq2_masked	2	30	480	1	300	300	0	0	430	46	0	1	0	0	0	1	blank2r.bmp	0	1	+	0	5	C1r.bmp	492	1	blank2r.bmp	786	2	B2r.bmp	786	1	blank2r.bmp	866	4	verbissen	866	1	!	1319	1	!	1332	0	0	0	0	0	0	0	0	0	0	0	0	0	0	0	0	0	0	0	0	0	0	0	0	0	0	0
031119	11:34:45	11:39:17	271541	5.0.10.0	4_exp_AWA_CON_EVA_AMP	159	Rpleas_acq	Oppo	Rpleas	Amasked	CS_A	2pleas	distractor2	CONbeforeEVA	acq_US_unple_masked	acq2_masked	2	31	480	0	300	300	0	0	277	46	0	1	0	0	0	1	blank2r.bmp	0	1	+	0	1	B1r.bmp	492	1	blank2r.bmp	786	1	CPLW	786	1	blank2r.bmp	866	5	geizig	866	1	!	-1	1	!	-1	0	0	0	0	0	0	0	0	0	0	0	0	0	0	0	0	0	0	0	0	0	0	0	0	0	0	0
031119	11:34:45	11:39:19	273806	5.0.10.0	4_exp_AWA_CON_EVA_AMP	159	Rpleas_acq	Oppo	Rpleas	Amasked	CS_A	2pleas	distractor2	CONbeforeEVA	acq_new_pleas_masked	acq2_masked	2	32	480	1	300	300	0	0	458	50	0	1	0	0	0	1	blank2r.bmp	0	1	+	0	4	B4r.bmp	492	1	blank2r.bmp	786	7	C3r.bmp	786	1	blank2r.bmp	866	4	vergnügt	866	1	!	1319	1	!	1359	0	0	0	0	0	0	0	0	0	0	0	0	0	0	0	0	0	0	0	0	0	0	0	0	0	0	0
031119	11:34:45	11:39:21	276072	5.0.10.0	4_exp_AWA_CON_EVA_AMP	159	Rpleas_acq	Oppo	Rpleas	Amasked	CS_A	2pleas	distractor2	CONbeforeEVA	acq_US_unple_masked	acq2_masked	2	33	480	1	300	300	0	0	466	46	0	1	0	0	0	1	blank2r.bmp	0	1	+	0	6	C2r.bmp	492	1	blank2r.bmp	786	1	CPLW	786	1	blank2r.bmp	866	3	sterben	866	1	!	1319	1	!	1372	0	0	0	0	0	0	0	0	0	0	0	0	0	0	0	0	0	0	0	0	0	0	0	0	0	0	0
031119	11:34:45	11:39:24	278391	5.0.10.0	4_exp_AWA_CON_EVA_AMP	159	Rpleas_acq	Oppo	Rpleas	Amasked	CS_A	2pleas	distractor2	CONbeforeEVA	acq_US_unple_masked	acq2_masked	2	34	480	1	300	300	0	0	531	46	0	1	0	0	0	1	blank2r.bmp	0	1	+	0	3	B3r.bmp	492	1	blank2r.bmp	786	1	CPLW	786	1	blank2r.bmp	866	2	versagen	866	1	!	1319	1	!	1426	0	0	0	0	0	0	0	0	0	0	0	0	0	0	0	0	0	0	0	0	0	0	0	0	0	0	0
031119	11:34:45	11:39:26	280630	5.0.10.0	4_exp_AWA_CON_EVA_AMP	159	Rpleas_acq	Oppo	Rpleas	Amasked	CS_A	2pleas	distractor2	CONbeforeEVA	acq_new_pleas_masked	acq2_masked	2	35	480	1	300	300	0	0	442	50	0	1	0	0	0	1	blank2r.bmp	0	1	+	0	7	C3r.bmp	492	1	blank2r.bmp	786	8	C4r.bmp	786	1	blank2r.bmp	866	5	träumen	866	1	!	1319	1	!	1346	0	0	0	0	0	0	0	0	0	0	0	0	0	0	0	0	0	0	0	0	0	0	0	0	0	0	0
031119	11:34:45	11:39:28	282896	5.0.10.0	4_exp_AWA_CON_EVA_AMP	159	Rpleas_acq	Oppo	Rpleas	Amasked	CS_A	2pleas	distractor2	CONbeforeEVA	acq_new_unple_masked	acq2_masked	2	36	480	1	300	300	0	0	477	46	0	1	0	0	0	1	blank2r.bmp	0	1	+	0	2	B2r.bmp	492	1	blank2r.bmp	786	5	C1r.bmp	786	1	blank2r.bmp	866	2	krank	866	1	!	1319	1	!	1372	0	0	0	0	0	0	0	0	0	0	0	0	0	0	0	0	0	0	0	0	0	0	0	0	0	0	0
031119	11:34:45	11:39:48	302408	5.0.10.0	4_exp_AWA_CON_EVA_AMP	159	Rpleas_acq	Oppo	Rpleas	Amasked	CS_A	2pleas	distractor2	CONbeforeEVA	acq_US_pleas_masked	acq3_masked	3	1	453	0	300	300	0	0	533	46	0	0	0	0	0	1	blank2r.bmp	0	1	+	0	4	B4r.bmp	492	1	blank2r.bmp	786	1	DHJF	786	1	blank2r.bmp	866	5	gesittet	866	1	FEHLER	1745	1	!	1292	1	!	-1	0	0	0	0	0	0	0	0	0	0	0	0	0	0	0	0	0	0	0	0	0	0	0	0
031119	11:34:45	11:39:50	304394	5.0.10.0	4_exp_AWA_CON_EVA_AMP	159	Rpleas_acq	Oppo	Rpleas	Amasked	CS_A	2pleas	distractor2	CONbeforeEVA	acq_US_unple_masked	acq3_masked	3	2	453	1	300	300	0	0	399	46	0	1	0	0	0	1	blank2r.bmp	0	1	+	0	8	C4r.bmp	492	1	blank2r.bmp	786	1	CPLW	786	1	blank2r.bmp	866	2	versagen	866	1	!	1292	1	!	1306	0	0	0	0	0	0	0	0	0	0	0	0	0	0	0	0	0	0	0	0	0	0	0	0	0	0	0
031119	11:34:45	11:39:52	306500	5.0.10.0	4_exp_AWA_CON_EVA_AMP	159	Rpleas_acq	Oppo	Rpleas	Amasked	CS_A	2pleas	distractor2	CONbeforeEVA	acq_US_pleas_masked	acq3_masked	3	3	453	0	300	300	0	0	328	50	0	1	0	0	0	1	blank2r.bmp	0	1	+	0	6	C2r.bmp	492	1	blank2r.bmp	786	1	DHJF	786	1	blank2r.bmp	866	3	sonnig	866	1	!	-1	1	!	-1	0	0	0	0	0	0	0	0	0	0	0	0	0	0	0	0	0	0	0	0	0	0	0	0	0	0	0
031119	11:34:45	11:39:54	308579	5.0.10.0	4_exp_AWA_CON_EVA_AMP	159	Rpleas_acq	Oppo	Rpleas	Amasked	CS_A	2pleas	distractor2	CONbeforeEVA	acq_US_pleas_masked	acq3_masked	3	4	453	0	300	300	0	0	304	50	0	1	0	0	0	1	blank2r.bmp	0	1	+	0	7	C3r.bmp	492	1	blank2r.bmp	786	1	DHJF	786	1	blank2r.bmp	866	4	gütig	866	1	!	-1	1	!	-1	0	0	0	0	0	0	0	0	0	0	0	0	0	0	0	0	0	0	0	0	0	0	0	0	0	0	0
031119	11:34:45	11:39:56	310898	5.0.10.0	4_exp_AWA_CON_EVA_AMP	159	Rpleas_acq	Oppo	Rpleas	Amasked	CS_A	2pleas	distractor2	CONbeforeEVA	acq_US_unple_masked	acq3_masked	3	5	453	1	300	300	0	0	515	46	0	1	0	0	0	1	blank2r.bmp	0	1	+	0	3	B3r.bmp	492	1	blank2r.bmp	786	1	CPLW	786	1	blank2r.bmp	866	6	ausrottung	866	1	!	1292	1	!	1412	0	0	0	0	0	0	0	0	0	0	0	0	0	0	0	0	0	0	0	0	0	0	0	0	0	0	0
031119	11:34:45	11:39:59	313270	5.0.10.0	4_exp_AWA_CON_EVA_AMP	159	Rpleas_acq	Oppo	Rpleas	Amasked	CS_A	2pleas	distractor2	CONbeforeEVA	acq_US_pleas_masked	acq3_masked	3	6	453	0	300	300	0	0	363	46	0	0	0	0	0	1	blank2r.bmp	0	1	+	0	5	C1r.bmp	492	1	blank2r.bmp	786	1	DHJF	786	1	blank2r.bmp	866	6	anregung	866	1	FEHLER	1572	1	!	-1	1	!	-1	0	0	0	0	0	0	0	0	0	0	0	0	0	0	0	0	0	0	0	0	0	0	0	0
031119	11:34:45	11:40:01	315389	5.0.10.0	4_exp_AWA_CON_EVA_AMP	159	Rpleas_acq	Oppo	Rpleas	Amasked	CS_A	2pleas	distractor2	CONbeforeEVA	acq_US_pleas_masked	acq3_masked	3	7	453	0	300	300	0	0	343	46	0	0	0	0	0	1	blank2r.bmp	0	1	+	0	2	B2r.bmp	492	1	blank2r.bmp	786	1	DHJF	786	1	blank2r.bmp	866	2	vertrauen	866	1	FEHLER	1546	1	!	-1	1	!	-1	0	0	0	0	0	0	0	0	0	0	0	0	0	0	0	0	0	0	0	0	0	0	0	0
031119	11:34:45	11:40:03	317522	5.0.10.0	4_exp_AWA_CON_EVA_AMP	159	Rpleas_acq	Oppo	Rpleas	Amasked	CS_A	2pleas	distractor2	CONbeforeEVA	acq_US_unple_masked	acq3_masked	3	8	453	0	300	300	0	0	353	50	0	0	0	0	0	1	blank2r.bmp	0	1	+	0	1	B1r.bmp	492	1	blank2r.bmp	786	1	CPLW	786	1	blank2r.bmp	866	4	gierig	866	1	FEHLER	1559	1	!	-1	1	!	-1	0	0	0	0	0	0	0	0	0	0	0	0	0	0	0	0	0	0	0	0	0	0	0	0
031119	11:34:45	11:40:08	322253	5.0.10.0	4_exp_AWA_CON_EVA_AMP	159	Rpleas_acq	Oppo	Rpleas	Amasked	CS_A	2pleas	distractor2	CONbeforeEVA	acq_US_unple_masked	acq3_masked	3	9	453	0	300	300	0	0	2933	50	0	0	0	0	0	1	blank2r.bmp	0	1	+	0	4	B4r.bmp	492	1	blank2r.bmp	786	1	CPLW	786	1	blank2r.bmp	866	1	gemein	866	1	FEHLER	4144	1	!	1292	1	!	-1	0	0	0	0	0	0	0	0	0	0	0	0	0	0	0	0	0	0	0	0	0	0	0	0
031119	11:34:45	11:40:10	324346	5.0.10.0	4_exp_AWA_CON_EVA_AMP	159	Rpleas_acq	Oppo	Rpleas	Amasked	CS_A	2pleas	distractor2	CONbeforeEVA	acq_US_pleas_masked	acq3_masked	3	10	453	1	300	300	0	0	516	50	0	1	0	0	0	1	blank2r.bmp	0	1	+	0	1	B1r.bmp	492	1	blank2r.bmp	786	1	DHJF	786	1	blank2r.bmp	866	1	genießen	866	1	!	1292	1	!	1412	0	0	0	0	0	0	0	0	0	0	0	0	0	0	0	0	0	0	0	0	0	0	0	0	0	0	0
031119	11:34:45	11:40:12	326651	5.0.10.0	4_exp_AWA_CON_EVA_AMP	159	Rpleas_acq	Oppo	Rpleas	Amasked	CS_A	2pleas	distractor2	CONbeforeEVA	acq_US_unple_masked	acq3_masked	3	11	453	1	300	300	0	0	500	46	0	1	0	0	0	1	blank2r.bmp	0	1	+	0	8	C4r.bmp	492	1	blank2r.bmp	786	1	CPLW	786	1	blank2r.bmp	866	3	sterben	866	1	!	1292	1	!	1399	0	0	0	0	0	0	0	0	0	0	0	0	0	0	0	0	0	0	0	0	0	0	0	0	0	0	0
031119	11:34:45	11:40:14	329024	5.0.10.0	4_exp_AWA_CON_EVA_AMP	159	Rpleas_acq	Oppo	Rpleas	Amasked	CS_A	2pleas	distractor2	CONbeforeEVA	acq_US_unple_masked	acq3_masked	3	12	453	0	300	300	0	0	382	50	0	0	0	0	0	1	blank2r.bmp	0	1	+	0	5	C1r.bmp	492	1	blank2r.bmp	786	1	CPLW	786	1	blank2r.bmp	866	5	geizig	866	1	FEHLER	1586	1	!	-1	1	!	-1	0	0	0	0	0	0	0	0	0	0	0	0	0	0	0	0	0	0	0	0	0	0	0	0
031119	11:34:45	11:40:16	331103	5.0.10.0	4_exp_AWA_CON_EVA_AMP	159	Rpleas_acq	Oppo	Rpleas	Amasked	CS_A	2pleas	distractor2	CONbeforeEVA	acq_US_pleas_masked	acq3_masked	3	13	453	1	300	300	0	0	500	50	0	1	0	0	0	1	blank2r.bmp	0	1	+	0	7	C3r.bmp	492	1	blank2r.bmp	786	1	DHJF	786	1	blank2r.bmp	866	5	gesittet	866	1	!	1292	1	!	1399	0	0	0	0	0	0	0	0	0	0	0	0	0	0	0	0	0	0	0	0	0	0	0	0	0	0	0
031119	11:34:45	11:40:19	333422	5.0.10.0	4_exp_AWA_CON_EVA_AMP	159	Rpleas_acq	Oppo	Rpleas	Amasked	CS_A	2pleas	distractor2	CONbeforeEVA	acq_US_unple_masked	acq3_masked	3	14	453	1	300	300	0	0	519	46	0	1	0	0	0	1	blank2r.bmp	0	1	+	0	2	B2r.bmp	492	1	blank2r.bmp	786	1	CPLW	786	1	blank2r.bmp	866	2	versagen	866	1	!	1292	1	!	1426	0	0	0	0	0	0	0	0	0	0	0	0	0	0	0	0	0	0	0	0	0	0	0	0	0	0	0
031119	11:34:45	11:40:21	335661	5.0.10.0	4_exp_AWA_CON_EVA_AMP	159	Rpleas_acq	Oppo	Rpleas	Amasked	CS_A	2pleas	distractor2	CONbeforeEVA	acq_US_pleas_masked	acq3_masked	3	15	453	1	300	300	0	0	447	50	0	1	0	0	0	1	blank2r.bmp	0	1	+	0	6	C2r.bmp	492	1	blank2r.bmp	786	1	DHJF	786	1	blank2r.bmp	866	2	vertrauen	866	1	!	1292	1	!	1346	0	0	0	0	0	0	0	0	0	0	0	0	0	0	0	0	0	0	0	0	0	0	0	0	0	0	0
031119	11:34:45	11:40:23	337980	5.0.10.0	4_exp_AWA_CON_EVA_AMP	159	Rpleas_acq	Oppo	Rpleas	Amasked	CS_A	2pleas	distractor2	CONbeforeEVA	acq_US_unple_masked	acq3_masked	3	16	453	0	300	300	0	0	554	46	0	1	0	0	0	1	blank2r.bmp	0	1	+	0	3	B3r.bmp	492	1	blank2r.bmp	786	1	CPLW	786	1	blank2r.bmp	866	4	gierig	866	1	!	1292	1	!	-1	0	0	0	0	0	0	0	0	0	0	0	0	0	0	0	0	0	0	0	0	0	0	0	0	0	0	0
031119	11:34:45	11:40:26	340432	5.0.10.0	4_exp_AWA_CON_EVA_AMP	159	Rpleas_acq	Oppo	Rpleas	Amasked	CS_A	2pleas	distractor2	CONbeforeEVA	acq_US_unple_masked	acq3_masked	3	17	453	1	300	300	0	0	435	50	0	0	0	0	0	1	blank2r.bmp	0	1	+	0	1	B1r.bmp	492	1	blank2r.bmp	786	1	CPLW	786	1	blank2r.bmp	866	1	gemein	866	1	FEHLER	1652	1	!	1292	1	!	1332	0	0	0	0	0	0	0	0	0	0	0	0	0	0	0	0	0	0	0	0	0	0	0	0
031119	11:34:45	11:40:28	342538	5.0.10.0	4_exp_AWA_CON_EVA_AMP	159	Rpleas_acq	Oppo	Rpleas	Amasked	CS_A	2pleas	distractor2	CONbeforeEVA	acq_US_unple_masked	acq3_masked	3	18	453	0	300	300	0	0	549	46	0	1	0	0	0	1	blank2r.bmp	0	1	+	0	7	C3r.bmp	492	1	blank2r.bmp	786	1	CPLW	786	1	blank2r.bmp	866	6	ausrottung	866	1	!	1292	1	!	-1	0	0	0	0	0	0	0	0	0	0	0	0	0	0	0	0	0	0	0	0	0	0	0	0	0	0	0
031119	11:34:45	11:40:30	344990	5.0.10.0	4_exp_AWA_CON_EVA_AMP	159	Rpleas_acq	Oppo	Rpleas	Amasked	CS_A	2pleas	distractor2	CONbeforeEVA	acq_US_pleas_masked	acq3_masked	3	19	453	0	300	300	0	0	658	50	0	1	0	0	0	1	blank2r.bmp	0	1	+	0	3	B3r.bmp	492	1	blank2r.bmp	786	1	DHJF	786	1	blank2r.bmp	866	6	anregung	866	1	!	1292	1	!	-1	0	0	0	0	0	0	0	0	0	0	0	0	0	0	0	0	0	0	0	0	0	0	0	0	0	0	0
031119	11:34:45	11:40:33	347256	5.0.10.0	4_exp_AWA_CON_EVA_AMP	159	Rpleas_acq	Oppo	Rpleas	Amasked	CS_A	2pleas	distractor2	CONbeforeEVA	acq_US_pleas_masked	acq3_masked	3	20	453	1	300	300	0	0	460	50	0	1	0	0	0	1	blank2r.bmp	0	1	+	0	5	C1r.bmp	492	1	blank2r.bmp	786	1	DHJF	786	1	blank2r.bmp	866	1	genießen	866	1	!	1292	1	!	1359	0	0	0	0	0	0	0	0	0	0	0	0	0	0	0	0	0	0	0	0	0	0	0	0	0	0	0
031119	11:34:45	11:40:35	349402	5.0.10.0	4_exp_AWA_CON_EVA_AMP	159	Rpleas_acq	Oppo	Rpleas	Amasked	CS_A	2pleas	distractor2	CONbeforeEVA	acq_US_pleas_masked	acq3_masked	3	21	453	0	300	300	0	0	373	50	0	1	0	0	0	1	blank2r.bmp	0	1	+	0	6	C2r.bmp	492	1	blank2r.bmp	786	1	DHJF	786	1	blank2r.bmp	866	4	gütig	866	1	!	-1	1	!	-1	0	0	0	0	0	0	0	0	0	0	0	0	0	0	0	0	0	0	0	0	0	0	0	0	0	0	0
031119	11:34:45	11:40:37	351721	5.0.10.0	4_exp_AWA_CON_EVA_AMP	159	Rpleas_acq	Oppo	Rpleas	Amasked	CS_A	2pleas	distractor2	CONbeforeEVA	acq_US_unple_masked	acq3_masked	3	22	453	1	300	300	0	0	501	46	0	1	0	0	0	1	blank2r.bmp	0	1	+	0	2	B2r.bmp	492	1	blank2r.bmp	786	1	CPLW	786	1	blank2r.bmp	866	5	geizig	866	1	!	1292	1	!	1399	0	0	0	0	0	0	0	0	0	0	0	0	0	0	0	0	0	0	0	0	0	0	0	0	0	0	0
031119	11:34:45	11:40:39	353813	5.0.10.0	4_exp_AWA_CON_EVA_AMP	159	Rpleas_acq	Oppo	Rpleas	Amasked	CS_A	2pleas	distractor2	CONbeforeEVA	acq_US_unple_masked	acq3_masked	3	23	453	0	300	300	0	0	328	46	0	1	0	0	0	1	blank2r.bmp	0	1	+	0	8	C4r.bmp	492	1	blank2r.bmp	786	1	CPLW	786	1	blank2r.bmp	866	3	sterben	866	1	!	-1	1	!	-1	0	0	0	0	0	0	0	0	0	0	0	0	0	0	0	0	0	0	0	0	0	0	0	0	0	0	0
031119	11:34:45	11:40:41	356133	5.0.10.0	4_exp_AWA_CON_EVA_AMP	159	Rpleas_acq	Oppo	Rpleas	Amasked	CS_A	2pleas	distractor2	CONbeforeEVA	acq_US_pleas_masked	acq3_masked	3	24	453	0	300	300	0	0	540	50	0	1	0	0	0	1	blank2r.bmp	0	1	+	0	4	B4r.bmp	492	1	blank2r.bmp	786	1	DHJF	786	1	blank2r.bmp	866	3	sonnig	866	1	!	1292	1	!	-1	0	0	0	0	0	0	0	0	0	0	0	0	0	0	0	0	0	0	0	0	0	0	0	0	0	0	0
031119	11:34:45	11:40:44	358452	5.0.10.0	4_exp_AWA_CON_EVA_AMP	159	Rpleas_acq	Oppo	Rpleas	Amasked	CS_A	2pleas	distractor2	CONbeforeEVA	acq_US_unple_masked	acq3_masked	3	25	453	1	300	300	0	0	511	46	0	1	0	0	0	1	blank2r.bmp	0	1	+	0	8	C4r.bmp	492	1	blank2r.bmp	786	1	CPLW	786	1	blank2r.bmp	866	2	versagen	866	1	!	1292	1	!	1412	0	0	0	0	0	0	0	0	0	0	0	0	0	0	0	0	0	0	0	0	0	0	0	0	0	0	0
031119	11:34:45	11:40:46	360611	5.0.10.0	4_exp_AWA_CON_EVA_AMP	159	Rpleas_acq	Oppo	Rpleas	Amasked	CS_A	2pleas	distractor2	CONbeforeEVA	acq_US_pleas_masked	acq3_masked	3	26	453	0	300	300	0	0	386	50	0	1	0	0	0	1	blank2r.bmp	0	1	+	0	4	B4r.bmp	492	1	blank2r.bmp	786	1	DHJF	786	1	blank2r.bmp	866	4	gütig	866	1	!	-1	1	!	-1	0	0	0	0	0	0	0	0	0	0	0	0	0	0	0	0	0	0	0	0	0	0	0	0	0	0	0
031119	11:34:45	11:40:48	362903	5.0.10.0	4_exp_AWA_CON_EVA_AMP	159	Rpleas_acq	Oppo	Rpleas	Amasked	CS_A	2pleas	distractor2	CONbeforeEVA	acq_US_pleas_masked	acq3_masked	3	27	453	1	300	300	0	0	487	50	0	1	0	0	0	1	blank2r.bmp	0	1	+	0	2	B2r.bmp	492	1	blank2r.bmp	786	1	DHJF	786	1	blank2r.bmp	866	2	vertrauen	866	1	!	1292	1	!	1386	0	0	0	0	0	0	0	0	0	0	0	0	0	0	0	0	0	0	0	0	0	0	0	0	0	0	0
031119	11:34:45	11:40:50	365036	5.0.10.0	4_exp_AWA_CON_EVA_AMP	159	Rpleas_acq	Oppo	Rpleas	Amasked	CS_A	2pleas	distractor2	CONbeforeEVA	acq_US_pleas_masked	acq3_masked	3	28	453	0	300	300	0	0	370	50	0	1	0	0	0	1	blank2r.bmp	0	1	+	0	7	C3r.bmp	492	1	blank2r.bmp	786	1	DHJF	786	1	blank2r.bmp	866	6	anregung	866	1	!	-1	1	!	-1	0	0	0	0	0	0	0	0	0	0	0	0	0	0	0	0	0	0	0	0	0	0	0	0	0	0	0
031119	11:34:45	11:40:52	367181	5.0.10.0	4_exp_AWA_CON_EVA_AMP	159	Rpleas_acq	Oppo	Rpleas	Amasked	CS_A	2pleas	distractor2	CONbeforeEVA	acq_US_unple_masked	acq3_masked	3	29	453	0	300	300	0	0	365	46	0	1	0	0	0	1	blank2r.bmp	0	1	+	0	3	B3r.bmp	492	1	blank2r.bmp	786	1	CPLW	786	1	blank2r.bmp	866	3	sterben	866	1	!	-1	1	!	-1	0	0	0	0	0	0	0	0	0	0	0	0	0	0	0	0	0	0	0	0	0	0	0	0	0	0	0
031119	11:34:45	11:40:55	369500	5.0.10.0	4_exp_AWA_CON_EVA_AMP	159	Rpleas_acq	Oppo	Rpleas	Amasked	CS_A	2pleas	distractor2	CONbeforeEVA	acq_US_pleas_masked	acq3_masked	3	30	453	0	300	300	0	0	532	50	0	1	0	0	0	1	blank2r.bmp	0	1	+	0	6	C2r.bmp	492	1	blank2r.bmp	786	1	DHJF	786	1	blank2r.bmp	866	1	genießen	866	1	!	1292	1	!	-1	0	0	0	0	0	0	0	0	0	0	0	0	0	0	0	0	0	0	0	0	0	0	0	0	0	0	0
031119	11:34:45	11:40:57	371939	5.0.10.0	4_exp_AWA_CON_EVA_AMP	159	Rpleas_acq	Oppo	Rpleas	Amasked	CS_A	2pleas	distractor2	CONbeforeEVA	acq_US_pleas_masked	acq3_masked	3	31	453	1	300	300	0	0	419	46	0	0	0	0	0	1	blank2r.bmp	0	1	+	0	5	C1r.bmp	492	1	blank2r.bmp	786	1	DHJF	786	1	blank2r.bmp	866	5	gesittet	866	1	FEHLER	1639	1	!	1292	1	!	1319	0	0	0	0	0	0	0	0	0	0	0	0	0	0	0	0	0	0	0	0	0	0	0	0
031119	11:34:45	11:40:59	373885	5.0.10.0	4_exp_AWA_CON_EVA_AMP	159	Rpleas_acq	Oppo	Rpleas	Amasked	CS_A	2pleas	distractor2	CONbeforeEVA	acq_US_pleas_masked	acq3_masked	3	32	453	0	300	300	0	0	385	50	0	1	0	0	0	1	blank2r.bmp	0	1	+	0	1	B1r.bmp	492	1	blank2r.bmp	786	1	DHJF	786	1	blank2r.bmp	866	3	sonnig	866	1	!	-1	1	!	-1	0	0	0	0	0	0	0	0	0	0	0	0	0	0	0	0	0	0	0	0	0	0	0	0	0	0	0
031119	11:34:45	11:41:02	376258	5.0.10.0	4_exp_AWA_CON_EVA_AMP	159	Rpleas_acq	Oppo	Rpleas	Amasked	CS_A	2pleas	distractor2	CONbeforeEVA	acq_US_unple_masked	acq3_masked	3	33	453	0	300	300	0	0	590	46	0	1	0	0	0	1	blank2r.bmp	0	1	+	0	5	C1r.bmp	492	1	blank2r.bmp	786	1	CPLW	786	1	blank2r.bmp	866	5	geizig	866	1	!	1292	1	!	-1	0	0	0	0	0	0	0	0	0	0	0	0	0	0	0	0	0	0	0	0	0	0	0	0	0	0	0
031119	11:34:45	11:41:04	378550	5.0.10.0	4_exp_AWA_CON_EVA_AMP	159	Rpleas_acq	Oppo	Rpleas	Amasked	CS_A	2pleas	distractor2	CONbeforeEVA	acq_US_unple_masked	acq3_masked	3	34	453	1	300	300	0	0	487	46	0	1	0	0	0	1	blank2r.bmp	0	1	+	0	2	B2r.bmp	492	1	blank2r.bmp	786	1	CPLW	786	1	blank2r.bmp	866	6	ausrottung	866	1	!	1292	1	!	1386	0	0	0	0	0	0	0	0	0	0	0	0	0	0	0	0	0	0	0	0	0	0	0	0	0	0	0
031119	11:34:45	11:41:06	380962	5.0.10.0	4_exp_AWA_CON_EVA_AMP	159	Rpleas_acq	Oppo	Rpleas	Amasked	CS_A	2pleas	distractor2	CONbeforeEVA	acq_US_unple_masked	acq3_masked	3	35	453	1	300	300	0	0	403	50	0	0	0	0	0	1	blank2r.bmp	0	1	+	0	7	C3r.bmp	492	1	blank2r.bmp	786	1	CPLW	786	1	blank2r.bmp	866	1	gemein	866	1	FEHLER	1625	1	!	1292	1	!	1306	0	0	0	0	0	0	0	0	0	0	0	0	0	0	0	0	0	0	0	0	0	0	0	0
031119	11:34:45	11:41:08	383121	5.0.10.0	4_exp_AWA_CON_EVA_AMP	159	Rpleas_acq	Oppo	Rpleas	Amasked	CS_A	2pleas	distractor2	CONbeforeEVA	acq_US_unple_masked	acq3_masked	3	36	453	0	300	300	0	0	384	50	0	0	0	0	0	1	blank2r.bmp	0	1	+	0	8	C4r.bmp	492	1	blank2r.bmp	786	1	CPLW	786	1	blank2r.bmp	866	4	gierig	866	1	FEHLER	1586	1	!	-1	1	!	-1	0	0	0	0	0	0	0	0	0	0	0	0	0	0	0	0	0	0	0	0	0	0	0	0
031119	11:34:45	11:41:25	399981	5.0.10.0	4_exp_AWA_CON_EVA_AMP	159	Rpleas_acq	Oppo	Rpleas	Amasked	CS_A	2pleas	distractor2	CONbeforeEVA	acq_US_unple_masked	acq45_masked	4	1	400	0	300	300	0	0	502	46	0	1	0	0	0	1	blank2r.bmp	0	1	+	0	6	C2r.bmp	492	1	blank2r.bmp	786	1	CPLW	786	1	blank2r.bmp	866	4	gierig	866	1	!	1239	1	!	-1	0	0	0	0	0	0	0	0	0	0	0	0	0	0	0	0	0	0	0	0	0	0	0	0	0	0	0
031119	11:34:45	11:41:28	402247	5.0.10.0	4_exp_AWA_CON_EVA_AMP	159	Rpleas_acq	Oppo	Rpleas	Amasked	CS_A	2pleas	distractor2	CONbeforeEVA	acq_US_unple_masked	acq45_masked	4	2	400	1	300	300	0	0	454	46	0	1	0	0	0	1	blank2r.bmp	0	1	+	0	4	B4r.bmp	492	1	blank2r.bmp	786	1	CPLW	786	1	blank2r.bmp	866	3	sterben	866	1	!	1239	1	!	1359	0	0	0	0	0	0	0	0	0	0	0	0	0	0	0	0	0	0	0	0	0	0	0	0	0	0	0
031119	11:34:45	11:41:30	404313	5.0.10.0	4_exp_AWA_CON_EVA_AMP	159	Rpleas_acq	Oppo	Rpleas	Amasked	CS_A	2pleas	distractor2	CONbeforeEVA	acq_US_pleas_masked	acq45_masked	4	3	400	0	300	300	0	0	301	50	0	1	0	0	0	1	blank2r.bmp	0	1	+	0	3	B3r.bmp	492	1	blank2r.bmp	786	1	DHJF	786	1	blank2r.bmp	866	4	gütig	866	1	!	-1	1	!	-1	0	0	0	0	0	0	0	0	0	0	0	0	0	0	0	0	0	0	0	0	0	0	0	0	0	0	0
031119	11:34:45	11:41:32	406632	5.0.10.0	4_exp_AWA_CON_EVA_AMP	159	Rpleas_acq	Oppo	Rpleas	Amasked	CS_A	2pleas	distractor2	CONbeforeEVA	acq_US_pleas_masked	acq45_masked	4	4	400	0	300	300	0	0	530	50	0	1	0	0	0	1	blank2r.bmp	0	1	+	0	1	B1r.bmp	492	1	blank2r.bmp	786	1	DHJF	786	1	blank2r.bmp	866	3	sonnig	866	1	!	1239	1	!	-1	0	0	0	0	0	0	0	0	0	0	0	0	0	0	0	0	0	0	0	0	0	0	0	0	0	0	0
031119	11:34:45	11:41:34	408817	5.0.10.0	4_exp_AWA_CON_EVA_AMP	159	Rpleas_acq	Oppo	Rpleas	Amasked	CS_A	2pleas	distractor2	CONbeforeEVA	acq_US_unple_masked	acq45_masked	4	5	400	1	300	300	0	0	375	46	0	1	0	0	0	1	blank2r.bmp	0	1	+	0	5	C1r.bmp	492	1	blank2r.bmp	786	1	CPLW	786	1	blank2r.bmp	866	2	versagen	866	1	!	1239	1	!	1279	0	0	0	0	0	0	0	0	0	0	0	0	0	0	0	0	0	0	0	0	0	0	0	0	0	0	0
031119	11:34:45	11:41:36	410883	5.0.10.0	4_exp_AWA_CON_EVA_AMP	159	Rpleas_acq	Oppo	Rpleas	Amasked	CS_A	2pleas	distractor2	CONbeforeEVA	acq_US_pleas_masked	acq45_masked	4	6	400	0	300	300	0	0	282	46	0	0	0	0	0	1	blank2r.bmp	0	1	+	0	4	B4r.bmp	492	1	blank2r.bmp	786	1	DHJF	786	1	blank2r.bmp	866	2	vertrauen	866	1	!	-1	1	!	-1	0	0	0	0	0	0	0	0	0	0	0	0	0	0	0	0	0	0	0	0	0	0	0	0	0	0	0
031119	11:34:45	11:41:38	413162	5.0.10.0	4_exp_AWA_CON_EVA_AMP	159	Rpleas_acq	Oppo	Rpleas	Amasked	CS_A	2pleas	distractor2	CONbeforeEVA	acq_US_unple_masked	acq45_masked	4	7	400	0	300	300	0	0	499	46	0	1	0	0	0	1	blank2r.bmp	0	1	+	0	3	B3r.bmp	492	1	blank2r.bmp	786	1	CPLW	786	1	blank2r.bmp	866	1	gemein	866	1	!	1239	1	!	-1	0	0	0	0	0	0	0	0	0	0	0	0	0	0	0	0	0	0	0	0	0	0	0	0	0	0	0
031119	11:34:45	11:41:41	415388	5.0.10.0	4_exp_AWA_CON_EVA_AMP	159	Rpleas_acq	Oppo	Rpleas	Amasked	CS_A	2pleas	distractor2	CONbeforeEVA	acq_US_pleas_masked	acq45_masked	4	8	400	1	300	300	0	0	415	50	0	1	0	0	0	1	blank2r.bmp	0	1	+	0	1	B1r.bmp	492	1	blank2r.bmp	786	1	DHJF	786	1	blank2r.bmp	866	6	anregung	866	1	!	1239	1	!	1319	0	0	0	0	0	0	0	0	0	0	0	0	0	0	0	0	0	0	0	0	0	0	0	0	0	0	0
031119	11:34:45	11:41:43	417561	5.0.10.0	4_exp_AWA_CON_EVA_AMP	159	Rpleas_acq	Oppo	Rpleas	Amasked	CS_A	2pleas	distractor2	CONbeforeEVA	acq_US_pleas_masked	acq45_masked	4	9	400	1	300	300	0	0	380	46	0	0	0	0	0	1	blank2r.bmp	0	1	+	0	2	B2r.bmp	492	1	blank2r.bmp	786	1	DHJF	786	1	blank2r.bmp	866	5	gesittet	866	1	!	1239	1	!	1279	0	0	0	0	0	0	0	0	0	0	0	0	0	0	0	0	0	0	0	0	0	0	0	0	0	0	0
031119	11:34:45	11:41:45	419773	5.0.10.0	4_exp_AWA_CON_EVA_AMP	159	Rpleas_acq	Oppo	Rpleas	Amasked	CS_A	2pleas	distractor2	CONbeforeEVA	acq_US_pleas_masked	acq45_masked	4	10	400	1	300	300	0	0	421	50	0	1	0	0	0	1	blank2r.bmp	0	1	+	0	8	C4r.bmp	492	1	blank2r.bmp	786	1	DHJF	786	1	blank2r.bmp	866	1	genießen	866	1	!	1239	1	!	1319	0	0	0	0	0	0	0	0	0	0	0	0	0	0	0	0	0	0	0	0	0	0	0	0	0	0	0
031119	11:34:45	11:41:47	421985	5.0.10.0	4_exp_AWA_CON_EVA_AMP	159	Rpleas_acq	Oppo	Rpleas	Amasked	CS_A	2pleas	distractor2	CONbeforeEVA	acq_US_unple_masked	acq45_masked	4	11	400	1	300	300	0	0	424	46	0	1	0	0	0	1	blank2r.bmp	0	1	+	0	7	C3r.bmp	492	1	blank2r.bmp	786	1	CPLW	786	1	blank2r.bmp	866	5	geizig	866	1	!	1239	1	!	1319	0	0	0	0	0	0	0	0	0	0	0	0	0	0	0	0	0	0	0	0	0	0	0	0	0	0	0
031119	11:34:45	11:41:49	424144	5.0.10.0	4_exp_AWA_CON_EVA_AMP	159	Rpleas_acq	Oppo	Rpleas	Amasked	CS_A	2pleas	distractor2	CONbeforeEVA	acq_US_unple_masked	acq45_masked	4	12	400	1	300	300	0	0	357	46	0	1	0	0	0	1	blank2r.bmp	0	1	+	0	6	C2r.bmp	492	1	blank2r.bmp	786	1	CPLW	786	1	blank2r.bmp	866	6	ausrottung	866	1	!	1239	1	!	1252	0	0	0	0	0	0	0	0	0	0	0	0	0	0	0	0	0	0	0	0	0	0	0	0	0	0	0
031119	11:34:45	11:41:52	426290	5.0.10.0	4_exp_AWA_CON_EVA_AMP	159	Rpleas_acq	Oppo	Rpleas	Amasked	CS_A	2pleas	distractor2	CONbeforeEVA	acq_US_pleas_masked	acq45_masked	4	13	400	1	300	300	0	0	346	50	0	1	0	0	0	1	blank2r.bmp	0	1	+	0	1	B1r.bmp	492	1	blank2r.bmp	786	1	DHJF	786	1	blank2r.bmp	866	3	sonnig	866	1	!	1239	1	!	1252	0	0	0	0	0	0	0	0	0	0	0	0	0	0	0	0	0	0	0	0	0	0	0	0	0	0	0
031119	11:34:45	11:41:54	428476	5.0.10.0	4_exp_AWA_CON_EVA_AMP	159	Rpleas_acq	Oppo	Rpleas	Amasked	CS_A	2pleas	distractor2	CONbeforeEVA	acq_US_pleas_masked	acq45_masked	4	14	400	1	300	300	0	0	373	46	0	0	0	0	0	1	blank2r.bmp	0	1	+	0	6	C2r.bmp	492	1	blank2r.bmp	786	1	DHJF	786	1	blank2r.bmp	866	6	anregung	866	1	!	1239	1	!	1279	0	0	0	0	0	0	0	0	0	0	0	0	0	0	0	0	0	0	0	0	0	0	0	0	0	0	0
031119	11:34:45	11:41:56	430715	5.0.10.0	4_exp_AWA_CON_EVA_AMP	159	Rpleas_acq	Oppo	Rpleas	Amasked	CS_A	2pleas	distractor2	CONbeforeEVA	acq_US_unple_masked	acq45_masked	4	15	400	1	300	300	0	0	446	50	0	0	0	0	0	1	blank2r.bmp	0	1	+	0	3	B3r.bmp	492	1	blank2r.bmp	786	1	CPLW	786	1	blank2r.bmp	866	4	gierig	866	1	!	1239	1	!	1346	0	0	0	0	0	0	0	0	0	0	0	0	0	0	0	0	0	0	0	0	0	0	0	0	0	0	0
031119	11:34:45	11:41:58	432861	5.0.10.0	4_exp_AWA_CON_EVA_AMP	159	Rpleas_acq	Oppo	Rpleas	Amasked	CS_A	2pleas	distractor2	CONbeforeEVA	acq_US_pleas_masked	acq45_masked	4	16	400	1	300	300	0	0	354	46	0	0	0	0	0	1	blank2r.bmp	0	1	+	0	2	B2r.bmp	492	1	blank2r.bmp	786	1	DHJF	786	1	blank2r.bmp	866	4	gütig	866	1	!	1239	1	!	1252	0	0	0	0	0	0	0	0	0	0	0	0	0	0	0	0	0	0	0	0	0	0	0	0	0	0	0
031119	11:34:45	11:42:00	435007	5.0.10.0	4_exp_AWA_CON_EVA_AMP	159	Rpleas_acq	Oppo	Rpleas	Amasked	CS_A	2pleas	distractor2	CONbeforeEVA	acq_US_unple_masked	acq45_masked	4	17	400	1	300	300	0	0	346	50	0	0	0	0	0	1	blank2r.bmp	0	1	+	0	5	C1r.bmp	492	1	blank2r.bmp	786	1	CPLW	786	1	blank2r.bmp	866	5	geizig	866	1	!	1239	1	!	1252	0	0	0	0	0	0	0	0	0	0	0	0	0	0	0	0	0	0	0	0	0	0	0	0	0	0	0
031119	11:34:45	11:42:03	437259	5.0.10.0	4_exp_AWA_CON_EVA_AMP	159	Rpleas_acq	Oppo	Rpleas	Amasked	CS_A	2pleas	distractor2	CONbeforeEVA	acq_US_unple_masked	acq45_masked	4	18	400	0	300	300	0	0	479	46	0	1	0	0	0	1	blank2r.bmp	0	1	+	0	8	C4r.bmp	492	1	blank2r.bmp	786	1	CPLW	786	1	blank2r.bmp	866	2	versagen	866	1	!	1239	1	!	-1	0	0	0	0	0	0	0	0	0	0	0	0	0	0	0	0	0	0	0	0	0	0	0	0	0	0	0
031119	11:34:45	11:42:05	439538	5.0.10.0	4_exp_AWA_CON_EVA_AMP	159	Rpleas_acq	Oppo	Rpleas	Amasked	CS_A	2pleas	distractor2	CONbeforeEVA	acq_US_pleas_masked	acq45_masked	4	19	400	0	300	300	0	0	489	50	0	1	0	0	0	1	blank2r.bmp	0	1	+	0	4	B4r.bmp	492	1	blank2r.bmp	786	1	DHJF	786	1	blank2r.bmp	866	2	vertrauen	866	1	!	1239	1	!	-1	0	0	0	0	0	0	0	0	0	0	0	0	0	0	0	0	0	0	0	0	0	0	0	0	0	0	0
031119	11:34:45	11:42:07	441804	5.0.10.0	4_exp_AWA_CON_EVA_AMP	159	Rpleas_acq	Oppo	Rpleas	Amasked	CS_A	2pleas	distractor2	CONbeforeEVA	acq_US_pleas_masked	acq45_masked	4	20	400	1	300	300	0	0	438	46	0	0	0	0	0	1	blank2r.bmp	0	1	+	0	7	C3r.bmp	492	1	blank2r.bmp	786	1	DHJF	786	1	blank2r.bmp	866	5	gesittet	866	1	!	1239	1	!	1346	0	0	0	0	0	0	0	0	0	0	0	0	0	0	0	0	0	0	0	0	0	0	0	0	0	0	0
031119	11:34:45	11:42:09	444056	5.0.10.0	4_exp_AWA_CON_EVA_AMP	159	Rpleas_acq	Oppo	Rpleas	Amasked	CS_A	2pleas	distractor2	CONbeforeEVA	acq_US_pleas_masked	acq45_masked	4	21	400	1	300	300	0	0	461	50	0	1	0	0	0	1	blank2r.bmp	0	1	+	0	8	C4r.bmp	492	1	blank2r.bmp	786	1	DHJF	786	1	blank2r.bmp	866	1	genießen	866	1	!	1239	1	!	1359	0	0	0	0	0	0	0	0	0	0	0	0	0	0	0	0	0	0	0	0	0	0	0	0	0	0	0
031119	11:34:45	11:42:12	446282	5.0.10.0	4_exp_AWA_CON_EVA_AMP	159	Rpleas_acq	Oppo	Rpleas	Amasked	CS_A	2pleas	distractor2	CONbeforeEVA	acq_US_unple_masked	acq45_masked	4	22	400	1	300	300	0	0	434	46	0	1	0	0	0	1	blank2r.bmp	0	1	+	0	7	C3r.bmp	492	1	blank2r.bmp	786	1	CPLW	786	1	blank2r.bmp	866	6	ausrottung	866	1	!	1239	1	!	1332	0	0	0	0	0	0	0	0	0	0	0	0	0	0	0	0	0	0	0	0	0	0	0	0	0	0	0
031119	11:34:45	11:42:14	448454	5.0.10.0	4_exp_AWA_CON_EVA_AMP	159	Rpleas_acq	Oppo	Rpleas	Amasked	CS_A	2pleas	distractor2	CONbeforeEVA	acq_US_pleas_masked	acq45_masked	4	23	400	1	300	300	0	0	380	50	0	1	0	0	0	1	blank2r.bmp	0	1	+	0	1	B1r.bmp	492	1	blank2r.bmp	786	1	DHJF	786	1	blank2r.bmp	866	4	gütig	866	1	!	1239	1	!	1279	0	0	0	0	0	0	0	0	0	0	0	0	0	0	0	0	0	0	0	0	0	0	0	0	0	0	0
031119	11:34:45	11:42:16	450680	5.0.10.0	4_exp_AWA_CON_EVA_AMP	159	Rpleas_acq	Oppo	Rpleas	Amasked	CS_A	2pleas	distractor2	CONbeforeEVA	acq_US_unple_masked	acq45_masked	4	24	400	1	300	300	0	0	435	46	0	1	0	0	0	1	blank2r.bmp	0	1	+	0	2	B2r.bmp	492	1	blank2r.bmp	786	1	CPLW	786	1	blank2r.bmp	866	3	sterben	866	1	!	1239	1	!	1332	0	0	0	0	0	0	0	0	0	0	0	0	0	0	0	0	0	0	0	0	0	0	0	0	0	0	0
031119	11:34:45	11:42:18	452999	5.0.10.0	4_exp_AWA_CON_EVA_AMP	159	Rpleas_acq	Oppo	Rpleas	Amasked	CS_A	2pleas	distractor2	CONbeforeEVA	acq_US_unple_masked	acq45_masked	4	25	400	0	300	300	0	0	546	46	0	1	0	0	0	1	blank2r.bmp	0	1	+	0	5	C1r.bmp	492	1	blank2r.bmp	786	1	CPLW	786	1	blank2r.bmp	866	1	gemein	866	1	!	1239	1	!	-1	0	0	0	0	0	0	0	0	0	0	0	0	0	0	0	0	0	0	0	0	0	0	0	0	0	0	0
031119	11:34:45	11:42:20	455225	5.0.10.0	4_exp_AWA_CON_EVA_AMP	159	Rpleas_acq	Oppo	Rpleas	Amasked	CS_A	2pleas	distractor2	CONbeforeEVA	acq_US_unple_masked	acq45_masked	4	26	400	1	300	300	0	0	407	46	0	1	0	0	0	1	blank2r.bmp	0	1	+	0	4	B4r.bmp	492	1	blank2r.bmp	786	1	CPLW	786	1	blank2r.bmp	866	1	gemein	866	1	!	1239	1	!	1306	0	0	0	0	0	0	0	0	0	0	0	0	0	0	0	0	0	0	0	0	0	0	0	0	0	0	0
031119	11:34:45	11:42:23	457491	5.0.10.0	4_exp_AWA_CON_EVA_AMP	159	Rpleas_acq	Oppo	Rpleas	Amasked	CS_A	2pleas	distractor2	CONbeforeEVA	acq_US_pleas_masked	acq45_masked	4	27	400	0	300	300	0	0	503	50	0	1	0	0	0	1	blank2r.bmp	0	1	+	0	6	C2r.bmp	492	1	blank2r.bmp	786	1	DHJF	786	1	blank2r.bmp	866	2	vertrauen	866	1	!	1239	1	!	-1	0	0	0	0	0	0	0	0	0	0	0	0	0	0	0	0	0	0	0	0	0	0	0	0	0	0	0
031119	11:34:45	11:42:25	459716	5.0.10.0	4_exp_AWA_CON_EVA_AMP	159	Rpleas_acq	Oppo	Rpleas	Amasked	CS_A	2pleas	distractor2	CONbeforeEVA	acq_US_unple_masked	acq45_masked	4	28	400	1	300	300	0	0	416	46	0	1	0	0	0	1	blank2r.bmp	0	1	+	0	3	B3r.bmp	492	1	blank2r.bmp	786	1	CPLW	786	1	blank2r.bmp	866	5	geizig	866	1	!	1239	1	!	1319	0	0	0	0	0	0	0	0	0	0	0	0	0	0	0	0	0	0	0	0	0	0	0	0	0	0	0
031119	11:34:45	11:42:27	461796	5.0.10.0	4_exp_AWA_CON_EVA_AMP	159	Rpleas_acq	Oppo	Rpleas	Amasked	CS_A	2pleas	distractor2	CONbeforeEVA	acq_US_pleas_masked	acq45_masked	4	29	400	0	300	300	0	0	315	50	0	1	0	0	0	1	blank2r.bmp	0	1	+	0	6	C2r.bmp	492	1	blank2r.bmp	786	1	DHJF	786	1	blank2r.bmp	866	3	sonnig	866	1	!	-1	1	!	-1	0	0	0	0	0	0	0	0	0	0	0	0	0	0	0	0	0	0	0	0	0	0	0	0	0	0	0
031119	11:34:45	11:42:29	464181	5.0.10.0	4_exp_AWA_CON_EVA_AMP	159	Rpleas_acq	Oppo	Rpleas	Amasked	CS_A	2pleas	distractor2	CONbeforeEVA	acq_US_pleas_masked	acq45_masked	4	30	400	0	300	300	0	0	605	50	0	1	0	0	0	1	blank2r.bmp	0	1	+	0	5	C1r.bmp	492	1	blank2r.bmp	786	1	DHJF	786	1	blank2r.bmp	866	5	gesittet	866	1	!	1239	1	!	-1	0	0	0	0	0	0	0	0	0	0	0	0	0	0	0	0	0	0	0	0	0	0	0	0	0	0	0
031119	11:34:45	11:42:32	466447	5.0.10.0	4_exp_AWA_CON_EVA_AMP	159	Rpleas_acq	Oppo	Rpleas	Amasked	CS_A	2pleas	distractor2	CONbeforeEVA	acq_US_unple_masked	acq45_masked	4	31	400	0	300	300	0	0	491	46	0	1	0	0	0	1	blank2r.bmp	0	1	+	0	7	C3r.bmp	492	1	blank2r.bmp	786	1	CPLW	786	1	blank2r.bmp	866	4	gierig	866	1	!	1239	1	!	-1	0	0	0	0	0	0	0	0	0	0	0	0	0	0	0	0	0	0	0	0	0	0	0	0	0	0	0
031119	11:34:45	11:42:34	468726	5.0.10.0	4_exp_AWA_CON_EVA_AMP	159	Rpleas_acq	Oppo	Rpleas	Amasked	CS_A	2pleas	distractor2	CONbeforeEVA	acq_US_unple_masked	acq45_masked	4	32	400	0	300	300	0	0	479	46	0	1	0	0	0	1	blank2r.bmp	0	1	+	0	4	B4r.bmp	492	1	blank2r.bmp	786	1	CPLW	786	1	blank2r.bmp	866	6	ausrottung	866	1	!	1239	1	!	-1	0	0	0	0	0	0	0	0	0	0	0	0	0	0	0	0	0	0	0	0	0	0	0	0	0	0	0
031119	11:34:45	11:42:36	470992	5.0.10.0	4_exp_AWA_CON_EVA_AMP	159	Rpleas_acq	Oppo	Rpleas	Amasked	CS_A	2pleas	distractor2	CONbeforeEVA	acq_US_pleas_masked	acq45_masked	4	33	400	0	300	300	0	0	479	50	0	1	0	0	0	1	blank2r.bmp	0	1	+	0	1	B1r.bmp	492	1	blank2r.bmp	786	1	DHJF	786	1	blank2r.bmp	866	6	anregung	866	1	!	1239	1	!	-1	0	0	0	0	0	0	0	0	0	0	0	0	0	0	0	0	0	0	0	0	0	0	0	0	0	0	0
031119	11:34:45	11:42:38	473084	5.0.10.0	4_exp_AWA_CON_EVA_AMP	159	Rpleas_acq	Oppo	Rpleas	Amasked	CS_A	2pleas	distractor2	CONbeforeEVA	acq_US_pleas_masked	acq45_masked	4	34	400	0	300	300	0	0	316	50	0	1	0	0	0	1	blank2r.bmp	0	1	+	0	3	B3r.bmp	492	1	blank2r.bmp	786	1	DHJF	786	1	blank2r.bmp	866	1	genießen	866	1	!	-1	1	!	-1	0	0	0	0	0	0	0	0	0	0	0	0	0	0	0	0	0	0	0	0	0	0	0	0	0	0	0
031119	11:34:45	11:42:41	475297	5.0.10.0	4_exp_AWA_CON_EVA_AMP	159	Rpleas_acq	Oppo	Rpleas	Amasked	CS_A	2pleas	distractor2	CONbeforeEVA	acq_US_unple_masked	acq45_masked	4	35	400	1	300	300	0	0	407	46	0	1	0	0	0	1	blank2r.bmp	0	1	+	0	8	C4r.bmp	492	1	blank2r.bmp	786	1	CPLW	786	1	blank2r.bmp	866	2	versagen	866	1	!	1239	1	!	1306	0	0	0	0	0	0	0	0	0	0	0	0	0	0	0	0	0	0	0	0	0	0	0	0	0	0	0
031119	11:34:45	11:42:43	477443	5.0.10.0	4_exp_AWA_CON_EVA_AMP	159	Rpleas_acq	Oppo	Rpleas	Amasked	CS_A	2pleas	distractor2	CONbeforeEVA	acq_US_unple_masked	acq45_masked	4	36	400	1	300	300	0	0	350	50	0	0	0	0	0	1	blank2r.bmp	0	1	+	0	2	B2r.bmp	492	1	blank2r.bmp	786	1	CPLW	786	1	blank2r.bmp	866	3	sterben	866	1	!	1239	1	!	1252	0	0	0	0	0	0	0	0	0	0	0	0	0	0	0	0	0	0	0	0	0	0	0	0	0	0	0
031119	11:34:45	11:42:57	491517	5.0.10.0	4_exp_AWA_CON_EVA_AMP	159	Rpleas_acq	Oppo	Rpleas	Amasked	CS_A	2pleas	distractor2	CONbeforeEVA	acq_US_unple_masked	acq45_masked	5	1	400	1	300	300	0	0	414	46	0	1	0	0	0	1	blank2r.bmp	0	1	+	0	8	C4r.bmp	492	1	blank2r.bmp	786	1	CPLW	786	1	blank2r.bmp	866	3	sterben	866	1	!	1239	1	!	1319	0	0	0	0	0	0	0	0	0	0	0	0	0	0	0	0	0	0	0	0	0	0	0	0	0	0	0
031119	11:34:45	11:42:59	493676	5.0.10.0	4_exp_AWA_CON_EVA_AMP	159	Rpleas_acq	Oppo	Rpleas	Amasked	CS_A	2pleas	distractor2	CONbeforeEVA	acq_US_pleas_masked	acq45_masked	5	2	400	1	300	300	0	0	369	50	0	1	0	0	0	1	blank2r.bmp	0	1	+	0	5	C1r.bmp	492	1	blank2r.bmp	786	1	DHJF	786	1	blank2r.bmp	866	4	gütig	866	1	!	1239	1	!	1266	0	0	0	0	0	0	0	0	0	0	0	0	0	0	0	0	0	0	0	0	0	0	0	0	0	0	0
031119	11:34:45	11:43:01	496022	5.0.10.0	4_exp_AWA_CON_EVA_AMP	159	Rpleas_acq	Oppo	Rpleas	Amasked	CS_A	2pleas	distractor2	CONbeforeEVA	acq_US_pleas_masked	acq45_masked	5	3	400	0	300	300	0	0	579	50	0	1	0	0	0	1	blank2r.bmp	0	1	+	0	7	C3r.bmp	492	1	blank2r.bmp	786	1	DHJF	786	1	blank2r.bmp	866	6	anregung	866	1	!	1239	1	!	-1	0	0	0	0	0	0	0	0	0	0	0	0	0	0	0	0	0	0	0	0	0	0	0	0	0	0	0
031119	11:34:45	11:43:04	498287	5.0.10.0	4_exp_AWA_CON_EVA_AMP	159	Rpleas_acq	Oppo	Rpleas	Amasked	CS_A	2pleas	distractor2	CONbeforeEVA	acq_US_pleas_masked	acq45_masked	5	4	400	0	300	300	0	0	486	50	0	1	0	0	0	1	blank2r.bmp	0	1	+	0	3	B3r.bmp	492	1	blank2r.bmp	786	1	DHJF	786	1	blank2r.bmp	866	1	genießen	866	1	!	1239	1	!	-1	0	0	0	0	0	0	0	0	0	0	0	0	0	0	0	0	0	0	0	0	0	0	0	0	0	0	0
031119	11:34:45	11:43:06	500340	5.0.10.0	4_exp_AWA_CON_EVA_AMP	159	Rpleas_acq	Oppo	Rpleas	Amasked	CS_A	2pleas	distractor2	CONbeforeEVA	acq_US_unple_masked	acq45_masked	5	5	400	0	300	300	0	0	256	46	0	1	0	0	0	1	blank2r.bmp	0	1	+	0	6	C2r.bmp	492	1	blank2r.bmp	786	1	CPLW	786	1	blank2r.bmp	866	5	geizig	866	1	!	-1	1	!	-1	0	0	0	0	0	0	0	0	0	0	0	0	0	0	0	0	0	0	0	0	0	0	0	0	0	0	0
031119	11:34:45	11:43:08	502499	5.0.10.0	4_exp_AWA_CON_EVA_AMP	159	Rpleas_acq	Oppo	Rpleas	Amasked	CS_A	2pleas	distractor2	CONbeforeEVA	acq_US_pleas_masked	acq45_masked	5	6	400	1	300	300	0	0	358	46	0	0	0	0	0	1	blank2r.bmp	0	1	+	0	4	B4r.bmp	492	1	blank2r.bmp	786	1	DHJF	786	1	blank2r.bmp	866	5	gesittet	866	1	!	1239	1	!	1252	0	0	0	0	0	0	0	0	0	0	0	0	0	0	0	0	0	0	0	0	0	0	0	0	0	0	0
031119	11:34:45	11:43:10	504738	5.0.10.0	4_exp_AWA_CON_EVA_AMP	159	Rpleas_acq	Oppo	Rpleas	Amasked	CS_A	2pleas	distractor2	CONbeforeEVA	acq_US_unple_masked	acq45_masked	5	7	400	1	300	300	0	0	439	46	0	1	0	0	0	1	blank2r.bmp	0	1	+	0	1	B1r.bmp	492	1	blank2r.bmp	786	1	CPLW	786	1	blank2r.bmp	866	4	gierig	866	1	!	1239	1	!	1346	0	0	0	0	0	0	0	0	0	0	0	0	0	0	0	0	0	0	0	0	0	0	0	0	0	0	0
031119	11:34:45	11:43:12	506804	5.0.10.0	4_exp_AWA_CON_EVA_AMP	159	Rpleas_acq	Oppo	Rpleas	Amasked	CS_A	2pleas	distractor2	CONbeforeEVA	acq_US_unple_masked	acq45_masked	5	8	400	0	300	300	0	0	301	50	0	0	0	0	0	1	blank2r.bmp	0	1	+	0	2	B2r.bmp	492	1	blank2r.bmp	786	1	CPLW	786	1	blank2r.bmp	866	2	versagen	866	1	!	-1	1	!	-1	0	0	0	0	0	0	0	0	0	0	0	0	0	0	0	0	0	0	0	0	0	0	0	0	0	0	0
031119	11:34:45	11:43:14	509083	5.0.10.0	4_exp_AWA_CON_EVA_AMP	159	Rpleas_acq	Oppo	Rpleas	Amasked	CS_A	2pleas	distractor2	CONbeforeEVA	acq_US_pleas_masked	acq45_masked	5	9	400	1	300	300	0	0	459	50	0	1	0	0	0	1	blank2r.bmp	0	1	+	0	1	B1r.bmp	492	1	blank2r.bmp	786	1	DHJF	786	1	blank2r.bmp	866	2	vertrauen	866	1	!	1239	1	!	1359	0	0	0	0	0	0	0	0	0	0	0	0	0	0	0	0	0	0	0	0	0	0	0	0	0	0	0
031119	11:34:45	11:43:17	511269	5.0.10.0	4_exp_AWA_CON_EVA_AMP	159	Rpleas_acq	Oppo	Rpleas	Amasked	CS_A	2pleas	distractor2	CONbeforeEVA	acq_US_unple_masked	acq45_masked	5	10	400	1	300	300	0	0	387	46	0	1	0	0	0	1	blank2r.bmp	0	1	+	0	5	C1r.bmp	492	1	blank2r.bmp	786	1	CPLW	786	1	blank2r.bmp	866	1	gemein	866	1	!	1239	1	!	1292	0	0	0	0	0	0	0	0	0	0	0	0	0	0	0	0	0	0	0	0	0	0	0	0	0	0	0
031119	11:34:45	11:43:19	513494	5.0.10.0	4_exp_AWA_CON_EVA_AMP	159	Rpleas_acq	Oppo	Rpleas	Amasked	CS_A	2pleas	distractor2	CONbeforeEVA	acq_US_unple_masked	acq45_masked	5	11	400	1	300	300	0	0	437	46	0	1	0	0	0	1	blank2r.bmp	0	1	+	0	8	C4r.bmp	492	1	blank2r.bmp	786	1	CPLW	786	1	blank2r.bmp	866	6	ausrottung	866	1	!	1239	1	!	1332	0	0	0	0	0	0	0	0	0	0	0	0	0	0	0	0	0	0	0	0	0	0	0	0	0	0	0
031119	11:34:45	11:43:21	515693	5.0.10.0	4_exp_AWA_CON_EVA_AMP	159	Rpleas_acq	Oppo	Rpleas	Amasked	CS_A	2pleas	distractor2	CONbeforeEVA	acq_US_unple_masked	acq45_masked	5	12	400	1	300	300	0	0	388	50	0	0	0	0	0	1	blank2r.bmp	0	1	+	0	4	B4r.bmp	492	1	blank2r.bmp	786	1	CPLW	786	1	blank2r.bmp	866	4	gierig	866	1	!	1239	1	!	1292	0	0	0	0	0	0	0	0	0	0	0	0	0	0	0	0	0	0	0	0	0	0	0	0	0	0	0
031119	11:34:45	11:43:23	517933	5.0.10.0	4_exp_AWA_CON_EVA_AMP	159	Rpleas_acq	Oppo	Rpleas	Amasked	CS_A	2pleas	distractor2	CONbeforeEVA	acq_US_unple_masked	acq45_masked	5	13	400	1	300	300	0	0	434	46	0	1	0	0	0	1	blank2r.bmp	0	1	+	0	7	C3r.bmp	492	1	blank2r.bmp	786	1	CPLW	786	1	blank2r.bmp	866	2	versagen	866	1	!	1239	1	!	1332	0	0	0	0	0	0	0	0	0	0	0	0	0	0	0	0	0	0	0	0	0	0	0	0	0	0	0
031119	11:34:45	11:43:25	520145	5.0.10.0	4_exp_AWA_CON_EVA_AMP	159	Rpleas_acq	Oppo	Rpleas	Amasked	CS_A	2pleas	distractor2	CONbeforeEVA	acq_US_pleas_masked	acq45_masked	5	14	400	1	300	300	0	0	412	50	0	1	0	0	0	1	blank2r.bmp	0	1	+	0	6	C2r.bmp	492	1	blank2r.bmp	786	1	DHJF	786	1	blank2r.bmp	866	3	sonnig	866	1	!	1239	1	!	1319	0	0	0	0	0	0	0	0	0	0	0	0	0	0	0	0	0	0	0	0	0	0	0	0	0	0	0
031119	11:34:45	11:43:28	522317	5.0.10.0	4_exp_AWA_CON_EVA_AMP	159	Rpleas_acq	Oppo	Rpleas	Amasked	CS_A	2pleas	distractor2	CONbeforeEVA	acq_US_pleas_masked	acq45_masked	5	15	400	1	300	300	0	0	376	46	0	0	0	0	0	1	blank2r.bmp	0	1	+	0	2	B2r.bmp	492	1	blank2r.bmp	786	1	DHJF	786	1	blank2r.bmp	866	1	genießen	866	1	!	1239	1	!	1279	0	0	0	0	0	0	0	0	0	0	0	0	0	0	0	0	0	0	0	0	0	0	0	0	0	0	0
031119	11:34:45	11:43:30	524623	5.0.10.0	4_exp_AWA_CON_EVA_AMP	159	Rpleas_acq	Oppo	Rpleas	Amasked	CS_A	2pleas	distractor2	CONbeforeEVA	acq_US_pleas_masked	acq45_masked	5	16	400	0	300	300	0	0	532	50	0	1	0	0	0	1	blank2r.bmp	0	1	+	0	3	B3r.bmp	492	1	blank2r.bmp	786	1	DHJF	786	1	blank2r.bmp	866	2	vertrauen	866	1	!	1239	1	!	-1	0	0	0	0	0	0	0	0	0	0	0	0	0	0	0	0	0	0	0	0	0	0	0	0	0	0	0
031119	11:34:45	11:43:32	526902	5.0.10.0	4_exp_AWA_CON_EVA_AMP	159	Rpleas_acq	Oppo	Rpleas	Amasked	CS_A	2pleas	distractor2	CONbeforeEVA	acq_US_pleas_masked	acq45_masked	5	17	400	0	300	300	0	0	502	50	0	1	0	0	0	1	blank2r.bmp	0	1	+	0	5	C1r.bmp	492	1	blank2r.bmp	786	1	DHJF	786	1	blank2r.bmp	866	6	anregung	866	1	!	1239	1	!	-1	0	0	0	0	0	0	0	0	0	0	0	0	0	0	0	0	0	0	0	0	0	0	0	0	0	0	0
031119	11:34:45	11:43:34	529208	5.0.10.0	4_exp_AWA_CON_EVA_AMP	159	Rpleas_acq	Oppo	Rpleas	Amasked	CS_A	2pleas	distractor2	CONbeforeEVA	acq_US_unple_masked	acq45_masked	5	18	400	0	300	300	0	0	525	46	0	1	0	0	0	1	blank2r.bmp	0	1	+	0	6	C2r.bmp	492	1	blank2r.bmp	786	1	CPLW	786	1	blank2r.bmp	866	6	ausrottung	866	1	!	1239	1	!	-1	0	0	0	0	0	0	0	0	0	0	0	0	0	0	0	0	0	0	0	0	0	0	0	0	0	0	0
031119	11:34:45	11:43:37	531380	5.0.10.0	4_exp_AWA_CON_EVA_AMP	159	Rpleas_acq	Oppo	Rpleas	Amasked	CS_A	2pleas	distractor2	CONbeforeEVA	acq_US_pleas_masked	acq45_masked	5	19	400	1	300	300	0	0	370	50	0	1	0	0	0	1	blank2r.bmp	0	1	+	0	2	B2r.bmp	492	1	blank2r.bmp	786	1	DHJF	786	1	blank2r.bmp	866	5	gesittet	866	1	!	1239	1	!	1266	0	0	0	0	0	0	0	0	0	0	0	0	0	0	0	0	0	0	0	0	0	0	0	0	0	0	0
031119	11:34:45	11:43:39	533539	5.0.10.0	4_exp_AWA_CON_EVA_AMP	159	Rpleas_acq	Oppo	Rpleas	Amasked	CS_A	2pleas	distractor2	CONbeforeEVA	acq_US_pleas_masked	acq45_masked	5	20	400	1	300	300	0	0	369	50	0	1	0	0	0	1	blank2r.bmp	0	1	+	0	8	C4r.bmp	492	1	blank2r.bmp	786	1	DHJF	786	1	blank2r.bmp	866	4	gütig	866	1	!	1239	1	!	1266	0	0	0	0	0	0	0	0	0	0	0	0	0	0	0	0	0	0	0	0	0	0	0	0	0	0	0
031119	11:34:45	11:43:41	535619	5.0.10.0	4_exp_AWA_CON_EVA_AMP	159	Rpleas_acq	Oppo	Rpleas	Amasked	CS_A	2pleas	distractor2	CONbeforeEVA	acq_US_pleas_masked	acq45_masked	5	21	400	0	300	300	0	0	304	50	0	1	0	0	0	1	blank2r.bmp	0	1	+	0	4	B4r.bmp	492	1	blank2r.bmp	786	1	DHJF	786	1	blank2r.bmp	866	3	sonnig	866	1	!	-1	1	!	-1	0	0	0	0	0	0	0	0	0	0	0	0	0	0	0	0	0	0	0	0	0	0	0	0	0	0	0
031119	11:34:45	11:43:43	537778	5.0.10.0	4_exp_AWA_CON_EVA_AMP	159	Rpleas_acq	Oppo	Rpleas	Amasked	CS_A	2pleas	distractor2	CONbeforeEVA	acq_US_unple_masked	acq45_masked	5	22	400	1	300	300	0	0	346	50	0	0	0	0	0	1	blank2r.bmp	0	1	+	0	7	C3r.bmp	492	1	blank2r.bmp	786	1	CPLW	786	1	blank2r.bmp	866	3	sterben	866	1	!	1239	1	!	1252	0	0	0	0	0	0	0	0	0	0	0	0	0	0	0	0	0	0	0	0	0	0	0	0	0	0	0
031119	11:34:45	11:43:45	539857	5.0.10.0	4_exp_AWA_CON_EVA_AMP	159	Rpleas_acq	Oppo	Rpleas	Amasked	CS_A	2pleas	distractor2	CONbeforeEVA	acq_US_pleas_masked	acq45_masked	5	23	400	0	300	300	0	0	311	46	0	0	0	0	0	1	blank2r.bmp	0	1	+	0	1	B1r.bmp	492	1	blank2r.bmp	786	1	DHJF	786	1	blank2r.bmp	866	6	anregung	866	1	!	-1	1	!	-1	0	0	0	0	0	0	0	0	0	0	0	0	0	0	0	0	0	0	0	0	0	0	0	0	0	0	0
031119	11:34:45	11:43:47	542056	5.0.10.0	4_exp_AWA_CON_EVA_AMP	159	Rpleas_acq	Oppo	Rpleas	Amasked	CS_A	2pleas	distractor2	CONbeforeEVA	acq_US_pleas_masked	acq45_masked	5	24	400	1	300	300	0	0	391	50	0	1	0	0	0	1	blank2r.bmp	0	1	+	0	3	B3r.bmp	492	1	blank2r.bmp	786	1	DHJF	786	1	blank2r.bmp	866	4	gütig	866	1	!	1239	1	!	1292	0	0	0	0	0	0	0	0	0	0	0	0	0	0	0	0	0	0	0	0	0	0	0	0	0	0	0
031119	11:34:45	11:43:50	544255	5.0.10.0	4_exp_AWA_CON_EVA_AMP	159	Rpleas_acq	Oppo	Rpleas	Amasked	CS_A	2pleas	distractor2	CONbeforeEVA	acq_US_pleas_masked	acq45_masked	5	25	400	1	300	300	0	0	403	50	0	1	0	0	0	1	blank2r.bmp	0	1	+	0	1	B1r.bmp	492	1	blank2r.bmp	786	1	DHJF	786	1	blank2r.bmp	866	3	sonnig	866	1	!	1239	1	!	1306	0	0	0	0	0	0	0	0	0	0	0	0	0	0	0	0	0	0	0	0	0	0	0	0	0	0	0
031119	11:34:45	11:43:52	546481	5.0.10.0	4_exp_AWA_CON_EVA_AMP	159	Rpleas_acq	Oppo	Rpleas	Amasked	CS_A	2pleas	distractor2	CONbeforeEVA	acq_US_unple_masked	acq45_masked	5	26	400	1	300	300	0	0	423	46	0	1	0	0	0	1	blank2r.bmp	0	1	+	0	5	C1r.bmp	492	1	blank2r.bmp	786	1	CPLW	786	1	blank2r.bmp	866	5	geizig	866	1	!	1239	1	!	1319	0	0	0	0	0	0	0	0	0	0	0	0	0	0	0	0	0	0	0	0	0	0	0	0	0	0	0
031119	11:34:45	11:43:54	548786	5.0.10.0	4_exp_AWA_CON_EVA_AMP	159	Rpleas_acq	Oppo	Rpleas	Amasked	CS_A	2pleas	distractor2	CONbeforeEVA	acq_US_pleas_masked	acq45_masked	5	27	400	0	300	300	0	0	544	50	0	1	0	0	0	1	blank2r.bmp	0	1	+	0	8	C4r.bmp	492	1	blank2r.bmp	786	1	DHJF	786	1	blank2r.bmp	866	5	gesittet	866	1	!	1239	1	!	-1	0	0	0	0	0	0	0	0	0	0	0	0	0	0	0	0	0	0	0	0	0	0	0	0	0	0	0
031119	11:34:45	11:43:56	550986	5.0.10.0	4_exp_AWA_CON_EVA_AMP	159	Rpleas_acq	Oppo	Rpleas	Amasked	CS_A	2pleas	distractor2	CONbeforeEVA	acq_US_unple_masked	acq45_masked	5	28	400	1	300	300	0	0	397	46	0	1	0	0	0	1	blank2r.bmp	0	1	+	0	6	C2r.bmp	492	1	blank2r.bmp	786	1	CPLW	786	1	blank2r.bmp	866	1	gemein	866	1	!	1239	1	!	1292	0	0	0	0	0	0	0	0	0	0	0	0	0	0	0	0	0	0	0	0	0	0	0	0	0	0	0
031119	11:34:45	11:43:58	553185	5.0.10.0	4_exp_AWA_CON_EVA_AMP	159	Rpleas_acq	Oppo	Rpleas	Amasked	CS_A	2pleas	distractor2	CONbeforeEVA	acq_US_unple_masked	acq45_masked	5	29	400	1	300	300	0	0	405	46	0	1	0	0	0	1	blank2r.bmp	0	1	+	0	2	B2r.bmp	492	1	blank2r.bmp	786	1	CPLW	786	1	blank2r.bmp	866	3	sterben	866	1	!	1239	1	!	1306	0	0	0	0	0	0	0	0	0	0	0	0	0	0	0	0	0	0	0	0	0	0	0	0	0	0	0
031119	11:34:45	11:44:01	555344	5.0.10.0	4_exp_AWA_CON_EVA_AMP	159	Rpleas_acq	Oppo	Rpleas	Amasked	CS_A	2pleas	distractor2	CONbeforeEVA	acq_US_pleas_masked	acq45_masked	5	30	400	1	300	300	0	0	366	50	0	1	0	0	0	1	blank2r.bmp	0	1	+	0	7	C3r.bmp	492	1	blank2r.bmp	786	1	DHJF	786	1	blank2r.bmp	866	2	vertrauen	866	1	!	1239	1	!	1266	0	0	0	0	0	0	0	0	0	0	0	0	0	0	0	0	0	0	0	0	0	0	0	0	0	0	0
031119	11:34:45	11:44:03	557570	5.0.10.0	4_exp_AWA_CON_EVA_AMP	159	Rpleas_acq	Oppo	Rpleas	Amasked	CS_A	2pleas	distractor2	CONbeforeEVA	acq_US_unple_masked	acq45_masked	5	31	400	1	300	300	0	0	425	46	0	1	0	0	0	1	blank2r.bmp	0	1	+	0	3	B3r.bmp	492	1	blank2r.bmp	786	1	CPLW	786	1	blank2r.bmp	866	5	geizig	866	1	!	1239	1	!	1332	0	0	0	0	0	0	0	0	0	0	0	0	0	0	0	0	0	0	0	0	0	0	0	0	0	0	0
031119	11:34:45	11:44:05	559742	5.0.10.0	4_exp_AWA_CON_EVA_AMP	159	Rpleas_acq	Oppo	Rpleas	Amasked	CS_A	2pleas	distractor2	CONbeforeEVA	acq_US_pleas_masked	acq45_masked	5	32	400	1	300	300	0	0	383	50	0	1	0	0	0	1	blank2r.bmp	0	1	+	0	4	B4r.bmp	492	1	blank2r.bmp	786	1	DHJF	786	1	blank2r.bmp	866	1	genießen	866	1	!	1239	1	!	1279	0	0	0	0	0	0	0	0	0	0	0	0	0	0	0	0	0	0	0	0	0	0	0	0	0	0	0
031119	11:34:45	11:44:07	561808	5.0.10.0	4_exp_AWA_CON_EVA_AMP	159	Rpleas_acq	Oppo	Rpleas	Amasked	CS_A	2pleas	distractor2	CONbeforeEVA	acq_US_unple_masked	acq45_masked	5	33	400	0	300	300	0	0	301	46	0	1	0	0	0	1	blank2r.bmp	0	1	+	0	6	C2r.bmp	492	1	blank2r.bmp	786	1	CPLW	786	1	blank2r.bmp	866	2	versagen	866	1	!	-1	1	!	-1	0	0	0	0	0	0	0	0	0	0	0	0	0	0	0	0	0	0	0	0	0	0	0	0	0	0	0
031119	11:34:45	11:44:09	564020	5.0.10.0	4_exp_AWA_CON_EVA_AMP	159	Rpleas_acq	Oppo	Rpleas	Amasked	CS_A	2pleas	distractor2	CONbeforeEVA	acq_US_unple_masked	acq45_masked	5	34	400	1	300	300	0	0	404	50	0	0	0	0	0	1	blank2r.bmp	0	1	+	0	4	B4r.bmp	492	1	blank2r.bmp	786	1	CPLW	786	1	blank2r.bmp	866	4	gierig	866	1	!	1239	1	!	1306	0	0	0	0	0	0	0	0	0	0	0	0	0	0	0	0	0	0	0	0	0	0	0	0	0	0	0
031119	11:34:45	11:44:12	566273	5.0.10.0	4_exp_AWA_CON_EVA_AMP	159	Rpleas_acq	Oppo	Rpleas	Amasked	CS_A	2pleas	distractor2	CONbeforeEVA	acq_US_unple_masked	acq45_masked	5	35	400	1	300	300	0	0	442	46	0	1	0	0	0	1	blank2r.bmp	0	1	+	0	5	C1r.bmp	492	1	blank2r.bmp	786	1	CPLW	786	1	blank2r.bmp	866	1	gemein	866	1	!	1239	1	!	1346	0	0	0	0	0	0	0	0	0	0	0	0	0	0	0	0	0	0	0	0	0	0	0	0	0	0	0
031119	11:34:45	11:44:14	568525	5.0.10.0	4_exp_AWA_CON_EVA_AMP	159	Rpleas_acq	Oppo	Rpleas	Amasked	CS_A	2pleas	distractor2	CONbeforeEVA	acq_US_unple_masked	acq45_masked	5	36	400	1	300	300	0	0	463	46	0	1	0	0	0	1	blank2r.bmp	0	1	+	0	1	B1r.bmp	492	1	blank2r.bmp	786	1	CPLW	786	1	blank2r.bmp	866	6	ausrottung	866	1	!	1239	1	!	1359	0	0	0	0	0	0	0	0	0	0	0	0	0	0	0	0	0	0	0	0	0	0	0	0	0	0	0
031119	11:34:45	11:45:37	651664	5.0.10.0	4_exp_AWA_CON_EVA_AMP	159	Rpleas_acq	Oppo	Lpleas	Amasked	CS_A	2pleas	distractor2	CONbeforeEVA	cond_US_unple_123_masked_CS2	condtest_masked_1	8	1	400	1	300	300	0	0	424	50	0	1	0	0	0	1	blank2r.bmp	0	1	+	0	8	C4r.bmp	492	1	blank2r.bmp	786	1	DHJF	786	1	blank2r.bmp	866	1	gemein	866	1	!	1239	1	!	1319	0	0	0	0	0	0	0	0	0	0	0	0	0	0	0	0	0	0	0	0	0	0	0	0	0	0	0
031119	11:34:45	11:45:39	653836	5.0.10.0	4_exp_AWA_CON_EVA_AMP	159	Rpleas_acq	Oppo	Lpleas	Amasked	CS_A	2pleas	distractor2	CONbeforeEVA	cond_US_pleas_123_masked_CS1	condtest_masked_1	8	2	400	1	300	300	0	0	385	46	0	1	0	0	0	1	blank2r.bmp	0	1	+	0	7	C3r.bmp	492	1	blank2r.bmp	786	1	CPLW	786	1	blank2r.bmp	866	1	genießen	866	1	!	1239	1	!	1279	0	0	0	0	0	0	0	0	0	0	0	0	0	0	0	0	0	0	0	0	0	0	0	0	0	0	0
031119	11:34:45	11:45:41	656022	5.0.10.0	4_exp_AWA_CON_EVA_AMP	159	Rpleas_acq	Oppo	Lpleas	Amasked	CS_A	2pleas	distractor2	CONbeforeEVA	cond_US_unple_123_masked_CS1	condtest_masked_1	8	3	400	1	300	300	0	0	387	50	0	1	0	0	0	1	blank2r.bmp	0	1	+	0	3	B3r.bmp	492	1	blank2r.bmp	786	1	CPLW	786	1	blank2r.bmp	866	3	sterben	866	1	!	1239	1	!	1292	0	0	0	0	0	0	0	0	0	0	0	0	0	0	0	0	0	0	0	0	0	0	0	0	0	0	0
031119	11:34:45	11:45:44	658261	5.0.10.0	4_exp_AWA_CON_EVA_AMP	159	Rpleas_acq	Oppo	Lpleas	Amasked	CS_A	2pleas	distractor2	CONbeforeEVA	cond_new_pleas_456_masked_CS2	condtest_masked_1	8	4	400	1	300	300	0	0	442	46	0	1	0	0	0	1	blank2r.bmp	0	1	+	0	2	B2r.bmp	492	1	blank2r.bmp	786	1	DHJF	786	1	blank2r.bmp	866	2	träumen	866	1	!	1239	1	!	1346	0	0	0	0	0	0	0	0	0	0	0	0	0	0	0	0	0	0	0	0	0	0	0	0	0	0	0
031119	11:34:45	11:45:46	660474	5.0.10.0	4_exp_AWA_CON_EVA_AMP	159	Rpleas_acq	Oppo	Lpleas	Amasked	CS_A	2pleas	distractor2	CONbeforeEVA	cond_new_pleas_456_masked_CS1	condtest_masked_1	8	5	400	1	300	300	0	0	406	50	0	0	0	0	0	1	blank2r.bmp	0	1	+	0	1	B1r.bmp	492	1	blank2r.bmp	786	1	CPLW	786	1	blank2r.bmp	866	3	besonnen	866	1	!	1239	1	!	1306	0	0	0	0	0	0	0	0	0	0	0	0	0	0	0	0	0	0	0	0	0	0	0	0	0	0	0
031119	11:34:45	11:45:48	662686	5.0.10.0	4_exp_AWA_CON_EVA_AMP	159	Rpleas_acq	Oppo	Lpleas	Amasked	CS_A	2pleas	distractor2	CONbeforeEVA	cond_US_pleas_123_masked_CS2	condtest_masked_1	8	6	400	1	300	300	0	0	423	46	0	1	0	0	0	1	blank2r.bmp	0	1	+	0	4	B4r.bmp	492	1	blank2r.bmp	786	1	DHJF	786	1	blank2r.bmp	866	2	vertrauen	866	1	!	1239	1	!	1319	0	0	0	0	0	0	0	0	0	0	0	0	0	0	0	0	0	0	0	0	0	0	0	0	0	0	0
031119	11:34:45	11:45:50	664912	5.0.10.0	4_exp_AWA_CON_EVA_AMP	159	Rpleas_acq	Oppo	Lpleas	Amasked	CS_A	2pleas	distractor2	CONbeforeEVA	cond_new_unple_456_masked_CS1	condtest_masked_1	8	7	400	1	300	300	0	0	427	50	0	1	0	0	0	1	blank2r.bmp	0	1	+	0	2	B2r.bmp	492	1	blank2r.bmp	786	1	CPLW	786	1	blank2r.bmp	866	3	bange	866	1	!	1239	1	!	1332	0	0	0	0	0	0	0	0	0	0	0	0	0	0	0	0	0	0	0	0	0	0	0	0	0	0	0
031119	11:34:45	11:45:52	667111	5.0.10.0	4_exp_AWA_CON_EVA_AMP	159	Rpleas_acq	Oppo	Lpleas	Amasked	CS_A	2pleas	distractor2	CONbeforeEVA	cond_new_unple_456_masked_CS2	condtest_masked_1	8	8	400	1	300	300	0	0	409	50	0	1	0	0	0	1	blank2r.bmp	0	1	+	0	3	B3r.bmp	492	1	blank2r.bmp	786	1	DHJF	786	1	blank2r.bmp	866	1	verbissen	866	1	!	1239	1	!	1306	0	0	0	0	0	0	0	0	0	0	0	0	0	0	0	0	0	0	0	0	0	0	0	0	0	0	0
031119	11:34:45	11:46:05	680186	5.0.10.0	4_exp_AWA_CON_EVA_AMP	159	Rpleas_acq	Oppo	Lpleas	Amasked	CS_A	2pleas	distractor2	CONbeforeEVA	cond_new_pleas_456_masked_CS1	condtest_masked_2	9	1	400	0	300	300	0	0	3020	46	0	1	0	0	0	1	blank2r.bmp	0	1	+	0	6	C2r.bmp	492	1	blank2r.bmp	786	1	CPLW	786	1	blank2r.bmp	866	1	vergnügt	866	1	!	1239	1	!	-1	0	0	0	0	0	0	0	0	0	0	0	0	0	0	0	0	0	0	0	0	0	0	0	0	0	0	0
031119	11:34:45	11:46:08	682385	5.0.10.0	4_exp_AWA_CON_EVA_AMP	159	Rpleas_acq	Oppo	Lpleas	Amasked	CS_A	2pleas	distractor2	CONbeforeEVA	cond_new_unple_456_masked_CS2	condtest_masked_2	9	2	400	1	300	300	0	0	398	50	0	1	0	0	0	1	blank2r.bmp	0	1	+	0	5	C1r.bmp	492	1	blank2r.bmp	786	1	DHJF	786	1	blank2r.bmp	866	2	töten	866	1	!	1239	1	!	1292	0	0	0	0	0	0	0	0	0	0	0	0	0	0	0	0	0	0	0	0	0	0	0	0	0	0	0
031119	11:34:45	11:46:10	684610	5.0.10.0	4_exp_AWA_CON_EVA_AMP	159	Rpleas_acq	Oppo	Lpleas	Amasked	CS_A	2pleas	distractor2	CONbeforeEVA	cond_US_pleas_123_masked_CS1	condtest_masked_2	9	3	400	1	300	300	0	0	434	46	0	1	0	0	0	1	blank2r.bmp	0	1	+	0	8	C4r.bmp	492	1	blank2r.bmp	786	1	CPLW	786	1	blank2r.bmp	866	3	sonnig	866	1	!	1239	1	!	1332	0	0	0	0	0	0	0	0	0	0	0	0	0	0	0	0	0	0	0	0	0	0	0	0	0	0	0
031119	11:34:45	11:46:12	686703	5.0.10.0	4_exp_AWA_CON_EVA_AMP	159	Rpleas_acq	Oppo	Lpleas	Amasked	CS_A	2pleas	distractor2	CONbeforeEVA	cond_new_pleas_456_masked_CS1	condtest_masked_2	9	4	400	0	300	300	0	0	330	50	0	0	0	0	0	1	blank2r.bmp	0	1	+	0	7	C3r.bmp	492	1	blank2r.bmp	786	1	CPLW	786	1	blank2r.bmp	866	2	träumen	866	1	!	-1	1	!	-1	0	0	0	0	0	0	0	0	0	0	0	0	0	0	0	0	0	0	0	0	0	0	0	0	0	0	0
031119	11:34:45	11:46:14	688982	5.0.10.0	4_exp_AWA_CON_EVA_AMP	159	Rpleas_acq	Oppo	Lpleas	Amasked	CS_A	2pleas	distractor2	CONbeforeEVA	cond_US_pleas_123_masked_CS2	condtest_masked_2	9	5	400	0	300	300	0	0	479	50	0	0	0	0	0	1	blank2r.bmp	0	1	+	0	5	C1r.bmp	492	1	blank2r.bmp	786	1	DHJF	786	1	blank2r.bmp	866	2	vertrauen	866	1	!	1239	1	!	-1	0	0	0	0	0	0	0	0	0	0	0	0	0	0	0	0	0	0	0	0	0	0	0	0	0	0	0
031119	11:34:45	11:46:17	691234	5.0.10.0	4_exp_AWA_CON_EVA_AMP	159	Rpleas_acq	Oppo	Lpleas	Amasked	CS_A	2pleas	distractor2	CONbeforeEVA	cond_new_unple_456_masked_CS1	condtest_masked_2	9	6	400	1	300	300	0	0	439	50	0	1	0	0	0	1	blank2r.bmp	0	1	+	0	3	B3r.bmp	492	1	blank2r.bmp	786	1	CPLW	786	1	blank2r.bmp	866	3	bange	866	1	!	1239	1	!	1346	0	0	0	0	0	0	0	0	0	0	0	0	0	0	0	0	0	0	0	0	0	0	0	0	0	0	0
031119	11:34:45	11:46:19	693407	5.0.10.0	4_exp_AWA_CON_EVA_AMP	159	Rpleas_acq	Oppo	Lpleas	Amasked	CS_A	2pleas	distractor2	CONbeforeEVA	cond_new_unple_456_masked_CS2	condtest_masked_2	9	7	400	1	300	300	0	0	376	50	0	1	0	0	0	1	blank2r.bmp	0	1	+	0	6	C2r.bmp	492	1	blank2r.bmp	786	1	DHJF	786	1	blank2r.bmp	866	2	töten	866	1	!	1239	1	!	1279	0	0	0	0	0	0	0	0	0	0	0	0	0	0	0	0	0	0	0	0	0	0	0	0	0	0	0
031119	11:34:45	11:46:21	695619	5.0.10.0	4_exp_AWA_CON_EVA_AMP	159	Rpleas_acq	Oppo	Lpleas	Amasked	CS_A	2pleas	distractor2	CONbeforeEVA	cond_US_pleas_123_masked_CS1	condtest_masked_2	9	8	400	1	300	300	0	0	406	46	0	1	0	0	0	1	blank2r.bmp	0	1	+	0	2	B2r.bmp	492	1	blank2r.bmp	786	1	CPLW	786	1	blank2r.bmp	866	1	genießen	866	1	!	1239	1	!	1306	0	0	0	0	0	0	0	0	0	0	0	0	0	0	0	0	0	0	0	0	0	0	0	0	0	0	0
031119	11:34:45	11:46:23	697792	5.0.10.0	4_exp_AWA_CON_EVA_AMP	159	Rpleas_acq	Oppo	Lpleas	Amasked	CS_A	2pleas	distractor2	CONbeforeEVA	cond_US_unple_123_masked_CS2	condtest_masked_2	9	9	400	1	300	300	0	0	373	46	0	0	0	0	0	1	blank2r.bmp	0	1	+	0	7	C3r.bmp	492	1	blank2r.bmp	786	1	DHJF	786	1	blank2r.bmp	866	2	versagen	866	1	!	1239	1	!	1279	0	0	0	0	0	0	0	0	0	0	0	0	0	0	0	0	0	0	0	0	0	0	0	0	0	0	0
031119	11:34:45	11:46:25	700057	5.0.10.0	4_exp_AWA_CON_EVA_AMP	159	Rpleas_acq	Oppo	Lpleas	Amasked	CS_A	2pleas	distractor2	CONbeforeEVA	cond_new_unple_456_masked_CS2	condtest_masked_2	9	10	400	0	300	300	0	0	479	50	0	1	0	0	0	1	blank2r.bmp	0	1	+	0	4	B4r.bmp	492	1	blank2r.bmp	786	1	DHJF	786	1	blank2r.bmp	866	1	verbissen	866	1	!	1239	1	!	-1	0	0	0	0	0	0	0	0	0	0	0	0	0	0	0	0	0	0	0	0	0	0	0	0	0	0	0
031119	11:34:45	11:46:27	702217	5.0.10.0	4_exp_AWA_CON_EVA_AMP	159	Rpleas_acq	Oppo	Lpleas	Amasked	CS_A	2pleas	distractor2	CONbeforeEVA	cond_US_unple_123_masked_CS2	condtest_masked_2	9	11	400	1	300	300	0	0	349	46	0	0	0	0	0	1	blank2r.bmp	0	1	+	0	1	B1r.bmp	492	1	blank2r.bmp	786	1	DHJF	786	1	blank2r.bmp	866	1	gemein	866	1	!	1239	1	!	1252	0	0	0	0	0	0	0	0	0	0	0	0	0	0	0	0	0	0	0	0	0	0	0	0	0	0	0
031119	11:34:45	11:46:30	704216	5.0.10.0	4_exp_AWA_CON_EVA_AMP	159	Rpleas_acq	Oppo	Lpleas	Amasked	CS_A	2pleas	distractor2	CONbeforeEVA	cond_US_pleas_123_masked_CS1	condtest_masked_2	9	12	400	0	300	300	0	0	237	50	0	0	0	0	0	1	blank2r.bmp	0	1	+	0	8	C4r.bmp	492	1	blank2r.bmp	786	1	CPLW	786	1	blank2r.bmp	866	3	sonnig	866	1	!	-1	1	!	-1	0	0	0	0	0	0	0	0	0	0	0	0	0	0	0	0	0	0	0	0	0	0	0	0	0	0	0
031119	11:34:45	11:46:32	706481	5.0.10.0	4_exp_AWA_CON_EVA_AMP	159	Rpleas_acq	Oppo	Lpleas	Amasked	CS_A	2pleas	distractor2	CONbeforeEVA	cond_US_unple_123_masked_CS2	condtest_masked_2	9	13	400	0	300	300	0	0	479	50	0	1	0	0	0	1	blank2r.bmp	0	1	+	0	1	B1r.bmp	492	1	blank2r.bmp	786	1	DHJF	786	1	blank2r.bmp	866	2	versagen	866	1	!	1239	1	!	-1	0	0	0	0	0	0	0	0	0	0	0	0	0	0	0	0	0	0	0	0	0	0	0	0	0	0	0
031119	11:34:45	11:46:34	708761	5.0.10.0	4_exp_AWA_CON_EVA_AMP	159	Rpleas_acq	Oppo	Lpleas	Amasked	CS_A	2pleas	distractor2	CONbeforeEVA	cond_new_unple_456_masked_CS1	condtest_masked_2	9	14	400	1	300	300	0	0	464	50	0	1	0	0	0	1	blank2r.bmp	0	1	+	0	6	C2r.bmp	492	1	blank2r.bmp	786	1	CPLW	786	1	blank2r.bmp	866	3	bange	866	1	!	1239	1	!	1359	0	0	0	0	0	0	0	0	0	0	0	0	0	0	0	0	0	0	0	0	0	0	0	0	0	0	0
031119	11:34:45	11:46:36	710933	5.0.10.0	4_exp_AWA_CON_EVA_AMP	159	Rpleas_acq	Oppo	Lpleas	Amasked	CS_A	2pleas	distractor2	CONbeforeEVA	cond_US_unple_123_masked_CS2	condtest_masked_2	9	15	400	1	300	300	0	0	381	50	0	1	0	0	0	1	blank2r.bmp	0	1	+	0	5	C1r.bmp	492	1	blank2r.bmp	786	1	DHJF	786	1	blank2r.bmp	866	3	sterben	866	1	!	1239	1	!	1279	0	0	0	0	0	0	0	0	0	0	0	0	0	0	0	0	0	0	0	0	0	0	0	0	0	0	0
031119	11:34:45	11:46:38	712999	5.0.10.0	4_exp_AWA_CON_EVA_AMP	159	Rpleas_acq	Oppo	Lpleas	Amasked	CS_A	2pleas	distractor2	CONbeforeEVA	cond_US_unple_123_masked_CS1	condtest_masked_2	9	16	400	0	300	300	0	0	300	46	0	0	0	0	0	1	blank2r.bmp	0	1	+	0	8	C4r.bmp	492	1	blank2r.bmp	786	1	CPLW	786	1	blank2r.bmp	866	3	sterben	866	1	!	-1	1	!	-1	0	0	0	0	0	0	0	0	0	0	0	0	0	0	0	0	0	0	0	0	0	0	0	0	0	0	0
031119	11:34:45	11:46:41	715225	5.0.10.0	4_exp_AWA_CON_EVA_AMP	159	Rpleas_acq	Oppo	Lpleas	Amasked	CS_A	2pleas	distractor2	CONbeforeEVA	cond_new_pleas_456_masked_CS1	condtest_masked_2	9	17	400	1	300	300	0	0	412	46	0	1	0	0	0	1	blank2r.bmp	0	1	+	0	3	B3r.bmp	492	1	blank2r.bmp	786	1	CPLW	786	1	blank2r.bmp	866	1	vergnügt	866	1	!	1239	1	!	1319	0	0	0	0	0	0	0	0	0	0	0	0	0	0	0	0	0	0	0	0	0	0	0	0	0	0	0
031119	11:34:45	11:46:43	717437	5.0.10.0	4_exp_AWA_CON_EVA_AMP	159	Rpleas_acq	Oppo	Lpleas	Amasked	CS_A	2pleas	distractor2	CONbeforeEVA	cond_new_unple_456_masked_CS2	condtest_masked_2	9	18	400	1	300	300	0	0	412	50	0	1	0	0	0	1	blank2r.bmp	0	1	+	0	2	B2r.bmp	492	1	blank2r.bmp	786	1	DHJF	786	1	blank2r.bmp	866	1	verbissen	866	1	!	1239	1	!	1319	0	0	0	0	0	0	0	0	0	0	0	0	0	0	0	0	0	0	0	0	0	0	0	0	0	0	0
031119	11:34:45	11:46:46	721089	5.0.10.0	4_exp_AWA_CON_EVA_AMP	159	Rpleas_acq	Oppo	Lpleas	Amasked	CS_A	2pleas	distractor2	CONbeforeEVA	cond_new_pleas_456_masked_CS2	condtest_masked_2	9	19	400	0	300	300	0	0	1889	46	0	1	0	0	0	1	blank2r.bmp	0	1	+	0	4	B4r.bmp	492	1	blank2r.bmp	786	1	DHJF	786	1	blank2r.bmp	866	3	besonnen	866	1	!	1239	1	!	-1	0	0	0	0	0	0	0	0	0	0	0	0	0	0	0	0	0	0	0	0	0	0	0	0	0	0	0
031119	11:34:45	11:46:49	723315	5.0.10.0	4_exp_AWA_CON_EVA_AMP	159	Rpleas_acq	Oppo	Lpleas	Amasked	CS_A	2pleas	distractor2	CONbeforeEVA	cond_new_pleas_456_masked_CS2	condtest_masked_2	9	20	400	1	300	300	0	0	423	46	0	1	0	0	0	1	blank2r.bmp	0	1	+	0	7	C3r.bmp	492	1	blank2r.bmp	786	1	DHJF	786	1	blank2r.bmp	866	1	vergnügt	866	1	!	1239	1	!	1319	0	0	0	0	0	0	0	0	0	0	0	0	0	0	0	0	0	0	0	0	0	0	0	0	0	0	0
031119	11:34:45	11:46:51	725487	5.0.10.0	4_exp_AWA_CON_EVA_AMP	159	Rpleas_acq	Oppo	Lpleas	Amasked	CS_A	2pleas	distractor2	CONbeforeEVA	cond_US_pleas_123_masked_CS2	condtest_masked_2	9	21	400	1	300	300	0	0	376	46	0	1	0	0	0	1	blank2r.bmp	0	1	+	0	2	B2r.bmp	492	1	blank2r.bmp	786	1	DHJF	786	1	blank2r.bmp	866	3	sonnig	866	1	!	1239	1	!	1279	0	0	0	0	0	0	0	0	0	0	0	0	0	0	0	0	0	0	0	0	0	0	0	0	0	0	0
031119	11:34:45	11:46:53	727713	5.0.10.0	4_exp_AWA_CON_EVA_AMP	159	Rpleas_acq	Oppo	Lpleas	Amasked	CS_A	2pleas	distractor2	CONbeforeEVA	cond_US_unple_123_masked_CS1	condtest_masked_2	9	22	400	1	300	300	0	0	430	50	0	1	0	0	0	1	blank2r.bmp	0	1	+	0	4	B4r.bmp	492	1	blank2r.bmp	786	1	CPLW	786	1	blank2r.bmp	866	2	versagen	866	1	!	1239	1	!	1332	0	0	0	0	0	0	0	0	0	0	0	0	0	0	0	0	0	0	0	0	0	0	0	0	0	0	0
031119	11:34:45	11:46:56	730512	5.0.10.0	4_exp_AWA_CON_EVA_AMP	159	Rpleas_acq	Oppo	Lpleas	Amasked	CS_A	2pleas	distractor2	CONbeforeEVA	cond_US_unple_123_masked_CS1	condtest_masked_2	9	23	400	0	300	300	0	0	1019	50	0	1	0	0	0	1	blank2r.bmp	0	1	+	0	3	B3r.bmp	492	1	blank2r.bmp	786	1	CPLW	786	1	blank2r.bmp	866	1	gemein	866	1	!	1239	1	!	-1	0	0	0	0	0	0	0	0	0	0	0	0	0	0	0	0	0	0	0	0	0	0	0	0	0	0	0
031119	11:34:45	11:46:58	732604	5.0.10.0	4_exp_AWA_CON_EVA_AMP	159	Rpleas_acq	Oppo	Lpleas	Amasked	CS_A	2pleas	distractor2	CONbeforeEVA	cond_US_unple_123_masked_CS1	condtest_masked_2	9	24	400	0	300	300	0	0	316	50	0	1	0	0	0	1	blank2r.bmp	0	1	+	0	7	C3r.bmp	492	1	blank2r.bmp	786	1	CPLW	786	1	blank2r.bmp	866	1	gemein	866	1	!	-1	1	!	-1	0	0	0	0	0	0	0	0	0	0	0	0	0	0	0	0	0	0	0	0	0	0	0	0	0	0	0
031119	11:34:45	11:47:00	734763	5.0.10.0	4_exp_AWA_CON_EVA_AMP	159	Rpleas_acq	Oppo	Lpleas	Amasked	CS_A	2pleas	distractor2	CONbeforeEVA	cond_US_pleas_123_masked_CS2	condtest_masked_2	9	25	400	1	300	300	0	0	347	46	0	1	0	0	0	1	blank2r.bmp	0	1	+	0	5	C1r.bmp	492	1	blank2r.bmp	786	1	DHJF	786	1	blank2r.bmp	866	2	vertrauen	866	1	!	1239	1	!	1252	0	0	0	0	0	0	0	0	0	0	0	0	0	0	0	0	0	0	0	0	0	0	0	0	0	0	0
031119	11:34:45	11:47:02	736976	5.0.10.0	4_exp_AWA_CON_EVA_AMP	159	Rpleas_acq	Oppo	Lpleas	Amasked	CS_A	2pleas	distractor2	CONbeforeEVA	cond_new_pleas_456_masked_CS2	condtest_masked_2	9	26	400	1	300	300	0	0	400	50	0	0	0	0	0	1	blank2r.bmp	0	1	+	0	6	C2r.bmp	492	1	blank2r.bmp	786	1	DHJF	786	1	blank2r.bmp	866	2	träumen	866	1	!	1239	1	!	1306	0	0	0	0	0	0	0	0	0	0	0	0	0	0	0	0	0	0	0	0	0	0	0	0	0	0	0
031119	11:34:45	11:47:05	739268	5.0.10.0	4_exp_AWA_CON_EVA_AMP	159	Rpleas_acq	Oppo	Lpleas	Amasked	CS_A	2pleas	distractor2	CONbeforeEVA	cond_US_pleas_123_masked_CS1	condtest_masked_2	9	27	400	0	300	300	0	0	523	46	0	1	0	0	0	1	blank2r.bmp	0	1	+	0	8	C4r.bmp	492	1	blank2r.bmp	786	1	CPLW	786	1	blank2r.bmp	866	1	genießen	866	1	!	1239	1	!	-1	0	0	0	0	0	0	0	0	0	0	0	0	0	0	0	0	0	0	0	0	0	0	0	0	0	0	0
031119	11:34:45	11:47:07	741360	5.0.10.0	4_exp_AWA_CON_EVA_AMP	159	Rpleas_acq	Oppo	Lpleas	Amasked	CS_A	2pleas	distractor2	CONbeforeEVA	cond_new_pleas_456_masked_CS2	condtest_masked_2	9	28	400	0	300	300	0	0	315	46	0	1	0	0	0	1	blank2r.bmp	0	1	+	0	1	B1r.bmp	492	1	blank2r.bmp	786	1	DHJF	786	1	blank2r.bmp	866	3	besonnen	866	1	!	-1	1	!	-1	0	0	0	0	0	0	0	0	0	0	0	0	0	0	0	0	0	0	0	0	0	0	0	0	0	0	0
031119	11:34:45	11:47:09	743773	5.0.10.0	4_exp_AWA_CON_EVA_AMP	159	Rpleas_acq	Oppo	Lpleas	Amasked	CS_A	2pleas	distractor2	CONbeforeEVA	cond_US_pleas_123_masked_CS2	condtest_masked_2	9	29	400	0	300	300	0	0	635	46	0	1	0	0	0	1	blank2r.bmp	0	1	+	0	1	B1r.bmp	492	1	blank2r.bmp	786	1	DHJF	786	1	blank2r.bmp	866	1	genießen	866	1	!	1239	1	!	-1	0	0	0	0	0	0	0	0	0	0	0	0	0	0	0	0	0	0	0	0	0	0	0	0	0	0	0
031119	11:34:45	11:47:11	745865	5.0.10.0	4_exp_AWA_CON_EVA_AMP	159	Rpleas_acq	Oppo	Lpleas	Amasked	CS_A	2pleas	distractor2	CONbeforeEVA	cond_new_pleas_456_masked_CS1	condtest_masked_2	9	30	400	0	300	300	0	0	313	46	0	1	0	0	0	1	blank2r.bmp	0	1	+	0	4	B4r.bmp	492	1	blank2r.bmp	786	1	CPLW	786	1	blank2r.bmp	866	2	träumen	866	1	!	-1	1	!	-1	0	0	0	0	0	0	0	0	0	0	0	0	0	0	0	0	0	0	0	0	0	0	0	0	0	0	0
031119	11:34:45	11:47:13	748131	5.0.10.0	4_exp_AWA_CON_EVA_AMP	159	Rpleas_acq	Oppo	Lpleas	Amasked	CS_A	2pleas	distractor2	CONbeforeEVA	cond_US_unple_123_masked_CS2	condtest_masked_2	9	31	400	1	300	300	0	0	456	50	0	1	0	0	0	1	blank2r.bmp	0	1	+	0	5	C1r.bmp	492	1	blank2r.bmp	786	1	DHJF	786	1	blank2r.bmp	866	2	versagen	866	1	!	1239	1	!	1359	0	0	0	0	0	0	0	0	0	0	0	0	0	0	0	0	0	0	0	0	0	0	0	0	0	0	0
031119	11:34:45	11:47:16	750397	5.0.10.0	4_exp_AWA_CON_EVA_AMP	159	Rpleas_acq	Oppo	Lpleas	Amasked	CS_A	2pleas	distractor2	CONbeforeEVA	cond_new_pleas_456_masked_CS2	condtest_masked_2	9	32	400	1	300	300	0	0	454	46	0	1	0	0	0	1	blank2r.bmp	0	1	+	0	2	B2r.bmp	492	1	blank2r.bmp	786	1	DHJF	786	1	blank2r.bmp	866	1	vergnügt	866	1	!	1239	1	!	1359	0	0	0	0	0	0	0	0	0	0	0	0	0	0	0	0	0	0	0	0	0	0	0	0	0	0	0
031119	11:34:45	11:47:18	752449	5.0.10.0	4_exp_AWA_CON_EVA_AMP	159	Rpleas_acq	Oppo	Lpleas	Amasked	CS_A	2pleas	distractor2	CONbeforeEVA	cond_US_pleas_123_masked_CS2	condtest_masked_2	9	33	400	0	300	300	0	0	278	46	0	1	0	0	0	1	blank2r.bmp	0	1	+	0	3	B3r.bmp	492	1	blank2r.bmp	786	1	DHJF	786	1	blank2r.bmp	866	2	vertrauen	866	1	!	-1	1	!	-1	0	0	0	0	0	0	0	0	0	0	0	0	0	0	0	0	0	0	0	0	0	0	0	0	0	0	0
031119	11:34:45	11:47:20	754542	5.0.10.0	4_exp_AWA_CON_EVA_AMP	159	Rpleas_acq	Oppo	Lpleas	Amasked	CS_A	2pleas	distractor2	CONbeforeEVA	cond_US_unple_123_masked_CS1	condtest_masked_2	9	34	400	0	300	300	0	0	309	46	0	0	0	0	0	1	blank2r.bmp	0	1	+	0	7	C3r.bmp	492	1	blank2r.bmp	786	1	CPLW	786	1	blank2r.bmp	866	3	sterben	866	1	!	-1	1	!	-1	0	0	0	0	0	0	0	0	0	0	0	0	0	0	0	0	0	0	0	0	0	0	0	0	0	0	0
031119	11:34:45	11:47:22	756741	5.0.10.0	4_exp_AWA_CON_EVA_AMP	159	Rpleas_acq	Oppo	Lpleas	Amasked	CS_A	2pleas	distractor2	CONbeforeEVA	cond_new_pleas_456_masked_CS1	condtest_masked_2	9	35	400	1	300	300	0	0	398	46	0	1	0	0	0	1	blank2r.bmp	0	1	+	0	6	C2r.bmp	492	1	blank2r.bmp	786	1	CPLW	786	1	blank2r.bmp	866	3	besonnen	866	1	!	1239	1	!	1292	0	0	0	0	0	0	0	0	0	0	0	0	0	0	0	0	0	0	0	0	0	0	0	0	0	0	0
031119	11:34:45	11:47:24	759007	5.0.10.0	4_exp_AWA_CON_EVA_AMP	159	Rpleas_acq	Oppo	Lpleas	Amasked	CS_A	2pleas	distractor2	CONbeforeEVA	cond_new_unple_456_masked_CS1	condtest_masked_2	9	36	400	0	300	300	0	0	500	50	0	1	0	0	0	1	blank2r.bmp	0	1	+	0	8	C4r.bmp	492	1	blank2r.bmp	786	1	CPLW	786	1	blank2r.bmp	866	2	töten	866	1	!	1239	1	!	-1	0	0	0	0	0	0	0	0	0	0	0	0	0	0	0	0	0	0	0	0	0	0	0	0	0	0	0
031119	11:34:45	11:47:26	761206	5.0.10.0	4_exp_AWA_CON_EVA_AMP	159	Rpleas_acq	Oppo	Lpleas	Amasked	CS_A	2pleas	distractor2	CONbeforeEVA	cond_US_pleas_123_masked_CS1	condtest_masked_2	9	37	400	1	300	300	0	0	375	46	0	1	0	0	0	1	blank2r.bmp	0	1	+	0	3	B3r.bmp	492	1	blank2r.bmp	786	1	CPLW	786	1	blank2r.bmp	866	3	sonnig	866	1	!	1239	1	!	1279	0	0	0	0	0	0	0	0	0	0	0	0	0	0	0	0	0	0	0	0	0	0	0	0	0	0	0
031119	11:34:45	11:47:29	763418	5.0.10.0	4_exp_AWA_CON_EVA_AMP	159	Rpleas_acq	Oppo	Lpleas	Amasked	CS_A	2pleas	distractor2	CONbeforeEVA	cond_new_unple_456_masked_CS1	condtest_masked_2	9	38	400	1	300	300	0	0	400	50	0	1	0	0	0	1	blank2r.bmp	0	1	+	0	4	B4r.bmp	492	1	blank2r.bmp	786	1	CPLW	786	1	blank2r.bmp	866	3	bange	866	1	!	1239	1	!	1306	0	0	0	0	0	0	0	0	0	0	0	0	0	0	0	0	0	0	0	0	0	0	0	0	0	0	0
031119	11:34:45	11:47:31	765617	5.0.10.0	4_exp_AWA_CON_EVA_AMP	159	Rpleas_acq	Oppo	Lpleas	Amasked	CS_A	2pleas	distractor2	CONbeforeEVA	cond_new_unple_456_masked_CS1	condtest_masked_2	9	39	400	1	300	300	0	0	398	46	0	0	0	0	0	1	blank2r.bmp	0	1	+	0	1	B1r.bmp	492	1	blank2r.bmp	786	1	CPLW	786	1	blank2r.bmp	866	1	verbissen	866	1	!	1239	1	!	1292	0	0	0	0	0	0	0	0	0	0	0	0	0	0	0	0	0	0	0	0	0	0	0	0	0	0	0
031119	11:34:45	11:47:33	767763	5.0.10.0	4_exp_AWA_CON_EVA_AMP	159	Rpleas_acq	Oppo	Lpleas	Amasked	CS_A	2pleas	distractor2	CONbeforeEVA	cond_new_unple_456_masked_CS2	condtest_masked_2	9	40	400	1	300	300	0	0	346	50	0	1	0	0	0	1	blank2r.bmp	0	1	+	0	6	C2r.bmp	492	1	blank2r.bmp	786	1	DHJF	786	1	blank2r.bmp	866	2	töten	866	1	!	1239	1	!	1252	0	0	0	0	0	0	0	0	0	0	0	0	0	0	0	0	0	0	0	0	0	0	0	0	0	0	0
031119	11:34:45	11:47:50	784223	5.0.10.0	4_exp_AWA_CON_EVA_AMP	159	Rpleas_acq	Oppo	Lpleas	Amasked	CS_A	2pleas	distractor2	CONbeforeEVA	cond_US_unple_456_masked_CS2	condtest_masked_3	10	1	400	0	300	300	0	0	502	50	0	1	0	0	0	1	blank2r.bmp	0	1	+	0	8	C4r.bmp	492	1	blank2r.bmp	786	1	DHJF	786	1	blank2r.bmp	866	2	geizig	866	1	!	1239	1	!	-1	0	0	0	0	0	0	0	0	0	0	0	0	0	0	0	0	0	0	0	0	0	0	0	0	0	0	0
031119	11:34:45	11:47:52	786489	5.0.10.0	4_exp_AWA_CON_EVA_AMP	159	Rpleas_acq	Oppo	Lpleas	Amasked	CS_A	2pleas	distractor2	CONbeforeEVA	cond_new_pleas_123_masked_CS2	condtest_masked_3	10	2	400	1	300	300	0	0	462	46	0	1	0	0	0	1	blank2r.bmp	0	1	+	0	2	B2r.bmp	492	1	blank2r.bmp	786	1	DHJF	786	1	blank2r.bmp	866	2	kreativ	866	1	!	1239	1	!	1359	0	0	0	0	0	0	0	0	0	0	0	0	0	0	0	0	0	0	0	0	0	0	0	0	0	0	0
031119	11:34:45	11:47:54	788661	5.0.10.0	4_exp_AWA_CON_EVA_AMP	159	Rpleas_acq	Oppo	Lpleas	Amasked	CS_A	2pleas	distractor2	CONbeforeEVA	cond_new_pleas_123_masked_CS2	condtest_masked_3	10	3	400	1	300	300	0	0	380	46	0	1	0	0	0	1	blank2r.bmp	0	1	+	0	7	C3r.bmp	492	1	blank2r.bmp	786	1	DHJF	786	1	blank2r.bmp	866	1	kuss	866	1	!	1239	1	!	1279	0	0	0	0	0	0	0	0	0	0	0	0	0	0	0	0	0	0	0	0	0	0	0	0	0	0	0
031119	11:34:45	11:47:56	790980	5.0.10.0	4_exp_AWA_CON_EVA_AMP	159	Rpleas_acq	Oppo	Lpleas	Amasked	CS_A	2pleas	distractor2	CONbeforeEVA	cond_US_pleas_456_masked_CS1	condtest_masked_3	10	4	400	0	300	300	0	0	537	50	0	0	0	0	0	1	blank2r.bmp	0	1	+	0	5	C1r.bmp	492	1	blank2r.bmp	786	1	CPLW	786	1	blank2r.bmp	866	3	anregung	866	1	!	1239	1	!	-1	0	0	0	0	0	0	0	0	0	0	0	0	0	0	0	0	0	0	0	0	0	0	0	0	0	0	0
031119	11:34:45	11:47:59	793246	5.0.10.0	4_exp_AWA_CON_EVA_AMP	159	Rpleas_acq	Oppo	Lpleas	Amasked	CS_A	2pleas	distractor2	CONbeforeEVA	cond_new_unple_123_masked_CS2	condtest_masked_3	10	5	400	0	300	300	0	0	481	50	0	1	0	0	0	1	blank2r.bmp	0	1	+	0	4	B4r.bmp	492	1	blank2r.bmp	786	1	DHJF	786	1	blank2r.bmp	866	2	krank	866	1	!	1239	1	!	-1	0	0	0	0	0	0	0	0	0	0	0	0	0	0	0	0	0	0	0	0	0	0	0	0	0	0	0
031119	11:34:45	11:48:01	795538	5.0.10.0	4_exp_AWA_CON_EVA_AMP	159	Rpleas_acq	Oppo	Lpleas	Amasked	CS_A	2pleas	distractor2	CONbeforeEVA	cond_US_pleas_456_masked_CS1	condtest_masked_3	10	6	400	0	300	300	0	0	516	50	0	0	0	0	0	1	blank2r.bmp	0	1	+	0	2	B2r.bmp	492	1	blank2r.bmp	786	1	CPLW	786	1	blank2r.bmp	866	2	gesittet	866	1	!	1239	1	!	-1	0	0	0	0	0	0	0	0	0	0	0	0	0	0	0	0	0	0	0	0	0	0	0	0	0	0	0
031119	11:34:45	11:48:03	797804	5.0.10.0	4_exp_AWA_CON_EVA_AMP	159	Rpleas_acq	Oppo	Lpleas	Amasked	CS_A	2pleas	distractor2	CONbeforeEVA	cond_US_unple_456_masked_CS1	condtest_masked_3	10	7	400	1	300	300	0	0	457	50	0	1	0	0	0	1	blank2r.bmp	0	1	+	0	3	B3r.bmp	492	1	blank2r.bmp	786	1	CPLW	786	1	blank2r.bmp	866	3	ausrottung	866	1	!	1239	1	!	1359	0	0	0	0	0	0	0	0	0	0	0	0	0	0	0	0	0	0	0	0	0	0	0	0	0	0	0
031119	11:34:45	11:48:05	799950	5.0.10.0	4_exp_AWA_CON_EVA_AMP	159	Rpleas_acq	Oppo	Lpleas	Amasked	CS_A	2pleas	distractor2	CONbeforeEVA	cond_US_pleas_456_masked_CS1	condtest_masked_3	10	8	400	1	300	300	0	0	346	46	0	1	0	0	0	1	blank2r.bmp	0	1	+	0	8	C4r.bmp	492	1	blank2r.bmp	786	1	CPLW	786	1	blank2r.bmp	866	1	gütig	866	1	!	1239	1	!	1252	0	0	0	0	0	0	0	0	0	0	0	0	0	0	0	0	0	0	0	0	0	0	0	0	0	0	0
031119	11:34:45	11:48:08	802215	5.0.10.0	4_exp_AWA_CON_EVA_AMP	159	Rpleas_acq	Oppo	Lpleas	Amasked	CS_A	2pleas	distractor2	CONbeforeEVA	cond_new_unple_123_masked_CS1	condtest_masked_3	10	9	400	0	300	300	0	0	496	46	0	0	0	0	0	1	blank2r.bmp	0	1	+	0	5	C1r.bmp	492	1	blank2r.bmp	786	1	CPLW	786	1	blank2r.bmp	866	1	krise	866	1	!	1239	1	!	-1	0	0	0	0	0	0	0	0	0	0	0	0	0	0	0	0	0	0	0	0	0	0	0	0	0	0	0
031119	11:34:45	11:48:10	804521	5.0.10.0	4_exp_AWA_CON_EVA_AMP	159	Rpleas_acq	Oppo	Lpleas	Amasked	CS_A	2pleas	distractor2	CONbeforeEVA	cond_new_unple_123_masked_CS1	condtest_masked_3	10	10	400	0	300	300	0	0	519	50	0	1	0	0	0	1	blank2r.bmp	0	1	+	0	1	B1r.bmp	492	1	blank2r.bmp	786	1	CPLW	786	1	blank2r.bmp	866	3	engstirnig	866	1	!	1239	1	!	-1	0	0	0	0	0	0	0	0	0	0	0	0	0	0	0	0	0	0	0	0	0	0	0	0	0	0	0
031119	11:34:45	11:48:12	806627	5.0.10.0	4_exp_AWA_CON_EVA_AMP	159	Rpleas_acq	Oppo	Lpleas	Amasked	CS_A	2pleas	distractor2	CONbeforeEVA	cond_new_unple_123_masked_CS1	condtest_masked_3	10	11	400	0	300	300	0	0	320	50	0	1	0	0	0	1	blank2r.bmp	0	1	+	0	7	C3r.bmp	492	1	blank2r.bmp	786	1	CPLW	786	1	blank2r.bmp	866	1	krise	866	1	!	-1	1	!	-1	0	0	0	0	0	0	0	0	0	0	0	0	0	0	0	0	0	0	0	0	0	0	0	0	0	0	0
031119	11:34:45	11:48:14	808853	5.0.10.0	4_exp_AWA_CON_EVA_AMP	159	Rpleas_acq	Oppo	Lpleas	Amasked	CS_A	2pleas	distractor2	CONbeforeEVA	cond_new_pleas_123_masked_CS2	condtest_masked_3	10	12	400	1	300	300	0	0	418	50	0	0	0	0	0	1	blank2r.bmp	0	1	+	0	6	C2r.bmp	492	1	blank2r.bmp	786	1	DHJF	786	1	blank2r.bmp	866	3	engagiert	866	1	!	1239	1	!	1319	0	0	0	0	0	0	0	0	0	0	0	0	0	0	0	0	0	0	0	0	0	0	0	0	0	0	0
031119	11:34:45	11:48:16	811105	5.0.10.0	4_exp_AWA_CON_EVA_AMP	159	Rpleas_acq	Oppo	Lpleas	Amasked	CS_A	2pleas	distractor2	CONbeforeEVA	cond_US_unple_456_masked_CS2	condtest_masked_3	10	13	400	0	300	300	0	0	485	50	0	1	0	0	0	1	blank2r.bmp	0	1	+	0	2	B2r.bmp	492	1	blank2r.bmp	786	1	DHJF	786	1	blank2r.bmp	866	1	gierig	866	1	!	1239	1	!	-1	0	0	0	0	0	0	0	0	0	0	0	0	0	0	0	0	0	0	0	0	0	0	0	0	0	0	0
031119	11:34:45	11:48:18	813211	5.0.10.0	4_exp_AWA_CON_EVA_AMP	159	Rpleas_acq	Oppo	Lpleas	Amasked	CS_A	2pleas	distractor2	CONbeforeEVA	cond_new_pleas_123_masked_CS1	condtest_masked_3	10	14	400	0	300	300	0	0	321	46	0	1	0	0	0	1	blank2r.bmp	0	1	+	0	7	C3r.bmp	492	1	blank2r.bmp	786	1	CPLW	786	1	blank2r.bmp	866	1	kuss	866	1	!	-1	1	!	-1	0	0	0	0	0	0	0	0	0	0	0	0	0	0	0	0	0	0	0	0	0	0	0	0	0	0	0
031119	11:34:45	11:48:21	815450	5.0.10.0	4_exp_AWA_CON_EVA_AMP	159	Rpleas_acq	Oppo	Lpleas	Amasked	CS_A	2pleas	distractor2	CONbeforeEVA	cond_new_unple_123_masked_CS2	condtest_masked_3	10	15	400	1	300	300	0	0	426	50	0	1	0	0	0	1	blank2r.bmp	0	1	+	0	3	B3r.bmp	492	1	blank2r.bmp	786	1	DHJF	786	1	blank2r.bmp	866	3	engstirnig	866	1	!	1239	1	!	1332	0	0	0	0	0	0	0	0	0	0	0	0	0	0	0	0	0	0	0	0	0	0	0	0	0	0	0
031119	11:34:45	11:48:23	817742	5.0.10.0	4_exp_AWA_CON_EVA_AMP	159	Rpleas_acq	Oppo	Lpleas	Amasked	CS_A	2pleas	distractor2	CONbeforeEVA	cond_US_unple_456_masked_CS1	condtest_masked_3	10	16	400	0	300	300	0	0	521	50	0	1	0	0	0	1	blank2r.bmp	0	1	+	0	5	C1r.bmp	492	1	blank2r.bmp	786	1	CPLW	786	1	blank2r.bmp	866	3	ausrottung	866	1	!	1239	1	!	-1	0	0	0	0	0	0	0	0	0	0	0	0	0	0	0	0	0	0	0	0	0	0	0	0	0	0	0
031119	11:34:45	11:48:25	819928	5.0.10.0	4_exp_AWA_CON_EVA_AMP	159	Rpleas_acq	Oppo	Lpleas	Amasked	CS_A	2pleas	distractor2	CONbeforeEVA	cond_US_pleas_456_masked_CS1	condtest_masked_3	10	17	400	1	300	300	0	0	383	50	0	0	0	0	0	1	blank2r.bmp	0	1	+	0	8	C4r.bmp	492	1	blank2r.bmp	786	1	CPLW	786	1	blank2r.bmp	866	2	gesittet	866	1	!	1239	1	!	1279	0	0	0	0	0	0	0	0	0	0	0	0	0	0	0	0	0	0	0	0	0	0	0	0	0	0	0
031119	11:34:45	11:48:27	822140	5.0.10.0	4_exp_AWA_CON_EVA_AMP	159	Rpleas_acq	Oppo	Lpleas	Amasked	CS_A	2pleas	distractor2	CONbeforeEVA	cond_US_unple_456_masked_CS2	condtest_masked_3	10	18	400	1	300	300	0	0	420	50	0	1	0	0	0	1	blank2r.bmp	0	1	+	0	4	B4r.bmp	492	1	blank2r.bmp	786	1	DHJF	786	1	blank2r.bmp	866	2	geizig	866	1	!	1239	1	!	1319	0	0	0	0	0	0	0	0	0	0	0	0	0	0	0	0	0	0	0	0	0	0	0	0	0	0	0
031119	11:34:45	11:48:30	824353	5.0.10.0	4_exp_AWA_CON_EVA_AMP	159	Rpleas_acq	Oppo	Lpleas	Amasked	CS_A	2pleas	distractor2	CONbeforeEVA	cond_new_unple_123_masked_CS1	condtest_masked_3	10	19	400	1	300	300	0	0	425	50	0	1	0	0	0	1	blank2r.bmp	0	1	+	0	6	C2r.bmp	492	1	blank2r.bmp	786	1	CPLW	786	1	blank2r.bmp	866	2	krank	866	1	!	1239	1	!	1319	0	0	0	0	0	0	0	0	0	0	0	0	0	0	0	0	0	0	0	0	0	0	0	0	0	0	0
031119	11:34:45	11:48:32	826605	5.0.10.0	4_exp_AWA_CON_EVA_AMP	159	Rpleas_acq	Oppo	Lpleas	Amasked	CS_A	2pleas	distractor2	CONbeforeEVA	cond_US_pleas_456_masked_CS2	condtest_masked_3	10	20	400	1	300	300	0	0	441	46	0	1	0	0	0	1	blank2r.bmp	0	1	+	0	1	B1r.bmp	492	1	blank2r.bmp	786	1	DHJF	786	1	blank2r.bmp	866	1	gütig	866	1	!	1239	1	!	1346	0	0	0	0	0	0	0	0	0	0	0	0	0	0	0	0	0	0	0	0	0	0	0	0	0	0	0
031119	11:34:45	11:48:34	828831	5.0.10.0	4_exp_AWA_CON_EVA_AMP	159	Rpleas_acq	Oppo	Lpleas	Amasked	CS_A	2pleas	distractor2	CONbeforeEVA	cond_US_pleas_456_masked_CS2	condtest_masked_3	10	21	400	1	300	300	0	0	428	50	0	0	0	0	0	1	blank2r.bmp	0	1	+	0	4	B4r.bmp	492	1	blank2r.bmp	786	1	DHJF	786	1	blank2r.bmp	866	3	anregung	866	1	!	1239	1	!	1332	0	0	0	0	0	0	0	0	0	0	0	0	0	0	0	0	0	0	0	0	0	0	0	0	0	0	0
031119	11:34:45	11:48:36	831097	5.0.10.0	4_exp_AWA_CON_EVA_AMP	159	Rpleas_acq	Oppo	Lpleas	Amasked	CS_A	2pleas	distractor2	CONbeforeEVA	cond_US_unple_456_masked_CS2	condtest_masked_3	10	22	400	0	300	300	0	0	484	50	0	1	0	0	0	1	blank2r.bmp	0	1	+	0	8	C4r.bmp	492	1	blank2r.bmp	786	1	DHJF	786	1	blank2r.bmp	866	1	gierig	866	1	!	1239	1	!	-1	0	0	0	0	0	0	0	0	0	0	0	0	0	0	0	0	0	0	0	0	0	0	0	0	0	0	0
031119	11:34:45	11:48:39	833363	5.0.10.0	4_exp_AWA_CON_EVA_AMP	159	Rpleas_acq	Oppo	Lpleas	Amasked	CS_A	2pleas	distractor2	CONbeforeEVA	cond_new_pleas_123_masked_CS1	condtest_masked_3	10	23	400	0	300	300	0	0	479	46	0	1	0	0	0	1	blank2r.bmp	0	1	+	0	2	B2r.bmp	492	1	blank2r.bmp	786	1	CPLW	786	1	blank2r.bmp	866	3	engagiert	866	1	!	1239	1	!	-1	0	0	0	0	0	0	0	0	0	0	0	0	0	0	0	0	0	0	0	0	0	0	0	0	0	0	0
031119	11:34:45	11:48:41	835628	5.0.10.0	4_exp_AWA_CON_EVA_AMP	159	Rpleas_acq	Oppo	Lpleas	Amasked	CS_A	2pleas	distractor2	CONbeforeEVA	cond_new_unple_123_masked_CS1	condtest_masked_3	10	24	400	1	300	300	0	0	461	50	0	1	0	0	0	1	blank2r.bmp	0	1	+	0	3	B3r.bmp	492	1	blank2r.bmp	786	1	CPLW	786	1	blank2r.bmp	866	1	krise	866	1	!	1239	1	!	1359	0	0	0	0	0	0	0	0	0	0	0	0	0	0	0	0	0	0	0	0	0	0	0	0	0	0	0
031119	11:34:45	11:48:44	839040	5.0.10.0	4_exp_AWA_CON_EVA_AMP	159	Rpleas_acq	Oppo	Lpleas	Amasked	CS_A	2pleas	distractor2	CONbeforeEVA	cond_new_pleas_123_masked_CS1	condtest_masked_3	10	25	400	0	300	300	0	0	1647	46	0	1	0	0	0	1	blank2r.bmp	0	1	+	0	6	C2r.bmp	492	1	blank2r.bmp	786	1	CPLW	786	1	blank2r.bmp	866	2	kreativ	866	1	!	1239	1	!	-1	0	0	0	0	0	0	0	0	0	0	0	0	0	0	0	0	0	0	0	0	0	0	0	0	0	0	0
031119	11:34:45	11:48:47	841306	5.0.10.0	4_exp_AWA_CON_EVA_AMP	159	Rpleas_acq	Oppo	Lpleas	Amasked	CS_A	2pleas	distractor2	CONbeforeEVA	cond_US_unple_456_masked_CS2	condtest_masked_3	10	26	400	1	300	300	0	0	462	50	0	1	0	0	0	1	blank2r.bmp	0	1	+	0	5	C1r.bmp	492	1	blank2r.bmp	786	1	DHJF	786	1	blank2r.bmp	866	2	geizig	866	1	!	1239	1	!	1359	0	0	0	0	0	0	0	0	0	0	0	0	0	0	0	0	0	0	0	0	0	0	0	0	0	0	0
031119	11:34:45	11:48:49	843505	5.0.10.0	4_exp_AWA_CON_EVA_AMP	159	Rpleas_acq	Oppo	Lpleas	Amasked	CS_A	2pleas	distractor2	CONbeforeEVA	cond_new_pleas_123_masked_CS2	condtest_masked_3	10	27	400	1	300	300	0	0	408	46	0	1	0	0	0	1	blank2r.bmp	0	1	+	0	7	C3r.bmp	492	1	blank2r.bmp	786	1	DHJF	786	1	blank2r.bmp	866	3	engagiert	866	1	!	1239	1	!	1306	0	0	0	0	0	0	0	0	0	0	0	0	0	0	0	0	0	0	0	0	0	0	0	0	0	0	0
031119	11:34:45	11:48:51	845931	5.0.10.0	4_exp_AWA_CON_EVA_AMP	159	Rpleas_acq	Oppo	Lpleas	Amasked	CS_A	2pleas	distractor2	CONbeforeEVA	cond_US_pleas_456_masked_CS2	condtest_masked_3	10	28	400	0	300	300	0	0	654	50	0	0	0	0	0	1	blank2r.bmp	0	1	+	0	1	B1r.bmp	492	1	blank2r.bmp	786	1	DHJF	786	1	blank2r.bmp	866	3	anregung	866	1	!	1239	1	!	-1	0	0	0	0	0	0	0	0	0	0	0	0	0	0	0	0	0	0	0	0	0	0	0	0	0	0	0
031119	11:34:45	11:48:53	848143	5.0.10.0	4_exp_AWA_CON_EVA_AMP	159	Rpleas_acq	Oppo	Lpleas	Amasked	CS_A	2pleas	distractor2	CONbeforeEVA	cond_new_pleas_123_masked_CS1	condtest_masked_3	10	29	400	1	300	300	0	0	389	46	0	1	0	0	0	1	blank2r.bmp	0	1	+	0	5	C1r.bmp	492	1	blank2r.bmp	786	1	CPLW	786	1	blank2r.bmp	866	2	kreativ	866	1	!	1239	1	!	1292	0	0	0	0	0	0	0	0	0	0	0	0	0	0	0	0	0	0	0	0	0	0	0	0	0	0	0
031119	11:34:45	11:48:56	850382	5.0.10.0	4_exp_AWA_CON_EVA_AMP	159	Rpleas_acq	Oppo	Lpleas	Amasked	CS_A	2pleas	distractor2	CONbeforeEVA	cond_US_pleas_456_masked_CS1	condtest_masked_3	10	30	400	1	300	300	0	0	438	50	0	0	0	0	0	1	blank2r.bmp	0	1	+	0	6	C2r.bmp	492	1	blank2r.bmp	786	1	CPLW	786	1	blank2r.bmp	866	2	gesittet	866	1	!	1239	1	!	1332	0	0	0	0	0	0	0	0	0	0	0	0	0	0	0	0	0	0	0	0	0	0	0	0	0	0	0
