date	time	script.currenttime	script.elapsedtime	build	script.currentexpt	subject	expressions.LRpleas_acq	expressions.SameOppo	expressions.condition_Lpleas	expressions.ABmasked	expressions.conditionCS_A	expressions.condition_1pleas	expressions.condition_distractor_AMP	expressions.AWACON_AMPEVA_first	trialcode	blockcode	blocknum	trialnum	windowcenter	inwindow	pretrialpause	posttrialpause	trialduration	trialtimeout	latency	response	expressions.correctedscore	correct	values.vis_performance	values.vis_rating_sum	values.vis_rating_mean	stimulusnumber1	stimulusitem1	stimulusonset1	stimulusnumber2	stimulusitem2	stimulusonset2	stimulusnumber3	stimulusitem3	stimulusonset3	stimulusnumber4	stimulusitem4	stimulusonset4	stimulusnumber5	stimulusitem5	stimulusonset5	stimulusnumber6	stimulusitem6	stimulusonset6	stimulusnumber7	stimulusitem7	stimulusonset7	stimulusnumber8	stimulusitem8	stimulusonset8	stimulusnumber9	stimulusitem9	stimulusonset9	stimulusnumber10	stimulusitem10	stimulusonset10	stimulusnumber11	stimulusitem11	stimulusonset11	stimulusnumber12	stimulusitem12	stimulusonset12	stimulusnumber13	stimulusitem13	stimulusonset13	stimulusnumber14	stimulusitem14	stimulusonset14	stimulusnumber15	stimulusitem15	stimulusonset15	stimulusnumber16	stimulusitem16	stimulusonset16	stimulusnumber17	stimulusitem17	stimulusonset17	stimulusnumber18	stimulusitem18	stimulusonset18
012119	13:52:24	13:54:07	101071	5.0.10.0	4_exp_AMP_EVA_AWA_CON	80	Rpleas_acq	Oppo	Rpleas	Bmasked	CS_B	1pleas	distractor1	EVAbeforeCON	acq_US_pleas_masked	acq1_masked	1	1	0	0	300	300	0	0	869	50	0	1	0	0	0	1	blank2r.bmp	0	1	+	0	1	B1r.bmp	435	1	blank2r.bmp	693	1	BMVZ	693	1	blank2r.bmp	764	1	treu	764	0	0	0	0	0	0	0	0	0	0	0	0	0	0	0	0	0	0	0	0	0	0	0	0	0	0	0	0	0	0	0	0	0
012119	13:52:24	13:54:09	103036	5.0.10.0	4_exp_AMP_EVA_AWA_CON	80	Rpleas_acq	Oppo	Rpleas	Bmasked	CS_B	1pleas	distractor1	EVAbeforeCON	acq_new_pleas_masked	acq1_masked	1	2	0	0	300	300	0	0	591	50	0	1	0	0	0	1	blank2r.bmp	0	1	+	0	3	B3r.bmp	435	1	blank2r.bmp	693	7	C3r.bmp	693	1	blank2r.bmp	764	5	retten	764	0	0	0	0	0	0	0	0	0	0	0	0	0	0	0	0	0	0	0	0	0	0	0	0	0	0	0	0	0	0	0	0	0
012119	13:52:24	13:54:11	104954	5.0.10.0	4_exp_AMP_EVA_AWA_CON	80	Rpleas_acq	Oppo	Rpleas	Bmasked	CS_B	1pleas	distractor1	EVAbeforeCON	acq_US_unple_masked	acq1_masked	1	3	0	0	300	300	0	0	550	46	0	1	0	0	0	1	blank2r.bmp	0	1	+	0	7	C3r.bmp	435	1	blank2r.bmp	693	1	GKQX	693	1	blank2r.bmp	764	6	schroff	764	0	0	0	0	0	0	0	0	0	0	0	0	0	0	0	0	0	0	0	0	0	0	0	0	0	0	0	0	0	0	0	0	0
012119	13:52:24	13:54:13	106907	5.0.10.0	4_exp_AMP_EVA_AWA_CON	80	Rpleas_acq	Oppo	Rpleas	Bmasked	CS_B	1pleas	distractor1	EVAbeforeCON	acq_US_pleas_masked	acq1_masked	1	4	0	0	300	300	0	0	563	50	0	1	0	0	0	1	blank2r.bmp	0	1	+	0	8	C4r.bmp	435	1	blank2r.bmp	693	1	BMVZ	693	1	blank2r.bmp	764	2	schön	764	0	0	0	0	0	0	0	0	0	0	0	0	0	0	0	0	0	0	0	0	0	0	0	0	0	0	0	0	0	0	0	0	0
012119	13:52:24	13:54:15	108895	5.0.10.0	4_exp_AMP_EVA_AWA_CON	80	Rpleas_acq	Oppo	Rpleas	Bmasked	CS_B	1pleas	distractor1	EVAbeforeCON	acq_new_unple_masked	acq1_masked	1	5	0	0	300	300	0	0	616	46	0	1	0	0	0	1	blank2r.bmp	0	1	+	0	4	B4r.bmp	435	1	blank2r.bmp	693	3	B3r.bmp	693	1	blank2r.bmp	764	6	tyrannisch	764	0	0	0	0	0	0	0	0	0	0	0	0	0	0	0	0	0	0	0	0	0	0	0	0	0	0	0	0	0	0	0	0	0
012119	13:52:24	13:54:17	111189	5.0.10.0	4_exp_AMP_EVA_AWA_CON	80	Rpleas_acq	Oppo	Rpleas	Bmasked	CS_B	1pleas	distractor1	EVAbeforeCON	acq_new_unple_masked	acq1_masked	1	6	0	0	300	300	0	0	703	50	0	0	0	0	0	1	blank2r.bmp	0	1	+	0	2	B2r.bmp	435	1	blank2r.bmp	693	6	C2r.bmp	693	1	blank2r.bmp	764	1	fanatisch	764	1	FEHLER	1494	0	0	0	0	0	0	0	0	0	0	0	0	0	0	0	0	0	0	0	0	0	0	0	0	0	0	0	0	0	0
012119	13:52:24	13:54:19	112883	5.0.10.0	4_exp_AMP_EVA_AWA_CON	80	Rpleas_acq	Oppo	Rpleas	Bmasked	CS_B	1pleas	distractor1	EVAbeforeCON	acq_new_pleas_masked	acq1_masked	1	7	0	0	300	300	0	0	518	50	0	1	0	0	0	1	blank2r.bmp	0	1	+	0	6	C2r.bmp	435	1	blank2r.bmp	693	5	C1r.bmp	693	1	blank2r.bmp	764	3	spielen	764	0	0	0	0	0	0	0	0	0	0	0	0	0	0	0	0	0	0	0	0	0	0	0	0	0	0	0	0	0	0	0	0	0
012119	13:52:24	13:54:21	114813	5.0.10.0	4_exp_AMP_EVA_AWA_CON	80	Rpleas_acq	Oppo	Rpleas	Bmasked	CS_B	1pleas	distractor1	EVAbeforeCON	acq_US_unple_masked	acq1_masked	1	8	0	0	300	300	0	0	554	46	0	1	0	0	0	1	blank2r.bmp	0	1	+	0	5	C1r.bmp	435	1	blank2r.bmp	693	1	GKQX	693	1	blank2r.bmp	764	5	eitel	764	0	0	0	0	0	0	0	0	0	0	0	0	0	0	0	0	0	0	0	0	0	0	0	0	0	0	0	0	0	0	0	0	0
012119	13:52:24	13:54:23	116625	5.0.10.0	4_exp_AMP_EVA_AWA_CON	80	Rpleas_acq	Oppo	Rpleas	Bmasked	CS_B	1pleas	distractor1	EVAbeforeCON	acq_new_pleas_masked	acq1_masked	1	9	0	0	300	300	0	0	439	50	0	1	0	0	0	1	blank2r.bmp	0	1	+	0	3	B3r.bmp	435	1	blank2r.bmp	693	4	B4r.bmp	693	1	blank2r.bmp	764	4	lachen	764	0	0	0	0	0	0	0	0	0	0	0	0	0	0	0	0	0	0	0	0	0	0	0	0	0	0	0	0	0	0	0	0	0
012119	13:52:24	13:54:25	118589	5.0.10.0	4_exp_AMP_EVA_AWA_CON	80	Rpleas_acq	Oppo	Rpleas	Bmasked	CS_B	1pleas	distractor1	EVAbeforeCON	acq_new_unple_masked	acq1_masked	1	10	0	0	300	300	0	0	575	46	0	1	0	0	0	1	blank2r.bmp	0	1	+	0	6	C2r.bmp	435	1	blank2r.bmp	693	1	B1r.bmp	693	1	blank2r.bmp	764	5	rächen	764	0	0	0	0	0	0	0	0	0	0	0	0	0	0	0	0	0	0	0	0	0	0	0	0	0	0	0	0	0	0	0	0	0
012119	13:52:24	13:54:27	120436	5.0.10.0	4_exp_AMP_EVA_AWA_CON	80	Rpleas_acq	Oppo	Rpleas	Bmasked	CS_B	1pleas	distractor1	EVAbeforeCON	acq_US_pleas_masked	acq1_masked	1	11	0	0	300	300	0	0	472	50	0	1	0	0	0	1	blank2r.bmp	0	1	+	0	2	B2r.bmp	435	1	blank2r.bmp	693	1	BMVZ	693	1	blank2r.bmp	764	4	helfen	764	0	0	0	0	0	0	0	0	0	0	0	0	0	0	0	0	0	0	0	0	0	0	0	0	0	0	0	0	0	0	0	0	0
012119	13:52:24	13:54:28	122225	5.0.10.0	4_exp_AMP_EVA_AWA_CON	80	Rpleas_acq	Oppo	Rpleas	Bmasked	CS_B	1pleas	distractor1	EVAbeforeCON	acq_US_unple_masked	acq1_masked	1	12	0	0	300	300	0	0	407	46	0	1	0	0	0	1	blank2r.bmp	0	1	+	0	1	B1r.bmp	435	1	blank2r.bmp	693	1	GKQX	693	1	blank2r.bmp	764	1	tot	764	0	0	0	0	0	0	0	0	0	0	0	0	0	0	0	0	0	0	0	0	0	0	0	0	0	0	0	0	0	0	0	0	0
012119	13:52:24	13:54:31	124354	5.0.10.0	4_exp_AMP_EVA_AWA_CON	80	Rpleas_acq	Oppo	Rpleas	Bmasked	CS_B	1pleas	distractor1	EVAbeforeCON	acq_new_pleas_masked	acq1_masked	1	13	0	0	300	300	0	0	539	46	0	0	0	0	0	1	blank2r.bmp	0	1	+	0	7	C3r.bmp	435	1	blank2r.bmp	693	2	B2r.bmp	693	1	blank2r.bmp	764	1	freundlich	764	1	FEHLER	1329	0	0	0	0	0	0	0	0	0	0	0	0	0	0	0	0	0	0	0	0	0	0	0	0	0	0	0	0	0	0
012119	13:52:24	13:54:32	126095	5.0.10.0	4_exp_AMP_EVA_AWA_CON	80	Rpleas_acq	Oppo	Rpleas	Bmasked	CS_B	1pleas	distractor1	EVAbeforeCON	acq_new_pleas_masked	acq1_masked	1	14	0	0	300	300	0	0	573	50	0	1	0	0	0	1	blank2r.bmp	0	1	+	0	8	C4r.bmp	435	1	blank2r.bmp	693	8	C4r.bmp	693	1	blank2r.bmp	764	2	fair	764	0	0	0	0	0	0	0	0	0	0	0	0	0	0	0	0	0	0	0	0	0	0	0	0	0	0	0	0	0	0	0	0	0
012119	13:52:24	13:54:34	127931	5.0.10.0	4_exp_AMP_EVA_AWA_CON	80	Rpleas_acq	Oppo	Rpleas	Bmasked	CS_B	1pleas	distractor1	EVAbeforeCON	acq_US_pleas_masked	acq1_masked	1	15	0	0	300	300	0	0	457	50	0	1	0	0	0	1	blank2r.bmp	0	1	+	0	5	C1r.bmp	435	1	blank2r.bmp	693	1	BMVZ	693	1	blank2r.bmp	764	5	ehrlich	764	0	0	0	0	0	0	0	0	0	0	0	0	0	0	0	0	0	0	0	0	0	0	0	0	0	0	0	0	0	0	0	0	0
012119	13:52:24	13:54:36	130013	5.0.10.0	4_exp_AMP_EVA_AWA_CON	80	Rpleas_acq	Oppo	Rpleas	Bmasked	CS_B	1pleas	distractor1	EVAbeforeCON	acq_US_unple_masked	acq1_masked	1	16	0	0	300	300	0	0	691	46	0	1	0	0	0	1	blank2r.bmp	0	1	+	0	4	B4r.bmp	435	1	blank2r.bmp	693	1	GKQX	693	1	blank2r.bmp	764	4	hindern	764	0	0	0	0	0	0	0	0	0	0	0	0	0	0	0	0	0	0	0	0	0	0	0	0	0	0	0	0	0	0	0	0	0
012119	13:52:24	13:54:38	132119	5.0.10.0	4_exp_AMP_EVA_AWA_CON	80	Rpleas_acq	Oppo	Rpleas	Bmasked	CS_B	1pleas	distractor1	EVAbeforeCON	acq_US_unple_masked	acq1_masked	1	17	0	0	300	300	0	0	723	46	0	1	0	0	0	1	blank2r.bmp	0	1	+	0	7	C3r.bmp	435	1	blank2r.bmp	693	1	GKQX	693	1	blank2r.bmp	764	2	schlecht	764	0	0	0	0	0	0	0	0	0	0	0	0	0	0	0	0	0	0	0	0	0	0	0	0	0	0	0	0	0	0	0	0	0
012119	13:52:24	13:54:40	134225	5.0.10.0	4_exp_AMP_EVA_AWA_CON	80	Rpleas_acq	Oppo	Rpleas	Bmasked	CS_B	1pleas	distractor1	EVAbeforeCON	acq_US_unple_masked	acq1_masked	1	18	0	0	300	300	0	0	722	46	0	1	0	0	0	1	blank2r.bmp	0	1	+	0	1	B1r.bmp	435	1	blank2r.bmp	693	1	GKQX	693	1	blank2r.bmp	764	3	lasch	764	0	0	0	0	0	0	0	0	0	0	0	0	0	0	0	0	0	0	0	0	0	0	0	0	0	0	0	0	0	0	0	0	0
012119	13:52:24	13:54:42	136213	5.0.10.0	4_exp_AMP_EVA_AWA_CON	80	Rpleas_acq	Oppo	Rpleas	Bmasked	CS_B	1pleas	distractor1	EVAbeforeCON	acq_new_unple_masked	acq1_masked	1	19	0	0	300	300	0	0	600	46	0	1	0	0	0	1	blank2r.bmp	0	1	+	0	2	B2r.bmp	435	1	blank2r.bmp	693	3	B3r.bmp	693	1	blank2r.bmp	764	3	strafen	764	0	0	0	0	0	0	0	0	0	0	0	0	0	0	0	0	0	0	0	0	0	0	0	0	0	0	0	0	0	0	0	0	0
012119	13:52:24	13:54:45	138390	5.0.10.0	4_exp_AMP_EVA_AWA_CON	80	Rpleas_acq	Oppo	Rpleas	Bmasked	CS_B	1pleas	distractor1	EVAbeforeCON	acq_new_pleas_masked	acq1_masked	1	20	0	0	300	300	0	0	610	46	0	0	0	0	0	1	blank2r.bmp	0	1	+	0	4	B4r.bmp	435	1	blank2r.bmp	693	7	C3r.bmp	693	1	blank2r.bmp	764	6	tolerant	764	1	FEHLER	1400	0	0	0	0	0	0	0	0	0	0	0	0	0	0	0	0	0	0	0	0	0	0	0	0	0	0	0	0	0	0
012119	13:52:24	13:54:46	140107	5.0.10.0	4_exp_AMP_EVA_AWA_CON	80	Rpleas_acq	Oppo	Rpleas	Bmasked	CS_B	1pleas	distractor1	EVAbeforeCON	acq_new_unple_masked	acq1_masked	1	21	0	0	300	300	0	0	534	46	0	1	0	0	0	1	blank2r.bmp	0	1	+	0	5	C1r.bmp	435	1	blank2r.bmp	693	2	B2r.bmp	693	1	blank2r.bmp	764	2	faul	764	0	0	0	0	0	0	0	0	0	0	0	0	0	0	0	0	0	0	0	0	0	0	0	0	0	0	0	0	0	0	0	0	0
012119	13:52:24	13:54:48	142013	5.0.10.0	4_exp_AMP_EVA_AWA_CON	80	Rpleas_acq	Oppo	Rpleas	Bmasked	CS_B	1pleas	distractor1	EVAbeforeCON	acq_US_pleas_masked	acq1_masked	1	22	0	0	300	300	0	0	521	50	0	1	0	0	0	1	blank2r.bmp	0	1	+	0	6	C2r.bmp	435	1	blank2r.bmp	693	1	BMVZ	693	1	blank2r.bmp	764	3	loyal	764	0	0	0	0	0	0	0	0	0	0	0	0	0	0	0	0	0	0	0	0	0	0	0	0	0	0	0	0	0	0	0	0	0
012119	13:52:24	13:54:50	143978	5.0.10.0	4_exp_AMP_EVA_AWA_CON	80	Rpleas_acq	Oppo	Rpleas	Bmasked	CS_B	1pleas	distractor1	EVAbeforeCON	acq_US_pleas_masked	acq1_masked	1	23	0	0	300	300	0	0	585	50	0	1	0	0	0	1	blank2r.bmp	0	1	+	0	8	C4r.bmp	435	1	blank2r.bmp	693	1	BMVZ	693	1	blank2r.bmp	764	6	schlau	764	0	0	0	0	0	0	0	0	0	0	0	0	0	0	0	0	0	0	0	0	0	0	0	0	0	0	0	0	0	0	0	0	0
012119	13:52:24	13:54:52	145896	5.0.10.0	4_exp_AMP_EVA_AWA_CON	80	Rpleas_acq	Oppo	Rpleas	Bmasked	CS_B	1pleas	distractor1	EVAbeforeCON	acq_new_unple_masked	acq1_masked	1	24	0	0	300	300	0	0	528	46	0	1	0	0	0	1	blank2r.bmp	0	1	+	0	3	B3r.bmp	435	1	blank2r.bmp	693	5	C1r.bmp	693	1	blank2r.bmp	764	4	leiden	764	0	0	0	0	0	0	0	0	0	0	0	0	0	0	0	0	0	0	0	0	0	0	0	0	0	0	0	0	0	0	0	0	0
012119	13:52:24	13:54:54	148060	5.0.10.0	4_exp_AMP_EVA_AWA_CON	80	Rpleas_acq	Oppo	Rpleas	Bmasked	CS_B	1pleas	distractor1	EVAbeforeCON	acq_US_unple_masked	acq1_masked	1	25	0	0	300	300	0	0	785	46	0	1	0	0	0	1	blank2r.bmp	0	1	+	0	8	C4r.bmp	435	1	blank2r.bmp	693	1	GKQX	693	1	blank2r.bmp	764	2	schlecht	764	0	0	0	0	0	0	0	0	0	0	0	0	0	0	0	0	0	0	0	0	0	0	0	0	0	0	0	0	0	0	0	0	0
012119	13:52:24	13:54:56	149978	5.0.10.0	4_exp_AMP_EVA_AWA_CON	80	Rpleas_acq	Oppo	Rpleas	Bmasked	CS_B	1pleas	distractor1	EVAbeforeCON	acq_new_unple_masked	acq1_masked	1	26	0	0	300	300	0	0	528	46	0	1	0	0	0	1	blank2r.bmp	0	1	+	0	7	C3r.bmp	435	1	blank2r.bmp	693	4	B4r.bmp	693	1	blank2r.bmp	764	6	tyrannisch	764	0	0	0	0	0	0	0	0	0	0	0	0	0	0	0	0	0	0	0	0	0	0	0	0	0	0	0	0	0	0	0	0	0
012119	13:52:24	13:54:58	151919	5.0.10.0	4_exp_AMP_EVA_AWA_CON	80	Rpleas_acq	Oppo	Rpleas	Bmasked	CS_B	1pleas	distractor1	EVAbeforeCON	acq_US_unple_masked	acq1_masked	1	27	0	0	300	300	0	0	563	46	0	1	0	0	0	1	blank2r.bmp	0	1	+	0	6	C2r.bmp	435	1	blank2r.bmp	693	1	GKQX	693	1	blank2r.bmp	764	4	hindern	764	0	0	0	0	0	0	0	0	0	0	0	0	0	0	0	0	0	0	0	0	0	0	0	0	0	0	0	0	0	0	0	0	0
012119	13:52:24	13:55:00	153790	5.0.10.0	4_exp_AMP_EVA_AWA_CON	80	Rpleas_acq	Oppo	Rpleas	Bmasked	CS_B	1pleas	distractor1	EVAbeforeCON	acq_new_pleas_masked	acq1_masked	1	28	0	0	300	300	0	0	487	50	0	1	0	0	0	1	blank2r.bmp	0	1	+	0	3	B3r.bmp	435	1	blank2r.bmp	693	8	C4r.bmp	693	1	blank2r.bmp	764	3	spielen	764	0	0	0	0	0	0	0	0	0	0	0	0	0	0	0	0	0	0	0	0	0	0	0	0	0	0	0	0	0	0	0	0	0
012119	13:52:24	13:55:02	155743	5.0.10.0	4_exp_AMP_EVA_AWA_CON	80	Rpleas_acq	Oppo	Rpleas	Bmasked	CS_B	1pleas	distractor1	EVAbeforeCON	acq_new_pleas_masked	acq1_masked	1	29	0	0	300	300	0	0	569	50	0	1	0	0	0	1	blank2r.bmp	0	1	+	0	2	B2r.bmp	435	1	blank2r.bmp	693	6	C2r.bmp	693	1	blank2r.bmp	764	5	retten	764	0	0	0	0	0	0	0	0	0	0	0	0	0	0	0	0	0	0	0	0	0	0	0	0	0	0	0	0	0	0	0	0	0
012119	13:52:24	13:55:04	157896	5.0.10.0	4_exp_AMP_EVA_AWA_CON	80	Rpleas_acq	Oppo	Rpleas	Bmasked	CS_B	1pleas	distractor1	EVAbeforeCON	acq_new_unple_masked	acq1_masked	1	30	0	0	300	300	0	0	570	50	0	0	0	0	0	1	blank2r.bmp	0	1	+	0	4	B4r.bmp	435	1	blank2r.bmp	693	1	B1r.bmp	693	1	blank2r.bmp	764	5	rächen	764	1	FEHLER	1364	0	0	0	0	0	0	0	0	0	0	0	0	0	0	0	0	0	0	0	0	0	0	0	0	0	0	0	0	0	0
012119	13:52:24	13:55:06	159766	5.0.10.0	4_exp_AMP_EVA_AWA_CON	80	Rpleas_acq	Oppo	Rpleas	Bmasked	CS_B	1pleas	distractor1	EVAbeforeCON	acq_US_unple_masked	acq1_masked	1	31	0	0	300	300	0	0	698	46	0	1	0	0	0	1	blank2r.bmp	0	1	+	0	5	C1r.bmp	435	1	blank2r.bmp	693	1	GKQX	693	1	blank2r.bmp	764	3	lasch	764	0	0	0	0	0	0	0	0	0	0	0	0	0	0	0	0	0	0	0	0	0	0	0	0	0	0	0	0	0	0	0	0	0
012119	13:52:24	13:55:08	161661	5.0.10.0	4_exp_AMP_EVA_AWA_CON	80	Rpleas_acq	Oppo	Rpleas	Bmasked	CS_B	1pleas	distractor1	EVAbeforeCON	acq_US_pleas_masked	acq1_masked	1	32	0	0	300	300	0	0	514	50	0	1	0	0	0	1	blank2r.bmp	0	1	+	0	1	B1r.bmp	435	1	blank2r.bmp	693	1	BMVZ	693	1	blank2r.bmp	764	6	schlau	764	0	0	0	0	0	0	0	0	0	0	0	0	0	0	0	0	0	0	0	0	0	0	0	0	0	0	0	0	0	0	0	0	0
012119	13:52:24	13:55:10	163637	5.0.10.0	4_exp_AMP_EVA_AWA_CON	80	Rpleas_acq	Oppo	Rpleas	Bmasked	CS_B	1pleas	distractor1	EVAbeforeCON	acq_new_unple_masked	acq1_masked	1	33	0	0	300	300	0	0	597	46	0	1	0	0	0	1	blank2r.bmp	0	1	+	0	3	B3r.bmp	435	1	blank2r.bmp	693	5	C1r.bmp	693	1	blank2r.bmp	764	2	faul	764	0	0	0	0	0	0	0	0	0	0	0	0	0	0	0	0	0	0	0	0	0	0	0	0	0	0	0	0	0	0	0	0	0
012119	13:52:24	13:55:12	165625	5.0.10.0	4_exp_AMP_EVA_AWA_CON	80	Rpleas_acq	Oppo	Rpleas	Bmasked	CS_B	1pleas	distractor1	EVAbeforeCON	acq_US_pleas_masked	acq1_masked	1	34	0	0	300	300	0	0	588	50	0	1	0	0	0	1	blank2r.bmp	0	1	+	0	8	C4r.bmp	435	1	blank2r.bmp	693	1	BMVZ	693	1	blank2r.bmp	764	3	loyal	764	0	0	0	0	0	0	0	0	0	0	0	0	0	0	0	0	0	0	0	0	0	0	0	0	0	0	0	0	0	0	0	0	0
012119	13:52:24	13:55:14	167496	5.0.10.0	4_exp_AMP_EVA_AWA_CON	80	Rpleas_acq	Oppo	Rpleas	Bmasked	CS_B	1pleas	distractor1	EVAbeforeCON	acq_new_pleas_masked	acq1_masked	1	35	0	0	300	300	0	0	500	50	0	1	0	0	0	1	blank2r.bmp	0	1	+	0	1	B1r.bmp	435	1	blank2r.bmp	693	8	C4r.bmp	693	1	blank2r.bmp	764	4	lachen	764	0	0	0	0	0	0	0	0	0	0	0	0	0	0	0	0	0	0	0	0	0	0	0	0	0	0	0	0	0	0	0	0	0
012119	13:52:24	13:55:16	169343	5.0.10.0	4_exp_AMP_EVA_AWA_CON	80	Rpleas_acq	Oppo	Rpleas	Bmasked	CS_B	1pleas	distractor1	EVAbeforeCON	acq_US_pleas_masked	acq1_masked	1	36	0	0	300	300	0	0	460	50	0	1	0	0	0	1	blank2r.bmp	0	1	+	0	5	C1r.bmp	435	1	blank2r.bmp	693	1	BMVZ	693	1	blank2r.bmp	764	1	treu	764	0	0	0	0	0	0	0	0	0	0	0	0	0	0	0	0	0	0	0	0	0	0	0	0	0	0	0	0	0	0	0	0	0
012119	13:52:24	13:55:48	201626	5.0.10.0	4_exp_AMP_EVA_AWA_CON	80	Rpleas_acq	Oppo	Rpleas	Bmasked	CS_B	1pleas	distractor1	EVAbeforeCON	acq_US_pleas_masked	acq2_masked	2	1	480	1	300	300	0	0	536	50	0	1	0	0	0	1	blank2r.bmp	0	1	+	0	7	C3r.bmp	435	1	blank2r.bmp	693	1	BMVZ	693	1	blank2r.bmp	764	5	ehrlich	764	1	!	1211	1	!	1329	0	0	0	0	0	0	0	0	0	0	0	0	0	0	0	0	0	0	0	0	0	0	0	0	0	0	0
012119	13:52:24	13:55:50	203979	5.0.10.0	4_exp_AMP_EVA_AWA_CON	80	Rpleas_acq	Oppo	Rpleas	Bmasked	CS_B	1pleas	distractor1	EVAbeforeCON	acq_new_unple_masked	acq2_masked	2	2	480	0	300	300	0	0	690	46	0	1	0	0	0	1	blank2r.bmp	0	1	+	0	6	C2r.bmp	435	1	blank2r.bmp	693	1	B1r.bmp	693	1	blank2r.bmp	764	4	leiden	764	1	!	1211	1	!	-1	0	0	0	0	0	0	0	0	0	0	0	0	0	0	0	0	0	0	0	0	0	0	0	0	0	0	0
012119	13:52:24	13:55:52	206214	5.0.10.0	4_exp_AMP_EVA_AWA_CON	80	Rpleas_acq	Oppo	Rpleas	Bmasked	CS_B	1pleas	distractor1	EVAbeforeCON	acq_new_unple_masked	acq2_masked	2	3	480	1	300	300	0	0	518	46	0	1	0	0	0	1	blank2r.bmp	0	1	+	0	4	B4r.bmp	435	1	blank2r.bmp	693	3	B3r.bmp	693	1	blank2r.bmp	764	1	fanatisch	764	1	!	1211	1	!	1317	0	0	0	0	0	0	0	0	0	0	0	0	0	0	0	0	0	0	0	0	0	0	0	0	0	0	0
012119	13:52:24	13:55:54	208273	5.0.10.0	4_exp_AMP_EVA_AWA_CON	80	Rpleas_acq	Oppo	Rpleas	Bmasked	CS_B	1pleas	distractor1	EVAbeforeCON	acq_new_unple_masked	acq2_masked	2	4	480	0	300	300	0	0	389	46	0	1	0	0	0	1	blank2r.bmp	0	1	+	0	2	B2r.bmp	435	1	blank2r.bmp	693	7	C3r.bmp	693	1	blank2r.bmp	764	3	strafen	764	1	!	-1	1	!	-1	0	0	0	0	0	0	0	0	0	0	0	0	0	0	0	0	0	0	0	0	0	0	0	0	0	0	0
012119	13:52:24	13:55:59	213038	5.0.10.0	4_exp_AMP_EVA_AWA_CON	80	Rpleas_acq	Oppo	Rpleas	Bmasked	CS_B	1pleas	distractor1	EVAbeforeCON	acq_US_unple_masked	acq2_masked	2	5	480	0	300	300	0	0	3069	46	0	1	0	0	0	1	blank2r.bmp	0	1	+	0	1	B1r.bmp	435	1	blank2r.bmp	693	1	GKQX	693	1	blank2r.bmp	764	5	eitel	764	1	!	1211	1	!	-1	0	0	0	0	0	0	0	0	0	0	0	0	0	0	0	0	0	0	0	0	0	0	0	0	0	0	0
012119	13:52:24	13:56:01	215179	5.0.10.0	4_exp_AMP_EVA_AWA_CON	80	Rpleas_acq	Oppo	Rpleas	Bmasked	CS_B	1pleas	distractor1	EVAbeforeCON	acq_US_unple_masked	acq2_masked	2	6	480	1	300	300	0	0	439	46	0	1	0	0	0	1	blank2r.bmp	0	1	+	0	4	B4r.bmp	435	1	blank2r.bmp	693	1	GKQX	693	1	blank2r.bmp	764	6	schroff	764	1	!	1211	1	!	1235	0	0	0	0	0	0	0	0	0	0	0	0	0	0	0	0	0	0	0	0	0	0	0	0	0	0	0
012119	13:52:24	13:56:04	217391	5.0.10.0	4_exp_AMP_EVA_AWA_CON	80	Rpleas_acq	Oppo	Rpleas	Bmasked	CS_B	1pleas	distractor1	EVAbeforeCON	acq_US_pleas_masked	acq2_masked	2	7	480	0	300	300	0	0	323	46	0	0	0	0	0	1	blank2r.bmp	0	1	+	0	8	C4r.bmp	435	1	blank2r.bmp	693	1	BMVZ	693	1	blank2r.bmp	764	2	schön	764	1	FEHLER	1423	1	!	-1	1	!	-1	0	0	0	0	0	0	0	0	0	0	0	0	0	0	0	0	0	0	0	0	0	0	0	0
012119	13:52:24	13:56:06	219332	5.0.10.0	4_exp_AMP_EVA_AWA_CON	80	Rpleas_acq	Oppo	Rpleas	Bmasked	CS_B	1pleas	distractor1	EVAbeforeCON	acq_new_pleas_masked	acq2_masked	2	8	480	1	300	300	0	0	467	50	0	1	0	0	0	1	blank2r.bmp	0	1	+	0	2	B2r.bmp	435	1	blank2r.bmp	693	4	B4r.bmp	693	1	blank2r.bmp	764	2	fair	764	1	!	1211	1	!	1258	0	0	0	0	0	0	0	0	0	0	0	0	0	0	0	0	0	0	0	0	0	0	0	0	0	0	0
012119	13:52:24	13:56:08	221450	5.0.10.0	4_exp_AMP_EVA_AWA_CON	80	Rpleas_acq	Oppo	Rpleas	Bmasked	CS_B	1pleas	distractor1	EVAbeforeCON	acq_new_pleas_masked	acq2_masked	2	9	480	1	300	300	0	0	423	50	0	1	0	0	0	1	blank2r.bmp	0	1	+	0	3	B3r.bmp	435	1	blank2r.bmp	693	2	B2r.bmp	693	1	blank2r.bmp	764	1	freundlich	764	1	!	1211	1	!	1223	0	0	0	0	0	0	0	0	0	0	0	0	0	0	0	0	0	0	0	0	0	0	0	0	0	0	0
012119	13:52:24	13:56:10	223532	5.0.10.0	4_exp_AMP_EVA_AWA_CON	80	Rpleas_acq	Oppo	Rpleas	Bmasked	CS_B	1pleas	distractor1	EVAbeforeCON	acq_US_unple_masked	acq2_masked	2	10	480	0	300	300	0	0	406	46	0	1	0	0	0	1	blank2r.bmp	0	1	+	0	6	C2r.bmp	435	1	blank2r.bmp	693	1	GKQX	693	1	blank2r.bmp	764	1	tot	764	1	!	-1	1	!	-1	0	0	0	0	0	0	0	0	0	0	0	0	0	0	0	0	0	0	0	0	0	0	0	0	0	0	0
012119	13:52:24	13:56:12	225732	5.0.10.0	4_exp_AMP_EVA_AWA_CON	80	Rpleas_acq	Oppo	Rpleas	Bmasked	CS_B	1pleas	distractor1	EVAbeforeCON	acq_US_pleas_masked	acq2_masked	2	11	480	1	300	300	0	0	510	50	0	1	0	0	0	1	blank2r.bmp	0	1	+	0	5	C1r.bmp	435	1	blank2r.bmp	693	1	BMVZ	693	1	blank2r.bmp	764	4	helfen	764	1	!	1211	1	!	1305	0	0	0	0	0	0	0	0	0	0	0	0	0	0	0	0	0	0	0	0	0	0	0	0	0	0	0
012119	13:52:24	13:56:14	228109	5.0.10.0	4_exp_AMP_EVA_AWA_CON	80	Rpleas_acq	Oppo	Rpleas	Bmasked	CS_B	1pleas	distractor1	EVAbeforeCON	acq_new_pleas_masked	acq2_masked	2	12	480	1	300	300	0	0	480	46	0	0	0	0	0	1	blank2r.bmp	0	1	+	0	7	C3r.bmp	435	1	blank2r.bmp	693	6	C2r.bmp	693	1	blank2r.bmp	764	6	tolerant	764	1	FEHLER	1588	1	!	1211	1	!	1270	0	0	0	0	0	0	0	0	0	0	0	0	0	0	0	0	0	0	0	0	0	0	0	0
012119	13:52:24	13:56:16	230062	5.0.10.0	4_exp_AMP_EVA_AWA_CON	80	Rpleas_acq	Oppo	Rpleas	Bmasked	CS_B	1pleas	distractor1	EVAbeforeCON	acq_new_unple_masked	acq2_masked	2	13	480	1	300	300	0	0	480	46	0	1	0	0	0	1	blank2r.bmp	0	1	+	0	3	B3r.bmp	435	1	blank2r.bmp	693	5	C1r.bmp	693	1	blank2r.bmp	764	2	faul	764	1	!	1211	1	!	1270	0	0	0	0	0	0	0	0	0	0	0	0	0	0	0	0	0	0	0	0	0	0	0	0	0	0	0
012119	13:52:24	13:56:18	232132	5.0.10.0	4_exp_AMP_EVA_AWA_CON	80	Rpleas_acq	Oppo	Rpleas	Bmasked	CS_B	1pleas	distractor1	EVAbeforeCON	acq_US_unple_masked	acq2_masked	2	14	480	0	300	300	0	0	404	46	0	1	0	0	0	1	blank2r.bmp	0	1	+	0	4	B4r.bmp	435	1	blank2r.bmp	693	1	GKQX	693	1	blank2r.bmp	764	4	hindern	764	1	!	-1	1	!	-1	0	0	0	0	0	0	0	0	0	0	0	0	0	0	0	0	0	0	0	0	0	0	0	0	0	0	0
012119	13:52:24	13:56:21	234544	5.0.10.0	4_exp_AMP_EVA_AWA_CON	80	Rpleas_acq	Oppo	Rpleas	Bmasked	CS_B	1pleas	distractor1	EVAbeforeCON	acq_new_unple_masked	acq2_masked	2	15	480	1	300	300	0	0	500	50	0	0	0	0	0	1	blank2r.bmp	0	1	+	0	2	B2r.bmp	435	1	blank2r.bmp	693	7	C3r.bmp	693	1	blank2r.bmp	764	5	rächen	764	1	FEHLER	1611	1	!	1211	1	!	1294	0	0	0	0	0	0	0	0	0	0	0	0	0	0	0	0	0	0	0	0	0	0	0	0
012119	13:52:24	13:56:23	236415	5.0.10.0	4_exp_AMP_EVA_AWA_CON	80	Rpleas_acq	Oppo	Rpleas	Bmasked	CS_B	1pleas	distractor1	EVAbeforeCON	acq_US_unple_masked	acq2_masked	2	16	480	0	300	300	0	0	397	46	0	1	0	0	0	1	blank2r.bmp	0	1	+	0	8	C4r.bmp	435	1	blank2r.bmp	693	1	GKQX	693	1	blank2r.bmp	764	1	tot	764	1	!	-1	1	!	-1	0	0	0	0	0	0	0	0	0	0	0	0	0	0	0	0	0	0	0	0	0	0	0	0	0	0	0
012119	13:52:24	13:56:25	238568	5.0.10.0	4_exp_AMP_EVA_AWA_CON	80	Rpleas_acq	Oppo	Rpleas	Bmasked	CS_B	1pleas	distractor1	EVAbeforeCON	acq_US_pleas_masked	acq2_masked	2	17	480	1	300	300	0	0	464	50	0	1	0	0	0	1	blank2r.bmp	0	1	+	0	1	B1r.bmp	435	1	blank2r.bmp	693	1	BMVZ	693	1	blank2r.bmp	764	2	schön	764	1	!	1211	1	!	1258	0	0	0	0	0	0	0	0	0	0	0	0	0	0	0	0	0	0	0	0	0	0	0	0	0	0	0
012119	13:52:24	13:56:27	240826	5.0.10.0	4_exp_AMP_EVA_AWA_CON	80	Rpleas_acq	Oppo	Rpleas	Bmasked	CS_B	1pleas	distractor1	EVAbeforeCON	acq_new_pleas_masked	acq2_masked	2	18	480	0	300	300	0	0	597	50	0	1	0	0	0	1	blank2r.bmp	0	1	+	0	5	C1r.bmp	435	1	blank2r.bmp	693	4	B4r.bmp	693	1	blank2r.bmp	764	6	tolerant	764	1	!	1211	1	!	-1	0	0	0	0	0	0	0	0	0	0	0	0	0	0	0	0	0	0	0	0	0	0	0	0	0	0	0
012119	13:52:24	13:56:29	242991	5.0.10.0	4_exp_AMP_EVA_AWA_CON	80	Rpleas_acq	Oppo	Rpleas	Bmasked	CS_B	1pleas	distractor1	EVAbeforeCON	acq_US_pleas_masked	acq2_masked	2	19	480	1	300	300	0	0	450	50	0	1	0	0	0	1	blank2r.bmp	0	1	+	0	7	C3r.bmp	435	1	blank2r.bmp	693	1	BMVZ	693	1	blank2r.bmp	764	4	helfen	764	1	!	1211	1	!	1247	0	0	0	0	0	0	0	0	0	0	0	0	0	0	0	0	0	0	0	0	0	0	0	0	0	0	0
012119	13:52:24	13:56:32	245297	5.0.10.0	4_exp_AMP_EVA_AWA_CON	80	Rpleas_acq	Oppo	Rpleas	Bmasked	CS_B	1pleas	distractor1	EVAbeforeCON	acq_US_unple_masked	acq2_masked	2	20	480	0	300	300	0	0	631	46	0	1	0	0	0	1	blank2r.bmp	0	1	+	0	6	C2r.bmp	435	1	blank2r.bmp	693	1	GKQX	693	1	blank2r.bmp	764	5	eitel	764	1	!	1211	1	!	-1	0	0	0	0	0	0	0	0	0	0	0	0	0	0	0	0	0	0	0	0	0	0	0	0	0	0	0
012119	13:52:24	13:56:34	247474	5.0.10.0	4_exp_AMP_EVA_AWA_CON	80	Rpleas_acq	Oppo	Rpleas	Bmasked	CS_B	1pleas	distractor1	EVAbeforeCON	acq_US_pleas_masked	acq2_masked	2	21	480	1	300	300	0	0	479	50	0	1	0	0	0	1	blank2r.bmp	0	1	+	0	7	C3r.bmp	435	1	blank2r.bmp	693	1	BMVZ	693	1	blank2r.bmp	764	3	loyal	764	1	!	1211	1	!	1270	0	0	0	0	0	0	0	0	0	0	0	0	0	0	0	0	0	0	0	0	0	0	0	0	0	0	0
012119	13:52:24	13:56:36	249591	5.0.10.0	4_exp_AMP_EVA_AWA_CON	80	Rpleas_acq	Oppo	Rpleas	Bmasked	CS_B	1pleas	distractor1	EVAbeforeCON	acq_new_pleas_masked	acq2_masked	2	22	480	1	300	300	0	0	423	50	0	1	0	0	0	1	blank2r.bmp	0	1	+	0	5	C1r.bmp	435	1	blank2r.bmp	693	8	C4r.bmp	693	1	blank2r.bmp	764	1	freundlich	764	1	!	1211	1	!	1223	0	0	0	0	0	0	0	0	0	0	0	0	0	0	0	0	0	0	0	0	0	0	0	0	0	0	0
012119	13:52:24	13:56:38	251756	5.0.10.0	4_exp_AMP_EVA_AWA_CON	80	Rpleas_acq	Oppo	Rpleas	Bmasked	CS_B	1pleas	distractor1	EVAbeforeCON	acq_new_unple_masked	acq2_masked	2	23	480	1	300	300	0	0	466	46	0	1	0	0	0	1	blank2r.bmp	0	1	+	0	2	B2r.bmp	435	1	blank2r.bmp	693	6	C2r.bmp	693	1	blank2r.bmp	764	3	strafen	764	1	!	1211	1	!	1258	0	0	0	0	0	0	0	0	0	0	0	0	0	0	0	0	0	0	0	0	0	0	0	0	0	0	0
012119	13:52:24	13:56:40	253827	5.0.10.0	4_exp_AMP_EVA_AWA_CON	80	Rpleas_acq	Oppo	Rpleas	Bmasked	CS_B	1pleas	distractor1	EVAbeforeCON	acq_new_pleas_masked	acq2_masked	2	24	480	0	300	300	0	0	386	50	0	1	0	0	0	1	blank2r.bmp	0	1	+	0	3	B3r.bmp	435	1	blank2r.bmp	693	2	B2r.bmp	693	1	blank2r.bmp	764	3	spielen	764	1	!	-1	1	!	-1	0	0	0	0	0	0	0	0	0	0	0	0	0	0	0	0	0	0	0	0	0	0	0	0	0	0	0
012119	13:52:24	13:56:42	255874	5.0.10.0	4_exp_AMP_EVA_AWA_CON	80	Rpleas_acq	Oppo	Rpleas	Bmasked	CS_B	1pleas	distractor1	EVAbeforeCON	acq_US_pleas_masked	acq2_masked	2	25	480	0	300	300	0	0	381	50	0	1	0	0	0	1	blank2r.bmp	0	1	+	0	1	B1r.bmp	435	1	blank2r.bmp	693	1	BMVZ	693	1	blank2r.bmp	764	5	ehrlich	764	1	!	-1	1	!	-1	0	0	0	0	0	0	0	0	0	0	0	0	0	0	0	0	0	0	0	0	0	0	0	0	0	0	0
012119	13:52:24	13:56:44	258168	5.0.10.0	4_exp_AMP_EVA_AWA_CON	80	Rpleas_acq	Oppo	Rpleas	Bmasked	CS_B	1pleas	distractor1	EVAbeforeCON	acq_new_unple_masked	acq2_masked	2	26	480	0	300	300	0	0	392	50	0	0	0	0	0	1	blank2r.bmp	0	1	+	0	8	C4r.bmp	435	1	blank2r.bmp	693	1	B1r.bmp	693	1	blank2r.bmp	764	1	fanatisch	764	1	FEHLER	1494	1	!	-1	1	!	-1	0	0	0	0	0	0	0	0	0	0	0	0	0	0	0	0	0	0	0	0	0	0	0	0
012119	13:52:24	13:56:46	260144	5.0.10.0	4_exp_AMP_EVA_AWA_CON	80	Rpleas_acq	Oppo	Rpleas	Bmasked	CS_B	1pleas	distractor1	EVAbeforeCON	acq_new_unple_masked	acq2_masked	2	27	480	1	300	300	0	0	494	46	0	1	0	0	0	1	blank2r.bmp	0	1	+	0	4	B4r.bmp	435	1	blank2r.bmp	693	3	B3r.bmp	693	1	blank2r.bmp	764	4	leiden	764	1	!	1211	1	!	1294	0	0	0	0	0	0	0	0	0	0	0	0	0	0	0	0	0	0	0	0	0	0	0	0	0	0	0
012119	13:52:24	13:56:49	262509	5.0.10.0	4_exp_AMP_EVA_AWA_CON	80	Rpleas_acq	Oppo	Rpleas	Bmasked	CS_B	1pleas	distractor1	EVAbeforeCON	acq_new_pleas_masked	acq2_masked	2	28	480	1	300	300	0	0	464	46	0	0	0	0	0	1	blank2r.bmp	0	1	+	0	6	C2r.bmp	435	1	blank2r.bmp	693	5	C1r.bmp	693	1	blank2r.bmp	764	4	lachen	764	1	FEHLER	1576	1	!	1211	1	!	1258	0	0	0	0	0	0	0	0	0	0	0	0	0	0	0	0	0	0	0	0	0	0	0	0
012119	13:52:24	13:56:51	264639	5.0.10.0	4_exp_AMP_EVA_AWA_CON	80	Rpleas_acq	Oppo	Rpleas	Bmasked	CS_B	1pleas	distractor1	EVAbeforeCON	acq_new_unple_masked	acq2_masked	2	29	480	0	300	300	0	0	674	46	0	1	0	0	0	1	blank2r.bmp	0	1	+	0	7	C3r.bmp	435	1	blank2r.bmp	693	4	B4r.bmp	693	1	blank2r.bmp	764	6	tyrannisch	764	1	!	1211	1	!	-1	0	0	0	0	0	0	0	0	0	0	0	0	0	0	0	0	0	0	0	0	0	0	0	0	0	0	0
012119	13:52:24	13:56:53	267015	5.0.10.0	4_exp_AMP_EVA_AWA_CON	80	Rpleas_acq	Oppo	Rpleas	Bmasked	CS_B	1pleas	distractor1	EVAbeforeCON	acq_US_pleas_masked	acq2_masked	2	30	480	1	300	300	0	0	462	46	0	0	0	0	0	1	blank2r.bmp	0	1	+	0	2	B2r.bmp	435	1	blank2r.bmp	693	1	BMVZ	693	1	blank2r.bmp	764	1	treu	764	1	FEHLER	1576	1	!	1211	1	!	1258	0	0	0	0	0	0	0	0	0	0	0	0	0	0	0	0	0	0	0	0	0	0	0	0
012119	13:52:24	13:56:55	269027	5.0.10.0	4_exp_AMP_EVA_AWA_CON	80	Rpleas_acq	Oppo	Rpleas	Bmasked	CS_B	1pleas	distractor1	EVAbeforeCON	acq_US_unple_masked	acq2_masked	2	31	480	1	300	300	0	0	529	46	0	1	0	0	0	1	blank2r.bmp	0	1	+	0	5	C1r.bmp	435	1	blank2r.bmp	693	1	GKQX	693	1	blank2r.bmp	764	6	schroff	764	1	!	1211	1	!	1329	0	0	0	0	0	0	0	0	0	0	0	0	0	0	0	0	0	0	0	0	0	0	0	0	0	0	0
012119	13:52:24	13:56:57	271180	5.0.10.0	4_exp_AMP_EVA_AWA_CON	80	Rpleas_acq	Oppo	Rpleas	Bmasked	CS_B	1pleas	distractor1	EVAbeforeCON	acq_new_pleas_masked	acq2_masked	2	32	480	1	300	300	0	0	451	50	0	1	0	0	0	1	blank2r.bmp	0	1	+	0	1	B1r.bmp	435	1	blank2r.bmp	693	6	C2r.bmp	693	1	blank2r.bmp	764	2	fair	764	1	!	1211	1	!	1247	0	0	0	0	0	0	0	0	0	0	0	0	0	0	0	0	0	0	0	0	0	0	0	0	0	0	0
012119	13:52:24	13:57:00	273309	5.0.10.0	4_exp_AMP_EVA_AWA_CON	80	Rpleas_acq	Oppo	Rpleas	Bmasked	CS_B	1pleas	distractor1	EVAbeforeCON	acq_new_pleas_masked	acq2_masked	2	33	480	1	300	300	0	0	423	50	0	1	0	0	0	1	blank2r.bmp	0	1	+	0	3	B3r.bmp	435	1	blank2r.bmp	693	8	C4r.bmp	693	1	blank2r.bmp	764	5	retten	764	1	!	1211	1	!	1223	0	0	0	0	0	0	0	0	0	0	0	0	0	0	0	0	0	0	0	0	0	0	0	0	0	0	0
012119	13:52:24	13:57:02	275533	5.0.10.0	4_exp_AMP_EVA_AWA_CON	80	Rpleas_acq	Oppo	Rpleas	Bmasked	CS_B	1pleas	distractor1	EVAbeforeCON	acq_US_unple_masked	acq2_masked	2	34	480	1	300	300	0	0	531	46	0	1	0	0	0	1	blank2r.bmp	0	1	+	0	8	C4r.bmp	435	1	blank2r.bmp	693	1	GKQX	693	1	blank2r.bmp	764	3	lasch	764	1	!	1211	1	!	1329	0	0	0	0	0	0	0	0	0	0	0	0	0	0	0	0	0	0	0	0	0	0	0	0	0	0	0
012119	13:52:24	13:57:04	277603	5.0.10.0	4_exp_AMP_EVA_AWA_CON	80	Rpleas_acq	Oppo	Rpleas	Bmasked	CS_B	1pleas	distractor1	EVAbeforeCON	acq_US_unple_masked	acq2_masked	2	35	480	0	300	300	0	0	398	46	0	1	0	0	0	1	blank2r.bmp	0	1	+	0	4	B4r.bmp	435	1	blank2r.bmp	693	1	GKQX	693	1	blank2r.bmp	764	2	schlecht	764	1	!	-1	1	!	-1	0	0	0	0	0	0	0	0	0	0	0	0	0	0	0	0	0	0	0	0	0	0	0	0	0	0	0
012119	13:52:24	13:57:06	279733	5.0.10.0	4_exp_AMP_EVA_AWA_CON	80	Rpleas_acq	Oppo	Rpleas	Bmasked	CS_B	1pleas	distractor1	EVAbeforeCON	acq_US_pleas_masked	acq2_masked	2	36	480	1	300	300	0	0	423	50	0	1	0	0	0	1	blank2r.bmp	0	1	+	0	6	C2r.bmp	435	1	blank2r.bmp	693	1	BMVZ	693	1	blank2r.bmp	764	6	schlau	764	1	!	1211	1	!	1223	0	0	0	0	0	0	0	0	0	0	0	0	0	0	0	0	0	0	0	0	0	0	0	0	0	0	0
012119	13:52:24	13:57:24	297286	5.0.10.0	4_exp_AMP_EVA_AWA_CON	80	Rpleas_acq	Oppo	Rpleas	Bmasked	CS_B	1pleas	distractor1	EVAbeforeCON	acq_US_pleas_masked	acq3_masked	3	1	453	0	300	300	0	0	337	50	0	1	0	0	0	1	blank2r.bmp	0	1	+	0	1	B1r.bmp	435	1	blank2r.bmp	693	1	BMVZ	693	1	blank2r.bmp	764	5	ehrlich	764	1	!	-1	1	!	-1	0	0	0	0	0	0	0	0	0	0	0	0	0	0	0	0	0	0	0	0	0	0	0	0	0	0	0
012119	13:52:24	13:57:26	299604	5.0.10.0	4_exp_AMP_EVA_AWA_CON	80	Rpleas_acq	Oppo	Rpleas	Bmasked	CS_B	1pleas	distractor1	EVAbeforeCON	acq_US_pleas_masked	acq3_masked	3	2	453	0	300	300	0	0	627	50	0	1	0	0	0	1	blank2r.bmp	0	1	+	0	7	C3r.bmp	435	1	blank2r.bmp	693	1	BMVZ	693	1	blank2r.bmp	764	3	loyal	764	1	!	1188	1	!	-1	0	0	0	0	0	0	0	0	0	0	0	0	0	0	0	0	0	0	0	0	0	0	0	0	0	0	0
012119	13:52:24	13:57:28	301839	5.0.10.0	4_exp_AMP_EVA_AWA_CON	80	Rpleas_acq	Oppo	Rpleas	Bmasked	CS_B	1pleas	distractor1	EVAbeforeCON	acq_US_unple_masked	acq3_masked	3	3	453	0	300	300	0	0	331	50	0	0	0	0	0	1	blank2r.bmp	0	1	+	0	5	C1r.bmp	435	1	blank2r.bmp	693	1	GKQX	693	1	blank2r.bmp	764	4	hindern	764	1	FEHLER	1435	1	!	-1	1	!	-1	0	0	0	0	0	0	0	0	0	0	0	0	0	0	0	0	0	0	0	0	0	0	0	0
012119	13:52:24	13:57:30	303969	5.0.10.0	4_exp_AMP_EVA_AWA_CON	80	Rpleas_acq	Oppo	Rpleas	Bmasked	CS_B	1pleas	distractor1	EVAbeforeCON	acq_US_unple_masked	acq3_masked	3	4	453	1	300	300	0	0	435	50	0	0	0	0	0	1	blank2r.bmp	0	1	+	0	3	B3r.bmp	435	1	blank2r.bmp	693	1	GKQX	693	1	blank2r.bmp	764	1	tot	764	1	FEHLER	1552	1	!	1188	1	!	1235	0	0	0	0	0	0	0	0	0	0	0	0	0	0	0	0	0	0	0	0	0	0	0	0
012119	13:52:24	13:57:32	305886	5.0.10.0	4_exp_AMP_EVA_AWA_CON	80	Rpleas_acq	Oppo	Rpleas	Bmasked	CS_B	1pleas	distractor1	EVAbeforeCON	acq_US_pleas_masked	acq3_masked	3	5	453	1	300	300	0	0	443	50	0	1	0	0	0	1	blank2r.bmp	0	1	+	0	2	B2r.bmp	435	1	blank2r.bmp	693	1	BMVZ	693	1	blank2r.bmp	764	2	schön	764	1	!	1188	1	!	1235	0	0	0	0	0	0	0	0	0	0	0	0	0	0	0	0	0	0	0	0	0	0	0	0	0	0	0
012119	13:52:24	13:57:34	307980	5.0.10.0	4_exp_AMP_EVA_AWA_CON	80	Rpleas_acq	Oppo	Rpleas	Bmasked	CS_B	1pleas	distractor1	EVAbeforeCON	acq_US_pleas_masked	acq3_masked	3	6	453	1	300	300	0	0	400	50	0	1	0	0	0	1	blank2r.bmp	0	1	+	0	6	C2r.bmp	435	1	blank2r.bmp	693	1	BMVZ	693	1	blank2r.bmp	764	1	treu	764	1	!	1188	1	!	1200	0	0	0	0	0	0	0	0	0	0	0	0	0	0	0	0	0	0	0	0	0	0	0	0	0	0	0
012119	13:52:24	13:57:36	310086	5.0.10.0	4_exp_AMP_EVA_AWA_CON	80	Rpleas_acq	Oppo	Rpleas	Bmasked	CS_B	1pleas	distractor1	EVAbeforeCON	acq_US_unple_masked	acq3_masked	3	7	453	1	300	300	0	0	403	46	0	1	0	0	0	1	blank2r.bmp	0	1	+	0	4	B4r.bmp	435	1	blank2r.bmp	693	1	GKQX	693	1	blank2r.bmp	764	6	schroff	764	1	!	1188	1	!	1200	0	0	0	0	0	0	0	0	0	0	0	0	0	0	0	0	0	0	0	0	0	0	0	0	0	0	0
012119	13:52:24	13:57:39	312404	5.0.10.0	4_exp_AMP_EVA_AWA_CON	80	Rpleas_acq	Oppo	Rpleas	Bmasked	CS_B	1pleas	distractor1	EVAbeforeCON	acq_US_unple_masked	acq3_masked	3	8	453	1	300	300	0	0	406	50	0	0	0	0	0	1	blank2r.bmp	0	1	+	0	8	C4r.bmp	435	1	blank2r.bmp	693	1	GKQX	693	1	blank2r.bmp	764	3	lasch	764	1	FEHLER	1517	1	!	1188	1	!	1200	0	0	0	0	0	0	0	0	0	0	0	0	0	0	0	0	0	0	0	0	0	0	0	0
012119	13:52:24	13:57:41	314310	5.0.10.0	4_exp_AMP_EVA_AWA_CON	80	Rpleas_acq	Oppo	Rpleas	Bmasked	CS_B	1pleas	distractor1	EVAbeforeCON	acq_US_unple_masked	acq3_masked	3	9	453	1	300	300	0	0	419	46	0	1	0	0	0	1	blank2r.bmp	0	1	+	0	6	C2r.bmp	435	1	blank2r.bmp	693	1	GKQX	693	1	blank2r.bmp	764	5	eitel	764	1	!	1188	1	!	1211	0	0	0	0	0	0	0	0	0	0	0	0	0	0	0	0	0	0	0	0	0	0	0	0	0	0	0
012119	13:52:24	13:57:43	316439	5.0.10.0	4_exp_AMP_EVA_AWA_CON	80	Rpleas_acq	Oppo	Rpleas	Bmasked	CS_B	1pleas	distractor1	EVAbeforeCON	acq_US_pleas_masked	acq3_masked	3	10	453	1	300	300	0	0	443	50	0	1	0	0	0	1	blank2r.bmp	0	1	+	0	3	B3r.bmp	435	1	blank2r.bmp	693	1	BMVZ	693	1	blank2r.bmp	764	4	helfen	764	1	!	1188	1	!	1235	0	0	0	0	0	0	0	0	0	0	0	0	0	0	0	0	0	0	0	0	0	0	0	0	0	0	0
012119	13:52:24	13:57:45	318639	5.0.10.0	4_exp_AMP_EVA_AWA_CON	80	Rpleas_acq	Oppo	Rpleas	Bmasked	CS_B	1pleas	distractor1	EVAbeforeCON	acq_US_pleas_masked	acq3_masked	3	11	453	0	300	300	0	0	529	50	0	1	0	0	0	1	blank2r.bmp	0	1	+	0	7	C3r.bmp	435	1	blank2r.bmp	693	1	BMVZ	693	1	blank2r.bmp	764	6	schlau	764	1	!	1188	1	!	-1	0	0	0	0	0	0	0	0	0	0	0	0	0	0	0	0	0	0	0	0	0	0	0	0	0	0	0
012119	13:52:24	13:57:47	320698	5.0.10.0	4_exp_AMP_EVA_AWA_CON	80	Rpleas_acq	Oppo	Rpleas	Bmasked	CS_B	1pleas	distractor1	EVAbeforeCON	acq_US_unple_masked	acq3_masked	3	12	453	0	300	300	0	0	364	46	0	1	0	0	0	1	blank2r.bmp	0	1	+	0	8	C4r.bmp	435	1	blank2r.bmp	693	1	GKQX	693	1	blank2r.bmp	764	2	schlecht	764	1	!	-1	1	!	-1	0	0	0	0	0	0	0	0	0	0	0	0	0	0	0	0	0	0	0	0	0	0	0	0	0	0	0
012119	13:52:24	13:57:49	322922	5.0.10.0	4_exp_AMP_EVA_AWA_CON	80	Rpleas_acq	Oppo	Rpleas	Bmasked	CS_B	1pleas	distractor1	EVAbeforeCON	acq_US_unple_masked	acq3_masked	3	13	453	0	300	300	0	0	529	46	0	1	0	0	0	1	blank2r.bmp	0	1	+	0	1	B1r.bmp	435	1	blank2r.bmp	693	1	GKQX	693	1	blank2r.bmp	764	4	hindern	764	1	!	1188	1	!	-1	0	0	0	0	0	0	0	0	0	0	0	0	0	0	0	0	0	0	0	0	0	0	0	0	0	0	0
012119	13:52:24	13:57:51	325028	5.0.10.0	4_exp_AMP_EVA_AWA_CON	80	Rpleas_acq	Oppo	Rpleas	Bmasked	CS_B	1pleas	distractor1	EVAbeforeCON	acq_US_pleas_masked	acq3_masked	3	14	453	1	300	300	0	0	402	50	0	1	0	0	0	1	blank2r.bmp	0	1	+	0	5	C1r.bmp	435	1	blank2r.bmp	693	1	BMVZ	693	1	blank2r.bmp	764	3	loyal	764	1	!	1188	1	!	1199	0	0	0	0	0	0	0	0	0	0	0	0	0	0	0	0	0	0	0	0	0	0	0	0	0	0	0
012119	13:52:24	13:57:53	327145	5.0.10.0	4_exp_AMP_EVA_AWA_CON	80	Rpleas_acq	Oppo	Rpleas	Bmasked	CS_B	1pleas	distractor1	EVAbeforeCON	acq_US_pleas_masked	acq3_masked	3	15	453	1	300	300	0	0	416	50	0	1	0	0	0	1	blank2r.bmp	0	1	+	0	4	B4r.bmp	435	1	blank2r.bmp	693	1	BMVZ	693	1	blank2r.bmp	764	2	schön	764	1	!	1188	1	!	1211	0	0	0	0	0	0	0	0	0	0	0	0	0	0	0	0	0	0	0	0	0	0	0	0	0	0	0
012119	13:52:24	13:57:56	329440	5.0.10.0	4_exp_AMP_EVA_AWA_CON	80	Rpleas_acq	Oppo	Rpleas	Bmasked	CS_B	1pleas	distractor1	EVAbeforeCON	acq_US_unple_masked	acq3_masked	3	16	453	1	300	300	0	0	400	50	0	0	0	0	0	1	blank2r.bmp	0	1	+	0	2	B2r.bmp	435	1	blank2r.bmp	693	1	GKQX	693	1	blank2r.bmp	764	1	tot	764	1	FEHLER	1517	1	!	1188	1	!	1200	0	0	0	0	0	0	0	0	0	0	0	0	0	0	0	0	0	0	0	0	0	0	0	0
012119	13:52:24	13:57:58	331451	5.0.10.0	4_exp_AMP_EVA_AWA_CON	80	Rpleas_acq	Oppo	Rpleas	Bmasked	CS_B	1pleas	distractor1	EVAbeforeCON	acq_US_pleas_masked	acq3_masked	3	17	453	0	300	300	0	0	529	50	0	1	0	0	0	1	blank2r.bmp	0	1	+	0	6	C2r.bmp	435	1	blank2r.bmp	693	1	BMVZ	693	1	blank2r.bmp	764	5	ehrlich	764	1	!	1188	1	!	-1	0	0	0	0	0	0	0	0	0	0	0	0	0	0	0	0	0	0	0	0	0	0	0	0	0	0	0
012119	13:52:24	13:58:00	333557	5.0.10.0	4_exp_AMP_EVA_AWA_CON	80	Rpleas_acq	Oppo	Rpleas	Bmasked	CS_B	1pleas	distractor1	EVAbeforeCON	acq_US_unple_masked	acq3_masked	3	18	453	1	300	300	0	0	400	46	0	1	0	0	0	1	blank2r.bmp	0	1	+	0	4	B4r.bmp	435	1	blank2r.bmp	693	1	GKQX	693	1	blank2r.bmp	764	3	lasch	764	1	!	1188	1	!	1200	0	0	0	0	0	0	0	0	0	0	0	0	0	0	0	0	0	0	0	0	0	0	0	0	0	0	0
012119	13:52:24	13:58:02	335651	5.0.10.0	4_exp_AMP_EVA_AWA_CON	80	Rpleas_acq	Oppo	Rpleas	Bmasked	CS_B	1pleas	distractor1	EVAbeforeCON	acq_US_unple_masked	acq3_masked	3	19	453	1	300	300	0	0	400	46	0	1	0	0	0	1	blank2r.bmp	0	1	+	0	7	C3r.bmp	435	1	blank2r.bmp	693	1	GKQX	693	1	blank2r.bmp	764	6	schroff	764	1	!	1188	1	!	1200	0	0	0	0	0	0	0	0	0	0	0	0	0	0	0	0	0	0	0	0	0	0	0	0	0	0	0
012119	13:52:24	13:58:04	337687	5.0.10.0	4_exp_AMP_EVA_AWA_CON	80	Rpleas_acq	Oppo	Rpleas	Bmasked	CS_B	1pleas	distractor1	EVAbeforeCON	acq_US_unple_masked	acq3_masked	3	20	453	0	300	300	0	0	352	46	0	1	0	0	0	1	blank2r.bmp	0	1	+	0	3	B3r.bmp	435	1	blank2r.bmp	693	1	GKQX	693	1	blank2r.bmp	764	2	schlecht	764	1	!	-1	1	!	-1	0	0	0	0	0	0	0	0	0	0	0	0	0	0	0	0	0	0	0	0	0	0	0	0	0	0	0
012119	13:52:24	13:58:06	340040	5.0.10.0	4_exp_AMP_EVA_AWA_CON	80	Rpleas_acq	Oppo	Rpleas	Bmasked	CS_B	1pleas	distractor1	EVAbeforeCON	acq_US_pleas_masked	acq3_masked	3	21	453	1	300	300	0	0	432	46	0	0	0	0	0	1	blank2r.bmp	0	1	+	0	1	B1r.bmp	435	1	blank2r.bmp	693	1	BMVZ	693	1	blank2r.bmp	764	6	schlau	764	1	FEHLER	1541	1	!	1188	1	!	1223	0	0	0	0	0	0	0	0	0	0	0	0	0	0	0	0	0	0	0	0	0	0	0	0
012119	13:52:24	13:58:08	341922	5.0.10.0	4_exp_AMP_EVA_AWA_CON	80	Rpleas_acq	Oppo	Rpleas	Bmasked	CS_B	1pleas	distractor1	EVAbeforeCON	acq_US_unple_masked	acq3_masked	3	22	453	1	300	300	0	0	400	46	0	1	0	0	0	1	blank2r.bmp	0	1	+	0	8	C4r.bmp	435	1	blank2r.bmp	693	1	GKQX	693	1	blank2r.bmp	764	5	eitel	764	1	!	1188	1	!	1200	0	0	0	0	0	0	0	0	0	0	0	0	0	0	0	0	0	0	0	0	0	0	0	0	0	0	0
012119	13:52:24	13:58:10	344193	5.0.10.0	4_exp_AMP_EVA_AWA_CON	80	Rpleas_acq	Oppo	Rpleas	Bmasked	CS_B	1pleas	distractor1	EVAbeforeCON	acq_US_pleas_masked	acq3_masked	3	23	453	0	300	300	0	0	385	46	0	0	0	0	0	1	blank2r.bmp	0	1	+	0	5	C1r.bmp	435	1	blank2r.bmp	693	1	BMVZ	693	1	blank2r.bmp	764	4	helfen	764	1	FEHLER	1482	1	!	-1	1	!	-1	0	0	0	0	0	0	0	0	0	0	0	0	0	0	0	0	0	0	0	0	0	0	0	0
012119	13:52:24	13:58:12	346099	5.0.10.0	4_exp_AMP_EVA_AWA_CON	80	Rpleas_acq	Oppo	Rpleas	Bmasked	CS_B	1pleas	distractor1	EVAbeforeCON	acq_US_pleas_masked	acq3_masked	3	24	453	1	300	300	0	0	428	50	0	1	0	0	0	1	blank2r.bmp	0	1	+	0	2	B2r.bmp	435	1	blank2r.bmp	693	1	BMVZ	693	1	blank2r.bmp	764	1	treu	764	1	!	1188	1	!	1223	0	0	0	0	0	0	0	0	0	0	0	0	0	0	0	0	0	0	0	0	0	0	0	0	0	0	0
012119	13:52:24	13:58:14	348193	5.0.10.0	4_exp_AMP_EVA_AWA_CON	80	Rpleas_acq	Oppo	Rpleas	Bmasked	CS_B	1pleas	distractor1	EVAbeforeCON	acq_US_pleas_masked	acq3_masked	3	25	453	1	300	300	0	0	400	50	0	1	0	0	0	1	blank2r.bmp	0	1	+	0	4	B4r.bmp	435	1	blank2r.bmp	693	1	BMVZ	693	1	blank2r.bmp	764	2	schön	764	1	!	1188	1	!	1200	0	0	0	0	0	0	0	0	0	0	0	0	0	0	0	0	0	0	0	0	0	0	0	0	0	0	0
012119	13:52:24	13:58:16	350287	5.0.10.0	4_exp_AMP_EVA_AWA_CON	80	Rpleas_acq	Oppo	Rpleas	Bmasked	CS_B	1pleas	distractor1	EVAbeforeCON	acq_US_pleas_masked	acq3_masked	3	26	453	1	300	300	0	0	400	50	0	1	0	0	0	1	blank2r.bmp	0	1	+	0	3	B3r.bmp	435	1	blank2r.bmp	693	1	BMVZ	693	1	blank2r.bmp	764	6	schlau	764	1	!	1188	1	!	1200	0	0	0	0	0	0	0	0	0	0	0	0	0	0	0	0	0	0	0	0	0	0	0	0	0	0	0
012119	13:52:24	13:58:19	352416	5.0.10.0	4_exp_AMP_EVA_AWA_CON	80	Rpleas_acq	Oppo	Rpleas	Bmasked	CS_B	1pleas	distractor1	EVAbeforeCON	acq_US_unple_masked	acq3_masked	3	27	453	1	300	300	0	0	432	46	0	1	0	0	0	1	blank2r.bmp	0	1	+	0	7	C3r.bmp	435	1	blank2r.bmp	693	1	GKQX	693	1	blank2r.bmp	764	2	schlecht	764	1	!	1188	1	!	1223	0	0	0	0	0	0	0	0	0	0	0	0	0	0	0	0	0	0	0	0	0	0	0	0	0	0	0
012119	13:52:24	13:58:21	354605	5.0.10.0	4_exp_AMP_EVA_AWA_CON	80	Rpleas_acq	Oppo	Rpleas	Bmasked	CS_B	1pleas	distractor1	EVAbeforeCON	acq_US_pleas_masked	acq3_masked	3	28	453	1	300	300	0	0	496	50	0	1	0	0	0	1	blank2r.bmp	0	1	+	0	1	B1r.bmp	435	1	blank2r.bmp	693	1	BMVZ	693	1	blank2r.bmp	764	4	helfen	764	1	!	1188	1	!	1294	0	0	0	0	0	0	0	0	0	0	0	0	0	0	0	0	0	0	0	0	0	0	0	0	0	0	0
012119	13:52:24	13:58:23	356816	5.0.10.0	4_exp_AMP_EVA_AWA_CON	80	Rpleas_acq	Oppo	Rpleas	Bmasked	CS_B	1pleas	distractor1	EVAbeforeCON	acq_US_unple_masked	acq3_masked	3	29	453	0	300	300	0	0	319	50	0	0	0	0	0	1	blank2r.bmp	0	1	+	0	6	C2r.bmp	435	1	blank2r.bmp	693	1	GKQX	693	1	blank2r.bmp	764	5	eitel	764	1	FEHLER	1423	1	!	-1	1	!	-1	0	0	0	0	0	0	0	0	0	0	0	0	0	0	0	0	0	0	0	0	0	0	0	0
012119	13:52:24	13:58:25	358816	5.0.10.0	4_exp_AMP_EVA_AWA_CON	80	Rpleas_acq	Oppo	Rpleas	Bmasked	CS_B	1pleas	distractor1	EVAbeforeCON	acq_US_pleas_masked	acq3_masked	3	30	453	1	300	300	0	0	511	50	0	1	0	0	0	1	blank2r.bmp	0	1	+	0	5	C1r.bmp	435	1	blank2r.bmp	693	1	BMVZ	693	1	blank2r.bmp	764	3	loyal	764	1	!	1188	1	!	1305	0	0	0	0	0	0	0	0	0	0	0	0	0	0	0	0	0	0	0	0	0	0	0	0	0	0	0
012119	13:52:24	13:58:27	360958	5.0.10.0	4_exp_AMP_EVA_AWA_CON	80	Rpleas_acq	Oppo	Rpleas	Bmasked	CS_B	1pleas	distractor1	EVAbeforeCON	acq_US_unple_masked	acq3_masked	3	31	453	1	300	300	0	0	444	46	0	1	0	0	0	1	blank2r.bmp	0	1	+	0	2	B2r.bmp	435	1	blank2r.bmp	693	1	GKQX	693	1	blank2r.bmp	764	6	schroff	764	1	!	1188	1	!	1235	0	0	0	0	0	0	0	0	0	0	0	0	0	0	0	0	0	0	0	0	0	0	0	0	0	0	0
012119	13:52:24	13:58:29	363099	5.0.10.0	4_exp_AMP_EVA_AWA_CON	80	Rpleas_acq	Oppo	Rpleas	Bmasked	CS_B	1pleas	distractor1	EVAbeforeCON	acq_US_unple_masked	acq3_masked	3	32	453	1	300	300	0	0	439	46	0	1	0	0	0	1	blank2r.bmp	0	1	+	0	8	C4r.bmp	435	1	blank2r.bmp	693	1	GKQX	693	1	blank2r.bmp	764	4	hindern	764	1	!	1188	1	!	1235	0	0	0	0	0	0	0	0	0	0	0	0	0	0	0	0	0	0	0	0	0	0	0	0	0	0	0
012119	13:52:24	13:58:31	365099	5.0.10.0	4_exp_AMP_EVA_AWA_CON	80	Rpleas_acq	Oppo	Rpleas	Bmasked	CS_B	1pleas	distractor1	EVAbeforeCON	acq_US_pleas_masked	acq3_masked	3	33	453	0	300	300	0	0	331	50	0	1	0	0	0	1	blank2r.bmp	0	1	+	0	7	C3r.bmp	435	1	blank2r.bmp	693	1	BMVZ	693	1	blank2r.bmp	764	1	treu	764	1	!	-1	1	!	-1	0	0	0	0	0	0	0	0	0	0	0	0	0	0	0	0	0	0	0	0	0	0	0	0	0	0	0
012119	13:52:24	13:58:33	367252	5.0.10.0	4_exp_AMP_EVA_AWA_CON	80	Rpleas_acq	Oppo	Rpleas	Bmasked	CS_B	1pleas	distractor1	EVAbeforeCON	acq_US_pleas_masked	acq3_masked	3	34	453	1	300	300	0	0	448	50	0	1	0	0	0	1	blank2r.bmp	0	1	+	0	6	C2r.bmp	435	1	blank2r.bmp	693	1	BMVZ	693	1	blank2r.bmp	764	5	ehrlich	764	1	!	1188	1	!	1247	0	0	0	0	0	0	0	0	0	0	0	0	0	0	0	0	0	0	0	0	0	0	0	0	0	0	0
012119	13:52:24	13:58:35	369264	5.0.10.0	4_exp_AMP_EVA_AWA_CON	80	Rpleas_acq	Oppo	Rpleas	Bmasked	CS_B	1pleas	distractor1	EVAbeforeCON	acq_US_unple_masked	acq3_masked	3	35	453	0	300	300	0	0	351	46	0	1	0	0	0	1	blank2r.bmp	0	1	+	0	5	C1r.bmp	435	1	blank2r.bmp	693	1	GKQX	693	1	blank2r.bmp	764	3	lasch	764	1	!	-1	1	!	-1	0	0	0	0	0	0	0	0	0	0	0	0	0	0	0	0	0	0	0	0	0	0	0	0	0	0	0
012119	13:52:24	13:58:38	371381	5.0.10.0	4_exp_AMP_EVA_AWA_CON	80	Rpleas_acq	Oppo	Rpleas	Bmasked	CS_B	1pleas	distractor1	EVAbeforeCON	acq_US_unple_masked	acq3_masked	3	36	453	1	300	300	0	0	422	46	0	1	0	0	0	1	blank2r.bmp	0	1	+	0	2	B2r.bmp	435	1	blank2r.bmp	693	1	GKQX	693	1	blank2r.bmp	764	1	tot	764	1	!	1188	1	!	1211	0	0	0	0	0	0	0	0	0	0	0	0	0	0	0	0	0	0	0	0	0	0	0	0	0	0	0
012119	13:52:24	13:58:54	387417	5.0.10.0	4_exp_AMP_EVA_AWA_CON	80	Rpleas_acq	Oppo	Rpleas	Bmasked	CS_B	1pleas	distractor1	EVAbeforeCON	acq_US_pleas_masked	acq45_masked	4	1	400	1	300	300	0	0	388	46	0	0	0	0	0	1	blank2r.bmp	0	1	+	0	4	B4r.bmp	435	1	blank2r.bmp	693	1	BMVZ	693	1	blank2r.bmp	764	1	treu	764	1	!	1129	1	!	1188	0	0	0	0	0	0	0	0	0	0	0	0	0	0	0	0	0	0	0	0	0	0	0	0	0	0	0
012119	13:52:24	13:58:56	389582	5.0.10.0	4_exp_AMP_EVA_AWA_CON	80	Rpleas_acq	Oppo	Rpleas	Bmasked	CS_B	1pleas	distractor1	EVAbeforeCON	acq_US_pleas_masked	acq45_masked	4	2	400	0	300	300	0	0	492	50	0	1	0	0	0	1	blank2r.bmp	0	1	+	0	3	B3r.bmp	435	1	blank2r.bmp	693	1	BMVZ	693	1	blank2r.bmp	764	4	helfen	764	1	!	1129	1	!	-1	0	0	0	0	0	0	0	0	0	0	0	0	0	0	0	0	0	0	0	0	0	0	0	0	0	0	0
012119	13:52:24	13:58:58	391546	5.0.10.0	4_exp_AMP_EVA_AWA_CON	80	Rpleas_acq	Oppo	Rpleas	Bmasked	CS_B	1pleas	distractor1	EVAbeforeCON	acq_US_pleas_masked	acq45_masked	4	3	400	0	300	300	0	0	287	46	0	0	0	0	0	1	blank2r.bmp	0	1	+	0	8	C4r.bmp	435	1	blank2r.bmp	693	1	BMVZ	693	1	blank2r.bmp	764	2	schön	764	1	!	-1	1	!	-1	0	0	0	0	0	0	0	0	0	0	0	0	0	0	0	0	0	0	0	0	0	0	0	0	0	0	0
012119	13:52:24	13:59:00	393723	5.0.10.0	4_exp_AMP_EVA_AWA_CON	80	Rpleas_acq	Oppo	Rpleas	Bmasked	CS_B	1pleas	distractor1	EVAbeforeCON	acq_US_pleas_masked	acq45_masked	4	4	400	0	300	300	0	0	498	50	0	1	0	0	0	1	blank2r.bmp	0	1	+	0	1	B1r.bmp	435	1	blank2r.bmp	693	1	BMVZ	693	1	blank2r.bmp	764	3	loyal	764	1	!	1129	1	!	-1	0	0	0	0	0	0	0	0	0	0	0	0	0	0	0	0	0	0	0	0	0	0	0	0	0	0	0
012119	13:52:24	13:59:02	395817	5.0.10.0	4_exp_AMP_EVA_AWA_CON	80	Rpleas_acq	Oppo	Rpleas	Bmasked	CS_B	1pleas	distractor1	EVAbeforeCON	acq_US_unple_masked	acq45_masked	4	5	400	1	300	300	0	0	391	46	0	1	0	0	0	1	blank2r.bmp	0	1	+	0	3	B3r.bmp	435	1	blank2r.bmp	693	1	GKQX	693	1	blank2r.bmp	764	6	schroff	764	1	!	1129	1	!	1188	0	0	0	0	0	0	0	0	0	0	0	0	0	0	0	0	0	0	0	0	0	0	0	0	0	0	0
012119	13:52:24	13:59:04	397911	5.0.10.0	4_exp_AMP_EVA_AWA_CON	80	Rpleas_acq	Oppo	Rpleas	Bmasked	CS_B	1pleas	distractor1	EVAbeforeCON	acq_US_unple_masked	acq45_masked	4	6	400	1	300	300	0	0	408	50	0	0	0	0	0	1	blank2r.bmp	0	1	+	0	7	C3r.bmp	435	1	blank2r.bmp	693	1	GKQX	693	1	blank2r.bmp	764	3	lasch	764	1	!	1129	1	!	1200	0	0	0	0	0	0	0	0	0	0	0	0	0	0	0	0	0	0	0	0	0	0	0	0	0	0	0
012119	13:52:24	13:59:06	399982	5.0.10.0	4_exp_AMP_EVA_AWA_CON	80	Rpleas_acq	Oppo	Rpleas	Bmasked	CS_B	1pleas	distractor1	EVAbeforeCON	acq_US_pleas_masked	acq45_masked	4	7	400	1	300	300	0	0	369	46	0	0	0	0	0	1	blank2r.bmp	0	1	+	0	2	B2r.bmp	435	1	blank2r.bmp	693	1	BMVZ	693	1	blank2r.bmp	764	6	schlau	764	1	!	1129	1	!	1164	0	0	0	0	0	0	0	0	0	0	0	0	0	0	0	0	0	0	0	0	0	0	0	0	0	0	0
012119	13:52:24	13:59:08	402158	5.0.10.0	4_exp_AMP_EVA_AWA_CON	80	Rpleas_acq	Oppo	Rpleas	Bmasked	CS_B	1pleas	distractor1	EVAbeforeCON	acq_US_unple_masked	acq45_masked	4	8	400	0	300	300	0	0	507	46	0	1	0	0	0	1	blank2r.bmp	0	1	+	0	8	C4r.bmp	435	1	blank2r.bmp	693	1	GKQX	693	1	blank2r.bmp	764	4	hindern	764	1	!	1129	1	!	-1	0	0	0	0	0	0	0	0	0	0	0	0	0	0	0	0	0	0	0	0	0	0	0	0	0	0	0
012119	13:52:24	13:59:11	404300	5.0.10.0	4_exp_AMP_EVA_AWA_CON	80	Rpleas_acq	Oppo	Rpleas	Bmasked	CS_B	1pleas	distractor1	EVAbeforeCON	acq_US_unple_masked	acq45_masked	4	9	400	1	300	300	0	0	425	46	0	1	0	0	0	1	blank2r.bmp	0	1	+	0	4	B4r.bmp	435	1	blank2r.bmp	693	1	GKQX	693	1	blank2r.bmp	764	1	tot	764	1	!	1129	1	!	1223	0	0	0	0	0	0	0	0	0	0	0	0	0	0	0	0	0	0	0	0	0	0	0	0	0	0	0
012119	13:52:24	13:59:13	406405	5.0.10.0	4_exp_AMP_EVA_AWA_CON	80	Rpleas_acq	Oppo	Rpleas	Bmasked	CS_B	1pleas	distractor1	EVAbeforeCON	acq_US_unple_masked	acq45_masked	4	10	400	1	300	300	0	0	415	50	0	0	0	0	0	1	blank2r.bmp	0	1	+	0	1	B1r.bmp	435	1	blank2r.bmp	693	1	GKQX	693	1	blank2r.bmp	764	5	eitel	764	1	!	1129	1	!	1211	0	0	0	0	0	0	0	0	0	0	0	0	0	0	0	0	0	0	0	0	0	0	0	0	0	0	0
012119	13:52:24	13:59:15	408476	5.0.10.0	4_exp_AMP_EVA_AWA_CON	80	Rpleas_acq	Oppo	Rpleas	Bmasked	CS_B	1pleas	distractor1	EVAbeforeCON	acq_US_pleas_masked	acq45_masked	4	11	400	1	300	300	0	0	384	46	0	0	0	0	0	1	blank2r.bmp	0	1	+	0	5	C1r.bmp	435	1	blank2r.bmp	693	1	BMVZ	693	1	blank2r.bmp	764	5	ehrlich	764	1	!	1129	1	!	1176	0	0	0	0	0	0	0	0	0	0	0	0	0	0	0	0	0	0	0	0	0	0	0	0	0	0	0
012119	13:52:24	13:59:17	410547	5.0.10.0	4_exp_AMP_EVA_AWA_CON	80	Rpleas_acq	Oppo	Rpleas	Bmasked	CS_B	1pleas	distractor1	EVAbeforeCON	acq_US_pleas_masked	acq45_masked	4	12	400	1	300	300	0	0	367	50	0	1	0	0	0	1	blank2r.bmp	0	1	+	0	6	C2r.bmp	435	1	blank2r.bmp	693	1	BMVZ	693	1	blank2r.bmp	764	2	schön	764	1	!	1129	1	!	1164	0	0	0	0	0	0	0	0	0	0	0	0	0	0	0	0	0	0	0	0	0	0	0	0	0	0	0
012119	13:52:24	13:59:19	412817	5.0.10.0	4_exp_AMP_EVA_AWA_CON	80	Rpleas_acq	Oppo	Rpleas	Bmasked	CS_B	1pleas	distractor1	EVAbeforeCON	acq_US_unple_masked	acq45_masked	4	13	400	0	300	300	0	0	587	46	0	1	0	0	0	1	blank2r.bmp	0	1	+	0	8	C4r.bmp	435	1	blank2r.bmp	693	1	GKQX	693	1	blank2r.bmp	764	2	schlecht	764	1	!	1129	1	!	-1	0	0	0	0	0	0	0	0	0	0	0	0	0	0	0	0	0	0	0	0	0	0	0	0	0	0	0
012119	13:52:24	13:59:21	414888	5.0.10.0	4_exp_AMP_EVA_AWA_CON	80	Rpleas_acq	Oppo	Rpleas	Bmasked	CS_B	1pleas	distractor1	EVAbeforeCON	acq_US_unple_masked	acq45_masked	4	14	400	1	300	300	0	0	367	46	0	1	0	0	0	1	blank2r.bmp	0	1	+	0	1	B1r.bmp	435	1	blank2r.bmp	693	1	GKQX	693	1	blank2r.bmp	764	4	hindern	764	1	!	1129	1	!	1164	0	0	0	0	0	0	0	0	0	0	0	0	0	0	0	0	0	0	0	0	0	0	0	0	0	0	0
012119	13:52:24	13:59:23	416947	5.0.10.0	4_exp_AMP_EVA_AWA_CON	80	Rpleas_acq	Oppo	Rpleas	Bmasked	CS_B	1pleas	distractor1	EVAbeforeCON	acq_US_unple_masked	acq45_masked	4	15	400	1	300	300	0	0	373	46	0	1	0	0	0	1	blank2r.bmp	0	1	+	0	3	B3r.bmp	435	1	blank2r.bmp	693	1	GKQX	693	1	blank2r.bmp	764	2	schlecht	764	1	!	1129	1	!	1164	0	0	0	0	0	0	0	0	0	0	0	0	0	0	0	0	0	0	0	0	0	0	0	0	0	0	0
012119	13:52:24	13:59:25	418994	5.0.10.0	4_exp_AMP_EVA_AWA_CON	80	Rpleas_acq	Oppo	Rpleas	Bmasked	CS_B	1pleas	distractor1	EVAbeforeCON	acq_US_pleas_masked	acq45_masked	4	16	400	1	300	300	0	0	342	50	0	1	0	0	0	1	blank2r.bmp	0	1	+	0	4	B4r.bmp	435	1	blank2r.bmp	693	1	BMVZ	693	1	blank2r.bmp	764	1	treu	764	1	!	1129	1	!	1141	0	0	0	0	0	0	0	0	0	0	0	0	0	0	0	0	0	0	0	0	0	0	0	0	0	0	0
012119	13:52:24	13:59:27	421159	5.0.10.0	4_exp_AMP_EVA_AWA_CON	80	Rpleas_acq	Oppo	Rpleas	Bmasked	CS_B	1pleas	distractor1	EVAbeforeCON	acq_US_unple_masked	acq45_masked	4	17	400	0	300	300	0	0	494	46	0	1	0	0	0	1	blank2r.bmp	0	1	+	0	6	C2r.bmp	435	1	blank2r.bmp	693	1	GKQX	693	1	blank2r.bmp	764	5	eitel	764	1	!	1129	1	!	-1	0	0	0	0	0	0	0	0	0	0	0	0	0	0	0	0	0	0	0	0	0	0	0	0	0	0	0
012119	13:52:24	13:59:29	423276	5.0.10.0	4_exp_AMP_EVA_AWA_CON	80	Rpleas_acq	Oppo	Rpleas	Bmasked	CS_B	1pleas	distractor1	EVAbeforeCON	acq_US_pleas_masked	acq45_masked	4	18	400	1	300	300	0	0	407	50	0	1	0	0	0	1	blank2r.bmp	0	1	+	0	7	C3r.bmp	435	1	blank2r.bmp	693	1	BMVZ	693	1	blank2r.bmp	764	5	ehrlich	764	1	!	1129	1	!	1200	0	0	0	0	0	0	0	0	0	0	0	0	0	0	0	0	0	0	0	0	0	0	0	0	0	0	0
012119	13:52:24	13:59:32	425335	5.0.10.0	4_exp_AMP_EVA_AWA_CON	80	Rpleas_acq	Oppo	Rpleas	Bmasked	CS_B	1pleas	distractor1	EVAbeforeCON	acq_US_unple_masked	acq45_masked	4	19	400	1	300	300	0	0	355	46	0	1	0	0	0	1	blank2r.bmp	0	1	+	0	5	C1r.bmp	435	1	blank2r.bmp	693	1	GKQX	693	1	blank2r.bmp	764	6	schroff	764	1	!	1129	1	!	1152	0	0	0	0	0	0	0	0	0	0	0	0	0	0	0	0	0	0	0	0	0	0	0	0	0	0	0
012119	13:52:24	13:59:34	427476	5.0.10.0	4_exp_AMP_EVA_AWA_CON	80	Rpleas_acq	Oppo	Rpleas	Bmasked	CS_B	1pleas	distractor1	EVAbeforeCON	acq_US_pleas_masked	acq45_masked	4	20	400	1	300	300	0	0	438	46	0	0	0	0	0	1	blank2r.bmp	0	1	+	0	2	B2r.bmp	435	1	blank2r.bmp	693	1	BMVZ	693	1	blank2r.bmp	764	3	loyal	764	1	!	1129	1	!	1235	0	0	0	0	0	0	0	0	0	0	0	0	0	0	0	0	0	0	0	0	0	0	0	0	0	0	0
012119	13:52:24	13:59:36	429618	5.0.10.0	4_exp_AMP_EVA_AWA_CON	80	Rpleas_acq	Oppo	Rpleas	Bmasked	CS_B	1pleas	distractor1	EVAbeforeCON	acq_US_pleas_masked	acq45_masked	4	21	400	1	300	300	0	0	443	46	0	0	0	0	0	1	blank2r.bmp	0	1	+	0	6	C2r.bmp	435	1	blank2r.bmp	693	1	BMVZ	693	1	blank2r.bmp	764	4	helfen	764	1	!	1129	1	!	1235	0	0	0	0	0	0	0	0	0	0	0	0	0	0	0	0	0	0	0	0	0	0	0	0	0	0	0
012119	13:52:24	13:59:38	431759	5.0.10.0	4_exp_AMP_EVA_AWA_CON	80	Rpleas_acq	Oppo	Rpleas	Bmasked	CS_B	1pleas	distractor1	EVAbeforeCON	acq_US_unple_masked	acq45_masked	4	22	400	1	300	300	0	0	450	46	0	1	0	0	0	1	blank2r.bmp	0	1	+	0	2	B2r.bmp	435	1	blank2r.bmp	693	1	GKQX	693	1	blank2r.bmp	764	3	lasch	764	1	!	1129	1	!	1247	0	0	0	0	0	0	0	0	0	0	0	0	0	0	0	0	0	0	0	0	0	0	0	0	0	0	0
012119	13:52:24	13:59:40	433923	5.0.10.0	4_exp_AMP_EVA_AWA_CON	80	Rpleas_acq	Oppo	Rpleas	Bmasked	CS_B	1pleas	distractor1	EVAbeforeCON	acq_US_pleas_masked	acq45_masked	4	23	400	0	300	300	0	0	501	50	0	1	0	0	0	1	blank2r.bmp	0	1	+	0	4	B4r.bmp	435	1	blank2r.bmp	693	1	BMVZ	693	1	blank2r.bmp	764	6	schlau	764	1	!	1129	1	!	-1	0	0	0	0	0	0	0	0	0	0	0	0	0	0	0	0	0	0	0	0	0	0	0	0	0	0	0
012119	13:52:24	13:59:42	435994	5.0.10.0	4_exp_AMP_EVA_AWA_CON	80	Rpleas_acq	Oppo	Rpleas	Bmasked	CS_B	1pleas	distractor1	EVAbeforeCON	acq_US_pleas_masked	acq45_masked	4	24	400	1	300	300	0	0	375	50	0	1	0	0	0	1	blank2r.bmp	0	1	+	0	3	B3r.bmp	435	1	blank2r.bmp	693	1	BMVZ	693	1	blank2r.bmp	764	5	ehrlich	764	1	!	1129	1	!	1164	0	0	0	0	0	0	0	0	0	0	0	0	0	0	0	0	0	0	0	0	0	0	0	0	0	0	0
012119	13:52:24	13:59:44	438135	5.0.10.0	4_exp_AMP_EVA_AWA_CON	80	Rpleas_acq	Oppo	Rpleas	Bmasked	CS_B	1pleas	distractor1	EVAbeforeCON	acq_US_pleas_masked	acq45_masked	4	25	400	1	300	300	0	0	445	50	0	1	0	0	0	1	blank2r.bmp	0	1	+	0	7	C3r.bmp	435	1	blank2r.bmp	693	1	BMVZ	693	1	blank2r.bmp	764	6	schlau	764	1	!	1129	1	!	1235	0	0	0	0	0	0	0	0	0	0	0	0	0	0	0	0	0	0	0	0	0	0	0	0	0	0	0
012119	13:52:24	13:59:46	440241	5.0.10.0	4_exp_AMP_EVA_AWA_CON	80	Rpleas_acq	Oppo	Rpleas	Bmasked	CS_B	1pleas	distractor1	EVAbeforeCON	acq_US_unple_masked	acq45_masked	4	26	400	1	300	300	0	0	419	50	0	0	0	0	0	1	blank2r.bmp	0	1	+	0	1	B1r.bmp	435	1	blank2r.bmp	693	1	GKQX	693	1	blank2r.bmp	764	1	tot	764	1	!	1129	1	!	1211	0	0	0	0	0	0	0	0	0	0	0	0	0	0	0	0	0	0	0	0	0	0	0	0	0	0	0
012119	13:52:24	13:59:49	442382	5.0.10.0	4_exp_AMP_EVA_AWA_CON	80	Rpleas_acq	Oppo	Rpleas	Bmasked	CS_B	1pleas	distractor1	EVAbeforeCON	acq_US_pleas_masked	acq45_masked	4	27	400	1	300	300	0	0	447	50	0	1	0	0	0	1	blank2r.bmp	0	1	+	0	5	C1r.bmp	435	1	blank2r.bmp	693	1	BMVZ	693	1	blank2r.bmp	764	4	helfen	764	1	!	1129	1	!	1247	0	0	0	0	0	0	0	0	0	0	0	0	0	0	0	0	0	0	0	0	0	0	0	0	0	0	0
012119	13:52:24	13:59:51	444535	5.0.10.0	4_exp_AMP_EVA_AWA_CON	80	Rpleas_acq	Oppo	Rpleas	Bmasked	CS_B	1pleas	distractor1	EVAbeforeCON	acq_US_pleas_masked	acq45_masked	4	28	400	0	300	300	0	0	482	50	0	1	0	0	0	1	blank2r.bmp	0	1	+	0	8	C4r.bmp	435	1	blank2r.bmp	693	1	BMVZ	693	1	blank2r.bmp	764	2	schön	764	1	!	1129	1	!	-1	0	0	0	0	0	0	0	0	0	0	0	0	0	0	0	0	0	0	0	0	0	0	0	0	0	0	0
012119	13:52:24	13:59:53	446700	5.0.10.0	4_exp_AMP_EVA_AWA_CON	80	Rpleas_acq	Oppo	Rpleas	Bmasked	CS_B	1pleas	distractor1	EVAbeforeCON	acq_US_pleas_masked	acq45_masked	4	29	400	1	300	300	0	0	460	50	0	1	0	0	0	1	blank2r.bmp	0	1	+	0	3	B3r.bmp	435	1	blank2r.bmp	693	1	BMVZ	693	1	blank2r.bmp	764	1	treu	764	1	!	1129	1	!	1258	0	0	0	0	0	0	0	0	0	0	0	0	0	0	0	0	0	0	0	0	0	0	0	0	0	0	0
012119	13:52:24	13:59:55	448900	5.0.10.0	4_exp_AMP_EVA_AWA_CON	80	Rpleas_acq	Oppo	Rpleas	Bmasked	CS_B	1pleas	distractor1	EVAbeforeCON	acq_US_unple_masked	acq45_masked	4	30	400	0	300	300	0	0	532	46	0	1	0	0	0	1	blank2r.bmp	0	1	+	0	7	C3r.bmp	435	1	blank2r.bmp	693	1	GKQX	693	1	blank2r.bmp	764	2	schlecht	764	1	!	1129	1	!	-1	0	0	0	0	0	0	0	0	0	0	0	0	0	0	0	0	0	0	0	0	0	0	0	0	0	0	0
012119	13:52:24	13:59:57	450853	5.0.10.0	4_exp_AMP_EVA_AWA_CON	80	Rpleas_acq	Oppo	Rpleas	Bmasked	CS_B	1pleas	distractor1	EVAbeforeCON	acq_US_unple_masked	acq45_masked	4	31	400	0	300	300	0	0	271	46	0	1	0	0	0	1	blank2r.bmp	0	1	+	0	8	C4r.bmp	435	1	blank2r.bmp	693	1	GKQX	693	1	blank2r.bmp	764	4	hindern	764	1	!	-1	1	!	-1	0	0	0	0	0	0	0	0	0	0	0	0	0	0	0	0	0	0	0	0	0	0	0	0	0	0	0
012119	13:52:24	13:59:59	452947	5.0.10.0	4_exp_AMP_EVA_AWA_CON	80	Rpleas_acq	Oppo	Rpleas	Bmasked	CS_B	1pleas	distractor1	EVAbeforeCON	acq_US_pleas_masked	acq45_masked	4	32	400	1	300	300	0	0	388	50	0	1	0	0	0	1	blank2r.bmp	0	1	+	0	4	B4r.bmp	435	1	blank2r.bmp	693	1	BMVZ	693	1	blank2r.bmp	764	3	loyal	764	1	!	1129	1	!	1188	0	0	0	0	0	0	0	0	0	0	0	0	0	0	0	0	0	0	0	0	0	0	0	0	0	0	0
012119	13:52:24	14:00:01	455100	5.0.10.0	4_exp_AMP_EVA_AWA_CON	80	Rpleas_acq	Oppo	Rpleas	Bmasked	CS_B	1pleas	distractor1	EVAbeforeCON	acq_US_unple_masked	acq45_masked	4	33	400	1	300	300	0	0	451	46	0	1	0	0	0	1	blank2r.bmp	0	1	+	0	1	B1r.bmp	435	1	blank2r.bmp	693	1	GKQX	693	1	blank2r.bmp	764	3	lasch	764	1	!	1129	1	!	1247	0	0	0	0	0	0	0	0	0	0	0	0	0	0	0	0	0	0	0	0	0	0	0	0	0	0	0
012119	13:52:24	14:00:03	457206	5.0.10.0	4_exp_AMP_EVA_AWA_CON	80	Rpleas_acq	Oppo	Rpleas	Bmasked	CS_B	1pleas	distractor1	EVAbeforeCON	acq_US_unple_masked	acq45_masked	4	34	400	1	300	300	0	0	404	46	0	1	0	0	0	1	blank2r.bmp	0	1	+	0	6	C2r.bmp	435	1	blank2r.bmp	693	1	GKQX	693	1	blank2r.bmp	764	5	eitel	764	1	!	1129	1	!	1200	0	0	0	0	0	0	0	0	0	0	0	0	0	0	0	0	0	0	0	0	0	0	0	0	0	0	0
012119	13:52:24	14:00:05	459183	5.0.10.0	4_exp_AMP_EVA_AWA_CON	80	Rpleas_acq	Oppo	Rpleas	Bmasked	CS_B	1pleas	distractor1	EVAbeforeCON	acq_US_unple_masked	acq45_masked	4	35	400	0	300	300	0	0	295	46	0	1	0	0	0	1	blank2r.bmp	0	1	+	0	2	B2r.bmp	435	1	blank2r.bmp	693	1	GKQX	693	1	blank2r.bmp	764	6	schroff	764	1	!	-1	1	!	-1	0	0	0	0	0	0	0	0	0	0	0	0	0	0	0	0	0	0	0	0	0	0	0	0	0	0	0
012119	13:52:24	14:00:08	461312	5.0.10.0	4_exp_AMP_EVA_AWA_CON	80	Rpleas_acq	Oppo	Rpleas	Bmasked	CS_B	1pleas	distractor1	EVAbeforeCON	acq_US_unple_masked	acq45_masked	4	36	400	1	300	300	0	0	423	46	0	1	0	0	0	1	blank2r.bmp	0	1	+	0	5	C1r.bmp	435	1	blank2r.bmp	693	1	GKQX	693	1	blank2r.bmp	764	1	tot	764	1	!	1129	1	!	1223	0	0	0	0	0	0	0	0	0	0	0	0	0	0	0	0	0	0	0	0	0	0	0	0	0	0	0
012119	13:52:24	14:00:19	472830	5.0.10.0	4_exp_AMP_EVA_AWA_CON	80	Rpleas_acq	Oppo	Rpleas	Bmasked	CS_B	1pleas	distractor1	EVAbeforeCON	acq_US_pleas_masked	acq45_masked	5	1	400	1	300	300	0	0	378	46	0	0	0	0	0	1	blank2r.bmp	0	1	+	0	6	C2r.bmp	435	1	blank2r.bmp	693	1	BMVZ	693	1	blank2r.bmp	764	3	loyal	764	1	!	1129	1	!	1176	0	0	0	0	0	0	0	0	0	0	0	0	0	0	0	0	0	0	0	0	0	0	0	0	0	0	0
012119	13:52:24	14:00:24	477807	5.0.10.0	4_exp_AMP_EVA_AWA_CON	80	Rpleas_acq	Oppo	Rpleas	Bmasked	CS_B	1pleas	distractor1	EVAbeforeCON	acq_US_pleas_masked	acq45_masked	5	2	400	0	300	300	0	0	3314	50	0	1	0	0	0	1	blank2r.bmp	0	1	+	0	3	B3r.bmp	435	1	blank2r.bmp	693	1	BMVZ	693	1	blank2r.bmp	764	6	schlau	764	1	!	1129	1	!	-1	0	0	0	0	0	0	0	0	0	0	0	0	0	0	0	0	0	0	0	0	0	0	0	0	0	0	0
012119	13:52:24	14:00:26	479854	5.0.10.0	4_exp_AMP_EVA_AWA_CON	80	Rpleas_acq	Oppo	Rpleas	Bmasked	CS_B	1pleas	distractor1	EVAbeforeCON	acq_US_pleas_masked	acq45_masked	5	3	400	1	300	300	0	0	341	50	0	1	0	0	0	1	blank2r.bmp	0	1	+	0	1	B1r.bmp	435	1	blank2r.bmp	693	1	BMVZ	693	1	blank2r.bmp	764	2	schön	764	1	!	1129	1	!	1141	0	0	0	0	0	0	0	0	0	0	0	0	0	0	0	0	0	0	0	0	0	0	0	0	0	0	0
012119	13:52:24	14:00:28	481936	5.0.10.0	4_exp_AMP_EVA_AWA_CON	80	Rpleas_acq	Oppo	Rpleas	Bmasked	CS_B	1pleas	distractor1	EVAbeforeCON	acq_US_pleas_masked	acq45_masked	5	4	400	1	300	300	0	0	395	50	0	1	0	0	0	1	blank2r.bmp	0	1	+	0	8	C4r.bmp	435	1	blank2r.bmp	693	1	BMVZ	693	1	blank2r.bmp	764	1	treu	764	1	!	1129	1	!	1188	0	0	0	0	0	0	0	0	0	0	0	0	0	0	0	0	0	0	0	0	0	0	0	0	0	0	0
012119	13:52:24	14:00:30	484018	5.0.10.0	4_exp_AMP_EVA_AWA_CON	80	Rpleas_acq	Oppo	Rpleas	Bmasked	CS_B	1pleas	distractor1	EVAbeforeCON	acq_US_unple_masked	acq45_masked	5	5	400	1	300	300	0	0	382	46	0	1	0	0	0	1	blank2r.bmp	0	1	+	0	2	B2r.bmp	435	1	blank2r.bmp	693	1	GKQX	693	1	blank2r.bmp	764	5	eitel	764	1	!	1129	1	!	1176	0	0	0	0	0	0	0	0	0	0	0	0	0	0	0	0	0	0	0	0	0	0	0	0	0	0	0
012119	13:52:24	14:00:32	486171	5.0.10.0	4_exp_AMP_EVA_AWA_CON	80	Rpleas_acq	Oppo	Rpleas	Bmasked	CS_B	1pleas	distractor1	EVAbeforeCON	acq_US_pleas_masked	acq45_masked	5	6	400	0	300	300	0	0	482	50	0	1	0	0	0	1	blank2r.bmp	0	1	+	0	4	B4r.bmp	435	1	blank2r.bmp	693	1	BMVZ	693	1	blank2r.bmp	764	5	ehrlich	764	1	!	1129	1	!	-1	0	0	0	0	0	0	0	0	0	0	0	0	0	0	0	0	0	0	0	0	0	0	0	0	0	0	0
012119	13:52:24	14:00:34	488242	5.0.10.0	4_exp_AMP_EVA_AWA_CON	80	Rpleas_acq	Oppo	Rpleas	Bmasked	CS_B	1pleas	distractor1	EVAbeforeCON	acq_US_unple_masked	acq45_masked	5	7	400	1	300	300	0	0	372	50	0	0	0	0	0	1	blank2r.bmp	0	1	+	0	5	C1r.bmp	435	1	blank2r.bmp	693	1	GKQX	693	1	blank2r.bmp	764	2	schlecht	764	1	!	1129	1	!	1164	0	0	0	0	0	0	0	0	0	0	0	0	0	0	0	0	0	0	0	0	0	0	0	0	0	0	0
012119	13:52:24	14:00:37	490360	5.0.10.0	4_exp_AMP_EVA_AWA_CON	80	Rpleas_acq	Oppo	Rpleas	Bmasked	CS_B	1pleas	distractor1	EVAbeforeCON	acq_US_pleas_masked	acq45_masked	5	8	400	1	300	300	0	0	428	50	0	1	0	0	0	1	blank2r.bmp	0	1	+	0	7	C3r.bmp	435	1	blank2r.bmp	693	1	BMVZ	693	1	blank2r.bmp	764	4	helfen	764	1	!	1129	1	!	1223	0	0	0	0	0	0	0	0	0	0	0	0	0	0	0	0	0	0	0	0	0	0	0	0	0	0	0
012119	13:52:24	14:00:39	492513	5.0.10.0	4_exp_AMP_EVA_AWA_CON	80	Rpleas_acq	Oppo	Rpleas	Bmasked	CS_B	1pleas	distractor1	EVAbeforeCON	acq_US_unple_masked	acq45_masked	5	9	400	1	300	300	0	0	455	46	0	1	0	0	0	1	blank2r.bmp	0	1	+	0	5	C1r.bmp	435	1	blank2r.bmp	693	1	GKQX	693	1	blank2r.bmp	764	4	hindern	764	1	!	1129	1	!	1247	0	0	0	0	0	0	0	0	0	0	0	0	0	0	0	0	0	0	0	0	0	0	0	0	0	0	0
012119	13:52:24	14:00:41	494560	5.0.10.0	4_exp_AMP_EVA_AWA_CON	80	Rpleas_acq	Oppo	Rpleas	Bmasked	CS_B	1pleas	distractor1	EVAbeforeCON	acq_US_unple_masked	acq45_masked	5	10	400	1	300	300	0	0	341	46	0	1	0	0	0	1	blank2r.bmp	0	1	+	0	4	B4r.bmp	435	1	blank2r.bmp	693	1	GKQX	693	1	blank2r.bmp	764	6	schroff	764	1	!	1129	1	!	1141	0	0	0	0	0	0	0	0	0	0	0	0	0	0	0	0	0	0	0	0	0	0	0	0	0	0	0
012119	13:52:24	14:00:43	496619	5.0.10.0	4_exp_AMP_EVA_AWA_CON	80	Rpleas_acq	Oppo	Rpleas	Bmasked	CS_B	1pleas	distractor1	EVAbeforeCON	acq_US_pleas_masked	acq45_masked	5	11	400	1	300	300	0	0	372	46	0	0	0	0	0	1	blank2r.bmp	0	1	+	0	3	B3r.bmp	435	1	blank2r.bmp	693	1	BMVZ	693	1	blank2r.bmp	764	3	loyal	764	1	!	1129	1	!	1164	0	0	0	0	0	0	0	0	0	0	0	0	0	0	0	0	0	0	0	0	0	0	0	0	0	0	0
012119	13:52:24	14:00:45	498725	5.0.10.0	4_exp_AMP_EVA_AWA_CON	80	Rpleas_acq	Oppo	Rpleas	Bmasked	CS_B	1pleas	distractor1	EVAbeforeCON	acq_US_unple_masked	acq45_masked	5	12	400	1	300	300	0	0	413	46	0	1	0	0	0	1	blank2r.bmp	0	1	+	0	2	B2r.bmp	435	1	blank2r.bmp	693	1	GKQX	693	1	blank2r.bmp	764	1	tot	764	1	!	1129	1	!	1211	0	0	0	0	0	0	0	0	0	0	0	0	0	0	0	0	0	0	0	0	0	0	0	0	0	0	0
012119	13:52:24	14:00:47	500772	5.0.10.0	4_exp_AMP_EVA_AWA_CON	80	Rpleas_acq	Oppo	Rpleas	Bmasked	CS_B	1pleas	distractor1	EVAbeforeCON	acq_US_unple_masked	acq45_masked	5	13	400	1	300	300	0	0	360	46	0	1	0	0	0	1	blank2r.bmp	0	1	+	0	6	C2r.bmp	435	1	blank2r.bmp	693	1	GKQX	693	1	blank2r.bmp	764	3	lasch	764	1	!	1129	1	!	1152	0	0	0	0	0	0	0	0	0	0	0	0	0	0	0	0	0	0	0	0	0	0	0	0	0	0	0
012119	13:52:24	14:00:49	502901	5.0.10.0	4_exp_AMP_EVA_AWA_CON	80	Rpleas_acq	Oppo	Rpleas	Bmasked	CS_B	1pleas	distractor1	EVAbeforeCON	acq_US_pleas_masked	acq45_masked	5	14	400	1	300	300	0	0	442	50	0	1	0	0	0	1	blank2r.bmp	0	1	+	0	7	C3r.bmp	435	1	blank2r.bmp	693	1	BMVZ	693	1	blank2r.bmp	764	1	treu	764	1	!	1129	1	!	1235	0	0	0	0	0	0	0	0	0	0	0	0	0	0	0	0	0	0	0	0	0	0	0	0	0	0	0
012119	13:52:24	14:00:51	505042	5.0.10.0	4_exp_AMP_EVA_AWA_CON	80	Rpleas_acq	Oppo	Rpleas	Bmasked	CS_B	1pleas	distractor1	EVAbeforeCON	acq_US_unple_masked	acq45_masked	5	15	400	1	300	300	0	0	444	46	0	1	0	0	0	1	blank2r.bmp	0	1	+	0	8	C4r.bmp	435	1	blank2r.bmp	693	1	GKQX	693	1	blank2r.bmp	764	3	lasch	764	1	!	1129	1	!	1235	0	0	0	0	0	0	0	0	0	0	0	0	0	0	0	0	0	0	0	0	0	0	0	0	0	0	0
012119	13:52:24	14:00:53	507078	5.0.10.0	4_exp_AMP_EVA_AWA_CON	80	Rpleas_acq	Oppo	Rpleas	Bmasked	CS_B	1pleas	distractor1	EVAbeforeCON	acq_US_unple_masked	acq45_masked	5	16	400	1	300	300	0	0	344	46	0	1	0	0	0	1	blank2r.bmp	0	1	+	0	1	B1r.bmp	435	1	blank2r.bmp	693	1	GKQX	693	1	blank2r.bmp	764	4	hindern	764	1	!	1129	1	!	1141	0	0	0	0	0	0	0	0	0	0	0	0	0	0	0	0	0	0	0	0	0	0	0	0	0	0	0
012119	13:52:24	14:00:55	509148	5.0.10.0	4_exp_AMP_EVA_AWA_CON	80	Rpleas_acq	Oppo	Rpleas	Bmasked	CS_B	1pleas	distractor1	EVAbeforeCON	acq_US_pleas_masked	acq45_masked	5	17	400	1	300	300	0	0	384	50	0	1	0	0	0	1	blank2r.bmp	0	1	+	0	3	B3r.bmp	435	1	blank2r.bmp	693	1	BMVZ	693	1	blank2r.bmp	764	6	schlau	764	1	!	1129	1	!	1176	0	0	0	0	0	0	0	0	0	0	0	0	0	0	0	0	0	0	0	0	0	0	0	0	0	0	0
012119	13:52:24	14:00:57	511231	5.0.10.0	4_exp_AMP_EVA_AWA_CON	80	Rpleas_acq	Oppo	Rpleas	Bmasked	CS_B	1pleas	distractor1	EVAbeforeCON	acq_US_unple_masked	acq45_masked	5	18	400	1	300	300	0	0	393	46	0	1	0	0	0	1	blank2r.bmp	0	1	+	0	2	B2r.bmp	435	1	blank2r.bmp	693	1	GKQX	693	1	blank2r.bmp	764	6	schroff	764	1	!	1129	1	!	1188	0	0	0	0	0	0	0	0	0	0	0	0	0	0	0	0	0	0	0	0	0	0	0	0	0	0	0
012119	13:52:24	14:00:59	513231	5.0.10.0	4_exp_AMP_EVA_AWA_CON	80	Rpleas_acq	Oppo	Rpleas	Bmasked	CS_B	1pleas	distractor1	EVAbeforeCON	acq_US_unple_masked	acq45_masked	5	19	400	0	300	300	0	0	314	46	0	1	0	0	0	1	blank2r.bmp	0	1	+	0	7	C3r.bmp	435	1	blank2r.bmp	693	1	GKQX	693	1	blank2r.bmp	764	1	tot	764	1	!	-1	1	!	-1	0	0	0	0	0	0	0	0	0	0	0	0	0	0	0	0	0	0	0	0	0	0	0	0	0	0	0
012119	13:52:24	14:01:01	515266	5.0.10.0	4_exp_AMP_EVA_AWA_CON	80	Rpleas_acq	Oppo	Rpleas	Bmasked	CS_B	1pleas	distractor1	EVAbeforeCON	acq_US_unple_masked	acq45_masked	5	20	400	1	300	300	0	0	341	46	0	1	0	0	0	1	blank2r.bmp	0	1	+	0	1	B1r.bmp	435	1	blank2r.bmp	693	1	GKQX	693	1	blank2r.bmp	764	2	schlecht	764	1	!	1129	1	!	1141	0	0	0	0	0	0	0	0	0	0	0	0	0	0	0	0	0	0	0	0	0	0	0	0	0	0	0
012119	13:52:24	14:01:04	517419	5.0.10.0	4_exp_AMP_EVA_AWA_CON	80	Rpleas_acq	Oppo	Rpleas	Bmasked	CS_B	1pleas	distractor1	EVAbeforeCON	acq_US_pleas_masked	acq45_masked	5	21	400	0	300	300	0	0	482	50	0	1	0	0	0	1	blank2r.bmp	0	1	+	0	5	C1r.bmp	435	1	blank2r.bmp	693	1	BMVZ	693	1	blank2r.bmp	764	4	helfen	764	1	!	1129	1	!	-1	0	0	0	0	0	0	0	0	0	0	0	0	0	0	0	0	0	0	0	0	0	0	0	0	0	0	0
012119	13:52:24	14:01:06	519548	5.0.10.0	4_exp_AMP_EVA_AWA_CON	80	Rpleas_acq	Oppo	Rpleas	Bmasked	CS_B	1pleas	distractor1	EVAbeforeCON	acq_US_unple_masked	acq45_masked	5	22	400	1	300	300	0	0	429	46	0	1	0	0	0	1	blank2r.bmp	0	1	+	0	4	B4r.bmp	435	1	blank2r.bmp	693	1	GKQX	693	1	blank2r.bmp	764	5	eitel	764	1	!	1129	1	!	1223	0	0	0	0	0	0	0	0	0	0	0	0	0	0	0	0	0	0	0	0	0	0	0	0	0	0	0
012119	13:52:24	14:01:08	521701	5.0.10.0	4_exp_AMP_EVA_AWA_CON	80	Rpleas_acq	Oppo	Rpleas	Bmasked	CS_B	1pleas	distractor1	EVAbeforeCON	acq_US_unple_masked	acq45_masked	5	23	400	0	300	300	0	0	492	46	0	1	0	0	0	1	blank2r.bmp	0	1	+	0	6	C2r.bmp	435	1	blank2r.bmp	693	1	GKQX	693	1	blank2r.bmp	764	2	schlecht	764	1	!	1129	1	!	-1	0	0	0	0	0	0	0	0	0	0	0	0	0	0	0	0	0	0	0	0	0	0	0	0	0	0	0
012119	13:52:24	14:01:10	523701	5.0.10.0	4_exp_AMP_EVA_AWA_CON	80	Rpleas_acq	Oppo	Rpleas	Bmasked	CS_B	1pleas	distractor1	EVAbeforeCON	acq_US_pleas_masked	acq45_masked	5	24	400	0	300	300	0	0	305	50	0	1	0	0	0	1	blank2r.bmp	0	1	+	0	8	C4r.bmp	435	1	blank2r.bmp	693	1	BMVZ	693	1	blank2r.bmp	764	2	schön	764	1	!	-1	1	!	-1	0	0	0	0	0	0	0	0	0	0	0	0	0	0	0	0	0	0	0	0	0	0	0	0	0	0	0
012119	13:52:24	14:01:12	525760	5.0.10.0	4_exp_AMP_EVA_AWA_CON	80	Rpleas_acq	Oppo	Rpleas	Bmasked	CS_B	1pleas	distractor1	EVAbeforeCON	acq_US_pleas_masked	acq45_masked	5	25	400	1	300	300	0	0	358	46	0	0	0	0	0	1	blank2r.bmp	0	1	+	0	7	C3r.bmp	435	1	blank2r.bmp	693	1	BMVZ	693	1	blank2r.bmp	764	5	ehrlich	764	1	!	1129	1	!	1153	0	0	0	0	0	0	0	0	0	0	0	0	0	0	0	0	0	0	0	0	0	0	0	0	0	0	0
012119	13:52:24	14:01:14	527831	5.0.10.0	4_exp_AMP_EVA_AWA_CON	80	Rpleas_acq	Oppo	Rpleas	Bmasked	CS_B	1pleas	distractor1	EVAbeforeCON	acq_US_unple_masked	acq45_masked	5	26	400	1	300	300	0	0	377	46	0	1	0	0	0	1	blank2r.bmp	0	1	+	0	6	C2r.bmp	435	1	blank2r.bmp	693	1	GKQX	693	1	blank2r.bmp	764	5	eitel	764	1	!	1129	1	!	1176	0	0	0	0	0	0	0	0	0	0	0	0	0	0	0	0	0	0	0	0	0	0	0	0	0	0	0
012119	13:52:24	14:01:16	529901	5.0.10.0	4_exp_AMP_EVA_AWA_CON	80	Rpleas_acq	Oppo	Rpleas	Bmasked	CS_B	1pleas	distractor1	EVAbeforeCON	acq_US_pleas_masked	acq45_masked	5	27	400	1	300	300	0	0	364	46	0	0	0	0	0	1	blank2r.bmp	0	1	+	0	5	C1r.bmp	435	1	blank2r.bmp	693	1	BMVZ	693	1	blank2r.bmp	764	6	schlau	764	1	!	1129	1	!	1164	0	0	0	0	0	0	0	0	0	0	0	0	0	0	0	0	0	0	0	0	0	0	0	0	0	0	0
012119	13:52:24	14:01:18	531984	5.0.10.0	4_exp_AMP_EVA_AWA_CON	80	Rpleas_acq	Oppo	Rpleas	Bmasked	CS_B	1pleas	distractor1	EVAbeforeCON	acq_US_unple_masked	acq45_masked	5	28	400	1	300	300	0	0	382	46	0	1	0	0	0	1	blank2r.bmp	0	1	+	0	3	B3r.bmp	435	1	blank2r.bmp	693	1	GKQX	693	1	blank2r.bmp	764	6	schroff	764	1	!	1129	1	!	1176	0	0	0	0	0	0	0	0	0	0	0	0	0	0	0	0	0	0	0	0	0	0	0	0	0	0	0
012119	13:52:24	14:01:20	534066	5.0.10.0	4_exp_AMP_EVA_AWA_CON	80	Rpleas_acq	Oppo	Rpleas	Bmasked	CS_B	1pleas	distractor1	EVAbeforeCON	acq_US_unple_masked	acq45_masked	5	29	400	1	300	300	0	0	398	46	0	1	0	0	0	1	blank2r.bmp	0	1	+	0	8	C4r.bmp	435	1	blank2r.bmp	693	1	GKQX	693	1	blank2r.bmp	764	4	hindern	764	1	!	1129	1	!	1188	0	0	0	0	0	0	0	0	0	0	0	0	0	0	0	0	0	0	0	0	0	0	0	0	0	0	0
012119	13:52:24	14:01:22	536160	5.0.10.0	4_exp_AMP_EVA_AWA_CON	80	Rpleas_acq	Oppo	Rpleas	Bmasked	CS_B	1pleas	distractor1	EVAbeforeCON	acq_US_unple_masked	acq45_masked	5	30	400	1	300	300	0	0	408	46	0	1	0	0	0	1	blank2r.bmp	0	1	+	0	1	B1r.bmp	435	1	blank2r.bmp	693	1	GKQX	693	1	blank2r.bmp	764	1	tot	764	1	!	1129	1	!	1200	0	0	0	0	0	0	0	0	0	0	0	0	0	0	0	0	0	0	0	0	0	0	0	0	0	0	0
012119	13:52:24	14:01:24	538255	5.0.10.0	4_exp_AMP_EVA_AWA_CON	80	Rpleas_acq	Oppo	Rpleas	Bmasked	CS_B	1pleas	distractor1	EVAbeforeCON	acq_US_pleas_masked	acq45_masked	5	31	400	1	300	300	0	0	397	50	0	1	0	0	0	1	blank2r.bmp	0	1	+	0	2	B2r.bmp	435	1	blank2r.bmp	693	1	BMVZ	693	1	blank2r.bmp	764	1	treu	764	1	!	1129	1	!	1188	0	0	0	0	0	0	0	0	0	0	0	0	0	0	0	0	0	0	0	0	0	0	0	0	0	0	0
012119	13:52:24	14:01:27	540360	5.0.10.0	4_exp_AMP_EVA_AWA_CON	80	Rpleas_acq	Oppo	Rpleas	Bmasked	CS_B	1pleas	distractor1	EVAbeforeCON	acq_US_pleas_masked	acq45_masked	5	32	400	1	300	300	0	0	413	50	0	1	0	0	0	1	blank2r.bmp	0	1	+	0	4	B4r.bmp	435	1	blank2r.bmp	693	1	BMVZ	693	1	blank2r.bmp	764	3	loyal	764	1	!	1129	1	!	1211	0	0	0	0	0	0	0	0	0	0	0	0	0	0	0	0	0	0	0	0	0	0	0	0	0	0	0
012119	13:52:24	14:01:29	542302	5.0.10.0	4_exp_AMP_EVA_AWA_CON	80	Rpleas_acq	Oppo	Rpleas	Bmasked	CS_B	1pleas	distractor1	EVAbeforeCON	acq_US_pleas_masked	acq45_masked	5	33	400	0	300	300	0	0	269	50	0	1	0	0	0	1	blank2r.bmp	0	1	+	0	6	C2r.bmp	435	1	blank2r.bmp	693	1	BMVZ	693	1	blank2r.bmp	764	2	schön	764	1	!	-1	1	!	-1	0	0	0	0	0	0	0	0	0	0	0	0	0	0	0	0	0	0	0	0	0	0	0	0	0	0	0
012119	13:52:24	14:01:31	544455	5.0.10.0	4_exp_AMP_EVA_AWA_CON	80	Rpleas_acq	Oppo	Rpleas	Bmasked	CS_B	1pleas	distractor1	EVAbeforeCON	acq_US_pleas_masked	acq45_masked	5	34	400	1	300	300	0	0	447	50	0	1	0	0	0	1	blank2r.bmp	0	1	+	0	2	B2r.bmp	435	1	blank2r.bmp	693	1	BMVZ	693	1	blank2r.bmp	764	5	ehrlich	764	1	!	1129	1	!	1247	0	0	0	0	0	0	0	0	0	0	0	0	0	0	0	0	0	0	0	0	0	0	0	0	0	0	0
012119	13:52:24	14:01:33	546490	5.0.10.0	4_exp_AMP_EVA_AWA_CON	80	Rpleas_acq	Oppo	Rpleas	Bmasked	CS_B	1pleas	distractor1	EVAbeforeCON	acq_US_unple_masked	acq45_masked	5	35	400	1	300	300	0	0	345	46	0	1	0	0	0	1	blank2r.bmp	0	1	+	0	8	C4r.bmp	435	1	blank2r.bmp	693	1	GKQX	693	1	blank2r.bmp	764	3	lasch	764	1	!	1129	1	!	1141	0	0	0	0	0	0	0	0	0	0	0	0	0	0	0	0	0	0	0	0	0	0	0	0	0	0	0
012119	13:52:24	14:01:35	548619	5.0.10.0	4_exp_AMP_EVA_AWA_CON	80	Rpleas_acq	Oppo	Rpleas	Bmasked	CS_B	1pleas	distractor1	EVAbeforeCON	acq_US_pleas_masked	acq45_masked	5	36	400	1	300	300	0	0	445	50	0	1	0	0	0	1	blank2r.bmp	0	1	+	0	3	B3r.bmp	435	1	blank2r.bmp	693	1	BMVZ	693	1	blank2r.bmp	764	4	helfen	764	1	!	1129	1	!	1235	0	0	0	0	0	0	0	0	0	0	0	0	0	0	0	0	0	0	0	0	0	0	0	0	0	0	0
012119	13:52:24	14:02:14	587855	5.0.10.0	4_exp_AMP_EVA_AWA_CON	80	Rpleas_acq	Oppo	Lpleas	Bmasked	CS_B	1pleas	distractor1	EVAbeforeCON	AMP_distractor	AMP1_masked	6	1	0	0	300	300	0	0	4462	46	0	0	0	0	0	1	blank2r.bmp	0	1	WFPH	0	1	blank2r.bmp	70	38	pic38.bmp	176	1	whitenoise_No3.bmp	270	0	0	0	0	0	0	0	0	0	0	0	0	0	0	0	0	0	0	0	0	0	0	0	0	0	0	0	0	0	0	0	0	0	0	0	0	0	0	0
012119	13:52:24	14:02:16	589820	5.0.10.0	4_exp_AMP_EVA_AWA_CON	80	Rpleas_acq	Oppo	Lpleas	Bmasked	CS_B	1pleas	distractor1	EVAbeforeCON	AMP_CSunple	AMP1_masked	6	2	0	0	300	300	0	0	1078	50	0	1	0	0	0	1	blank2r.bmp	0	1	GKQX	0	1	blank2r.bmp	70	76	pic76.bmp	176	1	whitenoise_No3.bmp	270	0	0	0	0	0	0	0	0	0	0	0	0	0	0	0	0	0	0	0	0	0	0	0	0	0	0	0	0	0	0	0	0	0	0	0	0	0	0	0
012119	13:52:24	14:02:18	592244	5.0.10.0	4_exp_AMP_EVA_AWA_CON	80	Rpleas_acq	Oppo	Lpleas	Bmasked	CS_B	1pleas	distractor1	EVAbeforeCON	AMP_CSpleas	AMP1_masked	6	3	0	0	300	300	0	0	1529	46	0	1	0	0	0	1	blank2r.bmp	0	1	BMVZ	0	1	blank2r.bmp	70	153	pic153.bmp	176	1	whitenoise_No3.bmp	270	0	0	0	0	0	0	0	0	0	0	0	0	0	0	0	0	0	0	0	0	0	0	0	0	0	0	0	0	0	0	0	0	0	0	0	0	0	0	0
012119	13:52:24	14:02:20	593997	5.0.10.0	4_exp_AMP_EVA_AWA_CON	80	Rpleas_acq	Oppo	Lpleas	Bmasked	CS_B	1pleas	distractor1	EVAbeforeCON	AMP_CSpleas	AMP1_masked	6	4	0	0	300	300	0	0	875	46	0	1	0	0	0	1	blank2r.bmp	0	1	BMVZ	0	1	blank2r.bmp	70	131	pic131.bmp	176	1	whitenoise_No3.bmp	270	0	0	0	0	0	0	0	0	0	0	0	0	0	0	0	0	0	0	0	0	0	0	0	0	0	0	0	0	0	0	0	0	0	0	0	0	0	0	0
012119	13:52:24	14:02:22	595550	5.0.10.0	4_exp_AMP_EVA_AWA_CON	80	Rpleas_acq	Oppo	Lpleas	Bmasked	CS_B	1pleas	distractor1	EVAbeforeCON	AMP_CSunple	AMP1_masked	6	5	0	0	300	300	0	0	669	46	0	0	0	0	0	1	blank2r.bmp	0	1	GKQX	0	1	blank2r.bmp	70	141	pic141.bmp	176	1	whitenoise_No3.bmp	270	0	0	0	0	0	0	0	0	0	0	0	0	0	0	0	0	0	0	0	0	0	0	0	0	0	0	0	0	0	0	0	0	0	0	0	0	0	0	0
012119	13:52:24	14:02:23	597044	5.0.10.0	4_exp_AMP_EVA_AWA_CON	80	Rpleas_acq	Oppo	Lpleas	Bmasked	CS_B	1pleas	distractor1	EVAbeforeCON	AMP_CSunple	AMP1_masked	6	6	0	0	300	300	0	0	609	50	0	1	0	0	0	1	blank2r.bmp	0	1	GKQX	0	1	blank2r.bmp	70	116	pic116.bmp	176	1	whitenoise_No3.bmp	270	0	0	0	0	0	0	0	0	0	0	0	0	0	0	0	0	0	0	0	0	0	0	0	0	0	0	0	0	0	0	0	0	0	0	0	0	0	0	0
012119	13:52:24	14:02:25	598608	5.0.10.0	4_exp_AMP_EVA_AWA_CON	80	Rpleas_acq	Oppo	Lpleas	Bmasked	CS_B	1pleas	distractor1	EVAbeforeCON	AMP_distractor	AMP1_masked	6	7	0	0	300	300	0	0	676	50	0	0	0	0	0	1	blank2r.bmp	0	1	WFPH	0	1	blank2r.bmp	70	112	pic112.bmp	176	1	whitenoise_No3.bmp	270	0	0	0	0	0	0	0	0	0	0	0	0	0	0	0	0	0	0	0	0	0	0	0	0	0	0	0	0	0	0	0	0	0	0	0	0	0	0	0
012119	13:52:24	14:02:26	599997	5.0.10.0	4_exp_AMP_EVA_AWA_CON	80	Rpleas_acq	Oppo	Lpleas	Bmasked	CS_B	1pleas	distractor1	EVAbeforeCON	AMP_CSunple	AMP1_masked	6	8	0	0	300	300	0	0	515	46	0	0	0	0	0	1	blank2r.bmp	0	1	GKQX	0	1	blank2r.bmp	70	46	pic46.bmp	176	1	whitenoise_No3.bmp	270	0	0	0	0	0	0	0	0	0	0	0	0	0	0	0	0	0	0	0	0	0	0	0	0	0	0	0	0	0	0	0	0	0	0	0	0	0	0	0
012119	13:52:24	14:02:28	601479	5.0.10.0	4_exp_AMP_EVA_AWA_CON	80	Rpleas_acq	Oppo	Lpleas	Bmasked	CS_B	1pleas	distractor1	EVAbeforeCON	AMP_CSunple	AMP1_masked	6	9	0	0	300	300	0	0	585	46	0	0	0	0	0	1	blank2r.bmp	0	1	GKQX	0	1	blank2r.bmp	70	40	pic40.bmp	176	1	whitenoise_No3.bmp	270	0	0	0	0	0	0	0	0	0	0	0	0	0	0	0	0	0	0	0	0	0	0	0	0	0	0	0	0	0	0	0	0	0	0	0	0	0	0	0
012119	13:52:24	14:02:29	603008	5.0.10.0	4_exp_AMP_EVA_AWA_CON	80	Rpleas_acq	Oppo	Lpleas	Bmasked	CS_B	1pleas	distractor1	EVAbeforeCON	AMP_CSunple	AMP1_masked	6	10	0	0	300	300	0	0	657	46	0	0	0	0	0	1	blank2r.bmp	0	1	GKQX	0	1	blank2r.bmp	70	58	pic58.bmp	176	1	whitenoise_No3.bmp	270	0	0	0	0	0	0	0	0	0	0	0	0	0	0	0	0	0	0	0	0	0	0	0	0	0	0	0	0	0	0	0	0	0	0	0	0	0	0	0
012119	13:52:24	14:02:31	604397	5.0.10.0	4_exp_AMP_EVA_AWA_CON	80	Rpleas_acq	Oppo	Lpleas	Bmasked	CS_B	1pleas	distractor1	EVAbeforeCON	AMP_CSunple	AMP1_masked	6	11	0	0	300	300	0	0	486	46	0	0	0	0	0	1	blank2r.bmp	0	1	GKQX	0	1	blank2r.bmp	70	50	pic50.bmp	176	1	whitenoise_No3.bmp	270	0	0	0	0	0	0	0	0	0	0	0	0	0	0	0	0	0	0	0	0	0	0	0	0	0	0	0	0	0	0	0	0	0	0	0	0	0	0	0
012119	13:52:24	14:02:32	605938	5.0.10.0	4_exp_AMP_EVA_AWA_CON	80	Rpleas_acq	Oppo	Lpleas	Bmasked	CS_B	1pleas	distractor1	EVAbeforeCON	AMP_distractor	AMP1_masked	6	12	0	0	300	300	0	0	665	46	0	0	0	0	0	1	blank2r.bmp	0	1	WFPH	0	1	blank2r.bmp	70	91	pic91.bmp	176	1	whitenoise_No3.bmp	270	0	0	0	0	0	0	0	0	0	0	0	0	0	0	0	0	0	0	0	0	0	0	0	0	0	0	0	0	0	0	0	0	0	0	0	0	0	0	0
012119	13:52:24	14:02:34	607314	5.0.10.0	4_exp_AMP_EVA_AWA_CON	80	Rpleas_acq	Oppo	Lpleas	Bmasked	CS_B	1pleas	distractor1	EVAbeforeCON	AMP_CSpleas	AMP1_masked	6	13	0	0	300	300	0	0	488	46	0	1	0	0	0	1	blank2r.bmp	0	1	BMVZ	0	1	blank2r.bmp	70	97	pic97.bmp	176	1	whitenoise_No3.bmp	270	0	0	0	0	0	0	0	0	0	0	0	0	0	0	0	0	0	0	0	0	0	0	0	0	0	0	0	0	0	0	0	0	0	0	0	0	0	0	0
012119	13:52:24	14:02:35	608773	5.0.10.0	4_exp_AMP_EVA_AWA_CON	80	Rpleas_acq	Oppo	Lpleas	Bmasked	CS_B	1pleas	distractor1	EVAbeforeCON	AMP_distractor	AMP1_masked	6	14	0	0	300	300	0	0	578	50	0	0	0	0	0	1	blank2r.bmp	0	1	WFPH	0	1	blank2r.bmp	70	20	pic20.bmp	176	1	whitenoise_No3.bmp	270	0	0	0	0	0	0	0	0	0	0	0	0	0	0	0	0	0	0	0	0	0	0	0	0	0	0	0	0	0	0	0	0	0	0	0	0	0	0	0
012119	13:52:24	14:02:36	610267	5.0.10.0	4_exp_AMP_EVA_AWA_CON	80	Rpleas_acq	Oppo	Lpleas	Bmasked	CS_B	1pleas	distractor1	EVAbeforeCON	AMP_CSunple	AMP1_masked	6	15	0	0	300	300	0	0	606	50	0	1	0	0	0	1	blank2r.bmp	0	1	GKQX	0	1	blank2r.bmp	70	37	pic37.bmp	176	1	whitenoise_No3.bmp	270	0	0	0	0	0	0	0	0	0	0	0	0	0	0	0	0	0	0	0	0	0	0	0	0	0	0	0	0	0	0	0	0	0	0	0	0	0	0	0
012119	13:52:24	14:02:38	611550	5.0.10.0	4_exp_AMP_EVA_AWA_CON	80	Rpleas_acq	Oppo	Lpleas	Bmasked	CS_B	1pleas	distractor1	EVAbeforeCON	AMP_distractor	AMP1_masked	6	16	0	0	300	300	0	0	398	50	0	0	0	0	0	1	blank2r.bmp	0	1	WFPH	0	1	blank2r.bmp	70	115	pic115.bmp	176	1	whitenoise_No3.bmp	270	0	0	0	0	0	0	0	0	0	0	0	0	0	0	0	0	0	0	0	0	0	0	0	0	0	0	0	0	0	0	0	0	0	0	0	0	0	0	0
012119	13:52:24	14:02:39	612832	5.0.10.0	4_exp_AMP_EVA_AWA_CON	80	Rpleas_acq	Oppo	Lpleas	Bmasked	CS_B	1pleas	distractor1	EVAbeforeCON	AMP_distractor	AMP1_masked	6	17	0	0	300	300	0	0	397	50	0	0	0	0	0	1	blank2r.bmp	0	1	WFPH	0	1	blank2r.bmp	70	3	pic3.bmp	176	1	whitenoise_No3.bmp	270	0	0	0	0	0	0	0	0	0	0	0	0	0	0	0	0	0	0	0	0	0	0	0	0	0	0	0	0	0	0	0	0	0	0	0	0	0	0	0
012119	13:52:24	14:02:40	614209	5.0.10.0	4_exp_AMP_EVA_AWA_CON	80	Rpleas_acq	Oppo	Lpleas	Bmasked	CS_B	1pleas	distractor1	EVAbeforeCON	AMP_distractor	AMP1_masked	6	18	0	0	300	300	0	0	485	46	0	0	0	0	0	1	blank2r.bmp	0	1	WFPH	0	1	blank2r.bmp	70	98	pic98.bmp	176	1	whitenoise_No3.bmp	270	0	0	0	0	0	0	0	0	0	0	0	0	0	0	0	0	0	0	0	0	0	0	0	0	0	0	0	0	0	0	0	0	0	0	0	0	0	0	0
012119	13:52:24	14:02:42	615597	5.0.10.0	4_exp_AMP_EVA_AWA_CON	80	Rpleas_acq	Oppo	Lpleas	Bmasked	CS_B	1pleas	distractor1	EVAbeforeCON	AMP_distractor	AMP1_masked	6	19	0	0	300	300	0	0	507	50	0	0	0	0	0	1	blank2r.bmp	0	1	WFPH	0	1	blank2r.bmp	70	78	pic78.bmp	176	1	whitenoise_No3.bmp	270	0	0	0	0	0	0	0	0	0	0	0	0	0	0	0	0	0	0	0	0	0	0	0	0	0	0	0	0	0	0	0	0	0	0	0	0	0	0	0
012119	13:52:24	14:02:44	617538	5.0.10.0	4_exp_AMP_EVA_AWA_CON	80	Rpleas_acq	Oppo	Lpleas	Bmasked	CS_B	1pleas	distractor1	EVAbeforeCON	AMP_CSpleas	AMP1_masked	6	20	0	0	300	300	0	0	1064	46	0	1	0	0	0	1	blank2r.bmp	0	1	BMVZ	0	1	blank2r.bmp	70	135	pic135.bmp	176	1	whitenoise_No3.bmp	270	0	0	0	0	0	0	0	0	0	0	0	0	0	0	0	0	0	0	0	0	0	0	0	0	0	0	0	0	0	0	0	0	0	0	0	0	0	0	0
012119	13:52:24	14:02:45	618856	5.0.10.0	4_exp_AMP_EVA_AWA_CON	80	Rpleas_acq	Oppo	Lpleas	Bmasked	CS_B	1pleas	distractor1	EVAbeforeCON	AMP_CSpleas	AMP1_masked	6	21	0	0	300	300	0	0	430	46	0	1	0	0	0	1	blank2r.bmp	0	1	BMVZ	0	1	blank2r.bmp	70	125	pic125.bmp	176	1	whitenoise_No3.bmp	270	0	0	0	0	0	0	0	0	0	0	0	0	0	0	0	0	0	0	0	0	0	0	0	0	0	0	0	0	0	0	0	0	0	0	0	0	0	0	0
012119	13:52:24	14:02:46	620115	5.0.10.0	4_exp_AMP_EVA_AWA_CON	80	Rpleas_acq	Oppo	Lpleas	Bmasked	CS_B	1pleas	distractor1	EVAbeforeCON	AMP_CSunple	AMP1_masked	6	22	0	0	300	300	0	0	369	50	0	1	0	0	0	1	blank2r.bmp	0	1	GKQX	0	1	blank2r.bmp	70	51	pic51.bmp	176	1	whitenoise_No3.bmp	270	0	0	0	0	0	0	0	0	0	0	0	0	0	0	0	0	0	0	0	0	0	0	0	0	0	0	0	0	0	0	0	0	0	0	0	0	0	0	0
012119	13:52:24	14:02:48	621609	5.0.10.0	4_exp_AMP_EVA_AWA_CON	80	Rpleas_acq	Oppo	Lpleas	Bmasked	CS_B	1pleas	distractor1	EVAbeforeCON	AMP_CSunple	AMP1_masked	6	23	0	0	300	300	0	0	610	50	0	1	0	0	0	1	blank2r.bmp	0	1	GKQX	0	1	blank2r.bmp	70	33	pic33.bmp	176	1	whitenoise_No3.bmp	270	0	0	0	0	0	0	0	0	0	0	0	0	0	0	0	0	0	0	0	0	0	0	0	0	0	0	0	0	0	0	0	0	0	0	0	0	0	0	0
012119	13:52:24	14:02:49	623197	5.0.10.0	4_exp_AMP_EVA_AWA_CON	80	Rpleas_acq	Oppo	Lpleas	Bmasked	CS_B	1pleas	distractor1	EVAbeforeCON	AMP_distractor	AMP1_masked	6	24	0	0	300	300	0	0	697	50	0	0	0	0	0	1	blank2r.bmp	0	1	WFPH	0	1	blank2r.bmp	70	30	pic30.bmp	176	1	whitenoise_No3.bmp	270	0	0	0	0	0	0	0	0	0	0	0	0	0	0	0	0	0	0	0	0	0	0	0	0	0	0	0	0	0	0	0	0	0	0	0	0	0	0	0
012119	13:52:24	14:02:51	624468	5.0.10.0	4_exp_AMP_EVA_AWA_CON	80	Rpleas_acq	Oppo	Lpleas	Bmasked	CS_B	1pleas	distractor1	EVAbeforeCON	AMP_distractor	AMP1_masked	6	25	0	0	300	300	0	0	398	50	0	0	0	0	0	1	blank2r.bmp	0	1	WFPH	0	1	blank2r.bmp	70	66	pic66.bmp	176	1	whitenoise_No3.bmp	270	0	0	0	0	0	0	0	0	0	0	0	0	0	0	0	0	0	0	0	0	0	0	0	0	0	0	0	0	0	0	0	0	0	0	0	0	0	0	0
012119	13:52:24	14:02:52	625797	5.0.10.0	4_exp_AMP_EVA_AWA_CON	80	Rpleas_acq	Oppo	Lpleas	Bmasked	CS_B	1pleas	distractor1	EVAbeforeCON	AMP_CSpleas	AMP1_masked	6	26	0	0	300	300	0	0	441	50	0	0	0	0	0	1	blank2r.bmp	0	1	BMVZ	0	1	blank2r.bmp	70	88	pic88.bmp	176	1	whitenoise_No3.bmp	270	0	0	0	0	0	0	0	0	0	0	0	0	0	0	0	0	0	0	0	0	0	0	0	0	0	0	0	0	0	0	0	0	0	0	0	0	0	0	0
012119	13:52:24	14:02:53	627091	5.0.10.0	4_exp_AMP_EVA_AWA_CON	80	Rpleas_acq	Oppo	Lpleas	Bmasked	CS_B	1pleas	distractor1	EVAbeforeCON	AMP_CSpleas	AMP1_masked	6	27	0	0	300	300	0	0	408	46	0	1	0	0	0	1	blank2r.bmp	0	1	BMVZ	0	1	blank2r.bmp	70	22	pic22.bmp	176	1	whitenoise_No3.bmp	270	0	0	0	0	0	0	0	0	0	0	0	0	0	0	0	0	0	0	0	0	0	0	0	0	0	0	0	0	0	0	0	0	0	0	0	0	0	0	0
012119	13:52:24	14:02:55	628291	5.0.10.0	4_exp_AMP_EVA_AWA_CON	80	Rpleas_acq	Oppo	Lpleas	Bmasked	CS_B	1pleas	distractor1	EVAbeforeCON	AMP_CSunple	AMP1_masked	6	28	0	0	300	300	0	0	307	46	0	0	0	0	0	1	blank2r.bmp	0	1	GKQX	0	1	blank2r.bmp	70	134	pic134.bmp	176	1	whitenoise_No3.bmp	270	0	0	0	0	0	0	0	0	0	0	0	0	0	0	0	0	0	0	0	0	0	0	0	0	0	0	0	0	0	0	0	0	0	0	0	0	0	0	0
012119	13:52:24	14:02:56	629491	5.0.10.0	4_exp_AMP_EVA_AWA_CON	80	Rpleas_acq	Oppo	Lpleas	Bmasked	CS_B	1pleas	distractor1	EVAbeforeCON	AMP_distractor	AMP1_masked	6	29	0	0	300	300	0	0	314	46	0	0	0	0	0	1	blank2r.bmp	0	1	WFPH	0	1	blank2r.bmp	70	151	pic151.bmp	176	1	whitenoise_No3.bmp	270	0	0	0	0	0	0	0	0	0	0	0	0	0	0	0	0	0	0	0	0	0	0	0	0	0	0	0	0	0	0	0	0	0	0	0	0	0	0	0
012119	13:52:24	14:02:57	630844	5.0.10.0	4_exp_AMP_EVA_AWA_CON	80	Rpleas_acq	Oppo	Lpleas	Bmasked	CS_B	1pleas	distractor1	EVAbeforeCON	AMP_CSunple	AMP1_masked	6	30	0	0	300	300	0	0	464	50	0	1	0	0	0	1	blank2r.bmp	0	1	GKQX	0	1	blank2r.bmp	70	149	pic149.bmp	176	1	whitenoise_No3.bmp	270	0	0	0	0	0	0	0	0	0	0	0	0	0	0	0	0	0	0	0	0	0	0	0	0	0	0	0	0	0	0	0	0	0	0	0	0	0	0	0
012119	13:52:24	14:02:58	632138	5.0.10.0	4_exp_AMP_EVA_AWA_CON	80	Rpleas_acq	Oppo	Lpleas	Bmasked	CS_B	1pleas	distractor1	EVAbeforeCON	AMP_distractor	AMP1_masked	6	31	0	0	300	300	0	0	410	46	0	0	0	0	0	1	blank2r.bmp	0	1	WFPH	0	1	blank2r.bmp	70	139	pic139.bmp	176	1	whitenoise_No3.bmp	270	0	0	0	0	0	0	0	0	0	0	0	0	0	0	0	0	0	0	0	0	0	0	0	0	0	0	0	0	0	0	0	0	0	0	0	0	0	0	0
012119	13:52:24	14:03:00	633621	5.0.10.0	4_exp_AMP_EVA_AWA_CON	80	Rpleas_acq	Oppo	Lpleas	Bmasked	CS_B	1pleas	distractor1	EVAbeforeCON	AMP_CSpleas	AMP1_masked	6	32	0	0	300	300	0	0	587	46	0	1	0	0	0	1	blank2r.bmp	0	1	BMVZ	0	1	blank2r.bmp	70	84	pic84.bmp	176	1	whitenoise_No3.bmp	270	0	0	0	0	0	0	0	0	0	0	0	0	0	0	0	0	0	0	0	0	0	0	0	0	0	0	0	0	0	0	0	0	0	0	0	0	0	0	0
012119	13:52:24	14:03:01	634832	5.0.10.0	4_exp_AMP_EVA_AWA_CON	80	Rpleas_acq	Oppo	Lpleas	Bmasked	CS_B	1pleas	distractor1	EVAbeforeCON	AMP_CSpleas	AMP1_masked	6	33	0	0	300	300	0	0	329	50	0	0	0	0	0	1	blank2r.bmp	0	1	BMVZ	0	1	blank2r.bmp	70	73	pic73.bmp	176	1	whitenoise_No3.bmp	270	0	0	0	0	0	0	0	0	0	0	0	0	0	0	0	0	0	0	0	0	0	0	0	0	0	0	0	0	0	0	0	0	0	0	0	0	0	0	0
012119	13:52:24	14:03:02	636185	5.0.10.0	4_exp_AMP_EVA_AWA_CON	80	Rpleas_acq	Oppo	Lpleas	Bmasked	CS_B	1pleas	distractor1	EVAbeforeCON	AMP_CSpleas	AMP1_masked	6	34	0	0	300	300	0	0	472	50	0	0	0	0	0	1	blank2r.bmp	0	1	BMVZ	0	1	blank2r.bmp	70	110	pic110.bmp	176	1	whitenoise_No3.bmp	270	0	0	0	0	0	0	0	0	0	0	0	0	0	0	0	0	0	0	0	0	0	0	0	0	0	0	0	0	0	0	0	0	0	0	0	0	0	0	0
012119	13:52:24	14:03:04	637456	5.0.10.0	4_exp_AMP_EVA_AWA_CON	80	Rpleas_acq	Oppo	Lpleas	Bmasked	CS_B	1pleas	distractor1	EVAbeforeCON	AMP_distractor	AMP1_masked	6	35	0	0	300	300	0	0	376	50	0	0	0	0	0	1	blank2r.bmp	0	1	WFPH	0	1	blank2r.bmp	70	89	pic89.bmp	176	1	whitenoise_No3.bmp	270	0	0	0	0	0	0	0	0	0	0	0	0	0	0	0	0	0	0	0	0	0	0	0	0	0	0	0	0	0	0	0	0	0	0	0	0	0	0	0
012119	13:52:24	14:03:05	638821	5.0.10.0	4_exp_AMP_EVA_AWA_CON	80	Rpleas_acq	Oppo	Lpleas	Bmasked	CS_B	1pleas	distractor1	EVAbeforeCON	AMP_CSpleas	AMP1_masked	6	36	0	0	300	300	0	0	489	46	0	1	0	0	0	1	blank2r.bmp	0	1	BMVZ	0	1	blank2r.bmp	70	122	pic122.bmp	176	1	whitenoise_No3.bmp	270	0	0	0	0	0	0	0	0	0	0	0	0	0	0	0	0	0	0	0	0	0	0	0	0	0	0	0	0	0	0	0	0	0	0	0	0	0	0	0
012119	13:52:24	14:03:06	640021	5.0.10.0	4_exp_AMP_EVA_AWA_CON	80	Rpleas_acq	Oppo	Lpleas	Bmasked	CS_B	1pleas	distractor1	EVAbeforeCON	AMP_CSunple	AMP1_masked	6	37	0	0	300	300	0	0	311	46	0	0	0	0	0	1	blank2r.bmp	0	1	GKQX	0	1	blank2r.bmp	70	29	pic29.bmp	176	1	whitenoise_No3.bmp	270	0	0	0	0	0	0	0	0	0	0	0	0	0	0	0	0	0	0	0	0	0	0	0	0	0	0	0	0	0	0	0	0	0	0	0	0	0	0	0
012119	13:52:24	14:03:07	641256	5.0.10.0	4_exp_AMP_EVA_AWA_CON	80	Rpleas_acq	Oppo	Lpleas	Bmasked	CS_B	1pleas	distractor1	EVAbeforeCON	AMP_CSunple	AMP1_masked	6	38	0	0	300	300	0	0	342	50	0	1	0	0	0	1	blank2r.bmp	0	1	GKQX	0	1	blank2r.bmp	70	83	pic83.bmp	176	1	whitenoise_No3.bmp	270	0	0	0	0	0	0	0	0	0	0	0	0	0	0	0	0	0	0	0	0	0	0	0	0	0	0	0	0	0	0	0	0	0	0	0	0	0	0	0
012119	13:52:24	14:03:09	642468	5.0.10.0	4_exp_AMP_EVA_AWA_CON	80	Rpleas_acq	Oppo	Lpleas	Bmasked	CS_B	1pleas	distractor1	EVAbeforeCON	AMP_CSpleas	AMP1_masked	6	39	0	0	300	300	0	0	320	46	0	1	0	0	0	1	blank2r.bmp	0	1	BMVZ	0	1	blank2r.bmp	70	143	pic143.bmp	176	1	whitenoise_No3.bmp	270	0	0	0	0	0	0	0	0	0	0	0	0	0	0	0	0	0	0	0	0	0	0	0	0	0	0	0	0	0	0	0	0	0	0	0	0	0	0	0
012119	13:52:24	14:03:10	643727	5.0.10.0	4_exp_AMP_EVA_AWA_CON	80	Rpleas_acq	Oppo	Lpleas	Bmasked	CS_B	1pleas	distractor1	EVAbeforeCON	AMP_CSpleas	AMP1_masked	6	40	0	0	300	300	0	0	365	46	0	1	0	0	0	1	blank2r.bmp	0	1	BMVZ	0	1	blank2r.bmp	70	82	pic82.bmp	176	1	whitenoise_No3.bmp	270	0	0	0	0	0	0	0	0	0	0	0	0	0	0	0	0	0	0	0	0	0	0	0	0	0	0	0	0	0	0	0	0	0	0	0	0	0	0	0
012119	13:52:24	14:03:11	644903	5.0.10.0	4_exp_AMP_EVA_AWA_CON	80	Rpleas_acq	Oppo	Lpleas	Bmasked	CS_B	1pleas	distractor1	EVAbeforeCON	AMP_distractor	AMP1_masked	6	41	0	0	300	300	0	0	302	50	0	0	0	0	0	1	blank2r.bmp	0	1	WFPH	0	1	blank2r.bmp	70	60	pic60.bmp	176	1	whitenoise_No3.bmp	270	0	0	0	0	0	0	0	0	0	0	0	0	0	0	0	0	0	0	0	0	0	0	0	0	0	0	0	0	0	0	0	0	0	0	0	0	0	0	0
012119	13:52:24	14:03:12	646150	5.0.10.0	4_exp_AMP_EVA_AWA_CON	80	Rpleas_acq	Oppo	Lpleas	Bmasked	CS_B	1pleas	distractor1	EVAbeforeCON	AMP_CSunple	AMP1_masked	6	42	0	0	300	300	0	0	363	46	0	0	0	0	0	1	blank2r.bmp	0	1	GKQX	0	1	blank2r.bmp	70	107	pic107.bmp	176	1	whitenoise_No3.bmp	270	0	0	0	0	0	0	0	0	0	0	0	0	0	0	0	0	0	0	0	0	0	0	0	0	0	0	0	0	0	0	0	0	0	0	0	0	0	0	0
012119	13:52:24	14:03:14	647303	5.0.10.0	4_exp_AMP_EVA_AWA_CON	80	Rpleas_acq	Oppo	Lpleas	Bmasked	CS_B	1pleas	distractor1	EVAbeforeCON	AMP_CSpleas	AMP1_masked	6	43	0	0	300	300	0	0	261	46	0	1	0	0	0	1	blank2r.bmp	0	1	BMVZ	0	1	blank2r.bmp	70	128	pic128.bmp	176	1	whitenoise_No3.bmp	270	0	0	0	0	0	0	0	0	0	0	0	0	0	0	0	0	0	0	0	0	0	0	0	0	0	0	0	0	0	0	0	0	0	0	0	0	0	0	0
012119	13:52:24	14:03:15	648715	5.0.10.0	4_exp_AMP_EVA_AWA_CON	80	Rpleas_acq	Oppo	Lpleas	Bmasked	CS_B	1pleas	distractor1	EVAbeforeCON	AMP_CSpleas	AMP1_masked	6	44	0	0	300	300	0	0	528	50	0	0	0	0	0	1	blank2r.bmp	0	1	BMVZ	0	1	blank2r.bmp	70	74	pic74.bmp	176	1	whitenoise_No3.bmp	270	0	0	0	0	0	0	0	0	0	0	0	0	0	0	0	0	0	0	0	0	0	0	0	0	0	0	0	0	0	0	0	0	0	0	0	0	0	0	0
012119	13:52:24	14:03:16	649974	5.0.10.0	4_exp_AMP_EVA_AWA_CON	80	Rpleas_acq	Oppo	Lpleas	Bmasked	CS_B	1pleas	distractor1	EVAbeforeCON	AMP_distractor	AMP1_masked	6	45	0	0	300	300	0	0	353	50	0	0	0	0	0	1	blank2r.bmp	0	1	WFPH	0	1	blank2r.bmp	70	62	pic62.bmp	176	1	whitenoise_No3.bmp	270	0	0	0	0	0	0	0	0	0	0	0	0	0	0	0	0	0	0	0	0	0	0	0	0	0	0	0	0	0	0	0	0	0	0	0	0	0	0	0
012119	13:52:24	14:03:18	651456	5.0.10.0	4_exp_AMP_EVA_AWA_CON	80	Rpleas_acq	Oppo	Lpleas	Bmasked	CS_B	1pleas	distractor1	EVAbeforeCON	AMP_CSunple	AMP1_masked	6	46	0	0	300	300	0	0	594	46	0	0	0	0	0	1	blank2r.bmp	0	1	GKQX	0	1	blank2r.bmp	70	25	pic25.bmp	176	1	whitenoise_No3.bmp	270	0	0	0	0	0	0	0	0	0	0	0	0	0	0	0	0	0	0	0	0	0	0	0	0	0	0	0	0	0	0	0	0	0	0	0	0	0	0	0
012119	13:52:24	14:03:19	652703	5.0.10.0	4_exp_AMP_EVA_AWA_CON	80	Rpleas_acq	Oppo	Lpleas	Bmasked	CS_B	1pleas	distractor1	EVAbeforeCON	AMP_CSunple	AMP1_masked	6	47	0	0	300	300	0	0	352	46	0	0	0	0	0	1	blank2r.bmp	0	1	GKQX	0	1	blank2r.bmp	70	109	pic109.bmp	176	1	whitenoise_No3.bmp	270	0	0	0	0	0	0	0	0	0	0	0	0	0	0	0	0	0	0	0	0	0	0	0	0	0	0	0	0	0	0	0	0	0	0	0	0	0	0	0
012119	13:52:24	14:03:20	653880	5.0.10.0	4_exp_AMP_EVA_AWA_CON	80	Rpleas_acq	Oppo	Lpleas	Bmasked	CS_B	1pleas	distractor1	EVAbeforeCON	AMP_distractor	AMP1_masked	6	48	0	0	300	300	0	0	302	50	0	0	0	0	0	1	blank2r.bmp	0	1	WFPH	0	1	blank2r.bmp	70	118	pic118.bmp	176	1	whitenoise_No3.bmp	270	0	0	0	0	0	0	0	0	0	0	0	0	0	0	0	0	0	0	0	0	0	0	0	0	0	0	0	0	0	0	0	0	0	0	0	0	0	0	0
012119	13:52:24	14:03:21	655245	5.0.10.0	4_exp_AMP_EVA_AWA_CON	80	Rpleas_acq	Oppo	Lpleas	Bmasked	CS_B	1pleas	distractor1	EVAbeforeCON	AMP_CSpleas	AMP1_masked	6	49	0	0	300	300	0	0	482	46	0	1	0	0	0	1	blank2r.bmp	0	1	BMVZ	0	1	blank2r.bmp	70	140	pic140.bmp	176	1	whitenoise_No3.bmp	270	0	0	0	0	0	0	0	0	0	0	0	0	0	0	0	0	0	0	0	0	0	0	0	0	0	0	0	0	0	0	0	0	0	0	0	0	0	0	0
012119	13:52:24	14:03:23	656562	5.0.10.0	4_exp_AMP_EVA_AWA_CON	80	Rpleas_acq	Oppo	Lpleas	Bmasked	CS_B	1pleas	distractor1	EVAbeforeCON	AMP_distractor	AMP1_masked	6	50	0	0	300	300	0	0	437	50	0	0	0	0	0	1	blank2r.bmp	0	1	WFPH	0	1	blank2r.bmp	70	53	pic53.bmp	176	1	whitenoise_No3.bmp	270	0	0	0	0	0	0	0	0	0	0	0	0	0	0	0	0	0	0	0	0	0	0	0	0	0	0	0	0	0	0	0	0	0	0	0	0	0	0	0
012119	13:52:24	14:03:24	657915	5.0.10.0	4_exp_AMP_EVA_AWA_CON	80	Rpleas_acq	Oppo	Lpleas	Bmasked	CS_B	1pleas	distractor1	EVAbeforeCON	AMP_CSpleas	AMP1_masked	6	51	0	0	300	300	0	0	480	50	0	0	0	0	0	1	blank2r.bmp	0	1	BMVZ	0	1	blank2r.bmp	70	64	pic64.bmp	176	1	whitenoise_No3.bmp	270	0	0	0	0	0	0	0	0	0	0	0	0	0	0	0	0	0	0	0	0	0	0	0	0	0	0	0	0	0	0	0	0	0	0	0	0	0	0	0
012119	13:52:24	14:03:34	668056	5.0.10.0	4_exp_AMP_EVA_AWA_CON	80	Rpleas_acq	Oppo	Lpleas	Bmasked	CS_B	1pleas	distractor1	EVAbeforeCON	AMP_CSunple	AMP23	7	1	0	0	300	300	0	0	861	46	0	0	0	0	0	1	blank2r.bmp	0	1	GKQX	0	1	blank2r.bmp	70	127	pic127.bmp	176	1	whitenoise_No3.bmp	270	0	0	0	0	0	0	0	0	0	0	0	0	0	0	0	0	0	0	0	0	0	0	0	0	0	0	0	0	0	0	0	0	0	0	0	0	0	0	0
012119	13:52:24	14:03:36	669362	5.0.10.0	4_exp_AMP_EVA_AWA_CON	80	Rpleas_acq	Oppo	Lpleas	Bmasked	CS_B	1pleas	distractor1	EVAbeforeCON	AMP_CSunple	AMP23	7	2	0	0	300	300	0	0	417	50	0	1	0	0	0	1	blank2r.bmp	0	1	GKQX	0	1	blank2r.bmp	70	47	pic47.bmp	176	1	whitenoise_No3.bmp	270	0	0	0	0	0	0	0	0	0	0	0	0	0	0	0	0	0	0	0	0	0	0	0	0	0	0	0	0	0	0	0	0	0	0	0	0	0	0	0
012119	13:52:24	14:03:37	670562	5.0.10.0	4_exp_AMP_EVA_AWA_CON	80	Rpleas_acq	Oppo	Lpleas	Bmasked	CS_B	1pleas	distractor1	EVAbeforeCON	AMP_CSpleas	AMP23	7	3	0	0	300	300	0	0	305	50	0	0	0	0	0	1	blank2r.bmp	0	1	BMVZ	0	1	blank2r.bmp	70	45	pic45.bmp	176	1	whitenoise_No3.bmp	270	0	0	0	0	0	0	0	0	0	0	0	0	0	0	0	0	0	0	0	0	0	0	0	0	0	0	0	0	0	0	0	0	0	0	0	0	0	0	0
012119	13:52:24	14:03:38	671845	5.0.10.0	4_exp_AMP_EVA_AWA_CON	80	Rpleas_acq	Oppo	Lpleas	Bmasked	CS_B	1pleas	distractor1	EVAbeforeCON	AMP_CSunple	AMP23	7	4	0	0	300	300	0	0	401	50	0	1	0	0	0	1	blank2r.bmp	0	1	GKQX	0	1	blank2r.bmp	70	146	pic146.bmp	176	1	whitenoise_No3.bmp	270	0	0	0	0	0	0	0	0	0	0	0	0	0	0	0	0	0	0	0	0	0	0	0	0	0	0	0	0	0	0	0	0	0	0	0	0	0	0	0
012119	13:52:24	14:03:39	673092	5.0.10.0	4_exp_AMP_EVA_AWA_CON	80	Rpleas_acq	Oppo	Lpleas	Bmasked	CS_B	1pleas	distractor1	EVAbeforeCON	AMP_CSunple	AMP23	7	5	0	0	300	300	0	0	361	46	0	0	0	0	0	1	blank2r.bmp	0	1	GKQX	0	1	blank2r.bmp	70	95	pic95.bmp	176	1	whitenoise_No3.bmp	270	0	0	0	0	0	0	0	0	0	0	0	0	0	0	0	0	0	0	0	0	0	0	0	0	0	0	0	0	0	0	0	0	0	0	0	0	0	0	0
012119	13:52:24	14:03:41	674457	5.0.10.0	4_exp_AMP_EVA_AWA_CON	80	Rpleas_acq	Oppo	Lpleas	Bmasked	CS_B	1pleas	distractor1	EVAbeforeCON	AMP_CSunple	AMP23	7	6	0	0	300	300	0	0	472	50	0	1	0	0	0	1	blank2r.bmp	0	1	GKQX	0	1	blank2r.bmp	70	72	pic72.bmp	176	1	whitenoise_No3.bmp	270	0	0	0	0	0	0	0	0	0	0	0	0	0	0	0	0	0	0	0	0	0	0	0	0	0	0	0	0	0	0	0	0	0	0	0	0	0	0	0
012119	13:52:24	14:03:42	675680	5.0.10.0	4_exp_AMP_EVA_AWA_CON	80	Rpleas_acq	Oppo	Lpleas	Bmasked	CS_B	1pleas	distractor1	EVAbeforeCON	AMP_distractor	AMP23	7	7	0	0	300	300	0	0	348	50	0	0	0	0	0	1	blank2r.bmp	0	1	WFPH	0	1	blank2r.bmp	70	7	pic7.bmp	176	1	whitenoise_No3.bmp	270	0	0	0	0	0	0	0	0	0	0	0	0	0	0	0	0	0	0	0	0	0	0	0	0	0	0	0	0	0	0	0	0	0	0	0	0	0	0	0
012119	13:52:24	14:03:43	677033	5.0.10.0	4_exp_AMP_EVA_AWA_CON	80	Rpleas_acq	Oppo	Lpleas	Bmasked	CS_B	1pleas	distractor1	EVAbeforeCON	AMP_CSunple	AMP23	7	8	0	0	300	300	0	0	462	46	0	0	0	0	0	1	blank2r.bmp	0	1	GKQX	0	1	blank2r.bmp	70	104	pic104.bmp	176	1	whitenoise_No3.bmp	270	0	0	0	0	0	0	0	0	0	0	0	0	0	0	0	0	0	0	0	0	0	0	0	0	0	0	0	0	0	0	0	0	0	0	0	0	0	0	0
012119	13:52:24	14:03:45	678445	5.0.10.0	4_exp_AMP_EVA_AWA_CON	80	Rpleas_acq	Oppo	Lpleas	Bmasked	CS_B	1pleas	distractor1	EVAbeforeCON	AMP_CSpleas	AMP23	7	9	0	0	300	300	0	0	534	50	0	0	0	0	0	1	blank2r.bmp	0	1	BMVZ	0	1	blank2r.bmp	70	65	pic65.bmp	176	1	whitenoise_No3.bmp	270	0	0	0	0	0	0	0	0	0	0	0	0	0	0	0	0	0	0	0	0	0	0	0	0	0	0	0	0	0	0	0	0	0	0	0	0	0	0	0
012119	13:52:24	14:03:46	679857	5.0.10.0	4_exp_AMP_EVA_AWA_CON	80	Rpleas_acq	Oppo	Lpleas	Bmasked	CS_B	1pleas	distractor1	EVAbeforeCON	AMP_distractor	AMP23	7	10	0	0	300	300	0	0	527	50	0	0	0	0	0	1	blank2r.bmp	0	1	WFPH	0	1	blank2r.bmp	70	57	pic57.bmp	176	1	whitenoise_No3.bmp	270	0	0	0	0	0	0	0	0	0	0	0	0	0	0	0	0	0	0	0	0	0	0	0	0	0	0	0	0	0	0	0	0	0	0	0	0	0	0	0
012119	13:52:24	14:03:47	681116	5.0.10.0	4_exp_AMP_EVA_AWA_CON	80	Rpleas_acq	Oppo	Lpleas	Bmasked	CS_B	1pleas	distractor1	EVAbeforeCON	AMP_distractor	AMP23	7	11	0	0	300	300	0	0	366	46	0	0	0	0	0	1	blank2r.bmp	0	1	WFPH	0	1	blank2r.bmp	70	87	pic87.bmp	176	1	whitenoise_No3.bmp	270	0	0	0	0	0	0	0	0	0	0	0	0	0	0	0	0	0	0	0	0	0	0	0	0	0	0	0	0	0	0	0	0	0	0	0	0	0	0	0
012119	13:52:24	14:03:49	682410	5.0.10.0	4_exp_AMP_EVA_AWA_CON	80	Rpleas_acq	Oppo	Lpleas	Bmasked	CS_B	1pleas	distractor1	EVAbeforeCON	AMP_distractor	AMP23	7	12	0	0	300	300	0	0	413	46	0	0	0	0	0	1	blank2r.bmp	0	1	WFPH	0	1	blank2r.bmp	70	75	pic75.bmp	176	1	whitenoise_No3.bmp	270	0	0	0	0	0	0	0	0	0	0	0	0	0	0	0	0	0	0	0	0	0	0	0	0	0	0	0	0	0	0	0	0	0	0	0	0	0	0	0
012119	13:52:24	14:03:50	683645	5.0.10.0	4_exp_AMP_EVA_AWA_CON	80	Rpleas_acq	Oppo	Lpleas	Bmasked	CS_B	1pleas	distractor1	EVAbeforeCON	AMP_distractor	AMP23	7	13	0	0	300	300	0	0	348	46	0	0	0	0	0	1	blank2r.bmp	0	1	WFPH	0	1	blank2r.bmp	70	35	pic35.bmp	176	1	whitenoise_No3.bmp	270	0	0	0	0	0	0	0	0	0	0	0	0	0	0	0	0	0	0	0	0	0	0	0	0	0	0	0	0	0	0	0	0	0	0	0	0	0	0	0
012119	13:52:24	14:03:51	684904	5.0.10.0	4_exp_AMP_EVA_AWA_CON	80	Rpleas_acq	Oppo	Lpleas	Bmasked	CS_B	1pleas	distractor1	EVAbeforeCON	AMP_distractor	AMP23	7	14	0	0	300	300	0	0	377	50	0	0	0	0	0	1	blank2r.bmp	0	1	WFPH	0	1	blank2r.bmp	70	23	pic23.bmp	176	1	whitenoise_No3.bmp	270	0	0	0	0	0	0	0	0	0	0	0	0	0	0	0	0	0	0	0	0	0	0	0	0	0	0	0	0	0	0	0	0	0	0	0	0	0	0	0
012119	13:52:24	14:03:52	686104	5.0.10.0	4_exp_AMP_EVA_AWA_CON	80	Rpleas_acq	Oppo	Lpleas	Bmasked	CS_B	1pleas	distractor1	EVAbeforeCON	AMP_CSunple	AMP23	7	15	0	0	300	300	0	0	306	46	0	0	0	0	0	1	blank2r.bmp	0	1	GKQX	0	1	blank2r.bmp	70	105	pic105.bmp	176	1	whitenoise_No3.bmp	270	0	0	0	0	0	0	0	0	0	0	0	0	0	0	0	0	0	0	0	0	0	0	0	0	0	0	0	0	0	0	0	0	0	0	0	0	0	0	0
012119	13:52:24	14:03:54	687374	5.0.10.0	4_exp_AMP_EVA_AWA_CON	80	Rpleas_acq	Oppo	Lpleas	Bmasked	CS_B	1pleas	distractor1	EVAbeforeCON	AMP_CSpleas	AMP23	7	16	0	0	300	300	0	0	383	50	0	0	0	0	0	1	blank2r.bmp	0	1	BMVZ	0	1	blank2r.bmp	70	14	pic14.bmp	176	1	whitenoise_No3.bmp	270	0	0	0	0	0	0	0	0	0	0	0	0	0	0	0	0	0	0	0	0	0	0	0	0	0	0	0	0	0	0	0	0	0	0	0	0	0	0	0
012119	13:52:24	14:03:55	688586	5.0.10.0	4_exp_AMP_EVA_AWA_CON	80	Rpleas_acq	Oppo	Lpleas	Bmasked	CS_B	1pleas	distractor1	EVAbeforeCON	AMP_CSpleas	AMP23	7	17	0	0	300	300	0	0	312	46	0	1	0	0	0	1	blank2r.bmp	0	1	BMVZ	0	1	blank2r.bmp	70	9	pic9.bmp	176	1	whitenoise_No3.bmp	270	0	0	0	0	0	0	0	0	0	0	0	0	0	0	0	0	0	0	0	0	0	0	0	0	0	0	0	0	0	0	0	0	0	0	0	0	0	0	0
012119	13:52:24	14:03:56	689833	5.0.10.0	4_exp_AMP_EVA_AWA_CON	80	Rpleas_acq	Oppo	Lpleas	Bmasked	CS_B	1pleas	distractor1	EVAbeforeCON	AMP_CSpleas	AMP23	7	18	0	0	300	300	0	0	359	50	0	0	0	0	0	1	blank2r.bmp	0	1	BMVZ	0	1	blank2r.bmp	70	32	pic32.bmp	176	1	whitenoise_No3.bmp	270	0	0	0	0	0	0	0	0	0	0	0	0	0	0	0	0	0	0	0	0	0	0	0	0	0	0	0	0	0	0	0	0	0	0	0	0	0	0	0
012119	13:52:24	14:03:57	691222	5.0.10.0	4_exp_AMP_EVA_AWA_CON	80	Rpleas_acq	Oppo	Lpleas	Bmasked	CS_B	1pleas	distractor1	EVAbeforeCON	AMP_CSpleas	AMP23	7	19	0	0	300	300	0	0	498	50	0	0	0	0	0	1	blank2r.bmp	0	1	BMVZ	0	1	blank2r.bmp	70	137	pic137.bmp	176	1	whitenoise_No3.bmp	270	0	0	0	0	0	0	0	0	0	0	0	0	0	0	0	0	0	0	0	0	0	0	0	0	0	0	0	0	0	0	0	0	0	0	0	0	0	0	0
012119	13:52:24	14:03:59	692563	5.0.10.0	4_exp_AMP_EVA_AWA_CON	80	Rpleas_acq	Oppo	Lpleas	Bmasked	CS_B	1pleas	distractor1	EVAbeforeCON	AMP_distractor	AMP23	7	20	0	0	300	300	0	0	447	50	0	0	0	0	0	1	blank2r.bmp	0	1	WFPH	0	1	blank2r.bmp	70	48	pic48.bmp	176	1	whitenoise_No3.bmp	270	0	0	0	0	0	0	0	0	0	0	0	0	0	0	0	0	0	0	0	0	0	0	0	0	0	0	0	0	0	0	0	0	0	0	0	0	0	0	0
012119	13:52:24	14:04:00	693963	5.0.10.0	4_exp_AMP_EVA_AWA_CON	80	Rpleas_acq	Oppo	Lpleas	Bmasked	CS_B	1pleas	distractor1	EVAbeforeCON	AMP_distractor	AMP23	7	21	0	0	300	300	0	0	514	46	0	0	0	0	0	1	blank2r.bmp	0	1	WFPH	0	1	blank2r.bmp	70	1	pic1.bmp	176	1	whitenoise_No3.bmp	270	0	0	0	0	0	0	0	0	0	0	0	0	0	0	0	0	0	0	0	0	0	0	0	0	0	0	0	0	0	0	0	0	0	0	0	0	0	0	0
012119	13:52:24	14:04:01	695198	5.0.10.0	4_exp_AMP_EVA_AWA_CON	80	Rpleas_acq	Oppo	Lpleas	Bmasked	CS_B	1pleas	distractor1	EVAbeforeCON	AMP_CSpleas	AMP23	7	22	0	0	300	300	0	0	346	46	0	1	0	0	0	1	blank2r.bmp	0	1	BMVZ	0	1	blank2r.bmp	70	117	pic117.bmp	176	1	whitenoise_No3.bmp	270	0	0	0	0	0	0	0	0	0	0	0	0	0	0	0	0	0	0	0	0	0	0	0	0	0	0	0	0	0	0	0	0	0	0	0	0	0	0	0
012119	13:52:24	14:04:03	696410	5.0.10.0	4_exp_AMP_EVA_AWA_CON	80	Rpleas_acq	Oppo	Lpleas	Bmasked	CS_B	1pleas	distractor1	EVAbeforeCON	AMP_CSpleas	AMP23	7	23	0	0	300	300	0	0	326	50	0	0	0	0	0	1	blank2r.bmp	0	1	BMVZ	0	1	blank2r.bmp	70	41	pic41.bmp	176	1	whitenoise_No3.bmp	270	0	0	0	0	0	0	0	0	0	0	0	0	0	0	0	0	0	0	0	0	0	0	0	0	0	0	0	0	0	0	0	0	0	0	0	0	0	0	0
012119	13:52:24	14:04:04	697633	5.0.10.0	4_exp_AMP_EVA_AWA_CON	80	Rpleas_acq	Oppo	Lpleas	Bmasked	CS_B	1pleas	distractor1	EVAbeforeCON	AMP_distractor	AMP23	7	24	0	0	300	300	0	0	336	50	0	0	0	0	0	1	blank2r.bmp	0	1	WFPH	0	1	blank2r.bmp	70	19	pic19.bmp	176	1	whitenoise_No3.bmp	270	0	0	0	0	0	0	0	0	0	0	0	0	0	0	0	0	0	0	0	0	0	0	0	0	0	0	0	0	0	0	0	0	0	0	0	0	0	0	0
012119	13:52:24	14:04:05	698798	5.0.10.0	4_exp_AMP_EVA_AWA_CON	80	Rpleas_acq	Oppo	Lpleas	Bmasked	CS_B	1pleas	distractor1	EVAbeforeCON	AMP_CSpleas	AMP23	7	25	0	0	300	300	0	0	275	46	0	1	0	0	0	1	blank2r.bmp	0	1	BMVZ	0	1	blank2r.bmp	70	17	pic17.bmp	176	1	whitenoise_No3.bmp	270	0	0	0	0	0	0	0	0	0	0	0	0	0	0	0	0	0	0	0	0	0	0	0	0	0	0	0	0	0	0	0	0	0	0	0	0	0	0	0
012119	13:52:24	14:04:07	700375	5.0.10.0	4_exp_AMP_EVA_AWA_CON	80	Rpleas_acq	Oppo	Lpleas	Bmasked	CS_B	1pleas	distractor1	EVAbeforeCON	AMP_CSunple	AMP23	7	26	0	0	300	300	0	0	685	46	0	0	0	0	0	1	blank2r.bmp	0	1	GKQX	0	1	blank2r.bmp	70	147	pic147.bmp	176	1	whitenoise_No3.bmp	270	0	0	0	0	0	0	0	0	0	0	0	0	0	0	0	0	0	0	0	0	0	0	0	0	0	0	0	0	0	0	0	0	0	0	0	0	0	0	0
012119	13:52:24	14:04:08	701669	5.0.10.0	4_exp_AMP_EVA_AWA_CON	80	Rpleas_acq	Oppo	Lpleas	Bmasked	CS_B	1pleas	distractor1	EVAbeforeCON	AMP_CSunple	AMP23	7	27	0	0	300	300	0	0	409	46	0	0	0	0	0	1	blank2r.bmp	0	1	GKQX	0	1	blank2r.bmp	70	93	pic93.bmp	176	1	whitenoise_No3.bmp	270	0	0	0	0	0	0	0	0	0	0	0	0	0	0	0	0	0	0	0	0	0	0	0	0	0	0	0	0	0	0	0	0	0	0	0	0	0	0	0
012119	13:52:24	14:04:09	702939	5.0.10.0	4_exp_AMP_EVA_AWA_CON	80	Rpleas_acq	Oppo	Lpleas	Bmasked	CS_B	1pleas	distractor1	EVAbeforeCON	AMP_CSpleas	AMP23	7	28	0	0	300	300	0	0	387	50	0	0	0	0	0	1	blank2r.bmp	0	1	BMVZ	0	1	blank2r.bmp	70	103	pic103.bmp	176	1	whitenoise_No3.bmp	270	0	0	0	0	0	0	0	0	0	0	0	0	0	0	0	0	0	0	0	0	0	0	0	0	0	0	0	0	0	0	0	0	0	0	0	0	0	0	0
012119	13:52:24	14:04:10	704198	5.0.10.0	4_exp_AMP_EVA_AWA_CON	80	Rpleas_acq	Oppo	Lpleas	Bmasked	CS_B	1pleas	distractor1	EVAbeforeCON	AMP_CSunple	AMP23	7	29	0	0	300	300	0	0	373	50	0	1	0	0	0	1	blank2r.bmp	0	1	GKQX	0	1	blank2r.bmp	70	81	pic81.bmp	176	1	whitenoise_No3.bmp	270	0	0	0	0	0	0	0	0	0	0	0	0	0	0	0	0	0	0	0	0	0	0	0	0	0	0	0	0	0	0	0	0	0	0	0	0	0	0	0
012119	13:52:24	14:04:12	705598	5.0.10.0	4_exp_AMP_EVA_AWA_CON	80	Rpleas_acq	Oppo	Lpleas	Bmasked	CS_B	1pleas	distractor1	EVAbeforeCON	AMP_CSunple	AMP23	7	30	0	0	300	300	0	0	514	46	0	0	0	0	0	1	blank2r.bmp	0	1	GKQX	0	1	blank2r.bmp	70	56	pic56.bmp	176	1	whitenoise_No3.bmp	270	0	0	0	0	0	0	0	0	0	0	0	0	0	0	0	0	0	0	0	0	0	0	0	0	0	0	0	0	0	0	0	0	0	0	0	0	0	0	0
012119	13:52:24	14:04:13	706739	5.0.10.0	4_exp_AMP_EVA_AWA_CON	80	Rpleas_acq	Oppo	Lpleas	Bmasked	CS_B	1pleas	distractor1	EVAbeforeCON	AMP_distractor	AMP23	7	31	0	0	300	300	0	0	250	46	0	0	0	0	0	1	blank2r.bmp	0	1	WFPH	0	1	blank2r.bmp	70	129	pic129.bmp	176	1	whitenoise_No3.bmp	270	0	0	0	0	0	0	0	0	0	0	0	0	0	0	0	0	0	0	0	0	0	0	0	0	0	0	0	0	0	0	0	0	0	0	0	0	0	0	0
012119	13:52:24	14:04:14	707939	5.0.10.0	4_exp_AMP_EVA_AWA_CON	80	Rpleas_acq	Oppo	Lpleas	Bmasked	CS_B	1pleas	distractor1	EVAbeforeCON	AMP_CSpleas	AMP23	7	32	0	0	300	300	0	0	312	50	0	0	0	0	0	1	blank2r.bmp	0	1	BMVZ	0	1	blank2r.bmp	70	54	pic54.bmp	176	1	whitenoise_No3.bmp	270	0	0	0	0	0	0	0	0	0	0	0	0	0	0	0	0	0	0	0	0	0	0	0	0	0	0	0	0	0	0	0	0	0	0	0	0	0	0	0
012119	13:52:24	14:04:15	709198	5.0.10.0	4_exp_AMP_EVA_AWA_CON	80	Rpleas_acq	Oppo	Lpleas	Bmasked	CS_B	1pleas	distractor1	EVAbeforeCON	AMP_distractor	AMP23	7	33	0	0	300	300	0	0	366	50	0	0	0	0	0	1	blank2r.bmp	0	1	WFPH	0	1	blank2r.bmp	70	42	pic42.bmp	176	1	whitenoise_No3.bmp	270	0	0	0	0	0	0	0	0	0	0	0	0	0	0	0	0	0	0	0	0	0	0	0	0	0	0	0	0	0	0	0	0	0	0	0	0	0	0	0
012119	13:52:24	14:04:17	710704	5.0.10.0	4_exp_AMP_EVA_AWA_CON	80	Rpleas_acq	Oppo	Lpleas	Bmasked	CS_B	1pleas	distractor1	EVAbeforeCON	AMP_distractor	AMP23	7	34	0	0	300	300	0	0	626	50	0	0	0	0	0	1	blank2r.bmp	0	1	WFPH	0	1	blank2r.bmp	70	70	pic70.bmp	176	1	whitenoise_No3.bmp	270	0	0	0	0	0	0	0	0	0	0	0	0	0	0	0	0	0	0	0	0	0	0	0	0	0	0	0	0	0	0	0	0	0	0	0	0	0	0	0
012119	13:52:24	14:04:18	711998	5.0.10.0	4_exp_AMP_EVA_AWA_CON	80	Rpleas_acq	Oppo	Lpleas	Bmasked	CS_B	1pleas	distractor1	EVAbeforeCON	AMP_CSunple	AMP23	7	35	0	0	300	300	0	0	407	46	0	0	0	0	0	1	blank2r.bmp	0	1	GKQX	0	1	blank2r.bmp	70	121	pic121.bmp	176	1	whitenoise_No3.bmp	270	0	0	0	0	0	0	0	0	0	0	0	0	0	0	0	0	0	0	0	0	0	0	0	0	0	0	0	0	0	0	0	0	0	0	0	0	0	0	0
012119	13:52:24	14:04:19	713234	5.0.10.0	4_exp_AMP_EVA_AWA_CON	80	Rpleas_acq	Oppo	Lpleas	Bmasked	CS_B	1pleas	distractor1	EVAbeforeCON	AMP_CSpleas	AMP23	7	36	0	0	300	300	0	0	351	46	0	1	0	0	0	1	blank2r.bmp	0	1	BMVZ	0	1	blank2r.bmp	70	123	pic123.bmp	176	1	whitenoise_No3.bmp	270	0	0	0	0	0	0	0	0	0	0	0	0	0	0	0	0	0	0	0	0	0	0	0	0	0	0	0	0	0	0	0	0	0	0	0	0	0	0	0
