date	time	script.currenttime	script.elapsedtime	build	script.currentexpt	subject	expressions.LRpleas_acq	expressions.SameOppo	expressions.condition_Lpleas	expressions.ABmasked	expressions.conditionCS_A	expressions.condition_1pleas	expressions.condition_distractor_AMP	expressions.AWACON_AMPEVA_first	trialcode	blockcode	blocknum	trialnum	windowcenter	inwindow	pretrialpause	posttrialpause	trialduration	trialtimeout	latency	response	expressions.correctedscore	correct	values.vis_performance	values.vis_rating_sum	values.vis_rating_mean	stimulusnumber1	stimulusitem1	stimulusonset1	stimulusnumber2	stimulusitem2	stimulusonset2	stimulusnumber3	stimulusitem3	stimulusonset3	stimulusnumber4	stimulusitem4	stimulusonset4	stimulusnumber5	stimulusitem5	stimulusonset5	stimulusnumber6	stimulusitem6	stimulusonset6	stimulusnumber7	stimulusitem7	stimulusonset7	stimulusnumber8	stimulusitem8	stimulusonset8	stimulusnumber9	stimulusitem9	stimulusonset9	stimulusnumber10	stimulusitem10	stimulusonset10	stimulusnumber11	stimulusitem11	stimulusonset11	stimulusnumber12	stimulusitem12	stimulusonset12	stimulusnumber13	stimulusitem13	stimulusonset13	stimulusnumber14	stimulusitem14	stimulusonset14	stimulusnumber15	stimulusitem15	stimulusonset15	stimulusnumber16	stimulusitem16	stimulusonset16	stimulusnumber17	stimulusitem17	stimulusonset17	stimulusnumber18	stimulusitem18	stimulusonset18
032719	15:18:19	15:20:44	144705	5.0.10.0	4_exp_AMP_EVA_AWA_CON	180	Rpleas_acq	Same	Rpleas	Amasked	CS_A	1pleas	distractor1	EVAbeforeCON	acq_new_pleas_masked	acq1_masked	1	1	0	0	300	300	0	0	986	50	0	1	0	0	0	1	blank2r.bmp	0	1	+	0	5	C1r.bmp	492	1	blank2r.bmp	786	2	B2r.bmp	786	1	blank2r.bmp	866	3	kuss	866	0	0	0	0	0	0	0	0	0	0	0	0	0	0	0	0	0	0	0	0	0	0	0	0	0	0	0	0	0	0	0	0	0
032719	15:18:19	15:20:47	147224	5.0.10.0	4_exp_AMP_EVA_AWA_CON	180	Rpleas_acq	Same	Rpleas	Amasked	CS_A	1pleas	distractor1	EVAbeforeCON	acq_new_pleas_masked	acq1_masked	1	2	0	0	300	300	0	0	831	46	0	0	0	0	0	1	blank2r.bmp	0	1	+	0	3	B3r.bmp	492	1	blank2r.bmp	786	6	C2r.bmp	786	1	blank2r.bmp	866	2	anregung	866	1	FEHLER	1732	0	0	0	0	0	0	0	0	0	0	0	0	0	0	0	0	0	0	0	0	0	0	0	0	0	0	0	0	0	0
032719	15:18:19	15:20:49	149223	5.0.10.0	4_exp_AMP_EVA_AWA_CON	180	Rpleas_acq	Same	Rpleas	Amasked	CS_A	1pleas	distractor1	EVAbeforeCON	acq_new_unple_masked	acq1_masked	1	3	0	0	300	300	0	0	736	46	0	1	0	0	0	1	blank2r.bmp	0	1	+	0	4	B4r.bmp	492	1	blank2r.bmp	786	8	C4r.bmp	786	1	blank2r.bmp	866	1	verbissen	866	0	0	0	0	0	0	0	0	0	0	0	0	0	0	0	0	0	0	0	0	0	0	0	0	0	0	0	0	0	0	0	0	0
032719	15:18:19	15:20:51	151409	5.0.10.0	4_exp_AMP_EVA_AWA_CON	180	Rpleas_acq	Same	Rpleas	Amasked	CS_A	1pleas	distractor1	EVAbeforeCON	acq_new_pleas_masked	acq1_masked	1	4	0	0	300	300	0	0	707	50	0	1	0	0	0	1	blank2r.bmp	0	1	+	0	6	C2r.bmp	492	1	blank2r.bmp	786	5	C1r.bmp	786	1	blank2r.bmp	866	4	gütig	866	0	0	0	0	0	0	0	0	0	0	0	0	0	0	0	0	0	0	0	0	0	0	0	0	0	0	0	0	0	0	0	0	0
032719	15:18:19	15:20:54	153982	5.0.10.0	4_exp_AMP_EVA_AWA_CON	180	Rpleas_acq	Same	Rpleas	Amasked	CS_A	1pleas	distractor1	EVAbeforeCON	acq_new_unple_masked	acq1_masked	1	5	0	0	300	300	0	0	1103	46	0	1	0	0	0	1	blank2r.bmp	0	1	+	0	1	B1r.bmp	492	1	blank2r.bmp	786	3	B3r.bmp	786	1	blank2r.bmp	866	4	gierig	866	0	0	0	0	0	0	0	0	0	0	0	0	0	0	0	0	0	0	0	0	0	0	0	0	0	0	0	0	0	0	0	0	0
032719	15:18:19	15:20:56	156021	5.0.10.0	4_exp_AMP_EVA_AWA_CON	180	Rpleas_acq	Same	Rpleas	Amasked	CS_A	1pleas	distractor1	EVAbeforeCON	acq_US_pleas_masked	acq1_masked	1	6	0	0	300	300	0	0	566	50	0	1	0	0	0	1	blank2r.bmp	0	1	+	0	7	C3r.bmp	492	1	blank2r.bmp	786	1	CPLW	786	1	blank2r.bmp	866	4	sonnig	866	0	0	0	0	0	0	0	0	0	0	0	0	0	0	0	0	0	0	0	0	0	0	0	0	0	0	0	0	0	0	0	0	0
032719	15:18:19	15:20:58	158140	5.0.10.0	4_exp_AMP_EVA_AWA_CON	180	Rpleas_acq	Same	Rpleas	Amasked	CS_A	1pleas	distractor1	EVAbeforeCON	acq_US_pleas_masked	acq1_masked	1	7	0	0	300	300	0	0	631	50	0	1	0	0	0	1	blank2r.bmp	0	1	+	0	8	C4r.bmp	492	1	blank2r.bmp	786	1	CPLW	786	1	blank2r.bmp	866	1	besonnen	866	0	0	0	0	0	0	0	0	0	0	0	0	0	0	0	0	0	0	0	0	0	0	0	0	0	0	0	0	0	0	0	0	0
032719	15:18:19	15:21:00	160286	5.0.10.0	4_exp_AMP_EVA_AWA_CON	180	Rpleas_acq	Same	Rpleas	Amasked	CS_A	1pleas	distractor1	EVAbeforeCON	acq_US_unple_masked	acq1_masked	1	8	0	0	300	300	0	0	656	46	0	1	0	0	0	1	blank2r.bmp	0	1	+	0	2	B2r.bmp	492	1	blank2r.bmp	786	1	DHJF	786	1	blank2r.bmp	866	4	sterben	866	0	0	0	0	0	0	0	0	0	0	0	0	0	0	0	0	0	0	0	0	0	0	0	0	0	0	0	0	0	0	0	0	0
032719	15:18:19	15:21:02	162658	5.0.10.0	4_exp_AMP_EVA_AWA_CON	180	Rpleas_acq	Same	Rpleas	Amasked	CS_A	1pleas	distractor1	EVAbeforeCON	acq_US_unple_masked	acq1_masked	1	9	0	0	300	300	0	0	893	46	0	1	0	0	0	1	blank2r.bmp	0	1	+	0	2	B2r.bmp	492	1	blank2r.bmp	786	1	DHJF	786	1	blank2r.bmp	866	1	bange	866	0	0	0	0	0	0	0	0	0	0	0	0	0	0	0	0	0	0	0	0	0	0	0	0	0	0	0	0	0	0	0	0	0
032719	15:18:19	15:21:05	164990	5.0.10.0	4_exp_AMP_EVA_AWA_CON	180	Rpleas_acq	Same	Rpleas	Amasked	CS_A	1pleas	distractor1	EVAbeforeCON	acq_US_pleas_masked	acq1_masked	1	10	0	0	300	300	0	0	858	50	0	1	0	0	0	1	blank2r.bmp	0	1	+	0	4	B4r.bmp	492	1	blank2r.bmp	786	1	CPLW	786	1	blank2r.bmp	866	6	gesittet	866	0	0	0	0	0	0	0	0	0	0	0	0	0	0	0	0	0	0	0	0	0	0	0	0	0	0	0	0	0	0	0	0	0
032719	15:18:19	15:21:07	167163	5.0.10.0	4_exp_AMP_EVA_AWA_CON	180	Rpleas_acq	Same	Rpleas	Amasked	CS_A	1pleas	distractor1	EVAbeforeCON	acq_US_unple_masked	acq1_masked	1	11	0	0	300	300	0	0	687	46	0	1	0	0	0	1	blank2r.bmp	0	1	+	0	6	C2r.bmp	492	1	blank2r.bmp	786	1	DHJF	786	1	blank2r.bmp	866	5	töten	866	0	0	0	0	0	0	0	0	0	0	0	0	0	0	0	0	0	0	0	0	0	0	0	0	0	0	0	0	0	0	0	0	0
032719	15:18:19	15:21:09	169295	5.0.10.0	4_exp_AMP_EVA_AWA_CON	180	Rpleas_acq	Same	Rpleas	Amasked	CS_A	1pleas	distractor1	EVAbeforeCON	acq_new_unple_masked	acq1_masked	1	12	0	0	300	300	0	0	659	46	0	1	0	0	0	1	blank2r.bmp	0	1	+	0	1	B1r.bmp	492	1	blank2r.bmp	786	7	C3r.bmp	786	1	blank2r.bmp	866	2	ausrottung	866	0	0	0	0	0	0	0	0	0	0	0	0	0	0	0	0	0	0	0	0	0	0	0	0	0	0	0	0	0	0	0	0	0
032719	15:18:19	15:21:11	171321	5.0.10.0	4_exp_AMP_EVA_AWA_CON	180	Rpleas_acq	Same	Rpleas	Amasked	CS_A	1pleas	distractor1	EVAbeforeCON	acq_US_unple_masked	acq1_masked	1	13	0	0	300	300	0	0	542	46	0	1	0	0	0	1	blank2r.bmp	0	1	+	0	7	C3r.bmp	492	1	blank2r.bmp	786	1	DHJF	786	1	blank2r.bmp	866	3	krank	866	0	0	0	0	0	0	0	0	0	0	0	0	0	0	0	0	0	0	0	0	0	0	0	0	0	0	0	0	0	0	0	0	0
032719	15:18:19	15:21:13	173533	5.0.10.0	4_exp_AMP_EVA_AWA_CON	180	Rpleas_acq	Same	Rpleas	Amasked	CS_A	1pleas	distractor1	EVAbeforeCON	acq_new_pleas_masked	acq1_masked	1	14	0	0	300	300	0	0	730	50	0	1	0	0	0	1	blank2r.bmp	0	1	+	0	3	B3r.bmp	492	1	blank2r.bmp	786	4	B4r.bmp	786	1	blank2r.bmp	866	1	vergnügt	866	0	0	0	0	0	0	0	0	0	0	0	0	0	0	0	0	0	0	0	0	0	0	0	0	0	0	0	0	0	0	0	0	0
032719	15:18:19	15:21:15	175733	5.0.10.0	4_exp_AMP_EVA_AWA_CON	180	Rpleas_acq	Same	Rpleas	Amasked	CS_A	1pleas	distractor1	EVAbeforeCON	acq_US_unple_masked	acq1_masked	1	15	0	0	300	300	0	0	710	46	0	1	0	0	0	1	blank2r.bmp	0	1	+	0	5	C1r.bmp	492	1	blank2r.bmp	786	1	DHJF	786	1	blank2r.bmp	866	6	geizig	866	0	0	0	0	0	0	0	0	0	0	0	0	0	0	0	0	0	0	0	0	0	0	0	0	0	0	0	0	0	0	0	0	0
032719	15:18:19	15:21:18	177998	5.0.10.0	4_exp_AMP_EVA_AWA_CON	180	Rpleas_acq	Same	Rpleas	Amasked	CS_A	1pleas	distractor1	EVAbeforeCON	acq_US_pleas_masked	acq1_masked	1	16	0	0	300	300	0	0	786	50	0	1	0	0	0	1	blank2r.bmp	0	1	+	0	8	C4r.bmp	492	1	blank2r.bmp	786	1	CPLW	786	1	blank2r.bmp	866	2	vertrauen	866	0	0	0	0	0	0	0	0	0	0	0	0	0	0	0	0	0	0	0	0	0	0	0	0	0	0	0	0	0	0	0	0	0
032719	15:18:19	15:21:20	180331	5.0.10.0	4_exp_AMP_EVA_AWA_CON	180	Rpleas_acq	Same	Rpleas	Amasked	CS_A	1pleas	distractor1	EVAbeforeCON	acq_new_pleas_masked	acq1_masked	1	17	0	0	300	300	0	0	860	50	0	1	0	0	0	1	blank2r.bmp	0	1	+	0	8	C4r.bmp	492	1	blank2r.bmp	786	1	B1r.bmp	786	1	blank2r.bmp	866	5	genießen	866	0	0	0	0	0	0	0	0	0	0	0	0	0	0	0	0	0	0	0	0	0	0	0	0	0	0	0	0	0	0	0	0	0
032719	15:18:19	15:21:22	182650	5.0.10.0	4_exp_AMP_EVA_AWA_CON	180	Rpleas_acq	Same	Rpleas	Amasked	CS_A	1pleas	distractor1	EVAbeforeCON	acq_US_pleas_masked	acq1_masked	1	18	0	0	300	300	0	0	850	50	0	1	0	0	0	1	blank2r.bmp	0	1	+	0	1	B1r.bmp	492	1	blank2r.bmp	786	1	CPLW	786	1	blank2r.bmp	866	5	träumen	866	0	0	0	0	0	0	0	0	0	0	0	0	0	0	0	0	0	0	0	0	0	0	0	0	0	0	0	0	0	0	0	0	0
032719	15:18:19	15:21:24	184809	5.0.10.0	4_exp_AMP_EVA_AWA_CON	180	Rpleas_acq	Same	Rpleas	Amasked	CS_A	1pleas	distractor1	EVAbeforeCON	acq_new_unple_masked	acq1_masked	1	19	0	0	300	300	0	0	676	46	0	1	0	0	0	1	blank2r.bmp	0	1	+	0	3	B3r.bmp	492	1	blank2r.bmp	786	2	B2r.bmp	786	1	blank2r.bmp	866	3	krise	866	0	0	0	0	0	0	0	0	0	0	0	0	0	0	0	0	0	0	0	0	0	0	0	0	0	0	0	0	0	0	0	0	0
032719	15:18:19	15:21:27	187115	5.0.10.0	4_exp_AMP_EVA_AWA_CON	180	Rpleas_acq	Same	Rpleas	Amasked	CS_A	1pleas	distractor1	EVAbeforeCON	acq_new_unple_masked	acq1_masked	1	20	0	0	300	300	0	0	607	50	0	0	0	0	0	1	blank2r.bmp	0	1	+	0	5	C1r.bmp	492	1	blank2r.bmp	786	8	C4r.bmp	786	1	blank2r.bmp	866	5	gemein	866	1	FEHLER	1506	0	0	0	0	0	0	0	0	0	0	0	0	0	0	0	0	0	0	0	0	0	0	0	0	0	0	0	0	0	0
032719	15:18:19	15:21:29	189247	5.0.10.0	4_exp_AMP_EVA_AWA_CON	180	Rpleas_acq	Same	Rpleas	Amasked	CS_A	1pleas	distractor1	EVAbeforeCON	acq_US_unple_masked	acq1_masked	1	21	0	0	300	300	0	0	877	46	0	1	0	0	0	1	blank2r.bmp	0	1	+	0	6	C2r.bmp	492	1	blank2r.bmp	786	1	DHJF	786	1	blank2r.bmp	866	2	versagen	866	0	0	0	0	0	0	0	0	0	0	0	0	0	0	0	0	0	0	0	0	0	0	0	0	0	0	0	0	0	0	0	0	0
032719	15:18:19	15:21:31	191446	5.0.10.0	4_exp_AMP_EVA_AWA_CON	180	Rpleas_acq	Same	Rpleas	Amasked	CS_A	1pleas	distractor1	EVAbeforeCON	acq_US_pleas_masked	acq1_masked	1	22	0	0	300	300	0	0	714	50	0	1	0	0	0	1	blank2r.bmp	0	1	+	0	7	C3r.bmp	492	1	blank2r.bmp	786	1	CPLW	786	1	blank2r.bmp	866	3	kreativ	866	0	0	0	0	0	0	0	0	0	0	0	0	0	0	0	0	0	0	0	0	0	0	0	0	0	0	0	0	0	0	0	0	0
032719	15:18:19	15:21:33	193765	5.0.10.0	4_exp_AMP_EVA_AWA_CON	180	Rpleas_acq	Same	Rpleas	Amasked	CS_A	1pleas	distractor1	EVAbeforeCON	acq_new_pleas_masked	acq1_masked	1	23	0	0	300	300	0	0	831	50	0	1	0	0	0	1	blank2r.bmp	0	1	+	0	4	B4r.bmp	492	1	blank2r.bmp	786	1	B1r.bmp	786	1	blank2r.bmp	866	6	engagiert	866	0	0	0	0	0	0	0	0	0	0	0	0	0	0	0	0	0	0	0	0	0	0	0	0	0	0	0	0	0	0	0	0	0
032719	15:18:19	15:21:36	196564	5.0.10.0	4_exp_AMP_EVA_AWA_CON	180	Rpleas_acq	Same	Rpleas	Amasked	CS_A	1pleas	distractor1	EVAbeforeCON	acq_new_unple_masked	acq1_masked	1	24	0	0	300	300	0	0	1328	46	0	1	0	0	0	1	blank2r.bmp	0	1	+	0	2	B2r.bmp	492	1	blank2r.bmp	786	6	C2r.bmp	786	1	blank2r.bmp	866	6	engstirnig	866	0	0	0	0	0	0	0	0	0	0	0	0	0	0	0	0	0	0	0	0	0	0	0	0	0	0	0	0	0	0	0	0	0
032719	15:18:19	15:21:38	198630	5.0.10.0	4_exp_AMP_EVA_AWA_CON	180	Rpleas_acq	Same	Rpleas	Amasked	CS_A	1pleas	distractor1	EVAbeforeCON	acq_US_pleas_masked	acq1_masked	1	25	0	0	300	300	0	0	582	50	0	1	0	0	0	1	blank2r.bmp	0	1	+	0	8	C4r.bmp	492	1	blank2r.bmp	786	1	CPLW	786	1	blank2r.bmp	866	1	besonnen	866	0	0	0	0	0	0	0	0	0	0	0	0	0	0	0	0	0	0	0	0	0	0	0	0	0	0	0	0	0	0	0	0	0
032719	15:18:19	15:21:40	200616	5.0.10.0	4_exp_AMP_EVA_AWA_CON	180	Rpleas_acq	Same	Rpleas	Amasked	CS_A	1pleas	distractor1	EVAbeforeCON	acq_US_unple_masked	acq1_masked	1	26	0	0	300	300	0	0	509	46	0	1	0	0	0	1	blank2r.bmp	0	1	+	0	4	B4r.bmp	492	1	blank2r.bmp	786	1	DHJF	786	1	blank2r.bmp	866	5	töten	866	0	0	0	0	0	0	0	0	0	0	0	0	0	0	0	0	0	0	0	0	0	0	0	0	0	0	0	0	0	0	0	0	0
032719	15:18:19	15:21:42	202695	5.0.10.0	4_exp_AMP_EVA_AWA_CON	180	Rpleas_acq	Same	Rpleas	Amasked	CS_A	1pleas	distractor1	EVAbeforeCON	acq_new_pleas_masked	acq1_masked	1	27	0	0	300	300	0	0	601	50	0	1	0	0	0	1	blank2r.bmp	0	1	+	0	2	B2r.bmp	492	1	blank2r.bmp	786	4	B4r.bmp	786	1	blank2r.bmp	866	1	vergnügt	866	0	0	0	0	0	0	0	0	0	0	0	0	0	0	0	0	0	0	0	0	0	0	0	0	0	0	0	0	0	0	0	0	0
032719	15:18:19	15:21:45	204961	5.0.10.0	4_exp_AMP_EVA_AWA_CON	180	Rpleas_acq	Same	Rpleas	Amasked	CS_A	1pleas	distractor1	EVAbeforeCON	acq_new_unple_masked	acq1_masked	1	28	0	0	300	300	0	0	796	46	0	1	0	0	0	1	blank2r.bmp	0	1	+	0	7	C3r.bmp	492	1	blank2r.bmp	786	5	C1r.bmp	786	1	blank2r.bmp	866	6	engstirnig	866	0	0	0	0	0	0	0	0	0	0	0	0	0	0	0	0	0	0	0	0	0	0	0	0	0	0	0	0	0	0	0	0	0
032719	15:18:19	15:21:47	207546	5.0.10.0	4_exp_AMP_EVA_AWA_CON	180	Rpleas_acq	Same	Rpleas	Amasked	CS_A	1pleas	distractor1	EVAbeforeCON	acq_new_pleas_masked	acq1_masked	1	29	0	0	300	300	0	0	889	46	0	0	0	0	0	1	blank2r.bmp	0	1	+	0	5	C1r.bmp	492	1	blank2r.bmp	786	7	C3r.bmp	786	1	blank2r.bmp	866	2	anregung	866	1	FEHLER	1785	0	0	0	0	0	0	0	0	0	0	0	0	0	0	0	0	0	0	0	0	0	0	0	0	0	0	0	0	0	0
032719	15:18:19	15:21:49	209959	5.0.10.0	4_exp_AMP_EVA_AWA_CON	180	Rpleas_acq	Same	Rpleas	Amasked	CS_A	1pleas	distractor1	EVAbeforeCON	acq_new_pleas_masked	acq1_masked	1	30	0	0	300	300	0	0	1154	50	0	1	0	0	0	1	blank2r.bmp	0	1	+	0	6	C2r.bmp	492	1	blank2r.bmp	786	3	B3r.bmp	786	1	blank2r.bmp	866	4	gütig	866	0	0	0	0	0	0	0	0	0	0	0	0	0	0	0	0	0	0	0	0	0	0	0	0	0	0	0	0	0	0	0	0	0
032719	15:18:19	15:21:52	212051	5.0.10.0	4_exp_AMP_EVA_AWA_CON	180	Rpleas_acq	Same	Rpleas	Amasked	CS_A	1pleas	distractor1	EVAbeforeCON	acq_US_unple_masked	acq1_masked	1	31	0	0	300	300	0	0	611	46	0	1	0	0	0	1	blank2r.bmp	0	1	+	0	1	B1r.bmp	492	1	blank2r.bmp	786	1	DHJF	786	1	blank2r.bmp	866	1	bange	866	0	0	0	0	0	0	0	0	0	0	0	0	0	0	0	0	0	0	0	0	0	0	0	0	0	0	0	0	0	0	0	0	0
032719	15:18:19	15:21:54	214637	5.0.10.0	4_exp_AMP_EVA_AWA_CON	180	Rpleas_acq	Same	Rpleas	Amasked	CS_A	1pleas	distractor1	EVAbeforeCON	acq_US_pleas_masked	acq1_masked	1	32	0	0	300	300	0	0	1097	50	0	1	0	0	0	1	blank2r.bmp	0	1	+	0	3	B3r.bmp	492	1	blank2r.bmp	786	1	CPLW	786	1	blank2r.bmp	866	2	vertrauen	866	0	0	0	0	0	0	0	0	0	0	0	0	0	0	0	0	0	0	0	0	0	0	0	0	0	0	0	0	0	0	0	0	0
032719	15:18:19	15:21:56	216556	5.0.10.0	4_exp_AMP_EVA_AWA_CON	180	Rpleas_acq	Same	Rpleas	Amasked	CS_A	1pleas	distractor1	EVAbeforeCON	acq_US_pleas_masked	acq1_masked	1	33	0	0	300	300	0	0	447	50	0	1	0	0	0	1	blank2r.bmp	0	1	+	0	3	B3r.bmp	492	1	blank2r.bmp	786	1	CPLW	786	1	blank2r.bmp	866	4	sonnig	866	0	0	0	0	0	0	0	0	0	0	0	0	0	0	0	0	0	0	0	0	0	0	0	0	0	0	0	0	0	0	0	0	0
032719	15:18:19	15:21:58	218782	5.0.10.0	4_exp_AMP_EVA_AWA_CON	180	Rpleas_acq	Same	Rpleas	Amasked	CS_A	1pleas	distractor1	EVAbeforeCON	acq_US_unple_masked	acq1_masked	1	34	0	0	300	300	0	0	748	46	0	1	0	0	0	1	blank2r.bmp	0	1	+	0	4	B4r.bmp	492	1	blank2r.bmp	786	1	DHJF	786	1	blank2r.bmp	866	3	krank	866	0	0	0	0	0	0	0	0	0	0	0	0	0	0	0	0	0	0	0	0	0	0	0	0	0	0	0	0	0	0	0	0	0
032719	15:18:19	15:22:01	221034	5.0.10.0	4_exp_AMP_EVA_AWA_CON	180	Rpleas_acq	Same	Rpleas	Amasked	CS_A	1pleas	distractor1	EVAbeforeCON	acq_new_unple_masked	acq1_masked	1	35	0	0	300	300	0	0	767	46	0	1	0	0	0	1	blank2r.bmp	0	1	+	0	6	C2r.bmp	492	1	blank2r.bmp	786	7	C3r.bmp	786	1	blank2r.bmp	866	1	verbissen	866	0	0	0	0	0	0	0	0	0	0	0	0	0	0	0	0	0	0	0	0	0	0	0	0	0	0	0	0	0	0	0	0	0
032719	15:18:19	15:22:04	224046	5.0.10.0	4_exp_AMP_EVA_AWA_CON	180	Rpleas_acq	Same	Rpleas	Amasked	CS_A	1pleas	distractor1	EVAbeforeCON	acq_new_unple_masked	acq1_masked	1	36	0	0	300	300	0	0	1522	46	0	1	0	0	0	1	blank2r.bmp	0	1	+	0	2	B2r.bmp	492	1	blank2r.bmp	786	5	C1r.bmp	786	1	blank2r.bmp	866	3	krise	866	0	0	0	0	0	0	0	0	0	0	0	0	0	0	0	0	0	0	0	0	0	0	0	0	0	0	0	0	0	0	0	0	0
032719	15:18:19	15:22:51	271173	5.0.10.0	4_exp_AMP_EVA_AWA_CON	180	Rpleas_acq	Same	Rpleas	Amasked	CS_A	1pleas	distractor1	EVAbeforeCON	acq_US_unple_masked	acq2_masked	2	1	480	0	300	300	0	0	627	46	0	1	0	0	0	1	blank2r.bmp	0	1	+	0	5	C1r.bmp	492	1	blank2r.bmp	786	1	DHJF	786	1	blank2r.bmp	866	2	versagen	866	1	!	1319	1	!	-1	0	0	0	0	0	0	0	0	0	0	0	0	0	0	0	0	0	0	0	0	0	0	0	0	0	0	0
032719	15:18:19	15:22:53	273519	5.0.10.0	4_exp_AMP_EVA_AWA_CON	180	Rpleas_acq	Same	Rpleas	Amasked	CS_A	1pleas	distractor1	EVAbeforeCON	acq_US_pleas_masked	acq2_masked	2	2	480	1	300	300	0	0	538	50	0	1	0	0	0	1	blank2r.bmp	0	1	+	0	1	B1r.bmp	492	1	blank2r.bmp	786	1	CPLW	786	1	blank2r.bmp	866	3	kreativ	866	1	!	1319	1	!	1439	0	0	0	0	0	0	0	0	0	0	0	0	0	0	0	0	0	0	0	0	0	0	0	0	0	0	0
032719	15:18:19	15:22:55	275798	5.0.10.0	4_exp_AMP_EVA_AWA_CON	180	Rpleas_acq	Same	Rpleas	Amasked	CS_A	1pleas	distractor1	EVAbeforeCON	acq_US_unple_masked	acq2_masked	2	3	480	1	300	300	0	0	482	46	0	1	0	0	0	1	blank2r.bmp	0	1	+	0	7	C3r.bmp	492	1	blank2r.bmp	786	1	DHJF	786	1	blank2r.bmp	866	4	sterben	866	1	!	1319	1	!	1386	0	0	0	0	0	0	0	0	0	0	0	0	0	0	0	0	0	0	0	0	0	0	0	0	0	0	0
032719	15:18:19	15:22:58	278277	5.0.10.0	4_exp_AMP_EVA_AWA_CON	180	Rpleas_acq	Same	Rpleas	Amasked	CS_A	1pleas	distractor1	EVAbeforeCON	acq_US_pleas_masked	acq2_masked	2	4	480	1	300	300	0	0	461	46	0	0	0	0	0	1	blank2r.bmp	0	1	+	0	8	C4r.bmp	492	1	blank2r.bmp	786	1	CPLW	786	1	blank2r.bmp	866	6	gesittet	866	1	FEHLER	1679	1	!	1319	1	!	1359	0	0	0	0	0	0	0	0	0	0	0	0	0	0	0	0	0	0	0	0	0	0	0	0
032719	15:18:19	15:23:00	280236	5.0.10.0	4_exp_AMP_EVA_AWA_CON	180	Rpleas_acq	Same	Rpleas	Amasked	CS_A	1pleas	distractor1	EVAbeforeCON	acq_US_unple_masked	acq2_masked	2	5	480	0	300	300	0	0	411	46	0	1	0	0	0	1	blank2r.bmp	0	1	+	0	6	C2r.bmp	492	1	blank2r.bmp	786	1	DHJF	786	1	blank2r.bmp	866	6	geizig	866	1	!	-1	1	!	-1	0	0	0	0	0	0	0	0	0	0	0	0	0	0	0	0	0	0	0	0	0	0	0	0	0	0	0
032719	15:18:19	15:23:02	282582	5.0.10.0	4_exp_AMP_EVA_AWA_CON	180	Rpleas_acq	Same	Rpleas	Amasked	CS_A	1pleas	distractor1	EVAbeforeCON	acq_new_pleas_masked	acq2_masked	2	6	480	1	300	300	0	0	545	50	0	1	0	0	0	1	blank2r.bmp	0	1	+	0	1	B1r.bmp	492	1	blank2r.bmp	786	3	B3r.bmp	786	1	blank2r.bmp	866	6	engagiert	866	1	!	1319	1	!	1439	0	0	0	0	0	0	0	0	0	0	0	0	0	0	0	0	0	0	0	0	0	0	0	0	0	0	0
032719	15:18:19	15:23:05	285048	5.0.10.0	4_exp_AMP_EVA_AWA_CON	180	Rpleas_acq	Same	Rpleas	Amasked	CS_A	1pleas	distractor1	EVAbeforeCON	acq_new_unple_masked	acq2_masked	2	7	480	0	300	300	0	0	703	46	0	1	0	0	0	1	blank2r.bmp	0	1	+	0	7	C3r.bmp	492	1	blank2r.bmp	786	2	B2r.bmp	786	1	blank2r.bmp	866	2	ausrottung	866	1	!	1319	1	!	-1	0	0	0	0	0	0	0	0	0	0	0	0	0	0	0	0	0	0	0	0	0	0	0	0	0	0	0
032719	15:18:19	15:23:07	287367	5.0.10.0	4_exp_AMP_EVA_AWA_CON	180	Rpleas_acq	Same	Rpleas	Amasked	CS_A	1pleas	distractor1	EVAbeforeCON	acq_new_unple_masked	acq2_masked	2	8	480	1	300	300	0	0	507	46	0	1	0	0	0	1	blank2r.bmp	0	1	+	0	4	B4r.bmp	492	1	blank2r.bmp	786	8	C4r.bmp	786	1	blank2r.bmp	866	5	gemein	866	1	!	1319	1	!	1412	0	0	0	0	0	0	0	0	0	0	0	0	0	0	0	0	0	0	0	0	0	0	0	0	0	0	0
032719	15:18:19	15:23:09	289859	5.0.10.0	4_exp_AMP_EVA_AWA_CON	180	Rpleas_acq	Same	Rpleas	Amasked	CS_A	1pleas	distractor1	EVAbeforeCON	acq_new_pleas_masked	acq2_masked	2	9	480	1	300	300	0	0	480	46	0	0	0	0	0	1	blank2r.bmp	0	1	+	0	2	B2r.bmp	492	1	blank2r.bmp	786	4	B4r.bmp	786	1	blank2r.bmp	866	3	kuss	866	1	FEHLER	1705	1	!	1319	1	!	1386	0	0	0	0	0	0	0	0	0	0	0	0	0	0	0	0	0	0	0	0	0	0	0	0
032719	15:18:19	15:23:11	291871	5.0.10.0	4_exp_AMP_EVA_AWA_CON	180	Rpleas_acq	Same	Rpleas	Amasked	CS_A	1pleas	distractor1	EVAbeforeCON	acq_new_unple_masked	acq2_masked	2	10	480	1	300	300	0	0	426	46	0	1	0	0	0	1	blank2r.bmp	0	1	+	0	8	C4r.bmp	492	1	blank2r.bmp	786	1	B1r.bmp	786	1	blank2r.bmp	866	4	gierig	866	1	!	1319	1	!	1332	0	0	0	0	0	0	0	0	0	0	0	0	0	0	0	0	0	0	0	0	0	0	0	0	0	0	0
032719	15:18:19	15:23:14	294177	5.0.10.0	4_exp_AMP_EVA_AWA_CON	180	Rpleas_acq	Same	Rpleas	Amasked	CS_A	1pleas	distractor1	EVAbeforeCON	acq_US_pleas_masked	acq2_masked	2	11	480	1	300	300	0	0	513	50	0	1	0	0	0	1	blank2r.bmp	0	1	+	0	5	C1r.bmp	492	1	blank2r.bmp	786	1	CPLW	786	1	blank2r.bmp	866	5	träumen	866	1	!	1319	1	!	1412	0	0	0	0	0	0	0	0	0	0	0	0	0	0	0	0	0	0	0	0	0	0	0	0	0	0	0
032719	15:18:19	15:23:16	296510	5.0.10.0	4_exp_AMP_EVA_AWA_CON	180	Rpleas_acq	Same	Rpleas	Amasked	CS_A	1pleas	distractor1	EVAbeforeCON	acq_new_pleas_masked	acq2_masked	2	12	480	0	300	300	0	0	559	50	0	1	0	0	0	1	blank2r.bmp	0	1	+	0	3	B3r.bmp	492	1	blank2r.bmp	786	6	C2r.bmp	786	1	blank2r.bmp	866	5	genießen	866	1	!	1319	1	!	-1	0	0	0	0	0	0	0	0	0	0	0	0	0	0	0	0	0	0	0	0	0	0	0	0	0	0	0
032719	15:18:19	15:23:18	298682	5.0.10.0	4_exp_AMP_EVA_AWA_CON	180	Rpleas_acq	Same	Rpleas	Amasked	CS_A	1pleas	distractor1	EVAbeforeCON	acq_US_pleas_masked	acq2_masked	2	13	480	0	300	300	0	0	392	50	0	1	0	0	0	1	blank2r.bmp	0	1	+	0	5	C1r.bmp	492	1	blank2r.bmp	786	1	CPLW	786	1	blank2r.bmp	866	5	träumen	866	1	!	-1	1	!	-1	0	0	0	0	0	0	0	0	0	0	0	0	0	0	0	0	0	0	0	0	0	0	0	0	0	0	0
032719	15:18:19	15:23:21	301068	5.0.10.0	4_exp_AMP_EVA_AWA_CON	180	Rpleas_acq	Same	Rpleas	Amasked	CS_A	1pleas	distractor1	EVAbeforeCON	acq_US_unple_masked	acq2_masked	2	14	480	0	300	300	0	0	608	46	0	1	0	0	0	1	blank2r.bmp	0	1	+	0	3	B3r.bmp	492	1	blank2r.bmp	786	1	DHJF	786	1	blank2r.bmp	866	2	versagen	866	1	!	1319	1	!	-1	0	0	0	0	0	0	0	0	0	0	0	0	0	0	0	0	0	0	0	0	0	0	0	0	0	0	0
032719	15:18:19	15:23:23	303453	5.0.10.0	4_exp_AMP_EVA_AWA_CON	180	Rpleas_acq	Same	Rpleas	Amasked	CS_A	1pleas	distractor1	EVAbeforeCON	acq_new_unple_masked	acq2_masked	2	15	480	0	300	300	0	0	389	50	0	0	0	0	0	1	blank2r.bmp	0	1	+	0	4	B4r.bmp	492	1	blank2r.bmp	786	1	B1r.bmp	786	1	blank2r.bmp	866	3	krise	866	1	FEHLER	1599	1	!	-1	1	!	-1	0	0	0	0	0	0	0	0	0	0	0	0	0	0	0	0	0	0	0	0	0	0	0	0
032719	15:18:19	15:23:25	305599	5.0.10.0	4_exp_AMP_EVA_AWA_CON	180	Rpleas_acq	Same	Rpleas	Amasked	CS_A	1pleas	distractor1	EVAbeforeCON	acq_new_pleas_masked	acq2_masked	2	16	480	1	300	300	0	0	534	50	0	1	0	0	0	1	blank2r.bmp	0	1	+	0	6	C2r.bmp	492	1	blank2r.bmp	786	8	C4r.bmp	786	1	blank2r.bmp	866	5	genießen	866	1	!	1319	1	!	1439	0	0	0	0	0	0	0	0	0	0	0	0	0	0	0	0	0	0	0	0	0	0	0	0	0	0	0
032719	15:18:19	15:23:28	308091	5.0.10.0	4_exp_AMP_EVA_AWA_CON	180	Rpleas_acq	Same	Rpleas	Amasked	CS_A	1pleas	distractor1	EVAbeforeCON	acq_new_pleas_masked	acq2_masked	2	17	480	1	300	300	0	0	499	46	0	0	0	0	0	1	blank2r.bmp	0	1	+	0	1	B1r.bmp	492	1	blank2r.bmp	786	3	B3r.bmp	786	1	blank2r.bmp	866	6	engagiert	866	1	FEHLER	1719	1	!	1319	1	!	1399	0	0	0	0	0	0	0	0	0	0	0	0	0	0	0	0	0	0	0	0	0	0	0	0
032719	15:18:19	15:23:30	310424	5.0.10.0	4_exp_AMP_EVA_AWA_CON	180	Rpleas_acq	Same	Rpleas	Amasked	CS_A	1pleas	distractor1	EVAbeforeCON	acq_new_pleas_masked	acq2_masked	2	18	480	1	300	300	0	0	521	46	0	0	0	0	0	1	blank2r.bmp	0	1	+	0	8	C4r.bmp	492	1	blank2r.bmp	786	2	B2r.bmp	786	1	blank2r.bmp	866	3	kuss	866	1	FEHLER	1745	1	!	1319	1	!	1426	0	0	0	0	0	0	0	0	0	0	0	0	0	0	0	0	0	0	0	0	0	0	0	0
032719	15:18:19	15:23:32	312730	5.0.10.0	4_exp_AMP_EVA_AWA_CON	180	Rpleas_acq	Same	Rpleas	Amasked	CS_A	1pleas	distractor1	EVAbeforeCON	acq_US_unple_masked	acq2_masked	2	19	480	1	300	300	0	0	511	50	0	0	0	0	0	1	blank2r.bmp	0	1	+	0	7	C3r.bmp	492	1	blank2r.bmp	786	1	DHJF	786	1	blank2r.bmp	866	6	geizig	866	1	FEHLER	1732	1	!	1319	1	!	1412	0	0	0	0	0	0	0	0	0	0	0	0	0	0	0	0	0	0	0	0	0	0	0	0
032719	15:18:19	15:23:35	315169	5.0.10.0	4_exp_AMP_EVA_AWA_CON	180	Rpleas_acq	Same	Rpleas	Amasked	CS_A	1pleas	distractor1	EVAbeforeCON	acq_new_unple_masked	acq2_masked	2	20	480	0	300	300	0	0	870	46	0	1	0	0	0	1	blank2r.bmp	0	1	+	0	2	B2r.bmp	492	1	blank2r.bmp	786	7	C3r.bmp	786	1	blank2r.bmp	866	4	gierig	866	1	!	1319	1	!	-1	0	0	0	0	0	0	0	0	0	0	0	0	0	0	0	0	0	0	0	0	0	0	0	0	0	0	0
032719	15:18:19	15:23:37	317501	5.0.10.0	4_exp_AMP_EVA_AWA_CON	180	Rpleas_acq	Same	Rpleas	Amasked	CS_A	1pleas	distractor1	EVAbeforeCON	acq_US_unple_masked	acq2_masked	2	21	480	0	300	300	0	0	559	46	0	1	0	0	0	1	blank2r.bmp	0	1	+	0	4	B4r.bmp	492	1	blank2r.bmp	786	1	DHJF	786	1	blank2r.bmp	866	4	sterben	866	1	!	1319	1	!	-1	0	0	0	0	0	0	0	0	0	0	0	0	0	0	0	0	0	0	0	0	0	0	0	0	0	0	0
032719	15:18:19	15:23:39	319833	5.0.10.0	4_exp_AMP_EVA_AWA_CON	180	Rpleas_acq	Same	Rpleas	Amasked	CS_A	1pleas	distractor1	EVAbeforeCON	acq_US_pleas_masked	acq2_masked	2	22	480	1	300	300	0	0	516	50	0	1	0	0	0	1	blank2r.bmp	0	1	+	0	7	C3r.bmp	492	1	blank2r.bmp	786	1	CPLW	786	1	blank2r.bmp	866	1	besonnen	866	1	!	1319	1	!	1412	0	0	0	0	0	0	0	0	0	0	0	0	0	0	0	0	0	0	0	0	0	0	0	0	0	0	0
032719	15:18:19	15:23:42	322126	5.0.10.0	4_exp_AMP_EVA_AWA_CON	180	Rpleas_acq	Same	Rpleas	Amasked	CS_A	1pleas	distractor1	EVAbeforeCON	acq_US_pleas_masked	acq2_masked	2	23	480	1	300	300	0	0	496	50	0	1	0	0	0	1	blank2r.bmp	0	1	+	0	5	C1r.bmp	492	1	blank2r.bmp	786	1	CPLW	786	1	blank2r.bmp	866	6	gesittet	866	1	!	1319	1	!	1399	0	0	0	0	0	0	0	0	0	0	0	0	0	0	0	0	0	0	0	0	0	0	0	0	0	0	0
032719	15:18:19	15:23:44	324871	5.0.10.0	4_exp_AMP_EVA_AWA_CON	180	Rpleas_acq	Same	Rpleas	Amasked	CS_A	1pleas	distractor1	EVAbeforeCON	acq_new_unple_masked	acq2_masked	2	24	480	0	300	300	0	0	753	50	0	0	0	0	0	1	blank2r.bmp	0	1	+	0	2	B2r.bmp	492	1	blank2r.bmp	786	4	B4r.bmp	786	1	blank2r.bmp	866	1	verbissen	866	1	FEHLER	1959	1	!	1319	1	!	-1	0	0	0	0	0	0	0	0	0	0	0	0	0	0	0	0	0	0	0	0	0	0	0	0
032719	15:18:19	15:23:47	327030	5.0.10.0	4_exp_AMP_EVA_AWA_CON	180	Rpleas_acq	Same	Rpleas	Amasked	CS_A	1pleas	distractor1	EVAbeforeCON	acq_new_pleas_masked	acq2_masked	2	25	480	0	300	300	0	0	380	46	0	0	0	0	0	1	blank2r.bmp	0	1	+	0	3	B3r.bmp	492	1	blank2r.bmp	786	6	C2r.bmp	786	1	blank2r.bmp	866	4	gütig	866	1	FEHLER	1586	1	!	-1	1	!	-1	0	0	0	0	0	0	0	0	0	0	0	0	0	0	0	0	0	0	0	0	0	0	0	0
032719	15:18:19	15:23:49	329349	5.0.10.0	4_exp_AMP_EVA_AWA_CON	180	Rpleas_acq	Same	Rpleas	Amasked	CS_A	1pleas	distractor1	EVAbeforeCON	acq_new_pleas_masked	acq2_masked	2	26	480	0	300	300	0	0	753	50	0	1	0	0	0	1	blank2r.bmp	0	1	+	0	8	C4r.bmp	492	1	blank2r.bmp	786	5	C1r.bmp	786	1	blank2r.bmp	866	1	vergnügt	866	1	!	1319	1	!	-1	0	0	0	0	0	0	0	0	0	0	0	0	0	0	0	0	0	0	0	0	0	0	0	0	0	0	0
032719	15:18:19	15:23:51	331628	5.0.10.0	4_exp_AMP_EVA_AWA_CON	180	Rpleas_acq	Same	Rpleas	Amasked	CS_A	1pleas	distractor1	EVAbeforeCON	acq_new_unple_masked	acq2_masked	2	27	480	1	300	300	0	0	475	46	0	1	0	0	0	1	blank2r.bmp	0	1	+	0	6	C2r.bmp	492	1	blank2r.bmp	786	2	B2r.bmp	786	1	blank2r.bmp	866	2	ausrottung	866	1	!	1319	1	!	1372	0	0	0	0	0	0	0	0	0	0	0	0	0	0	0	0	0	0	0	0	0	0	0	0	0	0	0
032719	15:18:19	15:23:54	334014	5.0.10.0	4_exp_AMP_EVA_AWA_CON	180	Rpleas_acq	Same	Rpleas	Amasked	CS_A	1pleas	distractor1	EVAbeforeCON	acq_US_unple_masked	acq2_masked	2	28	480	0	300	300	0	0	621	46	0	1	0	0	0	1	blank2r.bmp	0	1	+	0	1	B1r.bmp	492	1	blank2r.bmp	786	1	DHJF	786	1	blank2r.bmp	866	1	bange	866	1	!	1319	1	!	-1	0	0	0	0	0	0	0	0	0	0	0	0	0	0	0	0	0	0	0	0	0	0	0	0	0	0	0
032719	15:18:19	15:23:56	336413	5.0.10.0	4_exp_AMP_EVA_AWA_CON	180	Rpleas_acq	Same	Rpleas	Amasked	CS_A	1pleas	distractor1	EVAbeforeCON	acq_new_pleas_masked	acq2_masked	2	29	480	0	300	300	0	0	620	50	0	1	0	0	0	1	blank2r.bmp	0	1	+	0	3	B3r.bmp	492	1	blank2r.bmp	786	1	B1r.bmp	786	1	blank2r.bmp	866	2	anregung	866	1	!	1319	1	!	-1	0	0	0	0	0	0	0	0	0	0	0	0	0	0	0	0	0	0	0	0	0	0	0	0	0	0	0
032719	15:18:19	15:23:58	338772	5.0.10.0	4_exp_AMP_EVA_AWA_CON	180	Rpleas_acq	Same	Rpleas	Amasked	CS_A	1pleas	distractor1	EVAbeforeCON	acq_US_pleas_masked	acq2_masked	2	30	480	0	300	300	0	0	350	46	0	0	0	0	0	1	blank2r.bmp	0	1	+	0	4	B4r.bmp	492	1	blank2r.bmp	786	1	CPLW	786	1	blank2r.bmp	866	3	kreativ	866	1	FEHLER	1559	1	!	-1	1	!	-1	0	0	0	0	0	0	0	0	0	0	0	0	0	0	0	0	0	0	0	0	0	0	0	0
032719	15:18:19	15:24:00	340678	5.0.10.0	4_exp_AMP_EVA_AWA_CON	180	Rpleas_acq	Same	Rpleas	Amasked	CS_A	1pleas	distractor1	EVAbeforeCON	acq_US_pleas_masked	acq2_masked	2	31	480	0	300	300	0	0	356	50	0	1	0	0	0	1	blank2r.bmp	0	1	+	0	7	C3r.bmp	492	1	blank2r.bmp	786	1	CPLW	786	1	blank2r.bmp	866	4	sonnig	866	1	!	-1	1	!	-1	0	0	0	0	0	0	0	0	0	0	0	0	0	0	0	0	0	0	0	0	0	0	0	0	0	0	0
032719	15:18:19	15:24:03	343024	5.0.10.0	4_exp_AMP_EVA_AWA_CON	180	Rpleas_acq	Same	Rpleas	Amasked	CS_A	1pleas	distractor1	EVAbeforeCON	acq_US_unple_masked	acq2_masked	2	32	480	1	300	300	0	0	544	46	0	1	0	0	0	1	blank2r.bmp	0	1	+	0	5	C1r.bmp	492	1	blank2r.bmp	786	1	DHJF	786	1	blank2r.bmp	866	3	krank	866	1	!	1319	1	!	1439	0	0	0	0	0	0	0	0	0	0	0	0	0	0	0	0	0	0	0	0	0	0	0	0	0	0	0
032719	15:18:19	15:24:05	345783	5.0.10.0	4_exp_AMP_EVA_AWA_CON	180	Rpleas_acq	Same	Rpleas	Amasked	CS_A	1pleas	distractor1	EVAbeforeCON	acq_new_unple_masked	acq2_masked	2	33	480	0	300	300	0	0	760	50	0	0	0	0	0	1	blank2r.bmp	0	1	+	0	2	B2r.bmp	492	1	blank2r.bmp	786	5	C1r.bmp	786	1	blank2r.bmp	866	6	engstirnig	866	1	FEHLER	1972	1	!	1319	1	!	-1	0	0	0	0	0	0	0	0	0	0	0	0	0	0	0	0	0	0	0	0	0	0	0	0
032719	15:18:19	15:24:08	348222	5.0.10.0	4_exp_AMP_EVA_AWA_CON	180	Rpleas_acq	Same	Rpleas	Amasked	CS_A	1pleas	distractor1	EVAbeforeCON	acq_new_unple_masked	acq2_masked	2	34	480	0	300	300	0	0	885	46	0	1	0	0	0	1	blank2r.bmp	0	1	+	0	6	C2r.bmp	492	1	blank2r.bmp	786	4	B4r.bmp	786	1	blank2r.bmp	866	5	gemein	866	1	!	1319	1	!	-1	0	0	0	0	0	0	0	0	0	0	0	0	0	0	0	0	0	0	0	0	0	0	0	0	0	0	0
032719	15:18:19	15:24:10	350554	5.0.10.0	4_exp_AMP_EVA_AWA_CON	180	Rpleas_acq	Same	Rpleas	Amasked	CS_A	1pleas	distractor1	EVAbeforeCON	acq_US_unple_masked	acq2_masked	2	35	480	1	300	300	0	0	521	46	0	1	0	0	0	1	blank2r.bmp	0	1	+	0	1	B1r.bmp	492	1	blank2r.bmp	786	1	DHJF	786	1	blank2r.bmp	866	5	töten	866	1	!	1319	1	!	1426	0	0	0	0	0	0	0	0	0	0	0	0	0	0	0	0	0	0	0	0	0	0	0	0	0	0	0
032719	15:18:19	15:24:12	352873	5.0.10.0	4_exp_AMP_EVA_AWA_CON	180	Rpleas_acq	Same	Rpleas	Amasked	CS_A	1pleas	distractor1	EVAbeforeCON	acq_US_pleas_masked	acq2_masked	2	36	480	1	300	300	0	0	509	50	0	1	0	0	0	1	blank2r.bmp	0	1	+	0	8	C4r.bmp	492	1	blank2r.bmp	786	1	CPLW	786	1	blank2r.bmp	866	2	vertrauen	866	1	!	1319	1	!	1412	0	0	0	0	0	0	0	0	0	0	0	0	0	0	0	0	0	0	0	0	0	0	0	0	0	0	0
032719	15:18:19	15:24:36	376517	5.0.10.0	4_exp_AMP_EVA_AWA_CON	180	Rpleas_acq	Same	Rpleas	Amasked	CS_A	1pleas	distractor1	EVAbeforeCON	acq_US_unple_masked	acq3_masked	3	1	453	1	300	300	0	0	507	46	0	1	0	0	0	1	blank2r.bmp	0	1	+	0	7	C3r.bmp	492	1	blank2r.bmp	786	1	DHJF	786	1	blank2r.bmp	866	6	geizig	866	1	!	1292	1	!	1412	0	0	0	0	0	0	0	0	0	0	0	0	0	0	0	0	0	0	0	0	0	0	0	0	0	0	0
032719	15:18:19	15:24:38	378796	5.0.10.0	4_exp_AMP_EVA_AWA_CON	180	Rpleas_acq	Same	Rpleas	Amasked	CS_A	1pleas	distractor1	EVAbeforeCON	acq_US_unple_masked	acq3_masked	3	2	453	1	300	300	0	0	484	46	0	1	0	0	0	1	blank2r.bmp	0	1	+	0	6	C2r.bmp	492	1	blank2r.bmp	786	1	DHJF	786	1	blank2r.bmp	866	3	krank	866	1	!	1292	1	!	1386	0	0	0	0	0	0	0	0	0	0	0	0	0	0	0	0	0	0	0	0	0	0	0	0	0	0	0
032719	15:18:19	15:24:41	381048	5.0.10.0	4_exp_AMP_EVA_AWA_CON	180	Rpleas_acq	Same	Rpleas	Amasked	CS_A	1pleas	distractor1	EVAbeforeCON	acq_US_pleas_masked	acq3_masked	3	3	453	1	300	300	0	0	461	50	0	1	0	0	0	1	blank2r.bmp	0	1	+	0	3	B3r.bmp	492	1	blank2r.bmp	786	1	CPLW	786	1	blank2r.bmp	866	6	gesittet	866	1	!	1292	1	!	1359	0	0	0	0	0	0	0	0	0	0	0	0	0	0	0	0	0	0	0	0	0	0	0	0	0	0	0
032719	15:18:19	15:24:43	383354	5.0.10.0	4_exp_AMP_EVA_AWA_CON	180	Rpleas_acq	Same	Rpleas	Amasked	CS_A	1pleas	distractor1	EVAbeforeCON	acq_US_unple_masked	acq3_masked	3	4	453	0	300	300	0	0	532	46	0	1	0	0	0	1	blank2r.bmp	0	1	+	0	5	C1r.bmp	492	1	blank2r.bmp	786	1	DHJF	786	1	blank2r.bmp	866	4	sterben	866	1	!	1292	1	!	-1	0	0	0	0	0	0	0	0	0	0	0	0	0	0	0	0	0	0	0	0	0	0	0	0	0	0	0
032719	15:18:19	15:24:45	385820	5.0.10.0	4_exp_AMP_EVA_AWA_CON	180	Rpleas_acq	Same	Rpleas	Amasked	CS_A	1pleas	distractor1	EVAbeforeCON	acq_US_unple_masked	acq3_masked	3	5	453	1	300	300	0	0	459	50	0	0	0	0	0	1	blank2r.bmp	0	1	+	0	1	B1r.bmp	492	1	blank2r.bmp	786	1	DHJF	786	1	blank2r.bmp	866	2	versagen	866	1	FEHLER	1679	1	!	1292	1	!	1359	0	0	0	0	0	0	0	0	0	0	0	0	0	0	0	0	0	0	0	0	0	0	0	0
032719	15:18:19	15:24:48	388099	5.0.10.0	4_exp_AMP_EVA_AWA_CON	180	Rpleas_acq	Same	Rpleas	Amasked	CS_A	1pleas	distractor1	EVAbeforeCON	acq_US_pleas_masked	acq3_masked	3	6	453	0	300	300	0	0	707	50	0	1	0	0	0	1	blank2r.bmp	0	1	+	0	8	C4r.bmp	492	1	blank2r.bmp	786	1	CPLW	786	1	blank2r.bmp	866	3	kreativ	866	1	!	1292	1	!	-1	0	0	0	0	0	0	0	0	0	0	0	0	0	0	0	0	0	0	0	0	0	0	0	0	0	0	0
032719	15:18:19	15:24:50	390311	5.0.10.0	4_exp_AMP_EVA_AWA_CON	180	Rpleas_acq	Same	Rpleas	Amasked	CS_A	1pleas	distractor1	EVAbeforeCON	acq_US_unple_masked	acq3_masked	3	7	453	1	300	300	0	0	399	46	0	1	0	0	0	1	blank2r.bmp	0	1	+	0	2	B2r.bmp	492	1	blank2r.bmp	786	1	DHJF	786	1	blank2r.bmp	866	1	bange	866	1	!	1292	1	!	1306	0	0	0	0	0	0	0	0	0	0	0	0	0	0	0	0	0	0	0	0	0	0	0	0	0	0	0
032719	15:18:19	15:24:52	392670	5.0.10.0	4_exp_AMP_EVA_AWA_CON	180	Rpleas_acq	Same	Rpleas	Amasked	CS_A	1pleas	distractor1	EVAbeforeCON	acq_US_pleas_masked	acq3_masked	3	8	453	0	300	300	0	0	364	46	0	0	0	0	0	1	blank2r.bmp	0	1	+	0	4	B4r.bmp	492	1	blank2r.bmp	786	1	CPLW	786	1	blank2r.bmp	866	5	träumen	866	1	FEHLER	1572	1	!	-1	1	!	-1	0	0	0	0	0	0	0	0	0	0	0	0	0	0	0	0	0	0	0	0	0	0	0	0
032719	15:18:19	15:24:54	394856	5.0.10.0	4_exp_AMP_EVA_AWA_CON	180	Rpleas_acq	Same	Rpleas	Amasked	CS_A	1pleas	distractor1	EVAbeforeCON	acq_US_pleas_masked	acq3_masked	3	9	453	0	300	300	0	0	634	50	0	1	0	0	0	1	blank2r.bmp	0	1	+	0	6	C2r.bmp	492	1	blank2r.bmp	786	1	CPLW	786	1	blank2r.bmp	866	4	sonnig	866	1	!	1292	1	!	-1	0	0	0	0	0	0	0	0	0	0	0	0	0	0	0	0	0	0	0	0	0	0	0	0	0	0	0
032719	15:18:19	15:24:57	397015	5.0.10.0	4_exp_AMP_EVA_AWA_CON	180	Rpleas_acq	Same	Rpleas	Amasked	CS_A	1pleas	distractor1	EVAbeforeCON	acq_US_unple_masked	acq3_masked	3	10	453	0	300	300	0	0	372	46	0	1	0	0	0	1	blank2r.bmp	0	1	+	0	7	C3r.bmp	492	1	blank2r.bmp	786	1	DHJF	786	1	blank2r.bmp	866	5	töten	866	1	!	-1	1	!	-1	0	0	0	0	0	0	0	0	0	0	0	0	0	0	0	0	0	0	0	0	0	0	0	0	0	0	0
032719	15:18:19	15:24:59	399454	5.0.10.0	4_exp_AMP_EVA_AWA_CON	180	Rpleas_acq	Same	Rpleas	Amasked	CS_A	1pleas	distractor1	EVAbeforeCON	acq_US_pleas_masked	acq3_masked	3	11	453	0	300	300	0	0	659	50	0	1	0	0	0	1	blank2r.bmp	0	1	+	0	8	C4r.bmp	492	1	blank2r.bmp	786	1	CPLW	786	1	blank2r.bmp	866	2	vertrauen	866	1	!	1292	1	!	-1	0	0	0	0	0	0	0	0	0	0	0	0	0	0	0	0	0	0	0	0	0	0	0	0	0	0	0
032719	15:18:19	15:25:01	401946	5.0.10.0	4_exp_AMP_EVA_AWA_CON	180	Rpleas_acq	Same	Rpleas	Amasked	CS_A	1pleas	distractor1	EVAbeforeCON	acq_US_pleas_masked	acq3_masked	3	12	453	1	300	300	0	0	477	46	0	0	0	0	0	1	blank2r.bmp	0	1	+	0	2	B2r.bmp	492	1	blank2r.bmp	786	1	CPLW	786	1	blank2r.bmp	866	1	besonnen	866	1	FEHLER	1692	1	!	1292	1	!	1372	0	0	0	0	0	0	0	0	0	0	0	0	0	0	0	0	0	0	0	0	0	0	0	0
032719	15:18:19	15:25:04	404145	5.0.10.0	4_exp_AMP_EVA_AWA_CON	180	Rpleas_acq	Same	Rpleas	Amasked	CS_A	1pleas	distractor1	EVAbeforeCON	acq_US_unple_masked	acq3_masked	3	13	453	0	300	300	0	0	644	46	0	1	0	0	0	1	blank2r.bmp	0	1	+	0	4	B4r.bmp	492	1	blank2r.bmp	786	1	DHJF	786	1	blank2r.bmp	866	5	töten	866	1	!	1292	1	!	-1	0	0	0	0	0	0	0	0	0	0	0	0	0	0	0	0	0	0	0	0	0	0	0	0	0	0	0
032719	15:18:19	15:25:06	406518	5.0.10.0	4_exp_AMP_EVA_AWA_CON	180	Rpleas_acq	Same	Rpleas	Amasked	CS_A	1pleas	distractor1	EVAbeforeCON	acq_US_unple_masked	acq3_masked	3	14	453	0	300	300	0	0	596	46	0	1	0	0	0	1	blank2r.bmp	0	1	+	0	1	B1r.bmp	492	1	blank2r.bmp	786	1	DHJF	786	1	blank2r.bmp	866	4	sterben	866	1	!	1292	1	!	-1	0	0	0	0	0	0	0	0	0	0	0	0	0	0	0	0	0	0	0	0	0	0	0	0	0	0	0
032719	15:18:19	15:25:08	408850	5.0.10.0	4_exp_AMP_EVA_AWA_CON	180	Rpleas_acq	Same	Rpleas	Amasked	CS_A	1pleas	distractor1	EVAbeforeCON	acq_US_pleas_masked	acq3_masked	3	15	453	0	300	300	0	0	558	50	0	1	0	0	0	1	blank2r.bmp	0	1	+	0	5	C1r.bmp	492	1	blank2r.bmp	786	1	CPLW	786	1	blank2r.bmp	866	5	träumen	866	1	!	1292	1	!	-1	0	0	0	0	0	0	0	0	0	0	0	0	0	0	0	0	0	0	0	0	0	0	0	0	0	0	0
032719	15:18:19	15:25:11	411422	5.0.10.0	4_exp_AMP_EVA_AWA_CON	180	Rpleas_acq	Same	Rpleas	Amasked	CS_A	1pleas	distractor1	EVAbeforeCON	acq_US_pleas_masked	acq3_masked	3	16	453	0	300	300	0	0	571	46	0	0	0	0	0	1	blank2r.bmp	0	1	+	0	3	B3r.bmp	492	1	blank2r.bmp	786	1	CPLW	786	1	blank2r.bmp	866	6	gesittet	866	1	FEHLER	1772	1	!	1292	1	!	-1	0	0	0	0	0	0	0	0	0	0	0	0	0	0	0	0	0	0	0	0	0	0	0	0
032719	15:18:19	15:25:13	413648	5.0.10.0	4_exp_AMP_EVA_AWA_CON	180	Rpleas_acq	Same	Rpleas	Amasked	CS_A	1pleas	distractor1	EVAbeforeCON	acq_US_unple_masked	acq3_masked	3	17	453	0	300	300	0	0	666	46	0	1	0	0	0	1	blank2r.bmp	0	1	+	0	7	C3r.bmp	492	1	blank2r.bmp	786	1	DHJF	786	1	blank2r.bmp	866	2	versagen	866	1	!	1292	1	!	-1	0	0	0	0	0	0	0	0	0	0	0	0	0	0	0	0	0	0	0	0	0	0	0	0	0	0	0
032719	15:18:19	15:25:16	415967	5.0.10.0	4_exp_AMP_EVA_AWA_CON	180	Rpleas_acq	Same	Rpleas	Amasked	CS_A	1pleas	distractor1	EVAbeforeCON	acq_US_pleas_masked	acq3_masked	3	18	453	1	300	300	0	0	514	50	0	1	0	0	0	1	blank2r.bmp	0	1	+	0	2	B2r.bmp	492	1	blank2r.bmp	786	1	CPLW	786	1	blank2r.bmp	866	1	besonnen	866	1	!	1292	1	!	1412	0	0	0	0	0	0	0	0	0	0	0	0	0	0	0	0	0	0	0	0	0	0	0	0	0	0	0
032719	15:18:19	15:25:18	418206	5.0.10.0	4_exp_AMP_EVA_AWA_CON	180	Rpleas_acq	Same	Rpleas	Amasked	CS_A	1pleas	distractor1	EVAbeforeCON	acq_US_unple_masked	acq3_masked	3	19	453	1	300	300	0	0	443	46	0	1	0	0	0	1	blank2r.bmp	0	1	+	0	4	B4r.bmp	492	1	blank2r.bmp	786	1	DHJF	786	1	blank2r.bmp	866	3	krank	866	1	!	1292	1	!	1346	0	0	0	0	0	0	0	0	0	0	0	0	0	0	0	0	0	0	0	0	0	0	0	0	0	0	0
032719	15:18:19	15:25:20	420552	5.0.10.0	4_exp_AMP_EVA_AWA_CON	180	Rpleas_acq	Same	Rpleas	Amasked	CS_A	1pleas	distractor1	EVAbeforeCON	acq_US_pleas_masked	acq3_masked	3	20	453	0	300	300	0	0	584	50	0	1	0	0	0	1	blank2r.bmp	0	1	+	0	5	C1r.bmp	492	1	blank2r.bmp	786	1	CPLW	786	1	blank2r.bmp	866	2	vertrauen	866	1	!	1292	1	!	-1	0	0	0	0	0	0	0	0	0	0	0	0	0	0	0	0	0	0	0	0	0	0	0	0	0	0	0
032719	15:18:19	15:25:22	422964	5.0.10.0	4_exp_AMP_EVA_AWA_CON	180	Rpleas_acq	Same	Rpleas	Amasked	CS_A	1pleas	distractor1	EVAbeforeCON	acq_US_pleas_masked	acq3_masked	3	21	453	0	300	300	0	0	616	50	0	1	0	0	0	1	blank2r.bmp	0	1	+	0	8	C4r.bmp	492	1	blank2r.bmp	786	1	CPLW	786	1	blank2r.bmp	866	3	kreativ	866	1	!	1292	1	!	-1	0	0	0	0	0	0	0	0	0	0	0	0	0	0	0	0	0	0	0	0	0	0	0	0	0	0	0
032719	15:18:19	15:25:25	425177	5.0.10.0	4_exp_AMP_EVA_AWA_CON	180	Rpleas_acq	Same	Rpleas	Amasked	CS_A	1pleas	distractor1	EVAbeforeCON	acq_US_unple_masked	acq3_masked	3	22	453	1	300	300	0	0	401	46	0	1	0	0	0	1	blank2r.bmp	0	1	+	0	6	C2r.bmp	492	1	blank2r.bmp	786	1	DHJF	786	1	blank2r.bmp	866	1	bange	866	1	!	1292	1	!	1306	0	0	0	0	0	0	0	0	0	0	0	0	0	0	0	0	0	0	0	0	0	0	0	0	0	0	0
032719	15:18:19	15:25:27	427442	5.0.10.0	4_exp_AMP_EVA_AWA_CON	180	Rpleas_acq	Same	Rpleas	Amasked	CS_A	1pleas	distractor1	EVAbeforeCON	acq_US_unple_masked	acq3_masked	3	23	453	0	300	300	0	0	272	50	0	0	0	0	0	1	blank2r.bmp	0	1	+	0	3	B3r.bmp	492	1	blank2r.bmp	786	1	DHJF	786	1	blank2r.bmp	866	6	geizig	866	1	FEHLER	1479	1	!	-1	1	!	-1	0	0	0	0	0	0	0	0	0	0	0	0	0	0	0	0	0	0	0	0	0	0	0	0
032719	15:18:19	15:25:29	429562	5.0.10.0	4_exp_AMP_EVA_AWA_CON	180	Rpleas_acq	Same	Rpleas	Amasked	CS_A	1pleas	distractor1	EVAbeforeCON	acq_US_pleas_masked	acq3_masked	3	24	453	0	300	300	0	0	568	50	0	1	0	0	0	1	blank2r.bmp	0	1	+	0	1	B1r.bmp	492	1	blank2r.bmp	786	1	CPLW	786	1	blank2r.bmp	866	4	sonnig	866	1	!	1292	1	!	-1	0	0	0	0	0	0	0	0	0	0	0	0	0	0	0	0	0	0	0	0	0	0	0	0	0	0	0
032719	15:18:19	15:25:31	431627	5.0.10.0	4_exp_AMP_EVA_AWA_CON	180	Rpleas_acq	Same	Rpleas	Amasked	CS_A	1pleas	distractor1	EVAbeforeCON	acq_US_unple_masked	acq3_masked	3	25	453	0	300	300	0	0	283	46	0	1	0	0	0	1	blank2r.bmp	0	1	+	0	8	C4r.bmp	492	1	blank2r.bmp	786	1	DHJF	786	1	blank2r.bmp	866	5	töten	866	1	!	-1	1	!	-1	0	0	0	0	0	0	0	0	0	0	0	0	0	0	0	0	0	0	0	0	0	0	0	0	0	0	0
032719	15:18:19	15:25:34	433986	5.0.10.0	4_exp_AMP_EVA_AWA_CON	180	Rpleas_acq	Same	Rpleas	Amasked	CS_A	1pleas	distractor1	EVAbeforeCON	acq_US_unple_masked	acq3_masked	3	26	453	0	300	300	0	0	577	46	0	1	0	0	0	1	blank2r.bmp	0	1	+	0	2	B2r.bmp	492	1	blank2r.bmp	786	1	DHJF	786	1	blank2r.bmp	866	6	geizig	866	1	!	1292	1	!	-1	0	0	0	0	0	0	0	0	0	0	0	0	0	0	0	0	0	0	0	0	0	0	0	0	0	0	0
032719	15:18:19	15:25:36	436052	5.0.10.0	4_exp_AMP_EVA_AWA_CON	180	Rpleas_acq	Same	Rpleas	Amasked	CS_A	1pleas	distractor1	EVAbeforeCON	acq_US_pleas_masked	acq3_masked	3	27	453	0	300	300	0	0	287	50	0	1	0	0	0	1	blank2r.bmp	0	1	+	0	4	B4r.bmp	492	1	blank2r.bmp	786	1	CPLW	786	1	blank2r.bmp	866	1	besonnen	866	1	!	-1	1	!	-1	0	0	0	0	0	0	0	0	0	0	0	0	0	0	0	0	0	0	0	0	0	0	0	0	0	0	0
032719	15:18:19	15:25:38	438278	5.0.10.0	4_exp_AMP_EVA_AWA_CON	180	Rpleas_acq	Same	Rpleas	Amasked	CS_A	1pleas	distractor1	EVAbeforeCON	acq_US_unple_masked	acq3_masked	3	28	453	1	300	300	0	0	420	46	0	1	0	0	0	1	blank2r.bmp	0	1	+	0	5	C1r.bmp	492	1	blank2r.bmp	786	1	DHJF	786	1	blank2r.bmp	866	3	krank	866	1	!	1292	1	!	1319	0	0	0	0	0	0	0	0	0	0	0	0	0	0	0	0	0	0	0	0	0	0	0	0	0	0	0
032719	15:18:19	15:25:41	441796	5.0.10.0	4_exp_AMP_EVA_AWA_CON	180	Rpleas_acq	Same	Rpleas	Amasked	CS_A	1pleas	distractor1	EVAbeforeCON	acq_US_pleas_masked	acq3_masked	3	29	453	0	300	300	0	0	1757	50	0	1	0	0	0	1	blank2r.bmp	0	1	+	0	3	B3r.bmp	492	1	blank2r.bmp	786	1	CPLW	786	1	blank2r.bmp	866	3	kreativ	866	1	!	1292	1	!	-1	0	0	0	0	0	0	0	0	0	0	0	0	0	0	0	0	0	0	0	0	0	0	0	0	0	0	0
032719	15:18:19	15:25:44	444076	5.0.10.0	4_exp_AMP_EVA_AWA_CON	180	Rpleas_acq	Same	Rpleas	Amasked	CS_A	1pleas	distractor1	EVAbeforeCON	acq_US_pleas_masked	acq3_masked	3	30	453	1	300	300	0	0	473	50	0	1	0	0	0	1	blank2r.bmp	0	1	+	0	7	C3r.bmp	492	1	blank2r.bmp	786	1	CPLW	786	1	blank2r.bmp	866	5	träumen	866	1	!	1292	1	!	1372	0	0	0	0	0	0	0	0	0	0	0	0	0	0	0	0	0	0	0	0	0	0	0	0	0	0	0
032719	15:18:19	15:25:46	446395	5.0.10.0	4_exp_AMP_EVA_AWA_CON	180	Rpleas_acq	Same	Rpleas	Amasked	CS_A	1pleas	distractor1	EVAbeforeCON	acq_US_pleas_masked	acq3_masked	3	31	453	0	300	300	0	0	540	50	0	1	0	0	0	1	blank2r.bmp	0	1	+	0	6	C2r.bmp	492	1	blank2r.bmp	786	1	CPLW	786	1	blank2r.bmp	866	4	sonnig	866	1	!	1292	1	!	-1	0	0	0	0	0	0	0	0	0	0	0	0	0	0	0	0	0	0	0	0	0	0	0	0	0	0	0
032719	15:18:19	15:25:48	448767	5.0.10.0	4_exp_AMP_EVA_AWA_CON	180	Rpleas_acq	Same	Rpleas	Amasked	CS_A	1pleas	distractor1	EVAbeforeCON	acq_US_unple_masked	acq3_masked	3	32	453	0	300	300	0	0	591	46	0	1	0	0	0	1	blank2r.bmp	0	1	+	0	1	B1r.bmp	492	1	blank2r.bmp	786	1	DHJF	786	1	blank2r.bmp	866	4	sterben	866	1	!	1292	1	!	-1	0	0	0	0	0	0	0	0	0	0	0	0	0	0	0	0	0	0	0	0	0	0	0	0	0	0	0
032719	15:18:19	15:25:51	450979	5.0.10.0	4_exp_AMP_EVA_AWA_CON	180	Rpleas_acq	Same	Rpleas	Amasked	CS_A	1pleas	distractor1	EVAbeforeCON	acq_US_pleas_masked	acq3_masked	3	33	453	1	300	300	0	0	400	50	0	1	0	0	0	1	blank2r.bmp	0	1	+	0	6	C2r.bmp	492	1	blank2r.bmp	786	1	CPLW	786	1	blank2r.bmp	866	6	gesittet	866	1	!	1292	1	!	1306	0	0	0	0	0	0	0	0	0	0	0	0	0	0	0	0	0	0	0	0	0	0	0	0	0	0	0
032719	15:18:19	15:25:53	453298	5.0.10.0	4_exp_AMP_EVA_AWA_CON	180	Rpleas_acq	Same	Rpleas	Amasked	CS_A	1pleas	distractor1	EVAbeforeCON	acq_US_unple_masked	acq3_masked	3	34	453	0	300	300	0	0	326	50	0	0	0	0	0	1	blank2r.bmp	0	1	+	0	8	C4r.bmp	492	1	blank2r.bmp	786	1	DHJF	786	1	blank2r.bmp	866	2	versagen	866	1	FEHLER	1532	1	!	-1	1	!	-1	0	0	0	0	0	0	0	0	0	0	0	0	0	0	0	0	0	0	0	0	0	0	0	0
032719	15:18:19	15:25:55	455471	5.0.10.0	4_exp_AMP_EVA_AWA_CON	180	Rpleas_acq	Same	Rpleas	Amasked	CS_A	1pleas	distractor1	EVAbeforeCON	acq_US_unple_masked	acq3_masked	3	35	453	0	300	300	0	0	622	46	0	1	0	0	0	1	blank2r.bmp	0	1	+	0	4	B4r.bmp	492	1	blank2r.bmp	786	1	DHJF	786	1	blank2r.bmp	866	1	bange	866	1	!	1292	1	!	-1	0	0	0	0	0	0	0	0	0	0	0	0	0	0	0	0	0	0	0	0	0	0	0	0	0	0	0
032719	15:18:19	15:25:57	457830	5.0.10.0	4_exp_AMP_EVA_AWA_CON	180	Rpleas_acq	Same	Rpleas	Amasked	CS_A	1pleas	distractor1	EVAbeforeCON	acq_US_pleas_masked	acq3_masked	3	36	453	0	300	300	0	0	572	50	0	1	0	0	0	1	blank2r.bmp	0	1	+	0	5	C1r.bmp	492	1	blank2r.bmp	786	1	CPLW	786	1	blank2r.bmp	866	2	vertrauen	866	1	!	1292	1	!	-1	0	0	0	0	0	0	0	0	0	0	0	0	0	0	0	0	0	0	0	0	0	0	0	0	0	0	0
032719	15:18:19	15:26:20	480794	5.0.10.0	4_exp_AMP_EVA_AWA_CON	180	Rpleas_acq	Same	Rpleas	Amasked	CS_A	1pleas	distractor1	EVAbeforeCON	acq_US_pleas_masked	acq45_masked	4	1	400	1	300	300	0	0	390	50	0	1	0	0	0	1	blank2r.bmp	0	1	+	0	2	B2r.bmp	492	1	blank2r.bmp	786	1	CPLW	786	1	blank2r.bmp	866	5	träumen	866	1	!	1239	1	!	1292	0	0	0	0	0	0	0	0	0	0	0	0	0	0	0	0	0	0	0	0	0	0	0	0	0	0	0
032719	15:18:19	15:26:23	482993	5.0.10.0	4_exp_AMP_EVA_AWA_CON	180	Rpleas_acq	Same	Rpleas	Amasked	CS_A	1pleas	distractor1	EVAbeforeCON	acq_US_unple_masked	acq45_masked	4	2	400	1	300	300	0	0	411	46	0	1	0	0	0	1	blank2r.bmp	0	1	+	0	3	B3r.bmp	492	1	blank2r.bmp	786	1	DHJF	786	1	blank2r.bmp	866	3	krank	866	1	!	1239	1	!	1306	0	0	0	0	0	0	0	0	0	0	0	0	0	0	0	0	0	0	0	0	0	0	0	0	0	0	0
032719	15:18:19	15:26:25	485245	5.0.10.0	4_exp_AMP_EVA_AWA_CON	180	Rpleas_acq	Same	Rpleas	Amasked	CS_A	1pleas	distractor1	EVAbeforeCON	acq_US_pleas_masked	acq45_masked	4	3	400	0	300	300	0	0	485	50	0	1	0	0	0	1	blank2r.bmp	0	1	+	0	7	C3r.bmp	492	1	blank2r.bmp	786	1	CPLW	786	1	blank2r.bmp	866	1	besonnen	866	1	!	1239	1	!	-1	0	0	0	0	0	0	0	0	0	0	0	0	0	0	0	0	0	0	0	0	0	0	0	0	0	0	0
032719	15:18:19	15:26:27	487511	5.0.10.0	4_exp_AMP_EVA_AWA_CON	180	Rpleas_acq	Same	Rpleas	Amasked	CS_A	1pleas	distractor1	EVAbeforeCON	acq_US_pleas_masked	acq45_masked	4	4	400	1	300	300	0	0	441	46	0	0	0	0	0	1	blank2r.bmp	0	1	+	0	1	B1r.bmp	492	1	blank2r.bmp	786	1	CPLW	786	1	blank2r.bmp	866	2	vertrauen	866	1	!	1239	1	!	1346	0	0	0	0	0	0	0	0	0	0	0	0	0	0	0	0	0	0	0	0	0	0	0	0	0	0	0
032719	15:18:19	15:26:29	489697	5.0.10.0	4_exp_AMP_EVA_AWA_CON	180	Rpleas_acq	Same	Rpleas	Amasked	CS_A	1pleas	distractor1	EVAbeforeCON	acq_US_unple_masked	acq45_masked	4	5	400	1	300	300	0	0	393	46	0	1	0	0	0	1	blank2r.bmp	0	1	+	0	3	B3r.bmp	492	1	blank2r.bmp	786	1	DHJF	786	1	blank2r.bmp	866	5	töten	866	1	!	1239	1	!	1292	0	0	0	0	0	0	0	0	0	0	0	0	0	0	0	0	0	0	0	0	0	0	0	0	0	0	0
032719	15:18:19	15:26:31	491883	5.0.10.0	4_exp_AMP_EVA_AWA_CON	180	Rpleas_acq	Same	Rpleas	Amasked	CS_A	1pleas	distractor1	EVAbeforeCON	acq_US_pleas_masked	acq45_masked	4	6	400	1	300	300	0	0	398	46	0	0	0	0	0	1	blank2r.bmp	0	1	+	0	4	B4r.bmp	492	1	blank2r.bmp	786	1	CPLW	786	1	blank2r.bmp	866	6	gesittet	866	1	!	1239	1	!	1292	0	0	0	0	0	0	0	0	0	0	0	0	0	0	0	0	0	0	0	0	0	0	0	0	0	0	0
032719	15:18:19	15:26:34	494162	5.0.10.0	4_exp_AMP_EVA_AWA_CON	180	Rpleas_acq	Same	Rpleas	Amasked	CS_A	1pleas	distractor1	EVAbeforeCON	acq_US_pleas_masked	acq45_masked	4	7	400	0	300	300	0	0	505	50	0	1	0	0	0	1	blank2r.bmp	0	1	+	0	2	B2r.bmp	492	1	blank2r.bmp	786	1	CPLW	786	1	blank2r.bmp	866	4	sonnig	866	1	!	1239	1	!	-1	0	0	0	0	0	0	0	0	0	0	0	0	0	0	0	0	0	0	0	0	0	0	0	0	0	0	0
032719	15:18:19	15:26:36	496334	5.0.10.0	4_exp_AMP_EVA_AWA_CON	180	Rpleas_acq	Same	Rpleas	Amasked	CS_A	1pleas	distractor1	EVAbeforeCON	acq_US_pleas_masked	acq45_masked	4	8	400	1	300	300	0	0	376	46	0	0	0	0	0	1	blank2r.bmp	0	1	+	0	8	C4r.bmp	492	1	blank2r.bmp	786	1	CPLW	786	1	blank2r.bmp	866	3	kreativ	866	1	!	1239	1	!	1279	0	0	0	0	0	0	0	0	0	0	0	0	0	0	0	0	0	0	0	0	0	0	0	0	0	0	0
032719	15:18:19	15:26:38	498600	5.0.10.0	4_exp_AMP_EVA_AWA_CON	180	Rpleas_acq	Same	Rpleas	Amasked	CS_A	1pleas	distractor1	EVAbeforeCON	acq_US_unple_masked	acq45_masked	4	9	400	0	300	300	0	0	489	46	0	1	0	0	0	1	blank2r.bmp	0	1	+	0	1	B1r.bmp	492	1	blank2r.bmp	786	1	DHJF	786	1	blank2r.bmp	866	1	bange	866	1	!	1239	1	!	-1	0	0	0	0	0	0	0	0	0	0	0	0	0	0	0	0	0	0	0	0	0	0	0	0	0	0	0
032719	15:18:19	15:26:40	500719	5.0.10.0	4_exp_AMP_EVA_AWA_CON	180	Rpleas_acq	Same	Rpleas	Amasked	CS_A	1pleas	distractor1	EVAbeforeCON	acq_US_unple_masked	acq45_masked	4	10	400	0	300	300	0	0	320	50	0	0	0	0	0	1	blank2r.bmp	0	1	+	0	5	C1r.bmp	492	1	blank2r.bmp	786	1	DHJF	786	1	blank2r.bmp	866	6	geizig	866	1	!	-1	1	!	-1	0	0	0	0	0	0	0	0	0	0	0	0	0	0	0	0	0	0	0	0	0	0	0	0	0	0	0
032719	15:18:19	15:26:43	502971	5.0.10.0	4_exp_AMP_EVA_AWA_CON	180	Rpleas_acq	Same	Rpleas	Amasked	CS_A	1pleas	distractor1	EVAbeforeCON	acq_US_unple_masked	acq45_masked	4	11	400	1	300	300	0	0	428	46	0	1	0	0	0	1	blank2r.bmp	0	1	+	0	7	C3r.bmp	492	1	blank2r.bmp	786	1	DHJF	786	1	blank2r.bmp	866	2	versagen	866	1	!	1239	1	!	1332	0	0	0	0	0	0	0	0	0	0	0	0	0	0	0	0	0	0	0	0	0	0	0	0	0	0	0
032719	15:18:19	15:26:45	505184	5.0.10.0	4_exp_AMP_EVA_AWA_CON	180	Rpleas_acq	Same	Rpleas	Amasked	CS_A	1pleas	distractor1	EVAbeforeCON	acq_US_pleas_masked	acq45_masked	4	12	400	1	300	300	0	0	416	50	0	1	0	0	0	1	blank2r.bmp	0	1	+	0	6	C2r.bmp	492	1	blank2r.bmp	786	1	CPLW	786	1	blank2r.bmp	866	3	kreativ	866	1	!	1239	1	!	1319	0	0	0	0	0	0	0	0	0	0	0	0	0	0	0	0	0	0	0	0	0	0	0	0	0	0	0
032719	15:18:19	15:26:47	507383	5.0.10.0	4_exp_AMP_EVA_AWA_CON	180	Rpleas_acq	Same	Rpleas	Amasked	CS_A	1pleas	distractor1	EVAbeforeCON	acq_US_unple_masked	acq45_masked	4	13	400	1	300	300	0	0	402	46	0	1	0	0	0	1	blank2r.bmp	0	1	+	0	2	B2r.bmp	492	1	blank2r.bmp	786	1	DHJF	786	1	blank2r.bmp	866	4	sterben	866	1	!	1239	1	!	1306	0	0	0	0	0	0	0	0	0	0	0	0	0	0	0	0	0	0	0	0	0	0	0	0	0	0	0
032719	15:18:19	15:26:49	509635	5.0.10.0	4_exp_AMP_EVA_AWA_CON	180	Rpleas_acq	Same	Rpleas	Amasked	CS_A	1pleas	distractor1	EVAbeforeCON	acq_US_pleas_masked	acq45_masked	4	14	400	0	300	300	0	0	479	50	0	1	0	0	0	1	blank2r.bmp	0	1	+	0	1	B1r.bmp	492	1	blank2r.bmp	786	1	CPLW	786	1	blank2r.bmp	866	2	vertrauen	866	1	!	1239	1	!	-1	0	0	0	0	0	0	0	0	0	0	0	0	0	0	0	0	0	0	0	0	0	0	0	0	0	0	0
032719	15:18:19	15:26:51	511821	5.0.10.0	4_exp_AMP_EVA_AWA_CON	180	Rpleas_acq	Same	Rpleas	Amasked	CS_A	1pleas	distractor1	EVAbeforeCON	acq_US_pleas_masked	acq45_masked	4	15	400	1	300	300	0	0	373	50	0	1	0	0	0	1	blank2r.bmp	0	1	+	0	3	B3r.bmp	492	1	blank2r.bmp	786	1	CPLW	786	1	blank2r.bmp	866	4	sonnig	866	1	!	1239	1	!	1279	0	0	0	0	0	0	0	0	0	0	0	0	0	0	0	0	0	0	0	0	0	0	0	0	0	0	0
032719	15:18:19	15:26:54	514033	5.0.10.0	4_exp_AMP_EVA_AWA_CON	180	Rpleas_acq	Same	Rpleas	Amasked	CS_A	1pleas	distractor1	EVAbeforeCON	acq_US_unple_masked	acq45_masked	4	16	400	1	300	300	0	0	424	46	0	1	0	0	0	1	blank2r.bmp	0	1	+	0	4	B4r.bmp	492	1	blank2r.bmp	786	1	DHJF	786	1	blank2r.bmp	866	4	sterben	866	1	!	1239	1	!	1319	0	0	0	0	0	0	0	0	0	0	0	0	0	0	0	0	0	0	0	0	0	0	0	0	0	0	0
032719	15:18:19	15:26:56	516206	5.0.10.0	4_exp_AMP_EVA_AWA_CON	180	Rpleas_acq	Same	Rpleas	Amasked	CS_A	1pleas	distractor1	EVAbeforeCON	acq_US_unple_masked	acq45_masked	4	17	400	1	300	300	0	0	374	50	0	0	0	0	0	1	blank2r.bmp	0	1	+	0	8	C4r.bmp	492	1	blank2r.bmp	786	1	DHJF	786	1	blank2r.bmp	866	2	versagen	866	1	!	1239	1	!	1279	0	0	0	0	0	0	0	0	0	0	0	0	0	0	0	0	0	0	0	0	0	0	0	0	0	0	0
032719	15:18:19	15:26:58	518458	5.0.10.0	4_exp_AMP_EVA_AWA_CON	180	Rpleas_acq	Same	Rpleas	Amasked	CS_A	1pleas	distractor1	EVAbeforeCON	acq_US_unple_masked	acq45_masked	4	18	400	1	300	300	0	0	453	46	0	1	0	0	0	1	blank2r.bmp	0	1	+	0	7	C3r.bmp	492	1	blank2r.bmp	786	1	DHJF	786	1	blank2r.bmp	866	3	krank	866	1	!	1239	1	!	1359	0	0	0	0	0	0	0	0	0	0	0	0	0	0	0	0	0	0	0	0	0	0	0	0	0	0	0
032719	15:18:19	15:27:00	520644	5.0.10.0	4_exp_AMP_EVA_AWA_CON	180	Rpleas_acq	Same	Rpleas	Amasked	CS_A	1pleas	distractor1	EVAbeforeCON	acq_US_unple_masked	acq45_masked	4	19	400	1	300	300	0	0	390	50	0	0	0	0	0	1	blank2r.bmp	0	1	+	0	5	C1r.bmp	492	1	blank2r.bmp	786	1	DHJF	786	1	blank2r.bmp	866	5	töten	866	1	!	1239	1	!	1292	0	0	0	0	0	0	0	0	0	0	0	0	0	0	0	0	0	0	0	0	0	0	0	0	0	0	0
032719	15:18:19	15:27:03	523470	5.0.10.0	4_exp_AMP_EVA_AWA_CON	180	Rpleas_acq	Same	Rpleas	Amasked	CS_A	1pleas	distractor1	EVAbeforeCON	acq_US_pleas_masked	acq45_masked	4	20	400	0	300	300	0	0	1060	50	0	1	0	0	0	1	blank2r.bmp	0	1	+	0	6	C2r.bmp	492	1	blank2r.bmp	786	1	CPLW	786	1	blank2r.bmp	866	5	träumen	866	1	!	1239	1	!	-1	0	0	0	0	0	0	0	0	0	0	0	0	0	0	0	0	0	0	0	0	0	0	0	0	0	0	0
032719	15:18:19	15:27:05	525642	5.0.10.0	4_exp_AMP_EVA_AWA_CON	180	Rpleas_acq	Same	Rpleas	Amasked	CS_A	1pleas	distractor1	EVAbeforeCON	acq_US_pleas_masked	acq45_masked	4	21	400	1	300	300	0	0	359	50	0	1	0	0	0	1	blank2r.bmp	0	1	+	0	7	C3r.bmp	492	1	blank2r.bmp	786	1	CPLW	786	1	blank2r.bmp	866	1	besonnen	866	1	!	1239	1	!	1266	0	0	0	0	0	0	0	0	0	0	0	0	0	0	0	0	0	0	0	0	0	0	0	0	0	0	0
032719	15:18:19	15:27:07	527894	5.0.10.0	4_exp_AMP_EVA_AWA_CON	180	Rpleas_acq	Same	Rpleas	Amasked	CS_A	1pleas	distractor1	EVAbeforeCON	acq_US_pleas_masked	acq45_masked	4	22	400	0	300	300	0	0	485	46	0	0	0	0	0	1	blank2r.bmp	0	1	+	0	4	B4r.bmp	492	1	blank2r.bmp	786	1	CPLW	786	1	blank2r.bmp	866	6	gesittet	866	1	!	1239	1	!	-1	0	0	0	0	0	0	0	0	0	0	0	0	0	0	0	0	0	0	0	0	0	0	0	0	0	0	0
032719	15:18:19	15:27:10	530173	5.0.10.0	4_exp_AMP_EVA_AWA_CON	180	Rpleas_acq	Same	Rpleas	Amasked	CS_A	1pleas	distractor1	EVAbeforeCON	acq_US_unple_masked	acq45_masked	4	23	400	0	300	300	0	0	485	46	0	1	0	0	0	1	blank2r.bmp	0	1	+	0	5	C1r.bmp	492	1	blank2r.bmp	786	1	DHJF	786	1	blank2r.bmp	866	6	geizig	866	1	!	1239	1	!	-1	0	0	0	0	0	0	0	0	0	0	0	0	0	0	0	0	0	0	0	0	0	0	0	0	0	0	0
032719	15:18:19	15:27:12	532573	5.0.10.0	4_exp_AMP_EVA_AWA_CON	180	Rpleas_acq	Same	Rpleas	Amasked	CS_A	1pleas	distractor1	EVAbeforeCON	acq_US_unple_masked	acq45_masked	4	24	400	0	300	300	0	0	608	46	0	1	0	0	0	1	blank2r.bmp	0	1	+	0	2	B2r.bmp	492	1	blank2r.bmp	786	1	DHJF	786	1	blank2r.bmp	866	1	bange	866	1	!	1239	1	!	-1	0	0	0	0	0	0	0	0	0	0	0	0	0	0	0	0	0	0	0	0	0	0	0	0	0	0	0
032719	15:18:19	15:27:14	534758	5.0.10.0	4_exp_AMP_EVA_AWA_CON	180	Rpleas_acq	Same	Rpleas	Amasked	CS_A	1pleas	distractor1	EVAbeforeCON	acq_US_pleas_masked	acq45_masked	4	25	400	1	300	300	0	0	374	50	0	1	0	0	0	1	blank2r.bmp	0	1	+	0	3	B3r.bmp	492	1	blank2r.bmp	786	1	CPLW	786	1	blank2r.bmp	866	3	kreativ	866	1	!	1239	1	!	1279	0	0	0	0	0	0	0	0	0	0	0	0	0	0	0	0	0	0	0	0	0	0	0	0	0	0	0
032719	15:18:19	15:27:17	537077	5.0.10.0	4_exp_AMP_EVA_AWA_CON	180	Rpleas_acq	Same	Rpleas	Amasked	CS_A	1pleas	distractor1	EVAbeforeCON	acq_US_unple_masked	acq45_masked	4	26	400	0	300	300	0	0	533	46	0	1	0	0	0	1	blank2r.bmp	0	1	+	0	6	C2r.bmp	492	1	blank2r.bmp	786	1	DHJF	786	1	blank2r.bmp	866	2	versagen	866	1	!	1239	1	!	-1	0	0	0	0	0	0	0	0	0	0	0	0	0	0	0	0	0	0	0	0	0	0	0	0	0	0	0
032719	15:18:19	15:27:19	539236	5.0.10.0	4_exp_AMP_EVA_AWA_CON	180	Rpleas_acq	Same	Rpleas	Amasked	CS_A	1pleas	distractor1	EVAbeforeCON	acq_US_unple_masked	acq45_masked	4	27	400	1	300	300	0	0	356	46	0	1	0	0	0	1	blank2r.bmp	0	1	+	0	1	B1r.bmp	492	1	blank2r.bmp	786	1	DHJF	786	1	blank2r.bmp	866	4	sterben	866	1	!	1239	1	!	1252	0	0	0	0	0	0	0	0	0	0	0	0	0	0	0	0	0	0	0	0	0	0	0	0	0	0	0
032719	15:18:19	15:27:21	541489	5.0.10.0	4_exp_AMP_EVA_AWA_CON	180	Rpleas_acq	Same	Rpleas	Amasked	CS_A	1pleas	distractor1	EVAbeforeCON	acq_US_pleas_masked	acq45_masked	4	28	400	0	300	300	0	0	479	50	0	1	0	0	0	1	blank2r.bmp	0	1	+	0	8	C4r.bmp	492	1	blank2r.bmp	786	1	CPLW	786	1	blank2r.bmp	866	4	sonnig	866	1	!	1239	1	!	-1	0	0	0	0	0	0	0	0	0	0	0	0	0	0	0	0	0	0	0	0	0	0	0	0	0	0	0
032719	15:18:19	15:27:23	543568	5.0.10.0	4_exp_AMP_EVA_AWA_CON	180	Rpleas_acq	Same	Rpleas	Amasked	CS_A	1pleas	distractor1	EVAbeforeCON	acq_US_unple_masked	acq45_masked	4	29	400	0	300	300	0	0	295	46	0	1	0	0	0	1	blank2r.bmp	0	1	+	0	7	C3r.bmp	492	1	blank2r.bmp	786	1	DHJF	786	1	blank2r.bmp	866	3	krank	866	1	!	-1	1	!	-1	0	0	0	0	0	0	0	0	0	0	0	0	0	0	0	0	0	0	0	0	0	0	0	0	0	0	0
032719	15:18:19	15:27:25	545834	5.0.10.0	4_exp_AMP_EVA_AWA_CON	180	Rpleas_acq	Same	Rpleas	Amasked	CS_A	1pleas	distractor1	EVAbeforeCON	acq_US_pleas_masked	acq45_masked	4	30	400	1	300	300	0	0	464	50	0	1	0	0	0	1	blank2r.bmp	0	1	+	0	1	B1r.bmp	492	1	blank2r.bmp	786	1	CPLW	786	1	blank2r.bmp	866	5	träumen	866	1	!	1239	1	!	1359	0	0	0	0	0	0	0	0	0	0	0	0	0	0	0	0	0	0	0	0	0	0	0	0	0	0	0
032719	15:18:19	15:27:28	548099	5.0.10.0	4_exp_AMP_EVA_AWA_CON	180	Rpleas_acq	Same	Rpleas	Amasked	CS_A	1pleas	distractor1	EVAbeforeCON	acq_US_unple_masked	acq45_masked	4	31	400	1	300	300	0	0	465	46	0	1	0	0	0	1	blank2r.bmp	0	1	+	0	5	C1r.bmp	492	1	blank2r.bmp	786	1	DHJF	786	1	blank2r.bmp	866	1	bange	866	1	!	1239	1	!	1359	0	0	0	0	0	0	0	0	0	0	0	0	0	0	0	0	0	0	0	0	0	0	0	0	0	0	0
032719	15:18:19	15:27:30	550392	5.0.10.0	4_exp_AMP_EVA_AWA_CON	180	Rpleas_acq	Same	Rpleas	Amasked	CS_A	1pleas	distractor1	EVAbeforeCON	acq_US_unple_masked	acq45_masked	4	32	400	0	300	300	0	0	528	46	0	1	0	0	0	1	blank2r.bmp	0	1	+	0	2	B2r.bmp	492	1	blank2r.bmp	786	1	DHJF	786	1	blank2r.bmp	866	6	geizig	866	1	!	1239	1	!	-1	0	0	0	0	0	0	0	0	0	0	0	0	0	0	0	0	0	0	0	0	0	0	0	0	0	0	0
032719	15:18:19	15:27:32	552551	5.0.10.0	4_exp_AMP_EVA_AWA_CON	180	Rpleas_acq	Same	Rpleas	Amasked	CS_A	1pleas	distractor1	EVAbeforeCON	acq_US_pleas_masked	acq45_masked	4	33	400	1	300	300	0	0	354	50	0	1	0	0	0	1	blank2r.bmp	0	1	+	0	8	C4r.bmp	492	1	blank2r.bmp	786	1	CPLW	786	1	blank2r.bmp	866	2	vertrauen	866	1	!	1239	1	!	1252	0	0	0	0	0	0	0	0	0	0	0	0	0	0	0	0	0	0	0	0	0	0	0	0	0	0	0
032719	15:18:19	15:27:34	554723	5.0.10.0	4_exp_AMP_EVA_AWA_CON	180	Rpleas_acq	Same	Rpleas	Amasked	CS_A	1pleas	distractor1	EVAbeforeCON	acq_US_unple_masked	acq45_masked	4	34	400	1	300	300	0	0	381	46	0	1	0	0	0	1	blank2r.bmp	0	1	+	0	4	B4r.bmp	492	1	blank2r.bmp	786	1	DHJF	786	1	blank2r.bmp	866	5	töten	866	1	!	1239	1	!	1279	0	0	0	0	0	0	0	0	0	0	0	0	0	0	0	0	0	0	0	0	0	0	0	0	0	0	0
032719	15:18:19	15:27:36	556962	5.0.10.0	4_exp_AMP_EVA_AWA_CON	180	Rpleas_acq	Same	Rpleas	Amasked	CS_A	1pleas	distractor1	EVAbeforeCON	acq_US_pleas_masked	acq45_masked	4	35	400	1	300	300	0	0	447	46	0	0	0	0	0	1	blank2r.bmp	0	1	+	0	6	C2r.bmp	492	1	blank2r.bmp	786	1	CPLW	786	1	blank2r.bmp	866	6	gesittet	866	1	!	1239	1	!	1346	0	0	0	0	0	0	0	0	0	0	0	0	0	0	0	0	0	0	0	0	0	0	0	0	0	0	0
032719	15:18:19	15:27:39	559215	5.0.10.0	4_exp_AMP_EVA_AWA_CON	180	Rpleas_acq	Same	Rpleas	Amasked	CS_A	1pleas	distractor1	EVAbeforeCON	acq_US_pleas_masked	acq45_masked	4	36	400	0	300	300	0	0	479	50	0	1	0	0	0	1	blank2r.bmp	0	1	+	0	3	B3r.bmp	492	1	blank2r.bmp	786	1	CPLW	786	1	blank2r.bmp	866	1	besonnen	866	1	!	1239	1	!	-1	0	0	0	0	0	0	0	0	0	0	0	0	0	0	0	0	0	0	0	0	0	0	0	0	0	0	0
032719	15:18:19	15:27:52	572836	5.0.10.0	4_exp_AMP_EVA_AWA_CON	180	Rpleas_acq	Same	Rpleas	Amasked	CS_A	1pleas	distractor1	EVAbeforeCON	acq_US_pleas_masked	acq45_masked	5	1	400	1	300	300	0	0	417	50	0	1	0	0	0	1	blank2r.bmp	0	1	+	0	4	B4r.bmp	492	1	blank2r.bmp	786	1	CPLW	786	1	blank2r.bmp	866	3	kreativ	866	1	!	1239	1	!	1319	0	0	0	0	0	0	0	0	0	0	0	0	0	0	0	0	0	0	0	0	0	0	0	0	0	0	0
032719	15:18:19	15:27:55	575128	5.0.10.0	4_exp_AMP_EVA_AWA_CON	180	Rpleas_acq	Same	Rpleas	Amasked	CS_A	1pleas	distractor1	EVAbeforeCON	acq_US_unple_masked	acq45_masked	5	2	400	0	300	300	0	0	511	46	0	1	0	0	0	1	blank2r.bmp	0	1	+	0	5	C1r.bmp	492	1	blank2r.bmp	786	1	DHJF	786	1	blank2r.bmp	866	4	sterben	866	1	!	1239	1	!	-1	0	0	0	0	0	0	0	0	0	0	0	0	0	0	0	0	0	0	0	0	0	0	0	0	0	0	0
032719	15:18:19	15:27:57	577394	5.0.10.0	4_exp_AMP_EVA_AWA_CON	180	Rpleas_acq	Same	Rpleas	Amasked	CS_A	1pleas	distractor1	EVAbeforeCON	acq_US_unple_masked	acq45_masked	5	3	400	0	300	300	0	0	479	50	0	0	0	0	0	1	blank2r.bmp	0	1	+	0	7	C3r.bmp	492	1	blank2r.bmp	786	1	DHJF	786	1	blank2r.bmp	866	3	krank	866	1	!	1239	1	!	-1	0	0	0	0	0	0	0	0	0	0	0	0	0	0	0	0	0	0	0	0	0	0	0	0	0	0	0
032719	15:18:19	15:27:59	579580	5.0.10.0	4_exp_AMP_EVA_AWA_CON	180	Rpleas_acq	Same	Rpleas	Amasked	CS_A	1pleas	distractor1	EVAbeforeCON	acq_US_pleas_masked	acq45_masked	5	4	400	1	300	300	0	0	368	50	0	1	0	0	0	1	blank2r.bmp	0	1	+	0	3	B3r.bmp	492	1	blank2r.bmp	786	1	CPLW	786	1	blank2r.bmp	866	1	besonnen	866	1	!	1239	1	!	1266	0	0	0	0	0	0	0	0	0	0	0	0	0	0	0	0	0	0	0	0	0	0	0	0	0	0	0
032719	15:18:19	15:28:01	581726	5.0.10.0	4_exp_AMP_EVA_AWA_CON	180	Rpleas_acq	Same	Rpleas	Amasked	CS_A	1pleas	distractor1	EVAbeforeCON	acq_US_pleas_masked	acq45_masked	5	5	400	1	300	300	0	0	356	46	0	0	0	0	0	1	blank2r.bmp	0	1	+	0	6	C2r.bmp	492	1	blank2r.bmp	786	1	CPLW	786	1	blank2r.bmp	866	4	sonnig	866	1	!	1239	1	!	1252	0	0	0	0	0	0	0	0	0	0	0	0	0	0	0	0	0	0	0	0	0	0	0	0	0	0	0
032719	15:18:19	15:28:04	584045	5.0.10.0	4_exp_AMP_EVA_AWA_CON	180	Rpleas_acq	Same	Rpleas	Amasked	CS_A	1pleas	distractor1	EVAbeforeCON	acq_US_unple_masked	acq45_masked	5	6	400	0	300	300	0	0	548	46	0	1	0	0	0	1	blank2r.bmp	0	1	+	0	2	B2r.bmp	492	1	blank2r.bmp	786	1	DHJF	786	1	blank2r.bmp	866	1	bange	866	1	!	1239	1	!	-1	0	0	0	0	0	0	0	0	0	0	0	0	0	0	0	0	0	0	0	0	0	0	0	0	0	0	0
032719	15:18:19	15:28:06	586204	5.0.10.0	4_exp_AMP_EVA_AWA_CON	180	Rpleas_acq	Same	Rpleas	Amasked	CS_A	1pleas	distractor1	EVAbeforeCON	acq_US_pleas_masked	acq45_masked	5	7	400	1	300	300	0	0	346	50	0	1	0	0	0	1	blank2r.bmp	0	1	+	0	8	C4r.bmp	492	1	blank2r.bmp	786	1	CPLW	786	1	blank2r.bmp	866	5	träumen	866	1	!	1239	1	!	1252	0	0	0	0	0	0	0	0	0	0	0	0	0	0	0	0	0	0	0	0	0	0	0	0	0	0	0
032719	15:18:19	15:28:08	588416	5.0.10.0	4_exp_AMP_EVA_AWA_CON	180	Rpleas_acq	Same	Rpleas	Amasked	CS_A	1pleas	distractor1	EVAbeforeCON	acq_US_unple_masked	acq45_masked	5	8	400	1	300	300	0	0	416	46	0	1	0	0	0	1	blank2r.bmp	0	1	+	0	1	B1r.bmp	492	1	blank2r.bmp	786	1	DHJF	786	1	blank2r.bmp	866	6	geizig	866	1	!	1239	1	!	1319	0	0	0	0	0	0	0	0	0	0	0	0	0	0	0	0	0	0	0	0	0	0	0	0	0	0	0
032719	15:18:19	15:28:10	590669	5.0.10.0	4_exp_AMP_EVA_AWA_CON	180	Rpleas_acq	Same	Rpleas	Amasked	CS_A	1pleas	distractor1	EVAbeforeCON	acq_US_pleas_masked	acq45_masked	5	9	400	0	300	300	0	0	486	50	0	1	0	0	0	1	blank2r.bmp	0	1	+	0	6	C2r.bmp	492	1	blank2r.bmp	786	1	CPLW	786	1	blank2r.bmp	866	2	vertrauen	866	1	!	1239	1	!	-1	0	0	0	0	0	0	0	0	0	0	0	0	0	0	0	0	0	0	0	0	0	0	0	0	0	0	0
032719	15:18:19	15:28:12	592868	5.0.10.0	4_exp_AMP_EVA_AWA_CON	180	Rpleas_acq	Same	Rpleas	Amasked	CS_A	1pleas	distractor1	EVAbeforeCON	acq_US_unple_masked	acq45_masked	5	10	400	1	300	300	0	0	374	46	0	1	0	0	0	1	blank2r.bmp	0	1	+	0	7	C3r.bmp	492	1	blank2r.bmp	786	1	DHJF	786	1	blank2r.bmp	866	5	töten	866	1	!	1239	1	!	1279	0	0	0	0	0	0	0	0	0	0	0	0	0	0	0	0	0	0	0	0	0	0	0	0	0	0	0
032719	15:18:19	15:28:15	595133	5.0.10.0	4_exp_AMP_EVA_AWA_CON	180	Rpleas_acq	Same	Rpleas	Amasked	CS_A	1pleas	distractor1	EVAbeforeCON	acq_US_unple_masked	acq45_masked	5	11	400	0	300	300	0	0	480	50	0	0	0	0	0	1	blank2r.bmp	0	1	+	0	2	B2r.bmp	492	1	blank2r.bmp	786	1	DHJF	786	1	blank2r.bmp	866	2	versagen	866	1	!	1239	1	!	-1	0	0	0	0	0	0	0	0	0	0	0	0	0	0	0	0	0	0	0	0	0	0	0	0	0	0	0
032719	15:18:19	15:28:17	597946	5.0.10.0	4_exp_AMP_EVA_AWA_CON	180	Rpleas_acq	Same	Rpleas	Amasked	CS_A	1pleas	distractor1	EVAbeforeCON	acq_US_pleas_masked	acq45_masked	5	12	400	0	300	300	0	0	1031	50	0	1	0	0	0	1	blank2r.bmp	0	1	+	0	8	C4r.bmp	492	1	blank2r.bmp	786	1	CPLW	786	1	blank2r.bmp	866	6	gesittet	866	1	!	1239	1	!	-1	0	0	0	0	0	0	0	0	0	0	0	0	0	0	0	0	0	0	0	0	0	0	0	0	0	0	0
032719	15:18:19	15:28:20	600105	5.0.10.0	4_exp_AMP_EVA_AWA_CON	180	Rpleas_acq	Same	Rpleas	Amasked	CS_A	1pleas	distractor1	EVAbeforeCON	acq_US_unple_masked	acq45_masked	5	13	400	1	300	300	0	0	346	46	0	1	0	0	0	1	blank2r.bmp	0	1	+	0	5	C1r.bmp	492	1	blank2r.bmp	786	1	DHJF	786	1	blank2r.bmp	866	3	krank	866	1	!	1239	1	!	1252	0	0	0	0	0	0	0	0	0	0	0	0	0	0	0	0	0	0	0	0	0	0	0	0	0	0	0
032719	15:18:19	15:28:22	602277	5.0.10.0	4_exp_AMP_EVA_AWA_CON	180	Rpleas_acq	Same	Rpleas	Amasked	CS_A	1pleas	distractor1	EVAbeforeCON	acq_US_pleas_masked	acq45_masked	5	14	400	1	300	300	0	0	366	46	0	0	0	0	0	1	blank2r.bmp	0	1	+	0	1	B1r.bmp	492	1	blank2r.bmp	786	1	CPLW	786	1	blank2r.bmp	866	3	kreativ	866	1	!	1239	1	!	1266	0	0	0	0	0	0	0	0	0	0	0	0	0	0	0	0	0	0	0	0	0	0	0	0	0	0	0
032719	15:18:19	15:28:24	604516	5.0.10.0	4_exp_AMP_EVA_AWA_CON	180	Rpleas_acq	Same	Rpleas	Amasked	CS_A	1pleas	distractor1	EVAbeforeCON	acq_US_pleas_masked	acq45_masked	5	15	400	1	300	300	0	0	451	50	0	1	0	0	0	1	blank2r.bmp	0	1	+	0	4	B4r.bmp	492	1	blank2r.bmp	786	1	CPLW	786	1	blank2r.bmp	866	2	vertrauen	866	1	!	1239	1	!	1346	0	0	0	0	0	0	0	0	0	0	0	0	0	0	0	0	0	0	0	0	0	0	0	0	0	0	0
032719	15:18:19	15:28:26	606929	5.0.10.0	4_exp_AMP_EVA_AWA_CON	180	Rpleas_acq	Same	Rpleas	Amasked	CS_A	1pleas	distractor1	EVAbeforeCON	acq_US_unple_masked	acq45_masked	5	16	400	0	300	300	0	0	644	46	0	1	0	0	0	1	blank2r.bmp	0	1	+	0	3	B3r.bmp	492	1	blank2r.bmp	786	1	DHJF	786	1	blank2r.bmp	866	1	bange	866	1	!	1239	1	!	-1	0	0	0	0	0	0	0	0	0	0	0	0	0	0	0	0	0	0	0	0	0	0	0	0	0	0	0
032719	15:18:19	15:28:29	609274	5.0.10.0	4_exp_AMP_EVA_AWA_CON	180	Rpleas_acq	Same	Rpleas	Amasked	CS_A	1pleas	distractor1	EVAbeforeCON	acq_US_unple_masked	acq45_masked	5	17	400	0	300	300	0	0	570	46	0	1	0	0	0	1	blank2r.bmp	0	1	+	0	5	C1r.bmp	492	1	blank2r.bmp	786	1	DHJF	786	1	blank2r.bmp	866	2	versagen	866	1	!	1239	1	!	-1	0	0	0	0	0	0	0	0	0	0	0	0	0	0	0	0	0	0	0	0	0	0	0	0	0	0	0
032719	15:18:19	15:28:31	611487	5.0.10.0	4_exp_AMP_EVA_AWA_CON	180	Rpleas_acq	Same	Rpleas	Amasked	CS_A	1pleas	distractor1	EVAbeforeCON	acq_US_pleas_masked	acq45_masked	5	18	400	1	300	300	0	0	402	50	0	1	0	0	0	1	blank2r.bmp	0	1	+	0	3	B3r.bmp	492	1	blank2r.bmp	786	1	CPLW	786	1	blank2r.bmp	866	1	besonnen	866	1	!	1239	1	!	1306	0	0	0	0	0	0	0	0	0	0	0	0	0	0	0	0	0	0	0	0	0	0	0	0	0	0	0
032719	15:18:19	15:28:33	613686	5.0.10.0	4_exp_AMP_EVA_AWA_CON	180	Rpleas_acq	Same	Rpleas	Amasked	CS_A	1pleas	distractor1	EVAbeforeCON	acq_US_unple_masked	acq45_masked	5	19	400	1	300	300	0	0	407	46	0	1	0	0	0	1	blank2r.bmp	0	1	+	0	1	B1r.bmp	492	1	blank2r.bmp	786	1	DHJF	786	1	blank2r.bmp	866	4	sterben	866	1	!	1239	1	!	1306	0	0	0	0	0	0	0	0	0	0	0	0	0	0	0	0	0	0	0	0	0	0	0	0	0	0	0
032719	15:18:19	15:28:35	615778	5.0.10.0	4_exp_AMP_EVA_AWA_CON	180	Rpleas_acq	Same	Rpleas	Amasked	CS_A	1pleas	distractor1	EVAbeforeCON	acq_US_pleas_masked	acq45_masked	5	20	400	0	300	300	0	0	330	46	0	0	0	0	0	1	blank2r.bmp	0	1	+	0	6	C2r.bmp	492	1	blank2r.bmp	786	1	CPLW	786	1	blank2r.bmp	866	5	träumen	866	1	!	-1	1	!	-1	0	0	0	0	0	0	0	0	0	0	0	0	0	0	0	0	0	0	0	0	0	0	0	0	0	0	0
032719	15:18:19	15:28:38	618004	5.0.10.0	4_exp_AMP_EVA_AWA_CON	180	Rpleas_acq	Same	Rpleas	Amasked	CS_A	1pleas	distractor1	EVAbeforeCON	acq_US_pleas_masked	acq45_masked	5	21	400	1	300	300	0	0	413	50	0	1	0	0	0	1	blank2r.bmp	0	1	+	0	2	B2r.bmp	492	1	blank2r.bmp	786	1	CPLW	786	1	blank2r.bmp	866	6	gesittet	866	1	!	1239	1	!	1319	0	0	0	0	0	0	0	0	0	0	0	0	0	0	0	0	0	0	0	0	0	0	0	0	0	0	0
032719	15:18:19	15:28:40	620270	5.0.10.0	4_exp_AMP_EVA_AWA_CON	180	Rpleas_acq	Same	Rpleas	Amasked	CS_A	1pleas	distractor1	EVAbeforeCON	acq_US_pleas_masked	acq45_masked	5	22	400	0	300	300	0	0	493	46	0	0	0	0	0	1	blank2r.bmp	0	1	+	0	4	B4r.bmp	492	1	blank2r.bmp	786	1	CPLW	786	1	blank2r.bmp	866	4	sonnig	866	1	!	1239	1	!	-1	0	0	0	0	0	0	0	0	0	0	0	0	0	0	0	0	0	0	0	0	0	0	0	0	0	0	0
032719	15:18:19	15:28:42	622695	5.0.10.0	4_exp_AMP_EVA_AWA_CON	180	Rpleas_acq	Same	Rpleas	Amasked	CS_A	1pleas	distractor1	EVAbeforeCON	acq_US_pleas_masked	acq45_masked	5	23	400	0	300	300	0	0	647	50	0	1	0	0	0	1	blank2r.bmp	0	1	+	0	8	C4r.bmp	492	1	blank2r.bmp	786	1	CPLW	786	1	blank2r.bmp	866	3	kreativ	866	1	!	1239	1	!	-1	0	0	0	0	0	0	0	0	0	0	0	0	0	0	0	0	0	0	0	0	0	0	0	0	0	0	0
032719	15:18:19	15:28:44	624908	5.0.10.0	4_exp_AMP_EVA_AWA_CON	180	Rpleas_acq	Same	Rpleas	Amasked	CS_A	1pleas	distractor1	EVAbeforeCON	acq_US_unple_masked	acq45_masked	5	24	400	1	300	300	0	0	397	46	0	1	0	0	0	1	blank2r.bmp	0	1	+	0	7	C3r.bmp	492	1	blank2r.bmp	786	1	DHJF	786	1	blank2r.bmp	866	6	geizig	866	1	!	1239	1	!	1292	0	0	0	0	0	0	0	0	0	0	0	0	0	0	0	0	0	0	0	0	0	0	0	0	0	0	0
032719	15:18:19	15:28:47	627160	5.0.10.0	4_exp_AMP_EVA_AWA_CON	180	Rpleas_acq	Same	Rpleas	Amasked	CS_A	1pleas	distractor1	EVAbeforeCON	acq_US_pleas_masked	acq45_masked	5	25	400	0	300	300	0	0	479	46	0	0	0	0	0	1	blank2r.bmp	0	1	+	0	3	B3r.bmp	492	1	blank2r.bmp	786	1	CPLW	786	1	blank2r.bmp	866	6	gesittet	866	1	!	1239	1	!	-1	0	0	0	0	0	0	0	0	0	0	0	0	0	0	0	0	0	0	0	0	0	0	0	0	0	0	0
032719	15:18:19	15:28:49	629319	5.0.10.0	4_exp_AMP_EVA_AWA_CON	180	Rpleas_acq	Same	Rpleas	Amasked	CS_A	1pleas	distractor1	EVAbeforeCON	acq_US_unple_masked	acq45_masked	5	26	400	1	300	300	0	0	346	46	0	1	0	0	0	1	blank2r.bmp	0	1	+	0	4	B4r.bmp	492	1	blank2r.bmp	786	1	DHJF	786	1	blank2r.bmp	866	5	töten	866	1	!	1239	1	!	1252	0	0	0	0	0	0	0	0	0	0	0	0	0	0	0	0	0	0	0	0	0	0	0	0	0	0	0
032719	15:18:19	15:28:51	631465	5.0.10.0	4_exp_AMP_EVA_AWA_CON	180	Rpleas_acq	Same	Rpleas	Amasked	CS_A	1pleas	distractor1	EVAbeforeCON	acq_US_pleas_masked	acq45_masked	5	27	400	1	300	300	0	0	346	50	0	1	0	0	0	1	blank2r.bmp	0	1	+	0	5	C1r.bmp	492	1	blank2r.bmp	786	1	CPLW	786	1	blank2r.bmp	866	4	sonnig	866	1	!	1239	1	!	1252	0	0	0	0	0	0	0	0	0	0	0	0	0	0	0	0	0	0	0	0	0	0	0	0	0	0	0
032719	15:18:19	15:28:53	633691	5.0.10.0	4_exp_AMP_EVA_AWA_CON	180	Rpleas_acq	Same	Rpleas	Amasked	CS_A	1pleas	distractor1	EVAbeforeCON	acq_US_unple_masked	acq45_masked	5	28	400	1	300	300	0	0	434	50	0	0	0	0	0	1	blank2r.bmp	0	1	+	0	2	B2r.bmp	492	1	blank2r.bmp	786	1	DHJF	786	1	blank2r.bmp	866	2	versagen	866	1	!	1239	1	!	1332	0	0	0	0	0	0	0	0	0	0	0	0	0	0	0	0	0	0	0	0	0	0	0	0	0	0	0
032719	15:18:19	15:28:55	635957	5.0.10.0	4_exp_AMP_EVA_AWA_CON	180	Rpleas_acq	Same	Rpleas	Amasked	CS_A	1pleas	distractor1	EVAbeforeCON	acq_US_unple_masked	acq45_masked	5	29	400	0	300	300	0	0	479	46	0	1	0	0	0	1	blank2r.bmp	0	1	+	0	8	C4r.bmp	492	1	blank2r.bmp	786	1	DHJF	786	1	blank2r.bmp	866	5	töten	866	1	!	1239	1	!	-1	0	0	0	0	0	0	0	0	0	0	0	0	0	0	0	0	0	0	0	0	0	0	0	0	0	0	0
032719	15:18:19	15:28:58	638236	5.0.10.0	4_exp_AMP_EVA_AWA_CON	180	Rpleas_acq	Same	Rpleas	Amasked	CS_A	1pleas	distractor1	EVAbeforeCON	acq_US_pleas_masked	acq45_masked	5	30	400	1	300	300	0	0	459	50	0	1	0	0	0	1	blank2r.bmp	0	1	+	0	1	B1r.bmp	492	1	blank2r.bmp	786	1	CPLW	786	1	blank2r.bmp	866	1	besonnen	866	1	!	1239	1	!	1359	0	0	0	0	0	0	0	0	0	0	0	0	0	0	0	0	0	0	0	0	0	0	0	0	0	0	0
032719	15:18:19	15:29:00	640555	5.0.10.0	4_exp_AMP_EVA_AWA_CON	180	Rpleas_acq	Same	Rpleas	Amasked	CS_A	1pleas	distractor1	EVAbeforeCON	acq_US_unple_masked	acq45_masked	5	31	400	0	300	300	0	0	557	46	0	1	0	0	0	1	blank2r.bmp	0	1	+	0	6	C2r.bmp	492	1	blank2r.bmp	786	1	DHJF	786	1	blank2r.bmp	866	6	geizig	866	1	!	1239	1	!	-1	0	0	0	0	0	0	0	0	0	0	0	0	0	0	0	0	0	0	0	0	0	0	0	0	0	0	0
032719	15:18:19	15:29:02	642820	5.0.10.0	4_exp_AMP_EVA_AWA_CON	180	Rpleas_acq	Same	Rpleas	Amasked	CS_A	1pleas	distractor1	EVAbeforeCON	acq_US_unple_masked	acq45_masked	5	32	400	0	300	300	0	0	479	46	0	1	0	0	0	1	blank2r.bmp	0	1	+	0	7	C3r.bmp	492	1	blank2r.bmp	786	1	DHJF	786	1	blank2r.bmp	866	1	bange	866	1	!	1239	1	!	-1	0	0	0	0	0	0	0	0	0	0	0	0	0	0	0	0	0	0	0	0	0	0	0	0	0	0	0
032719	15:18:19	15:29:05	645060	5.0.10.0	4_exp_AMP_EVA_AWA_CON	180	Rpleas_acq	Same	Rpleas	Amasked	CS_A	1pleas	distractor1	EVAbeforeCON	acq_US_unple_masked	acq45_masked	5	33	400	1	300	300	0	0	419	46	0	1	0	0	0	1	blank2r.bmp	0	1	+	0	4	B4r.bmp	492	1	blank2r.bmp	786	1	DHJF	786	1	blank2r.bmp	866	4	sterben	866	1	!	1239	1	!	1319	0	0	0	0	0	0	0	0	0	0	0	0	0	0	0	0	0	0	0	0	0	0	0	0	0	0	0
032719	15:18:19	15:29:07	647232	5.0.10.0	4_exp_AMP_EVA_AWA_CON	180	Rpleas_acq	Same	Rpleas	Amasked	CS_A	1pleas	distractor1	EVAbeforeCON	acq_US_unple_masked	acq45_masked	5	34	400	1	300	300	0	0	384	46	0	1	0	0	0	1	blank2r.bmp	0	1	+	0	8	C4r.bmp	492	1	blank2r.bmp	786	1	DHJF	786	1	blank2r.bmp	866	3	krank	866	1	!	1239	1	!	1279	0	0	0	0	0	0	0	0	0	0	0	0	0	0	0	0	0	0	0	0	0	0	0	0	0	0	0
032719	15:18:19	15:29:09	649498	5.0.10.0	4_exp_AMP_EVA_AWA_CON	180	Rpleas_acq	Same	Rpleas	Amasked	CS_A	1pleas	distractor1	EVAbeforeCON	acq_US_pleas_masked	acq45_masked	5	35	400	0	300	300	0	0	479	50	0	1	0	0	0	1	blank2r.bmp	0	1	+	0	3	B3r.bmp	492	1	blank2r.bmp	786	1	CPLW	786	1	blank2r.bmp	866	2	vertrauen	866	1	!	1239	1	!	-1	0	0	0	0	0	0	0	0	0	0	0	0	0	0	0	0	0	0	0	0	0	0	0	0	0	0	0
032719	15:18:19	15:29:11	651564	5.0.10.0	4_exp_AMP_EVA_AWA_CON	180	Rpleas_acq	Same	Rpleas	Amasked	CS_A	1pleas	distractor1	EVAbeforeCON	acq_US_pleas_masked	acq45_masked	5	36	400	0	300	300	0	0	266	46	0	0	0	0	0	1	blank2r.bmp	0	1	+	0	2	B2r.bmp	492	1	blank2r.bmp	786	1	CPLW	786	1	blank2r.bmp	866	5	träumen	866	1	!	-1	1	!	-1	0	0	0	0	0	0	0	0	0	0	0	0	0	0	0	0	0	0	0	0	0	0	0	0	0	0	0
032719	15:18:19	15:29:53	693133	5.0.10.0	4_exp_AMP_EVA_AWA_CON	180	Rpleas_acq	Same	Rpleas	Amasked	CS_A	1pleas	distractor1	EVAbeforeCON	AMP_distractor	AMP1_masked	6	1	0	0	300	300	0	0	534	50	0	0	0	0	0	1	blank2r.bmp	0	1	ZGXT	0	1	blank2r.bmp	79	110	pic110.bmp	199	1	whitenoise_No3.bmp	306	0	0	0	0	0	0	0	0	0	0	0	0	0	0	0	0	0	0	0	0	0	0	0	0	0	0	0	0	0	0	0	0	0	0	0	0	0	0	0
032719	15:18:19	15:29:54	694386	5.0.10.0	4_exp_AMP_EVA_AWA_CON	180	Rpleas_acq	Same	Rpleas	Amasked	CS_A	1pleas	distractor1	EVAbeforeCON	AMP_CSunple	AMP1_masked	6	2	0	0	300	300	0	0	344	50	0	0	0	0	0	1	blank2r.bmp	0	1	DHJF	0	1	blank2r.bmp	79	29	pic29.bmp	199	1	whitenoise_No3.bmp	306	0	0	0	0	0	0	0	0	0	0	0	0	0	0	0	0	0	0	0	0	0	0	0	0	0	0	0	0	0	0	0	0	0	0	0	0	0	0	0
032719	15:18:19	15:29:55	695892	5.0.10.0	4_exp_AMP_EVA_AWA_CON	180	Rpleas_acq	Same	Rpleas	Amasked	CS_A	1pleas	distractor1	EVAbeforeCON	AMP_CSpleas	AMP1_masked	6	3	0	0	300	300	0	0	579	50	0	1	0	0	0	1	blank2r.bmp	0	1	CPLW	0	1	blank2r.bmp	79	47	pic47.bmp	199	1	whitenoise_No3.bmp	306	0	0	0	0	0	0	0	0	0	0	0	0	0	0	0	0	0	0	0	0	0	0	0	0	0	0	0	0	0	0	0	0	0	0	0	0	0	0	0
032719	15:18:19	15:29:58	698051	5.0.10.0	4_exp_AMP_EVA_AWA_CON	180	Rpleas_acq	Same	Rpleas	Amasked	CS_A	1pleas	distractor1	EVAbeforeCON	AMP_CSunple	AMP1_masked	6	4	0	0	300	300	0	0	1248	50	0	0	0	0	0	1	blank2r.bmp	0	1	DHJF	0	1	blank2r.bmp	79	7	pic7.bmp	199	1	whitenoise_No3.bmp	306	0	0	0	0	0	0	0	0	0	0	0	0	0	0	0	0	0	0	0	0	0	0	0	0	0	0	0	0	0	0	0	0	0	0	0	0	0	0	0
032719	15:18:19	15:29:59	699584	5.0.10.0	4_exp_AMP_EVA_AWA_CON	180	Rpleas_acq	Same	Rpleas	Amasked	CS_A	1pleas	distractor1	EVAbeforeCON	AMP_CSunple	AMP1_masked	6	5	0	0	300	300	0	0	605	46	0	1	0	0	0	1	blank2r.bmp	0	1	DHJF	0	1	blank2r.bmp	79	6	pic6.bmp	199	1	whitenoise_No3.bmp	306	0	0	0	0	0	0	0	0	0	0	0	0	0	0	0	0	0	0	0	0	0	0	0	0	0	0	0	0	0	0	0	0	0	0	0	0	0	0	0
032719	15:18:19	15:30:00	700863	5.0.10.0	4_exp_AMP_EVA_AWA_CON	180	Rpleas_acq	Same	Rpleas	Amasked	CS_A	1pleas	distractor1	EVAbeforeCON	AMP_CSunple	AMP1_masked	6	6	0	0	300	300	0	0	348	50	0	0	0	0	0	1	blank2r.bmp	0	1	DHJF	0	1	blank2r.bmp	79	19	pic19.bmp	199	1	whitenoise_No3.bmp	306	0	0	0	0	0	0	0	0	0	0	0	0	0	0	0	0	0	0	0	0	0	0	0	0	0	0	0	0	0	0	0	0	0	0	0	0	0	0	0
032719	15:18:19	15:30:02	702156	5.0.10.0	4_exp_AMP_EVA_AWA_CON	180	Rpleas_acq	Same	Rpleas	Amasked	CS_A	1pleas	distractor1	EVAbeforeCON	AMP_CSpleas	AMP1_masked	6	7	0	0	300	300	0	0	369	46	0	0	0	0	0	1	blank2r.bmp	0	1	CPLW	0	1	blank2r.bmp	79	12	pic12.bmp	199	1	whitenoise_No3.bmp	306	0	0	0	0	0	0	0	0	0	0	0	0	0	0	0	0	0	0	0	0	0	0	0	0	0	0	0	0	0	0	0	0	0	0	0	0	0	0	0
032719	15:18:19	15:30:03	703542	5.0.10.0	4_exp_AMP_EVA_AWA_CON	180	Rpleas_acq	Same	Rpleas	Amasked	CS_A	1pleas	distractor1	EVAbeforeCON	AMP_CSpleas	AMP1_masked	6	8	0	0	300	300	0	0	459	50	0	1	0	0	0	1	blank2r.bmp	0	1	CPLW	0	1	blank2r.bmp	79	46	pic46.bmp	199	1	whitenoise_No3.bmp	306	0	0	0	0	0	0	0	0	0	0	0	0	0	0	0	0	0	0	0	0	0	0	0	0	0	0	0	0	0	0	0	0	0	0	0	0	0	0	0
032719	15:18:19	15:30:04	704875	5.0.10.0	4_exp_AMP_EVA_AWA_CON	180	Rpleas_acq	Same	Rpleas	Amasked	CS_A	1pleas	distractor1	EVAbeforeCON	AMP_distractor	AMP1_masked	6	9	0	0	300	300	0	0	402	50	0	0	0	0	0	1	blank2r.bmp	0	1	ZGXT	0	1	blank2r.bmp	79	71	pic71.bmp	199	1	whitenoise_No3.bmp	306	0	0	0	0	0	0	0	0	0	0	0	0	0	0	0	0	0	0	0	0	0	0	0	0	0	0	0	0	0	0	0	0	0	0	0	0	0	0	0
032719	15:18:19	15:30:06	706008	5.0.10.0	4_exp_AMP_EVA_AWA_CON	180	Rpleas_acq	Same	Rpleas	Amasked	CS_A	1pleas	distractor1	EVAbeforeCON	AMP_distractor	AMP1_masked	6	10	0	0	300	300	0	0	203	46	0	0	0	0	0	1	blank2r.bmp	0	1	ZGXT	0	1	blank2r.bmp	79	76	pic76.bmp	199	1	whitenoise_No3.bmp	306	0	0	0	0	0	0	0	0	0	0	0	0	0	0	0	0	0	0	0	0	0	0	0	0	0	0	0	0	0	0	0	0	0	0	0	0	0	0	0
032719	15:18:19	15:30:07	707314	5.0.10.0	4_exp_AMP_EVA_AWA_CON	180	Rpleas_acq	Same	Rpleas	Amasked	CS_A	1pleas	distractor1	EVAbeforeCON	AMP_CSpleas	AMP1_masked	6	11	0	0	300	300	0	0	372	50	0	1	0	0	0	1	blank2r.bmp	0	1	CPLW	0	1	blank2r.bmp	79	18	pic18.bmp	199	1	whitenoise_No3.bmp	306	0	0	0	0	0	0	0	0	0	0	0	0	0	0	0	0	0	0	0	0	0	0	0	0	0	0	0	0	0	0	0	0	0	0	0	0	0	0	0
032719	15:18:19	15:30:08	708620	5.0.10.0	4_exp_AMP_EVA_AWA_CON	180	Rpleas_acq	Same	Rpleas	Amasked	CS_A	1pleas	distractor1	EVAbeforeCON	AMP_distractor	AMP1_masked	6	12	0	0	300	300	0	0	386	50	0	0	0	0	0	1	blank2r.bmp	0	1	ZGXT	0	1	blank2r.bmp	79	116	pic116.bmp	199	1	whitenoise_No3.bmp	306	0	0	0	0	0	0	0	0	0	0	0	0	0	0	0	0	0	0	0	0	0	0	0	0	0	0	0	0	0	0	0	0	0	0	0	0	0	0	0
032719	15:18:19	15:30:09	709740	5.0.10.0	4_exp_AMP_EVA_AWA_CON	180	Rpleas_acq	Same	Rpleas	Amasked	CS_A	1pleas	distractor1	EVAbeforeCON	AMP_CSpleas	AMP1_masked	6	13	0	0	300	300	0	0	199	46	0	0	0	0	0	1	blank2r.bmp	0	1	CPLW	0	1	blank2r.bmp	79	128	pic128.bmp	199	1	whitenoise_No3.bmp	306	0	0	0	0	0	0	0	0	0	0	0	0	0	0	0	0	0	0	0	0	0	0	0	0	0	0	0	0	0	0	0	0	0	0	0	0	0	0	0
032719	15:18:19	15:30:10	710926	5.0.10.0	4_exp_AMP_EVA_AWA_CON	180	Rpleas_acq	Same	Rpleas	Amasked	CS_A	1pleas	distractor1	EVAbeforeCON	AMP_CSunple	AMP1_masked	6	14	0	0	300	300	0	0	277	50	0	0	0	0	0	1	blank2r.bmp	0	1	DHJF	0	1	blank2r.bmp	79	81	pic81.bmp	199	1	whitenoise_No3.bmp	306	0	0	0	0	0	0	0	0	0	0	0	0	0	0	0	0	0	0	0	0	0	0	0	0	0	0	0	0	0	0	0	0	0	0	0	0	0	0	0
032719	15:18:19	15:30:12	712179	5.0.10.0	4_exp_AMP_EVA_AWA_CON	180	Rpleas_acq	Same	Rpleas	Amasked	CS_A	1pleas	distractor1	EVAbeforeCON	AMP_CSunple	AMP1_masked	6	15	0	0	300	300	0	0	331	50	0	0	0	0	0	1	blank2r.bmp	0	1	DHJF	0	1	blank2r.bmp	79	69	pic69.bmp	199	1	whitenoise_No3.bmp	306	0	0	0	0	0	0	0	0	0	0	0	0	0	0	0	0	0	0	0	0	0	0	0	0	0	0	0	0	0	0	0	0	0	0	0	0	0	0	0
032719	15:18:19	15:30:13	713471	5.0.10.0	4_exp_AMP_EVA_AWA_CON	180	Rpleas_acq	Same	Rpleas	Amasked	CS_A	1pleas	distractor1	EVAbeforeCON	AMP_distractor	AMP1_masked	6	16	0	0	300	300	0	0	371	46	0	0	0	0	0	1	blank2r.bmp	0	1	ZGXT	0	1	blank2r.bmp	79	60	pic60.bmp	199	1	whitenoise_No3.bmp	306	0	0	0	0	0	0	0	0	0	0	0	0	0	0	0	0	0	0	0	0	0	0	0	0	0	0	0	0	0	0	0	0	0	0	0	0	0	0	0
032719	15:18:19	15:30:15	714964	5.0.10.0	4_exp_AMP_EVA_AWA_CON	180	Rpleas_acq	Same	Rpleas	Amasked	CS_A	1pleas	distractor1	EVAbeforeCON	AMP_distractor	AMP1_masked	6	17	0	0	300	300	0	0	579	50	0	0	0	0	0	1	blank2r.bmp	0	1	ZGXT	0	1	blank2r.bmp	79	94	pic94.bmp	199	1	whitenoise_No3.bmp	306	0	0	0	0	0	0	0	0	0	0	0	0	0	0	0	0	0	0	0	0	0	0	0	0	0	0	0	0	0	0	0	0	0	0	0	0	0	0	0
032719	15:18:19	15:30:16	716230	5.0.10.0	4_exp_AMP_EVA_AWA_CON	180	Rpleas_acq	Same	Rpleas	Amasked	CS_A	1pleas	distractor1	EVAbeforeCON	AMP_CSunple	AMP1_masked	6	18	0	0	300	300	0	0	334	46	0	1	0	0	0	1	blank2r.bmp	0	1	DHJF	0	1	blank2r.bmp	79	31	pic31.bmp	199	1	whitenoise_No3.bmp	306	0	0	0	0	0	0	0	0	0	0	0	0	0	0	0	0	0	0	0	0	0	0	0	0	0	0	0	0	0	0	0	0	0	0	0	0	0	0	0
032719	15:18:19	15:30:17	717523	5.0.10.0	4_exp_AMP_EVA_AWA_CON	180	Rpleas_acq	Same	Rpleas	Amasked	CS_A	1pleas	distractor1	EVAbeforeCON	AMP_CSpleas	AMP1_masked	6	19	0	0	300	300	0	0	364	50	0	1	0	0	0	1	blank2r.bmp	0	1	CPLW	0	1	blank2r.bmp	79	59	pic59.bmp	199	1	whitenoise_No3.bmp	306	0	0	0	0	0	0	0	0	0	0	0	0	0	0	0	0	0	0	0	0	0	0	0	0	0	0	0	0	0	0	0	0	0	0	0	0	0	0	0
032719	15:18:19	15:30:19	718989	5.0.10.0	4_exp_AMP_EVA_AWA_CON	180	Rpleas_acq	Same	Rpleas	Amasked	CS_A	1pleas	distractor1	EVAbeforeCON	AMP_distractor	AMP1_masked	6	20	0	0	300	300	0	0	534	46	0	0	0	0	0	1	blank2r.bmp	0	1	ZGXT	0	1	blank2r.bmp	79	74	pic74.bmp	199	1	whitenoise_No3.bmp	306	0	0	0	0	0	0	0	0	0	0	0	0	0	0	0	0	0	0	0	0	0	0	0	0	0	0	0	0	0	0	0	0	0	0	0	0	0	0	0
032719	15:18:19	15:30:20	720509	5.0.10.0	4_exp_AMP_EVA_AWA_CON	180	Rpleas_acq	Same	Rpleas	Amasked	CS_A	1pleas	distractor1	EVAbeforeCON	AMP_CSpleas	AMP1_masked	6	21	0	0	300	300	0	0	591	46	0	0	0	0	0	1	blank2r.bmp	0	1	CPLW	0	1	blank2r.bmp	79	104	pic104.bmp	199	1	whitenoise_No3.bmp	306	0	0	0	0	0	0	0	0	0	0	0	0	0	0	0	0	0	0	0	0	0	0	0	0	0	0	0	0	0	0	0	0	0	0	0	0	0	0	0
032719	15:18:19	15:30:22	722015	5.0.10.0	4_exp_AMP_EVA_AWA_CON	180	Rpleas_acq	Same	Rpleas	Amasked	CS_A	1pleas	distractor1	EVAbeforeCON	AMP_CSpleas	AMP1_masked	6	22	0	0	300	300	0	0	590	46	0	0	0	0	0	1	blank2r.bmp	0	1	CPLW	0	1	blank2r.bmp	79	136	pic136.bmp	199	1	whitenoise_No3.bmp	306	0	0	0	0	0	0	0	0	0	0	0	0	0	0	0	0	0	0	0	0	0	0	0	0	0	0	0	0	0	0	0	0	0	0	0	0	0	0	0
032719	15:18:19	15:30:23	723481	5.0.10.0	4_exp_AMP_EVA_AWA_CON	180	Rpleas_acq	Same	Rpleas	Amasked	CS_A	1pleas	distractor1	EVAbeforeCON	AMP_CSpleas	AMP1_masked	6	23	0	0	300	300	0	0	545	46	0	0	0	0	0	1	blank2r.bmp	0	1	CPLW	0	1	blank2r.bmp	79	120	pic120.bmp	199	1	whitenoise_No3.bmp	306	0	0	0	0	0	0	0	0	0	0	0	0	0	0	0	0	0	0	0	0	0	0	0	0	0	0	0	0	0	0	0	0	0	0	0	0	0	0	0
032719	15:18:19	15:30:25	725173	5.0.10.0	4_exp_AMP_EVA_AWA_CON	180	Rpleas_acq	Same	Rpleas	Amasked	CS_A	1pleas	distractor1	EVAbeforeCON	AMP_CSpleas	AMP1_masked	6	24	0	0	300	300	0	0	758	46	0	0	0	0	0	1	blank2r.bmp	0	1	CPLW	0	1	blank2r.bmp	79	115	pic115.bmp	199	1	whitenoise_No3.bmp	306	0	0	0	0	0	0	0	0	0	0	0	0	0	0	0	0	0	0	0	0	0	0	0	0	0	0	0	0	0	0	0	0	0	0	0	0	0	0	0
032719	15:18:19	15:30:26	726506	5.0.10.0	4_exp_AMP_EVA_AWA_CON	180	Rpleas_acq	Same	Rpleas	Amasked	CS_A	1pleas	distractor1	EVAbeforeCON	AMP_CSunple	AMP1_masked	6	25	0	0	300	300	0	0	415	50	0	0	0	0	0	1	blank2r.bmp	0	1	DHJF	0	1	blank2r.bmp	79	11	pic11.bmp	199	1	whitenoise_No3.bmp	306	0	0	0	0	0	0	0	0	0	0	0	0	0	0	0	0	0	0	0	0	0	0	0	0	0	0	0	0	0	0	0	0	0	0	0	0	0	0	0
032719	15:18:19	15:30:27	727839	5.0.10.0	4_exp_AMP_EVA_AWA_CON	180	Rpleas_acq	Same	Rpleas	Amasked	CS_A	1pleas	distractor1	EVAbeforeCON	AMP_distractor	AMP1_masked	6	26	0	0	300	300	0	0	413	50	0	0	0	0	0	1	blank2r.bmp	0	1	ZGXT	0	1	blank2r.bmp	79	95	pic95.bmp	199	1	whitenoise_No3.bmp	306	0	0	0	0	0	0	0	0	0	0	0	0	0	0	0	0	0	0	0	0	0	0	0	0	0	0	0	0	0	0	0	0	0	0	0	0	0	0	0
032719	15:18:19	15:30:29	729425	5.0.10.0	4_exp_AMP_EVA_AWA_CON	180	Rpleas_acq	Same	Rpleas	Amasked	CS_A	1pleas	distractor1	EVAbeforeCON	AMP_CSpleas	AMP1_masked	6	27	0	0	300	300	0	0	667	46	0	0	0	0	0	1	blank2r.bmp	0	1	CPLW	0	1	blank2r.bmp	79	99	pic99.bmp	199	1	whitenoise_No3.bmp	306	0	0	0	0	0	0	0	0	0	0	0	0	0	0	0	0	0	0	0	0	0	0	0	0	0	0	0	0	0	0	0	0	0	0	0	0	0	0	0
032719	15:18:19	15:30:30	730704	5.0.10.0	4_exp_AMP_EVA_AWA_CON	180	Rpleas_acq	Same	Rpleas	Amasked	CS_A	1pleas	distractor1	EVAbeforeCON	AMP_distractor	AMP1_masked	6	28	0	0	300	300	0	0	365	50	0	0	0	0	0	1	blank2r.bmp	0	1	ZGXT	0	1	blank2r.bmp	79	107	pic107.bmp	199	1	whitenoise_No3.bmp	306	0	0	0	0	0	0	0	0	0	0	0	0	0	0	0	0	0	0	0	0	0	0	0	0	0	0	0	0	0	0	0	0	0	0	0	0	0	0	0
032719	15:18:19	15:30:32	732264	5.0.10.0	4_exp_AMP_EVA_AWA_CON	180	Rpleas_acq	Same	Rpleas	Amasked	CS_A	1pleas	distractor1	EVAbeforeCON	AMP_distractor	AMP1_masked	6	29	0	0	300	300	0	0	637	50	0	0	0	0	0	1	blank2r.bmp	0	1	ZGXT	0	1	blank2r.bmp	79	83	pic83.bmp	199	1	whitenoise_No3.bmp	306	0	0	0	0	0	0	0	0	0	0	0	0	0	0	0	0	0	0	0	0	0	0	0	0	0	0	0	0	0	0	0	0	0	0	0	0	0	0	0
032719	15:18:19	15:30:33	733770	5.0.10.0	4_exp_AMP_EVA_AWA_CON	180	Rpleas_acq	Same	Rpleas	Amasked	CS_A	1pleas	distractor1	EVAbeforeCON	AMP_CSpleas	AMP1_masked	6	30	0	0	300	300	0	0	584	46	0	0	0	0	0	1	blank2r.bmp	0	1	CPLW	0	1	blank2r.bmp	79	90	pic90.bmp	199	1	whitenoise_No3.bmp	306	0	0	0	0	0	0	0	0	0	0	0	0	0	0	0	0	0	0	0	0	0	0	0	0	0	0	0	0	0	0	0	0	0	0	0	0	0	0	0
032719	15:18:19	15:30:34	734916	5.0.10.0	4_exp_AMP_EVA_AWA_CON	180	Rpleas_acq	Same	Rpleas	Amasked	CS_A	1pleas	distractor1	EVAbeforeCON	AMP_distractor	AMP1_masked	6	31	0	0	300	300	0	0	223	50	0	0	0	0	0	1	blank2r.bmp	0	1	ZGXT	0	1	blank2r.bmp	79	3	pic3.bmp	199	1	whitenoise_No3.bmp	306	0	0	0	0	0	0	0	0	0	0	0	0	0	0	0	0	0	0	0	0	0	0	0	0	0	0	0	0	0	0	0	0	0	0	0	0	0	0	0
032719	15:18:19	15:30:36	736182	5.0.10.0	4_exp_AMP_EVA_AWA_CON	180	Rpleas_acq	Same	Rpleas	Amasked	CS_A	1pleas	distractor1	EVAbeforeCON	AMP_distractor	AMP1_masked	6	32	0	0	300	300	0	0	336	50	0	0	0	0	0	1	blank2r.bmp	0	1	ZGXT	0	1	blank2r.bmp	79	8	pic8.bmp	199	1	whitenoise_No3.bmp	306	0	0	0	0	0	0	0	0	0	0	0	0	0	0	0	0	0	0	0	0	0	0	0	0	0	0	0	0	0	0	0	0	0	0	0	0	0	0	0
032719	15:18:19	15:30:37	737781	5.0.10.0	4_exp_AMP_EVA_AWA_CON	180	Rpleas_acq	Same	Rpleas	Amasked	CS_A	1pleas	distractor1	EVAbeforeCON	AMP_CSpleas	AMP1_masked	6	33	0	0	300	300	0	0	669	50	0	1	0	0	0	1	blank2r.bmp	0	1	CPLW	0	1	blank2r.bmp	79	15	pic15.bmp	199	1	whitenoise_No3.bmp	306	0	0	0	0	0	0	0	0	0	0	0	0	0	0	0	0	0	0	0	0	0	0	0	0	0	0	0	0	0	0	0	0	0	0	0	0	0	0	0
032719	15:18:19	15:30:39	739301	5.0.10.0	4_exp_AMP_EVA_AWA_CON	180	Rpleas_acq	Same	Rpleas	Amasked	CS_A	1pleas	distractor1	EVAbeforeCON	AMP_distractor	AMP1_masked	6	34	0	0	300	300	0	0	599	50	0	0	0	0	0	1	blank2r.bmp	0	1	ZGXT	0	1	blank2r.bmp	79	150	pic150.bmp	199	1	whitenoise_No3.bmp	306	0	0	0	0	0	0	0	0	0	0	0	0	0	0	0	0	0	0	0	0	0	0	0	0	0	0	0	0	0	0	0	0	0	0	0	0	0	0	0
032719	15:18:19	15:30:40	740913	5.0.10.0	4_exp_AMP_EVA_AWA_CON	180	Rpleas_acq	Same	Rpleas	Amasked	CS_A	1pleas	distractor1	EVAbeforeCON	AMP_distractor	AMP1_masked	6	35	0	0	300	300	0	0	702	50	0	0	0	0	0	1	blank2r.bmp	0	1	ZGXT	0	1	blank2r.bmp	79	82	pic82.bmp	199	1	whitenoise_No3.bmp	306	0	0	0	0	0	0	0	0	0	0	0	0	0	0	0	0	0	0	0	0	0	0	0	0	0	0	0	0	0	0	0	0	0	0	0	0	0	0	0
032719	15:18:19	15:30:42	742460	5.0.10.0	4_exp_AMP_EVA_AWA_CON	180	Rpleas_acq	Same	Rpleas	Amasked	CS_A	1pleas	distractor1	EVAbeforeCON	AMP_CSunple	AMP1_masked	6	36	0	0	300	300	0	0	628	46	0	1	0	0	0	1	blank2r.bmp	0	1	DHJF	0	1	blank2r.bmp	79	62	pic62.bmp	199	1	whitenoise_No3.bmp	306	0	0	0	0	0	0	0	0	0	0	0	0	0	0	0	0	0	0	0	0	0	0	0	0	0	0	0	0	0	0	0	0	0	0	0	0	0	0	0
032719	15:18:19	15:30:44	744059	5.0.10.0	4_exp_AMP_EVA_AWA_CON	180	Rpleas_acq	Same	Rpleas	Amasked	CS_A	1pleas	distractor1	EVAbeforeCON	AMP_CSpleas	AMP1_masked	6	37	0	0	300	300	0	0	683	46	0	0	0	0	0	1	blank2r.bmp	0	1	CPLW	0	1	blank2r.bmp	79	139	pic139.bmp	199	1	whitenoise_No3.bmp	306	0	0	0	0	0	0	0	0	0	0	0	0	0	0	0	0	0	0	0	0	0	0	0	0	0	0	0	0	0	0	0	0	0	0	0	0	0	0	0
032719	15:18:19	15:30:45	745405	5.0.10.0	4_exp_AMP_EVA_AWA_CON	180	Rpleas_acq	Same	Rpleas	Amasked	CS_A	1pleas	distractor1	EVAbeforeCON	AMP_CSunple	AMP1_masked	6	38	0	0	300	300	0	0	419	50	0	0	0	0	0	1	blank2r.bmp	0	1	DHJF	0	1	blank2r.bmp	79	13	pic13.bmp	199	1	whitenoise_No3.bmp	306	0	0	0	0	0	0	0	0	0	0	0	0	0	0	0	0	0	0	0	0	0	0	0	0	0	0	0	0	0	0	0	0	0	0	0	0	0	0	0
032719	15:18:19	15:30:46	746791	5.0.10.0	4_exp_AMP_EVA_AWA_CON	180	Rpleas_acq	Same	Rpleas	Amasked	CS_A	1pleas	distractor1	EVAbeforeCON	AMP_CSunple	AMP1_masked	6	39	0	0	300	300	0	0	466	50	0	0	0	0	0	1	blank2r.bmp	0	1	DHJF	0	1	blank2r.bmp	79	45	pic45.bmp	199	1	whitenoise_No3.bmp	306	0	0	0	0	0	0	0	0	0	0	0	0	0	0	0	0	0	0	0	0	0	0	0	0	0	0	0	0	0	0	0	0	0	0	0	0	0	0	0
032719	15:18:19	15:30:48	748297	5.0.10.0	4_exp_AMP_EVA_AWA_CON	180	Rpleas_acq	Same	Rpleas	Amasked	CS_A	1pleas	distractor1	EVAbeforeCON	AMP_distractor	AMP1_masked	6	40	0	0	300	300	0	0	576	46	0	0	0	0	0	1	blank2r.bmp	0	1	ZGXT	0	1	blank2r.bmp	79	38	pic38.bmp	199	1	whitenoise_No3.bmp	306	0	0	0	0	0	0	0	0	0	0	0	0	0	0	0	0	0	0	0	0	0	0	0	0	0	0	0	0	0	0	0	0	0	0	0	0	0	0	0
032719	15:18:19	15:30:49	749936	5.0.10.0	4_exp_AMP_EVA_AWA_CON	180	Rpleas_acq	Same	Rpleas	Amasked	CS_A	1pleas	distractor1	EVAbeforeCON	AMP_CSunple	AMP1_masked	6	41	0	0	300	300	0	0	725	46	0	1	0	0	0	1	blank2r.bmp	0	1	DHJF	0	1	blank2r.bmp	79	153	pic153.bmp	199	1	whitenoise_No3.bmp	306	0	0	0	0	0	0	0	0	0	0	0	0	0	0	0	0	0	0	0	0	0	0	0	0	0	0	0	0	0	0	0	0	0	0	0	0	0	0	0
032719	15:18:19	15:30:51	751509	5.0.10.0	4_exp_AMP_EVA_AWA_CON	180	Rpleas_acq	Same	Rpleas	Amasked	CS_A	1pleas	distractor1	EVAbeforeCON	AMP_CSpleas	AMP1_masked	6	42	0	0	300	300	0	0	650	46	0	0	0	0	0	1	blank2r.bmp	0	1	CPLW	0	1	blank2r.bmp	79	101	pic101.bmp	199	1	whitenoise_No3.bmp	306	0	0	0	0	0	0	0	0	0	0	0	0	0	0	0	0	0	0	0	0	0	0	0	0	0	0	0	0	0	0	0	0	0	0	0	0	0	0	0
032719	15:18:19	15:30:52	752775	5.0.10.0	4_exp_AMP_EVA_AWA_CON	180	Rpleas_acq	Same	Rpleas	Amasked	CS_A	1pleas	distractor1	EVAbeforeCON	AMP_CSunple	AMP1_masked	6	43	0	0	300	300	0	0	333	50	0	0	0	0	0	1	blank2r.bmp	0	1	DHJF	0	1	blank2r.bmp	79	51	pic51.bmp	199	1	whitenoise_No3.bmp	306	0	0	0	0	0	0	0	0	0	0	0	0	0	0	0	0	0	0	0	0	0	0	0	0	0	0	0	0	0	0	0	0	0	0	0	0	0	0	0
032719	15:18:19	15:30:54	754268	5.0.10.0	4_exp_AMP_EVA_AWA_CON	180	Rpleas_acq	Same	Rpleas	Amasked	CS_A	1pleas	distractor1	EVAbeforeCON	AMP_CSpleas	AMP1_masked	6	44	0	0	300	300	0	0	576	50	0	1	0	0	0	1	blank2r.bmp	0	1	CPLW	0	1	blank2r.bmp	79	32	pic32.bmp	199	1	whitenoise_No3.bmp	306	0	0	0	0	0	0	0	0	0	0	0	0	0	0	0	0	0	0	0	0	0	0	0	0	0	0	0	0	0	0	0	0	0	0	0	0	0	0	0
032719	15:18:19	15:30:55	755654	5.0.10.0	4_exp_AMP_EVA_AWA_CON	180	Rpleas_acq	Same	Rpleas	Amasked	CS_A	1pleas	distractor1	EVAbeforeCON	AMP_distractor	AMP1_masked	6	45	0	0	300	300	0	0	476	46	0	0	0	0	0	1	blank2r.bmp	0	1	ZGXT	0	1	blank2r.bmp	79	105	pic105.bmp	199	1	whitenoise_No3.bmp	306	0	0	0	0	0	0	0	0	0	0	0	0	0	0	0	0	0	0	0	0	0	0	0	0	0	0	0	0	0	0	0	0	0	0	0	0	0	0	0
032719	15:18:19	15:30:56	756880	5.0.10.0	4_exp_AMP_EVA_AWA_CON	180	Rpleas_acq	Same	Rpleas	Amasked	CS_A	1pleas	distractor1	EVAbeforeCON	AMP_CSpleas	AMP1_masked	6	46	0	0	300	300	0	0	313	50	0	1	0	0	0	1	blank2r.bmp	0	1	CPLW	0	1	blank2r.bmp	79	48	pic48.bmp	199	1	whitenoise_No3.bmp	306	0	0	0	0	0	0	0	0	0	0	0	0	0	0	0	0	0	0	0	0	0	0	0	0	0	0	0	0	0	0	0	0	0	0	0	0	0	0	0
032719	15:18:19	15:30:58	758520	5.0.10.0	4_exp_AMP_EVA_AWA_CON	180	Rpleas_acq	Same	Rpleas	Amasked	CS_A	1pleas	distractor1	EVAbeforeCON	AMP_CSunple	AMP1_masked	6	47	0	0	300	300	0	0	706	46	0	1	0	0	0	1	blank2r.bmp	0	1	DHJF	0	1	blank2r.bmp	79	35	pic35.bmp	199	1	whitenoise_No3.bmp	306	0	0	0	0	0	0	0	0	0	0	0	0	0	0	0	0	0	0	0	0	0	0	0	0	0	0	0	0	0	0	0	0	0	0	0	0	0	0	0
032719	15:18:19	15:31:00	760052	5.0.10.0	4_exp_AMP_EVA_AWA_CON	180	Rpleas_acq	Same	Rpleas	Amasked	CS_A	1pleas	distractor1	EVAbeforeCON	AMP_CSunple	AMP1_masked	6	48	0	0	300	300	0	0	617	50	0	0	0	0	0	1	blank2r.bmp	0	1	DHJF	0	1	blank2r.bmp	79	80	pic80.bmp	199	1	whitenoise_No3.bmp	306	0	0	0	0	0	0	0	0	0	0	0	0	0	0	0	0	0	0	0	0	0	0	0	0	0	0	0	0	0	0	0	0	0	0	0	0	0	0	0
032719	15:18:19	15:31:01	761572	5.0.10.0	4_exp_AMP_EVA_AWA_CON	180	Rpleas_acq	Same	Rpleas	Amasked	CS_A	1pleas	distractor1	EVAbeforeCON	AMP_CSunple	AMP1_masked	6	49	0	0	300	300	0	0	602	46	0	1	0	0	0	1	blank2r.bmp	0	1	DHJF	0	1	blank2r.bmp	79	129	pic129.bmp	199	1	whitenoise_No3.bmp	306	0	0	0	0	0	0	0	0	0	0	0	0	0	0	0	0	0	0	0	0	0	0	0	0	0	0	0	0	0	0	0	0	0	0	0	0	0	0	0
032719	15:18:19	15:31:03	763238	5.0.10.0	4_exp_AMP_EVA_AWA_CON	180	Rpleas_acq	Same	Rpleas	Amasked	CS_A	1pleas	distractor1	EVAbeforeCON	AMP_distractor	AMP1_masked	6	50	0	0	300	300	0	0	752	50	0	0	0	0	0	1	blank2r.bmp	0	1	ZGXT	0	1	blank2r.bmp	79	122	pic122.bmp	199	1	whitenoise_No3.bmp	306	0	0	0	0	0	0	0	0	0	0	0	0	0	0	0	0	0	0	0	0	0	0	0	0	0	0	0	0	0	0	0	0	0	0	0	0	0	0	0
032719	15:18:19	15:31:05	764984	5.0.10.0	4_exp_AMP_EVA_AWA_CON	180	Rpleas_acq	Same	Rpleas	Amasked	CS_A	1pleas	distractor1	EVAbeforeCON	AMP_CSunple	AMP1_masked	6	51	0	0	300	300	0	0	831	50	0	0	0	0	0	1	blank2r.bmp	0	1	DHJF	0	1	blank2r.bmp	79	126	pic126.bmp	199	1	whitenoise_No3.bmp	306	0	0	0	0	0	0	0	0	0	0	0	0	0	0	0	0	0	0	0	0	0	0	0	0	0	0	0	0	0	0	0	0	0	0	0	0	0	0	0
032719	15:18:19	15:31:15	775019	5.0.10.0	4_exp_AMP_EVA_AWA_CON	180	Rpleas_acq	Same	Rpleas	Amasked	CS_A	1pleas	distractor1	EVAbeforeCON	AMP_CSpleas	AMP23	7	1	0	0	300	300	0	0	370	50	0	1	0	0	0	1	blank2r.bmp	0	1	CPLW	0	1	blank2r.bmp	79	58	pic58.bmp	199	1	whitenoise_No3.bmp	306	0	0	0	0	0	0	0	0	0	0	0	0	0	0	0	0	0	0	0	0	0	0	0	0	0	0	0	0	0	0	0	0	0	0	0	0	0	0	0
032719	15:18:19	15:31:16	776419	5.0.10.0	4_exp_AMP_EVA_AWA_CON	180	Rpleas_acq	Same	Rpleas	Amasked	CS_A	1pleas	distractor1	EVAbeforeCON	AMP_CSpleas	AMP23	7	2	0	0	300	300	0	0	466	46	0	0	0	0	0	1	blank2r.bmp	0	1	CPLW	0	1	blank2r.bmp	79	133	pic133.bmp	199	1	whitenoise_No3.bmp	306	0	0	0	0	0	0	0	0	0	0	0	0	0	0	0	0	0	0	0	0	0	0	0	0	0	0	0	0	0	0	0	0	0	0	0	0	0	0	0
032719	15:18:19	15:31:17	777872	5.0.10.0	4_exp_AMP_EVA_AWA_CON	180	Rpleas_acq	Same	Rpleas	Amasked	CS_A	1pleas	distractor1	EVAbeforeCON	AMP_CSpleas	AMP23	7	3	0	0	300	300	0	0	539	46	0	0	0	0	0	1	blank2r.bmp	0	1	CPLW	0	1	blank2r.bmp	79	134	pic134.bmp	199	1	whitenoise_No3.bmp	306	0	0	0	0	0	0	0	0	0	0	0	0	0	0	0	0	0	0	0	0	0	0	0	0	0	0	0	0	0	0	0	0	0	0	0	0	0	0	0
032719	15:18:19	15:31:19	779311	5.0.10.0	4_exp_AMP_EVA_AWA_CON	180	Rpleas_acq	Same	Rpleas	Amasked	CS_A	1pleas	distractor1	EVAbeforeCON	AMP_CSpleas	AMP23	7	4	0	0	300	300	0	0	529	50	0	1	0	0	0	1	blank2r.bmp	0	1	CPLW	0	1	blank2r.bmp	79	61	pic61.bmp	199	1	whitenoise_No3.bmp	306	0	0	0	0	0	0	0	0	0	0	0	0	0	0	0	0	0	0	0	0	0	0	0	0	0	0	0	0	0	0	0	0	0	0	0	0	0	0	0
032719	15:18:19	15:31:20	780737	5.0.10.0	4_exp_AMP_EVA_AWA_CON	180	Rpleas_acq	Same	Rpleas	Amasked	CS_A	1pleas	distractor1	EVAbeforeCON	AMP_CSunple	AMP23	7	5	0	0	300	300	0	0	492	50	0	0	0	0	0	1	blank2r.bmp	0	1	DHJF	0	1	blank2r.bmp	79	21	pic21.bmp	199	1	whitenoise_No3.bmp	306	0	0	0	0	0	0	0	0	0	0	0	0	0	0	0	0	0	0	0	0	0	0	0	0	0	0	0	0	0	0	0	0	0	0	0	0	0	0	0
032719	15:18:19	15:31:22	782363	5.0.10.0	4_exp_AMP_EVA_AWA_CON	180	Rpleas_acq	Same	Rpleas	Amasked	CS_A	1pleas	distractor1	EVAbeforeCON	AMP_CSunple	AMP23	7	6	0	0	300	300	0	0	695	50	0	0	0	0	0	1	blank2r.bmp	0	1	DHJF	0	1	blank2r.bmp	79	84	pic84.bmp	199	1	whitenoise_No3.bmp	306	0	0	0	0	0	0	0	0	0	0	0	0	0	0	0	0	0	0	0	0	0	0	0	0	0	0	0	0	0	0	0	0	0	0	0	0	0	0	0
032719	15:18:19	15:31:23	783816	5.0.10.0	4_exp_AMP_EVA_AWA_CON	180	Rpleas_acq	Same	Rpleas	Amasked	CS_A	1pleas	distractor1	EVAbeforeCON	AMP_distractor	AMP23	7	7	0	0	300	300	0	0	538	46	0	0	0	0	0	1	blank2r.bmp	0	1	ZGXT	0	1	blank2r.bmp	79	147	pic147.bmp	199	1	whitenoise_No3.bmp	306	0	0	0	0	0	0	0	0	0	0	0	0	0	0	0	0	0	0	0	0	0	0	0	0	0	0	0	0	0	0	0	0	0	0	0	0	0	0	0
032719	15:18:19	15:31:25	785335	5.0.10.0	4_exp_AMP_EVA_AWA_CON	180	Rpleas_acq	Same	Rpleas	Amasked	CS_A	1pleas	distractor1	EVAbeforeCON	AMP_distractor	AMP23	7	8	0	0	300	300	0	0	604	50	0	0	0	0	0	1	blank2r.bmp	0	1	ZGXT	0	1	blank2r.bmp	79	152	pic152.bmp	199	1	whitenoise_No3.bmp	306	0	0	0	0	0	0	0	0	0	0	0	0	0	0	0	0	0	0	0	0	0	0	0	0	0	0	0	0	0	0	0	0	0	0	0	0	0	0	0
032719	15:18:19	15:31:27	787401	5.0.10.0	4_exp_AMP_EVA_AWA_CON	180	Rpleas_acq	Same	Rpleas	Amasked	CS_A	1pleas	distractor1	EVAbeforeCON	AMP_CSunple	AMP23	7	9	0	0	300	300	0	0	1138	50	0	0	0	0	0	1	blank2r.bmp	0	1	DHJF	0	1	blank2r.bmp	79	113	pic113.bmp	199	1	whitenoise_No3.bmp	306	0	0	0	0	0	0	0	0	0	0	0	0	0	0	0	0	0	0	0	0	0	0	0	0	0	0	0	0	0	0	0	0	0	0	0	0	0	0	0
032719	15:18:19	15:31:28	788734	5.0.10.0	4_exp_AMP_EVA_AWA_CON	180	Rpleas_acq	Same	Rpleas	Amasked	CS_A	1pleas	distractor1	EVAbeforeCON	AMP_CSunple	AMP23	7	10	0	0	300	300	0	0	424	50	0	0	0	0	0	1	blank2r.bmp	0	1	DHJF	0	1	blank2r.bmp	79	22	pic22.bmp	199	1	whitenoise_No3.bmp	306	0	0	0	0	0	0	0	0	0	0	0	0	0	0	0	0	0	0	0	0	0	0	0	0	0	0	0	0	0	0	0	0	0	0	0	0	0	0	0
032719	15:18:19	15:31:30	790280	5.0.10.0	4_exp_AMP_EVA_AWA_CON	180	Rpleas_acq	Same	Rpleas	Amasked	CS_A	1pleas	distractor1	EVAbeforeCON	AMP_distractor	AMP23	7	11	0	0	300	300	0	0	613	50	0	0	0	0	0	1	blank2r.bmp	0	1	ZGXT	0	1	blank2r.bmp	79	20	pic20.bmp	199	1	whitenoise_No3.bmp	306	0	0	0	0	0	0	0	0	0	0	0	0	0	0	0	0	0	0	0	0	0	0	0	0	0	0	0	0	0	0	0	0	0	0	0	0	0	0	0
032719	15:18:19	15:31:31	791559	5.0.10.0	4_exp_AMP_EVA_AWA_CON	180	Rpleas_acq	Same	Rpleas	Amasked	CS_A	1pleas	distractor1	EVAbeforeCON	AMP_CSunple	AMP23	7	12	0	0	300	300	0	0	370	46	0	1	0	0	0	1	blank2r.bmp	0	1	DHJF	0	1	blank2r.bmp	79	123	pic123.bmp	199	1	whitenoise_No3.bmp	306	0	0	0	0	0	0	0	0	0	0	0	0	0	0	0	0	0	0	0	0	0	0	0	0	0	0	0	0	0	0	0	0	0	0	0	0	0	0	0
032719	15:18:19	15:31:32	792879	5.0.10.0	4_exp_AMP_EVA_AWA_CON	180	Rpleas_acq	Same	Rpleas	Amasked	CS_A	1pleas	distractor1	EVAbeforeCON	AMP_CSpleas	AMP23	7	13	0	0	300	300	0	0	385	46	0	0	0	0	0	1	blank2r.bmp	0	1	CPLW	0	1	blank2r.bmp	79	96	pic96.bmp	199	1	whitenoise_No3.bmp	306	0	0	0	0	0	0	0	0	0	0	0	0	0	0	0	0	0	0	0	0	0	0	0	0	0	0	0	0	0	0	0	0	0	0	0	0	0	0	0
032719	15:18:19	15:31:34	794225	5.0.10.0	4_exp_AMP_EVA_AWA_CON	180	Rpleas_acq	Same	Rpleas	Amasked	CS_A	1pleas	distractor1	EVAbeforeCON	AMP_CSunple	AMP23	7	14	0	0	300	300	0	0	426	50	0	0	0	0	0	1	blank2r.bmp	0	1	DHJF	0	1	blank2r.bmp	79	65	pic65.bmp	199	1	whitenoise_No3.bmp	306	0	0	0	0	0	0	0	0	0	0	0	0	0	0	0	0	0	0	0	0	0	0	0	0	0	0	0	0	0	0	0	0	0	0	0	0	0	0	0
032719	15:18:19	15:31:35	795678	5.0.10.0	4_exp_AMP_EVA_AWA_CON	180	Rpleas_acq	Same	Rpleas	Amasked	CS_A	1pleas	distractor1	EVAbeforeCON	AMP_distractor	AMP23	7	15	0	0	300	300	0	0	533	50	0	0	0	0	0	1	blank2r.bmp	0	1	ZGXT	0	1	blank2r.bmp	79	121	pic121.bmp	199	1	whitenoise_No3.bmp	306	0	0	0	0	0	0	0	0	0	0	0	0	0	0	0	0	0	0	0	0	0	0	0	0	0	0	0	0	0	0	0	0	0	0	0	0	0	0	0
032719	15:18:19	15:31:37	797037	5.0.10.0	4_exp_AMP_EVA_AWA_CON	180	Rpleas_acq	Same	Rpleas	Amasked	CS_A	1pleas	distractor1	EVAbeforeCON	AMP_distractor	AMP23	7	16	0	0	300	300	0	0	445	50	0	0	0	0	0	1	blank2r.bmp	0	1	ZGXT	0	1	blank2r.bmp	79	109	pic109.bmp	199	1	whitenoise_No3.bmp	306	0	0	0	0	0	0	0	0	0	0	0	0	0	0	0	0	0	0	0	0	0	0	0	0	0	0	0	0	0	0	0	0	0	0	0	0	0	0	0
032719	15:18:19	15:31:38	798450	5.0.10.0	4_exp_AMP_EVA_AWA_CON	180	Rpleas_acq	Same	Rpleas	Amasked	CS_A	1pleas	distractor1	EVAbeforeCON	AMP_CSunple	AMP23	7	17	0	0	300	300	0	0	489	50	0	0	0	0	0	1	blank2r.bmp	0	1	DHJF	0	1	blank2r.bmp	79	40	pic40.bmp	199	1	whitenoise_No3.bmp	306	0	0	0	0	0	0	0	0	0	0	0	0	0	0	0	0	0	0	0	0	0	0	0	0	0	0	0	0	0	0	0	0	0	0	0	0	0	0	0
032719	15:18:19	15:31:39	799836	5.0.10.0	4_exp_AMP_EVA_AWA_CON	180	Rpleas_acq	Same	Rpleas	Amasked	CS_A	1pleas	distractor1	EVAbeforeCON	AMP_CSpleas	AMP23	7	18	0	0	300	300	0	0	465	46	0	0	0	0	0	1	blank2r.bmp	0	1	CPLW	0	1	blank2r.bmp	79	146	pic146.bmp	199	1	whitenoise_No3.bmp	306	0	0	0	0	0	0	0	0	0	0	0	0	0	0	0	0	0	0	0	0	0	0	0	0	0	0	0	0	0	0	0	0	0	0	0	0	0	0	0
032719	15:18:19	15:31:41	801142	5.0.10.0	4_exp_AMP_EVA_AWA_CON	180	Rpleas_acq	Same	Rpleas	Amasked	CS_A	1pleas	distractor1	EVAbeforeCON	AMP_CSunple	AMP23	7	19	0	0	300	300	0	0	383	46	0	1	0	0	0	1	blank2r.bmp	0	1	DHJF	0	1	blank2r.bmp	79	33	pic33.bmp	199	1	whitenoise_No3.bmp	306	0	0	0	0	0	0	0	0	0	0	0	0	0	0	0	0	0	0	0	0	0	0	0	0	0	0	0	0	0	0	0	0	0	0	0	0	0	0	0
032719	15:18:19	15:31:42	802475	5.0.10.0	4_exp_AMP_EVA_AWA_CON	180	Rpleas_acq	Same	Rpleas	Amasked	CS_A	1pleas	distractor1	EVAbeforeCON	AMP_distractor	AMP23	7	20	0	0	300	300	0	0	404	50	0	0	0	0	0	1	blank2r.bmp	0	1	ZGXT	0	1	blank2r.bmp	79	145	pic145.bmp	199	1	whitenoise_No3.bmp	306	0	0	0	0	0	0	0	0	0	0	0	0	0	0	0	0	0	0	0	0	0	0	0	0	0	0	0	0	0	0	0	0	0	0	0	0	0	0	0
032719	15:18:19	15:31:43	803834	5.0.10.0	4_exp_AMP_EVA_AWA_CON	180	Rpleas_acq	Same	Rpleas	Amasked	CS_A	1pleas	distractor1	EVAbeforeCON	AMP_distractor	AMP23	7	21	0	0	300	300	0	0	444	50	0	0	0	0	0	1	blank2r.bmp	0	1	ZGXT	0	1	blank2r.bmp	79	91	pic91.bmp	199	1	whitenoise_No3.bmp	306	0	0	0	0	0	0	0	0	0	0	0	0	0	0	0	0	0	0	0	0	0	0	0	0	0	0	0	0	0	0	0	0	0	0	0	0	0	0	0
032719	15:18:19	15:31:45	805754	5.0.10.0	4_exp_AMP_EVA_AWA_CON	180	Rpleas_acq	Same	Rpleas	Amasked	CS_A	1pleas	distractor1	EVAbeforeCON	AMP_distractor	AMP23	7	22	0	0	300	300	0	0	993	50	0	0	0	0	0	1	blank2r.bmp	0	1	ZGXT	0	1	blank2r.bmp	79	16	pic16.bmp	199	1	whitenoise_No3.bmp	306	0	0	0	0	0	0	0	0	0	0	0	0	0	0	0	0	0	0	0	0	0	0	0	0	0	0	0	0	0	0	0	0	0	0	0	0	0	0	0
032719	15:18:19	15:31:47	807060	5.0.10.0	4_exp_AMP_EVA_AWA_CON	180	Rpleas_acq	Same	Rpleas	Amasked	CS_A	1pleas	distractor1	EVAbeforeCON	AMP_CSunple	AMP23	7	23	0	0	300	300	0	0	378	46	0	1	0	0	0	1	blank2r.bmp	0	1	DHJF	0	1	blank2r.bmp	79	138	pic138.bmp	199	1	whitenoise_No3.bmp	306	0	0	0	0	0	0	0	0	0	0	0	0	0	0	0	0	0	0	0	0	0	0	0	0	0	0	0	0	0	0	0	0	0	0	0	0	0	0	0
032719	15:18:19	15:31:48	808459	5.0.10.0	4_exp_AMP_EVA_AWA_CON	180	Rpleas_acq	Same	Rpleas	Amasked	CS_A	1pleas	distractor1	EVAbeforeCON	AMP_distractor	AMP23	7	24	0	0	300	300	0	0	484	50	0	0	0	0	0	1	blank2r.bmp	0	1	ZGXT	0	1	blank2r.bmp	79	54	pic54.bmp	199	1	whitenoise_No3.bmp	306	0	0	0	0	0	0	0	0	0	0	0	0	0	0	0	0	0	0	0	0	0	0	0	0	0	0	0	0	0	0	0	0	0	0	0	0	0	0	0
032719	15:18:19	15:31:49	809779	5.0.10.0	4_exp_AMP_EVA_AWA_CON	180	Rpleas_acq	Same	Rpleas	Amasked	CS_A	1pleas	distractor1	EVAbeforeCON	AMP_CSunple	AMP23	7	25	0	0	300	300	0	0	406	46	0	1	0	0	0	1	blank2r.bmp	0	1	DHJF	0	1	blank2r.bmp	79	127	pic127.bmp	199	1	whitenoise_No3.bmp	306	0	0	0	0	0	0	0	0	0	0	0	0	0	0	0	0	0	0	0	0	0	0	0	0	0	0	0	0	0	0	0	0	0	0	0	0	0	0	0
032719	15:18:19	15:31:51	811231	5.0.10.0	4_exp_AMP_EVA_AWA_CON	180	Rpleas_acq	Same	Rpleas	Amasked	CS_A	1pleas	distractor1	EVAbeforeCON	AMP_CSunple	AMP23	7	26	0	0	300	300	0	0	526	50	0	0	0	0	0	1	blank2r.bmp	0	1	DHJF	0	1	blank2r.bmp	79	26	pic26.bmp	199	1	whitenoise_No3.bmp	306	0	0	0	0	0	0	0	0	0	0	0	0	0	0	0	0	0	0	0	0	0	0	0	0	0	0	0	0	0	0	0	0	0	0	0	0	0	0	0
032719	15:18:19	15:31:52	812471	5.0.10.0	4_exp_AMP_EVA_AWA_CON	180	Rpleas_acq	Same	Rpleas	Amasked	CS_A	1pleas	distractor1	EVAbeforeCON	AMP_CSunple	AMP23	7	27	0	0	300	300	0	0	309	46	0	1	0	0	0	1	blank2r.bmp	0	1	DHJF	0	1	blank2r.bmp	79	149	pic149.bmp	199	1	whitenoise_No3.bmp	306	0	0	0	0	0	0	0	0	0	0	0	0	0	0	0	0	0	0	0	0	0	0	0	0	0	0	0	0	0	0	0	0	0	0	0	0	0	0	0
032719	15:18:19	15:31:53	813923	5.0.10.0	4_exp_AMP_EVA_AWA_CON	180	Rpleas_acq	Same	Rpleas	Amasked	CS_A	1pleas	distractor1	EVAbeforeCON	AMP_CSpleas	AMP23	7	28	0	0	300	300	0	0	536	46	0	0	0	0	0	1	blank2r.bmp	0	1	CPLW	0	1	blank2r.bmp	79	25	pic25.bmp	199	1	whitenoise_No3.bmp	306	0	0	0	0	0	0	0	0	0	0	0	0	0	0	0	0	0	0	0	0	0	0	0	0	0	0	0	0	0	0	0	0	0	0	0	0	0	0	0
032719	15:18:19	15:31:55	815376	5.0.10.0	4_exp_AMP_EVA_AWA_CON	180	Rpleas_acq	Same	Rpleas	Amasked	CS_A	1pleas	distractor1	EVAbeforeCON	AMP_CSpleas	AMP23	7	29	0	0	300	300	0	0	539	46	0	0	0	0	0	1	blank2r.bmp	0	1	CPLW	0	1	blank2r.bmp	79	64	pic64.bmp	199	1	whitenoise_No3.bmp	306	0	0	0	0	0	0	0	0	0	0	0	0	0	0	0	0	0	0	0	0	0	0	0	0	0	0	0	0	0	0	0	0	0	0	0	0	0	0	0
032719	15:18:19	15:31:56	816802	5.0.10.0	4_exp_AMP_EVA_AWA_CON	180	Rpleas_acq	Same	Rpleas	Amasked	CS_A	1pleas	distractor1	EVAbeforeCON	AMP_distractor	AMP23	7	30	0	0	300	300	0	0	495	50	0	0	0	0	0	1	blank2r.bmp	0	1	ZGXT	0	1	blank2r.bmp	79	63	pic63.bmp	199	1	whitenoise_No3.bmp	306	0	0	0	0	0	0	0	0	0	0	0	0	0	0	0	0	0	0	0	0	0	0	0	0	0	0	0	0	0	0	0	0	0	0	0	0	0	0	0
032719	15:18:19	15:31:58	818215	5.0.10.0	4_exp_AMP_EVA_AWA_CON	180	Rpleas_acq	Same	Rpleas	Amasked	CS_A	1pleas	distractor1	EVAbeforeCON	AMP_CSpleas	AMP23	7	31	0	0	300	300	0	0	488	46	0	0	0	0	0	1	blank2r.bmp	0	1	CPLW	0	1	blank2r.bmp	79	130	pic130.bmp	199	1	whitenoise_No3.bmp	306	0	0	0	0	0	0	0	0	0	0	0	0	0	0	0	0	0	0	0	0	0	0	0	0	0	0	0	0	0	0	0	0	0	0	0	0	0	0	0
032719	15:18:19	15:31:59	819481	5.0.10.0	4_exp_AMP_EVA_AWA_CON	180	Rpleas_acq	Same	Rpleas	Amasked	CS_A	1pleas	distractor1	EVAbeforeCON	AMP_CSpleas	AMP23	7	32	0	0	300	300	0	0	338	50	0	1	0	0	0	1	blank2r.bmp	0	1	CPLW	0	1	blank2r.bmp	79	41	pic41.bmp	199	1	whitenoise_No3.bmp	306	0	0	0	0	0	0	0	0	0	0	0	0	0	0	0	0	0	0	0	0	0	0	0	0	0	0	0	0	0	0	0	0	0	0	0	0	0	0	0
032719	15:18:19	15:32:00	820694	5.0.10.0	4_exp_AMP_EVA_AWA_CON	180	Rpleas_acq	Same	Rpleas	Amasked	CS_A	1pleas	distractor1	EVAbeforeCON	AMP_CSunple	AMP23	7	33	0	0	300	300	0	0	281	50	0	0	0	0	0	1	blank2r.bmp	0	1	DHJF	0	1	blank2r.bmp	79	30	pic30.bmp	199	1	whitenoise_No3.bmp	306	0	0	0	0	0	0	0	0	0	0	0	0	0	0	0	0	0	0	0	0	0	0	0	0	0	0	0	0	0	0	0	0	0	0	0	0	0	0	0
032719	15:18:19	15:32:02	822107	5.0.10.0	4_exp_AMP_EVA_AWA_CON	180	Rpleas_acq	Same	Rpleas	Amasked	CS_A	1pleas	distractor1	EVAbeforeCON	AMP_distractor	AMP23	7	34	0	0	300	300	0	0	497	46	0	0	0	0	0	1	blank2r.bmp	0	1	ZGXT	0	1	blank2r.bmp	79	89	pic89.bmp	199	1	whitenoise_No3.bmp	306	0	0	0	0	0	0	0	0	0	0	0	0	0	0	0	0	0	0	0	0	0	0	0	0	0	0	0	0	0	0	0	0	0	0	0	0	0	0	0
032719	15:18:19	15:32:03	823320	5.0.10.0	4_exp_AMP_EVA_AWA_CON	180	Rpleas_acq	Same	Rpleas	Amasked	CS_A	1pleas	distractor1	EVAbeforeCON	AMP_CSpleas	AMP23	7	35	0	0	300	300	0	0	288	50	0	1	0	0	0	1	blank2r.bmp	0	1	CPLW	0	1	blank2r.bmp	79	37	pic37.bmp	199	1	whitenoise_No3.bmp	306	0	0	0	0	0	0	0	0	0	0	0	0	0	0	0	0	0	0	0	0	0	0	0	0	0	0	0	0	0	0	0	0	0	0	0	0	0	0	0
