date	time	script.currenttime	script.elapsedtime	build	script.currentexpt	subject	expressions.LRpleas_acq	expressions.SameOppo	expressions.condition_Lpleas	expressions.ABmasked	expressions.conditionCS_A	expressions.condition_1pleas	expressions.condition_distractor_AMP	expressions.AWACON_AMPEVA_first	trialcode	blockcode	blocknum	trialnum	windowcenter	inwindow	pretrialpause	posttrialpause	trialduration	trialtimeout	latency	response	expressions.correctedscore	correct	values.vis_performance	values.vis_rating_sum	values.vis_rating_mean	stimulusnumber1	stimulusitem1	stimulusonset1	stimulusnumber2	stimulusitem2	stimulusonset2	stimulusnumber3	stimulusitem3	stimulusonset3	stimulusnumber4	stimulusitem4	stimulusonset4	stimulusnumber5	stimulusitem5	stimulusonset5	stimulusnumber6	stimulusitem6	stimulusonset6	stimulusnumber7	stimulusitem7	stimulusonset7	stimulusnumber8	stimulusitem8	stimulusonset8	stimulusnumber9	stimulusitem9	stimulusonset9	stimulusnumber10	stimulusitem10	stimulusonset10	stimulusnumber11	stimulusitem11	stimulusonset11	stimulusnumber12	stimulusitem12	stimulusonset12	stimulusnumber13	stimulusitem13	stimulusonset13	stimulusnumber14	stimulusitem14	stimulusonset14	stimulusnumber15	stimulusitem15	stimulusonset15	stimulusnumber16	stimulusitem16	stimulusonset16	stimulusnumber17	stimulusitem17	stimulusonset17	stimulusnumber18	stimulusitem18	stimulusonset18
121118	11:16:47	11:18:00	72303	5.0.10.0	4_exp_AWA_CON_AMP_EVA	3	Rpleas_acq	Oppo	Rpleas	Bmasked	CS_B	1pleas	distractor1	CONbeforeEVA	acq_US_pleas_masked	acq1_masked	1	1	0	0	300	300	0	0	1099	50	0	1	0	0	0	1	blank2r.bmp	0	1	+	0	1	B1r.bmp	492	1	blank2r.bmp	786	1	BMVZ	786	1	blank2r.bmp	866	5	helfen	866	0	0	0	0	0	0	0	0	0	0	0	0	0	0	0	0	0	0	0	0	0	0	0	0	0	0	0	0	0	0	0	0	0
121118	11:16:47	11:18:02	74395	5.0.10.0	4_exp_AWA_CON_AMP_EVA	3	Rpleas_acq	Oppo	Rpleas	Bmasked	CS_B	1pleas	distractor1	CONbeforeEVA	acq_new_unple_masked	acq1_masked	1	2	0	0	300	300	0	0	615	46	0	1	0	0	0	1	blank2r.bmp	0	1	+	0	5	C1r.bmp	492	1	blank2r.bmp	786	7	C3r.bmp	786	1	blank2r.bmp	866	2	rächen	866	0	0	0	0	0	0	0	0	0	0	0	0	0	0	0	0	0	0	0	0	0	0	0	0	0	0	0	0	0	0	0	0	0
121118	11:16:47	11:18:04	76421	5.0.10.0	4_exp_AWA_CON_AMP_EVA	3	Rpleas_acq	Oppo	Rpleas	Bmasked	CS_B	1pleas	distractor1	CONbeforeEVA	acq_new_pleas_masked	acq1_masked	1	3	0	0	300	300	0	0	545	50	0	1	0	0	0	1	blank2r.bmp	0	1	+	0	4	B4r.bmp	492	1	blank2r.bmp	786	8	C4r.bmp	786	1	blank2r.bmp	866	1	schön	866	0	0	0	0	0	0	0	0	0	0	0	0	0	0	0	0	0	0	0	0	0	0	0	0	0	0	0	0	0	0	0	0	0
121118	11:16:47	11:18:06	78447	5.0.10.0	4_exp_AWA_CON_AMP_EVA	3	Rpleas_acq	Oppo	Rpleas	Bmasked	CS_B	1pleas	distractor1	CONbeforeEVA	acq_new_unple_masked	acq1_masked	1	4	0	0	300	300	0	0	545	46	0	1	0	0	0	1	blank2r.bmp	0	1	+	0	6	C2r.bmp	492	1	blank2r.bmp	786	4	B4r.bmp	786	1	blank2r.bmp	866	6	leiden	866	0	0	0	0	0	0	0	0	0	0	0	0	0	0	0	0	0	0	0	0	0	0	0	0	0	0	0	0	0	0	0	0	0
121118	11:16:47	11:18:08	80579	5.0.10.0	4_exp_AWA_CON_AMP_EVA	3	Rpleas_acq	Oppo	Rpleas	Bmasked	CS_B	1pleas	distractor1	CONbeforeEVA	acq_US_unple_masked	acq1_masked	1	5	0	0	300	300	0	0	649	46	0	1	0	0	0	1	blank2r.bmp	0	1	+	0	3	B3r.bmp	492	1	blank2r.bmp	786	1	GKQX	786	1	blank2r.bmp	866	1	schroff	866	0	0	0	0	0	0	0	0	0	0	0	0	0	0	0	0	0	0	0	0	0	0	0	0	0	0	0	0	0	0	0	0	0
121118	11:16:47	11:18:11	82725	5.0.10.0	4_exp_AWA_CON_AMP_EVA	3	Rpleas_acq	Oppo	Rpleas	Bmasked	CS_B	1pleas	distractor1	CONbeforeEVA	acq_US_unple_masked	acq1_masked	1	6	0	0	300	300	0	0	662	46	0	1	0	0	0	1	blank2r.bmp	0	1	+	0	2	B2r.bmp	492	1	blank2r.bmp	786	1	GKQX	786	1	blank2r.bmp	866	4	tyrannisch	866	0	0	0	0	0	0	0	0	0	0	0	0	0	0	0	0	0	0	0	0	0	0	0	0	0	0	0	0	0	0	0	0	0
121118	11:16:47	11:18:13	85098	5.0.10.0	4_exp_AWA_CON_AMP_EVA	3	Rpleas_acq	Oppo	Rpleas	Bmasked	CS_B	1pleas	distractor1	CONbeforeEVA	acq_new_unple_masked	acq1_masked	1	7	0	0	300	300	0	0	881	46	0	1	0	0	0	1	blank2r.bmp	0	1	+	0	7	C3r.bmp	492	1	blank2r.bmp	786	2	B2r.bmp	786	1	blank2r.bmp	866	1	schlecht	866	0	0	0	0	0	0	0	0	0	0	0	0	0	0	0	0	0	0	0	0	0	0	0	0	0	0	0	0	0	0	0	0	0
121118	11:16:47	11:18:15	87097	5.0.10.0	4_exp_AWA_CON_AMP_EVA	3	Rpleas_acq	Oppo	Rpleas	Bmasked	CS_B	1pleas	distractor1	CONbeforeEVA	acq_US_pleas_masked	acq1_masked	1	8	0	0	300	300	0	0	531	50	0	1	0	0	0	1	blank2r.bmp	0	1	+	0	8	C4r.bmp	492	1	blank2r.bmp	786	1	BMVZ	786	1	blank2r.bmp	866	1	schlau	866	0	0	0	0	0	0	0	0	0	0	0	0	0	0	0	0	0	0	0	0	0	0	0	0	0	0	0	0	0	0	0	0	0
121118	11:16:47	11:18:17	89363	5.0.10.0	4_exp_AWA_CON_AMP_EVA	3	Rpleas_acq	Oppo	Rpleas	Bmasked	CS_B	1pleas	distractor1	CONbeforeEVA	acq_US_unple_masked	acq1_masked	1	9	0	0	300	300	0	0	780	46	0	1	0	0	0	1	blank2r.bmp	0	1	+	0	4	B4r.bmp	492	1	blank2r.bmp	786	1	GKQX	786	1	blank2r.bmp	866	5	hindern	866	0	0	0	0	0	0	0	0	0	0	0	0	0	0	0	0	0	0	0	0	0	0	0	0	0	0	0	0	0	0	0	0	0
121118	11:16:47	11:18:19	91442	5.0.10.0	4_exp_AWA_CON_AMP_EVA	3	Rpleas_acq	Oppo	Rpleas	Bmasked	CS_B	1pleas	distractor1	CONbeforeEVA	acq_new_pleas_masked	acq1_masked	1	10	0	0	300	300	0	0	586	50	0	1	0	0	0	1	blank2r.bmp	0	1	+	0	7	C3r.bmp	492	1	blank2r.bmp	786	1	B1r.bmp	786	1	blank2r.bmp	866	2	retten	866	0	0	0	0	0	0	0	0	0	0	0	0	0	0	0	0	0	0	0	0	0	0	0	0	0	0	0	0	0	0	0	0	0
121118	11:16:47	11:18:21	93481	5.0.10.0	4_exp_AWA_CON_AMP_EVA	3	Rpleas_acq	Oppo	Rpleas	Bmasked	CS_B	1pleas	distractor1	CONbeforeEVA	acq_new_pleas_masked	acq1_masked	1	11	0	0	300	300	0	0	547	50	0	1	0	0	0	1	blank2r.bmp	0	1	+	0	6	C2r.bmp	492	1	blank2r.bmp	786	5	C1r.bmp	786	1	blank2r.bmp	866	5	loyal	866	0	0	0	0	0	0	0	0	0	0	0	0	0	0	0	0	0	0	0	0	0	0	0	0	0	0	0	0	0	0	0	0	0
121118	11:16:47	11:18:23	95547	5.0.10.0	4_exp_AWA_CON_AMP_EVA	3	Rpleas_acq	Oppo	Rpleas	Bmasked	CS_B	1pleas	distractor1	CONbeforeEVA	acq_US_pleas_masked	acq1_masked	1	12	0	0	300	300	0	0	597	50	0	1	0	0	0	1	blank2r.bmp	0	1	+	0	8	C4r.bmp	492	1	blank2r.bmp	786	1	BMVZ	786	1	blank2r.bmp	866	4	tolerant	866	0	0	0	0	0	0	0	0	0	0	0	0	0	0	0	0	0	0	0	0	0	0	0	0	0	0	0	0	0	0	0	0	0
121118	11:16:47	11:18:25	97506	5.0.10.0	4_exp_AWA_CON_AMP_EVA	3	Rpleas_acq	Oppo	Rpleas	Bmasked	CS_B	1pleas	distractor1	CONbeforeEVA	acq_US_pleas_masked	acq1_masked	1	13	0	0	300	300	0	0	483	50	0	1	0	0	0	1	blank2r.bmp	0	1	+	0	1	B1r.bmp	492	1	blank2r.bmp	786	1	BMVZ	786	1	blank2r.bmp	866	2	ehrlich	866	0	0	0	0	0	0	0	0	0	0	0	0	0	0	0	0	0	0	0	0	0	0	0	0	0	0	0	0	0	0	0	0	0
121118	11:16:47	11:18:27	99492	5.0.10.0	4_exp_AWA_CON_AMP_EVA	3	Rpleas_acq	Oppo	Rpleas	Bmasked	CS_B	1pleas	distractor1	CONbeforeEVA	acq_US_pleas_masked	acq1_masked	1	14	0	0	300	300	0	0	499	50	0	1	0	0	0	1	blank2r.bmp	0	1	+	0	3	B3r.bmp	492	1	blank2r.bmp	786	1	BMVZ	786	1	blank2r.bmp	866	3	spielen	866	0	0	0	0	0	0	0	0	0	0	0	0	0	0	0	0	0	0	0	0	0	0	0	0	0	0	0	0	0	0	0	0	0
121118	11:16:47	11:18:29	101478	5.0.10.0	4_exp_AWA_CON_AMP_EVA	3	Rpleas_acq	Oppo	Rpleas	Bmasked	CS_B	1pleas	distractor1	CONbeforeEVA	acq_new_pleas_masked	acq1_masked	1	15	0	0	300	300	0	0	508	50	0	1	0	0	0	1	blank2r.bmp	0	1	+	0	5	C1r.bmp	492	1	blank2r.bmp	786	6	C2r.bmp	786	1	blank2r.bmp	866	3	fair	866	0	0	0	0	0	0	0	0	0	0	0	0	0	0	0	0	0	0	0	0	0	0	0	0	0	0	0	0	0	0	0	0	0
121118	11:16:47	11:18:31	103397	5.0.10.0	4_exp_AWA_CON_AMP_EVA	3	Rpleas_acq	Oppo	Rpleas	Bmasked	CS_B	1pleas	distractor1	CONbeforeEVA	acq_US_unple_masked	acq1_masked	1	16	0	0	300	300	0	0	438	46	0	1	0	0	0	1	blank2r.bmp	0	1	+	0	2	B2r.bmp	492	1	blank2r.bmp	786	1	GKQX	786	1	blank2r.bmp	866	3	strafen	866	0	0	0	0	0	0	0	0	0	0	0	0	0	0	0	0	0	0	0	0	0	0	0	0	0	0	0	0	0	0	0	0	0
121118	11:16:47	11:18:33	105396	5.0.10.0	4_exp_AWA_CON_AMP_EVA	3	Rpleas_acq	Oppo	Rpleas	Bmasked	CS_B	1pleas	distractor1	CONbeforeEVA	acq_US_unple_masked	acq1_masked	1	17	0	0	300	300	0	0	521	46	0	1	0	0	0	1	blank2r.bmp	0	1	+	0	5	C1r.bmp	492	1	blank2r.bmp	786	1	GKQX	786	1	blank2r.bmp	866	2	eitel	866	0	0	0	0	0	0	0	0	0	0	0	0	0	0	0	0	0	0	0	0	0	0	0	0	0	0	0	0	0	0	0	0	0
121118	11:16:47	11:18:35	107368	5.0.10.0	4_exp_AWA_CON_AMP_EVA	3	Rpleas_acq	Oppo	Rpleas	Bmasked	CS_B	1pleas	distractor1	CONbeforeEVA	acq_new_pleas_masked	acq1_masked	1	18	0	0	300	300	0	0	499	50	0	1	0	0	0	1	blank2r.bmp	0	1	+	0	3	B3r.bmp	492	1	blank2r.bmp	786	3	B3r.bmp	786	1	blank2r.bmp	866	6	lachen	866	0	0	0	0	0	0	0	0	0	0	0	0	0	0	0	0	0	0	0	0	0	0	0	0	0	0	0	0	0	0	0	0	0
121118	11:16:47	11:18:37	109608	5.0.10.0	4_exp_AWA_CON_AMP_EVA	3	Rpleas_acq	Oppo	Rpleas	Bmasked	CS_B	1pleas	distractor1	CONbeforeEVA	acq_US_unple_masked	acq1_masked	1	19	0	0	300	300	0	0	538	50	0	0	0	0	0	1	blank2r.bmp	0	1	+	0	1	B1r.bmp	492	1	blank2r.bmp	786	1	GKQX	786	1	blank2r.bmp	866	6	tot	866	1	FEHLER	1439	0	0	0	0	0	0	0	0	0	0	0	0	0	0	0	0	0	0	0	0	0	0	0	0	0	0	0	0	0	0
121118	11:16:47	11:18:40	112100	5.0.10.0	4_exp_AWA_CON_AMP_EVA	3	Rpleas_acq	Oppo	Rpleas	Bmasked	CS_B	1pleas	distractor1	CONbeforeEVA	acq_new_unple_masked	acq1_masked	1	20	0	0	300	300	0	0	1005	50	0	0	0	0	0	1	blank2r.bmp	0	1	+	0	4	B4r.bmp	492	1	blank2r.bmp	786	3	B3r.bmp	786	1	blank2r.bmp	866	3	faul	866	1	FEHLER	1905	0	0	0	0	0	0	0	0	0	0	0	0	0	0	0	0	0	0	0	0	0	0	0	0	0	0	0	0	0	0
121118	11:16:47	11:18:42	114272	5.0.10.0	4_exp_AWA_CON_AMP_EVA	3	Rpleas_acq	Oppo	Rpleas	Bmasked	CS_B	1pleas	distractor1	CONbeforeEVA	acq_new_unple_masked	acq1_masked	1	21	0	0	300	300	0	0	896	46	0	1	0	0	0	1	blank2r.bmp	0	1	+	0	2	B2r.bmp	492	1	blank2r.bmp	786	5	C1r.bmp	786	1	blank2r.bmp	866	4	fanatisch	866	0	0	0	0	0	0	0	0	0	0	0	0	0	0	0	0	0	0	0	0	0	0	0	0	0	0	0	0	0	0	0	0	0
121118	11:16:47	11:18:44	116271	5.0.10.0	4_exp_AWA_CON_AMP_EVA	3	Rpleas_acq	Oppo	Rpleas	Bmasked	CS_B	1pleas	distractor1	CONbeforeEVA	acq_new_unple_masked	acq1_masked	1	22	0	0	300	300	0	0	528	46	0	1	0	0	0	1	blank2r.bmp	0	1	+	0	7	C3r.bmp	492	1	blank2r.bmp	786	8	C4r.bmp	786	1	blank2r.bmp	866	5	lasch	866	0	0	0	0	0	0	0	0	0	0	0	0	0	0	0	0	0	0	0	0	0	0	0	0	0	0	0	0	0	0	0	0	0
121118	11:16:47	11:18:46	118297	5.0.10.0	4_exp_AWA_CON_AMP_EVA	3	Rpleas_acq	Oppo	Rpleas	Bmasked	CS_B	1pleas	distractor1	CONbeforeEVA	acq_US_pleas_masked	acq1_masked	1	23	0	0	300	300	0	0	532	50	0	1	0	0	0	1	blank2r.bmp	0	1	+	0	8	C4r.bmp	492	1	blank2r.bmp	786	1	BMVZ	786	1	blank2r.bmp	866	6	treu	866	0	0	0	0	0	0	0	0	0	0	0	0	0	0	0	0	0	0	0	0	0	0	0	0	0	0	0	0	0	0	0	0	0
121118	11:16:47	11:18:48	120550	5.0.10.0	4_exp_AWA_CON_AMP_EVA	3	Rpleas_acq	Oppo	Rpleas	Bmasked	CS_B	1pleas	distractor1	CONbeforeEVA	acq_new_pleas_masked	acq1_masked	1	24	0	0	300	300	0	0	774	50	0	1	0	0	0	1	blank2r.bmp	0	1	+	0	6	C2r.bmp	492	1	blank2r.bmp	786	1	B1r.bmp	786	1	blank2r.bmp	866	4	freundlich	866	0	0	0	0	0	0	0	0	0	0	0	0	0	0	0	0	0	0	0	0	0	0	0	0	0	0	0	0	0	0	0	0	0
121118	11:16:47	11:18:51	122655	5.0.10.0	4_exp_AWA_CON_AMP_EVA	3	Rpleas_acq	Oppo	Rpleas	Bmasked	CS_B	1pleas	distractor1	CONbeforeEVA	acq_new_unple_masked	acq1_masked	1	25	0	0	300	300	0	0	616	46	0	1	0	0	0	1	blank2r.bmp	0	1	+	0	8	C4r.bmp	492	1	blank2r.bmp	786	4	B4r.bmp	786	1	blank2r.bmp	866	4	fanatisch	866	0	0	0	0	0	0	0	0	0	0	0	0	0	0	0	0	0	0	0	0	0	0	0	0	0	0	0	0	0	0	0	0	0
121118	11:16:47	11:18:53	124721	5.0.10.0	4_exp_AWA_CON_AMP_EVA	3	Rpleas_acq	Oppo	Rpleas	Bmasked	CS_B	1pleas	distractor1	CONbeforeEVA	acq_US_pleas_masked	acq1_masked	1	26	0	0	300	300	0	0	574	50	0	1	0	0	0	1	blank2r.bmp	0	1	+	0	2	B2r.bmp	492	1	blank2r.bmp	786	1	BMVZ	786	1	blank2r.bmp	866	6	treu	866	0	0	0	0	0	0	0	0	0	0	0	0	0	0	0	0	0	0	0	0	0	0	0	0	0	0	0	0	0	0	0	0	0
121118	11:16:47	11:18:55	126814	5.0.10.0	4_exp_AWA_CON_AMP_EVA	3	Rpleas_acq	Oppo	Rpleas	Bmasked	CS_B	1pleas	distractor1	CONbeforeEVA	acq_new_unple_masked	acq1_masked	1	27	0	0	300	300	0	0	623	46	0	1	0	0	0	1	blank2r.bmp	0	1	+	0	7	C3r.bmp	492	1	blank2r.bmp	786	6	C2r.bmp	786	1	blank2r.bmp	866	6	leiden	866	0	0	0	0	0	0	0	0	0	0	0	0	0	0	0	0	0	0	0	0	0	0	0	0	0	0	0	0	0	0	0	0	0
121118	11:16:47	11:18:57	128866	5.0.10.0	4_exp_AWA_CON_AMP_EVA	3	Rpleas_acq	Oppo	Rpleas	Bmasked	CS_B	1pleas	distractor1	CONbeforeEVA	acq_US_unple_masked	acq1_masked	1	28	0	0	300	300	0	0	570	46	0	1	0	0	0	1	blank2r.bmp	0	1	+	0	1	B1r.bmp	492	1	blank2r.bmp	786	1	GKQX	786	1	blank2r.bmp	866	1	schroff	866	0	0	0	0	0	0	0	0	0	0	0	0	0	0	0	0	0	0	0	0	0	0	0	0	0	0	0	0	0	0	0	0	0
121118	11:16:47	11:18:59	130905	5.0.10.0	4_exp_AWA_CON_AMP_EVA	3	Rpleas_acq	Oppo	Rpleas	Bmasked	CS_B	1pleas	distractor1	CONbeforeEVA	acq_US_pleas_masked	acq1_masked	1	29	0	0	300	300	0	0	558	50	0	1	0	0	0	1	blank2r.bmp	0	1	+	0	5	C1r.bmp	492	1	blank2r.bmp	786	1	BMVZ	786	1	blank2r.bmp	866	2	ehrlich	866	0	0	0	0	0	0	0	0	0	0	0	0	0	0	0	0	0	0	0	0	0	0	0	0	0	0	0	0	0	0	0	0	0
121118	11:16:47	11:19:01	133011	5.0.10.0	4_exp_AWA_CON_AMP_EVA	3	Rpleas_acq	Oppo	Rpleas	Bmasked	CS_B	1pleas	distractor1	CONbeforeEVA	acq_new_unple_masked	acq1_masked	1	30	0	0	300	300	0	0	632	46	0	1	0	0	0	1	blank2r.bmp	0	1	+	0	3	B3r.bmp	492	1	blank2r.bmp	786	2	B2r.bmp	786	1	blank2r.bmp	866	3	faul	866	0	0	0	0	0	0	0	0	0	0	0	0	0	0	0	0	0	0	0	0	0	0	0	0	0	0	0	0	0	0	0	0	0
121118	11:16:47	11:19:03	135157	5.0.10.0	4_exp_AWA_CON_AMP_EVA	3	Rpleas_acq	Oppo	Rpleas	Bmasked	CS_B	1pleas	distractor1	CONbeforeEVA	acq_US_pleas_masked	acq1_masked	1	31	0	0	300	300	0	0	652	50	0	1	0	0	0	1	blank2r.bmp	0	1	+	0	4	B4r.bmp	492	1	blank2r.bmp	786	1	BMVZ	786	1	blank2r.bmp	866	4	tolerant	866	0	0	0	0	0	0	0	0	0	0	0	0	0	0	0	0	0	0	0	0	0	0	0	0	0	0	0	0	0	0	0	0	0
121118	11:16:47	11:19:05	137156	5.0.10.0	4_exp_AWA_CON_AMP_EVA	3	Rpleas_acq	Oppo	Rpleas	Bmasked	CS_B	1pleas	distractor1	CONbeforeEVA	acq_US_unple_masked	acq1_masked	1	32	0	0	300	300	0	0	521	46	0	1	0	0	0	1	blank2r.bmp	0	1	+	0	6	C2r.bmp	492	1	blank2r.bmp	786	1	GKQX	786	1	blank2r.bmp	866	4	tyrannisch	866	0	0	0	0	0	0	0	0	0	0	0	0	0	0	0	0	0	0	0	0	0	0	0	0	0	0	0	0	0	0	0	0	0
121118	11:16:47	11:19:07	139115	5.0.10.0	4_exp_AWA_CON_AMP_EVA	3	Rpleas_acq	Oppo	Rpleas	Bmasked	CS_B	1pleas	distractor1	CONbeforeEVA	acq_new_pleas_masked	acq1_masked	1	33	0	0	300	300	0	0	487	50	0	1	0	0	0	1	blank2r.bmp	0	1	+	0	6	C2r.bmp	492	1	blank2r.bmp	786	7	C3r.bmp	786	1	blank2r.bmp	866	1	schön	866	0	0	0	0	0	0	0	0	0	0	0	0	0	0	0	0	0	0	0	0	0	0	0	0	0	0	0	0	0	0	0	0	0
121118	11:16:47	11:19:10	142274	5.0.10.0	4_exp_AWA_CON_AMP_EVA	3	Rpleas_acq	Oppo	Rpleas	Bmasked	CS_B	1pleas	distractor1	CONbeforeEVA	acq_new_pleas_masked	acq1_masked	1	34	0	0	300	300	0	0	1690	50	0	1	0	0	0	1	blank2r.bmp	0	1	+	0	3	B3r.bmp	492	1	blank2r.bmp	786	5	C1r.bmp	786	1	blank2r.bmp	866	5	loyal	866	0	0	0	0	0	0	0	0	0	0	0	0	0	0	0	0	0	0	0	0	0	0	0	0	0	0	0	0	0	0	0	0	0
121118	11:16:47	11:19:12	144487	5.0.10.0	4_exp_AWA_CON_AMP_EVA	3	Rpleas_acq	Oppo	Rpleas	Bmasked	CS_B	1pleas	distractor1	CONbeforeEVA	acq_new_pleas_masked	acq1_masked	1	35	0	0	300	300	0	0	511	46	0	0	0	0	0	1	blank2r.bmp	0	1	+	0	7	C3r.bmp	492	1	blank2r.bmp	786	1	B1r.bmp	786	1	blank2r.bmp	866	6	lachen	866	1	FEHLER	1412	0	0	0	0	0	0	0	0	0	0	0	0	0	0	0	0	0	0	0	0	0	0	0	0	0	0	0	0	0	0
121118	11:16:47	11:19:14	146366	5.0.10.0	4_exp_AWA_CON_AMP_EVA	3	Rpleas_acq	Oppo	Rpleas	Bmasked	CS_B	1pleas	distractor1	CONbeforeEVA	acq_US_unple_masked	acq1_masked	1	36	0	0	300	300	0	0	600	46	0	1	0	0	0	1	blank2r.bmp	0	1	+	0	5	C1r.bmp	492	1	blank2r.bmp	786	1	GKQX	786	1	blank2r.bmp	866	5	hindern	866	0	0	0	0	0	0	0	0	0	0	0	0	0	0	0	0	0	0	0	0	0	0	0	0	0	0	0	0	0	0	0	0	0
121118	11:16:47	11:19:46	177859	5.0.10.0	4_exp_AWA_CON_AMP_EVA	3	Rpleas_acq	Oppo	Rpleas	Bmasked	CS_B	1pleas	distractor1	CONbeforeEVA	acq_new_unple_masked	acq2_masked	2	1	480	0	300	300	0	0	895	46	0	1	0	0	0	1	blank2r.bmp	0	1	+	0	4	B4r.bmp	492	1	blank2r.bmp	786	3	B3r.bmp	786	1	blank2r.bmp	866	1	schlecht	866	1	!	1319	1	!	-1	0	0	0	0	0	0	0	0	0	0	0	0	0	0	0	0	0	0	0	0	0	0	0	0	0	0	0
121118	11:16:47	11:19:48	180152	5.0.10.0	4_exp_AWA_CON_AMP_EVA	3	Rpleas_acq	Oppo	Rpleas	Bmasked	CS_B	1pleas	distractor1	CONbeforeEVA	acq_US_pleas_masked	acq2_masked	2	2	480	1	300	300	0	0	483	50	0	1	0	0	0	1	blank2r.bmp	0	1	+	0	2	B2r.bmp	492	1	blank2r.bmp	786	1	BMVZ	786	1	blank2r.bmp	866	1	schlau	866	1	!	1319	1	!	1386	0	0	0	0	0	0	0	0	0	0	0	0	0	0	0	0	0	0	0	0	0	0	0	0	0	0	0
121118	11:16:47	11:19:50	182498	5.0.10.0	4_exp_AWA_CON_AMP_EVA	3	Rpleas_acq	Oppo	Rpleas	Bmasked	CS_B	1pleas	distractor1	CONbeforeEVA	acq_new_pleas_masked	acq2_masked	2	3	480	0	300	300	0	0	580	50	0	1	0	0	0	1	blank2r.bmp	0	1	+	0	1	B1r.bmp	492	1	blank2r.bmp	786	2	B2r.bmp	786	1	blank2r.bmp	866	2	retten	866	1	!	1319	1	!	-1	0	0	0	0	0	0	0	0	0	0	0	0	0	0	0	0	0	0	0	0	0	0	0	0	0	0	0
121118	11:16:47	11:19:53	184777	5.0.10.0	4_exp_AWA_CON_AMP_EVA	3	Rpleas_acq	Oppo	Rpleas	Bmasked	CS_B	1pleas	distractor1	CONbeforeEVA	acq_new_unple_masked	acq2_masked	2	4	480	1	300	300	0	0	475	46	0	1	0	0	0	1	blank2r.bmp	0	1	+	0	8	C4r.bmp	492	1	blank2r.bmp	786	4	B4r.bmp	786	1	blank2r.bmp	866	2	rächen	866	1	!	1319	1	!	1372	0	0	0	0	0	0	0	0	0	0	0	0	0	0	0	0	0	0	0	0	0	0	0	0	0	0	0
121118	11:16:47	11:19:55	187056	5.0.10.0	4_exp_AWA_CON_AMP_EVA	3	Rpleas_acq	Oppo	Rpleas	Bmasked	CS_B	1pleas	distractor1	CONbeforeEVA	acq_new_unple_masked	acq2_masked	2	5	480	1	300	300	0	0	479	46	0	1	0	0	0	1	blank2r.bmp	0	1	+	0	6	C2r.bmp	492	1	blank2r.bmp	786	8	C4r.bmp	786	1	blank2r.bmp	866	5	lasch	866	1	!	1319	1	!	1386	0	0	0	0	0	0	0	0	0	0	0	0	0	0	0	0	0	0	0	0	0	0	0	0	0	0	0
121118	11:16:47	11:19:57	189441	5.0.10.0	4_exp_AWA_CON_AMP_EVA	3	Rpleas_acq	Oppo	Rpleas	Bmasked	CS_B	1pleas	distractor1	CONbeforeEVA	acq_new_pleas_masked	acq2_masked	2	6	480	0	300	300	0	0	385	46	0	0	0	0	0	1	blank2r.bmp	0	1	+	0	1	B1r.bmp	492	1	blank2r.bmp	786	6	C2r.bmp	786	1	blank2r.bmp	866	3	fair	866	1	FEHLER	1599	1	!	-1	1	!	-1	0	0	0	0	0	0	0	0	0	0	0	0	0	0	0	0	0	0	0	0	0	0	0	0
121118	11:16:47	11:19:59	191547	5.0.10.0	4_exp_AWA_CON_AMP_EVA	3	Rpleas_acq	Oppo	Rpleas	Bmasked	CS_B	1pleas	distractor1	CONbeforeEVA	acq_US_pleas_masked	acq2_masked	2	7	480	1	300	300	0	0	521	50	0	1	0	0	0	1	blank2r.bmp	0	1	+	0	7	C3r.bmp	492	1	blank2r.bmp	786	1	BMVZ	786	1	blank2r.bmp	866	3	spielen	866	1	!	1319	1	!	1426	0	0	0	0	0	0	0	0	0	0	0	0	0	0	0	0	0	0	0	0	0	0	0	0	0	0	0
121118	11:16:47	11:20:02	193840	5.0.10.0	4_exp_AWA_CON_AMP_EVA	3	Rpleas_acq	Oppo	Rpleas	Bmasked	CS_B	1pleas	distractor1	CONbeforeEVA	acq_US_unple_masked	acq2_masked	2	8	480	1	300	300	0	0	500	46	0	1	0	0	0	1	blank2r.bmp	0	1	+	0	5	C1r.bmp	492	1	blank2r.bmp	786	1	GKQX	786	1	blank2r.bmp	866	6	tot	866	1	!	1319	1	!	1399	0	0	0	0	0	0	0	0	0	0	0	0	0	0	0	0	0	0	0	0	0	0	0	0	0	0	0
121118	11:16:47	11:20:04	196025	5.0.10.0	4_exp_AWA_CON_AMP_EVA	3	Rpleas_acq	Oppo	Rpleas	Bmasked	CS_B	1pleas	distractor1	CONbeforeEVA	acq_US_pleas_masked	acq2_masked	2	9	480	0	300	300	0	0	409	50	0	1	0	0	0	1	blank2r.bmp	0	1	+	0	4	B4r.bmp	492	1	blank2r.bmp	786	1	BMVZ	786	1	blank2r.bmp	866	5	helfen	866	1	!	-1	1	!	-1	0	0	0	0	0	0	0	0	0	0	0	0	0	0	0	0	0	0	0	0	0	0	0	0	0	0	0
121118	11:16:47	11:20:06	198331	5.0.10.0	4_exp_AWA_CON_AMP_EVA	3	Rpleas_acq	Oppo	Rpleas	Bmasked	CS_B	1pleas	distractor1	CONbeforeEVA	acq_US_unple_masked	acq2_masked	2	10	480	1	300	300	0	0	491	46	0	1	0	0	0	1	blank2r.bmp	0	1	+	0	8	C4r.bmp	492	1	blank2r.bmp	786	1	GKQX	786	1	blank2r.bmp	866	3	strafen	866	1	!	1319	1	!	1386	0	0	0	0	0	0	0	0	0	0	0	0	0	0	0	0	0	0	0	0	0	0	0	0	0	0	0
121118	11:16:47	11:20:08	200490	5.0.10.0	4_exp_AWA_CON_AMP_EVA	3	Rpleas_acq	Oppo	Rpleas	Bmasked	CS_B	1pleas	distractor1	CONbeforeEVA	acq_US_unple_masked	acq2_masked	2	11	480	0	300	300	0	0	378	46	0	1	0	0	0	1	blank2r.bmp	0	1	+	0	2	B2r.bmp	492	1	blank2r.bmp	786	1	GKQX	786	1	blank2r.bmp	866	2	eitel	866	1	!	-1	1	!	-1	0	0	0	0	0	0	0	0	0	0	0	0	0	0	0	0	0	0	0	0	0	0	0	0	0	0	0
121118	11:16:47	11:20:11	202943	5.0.10.0	4_exp_AWA_CON_AMP_EVA	3	Rpleas_acq	Oppo	Rpleas	Bmasked	CS_B	1pleas	distractor1	CONbeforeEVA	acq_new_pleas_masked	acq2_masked	2	12	480	0	300	300	0	0	666	50	0	1	0	0	0	1	blank2r.bmp	0	1	+	0	3	B3r.bmp	492	1	blank2r.bmp	786	7	C3r.bmp	786	1	blank2r.bmp	866	4	freundlich	866	1	!	1319	1	!	-1	0	0	0	0	0	0	0	0	0	0	0	0	0	0	0	0	0	0	0	0	0	0	0	0	0	0	0
121118	11:16:47	11:20:13	205408	5.0.10.0	4_exp_AWA_CON_AMP_EVA	3	Rpleas_acq	Oppo	Rpleas	Bmasked	CS_B	1pleas	distractor1	CONbeforeEVA	acq_new_pleas_masked	acq2_masked	2	13	480	0	300	300	0	0	679	50	0	1	0	0	0	1	blank2r.bmp	0	1	+	0	6	C2r.bmp	492	1	blank2r.bmp	786	2	B2r.bmp	786	1	blank2r.bmp	866	2	retten	866	1	!	1319	1	!	-1	0	0	0	0	0	0	0	0	0	0	0	0	0	0	0	0	0	0	0	0	0	0	0	0	0	0	0
121118	11:16:47	11:20:16	207647	5.0.10.0	4_exp_AWA_CON_AMP_EVA	3	Rpleas_acq	Oppo	Rpleas	Bmasked	CS_B	1pleas	distractor1	CONbeforeEVA	acq_US_pleas_masked	acq2_masked	2	14	480	1	300	300	0	0	426	50	0	1	0	0	0	1	blank2r.bmp	0	1	+	0	8	C4r.bmp	492	1	blank2r.bmp	786	1	BMVZ	786	1	blank2r.bmp	866	5	helfen	866	1	!	1319	1	!	1332	0	0	0	0	0	0	0	0	0	0	0	0	0	0	0	0	0	0	0	0	0	0	0	0	0	0	0
121118	11:16:47	11:20:18	209873	5.0.10.0	4_exp_AWA_CON_AMP_EVA	3	Rpleas_acq	Oppo	Rpleas	Bmasked	CS_B	1pleas	distractor1	CONbeforeEVA	acq_new_pleas_masked	acq2_masked	2	15	480	1	300	300	0	0	438	50	0	1	0	0	0	1	blank2r.bmp	0	1	+	0	4	B4r.bmp	492	1	blank2r.bmp	786	8	C4r.bmp	786	1	blank2r.bmp	866	6	lachen	866	1	!	1319	1	!	1332	0	0	0	0	0	0	0	0	0	0	0	0	0	0	0	0	0	0	0	0	0	0	0	0	0	0	0
121118	11:16:47	11:20:20	212019	5.0.10.0	4_exp_AWA_CON_AMP_EVA	3	Rpleas_acq	Oppo	Rpleas	Bmasked	CS_B	1pleas	distractor1	CONbeforeEVA	acq_US_pleas_masked	acq2_masked	2	16	480	0	300	300	0	0	379	50	0	1	0	0	0	1	blank2r.bmp	0	1	+	0	7	C3r.bmp	492	1	blank2r.bmp	786	1	BMVZ	786	1	blank2r.bmp	866	2	ehrlich	866	1	!	-1	1	!	-1	0	0	0	0	0	0	0	0	0	0	0	0	0	0	0	0	0	0	0	0	0	0	0	0	0	0	0
121118	11:16:47	11:20:22	214378	5.0.10.0	4_exp_AWA_CON_AMP_EVA	3	Rpleas_acq	Oppo	Rpleas	Bmasked	CS_B	1pleas	distractor1	CONbeforeEVA	acq_new_unple_masked	acq2_masked	2	17	480	0	300	300	0	0	585	46	0	1	0	0	0	1	blank2r.bmp	0	1	+	0	5	C1r.bmp	492	1	blank2r.bmp	786	6	C2r.bmp	786	1	blank2r.bmp	866	1	schlecht	866	1	!	1319	1	!	-1	0	0	0	0	0	0	0	0	0	0	0	0	0	0	0	0	0	0	0	0	0	0	0	0	0	0	0
121118	11:16:47	11:20:25	216697	5.0.10.0	4_exp_AWA_CON_AMP_EVA	3	Rpleas_acq	Oppo	Rpleas	Bmasked	CS_B	1pleas	distractor1	CONbeforeEVA	acq_US_unple_masked	acq2_masked	2	18	480	1	300	300	0	0	518	46	0	1	0	0	0	1	blank2r.bmp	0	1	+	0	3	B3r.bmp	492	1	blank2r.bmp	786	1	GKQX	786	1	blank2r.bmp	866	5	hindern	866	1	!	1319	1	!	1412	0	0	0	0	0	0	0	0	0	0	0	0	0	0	0	0	0	0	0	0	0	0	0	0	0	0	0
121118	11:16:47	11:20:27	218923	5.0.10.0	4_exp_AWA_CON_AMP_EVA	3	Rpleas_acq	Oppo	Rpleas	Bmasked	CS_B	1pleas	distractor1	CONbeforeEVA	acq_new_pleas_masked	acq2_masked	2	19	480	1	300	300	0	0	432	50	0	1	0	0	0	1	blank2r.bmp	0	1	+	0	2	B2r.bmp	492	1	blank2r.bmp	786	1	B1r.bmp	786	1	blank2r.bmp	866	1	schön	866	1	!	1319	1	!	1332	0	0	0	0	0	0	0	0	0	0	0	0	0	0	0	0	0	0	0	0	0	0	0	0	0	0	0
121118	11:16:47	11:20:29	221202	5.0.10.0	4_exp_AWA_CON_AMP_EVA	3	Rpleas_acq	Oppo	Rpleas	Bmasked	CS_B	1pleas	distractor1	CONbeforeEVA	acq_new_unple_masked	acq2_masked	2	20	480	1	300	300	0	0	476	46	0	1	0	0	0	1	blank2r.bmp	0	1	+	0	1	B1r.bmp	492	1	blank2r.bmp	786	5	C1r.bmp	786	1	blank2r.bmp	866	3	faul	866	1	!	1319	1	!	1372	0	0	0	0	0	0	0	0	0	0	0	0	0	0	0	0	0	0	0	0	0	0	0	0	0	0	0
121118	11:16:47	11:20:31	223561	5.0.10.0	4_exp_AWA_CON_AMP_EVA	3	Rpleas_acq	Oppo	Rpleas	Bmasked	CS_B	1pleas	distractor1	CONbeforeEVA	acq_US_unple_masked	acq2_masked	2	21	480	0	300	300	0	0	574	46	0	1	0	0	0	1	blank2r.bmp	0	1	+	0	7	C3r.bmp	492	1	blank2r.bmp	786	1	GKQX	786	1	blank2r.bmp	866	4	tyrannisch	866	1	!	1319	1	!	-1	0	0	0	0	0	0	0	0	0	0	0	0	0	0	0	0	0	0	0	0	0	0	0	0	0	0	0
121118	11:16:47	11:20:34	226066	5.0.10.0	4_exp_AWA_CON_AMP_EVA	3	Rpleas_acq	Oppo	Rpleas	Bmasked	CS_B	1pleas	distractor1	CONbeforeEVA	acq_new_unple_masked	acq2_masked	2	22	480	1	300	300	0	0	485	50	0	0	0	0	0	1	blank2r.bmp	0	1	+	0	1	B1r.bmp	492	1	blank2r.bmp	786	4	B4r.bmp	786	1	blank2r.bmp	866	4	fanatisch	866	1	FEHLER	1705	1	!	1319	1	!	1386	0	0	0	0	0	0	0	0	0	0	0	0	0	0	0	0	0	0	0	0	0	0	0	0
121118	11:16:47	11:20:36	228132	5.0.10.0	4_exp_AWA_CON_AMP_EVA	3	Rpleas_acq	Oppo	Rpleas	Bmasked	CS_B	1pleas	distractor1	CONbeforeEVA	acq_US_unple_masked	acq2_masked	2	23	480	1	300	300	0	0	484	46	0	1	0	0	0	1	blank2r.bmp	0	1	+	0	5	C1r.bmp	492	1	blank2r.bmp	786	1	GKQX	786	1	blank2r.bmp	866	1	schroff	866	1	!	1319	1	!	1386	0	0	0	0	0	0	0	0	0	0	0	0	0	0	0	0	0	0	0	0	0	0	0	0	0	0	0
121118	11:16:47	11:20:38	230398	5.0.10.0	4_exp_AWA_CON_AMP_EVA	3	Rpleas_acq	Oppo	Rpleas	Bmasked	CS_B	1pleas	distractor1	CONbeforeEVA	acq_US_pleas_masked	acq2_masked	2	24	480	1	300	300	0	0	469	50	0	1	0	0	0	1	blank2r.bmp	0	1	+	0	4	B4r.bmp	492	1	blank2r.bmp	786	1	BMVZ	786	1	blank2r.bmp	866	1	schlau	866	1	!	1319	1	!	1372	0	0	0	0	0	0	0	0	0	0	0	0	0	0	0	0	0	0	0	0	0	0	0	0	0	0	0
121118	11:16:47	11:20:41	232677	5.0.10.0	4_exp_AWA_CON_AMP_EVA	3	Rpleas_acq	Oppo	Rpleas	Bmasked	CS_B	1pleas	distractor1	CONbeforeEVA	acq_US_unple_masked	acq2_masked	2	25	480	1	300	300	0	0	479	46	0	1	0	0	0	1	blank2r.bmp	0	1	+	0	6	C2r.bmp	492	1	blank2r.bmp	786	1	GKQX	786	1	blank2r.bmp	866	3	strafen	866	1	!	1319	1	!	1386	0	0	0	0	0	0	0	0	0	0	0	0	0	0	0	0	0	0	0	0	0	0	0	0	0	0	0
121118	11:16:47	11:20:43	234863	5.0.10.0	4_exp_AWA_CON_AMP_EVA	3	Rpleas_acq	Oppo	Rpleas	Bmasked	CS_B	1pleas	distractor1	CONbeforeEVA	acq_new_pleas_masked	acq2_masked	2	26	480	0	300	300	0	0	413	50	0	1	0	0	0	1	blank2r.bmp	0	1	+	0	2	B2r.bmp	492	1	blank2r.bmp	786	7	C3r.bmp	786	1	blank2r.bmp	866	4	freundlich	866	1	!	-1	1	!	-1	0	0	0	0	0	0	0	0	0	0	0	0	0	0	0	0	0	0	0	0	0	0	0	0	0	0	0
121118	11:16:47	11:20:45	237102	5.0.10.0	4_exp_AWA_CON_AMP_EVA	3	Rpleas_acq	Oppo	Rpleas	Bmasked	CS_B	1pleas	distractor1	CONbeforeEVA	acq_new_pleas_masked	acq2_masked	2	27	480	1	300	300	0	0	429	50	0	1	0	0	0	1	blank2r.bmp	0	1	+	0	3	B3r.bmp	492	1	blank2r.bmp	786	3	B3r.bmp	786	1	blank2r.bmp	866	5	loyal	866	1	!	1319	1	!	1332	0	0	0	0	0	0	0	0	0	0	0	0	0	0	0	0	0	0	0	0	0	0	0	0	0	0	0
121118	11:16:47	11:20:47	239354	5.0.10.0	4_exp_AWA_CON_AMP_EVA	3	Rpleas_acq	Oppo	Rpleas	Bmasked	CS_B	1pleas	distractor1	CONbeforeEVA	acq_new_pleas_masked	acq2_masked	2	28	480	1	300	300	0	0	465	50	0	1	0	0	0	1	blank2r.bmp	0	1	+	0	8	C4r.bmp	492	1	blank2r.bmp	786	1	B1r.bmp	786	1	blank2r.bmp	866	3	fair	866	1	!	1319	1	!	1359	0	0	0	0	0	0	0	0	0	0	0	0	0	0	0	0	0	0	0	0	0	0	0	0	0	0	0
121118	11:16:47	11:20:50	241713	5.0.10.0	4_exp_AWA_CON_AMP_EVA	3	Rpleas_acq	Oppo	Rpleas	Bmasked	CS_B	1pleas	distractor1	CONbeforeEVA	acq_new_unple_masked	acq2_masked	2	29	480	0	300	300	0	0	590	46	0	1	0	0	0	1	blank2r.bmp	0	1	+	0	6	C2r.bmp	492	1	blank2r.bmp	786	3	B3r.bmp	786	1	blank2r.bmp	866	5	lasch	866	1	!	1319	1	!	-1	0	0	0	0	0	0	0	0	0	0	0	0	0	0	0	0	0	0	0	0	0	0	0	0	0	0	0
121118	11:16:47	11:20:52	243912	5.0.10.0	4_exp_AWA_CON_AMP_EVA	3	Rpleas_acq	Oppo	Rpleas	Bmasked	CS_B	1pleas	distractor1	CONbeforeEVA	acq_US_pleas_masked	acq2_masked	2	30	480	0	300	300	0	0	413	50	0	1	0	0	0	1	blank2r.bmp	0	1	+	0	3	B3r.bmp	492	1	blank2r.bmp	786	1	BMVZ	786	1	blank2r.bmp	866	3	spielen	866	1	!	-1	1	!	-1	0	0	0	0	0	0	0	0	0	0	0	0	0	0	0	0	0	0	0	0	0	0	0	0	0	0	0
121118	11:16:47	11:20:54	246231	5.0.10.0	4_exp_AWA_CON_AMP_EVA	3	Rpleas_acq	Oppo	Rpleas	Bmasked	CS_B	1pleas	distractor1	CONbeforeEVA	acq_US_pleas_masked	acq2_masked	2	31	480	0	300	300	0	0	307	46	0	0	0	0	0	1	blank2r.bmp	0	1	+	0	2	B2r.bmp	492	1	blank2r.bmp	786	1	BMVZ	786	1	blank2r.bmp	866	6	treu	866	1	FEHLER	1519	1	!	-1	1	!	-1	0	0	0	0	0	0	0	0	0	0	0	0	0	0	0	0	0	0	0	0	0	0	0	0
121118	11:16:47	11:20:56	248337	5.0.10.0	4_exp_AWA_CON_AMP_EVA	3	Rpleas_acq	Oppo	Rpleas	Bmasked	CS_B	1pleas	distractor1	CONbeforeEVA	acq_US_unple_masked	acq2_masked	2	32	480	1	300	300	0	0	520	46	0	1	0	0	0	1	blank2r.bmp	0	1	+	0	1	B1r.bmp	492	1	blank2r.bmp	786	1	GKQX	786	1	blank2r.bmp	866	6	tot	866	1	!	1319	1	!	1426	0	0	0	0	0	0	0	0	0	0	0	0	0	0	0	0	0	0	0	0	0	0	0	0	0	0	0
121118	11:16:47	11:20:59	250643	5.0.10.0	4_exp_AWA_CON_AMP_EVA	3	Rpleas_acq	Oppo	Rpleas	Bmasked	CS_B	1pleas	distractor1	CONbeforeEVA	acq_new_unple_masked	acq2_masked	2	33	480	1	300	300	0	0	517	46	0	1	0	0	0	1	blank2r.bmp	0	1	+	0	5	C1r.bmp	492	1	blank2r.bmp	786	2	B2r.bmp	786	1	blank2r.bmp	866	2	rächen	866	1	!	1319	1	!	1412	0	0	0	0	0	0	0	0	0	0	0	0	0	0	0	0	0	0	0	0	0	0	0	0	0	0	0
121118	11:16:47	11:21:01	252975	5.0.10.0	4_exp_AWA_CON_AMP_EVA	3	Rpleas_acq	Oppo	Rpleas	Bmasked	CS_B	1pleas	distractor1	CONbeforeEVA	acq_US_pleas_masked	acq2_masked	2	34	480	0	300	300	0	0	559	50	0	1	0	0	0	1	blank2r.bmp	0	1	+	0	4	B4r.bmp	492	1	blank2r.bmp	786	1	BMVZ	786	1	blank2r.bmp	866	4	tolerant	866	1	!	1319	1	!	-1	0	0	0	0	0	0	0	0	0	0	0	0	0	0	0	0	0	0	0	0	0	0	0	0	0	0	0
121118	11:16:47	11:21:03	255028	5.0.10.0	4_exp_AWA_CON_AMP_EVA	3	Rpleas_acq	Oppo	Rpleas	Bmasked	CS_B	1pleas	distractor1	CONbeforeEVA	acq_US_unple_masked	acq2_masked	2	35	480	0	300	300	0	0	268	46	0	1	0	0	0	1	blank2r.bmp	0	1	+	0	7	C3r.bmp	492	1	blank2r.bmp	786	1	GKQX	786	1	blank2r.bmp	866	2	eitel	866	1	!	-1	1	!	-1	0	0	0	0	0	0	0	0	0	0	0	0	0	0	0	0	0	0	0	0	0	0	0	0	0	0	0
121118	11:16:47	11:21:05	257280	5.0.10.0	4_exp_AWA_CON_AMP_EVA	3	Rpleas_acq	Oppo	Rpleas	Bmasked	CS_B	1pleas	distractor1	CONbeforeEVA	acq_new_unple_masked	acq2_masked	2	36	480	1	300	300	0	0	442	46	0	1	0	0	0	1	blank2r.bmp	0	1	+	0	8	C4r.bmp	492	1	blank2r.bmp	786	4	B4r.bmp	786	1	blank2r.bmp	866	6	leiden	866	1	!	1319	1	!	1346	0	0	0	0	0	0	0	0	0	0	0	0	0	0	0	0	0	0	0	0	0	0	0	0	0	0	0
121118	11:16:47	11:21:20	271994	5.0.10.0	4_exp_AWA_CON_AMP_EVA	3	Rpleas_acq	Oppo	Rpleas	Bmasked	CS_B	1pleas	distractor1	CONbeforeEVA	acq_US_pleas_masked	acq3_masked	3	1	453	1	300	300	0	0	489	46	0	0	0	0	0	1	blank2r.bmp	0	1	+	0	7	C3r.bmp	492	1	blank2r.bmp	786	1	BMVZ	786	1	blank2r.bmp	866	3	spielen	866	1	FEHLER	1705	1	!	1292	1	!	1386	0	0	0	0	0	0	0	0	0	0	0	0	0	0	0	0	0	0	0	0	0	0	0	0
121118	11:16:47	11:21:22	273980	5.0.10.0	4_exp_AWA_CON_AMP_EVA	3	Rpleas_acq	Oppo	Rpleas	Bmasked	CS_B	1pleas	distractor1	CONbeforeEVA	acq_US_unple_masked	acq3_masked	3	2	453	1	300	300	0	0	399	46	0	1	0	0	0	1	blank2r.bmp	0	1	+	0	2	B2r.bmp	492	1	blank2r.bmp	786	1	GKQX	786	1	blank2r.bmp	866	5	hindern	866	1	!	1292	1	!	1306	0	0	0	0	0	0	0	0	0	0	0	0	0	0	0	0	0	0	0	0	0	0	0	0	0	0	0
121118	11:16:47	11:21:24	275992	5.0.10.0	4_exp_AWA_CON_AMP_EVA	3	Rpleas_acq	Oppo	Rpleas	Bmasked	CS_B	1pleas	distractor1	CONbeforeEVA	acq_US_pleas_masked	acq3_masked	3	3	453	0	300	300	0	0	251	50	0	1	0	0	0	1	blank2r.bmp	0	1	+	0	8	C4r.bmp	492	1	blank2r.bmp	786	1	BMVZ	786	1	blank2r.bmp	866	2	ehrlich	866	1	!	-1	1	!	-1	0	0	0	0	0	0	0	0	0	0	0	0	0	0	0	0	0	0	0	0	0	0	0	0	0	0	0
121118	11:16:47	11:21:26	278125	5.0.10.0	4_exp_AWA_CON_AMP_EVA	3	Rpleas_acq	Oppo	Rpleas	Bmasked	CS_B	1pleas	distractor1	CONbeforeEVA	acq_US_pleas_masked	acq3_masked	3	4	453	0	300	300	0	0	355	50	0	1	0	0	0	1	blank2r.bmp	0	1	+	0	3	B3r.bmp	492	1	blank2r.bmp	786	1	BMVZ	786	1	blank2r.bmp	866	5	helfen	866	1	!	-1	1	!	-1	0	0	0	0	0	0	0	0	0	0	0	0	0	0	0	0	0	0	0	0	0	0	0	0	0	0	0
121118	11:16:47	11:21:28	280404	5.0.10.0	4_exp_AWA_CON_AMP_EVA	3	Rpleas_acq	Oppo	Rpleas	Bmasked	CS_B	1pleas	distractor1	CONbeforeEVA	acq_US_unple_masked	acq3_masked	3	5	453	1	300	300	0	0	475	46	0	1	0	0	0	1	blank2r.bmp	0	1	+	0	5	C1r.bmp	492	1	blank2r.bmp	786	1	GKQX	786	1	blank2r.bmp	866	1	schroff	866	1	!	1292	1	!	1372	0	0	0	0	0	0	0	0	0	0	0	0	0	0	0	0	0	0	0	0	0	0	0	0	0	0	0
121118	11:16:47	11:21:31	282750	5.0.10.0	4_exp_AWA_CON_AMP_EVA	3	Rpleas_acq	Oppo	Rpleas	Bmasked	CS_B	1pleas	distractor1	CONbeforeEVA	acq_US_pleas_masked	acq3_masked	3	6	453	0	300	300	0	0	579	50	0	1	0	0	0	1	blank2r.bmp	0	1	+	0	6	C2r.bmp	492	1	blank2r.bmp	786	1	BMVZ	786	1	blank2r.bmp	866	1	schlau	866	1	!	1292	1	!	-1	0	0	0	0	0	0	0	0	0	0	0	0	0	0	0	0	0	0	0	0	0	0	0	0	0	0	0
121118	11:16:47	11:21:33	284909	5.0.10.0	4_exp_AWA_CON_AMP_EVA	3	Rpleas_acq	Oppo	Rpleas	Bmasked	CS_B	1pleas	distractor1	CONbeforeEVA	acq_US_pleas_masked	acq3_masked	3	7	453	0	300	300	0	0	383	50	0	1	0	0	0	1	blank2r.bmp	0	1	+	0	1	B1r.bmp	492	1	blank2r.bmp	786	1	BMVZ	786	1	blank2r.bmp	866	4	tolerant	866	1	!	-1	1	!	-1	0	0	0	0	0	0	0	0	0	0	0	0	0	0	0	0	0	0	0	0	0	0	0	0	0	0	0
121118	11:16:47	11:21:35	287188	5.0.10.0	4_exp_AWA_CON_AMP_EVA	3	Rpleas_acq	Oppo	Rpleas	Bmasked	CS_B	1pleas	distractor1	CONbeforeEVA	acq_US_pleas_masked	acq3_masked	3	8	453	1	300	300	0	0	466	50	0	1	0	0	0	1	blank2r.bmp	0	1	+	0	4	B4r.bmp	492	1	blank2r.bmp	786	1	BMVZ	786	1	blank2r.bmp	866	6	treu	866	1	!	1292	1	!	1372	0	0	0	0	0	0	0	0	0	0	0	0	0	0	0	0	0	0	0	0	0	0	0	0	0	0	0
121118	11:16:47	11:21:38	289614	5.0.10.0	4_exp_AWA_CON_AMP_EVA	3	Rpleas_acq	Oppo	Rpleas	Bmasked	CS_B	1pleas	distractor1	CONbeforeEVA	acq_US_unple_masked	acq3_masked	3	9	453	0	300	300	0	0	640	46	0	1	0	0	0	1	blank2r.bmp	0	1	+	0	5	C1r.bmp	492	1	blank2r.bmp	786	1	GKQX	786	1	blank2r.bmp	866	3	strafen	866	1	!	1292	1	!	-1	0	0	0	0	0	0	0	0	0	0	0	0	0	0	0	0	0	0	0	0	0	0	0	0	0	0	0
121118	11:16:47	11:21:40	291773	5.0.10.0	4_exp_AWA_CON_AMP_EVA	3	Rpleas_acq	Oppo	Rpleas	Bmasked	CS_B	1pleas	distractor1	CONbeforeEVA	acq_US_unple_masked	acq3_masked	3	10	453	0	300	300	0	0	372	46	0	1	0	0	0	1	blank2r.bmp	0	1	+	0	1	B1r.bmp	492	1	blank2r.bmp	786	1	GKQX	786	1	blank2r.bmp	866	4	tyrannisch	866	1	!	-1	1	!	-1	0	0	0	0	0	0	0	0	0	0	0	0	0	0	0	0	0	0	0	0	0	0	0	0	0	0	0
121118	11:16:47	11:21:42	294105	5.0.10.0	4_exp_AWA_CON_AMP_EVA	3	Rpleas_acq	Oppo	Rpleas	Bmasked	CS_B	1pleas	distractor1	CONbeforeEVA	acq_US_unple_masked	acq3_masked	3	11	453	0	300	300	0	0	546	46	0	1	0	0	0	1	blank2r.bmp	0	1	+	0	3	B3r.bmp	492	1	blank2r.bmp	786	1	GKQX	786	1	blank2r.bmp	866	6	tot	866	1	!	1292	1	!	-1	0	0	0	0	0	0	0	0	0	0	0	0	0	0	0	0	0	0	0	0	0	0	0	0	0	0	0
121118	11:16:47	11:21:44	296211	5.0.10.0	4_exp_AWA_CON_AMP_EVA	3	Rpleas_acq	Oppo	Rpleas	Bmasked	CS_B	1pleas	distractor1	CONbeforeEVA	acq_US_unple_masked	acq3_masked	3	12	453	0	300	300	0	0	320	46	0	1	0	0	0	1	blank2r.bmp	0	1	+	0	7	C3r.bmp	492	1	blank2r.bmp	786	1	GKQX	786	1	blank2r.bmp	866	2	eitel	866	1	!	-1	1	!	-1	0	0	0	0	0	0	0	0	0	0	0	0	0	0	0	0	0	0	0	0	0	0	0	0	0	0	0
121118	11:16:47	11:21:46	298490	5.0.10.0	4_exp_AWA_CON_AMP_EVA	3	Rpleas_acq	Oppo	Rpleas	Bmasked	CS_B	1pleas	distractor1	CONbeforeEVA	acq_US_pleas_masked	acq3_masked	3	13	453	1	300	300	0	0	468	50	0	1	0	0	0	1	blank2r.bmp	0	1	+	0	6	C2r.bmp	492	1	blank2r.bmp	786	1	BMVZ	786	1	blank2r.bmp	866	5	helfen	866	1	!	1292	1	!	1372	0	0	0	0	0	0	0	0	0	0	0	0	0	0	0	0	0	0	0	0	0	0	0	0	0	0	0
121118	11:16:47	11:21:49	300809	5.0.10.0	4_exp_AWA_CON_AMP_EVA	3	Rpleas_acq	Oppo	Rpleas	Bmasked	CS_B	1pleas	distractor1	CONbeforeEVA	acq_US_unple_masked	acq3_masked	3	14	453	0	300	300	0	0	548	46	0	1	0	0	0	1	blank2r.bmp	0	1	+	0	4	B4r.bmp	492	1	blank2r.bmp	786	1	GKQX	786	1	blank2r.bmp	866	4	tyrannisch	866	1	!	1292	1	!	-1	0	0	0	0	0	0	0	0	0	0	0	0	0	0	0	0	0	0	0	0	0	0	0	0	0	0	0
121118	11:16:47	11:21:51	303101	5.0.10.0	4_exp_AWA_CON_AMP_EVA	3	Rpleas_acq	Oppo	Rpleas	Bmasked	CS_B	1pleas	distractor1	CONbeforeEVA	acq_US_unple_masked	acq3_masked	3	15	453	1	300	300	0	0	466	46	0	1	0	0	0	1	blank2r.bmp	0	1	+	0	2	B2r.bmp	492	1	blank2r.bmp	786	1	GKQX	786	1	blank2r.bmp	866	5	hindern	866	1	!	1292	1	!	1372	0	0	0	0	0	0	0	0	0	0	0	0	0	0	0	0	0	0	0	0	0	0	0	0	0	0	0
121118	11:16:47	11:21:53	305407	5.0.10.0	4_exp_AWA_CON_AMP_EVA	3	Rpleas_acq	Oppo	Rpleas	Bmasked	CS_B	1pleas	distractor1	CONbeforeEVA	acq_US_pleas_masked	acq3_masked	3	16	453	1	300	300	0	0	499	50	0	1	0	0	0	1	blank2r.bmp	0	1	+	0	8	C4r.bmp	492	1	blank2r.bmp	786	1	BMVZ	786	1	blank2r.bmp	866	6	treu	866	1	!	1292	1	!	1399	0	0	0	0	0	0	0	0	0	0	0	0	0	0	0	0	0	0	0	0	0	0	0	0	0	0	0
121118	11:16:47	11:21:56	307726	5.0.10.0	4_exp_AWA_CON_AMP_EVA	3	Rpleas_acq	Oppo	Rpleas	Bmasked	CS_B	1pleas	distractor1	CONbeforeEVA	acq_US_pleas_masked	acq3_masked	3	17	453	0	300	300	0	0	542	50	0	1	0	0	0	1	blank2r.bmp	0	1	+	0	6	C2r.bmp	492	1	blank2r.bmp	786	1	BMVZ	786	1	blank2r.bmp	866	1	schlau	866	1	!	1292	1	!	-1	0	0	0	0	0	0	0	0	0	0	0	0	0	0	0	0	0	0	0	0	0	0	0	0	0	0	0
121118	11:16:47	11:21:58	310272	5.0.10.0	4_exp_AWA_CON_AMP_EVA	3	Rpleas_acq	Oppo	Rpleas	Bmasked	CS_B	1pleas	distractor1	CONbeforeEVA	acq_US_unple_masked	acq3_masked	3	18	453	0	300	300	0	0	532	50	0	0	0	0	0	1	blank2r.bmp	0	1	+	0	3	B3r.bmp	492	1	blank2r.bmp	786	1	GKQX	786	1	blank2r.bmp	866	2	eitel	866	1	FEHLER	1745	1	!	1292	1	!	-1	0	0	0	0	0	0	0	0	0	0	0	0	0	0	0	0	0	0	0	0	0	0	0	0
121118	11:16:47	11:22:00	312164	5.0.10.0	4_exp_AWA_CON_AMP_EVA	3	Rpleas_acq	Oppo	Rpleas	Bmasked	CS_B	1pleas	distractor1	CONbeforeEVA	acq_US_unple_masked	acq3_masked	3	19	453	0	300	300	0	0	322	46	0	1	0	0	0	1	blank2r.bmp	0	1	+	0	1	B1r.bmp	492	1	blank2r.bmp	786	1	GKQX	786	1	blank2r.bmp	866	6	tot	866	1	!	-1	1	!	-1	0	0	0	0	0	0	0	0	0	0	0	0	0	0	0	0	0	0	0	0	0	0	0	0	0	0	0
121118	11:16:47	11:22:02	314470	5.0.10.0	4_exp_AWA_CON_AMP_EVA	3	Rpleas_acq	Oppo	Rpleas	Bmasked	CS_B	1pleas	distractor1	CONbeforeEVA	acq_US_unple_masked	acq3_masked	3	20	453	1	300	300	0	0	499	46	0	1	0	0	0	1	blank2r.bmp	0	1	+	0	8	C4r.bmp	492	1	blank2r.bmp	786	1	GKQX	786	1	blank2r.bmp	866	1	schroff	866	1	!	1292	1	!	1399	0	0	0	0	0	0	0	0	0	0	0	0	0	0	0	0	0	0	0	0	0	0	0	0	0	0	0
121118	11:16:47	11:22:05	316776	5.0.10.0	4_exp_AWA_CON_AMP_EVA	3	Rpleas_acq	Oppo	Rpleas	Bmasked	CS_B	1pleas	distractor1	CONbeforeEVA	acq_US_pleas_masked	acq3_masked	3	21	453	0	300	300	0	0	538	50	0	1	0	0	0	1	blank2r.bmp	0	1	+	0	5	C1r.bmp	492	1	blank2r.bmp	786	1	BMVZ	786	1	blank2r.bmp	866	4	tolerant	866	1	!	1292	1	!	-1	0	0	0	0	0	0	0	0	0	0	0	0	0	0	0	0	0	0	0	0	0	0	0	0	0	0	0
121118	11:16:47	11:22:07	319415	5.0.10.0	4_exp_AWA_CON_AMP_EVA	3	Rpleas_acq	Oppo	Rpleas	Bmasked	CS_B	1pleas	distractor1	CONbeforeEVA	acq_US_pleas_masked	acq3_masked	3	22	453	0	300	300	0	0	626	46	0	0	0	0	0	1	blank2r.bmp	0	1	+	0	2	B2r.bmp	492	1	blank2r.bmp	786	1	BMVZ	786	1	blank2r.bmp	866	2	ehrlich	866	1	FEHLER	1839	1	!	1292	1	!	-1	0	0	0	0	0	0	0	0	0	0	0	0	0	0	0	0	0	0	0	0	0	0	0	0
121118	11:16:47	11:22:09	321600	5.0.10.0	4_exp_AWA_CON_AMP_EVA	3	Rpleas_acq	Oppo	Rpleas	Bmasked	CS_B	1pleas	distractor1	CONbeforeEVA	acq_US_pleas_masked	acq3_masked	3	23	453	1	300	300	0	0	399	46	0	0	0	0	0	1	blank2r.bmp	0	1	+	0	4	B4r.bmp	492	1	blank2r.bmp	786	1	BMVZ	786	1	blank2r.bmp	866	3	spielen	866	1	FEHLER	1625	1	!	1292	1	!	1306	0	0	0	0	0	0	0	0	0	0	0	0	0	0	0	0	0	0	0	0	0	0	0	0
121118	11:16:47	11:22:12	323733	5.0.10.0	4_exp_AWA_CON_AMP_EVA	3	Rpleas_acq	Oppo	Rpleas	Bmasked	CS_B	1pleas	distractor1	CONbeforeEVA	acq_US_unple_masked	acq3_masked	3	24	453	0	300	300	0	0	332	50	0	0	0	0	0	1	blank2r.bmp	0	1	+	0	7	C3r.bmp	492	1	blank2r.bmp	786	1	GKQX	786	1	blank2r.bmp	866	3	strafen	866	1	FEHLER	1546	1	!	-1	1	!	-1	0	0	0	0	0	0	0	0	0	0	0	0	0	0	0	0	0	0	0	0	0	0	0	0
121118	11:16:47	11:22:14	325839	5.0.10.0	4_exp_AWA_CON_AMP_EVA	3	Rpleas_acq	Oppo	Rpleas	Bmasked	CS_B	1pleas	distractor1	CONbeforeEVA	acq_US_unple_masked	acq3_masked	3	25	453	1	300	300	0	0	507	46	0	1	0	0	0	1	blank2r.bmp	0	1	+	0	3	B3r.bmp	492	1	blank2r.bmp	786	1	GKQX	786	1	blank2r.bmp	866	4	tyrannisch	866	1	!	1292	1	!	1412	0	0	0	0	0	0	0	0	0	0	0	0	0	0	0	0	0	0	0	0	0	0	0	0	0	0	0
121118	11:16:47	11:22:16	328144	5.0.10.0	4_exp_AWA_CON_AMP_EVA	3	Rpleas_acq	Oppo	Rpleas	Bmasked	CS_B	1pleas	distractor1	CONbeforeEVA	acq_US_unple_masked	acq3_masked	3	26	453	0	300	300	0	0	319	50	0	0	0	0	0	1	blank2r.bmp	0	1	+	0	1	B1r.bmp	492	1	blank2r.bmp	786	1	GKQX	786	1	blank2r.bmp	866	5	hindern	866	1	FEHLER	1532	1	!	-1	1	!	-1	0	0	0	0	0	0	0	0	0	0	0	0	0	0	0	0	0	0	0	0	0	0	0	0
121118	11:16:47	11:22:18	330303	5.0.10.0	4_exp_AWA_CON_AMP_EVA	3	Rpleas_acq	Oppo	Rpleas	Bmasked	CS_B	1pleas	distractor1	CONbeforeEVA	acq_US_pleas_masked	acq3_masked	3	27	453	0	300	300	0	0	596	50	0	1	0	0	0	1	blank2r.bmp	0	1	+	0	7	C3r.bmp	492	1	blank2r.bmp	786	1	BMVZ	786	1	blank2r.bmp	866	4	tolerant	866	1	!	1292	1	!	-1	0	0	0	0	0	0	0	0	0	0	0	0	0	0	0	0	0	0	0	0	0	0	0	0	0	0	0
121118	11:16:47	11:22:21	332769	5.0.10.0	4_exp_AWA_CON_AMP_EVA	3	Rpleas_acq	Oppo	Rpleas	Bmasked	CS_B	1pleas	distractor1	CONbeforeEVA	acq_US_pleas_masked	acq3_masked	3	28	453	1	300	300	0	0	440	46	0	0	0	0	0	1	blank2r.bmp	0	1	+	0	6	C2r.bmp	492	1	blank2r.bmp	786	1	BMVZ	786	1	blank2r.bmp	866	5	helfen	866	1	FEHLER	1665	1	!	1292	1	!	1346	0	0	0	0	0	0	0	0	0	0	0	0	0	0	0	0	0	0	0	0	0	0	0	0
121118	11:16:47	11:22:23	334968	5.0.10.0	4_exp_AWA_CON_AMP_EVA	3	Rpleas_acq	Oppo	Rpleas	Bmasked	CS_B	1pleas	distractor1	CONbeforeEVA	acq_US_pleas_masked	acq3_masked	3	29	453	1	300	300	0	0	400	46	0	0	0	0	0	1	blank2r.bmp	0	1	+	0	2	B2r.bmp	492	1	blank2r.bmp	786	1	BMVZ	786	1	blank2r.bmp	866	2	ehrlich	866	1	FEHLER	1626	1	!	1292	1	!	1306	0	0	0	0	0	0	0	0	0	0	0	0	0	0	0	0	0	0	0	0	0	0	0	0
121118	11:16:47	11:22:25	337087	5.0.10.0	4_exp_AWA_CON_AMP_EVA	3	Rpleas_acq	Oppo	Rpleas	Bmasked	CS_B	1pleas	distractor1	CONbeforeEVA	acq_US_pleas_masked	acq3_masked	3	30	453	0	300	300	0	0	567	50	0	1	0	0	0	1	blank2r.bmp	0	1	+	0	5	C1r.bmp	492	1	blank2r.bmp	786	1	BMVZ	786	1	blank2r.bmp	866	3	spielen	866	1	!	1292	1	!	-1	0	0	0	0	0	0	0	0	0	0	0	0	0	0	0	0	0	0	0	0	0	0	0	0	0	0	0
121118	11:16:47	11:22:27	339353	5.0.10.0	4_exp_AWA_CON_AMP_EVA	3	Rpleas_acq	Oppo	Rpleas	Bmasked	CS_B	1pleas	distractor1	CONbeforeEVA	acq_US_pleas_masked	acq3_masked	3	31	453	1	300	300	0	0	457	50	0	1	0	0	0	1	blank2r.bmp	0	1	+	0	8	C4r.bmp	492	1	blank2r.bmp	786	1	BMVZ	786	1	blank2r.bmp	866	6	treu	866	1	!	1292	1	!	1359	0	0	0	0	0	0	0	0	0	0	0	0	0	0	0	0	0	0	0	0	0	0	0	0	0	0	0
121118	11:16:47	11:22:30	341659	5.0.10.0	4_exp_AWA_CON_AMP_EVA	3	Rpleas_acq	Oppo	Rpleas	Bmasked	CS_B	1pleas	distractor1	CONbeforeEVA	acq_US_unple_masked	acq3_masked	3	32	453	1	300	300	0	0	497	46	0	1	0	0	0	1	blank2r.bmp	0	1	+	0	4	B4r.bmp	492	1	blank2r.bmp	786	1	GKQX	786	1	blank2r.bmp	866	6	tot	866	1	!	1292	1	!	1399	0	0	0	0	0	0	0	0	0	0	0	0	0	0	0	0	0	0	0	0	0	0	0	0	0	0	0
121118	11:16:47	11:22:32	343911	5.0.10.0	4_exp_AWA_CON_AMP_EVA	3	Rpleas_acq	Oppo	Rpleas	Bmasked	CS_B	1pleas	distractor1	CONbeforeEVA	acq_US_unple_masked	acq3_masked	3	33	453	1	300	300	0	0	456	46	0	1	0	0	0	1	blank2r.bmp	0	1	+	0	8	C4r.bmp	492	1	blank2r.bmp	786	1	GKQX	786	1	blank2r.bmp	866	2	eitel	866	1	!	1292	1	!	1359	0	0	0	0	0	0	0	0	0	0	0	0	0	0	0	0	0	0	0	0	0	0	0	0	0	0	0
121118	11:16:47	11:22:34	346297	5.0.10.0	4_exp_AWA_CON_AMP_EVA	3	Rpleas_acq	Oppo	Rpleas	Bmasked	CS_B	1pleas	distractor1	CONbeforeEVA	acq_US_unple_masked	acq3_masked	3	34	453	0	300	300	0	0	385	50	0	0	0	0	0	1	blank2r.bmp	0	1	+	0	4	B4r.bmp	492	1	blank2r.bmp	786	1	GKQX	786	1	blank2r.bmp	866	3	strafen	866	1	FEHLER	1599	1	!	-1	1	!	-1	0	0	0	0	0	0	0	0	0	0	0	0	0	0	0	0	0	0	0	0	0	0	0	0
121118	11:16:47	11:22:36	348389	5.0.10.0	4_exp_AWA_CON_AMP_EVA	3	Rpleas_acq	Oppo	Rpleas	Bmasked	CS_B	1pleas	distractor1	CONbeforeEVA	acq_US_pleas_masked	acq3_masked	3	35	453	0	300	300	0	0	532	50	0	1	0	0	0	1	blank2r.bmp	0	1	+	0	6	C2r.bmp	492	1	blank2r.bmp	786	1	BMVZ	786	1	blank2r.bmp	866	1	schlau	866	1	!	1292	1	!	-1	0	0	0	0	0	0	0	0	0	0	0	0	0	0	0	0	0	0	0	0	0	0	0	0	0	0	0
121118	11:16:47	11:22:38	350509	5.0.10.0	4_exp_AWA_CON_AMP_EVA	3	Rpleas_acq	Oppo	Rpleas	Bmasked	CS_B	1pleas	distractor1	CONbeforeEVA	acq_US_unple_masked	acq3_masked	3	36	453	0	300	300	0	0	329	46	0	1	0	0	0	1	blank2r.bmp	0	1	+	0	3	B3r.bmp	492	1	blank2r.bmp	786	1	GKQX	786	1	blank2r.bmp	866	1	schroff	866	1	!	-1	1	!	-1	0	0	0	0	0	0	0	0	0	0	0	0	0	0	0	0	0	0	0	0	0	0	0	0	0	0	0
121118	11:16:47	11:23:06	378204	5.0.10.0	4_exp_AWA_CON_AMP_EVA	3	Rpleas_acq	Oppo	Rpleas	Bmasked	CS_B	1pleas	distractor1	CONbeforeEVA	acq_US_unple_masked	acq45_masked	4	1	400	0	300	300	0	0	602	46	0	1	0	0	0	1	blank2r.bmp	0	1	+	0	1	B1r.bmp	492	1	blank2r.bmp	786	1	GKQX	786	1	blank2r.bmp	866	3	strafen	866	1	!	1239	1	!	-1	0	0	0	0	0	0	0	0	0	0	0	0	0	0	0	0	0	0	0	0	0	0	0	0	0	0	0
121118	11:16:47	11:23:08	380443	5.0.10.0	4_exp_AWA_CON_AMP_EVA	3	Rpleas_acq	Oppo	Rpleas	Bmasked	CS_B	1pleas	distractor1	CONbeforeEVA	acq_US_unple_masked	acq45_masked	4	2	400	1	300	300	0	0	428	46	0	1	0	0	0	1	blank2r.bmp	0	1	+	0	2	B2r.bmp	492	1	blank2r.bmp	786	1	GKQX	786	1	blank2r.bmp	866	5	hindern	866	1	!	1239	1	!	1332	0	0	0	0	0	0	0	0	0	0	0	0	0	0	0	0	0	0	0	0	0	0	0	0	0	0	0
121118	11:16:47	11:23:10	382589	5.0.10.0	4_exp_AWA_CON_AMP_EVA	3	Rpleas_acq	Oppo	Rpleas	Bmasked	CS_B	1pleas	distractor1	CONbeforeEVA	acq_US_unple_masked	acq45_masked	4	3	400	1	300	300	0	0	352	46	0	1	0	0	0	1	blank2r.bmp	0	1	+	0	5	C1r.bmp	492	1	blank2r.bmp	786	1	GKQX	786	1	blank2r.bmp	866	1	schroff	866	1	!	1239	1	!	1252	0	0	0	0	0	0	0	0	0	0	0	0	0	0	0	0	0	0	0	0	0	0	0	0	0	0	0
121118	11:16:47	11:23:13	384841	5.0.10.0	4_exp_AWA_CON_AMP_EVA	3	Rpleas_acq	Oppo	Rpleas	Bmasked	CS_B	1pleas	distractor1	CONbeforeEVA	acq_US_pleas_masked	acq45_masked	4	4	400	0	300	300	0	0	479	50	0	1	0	0	0	1	blank2r.bmp	0	1	+	0	7	C3r.bmp	492	1	blank2r.bmp	786	1	BMVZ	786	1	blank2r.bmp	866	4	tolerant	866	1	!	1239	1	!	-1	0	0	0	0	0	0	0	0	0	0	0	0	0	0	0	0	0	0	0	0	0	0	0	0	0	0	0
121118	11:16:47	11:23:15	387040	5.0.10.0	4_exp_AWA_CON_AMP_EVA	3	Rpleas_acq	Oppo	Rpleas	Bmasked	CS_B	1pleas	distractor1	CONbeforeEVA	acq_US_unple_masked	acq45_masked	4	5	400	1	300	300	0	0	393	46	0	1	0	0	0	1	blank2r.bmp	0	1	+	0	2	B2r.bmp	492	1	blank2r.bmp	786	1	GKQX	786	1	blank2r.bmp	866	6	tot	866	1	!	1239	1	!	1292	0	0	0	0	0	0	0	0	0	0	0	0	0	0	0	0	0	0	0	0	0	0	0	0	0	0	0
121118	11:16:47	11:23:17	389199	5.0.10.0	4_exp_AWA_CON_AMP_EVA	3	Rpleas_acq	Oppo	Rpleas	Bmasked	CS_B	1pleas	distractor1	CONbeforeEVA	acq_US_unple_masked	acq45_masked	4	6	400	1	300	300	0	0	367	46	0	1	0	0	0	1	blank2r.bmp	0	1	+	0	3	B3r.bmp	492	1	blank2r.bmp	786	1	GKQX	786	1	blank2r.bmp	866	2	eitel	866	1	!	1239	1	!	1266	0	0	0	0	0	0	0	0	0	0	0	0	0	0	0	0	0	0	0	0	0	0	0	0	0	0	0
121118	11:16:47	11:23:19	391412	5.0.10.0	4_exp_AWA_CON_AMP_EVA	3	Rpleas_acq	Oppo	Rpleas	Bmasked	CS_B	1pleas	distractor1	CONbeforeEVA	acq_US_unple_masked	acq45_masked	4	7	400	1	300	300	0	0	414	46	0	1	0	0	0	1	blank2r.bmp	0	1	+	0	1	B1r.bmp	492	1	blank2r.bmp	786	1	GKQX	786	1	blank2r.bmp	866	4	tyrannisch	866	1	!	1239	1	!	1319	0	0	0	0	0	0	0	0	0	0	0	0	0	0	0	0	0	0	0	0	0	0	0	0	0	0	0
121118	11:16:47	11:23:21	393451	5.0.10.0	4_exp_AWA_CON_AMP_EVA	3	Rpleas_acq	Oppo	Rpleas	Bmasked	CS_B	1pleas	distractor1	CONbeforeEVA	acq_US_pleas_masked	acq45_masked	4	8	400	0	300	300	0	0	258	50	0	1	0	0	0	1	blank2r.bmp	0	1	+	0	5	C1r.bmp	492	1	blank2r.bmp	786	1	BMVZ	786	1	blank2r.bmp	866	3	spielen	866	1	!	-1	1	!	-1	0	0	0	0	0	0	0	0	0	0	0	0	0	0	0	0	0	0	0	0	0	0	0	0	0	0	0
121118	11:16:47	11:23:24	395623	5.0.10.0	4_exp_AWA_CON_AMP_EVA	3	Rpleas_acq	Oppo	Rpleas	Bmasked	CS_B	1pleas	distractor1	CONbeforeEVA	acq_US_unple_masked	acq45_masked	4	9	400	1	300	300	0	0	372	46	0	1	0	0	0	1	blank2r.bmp	0	1	+	0	6	C2r.bmp	492	1	blank2r.bmp	786	1	GKQX	786	1	blank2r.bmp	866	6	tot	866	1	!	1239	1	!	1266	0	0	0	0	0	0	0	0	0	0	0	0	0	0	0	0	0	0	0	0	0	0	0	0	0	0	0
121118	11:16:47	11:23:26	397849	5.0.10.0	4_exp_AWA_CON_AMP_EVA	3	Rpleas_acq	Oppo	Rpleas	Bmasked	CS_B	1pleas	distractor1	CONbeforeEVA	acq_US_pleas_masked	acq45_masked	4	10	400	1	300	300	0	0	420	50	0	1	0	0	0	1	blank2r.bmp	0	1	+	0	8	C4r.bmp	492	1	blank2r.bmp	786	1	BMVZ	786	1	blank2r.bmp	866	1	schlau	866	1	!	1239	1	!	1319	0	0	0	0	0	0	0	0	0	0	0	0	0	0	0	0	0	0	0	0	0	0	0	0	0	0	0
121118	11:16:47	11:23:28	400035	5.0.10.0	4_exp_AWA_CON_AMP_EVA	3	Rpleas_acq	Oppo	Rpleas	Bmasked	CS_B	1pleas	distractor1	CONbeforeEVA	acq_US_unple_masked	acq45_masked	4	11	400	1	300	300	0	0	388	46	0	1	0	0	0	1	blank2r.bmp	0	1	+	0	4	B4r.bmp	492	1	blank2r.bmp	786	1	GKQX	786	1	blank2r.bmp	866	5	hindern	866	1	!	1239	1	!	1292	0	0	0	0	0	0	0	0	0	0	0	0	0	0	0	0	0	0	0	0	0	0	0	0	0	0	0
121118	11:16:47	11:23:30	402274	5.0.10.0	4_exp_AWA_CON_AMP_EVA	3	Rpleas_acq	Oppo	Rpleas	Bmasked	CS_B	1pleas	distractor1	CONbeforeEVA	acq_US_pleas_masked	acq45_masked	4	12	400	1	300	300	0	0	446	50	0	1	0	0	0	1	blank2r.bmp	0	1	+	0	7	C3r.bmp	492	1	blank2r.bmp	786	1	BMVZ	786	1	blank2r.bmp	866	6	treu	866	1	!	1239	1	!	1346	0	0	0	0	0	0	0	0	0	0	0	0	0	0	0	0	0	0	0	0	0	0	0	0	0	0	0
121118	11:16:47	11:23:32	404473	5.0.10.0	4_exp_AWA_CON_AMP_EVA	3	Rpleas_acq	Oppo	Rpleas	Bmasked	CS_B	1pleas	distractor1	CONbeforeEVA	acq_US_pleas_masked	acq45_masked	4	13	400	1	300	300	0	0	410	50	0	1	0	0	0	1	blank2r.bmp	0	1	+	0	5	C1r.bmp	492	1	blank2r.bmp	786	1	BMVZ	786	1	blank2r.bmp	866	2	ehrlich	866	1	!	1239	1	!	1306	0	0	0	0	0	0	0	0	0	0	0	0	0	0	0	0	0	0	0	0	0	0	0	0	0	0	0
121118	11:16:47	11:23:35	406659	5.0.10.0	4_exp_AWA_CON_AMP_EVA	3	Rpleas_acq	Oppo	Rpleas	Bmasked	CS_B	1pleas	distractor1	CONbeforeEVA	acq_US_unple_masked	acq45_masked	4	14	400	1	300	300	0	0	387	46	0	1	0	0	0	1	blank2r.bmp	0	1	+	0	8	C4r.bmp	492	1	blank2r.bmp	786	1	GKQX	786	1	blank2r.bmp	866	1	schroff	866	1	!	1239	1	!	1292	0	0	0	0	0	0	0	0	0	0	0	0	0	0	0	0	0	0	0	0	0	0	0	0	0	0	0
121118	11:16:47	11:23:37	408871	5.0.10.0	4_exp_AWA_CON_AMP_EVA	3	Rpleas_acq	Oppo	Rpleas	Bmasked	CS_B	1pleas	distractor1	CONbeforeEVA	acq_US_pleas_masked	acq45_masked	4	15	400	1	300	300	0	0	416	50	0	1	0	0	0	1	blank2r.bmp	0	1	+	0	7	C3r.bmp	492	1	blank2r.bmp	786	1	BMVZ	786	1	blank2r.bmp	866	5	helfen	866	1	!	1239	1	!	1319	0	0	0	0	0	0	0	0	0	0	0	0	0	0	0	0	0	0	0	0	0	0	0	0	0	0	0
121118	11:16:47	11:23:39	411057	5.0.10.0	4_exp_AWA_CON_AMP_EVA	3	Rpleas_acq	Oppo	Rpleas	Bmasked	CS_B	1pleas	distractor1	CONbeforeEVA	acq_US_pleas_masked	acq45_masked	4	16	400	1	300	300	0	0	398	50	0	1	0	0	0	1	blank2r.bmp	0	1	+	0	6	C2r.bmp	492	1	blank2r.bmp	786	1	BMVZ	786	1	blank2r.bmp	866	3	spielen	866	1	!	1239	1	!	1292	0	0	0	0	0	0	0	0	0	0	0	0	0	0	0	0	0	0	0	0	0	0	0	0	0	0	0
121118	11:16:47	11:23:41	413283	5.0.10.0	4_exp_AWA_CON_AMP_EVA	3	Rpleas_acq	Oppo	Rpleas	Bmasked	CS_B	1pleas	distractor1	CONbeforeEVA	acq_US_pleas_masked	acq45_masked	4	17	400	1	300	300	0	0	427	50	0	1	0	0	0	1	blank2r.bmp	0	1	+	0	4	B4r.bmp	492	1	blank2r.bmp	786	1	BMVZ	786	1	blank2r.bmp	866	6	treu	866	1	!	1239	1	!	1332	0	0	0	0	0	0	0	0	0	0	0	0	0	0	0	0	0	0	0	0	0	0	0	0	0	0	0
121118	11:16:47	11:23:43	415389	5.0.10.0	4_exp_AWA_CON_AMP_EVA	3	Rpleas_acq	Oppo	Rpleas	Bmasked	CS_B	1pleas	distractor1	CONbeforeEVA	acq_US_pleas_masked	acq45_masked	4	18	400	0	300	300	0	0	329	50	0	1	0	0	0	1	blank2r.bmp	0	1	+	0	1	B1r.bmp	492	1	blank2r.bmp	786	1	BMVZ	786	1	blank2r.bmp	866	1	schlau	866	1	!	-1	1	!	-1	0	0	0	0	0	0	0	0	0	0	0	0	0	0	0	0	0	0	0	0	0	0	0	0	0	0	0
121118	11:16:47	11:23:45	417614	5.0.10.0	4_exp_AWA_CON_AMP_EVA	3	Rpleas_acq	Oppo	Rpleas	Bmasked	CS_B	1pleas	distractor1	CONbeforeEVA	acq_US_unple_masked	acq45_masked	4	19	400	1	300	300	0	0	412	46	0	1	0	0	0	1	blank2r.bmp	0	1	+	0	3	B3r.bmp	492	1	blank2r.bmp	786	1	GKQX	786	1	blank2r.bmp	866	3	strafen	866	1	!	1239	1	!	1306	0	0	0	0	0	0	0	0	0	0	0	0	0	0	0	0	0	0	0	0	0	0	0	0	0	0	0
121118	11:16:47	11:23:48	419827	5.0.10.0	4_exp_AWA_CON_AMP_EVA	3	Rpleas_acq	Oppo	Rpleas	Bmasked	CS_B	1pleas	distractor1	CONbeforeEVA	acq_US_unple_masked	acq45_masked	4	20	400	1	300	300	0	0	416	50	0	0	0	0	0	1	blank2r.bmp	0	1	+	0	2	B2r.bmp	492	1	blank2r.bmp	786	1	GKQX	786	1	blank2r.bmp	866	4	tyrannisch	866	1	!	1239	1	!	1319	0	0	0	0	0	0	0	0	0	0	0	0	0	0	0	0	0	0	0	0	0	0	0	0	0	0	0
121118	11:16:47	11:23:50	421893	5.0.10.0	4_exp_AWA_CON_AMP_EVA	3	Rpleas_acq	Oppo	Rpleas	Bmasked	CS_B	1pleas	distractor1	CONbeforeEVA	acq_US_unple_masked	acq45_masked	4	21	400	0	300	300	0	0	304	46	0	1	0	0	0	1	blank2r.bmp	0	1	+	0	8	C4r.bmp	492	1	blank2r.bmp	786	1	GKQX	786	1	blank2r.bmp	866	2	eitel	866	1	!	-1	1	!	-1	0	0	0	0	0	0	0	0	0	0	0	0	0	0	0	0	0	0	0	0	0	0	0	0	0	0	0
121118	11:16:47	11:23:52	424158	5.0.10.0	4_exp_AWA_CON_AMP_EVA	3	Rpleas_acq	Oppo	Rpleas	Bmasked	CS_B	1pleas	distractor1	CONbeforeEVA	acq_US_pleas_masked	acq45_masked	4	22	400	0	300	300	0	0	485	50	0	1	0	0	0	1	blank2r.bmp	0	1	+	0	4	B4r.bmp	492	1	blank2r.bmp	786	1	BMVZ	786	1	blank2r.bmp	866	4	tolerant	866	1	!	1239	1	!	-1	0	0	0	0	0	0	0	0	0	0	0	0	0	0	0	0	0	0	0	0	0	0	0	0	0	0	0
121118	11:16:47	11:23:54	426344	5.0.10.0	4_exp_AWA_CON_AMP_EVA	3	Rpleas_acq	Oppo	Rpleas	Bmasked	CS_B	1pleas	distractor1	CONbeforeEVA	acq_US_pleas_masked	acq45_masked	4	23	400	1	300	300	0	0	370	46	0	0	0	0	0	1	blank2r.bmp	0	1	+	0	2	B2r.bmp	492	1	blank2r.bmp	786	1	BMVZ	786	1	blank2r.bmp	866	5	helfen	866	1	!	1239	1	!	1266	0	0	0	0	0	0	0	0	0	0	0	0	0	0	0	0	0	0	0	0	0	0	0	0	0	0	0
121118	11:16:47	11:23:56	428370	5.0.10.0	4_exp_AWA_CON_AMP_EVA	3	Rpleas_acq	Oppo	Rpleas	Bmasked	CS_B	1pleas	distractor1	CONbeforeEVA	acq_US_unple_masked	acq45_masked	4	24	400	0	300	300	0	0	261	50	0	0	0	0	0	1	blank2r.bmp	0	1	+	0	3	B3r.bmp	492	1	blank2r.bmp	786	1	GKQX	786	1	blank2r.bmp	866	1	schroff	866	1	!	-1	1	!	-1	0	0	0	0	0	0	0	0	0	0	0	0	0	0	0	0	0	0	0	0	0	0	0	0	0	0	0
121118	11:16:47	11:24:01	433088	5.0.10.0	4_exp_AWA_CON_AMP_EVA	3	Rpleas_acq	Oppo	Rpleas	Bmasked	CS_B	1pleas	distractor1	CONbeforeEVA	acq_US_pleas_masked	acq45_masked	4	25	400	0	300	300	0	0	2921	50	0	1	0	0	0	1	blank2r.bmp	0	1	+	0	6	C2r.bmp	492	1	blank2r.bmp	786	1	BMVZ	786	1	blank2r.bmp	866	2	ehrlich	866	1	!	1239	1	!	-1	0	0	0	0	0	0	0	0	0	0	0	0	0	0	0	0	0	0	0	0	0	0	0	0	0	0	0
121118	11:16:47	11:24:03	435340	5.0.10.0	4_exp_AWA_CON_AMP_EVA	3	Rpleas_acq	Oppo	Rpleas	Bmasked	CS_B	1pleas	distractor1	CONbeforeEVA	acq_US_pleas_masked	acq45_masked	4	26	400	1	300	300	0	0	441	50	0	1	0	0	0	1	blank2r.bmp	0	1	+	0	7	C3r.bmp	492	1	blank2r.bmp	786	1	BMVZ	786	1	blank2r.bmp	866	4	tolerant	866	1	!	1239	1	!	1346	0	0	0	0	0	0	0	0	0	0	0	0	0	0	0	0	0	0	0	0	0	0	0	0	0	0	0
121118	11:16:47	11:24:05	437499	5.0.10.0	4_exp_AWA_CON_AMP_EVA	3	Rpleas_acq	Oppo	Rpleas	Bmasked	CS_B	1pleas	distractor1	CONbeforeEVA	acq_US_unple_masked	acq45_masked	4	27	400	1	300	300	0	0	346	46	0	1	0	0	0	1	blank2r.bmp	0	1	+	0	1	B1r.bmp	492	1	blank2r.bmp	786	1	GKQX	786	1	blank2r.bmp	866	2	eitel	866	1	!	1239	1	!	1252	0	0	0	0	0	0	0	0	0	0	0	0	0	0	0	0	0	0	0	0	0	0	0	0	0	0	0
121118	11:16:47	11:24:08	439712	5.0.10.0	4_exp_AWA_CON_AMP_EVA	3	Rpleas_acq	Oppo	Rpleas	Bmasked	CS_B	1pleas	distractor1	CONbeforeEVA	acq_US_unple_masked	acq45_masked	4	28	400	1	300	300	0	0	423	46	0	1	0	0	0	1	blank2r.bmp	0	1	+	0	5	C1r.bmp	492	1	blank2r.bmp	786	1	GKQX	786	1	blank2r.bmp	866	4	tyrannisch	866	1	!	1239	1	!	1319	0	0	0	0	0	0	0	0	0	0	0	0	0	0	0	0	0	0	0	0	0	0	0	0	0	0	0
121118	11:16:47	11:24:10	441804	5.0.10.0	4_exp_AWA_CON_AMP_EVA	3	Rpleas_acq	Oppo	Rpleas	Bmasked	CS_B	1pleas	distractor1	CONbeforeEVA	acq_US_pleas_masked	acq45_masked	4	29	400	0	300	300	0	0	319	50	0	1	0	0	0	1	blank2r.bmp	0	1	+	0	3	B3r.bmp	492	1	blank2r.bmp	786	1	BMVZ	786	1	blank2r.bmp	866	3	spielen	866	1	!	-1	1	!	-1	0	0	0	0	0	0	0	0	0	0	0	0	0	0	0	0	0	0	0	0	0	0	0	0	0	0	0
121118	11:16:47	11:24:12	444097	5.0.10.0	4_exp_AWA_CON_AMP_EVA	3	Rpleas_acq	Oppo	Rpleas	Bmasked	CS_B	1pleas	distractor1	CONbeforeEVA	acq_US_pleas_masked	acq45_masked	4	30	400	0	300	300	0	0	507	46	0	0	0	0	0	1	blank2r.bmp	0	1	+	0	5	C1r.bmp	492	1	blank2r.bmp	786	1	BMVZ	786	1	blank2r.bmp	866	1	schlau	866	1	!	1239	1	!	-1	0	0	0	0	0	0	0	0	0	0	0	0	0	0	0	0	0	0	0	0	0	0	0	0	0	0	0
121118	11:16:47	11:24:14	446389	5.0.10.0	4_exp_AWA_CON_AMP_EVA	3	Rpleas_acq	Oppo	Rpleas	Bmasked	CS_B	1pleas	distractor1	CONbeforeEVA	acq_US_unple_masked	acq45_masked	4	31	400	0	300	300	0	0	512	46	0	1	0	0	0	1	blank2r.bmp	0	1	+	0	7	C3r.bmp	492	1	blank2r.bmp	786	1	GKQX	786	1	blank2r.bmp	866	5	hindern	866	1	!	1239	1	!	-1	0	0	0	0	0	0	0	0	0	0	0	0	0	0	0	0	0	0	0	0	0	0	0	0	0	0	0
121118	11:16:47	11:24:16	448602	5.0.10.0	4_exp_AWA_CON_AMP_EVA	3	Rpleas_acq	Oppo	Rpleas	Bmasked	CS_B	1pleas	distractor1	CONbeforeEVA	acq_US_unple_masked	acq45_masked	4	32	400	1	300	300	0	0	408	50	0	0	0	0	0	1	blank2r.bmp	0	1	+	0	8	C4r.bmp	492	1	blank2r.bmp	786	1	GKQX	786	1	blank2r.bmp	866	3	strafen	866	1	!	1239	1	!	1306	0	0	0	0	0	0	0	0	0	0	0	0	0	0	0	0	0	0	0	0	0	0	0	0	0	0	0
121118	11:16:47	11:24:19	450747	5.0.10.0	4_exp_AWA_CON_AMP_EVA	3	Rpleas_acq	Oppo	Rpleas	Bmasked	CS_B	1pleas	distractor1	CONbeforeEVA	acq_US_pleas_masked	acq45_masked	4	33	400	1	300	300	0	0	353	46	0	0	0	0	0	1	blank2r.bmp	0	1	+	0	4	B4r.bmp	492	1	blank2r.bmp	786	1	BMVZ	786	1	blank2r.bmp	866	5	helfen	866	1	!	1239	1	!	1252	0	0	0	0	0	0	0	0	0	0	0	0	0	0	0	0	0	0	0	0	0	0	0	0	0	0	0
121118	11:16:47	11:24:21	452960	5.0.10.0	4_exp_AWA_CON_AMP_EVA	3	Rpleas_acq	Oppo	Rpleas	Bmasked	CS_B	1pleas	distractor1	CONbeforeEVA	acq_US_unple_masked	acq45_masked	4	34	400	1	300	300	0	0	415	46	0	1	0	0	0	1	blank2r.bmp	0	1	+	0	6	C2r.bmp	492	1	blank2r.bmp	786	1	GKQX	786	1	blank2r.bmp	866	6	tot	866	1	!	1239	1	!	1319	0	0	0	0	0	0	0	0	0	0	0	0	0	0	0	0	0	0	0	0	0	0	0	0	0	0	0
121118	11:16:47	11:24:23	455159	5.0.10.0	4_exp_AWA_CON_AMP_EVA	3	Rpleas_acq	Oppo	Rpleas	Bmasked	CS_B	1pleas	distractor1	CONbeforeEVA	acq_US_pleas_masked	acq45_masked	4	35	400	1	300	300	0	0	407	50	0	1	0	0	0	1	blank2r.bmp	0	1	+	0	1	B1r.bmp	492	1	blank2r.bmp	786	1	BMVZ	786	1	blank2r.bmp	866	6	treu	866	1	!	1239	1	!	1306	0	0	0	0	0	0	0	0	0	0	0	0	0	0	0	0	0	0	0	0	0	0	0	0	0	0	0
121118	11:16:47	11:24:25	457358	5.0.10.0	4_exp_AWA_CON_AMP_EVA	3	Rpleas_acq	Oppo	Rpleas	Bmasked	CS_B	1pleas	distractor1	CONbeforeEVA	acq_US_pleas_masked	acq45_masked	4	36	400	1	300	300	0	0	410	46	0	0	0	0	0	1	blank2r.bmp	0	1	+	0	2	B2r.bmp	492	1	blank2r.bmp	786	1	BMVZ	786	1	blank2r.bmp	866	2	ehrlich	866	1	!	1239	1	!	1306	0	0	0	0	0	0	0	0	0	0	0	0	0	0	0	0	0	0	0	0	0	0	0	0	0	0	0
121118	11:16:47	11:24:37	468767	5.0.10.0	4_exp_AWA_CON_AMP_EVA	3	Rpleas_acq	Oppo	Rpleas	Bmasked	CS_B	1pleas	distractor1	CONbeforeEVA	acq_US_unple_masked	acq45_masked	5	1	400	1	300	300	0	0	424	46	0	1	0	0	0	1	blank2r.bmp	0	1	+	0	4	B4r.bmp	492	1	blank2r.bmp	786	1	GKQX	786	1	blank2r.bmp	866	2	eitel	866	1	!	1239	1	!	1319	0	0	0	0	0	0	0	0	0	0	0	0	0	0	0	0	0	0	0	0	0	0	0	0	0	0	0
121118	11:16:47	11:24:39	470939	5.0.10.0	4_exp_AWA_CON_AMP_EVA	3	Rpleas_acq	Oppo	Rpleas	Bmasked	CS_B	1pleas	distractor1	CONbeforeEVA	acq_US_unple_masked	acq45_masked	5	2	400	1	300	300	0	0	376	46	0	1	0	0	0	1	blank2r.bmp	0	1	+	0	2	B2r.bmp	492	1	blank2r.bmp	786	1	GKQX	786	1	blank2r.bmp	866	4	tyrannisch	866	1	!	1239	1	!	1279	0	0	0	0	0	0	0	0	0	0	0	0	0	0	0	0	0	0	0	0	0	0	0	0	0	0	0
121118	11:16:47	11:24:41	473165	5.0.10.0	4_exp_AWA_CON_AMP_EVA	3	Rpleas_acq	Oppo	Rpleas	Bmasked	CS_B	1pleas	distractor1	CONbeforeEVA	acq_US_pleas_masked	acq45_masked	5	3	400	1	300	300	0	0	415	50	0	1	0	0	0	1	blank2r.bmp	0	1	+	0	8	C4r.bmp	492	1	blank2r.bmp	786	1	BMVZ	786	1	blank2r.bmp	866	4	tolerant	866	1	!	1239	1	!	1319	0	0	0	0	0	0	0	0	0	0	0	0	0	0	0	0	0	0	0	0	0	0	0	0	0	0	0
121118	11:16:47	11:24:43	475431	5.0.10.0	4_exp_AWA_CON_AMP_EVA	3	Rpleas_acq	Oppo	Rpleas	Bmasked	CS_B	1pleas	distractor1	CONbeforeEVA	acq_US_unple_masked	acq45_masked	5	4	400	1	300	300	0	0	465	46	0	1	0	0	0	1	blank2r.bmp	0	1	+	0	1	B1r.bmp	492	1	blank2r.bmp	786	1	GKQX	786	1	blank2r.bmp	866	3	strafen	866	1	!	1239	1	!	1372	0	0	0	0	0	0	0	0	0	0	0	0	0	0	0	0	0	0	0	0	0	0	0	0	0	0	0
121118	11:16:47	11:24:46	477656	5.0.10.0	4_exp_AWA_CON_AMP_EVA	3	Rpleas_acq	Oppo	Rpleas	Bmasked	CS_B	1pleas	distractor1	CONbeforeEVA	acq_US_pleas_masked	acq45_masked	5	5	400	1	300	300	0	0	427	50	0	1	0	0	0	1	blank2r.bmp	0	1	+	0	5	C1r.bmp	492	1	blank2r.bmp	786	1	BMVZ	786	1	blank2r.bmp	866	3	spielen	866	1	!	1239	1	!	1332	0	0	0	0	0	0	0	0	0	0	0	0	0	0	0	0	0	0	0	0	0	0	0	0	0	0	0
121118	11:16:47	11:24:48	479909	5.0.10.0	4_exp_AWA_CON_AMP_EVA	3	Rpleas_acq	Oppo	Rpleas	Bmasked	CS_B	1pleas	distractor1	CONbeforeEVA	acq_US_unple_masked	acq45_masked	5	6	400	0	300	300	0	0	479	46	0	1	0	0	0	1	blank2r.bmp	0	1	+	0	6	C2r.bmp	492	1	blank2r.bmp	786	1	GKQX	786	1	blank2r.bmp	866	1	schroff	866	1	!	1239	1	!	-1	0	0	0	0	0	0	0	0	0	0	0	0	0	0	0	0	0	0	0	0	0	0	0	0	0	0	0
121118	11:16:47	11:24:50	482068	5.0.10.0	4_exp_AWA_CON_AMP_EVA	3	Rpleas_acq	Oppo	Rpleas	Bmasked	CS_B	1pleas	distractor1	CONbeforeEVA	acq_US_unple_masked	acq45_masked	5	7	400	1	300	300	0	0	346	46	0	1	0	0	0	1	blank2r.bmp	0	1	+	0	7	C3r.bmp	492	1	blank2r.bmp	786	1	GKQX	786	1	blank2r.bmp	866	6	tot	866	1	!	1239	1	!	1252	0	0	0	0	0	0	0	0	0	0	0	0	0	0	0	0	0	0	0	0	0	0	0	0	0	0	0
121118	11:16:47	11:24:52	484267	5.0.10.0	4_exp_AWA_CON_AMP_EVA	3	Rpleas_acq	Oppo	Rpleas	Bmasked	CS_B	1pleas	distractor1	CONbeforeEVA	acq_US_unple_masked	acq45_masked	5	8	400	1	300	300	0	0	410	46	0	1	0	0	0	1	blank2r.bmp	0	1	+	0	3	B3r.bmp	492	1	blank2r.bmp	786	1	GKQX	786	1	blank2r.bmp	866	5	hindern	866	1	!	1239	1	!	1306	0	0	0	0	0	0	0	0	0	0	0	0	0	0	0	0	0	0	0	0	0	0	0	0	0	0	0
121118	11:16:47	11:24:54	486519	5.0.10.0	4_exp_AWA_CON_AMP_EVA	3	Rpleas_acq	Oppo	Rpleas	Bmasked	CS_B	1pleas	distractor1	CONbeforeEVA	acq_US_unple_masked	acq45_masked	5	9	400	0	300	300	0	0	479	46	0	1	0	0	0	1	blank2r.bmp	0	1	+	0	6	C2r.bmp	492	1	blank2r.bmp	786	1	GKQX	786	1	blank2r.bmp	866	2	eitel	866	1	!	1239	1	!	-1	0	0	0	0	0	0	0	0	0	0	0	0	0	0	0	0	0	0	0	0	0	0	0	0	0	0	0
121118	11:16:47	11:24:57	488705	5.0.10.0	4_exp_AWA_CON_AMP_EVA	3	Rpleas_acq	Oppo	Rpleas	Bmasked	CS_B	1pleas	distractor1	CONbeforeEVA	acq_US_pleas_masked	acq45_masked	5	10	400	1	300	300	0	0	377	50	0	1	0	0	0	1	blank2r.bmp	0	1	+	0	2	B2r.bmp	492	1	blank2r.bmp	786	1	BMVZ	786	1	blank2r.bmp	866	1	schlau	866	1	!	1239	1	!	1279	0	0	0	0	0	0	0	0	0	0	0	0	0	0	0	0	0	0	0	0	0	0	0	0	0	0	0
121118	11:16:47	11:24:59	490891	5.0.10.0	4_exp_AWA_CON_AMP_EVA	3	Rpleas_acq	Oppo	Rpleas	Bmasked	CS_B	1pleas	distractor1	CONbeforeEVA	acq_US_pleas_masked	acq45_masked	5	11	400	1	300	300	0	0	391	46	0	0	0	0	0	1	blank2r.bmp	0	1	+	0	4	B4r.bmp	492	1	blank2r.bmp	786	1	BMVZ	786	1	blank2r.bmp	866	6	treu	866	1	!	1239	1	!	1292	0	0	0	0	0	0	0	0	0	0	0	0	0	0	0	0	0	0	0	0	0	0	0	0	0	0	0
121118	11:16:47	11:25:01	493090	5.0.10.0	4_exp_AWA_CON_AMP_EVA	3	Rpleas_acq	Oppo	Rpleas	Bmasked	CS_B	1pleas	distractor1	CONbeforeEVA	acq_US_unple_masked	acq45_masked	5	12	400	1	300	300	0	0	389	46	0	1	0	0	0	1	blank2r.bmp	0	1	+	0	1	B1r.bmp	492	1	blank2r.bmp	786	1	GKQX	786	1	blank2r.bmp	866	6	tot	866	1	!	1239	1	!	1292	0	0	0	0	0	0	0	0	0	0	0	0	0	0	0	0	0	0	0	0	0	0	0	0	0	0	0
121118	11:16:47	11:25:03	495316	5.0.10.0	4_exp_AWA_CON_AMP_EVA	3	Rpleas_acq	Oppo	Rpleas	Bmasked	CS_B	1pleas	distractor1	CONbeforeEVA	acq_US_pleas_masked	acq45_masked	5	13	400	1	300	300	0	0	412	50	0	1	0	0	0	1	blank2r.bmp	0	1	+	0	5	C1r.bmp	492	1	blank2r.bmp	786	1	BMVZ	786	1	blank2r.bmp	866	2	ehrlich	866	1	!	1239	1	!	1319	0	0	0	0	0	0	0	0	0	0	0	0	0	0	0	0	0	0	0	0	0	0	0	0	0	0	0
121118	11:16:47	11:25:05	497488	5.0.10.0	4_exp_AWA_CON_AMP_EVA	3	Rpleas_acq	Oppo	Rpleas	Bmasked	CS_B	1pleas	distractor1	CONbeforeEVA	acq_US_unple_masked	acq45_masked	5	14	400	1	300	300	0	0	377	46	0	1	0	0	0	1	blank2r.bmp	0	1	+	0	8	C4r.bmp	492	1	blank2r.bmp	786	1	GKQX	786	1	blank2r.bmp	866	3	strafen	866	1	!	1239	1	!	1279	0	0	0	0	0	0	0	0	0	0	0	0	0	0	0	0	0	0	0	0	0	0	0	0	0	0	0
121118	11:16:47	11:25:08	499741	5.0.10.0	4_exp_AWA_CON_AMP_EVA	3	Rpleas_acq	Oppo	Rpleas	Bmasked	CS_B	1pleas	distractor1	CONbeforeEVA	acq_US_pleas_masked	acq45_masked	5	15	400	1	300	300	0	0	460	46	0	0	0	0	0	1	blank2r.bmp	0	1	+	0	3	B3r.bmp	492	1	blank2r.bmp	786	1	BMVZ	786	1	blank2r.bmp	866	5	helfen	866	1	!	1239	1	!	1359	0	0	0	0	0	0	0	0	0	0	0	0	0	0	0	0	0	0	0	0	0	0	0	0	0	0	0
121118	11:16:47	11:25:11	502606	5.0.10.0	4_exp_AWA_CON_AMP_EVA	3	Rpleas_acq	Oppo	Rpleas	Bmasked	CS_B	1pleas	distractor1	CONbeforeEVA	acq_US_pleas_masked	acq45_masked	5	16	400	0	300	300	0	0	1103	50	0	1	0	0	0	1	blank2r.bmp	0	1	+	0	7	C3r.bmp	492	1	blank2r.bmp	786	1	BMVZ	786	1	blank2r.bmp	866	6	treu	866	1	!	1239	1	!	-1	0	0	0	0	0	0	0	0	0	0	0	0	0	0	0	0	0	0	0	0	0	0	0	0	0	0	0
121118	11:16:47	11:25:13	504818	5.0.10.0	4_exp_AWA_CON_AMP_EVA	3	Rpleas_acq	Oppo	Rpleas	Bmasked	CS_B	1pleas	distractor1	CONbeforeEVA	acq_US_pleas_masked	acq45_masked	5	17	400	1	300	300	0	0	411	50	0	1	0	0	0	1	blank2r.bmp	0	1	+	0	2	B2r.bmp	492	1	blank2r.bmp	786	1	BMVZ	786	1	blank2r.bmp	866	4	tolerant	866	1	!	1239	1	!	1306	0	0	0	0	0	0	0	0	0	0	0	0	0	0	0	0	0	0	0	0	0	0	0	0	0	0	0
121118	11:16:47	11:25:15	506991	5.0.10.0	4_exp_AWA_CON_AMP_EVA	3	Rpleas_acq	Oppo	Rpleas	Bmasked	CS_B	1pleas	distractor1	CONbeforeEVA	acq_US_pleas_masked	acq45_masked	5	18	400	1	300	300	0	0	378	50	0	1	0	0	0	1	blank2r.bmp	0	1	+	0	3	B3r.bmp	492	1	blank2r.bmp	786	1	BMVZ	786	1	blank2r.bmp	866	3	spielen	866	1	!	1239	1	!	1279	0	0	0	0	0	0	0	0	0	0	0	0	0	0	0	0	0	0	0	0	0	0	0	0	0	0	0
121118	11:16:47	11:25:17	509203	5.0.10.0	4_exp_AWA_CON_AMP_EVA	3	Rpleas_acq	Oppo	Rpleas	Bmasked	CS_B	1pleas	distractor1	CONbeforeEVA	acq_US_unple_masked	acq45_masked	5	19	400	1	300	300	0	0	402	46	0	1	0	0	0	1	blank2r.bmp	0	1	+	0	8	C4r.bmp	492	1	blank2r.bmp	786	1	GKQX	786	1	blank2r.bmp	866	1	schroff	866	1	!	1239	1	!	1306	0	0	0	0	0	0	0	0	0	0	0	0	0	0	0	0	0	0	0	0	0	0	0	0	0	0	0
121118	11:16:47	11:25:19	511389	5.0.10.0	4_exp_AWA_CON_AMP_EVA	3	Rpleas_acq	Oppo	Rpleas	Bmasked	CS_B	1pleas	distractor1	CONbeforeEVA	acq_US_pleas_masked	acq45_masked	5	20	400	1	300	300	0	0	396	50	0	1	0	0	0	1	blank2r.bmp	0	1	+	0	4	B4r.bmp	492	1	blank2r.bmp	786	1	BMVZ	786	1	blank2r.bmp	866	1	schlau	866	1	!	1239	1	!	1292	0	0	0	0	0	0	0	0	0	0	0	0	0	0	0	0	0	0	0	0	0	0	0	0	0	0	0
121118	11:16:47	11:25:22	513655	5.0.10.0	4_exp_AWA_CON_AMP_EVA	3	Rpleas_acq	Oppo	Rpleas	Bmasked	CS_B	1pleas	distractor1	CONbeforeEVA	acq_US_unple_masked	acq45_masked	5	21	400	1	300	300	0	0	453	46	0	1	0	0	0	1	blank2r.bmp	0	1	+	0	7	C3r.bmp	492	1	blank2r.bmp	786	1	GKQX	786	1	blank2r.bmp	866	4	tyrannisch	866	1	!	1239	1	!	1359	0	0	0	0	0	0	0	0	0	0	0	0	0	0	0	0	0	0	0	0	0	0	0	0	0	0	0
121118	11:16:47	11:25:24	515827	5.0.10.0	4_exp_AWA_CON_AMP_EVA	3	Rpleas_acq	Oppo	Rpleas	Bmasked	CS_B	1pleas	distractor1	CONbeforeEVA	acq_US_pleas_masked	acq45_masked	5	22	400	1	300	300	0	0	385	50	0	1	0	0	0	1	blank2r.bmp	0	1	+	0	6	C2r.bmp	492	1	blank2r.bmp	786	1	BMVZ	786	1	blank2r.bmp	866	2	ehrlich	866	1	!	1239	1	!	1279	0	0	0	0	0	0	0	0	0	0	0	0	0	0	0	0	0	0	0	0	0	0	0	0	0	0	0
121118	11:16:47	11:25:26	518013	5.0.10.0	4_exp_AWA_CON_AMP_EVA	3	Rpleas_acq	Oppo	Rpleas	Bmasked	CS_B	1pleas	distractor1	CONbeforeEVA	acq_US_pleas_masked	acq45_masked	5	23	400	1	300	300	0	0	395	50	0	1	0	0	0	1	blank2r.bmp	0	1	+	0	5	C1r.bmp	492	1	blank2r.bmp	786	1	BMVZ	786	1	blank2r.bmp	866	5	helfen	866	1	!	1239	1	!	1292	0	0	0	0	0	0	0	0	0	0	0	0	0	0	0	0	0	0	0	0	0	0	0	0	0	0	0
121118	11:16:47	11:25:28	520252	5.0.10.0	4_exp_AWA_CON_AMP_EVA	3	Rpleas_acq	Oppo	Rpleas	Bmasked	CS_B	1pleas	distractor1	CONbeforeEVA	acq_US_unple_masked	acq45_masked	5	24	400	1	300	300	0	0	444	46	0	1	0	0	0	1	blank2r.bmp	0	1	+	0	1	B1r.bmp	492	1	blank2r.bmp	786	1	GKQX	786	1	blank2r.bmp	866	5	hindern	866	1	!	1239	1	!	1346	0	0	0	0	0	0	0	0	0	0	0	0	0	0	0	0	0	0	0	0	0	0	0	0	0	0	0
121118	11:16:47	11:25:30	522318	5.0.10.0	4_exp_AWA_CON_AMP_EVA	3	Rpleas_acq	Oppo	Rpleas	Bmasked	CS_B	1pleas	distractor1	CONbeforeEVA	acq_US_pleas_masked	acq45_masked	5	25	400	0	300	300	0	0	305	50	0	1	0	0	0	1	blank2r.bmp	0	1	+	0	4	B4r.bmp	492	1	blank2r.bmp	786	1	BMVZ	786	1	blank2r.bmp	866	1	schlau	866	1	!	-1	1	!	-1	0	0	0	0	0	0	0	0	0	0	0	0	0	0	0	0	0	0	0	0	0	0	0	0	0	0	0
121118	11:16:47	11:25:32	524584	5.0.10.0	4_exp_AWA_CON_AMP_EVA	3	Rpleas_acq	Oppo	Rpleas	Bmasked	CS_B	1pleas	distractor1	CONbeforeEVA	acq_US_unple_masked	acq45_masked	5	26	400	0	300	300	0	0	479	46	0	1	0	0	0	1	blank2r.bmp	0	1	+	0	5	C1r.bmp	492	1	blank2r.bmp	786	1	GKQX	786	1	blank2r.bmp	866	5	hindern	866	1	!	1239	1	!	-1	0	0	0	0	0	0	0	0	0	0	0	0	0	0	0	0	0	0	0	0	0	0	0	0	0	0	0
121118	11:16:47	11:25:35	526836	5.0.10.0	4_exp_AWA_CON_AMP_EVA	3	Rpleas_acq	Oppo	Rpleas	Bmasked	CS_B	1pleas	distractor1	CONbeforeEVA	acq_US_unple_masked	acq45_masked	5	27	400	1	300	300	0	0	445	46	0	1	0	0	0	1	blank2r.bmp	0	1	+	0	8	C4r.bmp	492	1	blank2r.bmp	786	1	GKQX	786	1	blank2r.bmp	866	6	tot	866	1	!	1239	1	!	1346	0	0	0	0	0	0	0	0	0	0	0	0	0	0	0	0	0	0	0	0	0	0	0	0	0	0	0
121118	11:16:47	11:25:37	529075	5.0.10.0	4_exp_AWA_CON_AMP_EVA	3	Rpleas_acq	Oppo	Rpleas	Bmasked	CS_B	1pleas	distractor1	CONbeforeEVA	acq_US_pleas_masked	acq45_masked	5	28	400	1	300	300	0	0	449	50	0	1	0	0	0	1	blank2r.bmp	0	1	+	0	2	B2r.bmp	492	1	blank2r.bmp	786	1	BMVZ	786	1	blank2r.bmp	866	4	tolerant	866	1	!	1239	1	!	1346	0	0	0	0	0	0	0	0	0	0	0	0	0	0	0	0	0	0	0	0	0	0	0	0	0	0	0
121118	11:16:47	11:25:39	531141	5.0.10.0	4_exp_AWA_CON_AMP_EVA	3	Rpleas_acq	Oppo	Rpleas	Bmasked	CS_B	1pleas	distractor1	CONbeforeEVA	acq_US_pleas_masked	acq45_masked	5	29	400	0	300	300	0	0	303	50	0	1	0	0	0	1	blank2r.bmp	0	1	+	0	1	B1r.bmp	492	1	blank2r.bmp	786	1	BMVZ	786	1	blank2r.bmp	866	6	treu	866	1	!	-1	1	!	-1	0	0	0	0	0	0	0	0	0	0	0	0	0	0	0	0	0	0	0	0	0	0	0	0	0	0	0
121118	11:16:47	11:25:41	533340	5.0.10.0	4_exp_AWA_CON_AMP_EVA	3	Rpleas_acq	Oppo	Rpleas	Bmasked	CS_B	1pleas	distractor1	CONbeforeEVA	acq_US_pleas_masked	acq45_masked	5	30	400	1	300	300	0	0	382	50	0	1	0	0	0	1	blank2r.bmp	0	1	+	0	6	C2r.bmp	492	1	blank2r.bmp	786	1	BMVZ	786	1	blank2r.bmp	866	5	helfen	866	1	!	1239	1	!	1279	0	0	0	0	0	0	0	0	0	0	0	0	0	0	0	0	0	0	0	0	0	0	0	0	0	0	0
121118	11:16:47	11:25:43	535499	5.0.10.0	4_exp_AWA_CON_AMP_EVA	3	Rpleas_acq	Oppo	Rpleas	Bmasked	CS_B	1pleas	distractor1	CONbeforeEVA	acq_US_unple_masked	acq45_masked	5	31	400	1	300	300	0	0	355	46	0	1	0	0	0	1	blank2r.bmp	0	1	+	0	7	C3r.bmp	492	1	blank2r.bmp	786	1	GKQX	786	1	blank2r.bmp	866	1	schroff	866	1	!	1239	1	!	1252	0	0	0	0	0	0	0	0	0	0	0	0	0	0	0	0	0	0	0	0	0	0	0	0	0	0	0
121118	11:16:47	11:25:46	537792	5.0.10.0	4_exp_AWA_CON_AMP_EVA	3	Rpleas_acq	Oppo	Rpleas	Bmasked	CS_B	1pleas	distractor1	CONbeforeEVA	acq_US_unple_masked	acq45_masked	5	32	400	0	300	300	0	0	521	46	0	1	0	0	0	1	blank2r.bmp	0	1	+	0	3	B3r.bmp	492	1	blank2r.bmp	786	1	GKQX	786	1	blank2r.bmp	866	4	tyrannisch	866	1	!	1239	1	!	-1	0	0	0	0	0	0	0	0	0	0	0	0	0	0	0	0	0	0	0	0	0	0	0	0	0	0	0
121118	11:16:47	11:25:48	539951	5.0.10.0	4_exp_AWA_CON_AMP_EVA	3	Rpleas_acq	Oppo	Rpleas	Bmasked	CS_B	1pleas	distractor1	CONbeforeEVA	acq_US_pleas_masked	acq45_masked	5	33	400	1	300	300	0	0	348	50	0	1	0	0	0	1	blank2r.bmp	0	1	+	0	4	B4r.bmp	492	1	blank2r.bmp	786	1	BMVZ	786	1	blank2r.bmp	866	2	ehrlich	866	1	!	1239	1	!	1252	0	0	0	0	0	0	0	0	0	0	0	0	0	0	0	0	0	0	0	0	0	0	0	0	0	0	0
121118	11:16:47	11:25:50	542110	5.0.10.0	4_exp_AWA_CON_AMP_EVA	3	Rpleas_acq	Oppo	Rpleas	Bmasked	CS_B	1pleas	distractor1	CONbeforeEVA	acq_US_unple_masked	acq45_masked	5	34	400	1	300	300	0	0	368	46	0	1	0	0	0	1	blank2r.bmp	0	1	+	0	6	C2r.bmp	492	1	blank2r.bmp	786	1	GKQX	786	1	blank2r.bmp	866	3	strafen	866	1	!	1239	1	!	1266	0	0	0	0	0	0	0	0	0	0	0	0	0	0	0	0	0	0	0	0	0	0	0	0	0	0	0
121118	11:16:47	11:25:52	544269	5.0.10.0	4_exp_AWA_CON_AMP_EVA	3	Rpleas_acq	Oppo	Rpleas	Bmasked	CS_B	1pleas	distractor1	CONbeforeEVA	acq_US_pleas_masked	acq45_masked	5	35	400	1	300	300	0	0	361	50	0	1	0	0	0	1	blank2r.bmp	0	1	+	0	2	B2r.bmp	492	1	blank2r.bmp	786	1	BMVZ	786	1	blank2r.bmp	866	3	spielen	866	1	!	1239	1	!	1266	0	0	0	0	0	0	0	0	0	0	0	0	0	0	0	0	0	0	0	0	0	0	0	0	0	0	0
121118	11:16:47	11:25:54	546441	5.0.10.0	4_exp_AWA_CON_AMP_EVA	3	Rpleas_acq	Oppo	Rpleas	Bmasked	CS_B	1pleas	distractor1	CONbeforeEVA	acq_US_unple_masked	acq45_masked	5	36	400	1	300	300	0	0	377	46	0	1	0	0	0	1	blank2r.bmp	0	1	+	0	5	C1r.bmp	492	1	blank2r.bmp	786	1	GKQX	786	1	blank2r.bmp	866	2	eitel	866	1	!	1239	1	!	1279	0	0	0	0	0	0	0	0	0	0	0	0	0	0	0	0	0	0	0	0	0	0	0	0	0	0	0
121118	11:16:47	11:27:07	619358	5.0.10.0	4_exp_AWA_CON_AMP_EVA	3	Rpleas_acq	Oppo	Lpleas	Bmasked	CS_B	1pleas	distractor1	CONbeforeEVA	cond_new_unple_456_masked_CS2	condtest_masked_1	8	1	400	0	300	300	0	0	494	50	0	1	0	0	0	1	blank2r.bmp	0	1	+	0	8	C4r.bmp	492	1	blank2r.bmp	786	1	GKQX	786	1	blank2r.bmp	866	2	lasch	866	1	!	1239	1	!	-1	0	0	0	0	0	0	0	0	0	0	0	0	0	0	0	0	0	0	0	0	0	0	0	0	0	0	0
121118	11:16:47	11:27:10	621624	5.0.10.0	4_exp_AWA_CON_AMP_EVA	3	Rpleas_acq	Oppo	Lpleas	Bmasked	CS_B	1pleas	distractor1	CONbeforeEVA	cond_new_pleas_456_masked_CS2	condtest_masked_1	8	2	400	1	300	300	0	0	441	46	0	1	0	0	0	1	blank2r.bmp	0	1	+	0	1	B1r.bmp	492	1	blank2r.bmp	786	1	GKQX	786	1	blank2r.bmp	866	2	loyal	866	1	!	1239	1	!	1346	0	0	0	0	0	0	0	0	0	0	0	0	0	0	0	0	0	0	0	0	0	0	0	0	0	0	0
121118	11:16:47	11:27:12	623823	5.0.10.0	4_exp_AWA_CON_AMP_EVA	3	Rpleas_acq	Oppo	Lpleas	Bmasked	CS_B	1pleas	distractor1	CONbeforeEVA	cond_US_unple_123_masked_CS2	condtest_masked_1	8	3	400	1	300	300	0	0	399	50	0	1	0	0	0	1	blank2r.bmp	0	1	+	0	7	C3r.bmp	492	1	blank2r.bmp	786	1	GKQX	786	1	blank2r.bmp	866	2	eitel	866	1	!	1239	1	!	1306	0	0	0	0	0	0	0	0	0	0	0	0	0	0	0	0	0	0	0	0	0	0	0	0	0	0	0
121118	11:16:47	11:27:14	625982	5.0.10.0	4_exp_AWA_CON_AMP_EVA	3	Rpleas_acq	Oppo	Lpleas	Bmasked	CS_B	1pleas	distractor1	CONbeforeEVA	cond_US_unple_123_masked_CS1	condtest_masked_1	8	4	400	1	300	300	0	0	370	46	0	0	0	0	0	1	blank2r.bmp	0	1	+	0	3	B3r.bmp	492	1	blank2r.bmp	786	1	BMVZ	786	1	blank2r.bmp	866	1	schroff	866	1	!	1239	1	!	1266	0	0	0	0	0	0	0	0	0	0	0	0	0	0	0	0	0	0	0	0	0	0	0	0	0	0	0
121118	11:16:47	11:27:16	628328	5.0.10.0	4_exp_AWA_CON_AMP_EVA	3	Rpleas_acq	Oppo	Lpleas	Bmasked	CS_B	1pleas	distractor1	CONbeforeEVA	cond_US_pleas_123_masked_CS2	condtest_masked_1	8	5	400	0	300	300	0	0	576	50	0	0	0	0	0	1	blank2r.bmp	0	1	+	0	1	B1r.bmp	492	1	blank2r.bmp	786	1	GKQX	786	1	blank2r.bmp	866	1	schlau	866	1	!	1239	1	!	-1	0	0	0	0	0	0	0	0	0	0	0	0	0	0	0	0	0	0	0	0	0	0	0	0	0	0	0
121118	11:16:47	11:27:19	630740	5.0.10.0	4_exp_AWA_CON_AMP_EVA	3	Rpleas_acq	Oppo	Lpleas	Bmasked	CS_B	1pleas	distractor1	CONbeforeEVA	cond_new_pleas_456_masked_CS1	condtest_masked_1	8	6	400	0	300	300	0	0	627	46	0	1	0	0	0	1	blank2r.bmp	0	1	+	0	6	C2r.bmp	492	1	blank2r.bmp	786	1	BMVZ	786	1	blank2r.bmp	866	1	freundlich	866	1	!	1239	1	!	-1	0	0	0	0	0	0	0	0	0	0	0	0	0	0	0	0	0	0	0	0	0	0	0	0	0	0	0
121118	11:16:47	11:27:21	632966	5.0.10.0	4_exp_AWA_CON_AMP_EVA	3	Rpleas_acq	Oppo	Lpleas	Bmasked	CS_B	1pleas	distractor1	CONbeforeEVA	cond_new_unple_456_masked_CS1	condtest_masked_1	8	7	400	1	300	300	0	0	415	46	0	0	0	0	0	1	blank2r.bmp	0	1	+	0	4	B4r.bmp	492	1	blank2r.bmp	786	1	BMVZ	786	1	blank2r.bmp	866	1	fanatisch	866	1	!	1239	1	!	1319	0	0	0	0	0	0	0	0	0	0	0	0	0	0	0	0	0	0	0	0	0	0	0	0	0	0	0
121118	11:16:47	11:27:23	635471	5.0.10.0	4_exp_AWA_CON_AMP_EVA	3	Rpleas_acq	Oppo	Lpleas	Bmasked	CS_B	1pleas	distractor1	CONbeforeEVA	cond_US_pleas_123_masked_CS1	condtest_masked_1	8	8	400	0	300	300	0	0	744	50	0	0	0	0	0	1	blank2r.bmp	0	1	+	0	8	C4r.bmp	492	1	blank2r.bmp	786	1	BMVZ	786	1	blank2r.bmp	866	3	spielen	866	1	!	1239	1	!	-1	0	0	0	0	0	0	0	0	0	0	0	0	0	0	0	0	0	0	0	0	0	0	0	0	0	0	0
121118	11:16:47	11:27:32	643721	5.0.10.0	4_exp_AWA_CON_AMP_EVA	3	Rpleas_acq	Oppo	Lpleas	Bmasked	CS_B	1pleas	distractor1	CONbeforeEVA	cond_new_unple_456_masked_CS2	condtest_masked_2	9	1	400	0	300	300	0	0	789	50	0	1	0	0	0	1	blank2r.bmp	0	1	+	0	5	C1r.bmp	492	1	blank2r.bmp	786	1	GKQX	786	1	blank2r.bmp	866	3	leiden	866	1	!	1239	1	!	-1	0	0	0	0	0	0	0	0	0	0	0	0	0	0	0	0	0	0	0	0	0	0	0	0	0	0	0
121118	11:16:47	11:27:34	645934	5.0.10.0	4_exp_AWA_CON_AMP_EVA	3	Rpleas_acq	Oppo	Lpleas	Bmasked	CS_B	1pleas	distractor1	CONbeforeEVA	cond_US_unple_123_masked_CS2	condtest_masked_2	9	2	400	1	300	300	0	0	407	50	0	1	0	0	0	1	blank2r.bmp	0	1	+	0	2	B2r.bmp	492	1	blank2r.bmp	786	1	GKQX	786	1	blank2r.bmp	866	3	strafen	866	1	!	1239	1	!	1306	0	0	0	0	0	0	0	0	0	0	0	0	0	0	0	0	0	0	0	0	0	0	0	0	0	0	0
121118	11:16:47	11:27:36	648160	5.0.10.0	4_exp_AWA_CON_AMP_EVA	3	Rpleas_acq	Oppo	Lpleas	Bmasked	CS_B	1pleas	distractor1	CONbeforeEVA	cond_US_pleas_123_masked_CS1	condtest_masked_2	9	3	400	1	300	300	0	0	438	46	0	1	0	0	0	1	blank2r.bmp	0	1	+	0	7	C3r.bmp	492	1	blank2r.bmp	786	1	BMVZ	786	1	blank2r.bmp	866	2	ehrlich	866	1	!	1239	1	!	1332	0	0	0	0	0	0	0	0	0	0	0	0	0	0	0	0	0	0	0	0	0	0	0	0	0	0	0
121118	11:16:47	11:27:38	650345	5.0.10.0	4_exp_AWA_CON_AMP_EVA	3	Rpleas_acq	Oppo	Lpleas	Bmasked	CS_B	1pleas	distractor1	CONbeforeEVA	cond_US_pleas_123_masked_CS2	condtest_masked_2	9	4	400	1	300	300	0	0	395	46	0	1	0	0	0	1	blank2r.bmp	0	1	+	0	3	B3r.bmp	492	1	blank2r.bmp	786	1	GKQX	786	1	blank2r.bmp	866	2	ehrlich	866	1	!	1239	1	!	1292	0	0	0	0	0	0	0	0	0	0	0	0	0	0	0	0	0	0	0	0	0	0	0	0	0	0	0
121118	11:16:47	11:27:40	652544	5.0.10.0	4_exp_AWA_CON_AMP_EVA	3	Rpleas_acq	Oppo	Lpleas	Bmasked	CS_B	1pleas	distractor1	CONbeforeEVA	cond_US_pleas_123_masked_CS1	condtest_masked_2	9	5	400	1	300	300	0	0	401	46	0	1	0	0	0	1	blank2r.bmp	0	1	+	0	3	B3r.bmp	492	1	blank2r.bmp	786	1	BMVZ	786	1	blank2r.bmp	866	3	spielen	866	1	!	1239	1	!	1306	0	0	0	0	0	0	0	0	0	0	0	0	0	0	0	0	0	0	0	0	0	0	0	0	0	0	0
121118	11:16:47	11:27:43	654757	5.0.10.0	4_exp_AWA_CON_AMP_EVA	3	Rpleas_acq	Oppo	Lpleas	Bmasked	CS_B	1pleas	distractor1	CONbeforeEVA	cond_new_unple_456_masked_CS1	condtest_masked_2	9	6	400	1	300	300	0	0	416	50	0	1	0	0	0	1	blank2r.bmp	0	1	+	0	4	B4r.bmp	492	1	blank2r.bmp	786	1	BMVZ	786	1	blank2r.bmp	866	2	lasch	866	1	!	1239	1	!	1319	0	0	0	0	0	0	0	0	0	0	0	0	0	0	0	0	0	0	0	0	0	0	0	0	0	0	0
121118	11:16:47	11:27:45	657023	5.0.10.0	4_exp_AWA_CON_AMP_EVA	3	Rpleas_acq	Oppo	Lpleas	Bmasked	CS_B	1pleas	distractor1	CONbeforeEVA	cond_US_pleas_123_masked_CS2	condtest_masked_2	9	7	400	0	300	300	0	0	501	46	0	1	0	0	0	1	blank2r.bmp	0	1	+	0	1	B1r.bmp	492	1	blank2r.bmp	786	1	GKQX	786	1	blank2r.bmp	866	1	schlau	866	1	!	1239	1	!	-1	0	0	0	0	0	0	0	0	0	0	0	0	0	0	0	0	0	0	0	0	0	0	0	0	0	0	0
121118	11:16:47	11:27:47	659262	5.0.10.0	4_exp_AWA_CON_AMP_EVA	3	Rpleas_acq	Oppo	Lpleas	Bmasked	CS_B	1pleas	distractor1	CONbeforeEVA	cond_new_unple_456_masked_CS1	condtest_masked_2	9	8	400	1	300	300	0	0	433	50	0	1	0	0	0	1	blank2r.bmp	0	1	+	0	6	C2r.bmp	492	1	blank2r.bmp	786	1	BMVZ	786	1	blank2r.bmp	866	3	leiden	866	1	!	1239	1	!	1332	0	0	0	0	0	0	0	0	0	0	0	0	0	0	0	0	0	0	0	0	0	0	0	0	0	0	0
121118	11:16:47	11:27:49	661501	5.0.10.0	4_exp_AWA_CON_AMP_EVA	3	Rpleas_acq	Oppo	Lpleas	Bmasked	CS_B	1pleas	distractor1	CONbeforeEVA	cond_US_unple_123_masked_CS1	condtest_masked_2	9	9	400	1	300	300	0	0	438	46	0	0	0	0	0	1	blank2r.bmp	0	1	+	0	2	B2r.bmp	492	1	blank2r.bmp	786	1	BMVZ	786	1	blank2r.bmp	866	1	schroff	866	1	!	1239	1	!	1332	0	0	0	0	0	0	0	0	0	0	0	0	0	0	0	0	0	0	0	0	0	0	0	0	0	0	0
121118	11:16:47	11:27:52	663753	5.0.10.0	4_exp_AWA_CON_AMP_EVA	3	Rpleas_acq	Oppo	Lpleas	Bmasked	CS_B	1pleas	distractor1	CONbeforeEVA	cond_US_unple_123_masked_CS1	condtest_masked_2	9	10	400	0	300	300	0	0	479	50	0	1	0	0	0	1	blank2r.bmp	0	1	+	0	8	C4r.bmp	492	1	blank2r.bmp	786	1	BMVZ	786	1	blank2r.bmp	866	3	strafen	866	1	!	1239	1	!	-1	0	0	0	0	0	0	0	0	0	0	0	0	0	0	0	0	0	0	0	0	0	0	0	0	0	0	0
121118	11:16:47	11:27:54	665952	5.0.10.0	4_exp_AWA_CON_AMP_EVA	3	Rpleas_acq	Oppo	Lpleas	Bmasked	CS_B	1pleas	distractor1	CONbeforeEVA	cond_new_pleas_456_masked_CS1	condtest_masked_2	9	11	400	1	300	300	0	0	398	46	0	1	0	0	0	1	blank2r.bmp	0	1	+	0	7	C3r.bmp	492	1	blank2r.bmp	786	1	BMVZ	786	1	blank2r.bmp	866	3	lachen	866	1	!	1239	1	!	1292	0	0	0	0	0	0	0	0	0	0	0	0	0	0	0	0	0	0	0	0	0	0	0	0	0	0	0
121118	11:16:47	11:27:57	668884	5.0.10.0	4_exp_AWA_CON_AMP_EVA	3	Rpleas_acq	Oppo	Lpleas	Bmasked	CS_B	1pleas	distractor1	CONbeforeEVA	cond_new_unple_456_masked_CS1	condtest_masked_2	9	12	400	0	300	300	0	0	1155	46	0	0	0	0	0	1	blank2r.bmp	0	1	+	0	5	C1r.bmp	492	1	blank2r.bmp	786	1	BMVZ	786	1	blank2r.bmp	866	1	fanatisch	866	1	!	1239	1	!	-1	0	0	0	0	0	0	0	0	0	0	0	0	0	0	0	0	0	0	0	0	0	0	0	0	0	0	0
121118	11:16:47	11:27:59	671363	5.0.10.0	4_exp_AWA_CON_AMP_EVA	3	Rpleas_acq	Oppo	Lpleas	Bmasked	CS_B	1pleas	distractor1	CONbeforeEVA	cond_US_unple_123_masked_CS1	condtest_masked_2	9	13	400	0	300	300	0	0	702	50	0	1	0	0	0	1	blank2r.bmp	0	1	+	0	7	C3r.bmp	492	1	blank2r.bmp	786	1	BMVZ	786	1	blank2r.bmp	866	2	eitel	866	1	!	1239	1	!	-1	0	0	0	0	0	0	0	0	0	0	0	0	0	0	0	0	0	0	0	0	0	0	0	0	0	0	0
121118	11:16:47	11:28:02	673736	5.0.10.0	4_exp_AWA_CON_AMP_EVA	3	Rpleas_acq	Oppo	Lpleas	Bmasked	CS_B	1pleas	distractor1	CONbeforeEVA	cond_new_pleas_456_masked_CS2	condtest_masked_2	9	14	400	0	300	300	0	0	593	46	0	1	0	0	0	1	blank2r.bmp	0	1	+	0	3	B3r.bmp	492	1	blank2r.bmp	786	1	GKQX	786	1	blank2r.bmp	866	3	lachen	866	1	!	1239	1	!	-1	0	0	0	0	0	0	0	0	0	0	0	0	0	0	0	0	0	0	0	0	0	0	0	0	0	0	0
121118	11:16:47	11:28:04	675975	5.0.10.0	4_exp_AWA_CON_AMP_EVA	3	Rpleas_acq	Oppo	Lpleas	Bmasked	CS_B	1pleas	distractor1	CONbeforeEVA	cond_new_unple_456_masked_CS2	condtest_masked_2	9	15	400	1	300	300	0	0	428	50	0	1	0	0	0	1	blank2r.bmp	0	1	+	0	6	C2r.bmp	492	1	blank2r.bmp	786	1	GKQX	786	1	blank2r.bmp	866	3	leiden	866	1	!	1239	1	!	1332	0	0	0	0	0	0	0	0	0	0	0	0	0	0	0	0	0	0	0	0	0	0	0	0	0	0	0
121118	11:16:47	11:28:06	678214	5.0.10.0	4_exp_AWA_CON_AMP_EVA	3	Rpleas_acq	Oppo	Lpleas	Bmasked	CS_B	1pleas	distractor1	CONbeforeEVA	cond_new_unple_456_masked_CS1	condtest_masked_2	9	16	400	1	300	300	0	0	451	46	0	0	0	0	0	1	blank2r.bmp	0	1	+	0	5	C1r.bmp	492	1	blank2r.bmp	786	1	BMVZ	786	1	blank2r.bmp	866	2	lasch	866	1	!	1239	1	!	1346	0	0	0	0	0	0	0	0	0	0	0	0	0	0	0	0	0	0	0	0	0	0	0	0	0	0	0
121118	11:16:47	11:28:09	681133	5.0.10.0	4_exp_AWA_CON_AMP_EVA	3	Rpleas_acq	Oppo	Lpleas	Bmasked	CS_B	1pleas	distractor1	CONbeforeEVA	cond_new_pleas_456_masked_CS2	condtest_masked_2	9	17	400	0	300	300	0	0	1146	46	0	1	0	0	0	1	blank2r.bmp	0	1	+	0	1	B1r.bmp	492	1	blank2r.bmp	786	1	GKQX	786	1	blank2r.bmp	866	2	loyal	866	1	!	1239	1	!	-1	0	0	0	0	0	0	0	0	0	0	0	0	0	0	0	0	0	0	0	0	0	0	0	0	0	0	0
121118	11:16:47	11:28:11	683398	5.0.10.0	4_exp_AWA_CON_AMP_EVA	3	Rpleas_acq	Oppo	Lpleas	Bmasked	CS_B	1pleas	distractor1	CONbeforeEVA	cond_new_pleas_456_masked_CS2	condtest_masked_2	9	18	400	1	300	300	0	0	460	46	0	1	0	0	0	1	blank2r.bmp	0	1	+	0	8	C4r.bmp	492	1	blank2r.bmp	786	1	GKQX	786	1	blank2r.bmp	866	1	freundlich	866	1	!	1239	1	!	1359	0	0	0	0	0	0	0	0	0	0	0	0	0	0	0	0	0	0	0	0	0	0	0	0	0	0	0
121118	11:16:47	11:28:14	685677	5.0.10.0	4_exp_AWA_CON_AMP_EVA	3	Rpleas_acq	Oppo	Lpleas	Bmasked	CS_B	1pleas	distractor1	CONbeforeEVA	cond_US_pleas_123_masked_CS2	condtest_masked_2	9	19	400	0	300	300	0	0	507	46	0	1	0	0	0	1	blank2r.bmp	0	1	+	0	2	B2r.bmp	492	1	blank2r.bmp	786	1	GKQX	786	1	blank2r.bmp	866	1	schlau	866	1	!	1239	1	!	-1	0	0	0	0	0	0	0	0	0	0	0	0	0	0	0	0	0	0	0	0	0	0	0	0	0	0	0
121118	11:16:47	11:28:16	687877	5.0.10.0	4_exp_AWA_CON_AMP_EVA	3	Rpleas_acq	Oppo	Lpleas	Bmasked	CS_B	1pleas	distractor1	CONbeforeEVA	cond_US_pleas_123_masked_CS1	condtest_masked_2	9	20	400	1	300	300	0	0	396	46	0	1	0	0	0	1	blank2r.bmp	0	1	+	0	4	B4r.bmp	492	1	blank2r.bmp	786	1	BMVZ	786	1	blank2r.bmp	866	2	ehrlich	866	1	!	1239	1	!	1292	0	0	0	0	0	0	0	0	0	0	0	0	0	0	0	0	0	0	0	0	0	0	0	0	0	0	0
121118	11:16:47	11:28:18	690062	5.0.10.0	4_exp_AWA_CON_AMP_EVA	3	Rpleas_acq	Oppo	Lpleas	Bmasked	CS_B	1pleas	distractor1	CONbeforeEVA	cond_new_pleas_456_masked_CS1	condtest_masked_2	9	21	400	1	300	300	0	0	388	46	0	1	0	0	0	1	blank2r.bmp	0	1	+	0	6	C2r.bmp	492	1	blank2r.bmp	786	1	BMVZ	786	1	blank2r.bmp	866	2	loyal	866	1	!	1239	1	!	1292	0	0	0	0	0	0	0	0	0	0	0	0	0	0	0	0	0	0	0	0	0	0	0	0	0	0	0
121118	11:16:47	11:28:20	692275	5.0.10.0	4_exp_AWA_CON_AMP_EVA	3	Rpleas_acq	Oppo	Lpleas	Bmasked	CS_B	1pleas	distractor1	CONbeforeEVA	cond_new_pleas_456_masked_CS2	condtest_masked_2	9	22	400	1	300	300	0	0	423	46	0	1	0	0	0	1	blank2r.bmp	0	1	+	0	3	B3r.bmp	492	1	blank2r.bmp	786	1	GKQX	786	1	blank2r.bmp	866	1	freundlich	866	1	!	1239	1	!	1319	0	0	0	0	0	0	0	0	0	0	0	0	0	0	0	0	0	0	0	0	0	0	0	0	0	0	0
121118	11:16:47	11:28:22	694434	5.0.10.0	4_exp_AWA_CON_AMP_EVA	3	Rpleas_acq	Oppo	Lpleas	Bmasked	CS_B	1pleas	distractor1	CONbeforeEVA	cond_US_unple_123_masked_CS2	condtest_masked_2	9	23	400	1	300	300	0	0	370	46	0	0	0	0	0	1	blank2r.bmp	0	1	+	0	4	B4r.bmp	492	1	blank2r.bmp	786	1	GKQX	786	1	blank2r.bmp	866	3	strafen	866	1	!	1239	1	!	1266	0	0	0	0	0	0	0	0	0	0	0	0	0	0	0	0	0	0	0	0	0	0	0	0	0	0	0
121118	11:16:47	11:28:25	696686	5.0.10.0	4_exp_AWA_CON_AMP_EVA	3	Rpleas_acq	Oppo	Lpleas	Bmasked	CS_B	1pleas	distractor1	CONbeforeEVA	cond_US_pleas_123_masked_CS1	condtest_masked_2	9	24	400	0	300	300	0	0	486	46	0	1	0	0	0	1	blank2r.bmp	0	1	+	0	7	C3r.bmp	492	1	blank2r.bmp	786	1	BMVZ	786	1	blank2r.bmp	866	3	spielen	866	1	!	1239	1	!	-1	0	0	0	0	0	0	0	0	0	0	0	0	0	0	0	0	0	0	0	0	0	0	0	0	0	0	0
121118	11:16:47	11:28:27	698979	5.0.10.0	4_exp_AWA_CON_AMP_EVA	3	Rpleas_acq	Oppo	Lpleas	Bmasked	CS_B	1pleas	distractor1	CONbeforeEVA	cond_new_unple_456_masked_CS2	condtest_masked_2	9	25	400	1	300	300	0	0	466	50	0	1	0	0	0	1	blank2r.bmp	0	1	+	0	8	C4r.bmp	492	1	blank2r.bmp	786	1	GKQX	786	1	blank2r.bmp	866	1	fanatisch	866	1	!	1239	1	!	1372	0	0	0	0	0	0	0	0	0	0	0	0	0	0	0	0	0	0	0	0	0	0	0	0	0	0	0
121118	11:16:47	11:28:29	701231	5.0.10.0	4_exp_AWA_CON_AMP_EVA	3	Rpleas_acq	Oppo	Lpleas	Bmasked	CS_B	1pleas	distractor1	CONbeforeEVA	cond_US_unple_123_masked_CS1	condtest_masked_2	9	26	400	1	300	300	0	0	445	50	0	1	0	0	0	1	blank2r.bmp	0	1	+	0	5	C1r.bmp	492	1	blank2r.bmp	786	1	BMVZ	786	1	blank2r.bmp	866	1	schroff	866	1	!	1239	1	!	1346	0	0	0	0	0	0	0	0	0	0	0	0	0	0	0	0	0	0	0	0	0	0	0	0	0	0	0
121118	11:16:47	11:28:31	703417	5.0.10.0	4_exp_AWA_CON_AMP_EVA	3	Rpleas_acq	Oppo	Lpleas	Bmasked	CS_B	1pleas	distractor1	CONbeforeEVA	cond_new_pleas_456_masked_CS2	condtest_masked_2	9	27	400	1	300	300	0	0	387	46	0	1	0	0	0	1	blank2r.bmp	0	1	+	0	1	B1r.bmp	492	1	blank2r.bmp	786	1	GKQX	786	1	blank2r.bmp	866	3	lachen	866	1	!	1239	1	!	1292	0	0	0	0	0	0	0	0	0	0	0	0	0	0	0	0	0	0	0	0	0	0	0	0	0	0	0
121118	11:16:47	11:28:33	705576	5.0.10.0	4_exp_AWA_CON_AMP_EVA	3	Rpleas_acq	Oppo	Lpleas	Bmasked	CS_B	1pleas	distractor1	CONbeforeEVA	cond_US_pleas_123_masked_CS2	condtest_masked_2	9	28	400	1	300	300	0	0	370	50	0	0	0	0	0	1	blank2r.bmp	0	1	+	0	2	B2r.bmp	492	1	blank2r.bmp	786	1	GKQX	786	1	blank2r.bmp	866	1	schlau	866	1	!	1239	1	!	1266	0	0	0	0	0	0	0	0	0	0	0	0	0	0	0	0	0	0	0	0	0	0	0	0	0	0	0
121118	11:16:47	11:28:36	707828	5.0.10.0	4_exp_AWA_CON_AMP_EVA	3	Rpleas_acq	Oppo	Lpleas	Bmasked	CS_B	1pleas	distractor1	CONbeforeEVA	cond_new_pleas_456_masked_CS1	condtest_masked_2	9	29	400	1	300	300	0	0	440	46	0	1	0	0	0	1	blank2r.bmp	0	1	+	0	5	C1r.bmp	492	1	blank2r.bmp	786	1	BMVZ	786	1	blank2r.bmp	866	2	loyal	866	1	!	1239	1	!	1346	0	0	0	0	0	0	0	0	0	0	0	0	0	0	0	0	0	0	0	0	0	0	0	0	0	0	0
121118	11:16:47	11:28:38	710054	5.0.10.0	4_exp_AWA_CON_AMP_EVA	3	Rpleas_acq	Oppo	Lpleas	Bmasked	CS_B	1pleas	distractor1	CONbeforeEVA	cond_new_pleas_456_masked_CS1	condtest_masked_2	9	30	400	1	300	300	0	0	426	46	0	1	0	0	0	1	blank2r.bmp	0	1	+	0	4	B4r.bmp	492	1	blank2r.bmp	786	1	BMVZ	786	1	blank2r.bmp	866	1	freundlich	866	1	!	1239	1	!	1332	0	0	0	0	0	0	0	0	0	0	0	0	0	0	0	0	0	0	0	0	0	0	0	0	0	0	0
121118	11:16:47	11:28:40	712293	5.0.10.0	4_exp_AWA_CON_AMP_EVA	3	Rpleas_acq	Oppo	Lpleas	Bmasked	CS_B	1pleas	distractor1	CONbeforeEVA	cond_new_pleas_456_masked_CS1	condtest_masked_2	9	31	400	1	300	300	0	0	436	46	0	1	0	0	0	1	blank2r.bmp	0	1	+	0	8	C4r.bmp	492	1	blank2r.bmp	786	1	BMVZ	786	1	blank2r.bmp	866	3	lachen	866	1	!	1239	1	!	1332	0	0	0	0	0	0	0	0	0	0	0	0	0	0	0	0	0	0	0	0	0	0	0	0	0	0	0
121118	11:16:47	11:28:43	714719	5.0.10.0	4_exp_AWA_CON_AMP_EVA	3	Rpleas_acq	Oppo	Lpleas	Bmasked	CS_B	1pleas	distractor1	CONbeforeEVA	cond_new_unple_456_masked_CS2	condtest_masked_2	9	32	400	0	300	300	0	0	659	50	0	1	0	0	0	1	blank2r.bmp	0	1	+	0	6	C2r.bmp	492	1	blank2r.bmp	786	1	GKQX	786	1	blank2r.bmp	866	3	leiden	866	1	!	1239	1	!	-1	0	0	0	0	0	0	0	0	0	0	0	0	0	0	0	0	0	0	0	0	0	0	0	0	0	0	0
121118	11:16:47	11:28:45	716958	5.0.10.0	4_exp_AWA_CON_AMP_EVA	3	Rpleas_acq	Oppo	Lpleas	Bmasked	CS_B	1pleas	distractor1	CONbeforeEVA	cond_new_unple_456_masked_CS1	condtest_masked_2	9	33	400	1	300	300	0	0	426	46	0	0	0	0	0	1	blank2r.bmp	0	1	+	0	1	B1r.bmp	492	1	blank2r.bmp	786	1	BMVZ	786	1	blank2r.bmp	866	2	lasch	866	1	!	1239	1	!	1332	0	0	0	0	0	0	0	0	0	0	0	0	0	0	0	0	0	0	0	0	0	0	0	0	0	0	0
121118	11:16:47	11:28:47	719224	5.0.10.0	4_exp_AWA_CON_AMP_EVA	3	Rpleas_acq	Oppo	Lpleas	Bmasked	CS_B	1pleas	distractor1	CONbeforeEVA	cond_US_unple_123_masked_CS2	condtest_masked_2	9	34	400	0	300	300	0	0	495	50	0	1	0	0	0	1	blank2r.bmp	0	1	+	0	7	C3r.bmp	492	1	blank2r.bmp	786	1	GKQX	786	1	blank2r.bmp	866	2	eitel	866	1	!	1239	1	!	-1	0	0	0	0	0	0	0	0	0	0	0	0	0	0	0	0	0	0	0	0	0	0	0	0	0	0	0
121118	11:16:47	11:28:49	721423	5.0.10.0	4_exp_AWA_CON_AMP_EVA	3	Rpleas_acq	Oppo	Lpleas	Bmasked	CS_B	1pleas	distractor1	CONbeforeEVA	cond_US_pleas_123_masked_CS1	condtest_masked_2	9	35	400	1	300	300	0	0	395	46	0	1	0	0	0	1	blank2r.bmp	0	1	+	0	2	B2r.bmp	492	1	blank2r.bmp	786	1	BMVZ	786	1	blank2r.bmp	866	2	ehrlich	866	1	!	1239	1	!	1292	0	0	0	0	0	0	0	0	0	0	0	0	0	0	0	0	0	0	0	0	0	0	0	0	0	0	0
121118	11:16:47	11:28:52	723862	5.0.10.0	4_exp_AWA_CON_AMP_EVA	3	Rpleas_acq	Oppo	Lpleas	Bmasked	CS_B	1pleas	distractor1	CONbeforeEVA	cond_US_unple_123_masked_CS2	condtest_masked_2	9	36	400	0	300	300	0	0	675	50	0	1	0	0	0	1	blank2r.bmp	0	1	+	0	3	B3r.bmp	492	1	blank2r.bmp	786	1	GKQX	786	1	blank2r.bmp	866	2	eitel	866	1	!	1239	1	!	-1	0	0	0	0	0	0	0	0	0	0	0	0	0	0	0	0	0	0	0	0	0	0	0	0	0	0	0
121118	11:16:47	11:28:54	726101	5.0.10.0	4_exp_AWA_CON_AMP_EVA	3	Rpleas_acq	Oppo	Lpleas	Bmasked	CS_B	1pleas	distractor1	CONbeforeEVA	cond_US_pleas_123_masked_CS2	condtest_masked_2	9	37	400	1	300	300	0	0	414	46	0	1	0	0	0	1	blank2r.bmp	0	1	+	0	2	B2r.bmp	492	1	blank2r.bmp	786	1	GKQX	786	1	blank2r.bmp	866	3	spielen	866	1	!	1239	1	!	1319	0	0	0	0	0	0	0	0	0	0	0	0	0	0	0	0	0	0	0	0	0	0	0	0	0	0	0
121118	11:16:47	11:28:57	728686	5.0.10.0	4_exp_AWA_CON_AMP_EVA	3	Rpleas_acq	Oppo	Lpleas	Bmasked	CS_B	1pleas	distractor1	CONbeforeEVA	cond_US_unple_123_masked_CS2	condtest_masked_2	9	38	400	0	300	300	0	0	818	50	0	1	0	0	0	1	blank2r.bmp	0	1	+	0	1	B1r.bmp	492	1	blank2r.bmp	786	1	GKQX	786	1	blank2r.bmp	866	3	strafen	866	1	!	1239	1	!	-1	0	0	0	0	0	0	0	0	0	0	0	0	0	0	0	0	0	0	0	0	0	0	0	0	0	0	0
121118	11:16:47	11:28:59	731325	5.0.10.0	4_exp_AWA_CON_AMP_EVA	3	Rpleas_acq	Oppo	Lpleas	Bmasked	CS_B	1pleas	distractor1	CONbeforeEVA	cond_US_unple_123_masked_CS1	condtest_masked_2	9	39	400	0	300	300	0	0	856	50	0	1	0	0	0	1	blank2r.bmp	0	1	+	0	8	C4r.bmp	492	1	blank2r.bmp	786	1	BMVZ	786	1	blank2r.bmp	866	1	schroff	866	1	!	1239	1	!	-1	0	0	0	0	0	0	0	0	0	0	0	0	0	0	0	0	0	0	0	0	0	0	0	0	0	0	0
121118	11:16:47	11:29:02	734231	5.0.10.0	4_exp_AWA_CON_AMP_EVA	3	Rpleas_acq	Oppo	Lpleas	Bmasked	CS_B	1pleas	distractor1	CONbeforeEVA	cond_new_unple_456_masked_CS2	condtest_masked_2	9	40	400	0	300	300	0	0	1125	50	0	1	0	0	0	1	blank2r.bmp	0	1	+	0	3	B3r.bmp	492	1	blank2r.bmp	786	1	GKQX	786	1	blank2r.bmp	866	1	fanatisch	866	1	!	1239	1	!	-1	0	0	0	0	0	0	0	0	0	0	0	0	0	0	0	0	0	0	0	0	0	0	0	0	0	0	0
121118	11:16:47	11:29:19	750837	5.0.10.0	4_exp_AWA_CON_AMP_EVA	3	Rpleas_acq	Oppo	Lpleas	Bmasked	CS_B	1pleas	distractor1	CONbeforeEVA	cond_US_pleas_456_masked_CS2	condtest_masked_3	10	1	400	0	300	300	0	0	3162	46	0	1	0	0	0	1	blank2r.bmp	0	1	+	0	6	C2r.bmp	492	1	blank2r.bmp	786	1	GKQX	786	1	blank2r.bmp	866	1	tolerant	866	1	!	1239	1	!	-1	0	0	0	0	0	0	0	0	0	0	0	0	0	0	0	0	0	0	0	0	0	0	0	0	0	0	0
121118	11:16:47	11:29:21	753103	5.0.10.0	4_exp_AWA_CON_AMP_EVA	3	Rpleas_acq	Oppo	Lpleas	Bmasked	CS_B	1pleas	distractor1	CONbeforeEVA	cond_US_pleas_456_masked_CS2	condtest_masked_3	10	2	400	1	300	300	0	0	453	46	0	1	0	0	0	1	blank2r.bmp	0	1	+	0	5	C1r.bmp	492	1	blank2r.bmp	786	1	GKQX	786	1	blank2r.bmp	866	2	helfen	866	1	!	1239	1	!	1359	0	0	0	0	0	0	0	0	0	0	0	0	0	0	0	0	0	0	0	0	0	0	0	0	0	0	0
121118	11:16:47	11:29:23	755489	5.0.10.0	4_exp_AWA_CON_AMP_EVA	3	Rpleas_acq	Oppo	Lpleas	Bmasked	CS_B	1pleas	distractor1	CONbeforeEVA	cond_US_pleas_456_masked_CS2	condtest_masked_3	10	3	400	0	300	300	0	0	615	46	0	1	0	0	0	1	blank2r.bmp	0	1	+	0	7	C3r.bmp	492	1	blank2r.bmp	786	1	GKQX	786	1	blank2r.bmp	866	3	treu	866	1	!	1239	1	!	-1	0	0	0	0	0	0	0	0	0	0	0	0	0	0	0	0	0	0	0	0	0	0	0	0	0	0	0
121118	11:16:47	11:29:26	757888	5.0.10.0	4_exp_AWA_CON_AMP_EVA	3	Rpleas_acq	Oppo	Lpleas	Bmasked	CS_B	1pleas	distractor1	CONbeforeEVA	cond_new_unple_123_masked_CS1	condtest_masked_3	10	4	400	0	300	300	0	0	613	50	0	1	0	0	0	1	blank2r.bmp	0	1	+	0	4	B4r.bmp	492	1	blank2r.bmp	786	1	BMVZ	786	1	blank2r.bmp	866	3	faul	866	1	!	1239	1	!	-1	0	0	0	0	0	0	0	0	0	0	0	0	0	0	0	0	0	0	0	0	0	0	0	0	0	0	0
121118	11:16:47	11:29:28	760074	5.0.10.0	4_exp_AWA_CON_AMP_EVA	3	Rpleas_acq	Oppo	Lpleas	Bmasked	CS_B	1pleas	distractor1	CONbeforeEVA	cond_new_pleas_123_masked_CS1	condtest_masked_3	10	5	400	1	300	300	0	0	377	46	0	1	0	0	0	1	blank2r.bmp	0	1	+	0	7	C3r.bmp	492	1	blank2r.bmp	786	1	BMVZ	786	1	blank2r.bmp	866	1	schön	866	1	!	1239	1	!	1279	0	0	0	0	0	0	0	0	0	0	0	0	0	0	0	0	0	0	0	0	0	0	0	0	0	0	0
121118	11:16:47	11:29:30	762153	5.0.10.0	4_exp_AWA_CON_AMP_EVA	3	Rpleas_acq	Oppo	Lpleas	Bmasked	CS_B	1pleas	distractor1	CONbeforeEVA	cond_US_pleas_456_masked_CS2	condtest_masked_3	10	6	400	0	300	300	0	0	313	50	0	0	0	0	0	1	blank2r.bmp	0	1	+	0	8	C4r.bmp	492	1	blank2r.bmp	786	1	GKQX	786	1	blank2r.bmp	866	2	helfen	866	1	!	-1	1	!	-1	0	0	0	0	0	0	0	0	0	0	0	0	0	0	0	0	0	0	0	0	0	0	0	0	0	0	0
121118	11:16:47	11:29:32	764458	5.0.10.0	4_exp_AWA_CON_AMP_EVA	3	Rpleas_acq	Oppo	Lpleas	Bmasked	CS_B	1pleas	distractor1	CONbeforeEVA	cond_new_unple_123_masked_CS1	condtest_masked_3	10	7	400	0	300	300	0	0	520	50	0	1	0	0	0	1	blank2r.bmp	0	1	+	0	3	B3r.bmp	492	1	blank2r.bmp	786	1	BMVZ	786	1	blank2r.bmp	866	1	schlecht	866	1	!	1239	1	!	-1	0	0	0	0	0	0	0	0	0	0	0	0	0	0	0	0	0	0	0	0	0	0	0	0	0	0	0
121118	11:16:47	11:29:35	766711	5.0.10.0	4_exp_AWA_CON_AMP_EVA	3	Rpleas_acq	Oppo	Lpleas	Bmasked	CS_B	1pleas	distractor1	CONbeforeEVA	cond_new_unple_123_masked_CS1	condtest_masked_3	10	8	400	1	300	300	0	0	449	50	0	1	0	0	0	1	blank2r.bmp	0	1	+	0	2	B2r.bmp	492	1	blank2r.bmp	786	1	BMVZ	786	1	blank2r.bmp	866	2	rächen	866	1	!	1239	1	!	1346	0	0	0	0	0	0	0	0	0	0	0	0	0	0	0	0	0	0	0	0	0	0	0	0	0	0	0
121118	11:16:47	11:29:37	768937	5.0.10.0	4_exp_AWA_CON_AMP_EVA	3	Rpleas_acq	Oppo	Lpleas	Bmasked	CS_B	1pleas	distractor1	CONbeforeEVA	cond_US_pleas_456_masked_CS1	condtest_masked_3	10	9	400	1	300	300	0	0	431	46	0	1	0	0	0	1	blank2r.bmp	0	1	+	0	4	B4r.bmp	492	1	blank2r.bmp	786	1	BMVZ	786	1	blank2r.bmp	866	1	tolerant	866	1	!	1239	1	!	1332	0	0	0	0	0	0	0	0	0	0	0	0	0	0	0	0	0	0	0	0	0	0	0	0	0	0	0
121118	11:16:47	11:29:39	771109	5.0.10.0	4_exp_AWA_CON_AMP_EVA	3	Rpleas_acq	Oppo	Lpleas	Bmasked	CS_B	1pleas	distractor1	CONbeforeEVA	cond_new_unple_123_masked_CS1	condtest_masked_3	10	10	400	1	300	300	0	0	374	46	0	0	0	0	0	1	blank2r.bmp	0	1	+	0	5	C1r.bmp	492	1	blank2r.bmp	786	1	BMVZ	786	1	blank2r.bmp	866	1	schlecht	866	1	!	1239	1	!	1279	0	0	0	0	0	0	0	0	0	0	0	0	0	0	0	0	0	0	0	0	0	0	0	0	0	0	0
121118	11:16:47	11:29:41	773375	5.0.10.0	4_exp_AWA_CON_AMP_EVA	3	Rpleas_acq	Oppo	Lpleas	Bmasked	CS_B	1pleas	distractor1	CONbeforeEVA	cond_new_unple_123_masked_CS1	condtest_masked_3	10	11	400	0	300	300	0	0	497	50	0	1	0	0	0	1	blank2r.bmp	0	1	+	0	6	C2r.bmp	492	1	blank2r.bmp	786	1	BMVZ	786	1	blank2r.bmp	866	3	faul	866	1	!	1239	1	!	-1	0	0	0	0	0	0	0	0	0	0	0	0	0	0	0	0	0	0	0	0	0	0	0	0	0	0	0
121118	11:16:47	11:29:44	775667	5.0.10.0	4_exp_AWA_CON_AMP_EVA	3	Rpleas_acq	Oppo	Lpleas	Bmasked	CS_B	1pleas	distractor1	CONbeforeEVA	cond_US_pleas_456_masked_CS1	condtest_masked_3	10	12	400	0	300	300	0	0	513	46	0	1	0	0	0	1	blank2r.bmp	0	1	+	0	1	B1r.bmp	492	1	blank2r.bmp	786	1	BMVZ	786	1	blank2r.bmp	866	3	treu	866	1	!	1239	1	!	-1	0	0	0	0	0	0	0	0	0	0	0	0	0	0	0	0	0	0	0	0	0	0	0	0	0	0	0
121118	11:16:47	11:29:46	777986	5.0.10.0	4_exp_AWA_CON_AMP_EVA	3	Rpleas_acq	Oppo	Lpleas	Bmasked	CS_B	1pleas	distractor1	CONbeforeEVA	cond_US_pleas_456_masked_CS2	condtest_masked_3	10	13	400	0	300	300	0	0	538	46	0	1	0	0	0	1	blank2r.bmp	0	1	+	0	6	C2r.bmp	492	1	blank2r.bmp	786	1	GKQX	786	1	blank2r.bmp	866	1	tolerant	866	1	!	1239	1	!	-1	0	0	0	0	0	0	0	0	0	0	0	0	0	0	0	0	0	0	0	0	0	0	0	0	0	0	0
121118	11:16:47	11:29:48	780225	5.0.10.0	4_exp_AWA_CON_AMP_EVA	3	Rpleas_acq	Oppo	Lpleas	Bmasked	CS_B	1pleas	distractor1	CONbeforeEVA	cond_new_unple_123_masked_CS2	condtest_masked_3	10	14	400	1	300	300	0	0	429	50	0	1	0	0	0	1	blank2r.bmp	0	1	+	0	4	B4r.bmp	492	1	blank2r.bmp	786	1	GKQX	786	1	blank2r.bmp	866	2	rächen	866	1	!	1239	1	!	1332	0	0	0	0	0	0	0	0	0	0	0	0	0	0	0	0	0	0	0	0	0	0	0	0	0	0	0
121118	11:16:47	11:29:50	782478	5.0.10.0	4_exp_AWA_CON_AMP_EVA	3	Rpleas_acq	Oppo	Lpleas	Bmasked	CS_B	1pleas	distractor1	CONbeforeEVA	cond_new_pleas_123_masked_CS1	condtest_masked_3	10	15	400	0	300	300	0	0	479	46	0	1	0	0	0	1	blank2r.bmp	0	1	+	0	2	B2r.bmp	492	1	blank2r.bmp	786	1	BMVZ	786	1	blank2r.bmp	866	2	retten	866	1	!	1239	1	!	-1	0	0	0	0	0	0	0	0	0	0	0	0	0	0	0	0	0	0	0	0	0	0	0	0	0	0	0
121118	11:16:47	11:29:53	784690	5.0.10.0	4_exp_AWA_CON_AMP_EVA	3	Rpleas_acq	Oppo	Lpleas	Bmasked	CS_B	1pleas	distractor1	CONbeforeEVA	cond_US_unple_456_masked_CS1	condtest_masked_3	10	16	400	1	300	300	0	0	402	50	0	1	0	0	0	1	blank2r.bmp	0	1	+	0	3	B3r.bmp	492	1	blank2r.bmp	786	1	BMVZ	786	1	blank2r.bmp	866	3	tot	866	1	!	1239	1	!	1306	0	0	0	0	0	0	0	0	0	0	0	0	0	0	0	0	0	0	0	0	0	0	0	0	0	0	0
121118	11:16:47	11:29:55	786743	5.0.10.0	4_exp_AWA_CON_AMP_EVA	3	Rpleas_acq	Oppo	Lpleas	Bmasked	CS_B	1pleas	distractor1	CONbeforeEVA	cond_US_unple_456_masked_CS2	condtest_masked_3	10	17	400	0	300	300	0	0	286	50	0	1	0	0	0	1	blank2r.bmp	0	1	+	0	1	B1r.bmp	492	1	blank2r.bmp	786	1	GKQX	786	1	blank2r.bmp	866	1	tyrannisch	866	1	!	-1	1	!	-1	0	0	0	0	0	0	0	0	0	0	0	0	0	0	0	0	0	0	0	0	0	0	0	0	0	0	0
121118	11:16:47	11:29:57	788902	5.0.10.0	4_exp_AWA_CON_AMP_EVA	3	Rpleas_acq	Oppo	Lpleas	Bmasked	CS_B	1pleas	distractor1	CONbeforeEVA	cond_US_unple_456_masked_CS2	condtest_masked_3	10	18	400	1	300	300	0	0	346	50	0	1	0	0	0	1	blank2r.bmp	0	1	+	0	7	C3r.bmp	492	1	blank2r.bmp	786	1	GKQX	786	1	blank2r.bmp	866	2	hindern	866	1	!	1239	1	!	1252	0	0	0	0	0	0	0	0	0	0	0	0	0	0	0	0	0	0	0	0	0	0	0	0	0	0	0
121118	11:16:47	11:29:59	791221	5.0.10.0	4_exp_AWA_CON_AMP_EVA	3	Rpleas_acq	Oppo	Lpleas	Bmasked	CS_B	1pleas	distractor1	CONbeforeEVA	cond_new_pleas_123_masked_CS2	condtest_masked_3	10	19	400	0	300	300	0	0	556	46	0	1	0	0	0	1	blank2r.bmp	0	1	+	0	5	C1r.bmp	492	1	blank2r.bmp	786	1	GKQX	786	1	blank2r.bmp	866	3	fair	866	1	!	1239	1	!	-1	0	0	0	0	0	0	0	0	0	0	0	0	0	0	0	0	0	0	0	0	0	0	0	0	0	0	0
121118	11:16:47	11:30:01	793486	5.0.10.0	4_exp_AWA_CON_AMP_EVA	3	Rpleas_acq	Oppo	Lpleas	Bmasked	CS_B	1pleas	distractor1	CONbeforeEVA	cond_new_pleas_123_masked_CS1	condtest_masked_3	10	20	400	1	300	300	0	0	463	46	0	1	0	0	0	1	blank2r.bmp	0	1	+	0	8	C4r.bmp	492	1	blank2r.bmp	786	1	BMVZ	786	1	blank2r.bmp	866	1	schön	866	1	!	1239	1	!	1359	0	0	0	0	0	0	0	0	0	0	0	0	0	0	0	0	0	0	0	0	0	0	0	0	0	0	0
121118	11:16:47	11:30:04	795646	5.0.10.0	4_exp_AWA_CON_AMP_EVA	3	Rpleas_acq	Oppo	Lpleas	Bmasked	CS_B	1pleas	distractor1	CONbeforeEVA	cond_new_unple_123_masked_CS1	condtest_masked_3	10	21	400	1	300	300	0	0	370	50	0	1	0	0	0	1	blank2r.bmp	0	1	+	0	2	B2r.bmp	492	1	blank2r.bmp	786	1	BMVZ	786	1	blank2r.bmp	866	1	schlecht	866	1	!	1239	1	!	1266	0	0	0	0	0	0	0	0	0	0	0	0	0	0	0	0	0	0	0	0	0	0	0	0	0	0	0
121118	11:16:47	11:30:06	797858	5.0.10.0	4_exp_AWA_CON_AMP_EVA	3	Rpleas_acq	Oppo	Lpleas	Bmasked	CS_B	1pleas	distractor1	CONbeforeEVA	cond_new_pleas_123_masked_CS2	condtest_masked_3	10	22	400	1	300	300	0	0	417	46	0	1	0	0	0	1	blank2r.bmp	0	1	+	0	6	C2r.bmp	492	1	blank2r.bmp	786	1	GKQX	786	1	blank2r.bmp	866	3	fair	866	1	!	1239	1	!	1319	0	0	0	0	0	0	0	0	0	0	0	0	0	0	0	0	0	0	0	0	0	0	0	0	0	0	0
121118	11:16:47	11:30:08	800097	5.0.10.0	4_exp_AWA_CON_AMP_EVA	3	Rpleas_acq	Oppo	Lpleas	Bmasked	CS_B	1pleas	distractor1	CONbeforeEVA	cond_new_pleas_123_masked_CS1	condtest_masked_3	10	23	400	1	300	300	0	0	450	50	0	0	0	0	0	1	blank2r.bmp	0	1	+	0	1	B1r.bmp	492	1	blank2r.bmp	786	1	BMVZ	786	1	blank2r.bmp	866	2	retten	866	1	!	1239	1	!	1346	0	0	0	0	0	0	0	0	0	0	0	0	0	0	0	0	0	0	0	0	0	0	0	0	0	0	0
121118	11:16:47	11:30:10	802203	5.0.10.0	4_exp_AWA_CON_AMP_EVA	3	Rpleas_acq	Oppo	Lpleas	Bmasked	CS_B	1pleas	distractor1	CONbeforeEVA	cond_US_pleas_456_masked_CS1	condtest_masked_3	10	24	400	0	300	300	0	0	319	46	0	1	0	0	0	1	blank2r.bmp	0	1	+	0	8	C4r.bmp	492	1	blank2r.bmp	786	1	BMVZ	786	1	blank2r.bmp	866	2	helfen	866	1	!	-1	1	!	-1	0	0	0	0	0	0	0	0	0	0	0	0	0	0	0	0	0	0	0	0	0	0	0	0	0	0	0
121118	11:16:47	11:30:12	804282	5.0.10.0	4_exp_AWA_CON_AMP_EVA	3	Rpleas_acq	Oppo	Lpleas	Bmasked	CS_B	1pleas	distractor1	CONbeforeEVA	cond_new_pleas_123_masked_CS2	condtest_masked_3	10	25	400	0	300	300	0	0	304	46	0	1	0	0	0	1	blank2r.bmp	0	1	+	0	7	C3r.bmp	492	1	blank2r.bmp	786	1	GKQX	786	1	blank2r.bmp	866	3	fair	866	1	!	-1	1	!	-1	0	0	0	0	0	0	0	0	0	0	0	0	0	0	0	0	0	0	0	0	0	0	0	0	0	0	0
121118	11:16:47	11:30:14	806454	5.0.10.0	4_exp_AWA_CON_AMP_EVA	3	Rpleas_acq	Oppo	Lpleas	Bmasked	CS_B	1pleas	distractor1	CONbeforeEVA	cond_US_unple_456_masked_CS1	condtest_masked_3	10	26	400	1	300	300	0	0	362	50	0	1	0	0	0	1	blank2r.bmp	0	1	+	0	4	B4r.bmp	492	1	blank2r.bmp	786	1	BMVZ	786	1	blank2r.bmp	866	3	tot	866	1	!	1239	1	!	1266	0	0	0	0	0	0	0	0	0	0	0	0	0	0	0	0	0	0	0	0	0	0	0	0	0	0	0
121118	11:16:47	11:30:16	808507	5.0.10.0	4_exp_AWA_CON_AMP_EVA	3	Rpleas_acq	Oppo	Lpleas	Bmasked	CS_B	1pleas	distractor1	CONbeforeEVA	cond_US_unple_456_masked_CS2	condtest_masked_3	10	27	400	0	300	300	0	0	287	46	0	0	0	0	0	1	blank2r.bmp	0	1	+	0	5	C1r.bmp	492	1	blank2r.bmp	786	1	GKQX	786	1	blank2r.bmp	866	1	tyrannisch	866	1	!	-1	1	!	-1	0	0	0	0	0	0	0	0	0	0	0	0	0	0	0	0	0	0	0	0	0	0	0	0	0	0	0
121118	11:16:47	11:30:18	810586	5.0.10.0	4_exp_AWA_CON_AMP_EVA	3	Rpleas_acq	Oppo	Lpleas	Bmasked	CS_B	1pleas	distractor1	CONbeforeEVA	cond_US_unple_456_masked_CS2	condtest_masked_3	10	28	400	0	300	300	0	0	291	50	0	1	0	0	0	1	blank2r.bmp	0	1	+	0	3	B3r.bmp	492	1	blank2r.bmp	786	1	GKQX	786	1	blank2r.bmp	866	2	hindern	866	1	!	-1	1	!	-1	0	0	0	0	0	0	0	0	0	0	0	0	0	0	0	0	0	0	0	0	0	0	0	0	0	0	0
121118	11:16:47	11:30:21	813172	5.0.10.0	4_exp_AWA_CON_AMP_EVA	3	Rpleas_acq	Oppo	Lpleas	Bmasked	CS_B	1pleas	distractor1	CONbeforeEVA	cond_US_unple_456_masked_CS1	condtest_masked_3	10	29	400	0	300	300	0	0	805	50	0	1	0	0	0	1	blank2r.bmp	0	1	+	0	2	B2r.bmp	492	1	blank2r.bmp	786	1	BMVZ	786	1	blank2r.bmp	866	2	hindern	866	1	!	1239	1	!	-1	0	0	0	0	0	0	0	0	0	0	0	0	0	0	0	0	0	0	0	0	0	0	0	0	0	0	0
121118	11:16:47	11:30:23	815437	5.0.10.0	4_exp_AWA_CON_AMP_EVA	3	Rpleas_acq	Oppo	Lpleas	Bmasked	CS_B	1pleas	distractor1	CONbeforeEVA	cond_new_pleas_123_masked_CS1	condtest_masked_3	10	30	400	1	300	300	0	0	445	46	0	1	0	0	0	1	blank2r.bmp	0	1	+	0	6	C2r.bmp	492	1	blank2r.bmp	786	1	BMVZ	786	1	blank2r.bmp	866	2	retten	866	1	!	1239	1	!	1346	0	0	0	0	0	0	0	0	0	0	0	0	0	0	0	0	0	0	0	0	0	0	0	0	0	0	0
121118	11:16:47	11:30:25	817543	5.0.10.0	4_exp_AWA_CON_AMP_EVA	3	Rpleas_acq	Oppo	Lpleas	Bmasked	CS_B	1pleas	distractor1	CONbeforeEVA	cond_US_unple_456_masked_CS1	condtest_masked_3	10	31	400	0	300	300	0	0	333	50	0	1	0	0	0	1	blank2r.bmp	0	1	+	0	1	B1r.bmp	492	1	blank2r.bmp	786	1	BMVZ	786	1	blank2r.bmp	866	3	tot	866	1	!	-1	1	!	-1	0	0	0	0	0	0	0	0	0	0	0	0	0	0	0	0	0	0	0	0	0	0	0	0	0	0	0
121118	11:16:47	11:30:27	819596	5.0.10.0	4_exp_AWA_CON_AMP_EVA	3	Rpleas_acq	Oppo	Lpleas	Bmasked	CS_B	1pleas	distractor1	CONbeforeEVA	cond_new_pleas_123_masked_CS2	condtest_masked_3	10	32	400	0	300	300	0	0	265	50	0	0	0	0	0	1	blank2r.bmp	0	1	+	0	7	C3r.bmp	492	1	blank2r.bmp	786	1	GKQX	786	1	blank2r.bmp	866	1	schön	866	1	!	-1	1	!	-1	0	0	0	0	0	0	0	0	0	0	0	0	0	0	0	0	0	0	0	0	0	0	0	0	0	0	0
