date	time	script.currenttime	script.elapsedtime	build	script.currentexpt	subject	expressions.LRpleas_acq	expressions.SameOppo	expressions.condition_Lpleas	expressions.ABmasked	expressions.conditionCS_A	expressions.condition_1pleas	expressions.condition_distractor_AMP	expressions.AWACON_AMPEVA_first	trialcode	blockcode	blocknum	trialnum	windowcenter	inwindow	pretrialpause	posttrialpause	trialduration	trialtimeout	latency	response	expressions.correctedscore	correct	values.vis_performance	values.vis_rating_sum	values.vis_rating_mean	stimulusnumber1	stimulusitem1	stimulusonset1	stimulusnumber2	stimulusitem2	stimulusonset2	stimulusnumber3	stimulusitem3	stimulusonset3	stimulusnumber4	stimulusitem4	stimulusonset4	stimulusnumber5	stimulusitem5	stimulusonset5	stimulusnumber6	stimulusitem6	stimulusonset6	stimulusnumber7	stimulusitem7	stimulusonset7	stimulusnumber8	stimulusitem8	stimulusonset8	stimulusnumber9	stimulusitem9	stimulusonset9	stimulusnumber10	stimulusitem10	stimulusonset10	stimulusnumber11	stimulusitem11	stimulusonset11	stimulusnumber12	stimulusitem12	stimulusonset12	stimulusnumber13	stimulusitem13	stimulusonset13	stimulusnumber14	stimulusitem14	stimulusonset14	stimulusnumber15	stimulusitem15	stimulusonset15	stimulusnumber16	stimulusitem16	stimulusonset16	stimulusnumber17	stimulusitem17	stimulusonset17	stimulusnumber18	stimulusitem18	stimulusonset18
021119	12:49:30	12:52:18	167037	5.0.10.0	4_exp_AWA_CON_EVA_AMP	111	Rpleas_acq	Oppo	Rpleas	Amasked	CS_A	2pleas	distractor2	CONbeforeEVA	acq_US_unple_masked	acq1_masked	1	1	0	0	300	300	0	0	2656	46	0	1	0	0	0	1	blank2r.bmp	0	1	+	0	4	B4r.bmp	492	1	blank2r.bmp	786	1	CPLW	786	1	blank2r.bmp	866	3	töten	866	0	0	0	0	0	0	0	0	0	0	0	0	0	0	0	0	0	0	0	0	0	0	0	0	0	0	0	0	0	0	0	0	0
021119	12:49:30	12:52:21	170209	5.0.10.0	4_exp_AWA_CON_EVA_AMP	111	Rpleas_acq	Oppo	Rpleas	Amasked	CS_A	2pleas	distractor2	CONbeforeEVA	acq_US_unple_masked	acq1_masked	1	2	0	0	300	300	0	0	1700	46	0	1	0	0	0	1	blank2r.bmp	0	1	+	0	8	C4r.bmp	492	1	blank2r.bmp	786	1	CPLW	786	1	blank2r.bmp	866	6	ausrottung	866	0	0	0	0	0	0	0	0	0	0	0	0	0	0	0	0	0	0	0	0	0	0	0	0	0	0	0	0	0	0	0	0	0
021119	12:49:30	12:52:24	172808	5.0.10.0	4_exp_AWA_CON_EVA_AMP	111	Rpleas_acq	Oppo	Rpleas	Amasked	CS_A	2pleas	distractor2	CONbeforeEVA	acq_new_pleas_masked	acq1_masked	1	3	0	0	300	300	0	0	1115	50	0	1	0	0	0	1	blank2r.bmp	0	1	+	0	7	C3r.bmp	492	1	blank2r.bmp	786	2	B2r.bmp	786	1	blank2r.bmp	866	2	genießen	866	0	0	0	0	0	0	0	0	0	0	0	0	0	0	0	0	0	0	0	0	0	0	0	0	0	0	0	0	0	0	0	0	0
021119	12:49:30	12:52:27	175460	5.0.10.0	4_exp_AWA_CON_EVA_AMP	111	Rpleas_acq	Oppo	Rpleas	Amasked	CS_A	2pleas	distractor2	CONbeforeEVA	acq_new_pleas_masked	acq1_masked	1	4	0	0	300	300	0	0	1170	50	0	1	0	0	0	1	blank2r.bmp	0	1	+	0	1	B1r.bmp	492	1	blank2r.bmp	786	4	B4r.bmp	786	1	blank2r.bmp	866	4	vergnügt	866	0	0	0	0	0	0	0	0	0	0	0	0	0	0	0	0	0	0	0	0	0	0	0	0	0	0	0	0	0	0	0	0	0
021119	12:49:30	12:52:29	177766	5.0.10.0	4_exp_AWA_CON_EVA_AMP	111	Rpleas_acq	Oppo	Rpleas	Amasked	CS_A	2pleas	distractor2	CONbeforeEVA	acq_US_pleas_masked	acq1_masked	1	5	0	0	300	300	0	0	812	50	0	1	0	0	0	1	blank2r.bmp	0	1	+	0	2	B2r.bmp	492	1	blank2r.bmp	786	1	DHJF	786	1	blank2r.bmp	866	4	engagiert	866	0	0	0	0	0	0	0	0	0	0	0	0	0	0	0	0	0	0	0	0	0	0	0	0	0	0	0	0	0	0	0	0	0
021119	12:49:30	12:52:31	180192	5.0.10.0	4_exp_AWA_CON_EVA_AMP	111	Rpleas_acq	Oppo	Rpleas	Amasked	CS_A	2pleas	distractor2	CONbeforeEVA	acq_US_pleas_masked	acq1_masked	1	6	0	0	300	300	0	0	951	50	0	1	0	0	0	1	blank2r.bmp	0	1	+	0	5	C1r.bmp	492	1	blank2r.bmp	786	1	DHJF	786	1	blank2r.bmp	866	1	vertrauen	866	0	0	0	0	0	0	0	0	0	0	0	0	0	0	0	0	0	0	0	0	0	0	0	0	0	0	0	0	0	0	0	0	0
021119	12:49:30	12:52:35	183870	5.0.10.0	4_exp_AWA_CON_EVA_AMP	111	Rpleas_acq	Oppo	Rpleas	Amasked	CS_A	2pleas	distractor2	CONbeforeEVA	acq_new_unple_masked	acq1_masked	1	7	0	0	300	300	0	0	2193	46	0	1	0	0	0	1	blank2r.bmp	0	1	+	0	6	C2r.bmp	492	1	blank2r.bmp	786	7	C3r.bmp	786	1	blank2r.bmp	866	3	geizig	866	0	0	0	0	0	0	0	0	0	0	0	0	0	0	0	0	0	0	0	0	0	0	0	0	0	0	0	0	0	0	0	0	0
021119	12:49:30	12:52:37	186163	5.0.10.0	4_exp_AWA_CON_EVA_AMP	111	Rpleas_acq	Oppo	Rpleas	Amasked	CS_A	2pleas	distractor2	CONbeforeEVA	acq_new_unple_masked	acq1_masked	1	8	0	0	300	300	0	0	809	46	0	1	0	0	0	1	blank2r.bmp	0	1	+	0	3	B3r.bmp	492	1	blank2r.bmp	786	8	C4r.bmp	786	1	blank2r.bmp	866	5	krise	866	0	0	0	0	0	0	0	0	0	0	0	0	0	0	0	0	0	0	0	0	0	0	0	0	0	0	0	0	0	0	0	0	0
021119	12:49:30	12:52:40	188535	5.0.10.0	4_exp_AWA_CON_EVA_AMP	111	Rpleas_acq	Oppo	Rpleas	Amasked	CS_A	2pleas	distractor2	CONbeforeEVA	acq_US_pleas_masked	acq1_masked	1	9	0	0	300	300	0	0	878	50	0	1	0	0	0	1	blank2r.bmp	0	1	+	0	8	C4r.bmp	492	1	blank2r.bmp	786	1	DHJF	786	1	blank2r.bmp	866	6	anregung	866	0	0	0	0	0	0	0	0	0	0	0	0	0	0	0	0	0	0	0	0	0	0	0	0	0	0	0	0	0	0	0	0	0
021119	12:49:30	12:52:42	190721	5.0.10.0	4_exp_AWA_CON_EVA_AMP	111	Rpleas_acq	Oppo	Rpleas	Amasked	CS_A	2pleas	distractor2	CONbeforeEVA	acq_new_unple_masked	acq1_masked	1	10	0	0	300	300	0	0	714	46	0	1	0	0	0	1	blank2r.bmp	0	1	+	0	7	C3r.bmp	492	1	blank2r.bmp	786	1	B1r.bmp	786	1	blank2r.bmp	866	6	bange	866	0	0	0	0	0	0	0	0	0	0	0	0	0	0	0	0	0	0	0	0	0	0	0	0	0	0	0	0	0	0	0	0	0
021119	12:49:30	12:52:44	192986	5.0.10.0	4_exp_AWA_CON_EVA_AMP	111	Rpleas_acq	Oppo	Rpleas	Amasked	CS_A	2pleas	distractor2	CONbeforeEVA	acq_new_pleas_masked	acq1_masked	1	11	0	0	300	300	0	0	781	50	0	1	0	0	0	1	blank2r.bmp	0	1	+	0	1	B1r.bmp	492	1	blank2r.bmp	786	3	B3r.bmp	786	1	blank2r.bmp	866	6	besonnen	866	0	0	0	0	0	0	0	0	0	0	0	0	0	0	0	0	0	0	0	0	0	0	0	0	0	0	0	0	0	0	0	0	0
021119	12:49:30	12:52:46	195239	5.0.10.0	4_exp_AWA_CON_EVA_AMP	111	Rpleas_acq	Oppo	Rpleas	Amasked	CS_A	2pleas	distractor2	CONbeforeEVA	acq_US_unple_masked	acq1_masked	1	12	0	0	300	300	0	0	758	46	0	1	0	0	0	1	blank2r.bmp	0	1	+	0	6	C2r.bmp	492	1	blank2r.bmp	786	1	CPLW	786	1	blank2r.bmp	866	1	versagen	866	0	0	0	0	0	0	0	0	0	0	0	0	0	0	0	0	0	0	0	0	0	0	0	0	0	0	0	0	0	0	0	0	0
021119	12:49:30	12:52:50	198398	5.0.10.0	4_exp_AWA_CON_EVA_AMP	111	Rpleas_acq	Oppo	Rpleas	Amasked	CS_A	2pleas	distractor2	CONbeforeEVA	acq_new_pleas_masked	acq1_masked	1	13	0	0	300	300	0	0	1685	50	0	1	0	0	0	1	blank2r.bmp	0	1	+	0	3	B3r.bmp	492	1	blank2r.bmp	786	6	C2r.bmp	786	1	blank2r.bmp	866	3	gesittet	866	0	0	0	0	0	0	0	0	0	0	0	0	0	0	0	0	0	0	0	0	0	0	0	0	0	0	0	0	0	0	0	0	0
021119	12:49:30	12:52:52	201156	5.0.10.0	4_exp_AWA_CON_EVA_AMP	111	Rpleas_acq	Oppo	Rpleas	Amasked	CS_A	2pleas	distractor2	CONbeforeEVA	acq_US_pleas_masked	acq1_masked	1	14	0	0	300	300	0	0	1273	50	0	1	0	0	0	1	blank2r.bmp	0	1	+	0	2	B2r.bmp	492	1	blank2r.bmp	786	1	DHJF	786	1	blank2r.bmp	866	3	träumen	866	0	0	0	0	0	0	0	0	0	0	0	0	0	0	0	0	0	0	0	0	0	0	0	0	0	0	0	0	0	0	0	0	0
021119	12:49:30	12:52:54	203262	5.0.10.0	4_exp_AWA_CON_EVA_AMP	111	Rpleas_acq	Oppo	Rpleas	Amasked	CS_A	2pleas	distractor2	CONbeforeEVA	acq_US_unple_masked	acq1_masked	1	15	0	0	300	300	0	0	622	46	0	1	0	0	0	1	blank2r.bmp	0	1	+	0	4	B4r.bmp	492	1	blank2r.bmp	786	1	CPLW	786	1	blank2r.bmp	866	5	sterben	866	0	0	0	0	0	0	0	0	0	0	0	0	0	0	0	0	0	0	0	0	0	0	0	0	0	0	0	0	0	0	0	0	0
021119	12:49:30	12:52:57	205488	5.0.10.0	4_exp_AWA_CON_EVA_AMP	111	Rpleas_acq	Oppo	Rpleas	Amasked	CS_A	2pleas	distractor2	CONbeforeEVA	acq_US_unple_masked	acq1_masked	1	16	0	0	300	300	0	0	732	46	0	1	0	0	0	1	blank2r.bmp	0	1	+	0	5	C1r.bmp	492	1	blank2r.bmp	786	1	CPLW	786	1	blank2r.bmp	866	4	engstirnig	866	0	0	0	0	0	0	0	0	0	0	0	0	0	0	0	0	0	0	0	0	0	0	0	0	0	0	0	0	0	0	0	0	0
021119	12:49:30	12:52:59	208007	5.0.10.0	4_exp_AWA_CON_EVA_AMP	111	Rpleas_acq	Oppo	Rpleas	Amasked	CS_A	2pleas	distractor2	CONbeforeEVA	acq_new_unple_masked	acq1_masked	1	17	0	0	300	300	0	0	837	50	0	0	0	0	0	1	blank2r.bmp	0	1	+	0	3	B3r.bmp	492	1	blank2r.bmp	786	5	C1r.bmp	786	1	blank2r.bmp	866	4	verbissen	866	1	FEHLER	1732	0	0	0	0	0	0	0	0	0	0	0	0	0	0	0	0	0	0	0	0	0	0	0	0	0	0	0	0	0	0
021119	12:49:30	12:53:02	210553	5.0.10.0	4_exp_AWA_CON_EVA_AMP	111	Rpleas_acq	Oppo	Rpleas	Amasked	CS_A	2pleas	distractor2	CONbeforeEVA	acq_new_pleas_masked	acq1_masked	1	18	0	0	300	300	0	0	1266	50	0	1	0	0	0	1	blank2r.bmp	0	1	+	0	1	B1r.bmp	492	1	blank2r.bmp	786	5	C1r.bmp	786	1	blank2r.bmp	866	1	kreativ	866	0	0	0	0	0	0	0	0	0	0	0	0	0	0	0	0	0	0	0	0	0	0	0	0	0	0	0	0	0	0	0	0	0
021119	12:49:30	12:53:04	212925	5.0.10.0	4_exp_AWA_CON_EVA_AMP	111	Rpleas_acq	Oppo	Rpleas	Amasked	CS_A	2pleas	distractor2	CONbeforeEVA	acq_new_unple_masked	acq1_masked	1	19	0	0	300	300	0	0	893	46	0	1	0	0	0	1	blank2r.bmp	0	1	+	0	2	B2r.bmp	492	1	blank2r.bmp	786	6	C2r.bmp	786	1	blank2r.bmp	866	1	krank	866	0	0	0	0	0	0	0	0	0	0	0	0	0	0	0	0	0	0	0	0	0	0	0	0	0	0	0	0	0	0	0	0	0
021119	12:49:30	12:53:07	215737	5.0.10.0	4_exp_AWA_CON_EVA_AMP	111	Rpleas_acq	Oppo	Rpleas	Amasked	CS_A	2pleas	distractor2	CONbeforeEVA	acq_US_unple_masked	acq1_masked	1	20	0	0	300	300	0	0	1105	50	0	0	0	0	0	1	blank2r.bmp	0	1	+	0	8	C4r.bmp	492	1	blank2r.bmp	786	1	CPLW	786	1	blank2r.bmp	866	2	gierig	866	1	FEHLER	2012	0	0	0	0	0	0	0	0	0	0	0	0	0	0	0	0	0	0	0	0	0	0	0	0	0	0	0	0	0	0
021119	12:49:30	12:53:10	218336	5.0.10.0	4_exp_AWA_CON_EVA_AMP	111	Rpleas_acq	Oppo	Rpleas	Amasked	CS_A	2pleas	distractor2	CONbeforeEVA	acq_US_pleas_masked	acq1_masked	1	21	0	0	300	300	0	0	1339	50	0	1	0	0	0	1	blank2r.bmp	0	1	+	0	5	C1r.bmp	492	1	blank2r.bmp	786	1	DHJF	786	1	blank2r.bmp	866	5	sonnig	866	0	0	0	0	0	0	0	0	0	0	0	0	0	0	0	0	0	0	0	0	0	0	0	0	0	0	0	0	0	0	0	0	0
021119	12:49:30	12:53:12	220708	5.0.10.0	4_exp_AWA_CON_EVA_AMP	111	Rpleas_acq	Oppo	Rpleas	Amasked	CS_A	2pleas	distractor2	CONbeforeEVA	acq_US_pleas_masked	acq1_masked	1	22	0	0	300	300	0	0	887	50	0	1	0	0	0	1	blank2r.bmp	0	1	+	0	6	C2r.bmp	492	1	blank2r.bmp	786	1	DHJF	786	1	blank2r.bmp	866	2	gütig	866	0	0	0	0	0	0	0	0	0	0	0	0	0	0	0	0	0	0	0	0	0	0	0	0	0	0	0	0	0	0	0	0	0
021119	12:49:30	12:53:15	223614	5.0.10.0	4_exp_AWA_CON_EVA_AMP	111	Rpleas_acq	Oppo	Rpleas	Amasked	CS_A	2pleas	distractor2	CONbeforeEVA	acq_new_pleas_masked	acq1_masked	1	23	0	0	300	300	0	0	1422	50	0	1	0	0	0	1	blank2r.bmp	0	1	+	0	7	C3r.bmp	492	1	blank2r.bmp	786	1	B1r.bmp	786	1	blank2r.bmp	866	5	kuss	866	0	0	0	0	0	0	0	0	0	0	0	0	0	0	0	0	0	0	0	0	0	0	0	0	0	0	0	0	0	0	0	0	0
021119	12:49:30	12:53:18	226479	5.0.10.0	4_exp_AWA_CON_EVA_AMP	111	Rpleas_acq	Oppo	Rpleas	Amasked	CS_A	2pleas	distractor2	CONbeforeEVA	acq_new_unple_masked	acq1_masked	1	24	0	0	300	300	0	0	1391	46	0	1	0	0	0	1	blank2r.bmp	0	1	+	0	4	B4r.bmp	492	1	blank2r.bmp	786	7	C3r.bmp	786	1	blank2r.bmp	866	2	gemein	866	0	0	0	0	0	0	0	0	0	0	0	0	0	0	0	0	0	0	0	0	0	0	0	0	0	0	0	0	0	0	0	0	0
021119	12:49:30	12:53:21	229678	5.0.10.0	4_exp_AWA_CON_EVA_AMP	111	Rpleas_acq	Oppo	Rpleas	Amasked	CS_A	2pleas	distractor2	CONbeforeEVA	acq_US_pleas_masked	acq1_masked	1	25	0	0	300	300	0	0	1710	50	0	1	0	0	0	1	blank2r.bmp	0	1	+	0	4	B4r.bmp	492	1	blank2r.bmp	786	1	DHJF	786	1	blank2r.bmp	866	4	engagiert	866	0	0	0	0	0	0	0	0	0	0	0	0	0	0	0	0	0	0	0	0	0	0	0	0	0	0	0	0	0	0	0	0	0
021119	12:49:30	12:53:23	232224	5.0.10.0	4_exp_AWA_CON_EVA_AMP	111	Rpleas_acq	Oppo	Rpleas	Amasked	CS_A	2pleas	distractor2	CONbeforeEVA	acq_new_unple_masked	acq1_masked	1	26	0	0	300	300	0	0	1062	46	0	1	0	0	0	1	blank2r.bmp	0	1	+	0	7	C3r.bmp	492	1	blank2r.bmp	786	3	B3r.bmp	786	1	blank2r.bmp	866	2	gemein	866	0	0	0	0	0	0	0	0	0	0	0	0	0	0	0	0	0	0	0	0	0	0	0	0	0	0	0	0	0	0	0	0	0
021119	12:49:30	12:53:26	234423	5.0.10.0	4_exp_AWA_CON_EVA_AMP	111	Rpleas_acq	Oppo	Rpleas	Amasked	CS_A	2pleas	distractor2	CONbeforeEVA	acq_US_unple_masked	acq1_masked	1	27	0	0	300	300	0	0	716	46	0	1	0	0	0	1	blank2r.bmp	0	1	+	0	5	C1r.bmp	492	1	blank2r.bmp	786	1	CPLW	786	1	blank2r.bmp	866	1	versagen	866	0	0	0	0	0	0	0	0	0	0	0	0	0	0	0	0	0	0	0	0	0	0	0	0	0	0	0	0	0	0	0	0	0
021119	12:49:30	12:53:28	236928	5.0.10.0	4_exp_AWA_CON_EVA_AMP	111	Rpleas_acq	Oppo	Rpleas	Amasked	CS_A	2pleas	distractor2	CONbeforeEVA	acq_new_pleas_masked	acq1_masked	1	28	0	0	300	300	0	0	1021	50	0	1	0	0	0	1	blank2r.bmp	0	1	+	0	6	C2r.bmp	492	1	blank2r.bmp	786	8	C4r.bmp	786	1	blank2r.bmp	866	1	kreativ	866	0	0	0	0	0	0	0	0	0	0	0	0	0	0	0	0	0	0	0	0	0	0	0	0	0	0	0	0	0	0	0	0	0
021119	12:49:30	12:53:31	240007	5.0.10.0	4_exp_AWA_CON_EVA_AMP	111	Rpleas_acq	Oppo	Rpleas	Amasked	CS_A	2pleas	distractor2	CONbeforeEVA	acq_new_unple_masked	acq1_masked	1	29	0	0	300	300	0	0	1585	46	0	1	0	0	0	1	blank2r.bmp	0	1	+	0	1	B1r.bmp	492	1	blank2r.bmp	786	4	B4r.bmp	786	1	blank2r.bmp	866	3	geizig	866	0	0	0	0	0	0	0	0	0	0	0	0	0	0	0	0	0	0	0	0	0	0	0	0	0	0	0	0	0	0	0	0	0
021119	12:49:30	12:53:34	242886	5.0.10.0	4_exp_AWA_CON_EVA_AMP	111	Rpleas_acq	Oppo	Rpleas	Amasked	CS_A	2pleas	distractor2	CONbeforeEVA	acq_US_unple_masked	acq1_masked	1	30	0	0	300	300	0	0	1395	46	0	1	0	0	0	1	blank2r.bmp	0	1	+	0	8	C4r.bmp	492	1	blank2r.bmp	786	1	CPLW	786	1	blank2r.bmp	866	2	gierig	866	0	0	0	0	0	0	0	0	0	0	0	0	0	0	0	0	0	0	0	0	0	0	0	0	0	0	0	0	0	0	0	0	0
021119	12:49:30	12:53:36	245125	5.0.10.0	4_exp_AWA_CON_EVA_AMP	111	Rpleas_acq	Oppo	Rpleas	Amasked	CS_A	2pleas	distractor2	CONbeforeEVA	acq_new_pleas_masked	acq1_masked	1	31	0	0	300	300	0	0	757	50	0	1	0	0	0	1	blank2r.bmp	0	1	+	0	2	B2r.bmp	492	1	blank2r.bmp	786	2	B2r.bmp	786	1	blank2r.bmp	866	5	kuss	866	0	0	0	0	0	0	0	0	0	0	0	0	0	0	0	0	0	0	0	0	0	0	0	0	0	0	0	0	0	0	0	0	0
021119	12:49:30	12:53:39	247351	5.0.10.0	4_exp_AWA_CON_EVA_AMP	111	Rpleas_acq	Oppo	Rpleas	Amasked	CS_A	2pleas	distractor2	CONbeforeEVA	acq_new_unple_masked	acq1_masked	1	32	0	0	300	300	0	0	744	46	0	1	0	0	0	1	blank2r.bmp	0	1	+	0	3	B3r.bmp	492	1	blank2r.bmp	786	8	C4r.bmp	786	1	blank2r.bmp	866	5	krise	866	0	0	0	0	0	0	0	0	0	0	0	0	0	0	0	0	0	0	0	0	0	0	0	0	0	0	0	0	0	0	0	0	0
021119	12:49:30	12:53:41	249776	5.0.10.0	4_exp_AWA_CON_EVA_AMP	111	Rpleas_acq	Oppo	Rpleas	Amasked	CS_A	2pleas	distractor2	CONbeforeEVA	acq_US_pleas_masked	acq1_masked	1	33	0	0	300	300	0	0	934	50	0	1	0	0	0	1	blank2r.bmp	0	1	+	0	7	C3r.bmp	492	1	blank2r.bmp	786	1	DHJF	786	1	blank2r.bmp	866	3	träumen	866	0	0	0	0	0	0	0	0	0	0	0	0	0	0	0	0	0	0	0	0	0	0	0	0	0	0	0	0	0	0	0	0	0
021119	12:49:30	12:53:43	252242	5.0.10.0	4_exp_AWA_CON_EVA_AMP	111	Rpleas_acq	Oppo	Rpleas	Amasked	CS_A	2pleas	distractor2	CONbeforeEVA	acq_US_pleas_masked	acq1_masked	1	34	0	0	300	300	0	0	993	50	0	1	0	0	0	1	blank2r.bmp	0	1	+	0	8	C4r.bmp	492	1	blank2r.bmp	786	1	DHJF	786	1	blank2r.bmp	866	2	gütig	866	0	0	0	0	0	0	0	0	0	0	0	0	0	0	0	0	0	0	0	0	0	0	0	0	0	0	0	0	0	0	0	0	0
021119	12:49:30	12:53:46	254708	5.0.10.0	4_exp_AWA_CON_EVA_AMP	111	Rpleas_acq	Oppo	Rpleas	Amasked	CS_A	2pleas	distractor2	CONbeforeEVA	acq_new_pleas_masked	acq1_masked	1	35	0	0	300	300	0	0	987	50	0	1	0	0	0	1	blank2r.bmp	0	1	+	0	2	B2r.bmp	492	1	blank2r.bmp	786	4	B4r.bmp	786	1	blank2r.bmp	866	3	gesittet	866	0	0	0	0	0	0	0	0	0	0	0	0	0	0	0	0	0	0	0	0	0	0	0	0	0	0	0	0	0	0	0	0	0
021119	12:49:30	12:53:48	256840	5.0.10.0	4_exp_AWA_CON_EVA_AMP	111	Rpleas_acq	Oppo	Rpleas	Amasked	CS_A	2pleas	distractor2	CONbeforeEVA	acq_US_unple_masked	acq1_masked	1	36	0	0	300	300	0	0	664	46	0	1	0	0	0	1	blank2r.bmp	0	1	+	0	3	B3r.bmp	492	1	blank2r.bmp	786	1	CPLW	786	1	blank2r.bmp	866	3	töten	866	0	0	0	0	0	0	0	0	0	0	0	0	0	0	0	0	0	0	0	0	0	0	0	0	0	0	0	0	0	0	0	0	0
021119	12:49:30	12:54:42	310485	5.0.10.0	4_exp_AWA_CON_EVA_AMP	111	Rpleas_acq	Oppo	Rpleas	Amasked	CS_A	2pleas	distractor2	CONbeforeEVA	acq_new_pleas_masked	acq2_masked	2	1	480	0	300	300	0	0	4441	50	0	1	0	0	0	1	blank2r.bmp	0	1	+	0	4	B4r.bmp	492	1	blank2r.bmp	786	1	B1r.bmp	786	1	blank2r.bmp	866	6	besonnen	866	1	!	1319	1	!	-1	0	0	0	0	0	0	0	0	0	0	0	0	0	0	0	0	0	0	0	0	0	0	0	0	0	0	0
021119	12:49:30	12:54:44	312924	5.0.10.0	4_exp_AWA_CON_EVA_AMP	111	Rpleas_acq	Oppo	Rpleas	Amasked	CS_A	2pleas	distractor2	CONbeforeEVA	acq_US_pleas_masked	acq2_masked	2	2	480	0	300	300	0	0	653	50	0	1	0	0	0	1	blank2r.bmp	0	1	+	0	5	C1r.bmp	492	1	blank2r.bmp	786	1	DHJF	786	1	blank2r.bmp	866	1	vertrauen	866	1	!	1319	1	!	-1	0	0	0	0	0	0	0	0	0	0	0	0	0	0	0	0	0	0	0	0	0	0	0	0	0	0	0
021119	12:49:30	12:54:47	315283	5.0.10.0	4_exp_AWA_CON_EVA_AMP	111	Rpleas_acq	Oppo	Rpleas	Amasked	CS_A	2pleas	distractor2	CONbeforeEVA	acq_new_pleas_masked	acq2_masked	2	3	480	1	300	300	0	0	532	50	0	1	0	0	0	1	blank2r.bmp	0	1	+	0	1	B1r.bmp	492	1	blank2r.bmp	786	5	C1r.bmp	786	1	blank2r.bmp	866	4	vergnügt	866	1	!	1319	1	!	1439	0	0	0	0	0	0	0	0	0	0	0	0	0	0	0	0	0	0	0	0	0	0	0	0	0	0	0
021119	12:49:30	12:54:49	317748	5.0.10.0	4_exp_AWA_CON_EVA_AMP	111	Rpleas_acq	Oppo	Rpleas	Amasked	CS_A	2pleas	distractor2	CONbeforeEVA	acq_new_unple_masked	acq2_masked	2	4	480	1	300	300	0	0	452	50	0	0	0	0	0	1	blank2r.bmp	0	1	+	0	6	C2r.bmp	492	1	blank2r.bmp	786	2	B2r.bmp	786	1	blank2r.bmp	866	6	bange	866	1	FEHLER	1679	1	!	1319	1	!	1359	0	0	0	0	0	0	0	0	0	0	0	0	0	0	0	0	0	0	0	0	0	0	0	0
021119	12:49:30	12:54:51	319881	5.0.10.0	4_exp_AWA_CON_EVA_AMP	111	Rpleas_acq	Oppo	Rpleas	Amasked	CS_A	2pleas	distractor2	CONbeforeEVA	acq_new_pleas_masked	acq2_masked	2	5	480	0	300	300	0	0	576	50	0	1	0	0	0	1	blank2r.bmp	0	1	+	0	7	C3r.bmp	492	1	blank2r.bmp	786	3	B3r.bmp	786	1	blank2r.bmp	866	2	genießen	866	1	!	1319	1	!	-1	0	0	0	0	0	0	0	0	0	0	0	0	0	0	0	0	0	0	0	0	0	0	0	0	0	0	0
021119	12:49:30	12:54:53	322213	5.0.10.0	4_exp_AWA_CON_EVA_AMP	111	Rpleas_acq	Oppo	Rpleas	Amasked	CS_A	2pleas	distractor2	CONbeforeEVA	acq_US_pleas_masked	acq2_masked	2	6	480	1	300	300	0	0	511	50	0	1	0	0	0	1	blank2r.bmp	0	1	+	0	3	B3r.bmp	492	1	blank2r.bmp	786	1	DHJF	786	1	blank2r.bmp	866	5	sonnig	866	1	!	1319	1	!	1412	0	0	0	0	0	0	0	0	0	0	0	0	0	0	0	0	0	0	0	0	0	0	0	0	0	0	0
021119	12:49:30	12:54:56	324479	5.0.10.0	4_exp_AWA_CON_EVA_AMP	111	Rpleas_acq	Oppo	Rpleas	Amasked	CS_A	2pleas	distractor2	CONbeforeEVA	acq_US_unple_masked	acq2_masked	2	7	480	1	300	300	0	0	475	46	0	1	0	0	0	1	blank2r.bmp	0	1	+	0	2	B2r.bmp	492	1	blank2r.bmp	786	1	CPLW	786	1	blank2r.bmp	866	6	ausrottung	866	1	!	1319	1	!	1372	0	0	0	0	0	0	0	0	0	0	0	0	0	0	0	0	0	0	0	0	0	0	0	0	0	0	0
021119	12:49:30	12:54:58	326745	5.0.10.0	4_exp_AWA_CON_EVA_AMP	111	Rpleas_acq	Oppo	Rpleas	Amasked	CS_A	2pleas	distractor2	CONbeforeEVA	acq_US_unple_masked	acq2_masked	2	8	480	1	300	300	0	0	473	46	0	1	0	0	0	1	blank2r.bmp	0	1	+	0	1	B1r.bmp	492	1	blank2r.bmp	786	1	CPLW	786	1	blank2r.bmp	866	5	sterben	866	1	!	1319	1	!	1372	0	0	0	0	0	0	0	0	0	0	0	0	0	0	0	0	0	0	0	0	0	0	0	0	0	0	0
021119	12:49:30	12:55:00	328970	5.0.10.0	4_exp_AWA_CON_EVA_AMP	111	Rpleas_acq	Oppo	Rpleas	Amasked	CS_A	2pleas	distractor2	CONbeforeEVA	acq_US_pleas_masked	acq2_masked	2	9	480	1	300	300	0	0	434	50	0	1	0	0	0	1	blank2r.bmp	0	1	+	0	6	C2r.bmp	492	1	blank2r.bmp	786	1	DHJF	786	1	blank2r.bmp	866	6	anregung	866	1	!	1319	1	!	1332	0	0	0	0	0	0	0	0	0	0	0	0	0	0	0	0	0	0	0	0	0	0	0	0	0	0	0
021119	12:49:30	12:55:03	331356	5.0.10.0	4_exp_AWA_CON_EVA_AMP	111	Rpleas_acq	Oppo	Rpleas	Amasked	CS_A	2pleas	distractor2	CONbeforeEVA	acq_US_unple_masked	acq2_masked	2	10	480	0	300	300	0	0	386	50	0	0	0	0	0	1	blank2r.bmp	0	1	+	0	5	C1r.bmp	492	1	blank2r.bmp	786	1	CPLW	786	1	blank2r.bmp	866	4	engstirnig	866	1	FEHLER	1599	1	!	-1	1	!	-1	0	0	0	0	0	0	0	0	0	0	0	0	0	0	0	0	0	0	0	0	0	0	0	0
021119	12:49:30	12:55:05	333648	5.0.10.0	4_exp_AWA_CON_EVA_AMP	111	Rpleas_acq	Oppo	Rpleas	Amasked	CS_A	2pleas	distractor2	CONbeforeEVA	acq_new_unple_masked	acq2_masked	2	11	480	1	300	300	0	0	482	50	0	0	0	0	0	1	blank2r.bmp	0	1	+	0	4	B4r.bmp	492	1	blank2r.bmp	786	7	C3r.bmp	786	1	blank2r.bmp	866	1	krank	866	1	FEHLER	1705	1	!	1319	1	!	1386	0	0	0	0	0	0	0	0	0	0	0	0	0	0	0	0	0	0	0	0	0	0	0	0
021119	12:49:30	12:55:07	335941	5.0.10.0	4_exp_AWA_CON_EVA_AMP	111	Rpleas_acq	Oppo	Rpleas	Amasked	CS_A	2pleas	distractor2	CONbeforeEVA	acq_new_unple_masked	acq2_masked	2	12	480	1	300	300	0	0	482	50	0	0	0	0	0	1	blank2r.bmp	0	1	+	0	8	C4r.bmp	492	1	blank2r.bmp	786	6	C2r.bmp	786	1	blank2r.bmp	866	4	verbissen	866	1	FEHLER	1705	1	!	1319	1	!	1386	0	0	0	0	0	0	0	0	0	0	0	0	0	0	0	0	0	0	0	0	0	0	0	0
021119	12:49:30	12:55:09	338033	5.0.10.0	4_exp_AWA_CON_EVA_AMP	111	Rpleas_acq	Oppo	Rpleas	Amasked	CS_A	2pleas	distractor2	CONbeforeEVA	acq_new_pleas_masked	acq2_masked	2	13	480	1	300	300	0	0	498	50	0	1	0	0	0	1	blank2r.bmp	0	1	+	0	1	B1r.bmp	492	1	blank2r.bmp	786	8	C4r.bmp	786	1	blank2r.bmp	866	6	besonnen	866	1	!	1319	1	!	1399	0	0	0	0	0	0	0	0	0	0	0	0	0	0	0	0	0	0	0	0	0	0	0	0	0	0	0
021119	12:49:30	12:55:11	340152	5.0.10.0	4_exp_AWA_CON_EVA_AMP	111	Rpleas_acq	Oppo	Rpleas	Amasked	CS_A	2pleas	distractor2	CONbeforeEVA	acq_US_unple_masked	acq2_masked	2	14	480	0	300	300	0	0	352	46	0	1	0	0	0	1	blank2r.bmp	0	1	+	0	4	B4r.bmp	492	1	blank2r.bmp	786	1	CPLW	786	1	blank2r.bmp	866	1	versagen	866	1	!	-1	1	!	-1	0	0	0	0	0	0	0	0	0	0	0	0	0	0	0	0	0	0	0	0	0	0	0	0	0	0	0
021119	12:49:30	12:55:14	342751	5.0.10.0	4_exp_AWA_CON_EVA_AMP	111	Rpleas_acq	Oppo	Rpleas	Amasked	CS_A	2pleas	distractor2	CONbeforeEVA	acq_US_unple_masked	acq2_masked	2	15	480	0	300	300	0	0	593	50	0	0	0	0	0	1	blank2r.bmp	0	1	+	0	3	B3r.bmp	492	1	blank2r.bmp	786	1	CPLW	786	1	blank2r.bmp	866	4	engstirnig	866	1	FEHLER	1799	1	!	1319	1	!	-1	0	0	0	0	0	0	0	0	0	0	0	0	0	0	0	0	0	0	0	0	0	0	0	0
021119	12:49:30	12:55:16	344711	5.0.10.0	4_exp_AWA_CON_EVA_AMP	111	Rpleas_acq	Oppo	Rpleas	Amasked	CS_A	2pleas	distractor2	CONbeforeEVA	acq_new_unple_masked	acq2_masked	2	16	480	0	300	300	0	0	403	46	0	1	0	0	0	1	blank2r.bmp	0	1	+	0	7	C3r.bmp	492	1	blank2r.bmp	786	4	B4r.bmp	786	1	blank2r.bmp	866	4	verbissen	866	1	!	-1	1	!	-1	0	0	0	0	0	0	0	0	0	0	0	0	0	0	0	0	0	0	0	0	0	0	0	0	0	0	0
021119	12:49:30	12:55:19	347736	5.0.10.0	4_exp_AWA_CON_EVA_AMP	111	Rpleas_acq	Oppo	Rpleas	Amasked	CS_A	2pleas	distractor2	CONbeforeEVA	acq_US_pleas_masked	acq2_masked	2	17	480	0	300	300	0	0	1245	50	0	1	0	0	0	1	blank2r.bmp	0	1	+	0	2	B2r.bmp	492	1	blank2r.bmp	786	1	DHJF	786	1	blank2r.bmp	866	3	träumen	866	1	!	1319	1	!	-1	0	0	0	0	0	0	0	0	0	0	0	0	0	0	0	0	0	0	0	0	0	0	0	0	0	0	0
021119	12:49:30	12:55:21	350188	5.0.10.0	4_exp_AWA_CON_EVA_AMP	111	Rpleas_acq	Oppo	Rpleas	Amasked	CS_A	2pleas	distractor2	CONbeforeEVA	acq_US_pleas_masked	acq2_masked	2	18	480	0	300	300	0	0	665	50	0	1	0	0	0	1	blank2r.bmp	0	1	+	0	5	C1r.bmp	492	1	blank2r.bmp	786	1	DHJF	786	1	blank2r.bmp	866	4	engagiert	866	1	!	1319	1	!	-1	0	0	0	0	0	0	0	0	0	0	0	0	0	0	0	0	0	0	0	0	0	0	0	0	0	0	0
021119	12:49:30	12:55:24	352267	5.0.10.0	4_exp_AWA_CON_EVA_AMP	111	Rpleas_acq	Oppo	Rpleas	Amasked	CS_A	2pleas	distractor2	CONbeforeEVA	acq_US_unple_masked	acq2_masked	2	19	480	0	300	300	0	0	299	46	0	1	0	0	0	1	blank2r.bmp	0	1	+	0	6	C2r.bmp	492	1	blank2r.bmp	786	1	CPLW	786	1	blank2r.bmp	866	2	gierig	866	1	!	-1	1	!	-1	0	0	0	0	0	0	0	0	0	0	0	0	0	0	0	0	0	0	0	0	0	0	0	0	0	0	0
021119	12:49:30	12:55:26	354347	5.0.10.0	4_exp_AWA_CON_EVA_AMP	111	Rpleas_acq	Oppo	Rpleas	Amasked	CS_A	2pleas	distractor2	CONbeforeEVA	acq_new_unple_masked	acq2_masked	2	20	480	0	300	300	0	0	287	46	0	1	0	0	0	1	blank2r.bmp	0	1	+	0	8	C4r.bmp	492	1	blank2r.bmp	786	7	C3r.bmp	786	1	blank2r.bmp	866	3	geizig	866	1	!	-1	1	!	-1	0	0	0	0	0	0	0	0	0	0	0	0	0	0	0	0	0	0	0	0	0	0	0	0	0	0	0
021119	12:49:30	12:55:28	356719	5.0.10.0	4_exp_AWA_CON_EVA_AMP	111	Rpleas_acq	Oppo	Rpleas	Amasked	CS_A	2pleas	distractor2	CONbeforeEVA	acq_US_pleas_masked	acq2_masked	2	21	480	0	300	300	0	0	597	50	0	1	0	0	0	1	blank2r.bmp	0	1	+	0	1	B1r.bmp	492	1	blank2r.bmp	786	1	DHJF	786	1	blank2r.bmp	866	5	sonnig	866	1	!	1319	1	!	-1	0	0	0	0	0	0	0	0	0	0	0	0	0	0	0	0	0	0	0	0	0	0	0	0	0	0	0
021119	12:49:30	12:55:30	358958	5.0.10.0	4_exp_AWA_CON_EVA_AMP	111	Rpleas_acq	Oppo	Rpleas	Amasked	CS_A	2pleas	distractor2	CONbeforeEVA	acq_new_pleas_masked	acq2_masked	2	22	480	1	300	300	0	0	434	50	0	1	0	0	0	1	blank2r.bmp	0	1	+	0	8	C4r.bmp	492	1	blank2r.bmp	786	6	C2r.bmp	786	1	blank2r.bmp	866	4	vergnügt	866	1	!	1319	1	!	1332	0	0	0	0	0	0	0	0	0	0	0	0	0	0	0	0	0	0	0	0	0	0	0	0	0	0	0
021119	12:49:30	12:55:33	361290	5.0.10.0	4_exp_AWA_CON_EVA_AMP	111	Rpleas_acq	Oppo	Rpleas	Amasked	CS_A	2pleas	distractor2	CONbeforeEVA	acq_new_pleas_masked	acq2_masked	2	23	480	0	300	300	0	0	341	46	0	0	0	0	0	1	blank2r.bmp	0	1	+	0	7	C3r.bmp	492	1	blank2r.bmp	786	5	C1r.bmp	786	1	blank2r.bmp	866	1	kreativ	866	1	FEHLER	1546	1	!	-1	1	!	-1	0	0	0	0	0	0	0	0	0	0	0	0	0	0	0	0	0	0	0	0	0	0	0	0
021119	12:49:30	12:55:35	363463	5.0.10.0	4_exp_AWA_CON_EVA_AMP	111	Rpleas_acq	Oppo	Rpleas	Amasked	CS_A	2pleas	distractor2	CONbeforeEVA	acq_new_unple_masked	acq2_masked	2	24	480	0	300	300	0	0	375	50	0	0	0	0	0	1	blank2r.bmp	0	1	+	0	3	B3r.bmp	492	1	blank2r.bmp	786	1	B1r.bmp	786	1	blank2r.bmp	866	2	gemein	866	1	FEHLER	1586	1	!	-1	1	!	-1	0	0	0	0	0	0	0	0	0	0	0	0	0	0	0	0	0	0	0	0	0	0	0	0
021119	12:49:30	12:55:37	365582	5.0.10.0	4_exp_AWA_CON_EVA_AMP	111	Rpleas_acq	Oppo	Rpleas	Amasked	CS_A	2pleas	distractor2	CONbeforeEVA	acq_new_pleas_masked	acq2_masked	2	25	480	0	300	300	0	0	559	50	0	1	0	0	0	1	blank2r.bmp	0	1	+	0	4	B4r.bmp	492	1	blank2r.bmp	786	3	B3r.bmp	786	1	blank2r.bmp	866	5	kuss	866	1	!	1319	1	!	-1	0	0	0	0	0	0	0	0	0	0	0	0	0	0	0	0	0	0	0	0	0	0	0	0	0	0	0
021119	12:49:30	12:55:39	368074	5.0.10.0	4_exp_AWA_CON_EVA_AMP	111	Rpleas_acq	Oppo	Rpleas	Amasked	CS_A	2pleas	distractor2	CONbeforeEVA	acq_US_pleas_masked	acq2_masked	2	26	480	0	300	300	0	0	716	50	0	1	0	0	0	1	blank2r.bmp	0	1	+	0	6	C2r.bmp	492	1	blank2r.bmp	786	1	DHJF	786	1	blank2r.bmp	866	6	anregung	866	1	!	1319	1	!	-1	0	0	0	0	0	0	0	0	0	0	0	0	0	0	0	0	0	0	0	0	0	0	0	0	0	0	0
021119	12:49:30	12:55:41	370180	5.0.10.0	4_exp_AWA_CON_EVA_AMP	111	Rpleas_acq	Oppo	Rpleas	Amasked	CS_A	2pleas	distractor2	CONbeforeEVA	acq_US_unple_masked	acq2_masked	2	27	480	0	300	300	0	0	321	46	0	1	0	0	0	1	blank2r.bmp	0	1	+	0	2	B2r.bmp	492	1	blank2r.bmp	786	1	CPLW	786	1	blank2r.bmp	866	6	ausrottung	866	1	!	-1	1	!	-1	0	0	0	0	0	0	0	0	0	0	0	0	0	0	0	0	0	0	0	0	0	0	0	0	0	0	0
021119	12:49:30	12:55:45	373912	5.0.10.0	4_exp_AWA_CON_EVA_AMP	111	Rpleas_acq	Oppo	Rpleas	Amasked	CS_A	2pleas	distractor2	CONbeforeEVA	acq_new_unple_masked	acq2_masked	2	28	480	0	300	300	0	0	1944	46	0	1	0	0	0	1	blank2r.bmp	0	1	+	0	5	C1r.bmp	492	1	blank2r.bmp	786	2	B2r.bmp	786	1	blank2r.bmp	866	6	bange	866	1	!	1319	1	!	-1	0	0	0	0	0	0	0	0	0	0	0	0	0	0	0	0	0	0	0	0	0	0	0	0	0	0	0
021119	12:49:30	12:55:47	376084	5.0.10.0	4_exp_AWA_CON_EVA_AMP	111	Rpleas_acq	Oppo	Rpleas	Amasked	CS_A	2pleas	distractor2	CONbeforeEVA	acq_new_pleas_masked	acq2_masked	2	29	480	0	300	300	0	0	396	50	0	1	0	0	0	1	blank2r.bmp	0	1	+	0	3	B3r.bmp	492	1	blank2r.bmp	786	1	B1r.bmp	786	1	blank2r.bmp	866	3	gesittet	866	1	!	-1	1	!	-1	0	0	0	0	0	0	0	0	0	0	0	0	0	0	0	0	0	0	0	0	0	0	0	0	0	0	0
021119	12:49:30	12:55:50	378417	5.0.10.0	4_exp_AWA_CON_EVA_AMP	111	Rpleas_acq	Oppo	Rpleas	Amasked	CS_A	2pleas	distractor2	CONbeforeEVA	acq_US_pleas_masked	acq2_masked	2	30	480	0	300	300	0	0	331	46	0	0	0	0	0	1	blank2r.bmp	0	1	+	0	7	C3r.bmp	492	1	blank2r.bmp	786	1	DHJF	786	1	blank2r.bmp	866	2	gütig	866	1	FEHLER	1532	1	!	-1	1	!	-1	0	0	0	0	0	0	0	0	0	0	0	0	0	0	0	0	0	0	0	0	0	0	0	0
021119	12:49:30	12:55:52	380363	5.0.10.0	4_exp_AWA_CON_EVA_AMP	111	Rpleas_acq	Oppo	Rpleas	Amasked	CS_A	2pleas	distractor2	CONbeforeEVA	acq_new_pleas_masked	acq2_masked	2	31	480	0	300	300	0	0	392	50	0	1	0	0	0	1	blank2r.bmp	0	1	+	0	8	C4r.bmp	492	1	blank2r.bmp	786	6	C2r.bmp	786	1	blank2r.bmp	866	2	genießen	866	1	!	-1	1	!	-1	0	0	0	0	0	0	0	0	0	0	0	0	0	0	0	0	0	0	0	0	0	0	0	0	0	0	0
021119	12:49:30	12:55:54	382642	5.0.10.0	4_exp_AWA_CON_EVA_AMP	111	Rpleas_acq	Oppo	Rpleas	Amasked	CS_A	2pleas	distractor2	CONbeforeEVA	acq_new_unple_masked	acq2_masked	2	32	480	1	300	300	0	0	461	46	0	1	0	0	0	1	blank2r.bmp	0	1	+	0	2	B2r.bmp	492	1	blank2r.bmp	786	4	B4r.bmp	786	1	blank2r.bmp	866	1	krank	866	1	!	1319	1	!	1359	0	0	0	0	0	0	0	0	0	0	0	0	0	0	0	0	0	0	0	0	0	0	0	0	0	0	0
021119	12:49:30	12:55:57	385281	5.0.10.0	4_exp_AWA_CON_EVA_AMP	111	Rpleas_acq	Oppo	Rpleas	Amasked	CS_A	2pleas	distractor2	CONbeforeEVA	acq_US_unple_masked	acq2_masked	2	33	480	0	300	300	0	0	641	50	0	0	0	0	0	1	blank2r.bmp	0	1	+	0	4	B4r.bmp	492	1	blank2r.bmp	786	1	CPLW	786	1	blank2r.bmp	866	5	sterben	866	1	FEHLER	1852	1	!	1319	1	!	-1	0	0	0	0	0	0	0	0	0	0	0	0	0	0	0	0	0	0	0	0	0	0	0	0
021119	12:49:30	12:55:59	387346	5.0.10.0	4_exp_AWA_CON_EVA_AMP	111	Rpleas_acq	Oppo	Rpleas	Amasked	CS_A	2pleas	distractor2	CONbeforeEVA	acq_new_unple_masked	acq2_masked	2	34	480	1	300	300	0	0	485	46	0	1	0	0	0	1	blank2r.bmp	0	1	+	0	6	C2r.bmp	492	1	blank2r.bmp	786	3	B3r.bmp	786	1	blank2r.bmp	866	5	krise	866	1	!	1319	1	!	1386	0	0	0	0	0	0	0	0	0	0	0	0	0	0	0	0	0	0	0	0	0	0	0	0	0	0	0
021119	12:49:30	12:56:01	389732	5.0.10.0	4_exp_AWA_CON_EVA_AMP	111	Rpleas_acq	Oppo	Rpleas	Amasked	CS_A	2pleas	distractor2	CONbeforeEVA	acq_US_pleas_masked	acq2_masked	2	35	480	0	300	300	0	0	615	50	0	1	0	0	0	1	blank2r.bmp	0	1	+	0	1	B1r.bmp	492	1	blank2r.bmp	786	1	DHJF	786	1	blank2r.bmp	866	1	vertrauen	866	1	!	1319	1	!	-1	0	0	0	0	0	0	0	0	0	0	0	0	0	0	0	0	0	0	0	0	0	0	0	0	0	0	0
021119	12:49:30	12:56:03	391971	5.0.10.0	4_exp_AWA_CON_EVA_AMP	111	Rpleas_acq	Oppo	Rpleas	Amasked	CS_A	2pleas	distractor2	CONbeforeEVA	acq_US_unple_masked	acq2_masked	2	36	480	1	300	300	0	0	426	46	0	1	0	0	0	1	blank2r.bmp	0	1	+	0	5	C1r.bmp	492	1	blank2r.bmp	786	1	CPLW	786	1	blank2r.bmp	866	3	töten	866	1	!	1319	1	!	1332	0	0	0	0	0	0	0	0	0	0	0	0	0	0	0	0	0	0	0	0	0	0	0	0	0	0	0
021119	12:49:30	12:56:32	420519	5.0.10.0	4_exp_AWA_CON_EVA_AMP	111	Rpleas_acq	Oppo	Rpleas	Amasked	CS_A	2pleas	distractor2	CONbeforeEVA	acq_US_unple_masked	acq3_masked	3	1	453	1	300	300	0	0	498	46	0	1	0	0	0	1	blank2r.bmp	0	1	+	0	5	C1r.bmp	492	1	blank2r.bmp	786	1	CPLW	786	1	blank2r.bmp	866	2	gierig	866	1	!	1292	1	!	1399	0	0	0	0	0	0	0	0	0	0	0	0	0	0	0	0	0	0	0	0	0	0	0	0	0	0	0
021119	12:49:30	12:56:34	422745	5.0.10.0	4_exp_AWA_CON_EVA_AMP	111	Rpleas_acq	Oppo	Rpleas	Amasked	CS_A	2pleas	distractor2	CONbeforeEVA	acq_US_pleas_masked	acq3_masked	3	2	453	1	300	300	0	0	426	50	0	1	0	0	0	1	blank2r.bmp	0	1	+	0	8	C4r.bmp	492	1	blank2r.bmp	786	1	DHJF	786	1	blank2r.bmp	866	2	gütig	866	1	!	1292	1	!	1332	0	0	0	0	0	0	0	0	0	0	0	0	0	0	0	0	0	0	0	0	0	0	0	0	0	0	0
021119	12:49:30	12:56:36	424971	5.0.10.0	4_exp_AWA_CON_EVA_AMP	111	Rpleas_acq	Oppo	Rpleas	Amasked	CS_A	2pleas	distractor2	CONbeforeEVA	acq_US_pleas_masked	acq3_masked	3	3	453	1	300	300	0	0	413	50	0	1	0	0	0	1	blank2r.bmp	0	1	+	0	2	B2r.bmp	492	1	blank2r.bmp	786	1	DHJF	786	1	blank2r.bmp	866	5	sonnig	866	1	!	1292	1	!	1319	0	0	0	0	0	0	0	0	0	0	0	0	0	0	0	0	0	0	0	0	0	0	0	0	0	0	0
021119	12:49:30	12:56:38	427077	5.0.10.0	4_exp_AWA_CON_EVA_AMP	111	Rpleas_acq	Oppo	Rpleas	Amasked	CS_A	2pleas	distractor2	CONbeforeEVA	acq_US_unple_masked	acq3_masked	3	4	453	0	300	300	0	0	334	46	0	1	0	0	0	1	blank2r.bmp	0	1	+	0	7	C3r.bmp	492	1	blank2r.bmp	786	1	CPLW	786	1	blank2r.bmp	866	4	engstirnig	866	1	!	-1	1	!	-1	0	0	0	0	0	0	0	0	0	0	0	0	0	0	0	0	0	0	0	0	0	0	0	0	0	0	0
021119	12:49:30	12:56:41	429502	5.0.10.0	4_exp_AWA_CON_EVA_AMP	111	Rpleas_acq	Oppo	Rpleas	Amasked	CS_A	2pleas	distractor2	CONbeforeEVA	acq_US_unple_masked	acq3_masked	3	5	453	1	300	300	0	0	399	50	0	0	0	0	0	1	blank2r.bmp	0	1	+	0	4	B4r.bmp	492	1	blank2r.bmp	786	1	CPLW	786	1	blank2r.bmp	866	6	ausrottung	866	1	FEHLER	1625	1	!	1292	1	!	1306	0	0	0	0	0	0	0	0	0	0	0	0	0	0	0	0	0	0	0	0	0	0	0	0
021119	12:49:30	12:56:43	431488	5.0.10.0	4_exp_AWA_CON_EVA_AMP	111	Rpleas_acq	Oppo	Rpleas	Amasked	CS_A	2pleas	distractor2	CONbeforeEVA	acq_US_pleas_masked	acq3_masked	3	6	453	1	300	300	0	0	399	50	0	1	0	0	0	1	blank2r.bmp	0	1	+	0	6	C2r.bmp	492	1	blank2r.bmp	786	1	DHJF	786	1	blank2r.bmp	866	6	anregung	866	1	!	1292	1	!	1306	0	0	0	0	0	0	0	0	0	0	0	0	0	0	0	0	0	0	0	0	0	0	0	0	0	0	0
021119	12:49:30	12:56:45	433794	5.0.10.0	4_exp_AWA_CON_EVA_AMP	111	Rpleas_acq	Oppo	Rpleas	Amasked	CS_A	2pleas	distractor2	CONbeforeEVA	acq_US_unple_masked	acq3_masked	3	7	453	1	300	300	0	0	515	46	0	1	0	0	0	1	blank2r.bmp	0	1	+	0	1	B1r.bmp	492	1	blank2r.bmp	786	1	CPLW	786	1	blank2r.bmp	866	3	töten	866	1	!	1292	1	!	1412	0	0	0	0	0	0	0	0	0	0	0	0	0	0	0	0	0	0	0	0	0	0	0	0	0	0	0
021119	12:49:30	12:56:48	436260	5.0.10.0	4_exp_AWA_CON_EVA_AMP	111	Rpleas_acq	Oppo	Rpleas	Amasked	CS_A	2pleas	distractor2	CONbeforeEVA	acq_US_pleas_masked	acq3_masked	3	8	453	1	300	300	0	0	460	46	0	0	0	0	0	1	blank2r.bmp	0	1	+	0	3	B3r.bmp	492	1	blank2r.bmp	786	1	DHJF	786	1	blank2r.bmp	866	3	träumen	866	1	FEHLER	1679	1	!	1292	1	!	1359	0	0	0	0	0	0	0	0	0	0	0	0	0	0	0	0	0	0	0	0	0	0	0	0
021119	12:49:30	12:56:50	438472	5.0.10.0	4_exp_AWA_CON_EVA_AMP	111	Rpleas_acq	Oppo	Rpleas	Amasked	CS_A	2pleas	distractor2	CONbeforeEVA	acq_US_pleas_masked	acq3_masked	3	9	453	1	300	300	0	0	415	46	0	0	0	0	0	1	blank2r.bmp	0	1	+	0	1	B1r.bmp	492	1	blank2r.bmp	786	1	DHJF	786	1	blank2r.bmp	866	1	vertrauen	866	1	FEHLER	1639	1	!	1292	1	!	1319	0	0	0	0	0	0	0	0	0	0	0	0	0	0	0	0	0	0	0	0	0	0	0	0
021119	12:49:30	12:56:52	440524	5.0.10.0	4_exp_AWA_CON_EVA_AMP	111	Rpleas_acq	Oppo	Rpleas	Amasked	CS_A	2pleas	distractor2	CONbeforeEVA	acq_US_unple_masked	acq3_masked	3	10	453	1	300	300	0	0	467	46	0	1	0	0	0	1	blank2r.bmp	0	1	+	0	8	C4r.bmp	492	1	blank2r.bmp	786	1	CPLW	786	1	blank2r.bmp	866	1	versagen	866	1	!	1292	1	!	1372	0	0	0	0	0	0	0	0	0	0	0	0	0	0	0	0	0	0	0	0	0	0	0	0	0	0	0
021119	12:49:30	12:56:54	442870	5.0.10.0	4_exp_AWA_CON_EVA_AMP	111	Rpleas_acq	Oppo	Rpleas	Amasked	CS_A	2pleas	distractor2	CONbeforeEVA	acq_US_unple_masked	acq3_masked	3	11	453	0	300	300	0	0	352	50	0	0	0	0	0	1	blank2r.bmp	0	1	+	0	2	B2r.bmp	492	1	blank2r.bmp	786	1	CPLW	786	1	blank2r.bmp	866	5	sterben	866	1	FEHLER	1559	1	!	-1	1	!	-1	0	0	0	0	0	0	0	0	0	0	0	0	0	0	0	0	0	0	0	0	0	0	0	0
021119	12:49:30	12:56:56	444856	5.0.10.0	4_exp_AWA_CON_EVA_AMP	111	Rpleas_acq	Oppo	Rpleas	Amasked	CS_A	2pleas	distractor2	CONbeforeEVA	acq_US_pleas_masked	acq3_masked	3	12	453	1	300	300	0	0	411	50	0	1	0	0	0	1	blank2r.bmp	0	1	+	0	5	C1r.bmp	492	1	blank2r.bmp	786	1	DHJF	786	1	blank2r.bmp	866	4	engagiert	866	1	!	1292	1	!	1306	0	0	0	0	0	0	0	0	0	0	0	0	0	0	0	0	0	0	0	0	0	0	0	0	0	0	0
021119	12:49:30	12:56:59	447268	5.0.10.0	4_exp_AWA_CON_EVA_AMP	111	Rpleas_acq	Oppo	Rpleas	Amasked	CS_A	2pleas	distractor2	CONbeforeEVA	acq_US_pleas_masked	acq3_masked	3	13	453	1	300	300	0	0	399	46	0	0	0	0	0	1	blank2r.bmp	0	1	+	0	7	C3r.bmp	492	1	blank2r.bmp	786	1	DHJF	786	1	blank2r.bmp	866	5	sonnig	866	1	FEHLER	1625	1	!	1292	1	!	1306	0	0	0	0	0	0	0	0	0	0	0	0	0	0	0	0	0	0	0	0	0	0	0	0
021119	12:49:30	12:57:00	449174	5.0.10.0	4_exp_AWA_CON_EVA_AMP	111	Rpleas_acq	Oppo	Rpleas	Amasked	CS_A	2pleas	distractor2	CONbeforeEVA	acq_US_unple_masked	acq3_masked	3	14	453	0	300	300	0	0	355	46	0	1	0	0	0	1	blank2r.bmp	0	1	+	0	4	B4r.bmp	492	1	blank2r.bmp	786	1	CPLW	786	1	blank2r.bmp	866	5	sterben	866	1	!	-1	1	!	-1	0	0	0	0	0	0	0	0	0	0	0	0	0	0	0	0	0	0	0	0	0	0	0	0	0	0	0
021119	12:49:30	12:57:03	451627	5.0.10.0	4_exp_AWA_CON_EVA_AMP	111	Rpleas_acq	Oppo	Rpleas	Amasked	CS_A	2pleas	distractor2	CONbeforeEVA	acq_US_pleas_masked	acq3_masked	3	15	453	0	300	300	0	0	664	50	0	1	0	0	0	1	blank2r.bmp	0	1	+	0	3	B3r.bmp	492	1	blank2r.bmp	786	1	DHJF	786	1	blank2r.bmp	866	4	engagiert	866	1	!	1292	1	!	-1	0	0	0	0	0	0	0	0	0	0	0	0	0	0	0	0	0	0	0	0	0	0	0	0	0	0	0
021119	12:49:30	12:57:05	454079	5.0.10.0	4_exp_AWA_CON_EVA_AMP	111	Rpleas_acq	Oppo	Rpleas	Amasked	CS_A	2pleas	distractor2	CONbeforeEVA	acq_US_pleas_masked	acq3_masked	3	16	453	1	300	300	0	0	438	46	0	0	0	0	0	1	blank2r.bmp	0	1	+	0	6	C2r.bmp	492	1	blank2r.bmp	786	1	DHJF	786	1	blank2r.bmp	866	1	vertrauen	866	1	FEHLER	1652	1	!	1292	1	!	1332	0	0	0	0	0	0	0	0	0	0	0	0	0	0	0	0	0	0	0	0	0	0	0	0
021119	12:49:30	12:57:07	456131	5.0.10.0	4_exp_AWA_CON_EVA_AMP	111	Rpleas_acq	Oppo	Rpleas	Amasked	CS_A	2pleas	distractor2	CONbeforeEVA	acq_US_pleas_masked	acq3_masked	3	17	453	1	300	300	0	0	459	50	0	1	0	0	0	1	blank2r.bmp	0	1	+	0	2	B2r.bmp	492	1	blank2r.bmp	786	1	DHJF	786	1	blank2r.bmp	866	3	träumen	866	1	!	1292	1	!	1359	0	0	0	0	0	0	0	0	0	0	0	0	0	0	0	0	0	0	0	0	0	0	0	0	0	0	0
021119	12:49:30	12:57:10	458357	5.0.10.0	4_exp_AWA_CON_EVA_AMP	111	Rpleas_acq	Oppo	Rpleas	Amasked	CS_A	2pleas	distractor2	CONbeforeEVA	acq_US_pleas_masked	acq3_masked	3	18	453	1	300	300	0	0	436	50	0	1	0	0	0	1	blank2r.bmp	0	1	+	0	4	B4r.bmp	492	1	blank2r.bmp	786	1	DHJF	786	1	blank2r.bmp	866	6	anregung	866	1	!	1292	1	!	1332	0	0	0	0	0	0	0	0	0	0	0	0	0	0	0	0	0	0	0	0	0	0	0	0	0	0	0
021119	12:49:30	12:57:12	460769	5.0.10.0	4_exp_AWA_CON_EVA_AMP	111	Rpleas_acq	Oppo	Rpleas	Amasked	CS_A	2pleas	distractor2	CONbeforeEVA	acq_US_unple_masked	acq3_masked	3	19	453	1	300	300	0	0	417	50	0	0	0	0	0	1	blank2r.bmp	0	1	+	0	7	C3r.bmp	492	1	blank2r.bmp	786	1	CPLW	786	1	blank2r.bmp	866	6	ausrottung	866	1	FEHLER	1639	1	!	1292	1	!	1319	0	0	0	0	0	0	0	0	0	0	0	0	0	0	0	0	0	0	0	0	0	0	0	0
021119	12:49:30	12:57:16	464421	5.0.10.0	4_exp_AWA_CON_EVA_AMP	111	Rpleas_acq	Oppo	Rpleas	Amasked	CS_A	2pleas	distractor2	CONbeforeEVA	acq_US_unple_masked	acq3_masked	3	20	453	0	300	300	0	0	2081	46	0	1	0	0	0	1	blank2r.bmp	0	1	+	0	1	B1r.bmp	492	1	blank2r.bmp	786	1	CPLW	786	1	blank2r.bmp	866	4	engstirnig	866	1	!	1292	1	!	-1	0	0	0	0	0	0	0	0	0	0	0	0	0	0	0	0	0	0	0	0	0	0	0	0	0	0	0
021119	12:49:30	12:57:18	466780	5.0.10.0	4_exp_AWA_CON_EVA_AMP	111	Rpleas_acq	Oppo	Rpleas	Amasked	CS_A	2pleas	distractor2	CONbeforeEVA	acq_US_unple_masked	acq3_masked	3	21	453	0	300	300	0	0	580	46	0	1	0	0	0	1	blank2r.bmp	0	1	+	0	6	C2r.bmp	492	1	blank2r.bmp	786	1	CPLW	786	1	blank2r.bmp	866	2	gierig	866	1	!	1292	1	!	-1	0	0	0	0	0	0	0	0	0	0	0	0	0	0	0	0	0	0	0	0	0	0	0	0	0	0	0
021119	12:49:30	12:57:20	469099	5.0.10.0	4_exp_AWA_CON_EVA_AMP	111	Rpleas_acq	Oppo	Rpleas	Amasked	CS_A	2pleas	distractor2	CONbeforeEVA	acq_US_unple_masked	acq3_masked	3	22	453	0	300	300	0	0	540	46	0	1	0	0	0	1	blank2r.bmp	0	1	+	0	8	C4r.bmp	492	1	blank2r.bmp	786	1	CPLW	786	1	blank2r.bmp	866	1	versagen	866	1	!	1292	1	!	-1	0	0	0	0	0	0	0	0	0	0	0	0	0	0	0	0	0	0	0	0	0	0	0	0	0	0	0
021119	12:49:30	12:57:23	471378	5.0.10.0	4_exp_AWA_CON_EVA_AMP	111	Rpleas_acq	Oppo	Rpleas	Amasked	CS_A	2pleas	distractor2	CONbeforeEVA	acq_US_unple_masked	acq3_masked	3	23	453	1	300	300	0	0	478	46	0	1	0	0	0	1	blank2r.bmp	0	1	+	0	5	C1r.bmp	492	1	blank2r.bmp	786	1	CPLW	786	1	blank2r.bmp	866	3	töten	866	1	!	1292	1	!	1372	0	0	0	0	0	0	0	0	0	0	0	0	0	0	0	0	0	0	0	0	0	0	0	0	0	0	0
021119	12:49:30	12:57:25	473777	5.0.10.0	4_exp_AWA_CON_EVA_AMP	111	Rpleas_acq	Oppo	Rpleas	Amasked	CS_A	2pleas	distractor2	CONbeforeEVA	acq_US_pleas_masked	acq3_masked	3	24	453	1	300	300	0	0	400	46	0	0	0	0	0	1	blank2r.bmp	0	1	+	0	3	B3r.bmp	492	1	blank2r.bmp	786	1	DHJF	786	1	blank2r.bmp	866	2	gütig	866	1	FEHLER	1625	1	!	1292	1	!	1306	0	0	0	0	0	0	0	0	0	0	0	0	0	0	0	0	0	0	0	0	0	0	0	0
021119	12:49:30	12:57:27	475777	5.0.10.0	4_exp_AWA_CON_EVA_AMP	111	Rpleas_acq	Oppo	Rpleas	Amasked	CS_A	2pleas	distractor2	CONbeforeEVA	acq_US_unple_masked	acq3_masked	3	25	453	1	300	300	0	0	399	46	0	1	0	0	0	1	blank2r.bmp	0	1	+	0	1	B1r.bmp	492	1	blank2r.bmp	786	1	CPLW	786	1	blank2r.bmp	866	1	versagen	866	1	!	1292	1	!	1306	0	0	0	0	0	0	0	0	0	0	0	0	0	0	0	0	0	0	0	0	0	0	0	0	0	0	0
021119	12:49:30	12:57:29	477989	5.0.10.0	4_exp_AWA_CON_EVA_AMP	111	Rpleas_acq	Oppo	Rpleas	Amasked	CS_A	2pleas	distractor2	CONbeforeEVA	acq_US_pleas_masked	acq3_masked	3	26	453	1	300	300	0	0	420	50	0	1	0	0	0	1	blank2r.bmp	0	1	+	0	2	B2r.bmp	492	1	blank2r.bmp	786	1	DHJF	786	1	blank2r.bmp	866	5	sonnig	866	1	!	1292	1	!	1319	0	0	0	0	0	0	0	0	0	0	0	0	0	0	0	0	0	0	0	0	0	0	0	0	0	0	0
021119	12:49:30	12:57:32	480401	5.0.10.0	4_exp_AWA_CON_EVA_AMP	111	Rpleas_acq	Oppo	Rpleas	Amasked	CS_A	2pleas	distractor2	CONbeforeEVA	acq_US_pleas_masked	acq3_masked	3	27	453	1	300	300	0	0	399	46	0	0	0	0	0	1	blank2r.bmp	0	1	+	0	8	C4r.bmp	492	1	blank2r.bmp	786	1	DHJF	786	1	blank2r.bmp	866	1	vertrauen	866	1	FEHLER	1625	1	!	1292	1	!	1306	0	0	0	0	0	0	0	0	0	0	0	0	0	0	0	0	0	0	0	0	0	0	0	0
021119	12:49:30	12:57:34	482427	5.0.10.0	4_exp_AWA_CON_EVA_AMP	111	Rpleas_acq	Oppo	Rpleas	Amasked	CS_A	2pleas	distractor2	CONbeforeEVA	acq_US_pleas_masked	acq3_masked	3	28	453	1	300	300	0	0	448	50	0	1	0	0	0	1	blank2r.bmp	0	1	+	0	6	C2r.bmp	492	1	blank2r.bmp	786	1	DHJF	786	1	blank2r.bmp	866	3	träumen	866	1	!	1292	1	!	1346	0	0	0	0	0	0	0	0	0	0	0	0	0	0	0	0	0	0	0	0	0	0	0	0	0	0	0
021119	12:49:30	12:57:36	484626	5.0.10.0	4_exp_AWA_CON_EVA_AMP	111	Rpleas_acq	Oppo	Rpleas	Amasked	CS_A	2pleas	distractor2	CONbeforeEVA	acq_US_unple_masked	acq3_masked	3	29	453	1	300	300	0	0	409	46	0	1	0	0	0	1	blank2r.bmp	0	1	+	0	5	C1r.bmp	492	1	blank2r.bmp	786	1	CPLW	786	1	blank2r.bmp	866	6	ausrottung	866	1	!	1292	1	!	1306	0	0	0	0	0	0	0	0	0	0	0	0	0	0	0	0	0	0	0	0	0	0	0	0	0	0	0
021119	12:49:30	12:57:38	486772	5.0.10.0	4_exp_AWA_CON_EVA_AMP	111	Rpleas_acq	Oppo	Rpleas	Amasked	CS_A	2pleas	distractor2	CONbeforeEVA	acq_US_pleas_masked	acq3_masked	3	30	453	0	300	300	0	0	374	50	0	1	0	0	0	1	blank2r.bmp	0	1	+	0	4	B4r.bmp	492	1	blank2r.bmp	786	1	DHJF	786	1	blank2r.bmp	866	2	gütig	866	1	!	-1	1	!	-1	0	0	0	0	0	0	0	0	0	0	0	0	0	0	0	0	0	0	0	0	0	0	0	0	0	0	0
021119	12:49:30	12:57:40	489051	5.0.10.0	4_exp_AWA_CON_EVA_AMP	111	Rpleas_acq	Oppo	Rpleas	Amasked	CS_A	2pleas	distractor2	CONbeforeEVA	acq_US_unple_masked	acq3_masked	3	31	453	1	300	300	0	0	475	46	0	1	0	0	0	1	blank2r.bmp	0	1	+	0	3	B3r.bmp	492	1	blank2r.bmp	786	1	CPLW	786	1	blank2r.bmp	866	2	gierig	866	1	!	1292	1	!	1372	0	0	0	0	0	0	0	0	0	0	0	0	0	0	0	0	0	0	0	0	0	0	0	0	0	0	0
021119	12:49:30	12:57:43	491583	5.0.10.0	4_exp_AWA_CON_EVA_AMP	111	Rpleas_acq	Oppo	Rpleas	Amasked	CS_A	2pleas	distractor2	CONbeforeEVA	acq_US_unple_masked	acq3_masked	3	32	453	0	300	300	0	0	532	50	0	0	0	0	0	1	blank2r.bmp	0	1	+	0	7	C3r.bmp	492	1	blank2r.bmp	786	1	CPLW	786	1	blank2r.bmp	866	4	engstirnig	866	1	FEHLER	1745	1	!	1292	1	!	-1	0	0	0	0	0	0	0	0	0	0	0	0	0	0	0	0	0	0	0	0	0	0	0	0
021119	12:49:30	12:57:45	493756	5.0.10.0	4_exp_AWA_CON_EVA_AMP	111	Rpleas_acq	Oppo	Rpleas	Amasked	CS_A	2pleas	distractor2	CONbeforeEVA	acq_US_pleas_masked	acq3_masked	3	33	453	0	300	300	0	0	613	50	0	1	0	0	0	1	blank2r.bmp	0	1	+	0	8	C4r.bmp	492	1	blank2r.bmp	786	1	DHJF	786	1	blank2r.bmp	866	4	engagiert	866	1	!	1292	1	!	-1	0	0	0	0	0	0	0	0	0	0	0	0	0	0	0	0	0	0	0	0	0	0	0	0	0	0	0
021119	12:49:30	12:57:47	496208	5.0.10.0	4_exp_AWA_CON_EVA_AMP	111	Rpleas_acq	Oppo	Rpleas	Amasked	CS_A	2pleas	distractor2	CONbeforeEVA	acq_US_pleas_masked	acq3_masked	3	34	453	1	300	300	0	0	433	46	0	0	0	0	0	1	blank2r.bmp	0	1	+	0	4	B4r.bmp	492	1	blank2r.bmp	786	1	DHJF	786	1	blank2r.bmp	866	6	anregung	866	1	FEHLER	1652	1	!	1292	1	!	1332	0	0	0	0	0	0	0	0	0	0	0	0	0	0	0	0	0	0	0	0	0	0	0	0
021119	12:49:30	12:57:49	498261	5.0.10.0	4_exp_AWA_CON_EVA_AMP	111	Rpleas_acq	Oppo	Rpleas	Amasked	CS_A	2pleas	distractor2	CONbeforeEVA	acq_US_unple_masked	acq3_masked	3	35	453	1	300	300	0	0	477	46	0	1	0	0	0	1	blank2r.bmp	0	1	+	0	6	C2r.bmp	492	1	blank2r.bmp	786	1	CPLW	786	1	blank2r.bmp	866	5	sterben	866	1	!	1292	1	!	1372	0	0	0	0	0	0	0	0	0	0	0	0	0	0	0	0	0	0	0	0	0	0	0	0	0	0	0
021119	12:49:30	12:57:52	500673	5.0.10.0	4_exp_AWA_CON_EVA_AMP	111	Rpleas_acq	Oppo	Rpleas	Amasked	CS_A	2pleas	distractor2	CONbeforeEVA	acq_US_unple_masked	acq3_masked	3	36	453	1	300	300	0	0	402	50	0	0	0	0	0	1	blank2r.bmp	0	1	+	0	1	B1r.bmp	492	1	blank2r.bmp	786	1	CPLW	786	1	blank2r.bmp	866	3	töten	866	1	FEHLER	1625	1	!	1292	1	!	1306	0	0	0	0	0	0	0	0	0	0	0	0	0	0	0	0	0	0	0	0	0	0	0	0
021119	12:49:30	12:58:35	543589	5.0.10.0	4_exp_AWA_CON_EVA_AMP	111	Rpleas_acq	Oppo	Rpleas	Amasked	CS_A	2pleas	distractor2	CONbeforeEVA	acq_US_pleas_masked	acq45_masked	4	1	400	0	300	300	0	0	508	50	0	1	0	0	0	1	blank2r.bmp	0	1	+	0	5	C1r.bmp	492	1	blank2r.bmp	786	1	DHJF	786	1	blank2r.bmp	866	3	träumen	866	1	!	1239	1	!	-1	0	0	0	0	0	0	0	0	0	0	0	0	0	0	0	0	0	0	0	0	0	0	0	0	0	0	0
021119	12:49:30	12:58:37	545814	5.0.10.0	4_exp_AWA_CON_EVA_AMP	111	Rpleas_acq	Oppo	Rpleas	Amasked	CS_A	2pleas	distractor2	CONbeforeEVA	acq_US_unple_masked	acq45_masked	4	2	400	1	300	300	0	0	420	46	0	1	0	0	0	1	blank2r.bmp	0	1	+	0	7	C3r.bmp	492	1	blank2r.bmp	786	1	CPLW	786	1	blank2r.bmp	866	1	versagen	866	1	!	1239	1	!	1319	0	0	0	0	0	0	0	0	0	0	0	0	0	0	0	0	0	0	0	0	0	0	0	0	0	0	0
021119	12:49:30	12:58:39	547987	5.0.10.0	4_exp_AWA_CON_EVA_AMP	111	Rpleas_acq	Oppo	Rpleas	Amasked	CS_A	2pleas	distractor2	CONbeforeEVA	acq_US_unple_masked	acq45_masked	4	3	400	1	300	300	0	0	382	50	0	0	0	0	0	1	blank2r.bmp	0	1	+	0	3	B3r.bmp	492	1	blank2r.bmp	786	1	CPLW	786	1	blank2r.bmp	866	2	gierig	866	1	!	1239	1	!	1279	0	0	0	0	0	0	0	0	0	0	0	0	0	0	0	0	0	0	0	0	0	0	0	0	0	0	0
021119	12:49:30	12:58:41	550199	5.0.10.0	4_exp_AWA_CON_EVA_AMP	111	Rpleas_acq	Oppo	Rpleas	Amasked	CS_A	2pleas	distractor2	CONbeforeEVA	acq_US_pleas_masked	acq45_masked	4	4	400	1	300	300	0	0	422	50	0	1	0	0	0	1	blank2r.bmp	0	1	+	0	2	B2r.bmp	492	1	blank2r.bmp	786	1	DHJF	786	1	blank2r.bmp	866	1	vertrauen	866	1	!	1239	1	!	1319	0	0	0	0	0	0	0	0	0	0	0	0	0	0	0	0	0	0	0	0	0	0	0	0	0	0	0
021119	12:49:30	12:58:44	552398	5.0.10.0	4_exp_AWA_CON_EVA_AMP	111	Rpleas_acq	Oppo	Rpleas	Amasked	CS_A	2pleas	distractor2	CONbeforeEVA	acq_US_unple_masked	acq45_masked	4	5	400	1	300	300	0	0	399	46	0	1	0	0	0	1	blank2r.bmp	0	1	+	0	3	B3r.bmp	492	1	blank2r.bmp	786	1	CPLW	786	1	blank2r.bmp	866	6	ausrottung	866	1	!	1239	1	!	1306	0	0	0	0	0	0	0	0	0	0	0	0	0	0	0	0	0	0	0	0	0	0	0	0	0	0	0
021119	12:49:30	12:58:46	554478	5.0.10.0	4_exp_AWA_CON_EVA_AMP	111	Rpleas_acq	Oppo	Rpleas	Amasked	CS_A	2pleas	distractor2	CONbeforeEVA	acq_US_pleas_masked	acq45_masked	4	6	400	0	300	300	0	0	317	46	0	0	0	0	0	1	blank2r.bmp	0	1	+	0	5	C1r.bmp	492	1	blank2r.bmp	786	1	DHJF	786	1	blank2r.bmp	866	4	engagiert	866	1	!	-1	1	!	-1	0	0	0	0	0	0	0	0	0	0	0	0	0	0	0	0	0	0	0	0	0	0	0	0	0	0	0
021119	12:49:30	12:58:48	556743	5.0.10.0	4_exp_AWA_CON_EVA_AMP	111	Rpleas_acq	Oppo	Rpleas	Amasked	CS_A	2pleas	distractor2	CONbeforeEVA	acq_US_unple_masked	acq45_masked	4	7	400	0	300	300	0	0	482	46	0	1	0	0	0	1	blank2r.bmp	0	1	+	0	7	C3r.bmp	492	1	blank2r.bmp	786	1	CPLW	786	1	blank2r.bmp	866	5	sterben	866	1	!	1239	1	!	-1	0	0	0	0	0	0	0	0	0	0	0	0	0	0	0	0	0	0	0	0	0	0	0	0	0	0	0
021119	12:49:30	12:58:50	559142	5.0.10.0	4_exp_AWA_CON_EVA_AMP	111	Rpleas_acq	Oppo	Rpleas	Amasked	CS_A	2pleas	distractor2	CONbeforeEVA	acq_US_unple_masked	acq45_masked	4	8	400	0	300	300	0	0	612	46	0	1	0	0	0	1	blank2r.bmp	0	1	+	0	2	B2r.bmp	492	1	blank2r.bmp	786	1	CPLW	786	1	blank2r.bmp	866	3	töten	866	1	!	1239	1	!	-1	0	0	0	0	0	0	0	0	0	0	0	0	0	0	0	0	0	0	0	0	0	0	0	0	0	0	0
021119	12:49:30	12:58:53	561341	5.0.10.0	4_exp_AWA_CON_EVA_AMP	111	Rpleas_acq	Oppo	Rpleas	Amasked	CS_A	2pleas	distractor2	CONbeforeEVA	acq_US_pleas_masked	acq45_masked	4	9	400	1	300	300	0	0	390	50	0	1	0	0	0	1	blank2r.bmp	0	1	+	0	8	C4r.bmp	492	1	blank2r.bmp	786	1	DHJF	786	1	blank2r.bmp	866	6	anregung	866	1	!	1239	1	!	1292	0	0	0	0	0	0	0	0	0	0	0	0	0	0	0	0	0	0	0	0	0	0	0	0	0	0	0
021119	12:49:30	12:58:55	563594	5.0.10.0	4_exp_AWA_CON_EVA_AMP	111	Rpleas_acq	Oppo	Rpleas	Amasked	CS_A	2pleas	distractor2	CONbeforeEVA	acq_US_unple_masked	acq45_masked	4	10	400	1	300	300	0	0	456	50	0	0	0	0	0	1	blank2r.bmp	0	1	+	0	6	C2r.bmp	492	1	blank2r.bmp	786	1	CPLW	786	1	blank2r.bmp	866	4	engstirnig	866	1	!	1239	1	!	1359	0	0	0	0	0	0	0	0	0	0	0	0	0	0	0	0	0	0	0	0	0	0	0	0	0	0	0
021119	12:49:30	12:58:57	565846	5.0.10.0	4_exp_AWA_CON_EVA_AMP	111	Rpleas_acq	Oppo	Rpleas	Amasked	CS_A	2pleas	distractor2	CONbeforeEVA	acq_US_pleas_masked	acq45_masked	4	11	400	1	300	300	0	0	455	50	0	1	0	0	0	1	blank2r.bmp	0	1	+	0	4	B4r.bmp	492	1	blank2r.bmp	786	1	DHJF	786	1	blank2r.bmp	866	5	sonnig	866	1	!	1239	1	!	1359	0	0	0	0	0	0	0	0	0	0	0	0	0	0	0	0	0	0	0	0	0	0	0	0	0	0	0
021119	12:49:30	12:58:59	568099	5.0.10.0	4_exp_AWA_CON_EVA_AMP	111	Rpleas_acq	Oppo	Rpleas	Amasked	CS_A	2pleas	distractor2	CONbeforeEVA	acq_US_pleas_masked	acq45_masked	4	12	400	0	300	300	0	0	483	50	0	1	0	0	0	1	blank2r.bmp	0	1	+	0	1	B1r.bmp	492	1	blank2r.bmp	786	1	DHJF	786	1	blank2r.bmp	866	2	gütig	866	1	!	1239	1	!	-1	0	0	0	0	0	0	0	0	0	0	0	0	0	0	0	0	0	0	0	0	0	0	0	0	0	0	0
021119	12:49:30	12:59:02	570364	5.0.10.0	4_exp_AWA_CON_EVA_AMP	111	Rpleas_acq	Oppo	Rpleas	Amasked	CS_A	2pleas	distractor2	CONbeforeEVA	acq_US_unple_masked	acq45_masked	4	13	400	0	300	300	0	0	479	50	0	0	0	0	0	1	blank2r.bmp	0	1	+	0	5	C1r.bmp	492	1	blank2r.bmp	786	1	CPLW	786	1	blank2r.bmp	866	4	engstirnig	866	1	!	1239	1	!	-1	0	0	0	0	0	0	0	0	0	0	0	0	0	0	0	0	0	0	0	0	0	0	0	0	0	0	0
021119	12:49:30	12:59:04	572590	5.0.10.0	4_exp_AWA_CON_EVA_AMP	111	Rpleas_acq	Oppo	Rpleas	Amasked	CS_A	2pleas	distractor2	CONbeforeEVA	acq_US_pleas_masked	acq45_masked	4	14	400	1	300	300	0	0	423	50	0	1	0	0	0	1	blank2r.bmp	0	1	+	0	3	B3r.bmp	492	1	blank2r.bmp	786	1	DHJF	786	1	blank2r.bmp	866	3	träumen	866	1	!	1239	1	!	1319	0	0	0	0	0	0	0	0	0	0	0	0	0	0	0	0	0	0	0	0	0	0	0	0	0	0	0
021119	12:49:30	12:59:06	574749	5.0.10.0	4_exp_AWA_CON_EVA_AMP	111	Rpleas_acq	Oppo	Rpleas	Amasked	CS_A	2pleas	distractor2	CONbeforeEVA	acq_US_unple_masked	acq45_masked	4	15	400	1	300	300	0	0	361	46	0	1	0	0	0	1	blank2r.bmp	0	1	+	0	6	C2r.bmp	492	1	blank2r.bmp	786	1	CPLW	786	1	blank2r.bmp	866	5	sterben	866	1	!	1239	1	!	1266	0	0	0	0	0	0	0	0	0	0	0	0	0	0	0	0	0	0	0	0	0	0	0	0	0	0	0
021119	12:49:30	12:59:08	576948	5.0.10.0	4_exp_AWA_CON_EVA_AMP	111	Rpleas_acq	Oppo	Rpleas	Amasked	CS_A	2pleas	distractor2	CONbeforeEVA	acq_US_pleas_masked	acq45_masked	4	16	400	1	300	300	0	0	397	50	0	1	0	0	0	1	blank2r.bmp	0	1	+	0	2	B2r.bmp	492	1	blank2r.bmp	786	1	DHJF	786	1	blank2r.bmp	866	6	anregung	866	1	!	1239	1	!	1292	0	0	0	0	0	0	0	0	0	0	0	0	0	0	0	0	0	0	0	0	0	0	0	0	0	0	0
021119	12:49:30	12:59:10	579121	5.0.10.0	4_exp_AWA_CON_EVA_AMP	111	Rpleas_acq	Oppo	Rpleas	Amasked	CS_A	2pleas	distractor2	CONbeforeEVA	acq_US_pleas_masked	acq45_masked	4	17	400	1	300	300	0	0	359	50	0	1	0	0	0	1	blank2r.bmp	0	1	+	0	7	C3r.bmp	492	1	blank2r.bmp	786	1	DHJF	786	1	blank2r.bmp	866	5	sonnig	866	1	!	1239	1	!	1266	0	0	0	0	0	0	0	0	0	0	0	0	0	0	0	0	0	0	0	0	0	0	0	0	0	0	0
021119	12:49:30	12:59:13	581293	5.0.10.0	4_exp_AWA_CON_EVA_AMP	111	Rpleas_acq	Oppo	Rpleas	Amasked	CS_A	2pleas	distractor2	CONbeforeEVA	acq_US_unple_masked	acq45_masked	4	18	400	1	300	300	0	0	382	46	0	1	0	0	0	1	blank2r.bmp	0	1	+	0	4	B4r.bmp	492	1	blank2r.bmp	786	1	CPLW	786	1	blank2r.bmp	866	6	ausrottung	866	1	!	1239	1	!	1279	0	0	0	0	0	0	0	0	0	0	0	0	0	0	0	0	0	0	0	0	0	0	0	0	0	0	0
021119	12:49:30	12:59:15	583466	5.0.10.0	4_exp_AWA_CON_EVA_AMP	111	Rpleas_acq	Oppo	Rpleas	Amasked	CS_A	2pleas	distractor2	CONbeforeEVA	acq_US_pleas_masked	acq45_masked	4	19	400	1	300	300	0	0	380	50	0	1	0	0	0	1	blank2r.bmp	0	1	+	0	8	C4r.bmp	492	1	blank2r.bmp	786	1	DHJF	786	1	blank2r.bmp	866	2	gütig	866	1	!	1239	1	!	1279	0	0	0	0	0	0	0	0	0	0	0	0	0	0	0	0	0	0	0	0	0	0	0	0	0	0	0
021119	12:49:30	12:59:17	585505	5.0.10.0	4_exp_AWA_CON_EVA_AMP	111	Rpleas_acq	Oppo	Rpleas	Amasked	CS_A	2pleas	distractor2	CONbeforeEVA	acq_US_unple_masked	acq45_masked	4	20	400	0	300	300	0	0	275	46	0	1	0	0	0	1	blank2r.bmp	0	1	+	0	1	B1r.bmp	492	1	blank2r.bmp	786	1	CPLW	786	1	blank2r.bmp	866	1	versagen	866	1	!	-1	1	!	-1	0	0	0	0	0	0	0	0	0	0	0	0	0	0	0	0	0	0	0	0	0	0	0	0	0	0	0
021119	12:49:30	12:59:19	587757	5.0.10.0	4_exp_AWA_CON_EVA_AMP	111	Rpleas_acq	Oppo	Rpleas	Amasked	CS_A	2pleas	distractor2	CONbeforeEVA	acq_US_pleas_masked	acq45_masked	4	21	400	1	300	300	0	0	444	50	0	1	0	0	0	1	blank2r.bmp	0	1	+	0	5	C1r.bmp	492	1	blank2r.bmp	786	1	DHJF	786	1	blank2r.bmp	866	1	vertrauen	866	1	!	1239	1	!	1346	0	0	0	0	0	0	0	0	0	0	0	0	0	0	0	0	0	0	0	0	0	0	0	0	0	0	0
021119	12:49:30	12:59:21	589943	5.0.10.0	4_exp_AWA_CON_EVA_AMP	111	Rpleas_acq	Oppo	Rpleas	Amasked	CS_A	2pleas	distractor2	CONbeforeEVA	acq_US_unple_masked	acq45_masked	4	22	400	1	300	300	0	0	390	46	0	1	0	0	0	1	blank2r.bmp	0	1	+	0	4	B4r.bmp	492	1	blank2r.bmp	786	1	CPLW	786	1	blank2r.bmp	866	3	töten	866	1	!	1239	1	!	1292	0	0	0	0	0	0	0	0	0	0	0	0	0	0	0	0	0	0	0	0	0	0	0	0	0	0	0
021119	12:49:30	12:59:24	592302	5.0.10.0	4_exp_AWA_CON_EVA_AMP	111	Rpleas_acq	Oppo	Rpleas	Amasked	CS_A	2pleas	distractor2	CONbeforeEVA	acq_US_unple_masked	acq45_masked	4	23	400	0	300	300	0	0	580	46	0	1	0	0	0	1	blank2r.bmp	0	1	+	0	1	B1r.bmp	492	1	blank2r.bmp	786	1	CPLW	786	1	blank2r.bmp	866	2	gierig	866	1	!	1239	1	!	-1	0	0	0	0	0	0	0	0	0	0	0	0	0	0	0	0	0	0	0	0	0	0	0	0	0	0	0
021119	12:49:30	12:59:26	594554	5.0.10.0	4_exp_AWA_CON_EVA_AMP	111	Rpleas_acq	Oppo	Rpleas	Amasked	CS_A	2pleas	distractor2	CONbeforeEVA	acq_US_unple_masked	acq45_masked	4	24	400	1	300	300	0	0	430	46	0	1	0	0	0	1	blank2r.bmp	0	1	+	0	2	B2r.bmp	492	1	blank2r.bmp	786	1	CPLW	786	1	blank2r.bmp	866	2	gierig	866	1	!	1239	1	!	1332	0	0	0	0	0	0	0	0	0	0	0	0	0	0	0	0	0	0	0	0	0	0	0	0	0	0	0
021119	12:49:30	12:59:28	596940	5.0.10.0	4_exp_AWA_CON_EVA_AMP	111	Rpleas_acq	Oppo	Rpleas	Amasked	CS_A	2pleas	distractor2	CONbeforeEVA	acq_US_pleas_masked	acq45_masked	4	25	400	0	300	300	0	0	623	50	0	1	0	0	0	1	blank2r.bmp	0	1	+	0	8	C4r.bmp	492	1	blank2r.bmp	786	1	DHJF	786	1	blank2r.bmp	866	4	engagiert	866	1	!	1239	1	!	-1	0	0	0	0	0	0	0	0	0	0	0	0	0	0	0	0	0	0	0	0	0	0	0	0	0	0	0
021119	12:49:30	12:59:30	599099	5.0.10.0	4_exp_AWA_CON_EVA_AMP	111	Rpleas_acq	Oppo	Rpleas	Amasked	CS_A	2pleas	distractor2	CONbeforeEVA	acq_US_pleas_masked	acq45_masked	4	26	400	1	300	300	0	0	346	46	0	0	0	0	0	1	blank2r.bmp	0	1	+	0	3	B3r.bmp	492	1	blank2r.bmp	786	1	DHJF	786	1	blank2r.bmp	866	4	engagiert	866	1	!	1239	1	!	1252	0	0	0	0	0	0	0	0	0	0	0	0	0	0	0	0	0	0	0	0	0	0	0	0	0	0	0
021119	12:49:30	12:59:33	601338	5.0.10.0	4_exp_AWA_CON_EVA_AMP	111	Rpleas_acq	Oppo	Rpleas	Amasked	CS_A	2pleas	distractor2	CONbeforeEVA	acq_US_unple_masked	acq45_masked	4	27	400	1	300	300	0	0	440	46	0	1	0	0	0	1	blank2r.bmp	0	1	+	0	7	C3r.bmp	492	1	blank2r.bmp	786	1	CPLW	786	1	blank2r.bmp	866	6	ausrottung	866	1	!	1239	1	!	1346	0	0	0	0	0	0	0	0	0	0	0	0	0	0	0	0	0	0	0	0	0	0	0	0	0	0	0
021119	12:49:30	12:59:35	603537	5.0.10.0	4_exp_AWA_CON_EVA_AMP	111	Rpleas_acq	Oppo	Rpleas	Amasked	CS_A	2pleas	distractor2	CONbeforeEVA	acq_US_unple_masked	acq45_masked	4	28	400	1	300	300	0	0	403	50	0	0	0	0	0	1	blank2r.bmp	0	1	+	0	6	C2r.bmp	492	1	blank2r.bmp	786	1	CPLW	786	1	blank2r.bmp	866	5	sterben	866	1	!	1239	1	!	1306	0	0	0	0	0	0	0	0	0	0	0	0	0	0	0	0	0	0	0	0	0	0	0	0	0	0	0
021119	12:49:30	12:59:37	605790	5.0.10.0	4_exp_AWA_CON_EVA_AMP	111	Rpleas_acq	Oppo	Rpleas	Amasked	CS_A	2pleas	distractor2	CONbeforeEVA	acq_US_pleas_masked	acq45_masked	4	29	400	0	300	300	0	0	481	50	0	1	0	0	0	1	blank2r.bmp	0	1	+	0	7	C3r.bmp	492	1	blank2r.bmp	786	1	DHJF	786	1	blank2r.bmp	866	5	sonnig	866	1	!	1239	1	!	-1	0	0	0	0	0	0	0	0	0	0	0	0	0	0	0	0	0	0	0	0	0	0	0	0	0	0	0
021119	12:49:30	12:59:39	608055	5.0.10.0	4_exp_AWA_CON_EVA_AMP	111	Rpleas_acq	Oppo	Rpleas	Amasked	CS_A	2pleas	distractor2	CONbeforeEVA	acq_US_pleas_masked	acq45_masked	4	30	400	1	300	300	0	0	461	46	0	0	0	0	0	1	blank2r.bmp	0	1	+	0	6	C2r.bmp	492	1	blank2r.bmp	786	1	DHJF	786	1	blank2r.bmp	866	2	gütig	866	1	!	1239	1	!	1359	0	0	0	0	0	0	0	0	0	0	0	0	0	0	0	0	0	0	0	0	0	0	0	0	0	0	0
021119	12:49:30	12:59:42	610361	5.0.10.0	4_exp_AWA_CON_EVA_AMP	111	Rpleas_acq	Oppo	Rpleas	Amasked	CS_A	2pleas	distractor2	CONbeforeEVA	acq_US_pleas_masked	acq45_masked	4	31	400	0	300	300	0	0	522	50	0	1	0	0	0	1	blank2r.bmp	0	1	+	0	5	C1r.bmp	492	1	blank2r.bmp	786	1	DHJF	786	1	blank2r.bmp	866	6	anregung	866	1	!	1239	1	!	-1	0	0	0	0	0	0	0	0	0	0	0	0	0	0	0	0	0	0	0	0	0	0	0	0	0	0	0
021119	12:49:30	12:59:44	612627	5.0.10.0	4_exp_AWA_CON_EVA_AMP	111	Rpleas_acq	Oppo	Rpleas	Amasked	CS_A	2pleas	distractor2	CONbeforeEVA	acq_US_unple_masked	acq45_masked	4	32	400	1	300	300	0	0	454	46	0	1	0	0	0	1	blank2r.bmp	0	1	+	0	3	B3r.bmp	492	1	blank2r.bmp	786	1	CPLW	786	1	blank2r.bmp	866	1	versagen	866	1	!	1239	1	!	1359	0	0	0	0	0	0	0	0	0	0	0	0	0	0	0	0	0	0	0	0	0	0	0	0	0	0	0
021119	12:49:30	12:59:46	614893	5.0.10.0	4_exp_AWA_CON_EVA_AMP	111	Rpleas_acq	Oppo	Rpleas	Amasked	CS_A	2pleas	distractor2	CONbeforeEVA	acq_US_pleas_masked	acq45_masked	4	33	400	0	300	300	0	0	479	50	0	1	0	0	0	1	blank2r.bmp	0	1	+	0	2	B2r.bmp	492	1	blank2r.bmp	786	1	DHJF	786	1	blank2r.bmp	866	3	träumen	866	1	!	1239	1	!	-1	0	0	0	0	0	0	0	0	0	0	0	0	0	0	0	0	0	0	0	0	0	0	0	0	0	0	0
021119	12:49:30	12:59:49	617358	5.0.10.0	4_exp_AWA_CON_EVA_AMP	111	Rpleas_acq	Oppo	Rpleas	Amasked	CS_A	2pleas	distractor2	CONbeforeEVA	acq_US_pleas_masked	acq45_masked	4	34	400	0	300	300	0	0	685	50	0	1	0	0	0	1	blank2r.bmp	0	1	+	0	1	B1r.bmp	492	1	blank2r.bmp	786	1	DHJF	786	1	blank2r.bmp	866	1	vertrauen	866	1	!	1239	1	!	-1	0	0	0	0	0	0	0	0	0	0	0	0	0	0	0	0	0	0	0	0	0	0	0	0	0	0	0
021119	12:49:30	12:59:51	619517	5.0.10.0	4_exp_AWA_CON_EVA_AMP	111	Rpleas_acq	Oppo	Rpleas	Amasked	CS_A	2pleas	distractor2	CONbeforeEVA	acq_US_unple_masked	acq45_masked	4	35	400	1	300	300	0	0	346	46	0	1	0	0	0	1	blank2r.bmp	0	1	+	0	8	C4r.bmp	492	1	blank2r.bmp	786	1	CPLW	786	1	blank2r.bmp	866	3	töten	866	1	!	1239	1	!	1252	0	0	0	0	0	0	0	0	0	0	0	0	0	0	0	0	0	0	0	0	0	0	0	0	0	0	0
021119	12:49:30	12:59:53	621756	5.0.10.0	4_exp_AWA_CON_EVA_AMP	111	Rpleas_acq	Oppo	Rpleas	Amasked	CS_A	2pleas	distractor2	CONbeforeEVA	acq_US_unple_masked	acq45_masked	4	36	400	1	300	300	0	0	444	46	0	1	0	0	0	1	blank2r.bmp	0	1	+	0	4	B4r.bmp	492	1	blank2r.bmp	786	1	CPLW	786	1	blank2r.bmp	866	4	engstirnig	866	1	!	1239	1	!	1346	0	0	0	0	0	0	0	0	0	0	0	0	0	0	0	0	0	0	0	0	0	0	0	0	0	0	0
021119	12:49:30	13:00:21	650225	5.0.10.0	4_exp_AWA_CON_EVA_AMP	111	Rpleas_acq	Oppo	Rpleas	Amasked	CS_A	2pleas	distractor2	CONbeforeEVA	acq_US_unple_masked	acq45_masked	5	1	400	1	300	300	0	0	420	46	0	1	0	0	0	1	blank2r.bmp	0	1	+	0	6	C2r.bmp	492	1	blank2r.bmp	786	1	CPLW	786	1	blank2r.bmp	866	3	töten	866	1	!	1239	1	!	1319	0	0	0	0	0	0	0	0	0	0	0	0	0	0	0	0	0	0	0	0	0	0	0	0	0	0	0
021119	12:49:30	13:00:24	652464	5.0.10.0	4_exp_AWA_CON_EVA_AMP	111	Rpleas_acq	Oppo	Rpleas	Amasked	CS_A	2pleas	distractor2	CONbeforeEVA	acq_US_pleas_masked	acq45_masked	5	2	400	1	300	300	0	0	448	50	0	1	0	0	0	1	blank2r.bmp	0	1	+	0	1	B1r.bmp	492	1	blank2r.bmp	786	1	DHJF	786	1	blank2r.bmp	866	6	anregung	866	1	!	1239	1	!	1346	0	0	0	0	0	0	0	0	0	0	0	0	0	0	0	0	0	0	0	0	0	0	0	0	0	0	0
021119	12:49:30	13:00:26	654636	5.0.10.0	4_exp_AWA_CON_EVA_AMP	111	Rpleas_acq	Oppo	Rpleas	Amasked	CS_A	2pleas	distractor2	CONbeforeEVA	acq_US_unple_masked	acq45_masked	5	3	400	1	300	300	0	0	375	46	0	1	0	0	0	1	blank2r.bmp	0	1	+	0	7	C3r.bmp	492	1	blank2r.bmp	786	1	CPLW	786	1	blank2r.bmp	866	2	gierig	866	1	!	1239	1	!	1279	0	0	0	0	0	0	0	0	0	0	0	0	0	0	0	0	0	0	0	0	0	0	0	0	0	0	0
021119	12:49:30	13:00:28	656835	5.0.10.0	4_exp_AWA_CON_EVA_AMP	111	Rpleas_acq	Oppo	Rpleas	Amasked	CS_A	2pleas	distractor2	CONbeforeEVA	acq_US_unple_masked	acq45_masked	5	4	400	1	300	300	0	0	389	50	0	0	0	0	0	1	blank2r.bmp	0	1	+	0	5	C1r.bmp	492	1	blank2r.bmp	786	1	CPLW	786	1	blank2r.bmp	866	6	ausrottung	866	1	!	1239	1	!	1292	0	0	0	0	0	0	0	0	0	0	0	0	0	0	0	0	0	0	0	0	0	0	0	0	0	0	0
021119	12:49:30	13:00:30	659088	5.0.10.0	4_exp_AWA_CON_EVA_AMP	111	Rpleas_acq	Oppo	Rpleas	Amasked	CS_A	2pleas	distractor2	CONbeforeEVA	acq_US_unple_masked	acq45_masked	5	5	400	1	300	300	0	0	441	50	0	0	0	0	0	1	blank2r.bmp	0	1	+	0	2	B2r.bmp	492	1	blank2r.bmp	786	1	CPLW	786	1	blank2r.bmp	866	4	engstirnig	866	1	!	1239	1	!	1346	0	0	0	0	0	0	0	0	0	0	0	0	0	0	0	0	0	0	0	0	0	0	0	0	0	0	0
021119	12:49:30	13:00:32	661234	5.0.10.0	4_exp_AWA_CON_EVA_AMP	111	Rpleas_acq	Oppo	Rpleas	Amasked	CS_A	2pleas	distractor2	CONbeforeEVA	acq_US_pleas_masked	acq45_masked	5	6	400	1	300	300	0	0	353	50	0	1	0	0	0	1	blank2r.bmp	0	1	+	0	8	C4r.bmp	492	1	blank2r.bmp	786	1	DHJF	786	1	blank2r.bmp	866	5	sonnig	866	1	!	1239	1	!	1252	0	0	0	0	0	0	0	0	0	0	0	0	0	0	0	0	0	0	0	0	0	0	0	0	0	0	0
021119	12:49:30	13:00:35	663393	5.0.10.0	4_exp_AWA_CON_EVA_AMP	111	Rpleas_acq	Oppo	Rpleas	Amasked	CS_A	2pleas	distractor2	CONbeforeEVA	acq_US_unple_masked	acq45_masked	5	7	400	1	300	300	0	0	364	46	0	1	0	0	0	1	blank2r.bmp	0	1	+	0	3	B3r.bmp	492	1	blank2r.bmp	786	1	CPLW	786	1	blank2r.bmp	866	1	versagen	866	1	!	1239	1	!	1266	0	0	0	0	0	0	0	0	0	0	0	0	0	0	0	0	0	0	0	0	0	0	0	0	0	0	0
021119	12:49:30	13:00:37	665578	5.0.10.0	4_exp_AWA_CON_EVA_AMP	111	Rpleas_acq	Oppo	Rpleas	Amasked	CS_A	2pleas	distractor2	CONbeforeEVA	acq_US_pleas_masked	acq45_masked	5	8	400	1	300	300	0	0	398	50	0	1	0	0	0	1	blank2r.bmp	0	1	+	0	4	B4r.bmp	492	1	blank2r.bmp	786	1	DHJF	786	1	blank2r.bmp	866	3	träumen	866	1	!	1239	1	!	1292	0	0	0	0	0	0	0	0	0	0	0	0	0	0	0	0	0	0	0	0	0	0	0	0	0	0	0
021119	12:49:30	13:00:39	667671	5.0.10.0	4_exp_AWA_CON_EVA_AMP	111	Rpleas_acq	Oppo	Rpleas	Amasked	CS_A	2pleas	distractor2	CONbeforeEVA	acq_US_unple_masked	acq45_masked	5	9	400	0	300	300	0	0	325	46	0	1	0	0	0	1	blank2r.bmp	0	1	+	0	6	C2r.bmp	492	1	blank2r.bmp	786	1	CPLW	786	1	blank2r.bmp	866	5	sterben	866	1	!	-1	1	!	-1	0	0	0	0	0	0	0	0	0	0	0	0	0	0	0	0	0	0	0	0	0	0	0	0	0	0	0
021119	12:49:30	13:00:41	669870	5.0.10.0	4_exp_AWA_CON_EVA_AMP	111	Rpleas_acq	Oppo	Rpleas	Amasked	CS_A	2pleas	distractor2	CONbeforeEVA	acq_US_pleas_masked	acq45_masked	5	10	400	1	300	300	0	0	398	50	0	1	0	0	0	1	blank2r.bmp	0	1	+	0	4	B4r.bmp	492	1	blank2r.bmp	786	1	DHJF	786	1	blank2r.bmp	866	2	gütig	866	1	!	1239	1	!	1292	0	0	0	0	0	0	0	0	0	0	0	0	0	0	0	0	0	0	0	0	0	0	0	0	0	0	0
021119	12:49:30	13:00:43	672056	5.0.10.0	4_exp_AWA_CON_EVA_AMP	111	Rpleas_acq	Oppo	Rpleas	Amasked	CS_A	2pleas	distractor2	CONbeforeEVA	acq_US_pleas_masked	acq45_masked	5	11	400	1	300	300	0	0	392	46	0	0	0	0	0	1	blank2r.bmp	0	1	+	0	8	C4r.bmp	492	1	blank2r.bmp	786	1	DHJF	786	1	blank2r.bmp	866	4	engagiert	866	1	!	1239	1	!	1292	0	0	0	0	0	0	0	0	0	0	0	0	0	0	0	0	0	0	0	0	0	0	0	0	0	0	0
021119	12:49:30	13:00:46	674282	5.0.10.0	4_exp_AWA_CON_EVA_AMP	111	Rpleas_acq	Oppo	Rpleas	Amasked	CS_A	2pleas	distractor2	CONbeforeEVA	acq_US_pleas_masked	acq45_masked	5	12	400	1	300	300	0	0	427	46	0	0	0	0	0	1	blank2r.bmp	0	1	+	0	3	B3r.bmp	492	1	blank2r.bmp	786	1	DHJF	786	1	blank2r.bmp	866	1	vertrauen	866	1	!	1239	1	!	1332	0	0	0	0	0	0	0	0	0	0	0	0	0	0	0	0	0	0	0	0	0	0	0	0	0	0	0
021119	12:49:30	13:00:48	676374	5.0.10.0	4_exp_AWA_CON_EVA_AMP	111	Rpleas_acq	Oppo	Rpleas	Amasked	CS_A	2pleas	distractor2	CONbeforeEVA	acq_US_pleas_masked	acq45_masked	5	13	400	0	300	300	0	0	322	46	0	0	0	0	0	1	blank2r.bmp	0	1	+	0	5	C1r.bmp	492	1	blank2r.bmp	786	1	DHJF	786	1	blank2r.bmp	866	4	engagiert	866	1	!	-1	1	!	-1	0	0	0	0	0	0	0	0	0	0	0	0	0	0	0	0	0	0	0	0	0	0	0	0	0	0	0
021119	12:49:30	13:00:50	678640	5.0.10.0	4_exp_AWA_CON_EVA_AMP	111	Rpleas_acq	Oppo	Rpleas	Amasked	CS_A	2pleas	distractor2	CONbeforeEVA	acq_US_pleas_masked	acq45_masked	5	14	400	1	300	300	0	0	465	50	0	1	0	0	0	1	blank2r.bmp	0	1	+	0	7	C3r.bmp	492	1	blank2r.bmp	786	1	DHJF	786	1	blank2r.bmp	866	3	träumen	866	1	!	1239	1	!	1359	0	0	0	0	0	0	0	0	0	0	0	0	0	0	0	0	0	0	0	0	0	0	0	0	0	0	0
021119	12:49:30	13:00:52	680892	5.0.10.0	4_exp_AWA_CON_EVA_AMP	111	Rpleas_acq	Oppo	Rpleas	Amasked	CS_A	2pleas	distractor2	CONbeforeEVA	acq_US_unple_masked	acq45_masked	5	15	400	1	300	300	0	0	452	46	0	1	0	0	0	1	blank2r.bmp	0	1	+	0	1	B1r.bmp	492	1	blank2r.bmp	786	1	CPLW	786	1	blank2r.bmp	866	5	sterben	866	1	!	1239	1	!	1359	0	0	0	0	0	0	0	0	0	0	0	0	0	0	0	0	0	0	0	0	0	0	0	0	0	0	0
021119	12:49:30	13:00:54	683131	5.0.10.0	4_exp_AWA_CON_EVA_AMP	111	Rpleas_acq	Oppo	Rpleas	Amasked	CS_A	2pleas	distractor2	CONbeforeEVA	acq_US_pleas_masked	acq45_masked	5	16	400	1	300	300	0	0	433	50	0	1	0	0	0	1	blank2r.bmp	0	1	+	0	2	B2r.bmp	492	1	blank2r.bmp	786	1	DHJF	786	1	blank2r.bmp	866	6	anregung	866	1	!	1239	1	!	1332	0	0	0	0	0	0	0	0	0	0	0	0	0	0	0	0	0	0	0	0	0	0	0	0	0	0	0
021119	12:49:30	13:00:56	685184	5.0.10.0	4_exp_AWA_CON_EVA_AMP	111	Rpleas_acq	Oppo	Rpleas	Amasked	CS_A	2pleas	distractor2	CONbeforeEVA	acq_US_unple_masked	acq45_masked	5	17	400	0	300	300	0	0	283	46	0	1	0	0	0	1	blank2r.bmp	0	1	+	0	2	B2r.bmp	492	1	blank2r.bmp	786	1	CPLW	786	1	blank2r.bmp	866	2	gierig	866	1	!	-1	1	!	-1	0	0	0	0	0	0	0	0	0	0	0	0	0	0	0	0	0	0	0	0	0	0	0	0	0	0	0
021119	12:49:30	13:00:59	687423	5.0.10.0	4_exp_AWA_CON_EVA_AMP	111	Rpleas_acq	Oppo	Rpleas	Amasked	CS_A	2pleas	distractor2	CONbeforeEVA	acq_US_unple_masked	acq45_masked	5	18	400	1	300	300	0	0	414	50	0	0	0	0	0	1	blank2r.bmp	0	1	+	0	1	B1r.bmp	492	1	blank2r.bmp	786	1	CPLW	786	1	blank2r.bmp	866	6	ausrottung	866	1	!	1239	1	!	1319	0	0	0	0	0	0	0	0	0	0	0	0	0	0	0	0	0	0	0	0	0	0	0	0	0	0	0
021119	12:49:30	13:01:01	689502	5.0.10.0	4_exp_AWA_CON_EVA_AMP	111	Rpleas_acq	Oppo	Rpleas	Amasked	CS_A	2pleas	distractor2	CONbeforeEVA	acq_US_pleas_masked	acq45_masked	5	19	400	0	300	300	0	0	312	50	0	1	0	0	0	1	blank2r.bmp	0	1	+	0	4	B4r.bmp	492	1	blank2r.bmp	786	1	DHJF	786	1	blank2r.bmp	866	5	sonnig	866	1	!	-1	1	!	-1	0	0	0	0	0	0	0	0	0	0	0	0	0	0	0	0	0	0	0	0	0	0	0	0	0	0	0
021119	12:49:30	13:01:03	691674	5.0.10.0	4_exp_AWA_CON_EVA_AMP	111	Rpleas_acq	Oppo	Rpleas	Amasked	CS_A	2pleas	distractor2	CONbeforeEVA	acq_US_unple_masked	acq45_masked	5	20	400	1	300	300	0	0	371	46	0	1	0	0	0	1	blank2r.bmp	0	1	+	0	6	C2r.bmp	492	1	blank2r.bmp	786	1	CPLW	786	1	blank2r.bmp	866	3	töten	866	1	!	1239	1	!	1266	0	0	0	0	0	0	0	0	0	0	0	0	0	0	0	0	0	0	0	0	0	0	0	0	0	0	0
021119	12:49:30	13:01:05	693980	5.0.10.0	4_exp_AWA_CON_EVA_AMP	111	Rpleas_acq	Oppo	Rpleas	Amasked	CS_A	2pleas	distractor2	CONbeforeEVA	acq_US_unple_masked	acq45_masked	5	21	400	0	300	300	0	0	536	50	0	0	0	0	0	1	blank2r.bmp	0	1	+	0	5	C1r.bmp	492	1	blank2r.bmp	786	1	CPLW	786	1	blank2r.bmp	866	4	engstirnig	866	1	!	1239	1	!	-1	0	0	0	0	0	0	0	0	0	0	0	0	0	0	0	0	0	0	0	0	0	0	0	0	0	0	0
021119	12:49:30	13:01:07	696193	5.0.10.0	4_exp_AWA_CON_EVA_AMP	111	Rpleas_acq	Oppo	Rpleas	Amasked	CS_A	2pleas	distractor2	CONbeforeEVA	acq_US_pleas_masked	acq45_masked	5	22	400	1	300	300	0	0	406	50	0	1	0	0	0	1	blank2r.bmp	0	1	+	0	7	C3r.bmp	492	1	blank2r.bmp	786	1	DHJF	786	1	blank2r.bmp	866	1	vertrauen	866	1	!	1239	1	!	1306	0	0	0	0	0	0	0	0	0	0	0	0	0	0	0	0	0	0	0	0	0	0	0	0	0	0	0
021119	12:49:30	13:01:10	698352	5.0.10.0	4_exp_AWA_CON_EVA_AMP	111	Rpleas_acq	Oppo	Rpleas	Amasked	CS_A	2pleas	distractor2	CONbeforeEVA	acq_US_pleas_masked	acq45_masked	5	23	400	1	300	300	0	0	361	46	0	0	0	0	0	1	blank2r.bmp	0	1	+	0	8	C4r.bmp	492	1	blank2r.bmp	786	1	DHJF	786	1	blank2r.bmp	866	2	gütig	866	1	!	1239	1	!	1266	0	0	0	0	0	0	0	0	0	0	0	0	0	0	0	0	0	0	0	0	0	0	0	0	0	0	0
021119	12:49:30	13:01:12	700604	5.0.10.0	4_exp_AWA_CON_EVA_AMP	111	Rpleas_acq	Oppo	Rpleas	Amasked	CS_A	2pleas	distractor2	CONbeforeEVA	acq_US_unple_masked	acq45_masked	5	24	400	1	300	300	0	0	457	46	0	1	0	0	0	1	blank2r.bmp	0	1	+	0	3	B3r.bmp	492	1	blank2r.bmp	786	1	CPLW	786	1	blank2r.bmp	866	1	versagen	866	1	!	1239	1	!	1359	0	0	0	0	0	0	0	0	0	0	0	0	0	0	0	0	0	0	0	0	0	0	0	0	0	0	0
021119	12:49:30	13:01:14	702843	5.0.10.0	4_exp_AWA_CON_EVA_AMP	111	Rpleas_acq	Oppo	Rpleas	Amasked	CS_A	2pleas	distractor2	CONbeforeEVA	acq_US_pleas_masked	acq45_masked	5	25	400	1	300	300	0	0	451	50	0	1	0	0	0	1	blank2r.bmp	0	1	+	0	7	C3r.bmp	492	1	blank2r.bmp	786	1	DHJF	786	1	blank2r.bmp	866	6	anregung	866	1	!	1239	1	!	1346	0	0	0	0	0	0	0	0	0	0	0	0	0	0	0	0	0	0	0	0	0	0	0	0	0	0	0
021119	12:49:30	13:01:16	705056	5.0.10.0	4_exp_AWA_CON_EVA_AMP	111	Rpleas_acq	Oppo	Rpleas	Amasked	CS_A	2pleas	distractor2	CONbeforeEVA	acq_US_pleas_masked	acq45_masked	5	26	400	1	300	300	0	0	415	50	0	1	0	0	0	1	blank2r.bmp	0	1	+	0	1	B1r.bmp	492	1	blank2r.bmp	786	1	DHJF	786	1	blank2r.bmp	866	5	sonnig	866	1	!	1239	1	!	1319	0	0	0	0	0	0	0	0	0	0	0	0	0	0	0	0	0	0	0	0	0	0	0	0	0	0	0
021119	12:49:30	13:01:19	707295	5.0.10.0	4_exp_AWA_CON_EVA_AMP	111	Rpleas_acq	Oppo	Rpleas	Amasked	CS_A	2pleas	distractor2	CONbeforeEVA	acq_US_unple_masked	acq45_masked	5	27	400	1	300	300	0	0	437	46	0	1	0	0	0	1	blank2r.bmp	0	1	+	0	8	C4r.bmp	492	1	blank2r.bmp	786	1	CPLW	786	1	blank2r.bmp	866	1	versagen	866	1	!	1239	1	!	1332	0	0	0	0	0	0	0	0	0	0	0	0	0	0	0	0	0	0	0	0	0	0	0	0	0	0	0
021119	12:49:30	13:01:21	709507	5.0.10.0	4_exp_AWA_CON_EVA_AMP	111	Rpleas_acq	Oppo	Rpleas	Amasked	CS_A	2pleas	distractor2	CONbeforeEVA	acq_US_pleas_masked	acq45_masked	5	28	400	1	300	300	0	0	418	50	0	1	0	0	0	1	blank2r.bmp	0	1	+	0	3	B3r.bmp	492	1	blank2r.bmp	786	1	DHJF	786	1	blank2r.bmp	866	4	engagiert	866	1	!	1239	1	!	1319	0	0	0	0	0	0	0	0	0	0	0	0	0	0	0	0	0	0	0	0	0	0	0	0	0	0	0
021119	12:49:30	13:01:23	711693	5.0.10.0	4_exp_AWA_CON_EVA_AMP	111	Rpleas_acq	Oppo	Rpleas	Amasked	CS_A	2pleas	distractor2	CONbeforeEVA	acq_US_unple_masked	acq45_masked	5	29	400	1	300	300	0	0	386	46	0	1	0	0	0	1	blank2r.bmp	0	1	+	0	6	C2r.bmp	492	1	blank2r.bmp	786	1	CPLW	786	1	blank2r.bmp	866	4	engstirnig	866	1	!	1239	1	!	1292	0	0	0	0	0	0	0	0	0	0	0	0	0	0	0	0	0	0	0	0	0	0	0	0	0	0	0
021119	12:49:30	13:01:26	714572	5.0.10.0	4_exp_AWA_CON_EVA_AMP	111	Rpleas_acq	Oppo	Rpleas	Amasked	CS_A	2pleas	distractor2	CONbeforeEVA	acq_US_unple_masked	acq45_masked	5	30	400	0	300	300	0	0	1108	46	0	1	0	0	0	1	blank2r.bmp	0	1	+	0	5	C1r.bmp	492	1	blank2r.bmp	786	1	CPLW	786	1	blank2r.bmp	866	5	sterben	866	1	!	1239	1	!	-1	0	0	0	0	0	0	0	0	0	0	0	0	0	0	0	0	0	0	0	0	0	0	0	0	0	0	0
021119	12:49:30	13:01:28	717011	5.0.10.0	4_exp_AWA_CON_EVA_AMP	111	Rpleas_acq	Oppo	Rpleas	Amasked	CS_A	2pleas	distractor2	CONbeforeEVA	acq_US_unple_masked	acq45_masked	5	31	400	0	300	300	0	0	654	46	0	1	0	0	0	1	blank2r.bmp	0	1	+	0	4	B4r.bmp	492	1	blank2r.bmp	786	1	CPLW	786	1	blank2r.bmp	866	6	ausrottung	866	1	!	1239	1	!	-1	0	0	0	0	0	0	0	0	0	0	0	0	0	0	0	0	0	0	0	0	0	0	0	0	0	0	0
021119	12:49:30	13:01:31	719263	5.0.10.0	4_exp_AWA_CON_EVA_AMP	111	Rpleas_acq	Oppo	Rpleas	Amasked	CS_A	2pleas	distractor2	CONbeforeEVA	acq_US_pleas_masked	acq45_masked	5	32	400	1	300	300	0	0	446	50	0	1	0	0	0	1	blank2r.bmp	0	1	+	0	2	B2r.bmp	492	1	blank2r.bmp	786	1	DHJF	786	1	blank2r.bmp	866	3	träumen	866	1	!	1239	1	!	1346	0	0	0	0	0	0	0	0	0	0	0	0	0	0	0	0	0	0	0	0	0	0	0	0	0	0	0
021119	12:49:30	13:01:33	721595	5.0.10.0	4_exp_AWA_CON_EVA_AMP	111	Rpleas_acq	Oppo	Rpleas	Amasked	CS_A	2pleas	distractor2	CONbeforeEVA	acq_US_pleas_masked	acq45_masked	5	33	400	0	300	300	0	0	561	50	0	1	0	0	0	1	blank2r.bmp	0	1	+	0	7	C3r.bmp	492	1	blank2r.bmp	786	1	DHJF	786	1	blank2r.bmp	866	1	vertrauen	866	1	!	1239	1	!	-1	0	0	0	0	0	0	0	0	0	0	0	0	0	0	0	0	0	0	0	0	0	0	0	0	0	0	0
021119	12:49:30	13:01:35	723808	5.0.10.0	4_exp_AWA_CON_EVA_AMP	111	Rpleas_acq	Oppo	Rpleas	Amasked	CS_A	2pleas	distractor2	CONbeforeEVA	acq_US_unple_masked	acq45_masked	5	34	400	1	300	300	0	0	396	46	0	1	0	0	0	1	blank2r.bmp	0	1	+	0	3	B3r.bmp	492	1	blank2r.bmp	786	1	CPLW	786	1	blank2r.bmp	866	2	gierig	866	1	!	1239	1	!	1292	0	0	0	0	0	0	0	0	0	0	0	0	0	0	0	0	0	0	0	0	0	0	0	0	0	0	0
021119	12:49:30	13:01:37	726034	5.0.10.0	4_exp_AWA_CON_EVA_AMP	111	Rpleas_acq	Oppo	Rpleas	Amasked	CS_A	2pleas	distractor2	CONbeforeEVA	acq_US_pleas_masked	acq45_masked	5	35	400	1	300	300	0	0	415	50	0	1	0	0	0	1	blank2r.bmp	0	1	+	0	1	B1r.bmp	492	1	blank2r.bmp	786	1	DHJF	786	1	blank2r.bmp	866	2	gütig	866	1	!	1239	1	!	1319	0	0	0	0	0	0	0	0	0	0	0	0	0	0	0	0	0	0	0	0	0	0	0	0	0	0	0
021119	12:49:30	13:01:40	728326	5.0.10.0	4_exp_AWA_CON_EVA_AMP	111	Rpleas_acq	Oppo	Rpleas	Amasked	CS_A	2pleas	distractor2	CONbeforeEVA	acq_US_unple_masked	acq45_masked	5	36	400	0	300	300	0	0	522	50	0	0	0	0	0	1	blank2r.bmp	0	1	+	0	4	B4r.bmp	492	1	blank2r.bmp	786	1	CPLW	786	1	blank2r.bmp	866	3	töten	866	1	!	1239	1	!	-1	0	0	0	0	0	0	0	0	0	0	0	0	0	0	0	0	0	0	0	0	0	0	0	0	0	0	0
021119	12:49:30	13:04:04	872973	5.0.10.0	4_exp_AWA_CON_EVA_AMP	111	Rpleas_acq	Oppo	Lpleas	Amasked	CS_A	2pleas	distractor2	CONbeforeEVA	cond_US_pleas_123_masked_CS2	condtest_masked_1	8	1	400	0	300	300	0	0	680	46	0	1	0	0	0	1	blank2r.bmp	0	1	+	0	8	C4r.bmp	492	1	blank2r.bmp	786	1	DHJF	786	1	blank2r.bmp	866	2	gütig	866	1	!	1239	1	!	-1	0	0	0	0	0	0	0	0	0	0	0	0	0	0	0	0	0	0	0	0	0	0	0	0	0	0	0
021119	12:49:30	13:04:06	875239	5.0.10.0	4_exp_AWA_CON_EVA_AMP	111	Rpleas_acq	Oppo	Lpleas	Amasked	CS_A	2pleas	distractor2	CONbeforeEVA	cond_US_unple_123_masked_CS2	condtest_masked_1	8	2	400	0	300	300	0	0	479	50	0	1	0	0	0	1	blank2r.bmp	0	1	+	0	6	C2r.bmp	492	1	blank2r.bmp	786	1	DHJF	786	1	blank2r.bmp	866	3	töten	866	1	!	1239	1	!	-1	0	0	0	0	0	0	0	0	0	0	0	0	0	0	0	0	0	0	0	0	0	0	0	0	0	0	0
021119	12:49:30	13:04:09	877518	5.0.10.0	4_exp_AWA_CON_EVA_AMP	111	Rpleas_acq	Oppo	Lpleas	Amasked	CS_A	2pleas	distractor2	CONbeforeEVA	cond_new_unple_456_masked_CS2	condtest_masked_1	8	3	400	0	300	300	0	0	490	50	0	1	0	0	0	1	blank2r.bmp	0	1	+	0	2	B2r.bmp	492	1	blank2r.bmp	786	1	DHJF	786	1	blank2r.bmp	866	1	verbissen	866	1	!	1239	1	!	-1	0	0	0	0	0	0	0	0	0	0	0	0	0	0	0	0	0	0	0	0	0	0	0	0	0	0	0
021119	12:49:30	13:04:11	879784	5.0.10.0	4_exp_AWA_CON_EVA_AMP	111	Rpleas_acq	Oppo	Lpleas	Amasked	CS_A	2pleas	distractor2	CONbeforeEVA	cond_new_unple_456_masked_CS1	condtest_masked_1	8	4	400	1	300	300	0	0	462	50	0	1	0	0	0	1	blank2r.bmp	0	1	+	0	5	C1r.bmp	492	1	blank2r.bmp	786	1	CPLW	786	1	blank2r.bmp	866	2	krise	866	1	!	1239	1	!	1359	0	0	0	0	0	0	0	0	0	0	0	0	0	0	0	0	0	0	0	0	0	0	0	0	0	0	0
021119	12:49:30	13:04:13	882049	5.0.10.0	4_exp_AWA_CON_EVA_AMP	111	Rpleas_acq	Oppo	Lpleas	Amasked	CS_A	2pleas	distractor2	CONbeforeEVA	cond_US_pleas_123_masked_CS1	condtest_masked_1	8	5	400	0	300	300	0	0	495	46	0	1	0	0	0	1	blank2r.bmp	0	1	+	0	1	B1r.bmp	492	1	blank2r.bmp	786	1	CPLW	786	1	blank2r.bmp	866	3	träumen	866	1	!	1239	1	!	-1	0	0	0	0	0	0	0	0	0	0	0	0	0	0	0	0	0	0	0	0	0	0	0	0	0	0	0
021119	12:49:30	13:04:16	884342	5.0.10.0	4_exp_AWA_CON_EVA_AMP	111	Rpleas_acq	Oppo	Lpleas	Amasked	CS_A	2pleas	distractor2	CONbeforeEVA	cond_new_pleas_456_masked_CS2	condtest_masked_1	8	6	400	0	300	300	0	0	505	46	0	1	0	0	0	1	blank2r.bmp	0	1	+	0	2	B2r.bmp	492	1	blank2r.bmp	786	1	DHJF	786	1	blank2r.bmp	866	2	kuss	866	1	!	1239	1	!	-1	0	0	0	0	0	0	0	0	0	0	0	0	0	0	0	0	0	0	0	0	0	0	0	0	0	0	0
021119	12:49:30	13:04:18	886727	5.0.10.0	4_exp_AWA_CON_EVA_AMP	111	Rpleas_acq	Oppo	Lpleas	Amasked	CS_A	2pleas	distractor2	CONbeforeEVA	cond_US_unple_123_masked_CS1	condtest_masked_1	8	7	400	0	300	300	0	0	599	50	0	1	0	0	0	1	blank2r.bmp	0	1	+	0	4	B4r.bmp	492	1	blank2r.bmp	786	1	CPLW	786	1	blank2r.bmp	866	1	versagen	866	1	!	1239	1	!	-1	0	0	0	0	0	0	0	0	0	0	0	0	0	0	0	0	0	0	0	0	0	0	0	0	0	0	0
021119	12:49:30	13:04:20	889113	5.0.10.0	4_exp_AWA_CON_EVA_AMP	111	Rpleas_acq	Oppo	Lpleas	Amasked	CS_A	2pleas	distractor2	CONbeforeEVA	cond_new_pleas_456_masked_CS1	condtest_masked_1	8	8	400	0	300	300	0	0	604	46	0	1	0	0	0	1	blank2r.bmp	0	1	+	0	5	C1r.bmp	492	1	blank2r.bmp	786	1	CPLW	786	1	blank2r.bmp	866	1	vergnügt	866	1	!	1239	1	!	-1	0	0	0	0	0	0	0	0	0	0	0	0	0	0	0	0	0	0	0	0	0	0	0	0	0	0	0
021119	12:49:30	13:04:41	909265	5.0.10.0	4_exp_AWA_CON_EVA_AMP	111	Rpleas_acq	Oppo	Lpleas	Amasked	CS_A	2pleas	distractor2	CONbeforeEVA	cond_new_pleas_456_masked_CS1	condtest_masked_2	9	1	400	0	300	300	0	0	717	46	0	1	0	0	0	1	blank2r.bmp	0	1	+	0	3	B3r.bmp	492	1	blank2r.bmp	786	1	CPLW	786	1	blank2r.bmp	866	3	besonnen	866	1	!	1239	1	!	-1	0	0	0	0	0	0	0	0	0	0	0	0	0	0	0	0	0	0	0	0	0	0	0	0	0	0	0
021119	12:49:30	13:04:43	911530	5.0.10.0	4_exp_AWA_CON_EVA_AMP	111	Rpleas_acq	Oppo	Lpleas	Amasked	CS_A	2pleas	distractor2	CONbeforeEVA	cond_new_pleas_456_masked_CS2	condtest_masked_2	9	2	400	1	300	300	0	0	459	46	0	1	0	0	0	1	blank2r.bmp	0	1	+	0	6	C2r.bmp	492	1	blank2r.bmp	786	1	DHJF	786	1	blank2r.bmp	866	3	besonnen	866	1	!	1239	1	!	1359	0	0	0	0	0	0	0	0	0	0	0	0	0	0	0	0	0	0	0	0	0	0	0	0	0	0	0
021119	12:49:30	13:04:45	913796	5.0.10.0	4_exp_AWA_CON_EVA_AMP	111	Rpleas_acq	Oppo	Lpleas	Amasked	CS_A	2pleas	distractor2	CONbeforeEVA	cond_US_unple_123_masked_CS2	condtest_masked_2	9	3	400	0	300	300	0	0	496	50	0	1	0	0	0	1	blank2r.bmp	0	1	+	0	7	C3r.bmp	492	1	blank2r.bmp	786	1	DHJF	786	1	blank2r.bmp	866	2	gierig	866	1	!	1239	1	!	-1	0	0	0	0	0	0	0	0	0	0	0	0	0	0	0	0	0	0	0	0	0	0	0	0	0	0	0
021119	12:49:30	13:04:47	916062	5.0.10.0	4_exp_AWA_CON_EVA_AMP	111	Rpleas_acq	Oppo	Lpleas	Amasked	CS_A	2pleas	distractor2	CONbeforeEVA	cond_new_pleas_456_masked_CS1	condtest_masked_2	9	4	400	0	300	300	0	0	486	46	0	1	0	0	0	1	blank2r.bmp	0	1	+	0	8	C4r.bmp	492	1	blank2r.bmp	786	1	CPLW	786	1	blank2r.bmp	866	1	vergnügt	866	1	!	1239	1	!	-1	0	0	0	0	0	0	0	0	0	0	0	0	0	0	0	0	0	0	0	0	0	0	0	0	0	0	0
021119	12:49:30	13:04:50	918341	5.0.10.0	4_exp_AWA_CON_EVA_AMP	111	Rpleas_acq	Oppo	Lpleas	Amasked	CS_A	2pleas	distractor2	CONbeforeEVA	cond_new_pleas_456_masked_CS1	condtest_masked_2	9	5	400	0	300	300	0	0	489	46	0	1	0	0	0	1	blank2r.bmp	0	1	+	0	2	B2r.bmp	492	1	blank2r.bmp	786	1	CPLW	786	1	blank2r.bmp	866	2	kuss	866	1	!	1239	1	!	-1	0	0	0	0	0	0	0	0	0	0	0	0	0	0	0	0	0	0	0	0	0	0	0	0	0	0	0
021119	12:49:30	13:04:52	920740	5.0.10.0	4_exp_AWA_CON_EVA_AMP	111	Rpleas_acq	Oppo	Lpleas	Amasked	CS_A	2pleas	distractor2	CONbeforeEVA	cond_new_unple_456_masked_CS1	condtest_masked_2	9	6	400	0	300	300	0	0	600	50	0	1	0	0	0	1	blank2r.bmp	0	1	+	0	3	B3r.bmp	492	1	blank2r.bmp	786	1	CPLW	786	1	blank2r.bmp	866	3	bange	866	1	!	1239	1	!	-1	0	0	0	0	0	0	0	0	0	0	0	0	0	0	0	0	0	0	0	0	0	0	0	0	0	0	0
021119	12:49:30	13:04:54	923046	5.0.10.0	4_exp_AWA_CON_EVA_AMP	111	Rpleas_acq	Oppo	Lpleas	Amasked	CS_A	2pleas	distractor2	CONbeforeEVA	cond_US_pleas_123_masked_CS2	condtest_masked_2	9	7	400	0	300	300	0	0	519	46	0	1	0	0	0	1	blank2r.bmp	0	1	+	0	6	C2r.bmp	492	1	blank2r.bmp	786	1	DHJF	786	1	blank2r.bmp	866	1	vertrauen	866	1	!	1239	1	!	-1	0	0	0	0	0	0	0	0	0	0	0	0	0	0	0	0	0	0	0	0	0	0	0	0	0	0	0
021119	12:49:30	13:04:56	925231	5.0.10.0	4_exp_AWA_CON_EVA_AMP	111	Rpleas_acq	Oppo	Lpleas	Amasked	CS_A	2pleas	distractor2	CONbeforeEVA	cond_US_pleas_123_masked_CS1	condtest_masked_2	9	8	400	1	300	300	0	0	374	50	0	0	0	0	0	1	blank2r.bmp	0	1	+	0	1	B1r.bmp	492	1	blank2r.bmp	786	1	CPLW	786	1	blank2r.bmp	866	3	träumen	866	1	!	1239	1	!	1279	0	0	0	0	0	0	0	0	0	0	0	0	0	0	0	0	0	0	0	0	0	0	0	0	0	0	0
021119	12:49:30	13:04:59	927617	5.0.10.0	4_exp_AWA_CON_EVA_AMP	111	Rpleas_acq	Oppo	Lpleas	Amasked	CS_A	2pleas	distractor2	CONbeforeEVA	cond_US_unple_123_masked_CS1	condtest_masked_2	9	9	400	0	300	300	0	0	620	46	0	0	0	0	0	1	blank2r.bmp	0	1	+	0	5	C1r.bmp	492	1	blank2r.bmp	786	1	CPLW	786	1	blank2r.bmp	866	1	versagen	866	1	!	1239	1	!	-1	0	0	0	0	0	0	0	0	0	0	0	0	0	0	0	0	0	0	0	0	0	0	0	0	0	0	0
021119	12:49:30	13:05:01	930016	5.0.10.0	4_exp_AWA_CON_EVA_AMP	111	Rpleas_acq	Oppo	Lpleas	Amasked	CS_A	2pleas	distractor2	CONbeforeEVA	cond_new_unple_456_masked_CS2	condtest_masked_2	9	10	400	0	300	300	0	0	617	50	0	1	0	0	0	1	blank2r.bmp	0	1	+	0	7	C3r.bmp	492	1	blank2r.bmp	786	1	DHJF	786	1	blank2r.bmp	866	3	bange	866	1	!	1239	1	!	-1	0	0	0	0	0	0	0	0	0	0	0	0	0	0	0	0	0	0	0	0	0	0	0	0	0	0	0
021119	12:49:30	13:05:04	932309	5.0.10.0	4_exp_AWA_CON_EVA_AMP	111	Rpleas_acq	Oppo	Lpleas	Amasked	CS_A	2pleas	distractor2	CONbeforeEVA	cond_US_pleas_123_masked_CS1	condtest_masked_2	9	11	400	0	300	300	0	0	507	50	0	0	0	0	0	1	blank2r.bmp	0	1	+	0	8	C4r.bmp	492	1	blank2r.bmp	786	1	CPLW	786	1	blank2r.bmp	866	2	gütig	866	1	!	1239	1	!	-1	0	0	0	0	0	0	0	0	0	0	0	0	0	0	0	0	0	0	0	0	0	0	0	0	0	0	0
021119	12:49:30	13:05:06	934614	5.0.10.0	4_exp_AWA_CON_EVA_AMP	111	Rpleas_acq	Oppo	Lpleas	Amasked	CS_A	2pleas	distractor2	CONbeforeEVA	cond_new_pleas_456_masked_CS1	condtest_masked_2	9	12	400	0	300	300	0	0	529	46	0	1	0	0	0	1	blank2r.bmp	0	1	+	0	4	B4r.bmp	492	1	blank2r.bmp	786	1	CPLW	786	1	blank2r.bmp	866	3	besonnen	866	1	!	1239	1	!	-1	0	0	0	0	0	0	0	0	0	0	0	0	0	0	0	0	0	0	0	0	0	0	0	0	0	0	0
021119	12:49:30	13:05:08	936907	5.0.10.0	4_exp_AWA_CON_EVA_AMP	111	Rpleas_acq	Oppo	Lpleas	Amasked	CS_A	2pleas	distractor2	CONbeforeEVA	cond_new_unple_456_masked_CS1	condtest_masked_2	9	13	400	0	300	300	0	0	513	50	0	1	0	0	0	1	blank2r.bmp	0	1	+	0	2	B2r.bmp	492	1	blank2r.bmp	786	1	CPLW	786	1	blank2r.bmp	866	1	verbissen	866	1	!	1239	1	!	-1	0	0	0	0	0	0	0	0	0	0	0	0	0	0	0	0	0	0	0	0	0	0	0	0	0	0	0
021119	12:49:30	13:05:11	939279	5.0.10.0	4_exp_AWA_CON_EVA_AMP	111	Rpleas_acq	Oppo	Lpleas	Amasked	CS_A	2pleas	distractor2	CONbeforeEVA	cond_US_pleas_123_masked_CS2	condtest_masked_2	9	14	400	0	300	300	0	0	594	50	0	0	0	0	0	1	blank2r.bmp	0	1	+	0	3	B3r.bmp	492	1	blank2r.bmp	786	1	DHJF	786	1	blank2r.bmp	866	1	vertrauen	866	1	!	1239	1	!	-1	0	0	0	0	0	0	0	0	0	0	0	0	0	0	0	0	0	0	0	0	0	0	0	0	0	0	0
021119	12:49:30	13:05:13	941625	5.0.10.0	4_exp_AWA_CON_EVA_AMP	111	Rpleas_acq	Oppo	Lpleas	Amasked	CS_A	2pleas	distractor2	CONbeforeEVA	cond_US_unple_123_masked_CS1	condtest_masked_2	9	15	400	0	300	300	0	0	560	50	0	1	0	0	0	1	blank2r.bmp	0	1	+	0	5	C1r.bmp	492	1	blank2r.bmp	786	1	CPLW	786	1	blank2r.bmp	866	3	töten	866	1	!	1239	1	!	-1	0	0	0	0	0	0	0	0	0	0	0	0	0	0	0	0	0	0	0	0	0	0	0	0	0	0	0
021119	12:49:30	13:05:15	944117	5.0.10.0	4_exp_AWA_CON_EVA_AMP	111	Rpleas_acq	Oppo	Lpleas	Amasked	CS_A	2pleas	distractor2	CONbeforeEVA	cond_new_pleas_456_masked_CS2	condtest_masked_2	9	16	400	0	300	300	0	0	712	46	0	1	0	0	0	1	blank2r.bmp	0	1	+	0	4	B4r.bmp	492	1	blank2r.bmp	786	1	DHJF	786	1	blank2r.bmp	866	1	vergnügt	866	1	!	1239	1	!	-1	0	0	0	0	0	0	0	0	0	0	0	0	0	0	0	0	0	0	0	0	0	0	0	0	0	0	0
021119	12:49:30	13:05:18	946863	5.0.10.0	4_exp_AWA_CON_EVA_AMP	111	Rpleas_acq	Oppo	Lpleas	Amasked	CS_A	2pleas	distractor2	CONbeforeEVA	cond_US_unple_123_masked_CS2	condtest_masked_2	9	17	400	0	300	300	0	0	967	50	0	1	0	0	0	1	blank2r.bmp	0	1	+	0	8	C4r.bmp	492	1	blank2r.bmp	786	1	DHJF	786	1	blank2r.bmp	866	2	gierig	866	1	!	1239	1	!	-1	0	0	0	0	0	0	0	0	0	0	0	0	0	0	0	0	0	0	0	0	0	0	0	0	0	0	0
021119	12:49:30	13:05:20	949168	5.0.10.0	4_exp_AWA_CON_EVA_AMP	111	Rpleas_acq	Oppo	Lpleas	Amasked	CS_A	2pleas	distractor2	CONbeforeEVA	cond_US_pleas_123_masked_CS1	condtest_masked_2	9	18	400	0	300	300	0	0	519	46	0	1	0	0	0	1	blank2r.bmp	0	1	+	0	7	C3r.bmp	492	1	blank2r.bmp	786	1	CPLW	786	1	blank2r.bmp	866	1	vertrauen	866	1	!	1239	1	!	-1	0	0	0	0	0	0	0	0	0	0	0	0	0	0	0	0	0	0	0	0	0	0	0	0	0	0	0
021119	12:49:30	13:05:23	951621	5.0.10.0	4_exp_AWA_CON_EVA_AMP	111	Rpleas_acq	Oppo	Lpleas	Amasked	CS_A	2pleas	distractor2	CONbeforeEVA	cond_US_pleas_123_masked_CS2	condtest_masked_2	9	19	400	0	300	300	0	0	670	50	0	0	0	0	0	1	blank2r.bmp	0	1	+	0	6	C2r.bmp	492	1	blank2r.bmp	786	1	DHJF	786	1	blank2r.bmp	866	2	gütig	866	1	!	1239	1	!	-1	0	0	0	0	0	0	0	0	0	0	0	0	0	0	0	0	0	0	0	0	0	0	0	0	0	0	0
021119	12:49:30	13:05:25	953900	5.0.10.0	4_exp_AWA_CON_EVA_AMP	111	Rpleas_acq	Oppo	Lpleas	Amasked	CS_A	2pleas	distractor2	CONbeforeEVA	cond_new_unple_456_masked_CS2	condtest_masked_2	9	20	400	0	300	300	0	0	504	50	0	1	0	0	0	1	blank2r.bmp	0	1	+	0	1	B1r.bmp	492	1	blank2r.bmp	786	1	DHJF	786	1	blank2r.bmp	866	2	krise	866	1	!	1239	1	!	-1	0	0	0	0	0	0	0	0	0	0	0	0	0	0	0	0	0	0	0	0	0	0	0	0	0	0	0
021119	12:49:30	13:05:27	956205	5.0.10.0	4_exp_AWA_CON_EVA_AMP	111	Rpleas_acq	Oppo	Lpleas	Amasked	CS_A	2pleas	distractor2	CONbeforeEVA	cond_new_unple_456_masked_CS2	condtest_masked_2	9	21	400	0	300	300	0	0	528	50	0	1	0	0	0	1	blank2r.bmp	0	1	+	0	7	C3r.bmp	492	1	blank2r.bmp	786	1	DHJF	786	1	blank2r.bmp	866	1	verbissen	866	1	!	1239	1	!	-1	0	0	0	0	0	0	0	0	0	0	0	0	0	0	0	0	0	0	0	0	0	0	0	0	0	0	0
021119	12:49:30	13:05:30	958444	5.0.10.0	4_exp_AWA_CON_EVA_AMP	111	Rpleas_acq	Oppo	Lpleas	Amasked	CS_A	2pleas	distractor2	CONbeforeEVA	cond_new_pleas_456_masked_CS1	condtest_masked_2	9	22	400	1	300	300	0	0	436	46	0	1	0	0	0	1	blank2r.bmp	0	1	+	0	5	C1r.bmp	492	1	blank2r.bmp	786	1	CPLW	786	1	blank2r.bmp	866	2	kuss	866	1	!	1239	1	!	1332	0	0	0	0	0	0	0	0	0	0	0	0	0	0	0	0	0	0	0	0	0	0	0	0	0	0	0
021119	12:49:30	13:05:32	960710	5.0.10.0	4_exp_AWA_CON_EVA_AMP	111	Rpleas_acq	Oppo	Lpleas	Amasked	CS_A	2pleas	distractor2	CONbeforeEVA	cond_US_unple_123_masked_CS1	condtest_masked_2	9	23	400	0	300	300	0	0	481	50	0	1	0	0	0	1	blank2r.bmp	0	1	+	0	6	C2r.bmp	492	1	blank2r.bmp	786	1	CPLW	786	1	blank2r.bmp	866	1	versagen	866	1	!	1239	1	!	-1	0	0	0	0	0	0	0	0	0	0	0	0	0	0	0	0	0	0	0	0	0	0	0	0	0	0	0
021119	12:49:30	13:05:34	962976	5.0.10.0	4_exp_AWA_CON_EVA_AMP	111	Rpleas_acq	Oppo	Lpleas	Amasked	CS_A	2pleas	distractor2	CONbeforeEVA	cond_US_unple_123_masked_CS1	condtest_masked_2	9	24	400	1	300	300	0	0	441	50	0	1	0	0	0	1	blank2r.bmp	0	1	+	0	1	B1r.bmp	492	1	blank2r.bmp	786	1	CPLW	786	1	blank2r.bmp	866	2	gierig	866	1	!	1239	1	!	1346	0	0	0	0	0	0	0	0	0	0	0	0	0	0	0	0	0	0	0	0	0	0	0	0	0	0	0
021119	12:49:30	13:05:36	965148	5.0.10.0	4_exp_AWA_CON_EVA_AMP	111	Rpleas_acq	Oppo	Lpleas	Amasked	CS_A	2pleas	distractor2	CONbeforeEVA	cond_new_pleas_456_masked_CS2	condtest_masked_2	9	25	400	1	300	300	0	0	382	46	0	1	0	0	0	1	blank2r.bmp	0	1	+	0	2	B2r.bmp	492	1	blank2r.bmp	786	1	DHJF	786	1	blank2r.bmp	866	3	besonnen	866	1	!	1239	1	!	1279	0	0	0	0	0	0	0	0	0	0	0	0	0	0	0	0	0	0	0	0	0	0	0	0	0	0	0
021119	12:49:30	13:05:39	967334	5.0.10.0	4_exp_AWA_CON_EVA_AMP	111	Rpleas_acq	Oppo	Lpleas	Amasked	CS_A	2pleas	distractor2	CONbeforeEVA	cond_new_pleas_456_masked_CS2	condtest_masked_2	9	26	400	1	300	300	0	0	393	46	0	1	0	0	0	1	blank2r.bmp	0	1	+	0	3	B3r.bmp	492	1	blank2r.bmp	786	1	DHJF	786	1	blank2r.bmp	866	1	vergnügt	866	1	!	1239	1	!	1292	0	0	0	0	0	0	0	0	0	0	0	0	0	0	0	0	0	0	0	0	0	0	0	0	0	0	0
021119	12:49:30	13:05:41	969533	5.0.10.0	4_exp_AWA_CON_EVA_AMP	111	Rpleas_acq	Oppo	Lpleas	Amasked	CS_A	2pleas	distractor2	CONbeforeEVA	cond_new_unple_456_masked_CS1	condtest_masked_2	9	27	400	1	300	300	0	0	399	50	0	1	0	0	0	1	blank2r.bmp	0	1	+	0	8	C4r.bmp	492	1	blank2r.bmp	786	1	CPLW	786	1	blank2r.bmp	866	2	krise	866	1	!	1239	1	!	1306	0	0	0	0	0	0	0	0	0	0	0	0	0	0	0	0	0	0	0	0	0	0	0	0	0	0	0
021119	12:49:30	13:05:43	971759	5.0.10.0	4_exp_AWA_CON_EVA_AMP	111	Rpleas_acq	Oppo	Lpleas	Amasked	CS_A	2pleas	distractor2	CONbeforeEVA	cond_new_pleas_456_masked_CS2	condtest_masked_2	9	28	400	1	300	300	0	0	430	46	0	1	0	0	0	1	blank2r.bmp	0	1	+	0	4	B4r.bmp	492	1	blank2r.bmp	786	1	DHJF	786	1	blank2r.bmp	866	2	kuss	866	1	!	1239	1	!	1332	0	0	0	0	0	0	0	0	0	0	0	0	0	0	0	0	0	0	0	0	0	0	0	0	0	0	0
021119	12:49:30	13:05:45	973958	5.0.10.0	4_exp_AWA_CON_EVA_AMP	111	Rpleas_acq	Oppo	Lpleas	Amasked	CS_A	2pleas	distractor2	CONbeforeEVA	cond_new_unple_456_masked_CS1	condtest_masked_2	9	29	400	1	300	300	0	0	411	50	0	1	0	0	0	1	blank2r.bmp	0	1	+	0	2	B2r.bmp	492	1	blank2r.bmp	786	1	CPLW	786	1	blank2r.bmp	866	3	bange	866	1	!	1239	1	!	1306	0	0	0	0	0	0	0	0	0	0	0	0	0	0	0	0	0	0	0	0	0	0	0	0	0	0	0
021119	12:49:30	13:05:47	975997	5.0.10.0	4_exp_AWA_CON_EVA_AMP	111	Rpleas_acq	Oppo	Lpleas	Amasked	CS_A	2pleas	distractor2	CONbeforeEVA	cond_US_pleas_123_masked_CS1	condtest_masked_2	9	30	400	0	300	300	0	0	276	46	0	1	0	0	0	1	blank2r.bmp	0	1	+	0	1	B1r.bmp	492	1	blank2r.bmp	786	1	CPLW	786	1	blank2r.bmp	866	3	träumen	866	1	!	-1	1	!	-1	0	0	0	0	0	0	0	0	0	0	0	0	0	0	0	0	0	0	0	0	0	0	0	0	0	0	0
021119	12:49:30	13:05:49	978103	5.0.10.0	4_exp_AWA_CON_EVA_AMP	111	Rpleas_acq	Oppo	Lpleas	Amasked	CS_A	2pleas	distractor2	CONbeforeEVA	cond_new_unple_456_masked_CS2	condtest_masked_2	9	31	400	0	300	300	0	0	312	50	0	1	0	0	0	1	blank2r.bmp	0	1	+	0	8	C4r.bmp	492	1	blank2r.bmp	786	1	DHJF	786	1	blank2r.bmp	866	1	verbissen	866	1	!	-1	1	!	-1	0	0	0	0	0	0	0	0	0	0	0	0	0	0	0	0	0	0	0	0	0	0	0	0	0	0	0
021119	12:49:30	13:05:52	980462	5.0.10.0	4_exp_AWA_CON_EVA_AMP	111	Rpleas_acq	Oppo	Lpleas	Amasked	CS_A	2pleas	distractor2	CONbeforeEVA	cond_new_unple_456_masked_CS1	condtest_masked_2	9	32	400	0	300	300	0	0	562	50	0	1	0	0	0	1	blank2r.bmp	0	1	+	0	3	B3r.bmp	492	1	blank2r.bmp	786	1	CPLW	786	1	blank2r.bmp	866	3	bange	866	1	!	1239	1	!	-1	0	0	0	0	0	0	0	0	0	0	0	0	0	0	0	0	0	0	0	0	0	0	0	0	0	0	0
021119	12:49:30	13:05:54	982541	5.0.10.0	4_exp_AWA_CON_EVA_AMP	111	Rpleas_acq	Oppo	Lpleas	Amasked	CS_A	2pleas	distractor2	CONbeforeEVA	cond_US_unple_123_masked_CS2	condtest_masked_2	9	33	400	0	300	300	0	0	292	46	0	0	0	0	0	1	blank2r.bmp	0	1	+	0	5	C1r.bmp	492	1	blank2r.bmp	786	1	DHJF	786	1	blank2r.bmp	866	3	töten	866	1	!	-1	1	!	-1	0	0	0	0	0	0	0	0	0	0	0	0	0	0	0	0	0	0	0	0	0	0	0	0	0	0	0
021119	12:49:30	13:05:56	984807	5.0.10.0	4_exp_AWA_CON_EVA_AMP	111	Rpleas_acq	Oppo	Lpleas	Amasked	CS_A	2pleas	distractor2	CONbeforeEVA	cond_US_pleas_123_masked_CS2	condtest_masked_2	9	34	400	0	300	300	0	0	479	46	0	1	0	0	0	1	blank2r.bmp	0	1	+	0	6	C2r.bmp	492	1	blank2r.bmp	786	1	DHJF	786	1	blank2r.bmp	866	2	gütig	866	1	!	1239	1	!	-1	0	0	0	0	0	0	0	0	0	0	0	0	0	0	0	0	0	0	0	0	0	0	0	0	0	0	0
021119	12:49:30	13:05:58	987166	5.0.10.0	4_exp_AWA_CON_EVA_AMP	111	Rpleas_acq	Oppo	Lpleas	Amasked	CS_A	2pleas	distractor2	CONbeforeEVA	cond_new_unple_456_masked_CS2	condtest_masked_2	9	35	400	0	300	300	0	0	582	50	0	1	0	0	0	1	blank2r.bmp	0	1	+	0	7	C3r.bmp	492	1	blank2r.bmp	786	1	DHJF	786	1	blank2r.bmp	866	2	krise	866	1	!	1239	1	!	-1	0	0	0	0	0	0	0	0	0	0	0	0	0	0	0	0	0	0	0	0	0	0	0	0	0	0	0
021119	12:49:30	13:06:01	989445	5.0.10.0	4_exp_AWA_CON_EVA_AMP	111	Rpleas_acq	Oppo	Lpleas	Amasked	CS_A	2pleas	distractor2	CONbeforeEVA	cond_US_pleas_123_masked_CS2	condtest_masked_2	9	36	400	0	300	300	0	0	481	46	0	1	0	0	0	1	blank2r.bmp	0	1	+	0	4	B4r.bmp	492	1	blank2r.bmp	786	1	DHJF	786	1	blank2r.bmp	866	3	träumen	866	1	!	1239	1	!	-1	0	0	0	0	0	0	0	0	0	0	0	0	0	0	0	0	0	0	0	0	0	0	0	0	0	0	0
021119	12:49:30	13:06:03	991644	5.0.10.0	4_exp_AWA_CON_EVA_AMP	111	Rpleas_acq	Oppo	Lpleas	Amasked	CS_A	2pleas	distractor2	CONbeforeEVA	cond_US_unple_123_masked_CS2	condtest_masked_2	9	37	400	1	300	300	0	0	375	50	0	1	0	0	0	1	blank2r.bmp	0	1	+	0	5	C1r.bmp	492	1	blank2r.bmp	786	1	DHJF	786	1	blank2r.bmp	866	2	gierig	866	1	!	1239	1	!	1279	0	0	0	0	0	0	0	0	0	0	0	0	0	0	0	0	0	0	0	0	0	0	0	0	0	0	0
021119	12:49:30	13:06:05	993897	5.0.10.0	4_exp_AWA_CON_EVA_AMP	111	Rpleas_acq	Oppo	Lpleas	Amasked	CS_A	2pleas	distractor2	CONbeforeEVA	cond_US_unple_123_masked_CS2	condtest_masked_2	9	38	400	1	300	300	0	0	453	46	0	0	0	0	0	1	blank2r.bmp	0	1	+	0	3	B3r.bmp	492	1	blank2r.bmp	786	1	DHJF	786	1	blank2r.bmp	866	1	versagen	866	1	!	1239	1	!	1359	0	0	0	0	0	0	0	0	0	0	0	0	0	0	0	0	0	0	0	0	0	0	0	0	0	0	0
021119	12:49:30	13:06:08	996282	5.0.10.0	4_exp_AWA_CON_EVA_AMP	111	Rpleas_acq	Oppo	Lpleas	Amasked	CS_A	2pleas	distractor2	CONbeforeEVA	cond_US_pleas_123_masked_CS1	condtest_masked_2	9	39	400	0	300	300	0	0	614	46	0	1	0	0	0	1	blank2r.bmp	0	1	+	0	7	C3r.bmp	492	1	blank2r.bmp	786	1	CPLW	786	1	blank2r.bmp	866	1	vertrauen	866	1	!	1239	1	!	-1	0	0	0	0	0	0	0	0	0	0	0	0	0	0	0	0	0	0	0	0	0	0	0	0	0	0	0
021119	12:49:30	13:06:10	998615	5.0.10.0	4_exp_AWA_CON_EVA_AMP	111	Rpleas_acq	Oppo	Lpleas	Amasked	CS_A	2pleas	distractor2	CONbeforeEVA	cond_US_unple_123_masked_CS1	condtest_masked_2	9	40	400	0	300	300	0	0	545	50	0	1	0	0	0	1	blank2r.bmp	0	1	+	0	8	C4r.bmp	492	1	blank2r.bmp	786	1	CPLW	786	1	blank2r.bmp	866	3	töten	866	1	!	1239	1	!	-1	0	0	0	0	0	0	0	0	0	0	0	0	0	0	0	0	0	0	0	0	0	0	0	0	0	0	0
021119	12:49:30	13:06:36	1024950	5.0.10.0	4_exp_AWA_CON_EVA_AMP	111	Rpleas_acq	Oppo	Lpleas	Amasked	CS_A	2pleas	distractor2	CONbeforeEVA	cond_new_unple_123_masked_CS2	condtest_masked_3	10	1	400	0	300	300	0	0	522	50	0	1	0	0	0	1	blank2r.bmp	0	1	+	0	6	C2r.bmp	492	1	blank2r.bmp	786	1	DHJF	786	1	blank2r.bmp	866	3	geizig	866	1	!	1239	1	!	-1	0	0	0	0	0	0	0	0	0	0	0	0	0	0	0	0	0	0	0	0	0	0	0	0	0	0	0
021119	12:49:30	13:06:38	1027229	5.0.10.0	4_exp_AWA_CON_EVA_AMP	111	Rpleas_acq	Oppo	Lpleas	Amasked	CS_A	2pleas	distractor2	CONbeforeEVA	cond_US_unple_456_masked_CS2	condtest_masked_3	10	2	400	1	300	300	0	0	456	50	0	1	0	0	0	1	blank2r.bmp	0	1	+	0	4	B4r.bmp	492	1	blank2r.bmp	786	1	DHJF	786	1	blank2r.bmp	866	2	sterben	866	1	!	1239	1	!	1359	0	0	0	0	0	0	0	0	0	0	0	0	0	0	0	0	0	0	0	0	0	0	0	0	0	0	0
021119	12:49:30	13:06:41	1029482	5.0.10.0	4_exp_AWA_CON_EVA_AMP	111	Rpleas_acq	Oppo	Lpleas	Amasked	CS_A	2pleas	distractor2	CONbeforeEVA	cond_US_pleas_456_masked_CS1	condtest_masked_3	10	3	400	1	300	300	0	0	463	46	0	1	0	0	0	1	blank2r.bmp	0	1	+	0	1	B1r.bmp	492	1	blank2r.bmp	786	1	CPLW	786	1	blank2r.bmp	866	3	anregung	866	1	!	1239	1	!	1359	0	0	0	0	0	0	0	0	0	0	0	0	0	0	0	0	0	0	0	0	0	0	0	0	0	0	0
021119	12:49:30	13:06:44	1032494	5.0.10.0	4_exp_AWA_CON_EVA_AMP	111	Rpleas_acq	Oppo	Lpleas	Amasked	CS_A	2pleas	distractor2	CONbeforeEVA	cond_US_pleas_456_masked_CS2	condtest_masked_3	10	4	400	0	300	300	0	0	1243	46	0	1	0	0	0	1	blank2r.bmp	0	1	+	0	2	B2r.bmp	492	1	blank2r.bmp	786	1	DHJF	786	1	blank2r.bmp	866	1	engagiert	866	1	!	1239	1	!	-1	0	0	0	0	0	0	0	0	0	0	0	0	0	0	0	0	0	0	0	0	0	0	0	0	0	0	0
021119	12:49:30	13:06:46	1034680	5.0.10.0	4_exp_AWA_CON_EVA_AMP	111	Rpleas_acq	Oppo	Lpleas	Amasked	CS_A	2pleas	distractor2	CONbeforeEVA	cond_US_pleas_456_masked_CS1	condtest_masked_3	10	5	400	1	300	300	0	0	384	46	0	1	0	0	0	1	blank2r.bmp	0	1	+	0	2	B2r.bmp	492	1	blank2r.bmp	786	1	CPLW	786	1	blank2r.bmp	866	2	sonnig	866	1	!	1239	1	!	1279	0	0	0	0	0	0	0	0	0	0	0	0	0	0	0	0	0	0	0	0	0	0	0	0	0	0	0
021119	12:49:30	13:06:48	1036839	5.0.10.0	4_exp_AWA_CON_EVA_AMP	111	Rpleas_acq	Oppo	Lpleas	Amasked	CS_A	2pleas	distractor2	CONbeforeEVA	cond_new_unple_123_masked_CS2	condtest_masked_3	10	6	400	1	300	300	0	0	370	50	0	1	0	0	0	1	blank2r.bmp	0	1	+	0	7	C3r.bmp	492	1	blank2r.bmp	786	1	DHJF	786	1	blank2r.bmp	866	2	gemein	866	1	!	1239	1	!	1266	0	0	0	0	0	0	0	0	0	0	0	0	0	0	0	0	0	0	0	0	0	0	0	0	0	0	0
021119	12:49:30	13:06:50	1038838	5.0.10.0	4_exp_AWA_CON_EVA_AMP	111	Rpleas_acq	Oppo	Lpleas	Amasked	CS_A	2pleas	distractor2	CONbeforeEVA	cond_new_unple_123_masked_CS1	condtest_masked_3	10	7	400	0	300	300	0	0	236	46	0	0	0	0	0	1	blank2r.bmp	0	1	+	0	3	B3r.bmp	492	1	blank2r.bmp	786	1	CPLW	786	1	blank2r.bmp	866	1	krank	866	1	!	-1	1	!	-1	0	0	0	0	0	0	0	0	0	0	0	0	0	0	0	0	0	0	0	0	0	0	0	0	0	0	0
021119	12:49:30	13:06:52	1041024	5.0.10.0	4_exp_AWA_CON_EVA_AMP	111	Rpleas_acq	Oppo	Lpleas	Amasked	CS_A	2pleas	distractor2	CONbeforeEVA	cond_US_unple_456_masked_CS2	condtest_masked_3	10	8	400	1	300	300	0	0	377	46	0	0	0	0	0	1	blank2r.bmp	0	1	+	0	5	C1r.bmp	492	1	blank2r.bmp	786	1	DHJF	786	1	blank2r.bmp	866	3	ausrottung	866	1	!	1239	1	!	1279	0	0	0	0	0	0	0	0	0	0	0	0	0	0	0	0	0	0	0	0	0	0	0	0	0	0	0
021119	12:49:30	13:06:54	1043250	5.0.10.0	4_exp_AWA_CON_EVA_AMP	111	Rpleas_acq	Oppo	Lpleas	Amasked	CS_A	2pleas	distractor2	CONbeforeEVA	cond_new_pleas_123_masked_CS2	condtest_masked_3	10	9	400	1	300	300	0	0	434	46	0	1	0	0	0	1	blank2r.bmp	0	1	+	0	1	B1r.bmp	492	1	blank2r.bmp	786	1	DHJF	786	1	blank2r.bmp	866	1	kreativ	866	1	!	1239	1	!	1332	0	0	0	0	0	0	0	0	0	0	0	0	0	0	0	0	0	0	0	0	0	0	0	0	0	0	0
021119	12:49:30	13:06:57	1045542	5.0.10.0	4_exp_AWA_CON_EVA_AMP	111	Rpleas_acq	Oppo	Lpleas	Amasked	CS_A	2pleas	distractor2	CONbeforeEVA	cond_US_unple_456_masked_CS2	condtest_masked_3	10	10	400	0	300	300	0	0	518	50	0	1	0	0	0	1	blank2r.bmp	0	1	+	0	8	C4r.bmp	492	1	blank2r.bmp	786	1	DHJF	786	1	blank2r.bmp	866	1	engstirnig	866	1	!	1239	1	!	-1	0	0	0	0	0	0	0	0	0	0	0	0	0	0	0	0	0	0	0	0	0	0	0	0	0	0	0
021119	12:49:30	13:06:59	1047821	5.0.10.0	4_exp_AWA_CON_EVA_AMP	111	Rpleas_acq	Oppo	Lpleas	Amasked	CS_A	2pleas	distractor2	CONbeforeEVA	cond_new_unple_123_masked_CS2	condtest_masked_3	10	11	400	0	300	300	0	0	479	50	0	1	0	0	0	1	blank2r.bmp	0	1	+	0	6	C2r.bmp	492	1	blank2r.bmp	786	1	DHJF	786	1	blank2r.bmp	866	2	gemein	866	1	!	1239	1	!	-1	0	0	0	0	0	0	0	0	0	0	0	0	0	0	0	0	0	0	0	0	0	0	0	0	0	0	0
021119	12:49:30	13:07:01	1050113	5.0.10.0	4_exp_AWA_CON_EVA_AMP	111	Rpleas_acq	Oppo	Lpleas	Amasked	CS_A	2pleas	distractor2	CONbeforeEVA	cond_US_unple_456_masked_CS1	condtest_masked_3	10	12	400	0	300	300	0	0	510	50	0	1	0	0	0	1	blank2r.bmp	0	1	+	0	4	B4r.bmp	492	1	blank2r.bmp	786	1	CPLW	786	1	blank2r.bmp	866	2	sterben	866	1	!	1239	1	!	-1	0	0	0	0	0	0	0	0	0	0	0	0	0	0	0	0	0	0	0	0	0	0	0	0	0	0	0
021119	12:49:30	13:07:04	1052579	5.0.10.0	4_exp_AWA_CON_EVA_AMP	111	Rpleas_acq	Oppo	Lpleas	Amasked	CS_A	2pleas	distractor2	CONbeforeEVA	cond_new_pleas_123_masked_CS1	condtest_masked_3	10	13	400	0	300	300	0	0	666	46	0	1	0	0	0	1	blank2r.bmp	0	1	+	0	3	B3r.bmp	492	1	blank2r.bmp	786	1	CPLW	786	1	blank2r.bmp	866	3	gesittet	866	1	!	1239	1	!	-1	0	0	0	0	0	0	0	0	0	0	0	0	0	0	0	0	0	0	0	0	0	0	0	0	0	0	0
021119	12:49:30	13:07:06	1054858	5.0.10.0	4_exp_AWA_CON_EVA_AMP	111	Rpleas_acq	Oppo	Lpleas	Amasked	CS_A	2pleas	distractor2	CONbeforeEVA	cond_new_unple_123_masked_CS1	condtest_masked_3	10	14	400	0	300	300	0	0	499	46	0	0	0	0	0	1	blank2r.bmp	0	1	+	0	2	B2r.bmp	492	1	blank2r.bmp	786	1	CPLW	786	1	blank2r.bmp	866	3	geizig	866	1	!	1239	1	!	-1	0	0	0	0	0	0	0	0	0	0	0	0	0	0	0	0	0	0	0	0	0	0	0	0	0	0	0
021119	12:49:30	13:07:09	1057310	5.0.10.0	4_exp_AWA_CON_EVA_AMP	111	Rpleas_acq	Oppo	Lpleas	Amasked	CS_A	2pleas	distractor2	CONbeforeEVA	cond_new_unple_123_masked_CS2	condtest_masked_3	10	15	400	0	300	300	0	0	667	50	0	1	0	0	0	1	blank2r.bmp	0	1	+	0	8	C4r.bmp	492	1	blank2r.bmp	786	1	DHJF	786	1	blank2r.bmp	866	1	krank	866	1	!	1239	1	!	-1	0	0	0	0	0	0	0	0	0	0	0	0	0	0	0	0	0	0	0	0	0	0	0	0	0	0	0
021119	12:49:30	13:07:11	1059656	5.0.10.0	4_exp_AWA_CON_EVA_AMP	111	Rpleas_acq	Oppo	Lpleas	Amasked	CS_A	2pleas	distractor2	CONbeforeEVA	cond_new_pleas_123_masked_CS1	condtest_masked_3	10	16	400	0	300	300	0	0	563	46	0	1	0	0	0	1	blank2r.bmp	0	1	+	0	7	C3r.bmp	492	1	blank2r.bmp	786	1	CPLW	786	1	blank2r.bmp	866	2	genießen	866	1	!	1239	1	!	-1	0	0	0	0	0	0	0	0	0	0	0	0	0	0	0	0	0	0	0	0	0	0	0	0	0	0	0
021119	12:49:30	13:07:13	1061855	5.0.10.0	4_exp_AWA_CON_EVA_AMP	111	Rpleas_acq	Oppo	Lpleas	Amasked	CS_A	2pleas	distractor2	CONbeforeEVA	cond_new_unple_123_masked_CS2	condtest_masked_3	10	17	400	1	300	300	0	0	394	50	0	1	0	0	0	1	blank2r.bmp	0	1	+	0	4	B4r.bmp	492	1	blank2r.bmp	786	1	DHJF	786	1	blank2r.bmp	866	2	gemein	866	1	!	1239	1	!	1292	0	0	0	0	0	0	0	0	0	0	0	0	0	0	0	0	0	0	0	0	0	0	0	0	0	0	0
021119	12:49:30	13:07:15	1064108	5.0.10.0	4_exp_AWA_CON_EVA_AMP	111	Rpleas_acq	Oppo	Lpleas	Amasked	CS_A	2pleas	distractor2	CONbeforeEVA	cond_new_unple_123_masked_CS1	condtest_masked_3	10	18	400	1	300	300	0	0	451	50	0	1	0	0	0	1	blank2r.bmp	0	1	+	0	5	C1r.bmp	492	1	blank2r.bmp	786	1	CPLW	786	1	blank2r.bmp	866	3	geizig	866	1	!	1239	1	!	1346	0	0	0	0	0	0	0	0	0	0	0	0	0	0	0	0	0	0	0	0	0	0	0	0	0	0	0
021119	12:49:30	13:07:18	1066360	5.0.10.0	4_exp_AWA_CON_EVA_AMP	111	Rpleas_acq	Oppo	Lpleas	Amasked	CS_A	2pleas	distractor2	CONbeforeEVA	cond_US_pleas_456_masked_CS1	condtest_masked_3	10	19	400	0	300	300	0	0	481	46	0	1	0	0	0	1	blank2r.bmp	0	1	+	0	6	C2r.bmp	492	1	blank2r.bmp	786	1	CPLW	786	1	blank2r.bmp	866	1	engagiert	866	1	!	1239	1	!	-1	0	0	0	0	0	0	0	0	0	0	0	0	0	0	0	0	0	0	0	0	0	0	0	0	0	0	0
021119	12:49:30	13:07:20	1068626	5.0.10.0	4_exp_AWA_CON_EVA_AMP	111	Rpleas_acq	Oppo	Lpleas	Amasked	CS_A	2pleas	distractor2	CONbeforeEVA	cond_new_pleas_123_masked_CS1	condtest_masked_3	10	20	400	0	300	300	0	0	483	46	0	1	0	0	0	1	blank2r.bmp	0	1	+	0	1	B1r.bmp	492	1	blank2r.bmp	786	1	CPLW	786	1	blank2r.bmp	866	2	genießen	866	1	!	1239	1	!	-1	0	0	0	0	0	0	0	0	0	0	0	0	0	0	0	0	0	0	0	0	0	0	0	0	0	0	0
021119	12:49:30	13:07:22	1070892	5.0.10.0	4_exp_AWA_CON_EVA_AMP	111	Rpleas_acq	Oppo	Lpleas	Amasked	CS_A	2pleas	distractor2	CONbeforeEVA	cond_US_unple_456_masked_CS2	condtest_masked_3	10	21	400	0	300	300	0	0	485	50	0	1	0	0	0	1	blank2r.bmp	0	1	+	0	6	C2r.bmp	492	1	blank2r.bmp	786	1	DHJF	786	1	blank2r.bmp	866	3	ausrottung	866	1	!	1239	1	!	-1	0	0	0	0	0	0	0	0	0	0	0	0	0	0	0	0	0	0	0	0	0	0	0	0	0	0	0
021119	12:49:30	13:07:24	1073171	5.0.10.0	4_exp_AWA_CON_EVA_AMP	111	Rpleas_acq	Oppo	Lpleas	Amasked	CS_A	2pleas	distractor2	CONbeforeEVA	cond_US_pleas_456_masked_CS2	condtest_masked_3	10	22	400	1	300	300	0	0	462	46	0	1	0	0	0	1	blank2r.bmp	0	1	+	0	2	B2r.bmp	492	1	blank2r.bmp	786	1	DHJF	786	1	blank2r.bmp	866	3	anregung	866	1	!	1239	1	!	1359	0	0	0	0	0	0	0	0	0	0	0	0	0	0	0	0	0	0	0	0	0	0	0	0	0	0	0
021119	12:49:30	13:07:27	1075503	5.0.10.0	4_exp_AWA_CON_EVA_AMP	111	Rpleas_acq	Oppo	Lpleas	Amasked	CS_A	2pleas	distractor2	CONbeforeEVA	cond_US_pleas_456_masked_CS2	condtest_masked_3	10	23	400	0	300	300	0	0	571	46	0	1	0	0	0	1	blank2r.bmp	0	1	+	0	4	B4r.bmp	492	1	blank2r.bmp	786	1	DHJF	786	1	blank2r.bmp	866	2	sonnig	866	1	!	1239	1	!	-1	0	0	0	0	0	0	0	0	0	0	0	0	0	0	0	0	0	0	0	0	0	0	0	0	0	0	0
021119	12:49:30	13:07:29	1077742	5.0.10.0	4_exp_AWA_CON_EVA_AMP	111	Rpleas_acq	Oppo	Lpleas	Amasked	CS_A	2pleas	distractor2	CONbeforeEVA	cond_US_unple_456_masked_CS1	condtest_masked_3	10	24	400	1	300	300	0	0	437	50	0	1	0	0	0	1	blank2r.bmp	0	1	+	0	3	B3r.bmp	492	1	blank2r.bmp	786	1	CPLW	786	1	blank2r.bmp	866	1	engstirnig	866	1	!	1239	1	!	1332	0	0	0	0	0	0	0	0	0	0	0	0	0	0	0	0	0	0	0	0	0	0	0	0	0	0	0
021119	12:49:30	13:07:31	1080034	5.0.10.0	4_exp_AWA_CON_EVA_AMP	111	Rpleas_acq	Oppo	Lpleas	Amasked	CS_A	2pleas	distractor2	CONbeforeEVA	cond_new_unple_123_masked_CS1	condtest_masked_3	10	25	400	0	300	300	0	0	530	46	0	0	0	0	0	1	blank2r.bmp	0	1	+	0	8	C4r.bmp	492	1	blank2r.bmp	786	1	CPLW	786	1	blank2r.bmp	866	1	krank	866	1	!	1239	1	!	-1	0	0	0	0	0	0	0	0	0	0	0	0	0	0	0	0	0	0	0	0	0	0	0	0	0	0	0
021119	12:49:30	13:07:34	1082287	5.0.10.0	4_exp_AWA_CON_EVA_AMP	111	Rpleas_acq	Oppo	Lpleas	Amasked	CS_A	2pleas	distractor2	CONbeforeEVA	cond_new_pleas_123_masked_CS1	condtest_masked_3	10	26	400	1	300	300	0	0	449	50	0	0	0	0	0	1	blank2r.bmp	0	1	+	0	5	C1r.bmp	492	1	blank2r.bmp	786	1	CPLW	786	1	blank2r.bmp	866	3	gesittet	866	1	!	1239	1	!	1346	0	0	0	0	0	0	0	0	0	0	0	0	0	0	0	0	0	0	0	0	0	0	0	0	0	0	0
021119	12:49:30	13:07:36	1084606	5.0.10.0	4_exp_AWA_CON_EVA_AMP	111	Rpleas_acq	Oppo	Lpleas	Amasked	CS_A	2pleas	distractor2	CONbeforeEVA	cond_US_unple_456_masked_CS1	condtest_masked_3	10	27	400	0	300	300	0	0	556	50	0	1	0	0	0	1	blank2r.bmp	0	1	+	0	1	B1r.bmp	492	1	blank2r.bmp	786	1	CPLW	786	1	blank2r.bmp	866	2	sterben	866	1	!	1239	1	!	-1	0	0	0	0	0	0	0	0	0	0	0	0	0	0	0	0	0	0	0	0	0	0	0	0	0	0	0
021119	12:49:30	13:07:38	1087032	5.0.10.0	4_exp_AWA_CON_EVA_AMP	111	Rpleas_acq	Oppo	Lpleas	Amasked	CS_A	2pleas	distractor2	CONbeforeEVA	cond_US_pleas_456_masked_CS2	condtest_masked_3	10	28	400	0	300	300	0	0	640	46	0	1	0	0	0	1	blank2r.bmp	0	1	+	0	7	C3r.bmp	492	1	blank2r.bmp	786	1	DHJF	786	1	blank2r.bmp	866	2	sonnig	866	1	!	1239	1	!	-1	0	0	0	0	0	0	0	0	0	0	0	0	0	0	0	0	0	0	0	0	0	0	0	0	0	0	0
021119	12:49:30	13:07:41	1089511	5.0.10.0	4_exp_AWA_CON_EVA_AMP	111	Rpleas_acq	Oppo	Lpleas	Amasked	CS_A	2pleas	distractor2	CONbeforeEVA	cond_US_unple_456_masked_CS1	condtest_masked_3	10	29	400	0	300	300	0	0	692	50	0	1	0	0	0	1	blank2r.bmp	0	1	+	0	7	C3r.bmp	492	1	blank2r.bmp	786	1	CPLW	786	1	blank2r.bmp	866	3	ausrottung	866	1	!	1239	1	!	-1	0	0	0	0	0	0	0	0	0	0	0	0	0	0	0	0	0	0	0	0	0	0	0	0	0	0	0
021119	12:49:30	13:07:43	1091776	5.0.10.0	4_exp_AWA_CON_EVA_AMP	111	Rpleas_acq	Oppo	Lpleas	Amasked	CS_A	2pleas	distractor2	CONbeforeEVA	cond_US_pleas_456_masked_CS1	condtest_masked_3	10	30	400	0	300	300	0	0	479	46	0	1	0	0	0	1	blank2r.bmp	0	1	+	0	2	B2r.bmp	492	1	blank2r.bmp	786	1	CPLW	786	1	blank2r.bmp	866	3	anregung	866	1	!	1239	1	!	-1	0	0	0	0	0	0	0	0	0	0	0	0	0	0	0	0	0	0	0	0	0	0	0	0	0	0	0
