date	time	script.currenttime	script.elapsedtime	build	script.currentexpt	subject	expressions.LRpleas_acq	expressions.SameOppo	expressions.condition_Lpleas	expressions.ABmasked	expressions.conditionCS_A	expressions.condition_1pleas	expressions.condition_distractor_AMP	expressions.AWACON_AMPEVA_first	trialcode	blockcode	blocknum	trialnum	windowcenter	inwindow	pretrialpause	posttrialpause	trialduration	trialtimeout	latency	response	expressions.correctedscore	correct	values.vis_performance	values.vis_rating_sum	values.vis_rating_mean	stimulusnumber1	stimulusitem1	stimulusonset1	stimulusnumber2	stimulusitem2	stimulusonset2	stimulusnumber3	stimulusitem3	stimulusonset3	stimulusnumber4	stimulusitem4	stimulusonset4	stimulusnumber5	stimulusitem5	stimulusonset5	stimulusnumber6	stimulusitem6	stimulusonset6	stimulusnumber7	stimulusitem7	stimulusonset7	stimulusnumber8	stimulusitem8	stimulusonset8	stimulusnumber9	stimulusitem9	stimulusonset9	stimulusnumber10	stimulusitem10	stimulusonset10	stimulusnumber11	stimulusitem11	stimulusonset11	stimulusnumber12	stimulusitem12	stimulusonset12	stimulusnumber13	stimulusitem13	stimulusonset13	stimulusnumber14	stimulusitem14	stimulusonset14	stimulusnumber15	stimulusitem15	stimulusonset15	stimulusnumber16	stimulusitem16	stimulusonset16	stimulusnumber17	stimulusitem17	stimulusonset17	stimulusnumber18	stimulusitem18	stimulusonset18
031119	14:04:45	14:06:52	125613	5.0.10.0	4_exp_AMP_EVA_AWA_CON	160	Rpleas_acq	Oppo	Rpleas	Amasked	CS_A	2pleas	distractor2	EVAbeforeCON	acq_US_unple_masked	acq1_masked	1	1	0	0	300	300	0	0	957	46	0	1	0	0	0	1	blank2r.bmp	0	1	+	0	5	C1r.bmp	492	1	blank2r.bmp	786	1	CPLW	786	1	blank2r.bmp	866	5	engstirnig	866	0	0	0	0	0	0	0	0	0	0	0	0	0	0	0	0	0	0	0	0	0	0	0	0	0	0	0	0	0	0	0	0	0
031119	14:04:45	14:06:54	127839	5.0.10.0	4_exp_AMP_EVA_AWA_CON	160	Rpleas_acq	Oppo	Rpleas	Amasked	CS_A	2pleas	distractor2	EVAbeforeCON	acq_new_unple_masked	acq1_masked	1	2	0	0	300	300	0	0	739	46	0	1	0	0	0	1	blank2r.bmp	0	1	+	0	1	B1r.bmp	492	1	blank2r.bmp	786	8	C4r.bmp	786	1	blank2r.bmp	866	2	geizig	866	0	0	0	0	0	0	0	0	0	0	0	0	0	0	0	0	0	0	0	0	0	0	0	0	0	0	0	0	0	0	0	0	0
031119	14:04:45	14:06:56	129785	5.0.10.0	4_exp_AMP_EVA_AWA_CON	160	Rpleas_acq	Oppo	Rpleas	Amasked	CS_A	2pleas	distractor2	EVAbeforeCON	acq_US_unple_masked	acq1_masked	1	3	0	0	300	300	0	0	459	46	0	1	0	0	0	1	blank2r.bmp	0	1	+	0	6	C2r.bmp	492	1	blank2r.bmp	786	1	CPLW	786	1	blank2r.bmp	866	1	gemein	866	0	0	0	0	0	0	0	0	0	0	0	0	0	0	0	0	0	0	0	0	0	0	0	0	0	0	0	0	0	0	0	0	0
031119	14:04:45	14:06:58	131824	5.0.10.0	4_exp_AMP_EVA_AWA_CON	160	Rpleas_acq	Oppo	Rpleas	Amasked	CS_A	2pleas	distractor2	EVAbeforeCON	acq_US_pleas_masked	acq1_masked	1	4	0	0	300	300	0	0	557	50	0	1	0	0	0	1	blank2r.bmp	0	1	+	0	2	B2r.bmp	492	1	blank2r.bmp	786	1	DHJF	786	1	blank2r.bmp	866	1	genießen	866	0	0	0	0	0	0	0	0	0	0	0	0	0	0	0	0	0	0	0	0	0	0	0	0	0	0	0	0	0	0	0	0	0
031119	14:04:45	14:07:00	133876	5.0.10.0	4_exp_AMP_EVA_AWA_CON	160	Rpleas_acq	Oppo	Rpleas	Amasked	CS_A	2pleas	distractor2	EVAbeforeCON	acq_new_unple_masked	acq1_masked	1	5	0	0	300	300	0	0	569	46	0	1	0	0	0	1	blank2r.bmp	0	1	+	0	8	C4r.bmp	492	1	blank2r.bmp	786	2	B2r.bmp	786	1	blank2r.bmp	866	4	krank	866	0	0	0	0	0	0	0	0	0	0	0	0	0	0	0	0	0	0	0	0	0	0	0	0	0	0	0	0	0	0	0	0	0
031119	14:04:45	14:07:02	135982	5.0.10.0	4_exp_AMP_EVA_AWA_CON	160	Rpleas_acq	Oppo	Rpleas	Amasked	CS_A	2pleas	distractor2	EVAbeforeCON	acq_US_pleas_masked	acq1_masked	1	6	0	0	300	300	0	0	627	50	0	1	0	0	0	1	blank2r.bmp	0	1	+	0	4	B4r.bmp	492	1	blank2r.bmp	786	1	DHJF	786	1	blank2r.bmp	866	6	träumen	866	0	0	0	0	0	0	0	0	0	0	0	0	0	0	0	0	0	0	0	0	0	0	0	0	0	0	0	0	0	0	0	0	0
031119	14:04:45	14:07:04	138115	5.0.10.0	4_exp_AMP_EVA_AWA_CON	160	Rpleas_acq	Oppo	Rpleas	Amasked	CS_A	2pleas	distractor2	EVAbeforeCON	acq_US_unple_masked	acq1_masked	1	7	0	0	300	300	0	0	645	46	0	1	0	0	0	1	blank2r.bmp	0	1	+	0	3	B3r.bmp	492	1	blank2r.bmp	786	1	CPLW	786	1	blank2r.bmp	866	3	gierig	866	0	0	0	0	0	0	0	0	0	0	0	0	0	0	0	0	0	0	0	0	0	0	0	0	0	0	0	0	0	0	0	0	0
031119	14:04:45	14:07:07	140220	5.0.10.0	4_exp_AMP_EVA_AWA_CON	160	Rpleas_acq	Oppo	Rpleas	Amasked	CS_A	2pleas	distractor2	EVAbeforeCON	acq_new_pleas_masked	acq1_masked	1	8	0	0	300	300	0	0	619	50	0	1	0	0	0	1	blank2r.bmp	0	1	+	0	7	C3r.bmp	492	1	blank2r.bmp	786	3	B3r.bmp	786	1	blank2r.bmp	866	1	anregung	866	0	0	0	0	0	0	0	0	0	0	0	0	0	0	0	0	0	0	0	0	0	0	0	0	0	0	0	0	0	0	0	0	0
031119	14:04:45	14:07:09	142406	5.0.10.0	4_exp_AMP_EVA_AWA_CON	160	Rpleas_acq	Oppo	Rpleas	Amasked	CS_A	2pleas	distractor2	EVAbeforeCON	acq_new_pleas_masked	acq1_masked	1	9	0	0	300	300	0	0	703	50	0	1	0	0	0	1	blank2r.bmp	0	1	+	0	6	C2r.bmp	492	1	blank2r.bmp	786	7	C3r.bmp	786	1	blank2r.bmp	866	3	sonnig	866	0	0	0	0	0	0	0	0	0	0	0	0	0	0	0	0	0	0	0	0	0	0	0	0	0	0	0	0	0	0	0	0	0
031119	14:04:45	14:07:11	144485	5.0.10.0	4_exp_AMP_EVA_AWA_CON	160	Rpleas_acq	Oppo	Rpleas	Amasked	CS_A	2pleas	distractor2	EVAbeforeCON	acq_new_pleas_masked	acq1_masked	1	10	0	0	300	300	0	0	597	50	0	1	0	0	0	1	blank2r.bmp	0	1	+	0	5	C1r.bmp	492	1	blank2r.bmp	786	6	C2r.bmp	786	1	blank2r.bmp	866	5	vertrauen	866	0	0	0	0	0	0	0	0	0	0	0	0	0	0	0	0	0	0	0	0	0	0	0	0	0	0	0	0	0	0	0	0	0
031119	14:04:45	14:07:13	146524	5.0.10.0	4_exp_AMP_EVA_AWA_CON	160	Rpleas_acq	Oppo	Rpleas	Amasked	CS_A	2pleas	distractor2	EVAbeforeCON	acq_US_pleas_masked	acq1_masked	1	11	0	0	300	300	0	0	561	50	0	1	0	0	0	1	blank2r.bmp	0	1	+	0	8	C4r.bmp	492	1	blank2r.bmp	786	1	DHJF	786	1	blank2r.bmp	866	3	gütig	866	0	0	0	0	0	0	0	0	0	0	0	0	0	0	0	0	0	0	0	0	0	0	0	0	0	0	0	0	0	0	0	0	0
031119	14:04:45	14:07:15	148763	5.0.10.0	4_exp_AMP_EVA_AWA_CON	160	Rpleas_acq	Oppo	Rpleas	Amasked	CS_A	2pleas	distractor2	EVAbeforeCON	acq_new_unple_masked	acq1_masked	1	12	0	0	300	300	0	0	745	46	0	1	0	0	0	1	blank2r.bmp	0	1	+	0	1	B1r.bmp	492	1	blank2r.bmp	786	4	B4r.bmp	786	1	blank2r.bmp	866	5	versagen	866	0	0	0	0	0	0	0	0	0	0	0	0	0	0	0	0	0	0	0	0	0	0	0	0	0	0	0	0	0	0	0	0	0
031119	14:04:45	14:07:17	150976	5.0.10.0	4_exp_AMP_EVA_AWA_CON	160	Rpleas_acq	Oppo	Rpleas	Amasked	CS_A	2pleas	distractor2	EVAbeforeCON	acq_US_pleas_masked	acq1_masked	1	13	0	0	300	300	0	0	734	50	0	1	0	0	0	1	blank2r.bmp	0	1	+	0	4	B4r.bmp	492	1	blank2r.bmp	786	1	DHJF	786	1	blank2r.bmp	866	4	vergnügt	866	0	0	0	0	0	0	0	0	0	0	0	0	0	0	0	0	0	0	0	0	0	0	0	0	0	0	0	0	0	0	0	0	0
031119	14:04:45	14:07:19	152988	5.0.10.0	4_exp_AMP_EVA_AWA_CON	160	Rpleas_acq	Oppo	Rpleas	Amasked	CS_A	2pleas	distractor2	EVAbeforeCON	acq_new_pleas_masked	acq1_masked	1	14	0	0	300	300	0	0	538	50	0	1	0	0	0	1	blank2r.bmp	0	1	+	0	7	C3r.bmp	492	1	blank2r.bmp	786	1	B1r.bmp	786	1	blank2r.bmp	866	6	kuss	866	0	0	0	0	0	0	0	0	0	0	0	0	0	0	0	0	0	0	0	0	0	0	0	0	0	0	0	0	0	0	0	0	0
031119	14:04:45	14:07:21	155001	5.0.10.0	4_exp_AMP_EVA_AWA_CON	160	Rpleas_acq	Oppo	Rpleas	Amasked	CS_A	2pleas	distractor2	EVAbeforeCON	acq_new_pleas_masked	acq1_masked	1	15	0	0	300	300	0	0	532	50	0	1	0	0	0	1	blank2r.bmp	0	1	+	0	2	B2r.bmp	492	1	blank2r.bmp	786	5	C1r.bmp	786	1	blank2r.bmp	866	4	kreativ	866	0	0	0	0	0	0	0	0	0	0	0	0	0	0	0	0	0	0	0	0	0	0	0	0	0	0	0	0	0	0	0	0	0
031119	14:04:45	14:07:23	157107	5.0.10.0	4_exp_AMP_EVA_AWA_CON	160	Rpleas_acq	Oppo	Rpleas	Amasked	CS_A	2pleas	distractor2	EVAbeforeCON	acq_US_unple_masked	acq1_masked	1	16	0	0	300	300	0	0	625	46	0	1	0	0	0	1	blank2r.bmp	0	1	+	0	3	B3r.bmp	492	1	blank2r.bmp	786	1	CPLW	786	1	blank2r.bmp	866	4	verbissen	866	0	0	0	0	0	0	0	0	0	0	0	0	0	0	0	0	0	0	0	0	0	0	0	0	0	0	0	0	0	0	0	0	0
031119	14:04:45	14:07:25	159146	5.0.10.0	4_exp_AMP_EVA_AWA_CON	160	Rpleas_acq	Oppo	Rpleas	Amasked	CS_A	2pleas	distractor2	EVAbeforeCON	acq_new_unple_masked	acq1_masked	1	17	0	0	300	300	0	0	571	46	0	1	0	0	0	1	blank2r.bmp	0	1	+	0	4	B4r.bmp	492	1	blank2r.bmp	786	5	C1r.bmp	786	1	blank2r.bmp	866	6	krise	866	0	0	0	0	0	0	0	0	0	0	0	0	0	0	0	0	0	0	0	0	0	0	0	0	0	0	0	0	0	0	0	0	0
031119	14:04:45	14:07:28	161265	5.0.10.0	4_exp_AMP_EVA_AWA_CON	160	Rpleas_acq	Oppo	Rpleas	Amasked	CS_A	2pleas	distractor2	EVAbeforeCON	acq_new_unple_masked	acq1_masked	1	18	0	0	300	300	0	0	633	46	0	1	0	0	0	1	blank2r.bmp	0	1	+	0	6	C2r.bmp	492	1	blank2r.bmp	786	2	B2r.bmp	786	1	blank2r.bmp	866	1	ausrottung	866	0	0	0	0	0	0	0	0	0	0	0	0	0	0	0	0	0	0	0	0	0	0	0	0	0	0	0	0	0	0	0	0	0
031119	14:04:45	14:07:30	163584	5.0.10.0	4_exp_AMP_EVA_AWA_CON	160	Rpleas_acq	Oppo	Rpleas	Amasked	CS_A	2pleas	distractor2	EVAbeforeCON	acq_US_unple_masked	acq1_masked	1	19	0	0	300	300	0	0	831	46	0	1	0	0	0	1	blank2r.bmp	0	1	+	0	3	B3r.bmp	492	1	blank2r.bmp	786	1	CPLW	786	1	blank2r.bmp	866	6	töten	866	0	0	0	0	0	0	0	0	0	0	0	0	0	0	0	0	0	0	0	0	0	0	0	0	0	0	0	0	0	0	0	0	0
031119	14:04:45	14:07:32	165610	5.0.10.0	4_exp_AMP_EVA_AWA_CON	160	Rpleas_acq	Oppo	Rpleas	Amasked	CS_A	2pleas	distractor2	EVAbeforeCON	acq_US_pleas_masked	acq1_masked	1	20	0	0	300	300	0	0	549	50	0	1	0	0	0	1	blank2r.bmp	0	1	+	0	2	B2r.bmp	492	1	blank2r.bmp	786	1	DHJF	786	1	blank2r.bmp	866	5	engagiert	866	0	0	0	0	0	0	0	0	0	0	0	0	0	0	0	0	0	0	0	0	0	0	0	0	0	0	0	0	0	0	0	0	0
031119	14:04:45	14:07:34	167676	5.0.10.0	4_exp_AMP_EVA_AWA_CON	160	Rpleas_acq	Oppo	Rpleas	Amasked	CS_A	2pleas	distractor2	EVAbeforeCON	acq_US_unple_masked	acq1_masked	1	21	0	0	300	300	0	0	595	46	0	1	0	0	0	1	blank2r.bmp	0	1	+	0	5	C1r.bmp	492	1	blank2r.bmp	786	1	CPLW	786	1	blank2r.bmp	866	2	bange	866	0	0	0	0	0	0	0	0	0	0	0	0	0	0	0	0	0	0	0	0	0	0	0	0	0	0	0	0	0	0	0	0	0
031119	14:04:45	14:07:36	169728	5.0.10.0	4_exp_AMP_EVA_AWA_CON	160	Rpleas_acq	Oppo	Rpleas	Amasked	CS_A	2pleas	distractor2	EVAbeforeCON	acq_US_pleas_masked	acq1_masked	1	22	0	0	300	300	0	0	558	50	0	1	0	0	0	1	blank2r.bmp	0	1	+	0	1	B1r.bmp	492	1	blank2r.bmp	786	1	DHJF	786	1	blank2r.bmp	866	2	besonnen	866	0	0	0	0	0	0	0	0	0	0	0	0	0	0	0	0	0	0	0	0	0	0	0	0	0	0	0	0	0	0	0	0	0
031119	14:04:45	14:07:38	171940	5.0.10.0	4_exp_AMP_EVA_AWA_CON	160	Rpleas_acq	Oppo	Rpleas	Amasked	CS_A	2pleas	distractor2	EVAbeforeCON	acq_new_pleas_masked	acq1_masked	1	23	0	0	300	300	0	0	733	50	0	1	0	0	0	1	blank2r.bmp	0	1	+	0	7	C3r.bmp	492	1	blank2r.bmp	786	4	B4r.bmp	786	1	blank2r.bmp	866	2	gesittet	866	0	0	0	0	0	0	0	0	0	0	0	0	0	0	0	0	0	0	0	0	0	0	0	0	0	0	0	0	0	0	0	0	0
031119	14:04:45	14:07:40	174073	5.0.10.0	4_exp_AMP_EVA_AWA_CON	160	Rpleas_acq	Oppo	Rpleas	Amasked	CS_A	2pleas	distractor2	EVAbeforeCON	acq_new_unple_masked	acq1_masked	1	24	0	0	300	300	0	0	656	46	0	1	0	0	0	1	blank2r.bmp	0	1	+	0	8	C4r.bmp	492	1	blank2r.bmp	786	7	C3r.bmp	786	1	blank2r.bmp	866	3	sterben	866	0	0	0	0	0	0	0	0	0	0	0	0	0	0	0	0	0	0	0	0	0	0	0	0	0	0	0	0	0	0	0	0	0
031119	14:04:45	14:07:43	176285	5.0.10.0	4_exp_AMP_EVA_AWA_CON	160	Rpleas_acq	Oppo	Rpleas	Amasked	CS_A	2pleas	distractor2	EVAbeforeCON	acq_new_pleas_masked	acq1_masked	1	25	0	0	300	300	0	0	720	50	0	1	0	0	0	1	blank2r.bmp	0	1	+	0	8	C4r.bmp	492	1	blank2r.bmp	786	6	C2r.bmp	786	1	blank2r.bmp	866	2	gesittet	866	0	0	0	0	0	0	0	0	0	0	0	0	0	0	0	0	0	0	0	0	0	0	0	0	0	0	0	0	0	0	0	0	0
031119	14:04:45	14:07:45	178591	5.0.10.0	4_exp_AMP_EVA_AWA_CON	160	Rpleas_acq	Oppo	Rpleas	Amasked	CS_A	2pleas	distractor2	EVAbeforeCON	acq_new_unple_masked	acq1_masked	1	26	0	0	300	300	0	0	831	46	0	1	0	0	0	1	blank2r.bmp	0	1	+	0	3	B3r.bmp	492	1	blank2r.bmp	786	8	C4r.bmp	786	1	blank2r.bmp	866	4	krank	866	0	0	0	0	0	0	0	0	0	0	0	0	0	0	0	0	0	0	0	0	0	0	0	0	0	0	0	0	0	0	0	0	0
031119	14:04:45	14:07:47	180537	5.0.10.0	4_exp_AMP_EVA_AWA_CON	160	Rpleas_acq	Oppo	Rpleas	Amasked	CS_A	2pleas	distractor2	EVAbeforeCON	acq_US_pleas_masked	acq1_masked	1	27	0	0	300	300	0	0	470	50	0	1	0	0	0	1	blank2r.bmp	0	1	+	0	4	B4r.bmp	492	1	blank2r.bmp	786	1	DHJF	786	1	blank2r.bmp	866	3	gütig	866	0	0	0	0	0	0	0	0	0	0	0	0	0	0	0	0	0	0	0	0	0	0	0	0	0	0	0	0	0	0	0	0	0
031119	14:04:45	14:07:49	182549	5.0.10.0	4_exp_AMP_EVA_AWA_CON	160	Rpleas_acq	Oppo	Rpleas	Amasked	CS_A	2pleas	distractor2	EVAbeforeCON	acq_US_pleas_masked	acq1_masked	1	28	0	0	300	300	0	0	543	50	0	1	0	0	0	1	blank2r.bmp	0	1	+	0	6	C2r.bmp	492	1	blank2r.bmp	786	1	DHJF	786	1	blank2r.bmp	866	2	besonnen	866	0	0	0	0	0	0	0	0	0	0	0	0	0	0	0	0	0	0	0	0	0	0	0	0	0	0	0	0	0	0	0	0	0
031119	14:04:45	14:07:51	184628	5.0.10.0	4_exp_AMP_EVA_AWA_CON	160	Rpleas_acq	Oppo	Rpleas	Amasked	CS_A	2pleas	distractor2	EVAbeforeCON	acq_new_unple_masked	acq1_masked	1	29	0	0	300	300	0	0	611	46	0	1	0	0	0	1	blank2r.bmp	0	1	+	0	7	C3r.bmp	492	1	blank2r.bmp	786	1	B1r.bmp	786	1	blank2r.bmp	866	5	versagen	866	0	0	0	0	0	0	0	0	0	0	0	0	0	0	0	0	0	0	0	0	0	0	0	0	0	0	0	0	0	0	0	0	0
031119	14:04:45	14:07:53	186721	5.0.10.0	4_exp_AMP_EVA_AWA_CON	160	Rpleas_acq	Oppo	Rpleas	Amasked	CS_A	2pleas	distractor2	EVAbeforeCON	acq_new_pleas_masked	acq1_masked	1	30	0	0	300	300	0	0	606	50	0	1	0	0	0	1	blank2r.bmp	0	1	+	0	5	C1r.bmp	492	1	blank2r.bmp	786	3	B3r.bmp	786	1	blank2r.bmp	866	5	vertrauen	866	0	0	0	0	0	0	0	0	0	0	0	0	0	0	0	0	0	0	0	0	0	0	0	0	0	0	0	0	0	0	0	0	0
031119	14:04:45	14:07:55	188867	5.0.10.0	4_exp_AMP_EVA_AWA_CON	160	Rpleas_acq	Oppo	Rpleas	Amasked	CS_A	2pleas	distractor2	EVAbeforeCON	acq_new_unple_masked	acq1_masked	1	31	0	0	300	300	0	0	662	46	0	1	0	0	0	1	blank2r.bmp	0	1	+	0	1	B1r.bmp	492	1	blank2r.bmp	786	4	B4r.bmp	786	1	blank2r.bmp	866	1	ausrottung	866	0	0	0	0	0	0	0	0	0	0	0	0	0	0	0	0	0	0	0	0	0	0	0	0	0	0	0	0	0	0	0	0	0
031119	14:04:45	14:07:57	190919	5.0.10.0	4_exp_AMP_EVA_AWA_CON	160	Rpleas_acq	Oppo	Rpleas	Amasked	CS_A	2pleas	distractor2	EVAbeforeCON	acq_new_pleas_masked	acq1_masked	1	32	0	0	300	300	0	0	582	50	0	1	0	0	0	1	blank2r.bmp	0	1	+	0	2	B2r.bmp	492	1	blank2r.bmp	786	8	C4r.bmp	786	1	blank2r.bmp	866	4	kreativ	866	0	0	0	0	0	0	0	0	0	0	0	0	0	0	0	0	0	0	0	0	0	0	0	0	0	0	0	0	0	0	0	0	0
031119	14:04:45	14:08:00	193265	5.0.10.0	4_exp_AMP_EVA_AWA_CON	160	Rpleas_acq	Oppo	Rpleas	Amasked	CS_A	2pleas	distractor2	EVAbeforeCON	acq_US_pleas_masked	acq1_masked	1	33	0	0	300	300	0	0	854	50	0	1	0	0	0	1	blank2r.bmp	0	1	+	0	4	B4r.bmp	492	1	blank2r.bmp	786	1	DHJF	786	1	blank2r.bmp	866	1	genießen	866	0	0	0	0	0	0	0	0	0	0	0	0	0	0	0	0	0	0	0	0	0	0	0	0	0	0	0	0	0	0	0	0	0
031119	14:04:45	14:08:02	195371	5.0.10.0	4_exp_AMP_EVA_AWA_CON	160	Rpleas_acq	Oppo	Rpleas	Amasked	CS_A	2pleas	distractor2	EVAbeforeCON	acq_US_unple_masked	acq1_masked	1	34	0	0	300	300	0	0	615	46	0	1	0	0	0	1	blank2r.bmp	0	1	+	0	6	C2r.bmp	492	1	blank2r.bmp	786	1	CPLW	786	1	blank2r.bmp	866	2	bange	866	0	0	0	0	0	0	0	0	0	0	0	0	0	0	0	0	0	0	0	0	0	0	0	0	0	0	0	0	0	0	0	0	0
031119	14:04:45	14:08:04	197463	5.0.10.0	4_exp_AMP_EVA_AWA_CON	160	Rpleas_acq	Oppo	Rpleas	Amasked	CS_A	2pleas	distractor2	EVAbeforeCON	acq_US_unple_masked	acq1_masked	1	35	0	0	300	300	0	0	602	46	0	1	0	0	0	1	blank2r.bmp	0	1	+	0	5	C1r.bmp	492	1	blank2r.bmp	786	1	CPLW	786	1	blank2r.bmp	866	4	verbissen	866	0	0	0	0	0	0	0	0	0	0	0	0	0	0	0	0	0	0	0	0	0	0	0	0	0	0	0	0	0	0	0	0	0
031119	14:04:45	14:08:06	199569	5.0.10.0	4_exp_AMP_EVA_AWA_CON	160	Rpleas_acq	Oppo	Rpleas	Amasked	CS_A	2pleas	distractor2	EVAbeforeCON	acq_US_unple_masked	acq1_masked	1	36	0	0	300	300	0	0	629	46	0	1	0	0	0	1	blank2r.bmp	0	1	+	0	2	B2r.bmp	492	1	blank2r.bmp	786	1	CPLW	786	1	blank2r.bmp	866	6	töten	866	0	0	0	0	0	0	0	0	0	0	0	0	0	0	0	0	0	0	0	0	0	0	0	0	0	0	0	0	0	0	0	0	0
031119	14:04:45	14:08:34	227197	5.0.10.0	4_exp_AMP_EVA_AWA_CON	160	Rpleas_acq	Oppo	Rpleas	Amasked	CS_A	2pleas	distractor2	EVAbeforeCON	acq_US_unple_masked	acq2_masked	2	1	480	0	300	300	0	0	880	46	0	1	0	0	0	1	blank2r.bmp	0	1	+	0	7	C3r.bmp	492	1	blank2r.bmp	786	1	CPLW	786	1	blank2r.bmp	866	5	engstirnig	866	1	!	1319	1	!	-1	0	0	0	0	0	0	0	0	0	0	0	0	0	0	0	0	0	0	0	0	0	0	0	0	0	0	0
031119	14:04:45	14:08:36	229703	5.0.10.0	4_exp_AMP_EVA_AWA_CON	160	Rpleas_acq	Oppo	Rpleas	Amasked	CS_A	2pleas	distractor2	EVAbeforeCON	acq_new_pleas_masked	acq2_masked	2	2	480	0	300	300	0	0	720	50	0	1	0	0	0	1	blank2r.bmp	0	1	+	0	8	C4r.bmp	492	1	blank2r.bmp	786	7	C3r.bmp	786	1	blank2r.bmp	866	1	anregung	866	1	!	1319	1	!	-1	0	0	0	0	0	0	0	0	0	0	0	0	0	0	0	0	0	0	0	0	0	0	0	0	0	0	0
031119	14:04:45	14:08:38	232115	5.0.10.0	4_exp_AMP_EVA_AWA_CON	160	Rpleas_acq	Oppo	Rpleas	Amasked	CS_A	2pleas	distractor2	EVAbeforeCON	acq_new_unple_masked	acq2_masked	2	3	480	0	300	300	0	0	628	46	0	1	0	0	0	1	blank2r.bmp	0	1	+	0	1	B1r.bmp	492	1	blank2r.bmp	786	6	C2r.bmp	786	1	blank2r.bmp	866	2	geizig	866	1	!	1319	1	!	-1	0	0	0	0	0	0	0	0	0	0	0	0	0	0	0	0	0	0	0	0	0	0	0	0	0	0	0
031119	14:04:45	14:08:41	234461	5.0.10.0	4_exp_AMP_EVA_AWA_CON	160	Rpleas_acq	Oppo	Rpleas	Amasked	CS_A	2pleas	distractor2	EVAbeforeCON	acq_US_unple_masked	acq2_masked	2	4	480	0	300	300	0	0	571	46	0	1	0	0	0	1	blank2r.bmp	0	1	+	0	3	B3r.bmp	492	1	blank2r.bmp	786	1	CPLW	786	1	blank2r.bmp	866	3	gierig	866	1	!	1319	1	!	-1	0	0	0	0	0	0	0	0	0	0	0	0	0	0	0	0	0	0	0	0	0	0	0	0	0	0	0
031119	14:04:45	14:08:43	236847	5.0.10.0	4_exp_AMP_EVA_AWA_CON	160	Rpleas_acq	Oppo	Rpleas	Amasked	CS_A	2pleas	distractor2	EVAbeforeCON	acq_US_pleas_masked	acq2_masked	2	5	480	0	300	300	0	0	389	46	0	0	0	0	0	1	blank2r.bmp	0	1	+	0	8	C4r.bmp	492	1	blank2r.bmp	786	1	DHJF	786	1	blank2r.bmp	866	5	engagiert	866	1	FEHLER	1599	1	!	-1	1	!	-1	0	0	0	0	0	0	0	0	0	0	0	0	0	0	0	0	0	0	0	0	0	0	0	0
031119	14:04:45	14:08:45	239112	5.0.10.0	4_exp_AMP_EVA_AWA_CON	160	Rpleas_acq	Oppo	Rpleas	Amasked	CS_A	2pleas	distractor2	EVAbeforeCON	acq_new_unple_masked	acq2_masked	2	6	480	0	300	300	0	0	687	46	0	1	0	0	0	1	blank2r.bmp	0	1	+	0	4	B4r.bmp	492	1	blank2r.bmp	786	1	B1r.bmp	786	1	blank2r.bmp	866	6	krise	866	1	!	1319	1	!	-1	0	0	0	0	0	0	0	0	0	0	0	0	0	0	0	0	0	0	0	0	0	0	0	0	0	0	0
031119	14:04:45	14:08:48	241378	5.0.10.0	4_exp_AMP_EVA_AWA_CON	160	Rpleas_acq	Oppo	Rpleas	Amasked	CS_A	2pleas	distractor2	EVAbeforeCON	acq_US_pleas_masked	acq2_masked	2	7	480	1	300	300	0	0	453	50	0	1	0	0	0	1	blank2r.bmp	0	1	+	0	7	C3r.bmp	492	1	blank2r.bmp	786	1	DHJF	786	1	blank2r.bmp	866	6	träumen	866	1	!	1319	1	!	1359	0	0	0	0	0	0	0	0	0	0	0	0	0	0	0	0	0	0	0	0	0	0	0	0	0	0	0
031119	14:04:45	14:08:50	243657	5.0.10.0	4_exp_AMP_EVA_AWA_CON	160	Rpleas_acq	Oppo	Rpleas	Amasked	CS_A	2pleas	distractor2	EVAbeforeCON	acq_new_pleas_masked	acq2_masked	2	8	480	1	300	300	0	0	484	50	0	1	0	0	0	1	blank2r.bmp	0	1	+	0	1	B1r.bmp	492	1	blank2r.bmp	786	2	B2r.bmp	786	1	blank2r.bmp	866	3	sonnig	866	1	!	1319	1	!	1386	0	0	0	0	0	0	0	0	0	0	0	0	0	0	0	0	0	0	0	0	0	0	0	0	0	0	0
031119	14:04:45	14:08:52	245883	5.0.10.0	4_exp_AMP_EVA_AWA_CON	160	Rpleas_acq	Oppo	Rpleas	Amasked	CS_A	2pleas	distractor2	EVAbeforeCON	acq_US_pleas_masked	acq2_masked	2	9	480	1	300	300	0	0	426	50	0	1	0	0	0	1	blank2r.bmp	0	1	+	0	3	B3r.bmp	492	1	blank2r.bmp	786	1	DHJF	786	1	blank2r.bmp	866	4	vergnügt	866	1	!	1319	1	!	1332	0	0	0	0	0	0	0	0	0	0	0	0	0	0	0	0	0	0	0	0	0	0	0	0	0	0	0
031119	14:04:45	14:08:54	248068	5.0.10.0	4_exp_AMP_EVA_AWA_CON	160	Rpleas_acq	Oppo	Rpleas	Amasked	CS_A	2pleas	distractor2	EVAbeforeCON	acq_new_pleas_masked	acq2_masked	2	10	480	0	300	300	0	0	405	50	0	1	0	0	0	1	blank2r.bmp	0	1	+	0	2	B2r.bmp	492	1	blank2r.bmp	786	3	B3r.bmp	786	1	blank2r.bmp	866	6	kuss	866	1	!	-1	1	!	-1	0	0	0	0	0	0	0	0	0	0	0	0	0	0	0	0	0	0	0	0	0	0	0	0	0	0	0
031119	14:04:45	14:08:57	250574	5.0.10.0	4_exp_AMP_EVA_AWA_CON	160	Rpleas_acq	Oppo	Rpleas	Amasked	CS_A	2pleas	distractor2	EVAbeforeCON	acq_new_unple_masked	acq2_masked	2	11	480	0	300	300	0	0	712	46	0	1	0	0	0	1	blank2r.bmp	0	1	+	0	5	C1r.bmp	492	1	blank2r.bmp	786	5	C1r.bmp	786	1	blank2r.bmp	866	3	sterben	866	1	!	1319	1	!	-1	0	0	0	0	0	0	0	0	0	0	0	0	0	0	0	0	0	0	0	0	0	0	0	0	0	0	0
031119	14:04:45	14:08:59	252853	5.0.10.0	4_exp_AMP_EVA_AWA_CON	160	Rpleas_acq	Oppo	Rpleas	Amasked	CS_A	2pleas	distractor2	EVAbeforeCON	acq_US_unple_masked	acq2_masked	2	12	480	1	300	300	0	0	470	46	0	1	0	0	0	1	blank2r.bmp	0	1	+	0	6	C2r.bmp	492	1	blank2r.bmp	786	1	CPLW	786	1	blank2r.bmp	866	1	gemein	866	1	!	1319	1	!	1372	0	0	0	0	0	0	0	0	0	0	0	0	0	0	0	0	0	0	0	0	0	0	0	0	0	0	0
031119	14:04:45	14:09:01	255172	5.0.10.0	4_exp_AMP_EVA_AWA_CON	160	Rpleas_acq	Oppo	Rpleas	Amasked	CS_A	2pleas	distractor2	EVAbeforeCON	acq_US_pleas_masked	acq2_masked	2	13	480	1	300	300	0	0	527	50	0	1	0	0	0	1	blank2r.bmp	0	1	+	0	8	C4r.bmp	492	1	blank2r.bmp	786	1	DHJF	786	1	blank2r.bmp	866	3	gütig	866	1	!	1319	1	!	1426	0	0	0	0	0	0	0	0	0	0	0	0	0	0	0	0	0	0	0	0	0	0	0	0	0	0	0
031119	14:04:45	14:09:04	257518	5.0.10.0	4_exp_AMP_EVA_AWA_CON	160	Rpleas_acq	Oppo	Rpleas	Amasked	CS_A	2pleas	distractor2	EVAbeforeCON	acq_US_pleas_masked	acq2_masked	2	14	480	0	300	300	0	0	572	50	0	1	0	0	0	1	blank2r.bmp	0	1	+	0	4	B4r.bmp	492	1	blank2r.bmp	786	1	DHJF	786	1	blank2r.bmp	866	5	engagiert	866	1	!	1319	1	!	-1	0	0	0	0	0	0	0	0	0	0	0	0	0	0	0	0	0	0	0	0	0	0	0	0	0	0	0
031119	14:04:45	14:09:06	259570	5.0.10.0	4_exp_AMP_EVA_AWA_CON	160	Rpleas_acq	Oppo	Rpleas	Amasked	CS_A	2pleas	distractor2	EVAbeforeCON	acq_US_unple_masked	acq2_masked	2	15	480	0	300	300	0	0	272	46	0	1	0	0	0	1	blank2r.bmp	0	1	+	0	3	B3r.bmp	492	1	blank2r.bmp	786	1	CPLW	786	1	blank2r.bmp	866	1	gemein	866	1	!	-1	1	!	-1	0	0	0	0	0	0	0	0	0	0	0	0	0	0	0	0	0	0	0	0	0	0	0	0	0	0	0
031119	14:04:45	14:09:08	262009	5.0.10.0	4_exp_AMP_EVA_AWA_CON	160	Rpleas_acq	Oppo	Rpleas	Amasked	CS_A	2pleas	distractor2	EVAbeforeCON	acq_new_unple_masked	acq2_masked	2	16	480	0	300	300	0	0	652	46	0	1	0	0	0	1	blank2r.bmp	0	1	+	0	5	C1r.bmp	492	1	blank2r.bmp	786	8	C4r.bmp	786	1	blank2r.bmp	866	1	ausrottung	866	1	!	1319	1	!	-1	0	0	0	0	0	0	0	0	0	0	0	0	0	0	0	0	0	0	0	0	0	0	0	0	0	0	0
031119	14:04:45	14:09:11	264182	5.0.10.0	4_exp_AMP_EVA_AWA_CON	160	Rpleas_acq	Oppo	Rpleas	Amasked	CS_A	2pleas	distractor2	EVAbeforeCON	acq_new_unple_masked	acq2_masked	2	17	480	0	300	300	0	0	388	46	0	1	0	0	0	1	blank2r.bmp	0	1	+	0	7	C3r.bmp	492	1	blank2r.bmp	786	6	C2r.bmp	786	1	blank2r.bmp	866	6	krise	866	1	!	-1	1	!	-1	0	0	0	0	0	0	0	0	0	0	0	0	0	0	0	0	0	0	0	0	0	0	0	0	0	0	0
031119	14:04:45	14:09:13	266487	5.0.10.0	4_exp_AMP_EVA_AWA_CON	160	Rpleas_acq	Oppo	Rpleas	Amasked	CS_A	2pleas	distractor2	EVAbeforeCON	acq_new_pleas_masked	acq2_masked	2	18	480	1	300	300	0	0	498	50	0	1	0	0	0	1	blank2r.bmp	0	1	+	0	2	B2r.bmp	492	1	blank2r.bmp	786	4	B4r.bmp	786	1	blank2r.bmp	866	1	anregung	866	1	!	1319	1	!	1399	0	0	0	0	0	0	0	0	0	0	0	0	0	0	0	0	0	0	0	0	0	0	0	0	0	0	0
031119	14:04:45	14:09:15	268566	5.0.10.0	4_exp_AMP_EVA_AWA_CON	160	Rpleas_acq	Oppo	Rpleas	Amasked	CS_A	2pleas	distractor2	EVAbeforeCON	acq_US_unple_masked	acq2_masked	2	19	480	0	300	300	0	0	314	46	0	1	0	0	0	1	blank2r.bmp	0	1	+	0	1	B1r.bmp	492	1	blank2r.bmp	786	1	CPLW	786	1	blank2r.bmp	866	4	verbissen	866	1	!	-1	1	!	-1	0	0	0	0	0	0	0	0	0	0	0	0	0	0	0	0	0	0	0	0	0	0	0	0	0	0	0
031119	14:04:45	14:09:17	271139	5.0.10.0	4_exp_AMP_EVA_AWA_CON	160	Rpleas_acq	Oppo	Rpleas	Amasked	CS_A	2pleas	distractor2	EVAbeforeCON	acq_new_pleas_masked	acq2_masked	2	20	480	1	300	300	0	0	532	46	0	0	0	0	0	1	blank2r.bmp	0	1	+	0	6	C2r.bmp	492	1	blank2r.bmp	786	2	B2r.bmp	786	1	blank2r.bmp	866	2	gesittet	866	1	FEHLER	1759	1	!	1319	1	!	1439	0	0	0	0	0	0	0	0	0	0	0	0	0	0	0	0	0	0	0	0	0	0	0	0
031119	14:04:45	14:09:20	273258	5.0.10.0	4_exp_AMP_EVA_AWA_CON	160	Rpleas_acq	Oppo	Rpleas	Amasked	CS_A	2pleas	distractor2	EVAbeforeCON	acq_US_unple_masked	acq2_masked	2	21	480	1	300	300	0	0	545	46	0	1	0	0	0	1	blank2r.bmp	0	1	+	0	7	C3r.bmp	492	1	blank2r.bmp	786	1	CPLW	786	1	blank2r.bmp	866	3	gierig	866	1	!	1319	1	!	1439	0	0	0	0	0	0	0	0	0	0	0	0	0	0	0	0	0	0	0	0	0	0	0	0	0	0	0
031119	14:04:45	14:09:22	275630	5.0.10.0	4_exp_AMP_EVA_AWA_CON	160	Rpleas_acq	Oppo	Rpleas	Amasked	CS_A	2pleas	distractor2	EVAbeforeCON	acq_US_pleas_masked	acq2_masked	2	22	480	0	300	300	0	0	604	50	0	1	0	0	0	1	blank2r.bmp	0	1	+	0	8	C4r.bmp	492	1	blank2r.bmp	786	1	DHJF	786	1	blank2r.bmp	866	1	genießen	866	1	!	1319	1	!	-1	0	0	0	0	0	0	0	0	0	0	0	0	0	0	0	0	0	0	0	0	0	0	0	0	0	0	0
031119	14:04:45	14:09:24	277976	5.0.10.0	4_exp_AMP_EVA_AWA_CON	160	Rpleas_acq	Oppo	Rpleas	Amasked	CS_A	2pleas	distractor2	EVAbeforeCON	acq_new_unple_masked	acq2_masked	2	23	480	1	300	300	0	0	538	46	0	1	0	0	0	1	blank2r.bmp	0	1	+	0	5	C1r.bmp	492	1	blank2r.bmp	786	1	B1r.bmp	786	1	blank2r.bmp	866	4	krank	866	1	!	1319	1	!	1439	0	0	0	0	0	0	0	0	0	0	0	0	0	0	0	0	0	0	0	0	0	0	0	0	0	0	0
031119	14:04:45	14:09:27	280322	5.0.10.0	4_exp_AMP_EVA_AWA_CON	160	Rpleas_acq	Oppo	Rpleas	Amasked	CS_A	2pleas	distractor2	EVAbeforeCON	acq_new_pleas_masked	acq2_masked	2	24	480	1	300	300	0	0	545	50	0	1	0	0	0	1	blank2r.bmp	0	1	+	0	2	B2r.bmp	492	1	blank2r.bmp	786	7	C3r.bmp	786	1	blank2r.bmp	866	3	sonnig	866	1	!	1319	1	!	1452	0	0	0	0	0	0	0	0	0	0	0	0	0	0	0	0	0	0	0	0	0	0	0	0	0	0	0
031119	14:04:45	14:09:29	282694	5.0.10.0	4_exp_AMP_EVA_AWA_CON	160	Rpleas_acq	Oppo	Rpleas	Amasked	CS_A	2pleas	distractor2	EVAbeforeCON	acq_US_pleas_masked	acq2_masked	2	25	480	0	300	300	0	0	599	50	0	1	0	0	0	1	blank2r.bmp	0	1	+	0	1	B1r.bmp	492	1	blank2r.bmp	786	1	DHJF	786	1	blank2r.bmp	866	4	vergnügt	866	1	!	1319	1	!	-1	0	0	0	0	0	0	0	0	0	0	0	0	0	0	0	0	0	0	0	0	0	0	0	0	0	0	0
031119	14:04:45	14:09:31	284880	5.0.10.0	4_exp_AMP_EVA_AWA_CON	160	Rpleas_acq	Oppo	Rpleas	Amasked	CS_A	2pleas	distractor2	EVAbeforeCON	acq_new_unple_masked	acq2_masked	2	26	480	0	300	300	0	0	402	46	0	1	0	0	0	1	blank2r.bmp	0	1	+	0	4	B4r.bmp	492	1	blank2r.bmp	786	3	B3r.bmp	786	1	blank2r.bmp	866	2	geizig	866	1	!	-1	1	!	-1	0	0	0	0	0	0	0	0	0	0	0	0	0	0	0	0	0	0	0	0	0	0	0	0	0	0	0
031119	14:04:45	14:09:34	287279	5.0.10.0	4_exp_AMP_EVA_AWA_CON	160	Rpleas_acq	Oppo	Rpleas	Amasked	CS_A	2pleas	distractor2	EVAbeforeCON	acq_US_unple_masked	acq2_masked	2	27	480	0	300	300	0	0	385	50	0	0	0	0	0	1	blank2r.bmp	0	1	+	0	6	C2r.bmp	492	1	blank2r.bmp	786	1	CPLW	786	1	blank2r.bmp	866	2	bange	866	1	FEHLER	1599	1	!	-1	1	!	-1	0	0	0	0	0	0	0	0	0	0	0	0	0	0	0	0	0	0	0	0	0	0	0	0
031119	14:04:45	14:09:36	289424	5.0.10.0	4_exp_AMP_EVA_AWA_CON	160	Rpleas_acq	Oppo	Rpleas	Amasked	CS_A	2pleas	distractor2	EVAbeforeCON	acq_US_pleas_masked	acq2_masked	2	28	480	0	300	300	0	0	580	50	0	1	0	0	0	1	blank2r.bmp	0	1	+	0	3	B3r.bmp	492	1	blank2r.bmp	786	1	DHJF	786	1	blank2r.bmp	866	2	besonnen	866	1	!	1319	1	!	-1	0	0	0	0	0	0	0	0	0	0	0	0	0	0	0	0	0	0	0	0	0	0	0	0	0	0	0
031119	14:04:45	14:09:38	292143	5.0.10.0	4_exp_AMP_EVA_AWA_CON	160	Rpleas_acq	Oppo	Rpleas	Amasked	CS_A	2pleas	distractor2	EVAbeforeCON	acq_US_unple_masked	acq2_masked	2	29	480	0	300	300	0	0	919	46	0	1	0	0	0	1	blank2r.bmp	0	1	+	0	3	B3r.bmp	492	1	blank2r.bmp	786	1	CPLW	786	1	blank2r.bmp	866	5	engstirnig	866	1	!	1319	1	!	-1	0	0	0	0	0	0	0	0	0	0	0	0	0	0	0	0	0	0	0	0	0	0	0	0	0	0	0
031119	14:04:45	14:09:41	294449	5.0.10.0	4_exp_AMP_EVA_AWA_CON	160	Rpleas_acq	Oppo	Rpleas	Amasked	CS_A	2pleas	distractor2	EVAbeforeCON	acq_US_pleas_masked	acq2_masked	2	30	480	0	300	300	0	0	295	46	0	0	0	0	0	1	blank2r.bmp	0	1	+	0	2	B2r.bmp	492	1	blank2r.bmp	786	1	DHJF	786	1	blank2r.bmp	866	6	träumen	866	1	FEHLER	1506	1	!	-1	1	!	-1	0	0	0	0	0	0	0	0	0	0	0	0	0	0	0	0	0	0	0	0	0	0	0	0
031119	14:04:45	14:09:43	296795	5.0.10.0	4_exp_AMP_EVA_AWA_CON	160	Rpleas_acq	Oppo	Rpleas	Amasked	CS_A	2pleas	distractor2	EVAbeforeCON	acq_new_unple_masked	acq2_masked	2	31	480	0	300	300	0	0	559	50	0	0	0	0	0	1	blank2r.bmp	0	1	+	0	6	C2r.bmp	492	1	blank2r.bmp	786	5	C1r.bmp	786	1	blank2r.bmp	866	5	versagen	866	1	FEHLER	1772	1	!	1319	1	!	-1	0	0	0	0	0	0	0	0	0	0	0	0	0	0	0	0	0	0	0	0	0	0	0	0
031119	14:04:45	14:09:45	298847	5.0.10.0	4_exp_AMP_EVA_AWA_CON	160	Rpleas_acq	Oppo	Rpleas	Amasked	CS_A	2pleas	distractor2	EVAbeforeCON	acq_US_unple_masked	acq2_masked	2	32	480	1	300	300	0	0	457	46	0	1	0	0	0	1	blank2r.bmp	0	1	+	0	7	C3r.bmp	492	1	blank2r.bmp	786	1	CPLW	786	1	blank2r.bmp	866	6	töten	866	1	!	1319	1	!	1359	0	0	0	0	0	0	0	0	0	0	0	0	0	0	0	0	0	0	0	0	0	0	0	0	0	0	0
031119	14:04:45	14:09:48	301166	5.0.10.0	4_exp_AMP_EVA_AWA_CON	160	Rpleas_acq	Oppo	Rpleas	Amasked	CS_A	2pleas	distractor2	EVAbeforeCON	acq_new_pleas_masked	acq2_masked	2	33	480	1	300	300	0	0	523	50	0	1	0	0	0	1	blank2r.bmp	0	1	+	0	8	C4r.bmp	492	1	blank2r.bmp	786	1	B1r.bmp	786	1	blank2r.bmp	866	5	vertrauen	866	1	!	1319	1	!	1426	0	0	0	0	0	0	0	0	0	0	0	0	0	0	0	0	0	0	0	0	0	0	0	0	0	0	0
031119	14:04:45	14:09:50	303525	5.0.10.0	4_exp_AMP_EVA_AWA_CON	160	Rpleas_acq	Oppo	Rpleas	Amasked	CS_A	2pleas	distractor2	EVAbeforeCON	acq_new_pleas_masked	acq2_masked	2	34	480	0	300	300	0	0	590	50	0	1	0	0	0	1	blank2r.bmp	0	1	+	0	1	B1r.bmp	492	1	blank2r.bmp	786	3	B3r.bmp	786	1	blank2r.bmp	866	6	kuss	866	1	!	1319	1	!	-1	0	0	0	0	0	0	0	0	0	0	0	0	0	0	0	0	0	0	0	0	0	0	0	0	0	0	0
031119	14:04:45	14:09:52	305884	5.0.10.0	4_exp_AMP_EVA_AWA_CON	160	Rpleas_acq	Oppo	Rpleas	Amasked	CS_A	2pleas	distractor2	EVAbeforeCON	acq_new_unple_masked	acq2_masked	2	35	480	1	300	300	0	0	533	46	0	1	0	0	0	1	blank2r.bmp	0	1	+	0	5	C1r.bmp	492	1	blank2r.bmp	786	4	B4r.bmp	786	1	blank2r.bmp	866	3	sterben	866	1	!	1319	1	!	1439	0	0	0	0	0	0	0	0	0	0	0	0	0	0	0	0	0	0	0	0	0	0	0	0	0	0	0
031119	14:04:45	14:09:55	308243	5.0.10.0	4_exp_AMP_EVA_AWA_CON	160	Rpleas_acq	Oppo	Rpleas	Amasked	CS_A	2pleas	distractor2	EVAbeforeCON	acq_new_pleas_masked	acq2_masked	2	36	480	0	300	300	0	0	593	50	0	1	0	0	0	1	blank2r.bmp	0	1	+	0	4	B4r.bmp	492	1	blank2r.bmp	786	5	C1r.bmp	786	1	blank2r.bmp	866	4	kreativ	866	1	!	1319	1	!	-1	0	0	0	0	0	0	0	0	0	0	0	0	0	0	0	0	0	0	0	0	0	0	0	0	0	0	0
031119	14:04:45	14:10:08	321797	5.0.10.0	4_exp_AMP_EVA_AWA_CON	160	Rpleas_acq	Oppo	Rpleas	Amasked	CS_A	2pleas	distractor2	EVAbeforeCON	acq_US_pleas_masked	acq3_masked	3	1	453	1	300	300	0	0	489	50	0	1	0	0	0	1	blank2r.bmp	0	1	+	0	1	B1r.bmp	492	1	blank2r.bmp	786	1	DHJF	786	1	blank2r.bmp	866	3	gütig	866	1	!	1292	1	!	1386	0	0	0	0	0	0	0	0	0	0	0	0	0	0	0	0	0	0	0	0	0	0	0	0	0	0	0
031119	14:04:45	14:10:10	323890	5.0.10.0	4_exp_AMP_EVA_AWA_CON	160	Rpleas_acq	Oppo	Rpleas	Amasked	CS_A	2pleas	distractor2	EVAbeforeCON	acq_US_unple_masked	acq3_masked	3	2	453	0	300	300	0	0	320	46	0	1	0	0	0	1	blank2r.bmp	0	1	+	0	3	B3r.bmp	492	1	blank2r.bmp	786	1	CPLW	786	1	blank2r.bmp	866	1	gemein	866	1	!	-1	1	!	-1	0	0	0	0	0	0	0	0	0	0	0	0	0	0	0	0	0	0	0	0	0	0	0	0	0	0	0
031119	14:04:45	14:10:13	326236	5.0.10.0	4_exp_AMP_EVA_AWA_CON	160	Rpleas_acq	Oppo	Rpleas	Amasked	CS_A	2pleas	distractor2	EVAbeforeCON	acq_US_pleas_masked	acq3_masked	3	3	453	0	300	300	0	0	332	46	0	0	0	0	0	1	blank2r.bmp	0	1	+	0	4	B4r.bmp	492	1	blank2r.bmp	786	1	DHJF	786	1	blank2r.bmp	866	2	besonnen	866	1	FEHLER	1546	1	!	-1	1	!	-1	0	0	0	0	0	0	0	0	0	0	0	0	0	0	0	0	0	0	0	0	0	0	0	0
031119	14:04:45	14:10:15	328328	5.0.10.0	4_exp_AMP_EVA_AWA_CON	160	Rpleas_acq	Oppo	Rpleas	Amasked	CS_A	2pleas	distractor2	EVAbeforeCON	acq_US_pleas_masked	acq3_masked	3	4	453	1	300	300	0	0	518	50	0	1	0	0	0	1	blank2r.bmp	0	1	+	0	8	C4r.bmp	492	1	blank2r.bmp	786	1	DHJF	786	1	blank2r.bmp	866	6	träumen	866	1	!	1292	1	!	1413	0	0	0	0	0	0	0	0	0	0	0	0	0	0	0	0	0	0	0	0	0	0	0	0	0	0	0
031119	14:04:45	14:10:17	330660	5.0.10.0	4_exp_AMP_EVA_AWA_CON	160	Rpleas_acq	Oppo	Rpleas	Amasked	CS_A	2pleas	distractor2	EVAbeforeCON	acq_US_unple_masked	acq3_masked	3	5	453	0	300	300	0	0	553	46	0	1	0	0	0	1	blank2r.bmp	0	1	+	0	6	C2r.bmp	492	1	blank2r.bmp	786	1	CPLW	786	1	blank2r.bmp	866	5	engstirnig	866	1	!	1292	1	!	-1	0	0	0	0	0	0	0	0	0	0	0	0	0	0	0	0	0	0	0	0	0	0	0	0	0	0	0
031119	14:04:45	14:10:19	332740	5.0.10.0	4_exp_AMP_EVA_AWA_CON	160	Rpleas_acq	Oppo	Rpleas	Amasked	CS_A	2pleas	distractor2	EVAbeforeCON	acq_US_pleas_masked	acq3_masked	3	6	453	0	300	300	0	0	298	50	0	1	0	0	0	1	blank2r.bmp	0	1	+	0	2	B2r.bmp	492	1	blank2r.bmp	786	1	DHJF	786	1	blank2r.bmp	866	1	genießen	866	1	!	-1	1	!	-1	0	0	0	0	0	0	0	0	0	0	0	0	0	0	0	0	0	0	0	0	0	0	0	0	0	0	0
031119	14:04:45	14:10:21	335059	5.0.10.0	4_exp_AMP_EVA_AWA_CON	160	Rpleas_acq	Oppo	Rpleas	Amasked	CS_A	2pleas	distractor2	EVAbeforeCON	acq_US_pleas_masked	acq3_masked	3	7	453	0	300	300	0	0	532	50	0	1	0	0	0	1	blank2r.bmp	0	1	+	0	7	C3r.bmp	492	1	blank2r.bmp	786	1	DHJF	786	1	blank2r.bmp	866	4	vergnügt	866	1	!	1292	1	!	-1	0	0	0	0	0	0	0	0	0	0	0	0	0	0	0	0	0	0	0	0	0	0	0	0	0	0	0
031119	14:04:45	14:10:24	337298	5.0.10.0	4_exp_AMP_EVA_AWA_CON	160	Rpleas_acq	Oppo	Rpleas	Amasked	CS_A	2pleas	distractor2	EVAbeforeCON	acq_US_pleas_masked	acq3_masked	3	8	453	1	300	300	0	0	435	50	0	1	0	0	0	1	blank2r.bmp	0	1	+	0	5	C1r.bmp	492	1	blank2r.bmp	786	1	DHJF	786	1	blank2r.bmp	866	5	engagiert	866	1	!	1292	1	!	1332	0	0	0	0	0	0	0	0	0	0	0	0	0	0	0	0	0	0	0	0	0	0	0	0	0	0	0
031119	14:04:45	14:10:26	339323	5.0.10.0	4_exp_AMP_EVA_AWA_CON	160	Rpleas_acq	Oppo	Rpleas	Amasked	CS_A	2pleas	distractor2	EVAbeforeCON	acq_US_unple_masked	acq3_masked	3	9	453	0	300	300	0	0	249	46	0	1	0	0	0	1	blank2r.bmp	0	1	+	0	8	C4r.bmp	492	1	blank2r.bmp	786	1	CPLW	786	1	blank2r.bmp	866	3	gierig	866	1	!	-1	1	!	-1	0	0	0	0	0	0	0	0	0	0	0	0	0	0	0	0	0	0	0	0	0	0	0	0	0	0	0
031119	14:04:45	14:10:28	341629	5.0.10.0	4_exp_AMP_EVA_AWA_CON	160	Rpleas_acq	Oppo	Rpleas	Amasked	CS_A	2pleas	distractor2	EVAbeforeCON	acq_US_unple_masked	acq3_masked	3	10	453	1	300	300	0	0	492	46	0	1	0	0	0	1	blank2r.bmp	0	1	+	0	7	C3r.bmp	492	1	blank2r.bmp	786	1	CPLW	786	1	blank2r.bmp	866	4	verbissen	866	1	!	1292	1	!	1399	0	0	0	0	0	0	0	0	0	0	0	0	0	0	0	0	0	0	0	0	0	0	0	0	0	0	0
031119	14:04:45	14:10:30	343921	5.0.10.0	4_exp_AMP_EVA_AWA_CON	160	Rpleas_acq	Oppo	Rpleas	Amasked	CS_A	2pleas	distractor2	EVAbeforeCON	acq_US_unple_masked	acq3_masked	3	11	453	1	300	300	0	0	498	46	0	1	0	0	0	1	blank2r.bmp	0	1	+	0	4	B4r.bmp	492	1	blank2r.bmp	786	1	CPLW	786	1	blank2r.bmp	866	6	töten	866	1	!	1292	1	!	1399	0	0	0	0	0	0	0	0	0	0	0	0	0	0	0	0	0	0	0	0	0	0	0	0	0	0	0
031119	14:04:45	14:10:33	346267	5.0.10.0	4_exp_AMP_EVA_AWA_CON	160	Rpleas_acq	Oppo	Rpleas	Amasked	CS_A	2pleas	distractor2	EVAbeforeCON	acq_US_unple_masked	acq3_masked	3	12	453	0	300	300	0	0	354	50	0	0	0	0	0	1	blank2r.bmp	0	1	+	0	6	C2r.bmp	492	1	blank2r.bmp	786	1	CPLW	786	1	blank2r.bmp	866	2	bange	866	1	FEHLER	1559	1	!	-1	1	!	-1	0	0	0	0	0	0	0	0	0	0	0	0	0	0	0	0	0	0	0	0	0	0	0	0
031119	14:04:45	14:10:35	348360	5.0.10.0	4_exp_AMP_EVA_AWA_CON	160	Rpleas_acq	Oppo	Rpleas	Amasked	CS_A	2pleas	distractor2	EVAbeforeCON	acq_US_pleas_masked	acq3_masked	3	13	453	0	300	300	0	0	532	50	0	1	0	0	0	1	blank2r.bmp	0	1	+	0	1	B1r.bmp	492	1	blank2r.bmp	786	1	DHJF	786	1	blank2r.bmp	866	3	gütig	866	1	!	1292	1	!	-1	0	0	0	0	0	0	0	0	0	0	0	0	0	0	0	0	0	0	0	0	0	0	0	0	0	0	0
031119	14:04:45	14:10:37	350679	5.0.10.0	4_exp_AMP_EVA_AWA_CON	160	Rpleas_acq	Oppo	Rpleas	Amasked	CS_A	2pleas	distractor2	EVAbeforeCON	acq_US_pleas_masked	acq3_masked	3	14	453	1	300	300	0	0	495	50	0	1	0	0	0	1	blank2r.bmp	0	1	+	0	5	C1r.bmp	492	1	blank2r.bmp	786	1	DHJF	786	1	blank2r.bmp	866	2	besonnen	866	1	!	1292	1	!	1399	0	0	0	0	0	0	0	0	0	0	0	0	0	0	0	0	0	0	0	0	0	0	0	0	0	0	0
031119	14:04:45	14:10:39	352984	5.0.10.0	4_exp_AMP_EVA_AWA_CON	160	Rpleas_acq	Oppo	Rpleas	Amasked	CS_A	2pleas	distractor2	EVAbeforeCON	acq_US_pleas_masked	acq3_masked	3	15	453	1	300	300	0	0	515	50	0	1	0	0	0	1	blank2r.bmp	0	1	+	0	2	B2r.bmp	492	1	blank2r.bmp	786	1	DHJF	786	1	blank2r.bmp	866	6	träumen	866	1	!	1292	1	!	1412	0	0	0	0	0	0	0	0	0	0	0	0	0	0	0	0	0	0	0	0	0	0	0	0	0	0	0
031119	14:04:45	14:10:42	355330	5.0.10.0	4_exp_AMP_EVA_AWA_CON	160	Rpleas_acq	Oppo	Rpleas	Amasked	CS_A	2pleas	distractor2	EVAbeforeCON	acq_US_unple_masked	acq3_masked	3	16	453	0	300	300	0	0	582	46	0	1	0	0	0	1	blank2r.bmp	0	1	+	0	3	B3r.bmp	492	1	blank2r.bmp	786	1	CPLW	786	1	blank2r.bmp	866	4	verbissen	866	1	!	1292	1	!	-1	0	0	0	0	0	0	0	0	0	0	0	0	0	0	0	0	0	0	0	0	0	0	0	0	0	0	0
031119	14:04:45	14:10:44	357502	5.0.10.0	4_exp_AMP_EVA_AWA_CON	160	Rpleas_acq	Oppo	Rpleas	Amasked	CS_A	2pleas	distractor2	EVAbeforeCON	acq_US_unple_masked	acq3_masked	3	17	453	0	300	300	0	0	168	50	0	0	0	0	0	1	blank2r.bmp	0	1	+	0	8	C4r.bmp	492	1	blank2r.bmp	786	1	CPLW	786	1	blank2r.bmp	866	1	gemein	866	1	FEHLER	1372	1	!	-1	1	!	-1	0	0	0	0	0	0	0	0	0	0	0	0	0	0	0	0	0	0	0	0	0	0	0	0
031119	14:04:45	14:10:46	359515	5.0.10.0	4_exp_AMP_EVA_AWA_CON	160	Rpleas_acq	Oppo	Rpleas	Amasked	CS_A	2pleas	distractor2	EVAbeforeCON	acq_US_pleas_masked	acq3_masked	3	18	453	1	300	300	0	0	435	50	0	1	0	0	0	1	blank2r.bmp	0	1	+	0	1	B1r.bmp	492	1	blank2r.bmp	786	1	DHJF	786	1	blank2r.bmp	866	5	engagiert	866	1	!	1292	1	!	1332	0	0	0	0	0	0	0	0	0	0	0	0	0	0	0	0	0	0	0	0	0	0	0	0	0	0	0
031119	14:04:45	14:10:48	361821	5.0.10.0	4_exp_AMP_EVA_AWA_CON	160	Rpleas_acq	Oppo	Rpleas	Amasked	CS_A	2pleas	distractor2	EVAbeforeCON	acq_US_unple_masked	acq3_masked	3	19	453	0	300	300	0	0	532	46	0	1	0	0	0	1	blank2r.bmp	0	1	+	0	7	C3r.bmp	492	1	blank2r.bmp	786	1	CPLW	786	1	blank2r.bmp	866	5	engstirnig	866	1	!	1292	1	!	-1	0	0	0	0	0	0	0	0	0	0	0	0	0	0	0	0	0	0	0	0	0	0	0	0	0	0	0
031119	14:04:45	14:10:50	364073	5.0.10.0	4_exp_AMP_EVA_AWA_CON	160	Rpleas_acq	Oppo	Rpleas	Amasked	CS_A	2pleas	distractor2	EVAbeforeCON	acq_US_unple_masked	acq3_masked	3	20	453	1	300	300	0	0	440	46	0	1	0	0	0	1	blank2r.bmp	0	1	+	0	4	B4r.bmp	492	1	blank2r.bmp	786	1	CPLW	786	1	blank2r.bmp	866	3	gierig	866	1	!	1292	1	!	1346	0	0	0	0	0	0	0	0	0	0	0	0	0	0	0	0	0	0	0	0	0	0	0	0	0	0	0
031119	14:04:45	14:10:53	366325	5.0.10.0	4_exp_AMP_EVA_AWA_CON	160	Rpleas_acq	Oppo	Rpleas	Amasked	CS_A	2pleas	distractor2	EVAbeforeCON	acq_US_pleas_masked	acq3_masked	3	21	453	1	300	300	0	0	453	50	0	1	0	0	0	1	blank2r.bmp	0	1	+	0	3	B3r.bmp	492	1	blank2r.bmp	786	1	DHJF	786	1	blank2r.bmp	866	1	genießen	866	1	!	1292	1	!	1359	0	0	0	0	0	0	0	0	0	0	0	0	0	0	0	0	0	0	0	0	0	0	0	0	0	0	0
031119	14:04:45	14:10:55	368365	5.0.10.0	4_exp_AMP_EVA_AWA_CON	160	Rpleas_acq	Oppo	Rpleas	Amasked	CS_A	2pleas	distractor2	EVAbeforeCON	acq_US_unple_masked	acq3_masked	3	22	453	0	300	300	0	0	266	46	0	1	0	0	0	1	blank2r.bmp	0	1	+	0	2	B2r.bmp	492	1	blank2r.bmp	786	1	CPLW	786	1	blank2r.bmp	866	2	bange	866	1	!	-1	1	!	-1	0	0	0	0	0	0	0	0	0	0	0	0	0	0	0	0	0	0	0	0	0	0	0	0	0	0	0
031119	14:04:45	14:10:57	370644	5.0.10.0	4_exp_AMP_EVA_AWA_CON	160	Rpleas_acq	Oppo	Rpleas	Amasked	CS_A	2pleas	distractor2	EVAbeforeCON	acq_US_pleas_masked	acq3_masked	3	23	453	1	300	300	0	0	475	50	0	1	0	0	0	1	blank2r.bmp	0	1	+	0	6	C2r.bmp	492	1	blank2r.bmp	786	1	DHJF	786	1	blank2r.bmp	866	4	vergnügt	866	1	!	1292	1	!	1372	0	0	0	0	0	0	0	0	0	0	0	0	0	0	0	0	0	0	0	0	0	0	0	0	0	0	0
031119	14:04:45	14:10:59	372789	5.0.10.0	4_exp_AMP_EVA_AWA_CON	160	Rpleas_acq	Oppo	Rpleas	Amasked	CS_A	2pleas	distractor2	EVAbeforeCON	acq_US_unple_masked	acq3_masked	3	24	453	0	300	300	0	0	372	46	0	1	0	0	0	1	blank2r.bmp	0	1	+	0	5	C1r.bmp	492	1	blank2r.bmp	786	1	CPLW	786	1	blank2r.bmp	866	6	töten	866	1	!	-1	1	!	-1	0	0	0	0	0	0	0	0	0	0	0	0	0	0	0	0	0	0	0	0	0	0	0	0	0	0	0
031119	14:04:45	14:11:01	375122	5.0.10.0	4_exp_AMP_EVA_AWA_CON	160	Rpleas_acq	Oppo	Rpleas	Amasked	CS_A	2pleas	distractor2	EVAbeforeCON	acq_US_pleas_masked	acq3_masked	3	25	453	0	300	300	0	0	539	50	0	1	0	0	0	1	blank2r.bmp	0	1	+	0	5	C1r.bmp	492	1	blank2r.bmp	786	1	DHJF	786	1	blank2r.bmp	866	2	besonnen	866	1	!	1292	1	!	-1	0	0	0	0	0	0	0	0	0	0	0	0	0	0	0	0	0	0	0	0	0	0	0	0	0	0	0
031119	14:04:45	14:11:04	377334	5.0.10.0	4_exp_AMP_EVA_AWA_CON	160	Rpleas_acq	Oppo	Rpleas	Amasked	CS_A	2pleas	distractor2	EVAbeforeCON	acq_US_unple_masked	acq3_masked	3	26	453	1	300	300	0	0	407	46	0	1	0	0	0	1	blank2r.bmp	0	1	+	0	1	B1r.bmp	492	1	blank2r.bmp	786	1	CPLW	786	1	blank2r.bmp	866	3	gierig	866	1	!	1292	1	!	1306	0	0	0	0	0	0	0	0	0	0	0	0	0	0	0	0	0	0	0	0	0	0	0	0	0	0	0
031119	14:04:45	14:11:06	379866	5.0.10.0	4_exp_AMP_EVA_AWA_CON	160	Rpleas_acq	Oppo	Rpleas	Amasked	CS_A	2pleas	distractor2	EVAbeforeCON	acq_US_unple_masked	acq3_masked	3	27	453	0	300	300	0	0	539	50	0	0	0	0	0	1	blank2r.bmp	0	1	+	0	3	B3r.bmp	492	1	blank2r.bmp	786	1	CPLW	786	1	blank2r.bmp	866	5	engstirnig	866	1	FEHLER	1745	1	!	1292	1	!	-1	0	0	0	0	0	0	0	0	0	0	0	0	0	0	0	0	0	0	0	0	0	0	0	0
031119	14:04:45	14:11:08	381892	5.0.10.0	4_exp_AMP_EVA_AWA_CON	160	Rpleas_acq	Oppo	Rpleas	Amasked	CS_A	2pleas	distractor2	EVAbeforeCON	acq_US_pleas_masked	acq3_masked	3	28	453	0	300	300	0	0	249	46	0	0	0	0	0	1	blank2r.bmp	0	1	+	0	8	C4r.bmp	492	1	blank2r.bmp	786	1	DHJF	786	1	blank2r.bmp	866	4	vergnügt	866	1	FEHLER	1452	1	!	-1	1	!	-1	0	0	0	0	0	0	0	0	0	0	0	0	0	0	0	0	0	0	0	0	0	0	0	0
031119	14:04:45	14:11:10	384011	5.0.10.0	4_exp_AMP_EVA_AWA_CON	160	Rpleas_acq	Oppo	Rpleas	Amasked	CS_A	2pleas	distractor2	EVAbeforeCON	acq_US_unple_masked	acq3_masked	3	29	453	0	300	300	0	0	558	46	0	1	0	0	0	1	blank2r.bmp	0	1	+	0	2	B2r.bmp	492	1	blank2r.bmp	786	1	CPLW	786	1	blank2r.bmp	866	2	bange	866	1	!	1292	1	!	-1	0	0	0	0	0	0	0	0	0	0	0	0	0	0	0	0	0	0	0	0	0	0	0	0	0	0	0
031119	14:04:45	14:11:13	386317	5.0.10.0	4_exp_AMP_EVA_AWA_CON	160	Rpleas_acq	Oppo	Rpleas	Amasked	CS_A	2pleas	distractor2	EVAbeforeCON	acq_US_pleas_masked	acq3_masked	3	30	453	1	300	300	0	0	492	50	0	1	0	0	0	1	blank2r.bmp	0	1	+	0	7	C3r.bmp	492	1	blank2r.bmp	786	1	DHJF	786	1	blank2r.bmp	866	6	träumen	866	1	!	1292	1	!	1399	0	0	0	0	0	0	0	0	0	0	0	0	0	0	0	0	0	0	0	0	0	0	0	0	0	0	0
031119	14:04:45	14:11:15	388569	5.0.10.0	4_exp_AMP_EVA_AWA_CON	160	Rpleas_acq	Oppo	Rpleas	Amasked	CS_A	2pleas	distractor2	EVAbeforeCON	acq_US_unple_masked	acq3_masked	3	31	453	1	300	300	0	0	457	46	0	1	0	0	0	1	blank2r.bmp	0	1	+	0	6	C2r.bmp	492	1	blank2r.bmp	786	1	CPLW	786	1	blank2r.bmp	866	1	gemein	866	1	!	1292	1	!	1359	0	0	0	0	0	0	0	0	0	0	0	0	0	0	0	0	0	0	0	0	0	0	0	0	0	0	0
031119	14:04:45	14:11:17	390875	5.0.10.0	4_exp_AMP_EVA_AWA_CON	160	Rpleas_acq	Oppo	Rpleas	Amasked	CS_A	2pleas	distractor2	EVAbeforeCON	acq_US_unple_masked	acq3_masked	3	32	453	1	300	300	0	0	509	46	0	1	0	0	0	1	blank2r.bmp	0	1	+	0	4	B4r.bmp	492	1	blank2r.bmp	786	1	CPLW	786	1	blank2r.bmp	866	4	verbissen	866	1	!	1292	1	!	1412	0	0	0	0	0	0	0	0	0	0	0	0	0	0	0	0	0	0	0	0	0	0	0	0	0	0	0
031119	14:04:45	14:11:19	393088	5.0.10.0	4_exp_AMP_EVA_AWA_CON	160	Rpleas_acq	Oppo	Rpleas	Amasked	CS_A	2pleas	distractor2	EVAbeforeCON	acq_US_unple_masked	acq3_masked	3	33	453	1	300	300	0	0	418	46	0	1	0	0	0	1	blank2r.bmp	0	1	+	0	1	B1r.bmp	492	1	blank2r.bmp	786	1	CPLW	786	1	blank2r.bmp	866	6	töten	866	1	!	1292	1	!	1319	0	0	0	0	0	0	0	0	0	0	0	0	0	0	0	0	0	0	0	0	0	0	0	0	0	0	0
031119	14:04:45	14:11:22	395340	5.0.10.0	4_exp_AMP_EVA_AWA_CON	160	Rpleas_acq	Oppo	Rpleas	Amasked	CS_A	2pleas	distractor2	EVAbeforeCON	acq_US_pleas_masked	acq3_masked	3	34	453	1	300	300	0	0	453	50	0	1	0	0	0	1	blank2r.bmp	0	1	+	0	4	B4r.bmp	492	1	blank2r.bmp	786	1	DHJF	786	1	blank2r.bmp	866	1	genießen	866	1	!	1292	1	!	1359	0	0	0	0	0	0	0	0	0	0	0	0	0	0	0	0	0	0	0	0	0	0	0	0	0	0	0
031119	14:04:45	14:11:24	397646	5.0.10.0	4_exp_AMP_EVA_AWA_CON	160	Rpleas_acq	Oppo	Rpleas	Amasked	CS_A	2pleas	distractor2	EVAbeforeCON	acq_US_pleas_masked	acq3_masked	3	35	453	0	300	300	0	0	532	50	0	1	0	0	0	1	blank2r.bmp	0	1	+	0	5	C1r.bmp	492	1	blank2r.bmp	786	1	DHJF	786	1	blank2r.bmp	866	5	engagiert	866	1	!	1292	1	!	-1	0	0	0	0	0	0	0	0	0	0	0	0	0	0	0	0	0	0	0	0	0	0	0	0	0	0	0
031119	14:04:45	14:11:26	399925	5.0.10.0	4_exp_AMP_EVA_AWA_CON	160	Rpleas_acq	Oppo	Rpleas	Amasked	CS_A	2pleas	distractor2	EVAbeforeCON	acq_US_pleas_masked	acq3_masked	3	36	453	1	300	300	0	0	466	50	0	1	0	0	0	1	blank2r.bmp	0	1	+	0	6	C2r.bmp	492	1	blank2r.bmp	786	1	DHJF	786	1	blank2r.bmp	866	3	gütig	866	1	!	1292	1	!	1372	0	0	0	0	0	0	0	0	0	0	0	0	0	0	0	0	0	0	0	0	0	0	0	0	0	0	0
031119	14:04:45	14:11:47	420436	5.0.10.0	4_exp_AMP_EVA_AWA_CON	160	Rpleas_acq	Oppo	Rpleas	Amasked	CS_A	2pleas	distractor2	EVAbeforeCON	acq_US_unple_masked	acq45_masked	4	1	400	0	300	300	0	0	510	46	0	1	0	0	0	1	blank2r.bmp	0	1	+	0	8	C4r.bmp	492	1	blank2r.bmp	786	1	CPLW	786	1	blank2r.bmp	866	5	engstirnig	866	1	!	1239	1	!	-1	0	0	0	0	0	0	0	0	0	0	0	0	0	0	0	0	0	0	0	0	0	0	0	0	0	0	0
031119	14:04:45	14:11:49	422702	5.0.10.0	4_exp_AMP_EVA_AWA_CON	160	Rpleas_acq	Oppo	Rpleas	Amasked	CS_A	2pleas	distractor2	EVAbeforeCON	acq_US_unple_masked	acq45_masked	4	2	400	1	300	300	0	0	455	46	0	1	0	0	0	1	blank2r.bmp	0	1	+	0	3	B3r.bmp	492	1	blank2r.bmp	786	1	CPLW	786	1	blank2r.bmp	866	1	gemein	866	1	!	1239	1	!	1359	0	0	0	0	0	0	0	0	0	0	0	0	0	0	0	0	0	0	0	0	0	0	0	0	0	0	0
031119	14:04:45	14:11:51	424914	5.0.10.0	4_exp_AMP_EVA_AWA_CON	160	Rpleas_acq	Oppo	Rpleas	Amasked	CS_A	2pleas	distractor2	EVAbeforeCON	acq_US_pleas_masked	acq45_masked	4	3	400	1	300	300	0	0	423	50	0	1	0	0	0	1	blank2r.bmp	0	1	+	0	2	B2r.bmp	492	1	blank2r.bmp	786	1	DHJF	786	1	blank2r.bmp	866	3	gütig	866	1	!	1239	1	!	1319	0	0	0	0	0	0	0	0	0	0	0	0	0	0	0	0	0	0	0	0	0	0	0	0	0	0	0
031119	14:04:45	14:11:53	427113	5.0.10.0	4_exp_AMP_EVA_AWA_CON	160	Rpleas_acq	Oppo	Rpleas	Amasked	CS_A	2pleas	distractor2	EVAbeforeCON	acq_US_pleas_masked	acq45_masked	4	4	400	1	300	300	0	0	407	46	0	0	0	0	0	1	blank2r.bmp	0	1	+	0	7	C3r.bmp	492	1	blank2r.bmp	786	1	DHJF	786	1	blank2r.bmp	866	4	vergnügt	866	1	!	1239	1	!	1306	0	0	0	0	0	0	0	0	0	0	0	0	0	0	0	0	0	0	0	0	0	0	0	0	0	0	0
031119	14:04:45	14:11:56	429312	5.0.10.0	4_exp_AMP_EVA_AWA_CON	160	Rpleas_acq	Oppo	Rpleas	Amasked	CS_A	2pleas	distractor2	EVAbeforeCON	acq_US_unple_masked	acq45_masked	4	5	400	1	300	300	0	0	408	46	0	1	0	0	0	1	blank2r.bmp	0	1	+	0	1	B1r.bmp	492	1	blank2r.bmp	786	1	CPLW	786	1	blank2r.bmp	866	2	bange	866	1	!	1239	1	!	1306	0	0	0	0	0	0	0	0	0	0	0	0	0	0	0	0	0	0	0	0	0	0	0	0	0	0	0
031119	14:04:45	14:11:58	431565	5.0.10.0	4_exp_AMP_EVA_AWA_CON	160	Rpleas_acq	Oppo	Rpleas	Amasked	CS_A	2pleas	distractor2	EVAbeforeCON	acq_US_unple_masked	acq45_masked	4	6	400	1	300	300	0	0	453	46	0	1	0	0	0	1	blank2r.bmp	0	1	+	0	5	C1r.bmp	492	1	blank2r.bmp	786	1	CPLW	786	1	blank2r.bmp	866	4	verbissen	866	1	!	1239	1	!	1359	0	0	0	0	0	0	0	0	0	0	0	0	0	0	0	0	0	0	0	0	0	0	0	0	0	0	0
031119	14:04:45	14:12:00	433777	5.0.10.0	4_exp_AMP_EVA_AWA_CON	160	Rpleas_acq	Oppo	Rpleas	Amasked	CS_A	2pleas	distractor2	EVAbeforeCON	acq_US_pleas_masked	acq45_masked	4	7	400	1	300	300	0	0	419	50	0	1	0	0	0	1	blank2r.bmp	0	1	+	0	4	B4r.bmp	492	1	blank2r.bmp	786	1	DHJF	786	1	blank2r.bmp	866	1	genießen	866	1	!	1239	1	!	1319	0	0	0	0	0	0	0	0	0	0	0	0	0	0	0	0	0	0	0	0	0	0	0	0	0	0	0
031119	14:04:45	14:12:02	436069	5.0.10.0	4_exp_AMP_EVA_AWA_CON	160	Rpleas_acq	Oppo	Rpleas	Amasked	CS_A	2pleas	distractor2	EVAbeforeCON	acq_US_pleas_masked	acq45_masked	4	8	400	0	300	300	0	0	530	50	0	1	0	0	0	1	blank2r.bmp	0	1	+	0	6	C2r.bmp	492	1	blank2r.bmp	786	1	DHJF	786	1	blank2r.bmp	866	2	besonnen	866	1	!	1239	1	!	-1	0	0	0	0	0	0	0	0	0	0	0	0	0	0	0	0	0	0	0	0	0	0	0	0	0	0	0
031119	14:04:45	14:12:04	438162	5.0.10.0	4_exp_AMP_EVA_AWA_CON	160	Rpleas_acq	Oppo	Rpleas	Amasked	CS_A	2pleas	distractor2	EVAbeforeCON	acq_US_pleas_masked	acq45_masked	4	9	400	0	300	300	0	0	306	46	0	0	0	0	0	1	blank2r.bmp	0	1	+	0	3	B3r.bmp	492	1	blank2r.bmp	786	1	DHJF	786	1	blank2r.bmp	866	6	träumen	866	1	!	-1	1	!	-1	0	0	0	0	0	0	0	0	0	0	0	0	0	0	0	0	0	0	0	0	0	0	0	0	0	0	0
031119	14:04:45	14:12:07	440454	5.0.10.0	4_exp_AMP_EVA_AWA_CON	160	Rpleas_acq	Oppo	Rpleas	Amasked	CS_A	2pleas	distractor2	EVAbeforeCON	acq_US_unple_masked	acq45_masked	4	10	400	0	300	300	0	0	517	46	0	1	0	0	0	1	blank2r.bmp	0	1	+	0	7	C3r.bmp	492	1	blank2r.bmp	786	1	CPLW	786	1	blank2r.bmp	866	3	gierig	866	1	!	1239	1	!	-1	0	0	0	0	0	0	0	0	0	0	0	0	0	0	0	0	0	0	0	0	0	0	0	0	0	0	0
031119	14:04:45	14:12:09	442720	5.0.10.0	4_exp_AMP_EVA_AWA_CON	160	Rpleas_acq	Oppo	Rpleas	Amasked	CS_A	2pleas	distractor2	EVAbeforeCON	acq_US_unple_masked	acq45_masked	4	11	400	1	300	300	0	0	463	46	0	1	0	0	0	1	blank2r.bmp	0	1	+	0	8	C4r.bmp	492	1	blank2r.bmp	786	1	CPLW	786	1	blank2r.bmp	866	6	töten	866	1	!	1239	1	!	1359	0	0	0	0	0	0	0	0	0	0	0	0	0	0	0	0	0	0	0	0	0	0	0	0	0	0	0
031119	14:04:45	14:12:11	445026	5.0.10.0	4_exp_AMP_EVA_AWA_CON	160	Rpleas_acq	Oppo	Rpleas	Amasked	CS_A	2pleas	distractor2	EVAbeforeCON	acq_US_unple_masked	acq45_masked	4	12	400	0	300	300	0	0	519	50	0	0	0	0	0	1	blank2r.bmp	0	1	+	0	2	B2r.bmp	492	1	blank2r.bmp	786	1	CPLW	786	1	blank2r.bmp	866	3	gierig	866	1	!	1239	1	!	-1	0	0	0	0	0	0	0	0	0	0	0	0	0	0	0	0	0	0	0	0	0	0	0	0	0	0	0
031119	14:04:45	14:12:14	447211	5.0.10.0	4_exp_AMP_EVA_AWA_CON	160	Rpleas_acq	Oppo	Rpleas	Amasked	CS_A	2pleas	distractor2	EVAbeforeCON	acq_US_pleas_masked	acq45_masked	4	13	400	1	300	300	0	0	374	46	0	0	0	0	0	1	blank2r.bmp	0	1	+	0	6	C2r.bmp	492	1	blank2r.bmp	786	1	DHJF	786	1	blank2r.bmp	866	5	engagiert	866	1	!	1239	1	!	1279	0	0	0	0	0	0	0	0	0	0	0	0	0	0	0	0	0	0	0	0	0	0	0	0	0	0	0
031119	14:04:45	14:12:16	449477	5.0.10.0	4_exp_AMP_EVA_AWA_CON	160	Rpleas_acq	Oppo	Rpleas	Amasked	CS_A	2pleas	distractor2	EVAbeforeCON	acq_US_pleas_masked	acq45_masked	4	14	400	0	300	300	0	0	500	50	0	1	0	0	0	1	blank2r.bmp	0	1	+	0	5	C1r.bmp	492	1	blank2r.bmp	786	1	DHJF	786	1	blank2r.bmp	866	4	vergnügt	866	1	!	1239	1	!	-1	0	0	0	0	0	0	0	0	0	0	0	0	0	0	0	0	0	0	0	0	0	0	0	0	0	0	0
031119	14:04:45	14:12:18	451770	5.0.10.0	4_exp_AMP_EVA_AWA_CON	160	Rpleas_acq	Oppo	Rpleas	Amasked	CS_A	2pleas	distractor2	EVAbeforeCON	acq_US_unple_masked	acq45_masked	4	15	400	0	300	300	0	0	503	46	0	1	0	0	0	1	blank2r.bmp	0	1	+	0	1	B1r.bmp	492	1	blank2r.bmp	786	1	CPLW	786	1	blank2r.bmp	866	1	gemein	866	1	!	1239	1	!	-1	0	0	0	0	0	0	0	0	0	0	0	0	0	0	0	0	0	0	0	0	0	0	0	0	0	0	0
031119	14:04:45	14:12:20	454049	5.0.10.0	4_exp_AMP_EVA_AWA_CON	160	Rpleas_acq	Oppo	Rpleas	Amasked	CS_A	2pleas	distractor2	EVAbeforeCON	acq_US_unple_masked	acq45_masked	4	16	400	0	300	300	0	0	499	46	0	1	0	0	0	1	blank2r.bmp	0	1	+	0	7	C3r.bmp	492	1	blank2r.bmp	786	1	CPLW	786	1	blank2r.bmp	866	4	verbissen	866	1	!	1239	1	!	-1	0	0	0	0	0	0	0	0	0	0	0	0	0	0	0	0	0	0	0	0	0	0	0	0	0	0	0
031119	14:04:45	14:12:23	456274	5.0.10.0	4_exp_AMP_EVA_AWA_CON	160	Rpleas_acq	Oppo	Rpleas	Amasked	CS_A	2pleas	distractor2	EVAbeforeCON	acq_US_pleas_masked	acq45_masked	4	17	400	1	300	300	0	0	399	50	0	1	0	0	0	1	blank2r.bmp	0	1	+	0	4	B4r.bmp	492	1	blank2r.bmp	786	1	DHJF	786	1	blank2r.bmp	866	1	genießen	866	1	!	1239	1	!	1306	0	0	0	0	0	0	0	0	0	0	0	0	0	0	0	0	0	0	0	0	0	0	0	0	0	0	0
031119	14:04:45	14:12:25	458420	5.0.10.0	4_exp_AMP_EVA_AWA_CON	160	Rpleas_acq	Oppo	Rpleas	Amasked	CS_A	2pleas	distractor2	EVAbeforeCON	acq_US_pleas_masked	acq45_masked	4	18	400	1	300	300	0	0	346	50	0	1	0	0	0	1	blank2r.bmp	0	1	+	0	3	B3r.bmp	492	1	blank2r.bmp	786	1	DHJF	786	1	blank2r.bmp	866	2	besonnen	866	1	!	1239	1	!	1252	0	0	0	0	0	0	0	0	0	0	0	0	0	0	0	0	0	0	0	0	0	0	0	0	0	0	0
031119	14:04:45	14:12:27	460499	5.0.10.0	4_exp_AMP_EVA_AWA_CON	160	Rpleas_acq	Oppo	Rpleas	Amasked	CS_A	2pleas	distractor2	EVAbeforeCON	acq_US_pleas_masked	acq45_masked	4	19	400	0	300	300	0	0	306	50	0	1	0	0	0	1	blank2r.bmp	0	1	+	0	8	C4r.bmp	492	1	blank2r.bmp	786	1	DHJF	786	1	blank2r.bmp	866	6	träumen	866	1	!	-1	1	!	-1	0	0	0	0	0	0	0	0	0	0	0	0	0	0	0	0	0	0	0	0	0	0	0	0	0	0	0
031119	14:04:45	14:12:29	462592	5.0.10.0	4_exp_AMP_EVA_AWA_CON	160	Rpleas_acq	Oppo	Rpleas	Amasked	CS_A	2pleas	distractor2	EVAbeforeCON	acq_US_unple_masked	acq45_masked	4	20	400	0	300	300	0	0	310	46	0	1	0	0	0	1	blank2r.bmp	0	1	+	0	2	B2r.bmp	492	1	blank2r.bmp	786	1	CPLW	786	1	blank2r.bmp	866	2	bange	866	1	!	-1	1	!	-1	0	0	0	0	0	0	0	0	0	0	0	0	0	0	0	0	0	0	0	0	0	0	0	0	0	0	0
031119	14:04:45	14:12:31	464911	5.0.10.0	4_exp_AMP_EVA_AWA_CON	160	Rpleas_acq	Oppo	Rpleas	Amasked	CS_A	2pleas	distractor2	EVAbeforeCON	acq_US_unple_masked	acq45_masked	4	21	400	0	300	300	0	0	542	46	0	1	0	0	0	1	blank2r.bmp	0	1	+	0	4	B4r.bmp	492	1	blank2r.bmp	786	1	CPLW	786	1	blank2r.bmp	866	5	engstirnig	866	1	!	1239	1	!	-1	0	0	0	0	0	0	0	0	0	0	0	0	0	0	0	0	0	0	0	0	0	0	0	0	0	0	0
031119	14:04:45	14:12:33	467163	5.0.10.0	4_exp_AMP_EVA_AWA_CON	160	Rpleas_acq	Oppo	Rpleas	Amasked	CS_A	2pleas	distractor2	EVAbeforeCON	acq_US_unple_masked	acq45_masked	4	22	400	1	300	300	0	0	446	46	0	1	0	0	0	1	blank2r.bmp	0	1	+	0	1	B1r.bmp	492	1	blank2r.bmp	786	1	CPLW	786	1	blank2r.bmp	866	6	töten	866	1	!	1239	1	!	1346	0	0	0	0	0	0	0	0	0	0	0	0	0	0	0	0	0	0	0	0	0	0	0	0	0	0	0
031119	14:04:45	14:12:36	469375	5.0.10.0	4_exp_AMP_EVA_AWA_CON	160	Rpleas_acq	Oppo	Rpleas	Amasked	CS_A	2pleas	distractor2	EVAbeforeCON	acq_US_unple_masked	acq45_masked	4	23	400	1	300	300	0	0	417	46	0	1	0	0	0	1	blank2r.bmp	0	1	+	0	3	B3r.bmp	492	1	blank2r.bmp	786	1	CPLW	786	1	blank2r.bmp	866	4	verbissen	866	1	!	1239	1	!	1319	0	0	0	0	0	0	0	0	0	0	0	0	0	0	0	0	0	0	0	0	0	0	0	0	0	0	0
031119	14:04:45	14:12:38	471535	5.0.10.0	4_exp_AMP_EVA_AWA_CON	160	Rpleas_acq	Oppo	Rpleas	Amasked	CS_A	2pleas	distractor2	EVAbeforeCON	acq_US_pleas_masked	acq45_masked	4	24	400	1	300	300	0	0	371	50	0	1	0	0	0	1	blank2r.bmp	0	1	+	0	6	C2r.bmp	492	1	blank2r.bmp	786	1	DHJF	786	1	blank2r.bmp	866	3	gütig	866	1	!	1239	1	!	1266	0	0	0	0	0	0	0	0	0	0	0	0	0	0	0	0	0	0	0	0	0	0	0	0	0	0	0
031119	14:04:45	14:12:40	473747	5.0.10.0	4_exp_AMP_EVA_AWA_CON	160	Rpleas_acq	Oppo	Rpleas	Amasked	CS_A	2pleas	distractor2	EVAbeforeCON	acq_US_unple_masked	acq45_masked	4	25	400	1	300	300	0	0	409	46	0	1	0	0	0	1	blank2r.bmp	0	1	+	0	7	C3r.bmp	492	1	blank2r.bmp	786	1	CPLW	786	1	blank2r.bmp	866	1	gemein	866	1	!	1239	1	!	1306	0	0	0	0	0	0	0	0	0	0	0	0	0	0	0	0	0	0	0	0	0	0	0	0	0	0	0
031119	14:04:45	14:12:42	475826	5.0.10.0	4_exp_AMP_EVA_AWA_CON	160	Rpleas_acq	Oppo	Rpleas	Amasked	CS_A	2pleas	distractor2	EVAbeforeCON	acq_US_pleas_masked	acq45_masked	4	26	400	0	300	300	0	0	312	46	0	0	0	0	0	1	blank2r.bmp	0	1	+	0	5	C1r.bmp	492	1	blank2r.bmp	786	1	DHJF	786	1	blank2r.bmp	866	5	engagiert	866	1	!	-1	1	!	-1	0	0	0	0	0	0	0	0	0	0	0	0	0	0	0	0	0	0	0	0	0	0	0	0	0	0	0
031119	14:04:45	14:12:44	478039	5.0.10.0	4_exp_AMP_EVA_AWA_CON	160	Rpleas_acq	Oppo	Rpleas	Amasked	CS_A	2pleas	distractor2	EVAbeforeCON	acq_US_pleas_masked	acq45_masked	4	27	400	1	300	300	0	0	393	50	0	1	0	0	0	1	blank2r.bmp	0	1	+	0	2	B2r.bmp	492	1	blank2r.bmp	786	1	DHJF	786	1	blank2r.bmp	866	6	träumen	866	1	!	1239	1	!	1292	0	0	0	0	0	0	0	0	0	0	0	0	0	0	0	0	0	0	0	0	0	0	0	0	0	0	0
031119	14:04:45	14:12:47	480304	5.0.10.0	4_exp_AMP_EVA_AWA_CON	160	Rpleas_acq	Oppo	Rpleas	Amasked	CS_A	2pleas	distractor2	EVAbeforeCON	acq_US_pleas_masked	acq45_masked	4	28	400	1	300	300	0	0	460	50	0	1	0	0	0	1	blank2r.bmp	0	1	+	0	8	C4r.bmp	492	1	blank2r.bmp	786	1	DHJF	786	1	blank2r.bmp	866	4	vergnügt	866	1	!	1239	1	!	1359	0	0	0	0	0	0	0	0	0	0	0	0	0	0	0	0	0	0	0	0	0	0	0	0	0	0	0
031119	14:04:45	14:12:49	482477	5.0.10.0	4_exp_AMP_EVA_AWA_CON	160	Rpleas_acq	Oppo	Rpleas	Amasked	CS_A	2pleas	distractor2	EVAbeforeCON	acq_US_unple_masked	acq45_masked	4	29	400	1	300	300	0	0	375	46	0	1	0	0	0	1	blank2r.bmp	0	1	+	0	2	B2r.bmp	492	1	blank2r.bmp	786	1	CPLW	786	1	blank2r.bmp	866	2	bange	866	1	!	1239	1	!	1279	0	0	0	0	0	0	0	0	0	0	0	0	0	0	0	0	0	0	0	0	0	0	0	0	0	0	0
031119	14:04:45	14:12:51	484729	5.0.10.0	4_exp_AMP_EVA_AWA_CON	160	Rpleas_acq	Oppo	Rpleas	Amasked	CS_A	2pleas	distractor2	EVAbeforeCON	acq_US_pleas_masked	acq45_masked	4	30	400	0	300	300	0	0	486	50	0	1	0	0	0	1	blank2r.bmp	0	1	+	0	8	C4r.bmp	492	1	blank2r.bmp	786	1	DHJF	786	1	blank2r.bmp	866	1	genießen	866	1	!	1239	1	!	-1	0	0	0	0	0	0	0	0	0	0	0	0	0	0	0	0	0	0	0	0	0	0	0	0	0	0	0
031119	14:04:45	14:12:53	486955	5.0.10.0	4_exp_AMP_EVA_AWA_CON	160	Rpleas_acq	Oppo	Rpleas	Amasked	CS_A	2pleas	distractor2	EVAbeforeCON	acq_US_pleas_masked	acq45_masked	4	31	400	1	300	300	0	0	422	50	0	1	0	0	0	1	blank2r.bmp	0	1	+	0	1	B1r.bmp	492	1	blank2r.bmp	786	1	DHJF	786	1	blank2r.bmp	866	3	gütig	866	1	!	1239	1	!	1319	0	0	0	0	0	0	0	0	0	0	0	0	0	0	0	0	0	0	0	0	0	0	0	0	0	0	0
031119	14:04:45	14:12:56	489207	5.0.10.0	4_exp_AMP_EVA_AWA_CON	160	Rpleas_acq	Oppo	Rpleas	Amasked	CS_A	2pleas	distractor2	EVAbeforeCON	acq_US_pleas_masked	acq45_masked	4	32	400	1	300	300	0	0	461	50	0	1	0	0	0	1	blank2r.bmp	0	1	+	0	6	C2r.bmp	492	1	blank2r.bmp	786	1	DHJF	786	1	blank2r.bmp	866	2	besonnen	866	1	!	1239	1	!	1359	0	0	0	0	0	0	0	0	0	0	0	0	0	0	0	0	0	0	0	0	0	0	0	0	0	0	0
031119	14:04:45	14:12:58	491353	5.0.10.0	4_exp_AMP_EVA_AWA_CON	160	Rpleas_acq	Oppo	Rpleas	Amasked	CS_A	2pleas	distractor2	EVAbeforeCON	acq_US_unple_masked	acq45_masked	4	33	400	1	300	300	0	0	346	50	0	0	0	0	0	1	blank2r.bmp	0	1	+	0	3	B3r.bmp	492	1	blank2r.bmp	786	1	CPLW	786	1	blank2r.bmp	866	5	engstirnig	866	1	!	1239	1	!	1252	0	0	0	0	0	0	0	0	0	0	0	0	0	0	0	0	0	0	0	0	0	0	0	0	0	0	0
031119	14:04:45	14:13:00	493605	5.0.10.0	4_exp_AMP_EVA_AWA_CON	160	Rpleas_acq	Oppo	Rpleas	Amasked	CS_A	2pleas	distractor2	EVAbeforeCON	acq_US_pleas_masked	acq45_masked	4	34	400	1	300	300	0	0	457	50	0	1	0	0	0	1	blank2r.bmp	0	1	+	0	4	B4r.bmp	492	1	blank2r.bmp	786	1	DHJF	786	1	blank2r.bmp	866	5	engagiert	866	1	!	1239	1	!	1359	0	0	0	0	0	0	0	0	0	0	0	0	0	0	0	0	0	0	0	0	0	0	0	0	0	0	0
031119	14:04:45	14:13:02	495884	5.0.10.0	4_exp_AMP_EVA_AWA_CON	160	Rpleas_acq	Oppo	Rpleas	Amasked	CS_A	2pleas	distractor2	EVAbeforeCON	acq_US_unple_masked	acq45_masked	4	35	400	0	300	300	0	0	505	46	0	1	0	0	0	1	blank2r.bmp	0	1	+	0	7	C3r.bmp	492	1	blank2r.bmp	786	1	CPLW	786	1	blank2r.bmp	866	6	töten	866	1	!	1239	1	!	-1	0	0	0	0	0	0	0	0	0	0	0	0	0	0	0	0	0	0	0	0	0	0	0	0	0	0	0
031119	14:04:45	14:13:04	497963	5.0.10.0	4_exp_AMP_EVA_AWA_CON	160	Rpleas_acq	Oppo	Rpleas	Amasked	CS_A	2pleas	distractor2	EVAbeforeCON	acq_US_unple_masked	acq45_masked	4	36	400	0	300	300	0	0	297	46	0	1	0	0	0	1	blank2r.bmp	0	1	+	0	5	C1r.bmp	492	1	blank2r.bmp	786	1	CPLW	786	1	blank2r.bmp	866	3	gierig	866	1	!	-1	1	!	-1	0	0	0	0	0	0	0	0	0	0	0	0	0	0	0	0	0	0	0	0	0	0	0	0	0	0	0
031119	14:04:45	14:13:16	509825	5.0.10.0	4_exp_AMP_EVA_AWA_CON	160	Rpleas_acq	Oppo	Rpleas	Amasked	CS_A	2pleas	distractor2	EVAbeforeCON	acq_US_unple_masked	acq45_masked	5	1	400	0	300	300	0	0	489	46	0	1	0	0	0	1	blank2r.bmp	0	1	+	0	6	C2r.bmp	492	1	blank2r.bmp	786	1	CPLW	786	1	blank2r.bmp	866	4	verbissen	866	1	!	1239	1	!	-1	0	0	0	0	0	0	0	0	0	0	0	0	0	0	0	0	0	0	0	0	0	0	0	0	0	0	0
031119	14:04:45	14:13:18	512024	5.0.10.0	4_exp_AMP_EVA_AWA_CON	160	Rpleas_acq	Oppo	Rpleas	Amasked	CS_A	2pleas	distractor2	EVAbeforeCON	acq_US_pleas_masked	acq45_masked	5	2	400	1	300	300	0	0	398	50	0	1	0	0	0	1	blank2r.bmp	0	1	+	0	1	B1r.bmp	492	1	blank2r.bmp	786	1	DHJF	786	1	blank2r.bmp	866	3	gütig	866	1	!	1239	1	!	1292	0	0	0	0	0	0	0	0	0	0	0	0	0	0	0	0	0	0	0	0	0	0	0	0	0	0	0
031119	14:04:45	14:13:21	514277	5.0.10.0	4_exp_AMP_EVA_AWA_CON	160	Rpleas_acq	Oppo	Rpleas	Amasked	CS_A	2pleas	distractor2	EVAbeforeCON	acq_US_unple_masked	acq45_masked	5	3	400	0	300	300	0	0	482	46	0	1	0	0	0	1	blank2r.bmp	0	1	+	0	7	C3r.bmp	492	1	blank2r.bmp	786	1	CPLW	786	1	blank2r.bmp	866	3	gierig	866	1	!	1239	1	!	-1	0	0	0	0	0	0	0	0	0	0	0	0	0	0	0	0	0	0	0	0	0	0	0	0	0	0	0
031119	14:04:45	14:13:23	516529	5.0.10.0	4_exp_AMP_EVA_AWA_CON	160	Rpleas_acq	Oppo	Rpleas	Amasked	CS_A	2pleas	distractor2	EVAbeforeCON	acq_US_unple_masked	acq45_masked	5	4	400	1	300	300	0	0	443	46	0	1	0	0	0	1	blank2r.bmp	0	1	+	0	5	C1r.bmp	492	1	blank2r.bmp	786	1	CPLW	786	1	blank2r.bmp	866	5	engstirnig	866	1	!	1239	1	!	1346	0	0	0	0	0	0	0	0	0	0	0	0	0	0	0	0	0	0	0	0	0	0	0	0	0	0	0
031119	14:04:45	14:13:25	518755	5.0.10.0	4_exp_AMP_EVA_AWA_CON	160	Rpleas_acq	Oppo	Rpleas	Amasked	CS_A	2pleas	distractor2	EVAbeforeCON	acq_US_pleas_masked	acq45_masked	5	5	400	1	300	300	0	0	436	50	0	1	0	0	0	1	blank2r.bmp	0	1	+	0	3	B3r.bmp	492	1	blank2r.bmp	786	1	DHJF	786	1	blank2r.bmp	866	2	besonnen	866	1	!	1239	1	!	1332	0	0	0	0	0	0	0	0	0	0	0	0	0	0	0	0	0	0	0	0	0	0	0	0	0	0	0
031119	14:04:45	14:13:27	521020	5.0.10.0	4_exp_AMP_EVA_AWA_CON	160	Rpleas_acq	Oppo	Rpleas	Amasked	CS_A	2pleas	distractor2	EVAbeforeCON	acq_US_pleas_masked	acq45_masked	5	6	400	1	300	300	0	0	463	50	0	1	0	0	0	1	blank2r.bmp	0	1	+	0	8	C4r.bmp	492	1	blank2r.bmp	786	1	DHJF	786	1	blank2r.bmp	866	5	engagiert	866	1	!	1239	1	!	1359	0	0	0	0	0	0	0	0	0	0	0	0	0	0	0	0	0	0	0	0	0	0	0	0	0	0	0
031119	14:04:45	14:13:29	523166	5.0.10.0	4_exp_AMP_EVA_AWA_CON	160	Rpleas_acq	Oppo	Rpleas	Amasked	CS_A	2pleas	distractor2	EVAbeforeCON	acq_US_pleas_masked	acq45_masked	5	7	400	1	300	300	0	0	346	46	0	0	0	0	0	1	blank2r.bmp	0	1	+	0	2	B2r.bmp	492	1	blank2r.bmp	786	1	DHJF	786	1	blank2r.bmp	866	1	genießen	866	1	!	1239	1	!	1252	0	0	0	0	0	0	0	0	0	0	0	0	0	0	0	0	0	0	0	0	0	0	0	0	0	0	0
031119	14:04:45	14:13:32	525232	5.0.10.0	4_exp_AMP_EVA_AWA_CON	160	Rpleas_acq	Oppo	Rpleas	Amasked	CS_A	2pleas	distractor2	EVAbeforeCON	acq_US_unple_masked	acq45_masked	5	8	400	0	300	300	0	0	300	50	0	0	0	0	0	1	blank2r.bmp	0	1	+	0	4	B4r.bmp	492	1	blank2r.bmp	786	1	CPLW	786	1	blank2r.bmp	866	1	gemein	866	1	!	-1	1	!	-1	0	0	0	0	0	0	0	0	0	0	0	0	0	0	0	0	0	0	0	0	0	0	0	0	0	0	0
031119	14:04:45	14:13:34	527524	5.0.10.0	4_exp_AMP_EVA_AWA_CON	160	Rpleas_acq	Oppo	Rpleas	Amasked	CS_A	2pleas	distractor2	EVAbeforeCON	acq_US_unple_masked	acq45_masked	5	9	400	0	300	300	0	0	492	46	0	1	0	0	0	1	blank2r.bmp	0	1	+	0	5	C1r.bmp	492	1	blank2r.bmp	786	1	CPLW	786	1	blank2r.bmp	866	6	töten	866	1	!	1239	1	!	-1	0	0	0	0	0	0	0	0	0	0	0	0	0	0	0	0	0	0	0	0	0	0	0	0	0	0	0
031119	14:04:45	14:13:36	529697	5.0.10.0	4_exp_AMP_EVA_AWA_CON	160	Rpleas_acq	Oppo	Rpleas	Amasked	CS_A	2pleas	distractor2	EVAbeforeCON	acq_US_pleas_masked	acq45_masked	5	10	400	1	300	300	0	0	347	46	0	0	0	0	0	1	blank2r.bmp	0	1	+	0	3	B3r.bmp	492	1	blank2r.bmp	786	1	DHJF	786	1	blank2r.bmp	866	4	vergnügt	866	1	!	1239	1	!	1252	0	0	0	0	0	0	0	0	0	0	0	0	0	0	0	0	0	0	0	0	0	0	0	0	0	0	0
031119	14:04:45	14:13:38	531923	5.0.10.0	4_exp_AMP_EVA_AWA_CON	160	Rpleas_acq	Oppo	Rpleas	Amasked	CS_A	2pleas	distractor2	EVAbeforeCON	acq_US_pleas_masked	acq45_masked	5	11	400	1	300	300	0	0	434	50	0	1	0	0	0	1	blank2r.bmp	0	1	+	0	2	B2r.bmp	492	1	blank2r.bmp	786	1	DHJF	786	1	blank2r.bmp	866	6	träumen	866	1	!	1239	1	!	1332	0	0	0	0	0	0	0	0	0	0	0	0	0	0	0	0	0	0	0	0	0	0	0	0	0	0	0
031119	14:04:45	14:13:41	534188	5.0.10.0	4_exp_AMP_EVA_AWA_CON	160	Rpleas_acq	Oppo	Rpleas	Amasked	CS_A	2pleas	distractor2	EVAbeforeCON	acq_US_unple_masked	acq45_masked	5	12	400	1	300	300	0	0	464	46	0	1	0	0	0	1	blank2r.bmp	0	1	+	0	8	C4r.bmp	492	1	blank2r.bmp	786	1	CPLW	786	1	blank2r.bmp	866	2	bange	866	1	!	1239	1	!	1359	0	0	0	0	0	0	0	0	0	0	0	0	0	0	0	0	0	0	0	0	0	0	0	0	0	0	0
031119	14:04:45	14:13:43	536441	5.0.10.0	4_exp_AMP_EVA_AWA_CON	160	Rpleas_acq	Oppo	Rpleas	Amasked	CS_A	2pleas	distractor2	EVAbeforeCON	acq_US_unple_masked	acq45_masked	5	13	400	0	300	300	0	0	479	46	0	1	0	0	0	1	blank2r.bmp	0	1	+	0	1	B1r.bmp	492	1	blank2r.bmp	786	1	CPLW	786	1	blank2r.bmp	866	4	verbissen	866	1	!	1239	1	!	-1	0	0	0	0	0	0	0	0	0	0	0	0	0	0	0	0	0	0	0	0	0	0	0	0	0	0	0
031119	14:04:45	14:13:45	538653	5.0.10.0	4_exp_AMP_EVA_AWA_CON	160	Rpleas_acq	Oppo	Rpleas	Amasked	CS_A	2pleas	distractor2	EVAbeforeCON	acq_US_pleas_masked	acq45_masked	5	14	400	1	300	300	0	0	406	50	0	1	0	0	0	1	blank2r.bmp	0	1	+	0	7	C3r.bmp	492	1	blank2r.bmp	786	1	DHJF	786	1	blank2r.bmp	866	3	gütig	866	1	!	1239	1	!	1306	0	0	0	0	0	0	0	0	0	0	0	0	0	0	0	0	0	0	0	0	0	0	0	0	0	0	0
031119	14:04:45	14:13:47	540905	5.0.10.0	4_exp_AMP_EVA_AWA_CON	160	Rpleas_acq	Oppo	Rpleas	Amasked	CS_A	2pleas	distractor2	EVAbeforeCON	acq_US_unple_masked	acq45_masked	5	15	400	1	300	300	0	0	452	46	0	1	0	0	0	1	blank2r.bmp	0	1	+	0	6	C2r.bmp	492	1	blank2r.bmp	786	1	CPLW	786	1	blank2r.bmp	866	1	gemein	866	1	!	1239	1	!	1359	0	0	0	0	0	0	0	0	0	0	0	0	0	0	0	0	0	0	0	0	0	0	0	0	0	0	0
031119	14:04:45	14:13:49	543131	5.0.10.0	4_exp_AMP_EVA_AWA_CON	160	Rpleas_acq	Oppo	Rpleas	Amasked	CS_A	2pleas	distractor2	EVAbeforeCON	acq_US_pleas_masked	acq45_masked	5	16	400	1	300	300	0	0	435	50	0	1	0	0	0	1	blank2r.bmp	0	1	+	0	4	B4r.bmp	492	1	blank2r.bmp	786	1	DHJF	786	1	blank2r.bmp	866	5	engagiert	866	1	!	1239	1	!	1332	0	0	0	0	0	0	0	0	0	0	0	0	0	0	0	0	0	0	0	0	0	0	0	0	0	0	0
031119	14:04:45	14:13:52	545344	5.0.10.0	4_exp_AMP_EVA_AWA_CON	160	Rpleas_acq	Oppo	Rpleas	Amasked	CS_A	2pleas	distractor2	EVAbeforeCON	acq_US_pleas_masked	acq45_masked	5	17	400	1	300	300	0	0	418	50	0	1	0	0	0	1	blank2r.bmp	0	1	+	0	1	B1r.bmp	492	1	blank2r.bmp	786	1	DHJF	786	1	blank2r.bmp	866	6	träumen	866	1	!	1239	1	!	1319	0	0	0	0	0	0	0	0	0	0	0	0	0	0	0	0	0	0	0	0	0	0	0	0	0	0	0
031119	14:04:45	14:13:54	547609	5.0.10.0	4_exp_AMP_EVA_AWA_CON	160	Rpleas_acq	Oppo	Rpleas	Amasked	CS_A	2pleas	distractor2	EVAbeforeCON	acq_US_unple_masked	acq45_masked	5	18	400	0	300	300	0	0	499	46	0	1	0	0	0	1	blank2r.bmp	0	1	+	0	4	B4r.bmp	492	1	blank2r.bmp	786	1	CPLW	786	1	blank2r.bmp	866	3	gierig	866	1	!	1239	1	!	-1	0	0	0	0	0	0	0	0	0	0	0	0	0	0	0	0	0	0	0	0	0	0	0	0	0	0	0
031119	14:04:45	14:13:56	549902	5.0.10.0	4_exp_AMP_EVA_AWA_CON	160	Rpleas_acq	Oppo	Rpleas	Amasked	CS_A	2pleas	distractor2	EVAbeforeCON	acq_US_pleas_masked	acq45_masked	5	19	400	0	300	300	0	0	512	50	0	1	0	0	0	1	blank2r.bmp	0	1	+	0	7	C3r.bmp	492	1	blank2r.bmp	786	1	DHJF	786	1	blank2r.bmp	866	2	besonnen	866	1	!	1239	1	!	-1	0	0	0	0	0	0	0	0	0	0	0	0	0	0	0	0	0	0	0	0	0	0	0	0	0	0	0
031119	14:04:45	14:13:58	551994	5.0.10.0	4_exp_AMP_EVA_AWA_CON	160	Rpleas_acq	Oppo	Rpleas	Amasked	CS_A	2pleas	distractor2	EVAbeforeCON	acq_US_pleas_masked	acq45_masked	5	20	400	0	300	300	0	0	305	50	0	1	0	0	0	1	blank2r.bmp	0	1	+	0	5	C1r.bmp	492	1	blank2r.bmp	786	1	DHJF	786	1	blank2r.bmp	866	1	genießen	866	1	!	-1	1	!	-1	0	0	0	0	0	0	0	0	0	0	0	0	0	0	0	0	0	0	0	0	0	0	0	0	0	0	0
031119	14:04:45	14:14:01	554193	5.0.10.0	4_exp_AMP_EVA_AWA_CON	160	Rpleas_acq	Oppo	Rpleas	Amasked	CS_A	2pleas	distractor2	EVAbeforeCON	acq_US_unple_masked	acq45_masked	5	21	400	1	300	300	0	0	390	46	0	1	0	0	0	1	blank2r.bmp	0	1	+	0	3	B3r.bmp	492	1	blank2r.bmp	786	1	CPLW	786	1	blank2r.bmp	866	2	bange	866	1	!	1239	1	!	1292	0	0	0	0	0	0	0	0	0	0	0	0	0	0	0	0	0	0	0	0	0	0	0	0	0	0	0
031119	14:04:45	14:14:03	556392	5.0.10.0	4_exp_AMP_EVA_AWA_CON	160	Rpleas_acq	Oppo	Rpleas	Amasked	CS_A	2pleas	distractor2	EVAbeforeCON	acq_US_unple_masked	acq45_masked	5	22	400	1	300	300	0	0	402	46	0	1	0	0	0	1	blank2r.bmp	0	1	+	0	2	B2r.bmp	492	1	blank2r.bmp	786	1	CPLW	786	1	blank2r.bmp	866	5	engstirnig	866	1	!	1239	1	!	1306	0	0	0	0	0	0	0	0	0	0	0	0	0	0	0	0	0	0	0	0	0	0	0	0	0	0	0
031119	14:04:45	14:14:05	558618	5.0.10.0	4_exp_AMP_EVA_AWA_CON	160	Rpleas_acq	Oppo	Rpleas	Amasked	CS_A	2pleas	distractor2	EVAbeforeCON	acq_US_unple_masked	acq45_masked	5	23	400	1	300	300	0	0	437	46	0	1	0	0	0	1	blank2r.bmp	0	1	+	0	6	C2r.bmp	492	1	blank2r.bmp	786	1	CPLW	786	1	blank2r.bmp	866	6	töten	866	1	!	1239	1	!	1332	0	0	0	0	0	0	0	0	0	0	0	0	0	0	0	0	0	0	0	0	0	0	0	0	0	0	0
031119	14:04:45	14:14:07	560870	5.0.10.0	4_exp_AMP_EVA_AWA_CON	160	Rpleas_acq	Oppo	Rpleas	Amasked	CS_A	2pleas	distractor2	EVAbeforeCON	acq_US_pleas_masked	acq45_masked	5	24	400	1	300	300	0	0	454	50	0	1	0	0	0	1	blank2r.bmp	0	1	+	0	8	C4r.bmp	492	1	blank2r.bmp	786	1	DHJF	786	1	blank2r.bmp	866	4	vergnügt	866	1	!	1239	1	!	1359	0	0	0	0	0	0	0	0	0	0	0	0	0	0	0	0	0	0	0	0	0	0	0	0	0	0	0
031119	14:04:45	14:14:09	563123	5.0.10.0	4_exp_AMP_EVA_AWA_CON	160	Rpleas_acq	Oppo	Rpleas	Amasked	CS_A	2pleas	distractor2	EVAbeforeCON	acq_US_unple_masked	acq45_masked	5	25	400	0	300	300	0	0	479	46	0	1	0	0	0	1	blank2r.bmp	0	1	+	0	6	C2r.bmp	492	1	blank2r.bmp	786	1	CPLW	786	1	blank2r.bmp	866	1	gemein	866	1	!	1239	1	!	-1	0	0	0	0	0	0	0	0	0	0	0	0	0	0	0	0	0	0	0	0	0	0	0	0	0	0	0
031119	14:04:45	14:14:12	565402	5.0.10.0	4_exp_AMP_EVA_AWA_CON	160	Rpleas_acq	Oppo	Rpleas	Amasked	CS_A	2pleas	distractor2	EVAbeforeCON	acq_US_unple_masked	acq45_masked	5	26	400	1	300	300	0	0	461	46	0	1	0	0	0	1	blank2r.bmp	0	1	+	0	7	C3r.bmp	492	1	blank2r.bmp	786	1	CPLW	786	1	blank2r.bmp	866	4	verbissen	866	1	!	1239	1	!	1359	0	0	0	0	0	0	0	0	0	0	0	0	0	0	0	0	0	0	0	0	0	0	0	0	0	0	0
031119	14:04:45	14:14:14	567454	5.0.10.0	4_exp_AMP_EVA_AWA_CON	160	Rpleas_acq	Oppo	Rpleas	Amasked	CS_A	2pleas	distractor2	EVAbeforeCON	acq_US_pleas_masked	acq45_masked	5	27	400	0	300	300	0	0	290	46	0	0	0	0	0	1	blank2r.bmp	0	1	+	0	5	C1r.bmp	492	1	blank2r.bmp	786	1	DHJF	786	1	blank2r.bmp	866	4	vergnügt	866	1	!	-1	1	!	-1	0	0	0	0	0	0	0	0	0	0	0	0	0	0	0	0	0	0	0	0	0	0	0	0	0	0	0
031119	14:04:45	14:14:16	569627	5.0.10.0	4_exp_AMP_EVA_AWA_CON	160	Rpleas_acq	Oppo	Rpleas	Amasked	CS_A	2pleas	distractor2	EVAbeforeCON	acq_US_unple_masked	acq45_masked	5	28	400	1	300	300	0	0	370	46	0	1	0	0	0	1	blank2r.bmp	0	1	+	0	2	B2r.bmp	492	1	blank2r.bmp	786	1	CPLW	786	1	blank2r.bmp	866	6	töten	866	1	!	1239	1	!	1266	0	0	0	0	0	0	0	0	0	0	0	0	0	0	0	0	0	0	0	0	0	0	0	0	0	0	0
031119	14:04:45	14:14:18	571879	5.0.10.0	4_exp_AMP_EVA_AWA_CON	160	Rpleas_acq	Oppo	Rpleas	Amasked	CS_A	2pleas	distractor2	EVAbeforeCON	acq_US_pleas_masked	acq45_masked	5	29	400	1	300	300	0	0	449	50	0	1	0	0	0	1	blank2r.bmp	0	1	+	0	8	C4r.bmp	492	1	blank2r.bmp	786	1	DHJF	786	1	blank2r.bmp	866	6	träumen	866	1	!	1239	1	!	1346	0	0	0	0	0	0	0	0	0	0	0	0	0	0	0	0	0	0	0	0	0	0	0	0	0	0	0
031119	14:04:45	14:14:21	574171	5.0.10.0	4_exp_AMP_EVA_AWA_CON	160	Rpleas_acq	Oppo	Rpleas	Amasked	CS_A	2pleas	distractor2	EVAbeforeCON	acq_US_unple_masked	acq45_masked	5	30	400	0	300	300	0	0	520	46	0	1	0	0	0	1	blank2r.bmp	0	1	+	0	4	B4r.bmp	492	1	blank2r.bmp	786	1	CPLW	786	1	blank2r.bmp	866	5	engstirnig	866	1	!	1239	1	!	-1	0	0	0	0	0	0	0	0	0	0	0	0	0	0	0	0	0	0	0	0	0	0	0	0	0	0	0
031119	14:04:45	14:14:23	576464	5.0.10.0	4_exp_AMP_EVA_AWA_CON	160	Rpleas_acq	Oppo	Rpleas	Amasked	CS_A	2pleas	distractor2	EVAbeforeCON	acq_US_pleas_masked	acq45_masked	5	31	400	0	300	300	0	0	507	50	0	1	0	0	0	1	blank2r.bmp	0	1	+	0	1	B1r.bmp	492	1	blank2r.bmp	786	1	DHJF	786	1	blank2r.bmp	866	5	engagiert	866	1	!	1239	1	!	-1	0	0	0	0	0	0	0	0	0	0	0	0	0	0	0	0	0	0	0	0	0	0	0	0	0	0	0
031119	14:04:45	14:14:25	578623	5.0.10.0	4_exp_AMP_EVA_AWA_CON	160	Rpleas_acq	Oppo	Rpleas	Amasked	CS_A	2pleas	distractor2	EVAbeforeCON	acq_US_unple_masked	acq45_masked	5	32	400	1	300	300	0	0	346	46	0	1	0	0	0	1	blank2r.bmp	0	1	+	0	3	B3r.bmp	492	1	blank2r.bmp	786	1	CPLW	786	1	blank2r.bmp	866	3	gierig	866	1	!	1239	1	!	1252	0	0	0	0	0	0	0	0	0	0	0	0	0	0	0	0	0	0	0	0	0	0	0	0	0	0	0
031119	14:04:45	14:14:27	580675	5.0.10.0	4_exp_AMP_EVA_AWA_CON	160	Rpleas_acq	Oppo	Rpleas	Amasked	CS_A	2pleas	distractor2	EVAbeforeCON	acq_US_pleas_masked	acq45_masked	5	33	400	0	300	300	0	0	283	46	0	0	0	0	0	1	blank2r.bmp	0	1	+	0	6	C2r.bmp	492	1	blank2r.bmp	786	1	DHJF	786	1	blank2r.bmp	866	1	genießen	866	1	!	-1	1	!	-1	0	0	0	0	0	0	0	0	0	0	0	0	0	0	0	0	0	0	0	0	0	0	0	0	0	0	0
031119	14:04:45	14:14:29	582675	5.0.10.0	4_exp_AMP_EVA_AWA_CON	160	Rpleas_acq	Oppo	Rpleas	Amasked	CS_A	2pleas	distractor2	EVAbeforeCON	acq_US_pleas_masked	acq45_masked	5	34	400	0	300	300	0	0	214	46	0	0	0	0	0	1	blank2r.bmp	0	1	+	0	1	B1r.bmp	492	1	blank2r.bmp	786	1	DHJF	786	1	blank2r.bmp	866	3	gütig	866	1	!	-1	1	!	-1	0	0	0	0	0	0	0	0	0	0	0	0	0	0	0	0	0	0	0	0	0	0	0	0	0	0	0
031119	14:04:45	14:14:31	584887	5.0.10.0	4_exp_AMP_EVA_AWA_CON	160	Rpleas_acq	Oppo	Rpleas	Amasked	CS_A	2pleas	distractor2	EVAbeforeCON	acq_US_pleas_masked	acq45_masked	5	35	400	1	300	300	0	0	410	50	0	1	0	0	0	1	blank2r.bmp	0	1	+	0	3	B3r.bmp	492	1	blank2r.bmp	786	1	DHJF	786	1	blank2r.bmp	866	2	besonnen	866	1	!	1239	1	!	1306	0	0	0	0	0	0	0	0	0	0	0	0	0	0	0	0	0	0	0	0	0	0	0	0	0	0	0
031119	14:04:45	14:14:33	587073	5.0.10.0	4_exp_AMP_EVA_AWA_CON	160	Rpleas_acq	Oppo	Rpleas	Amasked	CS_A	2pleas	distractor2	EVAbeforeCON	acq_US_unple_masked	acq45_masked	5	36	400	1	300	300	0	0	391	46	0	1	0	0	0	1	blank2r.bmp	0	1	+	0	5	C1r.bmp	492	1	blank2r.bmp	786	1	CPLW	786	1	blank2r.bmp	866	2	bange	866	1	!	1239	1	!	1292	0	0	0	0	0	0	0	0	0	0	0	0	0	0	0	0	0	0	0	0	0	0	0	0	0	0	0
031119	14:04:45	14:15:24	637532	5.0.10.0	4_exp_AMP_EVA_AWA_CON	160	Rpleas_acq	Oppo	Lpleas	Amasked	CS_A	2pleas	distractor2	EVAbeforeCON	AMP_CSunple	AMP1_masked	6	1	0	0	300	300	0	0	4789	50	0	1	0	0	0	1	blank2r.bmp	0	1	CPLW	0	1	blank2r.bmp	79	133	pic133.bmp	199	1	whitenoise_No3.bmp	306	0	0	0	0	0	0	0	0	0	0	0	0	0	0	0	0	0	0	0	0	0	0	0	0	0	0	0	0	0	0	0	0	0	0	0	0	0	0	0
031119	14:04:45	14:15:27	640464	5.0.10.0	4_exp_AMP_EVA_AWA_CON	160	Rpleas_acq	Oppo	Lpleas	Amasked	CS_A	2pleas	distractor2	EVAbeforeCON	AMP_CSpleas	AMP1_masked	6	2	0	0	300	300	0	0	1998	50	0	0	0	0	0	1	blank2r.bmp	0	1	DHJF	0	1	blank2r.bmp	79	127	pic127.bmp	199	1	whitenoise_No3.bmp	306	0	0	0	0	0	0	0	0	0	0	0	0	0	0	0	0	0	0	0	0	0	0	0	0	0	0	0	0	0	0	0	0	0	0	0	0	0	0	0
031119	14:04:45	14:15:29	642556	5.0.10.0	4_exp_AMP_EVA_AWA_CON	160	Rpleas_acq	Oppo	Lpleas	Amasked	CS_A	2pleas	distractor2	EVAbeforeCON	AMP_distractor	AMP1_masked	6	3	0	0	300	300	0	0	1183	46	0	0	0	0	0	1	blank2r.bmp	0	1	QYSB	0	1	blank2r.bmp	79	124	pic124.bmp	199	1	whitenoise_No3.bmp	306	0	0	0	0	0	0	0	0	0	0	0	0	0	0	0	0	0	0	0	0	0	0	0	0	0	0	0	0	0	0	0	0	0	0	0	0	0	0	0
031119	14:04:45	14:15:32	645901	5.0.10.0	4_exp_AMP_EVA_AWA_CON	160	Rpleas_acq	Oppo	Lpleas	Amasked	CS_A	2pleas	distractor2	EVAbeforeCON	AMP_distractor	AMP1_masked	6	4	0	0	300	300	0	0	2421	46	0	0	0	0	0	1	blank2r.bmp	0	1	QYSB	0	1	blank2r.bmp	79	67	pic67.bmp	199	1	whitenoise_No3.bmp	306	0	0	0	0	0	0	0	0	0	0	0	0	0	0	0	0	0	0	0	0	0	0	0	0	0	0	0	0	0	0	0	0	0	0	0	0	0	0	0
031119	14:04:45	14:15:34	648034	5.0.10.0	4_exp_AMP_EVA_AWA_CON	160	Rpleas_acq	Oppo	Lpleas	Amasked	CS_A	2pleas	distractor2	EVAbeforeCON	AMP_CSunple	AMP1_masked	6	5	0	0	300	300	0	0	1202	50	0	1	0	0	0	1	blank2r.bmp	0	1	CPLW	0	1	blank2r.bmp	79	119	pic119.bmp	199	1	whitenoise_No3.bmp	306	0	0	0	0	0	0	0	0	0	0	0	0	0	0	0	0	0	0	0	0	0	0	0	0	0	0	0	0	0	0	0	0	0	0	0	0	0	0	0
031119	14:04:45	14:15:36	649793	5.0.10.0	4_exp_AMP_EVA_AWA_CON	160	Rpleas_acq	Oppo	Lpleas	Amasked	CS_A	2pleas	distractor2	EVAbeforeCON	AMP_distractor	AMP1_masked	6	6	0	0	300	300	0	0	839	46	0	0	0	0	0	1	blank2r.bmp	0	1	QYSB	0	1	blank2r.bmp	79	50	pic50.bmp	199	1	whitenoise_No3.bmp	306	0	0	0	0	0	0	0	0	0	0	0	0	0	0	0	0	0	0	0	0	0	0	0	0	0	0	0	0	0	0	0	0	0	0	0	0	0	0	0
031119	14:04:45	14:15:38	651419	5.0.10.0	4_exp_AMP_EVA_AWA_CON	160	Rpleas_acq	Oppo	Lpleas	Amasked	CS_A	2pleas	distractor2	EVAbeforeCON	AMP_CSunple	AMP1_masked	6	7	0	0	300	300	0	0	714	46	0	0	0	0	0	1	blank2r.bmp	0	1	CPLW	0	1	blank2r.bmp	79	83	pic83.bmp	199	1	whitenoise_No3.bmp	306	0	0	0	0	0	0	0	0	0	0	0	0	0	0	0	0	0	0	0	0	0	0	0	0	0	0	0	0	0	0	0	0	0	0	0	0	0	0	0
031119	14:04:45	14:15:40	653525	5.0.10.0	4_exp_AMP_EVA_AWA_CON	160	Rpleas_acq	Oppo	Lpleas	Amasked	CS_A	2pleas	distractor2	EVAbeforeCON	AMP_CSpleas	AMP1_masked	6	8	0	0	300	300	0	0	1192	46	0	1	0	0	0	1	blank2r.bmp	0	1	DHJF	0	1	blank2r.bmp	79	43	pic43.bmp	199	1	whitenoise_No3.bmp	306	0	0	0	0	0	0	0	0	0	0	0	0	0	0	0	0	0	0	0	0	0	0	0	0	0	0	0	0	0	0	0	0	0	0	0	0	0	0	0
031119	14:04:45	14:15:41	655111	5.0.10.0	4_exp_AMP_EVA_AWA_CON	160	Rpleas_acq	Oppo	Lpleas	Amasked	CS_A	2pleas	distractor2	EVAbeforeCON	AMP_distractor	AMP1_masked	6	9	0	0	300	300	0	0	667	46	0	0	0	0	0	1	blank2r.bmp	0	1	QYSB	0	1	blank2r.bmp	79	26	pic26.bmp	199	1	whitenoise_No3.bmp	306	0	0	0	0	0	0	0	0	0	0	0	0	0	0	0	0	0	0	0	0	0	0	0	0	0	0	0	0	0	0	0	0	0	0	0	0	0	0	0
031119	14:04:45	14:15:43	656857	5.0.10.0	4_exp_AMP_EVA_AWA_CON	160	Rpleas_acq	Oppo	Lpleas	Amasked	CS_A	2pleas	distractor2	EVAbeforeCON	AMP_distractor	AMP1_masked	6	10	0	0	300	300	0	0	822	46	0	0	0	0	0	1	blank2r.bmp	0	1	QYSB	0	1	blank2r.bmp	79	51	pic51.bmp	199	1	whitenoise_No3.bmp	306	0	0	0	0	0	0	0	0	0	0	0	0	0	0	0	0	0	0	0	0	0	0	0	0	0	0	0	0	0	0	0	0	0	0	0	0	0	0	0
031119	14:04:45	14:15:45	658683	5.0.10.0	4_exp_AMP_EVA_AWA_CON	160	Rpleas_acq	Oppo	Lpleas	Amasked	CS_A	2pleas	distractor2	EVAbeforeCON	AMP_distractor	AMP1_masked	6	11	0	0	300	300	0	0	892	46	0	0	0	0	0	1	blank2r.bmp	0	1	QYSB	0	1	blank2r.bmp	79	21	pic21.bmp	199	1	whitenoise_No3.bmp	306	0	0	0	0	0	0	0	0	0	0	0	0	0	0	0	0	0	0	0	0	0	0	0	0	0	0	0	0	0	0	0	0	0	0	0	0	0	0	0
031119	14:04:45	14:15:46	660135	5.0.10.0	4_exp_AMP_EVA_AWA_CON	160	Rpleas_acq	Oppo	Lpleas	Amasked	CS_A	2pleas	distractor2	EVAbeforeCON	AMP_CSpleas	AMP1_masked	6	12	0	0	300	300	0	0	539	46	0	1	0	0	0	1	blank2r.bmp	0	1	DHJF	0	1	blank2r.bmp	79	148	pic148.bmp	199	1	whitenoise_No3.bmp	306	0	0	0	0	0	0	0	0	0	0	0	0	0	0	0	0	0	0	0	0	0	0	0	0	0	0	0	0	0	0	0	0	0	0	0	0	0	0	0
031119	14:04:45	14:15:48	661628	5.0.10.0	4_exp_AMP_EVA_AWA_CON	160	Rpleas_acq	Oppo	Lpleas	Amasked	CS_A	2pleas	distractor2	EVAbeforeCON	AMP_distractor	AMP1_masked	6	13	0	0	300	300	0	0	564	46	0	0	0	0	0	1	blank2r.bmp	0	1	QYSB	0	1	blank2r.bmp	79	135	pic135.bmp	199	1	whitenoise_No3.bmp	306	0	0	0	0	0	0	0	0	0	0	0	0	0	0	0	0	0	0	0	0	0	0	0	0	0	0	0	0	0	0	0	0	0	0	0	0	0	0	0
031119	14:04:45	14:15:50	663601	5.0.10.0	4_exp_AMP_EVA_AWA_CON	160	Rpleas_acq	Oppo	Lpleas	Amasked	CS_A	2pleas	distractor2	EVAbeforeCON	AMP_CSpleas	AMP1_masked	6	14	0	0	300	300	0	0	1041	50	0	0	0	0	0	1	blank2r.bmp	0	1	DHJF	0	1	blank2r.bmp	79	144	pic144.bmp	199	1	whitenoise_No3.bmp	306	0	0	0	0	0	0	0	0	0	0	0	0	0	0	0	0	0	0	0	0	0	0	0	0	0	0	0	0	0	0	0	0	0	0	0	0	0	0	0
031119	14:04:45	14:15:52	665267	5.0.10.0	4_exp_AMP_EVA_AWA_CON	160	Rpleas_acq	Oppo	Lpleas	Amasked	CS_A	2pleas	distractor2	EVAbeforeCON	AMP_CSunple	AMP1_masked	6	15	0	0	300	300	0	0	741	50	0	1	0	0	0	1	blank2r.bmp	0	1	CPLW	0	1	blank2r.bmp	79	99	pic99.bmp	199	1	whitenoise_No3.bmp	306	0	0	0	0	0	0	0	0	0	0	0	0	0	0	0	0	0	0	0	0	0	0	0	0	0	0	0	0	0	0	0	0	0	0	0	0	0	0	0
031119	14:04:45	14:15:54	667626	5.0.10.0	4_exp_AMP_EVA_AWA_CON	160	Rpleas_acq	Oppo	Lpleas	Amasked	CS_A	2pleas	distractor2	EVAbeforeCON	AMP_distractor	AMP1_masked	6	16	0	0	300	300	0	0	1437	50	0	0	0	0	0	1	blank2r.bmp	0	1	QYSB	0	1	blank2r.bmp	79	6	pic6.bmp	199	1	whitenoise_No3.bmp	306	0	0	0	0	0	0	0	0	0	0	0	0	0	0	0	0	0	0	0	0	0	0	0	0	0	0	0	0	0	0	0	0	0	0	0	0	0	0	0
031119	14:04:45	14:15:56	669332	5.0.10.0	4_exp_AMP_EVA_AWA_CON	160	Rpleas_acq	Oppo	Lpleas	Amasked	CS_A	2pleas	distractor2	EVAbeforeCON	AMP_distractor	AMP1_masked	6	17	0	0	300	300	0	0	775	50	0	0	0	0	0	1	blank2r.bmp	0	1	QYSB	0	1	blank2r.bmp	79	147	pic147.bmp	199	1	whitenoise_No3.bmp	306	0	0	0	0	0	0	0	0	0	0	0	0	0	0	0	0	0	0	0	0	0	0	0	0	0	0	0	0	0	0	0	0	0	0	0	0	0	0	0
031119	14:04:45	14:15:57	670811	5.0.10.0	4_exp_AMP_EVA_AWA_CON	160	Rpleas_acq	Oppo	Lpleas	Amasked	CS_A	2pleas	distractor2	EVAbeforeCON	AMP_CSunple	AMP1_masked	6	18	0	0	300	300	0	0	570	50	0	1	0	0	0	1	blank2r.bmp	0	1	CPLW	0	1	blank2r.bmp	79	138	pic138.bmp	199	1	whitenoise_No3.bmp	306	0	0	0	0	0	0	0	0	0	0	0	0	0	0	0	0	0	0	0	0	0	0	0	0	0	0	0	0	0	0	0	0	0	0	0	0	0	0	0
031119	14:04:45	14:15:59	672717	5.0.10.0	4_exp_AMP_EVA_AWA_CON	160	Rpleas_acq	Oppo	Lpleas	Amasked	CS_A	2pleas	distractor2	EVAbeforeCON	AMP_CSunple	AMP1_masked	6	19	0	0	300	300	0	0	968	46	0	0	0	0	0	1	blank2r.bmp	0	1	CPLW	0	1	blank2r.bmp	79	89	pic89.bmp	199	1	whitenoise_No3.bmp	306	0	0	0	0	0	0	0	0	0	0	0	0	0	0	0	0	0	0	0	0	0	0	0	0	0	0	0	0	0	0	0	0	0	0	0	0	0	0	0
031119	14:04:45	14:16:01	674796	5.0.10.0	4_exp_AMP_EVA_AWA_CON	160	Rpleas_acq	Oppo	Lpleas	Amasked	CS_A	2pleas	distractor2	EVAbeforeCON	AMP_CSunple	AMP1_masked	6	20	0	0	300	300	0	0	1155	46	0	0	0	0	0	1	blank2r.bmp	0	1	CPLW	0	1	blank2r.bmp	79	73	pic73.bmp	199	1	whitenoise_No3.bmp	306	0	0	0	0	0	0	0	0	0	0	0	0	0	0	0	0	0	0	0	0	0	0	0	0	0	0	0	0	0	0	0	0	0	0	0	0	0	0	0
031119	14:04:45	14:16:03	676608	5.0.10.0	4_exp_AMP_EVA_AWA_CON	160	Rpleas_acq	Oppo	Lpleas	Amasked	CS_A	2pleas	distractor2	EVAbeforeCON	AMP_CSunple	AMP1_masked	6	21	0	0	300	300	0	0	882	50	0	1	0	0	0	1	blank2r.bmp	0	1	CPLW	0	1	blank2r.bmp	79	120	pic120.bmp	199	1	whitenoise_No3.bmp	306	0	0	0	0	0	0	0	0	0	0	0	0	0	0	0	0	0	0	0	0	0	0	0	0	0	0	0	0	0	0	0	0	0	0	0	0	0	0	0
031119	14:04:45	14:16:05	678341	5.0.10.0	4_exp_AMP_EVA_AWA_CON	160	Rpleas_acq	Oppo	Lpleas	Amasked	CS_A	2pleas	distractor2	EVAbeforeCON	AMP_CSunple	AMP1_masked	6	22	0	0	300	300	0	0	803	50	0	1	0	0	0	1	blank2r.bmp	0	1	CPLW	0	1	blank2r.bmp	79	107	pic107.bmp	199	1	whitenoise_No3.bmp	306	0	0	0	0	0	0	0	0	0	0	0	0	0	0	0	0	0	0	0	0	0	0	0	0	0	0	0	0	0	0	0	0	0	0	0	0	0	0	0
031119	14:04:45	14:16:06	679900	5.0.10.0	4_exp_AMP_EVA_AWA_CON	160	Rpleas_acq	Oppo	Lpleas	Amasked	CS_A	2pleas	distractor2	EVAbeforeCON	AMP_CSpleas	AMP1_masked	6	23	0	0	300	300	0	0	627	50	0	0	0	0	0	1	blank2r.bmp	0	1	DHJF	0	1	blank2r.bmp	79	126	pic126.bmp	199	1	whitenoise_No3.bmp	306	0	0	0	0	0	0	0	0	0	0	0	0	0	0	0	0	0	0	0	0	0	0	0	0	0	0	0	0	0	0	0	0	0	0	0	0	0	0	0
031119	14:04:45	14:16:08	681473	5.0.10.0	4_exp_AMP_EVA_AWA_CON	160	Rpleas_acq	Oppo	Lpleas	Amasked	CS_A	2pleas	distractor2	EVAbeforeCON	AMP_CSpleas	AMP1_masked	6	24	0	0	300	300	0	0	642	46	0	1	0	0	0	1	blank2r.bmp	0	1	DHJF	0	1	blank2r.bmp	79	66	pic66.bmp	199	1	whitenoise_No3.bmp	306	0	0	0	0	0	0	0	0	0	0	0	0	0	0	0	0	0	0	0	0	0	0	0	0	0	0	0	0	0	0	0	0	0	0	0	0	0	0	0
031119	14:04:45	14:16:09	683086	5.0.10.0	4_exp_AMP_EVA_AWA_CON	160	Rpleas_acq	Oppo	Lpleas	Amasked	CS_A	2pleas	distractor2	EVAbeforeCON	AMP_distractor	AMP1_masked	6	25	0	0	300	300	0	0	698	46	0	0	0	0	0	1	blank2r.bmp	0	1	QYSB	0	1	blank2r.bmp	79	115	pic115.bmp	199	1	whitenoise_No3.bmp	306	0	0	0	0	0	0	0	0	0	0	0	0	0	0	0	0	0	0	0	0	0	0	0	0	0	0	0	0	0	0	0	0	0	0	0	0	0	0	0
031119	14:04:45	14:16:12	685365	5.0.10.0	4_exp_AMP_EVA_AWA_CON	160	Rpleas_acq	Oppo	Lpleas	Amasked	CS_A	2pleas	distractor2	EVAbeforeCON	AMP_CSunple	AMP1_masked	6	26	0	0	300	300	0	0	1350	50	0	1	0	0	0	1	blank2r.bmp	0	1	CPLW	0	1	blank2r.bmp	79	78	pic78.bmp	199	1	whitenoise_No3.bmp	306	0	0	0	0	0	0	0	0	0	0	0	0	0	0	0	0	0	0	0	0	0	0	0	0	0	0	0	0	0	0	0	0	0	0	0	0	0	0	0
031119	14:04:45	14:16:13	686937	5.0.10.0	4_exp_AMP_EVA_AWA_CON	160	Rpleas_acq	Oppo	Lpleas	Amasked	CS_A	2pleas	distractor2	EVAbeforeCON	AMP_CSunple	AMP1_masked	6	27	0	0	300	300	0	0	657	46	0	0	0	0	0	1	blank2r.bmp	0	1	CPLW	0	1	blank2r.bmp	79	20	pic20.bmp	199	1	whitenoise_No3.bmp	306	0	0	0	0	0	0	0	0	0	0	0	0	0	0	0	0	0	0	0	0	0	0	0	0	0	0	0	0	0	0	0	0	0	0	0	0	0	0	0
031119	14:04:45	14:16:15	689110	5.0.10.0	4_exp_AMP_EVA_AWA_CON	160	Rpleas_acq	Oppo	Lpleas	Amasked	CS_A	2pleas	distractor2	EVAbeforeCON	AMP_CSpleas	AMP1_masked	6	28	0	0	300	300	0	0	1248	46	0	1	0	0	0	1	blank2r.bmp	0	1	DHJF	0	1	blank2r.bmp	79	112	pic112.bmp	199	1	whitenoise_No3.bmp	306	0	0	0	0	0	0	0	0	0	0	0	0	0	0	0	0	0	0	0	0	0	0	0	0	0	0	0	0	0	0	0	0	0	0	0	0	0	0	0
031119	14:04:45	14:16:17	690669	5.0.10.0	4_exp_AMP_EVA_AWA_CON	160	Rpleas_acq	Oppo	Lpleas	Amasked	CS_A	2pleas	distractor2	EVAbeforeCON	AMP_distractor	AMP1_masked	6	29	0	0	300	300	0	0	646	50	0	0	0	0	0	1	blank2r.bmp	0	1	QYSB	0	1	blank2r.bmp	79	77	pic77.bmp	199	1	whitenoise_No3.bmp	306	0	0	0	0	0	0	0	0	0	0	0	0	0	0	0	0	0	0	0	0	0	0	0	0	0	0	0	0	0	0	0	0	0	0	0	0	0	0	0
031119	14:04:45	14:16:18	692055	5.0.10.0	4_exp_AMP_EVA_AWA_CON	160	Rpleas_acq	Oppo	Lpleas	Amasked	CS_A	2pleas	distractor2	EVAbeforeCON	AMP_CSpleas	AMP1_masked	6	30	0	0	300	300	0	0	473	46	0	1	0	0	0	1	blank2r.bmp	0	1	DHJF	0	1	blank2r.bmp	79	49	pic49.bmp	199	1	whitenoise_No3.bmp	306	0	0	0	0	0	0	0	0	0	0	0	0	0	0	0	0	0	0	0	0	0	0	0	0	0	0	0	0	0	0	0	0	0	0	0	0	0	0	0
031119	14:04:45	14:16:20	693868	5.0.10.0	4_exp_AMP_EVA_AWA_CON	160	Rpleas_acq	Oppo	Lpleas	Amasked	CS_A	2pleas	distractor2	EVAbeforeCON	AMP_CSpleas	AMP1_masked	6	31	0	0	300	300	0	0	881	46	0	1	0	0	0	1	blank2r.bmp	0	1	DHJF	0	1	blank2r.bmp	79	121	pic121.bmp	199	1	whitenoise_No3.bmp	306	0	0	0	0	0	0	0	0	0	0	0	0	0	0	0	0	0	0	0	0	0	0	0	0	0	0	0	0	0	0	0	0	0	0	0	0	0	0	0
031119	14:04:45	14:16:22	695334	5.0.10.0	4_exp_AMP_EVA_AWA_CON	160	Rpleas_acq	Oppo	Lpleas	Amasked	CS_A	2pleas	distractor2	EVAbeforeCON	AMP_distractor	AMP1_masked	6	32	0	0	300	300	0	0	551	46	0	0	0	0	0	1	blank2r.bmp	0	1	QYSB	0	1	blank2r.bmp	79	93	pic93.bmp	199	1	whitenoise_No3.bmp	306	0	0	0	0	0	0	0	0	0	0	0	0	0	0	0	0	0	0	0	0	0	0	0	0	0	0	0	0	0	0	0	0	0	0	0	0	0	0	0
031119	14:04:45	14:16:23	696773	5.0.10.0	4_exp_AMP_EVA_AWA_CON	160	Rpleas_acq	Oppo	Lpleas	Amasked	CS_A	2pleas	distractor2	EVAbeforeCON	AMP_distractor	AMP1_masked	6	33	0	0	300	300	0	0	518	46	0	0	0	0	0	1	blank2r.bmp	0	1	QYSB	0	1	blank2r.bmp	79	54	pic54.bmp	199	1	whitenoise_No3.bmp	306	0	0	0	0	0	0	0	0	0	0	0	0	0	0	0	0	0	0	0	0	0	0	0	0	0	0	0	0	0	0	0	0	0	0	0	0	0	0	0
031119	14:04:45	14:16:25	698333	5.0.10.0	4_exp_AMP_EVA_AWA_CON	160	Rpleas_acq	Oppo	Lpleas	Amasked	CS_A	2pleas	distractor2	EVAbeforeCON	AMP_CSpleas	AMP1_masked	6	34	0	0	300	300	0	0	650	46	0	1	0	0	0	1	blank2r.bmp	0	1	DHJF	0	1	blank2r.bmp	79	142	pic142.bmp	199	1	whitenoise_No3.bmp	306	0	0	0	0	0	0	0	0	0	0	0	0	0	0	0	0	0	0	0	0	0	0	0	0	0	0	0	0	0	0	0	0	0	0	0	0	0	0	0
031119	14:04:45	14:16:26	699825	5.0.10.0	4_exp_AMP_EVA_AWA_CON	160	Rpleas_acq	Oppo	Lpleas	Amasked	CS_A	2pleas	distractor2	EVAbeforeCON	AMP_CSunple	AMP1_masked	6	35	0	0	300	300	0	0	560	46	0	0	0	0	0	1	blank2r.bmp	0	1	CPLW	0	1	blank2r.bmp	79	141	pic141.bmp	199	1	whitenoise_No3.bmp	306	0	0	0	0	0	0	0	0	0	0	0	0	0	0	0	0	0	0	0	0	0	0	0	0	0	0	0	0	0	0	0	0	0	0	0	0	0	0	0
031119	14:04:45	14:16:28	702118	5.0.10.0	4_exp_AMP_EVA_AWA_CON	160	Rpleas_acq	Oppo	Lpleas	Amasked	CS_A	2pleas	distractor2	EVAbeforeCON	AMP_CSpleas	AMP1_masked	6	36	0	0	300	300	0	0	1375	50	0	0	0	0	0	1	blank2r.bmp	0	1	DHJF	0	1	blank2r.bmp	79	22	pic22.bmp	199	1	whitenoise_No3.bmp	306	0	0	0	0	0	0	0	0	0	0	0	0	0	0	0	0	0	0	0	0	0	0	0	0	0	0	0	0	0	0	0	0	0	0	0	0	0	0	0
031119	14:04:45	14:16:30	703437	5.0.10.0	4_exp_AMP_EVA_AWA_CON	160	Rpleas_acq	Oppo	Lpleas	Amasked	CS_A	2pleas	distractor2	EVAbeforeCON	AMP_CSunple	AMP1_masked	6	37	0	0	300	300	0	0	411	46	0	0	0	0	0	1	blank2r.bmp	0	1	CPLW	0	1	blank2r.bmp	79	131	pic131.bmp	199	1	whitenoise_No3.bmp	306	0	0	0	0	0	0	0	0	0	0	0	0	0	0	0	0	0	0	0	0	0	0	0	0	0	0	0	0	0	0	0	0	0	0	0	0	0	0	0
031119	14:04:45	14:16:31	704677	5.0.10.0	4_exp_AMP_EVA_AWA_CON	160	Rpleas_acq	Oppo	Lpleas	Amasked	CS_A	2pleas	distractor2	EVAbeforeCON	AMP_distractor	AMP1_masked	6	38	0	0	300	300	0	0	312	46	0	0	0	0	0	1	blank2r.bmp	0	1	QYSB	0	1	blank2r.bmp	79	39	pic39.bmp	199	1	whitenoise_No3.bmp	306	0	0	0	0	0	0	0	0	0	0	0	0	0	0	0	0	0	0	0	0	0	0	0	0	0	0	0	0	0	0	0	0	0	0	0	0	0	0	0
031119	14:04:45	14:16:33	706276	5.0.10.0	4_exp_AMP_EVA_AWA_CON	160	Rpleas_acq	Oppo	Lpleas	Amasked	CS_A	2pleas	distractor2	EVAbeforeCON	AMP_CSunple	AMP1_masked	6	39	0	0	300	300	0	0	690	50	0	1	0	0	0	1	blank2r.bmp	0	1	CPLW	0	1	blank2r.bmp	79	117	pic117.bmp	199	1	whitenoise_No3.bmp	306	0	0	0	0	0	0	0	0	0	0	0	0	0	0	0	0	0	0	0	0	0	0	0	0	0	0	0	0	0	0	0	0	0	0	0	0	0	0	0
031119	14:04:45	14:16:34	707569	5.0.10.0	4_exp_AMP_EVA_AWA_CON	160	Rpleas_acq	Oppo	Lpleas	Amasked	CS_A	2pleas	distractor2	EVAbeforeCON	AMP_distractor	AMP1_masked	6	40	0	0	300	300	0	0	366	46	0	0	0	0	0	1	blank2r.bmp	0	1	QYSB	0	1	blank2r.bmp	79	12	pic12.bmp	199	1	whitenoise_No3.bmp	306	0	0	0	0	0	0	0	0	0	0	0	0	0	0	0	0	0	0	0	0	0	0	0	0	0	0	0	0	0	0	0	0	0	0	0	0	0	0	0
031119	14:04:45	14:16:35	709075	5.0.10.0	4_exp_AMP_EVA_AWA_CON	160	Rpleas_acq	Oppo	Lpleas	Amasked	CS_A	2pleas	distractor2	EVAbeforeCON	AMP_CSunple	AMP1_masked	6	41	0	0	300	300	0	0	578	46	0	0	0	0	0	1	blank2r.bmp	0	1	CPLW	0	1	blank2r.bmp	79	74	pic74.bmp	199	1	whitenoise_No3.bmp	306	0	0	0	0	0	0	0	0	0	0	0	0	0	0	0	0	0	0	0	0	0	0	0	0	0	0	0	0	0	0	0	0	0	0	0	0	0	0	0
031119	14:04:45	14:16:37	710341	5.0.10.0	4_exp_AMP_EVA_AWA_CON	160	Rpleas_acq	Oppo	Lpleas	Amasked	CS_A	2pleas	distractor2	EVAbeforeCON	AMP_CSpleas	AMP1_masked	6	42	0	0	300	300	0	0	338	46	0	1	0	0	0	1	blank2r.bmp	0	1	DHJF	0	1	blank2r.bmp	79	25	pic25.bmp	199	1	whitenoise_No3.bmp	306	0	0	0	0	0	0	0	0	0	0	0	0	0	0	0	0	0	0	0	0	0	0	0	0	0	0	0	0	0	0	0	0	0	0	0	0	0	0	0
031119	14:04:45	14:16:38	711727	5.0.10.0	4_exp_AMP_EVA_AWA_CON	160	Rpleas_acq	Oppo	Lpleas	Amasked	CS_A	2pleas	distractor2	EVAbeforeCON	AMP_CSpleas	AMP1_masked	6	43	0	0	300	300	0	0	475	50	0	0	0	0	0	1	blank2r.bmp	0	1	DHJF	0	1	blank2r.bmp	79	150	pic150.bmp	199	1	whitenoise_No3.bmp	306	0	0	0	0	0	0	0	0	0	0	0	0	0	0	0	0	0	0	0	0	0	0	0	0	0	0	0	0	0	0	0	0	0	0	0	0	0	0	0
031119	14:04:45	14:16:40	713486	5.0.10.0	4_exp_AMP_EVA_AWA_CON	160	Rpleas_acq	Oppo	Lpleas	Amasked	CS_A	2pleas	distractor2	EVAbeforeCON	AMP_distractor	AMP1_masked	6	44	0	0	300	300	0	0	827	50	0	0	0	0	0	1	blank2r.bmp	0	1	QYSB	0	1	blank2r.bmp	79	153	pic153.bmp	199	1	whitenoise_No3.bmp	306	0	0	0	0	0	0	0	0	0	0	0	0	0	0	0	0	0	0	0	0	0	0	0	0	0	0	0	0	0	0	0	0	0	0	0	0	0	0	0
031119	14:04:45	14:16:41	715072	5.0.10.0	4_exp_AMP_EVA_AWA_CON	160	Rpleas_acq	Oppo	Lpleas	Amasked	CS_A	2pleas	distractor2	EVAbeforeCON	AMP_CSunple	AMP1_masked	6	45	0	0	300	300	0	0	661	50	0	1	0	0	0	1	blank2r.bmp	0	1	CPLW	0	1	blank2r.bmp	79	108	pic108.bmp	199	1	whitenoise_No3.bmp	306	0	0	0	0	0	0	0	0	0	0	0	0	0	0	0	0	0	0	0	0	0	0	0	0	0	0	0	0	0	0	0	0	0	0	0	0	0	0	0
031119	14:04:45	14:16:43	716578	5.0.10.0	4_exp_AMP_EVA_AWA_CON	160	Rpleas_acq	Oppo	Lpleas	Amasked	CS_A	2pleas	distractor2	EVAbeforeCON	AMP_CSpleas	AMP1_masked	6	46	0	0	300	300	0	0	579	46	0	1	0	0	0	1	blank2r.bmp	0	1	DHJF	0	1	blank2r.bmp	79	46	pic46.bmp	199	1	whitenoise_No3.bmp	306	0	0	0	0	0	0	0	0	0	0	0	0	0	0	0	0	0	0	0	0	0	0	0	0	0	0	0	0	0	0	0	0	0	0	0	0	0	0	0
031119	14:04:45	14:16:44	717964	5.0.10.0	4_exp_AMP_EVA_AWA_CON	160	Rpleas_acq	Oppo	Lpleas	Amasked	CS_A	2pleas	distractor2	EVAbeforeCON	AMP_distractor	AMP1_masked	6	47	0	0	300	300	0	0	459	46	0	0	0	0	0	1	blank2r.bmp	0	1	QYSB	0	1	blank2r.bmp	79	64	pic64.bmp	199	1	whitenoise_No3.bmp	306	0	0	0	0	0	0	0	0	0	0	0	0	0	0	0	0	0	0	0	0	0	0	0	0	0	0	0	0	0	0	0	0	0	0	0	0	0	0	0
031119	14:04:45	14:16:46	719364	5.0.10.0	4_exp_AMP_EVA_AWA_CON	160	Rpleas_acq	Oppo	Lpleas	Amasked	CS_A	2pleas	distractor2	EVAbeforeCON	AMP_CSunple	AMP1_masked	6	48	0	0	300	300	0	0	470	46	0	0	0	0	0	1	blank2r.bmp	0	1	CPLW	0	1	blank2r.bmp	79	114	pic114.bmp	199	1	whitenoise_No3.bmp	306	0	0	0	0	0	0	0	0	0	0	0	0	0	0	0	0	0	0	0	0	0	0	0	0	0	0	0	0	0	0	0	0	0	0	0	0	0	0	0
031119	14:04:45	14:16:47	720910	5.0.10.0	4_exp_AMP_EVA_AWA_CON	160	Rpleas_acq	Oppo	Lpleas	Amasked	CS_A	2pleas	distractor2	EVAbeforeCON	AMP_CSpleas	AMP1_masked	6	49	0	0	300	300	0	0	620	46	0	1	0	0	0	1	blank2r.bmp	0	1	DHJF	0	1	blank2r.bmp	79	52	pic52.bmp	199	1	whitenoise_No3.bmp	306	0	0	0	0	0	0	0	0	0	0	0	0	0	0	0	0	0	0	0	0	0	0	0	0	0	0	0	0	0	0	0	0	0	0	0	0	0	0	0
031119	14:04:45	14:16:49	722496	5.0.10.0	4_exp_AMP_EVA_AWA_CON	160	Rpleas_acq	Oppo	Lpleas	Amasked	CS_A	2pleas	distractor2	EVAbeforeCON	AMP_CSpleas	AMP1_masked	6	50	0	0	300	300	0	0	658	46	0	1	0	0	0	1	blank2r.bmp	0	1	DHJF	0	1	blank2r.bmp	79	40	pic40.bmp	199	1	whitenoise_No3.bmp	306	0	0	0	0	0	0	0	0	0	0	0	0	0	0	0	0	0	0	0	0	0	0	0	0	0	0	0	0	0	0	0	0	0	0	0	0	0	0	0
031119	14:04:45	14:16:50	723989	5.0.10.0	4_exp_AMP_EVA_AWA_CON	160	Rpleas_acq	Oppo	Lpleas	Amasked	CS_A	2pleas	distractor2	EVAbeforeCON	AMP_CSpleas	AMP1_masked	6	51	0	0	300	300	0	0	579	46	0	1	0	0	0	1	blank2r.bmp	0	1	DHJF	0	1	blank2r.bmp	79	58	pic58.bmp	199	1	whitenoise_No3.bmp	306	0	0	0	0	0	0	0	0	0	0	0	0	0	0	0	0	0	0	0	0	0	0	0	0	0	0	0	0	0	0	0	0	0	0	0	0	0	0	0
031119	14:04:45	14:16:58	732025	5.0.10.0	4_exp_AMP_EVA_AWA_CON	160	Rpleas_acq	Oppo	Lpleas	Amasked	CS_A	2pleas	distractor2	EVAbeforeCON	AMP_CSunple	AMP23	7	1	0	0	300	300	0	0	796	46	0	0	0	0	0	1	blank2r.bmp	0	1	CPLW	0	1	blank2r.bmp	79	152	pic152.bmp	199	1	whitenoise_No3.bmp	306	0	0	0	0	0	0	0	0	0	0	0	0	0	0	0	0	0	0	0	0	0	0	0	0	0	0	0	0	0	0	0	0	0	0	0	0	0	0	0
031119	14:04:45	14:17:01	734198	5.0.10.0	4_exp_AMP_EVA_AWA_CON	160	Rpleas_acq	Oppo	Lpleas	Amasked	CS_A	2pleas	distractor2	EVAbeforeCON	AMP_CSpleas	AMP23	7	2	0	0	300	300	0	0	1264	50	0	0	0	0	0	1	blank2r.bmp	0	1	DHJF	0	1	blank2r.bmp	79	2	pic2.bmp	199	1	whitenoise_No3.bmp	306	0	0	0	0	0	0	0	0	0	0	0	0	0	0	0	0	0	0	0	0	0	0	0	0	0	0	0	0	0	0	0	0	0	0	0	0	0	0	0
031119	14:04:45	14:17:02	735837	5.0.10.0	4_exp_AMP_EVA_AWA_CON	160	Rpleas_acq	Oppo	Lpleas	Amasked	CS_A	2pleas	distractor2	EVAbeforeCON	AMP_distractor	AMP23	7	3	0	0	300	300	0	0	715	50	0	0	0	0	0	1	blank2r.bmp	0	1	QYSB	0	1	blank2r.bmp	79	72	pic72.bmp	199	1	whitenoise_No3.bmp	306	0	0	0	0	0	0	0	0	0	0	0	0	0	0	0	0	0	0	0	0	0	0	0	0	0	0	0	0	0	0	0	0	0	0	0	0	0	0	0
031119	14:04:45	14:17:05	738569	5.0.10.0	4_exp_AMP_EVA_AWA_CON	160	Rpleas_acq	Oppo	Lpleas	Amasked	CS_A	2pleas	distractor2	EVAbeforeCON	AMP_CSpleas	AMP23	7	4	0	0	300	300	0	0	1807	50	0	0	0	0	0	1	blank2r.bmp	0	1	DHJF	0	1	blank2r.bmp	79	149	pic149.bmp	199	1	whitenoise_No3.bmp	306	0	0	0	0	0	0	0	0	0	0	0	0	0	0	0	0	0	0	0	0	0	0	0	0	0	0	0	0	0	0	0	0	0	0	0	0	0	0	0
031119	14:04:45	14:17:06	740088	5.0.10.0	4_exp_AMP_EVA_AWA_CON	160	Rpleas_acq	Oppo	Lpleas	Amasked	CS_A	2pleas	distractor2	EVAbeforeCON	AMP_CSunple	AMP23	7	5	0	0	300	300	0	0	588	50	0	1	0	0	0	1	blank2r.bmp	0	1	CPLW	0	1	blank2r.bmp	79	5	pic5.bmp	199	1	whitenoise_No3.bmp	306	0	0	0	0	0	0	0	0	0	0	0	0	0	0	0	0	0	0	0	0	0	0	0	0	0	0	0	0	0	0	0	0	0	0	0	0	0	0	0
031119	14:04:45	14:17:09	742301	5.0.10.0	4_exp_AMP_EVA_AWA_CON	160	Rpleas_acq	Oppo	Lpleas	Amasked	CS_A	2pleas	distractor2	EVAbeforeCON	AMP_distractor	AMP23	7	6	0	0	300	300	0	0	1298	46	0	0	0	0	0	1	blank2r.bmp	0	1	QYSB	0	1	blank2r.bmp	79	111	pic111.bmp	199	1	whitenoise_No3.bmp	306	0	0	0	0	0	0	0	0	0	0	0	0	0	0	0	0	0	0	0	0	0	0	0	0	0	0	0	0	0	0	0	0	0	0	0	0	0	0	0
031119	14:04:45	14:17:10	743727	5.0.10.0	4_exp_AMP_EVA_AWA_CON	160	Rpleas_acq	Oppo	Lpleas	Amasked	CS_A	2pleas	distractor2	EVAbeforeCON	AMP_distractor	AMP23	7	7	0	0	300	300	0	0	501	50	0	0	0	0	0	1	blank2r.bmp	0	1	QYSB	0	1	blank2r.bmp	79	97	pic97.bmp	199	1	whitenoise_No3.bmp	306	0	0	0	0	0	0	0	0	0	0	0	0	0	0	0	0	0	0	0	0	0	0	0	0	0	0	0	0	0	0	0	0	0	0	0	0	0	0	0
031119	14:04:45	14:17:11	745140	5.0.10.0	4_exp_AMP_EVA_AWA_CON	160	Rpleas_acq	Oppo	Lpleas	Amasked	CS_A	2pleas	distractor2	EVAbeforeCON	AMP_distractor	AMP23	7	8	0	0	300	300	0	0	483	46	0	0	0	0	0	1	blank2r.bmp	0	1	QYSB	0	1	blank2r.bmp	79	140	pic140.bmp	199	1	whitenoise_No3.bmp	306	0	0	0	0	0	0	0	0	0	0	0	0	0	0	0	0	0	0	0	0	0	0	0	0	0	0	0	0	0	0	0	0	0	0	0	0	0	0	0
031119	14:04:45	14:17:13	746459	5.0.10.0	4_exp_AMP_EVA_AWA_CON	160	Rpleas_acq	Oppo	Lpleas	Amasked	CS_A	2pleas	distractor2	EVAbeforeCON	AMP_CSunple	AMP23	7	9	0	0	300	300	0	0	398	46	0	0	0	0	0	1	blank2r.bmp	0	1	CPLW	0	1	blank2r.bmp	79	29	pic29.bmp	199	1	whitenoise_No3.bmp	306	0	0	0	0	0	0	0	0	0	0	0	0	0	0	0	0	0	0	0	0	0	0	0	0	0	0	0	0	0	0	0	0	0	0	0	0	0	0	0
031119	14:04:45	14:17:14	747859	5.0.10.0	4_exp_AMP_EVA_AWA_CON	160	Rpleas_acq	Oppo	Lpleas	Amasked	CS_A	2pleas	distractor2	EVAbeforeCON	AMP_CSunple	AMP23	7	10	0	0	300	300	0	0	466	50	0	1	0	0	0	1	blank2r.bmp	0	1	CPLW	0	1	blank2r.bmp	79	130	pic130.bmp	199	1	whitenoise_No3.bmp	306	0	0	0	0	0	0	0	0	0	0	0	0	0	0	0	0	0	0	0	0	0	0	0	0	0	0	0	0	0	0	0	0	0	0	0	0	0	0	0
031119	14:04:45	14:17:16	749551	5.0.10.0	4_exp_AMP_EVA_AWA_CON	160	Rpleas_acq	Oppo	Lpleas	Amasked	CS_A	2pleas	distractor2	EVAbeforeCON	AMP_distractor	AMP23	7	11	0	0	300	300	0	0	772	50	0	0	0	0	0	1	blank2r.bmp	0	1	QYSB	0	1	blank2r.bmp	79	85	pic85.bmp	199	1	whitenoise_No3.bmp	306	0	0	0	0	0	0	0	0	0	0	0	0	0	0	0	0	0	0	0	0	0	0	0	0	0	0	0	0	0	0	0	0	0	0	0	0	0	0	0
031119	14:04:45	14:17:17	750884	5.0.10.0	4_exp_AMP_EVA_AWA_CON	160	Rpleas_acq	Oppo	Lpleas	Amasked	CS_A	2pleas	distractor2	EVAbeforeCON	AMP_CSpleas	AMP23	7	12	0	0	300	300	0	0	419	50	0	0	0	0	0	1	blank2r.bmp	0	1	DHJF	0	1	blank2r.bmp	79	123	pic123.bmp	199	1	whitenoise_No3.bmp	306	0	0	0	0	0	0	0	0	0	0	0	0	0	0	0	0	0	0	0	0	0	0	0	0	0	0	0	0	0	0	0	0	0	0	0	0	0	0	0
031119	14:04:45	14:17:19	752243	5.0.10.0	4_exp_AMP_EVA_AWA_CON	160	Rpleas_acq	Oppo	Lpleas	Amasked	CS_A	2pleas	distractor2	EVAbeforeCON	AMP_CSunple	AMP23	7	13	0	0	300	300	0	0	443	50	0	1	0	0	0	1	blank2r.bmp	0	1	CPLW	0	1	blank2r.bmp	79	139	pic139.bmp	199	1	whitenoise_No3.bmp	306	0	0	0	0	0	0	0	0	0	0	0	0	0	0	0	0	0	0	0	0	0	0	0	0	0	0	0	0	0	0	0	0	0	0	0	0	0	0	0
031119	14:04:45	14:17:20	753510	5.0.10.0	4_exp_AMP_EVA_AWA_CON	160	Rpleas_acq	Oppo	Lpleas	Amasked	CS_A	2pleas	distractor2	EVAbeforeCON	AMP_distractor	AMP23	7	14	0	0	300	300	0	0	346	50	0	0	0	0	0	1	blank2r.bmp	0	1	QYSB	0	1	blank2r.bmp	79	79	pic79.bmp	199	1	whitenoise_No3.bmp	306	0	0	0	0	0	0	0	0	0	0	0	0	0	0	0	0	0	0	0	0	0	0	0	0	0	0	0	0	0	0	0	0	0	0	0	0	0	0	0
031119	14:04:45	14:17:21	754882	5.0.10.0	4_exp_AMP_EVA_AWA_CON	160	Rpleas_acq	Oppo	Lpleas	Amasked	CS_A	2pleas	distractor2	EVAbeforeCON	AMP_distractor	AMP23	7	15	0	0	300	300	0	0	460	46	0	0	0	0	0	1	blank2r.bmp	0	1	QYSB	0	1	blank2r.bmp	79	17	pic17.bmp	199	1	whitenoise_No3.bmp	306	0	0	0	0	0	0	0	0	0	0	0	0	0	0	0	0	0	0	0	0	0	0	0	0	0	0	0	0	0	0	0	0	0	0	0	0	0	0	0
031119	14:04:45	14:17:23	756175	5.0.10.0	4_exp_AMP_EVA_AWA_CON	160	Rpleas_acq	Oppo	Lpleas	Amasked	CS_A	2pleas	distractor2	EVAbeforeCON	AMP_CSunple	AMP23	7	16	0	0	300	300	0	0	368	46	0	0	0	0	0	1	blank2r.bmp	0	1	CPLW	0	1	blank2r.bmp	79	145	pic145.bmp	199	1	whitenoise_No3.bmp	306	0	0	0	0	0	0	0	0	0	0	0	0	0	0	0	0	0	0	0	0	0	0	0	0	0	0	0	0	0	0	0	0	0	0	0	0	0	0	0
031119	14:04:45	14:17:24	757401	5.0.10.0	4_exp_AMP_EVA_AWA_CON	160	Rpleas_acq	Oppo	Lpleas	Amasked	CS_A	2pleas	distractor2	EVAbeforeCON	AMP_distractor	AMP23	7	17	0	0	300	300	0	0	309	46	0	0	0	0	0	1	blank2r.bmp	0	1	QYSB	0	1	blank2r.bmp	79	36	pic36.bmp	199	1	whitenoise_No3.bmp	306	0	0	0	0	0	0	0	0	0	0	0	0	0	0	0	0	0	0	0	0	0	0	0	0	0	0	0	0	0	0	0	0	0	0	0	0	0	0	0
031119	14:04:45	14:17:25	758734	5.0.10.0	4_exp_AMP_EVA_AWA_CON	160	Rpleas_acq	Oppo	Lpleas	Amasked	CS_A	2pleas	distractor2	EVAbeforeCON	AMP_CSunple	AMP23	7	18	0	0	300	300	0	0	403	50	0	1	0	0	0	1	blank2r.bmp	0	1	CPLW	0	1	blank2r.bmp	79	92	pic92.bmp	199	1	whitenoise_No3.bmp	306	0	0	0	0	0	0	0	0	0	0	0	0	0	0	0	0	0	0	0	0	0	0	0	0	0	0	0	0	0	0	0	0	0	0	0	0	0	0	0
031119	14:04:45	14:17:26	760120	5.0.10.0	4_exp_AMP_EVA_AWA_CON	160	Rpleas_acq	Oppo	Lpleas	Amasked	CS_A	2pleas	distractor2	EVAbeforeCON	AMP_CSpleas	AMP23	7	19	0	0	300	300	0	0	467	46	0	1	0	0	0	1	blank2r.bmp	0	1	DHJF	0	1	blank2r.bmp	79	30	pic30.bmp	199	1	whitenoise_No3.bmp	306	0	0	0	0	0	0	0	0	0	0	0	0	0	0	0	0	0	0	0	0	0	0	0	0	0	0	0	0	0	0	0	0	0	0	0	0	0	0	0
031119	14:04:45	14:17:28	761546	5.0.10.0	4_exp_AMP_EVA_AWA_CON	160	Rpleas_acq	Oppo	Lpleas	Amasked	CS_A	2pleas	distractor2	EVAbeforeCON	AMP_CSunple	AMP23	7	20	0	0	300	300	0	0	509	46	0	0	0	0	0	1	blank2r.bmp	0	1	CPLW	0	1	blank2r.bmp	79	87	pic87.bmp	199	1	whitenoise_No3.bmp	306	0	0	0	0	0	0	0	0	0	0	0	0	0	0	0	0	0	0	0	0	0	0	0	0	0	0	0	0	0	0	0	0	0	0	0	0	0	0	0
031119	14:04:45	14:17:29	762932	5.0.10.0	4_exp_AMP_EVA_AWA_CON	160	Rpleas_acq	Oppo	Lpleas	Amasked	CS_A	2pleas	distractor2	EVAbeforeCON	AMP_CSpleas	AMP23	7	21	0	0	300	300	0	0	466	50	0	0	0	0	0	1	blank2r.bmp	0	1	DHJF	0	1	blank2r.bmp	79	136	pic136.bmp	199	1	whitenoise_No3.bmp	306	0	0	0	0	0	0	0	0	0	0	0	0	0	0	0	0	0	0	0	0	0	0	0	0	0	0	0	0	0	0	0	0	0	0	0	0	0	0	0
031119	14:04:45	14:17:31	764265	5.0.10.0	4_exp_AMP_EVA_AWA_CON	160	Rpleas_acq	Oppo	Lpleas	Amasked	CS_A	2pleas	distractor2	EVAbeforeCON	AMP_distractor	AMP23	7	22	0	0	300	300	0	0	416	46	0	0	0	0	0	1	blank2r.bmp	0	1	QYSB	0	1	blank2r.bmp	79	128	pic128.bmp	199	1	whitenoise_No3.bmp	306	0	0	0	0	0	0	0	0	0	0	0	0	0	0	0	0	0	0	0	0	0	0	0	0	0	0	0	0	0	0	0	0	0	0	0	0	0	0	0
031119	14:04:45	14:17:32	765811	5.0.10.0	4_exp_AMP_EVA_AWA_CON	160	Rpleas_acq	Oppo	Lpleas	Amasked	CS_A	2pleas	distractor2	EVAbeforeCON	AMP_CSpleas	AMP23	7	23	0	0	300	300	0	0	612	46	0	1	0	0	0	1	blank2r.bmp	0	1	DHJF	0	1	blank2r.bmp	79	132	pic132.bmp	199	1	whitenoise_No3.bmp	306	0	0	0	0	0	0	0	0	0	0	0	0	0	0	0	0	0	0	0	0	0	0	0	0	0	0	0	0	0	0	0	0	0	0	0	0	0	0	0
031119	14:04:45	14:17:34	767184	5.0.10.0	4_exp_AMP_EVA_AWA_CON	160	Rpleas_acq	Oppo	Lpleas	Amasked	CS_A	2pleas	distractor2	EVAbeforeCON	AMP_distractor	AMP23	7	24	0	0	300	300	0	0	448	50	0	0	0	0	0	1	blank2r.bmp	0	1	QYSB	0	1	blank2r.bmp	79	100	pic100.bmp	199	1	whitenoise_No3.bmp	306	0	0	0	0	0	0	0	0	0	0	0	0	0	0	0	0	0	0	0	0	0	0	0	0	0	0	0	0	0	0	0	0	0	0	0	0	0	0	0
031119	14:04:45	14:17:35	768557	5.0.10.0	4_exp_AMP_EVA_AWA_CON	160	Rpleas_acq	Oppo	Lpleas	Amasked	CS_A	2pleas	distractor2	EVAbeforeCON	AMP_CSunple	AMP23	7	25	0	0	300	300	0	0	447	50	0	1	0	0	0	1	blank2r.bmp	0	1	CPLW	0	1	blank2r.bmp	79	60	pic60.bmp	199	1	whitenoise_No3.bmp	306	0	0	0	0	0	0	0	0	0	0	0	0	0	0	0	0	0	0	0	0	0	0	0	0	0	0	0	0	0	0	0	0	0	0	0	0	0	0	0
031119	14:04:45	14:17:36	769889	5.0.10.0	4_exp_AMP_EVA_AWA_CON	160	Rpleas_acq	Oppo	Lpleas	Amasked	CS_A	2pleas	distractor2	EVAbeforeCON	AMP_distractor	AMP23	7	26	0	0	300	300	0	0	404	46	0	0	0	0	0	1	blank2r.bmp	0	1	QYSB	0	1	blank2r.bmp	79	42	pic42.bmp	199	1	whitenoise_No3.bmp	306	0	0	0	0	0	0	0	0	0	0	0	0	0	0	0	0	0	0	0	0	0	0	0	0	0	0	0	0	0	0	0	0	0	0	0	0	0	0	0
031119	14:04:45	14:17:38	771182	5.0.10.0	4_exp_AMP_EVA_AWA_CON	160	Rpleas_acq	Oppo	Lpleas	Amasked	CS_A	2pleas	distractor2	EVAbeforeCON	AMP_CSpleas	AMP23	7	27	0	0	300	300	0	0	381	50	0	0	0	0	0	1	blank2r.bmp	0	1	DHJF	0	1	blank2r.bmp	79	23	pic23.bmp	199	1	whitenoise_No3.bmp	306	0	0	0	0	0	0	0	0	0	0	0	0	0	0	0	0	0	0	0	0	0	0	0	0	0	0	0	0	0	0	0	0	0	0	0	0	0	0	0
031119	14:04:45	14:17:39	772861	5.0.10.0	4_exp_AMP_EVA_AWA_CON	160	Rpleas_acq	Oppo	Lpleas	Amasked	CS_A	2pleas	distractor2	EVAbeforeCON	AMP_CSpleas	AMP23	7	28	0	0	300	300	0	0	766	50	0	0	0	0	0	1	blank2r.bmp	0	1	DHJF	0	1	blank2r.bmp	79	13	pic13.bmp	199	1	whitenoise_No3.bmp	306	0	0	0	0	0	0	0	0	0	0	0	0	0	0	0	0	0	0	0	0	0	0	0	0	0	0	0	0	0	0	0	0	0	0	0	0	0	0	0
031119	14:04:45	14:17:41	774421	5.0.10.0	4_exp_AMP_EVA_AWA_CON	160	Rpleas_acq	Oppo	Lpleas	Amasked	CS_A	2pleas	distractor2	EVAbeforeCON	AMP_CSunple	AMP23	7	29	0	0	300	300	0	0	625	50	0	1	0	0	0	1	blank2r.bmp	0	1	CPLW	0	1	blank2r.bmp	79	137	pic137.bmp	199	1	whitenoise_No3.bmp	306	0	0	0	0	0	0	0	0	0	0	0	0	0	0	0	0	0	0	0	0	0	0	0	0	0	0	0	0	0	0	0	0	0	0	0	0	0	0	0
031119	14:04:45	14:17:42	775793	5.0.10.0	4_exp_AMP_EVA_AWA_CON	160	Rpleas_acq	Oppo	Lpleas	Amasked	CS_A	2pleas	distractor2	EVAbeforeCON	AMP_CSpleas	AMP23	7	30	0	0	300	300	0	0	445	46	0	1	0	0	0	1	blank2r.bmp	0	1	DHJF	0	1	blank2r.bmp	79	24	pic24.bmp	199	1	whitenoise_No3.bmp	306	0	0	0	0	0	0	0	0	0	0	0	0	0	0	0	0	0	0	0	0	0	0	0	0	0	0	0	0	0	0	0	0	0	0	0	0	0	0	0
031119	14:04:45	14:17:44	777379	5.0.10.0	4_exp_AMP_EVA_AWA_CON	160	Rpleas_acq	Oppo	Lpleas	Amasked	CS_A	2pleas	distractor2	EVAbeforeCON	AMP_CSpleas	AMP23	7	31	0	0	300	300	0	0	655	46	0	1	0	0	0	1	blank2r.bmp	0	1	DHJF	0	1	blank2r.bmp	79	81	pic81.bmp	199	1	whitenoise_No3.bmp	306	0	0	0	0	0	0	0	0	0	0	0	0	0	0	0	0	0	0	0	0	0	0	0	0	0	0	0	0	0	0	0	0	0	0	0	0	0	0	0
031119	14:04:45	14:17:45	778779	5.0.10.0	4_exp_AMP_EVA_AWA_CON	160	Rpleas_acq	Oppo	Lpleas	Amasked	CS_A	2pleas	distractor2	EVAbeforeCON	AMP_distractor	AMP23	7	32	0	0	300	300	0	0	485	46	0	0	0	0	0	1	blank2r.bmp	0	1	QYSB	0	1	blank2r.bmp	79	3	pic3.bmp	199	1	whitenoise_No3.bmp	306	0	0	0	0	0	0	0	0	0	0	0	0	0	0	0	0	0	0	0	0	0	0	0	0	0	0	0	0	0	0	0	0	0	0	0	0	0	0	0
031119	14:04:45	14:17:46	780165	5.0.10.0	4_exp_AMP_EVA_AWA_CON	160	Rpleas_acq	Oppo	Lpleas	Amasked	CS_A	2pleas	distractor2	EVAbeforeCON	AMP_CSpleas	AMP23	7	33	0	0	300	300	0	0	475	46	0	1	0	0	0	1	blank2r.bmp	0	1	DHJF	0	1	blank2r.bmp	79	82	pic82.bmp	199	1	whitenoise_No3.bmp	306	0	0	0	0	0	0	0	0	0	0	0	0	0	0	0	0	0	0	0	0	0	0	0	0	0	0	0	0	0	0	0	0	0	0	0	0	0	0	0
031119	14:04:45	14:17:48	781484	5.0.10.0	4_exp_AMP_EVA_AWA_CON	160	Rpleas_acq	Oppo	Lpleas	Amasked	CS_A	2pleas	distractor2	EVAbeforeCON	AMP_CSpleas	AMP23	7	34	0	0	300	300	0	0	402	46	0	1	0	0	0	1	blank2r.bmp	0	1	DHJF	0	1	blank2r.bmp	79	56	pic56.bmp	199	1	whitenoise_No3.bmp	306	0	0	0	0	0	0	0	0	0	0	0	0	0	0	0	0	0	0	0	0	0	0	0	0	0	0	0	0	0	0	0	0	0	0	0	0	0	0	0
031119	14:04:45	14:17:50	783430	5.0.10.0	4_exp_AMP_EVA_AWA_CON	160	Rpleas_acq	Oppo	Lpleas	Amasked	CS_A	2pleas	distractor2	EVAbeforeCON	AMP_CSpleas	AMP23	7	35	0	0	300	300	0	0	1031	50	0	0	0	0	0	1	blank2r.bmp	0	1	DHJF	0	1	blank2r.bmp	79	98	pic98.bmp	199	1	whitenoise_No3.bmp	306	0	0	0	0	0	0	0	0	0	0	0	0	0	0	0	0	0	0	0	0	0	0	0	0	0	0	0	0	0	0	0	0	0	0	0	0	0	0	0
