date	time	script.currenttime	script.elapsedtime	build	script.currentexpt	subject	expressions.LRpleas_acq	expressions.SameOppo	expressions.condition_Lpleas	expressions.ABmasked	expressions.conditionCS_A	expressions.condition_1pleas	expressions.condition_distractor_AMP	expressions.AWACON_AMPEVA_first	trialcode	blockcode	blocknum	trialnum	windowcenter	inwindow	pretrialpause	posttrialpause	trialduration	trialtimeout	latency	response	expressions.correctedscore	correct	values.vis_performance	values.vis_rating_sum	values.vis_rating_mean	stimulusnumber1	stimulusitem1	stimulusonset1	stimulusnumber2	stimulusitem2	stimulusonset2	stimulusnumber3	stimulusitem3	stimulusonset3	stimulusnumber4	stimulusitem4	stimulusonset4	stimulusnumber5	stimulusitem5	stimulusonset5	stimulusnumber6	stimulusitem6	stimulusonset6	stimulusnumber7	stimulusitem7	stimulusonset7	stimulusnumber8	stimulusitem8	stimulusonset8	stimulusnumber9	stimulusitem9	stimulusonset9	stimulusnumber10	stimulusitem10	stimulusonset10	stimulusnumber11	stimulusitem11	stimulusonset11	stimulusnumber12	stimulusitem12	stimulusonset12	stimulusnumber13	stimulusitem13	stimulusonset13	stimulusnumber14	stimulusitem14	stimulusonset14	stimulusnumber15	stimulusitem15	stimulusonset15	stimulusnumber16	stimulusitem16	stimulusonset16	stimulusnumber17	stimulusitem17	stimulusonset17	stimulusnumber18	stimulusitem18	stimulusonset18
040419	12:06:25	12:07:10	43248	5.0.10.0	4_exp_EVA_AMP_AWA_CON	186	Rpleas_acq	Same	Rpleas	Amasked	CS_A	1pleas	distractor1	EVAbeforeCON	acq_US_pleas_masked	acq1_masked	1	1	0	0	300	300	0	0	861	50	0	1	0	0	0	1	blank2r.bmp	0	1	+	0	4	B4r.bmp	492	1	blank2r.bmp	786	1	CPLW	786	1	blank2r.bmp	866	2	sonnig	866	0	0	0	0	0	0	0	0	0	0	0	0	0	0	0	0	0	0	0	0	0	0	0	0	0	0	0	0	0	0	0	0	0
040419	12:06:25	12:07:13	45420	5.0.10.0	4_exp_EVA_AMP_AWA_CON	186	Rpleas_acq	Same	Rpleas	Amasked	CS_A	1pleas	distractor1	EVAbeforeCON	acq_new_unple_masked	acq1_masked	1	2	0	0	300	300	0	0	682	46	0	1	0	0	0	1	blank2r.bmp	0	1	+	0	2	B2r.bmp	492	1	blank2r.bmp	786	6	C2r.bmp	786	1	blank2r.bmp	866	6	ausrottung	866	0	0	0	0	0	0	0	0	0	0	0	0	0	0	0	0	0	0	0	0	0	0	0	0	0	0	0	0	0	0	0	0	0
040419	12:06:25	12:07:15	47740	5.0.10.0	4_exp_EVA_AMP_AWA_CON	186	Rpleas_acq	Same	Rpleas	Amasked	CS_A	1pleas	distractor1	EVAbeforeCON	acq_new_pleas_masked	acq1_masked	1	3	0	0	300	300	0	0	829	50	0	1	0	0	0	1	blank2r.bmp	0	1	+	0	8	C4r.bmp	492	1	blank2r.bmp	786	3	B3r.bmp	786	1	blank2r.bmp	866	2	gesittet	866	0	0	0	0	0	0	0	0	0	0	0	0	0	0	0	0	0	0	0	0	0	0	0	0	0	0	0	0	0	0	0	0	0
040419	12:06:25	12:07:17	49805	5.0.10.0	4_exp_EVA_AMP_AWA_CON	186	Rpleas_acq	Same	Rpleas	Amasked	CS_A	1pleas	distractor1	EVAbeforeCON	acq_new_unple_masked	acq1_masked	1	4	0	0	300	300	0	0	591	46	0	1	0	0	0	1	blank2r.bmp	0	1	+	0	6	C2r.bmp	492	1	blank2r.bmp	786	8	C4r.bmp	786	1	blank2r.bmp	866	4	krise	866	0	0	0	0	0	0	0	0	0	0	0	0	0	0	0	0	0	0	0	0	0	0	0	0	0	0	0	0	0	0	0	0	0
040419	12:06:25	12:07:19	51884	5.0.10.0	4_exp_EVA_AMP_AWA_CON	186	Rpleas_acq	Same	Rpleas	Amasked	CS_A	1pleas	distractor1	EVAbeforeCON	acq_US_pleas_masked	acq1_masked	1	5	0	0	300	300	0	0	591	50	0	1	0	0	0	1	blank2r.bmp	0	1	+	0	1	B1r.bmp	492	1	blank2r.bmp	786	1	CPLW	786	1	blank2r.bmp	866	1	gütig	866	0	0	0	0	0	0	0	0	0	0	0	0	0	0	0	0	0	0	0	0	0	0	0	0	0	0	0	0	0	0	0	0	0
040419	12:06:25	12:07:21	54164	5.0.10.0	4_exp_EVA_AMP_AWA_CON	186	Rpleas_acq	Same	Rpleas	Amasked	CS_A	1pleas	distractor1	EVAbeforeCON	acq_US_unple_masked	acq1_masked	1	6	0	0	300	300	0	0	797	46	0	1	0	0	0	1	blank2r.bmp	0	1	+	0	3	B3r.bmp	492	1	blank2r.bmp	786	1	DHJF	786	1	blank2r.bmp	866	1	gierig	866	0	0	0	0	0	0	0	0	0	0	0	0	0	0	0	0	0	0	0	0	0	0	0	0	0	0	0	0	0	0	0	0	0
040419	12:06:25	12:07:23	56163	5.0.10.0	4_exp_EVA_AMP_AWA_CON	186	Rpleas_acq	Same	Rpleas	Amasked	CS_A	1pleas	distractor1	EVAbeforeCON	acq_new_pleas_masked	acq1_masked	1	7	0	0	300	300	0	0	520	50	0	1	0	0	0	1	blank2r.bmp	0	1	+	0	7	C3r.bmp	492	1	blank2r.bmp	786	5	C1r.bmp	786	1	blank2r.bmp	866	5	besonnen	866	0	0	0	0	0	0	0	0	0	0	0	0	0	0	0	0	0	0	0	0	0	0	0	0	0	0	0	0	0	0	0	0	0
040419	12:06:25	12:07:25	58242	5.0.10.0	4_exp_EVA_AMP_AWA_CON	186	Rpleas_acq	Same	Rpleas	Amasked	CS_A	1pleas	distractor1	EVAbeforeCON	acq_new_pleas_masked	acq1_masked	1	8	0	0	300	300	0	0	599	50	0	1	0	0	0	1	blank2r.bmp	0	1	+	0	5	C1r.bmp	492	1	blank2r.bmp	786	4	B4r.bmp	786	1	blank2r.bmp	866	1	vertrauen	866	0	0	0	0	0	0	0	0	0	0	0	0	0	0	0	0	0	0	0	0	0	0	0	0	0	0	0	0	0	0	0	0	0
040419	12:06:25	12:07:27	60321	5.0.10.0	4_exp_EVA_AMP_AWA_CON	186	Rpleas_acq	Same	Rpleas	Amasked	CS_A	1pleas	distractor1	EVAbeforeCON	acq_US_unple_masked	acq1_masked	1	9	0	0	300	300	0	0	598	46	0	1	0	0	0	1	blank2r.bmp	0	1	+	0	5	C1r.bmp	492	1	blank2r.bmp	786	1	DHJF	786	1	blank2r.bmp	866	2	sterben	866	0	0	0	0	0	0	0	0	0	0	0	0	0	0	0	0	0	0	0	0	0	0	0	0	0	0	0	0	0	0	0	0	0
040419	12:06:25	12:07:30	62573	5.0.10.0	4_exp_EVA_AMP_AWA_CON	186	Rpleas_acq	Same	Rpleas	Amasked	CS_A	1pleas	distractor1	EVAbeforeCON	acq_new_unple_masked	acq1_masked	1	10	0	0	300	300	0	0	771	46	0	1	0	0	0	1	blank2r.bmp	0	1	+	0	3	B3r.bmp	492	1	blank2r.bmp	786	7	C3r.bmp	786	1	blank2r.bmp	866	1	versagen	866	0	0	0	0	0	0	0	0	0	0	0	0	0	0	0	0	0	0	0	0	0	0	0	0	0	0	0	0	0	0	0	0	0
040419	12:06:25	12:07:32	64613	5.0.10.0	4_exp_EVA_AMP_AWA_CON	186	Rpleas_acq	Same	Rpleas	Amasked	CS_A	1pleas	distractor1	EVAbeforeCON	acq_US_unple_masked	acq1_masked	1	11	0	0	300	300	0	0	566	46	0	1	0	0	0	1	blank2r.bmp	0	1	+	0	4	B4r.bmp	492	1	blank2r.bmp	786	1	DHJF	786	1	blank2r.bmp	866	5	gemein	866	0	0	0	0	0	0	0	0	0	0	0	0	0	0	0	0	0	0	0	0	0	0	0	0	0	0	0	0	0	0	0	0	0
040419	12:06:25	12:07:34	66652	5.0.10.0	4_exp_EVA_AMP_AWA_CON	186	Rpleas_acq	Same	Rpleas	Amasked	CS_A	1pleas	distractor1	EVAbeforeCON	acq_US_pleas_masked	acq1_masked	1	12	0	0	300	300	0	0	556	50	0	1	0	0	0	1	blank2r.bmp	0	1	+	0	1	B1r.bmp	492	1	blank2r.bmp	786	1	CPLW	786	1	blank2r.bmp	866	6	vergnügt	866	0	0	0	0	0	0	0	0	0	0	0	0	0	0	0	0	0	0	0	0	0	0	0	0	0	0	0	0	0	0	0	0	0
040419	12:06:25	12:07:36	68891	5.0.10.0	4_exp_EVA_AMP_AWA_CON	186	Rpleas_acq	Same	Rpleas	Amasked	CS_A	1pleas	distractor1	EVAbeforeCON	acq_new_pleas_masked	acq1_masked	1	13	0	0	300	300	0	0	747	50	0	1	0	0	0	1	blank2r.bmp	0	1	+	0	7	C3r.bmp	492	1	blank2r.bmp	786	1	B1r.bmp	786	1	blank2r.bmp	866	3	kreativ	866	0	0	0	0	0	0	0	0	0	0	0	0	0	0	0	0	0	0	0	0	0	0	0	0	0	0	0	0	0	0	0	0	0
040419	12:06:25	12:07:39	71610	5.0.10.0	4_exp_EVA_AMP_AWA_CON	186	Rpleas_acq	Same	Rpleas	Amasked	CS_A	1pleas	distractor1	EVAbeforeCON	acq_new_unple_masked	acq1_masked	1	14	0	0	300	300	0	0	1244	46	0	1	0	0	0	1	blank2r.bmp	0	1	+	0	6	C2r.bmp	492	1	blank2r.bmp	786	2	B2r.bmp	786	1	blank2r.bmp	866	2	geizig	866	0	0	0	0	0	0	0	0	0	0	0	0	0	0	0	0	0	0	0	0	0	0	0	0	0	0	0	0	0	0	0	0	0
040419	12:06:25	12:07:41	74262	5.0.10.0	4_exp_EVA_AMP_AWA_CON	186	Rpleas_acq	Same	Rpleas	Amasked	CS_A	1pleas	distractor1	EVAbeforeCON	acq_new_unple_masked	acq1_masked	1	15	0	0	300	300	0	0	1179	46	0	1	0	0	0	1	blank2r.bmp	0	1	+	0	2	B2r.bmp	492	1	blank2r.bmp	786	5	C1r.bmp	786	1	blank2r.bmp	866	5	bange	866	0	0	0	0	0	0	0	0	0	0	0	0	0	0	0	0	0	0	0	0	0	0	0	0	0	0	0	0	0	0	0	0	0
040419	12:06:25	12:07:43	76261	5.0.10.0	4_exp_EVA_AMP_AWA_CON	186	Rpleas_acq	Same	Rpleas	Amasked	CS_A	1pleas	distractor1	EVAbeforeCON	acq_new_unple_masked	acq1_masked	1	16	0	0	300	300	0	0	506	46	0	1	0	0	0	1	blank2r.bmp	0	1	+	0	8	C4r.bmp	492	1	blank2r.bmp	786	6	C2r.bmp	786	1	blank2r.bmp	866	3	krank	866	0	0	0	0	0	0	0	0	0	0	0	0	0	0	0	0	0	0	0	0	0	0	0	0	0	0	0	0	0	0	0	0	0
040419	12:06:25	12:07:45	78234	5.0.10.0	4_exp_EVA_AMP_AWA_CON	186	Rpleas_acq	Same	Rpleas	Amasked	CS_A	1pleas	distractor1	EVAbeforeCON	acq_US_pleas_masked	acq1_masked	1	17	0	0	300	300	0	0	497	50	0	1	0	0	0	1	blank2r.bmp	0	1	+	0	4	B4r.bmp	492	1	blank2r.bmp	786	1	CPLW	786	1	blank2r.bmp	866	4	engagiert	866	0	0	0	0	0	0	0	0	0	0	0	0	0	0	0	0	0	0	0	0	0	0	0	0	0	0	0	0	0	0	0	0	0
040419	12:06:25	12:07:48	80459	5.0.10.0	4_exp_EVA_AMP_AWA_CON	186	Rpleas_acq	Same	Rpleas	Amasked	CS_A	1pleas	distractor1	EVAbeforeCON	acq_new_pleas_masked	acq1_masked	1	18	0	0	300	300	0	0	747	50	0	1	0	0	0	1	blank2r.bmp	0	1	+	0	7	C3r.bmp	492	1	blank2r.bmp	786	8	C4r.bmp	786	1	blank2r.bmp	866	6	anregung	866	0	0	0	0	0	0	0	0	0	0	0	0	0	0	0	0	0	0	0	0	0	0	0	0	0	0	0	0	0	0	0	0	0
040419	12:06:25	12:07:50	82485	5.0.10.0	4_exp_EVA_AMP_AWA_CON	186	Rpleas_acq	Same	Rpleas	Amasked	CS_A	1pleas	distractor1	EVAbeforeCON	acq_US_unple_masked	acq1_masked	1	19	0	0	300	300	0	0	538	46	0	1	0	0	0	1	blank2r.bmp	0	1	+	0	5	C1r.bmp	492	1	blank2r.bmp	786	1	DHJF	786	1	blank2r.bmp	866	6	verbissen	866	0	0	0	0	0	0	0	0	0	0	0	0	0	0	0	0	0	0	0	0	0	0	0	0	0	0	0	0	0	0	0	0	0
040419	12:06:25	12:07:52	84564	5.0.10.0	4_exp_EVA_AMP_AWA_CON	186	Rpleas_acq	Same	Rpleas	Amasked	CS_A	1pleas	distractor1	EVAbeforeCON	acq_US_unple_masked	acq1_masked	1	20	0	0	300	300	0	0	597	46	0	1	0	0	0	1	blank2r.bmp	0	1	+	0	2	B2r.bmp	492	1	blank2r.bmp	786	1	DHJF	786	1	blank2r.bmp	866	4	engstirnig	866	0	0	0	0	0	0	0	0	0	0	0	0	0	0	0	0	0	0	0	0	0	0	0	0	0	0	0	0	0	0	0	0	0
040419	12:06:25	12:07:54	86537	5.0.10.0	4_exp_EVA_AMP_AWA_CON	186	Rpleas_acq	Same	Rpleas	Amasked	CS_A	1pleas	distractor1	EVAbeforeCON	acq_US_pleas_masked	acq1_masked	1	21	0	0	300	300	0	0	478	50	0	1	0	0	0	1	blank2r.bmp	0	1	+	0	3	B3r.bmp	492	1	blank2r.bmp	786	1	CPLW	786	1	blank2r.bmp	866	5	genießen	866	0	0	0	0	0	0	0	0	0	0	0	0	0	0	0	0	0	0	0	0	0	0	0	0	0	0	0	0	0	0	0	0	0
040419	12:06:25	12:07:56	88509	5.0.10.0	4_exp_EVA_AMP_AWA_CON	186	Rpleas_acq	Same	Rpleas	Amasked	CS_A	1pleas	distractor1	EVAbeforeCON	acq_new_pleas_masked	acq1_masked	1	22	0	0	300	300	0	0	498	50	0	1	0	0	0	1	blank2r.bmp	0	1	+	0	8	C4r.bmp	492	1	blank2r.bmp	786	4	B4r.bmp	786	1	blank2r.bmp	866	4	kuss	866	0	0	0	0	0	0	0	0	0	0	0	0	0	0	0	0	0	0	0	0	0	0	0	0	0	0	0	0	0	0	0	0	0
040419	12:06:25	12:07:58	90429	5.0.10.0	4_exp_EVA_AMP_AWA_CON	186	Rpleas_acq	Same	Rpleas	Amasked	CS_A	1pleas	distractor1	EVAbeforeCON	acq_US_pleas_masked	acq1_masked	1	23	0	0	300	300	0	0	432	50	0	1	0	0	0	1	blank2r.bmp	0	1	+	0	6	C2r.bmp	492	1	blank2r.bmp	786	1	CPLW	786	1	blank2r.bmp	866	3	träumen	866	0	0	0	0	0	0	0	0	0	0	0	0	0	0	0	0	0	0	0	0	0	0	0	0	0	0	0	0	0	0	0	0	0
040419	12:06:25	12:07:59	92348	5.0.10.0	4_exp_EVA_AMP_AWA_CON	186	Rpleas_acq	Same	Rpleas	Amasked	CS_A	1pleas	distractor1	EVAbeforeCON	acq_US_unple_masked	acq1_masked	1	24	0	0	300	300	0	0	437	46	0	1	0	0	0	1	blank2r.bmp	0	1	+	0	1	B1r.bmp	492	1	blank2r.bmp	786	1	DHJF	786	1	blank2r.bmp	866	3	töten	866	0	0	0	0	0	0	0	0	0	0	0	0	0	0	0	0	0	0	0	0	0	0	0	0	0	0	0	0	0	0	0	0	0
040419	12:06:25	12:08:02	94733	5.0.10.0	4_exp_EVA_AMP_AWA_CON	186	Rpleas_acq	Same	Rpleas	Amasked	CS_A	1pleas	distractor1	EVAbeforeCON	acq_new_pleas_masked	acq1_masked	1	25	0	0	300	300	0	0	892	50	0	1	0	0	0	1	blank2r.bmp	0	1	+	0	2	B2r.bmp	492	1	blank2r.bmp	786	3	B3r.bmp	786	1	blank2r.bmp	866	5	besonnen	866	0	0	0	0	0	0	0	0	0	0	0	0	0	0	0	0	0	0	0	0	0	0	0	0	0	0	0	0	0	0	0	0	0
040419	12:06:25	12:08:04	96773	5.0.10.0	4_exp_EVA_AMP_AWA_CON	186	Rpleas_acq	Same	Rpleas	Amasked	CS_A	1pleas	distractor1	EVAbeforeCON	acq_US_unple_masked	acq1_masked	1	26	0	0	300	300	0	0	569	46	0	1	0	0	0	1	blank2r.bmp	0	1	+	0	7	C3r.bmp	492	1	blank2r.bmp	786	1	DHJF	786	1	blank2r.bmp	866	4	engstirnig	866	0	0	0	0	0	0	0	0	0	0	0	0	0	0	0	0	0	0	0	0	0	0	0	0	0	0	0	0	0	0	0	0	0
040419	12:06:25	12:08:06	98745	5.0.10.0	4_exp_EVA_AMP_AWA_CON	186	Rpleas_acq	Same	Rpleas	Amasked	CS_A	1pleas	distractor1	EVAbeforeCON	acq_new_unple_masked	acq1_masked	1	27	0	0	300	300	0	0	488	46	0	1	0	0	0	1	blank2r.bmp	0	1	+	0	5	C1r.bmp	492	1	blank2r.bmp	786	7	C3r.bmp	786	1	blank2r.bmp	866	3	krank	866	0	0	0	0	0	0	0	0	0	0	0	0	0	0	0	0	0	0	0	0	0	0	0	0	0	0	0	0	0	0	0	0	0
040419	12:06:25	12:08:08	100971	5.0.10.0	4_exp_EVA_AMP_AWA_CON	186	Rpleas_acq	Same	Rpleas	Amasked	CS_A	1pleas	distractor1	EVAbeforeCON	acq_US_unple_masked	acq1_masked	1	28	0	0	300	300	0	0	522	50	0	0	0	0	0	1	blank2r.bmp	0	1	+	0	3	B3r.bmp	492	1	blank2r.bmp	786	1	DHJF	786	1	blank2r.bmp	866	1	gierig	866	1	FEHLER	1426	0	0	0	0	0	0	0	0	0	0	0	0	0	0	0	0	0	0	0	0	0	0	0	0	0	0	0	0	0	0
040419	12:06:25	12:08:11	103583	5.0.10.0	4_exp_EVA_AMP_AWA_CON	186	Rpleas_acq	Same	Rpleas	Amasked	CS_A	1pleas	distractor1	EVAbeforeCON	acq_new_unple_masked	acq1_masked	1	29	0	0	300	300	0	0	1338	46	0	1	0	0	0	1	blank2r.bmp	0	1	+	0	1	B1r.bmp	492	1	blank2r.bmp	786	2	B2r.bmp	786	1	blank2r.bmp	866	5	bange	866	0	0	0	0	0	0	0	0	0	0	0	0	0	0	0	0	0	0	0	0	0	0	0	0	0	0	0	0	0	0	0	0	0
040419	12:06:25	12:08:13	105889	5.0.10.0	4_exp_EVA_AMP_AWA_CON	186	Rpleas_acq	Same	Rpleas	Amasked	CS_A	1pleas	distractor1	EVAbeforeCON	acq_new_pleas_masked	acq1_masked	1	30	0	0	300	300	0	0	826	50	0	1	0	0	0	1	blank2r.bmp	0	1	+	0	6	C2r.bmp	492	1	blank2r.bmp	786	1	B1r.bmp	786	1	blank2r.bmp	866	2	gesittet	866	0	0	0	0	0	0	0	0	0	0	0	0	0	0	0	0	0	0	0	0	0	0	0	0	0	0	0	0	0	0	0	0	0
040419	12:06:25	12:08:15	107941	5.0.10.0	4_exp_EVA_AMP_AWA_CON	186	Rpleas_acq	Same	Rpleas	Amasked	CS_A	1pleas	distractor1	EVAbeforeCON	acq_US_pleas_masked	acq1_masked	1	31	0	0	300	300	0	0	563	50	0	1	0	0	0	1	blank2r.bmp	0	1	+	0	8	C4r.bmp	492	1	blank2r.bmp	786	1	CPLW	786	1	blank2r.bmp	866	3	träumen	866	0	0	0	0	0	0	0	0	0	0	0	0	0	0	0	0	0	0	0	0	0	0	0	0	0	0	0	0	0	0	0	0	0
040419	12:06:25	12:08:17	110300	5.0.10.0	4_exp_EVA_AMP_AWA_CON	186	Rpleas_acq	Same	Rpleas	Amasked	CS_A	1pleas	distractor1	EVAbeforeCON	acq_US_pleas_masked	acq1_masked	1	32	0	0	300	300	0	0	878	50	0	1	0	0	0	1	blank2r.bmp	0	1	+	0	4	B4r.bmp	492	1	blank2r.bmp	786	1	CPLW	786	1	blank2r.bmp	866	6	vergnügt	866	0	0	0	0	0	0	0	0	0	0	0	0	0	0	0	0	0	0	0	0	0	0	0	0	0	0	0	0	0	0	0	0	0
040419	12:06:25	12:08:20	112579	5.0.10.0	4_exp_EVA_AMP_AWA_CON	186	Rpleas_acq	Same	Rpleas	Amasked	CS_A	1pleas	distractor1	EVAbeforeCON	acq_new_pleas_masked	acq1_masked	1	33	0	0	300	300	0	0	801	50	0	1	0	0	0	1	blank2r.bmp	0	1	+	0	7	C3r.bmp	492	1	blank2r.bmp	786	8	C4r.bmp	786	1	blank2r.bmp	866	1	vertrauen	866	0	0	0	0	0	0	0	0	0	0	0	0	0	0	0	0	0	0	0	0	0	0	0	0	0	0	0	0	0	0	0	0	0
040419	12:06:25	12:08:22	114552	5.0.10.0	4_exp_EVA_AMP_AWA_CON	186	Rpleas_acq	Same	Rpleas	Amasked	CS_A	1pleas	distractor1	EVAbeforeCON	acq_US_pleas_masked	acq1_masked	1	34	0	0	300	300	0	0	478	50	0	1	0	0	0	1	blank2r.bmp	0	1	+	0	3	B3r.bmp	492	1	blank2r.bmp	786	1	CPLW	786	1	blank2r.bmp	866	1	gütig	866	0	0	0	0	0	0	0	0	0	0	0	0	0	0	0	0	0	0	0	0	0	0	0	0	0	0	0	0	0	0	0	0	0
040419	12:06:25	12:08:24	116578	5.0.10.0	4_exp_EVA_AMP_AWA_CON	186	Rpleas_acq	Same	Rpleas	Amasked	CS_A	1pleas	distractor1	EVAbeforeCON	acq_new_unple_masked	acq1_masked	1	35	0	0	300	300	0	0	545	46	0	1	0	0	0	1	blank2r.bmp	0	1	+	0	4	B4r.bmp	492	1	blank2r.bmp	786	3	B3r.bmp	786	1	blank2r.bmp	866	4	krise	866	0	0	0	0	0	0	0	0	0	0	0	0	0	0	0	0	0	0	0	0	0	0	0	0	0	0	0	0	0	0	0	0	0
040419	12:06:25	12:08:27	119696	5.0.10.0	4_exp_EVA_AMP_AWA_CON	186	Rpleas_acq	Same	Rpleas	Amasked	CS_A	1pleas	distractor1	EVAbeforeCON	acq_US_unple_masked	acq1_masked	1	36	0	0	300	300	0	0	1645	46	0	1	0	0	0	1	blank2r.bmp	0	1	+	0	5	C1r.bmp	492	1	blank2r.bmp	786	1	DHJF	786	1	blank2r.bmp	866	6	verbissen	866	0	0	0	0	0	0	0	0	0	0	0	0	0	0	0	0	0	0	0	0	0	0	0	0	0	0	0	0	0	0	0	0	0
040419	12:06:25	12:08:54	146632	5.0.10.0	4_exp_EVA_AMP_AWA_CON	186	Rpleas_acq	Same	Rpleas	Amasked	CS_A	1pleas	distractor1	EVAbeforeCON	acq_new_pleas_masked	acq2_masked	2	1	480	0	300	300	0	0	918	50	0	1	0	0	0	1	blank2r.bmp	0	1	+	0	6	C2r.bmp	492	1	blank2r.bmp	786	4	B4r.bmp	786	1	blank2r.bmp	866	6	anregung	866	1	!	1319	1	!	-1	0	0	0	0	0	0	0	0	0	0	0	0	0	0	0	0	0	0	0	0	0	0	0	0	0	0	0
040419	12:06:25	12:08:56	148951	5.0.10.0	4_exp_EVA_AMP_AWA_CON	186	Rpleas_acq	Same	Rpleas	Amasked	CS_A	1pleas	distractor1	EVAbeforeCON	acq_US_pleas_masked	acq2_masked	2	2	480	1	300	300	0	0	517	50	0	1	0	0	0	1	blank2r.bmp	0	1	+	0	8	C4r.bmp	492	1	blank2r.bmp	786	1	CPLW	786	1	blank2r.bmp	866	4	engagiert	866	1	!	1319	1	!	1412	0	0	0	0	0	0	0	0	0	0	0	0	0	0	0	0	0	0	0	0	0	0	0	0	0	0	0
040419	12:06:25	12:08:58	151203	5.0.10.0	4_exp_EVA_AMP_AWA_CON	186	Rpleas_acq	Same	Rpleas	Amasked	CS_A	1pleas	distractor1	EVAbeforeCON	acq_US_unple_masked	acq2_masked	2	3	480	1	300	300	0	0	461	46	0	1	0	0	0	1	blank2r.bmp	0	1	+	0	1	B1r.bmp	492	1	blank2r.bmp	786	1	DHJF	786	1	blank2r.bmp	866	5	gemein	866	1	!	1319	1	!	1359	0	0	0	0	0	0	0	0	0	0	0	0	0	0	0	0	0	0	0	0	0	0	0	0	0	0	0
040419	12:06:25	12:09:01	153509	5.0.10.0	4_exp_EVA_AMP_AWA_CON	186	Rpleas_acq	Same	Rpleas	Amasked	CS_A	1pleas	distractor1	EVAbeforeCON	acq_new_pleas_masked	acq2_masked	2	4	480	1	300	300	0	0	514	50	0	1	0	0	0	1	blank2r.bmp	0	1	+	0	2	B2r.bmp	492	1	blank2r.bmp	786	6	C2r.bmp	786	1	blank2r.bmp	866	4	kuss	866	1	!	1319	1	!	1412	0	0	0	0	0	0	0	0	0	0	0	0	0	0	0	0	0	0	0	0	0	0	0	0	0	0	0
040419	12:06:25	12:09:03	155735	5.0.10.0	4_exp_EVA_AMP_AWA_CON	186	Rpleas_acq	Same	Rpleas	Amasked	CS_A	1pleas	distractor1	EVAbeforeCON	acq_new_pleas_masked	acq2_masked	2	5	480	1	300	300	0	0	426	50	0	1	0	0	0	1	blank2r.bmp	0	1	+	0	5	C1r.bmp	492	1	blank2r.bmp	786	1	B1r.bmp	786	1	blank2r.bmp	866	3	kreativ	866	1	!	1319	1	!	1332	0	0	0	0	0	0	0	0	0	0	0	0	0	0	0	0	0	0	0	0	0	0	0	0	0	0	0
040419	12:06:25	12:09:05	157961	5.0.10.0	4_exp_EVA_AMP_AWA_CON	186	Rpleas_acq	Same	Rpleas	Amasked	CS_A	1pleas	distractor1	EVAbeforeCON	acq_US_pleas_masked	acq2_masked	2	6	480	1	300	300	0	0	426	50	0	1	0	0	0	1	blank2r.bmp	0	1	+	0	1	B1r.bmp	492	1	blank2r.bmp	786	1	CPLW	786	1	blank2r.bmp	866	5	genießen	866	1	!	1319	1	!	1332	0	0	0	0	0	0	0	0	0	0	0	0	0	0	0	0	0	0	0	0	0	0	0	0	0	0	0
040419	12:06:25	12:09:07	160226	5.0.10.0	4_exp_EVA_AMP_AWA_CON	186	Rpleas_acq	Same	Rpleas	Amasked	CS_A	1pleas	distractor1	EVAbeforeCON	acq_US_unple_masked	acq2_masked	2	7	480	1	300	300	0	0	465	46	0	1	0	0	0	1	blank2r.bmp	0	1	+	0	6	C2r.bmp	492	1	blank2r.bmp	786	1	DHJF	786	1	blank2r.bmp	866	2	sterben	866	1	!	1319	1	!	1372	0	0	0	0	0	0	0	0	0	0	0	0	0	0	0	0	0	0	0	0	0	0	0	0	0	0	0
040419	12:06:25	12:09:10	162599	5.0.10.0	4_exp_EVA_AMP_AWA_CON	186	Rpleas_acq	Same	Rpleas	Amasked	CS_A	1pleas	distractor1	EVAbeforeCON	acq_new_unple_masked	acq2_masked	2	8	480	0	300	300	0	0	606	46	0	1	0	0	0	1	blank2r.bmp	0	1	+	0	2	B2r.bmp	492	1	blank2r.bmp	786	5	C1r.bmp	786	1	blank2r.bmp	866	1	versagen	866	1	!	1319	1	!	-1	0	0	0	0	0	0	0	0	0	0	0	0	0	0	0	0	0	0	0	0	0	0	0	0	0	0	0
040419	12:06:25	12:09:12	164891	5.0.10.0	4_exp_EVA_AMP_AWA_CON	186	Rpleas_acq	Same	Rpleas	Amasked	CS_A	1pleas	distractor1	EVAbeforeCON	acq_US_unple_masked	acq2_masked	2	9	480	1	300	300	0	0	473	46	0	1	0	0	0	1	blank2r.bmp	0	1	+	0	8	C4r.bmp	492	1	blank2r.bmp	786	1	DHJF	786	1	blank2r.bmp	866	3	töten	866	1	!	1319	1	!	1372	0	0	0	0	0	0	0	0	0	0	0	0	0	0	0	0	0	0	0	0	0	0	0	0	0	0	0
040419	12:06:25	12:09:14	167197	5.0.10.0	4_exp_EVA_AMP_AWA_CON	186	Rpleas_acq	Same	Rpleas	Amasked	CS_A	1pleas	distractor1	EVAbeforeCON	acq_new_unple_masked	acq2_masked	2	10	480	1	300	300	0	0	507	46	0	1	0	0	0	1	blank2r.bmp	0	1	+	0	3	B3r.bmp	492	1	blank2r.bmp	786	7	C3r.bmp	786	1	blank2r.bmp	866	6	ausrottung	866	1	!	1319	1	!	1412	0	0	0	0	0	0	0	0	0	0	0	0	0	0	0	0	0	0	0	0	0	0	0	0	0	0	0
040419	12:06:25	12:09:17	169449	5.0.10.0	4_exp_EVA_AMP_AWA_CON	186	Rpleas_acq	Same	Rpleas	Amasked	CS_A	1pleas	distractor1	EVAbeforeCON	acq_US_pleas_masked	acq2_masked	2	11	480	1	300	300	0	0	447	50	0	1	0	0	0	1	blank2r.bmp	0	1	+	0	7	C3r.bmp	492	1	blank2r.bmp	786	1	CPLW	786	1	blank2r.bmp	866	2	sonnig	866	1	!	1319	1	!	1346	0	0	0	0	0	0	0	0	0	0	0	0	0	0	0	0	0	0	0	0	0	0	0	0	0	0	0
040419	12:06:25	12:09:19	171928	5.0.10.0	4_exp_EVA_AMP_AWA_CON	186	Rpleas_acq	Same	Rpleas	Amasked	CS_A	1pleas	distractor1	EVAbeforeCON	acq_new_unple_masked	acq2_masked	2	12	480	1	300	300	0	0	470	50	0	0	0	0	0	1	blank2r.bmp	0	1	+	0	4	B4r.bmp	492	1	blank2r.bmp	786	2	B2r.bmp	786	1	blank2r.bmp	866	2	geizig	866	1	FEHLER	1692	1	!	1319	1	!	1372	0	0	0	0	0	0	0	0	0	0	0	0	0	0	0	0	0	0	0	0	0	0	0	0
040419	12:06:25	12:09:21	173807	5.0.10.0	4_exp_EVA_AMP_AWA_CON	186	Rpleas_acq	Same	Rpleas	Amasked	CS_A	1pleas	distractor1	EVAbeforeCON	acq_US_unple_masked	acq2_masked	2	13	480	0	300	300	0	0	320	46	0	1	0	0	0	1	blank2r.bmp	0	1	+	0	1	B1r.bmp	492	1	blank2r.bmp	786	1	DHJF	786	1	blank2r.bmp	866	5	gemein	866	1	!	-1	1	!	-1	0	0	0	0	0	0	0	0	0	0	0	0	0	0	0	0	0	0	0	0	0	0	0	0	0	0	0
040419	12:06:25	12:09:23	176060	5.0.10.0	4_exp_EVA_AMP_AWA_CON	186	Rpleas_acq	Same	Rpleas	Amasked	CS_A	1pleas	distractor1	EVAbeforeCON	acq_US_pleas_masked	acq2_masked	2	14	480	1	300	300	0	0	439	50	0	1	0	0	0	1	blank2r.bmp	0	1	+	0	2	B2r.bmp	492	1	blank2r.bmp	786	1	CPLW	786	1	blank2r.bmp	866	3	träumen	866	1	!	1319	1	!	1346	0	0	0	0	0	0	0	0	0	0	0	0	0	0	0	0	0	0	0	0	0	0	0	0	0	0	0
040419	12:06:25	12:09:25	178286	5.0.10.0	4_exp_EVA_AMP_AWA_CON	186	Rpleas_acq	Same	Rpleas	Amasked	CS_A	1pleas	distractor1	EVAbeforeCON	acq_new_pleas_masked	acq2_masked	2	15	480	1	300	300	0	0	426	50	0	1	0	0	0	1	blank2r.bmp	0	1	+	0	7	C3r.bmp	492	1	blank2r.bmp	786	5	C1r.bmp	786	1	blank2r.bmp	866	3	kreativ	866	1	!	1319	1	!	1332	0	0	0	0	0	0	0	0	0	0	0	0	0	0	0	0	0	0	0	0	0	0	0	0	0	0	0
040419	12:06:25	12:09:28	180538	5.0.10.0	4_exp_EVA_AMP_AWA_CON	186	Rpleas_acq	Same	Rpleas	Amasked	CS_A	1pleas	distractor1	EVAbeforeCON	acq_new_unple_masked	acq2_masked	2	16	480	1	300	300	0	0	463	46	0	1	0	0	0	1	blank2r.bmp	0	1	+	0	4	B4r.bmp	492	1	blank2r.bmp	786	6	C2r.bmp	786	1	blank2r.bmp	866	5	bange	866	1	!	1319	1	!	1359	0	0	0	0	0	0	0	0	0	0	0	0	0	0	0	0	0	0	0	0	0	0	0	0	0	0	0
040419	12:06:25	12:09:30	182990	5.0.10.0	4_exp_EVA_AMP_AWA_CON	186	Rpleas_acq	Same	Rpleas	Amasked	CS_A	1pleas	distractor1	EVAbeforeCON	acq_US_pleas_masked	acq2_masked	2	17	480	1	300	300	0	0	451	46	0	0	0	0	0	1	blank2r.bmp	0	1	+	0	3	B3r.bmp	492	1	blank2r.bmp	786	1	CPLW	786	1	blank2r.bmp	866	1	gütig	866	1	FEHLER	1665	1	!	1319	1	!	1346	0	0	0	0	0	0	0	0	0	0	0	0	0	0	0	0	0	0	0	0	0	0	0	0
040419	12:06:25	12:09:32	185096	5.0.10.0	4_exp_EVA_AMP_AWA_CON	186	Rpleas_acq	Same	Rpleas	Amasked	CS_A	1pleas	distractor1	EVAbeforeCON	acq_US_pleas_masked	acq2_masked	2	18	480	1	300	300	0	0	531	50	0	1	0	0	0	1	blank2r.bmp	0	1	+	0	5	C1r.bmp	492	1	blank2r.bmp	786	1	CPLW	786	1	blank2r.bmp	866	4	engagiert	866	1	!	1319	1	!	1426	0	0	0	0	0	0	0	0	0	0	0	0	0	0	0	0	0	0	0	0	0	0	0	0	0	0	0
040419	12:06:25	12:09:34	187349	5.0.10.0	4_exp_EVA_AMP_AWA_CON	186	Rpleas_acq	Same	Rpleas	Amasked	CS_A	1pleas	distractor1	EVAbeforeCON	acq_US_unple_masked	acq2_masked	2	19	480	1	300	300	0	0	464	46	0	1	0	0	0	1	blank2r.bmp	0	1	+	0	8	C4r.bmp	492	1	blank2r.bmp	786	1	DHJF	786	1	blank2r.bmp	866	2	sterben	866	1	!	1319	1	!	1359	0	0	0	0	0	0	0	0	0	0	0	0	0	0	0	0	0	0	0	0	0	0	0	0	0	0	0
040419	12:06:25	12:09:37	189601	5.0.10.0	4_exp_EVA_AMP_AWA_CON	186	Rpleas_acq	Same	Rpleas	Amasked	CS_A	1pleas	distractor1	EVAbeforeCON	acq_US_unple_masked	acq2_masked	2	20	480	1	300	300	0	0	465	46	0	1	0	0	0	1	blank2r.bmp	0	1	+	0	6	C2r.bmp	492	1	blank2r.bmp	786	1	DHJF	786	1	blank2r.bmp	866	4	engstirnig	866	1	!	1319	1	!	1359	0	0	0	0	0	0	0	0	0	0	0	0	0	0	0	0	0	0	0	0	0	0	0	0	0	0	0
040419	12:06:25	12:09:39	191933	5.0.10.0	4_exp_EVA_AMP_AWA_CON	186	Rpleas_acq	Same	Rpleas	Amasked	CS_A	1pleas	distractor1	EVAbeforeCON	acq_new_pleas_masked	acq2_masked	2	21	480	0	300	300	0	0	568	50	0	1	0	0	0	1	blank2r.bmp	0	1	+	0	7	C3r.bmp	492	1	blank2r.bmp	786	3	B3r.bmp	786	1	blank2r.bmp	866	2	gesittet	866	1	!	1319	1	!	-1	0	0	0	0	0	0	0	0	0	0	0	0	0	0	0	0	0	0	0	0	0	0	0	0	0	0	0
040419	12:06:25	12:09:41	194199	5.0.10.0	4_exp_EVA_AMP_AWA_CON	186	Rpleas_acq	Same	Rpleas	Amasked	CS_A	1pleas	distractor1	EVAbeforeCON	acq_new_unple_masked	acq2_masked	2	22	480	1	300	300	0	0	463	46	0	1	0	0	0	1	blank2r.bmp	0	1	+	0	8	C4r.bmp	492	1	blank2r.bmp	786	1	B1r.bmp	786	1	blank2r.bmp	866	6	ausrottung	866	1	!	1319	1	!	1359	0	0	0	0	0	0	0	0	0	0	0	0	0	0	0	0	0	0	0	0	0	0	0	0	0	0	0
040419	12:06:25	12:09:44	196425	5.0.10.0	4_exp_EVA_AMP_AWA_CON	186	Rpleas_acq	Same	Rpleas	Amasked	CS_A	1pleas	distractor1	EVAbeforeCON	acq_new_pleas_masked	acq2_masked	2	23	480	1	300	300	0	0	426	50	0	1	0	0	0	1	blank2r.bmp	0	1	+	0	4	B4r.bmp	492	1	blank2r.bmp	786	2	B2r.bmp	786	1	blank2r.bmp	866	4	kuss	866	1	!	1319	1	!	1332	0	0	0	0	0	0	0	0	0	0	0	0	0	0	0	0	0	0	0	0	0	0	0	0	0	0	0
040419	12:06:25	12:09:46	198717	5.0.10.0	4_exp_EVA_AMP_AWA_CON	186	Rpleas_acq	Same	Rpleas	Amasked	CS_A	1pleas	distractor1	EVAbeforeCON	acq_new_unple_masked	acq2_masked	2	24	480	1	300	300	0	0	492	46	0	1	0	0	0	1	blank2r.bmp	0	1	+	0	2	B2r.bmp	492	1	blank2r.bmp	786	4	B4r.bmp	786	1	blank2r.bmp	866	4	krise	866	1	!	1319	1	!	1399	0	0	0	0	0	0	0	0	0	0	0	0	0	0	0	0	0	0	0	0	0	0	0	0	0	0	0
040419	12:06:25	12:09:48	201076	5.0.10.0	4_exp_EVA_AMP_AWA_CON	186	Rpleas_acq	Same	Rpleas	Amasked	CS_A	1pleas	distractor1	EVAbeforeCON	acq_new_pleas_masked	acq2_masked	2	25	480	0	300	300	0	0	370	46	0	0	0	0	0	1	blank2r.bmp	0	1	+	0	3	B3r.bmp	492	1	blank2r.bmp	786	7	C3r.bmp	786	1	blank2r.bmp	866	6	anregung	866	1	FEHLER	1572	1	!	-1	1	!	-1	0	0	0	0	0	0	0	0	0	0	0	0	0	0	0	0	0	0	0	0	0	0	0	0
040419	12:06:25	12:09:50	203209	5.0.10.0	4_exp_EVA_AMP_AWA_CON	186	Rpleas_acq	Same	Rpleas	Amasked	CS_A	1pleas	distractor1	EVAbeforeCON	acq_new_pleas_masked	acq2_masked	2	26	480	1	300	300	0	0	536	50	0	1	0	0	0	1	blank2r.bmp	0	1	+	0	6	C2r.bmp	492	1	blank2r.bmp	786	8	C4r.bmp	786	1	blank2r.bmp	866	5	besonnen	866	1	!	1319	1	!	1439	0	0	0	0	0	0	0	0	0	0	0	0	0	0	0	0	0	0	0	0	0	0	0	0	0	0	0
040419	12:06:25	12:09:53	205461	5.0.10.0	4_exp_EVA_AMP_AWA_CON	186	Rpleas_acq	Same	Rpleas	Amasked	CS_A	1pleas	distractor1	EVAbeforeCON	acq_new_unple_masked	acq2_masked	2	27	480	1	300	300	0	0	453	46	0	1	0	0	0	1	blank2r.bmp	0	1	+	0	5	C1r.bmp	492	1	blank2r.bmp	786	6	C2r.bmp	786	1	blank2r.bmp	866	2	geizig	866	1	!	1319	1	!	1359	0	0	0	0	0	0	0	0	0	0	0	0	0	0	0	0	0	0	0	0	0	0	0	0	0	0	0
040419	12:06:25	12:09:55	207793	5.0.10.0	4_exp_EVA_AMP_AWA_CON	186	Rpleas_acq	Same	Rpleas	Amasked	CS_A	1pleas	distractor1	EVAbeforeCON	acq_US_unple_masked	acq2_masked	2	28	480	1	300	300	0	0	537	46	0	1	0	0	0	1	blank2r.bmp	0	1	+	0	1	B1r.bmp	492	1	blank2r.bmp	786	1	DHJF	786	1	blank2r.bmp	866	1	gierig	866	1	!	1319	1	!	1439	0	0	0	0	0	0	0	0	0	0	0	0	0	0	0	0	0	0	0	0	0	0	0	0	0	0	0
040419	12:06:25	12:09:57	210046	5.0.10.0	4_exp_EVA_AMP_AWA_CON	186	Rpleas_acq	Same	Rpleas	Amasked	CS_A	1pleas	distractor1	EVAbeforeCON	acq_US_unple_masked	acq2_masked	2	29	480	1	300	300	0	0	459	46	0	1	0	0	0	1	blank2r.bmp	0	1	+	0	6	C2r.bmp	492	1	blank2r.bmp	786	1	DHJF	786	1	blank2r.bmp	866	6	verbissen	866	1	!	1319	1	!	1359	0	0	0	0	0	0	0	0	0	0	0	0	0	0	0	0	0	0	0	0	0	0	0	0	0	0	0
040419	12:06:25	12:09:59	212325	5.0.10.0	4_exp_EVA_AMP_AWA_CON	186	Rpleas_acq	Same	Rpleas	Amasked	CS_A	1pleas	distractor1	EVAbeforeCON	acq_new_unple_masked	acq2_masked	2	30	480	1	300	300	0	0	486	46	0	1	0	0	0	1	blank2r.bmp	0	1	+	0	7	C3r.bmp	492	1	blank2r.bmp	786	8	C4r.bmp	786	1	blank2r.bmp	866	3	krank	866	1	!	1319	1	!	1386	0	0	0	0	0	0	0	0	0	0	0	0	0	0	0	0	0	0	0	0	0	0	0	0	0	0	0
040419	12:06:25	12:10:02	214551	5.0.10.0	4_exp_EVA_AMP_AWA_CON	186	Rpleas_acq	Same	Rpleas	Amasked	CS_A	1pleas	distractor1	EVAbeforeCON	acq_new_unple_masked	acq2_masked	2	31	480	1	300	300	0	0	432	46	0	1	0	0	0	1	blank2r.bmp	0	1	+	0	2	B2r.bmp	492	1	blank2r.bmp	786	3	B3r.bmp	786	1	blank2r.bmp	866	1	versagen	866	1	!	1319	1	!	1332	0	0	0	0	0	0	0	0	0	0	0	0	0	0	0	0	0	0	0	0	0	0	0	0	0	0	0
040419	12:06:25	12:10:04	216723	5.0.10.0	4_exp_EVA_AMP_AWA_CON	186	Rpleas_acq	Same	Rpleas	Amasked	CS_A	1pleas	distractor1	EVAbeforeCON	acq_US_pleas_masked	acq2_masked	2	32	480	0	300	300	0	0	405	50	0	1	0	0	0	1	blank2r.bmp	0	1	+	0	8	C4r.bmp	492	1	blank2r.bmp	786	1	CPLW	786	1	blank2r.bmp	866	2	sonnig	866	1	!	-1	1	!	-1	0	0	0	0	0	0	0	0	0	0	0	0	0	0	0	0	0	0	0	0	0	0	0	0	0	0	0
040419	12:06:25	12:10:06	219069	5.0.10.0	4_exp_EVA_AMP_AWA_CON	186	Rpleas_acq	Same	Rpleas	Amasked	CS_A	1pleas	distractor1	EVAbeforeCON	acq_US_pleas_masked	acq2_masked	2	33	480	1	300	300	0	0	544	50	0	1	0	0	0	1	blank2r.bmp	0	1	+	0	3	B3r.bmp	492	1	blank2r.bmp	786	1	CPLW	786	1	blank2r.bmp	866	5	genießen	866	1	!	1319	1	!	1439	0	0	0	0	0	0	0	0	0	0	0	0	0	0	0	0	0	0	0	0	0	0	0	0	0	0	0
040419	12:06:25	12:10:09	221388	5.0.10.0	4_exp_EVA_AMP_AWA_CON	186	Rpleas_acq	Same	Rpleas	Amasked	CS_A	1pleas	distractor1	EVAbeforeCON	acq_new_pleas_masked	acq2_masked	2	34	480	1	300	300	0	0	521	50	0	1	0	0	0	1	blank2r.bmp	0	1	+	0	1	B1r.bmp	492	1	blank2r.bmp	786	4	B4r.bmp	786	1	blank2r.bmp	866	1	vertrauen	866	1	!	1319	1	!	1426	0	0	0	0	0	0	0	0	0	0	0	0	0	0	0	0	0	0	0	0	0	0	0	0	0	0	0
040419	12:06:25	12:10:11	223694	5.0.10.0	4_exp_EVA_AMP_AWA_CON	186	Rpleas_acq	Same	Rpleas	Amasked	CS_A	1pleas	distractor1	EVAbeforeCON	acq_US_unple_masked	acq2_masked	2	35	480	1	300	300	0	0	505	46	0	1	0	0	0	1	blank2r.bmp	0	1	+	0	5	C1r.bmp	492	1	blank2r.bmp	786	1	DHJF	786	1	blank2r.bmp	866	3	töten	866	1	!	1319	1	!	1412	0	0	0	0	0	0	0	0	0	0	0	0	0	0	0	0	0	0	0	0	0	0	0	0	0	0	0
040419	12:06:25	12:10:13	225959	5.0.10.0	4_exp_EVA_AMP_AWA_CON	186	Rpleas_acq	Same	Rpleas	Amasked	CS_A	1pleas	distractor1	EVAbeforeCON	acq_US_pleas_masked	acq2_masked	2	36	480	1	300	300	0	0	471	50	0	1	0	0	0	1	blank2r.bmp	0	1	+	0	4	B4r.bmp	492	1	blank2r.bmp	786	1	CPLW	786	1	blank2r.bmp	866	6	vergnügt	866	1	!	1319	1	!	1372	0	0	0	0	0	0	0	0	0	0	0	0	0	0	0	0	0	0	0	0	0	0	0	0	0	0	0
040419	12:06:25	12:10:35	247364	5.0.10.0	4_exp_EVA_AMP_AWA_CON	186	Rpleas_acq	Same	Rpleas	Amasked	CS_A	1pleas	distractor1	EVAbeforeCON	acq_US_unple_masked	acq3_masked	3	1	453	0	300	300	0	0	3838	46	0	1	0	0	0	1	blank2r.bmp	0	1	+	0	2	B2r.bmp	492	1	blank2r.bmp	786	1	DHJF	786	1	blank2r.bmp	866	5	gemein	866	1	!	1292	1	!	-1	0	0	0	0	0	0	0	0	0	0	0	0	0	0	0	0	0	0	0	0	0	0	0	0	0	0	0
040419	12:06:25	12:10:37	249576	5.0.10.0	4_exp_EVA_AMP_AWA_CON	186	Rpleas_acq	Same	Rpleas	Amasked	CS_A	1pleas	distractor1	EVAbeforeCON	acq_US_pleas_masked	acq3_masked	3	2	453	1	300	300	0	0	399	50	0	1	0	0	0	1	blank2r.bmp	0	1	+	0	5	C1r.bmp	492	1	blank2r.bmp	786	1	CPLW	786	1	blank2r.bmp	866	2	sonnig	866	1	!	1292	1	!	1306	0	0	0	0	0	0	0	0	0	0	0	0	0	0	0	0	0	0	0	0	0	0	0	0	0	0	0
040419	12:06:25	12:10:39	251989	5.0.10.0	4_exp_EVA_AMP_AWA_CON	186	Rpleas_acq	Same	Rpleas	Amasked	CS_A	1pleas	distractor1	EVAbeforeCON	acq_US_unple_masked	acq3_masked	3	3	453	1	300	300	0	0	410	50	0	0	0	0	0	1	blank2r.bmp	0	1	+	0	1	B1r.bmp	492	1	blank2r.bmp	786	1	DHJF	786	1	blank2r.bmp	866	2	sterben	866	1	FEHLER	1625	1	!	1292	1	!	1306	0	0	0	0	0	0	0	0	0	0	0	0	0	0	0	0	0	0	0	0	0	0	0	0
040419	12:06:25	12:10:41	254014	5.0.10.0	4_exp_EVA_AMP_AWA_CON	186	Rpleas_acq	Same	Rpleas	Amasked	CS_A	1pleas	distractor1	EVAbeforeCON	acq_US_unple_masked	acq3_masked	3	4	453	1	300	300	0	0	447	46	0	1	0	0	0	1	blank2r.bmp	0	1	+	0	3	B3r.bmp	492	1	blank2r.bmp	786	1	DHJF	786	1	blank2r.bmp	866	3	töten	866	1	!	1292	1	!	1346	0	0	0	0	0	0	0	0	0	0	0	0	0	0	0	0	0	0	0	0	0	0	0	0	0	0	0
040419	12:06:25	12:10:43	256253	5.0.10.0	4_exp_EVA_AMP_AWA_CON	186	Rpleas_acq	Same	Rpleas	Amasked	CS_A	1pleas	distractor1	EVAbeforeCON	acq_US_pleas_masked	acq3_masked	3	5	453	1	300	300	0	0	443	50	0	1	0	0	0	1	blank2r.bmp	0	1	+	0	8	C4r.bmp	492	1	blank2r.bmp	786	1	CPLW	786	1	blank2r.bmp	866	1	gütig	866	1	!	1292	1	!	1346	0	0	0	0	0	0	0	0	0	0	0	0	0	0	0	0	0	0	0	0	0	0	0	0	0	0	0
040419	12:06:25	12:10:46	258466	5.0.10.0	4_exp_EVA_AMP_AWA_CON	186	Rpleas_acq	Same	Rpleas	Amasked	CS_A	1pleas	distractor1	EVAbeforeCON	acq_US_pleas_masked	acq3_masked	3	6	453	1	300	300	0	0	416	50	0	1	0	0	0	1	blank2r.bmp	0	1	+	0	6	C2r.bmp	492	1	blank2r.bmp	786	1	CPLW	786	1	blank2r.bmp	866	3	träumen	866	1	!	1292	1	!	1319	0	0	0	0	0	0	0	0	0	0	0	0	0	0	0	0	0	0	0	0	0	0	0	0	0	0	0
040419	12:06:25	12:10:48	260772	5.0.10.0	4_exp_EVA_AMP_AWA_CON	186	Rpleas_acq	Same	Rpleas	Amasked	CS_A	1pleas	distractor1	EVAbeforeCON	acq_US_unple_masked	acq3_masked	3	7	453	1	300	300	0	0	517	46	0	1	0	0	0	1	blank2r.bmp	0	1	+	0	4	B4r.bmp	492	1	blank2r.bmp	786	1	DHJF	786	1	blank2r.bmp	866	1	gierig	866	1	!	1292	1	!	1412	0	0	0	0	0	0	0	0	0	0	0	0	0	0	0	0	0	0	0	0	0	0	0	0	0	0	0
040419	12:06:25	12:10:50	262997	5.0.10.0	4_exp_EVA_AMP_AWA_CON	186	Rpleas_acq	Same	Rpleas	Amasked	CS_A	1pleas	distractor1	EVAbeforeCON	acq_US_pleas_masked	acq3_masked	3	8	453	1	300	300	0	0	428	50	0	1	0	0	0	1	blank2r.bmp	0	1	+	0	7	C3r.bmp	492	1	blank2r.bmp	786	1	CPLW	786	1	blank2r.bmp	866	4	engagiert	866	1	!	1292	1	!	1332	0	0	0	0	0	0	0	0	0	0	0	0	0	0	0	0	0	0	0	0	0	0	0	0	0	0	0
040419	12:06:25	12:10:52	265356	5.0.10.0	4_exp_EVA_AMP_AWA_CON	186	Rpleas_acq	Same	Rpleas	Amasked	CS_A	1pleas	distractor1	EVAbeforeCON	acq_US_pleas_masked	acq3_masked	3	9	453	0	300	300	0	0	366	46	0	0	0	0	0	1	blank2r.bmp	0	1	+	0	3	B3r.bmp	492	1	blank2r.bmp	786	1	CPLW	786	1	blank2r.bmp	866	5	genießen	866	1	FEHLER	1572	1	!	-1	1	!	-1	0	0	0	0	0	0	0	0	0	0	0	0	0	0	0	0	0	0	0	0	0	0	0	0
040419	12:06:25	12:10:55	267449	5.0.10.0	4_exp_EVA_AMP_AWA_CON	186	Rpleas_acq	Same	Rpleas	Amasked	CS_A	1pleas	distractor1	EVAbeforeCON	acq_US_pleas_masked	acq3_masked	3	10	453	1	300	300	0	0	496	50	0	1	0	0	0	1	blank2r.bmp	0	1	+	0	1	B1r.bmp	492	1	blank2r.bmp	786	1	CPLW	786	1	blank2r.bmp	866	6	vergnügt	866	1	!	1292	1	!	1399	0	0	0	0	0	0	0	0	0	0	0	0	0	0	0	0	0	0	0	0	0	0	0	0	0	0	0
040419	12:06:25	12:10:57	269675	5.0.10.0	4_exp_EVA_AMP_AWA_CON	186	Rpleas_acq	Same	Rpleas	Amasked	CS_A	1pleas	distractor1	EVAbeforeCON	acq_US_unple_masked	acq3_masked	3	11	453	1	300	300	0	0	430	46	0	1	0	0	0	1	blank2r.bmp	0	1	+	0	6	C2r.bmp	492	1	blank2r.bmp	786	1	DHJF	786	1	blank2r.bmp	866	4	engstirnig	866	1	!	1292	1	!	1332	0	0	0	0	0	0	0	0	0	0	0	0	0	0	0	0	0	0	0	0	0	0	0	0	0	0	0
040419	12:06:25	12:10:59	272100	5.0.10.0	4_exp_EVA_AMP_AWA_CON	186	Rpleas_acq	Same	Rpleas	Amasked	CS_A	1pleas	distractor1	EVAbeforeCON	acq_US_unple_masked	acq3_masked	3	12	453	1	300	300	0	0	406	50	0	0	0	0	0	1	blank2r.bmp	0	1	+	0	4	B4r.bmp	492	1	blank2r.bmp	786	1	DHJF	786	1	blank2r.bmp	866	6	verbissen	866	1	FEHLER	1625	1	!	1292	1	!	1306	0	0	0	0	0	0	0	0	0	0	0	0	0	0	0	0	0	0	0	0	0	0	0	0
040419	12:06:25	12:11:01	274153	5.0.10.0	4_exp_EVA_AMP_AWA_CON	186	Rpleas_acq	Same	Rpleas	Amasked	CS_A	1pleas	distractor1	EVAbeforeCON	acq_US_pleas_masked	acq3_masked	3	13	453	1	300	300	0	0	460	50	0	1	0	0	0	1	blank2r.bmp	0	1	+	0	5	C1r.bmp	492	1	blank2r.bmp	786	1	CPLW	786	1	blank2r.bmp	866	4	engagiert	866	1	!	1292	1	!	1359	0	0	0	0	0	0	0	0	0	0	0	0	0	0	0	0	0	0	0	0	0	0	0	0	0	0	0
040419	12:06:25	12:11:04	276365	5.0.10.0	4_exp_EVA_AMP_AWA_CON	186	Rpleas_acq	Same	Rpleas	Amasked	CS_A	1pleas	distractor1	EVAbeforeCON	acq_US_unple_masked	acq3_masked	3	14	453	1	300	300	0	0	423	46	0	1	0	0	0	1	blank2r.bmp	0	1	+	0	8	C4r.bmp	492	1	blank2r.bmp	786	1	DHJF	786	1	blank2r.bmp	866	3	töten	866	1	!	1292	1	!	1319	0	0	0	0	0	0	0	0	0	0	0	0	0	0	0	0	0	0	0	0	0	0	0	0	0	0	0
040419	12:06:25	12:11:06	278604	5.0.10.0	4_exp_EVA_AMP_AWA_CON	186	Rpleas_acq	Same	Rpleas	Amasked	CS_A	1pleas	distractor1	EVAbeforeCON	acq_US_unple_masked	acq3_masked	3	15	453	1	300	300	0	0	427	46	0	1	0	0	0	1	blank2r.bmp	0	1	+	0	2	B2r.bmp	492	1	blank2r.bmp	786	1	DHJF	786	1	blank2r.bmp	866	2	sterben	866	1	!	1292	1	!	1332	0	0	0	0	0	0	0	0	0	0	0	0	0	0	0	0	0	0	0	0	0	0	0	0	0	0	0
040419	12:06:25	12:11:08	280830	5.0.10.0	4_exp_EVA_AMP_AWA_CON	186	Rpleas_acq	Same	Rpleas	Amasked	CS_A	1pleas	distractor1	EVAbeforeCON	acq_US_unple_masked	acq3_masked	3	16	453	1	300	300	0	0	436	46	0	1	0	0	0	1	blank2r.bmp	0	1	+	0	7	C3r.bmp	492	1	blank2r.bmp	786	1	DHJF	786	1	blank2r.bmp	866	5	gemein	866	1	!	1292	1	!	1332	0	0	0	0	0	0	0	0	0	0	0	0	0	0	0	0	0	0	0	0	0	0	0	0	0	0	0
040419	12:06:25	12:11:10	283042	5.0.10.0	4_exp_EVA_AMP_AWA_CON	186	Rpleas_acq	Same	Rpleas	Amasked	CS_A	1pleas	distractor1	EVAbeforeCON	acq_US_pleas_masked	acq3_masked	3	17	453	1	300	300	0	0	412	50	0	1	0	0	0	1	blank2r.bmp	0	1	+	0	4	B4r.bmp	492	1	blank2r.bmp	786	1	CPLW	786	1	blank2r.bmp	866	6	vergnügt	866	1	!	1292	1	!	1319	0	0	0	0	0	0	0	0	0	0	0	0	0	0	0	0	0	0	0	0	0	0	0	0	0	0	0
040419	12:06:25	12:11:13	285375	5.0.10.0	4_exp_EVA_AMP_AWA_CON	186	Rpleas_acq	Same	Rpleas	Amasked	CS_A	1pleas	distractor1	EVAbeforeCON	acq_US_pleas_masked	acq3_masked	3	18	453	0	300	300	0	0	547	50	0	1	0	0	0	1	blank2r.bmp	0	1	+	0	3	B3r.bmp	492	1	blank2r.bmp	786	1	CPLW	786	1	blank2r.bmp	866	5	genießen	866	1	!	1292	1	!	-1	0	0	0	0	0	0	0	0	0	0	0	0	0	0	0	0	0	0	0	0	0	0	0	0	0	0	0
040419	12:06:25	12:11:15	287840	5.0.10.0	4_exp_EVA_AMP_AWA_CON	186	Rpleas_acq	Same	Rpleas	Amasked	CS_A	1pleas	distractor1	EVAbeforeCON	acq_US_pleas_masked	acq3_masked	3	19	453	0	300	300	0	0	686	50	0	1	0	0	0	1	blank2r.bmp	0	1	+	0	1	B1r.bmp	492	1	blank2r.bmp	786	1	CPLW	786	1	blank2r.bmp	866	3	träumen	866	1	!	1292	1	!	-1	0	0	0	0	0	0	0	0	0	0	0	0	0	0	0	0	0	0	0	0	0	0	0	0	0	0	0
040419	12:06:25	12:11:17	290093	5.0.10.0	4_exp_EVA_AMP_AWA_CON	186	Rpleas_acq	Same	Rpleas	Amasked	CS_A	1pleas	distractor1	EVAbeforeCON	acq_US_pleas_masked	acq3_masked	3	20	453	1	300	300	0	0	439	50	0	1	0	0	0	1	blank2r.bmp	0	1	+	0	2	B2r.bmp	492	1	blank2r.bmp	786	1	CPLW	786	1	blank2r.bmp	866	1	gütig	866	1	!	1292	1	!	1346	0	0	0	0	0	0	0	0	0	0	0	0	0	0	0	0	0	0	0	0	0	0	0	0	0	0	0
040419	12:06:25	12:11:19	292305	5.0.10.0	4_exp_EVA_AMP_AWA_CON	186	Rpleas_acq	Same	Rpleas	Amasked	CS_A	1pleas	distractor1	EVAbeforeCON	acq_US_unple_masked	acq3_masked	3	21	453	1	300	300	0	0	406	46	0	1	0	0	0	1	blank2r.bmp	0	1	+	0	5	C1r.bmp	492	1	blank2r.bmp	786	1	DHJF	786	1	blank2r.bmp	866	4	engstirnig	866	1	!	1292	1	!	1306	0	0	0	0	0	0	0	0	0	0	0	0	0	0	0	0	0	0	0	0	0	0	0	0	0	0	0
040419	12:06:25	12:11:22	294611	5.0.10.0	4_exp_EVA_AMP_AWA_CON	186	Rpleas_acq	Same	Rpleas	Amasked	CS_A	1pleas	distractor1	EVAbeforeCON	acq_US_unple_masked	acq3_masked	3	22	453	0	300	300	0	0	543	46	0	1	0	0	0	1	blank2r.bmp	0	1	+	0	7	C3r.bmp	492	1	blank2r.bmp	786	1	DHJF	786	1	blank2r.bmp	866	6	verbissen	866	1	!	1292	1	!	-1	0	0	0	0	0	0	0	0	0	0	0	0	0	0	0	0	0	0	0	0	0	0	0	0	0	0	0
040419	12:06:25	12:11:24	296743	5.0.10.0	4_exp_EVA_AMP_AWA_CON	186	Rpleas_acq	Same	Rpleas	Amasked	CS_A	1pleas	distractor1	EVAbeforeCON	acq_US_unple_masked	acq3_masked	3	23	453	0	300	300	0	0	348	46	0	1	0	0	0	1	blank2r.bmp	0	1	+	0	8	C4r.bmp	492	1	blank2r.bmp	786	1	DHJF	786	1	blank2r.bmp	866	1	gierig	866	1	!	-1	1	!	-1	0	0	0	0	0	0	0	0	0	0	0	0	0	0	0	0	0	0	0	0	0	0	0	0	0	0	0
040419	12:06:25	12:11:26	298956	5.0.10.0	4_exp_EVA_AMP_AWA_CON	186	Rpleas_acq	Same	Rpleas	Amasked	CS_A	1pleas	distractor1	EVAbeforeCON	acq_US_pleas_masked	acq3_masked	3	24	453	1	300	300	0	0	402	50	0	1	0	0	0	1	blank2r.bmp	0	1	+	0	6	C2r.bmp	492	1	blank2r.bmp	786	1	CPLW	786	1	blank2r.bmp	866	2	sonnig	866	1	!	1292	1	!	1306	0	0	0	0	0	0	0	0	0	0	0	0	0	0	0	0	0	0	0	0	0	0	0	0	0	0	0
040419	12:06:25	12:11:28	301182	5.0.10.0	4_exp_EVA_AMP_AWA_CON	186	Rpleas_acq	Same	Rpleas	Amasked	CS_A	1pleas	distractor1	EVAbeforeCON	acq_US_pleas_masked	acq3_masked	3	25	453	1	300	300	0	0	430	50	0	1	0	0	0	1	blank2r.bmp	0	1	+	0	8	C4r.bmp	492	1	blank2r.bmp	786	1	CPLW	786	1	blank2r.bmp	866	5	genießen	866	1	!	1292	1	!	1332	0	0	0	0	0	0	0	0	0	0	0	0	0	0	0	0	0	0	0	0	0	0	0	0	0	0	0
040419	12:06:25	12:11:31	303421	5.0.10.0	4_exp_EVA_AMP_AWA_CON	186	Rpleas_acq	Same	Rpleas	Amasked	CS_A	1pleas	distractor1	EVAbeforeCON	acq_US_unple_masked	acq3_masked	3	26	453	1	300	300	0	0	448	46	0	1	0	0	0	1	blank2r.bmp	0	1	+	0	1	B1r.bmp	492	1	blank2r.bmp	786	1	DHJF	786	1	blank2r.bmp	866	3	töten	866	1	!	1292	1	!	1346	0	0	0	0	0	0	0	0	0	0	0	0	0	0	0	0	0	0	0	0	0	0	0	0	0	0	0
040419	12:06:25	12:11:33	305726	5.0.10.0	4_exp_EVA_AMP_AWA_CON	186	Rpleas_acq	Same	Rpleas	Amasked	CS_A	1pleas	distractor1	EVAbeforeCON	acq_US_unple_masked	acq3_masked	3	27	453	1	300	300	0	0	513	46	0	1	0	0	0	1	blank2r.bmp	0	1	+	0	6	C2r.bmp	492	1	blank2r.bmp	786	1	DHJF	786	1	blank2r.bmp	866	2	sterben	866	1	!	1292	1	!	1412	0	0	0	0	0	0	0	0	0	0	0	0	0	0	0	0	0	0	0	0	0	0	0	0	0	0	0
040419	12:06:25	12:11:35	308005	5.0.10.0	4_exp_EVA_AMP_AWA_CON	186	Rpleas_acq	Same	Rpleas	Amasked	CS_A	1pleas	distractor1	EVAbeforeCON	acq_US_unple_masked	acq3_masked	3	28	453	1	300	300	0	0	480	46	0	1	0	0	0	1	blank2r.bmp	0	1	+	0	3	B3r.bmp	492	1	blank2r.bmp	786	1	DHJF	786	1	blank2r.bmp	866	4	engstirnig	866	1	!	1292	1	!	1386	0	0	0	0	0	0	0	0	0	0	0	0	0	0	0	0	0	0	0	0	0	0	0	0	0	0	0
040419	12:06:25	12:11:37	310311	5.0.10.0	4_exp_EVA_AMP_AWA_CON	186	Rpleas_acq	Same	Rpleas	Amasked	CS_A	1pleas	distractor1	EVAbeforeCON	acq_US_unple_masked	acq3_masked	3	29	453	0	300	300	0	0	544	46	0	1	0	0	0	1	blank2r.bmp	0	1	+	0	2	B2r.bmp	492	1	blank2r.bmp	786	1	DHJF	786	1	blank2r.bmp	866	6	verbissen	866	1	!	1292	1	!	-1	0	0	0	0	0	0	0	0	0	0	0	0	0	0	0	0	0	0	0	0	0	0	0	0	0	0	0
040419	12:06:25	12:11:40	312950	5.0.10.0	4_exp_EVA_AMP_AWA_CON	186	Rpleas_acq	Same	Rpleas	Amasked	CS_A	1pleas	distractor1	EVAbeforeCON	acq_US_unple_masked	acq3_masked	3	30	453	0	300	300	0	0	628	50	0	0	0	0	0	1	blank2r.bmp	0	1	+	0	4	B4r.bmp	492	1	blank2r.bmp	786	1	DHJF	786	1	blank2r.bmp	866	1	gierig	866	1	FEHLER	1839	1	!	1292	1	!	-1	0	0	0	0	0	0	0	0	0	0	0	0	0	0	0	0	0	0	0	0	0	0	0	0
040419	12:06:25	12:11:42	315189	5.0.10.0	4_exp_EVA_AMP_AWA_CON	186	Rpleas_acq	Same	Rpleas	Amasked	CS_A	1pleas	distractor1	EVAbeforeCON	acq_US_pleas_masked	acq3_masked	3	31	453	1	300	300	0	0	441	46	0	0	0	0	0	1	blank2r.bmp	0	1	+	0	5	C1r.bmp	492	1	blank2r.bmp	786	1	CPLW	786	1	blank2r.bmp	866	4	engagiert	866	1	FEHLER	1665	1	!	1292	1	!	1346	0	0	0	0	0	0	0	0	0	0	0	0	0	0	0	0	0	0	0	0	0	0	0	0
040419	12:06:25	12:11:45	317468	5.0.10.0	4_exp_EVA_AMP_AWA_CON	186	Rpleas_acq	Same	Rpleas	Amasked	CS_A	1pleas	distractor1	EVAbeforeCON	acq_US_unple_masked	acq3_masked	3	32	453	1	300	300	0	0	475	50	0	0	0	0	0	1	blank2r.bmp	0	1	+	0	7	C3r.bmp	492	1	blank2r.bmp	786	1	DHJF	786	1	blank2r.bmp	866	5	gemein	866	1	FEHLER	1692	1	!	1292	1	!	1372	0	0	0	0	0	0	0	0	0	0	0	0	0	0	0	0	0	0	0	0	0	0	0	0
040419	12:06:25	12:11:47	319561	5.0.10.0	4_exp_EVA_AMP_AWA_CON	186	Rpleas_acq	Same	Rpleas	Amasked	CS_A	1pleas	distractor1	EVAbeforeCON	acq_US_pleas_masked	acq3_masked	3	33	453	1	300	300	0	0	509	50	0	1	0	0	0	1	blank2r.bmp	0	1	+	0	6	C2r.bmp	492	1	blank2r.bmp	786	1	CPLW	786	1	blank2r.bmp	866	3	träumen	866	1	!	1292	1	!	1412	0	0	0	0	0	0	0	0	0	0	0	0	0	0	0	0	0	0	0	0	0	0	0	0	0	0	0
040419	12:06:25	12:11:49	321893	5.0.10.0	4_exp_EVA_AMP_AWA_CON	186	Rpleas_acq	Same	Rpleas	Amasked	CS_A	1pleas	distractor1	EVAbeforeCON	acq_US_pleas_masked	acq3_masked	3	34	453	0	300	300	0	0	558	50	0	1	0	0	0	1	blank2r.bmp	0	1	+	0	1	B1r.bmp	492	1	blank2r.bmp	786	1	CPLW	786	1	blank2r.bmp	866	2	sonnig	866	1	!	1292	1	!	-1	0	0	0	0	0	0	0	0	0	0	0	0	0	0	0	0	0	0	0	0	0	0	0	0	0	0	0
040419	12:06:25	12:11:51	324105	5.0.10.0	4_exp_EVA_AMP_AWA_CON	186	Rpleas_acq	Same	Rpleas	Amasked	CS_A	1pleas	distractor1	EVAbeforeCON	acq_US_pleas_masked	acq3_masked	3	35	453	1	300	300	0	0	403	50	0	1	0	0	0	1	blank2r.bmp	0	1	+	0	8	C4r.bmp	492	1	blank2r.bmp	786	1	CPLW	786	1	blank2r.bmp	866	6	vergnügt	866	1	!	1292	1	!	1306	0	0	0	0	0	0	0	0	0	0	0	0	0	0	0	0	0	0	0	0	0	0	0	0	0	0	0
040419	12:06:25	12:11:53	326331	5.0.10.0	4_exp_EVA_AMP_AWA_CON	186	Rpleas_acq	Same	Rpleas	Amasked	CS_A	1pleas	distractor1	EVAbeforeCON	acq_US_pleas_masked	acq3_masked	3	36	453	1	300	300	0	0	438	50	0	1	0	0	0	1	blank2r.bmp	0	1	+	0	7	C3r.bmp	492	1	blank2r.bmp	786	1	CPLW	786	1	blank2r.bmp	866	1	gütig	866	1	!	1292	1	!	1332	0	0	0	0	0	0	0	0	0	0	0	0	0	0	0	0	0	0	0	0	0	0	0	0	0	0	0
040419	12:06:25	12:12:10	343044	5.0.10.0	4_exp_EVA_AMP_AWA_CON	186	Rpleas_acq	Same	Rpleas	Amasked	CS_A	1pleas	distractor1	EVAbeforeCON	acq_US_pleas_masked	acq45_masked	4	1	400	0	300	300	0	0	529	50	0	1	0	0	0	1	blank2r.bmp	0	1	+	0	2	B2r.bmp	492	1	blank2r.bmp	786	1	CPLW	786	1	blank2r.bmp	866	5	genießen	866	1	!	1239	1	!	-1	0	0	0	0	0	0	0	0	0	0	0	0	0	0	0	0	0	0	0	0	0	0	0	0	0	0	0
040419	12:06:25	12:12:12	345217	5.0.10.0	4_exp_EVA_AMP_AWA_CON	186	Rpleas_acq	Same	Rpleas	Amasked	CS_A	1pleas	distractor1	EVAbeforeCON	acq_US_unple_masked	acq45_masked	4	2	400	1	300	300	0	0	370	46	0	1	0	0	0	1	blank2r.bmp	0	1	+	0	3	B3r.bmp	492	1	blank2r.bmp	786	1	DHJF	786	1	blank2r.bmp	866	3	töten	866	1	!	1239	1	!	1266	0	0	0	0	0	0	0	0	0	0	0	0	0	0	0	0	0	0	0	0	0	0	0	0	0	0	0
040419	12:06:25	12:12:15	347403	5.0.10.0	4_exp_EVA_AMP_AWA_CON	186	Rpleas_acq	Same	Rpleas	Amasked	CS_A	1pleas	distractor1	EVAbeforeCON	acq_US_pleas_masked	acq45_masked	4	3	400	1	300	300	0	0	388	50	0	1	0	0	0	1	blank2r.bmp	0	1	+	0	5	C1r.bmp	492	1	blank2r.bmp	786	1	CPLW	786	1	blank2r.bmp	866	2	sonnig	866	1	!	1239	1	!	1292	0	0	0	0	0	0	0	0	0	0	0	0	0	0	0	0	0	0	0	0	0	0	0	0	0	0	0
040419	12:06:25	12:12:17	349655	5.0.10.0	4_exp_EVA_AMP_AWA_CON	186	Rpleas_acq	Same	Rpleas	Amasked	CS_A	1pleas	distractor1	EVAbeforeCON	acq_US_unple_masked	acq45_masked	4	4	400	1	300	300	0	0	453	50	0	0	0	0	0	1	blank2r.bmp	0	1	+	0	4	B4r.bmp	492	1	blank2r.bmp	786	1	DHJF	786	1	blank2r.bmp	866	5	gemein	866	1	!	1239	1	!	1359	0	0	0	0	0	0	0	0	0	0	0	0	0	0	0	0	0	0	0	0	0	0	0	0	0	0	0
040419	12:06:25	12:12:19	351814	5.0.10.0	4_exp_EVA_AMP_AWA_CON	186	Rpleas_acq	Same	Rpleas	Amasked	CS_A	1pleas	distractor1	EVAbeforeCON	acq_US_unple_masked	acq45_masked	4	5	400	1	300	300	0	0	346	46	0	1	0	0	0	1	blank2r.bmp	0	1	+	0	5	C1r.bmp	492	1	blank2r.bmp	786	1	DHJF	786	1	blank2r.bmp	866	2	sterben	866	1	!	1239	1	!	1252	0	0	0	0	0	0	0	0	0	0	0	0	0	0	0	0	0	0	0	0	0	0	0	0	0	0	0
040419	12:06:25	12:12:21	354320	5.0.10.0	4_exp_EVA_AMP_AWA_CON	186	Rpleas_acq	Same	Rpleas	Amasked	CS_A	1pleas	distractor1	EVAbeforeCON	acq_US_unple_masked	acq45_masked	4	6	400	0	300	300	0	0	740	50	0	0	0	0	0	1	blank2r.bmp	0	1	+	0	6	C2r.bmp	492	1	blank2r.bmp	786	1	DHJF	786	1	blank2r.bmp	866	1	gierig	866	1	!	1239	1	!	-1	0	0	0	0	0	0	0	0	0	0	0	0	0	0	0	0	0	0	0	0	0	0	0	0	0	0	0
040419	12:06:25	12:12:24	356572	5.0.10.0	4_exp_EVA_AMP_AWA_CON	186	Rpleas_acq	Same	Rpleas	Amasked	CS_A	1pleas	distractor1	EVAbeforeCON	acq_US_pleas_masked	acq45_masked	4	7	400	1	300	300	0	0	450	50	0	1	0	0	0	1	blank2r.bmp	0	1	+	0	4	B4r.bmp	492	1	blank2r.bmp	786	1	CPLW	786	1	blank2r.bmp	866	4	engagiert	866	1	!	1239	1	!	1346	0	0	0	0	0	0	0	0	0	0	0	0	0	0	0	0	0	0	0	0	0	0	0	0	0	0	0
040419	12:06:25	12:12:26	358838	5.0.10.0	4_exp_EVA_AMP_AWA_CON	186	Rpleas_acq	Same	Rpleas	Amasked	CS_A	1pleas	distractor1	EVAbeforeCON	acq_US_pleas_masked	acq45_masked	4	8	400	0	300	300	0	0	498	50	0	1	0	0	0	1	blank2r.bmp	0	1	+	0	1	B1r.bmp	492	1	blank2r.bmp	786	1	CPLW	786	1	blank2r.bmp	866	6	vergnügt	866	1	!	1239	1	!	-1	0	0	0	0	0	0	0	0	0	0	0	0	0	0	0	0	0	0	0	0	0	0	0	0	0	0	0
040419	12:06:25	12:12:28	361117	5.0.10.0	4_exp_EVA_AMP_AWA_CON	186	Rpleas_acq	Same	Rpleas	Amasked	CS_A	1pleas	distractor1	EVAbeforeCON	acq_US_unple_masked	acq45_masked	4	9	400	0	300	300	0	0	493	46	0	1	0	0	0	1	blank2r.bmp	0	1	+	0	7	C3r.bmp	492	1	blank2r.bmp	786	1	DHJF	786	1	blank2r.bmp	866	4	engstirnig	866	1	!	1239	1	!	-1	0	0	0	0	0	0	0	0	0	0	0	0	0	0	0	0	0	0	0	0	0	0	0	0	0	0	0
040419	12:06:25	12:12:30	363303	5.0.10.0	4_exp_EVA_AMP_AWA_CON	186	Rpleas_acq	Same	Rpleas	Amasked	CS_A	1pleas	distractor1	EVAbeforeCON	acq_US_pleas_masked	acq45_masked	4	10	400	1	300	300	0	0	381	50	0	1	0	0	0	1	blank2r.bmp	0	1	+	0	2	B2r.bmp	492	1	blank2r.bmp	786	1	CPLW	786	1	blank2r.bmp	866	1	gütig	866	1	!	1239	1	!	1279	0	0	0	0	0	0	0	0	0	0	0	0	0	0	0	0	0	0	0	0	0	0	0	0	0	0	0
040419	12:06:25	12:12:33	365648	5.0.10.0	4_exp_EVA_AMP_AWA_CON	186	Rpleas_acq	Same	Rpleas	Amasked	CS_A	1pleas	distractor1	EVAbeforeCON	acq_US_pleas_masked	acq45_masked	4	11	400	0	300	300	0	0	579	50	0	1	0	0	0	1	blank2r.bmp	0	1	+	0	8	C4r.bmp	492	1	blank2r.bmp	786	1	CPLW	786	1	blank2r.bmp	866	3	träumen	866	1	!	1239	1	!	-1	0	0	0	0	0	0	0	0	0	0	0	0	0	0	0	0	0	0	0	0	0	0	0	0	0	0	0
040419	12:06:25	12:12:35	367874	5.0.10.0	4_exp_EVA_AMP_AWA_CON	186	Rpleas_acq	Same	Rpleas	Amasked	CS_A	1pleas	distractor1	EVAbeforeCON	acq_US_unple_masked	acq45_masked	4	12	400	1	300	300	0	0	415	46	0	1	0	0	0	1	blank2r.bmp	0	1	+	0	3	B3r.bmp	492	1	blank2r.bmp	786	1	DHJF	786	1	blank2r.bmp	866	6	verbissen	866	1	!	1239	1	!	1319	0	0	0	0	0	0	0	0	0	0	0	0	0	0	0	0	0	0	0	0	0	0	0	0	0	0	0
040419	12:06:25	12:12:37	370086	5.0.10.0	4_exp_EVA_AMP_AWA_CON	186	Rpleas_acq	Same	Rpleas	Amasked	CS_A	1pleas	distractor1	EVAbeforeCON	acq_US_pleas_masked	acq45_masked	4	13	400	1	300	300	0	0	403	50	0	1	0	0	0	1	blank2r.bmp	0	1	+	0	3	B3r.bmp	492	1	blank2r.bmp	786	1	CPLW	786	1	blank2r.bmp	866	1	gütig	866	1	!	1239	1	!	1306	0	0	0	0	0	0	0	0	0	0	0	0	0	0	0	0	0	0	0	0	0	0	0	0	0	0	0
040419	12:06:25	12:12:39	372246	5.0.10.0	4_exp_EVA_AMP_AWA_CON	186	Rpleas_acq	Same	Rpleas	Amasked	CS_A	1pleas	distractor1	EVAbeforeCON	acq_US_unple_masked	acq45_masked	4	14	400	1	300	300	0	0	372	46	0	1	0	0	0	1	blank2r.bmp	0	1	+	0	1	B1r.bmp	492	1	blank2r.bmp	786	1	DHJF	786	1	blank2r.bmp	866	2	sterben	866	1	!	1239	1	!	1266	0	0	0	0	0	0	0	0	0	0	0	0	0	0	0	0	0	0	0	0	0	0	0	0	0	0	0
040419	12:06:25	12:12:42	374458	5.0.10.0	4_exp_EVA_AMP_AWA_CON	186	Rpleas_acq	Same	Rpleas	Amasked	CS_A	1pleas	distractor1	EVAbeforeCON	acq_US_unple_masked	acq45_masked	4	15	400	1	300	300	0	0	413	50	0	0	0	0	0	1	blank2r.bmp	0	1	+	0	8	C4r.bmp	492	1	blank2r.bmp	786	1	DHJF	786	1	blank2r.bmp	866	3	töten	866	1	!	1239	1	!	1319	0	0	0	0	0	0	0	0	0	0	0	0	0	0	0	0	0	0	0	0	0	0	0	0	0	0	0
040419	12:06:25	12:12:44	376724	5.0.10.0	4_exp_EVA_AMP_AWA_CON	186	Rpleas_acq	Same	Rpleas	Amasked	CS_A	1pleas	distractor1	EVAbeforeCON	acq_US_unple_masked	acq45_masked	4	16	400	0	300	300	0	0	479	46	0	1	0	0	0	1	blank2r.bmp	0	1	+	0	2	B2r.bmp	492	1	blank2r.bmp	786	1	DHJF	786	1	blank2r.bmp	866	5	gemein	866	1	!	1239	1	!	-1	0	0	0	0	0	0	0	0	0	0	0	0	0	0	0	0	0	0	0	0	0	0	0	0	0	0	0
040419	12:06:25	12:12:46	378963	5.0.10.0	4_exp_EVA_AMP_AWA_CON	186	Rpleas_acq	Same	Rpleas	Amasked	CS_A	1pleas	distractor1	EVAbeforeCON	acq_US_pleas_masked	acq45_masked	4	17	400	1	300	300	0	0	428	50	0	1	0	0	0	1	blank2r.bmp	0	1	+	0	7	C3r.bmp	492	1	blank2r.bmp	786	1	CPLW	786	1	blank2r.bmp	866	4	engagiert	866	1	!	1239	1	!	1332	0	0	0	0	0	0	0	0	0	0	0	0	0	0	0	0	0	0	0	0	0	0	0	0	0	0	0
040419	12:06:25	12:12:48	381322	5.0.10.0	4_exp_EVA_AMP_AWA_CON	186	Rpleas_acq	Same	Rpleas	Amasked	CS_A	1pleas	distractor1	EVAbeforeCON	acq_US_pleas_masked	acq45_masked	4	18	400	0	300	300	0	0	592	50	0	1	0	0	0	1	blank2r.bmp	0	1	+	0	5	C1r.bmp	492	1	blank2r.bmp	786	1	CPLW	786	1	blank2r.bmp	866	3	träumen	866	1	!	1239	1	!	-1	0	0	0	0	0	0	0	0	0	0	0	0	0	0	0	0	0	0	0	0	0	0	0	0	0	0	0
040419	12:06:25	12:12:51	383494	5.0.10.0	4_exp_EVA_AMP_AWA_CON	186	Rpleas_acq	Same	Rpleas	Amasked	CS_A	1pleas	distractor1	EVAbeforeCON	acq_US_pleas_masked	acq45_masked	4	19	400	1	300	300	0	0	364	46	0	0	0	0	0	1	blank2r.bmp	0	1	+	0	6	C2r.bmp	492	1	blank2r.bmp	786	1	CPLW	786	1	blank2r.bmp	866	5	genießen	866	1	!	1239	1	!	1266	0	0	0	0	0	0	0	0	0	0	0	0	0	0	0	0	0	0	0	0	0	0	0	0	0	0	0
040419	12:06:25	12:12:53	385653	5.0.10.0	4_exp_EVA_AMP_AWA_CON	186	Rpleas_acq	Same	Rpleas	Amasked	CS_A	1pleas	distractor1	EVAbeforeCON	acq_US_pleas_masked	acq45_masked	4	20	400	1	300	300	0	0	369	50	0	1	0	0	0	1	blank2r.bmp	0	1	+	0	4	B4r.bmp	492	1	blank2r.bmp	786	1	CPLW	786	1	blank2r.bmp	866	2	sonnig	866	1	!	1239	1	!	1266	0	0	0	0	0	0	0	0	0	0	0	0	0	0	0	0	0	0	0	0	0	0	0	0	0	0	0
040419	12:06:25	12:12:55	387746	5.0.10.0	4_exp_EVA_AMP_AWA_CON	186	Rpleas_acq	Same	Rpleas	Amasked	CS_A	1pleas	distractor1	EVAbeforeCON	acq_US_pleas_masked	acq45_masked	4	21	400	0	300	300	0	0	331	50	0	1	0	0	0	1	blank2r.bmp	0	1	+	0	1	B1r.bmp	492	1	blank2r.bmp	786	1	CPLW	786	1	blank2r.bmp	866	6	vergnügt	866	1	!	-1	1	!	-1	0	0	0	0	0	0	0	0	0	0	0	0	0	0	0	0	0	0	0	0	0	0	0	0	0	0	0
040419	12:06:25	12:12:57	389918	5.0.10.0	4_exp_EVA_AMP_AWA_CON	186	Rpleas_acq	Same	Rpleas	Amasked	CS_A	1pleas	distractor1	EVAbeforeCON	acq_US_unple_masked	acq45_masked	4	22	400	1	300	300	0	0	361	46	0	1	0	0	0	1	blank2r.bmp	0	1	+	0	7	C3r.bmp	492	1	blank2r.bmp	786	1	DHJF	786	1	blank2r.bmp	866	4	engstirnig	866	1	!	1239	1	!	1266	0	0	0	0	0	0	0	0	0	0	0	0	0	0	0	0	0	0	0	0	0	0	0	0	0	0	0
040419	12:06:25	12:12:59	392184	5.0.10.0	4_exp_EVA_AMP_AWA_CON	186	Rpleas_acq	Same	Rpleas	Amasked	CS_A	1pleas	distractor1	EVAbeforeCON	acq_US_pleas_masked	acq45_masked	4	23	400	1	300	300	0	0	464	50	0	1	0	0	0	1	blank2r.bmp	0	1	+	0	4	B4r.bmp	492	1	blank2r.bmp	786	1	CPLW	786	1	blank2r.bmp	866	2	sonnig	866	1	!	1239	1	!	1359	0	0	0	0	0	0	0	0	0	0	0	0	0	0	0	0	0	0	0	0	0	0	0	0	0	0	0
040419	12:06:25	12:13:02	394503	5.0.10.0	4_exp_EVA_AMP_AWA_CON	186	Rpleas_acq	Same	Rpleas	Amasked	CS_A	1pleas	distractor1	EVAbeforeCON	acq_US_unple_masked	acq45_masked	4	24	400	0	300	300	0	0	552	46	0	1	0	0	0	1	blank2r.bmp	0	1	+	0	6	C2r.bmp	492	1	blank2r.bmp	786	1	DHJF	786	1	blank2r.bmp	866	6	verbissen	866	1	!	1239	1	!	-1	0	0	0	0	0	0	0	0	0	0	0	0	0	0	0	0	0	0	0	0	0	0	0	0	0	0	0
040419	12:06:25	12:13:04	396756	5.0.10.0	4_exp_EVA_AMP_AWA_CON	186	Rpleas_acq	Same	Rpleas	Amasked	CS_A	1pleas	distractor1	EVAbeforeCON	acq_US_pleas_masked	acq45_masked	4	25	400	1	300	300	0	0	443	50	0	1	0	0	0	1	blank2r.bmp	0	1	+	0	5	C1r.bmp	492	1	blank2r.bmp	786	1	CPLW	786	1	blank2r.bmp	866	6	vergnügt	866	1	!	1239	1	!	1346	0	0	0	0	0	0	0	0	0	0	0	0	0	0	0	0	0	0	0	0	0	0	0	0	0	0	0
040419	12:06:25	12:13:06	399008	5.0.10.0	4_exp_EVA_AMP_AWA_CON	186	Rpleas_acq	Same	Rpleas	Amasked	CS_A	1pleas	distractor1	EVAbeforeCON	acq_US_unple_masked	acq45_masked	4	26	400	0	300	300	0	0	479	50	0	0	0	0	0	1	blank2r.bmp	0	1	+	0	2	B2r.bmp	492	1	blank2r.bmp	786	1	DHJF	786	1	blank2r.bmp	866	1	gierig	866	1	!	1239	1	!	-1	0	0	0	0	0	0	0	0	0	0	0	0	0	0	0	0	0	0	0	0	0	0	0	0	0	0	0
040419	12:06:25	12:13:08	401274	5.0.10.0	4_exp_EVA_AMP_AWA_CON	186	Rpleas_acq	Same	Rpleas	Amasked	CS_A	1pleas	distractor1	EVAbeforeCON	acq_US_unple_masked	acq45_masked	4	27	400	1	300	300	0	0	457	46	0	1	0	0	0	1	blank2r.bmp	0	1	+	0	8	C4r.bmp	492	1	blank2r.bmp	786	1	DHJF	786	1	blank2r.bmp	866	6	verbissen	866	1	!	1239	1	!	1359	0	0	0	0	0	0	0	0	0	0	0	0	0	0	0	0	0	0	0	0	0	0	0	0	0	0	0
040419	12:06:25	12:13:11	403526	5.0.10.0	4_exp_EVA_AMP_AWA_CON	186	Rpleas_acq	Same	Rpleas	Amasked	CS_A	1pleas	distractor1	EVAbeforeCON	acq_US_pleas_masked	acq45_masked	4	28	400	1	300	300	0	0	446	50	0	1	0	0	0	1	blank2r.bmp	0	1	+	0	3	B3r.bmp	492	1	blank2r.bmp	786	1	CPLW	786	1	blank2r.bmp	866	3	träumen	866	1	!	1239	1	!	1346	0	0	0	0	0	0	0	0	0	0	0	0	0	0	0	0	0	0	0	0	0	0	0	0	0	0	0
040419	12:06:25	12:13:13	405765	5.0.10.0	4_exp_EVA_AMP_AWA_CON	186	Rpleas_acq	Same	Rpleas	Amasked	CS_A	1pleas	distractor1	EVAbeforeCON	acq_US_pleas_masked	acq45_masked	4	29	400	1	300	300	0	0	445	50	0	1	0	0	0	1	blank2r.bmp	0	1	+	0	1	B1r.bmp	492	1	blank2r.bmp	786	1	CPLW	786	1	blank2r.bmp	866	1	gütig	866	1	!	1239	1	!	1346	0	0	0	0	0	0	0	0	0	0	0	0	0	0	0	0	0	0	0	0	0	0	0	0	0	0	0
040419	12:06:25	12:13:15	408018	5.0.10.0	4_exp_EVA_AMP_AWA_CON	186	Rpleas_acq	Same	Rpleas	Amasked	CS_A	1pleas	distractor1	EVAbeforeCON	acq_US_unple_masked	acq45_masked	4	30	400	1	300	300	0	0	451	46	0	1	0	0	0	1	blank2r.bmp	0	1	+	0	3	B3r.bmp	492	1	blank2r.bmp	786	1	DHJF	786	1	blank2r.bmp	866	1	gierig	866	1	!	1239	1	!	1346	0	0	0	0	0	0	0	0	0	0	0	0	0	0	0	0	0	0	0	0	0	0	0	0	0	0	0
040419	12:06:25	12:13:17	410217	5.0.10.0	4_exp_EVA_AMP_AWA_CON	186	Rpleas_acq	Same	Rpleas	Amasked	CS_A	1pleas	distractor1	EVAbeforeCON	acq_US_unple_masked	acq45_masked	4	31	400	1	300	300	0	0	406	46	0	1	0	0	0	1	blank2r.bmp	0	1	+	0	5	C1r.bmp	492	1	blank2r.bmp	786	1	DHJF	786	1	blank2r.bmp	866	4	engstirnig	866	1	!	1239	1	!	1306	0	0	0	0	0	0	0	0	0	0	0	0	0	0	0	0	0	0	0	0	0	0	0	0	0	0	0
040419	12:06:25	12:13:20	412376	5.0.10.0	4_exp_EVA_AMP_AWA_CON	186	Rpleas_acq	Same	Rpleas	Amasked	CS_A	1pleas	distractor1	EVAbeforeCON	acq_US_unple_masked	acq45_masked	4	32	400	1	300	300	0	0	360	46	0	1	0	0	0	1	blank2r.bmp	0	1	+	0	2	B2r.bmp	492	1	blank2r.bmp	786	1	DHJF	786	1	blank2r.bmp	866	5	gemein	866	1	!	1239	1	!	1266	0	0	0	0	0	0	0	0	0	0	0	0	0	0	0	0	0	0	0	0	0	0	0	0	0	0	0
040419	12:06:25	12:13:22	414748	5.0.10.0	4_exp_EVA_AMP_AWA_CON	186	Rpleas_acq	Same	Rpleas	Amasked	CS_A	1pleas	distractor1	EVAbeforeCON	acq_US_unple_masked	acq45_masked	4	33	400	0	300	300	0	0	607	46	0	1	0	0	0	1	blank2r.bmp	0	1	+	0	8	C4r.bmp	492	1	blank2r.bmp	786	1	DHJF	786	1	blank2r.bmp	866	2	sterben	866	1	!	1239	1	!	-1	0	0	0	0	0	0	0	0	0	0	0	0	0	0	0	0	0	0	0	0	0	0	0	0	0	0	0
040419	12:06:25	12:13:24	416934	5.0.10.0	4_exp_EVA_AMP_AWA_CON	186	Rpleas_acq	Same	Rpleas	Amasked	CS_A	1pleas	distractor1	EVAbeforeCON	acq_US_pleas_masked	acq45_masked	4	34	400	1	300	300	0	0	385	50	0	1	0	0	0	1	blank2r.bmp	0	1	+	0	6	C2r.bmp	492	1	blank2r.bmp	786	1	CPLW	786	1	blank2r.bmp	866	4	engagiert	866	1	!	1239	1	!	1279	0	0	0	0	0	0	0	0	0	0	0	0	0	0	0	0	0	0	0	0	0	0	0	0	0	0	0
040419	12:06:25	12:13:26	419133	5.0.10.0	4_exp_EVA_AMP_AWA_CON	186	Rpleas_acq	Same	Rpleas	Amasked	CS_A	1pleas	distractor1	EVAbeforeCON	acq_US_unple_masked	acq45_masked	4	35	400	1	300	300	0	0	400	46	0	1	0	0	0	1	blank2r.bmp	0	1	+	0	4	B4r.bmp	492	1	blank2r.bmp	786	1	DHJF	786	1	blank2r.bmp	866	3	töten	866	1	!	1239	1	!	1306	0	0	0	0	0	0	0	0	0	0	0	0	0	0	0	0	0	0	0	0	0	0	0	0	0	0	0
040419	12:06:25	12:13:29	421412	5.0.10.0	4_exp_EVA_AMP_AWA_CON	186	Rpleas_acq	Same	Rpleas	Amasked	CS_A	1pleas	distractor1	EVAbeforeCON	acq_US_pleas_masked	acq45_masked	4	36	400	0	300	300	0	0	506	50	0	1	0	0	0	1	blank2r.bmp	0	1	+	0	7	C3r.bmp	492	1	blank2r.bmp	786	1	CPLW	786	1	blank2r.bmp	866	5	genießen	866	1	!	1239	1	!	-1	0	0	0	0	0	0	0	0	0	0	0	0	0	0	0	0	0	0	0	0	0	0	0	0	0	0	0
040419	12:06:25	12:13:39	431594	5.0.10.0	4_exp_EVA_AMP_AWA_CON	186	Rpleas_acq	Same	Rpleas	Amasked	CS_A	1pleas	distractor1	EVAbeforeCON	acq_US_unple_masked	acq45_masked	5	1	400	0	300	300	0	0	516	46	0	1	0	0	0	1	blank2r.bmp	0	1	+	0	2	B2r.bmp	492	1	blank2r.bmp	786	1	DHJF	786	1	blank2r.bmp	866	4	engstirnig	866	1	!	1239	1	!	-1	0	0	0	0	0	0	0	0	0	0	0	0	0	0	0	0	0	0	0	0	0	0	0	0	0	0	0
040419	12:06:25	12:13:41	433807	5.0.10.0	4_exp_EVA_AMP_AWA_CON	186	Rpleas_acq	Same	Rpleas	Amasked	CS_A	1pleas	distractor1	EVAbeforeCON	acq_US_pleas_masked	acq45_masked	5	2	400	1	300	300	0	0	406	50	0	1	0	0	0	1	blank2r.bmp	0	1	+	0	7	C3r.bmp	492	1	blank2r.bmp	786	1	CPLW	786	1	blank2r.bmp	866	1	gütig	866	1	!	1239	1	!	1306	0	0	0	0	0	0	0	0	0	0	0	0	0	0	0	0	0	0	0	0	0	0	0	0	0	0	0
040419	12:06:25	12:13:43	435953	5.0.10.0	4_exp_EVA_AMP_AWA_CON	186	Rpleas_acq	Same	Rpleas	Amasked	CS_A	1pleas	distractor1	EVAbeforeCON	acq_US_unple_masked	acq45_masked	5	3	400	1	300	300	0	0	346	46	0	1	0	0	0	1	blank2r.bmp	0	1	+	0	5	C1r.bmp	492	1	blank2r.bmp	786	1	DHJF	786	1	blank2r.bmp	866	6	verbissen	866	1	!	1239	1	!	1252	0	0	0	0	0	0	0	0	0	0	0	0	0	0	0	0	0	0	0	0	0	0	0	0	0	0	0
040419	12:06:25	12:13:45	438112	5.0.10.0	4_exp_EVA_AMP_AWA_CON	186	Rpleas_acq	Same	Rpleas	Amasked	CS_A	1pleas	distractor1	EVAbeforeCON	acq_US_pleas_masked	acq45_masked	5	4	400	1	300	300	0	0	346	46	0	0	0	0	0	1	blank2r.bmp	0	1	+	0	8	C4r.bmp	492	1	blank2r.bmp	786	1	CPLW	786	1	blank2r.bmp	866	6	vergnügt	866	1	!	1239	1	!	1252	0	0	0	0	0	0	0	0	0	0	0	0	0	0	0	0	0	0	0	0	0	0	0	0	0	0	0
040419	12:06:25	12:13:47	440364	5.0.10.0	4_exp_EVA_AMP_AWA_CON	186	Rpleas_acq	Same	Rpleas	Amasked	CS_A	1pleas	distractor1	EVAbeforeCON	acq_US_unple_masked	acq45_masked	5	5	400	0	300	300	0	0	479	46	0	1	0	0	0	1	blank2r.bmp	0	1	+	0	3	B3r.bmp	492	1	blank2r.bmp	786	1	DHJF	786	1	blank2r.bmp	866	1	gierig	866	1	!	1239	1	!	-1	0	0	0	0	0	0	0	0	0	0	0	0	0	0	0	0	0	0	0	0	0	0	0	0	0	0	0
040419	12:06:25	12:13:50	442550	5.0.10.0	4_exp_EVA_AMP_AWA_CON	186	Rpleas_acq	Same	Rpleas	Amasked	CS_A	1pleas	distractor1	EVAbeforeCON	acq_US_pleas_masked	acq45_masked	5	6	400	1	300	300	0	0	383	46	0	0	0	0	0	1	blank2r.bmp	0	1	+	0	4	B4r.bmp	492	1	blank2r.bmp	786	1	CPLW	786	1	blank2r.bmp	866	4	engagiert	866	1	!	1239	1	!	1279	0	0	0	0	0	0	0	0	0	0	0	0	0	0	0	0	0	0	0	0	0	0	0	0	0	0	0
040419	12:06:25	12:13:52	444802	5.0.10.0	4_exp_EVA_AMP_AWA_CON	186	Rpleas_acq	Same	Rpleas	Amasked	CS_A	1pleas	distractor1	EVAbeforeCON	acq_US_pleas_masked	acq45_masked	5	7	400	1	300	300	0	0	444	46	0	0	0	0	0	1	blank2r.bmp	0	1	+	0	1	B1r.bmp	492	1	blank2r.bmp	786	1	CPLW	786	1	blank2r.bmp	866	2	sonnig	866	1	!	1239	1	!	1346	0	0	0	0	0	0	0	0	0	0	0	0	0	0	0	0	0	0	0	0	0	0	0	0	0	0	0
040419	12:06:25	12:13:54	446868	5.0.10.0	4_exp_EVA_AMP_AWA_CON	186	Rpleas_acq	Same	Rpleas	Amasked	CS_A	1pleas	distractor1	EVAbeforeCON	acq_US_unple_masked	acq45_masked	5	8	400	0	300	300	0	0	301	50	0	0	0	0	0	1	blank2r.bmp	0	1	+	0	6	C2r.bmp	492	1	blank2r.bmp	786	1	DHJF	786	1	blank2r.bmp	866	2	sterben	866	1	!	-1	1	!	-1	0	0	0	0	0	0	0	0	0	0	0	0	0	0	0	0	0	0	0	0	0	0	0	0	0	0	0
040419	12:06:25	12:13:56	449081	5.0.10.0	4_exp_EVA_AMP_AWA_CON	186	Rpleas_acq	Same	Rpleas	Amasked	CS_A	1pleas	distractor1	EVAbeforeCON	acq_US_unple_masked	acq45_masked	5	9	400	1	300	300	0	0	408	46	0	1	0	0	0	1	blank2r.bmp	0	1	+	0	2	B2r.bmp	492	1	blank2r.bmp	786	1	DHJF	786	1	blank2r.bmp	866	3	töten	866	1	!	1239	1	!	1306	0	0	0	0	0	0	0	0	0	0	0	0	0	0	0	0	0	0	0	0	0	0	0	0	0	0	0
040419	12:06:25	12:13:58	451333	5.0.10.0	4_exp_EVA_AMP_AWA_CON	186	Rpleas_acq	Same	Rpleas	Amasked	CS_A	1pleas	distractor1	EVAbeforeCON	acq_US_unple_masked	acq45_masked	5	10	400	0	300	300	0	0	484	46	0	1	0	0	0	1	blank2r.bmp	0	1	+	0	1	B1r.bmp	492	1	blank2r.bmp	786	1	DHJF	786	1	blank2r.bmp	866	5	gemein	866	1	!	1239	1	!	-1	0	0	0	0	0	0	0	0	0	0	0	0	0	0	0	0	0	0	0	0	0	0	0	0	0	0	0
040419	12:06:25	12:14:01	453559	5.0.10.0	4_exp_EVA_AMP_AWA_CON	186	Rpleas_acq	Same	Rpleas	Amasked	CS_A	1pleas	distractor1	EVAbeforeCON	acq_US_unple_masked	acq45_masked	5	11	400	1	300	300	0	0	424	46	0	1	0	0	0	1	blank2r.bmp	0	1	+	0	8	C4r.bmp	492	1	blank2r.bmp	786	1	DHJF	786	1	blank2r.bmp	866	4	engstirnig	866	1	!	1239	1	!	1319	0	0	0	0	0	0	0	0	0	0	0	0	0	0	0	0	0	0	0	0	0	0	0	0	0	0	0
040419	12:06:25	12:14:03	455771	5.0.10.0	4_exp_EVA_AMP_AWA_CON	186	Rpleas_acq	Same	Rpleas	Amasked	CS_A	1pleas	distractor1	EVAbeforeCON	acq_US_pleas_masked	acq45_masked	5	12	400	1	300	300	0	0	421	46	0	0	0	0	0	1	blank2r.bmp	0	1	+	0	4	B4r.bmp	492	1	blank2r.bmp	786	1	CPLW	786	1	blank2r.bmp	866	5	genießen	866	1	!	1239	1	!	1319	0	0	0	0	0	0	0	0	0	0	0	0	0	0	0	0	0	0	0	0	0	0	0	0	0	0	0
040419	12:06:25	12:14:05	457930	5.0.10.0	4_exp_EVA_AMP_AWA_CON	186	Rpleas_acq	Same	Rpleas	Amasked	CS_A	1pleas	distractor1	EVAbeforeCON	acq_US_pleas_masked	acq45_masked	5	13	400	1	300	300	0	0	369	50	0	1	0	0	0	1	blank2r.bmp	0	1	+	0	3	B3r.bmp	492	1	blank2r.bmp	786	1	CPLW	786	1	blank2r.bmp	866	3	träumen	866	1	!	1239	1	!	1266	0	0	0	0	0	0	0	0	0	0	0	0	0	0	0	0	0	0	0	0	0	0	0	0	0	0	0
040419	12:06:25	12:14:07	460103	5.0.10.0	4_exp_EVA_AMP_AWA_CON	186	Rpleas_acq	Same	Rpleas	Amasked	CS_A	1pleas	distractor1	EVAbeforeCON	acq_US_pleas_masked	acq45_masked	5	14	400	1	300	300	0	0	382	50	0	1	0	0	0	1	blank2r.bmp	0	1	+	0	7	C3r.bmp	492	1	blank2r.bmp	786	1	CPLW	786	1	blank2r.bmp	866	5	genießen	866	1	!	1239	1	!	1279	0	0	0	0	0	0	0	0	0	0	0	0	0	0	0	0	0	0	0	0	0	0	0	0	0	0	0
040419	12:06:25	12:14:09	462195	5.0.10.0	4_exp_EVA_AMP_AWA_CON	186	Rpleas_acq	Same	Rpleas	Amasked	CS_A	1pleas	distractor1	EVAbeforeCON	acq_US_pleas_masked	acq45_masked	5	15	400	0	300	300	0	0	321	50	0	1	0	0	0	1	blank2r.bmp	0	1	+	0	6	C2r.bmp	492	1	blank2r.bmp	786	1	CPLW	786	1	blank2r.bmp	866	3	träumen	866	1	!	-1	1	!	-1	0	0	0	0	0	0	0	0	0	0	0	0	0	0	0	0	0	0	0	0	0	0	0	0	0	0	0
040419	12:06:25	12:14:12	464394	5.0.10.0	4_exp_EVA_AMP_AWA_CON	186	Rpleas_acq	Same	Rpleas	Amasked	CS_A	1pleas	distractor1	EVAbeforeCON	acq_US_unple_masked	acq45_masked	5	16	400	1	300	300	0	0	376	46	0	1	0	0	0	1	blank2r.bmp	0	1	+	0	5	C1r.bmp	492	1	blank2r.bmp	786	1	DHJF	786	1	blank2r.bmp	866	2	sterben	866	1	!	1239	1	!	1279	0	0	0	0	0	0	0	0	0	0	0	0	0	0	0	0	0	0	0	0	0	0	0	0	0	0	0
040419	12:06:25	12:14:14	466647	5.0.10.0	4_exp_EVA_AMP_AWA_CON	186	Rpleas_acq	Same	Rpleas	Amasked	CS_A	1pleas	distractor1	EVAbeforeCON	acq_US_unple_masked	acq45_masked	5	17	400	0	300	300	0	0	486	46	0	1	0	0	0	1	blank2r.bmp	0	1	+	0	5	C1r.bmp	492	1	blank2r.bmp	786	1	DHJF	786	1	blank2r.bmp	866	6	verbissen	866	1	!	1239	1	!	-1	0	0	0	0	0	0	0	0	0	0	0	0	0	0	0	0	0	0	0	0	0	0	0	0	0	0	0
040419	12:06:25	12:14:16	468912	5.0.10.0	4_exp_EVA_AMP_AWA_CON	186	Rpleas_acq	Same	Rpleas	Amasked	CS_A	1pleas	distractor1	EVAbeforeCON	acq_US_pleas_masked	acq45_masked	5	18	400	0	300	300	0	0	491	50	0	1	0	0	0	1	blank2r.bmp	0	1	+	0	6	C2r.bmp	492	1	blank2r.bmp	786	1	CPLW	786	1	blank2r.bmp	866	6	vergnügt	866	1	!	1239	1	!	-1	0	0	0	0	0	0	0	0	0	0	0	0	0	0	0	0	0	0	0	0	0	0	0	0	0	0	0
040419	12:06:25	12:14:18	471098	5.0.10.0	4_exp_EVA_AMP_AWA_CON	186	Rpleas_acq	Same	Rpleas	Amasked	CS_A	1pleas	distractor1	EVAbeforeCON	acq_US_pleas_masked	acq45_masked	5	19	400	1	300	300	0	0	383	50	0	1	0	0	0	1	blank2r.bmp	0	1	+	0	7	C3r.bmp	492	1	blank2r.bmp	786	1	CPLW	786	1	blank2r.bmp	866	2	sonnig	866	1	!	1239	1	!	1279	0	0	0	0	0	0	0	0	0	0	0	0	0	0	0	0	0	0	0	0	0	0	0	0	0	0	0
040419	12:06:25	12:14:20	473177	5.0.10.0	4_exp_EVA_AMP_AWA_CON	186	Rpleas_acq	Same	Rpleas	Amasked	CS_A	1pleas	distractor1	EVAbeforeCON	acq_US_pleas_masked	acq45_masked	5	20	400	0	300	300	0	0	304	50	0	1	0	0	0	1	blank2r.bmp	0	1	+	0	3	B3r.bmp	492	1	blank2r.bmp	786	1	CPLW	786	1	blank2r.bmp	866	4	engagiert	866	1	!	-1	1	!	-1	0	0	0	0	0	0	0	0	0	0	0	0	0	0	0	0	0	0	0	0	0	0	0	0	0	0	0
040419	12:06:25	12:14:22	475243	5.0.10.0	4_exp_EVA_AMP_AWA_CON	186	Rpleas_acq	Same	Rpleas	Amasked	CS_A	1pleas	distractor1	EVAbeforeCON	acq_US_pleas_masked	acq45_masked	5	21	400	0	300	300	0	0	269	50	0	1	0	0	0	1	blank2r.bmp	0	1	+	0	4	B4r.bmp	492	1	blank2r.bmp	786	1	CPLW	786	1	blank2r.bmp	866	1	gütig	866	1	!	-1	1	!	-1	0	0	0	0	0	0	0	0	0	0	0	0	0	0	0	0	0	0	0	0	0	0	0	0	0	0	0
040419	12:06:25	12:14:25	477482	5.0.10.0	4_exp_EVA_AMP_AWA_CON	186	Rpleas_acq	Same	Rpleas	Amasked	CS_A	1pleas	distractor1	EVAbeforeCON	acq_US_unple_masked	acq45_masked	5	22	400	1	300	300	0	0	437	46	0	1	0	0	0	1	blank2r.bmp	0	1	+	0	1	B1r.bmp	492	1	blank2r.bmp	786	1	DHJF	786	1	blank2r.bmp	866	3	töten	866	1	!	1239	1	!	1332	0	0	0	0	0	0	0	0	0	0	0	0	0	0	0	0	0	0	0	0	0	0	0	0	0	0	0
040419	12:06:25	12:14:27	479641	5.0.10.0	4_exp_EVA_AMP_AWA_CON	186	Rpleas_acq	Same	Rpleas	Amasked	CS_A	1pleas	distractor1	EVAbeforeCON	acq_US_unple_masked	acq45_masked	5	23	400	1	300	300	0	0	363	50	0	0	0	0	0	1	blank2r.bmp	0	1	+	0	8	C4r.bmp	492	1	blank2r.bmp	786	1	DHJF	786	1	blank2r.bmp	866	5	gemein	866	1	!	1239	1	!	1266	0	0	0	0	0	0	0	0	0	0	0	0	0	0	0	0	0	0	0	0	0	0	0	0	0	0	0
040419	12:06:25	12:14:29	481827	5.0.10.0	4_exp_EVA_AMP_AWA_CON	186	Rpleas_acq	Same	Rpleas	Amasked	CS_A	1pleas	distractor1	EVAbeforeCON	acq_US_unple_masked	acq45_masked	5	24	400	1	300	300	0	0	387	46	0	1	0	0	0	1	blank2r.bmp	0	1	+	0	2	B2r.bmp	492	1	blank2r.bmp	786	1	DHJF	786	1	blank2r.bmp	866	1	gierig	866	1	!	1239	1	!	1292	0	0	0	0	0	0	0	0	0	0	0	0	0	0	0	0	0	0	0	0	0	0	0	0	0	0	0
040419	12:06:25	12:14:31	484026	5.0.10.0	4_exp_EVA_AMP_AWA_CON	186	Rpleas_acq	Same	Rpleas	Amasked	CS_A	1pleas	distractor1	EVAbeforeCON	acq_US_pleas_masked	acq45_masked	5	25	400	1	300	300	0	0	407	50	0	1	0	0	0	1	blank2r.bmp	0	1	+	0	5	C1r.bmp	492	1	blank2r.bmp	786	1	CPLW	786	1	blank2r.bmp	866	2	sonnig	866	1	!	1239	1	!	1306	0	0	0	0	0	0	0	0	0	0	0	0	0	0	0	0	0	0	0	0	0	0	0	0	0	0	0
040419	12:06:25	12:14:33	486252	5.0.10.0	4_exp_EVA_AMP_AWA_CON	186	Rpleas_acq	Same	Rpleas	Amasked	CS_A	1pleas	distractor1	EVAbeforeCON	acq_US_unple_masked	acq45_masked	5	26	400	1	300	300	0	0	426	46	0	1	0	0	0	1	blank2r.bmp	0	1	+	0	7	C3r.bmp	492	1	blank2r.bmp	786	1	DHJF	786	1	blank2r.bmp	866	6	verbissen	866	1	!	1239	1	!	1332	0	0	0	0	0	0	0	0	0	0	0	0	0	0	0	0	0	0	0	0	0	0	0	0	0	0	0
040419	12:06:25	12:14:36	488491	5.0.10.0	4_exp_EVA_AMP_AWA_CON	186	Rpleas_acq	Same	Rpleas	Amasked	CS_A	1pleas	distractor1	EVAbeforeCON	acq_US_unple_masked	acq45_masked	5	27	400	1	300	300	0	0	441	50	0	0	0	0	0	1	blank2r.bmp	0	1	+	0	4	B4r.bmp	492	1	blank2r.bmp	786	1	DHJF	786	1	blank2r.bmp	866	5	gemein	866	1	!	1239	1	!	1346	0	0	0	0	0	0	0	0	0	0	0	0	0	0	0	0	0	0	0	0	0	0	0	0	0	0	0
040419	12:06:25	12:14:38	490743	5.0.10.0	4_exp_EVA_AMP_AWA_CON	186	Rpleas_acq	Same	Rpleas	Amasked	CS_A	1pleas	distractor1	EVAbeforeCON	acq_US_unple_masked	acq45_masked	5	28	400	1	300	300	0	0	454	46	0	1	0	0	0	1	blank2r.bmp	0	1	+	0	8	C4r.bmp	492	1	blank2r.bmp	786	1	DHJF	786	1	blank2r.bmp	866	2	sterben	866	1	!	1239	1	!	1359	0	0	0	0	0	0	0	0	0	0	0	0	0	0	0	0	0	0	0	0	0	0	0	0	0	0	0
040419	12:06:25	12:14:40	492996	5.0.10.0	4_exp_EVA_AMP_AWA_CON	186	Rpleas_acq	Same	Rpleas	Amasked	CS_A	1pleas	distractor1	EVAbeforeCON	acq_US_unple_masked	acq45_masked	5	29	400	1	300	300	0	0	460	46	0	1	0	0	0	1	blank2r.bmp	0	1	+	0	2	B2r.bmp	492	1	blank2r.bmp	786	1	DHJF	786	1	blank2r.bmp	866	1	gierig	866	1	!	1239	1	!	1359	0	0	0	0	0	0	0	0	0	0	0	0	0	0	0	0	0	0	0	0	0	0	0	0	0	0	0
040419	12:06:25	12:14:42	495248	5.0.10.0	4_exp_EVA_AMP_AWA_CON	186	Rpleas_acq	Same	Rpleas	Amasked	CS_A	1pleas	distractor1	EVAbeforeCON	acq_US_unple_masked	acq45_masked	5	30	400	0	300	300	0	0	479	46	0	1	0	0	0	1	blank2r.bmp	0	1	+	0	3	B3r.bmp	492	1	blank2r.bmp	786	1	DHJF	786	1	blank2r.bmp	866	4	engstirnig	866	1	!	1239	1	!	-1	0	0	0	0	0	0	0	0	0	0	0	0	0	0	0	0	0	0	0	0	0	0	0	0	0	0	0
040419	12:06:25	12:14:45	497434	5.0.10.0	4_exp_EVA_AMP_AWA_CON	186	Rpleas_acq	Same	Rpleas	Amasked	CS_A	1pleas	distractor1	EVAbeforeCON	acq_US_pleas_masked	acq45_masked	5	31	400	1	300	300	0	0	383	50	0	1	0	0	0	1	blank2r.bmp	0	1	+	0	6	C2r.bmp	492	1	blank2r.bmp	786	1	CPLW	786	1	blank2r.bmp	866	1	gütig	866	1	!	1239	1	!	1279	0	0	0	0	0	0	0	0	0	0	0	0	0	0	0	0	0	0	0	0	0	0	0	0	0	0	0
040419	12:06:25	12:14:47	499620	5.0.10.0	4_exp_EVA_AMP_AWA_CON	186	Rpleas_acq	Same	Rpleas	Amasked	CS_A	1pleas	distractor1	EVAbeforeCON	acq_US_pleas_masked	acq45_masked	5	32	400	1	300	300	0	0	396	50	0	1	0	0	0	1	blank2r.bmp	0	1	+	0	1	B1r.bmp	492	1	blank2r.bmp	786	1	CPLW	786	1	blank2r.bmp	866	3	träumen	866	1	!	1239	1	!	1292	0	0	0	0	0	0	0	0	0	0	0	0	0	0	0	0	0	0	0	0	0	0	0	0	0	0	0
040419	12:06:25	12:14:49	501859	5.0.10.0	4_exp_EVA_AMP_AWA_CON	186	Rpleas_acq	Same	Rpleas	Amasked	CS_A	1pleas	distractor1	EVAbeforeCON	acq_US_unple_masked	acq45_masked	5	33	400	1	300	300	0	0	448	46	0	1	0	0	0	1	blank2r.bmp	0	1	+	0	1	B1r.bmp	492	1	blank2r.bmp	786	1	DHJF	786	1	blank2r.bmp	866	3	töten	866	1	!	1239	1	!	1346	0	0	0	0	0	0	0	0	0	0	0	0	0	0	0	0	0	0	0	0	0	0	0	0	0	0	0
040419	12:06:25	12:14:51	504111	5.0.10.0	4_exp_EVA_AMP_AWA_CON	186	Rpleas_acq	Same	Rpleas	Amasked	CS_A	1pleas	distractor1	EVAbeforeCON	acq_US_pleas_masked	acq45_masked	5	34	400	0	300	300	0	0	482	46	0	0	0	0	0	1	blank2r.bmp	0	1	+	0	5	C1r.bmp	492	1	blank2r.bmp	786	1	CPLW	786	1	blank2r.bmp	866	4	engagiert	866	1	!	1239	1	!	-1	0	0	0	0	0	0	0	0	0	0	0	0	0	0	0	0	0	0	0	0	0	0	0	0	0	0	0
040419	12:06:25	12:14:54	506390	5.0.10.0	4_exp_EVA_AMP_AWA_CON	186	Rpleas_acq	Same	Rpleas	Amasked	CS_A	1pleas	distractor1	EVAbeforeCON	acq_US_pleas_masked	acq45_masked	5	35	400	1	300	300	0	0	464	50	0	1	0	0	0	1	blank2r.bmp	0	1	+	0	7	C3r.bmp	492	1	blank2r.bmp	786	1	CPLW	786	1	blank2r.bmp	866	6	vergnügt	866	1	!	1239	1	!	1359	0	0	0	0	0	0	0	0	0	0	0	0	0	0	0	0	0	0	0	0	0	0	0	0	0	0	0
040419	12:06:25	12:14:56	508576	5.0.10.0	4_exp_EVA_AMP_AWA_CON	186	Rpleas_acq	Same	Rpleas	Amasked	CS_A	1pleas	distractor1	EVAbeforeCON	acq_US_pleas_masked	acq45_masked	5	36	400	1	300	300	0	0	387	50	0	1	0	0	0	1	blank2r.bmp	0	1	+	0	2	B2r.bmp	492	1	blank2r.bmp	786	1	CPLW	786	1	blank2r.bmp	866	5	genießen	866	1	!	1239	1	!	1292	0	0	0	0	0	0	0	0	0	0	0	0	0	0	0	0	0	0	0	0	0	0	0	0	0	0	0
040419	12:06:25	12:15:09	521851	5.0.10.0	4_exp_EVA_AMP_AWA_CON	186	Rpleas_acq	Same	Rpleas	Amasked	CS_A	1pleas	distractor1	EVAbeforeCON	EvalRating_firsttwo	EvalRating_firsttwo	6	1	0	0	300	300	0	0	4010	line	-30,517578125	0	0	0	0	1	eraser	1	1	Wie angenehm oder unangenehm finden Sie die  Buchstabenkette ZGXT?	1	1	leftborder	1	1	rightborder	1	1	line	1	1	Unangenehm	1	1	Angenehm	1	0	0	0	0	0	0	0	0	0	0	0	0	0	0	0	0	0	0	0	0	0	0	0	0	0	0	0	0	0	0	0	0	0
040419	12:06:25	12:15:14	527009	5.0.10.0	4_exp_EVA_AMP_AWA_CON	186	Rpleas_acq	Same	Rpleas	Amasked	CS_A	1pleas	distractor1	EVAbeforeCON	EvalRating_lastfour	EvalRating_lastfour	7	1	0	0	300	300	0	0	2694	line	9,033203125	0	0	0	0	1	eraser	0	1	Wie angenehm oder unangenehm finden Sie die  Buchstabenkette CPLW?	0	1	leftborder	0	1	rightborder	0	1	line	0	1	Unangenehm	0	1	Angenehm	0	0	0	0	0	0	0	0	0	0	0	0	0	0	0	0	0	0	0	0	0	0	0	0	0	0	0	0	0	0	0	0	0	0
040419	12:06:25	12:15:17	529394	5.0.10.0	4_exp_EVA_AMP_AWA_CON	186	Rpleas_acq	Same	Rpleas	Amasked	CS_A	1pleas	distractor1	EVAbeforeCON	blank_screen	EvalRating_lastfour	7	3	0	0	300	300	0	0	0	0	9,033203125	0	0	0	0	1	eraser	0	0	0	0	0	0	0	0	0	0	0	0	0	0	0	0	0	0	0	0	0	0	0	0	0	0	0	0	0	0	0	0	0	0	0	0	0	0	0	0	0	0	0	0	0	0	0	0	0	0	0	0
040419	12:06:25	12:15:20	532566	5.0.10.0	4_exp_EVA_AMP_AWA_CON	186	Rpleas_acq	Same	Rpleas	Amasked	CS_A	1pleas	distractor1	EVAbeforeCON	EvalRating_lastfour	EvalRating_lastfour	7	4	0	0	300	300	0	0	2590	line	-1,953125	0	0	0	0	1	eraser	1	2	Wie angenehm oder unangenehm finden Sie die  Buchstabenkette DHJF?	1	1	leftborder	1	1	rightborder	1	1	line	1	1	Unangenehm	1	1	Angenehm	1	0	0	0	0	0	0	0	0	0	0	0	0	0	0	0	0	0	0	0	0	0	0	0	0	0	0	0	0	0	0	0	0	0
040419	12:06:25	12:15:22	534939	5.0.10.0	4_exp_EVA_AMP_AWA_CON	186	Rpleas_acq	Same	Rpleas	Amasked	CS_A	1pleas	distractor1	EVAbeforeCON	blank_screen	EvalRating_lastfour	7	6	0	0	300	300	0	0	0	0	-1,953125	0	0	0	0	1	eraser	0	0	0	0	0	0	0	0	0	0	0	0	0	0	0	0	0	0	0	0	0	0	0	0	0	0	0	0	0	0	0	0	0	0	0	0	0	0	0	0	0	0	0	0	0	0	0	0	0	0	0	0
040419	12:06:25	12:15:25	537591	5.0.10.0	4_exp_EVA_AMP_AWA_CON	186	Rpleas_acq	Same	Rpleas	Amasked	CS_A	1pleas	distractor1	EVAbeforeCON	EvalRating_lastfour	EvalRating_lastfour	7	7	0	0	300	300	0	0	2077	line	-6,34765625	0	0	0	0	1	eraser	0	3	Wie angenehm oder unangenehm finden Sie die  Buchstabenkette QYSB?	0	1	leftborder	0	1	rightborder	0	1	line	0	1	Unangenehm	0	1	Angenehm	0	0	0	0	0	0	0	0	0	0	0	0	0	0	0	0	0	0	0	0	0	0	0	0	0	0	0	0	0	0	0	0	0	0
040419	12:06:25	12:15:49	562314	5.0.10.0	4_exp_EVA_AMP_AWA_CON	186	Rpleas_acq	Same	Rpleas	Amasked	CS_A	1pleas	distractor1	EVAbeforeCON	AMP_CSunple	AMP1_masked	8	1	0	0	300	300	0	0	5898	46	-6,34765625	1	0	0	0	1	blank2r.bmp	0	1	DHJF	0	1	blank2r.bmp	79	35	pic35.bmp	199	1	whitenoise_No3.bmp	306	0	0	0	0	0	0	0	0	0	0	0	0	0	0	0	0	0	0	0	0	0	0	0	0	0	0	0	0	0	0	0	0	0	0	0	0	0	0	0
040419	12:06:25	12:15:52	564940	5.0.10.0	4_exp_EVA_AMP_AWA_CON	186	Rpleas_acq	Same	Rpleas	Amasked	CS_A	1pleas	distractor1	EVAbeforeCON	AMP_CSpleas	AMP1_masked	8	2	0	0	300	300	0	0	1708	50	-6,34765625	1	0	0	0	1	blank2r.bmp	0	1	CPLW	0	1	blank2r.bmp	79	32	pic32.bmp	199	1	whitenoise_No3.bmp	306	0	0	0	0	0	0	0	0	0	0	0	0	0	0	0	0	0	0	0	0	0	0	0	0	0	0	0	0	0	0	0	0	0	0	0	0	0	0	0
040419	12:06:25	12:15:55	567592	5.0.10.0	4_exp_EVA_AMP_AWA_CON	186	Rpleas_acq	Same	Rpleas	Amasked	CS_A	1pleas	distractor1	EVAbeforeCON	AMP_CSunple	AMP1_masked	8	3	0	0	300	300	0	0	1741	50	-6,34765625	0	0	0	0	1	blank2r.bmp	0	1	DHJF	0	1	blank2r.bmp	79	23	pic23.bmp	199	1	whitenoise_No3.bmp	306	0	0	0	0	0	0	0	0	0	0	0	0	0	0	0	0	0	0	0	0	0	0	0	0	0	0	0	0	0	0	0	0	0	0	0	0	0	0	0
040419	12:06:25	12:15:56	569164	5.0.10.0	4_exp_EVA_AMP_AWA_CON	186	Rpleas_acq	Same	Rpleas	Amasked	CS_A	1pleas	distractor1	EVAbeforeCON	AMP_CSpleas	AMP1_masked	8	4	0	0	300	300	0	0	641	46	-6,34765625	0	0	0	0	1	blank2r.bmp	0	1	CPLW	0	1	blank2r.bmp	79	55	pic55.bmp	199	1	whitenoise_No3.bmp	306	0	0	0	0	0	0	0	0	0	0	0	0	0	0	0	0	0	0	0	0	0	0	0	0	0	0	0	0	0	0	0	0	0	0	0	0	0	0	0
040419	12:06:25	12:15:58	570670	5.0.10.0	4_exp_EVA_AMP_AWA_CON	186	Rpleas_acq	Same	Rpleas	Amasked	CS_A	1pleas	distractor1	EVAbeforeCON	AMP_CSpleas	AMP1_masked	8	5	0	0	300	300	0	0	589	46	-6,34765625	0	0	0	0	1	blank2r.bmp	0	1	CPLW	0	1	blank2r.bmp	79	43	pic43.bmp	199	1	whitenoise_No3.bmp	306	0	0	0	0	0	0	0	0	0	0	0	0	0	0	0	0	0	0	0	0	0	0	0	0	0	0	0	0	0	0	0	0	0	0	0	0	0	0	0
040419	12:06:25	12:16:00	572510	5.0.10.0	4_exp_EVA_AMP_AWA_CON	186	Rpleas_acq	Same	Rpleas	Amasked	CS_A	1pleas	distractor1	EVAbeforeCON	AMP_CSpleas	AMP1_masked	8	6	0	0	300	300	0	0	912	50	-6,34765625	1	0	0	0	1	blank2r.bmp	0	1	CPLW	0	1	blank2r.bmp	79	25	pic25.bmp	199	1	whitenoise_No3.bmp	306	0	0	0	0	0	0	0	0	0	0	0	0	0	0	0	0	0	0	0	0	0	0	0	0	0	0	0	0	0	0	0	0	0	0	0	0	0	0	0
040419	12:06:25	12:16:02	574909	5.0.10.0	4_exp_EVA_AMP_AWA_CON	186	Rpleas_acq	Same	Rpleas	Amasked	CS_A	1pleas	distractor1	EVAbeforeCON	AMP_CSpleas	AMP1_masked	8	7	0	0	300	300	0	0	1467	50	-6,34765625	1	0	0	0	1	blank2r.bmp	0	1	CPLW	0	1	blank2r.bmp	79	78	pic78.bmp	199	1	whitenoise_No3.bmp	306	0	0	0	0	0	0	0	0	0	0	0	0	0	0	0	0	0	0	0	0	0	0	0	0	0	0	0	0	0	0	0	0	0	0	0	0	0	0	0
040419	12:06:25	12:16:04	576508	5.0.10.0	4_exp_EVA_AMP_AWA_CON	186	Rpleas_acq	Same	Rpleas	Amasked	CS_A	1pleas	distractor1	EVAbeforeCON	AMP_distractor	AMP1_masked	8	8	0	0	300	300	0	0	683	50	-6,34765625	0	0	0	0	1	blank2r.bmp	0	1	ZGXT	0	1	blank2r.bmp	79	12	pic12.bmp	199	1	whitenoise_No3.bmp	306	0	0	0	0	0	0	0	0	0	0	0	0	0	0	0	0	0	0	0	0	0	0	0	0	0	0	0	0	0	0	0	0	0	0	0	0	0	0	0
040419	12:06:25	12:16:05	578014	5.0.10.0	4_exp_EVA_AMP_AWA_CON	186	Rpleas_acq	Same	Rpleas	Amasked	CS_A	1pleas	distractor1	EVAbeforeCON	AMP_CSpleas	AMP1_masked	8	9	0	0	300	300	0	0	572	46	-6,34765625	0	0	0	0	1	blank2r.bmp	0	1	CPLW	0	1	blank2r.bmp	79	21	pic21.bmp	199	1	whitenoise_No3.bmp	306	0	0	0	0	0	0	0	0	0	0	0	0	0	0	0	0	0	0	0	0	0	0	0	0	0	0	0	0	0	0	0	0	0	0	0	0	0	0	0
040419	12:06:25	12:16:08	581146	5.0.10.0	4_exp_EVA_AMP_AWA_CON	186	Rpleas_acq	Same	Rpleas	Amasked	CS_A	1pleas	distractor1	EVAbeforeCON	AMP_CSunple	AMP1_masked	8	10	0	0	300	300	0	0	2214	46	-6,34765625	1	0	0	0	1	blank2r.bmp	0	1	DHJF	0	1	blank2r.bmp	79	128	pic128.bmp	199	1	whitenoise_No3.bmp	306	0	0	0	0	0	0	0	0	0	0	0	0	0	0	0	0	0	0	0	0	0	0	0	0	0	0	0	0	0	0	0	0	0	0	0	0	0	0	0
040419	12:06:25	12:16:10	582945	5.0.10.0	4_exp_EVA_AMP_AWA_CON	186	Rpleas_acq	Same	Rpleas	Amasked	CS_A	1pleas	distractor1	EVAbeforeCON	AMP_CSunple	AMP1_masked	8	11	0	0	300	300	0	0	887	50	-6,34765625	0	0	0	0	1	blank2r.bmp	0	1	DHJF	0	1	blank2r.bmp	79	117	pic117.bmp	199	1	whitenoise_No3.bmp	306	0	0	0	0	0	0	0	0	0	0	0	0	0	0	0	0	0	0	0	0	0	0	0	0	0	0	0	0	0	0	0	0	0	0	0	0	0	0	0
040419	12:06:25	12:16:12	584558	5.0.10.0	4_exp_EVA_AMP_AWA_CON	186	Rpleas_acq	Same	Rpleas	Amasked	CS_A	1pleas	distractor1	EVAbeforeCON	AMP_CSpleas	AMP1_masked	8	12	0	0	300	300	0	0	688	50	-6,34765625	1	0	0	0	1	blank2r.bmp	0	1	CPLW	0	1	blank2r.bmp	79	104	pic104.bmp	199	1	whitenoise_No3.bmp	306	0	0	0	0	0	0	0	0	0	0	0	0	0	0	0	0	0	0	0	0	0	0	0	0	0	0	0	0	0	0	0	0	0	0	0	0	0	0	0
040419	12:06:25	12:16:13	586291	5.0.10.0	4_exp_EVA_AMP_AWA_CON	186	Rpleas_acq	Same	Rpleas	Amasked	CS_A	1pleas	distractor1	EVAbeforeCON	AMP_CSunple	AMP1_masked	8	13	0	0	300	300	0	0	802	50	-6,34765625	0	0	0	0	1	blank2r.bmp	0	1	DHJF	0	1	blank2r.bmp	79	58	pic58.bmp	199	1	whitenoise_No3.bmp	306	0	0	0	0	0	0	0	0	0	0	0	0	0	0	0	0	0	0	0	0	0	0	0	0	0	0	0	0	0	0	0	0	0	0	0	0	0	0	0
040419	12:06:25	12:16:15	588170	5.0.10.0	4_exp_EVA_AMP_AWA_CON	186	Rpleas_acq	Same	Rpleas	Amasked	CS_A	1pleas	distractor1	EVAbeforeCON	AMP_distractor	AMP1_masked	8	14	0	0	300	300	0	0	967	50	-6,34765625	0	0	0	0	1	blank2r.bmp	0	1	ZGXT	0	1	blank2r.bmp	79	138	pic138.bmp	199	1	whitenoise_No3.bmp	306	0	0	0	0	0	0	0	0	0	0	0	0	0	0	0	0	0	0	0	0	0	0	0	0	0	0	0	0	0	0	0	0	0	0	0	0	0	0	0
040419	12:06:25	12:16:17	589543	5.0.10.0	4_exp_EVA_AMP_AWA_CON	186	Rpleas_acq	Same	Rpleas	Amasked	CS_A	1pleas	distractor1	EVAbeforeCON	AMP_distractor	AMP1_masked	8	15	0	0	300	300	0	0	450	46	-6,34765625	0	0	0	0	1	blank2r.bmp	0	1	ZGXT	0	1	blank2r.bmp	79	15	pic15.bmp	199	1	whitenoise_No3.bmp	306	0	0	0	0	0	0	0	0	0	0	0	0	0	0	0	0	0	0	0	0	0	0	0	0	0	0	0	0	0	0	0	0	0	0	0	0	0	0	0
040419	12:06:25	12:16:18	591022	5.0.10.0	4_exp_EVA_AMP_AWA_CON	186	Rpleas_acq	Same	Rpleas	Amasked	CS_A	1pleas	distractor1	EVAbeforeCON	AMP_distractor	AMP1_masked	8	16	0	0	300	300	0	0	556	46	-6,34765625	0	0	0	0	1	blank2r.bmp	0	1	ZGXT	0	1	blank2r.bmp	79	26	pic26.bmp	199	1	whitenoise_No3.bmp	306	0	0	0	0	0	0	0	0	0	0	0	0	0	0	0	0	0	0	0	0	0	0	0	0	0	0	0	0	0	0	0	0	0	0	0	0	0	0	0
040419	12:06:25	12:16:20	593221	5.0.10.0	4_exp_EVA_AMP_AWA_CON	186	Rpleas_acq	Same	Rpleas	Amasked	CS_A	1pleas	distractor1	EVAbeforeCON	AMP_distractor	AMP1_masked	8	17	0	0	300	300	0	0	1268	46	-6,34765625	0	0	0	0	1	blank2r.bmp	0	1	ZGXT	0	1	blank2r.bmp	79	47	pic47.bmp	199	1	whitenoise_No3.bmp	306	0	0	0	0	0	0	0	0	0	0	0	0	0	0	0	0	0	0	0	0	0	0	0	0	0	0	0	0	0	0	0	0	0	0	0	0	0	0	0
040419	12:06:25	12:16:22	594714	5.0.10.0	4_exp_EVA_AMP_AWA_CON	186	Rpleas_acq	Same	Rpleas	Amasked	CS_A	1pleas	distractor1	EVAbeforeCON	AMP_distractor	AMP1_masked	8	18	0	0	300	300	0	0	577	46	-6,34765625	0	0	0	0	1	blank2r.bmp	0	1	ZGXT	0	1	blank2r.bmp	79	64	pic64.bmp	199	1	whitenoise_No3.bmp	306	0	0	0	0	0	0	0	0	0	0	0	0	0	0	0	0	0	0	0	0	0	0	0	0	0	0	0	0	0	0	0	0	0	0	0	0	0	0	0
040419	12:06:25	12:16:24	596487	5.0.10.0	4_exp_EVA_AMP_AWA_CON	186	Rpleas_acq	Same	Rpleas	Amasked	CS_A	1pleas	distractor1	EVAbeforeCON	AMP_CSpleas	AMP1_masked	8	19	0	0	300	300	0	0	846	50	-6,34765625	1	0	0	0	1	blank2r.bmp	0	1	CPLW	0	1	blank2r.bmp	79	50	pic50.bmp	199	1	whitenoise_No3.bmp	306	0	0	0	0	0	0	0	0	0	0	0	0	0	0	0	0	0	0	0	0	0	0	0	0	0	0	0	0	0	0	0	0	0	0	0	0	0	0	0
040419	12:06:25	12:16:25	598312	5.0.10.0	4_exp_EVA_AMP_AWA_CON	186	Rpleas_acq	Same	Rpleas	Amasked	CS_A	1pleas	distractor1	EVAbeforeCON	AMP_distractor	AMP1_masked	8	20	0	0	300	300	0	0	900	50	-6,34765625	0	0	0	0	1	blank2r.bmp	0	1	ZGXT	0	1	blank2r.bmp	79	33	pic33.bmp	199	1	whitenoise_No3.bmp	306	0	0	0	0	0	0	0	0	0	0	0	0	0	0	0	0	0	0	0	0	0	0	0	0	0	0	0	0	0	0	0	0	0	0	0	0	0	0	0
040419	12:06:25	12:16:28	600565	5.0.10.0	4_exp_EVA_AMP_AWA_CON	186	Rpleas_acq	Same	Rpleas	Amasked	CS_A	1pleas	distractor1	EVAbeforeCON	AMP_distractor	AMP1_masked	8	21	0	0	300	300	0	0	1325	50	-6,34765625	0	0	0	0	1	blank2r.bmp	0	1	ZGXT	0	1	blank2r.bmp	79	22	pic22.bmp	199	1	whitenoise_No3.bmp	306	0	0	0	0	0	0	0	0	0	0	0	0	0	0	0	0	0	0	0	0	0	0	0	0	0	0	0	0	0	0	0	0	0	0	0	0	0	0	0
040419	12:06:25	12:16:30	603044	5.0.10.0	4_exp_EVA_AMP_AWA_CON	186	Rpleas_acq	Same	Rpleas	Amasked	CS_A	1pleas	distractor1	EVAbeforeCON	AMP_CSunple	AMP1_masked	8	22	0	0	300	300	0	0	1568	46	-6,34765625	1	0	0	0	1	blank2r.bmp	0	1	DHJF	0	1	blank2r.bmp	79	30	pic30.bmp	199	1	whitenoise_No3.bmp	306	0	0	0	0	0	0	0	0	0	0	0	0	0	0	0	0	0	0	0	0	0	0	0	0	0	0	0	0	0	0	0	0	0	0	0	0	0	0	0
040419	12:06:25	12:16:32	605110	5.0.10.0	4_exp_EVA_AMP_AWA_CON	186	Rpleas_acq	Same	Rpleas	Amasked	CS_A	1pleas	distractor1	EVAbeforeCON	AMP_CSunple	AMP1_masked	8	23	0	0	300	300	0	0	1136	46	-6,34765625	1	0	0	0	1	blank2r.bmp	0	1	DHJF	0	1	blank2r.bmp	79	56	pic56.bmp	199	1	whitenoise_No3.bmp	306	0	0	0	0	0	0	0	0	0	0	0	0	0	0	0	0	0	0	0	0	0	0	0	0	0	0	0	0	0	0	0	0	0	0	0	0	0	0	0
040419	12:06:25	12:16:34	606656	5.0.10.0	4_exp_EVA_AMP_AWA_CON	186	Rpleas_acq	Same	Rpleas	Amasked	CS_A	1pleas	distractor1	EVAbeforeCON	AMP_distractor	AMP1_masked	8	24	0	0	300	300	0	0	631	46	-6,34765625	0	0	0	0	1	blank2r.bmp	0	1	ZGXT	0	1	blank2r.bmp	79	34	pic34.bmp	199	1	whitenoise_No3.bmp	306	0	0	0	0	0	0	0	0	0	0	0	0	0	0	0	0	0	0	0	0	0	0	0	0	0	0	0	0	0	0	0	0	0	0	0	0	0	0	0
040419	12:06:25	12:16:36	608588	5.0.10.0	4_exp_EVA_AMP_AWA_CON	186	Rpleas_acq	Same	Rpleas	Amasked	CS_A	1pleas	distractor1	EVAbeforeCON	AMP_CSunple	AMP1_masked	8	25	0	0	300	300	0	0	1005	46	-6,34765625	1	0	0	0	1	blank2r.bmp	0	1	DHJF	0	1	blank2r.bmp	79	20	pic20.bmp	199	1	whitenoise_No3.bmp	306	0	0	0	0	0	0	0	0	0	0	0	0	0	0	0	0	0	0	0	0	0	0	0	0	0	0	0	0	0	0	0	0	0	0	0	0	0	0	0
040419	12:06:25	12:16:38	610667	5.0.10.0	4_exp_EVA_AMP_AWA_CON	186	Rpleas_acq	Same	Rpleas	Amasked	CS_A	1pleas	distractor1	EVAbeforeCON	AMP_distractor	AMP1_masked	8	26	0	0	300	300	0	0	1162	46	-6,34765625	0	0	0	0	1	blank2r.bmp	0	1	ZGXT	0	1	blank2r.bmp	79	132	pic132.bmp	199	1	whitenoise_No3.bmp	306	0	0	0	0	0	0	0	0	0	0	0	0	0	0	0	0	0	0	0	0	0	0	0	0	0	0	0	0	0	0	0	0	0	0	0	0	0	0	0
040419	12:06:25	12:16:40	612520	5.0.10.0	4_exp_EVA_AMP_AWA_CON	186	Rpleas_acq	Same	Rpleas	Amasked	CS_A	1pleas	distractor1	EVAbeforeCON	AMP_CSunple	AMP1_masked	8	27	0	0	300	300	0	0	930	50	-6,34765625	0	0	0	0	1	blank2r.bmp	0	1	DHJF	0	1	blank2r.bmp	79	141	pic141.bmp	199	1	whitenoise_No3.bmp	306	0	0	0	0	0	0	0	0	0	0	0	0	0	0	0	0	0	0	0	0	0	0	0	0	0	0	0	0	0	0	0	0	0	0	0	0	0	0	0
040419	12:06:25	12:16:41	613866	5.0.10.0	4_exp_EVA_AMP_AWA_CON	186	Rpleas_acq	Same	Rpleas	Amasked	CS_A	1pleas	distractor1	EVAbeforeCON	AMP_CSpleas	AMP1_masked	8	28	0	0	300	300	0	0	419	50	-6,34765625	1	0	0	0	1	blank2r.bmp	0	1	CPLW	0	1	blank2r.bmp	79	77	pic77.bmp	199	1	whitenoise_No3.bmp	306	0	0	0	0	0	0	0	0	0	0	0	0	0	0	0	0	0	0	0	0	0	0	0	0	0	0	0	0	0	0	0	0	0	0	0	0	0	0	0
040419	12:06:25	12:16:43	615439	5.0.10.0	4_exp_EVA_AMP_AWA_CON	186	Rpleas_acq	Same	Rpleas	Amasked	CS_A	1pleas	distractor1	EVAbeforeCON	AMP_distractor	AMP1_masked	8	29	0	0	300	300	0	0	641	46	-6,34765625	0	0	0	0	1	blank2r.bmp	0	1	ZGXT	0	1	blank2r.bmp	79	118	pic118.bmp	199	1	whitenoise_No3.bmp	306	0	0	0	0	0	0	0	0	0	0	0	0	0	0	0	0	0	0	0	0	0	0	0	0	0	0	0	0	0	0	0	0	0	0	0	0	0	0	0
040419	12:06:25	12:16:45	617784	5.0.10.0	4_exp_EVA_AMP_AWA_CON	186	Rpleas_acq	Same	Rpleas	Amasked	CS_A	1pleas	distractor1	EVAbeforeCON	AMP_CSunple	AMP1_masked	8	30	0	0	300	300	0	0	1426	50	-6,34765625	0	0	0	0	1	blank2r.bmp	0	1	DHJF	0	1	blank2r.bmp	79	19	pic19.bmp	199	1	whitenoise_No3.bmp	306	0	0	0	0	0	0	0	0	0	0	0	0	0	0	0	0	0	0	0	0	0	0	0	0	0	0	0	0	0	0	0	0	0	0	0	0	0	0	0
040419	12:06:25	12:16:46	619237	5.0.10.0	4_exp_EVA_AMP_AWA_CON	186	Rpleas_acq	Same	Rpleas	Amasked	CS_A	1pleas	distractor1	EVAbeforeCON	AMP_CSpleas	AMP1_masked	8	31	0	0	300	300	0	0	527	50	-6,34765625	1	0	0	0	1	blank2r.bmp	0	1	CPLW	0	1	blank2r.bmp	79	2	pic2.bmp	199	1	whitenoise_No3.bmp	306	0	0	0	0	0	0	0	0	0	0	0	0	0	0	0	0	0	0	0	0	0	0	0	0	0	0	0	0	0	0	0	0	0	0	0	0	0	0	0
040419	12:06:25	12:16:48	620796	5.0.10.0	4_exp_EVA_AMP_AWA_CON	186	Rpleas_acq	Same	Rpleas	Amasked	CS_A	1pleas	distractor1	EVAbeforeCON	AMP_distractor	AMP1_masked	8	32	0	0	300	300	0	0	642	46	-6,34765625	0	0	0	0	1	blank2r.bmp	0	1	ZGXT	0	1	blank2r.bmp	79	45	pic45.bmp	199	1	whitenoise_No3.bmp	306	0	0	0	0	0	0	0	0	0	0	0	0	0	0	0	0	0	0	0	0	0	0	0	0	0	0	0	0	0	0	0	0	0	0	0	0	0	0	0
040419	12:06:25	12:16:50	622902	5.0.10.0	4_exp_EVA_AMP_AWA_CON	186	Rpleas_acq	Same	Rpleas	Amasked	CS_A	1pleas	distractor1	EVAbeforeCON	AMP_CSpleas	AMP1_masked	8	33	0	0	300	300	0	0	1183	50	-6,34765625	1	0	0	0	1	blank2r.bmp	0	1	CPLW	0	1	blank2r.bmp	79	133	pic133.bmp	199	1	whitenoise_No3.bmp	306	0	0	0	0	0	0	0	0	0	0	0	0	0	0	0	0	0	0	0	0	0	0	0	0	0	0	0	0	0	0	0	0	0	0	0	0	0	0	0
040419	12:06:25	12:16:52	624702	5.0.10.0	4_exp_EVA_AMP_AWA_CON	186	Rpleas_acq	Same	Rpleas	Amasked	CS_A	1pleas	distractor1	EVAbeforeCON	AMP_CSunple	AMP1_masked	8	34	0	0	300	300	0	0	866	46	-6,34765625	1	0	0	0	1	blank2r.bmp	0	1	DHJF	0	1	blank2r.bmp	79	28	pic28.bmp	199	1	whitenoise_No3.bmp	306	0	0	0	0	0	0	0	0	0	0	0	0	0	0	0	0	0	0	0	0	0	0	0	0	0	0	0	0	0	0	0	0	0	0	0	0	0	0	0
040419	12:06:25	12:16:54	626714	5.0.10.0	4_exp_EVA_AMP_AWA_CON	186	Rpleas_acq	Same	Rpleas	Amasked	CS_A	1pleas	distractor1	EVAbeforeCON	AMP_CSunple	AMP1_masked	8	35	0	0	300	300	0	0	1097	46	-6,34765625	1	0	0	0	1	blank2r.bmp	0	1	DHJF	0	1	blank2r.bmp	79	65	pic65.bmp	199	1	whitenoise_No3.bmp	306	0	0	0	0	0	0	0	0	0	0	0	0	0	0	0	0	0	0	0	0	0	0	0	0	0	0	0	0	0	0	0	0	0	0	0	0	0	0	0
040419	12:06:25	12:16:56	628727	5.0.10.0	4_exp_EVA_AMP_AWA_CON	186	Rpleas_acq	Same	Rpleas	Amasked	CS_A	1pleas	distractor1	EVAbeforeCON	AMP_distractor	AMP1_masked	8	36	0	0	300	300	0	0	1093	46	-6,34765625	0	0	0	0	1	blank2r.bmp	0	1	ZGXT	0	1	blank2r.bmp	79	9	pic9.bmp	199	1	whitenoise_No3.bmp	306	0	0	0	0	0	0	0	0	0	0	0	0	0	0	0	0	0	0	0	0	0	0	0	0	0	0	0	0	0	0	0	0	0	0	0	0	0	0	0
040419	12:06:25	12:16:57	630166	5.0.10.0	4_exp_EVA_AMP_AWA_CON	186	Rpleas_acq	Same	Rpleas	Amasked	CS_A	1pleas	distractor1	EVAbeforeCON	AMP_distractor	AMP1_masked	8	37	0	0	300	300	0	0	529	46	-6,34765625	0	0	0	0	1	blank2r.bmp	0	1	ZGXT	0	1	blank2r.bmp	79	111	pic111.bmp	199	1	whitenoise_No3.bmp	306	0	0	0	0	0	0	0	0	0	0	0	0	0	0	0	0	0	0	0	0	0	0	0	0	0	0	0	0	0	0	0	0	0	0	0	0	0	0	0
040419	12:06:25	12:16:58	631259	5.0.10.0	4_exp_EVA_AMP_AWA_CON	186	Rpleas_acq	Same	Rpleas	Amasked	CS_A	1pleas	distractor1	EVAbeforeCON	AMP_CSpleas	AMP1_masked	8	38	0	0	300	300	0	0	165	50	-6,34765625	1	0	0	0	1	blank2r.bmp	0	1	CPLW	0	1	blank2r.bmp	79	126	pic126.bmp	199	1	whitenoise_No3.bmp	306	0	0	0	0	0	0	0	0	0	0	0	0	0	0	0	0	0	0	0	0	0	0	0	0	0	0	0	0	0	0	0	0	0	0	0	0	0	0	0
040419	12:06:25	12:17:00	632978	5.0.10.0	4_exp_EVA_AMP_AWA_CON	186	Rpleas_acq	Same	Rpleas	Amasked	CS_A	1pleas	distractor1	EVAbeforeCON	AMP_CSunple	AMP1_masked	8	39	0	0	300	300	0	0	786	46	-6,34765625	1	0	0	0	1	blank2r.bmp	0	1	DHJF	0	1	blank2r.bmp	79	99	pic99.bmp	199	1	whitenoise_No3.bmp	306	0	0	0	0	0	0	0	0	0	0	0	0	0	0	0	0	0	0	0	0	0	0	0	0	0	0	0	0	0	0	0	0	0	0	0	0	0	0	0
040419	12:06:25	12:17:03	635390	5.0.10.0	4_exp_EVA_AMP_AWA_CON	186	Rpleas_acq	Same	Rpleas	Amasked	CS_A	1pleas	distractor1	EVAbeforeCON	AMP_CSunple	AMP1_masked	8	40	0	0	300	300	0	0	1485	46	-6,34765625	1	0	0	0	1	blank2r.bmp	0	1	DHJF	0	1	blank2r.bmp	79	115	pic115.bmp	199	1	whitenoise_No3.bmp	306	0	0	0	0	0	0	0	0	0	0	0	0	0	0	0	0	0	0	0	0	0	0	0	0	0	0	0	0	0	0	0	0	0	0	0	0	0	0	0
040419	12:06:25	12:17:04	637336	5.0.10.0	4_exp_EVA_AMP_AWA_CON	186	Rpleas_acq	Same	Rpleas	Amasked	CS_A	1pleas	distractor1	EVAbeforeCON	AMP_distractor	AMP1_masked	8	41	0	0	300	300	0	0	1017	46	-6,34765625	0	0	0	0	1	blank2r.bmp	0	1	ZGXT	0	1	blank2r.bmp	79	38	pic38.bmp	199	1	whitenoise_No3.bmp	306	0	0	0	0	0	0	0	0	0	0	0	0	0	0	0	0	0	0	0	0	0	0	0	0	0	0	0	0	0	0	0	0	0	0	0	0	0	0	0
040419	12:06:25	12:17:06	638909	5.0.10.0	4_exp_EVA_AMP_AWA_CON	186	Rpleas_acq	Same	Rpleas	Amasked	CS_A	1pleas	distractor1	EVAbeforeCON	AMP_CSunple	AMP1_masked	8	42	0	0	300	300	0	0	653	50	-6,34765625	0	0	0	0	1	blank2r.bmp	0	1	DHJF	0	1	blank2r.bmp	79	36	pic36.bmp	199	1	whitenoise_No3.bmp	306	0	0	0	0	0	0	0	0	0	0	0	0	0	0	0	0	0	0	0	0	0	0	0	0	0	0	0	0	0	0	0	0	0	0	0	0	0	0	0
040419	12:06:25	12:17:09	641481	5.0.10.0	4_exp_EVA_AMP_AWA_CON	186	Rpleas_acq	Same	Rpleas	Amasked	CS_A	1pleas	distractor1	EVAbeforeCON	AMP_CSunple	AMP1_masked	8	43	0	0	300	300	0	0	1655	50	-6,34765625	0	0	0	0	1	blank2r.bmp	0	1	DHJF	0	1	blank2r.bmp	79	73	pic73.bmp	199	1	whitenoise_No3.bmp	306	0	0	0	0	0	0	0	0	0	0	0	0	0	0	0	0	0	0	0	0	0	0	0	0	0	0	0	0	0	0	0	0	0	0	0	0	0	0	0
040419	12:06:25	12:17:10	642694	5.0.10.0	4_exp_EVA_AMP_AWA_CON	186	Rpleas_acq	Same	Rpleas	Amasked	CS_A	1pleas	distractor1	EVAbeforeCON	AMP_CSpleas	AMP1_masked	8	44	0	0	300	300	0	0	281	50	-6,34765625	1	0	0	0	1	blank2r.bmp	0	1	CPLW	0	1	blank2r.bmp	79	106	pic106.bmp	199	1	whitenoise_No3.bmp	306	0	0	0	0	0	0	0	0	0	0	0	0	0	0	0	0	0	0	0	0	0	0	0	0	0	0	0	0	0	0	0	0	0	0	0	0	0	0	0
040419	12:06:25	12:17:13	646026	5.0.10.0	4_exp_EVA_AMP_AWA_CON	186	Rpleas_acq	Same	Rpleas	Amasked	CS_A	1pleas	distractor1	EVAbeforeCON	AMP_CSunple	AMP1_masked	8	45	0	0	300	300	0	0	2415	50	-6,34765625	0	0	0	0	1	blank2r.bmp	0	1	DHJF	0	1	blank2r.bmp	79	116	pic116.bmp	199	1	whitenoise_No3.bmp	306	0	0	0	0	0	0	0	0	0	0	0	0	0	0	0	0	0	0	0	0	0	0	0	0	0	0	0	0	0	0	0	0	0	0	0	0	0	0	0
040419	12:06:25	12:17:15	647665	5.0.10.0	4_exp_EVA_AMP_AWA_CON	186	Rpleas_acq	Same	Rpleas	Amasked	CS_A	1pleas	distractor1	EVAbeforeCON	AMP_CSpleas	AMP1_masked	8	46	0	0	300	300	0	0	723	50	-6,34765625	1	0	0	0	1	blank2r.bmp	0	1	CPLW	0	1	blank2r.bmp	79	3	pic3.bmp	199	1	whitenoise_No3.bmp	306	0	0	0	0	0	0	0	0	0	0	0	0	0	0	0	0	0	0	0	0	0	0	0	0	0	0	0	0	0	0	0	0	0	0	0	0	0	0	0
040419	12:06:25	12:17:16	649305	5.0.10.0	4_exp_EVA_AMP_AWA_CON	186	Rpleas_acq	Same	Rpleas	Amasked	CS_A	1pleas	distractor1	EVAbeforeCON	AMP_CSpleas	AMP1_masked	8	47	0	0	300	300	0	0	728	46	-6,34765625	0	0	0	0	1	blank2r.bmp	0	1	CPLW	0	1	blank2r.bmp	79	153	pic153.bmp	199	1	whitenoise_No3.bmp	306	0	0	0	0	0	0	0	0	0	0	0	0	0	0	0	0	0	0	0	0	0	0	0	0	0	0	0	0	0	0	0	0	0	0	0	0	0	0	0
040419	12:06:25	12:17:18	650504	5.0.10.0	4_exp_EVA_AMP_AWA_CON	186	Rpleas_acq	Same	Rpleas	Amasked	CS_A	1pleas	distractor1	EVAbeforeCON	AMP_distractor	AMP1_masked	8	48	0	0	300	300	0	0	268	50	-6,34765625	0	0	0	0	1	blank2r.bmp	0	1	ZGXT	0	1	blank2r.bmp	79	97	pic97.bmp	199	1	whitenoise_No3.bmp	306	0	0	0	0	0	0	0	0	0	0	0	0	0	0	0	0	0	0	0	0	0	0	0	0	0	0	0	0	0	0	0	0	0	0	0	0	0	0	0
040419	12:06:25	12:17:20	652357	5.0.10.0	4_exp_EVA_AMP_AWA_CON	186	Rpleas_acq	Same	Rpleas	Amasked	CS_A	1pleas	distractor1	EVAbeforeCON	AMP_distractor	AMP1_masked	8	49	0	0	300	300	0	0	941	46	-6,34765625	0	0	0	0	1	blank2r.bmp	0	1	ZGXT	0	1	blank2r.bmp	79	147	pic147.bmp	199	1	whitenoise_No3.bmp	306	0	0	0	0	0	0	0	0	0	0	0	0	0	0	0	0	0	0	0	0	0	0	0	0	0	0	0	0	0	0	0	0	0	0	0	0	0	0	0
040419	12:06:25	12:17:21	654236	5.0.10.0	4_exp_EVA_AMP_AWA_CON	186	Rpleas_acq	Same	Rpleas	Amasked	CS_A	1pleas	distractor1	EVAbeforeCON	AMP_CSpleas	AMP1_masked	8	50	0	0	300	300	0	0	970	50	-6,34765625	1	0	0	0	1	blank2r.bmp	0	1	CPLW	0	1	blank2r.bmp	79	60	pic60.bmp	199	1	whitenoise_No3.bmp	306	0	0	0	0	0	0	0	0	0	0	0	0	0	0	0	0	0	0	0	0	0	0	0	0	0	0	0	0	0	0	0	0	0	0	0	0	0	0	0
040419	12:06:25	12:17:25	657461	5.0.10.0	4_exp_EVA_AMP_AWA_CON	186	Rpleas_acq	Same	Rpleas	Amasked	CS_A	1pleas	distractor1	EVAbeforeCON	AMP_CSpleas	AMP1_masked	8	51	0	0	300	300	0	0	2292	50	-6,34765625	1	0	0	0	1	blank2r.bmp	0	1	CPLW	0	1	blank2r.bmp	79	83	pic83.bmp	199	1	whitenoise_No3.bmp	306	0	0	0	0	0	0	0	0	0	0	0	0	0	0	0	0	0	0	0	0	0	0	0	0	0	0	0	0	0	0	0	0	0	0	0	0	0	0	0
040419	12:06:25	12:17:31	663965	5.0.10.0	4_exp_EVA_AMP_AWA_CON	186	Rpleas_acq	Same	Rpleas	Amasked	CS_A	1pleas	distractor1	EVAbeforeCON	AMP_distractor	AMP23	9	1	0	0	300	300	0	0	733	46	-6,34765625	0	0	0	0	1	blank2r.bmp	0	1	ZGXT	0	1	blank2r.bmp	79	82	pic82.bmp	199	1	whitenoise_No3.bmp	306	0	0	0	0	0	0	0	0	0	0	0	0	0	0	0	0	0	0	0	0	0	0	0	0	0	0	0	0	0	0	0	0	0	0	0	0	0	0	0
040419	12:06:25	12:17:34	666538	5.0.10.0	4_exp_EVA_AMP_AWA_CON	186	Rpleas_acq	Same	Rpleas	Amasked	CS_A	1pleas	distractor1	EVAbeforeCON	AMP_CSunple	AMP23	9	2	0	0	300	300	0	0	1656	46	-6,34765625	1	0	0	0	1	blank2r.bmp	0	1	DHJF	0	1	blank2r.bmp	79	140	pic140.bmp	199	1	whitenoise_No3.bmp	306	0	0	0	0	0	0	0	0	0	0	0	0	0	0	0	0	0	0	0	0	0	0	0	0	0	0	0	0	0	0	0	0	0	0	0	0	0	0	0
040419	12:06:25	12:17:36	668697	5.0.10.0	4_exp_EVA_AMP_AWA_CON	186	Rpleas_acq	Same	Rpleas	Amasked	CS_A	1pleas	distractor1	EVAbeforeCON	AMP_CSunple	AMP23	9	3	0	0	300	300	0	0	1251	46	-6,34765625	1	0	0	0	1	blank2r.bmp	0	1	DHJF	0	1	blank2r.bmp	79	85	pic85.bmp	199	1	whitenoise_No3.bmp	306	0	0	0	0	0	0	0	0	0	0	0	0	0	0	0	0	0	0	0	0	0	0	0	0	0	0	0	0	0	0	0	0	0	0	0	0	0	0	0
040419	12:06:25	12:17:37	670083	5.0.10.0	4_exp_EVA_AMP_AWA_CON	186	Rpleas_acq	Same	Rpleas	Amasked	CS_A	1pleas	distractor1	EVAbeforeCON	AMP_CSunple	AMP23	9	4	0	0	300	300	0	0	458	50	-6,34765625	0	0	0	0	1	blank2r.bmp	0	1	DHJF	0	1	blank2r.bmp	79	142	pic142.bmp	199	1	whitenoise_No3.bmp	306	0	0	0	0	0	0	0	0	0	0	0	0	0	0	0	0	0	0	0	0	0	0	0	0	0	0	0	0	0	0	0	0	0	0	0	0	0	0	0
040419	12:06:25	12:17:39	671815	5.0.10.0	4_exp_EVA_AMP_AWA_CON	186	Rpleas_acq	Same	Rpleas	Amasked	CS_A	1pleas	distractor1	EVAbeforeCON	AMP_CSpleas	AMP23	9	5	0	0	300	300	0	0	811	50	-6,34765625	1	0	0	0	1	blank2r.bmp	0	1	CPLW	0	1	blank2r.bmp	79	144	pic144.bmp	199	1	whitenoise_No3.bmp	306	0	0	0	0	0	0	0	0	0	0	0	0	0	0	0	0	0	0	0	0	0	0	0	0	0	0	0	0	0	0	0	0	0	0	0	0	0	0	0
040419	12:06:25	12:17:41	673441	5.0.10.0	4_exp_EVA_AMP_AWA_CON	186	Rpleas_acq	Same	Rpleas	Amasked	CS_A	1pleas	distractor1	EVAbeforeCON	AMP_distractor	AMP23	9	6	0	0	300	300	0	0	713	50	-6,34765625	0	0	0	0	1	blank2r.bmp	0	1	ZGXT	0	1	blank2r.bmp	79	146	pic146.bmp	199	1	whitenoise_No3.bmp	306	0	0	0	0	0	0	0	0	0	0	0	0	0	0	0	0	0	0	0	0	0	0	0	0	0	0	0	0	0	0	0	0	0	0	0	0	0	0	0
040419	12:06:25	12:17:42	675267	5.0.10.0	4_exp_EVA_AMP_AWA_CON	186	Rpleas_acq	Same	Rpleas	Amasked	CS_A	1pleas	distractor1	EVAbeforeCON	AMP_distractor	AMP23	9	7	0	0	300	300	0	0	900	46	-6,34765625	0	0	0	0	1	blank2r.bmp	0	1	ZGXT	0	1	blank2r.bmp	79	108	pic108.bmp	199	1	whitenoise_No3.bmp	306	0	0	0	0	0	0	0	0	0	0	0	0	0	0	0	0	0	0	0	0	0	0	0	0	0	0	0	0	0	0	0	0	0	0	0	0	0	0	0
040419	12:06:25	12:17:44	676840	5.0.10.0	4_exp_EVA_AMP_AWA_CON	186	Rpleas_acq	Same	Rpleas	Amasked	CS_A	1pleas	distractor1	EVAbeforeCON	AMP_distractor	AMP23	9	8	0	0	300	300	0	0	649	46	-6,34765625	0	0	0	0	1	blank2r.bmp	0	1	ZGXT	0	1	blank2r.bmp	79	110	pic110.bmp	199	1	whitenoise_No3.bmp	306	0	0	0	0	0	0	0	0	0	0	0	0	0	0	0	0	0	0	0	0	0	0	0	0	0	0	0	0	0	0	0	0	0	0	0	0	0	0	0
040419	12:06:25	12:17:45	678186	5.0.10.0	4_exp_EVA_AMP_AWA_CON	186	Rpleas_acq	Same	Rpleas	Amasked	CS_A	1pleas	distractor1	EVAbeforeCON	AMP_CSpleas	AMP23	9	9	0	0	300	300	0	0	419	50	-6,34765625	1	0	0	0	1	blank2r.bmp	0	1	CPLW	0	1	blank2r.bmp	79	70	pic70.bmp	199	1	whitenoise_No3.bmp	306	0	0	0	0	0	0	0	0	0	0	0	0	0	0	0	0	0	0	0	0	0	0	0	0	0	0	0	0	0	0	0	0	0	0	0	0	0	0	0
040419	12:06:25	12:17:47	680065	5.0.10.0	4_exp_EVA_AMP_AWA_CON	186	Rpleas_acq	Same	Rpleas	Amasked	CS_A	1pleas	distractor1	EVAbeforeCON	AMP_distractor	AMP23	9	10	0	0	300	300	0	0	951	46	-6,34765625	0	0	0	0	1	blank2r.bmp	0	1	ZGXT	0	1	blank2r.bmp	79	134	pic134.bmp	199	1	whitenoise_No3.bmp	306	0	0	0	0	0	0	0	0	0	0	0	0	0	0	0	0	0	0	0	0	0	0	0	0	0	0	0	0	0	0	0	0	0	0	0	0	0	0	0
040419	12:06:25	12:17:49	681625	5.0.10.0	4_exp_EVA_AMP_AWA_CON	186	Rpleas_acq	Same	Rpleas	Amasked	CS_A	1pleas	distractor1	EVAbeforeCON	AMP_CSunple	AMP23	9	11	0	0	300	300	0	0	644	50	-6,34765625	0	0	0	0	1	blank2r.bmp	0	1	DHJF	0	1	blank2r.bmp	79	100	pic100.bmp	199	1	whitenoise_No3.bmp	306	0	0	0	0	0	0	0	0	0	0	0	0	0	0	0	0	0	0	0	0	0	0	0	0	0	0	0	0	0	0	0	0	0	0	0	0	0	0	0
040419	12:06:25	12:17:50	683157	5.0.10.0	4_exp_EVA_AMP_AWA_CON	186	Rpleas_acq	Same	Rpleas	Amasked	CS_A	1pleas	distractor1	EVAbeforeCON	AMP_CSunple	AMP23	9	12	0	0	300	300	0	0	620	50	-6,34765625	0	0	0	0	1	blank2r.bmp	0	1	DHJF	0	1	blank2r.bmp	79	90	pic90.bmp	199	1	whitenoise_No3.bmp	306	0	0	0	0	0	0	0	0	0	0	0	0	0	0	0	0	0	0	0	0	0	0	0	0	0	0	0	0	0	0	0	0	0	0	0	0	0	0	0
040419	12:06:25	12:17:52	684597	5.0.10.0	4_exp_EVA_AMP_AWA_CON	186	Rpleas_acq	Same	Rpleas	Amasked	CS_A	1pleas	distractor1	EVAbeforeCON	AMP_CSunple	AMP23	9	13	0	0	300	300	0	0	512	46	-6,34765625	1	0	0	0	1	blank2r.bmp	0	1	DHJF	0	1	blank2r.bmp	79	69	pic69.bmp	199	1	whitenoise_No3.bmp	306	0	0	0	0	0	0	0	0	0	0	0	0	0	0	0	0	0	0	0	0	0	0	0	0	0	0	0	0	0	0	0	0	0	0	0	0	0	0	0
040419	12:06:25	12:17:54	686383	5.0.10.0	4_exp_EVA_AMP_AWA_CON	186	Rpleas_acq	Same	Rpleas	Amasked	CS_A	1pleas	distractor1	EVAbeforeCON	AMP_CSpleas	AMP23	9	14	0	0	300	300	0	0	859	46	-6,34765625	0	0	0	0	1	blank2r.bmp	0	1	CPLW	0	1	blank2r.bmp	79	122	pic122.bmp	199	1	whitenoise_No3.bmp	306	0	0	0	0	0	0	0	0	0	0	0	0	0	0	0	0	0	0	0	0	0	0	0	0	0	0	0	0	0	0	0	0	0	0	0	0	0	0	0
040419	12:06:25	12:17:55	687929	5.0.10.0	4_exp_EVA_AMP_AWA_CON	186	Rpleas_acq	Same	Rpleas	Amasked	CS_A	1pleas	distractor1	EVAbeforeCON	AMP_CSpleas	AMP23	9	15	0	0	300	300	0	0	637	46	-6,34765625	0	0	0	0	1	blank2r.bmp	0	1	CPLW	0	1	blank2r.bmp	79	86	pic86.bmp	199	1	whitenoise_No3.bmp	306	0	0	0	0	0	0	0	0	0	0	0	0	0	0	0	0	0	0	0	0	0	0	0	0	0	0	0	0	0	0	0	0	0	0	0	0	0	0	0
040419	12:06:25	12:17:57	689755	5.0.10.0	4_exp_EVA_AMP_AWA_CON	186	Rpleas_acq	Same	Rpleas	Amasked	CS_A	1pleas	distractor1	EVAbeforeCON	AMP_CSpleas	AMP23	9	16	0	0	300	300	0	0	902	46	-6,34765625	0	0	0	0	1	blank2r.bmp	0	1	CPLW	0	1	blank2r.bmp	79	88	pic88.bmp	199	1	whitenoise_No3.bmp	306	0	0	0	0	0	0	0	0	0	0	0	0	0	0	0	0	0	0	0	0	0	0	0	0	0	0	0	0	0	0	0	0	0	0	0	0	0	0	0
040419	12:06:25	12:17:58	691207	5.0.10.0	4_exp_EVA_AMP_AWA_CON	186	Rpleas_acq	Same	Rpleas	Amasked	CS_A	1pleas	distractor1	EVAbeforeCON	AMP_CSpleas	AMP23	9	17	0	0	300	300	0	0	520	50	-6,34765625	1	0	0	0	1	blank2r.bmp	0	1	CPLW	0	1	blank2r.bmp	79	98	pic98.bmp	199	1	whitenoise_No3.bmp	306	0	0	0	0	0	0	0	0	0	0	0	0	0	0	0	0	0	0	0	0	0	0	0	0	0	0	0	0	0	0	0	0	0	0	0	0	0	0	0
040419	12:06:25	12:18:00	692594	5.0.10.0	4_exp_EVA_AMP_AWA_CON	186	Rpleas_acq	Same	Rpleas	Amasked	CS_A	1pleas	distractor1	EVAbeforeCON	AMP_CSpleas	AMP23	9	18	0	0	300	300	0	0	478	50	-6,34765625	1	0	0	0	1	blank2r.bmp	0	1	CPLW	0	1	blank2r.bmp	79	74	pic74.bmp	199	1	whitenoise_No3.bmp	306	0	0	0	0	0	0	0	0	0	0	0	0	0	0	0	0	0	0	0	0	0	0	0	0	0	0	0	0	0	0	0	0	0	0	0	0	0	0	0
040419	12:06:25	12:18:01	694166	5.0.10.0	4_exp_EVA_AMP_AWA_CON	186	Rpleas_acq	Same	Rpleas	Amasked	CS_A	1pleas	distractor1	EVAbeforeCON	AMP_distractor	AMP23	9	19	0	0	300	300	0	0	650	46	-6,34765625	0	0	0	0	1	blank2r.bmp	0	1	ZGXT	0	1	blank2r.bmp	79	18	pic18.bmp	199	1	whitenoise_No3.bmp	306	0	0	0	0	0	0	0	0	0	0	0	0	0	0	0	0	0	0	0	0	0	0	0	0	0	0	0	0	0	0	0	0	0	0	0	0	0	0	0
040419	12:06:25	12:18:03	696032	5.0.10.0	4_exp_EVA_AMP_AWA_CON	186	Rpleas_acq	Same	Rpleas	Amasked	CS_A	1pleas	distractor1	EVAbeforeCON	AMP_distractor	AMP23	9	20	0	0	300	300	0	0	932	50	-6,34765625	0	0	0	0	1	blank2r.bmp	0	1	ZGXT	0	1	blank2r.bmp	79	92	pic92.bmp	199	1	whitenoise_No3.bmp	306	0	0	0	0	0	0	0	0	0	0	0	0	0	0	0	0	0	0	0	0	0	0	0	0	0	0	0	0	0	0	0	0	0	0	0	0	0	0	0
040419	12:06:25	12:18:05	697698	5.0.10.0	4_exp_EVA_AMP_AWA_CON	186	Rpleas_acq	Same	Rpleas	Amasked	CS_A	1pleas	distractor1	EVAbeforeCON	AMP_distractor	AMP23	9	21	0	0	300	300	0	0	747	46	-6,34765625	0	0	0	0	1	blank2r.bmp	0	1	ZGXT	0	1	blank2r.bmp	79	71	pic71.bmp	199	1	whitenoise_No3.bmp	306	0	0	0	0	0	0	0	0	0	0	0	0	0	0	0	0	0	0	0	0	0	0	0	0	0	0	0	0	0	0	0	0	0	0	0	0	0	0	0
040419	12:06:25	12:18:07	699617	5.0.10.0	4_exp_EVA_AMP_AWA_CON	186	Rpleas_acq	Same	Rpleas	Amasked	CS_A	1pleas	distractor1	EVAbeforeCON	AMP_CSpleas	AMP23	9	22	0	0	300	300	0	0	1008	50	-6,34765625	1	0	0	0	1	blank2r.bmp	0	1	CPLW	0	1	blank2r.bmp	79	24	pic24.bmp	199	1	whitenoise_No3.bmp	306	0	0	0	0	0	0	0	0	0	0	0	0	0	0	0	0	0	0	0	0	0	0	0	0	0	0	0	0	0	0	0	0	0	0	0	0	0	0	0
040419	12:06:25	12:18:08	701243	5.0.10.0	4_exp_EVA_AMP_AWA_CON	186	Rpleas_acq	Same	Rpleas	Amasked	CS_A	1pleas	distractor1	EVAbeforeCON	AMP_CSpleas	AMP23	9	23	0	0	300	300	0	0	702	50	-6,34765625	1	0	0	0	1	blank2r.bmp	0	1	CPLW	0	1	blank2r.bmp	79	52	pic52.bmp	199	1	whitenoise_No3.bmp	306	0	0	0	0	0	0	0	0	0	0	0	0	0	0	0	0	0	0	0	0	0	0	0	0	0	0	0	0	0	0	0	0	0	0	0	0	0	0	0
040419	12:06:25	12:18:10	702736	5.0.10.0	4_exp_EVA_AMP_AWA_CON	186	Rpleas_acq	Same	Rpleas	Amasked	CS_A	1pleas	distractor1	EVAbeforeCON	AMP_CSunple	AMP23	9	24	0	0	300	300	0	0	560	50	-6,34765625	0	0	0	0	1	blank2r.bmp	0	1	DHJF	0	1	blank2r.bmp	79	123	pic123.bmp	199	1	whitenoise_No3.bmp	306	0	0	0	0	0	0	0	0	0	0	0	0	0	0	0	0	0	0	0	0	0	0	0	0	0	0	0	0	0	0	0	0	0	0	0	0	0	0	0
040419	12:06:25	12:18:12	704842	5.0.10.0	4_exp_EVA_AMP_AWA_CON	186	Rpleas_acq	Same	Rpleas	Amasked	CS_A	1pleas	distractor1	EVAbeforeCON	AMP_CSpleas	AMP23	9	25	0	0	300	300	0	0	1192	50	-6,34765625	1	0	0	0	1	blank2r.bmp	0	1	CPLW	0	1	blank2r.bmp	79	11	pic11.bmp	199	1	whitenoise_No3.bmp	306	0	0	0	0	0	0	0	0	0	0	0	0	0	0	0	0	0	0	0	0	0	0	0	0	0	0	0	0	0	0	0	0	0	0	0	0	0	0	0
040419	12:06:25	12:18:13	706321	5.0.10.0	4_exp_EVA_AMP_AWA_CON	186	Rpleas_acq	Same	Rpleas	Amasked	CS_A	1pleas	distractor1	EVAbeforeCON	AMP_CSunple	AMP23	9	26	0	0	300	300	0	0	556	46	-6,34765625	1	0	0	0	1	blank2r.bmp	0	1	DHJF	0	1	blank2r.bmp	79	151	pic151.bmp	199	1	whitenoise_No3.bmp	306	0	0	0	0	0	0	0	0	0	0	0	0	0	0	0	0	0	0	0	0	0	0	0	0	0	0	0	0	0	0	0	0	0	0	0	0	0	0	0
