date	time	script.currenttime	script.elapsedtime	build	script.currentexpt	subject	expressions.LRpleas_acq	expressions.SameOppo	expressions.condition_Lpleas	expressions.ABmasked	expressions.conditionCS_A	expressions.condition_1pleas	expressions.condition_distractor_AMP	expressions.AWACON_AMPEVA_first	trialcode	blockcode	blocknum	trialnum	windowcenter	inwindow	pretrialpause	posttrialpause	trialduration	trialtimeout	latency	response	expressions.correctedscore	correct	values.vis_performance	values.vis_rating_sum	values.vis_rating_mean	stimulusnumber1	stimulusitem1	stimulusonset1	stimulusnumber2	stimulusitem2	stimulusonset2	stimulusnumber3	stimulusitem3	stimulusonset3	stimulusnumber4	stimulusitem4	stimulusonset4	stimulusnumber5	stimulusitem5	stimulusonset5	stimulusnumber6	stimulusitem6	stimulusonset6	stimulusnumber7	stimulusitem7	stimulusonset7	stimulusnumber8	stimulusitem8	stimulusonset8	stimulusnumber9	stimulusitem9	stimulusonset9	stimulusnumber10	stimulusitem10	stimulusonset10	stimulusnumber11	stimulusitem11	stimulusonset11	stimulusnumber12	stimulusitem12	stimulusonset12	stimulusnumber13	stimulusitem13	stimulusonset13	stimulusnumber14	stimulusitem14	stimulusonset14	stimulusnumber15	stimulusitem15	stimulusonset15	stimulusnumber16	stimulusitem16	stimulusonset16	stimulusnumber17	stimulusitem17	stimulusonset17	stimulusnumber18	stimulusitem18	stimulusonset18
031819	11:29:32	11:31:13	99918	5.0.10.0	4_exp_AWA_CON_EVA_AMP	166	Rpleas_acq	Same	Rpleas	Amasked	CS_A	1pleas	distractor1	CONbeforeEVA	acq_new_unple_masked	acq1_masked	1	1	0	0	300	300	0	0	1284	46	0	1	0	0	0	1	blank2r.bmp	0	1	+	0	5	C1r.bmp	492	1	blank2r.bmp	786	3	B3r.bmp	786	1	blank2r.bmp	866	3	sterben	866	0	0	0	0	0	0	0	0	0	0	0	0	0	0	0	0	0	0	0	0	0	0	0	0	0	0	0	0	0	0	0	0	0
031819	11:29:32	11:31:15	102277	5.0.10.0	4_exp_AWA_CON_EVA_AMP	166	Rpleas_acq	Same	Rpleas	Amasked	CS_A	1pleas	distractor1	CONbeforeEVA	acq_US_pleas_masked	acq1_masked	1	2	0	0	300	300	0	0	884	50	0	1	0	0	0	1	blank2r.bmp	0	1	+	0	6	C2r.bmp	492	1	blank2r.bmp	786	1	CPLW	786	1	blank2r.bmp	866	5	vergnügt	866	0	0	0	0	0	0	0	0	0	0	0	0	0	0	0	0	0	0	0	0	0	0	0	0	0	0	0	0	0	0	0	0	0
031819	11:29:32	11:31:18	105116	5.0.10.0	4_exp_AWA_CON_EVA_AMP	166	Rpleas_acq	Same	Rpleas	Amasked	CS_A	1pleas	distractor1	CONbeforeEVA	acq_new_pleas_masked	acq1_masked	1	3	0	0	300	300	0	0	1353	50	0	1	0	0	0	1	blank2r.bmp	0	1	+	0	8	C4r.bmp	492	1	blank2r.bmp	786	2	B2r.bmp	786	1	blank2r.bmp	866	2	gesittet	866	0	0	0	0	0	0	0	0	0	0	0	0	0	0	0	0	0	0	0	0	0	0	0	0	0	0	0	0	0	0	0	0	0
031819	11:29:32	11:31:20	107235	5.0.10.0	4_exp_AWA_CON_EVA_AMP	166	Rpleas_acq	Same	Rpleas	Amasked	CS_A	1pleas	distractor1	CONbeforeEVA	acq_new_pleas_masked	acq1_masked	1	4	0	0	300	300	0	0	631	50	0	1	0	0	0	1	blank2r.bmp	0	1	+	0	4	B4r.bmp	492	1	blank2r.bmp	786	8	C4r.bmp	786	1	blank2r.bmp	866	3	sonnig	866	0	0	0	0	0	0	0	0	0	0	0	0	0	0	0	0	0	0	0	0	0	0	0	0	0	0	0	0	0	0	0	0	0
031819	11:29:32	11:31:22	109434	5.0.10.0	4_exp_AWA_CON_EVA_AMP	166	Rpleas_acq	Same	Rpleas	Amasked	CS_A	1pleas	distractor1	CONbeforeEVA	acq_new_unple_masked	acq1_masked	1	5	0	0	300	300	0	0	720	46	0	1	0	0	0	1	blank2r.bmp	0	1	+	0	2	B2r.bmp	492	1	blank2r.bmp	786	4	B4r.bmp	786	1	blank2r.bmp	866	6	krank	866	0	0	0	0	0	0	0	0	0	0	0	0	0	0	0	0	0	0	0	0	0	0	0	0	0	0	0	0	0	0	0	0	0
031819	11:29:32	11:31:24	111553	5.0.10.0	4_exp_AWA_CON_EVA_AMP	166	Rpleas_acq	Same	Rpleas	Amasked	CS_A	1pleas	distractor1	CONbeforeEVA	acq_new_pleas_masked	acq1_masked	1	6	0	0	300	300	0	0	645	50	0	1	0	0	0	1	blank2r.bmp	0	1	+	0	7	C3r.bmp	492	1	blank2r.bmp	786	6	C2r.bmp	786	1	blank2r.bmp	866	6	kreativ	866	0	0	0	0	0	0	0	0	0	0	0	0	0	0	0	0	0	0	0	0	0	0	0	0	0	0	0	0	0	0	0	0	0
031819	11:29:32	11:31:26	113633	5.0.10.0	4_exp_AWA_CON_EVA_AMP	166	Rpleas_acq	Same	Rpleas	Amasked	CS_A	1pleas	distractor1	CONbeforeEVA	acq_new_unple_masked	acq1_masked	1	7	0	0	300	300	0	0	604	46	0	1	0	0	0	1	blank2r.bmp	0	1	+	0	3	B3r.bmp	492	1	blank2r.bmp	786	7	C3r.bmp	786	1	blank2r.bmp	866	5	gemein	866	0	0	0	0	0	0	0	0	0	0	0	0	0	0	0	0	0	0	0	0	0	0	0	0	0	0	0	0	0	0	0	0	0
031819	11:29:32	11:31:29	115845	5.0.10.0	4_exp_AWA_CON_EVA_AMP	166	Rpleas_acq	Same	Rpleas	Amasked	CS_A	1pleas	distractor1	CONbeforeEVA	acq_US_pleas_masked	acq1_masked	1	8	0	0	300	300	0	0	725	50	0	1	0	0	0	1	blank2r.bmp	0	1	+	0	1	B1r.bmp	492	1	blank2r.bmp	786	1	CPLW	786	1	blank2r.bmp	866	1	kuss	866	0	0	0	0	0	0	0	0	0	0	0	0	0	0	0	0	0	0	0	0	0	0	0	0	0	0	0	0	0	0	0	0	0
031819	11:29:32	11:31:31	118071	5.0.10.0	4_exp_AWA_CON_EVA_AMP	166	Rpleas_acq	Same	Rpleas	Amasked	CS_A	1pleas	distractor1	CONbeforeEVA	acq_US_unple_masked	acq1_masked	1	9	0	0	300	300	0	0	753	46	0	1	0	0	0	1	blank2r.bmp	0	1	+	0	2	B2r.bmp	492	1	blank2r.bmp	786	1	DHJF	786	1	blank2r.bmp	866	3	gierig	866	0	0	0	0	0	0	0	0	0	0	0	0	0	0	0	0	0	0	0	0	0	0	0	0	0	0	0	0	0	0	0	0	0
031819	11:29:32	11:31:33	120403	5.0.10.0	4_exp_AWA_CON_EVA_AMP	166	Rpleas_acq	Same	Rpleas	Amasked	CS_A	1pleas	distractor1	CONbeforeEVA	acq_US_unple_masked	acq1_masked	1	10	0	0	300	300	0	0	858	46	0	1	0	0	0	1	blank2r.bmp	0	1	+	0	4	B4r.bmp	492	1	blank2r.bmp	786	1	DHJF	786	1	blank2r.bmp	866	5	verbissen	866	0	0	0	0	0	0	0	0	0	0	0	0	0	0	0	0	0	0	0	0	0	0	0	0	0	0	0	0	0	0	0	0	0
031819	11:29:32	11:31:35	122589	5.0.10.0	4_exp_AWA_CON_EVA_AMP	166	Rpleas_acq	Same	Rpleas	Amasked	CS_A	1pleas	distractor1	CONbeforeEVA	acq_US_unple_masked	acq1_masked	1	11	0	0	300	300	0	0	700	46	0	1	0	0	0	1	blank2r.bmp	0	1	+	0	8	C4r.bmp	492	1	blank2r.bmp	786	1	DHJF	786	1	blank2r.bmp	866	1	krise	866	0	0	0	0	0	0	0	0	0	0	0	0	0	0	0	0	0	0	0	0	0	0	0	0	0	0	0	0	0	0	0	0	0
031819	11:29:32	11:31:37	124721	5.0.10.0	4_exp_AWA_CON_EVA_AMP	166	Rpleas_acq	Same	Rpleas	Amasked	CS_A	1pleas	distractor1	CONbeforeEVA	acq_US_pleas_masked	acq1_masked	1	12	0	0	300	300	0	0	641	50	0	1	0	0	0	1	blank2r.bmp	0	1	+	0	7	C3r.bmp	492	1	blank2r.bmp	786	1	CPLW	786	1	blank2r.bmp	866	2	besonnen	866	0	0	0	0	0	0	0	0	0	0	0	0	0	0	0	0	0	0	0	0	0	0	0	0	0	0	0	0	0	0	0	0	0
031819	11:29:32	11:31:40	127160	5.0.10.0	4_exp_AWA_CON_EVA_AMP	166	Rpleas_acq	Same	Rpleas	Amasked	CS_A	1pleas	distractor1	CONbeforeEVA	acq_new_pleas_masked	acq1_masked	1	13	0	0	300	300	0	0	968	50	0	1	0	0	0	1	blank2r.bmp	0	1	+	0	6	C2r.bmp	492	1	blank2r.bmp	786	5	C1r.bmp	786	1	blank2r.bmp	866	4	anregung	866	0	0	0	0	0	0	0	0	0	0	0	0	0	0	0	0	0	0	0	0	0	0	0	0	0	0	0	0	0	0	0	0	0
031819	11:29:32	11:31:42	129386	5.0.10.0	4_exp_AWA_CON_EVA_AMP	166	Rpleas_acq	Same	Rpleas	Amasked	CS_A	1pleas	distractor1	CONbeforeEVA	acq_US_pleas_masked	acq1_masked	1	14	0	0	300	300	0	0	738	50	0	1	0	0	0	1	blank2r.bmp	0	1	+	0	5	C1r.bmp	492	1	blank2r.bmp	786	1	CPLW	786	1	blank2r.bmp	866	4	engagiert	866	0	0	0	0	0	0	0	0	0	0	0	0	0	0	0	0	0	0	0	0	0	0	0	0	0	0	0	0	0	0	0	0	0
031819	11:29:32	11:31:44	131585	5.0.10.0	4_exp_AWA_CON_EVA_AMP	166	Rpleas_acq	Same	Rpleas	Amasked	CS_A	1pleas	distractor1	CONbeforeEVA	acq_new_pleas_masked	acq1_masked	1	15	0	0	300	300	0	0	718	50	0	1	0	0	0	1	blank2r.bmp	0	1	+	0	1	B1r.bmp	492	1	blank2r.bmp	786	1	B1r.bmp	786	1	blank2r.bmp	866	1	träumen	866	0	0	0	0	0	0	0	0	0	0	0	0	0	0	0	0	0	0	0	0	0	0	0	0	0	0	0	0	0	0	0	0	0
031819	11:29:32	11:31:46	133758	5.0.10.0	4_exp_AWA_CON_EVA_AMP	166	Rpleas_acq	Same	Rpleas	Amasked	CS_A	1pleas	distractor1	CONbeforeEVA	acq_new_pleas_masked	acq1_masked	1	16	0	0	300	300	0	0	703	50	0	1	0	0	0	1	blank2r.bmp	0	1	+	0	3	B3r.bmp	492	1	blank2r.bmp	786	7	C3r.bmp	786	1	blank2r.bmp	866	5	genießen	866	0	0	0	0	0	0	0	0	0	0	0	0	0	0	0	0	0	0	0	0	0	0	0	0	0	0	0	0	0	0	0	0	0
031819	11:29:32	11:31:48	135770	5.0.10.0	4_exp_AWA_CON_EVA_AMP	166	Rpleas_acq	Same	Rpleas	Amasked	CS_A	1pleas	distractor1	CONbeforeEVA	acq_US_pleas_masked	acq1_masked	1	17	0	0	300	300	0	0	530	50	0	1	0	0	0	1	blank2r.bmp	0	1	+	0	6	C2r.bmp	492	1	blank2r.bmp	786	1	CPLW	786	1	blank2r.bmp	866	3	gütig	866	0	0	0	0	0	0	0	0	0	0	0	0	0	0	0	0	0	0	0	0	0	0	0	0	0	0	0	0	0	0	0	0	0
031819	11:29:32	11:31:51	137889	5.0.10.0	4_exp_AWA_CON_EVA_AMP	166	Rpleas_acq	Same	Rpleas	Amasked	CS_A	1pleas	distractor1	CONbeforeEVA	acq_US_unple_masked	acq1_masked	1	18	0	0	300	300	0	0	627	46	0	1	0	0	0	1	blank2r.bmp	0	1	+	0	2	B2r.bmp	492	1	blank2r.bmp	786	1	DHJF	786	1	blank2r.bmp	866	2	bange	866	0	0	0	0	0	0	0	0	0	0	0	0	0	0	0	0	0	0	0	0	0	0	0	0	0	0	0	0	0	0	0	0	0
031819	11:29:32	11:31:53	140035	5.0.10.0	4_exp_AWA_CON_EVA_AMP	166	Rpleas_acq	Same	Rpleas	Amasked	CS_A	1pleas	distractor1	CONbeforeEVA	acq_new_unple_masked	acq1_masked	1	19	0	0	300	300	0	0	668	46	0	1	0	0	0	1	blank2r.bmp	0	1	+	0	8	C4r.bmp	492	1	blank2r.bmp	786	3	B3r.bmp	786	1	blank2r.bmp	866	4	ausrottung	866	0	0	0	0	0	0	0	0	0	0	0	0	0	0	0	0	0	0	0	0	0	0	0	0	0	0	0	0	0	0	0	0	0
031819	11:29:32	11:31:55	142207	5.0.10.0	4_exp_AWA_CON_EVA_AMP	166	Rpleas_acq	Same	Rpleas	Amasked	CS_A	1pleas	distractor1	CONbeforeEVA	acq_US_pleas_masked	acq1_masked	1	20	0	0	300	300	0	0	694	50	0	1	0	0	0	1	blank2r.bmp	0	1	+	0	5	C1r.bmp	492	1	blank2r.bmp	786	1	CPLW	786	1	blank2r.bmp	866	6	vertrauen	866	0	0	0	0	0	0	0	0	0	0	0	0	0	0	0	0	0	0	0	0	0	0	0	0	0	0	0	0	0	0	0	0	0
031819	11:29:32	11:31:57	144407	5.0.10.0	4_exp_AWA_CON_EVA_AMP	166	Rpleas_acq	Same	Rpleas	Amasked	CS_A	1pleas	distractor1	CONbeforeEVA	acq_new_unple_masked	acq1_masked	1	21	0	0	300	300	0	0	731	46	0	1	0	0	0	1	blank2r.bmp	0	1	+	0	3	B3r.bmp	492	1	blank2r.bmp	786	2	B2r.bmp	786	1	blank2r.bmp	866	2	geizig	866	0	0	0	0	0	0	0	0	0	0	0	0	0	0	0	0	0	0	0	0	0	0	0	0	0	0	0	0	0	0	0	0	0
031819	11:29:32	11:32:00	146939	5.0.10.0	4_exp_AWA_CON_EVA_AMP	166	Rpleas_acq	Same	Rpleas	Amasked	CS_A	1pleas	distractor1	CONbeforeEVA	acq_US_unple_masked	acq1_masked	1	22	0	0	300	300	0	0	1047	46	0	1	0	0	0	1	blank2r.bmp	0	1	+	0	4	B4r.bmp	492	1	blank2r.bmp	786	1	DHJF	786	1	blank2r.bmp	866	4	engstirnig	866	0	0	0	0	0	0	0	0	0	0	0	0	0	0	0	0	0	0	0	0	0	0	0	0	0	0	0	0	0	0	0	0	0
031819	11:29:32	11:32:02	149071	5.0.10.0	4_exp_AWA_CON_EVA_AMP	166	Rpleas_acq	Same	Rpleas	Amasked	CS_A	1pleas	distractor1	CONbeforeEVA	acq_new_unple_masked	acq1_masked	1	23	0	0	300	300	0	0	642	46	0	1	0	0	0	1	blank2r.bmp	0	1	+	0	7	C3r.bmp	492	1	blank2r.bmp	786	4	B4r.bmp	786	1	blank2r.bmp	866	1	töten	866	0	0	0	0	0	0	0	0	0	0	0	0	0	0	0	0	0	0	0	0	0	0	0	0	0	0	0	0	0	0	0	0	0
031819	11:29:32	11:32:04	151230	5.0.10.0	4_exp_AWA_CON_EVA_AMP	166	Rpleas_acq	Same	Rpleas	Amasked	CS_A	1pleas	distractor1	CONbeforeEVA	acq_US_unple_masked	acq1_masked	1	24	0	0	300	300	0	0	690	46	0	1	0	0	0	1	blank2r.bmp	0	1	+	0	1	B1r.bmp	492	1	blank2r.bmp	786	1	DHJF	786	1	blank2r.bmp	866	6	versagen	866	0	0	0	0	0	0	0	0	0	0	0	0	0	0	0	0	0	0	0	0	0	0	0	0	0	0	0	0	0	0	0	0	0
031819	11:29:32	11:32:06	153416	5.0.10.0	4_exp_AWA_CON_EVA_AMP	166	Rpleas_acq	Same	Rpleas	Amasked	CS_A	1pleas	distractor1	CONbeforeEVA	acq_US_pleas_masked	acq1_masked	1	25	0	0	300	300	0	0	697	50	0	1	0	0	0	1	blank2r.bmp	0	1	+	0	7	C3r.bmp	492	1	blank2r.bmp	786	1	CPLW	786	1	blank2r.bmp	866	4	engagiert	866	0	0	0	0	0	0	0	0	0	0	0	0	0	0	0	0	0	0	0	0	0	0	0	0	0	0	0	0	0	0	0	0	0
031819	11:29:32	11:32:08	155589	5.0.10.0	4_exp_AWA_CON_EVA_AMP	166	Rpleas_acq	Same	Rpleas	Amasked	CS_A	1pleas	distractor1	CONbeforeEVA	acq_new_pleas_masked	acq1_masked	1	26	0	0	300	300	0	0	689	50	0	1	0	0	0	1	blank2r.bmp	0	1	+	0	1	B1r.bmp	492	1	blank2r.bmp	786	5	C1r.bmp	786	1	blank2r.bmp	866	3	sonnig	866	0	0	0	0	0	0	0	0	0	0	0	0	0	0	0	0	0	0	0	0	0	0	0	0	0	0	0	0	0	0	0	0	0
031819	11:29:32	11:32:11	158041	5.0.10.0	4_exp_AWA_CON_EVA_AMP	166	Rpleas_acq	Same	Rpleas	Amasked	CS_A	1pleas	distractor1	CONbeforeEVA	acq_new_unple_masked	acq1_masked	1	27	0	0	300	300	0	0	980	46	0	1	0	0	0	1	blank2r.bmp	0	1	+	0	6	C2r.bmp	492	1	blank2r.bmp	786	8	C4r.bmp	786	1	blank2r.bmp	866	3	sterben	866	0	0	0	0	0	0	0	0	0	0	0	0	0	0	0	0	0	0	0	0	0	0	0	0	0	0	0	0	0	0	0	0	0
031819	11:29:32	11:32:13	160080	5.0.10.0	4_exp_AWA_CON_EVA_AMP	166	Rpleas_acq	Same	Rpleas	Amasked	CS_A	1pleas	distractor1	CONbeforeEVA	acq_US_pleas_masked	acq1_masked	1	28	0	0	300	300	0	0	567	50	0	1	0	0	0	1	blank2r.bmp	0	1	+	0	2	B2r.bmp	492	1	blank2r.bmp	786	1	CPLW	786	1	blank2r.bmp	866	6	vertrauen	866	0	0	0	0	0	0	0	0	0	0	0	0	0	0	0	0	0	0	0	0	0	0	0	0	0	0	0	0	0	0	0	0	0
031819	11:29:32	11:32:15	162466	5.0.10.0	4_exp_AWA_CON_EVA_AMP	166	Rpleas_acq	Same	Rpleas	Amasked	CS_A	1pleas	distractor1	CONbeforeEVA	acq_new_unple_masked	acq1_masked	1	29	0	0	300	300	0	0	903	46	0	1	0	0	0	1	blank2r.bmp	0	1	+	0	8	C4r.bmp	492	1	blank2r.bmp	786	6	C2r.bmp	786	1	blank2r.bmp	866	2	geizig	866	0	0	0	0	0	0	0	0	0	0	0	0	0	0	0	0	0	0	0	0	0	0	0	0	0	0	0	0	0	0	0	0	0
031819	11:29:32	11:32:18	164838	5.0.10.0	4_exp_AWA_CON_EVA_AMP	166	Rpleas_acq	Same	Rpleas	Amasked	CS_A	1pleas	distractor1	CONbeforeEVA	acq_US_unple_masked	acq1_masked	1	30	0	0	300	300	0	0	883	46	0	1	0	0	0	1	blank2r.bmp	0	1	+	0	3	B3r.bmp	492	1	blank2r.bmp	786	1	DHJF	786	1	blank2r.bmp	866	4	engstirnig	866	0	0	0	0	0	0	0	0	0	0	0	0	0	0	0	0	0	0	0	0	0	0	0	0	0	0	0	0	0	0	0	0	0
031819	11:29:32	11:32:20	167051	5.0.10.0	4_exp_AWA_CON_EVA_AMP	166	Rpleas_acq	Same	Rpleas	Amasked	CS_A	1pleas	distractor1	CONbeforeEVA	acq_new_unple_masked	acq1_masked	1	31	0	0	300	300	0	0	730	46	0	1	0	0	0	1	blank2r.bmp	0	1	+	0	4	B4r.bmp	492	1	blank2r.bmp	786	1	B1r.bmp	786	1	blank2r.bmp	866	4	ausrottung	866	0	0	0	0	0	0	0	0	0	0	0	0	0	0	0	0	0	0	0	0	0	0	0	0	0	0	0	0	0	0	0	0	0
031819	11:29:32	11:32:22	169356	5.0.10.0	4_exp_AWA_CON_EVA_AMP	166	Rpleas_acq	Same	Rpleas	Amasked	CS_A	1pleas	distractor1	CONbeforeEVA	acq_new_pleas_masked	acq1_masked	1	32	0	0	300	300	0	0	822	50	0	1	0	0	0	1	blank2r.bmp	0	1	+	0	5	C1r.bmp	492	1	blank2r.bmp	786	6	C2r.bmp	786	1	blank2r.bmp	866	2	gesittet	866	0	0	0	0	0	0	0	0	0	0	0	0	0	0	0	0	0	0	0	0	0	0	0	0	0	0	0	0	0	0	0	0	0
031819	11:29:32	11:32:24	171742	5.0.10.0	4_exp_AWA_CON_EVA_AMP	166	Rpleas_acq	Same	Rpleas	Amasked	CS_A	1pleas	distractor1	CONbeforeEVA	acq_new_pleas_masked	acq1_masked	1	33	0	0	300	300	0	0	897	50	0	1	0	0	0	1	blank2r.bmp	0	1	+	0	5	C1r.bmp	492	1	blank2r.bmp	786	1	B1r.bmp	786	1	blank2r.bmp	866	4	anregung	866	0	0	0	0	0	0	0	0	0	0	0	0	0	0	0	0	0	0	0	0	0	0	0	0	0	0	0	0	0	0	0	0	0
031819	11:29:32	11:32:27	174154	5.0.10.0	4_exp_AWA_CON_EVA_AMP	166	Rpleas_acq	Same	Rpleas	Amasked	CS_A	1pleas	distractor1	CONbeforeEVA	acq_US_unple_masked	acq1_masked	1	34	0	0	300	300	0	0	918	46	0	1	0	0	0	1	blank2r.bmp	0	1	+	0	6	C2r.bmp	492	1	blank2r.bmp	786	1	DHJF	786	1	blank2r.bmp	866	5	verbissen	866	0	0	0	0	0	0	0	0	0	0	0	0	0	0	0	0	0	0	0	0	0	0	0	0	0	0	0	0	0	0	0	0	0
031819	11:29:32	11:32:29	176633	5.0.10.0	4_exp_AWA_CON_EVA_AMP	166	Rpleas_acq	Same	Rpleas	Amasked	CS_A	1pleas	distractor1	CONbeforeEVA	acq_US_pleas_masked	acq1_masked	1	35	0	0	300	300	0	0	1003	50	0	1	0	0	0	1	blank2r.bmp	0	1	+	0	7	C3r.bmp	492	1	blank2r.bmp	786	1	CPLW	786	1	blank2r.bmp	866	2	besonnen	866	0	0	0	0	0	0	0	0	0	0	0	0	0	0	0	0	0	0	0	0	0	0	0	0	0	0	0	0	0	0	0	0	0
031819	11:29:32	11:32:31	178752	5.0.10.0	4_exp_AWA_CON_EVA_AMP	166	Rpleas_acq	Same	Rpleas	Amasked	CS_A	1pleas	distractor1	CONbeforeEVA	acq_US_unple_masked	acq1_masked	1	36	0	0	300	300	0	0	645	46	0	1	0	0	0	1	blank2r.bmp	0	1	+	0	2	B2r.bmp	492	1	blank2r.bmp	786	1	DHJF	786	1	blank2r.bmp	866	1	krise	866	0	0	0	0	0	0	0	0	0	0	0	0	0	0	0	0	0	0	0	0	0	0	0	0	0	0	0	0	0	0	0	0	0
031819	11:29:32	11:33:13	220069	5.0.10.0	4_exp_AWA_CON_EVA_AMP	166	Rpleas_acq	Same	Rpleas	Amasked	CS_A	1pleas	distractor1	CONbeforeEVA	acq_US_pleas_masked	acq2_masked	2	1	480	0	300	300	0	0	759	50	0	1	0	0	0	1	blank2r.bmp	0	1	+	0	8	C4r.bmp	492	1	blank2r.bmp	786	1	CPLW	786	1	blank2r.bmp	866	1	kuss	866	1	!	1319	1	!	-1	0	0	0	0	0	0	0	0	0	0	0	0	0	0	0	0	0	0	0	0	0	0	0	0	0	0	0
031819	11:29:32	11:33:15	222495	5.0.10.0	4_exp_AWA_CON_EVA_AMP	166	Rpleas_acq	Same	Rpleas	Amasked	CS_A	1pleas	distractor1	CONbeforeEVA	acq_US_pleas_masked	acq2_masked	2	2	480	0	300	300	0	0	641	50	0	1	0	0	0	1	blank2r.bmp	0	1	+	0	4	B4r.bmp	492	1	blank2r.bmp	786	1	CPLW	786	1	blank2r.bmp	866	5	vergnügt	866	1	!	1319	1	!	-1	0	0	0	0	0	0	0	0	0	0	0	0	0	0	0	0	0	0	0	0	0	0	0	0	0	0	0
031819	11:29:32	11:33:18	224840	5.0.10.0	4_exp_AWA_CON_EVA_AMP	166	Rpleas_acq	Same	Rpleas	Amasked	CS_A	1pleas	distractor1	CONbeforeEVA	acq_US_unple_masked	acq2_masked	2	3	480	0	300	300	0	0	563	46	0	1	0	0	0	1	blank2r.bmp	0	1	+	0	3	B3r.bmp	492	1	blank2r.bmp	786	1	DHJF	786	1	blank2r.bmp	866	3	gierig	866	1	!	1319	1	!	-1	0	0	0	0	0	0	0	0	0	0	0	0	0	0	0	0	0	0	0	0	0	0	0	0	0	0	0
031819	11:29:32	11:33:20	227226	5.0.10.0	4_exp_AWA_CON_EVA_AMP	166	Rpleas_acq	Same	Rpleas	Amasked	CS_A	1pleas	distractor1	CONbeforeEVA	acq_new_pleas_masked	acq2_masked	2	4	480	0	300	300	0	0	606	50	0	1	0	0	0	1	blank2r.bmp	0	1	+	0	1	B1r.bmp	492	1	blank2r.bmp	786	3	B3r.bmp	786	1	blank2r.bmp	866	1	träumen	866	1	!	1319	1	!	-1	0	0	0	0	0	0	0	0	0	0	0	0	0	0	0	0	0	0	0	0	0	0	0	0	0	0	0
031819	11:29:32	11:33:22	229398	5.0.10.0	4_exp_AWA_CON_EVA_AMP	166	Rpleas_acq	Same	Rpleas	Amasked	CS_A	1pleas	distractor1	CONbeforeEVA	acq_US_unple_masked	acq2_masked	2	5	480	0	300	300	0	0	387	46	0	1	0	0	0	1	blank2r.bmp	0	1	+	0	8	C4r.bmp	492	1	blank2r.bmp	786	1	DHJF	786	1	blank2r.bmp	866	6	versagen	866	1	!	-1	1	!	-1	0	0	0	0	0	0	0	0	0	0	0	0	0	0	0	0	0	0	0	0	0	0	0	0	0	0	0
031819	11:29:32	11:33:25	231971	5.0.10.0	4_exp_AWA_CON_EVA_AMP	166	Rpleas_acq	Same	Rpleas	Amasked	CS_A	1pleas	distractor1	CONbeforeEVA	acq_new_unple_masked	acq2_masked	2	6	480	0	300	300	0	0	794	46	0	1	0	0	0	1	blank2r.bmp	0	1	+	0	3	B3r.bmp	492	1	blank2r.bmp	786	5	C1r.bmp	786	1	blank2r.bmp	866	5	gemein	866	1	!	1319	1	!	-1	0	0	0	0	0	0	0	0	0	0	0	0	0	0	0	0	0	0	0	0	0	0	0	0	0	0	0
031819	11:29:32	11:33:27	234490	5.0.10.0	4_exp_AWA_CON_EVA_AMP	166	Rpleas_acq	Same	Rpleas	Amasked	CS_A	1pleas	distractor1	CONbeforeEVA	acq_US_pleas_masked	acq2_masked	2	7	480	0	300	300	0	0	740	50	0	1	0	0	0	1	blank2r.bmp	0	1	+	0	5	C1r.bmp	492	1	blank2r.bmp	786	1	CPLW	786	1	blank2r.bmp	866	3	gütig	866	1	!	1319	1	!	-1	0	0	0	0	0	0	0	0	0	0	0	0	0	0	0	0	0	0	0	0	0	0	0	0	0	0	0
031819	11:29:32	11:33:30	236995	5.0.10.0	4_exp_AWA_CON_EVA_AMP	166	Rpleas_acq	Same	Rpleas	Amasked	CS_A	1pleas	distractor1	CONbeforeEVA	acq_US_unple_masked	acq2_masked	2	8	480	0	300	300	0	0	723	46	0	1	0	0	0	1	blank2r.bmp	0	1	+	0	6	C2r.bmp	492	1	blank2r.bmp	786	1	DHJF	786	1	blank2r.bmp	866	2	bange	866	1	!	1319	1	!	-1	0	0	0	0	0	0	0	0	0	0	0	0	0	0	0	0	0	0	0	0	0	0	0	0	0	0	0
031819	11:29:32	11:33:32	239528	5.0.10.0	4_exp_AWA_CON_EVA_AMP	166	Rpleas_acq	Same	Rpleas	Amasked	CS_A	1pleas	distractor1	CONbeforeEVA	acq_new_pleas_masked	acq2_masked	2	9	480	0	300	300	0	0	756	50	0	1	0	0	0	1	blank2r.bmp	0	1	+	0	2	B2r.bmp	492	1	blank2r.bmp	786	7	C3r.bmp	786	1	blank2r.bmp	866	5	genießen	866	1	!	1319	1	!	-1	0	0	0	0	0	0	0	0	0	0	0	0	0	0	0	0	0	0	0	0	0	0	0	0	0	0	0
031819	11:29:32	11:33:35	242020	5.0.10.0	4_exp_AWA_CON_EVA_AMP	166	Rpleas_acq	Same	Rpleas	Amasked	CS_A	1pleas	distractor1	CONbeforeEVA	acq_new_pleas_masked	acq2_masked	2	10	480	0	300	300	0	0	711	50	0	1	0	0	0	1	blank2r.bmp	0	1	+	0	7	C3r.bmp	492	1	blank2r.bmp	786	8	C4r.bmp	786	1	blank2r.bmp	866	6	kreativ	866	1	!	1319	1	!	-1	0	0	0	0	0	0	0	0	0	0	0	0	0	0	0	0	0	0	0	0	0	0	0	0	0	0	0
031819	11:29:32	11:33:37	244539	5.0.10.0	4_exp_AWA_CON_EVA_AMP	166	Rpleas_acq	Same	Rpleas	Amasked	CS_A	1pleas	distractor1	CONbeforeEVA	acq_new_unple_masked	acq2_masked	2	11	480	0	300	300	0	0	741	46	0	1	0	0	0	1	blank2r.bmp	0	1	+	0	1	B1r.bmp	492	1	blank2r.bmp	786	4	B4r.bmp	786	1	blank2r.bmp	866	1	töten	866	1	!	1319	1	!	-1	0	0	0	0	0	0	0	0	0	0	0	0	0	0	0	0	0	0	0	0	0	0	0	0	0	0	0
031819	11:29:32	11:33:40	247071	5.0.10.0	4_exp_AWA_CON_EVA_AMP	166	Rpleas_acq	Same	Rpleas	Amasked	CS_A	1pleas	distractor1	CONbeforeEVA	acq_new_unple_masked	acq2_masked	2	12	480	0	300	300	0	0	744	46	0	1	0	0	0	1	blank2r.bmp	0	1	+	0	4	B4r.bmp	492	1	blank2r.bmp	786	2	B2r.bmp	786	1	blank2r.bmp	866	6	krank	866	1	!	1319	1	!	-1	0	0	0	0	0	0	0	0	0	0	0	0	0	0	0	0	0	0	0	0	0	0	0	0	0	0	0
031819	11:29:32	11:33:42	249550	5.0.10.0	4_exp_AWA_CON_EVA_AMP	166	Rpleas_acq	Same	Rpleas	Amasked	CS_A	1pleas	distractor1	CONbeforeEVA	acq_new_pleas_masked	acq2_masked	2	13	480	0	300	300	0	0	694	50	0	1	0	0	0	1	blank2r.bmp	0	1	+	0	8	C4r.bmp	492	1	blank2r.bmp	786	5	C1r.bmp	786	1	blank2r.bmp	866	1	träumen	866	1	!	1319	1	!	-1	0	0	0	0	0	0	0	0	0	0	0	0	0	0	0	0	0	0	0	0	0	0	0	0	0	0	0
031819	11:29:32	11:33:45	252029	5.0.10.0	4_exp_AWA_CON_EVA_AMP	166	Rpleas_acq	Same	Rpleas	Amasked	CS_A	1pleas	distractor1	CONbeforeEVA	acq_US_unple_masked	acq2_masked	2	14	480	0	300	300	0	0	695	46	0	1	0	0	0	1	blank2r.bmp	0	1	+	0	1	B1r.bmp	492	1	blank2r.bmp	786	1	DHJF	786	1	blank2r.bmp	866	2	bange	866	1	!	1319	1	!	-1	0	0	0	0	0	0	0	0	0	0	0	0	0	0	0	0	0	0	0	0	0	0	0	0	0	0	0
031819	11:29:32	11:33:47	254481	5.0.10.0	4_exp_AWA_CON_EVA_AMP	166	Rpleas_acq	Same	Rpleas	Amasked	CS_A	1pleas	distractor1	CONbeforeEVA	acq_US_pleas_masked	acq2_masked	2	15	480	0	300	300	0	0	674	50	0	1	0	0	0	1	blank2r.bmp	0	1	+	0	5	C1r.bmp	492	1	blank2r.bmp	786	1	CPLW	786	1	blank2r.bmp	866	1	kuss	866	1	!	1319	1	!	-1	0	0	0	0	0	0	0	0	0	0	0	0	0	0	0	0	0	0	0	0	0	0	0	0	0	0	0
031819	11:29:32	11:33:50	257040	5.0.10.0	4_exp_AWA_CON_EVA_AMP	166	Rpleas_acq	Same	Rpleas	Amasked	CS_A	1pleas	distractor1	CONbeforeEVA	acq_US_unple_masked	acq2_masked	2	16	480	0	300	300	0	0	776	46	0	1	0	0	0	1	blank2r.bmp	0	1	+	0	2	B2r.bmp	492	1	blank2r.bmp	786	1	DHJF	786	1	blank2r.bmp	866	3	gierig	866	1	!	1319	1	!	-1	0	0	0	0	0	0	0	0	0	0	0	0	0	0	0	0	0	0	0	0	0	0	0	0	0	0	0
031819	11:29:32	11:33:52	259613	5.0.10.0	4_exp_AWA_CON_EVA_AMP	166	Rpleas_acq	Same	Rpleas	Amasked	CS_A	1pleas	distractor1	CONbeforeEVA	acq_US_unple_masked	acq2_masked	2	17	480	0	300	300	0	0	795	46	0	1	0	0	0	1	blank2r.bmp	0	1	+	0	6	C2r.bmp	492	1	blank2r.bmp	786	1	DHJF	786	1	blank2r.bmp	866	1	krise	866	1	!	1319	1	!	-1	0	0	0	0	0	0	0	0	0	0	0	0	0	0	0	0	0	0	0	0	0	0	0	0	0	0	0
031819	11:29:32	11:33:55	262145	5.0.10.0	4_exp_AWA_CON_EVA_AMP	166	Rpleas_acq	Same	Rpleas	Amasked	CS_A	1pleas	distractor1	CONbeforeEVA	acq_new_unple_masked	acq2_masked	2	18	480	0	300	300	0	0	752	46	0	1	0	0	0	1	blank2r.bmp	0	1	+	0	3	B3r.bmp	492	1	blank2r.bmp	786	1	B1r.bmp	786	1	blank2r.bmp	866	2	geizig	866	1	!	1319	1	!	-1	0	0	0	0	0	0	0	0	0	0	0	0	0	0	0	0	0	0	0	0	0	0	0	0	0	0	0
031819	11:29:32	11:33:57	264624	5.0.10.0	4_exp_AWA_CON_EVA_AMP	166	Rpleas_acq	Same	Rpleas	Amasked	CS_A	1pleas	distractor1	CONbeforeEVA	acq_new_unple_masked	acq2_masked	2	19	480	0	300	300	0	0	702	46	0	1	0	0	0	1	blank2r.bmp	0	1	+	0	7	C3r.bmp	492	1	blank2r.bmp	786	6	C2r.bmp	786	1	blank2r.bmp	866	3	sterben	866	1	!	1319	1	!	-1	0	0	0	0	0	0	0	0	0	0	0	0	0	0	0	0	0	0	0	0	0	0	0	0	0	0	0
031819	11:29:32	11:34:00	267143	5.0.10.0	4_exp_AWA_CON_EVA_AMP	166	Rpleas_acq	Same	Rpleas	Amasked	CS_A	1pleas	distractor1	CONbeforeEVA	acq_US_pleas_masked	acq2_masked	2	20	480	0	300	300	0	0	739	50	0	1	0	0	0	1	blank2r.bmp	0	1	+	0	4	B4r.bmp	492	1	blank2r.bmp	786	1	CPLW	786	1	blank2r.bmp	866	4	engagiert	866	1	!	1319	1	!	-1	0	0	0	0	0	0	0	0	0	0	0	0	0	0	0	0	0	0	0	0	0	0	0	0	0	0	0
031819	11:29:32	11:34:02	269595	5.0.10.0	4_exp_AWA_CON_EVA_AMP	166	Rpleas_acq	Same	Rpleas	Amasked	CS_A	1pleas	distractor1	CONbeforeEVA	acq_new_pleas_masked	acq2_masked	2	21	480	0	300	300	0	0	663	50	0	1	0	0	0	1	blank2r.bmp	0	1	+	0	5	C1r.bmp	492	1	blank2r.bmp	786	8	C4r.bmp	786	1	blank2r.bmp	866	5	genießen	866	1	!	1319	1	!	-1	0	0	0	0	0	0	0	0	0	0	0	0	0	0	0	0	0	0	0	0	0	0	0	0	0	0	0
031819	11:29:32	11:34:05	272061	5.0.10.0	4_exp_AWA_CON_EVA_AMP	166	Rpleas_acq	Same	Rpleas	Amasked	CS_A	1pleas	distractor1	CONbeforeEVA	acq_new_pleas_masked	acq2_masked	2	22	480	0	300	300	0	0	686	50	0	1	0	0	0	1	blank2r.bmp	0	1	+	0	1	B1r.bmp	492	1	blank2r.bmp	786	2	B2r.bmp	786	1	blank2r.bmp	866	4	anregung	866	1	!	1319	1	!	-1	0	0	0	0	0	0	0	0	0	0	0	0	0	0	0	0	0	0	0	0	0	0	0	0	0	0	0
031819	11:29:32	11:34:07	274500	5.0.10.0	4_exp_AWA_CON_EVA_AMP	166	Rpleas_acq	Same	Rpleas	Amasked	CS_A	1pleas	distractor1	CONbeforeEVA	acq_US_pleas_masked	acq2_masked	2	23	480	0	300	300	0	0	658	50	0	1	0	0	0	1	blank2r.bmp	0	1	+	0	3	B3r.bmp	492	1	blank2r.bmp	786	1	CPLW	786	1	blank2r.bmp	866	3	gütig	866	1	!	1319	1	!	-1	0	0	0	0	0	0	0	0	0	0	0	0	0	0	0	0	0	0	0	0	0	0	0	0	0	0	0
031819	11:29:32	11:34:10	276925	5.0.10.0	4_exp_AWA_CON_EVA_AMP	166	Rpleas_acq	Same	Rpleas	Amasked	CS_A	1pleas	distractor1	CONbeforeEVA	acq_new_unple_masked	acq2_masked	2	24	480	0	300	300	0	0	646	46	0	1	0	0	0	1	blank2r.bmp	0	1	+	0	6	C2r.bmp	492	1	blank2r.bmp	786	7	C3r.bmp	786	1	blank2r.bmp	866	6	krank	866	1	!	1319	1	!	-1	0	0	0	0	0	0	0	0	0	0	0	0	0	0	0	0	0	0	0	0	0	0	0	0	0	0	0
031819	11:29:32	11:34:12	279431	5.0.10.0	4_exp_AWA_CON_EVA_AMP	166	Rpleas_acq	Same	Rpleas	Amasked	CS_A	1pleas	distractor1	CONbeforeEVA	acq_new_unple_masked	acq2_masked	2	25	480	0	300	300	0	0	717	46	0	1	0	0	0	1	blank2r.bmp	0	1	+	0	2	B2r.bmp	492	1	blank2r.bmp	786	4	B4r.bmp	786	1	blank2r.bmp	866	1	töten	866	1	!	1319	1	!	-1	0	0	0	0	0	0	0	0	0	0	0	0	0	0	0	0	0	0	0	0	0	0	0	0	0	0	0
031819	11:29:32	11:34:15	281910	5.0.10.0	4_exp_AWA_CON_EVA_AMP	166	Rpleas_acq	Same	Rpleas	Amasked	CS_A	1pleas	distractor1	CONbeforeEVA	acq_new_pleas_masked	acq2_masked	2	26	480	0	300	300	0	0	694	50	0	1	0	0	0	1	blank2r.bmp	0	1	+	0	7	C3r.bmp	492	1	blank2r.bmp	786	3	B3r.bmp	786	1	blank2r.bmp	866	2	gesittet	866	1	!	1319	1	!	-1	0	0	0	0	0	0	0	0	0	0	0	0	0	0	0	0	0	0	0	0	0	0	0	0	0	0	0
031819	11:29:32	11:34:17	284402	5.0.10.0	4_exp_AWA_CON_EVA_AMP	166	Rpleas_acq	Same	Rpleas	Amasked	CS_A	1pleas	distractor1	CONbeforeEVA	acq_new_pleas_masked	acq2_masked	2	27	480	0	300	300	0	0	711	50	0	1	0	0	0	1	blank2r.bmp	0	1	+	0	4	B4r.bmp	492	1	blank2r.bmp	786	6	C2r.bmp	786	1	blank2r.bmp	866	3	sonnig	866	1	!	1319	1	!	-1	0	0	0	0	0	0	0	0	0	0	0	0	0	0	0	0	0	0	0	0	0	0	0	0	0	0	0
031819	11:29:32	11:34:20	286841	5.0.10.0	4_exp_AWA_CON_EVA_AMP	166	Rpleas_acq	Same	Rpleas	Amasked	CS_A	1pleas	distractor1	CONbeforeEVA	acq_US_unple_masked	acq2_masked	2	28	480	0	300	300	0	0	655	46	0	1	0	0	0	1	blank2r.bmp	0	1	+	0	8	C4r.bmp	492	1	blank2r.bmp	786	1	DHJF	786	1	blank2r.bmp	866	6	versagen	866	1	!	1319	1	!	-1	0	0	0	0	0	0	0	0	0	0	0	0	0	0	0	0	0	0	0	0	0	0	0	0	0	0	0
031819	11:29:32	11:34:22	289227	5.0.10.0	4_exp_AWA_CON_EVA_AMP	166	Rpleas_acq	Same	Rpleas	Amasked	CS_A	1pleas	distractor1	CONbeforeEVA	acq_US_pleas_masked	acq2_masked	2	29	480	0	300	300	0	0	609	50	0	1	0	0	0	1	blank2r.bmp	0	1	+	0	8	C4r.bmp	492	1	blank2r.bmp	786	1	CPLW	786	1	blank2r.bmp	866	2	besonnen	866	1	!	1319	1	!	-1	0	0	0	0	0	0	0	0	0	0	0	0	0	0	0	0	0	0	0	0	0	0	0	0	0	0	0
031819	11:29:32	11:34:24	291653	5.0.10.0	4_exp_AWA_CON_EVA_AMP	166	Rpleas_acq	Same	Rpleas	Amasked	CS_A	1pleas	distractor1	CONbeforeEVA	acq_new_unple_masked	acq2_masked	2	30	480	0	300	300	0	0	639	46	0	1	0	0	0	1	blank2r.bmp	0	1	+	0	1	B1r.bmp	492	1	blank2r.bmp	786	8	C4r.bmp	786	1	blank2r.bmp	866	4	ausrottung	866	1	!	1319	1	!	-1	0	0	0	0	0	0	0	0	0	0	0	0	0	0	0	0	0	0	0	0	0	0	0	0	0	0	0
031819	11:29:32	11:34:27	294078	5.0.10.0	4_exp_AWA_CON_EVA_AMP	166	Rpleas_acq	Same	Rpleas	Amasked	CS_A	1pleas	distractor1	CONbeforeEVA	acq_new_unple_masked	acq2_masked	2	31	480	0	300	300	0	0	640	46	0	1	0	0	0	1	blank2r.bmp	0	1	+	0	6	C2r.bmp	492	1	blank2r.bmp	786	2	B2r.bmp	786	1	blank2r.bmp	866	5	gemein	866	1	!	1319	1	!	-1	0	0	0	0	0	0	0	0	0	0	0	0	0	0	0	0	0	0	0	0	0	0	0	0	0	0	0
031819	11:29:32	11:34:29	296557	5.0.10.0	4_exp_AWA_CON_EVA_AMP	166	Rpleas_acq	Same	Rpleas	Amasked	CS_A	1pleas	distractor1	CONbeforeEVA	acq_US_unple_masked	acq2_masked	2	32	480	0	300	300	0	0	701	46	0	1	0	0	0	1	blank2r.bmp	0	1	+	0	2	B2r.bmp	492	1	blank2r.bmp	786	1	DHJF	786	1	blank2r.bmp	866	4	engstirnig	866	1	!	1319	1	!	-1	0	0	0	0	0	0	0	0	0	0	0	0	0	0	0	0	0	0	0	0	0	0	0	0	0	0	0
031819	11:29:32	11:34:32	298983	5.0.10.0	4_exp_AWA_CON_EVA_AMP	166	Rpleas_acq	Same	Rpleas	Amasked	CS_A	1pleas	distractor1	CONbeforeEVA	acq_US_unple_masked	acq2_masked	2	33	480	0	300	300	0	0	646	46	0	1	0	0	0	1	blank2r.bmp	0	1	+	0	7	C3r.bmp	492	1	blank2r.bmp	786	1	DHJF	786	1	blank2r.bmp	866	5	verbissen	866	1	!	1319	1	!	-1	0	0	0	0	0	0	0	0	0	0	0	0	0	0	0	0	0	0	0	0	0	0	0	0	0	0	0
031819	11:29:32	11:34:34	301409	5.0.10.0	4_exp_AWA_CON_EVA_AMP	166	Rpleas_acq	Same	Rpleas	Amasked	CS_A	1pleas	distractor1	CONbeforeEVA	acq_US_pleas_masked	acq2_masked	2	34	480	0	300	300	0	0	638	50	0	1	0	0	0	1	blank2r.bmp	0	1	+	0	4	B4r.bmp	492	1	blank2r.bmp	786	1	CPLW	786	1	blank2r.bmp	866	5	vergnügt	866	1	!	1319	1	!	-1	0	0	0	0	0	0	0	0	0	0	0	0	0	0	0	0	0	0	0	0	0	0	0	0	0	0	0
031819	11:29:32	11:34:36	303794	5.0.10.0	4_exp_AWA_CON_EVA_AMP	166	Rpleas_acq	Same	Rpleas	Amasked	CS_A	1pleas	distractor1	CONbeforeEVA	acq_US_pleas_masked	acq2_masked	2	35	480	0	300	300	0	0	606	50	0	1	0	0	0	1	blank2r.bmp	0	1	+	0	5	C1r.bmp	492	1	blank2r.bmp	786	1	CPLW	786	1	blank2r.bmp	866	6	vertrauen	866	1	!	1319	1	!	-1	0	0	0	0	0	0	0	0	0	0	0	0	0	0	0	0	0	0	0	0	0	0	0	0	0	0	0
031819	11:29:32	11:34:39	306167	5.0.10.0	4_exp_AWA_CON_EVA_AMP	166	Rpleas_acq	Same	Rpleas	Amasked	CS_A	1pleas	distractor1	CONbeforeEVA	acq_new_pleas_masked	acq2_masked	2	36	480	0	300	300	0	0	596	50	0	1	0	0	0	1	blank2r.bmp	0	1	+	0	3	B3r.bmp	492	1	blank2r.bmp	786	4	B4r.bmp	786	1	blank2r.bmp	866	6	kreativ	866	1	!	1319	1	!	-1	0	0	0	0	0	0	0	0	0	0	0	0	0	0	0	0	0	0	0	0	0	0	0	0	0	0	0
031819	11:29:32	11:34:53	320734	5.0.10.0	4_exp_AWA_CON_EVA_AMP	166	Rpleas_acq	Same	Rpleas	Amasked	CS_A	1pleas	distractor1	CONbeforeEVA	acq_US_pleas_masked	acq3_masked	3	1	453	0	300	300	0	0	635	50	0	1	0	0	0	1	blank2r.bmp	0	1	+	0	5	C1r.bmp	492	1	blank2r.bmp	786	1	CPLW	786	1	blank2r.bmp	866	4	engagiert	866	1	!	1292	1	!	-1	0	0	0	0	0	0	0	0	0	0	0	0	0	0	0	0	0	0	0	0	0	0	0	0	0	0	0
031819	11:29:32	11:34:55	322773	5.0.10.0	4_exp_AWA_CON_EVA_AMP	166	Rpleas_acq	Same	Rpleas	Amasked	CS_A	1pleas	distractor1	CONbeforeEVA	acq_US_pleas_masked	acq3_masked	3	2	453	0	300	300	0	0	259	50	0	1	0	0	0	1	blank2r.bmp	0	1	+	0	1	B1r.bmp	492	1	blank2r.bmp	786	1	CPLW	786	1	blank2r.bmp	866	2	besonnen	866	1	!	-1	1	!	-1	0	0	0	0	0	0	0	0	0	0	0	0	0	0	0	0	0	0	0	0	0	0	0	0	0	0	0
031819	11:29:32	11:34:58	325172	5.0.10.0	4_exp_AWA_CON_EVA_AMP	166	Rpleas_acq	Same	Rpleas	Amasked	CS_A	1pleas	distractor1	CONbeforeEVA	acq_US_pleas_masked	acq3_masked	3	3	453	0	300	300	0	0	607	50	0	1	0	0	0	1	blank2r.bmp	0	1	+	0	4	B4r.bmp	492	1	blank2r.bmp	786	1	CPLW	786	1	blank2r.bmp	866	3	gütig	866	1	!	1292	1	!	-1	0	0	0	0	0	0	0	0	0	0	0	0	0	0	0	0	0	0	0	0	0	0	0	0	0	0	0
031819	11:29:32	11:35:06	333569	5.0.10.0	4_exp_AWA_CON_EVA_AMP	166	Rpleas_acq	Same	Rpleas	Amasked	CS_A	1pleas	distractor1	CONbeforeEVA	acq_US_unple_masked	acq3_masked	3	4	453	0	300	300	0	0	6619	46	0	1	0	0	0	1	blank2r.bmp	0	1	+	0	7	C3r.bmp	492	1	blank2r.bmp	786	1	DHJF	786	1	blank2r.bmp	866	3	gierig	866	1	!	1292	1	!	-1	0	0	0	0	0	0	0	0	0	0	0	0	0	0	0	0	0	0	0	0	0	0	0	0	0	0	0
031819	11:29:32	11:35:09	336114	5.0.10.0	4_exp_AWA_CON_EVA_AMP	166	Rpleas_acq	Same	Rpleas	Amasked	CS_A	1pleas	distractor1	CONbeforeEVA	acq_US_pleas_masked	acq3_masked	3	5	453	0	300	300	0	0	755	50	0	1	0	0	0	1	blank2r.bmp	0	1	+	0	2	B2r.bmp	492	1	blank2r.bmp	786	1	CPLW	786	1	blank2r.bmp	866	1	kuss	866	1	!	1292	1	!	-1	0	0	0	0	0	0	0	0	0	0	0	0	0	0	0	0	0	0	0	0	0	0	0	0	0	0	0
031819	11:29:32	11:35:11	338487	5.0.10.0	4_exp_AWA_CON_EVA_AMP	166	Rpleas_acq	Same	Rpleas	Amasked	CS_A	1pleas	distractor1	CONbeforeEVA	acq_US_unple_masked	acq3_masked	3	6	453	0	300	300	0	0	594	46	0	1	0	0	0	1	blank2r.bmp	0	1	+	0	3	B3r.bmp	492	1	blank2r.bmp	786	1	DHJF	786	1	blank2r.bmp	866	6	versagen	866	1	!	1292	1	!	-1	0	0	0	0	0	0	0	0	0	0	0	0	0	0	0	0	0	0	0	0	0	0	0	0	0	0	0
031819	11:29:32	11:35:14	340873	5.0.10.0	4_exp_AWA_CON_EVA_AMP	166	Rpleas_acq	Same	Rpleas	Amasked	CS_A	1pleas	distractor1	CONbeforeEVA	acq_US_unple_masked	acq3_masked	3	7	453	0	300	300	0	0	605	46	0	1	0	0	0	1	blank2r.bmp	0	1	+	0	6	C2r.bmp	492	1	blank2r.bmp	786	1	DHJF	786	1	blank2r.bmp	866	1	krise	866	1	!	1292	1	!	-1	0	0	0	0	0	0	0	0	0	0	0	0	0	0	0	0	0	0	0	0	0	0	0	0	0	0	0
031819	11:29:32	11:35:16	343192	5.0.10.0	4_exp_AWA_CON_EVA_AMP	166	Rpleas_acq	Same	Rpleas	Amasked	CS_A	1pleas	distractor1	CONbeforeEVA	acq_US_unple_masked	acq3_masked	3	8	453	1	300	300	0	0	512	46	0	1	0	0	0	1	blank2r.bmp	0	1	+	0	8	C4r.bmp	492	1	blank2r.bmp	786	1	DHJF	786	1	blank2r.bmp	866	2	bange	866	1	!	1292	1	!	1412	0	0	0	0	0	0	0	0	0	0	0	0	0	0	0	0	0	0	0	0	0	0	0	0	0	0	0
031819	11:29:32	11:35:18	345444	5.0.10.0	4_exp_AWA_CON_EVA_AMP	166	Rpleas_acq	Same	Rpleas	Amasked	CS_A	1pleas	distractor1	CONbeforeEVA	acq_US_unple_masked	acq3_masked	3	9	453	1	300	300	0	0	448	46	0	1	0	0	0	1	blank2r.bmp	0	1	+	0	3	B3r.bmp	492	1	blank2r.bmp	786	1	DHJF	786	1	blank2r.bmp	866	4	engstirnig	866	1	!	1292	1	!	1346	0	0	0	0	0	0	0	0	0	0	0	0	0	0	0	0	0	0	0	0	0	0	0	0	0	0	0
031819	11:29:32	11:35:20	347750	5.0.10.0	4_exp_AWA_CON_EVA_AMP	166	Rpleas_acq	Same	Rpleas	Amasked	CS_A	1pleas	distractor1	CONbeforeEVA	acq_US_unple_masked	acq3_masked	3	10	453	1	300	300	0	0	513	46	0	1	0	0	0	1	blank2r.bmp	0	1	+	0	6	C2r.bmp	492	1	blank2r.bmp	786	1	DHJF	786	1	blank2r.bmp	866	5	verbissen	866	1	!	1292	1	!	1412	0	0	0	0	0	0	0	0	0	0	0	0	0	0	0	0	0	0	0	0	0	0	0	0	0	0	0
031819	11:29:32	11:35:23	350002	5.0.10.0	4_exp_AWA_CON_EVA_AMP	166	Rpleas_acq	Same	Rpleas	Amasked	CS_A	1pleas	distractor1	CONbeforeEVA	acq_US_pleas_masked	acq3_masked	3	11	453	1	300	300	0	0	453	50	0	1	0	0	0	1	blank2r.bmp	0	1	+	0	4	B4r.bmp	492	1	blank2r.bmp	786	1	CPLW	786	1	blank2r.bmp	866	6	vertrauen	866	1	!	1292	1	!	1359	0	0	0	0	0	0	0	0	0	0	0	0	0	0	0	0	0	0	0	0	0	0	0	0	0	0	0
031819	11:29:32	11:35:25	352295	5.0.10.0	4_exp_AWA_CON_EVA_AMP	166	Rpleas_acq	Same	Rpleas	Amasked	CS_A	1pleas	distractor1	CONbeforeEVA	acq_US_pleas_masked	acq3_masked	3	12	453	1	300	300	0	0	503	50	0	1	0	0	0	1	blank2r.bmp	0	1	+	0	8	C4r.bmp	492	1	blank2r.bmp	786	1	CPLW	786	1	blank2r.bmp	866	5	vergnügt	866	1	!	1292	1	!	1399	0	0	0	0	0	0	0	0	0	0	0	0	0	0	0	0	0	0	0	0	0	0	0	0	0	0	0
031819	11:29:32	11:35:27	354560	5.0.10.0	4_exp_AWA_CON_EVA_AMP	166	Rpleas_acq	Same	Rpleas	Amasked	CS_A	1pleas	distractor1	CONbeforeEVA	acq_US_unple_masked	acq3_masked	3	13	453	1	300	300	0	0	472	46	0	1	0	0	0	1	blank2r.bmp	0	1	+	0	1	B1r.bmp	492	1	blank2r.bmp	786	1	DHJF	786	1	blank2r.bmp	866	5	verbissen	866	1	!	1292	1	!	1372	0	0	0	0	0	0	0	0	0	0	0	0	0	0	0	0	0	0	0	0	0	0	0	0	0	0	0
031819	11:29:32	11:35:30	356879	5.0.10.0	4_exp_AWA_CON_EVA_AMP	166	Rpleas_acq	Same	Rpleas	Amasked	CS_A	1pleas	distractor1	CONbeforeEVA	acq_US_pleas_masked	acq3_masked	3	14	453	0	300	300	0	0	551	50	0	1	0	0	0	1	blank2r.bmp	0	1	+	0	5	C1r.bmp	492	1	blank2r.bmp	786	1	CPLW	786	1	blank2r.bmp	866	6	vertrauen	866	1	!	1292	1	!	-1	0	0	0	0	0	0	0	0	0	0	0	0	0	0	0	0	0	0	0	0	0	0	0	0	0	0	0
031819	11:29:32	11:35:32	359198	5.0.10.0	4_exp_AWA_CON_EVA_AMP	166	Rpleas_acq	Same	Rpleas	Amasked	CS_A	1pleas	distractor1	CONbeforeEVA	acq_US_unple_masked	acq3_masked	3	15	453	0	300	300	0	0	532	46	0	1	0	0	0	1	blank2r.bmp	0	1	+	0	2	B2r.bmp	492	1	blank2r.bmp	786	1	DHJF	786	1	blank2r.bmp	866	2	bange	866	1	!	1292	1	!	-1	0	0	0	0	0	0	0	0	0	0	0	0	0	0	0	0	0	0	0	0	0	0	0	0	0	0	0
031819	11:29:32	11:35:34	361677	5.0.10.0	4_exp_AWA_CON_EVA_AMP	166	Rpleas_acq	Same	Rpleas	Amasked	CS_A	1pleas	distractor1	CONbeforeEVA	acq_US_unple_masked	acq3_masked	3	16	453	1	300	300	0	0	440	50	0	0	0	0	0	1	blank2r.bmp	0	1	+	0	7	C3r.bmp	492	1	blank2r.bmp	786	1	DHJF	786	1	blank2r.bmp	866	4	engstirnig	866	1	FEHLER	1665	1	!	1292	1	!	1346	0	0	0	0	0	0	0	0	0	0	0	0	0	0	0	0	0	0	0	0	0	0	0	0
031819	11:29:32	11:35:36	363783	5.0.10.0	4_exp_AWA_CON_EVA_AMP	166	Rpleas_acq	Same	Rpleas	Amasked	CS_A	1pleas	distractor1	CONbeforeEVA	acq_US_pleas_masked	acq3_masked	3	17	453	0	300	300	0	0	553	50	0	1	0	0	0	1	blank2r.bmp	0	1	+	0	2	B2r.bmp	492	1	blank2r.bmp	786	1	CPLW	786	1	blank2r.bmp	866	4	engagiert	866	1	!	1292	1	!	-1	0	0	0	0	0	0	0	0	0	0	0	0	0	0	0	0	0	0	0	0	0	0	0	0	0	0	0
031819	11:29:32	11:35:39	366102	5.0.10.0	4_exp_AWA_CON_EVA_AMP	166	Rpleas_acq	Same	Rpleas	Amasked	CS_A	1pleas	distractor1	CONbeforeEVA	acq_US_pleas_masked	acq3_masked	3	18	453	0	300	300	0	0	538	50	0	1	0	0	0	1	blank2r.bmp	0	1	+	0	3	B3r.bmp	492	1	blank2r.bmp	786	1	CPLW	786	1	blank2r.bmp	866	2	besonnen	866	1	!	1292	1	!	-1	0	0	0	0	0	0	0	0	0	0	0	0	0	0	0	0	0	0	0	0	0	0	0	0	0	0	0
031819	11:29:32	11:35:41	368315	5.0.10.0	4_exp_AWA_CON_EVA_AMP	166	Rpleas_acq	Same	Rpleas	Amasked	CS_A	1pleas	distractor1	CONbeforeEVA	acq_US_unple_masked	acq3_masked	3	19	453	1	300	300	0	0	404	46	0	1	0	0	0	1	blank2r.bmp	0	1	+	0	6	C2r.bmp	492	1	blank2r.bmp	786	1	DHJF	786	1	blank2r.bmp	866	3	gierig	866	1	!	1292	1	!	1306	0	0	0	0	0	0	0	0	0	0	0	0	0	0	0	0	0	0	0	0	0	0	0	0	0	0	0
031819	11:29:32	11:35:43	370607	5.0.10.0	4_exp_AWA_CON_EVA_AMP	166	Rpleas_acq	Same	Rpleas	Amasked	CS_A	1pleas	distractor1	CONbeforeEVA	acq_US_pleas_masked	acq3_masked	3	20	453	1	300	300	0	0	494	50	0	1	0	0	0	1	blank2r.bmp	0	1	+	0	8	C4r.bmp	492	1	blank2r.bmp	786	1	CPLW	786	1	blank2r.bmp	866	3	gütig	866	1	!	1292	1	!	1399	0	0	0	0	0	0	0	0	0	0	0	0	0	0	0	0	0	0	0	0	0	0	0	0	0	0	0
031819	11:29:32	11:35:46	372899	5.0.10.0	4_exp_AWA_CON_EVA_AMP	166	Rpleas_acq	Same	Rpleas	Amasked	CS_A	1pleas	distractor1	CONbeforeEVA	acq_US_unple_masked	acq3_masked	3	21	453	1	300	300	0	0	496	46	0	1	0	0	0	1	blank2r.bmp	0	1	+	0	4	B4r.bmp	492	1	blank2r.bmp	786	1	DHJF	786	1	blank2r.bmp	866	6	versagen	866	1	!	1292	1	!	1399	0	0	0	0	0	0	0	0	0	0	0	0	0	0	0	0	0	0	0	0	0	0	0	0	0	0	0
031819	11:29:32	11:35:48	375045	5.0.10.0	4_exp_AWA_CON_EVA_AMP	166	Rpleas_acq	Same	Rpleas	Amasked	CS_A	1pleas	distractor1	CONbeforeEVA	acq_US_unple_masked	acq3_masked	3	22	453	0	300	300	0	0	380	46	0	1	0	0	0	1	blank2r.bmp	0	1	+	0	5	C1r.bmp	492	1	blank2r.bmp	786	1	DHJF	786	1	blank2r.bmp	866	1	krise	866	1	!	-1	1	!	-1	0	0	0	0	0	0	0	0	0	0	0	0	0	0	0	0	0	0	0	0	0	0	0	0	0	0	0
031819	11:29:32	11:35:50	377431	5.0.10.0	4_exp_AWA_CON_EVA_AMP	166	Rpleas_acq	Same	Rpleas	Amasked	CS_A	1pleas	distractor1	CONbeforeEVA	acq_US_pleas_masked	acq3_masked	3	23	453	0	300	300	0	0	600	50	0	1	0	0	0	1	blank2r.bmp	0	1	+	0	1	B1r.bmp	492	1	blank2r.bmp	786	1	CPLW	786	1	blank2r.bmp	866	5	vergnügt	866	1	!	1292	1	!	-1	0	0	0	0	0	0	0	0	0	0	0	0	0	0	0	0	0	0	0	0	0	0	0	0	0	0	0
031819	11:29:32	11:35:53	379870	5.0.10.0	4_exp_AWA_CON_EVA_AMP	166	Rpleas_acq	Same	Rpleas	Amasked	CS_A	1pleas	distractor1	CONbeforeEVA	acq_US_pleas_masked	acq3_masked	3	24	453	1	300	300	0	0	416	46	0	0	0	0	0	1	blank2r.bmp	0	1	+	0	7	C3r.bmp	492	1	blank2r.bmp	786	1	CPLW	786	1	blank2r.bmp	866	1	kuss	866	1	FEHLER	1639	1	!	1292	1	!	1319	0	0	0	0	0	0	0	0	0	0	0	0	0	0	0	0	0	0	0	0	0	0	0	0
031819	11:29:32	11:35:55	382149	5.0.10.0	4_exp_AWA_CON_EVA_AMP	166	Rpleas_acq	Same	Rpleas	Amasked	CS_A	1pleas	distractor1	CONbeforeEVA	acq_US_pleas_masked	acq3_masked	3	25	453	1	300	300	0	0	484	46	0	0	0	0	0	1	blank2r.bmp	0	1	+	0	3	B3r.bmp	492	1	blank2r.bmp	786	1	CPLW	786	1	blank2r.bmp	866	5	vergnügt	866	1	FEHLER	1705	1	!	1292	1	!	1386	0	0	0	0	0	0	0	0	0	0	0	0	0	0	0	0	0	0	0	0	0	0	0	0
031819	11:29:32	11:35:57	384201	5.0.10.0	4_exp_AWA_CON_EVA_AMP	166	Rpleas_acq	Same	Rpleas	Amasked	CS_A	1pleas	distractor1	CONbeforeEVA	acq_US_unple_masked	acq3_masked	3	26	453	1	300	300	0	0	478	46	0	1	0	0	0	1	blank2r.bmp	0	1	+	0	1	B1r.bmp	492	1	blank2r.bmp	786	1	DHJF	786	1	blank2r.bmp	866	5	verbissen	866	1	!	1292	1	!	1372	0	0	0	0	0	0	0	0	0	0	0	0	0	0	0	0	0	0	0	0	0	0	0	0	0	0	0
031819	11:29:32	11:35:59	386534	5.0.10.0	4_exp_AWA_CON_EVA_AMP	166	Rpleas_acq	Same	Rpleas	Amasked	CS_A	1pleas	distractor1	CONbeforeEVA	acq_US_pleas_masked	acq3_masked	3	27	453	1	300	300	0	0	518	50	0	1	0	0	0	1	blank2r.bmp	0	1	+	0	7	C3r.bmp	492	1	blank2r.bmp	786	1	CPLW	786	1	blank2r.bmp	866	6	vertrauen	866	1	!	1292	1	!	1426	0	0	0	0	0	0	0	0	0	0	0	0	0	0	0	0	0	0	0	0	0	0	0	0	0	0	0
031819	11:29:32	11:36:01	388800	5.0.10.0	4_exp_AWA_CON_EVA_AMP	166	Rpleas_acq	Same	Rpleas	Amasked	CS_A	1pleas	distractor1	CONbeforeEVA	acq_US_unple_masked	acq3_masked	3	28	453	1	300	300	0	0	468	46	0	1	0	0	0	1	blank2r.bmp	0	1	+	0	6	C2r.bmp	492	1	blank2r.bmp	786	1	DHJF	786	1	blank2r.bmp	866	3	gierig	866	1	!	1292	1	!	1372	0	0	0	0	0	0	0	0	0	0	0	0	0	0	0	0	0	0	0	0	0	0	0	0	0	0	0
031819	11:29:32	11:36:04	391105	5.0.10.0	4_exp_AWA_CON_EVA_AMP	166	Rpleas_acq	Same	Rpleas	Amasked	CS_A	1pleas	distractor1	CONbeforeEVA	acq_US_pleas_masked	acq3_masked	3	29	453	0	300	300	0	0	540	50	0	1	0	0	0	1	blank2r.bmp	0	1	+	0	4	B4r.bmp	492	1	blank2r.bmp	786	1	CPLW	786	1	blank2r.bmp	866	1	kuss	866	1	!	1292	1	!	-1	0	0	0	0	0	0	0	0	0	0	0	0	0	0	0	0	0	0	0	0	0	0	0	0	0	0	0
031819	11:29:32	11:36:06	393278	5.0.10.0	4_exp_AWA_CON_EVA_AMP	166	Rpleas_acq	Same	Rpleas	Amasked	CS_A	1pleas	distractor1	CONbeforeEVA	acq_US_unple_masked	acq3_masked	3	30	453	0	300	300	0	0	385	46	0	1	0	0	0	1	blank2r.bmp	0	1	+	0	5	C1r.bmp	492	1	blank2r.bmp	786	1	DHJF	786	1	blank2r.bmp	866	4	engstirnig	866	1	!	-1	1	!	-1	0	0	0	0	0	0	0	0	0	0	0	0	0	0	0	0	0	0	0	0	0	0	0	0	0	0	0
031819	11:29:32	11:36:08	395570	5.0.10.0	4_exp_AWA_CON_EVA_AMP	166	Rpleas_acq	Same	Rpleas	Amasked	CS_A	1pleas	distractor1	CONbeforeEVA	acq_US_unple_masked	acq3_masked	3	31	453	1	300	300	0	0	489	46	0	1	0	0	0	1	blank2r.bmp	0	1	+	0	2	B2r.bmp	492	1	blank2r.bmp	786	1	DHJF	786	1	blank2r.bmp	866	1	krise	866	1	!	1292	1	!	1386	0	0	0	0	0	0	0	0	0	0	0	0	0	0	0	0	0	0	0	0	0	0	0	0	0	0	0
031819	11:29:32	11:36:11	397876	5.0.10.0	4_exp_AWA_CON_EVA_AMP	166	Rpleas_acq	Same	Rpleas	Amasked	CS_A	1pleas	distractor1	CONbeforeEVA	acq_US_pleas_masked	acq3_masked	3	32	453	0	300	300	0	0	539	50	0	1	0	0	0	1	blank2r.bmp	0	1	+	0	8	C4r.bmp	492	1	blank2r.bmp	786	1	CPLW	786	1	blank2r.bmp	866	3	gütig	866	1	!	1292	1	!	-1	0	0	0	0	0	0	0	0	0	0	0	0	0	0	0	0	0	0	0	0	0	0	0	0	0	0	0
031819	11:29:32	11:36:13	400181	5.0.10.0	4_exp_AWA_CON_EVA_AMP	166	Rpleas_acq	Same	Rpleas	Amasked	CS_A	1pleas	distractor1	CONbeforeEVA	acq_US_pleas_masked	acq3_masked	3	33	453	1	300	300	0	0	492	50	0	1	0	0	0	1	blank2r.bmp	0	1	+	0	5	C1r.bmp	492	1	blank2r.bmp	786	1	CPLW	786	1	blank2r.bmp	866	4	engagiert	866	1	!	1292	1	!	1399	0	0	0	0	0	0	0	0	0	0	0	0	0	0	0	0	0	0	0	0	0	0	0	0	0	0	0
031819	11:29:32	11:36:15	402514	5.0.10.0	4_exp_AWA_CON_EVA_AMP	166	Rpleas_acq	Same	Rpleas	Amasked	CS_A	1pleas	distractor1	CONbeforeEVA	acq_US_unple_masked	acq3_masked	3	34	453	0	300	300	0	0	560	46	0	1	0	0	0	1	blank2r.bmp	0	1	+	0	1	B1r.bmp	492	1	blank2r.bmp	786	1	DHJF	786	1	blank2r.bmp	866	6	versagen	866	1	!	1292	1	!	-1	0	0	0	0	0	0	0	0	0	0	0	0	0	0	0	0	0	0	0	0	0	0	0	0	0	0	0
031819	11:29:32	11:36:17	404740	5.0.10.0	4_exp_AWA_CON_EVA_AMP	166	Rpleas_acq	Same	Rpleas	Amasked	CS_A	1pleas	distractor1	CONbeforeEVA	acq_US_unple_masked	acq3_masked	3	35	453	1	300	300	0	0	424	46	0	1	0	0	0	1	blank2r.bmp	0	1	+	0	6	C2r.bmp	492	1	blank2r.bmp	786	1	DHJF	786	1	blank2r.bmp	866	2	bange	866	1	!	1292	1	!	1319	0	0	0	0	0	0	0	0	0	0	0	0	0	0	0	0	0	0	0	0	0	0	0	0	0	0	0
031819	11:29:32	11:36:20	407005	5.0.10.0	4_exp_AWA_CON_EVA_AMP	166	Rpleas_acq	Same	Rpleas	Amasked	CS_A	1pleas	distractor1	CONbeforeEVA	acq_US_pleas_masked	acq3_masked	3	36	453	1	300	300	0	0	473	50	0	1	0	0	0	1	blank2r.bmp	0	1	+	0	8	C4r.bmp	492	1	blank2r.bmp	786	1	CPLW	786	1	blank2r.bmp	866	2	besonnen	866	1	!	1292	1	!	1372	0	0	0	0	0	0	0	0	0	0	0	0	0	0	0	0	0	0	0	0	0	0	0	0	0	0	0
031819	11:29:32	11:36:33	420427	5.0.10.0	4_exp_AWA_CON_EVA_AMP	166	Rpleas_acq	Same	Rpleas	Amasked	CS_A	1pleas	distractor1	CONbeforeEVA	acq_US_unple_masked	acq45_masked	4	1	400	0	300	300	0	0	596	46	0	1	0	0	0	1	blank2r.bmp	0	1	+	0	2	B2r.bmp	492	1	blank2r.bmp	786	1	DHJF	786	1	blank2r.bmp	866	4	engstirnig	866	1	!	1239	1	!	-1	0	0	0	0	0	0	0	0	0	0	0	0	0	0	0	0	0	0	0	0	0	0	0	0	0	0	0
031819	11:29:32	11:36:35	422626	5.0.10.0	4_exp_AWA_CON_EVA_AMP	166	Rpleas_acq	Same	Rpleas	Amasked	CS_A	1pleas	distractor1	CONbeforeEVA	acq_US_unple_masked	acq45_masked	4	2	400	1	300	300	0	0	389	46	0	1	0	0	0	1	blank2r.bmp	0	1	+	0	4	B4r.bmp	492	1	blank2r.bmp	786	1	DHJF	786	1	blank2r.bmp	866	3	gierig	866	1	!	1239	1	!	1292	0	0	0	0	0	0	0	0	0	0	0	0	0	0	0	0	0	0	0	0	0	0	0	0	0	0	0
031819	11:29:32	11:36:38	424825	5.0.10.0	4_exp_AWA_CON_EVA_AMP	166	Rpleas_acq	Same	Rpleas	Amasked	CS_A	1pleas	distractor1	CONbeforeEVA	acq_US_pleas_masked	acq45_masked	4	3	400	1	300	300	0	0	398	50	0	1	0	0	0	1	blank2r.bmp	0	1	+	0	3	B3r.bmp	492	1	blank2r.bmp	786	1	CPLW	786	1	blank2r.bmp	866	1	kuss	866	1	!	1239	1	!	1292	0	0	0	0	0	0	0	0	0	0	0	0	0	0	0	0	0	0	0	0	0	0	0	0	0	0	0
031819	11:29:32	11:36:40	427024	5.0.10.0	4_exp_AWA_CON_EVA_AMP	166	Rpleas_acq	Same	Rpleas	Amasked	CS_A	1pleas	distractor1	CONbeforeEVA	acq_US_unple_masked	acq45_masked	4	4	400	1	300	300	0	0	397	46	0	1	0	0	0	1	blank2r.bmp	0	1	+	0	7	C3r.bmp	492	1	blank2r.bmp	786	1	DHJF	786	1	blank2r.bmp	866	2	bange	866	1	!	1239	1	!	1292	0	0	0	0	0	0	0	0	0	0	0	0	0	0	0	0	0	0	0	0	0	0	0	0	0	0	0
031819	11:29:32	11:36:42	429276	5.0.10.0	4_exp_AWA_CON_EVA_AMP	166	Rpleas_acq	Same	Rpleas	Amasked	CS_A	1pleas	distractor1	CONbeforeEVA	acq_US_unple_masked	acq45_masked	4	5	400	1	300	300	0	0	439	50	0	0	0	0	0	1	blank2r.bmp	0	1	+	0	7	C3r.bmp	492	1	blank2r.bmp	786	1	DHJF	786	1	blank2r.bmp	866	6	versagen	866	1	!	1239	1	!	1346	0	0	0	0	0	0	0	0	0	0	0	0	0	0	0	0	0	0	0	0	0	0	0	0	0	0	0
031819	11:29:32	11:36:44	431529	5.0.10.0	4_exp_AWA_CON_EVA_AMP	166	Rpleas_acq	Same	Rpleas	Amasked	CS_A	1pleas	distractor1	CONbeforeEVA	acq_US_pleas_masked	acq45_masked	4	6	400	0	300	300	0	0	479	50	0	1	0	0	0	1	blank2r.bmp	0	1	+	0	8	C4r.bmp	492	1	blank2r.bmp	786	1	CPLW	786	1	blank2r.bmp	866	6	vertrauen	866	1	!	1239	1	!	-1	0	0	0	0	0	0	0	0	0	0	0	0	0	0	0	0	0	0	0	0	0	0	0	0	0	0	0
031819	11:29:32	11:36:46	433741	5.0.10.0	4_exp_AWA_CON_EVA_AMP	166	Rpleas_acq	Same	Rpleas	Amasked	CS_A	1pleas	distractor1	CONbeforeEVA	acq_US_pleas_masked	acq45_masked	4	7	400	1	300	300	0	0	409	46	0	0	0	0	0	1	blank2r.bmp	0	1	+	0	4	B4r.bmp	492	1	blank2r.bmp	786	1	CPLW	786	1	blank2r.bmp	866	3	gütig	866	1	!	1239	1	!	1306	0	0	0	0	0	0	0	0	0	0	0	0	0	0	0	0	0	0	0	0	0	0	0	0	0	0	0
031819	11:29:32	11:36:49	435967	5.0.10.0	4_exp_AWA_CON_EVA_AMP	166	Rpleas_acq	Same	Rpleas	Amasked	CS_A	1pleas	distractor1	CONbeforeEVA	acq_US_unple_masked	acq45_masked	4	8	400	1	300	300	0	0	432	46	0	1	0	0	0	1	blank2r.bmp	0	1	+	0	5	C1r.bmp	492	1	blank2r.bmp	786	1	DHJF	786	1	blank2r.bmp	866	1	krise	866	1	!	1239	1	!	1332	0	0	0	0	0	0	0	0	0	0	0	0	0	0	0	0	0	0	0	0	0	0	0	0	0	0	0
031819	11:29:32	11:36:51	438233	5.0.10.0	4_exp_AWA_CON_EVA_AMP	166	Rpleas_acq	Same	Rpleas	Amasked	CS_A	1pleas	distractor1	CONbeforeEVA	acq_US_unple_masked	acq45_masked	4	9	400	0	300	300	0	0	499	46	0	1	0	0	0	1	blank2r.bmp	0	1	+	0	3	B3r.bmp	492	1	blank2r.bmp	786	1	DHJF	786	1	blank2r.bmp	866	5	verbissen	866	1	!	1239	1	!	-1	0	0	0	0	0	0	0	0	0	0	0	0	0	0	0	0	0	0	0	0	0	0	0	0	0	0	0
031819	11:29:32	11:36:53	440498	5.0.10.0	4_exp_AWA_CON_EVA_AMP	166	Rpleas_acq	Same	Rpleas	Amasked	CS_A	1pleas	distractor1	CONbeforeEVA	acq_US_pleas_masked	acq45_masked	4	10	400	1	300	300	0	0	457	50	0	1	0	0	0	1	blank2r.bmp	0	1	+	0	1	B1r.bmp	492	1	blank2r.bmp	786	1	CPLW	786	1	blank2r.bmp	866	4	engagiert	866	1	!	1239	1	!	1359	0	0	0	0	0	0	0	0	0	0	0	0	0	0	0	0	0	0	0	0	0	0	0	0	0	0	0
031819	11:29:32	11:36:55	442751	5.0.10.0	4_exp_AWA_CON_EVA_AMP	166	Rpleas_acq	Same	Rpleas	Amasked	CS_A	1pleas	distractor1	CONbeforeEVA	acq_US_unple_masked	acq45_masked	4	11	400	0	300	300	0	0	482	46	0	1	0	0	0	1	blank2r.bmp	0	1	+	0	2	B2r.bmp	492	1	blank2r.bmp	786	1	DHJF	786	1	blank2r.bmp	866	2	bange	866	1	!	1239	1	!	-1	0	0	0	0	0	0	0	0	0	0	0	0	0	0	0	0	0	0	0	0	0	0	0	0	0	0	0
031819	11:29:32	11:36:58	445003	5.0.10.0	4_exp_AWA_CON_EVA_AMP	166	Rpleas_acq	Same	Rpleas	Amasked	CS_A	1pleas	distractor1	CONbeforeEVA	acq_US_pleas_masked	acq45_masked	4	12	400	1	300	300	0	0	431	50	0	1	0	0	0	1	blank2r.bmp	0	1	+	0	6	C2r.bmp	492	1	blank2r.bmp	786	1	CPLW	786	1	blank2r.bmp	866	5	vergnügt	866	1	!	1239	1	!	1332	0	0	0	0	0	0	0	0	0	0	0	0	0	0	0	0	0	0	0	0	0	0	0	0	0	0	0
031819	11:29:32	11:37:00	447096	5.0.10.0	4_exp_AWA_CON_EVA_AMP	166	Rpleas_acq	Same	Rpleas	Amasked	CS_A	1pleas	distractor1	CONbeforeEVA	acq_US_pleas_masked	acq45_masked	4	13	400	0	300	300	0	0	329	46	0	0	0	0	0	1	blank2r.bmp	0	1	+	0	3	B3r.bmp	492	1	blank2r.bmp	786	1	CPLW	786	1	blank2r.bmp	866	2	besonnen	866	1	!	-1	1	!	-1	0	0	0	0	0	0	0	0	0	0	0	0	0	0	0	0	0	0	0	0	0	0	0	0	0	0	0
031819	11:29:32	11:37:02	449295	5.0.10.0	4_exp_AWA_CON_EVA_AMP	166	Rpleas_acq	Same	Rpleas	Amasked	CS_A	1pleas	distractor1	CONbeforeEVA	acq_US_unple_masked	acq45_masked	4	14	400	1	300	300	0	0	392	46	0	1	0	0	0	1	blank2r.bmp	0	1	+	0	4	B4r.bmp	492	1	blank2r.bmp	786	1	DHJF	786	1	blank2r.bmp	866	3	gierig	866	1	!	1239	1	!	1292	0	0	0	0	0	0	0	0	0	0	0	0	0	0	0	0	0	0	0	0	0	0	0	0	0	0	0
031819	11:29:32	11:37:04	451494	5.0.10.0	4_exp_AWA_CON_EVA_AMP	166	Rpleas_acq	Same	Rpleas	Amasked	CS_A	1pleas	distractor1	CONbeforeEVA	acq_US_pleas_masked	acq45_masked	4	15	400	1	300	300	0	0	406	50	0	1	0	0	0	1	blank2r.bmp	0	1	+	0	1	B1r.bmp	492	1	blank2r.bmp	786	1	CPLW	786	1	blank2r.bmp	866	4	engagiert	866	1	!	1239	1	!	1306	0	0	0	0	0	0	0	0	0	0	0	0	0	0	0	0	0	0	0	0	0	0	0	0	0	0	0
031819	11:29:32	11:37:06	453680	5.0.10.0	4_exp_AWA_CON_EVA_AMP	166	Rpleas_acq	Same	Rpleas	Amasked	CS_A	1pleas	distractor1	CONbeforeEVA	acq_US_pleas_masked	acq45_masked	4	16	400	1	300	300	0	0	394	50	0	1	0	0	0	1	blank2r.bmp	0	1	+	0	6	C2r.bmp	492	1	blank2r.bmp	786	1	CPLW	786	1	blank2r.bmp	866	2	besonnen	866	1	!	1239	1	!	1292	0	0	0	0	0	0	0	0	0	0	0	0	0	0	0	0	0	0	0	0	0	0	0	0	0	0	0
031819	11:29:32	11:37:08	455745	5.0.10.0	4_exp_AWA_CON_EVA_AMP	166	Rpleas_acq	Same	Rpleas	Amasked	CS_A	1pleas	distractor1	CONbeforeEVA	acq_US_unple_masked	acq45_masked	4	17	400	0	300	300	0	0	296	50	0	0	0	0	0	1	blank2r.bmp	0	1	+	0	5	C1r.bmp	492	1	blank2r.bmp	786	1	DHJF	786	1	blank2r.bmp	866	4	engstirnig	866	1	!	-1	1	!	-1	0	0	0	0	0	0	0	0	0	0	0	0	0	0	0	0	0	0	0	0	0	0	0	0	0	0	0
031819	11:29:32	11:37:11	458211	5.0.10.0	4_exp_AWA_CON_EVA_AMP	166	Rpleas_acq	Same	Rpleas	Amasked	CS_A	1pleas	distractor1	CONbeforeEVA	acq_US_pleas_masked	acq45_masked	4	18	400	0	300	300	0	0	671	50	0	1	0	0	0	1	blank2r.bmp	0	1	+	0	7	C3r.bmp	492	1	blank2r.bmp	786	1	CPLW	786	1	blank2r.bmp	866	6	vertrauen	866	1	!	1239	1	!	-1	0	0	0	0	0	0	0	0	0	0	0	0	0	0	0	0	0	0	0	0	0	0	0	0	0	0	0
031819	11:29:32	11:37:13	460490	5.0.10.0	4_exp_AWA_CON_EVA_AMP	166	Rpleas_acq	Same	Rpleas	Amasked	CS_A	1pleas	distractor1	CONbeforeEVA	acq_US_unple_masked	acq45_masked	4	19	400	1	300	300	0	0	458	46	0	1	0	0	0	1	blank2r.bmp	0	1	+	0	8	C4r.bmp	492	1	blank2r.bmp	786	1	DHJF	786	1	blank2r.bmp	866	1	krise	866	1	!	1239	1	!	1359	0	0	0	0	0	0	0	0	0	0	0	0	0	0	0	0	0	0	0	0	0	0	0	0	0	0	0
031819	11:29:32	11:37:15	462649	5.0.10.0	4_exp_AWA_CON_EVA_AMP	166	Rpleas_acq	Same	Rpleas	Amasked	CS_A	1pleas	distractor1	CONbeforeEVA	acq_US_unple_masked	acq45_masked	4	20	400	1	300	300	0	0	372	46	0	1	0	0	0	1	blank2r.bmp	0	1	+	0	2	B2r.bmp	492	1	blank2r.bmp	786	1	DHJF	786	1	blank2r.bmp	866	5	verbissen	866	1	!	1239	1	!	1266	0	0	0	0	0	0	0	0	0	0	0	0	0	0	0	0	0	0	0	0	0	0	0	0	0	0	0
031819	11:29:32	11:37:18	464862	5.0.10.0	4_exp_AWA_CON_EVA_AMP	166	Rpleas_acq	Same	Rpleas	Amasked	CS_A	1pleas	distractor1	CONbeforeEVA	acq_US_pleas_masked	acq45_masked	4	21	400	1	300	300	0	0	417	50	0	1	0	0	0	1	blank2r.bmp	0	1	+	0	4	B4r.bmp	492	1	blank2r.bmp	786	1	CPLW	786	1	blank2r.bmp	866	5	vergnügt	866	1	!	1239	1	!	1319	0	0	0	0	0	0	0	0	0	0	0	0	0	0	0	0	0	0	0	0	0	0	0	0	0	0	0
031819	11:29:32	11:37:20	467021	5.0.10.0	4_exp_AWA_CON_EVA_AMP	166	Rpleas_acq	Same	Rpleas	Amasked	CS_A	1pleas	distractor1	CONbeforeEVA	acq_US_pleas_masked	acq45_masked	4	22	400	1	300	300	0	0	372	50	0	1	0	0	0	1	blank2r.bmp	0	1	+	0	8	C4r.bmp	492	1	blank2r.bmp	786	1	CPLW	786	1	blank2r.bmp	866	3	gütig	866	1	!	1239	1	!	1266	0	0	0	0	0	0	0	0	0	0	0	0	0	0	0	0	0	0	0	0	0	0	0	0	0	0	0
031819	11:29:32	11:37:22	469166	5.0.10.0	4_exp_AWA_CON_EVA_AMP	166	Rpleas_acq	Same	Rpleas	Amasked	CS_A	1pleas	distractor1	CONbeforeEVA	acq_US_pleas_masked	acq45_masked	4	23	400	1	300	300	0	0	353	50	0	1	0	0	0	1	blank2r.bmp	0	1	+	0	1	B1r.bmp	492	1	blank2r.bmp	786	1	CPLW	786	1	blank2r.bmp	866	1	kuss	866	1	!	1239	1	!	1252	0	0	0	0	0	0	0	0	0	0	0	0	0	0	0	0	0	0	0	0	0	0	0	0	0	0	0
031819	11:29:32	11:37:24	471192	5.0.10.0	4_exp_AWA_CON_EVA_AMP	166	Rpleas_acq	Same	Rpleas	Amasked	CS_A	1pleas	distractor1	CONbeforeEVA	acq_US_pleas_masked	acq45_masked	4	24	400	0	300	300	0	0	262	46	0	0	0	0	0	1	blank2r.bmp	0	1	+	0	6	C2r.bmp	492	1	blank2r.bmp	786	1	CPLW	786	1	blank2r.bmp	866	2	besonnen	866	1	!	-1	1	!	-1	0	0	0	0	0	0	0	0	0	0	0	0	0	0	0	0	0	0	0	0	0	0	0	0	0	0	0
031819	11:29:32	11:37:26	473431	5.0.10.0	4_exp_AWA_CON_EVA_AMP	166	Rpleas_acq	Same	Rpleas	Amasked	CS_A	1pleas	distractor1	CONbeforeEVA	acq_US_unple_masked	acq45_masked	4	25	400	1	300	300	0	0	432	50	0	0	0	0	0	1	blank2r.bmp	0	1	+	0	5	C1r.bmp	492	1	blank2r.bmp	786	1	DHJF	786	1	blank2r.bmp	866	6	versagen	866	1	!	1239	1	!	1332	0	0	0	0	0	0	0	0	0	0	0	0	0	0	0	0	0	0	0	0	0	0	0	0	0	0	0
031819	11:29:32	11:37:28	475777	5.0.10.0	4_exp_AWA_CON_EVA_AMP	166	Rpleas_acq	Same	Rpleas	Amasked	CS_A	1pleas	distractor1	CONbeforeEVA	acq_US_unple_masked	acq45_masked	4	26	400	0	300	300	0	0	582	46	0	1	0	0	0	1	blank2r.bmp	0	1	+	0	3	B3r.bmp	492	1	blank2r.bmp	786	1	DHJF	786	1	blank2r.bmp	866	3	gierig	866	1	!	1239	1	!	-1	0	0	0	0	0	0	0	0	0	0	0	0	0	0	0	0	0	0	0	0	0	0	0	0	0	0	0
031819	11:29:32	11:37:31	478003	5.0.10.0	4_exp_AWA_CON_EVA_AMP	166	Rpleas_acq	Same	Rpleas	Amasked	CS_A	1pleas	distractor1	CONbeforeEVA	acq_US_pleas_masked	acq45_masked	4	27	400	1	300	300	0	0	410	50	0	1	0	0	0	1	blank2r.bmp	0	1	+	0	2	B2r.bmp	492	1	blank2r.bmp	786	1	CPLW	786	1	blank2r.bmp	866	5	vergnügt	866	1	!	1239	1	!	1306	0	0	0	0	0	0	0	0	0	0	0	0	0	0	0	0	0	0	0	0	0	0	0	0	0	0	0
031819	11:29:32	11:37:33	480229	5.0.10.0	4_exp_AWA_CON_EVA_AMP	166	Rpleas_acq	Same	Rpleas	Amasked	CS_A	1pleas	distractor1	CONbeforeEVA	acq_US_unple_masked	acq45_masked	4	28	400	1	300	300	0	0	429	46	0	1	0	0	0	1	blank2r.bmp	0	1	+	0	7	C3r.bmp	492	1	blank2r.bmp	786	1	DHJF	786	1	blank2r.bmp	866	1	krise	866	1	!	1239	1	!	1332	0	0	0	0	0	0	0	0	0	0	0	0	0	0	0	0	0	0	0	0	0	0	0	0	0	0	0
031819	11:29:32	11:37:35	482468	5.0.10.0	4_exp_AWA_CON_EVA_AMP	166	Rpleas_acq	Same	Rpleas	Amasked	CS_A	1pleas	distractor1	CONbeforeEVA	acq_US_pleas_masked	acq45_masked	4	29	400	1	300	300	0	0	439	50	0	1	0	0	0	1	blank2r.bmp	0	1	+	0	5	C1r.bmp	492	1	blank2r.bmp	786	1	CPLW	786	1	blank2r.bmp	866	1	kuss	866	1	!	1239	1	!	1346	0	0	0	0	0	0	0	0	0	0	0	0	0	0	0	0	0	0	0	0	0	0	0	0	0	0	0
031819	11:29:32	11:37:37	484707	5.0.10.0	4_exp_AWA_CON_EVA_AMP	166	Rpleas_acq	Same	Rpleas	Amasked	CS_A	1pleas	distractor1	CONbeforeEVA	acq_US_pleas_masked	acq45_masked	4	30	400	1	300	300	0	0	444	50	0	1	0	0	0	1	blank2r.bmp	0	1	+	0	3	B3r.bmp	492	1	blank2r.bmp	786	1	CPLW	786	1	blank2r.bmp	866	4	engagiert	866	1	!	1239	1	!	1346	0	0	0	0	0	0	0	0	0	0	0	0	0	0	0	0	0	0	0	0	0	0	0	0	0	0	0
031819	11:29:32	11:37:40	486933	5.0.10.0	4_exp_AWA_CON_EVA_AMP	166	Rpleas_acq	Same	Rpleas	Amasked	CS_A	1pleas	distractor1	CONbeforeEVA	acq_US_unple_masked	acq45_masked	4	31	400	1	300	300	0	0	432	46	0	1	0	0	0	1	blank2r.bmp	0	1	+	0	1	B1r.bmp	492	1	blank2r.bmp	786	1	DHJF	786	1	blank2r.bmp	866	4	engstirnig	866	1	!	1239	1	!	1332	0	0	0	0	0	0	0	0	0	0	0	0	0	0	0	0	0	0	0	0	0	0	0	0	0	0	0
031819	11:29:32	11:37:42	489145	5.0.10.0	4_exp_AWA_CON_EVA_AMP	166	Rpleas_acq	Same	Rpleas	Amasked	CS_A	1pleas	distractor1	CONbeforeEVA	acq_US_pleas_masked	acq45_masked	4	32	400	1	300	300	0	0	418	50	0	1	0	0	0	1	blank2r.bmp	0	1	+	0	7	C3r.bmp	492	1	blank2r.bmp	786	1	CPLW	786	1	blank2r.bmp	866	6	vertrauen	866	1	!	1239	1	!	1319	0	0	0	0	0	0	0	0	0	0	0	0	0	0	0	0	0	0	0	0	0	0	0	0	0	0	0
031819	11:29:32	11:37:44	491331	5.0.10.0	4_exp_AWA_CON_EVA_AMP	166	Rpleas_acq	Same	Rpleas	Amasked	CS_A	1pleas	distractor1	CONbeforeEVA	acq_US_unple_masked	acq45_masked	4	33	400	1	300	300	0	0	398	46	0	1	0	0	0	1	blank2r.bmp	0	1	+	0	8	C4r.bmp	492	1	blank2r.bmp	786	1	DHJF	786	1	blank2r.bmp	866	2	bange	866	1	!	1239	1	!	1292	0	0	0	0	0	0	0	0	0	0	0	0	0	0	0	0	0	0	0	0	0	0	0	0	0	0	0
031819	11:29:32	11:37:46	493596	5.0.10.0	4_exp_AWA_CON_EVA_AMP	166	Rpleas_acq	Same	Rpleas	Amasked	CS_A	1pleas	distractor1	CONbeforeEVA	acq_US_unple_masked	acq45_masked	4	34	400	0	300	300	0	0	492	46	0	1	0	0	0	1	blank2r.bmp	0	1	+	0	6	C2r.bmp	492	1	blank2r.bmp	786	1	DHJF	786	1	blank2r.bmp	866	6	versagen	866	1	!	1239	1	!	-1	0	0	0	0	0	0	0	0	0	0	0	0	0	0	0	0	0	0	0	0	0	0	0	0	0	0	0
031819	11:29:32	11:37:48	495702	5.0.10.0	4_exp_AWA_CON_EVA_AMP	166	Rpleas_acq	Same	Rpleas	Amasked	CS_A	1pleas	distractor1	CONbeforeEVA	acq_US_pleas_masked	acq45_masked	4	35	400	0	300	300	0	0	331	50	0	1	0	0	0	1	blank2r.bmp	0	1	+	0	4	B4r.bmp	492	1	blank2r.bmp	786	1	CPLW	786	1	blank2r.bmp	866	3	gütig	866	1	!	-1	1	!	-1	0	0	0	0	0	0	0	0	0	0	0	0	0	0	0	0	0	0	0	0	0	0	0	0	0	0	0
031819	11:29:32	11:37:51	497928	5.0.10.0	4_exp_AWA_CON_EVA_AMP	166	Rpleas_acq	Same	Rpleas	Amasked	CS_A	1pleas	distractor1	CONbeforeEVA	acq_US_unple_masked	acq45_masked	4	36	400	1	300	300	0	0	417	46	0	1	0	0	0	1	blank2r.bmp	0	1	+	0	2	B2r.bmp	492	1	blank2r.bmp	786	1	DHJF	786	1	blank2r.bmp	866	5	verbissen	866	1	!	1239	1	!	1319	0	0	0	0	0	0	0	0	0	0	0	0	0	0	0	0	0	0	0	0	0	0	0	0	0	0	0
031819	11:29:32	11:38:00	507577	5.0.10.0	4_exp_AWA_CON_EVA_AMP	166	Rpleas_acq	Same	Rpleas	Amasked	CS_A	1pleas	distractor1	CONbeforeEVA	acq_US_unple_masked	acq45_masked	5	1	400	1	300	300	0	0	369	46	0	1	0	0	0	1	blank2r.bmp	0	1	+	0	8	C4r.bmp	492	1	blank2r.bmp	786	1	DHJF	786	1	blank2r.bmp	866	1	krise	866	1	!	1239	1	!	1266	0	0	0	0	0	0	0	0	0	0	0	0	0	0	0	0	0	0	0	0	0	0	0	0	0	0	0
031819	11:29:32	11:38:02	509723	5.0.10.0	4_exp_AWA_CON_EVA_AMP	166	Rpleas_acq	Same	Rpleas	Amasked	CS_A	1pleas	distractor1	CONbeforeEVA	acq_US_unple_masked	acq45_masked	5	2	400	1	300	300	0	0	346	46	0	1	0	0	0	1	blank2r.bmp	0	1	+	0	4	B4r.bmp	492	1	blank2r.bmp	786	1	DHJF	786	1	blank2r.bmp	866	5	verbissen	866	1	!	1239	1	!	1252	0	0	0	0	0	0	0	0	0	0	0	0	0	0	0	0	0	0	0	0	0	0	0	0	0	0	0
031819	11:29:32	11:38:05	511896	5.0.10.0	4_exp_AWA_CON_EVA_AMP	166	Rpleas_acq	Same	Rpleas	Amasked	CS_A	1pleas	distractor1	CONbeforeEVA	acq_US_pleas_masked	acq45_masked	5	3	400	1	300	300	0	0	381	50	0	1	0	0	0	1	blank2r.bmp	0	1	+	0	6	C2r.bmp	492	1	blank2r.bmp	786	1	CPLW	786	1	blank2r.bmp	866	2	besonnen	866	1	!	1239	1	!	1279	0	0	0	0	0	0	0	0	0	0	0	0	0	0	0	0	0	0	0	0	0	0	0	0	0	0	0
031819	11:29:32	11:38:07	514055	5.0.10.0	4_exp_AWA_CON_EVA_AMP	166	Rpleas_acq	Same	Rpleas	Amasked	CS_A	1pleas	distractor1	CONbeforeEVA	acq_US_unple_masked	acq45_masked	5	4	400	1	300	300	0	0	365	46	0	1	0	0	0	1	blank2r.bmp	0	1	+	0	2	B2r.bmp	492	1	blank2r.bmp	786	1	DHJF	786	1	blank2r.bmp	866	2	bange	866	1	!	1239	1	!	1266	0	0	0	0	0	0	0	0	0	0	0	0	0	0	0	0	0	0	0	0	0	0	0	0	0	0	0
031819	11:29:32	11:38:09	516227	5.0.10.0	4_exp_AWA_CON_EVA_AMP	166	Rpleas_acq	Same	Rpleas	Amasked	CS_A	1pleas	distractor1	CONbeforeEVA	acq_US_unple_masked	acq45_masked	5	5	400	1	300	300	0	0	373	46	0	1	0	0	0	1	blank2r.bmp	0	1	+	0	1	B1r.bmp	492	1	blank2r.bmp	786	1	DHJF	786	1	blank2r.bmp	866	4	engstirnig	866	1	!	1239	1	!	1279	0	0	0	0	0	0	0	0	0	0	0	0	0	0	0	0	0	0	0	0	0	0	0	0	0	0	0
031819	11:29:32	11:38:11	518320	5.0.10.0	4_exp_AWA_CON_EVA_AMP	166	Rpleas_acq	Same	Rpleas	Amasked	CS_A	1pleas	distractor1	CONbeforeEVA	acq_US_pleas_masked	acq45_masked	5	6	400	0	300	300	0	0	323	50	0	1	0	0	0	1	blank2r.bmp	0	1	+	0	3	B3r.bmp	492	1	blank2r.bmp	786	1	CPLW	786	1	blank2r.bmp	866	5	vergnügt	866	1	!	-1	1	!	-1	0	0	0	0	0	0	0	0	0	0	0	0	0	0	0	0	0	0	0	0	0	0	0	0	0	0	0
031819	11:29:32	11:38:13	520545	5.0.10.0	4_exp_AWA_CON_EVA_AMP	166	Rpleas_acq	Same	Rpleas	Amasked	CS_A	1pleas	distractor1	CONbeforeEVA	acq_US_unple_masked	acq45_masked	5	7	400	1	300	300	0	0	413	46	0	1	0	0	0	1	blank2r.bmp	0	1	+	0	5	C1r.bmp	492	1	blank2r.bmp	786	1	DHJF	786	1	blank2r.bmp	866	6	versagen	866	1	!	1239	1	!	1319	0	0	0	0	0	0	0	0	0	0	0	0	0	0	0	0	0	0	0	0	0	0	0	0	0	0	0
031819	11:29:32	11:38:15	522651	5.0.10.0	4_exp_AWA_CON_EVA_AMP	166	Rpleas_acq	Same	Rpleas	Amasked	CS_A	1pleas	distractor1	CONbeforeEVA	acq_US_pleas_masked	acq45_masked	5	8	400	0	300	300	0	0	319	50	0	1	0	0	0	1	blank2r.bmp	0	1	+	0	7	C3r.bmp	492	1	blank2r.bmp	786	1	CPLW	786	1	blank2r.bmp	866	1	kuss	866	1	!	-1	1	!	-1	0	0	0	0	0	0	0	0	0	0	0	0	0	0	0	0	0	0	0	0	0	0	0	0	0	0	0
031819	11:29:32	11:38:18	525064	5.0.10.0	4_exp_AWA_CON_EVA_AMP	166	Rpleas_acq	Same	Rpleas	Amasked	CS_A	1pleas	distractor1	CONbeforeEVA	acq_US_pleas_masked	acq45_masked	5	9	400	0	300	300	0	0	626	50	0	1	0	0	0	1	blank2r.bmp	0	1	+	0	5	C1r.bmp	492	1	blank2r.bmp	786	1	CPLW	786	1	blank2r.bmp	866	4	engagiert	866	1	!	1239	1	!	-1	0	0	0	0	0	0	0	0	0	0	0	0	0	0	0	0	0	0	0	0	0	0	0	0	0	0	0
031819	11:29:32	11:38:20	527129	5.0.10.0	4_exp_AWA_CON_EVA_AMP	166	Rpleas_acq	Same	Rpleas	Amasked	CS_A	1pleas	distractor1	CONbeforeEVA	acq_US_pleas_masked	acq45_masked	5	10	400	0	300	300	0	0	288	46	0	0	0	0	0	1	blank2r.bmp	0	1	+	0	2	B2r.bmp	492	1	blank2r.bmp	786	1	CPLW	786	1	blank2r.bmp	866	6	vertrauen	866	1	!	-1	1	!	-1	0	0	0	0	0	0	0	0	0	0	0	0	0	0	0	0	0	0	0	0	0	0	0	0	0	0	0
031819	11:29:32	11:38:22	529368	5.0.10.0	4_exp_AWA_CON_EVA_AMP	166	Rpleas_acq	Same	Rpleas	Amasked	CS_A	1pleas	distractor1	CONbeforeEVA	acq_US_unple_masked	acq45_masked	5	11	400	1	300	300	0	0	431	46	0	1	0	0	0	1	blank2r.bmp	0	1	+	0	6	C2r.bmp	492	1	blank2r.bmp	786	1	DHJF	786	1	blank2r.bmp	866	3	gierig	866	1	!	1239	1	!	1332	0	0	0	0	0	0	0	0	0	0	0	0	0	0	0	0	0	0	0	0	0	0	0	0	0	0	0
031819	11:29:32	11:38:24	531594	5.0.10.0	4_exp_AWA_CON_EVA_AMP	166	Rpleas_acq	Same	Rpleas	Amasked	CS_A	1pleas	distractor1	CONbeforeEVA	acq_US_pleas_masked	acq45_masked	5	12	400	1	300	300	0	0	430	50	0	1	0	0	0	1	blank2r.bmp	0	1	+	0	3	B3r.bmp	492	1	blank2r.bmp	786	1	CPLW	786	1	blank2r.bmp	866	3	gütig	866	1	!	1239	1	!	1332	0	0	0	0	0	0	0	0	0	0	0	0	0	0	0	0	0	0	0	0	0	0	0	0	0	0	0
031819	11:29:32	11:38:27	533847	5.0.10.0	4_exp_AWA_CON_EVA_AMP	166	Rpleas_acq	Same	Rpleas	Amasked	CS_A	1pleas	distractor1	CONbeforeEVA	acq_US_pleas_masked	acq45_masked	5	13	400	1	300	300	0	0	455	50	0	1	0	0	0	1	blank2r.bmp	0	1	+	0	1	B1r.bmp	492	1	blank2r.bmp	786	1	CPLW	786	1	blank2r.bmp	866	4	engagiert	866	1	!	1239	1	!	1359	0	0	0	0	0	0	0	0	0	0	0	0	0	0	0	0	0	0	0	0	0	0	0	0	0	0	0
031819	11:29:32	11:38:29	536072	5.0.10.0	4_exp_AWA_CON_EVA_AMP	166	Rpleas_acq	Same	Rpleas	Amasked	CS_A	1pleas	distractor1	CONbeforeEVA	acq_US_pleas_masked	acq45_masked	5	14	400	1	300	300	0	0	425	50	0	1	0	0	0	1	blank2r.bmp	0	1	+	0	4	B4r.bmp	492	1	blank2r.bmp	786	1	CPLW	786	1	blank2r.bmp	866	3	gütig	866	1	!	1239	1	!	1332	0	0	0	0	0	0	0	0	0	0	0	0	0	0	0	0	0	0	0	0	0	0	0	0	0	0	0
031819	11:29:32	11:38:31	538258	5.0.10.0	4_exp_AWA_CON_EVA_AMP	166	Rpleas_acq	Same	Rpleas	Amasked	CS_A	1pleas	distractor1	CONbeforeEVA	acq_US_unple_masked	acq45_masked	5	15	400	1	300	300	0	0	398	46	0	1	0	0	0	1	blank2r.bmp	0	1	+	0	8	C4r.bmp	492	1	blank2r.bmp	786	1	DHJF	786	1	blank2r.bmp	866	1	krise	866	1	!	1239	1	!	1292	0	0	0	0	0	0	0	0	0	0	0	0	0	0	0	0	0	0	0	0	0	0	0	0	0	0	0
031819	11:29:32	11:38:33	540510	5.0.10.0	4_exp_AWA_CON_EVA_AMP	166	Rpleas_acq	Same	Rpleas	Amasked	CS_A	1pleas	distractor1	CONbeforeEVA	acq_US_unple_masked	acq45_masked	5	16	400	0	300	300	0	0	484	46	0	1	0	0	0	1	blank2r.bmp	0	1	+	0	7	C3r.bmp	492	1	blank2r.bmp	786	1	DHJF	786	1	blank2r.bmp	866	5	verbissen	866	1	!	1239	1	!	-1	0	0	0	0	0	0	0	0	0	0	0	0	0	0	0	0	0	0	0	0	0	0	0	0	0	0	0
031819	11:29:32	11:38:35	542683	5.0.10.0	4_exp_AWA_CON_EVA_AMP	166	Rpleas_acq	Same	Rpleas	Amasked	CS_A	1pleas	distractor1	CONbeforeEVA	acq_US_pleas_masked	acq45_masked	5	17	400	1	300	300	0	0	369	50	0	1	0	0	0	1	blank2r.bmp	0	1	+	0	6	C2r.bmp	492	1	blank2r.bmp	786	1	CPLW	786	1	blank2r.bmp	866	2	besonnen	866	1	!	1239	1	!	1266	0	0	0	0	0	0	0	0	0	0	0	0	0	0	0	0	0	0	0	0	0	0	0	0	0	0	0
031819	11:29:32	11:38:38	544909	5.0.10.0	4_exp_AWA_CON_EVA_AMP	166	Rpleas_acq	Same	Rpleas	Amasked	CS_A	1pleas	distractor1	CONbeforeEVA	acq_US_unple_masked	acq45_masked	5	18	400	1	300	300	0	0	421	46	0	1	0	0	0	1	blank2r.bmp	0	1	+	0	3	B3r.bmp	492	1	blank2r.bmp	786	1	DHJF	786	1	blank2r.bmp	866	6	versagen	866	1	!	1239	1	!	1319	0	0	0	0	0	0	0	0	0	0	0	0	0	0	0	0	0	0	0	0	0	0	0	0	0	0	0
031819	11:29:32	11:38:40	547161	5.0.10.0	4_exp_AWA_CON_EVA_AMP	166	Rpleas_acq	Same	Rpleas	Amasked	CS_A	1pleas	distractor1	CONbeforeEVA	acq_US_unple_masked	acq45_masked	5	19	400	0	300	300	0	0	483	46	0	1	0	0	0	1	blank2r.bmp	0	1	+	0	2	B2r.bmp	492	1	blank2r.bmp	786	1	DHJF	786	1	blank2r.bmp	866	2	bange	866	1	!	1239	1	!	-1	0	0	0	0	0	0	0	0	0	0	0	0	0	0	0	0	0	0	0	0	0	0	0	0	0	0	0
031819	11:29:32	11:38:42	549467	5.0.10.0	4_exp_AWA_CON_EVA_AMP	166	Rpleas_acq	Same	Rpleas	Amasked	CS_A	1pleas	distractor1	CONbeforeEVA	acq_US_unple_masked	acq45_masked	5	20	400	0	300	300	0	0	506	46	0	1	0	0	0	1	blank2r.bmp	0	1	+	0	8	C4r.bmp	492	1	blank2r.bmp	786	1	DHJF	786	1	blank2r.bmp	866	4	engstirnig	866	1	!	1239	1	!	-1	0	0	0	0	0	0	0	0	0	0	0	0	0	0	0	0	0	0	0	0	0	0	0	0	0	0	0
031819	11:29:32	11:38:44	551559	5.0.10.0	4_exp_AWA_CON_EVA_AMP	166	Rpleas_acq	Same	Rpleas	Amasked	CS_A	1pleas	distractor1	CONbeforeEVA	acq_US_unple_masked	acq45_masked	5	21	400	0	300	300	0	0	317	50	0	0	0	0	0	1	blank2r.bmp	0	1	+	0	4	B4r.bmp	492	1	blank2r.bmp	786	1	DHJF	786	1	blank2r.bmp	866	3	gierig	866	1	!	-1	1	!	-1	0	0	0	0	0	0	0	0	0	0	0	0	0	0	0	0	0	0	0	0	0	0	0	0	0	0	0
031819	11:29:32	11:38:46	553772	5.0.10.0	4_exp_AWA_CON_EVA_AMP	166	Rpleas_acq	Same	Rpleas	Amasked	CS_A	1pleas	distractor1	CONbeforeEVA	acq_US_pleas_masked	acq45_masked	5	22	400	1	300	300	0	0	397	50	0	1	0	0	0	1	blank2r.bmp	0	1	+	0	1	B1r.bmp	492	1	blank2r.bmp	786	1	CPLW	786	1	blank2r.bmp	866	5	vergnügt	866	1	!	1239	1	!	1292	0	0	0	0	0	0	0	0	0	0	0	0	0	0	0	0	0	0	0	0	0	0	0	0	0	0	0
031819	11:29:32	11:38:49	555984	5.0.10.0	4_exp_AWA_CON_EVA_AMP	166	Rpleas_acq	Same	Rpleas	Amasked	CS_A	1pleas	distractor1	CONbeforeEVA	acq_US_unple_masked	acq45_masked	5	23	400	1	300	300	0	0	418	46	0	1	0	0	0	1	blank2r.bmp	0	1	+	0	5	C1r.bmp	492	1	blank2r.bmp	786	1	DHJF	786	1	blank2r.bmp	866	2	bange	866	1	!	1239	1	!	1319	0	0	0	0	0	0	0	0	0	0	0	0	0	0	0	0	0	0	0	0	0	0	0	0	0	0	0
031819	11:29:32	11:38:51	558063	5.0.10.0	4_exp_AWA_CON_EVA_AMP	166	Rpleas_acq	Same	Rpleas	Amasked	CS_A	1pleas	distractor1	CONbeforeEVA	acq_US_pleas_masked	acq45_masked	5	24	400	0	300	300	0	0	306	50	0	1	0	0	0	1	blank2r.bmp	0	1	+	0	7	C3r.bmp	492	1	blank2r.bmp	786	1	CPLW	786	1	blank2r.bmp	866	1	kuss	866	1	!	-1	1	!	-1	0	0	0	0	0	0	0	0	0	0	0	0	0	0	0	0	0	0	0	0	0	0	0	0	0	0	0
031819	11:29:32	11:38:53	560222	5.0.10.0	4_exp_AWA_CON_EVA_AMP	166	Rpleas_acq	Same	Rpleas	Amasked	CS_A	1pleas	distractor1	CONbeforeEVA	acq_US_unple_masked	acq45_masked	5	25	400	1	300	300	0	0	346	46	0	1	0	0	0	1	blank2r.bmp	0	1	+	0	4	B4r.bmp	492	1	blank2r.bmp	786	1	DHJF	786	1	blank2r.bmp	866	6	versagen	866	1	!	1239	1	!	1252	0	0	0	0	0	0	0	0	0	0	0	0	0	0	0	0	0	0	0	0	0	0	0	0	0	0	0
031819	11:29:32	11:38:55	562382	5.0.10.0	4_exp_AWA_CON_EVA_AMP	166	Rpleas_acq	Same	Rpleas	Amasked	CS_A	1pleas	distractor1	CONbeforeEVA	acq_US_unple_masked	acq45_masked	5	26	400	1	300	300	0	0	365	46	0	1	0	0	0	1	blank2r.bmp	0	1	+	0	8	C4r.bmp	492	1	blank2r.bmp	786	1	DHJF	786	1	blank2r.bmp	866	4	engstirnig	866	1	!	1239	1	!	1266	0	0	0	0	0	0	0	0	0	0	0	0	0	0	0	0	0	0	0	0	0	0	0	0	0	0	0
031819	11:29:32	11:38:57	564594	5.0.10.0	4_exp_AWA_CON_EVA_AMP	166	Rpleas_acq	Same	Rpleas	Amasked	CS_A	1pleas	distractor1	CONbeforeEVA	acq_US_pleas_masked	acq45_masked	5	27	400	1	300	300	0	0	412	50	0	1	0	0	0	1	blank2r.bmp	0	1	+	0	7	C3r.bmp	492	1	blank2r.bmp	786	1	CPLW	786	1	blank2r.bmp	866	6	vertrauen	866	1	!	1239	1	!	1319	0	0	0	0	0	0	0	0	0	0	0	0	0	0	0	0	0	0	0	0	0	0	0	0	0	0	0
031819	11:29:32	11:39:00	566820	5.0.10.0	4_exp_AWA_CON_EVA_AMP	166	Rpleas_acq	Same	Rpleas	Amasked	CS_A	1pleas	distractor1	CONbeforeEVA	acq_US_pleas_masked	acq45_masked	5	28	400	1	300	300	0	0	432	50	0	1	0	0	0	1	blank2r.bmp	0	1	+	0	1	B1r.bmp	492	1	blank2r.bmp	786	1	CPLW	786	1	blank2r.bmp	866	1	kuss	866	1	!	1239	1	!	1332	0	0	0	0	0	0	0	0	0	0	0	0	0	0	0	0	0	0	0	0	0	0	0	0	0	0	0
031819	11:29:32	11:39:02	569005	5.0.10.0	4_exp_AWA_CON_EVA_AMP	166	Rpleas_acq	Same	Rpleas	Amasked	CS_A	1pleas	distractor1	CONbeforeEVA	acq_US_pleas_masked	acq45_masked	5	29	400	1	300	300	0	0	392	50	0	1	0	0	0	1	blank2r.bmp	0	1	+	0	2	B2r.bmp	492	1	blank2r.bmp	786	1	CPLW	786	1	blank2r.bmp	866	5	vergnügt	866	1	!	1239	1	!	1292	0	0	0	0	0	0	0	0	0	0	0	0	0	0	0	0	0	0	0	0	0	0	0	0	0	0	0
031819	11:29:32	11:39:04	571058	5.0.10.0	4_exp_AWA_CON_EVA_AMP	166	Rpleas_acq	Same	Rpleas	Amasked	CS_A	1pleas	distractor1	CONbeforeEVA	acq_US_pleas_masked	acq45_masked	5	30	400	0	300	300	0	0	285	46	0	0	0	0	0	1	blank2r.bmp	0	1	+	0	3	B3r.bmp	492	1	blank2r.bmp	786	1	CPLW	786	1	blank2r.bmp	866	4	engagiert	866	1	!	-1	1	!	-1	0	0	0	0	0	0	0	0	0	0	0	0	0	0	0	0	0	0	0	0	0	0	0	0	0	0	0
031819	11:29:32	11:39:06	573350	5.0.10.0	4_exp_AWA_CON_EVA_AMP	166	Rpleas_acq	Same	Rpleas	Amasked	CS_A	1pleas	distractor1	CONbeforeEVA	acq_US_pleas_masked	acq45_masked	5	31	400	0	300	300	0	0	511	50	0	1	0	0	0	1	blank2r.bmp	0	1	+	0	6	C2r.bmp	492	1	blank2r.bmp	786	1	CPLW	786	1	blank2r.bmp	866	3	gütig	866	1	!	1239	1	!	-1	0	0	0	0	0	0	0	0	0	0	0	0	0	0	0	0	0	0	0	0	0	0	0	0	0	0	0
031819	11:29:32	11:39:08	575589	5.0.10.0	4_exp_AWA_CON_EVA_AMP	166	Rpleas_acq	Same	Rpleas	Amasked	CS_A	1pleas	distractor1	CONbeforeEVA	acq_US_unple_masked	acq45_masked	5	32	400	1	300	300	0	0	427	46	0	1	0	0	0	1	blank2r.bmp	0	1	+	0	5	C1r.bmp	492	1	blank2r.bmp	786	1	DHJF	786	1	blank2r.bmp	866	1	krise	866	1	!	1239	1	!	1332	0	0	0	0	0	0	0	0	0	0	0	0	0	0	0	0	0	0	0	0	0	0	0	0	0	0	0
031819	11:29:32	11:39:10	577789	5.0.10.0	4_exp_AWA_CON_EVA_AMP	166	Rpleas_acq	Same	Rpleas	Amasked	CS_A	1pleas	distractor1	CONbeforeEVA	acq_US_unple_masked	acq45_masked	5	33	400	1	300	300	0	0	400	46	0	1	0	0	0	1	blank2r.bmp	0	1	+	0	3	B3r.bmp	492	1	blank2r.bmp	786	1	DHJF	786	1	blank2r.bmp	866	3	gierig	866	1	!	1239	1	!	1306	0	0	0	0	0	0	0	0	0	0	0	0	0	0	0	0	0	0	0	0	0	0	0	0	0	0	0
031819	11:29:32	11:39:13	580001	5.0.10.0	4_exp_AWA_CON_EVA_AMP	166	Rpleas_acq	Same	Rpleas	Amasked	CS_A	1pleas	distractor1	CONbeforeEVA	acq_US_pleas_masked	acq45_masked	5	34	400	1	300	300	0	0	413	50	0	1	0	0	0	1	blank2r.bmp	0	1	+	0	8	C4r.bmp	492	1	blank2r.bmp	786	1	CPLW	786	1	blank2r.bmp	866	6	vertrauen	866	1	!	1239	1	!	1319	0	0	0	0	0	0	0	0	0	0	0	0	0	0	0	0	0	0	0	0	0	0	0	0	0	0	0
031819	11:29:32	11:39:15	582253	5.0.10.0	4_exp_AWA_CON_EVA_AMP	166	Rpleas_acq	Same	Rpleas	Amasked	CS_A	1pleas	distractor1	CONbeforeEVA	acq_US_pleas_masked	acq45_masked	5	35	400	1	300	300	0	0	462	50	0	1	0	0	0	1	blank2r.bmp	0	1	+	0	5	C1r.bmp	492	1	blank2r.bmp	786	1	CPLW	786	1	blank2r.bmp	866	2	besonnen	866	1	!	1239	1	!	1359	0	0	0	0	0	0	0	0	0	0	0	0	0	0	0	0	0	0	0	0	0	0	0	0	0	0	0
031819	11:29:32	11:39:17	584439	5.0.10.0	4_exp_AWA_CON_EVA_AMP	166	Rpleas_acq	Same	Rpleas	Amasked	CS_A	1pleas	distractor1	CONbeforeEVA	acq_US_unple_masked	acq45_masked	5	36	400	1	300	300	0	0	386	46	0	1	0	0	0	1	blank2r.bmp	0	1	+	0	4	B4r.bmp	492	1	blank2r.bmp	786	1	DHJF	786	1	blank2r.bmp	866	5	verbissen	866	1	!	1239	1	!	1292	0	0	0	0	0	0	0	0	0	0	0	0	0	0	0	0	0	0	0	0	0	0	0	0	0	0	0
031819	11:29:32	11:40:28	655703	5.0.10.0	4_exp_AWA_CON_EVA_AMP	166	Rpleas_acq	Same	Rpleas	Amasked	CS_A	1pleas	distractor1	CONbeforeEVA	cond_new_pleas_456_masked_CS1	condtest_masked_1	8	1	400	0	300	300	0	0	1279	50	0	1	0	0	0	1	blank2r.bmp	0	1	+	0	7	C3r.bmp	492	1	blank2r.bmp	786	1	CPLW	786	1	blank2r.bmp	866	1	anregung	866	1	!	1239	1	!	-1	0	0	0	0	0	0	0	0	0	0	0	0	0	0	0	0	0	0	0	0	0	0	0	0	0	0	0
031819	11:29:32	11:40:31	658262	5.0.10.0	4_exp_AWA_CON_EVA_AMP	166	Rpleas_acq	Same	Rpleas	Amasked	CS_A	1pleas	distractor1	CONbeforeEVA	cond_new_pleas_456_masked_CS2	condtest_masked_1	8	2	400	0	300	300	0	0	783	50	0	1	0	0	0	1	blank2r.bmp	0	1	+	0	1	B1r.bmp	492	1	blank2r.bmp	786	1	DHJF	786	1	blank2r.bmp	866	3	kreativ	866	1	!	1239	1	!	-1	0	0	0	0	0	0	0	0	0	0	0	0	0	0	0	0	0	0	0	0	0	0	0	0	0	0	0
031819	11:29:32	11:40:35	662101	5.0.10.0	4_exp_AWA_CON_EVA_AMP	166	Rpleas_acq	Same	Rpleas	Amasked	CS_A	1pleas	distractor1	CONbeforeEVA	cond_new_unple_456_masked_CS2	condtest_masked_1	8	3	400	0	300	300	0	0	2060	46	0	1	0	0	0	1	blank2r.bmp	0	1	+	0	6	C2r.bmp	492	1	blank2r.bmp	786	1	DHJF	786	1	blank2r.bmp	866	3	krank	866	1	!	1239	1	!	-1	0	0	0	0	0	0	0	0	0	0	0	0	0	0	0	0	0	0	0	0	0	0	0	0	0	0	0
031819	11:29:32	11:40:37	664406	5.0.10.0	4_exp_AWA_CON_EVA_AMP	166	Rpleas_acq	Same	Rpleas	Amasked	CS_A	1pleas	distractor1	CONbeforeEVA	cond_US_unple_123_masked_CS1	condtest_masked_1	8	4	400	0	300	300	0	0	518	46	0	1	0	0	0	1	blank2r.bmp	0	1	+	0	2	B2r.bmp	492	1	blank2r.bmp	786	1	CPLW	786	1	blank2r.bmp	866	2	bange	866	1	!	1239	1	!	-1	0	0	0	0	0	0	0	0	0	0	0	0	0	0	0	0	0	0	0	0	0	0	0	0	0	0	0
031819	11:29:32	11:40:39	666645	5.0.10.0	4_exp_AWA_CON_EVA_AMP	166	Rpleas_acq	Same	Rpleas	Amasked	CS_A	1pleas	distractor1	CONbeforeEVA	cond_US_unple_123_masked_CS2	condtest_masked_1	8	5	400	1	300	300	0	0	426	46	0	1	0	0	0	1	blank2r.bmp	0	1	+	0	1	B1r.bmp	492	1	blank2r.bmp	786	1	DHJF	786	1	blank2r.bmp	866	3	gierig	866	1	!	1239	1	!	1332	0	0	0	0	0	0	0	0	0	0	0	0	0	0	0	0	0	0	0	0	0	0	0	0	0	0	0
031819	11:29:32	11:40:42	668938	5.0.10.0	4_exp_AWA_CON_EVA_AMP	166	Rpleas_acq	Same	Rpleas	Amasked	CS_A	1pleas	distractor1	CONbeforeEVA	cond_new_unple_456_masked_CS1	condtest_masked_1	8	6	400	0	300	300	0	0	529	46	0	1	0	0	0	1	blank2r.bmp	0	1	+	0	3	B3r.bmp	492	1	blank2r.bmp	786	1	CPLW	786	1	blank2r.bmp	866	1	ausrottung	866	1	!	1239	1	!	-1	0	0	0	0	0	0	0	0	0	0	0	0	0	0	0	0	0	0	0	0	0	0	0	0	0	0	0
031819	11:29:32	11:40:44	671097	5.0.10.0	4_exp_AWA_CON_EVA_AMP	166	Rpleas_acq	Same	Rpleas	Amasked	CS_A	1pleas	distractor1	CONbeforeEVA	cond_US_pleas_123_masked_CS1	condtest_masked_1	8	7	400	1	300	300	0	0	346	50	0	1	0	0	0	1	blank2r.bmp	0	1	+	0	8	C4r.bmp	492	1	blank2r.bmp	786	1	CPLW	786	1	blank2r.bmp	866	1	kuss	866	1	!	1239	1	!	1252	0	0	0	0	0	0	0	0	0	0	0	0	0	0	0	0	0	0	0	0	0	0	0	0	0	0	0
031819	11:29:32	11:40:46	673256	5.0.10.0	4_exp_AWA_CON_EVA_AMP	166	Rpleas_acq	Same	Rpleas	Amasked	CS_A	1pleas	distractor1	CONbeforeEVA	cond_US_pleas_123_masked_CS2	condtest_masked_1	8	8	400	1	300	300	0	0	360	46	0	0	0	0	0	1	blank2r.bmp	0	1	+	0	2	B2r.bmp	492	1	blank2r.bmp	786	1	DHJF	786	1	blank2r.bmp	866	3	gütig	866	1	!	1239	1	!	1266	0	0	0	0	0	0	0	0	0	0	0	0	0	0	0	0	0	0	0	0	0	0	0	0	0	0	0
031819	11:29:32	11:40:56	682879	5.0.10.0	4_exp_AWA_CON_EVA_AMP	166	Rpleas_acq	Same	Rpleas	Amasked	CS_A	1pleas	distractor1	CONbeforeEVA	cond_new_unple_456_masked_CS2	condtest_masked_2	9	1	400	0	300	300	0	0	825	46	0	1	0	0	0	1	blank2r.bmp	0	1	+	0	5	C1r.bmp	492	1	blank2r.bmp	786	1	DHJF	786	1	blank2r.bmp	866	2	gemein	866	1	!	1239	1	!	-1	0	0	0	0	0	0	0	0	0	0	0	0	0	0	0	0	0	0	0	0	0	0	0	0	0	0	0
031819	11:29:32	11:40:58	685238	5.0.10.0	4_exp_AWA_CON_EVA_AMP	166	Rpleas_acq	Same	Rpleas	Amasked	CS_A	1pleas	distractor1	CONbeforeEVA	cond_new_pleas_456_masked_CS2	condtest_masked_2	9	2	400	0	300	300	0	0	579	50	0	1	0	0	0	1	blank2r.bmp	0	1	+	0	7	C3r.bmp	492	1	blank2r.bmp	786	1	DHJF	786	1	blank2r.bmp	866	2	genießen	866	1	!	1239	1	!	-1	0	0	0	0	0	0	0	0	0	0	0	0	0	0	0	0	0	0	0	0	0	0	0	0	0	0	0
031819	11:29:32	11:41:00	687783	5.0.10.0	4_exp_AWA_CON_EVA_AMP	166	Rpleas_acq	Same	Rpleas	Amasked	CS_A	1pleas	distractor1	CONbeforeEVA	cond_new_unple_456_masked_CS2	condtest_masked_2	9	3	400	0	300	300	0	0	767	46	0	1	0	0	0	1	blank2r.bmp	0	1	+	0	4	B4r.bmp	492	1	blank2r.bmp	786	1	DHJF	786	1	blank2r.bmp	866	1	ausrottung	866	1	!	1239	1	!	-1	0	0	0	0	0	0	0	0	0	0	0	0	0	0	0	0	0	0	0	0	0	0	0	0	0	0	0
031819	11:29:32	11:41:03	689956	5.0.10.0	4_exp_AWA_CON_EVA_AMP	166	Rpleas_acq	Same	Rpleas	Amasked	CS_A	1pleas	distractor1	CONbeforeEVA	cond_new_unple_456_masked_CS2	condtest_masked_2	9	4	400	1	300	300	0	0	361	50	0	0	0	0	0	1	blank2r.bmp	0	1	+	0	6	C2r.bmp	492	1	blank2r.bmp	786	1	DHJF	786	1	blank2r.bmp	866	2	gemein	866	1	!	1239	1	!	1266	0	0	0	0	0	0	0	0	0	0	0	0	0	0	0	0	0	0	0	0	0	0	0	0	0	0	0
031819	11:29:32	11:41:05	692142	5.0.10.0	4_exp_AWA_CON_EVA_AMP	166	Rpleas_acq	Same	Rpleas	Amasked	CS_A	1pleas	distractor1	CONbeforeEVA	cond_US_pleas_123_masked_CS1	condtest_masked_2	9	5	400	1	300	300	0	0	396	50	0	1	0	0	0	1	blank2r.bmp	0	1	+	0	5	C1r.bmp	492	1	blank2r.bmp	786	1	CPLW	786	1	blank2r.bmp	866	2	besonnen	866	1	!	1239	1	!	1292	0	0	0	0	0	0	0	0	0	0	0	0	0	0	0	0	0	0	0	0	0	0	0	0	0	0	0
031819	11:29:32	11:41:07	694354	5.0.10.0	4_exp_AWA_CON_EVA_AMP	166	Rpleas_acq	Same	Rpleas	Amasked	CS_A	1pleas	distractor1	CONbeforeEVA	cond_US_pleas_123_masked_CS2	condtest_masked_2	9	6	400	1	300	300	0	0	413	50	0	1	0	0	0	1	blank2r.bmp	0	1	+	0	8	C4r.bmp	492	1	blank2r.bmp	786	1	DHJF	786	1	blank2r.bmp	866	1	kuss	866	1	!	1239	1	!	1319	0	0	0	0	0	0	0	0	0	0	0	0	0	0	0	0	0	0	0	0	0	0	0	0	0	0	0
031819	11:29:32	11:41:09	696606	5.0.10.0	4_exp_AWA_CON_EVA_AMP	166	Rpleas_acq	Same	Rpleas	Amasked	CS_A	1pleas	distractor1	CONbeforeEVA	cond_new_unple_456_masked_CS1	condtest_masked_2	9	7	400	0	300	300	0	0	490	46	0	1	0	0	0	1	blank2r.bmp	0	1	+	0	4	B4r.bmp	492	1	blank2r.bmp	786	1	CPLW	786	1	blank2r.bmp	866	3	krank	866	1	!	1239	1	!	-1	0	0	0	0	0	0	0	0	0	0	0	0	0	0	0	0	0	0	0	0	0	0	0	0	0	0	0
031819	11:29:32	11:41:12	698899	5.0.10.0	4_exp_AWA_CON_EVA_AMP	166	Rpleas_acq	Same	Rpleas	Amasked	CS_A	1pleas	distractor1	CONbeforeEVA	cond_US_pleas_123_masked_CS2	condtest_masked_2	9	8	400	0	300	300	0	0	508	50	0	1	0	0	0	1	blank2r.bmp	0	1	+	0	2	B2r.bmp	492	1	blank2r.bmp	786	1	DHJF	786	1	blank2r.bmp	866	3	gütig	866	1	!	1239	1	!	-1	0	0	0	0	0	0	0	0	0	0	0	0	0	0	0	0	0	0	0	0	0	0	0	0	0	0	0
031819	11:29:32	11:41:14	701164	5.0.10.0	4_exp_AWA_CON_EVA_AMP	166	Rpleas_acq	Same	Rpleas	Amasked	CS_A	1pleas	distractor1	CONbeforeEVA	cond_US_pleas_123_masked_CS1	condtest_masked_2	9	9	400	1	300	300	0	0	453	50	0	1	0	0	0	1	blank2r.bmp	0	1	+	0	7	C3r.bmp	492	1	blank2r.bmp	786	1	CPLW	786	1	blank2r.bmp	866	2	besonnen	866	1	!	1239	1	!	1359	0	0	0	0	0	0	0	0	0	0	0	0	0	0	0	0	0	0	0	0	0	0	0	0	0	0	0
031819	11:29:32	11:41:16	703337	5.0.10.0	4_exp_AWA_CON_EVA_AMP	166	Rpleas_acq	Same	Rpleas	Amasked	CS_A	1pleas	distractor1	CONbeforeEVA	cond_US_pleas_123_masked_CS2	condtest_masked_2	9	10	400	1	300	300	0	0	382	50	0	1	0	0	0	1	blank2r.bmp	0	1	+	0	3	B3r.bmp	492	1	blank2r.bmp	786	1	DHJF	786	1	blank2r.bmp	866	2	besonnen	866	1	!	1239	1	!	1279	0	0	0	0	0	0	0	0	0	0	0	0	0	0	0	0	0	0	0	0	0	0	0	0	0	0	0
031819	11:29:32	11:41:18	705536	5.0.10.0	4_exp_AWA_CON_EVA_AMP	166	Rpleas_acq	Same	Rpleas	Amasked	CS_A	1pleas	distractor1	CONbeforeEVA	cond_US_unple_123_masked_CS2	condtest_masked_2	9	11	400	1	300	300	0	0	409	46	0	1	0	0	0	1	blank2r.bmp	0	1	+	0	1	B1r.bmp	492	1	blank2r.bmp	786	1	DHJF	786	1	blank2r.bmp	866	1	krise	866	1	!	1239	1	!	1306	0	0	0	0	0	0	0	0	0	0	0	0	0	0	0	0	0	0	0	0	0	0	0	0	0	0	0
031819	11:29:32	11:41:20	707708	5.0.10.0	4_exp_AWA_CON_EVA_AMP	166	Rpleas_acq	Same	Rpleas	Amasked	CS_A	1pleas	distractor1	CONbeforeEVA	cond_new_pleas_456_masked_CS2	condtest_masked_2	9	12	400	1	300	300	0	0	384	50	0	1	0	0	0	1	blank2r.bmp	0	1	+	0	6	C2r.bmp	492	1	blank2r.bmp	786	1	DHJF	786	1	blank2r.bmp	866	2	genießen	866	1	!	1239	1	!	1279	0	0	0	0	0	0	0	0	0	0	0	0	0	0	0	0	0	0	0	0	0	0	0	0	0	0	0
031819	11:29:32	11:41:23	709961	5.0.10.0	4_exp_AWA_CON_EVA_AMP	166	Rpleas_acq	Same	Rpleas	Amasked	CS_A	1pleas	distractor1	CONbeforeEVA	cond_new_unple_456_masked_CS1	condtest_masked_2	9	13	400	0	300	300	0	0	479	46	0	1	0	0	0	1	blank2r.bmp	0	1	+	0	3	B3r.bmp	492	1	blank2r.bmp	786	1	CPLW	786	1	blank2r.bmp	866	1	ausrottung	866	1	!	1239	1	!	-1	0	0	0	0	0	0	0	0	0	0	0	0	0	0	0	0	0	0	0	0	0	0	0	0	0	0	0
031819	11:29:32	11:41:25	712160	5.0.10.0	4_exp_AWA_CON_EVA_AMP	166	Rpleas_acq	Same	Rpleas	Amasked	CS_A	1pleas	distractor1	CONbeforeEVA	cond_US_pleas_123_masked_CS2	condtest_masked_2	9	14	400	1	300	300	0	0	385	50	0	1	0	0	0	1	blank2r.bmp	0	1	+	0	1	B1r.bmp	492	1	blank2r.bmp	786	1	DHJF	786	1	blank2r.bmp	866	3	gütig	866	1	!	1239	1	!	1279	0	0	0	0	0	0	0	0	0	0	0	0	0	0	0	0	0	0	0	0	0	0	0	0	0	0	0
031819	11:29:32	11:41:27	714426	5.0.10.0	4_exp_AWA_CON_EVA_AMP	166	Rpleas_acq	Same	Rpleas	Amasked	CS_A	1pleas	distractor1	CONbeforeEVA	cond_US_unple_123_masked_CS1	condtest_masked_2	9	15	400	1	300	300	0	0	453	46	0	1	0	0	0	1	blank2r.bmp	0	1	+	0	8	C4r.bmp	492	1	blank2r.bmp	786	1	CPLW	786	1	blank2r.bmp	866	2	bange	866	1	!	1239	1	!	1359	0	0	0	0	0	0	0	0	0	0	0	0	0	0	0	0	0	0	0	0	0	0	0	0	0	0	0
031819	11:29:32	11:41:29	716665	5.0.10.0	4_exp_AWA_CON_EVA_AMP	166	Rpleas_acq	Same	Rpleas	Amasked	CS_A	1pleas	distractor1	CONbeforeEVA	cond_new_pleas_456_masked_CS2	condtest_masked_2	9	16	400	1	300	300	0	0	445	50	0	1	0	0	0	1	blank2r.bmp	0	1	+	0	4	B4r.bmp	492	1	blank2r.bmp	786	1	DHJF	786	1	blank2r.bmp	866	3	kreativ	866	1	!	1239	1	!	1346	0	0	0	0	0	0	0	0	0	0	0	0	0	0	0	0	0	0	0	0	0	0	0	0	0	0	0
031819	11:29:32	11:41:32	718824	5.0.10.0	4_exp_AWA_CON_EVA_AMP	166	Rpleas_acq	Same	Rpleas	Amasked	CS_A	1pleas	distractor1	CONbeforeEVA	cond_US_unple_123_masked_CS1	condtest_masked_2	9	17	400	1	300	300	0	0	365	46	0	1	0	0	0	1	blank2r.bmp	0	1	+	0	5	C1r.bmp	492	1	blank2r.bmp	786	1	CPLW	786	1	blank2r.bmp	866	3	gierig	866	1	!	1239	1	!	1266	0	0	0	0	0	0	0	0	0	0	0	0	0	0	0	0	0	0	0	0	0	0	0	0	0	0	0
031819	11:29:32	11:41:34	721130	5.0.10.0	4_exp_AWA_CON_EVA_AMP	166	Rpleas_acq	Same	Rpleas	Amasked	CS_A	1pleas	distractor1	CONbeforeEVA	cond_new_unple_456_masked_CS1	condtest_masked_2	9	18	400	0	300	300	0	0	540	46	0	1	0	0	0	1	blank2r.bmp	0	1	+	0	2	B2r.bmp	492	1	blank2r.bmp	786	1	CPLW	786	1	blank2r.bmp	866	2	gemein	866	1	!	1239	1	!	-1	0	0	0	0	0	0	0	0	0	0	0	0	0	0	0	0	0	0	0	0	0	0	0	0	0	0	0
031819	11:29:32	11:41:36	723422	5.0.10.0	4_exp_AWA_CON_EVA_AMP	166	Rpleas_acq	Same	Rpleas	Amasked	CS_A	1pleas	distractor1	CONbeforeEVA	cond_new_pleas_456_masked_CS1	condtest_masked_2	9	19	400	0	300	300	0	0	513	50	0	1	0	0	0	1	blank2r.bmp	0	1	+	0	7	C3r.bmp	492	1	blank2r.bmp	786	1	CPLW	786	1	blank2r.bmp	866	1	anregung	866	1	!	1239	1	!	-1	0	0	0	0	0	0	0	0	0	0	0	0	0	0	0	0	0	0	0	0	0	0	0	0	0	0	0
031819	11:29:32	11:41:38	725608	5.0.10.0	4_exp_AWA_CON_EVA_AMP	166	Rpleas_acq	Same	Rpleas	Amasked	CS_A	1pleas	distractor1	CONbeforeEVA	cond_US_unple_123_masked_CS2	condtest_masked_2	9	20	400	1	300	300	0	0	375	46	0	1	0	0	0	1	blank2r.bmp	0	1	+	0	6	C2r.bmp	492	1	blank2r.bmp	786	1	DHJF	786	1	blank2r.bmp	866	1	krise	866	1	!	1239	1	!	1279	0	0	0	0	0	0	0	0	0	0	0	0	0	0	0	0	0	0	0	0	0	0	0	0	0	0	0
031819	11:29:32	11:41:41	727940	5.0.10.0	4_exp_AWA_CON_EVA_AMP	166	Rpleas_acq	Same	Rpleas	Amasked	CS_A	1pleas	distractor1	CONbeforeEVA	cond_new_pleas_456_masked_CS1	condtest_masked_2	9	21	400	0	300	300	0	0	570	50	0	1	0	0	0	1	blank2r.bmp	0	1	+	0	6	C2r.bmp	492	1	blank2r.bmp	786	1	CPLW	786	1	blank2r.bmp	866	2	genießen	866	1	!	1239	1	!	-1	0	0	0	0	0	0	0	0	0	0	0	0	0	0	0	0	0	0	0	0	0	0	0	0	0	0	0
031819	11:29:32	11:41:43	730153	5.0.10.0	4_exp_AWA_CON_EVA_AMP	166	Rpleas_acq	Same	Rpleas	Amasked	CS_A	1pleas	distractor1	CONbeforeEVA	cond_new_unple_456_masked_CS1	condtest_masked_2	9	22	400	1	300	300	0	0	406	46	0	1	0	0	0	1	blank2r.bmp	0	1	+	0	1	B1r.bmp	492	1	blank2r.bmp	786	1	CPLW	786	1	blank2r.bmp	866	3	krank	866	1	!	1239	1	!	1306	0	0	0	0	0	0	0	0	0	0	0	0	0	0	0	0	0	0	0	0	0	0	0	0	0	0	0
031819	11:29:32	11:41:45	732405	5.0.10.0	4_exp_AWA_CON_EVA_AMP	166	Rpleas_acq	Same	Rpleas	Amasked	CS_A	1pleas	distractor1	CONbeforeEVA	cond_US_unple_123_masked_CS1	condtest_masked_2	9	23	400	1	300	300	0	0	460	46	0	1	0	0	0	1	blank2r.bmp	0	1	+	0	7	C3r.bmp	492	1	blank2r.bmp	786	1	CPLW	786	1	blank2r.bmp	866	3	gierig	866	1	!	1239	1	!	1359	0	0	0	0	0	0	0	0	0	0	0	0	0	0	0	0	0	0	0	0	0	0	0	0	0	0	0
031819	11:29:32	11:41:47	734644	5.0.10.0	4_exp_AWA_CON_EVA_AMP	166	Rpleas_acq	Same	Rpleas	Amasked	CS_A	1pleas	distractor1	CONbeforeEVA	cond_new_pleas_456_masked_CS1	condtest_masked_2	9	24	400	1	300	300	0	0	451	50	0	1	0	0	0	1	blank2r.bmp	0	1	+	0	3	B3r.bmp	492	1	blank2r.bmp	786	1	CPLW	786	1	blank2r.bmp	866	3	kreativ	866	1	!	1239	1	!	1346	0	0	0	0	0	0	0	0	0	0	0	0	0	0	0	0	0	0	0	0	0	0	0	0	0	0	0
031819	11:29:32	11:41:50	736856	5.0.10.0	4_exp_AWA_CON_EVA_AMP	166	Rpleas_acq	Same	Rpleas	Amasked	CS_A	1pleas	distractor1	CONbeforeEVA	cond_US_pleas_123_masked_CS1	condtest_masked_2	9	25	400	1	300	300	0	0	421	50	0	1	0	0	0	1	blank2r.bmp	0	1	+	0	5	C1r.bmp	492	1	blank2r.bmp	786	1	CPLW	786	1	blank2r.bmp	866	1	kuss	866	1	!	1239	1	!	1319	0	0	0	0	0	0	0	0	0	0	0	0	0	0	0	0	0	0	0	0	0	0	0	0	0	0	0
031819	11:29:32	11:41:52	739016	5.0.10.0	4_exp_AWA_CON_EVA_AMP	166	Rpleas_acq	Same	Rpleas	Amasked	CS_A	1pleas	distractor1	CONbeforeEVA	cond_new_unple_456_masked_CS2	condtest_masked_2	9	26	400	1	300	300	0	0	366	46	0	1	0	0	0	1	blank2r.bmp	0	1	+	0	8	C4r.bmp	492	1	blank2r.bmp	786	1	DHJF	786	1	blank2r.bmp	866	2	gemein	866	1	!	1239	1	!	1266	0	0	0	0	0	0	0	0	0	0	0	0	0	0	0	0	0	0	0	0	0	0	0	0	0	0	0
031819	11:29:32	11:41:54	741215	5.0.10.0	4_exp_AWA_CON_EVA_AMP	166	Rpleas_acq	Same	Rpleas	Amasked	CS_A	1pleas	distractor1	CONbeforeEVA	cond_new_unple_456_masked_CS2	condtest_masked_2	9	27	400	1	300	300	0	0	407	50	0	0	0	0	0	1	blank2r.bmp	0	1	+	0	2	B2r.bmp	492	1	blank2r.bmp	786	1	DHJF	786	1	blank2r.bmp	866	1	ausrottung	866	1	!	1239	1	!	1306	0	0	0	0	0	0	0	0	0	0	0	0	0	0	0	0	0	0	0	0	0	0	0	0	0	0	0
031819	11:29:32	11:41:56	743400	5.0.10.0	4_exp_AWA_CON_EVA_AMP	166	Rpleas_acq	Same	Rpleas	Amasked	CS_A	1pleas	distractor1	CONbeforeEVA	cond_US_unple_123_masked_CS2	condtest_masked_2	9	28	400	1	300	300	0	0	389	46	0	1	0	0	0	1	blank2r.bmp	0	1	+	0	4	B4r.bmp	492	1	blank2r.bmp	786	1	DHJF	786	1	blank2r.bmp	866	2	bange	866	1	!	1239	1	!	1292	0	0	0	0	0	0	0	0	0	0	0	0	0	0	0	0	0	0	0	0	0	0	0	0	0	0	0
031819	11:29:32	11:41:58	745640	5.0.10.0	4_exp_AWA_CON_EVA_AMP	166	Rpleas_acq	Same	Rpleas	Amasked	CS_A	1pleas	distractor1	CONbeforeEVA	cond_new_unple_456_masked_CS1	condtest_masked_2	9	29	400	1	300	300	0	0	448	46	0	1	0	0	0	1	blank2r.bmp	0	1	+	0	7	C3r.bmp	492	1	blank2r.bmp	786	1	CPLW	786	1	blank2r.bmp	866	3	krank	866	1	!	1239	1	!	1346	0	0	0	0	0	0	0	0	0	0	0	0	0	0	0	0	0	0	0	0	0	0	0	0	0	0	0
031819	11:29:32	11:42:01	747945	5.0.10.0	4_exp_AWA_CON_EVA_AMP	166	Rpleas_acq	Same	Rpleas	Amasked	CS_A	1pleas	distractor1	CONbeforeEVA	cond_new_pleas_456_masked_CS2	condtest_masked_2	9	30	400	0	300	300	0	0	542	50	0	1	0	0	0	1	blank2r.bmp	0	1	+	0	2	B2r.bmp	492	1	blank2r.bmp	786	1	DHJF	786	1	blank2r.bmp	866	1	anregung	866	1	!	1239	1	!	-1	0	0	0	0	0	0	0	0	0	0	0	0	0	0	0	0	0	0	0	0	0	0	0	0	0	0	0
031819	11:29:32	11:42:03	750211	5.0.10.0	4_exp_AWA_CON_EVA_AMP	166	Rpleas_acq	Same	Rpleas	Amasked	CS_A	1pleas	distractor1	CONbeforeEVA	cond_US_unple_123_masked_CS1	condtest_masked_2	9	31	400	0	300	300	0	0	479	46	0	1	0	0	0	1	blank2r.bmp	0	1	+	0	3	B3r.bmp	492	1	blank2r.bmp	786	1	CPLW	786	1	blank2r.bmp	866	1	krise	866	1	!	1239	1	!	-1	0	0	0	0	0	0	0	0	0	0	0	0	0	0	0	0	0	0	0	0	0	0	0	0	0	0	0
031819	11:29:32	11:42:05	752370	5.0.10.0	4_exp_AWA_CON_EVA_AMP	166	Rpleas_acq	Same	Rpleas	Amasked	CS_A	1pleas	distractor1	CONbeforeEVA	cond_US_unple_123_masked_CS2	condtest_masked_2	9	32	400	1	300	300	0	0	346	46	0	1	0	0	0	1	blank2r.bmp	0	1	+	0	5	C1r.bmp	492	1	blank2r.bmp	786	1	DHJF	786	1	blank2r.bmp	866	1	krise	866	1	!	1239	1	!	1252	0	0	0	0	0	0	0	0	0	0	0	0	0	0	0	0	0	0	0	0	0	0	0	0	0	0	0
031819	11:29:32	11:42:07	754649	5.0.10.0	4_exp_AWA_CON_EVA_AMP	166	Rpleas_acq	Same	Rpleas	Amasked	CS_A	1pleas	distractor1	CONbeforeEVA	cond_new_pleas_456_masked_CS1	condtest_masked_2	9	33	400	0	300	300	0	0	506	50	0	1	0	0	0	1	blank2r.bmp	0	1	+	0	8	C4r.bmp	492	1	blank2r.bmp	786	1	CPLW	786	1	blank2r.bmp	866	2	genießen	866	1	!	1239	1	!	-1	0	0	0	0	0	0	0	0	0	0	0	0	0	0	0	0	0	0	0	0	0	0	0	0	0	0	0
031819	11:29:32	11:42:10	756848	5.0.10.0	4_exp_AWA_CON_EVA_AMP	166	Rpleas_acq	Same	Rpleas	Amasked	CS_A	1pleas	distractor1	CONbeforeEVA	cond_US_pleas_123_masked_CS2	condtest_masked_2	9	34	400	1	300	300	0	0	388	50	0	1	0	0	0	1	blank2r.bmp	0	1	+	0	1	B1r.bmp	492	1	blank2r.bmp	786	1	DHJF	786	1	blank2r.bmp	866	2	besonnen	866	1	!	1239	1	!	1292	0	0	0	0	0	0	0	0	0	0	0	0	0	0	0	0	0	0	0	0	0	0	0	0	0	0	0
031819	11:29:32	11:42:12	759047	5.0.10.0	4_exp_AWA_CON_EVA_AMP	166	Rpleas_acq	Same	Rpleas	Amasked	CS_A	1pleas	distractor1	CONbeforeEVA	cond_US_pleas_123_masked_CS1	condtest_masked_2	9	35	400	1	300	300	0	0	408	50	0	1	0	0	0	1	blank2r.bmp	0	1	+	0	6	C2r.bmp	492	1	blank2r.bmp	786	1	CPLW	786	1	blank2r.bmp	866	1	kuss	866	1	!	1239	1	!	1306	0	0	0	0	0	0	0	0	0	0	0	0	0	0	0	0	0	0	0	0	0	0	0	0	0	0	0
031819	11:29:32	11:42:14	761286	5.0.10.0	4_exp_AWA_CON_EVA_AMP	166	Rpleas_acq	Same	Rpleas	Amasked	CS_A	1pleas	distractor1	CONbeforeEVA	cond_US_pleas_123_masked_CS1	condtest_masked_2	9	36	400	1	300	300	0	0	444	50	0	1	0	0	0	1	blank2r.bmp	0	1	+	0	4	B4r.bmp	492	1	blank2r.bmp	786	1	CPLW	786	1	blank2r.bmp	866	3	gütig	866	1	!	1239	1	!	1346	0	0	0	0	0	0	0	0	0	0	0	0	0	0	0	0	0	0	0	0	0	0	0	0	0	0	0
031819	11:29:32	11:42:16	763472	5.0.10.0	4_exp_AWA_CON_EVA_AMP	166	Rpleas_acq	Same	Rpleas	Amasked	CS_A	1pleas	distractor1	CONbeforeEVA	cond_US_unple_123_masked_CS2	condtest_masked_2	9	37	400	1	300	300	0	0	396	46	0	1	0	0	0	1	blank2r.bmp	0	1	+	0	3	B3r.bmp	492	1	blank2r.bmp	786	1	DHJF	786	1	blank2r.bmp	866	3	gierig	866	1	!	1239	1	!	1292	0	0	0	0	0	0	0	0	0	0	0	0	0	0	0	0	0	0	0	0	0	0	0	0	0	0	0
031819	11:29:32	11:42:18	765645	5.0.10.0	4_exp_AWA_CON_EVA_AMP	166	Rpleas_acq	Same	Rpleas	Amasked	CS_A	1pleas	distractor1	CONbeforeEVA	cond_new_pleas_456_masked_CS1	condtest_masked_2	9	38	400	1	300	300	0	0	377	50	0	1	0	0	0	1	blank2r.bmp	0	1	+	0	5	C1r.bmp	492	1	blank2r.bmp	786	1	CPLW	786	1	blank2r.bmp	866	3	kreativ	866	1	!	1239	1	!	1279	0	0	0	0	0	0	0	0	0	0	0	0	0	0	0	0	0	0	0	0	0	0	0	0	0	0	0
031819	11:29:32	11:42:21	767844	5.0.10.0	4_exp_AWA_CON_EVA_AMP	166	Rpleas_acq	Same	Rpleas	Amasked	CS_A	1pleas	distractor1	CONbeforeEVA	cond_US_unple_123_masked_CS1	condtest_masked_2	9	39	400	1	300	300	0	0	405	46	0	1	0	0	0	1	blank2r.bmp	0	1	+	0	1	B1r.bmp	492	1	blank2r.bmp	786	1	CPLW	786	1	blank2r.bmp	866	2	bange	866	1	!	1239	1	!	1306	0	0	0	0	0	0	0	0	0	0	0	0	0	0	0	0	0	0	0	0	0	0	0	0	0	0	0
031819	11:29:32	11:42:23	770056	5.0.10.0	4_exp_AWA_CON_EVA_AMP	166	Rpleas_acq	Same	Rpleas	Amasked	CS_A	1pleas	distractor1	CONbeforeEVA	cond_new_pleas_456_masked_CS2	condtest_masked_2	9	40	400	1	300	300	0	0	415	50	0	1	0	0	0	1	blank2r.bmp	0	1	+	0	7	C3r.bmp	492	1	blank2r.bmp	786	1	DHJF	786	1	blank2r.bmp	866	1	anregung	866	1	!	1239	1	!	1319	0	0	0	0	0	0	0	0	0	0	0	0	0	0	0	0	0	0	0	0	0	0	0	0	0	0	0
031819	11:29:32	11:42:33	780479	5.0.10.0	4_exp_AWA_CON_EVA_AMP	166	Rpleas_acq	Same	Rpleas	Amasked	CS_A	1pleas	distractor1	CONbeforeEVA	cond_US_unple_456_masked_CS2	condtest_masked_3	10	1	400	0	300	300	0	0	491	46	0	1	0	0	0	1	blank2r.bmp	0	1	+	0	4	B4r.bmp	492	1	blank2r.bmp	786	1	DHJF	786	1	blank2r.bmp	866	2	verbissen	866	1	!	1239	1	!	-1	0	0	0	0	0	0	0	0	0	0	0	0	0	0	0	0	0	0	0	0	0	0	0	0	0	0	0
031819	11:29:32	11:42:35	782691	5.0.10.0	4_exp_AWA_CON_EVA_AMP	166	Rpleas_acq	Same	Rpleas	Amasked	CS_A	1pleas	distractor1	CONbeforeEVA	cond_US_unple_456_masked_CS2	condtest_masked_3	10	2	400	1	300	300	0	0	411	46	0	1	0	0	0	1	blank2r.bmp	0	1	+	0	6	C2r.bmp	492	1	blank2r.bmp	786	1	DHJF	786	1	blank2r.bmp	866	1	engstirnig	866	1	!	1239	1	!	1306	0	0	0	0	0	0	0	0	0	0	0	0	0	0	0	0	0	0	0	0	0	0	0	0	0	0	0
031819	11:29:32	11:42:38	784837	5.0.10.0	4_exp_AWA_CON_EVA_AMP	166	Rpleas_acq	Same	Rpleas	Amasked	CS_A	1pleas	distractor1	CONbeforeEVA	cond_new_pleas_123_masked_CS1	condtest_masked_3	10	3	400	1	300	300	0	0	346	50	0	1	0	0	0	1	blank2r.bmp	0	1	+	0	8	C4r.bmp	492	1	blank2r.bmp	786	1	CPLW	786	1	blank2r.bmp	866	3	sonnig	866	1	!	1239	1	!	1252	0	0	0	0	0	0	0	0	0	0	0	0	0	0	0	0	0	0	0	0	0	0	0	0	0	0	0
031819	11:29:32	11:42:40	786983	5.0.10.0	4_exp_AWA_CON_EVA_AMP	166	Rpleas_acq	Same	Rpleas	Amasked	CS_A	1pleas	distractor1	CONbeforeEVA	cond_new_pleas_123_masked_CS2	condtest_masked_3	10	4	400	1	300	300	0	0	355	46	0	0	0	0	0	1	blank2r.bmp	0	1	+	0	2	B2r.bmp	492	1	blank2r.bmp	786	1	DHJF	786	1	blank2r.bmp	866	1	träumen	866	1	!	1239	1	!	1252	0	0	0	0	0	0	0	0	0	0	0	0	0	0	0	0	0	0	0	0	0	0	0	0	0	0	0
031819	11:29:32	11:42:42	789208	5.0.10.0	4_exp_AWA_CON_EVA_AMP	166	Rpleas_acq	Same	Rpleas	Amasked	CS_A	1pleas	distractor1	CONbeforeEVA	cond_new_unple_123_masked_CS1	condtest_masked_3	10	5	400	1	300	300	0	0	437	46	0	1	0	0	0	1	blank2r.bmp	0	1	+	0	8	C4r.bmp	492	1	blank2r.bmp	786	1	CPLW	786	1	blank2r.bmp	866	3	sterben	866	1	!	1239	1	!	1332	0	0	0	0	0	0	0	0	0	0	0	0	0	0	0	0	0	0	0	0	0	0	0	0	0	0	0
031819	11:29:32	11:42:44	791421	5.0.10.0	4_exp_AWA_CON_EVA_AMP	166	Rpleas_acq	Same	Rpleas	Amasked	CS_A	1pleas	distractor1	CONbeforeEVA	cond_US_unple_456_masked_CS1	condtest_masked_3	10	6	400	1	300	300	0	0	415	46	0	1	0	0	0	1	blank2r.bmp	0	1	+	0	7	C3r.bmp	492	1	blank2r.bmp	786	1	CPLW	786	1	blank2r.bmp	866	3	versagen	866	1	!	1239	1	!	1319	0	0	0	0	0	0	0	0	0	0	0	0	0	0	0	0	0	0	0	0	0	0	0	0	0	0	0
031819	11:29:32	11:42:46	793673	5.0.10.0	4_exp_AWA_CON_EVA_AMP	166	Rpleas_acq	Same	Rpleas	Amasked	CS_A	1pleas	distractor1	CONbeforeEVA	cond_new_pleas_123_masked_CS1	condtest_masked_3	10	7	400	0	300	300	0	0	483	46	0	0	0	0	0	1	blank2r.bmp	0	1	+	0	5	C1r.bmp	492	1	blank2r.bmp	786	1	CPLW	786	1	blank2r.bmp	866	2	gesittet	866	1	!	1239	1	!	-1	0	0	0	0	0	0	0	0	0	0	0	0	0	0	0	0	0	0	0	0	0	0	0	0	0	0	0
031819	11:29:32	11:42:49	795979	5.0.10.0	4_exp_AWA_CON_EVA_AMP	166	Rpleas_acq	Same	Rpleas	Amasked	CS_A	1pleas	distractor1	CONbeforeEVA	cond_new_unple_123_masked_CS1	condtest_masked_3	10	8	400	0	300	300	0	0	528	46	0	1	0	0	0	1	blank2r.bmp	0	1	+	0	1	B1r.bmp	492	1	blank2r.bmp	786	1	CPLW	786	1	blank2r.bmp	866	2	geizig	866	1	!	1239	1	!	-1	0	0	0	0	0	0	0	0	0	0	0	0	0	0	0	0	0	0	0	0	0	0	0	0	0	0	0
031819	11:29:32	11:42:51	798165	5.0.10.0	4_exp_AWA_CON_EVA_AMP	166	Rpleas_acq	Same	Rpleas	Amasked	CS_A	1pleas	distractor1	CONbeforeEVA	cond_US_pleas_456_masked_CS2	condtest_masked_3	10	9	400	1	300	300	0	0	365	50	0	1	0	0	0	1	blank2r.bmp	0	1	+	0	6	C2r.bmp	492	1	blank2r.bmp	786	1	DHJF	786	1	blank2r.bmp	866	3	vertrauen	866	1	!	1239	1	!	1266	0	0	0	0	0	0	0	0	0	0	0	0	0	0	0	0	0	0	0	0	0	0	0	0	0	0	0
031819	11:29:32	11:42:53	800350	5.0.10.0	4_exp_AWA_CON_EVA_AMP	166	Rpleas_acq	Same	Rpleas	Amasked	CS_A	1pleas	distractor1	CONbeforeEVA	cond_new_pleas_123_masked_CS1	condtest_masked_3	10	10	400	1	300	300	0	0	399	50	0	1	0	0	0	1	blank2r.bmp	0	1	+	0	3	B3r.bmp	492	1	blank2r.bmp	786	1	CPLW	786	1	blank2r.bmp	866	3	sonnig	866	1	!	1239	1	!	1292	0	0	0	0	0	0	0	0	0	0	0	0	0	0	0	0	0	0	0	0	0	0	0	0	0	0	0
031819	11:29:32	11:42:55	802536	5.0.10.0	4_exp_AWA_CON_EVA_AMP	166	Rpleas_acq	Same	Rpleas	Amasked	CS_A	1pleas	distractor1	CONbeforeEVA	cond_US_pleas_456_masked_CS1	condtest_masked_3	10	11	400	1	300	300	0	0	398	50	0	1	0	0	0	1	blank2r.bmp	0	1	+	0	2	B2r.bmp	492	1	blank2r.bmp	786	1	CPLW	786	1	blank2r.bmp	866	1	engagiert	866	1	!	1239	1	!	1292	0	0	0	0	0	0	0	0	0	0	0	0	0	0	0	0	0	0	0	0	0	0	0	0	0	0	0
031819	11:29:32	11:42:57	804749	5.0.10.0	4_exp_AWA_CON_EVA_AMP	166	Rpleas_acq	Same	Rpleas	Amasked	CS_A	1pleas	distractor1	CONbeforeEVA	cond_US_pleas_456_masked_CS1	condtest_masked_3	10	12	400	1	300	300	0	0	413	50	0	1	0	0	0	1	blank2r.bmp	0	1	+	0	4	B4r.bmp	492	1	blank2r.bmp	786	1	CPLW	786	1	blank2r.bmp	866	2	vergnügt	866	1	!	1239	1	!	1319	0	0	0	0	0	0	0	0	0	0	0	0	0	0	0	0	0	0	0	0	0	0	0	0	0	0	0
031819	11:29:32	11:43:00	806974	5.0.10.0	4_exp_AWA_CON_EVA_AMP	166	Rpleas_acq	Same	Rpleas	Amasked	CS_A	1pleas	distractor1	CONbeforeEVA	cond_new_unple_123_masked_CS1	condtest_masked_3	10	13	400	1	300	300	0	0	428	46	0	1	0	0	0	1	blank2r.bmp	0	1	+	0	4	B4r.bmp	492	1	blank2r.bmp	786	1	CPLW	786	1	blank2r.bmp	866	1	töten	866	1	!	1239	1	!	1332	0	0	0	0	0	0	0	0	0	0	0	0	0	0	0	0	0	0	0	0	0	0	0	0	0	0	0
031819	11:29:32	11:43:02	809213	5.0.10.0	4_exp_AWA_CON_EVA_AMP	166	Rpleas_acq	Same	Rpleas	Amasked	CS_A	1pleas	distractor1	CONbeforeEVA	cond_US_pleas_456_masked_CS2	condtest_masked_3	10	14	400	1	300	300	0	0	431	50	0	1	0	0	0	1	blank2r.bmp	0	1	+	0	8	C4r.bmp	492	1	blank2r.bmp	786	1	DHJF	786	1	blank2r.bmp	866	3	vertrauen	866	1	!	1239	1	!	1332	0	0	0	0	0	0	0	0	0	0	0	0	0	0	0	0	0	0	0	0	0	0	0	0	0	0	0
031819	11:29:32	11:43:04	811412	5.0.10.0	4_exp_AWA_CON_EVA_AMP	166	Rpleas_acq	Same	Rpleas	Amasked	CS_A	1pleas	distractor1	CONbeforeEVA	cond_US_pleas_456_masked_CS1	condtest_masked_3	10	15	400	1	300	300	0	0	410	50	0	1	0	0	0	1	blank2r.bmp	0	1	+	0	5	C1r.bmp	492	1	blank2r.bmp	786	1	CPLW	786	1	blank2r.bmp	866	1	engagiert	866	1	!	1239	1	!	1306	0	0	0	0	0	0	0	0	0	0	0	0	0	0	0	0	0	0	0	0	0	0	0	0	0	0	0
031819	11:29:32	11:43:06	813598	5.0.10.0	4_exp_AWA_CON_EVA_AMP	166	Rpleas_acq	Same	Rpleas	Amasked	CS_A	1pleas	distractor1	CONbeforeEVA	cond_US_pleas_456_masked_CS2	condtest_masked_3	10	16	400	1	300	300	0	0	385	50	0	1	0	0	0	1	blank2r.bmp	0	1	+	0	3	B3r.bmp	492	1	blank2r.bmp	786	1	DHJF	786	1	blank2r.bmp	866	2	vergnügt	866	1	!	1239	1	!	1292	0	0	0	0	0	0	0	0	0	0	0	0	0	0	0	0	0	0	0	0	0	0	0	0	0	0	0
031819	11:29:32	11:43:09	815877	5.0.10.0	4_exp_AWA_CON_EVA_AMP	166	Rpleas_acq	Same	Rpleas	Amasked	CS_A	1pleas	distractor1	CONbeforeEVA	cond_US_pleas_456_masked_CS2	condtest_masked_3	10	17	400	0	300	300	0	0	509	50	0	1	0	0	0	1	blank2r.bmp	0	1	+	0	7	C3r.bmp	492	1	blank2r.bmp	786	1	DHJF	786	1	blank2r.bmp	866	1	engagiert	866	1	!	1239	1	!	-1	0	0	0	0	0	0	0	0	0	0	0	0	0	0	0	0	0	0	0	0	0	0	0	0	0	0	0
031819	11:29:32	11:43:11	818063	5.0.10.0	4_exp_AWA_CON_EVA_AMP	166	Rpleas_acq	Same	Rpleas	Amasked	CS_A	1pleas	distractor1	CONbeforeEVA	cond_new_pleas_123_masked_CS2	condtest_masked_3	10	18	400	1	300	300	0	0	373	46	0	0	0	0	0	1	blank2r.bmp	0	1	+	0	2	B2r.bmp	492	1	blank2r.bmp	786	1	DHJF	786	1	blank2r.bmp	866	2	gesittet	866	1	!	1239	1	!	1279	0	0	0	0	0	0	0	0	0	0	0	0	0	0	0	0	0	0	0	0	0	0	0	0	0	0	0
031819	11:29:32	11:43:13	820395	5.0.10.0	4_exp_AWA_CON_EVA_AMP	166	Rpleas_acq	Same	Rpleas	Amasked	CS_A	1pleas	distractor1	CONbeforeEVA	cond_US_unple_456_masked_CS2	condtest_masked_3	10	19	400	0	300	300	0	0	568	46	0	1	0	0	0	1	blank2r.bmp	0	1	+	0	6	C2r.bmp	492	1	blank2r.bmp	786	1	DHJF	786	1	blank2r.bmp	866	2	verbissen	866	1	!	1239	1	!	-1	0	0	0	0	0	0	0	0	0	0	0	0	0	0	0	0	0	0	0	0	0	0	0	0	0	0	0
031819	11:29:32	11:43:15	822661	5.0.10.0	4_exp_AWA_CON_EVA_AMP	166	Rpleas_acq	Same	Rpleas	Amasked	CS_A	1pleas	distractor1	CONbeforeEVA	cond_new_pleas_123_masked_CS1	condtest_masked_3	10	20	400	0	300	300	0	0	479	50	0	1	0	0	0	1	blank2r.bmp	0	1	+	0	1	B1r.bmp	492	1	blank2r.bmp	786	1	CPLW	786	1	blank2r.bmp	866	1	träumen	866	1	!	1239	1	!	-1	0	0	0	0	0	0	0	0	0	0	0	0	0	0	0	0	0	0	0	0	0	0	0	0	0	0	0
031819	11:29:32	11:43:18	824847	5.0.10.0	4_exp_AWA_CON_EVA_AMP	166	Rpleas_acq	Same	Rpleas	Amasked	CS_A	1pleas	distractor1	CONbeforeEVA	cond_US_unple_456_masked_CS2	condtest_masked_3	10	21	400	1	300	300	0	0	379	46	0	1	0	0	0	1	blank2r.bmp	0	1	+	0	1	B1r.bmp	492	1	blank2r.bmp	786	1	DHJF	786	1	blank2r.bmp	866	1	engstirnig	866	1	!	1239	1	!	1279	0	0	0	0	0	0	0	0	0	0	0	0	0	0	0	0	0	0	0	0	0	0	0	0	0	0	0
031819	11:29:32	11:43:20	826953	5.0.10.0	4_exp_AWA_CON_EVA_AMP	166	Rpleas_acq	Same	Rpleas	Amasked	CS_A	1pleas	distractor1	CONbeforeEVA	cond_new_unple_123_masked_CS1	condtest_masked_3	10	22	400	0	300	300	0	0	332	50	0	0	0	0	0	1	blank2r.bmp	0	1	+	0	3	B3r.bmp	492	1	blank2r.bmp	786	1	CPLW	786	1	blank2r.bmp	866	2	geizig	866	1	!	-1	1	!	-1	0	0	0	0	0	0	0	0	0	0	0	0	0	0	0	0	0	0	0	0	0	0	0	0	0	0	0
031819	11:29:32	11:43:22	829219	5.0.10.0	4_exp_AWA_CON_EVA_AMP	166	Rpleas_acq	Same	Rpleas	Amasked	CS_A	1pleas	distractor1	CONbeforeEVA	cond_new_pleas_123_masked_CS1	condtest_masked_3	10	23	400	0	300	300	0	0	479	50	0	1	0	0	0	1	blank2r.bmp	0	1	+	0	8	C4r.bmp	492	1	blank2r.bmp	786	1	CPLW	786	1	blank2r.bmp	866	2	gesittet	866	1	!	1239	1	!	-1	0	0	0	0	0	0	0	0	0	0	0	0	0	0	0	0	0	0	0	0	0	0	0	0	0	0	0
031819	11:29:32	11:43:24	831471	5.0.10.0	4_exp_AWA_CON_EVA_AMP	166	Rpleas_acq	Same	Rpleas	Amasked	CS_A	1pleas	distractor1	CONbeforeEVA	cond_new_unple_123_masked_CS1	condtest_masked_3	10	24	400	1	300	300	0	0	447	46	0	1	0	0	0	1	blank2r.bmp	0	1	+	0	5	C1r.bmp	492	1	blank2r.bmp	786	1	CPLW	786	1	blank2r.bmp	866	3	sterben	866	1	!	1239	1	!	1346	0	0	0	0	0	0	0	0	0	0	0	0	0	0	0	0	0	0	0	0	0	0	0	0	0	0	0
031819	11:29:32	11:43:26	833723	5.0.10.0	4_exp_AWA_CON_EVA_AMP	166	Rpleas_acq	Same	Rpleas	Amasked	CS_A	1pleas	distractor1	CONbeforeEVA	cond_new_unple_123_masked_CS2	condtest_masked_3	10	25	400	1	300	300	0	0	464	46	0	1	0	0	0	1	blank2r.bmp	0	1	+	0	7	C3r.bmp	492	1	blank2r.bmp	786	1	DHJF	786	1	blank2r.bmp	866	1	töten	866	1	!	1239	1	!	1359	0	0	0	0	0	0	0	0	0	0	0	0	0	0	0	0	0	0	0	0	0	0	0	0	0	0	0
031819	11:29:32	11:43:29	835882	5.0.10.0	4_exp_AWA_CON_EVA_AMP	166	Rpleas_acq	Same	Rpleas	Amasked	CS_A	1pleas	distractor1	CONbeforeEVA	cond_new_pleas_123_masked_CS2	condtest_masked_3	10	26	400	1	300	300	0	0	371	50	0	1	0	0	0	1	blank2r.bmp	0	1	+	0	6	C2r.bmp	492	1	blank2r.bmp	786	1	DHJF	786	1	blank2r.bmp	866	3	sonnig	866	1	!	1239	1	!	1266	0	0	0	0	0	0	0	0	0	0	0	0	0	0	0	0	0	0	0	0	0	0	0	0	0	0	0
031819	11:29:32	11:43:31	838095	5.0.10.0	4_exp_AWA_CON_EVA_AMP	166	Rpleas_acq	Same	Rpleas	Amasked	CS_A	1pleas	distractor1	CONbeforeEVA	cond_US_unple_456_masked_CS1	condtest_masked_3	10	27	400	1	300	300	0	0	402	46	0	1	0	0	0	1	blank2r.bmp	0	1	+	0	4	B4r.bmp	492	1	blank2r.bmp	786	1	CPLW	786	1	blank2r.bmp	866	3	versagen	866	1	!	1239	1	!	1306	0	0	0	0	0	0	0	0	0	0	0	0	0	0	0	0	0	0	0	0	0	0	0	0	0	0	0
031819	11:29:32	11:43:33	840321	5.0.10.0	4_exp_AWA_CON_EVA_AMP	166	Rpleas_acq	Same	Rpleas	Amasked	CS_A	1pleas	distractor1	CONbeforeEVA	cond_new_pleas_123_masked_CS2	condtest_masked_3	10	28	400	1	300	300	0	0	427	50	0	1	0	0	0	1	blank2r.bmp	0	1	+	0	2	B2r.bmp	492	1	blank2r.bmp	786	1	DHJF	786	1	blank2r.bmp	866	1	träumen	866	1	!	1239	1	!	1332	0	0	0	0	0	0	0	0	0	0	0	0	0	0	0	0	0	0	0	0	0	0	0	0	0	0	0
031819	11:29:32	11:43:35	842520	5.0.10.0	4_exp_AWA_CON_EVA_AMP	166	Rpleas_acq	Same	Rpleas	Amasked	CS_A	1pleas	distractor1	CONbeforeEVA	cond_US_unple_456_masked_CS1	condtest_masked_3	10	29	400	1	300	300	0	0	402	46	0	1	0	0	0	1	blank2r.bmp	0	1	+	0	2	B2r.bmp	492	1	blank2r.bmp	786	1	CPLW	786	1	blank2r.bmp	866	3	versagen	866	1	!	1239	1	!	1306	0	0	0	0	0	0	0	0	0	0	0	0	0	0	0	0	0	0	0	0	0	0	0	0	0	0	0
031819	11:29:32	11:43:37	844772	5.0.10.0	4_exp_AWA_CON_EVA_AMP	166	Rpleas_acq	Same	Rpleas	Amasked	CS_A	1pleas	distractor1	CONbeforeEVA	cond_new_unple_123_masked_CS2	condtest_masked_3	10	30	400	0	300	300	0	0	488	46	0	1	0	0	0	1	blank2r.bmp	0	1	+	0	3	B3r.bmp	492	1	blank2r.bmp	786	1	DHJF	786	1	blank2r.bmp	866	1	töten	866	1	!	1239	1	!	-1	0	0	0	0	0	0	0	0	0	0	0	0	0	0	0	0	0	0	0	0	0	0	0	0	0	0	0
031819	11:29:32	11:43:40	846931	5.0.10.0	4_exp_AWA_CON_EVA_AMP	166	Rpleas_acq	Same	Rpleas	Amasked	CS_A	1pleas	distractor1	CONbeforeEVA	cond_US_pleas_456_masked_CS1	condtest_masked_3	10	31	400	1	300	300	0	0	346	50	0	1	0	0	0	1	blank2r.bmp	0	1	+	0	8	C4r.bmp	492	1	blank2r.bmp	786	1	CPLW	786	1	blank2r.bmp	866	3	vertrauen	866	1	!	1239	1	!	1252	0	0	0	0	0	0	0	0	0	0	0	0	0	0	0	0	0	0	0	0	0	0	0	0	0	0	0
