date	time	script.currenttime	script.elapsedtime	build	script.currentexpt	subject	expressions.LRpleas_acq	expressions.SameOppo	expressions.condition_Lpleas	expressions.ABmasked	expressions.conditionCS_A	expressions.condition_1pleas	expressions.condition_distractor_AMP	expressions.AWACON_AMPEVA_first	trialcode	blockcode	blocknum	trialnum	windowcenter	inwindow	pretrialpause	posttrialpause	trialduration	trialtimeout	latency	response	expressions.correctedscore	correct	values.vis_performance	values.vis_rating_sum	values.vis_rating_mean	stimulusnumber1	stimulusitem1	stimulusonset1	stimulusnumber2	stimulusitem2	stimulusonset2	stimulusnumber3	stimulusitem3	stimulusonset3	stimulusnumber4	stimulusitem4	stimulusonset4	stimulusnumber5	stimulusitem5	stimulusonset5	stimulusnumber6	stimulusitem6	stimulusonset6	stimulusnumber7	stimulusitem7	stimulusonset7	stimulusnumber8	stimulusitem8	stimulusonset8	stimulusnumber9	stimulusitem9	stimulusonset9	stimulusnumber10	stimulusitem10	stimulusonset10	stimulusnumber11	stimulusitem11	stimulusonset11	stimulusnumber12	stimulusitem12	stimulusonset12	stimulusnumber13	stimulusitem13	stimulusonset13	stimulusnumber14	stimulusitem14	stimulusonset14	stimulusnumber15	stimulusitem15	stimulusonset15	stimulusnumber16	stimulusitem16	stimulusonset16	stimulusnumber17	stimulusitem17	stimulusonset17	stimulusnumber18	stimulusitem18	stimulusonset18
121918	10:13:22	10:17:20	237741	5.0.10.0	4_exp_AMP_EVA_AWA_CON	28	Rpleas_acq	Same	Rpleas	Bmasked	CS_B	1pleas	distractor1	EVAbeforeCON	acq_US_unple_masked	acq1_masked	1	1	0	0	300	300	0	0	1756	46	0	1	0	0	0	1	blank2r.bmp	0	1	+	0	8	C4r.bmp	492	1	blank2r.bmp	786	1	GKQX	786	1	blank2r.bmp	866	1	hindern	866	0	0	0	0	0	0	0	0	0	0	0	0	0	0	0	0	0	0	0	0	0	0	0	0	0	0	0	0	0	0	0	0	0
121918	10:13:22	10:17:22	239874	5.0.10.0	4_exp_AMP_EVA_AWA_CON	28	Rpleas_acq	Same	Rpleas	Bmasked	CS_B	1pleas	distractor1	EVAbeforeCON	acq_new_unple_masked	acq1_masked	1	2	0	0	300	300	0	0	659	46	0	1	0	0	0	1	blank2r.bmp	0	1	+	0	5	C1r.bmp	492	1	blank2r.bmp	786	4	B4r.bmp	786	1	blank2r.bmp	866	5	schroff	866	0	0	0	0	0	0	0	0	0	0	0	0	0	0	0	0	0	0	0	0	0	0	0	0	0	0	0	0	0	0	0	0	0
121918	10:13:22	10:17:25	242099	5.0.10.0	4_exp_AMP_EVA_AWA_CON	28	Rpleas_acq	Same	Rpleas	Bmasked	CS_B	1pleas	distractor1	EVAbeforeCON	acq_new_unple_masked	acq1_masked	1	3	0	0	300	300	0	0	744	46	0	1	0	0	0	1	blank2r.bmp	0	1	+	0	4	B4r.bmp	492	1	blank2r.bmp	786	5	C1r.bmp	786	1	blank2r.bmp	866	2	eitel	866	0	0	0	0	0	0	0	0	0	0	0	0	0	0	0	0	0	0	0	0	0	0	0	0	0	0	0	0	0	0	0	0	0
121918	10:13:22	10:17:27	244152	5.0.10.0	4_exp_AMP_EVA_AWA_CON	28	Rpleas_acq	Same	Rpleas	Bmasked	CS_B	1pleas	distractor1	EVAbeforeCON	acq_new_pleas_masked	acq1_masked	1	4	0	0	300	300	0	0	569	50	0	1	0	0	0	1	blank2r.bmp	0	1	+	0	1	B1r.bmp	492	1	blank2r.bmp	786	3	B3r.bmp	786	1	blank2r.bmp	866	4	retten	866	0	0	0	0	0	0	0	0	0	0	0	0	0	0	0	0	0	0	0	0	0	0	0	0	0	0	0	0	0	0	0	0	0
121918	10:13:22	10:17:29	246111	5.0.10.0	4_exp_AMP_EVA_AWA_CON	28	Rpleas_acq	Same	Rpleas	Bmasked	CS_B	1pleas	distractor1	EVAbeforeCON	acq_US_pleas_masked	acq1_masked	1	5	0	0	300	300	0	0	478	50	0	1	0	0	0	1	blank2r.bmp	0	1	+	0	2	B2r.bmp	492	1	blank2r.bmp	786	1	BMVZ	786	1	blank2r.bmp	866	4	freundlich	866	0	0	0	0	0	0	0	0	0	0	0	0	0	0	0	0	0	0	0	0	0	0	0	0	0	0	0	0	0	0	0	0	0
121918	10:13:22	10:17:31	248163	5.0.10.0	4_exp_AMP_EVA_AWA_CON	28	Rpleas_acq	Same	Rpleas	Bmasked	CS_B	1pleas	distractor1	EVAbeforeCON	acq_new_pleas_masked	acq1_masked	1	6	0	0	300	300	0	0	559	50	0	1	0	0	0	1	blank2r.bmp	0	1	+	0	6	C2r.bmp	492	1	blank2r.bmp	786	8	C4r.bmp	786	1	blank2r.bmp	866	3	schön	866	0	0	0	0	0	0	0	0	0	0	0	0	0	0	0	0	0	0	0	0	0	0	0	0	0	0	0	0	0	0	0	0	0
121918	10:13:22	10:17:33	250203	5.0.10.0	4_exp_AMP_EVA_AWA_CON	28	Rpleas_acq	Same	Rpleas	Bmasked	CS_B	1pleas	distractor1	EVAbeforeCON	acq_US_pleas_masked	acq1_masked	1	7	0	0	300	300	0	0	568	50	0	1	0	0	0	1	blank2r.bmp	0	1	+	0	3	B3r.bmp	492	1	blank2r.bmp	786	1	BMVZ	786	1	blank2r.bmp	866	5	treu	866	0	0	0	0	0	0	0	0	0	0	0	0	0	0	0	0	0	0	0	0	0	0	0	0	0	0	0	0	0	0	0	0	0
121918	10:13:22	10:17:35	252135	5.0.10.0	4_exp_AMP_EVA_AWA_CON	28	Rpleas_acq	Same	Rpleas	Bmasked	CS_B	1pleas	distractor1	EVAbeforeCON	acq_US_pleas_masked	acq1_masked	1	8	0	0	300	300	0	0	447	50	0	1	0	0	0	1	blank2r.bmp	0	1	+	0	7	C3r.bmp	492	1	blank2r.bmp	786	1	BMVZ	786	1	blank2r.bmp	866	1	helfen	866	0	0	0	0	0	0	0	0	0	0	0	0	0	0	0	0	0	0	0	0	0	0	0	0	0	0	0	0	0	0	0	0	0
121918	10:13:22	10:17:37	254148	5.0.10.0	4_exp_AMP_EVA_AWA_CON	28	Rpleas_acq	Same	Rpleas	Bmasked	CS_B	1pleas	distractor1	EVAbeforeCON	acq_new_unple_masked	acq1_masked	1	9	0	0	300	300	0	0	527	46	0	1	0	0	0	1	blank2r.bmp	0	1	+	0	1	B1r.bmp	492	1	blank2r.bmp	786	6	C2r.bmp	786	1	blank2r.bmp	866	6	tyrannisch	866	0	0	0	0	0	0	0	0	0	0	0	0	0	0	0	0	0	0	0	0	0	0	0	0	0	0	0	0	0	0	0	0	0
121918	10:13:22	10:17:39	256107	5.0.10.0	4_exp_AMP_EVA_AWA_CON	28	Rpleas_acq	Same	Rpleas	Bmasked	CS_B	1pleas	distractor1	EVAbeforeCON	acq_US_unple_masked	acq1_masked	1	10	0	0	300	300	0	0	474	46	0	1	0	0	0	1	blank2r.bmp	0	1	+	0	8	C4r.bmp	492	1	blank2r.bmp	786	1	GKQX	786	1	blank2r.bmp	866	6	faul	866	0	0	0	0	0	0	0	0	0	0	0	0	0	0	0	0	0	0	0	0	0	0	0	0	0	0	0	0	0	0	0	0	0
121918	10:13:22	10:17:41	258266	5.0.10.0	4_exp_AMP_EVA_AWA_CON	28	Rpleas_acq	Same	Rpleas	Bmasked	CS_B	1pleas	distractor1	EVAbeforeCON	acq_new_pleas_masked	acq1_masked	1	11	0	0	300	300	0	0	462	46	0	0	0	0	0	1	blank2r.bmp	0	1	+	0	2	B2r.bmp	492	1	blank2r.bmp	786	7	C3r.bmp	786	1	blank2r.bmp	866	6	tolerant	866	1	FEHLER	1359	0	0	0	0	0	0	0	0	0	0	0	0	0	0	0	0	0	0	0	0	0	0	0	0	0	0	0	0	0	0
121918	10:13:22	10:17:43	260225	5.0.10.0	4_exp_AMP_EVA_AWA_CON	28	Rpleas_acq	Same	Rpleas	Bmasked	CS_B	1pleas	distractor1	EVAbeforeCON	acq_US_unple_masked	acq1_masked	1	12	0	0	300	300	0	0	700	46	0	1	0	0	0	1	blank2r.bmp	0	1	+	0	3	B3r.bmp	492	1	blank2r.bmp	786	1	GKQX	786	1	blank2r.bmp	866	3	leiden	866	0	0	0	0	0	0	0	0	0	0	0	0	0	0	0	0	0	0	0	0	0	0	0	0	0	0	0	0	0	0	0	0	0
121918	10:13:22	10:17:45	262318	5.0.10.0	4_exp_AMP_EVA_AWA_CON	28	Rpleas_acq	Same	Rpleas	Bmasked	CS_B	1pleas	distractor1	EVAbeforeCON	acq_US_pleas_masked	acq1_masked	1	13	0	0	300	300	0	0	601	50	0	1	0	0	0	1	blank2r.bmp	0	1	+	0	6	C2r.bmp	492	1	blank2r.bmp	786	1	BMVZ	786	1	blank2r.bmp	866	2	loyal	866	0	0	0	0	0	0	0	0	0	0	0	0	0	0	0	0	0	0	0	0	0	0	0	0	0	0	0	0	0	0	0	0	0
121918	10:13:22	10:17:47	264210	5.0.10.0	4_exp_AMP_EVA_AWA_CON	28	Rpleas_acq	Same	Rpleas	Bmasked	CS_B	1pleas	distractor1	EVAbeforeCON	acq_new_pleas_masked	acq1_masked	1	14	0	0	300	300	0	0	421	50	0	1	0	0	0	1	blank2r.bmp	0	1	+	0	7	C3r.bmp	492	1	blank2r.bmp	786	1	B1r.bmp	786	1	blank2r.bmp	866	2	ehrlich	866	0	0	0	0	0	0	0	0	0	0	0	0	0	0	0	0	0	0	0	0	0	0	0	0	0	0	0	0	0	0	0	0	0
121918	10:13:22	10:17:49	266583	5.0.10.0	4_exp_AMP_EVA_AWA_CON	28	Rpleas_acq	Same	Rpleas	Bmasked	CS_B	1pleas	distractor1	EVAbeforeCON	acq_US_unple_masked	acq1_masked	1	15	0	0	300	300	0	0	888	46	0	1	0	0	0	1	blank2r.bmp	0	1	+	0	4	B4r.bmp	492	1	blank2r.bmp	786	1	GKQX	786	1	blank2r.bmp	866	4	fanatisch	866	0	0	0	0	0	0	0	0	0	0	0	0	0	0	0	0	0	0	0	0	0	0	0	0	0	0	0	0	0	0	0	0	0
121918	10:13:22	10:17:51	268542	5.0.10.0	4_exp_AMP_EVA_AWA_CON	28	Rpleas_acq	Same	Rpleas	Bmasked	CS_B	1pleas	distractor1	EVAbeforeCON	acq_US_pleas_masked	acq1_masked	1	16	0	0	300	300	0	0	467	50	0	1	0	0	0	1	blank2r.bmp	0	1	+	0	5	C1r.bmp	492	1	blank2r.bmp	786	1	BMVZ	786	1	blank2r.bmp	866	3	lachen	866	0	0	0	0	0	0	0	0	0	0	0	0	0	0	0	0	0	0	0	0	0	0	0	0	0	0	0	0	0	0	0	0	0
121918	10:13:22	10:17:53	270488	5.0.10.0	4_exp_AMP_EVA_AWA_CON	28	Rpleas_acq	Same	Rpleas	Bmasked	CS_B	1pleas	distractor1	EVAbeforeCON	acq_US_pleas_masked	acq1_masked	1	17	0	0	300	300	0	0	477	50	0	1	0	0	0	1	blank2r.bmp	0	1	+	0	5	C1r.bmp	492	1	blank2r.bmp	786	1	BMVZ	786	1	blank2r.bmp	866	6	fair	866	0	0	0	0	0	0	0	0	0	0	0	0	0	0	0	0	0	0	0	0	0	0	0	0	0	0	0	0	0	0	0	0	0
121918	10:13:22	10:17:55	272607	5.0.10.0	4_exp_AMP_EVA_AWA_CON	28	Rpleas_acq	Same	Rpleas	Bmasked	CS_B	1pleas	distractor1	EVAbeforeCON	acq_US_unple_masked	acq1_masked	1	18	0	0	300	300	0	0	635	46	0	1	0	0	0	1	blank2r.bmp	0	1	+	0	3	B3r.bmp	492	1	blank2r.bmp	786	1	GKQX	786	1	blank2r.bmp	866	5	tot	866	0	0	0	0	0	0	0	0	0	0	0	0	0	0	0	0	0	0	0	0	0	0	0	0	0	0	0	0	0	0	0	0	0
121918	10:13:22	10:17:57	274872	5.0.10.0	4_exp_AMP_EVA_AWA_CON	28	Rpleas_acq	Same	Rpleas	Bmasked	CS_B	1pleas	distractor1	EVAbeforeCON	acq_US_unple_masked	acq1_masked	1	19	0	0	300	300	0	0	787	46	0	1	0	0	0	1	blank2r.bmp	0	1	+	0	8	C4r.bmp	492	1	blank2r.bmp	786	1	GKQX	786	1	blank2r.bmp	866	2	lasch	866	0	0	0	0	0	0	0	0	0	0	0	0	0	0	0	0	0	0	0	0	0	0	0	0	0	0	0	0	0	0	0	0	0
121918	10:13:22	10:17:59	276805	5.0.10.0	4_exp_AMP_EVA_AWA_CON	28	Rpleas_acq	Same	Rpleas	Bmasked	CS_B	1pleas	distractor1	EVAbeforeCON	acq_new_unple_masked	acq1_masked	1	20	0	0	300	300	0	0	463	46	0	1	0	0	0	1	blank2r.bmp	0	1	+	0	4	B4r.bmp	492	1	blank2r.bmp	786	2	B2r.bmp	786	1	blank2r.bmp	866	3	schlecht	866	0	0	0	0	0	0	0	0	0	0	0	0	0	0	0	0	0	0	0	0	0	0	0	0	0	0	0	0	0	0	0	0	0
121918	10:13:22	10:18:02	278991	5.0.10.0	4_exp_AMP_EVA_AWA_CON	28	Rpleas_acq	Same	Rpleas	Bmasked	CS_B	1pleas	distractor1	EVAbeforeCON	acq_new_pleas_masked	acq1_masked	1	21	0	0	300	300	0	0	692	50	0	1	0	0	0	1	blank2r.bmp	0	1	+	0	2	B2r.bmp	492	1	blank2r.bmp	786	5	C1r.bmp	786	1	blank2r.bmp	866	1	spielen	866	0	0	0	0	0	0	0	0	0	0	0	0	0	0	0	0	0	0	0	0	0	0	0	0	0	0	0	0	0	0	0	0	0
121918	10:13:22	10:18:03	280963	5.0.10.0	4_exp_AMP_EVA_AWA_CON	28	Rpleas_acq	Same	Rpleas	Bmasked	CS_B	1pleas	distractor1	EVAbeforeCON	acq_new_pleas_masked	acq1_masked	1	22	0	0	300	300	0	0	492	50	0	1	0	0	0	1	blank2r.bmp	0	1	+	0	6	C2r.bmp	492	1	blank2r.bmp	786	1	B1r.bmp	786	1	blank2r.bmp	866	5	schlau	866	0	0	0	0	0	0	0	0	0	0	0	0	0	0	0	0	0	0	0	0	0	0	0	0	0	0	0	0	0	0	0	0	0
121918	10:13:22	10:18:06	283016	5.0.10.0	4_exp_AMP_EVA_AWA_CON	28	Rpleas_acq	Same	Rpleas	Bmasked	CS_B	1pleas	distractor1	EVAbeforeCON	acq_new_unple_masked	acq1_masked	1	23	0	0	300	300	0	0	583	46	0	1	0	0	0	1	blank2r.bmp	0	1	+	0	1	B1r.bmp	492	1	blank2r.bmp	786	8	C4r.bmp	786	1	blank2r.bmp	866	1	strafen	866	0	0	0	0	0	0	0	0	0	0	0	0	0	0	0	0	0	0	0	0	0	0	0	0	0	0	0	0	0	0	0	0	0
121918	10:13:22	10:18:08	285055	5.0.10.0	4_exp_AMP_EVA_AWA_CON	28	Rpleas_acq	Same	Rpleas	Bmasked	CS_B	1pleas	distractor1	EVAbeforeCON	acq_new_unple_masked	acq1_masked	1	24	0	0	300	300	0	0	551	46	0	1	0	0	0	1	blank2r.bmp	0	1	+	0	7	C3r.bmp	492	1	blank2r.bmp	786	6	C2r.bmp	786	1	blank2r.bmp	866	4	rächen	866	0	0	0	0	0	0	0	0	0	0	0	0	0	0	0	0	0	0	0	0	0	0	0	0	0	0	0	0	0	0	0	0	0
121918	10:13:22	10:18:10	287081	5.0.10.0	4_exp_AMP_EVA_AWA_CON	28	Rpleas_acq	Same	Rpleas	Bmasked	CS_B	1pleas	distractor1	EVAbeforeCON	acq_new_unple_masked	acq1_masked	1	25	0	0	300	300	0	0	553	46	0	1	0	0	0	1	blank2r.bmp	0	1	+	0	7	C3r.bmp	492	1	blank2r.bmp	786	4	B4r.bmp	786	1	blank2r.bmp	866	3	schlecht	866	0	0	0	0	0	0	0	0	0	0	0	0	0	0	0	0	0	0	0	0	0	0	0	0	0	0	0	0	0	0	0	0	0
121918	10:13:22	10:18:12	289067	5.0.10.0	4_exp_AMP_EVA_AWA_CON	28	Rpleas_acq	Same	Rpleas	Bmasked	CS_B	1pleas	distractor1	EVAbeforeCON	acq_new_pleas_masked	acq1_masked	1	26	0	0	300	300	0	0	499	50	0	1	0	0	0	1	blank2r.bmp	0	1	+	0	5	C1r.bmp	492	1	blank2r.bmp	786	2	B2r.bmp	786	1	blank2r.bmp	866	3	schön	866	0	0	0	0	0	0	0	0	0	0	0	0	0	0	0	0	0	0	0	0	0	0	0	0	0	0	0	0	0	0	0	0	0
121918	10:13:22	10:18:14	291026	5.0.10.0	4_exp_AMP_EVA_AWA_CON	28	Rpleas_acq	Same	Rpleas	Bmasked	CS_B	1pleas	distractor1	EVAbeforeCON	acq_new_pleas_masked	acq1_masked	1	27	0	0	300	300	0	0	485	50	0	1	0	0	0	1	blank2r.bmp	0	1	+	0	2	B2r.bmp	492	1	blank2r.bmp	786	3	B3r.bmp	786	1	blank2r.bmp	866	4	retten	866	0	0	0	0	0	0	0	0	0	0	0	0	0	0	0	0	0	0	0	0	0	0	0	0	0	0	0	0	0	0	0	0	0
121918	10:13:22	10:18:16	293092	5.0.10.0	4_exp_AMP_EVA_AWA_CON	28	Rpleas_acq	Same	Rpleas	Bmasked	CS_B	1pleas	distractor1	EVAbeforeCON	acq_new_unple_masked	acq1_masked	1	28	0	0	300	300	0	0	572	46	0	1	0	0	0	1	blank2r.bmp	0	1	+	0	6	C2r.bmp	492	1	blank2r.bmp	786	7	C3r.bmp	786	1	blank2r.bmp	866	2	eitel	866	0	0	0	0	0	0	0	0	0	0	0	0	0	0	0	0	0	0	0	0	0	0	0	0	0	0	0	0	0	0	0	0	0
121918	10:13:22	10:18:18	295304	5.0.10.0	4_exp_AMP_EVA_AWA_CON	28	Rpleas_acq	Same	Rpleas	Bmasked	CS_B	1pleas	distractor1	EVAbeforeCON	acq_US_pleas_masked	acq1_masked	1	29	0	0	300	300	0	0	737	50	0	1	0	0	0	1	blank2r.bmp	0	1	+	0	1	B1r.bmp	492	1	blank2r.bmp	786	1	BMVZ	786	1	blank2r.bmp	866	6	fair	866	0	0	0	0	0	0	0	0	0	0	0	0	0	0	0	0	0	0	0	0	0	0	0	0	0	0	0	0	0	0	0	0	0
121918	10:13:22	10:18:20	297197	5.0.10.0	4_exp_AMP_EVA_AWA_CON	28	Rpleas_acq	Same	Rpleas	Bmasked	CS_B	1pleas	distractor1	EVAbeforeCON	acq_US_unple_masked	acq1_masked	1	30	0	0	300	300	0	0	423	46	0	1	0	0	0	1	blank2r.bmp	0	1	+	0	8	C4r.bmp	492	1	blank2r.bmp	786	1	GKQX	786	1	blank2r.bmp	866	5	tot	866	0	0	0	0	0	0	0	0	0	0	0	0	0	0	0	0	0	0	0	0	0	0	0	0	0	0	0	0	0	0	0	0	0
121918	10:13:22	10:18:22	299182	5.0.10.0	4_exp_AMP_EVA_AWA_CON	28	Rpleas_acq	Same	Rpleas	Bmasked	CS_B	1pleas	distractor1	EVAbeforeCON	acq_US_pleas_masked	acq1_masked	1	31	0	0	300	300	0	0	495	50	0	1	0	0	0	1	blank2r.bmp	0	1	+	0	4	B4r.bmp	492	1	blank2r.bmp	786	1	BMVZ	786	1	blank2r.bmp	866	4	freundlich	866	0	0	0	0	0	0	0	0	0	0	0	0	0	0	0	0	0	0	0	0	0	0	0	0	0	0	0	0	0	0	0	0	0
121918	10:13:22	10:18:24	301195	5.0.10.0	4_exp_AMP_EVA_AWA_CON	28	Rpleas_acq	Same	Rpleas	Bmasked	CS_B	1pleas	distractor1	EVAbeforeCON	acq_new_unple_masked	acq1_masked	1	32	0	0	300	300	0	0	541	46	0	1	0	0	0	1	blank2r.bmp	0	1	+	0	3	B3r.bmp	492	1	blank2r.bmp	786	2	B2r.bmp	786	1	blank2r.bmp	866	6	tyrannisch	866	0	0	0	0	0	0	0	0	0	0	0	0	0	0	0	0	0	0	0	0	0	0	0	0	0	0	0	0	0	0	0	0	0
121918	10:13:22	10:18:26	303301	5.0.10.0	4_exp_AMP_EVA_AWA_CON	28	Rpleas_acq	Same	Rpleas	Bmasked	CS_B	1pleas	distractor1	EVAbeforeCON	acq_US_unple_masked	acq1_masked	1	33	0	0	300	300	0	0	620	46	0	1	0	0	0	1	blank2r.bmp	0	1	+	0	3	B3r.bmp	492	1	blank2r.bmp	786	1	GKQX	786	1	blank2r.bmp	866	4	fanatisch	866	0	0	0	0	0	0	0	0	0	0	0	0	0	0	0	0	0	0	0	0	0	0	0	0	0	0	0	0	0	0	0	0	0
121918	10:13:22	10:18:28	305287	5.0.10.0	4_exp_AMP_EVA_AWA_CON	28	Rpleas_acq	Same	Rpleas	Bmasked	CS_B	1pleas	distractor1	EVAbeforeCON	acq_new_pleas_masked	acq1_masked	1	34	0	0	300	300	0	0	492	50	0	1	0	0	0	1	blank2r.bmp	0	1	+	0	2	B2r.bmp	492	1	blank2r.bmp	786	5	C1r.bmp	786	1	blank2r.bmp	866	1	spielen	866	0	0	0	0	0	0	0	0	0	0	0	0	0	0	0	0	0	0	0	0	0	0	0	0	0	0	0	0	0	0	0	0	0
121918	10:13:22	10:18:30	307192	5.0.10.0	4_exp_AMP_EVA_AWA_CON	28	Rpleas_acq	Same	Rpleas	Bmasked	CS_B	1pleas	distractor1	EVAbeforeCON	acq_US_unple_masked	acq1_masked	1	35	0	0	300	300	0	0	418	46	0	1	0	0	0	1	blank2r.bmp	0	1	+	0	1	B1r.bmp	492	1	blank2r.bmp	786	1	GKQX	786	1	blank2r.bmp	866	2	lasch	866	0	0	0	0	0	0	0	0	0	0	0	0	0	0	0	0	0	0	0	0	0	0	0	0	0	0	0	0	0	0	0	0	0
121918	10:13:22	10:18:32	309178	5.0.10.0	4_exp_AMP_EVA_AWA_CON	28	Rpleas_acq	Same	Rpleas	Bmasked	CS_B	1pleas	distractor1	EVAbeforeCON	acq_US_pleas_masked	acq1_masked	1	36	0	0	300	300	0	0	514	50	0	1	0	0	0	1	blank2r.bmp	0	1	+	0	7	C3r.bmp	492	1	blank2r.bmp	786	1	BMVZ	786	1	blank2r.bmp	866	3	lachen	866	0	0	0	0	0	0	0	0	0	0	0	0	0	0	0	0	0	0	0	0	0	0	0	0	0	0	0	0	0	0	0	0	0
121918	10:13:22	10:19:18	355146	5.0.10.0	4_exp_AMP_EVA_AWA_CON	28	Rpleas_acq	Same	Rpleas	Bmasked	CS_B	1pleas	distractor1	EVAbeforeCON	acq_US_pleas_masked	acq2_masked	2	1	480	0	300	300	0	0	939	50	0	1	0	0	0	1	blank2r.bmp	0	1	+	0	4	B4r.bmp	492	1	blank2r.bmp	786	1	BMVZ	786	1	blank2r.bmp	866	5	treu	866	1	!	1319	1	!	-1	0	0	0	0	0	0	0	0	0	0	0	0	0	0	0	0	0	0	0	0	0	0	0	0	0	0	0
121918	10:13:22	10:19:20	357678	5.0.10.0	4_exp_AMP_EVA_AWA_CON	28	Rpleas_acq	Same	Rpleas	Bmasked	CS_B	1pleas	distractor1	EVAbeforeCON	acq_US_pleas_masked	acq2_masked	2	2	480	1	300	300	0	0	500	46	0	0	0	0	0	1	blank2r.bmp	0	1	+	0	8	C4r.bmp	492	1	blank2r.bmp	786	1	BMVZ	786	1	blank2r.bmp	866	2	loyal	866	1	FEHLER	1719	1	!	1319	1	!	1399	0	0	0	0	0	0	0	0	0	0	0	0	0	0	0	0	0	0	0	0	0	0	0	0
121918	10:13:22	10:19:22	359731	5.0.10.0	4_exp_AMP_EVA_AWA_CON	28	Rpleas_acq	Same	Rpleas	Bmasked	CS_B	1pleas	distractor1	EVAbeforeCON	acq_new_unple_masked	acq2_masked	2	3	480	1	300	300	0	0	475	46	0	1	0	0	0	1	blank2r.bmp	0	1	+	0	6	C2r.bmp	492	1	blank2r.bmp	786	8	C4r.bmp	786	1	blank2r.bmp	866	5	schroff	866	1	!	1319	1	!	1372	0	0	0	0	0	0	0	0	0	0	0	0	0	0	0	0	0	0	0	0	0	0	0	0	0	0	0
121918	10:13:22	10:19:25	362063	5.0.10.0	4_exp_AMP_EVA_AWA_CON	28	Rpleas_acq	Same	Rpleas	Bmasked	CS_B	1pleas	distractor1	EVAbeforeCON	acq_new_pleas_masked	acq2_masked	2	4	480	1	300	300	0	0	529	50	0	1	0	0	0	1	blank2r.bmp	0	1	+	0	5	C1r.bmp	492	1	blank2r.bmp	786	4	B4r.bmp	786	1	blank2r.bmp	866	5	schlau	866	1	!	1319	1	!	1426	0	0	0	0	0	0	0	0	0	0	0	0	0	0	0	0	0	0	0	0	0	0	0	0	0	0	0
121918	10:13:22	10:19:27	364342	5.0.10.0	4_exp_AMP_EVA_AWA_CON	28	Rpleas_acq	Same	Rpleas	Bmasked	CS_B	1pleas	distractor1	EVAbeforeCON	acq_US_unple_masked	acq2_masked	2	5	480	1	300	300	0	0	482	46	0	1	0	0	0	1	blank2r.bmp	0	1	+	0	8	C4r.bmp	492	1	blank2r.bmp	786	1	GKQX	786	1	blank2r.bmp	866	3	leiden	866	1	!	1319	1	!	1386	0	0	0	0	0	0	0	0	0	0	0	0	0	0	0	0	0	0	0	0	0	0	0	0	0	0	0
121918	10:13:22	10:19:29	366661	5.0.10.0	4_exp_AMP_EVA_AWA_CON	28	Rpleas_acq	Same	Rpleas	Bmasked	CS_B	1pleas	distractor1	EVAbeforeCON	acq_US_unple_masked	acq2_masked	2	6	480	1	300	300	0	0	528	46	0	1	0	0	0	1	blank2r.bmp	0	1	+	0	2	B2r.bmp	492	1	blank2r.bmp	786	1	GKQX	786	1	blank2r.bmp	866	1	hindern	866	1	!	1319	1	!	1426	0	0	0	0	0	0	0	0	0	0	0	0	0	0	0	0	0	0	0	0	0	0	0	0	0	0	0
121918	10:13:22	10:19:31	368767	5.0.10.0	4_exp_AMP_EVA_AWA_CON	28	Rpleas_acq	Same	Rpleas	Bmasked	CS_B	1pleas	distractor1	EVAbeforeCON	acq_US_pleas_masked	acq2_masked	2	7	480	0	300	300	0	0	344	50	0	1	0	0	0	1	blank2r.bmp	0	1	+	0	1	B1r.bmp	492	1	blank2r.bmp	786	1	BMVZ	786	1	blank2r.bmp	866	1	helfen	866	1	!	-1	1	!	-1	0	0	0	0	0	0	0	0	0	0	0	0	0	0	0	0	0	0	0	0	0	0	0	0	0	0	0
121918	10:13:22	10:19:34	371073	5.0.10.0	4_exp_AMP_EVA_AWA_CON	28	Rpleas_acq	Same	Rpleas	Bmasked	CS_B	1pleas	distractor1	EVAbeforeCON	acq_new_pleas_masked	acq2_masked	2	8	480	1	300	300	0	0	494	50	0	1	0	0	0	1	blank2r.bmp	0	1	+	0	5	C1r.bmp	492	1	blank2r.bmp	786	1	B1r.bmp	786	1	blank2r.bmp	866	6	tolerant	866	1	!	1319	1	!	1399	0	0	0	0	0	0	0	0	0	0	0	0	0	0	0	0	0	0	0	0	0	0	0	0	0	0	0
121918	10:13:22	10:19:36	373512	5.0.10.0	4_exp_AMP_EVA_AWA_CON	28	Rpleas_acq	Same	Rpleas	Bmasked	CS_B	1pleas	distractor1	EVAbeforeCON	acq_new_unple_masked	acq2_masked	2	9	480	1	300	300	0	0	428	50	0	0	0	0	0	1	blank2r.bmp	0	1	+	0	6	C2r.bmp	492	1	blank2r.bmp	786	7	C3r.bmp	786	1	blank2r.bmp	866	4	rächen	866	1	FEHLER	1652	1	!	1319	1	!	1332	0	0	0	0	0	0	0	0	0	0	0	0	0	0	0	0	0	0	0	0	0	0	0	0
121918	10:13:22	10:19:38	375564	5.0.10.0	4_exp_AMP_EVA_AWA_CON	28	Rpleas_acq	Same	Rpleas	Bmasked	CS_B	1pleas	distractor1	EVAbeforeCON	acq_new_unple_masked	acq2_masked	2	10	480	1	300	300	0	0	473	46	0	1	0	0	0	1	blank2r.bmp	0	1	+	0	3	B3r.bmp	492	1	blank2r.bmp	786	6	C2r.bmp	786	1	blank2r.bmp	866	1	strafen	866	1	!	1319	1	!	1372	0	0	0	0	0	0	0	0	0	0	0	0	0	0	0	0	0	0	0	0	0	0	0	0	0	0	0
121918	10:13:22	10:19:40	377817	5.0.10.0	4_exp_AMP_EVA_AWA_CON	28	Rpleas_acq	Same	Rpleas	Bmasked	CS_B	1pleas	distractor1	EVAbeforeCON	acq_US_unple_masked	acq2_masked	2	11	480	1	300	300	0	0	445	46	0	1	0	0	0	1	blank2r.bmp	0	1	+	0	4	B4r.bmp	492	1	blank2r.bmp	786	1	GKQX	786	1	blank2r.bmp	866	6	faul	866	1	!	1319	1	!	1346	0	0	0	0	0	0	0	0	0	0	0	0	0	0	0	0	0	0	0	0	0	0	0	0	0	0	0
121918	10:13:22	10:19:43	379976	5.0.10.0	4_exp_AMP_EVA_AWA_CON	28	Rpleas_acq	Same	Rpleas	Bmasked	CS_B	1pleas	distractor1	EVAbeforeCON	acq_new_pleas_masked	acq2_masked	2	12	480	0	300	300	0	0	394	50	0	1	0	0	0	1	blank2r.bmp	0	1	+	0	7	C3r.bmp	492	1	blank2r.bmp	786	3	B3r.bmp	786	1	blank2r.bmp	866	2	ehrlich	866	1	!	-1	1	!	-1	0	0	0	0	0	0	0	0	0	0	0	0	0	0	0	0	0	0	0	0	0	0	0	0	0	0	0
121918	10:13:22	10:19:45	382241	5.0.10.0	4_exp_AMP_EVA_AWA_CON	28	Rpleas_acq	Same	Rpleas	Bmasked	CS_B	1pleas	distractor1	EVAbeforeCON	acq_US_unple_masked	acq2_masked	2	13	480	1	300	300	0	0	461	46	0	1	0	0	0	1	blank2r.bmp	0	1	+	0	3	B3r.bmp	492	1	blank2r.bmp	786	1	GKQX	786	1	blank2r.bmp	866	6	faul	866	1	!	1319	1	!	1359	0	0	0	0	0	0	0	0	0	0	0	0	0	0	0	0	0	0	0	0	0	0	0	0	0	0	0
121918	10:13:22	10:19:47	384627	5.0.10.0	4_exp_AMP_EVA_AWA_CON	28	Rpleas_acq	Same	Rpleas	Bmasked	CS_B	1pleas	distractor1	EVAbeforeCON	acq_US_pleas_masked	acq2_masked	2	14	480	0	300	300	0	0	601	50	0	1	0	0	0	1	blank2r.bmp	0	1	+	0	1	B1r.bmp	492	1	blank2r.bmp	786	1	BMVZ	786	1	blank2r.bmp	866	3	lachen	866	1	!	1319	1	!	-1	0	0	0	0	0	0	0	0	0	0	0	0	0	0	0	0	0	0	0	0	0	0	0	0	0	0	0
121918	10:13:22	10:19:50	386999	5.0.10.0	4_exp_AMP_EVA_AWA_CON	28	Rpleas_acq	Same	Rpleas	Bmasked	CS_B	1pleas	distractor1	EVAbeforeCON	acq_new_pleas_masked	acq2_masked	2	15	480	0	300	300	0	0	361	46	0	0	0	0	0	1	blank2r.bmp	0	1	+	0	7	C3r.bmp	492	1	blank2r.bmp	786	4	B4r.bmp	786	1	blank2r.bmp	866	5	schlau	866	1	FEHLER	1572	1	!	-1	1	!	-1	0	0	0	0	0	0	0	0	0	0	0	0	0	0	0	0	0	0	0	0	0	0	0	0
121918	10:13:22	10:19:52	389025	5.0.10.0	4_exp_AMP_EVA_AWA_CON	28	Rpleas_acq	Same	Rpleas	Bmasked	CS_B	1pleas	distractor1	EVAbeforeCON	acq_new_pleas_masked	acq2_masked	2	16	480	1	300	300	0	0	440	50	0	1	0	0	0	1	blank2r.bmp	0	1	+	0	2	B2r.bmp	492	1	blank2r.bmp	786	6	C2r.bmp	786	1	blank2r.bmp	866	6	tolerant	866	1	!	1319	1	!	1346	0	0	0	0	0	0	0	0	0	0	0	0	0	0	0	0	0	0	0	0	0	0	0	0	0	0	0
121918	10:13:22	10:19:54	391438	5.0.10.0	4_exp_AMP_EVA_AWA_CON	28	Rpleas_acq	Same	Rpleas	Bmasked	CS_B	1pleas	distractor1	EVAbeforeCON	acq_US_pleas_masked	acq2_masked	2	17	480	0	300	300	0	0	635	50	0	1	0	0	0	1	blank2r.bmp	0	1	+	0	5	C1r.bmp	492	1	blank2r.bmp	786	1	BMVZ	786	1	blank2r.bmp	866	6	fair	866	1	!	1319	1	!	-1	0	0	0	0	0	0	0	0	0	0	0	0	0	0	0	0	0	0	0	0	0	0	0	0	0	0	0
121918	10:13:22	10:19:56	393890	5.0.10.0	4_exp_AMP_EVA_AWA_CON	28	Rpleas_acq	Same	Rpleas	Bmasked	CS_B	1pleas	distractor1	EVAbeforeCON	acq_new_pleas_masked	acq2_masked	2	18	480	1	300	300	0	0	426	46	0	0	0	0	0	1	blank2r.bmp	0	1	+	0	6	C2r.bmp	492	1	blank2r.bmp	786	5	C1r.bmp	786	1	blank2r.bmp	866	3	schön	866	1	FEHLER	1652	1	!	1319	1	!	1332	0	0	0	0	0	0	0	0	0	0	0	0	0	0	0	0	0	0	0	0	0	0	0	0
121918	10:13:22	10:19:58	395836	5.0.10.0	4_exp_AMP_EVA_AWA_CON	28	Rpleas_acq	Same	Rpleas	Bmasked	CS_B	1pleas	distractor1	EVAbeforeCON	acq_new_unple_masked	acq2_masked	2	19	480	0	300	300	0	0	373	46	0	1	0	0	0	1	blank2r.bmp	0	1	+	0	8	C4r.bmp	492	1	blank2r.bmp	786	1	B1r.bmp	786	1	blank2r.bmp	866	3	schlecht	866	1	!	-1	1	!	-1	0	0	0	0	0	0	0	0	0	0	0	0	0	0	0	0	0	0	0	0	0	0	0	0	0	0	0
121918	10:13:22	10:20:01	398288	5.0.10.0	4_exp_AMP_EVA_AWA_CON	28	Rpleas_acq	Same	Rpleas	Bmasked	CS_B	1pleas	distractor1	EVAbeforeCON	acq_new_unple_masked	acq2_masked	2	20	480	1	300	300	0	0	434	50	0	0	0	0	0	1	blank2r.bmp	0	1	+	0	4	B4r.bmp	492	1	blank2r.bmp	786	2	B2r.bmp	786	1	blank2r.bmp	866	2	eitel	866	1	FEHLER	1652	1	!	1319	1	!	1332	0	0	0	0	0	0	0	0	0	0	0	0	0	0	0	0	0	0	0	0	0	0	0	0
121918	10:13:22	10:20:03	400341	5.0.10.0	4_exp_AMP_EVA_AWA_CON	28	Rpleas_acq	Same	Rpleas	Bmasked	CS_B	1pleas	distractor1	EVAbeforeCON	acq_US_unple_masked	acq2_masked	2	21	480	1	300	300	0	0	460	46	0	1	0	0	0	1	blank2r.bmp	0	1	+	0	5	C1r.bmp	492	1	blank2r.bmp	786	1	GKQX	786	1	blank2r.bmp	866	2	lasch	866	1	!	1319	1	!	1359	0	0	0	0	0	0	0	0	0	0	0	0	0	0	0	0	0	0	0	0	0	0	0	0	0	0	0
121918	10:13:22	10:20:05	402566	5.0.10.0	4_exp_AMP_EVA_AWA_CON	28	Rpleas_acq	Same	Rpleas	Bmasked	CS_B	1pleas	distractor1	EVAbeforeCON	acq_new_unple_masked	acq2_masked	2	22	480	1	300	300	0	0	426	46	0	1	0	0	0	1	blank2r.bmp	0	1	+	0	6	C2r.bmp	492	1	blank2r.bmp	786	3	B3r.bmp	786	1	blank2r.bmp	866	6	tyrannisch	866	1	!	1319	1	!	1332	0	0	0	0	0	0	0	0	0	0	0	0	0	0	0	0	0	0	0	0	0	0	0	0	0	0	0
121918	10:13:22	10:20:07	404819	5.0.10.0	4_exp_AMP_EVA_AWA_CON	28	Rpleas_acq	Same	Rpleas	Bmasked	CS_B	1pleas	distractor1	EVAbeforeCON	acq_US_unple_masked	acq2_masked	2	23	480	1	300	300	0	0	446	46	0	1	0	0	0	1	blank2r.bmp	0	1	+	0	1	B1r.bmp	492	1	blank2r.bmp	786	1	GKQX	786	1	blank2r.bmp	866	3	leiden	866	1	!	1319	1	!	1346	0	0	0	0	0	0	0	0	0	0	0	0	0	0	0	0	0	0	0	0	0	0	0	0	0	0	0
121918	10:13:22	10:20:10	406965	5.0.10.0	4_exp_AMP_EVA_AWA_CON	28	Rpleas_acq	Same	Rpleas	Bmasked	CS_B	1pleas	distractor1	EVAbeforeCON	acq_US_pleas_masked	acq2_masked	2	24	480	0	300	300	0	0	373	50	0	1	0	0	0	1	blank2r.bmp	0	1	+	0	7	C3r.bmp	492	1	blank2r.bmp	786	1	BMVZ	786	1	blank2r.bmp	866	5	treu	866	1	!	-1	1	!	-1	0	0	0	0	0	0	0	0	0	0	0	0	0	0	0	0	0	0	0	0	0	0	0	0	0	0	0
121918	10:13:22	10:20:12	409217	5.0.10.0	4_exp_AMP_EVA_AWA_CON	28	Rpleas_acq	Same	Rpleas	Bmasked	CS_B	1pleas	distractor1	EVAbeforeCON	acq_US_pleas_masked	acq2_masked	2	25	480	1	300	300	0	0	447	50	0	1	0	0	0	1	blank2r.bmp	0	1	+	0	4	B4r.bmp	492	1	blank2r.bmp	786	1	BMVZ	786	1	blank2r.bmp	866	1	helfen	866	1	!	1319	1	!	1346	0	0	0	0	0	0	0	0	0	0	0	0	0	0	0	0	0	0	0	0	0	0	0	0	0	0	0
121918	10:13:22	10:20:14	411363	5.0.10.0	4_exp_AMP_EVA_AWA_CON	28	Rpleas_acq	Same	Rpleas	Bmasked	CS_B	1pleas	distractor1	EVAbeforeCON	acq_new_pleas_masked	acq2_masked	2	26	480	0	300	300	0	0	382	50	0	1	0	0	0	1	blank2r.bmp	0	1	+	0	3	B3r.bmp	492	1	blank2r.bmp	786	8	C4r.bmp	786	1	blank2r.bmp	866	2	ehrlich	866	1	!	-1	1	!	-1	0	0	0	0	0	0	0	0	0	0	0	0	0	0	0	0	0	0	0	0	0	0	0	0	0	0	0
121918	10:13:22	10:20:16	413628	5.0.10.0	4_exp_AMP_EVA_AWA_CON	28	Rpleas_acq	Same	Rpleas	Bmasked	CS_B	1pleas	distractor1	EVAbeforeCON	acq_new_unple_masked	acq2_masked	2	27	480	1	300	300	0	0	453	46	0	1	0	0	0	1	blank2r.bmp	0	1	+	0	2	B2r.bmp	492	1	blank2r.bmp	786	7	C3r.bmp	786	1	blank2r.bmp	866	5	schroff	866	1	!	1319	1	!	1359	0	0	0	0	0	0	0	0	0	0	0	0	0	0	0	0	0	0	0	0	0	0	0	0	0	0	0
121918	10:13:22	10:20:19	416241	5.0.10.0	4_exp_AMP_EVA_AWA_CON	28	Rpleas_acq	Same	Rpleas	Bmasked	CS_B	1pleas	distractor1	EVAbeforeCON	acq_new_pleas_masked	acq2_masked	2	28	480	0	300	300	0	0	598	46	0	0	0	0	0	1	blank2r.bmp	0	1	+	0	8	C4r.bmp	492	1	blank2r.bmp	786	4	B4r.bmp	786	1	blank2r.bmp	866	4	retten	866	1	FEHLER	1812	1	!	1319	1	!	-1	0	0	0	0	0	0	0	0	0	0	0	0	0	0	0	0	0	0	0	0	0	0	0	0
121918	10:13:22	10:20:21	418280	5.0.10.0	4_exp_AMP_EVA_AWA_CON	28	Rpleas_acq	Same	Rpleas	Bmasked	CS_B	1pleas	distractor1	EVAbeforeCON	acq_new_pleas_masked	acq2_masked	2	29	480	1	300	300	0	0	460	50	0	1	0	0	0	1	blank2r.bmp	0	1	+	0	8	C4r.bmp	492	1	blank2r.bmp	786	1	B1r.bmp	786	1	blank2r.bmp	866	1	spielen	866	1	!	1319	1	!	1359	0	0	0	0	0	0	0	0	0	0	0	0	0	0	0	0	0	0	0	0	0	0	0	0	0	0	0
121918	10:13:22	10:20:23	420426	5.0.10.0	4_exp_AMP_EVA_AWA_CON	28	Rpleas_acq	Same	Rpleas	Bmasked	CS_B	1pleas	distractor1	EVAbeforeCON	acq_US_pleas_masked	acq2_masked	2	30	480	0	300	300	0	0	371	50	0	1	0	0	0	1	blank2r.bmp	0	1	+	0	5	C1r.bmp	492	1	blank2r.bmp	786	1	BMVZ	786	1	blank2r.bmp	866	2	loyal	866	1	!	-1	1	!	-1	0	0	0	0	0	0	0	0	0	0	0	0	0	0	0	0	0	0	0	0	0	0	0	0	0	0	0
121918	10:13:22	10:20:26	422985	5.0.10.0	4_exp_AMP_EVA_AWA_CON	28	Rpleas_acq	Same	Rpleas	Bmasked	CS_B	1pleas	distractor1	EVAbeforeCON	acq_US_unple_masked	acq2_masked	2	31	480	1	300	300	0	0	541	50	0	0	0	0	0	1	blank2r.bmp	0	1	+	0	4	B4r.bmp	492	1	blank2r.bmp	786	1	GKQX	786	1	blank2r.bmp	866	1	hindern	866	1	FEHLER	1759	1	!	1319	1	!	1439	0	0	0	0	0	0	0	0	0	0	0	0	0	0	0	0	0	0	0	0	0	0	0	0
121918	10:13:22	10:20:28	425024	5.0.10.0	4_exp_AMP_EVA_AWA_CON	28	Rpleas_acq	Same	Rpleas	Bmasked	CS_B	1pleas	distractor1	EVAbeforeCON	acq_new_unple_masked	acq2_masked	2	32	480	1	300	300	0	0	461	46	0	1	0	0	0	1	blank2r.bmp	0	1	+	0	7	C3r.bmp	492	1	blank2r.bmp	786	5	C1r.bmp	786	1	blank2r.bmp	866	4	rächen	866	1	!	1319	1	!	1359	0	0	0	0	0	0	0	0	0	0	0	0	0	0	0	0	0	0	0	0	0	0	0	0	0	0	0
121918	10:13:22	10:20:30	427289	5.0.10.0	4_exp_AMP_EVA_AWA_CON	28	Rpleas_acq	Same	Rpleas	Bmasked	CS_B	1pleas	distractor1	EVAbeforeCON	acq_US_unple_masked	acq2_masked	2	33	480	1	300	300	0	0	478	46	0	1	0	0	0	1	blank2r.bmp	0	1	+	0	3	B3r.bmp	492	1	blank2r.bmp	786	1	GKQX	786	1	blank2r.bmp	866	4	fanatisch	866	1	!	1319	1	!	1372	0	0	0	0	0	0	0	0	0	0	0	0	0	0	0	0	0	0	0	0	0	0	0	0	0	0	0
121918	10:13:22	10:20:32	429609	5.0.10.0	4_exp_AMP_EVA_AWA_CON	28	Rpleas_acq	Same	Rpleas	Bmasked	CS_B	1pleas	distractor1	EVAbeforeCON	acq_new_unple_masked	acq2_masked	2	34	480	1	300	300	0	0	524	46	0	1	0	0	0	1	blank2r.bmp	0	1	+	0	6	C2r.bmp	492	1	blank2r.bmp	786	3	B3r.bmp	786	1	blank2r.bmp	866	1	strafen	866	1	!	1319	1	!	1426	0	0	0	0	0	0	0	0	0	0	0	0	0	0	0	0	0	0	0	0	0	0	0	0	0	0	0
121918	10:13:22	10:20:34	431914	5.0.10.0	4_exp_AMP_EVA_AWA_CON	28	Rpleas_acq	Same	Rpleas	Bmasked	CS_B	1pleas	distractor1	EVAbeforeCON	acq_US_unple_masked	acq2_masked	2	35	480	1	300	300	0	0	508	46	0	1	0	0	0	1	blank2r.bmp	0	1	+	0	1	B1r.bmp	492	1	blank2r.bmp	786	1	GKQX	786	1	blank2r.bmp	866	5	tot	866	1	!	1319	1	!	1412	0	0	0	0	0	0	0	0	0	0	0	0	0	0	0	0	0	0	0	0	0	0	0	0	0	0	0
121918	10:13:22	10:20:37	434247	5.0.10.0	4_exp_AMP_EVA_AWA_CON	28	Rpleas_acq	Same	Rpleas	Bmasked	CS_B	1pleas	distractor1	EVAbeforeCON	acq_US_pleas_masked	acq2_masked	2	36	480	1	300	300	0	0	543	50	0	1	0	0	0	1	blank2r.bmp	0	1	+	0	2	B2r.bmp	492	1	blank2r.bmp	786	1	BMVZ	786	1	blank2r.bmp	866	4	freundlich	866	1	!	1319	1	!	1439	0	0	0	0	0	0	0	0	0	0	0	0	0	0	0	0	0	0	0	0	0	0	0	0	0	0	0
121918	10:13:22	10:20:56	453372	5.0.10.0	4_exp_AMP_EVA_AWA_CON	28	Rpleas_acq	Same	Rpleas	Bmasked	CS_B	1pleas	distractor1	EVAbeforeCON	acq_US_pleas_masked	acq3_masked	3	1	453	0	300	300	0	0	567	50	0	1	0	0	0	1	blank2r.bmp	0	1	+	0	2	B2r.bmp	492	1	blank2r.bmp	786	1	BMVZ	786	1	blank2r.bmp	866	2	loyal	866	1	!	1292	1	!	-1	0	0	0	0	0	0	0	0	0	0	0	0	0	0	0	0	0	0	0	0	0	0	0	0	0	0	0
121918	10:13:22	10:20:58	455651	5.0.10.0	4_exp_AMP_EVA_AWA_CON	28	Rpleas_acq	Same	Rpleas	Bmasked	CS_B	1pleas	distractor1	EVAbeforeCON	acq_US_unple_masked	acq3_masked	3	2	453	1	300	300	0	0	468	46	0	1	0	0	0	1	blank2r.bmp	0	1	+	0	4	B4r.bmp	492	1	blank2r.bmp	786	1	GKQX	786	1	blank2r.bmp	866	3	leiden	866	1	!	1292	1	!	1372	0	0	0	0	0	0	0	0	0	0	0	0	0	0	0	0	0	0	0	0	0	0	0	0	0	0	0
121918	10:13:22	10:21:00	457864	5.0.10.0	4_exp_AMP_EVA_AWA_CON	28	Rpleas_acq	Same	Rpleas	Bmasked	CS_B	1pleas	distractor1	EVAbeforeCON	acq_US_unple_masked	acq3_masked	3	3	453	1	300	300	0	0	424	46	0	1	0	0	0	1	blank2r.bmp	0	1	+	0	1	B1r.bmp	492	1	blank2r.bmp	786	1	GKQX	786	1	blank2r.bmp	866	1	hindern	866	1	!	1292	1	!	1319	0	0	0	0	0	0	0	0	0	0	0	0	0	0	0	0	0	0	0	0	0	0	0	0	0	0	0
121918	10:13:22	10:21:03	460009	5.0.10.0	4_exp_AMP_EVA_AWA_CON	28	Rpleas_acq	Same	Rpleas	Bmasked	CS_B	1pleas	distractor1	EVAbeforeCON	acq_US_pleas_masked	acq3_masked	3	4	453	0	300	300	0	0	375	50	0	1	0	0	0	1	blank2r.bmp	0	1	+	0	5	C1r.bmp	492	1	blank2r.bmp	786	1	BMVZ	786	1	blank2r.bmp	866	3	lachen	866	1	!	-1	1	!	-1	0	0	0	0	0	0	0	0	0	0	0	0	0	0	0	0	0	0	0	0	0	0	0	0	0	0	0
121918	10:13:22	10:21:05	462155	5.0.10.0	4_exp_AMP_EVA_AWA_CON	28	Rpleas_acq	Same	Rpleas	Bmasked	CS_B	1pleas	distractor1	EVAbeforeCON	acq_US_unple_masked	acq3_masked	3	5	453	0	300	300	0	0	357	46	0	1	0	0	0	1	blank2r.bmp	0	1	+	0	3	B3r.bmp	492	1	blank2r.bmp	786	1	GKQX	786	1	blank2r.bmp	866	5	tot	866	1	!	-1	1	!	-1	0	0	0	0	0	0	0	0	0	0	0	0	0	0	0	0	0	0	0	0	0	0	0	0	0	0	0
121918	10:13:22	10:21:07	464474	5.0.10.0	4_exp_AMP_EVA_AWA_CON	28	Rpleas_acq	Same	Rpleas	Bmasked	CS_B	1pleas	distractor1	EVAbeforeCON	acq_US_pleas_masked	acq3_masked	3	6	453	1	300	300	0	0	514	50	0	1	0	0	0	1	blank2r.bmp	0	1	+	0	6	C2r.bmp	492	1	blank2r.bmp	786	1	BMVZ	786	1	blank2r.bmp	866	5	treu	866	1	!	1292	1	!	1412	0	0	0	0	0	0	0	0	0	0	0	0	0	0	0	0	0	0	0	0	0	0	0	0	0	0	0
121918	10:13:22	10:21:09	466780	5.0.10.0	4_exp_AMP_EVA_AWA_CON	28	Rpleas_acq	Same	Rpleas	Bmasked	CS_B	1pleas	distractor1	EVAbeforeCON	acq_US_unple_masked	acq3_masked	3	7	453	0	300	300	0	0	532	46	0	1	0	0	0	1	blank2r.bmp	0	1	+	0	8	C4r.bmp	492	1	blank2r.bmp	786	1	GKQX	786	1	blank2r.bmp	866	4	fanatisch	866	1	!	1292	1	!	-1	0	0	0	0	0	0	0	0	0	0	0	0	0	0	0	0	0	0	0	0	0	0	0	0	0	0	0
121918	10:13:22	10:21:12	469006	5.0.10.0	4_exp_AMP_EVA_AWA_CON	28	Rpleas_acq	Same	Rpleas	Bmasked	CS_B	1pleas	distractor1	EVAbeforeCON	acq_US_pleas_masked	acq3_masked	3	8	453	1	300	300	0	0	403	50	0	1	0	0	0	1	blank2r.bmp	0	1	+	0	7	C3r.bmp	492	1	blank2r.bmp	786	1	BMVZ	786	1	blank2r.bmp	866	1	helfen	866	1	!	1292	1	!	1306	0	0	0	0	0	0	0	0	0	0	0	0	0	0	0	0	0	0	0	0	0	0	0	0	0	0	0
121918	10:13:22	10:21:14	471205	5.0.10.0	4_exp_AMP_EVA_AWA_CON	28	Rpleas_acq	Same	Rpleas	Bmasked	CS_B	1pleas	distractor1	EVAbeforeCON	acq_US_pleas_masked	acq3_masked	3	9	453	1	300	300	0	0	399	50	0	1	0	0	0	1	blank2r.bmp	0	1	+	0	7	C3r.bmp	492	1	blank2r.bmp	786	1	BMVZ	786	1	blank2r.bmp	866	4	freundlich	866	1	!	1292	1	!	1306	0	0	0	0	0	0	0	0	0	0	0	0	0	0	0	0	0	0	0	0	0	0	0	0	0	0	0
121918	10:13:22	10:21:16	473577	5.0.10.0	4_exp_AMP_EVA_AWA_CON	28	Rpleas_acq	Same	Rpleas	Bmasked	CS_B	1pleas	distractor1	EVAbeforeCON	acq_US_unple_masked	acq3_masked	3	10	453	0	300	300	0	0	376	50	0	0	0	0	0	1	blank2r.bmp	0	1	+	0	8	C4r.bmp	492	1	blank2r.bmp	786	1	GKQX	786	1	blank2r.bmp	866	6	faul	866	1	FEHLER	1586	1	!	-1	1	!	-1	0	0	0	0	0	0	0	0	0	0	0	0	0	0	0	0	0	0	0	0	0	0	0	0
121918	10:13:22	10:21:18	475563	5.0.10.0	4_exp_AMP_EVA_AWA_CON	28	Rpleas_acq	Same	Rpleas	Bmasked	CS_B	1pleas	distractor1	EVAbeforeCON	acq_US_unple_masked	acq3_masked	3	11	453	1	300	300	0	0	407	46	0	1	0	0	0	1	blank2r.bmp	0	1	+	0	4	B4r.bmp	492	1	blank2r.bmp	786	1	GKQX	786	1	blank2r.bmp	866	2	lasch	866	1	!	1292	1	!	1306	0	0	0	0	0	0	0	0	0	0	0	0	0	0	0	0	0	0	0	0	0	0	0	0	0	0	0
121918	10:13:22	10:21:20	477642	5.0.10.0	4_exp_AMP_EVA_AWA_CON	28	Rpleas_acq	Same	Rpleas	Bmasked	CS_B	1pleas	distractor1	EVAbeforeCON	acq_US_pleas_masked	acq3_masked	3	12	453	0	300	300	0	0	316	50	0	1	0	0	0	1	blank2r.bmp	0	1	+	0	2	B2r.bmp	492	1	blank2r.bmp	786	1	BMVZ	786	1	blank2r.bmp	866	6	fair	866	1	!	-1	1	!	-1	0	0	0	0	0	0	0	0	0	0	0	0	0	0	0	0	0	0	0	0	0	0	0	0	0	0	0
121918	10:13:22	10:21:23	479961	5.0.10.0	4_exp_AMP_EVA_AWA_CON	28	Rpleas_acq	Same	Rpleas	Bmasked	CS_B	1pleas	distractor1	EVAbeforeCON	acq_US_pleas_masked	acq3_masked	3	13	453	0	300	300	0	0	538	50	0	1	0	0	0	1	blank2r.bmp	0	1	+	0	3	B3r.bmp	492	1	blank2r.bmp	786	1	BMVZ	786	1	blank2r.bmp	866	4	freundlich	866	1	!	1292	1	!	-1	0	0	0	0	0	0	0	0	0	0	0	0	0	0	0	0	0	0	0	0	0	0	0	0	0	0	0
121918	10:13:22	10:21:25	482134	5.0.10.0	4_exp_AMP_EVA_AWA_CON	28	Rpleas_acq	Same	Rpleas	Bmasked	CS_B	1pleas	distractor1	EVAbeforeCON	acq_US_unple_masked	acq3_masked	3	14	453	0	300	300	0	0	382	46	0	1	0	0	0	1	blank2r.bmp	0	1	+	0	6	C2r.bmp	492	1	blank2r.bmp	786	1	GKQX	786	1	blank2r.bmp	866	1	hindern	866	1	!	-1	1	!	-1	0	0	0	0	0	0	0	0	0	0	0	0	0	0	0	0	0	0	0	0	0	0	0	0	0	0	0
121918	10:13:22	10:21:27	484386	5.0.10.0	4_exp_AMP_EVA_AWA_CON	28	Rpleas_acq	Same	Rpleas	Bmasked	CS_B	1pleas	distractor1	EVAbeforeCON	acq_US_unple_masked	acq3_masked	3	15	453	1	300	300	0	0	440	46	0	1	0	0	0	1	blank2r.bmp	0	1	+	0	5	C1r.bmp	492	1	blank2r.bmp	786	1	GKQX	786	1	blank2r.bmp	866	5	tot	866	1	!	1292	1	!	1346	0	0	0	0	0	0	0	0	0	0	0	0	0	0	0	0	0	0	0	0	0	0	0	0	0	0	0
121918	10:13:22	10:21:29	486625	5.0.10.0	4_exp_AMP_EVA_AWA_CON	28	Rpleas_acq	Same	Rpleas	Bmasked	CS_B	1pleas	distractor1	EVAbeforeCON	acq_US_unple_masked	acq3_masked	3	16	453	1	300	300	0	0	444	46	0	1	0	0	0	1	blank2r.bmp	0	1	+	0	1	B1r.bmp	492	1	blank2r.bmp	786	1	GKQX	786	1	blank2r.bmp	866	2	lasch	866	1	!	1292	1	!	1346	0	0	0	0	0	0	0	0	0	0	0	0	0	0	0	0	0	0	0	0	0	0	0	0	0	0	0
121918	10:13:22	10:21:32	488957	5.0.10.0	4_exp_AMP_EVA_AWA_CON	28	Rpleas_acq	Same	Rpleas	Bmasked	CS_B	1pleas	distractor1	EVAbeforeCON	acq_US_unple_masked	acq3_masked	3	17	453	0	300	300	0	0	565	46	0	1	0	0	0	1	blank2r.bmp	0	1	+	0	7	C3r.bmp	492	1	blank2r.bmp	786	1	GKQX	786	1	blank2r.bmp	866	4	fanatisch	866	1	!	1292	1	!	-1	0	0	0	0	0	0	0	0	0	0	0	0	0	0	0	0	0	0	0	0	0	0	0	0	0	0	0
121918	10:13:22	10:21:34	491423	5.0.10.0	4_exp_AMP_EVA_AWA_CON	28	Rpleas_acq	Same	Rpleas	Bmasked	CS_B	1pleas	distractor1	EVAbeforeCON	acq_US_pleas_masked	acq3_masked	3	18	453	1	300	300	0	0	444	46	0	0	0	0	0	1	blank2r.bmp	0	1	+	0	8	C4r.bmp	492	1	blank2r.bmp	786	1	BMVZ	786	1	blank2r.bmp	866	1	helfen	866	1	FEHLER	1665	1	!	1292	1	!	1346	0	0	0	0	0	0	0	0	0	0	0	0	0	0	0	0	0	0	0	0	0	0	0	0
121918	10:13:22	10:21:36	493329	5.0.10.0	4_exp_AMP_EVA_AWA_CON	28	Rpleas_acq	Same	Rpleas	Bmasked	CS_B	1pleas	distractor1	EVAbeforeCON	acq_US_pleas_masked	acq3_masked	3	19	453	0	300	300	0	0	353	50	0	1	0	0	0	1	blank2r.bmp	0	1	+	0	6	C2r.bmp	492	1	blank2r.bmp	786	1	BMVZ	786	1	blank2r.bmp	866	6	fair	866	1	!	-1	1	!	-1	0	0	0	0	0	0	0	0	0	0	0	0	0	0	0	0	0	0	0	0	0	0	0	0	0	0	0
121918	10:13:22	10:21:38	495501	5.0.10.0	4_exp_AMP_EVA_AWA_CON	28	Rpleas_acq	Same	Rpleas	Bmasked	CS_B	1pleas	distractor1	EVAbeforeCON	acq_US_pleas_masked	acq3_masked	3	20	453	0	300	300	0	0	384	50	0	1	0	0	0	1	blank2r.bmp	0	1	+	0	3	B3r.bmp	492	1	blank2r.bmp	786	1	BMVZ	786	1	blank2r.bmp	866	5	treu	866	1	!	-1	1	!	-1	0	0	0	0	0	0	0	0	0	0	0	0	0	0	0	0	0	0	0	0	0	0	0	0	0	0	0
121918	10:13:22	10:21:40	497820	5.0.10.0	4_exp_AMP_EVA_AWA_CON	28	Rpleas_acq	Same	Rpleas	Bmasked	CS_B	1pleas	distractor1	EVAbeforeCON	acq_US_pleas_masked	acq3_masked	3	21	453	0	300	300	0	0	532	50	0	1	0	0	0	1	blank2r.bmp	0	1	+	0	5	C1r.bmp	492	1	blank2r.bmp	786	1	BMVZ	786	1	blank2r.bmp	866	2	loyal	866	1	!	1292	1	!	-1	0	0	0	0	0	0	0	0	0	0	0	0	0	0	0	0	0	0	0	0	0	0	0	0	0	0	0
121918	10:13:22	10:21:43	500299	5.0.10.0	4_exp_AMP_EVA_AWA_CON	28	Rpleas_acq	Same	Rpleas	Bmasked	CS_B	1pleas	distractor1	EVAbeforeCON	acq_US_pleas_masked	acq3_masked	3	22	453	1	300	300	0	0	459	46	0	0	0	0	0	1	blank2r.bmp	0	1	+	0	4	B4r.bmp	492	1	blank2r.bmp	786	1	BMVZ	786	1	blank2r.bmp	866	3	lachen	866	1	FEHLER	1679	1	!	1292	1	!	1359	0	0	0	0	0	0	0	0	0	0	0	0	0	0	0	0	0	0	0	0	0	0	0	0
121918	10:13:22	10:21:45	502312	5.0.10.0	4_exp_AMP_EVA_AWA_CON	28	Rpleas_acq	Same	Rpleas	Bmasked	CS_B	1pleas	distractor1	EVAbeforeCON	acq_US_unple_masked	acq3_masked	3	23	453	1	300	300	0	0	427	46	0	1	0	0	0	1	blank2r.bmp	0	1	+	0	2	B2r.bmp	492	1	blank2r.bmp	786	1	GKQX	786	1	blank2r.bmp	866	6	faul	866	1	!	1292	1	!	1332	0	0	0	0	0	0	0	0	0	0	0	0	0	0	0	0	0	0	0	0	0	0	0	0	0	0	0
121918	10:13:22	10:21:47	504538	5.0.10.0	4_exp_AMP_EVA_AWA_CON	28	Rpleas_acq	Same	Rpleas	Bmasked	CS_B	1pleas	distractor1	EVAbeforeCON	acq_US_unple_masked	acq3_masked	3	24	453	1	300	300	0	0	431	46	0	1	0	0	0	1	blank2r.bmp	0	1	+	0	1	B1r.bmp	492	1	blank2r.bmp	786	1	GKQX	786	1	blank2r.bmp	866	3	leiden	866	1	!	1292	1	!	1332	0	0	0	0	0	0	0	0	0	0	0	0	0	0	0	0	0	0	0	0	0	0	0	0	0	0	0
121918	10:13:22	10:21:49	506737	5.0.10.0	4_exp_AMP_EVA_AWA_CON	28	Rpleas_acq	Same	Rpleas	Bmasked	CS_B	1pleas	distractor1	EVAbeforeCON	acq_US_unple_masked	acq3_masked	3	25	453	1	300	300	0	0	406	46	0	1	0	0	0	1	blank2r.bmp	0	1	+	0	7	C3r.bmp	492	1	blank2r.bmp	786	1	GKQX	786	1	blank2r.bmp	866	2	lasch	866	1	!	1292	1	!	1306	0	0	0	0	0	0	0	0	0	0	0	0	0	0	0	0	0	0	0	0	0	0	0	0	0	0	0
121918	10:13:22	10:21:52	508976	5.0.10.0	4_exp_AMP_EVA_AWA_CON	28	Rpleas_acq	Same	Rpleas	Bmasked	CS_B	1pleas	distractor1	EVAbeforeCON	acq_US_pleas_masked	acq3_masked	3	26	453	1	300	300	0	0	441	50	0	1	0	0	0	1	blank2r.bmp	0	1	+	0	4	B4r.bmp	492	1	blank2r.bmp	786	1	BMVZ	786	1	blank2r.bmp	866	5	treu	866	1	!	1292	1	!	1346	0	0	0	0	0	0	0	0	0	0	0	0	0	0	0	0	0	0	0	0	0	0	0	0	0	0	0
121918	10:13:22	10:21:54	511321	5.0.10.0	4_exp_AMP_EVA_AWA_CON	28	Rpleas_acq	Same	Rpleas	Bmasked	CS_B	1pleas	distractor1	EVAbeforeCON	acq_US_unple_masked	acq3_masked	3	27	453	0	300	300	0	0	581	46	0	1	0	0	0	1	blank2r.bmp	0	1	+	0	1	B1r.bmp	492	1	blank2r.bmp	786	1	GKQX	786	1	blank2r.bmp	866	6	faul	866	1	!	1292	1	!	-1	0	0	0	0	0	0	0	0	0	0	0	0	0	0	0	0	0	0	0	0	0	0	0	0	0	0	0
121918	10:13:22	10:21:56	513574	5.0.10.0	4_exp_AMP_EVA_AWA_CON	28	Rpleas_acq	Same	Rpleas	Bmasked	CS_B	1pleas	distractor1	EVAbeforeCON	acq_US_pleas_masked	acq3_masked	3	28	453	1	300	300	0	0	443	50	0	1	0	0	0	1	blank2r.bmp	0	1	+	0	5	C1r.bmp	492	1	blank2r.bmp	786	1	BMVZ	786	1	blank2r.bmp	866	2	loyal	866	1	!	1292	1	!	1346	0	0	0	0	0	0	0	0	0	0	0	0	0	0	0	0	0	0	0	0	0	0	0	0	0	0	0
121918	10:13:22	10:21:58	515786	5.0.10.0	4_exp_AMP_EVA_AWA_CON	28	Rpleas_acq	Same	Rpleas	Bmasked	CS_B	1pleas	distractor1	EVAbeforeCON	acq_US_unple_masked	acq3_masked	3	29	453	1	300	300	0	0	418	46	0	1	0	0	0	1	blank2r.bmp	0	1	+	0	6	C2r.bmp	492	1	blank2r.bmp	786	1	GKQX	786	1	blank2r.bmp	866	3	leiden	866	1	!	1292	1	!	1319	0	0	0	0	0	0	0	0	0	0	0	0	0	0	0	0	0	0	0	0	0	0	0	0	0	0	0
121918	10:13:22	10:22:01	517985	5.0.10.0	4_exp_AMP_EVA_AWA_CON	28	Rpleas_acq	Same	Rpleas	Bmasked	CS_B	1pleas	distractor1	EVAbeforeCON	acq_US_pleas_masked	acq3_masked	3	30	453	1	300	300	0	0	407	50	0	1	0	0	0	1	blank2r.bmp	0	1	+	0	3	B3r.bmp	492	1	blank2r.bmp	786	1	BMVZ	786	1	blank2r.bmp	866	4	freundlich	866	1	!	1292	1	!	1306	0	0	0	0	0	0	0	0	0	0	0	0	0	0	0	0	0	0	0	0	0	0	0	0	0	0	0
121918	10:13:22	10:22:03	520105	5.0.10.0	4_exp_AMP_EVA_AWA_CON	28	Rpleas_acq	Same	Rpleas	Bmasked	CS_B	1pleas	distractor1	EVAbeforeCON	acq_US_pleas_masked	acq3_masked	3	31	453	0	300	300	0	0	358	50	0	1	0	0	0	1	blank2r.bmp	0	1	+	0	2	B2r.bmp	492	1	blank2r.bmp	786	1	BMVZ	786	1	blank2r.bmp	866	6	fair	866	1	!	-1	1	!	-1	0	0	0	0	0	0	0	0	0	0	0	0	0	0	0	0	0	0	0	0	0	0	0	0	0	0	0
121918	10:13:22	10:22:05	522330	5.0.10.0	4_exp_AMP_EVA_AWA_CON	28	Rpleas_acq	Same	Rpleas	Bmasked	CS_B	1pleas	distractor1	EVAbeforeCON	acq_US_pleas_masked	acq3_masked	3	32	453	1	300	300	0	0	419	50	0	1	0	0	0	1	blank2r.bmp	0	1	+	0	8	C4r.bmp	492	1	blank2r.bmp	786	1	BMVZ	786	1	blank2r.bmp	866	1	helfen	866	1	!	1292	1	!	1319	0	0	0	0	0	0	0	0	0	0	0	0	0	0	0	0	0	0	0	0	0	0	0	0	0	0	0
121918	10:13:22	10:22:07	524529	5.0.10.0	4_exp_AMP_EVA_AWA_CON	28	Rpleas_acq	Same	Rpleas	Bmasked	CS_B	1pleas	distractor1	EVAbeforeCON	acq_US_unple_masked	acq3_masked	3	33	453	1	300	300	0	0	400	46	0	1	0	0	0	1	blank2r.bmp	0	1	+	0	4	B4r.bmp	492	1	blank2r.bmp	786	1	GKQX	786	1	blank2r.bmp	866	1	hindern	866	1	!	1292	1	!	1306	0	0	0	0	0	0	0	0	0	0	0	0	0	0	0	0	0	0	0	0	0	0	0	0	0	0	0
121918	10:13:22	10:22:09	526755	5.0.10.0	4_exp_AMP_EVA_AWA_CON	28	Rpleas_acq	Same	Rpleas	Bmasked	CS_B	1pleas	distractor1	EVAbeforeCON	acq_US_unple_masked	acq3_masked	3	34	453	1	300	300	0	0	430	46	0	1	0	0	0	1	blank2r.bmp	0	1	+	0	7	C3r.bmp	492	1	blank2r.bmp	786	1	GKQX	786	1	blank2r.bmp	866	5	tot	866	1	!	1292	1	!	1332	0	0	0	0	0	0	0	0	0	0	0	0	0	0	0	0	0	0	0	0	0	0	0	0	0	0	0
121918	10:13:22	10:22:12	529167	5.0.10.0	4_exp_AMP_EVA_AWA_CON	28	Rpleas_acq	Same	Rpleas	Bmasked	CS_B	1pleas	distractor1	EVAbeforeCON	acq_US_unple_masked	acq3_masked	3	35	453	1	300	300	0	0	400	50	0	0	0	0	0	1	blank2r.bmp	0	1	+	0	8	C4r.bmp	492	1	blank2r.bmp	786	1	GKQX	786	1	blank2r.bmp	866	4	fanatisch	866	1	FEHLER	1625	1	!	1292	1	!	1306	0	0	0	0	0	0	0	0	0	0	0	0	0	0	0	0	0	0	0	0	0	0	0	0
121918	10:13:22	10:22:14	531180	5.0.10.0	4_exp_AMP_EVA_AWA_CON	28	Rpleas_acq	Same	Rpleas	Bmasked	CS_B	1pleas	distractor1	EVAbeforeCON	acq_US_pleas_masked	acq3_masked	3	36	453	1	300	300	0	0	431	50	0	1	0	0	0	1	blank2r.bmp	0	1	+	0	2	B2r.bmp	492	1	blank2r.bmp	786	1	BMVZ	786	1	blank2r.bmp	866	3	lachen	866	1	!	1292	1	!	1332	0	0	0	0	0	0	0	0	0	0	0	0	0	0	0	0	0	0	0	0	0	0	0	0	0	0	0
121918	10:13:22	10:22:28	545108	5.0.10.0	4_exp_AMP_EVA_AWA_CON	28	Rpleas_acq	Same	Rpleas	Bmasked	CS_B	1pleas	distractor1	EVAbeforeCON	acq_US_unple_masked	acq45_masked	4	1	400	1	300	300	0	0	454	46	0	1	0	0	0	1	blank2r.bmp	0	1	+	0	6	C2r.bmp	492	1	blank2r.bmp	786	1	GKQX	786	1	blank2r.bmp	866	5	tot	866	1	!	1239	1	!	1359	0	0	0	0	0	0	0	0	0	0	0	0	0	0	0	0	0	0	0	0	0	0	0	0	0	0	0
121918	10:13:22	10:22:30	547320	5.0.10.0	4_exp_AMP_EVA_AWA_CON	28	Rpleas_acq	Same	Rpleas	Bmasked	CS_B	1pleas	distractor1	EVAbeforeCON	acq_US_pleas_masked	acq45_masked	4	2	400	1	300	300	0	0	412	50	0	1	0	0	0	1	blank2r.bmp	0	1	+	0	1	B1r.bmp	492	1	blank2r.bmp	786	1	BMVZ	786	1	blank2r.bmp	866	2	loyal	866	1	!	1239	1	!	1319	0	0	0	0	0	0	0	0	0	0	0	0	0	0	0	0	0	0	0	0	0	0	0	0	0	0	0
121918	10:13:22	10:22:32	549492	5.0.10.0	4_exp_AMP_EVA_AWA_CON	28	Rpleas_acq	Same	Rpleas	Bmasked	CS_B	1pleas	distractor1	EVAbeforeCON	acq_US_unple_masked	acq45_masked	4	3	400	1	300	300	0	0	360	46	0	1	0	0	0	1	blank2r.bmp	0	1	+	0	5	C1r.bmp	492	1	blank2r.bmp	786	1	GKQX	786	1	blank2r.bmp	866	4	fanatisch	866	1	!	1239	1	!	1266	0	0	0	0	0	0	0	0	0	0	0	0	0	0	0	0	0	0	0	0	0	0	0	0	0	0	0
121918	10:13:22	10:22:34	551745	5.0.10.0	4_exp_AMP_EVA_AWA_CON	28	Rpleas_acq	Same	Rpleas	Bmasked	CS_B	1pleas	distractor1	EVAbeforeCON	acq_US_unple_masked	acq45_masked	4	4	400	0	300	300	0	0	482	46	0	1	0	0	0	1	blank2r.bmp	0	1	+	0	3	B3r.bmp	492	1	blank2r.bmp	786	1	GKQX	786	1	blank2r.bmp	866	2	lasch	866	1	!	1239	1	!	-1	0	0	0	0	0	0	0	0	0	0	0	0	0	0	0	0	0	0	0	0	0	0	0	0	0	0	0
121918	10:13:22	10:22:36	553944	5.0.10.0	4_exp_AMP_EVA_AWA_CON	28	Rpleas_acq	Same	Rpleas	Bmasked	CS_B	1pleas	distractor1	EVAbeforeCON	acq_US_unple_masked	acq45_masked	4	5	400	1	300	300	0	0	394	50	0	0	0	0	0	1	blank2r.bmp	0	1	+	0	6	C2r.bmp	492	1	blank2r.bmp	786	1	GKQX	786	1	blank2r.bmp	866	1	hindern	866	1	!	1239	1	!	1292	0	0	0	0	0	0	0	0	0	0	0	0	0	0	0	0	0	0	0	0	0	0	0	0	0	0	0
121918	10:13:22	10:22:39	556130	5.0.10.0	4_exp_AMP_EVA_AWA_CON	28	Rpleas_acq	Same	Rpleas	Bmasked	CS_B	1pleas	distractor1	EVAbeforeCON	acq_US_pleas_masked	acq45_masked	4	6	400	1	300	300	0	0	388	50	0	1	0	0	0	1	blank2r.bmp	0	1	+	0	8	C4r.bmp	492	1	blank2r.bmp	786	1	BMVZ	786	1	blank2r.bmp	866	6	fair	866	1	!	1239	1	!	1292	0	0	0	0	0	0	0	0	0	0	0	0	0	0	0	0	0	0	0	0	0	0	0	0	0	0	0
121918	10:13:22	10:22:41	558329	5.0.10.0	4_exp_AMP_EVA_AWA_CON	28	Rpleas_acq	Same	Rpleas	Bmasked	CS_B	1pleas	distractor1	EVAbeforeCON	acq_US_unple_masked	acq45_masked	4	7	400	1	300	300	0	0	400	46	0	1	0	0	0	1	blank2r.bmp	0	1	+	0	7	C3r.bmp	492	1	blank2r.bmp	786	1	GKQX	786	1	blank2r.bmp	866	6	faul	866	1	!	1239	1	!	1306	0	0	0	0	0	0	0	0	0	0	0	0	0	0	0	0	0	0	0	0	0	0	0	0	0	0	0
121918	10:13:22	10:22:43	560514	5.0.10.0	4_exp_AMP_EVA_AWA_CON	28	Rpleas_acq	Same	Rpleas	Bmasked	CS_B	1pleas	distractor1	EVAbeforeCON	acq_US_pleas_masked	acq45_masked	4	8	400	1	300	300	0	0	390	50	0	1	0	0	0	1	blank2r.bmp	0	1	+	0	5	C1r.bmp	492	1	blank2r.bmp	786	1	BMVZ	786	1	blank2r.bmp	866	1	helfen	866	1	!	1239	1	!	1292	0	0	0	0	0	0	0	0	0	0	0	0	0	0	0	0	0	0	0	0	0	0	0	0	0	0	0
121918	10:13:22	10:22:45	562700	5.0.10.0	4_exp_AMP_EVA_AWA_CON	28	Rpleas_acq	Same	Rpleas	Bmasked	CS_B	1pleas	distractor1	EVAbeforeCON	acq_US_unple_masked	acq45_masked	4	9	400	1	300	300	0	0	387	46	0	1	0	0	0	1	blank2r.bmp	0	1	+	0	3	B3r.bmp	492	1	blank2r.bmp	786	1	GKQX	786	1	blank2r.bmp	866	3	leiden	866	1	!	1239	1	!	1292	0	0	0	0	0	0	0	0	0	0	0	0	0	0	0	0	0	0	0	0	0	0	0	0	0	0	0
121918	10:13:22	10:22:47	564899	5.0.10.0	4_exp_AMP_EVA_AWA_CON	28	Rpleas_acq	Same	Rpleas	Bmasked	CS_B	1pleas	distractor1	EVAbeforeCON	acq_US_pleas_masked	acq45_masked	4	10	400	1	300	300	0	0	389	50	0	1	0	0	0	1	blank2r.bmp	0	1	+	0	2	B2r.bmp	492	1	blank2r.bmp	786	1	BMVZ	786	1	blank2r.bmp	866	4	freundlich	866	1	!	1239	1	!	1292	0	0	0	0	0	0	0	0	0	0	0	0	0	0	0	0	0	0	0	0	0	0	0	0	0	0	0
121918	10:13:22	10:22:50	566992	5.0.10.0	4_exp_AMP_EVA_AWA_CON	28	Rpleas_acq	Same	Rpleas	Bmasked	CS_B	1pleas	distractor1	EVAbeforeCON	acq_US_unple_masked	acq45_masked	4	11	400	0	300	300	0	0	317	46	0	1	0	0	0	1	blank2r.bmp	0	1	+	0	1	B1r.bmp	492	1	blank2r.bmp	786	1	GKQX	786	1	blank2r.bmp	866	1	hindern	866	1	!	-1	1	!	-1	0	0	0	0	0	0	0	0	0	0	0	0	0	0	0	0	0	0	0	0	0	0	0	0	0	0	0
121918	10:13:22	10:22:52	569218	5.0.10.0	4_exp_AMP_EVA_AWA_CON	28	Rpleas_acq	Same	Rpleas	Bmasked	CS_B	1pleas	distractor1	EVAbeforeCON	acq_US_pleas_masked	acq45_masked	4	12	400	1	300	300	0	0	408	50	0	1	0	0	0	1	blank2r.bmp	0	1	+	0	4	B4r.bmp	492	1	blank2r.bmp	786	1	BMVZ	786	1	blank2r.bmp	866	3	lachen	866	1	!	1239	1	!	1306	0	0	0	0	0	0	0	0	0	0	0	0	0	0	0	0	0	0	0	0	0	0	0	0	0	0	0
121918	10:13:22	10:22:54	571283	5.0.10.0	4_exp_AMP_EVA_AWA_CON	28	Rpleas_acq	Same	Rpleas	Bmasked	CS_B	1pleas	distractor1	EVAbeforeCON	acq_US_pleas_masked	acq45_masked	4	13	400	0	300	300	0	0	292	46	0	0	0	0	0	1	blank2r.bmp	0	1	+	0	3	B3r.bmp	492	1	blank2r.bmp	786	1	BMVZ	786	1	blank2r.bmp	866	5	treu	866	1	!	-1	1	!	-1	0	0	0	0	0	0	0	0	0	0	0	0	0	0	0	0	0	0	0	0	0	0	0	0	0	0	0
121918	10:13:22	10:22:56	573456	5.0.10.0	4_exp_AMP_EVA_AWA_CON	28	Rpleas_acq	Same	Rpleas	Bmasked	CS_B	1pleas	distractor1	EVAbeforeCON	acq_US_unple_masked	acq45_masked	4	14	400	1	300	300	0	0	348	46	0	1	0	0	0	1	blank2r.bmp	0	1	+	0	6	C2r.bmp	492	1	blank2r.bmp	786	1	GKQX	786	1	blank2r.bmp	866	6	faul	866	1	!	1239	1	!	1252	0	0	0	0	0	0	0	0	0	0	0	0	0	0	0	0	0	0	0	0	0	0	0	0	0	0	0
121918	10:13:22	10:22:58	575508	5.0.10.0	4_exp_AMP_EVA_AWA_CON	28	Rpleas_acq	Same	Rpleas	Bmasked	CS_B	1pleas	distractor1	EVAbeforeCON	acq_US_unple_masked	acq45_masked	4	15	400	0	300	300	0	0	288	50	0	0	0	0	0	1	blank2r.bmp	0	1	+	0	5	C1r.bmp	492	1	blank2r.bmp	786	1	GKQX	786	1	blank2r.bmp	866	2	lasch	866	1	!	-1	1	!	-1	0	0	0	0	0	0	0	0	0	0	0	0	0	0	0	0	0	0	0	0	0	0	0	0	0	0	0
121918	10:13:22	10:23:00	577694	5.0.10.0	4_exp_AMP_EVA_AWA_CON	28	Rpleas_acq	Same	Rpleas	Bmasked	CS_B	1pleas	distractor1	EVAbeforeCON	acq_US_pleas_masked	acq45_masked	4	16	400	1	300	300	0	0	384	50	0	1	0	0	0	1	blank2r.bmp	0	1	+	0	7	C3r.bmp	492	1	blank2r.bmp	786	1	BMVZ	786	1	blank2r.bmp	866	6	fair	866	1	!	1239	1	!	1279	0	0	0	0	0	0	0	0	0	0	0	0	0	0	0	0	0	0	0	0	0	0	0	0	0	0	0
121918	10:13:22	10:23:02	579893	5.0.10.0	4_exp_AMP_EVA_AWA_CON	28	Rpleas_acq	Same	Rpleas	Bmasked	CS_B	1pleas	distractor1	EVAbeforeCON	acq_US_pleas_masked	acq45_masked	4	17	400	1	300	300	0	0	401	50	0	1	0	0	0	1	blank2r.bmp	0	1	+	0	4	B4r.bmp	492	1	blank2r.bmp	786	1	BMVZ	786	1	blank2r.bmp	866	5	treu	866	1	!	1239	1	!	1306	0	0	0	0	0	0	0	0	0	0	0	0	0	0	0	0	0	0	0	0	0	0	0	0	0	0	0
121918	10:13:22	10:23:05	582092	5.0.10.0	4_exp_AMP_EVA_AWA_CON	28	Rpleas_acq	Same	Rpleas	Bmasked	CS_B	1pleas	distractor1	EVAbeforeCON	acq_US_pleas_masked	acq45_masked	4	18	400	1	300	300	0	0	405	50	0	1	0	0	0	1	blank2r.bmp	0	1	+	0	8	C4r.bmp	492	1	blank2r.bmp	786	1	BMVZ	786	1	blank2r.bmp	866	1	helfen	866	1	!	1239	1	!	1306	0	0	0	0	0	0	0	0	0	0	0	0	0	0	0	0	0	0	0	0	0	0	0	0	0	0	0
121918	10:13:22	10:23:07	584265	5.0.10.0	4_exp_AMP_EVA_AWA_CON	28	Rpleas_acq	Same	Rpleas	Bmasked	CS_B	1pleas	distractor1	EVAbeforeCON	acq_US_pleas_masked	acq45_masked	4	19	400	1	300	300	0	0	377	50	0	1	0	0	0	1	blank2r.bmp	0	1	+	0	1	B1r.bmp	492	1	blank2r.bmp	786	1	BMVZ	786	1	blank2r.bmp	866	4	freundlich	866	1	!	1239	1	!	1279	0	0	0	0	0	0	0	0	0	0	0	0	0	0	0	0	0	0	0	0	0	0	0	0	0	0	0
121918	10:13:22	10:23:09	586450	5.0.10.0	4_exp_AMP_EVA_AWA_CON	28	Rpleas_acq	Same	Rpleas	Bmasked	CS_B	1pleas	distractor1	EVAbeforeCON	acq_US_unple_masked	acq45_masked	4	20	400	1	300	300	0	0	390	46	0	1	0	0	0	1	blank2r.bmp	0	1	+	0	2	B2r.bmp	492	1	blank2r.bmp	786	1	GKQX	786	1	blank2r.bmp	866	3	leiden	866	1	!	1239	1	!	1292	0	0	0	0	0	0	0	0	0	0	0	0	0	0	0	0	0	0	0	0	0	0	0	0	0	0	0
121918	10:13:22	10:23:11	588610	5.0.10.0	4_exp_AMP_EVA_AWA_CON	28	Rpleas_acq	Same	Rpleas	Bmasked	CS_B	1pleas	distractor1	EVAbeforeCON	acq_US_unple_masked	acq45_masked	4	21	400	1	300	300	0	0	367	46	0	1	0	0	0	1	blank2r.bmp	0	1	+	0	4	B4r.bmp	492	1	blank2r.bmp	786	1	GKQX	786	1	blank2r.bmp	866	5	tot	866	1	!	1239	1	!	1266	0	0	0	0	0	0	0	0	0	0	0	0	0	0	0	0	0	0	0	0	0	0	0	0	0	0	0
121918	10:13:22	10:23:13	590862	5.0.10.0	4_exp_AMP_EVA_AWA_CON	28	Rpleas_acq	Same	Rpleas	Bmasked	CS_B	1pleas	distractor1	EVAbeforeCON	acq_US_pleas_masked	acq45_masked	4	22	400	0	300	300	0	0	479	50	0	1	0	0	0	1	blank2r.bmp	0	1	+	0	3	B3r.bmp	492	1	blank2r.bmp	786	1	BMVZ	786	1	blank2r.bmp	866	2	loyal	866	1	!	1239	1	!	-1	0	0	0	0	0	0	0	0	0	0	0	0	0	0	0	0	0	0	0	0	0	0	0	0	0	0	0
121918	10:13:22	10:23:16	593034	5.0.10.0	4_exp_AMP_EVA_AWA_CON	28	Rpleas_acq	Same	Rpleas	Bmasked	CS_B	1pleas	distractor1	EVAbeforeCON	acq_US_unple_masked	acq45_masked	4	23	400	1	300	300	0	0	360	46	0	1	0	0	0	1	blank2r.bmp	0	1	+	0	8	C4r.bmp	492	1	blank2r.bmp	786	1	GKQX	786	1	blank2r.bmp	866	4	fanatisch	866	1	!	1239	1	!	1266	0	0	0	0	0	0	0	0	0	0	0	0	0	0	0	0	0	0	0	0	0	0	0	0	0	0	0
121918	10:13:22	10:23:18	595260	5.0.10.0	4_exp_AMP_EVA_AWA_CON	28	Rpleas_acq	Same	Rpleas	Bmasked	CS_B	1pleas	distractor1	EVAbeforeCON	acq_US_unple_masked	acq45_masked	4	24	400	1	300	300	0	0	436	46	0	1	0	0	0	1	blank2r.bmp	0	1	+	0	7	C3r.bmp	492	1	blank2r.bmp	786	1	GKQX	786	1	blank2r.bmp	866	3	leiden	866	1	!	1239	1	!	1332	0	0	0	0	0	0	0	0	0	0	0	0	0	0	0	0	0	0	0	0	0	0	0	0	0	0	0
121918	10:13:22	10:23:20	597446	5.0.10.0	4_exp_AMP_EVA_AWA_CON	28	Rpleas_acq	Same	Rpleas	Bmasked	CS_B	1pleas	distractor1	EVAbeforeCON	acq_US_pleas_masked	acq45_masked	4	25	400	1	300	300	0	0	388	50	0	1	0	0	0	1	blank2r.bmp	0	1	+	0	6	C2r.bmp	492	1	blank2r.bmp	786	1	BMVZ	786	1	blank2r.bmp	866	3	lachen	866	1	!	1239	1	!	1292	0	0	0	0	0	0	0	0	0	0	0	0	0	0	0	0	0	0	0	0	0	0	0	0	0	0	0
121918	10:13:22	10:23:22	599645	5.0.10.0	4_exp_AMP_EVA_AWA_CON	28	Rpleas_acq	Same	Rpleas	Bmasked	CS_B	1pleas	distractor1	EVAbeforeCON	acq_US_pleas_masked	acq45_masked	4	26	400	1	300	300	0	0	409	50	0	1	0	0	0	1	blank2r.bmp	0	1	+	0	5	C1r.bmp	492	1	blank2r.bmp	786	1	BMVZ	786	1	blank2r.bmp	866	4	freundlich	866	1	!	1239	1	!	1306	0	0	0	0	0	0	0	0	0	0	0	0	0	0	0	0	0	0	0	0	0	0	0	0	0	0	0
121918	10:13:22	10:23:24	601884	5.0.10.0	4_exp_AMP_EVA_AWA_CON	28	Rpleas_acq	Same	Rpleas	Bmasked	CS_B	1pleas	distractor1	EVAbeforeCON	acq_US_unple_masked	acq45_masked	4	27	400	1	300	300	0	0	441	50	0	0	0	0	0	1	blank2r.bmp	0	1	+	0	2	B2r.bmp	492	1	blank2r.bmp	786	1	GKQX	786	1	blank2r.bmp	866	4	fanatisch	866	1	!	1239	1	!	1346	0	0	0	0	0	0	0	0	0	0	0	0	0	0	0	0	0	0	0	0	0	0	0	0	0	0	0
121918	10:13:22	10:23:27	604136	5.0.10.0	4_exp_AMP_EVA_AWA_CON	28	Rpleas_acq	Same	Rpleas	Bmasked	CS_B	1pleas	distractor1	EVAbeforeCON	acq_US_pleas_masked	acq45_masked	4	28	400	0	300	300	0	0	479	50	0	1	0	0	0	1	blank2r.bmp	0	1	+	0	1	B1r.bmp	492	1	blank2r.bmp	786	1	BMVZ	786	1	blank2r.bmp	866	5	treu	866	1	!	1239	1	!	-1	0	0	0	0	0	0	0	0	0	0	0	0	0	0	0	0	0	0	0	0	0	0	0	0	0	0	0
121918	10:13:22	10:23:29	606416	5.0.10.0	4_exp_AMP_EVA_AWA_CON	28	Rpleas_acq	Same	Rpleas	Bmasked	CS_B	1pleas	distractor1	EVAbeforeCON	acq_US_pleas_masked	acq45_masked	4	29	400	1	300	300	0	0	452	50	0	1	0	0	0	1	blank2r.bmp	0	1	+	0	1	B1r.bmp	492	1	blank2r.bmp	786	1	BMVZ	786	1	blank2r.bmp	866	6	fair	866	1	!	1239	1	!	1359	0	0	0	0	0	0	0	0	0	0	0	0	0	0	0	0	0	0	0	0	0	0	0	0	0	0	0
121918	10:13:22	10:23:31	608641	5.0.10.0	4_exp_AMP_EVA_AWA_CON	28	Rpleas_acq	Same	Rpleas	Bmasked	CS_B	1pleas	distractor1	EVAbeforeCON	acq_US_unple_masked	acq45_masked	4	30	400	1	300	300	0	0	438	46	0	1	0	0	0	1	blank2r.bmp	0	1	+	0	6	C2r.bmp	492	1	blank2r.bmp	786	1	GKQX	786	1	blank2r.bmp	866	2	lasch	866	1	!	1239	1	!	1332	0	0	0	0	0	0	0	0	0	0	0	0	0	0	0	0	0	0	0	0	0	0	0	0	0	0	0
121918	10:13:22	10:23:33	610840	5.0.10.0	4_exp_AMP_EVA_AWA_CON	28	Rpleas_acq	Same	Rpleas	Bmasked	CS_B	1pleas	distractor1	EVAbeforeCON	acq_US_unple_masked	acq45_masked	4	31	400	1	300	300	0	0	387	46	0	1	0	0	0	1	blank2r.bmp	0	1	+	0	4	B4r.bmp	492	1	blank2r.bmp	786	1	GKQX	786	1	blank2r.bmp	866	5	tot	866	1	!	1239	1	!	1292	0	0	0	0	0	0	0	0	0	0	0	0	0	0	0	0	0	0	0	0	0	0	0	0	0	0	0
121918	10:13:22	10:23:36	613066	5.0.10.0	4_exp_AMP_EVA_AWA_CON	28	Rpleas_acq	Same	Rpleas	Bmasked	CS_B	1pleas	distractor1	EVAbeforeCON	acq_US_pleas_masked	acq45_masked	4	32	400	1	300	300	0	0	419	50	0	1	0	0	0	1	blank2r.bmp	0	1	+	0	2	B2r.bmp	492	1	blank2r.bmp	786	1	BMVZ	786	1	blank2r.bmp	866	3	lachen	866	1	!	1239	1	!	1319	0	0	0	0	0	0	0	0	0	0	0	0	0	0	0	0	0	0	0	0	0	0	0	0	0	0	0
121918	10:13:22	10:23:38	615252	5.0.10.0	4_exp_AMP_EVA_AWA_CON	28	Rpleas_acq	Same	Rpleas	Bmasked	CS_B	1pleas	distractor1	EVAbeforeCON	acq_US_pleas_masked	acq45_masked	4	33	400	1	300	300	0	0	389	46	0	0	0	0	0	1	blank2r.bmp	0	1	+	0	7	C3r.bmp	492	1	blank2r.bmp	786	1	BMVZ	786	1	blank2r.bmp	866	1	helfen	866	1	!	1239	1	!	1292	0	0	0	0	0	0	0	0	0	0	0	0	0	0	0	0	0	0	0	0	0	0	0	0	0	0	0
121918	10:13:22	10:23:40	617451	5.0.10.0	4_exp_AMP_EVA_AWA_CON	28	Rpleas_acq	Same	Rpleas	Bmasked	CS_B	1pleas	distractor1	EVAbeforeCON	acq_US_unple_masked	acq45_masked	4	34	400	1	300	300	0	0	400	46	0	1	0	0	0	1	blank2r.bmp	0	1	+	0	5	C1r.bmp	492	1	blank2r.bmp	786	1	GKQX	786	1	blank2r.bmp	866	6	faul	866	1	!	1239	1	!	1306	0	0	0	0	0	0	0	0	0	0	0	0	0	0	0	0	0	0	0	0	0	0	0	0	0	0	0
121918	10:13:22	10:23:42	619703	5.0.10.0	4_exp_AMP_EVA_AWA_CON	28	Rpleas_acq	Same	Rpleas	Bmasked	CS_B	1pleas	distractor1	EVAbeforeCON	acq_US_unple_masked	acq45_masked	4	35	400	1	300	300	0	0	462	46	0	1	0	0	0	1	blank2r.bmp	0	1	+	0	8	C4r.bmp	492	1	blank2r.bmp	786	1	GKQX	786	1	blank2r.bmp	866	1	hindern	866	1	!	1239	1	!	1359	0	0	0	0	0	0	0	0	0	0	0	0	0	0	0	0	0	0	0	0	0	0	0	0	0	0	0
121918	10:13:22	10:23:44	621876	5.0.10.0	4_exp_AMP_EVA_AWA_CON	28	Rpleas_acq	Same	Rpleas	Bmasked	CS_B	1pleas	distractor1	EVAbeforeCON	acq_US_pleas_masked	acq45_masked	4	36	400	1	300	300	0	0	363	50	0	1	0	0	0	1	blank2r.bmp	0	1	+	0	3	B3r.bmp	492	1	blank2r.bmp	786	1	BMVZ	786	1	blank2r.bmp	866	2	loyal	866	1	!	1239	1	!	1266	0	0	0	0	0	0	0	0	0	0	0	0	0	0	0	0	0	0	0	0	0	0	0	0	0	0	0
121918	10:13:22	10:23:57	634017	5.0.10.0	4_exp_AMP_EVA_AWA_CON	28	Rpleas_acq	Same	Rpleas	Bmasked	CS_B	1pleas	distractor1	EVAbeforeCON	acq_US_unple_masked	acq45_masked	5	1	400	1	300	300	0	0	456	46	0	1	0	0	0	1	blank2r.bmp	0	1	+	0	5	C1r.bmp	492	1	blank2r.bmp	786	1	GKQX	786	1	blank2r.bmp	866	1	hindern	866	1	!	1239	1	!	1359	0	0	0	0	0	0	0	0	0	0	0	0	0	0	0	0	0	0	0	0	0	0	0	0	0	0	0
121918	10:13:22	10:23:59	636177	5.0.10.0	4_exp_AMP_EVA_AWA_CON	28	Rpleas_acq	Same	Rpleas	Bmasked	CS_B	1pleas	distractor1	EVAbeforeCON	acq_US_pleas_masked	acq45_masked	5	2	400	1	300	300	0	0	370	50	0	1	0	0	0	1	blank2r.bmp	0	1	+	0	8	C4r.bmp	492	1	blank2r.bmp	786	1	BMVZ	786	1	blank2r.bmp	866	5	treu	866	1	!	1239	1	!	1266	0	0	0	0	0	0	0	0	0	0	0	0	0	0	0	0	0	0	0	0	0	0	0	0	0	0	0
121918	10:13:22	10:24:01	638402	5.0.10.0	4_exp_AMP_EVA_AWA_CON	28	Rpleas_acq	Same	Rpleas	Bmasked	CS_B	1pleas	distractor1	EVAbeforeCON	acq_US_unple_masked	acq45_masked	5	3	400	1	300	300	0	0	414	46	0	1	0	0	0	1	blank2r.bmp	0	1	+	0	4	B4r.bmp	492	1	blank2r.bmp	786	1	GKQX	786	1	blank2r.bmp	866	4	fanatisch	866	1	!	1239	1	!	1319	0	0	0	0	0	0	0	0	0	0	0	0	0	0	0	0	0	0	0	0	0	0	0	0	0	0	0
121918	10:13:22	10:24:03	640588	5.0.10.0	4_exp_AMP_EVA_AWA_CON	28	Rpleas_acq	Same	Rpleas	Bmasked	CS_B	1pleas	distractor1	EVAbeforeCON	acq_US_pleas_masked	acq45_masked	5	4	400	1	300	300	0	0	388	50	0	1	0	0	0	1	blank2r.bmp	0	1	+	0	6	C2r.bmp	492	1	blank2r.bmp	786	1	BMVZ	786	1	blank2r.bmp	866	4	freundlich	866	1	!	1239	1	!	1292	0	0	0	0	0	0	0	0	0	0	0	0	0	0	0	0	0	0	0	0	0	0	0	0	0	0	0
121918	10:13:22	10:24:05	642774	5.0.10.0	4_exp_AMP_EVA_AWA_CON	28	Rpleas_acq	Same	Rpleas	Bmasked	CS_B	1pleas	distractor1	EVAbeforeCON	acq_US_pleas_masked	acq45_masked	5	5	400	1	300	300	0	0	389	50	0	1	0	0	0	1	blank2r.bmp	0	1	+	0	2	B2r.bmp	492	1	blank2r.bmp	786	1	BMVZ	786	1	blank2r.bmp	866	2	loyal	866	1	!	1239	1	!	1292	0	0	0	0	0	0	0	0	0	0	0	0	0	0	0	0	0	0	0	0	0	0	0	0	0	0	0
121918	10:13:22	10:24:08	644973	5.0.10.0	4_exp_AMP_EVA_AWA_CON	28	Rpleas_acq	Same	Rpleas	Bmasked	CS_B	1pleas	distractor1	EVAbeforeCON	acq_US_pleas_masked	acq45_masked	5	6	400	1	300	300	0	0	394	50	0	1	0	0	0	1	blank2r.bmp	0	1	+	0	7	C3r.bmp	492	1	blank2r.bmp	786	1	BMVZ	786	1	blank2r.bmp	866	6	fair	866	1	!	1239	1	!	1292	0	0	0	0	0	0	0	0	0	0	0	0	0	0	0	0	0	0	0	0	0	0	0	0	0	0	0
121918	10:13:22	10:24:10	647145	5.0.10.0	4_exp_AMP_EVA_AWA_CON	28	Rpleas_acq	Same	Rpleas	Bmasked	CS_B	1pleas	distractor1	EVAbeforeCON	acq_US_unple_masked	acq45_masked	5	7	400	1	300	300	0	0	369	46	0	1	0	0	0	1	blank2r.bmp	0	1	+	0	1	B1r.bmp	492	1	blank2r.bmp	786	1	GKQX	786	1	blank2r.bmp	866	3	leiden	866	1	!	1239	1	!	1266	0	0	0	0	0	0	0	0	0	0	0	0	0	0	0	0	0	0	0	0	0	0	0	0	0	0	0
121918	10:13:22	10:24:12	649344	5.0.10.0	4_exp_AMP_EVA_AWA_CON	28	Rpleas_acq	Same	Rpleas	Bmasked	CS_B	1pleas	distractor1	EVAbeforeCON	acq_US_unple_masked	acq45_masked	5	8	400	1	300	300	0	0	399	46	0	1	0	0	0	1	blank2r.bmp	0	1	+	0	3	B3r.bmp	492	1	blank2r.bmp	786	1	GKQX	786	1	blank2r.bmp	866	5	tot	866	1	!	1239	1	!	1306	0	0	0	0	0	0	0	0	0	0	0	0	0	0	0	0	0	0	0	0	0	0	0	0	0	0	0
121918	10:13:22	10:24:14	651504	5.0.10.0	4_exp_AMP_EVA_AWA_CON	28	Rpleas_acq	Same	Rpleas	Bmasked	CS_B	1pleas	distractor1	EVAbeforeCON	acq_US_pleas_masked	acq45_masked	5	9	400	1	300	300	0	0	368	50	0	1	0	0	0	1	blank2r.bmp	0	1	+	0	1	B1r.bmp	492	1	blank2r.bmp	786	1	BMVZ	786	1	blank2r.bmp	866	1	helfen	866	1	!	1239	1	!	1266	0	0	0	0	0	0	0	0	0	0	0	0	0	0	0	0	0	0	0	0	0	0	0	0	0	0	0
121918	10:13:22	10:24:16	653663	5.0.10.0	4_exp_AMP_EVA_AWA_CON	28	Rpleas_acq	Same	Rpleas	Bmasked	CS_B	1pleas	distractor1	EVAbeforeCON	acq_US_unple_masked	acq45_masked	5	10	400	1	300	300	0	0	359	46	0	1	0	0	0	1	blank2r.bmp	0	1	+	0	7	C3r.bmp	492	1	blank2r.bmp	786	1	GKQX	786	1	blank2r.bmp	866	6	faul	866	1	!	1239	1	!	1266	0	0	0	0	0	0	0	0	0	0	0	0	0	0	0	0	0	0	0	0	0	0	0	0	0	0	0
121918	10:13:22	10:24:18	655848	5.0.10.0	4_exp_AMP_EVA_AWA_CON	28	Rpleas_acq	Same	Rpleas	Bmasked	CS_B	1pleas	distractor1	EVAbeforeCON	acq_US_pleas_masked	acq45_masked	5	11	400	1	300	300	0	0	384	50	0	1	0	0	0	1	blank2r.bmp	0	1	+	0	5	C1r.bmp	492	1	blank2r.bmp	786	1	BMVZ	786	1	blank2r.bmp	866	3	lachen	866	1	!	1239	1	!	1279	0	0	0	0	0	0	0	0	0	0	0	0	0	0	0	0	0	0	0	0	0	0	0	0	0	0	0
121918	10:13:22	10:24:21	658048	5.0.10.0	4_exp_AMP_EVA_AWA_CON	28	Rpleas_acq	Same	Rpleas	Bmasked	CS_B	1pleas	distractor1	EVAbeforeCON	acq_US_pleas_masked	acq45_masked	5	12	400	1	300	300	0	0	389	50	0	1	0	0	0	1	blank2r.bmp	0	1	+	0	3	B3r.bmp	492	1	blank2r.bmp	786	1	BMVZ	786	1	blank2r.bmp	866	3	lachen	866	1	!	1239	1	!	1292	0	0	0	0	0	0	0	0	0	0	0	0	0	0	0	0	0	0	0	0	0	0	0	0	0	0	0
121918	10:13:22	10:24:23	660300	5.0.10.0	4_exp_AMP_EVA_AWA_CON	28	Rpleas_acq	Same	Rpleas	Bmasked	CS_B	1pleas	distractor1	EVAbeforeCON	acq_US_pleas_masked	acq45_masked	5	13	400	1	300	300	0	0	445	50	0	1	0	0	0	1	blank2r.bmp	0	1	+	0	6	C2r.bmp	492	1	blank2r.bmp	786	1	BMVZ	786	1	blank2r.bmp	866	5	treu	866	1	!	1239	1	!	1346	0	0	0	0	0	0	0	0	0	0	0	0	0	0	0	0	0	0	0	0	0	0	0	0	0	0	0
121918	10:13:22	10:24:25	662552	5.0.10.0	4_exp_AMP_EVA_AWA_CON	28	Rpleas_acq	Same	Rpleas	Bmasked	CS_B	1pleas	distractor1	EVAbeforeCON	acq_US_unple_masked	acq45_masked	5	14	400	0	300	300	0	0	479	46	0	1	0	0	0	1	blank2r.bmp	0	1	+	0	8	C4r.bmp	492	1	blank2r.bmp	786	1	GKQX	786	1	blank2r.bmp	866	2	lasch	866	1	!	1239	1	!	-1	0	0	0	0	0	0	0	0	0	0	0	0	0	0	0	0	0	0	0	0	0	0	0	0	0	0	0
121918	10:13:22	10:24:27	664751	5.0.10.0	4_exp_AMP_EVA_AWA_CON	28	Rpleas_acq	Same	Rpleas	Bmasked	CS_B	1pleas	distractor1	EVAbeforeCON	acq_US_unple_masked	acq45_masked	5	15	400	1	300	300	0	0	390	46	0	1	0	0	0	1	blank2r.bmp	0	1	+	0	2	B2r.bmp	492	1	blank2r.bmp	786	1	GKQX	786	1	blank2r.bmp	866	1	hindern	866	1	!	1239	1	!	1292	0	0	0	0	0	0	0	0	0	0	0	0	0	0	0	0	0	0	0	0	0	0	0	0	0	0	0
121918	10:13:22	10:24:30	666977	5.0.10.0	4_exp_AMP_EVA_AWA_CON	28	Rpleas_acq	Same	Rpleas	Bmasked	CS_B	1pleas	distractor1	EVAbeforeCON	acq_US_unple_masked	acq45_masked	5	16	400	1	300	300	0	0	434	46	0	1	0	0	0	1	blank2r.bmp	0	1	+	0	4	B4r.bmp	492	1	blank2r.bmp	786	1	GKQX	786	1	blank2r.bmp	866	6	faul	866	1	!	1239	1	!	1332	0	0	0	0	0	0	0	0	0	0	0	0	0	0	0	0	0	0	0	0	0	0	0	0	0	0	0
121918	10:13:22	10:24:32	669163	5.0.10.0	4_exp_AMP_EVA_AWA_CON	28	Rpleas_acq	Same	Rpleas	Bmasked	CS_B	1pleas	distractor1	EVAbeforeCON	acq_US_unple_masked	acq45_masked	5	17	400	1	300	300	0	0	388	46	0	1	0	0	0	1	blank2r.bmp	0	1	+	0	5	C1r.bmp	492	1	blank2r.bmp	786	1	GKQX	786	1	blank2r.bmp	866	3	leiden	866	1	!	1239	1	!	1292	0	0	0	0	0	0	0	0	0	0	0	0	0	0	0	0	0	0	0	0	0	0	0	0	0	0	0
121918	10:13:22	10:24:34	671322	5.0.10.0	4_exp_AMP_EVA_AWA_CON	28	Rpleas_acq	Same	Rpleas	Bmasked	CS_B	1pleas	distractor1	EVAbeforeCON	acq_US_pleas_masked	acq45_masked	5	18	400	1	300	300	0	0	361	50	0	1	0	0	0	1	blank2r.bmp	0	1	+	0	8	C4r.bmp	492	1	blank2r.bmp	786	1	BMVZ	786	1	blank2r.bmp	866	1	helfen	866	1	!	1239	1	!	1266	0	0	0	0	0	0	0	0	0	0	0	0	0	0	0	0	0	0	0	0	0	0	0	0	0	0	0
121918	10:13:22	10:24:36	673574	5.0.10.0	4_exp_AMP_EVA_AWA_CON	28	Rpleas_acq	Same	Rpleas	Bmasked	CS_B	1pleas	distractor1	EVAbeforeCON	acq_US_unple_masked	acq45_masked	5	19	400	1	300	300	0	0	443	46	0	1	0	0	0	1	blank2r.bmp	0	1	+	0	2	B2r.bmp	492	1	blank2r.bmp	786	1	GKQX	786	1	blank2r.bmp	866	5	tot	866	1	!	1239	1	!	1346	0	0	0	0	0	0	0	0	0	0	0	0	0	0	0	0	0	0	0	0	0	0	0	0	0	0	0
121918	10:13:22	10:24:38	675787	5.0.10.0	4_exp_AMP_EVA_AWA_CON	28	Rpleas_acq	Same	Rpleas	Bmasked	CS_B	1pleas	distractor1	EVAbeforeCON	acq_US_pleas_masked	acq45_masked	5	20	400	1	300	300	0	0	415	50	0	1	0	0	0	1	blank2r.bmp	0	1	+	0	3	B3r.bmp	492	1	blank2r.bmp	786	1	BMVZ	786	1	blank2r.bmp	866	2	loyal	866	1	!	1239	1	!	1319	0	0	0	0	0	0	0	0	0	0	0	0	0	0	0	0	0	0	0	0	0	0	0	0	0	0	0
121918	10:13:22	10:24:41	678013	5.0.10.0	4_exp_AMP_EVA_AWA_CON	28	Rpleas_acq	Same	Rpleas	Bmasked	CS_B	1pleas	distractor1	EVAbeforeCON	acq_US_pleas_masked	acq45_masked	5	21	400	1	300	300	0	0	429	50	0	1	0	0	0	1	blank2r.bmp	0	1	+	0	6	C2r.bmp	492	1	blank2r.bmp	786	1	BMVZ	786	1	blank2r.bmp	866	4	freundlich	866	1	!	1239	1	!	1332	0	0	0	0	0	0	0	0	0	0	0	0	0	0	0	0	0	0	0	0	0	0	0	0	0	0	0
121918	10:13:22	10:24:43	680265	5.0.10.0	4_exp_AMP_EVA_AWA_CON	28	Rpleas_acq	Same	Rpleas	Bmasked	CS_B	1pleas	distractor1	EVAbeforeCON	acq_US_pleas_masked	acq45_masked	5	22	400	1	300	300	0	0	453	50	0	1	0	0	0	1	blank2r.bmp	0	1	+	0	7	C3r.bmp	492	1	blank2r.bmp	786	1	BMVZ	786	1	blank2r.bmp	866	6	fair	866	1	!	1239	1	!	1359	0	0	0	0	0	0	0	0	0	0	0	0	0	0	0	0	0	0	0	0	0	0	0	0	0	0	0
121918	10:13:22	10:24:45	682437	5.0.10.0	4_exp_AMP_EVA_AWA_CON	28	Rpleas_acq	Same	Rpleas	Bmasked	CS_B	1pleas	distractor1	EVAbeforeCON	acq_US_unple_masked	acq45_masked	5	23	400	1	300	300	0	0	380	46	0	1	0	0	0	1	blank2r.bmp	0	1	+	0	1	B1r.bmp	492	1	blank2r.bmp	786	1	GKQX	786	1	blank2r.bmp	866	4	fanatisch	866	1	!	1239	1	!	1279	0	0	0	0	0	0	0	0	0	0	0	0	0	0	0	0	0	0	0	0	0	0	0	0	0	0	0
121918	10:13:22	10:24:47	684663	5.0.10.0	4_exp_AMP_EVA_AWA_CON	28	Rpleas_acq	Same	Rpleas	Bmasked	CS_B	1pleas	distractor1	EVAbeforeCON	acq_US_pleas_masked	acq45_masked	5	24	400	1	300	300	0	0	429	50	0	1	0	0	0	1	blank2r.bmp	0	1	+	0	4	B4r.bmp	492	1	blank2r.bmp	786	1	BMVZ	786	1	blank2r.bmp	866	2	loyal	866	1	!	1239	1	!	1332	0	0	0	0	0	0	0	0	0	0	0	0	0	0	0	0	0	0	0	0	0	0	0	0	0	0	0
121918	10:13:22	10:24:49	686902	5.0.10.0	4_exp_AMP_EVA_AWA_CON	28	Rpleas_acq	Same	Rpleas	Bmasked	CS_B	1pleas	distractor1	EVAbeforeCON	acq_US_unple_masked	acq45_masked	5	25	400	1	300	300	0	0	443	46	0	1	0	0	0	1	blank2r.bmp	0	1	+	0	7	C3r.bmp	492	1	blank2r.bmp	786	1	GKQX	786	1	blank2r.bmp	866	2	lasch	866	1	!	1239	1	!	1346	0	0	0	0	0	0	0	0	0	0	0	0	0	0	0	0	0	0	0	0	0	0	0	0	0	0	0
121918	10:13:22	10:24:52	689088	5.0.10.0	4_exp_AMP_EVA_AWA_CON	28	Rpleas_acq	Same	Rpleas	Bmasked	CS_B	1pleas	distractor1	EVAbeforeCON	acq_US_pleas_masked	acq45_masked	5	26	400	1	300	300	0	0	397	50	0	1	0	0	0	1	blank2r.bmp	0	1	+	0	4	B4r.bmp	492	1	blank2r.bmp	786	1	BMVZ	786	1	blank2r.bmp	866	6	fair	866	1	!	1239	1	!	1292	0	0	0	0	0	0	0	0	0	0	0	0	0	0	0	0	0	0	0	0	0	0	0	0	0	0	0
121918	10:13:22	10:24:54	691274	5.0.10.0	4_exp_AMP_EVA_AWA_CON	28	Rpleas_acq	Same	Rpleas	Bmasked	CS_B	1pleas	distractor1	EVAbeforeCON	acq_US_unple_masked	acq45_masked	5	27	400	1	300	300	0	0	395	46	0	1	0	0	0	1	blank2r.bmp	0	1	+	0	3	B3r.bmp	492	1	blank2r.bmp	786	1	GKQX	786	1	blank2r.bmp	866	3	leiden	866	1	!	1239	1	!	1292	0	0	0	0	0	0	0	0	0	0	0	0	0	0	0	0	0	0	0	0	0	0	0	0	0	0	0
121918	10:13:22	10:24:56	693486	5.0.10.0	4_exp_AMP_EVA_AWA_CON	28	Rpleas_acq	Same	Rpleas	Bmasked	CS_B	1pleas	distractor1	EVAbeforeCON	acq_US_pleas_masked	acq45_masked	5	28	400	1	300	300	0	0	406	50	0	1	0	0	0	1	blank2r.bmp	0	1	+	0	2	B2r.bmp	492	1	blank2r.bmp	786	1	BMVZ	786	1	blank2r.bmp	866	5	treu	866	1	!	1239	1	!	1306	0	0	0	0	0	0	0	0	0	0	0	0	0	0	0	0	0	0	0	0	0	0	0	0	0	0	0
121918	10:13:22	10:24:58	695699	5.0.10.0	4_exp_AMP_EVA_AWA_CON	28	Rpleas_acq	Same	Rpleas	Bmasked	CS_B	1pleas	distractor1	EVAbeforeCON	acq_US_pleas_masked	acq45_masked	5	29	400	1	300	300	0	0	423	46	0	0	0	0	0	1	blank2r.bmp	0	1	+	0	5	C1r.bmp	492	1	blank2r.bmp	786	1	BMVZ	786	1	blank2r.bmp	866	3	lachen	866	1	!	1239	1	!	1319	0	0	0	0	0	0	0	0	0	0	0	0	0	0	0	0	0	0	0	0	0	0	0	0	0	0	0
121918	10:13:22	10:25:00	697871	5.0.10.0	4_exp_AMP_EVA_AWA_CON	28	Rpleas_acq	Same	Rpleas	Bmasked	CS_B	1pleas	distractor1	EVAbeforeCON	acq_US_pleas_masked	acq45_masked	5	30	400	1	300	300	0	0	385	50	0	1	0	0	0	1	blank2r.bmp	0	1	+	0	1	B1r.bmp	492	1	blank2r.bmp	786	1	BMVZ	786	1	blank2r.bmp	866	1	helfen	866	1	!	1239	1	!	1279	0	0	0	0	0	0	0	0	0	0	0	0	0	0	0	0	0	0	0	0	0	0	0	0	0	0	0
121918	10:13:22	10:25:03	700070	5.0.10.0	4_exp_AMP_EVA_AWA_CON	28	Rpleas_acq	Same	Rpleas	Bmasked	CS_B	1pleas	distractor1	EVAbeforeCON	acq_US_unple_masked	acq45_masked	5	31	400	1	300	300	0	0	404	46	0	1	0	0	0	1	blank2r.bmp	0	1	+	0	6	C2r.bmp	492	1	blank2r.bmp	786	1	GKQX	786	1	blank2r.bmp	866	6	faul	866	1	!	1239	1	!	1306	0	0	0	0	0	0	0	0	0	0	0	0	0	0	0	0	0	0	0	0	0	0	0	0	0	0	0
121918	10:13:22	10:25:05	702283	5.0.10.0	4_exp_AMP_EVA_AWA_CON	28	Rpleas_acq	Same	Rpleas	Bmasked	CS_B	1pleas	distractor1	EVAbeforeCON	acq_US_pleas_masked	acq45_masked	5	32	400	1	300	300	0	0	422	50	0	1	0	0	0	1	blank2r.bmp	0	1	+	0	8	C4r.bmp	492	1	blank2r.bmp	786	1	BMVZ	786	1	blank2r.bmp	866	4	freundlich	866	1	!	1239	1	!	1319	0	0	0	0	0	0	0	0	0	0	0	0	0	0	0	0	0	0	0	0	0	0	0	0	0	0	0
121918	10:13:22	10:25:07	704482	5.0.10.0	4_exp_AMP_EVA_AWA_CON	28	Rpleas_acq	Same	Rpleas	Bmasked	CS_B	1pleas	distractor1	EVAbeforeCON	acq_US_unple_masked	acq45_masked	5	33	400	1	300	300	0	0	401	46	0	1	0	0	0	1	blank2r.bmp	0	1	+	0	5	C1r.bmp	492	1	blank2r.bmp	786	1	GKQX	786	1	blank2r.bmp	866	5	tot	866	1	!	1239	1	!	1306	0	0	0	0	0	0	0	0	0	0	0	0	0	0	0	0	0	0	0	0	0	0	0	0	0	0	0
121918	10:13:22	10:25:09	706667	5.0.10.0	4_exp_AMP_EVA_AWA_CON	28	Rpleas_acq	Same	Rpleas	Bmasked	CS_B	1pleas	distractor1	EVAbeforeCON	acq_US_unple_masked	acq45_masked	5	34	400	1	300	300	0	0	393	46	0	1	0	0	0	1	blank2r.bmp	0	1	+	0	6	C2r.bmp	492	1	blank2r.bmp	786	1	GKQX	786	1	blank2r.bmp	866	2	lasch	866	1	!	1239	1	!	1292	0	0	0	0	0	0	0	0	0	0	0	0	0	0	0	0	0	0	0	0	0	0	0	0	0	0	0
121918	10:13:22	10:25:11	708920	5.0.10.0	4_exp_AMP_EVA_AWA_CON	28	Rpleas_acq	Same	Rpleas	Bmasked	CS_B	1pleas	distractor1	EVAbeforeCON	acq_US_unple_masked	acq45_masked	5	35	400	0	300	300	0	0	480	46	0	1	0	0	0	1	blank2r.bmp	0	1	+	0	8	C4r.bmp	492	1	blank2r.bmp	786	1	GKQX	786	1	blank2r.bmp	866	4	fanatisch	866	1	!	1239	1	!	-1	0	0	0	0	0	0	0	0	0	0	0	0	0	0	0	0	0	0	0	0	0	0	0	0	0	0	0
121918	10:13:22	10:25:14	711172	5.0.10.0	4_exp_AMP_EVA_AWA_CON	28	Rpleas_acq	Same	Rpleas	Bmasked	CS_B	1pleas	distractor1	EVAbeforeCON	acq_US_unple_masked	acq45_masked	5	36	400	1	300	300	0	0	438	46	0	1	0	0	0	1	blank2r.bmp	0	1	+	0	4	B4r.bmp	492	1	blank2r.bmp	786	1	GKQX	786	1	blank2r.bmp	866	1	hindern	866	1	!	1239	1	!	1332	0	0	0	0	0	0	0	0	0	0	0	0	0	0	0	0	0	0	0	0	0	0	0	0	0	0	0
121918	10:13:22	10:26:08	765030	5.0.10.0	4_exp_AMP_EVA_AWA_CON	28	Rpleas_acq	Same	Rpleas	Bmasked	CS_B	1pleas	distractor1	EVAbeforeCON	AMP_CSunple	AMP1_masked	6	1	0	0	300	300	0	0	5705	46	0	1	0	0	0	1	blank2r.bmp	0	1	GKQX	0	1	blank2r.bmp	79	10	pic10.bmp	199	1	whitenoise_No3.bmp	306	0	0	0	0	0	0	0	0	0	0	0	0	0	0	0	0	0	0	0	0	0	0	0	0	0	0	0	0	0	0	0	0	0	0	0	0	0	0	0
121918	10:13:22	10:26:10	767429	5.0.10.0	4_exp_AMP_EVA_AWA_CON	28	Rpleas_acq	Same	Rpleas	Bmasked	CS_B	1pleas	distractor1	EVAbeforeCON	AMP_CSpleas	AMP1_masked	6	2	0	0	300	300	0	0	1465	46	0	0	0	0	0	1	blank2r.bmp	0	1	BMVZ	0	1	blank2r.bmp	79	48	pic48.bmp	199	1	whitenoise_No3.bmp	306	0	0	0	0	0	0	0	0	0	0	0	0	0	0	0	0	0	0	0	0	0	0	0	0	0	0	0	0	0	0	0	0	0	0	0	0	0	0	0
121918	10:13:22	10:26:12	769188	5.0.10.0	4_exp_AMP_EVA_AWA_CON	28	Rpleas_acq	Same	Rpleas	Bmasked	CS_B	1pleas	distractor1	EVAbeforeCON	AMP_distractor	AMP1_masked	6	3	0	0	300	300	0	0	840	50	0	0	0	0	0	1	blank2r.bmp	0	1	WFPH	0	1	blank2r.bmp	79	100	pic100.bmp	199	1	whitenoise_No3.bmp	306	0	0	0	0	0	0	0	0	0	0	0	0	0	0	0	0	0	0	0	0	0	0	0	0	0	0	0	0	0	0	0	0	0	0	0	0	0	0	0
121918	10:13:22	10:26:13	770921	5.0.10.0	4_exp_AMP_EVA_AWA_CON	28	Rpleas_acq	Same	Rpleas	Bmasked	CS_B	1pleas	distractor1	EVAbeforeCON	AMP_distractor	AMP1_masked	6	4	0	0	300	300	0	0	824	50	0	0	0	0	0	1	blank2r.bmp	0	1	WFPH	0	1	blank2r.bmp	79	138	pic138.bmp	199	1	whitenoise_No3.bmp	306	0	0	0	0	0	0	0	0	0	0	0	0	0	0	0	0	0	0	0	0	0	0	0	0	0	0	0	0	0	0	0	0	0	0	0	0	0	0	0
121918	10:13:22	10:26:16	773213	5.0.10.0	4_exp_AMP_EVA_AWA_CON	28	Rpleas_acq	Same	Rpleas	Bmasked	CS_B	1pleas	distractor1	EVAbeforeCON	AMP_CSpleas	AMP1_masked	6	5	0	0	300	300	0	0	1365	46	0	0	0	0	0	1	blank2r.bmp	0	1	BMVZ	0	1	blank2r.bmp	79	60	pic60.bmp	199	1	whitenoise_No3.bmp	306	0	0	0	0	0	0	0	0	0	0	0	0	0	0	0	0	0	0	0	0	0	0	0	0	0	0	0	0	0	0	0	0	0	0	0	0	0	0	0
121918	10:13:22	10:26:18	775093	5.0.10.0	4_exp_AMP_EVA_AWA_CON	28	Rpleas_acq	Same	Rpleas	Bmasked	CS_B	1pleas	distractor1	EVAbeforeCON	AMP_CSunple	AMP1_masked	6	6	0	0	300	300	0	0	952	50	0	0	0	0	0	1	blank2r.bmp	0	1	GKQX	0	1	blank2r.bmp	79	128	pic128.bmp	199	1	whitenoise_No3.bmp	306	0	0	0	0	0	0	0	0	0	0	0	0	0	0	0	0	0	0	0	0	0	0	0	0	0	0	0	0	0	0	0	0	0	0	0	0	0	0	0
121918	10:13:22	10:26:19	776812	5.0.10.0	4_exp_AMP_EVA_AWA_CON	28	Rpleas_acq	Same	Rpleas	Bmasked	CS_B	1pleas	distractor1	EVAbeforeCON	AMP_CSunple	AMP1_masked	6	7	0	0	300	300	0	0	786	46	0	1	0	0	0	1	blank2r.bmp	0	1	GKQX	0	1	blank2r.bmp	79	70	pic70.bmp	199	1	whitenoise_No3.bmp	306	0	0	0	0	0	0	0	0	0	0	0	0	0	0	0	0	0	0	0	0	0	0	0	0	0	0	0	0	0	0	0	0	0	0	0	0	0	0	0
121918	10:13:22	10:26:21	778385	5.0.10.0	4_exp_AMP_EVA_AWA_CON	28	Rpleas_acq	Same	Rpleas	Bmasked	CS_B	1pleas	distractor1	EVAbeforeCON	AMP_distractor	AMP1_masked	6	8	0	0	300	300	0	0	664	50	0	0	0	0	0	1	blank2r.bmp	0	1	WFPH	0	1	blank2r.bmp	79	114	pic114.bmp	199	1	whitenoise_No3.bmp	306	0	0	0	0	0	0	0	0	0	0	0	0	0	0	0	0	0	0	0	0	0	0	0	0	0	0	0	0	0	0	0	0	0	0	0	0	0	0	0
121918	10:13:22	10:26:23	780290	5.0.10.0	4_exp_AMP_EVA_AWA_CON	28	Rpleas_acq	Same	Rpleas	Bmasked	CS_B	1pleas	distractor1	EVAbeforeCON	AMP_CSpleas	AMP1_masked	6	9	0	0	300	300	0	0	976	46	0	0	0	0	0	1	blank2r.bmp	0	1	BMVZ	0	1	blank2r.bmp	79	107	pic107.bmp	199	1	whitenoise_No3.bmp	306	0	0	0	0	0	0	0	0	0	0	0	0	0	0	0	0	0	0	0	0	0	0	0	0	0	0	0	0	0	0	0	0	0	0	0	0	0	0	0
121918	10:13:22	10:26:25	781970	5.0.10.0	4_exp_AMP_EVA_AWA_CON	28	Rpleas_acq	Same	Rpleas	Bmasked	CS_B	1pleas	distractor1	EVAbeforeCON	AMP_CSpleas	AMP1_masked	6	10	0	0	300	300	0	0	759	46	0	0	0	0	0	1	blank2r.bmp	0	1	BMVZ	0	1	blank2r.bmp	79	15	pic15.bmp	199	1	whitenoise_No3.bmp	306	0	0	0	0	0	0	0	0	0	0	0	0	0	0	0	0	0	0	0	0	0	0	0	0	0	0	0	0	0	0	0	0	0	0	0	0	0	0	0
121918	10:13:22	10:26:26	783876	5.0.10.0	4_exp_AMP_EVA_AWA_CON	28	Rpleas_acq	Same	Rpleas	Bmasked	CS_B	1pleas	distractor1	EVAbeforeCON	AMP_CSunple	AMP1_masked	6	11	0	0	300	300	0	0	992	46	0	1	0	0	0	1	blank2r.bmp	0	1	GKQX	0	1	blank2r.bmp	79	57	pic57.bmp	199	1	whitenoise_No3.bmp	306	0	0	0	0	0	0	0	0	0	0	0	0	0	0	0	0	0	0	0	0	0	0	0	0	0	0	0	0	0	0	0	0	0	0	0	0	0	0	0
121918	10:13:22	10:26:28	785515	5.0.10.0	4_exp_AMP_EVA_AWA_CON	28	Rpleas_acq	Same	Rpleas	Bmasked	CS_B	1pleas	distractor1	EVAbeforeCON	AMP_distractor	AMP1_masked	6	12	0	0	300	300	0	0	706	50	0	0	0	0	0	1	blank2r.bmp	0	1	WFPH	0	1	blank2r.bmp	79	54	pic54.bmp	199	1	whitenoise_No3.bmp	306	0	0	0	0	0	0	0	0	0	0	0	0	0	0	0	0	0	0	0	0	0	0	0	0	0	0	0	0	0	0	0	0	0	0	0	0	0	0	0
121918	10:13:22	10:26:30	787234	5.0.10.0	4_exp_AMP_EVA_AWA_CON	28	Rpleas_acq	Same	Rpleas	Bmasked	CS_B	1pleas	distractor1	EVAbeforeCON	AMP_CSunple	AMP1_masked	6	13	0	0	300	300	0	0	806	50	0	0	0	0	0	1	blank2r.bmp	0	1	GKQX	0	1	blank2r.bmp	79	39	pic39.bmp	199	1	whitenoise_No3.bmp	306	0	0	0	0	0	0	0	0	0	0	0	0	0	0	0	0	0	0	0	0	0	0	0	0	0	0	0	0	0	0	0	0	0	0	0	0	0	0	0
121918	10:13:22	10:26:31	788820	5.0.10.0	4_exp_AMP_EVA_AWA_CON	28	Rpleas_acq	Same	Rpleas	Bmasked	CS_B	1pleas	distractor1	EVAbeforeCON	AMP_distractor	AMP1_masked	6	14	0	0	300	300	0	0	676	46	0	0	0	0	0	1	blank2r.bmp	0	1	WFPH	0	1	blank2r.bmp	79	150	pic150.bmp	199	1	whitenoise_No3.bmp	306	0	0	0	0	0	0	0	0	0	0	0	0	0	0	0	0	0	0	0	0	0	0	0	0	0	0	0	0	0	0	0	0	0	0	0	0	0	0	0
121918	10:13:22	10:26:33	790473	5.0.10.0	4_exp_AMP_EVA_AWA_CON	28	Rpleas_acq	Same	Rpleas	Bmasked	CS_B	1pleas	distractor1	EVAbeforeCON	AMP_CSpleas	AMP1_masked	6	15	0	0	300	300	0	0	720	50	0	1	0	0	0	1	blank2r.bmp	0	1	BMVZ	0	1	blank2r.bmp	79	25	pic25.bmp	199	1	whitenoise_No3.bmp	306	0	0	0	0	0	0	0	0	0	0	0	0	0	0	0	0	0	0	0	0	0	0	0	0	0	0	0	0	0	0	0	0	0	0	0	0	0	0	0
121918	10:13:22	10:26:35	792206	5.0.10.0	4_exp_AMP_EVA_AWA_CON	28	Rpleas_acq	Same	Rpleas	Bmasked	CS_B	1pleas	distractor1	EVAbeforeCON	AMP_CSpleas	AMP1_masked	6	16	0	0	300	300	0	0	802	46	0	0	0	0	0	1	blank2r.bmp	0	1	BMVZ	0	1	blank2r.bmp	79	103	pic103.bmp	199	1	whitenoise_No3.bmp	306	0	0	0	0	0	0	0	0	0	0	0	0	0	0	0	0	0	0	0	0	0	0	0	0	0	0	0	0	0	0	0	0	0	0	0	0	0	0	0
121918	10:13:22	10:26:36	793818	5.0.10.0	4_exp_AMP_EVA_AWA_CON	28	Rpleas_acq	Same	Rpleas	Bmasked	CS_B	1pleas	distractor1	EVAbeforeCON	AMP_distractor	AMP1_masked	6	17	0	0	300	300	0	0	678	50	0	0	0	0	0	1	blank2r.bmp	0	1	WFPH	0	1	blank2r.bmp	79	109	pic109.bmp	199	1	whitenoise_No3.bmp	306	0	0	0	0	0	0	0	0	0	0	0	0	0	0	0	0	0	0	0	0	0	0	0	0	0	0	0	0	0	0	0	0	0	0	0	0	0	0	0
121918	10:13:22	10:26:38	795378	5.0.10.0	4_exp_AMP_EVA_AWA_CON	28	Rpleas_acq	Same	Rpleas	Bmasked	CS_B	1pleas	distractor1	EVAbeforeCON	AMP_distractor	AMP1_masked	6	18	0	0	300	300	0	0	650	46	0	0	0	0	0	1	blank2r.bmp	0	1	WFPH	0	1	blank2r.bmp	79	84	pic84.bmp	199	1	whitenoise_No3.bmp	306	0	0	0	0	0	0	0	0	0	0	0	0	0	0	0	0	0	0	0	0	0	0	0	0	0	0	0	0	0	0	0	0	0	0	0	0	0	0	0
121918	10:13:22	10:26:40	797004	5.0.10.0	4_exp_AMP_EVA_AWA_CON	28	Rpleas_acq	Same	Rpleas	Bmasked	CS_B	1pleas	distractor1	EVAbeforeCON	AMP_distractor	AMP1_masked	6	19	0	0	300	300	0	0	701	46	0	0	0	0	0	1	blank2r.bmp	0	1	WFPH	0	1	blank2r.bmp	79	24	pic24.bmp	199	1	whitenoise_No3.bmp	306	0	0	0	0	0	0	0	0	0	0	0	0	0	0	0	0	0	0	0	0	0	0	0	0	0	0	0	0	0	0	0	0	0	0	0	0	0	0	0
121918	10:13:22	10:26:41	798709	5.0.10.0	4_exp_AMP_EVA_AWA_CON	28	Rpleas_acq	Same	Rpleas	Bmasked	CS_B	1pleas	distractor1	EVAbeforeCON	AMP_CSpleas	AMP1_masked	6	20	0	0	300	300	0	0	775	50	0	1	0	0	0	1	blank2r.bmp	0	1	BMVZ	0	1	blank2r.bmp	79	80	pic80.bmp	199	1	whitenoise_No3.bmp	306	0	0	0	0	0	0	0	0	0	0	0	0	0	0	0	0	0	0	0	0	0	0	0	0	0	0	0	0	0	0	0	0	0	0	0	0	0	0	0
121918	10:13:22	10:26:43	800162	5.0.10.0	4_exp_AMP_EVA_AWA_CON	28	Rpleas_acq	Same	Rpleas	Bmasked	CS_B	1pleas	distractor1	EVAbeforeCON	AMP_CSpleas	AMP1_masked	6	21	0	0	300	300	0	0	526	50	0	1	0	0	0	1	blank2r.bmp	0	1	BMVZ	0	1	blank2r.bmp	79	17	pic17.bmp	199	1	whitenoise_No3.bmp	306	0	0	0	0	0	0	0	0	0	0	0	0	0	0	0	0	0	0	0	0	0	0	0	0	0	0	0	0	0	0	0	0	0	0	0	0	0	0	0
121918	10:13:22	10:26:44	801882	5.0.10.0	4_exp_AMP_EVA_AWA_CON	28	Rpleas_acq	Same	Rpleas	Bmasked	CS_B	1pleas	distractor1	EVAbeforeCON	AMP_CSunple	AMP1_masked	6	22	0	0	300	300	0	0	789	46	0	1	0	0	0	1	blank2r.bmp	0	1	GKQX	0	1	blank2r.bmp	79	97	pic97.bmp	199	1	whitenoise_No3.bmp	306	0	0	0	0	0	0	0	0	0	0	0	0	0	0	0	0	0	0	0	0	0	0	0	0	0	0	0	0	0	0	0	0	0	0	0	0	0	0	0
121918	10:13:22	10:26:46	803414	5.0.10.0	4_exp_AMP_EVA_AWA_CON	28	Rpleas_acq	Same	Rpleas	Bmasked	CS_B	1pleas	distractor1	EVAbeforeCON	AMP_distractor	AMP1_masked	6	23	0	0	300	300	0	0	613	50	0	0	0	0	0	1	blank2r.bmp	0	1	WFPH	0	1	blank2r.bmp	79	23	pic23.bmp	199	1	whitenoise_No3.bmp	306	0	0	0	0	0	0	0	0	0	0	0	0	0	0	0	0	0	0	0	0	0	0	0	0	0	0	0	0	0	0	0	0	0	0	0	0	0	0	0
121918	10:13:22	10:26:48	805187	5.0.10.0	4_exp_AMP_EVA_AWA_CON	28	Rpleas_acq	Same	Rpleas	Bmasked	CS_B	1pleas	distractor1	EVAbeforeCON	AMP_CSunple	AMP1_masked	6	24	0	0	300	300	0	0	863	50	0	0	0	0	0	1	blank2r.bmp	0	1	GKQX	0	1	blank2r.bmp	79	143	pic143.bmp	199	1	whitenoise_No3.bmp	306	0	0	0	0	0	0	0	0	0	0	0	0	0	0	0	0	0	0	0	0	0	0	0	0	0	0	0	0	0	0	0	0	0	0	0	0	0	0	0
121918	10:13:22	10:26:49	806773	5.0.10.0	4_exp_AMP_EVA_AWA_CON	28	Rpleas_acq	Same	Rpleas	Bmasked	CS_B	1pleas	distractor1	EVAbeforeCON	AMP_CSunple	AMP1_masked	6	25	0	0	300	300	0	0	666	46	0	1	0	0	0	1	blank2r.bmp	0	1	GKQX	0	1	blank2r.bmp	79	92	pic92.bmp	199	1	whitenoise_No3.bmp	306	0	0	0	0	0	0	0	0	0	0	0	0	0	0	0	0	0	0	0	0	0	0	0	0	0	0	0	0	0	0	0	0	0	0	0	0	0	0	0
121918	10:13:22	10:26:51	808266	5.0.10.0	4_exp_AMP_EVA_AWA_CON	28	Rpleas_acq	Same	Rpleas	Bmasked	CS_B	1pleas	distractor1	EVAbeforeCON	AMP_CSpleas	AMP1_masked	6	26	0	0	300	300	0	0	582	46	0	0	0	0	0	1	blank2r.bmp	0	1	BMVZ	0	1	blank2r.bmp	79	83	pic83.bmp	199	1	whitenoise_No3.bmp	306	0	0	0	0	0	0	0	0	0	0	0	0	0	0	0	0	0	0	0	0	0	0	0	0	0	0	0	0	0	0	0	0	0	0	0	0	0	0	0
121918	10:13:22	10:26:52	809812	5.0.10.0	4_exp_AMP_EVA_AWA_CON	28	Rpleas_acq	Same	Rpleas	Bmasked	CS_B	1pleas	distractor1	EVAbeforeCON	AMP_distractor	AMP1_masked	6	27	0	0	300	300	0	0	612	50	0	0	0	0	0	1	blank2r.bmp	0	1	WFPH	0	1	blank2r.bmp	79	11	pic11.bmp	199	1	whitenoise_No3.bmp	306	0	0	0	0	0	0	0	0	0	0	0	0	0	0	0	0	0	0	0	0	0	0	0	0	0	0	0	0	0	0	0	0	0	0	0	0	0	0	0
121918	10:13:22	10:26:54	811544	5.0.10.0	4_exp_AMP_EVA_AWA_CON	28	Rpleas_acq	Same	Rpleas	Bmasked	CS_B	1pleas	distractor1	EVAbeforeCON	AMP_distractor	AMP1_masked	6	28	0	0	300	300	0	0	821	46	0	0	0	0	0	1	blank2r.bmp	0	1	WFPH	0	1	blank2r.bmp	79	32	pic32.bmp	199	1	whitenoise_No3.bmp	306	0	0	0	0	0	0	0	0	0	0	0	0	0	0	0	0	0	0	0	0	0	0	0	0	0	0	0	0	0	0	0	0	0	0	0	0	0	0	0
121918	10:13:22	10:26:56	813064	5.0.10.0	4_exp_AMP_EVA_AWA_CON	28	Rpleas_acq	Same	Rpleas	Bmasked	CS_B	1pleas	distractor1	EVAbeforeCON	AMP_CSunple	AMP1_masked	6	29	0	0	300	300	0	0	593	50	0	0	0	0	0	1	blank2r.bmp	0	1	GKQX	0	1	blank2r.bmp	79	135	pic135.bmp	199	1	whitenoise_No3.bmp	306	0	0	0	0	0	0	0	0	0	0	0	0	0	0	0	0	0	0	0	0	0	0	0	0	0	0	0	0	0	0	0	0	0	0	0	0	0	0	0
121918	10:13:22	10:26:57	814716	5.0.10.0	4_exp_AMP_EVA_AWA_CON	28	Rpleas_acq	Same	Rpleas	Bmasked	CS_B	1pleas	distractor1	EVAbeforeCON	AMP_CSunple	AMP1_masked	6	30	0	0	300	300	0	0	718	46	0	1	0	0	0	1	blank2r.bmp	0	1	GKQX	0	1	blank2r.bmp	79	141	pic141.bmp	199	1	whitenoise_No3.bmp	306	0	0	0	0	0	0	0	0	0	0	0	0	0	0	0	0	0	0	0	0	0	0	0	0	0	0	0	0	0	0	0	0	0	0	0	0	0	0	0
121918	10:13:22	10:26:59	816089	5.0.10.0	4_exp_AMP_EVA_AWA_CON	28	Rpleas_acq	Same	Rpleas	Bmasked	CS_B	1pleas	distractor1	EVAbeforeCON	AMP_CSpleas	AMP1_masked	6	31	0	0	300	300	0	0	445	50	0	1	0	0	0	1	blank2r.bmp	0	1	BMVZ	0	1	blank2r.bmp	79	2	pic2.bmp	199	1	whitenoise_No3.bmp	306	0	0	0	0	0	0	0	0	0	0	0	0	0	0	0	0	0	0	0	0	0	0	0	0	0	0	0	0	0	0	0	0	0	0	0	0	0	0	0
121918	10:13:22	10:27:00	817555	5.0.10.0	4_exp_AMP_EVA_AWA_CON	28	Rpleas_acq	Same	Rpleas	Bmasked	CS_B	1pleas	distractor1	EVAbeforeCON	AMP_CSunple	AMP1_masked	6	32	0	0	300	300	0	0	540	46	0	1	0	0	0	1	blank2r.bmp	0	1	GKQX	0	1	blank2r.bmp	79	59	pic59.bmp	199	1	whitenoise_No3.bmp	306	0	0	0	0	0	0	0	0	0	0	0	0	0	0	0	0	0	0	0	0	0	0	0	0	0	0	0	0	0	0	0	0	0	0	0	0	0	0	0
121918	10:13:22	10:27:02	819034	5.0.10.0	4_exp_AMP_EVA_AWA_CON	28	Rpleas_acq	Same	Rpleas	Bmasked	CS_B	1pleas	distractor1	EVAbeforeCON	AMP_distractor	AMP1_masked	6	33	0	0	300	300	0	0	552	50	0	0	0	0	0	1	blank2r.bmp	0	1	WFPH	0	1	blank2r.bmp	79	106	pic106.bmp	199	1	whitenoise_No3.bmp	306	0	0	0	0	0	0	0	0	0	0	0	0	0	0	0	0	0	0	0	0	0	0	0	0	0	0	0	0	0	0	0	0	0	0	0	0	0	0	0
121918	10:13:22	10:27:03	820620	5.0.10.0	4_exp_AMP_EVA_AWA_CON	28	Rpleas_acq	Same	Rpleas	Bmasked	CS_B	1pleas	distractor1	EVAbeforeCON	AMP_CSpleas	AMP1_masked	6	34	0	0	300	300	0	0	655	50	0	1	0	0	0	1	blank2r.bmp	0	1	BMVZ	0	1	blank2r.bmp	79	134	pic134.bmp	199	1	whitenoise_No3.bmp	306	0	0	0	0	0	0	0	0	0	0	0	0	0	0	0	0	0	0	0	0	0	0	0	0	0	0	0	0	0	0	0	0	0	0	0	0	0	0	0
121918	10:13:22	10:27:05	822153	5.0.10.0	4_exp_AMP_EVA_AWA_CON	28	Rpleas_acq	Same	Rpleas	Bmasked	CS_B	1pleas	distractor1	EVAbeforeCON	AMP_distractor	AMP1_masked	6	35	0	0	300	300	0	0	623	46	0	0	0	0	0	1	blank2r.bmp	0	1	WFPH	0	1	blank2r.bmp	79	38	pic38.bmp	199	1	whitenoise_No3.bmp	306	0	0	0	0	0	0	0	0	0	0	0	0	0	0	0	0	0	0	0	0	0	0	0	0	0	0	0	0	0	0	0	0	0	0	0	0	0	0	0
121918	10:13:22	10:27:06	823659	5.0.10.0	4_exp_AMP_EVA_AWA_CON	28	Rpleas_acq	Same	Rpleas	Bmasked	CS_B	1pleas	distractor1	EVAbeforeCON	AMP_CSpleas	AMP1_masked	6	36	0	0	300	300	0	0	573	50	0	1	0	0	0	1	blank2r.bmp	0	1	BMVZ	0	1	blank2r.bmp	79	49	pic49.bmp	199	1	whitenoise_No3.bmp	306	0	0	0	0	0	0	0	0	0	0	0	0	0	0	0	0	0	0	0	0	0	0	0	0	0	0	0	0	0	0	0	0	0	0	0	0	0	0	0
121918	10:13:22	10:27:08	825099	5.0.10.0	4_exp_AMP_EVA_AWA_CON	28	Rpleas_acq	Same	Rpleas	Bmasked	CS_B	1pleas	distractor1	EVAbeforeCON	AMP_CSpleas	AMP1_masked	6	37	0	0	300	300	0	0	521	50	0	1	0	0	0	1	blank2r.bmp	0	1	BMVZ	0	1	blank2r.bmp	79	63	pic63.bmp	199	1	whitenoise_No3.bmp	306	0	0	0	0	0	0	0	0	0	0	0	0	0	0	0	0	0	0	0	0	0	0	0	0	0	0	0	0	0	0	0	0	0	0	0	0	0	0	0
121918	10:13:22	10:27:09	826458	5.0.10.0	4_exp_AMP_EVA_AWA_CON	28	Rpleas_acq	Same	Rpleas	Bmasked	CS_B	1pleas	distractor1	EVAbeforeCON	AMP_CSunple	AMP1_masked	6	38	0	0	300	300	0	0	441	50	0	0	0	0	0	1	blank2r.bmp	0	1	GKQX	0	1	blank2r.bmp	79	33	pic33.bmp	199	1	whitenoise_No3.bmp	306	0	0	0	0	0	0	0	0	0	0	0	0	0	0	0	0	0	0	0	0	0	0	0	0	0	0	0	0	0	0	0	0	0	0	0	0	0	0	0
121918	10:13:22	10:27:11	828084	5.0.10.0	4_exp_AMP_EVA_AWA_CON	28	Rpleas_acq	Same	Rpleas	Bmasked	CS_B	1pleas	distractor1	EVAbeforeCON	AMP_CSpleas	AMP1_masked	6	39	0	0	300	300	0	0	718	50	0	1	0	0	0	1	blank2r.bmp	0	1	BMVZ	0	1	blank2r.bmp	79	21	pic21.bmp	199	1	whitenoise_No3.bmp	306	0	0	0	0	0	0	0	0	0	0	0	0	0	0	0	0	0	0	0	0	0	0	0	0	0	0	0	0	0	0	0	0	0	0	0	0	0	0	0
121918	10:13:22	10:27:12	829550	5.0.10.0	4_exp_AMP_EVA_AWA_CON	28	Rpleas_acq	Same	Rpleas	Bmasked	CS_B	1pleas	distractor1	EVAbeforeCON	AMP_distractor	AMP1_masked	6	40	0	0	300	300	0	0	539	46	0	0	0	0	0	1	blank2r.bmp	0	1	WFPH	0	1	blank2r.bmp	79	137	pic137.bmp	199	1	whitenoise_No3.bmp	306	0	0	0	0	0	0	0	0	0	0	0	0	0	0	0	0	0	0	0	0	0	0	0	0	0	0	0	0	0	0	0	0	0	0	0	0	0	0	0
121918	10:13:22	10:27:14	830976	5.0.10.0	4_exp_AMP_EVA_AWA_CON	28	Rpleas_acq	Same	Rpleas	Bmasked	CS_B	1pleas	distractor1	EVAbeforeCON	AMP_CSunple	AMP1_masked	6	41	0	0	300	300	0	0	497	50	0	0	0	0	0	1	blank2r.bmp	0	1	GKQX	0	1	blank2r.bmp	79	26	pic26.bmp	199	1	whitenoise_No3.bmp	306	0	0	0	0	0	0	0	0	0	0	0	0	0	0	0	0	0	0	0	0	0	0	0	0	0	0	0	0	0	0	0	0	0	0	0	0	0	0	0
121918	10:13:22	10:27:15	832376	5.0.10.0	4_exp_AMP_EVA_AWA_CON	28	Rpleas_acq	Same	Rpleas	Bmasked	CS_B	1pleas	distractor1	EVAbeforeCON	AMP_CSunple	AMP1_masked	6	42	0	0	300	300	0	0	480	46	0	1	0	0	0	1	blank2r.bmp	0	1	GKQX	0	1	blank2r.bmp	79	77	pic77.bmp	199	1	whitenoise_No3.bmp	306	0	0	0	0	0	0	0	0	0	0	0	0	0	0	0	0	0	0	0	0	0	0	0	0	0	0	0	0	0	0	0	0	0	0	0	0	0	0	0
121918	10:13:22	10:27:16	833735	5.0.10.0	4_exp_AMP_EVA_AWA_CON	28	Rpleas_acq	Same	Rpleas	Bmasked	CS_B	1pleas	distractor1	EVAbeforeCON	AMP_CSunple	AMP1_masked	6	43	0	0	300	300	0	0	436	46	0	1	0	0	0	1	blank2r.bmp	0	1	GKQX	0	1	blank2r.bmp	79	101	pic101.bmp	199	1	whitenoise_No3.bmp	306	0	0	0	0	0	0	0	0	0	0	0	0	0	0	0	0	0	0	0	0	0	0	0	0	0	0	0	0	0	0	0	0	0	0	0	0	0	0	0
121918	10:13:22	10:27:18	835068	5.0.10.0	4_exp_AMP_EVA_AWA_CON	28	Rpleas_acq	Same	Rpleas	Bmasked	CS_B	1pleas	distractor1	EVAbeforeCON	AMP_CSpleas	AMP1_masked	6	44	0	0	300	300	0	0	422	50	0	1	0	0	0	1	blank2r.bmp	0	1	BMVZ	0	1	blank2r.bmp	79	76	pic76.bmp	199	1	whitenoise_No3.bmp	306	0	0	0	0	0	0	0	0	0	0	0	0	0	0	0	0	0	0	0	0	0	0	0	0	0	0	0	0	0	0	0	0	0	0	0	0	0	0	0
121918	10:13:22	10:27:19	836494	5.0.10.0	4_exp_AMP_EVA_AWA_CON	28	Rpleas_acq	Same	Rpleas	Bmasked	CS_B	1pleas	distractor1	EVAbeforeCON	AMP_distractor	AMP1_masked	6	45	0	0	300	300	0	0	496	50	0	0	0	0	0	1	blank2r.bmp	0	1	WFPH	0	1	blank2r.bmp	79	86	pic86.bmp	199	1	whitenoise_No3.bmp	306	0	0	0	0	0	0	0	0	0	0	0	0	0	0	0	0	0	0	0	0	0	0	0	0	0	0	0	0	0	0	0	0	0	0	0	0	0	0	0
121918	10:13:22	10:27:21	838040	5.0.10.0	4_exp_AMP_EVA_AWA_CON	28	Rpleas_acq	Same	Rpleas	Bmasked	CS_B	1pleas	distractor1	EVAbeforeCON	AMP_distractor	AMP1_masked	6	46	0	0	300	300	0	0	624	46	0	0	0	0	0	1	blank2r.bmp	0	1	WFPH	0	1	blank2r.bmp	79	139	pic139.bmp	199	1	whitenoise_No3.bmp	306	0	0	0	0	0	0	0	0	0	0	0	0	0	0	0	0	0	0	0	0	0	0	0	0	0	0	0	0	0	0	0	0	0	0	0	0	0	0	0
121918	10:13:22	10:27:22	839546	5.0.10.0	4_exp_AMP_EVA_AWA_CON	28	Rpleas_acq	Same	Rpleas	Bmasked	CS_B	1pleas	distractor1	EVAbeforeCON	AMP_CSunple	AMP1_masked	6	47	0	0	300	300	0	0	590	46	0	1	0	0	0	1	blank2r.bmp	0	1	GKQX	0	1	blank2r.bmp	79	91	pic91.bmp	199	1	whitenoise_No3.bmp	306	0	0	0	0	0	0	0	0	0	0	0	0	0	0	0	0	0	0	0	0	0	0	0	0	0	0	0	0	0	0	0	0	0	0	0	0	0	0	0
121918	10:13:22	10:27:24	841439	5.0.10.0	4_exp_AMP_EVA_AWA_CON	28	Rpleas_acq	Same	Rpleas	Bmasked	CS_B	1pleas	distractor1	EVAbeforeCON	AMP_CSunple	AMP1_masked	6	48	0	0	300	300	0	0	963	46	0	1	0	0	0	1	blank2r.bmp	0	1	GKQX	0	1	blank2r.bmp	79	87	pic87.bmp	199	1	whitenoise_No3.bmp	306	0	0	0	0	0	0	0	0	0	0	0	0	0	0	0	0	0	0	0	0	0	0	0	0	0	0	0	0	0	0	0	0	0	0	0	0	0	0	0
121918	10:13:22	10:27:26	843278	5.0.10.0	4_exp_AMP_EVA_AWA_CON	28	Rpleas_acq	Same	Rpleas	Bmasked	CS_B	1pleas	distractor1	EVAbeforeCON	AMP_CSpleas	AMP1_masked	6	49	0	0	300	300	0	0	906	50	0	1	0	0	0	1	blank2r.bmp	0	1	BMVZ	0	1	blank2r.bmp	79	47	pic47.bmp	199	1	whitenoise_No3.bmp	306	0	0	0	0	0	0	0	0	0	0	0	0	0	0	0	0	0	0	0	0	0	0	0	0	0	0	0	0	0	0	0	0	0	0	0	0	0	0	0
121918	10:13:22	10:27:28	845104	5.0.10.0	4_exp_AMP_EVA_AWA_CON	28	Rpleas_acq	Same	Rpleas	Bmasked	CS_B	1pleas	distractor1	EVAbeforeCON	AMP_CSpleas	AMP1_masked	6	50	0	0	300	300	0	0	900	46	0	0	0	0	0	1	blank2r.bmp	0	1	BMVZ	0	1	blank2r.bmp	79	22	pic22.bmp	199	1	whitenoise_No3.bmp	306	0	0	0	0	0	0	0	0	0	0	0	0	0	0	0	0	0	0	0	0	0	0	0	0	0	0	0	0	0	0	0	0	0	0	0	0	0	0	0
121918	10:13:22	10:27:29	846743	5.0.10.0	4_exp_AMP_EVA_AWA_CON	28	Rpleas_acq	Same	Rpleas	Bmasked	CS_B	1pleas	distractor1	EVAbeforeCON	AMP_distractor	AMP1_masked	6	51	0	0	300	300	0	0	707	46	0	0	0	0	0	1	blank2r.bmp	0	1	WFPH	0	1	blank2r.bmp	79	102	pic102.bmp	199	1	whitenoise_No3.bmp	306	0	0	0	0	0	0	0	0	0	0	0	0	0	0	0	0	0	0	0	0	0	0	0	0	0	0	0	0	0	0	0	0	0	0	0	0	0	0	0
121918	10:13:22	10:27:41	858392	5.0.10.0	4_exp_AMP_EVA_AWA_CON	28	Rpleas_acq	Same	Rpleas	Bmasked	CS_B	1pleas	distractor1	EVAbeforeCON	AMP_distractor	AMP23	7	1	0	0	300	300	0	0	2007	50	0	0	0	0	0	1	blank2r.bmp	0	1	WFPH	0	1	blank2r.bmp	79	27	pic27.bmp	199	1	whitenoise_No3.bmp	306	0	0	0	0	0	0	0	0	0	0	0	0	0	0	0	0	0	0	0	0	0	0	0	0	0	0	0	0	0	0	0	0	0	0	0	0	0	0	0
121918	10:13:22	10:27:43	860284	5.0.10.0	4_exp_AMP_EVA_AWA_CON	28	Rpleas_acq	Same	Rpleas	Bmasked	CS_B	1pleas	distractor1	EVAbeforeCON	AMP_CSpleas	AMP23	7	2	0	0	300	300	0	0	967	46	0	0	0	0	0	1	blank2r.bmp	0	1	BMVZ	0	1	blank2r.bmp	79	13	pic13.bmp	199	1	whitenoise_No3.bmp	306	0	0	0	0	0	0	0	0	0	0	0	0	0	0	0	0	0	0	0	0	0	0	0	0	0	0	0	0	0	0	0	0	0	0	0	0	0	0	0
121918	10:13:22	10:27:45	862230	5.0.10.0	4_exp_AMP_EVA_AWA_CON	28	Rpleas_acq	Same	Rpleas	Bmasked	CS_B	1pleas	distractor1	EVAbeforeCON	AMP_CSpleas	AMP23	7	3	0	0	300	300	0	0	1021	50	0	1	0	0	0	1	blank2r.bmp	0	1	BMVZ	0	1	blank2r.bmp	79	69	pic69.bmp	199	1	whitenoise_No3.bmp	306	0	0	0	0	0	0	0	0	0	0	0	0	0	0	0	0	0	0	0	0	0	0	0	0	0	0	0	0	0	0	0	0	0	0	0	0	0	0	0
121918	10:13:22	10:27:47	863963	5.0.10.0	4_exp_AMP_EVA_AWA_CON	28	Rpleas_acq	Same	Rpleas	Bmasked	CS_B	1pleas	distractor1	EVAbeforeCON	AMP_distractor	AMP23	7	4	0	0	300	300	0	0	805	50	0	0	0	0	0	1	blank2r.bmp	0	1	WFPH	0	1	blank2r.bmp	79	98	pic98.bmp	199	1	whitenoise_No3.bmp	306	0	0	0	0	0	0	0	0	0	0	0	0	0	0	0	0	0	0	0	0	0	0	0	0	0	0	0	0	0	0	0	0	0	0	0	0	0	0	0
121918	10:13:22	10:27:48	865455	5.0.10.0	4_exp_AMP_EVA_AWA_CON	28	Rpleas_acq	Same	Rpleas	Bmasked	CS_B	1pleas	distractor1	EVAbeforeCON	AMP_CSunple	AMP23	7	5	0	0	300	300	0	0	570	50	0	0	0	0	0	1	blank2r.bmp	0	1	GKQX	0	1	blank2r.bmp	79	149	pic149.bmp	199	1	whitenoise_No3.bmp	306	0	0	0	0	0	0	0	0	0	0	0	0	0	0	0	0	0	0	0	0	0	0	0	0	0	0	0	0	0	0	0	0	0	0	0	0	0	0	0
121918	10:13:22	10:27:49	866908	5.0.10.0	4_exp_AMP_EVA_AWA_CON	28	Rpleas_acq	Same	Rpleas	Bmasked	CS_B	1pleas	distractor1	EVAbeforeCON	AMP_CSunple	AMP23	7	6	0	0	300	300	0	0	528	50	0	0	0	0	0	1	blank2r.bmp	0	1	GKQX	0	1	blank2r.bmp	79	7	pic7.bmp	199	1	whitenoise_No3.bmp	306	0	0	0	0	0	0	0	0	0	0	0	0	0	0	0	0	0	0	0	0	0	0	0	0	0	0	0	0	0	0	0	0	0	0	0	0	0	0	0
121918	10:13:22	10:27:51	868401	5.0.10.0	4_exp_AMP_EVA_AWA_CON	28	Rpleas_acq	Same	Rpleas	Bmasked	CS_B	1pleas	distractor1	EVAbeforeCON	AMP_CSunple	AMP23	7	7	0	0	300	300	0	0	564	50	0	0	0	0	0	1	blank2r.bmp	0	1	GKQX	0	1	blank2r.bmp	79	78	pic78.bmp	199	1	whitenoise_No3.bmp	306	0	0	0	0	0	0	0	0	0	0	0	0	0	0	0	0	0	0	0	0	0	0	0	0	0	0	0	0	0	0	0	0	0	0	0	0	0	0	0
121918	10:13:22	10:27:52	869880	5.0.10.0	4_exp_AMP_EVA_AWA_CON	28	Rpleas_acq	Same	Rpleas	Bmasked	CS_B	1pleas	distractor1	EVAbeforeCON	AMP_distractor	AMP23	7	8	0	0	300	300	0	0	570	46	0	0	0	0	0	1	blank2r.bmp	0	1	WFPH	0	1	blank2r.bmp	79	104	pic104.bmp	199	1	whitenoise_No3.bmp	306	0	0	0	0	0	0	0	0	0	0	0	0	0	0	0	0	0	0	0	0	0	0	0	0	0	0	0	0	0	0	0	0	0	0	0	0	0	0	0
121918	10:13:22	10:27:54	871586	5.0.10.0	4_exp_AMP_EVA_AWA_CON	28	Rpleas_acq	Same	Rpleas	Bmasked	CS_B	1pleas	distractor1	EVAbeforeCON	AMP_CSunple	AMP23	7	9	0	0	300	300	0	0	794	46	0	1	0	0	0	1	blank2r.bmp	0	1	GKQX	0	1	blank2r.bmp	79	147	pic147.bmp	199	1	whitenoise_No3.bmp	306	0	0	0	0	0	0	0	0	0	0	0	0	0	0	0	0	0	0	0	0	0	0	0	0	0	0	0	0	0	0	0	0	0	0	0	0	0	0	0
121918	10:13:22	10:27:56	873039	5.0.10.0	4_exp_AMP_EVA_AWA_CON	28	Rpleas_acq	Same	Rpleas	Bmasked	CS_B	1pleas	distractor1	EVAbeforeCON	AMP_distractor	AMP23	7	10	0	0	300	300	0	0	531	50	0	0	0	0	0	1	blank2r.bmp	0	1	WFPH	0	1	blank2r.bmp	79	8	pic8.bmp	199	1	whitenoise_No3.bmp	306	0	0	0	0	0	0	0	0	0	0	0	0	0	0	0	0	0	0	0	0	0	0	0	0	0	0	0	0	0	0	0	0	0	0	0	0	0	0	0
121918	10:13:22	10:27:57	874625	5.0.10.0	4_exp_AMP_EVA_AWA_CON	28	Rpleas_acq	Same	Rpleas	Bmasked	CS_B	1pleas	distractor1	EVAbeforeCON	AMP_CSunple	AMP23	7	11	0	0	300	300	0	0	660	50	0	0	0	0	0	1	blank2r.bmp	0	1	GKQX	0	1	blank2r.bmp	79	19	pic19.bmp	199	1	whitenoise_No3.bmp	306	0	0	0	0	0	0	0	0	0	0	0	0	0	0	0	0	0	0	0	0	0	0	0	0	0	0	0	0	0	0	0	0	0	0	0	0	0	0	0
121918	10:13:22	10:27:59	876104	5.0.10.0	4_exp_AMP_EVA_AWA_CON	28	Rpleas_acq	Same	Rpleas	Bmasked	CS_B	1pleas	distractor1	EVAbeforeCON	AMP_CSpleas	AMP23	7	12	0	0	300	300	0	0	566	46	0	0	0	0	0	1	blank2r.bmp	0	1	BMVZ	0	1	blank2r.bmp	79	108	pic108.bmp	199	1	whitenoise_No3.bmp	306	0	0	0	0	0	0	0	0	0	0	0	0	0	0	0	0	0	0	0	0	0	0	0	0	0	0	0	0	0	0	0	0	0	0	0	0	0	0	0
121918	10:13:22	10:28:00	877584	5.0.10.0	4_exp_AMP_EVA_AWA_CON	28	Rpleas_acq	Same	Rpleas	Bmasked	CS_B	1pleas	distractor1	EVAbeforeCON	AMP_CSpleas	AMP23	7	13	0	0	300	300	0	0	569	46	0	0	0	0	0	1	blank2r.bmp	0	1	BMVZ	0	1	blank2r.bmp	79	90	pic90.bmp	199	1	whitenoise_No3.bmp	306	0	0	0	0	0	0	0	0	0	0	0	0	0	0	0	0	0	0	0	0	0	0	0	0	0	0	0	0	0	0	0	0	0	0	0	0	0	0	0
121918	10:13:22	10:28:02	879036	5.0.10.0	4_exp_AMP_EVA_AWA_CON	28	Rpleas_acq	Same	Rpleas	Bmasked	CS_B	1pleas	distractor1	EVAbeforeCON	AMP_CSunple	AMP23	7	14	0	0	300	300	0	0	518	46	0	1	0	0	0	1	blank2r.bmp	0	1	GKQX	0	1	blank2r.bmp	79	110	pic110.bmp	199	1	whitenoise_No3.bmp	306	0	0	0	0	0	0	0	0	0	0	0	0	0	0	0	0	0	0	0	0	0	0	0	0	0	0	0	0	0	0	0	0	0	0	0	0	0	0	0
121918	10:13:22	10:28:03	880409	5.0.10.0	4_exp_AMP_EVA_AWA_CON	28	Rpleas_acq	Same	Rpleas	Bmasked	CS_B	1pleas	distractor1	EVAbeforeCON	AMP_CSunple	AMP23	7	15	0	0	300	300	0	0	459	46	0	1	0	0	0	1	blank2r.bmp	0	1	GKQX	0	1	blank2r.bmp	79	144	pic144.bmp	199	1	whitenoise_No3.bmp	306	0	0	0	0	0	0	0	0	0	0	0	0	0	0	0	0	0	0	0	0	0	0	0	0	0	0	0	0	0	0	0	0	0	0	0	0	0	0	0
121918	10:13:22	10:28:04	881769	5.0.10.0	4_exp_AMP_EVA_AWA_CON	28	Rpleas_acq	Same	Rpleas	Bmasked	CS_B	1pleas	distractor1	EVAbeforeCON	AMP_distractor	AMP23	7	16	0	0	300	300	0	0	445	50	0	0	0	0	0	1	blank2r.bmp	0	1	WFPH	0	1	blank2r.bmp	79	30	pic30.bmp	199	1	whitenoise_No3.bmp	306	0	0	0	0	0	0	0	0	0	0	0	0	0	0	0	0	0	0	0	0	0	0	0	0	0	0	0	0	0	0	0	0	0	0	0	0	0	0	0
121918	10:13:22	10:28:06	883155	5.0.10.0	4_exp_AMP_EVA_AWA_CON	28	Rpleas_acq	Same	Rpleas	Bmasked	CS_B	1pleas	distractor1	EVAbeforeCON	AMP_distractor	AMP23	7	17	0	0	300	300	0	0	474	46	0	0	0	0	0	1	blank2r.bmp	0	1	WFPH	0	1	blank2r.bmp	79	44	pic44.bmp	199	1	whitenoise_No3.bmp	306	0	0	0	0	0	0	0	0	0	0	0	0	0	0	0	0	0	0	0	0	0	0	0	0	0	0	0	0	0	0	0	0	0	0	0	0	0	0	0
121918	10:13:22	10:28:07	884634	5.0.10.0	4_exp_AMP_EVA_AWA_CON	28	Rpleas_acq	Same	Rpleas	Bmasked	CS_B	1pleas	distractor1	EVAbeforeCON	AMP_CSunple	AMP23	7	18	0	0	300	300	0	0	561	50	0	0	0	0	0	1	blank2r.bmp	0	1	GKQX	0	1	blank2r.bmp	79	56	pic56.bmp	199	1	whitenoise_No3.bmp	306	0	0	0	0	0	0	0	0	0	0	0	0	0	0	0	0	0	0	0	0	0	0	0	0	0	0	0	0	0	0	0	0	0	0	0	0	0	0	0
121918	10:13:22	10:28:09	886033	5.0.10.0	4_exp_AMP_EVA_AWA_CON	28	Rpleas_acq	Same	Rpleas	Bmasked	CS_B	1pleas	distractor1	EVAbeforeCON	AMP_distractor	AMP23	7	19	0	0	300	300	0	0	477	46	0	0	0	0	0	1	blank2r.bmp	0	1	WFPH	0	1	blank2r.bmp	79	126	pic126.bmp	199	1	whitenoise_No3.bmp	306	0	0	0	0	0	0	0	0	0	0	0	0	0	0	0	0	0	0	0	0	0	0	0	0	0	0	0	0	0	0	0	0	0	0	0	0	0	0	0
121918	10:13:22	10:28:10	887353	5.0.10.0	4_exp_AMP_EVA_AWA_CON	28	Rpleas_acq	Same	Rpleas	Bmasked	CS_B	1pleas	distractor1	EVAbeforeCON	AMP_CSpleas	AMP23	7	20	0	0	300	300	0	0	386	46	0	0	0	0	0	1	blank2r.bmp	0	1	BMVZ	0	1	blank2r.bmp	79	129	pic129.bmp	199	1	whitenoise_No3.bmp	306	0	0	0	0	0	0	0	0	0	0	0	0	0	0	0	0	0	0	0	0	0	0	0	0	0	0	0	0	0	0	0	0	0	0	0	0	0	0	0
121918	10:13:22	10:28:12	889165	5.0.10.0	4_exp_AMP_EVA_AWA_CON	28	Rpleas_acq	Same	Rpleas	Bmasked	CS_B	1pleas	distractor1	EVAbeforeCON	AMP_CSunple	AMP23	7	21	0	0	300	300	0	0	903	46	0	1	0	0	0	1	blank2r.bmp	0	1	GKQX	0	1	blank2r.bmp	79	151	pic151.bmp	199	1	whitenoise_No3.bmp	306	0	0	0	0	0	0	0	0	0	0	0	0	0	0	0	0	0	0	0	0	0	0	0	0	0	0	0	0	0	0	0	0	0	0	0	0	0	0	0
121918	10:13:22	10:28:13	890578	5.0.10.0	4_exp_AMP_EVA_AWA_CON	28	Rpleas_acq	Same	Rpleas	Bmasked	CS_B	1pleas	distractor1	EVAbeforeCON	AMP_CSpleas	AMP23	7	22	0	0	300	300	0	0	480	46	0	0	0	0	0	1	blank2r.bmp	0	1	BMVZ	0	1	blank2r.bmp	79	133	pic133.bmp	199	1	whitenoise_No3.bmp	306	0	0	0	0	0	0	0	0	0	0	0	0	0	0	0	0	0	0	0	0	0	0	0	0	0	0	0	0	0	0	0	0	0	0	0	0	0	0	0
121918	10:13:22	10:28:15	892364	5.0.10.0	4_exp_AMP_EVA_AWA_CON	28	Rpleas_acq	Same	Rpleas	Bmasked	CS_B	1pleas	distractor1	EVAbeforeCON	AMP_CSpleas	AMP23	7	23	0	0	300	300	0	0	855	46	0	0	0	0	0	1	blank2r.bmp	0	1	BMVZ	0	1	blank2r.bmp	79	81	pic81.bmp	199	1	whitenoise_No3.bmp	306	0	0	0	0	0	0	0	0	0	0	0	0	0	0	0	0	0	0	0	0	0	0	0	0	0	0	0	0	0	0	0	0	0	0	0	0	0	0	0
121918	10:13:22	10:28:16	893897	5.0.10.0	4_exp_AMP_EVA_AWA_CON	28	Rpleas_acq	Same	Rpleas	Bmasked	CS_B	1pleas	distractor1	EVAbeforeCON	AMP_distractor	AMP23	7	24	0	0	300	300	0	0	617	50	0	0	0	0	0	1	blank2r.bmp	0	1	WFPH	0	1	blank2r.bmp	79	145	pic145.bmp	199	1	whitenoise_No3.bmp	306	0	0	0	0	0	0	0	0	0	0	0	0	0	0	0	0	0	0	0	0	0	0	0	0	0	0	0	0	0	0	0	0	0	0	0	0	0	0	0
121918	10:13:22	10:28:18	895230	5.0.10.0	4_exp_AMP_EVA_AWA_CON	28	Rpleas_acq	Same	Rpleas	Bmasked	CS_B	1pleas	distractor1	EVAbeforeCON	AMP_CSunple	AMP23	7	25	0	0	300	300	0	0	399	50	0	0	0	0	0	1	blank2r.bmp	0	1	GKQX	0	1	blank2r.bmp	79	36	pic36.bmp	199	1	whitenoise_No3.bmp	306	0	0	0	0	0	0	0	0	0	0	0	0	0	0	0	0	0	0	0	0	0	0	0	0	0	0	0	0	0	0	0	0	0	0	0	0	0	0	0
121918	10:13:22	10:28:19	896616	5.0.10.0	4_exp_AMP_EVA_AWA_CON	28	Rpleas_acq	Same	Rpleas	Bmasked	CS_B	1pleas	distractor1	EVAbeforeCON	AMP_distractor	AMP23	7	26	0	0	300	300	0	0	466	50	0	0	0	0	0	1	blank2r.bmp	0	1	WFPH	0	1	blank2r.bmp	79	132	pic132.bmp	199	1	whitenoise_No3.bmp	306	0	0	0	0	0	0	0	0	0	0	0	0	0	0	0	0	0	0	0	0	0	0	0	0	0	0	0	0	0	0	0	0	0	0	0	0	0	0	0
121918	10:13:22	10:28:21	898108	5.0.10.0	4_exp_AMP_EVA_AWA_CON	28	Rpleas_acq	Same	Rpleas	Bmasked	CS_B	1pleas	distractor1	EVAbeforeCON	AMP_distractor	AMP23	7	27	0	0	300	300	0	0	563	50	0	0	0	0	0	1	blank2r.bmp	0	1	WFPH	0	1	blank2r.bmp	79	85	pic85.bmp	199	1	whitenoise_No3.bmp	306	0	0	0	0	0	0	0	0	0	0	0	0	0	0	0	0	0	0	0	0	0	0	0	0	0	0	0	0	0	0	0	0	0	0	0	0	0	0	0
121918	10:13:22	10:28:22	899548	5.0.10.0	4_exp_AMP_EVA_AWA_CON	28	Rpleas_acq	Same	Rpleas	Bmasked	CS_B	1pleas	distractor1	EVAbeforeCON	AMP_CSunple	AMP23	7	28	0	0	300	300	0	0	511	46	0	1	0	0	0	1	blank2r.bmp	0	1	GKQX	0	1	blank2r.bmp	79	3	pic3.bmp	199	1	whitenoise_No3.bmp	306	0	0	0	0	0	0	0	0	0	0	0	0	0	0	0	0	0	0	0	0	0	0	0	0	0	0	0	0	0	0	0	0	0	0	0	0	0	0	0
121918	10:13:22	10:28:23	900907	5.0.10.0	4_exp_AMP_EVA_AWA_CON	28	Rpleas_acq	Same	Rpleas	Bmasked	CS_B	1pleas	distractor1	EVAbeforeCON	AMP_distractor	AMP23	7	29	0	0	300	300	0	0	429	50	0	0	0	0	0	1	blank2r.bmp	0	1	WFPH	0	1	blank2r.bmp	79	148	pic148.bmp	199	1	whitenoise_No3.bmp	306	0	0	0	0	0	0	0	0	0	0	0	0	0	0	0	0	0	0	0	0	0	0	0	0	0	0	0	0	0	0	0	0	0	0	0	0	0	0	0
121918	10:13:22	10:28:25	902360	5.0.10.0	4_exp_AMP_EVA_AWA_CON	28	Rpleas_acq	Same	Rpleas	Bmasked	CS_B	1pleas	distractor1	EVAbeforeCON	AMP_distractor	AMP23	7	30	0	0	300	300	0	0	537	46	0	0	0	0	0	1	blank2r.bmp	0	1	WFPH	0	1	blank2r.bmp	79	61	pic61.bmp	199	1	whitenoise_No3.bmp	306	0	0	0	0	0	0	0	0	0	0	0	0	0	0	0	0	0	0	0	0	0	0	0	0	0	0	0	0	0	0	0	0	0	0	0	0	0	0	0
121918	10:13:22	10:28:26	903866	5.0.10.0	4_exp_AMP_EVA_AWA_CON	28	Rpleas_acq	Same	Rpleas	Bmasked	CS_B	1pleas	distractor1	EVAbeforeCON	AMP_distractor	AMP23	7	31	0	0	300	300	0	0	590	46	0	0	0	0	0	1	blank2r.bmp	0	1	WFPH	0	1	blank2r.bmp	79	95	pic95.bmp	199	1	whitenoise_No3.bmp	306	0	0	0	0	0	0	0	0	0	0	0	0	0	0	0	0	0	0	0	0	0	0	0	0	0	0	0	0	0	0	0	0	0	0	0	0	0	0	0
121918	10:13:22	10:28:28	905532	5.0.10.0	4_exp_AMP_EVA_AWA_CON	28	Rpleas_acq	Same	Rpleas	Bmasked	CS_B	1pleas	distractor1	EVAbeforeCON	AMP_distractor	AMP23	7	32	0	0	300	300	0	0	739	50	0	0	0	0	0	1	blank2r.bmp	0	1	WFPH	0	1	blank2r.bmp	79	41	pic41.bmp	199	1	whitenoise_No3.bmp	306	0	0	0	0	0	0	0	0	0	0	0	0	0	0	0	0	0	0	0	0	0	0	0	0	0	0	0	0	0	0	0	0	0	0	0	0	0	0	0
121918	10:13:22	10:28:30	907131	5.0.10.0	4_exp_AMP_EVA_AWA_CON	28	Rpleas_acq	Same	Rpleas	Bmasked	CS_B	1pleas	distractor1	EVAbeforeCON	AMP_CSunple	AMP23	7	33	0	0	300	300	0	0	675	46	0	1	0	0	0	1	blank2r.bmp	0	1	GKQX	0	1	blank2r.bmp	79	116	pic116.bmp	199	1	whitenoise_No3.bmp	306	0	0	0	0	0	0	0	0	0	0	0	0	0	0	0	0	0	0	0	0	0	0	0	0	0	0	0	0	0	0	0	0	0	0	0	0	0	0	0
121918	10:13:22	10:28:31	908757	5.0.10.0	4_exp_AMP_EVA_AWA_CON	28	Rpleas_acq	Same	Rpleas	Bmasked	CS_B	1pleas	distractor1	EVAbeforeCON	AMP_CSunple	AMP23	7	34	0	0	300	300	0	0	692	50	0	0	0	0	0	1	blank2r.bmp	0	1	GKQX	0	1	blank2r.bmp	79	124	pic124.bmp	199	1	whitenoise_No3.bmp	306	0	0	0	0	0	0	0	0	0	0	0	0	0	0	0	0	0	0	0	0	0	0	0	0	0	0	0	0	0	0	0	0	0	0	0	0	0	0	0
121918	10:13:22	10:28:33	910343	5.0.10.0	4_exp_AMP_EVA_AWA_CON	28	Rpleas_acq	Same	Rpleas	Bmasked	CS_B	1pleas	distractor1	EVAbeforeCON	AMP_distractor	AMP23	7	35	0	0	300	300	0	0	671	50	0	0	0	0	0	1	blank2r.bmp	0	1	WFPH	0	1	blank2r.bmp	79	105	pic105.bmp	199	1	whitenoise_No3.bmp	306	0	0	0	0	0	0	0	0	0	0	0	0	0	0	0	0	0	0	0	0	0	0	0	0	0	0	0	0	0	0	0	0	0	0	0	0	0	0	0
121918	10:13:22	10:28:35	911969	5.0.10.0	4_exp_AMP_EVA_AWA_CON	28	Rpleas_acq	Same	Rpleas	Bmasked	CS_B	1pleas	distractor1	EVAbeforeCON	AMP_CSunple	AMP23	7	36	0	0	300	300	0	0	704	46	0	1	0	0	0	1	blank2r.bmp	0	1	GKQX	0	1	blank2r.bmp	79	68	pic68.bmp	199	1	whitenoise_No3.bmp	306	0	0	0	0	0	0	0	0	0	0	0	0	0	0	0	0	0	0	0	0	0	0	0	0	0	0	0	0	0	0	0	0	0	0	0	0	0	0	0
