date	time	script.currenttime	script.elapsedtime	build	script.currentexpt	subject	expressions.LRpleas_acq	expressions.SameOppo	expressions.condition_Lpleas	expressions.ABmasked	expressions.conditionCS_A	expressions.condition_1pleas	expressions.condition_distractor_AMP	expressions.AWACON_AMPEVA_first	trialcode	blockcode	blocknum	trialnum	windowcenter	inwindow	pretrialpause	posttrialpause	trialduration	trialtimeout	latency	response	expressions.correctedscore	correct	values.vis_performance	values.vis_rating_sum	values.vis_rating_mean	stimulusnumber1	stimulusitem1	stimulusonset1	stimulusnumber2	stimulusitem2	stimulusonset2	stimulusnumber3	stimulusitem3	stimulusonset3	stimulusnumber4	stimulusitem4	stimulusonset4	stimulusnumber5	stimulusitem5	stimulusonset5	stimulusnumber6	stimulusitem6	stimulusonset6	stimulusnumber7	stimulusitem7	stimulusonset7	stimulusnumber8	stimulusitem8	stimulusonset8	stimulusnumber9	stimulusitem9	stimulusonset9	stimulusnumber10	stimulusitem10	stimulusonset10	stimulusnumber11	stimulusitem11	stimulusonset11	stimulusnumber12	stimulusitem12	stimulusonset12	stimulusnumber13	stimulusitem13	stimulusonset13	stimulusnumber14	stimulusitem14	stimulusonset14	stimulusnumber15	stimulusitem15	stimulusonset15	stimulusnumber16	stimulusitem16	stimulusonset16	stimulusnumber17	stimulusitem17	stimulusonset17	stimulusnumber18	stimulusitem18	stimulusonset18
021219	11:29:38	11:33:06	207126	5.0.10.0	4_exp_AWA_CON_AMP_EVA	115	Rpleas_acq	Oppo	Rpleas	Amasked	CS_A	2pleas	distractor2	CONbeforeEVA	acq_US_pleas_masked	acq1_masked	1	1	0	0	300	300	0	0	2295	50	0	1	0	0	0	1	blank2r.bmp	0	1	+	0	8	C4r.bmp	492	1	blank2r.bmp	786	1	DHJF	786	1	blank2r.bmp	866	4	gütig	866	0	0	0	0	0	0	0	0	0	0	0	0	0	0	0	0	0	0	0	0	0	0	0	0	0	0	0	0	0	0	0	0	0
021219	11:29:38	11:33:09	209485	5.0.10.0	4_exp_AWA_CON_AMP_EVA	115	Rpleas_acq	Oppo	Rpleas	Amasked	CS_A	2pleas	distractor2	CONbeforeEVA	acq_new_unple_masked	acq1_masked	1	2	0	0	300	300	0	0	879	46	0	1	0	0	0	1	blank2r.bmp	0	1	+	0	1	B1r.bmp	492	1	blank2r.bmp	786	3	B3r.bmp	786	1	blank2r.bmp	866	6	töten	866	0	0	0	0	0	0	0	0	0	0	0	0	0	0	0	0	0	0	0	0	0	0	0	0	0	0	0	0	0	0	0	0	0
021219	11:29:38	11:33:11	211670	5.0.10.0	4_exp_AWA_CON_AMP_EVA	115	Rpleas_acq	Oppo	Rpleas	Amasked	CS_A	2pleas	distractor2	CONbeforeEVA	acq_US_pleas_masked	acq1_masked	1	3	0	0	300	300	0	0	705	50	0	1	0	0	0	1	blank2r.bmp	0	1	+	0	6	C2r.bmp	492	1	blank2r.bmp	786	1	DHJF	786	1	blank2r.bmp	866	5	kreativ	866	0	0	0	0	0	0	0	0	0	0	0	0	0	0	0	0	0	0	0	0	0	0	0	0	0	0	0	0	0	0	0	0	0
021219	11:29:38	11:33:13	214069	5.0.10.0	4_exp_AWA_CON_AMP_EVA	115	Rpleas_acq	Oppo	Rpleas	Amasked	CS_A	2pleas	distractor2	CONbeforeEVA	acq_US_pleas_masked	acq1_masked	1	4	0	0	300	300	0	0	920	50	0	1	0	0	0	1	blank2r.bmp	0	1	+	0	5	C1r.bmp	492	1	blank2r.bmp	786	1	DHJF	786	1	blank2r.bmp	866	1	anregung	866	0	0	0	0	0	0	0	0	0	0	0	0	0	0	0	0	0	0	0	0	0	0	0	0	0	0	0	0	0	0	0	0	0
021219	11:29:38	11:33:16	216681	5.0.10.0	4_exp_AWA_CON_AMP_EVA	115	Rpleas_acq	Oppo	Rpleas	Amasked	CS_A	2pleas	distractor2	CONbeforeEVA	acq_new_pleas_masked	acq1_masked	1	5	0	0	300	300	0	0	1133	50	0	1	0	0	0	1	blank2r.bmp	0	1	+	0	3	B3r.bmp	492	1	blank2r.bmp	786	4	B4r.bmp	786	1	blank2r.bmp	866	6	träumen	866	0	0	0	0	0	0	0	0	0	0	0	0	0	0	0	0	0	0	0	0	0	0	0	0	0	0	0	0	0	0	0	0	0
021219	11:29:38	11:33:19	219627	5.0.10.0	4_exp_AWA_CON_AMP_EVA	115	Rpleas_acq	Oppo	Rpleas	Amasked	CS_A	2pleas	distractor2	CONbeforeEVA	acq_new_pleas_masked	acq1_masked	1	6	0	0	300	300	0	0	1476	50	0	1	0	0	0	1	blank2r.bmp	0	1	+	0	7	C3r.bmp	492	1	blank2r.bmp	786	5	C1r.bmp	786	1	blank2r.bmp	866	1	besonnen	866	0	0	0	0	0	0	0	0	0	0	0	0	0	0	0	0	0	0	0	0	0	0	0	0	0	0	0	0	0	0	0	0	0
021219	11:29:38	11:33:21	222039	5.0.10.0	4_exp_AWA_CON_AMP_EVA	115	Rpleas_acq	Oppo	Rpleas	Amasked	CS_A	2pleas	distractor2	CONbeforeEVA	acq_new_unple_masked	acq1_masked	1	7	0	0	300	300	0	0	931	46	0	1	0	0	0	1	blank2r.bmp	0	1	+	0	4	B4r.bmp	492	1	blank2r.bmp	786	1	B1r.bmp	786	1	blank2r.bmp	866	1	bange	866	0	0	0	0	0	0	0	0	0	0	0	0	0	0	0	0	0	0	0	0	0	0	0	0	0	0	0	0	0	0	0	0	0
021219	11:29:38	11:33:24	224811	5.0.10.0	4_exp_AWA_CON_AMP_EVA	115	Rpleas_acq	Oppo	Rpleas	Amasked	CS_A	2pleas	distractor2	CONbeforeEVA	acq_US_unple_masked	acq1_masked	1	8	0	0	300	300	0	0	1274	46	0	1	0	0	0	1	blank2r.bmp	0	1	+	0	2	B2r.bmp	492	1	blank2r.bmp	786	1	CPLW	786	1	blank2r.bmp	866	2	geizig	866	0	0	0	0	0	0	0	0	0	0	0	0	0	0	0	0	0	0	0	0	0	0	0	0	0	0	0	0	0	0	0	0	0
021219	11:29:38	11:33:26	227077	5.0.10.0	4_exp_AWA_CON_AMP_EVA	115	Rpleas_acq	Oppo	Rpleas	Amasked	CS_A	2pleas	distractor2	CONbeforeEVA	acq_new_unple_masked	acq1_masked	1	9	0	0	300	300	0	0	780	46	0	1	0	0	0	1	blank2r.bmp	0	1	+	0	8	C4r.bmp	492	1	blank2r.bmp	786	2	B2r.bmp	786	1	blank2r.bmp	866	5	krise	866	0	0	0	0	0	0	0	0	0	0	0	0	0	0	0	0	0	0	0	0	0	0	0	0	0	0	0	0	0	0	0	0	0
021219	11:29:38	11:33:29	229396	5.0.10.0	4_exp_AWA_CON_AMP_EVA	115	Rpleas_acq	Oppo	Rpleas	Amasked	CS_A	2pleas	distractor2	CONbeforeEVA	acq_new_pleas_masked	acq1_masked	1	10	0	0	300	300	0	0	841	50	0	1	0	0	0	1	blank2r.bmp	0	1	+	0	7	C3r.bmp	492	1	blank2r.bmp	786	6	C2r.bmp	786	1	blank2r.bmp	866	4	genießen	866	0	0	0	0	0	0	0	0	0	0	0	0	0	0	0	0	0	0	0	0	0	0	0	0	0	0	0	0	0	0	0	0	0
021219	11:29:38	11:33:32	232568	5.0.10.0	4_exp_AWA_CON_AMP_EVA	115	Rpleas_acq	Oppo	Rpleas	Amasked	CS_A	2pleas	distractor2	CONbeforeEVA	acq_US_unple_masked	acq1_masked	1	11	0	0	300	300	0	0	1677	46	0	1	0	0	0	1	blank2r.bmp	0	1	+	0	3	B3r.bmp	492	1	blank2r.bmp	786	1	CPLW	786	1	blank2r.bmp	866	3	versagen	866	0	0	0	0	0	0	0	0	0	0	0	0	0	0	0	0	0	0	0	0	0	0	0	0	0	0	0	0	0	0	0	0	0
021219	11:29:38	11:33:34	234727	5.0.10.0	4_exp_AWA_CON_AMP_EVA	115	Rpleas_acq	Oppo	Rpleas	Amasked	CS_A	2pleas	distractor2	CONbeforeEVA	acq_US_unple_masked	acq1_masked	1	12	0	0	300	300	0	0	680	46	0	1	0	0	0	1	blank2r.bmp	0	1	+	0	5	C1r.bmp	492	1	blank2r.bmp	786	1	CPLW	786	1	blank2r.bmp	866	6	sterben	866	0	0	0	0	0	0	0	0	0	0	0	0	0	0	0	0	0	0	0	0	0	0	0	0	0	0	0	0	0	0	0	0	0
021219	11:29:38	11:33:37	237206	5.0.10.0	4_exp_AWA_CON_AMP_EVA	115	Rpleas_acq	Oppo	Rpleas	Amasked	CS_A	2pleas	distractor2	CONbeforeEVA	acq_new_unple_masked	acq1_masked	1	13	0	0	300	300	0	0	998	46	0	1	0	0	0	1	blank2r.bmp	0	1	+	0	2	B2r.bmp	492	1	blank2r.bmp	786	7	C3r.bmp	786	1	blank2r.bmp	866	3	verbissen	866	0	0	0	0	0	0	0	0	0	0	0	0	0	0	0	0	0	0	0	0	0	0	0	0	0	0	0	0	0	0	0	0	0
021219	11:29:38	11:33:39	240125	5.0.10.0	4_exp_AWA_CON_AMP_EVA	115	Rpleas_acq	Oppo	Rpleas	Amasked	CS_A	2pleas	distractor2	CONbeforeEVA	acq_new_unple_masked	acq1_masked	1	14	0	0	300	300	0	0	1443	46	0	1	0	0	0	1	blank2r.bmp	0	1	+	0	4	B4r.bmp	492	1	blank2r.bmp	786	8	C4r.bmp	786	1	blank2r.bmp	866	2	engstirnig	866	0	0	0	0	0	0	0	0	0	0	0	0	0	0	0	0	0	0	0	0	0	0	0	0	0	0	0	0	0	0	0	0	0
021219	11:29:38	11:33:42	242351	5.0.10.0	4_exp_AWA_CON_AMP_EVA	115	Rpleas_acq	Oppo	Rpleas	Amasked	CS_A	2pleas	distractor2	CONbeforeEVA	acq_new_pleas_masked	acq1_masked	1	15	0	0	300	300	0	0	753	50	0	1	0	0	0	1	blank2r.bmp	0	1	+	0	6	C2r.bmp	492	1	blank2r.bmp	786	3	B3r.bmp	786	1	blank2r.bmp	866	5	kuss	866	0	0	0	0	0	0	0	0	0	0	0	0	0	0	0	0	0	0	0	0	0	0	0	0	0	0	0	0	0	0	0	0	0
021219	11:29:38	11:33:44	244496	5.0.10.0	4_exp_AWA_CON_AMP_EVA	115	Rpleas_acq	Oppo	Rpleas	Amasked	CS_A	2pleas	distractor2	CONbeforeEVA	acq_US_unple_masked	acq1_masked	1	16	0	0	300	300	0	0	666	46	0	1	0	0	0	1	blank2r.bmp	0	1	+	0	1	B1r.bmp	492	1	blank2r.bmp	786	1	CPLW	786	1	blank2r.bmp	866	5	krank	866	0	0	0	0	0	0	0	0	0	0	0	0	0	0	0	0	0	0	0	0	0	0	0	0	0	0	0	0	0	0	0	0	0
021219	11:29:38	11:33:46	247002	5.0.10.0	4_exp_AWA_CON_AMP_EVA	115	Rpleas_acq	Oppo	Rpleas	Amasked	CS_A	2pleas	distractor2	CONbeforeEVA	acq_new_unple_masked	acq1_masked	1	17	0	0	300	300	0	0	1035	46	0	1	0	0	0	1	blank2r.bmp	0	1	+	0	3	B3r.bmp	492	1	blank2r.bmp	786	4	B4r.bmp	786	1	blank2r.bmp	866	4	gemein	866	0	0	0	0	0	0	0	0	0	0	0	0	0	0	0	0	0	0	0	0	0	0	0	0	0	0	0	0	0	0	0	0	0
021219	11:29:38	11:33:49	249401	5.0.10.0	4_exp_AWA_CON_AMP_EVA	115	Rpleas_acq	Oppo	Rpleas	Amasked	CS_A	2pleas	distractor2	CONbeforeEVA	acq_US_pleas_masked	acq1_masked	1	18	0	0	300	300	0	0	912	50	0	1	0	0	0	1	blank2r.bmp	0	1	+	0	1	B1r.bmp	492	1	blank2r.bmp	786	1	DHJF	786	1	blank2r.bmp	866	3	vertrauen	866	0	0	0	0	0	0	0	0	0	0	0	0	0	0	0	0	0	0	0	0	0	0	0	0	0	0	0	0	0	0	0	0	0
021219	11:29:38	11:33:51	251560	5.0.10.0	4_exp_AWA_CON_AMP_EVA	115	Rpleas_acq	Oppo	Rpleas	Amasked	CS_A	2pleas	distractor2	CONbeforeEVA	acq_new_pleas_masked	acq1_masked	1	19	0	0	300	300	0	0	682	50	0	1	0	0	0	1	blank2r.bmp	0	1	+	0	5	C1r.bmp	492	1	blank2r.bmp	786	6	C2r.bmp	786	1	blank2r.bmp	866	2	engagiert	866	0	0	0	0	0	0	0	0	0	0	0	0	0	0	0	0	0	0	0	0	0	0	0	0	0	0	0	0	0	0	0	0	0
021219	11:29:38	11:33:53	253813	5.0.10.0	4_exp_AWA_CON_AMP_EVA	115	Rpleas_acq	Oppo	Rpleas	Amasked	CS_A	2pleas	distractor2	CONbeforeEVA	acq_US_unple_masked	acq1_masked	1	20	0	0	300	300	0	0	777	46	0	1	0	0	0	1	blank2r.bmp	0	1	+	0	2	B2r.bmp	492	1	blank2r.bmp	786	1	CPLW	786	1	blank2r.bmp	866	4	gierig	866	0	0	0	0	0	0	0	0	0	0	0	0	0	0	0	0	0	0	0	0	0	0	0	0	0	0	0	0	0	0	0	0	0
021219	11:29:38	11:33:57	257478	5.0.10.0	4_exp_AWA_CON_AMP_EVA	115	Rpleas_acq	Oppo	Rpleas	Amasked	CS_A	2pleas	distractor2	CONbeforeEVA	acq_new_pleas_masked	acq1_masked	1	21	0	0	300	300	0	0	2174	50	0	1	0	0	0	1	blank2r.bmp	0	1	+	0	4	B4r.bmp	492	1	blank2r.bmp	786	2	B2r.bmp	786	1	blank2r.bmp	866	3	vergnügt	866	0	0	0	0	0	0	0	0	0	0	0	0	0	0	0	0	0	0	0	0	0	0	0	0	0	0	0	0	0	0	0	0	0
021219	11:29:38	11:33:59	259983	5.0.10.0	4_exp_AWA_CON_AMP_EVA	115	Rpleas_acq	Oppo	Rpleas	Amasked	CS_A	2pleas	distractor2	CONbeforeEVA	acq_US_pleas_masked	acq1_masked	1	22	0	0	300	300	0	0	1019	50	0	1	0	0	0	1	blank2r.bmp	0	1	+	0	7	C3r.bmp	492	1	blank2r.bmp	786	1	DHJF	786	1	blank2r.bmp	866	6	sonnig	866	0	0	0	0	0	0	0	0	0	0	0	0	0	0	0	0	0	0	0	0	0	0	0	0	0	0	0	0	0	0	0	0	0
021219	11:29:38	11:34:05	265248	5.0.10.0	4_exp_AWA_CON_AMP_EVA	115	Rpleas_acq	Oppo	Rpleas	Amasked	CS_A	2pleas	distractor2	CONbeforeEVA	acq_US_unple_masked	acq1_masked	1	23	0	0	300	300	0	0	3781	46	0	1	0	0	0	1	blank2r.bmp	0	1	+	0	8	C4r.bmp	492	1	blank2r.bmp	786	1	CPLW	786	1	blank2r.bmp	866	1	ausrottung	866	0	0	0	0	0	0	0	0	0	0	0	0	0	0	0	0	0	0	0	0	0	0	0	0	0	0	0	0	0	0	0	0	0
021219	11:29:38	11:34:07	267913	5.0.10.0	4_exp_AWA_CON_AMP_EVA	115	Rpleas_acq	Oppo	Rpleas	Amasked	CS_A	2pleas	distractor2	CONbeforeEVA	acq_US_pleas_masked	acq1_masked	1	24	0	0	300	300	0	0	1182	50	0	1	0	0	0	1	blank2r.bmp	0	1	+	0	6	C2r.bmp	492	1	blank2r.bmp	786	1	DHJF	786	1	blank2r.bmp	866	2	gesittet	866	0	0	0	0	0	0	0	0	0	0	0	0	0	0	0	0	0	0	0	0	0	0	0	0	0	0	0	0	0	0	0	0	0
021219	11:29:38	11:34:12	272738	5.0.10.0	4_exp_AWA_CON_AMP_EVA	115	Rpleas_acq	Oppo	Rpleas	Amasked	CS_A	2pleas	distractor2	CONbeforeEVA	acq_US_pleas_masked	acq1_masked	1	25	0	0	300	300	0	0	3118	46	0	0	0	0	0	1	blank2r.bmp	0	1	+	0	3	B3r.bmp	492	1	blank2r.bmp	786	1	DHJF	786	1	blank2r.bmp	866	4	gütig	866	1	FEHLER	4024	0	0	0	0	0	0	0	0	0	0	0	0	0	0	0	0	0	0	0	0	0	0	0	0	0	0	0	0	0	0
021219	11:29:38	11:34:14	274977	5.0.10.0	4_exp_AWA_CON_AMP_EVA	115	Rpleas_acq	Oppo	Rpleas	Amasked	CS_A	2pleas	distractor2	CONbeforeEVA	acq_new_unple_masked	acq1_masked	1	26	0	0	300	300	0	0	976	46	0	1	0	0	0	1	blank2r.bmp	0	1	+	0	6	C2r.bmp	492	1	blank2r.bmp	786	8	C4r.bmp	786	1	blank2r.bmp	866	3	verbissen	866	0	0	0	0	0	0	0	0	0	0	0	0	0	0	0	0	0	0	0	0	0	0	0	0	0	0	0	0	0	0	0	0	0
021219	11:29:38	11:34:19	279335	5.0.10.0	4_exp_AWA_CON_AMP_EVA	115	Rpleas_acq	Oppo	Rpleas	Amasked	CS_A	2pleas	distractor2	CONbeforeEVA	acq_new_pleas_masked	acq1_masked	1	27	0	0	300	300	0	0	2661	46	0	0	0	0	0	1	blank2r.bmp	0	1	+	0	8	C4r.bmp	492	1	blank2r.bmp	786	5	C1r.bmp	786	1	blank2r.bmp	866	1	besonnen	866	1	FEHLER	3558	0	0	0	0	0	0	0	0	0	0	0	0	0	0	0	0	0	0	0	0	0	0	0	0	0	0	0	0	0	0
021219	11:29:38	11:34:21	281361	5.0.10.0	4_exp_AWA_CON_AMP_EVA	115	Rpleas_acq	Oppo	Rpleas	Amasked	CS_A	2pleas	distractor2	CONbeforeEVA	acq_new_pleas_masked	acq1_masked	1	28	0	0	300	300	0	0	756	50	0	1	0	0	0	1	blank2r.bmp	0	1	+	0	5	C1r.bmp	492	1	blank2r.bmp	786	1	B1r.bmp	786	1	blank2r.bmp	866	4	genießen	866	0	0	0	0	0	0	0	0	0	0	0	0	0	0	0	0	0	0	0	0	0	0	0	0	0	0	0	0	0	0	0	0	0
021219	11:29:38	11:34:23	283720	5.0.10.0	4_exp_AWA_CON_AMP_EVA	115	Rpleas_acq	Oppo	Rpleas	Amasked	CS_A	2pleas	distractor2	CONbeforeEVA	acq_US_unple_masked	acq1_masked	1	29	0	0	300	300	0	0	867	46	0	1	0	0	0	1	blank2r.bmp	0	1	+	0	7	C3r.bmp	492	1	blank2r.bmp	786	1	CPLW	786	1	blank2r.bmp	866	4	gierig	866	0	0	0	0	0	0	0	0	0	0	0	0	0	0	0	0	0	0	0	0	0	0	0	0	0	0	0	0	0	0	0	0	0
021219	11:29:38	11:34:27	287185	5.0.10.0	4_exp_AWA_CON_AMP_EVA	115	Rpleas_acq	Oppo	Rpleas	Amasked	CS_A	2pleas	distractor2	CONbeforeEVA	acq_US_pleas_masked	acq1_masked	1	30	0	0	300	300	0	0	1773	46	0	0	0	0	0	1	blank2r.bmp	0	1	+	0	2	B2r.bmp	492	1	blank2r.bmp	786	1	DHJF	786	1	blank2r.bmp	866	2	gesittet	866	1	FEHLER	2678	0	0	0	0	0	0	0	0	0	0	0	0	0	0	0	0	0	0	0	0	0	0	0	0	0	0	0	0	0	0
021219	11:29:38	11:34:29	289371	5.0.10.0	4_exp_AWA_CON_AMP_EVA	115	Rpleas_acq	Oppo	Rpleas	Amasked	CS_A	2pleas	distractor2	CONbeforeEVA	acq_new_unple_masked	acq1_masked	1	31	0	0	300	300	0	0	920	46	0	1	0	0	0	1	blank2r.bmp	0	1	+	0	1	B1r.bmp	492	1	blank2r.bmp	786	7	C3r.bmp	786	1	blank2r.bmp	866	1	bange	866	0	0	0	0	0	0	0	0	0	0	0	0	0	0	0	0	0	0	0	0	0	0	0	0	0	0	0	0	0	0	0	0	0
021219	11:29:38	11:34:31	291503	5.0.10.0	4_exp_AWA_CON_AMP_EVA	115	Rpleas_acq	Oppo	Rpleas	Amasked	CS_A	2pleas	distractor2	CONbeforeEVA	acq_new_unple_masked	acq1_masked	1	32	0	0	300	300	0	0	663	46	0	1	0	0	0	1	blank2r.bmp	0	1	+	0	4	B4r.bmp	492	1	blank2r.bmp	786	6	C2r.bmp	786	1	blank2r.bmp	866	6	töten	866	0	0	0	0	0	0	0	0	0	0	0	0	0	0	0	0	0	0	0	0	0	0	0	0	0	0	0	0	0	0	0	0	0
021219	11:29:38	11:34:33	293569	5.0.10.0	4_exp_AWA_CON_AMP_EVA	115	Rpleas_acq	Oppo	Rpleas	Amasked	CS_A	2pleas	distractor2	CONbeforeEVA	acq_US_pleas_masked	acq1_masked	1	33	0	0	300	300	0	0	584	50	0	1	0	0	0	1	blank2r.bmp	0	1	+	0	8	C4r.bmp	492	1	blank2r.bmp	786	1	DHJF	786	1	blank2r.bmp	866	6	sonnig	866	0	0	0	0	0	0	0	0	0	0	0	0	0	0	0	0	0	0	0	0	0	0	0	0	0	0	0	0	0	0	0	0	0
021219	11:29:38	11:34:35	295875	5.0.10.0	4_exp_AWA_CON_AMP_EVA	115	Rpleas_acq	Oppo	Rpleas	Amasked	CS_A	2pleas	distractor2	CONbeforeEVA	acq_US_unple_masked	acq1_masked	1	34	0	0	300	300	0	0	814	46	0	1	0	0	0	1	blank2r.bmp	0	1	+	0	3	B3r.bmp	492	1	blank2r.bmp	786	1	CPLW	786	1	blank2r.bmp	866	1	ausrottung	866	0	0	0	0	0	0	0	0	0	0	0	0	0	0	0	0	0	0	0	0	0	0	0	0	0	0	0	0	0	0	0	0	0
021219	11:29:38	11:34:37	297901	5.0.10.0	4_exp_AWA_CON_AMP_EVA	115	Rpleas_acq	Oppo	Rpleas	Amasked	CS_A	2pleas	distractor2	CONbeforeEVA	acq_new_pleas_masked	acq1_masked	1	35	0	0	300	300	0	0	551	50	0	1	0	0	0	1	blank2r.bmp	0	1	+	0	2	B2r.bmp	492	1	blank2r.bmp	786	7	C3r.bmp	786	1	blank2r.bmp	866	5	kuss	866	0	0	0	0	0	0	0	0	0	0	0	0	0	0	0	0	0	0	0	0	0	0	0	0	0	0	0	0	0	0	0	0	0
021219	11:29:38	11:34:39	299966	5.0.10.0	4_exp_AWA_CON_AMP_EVA	115	Rpleas_acq	Oppo	Rpleas	Amasked	CS_A	2pleas	distractor2	CONbeforeEVA	acq_US_unple_masked	acq1_masked	1	36	0	0	300	300	0	0	588	46	0	1	0	0	0	1	blank2r.bmp	0	1	+	0	6	C2r.bmp	492	1	blank2r.bmp	786	1	CPLW	786	1	blank2r.bmp	866	6	sterben	866	0	0	0	0	0	0	0	0	0	0	0	0	0	0	0	0	0	0	0	0	0	0	0	0	0	0	0	0	0	0	0	0	0
021219	11:29:38	11:35:25	345601	5.0.10.0	4_exp_AWA_CON_AMP_EVA	115	Rpleas_acq	Oppo	Rpleas	Amasked	CS_A	2pleas	distractor2	CONbeforeEVA	acq_US_unple_masked	acq2_masked	2	1	480	0	300	300	0	0	1018	46	0	1	0	0	0	1	blank2r.bmp	0	1	+	0	5	C1r.bmp	492	1	blank2r.bmp	786	1	CPLW	786	1	blank2r.bmp	866	5	krank	866	1	!	1319	1	!	-1	0	0	0	0	0	0	0	0	0	0	0	0	0	0	0	0	0	0	0	0	0	0	0	0	0	0	0
021219	11:29:38	11:35:27	348026	5.0.10.0	4_exp_AWA_CON_AMP_EVA	115	Rpleas_acq	Oppo	Rpleas	Amasked	CS_A	2pleas	distractor2	CONbeforeEVA	acq_new_unple_masked	acq2_masked	2	2	480	0	300	300	0	0	649	46	0	1	0	0	0	1	blank2r.bmp	0	1	+	0	1	B1r.bmp	492	1	blank2r.bmp	786	8	C4r.bmp	786	1	blank2r.bmp	866	2	engstirnig	866	1	!	1319	1	!	-1	0	0	0	0	0	0	0	0	0	0	0	0	0	0	0	0	0	0	0	0	0	0	0	0	0	0	0
021219	11:29:38	11:35:30	350372	5.0.10.0	4_exp_AWA_CON_AMP_EVA	115	Rpleas_acq	Oppo	Rpleas	Amasked	CS_A	2pleas	distractor2	CONbeforeEVA	acq_US_unple_masked	acq2_masked	2	3	480	0	300	300	0	0	570	46	0	1	0	0	0	1	blank2r.bmp	0	1	+	0	7	C3r.bmp	492	1	blank2r.bmp	786	1	CPLW	786	1	blank2r.bmp	866	3	versagen	866	1	!	1319	1	!	-1	0	0	0	0	0	0	0	0	0	0	0	0	0	0	0	0	0	0	0	0	0	0	0	0	0	0	0
021219	11:29:38	11:35:32	352718	5.0.10.0	4_exp_AWA_CON_AMP_EVA	115	Rpleas_acq	Oppo	Rpleas	Amasked	CS_A	2pleas	distractor2	CONbeforeEVA	acq_new_unple_masked	acq2_masked	2	4	480	0	300	300	0	0	559	46	0	1	0	0	0	1	blank2r.bmp	0	1	+	0	4	B4r.bmp	492	1	blank2r.bmp	786	3	B3r.bmp	786	1	blank2r.bmp	866	5	krise	866	1	!	1319	1	!	-1	0	0	0	0	0	0	0	0	0	0	0	0	0	0	0	0	0	0	0	0	0	0	0	0	0	0	0
021219	11:29:38	11:35:34	355170	5.0.10.0	4_exp_AWA_CON_AMP_EVA	115	Rpleas_acq	Oppo	Rpleas	Amasked	CS_A	2pleas	distractor2	CONbeforeEVA	acq_US_pleas_masked	acq2_masked	2	5	480	1	300	300	0	0	436	46	0	0	0	0	0	1	blank2r.bmp	0	1	+	0	8	C4r.bmp	492	1	blank2r.bmp	786	1	DHJF	786	1	blank2r.bmp	866	3	vertrauen	866	1	FEHLER	1652	1	!	1319	1	!	1332	0	0	0	0	0	0	0	0	0	0	0	0	0	0	0	0	0	0	0	0	0	0	0	0
021219	11:29:38	11:35:37	357836	5.0.10.0	4_exp_AWA_CON_AMP_EVA	115	Rpleas_acq	Oppo	Rpleas	Amasked	CS_A	2pleas	distractor2	CONbeforeEVA	acq_US_pleas_masked	acq2_masked	2	6	480	0	300	300	0	0	884	46	0	0	0	0	0	1	blank2r.bmp	0	1	+	0	4	B4r.bmp	492	1	blank2r.bmp	786	1	DHJF	786	1	blank2r.bmp	866	1	anregung	866	1	FEHLER	2092	1	!	1319	1	!	-1	0	0	0	0	0	0	0	0	0	0	0	0	0	0	0	0	0	0	0	0	0	0	0	0
021219	11:29:38	11:35:39	360075	5.0.10.0	4_exp_AWA_CON_AMP_EVA	115	Rpleas_acq	Oppo	Rpleas	Amasked	CS_A	2pleas	distractor2	CONbeforeEVA	acq_new_unple_masked	acq2_masked	2	7	480	0	300	300	0	0	691	46	0	1	0	0	0	1	blank2r.bmp	0	1	+	0	6	C2r.bmp	492	1	blank2r.bmp	786	4	B4r.bmp	786	1	blank2r.bmp	866	4	gemein	866	1	!	1319	1	!	-1	0	0	0	0	0	0	0	0	0	0	0	0	0	0	0	0	0	0	0	0	0	0	0	0	0	0	0
021219	11:29:38	11:35:42	362420	5.0.10.0	4_exp_AWA_CON_AMP_EVA	115	Rpleas_acq	Oppo	Rpleas	Amasked	CS_A	2pleas	distractor2	CONbeforeEVA	acq_US_unple_masked	acq2_masked	2	8	480	0	300	300	0	0	559	46	0	1	0	0	0	1	blank2r.bmp	0	1	+	0	1	B1r.bmp	492	1	blank2r.bmp	786	1	CPLW	786	1	blank2r.bmp	866	2	geizig	866	1	!	1319	1	!	-1	0	0	0	0	0	0	0	0	0	0	0	0	0	0	0	0	0	0	0	0	0	0	0	0	0	0	0
021219	11:29:38	11:35:44	364726	5.0.10.0	4_exp_AWA_CON_AMP_EVA	115	Rpleas_acq	Oppo	Rpleas	Amasked	CS_A	2pleas	distractor2	CONbeforeEVA	acq_new_pleas_masked	acq2_masked	2	9	480	1	300	300	0	0	494	50	0	1	0	0	0	1	blank2r.bmp	0	1	+	0	3	B3r.bmp	492	1	blank2r.bmp	786	1	B1r.bmp	786	1	blank2r.bmp	866	2	engagiert	866	1	!	1319	1	!	1399	0	0	0	0	0	0	0	0	0	0	0	0	0	0	0	0	0	0	0	0	0	0	0	0	0	0	0
021219	11:29:38	11:35:46	367165	5.0.10.0	4_exp_AWA_CON_AMP_EVA	115	Rpleas_acq	Oppo	Rpleas	Amasked	CS_A	2pleas	distractor2	CONbeforeEVA	acq_US_pleas_masked	acq2_masked	2	10	480	1	300	300	0	0	426	46	0	0	0	0	0	1	blank2r.bmp	0	1	+	0	5	C1r.bmp	492	1	blank2r.bmp	786	1	DHJF	786	1	blank2r.bmp	866	5	kreativ	866	1	FEHLER	1652	1	!	1319	1	!	1332	0	0	0	0	0	0	0	0	0	0	0	0	0	0	0	0	0	0	0	0	0	0	0	0
021219	11:29:38	11:35:49	369284	5.0.10.0	4_exp_AWA_CON_AMP_EVA	115	Rpleas_acq	Oppo	Rpleas	Amasked	CS_A	2pleas	distractor2	CONbeforeEVA	acq_new_pleas_masked	acq2_masked	2	11	480	0	300	300	0	0	564	50	0	1	0	0	0	1	blank2r.bmp	0	1	+	0	7	C3r.bmp	492	1	blank2r.bmp	786	5	C1r.bmp	786	1	blank2r.bmp	866	6	träumen	866	1	!	1319	1	!	-1	0	0	0	0	0	0	0	0	0	0	0	0	0	0	0	0	0	0	0	0	0	0	0	0	0	0	0
021219	11:29:38	11:35:51	371670	5.0.10.0	4_exp_AWA_CON_AMP_EVA	115	Rpleas_acq	Oppo	Rpleas	Amasked	CS_A	2pleas	distractor2	CONbeforeEVA	acq_new_pleas_masked	acq2_masked	2	12	480	0	300	300	0	0	611	50	0	1	0	0	0	1	blank2r.bmp	0	1	+	0	2	B2r.bmp	492	1	blank2r.bmp	786	2	B2r.bmp	786	1	blank2r.bmp	866	3	vergnügt	866	1	!	1319	1	!	-1	0	0	0	0	0	0	0	0	0	0	0	0	0	0	0	0	0	0	0	0	0	0	0	0	0	0	0
021219	11:29:38	11:35:54	374708	5.0.10.0	4_exp_AWA_CON_AMP_EVA	115	Rpleas_acq	Oppo	Rpleas	Amasked	CS_A	2pleas	distractor2	CONbeforeEVA	acq_US_pleas_masked	acq2_masked	2	13	480	0	300	300	0	0	1260	50	0	1	0	0	0	1	blank2r.bmp	0	1	+	0	7	C3r.bmp	492	1	blank2r.bmp	786	1	DHJF	786	1	blank2r.bmp	866	3	vertrauen	866	1	!	1319	1	!	-1	0	0	0	0	0	0	0	0	0	0	0	0	0	0	0	0	0	0	0	0	0	0	0	0	0	0	0
021219	11:29:38	11:35:56	377014	5.0.10.0	4_exp_AWA_CON_AMP_EVA	115	Rpleas_acq	Oppo	Rpleas	Amasked	CS_A	2pleas	distractor2	CONbeforeEVA	acq_US_unple_masked	acq2_masked	2	14	480	1	300	300	0	0	500	46	0	1	0	0	0	1	blank2r.bmp	0	1	+	0	6	C2r.bmp	492	1	blank2r.bmp	786	1	CPLW	786	1	blank2r.bmp	866	6	sterben	866	1	!	1319	1	!	1399	0	0	0	0	0	0	0	0	0	0	0	0	0	0	0	0	0	0	0	0	0	0	0	0	0	0	0
021219	11:29:38	11:35:59	379573	5.0.10.0	4_exp_AWA_CON_AMP_EVA	115	Rpleas_acq	Oppo	Rpleas	Amasked	CS_A	2pleas	distractor2	CONbeforeEVA	acq_US_pleas_masked	acq2_masked	2	15	480	0	300	300	0	0	559	46	0	0	0	0	0	1	blank2r.bmp	0	1	+	0	2	B2r.bmp	492	1	blank2r.bmp	786	1	DHJF	786	1	blank2r.bmp	866	2	gesittet	866	1	FEHLER	1772	1	!	1319	1	!	-1	0	0	0	0	0	0	0	0	0	0	0	0	0	0	0	0	0	0	0	0	0	0	0	0
021219	11:29:38	11:36:01	381705	5.0.10.0	4_exp_AWA_CON_AMP_EVA	115	Rpleas_acq	Oppo	Rpleas	Amasked	CS_A	2pleas	distractor2	CONbeforeEVA	acq_new_unple_masked	acq2_masked	2	16	480	1	300	300	0	0	546	46	0	1	0	0	0	1	blank2r.bmp	0	1	+	0	5	C1r.bmp	492	1	blank2r.bmp	786	2	B2r.bmp	786	1	blank2r.bmp	866	4	gemein	866	1	!	1319	1	!	1452	0	0	0	0	0	0	0	0	0	0	0	0	0	0	0	0	0	0	0	0	0	0	0	0	0	0	0
021219	11:29:38	11:36:03	383971	5.0.10.0	4_exp_AWA_CON_AMP_EVA	115	Rpleas_acq	Oppo	Rpleas	Amasked	CS_A	2pleas	distractor2	CONbeforeEVA	acq_new_pleas_masked	acq2_masked	2	17	480	1	300	300	0	0	466	50	0	1	0	0	0	1	blank2r.bmp	0	1	+	0	8	C4r.bmp	492	1	blank2r.bmp	786	4	B4r.bmp	786	1	blank2r.bmp	866	2	engagiert	866	1	!	1319	1	!	1372	0	0	0	0	0	0	0	0	0	0	0	0	0	0	0	0	0	0	0	0	0	0	0	0	0	0	0
021219	11:29:38	11:36:06	386410	5.0.10.0	4_exp_AWA_CON_AMP_EVA	115	Rpleas_acq	Oppo	Rpleas	Amasked	CS_A	2pleas	distractor2	CONbeforeEVA	acq_new_unple_masked	acq2_masked	2	18	480	1	300	300	0	0	426	50	0	0	0	0	0	1	blank2r.bmp	0	1	+	0	4	B4r.bmp	492	1	blank2r.bmp	786	6	C2r.bmp	786	1	blank2r.bmp	866	1	bange	866	1	FEHLER	1652	1	!	1319	1	!	1332	0	0	0	0	0	0	0	0	0	0	0	0	0	0	0	0	0	0	0	0	0	0	0	0
021219	11:29:38	11:36:08	388476	5.0.10.0	4_exp_AWA_CON_AMP_EVA	115	Rpleas_acq	Oppo	Rpleas	Amasked	CS_A	2pleas	distractor2	CONbeforeEVA	acq_new_pleas_masked	acq2_masked	2	19	480	1	300	300	0	0	488	50	0	1	0	0	0	1	blank2r.bmp	0	1	+	0	3	B3r.bmp	492	1	blank2r.bmp	786	5	C1r.bmp	786	1	blank2r.bmp	866	3	vergnügt	866	1	!	1319	1	!	1386	0	0	0	0	0	0	0	0	0	0	0	0	0	0	0	0	0	0	0	0	0	0	0	0	0	0	0
021219	11:29:38	11:36:10	390995	5.0.10.0	4_exp_AWA_CON_AMP_EVA	115	Rpleas_acq	Oppo	Rpleas	Amasked	CS_A	2pleas	distractor2	CONbeforeEVA	acq_US_unple_masked	acq2_masked	2	20	480	1	300	300	0	0	508	50	0	0	0	0	0	1	blank2r.bmp	0	1	+	0	1	B1r.bmp	492	1	blank2r.bmp	786	1	CPLW	786	1	blank2r.bmp	866	1	ausrottung	866	1	FEHLER	1732	1	!	1319	1	!	1412	0	0	0	0	0	0	0	0	0	0	0	0	0	0	0	0	0	0	0	0	0	0	0	0
021219	11:29:38	11:36:12	393167	5.0.10.0	4_exp_AWA_CON_AMP_EVA	115	Rpleas_acq	Oppo	Rpleas	Amasked	CS_A	2pleas	distractor2	CONbeforeEVA	acq_new_pleas_masked	acq2_masked	2	21	480	0	300	300	0	0	609	50	0	1	0	0	0	1	blank2r.bmp	0	1	+	0	3	B3r.bmp	492	1	blank2r.bmp	786	1	B1r.bmp	786	1	blank2r.bmp	866	6	träumen	866	1	!	1319	1	!	-1	0	0	0	0	0	0	0	0	0	0	0	0	0	0	0	0	0	0	0	0	0	0	0	0	0	0	0
021219	11:29:38	11:36:15	395300	5.0.10.0	4_exp_AWA_CON_AMP_EVA	115	Rpleas_acq	Oppo	Rpleas	Amasked	CS_A	2pleas	distractor2	CONbeforeEVA	acq_US_unple_masked	acq2_masked	2	22	480	0	300	300	0	0	349	46	0	1	0	0	0	1	blank2r.bmp	0	1	+	0	2	B2r.bmp	492	1	blank2r.bmp	786	1	CPLW	786	1	blank2r.bmp	866	3	versagen	866	1	!	-1	1	!	-1	0	0	0	0	0	0	0	0	0	0	0	0	0	0	0	0	0	0	0	0	0	0	0	0	0	0	0
021219	11:29:38	11:36:17	397632	5.0.10.0	4_exp_AWA_CON_AMP_EVA	115	Rpleas_acq	Oppo	Rpleas	Amasked	CS_A	2pleas	distractor2	CONbeforeEVA	acq_new_unple_masked	acq2_masked	2	23	480	1	300	300	0	0	528	46	0	1	0	0	0	1	blank2r.bmp	0	1	+	0	7	C3r.bmp	492	1	blank2r.bmp	786	3	B3r.bmp	786	1	blank2r.bmp	866	6	töten	866	1	!	1319	1	!	1426	0	0	0	0	0	0	0	0	0	0	0	0	0	0	0	0	0	0	0	0	0	0	0	0	0	0	0
021219	11:29:38	11:36:19	399805	5.0.10.0	4_exp_AWA_CON_AMP_EVA	115	Rpleas_acq	Oppo	Rpleas	Amasked	CS_A	2pleas	distractor2	CONbeforeEVA	acq_US_pleas_masked	acq2_masked	2	24	480	0	300	300	0	0	403	50	0	1	0	0	0	1	blank2r.bmp	0	1	+	0	5	C1r.bmp	492	1	blank2r.bmp	786	1	DHJF	786	1	blank2r.bmp	866	5	kreativ	866	1	!	-1	1	!	-1	0	0	0	0	0	0	0	0	0	0	0	0	0	0	0	0	0	0	0	0	0	0	0	0	0	0	0
021219	11:29:38	11:36:22	402297	5.0.10.0	4_exp_AWA_CON_AMP_EVA	115	Rpleas_acq	Oppo	Rpleas	Amasked	CS_A	2pleas	distractor2	CONbeforeEVA	acq_new_pleas_masked	acq2_masked	2	25	480	0	300	300	0	0	712	50	0	1	0	0	0	1	blank2r.bmp	0	1	+	0	4	B4r.bmp	492	1	blank2r.bmp	786	8	C4r.bmp	786	1	blank2r.bmp	866	4	genießen	866	1	!	1319	1	!	-1	0	0	0	0	0	0	0	0	0	0	0	0	0	0	0	0	0	0	0	0	0	0	0	0	0	0	0
021219	11:29:38	11:36:24	404722	5.0.10.0	4_exp_AWA_CON_AMP_EVA	115	Rpleas_acq	Oppo	Rpleas	Amasked	CS_A	2pleas	distractor2	CONbeforeEVA	acq_US_unple_masked	acq2_masked	2	26	480	0	300	300	0	0	401	50	0	0	0	0	0	1	blank2r.bmp	0	1	+	0	6	C2r.bmp	492	1	blank2r.bmp	786	1	CPLW	786	1	blank2r.bmp	866	5	krank	866	1	FEHLER	1612	1	!	-1	1	!	-1	0	0	0	0	0	0	0	0	0	0	0	0	0	0	0	0	0	0	0	0	0	0	0	0
021219	11:29:38	11:36:26	406815	5.0.10.0	4_exp_AWA_CON_AMP_EVA	115	Rpleas_acq	Oppo	Rpleas	Amasked	CS_A	2pleas	distractor2	CONbeforeEVA	acq_US_pleas_masked	acq2_masked	2	27	480	1	300	300	0	0	503	50	0	1	0	0	0	1	blank2r.bmp	0	1	+	0	1	B1r.bmp	492	1	blank2r.bmp	786	1	DHJF	786	1	blank2r.bmp	866	1	anregung	866	1	!	1319	1	!	1399	0	0	0	0	0	0	0	0	0	0	0	0	0	0	0	0	0	0	0	0	0	0	0	0	0	0	0
021219	11:29:38	11:36:28	408881	5.0.10.0	4_exp_AWA_CON_AMP_EVA	115	Rpleas_acq	Oppo	Rpleas	Amasked	CS_A	2pleas	distractor2	CONbeforeEVA	acq_US_unple_masked	acq2_masked	2	28	480	0	300	300	0	0	301	46	0	1	0	0	0	1	blank2r.bmp	0	1	+	0	8	C4r.bmp	492	1	blank2r.bmp	786	1	CPLW	786	1	blank2r.bmp	866	2	geizig	866	1	!	-1	1	!	-1	0	0	0	0	0	0	0	0	0	0	0	0	0	0	0	0	0	0	0	0	0	0	0	0	0	0	0
021219	11:29:38	11:36:31	411346	5.0.10.0	4_exp_AWA_CON_AMP_EVA	115	Rpleas_acq	Oppo	Rpleas	Amasked	CS_A	2pleas	distractor2	CONbeforeEVA	acq_US_pleas_masked	acq2_masked	2	29	480	0	300	300	0	0	682	50	0	1	0	0	0	1	blank2r.bmp	0	1	+	0	8	C4r.bmp	492	1	blank2r.bmp	786	1	DHJF	786	1	blank2r.bmp	866	6	sonnig	866	1	!	1319	1	!	-1	0	0	0	0	0	0	0	0	0	0	0	0	0	0	0	0	0	0	0	0	0	0	0	0	0	0	0
021219	11:29:38	11:36:33	413465	5.0.10.0	4_exp_AWA_CON_AMP_EVA	115	Rpleas_acq	Oppo	Rpleas	Amasked	CS_A	2pleas	distractor2	CONbeforeEVA	acq_new_unple_masked	acq2_masked	2	30	480	0	300	300	0	0	345	46	0	1	0	0	0	1	blank2r.bmp	0	1	+	0	6	C2r.bmp	492	1	blank2r.bmp	786	7	C3r.bmp	786	1	blank2r.bmp	866	2	engstirnig	866	1	!	-1	1	!	-1	0	0	0	0	0	0	0	0	0	0	0	0	0	0	0	0	0	0	0	0	0	0	0	0	0	0	0
021219	11:29:38	11:36:35	415958	5.0.10.0	4_exp_AWA_CON_AMP_EVA	115	Rpleas_acq	Oppo	Rpleas	Amasked	CS_A	2pleas	distractor2	CONbeforeEVA	acq_US_unple_masked	acq2_masked	2	31	480	0	300	300	0	0	697	46	0	1	0	0	0	1	blank2r.bmp	0	1	+	0	3	B3r.bmp	492	1	blank2r.bmp	786	1	CPLW	786	1	blank2r.bmp	866	4	gierig	866	1	!	1319	1	!	-1	0	0	0	0	0	0	0	0	0	0	0	0	0	0	0	0	0	0	0	0	0	0	0	0	0	0	0
021219	11:29:38	11:36:37	418050	5.0.10.0	4_exp_AWA_CON_AMP_EVA	115	Rpleas_acq	Oppo	Rpleas	Amasked	CS_A	2pleas	distractor2	CONbeforeEVA	acq_US_pleas_masked	acq2_masked	2	32	480	0	300	300	0	0	315	50	0	1	0	0	0	1	blank2r.bmp	0	1	+	0	1	B1r.bmp	492	1	blank2r.bmp	786	1	DHJF	786	1	blank2r.bmp	866	4	gütig	866	1	!	-1	1	!	-1	0	0	0	0	0	0	0	0	0	0	0	0	0	0	0	0	0	0	0	0	0	0	0	0	0	0	0
021219	11:29:38	11:36:40	420423	5.0.10.0	4_exp_AWA_CON_AMP_EVA	115	Rpleas_acq	Oppo	Rpleas	Amasked	CS_A	2pleas	distractor2	CONbeforeEVA	acq_new_pleas_masked	acq2_masked	2	33	480	0	300	300	0	0	583	50	0	1	0	0	0	1	blank2r.bmp	0	1	+	0	5	C1r.bmp	492	1	blank2r.bmp	786	8	C4r.bmp	786	1	blank2r.bmp	866	5	kuss	866	1	!	1319	1	!	-1	0	0	0	0	0	0	0	0	0	0	0	0	0	0	0	0	0	0	0	0	0	0	0	0	0	0	0
021219	11:29:38	11:36:42	422808	5.0.10.0	4_exp_AWA_CON_AMP_EVA	115	Rpleas_acq	Oppo	Rpleas	Amasked	CS_A	2pleas	distractor2	CONbeforeEVA	acq_new_unple_masked	acq2_masked	2	34	480	0	300	300	0	0	362	50	0	0	0	0	0	1	blank2r.bmp	0	1	+	0	4	B4r.bmp	492	1	blank2r.bmp	786	2	B2r.bmp	786	1	blank2r.bmp	866	5	krise	866	1	FEHLER	1572	1	!	-1	1	!	-1	0	0	0	0	0	0	0	0	0	0	0	0	0	0	0	0	0	0	0	0	0	0	0	0
021219	11:29:38	11:36:44	425047	5.0.10.0	4_exp_AWA_CON_AMP_EVA	115	Rpleas_acq	Oppo	Rpleas	Amasked	CS_A	2pleas	distractor2	CONbeforeEVA	acq_new_pleas_masked	acq2_masked	2	35	480	0	300	300	0	0	682	50	0	1	0	0	0	1	blank2r.bmp	0	1	+	0	7	C3r.bmp	492	1	blank2r.bmp	786	5	C1r.bmp	786	1	blank2r.bmp	866	1	besonnen	866	1	!	1319	1	!	-1	0	0	0	0	0	0	0	0	0	0	0	0	0	0	0	0	0	0	0	0	0	0	0	0	0	0	0
021219	11:29:38	11:36:47	427353	5.0.10.0	4_exp_AWA_CON_AMP_EVA	115	Rpleas_acq	Oppo	Rpleas	Amasked	CS_A	2pleas	distractor2	CONbeforeEVA	acq_new_unple_masked	acq2_masked	2	36	480	1	300	300	0	0	501	46	0	1	0	0	0	1	blank2r.bmp	0	1	+	0	2	B2r.bmp	492	1	blank2r.bmp	786	3	B3r.bmp	786	1	blank2r.bmp	866	3	verbissen	866	1	!	1319	1	!	1399	0	0	0	0	0	0	0	0	0	0	0	0	0	0	0	0	0	0	0	0	0	0	0	0	0	0	0
021219	11:29:38	11:37:04	444906	5.0.10.0	4_exp_AWA_CON_AMP_EVA	115	Rpleas_acq	Oppo	Rpleas	Amasked	CS_A	2pleas	distractor2	CONbeforeEVA	acq_US_unple_masked	acq3_masked	3	1	453	1	300	300	0	0	454	46	0	1	0	0	0	1	blank2r.bmp	0	1	+	0	6	C2r.bmp	492	1	blank2r.bmp	786	1	CPLW	786	1	blank2r.bmp	866	6	sterben	866	1	!	1292	1	!	1359	0	0	0	0	0	0	0	0	0	0	0	0	0	0	0	0	0	0	0	0	0	0	0	0	0	0	0
021219	11:29:38	11:37:07	447438	5.0.10.0	4_exp_AWA_CON_AMP_EVA	115	Rpleas_acq	Oppo	Rpleas	Amasked	CS_A	2pleas	distractor2	CONbeforeEVA	acq_US_pleas_masked	acq3_masked	3	2	453	0	300	300	0	0	544	46	0	0	0	0	0	1	blank2r.bmp	0	1	+	0	7	C3r.bmp	492	1	blank2r.bmp	786	1	DHJF	786	1	blank2r.bmp	866	4	gütig	866	1	FEHLER	1745	1	!	1292	1	!	-1	0	0	0	0	0	0	0	0	0	0	0	0	0	0	0	0	0	0	0	0	0	0	0	0
021219	11:29:38	11:37:09	449424	5.0.10.0	4_exp_AWA_CON_AMP_EVA	115	Rpleas_acq	Oppo	Rpleas	Amasked	CS_A	2pleas	distractor2	CONbeforeEVA	acq_US_unple_masked	acq3_masked	3	3	453	1	300	300	0	0	401	46	0	1	0	0	0	1	blank2r.bmp	0	1	+	0	8	C4r.bmp	492	1	blank2r.bmp	786	1	CPLW	786	1	blank2r.bmp	866	5	krank	866	1	!	1292	1	!	1306	0	0	0	0	0	0	0	0	0	0	0	0	0	0	0	0	0	0	0	0	0	0	0	0	0	0	0
021219	11:29:38	11:37:11	451729	5.0.10.0	4_exp_AWA_CON_AMP_EVA	115	Rpleas_acq	Oppo	Rpleas	Amasked	CS_A	2pleas	distractor2	CONbeforeEVA	acq_US_unple_masked	acq3_masked	3	4	453	0	300	300	0	0	532	46	0	1	0	0	0	1	blank2r.bmp	0	1	+	0	4	B4r.bmp	492	1	blank2r.bmp	786	1	CPLW	786	1	blank2r.bmp	866	1	ausrottung	866	1	!	1292	1	!	-1	0	0	0	0	0	0	0	0	0	0	0	0	0	0	0	0	0	0	0	0	0	0	0	0	0	0	0
021219	11:29:38	11:37:13	454062	5.0.10.0	4_exp_AWA_CON_AMP_EVA	115	Rpleas_acq	Oppo	Rpleas	Amasked	CS_A	2pleas	distractor2	CONbeforeEVA	acq_US_pleas_masked	acq3_masked	3	5	453	0	300	300	0	0	326	46	0	0	0	0	0	1	blank2r.bmp	0	1	+	0	2	B2r.bmp	492	1	blank2r.bmp	786	1	DHJF	786	1	blank2r.bmp	866	3	vertrauen	866	1	FEHLER	1532	1	!	-1	1	!	-1	0	0	0	0	0	0	0	0	0	0	0	0	0	0	0	0	0	0	0	0	0	0	0	0
021219	11:29:38	11:37:16	456527	5.0.10.0	4_exp_AWA_CON_AMP_EVA	115	Rpleas_acq	Oppo	Rpleas	Amasked	CS_A	2pleas	distractor2	CONbeforeEVA	acq_US_pleas_masked	acq3_masked	3	6	453	0	300	300	0	0	687	46	0	0	0	0	0	1	blank2r.bmp	0	1	+	0	1	B1r.bmp	492	1	blank2r.bmp	786	1	DHJF	786	1	blank2r.bmp	866	2	gesittet	866	1	FEHLER	1892	1	!	1292	1	!	-1	0	0	0	0	0	0	0	0	0	0	0	0	0	0	0	0	0	0	0	0	0	0	0	0
021219	11:29:38	11:37:18	458633	5.0.10.0	4_exp_AWA_CON_AMP_EVA	115	Rpleas_acq	Oppo	Rpleas	Amasked	CS_A	2pleas	distractor2	CONbeforeEVA	acq_US_unple_masked	acq3_masked	3	7	453	0	300	300	0	0	310	50	0	0	0	0	0	1	blank2r.bmp	0	1	+	0	3	B3r.bmp	492	1	blank2r.bmp	786	1	CPLW	786	1	blank2r.bmp	866	4	gierig	866	1	FEHLER	1519	1	!	-1	1	!	-1	0	0	0	0	0	0	0	0	0	0	0	0	0	0	0	0	0	0	0	0	0	0	0	0
021219	11:29:38	11:37:20	460726	5.0.10.0	4_exp_AWA_CON_AMP_EVA	115	Rpleas_acq	Oppo	Rpleas	Amasked	CS_A	2pleas	distractor2	CONbeforeEVA	acq_US_pleas_masked	acq3_masked	3	8	453	1	300	300	0	0	514	50	0	1	0	0	0	1	blank2r.bmp	0	1	+	0	5	C1r.bmp	492	1	blank2r.bmp	786	1	DHJF	786	1	blank2r.bmp	866	6	sonnig	866	1	!	1292	1	!	1412	0	0	0	0	0	0	0	0	0	0	0	0	0	0	0	0	0	0	0	0	0	0	0	0	0	0	0
021219	11:29:38	11:37:22	463151	5.0.10.0	4_exp_AWA_CON_AMP_EVA	115	Rpleas_acq	Oppo	Rpleas	Amasked	CS_A	2pleas	distractor2	CONbeforeEVA	acq_US_unple_masked	acq3_masked	3	9	453	0	300	300	0	0	663	46	0	1	0	0	0	1	blank2r.bmp	0	1	+	0	4	B4r.bmp	492	1	blank2r.bmp	786	1	CPLW	786	1	blank2r.bmp	866	2	geizig	866	1	!	1292	1	!	-1	0	0	0	0	0	0	0	0	0	0	0	0	0	0	0	0	0	0	0	0	0	0	0	0	0	0	0
021219	11:29:38	11:37:25	465777	5.0.10.0	4_exp_AWA_CON_AMP_EVA	115	Rpleas_acq	Oppo	Rpleas	Amasked	CS_A	2pleas	distractor2	CONbeforeEVA	acq_US_pleas_masked	acq3_masked	3	10	453	0	300	300	0	0	602	46	0	0	0	0	0	1	blank2r.bmp	0	1	+	0	8	C4r.bmp	492	1	blank2r.bmp	786	1	DHJF	786	1	blank2r.bmp	866	1	anregung	866	1	FEHLER	1812	1	!	1292	1	!	-1	0	0	0	0	0	0	0	0	0	0	0	0	0	0	0	0	0	0	0	0	0	0	0	0
021219	11:29:38	11:37:27	467643	5.0.10.0	4_exp_AWA_CON_AMP_EVA	115	Rpleas_acq	Oppo	Rpleas	Amasked	CS_A	2pleas	distractor2	CONbeforeEVA	acq_US_pleas_masked	acq3_masked	3	11	453	0	300	300	0	0	311	50	0	1	0	0	0	1	blank2r.bmp	0	1	+	0	6	C2r.bmp	492	1	blank2r.bmp	786	1	DHJF	786	1	blank2r.bmp	866	5	kreativ	866	1	!	-1	1	!	-1	0	0	0	0	0	0	0	0	0	0	0	0	0	0	0	0	0	0	0	0	0	0	0	0	0	0	0
021219	11:29:38	11:37:29	469895	5.0.10.0	4_exp_AWA_CON_AMP_EVA	115	Rpleas_acq	Oppo	Rpleas	Amasked	CS_A	2pleas	distractor2	CONbeforeEVA	acq_US_unple_masked	acq3_masked	3	12	453	1	300	300	0	0	435	46	0	1	0	0	0	1	blank2r.bmp	0	1	+	0	5	C1r.bmp	492	1	blank2r.bmp	786	1	CPLW	786	1	blank2r.bmp	866	3	versagen	866	1	!	1292	1	!	1332	0	0	0	0	0	0	0	0	0	0	0	0	0	0	0	0	0	0	0	0	0	0	0	0	0	0	0
021219	11:29:38	11:37:32	472387	5.0.10.0	4_exp_AWA_CON_AMP_EVA	115	Rpleas_acq	Oppo	Rpleas	Amasked	CS_A	2pleas	distractor2	CONbeforeEVA	acq_US_unple_masked	acq3_masked	3	13	453	1	300	300	0	0	498	50	0	0	0	0	0	1	blank2r.bmp	0	1	+	0	3	B3r.bmp	492	1	blank2r.bmp	786	1	CPLW	786	1	blank2r.bmp	866	3	versagen	866	1	FEHLER	1719	1	!	1292	1	!	1399	0	0	0	0	0	0	0	0	0	0	0	0	0	0	0	0	0	0	0	0	0	0	0	0
021219	11:29:38	11:37:34	474626	5.0.10.0	4_exp_AWA_CON_AMP_EVA	115	Rpleas_acq	Oppo	Rpleas	Amasked	CS_A	2pleas	distractor2	CONbeforeEVA	acq_US_pleas_masked	acq3_masked	3	14	453	0	300	300	0	0	670	50	0	1	0	0	0	1	blank2r.bmp	0	1	+	0	2	B2r.bmp	492	1	blank2r.bmp	786	1	DHJF	786	1	blank2r.bmp	866	3	vertrauen	866	1	!	1292	1	!	-1	0	0	0	0	0	0	0	0	0	0	0	0	0	0	0	0	0	0	0	0	0	0	0	0	0	0	0
021219	11:29:38	11:37:36	476972	5.0.10.0	4_exp_AWA_CON_AMP_EVA	115	Rpleas_acq	Oppo	Rpleas	Amasked	CS_A	2pleas	distractor2	CONbeforeEVA	acq_US_pleas_masked	acq3_masked	3	15	453	0	300	300	0	0	344	46	0	0	0	0	0	1	blank2r.bmp	0	1	+	0	1	B1r.bmp	492	1	blank2r.bmp	786	1	DHJF	786	1	blank2r.bmp	866	4	gütig	866	1	FEHLER	1546	1	!	-1	1	!	-1	0	0	0	0	0	0	0	0	0	0	0	0	0	0	0	0	0	0	0	0	0	0	0	0
021219	11:29:38	11:37:38	479038	5.0.10.0	4_exp_AWA_CON_AMP_EVA	115	Rpleas_acq	Oppo	Rpleas	Amasked	CS_A	2pleas	distractor2	CONbeforeEVA	acq_US_unple_masked	acq3_masked	3	16	453	0	300	300	0	0	284	50	0	0	0	0	0	1	blank2r.bmp	0	1	+	0	7	C3r.bmp	492	1	blank2r.bmp	786	1	CPLW	786	1	blank2r.bmp	866	1	ausrottung	866	1	FEHLER	1492	1	!	-1	1	!	-1	0	0	0	0	0	0	0	0	0	0	0	0	0	0	0	0	0	0	0	0	0	0	0	0
021219	11:29:38	11:37:40	481130	5.0.10.0	4_exp_AWA_CON_AMP_EVA	115	Rpleas_acq	Oppo	Rpleas	Amasked	CS_A	2pleas	distractor2	CONbeforeEVA	acq_US_pleas_masked	acq3_masked	3	17	453	0	300	300	0	0	536	50	0	1	0	0	0	1	blank2r.bmp	0	1	+	0	5	C1r.bmp	492	1	blank2r.bmp	786	1	DHJF	786	1	blank2r.bmp	866	6	sonnig	866	1	!	1292	1	!	-1	0	0	0	0	0	0	0	0	0	0	0	0	0	0	0	0	0	0	0	0	0	0	0	0	0	0	0
021219	11:29:38	11:37:43	483236	5.0.10.0	4_exp_AWA_CON_AMP_EVA	115	Rpleas_acq	Oppo	Rpleas	Amasked	CS_A	2pleas	distractor2	CONbeforeEVA	acq_US_unple_masked	acq3_masked	3	18	453	0	300	300	0	0	329	46	0	1	0	0	0	1	blank2r.bmp	0	1	+	0	2	B2r.bmp	492	1	blank2r.bmp	786	1	CPLW	786	1	blank2r.bmp	866	2	geizig	866	1	!	-1	1	!	-1	0	0	0	0	0	0	0	0	0	0	0	0	0	0	0	0	0	0	0	0	0	0	0	0	0	0	0
021219	11:29:38	11:37:45	485702	5.0.10.0	4_exp_AWA_CON_AMP_EVA	115	Rpleas_acq	Oppo	Rpleas	Amasked	CS_A	2pleas	distractor2	CONbeforeEVA	acq_US_unple_masked	acq3_masked	3	19	453	0	300	300	0	0	682	46	0	1	0	0	0	1	blank2r.bmp	0	1	+	0	6	C2r.bmp	492	1	blank2r.bmp	786	1	CPLW	786	1	blank2r.bmp	866	4	gierig	866	1	!	1292	1	!	-1	0	0	0	0	0	0	0	0	0	0	0	0	0	0	0	0	0	0	0	0	0	0	0	0	0	0	0
021219	11:29:38	11:37:47	487834	5.0.10.0	4_exp_AWA_CON_AMP_EVA	115	Rpleas_acq	Oppo	Rpleas	Amasked	CS_A	2pleas	distractor2	CONbeforeEVA	acq_US_pleas_masked	acq3_masked	3	20	453	0	300	300	0	0	346	50	0	1	0	0	0	1	blank2r.bmp	0	1	+	0	3	B3r.bmp	492	1	blank2r.bmp	786	1	DHJF	786	1	blank2r.bmp	866	1	anregung	866	1	!	-1	1	!	-1	0	0	0	0	0	0	0	0	0	0	0	0	0	0	0	0	0	0	0	0	0	0	0	0	0	0	0
021219	11:29:38	11:37:50	490406	5.0.10.0	4_exp_AWA_CON_AMP_EVA	115	Rpleas_acq	Oppo	Rpleas	Amasked	CS_A	2pleas	distractor2	CONbeforeEVA	acq_US_pleas_masked	acq3_masked	3	21	453	0	300	300	0	0	574	46	0	0	0	0	0	1	blank2r.bmp	0	1	+	0	7	C3r.bmp	492	1	blank2r.bmp	786	1	DHJF	786	1	blank2r.bmp	866	2	gesittet	866	1	FEHLER	1785	1	!	1292	1	!	-1	0	0	0	0	0	0	0	0	0	0	0	0	0	0	0	0	0	0	0	0	0	0	0	0
021219	11:29:38	11:37:52	492472	5.0.10.0	4_exp_AWA_CON_AMP_EVA	115	Rpleas_acq	Oppo	Rpleas	Amasked	CS_A	2pleas	distractor2	CONbeforeEVA	acq_US_unple_masked	acq3_masked	3	22	453	1	300	300	0	0	478	46	0	1	0	0	0	1	blank2r.bmp	0	1	+	0	1	B1r.bmp	492	1	blank2r.bmp	786	1	CPLW	786	1	blank2r.bmp	866	6	sterben	866	1	!	1292	1	!	1372	0	0	0	0	0	0	0	0	0	0	0	0	0	0	0	0	0	0	0	0	0	0	0	0	0	0	0
021219	11:29:38	11:37:54	494765	5.0.10.0	4_exp_AWA_CON_AMP_EVA	115	Rpleas_acq	Oppo	Rpleas	Amasked	CS_A	2pleas	distractor2	CONbeforeEVA	acq_US_pleas_masked	acq3_masked	3	23	453	1	300	300	0	0	494	50	0	1	0	0	0	1	blank2r.bmp	0	1	+	0	4	B4r.bmp	492	1	blank2r.bmp	786	1	DHJF	786	1	blank2r.bmp	866	5	kreativ	866	1	!	1292	1	!	1399	0	0	0	0	0	0	0	0	0	0	0	0	0	0	0	0	0	0	0	0	0	0	0	0	0	0	0
021219	11:29:38	11:37:56	497017	5.0.10.0	4_exp_AWA_CON_AMP_EVA	115	Rpleas_acq	Oppo	Rpleas	Amasked	CS_A	2pleas	distractor2	CONbeforeEVA	acq_US_unple_masked	acq3_masked	3	24	453	1	300	300	0	0	463	46	0	1	0	0	0	1	blank2r.bmp	0	1	+	0	8	C4r.bmp	492	1	blank2r.bmp	786	1	CPLW	786	1	blank2r.bmp	866	5	krank	866	1	!	1292	1	!	1359	0	0	0	0	0	0	0	0	0	0	0	0	0	0	0	0	0	0	0	0	0	0	0	0	0	0	0
021219	11:29:38	11:37:59	499429	5.0.10.0	4_exp_AWA_CON_AMP_EVA	115	Rpleas_acq	Oppo	Rpleas	Amasked	CS_A	2pleas	distractor2	CONbeforeEVA	acq_US_unple_masked	acq3_masked	3	25	453	0	300	300	0	0	636	46	0	1	0	0	0	1	blank2r.bmp	0	1	+	0	8	C4r.bmp	492	1	blank2r.bmp	786	1	CPLW	786	1	blank2r.bmp	866	2	geizig	866	1	!	1292	1	!	-1	0	0	0	0	0	0	0	0	0	0	0	0	0	0	0	0	0	0	0	0	0	0	0	0	0	0	0
021219	11:29:38	11:38:01	501668	5.0.10.0	4_exp_AWA_CON_AMP_EVA	115	Rpleas_acq	Oppo	Rpleas	Amasked	CS_A	2pleas	distractor2	CONbeforeEVA	acq_US_unple_masked	acq3_masked	3	26	453	1	300	300	0	0	431	46	0	1	0	0	0	1	blank2r.bmp	0	1	+	0	1	B1r.bmp	492	1	blank2r.bmp	786	1	CPLW	786	1	blank2r.bmp	866	4	gierig	866	1	!	1292	1	!	1332	0	0	0	0	0	0	0	0	0	0	0	0	0	0	0	0	0	0	0	0	0	0	0	0	0	0	0
021219	11:29:38	11:38:03	504001	5.0.10.0	4_exp_AWA_CON_AMP_EVA	115	Rpleas_acq	Oppo	Rpleas	Amasked	CS_A	2pleas	distractor2	CONbeforeEVA	acq_US_pleas_masked	acq3_masked	3	27	453	0	300	300	0	0	570	50	0	1	0	0	0	1	blank2r.bmp	0	1	+	0	5	C1r.bmp	492	1	blank2r.bmp	786	1	DHJF	786	1	blank2r.bmp	866	1	anregung	866	1	!	1292	1	!	-1	0	0	0	0	0	0	0	0	0	0	0	0	0	0	0	0	0	0	0	0	0	0	0	0	0	0	0
021219	11:29:38	11:38:06	506240	5.0.10.0	4_exp_AWA_CON_AMP_EVA	115	Rpleas_acq	Oppo	Rpleas	Amasked	CS_A	2pleas	distractor2	CONbeforeEVA	acq_US_unple_masked	acq3_masked	3	28	453	1	300	300	0	0	436	46	0	1	0	0	0	1	blank2r.bmp	0	1	+	0	3	B3r.bmp	492	1	blank2r.bmp	786	1	CPLW	786	1	blank2r.bmp	866	6	sterben	866	1	!	1292	1	!	1332	0	0	0	0	0	0	0	0	0	0	0	0	0	0	0	0	0	0	0	0	0	0	0	0	0	0	0
021219	11:29:38	11:38:08	508439	5.0.10.0	4_exp_AWA_CON_AMP_EVA	115	Rpleas_acq	Oppo	Rpleas	Amasked	CS_A	2pleas	distractor2	CONbeforeEVA	acq_US_pleas_masked	acq3_masked	3	29	453	1	300	300	0	0	405	50	0	1	0	0	0	1	blank2r.bmp	0	1	+	0	6	C2r.bmp	492	1	blank2r.bmp	786	1	DHJF	786	1	blank2r.bmp	866	4	gütig	866	1	!	1292	1	!	1306	0	0	0	0	0	0	0	0	0	0	0	0	0	0	0	0	0	0	0	0	0	0	0	0	0	0	0
021219	11:29:38	11:38:10	510745	5.0.10.0	4_exp_AWA_CON_AMP_EVA	115	Rpleas_acq	Oppo	Rpleas	Amasked	CS_A	2pleas	distractor2	CONbeforeEVA	acq_US_unple_masked	acq3_masked	3	30	453	0	300	300	0	0	532	46	0	1	0	0	0	1	blank2r.bmp	0	1	+	0	2	B2r.bmp	492	1	blank2r.bmp	786	1	CPLW	786	1	blank2r.bmp	866	1	ausrottung	866	1	!	1292	1	!	-1	0	0	0	0	0	0	0	0	0	0	0	0	0	0	0	0	0	0	0	0	0	0	0	0	0	0	0
021219	11:29:38	11:38:13	513344	5.0.10.0	4_exp_AWA_CON_AMP_EVA	115	Rpleas_acq	Oppo	Rpleas	Amasked	CS_A	2pleas	distractor2	CONbeforeEVA	acq_US_unple_masked	acq3_masked	3	31	453	0	300	300	0	0	812	46	0	1	0	0	0	1	blank2r.bmp	0	1	+	0	7	C3r.bmp	492	1	blank2r.bmp	786	1	CPLW	786	1	blank2r.bmp	866	3	versagen	866	1	!	1292	1	!	-1	0	0	0	0	0	0	0	0	0	0	0	0	0	0	0	0	0	0	0	0	0	0	0	0	0	0	0
021219	11:29:38	11:38:15	515583	5.0.10.0	4_exp_AWA_CON_AMP_EVA	115	Rpleas_acq	Oppo	Rpleas	Amasked	CS_A	2pleas	distractor2	CONbeforeEVA	acq_US_unple_masked	acq3_masked	3	32	453	1	300	300	0	0	436	46	0	1	0	0	0	1	blank2r.bmp	0	1	+	0	4	B4r.bmp	492	1	blank2r.bmp	786	1	CPLW	786	1	blank2r.bmp	866	5	krank	866	1	!	1292	1	!	1332	0	0	0	0	0	0	0	0	0	0	0	0	0	0	0	0	0	0	0	0	0	0	0	0	0	0	0
021219	11:29:38	11:38:17	518142	5.0.10.0	4_exp_AWA_CON_AMP_EVA	115	Rpleas_acq	Oppo	Rpleas	Amasked	CS_A	2pleas	distractor2	CONbeforeEVA	acq_US_pleas_masked	acq3_masked	3	33	453	0	300	300	0	0	570	46	0	0	0	0	0	1	blank2r.bmp	0	1	+	0	4	B4r.bmp	492	1	blank2r.bmp	786	1	DHJF	786	1	blank2r.bmp	866	3	vertrauen	866	1	FEHLER	1772	1	!	1292	1	!	-1	0	0	0	0	0	0	0	0	0	0	0	0	0	0	0	0	0	0	0	0	0	0	0	0
021219	11:29:38	11:38:20	520181	5.0.10.0	4_exp_AWA_CON_AMP_EVA	115	Rpleas_acq	Oppo	Rpleas	Amasked	CS_A	2pleas	distractor2	CONbeforeEVA	acq_US_pleas_masked	acq3_masked	3	34	453	1	300	300	0	0	458	50	0	1	0	0	0	1	blank2r.bmp	0	1	+	0	2	B2r.bmp	492	1	blank2r.bmp	786	1	DHJF	786	1	blank2r.bmp	866	5	kreativ	866	1	!	1292	1	!	1359	0	0	0	0	0	0	0	0	0	0	0	0	0	0	0	0	0	0	0	0	0	0	0	0	0	0	0
021219	11:29:38	11:38:22	522513	5.0.10.0	4_exp_AWA_CON_AMP_EVA	115	Rpleas_acq	Oppo	Rpleas	Amasked	CS_A	2pleas	distractor2	CONbeforeEVA	acq_US_pleas_masked	acq3_masked	3	35	453	0	300	300	0	0	550	50	0	1	0	0	0	1	blank2r.bmp	0	1	+	0	3	B3r.bmp	492	1	blank2r.bmp	786	1	DHJF	786	1	blank2r.bmp	866	6	sonnig	866	1	!	1292	1	!	-1	0	0	0	0	0	0	0	0	0	0	0	0	0	0	0	0	0	0	0	0	0	0	0	0	0	0	0
021219	11:29:38	11:38:24	524885	5.0.10.0	4_exp_AWA_CON_AMP_EVA	115	Rpleas_acq	Oppo	Rpleas	Amasked	CS_A	2pleas	distractor2	CONbeforeEVA	acq_US_pleas_masked	acq3_masked	3	36	453	0	300	300	0	0	366	46	0	0	0	0	0	1	blank2r.bmp	0	1	+	0	5	C1r.bmp	492	1	blank2r.bmp	786	1	DHJF	786	1	blank2r.bmp	866	2	gesittet	866	1	FEHLER	1572	1	!	-1	1	!	-1	0	0	0	0	0	0	0	0	0	0	0	0	0	0	0	0	0	0	0	0	0	0	0	0
021219	11:29:38	11:38:40	540879	5.0.10.0	4_exp_AWA_CON_AMP_EVA	115	Rpleas_acq	Oppo	Rpleas	Amasked	CS_A	2pleas	distractor2	CONbeforeEVA	acq_US_pleas_masked	acq45_masked	4	1	400	0	300	300	0	0	500	46	0	0	0	0	0	1	blank2r.bmp	0	1	+	0	6	C2r.bmp	492	1	blank2r.bmp	786	1	DHJF	786	1	blank2r.bmp	866	1	anregung	866	1	!	1239	1	!	-1	0	0	0	0	0	0	0	0	0	0	0	0	0	0	0	0	0	0	0	0	0	0	0	0	0	0	0
021219	11:29:38	11:38:42	543118	5.0.10.0	4_exp_AWA_CON_AMP_EVA	115	Rpleas_acq	Oppo	Rpleas	Amasked	CS_A	2pleas	distractor2	CONbeforeEVA	acq_US_unple_masked	acq45_masked	4	2	400	1	300	300	0	0	436	46	0	1	0	0	0	1	blank2r.bmp	0	1	+	0	1	B1r.bmp	492	1	blank2r.bmp	786	1	CPLW	786	1	blank2r.bmp	866	6	sterben	866	1	!	1239	1	!	1332	0	0	0	0	0	0	0	0	0	0	0	0	0	0	0	0	0	0	0	0	0	0	0	0	0	0	0
021219	11:29:38	11:38:45	545357	5.0.10.0	4_exp_AWA_CON_AMP_EVA	115	Rpleas_acq	Oppo	Rpleas	Amasked	CS_A	2pleas	distractor2	CONbeforeEVA	acq_US_pleas_masked	acq45_masked	4	3	400	1	300	300	0	0	450	46	0	0	0	0	0	1	blank2r.bmp	0	1	+	0	8	C4r.bmp	492	1	blank2r.bmp	786	1	DHJF	786	1	blank2r.bmp	866	2	gesittet	866	1	!	1239	1	!	1346	0	0	0	0	0	0	0	0	0	0	0	0	0	0	0	0	0	0	0	0	0	0	0	0	0	0	0
021219	11:29:38	11:38:47	547529	5.0.10.0	4_exp_AWA_CON_AMP_EVA	115	Rpleas_acq	Oppo	Rpleas	Amasked	CS_A	2pleas	distractor2	CONbeforeEVA	acq_US_unple_masked	acq45_masked	4	4	400	1	300	300	0	0	378	46	0	1	0	0	0	1	blank2r.bmp	0	1	+	0	7	C3r.bmp	492	1	blank2r.bmp	786	1	CPLW	786	1	blank2r.bmp	866	1	ausrottung	866	1	!	1239	1	!	1279	0	0	0	0	0	0	0	0	0	0	0	0	0	0	0	0	0	0	0	0	0	0	0	0	0	0	0
021219	11:29:38	11:38:49	549622	5.0.10.0	4_exp_AWA_CON_AMP_EVA	115	Rpleas_acq	Oppo	Rpleas	Amasked	CS_A	2pleas	distractor2	CONbeforeEVA	acq_US_unple_masked	acq45_masked	4	5	400	0	300	300	0	0	307	50	0	0	0	0	0	1	blank2r.bmp	0	1	+	0	6	C2r.bmp	492	1	blank2r.bmp	786	1	CPLW	786	1	blank2r.bmp	866	4	gierig	866	1	!	-1	1	!	-1	0	0	0	0	0	0	0	0	0	0	0	0	0	0	0	0	0	0	0	0	0	0	0	0	0	0	0
021219	11:29:38	11:38:51	551861	5.0.10.0	4_exp_AWA_CON_AMP_EVA	115	Rpleas_acq	Oppo	Rpleas	Amasked	CS_A	2pleas	distractor2	CONbeforeEVA	acq_US_pleas_masked	acq45_masked	4	6	400	1	300	300	0	0	423	50	0	1	0	0	0	1	blank2r.bmp	0	1	+	0	5	C1r.bmp	492	1	blank2r.bmp	786	1	DHJF	786	1	blank2r.bmp	866	5	kreativ	866	1	!	1239	1	!	1319	0	0	0	0	0	0	0	0	0	0	0	0	0	0	0	0	0	0	0	0	0	0	0	0	0	0	0
021219	11:29:38	11:38:53	554073	5.0.10.0	4_exp_AWA_CON_AMP_EVA	115	Rpleas_acq	Oppo	Rpleas	Amasked	CS_A	2pleas	distractor2	CONbeforeEVA	acq_US_pleas_masked	acq45_masked	4	7	400	1	300	300	0	0	425	50	0	1	0	0	0	1	blank2r.bmp	0	1	+	0	8	C4r.bmp	492	1	blank2r.bmp	786	1	DHJF	786	1	blank2r.bmp	866	6	sonnig	866	1	!	1239	1	!	1319	0	0	0	0	0	0	0	0	0	0	0	0	0	0	0	0	0	0	0	0	0	0	0	0	0	0	0
021219	11:29:38	11:38:56	556285	5.0.10.0	4_exp_AWA_CON_AMP_EVA	115	Rpleas_acq	Oppo	Rpleas	Amasked	CS_A	2pleas	distractor2	CONbeforeEVA	acq_US_unple_masked	acq45_masked	4	8	400	1	300	300	0	0	416	46	0	1	0	0	0	1	blank2r.bmp	0	1	+	0	3	B3r.bmp	492	1	blank2r.bmp	786	1	CPLW	786	1	blank2r.bmp	866	3	versagen	866	1	!	1239	1	!	1319	0	0	0	0	0	0	0	0	0	0	0	0	0	0	0	0	0	0	0	0	0	0	0	0	0	0	0
021219	11:29:38	11:38:58	558551	5.0.10.0	4_exp_AWA_CON_AMP_EVA	115	Rpleas_acq	Oppo	Rpleas	Amasked	CS_A	2pleas	distractor2	CONbeforeEVA	acq_US_unple_masked	acq45_masked	4	9	400	0	300	300	0	0	501	46	0	1	0	0	0	1	blank2r.bmp	0	1	+	0	4	B4r.bmp	492	1	blank2r.bmp	786	1	CPLW	786	1	blank2r.bmp	866	2	geizig	866	1	!	1239	1	!	-1	0	0	0	0	0	0	0	0	0	0	0	0	0	0	0	0	0	0	0	0	0	0	0	0	0	0	0
021219	11:29:38	11:39:00	560644	5.0.10.0	4_exp_AWA_CON_AMP_EVA	115	Rpleas_acq	Oppo	Rpleas	Amasked	CS_A	2pleas	distractor2	CONbeforeEVA	acq_US_pleas_masked	acq45_masked	4	10	400	0	300	300	0	0	305	46	0	0	0	0	0	1	blank2r.bmp	0	1	+	0	2	B2r.bmp	492	1	blank2r.bmp	786	1	DHJF	786	1	blank2r.bmp	866	4	gütig	866	1	!	-1	1	!	-1	0	0	0	0	0	0	0	0	0	0	0	0	0	0	0	0	0	0	0	0	0	0	0	0	0	0	0
021219	11:29:38	11:39:02	562896	5.0.10.0	4_exp_AWA_CON_AMP_EVA	115	Rpleas_acq	Oppo	Rpleas	Amasked	CS_A	2pleas	distractor2	CONbeforeEVA	acq_US_unple_masked	acq45_masked	4	11	400	1	300	300	0	0	450	46	0	1	0	0	0	1	blank2r.bmp	0	1	+	0	7	C3r.bmp	492	1	blank2r.bmp	786	1	CPLW	786	1	blank2r.bmp	866	5	krank	866	1	!	1239	1	!	1346	0	0	0	0	0	0	0	0	0	0	0	0	0	0	0	0	0	0	0	0	0	0	0	0	0	0	0
021219	11:29:38	11:39:05	565188	5.0.10.0	4_exp_AWA_CON_AMP_EVA	115	Rpleas_acq	Oppo	Rpleas	Amasked	CS_A	2pleas	distractor2	CONbeforeEVA	acq_US_pleas_masked	acq45_masked	4	12	400	0	300	300	0	0	519	46	0	0	0	0	0	1	blank2r.bmp	0	1	+	0	1	B1r.bmp	492	1	blank2r.bmp	786	1	DHJF	786	1	blank2r.bmp	866	3	vertrauen	866	1	!	1239	1	!	-1	0	0	0	0	0	0	0	0	0	0	0	0	0	0	0	0	0	0	0	0	0	0	0	0	0	0	0
021219	11:29:38	11:39:07	567534	5.0.10.0	4_exp_AWA_CON_AMP_EVA	115	Rpleas_acq	Oppo	Rpleas	Amasked	CS_A	2pleas	distractor2	CONbeforeEVA	acq_US_pleas_masked	acq45_masked	4	13	400	0	300	300	0	0	557	46	0	0	0	0	0	1	blank2r.bmp	0	1	+	0	7	C3r.bmp	492	1	blank2r.bmp	786	1	DHJF	786	1	blank2r.bmp	866	4	gütig	866	1	!	1239	1	!	-1	0	0	0	0	0	0	0	0	0	0	0	0	0	0	0	0	0	0	0	0	0	0	0	0	0	0	0
021219	11:29:38	11:39:09	569800	5.0.10.0	4_exp_AWA_CON_AMP_EVA	115	Rpleas_acq	Oppo	Rpleas	Amasked	CS_A	2pleas	distractor2	CONbeforeEVA	acq_US_unple_masked	acq45_masked	4	14	400	1	300	300	0	0	461	46	0	1	0	0	0	1	blank2r.bmp	0	1	+	0	4	B4r.bmp	492	1	blank2r.bmp	786	1	CPLW	786	1	blank2r.bmp	866	6	sterben	866	1	!	1239	1	!	1359	0	0	0	0	0	0	0	0	0	0	0	0	0	0	0	0	0	0	0	0	0	0	0	0	0	0	0
021219	11:29:38	11:39:11	572066	5.0.10.0	4_exp_AWA_CON_AMP_EVA	115	Rpleas_acq	Oppo	Rpleas	Amasked	CS_A	2pleas	distractor2	CONbeforeEVA	acq_US_pleas_masked	acq45_masked	4	15	400	0	300	300	0	0	497	50	0	1	0	0	0	1	blank2r.bmp	0	1	+	0	5	C1r.bmp	492	1	blank2r.bmp	786	1	DHJF	786	1	blank2r.bmp	866	6	sonnig	866	1	!	1239	1	!	-1	0	0	0	0	0	0	0	0	0	0	0	0	0	0	0	0	0	0	0	0	0	0	0	0	0	0	0
021219	11:29:38	11:39:14	574331	5.0.10.0	4_exp_AWA_CON_AMP_EVA	115	Rpleas_acq	Oppo	Rpleas	Amasked	CS_A	2pleas	distractor2	CONbeforeEVA	acq_US_pleas_masked	acq45_masked	4	16	400	1	300	300	0	0	460	46	0	0	0	0	0	1	blank2r.bmp	0	1	+	0	6	C2r.bmp	492	1	blank2r.bmp	786	1	DHJF	786	1	blank2r.bmp	866	3	vertrauen	866	1	!	1239	1	!	1359	0	0	0	0	0	0	0	0	0	0	0	0	0	0	0	0	0	0	0	0	0	0	0	0	0	0	0
021219	11:29:38	11:39:16	576477	5.0.10.0	4_exp_AWA_CON_AMP_EVA	115	Rpleas_acq	Oppo	Rpleas	Amasked	CS_A	2pleas	distractor2	CONbeforeEVA	acq_US_unple_masked	acq45_masked	4	17	400	1	300	300	0	0	352	46	0	1	0	0	0	1	blank2r.bmp	0	1	+	0	1	B1r.bmp	492	1	blank2r.bmp	786	1	CPLW	786	1	blank2r.bmp	866	4	gierig	866	1	!	1239	1	!	1252	0	0	0	0	0	0	0	0	0	0	0	0	0	0	0	0	0	0	0	0	0	0	0	0	0	0	0
021219	11:29:38	11:39:18	578689	5.0.10.0	4_exp_AWA_CON_AMP_EVA	115	Rpleas_acq	Oppo	Rpleas	Amasked	CS_A	2pleas	distractor2	CONbeforeEVA	acq_US_unple_masked	acq45_masked	4	18	400	1	300	300	0	0	421	46	0	1	0	0	0	1	blank2r.bmp	0	1	+	0	3	B3r.bmp	492	1	blank2r.bmp	786	1	CPLW	786	1	blank2r.bmp	866	5	krank	866	1	!	1239	1	!	1319	0	0	0	0	0	0	0	0	0	0	0	0	0	0	0	0	0	0	0	0	0	0	0	0	0	0	0
021219	11:29:38	11:39:20	580928	5.0.10.0	4_exp_AWA_CON_AMP_EVA	115	Rpleas_acq	Oppo	Rpleas	Amasked	CS_A	2pleas	distractor2	CONbeforeEVA	acq_US_pleas_masked	acq45_masked	4	19	400	1	300	300	0	0	446	46	0	0	0	0	0	1	blank2r.bmp	0	1	+	0	2	B2r.bmp	492	1	blank2r.bmp	786	1	DHJF	786	1	blank2r.bmp	866	2	gesittet	866	1	!	1239	1	!	1346	0	0	0	0	0	0	0	0	0	0	0	0	0	0	0	0	0	0	0	0	0	0	0	0	0	0	0
021219	11:29:38	11:39:22	583154	5.0.10.0	4_exp_AWA_CON_AMP_EVA	115	Rpleas_acq	Oppo	Rpleas	Amasked	CS_A	2pleas	distractor2	CONbeforeEVA	acq_US_unple_masked	acq45_masked	4	20	400	1	300	300	0	0	423	46	0	1	0	0	0	1	blank2r.bmp	0	1	+	0	8	C4r.bmp	492	1	blank2r.bmp	786	1	CPLW	786	1	blank2r.bmp	866	1	ausrottung	866	1	!	1239	1	!	1319	0	0	0	0	0	0	0	0	0	0	0	0	0	0	0	0	0	0	0	0	0	0	0	0	0	0	0
021219	11:29:38	11:39:25	585233	5.0.10.0	4_exp_AWA_CON_AMP_EVA	115	Rpleas_acq	Oppo	Rpleas	Amasked	CS_A	2pleas	distractor2	CONbeforeEVA	acq_US_pleas_masked	acq45_masked	4	21	400	0	300	300	0	0	316	50	0	1	0	0	0	1	blank2r.bmp	0	1	+	0	6	C2r.bmp	492	1	blank2r.bmp	786	1	DHJF	786	1	blank2r.bmp	866	5	kreativ	866	1	!	-1	1	!	-1	0	0	0	0	0	0	0	0	0	0	0	0	0	0	0	0	0	0	0	0	0	0	0	0	0	0	0
021219	11:29:38	11:39:27	587459	5.0.10.0	4_exp_AWA_CON_AMP_EVA	115	Rpleas_acq	Oppo	Rpleas	Amasked	CS_A	2pleas	distractor2	CONbeforeEVA	acq_US_pleas_masked	acq45_masked	4	22	400	1	300	300	0	0	425	46	0	0	0	0	0	1	blank2r.bmp	0	1	+	0	2	B2r.bmp	492	1	blank2r.bmp	786	1	DHJF	786	1	blank2r.bmp	866	1	anregung	866	1	!	1239	1	!	1319	0	0	0	0	0	0	0	0	0	0	0	0	0	0	0	0	0	0	0	0	0	0	0	0	0	0	0
021219	11:29:38	11:39:29	589658	5.0.10.0	4_exp_AWA_CON_AMP_EVA	115	Rpleas_acq	Oppo	Rpleas	Amasked	CS_A	2pleas	distractor2	CONbeforeEVA	acq_US_pleas_masked	acq45_masked	4	23	400	1	300	300	0	0	408	46	0	0	0	0	0	1	blank2r.bmp	0	1	+	0	1	B1r.bmp	492	1	blank2r.bmp	786	1	DHJF	786	1	blank2r.bmp	866	3	vertrauen	866	1	!	1239	1	!	1306	0	0	0	0	0	0	0	0	0	0	0	0	0	0	0	0	0	0	0	0	0	0	0	0	0	0	0
021219	11:29:38	11:39:31	591924	5.0.10.0	4_exp_AWA_CON_AMP_EVA	115	Rpleas_acq	Oppo	Rpleas	Amasked	CS_A	2pleas	distractor2	CONbeforeEVA	acq_US_unple_masked	acq45_masked	4	24	400	0	300	300	0	0	504	46	0	1	0	0	0	1	blank2r.bmp	0	1	+	0	5	C1r.bmp	492	1	blank2r.bmp	786	1	CPLW	786	1	blank2r.bmp	866	2	geizig	866	1	!	1239	1	!	-1	0	0	0	0	0	0	0	0	0	0	0	0	0	0	0	0	0	0	0	0	0	0	0	0	0	0	0
021219	11:29:38	11:39:34	594323	5.0.10.0	4_exp_AWA_CON_AMP_EVA	115	Rpleas_acq	Oppo	Rpleas	Amasked	CS_A	2pleas	distractor2	CONbeforeEVA	acq_US_unple_masked	acq45_masked	4	25	400	0	300	300	0	0	612	46	0	1	0	0	0	1	blank2r.bmp	0	1	+	0	3	B3r.bmp	492	1	blank2r.bmp	786	1	CPLW	786	1	blank2r.bmp	866	3	versagen	866	1	!	1239	1	!	-1	0	0	0	0	0	0	0	0	0	0	0	0	0	0	0	0	0	0	0	0	0	0	0	0	0	0	0
021219	11:29:38	11:39:36	596642	5.0.10.0	4_exp_AWA_CON_AMP_EVA	115	Rpleas_acq	Oppo	Rpleas	Amasked	CS_A	2pleas	distractor2	CONbeforeEVA	acq_US_pleas_masked	acq45_masked	4	26	400	0	300	300	0	0	537	50	0	1	0	0	0	1	blank2r.bmp	0	1	+	0	8	C4r.bmp	492	1	blank2r.bmp	786	1	DHJF	786	1	blank2r.bmp	866	1	anregung	866	1	!	1239	1	!	-1	0	0	0	0	0	0	0	0	0	0	0	0	0	0	0	0	0	0	0	0	0	0	0	0	0	0	0
021219	11:29:38	11:39:38	598921	5.0.10.0	4_exp_AWA_CON_AMP_EVA	115	Rpleas_acq	Oppo	Rpleas	Amasked	CS_A	2pleas	distractor2	CONbeforeEVA	acq_US_pleas_masked	acq45_masked	4	27	400	0	300	300	0	0	494	46	0	0	0	0	0	1	blank2r.bmp	0	1	+	0	4	B4r.bmp	492	1	blank2r.bmp	786	1	DHJF	786	1	blank2r.bmp	866	2	gesittet	866	1	!	1239	1	!	-1	0	0	0	0	0	0	0	0	0	0	0	0	0	0	0	0	0	0	0	0	0	0	0	0	0	0	0
021219	11:29:38	11:39:41	601213	5.0.10.0	4_exp_AWA_CON_AMP_EVA	115	Rpleas_acq	Oppo	Rpleas	Amasked	CS_A	2pleas	distractor2	CONbeforeEVA	acq_US_pleas_masked	acq45_masked	4	28	400	0	300	300	0	0	505	50	0	1	0	0	0	1	blank2r.bmp	0	1	+	0	7	C3r.bmp	492	1	blank2r.bmp	786	1	DHJF	786	1	blank2r.bmp	866	6	sonnig	866	1	!	1239	1	!	-1	0	0	0	0	0	0	0	0	0	0	0	0	0	0	0	0	0	0	0	0	0	0	0	0	0	0	0
021219	11:29:38	11:39:43	603479	5.0.10.0	4_exp_AWA_CON_AMP_EVA	115	Rpleas_acq	Oppo	Rpleas	Amasked	CS_A	2pleas	distractor2	CONbeforeEVA	acq_US_unple_masked	acq45_masked	4	29	400	1	300	300	0	0	459	46	0	1	0	0	0	1	blank2r.bmp	0	1	+	0	6	C2r.bmp	492	1	blank2r.bmp	786	1	CPLW	786	1	blank2r.bmp	866	5	krank	866	1	!	1239	1	!	1359	0	0	0	0	0	0	0	0	0	0	0	0	0	0	0	0	0	0	0	0	0	0	0	0	0	0	0
021219	11:29:38	11:39:45	605745	5.0.10.0	4_exp_AWA_CON_AMP_EVA	115	Rpleas_acq	Oppo	Rpleas	Amasked	CS_A	2pleas	distractor2	CONbeforeEVA	acq_US_unple_masked	acq45_masked	4	30	400	0	300	300	0	0	498	46	0	1	0	0	0	1	blank2r.bmp	0	1	+	0	4	B4r.bmp	492	1	blank2r.bmp	786	1	CPLW	786	1	blank2r.bmp	866	4	gierig	866	1	!	1239	1	!	-1	0	0	0	0	0	0	0	0	0	0	0	0	0	0	0	0	0	0	0	0	0	0	0	0	0	0	0
021219	11:29:38	11:39:47	608077	5.0.10.0	4_exp_AWA_CON_AMP_EVA	115	Rpleas_acq	Oppo	Rpleas	Amasked	CS_A	2pleas	distractor2	CONbeforeEVA	acq_US_unple_masked	acq45_masked	4	31	400	0	300	300	0	0	554	50	0	0	0	0	0	1	blank2r.bmp	0	1	+	0	1	B1r.bmp	492	1	blank2r.bmp	786	1	CPLW	786	1	blank2r.bmp	866	1	ausrottung	866	1	!	1239	1	!	-1	0	0	0	0	0	0	0	0	0	0	0	0	0	0	0	0	0	0	0	0	0	0	0	0	0	0	0
021219	11:29:38	11:39:50	610183	5.0.10.0	4_exp_AWA_CON_AMP_EVA	115	Rpleas_acq	Oppo	Rpleas	Amasked	CS_A	2pleas	distractor2	CONbeforeEVA	acq_US_unple_masked	acq45_masked	4	32	400	0	300	300	0	0	321	46	0	1	0	0	0	1	blank2r.bmp	0	1	+	0	5	C1r.bmp	492	1	blank2r.bmp	786	1	CPLW	786	1	blank2r.bmp	866	2	geizig	866	1	!	-1	1	!	-1	0	0	0	0	0	0	0	0	0	0	0	0	0	0	0	0	0	0	0	0	0	0	0	0	0	0	0
021219	11:29:38	11:39:52	612489	5.0.10.0	4_exp_AWA_CON_AMP_EVA	115	Rpleas_acq	Oppo	Rpleas	Amasked	CS_A	2pleas	distractor2	CONbeforeEVA	acq_US_pleas_masked	acq45_masked	4	33	400	0	300	300	0	0	526	46	0	0	0	0	0	1	blank2r.bmp	0	1	+	0	3	B3r.bmp	492	1	blank2r.bmp	786	1	DHJF	786	1	blank2r.bmp	866	4	gütig	866	1	!	1239	1	!	-1	0	0	0	0	0	0	0	0	0	0	0	0	0	0	0	0	0	0	0	0	0	0	0	0	0	0	0
021219	11:29:38	11:39:54	614794	5.0.10.0	4_exp_AWA_CON_AMP_EVA	115	Rpleas_acq	Oppo	Rpleas	Amasked	CS_A	2pleas	distractor2	CONbeforeEVA	acq_US_unple_masked	acq45_masked	4	34	400	0	300	300	0	0	513	46	0	1	0	0	0	1	blank2r.bmp	0	1	+	0	2	B2r.bmp	492	1	blank2r.bmp	786	1	CPLW	786	1	blank2r.bmp	866	3	versagen	866	1	!	1239	1	!	-1	0	0	0	0	0	0	0	0	0	0	0	0	0	0	0	0	0	0	0	0	0	0	0	0	0	0	0
021219	11:29:38	11:39:56	616993	5.0.10.0	4_exp_AWA_CON_AMP_EVA	115	Rpleas_acq	Oppo	Rpleas	Amasked	CS_A	2pleas	distractor2	CONbeforeEVA	acq_US_unple_masked	acq45_masked	4	35	400	1	300	300	0	0	397	46	0	1	0	0	0	1	blank2r.bmp	0	1	+	0	7	C3r.bmp	492	1	blank2r.bmp	786	1	CPLW	786	1	blank2r.bmp	866	6	sterben	866	1	!	1239	1	!	1292	0	0	0	0	0	0	0	0	0	0	0	0	0	0	0	0	0	0	0	0	0	0	0	0	0	0	0
021219	11:29:38	11:39:59	619219	5.0.10.0	4_exp_AWA_CON_AMP_EVA	115	Rpleas_acq	Oppo	Rpleas	Amasked	CS_A	2pleas	distractor2	CONbeforeEVA	acq_US_pleas_masked	acq45_masked	4	36	400	1	300	300	0	0	413	50	0	1	0	0	0	1	blank2r.bmp	0	1	+	0	8	C4r.bmp	492	1	blank2r.bmp	786	1	DHJF	786	1	blank2r.bmp	866	5	kreativ	866	1	!	1239	1	!	1319	0	0	0	0	0	0	0	0	0	0	0	0	0	0	0	0	0	0	0	0	0	0	0	0	0	0	0
021219	11:29:38	11:40:19	639371	5.0.10.0	4_exp_AWA_CON_AMP_EVA	115	Rpleas_acq	Oppo	Rpleas	Amasked	CS_A	2pleas	distractor2	CONbeforeEVA	acq_US_pleas_masked	acq45_masked	5	1	400	0	300	300	0	0	518	50	0	1	0	0	0	1	blank2r.bmp	0	1	+	0	4	B4r.bmp	492	1	blank2r.bmp	786	1	DHJF	786	1	blank2r.bmp	866	1	anregung	866	1	!	1239	1	!	-1	0	0	0	0	0	0	0	0	0	0	0	0	0	0	0	0	0	0	0	0	0	0	0	0	0	0	0
021219	11:29:38	11:40:21	641450	5.0.10.0	4_exp_AWA_CON_AMP_EVA	115	Rpleas_acq	Oppo	Rpleas	Amasked	CS_A	2pleas	distractor2	CONbeforeEVA	acq_US_unple_masked	acq45_masked	5	2	400	0	300	300	0	0	301	46	0	1	0	0	0	1	blank2r.bmp	0	1	+	0	2	B2r.bmp	492	1	blank2r.bmp	786	1	CPLW	786	1	blank2r.bmp	866	6	sterben	866	1	!	-1	1	!	-1	0	0	0	0	0	0	0	0	0	0	0	0	0	0	0	0	0	0	0	0	0	0	0	0	0	0	0
021219	11:29:38	11:40:23	643715	5.0.10.0	4_exp_AWA_CON_AMP_EVA	115	Rpleas_acq	Oppo	Rpleas	Amasked	CS_A	2pleas	distractor2	CONbeforeEVA	acq_US_pleas_masked	acq45_masked	5	3	400	1	300	300	0	0	464	46	0	0	0	0	0	1	blank2r.bmp	0	1	+	0	6	C2r.bmp	492	1	blank2r.bmp	786	1	DHJF	786	1	blank2r.bmp	866	6	sonnig	866	1	!	1239	1	!	1359	0	0	0	0	0	0	0	0	0	0	0	0	0	0	0	0	0	0	0	0	0	0	0	0	0	0	0
021219	11:29:38	11:40:25	645914	5.0.10.0	4_exp_AWA_CON_AMP_EVA	115	Rpleas_acq	Oppo	Rpleas	Amasked	CS_A	2pleas	distractor2	CONbeforeEVA	acq_US_unple_masked	acq45_masked	5	4	400	1	300	300	0	0	412	46	0	1	0	0	0	1	blank2r.bmp	0	1	+	0	7	C3r.bmp	492	1	blank2r.bmp	786	1	CPLW	786	1	blank2r.bmp	866	4	gierig	866	1	!	1239	1	!	1306	0	0	0	0	0	0	0	0	0	0	0	0	0	0	0	0	0	0	0	0	0	0	0	0	0	0	0
021219	11:29:38	11:40:27	648007	5.0.10.0	4_exp_AWA_CON_AMP_EVA	115	Rpleas_acq	Oppo	Rpleas	Amasked	CS_A	2pleas	distractor2	CONbeforeEVA	acq_US_unple_masked	acq45_masked	5	5	400	0	300	300	0	0	327	46	0	1	0	0	0	1	blank2r.bmp	0	1	+	0	5	C1r.bmp	492	1	blank2r.bmp	786	1	CPLW	786	1	blank2r.bmp	866	2	geizig	866	1	!	-1	1	!	-1	0	0	0	0	0	0	0	0	0	0	0	0	0	0	0	0	0	0	0	0	0	0	0	0	0	0	0
021219	11:29:38	11:40:30	650233	5.0.10.0	4_exp_AWA_CON_AMP_EVA	115	Rpleas_acq	Oppo	Rpleas	Amasked	CS_A	2pleas	distractor2	CONbeforeEVA	acq_US_unple_masked	acq45_masked	5	6	400	1	300	300	0	0	414	46	0	1	0	0	0	1	blank2r.bmp	0	1	+	0	3	B3r.bmp	492	1	blank2r.bmp	786	1	CPLW	786	1	blank2r.bmp	866	3	versagen	866	1	!	1239	1	!	1319	0	0	0	0	0	0	0	0	0	0	0	0	0	0	0	0	0	0	0	0	0	0	0	0	0	0	0
021219	11:29:38	11:40:32	652525	5.0.10.0	4_exp_AWA_CON_AMP_EVA	115	Rpleas_acq	Oppo	Rpleas	Amasked	CS_A	2pleas	distractor2	CONbeforeEVA	acq_US_pleas_masked	acq45_masked	5	7	400	0	300	300	0	0	521	46	0	0	0	0	0	1	blank2r.bmp	0	1	+	0	8	C4r.bmp	492	1	blank2r.bmp	786	1	DHJF	786	1	blank2r.bmp	866	2	gesittet	866	1	!	1239	1	!	-1	0	0	0	0	0	0	0	0	0	0	0	0	0	0	0	0	0	0	0	0	0	0	0	0	0	0	0
021219	11:29:38	11:40:34	654684	5.0.10.0	4_exp_AWA_CON_AMP_EVA	115	Rpleas_acq	Oppo	Rpleas	Amasked	CS_A	2pleas	distractor2	CONbeforeEVA	acq_US_pleas_masked	acq45_masked	5	8	400	1	300	300	0	0	347	50	0	1	0	0	0	1	blank2r.bmp	0	1	+	0	1	B1r.bmp	492	1	blank2r.bmp	786	1	DHJF	786	1	blank2r.bmp	866	5	kreativ	866	1	!	1239	1	!	1252	0	0	0	0	0	0	0	0	0	0	0	0	0	0	0	0	0	0	0	0	0	0	0	0	0	0	0
021219	11:29:38	11:40:36	656910	5.0.10.0	4_exp_AWA_CON_AMP_EVA	115	Rpleas_acq	Oppo	Rpleas	Amasked	CS_A	2pleas	distractor2	CONbeforeEVA	acq_US_unple_masked	acq45_masked	5	9	400	1	300	300	0	0	422	46	0	1	0	0	0	1	blank2r.bmp	0	1	+	0	3	B3r.bmp	492	1	blank2r.bmp	786	1	CPLW	786	1	blank2r.bmp	866	5	krank	866	1	!	1239	1	!	1319	0	0	0	0	0	0	0	0	0	0	0	0	0	0	0	0	0	0	0	0	0	0	0	0	0	0	0
021219	11:29:38	11:40:38	659096	5.0.10.0	4_exp_AWA_CON_AMP_EVA	115	Rpleas_acq	Oppo	Rpleas	Amasked	CS_A	2pleas	distractor2	CONbeforeEVA	acq_US_unple_masked	acq45_masked	5	10	400	1	300	300	0	0	391	46	0	1	0	0	0	1	blank2r.bmp	0	1	+	0	7	C3r.bmp	492	1	blank2r.bmp	786	1	CPLW	786	1	blank2r.bmp	866	1	ausrottung	866	1	!	1239	1	!	1292	0	0	0	0	0	0	0	0	0	0	0	0	0	0	0	0	0	0	0	0	0	0	0	0	0	0	0
021219	11:29:38	11:40:41	661241	5.0.10.0	4_exp_AWA_CON_AMP_EVA	115	Rpleas_acq	Oppo	Rpleas	Amasked	CS_A	2pleas	distractor2	CONbeforeEVA	acq_US_unple_masked	acq45_masked	5	11	400	1	300	300	0	0	346	46	0	1	0	0	0	1	blank2r.bmp	0	1	+	0	1	B1r.bmp	492	1	blank2r.bmp	786	1	CPLW	786	1	blank2r.bmp	866	3	versagen	866	1	!	1239	1	!	1252	0	0	0	0	0	0	0	0	0	0	0	0	0	0	0	0	0	0	0	0	0	0	0	0	0	0	0
021219	11:29:38	11:40:43	663334	5.0.10.0	4_exp_AWA_CON_AMP_EVA	115	Rpleas_acq	Oppo	Rpleas	Amasked	CS_A	2pleas	distractor2	CONbeforeEVA	acq_US_pleas_masked	acq45_masked	5	12	400	0	300	300	0	0	318	46	0	0	0	0	0	1	blank2r.bmp	0	1	+	0	2	B2r.bmp	492	1	blank2r.bmp	786	1	DHJF	786	1	blank2r.bmp	866	4	gütig	866	1	!	-1	1	!	-1	0	0	0	0	0	0	0	0	0	0	0	0	0	0	0	0	0	0	0	0	0	0	0	0	0	0	0
021219	11:29:38	11:40:45	665573	5.0.10.0	4_exp_AWA_CON_AMP_EVA	115	Rpleas_acq	Oppo	Rpleas	Amasked	CS_A	2pleas	distractor2	CONbeforeEVA	acq_US_pleas_masked	acq45_masked	5	13	400	1	300	300	0	0	431	46	0	0	0	0	0	1	blank2r.bmp	0	1	+	0	6	C2r.bmp	492	1	blank2r.bmp	786	1	DHJF	786	1	blank2r.bmp	866	3	vertrauen	866	1	!	1239	1	!	1332	0	0	0	0	0	0	0	0	0	0	0	0	0	0	0	0	0	0	0	0	0	0	0	0	0	0	0
021219	11:29:38	11:40:47	667732	5.0.10.0	4_exp_AWA_CON_AMP_EVA	115	Rpleas_acq	Oppo	Rpleas	Amasked	CS_A	2pleas	distractor2	CONbeforeEVA	acq_US_pleas_masked	acq45_masked	5	14	400	1	300	300	0	0	346	46	0	0	0	0	0	1	blank2r.bmp	0	1	+	0	5	C1r.bmp	492	1	blank2r.bmp	786	1	DHJF	786	1	blank2r.bmp	866	4	gütig	866	1	!	1239	1	!	1252	0	0	0	0	0	0	0	0	0	0	0	0	0	0	0	0	0	0	0	0	0	0	0	0	0	0	0
021219	11:29:38	11:40:49	669984	5.0.10.0	4_exp_AWA_CON_AMP_EVA	115	Rpleas_acq	Oppo	Rpleas	Amasked	CS_A	2pleas	distractor2	CONbeforeEVA	acq_US_pleas_masked	acq45_masked	5	15	400	0	300	300	0	0	479	50	0	1	0	0	0	1	blank2r.bmp	0	1	+	0	4	B4r.bmp	492	1	blank2r.bmp	786	1	DHJF	786	1	blank2r.bmp	866	1	anregung	866	1	!	1239	1	!	-1	0	0	0	0	0	0	0	0	0	0	0	0	0	0	0	0	0	0	0	0	0	0	0	0	0	0	0
021219	11:29:38	11:40:52	672210	5.0.10.0	4_exp_AWA_CON_AMP_EVA	115	Rpleas_acq	Oppo	Rpleas	Amasked	CS_A	2pleas	distractor2	CONbeforeEVA	acq_US_unple_masked	acq45_masked	5	16	400	1	300	300	0	0	420	50	0	0	0	0	0	1	blank2r.bmp	0	1	+	0	8	C4r.bmp	492	1	blank2r.bmp	786	1	CPLW	786	1	blank2r.bmp	866	4	gierig	866	1	!	1239	1	!	1319	0	0	0	0	0	0	0	0	0	0	0	0	0	0	0	0	0	0	0	0	0	0	0	0	0	0	0
021219	11:29:38	11:40:54	674383	5.0.10.0	4_exp_AWA_CON_AMP_EVA	115	Rpleas_acq	Oppo	Rpleas	Amasked	CS_A	2pleas	distractor2	CONbeforeEVA	acq_US_pleas_masked	acq45_masked	5	17	400	1	300	300	0	0	375	46	0	0	0	0	0	1	blank2r.bmp	0	1	+	0	8	C4r.bmp	492	1	blank2r.bmp	786	1	DHJF	786	1	blank2r.bmp	866	2	gesittet	866	1	!	1239	1	!	1279	0	0	0	0	0	0	0	0	0	0	0	0	0	0	0	0	0	0	0	0	0	0	0	0	0	0	0
021219	11:29:38	11:40:56	676555	5.0.10.0	4_exp_AWA_CON_AMP_EVA	115	Rpleas_acq	Oppo	Rpleas	Amasked	CS_A	2pleas	distractor2	CONbeforeEVA	acq_US_unple_masked	acq45_masked	5	18	400	1	300	300	0	0	372	46	0	1	0	0	0	1	blank2r.bmp	0	1	+	0	3	B3r.bmp	492	1	blank2r.bmp	786	1	CPLW	786	1	blank2r.bmp	866	6	sterben	866	1	!	1239	1	!	1279	0	0	0	0	0	0	0	0	0	0	0	0	0	0	0	0	0	0	0	0	0	0	0	0	0	0	0
021219	11:29:38	11:40:58	678821	5.0.10.0	4_exp_AWA_CON_AMP_EVA	115	Rpleas_acq	Oppo	Rpleas	Amasked	CS_A	2pleas	distractor2	CONbeforeEVA	acq_US_unple_masked	acq45_masked	5	19	400	0	300	300	0	0	479	46	0	1	0	0	0	1	blank2r.bmp	0	1	+	0	5	C1r.bmp	492	1	blank2r.bmp	786	1	CPLW	786	1	blank2r.bmp	866	5	krank	866	1	!	1239	1	!	-1	0	0	0	0	0	0	0	0	0	0	0	0	0	0	0	0	0	0	0	0	0	0	0	0	0	0	0
021219	11:29:38	11:41:00	680860	5.0.10.0	4_exp_AWA_CON_AMP_EVA	115	Rpleas_acq	Oppo	Rpleas	Amasked	CS_A	2pleas	distractor2	CONbeforeEVA	acq_US_unple_masked	acq45_masked	5	20	400	0	300	300	0	0	262	46	0	1	0	0	0	1	blank2r.bmp	0	1	+	0	6	C2r.bmp	492	1	blank2r.bmp	786	1	CPLW	786	1	blank2r.bmp	866	2	geizig	866	1	!	-1	1	!	-1	0	0	0	0	0	0	0	0	0	0	0	0	0	0	0	0	0	0	0	0	0	0	0	0	0	0	0
021219	11:29:38	11:41:03	683259	5.0.10.0	4_exp_AWA_CON_AMP_EVA	115	Rpleas_acq	Oppo	Rpleas	Amasked	CS_A	2pleas	distractor2	CONbeforeEVA	acq_US_unple_masked	acq45_masked	5	21	400	0	300	300	0	0	622	46	0	1	0	0	0	1	blank2r.bmp	0	1	+	0	7	C3r.bmp	492	1	blank2r.bmp	786	1	CPLW	786	1	blank2r.bmp	866	1	ausrottung	866	1	!	1239	1	!	-1	0	0	0	0	0	0	0	0	0	0	0	0	0	0	0	0	0	0	0	0	0	0	0	0	0	0	0
021219	11:29:38	11:41:05	685365	5.0.10.0	4_exp_AWA_CON_AMP_EVA	115	Rpleas_acq	Oppo	Rpleas	Amasked	CS_A	2pleas	distractor2	CONbeforeEVA	acq_US_unple_masked	acq45_masked	5	22	400	0	300	300	0	0	322	46	0	1	0	0	0	1	blank2r.bmp	0	1	+	0	4	B4r.bmp	492	1	blank2r.bmp	786	1	CPLW	786	1	blank2r.bmp	866	2	geizig	866	1	!	-1	1	!	-1	0	0	0	0	0	0	0	0	0	0	0	0	0	0	0	0	0	0	0	0	0	0	0	0	0	0	0
021219	11:29:38	11:41:07	687524	5.0.10.0	4_exp_AWA_CON_AMP_EVA	115	Rpleas_acq	Oppo	Rpleas	Amasked	CS_A	2pleas	distractor2	CONbeforeEVA	acq_US_unple_masked	acq45_masked	5	23	400	1	300	300	0	0	359	46	0	1	0	0	0	1	blank2r.bmp	0	1	+	0	2	B2r.bmp	492	1	blank2r.bmp	786	1	CPLW	786	1	blank2r.bmp	866	6	sterben	866	1	!	1239	1	!	1252	0	0	0	0	0	0	0	0	0	0	0	0	0	0	0	0	0	0	0	0	0	0	0	0	0	0	0
021219	11:29:38	11:41:09	689776	5.0.10.0	4_exp_AWA_CON_AMP_EVA	115	Rpleas_acq	Oppo	Rpleas	Amasked	CS_A	2pleas	distractor2	CONbeforeEVA	acq_US_pleas_masked	acq45_masked	5	24	400	0	300	300	0	0	479	50	0	1	0	0	0	1	blank2r.bmp	0	1	+	0	1	B1r.bmp	492	1	blank2r.bmp	786	1	DHJF	786	1	blank2r.bmp	866	5	kreativ	866	1	!	1239	1	!	-1	0	0	0	0	0	0	0	0	0	0	0	0	0	0	0	0	0	0	0	0	0	0	0	0	0	0	0
021219	11:29:38	11:41:11	691869	5.0.10.0	4_exp_AWA_CON_AMP_EVA	115	Rpleas_acq	Oppo	Rpleas	Amasked	CS_A	2pleas	distractor2	CONbeforeEVA	acq_US_unple_masked	acq45_masked	5	25	400	0	300	300	0	0	310	46	0	1	0	0	0	1	blank2r.bmp	0	1	+	0	5	C1r.bmp	492	1	blank2r.bmp	786	1	CPLW	786	1	blank2r.bmp	866	5	krank	866	1	!	-1	1	!	-1	0	0	0	0	0	0	0	0	0	0	0	0	0	0	0	0	0	0	0	0	0	0	0	0	0	0	0
021219	11:29:38	11:41:13	694134	5.0.10.0	4_exp_AWA_CON_AMP_EVA	115	Rpleas_acq	Oppo	Rpleas	Amasked	CS_A	2pleas	distractor2	CONbeforeEVA	acq_US_pleas_masked	acq45_masked	5	26	400	0	300	300	0	0	479	46	0	0	0	0	0	1	blank2r.bmp	0	1	+	0	6	C2r.bmp	492	1	blank2r.bmp	786	1	DHJF	786	1	blank2r.bmp	866	6	sonnig	866	1	!	1239	1	!	-1	0	0	0	0	0	0	0	0	0	0	0	0	0	0	0	0	0	0	0	0	0	0	0	0	0	0	0
021219	11:29:38	11:41:16	696213	5.0.10.0	4_exp_AWA_CON_AMP_EVA	115	Rpleas_acq	Oppo	Rpleas	Amasked	CS_A	2pleas	distractor2	CONbeforeEVA	acq_US_unple_masked	acq45_masked	5	27	400	0	300	300	0	0	293	46	0	1	0	0	0	1	blank2r.bmp	0	1	+	0	8	C4r.bmp	492	1	blank2r.bmp	786	1	CPLW	786	1	blank2r.bmp	866	3	versagen	866	1	!	-1	1	!	-1	0	0	0	0	0	0	0	0	0	0	0	0	0	0	0	0	0	0	0	0	0	0	0	0	0	0	0
021219	11:29:38	11:41:18	698492	5.0.10.0	4_exp_AWA_CON_AMP_EVA	115	Rpleas_acq	Oppo	Rpleas	Amasked	CS_A	2pleas	distractor2	CONbeforeEVA	acq_US_pleas_masked	acq45_masked	5	28	400	0	300	300	0	0	479	50	0	1	0	0	0	1	blank2r.bmp	0	1	+	0	7	C3r.bmp	492	1	blank2r.bmp	786	1	DHJF	786	1	blank2r.bmp	866	3	vertrauen	866	1	!	1239	1	!	-1	0	0	0	0	0	0	0	0	0	0	0	0	0	0	0	0	0	0	0	0	0	0	0	0	0	0	0
021219	11:29:38	11:41:20	700598	5.0.10.0	4_exp_AWA_CON_AMP_EVA	115	Rpleas_acq	Oppo	Rpleas	Amasked	CS_A	2pleas	distractor2	CONbeforeEVA	acq_US_pleas_masked	acq45_masked	5	29	400	0	300	300	0	0	327	46	0	0	0	0	0	1	blank2r.bmp	0	1	+	0	4	B4r.bmp	492	1	blank2r.bmp	786	1	DHJF	786	1	blank2r.bmp	866	2	gesittet	866	1	!	-1	1	!	-1	0	0	0	0	0	0	0	0	0	0	0	0	0	0	0	0	0	0	0	0	0	0	0	0	0	0	0
021219	11:29:38	11:41:22	702797	5.0.10.0	4_exp_AWA_CON_AMP_EVA	115	Rpleas_acq	Oppo	Rpleas	Amasked	CS_A	2pleas	distractor2	CONbeforeEVA	acq_US_unple_masked	acq45_masked	5	30	400	1	300	300	0	0	387	46	0	1	0	0	0	1	blank2r.bmp	0	1	+	0	3	B3r.bmp	492	1	blank2r.bmp	786	1	CPLW	786	1	blank2r.bmp	866	4	gierig	866	1	!	1239	1	!	1292	0	0	0	0	0	0	0	0	0	0	0	0	0	0	0	0	0	0	0	0	0	0	0	0	0	0	0
021219	11:29:38	11:41:24	705050	5.0.10.0	4_exp_AWA_CON_AMP_EVA	115	Rpleas_acq	Oppo	Rpleas	Amasked	CS_A	2pleas	distractor2	CONbeforeEVA	acq_US_unple_masked	acq45_masked	5	31	400	0	300	300	0	0	479	46	0	1	0	0	0	1	blank2r.bmp	0	1	+	0	1	B1r.bmp	492	1	blank2r.bmp	786	1	CPLW	786	1	blank2r.bmp	866	1	ausrottung	866	1	!	1239	1	!	-1	0	0	0	0	0	0	0	0	0	0	0	0	0	0	0	0	0	0	0	0	0	0	0	0	0	0	0
021219	11:29:38	11:41:26	707075	5.0.10.0	4_exp_AWA_CON_AMP_EVA	115	Rpleas_acq	Oppo	Rpleas	Amasked	CS_A	2pleas	distractor2	CONbeforeEVA	acq_US_pleas_masked	acq45_masked	5	32	400	0	300	300	0	0	247	46	0	0	0	0	0	1	blank2r.bmp	0	1	+	0	2	B2r.bmp	492	1	blank2r.bmp	786	1	DHJF	786	1	blank2r.bmp	866	1	anregung	866	1	!	-1	1	!	-1	0	0	0	0	0	0	0	0	0	0	0	0	0	0	0	0	0	0	0	0	0	0	0	0	0	0	0
021219	11:29:38	11:41:29	709275	5.0.10.0	4_exp_AWA_CON_AMP_EVA	115	Rpleas_acq	Oppo	Rpleas	Amasked	CS_A	2pleas	distractor2	CONbeforeEVA	acq_US_pleas_masked	acq45_masked	5	33	400	1	300	300	0	0	394	46	0	0	0	0	0	1	blank2r.bmp	0	1	+	0	1	B1r.bmp	492	1	blank2r.bmp	786	1	DHJF	786	1	blank2r.bmp	866	4	gütig	866	1	!	1239	1	!	1292	0	0	0	0	0	0	0	0	0	0	0	0	0	0	0	0	0	0	0	0	0	0	0	0	0	0	0
021219	11:29:38	11:41:31	711527	5.0.10.0	4_exp_AWA_CON_AMP_EVA	115	Rpleas_acq	Oppo	Rpleas	Amasked	CS_A	2pleas	distractor2	CONbeforeEVA	acq_US_pleas_masked	acq45_masked	5	34	400	0	300	300	0	0	479	46	0	0	0	0	0	1	blank2r.bmp	0	1	+	0	8	C4r.bmp	492	1	blank2r.bmp	786	1	DHJF	786	1	blank2r.bmp	866	3	vertrauen	866	1	!	1239	1	!	-1	0	0	0	0	0	0	0	0	0	0	0	0	0	0	0	0	0	0	0	0	0	0	0	0	0	0	0
021219	11:29:38	11:41:33	713713	5.0.10.0	4_exp_AWA_CON_AMP_EVA	115	Rpleas_acq	Oppo	Rpleas	Amasked	CS_A	2pleas	distractor2	CONbeforeEVA	acq_US_pleas_masked	acq45_masked	5	35	400	1	300	300	0	0	383	50	0	1	0	0	0	1	blank2r.bmp	0	1	+	0	5	C1r.bmp	492	1	blank2r.bmp	786	1	DHJF	786	1	blank2r.bmp	866	6	sonnig	866	1	!	1239	1	!	1279	0	0	0	0	0	0	0	0	0	0	0	0	0	0	0	0	0	0	0	0	0	0	0	0	0	0	0
021219	11:29:38	11:41:35	715818	5.0.10.0	4_exp_AWA_CON_AMP_EVA	115	Rpleas_acq	Oppo	Rpleas	Amasked	CS_A	2pleas	distractor2	CONbeforeEVA	acq_US_pleas_masked	acq45_masked	5	36	400	0	300	300	0	0	329	50	0	1	0	0	0	1	blank2r.bmp	0	1	+	0	7	C3r.bmp	492	1	blank2r.bmp	786	1	DHJF	786	1	blank2r.bmp	866	5	kreativ	866	1	!	-1	1	!	-1	0	0	0	0	0	0	0	0	0	0	0	0	0	0	0	0	0	0	0	0	0	0	0	0	0	0	0
021219	11:29:38	11:43:22	822494	5.0.10.0	4_exp_AWA_CON_AMP_EVA	115	Rpleas_acq	Oppo	Lpleas	Amasked	CS_A	2pleas	distractor2	CONbeforeEVA	cond_US_unple_123_masked_CS2	condtest_masked_1	8	1	400	0	300	300	0	0	637	46	0	0	0	0	0	1	blank2r.bmp	0	1	+	0	2	B2r.bmp	492	1	blank2r.bmp	786	1	DHJF	786	1	blank2r.bmp	866	3	versagen	866	1	!	1239	1	!	-1	0	0	0	0	0	0	0	0	0	0	0	0	0	0	0	0	0	0	0	0	0	0	0	0	0	0	0
021219	11:29:38	11:43:24	824773	5.0.10.0	4_exp_AWA_CON_AMP_EVA	115	Rpleas_acq	Oppo	Lpleas	Amasked	CS_A	2pleas	distractor2	CONbeforeEVA	cond_US_pleas_123_masked_CS2	condtest_masked_1	8	2	400	1	300	300	0	0	460	50	0	0	0	0	0	1	blank2r.bmp	0	1	+	0	3	B3r.bmp	492	1	blank2r.bmp	786	1	DHJF	786	1	blank2r.bmp	866	2	gesittet	866	1	!	1239	1	!	1359	0	0	0	0	0	0	0	0	0	0	0	0	0	0	0	0	0	0	0	0	0	0	0	0	0	0	0
021219	11:29:38	11:43:26	827052	5.0.10.0	4_exp_AWA_CON_AMP_EVA	115	Rpleas_acq	Oppo	Lpleas	Amasked	CS_A	2pleas	distractor2	CONbeforeEVA	cond_new_pleas_456_masked_CS2	condtest_masked_1	8	3	400	0	300	300	0	0	516	50	0	0	0	0	0	1	blank2r.bmp	0	1	+	0	4	B4r.bmp	492	1	blank2r.bmp	786	1	DHJF	786	1	blank2r.bmp	866	2	kuss	866	1	!	1239	1	!	-1	0	0	0	0	0	0	0	0	0	0	0	0	0	0	0	0	0	0	0	0	0	0	0	0	0	0	0
021219	11:29:38	11:43:29	829731	5.0.10.0	4_exp_AWA_CON_AMP_EVA	115	Rpleas_acq	Oppo	Lpleas	Amasked	CS_A	2pleas	distractor2	CONbeforeEVA	cond_new_pleas_456_masked_CS1	condtest_masked_1	8	4	400	0	300	300	0	0	899	46	0	1	0	0	0	1	blank2r.bmp	0	1	+	0	6	C2r.bmp	492	1	blank2r.bmp	786	1	CPLW	786	1	blank2r.bmp	866	1	genießen	866	1	!	1239	1	!	-1	0	0	0	0	0	0	0	0	0	0	0	0	0	0	0	0	0	0	0	0	0	0	0	0	0	0	0
021219	11:29:38	11:43:31	832090	5.0.10.0	4_exp_AWA_CON_AMP_EVA	115	Rpleas_acq	Oppo	Lpleas	Amasked	CS_A	2pleas	distractor2	CONbeforeEVA	cond_new_unple_456_masked_CS1	condtest_masked_1	8	5	400	0	300	300	0	0	577	50	0	1	0	0	0	1	blank2r.bmp	0	1	+	0	7	C3r.bmp	492	1	blank2r.bmp	786	1	CPLW	786	1	blank2r.bmp	866	2	krise	866	1	!	1239	1	!	-1	0	0	0	0	0	0	0	0	0	0	0	0	0	0	0	0	0	0	0	0	0	0	0	0	0	0	0
021219	11:29:38	11:43:34	834329	5.0.10.0	4_exp_AWA_CON_AMP_EVA	115	Rpleas_acq	Oppo	Lpleas	Amasked	CS_A	2pleas	distractor2	CONbeforeEVA	cond_US_unple_123_masked_CS1	condtest_masked_1	8	6	400	1	300	300	0	0	436	46	0	0	0	0	0	1	blank2r.bmp	0	1	+	0	8	C4r.bmp	492	1	blank2r.bmp	786	1	CPLW	786	1	blank2r.bmp	866	2	geizig	866	1	!	1239	1	!	1332	0	0	0	0	0	0	0	0	0	0	0	0	0	0	0	0	0	0	0	0	0	0	0	0	0	0	0
021219	11:29:38	11:43:36	836661	5.0.10.0	4_exp_AWA_CON_AMP_EVA	115	Rpleas_acq	Oppo	Lpleas	Amasked	CS_A	2pleas	distractor2	CONbeforeEVA	cond_new_unple_456_masked_CS2	condtest_masked_1	8	7	400	0	300	300	0	0	566	50	0	1	0	0	0	1	blank2r.bmp	0	1	+	0	4	B4r.bmp	492	1	blank2r.bmp	786	1	DHJF	786	1	blank2r.bmp	866	3	töten	866	1	!	1239	1	!	-1	0	0	0	0	0	0	0	0	0	0	0	0	0	0	0	0	0	0	0	0	0	0	0	0	0	0	0
021219	11:29:38	11:43:38	838887	5.0.10.0	4_exp_AWA_CON_AMP_EVA	115	Rpleas_acq	Oppo	Lpleas	Amasked	CS_A	2pleas	distractor2	CONbeforeEVA	cond_US_pleas_123_masked_CS1	condtest_masked_1	8	8	400	1	300	300	0	0	416	50	0	0	0	0	0	1	blank2r.bmp	0	1	+	0	1	B1r.bmp	492	1	blank2r.bmp	786	1	CPLW	786	1	blank2r.bmp	866	1	anregung	866	1	!	1239	1	!	1319	0	0	0	0	0	0	0	0	0	0	0	0	0	0	0	0	0	0	0	0	0	0	0	0	0	0	0
021219	11:29:38	11:44:04	864529	5.0.10.0	4_exp_AWA_CON_AMP_EVA	115	Rpleas_acq	Oppo	Lpleas	Amasked	CS_A	2pleas	distractor2	CONbeforeEVA	cond_US_unple_123_masked_CS1	condtest_masked_2	9	1	400	0	300	300	0	0	571	46	0	0	0	0	0	1	blank2r.bmp	0	1	+	0	2	B2r.bmp	492	1	blank2r.bmp	786	1	CPLW	786	1	blank2r.bmp	866	1	ausrottung	866	1	!	1239	1	!	-1	0	0	0	0	0	0	0	0	0	0	0	0	0	0	0	0	0	0	0	0	0	0	0	0	0	0	0
021219	11:29:38	11:44:06	866768	5.0.10.0	4_exp_AWA_CON_AMP_EVA	115	Rpleas_acq	Oppo	Lpleas	Amasked	CS_A	2pleas	distractor2	CONbeforeEVA	cond_US_pleas_123_masked_CS1	condtest_masked_2	9	2	400	1	300	300	0	0	427	50	0	0	0	0	0	1	blank2r.bmp	0	1	+	0	5	C1r.bmp	492	1	blank2r.bmp	786	1	CPLW	786	1	blank2r.bmp	866	3	vertrauen	866	1	!	1239	1	!	1332	0	0	0	0	0	0	0	0	0	0	0	0	0	0	0	0	0	0	0	0	0	0	0	0	0	0	0
021219	11:29:38	11:44:08	869127	5.0.10.0	4_exp_AWA_CON_AMP_EVA	115	Rpleas_acq	Oppo	Lpleas	Amasked	CS_A	2pleas	distractor2	CONbeforeEVA	cond_new_unple_456_masked_CS1	condtest_masked_2	9	3	400	0	300	300	0	0	590	50	0	1	0	0	0	1	blank2r.bmp	0	1	+	0	6	C2r.bmp	492	1	blank2r.bmp	786	1	CPLW	786	1	blank2r.bmp	866	1	gemein	866	1	!	1239	1	!	-1	0	0	0	0	0	0	0	0	0	0	0	0	0	0	0	0	0	0	0	0	0	0	0	0	0	0	0
021219	11:29:38	11:44:11	871393	5.0.10.0	4_exp_AWA_CON_AMP_EVA	115	Rpleas_acq	Oppo	Lpleas	Amasked	CS_A	2pleas	distractor2	CONbeforeEVA	cond_US_unple_123_masked_CS1	condtest_masked_2	9	4	400	0	300	300	0	0	479	46	0	0	0	0	0	1	blank2r.bmp	0	1	+	0	3	B3r.bmp	492	1	blank2r.bmp	786	1	CPLW	786	1	blank2r.bmp	866	3	versagen	866	1	!	1239	1	!	-1	0	0	0	0	0	0	0	0	0	0	0	0	0	0	0	0	0	0	0	0	0	0	0	0	0	0	0
021219	11:29:38	11:44:13	873499	5.0.10.0	4_exp_AWA_CON_AMP_EVA	115	Rpleas_acq	Oppo	Lpleas	Amasked	CS_A	2pleas	distractor2	CONbeforeEVA	cond_new_pleas_456_masked_CS1	condtest_masked_2	9	5	400	0	300	300	0	0	314	50	0	0	0	0	0	1	blank2r.bmp	0	1	+	0	1	B1r.bmp	492	1	blank2r.bmp	786	1	CPLW	786	1	blank2r.bmp	866	3	träumen	866	1	!	-1	1	!	-1	0	0	0	0	0	0	0	0	0	0	0	0	0	0	0	0	0	0	0	0	0	0	0	0	0	0	0
021219	11:29:38	11:44:15	875898	5.0.10.0	4_exp_AWA_CON_AMP_EVA	115	Rpleas_acq	Oppo	Lpleas	Amasked	CS_A	2pleas	distractor2	CONbeforeEVA	cond_US_unple_123_masked_CS1	condtest_masked_2	9	6	400	0	300	300	0	0	625	46	0	0	0	0	0	1	blank2r.bmp	0	1	+	0	8	C4r.bmp	492	1	blank2r.bmp	786	1	CPLW	786	1	blank2r.bmp	866	2	geizig	866	1	!	1239	1	!	-1	0	0	0	0	0	0	0	0	0	0	0	0	0	0	0	0	0	0	0	0	0	0	0	0	0	0	0
021219	11:29:38	11:44:17	878057	5.0.10.0	4_exp_AWA_CON_AMP_EVA	115	Rpleas_acq	Oppo	Lpleas	Amasked	CS_A	2pleas	distractor2	CONbeforeEVA	cond_new_pleas_456_masked_CS2	condtest_masked_2	9	7	400	1	300	300	0	0	346	50	0	0	0	0	0	1	blank2r.bmp	0	1	+	0	6	C2r.bmp	492	1	blank2r.bmp	786	1	DHJF	786	1	blank2r.bmp	866	3	träumen	866	1	!	1239	1	!	1252	0	0	0	0	0	0	0	0	0	0	0	0	0	0	0	0	0	0	0	0	0	0	0	0	0	0	0
021219	11:29:38	11:44:20	880443	5.0.10.0	4_exp_AWA_CON_AMP_EVA	115	Rpleas_acq	Oppo	Lpleas	Amasked	CS_A	2pleas	distractor2	CONbeforeEVA	cond_new_pleas_456_masked_CS1	condtest_masked_2	9	8	400	0	300	300	0	0	608	46	0	1	0	0	0	1	blank2r.bmp	0	1	+	0	3	B3r.bmp	492	1	blank2r.bmp	786	1	CPLW	786	1	blank2r.bmp	866	1	genießen	866	1	!	1239	1	!	-1	0	0	0	0	0	0	0	0	0	0	0	0	0	0	0	0	0	0	0	0	0	0	0	0	0	0	0
021219	11:29:38	11:44:22	882602	5.0.10.0	4_exp_AWA_CON_AMP_EVA	115	Rpleas_acq	Oppo	Lpleas	Amasked	CS_A	2pleas	distractor2	CONbeforeEVA	cond_new_pleas_456_masked_CS2	condtest_masked_2	9	9	400	1	300	300	0	0	358	46	0	1	0	0	0	1	blank2r.bmp	0	1	+	0	2	B2r.bmp	492	1	blank2r.bmp	786	1	DHJF	786	1	blank2r.bmp	866	2	kuss	866	1	!	1239	1	!	1252	0	0	0	0	0	0	0	0	0	0	0	0	0	0	0	0	0	0	0	0	0	0	0	0	0	0	0
021219	11:29:38	11:44:24	884881	5.0.10.0	4_exp_AWA_CON_AMP_EVA	115	Rpleas_acq	Oppo	Lpleas	Amasked	CS_A	2pleas	distractor2	CONbeforeEVA	cond_US_unple_123_masked_CS2	condtest_masked_2	9	10	400	0	300	300	0	0	518	46	0	0	0	0	0	1	blank2r.bmp	0	1	+	0	4	B4r.bmp	492	1	blank2r.bmp	786	1	DHJF	786	1	blank2r.bmp	866	1	ausrottung	866	1	!	1239	1	!	-1	0	0	0	0	0	0	0	0	0	0	0	0	0	0	0	0	0	0	0	0	0	0	0	0	0	0	0
021219	11:29:38	11:44:26	887093	5.0.10.0	4_exp_AWA_CON_AMP_EVA	115	Rpleas_acq	Oppo	Lpleas	Amasked	CS_A	2pleas	distractor2	CONbeforeEVA	cond_US_pleas_123_masked_CS2	condtest_masked_2	9	11	400	1	300	300	0	0	406	50	0	0	0	0	0	1	blank2r.bmp	0	1	+	0	5	C1r.bmp	492	1	blank2r.bmp	786	1	DHJF	786	1	blank2r.bmp	866	1	anregung	866	1	!	1239	1	!	1306	0	0	0	0	0	0	0	0	0	0	0	0	0	0	0	0	0	0	0	0	0	0	0	0	0	0	0
021219	11:29:38	11:44:29	889239	5.0.10.0	4_exp_AWA_CON_AMP_EVA	115	Rpleas_acq	Oppo	Lpleas	Amasked	CS_A	2pleas	distractor2	CONbeforeEVA	cond_US_unple_123_masked_CS2	condtest_masked_2	9	12	400	1	300	300	0	0	346	46	0	0	0	0	0	1	blank2r.bmp	0	1	+	0	7	C3r.bmp	492	1	blank2r.bmp	786	1	DHJF	786	1	blank2r.bmp	866	2	geizig	866	1	!	1239	1	!	1252	0	0	0	0	0	0	0	0	0	0	0	0	0	0	0	0	0	0	0	0	0	0	0	0	0	0	0
021219	11:29:38	11:44:31	891385	5.0.10.0	4_exp_AWA_CON_AMP_EVA	115	Rpleas_acq	Oppo	Lpleas	Amasked	CS_A	2pleas	distractor2	CONbeforeEVA	cond_new_unple_456_masked_CS1	condtest_masked_2	9	13	400	1	300	300	0	0	353	50	0	1	0	0	0	1	blank2r.bmp	0	1	+	0	5	C1r.bmp	492	1	blank2r.bmp	786	1	CPLW	786	1	blank2r.bmp	866	3	töten	866	1	!	1239	1	!	1252	0	0	0	0	0	0	0	0	0	0	0	0	0	0	0	0	0	0	0	0	0	0	0	0	0	0	0
021219	11:29:38	11:44:33	893690	5.0.10.0	4_exp_AWA_CON_AMP_EVA	115	Rpleas_acq	Oppo	Lpleas	Amasked	CS_A	2pleas	distractor2	CONbeforeEVA	cond_new_pleas_456_masked_CS2	condtest_masked_2	9	14	400	0	300	300	0	0	532	46	0	1	0	0	0	1	blank2r.bmp	0	1	+	0	3	B3r.bmp	492	1	blank2r.bmp	786	1	DHJF	786	1	blank2r.bmp	866	1	genießen	866	1	!	1239	1	!	-1	0	0	0	0	0	0	0	0	0	0	0	0	0	0	0	0	0	0	0	0	0	0	0	0	0	0	0
021219	11:29:38	11:44:35	895729	5.0.10.0	4_exp_AWA_CON_AMP_EVA	115	Rpleas_acq	Oppo	Lpleas	Amasked	CS_A	2pleas	distractor2	CONbeforeEVA	cond_new_pleas_456_masked_CS2	condtest_masked_2	9	15	400	0	300	300	0	0	254	50	0	0	0	0	0	1	blank2r.bmp	0	1	+	0	6	C2r.bmp	492	1	blank2r.bmp	786	1	DHJF	786	1	blank2r.bmp	866	2	kuss	866	1	!	-1	1	!	-1	0	0	0	0	0	0	0	0	0	0	0	0	0	0	0	0	0	0	0	0	0	0	0	0	0	0	0
021219	11:29:38	11:44:37	898168	5.0.10.0	4_exp_AWA_CON_AMP_EVA	115	Rpleas_acq	Oppo	Lpleas	Amasked	CS_A	2pleas	distractor2	CONbeforeEVA	cond_US_pleas_123_masked_CS1	condtest_masked_2	9	16	400	0	300	300	0	0	661	50	0	0	0	0	0	1	blank2r.bmp	0	1	+	0	7	C3r.bmp	492	1	blank2r.bmp	786	1	CPLW	786	1	blank2r.bmp	866	2	gesittet	866	1	!	1239	1	!	-1	0	0	0	0	0	0	0	0	0	0	0	0	0	0	0	0	0	0	0	0	0	0	0	0	0	0	0
021219	11:29:38	11:44:40	900261	5.0.10.0	4_exp_AWA_CON_AMP_EVA	115	Rpleas_acq	Oppo	Lpleas	Amasked	CS_A	2pleas	distractor2	CONbeforeEVA	cond_new_unple_456_masked_CS2	condtest_masked_2	9	17	400	0	300	300	0	0	300	46	0	0	0	0	0	1	blank2r.bmp	0	1	+	0	1	B1r.bmp	492	1	blank2r.bmp	786	1	DHJF	786	1	blank2r.bmp	866	2	krise	866	1	!	-1	1	!	-1	0	0	0	0	0	0	0	0	0	0	0	0	0	0	0	0	0	0	0	0	0	0	0	0	0	0	0
021219	11:29:38	11:44:42	902327	5.0.10.0	4_exp_AWA_CON_AMP_EVA	115	Rpleas_acq	Oppo	Lpleas	Amasked	CS_A	2pleas	distractor2	CONbeforeEVA	cond_US_unple_123_masked_CS2	condtest_masked_2	9	18	400	0	300	300	0	0	283	50	0	1	0	0	0	1	blank2r.bmp	0	1	+	0	2	B2r.bmp	492	1	blank2r.bmp	786	1	DHJF	786	1	blank2r.bmp	866	1	ausrottung	866	1	!	-1	1	!	-1	0	0	0	0	0	0	0	0	0	0	0	0	0	0	0	0	0	0	0	0	0	0	0	0	0	0	0
021219	11:29:38	11:44:44	904566	5.0.10.0	4_exp_AWA_CON_AMP_EVA	115	Rpleas_acq	Oppo	Lpleas	Amasked	CS_A	2pleas	distractor2	CONbeforeEVA	cond_US_unple_123_masked_CS1	condtest_masked_2	9	19	400	1	300	300	0	0	431	46	0	0	0	0	0	1	blank2r.bmp	0	1	+	0	8	C4r.bmp	492	1	blank2r.bmp	786	1	CPLW	786	1	blank2r.bmp	866	3	versagen	866	1	!	1239	1	!	1332	0	0	0	0	0	0	0	0	0	0	0	0	0	0	0	0	0	0	0	0	0	0	0	0	0	0	0
021219	11:29:38	11:44:46	906552	5.0.10.0	4_exp_AWA_CON_AMP_EVA	115	Rpleas_acq	Oppo	Lpleas	Amasked	CS_A	2pleas	distractor2	CONbeforeEVA	cond_new_unple_456_masked_CS2	condtest_masked_2	9	20	400	0	300	300	0	0	222	50	0	1	0	0	0	1	blank2r.bmp	0	1	+	0	4	B4r.bmp	492	1	blank2r.bmp	786	1	DHJF	786	1	blank2r.bmp	866	1	gemein	866	1	!	-1	1	!	-1	0	0	0	0	0	0	0	0	0	0	0	0	0	0	0	0	0	0	0	0	0	0	0	0	0	0	0
021219	11:29:38	11:44:48	908617	5.0.10.0	4_exp_AWA_CON_AMP_EVA	115	Rpleas_acq	Oppo	Lpleas	Amasked	CS_A	2pleas	distractor2	CONbeforeEVA	cond_US_pleas_123_masked_CS1	condtest_masked_2	9	21	400	0	300	300	0	0	285	50	0	0	0	0	0	1	blank2r.bmp	0	1	+	0	8	C4r.bmp	492	1	blank2r.bmp	786	1	CPLW	786	1	blank2r.bmp	866	3	vertrauen	866	1	!	-1	1	!	-1	0	0	0	0	0	0	0	0	0	0	0	0	0	0	0	0	0	0	0	0	0	0	0	0	0	0	0
021219	11:29:38	11:44:50	910777	5.0.10.0	4_exp_AWA_CON_AMP_EVA	115	Rpleas_acq	Oppo	Lpleas	Amasked	CS_A	2pleas	distractor2	CONbeforeEVA	cond_new_pleas_456_masked_CS1	condtest_masked_2	9	22	400	1	300	300	0	0	346	46	0	1	0	0	0	1	blank2r.bmp	0	1	+	0	2	B2r.bmp	492	1	blank2r.bmp	786	1	CPLW	786	1	blank2r.bmp	866	3	träumen	866	1	!	1239	1	!	1252	0	0	0	0	0	0	0	0	0	0	0	0	0	0	0	0	0	0	0	0	0	0	0	0	0	0	0
021219	11:29:38	11:44:52	913029	5.0.10.0	4_exp_AWA_CON_AMP_EVA	115	Rpleas_acq	Oppo	Lpleas	Amasked	CS_A	2pleas	distractor2	CONbeforeEVA	cond_US_pleas_123_masked_CS1	condtest_masked_2	9	23	400	1	300	300	0	0	455	50	0	0	0	0	0	1	blank2r.bmp	0	1	+	0	4	B4r.bmp	492	1	blank2r.bmp	786	1	CPLW	786	1	blank2r.bmp	866	1	anregung	866	1	!	1239	1	!	1359	0	0	0	0	0	0	0	0	0	0	0	0	0	0	0	0	0	0	0	0	0	0	0	0	0	0	0
021219	11:29:38	11:44:55	915335	5.0.10.0	4_exp_AWA_CON_AMP_EVA	115	Rpleas_acq	Oppo	Lpleas	Amasked	CS_A	2pleas	distractor2	CONbeforeEVA	cond_new_unple_456_masked_CS1	condtest_masked_2	9	24	400	0	300	300	0	0	537	50	0	1	0	0	0	1	blank2r.bmp	0	1	+	0	6	C2r.bmp	492	1	blank2r.bmp	786	1	CPLW	786	1	blank2r.bmp	866	2	krise	866	1	!	1239	1	!	-1	0	0	0	0	0	0	0	0	0	0	0	0	0	0	0	0	0	0	0	0	0	0	0	0	0	0	0
021219	11:29:38	11:44:57	917414	5.0.10.0	4_exp_AWA_CON_AMP_EVA	115	Rpleas_acq	Oppo	Lpleas	Amasked	CS_A	2pleas	distractor2	CONbeforeEVA	cond_US_pleas_123_masked_CS2	condtest_masked_2	9	25	400	0	300	300	0	0	304	46	0	1	0	0	0	1	blank2r.bmp	0	1	+	0	3	B3r.bmp	492	1	blank2r.bmp	786	1	DHJF	786	1	blank2r.bmp	866	3	vertrauen	866	1	!	-1	1	!	-1	0	0	0	0	0	0	0	0	0	0	0	0	0	0	0	0	0	0	0	0	0	0	0	0	0	0	0
021219	11:29:38	11:44:59	919719	5.0.10.0	4_exp_AWA_CON_AMP_EVA	115	Rpleas_acq	Oppo	Lpleas	Amasked	CS_A	2pleas	distractor2	CONbeforeEVA	cond_new_unple_456_masked_CS1	condtest_masked_2	9	26	400	0	300	300	0	0	526	50	0	1	0	0	0	1	blank2r.bmp	0	1	+	0	7	C3r.bmp	492	1	blank2r.bmp	786	1	CPLW	786	1	blank2r.bmp	866	1	gemein	866	1	!	1239	1	!	-1	0	0	0	0	0	0	0	0	0	0	0	0	0	0	0	0	0	0	0	0	0	0	0	0	0	0	0
021219	11:29:38	11:45:01	921812	5.0.10.0	4_exp_AWA_CON_AMP_EVA	115	Rpleas_acq	Oppo	Lpleas	Amasked	CS_A	2pleas	distractor2	CONbeforeEVA	cond_new_unple_456_masked_CS1	condtest_masked_2	9	27	400	0	300	300	0	0	314	46	0	0	0	0	0	1	blank2r.bmp	0	1	+	0	1	B1r.bmp	492	1	blank2r.bmp	786	1	CPLW	786	1	blank2r.bmp	866	3	töten	866	1	!	-1	1	!	-1	0	0	0	0	0	0	0	0	0	0	0	0	0	0	0	0	0	0	0	0	0	0	0	0	0	0	0
021219	11:29:38	11:45:03	923891	5.0.10.0	4_exp_AWA_CON_AMP_EVA	115	Rpleas_acq	Oppo	Lpleas	Amasked	CS_A	2pleas	distractor2	CONbeforeEVA	cond_new_pleas_456_masked_CS1	condtest_masked_2	9	28	400	0	300	300	0	0	293	50	0	0	0	0	0	1	blank2r.bmp	0	1	+	0	5	C1r.bmp	492	1	blank2r.bmp	786	1	CPLW	786	1	blank2r.bmp	866	3	träumen	866	1	!	-1	1	!	-1	0	0	0	0	0	0	0	0	0	0	0	0	0	0	0	0	0	0	0	0	0	0	0	0	0	0	0
021219	11:29:38	11:45:05	926157	5.0.10.0	4_exp_AWA_CON_AMP_EVA	115	Rpleas_acq	Oppo	Lpleas	Amasked	CS_A	2pleas	distractor2	CONbeforeEVA	cond_new_pleas_456_masked_CS2	condtest_masked_2	9	29	400	0	300	300	0	0	479	46	0	1	0	0	0	1	blank2r.bmp	0	1	+	0	5	C1r.bmp	492	1	blank2r.bmp	786	1	DHJF	786	1	blank2r.bmp	866	1	genießen	866	1	!	1239	1	!	-1	0	0	0	0	0	0	0	0	0	0	0	0	0	0	0	0	0	0	0	0	0	0	0	0	0	0	0
021219	11:29:38	11:45:08	928436	5.0.10.0	4_exp_AWA_CON_AMP_EVA	115	Rpleas_acq	Oppo	Lpleas	Amasked	CS_A	2pleas	distractor2	CONbeforeEVA	cond_US_pleas_123_masked_CS1	condtest_masked_2	9	30	400	0	300	300	0	0	498	50	0	0	0	0	0	1	blank2r.bmp	0	1	+	0	7	C3r.bmp	492	1	blank2r.bmp	786	1	CPLW	786	1	blank2r.bmp	866	2	gesittet	866	1	!	1239	1	!	-1	0	0	0	0	0	0	0	0	0	0	0	0	0	0	0	0	0	0	0	0	0	0	0	0	0	0	0
021219	11:29:38	11:45:10	930515	5.0.10.0	4_exp_AWA_CON_AMP_EVA	115	Rpleas_acq	Oppo	Lpleas	Amasked	CS_A	2pleas	distractor2	CONbeforeEVA	cond_new_unple_456_masked_CS2	condtest_masked_2	9	31	400	0	300	300	0	0	299	46	0	0	0	0	0	1	blank2r.bmp	0	1	+	0	2	B2r.bmp	492	1	blank2r.bmp	786	1	DHJF	786	1	blank2r.bmp	866	2	krise	866	1	!	-1	1	!	-1	0	0	0	0	0	0	0	0	0	0	0	0	0	0	0	0	0	0	0	0	0	0	0	0	0	0	0
021219	11:29:38	11:45:12	932714	5.0.10.0	4_exp_AWA_CON_AMP_EVA	115	Rpleas_acq	Oppo	Lpleas	Amasked	CS_A	2pleas	distractor2	CONbeforeEVA	cond_new_pleas_456_masked_CS1	condtest_masked_2	9	32	400	1	300	300	0	0	394	46	0	1	0	0	0	1	blank2r.bmp	0	1	+	0	6	C2r.bmp	492	1	blank2r.bmp	786	1	CPLW	786	1	blank2r.bmp	866	2	kuss	866	1	!	1239	1	!	1292	0	0	0	0	0	0	0	0	0	0	0	0	0	0	0	0	0	0	0	0	0	0	0	0	0	0	0
021219	11:29:38	11:45:14	934980	5.0.10.0	4_exp_AWA_CON_AMP_EVA	115	Rpleas_acq	Oppo	Lpleas	Amasked	CS_A	2pleas	distractor2	CONbeforeEVA	cond_US_unple_123_masked_CS1	condtest_masked_2	9	33	400	1	300	300	0	0	466	50	0	1	0	0	0	1	blank2r.bmp	0	1	+	0	4	B4r.bmp	492	1	blank2r.bmp	786	1	CPLW	786	1	blank2r.bmp	866	3	versagen	866	1	!	1239	1	!	1372	0	0	0	0	0	0	0	0	0	0	0	0	0	0	0	0	0	0	0	0	0	0	0	0	0	0	0
021219	11:29:38	11:45:16	937139	5.0.10.0	4_exp_AWA_CON_AMP_EVA	115	Rpleas_acq	Oppo	Lpleas	Amasked	CS_A	2pleas	distractor2	CONbeforeEVA	cond_US_unple_123_masked_CS2	condtest_masked_2	9	34	400	1	300	300	0	0	362	46	0	0	0	0	0	1	blank2r.bmp	0	1	+	0	3	B3r.bmp	492	1	blank2r.bmp	786	1	DHJF	786	1	blank2r.bmp	866	1	ausrottung	866	1	!	1239	1	!	1266	0	0	0	0	0	0	0	0	0	0	0	0	0	0	0	0	0	0	0	0	0	0	0	0	0	0	0
021219	11:29:38	11:45:19	939431	5.0.10.0	4_exp_AWA_CON_AMP_EVA	115	Rpleas_acq	Oppo	Lpleas	Amasked	CS_A	2pleas	distractor2	CONbeforeEVA	cond_US_pleas_123_masked_CS2	condtest_masked_2	9	35	400	0	300	300	0	0	530	46	0	1	0	0	0	1	blank2r.bmp	0	1	+	0	8	C4r.bmp	492	1	blank2r.bmp	786	1	DHJF	786	1	blank2r.bmp	866	2	gesittet	866	1	!	1239	1	!	-1	0	0	0	0	0	0	0	0	0	0	0	0	0	0	0	0	0	0	0	0	0	0	0	0	0	0	0
021219	11:29:38	11:45:21	941537	5.0.10.0	4_exp_AWA_CON_AMP_EVA	115	Rpleas_acq	Oppo	Lpleas	Amasked	CS_A	2pleas	distractor2	CONbeforeEVA	cond_US_pleas_123_masked_CS2	condtest_masked_2	9	36	400	0	300	300	0	0	307	46	0	1	0	0	0	1	blank2r.bmp	0	1	+	0	1	B1r.bmp	492	1	blank2r.bmp	786	1	DHJF	786	1	blank2r.bmp	866	3	vertrauen	866	1	!	-1	1	!	-1	0	0	0	0	0	0	0	0	0	0	0	0	0	0	0	0	0	0	0	0	0	0	0	0	0	0	0
021219	11:29:38	11:45:23	943723	5.0.10.0	4_exp_AWA_CON_AMP_EVA	115	Rpleas_acq	Oppo	Lpleas	Amasked	CS_A	2pleas	distractor2	CONbeforeEVA	cond_US_unple_123_masked_CS2	condtest_masked_2	9	37	400	1	300	300	0	0	364	46	0	0	0	0	0	1	blank2r.bmp	0	1	+	0	8	C4r.bmp	492	1	blank2r.bmp	786	1	DHJF	786	1	blank2r.bmp	866	2	geizig	866	1	!	1239	1	!	1266	0	0	0	0	0	0	0	0	0	0	0	0	0	0	0	0	0	0	0	0	0	0	0	0	0	0	0
021219	11:29:38	11:45:25	945975	5.0.10.0	4_exp_AWA_CON_AMP_EVA	115	Rpleas_acq	Oppo	Lpleas	Amasked	CS_A	2pleas	distractor2	CONbeforeEVA	cond_new_unple_456_masked_CS2	condtest_masked_2	9	38	400	0	300	300	0	0	482	50	0	1	0	0	0	1	blank2r.bmp	0	1	+	0	3	B3r.bmp	492	1	blank2r.bmp	786	1	DHJF	786	1	blank2r.bmp	866	3	töten	866	1	!	1239	1	!	-1	0	0	0	0	0	0	0	0	0	0	0	0	0	0	0	0	0	0	0	0	0	0	0	0	0	0	0
021219	11:29:38	11:45:28	948241	5.0.10.0	4_exp_AWA_CON_AMP_EVA	115	Rpleas_acq	Oppo	Lpleas	Amasked	CS_A	2pleas	distractor2	CONbeforeEVA	cond_new_unple_456_masked_CS2	condtest_masked_2	9	39	400	0	300	300	0	0	489	46	0	0	0	0	0	1	blank2r.bmp	0	1	+	0	7	C3r.bmp	492	1	blank2r.bmp	786	1	DHJF	786	1	blank2r.bmp	866	1	gemein	866	1	!	1239	1	!	-1	0	0	0	0	0	0	0	0	0	0	0	0	0	0	0	0	0	0	0	0	0	0	0	0	0	0	0
021219	11:29:38	11:45:30	950506	5.0.10.0	4_exp_AWA_CON_AMP_EVA	115	Rpleas_acq	Oppo	Lpleas	Amasked	CS_A	2pleas	distractor2	CONbeforeEVA	cond_US_pleas_123_masked_CS2	condtest_masked_2	9	40	400	1	300	300	0	0	457	46	0	1	0	0	0	1	blank2r.bmp	0	1	+	0	6	C2r.bmp	492	1	blank2r.bmp	786	1	DHJF	786	1	blank2r.bmp	866	1	anregung	866	1	!	1239	1	!	1359	0	0	0	0	0	0	0	0	0	0	0	0	0	0	0	0	0	0	0	0	0	0	0	0	0	0	0
021219	11:29:38	11:45:42	962648	5.0.10.0	4_exp_AWA_CON_AMP_EVA	115	Rpleas_acq	Oppo	Lpleas	Amasked	CS_A	2pleas	distractor2	CONbeforeEVA	cond_new_pleas_123_masked_CS1	condtest_masked_3	10	1	400	0	300	300	0	0	516	46	0	1	0	0	0	1	blank2r.bmp	0	1	+	0	1	B1r.bmp	492	1	blank2r.bmp	786	1	CPLW	786	1	blank2r.bmp	866	2	engagiert	866	1	!	1239	1	!	-1	0	0	0	0	0	0	0	0	0	0	0	0	0	0	0	0	0	0	0	0	0	0	0	0	0	0	0
021219	11:29:38	11:45:44	964647	5.0.10.0	4_exp_AWA_CON_AMP_EVA	115	Rpleas_acq	Oppo	Lpleas	Amasked	CS_A	2pleas	distractor2	CONbeforeEVA	cond_US_unple_456_masked_CS1	condtest_masked_3	10	2	400	0	300	300	0	0	221	46	0	0	0	0	0	1	blank2r.bmp	0	1	+	0	5	C1r.bmp	492	1	blank2r.bmp	786	1	CPLW	786	1	blank2r.bmp	866	2	krank	866	1	!	-1	1	!	-1	0	0	0	0	0	0	0	0	0	0	0	0	0	0	0	0	0	0	0	0	0	0	0	0	0	0	0
021219	11:29:38	11:45:46	966726	5.0.10.0	4_exp_AWA_CON_AMP_EVA	115	Rpleas_acq	Oppo	Lpleas	Amasked	CS_A	2pleas	distractor2	CONbeforeEVA	cond_new_unple_123_masked_CS2	condtest_masked_3	10	3	400	0	300	300	0	0	302	46	0	0	0	0	0	1	blank2r.bmp	0	1	+	0	2	B2r.bmp	492	1	blank2r.bmp	786	1	DHJF	786	1	blank2r.bmp	866	3	verbissen	866	1	!	-1	1	!	-1	0	0	0	0	0	0	0	0	0	0	0	0	0	0	0	0	0	0	0	0	0	0	0	0	0	0	0
021219	11:29:38	11:45:48	969019	5.0.10.0	4_exp_AWA_CON_AMP_EVA	115	Rpleas_acq	Oppo	Lpleas	Amasked	CS_A	2pleas	distractor2	CONbeforeEVA	cond_new_unple_123_masked_CS2	condtest_masked_3	10	4	400	0	300	300	0	0	516	46	0	0	0	0	0	1	blank2r.bmp	0	1	+	0	4	B4r.bmp	492	1	blank2r.bmp	786	1	DHJF	786	1	blank2r.bmp	866	2	engstirnig	866	1	!	1239	1	!	-1	0	0	0	0	0	0	0	0	0	0	0	0	0	0	0	0	0	0	0	0	0	0	0	0	0	0	0
021219	11:29:38	11:45:51	971444	5.0.10.0	4_exp_AWA_CON_AMP_EVA	115	Rpleas_acq	Oppo	Lpleas	Amasked	CS_A	2pleas	distractor2	CONbeforeEVA	cond_new_unple_123_masked_CS2	condtest_masked_3	10	5	400	0	300	300	0	0	650	50	0	1	0	0	0	1	blank2r.bmp	0	1	+	0	1	B1r.bmp	492	1	blank2r.bmp	786	1	DHJF	786	1	blank2r.bmp	866	1	bange	866	1	!	1239	1	!	-1	0	0	0	0	0	0	0	0	0	0	0	0	0	0	0	0	0	0	0	0	0	0	0	0	0	0	0
021219	11:29:38	11:45:53	973550	5.0.10.0	4_exp_AWA_CON_AMP_EVA	115	Rpleas_acq	Oppo	Lpleas	Amasked	CS_A	2pleas	distractor2	CONbeforeEVA	cond_new_pleas_123_masked_CS1	condtest_masked_3	10	6	400	0	300	300	0	0	325	50	0	0	0	0	0	1	blank2r.bmp	0	1	+	0	7	C3r.bmp	492	1	blank2r.bmp	786	1	CPLW	786	1	blank2r.bmp	866	3	vergnügt	866	1	!	-1	1	!	-1	0	0	0	0	0	0	0	0	0	0	0	0	0	0	0	0	0	0	0	0	0	0	0	0	0	0	0
021219	11:29:38	11:45:55	975749	5.0.10.0	4_exp_AWA_CON_AMP_EVA	115	Rpleas_acq	Oppo	Lpleas	Amasked	CS_A	2pleas	distractor2	CONbeforeEVA	cond_US_unple_456_masked_CS2	condtest_masked_3	10	7	400	1	300	300	0	0	388	46	0	0	0	0	0	1	blank2r.bmp	0	1	+	0	4	B4r.bmp	492	1	blank2r.bmp	786	1	DHJF	786	1	blank2r.bmp	866	1	gierig	866	1	!	1239	1	!	1292	0	0	0	0	0	0	0	0	0	0	0	0	0	0	0	0	0	0	0	0	0	0	0	0	0	0	0
021219	11:29:38	11:45:57	977895	5.0.10.0	4_exp_AWA_CON_AMP_EVA	115	Rpleas_acq	Oppo	Lpleas	Amasked	CS_A	2pleas	distractor2	CONbeforeEVA	cond_new_unple_123_masked_CS1	condtest_masked_3	10	8	400	1	300	300	0	0	349	50	0	1	0	0	0	1	blank2r.bmp	0	1	+	0	8	C4r.bmp	492	1	blank2r.bmp	786	1	CPLW	786	1	blank2r.bmp	866	2	engstirnig	866	1	!	1239	1	!	1252	0	0	0	0	0	0	0	0	0	0	0	0	0	0	0	0	0	0	0	0	0	0	0	0	0	0	0
021219	11:29:38	11:45:59	980147	5.0.10.0	4_exp_AWA_CON_AMP_EVA	115	Rpleas_acq	Oppo	Lpleas	Amasked	CS_A	2pleas	distractor2	CONbeforeEVA	cond_US_pleas_456_masked_CS2	condtest_masked_3	10	9	400	0	300	300	0	0	482	46	0	1	0	0	0	1	blank2r.bmp	0	1	+	0	3	B3r.bmp	492	1	blank2r.bmp	786	1	DHJF	786	1	blank2r.bmp	866	2	kreativ	866	1	!	1239	1	!	-1	0	0	0	0	0	0	0	0	0	0	0	0	0	0	0	0	0	0	0	0	0	0	0	0	0	0	0
021219	11:29:38	11:46:02	982453	5.0.10.0	4_exp_AWA_CON_AMP_EVA	115	Rpleas_acq	Oppo	Lpleas	Amasked	CS_A	2pleas	distractor2	CONbeforeEVA	cond_US_pleas_456_masked_CS1	condtest_masked_3	10	10	400	0	300	300	0	0	506	50	0	0	0	0	0	1	blank2r.bmp	0	1	+	0	2	B2r.bmp	492	1	blank2r.bmp	786	1	CPLW	786	1	blank2r.bmp	866	1	gütig	866	1	!	1239	1	!	-1	0	0	0	0	0	0	0	0	0	0	0	0	0	0	0	0	0	0	0	0	0	0	0	0	0	0	0
021219	11:29:38	11:46:04	984745	5.0.10.0	4_exp_AWA_CON_AMP_EVA	115	Rpleas_acq	Oppo	Lpleas	Amasked	CS_A	2pleas	distractor2	CONbeforeEVA	cond_US_unple_456_masked_CS2	condtest_masked_3	10	11	400	0	300	300	0	0	518	50	0	1	0	0	0	1	blank2r.bmp	0	1	+	0	6	C2r.bmp	492	1	blank2r.bmp	786	1	DHJF	786	1	blank2r.bmp	866	3	sterben	866	1	!	1239	1	!	-1	0	0	0	0	0	0	0	0	0	0	0	0	0	0	0	0	0	0	0	0	0	0	0	0	0	0	0
021219	11:29:38	11:46:06	986958	5.0.10.0	4_exp_AWA_CON_AMP_EVA	115	Rpleas_acq	Oppo	Lpleas	Amasked	CS_A	2pleas	distractor2	CONbeforeEVA	cond_US_pleas_456_masked_CS1	condtest_masked_3	10	12	400	1	300	300	0	0	406	46	0	1	0	0	0	1	blank2r.bmp	0	1	+	0	5	C1r.bmp	492	1	blank2r.bmp	786	1	CPLW	786	1	blank2r.bmp	866	3	sonnig	866	1	!	1239	1	!	1306	0	0	0	0	0	0	0	0	0	0	0	0	0	0	0	0	0	0	0	0	0	0	0	0	0	0	0
021219	11:29:38	11:46:09	989197	5.0.10.0	4_exp_AWA_CON_AMP_EVA	115	Rpleas_acq	Oppo	Lpleas	Amasked	CS_A	2pleas	distractor2	CONbeforeEVA	cond_new_pleas_123_masked_CS2	condtest_masked_3	10	13	400	1	300	300	0	0	449	50	0	0	0	0	0	1	blank2r.bmp	0	1	+	0	7	C3r.bmp	492	1	blank2r.bmp	786	1	DHJF	786	1	blank2r.bmp	866	1	besonnen	866	1	!	1239	1	!	1346	0	0	0	0	0	0	0	0	0	0	0	0	0	0	0	0	0	0	0	0	0	0	0	0	0	0	0
021219	11:29:38	11:46:11	991289	5.0.10.0	4_exp_AWA_CON_AMP_EVA	115	Rpleas_acq	Oppo	Lpleas	Amasked	CS_A	2pleas	distractor2	CONbeforeEVA	cond_new_unple_123_masked_CS1	condtest_masked_3	10	14	400	0	300	300	0	0	328	46	0	0	0	0	0	1	blank2r.bmp	0	1	+	0	6	C2r.bmp	492	1	blank2r.bmp	786	1	CPLW	786	1	blank2r.bmp	866	3	verbissen	866	1	!	-1	1	!	-1	0	0	0	0	0	0	0	0	0	0	0	0	0	0	0	0	0	0	0	0	0	0	0	0	0	0	0
021219	11:29:38	11:46:13	993448	5.0.10.0	4_exp_AWA_CON_AMP_EVA	115	Rpleas_acq	Oppo	Lpleas	Amasked	CS_A	2pleas	distractor2	CONbeforeEVA	cond_US_unple_456_masked_CS1	condtest_masked_3	10	15	400	1	300	300	0	0	346	50	0	1	0	0	0	1	blank2r.bmp	0	1	+	0	8	C4r.bmp	492	1	blank2r.bmp	786	1	CPLW	786	1	blank2r.bmp	866	1	gierig	866	1	!	1239	1	!	1252	0	0	0	0	0	0	0	0	0	0	0	0	0	0	0	0	0	0	0	0	0	0	0	0	0	0	0
021219	11:29:38	11:46:15	995488	5.0.10.0	4_exp_AWA_CON_AMP_EVA	115	Rpleas_acq	Oppo	Lpleas	Amasked	CS_A	2pleas	distractor2	CONbeforeEVA	cond_new_unple_123_masked_CS2	condtest_masked_3	10	16	400	0	300	300	0	0	267	50	0	1	0	0	0	1	blank2r.bmp	0	1	+	0	5	C1r.bmp	492	1	blank2r.bmp	786	1	DHJF	786	1	blank2r.bmp	866	1	bange	866	1	!	-1	1	!	-1	0	0	0	0	0	0	0	0	0	0	0	0	0	0	0	0	0	0	0	0	0	0	0	0	0	0	0
021219	11:29:38	11:46:17	997753	5.0.10.0	4_exp_AWA_CON_AMP_EVA	115	Rpleas_acq	Oppo	Lpleas	Amasked	CS_A	2pleas	distractor2	CONbeforeEVA	cond_new_pleas_123_masked_CS1	condtest_masked_3	10	17	400	1	300	300	0	0	455	50	0	0	0	0	0	1	blank2r.bmp	0	1	+	0	2	B2r.bmp	492	1	blank2r.bmp	786	1	CPLW	786	1	blank2r.bmp	866	3	vergnügt	866	1	!	1239	1	!	1359	0	0	0	0	0	0	0	0	0	0	0	0	0	0	0	0	0	0	0	0	0	0	0	0	0	0	0
021219	11:29:38	11:46:19	999899	5.0.10.0	4_exp_AWA_CON_AMP_EVA	115	Rpleas_acq	Oppo	Lpleas	Amasked	CS_A	2pleas	distractor2	CONbeforeEVA	cond_US_pleas_456_masked_CS2	condtest_masked_3	10	18	400	1	300	300	0	0	358	50	0	0	0	0	0	1	blank2r.bmp	0	1	+	0	3	B3r.bmp	492	1	blank2r.bmp	786	1	DHJF	786	1	blank2r.bmp	866	3	sonnig	866	1	!	1239	1	!	1252	0	0	0	0	0	0	0	0	0	0	0	0	0	0	0	0	0	0	0	0	0	0	0	0	0	0	0
021219	11:29:38	11:46:21	1002111	5.0.10.0	4_exp_AWA_CON_AMP_EVA	115	Rpleas_acq	Oppo	Lpleas	Amasked	CS_A	2pleas	distractor2	CONbeforeEVA	cond_new_unple_123_masked_CS1	condtest_masked_3	10	19	400	1	300	300	0	0	414	50	0	1	0	0	0	1	blank2r.bmp	0	1	+	0	4	B4r.bmp	492	1	blank2r.bmp	786	1	CPLW	786	1	blank2r.bmp	866	1	bange	866	1	!	1239	1	!	1319	0	0	0	0	0	0	0	0	0	0	0	0	0	0	0	0	0	0	0	0	0	0	0	0	0	0	0
021219	11:29:38	11:46:24	1004364	5.0.10.0	4_exp_AWA_CON_AMP_EVA	115	Rpleas_acq	Oppo	Lpleas	Amasked	CS_A	2pleas	distractor2	CONbeforeEVA	cond_new_pleas_123_masked_CS2	condtest_masked_3	10	20	400	1	300	300	0	0	458	46	0	1	0	0	0	1	blank2r.bmp	0	1	+	0	1	B1r.bmp	492	1	blank2r.bmp	786	1	DHJF	786	1	blank2r.bmp	866	1	besonnen	866	1	!	1239	1	!	1359	0	0	0	0	0	0	0	0	0	0	0	0	0	0	0	0	0	0	0	0	0	0	0	0	0	0	0
021219	11:29:38	11:46:26	1006630	5.0.10.0	4_exp_AWA_CON_AMP_EVA	115	Rpleas_acq	Oppo	Lpleas	Amasked	CS_A	2pleas	distractor2	CONbeforeEVA	cond_US_unple_456_masked_CS2	condtest_masked_3	10	21	400	0	300	300	0	0	498	50	0	1	0	0	0	1	blank2r.bmp	0	1	+	0	8	C4r.bmp	492	1	blank2r.bmp	786	1	DHJF	786	1	blank2r.bmp	866	3	sterben	866	1	!	1239	1	!	-1	0	0	0	0	0	0	0	0	0	0	0	0	0	0	0	0	0	0	0	0	0	0	0	0	0	0	0
021219	11:29:38	11:46:28	1008842	5.0.10.0	4_exp_AWA_CON_AMP_EVA	115	Rpleas_acq	Oppo	Lpleas	Amasked	CS_A	2pleas	distractor2	CONbeforeEVA	cond_US_unple_456_masked_CS1	condtest_masked_3	10	22	400	1	300	300	0	0	409	50	0	1	0	0	0	1	blank2r.bmp	0	1	+	0	3	B3r.bmp	492	1	blank2r.bmp	786	1	CPLW	786	1	blank2r.bmp	866	2	krank	866	1	!	1239	1	!	1306	0	0	0	0	0	0	0	0	0	0	0	0	0	0	0	0	0	0	0	0	0	0	0	0	0	0	0
021219	11:29:38	11:46:30	1011148	5.0.10.0	4_exp_AWA_CON_AMP_EVA	115	Rpleas_acq	Oppo	Lpleas	Amasked	CS_A	2pleas	distractor2	CONbeforeEVA	cond_new_pleas_123_masked_CS2	condtest_masked_3	10	23	400	0	300	300	0	0	535	46	0	1	0	0	0	1	blank2r.bmp	0	1	+	0	2	B2r.bmp	492	1	blank2r.bmp	786	1	DHJF	786	1	blank2r.bmp	866	2	engagiert	866	1	!	1239	1	!	-1	0	0	0	0	0	0	0	0	0	0	0	0	0	0	0	0	0	0	0	0	0	0	0	0	0	0	0
021219	11:29:38	11:46:33	1013320	5.0.10.0	4_exp_AWA_CON_AMP_EVA	115	Rpleas_acq	Oppo	Lpleas	Amasked	CS_A	2pleas	distractor2	CONbeforeEVA	cond_new_pleas_123_masked_CS2	condtest_masked_3	10	24	400	1	300	300	0	0	367	46	0	1	0	0	0	1	blank2r.bmp	0	1	+	0	1	B1r.bmp	492	1	blank2r.bmp	786	1	DHJF	786	1	blank2r.bmp	866	1	besonnen	866	1	!	1239	1	!	1266	0	0	0	0	0	0	0	0	0	0	0	0	0	0	0	0	0	0	0	0	0	0	0	0	0	0	0
021219	11:29:38	11:46:35	1015572	5.0.10.0	4_exp_AWA_CON_AMP_EVA	115	Rpleas_acq	Oppo	Lpleas	Amasked	CS_A	2pleas	distractor2	CONbeforeEVA	cond_US_unple_456_masked_CS1	condtest_masked_3	10	25	400	0	300	300	0	0	483	50	0	1	0	0	0	1	blank2r.bmp	0	1	+	0	6	C2r.bmp	492	1	blank2r.bmp	786	1	CPLW	786	1	blank2r.bmp	866	2	krank	866	1	!	1239	1	!	-1	0	0	0	0	0	0	0	0	0	0	0	0	0	0	0	0	0	0	0	0	0	0	0	0	0	0	0
021219	11:29:38	11:46:37	1017825	5.0.10.0	4_exp_AWA_CON_AMP_EVA	115	Rpleas_acq	Oppo	Lpleas	Amasked	CS_A	2pleas	distractor2	CONbeforeEVA	cond_new_unple_123_masked_CS2	condtest_masked_3	10	26	400	1	300	300	0	0	443	50	0	1	0	0	0	1	blank2r.bmp	0	1	+	0	7	C3r.bmp	492	1	blank2r.bmp	786	1	DHJF	786	1	blank2r.bmp	866	3	verbissen	866	1	!	1239	1	!	1346	0	0	0	0	0	0	0	0	0	0	0	0	0	0	0	0	0	0	0	0	0	0	0	0	0	0	0
021219	11:29:38	11:46:39	1020037	5.0.10.0	4_exp_AWA_CON_AMP_EVA	115	Rpleas_acq	Oppo	Lpleas	Amasked	CS_A	2pleas	distractor2	CONbeforeEVA	cond_US_unple_456_masked_CS2	condtest_masked_3	10	27	400	1	300	300	0	0	412	50	0	1	0	0	0	1	blank2r.bmp	0	1	+	0	5	C1r.bmp	492	1	blank2r.bmp	786	1	DHJF	786	1	blank2r.bmp	866	3	sterben	866	1	!	1239	1	!	1319	0	0	0	0	0	0	0	0	0	0	0	0	0	0	0	0	0	0	0	0	0	0	0	0	0	0	0
021219	11:29:38	11:46:42	1022196	5.0.10.0	4_exp_AWA_CON_AMP_EVA	115	Rpleas_acq	Oppo	Lpleas	Amasked	CS_A	2pleas	distractor2	CONbeforeEVA	cond_US_unple_456_masked_CS1	condtest_masked_3	10	28	400	1	300	300	0	0	361	50	0	1	0	0	0	1	blank2r.bmp	0	1	+	0	4	B4r.bmp	492	1	blank2r.bmp	786	1	CPLW	786	1	blank2r.bmp	866	1	gierig	866	1	!	1239	1	!	1266	0	0	0	0	0	0	0	0	0	0	0	0	0	0	0	0	0	0	0	0	0	0	0	0	0	0	0
021219	11:29:38	11:46:44	1024262	5.0.10.0	4_exp_AWA_CON_AMP_EVA	115	Rpleas_acq	Oppo	Lpleas	Amasked	CS_A	2pleas	distractor2	CONbeforeEVA	cond_US_pleas_456_masked_CS2	condtest_masked_3	10	29	400	0	300	300	0	0	303	50	0	0	0	0	0	1	blank2r.bmp	0	1	+	0	1	B1r.bmp	492	1	blank2r.bmp	786	1	DHJF	786	1	blank2r.bmp	866	1	gütig	866	1	!	-1	1	!	-1	0	0	0	0	0	0	0	0	0	0	0	0	0	0	0	0	0	0	0	0	0	0	0	0	0	0	0
021219	11:29:38	11:46:46	1026435	5.0.10.0	4_exp_AWA_CON_AMP_EVA	115	Rpleas_acq	Oppo	Lpleas	Amasked	CS_A	2pleas	distractor2	CONbeforeEVA	cond_new_unple_123_masked_CS1	condtest_masked_3	10	30	400	1	300	300	0	0	350	50	0	1	0	0	0	1	blank2r.bmp	0	1	+	0	7	C3r.bmp	492	1	blank2r.bmp	786	1	CPLW	786	1	blank2r.bmp	866	2	engstirnig	866	1	!	1239	1	!	1252	0	0	0	0	0	0	0	0	0	0	0	0	0	0	0	0	0	0	0	0	0	0	0	0	0	0	0
021219	11:29:38	11:46:48	1028500	5.0.10.0	4_exp_AWA_CON_AMP_EVA	115	Rpleas_acq	Oppo	Lpleas	Amasked	CS_A	2pleas	distractor2	CONbeforeEVA	cond_US_pleas_456_masked_CS2	condtest_masked_3	10	31	400	0	300	300	0	0	302	46	0	1	0	0	0	1	blank2r.bmp	0	1	+	0	8	C4r.bmp	492	1	blank2r.bmp	786	1	DHJF	786	1	blank2r.bmp	866	2	kreativ	866	1	!	-1	1	!	-1	0	0	0	0	0	0	0	0	0	0	0	0	0	0	0	0	0	0	0	0	0	0	0	0	0	0	0
