date	time	script.currenttime	script.elapsedtime	build	script.currentexpt	subject	expressions.LRpleas_acq	expressions.SameOppo	expressions.condition_Lpleas	expressions.ABmasked	expressions.conditionCS_A	expressions.condition_1pleas	expressions.condition_distractor_AMP	expressions.AWACON_AMPEVA_first	trialcode	blockcode	blocknum	trialnum	windowcenter	inwindow	pretrialpause	posttrialpause	trialduration	trialtimeout	latency	response	expressions.correctedscore	correct	values.vis_performance	values.vis_rating_sum	values.vis_rating_mean	stimulusnumber1	stimulusitem1	stimulusonset1	stimulusnumber2	stimulusitem2	stimulusonset2	stimulusnumber3	stimulusitem3	stimulusonset3	stimulusnumber4	stimulusitem4	stimulusonset4	stimulusnumber5	stimulusitem5	stimulusonset5	stimulusnumber6	stimulusitem6	stimulusonset6	stimulusnumber7	stimulusitem7	stimulusonset7	stimulusnumber8	stimulusitem8	stimulusonset8	stimulusnumber9	stimulusitem9	stimulusonset9	stimulusnumber10	stimulusitem10	stimulusonset10	stimulusnumber11	stimulusitem11	stimulusonset11	stimulusnumber12	stimulusitem12	stimulusonset12	stimulusnumber13	stimulusitem13	stimulusonset13	stimulusnumber14	stimulusitem14	stimulusonset14	stimulusnumber15	stimulusitem15	stimulusonset15	stimulusnumber16	stimulusitem16	stimulusonset16	stimulusnumber17	stimulusitem17	stimulusonset17	stimulusnumber18	stimulusitem18	stimulusonset18
032819	09:08:41	09:11:07	142300	5.0.10.0	4_exp_AWA_CON_EVA_AMP	190	Rpleas_acq	Same	Rpleas	Bmasked	CS_B	2pleas	distractor2	CONbeforeEVA	acq_US_unple_masked	acq1_masked	1	1	0	0	300	300	0	0	1199	46	0	1	0	0	0	1	blank2r.bmp	0	1	+	0	6	C2r.bmp	492	1	blank2r.bmp	786	1	BMVZ	786	1	blank2r.bmp	866	5	faul	866	0	0	0	0	0	0	0	0	0	0	0	0	0	0	0	0	0	0	0	0	0	0	0	0	0	0	0	0	0	0	0	0	0
032819	09:08:41	09:11:09	144513	5.0.10.0	4_exp_AWA_CON_EVA_AMP	190	Rpleas_acq	Same	Rpleas	Bmasked	CS_B	2pleas	distractor2	CONbeforeEVA	acq_US_pleas_masked	acq1_masked	1	2	0	0	300	300	0	0	741	50	0	1	0	0	0	1	blank2r.bmp	0	1	+	0	3	B3r.bmp	492	1	blank2r.bmp	786	1	GKQX	786	1	blank2r.bmp	866	3	helfen	866	0	0	0	0	0	0	0	0	0	0	0	0	0	0	0	0	0	0	0	0	0	0	0	0	0	0	0	0	0	0	0	0	0
032819	09:08:41	09:11:11	146712	5.0.10.0	4_exp_AWA_CON_EVA_AMP	190	Rpleas_acq	Same	Rpleas	Bmasked	CS_B	2pleas	distractor2	CONbeforeEVA	acq_new_pleas_masked	acq1_masked	1	3	0	0	300	300	0	0	706	50	0	1	0	0	0	1	blank2r.bmp	0	1	+	0	7	C3r.bmp	492	1	blank2r.bmp	786	6	C2r.bmp	786	1	blank2r.bmp	866	5	retten	866	0	0	0	0	0	0	0	0	0	0	0	0	0	0	0	0	0	0	0	0	0	0	0	0	0	0	0	0	0	0	0	0	0
032819	09:08:41	09:11:14	148884	5.0.10.0	4_exp_AWA_CON_EVA_AMP	190	Rpleas_acq	Same	Rpleas	Bmasked	CS_B	2pleas	distractor2	CONbeforeEVA	acq_new_pleas_masked	acq1_masked	1	4	0	0	300	300	0	0	701	50	0	1	0	0	0	1	blank2r.bmp	0	1	+	0	1	B1r.bmp	492	1	blank2r.bmp	786	5	C1r.bmp	786	1	blank2r.bmp	866	1	tolerant	866	0	0	0	0	0	0	0	0	0	0	0	0	0	0	0	0	0	0	0	0	0	0	0	0	0	0	0	0	0	0	0	0	0
032819	09:08:41	09:11:16	151083	5.0.10.0	4_exp_AWA_CON_EVA_AMP	190	Rpleas_acq	Same	Rpleas	Bmasked	CS_B	2pleas	distractor2	CONbeforeEVA	acq_new_unple_masked	acq1_masked	1	5	0	0	300	300	0	0	715	46	0	1	0	0	0	1	blank2r.bmp	0	1	+	0	5	C1r.bmp	492	1	blank2r.bmp	786	7	C3r.bmp	786	1	blank2r.bmp	866	1	tyrannisch	866	0	0	0	0	0	0	0	0	0	0	0	0	0	0	0	0	0	0	0	0	0	0	0	0	0	0	0	0	0	0	0	0	0
032819	09:08:41	09:11:18	153176	5.0.10.0	4_exp_AWA_CON_EVA_AMP	190	Rpleas_acq	Same	Rpleas	Bmasked	CS_B	2pleas	distractor2	CONbeforeEVA	acq_new_unple_masked	acq1_masked	1	6	0	0	300	300	0	0	603	46	0	1	0	0	0	1	blank2r.bmp	0	1	+	0	2	B2r.bmp	492	1	blank2r.bmp	786	8	C4r.bmp	786	1	blank2r.bmp	866	3	strafen	866	0	0	0	0	0	0	0	0	0	0	0	0	0	0	0	0	0	0	0	0	0	0	0	0	0	0	0	0	0	0	0	0	0
032819	09:08:41	09:11:20	155148	5.0.10.0	4_exp_AWA_CON_EVA_AMP	190	Rpleas_acq	Same	Rpleas	Bmasked	CS_B	2pleas	distractor2	CONbeforeEVA	acq_US_unple_masked	acq1_masked	1	7	0	0	300	300	0	0	491	46	0	1	0	0	0	1	blank2r.bmp	0	1	+	0	8	C4r.bmp	492	1	blank2r.bmp	786	1	BMVZ	786	1	blank2r.bmp	866	4	lasch	866	0	0	0	0	0	0	0	0	0	0	0	0	0	0	0	0	0	0	0	0	0	0	0	0	0	0	0	0	0	0	0	0	0
032819	09:08:41	09:11:22	157107	5.0.10.0	4_exp_AWA_CON_EVA_AMP	190	Rpleas_acq	Same	Rpleas	Bmasked	CS_B	2pleas	distractor2	CONbeforeEVA	acq_US_pleas_masked	acq1_masked	1	8	0	0	300	300	0	0	453	50	0	1	0	0	0	1	blank2r.bmp	0	1	+	0	4	B4r.bmp	492	1	blank2r.bmp	786	1	GKQX	786	1	blank2r.bmp	866	6	schön	866	0	0	0	0	0	0	0	0	0	0	0	0	0	0	0	0	0	0	0	0	0	0	0	0	0	0	0	0	0	0	0	0	0
032819	09:08:41	09:11:24	159147	5.0.10.0	4_exp_AWA_CON_EVA_AMP	190	Rpleas_acq	Same	Rpleas	Bmasked	CS_B	2pleas	distractor2	CONbeforeEVA	acq_new_pleas_masked	acq1_masked	1	9	0	0	300	300	0	0	560	50	0	1	0	0	0	1	blank2r.bmp	0	1	+	0	5	C1r.bmp	492	1	blank2r.bmp	786	3	B3r.bmp	786	1	blank2r.bmp	866	2	ehrlich	866	0	0	0	0	0	0	0	0	0	0	0	0	0	0	0	0	0	0	0	0	0	0	0	0	0	0	0	0	0	0	0	0	0
032819	09:08:41	09:11:26	161346	5.0.10.0	4_exp_AWA_CON_EVA_AMP	190	Rpleas_acq	Same	Rpleas	Bmasked	CS_B	2pleas	distractor2	CONbeforeEVA	acq_US_unple_masked	acq1_masked	1	10	0	0	300	300	0	0	508	50	0	0	0	0	0	1	blank2r.bmp	0	1	+	0	6	C2r.bmp	492	1	blank2r.bmp	786	1	BMVZ	786	1	blank2r.bmp	866	1	fanatisch	866	1	FEHLER	1412	0	0	0	0	0	0	0	0	0	0	0	0	0	0	0	0	0	0	0	0	0	0	0	0	0	0	0	0	0	0
032819	09:08:41	09:11:28	163252	5.0.10.0	4_exp_AWA_CON_EVA_AMP	190	Rpleas_acq	Same	Rpleas	Bmasked	CS_B	2pleas	distractor2	CONbeforeEVA	acq_new_unple_masked	acq1_masked	1	11	0	0	300	300	0	0	637	46	0	1	0	0	0	1	blank2r.bmp	0	1	+	0	3	B3r.bmp	492	1	blank2r.bmp	786	4	B4r.bmp	786	1	blank2r.bmp	866	6	schroff	866	0	0	0	0	0	0	0	0	0	0	0	0	0	0	0	0	0	0	0	0	0	0	0	0	0	0	0	0	0	0	0	0	0
032819	09:08:41	09:11:30	165464	5.0.10.0	4_exp_AWA_CON_EVA_AMP	190	Rpleas_acq	Same	Rpleas	Bmasked	CS_B	2pleas	distractor2	CONbeforeEVA	acq_US_pleas_masked	acq1_masked	1	12	0	0	300	300	0	0	722	50	0	1	0	0	0	1	blank2r.bmp	0	1	+	0	4	B4r.bmp	492	1	blank2r.bmp	786	1	GKQX	786	1	blank2r.bmp	866	1	freundlich	866	0	0	0	0	0	0	0	0	0	0	0	0	0	0	0	0	0	0	0	0	0	0	0	0	0	0	0	0	0	0	0	0	0
032819	09:08:41	09:11:32	167596	5.0.10.0	4_exp_AWA_CON_EVA_AMP	190	Rpleas_acq	Same	Rpleas	Bmasked	CS_B	2pleas	distractor2	CONbeforeEVA	acq_US_pleas_masked	acq1_masked	1	13	0	0	300	300	0	0	652	50	0	1	0	0	0	1	blank2r.bmp	0	1	+	0	8	C4r.bmp	492	1	blank2r.bmp	786	1	GKQX	786	1	blank2r.bmp	866	5	fair	866	0	0	0	0	0	0	0	0	0	0	0	0	0	0	0	0	0	0	0	0	0	0	0	0	0	0	0	0	0	0	0	0	0
032819	09:08:41	09:11:34	169622	5.0.10.0	4_exp_AWA_CON_EVA_AMP	190	Rpleas_acq	Same	Rpleas	Bmasked	CS_B	2pleas	distractor2	CONbeforeEVA	acq_new_unple_masked	acq1_masked	1	14	0	0	300	300	0	0	557	46	0	1	0	0	0	1	blank2r.bmp	0	1	+	0	1	B1r.bmp	492	1	blank2r.bmp	786	2	B2r.bmp	786	1	blank2r.bmp	866	4	leiden	866	0	0	0	0	0	0	0	0	0	0	0	0	0	0	0	0	0	0	0	0	0	0	0	0	0	0	0	0	0	0	0	0	0
032819	09:08:41	09:11:37	171768	5.0.10.0	4_exp_AWA_CON_EVA_AMP	190	Rpleas_acq	Same	Rpleas	Bmasked	CS_B	2pleas	distractor2	CONbeforeEVA	acq_US_pleas_masked	acq1_masked	1	15	0	0	300	300	0	0	653	50	0	1	0	0	0	1	blank2r.bmp	0	1	+	0	2	B2r.bmp	492	1	blank2r.bmp	786	1	GKQX	786	1	blank2r.bmp	866	4	loyal	866	0	0	0	0	0	0	0	0	0	0	0	0	0	0	0	0	0	0	0	0	0	0	0	0	0	0	0	0	0	0	0	0	0
032819	09:08:41	09:11:39	173820	5.0.10.0	4_exp_AWA_CON_EVA_AMP	190	Rpleas_acq	Same	Rpleas	Bmasked	CS_B	2pleas	distractor2	CONbeforeEVA	acq_new_pleas_masked	acq1_masked	1	16	0	0	300	300	0	0	583	50	0	1	0	0	0	1	blank2r.bmp	0	1	+	0	7	C3r.bmp	492	1	blank2r.bmp	786	1	B1r.bmp	786	1	blank2r.bmp	866	3	spielen	866	0	0	0	0	0	0	0	0	0	0	0	0	0	0	0	0	0	0	0	0	0	0	0	0	0	0	0	0	0	0	0	0	0
032819	09:08:41	09:11:41	175993	5.0.10.0	4_exp_AWA_CON_EVA_AMP	190	Rpleas_acq	Same	Rpleas	Bmasked	CS_B	2pleas	distractor2	CONbeforeEVA	acq_new_pleas_masked	acq1_masked	1	17	0	0	300	300	0	0	697	50	0	1	0	0	0	1	blank2r.bmp	0	1	+	0	1	B1r.bmp	492	1	blank2r.bmp	786	8	C4r.bmp	786	1	blank2r.bmp	866	6	schlau	866	0	0	0	0	0	0	0	0	0	0	0	0	0	0	0	0	0	0	0	0	0	0	0	0	0	0	0	0	0	0	0	0	0
032819	09:08:41	09:11:43	178285	5.0.10.0	4_exp_AWA_CON_EVA_AMP	190	Rpleas_acq	Same	Rpleas	Bmasked	CS_B	2pleas	distractor2	CONbeforeEVA	acq_new_unple_masked	acq1_masked	1	18	0	0	300	300	0	0	817	46	0	1	0	0	0	1	blank2r.bmp	0	1	+	0	3	B3r.bmp	492	1	blank2r.bmp	786	7	C3r.bmp	786	1	blank2r.bmp	866	5	rächen	866	0	0	0	0	0	0	0	0	0	0	0	0	0	0	0	0	0	0	0	0	0	0	0	0	0	0	0	0	0	0	0	0	0
032819	09:08:41	09:11:45	180404	5.0.10.0	4_exp_AWA_CON_EVA_AMP	190	Rpleas_acq	Same	Rpleas	Bmasked	CS_B	2pleas	distractor2	CONbeforeEVA	acq_US_unple_masked	acq1_masked	1	19	0	0	300	300	0	0	641	46	0	1	0	0	0	1	blank2r.bmp	0	1	+	0	2	B2r.bmp	492	1	blank2r.bmp	786	1	BMVZ	786	1	blank2r.bmp	866	3	hindern	866	0	0	0	0	0	0	0	0	0	0	0	0	0	0	0	0	0	0	0	0	0	0	0	0	0	0	0	0	0	0	0	0	0
032819	09:08:41	09:11:47	182537	5.0.10.0	4_exp_AWA_CON_EVA_AMP	190	Rpleas_acq	Same	Rpleas	Bmasked	CS_B	2pleas	distractor2	CONbeforeEVA	acq_new_pleas_masked	acq1_masked	1	20	0	0	300	300	0	0	651	50	0	1	0	0	0	1	blank2r.bmp	0	1	+	0	4	B4r.bmp	492	1	blank2r.bmp	786	3	B3r.bmp	786	1	blank2r.bmp	866	4	lachen	866	0	0	0	0	0	0	0	0	0	0	0	0	0	0	0	0	0	0	0	0	0	0	0	0	0	0	0	0	0	0	0	0	0
032819	09:08:41	09:11:49	184496	5.0.10.0	4_exp_AWA_CON_EVA_AMP	190	Rpleas_acq	Same	Rpleas	Bmasked	CS_B	2pleas	distractor2	CONbeforeEVA	acq_US_unple_masked	acq1_masked	1	21	0	0	300	300	0	0	485	46	0	1	0	0	0	1	blank2r.bmp	0	1	+	0	7	C3r.bmp	492	1	blank2r.bmp	786	1	BMVZ	786	1	blank2r.bmp	866	2	tot	866	0	0	0	0	0	0	0	0	0	0	0	0	0	0	0	0	0	0	0	0	0	0	0	0	0	0	0	0	0	0	0	0	0
032819	09:08:41	09:11:51	186575	5.0.10.0	4_exp_AWA_CON_EVA_AMP	190	Rpleas_acq	Same	Rpleas	Bmasked	CS_B	2pleas	distractor2	CONbeforeEVA	acq_US_pleas_masked	acq1_masked	1	22	0	0	300	300	0	0	603	50	0	1	0	0	0	1	blank2r.bmp	0	1	+	0	5	C1r.bmp	492	1	blank2r.bmp	786	1	GKQX	786	1	blank2r.bmp	866	2	treu	866	0	0	0	0	0	0	0	0	0	0	0	0	0	0	0	0	0	0	0	0	0	0	0	0	0	0	0	0	0	0	0	0	0
032819	09:08:41	09:11:54	188894	5.0.10.0	4_exp_AWA_CON_EVA_AMP	190	Rpleas_acq	Same	Rpleas	Bmasked	CS_B	2pleas	distractor2	CONbeforeEVA	acq_new_unple_masked	acq1_masked	1	23	0	0	300	300	0	0	828	46	0	1	0	0	0	1	blank2r.bmp	0	1	+	0	6	C2r.bmp	492	1	blank2r.bmp	786	4	B4r.bmp	786	1	blank2r.bmp	866	2	eitel	866	0	0	0	0	0	0	0	0	0	0	0	0	0	0	0	0	0	0	0	0	0	0	0	0	0	0	0	0	0	0	0	0	0
032819	09:08:41	09:11:56	190840	5.0.10.0	4_exp_AWA_CON_EVA_AMP	190	Rpleas_acq	Same	Rpleas	Bmasked	CS_B	2pleas	distractor2	CONbeforeEVA	acq_US_unple_masked	acq1_masked	1	24	0	0	300	300	0	0	469	46	0	1	0	0	0	1	blank2r.bmp	0	1	+	0	8	C4r.bmp	492	1	blank2r.bmp	786	1	BMVZ	786	1	blank2r.bmp	866	6	schlecht	866	0	0	0	0	0	0	0	0	0	0	0	0	0	0	0	0	0	0	0	0	0	0	0	0	0	0	0	0	0	0	0	0	0
032819	09:08:41	09:11:58	192893	5.0.10.0	4_exp_AWA_CON_EVA_AMP	190	Rpleas_acq	Same	Rpleas	Bmasked	CS_B	2pleas	distractor2	CONbeforeEVA	acq_new_pleas_masked	acq1_masked	1	25	0	0	300	300	0	0	583	50	0	1	0	0	0	1	blank2r.bmp	0	1	+	0	4	B4r.bmp	492	1	blank2r.bmp	786	6	C2r.bmp	786	1	blank2r.bmp	866	2	ehrlich	866	0	0	0	0	0	0	0	0	0	0	0	0	0	0	0	0	0	0	0	0	0	0	0	0	0	0	0	0	0	0	0	0	0
032819	09:08:41	09:12:00	195078	5.0.10.0	4_exp_AWA_CON_EVA_AMP	190	Rpleas_acq	Same	Rpleas	Bmasked	CS_B	2pleas	distractor2	CONbeforeEVA	acq_new_pleas_masked	acq1_masked	1	26	0	0	300	300	0	0	697	50	0	1	0	0	0	1	blank2r.bmp	0	1	+	0	5	C1r.bmp	492	1	blank2r.bmp	786	2	B2r.bmp	786	1	blank2r.bmp	866	1	tolerant	866	0	0	0	0	0	0	0	0	0	0	0	0	0	0	0	0	0	0	0	0	0	0	0	0	0	0	0	0	0	0	0	0	0
032819	09:08:41	09:12:02	197197	5.0.10.0	4_exp_AWA_CON_EVA_AMP	190	Rpleas_acq	Same	Rpleas	Bmasked	CS_B	2pleas	distractor2	CONbeforeEVA	acq_new_unple_masked	acq1_masked	1	27	0	0	300	300	0	0	635	46	0	1	0	0	0	1	blank2r.bmp	0	1	+	0	8	C4r.bmp	492	1	blank2r.bmp	786	5	C1r.bmp	786	1	blank2r.bmp	866	5	rächen	866	0	0	0	0	0	0	0	0	0	0	0	0	0	0	0	0	0	0	0	0	0	0	0	0	0	0	0	0	0	0	0	0	0
032819	09:08:41	09:12:04	199223	5.0.10.0	4_exp_AWA_CON_EVA_AMP	190	Rpleas_acq	Same	Rpleas	Bmasked	CS_B	2pleas	distractor2	CONbeforeEVA	acq_new_pleas_masked	acq1_masked	1	28	0	0	300	300	0	0	541	50	0	1	0	0	0	1	blank2r.bmp	0	1	+	0	7	C3r.bmp	492	1	blank2r.bmp	786	1	B1r.bmp	786	1	blank2r.bmp	866	3	spielen	866	0	0	0	0	0	0	0	0	0	0	0	0	0	0	0	0	0	0	0	0	0	0	0	0	0	0	0	0	0	0	0	0	0
032819	09:08:41	09:12:06	201329	5.0.10.0	4_exp_AWA_CON_EVA_AMP	190	Rpleas_acq	Same	Rpleas	Bmasked	CS_B	2pleas	distractor2	CONbeforeEVA	acq_US_pleas_masked	acq1_masked	1	29	0	0	300	300	0	0	614	50	0	1	0	0	0	1	blank2r.bmp	0	1	+	0	6	C2r.bmp	492	1	blank2r.bmp	786	1	GKQX	786	1	blank2r.bmp	866	5	fair	866	0	0	0	0	0	0	0	0	0	0	0	0	0	0	0	0	0	0	0	0	0	0	0	0	0	0	0	0	0	0	0	0	0
032819	09:08:41	09:12:08	203288	5.0.10.0	4_exp_AWA_CON_EVA_AMP	190	Rpleas_acq	Same	Rpleas	Bmasked	CS_B	2pleas	distractor2	CONbeforeEVA	acq_US_unple_masked	acq1_masked	1	30	0	0	300	300	0	0	484	46	0	1	0	0	0	1	blank2r.bmp	0	1	+	0	2	B2r.bmp	492	1	blank2r.bmp	786	1	BMVZ	786	1	blank2r.bmp	866	2	tot	866	0	0	0	0	0	0	0	0	0	0	0	0	0	0	0	0	0	0	0	0	0	0	0	0	0	0	0	0	0	0	0	0	0
032819	09:08:41	09:12:10	205354	5.0.10.0	4_exp_AWA_CON_EVA_AMP	190	Rpleas_acq	Same	Rpleas	Bmasked	CS_B	2pleas	distractor2	CONbeforeEVA	acq_new_unple_masked	acq1_masked	1	31	0	0	300	300	0	0	589	46	0	1	0	0	0	1	blank2r.bmp	0	1	+	0	1	B1r.bmp	492	1	blank2r.bmp	786	5	C1r.bmp	786	1	blank2r.bmp	866	1	tyrannisch	866	0	0	0	0	0	0	0	0	0	0	0	0	0	0	0	0	0	0	0	0	0	0	0	0	0	0	0	0	0	0	0	0	0
032819	09:08:41	09:12:12	207407	5.0.10.0	4_exp_AWA_CON_EVA_AMP	190	Rpleas_acq	Same	Rpleas	Bmasked	CS_B	2pleas	distractor2	CONbeforeEVA	acq_US_pleas_masked	acq1_masked	1	32	0	0	300	300	0	0	578	50	0	1	0	0	0	1	blank2r.bmp	0	1	+	0	3	B3r.bmp	492	1	blank2r.bmp	786	1	GKQX	786	1	blank2r.bmp	866	1	freundlich	866	0	0	0	0	0	0	0	0	0	0	0	0	0	0	0	0	0	0	0	0	0	0	0	0	0	0	0	0	0	0	0	0	0
032819	09:08:41	09:12:15	209952	5.0.10.0	4_exp_AWA_CON_EVA_AMP	190	Rpleas_acq	Same	Rpleas	Bmasked	CS_B	2pleas	distractor2	CONbeforeEVA	acq_US_unple_masked	acq1_masked	1	33	0	0	300	300	0	0	1066	46	0	1	0	0	0	1	blank2r.bmp	0	1	+	0	5	C1r.bmp	492	1	blank2r.bmp	786	1	BMVZ	786	1	blank2r.bmp	866	1	fanatisch	866	0	0	0	0	0	0	0	0	0	0	0	0	0	0	0	0	0	0	0	0	0	0	0	0	0	0	0	0	0	0	0	0	0
032819	09:08:41	09:12:17	212005	5.0.10.0	4_exp_AWA_CON_EVA_AMP	190	Rpleas_acq	Same	Rpleas	Bmasked	CS_B	2pleas	distractor2	CONbeforeEVA	acq_US_pleas_masked	acq1_masked	1	34	0	0	300	300	0	0	574	50	0	1	0	0	0	1	blank2r.bmp	0	1	+	0	3	B3r.bmp	492	1	blank2r.bmp	786	1	GKQX	786	1	blank2r.bmp	866	4	loyal	866	0	0	0	0	0	0	0	0	0	0	0	0	0	0	0	0	0	0	0	0	0	0	0	0	0	0	0	0	0	0	0	0	0
032819	09:08:41	09:12:19	214044	5.0.10.0	4_exp_AWA_CON_EVA_AMP	190	Rpleas_acq	Same	Rpleas	Bmasked	CS_B	2pleas	distractor2	CONbeforeEVA	acq_US_unple_masked	acq1_masked	1	35	0	0	300	300	0	0	546	46	0	1	0	0	0	1	blank2r.bmp	0	1	+	0	6	C2r.bmp	492	1	blank2r.bmp	786	1	BMVZ	786	1	blank2r.bmp	866	6	schlecht	866	0	0	0	0	0	0	0	0	0	0	0	0	0	0	0	0	0	0	0	0	0	0	0	0	0	0	0	0	0	0	0	0	0
032819	09:08:41	09:12:21	216136	5.0.10.0	4_exp_AWA_CON_EVA_AMP	190	Rpleas_acq	Same	Rpleas	Bmasked	CS_B	2pleas	distractor2	CONbeforeEVA	acq_new_unple_masked	acq1_masked	1	36	0	0	300	300	0	0	615	46	0	1	0	0	0	1	blank2r.bmp	0	1	+	0	8	C4r.bmp	492	1	blank2r.bmp	786	6	C2r.bmp	786	1	blank2r.bmp	866	4	leiden	866	0	0	0	0	0	0	0	0	0	0	0	0	0	0	0	0	0	0	0	0	0	0	0	0	0	0	0	0	0	0	0	0	0
032819	09:08:41	09:12:57	251882	5.0.10.0	4_exp_AWA_CON_EVA_AMP	190	Rpleas_acq	Same	Rpleas	Bmasked	CS_B	2pleas	distractor2	CONbeforeEVA	acq_US_pleas_masked	acq2_masked	2	1	480	0	300	300	0	0	743	50	0	1	0	0	0	1	blank2r.bmp	0	1	+	0	1	B1r.bmp	492	1	blank2r.bmp	786	1	GKQX	786	1	blank2r.bmp	866	6	schön	866	1	!	1319	1	!	-1	0	0	0	0	0	0	0	0	0	0	0	0	0	0	0	0	0	0	0	0	0	0	0	0	0	0	0
032819	09:08:41	09:12:59	254187	5.0.10.0	4_exp_AWA_CON_EVA_AMP	190	Rpleas_acq	Same	Rpleas	Bmasked	CS_B	2pleas	distractor2	CONbeforeEVA	acq_new_pleas_masked	acq2_masked	2	2	480	1	300	300	0	0	497	50	0	1	0	0	0	1	blank2r.bmp	0	1	+	0	4	B4r.bmp	492	1	blank2r.bmp	786	1	B1r.bmp	786	1	blank2r.bmp	866	4	lachen	866	1	!	1319	1	!	1399	0	0	0	0	0	0	0	0	0	0	0	0	0	0	0	0	0	0	0	0	0	0	0	0	0	0	0
032819	09:08:41	09:13:01	256546	5.0.10.0	4_exp_AWA_CON_EVA_AMP	190	Rpleas_acq	Same	Rpleas	Bmasked	CS_B	2pleas	distractor2	CONbeforeEVA	acq_new_unple_masked	acq2_masked	2	3	480	0	300	300	0	0	358	50	0	0	0	0	0	1	blank2r.bmp	0	1	+	0	7	C3r.bmp	492	1	blank2r.bmp	786	3	B3r.bmp	786	1	blank2r.bmp	866	6	schroff	866	1	FEHLER	1572	1	!	-1	1	!	-1	0	0	0	0	0	0	0	0	0	0	0	0	0	0	0	0	0	0	0	0	0	0	0	0
032819	09:08:41	09:13:04	258812	5.0.10.0	4_exp_AWA_CON_EVA_AMP	190	Rpleas_acq	Same	Rpleas	Bmasked	CS_B	2pleas	distractor2	CONbeforeEVA	acq_US_unple_masked	acq2_masked	2	4	480	1	300	300	0	0	476	50	0	0	0	0	0	1	blank2r.bmp	0	1	+	0	2	B2r.bmp	492	1	blank2r.bmp	786	1	BMVZ	786	1	blank2r.bmp	866	3	hindern	866	1	FEHLER	1692	1	!	1319	1	!	1372	0	0	0	0	0	0	0	0	0	0	0	0	0	0	0	0	0	0	0	0	0	0	0	0
032819	09:08:41	09:13:06	260918	5.0.10.0	4_exp_AWA_CON_EVA_AMP	190	Rpleas_acq	Same	Rpleas	Bmasked	CS_B	2pleas	distractor2	CONbeforeEVA	acq_new_unple_masked	acq2_masked	2	5	480	1	300	300	0	0	527	46	0	1	0	0	0	1	blank2r.bmp	0	1	+	0	2	B2r.bmp	492	1	blank2r.bmp	786	8	C4r.bmp	786	1	blank2r.bmp	866	3	strafen	866	1	!	1319	1	!	1426	0	0	0	0	0	0	0	0	0	0	0	0	0	0	0	0	0	0	0	0	0	0	0	0	0	0	0
032819	09:08:41	09:13:08	263144	5.0.10.0	4_exp_AWA_CON_EVA_AMP	190	Rpleas_acq	Same	Rpleas	Bmasked	CS_B	2pleas	distractor2	CONbeforeEVA	acq_US_pleas_masked	acq2_masked	2	6	480	1	300	300	0	0	426	50	0	1	0	0	0	1	blank2r.bmp	0	1	+	0	5	C1r.bmp	492	1	blank2r.bmp	786	1	GKQX	786	1	blank2r.bmp	866	3	helfen	866	1	!	1319	1	!	1332	0	0	0	0	0	0	0	0	0	0	0	0	0	0	0	0	0	0	0	0	0	0	0	0	0	0	0
032819	09:08:41	09:13:10	265329	5.0.10.0	4_exp_AWA_CON_EVA_AMP	190	Rpleas_acq	Same	Rpleas	Bmasked	CS_B	2pleas	distractor2	CONbeforeEVA	acq_US_unple_masked	acq2_masked	2	7	480	0	300	300	0	0	399	46	0	1	0	0	0	1	blank2r.bmp	0	1	+	0	3	B3r.bmp	492	1	blank2r.bmp	786	1	BMVZ	786	1	blank2r.bmp	866	5	faul	866	1	!	-1	1	!	-1	0	0	0	0	0	0	0	0	0	0	0	0	0	0	0	0	0	0	0	0	0	0	0	0	0	0	0
032819	09:08:41	09:13:12	267595	5.0.10.0	4_exp_AWA_CON_EVA_AMP	190	Rpleas_acq	Same	Rpleas	Bmasked	CS_B	2pleas	distractor2	CONbeforeEVA	acq_new_pleas_masked	acq2_masked	2	8	480	1	300	300	0	0	442	50	0	1	0	0	0	1	blank2r.bmp	0	1	+	0	7	C3r.bmp	492	1	blank2r.bmp	786	4	B4r.bmp	786	1	blank2r.bmp	866	5	retten	866	1	!	1319	1	!	1346	0	0	0	0	0	0	0	0	0	0	0	0	0	0	0	0	0	0	0	0	0	0	0	0	0	0	0
032819	09:08:41	09:13:14	269701	5.0.10.0	4_exp_AWA_CON_EVA_AMP	190	Rpleas_acq	Same	Rpleas	Bmasked	CS_B	2pleas	distractor2	CONbeforeEVA	acq_US_pleas_masked	acq2_masked	2	9	480	0	300	300	0	0	334	50	0	1	0	0	0	1	blank2r.bmp	0	1	+	0	8	C4r.bmp	492	1	blank2r.bmp	786	1	GKQX	786	1	blank2r.bmp	866	2	treu	866	1	!	-1	1	!	-1	0	0	0	0	0	0	0	0	0	0	0	0	0	0	0	0	0	0	0	0	0	0	0	0	0	0	0
032819	09:08:41	09:13:17	271993	5.0.10.0	4_exp_AWA_CON_EVA_AMP	190	Rpleas_acq	Same	Rpleas	Bmasked	CS_B	2pleas	distractor2	CONbeforeEVA	acq_US_unple_masked	acq2_masked	2	10	480	1	300	300	0	0	488	46	0	1	0	0	0	1	blank2r.bmp	0	1	+	0	6	C2r.bmp	492	1	blank2r.bmp	786	1	BMVZ	786	1	blank2r.bmp	866	4	lasch	866	1	!	1319	1	!	1386	0	0	0	0	0	0	0	0	0	0	0	0	0	0	0	0	0	0	0	0	0	0	0	0	0	0	0
032819	09:08:41	09:13:19	274446	5.0.10.0	4_exp_AWA_CON_EVA_AMP	190	Rpleas_acq	Same	Rpleas	Bmasked	CS_B	2pleas	distractor2	CONbeforeEVA	acq_new_pleas_masked	acq2_masked	2	11	480	1	300	300	0	0	440	46	0	0	0	0	0	1	blank2r.bmp	0	1	+	0	4	B4r.bmp	492	1	blank2r.bmp	786	2	B2r.bmp	786	1	blank2r.bmp	866	6	schlau	866	1	FEHLER	1665	1	!	1319	1	!	1346	0	0	0	0	0	0	0	0	0	0	0	0	0	0	0	0	0	0	0	0	0	0	0	0
032819	09:08:41	09:13:21	276525	5.0.10.0	4_exp_AWA_CON_EVA_AMP	190	Rpleas_acq	Same	Rpleas	Bmasked	CS_B	2pleas	distractor2	CONbeforeEVA	acq_new_unple_masked	acq2_masked	2	12	480	1	300	300	0	0	495	46	0	1	0	0	0	1	blank2r.bmp	0	1	+	0	1	B1r.bmp	492	1	blank2r.bmp	786	7	C3r.bmp	786	1	blank2r.bmp	866	2	eitel	866	1	!	1319	1	!	1399	0	0	0	0	0	0	0	0	0	0	0	0	0	0	0	0	0	0	0	0	0	0	0	0	0	0	0
032819	09:08:41	09:13:24	278964	5.0.10.0	4_exp_AWA_CON_EVA_AMP	190	Rpleas_acq	Same	Rpleas	Bmasked	CS_B	2pleas	distractor2	CONbeforeEVA	acq_new_pleas_masked	acq2_masked	2	13	480	1	300	300	0	0	427	46	0	0	0	0	0	1	blank2r.bmp	0	1	+	0	7	C3r.bmp	492	1	blank2r.bmp	786	4	B4r.bmp	786	1	blank2r.bmp	866	2	ehrlich	866	1	FEHLER	1652	1	!	1319	1	!	1332	0	0	0	0	0	0	0	0	0	0	0	0	0	0	0	0	0	0	0	0	0	0	0	0
032819	09:08:41	09:13:26	281056	5.0.10.0	4_exp_AWA_CON_EVA_AMP	190	Rpleas_acq	Same	Rpleas	Bmasked	CS_B	2pleas	distractor2	CONbeforeEVA	acq_US_unple_masked	acq2_masked	2	14	480	1	300	300	0	0	512	46	0	1	0	0	0	1	blank2r.bmp	0	1	+	0	2	B2r.bmp	492	1	blank2r.bmp	786	1	BMVZ	786	1	blank2r.bmp	866	3	hindern	866	1	!	1319	1	!	1412	0	0	0	0	0	0	0	0	0	0	0	0	0	0	0	0	0	0	0	0	0	0	0	0	0	0	0
032819	09:08:41	09:13:28	283229	5.0.10.0	4_exp_AWA_CON_EVA_AMP	190	Rpleas_acq	Same	Rpleas	Bmasked	CS_B	2pleas	distractor2	CONbeforeEVA	acq_new_pleas_masked	acq2_masked	2	15	480	0	300	300	0	0	403	50	0	1	0	0	0	1	blank2r.bmp	0	1	+	0	5	C1r.bmp	492	1	blank2r.bmp	786	6	C2r.bmp	786	1	blank2r.bmp	866	1	tolerant	866	1	!	-1	1	!	-1	0	0	0	0	0	0	0	0	0	0	0	0	0	0	0	0	0	0	0	0	0	0	0	0	0	0	0
032819	09:08:41	09:13:30	285308	5.0.10.0	4_exp_AWA_CON_EVA_AMP	190	Rpleas_acq	Same	Rpleas	Bmasked	CS_B	2pleas	distractor2	CONbeforeEVA	acq_US_pleas_masked	acq2_masked	2	16	480	0	300	300	0	0	295	50	0	1	0	0	0	1	blank2r.bmp	0	1	+	0	8	C4r.bmp	492	1	blank2r.bmp	786	1	GKQX	786	1	blank2r.bmp	866	2	treu	866	1	!	-1	1	!	-1	0	0	0	0	0	0	0	0	0	0	0	0	0	0	0	0	0	0	0	0	0	0	0	0	0	0	0
032819	09:08:41	09:13:32	287587	5.0.10.0	4_exp_AWA_CON_EVA_AMP	190	Rpleas_acq	Same	Rpleas	Bmasked	CS_B	2pleas	distractor2	CONbeforeEVA	acq_new_unple_masked	acq2_masked	2	17	480	1	300	300	0	0	471	46	0	1	0	0	0	1	blank2r.bmp	0	1	+	0	3	B3r.bmp	492	1	blank2r.bmp	786	1	B1r.bmp	786	1	blank2r.bmp	866	1	tyrannisch	866	1	!	1319	1	!	1372	0	0	0	0	0	0	0	0	0	0	0	0	0	0	0	0	0	0	0	0	0	0	0	0	0	0	0
032819	09:08:41	09:13:34	289693	5.0.10.0	4_exp_AWA_CON_EVA_AMP	190	Rpleas_acq	Same	Rpleas	Bmasked	CS_B	2pleas	distractor2	CONbeforeEVA	acq_new_pleas_masked	acq2_masked	2	18	480	0	300	300	0	0	340	50	0	1	0	0	0	1	blank2r.bmp	0	1	+	0	1	B1r.bmp	492	1	blank2r.bmp	786	7	C3r.bmp	786	1	blank2r.bmp	866	4	lachen	866	1	!	-1	1	!	-1	0	0	0	0	0	0	0	0	0	0	0	0	0	0	0	0	0	0	0	0	0	0	0	0	0	0	0
032819	09:08:41	09:13:37	291985	5.0.10.0	4_exp_AWA_CON_EVA_AMP	190	Rpleas_acq	Same	Rpleas	Bmasked	CS_B	2pleas	distractor2	CONbeforeEVA	acq_US_unple_masked	acq2_masked	2	19	480	1	300	300	0	0	488	46	0	1	0	0	0	1	blank2r.bmp	0	1	+	0	6	C2r.bmp	492	1	blank2r.bmp	786	1	BMVZ	786	1	blank2r.bmp	866	2	tot	866	1	!	1319	1	!	1386	0	0	0	0	0	0	0	0	0	0	0	0	0	0	0	0	0	0	0	0	0	0	0	0	0	0	0
032819	09:08:41	09:13:39	294424	5.0.10.0	4_exp_AWA_CON_EVA_AMP	190	Rpleas_acq	Same	Rpleas	Bmasked	CS_B	2pleas	distractor2	CONbeforeEVA	acq_new_unple_masked	acq2_masked	2	20	480	1	300	300	0	0	430	50	0	0	0	0	0	1	blank2r.bmp	0	1	+	0	4	B4r.bmp	492	1	blank2r.bmp	786	8	C4r.bmp	786	1	blank2r.bmp	866	6	schroff	866	1	FEHLER	1652	1	!	1319	1	!	1332	0	0	0	0	0	0	0	0	0	0	0	0	0	0	0	0	0	0	0	0	0	0	0	0
032819	09:08:41	09:13:41	296543	5.0.10.0	4_exp_AWA_CON_EVA_AMP	190	Rpleas_acq	Same	Rpleas	Bmasked	CS_B	2pleas	distractor2	CONbeforeEVA	acq_new_unple_masked	acq2_masked	2	21	480	0	300	300	0	0	567	46	0	1	0	0	0	1	blank2r.bmp	0	1	+	0	4	B4r.bmp	492	1	blank2r.bmp	786	3	B3r.bmp	786	1	blank2r.bmp	866	5	rächen	866	1	!	1319	1	!	-1	0	0	0	0	0	0	0	0	0	0	0	0	0	0	0	0	0	0	0	0	0	0	0	0	0	0	0
032819	09:08:41	09:13:44	298782	5.0.10.0	4_exp_AWA_CON_EVA_AMP	190	Rpleas_acq	Same	Rpleas	Bmasked	CS_B	2pleas	distractor2	CONbeforeEVA	acq_US_unple_masked	acq2_masked	2	22	480	1	300	300	0	0	437	46	0	1	0	0	0	1	blank2r.bmp	0	1	+	0	3	B3r.bmp	492	1	blank2r.bmp	786	1	BMVZ	786	1	blank2r.bmp	866	4	lasch	866	1	!	1319	1	!	1332	0	0	0	0	0	0	0	0	0	0	0	0	0	0	0	0	0	0	0	0	0	0	0	0	0	0	0
032819	09:08:41	09:13:46	301221	5.0.10.0	4_exp_AWA_CON_EVA_AMP	190	Rpleas_acq	Same	Rpleas	Bmasked	CS_B	2pleas	distractor2	CONbeforeEVA	acq_US_pleas_masked	acq2_masked	2	23	480	0	300	300	0	0	668	50	0	1	0	0	0	1	blank2r.bmp	0	1	+	0	1	B1r.bmp	492	1	blank2r.bmp	786	1	GKQX	786	1	blank2r.bmp	866	3	helfen	866	1	!	1319	1	!	-1	0	0	0	0	0	0	0	0	0	0	0	0	0	0	0	0	0	0	0	0	0	0	0	0	0	0	0
032819	09:08:41	09:13:48	303314	5.0.10.0	4_exp_AWA_CON_EVA_AMP	190	Rpleas_acq	Same	Rpleas	Bmasked	CS_B	2pleas	distractor2	CONbeforeEVA	acq_US_pleas_masked	acq2_masked	2	24	480	0	300	300	0	0	310	50	0	1	0	0	0	1	blank2r.bmp	0	1	+	0	7	C3r.bmp	492	1	blank2r.bmp	786	1	GKQX	786	1	blank2r.bmp	866	6	schön	866	1	!	-1	1	!	-1	0	0	0	0	0	0	0	0	0	0	0	0	0	0	0	0	0	0	0	0	0	0	0	0	0	0	0
032819	09:08:41	09:13:51	305753	5.0.10.0	4_exp_AWA_CON_EVA_AMP	190	Rpleas_acq	Same	Rpleas	Bmasked	CS_B	2pleas	distractor2	CONbeforeEVA	acq_US_unple_masked	acq2_masked	2	25	480	0	300	300	0	0	641	46	0	1	0	0	0	1	blank2r.bmp	0	1	+	0	6	C2r.bmp	492	1	blank2r.bmp	786	1	BMVZ	786	1	blank2r.bmp	866	6	schlecht	866	1	!	1319	1	!	-1	0	0	0	0	0	0	0	0	0	0	0	0	0	0	0	0	0	0	0	0	0	0	0	0	0	0	0
032819	09:08:41	09:13:53	307912	5.0.10.0	4_exp_AWA_CON_EVA_AMP	190	Rpleas_acq	Same	Rpleas	Bmasked	CS_B	2pleas	distractor2	CONbeforeEVA	acq_new_pleas_masked	acq2_masked	2	26	480	0	300	300	0	0	381	50	0	1	0	0	0	1	blank2r.bmp	0	1	+	0	2	B2r.bmp	492	1	blank2r.bmp	786	5	C1r.bmp	786	1	blank2r.bmp	866	3	spielen	866	1	!	-1	1	!	-1	0	0	0	0	0	0	0	0	0	0	0	0	0	0	0	0	0	0	0	0	0	0	0	0	0	0	0
032819	09:08:41	09:13:55	310257	5.0.10.0	4_exp_AWA_CON_EVA_AMP	190	Rpleas_acq	Same	Rpleas	Bmasked	CS_B	2pleas	distractor2	CONbeforeEVA	acq_US_pleas_masked	acq2_masked	2	27	480	0	300	300	0	0	559	50	0	1	0	0	0	1	blank2r.bmp	0	1	+	0	5	C1r.bmp	492	1	blank2r.bmp	786	1	GKQX	786	1	blank2r.bmp	866	1	freundlich	866	1	!	1319	1	!	-1	0	0	0	0	0	0	0	0	0	0	0	0	0	0	0	0	0	0	0	0	0	0	0	0	0	0	0
032819	09:08:41	09:13:57	312643	5.0.10.0	4_exp_AWA_CON_EVA_AMP	190	Rpleas_acq	Same	Rpleas	Bmasked	CS_B	2pleas	distractor2	CONbeforeEVA	acq_new_unple_masked	acq2_masked	2	28	480	0	300	300	0	0	588	46	0	1	0	0	0	1	blank2r.bmp	0	1	+	0	8	C4r.bmp	492	1	blank2r.bmp	786	2	B2r.bmp	786	1	blank2r.bmp	866	4	leiden	866	1	!	1319	1	!	-1	0	0	0	0	0	0	0	0	0	0	0	0	0	0	0	0	0	0	0	0	0	0	0	0	0	0	0
032819	09:08:41	09:14:00	315015	5.0.10.0	4_exp_AWA_CON_EVA_AMP	190	Rpleas_acq	Same	Rpleas	Bmasked	CS_B	2pleas	distractor2	CONbeforeEVA	acq_new_unple_masked	acq2_masked	2	29	480	0	300	300	0	0	355	50	0	0	0	0	0	1	blank2r.bmp	0	1	+	0	6	C2r.bmp	492	1	blank2r.bmp	786	3	B3r.bmp	786	1	blank2r.bmp	866	2	eitel	866	1	FEHLER	1559	1	!	-1	1	!	-1	0	0	0	0	0	0	0	0	0	0	0	0	0	0	0	0	0	0	0	0	0	0	0	0
032819	09:08:41	09:14:02	317135	5.0.10.0	4_exp_AWA_CON_EVA_AMP	190	Rpleas_acq	Same	Rpleas	Bmasked	CS_B	2pleas	distractor2	CONbeforeEVA	acq_US_unple_masked	acq2_masked	2	30	480	1	300	300	0	0	544	46	0	1	0	0	0	1	blank2r.bmp	0	1	+	0	5	C1r.bmp	492	1	blank2r.bmp	786	1	BMVZ	786	1	blank2r.bmp	866	5	faul	866	1	!	1319	1	!	1439	0	0	0	0	0	0	0	0	0	0	0	0	0	0	0	0	0	0	0	0	0	0	0	0	0	0	0
032819	09:08:41	09:14:04	319480	5.0.10.0	4_exp_AWA_CON_EVA_AMP	190	Rpleas_acq	Same	Rpleas	Bmasked	CS_B	2pleas	distractor2	CONbeforeEVA	acq_US_pleas_masked	acq2_masked	2	31	480	0	300	300	0	0	561	50	0	1	0	0	0	1	blank2r.bmp	0	1	+	0	2	B2r.bmp	492	1	blank2r.bmp	786	1	GKQX	786	1	blank2r.bmp	866	4	loyal	866	1	!	1319	1	!	-1	0	0	0	0	0	0	0	0	0	0	0	0	0	0	0	0	0	0	0	0	0	0	0	0	0	0	0
032819	09:08:41	09:14:07	321866	5.0.10.0	4_exp_AWA_CON_EVA_AMP	190	Rpleas_acq	Same	Rpleas	Bmasked	CS_B	2pleas	distractor2	CONbeforeEVA	acq_new_unple_masked	acq2_masked	2	32	480	0	300	300	0	0	601	46	0	1	0	0	0	1	blank2r.bmp	0	1	+	0	7	C3r.bmp	492	1	blank2r.bmp	786	1	B1r.bmp	786	1	blank2r.bmp	866	3	strafen	866	1	!	1319	1	!	-1	0	0	0	0	0	0	0	0	0	0	0	0	0	0	0	0	0	0	0	0	0	0	0	0	0	0	0
032819	09:08:41	09:14:09	324212	5.0.10.0	4_exp_AWA_CON_EVA_AMP	190	Rpleas_acq	Same	Rpleas	Bmasked	CS_B	2pleas	distractor2	CONbeforeEVA	acq_new_pleas_masked	acq2_masked	2	33	480	1	300	300	0	0	532	50	0	1	0	0	0	1	blank2r.bmp	0	1	+	0	4	B4r.bmp	492	1	blank2r.bmp	786	5	C1r.bmp	786	1	blank2r.bmp	866	6	schlau	866	1	!	1319	1	!	1439	0	0	0	0	0	0	0	0	0	0	0	0	0	0	0	0	0	0	0	0	0	0	0	0	0	0	0
032819	09:08:41	09:14:11	326477	5.0.10.0	4_exp_AWA_CON_EVA_AMP	190	Rpleas_acq	Same	Rpleas	Bmasked	CS_B	2pleas	distractor2	CONbeforeEVA	acq_US_pleas_masked	acq2_masked	2	34	480	1	300	300	0	0	474	50	0	1	0	0	0	1	blank2r.bmp	0	1	+	0	8	C4r.bmp	492	1	blank2r.bmp	786	1	GKQX	786	1	blank2r.bmp	866	5	fair	866	1	!	1319	1	!	1372	0	0	0	0	0	0	0	0	0	0	0	0	0	0	0	0	0	0	0	0	0	0	0	0	0	0	0
032819	09:08:41	09:14:13	328650	5.0.10.0	4_exp_AWA_CON_EVA_AMP	190	Rpleas_acq	Same	Rpleas	Bmasked	CS_B	2pleas	distractor2	CONbeforeEVA	acq_new_pleas_masked	acq2_masked	2	35	480	0	300	300	0	0	403	50	0	1	0	0	0	1	blank2r.bmp	0	1	+	0	3	B3r.bmp	492	1	blank2r.bmp	786	2	B2r.bmp	786	1	blank2r.bmp	866	5	retten	866	1	!	-1	1	!	-1	0	0	0	0	0	0	0	0	0	0	0	0	0	0	0	0	0	0	0	0	0	0	0	0	0	0	0
032819	09:08:41	09:14:16	331275	5.0.10.0	4_exp_AWA_CON_EVA_AMP	190	Rpleas_acq	Same	Rpleas	Bmasked	CS_B	2pleas	distractor2	CONbeforeEVA	acq_US_unple_masked	acq2_masked	2	36	480	0	300	300	0	0	607	50	0	0	0	0	0	1	blank2r.bmp	0	1	+	0	1	B1r.bmp	492	1	blank2r.bmp	786	1	BMVZ	786	1	blank2r.bmp	866	1	fanatisch	866	1	FEHLER	1812	1	!	1319	1	!	-1	0	0	0	0	0	0	0	0	0	0	0	0	0	0	0	0	0	0	0	0	0	0	0	0
032819	09:08:41	09:14:30	345656	5.0.10.0	4_exp_AWA_CON_EVA_AMP	190	Rpleas_acq	Same	Rpleas	Bmasked	CS_B	2pleas	distractor2	CONbeforeEVA	acq_US_unple_masked	acq3_masked	3	1	453	1	300	300	0	0	509	46	0	1	0	0	0	1	blank2r.bmp	0	1	+	0	7	C3r.bmp	492	1	blank2r.bmp	786	1	BMVZ	786	1	blank2r.bmp	866	2	tot	866	1	!	1292	1	!	1412	0	0	0	0	0	0	0	0	0	0	0	0	0	0	0	0	0	0	0	0	0	0	0	0	0	0	0
032819	09:08:41	09:14:33	347962	5.0.10.0	4_exp_AWA_CON_EVA_AMP	190	Rpleas_acq	Same	Rpleas	Bmasked	CS_B	2pleas	distractor2	CONbeforeEVA	acq_US_unple_masked	acq3_masked	3	2	453	0	300	300	0	0	545	46	0	1	0	0	0	1	blank2r.bmp	0	1	+	0	1	B1r.bmp	492	1	blank2r.bmp	786	1	BMVZ	786	1	blank2r.bmp	866	4	lasch	866	1	!	1292	1	!	-1	0	0	0	0	0	0	0	0	0	0	0	0	0	0	0	0	0	0	0	0	0	0	0	0	0	0	0
032819	09:08:41	09:14:35	350187	5.0.10.0	4_exp_AWA_CON_EVA_AMP	190	Rpleas_acq	Same	Rpleas	Bmasked	CS_B	2pleas	distractor2	CONbeforeEVA	acq_US_unple_masked	acq3_masked	3	3	453	1	300	300	0	0	412	46	0	1	0	0	0	1	blank2r.bmp	0	1	+	0	3	B3r.bmp	492	1	blank2r.bmp	786	1	BMVZ	786	1	blank2r.bmp	866	1	fanatisch	866	1	!	1292	1	!	1306	0	0	0	0	0	0	0	0	0	0	0	0	0	0	0	0	0	0	0	0	0	0	0	0	0	0	0
032819	09:08:41	09:14:37	352333	5.0.10.0	4_exp_AWA_CON_EVA_AMP	190	Rpleas_acq	Same	Rpleas	Bmasked	CS_B	2pleas	distractor2	CONbeforeEVA	acq_US_pleas_masked	acq3_masked	3	4	453	0	300	300	0	0	376	50	0	1	0	0	0	1	blank2r.bmp	0	1	+	0	5	C1r.bmp	492	1	blank2r.bmp	786	1	GKQX	786	1	blank2r.bmp	866	3	helfen	866	1	!	-1	1	!	-1	0	0	0	0	0	0	0	0	0	0	0	0	0	0	0	0	0	0	0	0	0	0	0	0	0	0	0
032819	09:08:41	09:14:39	354652	5.0.10.0	4_exp_AWA_CON_EVA_AMP	190	Rpleas_acq	Same	Rpleas	Bmasked	CS_B	2pleas	distractor2	CONbeforeEVA	acq_US_pleas_masked	acq3_masked	3	5	453	1	300	300	0	0	507	50	0	1	0	0	0	1	blank2r.bmp	0	1	+	0	4	B4r.bmp	492	1	blank2r.bmp	786	1	GKQX	786	1	blank2r.bmp	866	6	schön	866	1	!	1292	1	!	1412	0	0	0	0	0	0	0	0	0	0	0	0	0	0	0	0	0	0	0	0	0	0	0	0	0	0	0
032819	09:08:41	09:14:42	356798	5.0.10.0	4_exp_AWA_CON_EVA_AMP	190	Rpleas_acq	Same	Rpleas	Bmasked	CS_B	2pleas	distractor2	CONbeforeEVA	acq_US_unple_masked	acq3_masked	3	6	453	0	300	300	0	0	359	46	0	1	0	0	0	1	blank2r.bmp	0	1	+	0	8	C4r.bmp	492	1	blank2r.bmp	786	1	BMVZ	786	1	blank2r.bmp	866	3	hindern	866	1	!	-1	1	!	-1	0	0	0	0	0	0	0	0	0	0	0	0	0	0	0	0	0	0	0	0	0	0	0	0	0	0	0
032819	09:08:41	09:14:44	359037	5.0.10.0	4_exp_AWA_CON_EVA_AMP	190	Rpleas_acq	Same	Rpleas	Bmasked	CS_B	2pleas	distractor2	CONbeforeEVA	acq_US_pleas_masked	acq3_masked	3	7	453	1	300	300	0	0	436	50	0	1	0	0	0	1	blank2r.bmp	0	1	+	0	6	C2r.bmp	492	1	blank2r.bmp	786	1	GKQX	786	1	blank2r.bmp	866	5	fair	866	1	!	1292	1	!	1332	0	0	0	0	0	0	0	0	0	0	0	0	0	0	0	0	0	0	0	0	0	0	0	0	0	0	0
032819	09:08:41	09:14:46	361250	5.0.10.0	4_exp_AWA_CON_EVA_AMP	190	Rpleas_acq	Same	Rpleas	Bmasked	CS_B	2pleas	distractor2	CONbeforeEVA	acq_US_unple_masked	acq3_masked	3	8	453	1	300	300	0	0	401	46	0	1	0	0	0	1	blank2r.bmp	0	1	+	0	2	B2r.bmp	492	1	blank2r.bmp	786	1	BMVZ	786	1	blank2r.bmp	866	5	faul	866	1	!	1292	1	!	1306	0	0	0	0	0	0	0	0	0	0	0	0	0	0	0	0	0	0	0	0	0	0	0	0	0	0	0
032819	09:08:41	09:14:48	363462	5.0.10.0	4_exp_AWA_CON_EVA_AMP	190	Rpleas_acq	Same	Rpleas	Bmasked	CS_B	2pleas	distractor2	CONbeforeEVA	acq_US_pleas_masked	acq3_masked	3	9	453	1	300	300	0	0	412	50	0	1	0	0	0	1	blank2r.bmp	0	1	+	0	3	B3r.bmp	492	1	blank2r.bmp	786	1	GKQX	786	1	blank2r.bmp	866	1	freundlich	866	1	!	1292	1	!	1306	0	0	0	0	0	0	0	0	0	0	0	0	0	0	0	0	0	0	0	0	0	0	0	0	0	0	0
032819	09:08:41	09:14:51	365834	5.0.10.0	4_exp_AWA_CON_EVA_AMP	190	Rpleas_acq	Same	Rpleas	Bmasked	CS_B	2pleas	distractor2	CONbeforeEVA	acq_US_unple_masked	acq3_masked	3	10	453	0	300	300	0	0	376	50	0	0	0	0	0	1	blank2r.bmp	0	1	+	0	2	B2r.bmp	492	1	blank2r.bmp	786	1	BMVZ	786	1	blank2r.bmp	866	6	schlecht	866	1	FEHLER	1586	1	!	-1	1	!	-1	0	0	0	0	0	0	0	0	0	0	0	0	0	0	0	0	0	0	0	0	0	0	0	0
032819	09:08:41	09:14:53	367820	5.0.10.0	4_exp_AWA_CON_EVA_AMP	190	Rpleas_acq	Same	Rpleas	Bmasked	CS_B	2pleas	distractor2	CONbeforeEVA	acq_US_pleas_masked	acq3_masked	3	11	453	1	300	300	0	0	401	50	0	1	0	0	0	1	blank2r.bmp	0	1	+	0	1	B1r.bmp	492	1	blank2r.bmp	786	1	GKQX	786	1	blank2r.bmp	866	2	treu	866	1	!	1292	1	!	1306	0	0	0	0	0	0	0	0	0	0	0	0	0	0	0	0	0	0	0	0	0	0	0	0	0	0	0
032819	09:08:41	09:14:55	370046	5.0.10.0	4_exp_AWA_CON_EVA_AMP	190	Rpleas_acq	Same	Rpleas	Bmasked	CS_B	2pleas	distractor2	CONbeforeEVA	acq_US_pleas_masked	acq3_masked	3	12	453	1	300	300	0	0	432	50	0	1	0	0	0	1	blank2r.bmp	0	1	+	0	6	C2r.bmp	492	1	blank2r.bmp	786	1	GKQX	786	1	blank2r.bmp	866	4	loyal	866	1	!	1292	1	!	1332	0	0	0	0	0	0	0	0	0	0	0	0	0	0	0	0	0	0	0	0	0	0	0	0	0	0	0
032819	09:08:41	09:14:57	372272	5.0.10.0	4_exp_AWA_CON_EVA_AMP	190	Rpleas_acq	Same	Rpleas	Bmasked	CS_B	2pleas	distractor2	CONbeforeEVA	acq_US_unple_masked	acq3_masked	3	13	453	1	300	300	0	0	437	46	0	1	0	0	0	1	blank2r.bmp	0	1	+	0	7	C3r.bmp	492	1	blank2r.bmp	786	1	BMVZ	786	1	blank2r.bmp	866	3	hindern	866	1	!	1292	1	!	1332	0	0	0	0	0	0	0	0	0	0	0	0	0	0	0	0	0	0	0	0	0	0	0	0	0	0	0
032819	09:08:41	09:14:59	374484	5.0.10.0	4_exp_AWA_CON_EVA_AMP	190	Rpleas_acq	Same	Rpleas	Bmasked	CS_B	2pleas	distractor2	CONbeforeEVA	acq_US_pleas_masked	acq3_masked	3	14	453	1	300	300	0	0	421	50	0	1	0	0	0	1	blank2r.bmp	0	1	+	0	8	C4r.bmp	492	1	blank2r.bmp	786	1	GKQX	786	1	blank2r.bmp	866	3	helfen	866	1	!	1292	1	!	1319	0	0	0	0	0	0	0	0	0	0	0	0	0	0	0	0	0	0	0	0	0	0	0	0	0	0	0
032819	09:08:41	09:15:02	376777	5.0.10.0	4_exp_AWA_CON_EVA_AMP	190	Rpleas_acq	Same	Rpleas	Bmasked	CS_B	2pleas	distractor2	CONbeforeEVA	acq_US_unple_masked	acq3_masked	3	15	453	1	300	300	0	0	504	46	0	1	0	0	0	1	blank2r.bmp	0	1	+	0	4	B4r.bmp	492	1	blank2r.bmp	786	1	BMVZ	786	1	blank2r.bmp	866	6	schlecht	866	1	!	1292	1	!	1399	0	0	0	0	0	0	0	0	0	0	0	0	0	0	0	0	0	0	0	0	0	0	0	0	0	0	0
032819	09:08:41	09:15:04	379202	5.0.10.0	4_exp_AWA_CON_EVA_AMP	190	Rpleas_acq	Same	Rpleas	Bmasked	CS_B	2pleas	distractor2	CONbeforeEVA	acq_US_pleas_masked	acq3_masked	3	16	453	1	300	300	0	0	412	46	0	0	0	0	0	1	blank2r.bmp	0	1	+	0	5	C1r.bmp	492	1	blank2r.bmp	786	1	GKQX	786	1	blank2r.bmp	866	5	fair	866	1	FEHLER	1639	1	!	1292	1	!	1319	0	0	0	0	0	0	0	0	0	0	0	0	0	0	0	0	0	0	0	0	0	0	0	0
032819	09:08:41	09:15:06	381228	5.0.10.0	4_exp_AWA_CON_EVA_AMP	190	Rpleas_acq	Same	Rpleas	Bmasked	CS_B	2pleas	distractor2	CONbeforeEVA	acq_US_pleas_masked	acq3_masked	3	17	453	1	300	300	0	0	434	50	0	1	0	0	0	1	blank2r.bmp	0	1	+	0	7	C3r.bmp	492	1	blank2r.bmp	786	1	GKQX	786	1	blank2r.bmp	866	2	treu	866	1	!	1292	1	!	1332	0	0	0	0	0	0	0	0	0	0	0	0	0	0	0	0	0	0	0	0	0	0	0	0	0	0	0
032819	09:08:41	09:15:08	383534	5.0.10.0	4_exp_AWA_CON_EVA_AMP	190	Rpleas_acq	Same	Rpleas	Bmasked	CS_B	2pleas	distractor2	CONbeforeEVA	acq_US_pleas_masked	acq3_masked	3	18	453	0	300	300	0	0	536	50	0	1	0	0	0	1	blank2r.bmp	0	1	+	0	3	B3r.bmp	492	1	blank2r.bmp	786	1	GKQX	786	1	blank2r.bmp	866	6	schön	866	1	!	1292	1	!	-1	0	0	0	0	0	0	0	0	0	0	0	0	0	0	0	0	0	0	0	0	0	0	0	0	0	0	0
032819	09:08:41	09:15:10	385666	5.0.10.0	4_exp_AWA_CON_EVA_AMP	190	Rpleas_acq	Same	Rpleas	Bmasked	CS_B	2pleas	distractor2	CONbeforeEVA	acq_US_unple_masked	acq3_masked	3	19	453	0	300	300	0	0	350	46	0	1	0	0	0	1	blank2r.bmp	0	1	+	0	6	C2r.bmp	492	1	blank2r.bmp	786	1	BMVZ	786	1	blank2r.bmp	866	2	tot	866	1	!	-1	1	!	-1	0	0	0	0	0	0	0	0	0	0	0	0	0	0	0	0	0	0	0	0	0	0	0	0	0	0	0
032819	09:08:41	09:15:13	387905	5.0.10.0	4_exp_AWA_CON_EVA_AMP	190	Rpleas_acq	Same	Rpleas	Bmasked	CS_B	2pleas	distractor2	CONbeforeEVA	acq_US_unple_masked	acq3_masked	3	20	453	1	300	300	0	0	417	46	0	1	0	0	0	1	blank2r.bmp	0	1	+	0	8	C4r.bmp	492	1	blank2r.bmp	786	1	BMVZ	786	1	blank2r.bmp	866	1	fanatisch	866	1	!	1292	1	!	1319	0	0	0	0	0	0	0	0	0	0	0	0	0	0	0	0	0	0	0	0	0	0	0	0	0	0	0
032819	09:08:41	09:15:15	390104	5.0.10.0	4_exp_AWA_CON_EVA_AMP	190	Rpleas_acq	Same	Rpleas	Bmasked	CS_B	2pleas	distractor2	CONbeforeEVA	acq_US_pleas_masked	acq3_masked	3	21	453	1	300	300	0	0	405	50	0	1	0	0	0	1	blank2r.bmp	0	1	+	0	2	B2r.bmp	492	1	blank2r.bmp	786	1	GKQX	786	1	blank2r.bmp	866	4	loyal	866	1	!	1292	1	!	1306	0	0	0	0	0	0	0	0	0	0	0	0	0	0	0	0	0	0	0	0	0	0	0	0	0	0	0
032819	09:08:41	09:15:17	392530	5.0.10.0	4_exp_AWA_CON_EVA_AMP	190	Rpleas_acq	Same	Rpleas	Bmasked	CS_B	2pleas	distractor2	CONbeforeEVA	acq_US_unple_masked	acq3_masked	3	22	453	1	300	300	0	0	412	50	0	0	0	0	0	1	blank2r.bmp	0	1	+	0	4	B4r.bmp	492	1	blank2r.bmp	786	1	BMVZ	786	1	blank2r.bmp	866	5	faul	866	1	FEHLER	1639	1	!	1292	1	!	1319	0	0	0	0	0	0	0	0	0	0	0	0	0	0	0	0	0	0	0	0	0	0	0	0
032819	09:08:41	09:15:19	394689	5.0.10.0	4_exp_AWA_CON_EVA_AMP	190	Rpleas_acq	Same	Rpleas	Bmasked	CS_B	2pleas	distractor2	CONbeforeEVA	acq_US_unple_masked	acq3_masked	3	23	453	0	300	300	0	0	375	50	0	0	0	0	0	1	blank2r.bmp	0	1	+	0	5	C1r.bmp	492	1	blank2r.bmp	786	1	BMVZ	786	1	blank2r.bmp	866	4	lasch	866	1	FEHLER	1586	1	!	-1	1	!	-1	0	0	0	0	0	0	0	0	0	0	0	0	0	0	0	0	0	0	0	0	0	0	0	0
032819	09:08:41	09:15:21	396675	5.0.10.0	4_exp_AWA_CON_EVA_AMP	190	Rpleas_acq	Same	Rpleas	Bmasked	CS_B	2pleas	distractor2	CONbeforeEVA	acq_US_pleas_masked	acq3_masked	3	24	453	1	300	300	0	0	410	50	0	1	0	0	0	1	blank2r.bmp	0	1	+	0	1	B1r.bmp	492	1	blank2r.bmp	786	1	GKQX	786	1	blank2r.bmp	866	1	freundlich	866	1	!	1292	1	!	1306	0	0	0	0	0	0	0	0	0	0	0	0	0	0	0	0	0	0	0	0	0	0	0	0	0	0	0
032819	09:08:41	09:15:24	398874	5.0.10.0	4_exp_AWA_CON_EVA_AMP	190	Rpleas_acq	Same	Rpleas	Bmasked	CS_B	2pleas	distractor2	CONbeforeEVA	acq_US_unple_masked	acq3_masked	3	25	453	1	300	300	0	0	408	46	0	1	0	0	0	1	blank2r.bmp	0	1	+	0	5	C1r.bmp	492	1	blank2r.bmp	786	1	BMVZ	786	1	blank2r.bmp	866	3	hindern	866	1	!	1292	1	!	1306	0	0	0	0	0	0	0	0	0	0	0	0	0	0	0	0	0	0	0	0	0	0	0	0	0	0	0
032819	09:08:41	09:15:26	401020	5.0.10.0	4_exp_AWA_CON_EVA_AMP	190	Rpleas_acq	Same	Rpleas	Bmasked	CS_B	2pleas	distractor2	CONbeforeEVA	acq_US_unple_masked	acq3_masked	3	26	453	0	300	300	0	0	375	46	0	1	0	0	0	1	blank2r.bmp	0	1	+	0	7	C3r.bmp	492	1	blank2r.bmp	786	1	BMVZ	786	1	blank2r.bmp	866	4	lasch	866	1	!	-1	1	!	-1	0	0	0	0	0	0	0	0	0	0	0	0	0	0	0	0	0	0	0	0	0	0	0	0	0	0	0
032819	09:08:41	09:15:28	403259	5.0.10.0	4_exp_AWA_CON_EVA_AMP	190	Rpleas_acq	Same	Rpleas	Bmasked	CS_B	2pleas	distractor2	CONbeforeEVA	acq_US_unple_masked	acq3_masked	3	27	453	1	300	300	0	0	428	46	0	1	0	0	0	1	blank2r.bmp	0	1	+	0	4	B4r.bmp	492	1	blank2r.bmp	786	1	BMVZ	786	1	blank2r.bmp	866	6	schlecht	866	1	!	1292	1	!	1332	0	0	0	0	0	0	0	0	0	0	0	0	0	0	0	0	0	0	0	0	0	0	0	0	0	0	0
032819	09:08:41	09:15:30	405458	5.0.10.0	4_exp_AWA_CON_EVA_AMP	190	Rpleas_acq	Same	Rpleas	Bmasked	CS_B	2pleas	distractor2	CONbeforeEVA	acq_US_unple_masked	acq3_masked	3	28	453	1	300	300	0	0	400	46	0	1	0	0	0	1	blank2r.bmp	0	1	+	0	6	C2r.bmp	492	1	blank2r.bmp	786	1	BMVZ	786	1	blank2r.bmp	866	1	fanatisch	866	1	!	1292	1	!	1306	0	0	0	0	0	0	0	0	0	0	0	0	0	0	0	0	0	0	0	0	0	0	0	0	0	0	0
032819	09:08:41	09:15:32	407590	5.0.10.0	4_exp_AWA_CON_EVA_AMP	190	Rpleas_acq	Same	Rpleas	Bmasked	CS_B	2pleas	distractor2	CONbeforeEVA	acq_US_unple_masked	acq3_masked	3	29	453	0	300	300	0	0	362	46	0	1	0	0	0	1	blank2r.bmp	0	1	+	0	3	B3r.bmp	492	1	blank2r.bmp	786	1	BMVZ	786	1	blank2r.bmp	866	2	tot	866	1	!	-1	1	!	-1	0	0	0	0	0	0	0	0	0	0	0	0	0	0	0	0	0	0	0	0	0	0	0	0	0	0	0
032819	09:08:41	09:15:35	409856	5.0.10.0	4_exp_AWA_CON_EVA_AMP	190	Rpleas_acq	Same	Rpleas	Bmasked	CS_B	2pleas	distractor2	CONbeforeEVA	acq_US_pleas_masked	acq3_masked	3	30	453	1	300	300	0	0	462	50	0	1	0	0	0	1	blank2r.bmp	0	1	+	0	8	C4r.bmp	492	1	blank2r.bmp	786	1	GKQX	786	1	blank2r.bmp	866	5	fair	866	1	!	1292	1	!	1359	0	0	0	0	0	0	0	0	0	0	0	0	0	0	0	0	0	0	0	0	0	0	0	0	0	0	0
032819	09:08:41	09:15:37	412295	5.0.10.0	4_exp_AWA_CON_EVA_AMP	190	Rpleas_acq	Same	Rpleas	Bmasked	CS_B	2pleas	distractor2	CONbeforeEVA	acq_US_pleas_masked	acq3_masked	3	31	453	1	300	300	0	0	428	46	0	0	0	0	0	1	blank2r.bmp	0	1	+	0	1	B1r.bmp	492	1	blank2r.bmp	786	1	GKQX	786	1	blank2r.bmp	866	2	treu	866	1	FEHLER	1652	1	!	1292	1	!	1332	0	0	0	0	0	0	0	0	0	0	0	0	0	0	0	0	0	0	0	0	0	0	0	0
032819	09:08:41	09:15:39	414228	5.0.10.0	4_exp_AWA_CON_EVA_AMP	190	Rpleas_acq	Same	Rpleas	Bmasked	CS_B	2pleas	distractor2	CONbeforeEVA	acq_US_unple_masked	acq3_masked	3	32	453	0	300	300	0	0	383	46	0	1	0	0	0	1	blank2r.bmp	0	1	+	0	2	B2r.bmp	492	1	blank2r.bmp	786	1	BMVZ	786	1	blank2r.bmp	866	5	faul	866	1	!	-1	1	!	-1	0	0	0	0	0	0	0	0	0	0	0	0	0	0	0	0	0	0	0	0	0	0	0	0	0	0	0
032819	09:08:41	09:15:41	416493	5.0.10.0	4_exp_AWA_CON_EVA_AMP	190	Rpleas_acq	Same	Rpleas	Bmasked	CS_B	2pleas	distractor2	CONbeforeEVA	acq_US_pleas_masked	acq3_masked	3	33	453	1	300	300	0	0	456	50	0	1	0	0	0	1	blank2r.bmp	0	1	+	0	8	C4r.bmp	492	1	blank2r.bmp	786	1	GKQX	786	1	blank2r.bmp	866	4	loyal	866	1	!	1292	1	!	1359	0	0	0	0	0	0	0	0	0	0	0	0	0	0	0	0	0	0	0	0	0	0	0	0	0	0	0
032819	09:08:41	09:15:44	418932	5.0.10.0	4_exp_AWA_CON_EVA_AMP	190	Rpleas_acq	Same	Rpleas	Bmasked	CS_B	2pleas	distractor2	CONbeforeEVA	acq_US_pleas_masked	acq3_masked	3	34	453	1	300	300	0	0	432	46	0	0	0	0	0	1	blank2r.bmp	0	1	+	0	1	B1r.bmp	492	1	blank2r.bmp	786	1	GKQX	786	1	blank2r.bmp	866	6	schön	866	1	FEHLER	1652	1	!	1292	1	!	1332	0	0	0	0	0	0	0	0	0	0	0	0	0	0	0	0	0	0	0	0	0	0	0	0
032819	09:08:41	09:15:46	420985	5.0.10.0	4_exp_AWA_CON_EVA_AMP	190	Rpleas_acq	Same	Rpleas	Bmasked	CS_B	2pleas	distractor2	CONbeforeEVA	acq_US_pleas_masked	acq3_masked	3	35	453	1	300	300	0	0	469	50	0	1	0	0	0	1	blank2r.bmp	0	1	+	0	6	C2r.bmp	492	1	blank2r.bmp	786	1	GKQX	786	1	blank2r.bmp	866	3	helfen	866	1	!	1292	1	!	1372	0	0	0	0	0	0	0	0	0	0	0	0	0	0	0	0	0	0	0	0	0	0	0	0	0	0	0
032819	09:08:41	09:15:48	423131	5.0.10.0	4_exp_AWA_CON_EVA_AMP	190	Rpleas_acq	Same	Rpleas	Bmasked	CS_B	2pleas	distractor2	CONbeforeEVA	acq_US_pleas_masked	acq3_masked	3	36	453	0	300	300	0	0	377	50	0	1	0	0	0	1	blank2r.bmp	0	1	+	0	7	C3r.bmp	492	1	blank2r.bmp	786	1	GKQX	786	1	blank2r.bmp	866	1	freundlich	866	1	!	-1	1	!	-1	0	0	0	0	0	0	0	0	0	0	0	0	0	0	0	0	0	0	0	0	0	0	0	0	0	0	0
032819	09:08:41	09:15:59	434406	5.0.10.0	4_exp_AWA_CON_EVA_AMP	190	Rpleas_acq	Same	Rpleas	Bmasked	CS_B	2pleas	distractor2	CONbeforeEVA	acq_US_unple_masked	acq45_masked	4	1	400	0	300	300	0	0	268	50	0	0	0	0	0	1	blank2r.bmp	0	1	+	0	3	B3r.bmp	492	1	blank2r.bmp	786	1	BMVZ	786	1	blank2r.bmp	866	2	tot	866	1	!	-1	1	!	-1	0	0	0	0	0	0	0	0	0	0	0	0	0	0	0	0	0	0	0	0	0	0	0	0	0	0	0
032819	09:08:41	09:16:01	436645	5.0.10.0	4_exp_AWA_CON_EVA_AMP	190	Rpleas_acq	Same	Rpleas	Bmasked	CS_B	2pleas	distractor2	CONbeforeEVA	acq_US_pleas_masked	acq45_masked	4	2	400	1	300	300	0	0	436	50	0	1	0	0	0	1	blank2r.bmp	0	1	+	0	4	B4r.bmp	492	1	blank2r.bmp	786	1	GKQX	786	1	blank2r.bmp	866	1	freundlich	866	1	!	1239	1	!	1332	0	0	0	0	0	0	0	0	0	0	0	0	0	0	0	0	0	0	0	0	0	0	0	0	0	0	0
032819	09:08:41	09:16:04	438924	5.0.10.0	4_exp_AWA_CON_EVA_AMP	190	Rpleas_acq	Same	Rpleas	Bmasked	CS_B	2pleas	distractor2	CONbeforeEVA	acq_US_unple_masked	acq45_masked	4	3	400	0	300	300	0	0	500	50	0	0	0	0	0	1	blank2r.bmp	0	1	+	0	5	C1r.bmp	492	1	blank2r.bmp	786	1	BMVZ	786	1	blank2r.bmp	866	1	fanatisch	866	1	!	1239	1	!	-1	0	0	0	0	0	0	0	0	0	0	0	0	0	0	0	0	0	0	0	0	0	0	0	0	0	0	0
032819	09:08:41	09:16:06	441177	5.0.10.0	4_exp_AWA_CON_EVA_AMP	190	Rpleas_acq	Same	Rpleas	Bmasked	CS_B	2pleas	distractor2	CONbeforeEVA	acq_US_pleas_masked	acq45_masked	4	4	400	1	300	300	0	0	432	50	0	1	0	0	0	1	blank2r.bmp	0	1	+	0	2	B2r.bmp	492	1	blank2r.bmp	786	1	GKQX	786	1	blank2r.bmp	866	4	loyal	866	1	!	1239	1	!	1332	0	0	0	0	0	0	0	0	0	0	0	0	0	0	0	0	0	0	0	0	0	0	0	0	0	0	0
032819	09:08:41	09:16:08	443416	5.0.10.0	4_exp_AWA_CON_EVA_AMP	190	Rpleas_acq	Same	Rpleas	Bmasked	CS_B	2pleas	distractor2	CONbeforeEVA	acq_US_unple_masked	acq45_masked	4	5	400	1	300	300	0	0	451	50	0	0	0	0	0	1	blank2r.bmp	0	1	+	0	4	B4r.bmp	492	1	blank2r.bmp	786	1	BMVZ	786	1	blank2r.bmp	866	3	hindern	866	1	!	1239	1	!	1346	0	0	0	0	0	0	0	0	0	0	0	0	0	0	0	0	0	0	0	0	0	0	0	0	0	0	0
032819	09:08:41	09:16:11	445748	5.0.10.0	4_exp_AWA_CON_EVA_AMP	190	Rpleas_acq	Same	Rpleas	Bmasked	CS_B	2pleas	distractor2	CONbeforeEVA	acq_US_unple_masked	acq45_masked	4	6	400	0	300	300	0	0	555	46	0	1	0	0	0	1	blank2r.bmp	0	1	+	0	2	B2r.bmp	492	1	blank2r.bmp	786	1	BMVZ	786	1	blank2r.bmp	866	6	schlecht	866	1	!	1239	1	!	-1	0	0	0	0	0	0	0	0	0	0	0	0	0	0	0	0	0	0	0	0	0	0	0	0	0	0	0
032819	09:08:41	09:16:13	448014	5.0.10.0	4_exp_AWA_CON_EVA_AMP	190	Rpleas_acq	Same	Rpleas	Bmasked	CS_B	2pleas	distractor2	CONbeforeEVA	acq_US_pleas_masked	acq45_masked	4	7	400	0	300	300	0	0	491	50	0	1	0	0	0	1	blank2r.bmp	0	1	+	0	1	B1r.bmp	492	1	blank2r.bmp	786	1	GKQX	786	1	blank2r.bmp	866	5	fair	866	1	!	1239	1	!	-1	0	0	0	0	0	0	0	0	0	0	0	0	0	0	0	0	0	0	0	0	0	0	0	0	0	0	0
032819	09:08:41	09:16:15	450213	5.0.10.0	4_exp_AWA_CON_EVA_AMP	190	Rpleas_acq	Same	Rpleas	Bmasked	CS_B	2pleas	distractor2	CONbeforeEVA	acq_US_pleas_masked	acq45_masked	4	8	400	1	300	300	0	0	395	50	0	1	0	0	0	1	blank2r.bmp	0	1	+	0	8	C4r.bmp	492	1	blank2r.bmp	786	1	GKQX	786	1	blank2r.bmp	866	3	helfen	866	1	!	1239	1	!	1292	0	0	0	0	0	0	0	0	0	0	0	0	0	0	0	0	0	0	0	0	0	0	0	0	0	0	0
032819	09:08:41	09:16:17	452359	5.0.10.0	4_exp_AWA_CON_EVA_AMP	190	Rpleas_acq	Same	Rpleas	Bmasked	CS_B	2pleas	distractor2	CONbeforeEVA	acq_US_pleas_masked	acq45_masked	4	9	400	1	300	300	0	0	346	50	0	1	0	0	0	1	blank2r.bmp	0	1	+	0	5	C1r.bmp	492	1	blank2r.bmp	786	1	GKQX	786	1	blank2r.bmp	866	2	treu	866	1	!	1239	1	!	1252	0	0	0	0	0	0	0	0	0	0	0	0	0	0	0	0	0	0	0	0	0	0	0	0	0	0	0
032819	09:08:41	09:16:19	454571	5.0.10.0	4_exp_AWA_CON_EVA_AMP	190	Rpleas_acq	Same	Rpleas	Bmasked	CS_B	2pleas	distractor2	CONbeforeEVA	acq_US_pleas_masked	acq45_masked	4	10	400	1	300	300	0	0	423	50	0	1	0	0	0	1	blank2r.bmp	0	1	+	0	3	B3r.bmp	492	1	blank2r.bmp	786	1	GKQX	786	1	blank2r.bmp	866	6	schön	866	1	!	1239	1	!	1319	0	0	0	0	0	0	0	0	0	0	0	0	0	0	0	0	0	0	0	0	0	0	0	0	0	0	0
032819	09:08:41	09:16:22	456810	5.0.10.0	4_exp_AWA_CON_EVA_AMP	190	Rpleas_acq	Same	Rpleas	Bmasked	CS_B	2pleas	distractor2	CONbeforeEVA	acq_US_unple_masked	acq45_masked	4	11	400	1	300	300	0	0	432	46	0	1	0	0	0	1	blank2r.bmp	0	1	+	0	6	C2r.bmp	492	1	blank2r.bmp	786	1	BMVZ	786	1	blank2r.bmp	866	5	faul	866	1	!	1239	1	!	1332	0	0	0	0	0	0	0	0	0	0	0	0	0	0	0	0	0	0	0	0	0	0	0	0	0	0	0
032819	09:08:41	09:16:24	458956	5.0.10.0	4_exp_AWA_CON_EVA_AMP	190	Rpleas_acq	Same	Rpleas	Bmasked	CS_B	2pleas	distractor2	CONbeforeEVA	acq_US_unple_masked	acq45_masked	4	12	400	1	300	300	0	0	346	46	0	1	0	0	0	1	blank2r.bmp	0	1	+	0	7	C3r.bmp	492	1	blank2r.bmp	786	1	BMVZ	786	1	blank2r.bmp	866	4	lasch	866	1	!	1239	1	!	1252	0	0	0	0	0	0	0	0	0	0	0	0	0	0	0	0	0	0	0	0	0	0	0	0	0	0	0
032819	09:08:41	09:16:26	461102	5.0.10.0	4_exp_AWA_CON_EVA_AMP	190	Rpleas_acq	Same	Rpleas	Bmasked	CS_B	2pleas	distractor2	CONbeforeEVA	acq_US_pleas_masked	acq45_masked	4	13	400	1	300	300	0	0	354	50	0	1	0	0	0	1	blank2r.bmp	0	1	+	0	5	C1r.bmp	492	1	blank2r.bmp	786	1	GKQX	786	1	blank2r.bmp	866	3	helfen	866	1	!	1239	1	!	1252	0	0	0	0	0	0	0	0	0	0	0	0	0	0	0	0	0	0	0	0	0	0	0	0	0	0	0
032819	09:08:41	09:16:28	463314	5.0.10.0	4_exp_AWA_CON_EVA_AMP	190	Rpleas_acq	Same	Rpleas	Bmasked	CS_B	2pleas	distractor2	CONbeforeEVA	acq_US_unple_masked	acq45_masked	4	14	400	1	300	300	0	0	422	46	0	1	0	0	0	1	blank2r.bmp	0	1	+	0	2	B2r.bmp	492	1	blank2r.bmp	786	1	BMVZ	786	1	blank2r.bmp	866	3	hindern	866	1	!	1239	1	!	1319	0	0	0	0	0	0	0	0	0	0	0	0	0	0	0	0	0	0	0	0	0	0	0	0	0	0	0
032819	09:08:41	09:16:30	465566	5.0.10.0	4_exp_AWA_CON_EVA_AMP	190	Rpleas_acq	Same	Rpleas	Bmasked	CS_B	2pleas	distractor2	CONbeforeEVA	acq_US_unple_masked	acq45_masked	4	15	400	1	300	300	0	0	457	46	0	1	0	0	0	1	blank2r.bmp	0	1	+	0	1	B1r.bmp	492	1	blank2r.bmp	786	1	BMVZ	786	1	blank2r.bmp	866	1	fanatisch	866	1	!	1239	1	!	1359	0	0	0	0	0	0	0	0	0	0	0	0	0	0	0	0	0	0	0	0	0	0	0	0	0	0	0
032819	09:08:41	09:16:33	467819	5.0.10.0	4_exp_AWA_CON_EVA_AMP	190	Rpleas_acq	Same	Rpleas	Bmasked	CS_B	2pleas	distractor2	CONbeforeEVA	acq_US_unple_masked	acq45_masked	4	16	400	1	300	300	0	0	445	46	0	1	0	0	0	1	blank2r.bmp	0	1	+	0	6	C2r.bmp	492	1	blank2r.bmp	786	1	BMVZ	786	1	blank2r.bmp	866	5	faul	866	1	!	1239	1	!	1346	0	0	0	0	0	0	0	0	0	0	0	0	0	0	0	0	0	0	0	0	0	0	0	0	0	0	0
032819	09:08:41	09:16:35	469978	5.0.10.0	4_exp_AWA_CON_EVA_AMP	190	Rpleas_acq	Same	Rpleas	Bmasked	CS_B	2pleas	distractor2	CONbeforeEVA	acq_US_pleas_masked	acq45_masked	4	17	400	1	300	300	0	0	366	50	0	1	0	0	0	1	blank2r.bmp	0	1	+	0	7	C3r.bmp	492	1	blank2r.bmp	786	1	GKQX	786	1	blank2r.bmp	866	6	schön	866	1	!	1239	1	!	1266	0	0	0	0	0	0	0	0	0	0	0	0	0	0	0	0	0	0	0	0	0	0	0	0	0	0	0
032819	09:08:41	09:16:37	472164	5.0.10.0	4_exp_AWA_CON_EVA_AMP	190	Rpleas_acq	Same	Rpleas	Bmasked	CS_B	2pleas	distractor2	CONbeforeEVA	acq_US_pleas_masked	acq45_masked	4	18	400	1	300	300	0	0	395	50	0	1	0	0	0	1	blank2r.bmp	0	1	+	0	8	C4r.bmp	492	1	blank2r.bmp	786	1	GKQX	786	1	blank2r.bmp	866	2	treu	866	1	!	1239	1	!	1292	0	0	0	0	0	0	0	0	0	0	0	0	0	0	0	0	0	0	0	0	0	0	0	0	0	0	0
032819	09:08:41	09:16:39	474390	5.0.10.0	4_exp_AWA_CON_EVA_AMP	190	Rpleas_acq	Same	Rpleas	Bmasked	CS_B	2pleas	distractor2	CONbeforeEVA	acq_US_pleas_masked	acq45_masked	4	19	400	1	300	300	0	0	434	50	0	1	0	0	0	1	blank2r.bmp	0	1	+	0	4	B4r.bmp	492	1	blank2r.bmp	786	1	GKQX	786	1	blank2r.bmp	866	1	freundlich	866	1	!	1239	1	!	1332	0	0	0	0	0	0	0	0	0	0	0	0	0	0	0	0	0	0	0	0	0	0	0	0	0	0	0
032819	09:08:41	09:16:41	476589	5.0.10.0	4_exp_AWA_CON_EVA_AMP	190	Rpleas_acq	Same	Rpleas	Bmasked	CS_B	2pleas	distractor2	CONbeforeEVA	acq_US_unple_masked	acq45_masked	4	20	400	1	300	300	0	0	409	46	0	1	0	0	0	1	blank2r.bmp	0	1	+	0	3	B3r.bmp	492	1	blank2r.bmp	786	1	BMVZ	786	1	blank2r.bmp	866	6	schlecht	866	1	!	1239	1	!	1306	0	0	0	0	0	0	0	0	0	0	0	0	0	0	0	0	0	0	0	0	0	0	0	0	0	0	0
032819	09:08:41	09:16:44	478761	5.0.10.0	4_exp_AWA_CON_EVA_AMP	190	Rpleas_acq	Same	Rpleas	Bmasked	CS_B	2pleas	distractor2	CONbeforeEVA	acq_US_unple_masked	acq45_masked	4	21	400	1	300	300	0	0	379	50	0	0	0	0	0	1	blank2r.bmp	0	1	+	0	7	C3r.bmp	492	1	blank2r.bmp	786	1	BMVZ	786	1	blank2r.bmp	866	2	tot	866	1	!	1239	1	!	1279	0	0	0	0	0	0	0	0	0	0	0	0	0	0	0	0	0	0	0	0	0	0	0	0	0	0	0
032819	09:08:41	09:16:46	480907	5.0.10.0	4_exp_AWA_CON_EVA_AMP	190	Rpleas_acq	Same	Rpleas	Bmasked	CS_B	2pleas	distractor2	CONbeforeEVA	acq_US_unple_masked	acq45_masked	4	22	400	1	300	300	0	0	349	46	0	1	0	0	0	1	blank2r.bmp	0	1	+	0	8	C4r.bmp	492	1	blank2r.bmp	786	1	BMVZ	786	1	blank2r.bmp	866	4	lasch	866	1	!	1239	1	!	1252	0	0	0	0	0	0	0	0	0	0	0	0	0	0	0	0	0	0	0	0	0	0	0	0	0	0	0
032819	09:08:41	09:16:48	483119	5.0.10.0	4_exp_AWA_CON_EVA_AMP	190	Rpleas_acq	Same	Rpleas	Bmasked	CS_B	2pleas	distractor2	CONbeforeEVA	acq_US_unple_masked	acq45_masked	4	23	400	1	300	300	0	0	424	46	0	1	0	0	0	1	blank2r.bmp	0	1	+	0	5	C1r.bmp	492	1	blank2r.bmp	786	1	BMVZ	786	1	blank2r.bmp	866	4	lasch	866	1	!	1239	1	!	1319	0	0	0	0	0	0	0	0	0	0	0	0	0	0	0	0	0	0	0	0	0	0	0	0	0	0	0
032819	09:08:41	09:16:50	485372	5.0.10.0	4_exp_AWA_CON_EVA_AMP	190	Rpleas_acq	Same	Rpleas	Bmasked	CS_B	2pleas	distractor2	CONbeforeEVA	acq_US_unple_masked	acq45_masked	4	24	400	0	300	300	0	0	479	46	0	1	0	0	0	1	blank2r.bmp	0	1	+	0	6	C2r.bmp	492	1	blank2r.bmp	786	1	BMVZ	786	1	blank2r.bmp	866	1	fanatisch	866	1	!	1239	1	!	-1	0	0	0	0	0	0	0	0	0	0	0	0	0	0	0	0	0	0	0	0	0	0	0	0	0	0	0
032819	09:08:41	09:16:52	487531	5.0.10.0	4_exp_AWA_CON_EVA_AMP	190	Rpleas_acq	Same	Rpleas	Bmasked	CS_B	2pleas	distractor2	CONbeforeEVA	acq_US_unple_masked	acq45_masked	4	25	400	1	300	300	0	0	346	46	0	1	0	0	0	1	blank2r.bmp	0	1	+	0	4	B4r.bmp	492	1	blank2r.bmp	786	1	BMVZ	786	1	blank2r.bmp	866	5	faul	866	1	!	1239	1	!	1252	0	0	0	0	0	0	0	0	0	0	0	0	0	0	0	0	0	0	0	0	0	0	0	0	0	0	0
032819	09:08:41	09:16:54	489717	5.0.10.0	4_exp_AWA_CON_EVA_AMP	190	Rpleas_acq	Same	Rpleas	Bmasked	CS_B	2pleas	distractor2	CONbeforeEVA	acq_US_pleas_masked	acq45_masked	4	26	400	1	300	300	0	0	389	46	0	0	0	0	0	1	blank2r.bmp	0	1	+	0	3	B3r.bmp	492	1	blank2r.bmp	786	1	GKQX	786	1	blank2r.bmp	866	5	fair	866	1	!	1239	1	!	1292	0	0	0	0	0	0	0	0	0	0	0	0	0	0	0	0	0	0	0	0	0	0	0	0	0	0	0
032819	09:08:41	09:16:57	491996	5.0.10.0	4_exp_AWA_CON_EVA_AMP	190	Rpleas_acq	Same	Rpleas	Bmasked	CS_B	2pleas	distractor2	CONbeforeEVA	acq_US_pleas_masked	acq45_masked	4	27	400	0	300	300	0	0	503	50	0	1	0	0	0	1	blank2r.bmp	0	1	+	0	1	B1r.bmp	492	1	blank2r.bmp	786	1	GKQX	786	1	blank2r.bmp	866	4	loyal	866	1	!	1239	1	!	-1	0	0	0	0	0	0	0	0	0	0	0	0	0	0	0	0	0	0	0	0	0	0	0	0	0	0	0
032819	09:08:41	09:16:59	494168	5.0.10.0	4_exp_AWA_CON_EVA_AMP	190	Rpleas_acq	Same	Rpleas	Bmasked	CS_B	2pleas	distractor2	CONbeforeEVA	acq_US_pleas_masked	acq45_masked	4	28	400	1	300	300	0	0	347	50	0	1	0	0	0	1	blank2r.bmp	0	1	+	0	2	B2r.bmp	492	1	blank2r.bmp	786	1	GKQX	786	1	blank2r.bmp	866	6	schön	866	1	!	1239	1	!	1252	0	0	0	0	0	0	0	0	0	0	0	0	0	0	0	0	0	0	0	0	0	0	0	0	0	0	0
032819	09:08:41	09:17:01	496394	5.0.10.0	4_exp_AWA_CON_EVA_AMP	190	Rpleas_acq	Same	Rpleas	Bmasked	CS_B	2pleas	distractor2	CONbeforeEVA	acq_US_unple_masked	acq45_masked	4	29	400	1	300	300	0	0	426	46	0	1	0	0	0	1	blank2r.bmp	0	1	+	0	6	C2r.bmp	492	1	blank2r.bmp	786	1	BMVZ	786	1	blank2r.bmp	866	3	hindern	866	1	!	1239	1	!	1332	0	0	0	0	0	0	0	0	0	0	0	0	0	0	0	0	0	0	0	0	0	0	0	0	0	0	0
032819	09:08:41	09:17:03	498619	5.0.10.0	4_exp_AWA_CON_EVA_AMP	190	Rpleas_acq	Same	Rpleas	Bmasked	CS_B	2pleas	distractor2	CONbeforeEVA	acq_US_pleas_masked	acq45_masked	4	30	400	1	300	300	0	0	413	50	0	1	0	0	0	1	blank2r.bmp	0	1	+	0	3	B3r.bmp	492	1	blank2r.bmp	786	1	GKQX	786	1	blank2r.bmp	866	4	loyal	866	1	!	1239	1	!	1319	0	0	0	0	0	0	0	0	0	0	0	0	0	0	0	0	0	0	0	0	0	0	0	0	0	0	0
032819	09:08:41	09:17:06	500832	5.0.10.0	4_exp_AWA_CON_EVA_AMP	190	Rpleas_acq	Same	Rpleas	Bmasked	CS_B	2pleas	distractor2	CONbeforeEVA	acq_US_pleas_masked	acq45_masked	4	31	400	1	300	300	0	0	412	50	0	1	0	0	0	1	blank2r.bmp	0	1	+	0	8	C4r.bmp	492	1	blank2r.bmp	786	1	GKQX	786	1	blank2r.bmp	866	5	fair	866	1	!	1239	1	!	1319	0	0	0	0	0	0	0	0	0	0	0	0	0	0	0	0	0	0	0	0	0	0	0	0	0	0	0
032819	09:08:41	09:17:08	503058	5.0.10.0	4_exp_AWA_CON_EVA_AMP	190	Rpleas_acq	Same	Rpleas	Bmasked	CS_B	2pleas	distractor2	CONbeforeEVA	acq_US_pleas_masked	acq45_masked	4	32	400	1	300	300	0	0	428	50	0	1	0	0	0	1	blank2r.bmp	0	1	+	0	5	C1r.bmp	492	1	blank2r.bmp	786	1	GKQX	786	1	blank2r.bmp	866	3	helfen	866	1	!	1239	1	!	1332	0	0	0	0	0	0	0	0	0	0	0	0	0	0	0	0	0	0	0	0	0	0	0	0	0	0	0
032819	09:08:41	09:17:10	505283	5.0.10.0	4_exp_AWA_CON_EVA_AMP	190	Rpleas_acq	Same	Rpleas	Bmasked	CS_B	2pleas	distractor2	CONbeforeEVA	acq_US_pleas_masked	acq45_masked	4	33	400	1	300	300	0	0	438	50	0	1	0	0	0	1	blank2r.bmp	0	1	+	0	4	B4r.bmp	492	1	blank2r.bmp	786	1	GKQX	786	1	blank2r.bmp	866	1	freundlich	866	1	!	1239	1	!	1332	0	0	0	0	0	0	0	0	0	0	0	0	0	0	0	0	0	0	0	0	0	0	0	0	0	0	0
032819	09:08:41	09:17:12	507469	5.0.10.0	4_exp_AWA_CON_EVA_AMP	190	Rpleas_acq	Same	Rpleas	Bmasked	CS_B	2pleas	distractor2	CONbeforeEVA	acq_US_unple_masked	acq45_masked	4	34	400	1	300	300	0	0	388	46	0	1	0	0	0	1	blank2r.bmp	0	1	+	0	7	C3r.bmp	492	1	blank2r.bmp	786	1	BMVZ	786	1	blank2r.bmp	866	6	schlecht	866	1	!	1239	1	!	1292	0	0	0	0	0	0	0	0	0	0	0	0	0	0	0	0	0	0	0	0	0	0	0	0	0	0	0
032819	09:08:41	09:17:14	509668	5.0.10.0	4_exp_AWA_CON_EVA_AMP	190	Rpleas_acq	Same	Rpleas	Bmasked	CS_B	2pleas	distractor2	CONbeforeEVA	acq_US_pleas_masked	acq45_masked	4	35	400	1	300	300	0	0	394	50	0	1	0	0	0	1	blank2r.bmp	0	1	+	0	2	B2r.bmp	492	1	blank2r.bmp	786	1	GKQX	786	1	blank2r.bmp	866	2	treu	866	1	!	1239	1	!	1292	0	0	0	0	0	0	0	0	0	0	0	0	0	0	0	0	0	0	0	0	0	0	0	0	0	0	0
032819	09:08:41	09:17:16	511681	5.0.10.0	4_exp_AWA_CON_EVA_AMP	190	Rpleas_acq	Same	Rpleas	Bmasked	CS_B	2pleas	distractor2	CONbeforeEVA	acq_US_unple_masked	acq45_masked	4	36	400	0	300	300	0	0	237	50	0	0	0	0	0	1	blank2r.bmp	0	1	+	0	1	B1r.bmp	492	1	blank2r.bmp	786	1	BMVZ	786	1	blank2r.bmp	866	2	tot	866	1	!	-1	1	!	-1	0	0	0	0	0	0	0	0	0	0	0	0	0	0	0	0	0	0	0	0	0	0	0	0	0	0	0
032819	09:08:41	09:17:26	521503	5.0.10.0	4_exp_AWA_CON_EVA_AMP	190	Rpleas_acq	Same	Rpleas	Bmasked	CS_B	2pleas	distractor2	CONbeforeEVA	acq_US_pleas_masked	acq45_masked	5	1	400	0	300	300	0	0	329	50	0	1	0	0	0	1	blank2r.bmp	0	1	+	0	6	C2r.bmp	492	1	blank2r.bmp	786	1	GKQX	786	1	blank2r.bmp	866	3	helfen	866	1	!	-1	1	!	-1	0	0	0	0	0	0	0	0	0	0	0	0	0	0	0	0	0	0	0	0	0	0	0	0	0	0	0
032819	09:08:41	09:17:29	523729	5.0.10.0	4_exp_AWA_CON_EVA_AMP	190	Rpleas_acq	Same	Rpleas	Bmasked	CS_B	2pleas	distractor2	CONbeforeEVA	acq_US_unple_masked	acq45_masked	5	2	400	1	300	300	0	0	418	46	0	1	0	0	0	1	blank2r.bmp	0	1	+	0	7	C3r.bmp	492	1	blank2r.bmp	786	1	BMVZ	786	1	blank2r.bmp	866	4	lasch	866	1	!	1239	1	!	1319	0	0	0	0	0	0	0	0	0	0	0	0	0	0	0	0	0	0	0	0	0	0	0	0	0	0	0
032819	09:08:41	09:17:31	525968	5.0.10.0	4_exp_AWA_CON_EVA_AMP	190	Rpleas_acq	Same	Rpleas	Bmasked	CS_B	2pleas	distractor2	CONbeforeEVA	acq_US_unple_masked	acq45_masked	5	3	400	1	300	300	0	0	443	46	0	1	0	0	0	1	blank2r.bmp	0	1	+	0	1	B1r.bmp	492	1	blank2r.bmp	786	1	BMVZ	786	1	blank2r.bmp	866	3	hindern	866	1	!	1239	1	!	1346	0	0	0	0	0	0	0	0	0	0	0	0	0	0	0	0	0	0	0	0	0	0	0	0	0	0	0
032819	09:08:41	09:17:33	528127	5.0.10.0	4_exp_AWA_CON_EVA_AMP	190	Rpleas_acq	Same	Rpleas	Bmasked	CS_B	2pleas	distractor2	CONbeforeEVA	acq_US_pleas_masked	acq45_masked	5	4	400	1	300	300	0	0	369	50	0	1	0	0	0	1	blank2r.bmp	0	1	+	0	4	B4r.bmp	492	1	blank2r.bmp	786	1	GKQX	786	1	blank2r.bmp	866	6	schön	866	1	!	1239	1	!	1266	0	0	0	0	0	0	0	0	0	0	0	0	0	0	0	0	0	0	0	0	0	0	0	0	0	0	0
032819	09:08:41	09:17:35	530353	5.0.10.0	4_exp_AWA_CON_EVA_AMP	190	Rpleas_acq	Same	Rpleas	Bmasked	CS_B	2pleas	distractor2	CONbeforeEVA	acq_US_unple_masked	acq45_masked	5	5	400	1	300	300	0	0	435	46	0	1	0	0	0	1	blank2r.bmp	0	1	+	0	8	C4r.bmp	492	1	blank2r.bmp	786	1	BMVZ	786	1	blank2r.bmp	866	5	faul	866	1	!	1239	1	!	1332	0	0	0	0	0	0	0	0	0	0	0	0	0	0	0	0	0	0	0	0	0	0	0	0	0	0	0
032819	09:08:41	09:17:37	532526	5.0.10.0	4_exp_AWA_CON_EVA_AMP	190	Rpleas_acq	Same	Rpleas	Bmasked	CS_B	2pleas	distractor2	CONbeforeEVA	acq_US_unple_masked	acq45_masked	5	6	400	1	300	300	0	0	371	46	0	1	0	0	0	1	blank2r.bmp	0	1	+	0	3	B3r.bmp	492	1	blank2r.bmp	786	1	BMVZ	786	1	blank2r.bmp	866	2	tot	866	1	!	1239	1	!	1266	0	0	0	0	0	0	0	0	0	0	0	0	0	0	0	0	0	0	0	0	0	0	0	0	0	0	0
032819	09:08:41	09:17:39	534671	5.0.10.0	4_exp_AWA_CON_EVA_AMP	190	Rpleas_acq	Same	Rpleas	Bmasked	CS_B	2pleas	distractor2	CONbeforeEVA	acq_US_pleas_masked	acq45_masked	5	7	400	1	300	300	0	0	346	46	0	0	0	0	0	1	blank2r.bmp	0	1	+	0	5	C1r.bmp	492	1	blank2r.bmp	786	1	GKQX	786	1	blank2r.bmp	866	4	loyal	866	1	!	1239	1	!	1252	0	0	0	0	0	0	0	0	0	0	0	0	0	0	0	0	0	0	0	0	0	0	0	0	0	0	0
032819	09:08:41	09:17:42	536830	5.0.10.0	4_exp_AWA_CON_EVA_AMP	190	Rpleas_acq	Same	Rpleas	Bmasked	CS_B	2pleas	distractor2	CONbeforeEVA	acq_US_unple_masked	acq45_masked	5	8	400	1	300	300	0	0	371	46	0	1	0	0	0	1	blank2r.bmp	0	1	+	0	2	B2r.bmp	492	1	blank2r.bmp	786	1	BMVZ	786	1	blank2r.bmp	866	6	schlecht	866	1	!	1239	1	!	1266	0	0	0	0	0	0	0	0	0	0	0	0	0	0	0	0	0	0	0	0	0	0	0	0	0	0	0
032819	09:08:41	09:17:44	538896	5.0.10.0	4_exp_AWA_CON_EVA_AMP	190	Rpleas_acq	Same	Rpleas	Bmasked	CS_B	2pleas	distractor2	CONbeforeEVA	acq_US_pleas_masked	acq45_masked	5	9	400	0	300	300	0	0	297	50	0	1	0	0	0	1	blank2r.bmp	0	1	+	0	8	C4r.bmp	492	1	blank2r.bmp	786	1	GKQX	786	1	blank2r.bmp	866	2	treu	866	1	!	-1	1	!	-1	0	0	0	0	0	0	0	0	0	0	0	0	0	0	0	0	0	0	0	0	0	0	0	0	0	0	0
032819	09:08:41	09:17:46	541069	5.0.10.0	4_exp_AWA_CON_EVA_AMP	190	Rpleas_acq	Same	Rpleas	Bmasked	CS_B	2pleas	distractor2	CONbeforeEVA	acq_US_pleas_masked	acq45_masked	5	10	400	1	300	300	0	0	368	50	0	1	0	0	0	1	blank2r.bmp	0	1	+	0	1	B1r.bmp	492	1	blank2r.bmp	786	1	GKQX	786	1	blank2r.bmp	866	1	freundlich	866	1	!	1239	1	!	1266	0	0	0	0	0	0	0	0	0	0	0	0	0	0	0	0	0	0	0	0	0	0	0	0	0	0	0
032819	09:08:41	09:17:48	543281	5.0.10.0	4_exp_AWA_CON_EVA_AMP	190	Rpleas_acq	Same	Rpleas	Bmasked	CS_B	2pleas	distractor2	CONbeforeEVA	acq_US_unple_masked	acq45_masked	5	11	400	1	300	300	0	0	412	46	0	1	0	0	0	1	blank2r.bmp	0	1	+	0	2	B2r.bmp	492	1	blank2r.bmp	786	1	BMVZ	786	1	blank2r.bmp	866	1	fanatisch	866	1	!	1239	1	!	1319	0	0	0	0	0	0	0	0	0	0	0	0	0	0	0	0	0	0	0	0	0	0	0	0	0	0	0
032819	09:08:41	09:17:50	545440	5.0.10.0	4_exp_AWA_CON_EVA_AMP	190	Rpleas_acq	Same	Rpleas	Bmasked	CS_B	2pleas	distractor2	CONbeforeEVA	acq_US_pleas_masked	acq45_masked	5	12	400	1	300	300	0	0	364	50	0	1	0	0	0	1	blank2r.bmp	0	1	+	0	6	C2r.bmp	492	1	blank2r.bmp	786	1	GKQX	786	1	blank2r.bmp	866	5	fair	866	1	!	1239	1	!	1266	0	0	0	0	0	0	0	0	0	0	0	0	0	0	0	0	0	0	0	0	0	0	0	0	0	0	0
032819	09:08:41	09:17:52	547626	5.0.10.0	4_exp_AWA_CON_EVA_AMP	190	Rpleas_acq	Same	Rpleas	Bmasked	CS_B	2pleas	distractor2	CONbeforeEVA	acq_US_pleas_masked	acq45_masked	5	13	400	1	300	300	0	0	375	50	0	1	0	0	0	1	blank2r.bmp	0	1	+	0	7	C3r.bmp	492	1	blank2r.bmp	786	1	GKQX	786	1	blank2r.bmp	866	3	helfen	866	1	!	1239	1	!	1279	0	0	0	0	0	0	0	0	0	0	0	0	0	0	0	0	0	0	0	0	0	0	0	0	0	0	0
032819	09:08:41	09:17:55	549798	5.0.10.0	4_exp_AWA_CON_EVA_AMP	190	Rpleas_acq	Same	Rpleas	Bmasked	CS_B	2pleas	distractor2	CONbeforeEVA	acq_US_pleas_masked	acq45_masked	5	14	400	1	300	300	0	0	378	50	0	1	0	0	0	1	blank2r.bmp	0	1	+	0	5	C1r.bmp	492	1	blank2r.bmp	786	1	GKQX	786	1	blank2r.bmp	866	5	fair	866	1	!	1239	1	!	1279	0	0	0	0	0	0	0	0	0	0	0	0	0	0	0	0	0	0	0	0	0	0	0	0	0	0	0
032819	09:08:41	09:17:57	551891	5.0.10.0	4_exp_AWA_CON_EVA_AMP	190	Rpleas_acq	Same	Rpleas	Bmasked	CS_B	2pleas	distractor2	CONbeforeEVA	acq_US_unple_masked	acq45_masked	5	15	400	0	300	300	0	0	321	46	0	1	0	0	0	1	blank2r.bmp	0	1	+	0	3	B3r.bmp	492	1	blank2r.bmp	786	1	BMVZ	786	1	blank2r.bmp	866	4	lasch	866	1	!	-1	1	!	-1	0	0	0	0	0	0	0	0	0	0	0	0	0	0	0	0	0	0	0	0	0	0	0	0	0	0	0
032819	09:08:41	09:17:59	554143	5.0.10.0	4_exp_AWA_CON_EVA_AMP	190	Rpleas_acq	Same	Rpleas	Bmasked	CS_B	2pleas	distractor2	CONbeforeEVA	acq_US_unple_masked	acq45_masked	5	16	400	1	300	300	0	0	439	46	0	1	0	0	0	1	blank2r.bmp	0	1	+	0	4	B4r.bmp	492	1	blank2r.bmp	786	1	BMVZ	786	1	blank2r.bmp	866	5	faul	866	1	!	1239	1	!	1346	0	0	0	0	0	0	0	0	0	0	0	0	0	0	0	0	0	0	0	0	0	0	0	0	0	0	0
032819	09:08:41	09:18:01	556356	5.0.10.0	4_exp_AWA_CON_EVA_AMP	190	Rpleas_acq	Same	Rpleas	Bmasked	CS_B	2pleas	distractor2	CONbeforeEVA	acq_US_pleas_masked	acq45_masked	5	17	400	1	300	300	0	0	402	50	0	1	0	0	0	1	blank2r.bmp	0	1	+	0	4	B4r.bmp	492	1	blank2r.bmp	786	1	GKQX	786	1	blank2r.bmp	866	6	schön	866	1	!	1239	1	!	1306	0	0	0	0	0	0	0	0	0	0	0	0	0	0	0	0	0	0	0	0	0	0	0	0	0	0	0
032819	09:08:41	09:18:03	558608	5.0.10.0	4_exp_AWA_CON_EVA_AMP	190	Rpleas_acq	Same	Rpleas	Bmasked	CS_B	2pleas	distractor2	CONbeforeEVA	acq_US_unple_masked	acq45_masked	5	18	400	1	300	300	0	0	454	46	0	1	0	0	0	1	blank2r.bmp	0	1	+	0	7	C3r.bmp	492	1	blank2r.bmp	786	1	BMVZ	786	1	blank2r.bmp	866	1	fanatisch	866	1	!	1239	1	!	1359	0	0	0	0	0	0	0	0	0	0	0	0	0	0	0	0	0	0	0	0	0	0	0	0	0	0	0
032819	09:08:41	09:18:06	560860	5.0.10.0	4_exp_AWA_CON_EVA_AMP	190	Rpleas_acq	Same	Rpleas	Bmasked	CS_B	2pleas	distractor2	CONbeforeEVA	acq_US_unple_masked	acq45_masked	5	19	400	1	300	300	0	0	459	46	0	1	0	0	0	1	blank2r.bmp	0	1	+	0	3	B3r.bmp	492	1	blank2r.bmp	786	1	BMVZ	786	1	blank2r.bmp	866	2	tot	866	1	!	1239	1	!	1359	0	0	0	0	0	0	0	0	0	0	0	0	0	0	0	0	0	0	0	0	0	0	0	0	0	0	0
032819	09:08:41	09:18:08	563046	5.0.10.0	4_exp_AWA_CON_EVA_AMP	190	Rpleas_acq	Same	Rpleas	Bmasked	CS_B	2pleas	distractor2	CONbeforeEVA	acq_US_unple_masked	acq45_masked	5	20	400	1	300	300	0	0	397	46	0	1	0	0	0	1	blank2r.bmp	0	1	+	0	8	C4r.bmp	492	1	blank2r.bmp	786	1	BMVZ	786	1	blank2r.bmp	866	6	schlecht	866	1	!	1239	1	!	1292	0	0	0	0	0	0	0	0	0	0	0	0	0	0	0	0	0	0	0	0	0	0	0	0	0	0	0
032819	09:08:41	09:18:10	565232	5.0.10.0	4_exp_AWA_CON_EVA_AMP	190	Rpleas_acq	Same	Rpleas	Bmasked	CS_B	2pleas	distractor2	CONbeforeEVA	acq_US_pleas_masked	acq45_masked	5	21	400	1	300	300	0	0	396	50	0	1	0	0	0	1	blank2r.bmp	0	1	+	0	1	B1r.bmp	492	1	blank2r.bmp	786	1	GKQX	786	1	blank2r.bmp	866	4	loyal	866	1	!	1239	1	!	1292	0	0	0	0	0	0	0	0	0	0	0	0	0	0	0	0	0	0	0	0	0	0	0	0	0	0	0
032819	09:08:41	09:18:12	567391	5.0.10.0	4_exp_AWA_CON_EVA_AMP	190	Rpleas_acq	Same	Rpleas	Bmasked	CS_B	2pleas	distractor2	CONbeforeEVA	acq_US_unple_masked	acq45_masked	5	22	400	1	300	300	0	0	359	46	0	1	0	0	0	1	blank2r.bmp	0	1	+	0	2	B2r.bmp	492	1	blank2r.bmp	786	1	BMVZ	786	1	blank2r.bmp	866	3	hindern	866	1	!	1239	1	!	1266	0	0	0	0	0	0	0	0	0	0	0	0	0	0	0	0	0	0	0	0	0	0	0	0	0	0	0
032819	09:08:41	09:18:14	569537	5.0.10.0	4_exp_AWA_CON_EVA_AMP	190	Rpleas_acq	Same	Rpleas	Bmasked	CS_B	2pleas	distractor2	CONbeforeEVA	acq_US_unple_masked	acq45_masked	5	23	400	1	300	300	0	0	353	46	0	1	0	0	0	1	blank2r.bmp	0	1	+	0	5	C1r.bmp	492	1	blank2r.bmp	786	1	BMVZ	786	1	blank2r.bmp	866	3	hindern	866	1	!	1239	1	!	1252	0	0	0	0	0	0	0	0	0	0	0	0	0	0	0	0	0	0	0	0	0	0	0	0	0	0	0
032819	09:08:41	09:18:16	571709	5.0.10.0	4_exp_AWA_CON_EVA_AMP	190	Rpleas_acq	Same	Rpleas	Bmasked	CS_B	2pleas	distractor2	CONbeforeEVA	acq_US_pleas_masked	acq45_masked	5	24	400	1	300	300	0	0	378	50	0	1	0	0	0	1	blank2r.bmp	0	1	+	0	6	C2r.bmp	492	1	blank2r.bmp	786	1	GKQX	786	1	blank2r.bmp	866	1	freundlich	866	1	!	1239	1	!	1279	0	0	0	0	0	0	0	0	0	0	0	0	0	0	0	0	0	0	0	0	0	0	0	0	0	0	0
032819	09:08:41	09:18:19	573895	5.0.10.0	4_exp_AWA_CON_EVA_AMP	190	Rpleas_acq	Same	Rpleas	Bmasked	CS_B	2pleas	distractor2	CONbeforeEVA	acq_US_pleas_masked	acq45_masked	5	25	400	1	300	300	0	0	381	46	0	0	0	0	0	1	blank2r.bmp	0	1	+	0	1	B1r.bmp	492	1	blank2r.bmp	786	1	GKQX	786	1	blank2r.bmp	866	2	treu	866	1	!	1239	1	!	1279	0	0	0	0	0	0	0	0	0	0	0	0	0	0	0	0	0	0	0	0	0	0	0	0	0	0	0
032819	09:08:41	09:18:21	576121	5.0.10.0	4_exp_AWA_CON_EVA_AMP	190	Rpleas_acq	Same	Rpleas	Bmasked	CS_B	2pleas	distractor2	CONbeforeEVA	acq_US_unple_masked	acq45_masked	5	26	400	1	300	300	0	0	437	46	0	1	0	0	0	1	blank2r.bmp	0	1	+	0	8	C4r.bmp	492	1	blank2r.bmp	786	1	BMVZ	786	1	blank2r.bmp	866	1	fanatisch	866	1	!	1239	1	!	1332	0	0	0	0	0	0	0	0	0	0	0	0	0	0	0	0	0	0	0	0	0	0	0	0	0	0	0
032819	09:08:41	09:18:23	578307	5.0.10.0	4_exp_AWA_CON_EVA_AMP	190	Rpleas_acq	Same	Rpleas	Bmasked	CS_B	2pleas	distractor2	CONbeforeEVA	acq_US_pleas_masked	acq45_masked	5	27	400	1	300	300	0	0	395	50	0	1	0	0	0	1	blank2r.bmp	0	1	+	0	7	C3r.bmp	492	1	blank2r.bmp	786	1	GKQX	786	1	blank2r.bmp	866	3	helfen	866	1	!	1239	1	!	1292	0	0	0	0	0	0	0	0	0	0	0	0	0	0	0	0	0	0	0	0	0	0	0	0	0	0	0
032819	09:08:41	09:18:25	580506	5.0.10.0	4_exp_AWA_CON_EVA_AMP	190	Rpleas_acq	Same	Rpleas	Bmasked	CS_B	2pleas	distractor2	CONbeforeEVA	acq_US_unple_masked	acq45_masked	5	28	400	1	300	300	0	0	409	46	0	1	0	0	0	1	blank2r.bmp	0	1	+	0	5	C1r.bmp	492	1	blank2r.bmp	786	1	BMVZ	786	1	blank2r.bmp	866	6	schlecht	866	1	!	1239	1	!	1306	0	0	0	0	0	0	0	0	0	0	0	0	0	0	0	0	0	0	0	0	0	0	0	0	0	0	0
032819	09:08:41	09:18:27	582611	5.0.10.0	4_exp_AWA_CON_EVA_AMP	190	Rpleas_acq	Same	Rpleas	Bmasked	CS_B	2pleas	distractor2	CONbeforeEVA	acq_US_unple_masked	acq45_masked	5	29	400	0	300	300	0	0	331	46	0	1	0	0	0	1	blank2r.bmp	0	1	+	0	2	B2r.bmp	492	1	blank2r.bmp	786	1	BMVZ	786	1	blank2r.bmp	866	2	tot	866	1	!	-1	1	!	-1	0	0	0	0	0	0	0	0	0	0	0	0	0	0	0	0	0	0	0	0	0	0	0	0	0	0	0
032819	09:08:41	09:18:30	584811	5.0.10.0	4_exp_AWA_CON_EVA_AMP	190	Rpleas_acq	Same	Rpleas	Bmasked	CS_B	2pleas	distractor2	CONbeforeEVA	acq_US_pleas_masked	acq45_masked	5	30	400	1	300	300	0	0	387	50	0	1	0	0	0	1	blank2r.bmp	0	1	+	0	3	B3r.bmp	492	1	blank2r.bmp	786	1	GKQX	786	1	blank2r.bmp	866	1	freundlich	866	1	!	1239	1	!	1292	0	0	0	0	0	0	0	0	0	0	0	0	0	0	0	0	0	0	0	0	0	0	0	0	0	0	0
032819	09:08:41	09:18:32	586863	5.0.10.0	4_exp_AWA_CON_EVA_AMP	190	Rpleas_acq	Same	Rpleas	Bmasked	CS_B	2pleas	distractor2	CONbeforeEVA	acq_US_unple_masked	acq45_masked	5	31	400	0	300	300	0	0	284	46	0	1	0	0	0	1	blank2r.bmp	0	1	+	0	4	B4r.bmp	492	1	blank2r.bmp	786	1	BMVZ	786	1	blank2r.bmp	866	4	lasch	866	1	!	-1	1	!	-1	0	0	0	0	0	0	0	0	0	0	0	0	0	0	0	0	0	0	0	0	0	0	0	0	0	0	0
032819	09:08:41	09:18:34	589089	5.0.10.0	4_exp_AWA_CON_EVA_AMP	190	Rpleas_acq	Same	Rpleas	Bmasked	CS_B	2pleas	distractor2	CONbeforeEVA	acq_US_pleas_masked	acq45_masked	5	32	400	1	300	300	0	0	420	50	0	1	0	0	0	1	blank2r.bmp	0	1	+	0	6	C2r.bmp	492	1	blank2r.bmp	786	1	GKQX	786	1	blank2r.bmp	866	4	loyal	866	1	!	1239	1	!	1319	0	0	0	0	0	0	0	0	0	0	0	0	0	0	0	0	0	0	0	0	0	0	0	0	0	0	0
032819	09:08:41	09:18:36	591301	5.0.10.0	4_exp_AWA_CON_EVA_AMP	190	Rpleas_acq	Same	Rpleas	Bmasked	CS_B	2pleas	distractor2	CONbeforeEVA	acq_US_pleas_masked	acq45_masked	5	33	400	1	300	300	0	0	404	50	0	1	0	0	0	1	blank2r.bmp	0	1	+	0	2	B2r.bmp	492	1	blank2r.bmp	786	1	GKQX	786	1	blank2r.bmp	866	6	schön	866	1	!	1239	1	!	1306	0	0	0	0	0	0	0	0	0	0	0	0	0	0	0	0	0	0	0	0	0	0	0	0	0	0	0
032819	09:08:41	09:18:38	593500	5.0.10.0	4_exp_AWA_CON_EVA_AMP	190	Rpleas_acq	Same	Rpleas	Bmasked	CS_B	2pleas	distractor2	CONbeforeEVA	acq_US_unple_masked	acq45_masked	5	34	400	1	300	300	0	0	386	46	0	1	0	0	0	1	blank2r.bmp	0	1	+	0	4	B4r.bmp	492	1	blank2r.bmp	786	1	BMVZ	786	1	blank2r.bmp	866	5	faul	866	1	!	1239	1	!	1292	0	0	0	0	0	0	0	0	0	0	0	0	0	0	0	0	0	0	0	0	0	0	0	0	0	0	0
032819	09:08:41	09:18:40	595699	5.0.10.0	4_exp_AWA_CON_EVA_AMP	190	Rpleas_acq	Same	Rpleas	Bmasked	CS_B	2pleas	distractor2	CONbeforeEVA	acq_US_pleas_masked	acq45_masked	5	35	400	1	300	300	0	0	407	46	0	0	0	0	0	1	blank2r.bmp	0	1	+	0	1	B1r.bmp	492	1	blank2r.bmp	786	1	GKQX	786	1	blank2r.bmp	866	5	fair	866	1	!	1239	1	!	1306	0	0	0	0	0	0	0	0	0	0	0	0	0	0	0	0	0	0	0	0	0	0	0	0	0	0	0
032819	09:08:41	09:18:43	597952	5.0.10.0	4_exp_AWA_CON_EVA_AMP	190	Rpleas_acq	Same	Rpleas	Bmasked	CS_B	2pleas	distractor2	CONbeforeEVA	acq_US_pleas_masked	acq45_masked	5	36	400	1	300	300	0	0	460	50	0	1	0	0	0	1	blank2r.bmp	0	1	+	0	6	C2r.bmp	492	1	blank2r.bmp	786	1	GKQX	786	1	blank2r.bmp	866	2	treu	866	1	!	1239	1	!	1359	0	0	0	0	0	0	0	0	0	0	0	0	0	0	0	0	0	0	0	0	0	0	0	0	0	0	0
032819	09:08:41	09:20:18	693113	5.0.10.0	4_exp_AWA_CON_EVA_AMP	190	Rpleas_acq	Same	Rpleas	Bmasked	CS_B	2pleas	distractor2	CONbeforeEVA	cond_new_unple_456_masked_CS2	condtest_masked_1	8	1	400	1	300	300	0	0	412	46	0	1	0	0	0	1	blank2r.bmp	0	1	+	0	5	C1r.bmp	492	1	blank2r.bmp	786	1	GKQX	786	1	blank2r.bmp	866	3	schroff	866	1	!	1239	1	!	1319	0	0	0	0	0	0	0	0	0	0	0	0	0	0	0	0	0	0	0	0	0	0	0	0	0	0	0
032819	09:08:41	09:20:20	695258	5.0.10.0	4_exp_AWA_CON_EVA_AMP	190	Rpleas_acq	Same	Rpleas	Bmasked	CS_B	2pleas	distractor2	CONbeforeEVA	cond_US_pleas_123_masked_CS1	condtest_masked_1	8	2	400	1	300	300	0	0	346	50	0	1	0	0	0	1	blank2r.bmp	0	1	+	0	8	C4r.bmp	492	1	blank2r.bmp	786	1	BMVZ	786	1	blank2r.bmp	866	2	treu	866	1	!	1239	1	!	1252	0	0	0	0	0	0	0	0	0	0	0	0	0	0	0	0	0	0	0	0	0	0	0	0	0	0	0
032819	09:08:41	09:20:22	697404	5.0.10.0	4_exp_AWA_CON_EVA_AMP	190	Rpleas_acq	Same	Rpleas	Bmasked	CS_B	2pleas	distractor2	CONbeforeEVA	cond_US_unple_123_masked_CS2	condtest_masked_1	8	3	400	1	300	300	0	0	346	46	0	1	0	0	0	1	blank2r.bmp	0	1	+	0	7	C3r.bmp	492	1	blank2r.bmp	786	1	GKQX	786	1	blank2r.bmp	866	1	fanatisch	866	1	!	1239	1	!	1252	0	0	0	0	0	0	0	0	0	0	0	0	0	0	0	0	0	0	0	0	0	0	0	0	0	0	0
032819	09:08:41	09:20:24	699457	5.0.10.0	4_exp_AWA_CON_EVA_AMP	190	Rpleas_acq	Same	Rpleas	Bmasked	CS_B	2pleas	distractor2	CONbeforeEVA	cond_US_unple_123_masked_CS1	condtest_masked_1	8	4	400	0	300	300	0	0	280	50	0	0	0	0	0	1	blank2r.bmp	0	1	+	0	3	B3r.bmp	492	1	blank2r.bmp	786	1	BMVZ	786	1	blank2r.bmp	866	2	tot	866	1	!	-1	1	!	-1	0	0	0	0	0	0	0	0	0	0	0	0	0	0	0	0	0	0	0	0	0	0	0	0	0	0	0
032819	09:08:41	09:20:26	701629	5.0.10.0	4_exp_AWA_CON_EVA_AMP	190	Rpleas_acq	Same	Rpleas	Bmasked	CS_B	2pleas	distractor2	CONbeforeEVA	cond_new_pleas_456_masked_CS1	condtest_masked_1	8	5	400	1	300	300	0	0	364	46	0	0	0	0	0	1	blank2r.bmp	0	1	+	0	2	B2r.bmp	492	1	blank2r.bmp	786	1	BMVZ	786	1	blank2r.bmp	866	3	schlau	866	1	!	1239	1	!	1266	0	0	0	0	0	0	0	0	0	0	0	0	0	0	0	0	0	0	0	0	0	0	0	0	0	0	0
032819	09:08:41	09:20:29	703788	5.0.10.0	4_exp_AWA_CON_EVA_AMP	190	Rpleas_acq	Same	Rpleas	Bmasked	CS_B	2pleas	distractor2	CONbeforeEVA	cond_new_unple_456_masked_CS1	condtest_masked_1	8	6	400	1	300	300	0	0	364	50	0	0	0	0	0	1	blank2r.bmp	0	1	+	0	3	B3r.bmp	492	1	blank2r.bmp	786	1	BMVZ	786	1	blank2r.bmp	866	2	rächen	866	1	!	1239	1	!	1266	0	0	0	0	0	0	0	0	0	0	0	0	0	0	0	0	0	0	0	0	0	0	0	0	0	0	0
032819	09:08:41	09:20:31	706001	5.0.10.0	4_exp_AWA_CON_EVA_AMP	190	Rpleas_acq	Same	Rpleas	Bmasked	CS_B	2pleas	distractor2	CONbeforeEVA	cond_US_pleas_123_masked_CS2	condtest_masked_1	8	7	400	1	300	300	0	0	419	50	0	1	0	0	0	1	blank2r.bmp	0	1	+	0	8	C4r.bmp	492	1	blank2r.bmp	786	1	GKQX	786	1	blank2r.bmp	866	3	helfen	866	1	!	1239	1	!	1319	0	0	0	0	0	0	0	0	0	0	0	0	0	0	0	0	0	0	0	0	0	0	0	0	0	0	0
032819	09:08:41	09:20:33	708146	5.0.10.0	4_exp_AWA_CON_EVA_AMP	190	Rpleas_acq	Same	Rpleas	Bmasked	CS_B	2pleas	distractor2	CONbeforeEVA	cond_new_pleas_456_masked_CS2	condtest_masked_1	8	8	400	1	300	300	0	0	356	50	0	1	0	0	0	1	blank2r.bmp	0	1	+	0	7	C3r.bmp	492	1	blank2r.bmp	786	1	GKQX	786	1	blank2r.bmp	866	1	lachen	866	1	!	1239	1	!	1252	0	0	0	0	0	0	0	0	0	0	0	0	0	0	0	0	0	0	0	0	0	0	0	0	0	0	0
032819	09:08:41	09:20:43	717782	5.0.10.0	4_exp_AWA_CON_EVA_AMP	190	Rpleas_acq	Same	Rpleas	Bmasked	CS_B	2pleas	distractor2	CONbeforeEVA	cond_US_unple_123_masked_CS2	condtest_masked_2	9	1	400	1	300	300	0	0	363	50	0	0	0	0	0	1	blank2r.bmp	0	1	+	0	6	C2r.bmp	492	1	blank2r.bmp	786	1	GKQX	786	1	blank2r.bmp	866	3	hindern	866	1	!	1239	1	!	1266	0	0	0	0	0	0	0	0	0	0	0	0	0	0	0	0	0	0	0	0	0	0	0	0	0	0	0
032819	09:08:41	09:20:45	719995	5.0.10.0	4_exp_AWA_CON_EVA_AMP	190	Rpleas_acq	Same	Rpleas	Bmasked	CS_B	2pleas	distractor2	CONbeforeEVA	cond_new_pleas_456_masked_CS1	condtest_masked_2	9	2	400	1	300	300	0	0	423	50	0	1	0	0	0	1	blank2r.bmp	0	1	+	0	5	C1r.bmp	492	1	blank2r.bmp	786	1	BMVZ	786	1	blank2r.bmp	866	2	retten	866	1	!	1239	1	!	1319	0	0	0	0	0	0	0	0	0	0	0	0	0	0	0	0	0	0	0	0	0	0	0	0	0	0	0
032819	09:08:41	09:20:47	722154	5.0.10.0	4_exp_AWA_CON_EVA_AMP	190	Rpleas_acq	Same	Rpleas	Bmasked	CS_B	2pleas	distractor2	CONbeforeEVA	cond_new_pleas_456_masked_CS2	condtest_masked_2	9	3	400	1	300	300	0	0	359	50	0	1	0	0	0	1	blank2r.bmp	0	1	+	0	4	B4r.bmp	492	1	blank2r.bmp	786	1	GKQX	786	1	blank2r.bmp	866	3	schlau	866	1	!	1239	1	!	1266	0	0	0	0	0	0	0	0	0	0	0	0	0	0	0	0	0	0	0	0	0	0	0	0	0	0	0
032819	09:08:41	09:20:49	724340	5.0.10.0	4_exp_AWA_CON_EVA_AMP	190	Rpleas_acq	Same	Rpleas	Bmasked	CS_B	2pleas	distractor2	CONbeforeEVA	cond_US_unple_123_masked_CS2	condtest_masked_2	9	4	400	1	300	300	0	0	378	46	0	1	0	0	0	1	blank2r.bmp	0	1	+	0	1	B1r.bmp	492	1	blank2r.bmp	786	1	GKQX	786	1	blank2r.bmp	866	3	hindern	866	1	!	1239	1	!	1279	0	0	0	0	0	0	0	0	0	0	0	0	0	0	0	0	0	0	0	0	0	0	0	0	0	0	0
032819	09:08:41	09:20:51	726525	5.0.10.0	4_exp_AWA_CON_EVA_AMP	190	Rpleas_acq	Same	Rpleas	Bmasked	CS_B	2pleas	distractor2	CONbeforeEVA	cond_US_pleas_123_masked_CS1	condtest_masked_2	9	5	400	1	300	300	0	0	379	50	0	1	0	0	0	1	blank2r.bmp	0	1	+	0	6	C2r.bmp	492	1	blank2r.bmp	786	1	BMVZ	786	1	blank2r.bmp	866	1	freundlich	866	1	!	1239	1	!	1279	0	0	0	0	0	0	0	0	0	0	0	0	0	0	0	0	0	0	0	0	0	0	0	0	0	0	0
032819	09:08:41	09:20:54	728778	5.0.10.0	4_exp_AWA_CON_EVA_AMP	190	Rpleas_acq	Same	Rpleas	Bmasked	CS_B	2pleas	distractor2	CONbeforeEVA	cond_US_unple_123_masked_CS2	condtest_masked_2	9	6	400	0	300	300	0	0	484	46	0	1	0	0	0	1	blank2r.bmp	0	1	+	0	4	B4r.bmp	492	1	blank2r.bmp	786	1	GKQX	786	1	blank2r.bmp	866	1	fanatisch	866	1	!	1239	1	!	-1	0	0	0	0	0	0	0	0	0	0	0	0	0	0	0	0	0	0	0	0	0	0	0	0	0	0	0
032819	09:08:41	09:20:56	731017	5.0.10.0	4_exp_AWA_CON_EVA_AMP	190	Rpleas_acq	Same	Rpleas	Bmasked	CS_B	2pleas	distractor2	CONbeforeEVA	cond_US_unple_123_masked_CS2	condtest_masked_2	9	7	400	1	300	300	0	0	436	46	0	1	0	0	0	1	blank2r.bmp	0	1	+	0	2	B2r.bmp	492	1	blank2r.bmp	786	1	GKQX	786	1	blank2r.bmp	866	2	tot	866	1	!	1239	1	!	1332	0	0	0	0	0	0	0	0	0	0	0	0	0	0	0	0	0	0	0	0	0	0	0	0	0	0	0
032819	09:08:41	09:20:58	733269	5.0.10.0	4_exp_AWA_CON_EVA_AMP	190	Rpleas_acq	Same	Rpleas	Bmasked	CS_B	2pleas	distractor2	CONbeforeEVA	cond_new_unple_456_masked_CS1	condtest_masked_2	9	8	400	1	300	300	0	0	454	46	0	1	0	0	0	1	blank2r.bmp	0	1	+	0	8	C4r.bmp	492	1	blank2r.bmp	786	1	BMVZ	786	1	blank2r.bmp	866	1	leiden	866	1	!	1239	1	!	1359	0	0	0	0	0	0	0	0	0	0	0	0	0	0	0	0	0	0	0	0	0	0	0	0	0	0	0
032819	09:08:41	09:21:00	735428	5.0.10.0	4_exp_AWA_CON_EVA_AMP	190	Rpleas_acq	Same	Rpleas	Bmasked	CS_B	2pleas	distractor2	CONbeforeEVA	cond_US_pleas_123_masked_CS1	condtest_masked_2	9	9	400	1	300	300	0	0	359	50	0	1	0	0	0	1	blank2r.bmp	0	1	+	0	1	B1r.bmp	492	1	blank2r.bmp	786	1	BMVZ	786	1	blank2r.bmp	866	1	freundlich	866	1	!	1239	1	!	1266	0	0	0	0	0	0	0	0	0	0	0	0	0	0	0	0	0	0	0	0	0	0	0	0	0	0	0
032819	09:08:41	09:21:02	737601	5.0.10.0	4_exp_AWA_CON_EVA_AMP	190	Rpleas_acq	Same	Rpleas	Bmasked	CS_B	2pleas	distractor2	CONbeforeEVA	cond_US_unple_123_masked_CS1	condtest_masked_2	9	10	400	1	300	300	0	0	374	46	0	1	0	0	0	1	blank2r.bmp	0	1	+	0	5	C1r.bmp	492	1	blank2r.bmp	786	1	BMVZ	786	1	blank2r.bmp	866	3	hindern	866	1	!	1239	1	!	1279	0	0	0	0	0	0	0	0	0	0	0	0	0	0	0	0	0	0	0	0	0	0	0	0	0	0	0
032819	09:08:41	09:21:05	739747	5.0.10.0	4_exp_AWA_CON_EVA_AMP	190	Rpleas_acq	Same	Rpleas	Bmasked	CS_B	2pleas	distractor2	CONbeforeEVA	cond_new_unple_456_masked_CS2	condtest_masked_2	9	11	400	1	300	300	0	0	354	46	0	1	0	0	0	1	blank2r.bmp	0	1	+	0	7	C3r.bmp	492	1	blank2r.bmp	786	1	GKQX	786	1	blank2r.bmp	866	3	schroff	866	1	!	1239	1	!	1252	0	0	0	0	0	0	0	0	0	0	0	0	0	0	0	0	0	0	0	0	0	0	0	0	0	0	0
032819	09:08:41	09:21:07	741906	5.0.10.0	4_exp_AWA_CON_EVA_AMP	190	Rpleas_acq	Same	Rpleas	Bmasked	CS_B	2pleas	distractor2	CONbeforeEVA	cond_US_pleas_123_masked_CS2	condtest_masked_2	9	12	400	1	300	300	0	0	372	46	0	0	0	0	0	1	blank2r.bmp	0	1	+	0	3	B3r.bmp	492	1	blank2r.bmp	786	1	GKQX	786	1	blank2r.bmp	866	3	helfen	866	1	!	1239	1	!	1266	0	0	0	0	0	0	0	0	0	0	0	0	0	0	0	0	0	0	0	0	0	0	0	0	0	0	0
032819	09:08:41	09:21:09	743998	5.0.10.0	4_exp_AWA_CON_EVA_AMP	190	Rpleas_acq	Same	Rpleas	Bmasked	CS_B	2pleas	distractor2	CONbeforeEVA	cond_US_unple_123_masked_CS1	condtest_masked_2	9	13	400	0	300	300	0	0	331	46	0	1	0	0	0	1	blank2r.bmp	0	1	+	0	7	C3r.bmp	492	1	blank2r.bmp	786	1	BMVZ	786	1	blank2r.bmp	866	2	tot	866	1	!	-1	1	!	-1	0	0	0	0	0	0	0	0	0	0	0	0	0	0	0	0	0	0	0	0	0	0	0	0	0	0	0
032819	09:08:41	09:21:11	746237	5.0.10.0	4_exp_AWA_CON_EVA_AMP	190	Rpleas_acq	Same	Rpleas	Bmasked	CS_B	2pleas	distractor2	CONbeforeEVA	cond_US_unple_123_masked_CS1	condtest_masked_2	9	14	400	1	300	300	0	0	430	46	0	1	0	0	0	1	blank2r.bmp	0	1	+	0	5	C1r.bmp	492	1	blank2r.bmp	786	1	BMVZ	786	1	blank2r.bmp	866	1	fanatisch	866	1	!	1239	1	!	1332	0	0	0	0	0	0	0	0	0	0	0	0	0	0	0	0	0	0	0	0	0	0	0	0	0	0	0
032819	09:08:41	09:21:13	748383	5.0.10.0	4_exp_AWA_CON_EVA_AMP	190	Rpleas_acq	Same	Rpleas	Bmasked	CS_B	2pleas	distractor2	CONbeforeEVA	cond_US_pleas_123_masked_CS2	condtest_masked_2	9	15	400	1	300	300	0	0	357	50	0	1	0	0	0	1	blank2r.bmp	0	1	+	0	6	C2r.bmp	492	1	blank2r.bmp	786	1	GKQX	786	1	blank2r.bmp	866	2	treu	866	1	!	1239	1	!	1252	0	0	0	0	0	0	0	0	0	0	0	0	0	0	0	0	0	0	0	0	0	0	0	0	0	0	0
032819	09:08:41	09:21:15	750542	5.0.10.0	4_exp_AWA_CON_EVA_AMP	190	Rpleas_acq	Same	Rpleas	Bmasked	CS_B	2pleas	distractor2	CONbeforeEVA	cond_US_pleas_123_masked_CS1	condtest_masked_2	9	16	400	1	300	300	0	0	372	50	0	1	0	0	0	1	blank2r.bmp	0	1	+	0	1	B1r.bmp	492	1	blank2r.bmp	786	1	BMVZ	786	1	blank2r.bmp	866	1	freundlich	866	1	!	1239	1	!	1266	0	0	0	0	0	0	0	0	0	0	0	0	0	0	0	0	0	0	0	0	0	0	0	0	0	0	0
032819	09:08:41	09:21:18	752795	5.0.10.0	4_exp_AWA_CON_EVA_AMP	190	Rpleas_acq	Same	Rpleas	Bmasked	CS_B	2pleas	distractor2	CONbeforeEVA	cond_new_pleas_456_masked_CS2	condtest_masked_2	9	17	400	0	300	300	0	0	479	50	0	1	0	0	0	1	blank2r.bmp	0	1	+	0	3	B3r.bmp	492	1	blank2r.bmp	786	1	GKQX	786	1	blank2r.bmp	866	2	retten	866	1	!	1239	1	!	-1	0	0	0	0	0	0	0	0	0	0	0	0	0	0	0	0	0	0	0	0	0	0	0	0	0	0	0
032819	09:08:41	09:21:20	754967	5.0.10.0	4_exp_AWA_CON_EVA_AMP	190	Rpleas_acq	Same	Rpleas	Bmasked	CS_B	2pleas	distractor2	CONbeforeEVA	cond_new_pleas_456_masked_CS2	condtest_masked_2	9	18	400	1	300	300	0	0	346	50	0	1	0	0	0	1	blank2r.bmp	0	1	+	0	8	C4r.bmp	492	1	blank2r.bmp	786	1	GKQX	786	1	blank2r.bmp	866	1	lachen	866	1	!	1239	1	!	1252	0	0	0	0	0	0	0	0	0	0	0	0	0	0	0	0	0	0	0	0	0	0	0	0	0	0	0
032819	09:08:41	09:21:22	757060	5.0.10.0	4_exp_AWA_CON_EVA_AMP	190	Rpleas_acq	Same	Rpleas	Bmasked	CS_B	2pleas	distractor2	CONbeforeEVA	cond_new_pleas_456_masked_CS1	condtest_masked_2	9	19	400	0	300	300	0	0	320	50	0	1	0	0	0	1	blank2r.bmp	0	1	+	0	2	B2r.bmp	492	1	blank2r.bmp	786	1	BMVZ	786	1	blank2r.bmp	866	1	lachen	866	1	!	-1	1	!	-1	0	0	0	0	0	0	0	0	0	0	0	0	0	0	0	0	0	0	0	0	0	0	0	0	0	0	0
032819	09:08:41	09:21:24	759325	5.0.10.0	4_exp_AWA_CON_EVA_AMP	190	Rpleas_acq	Same	Rpleas	Bmasked	CS_B	2pleas	distractor2	CONbeforeEVA	cond_US_pleas_123_masked_CS1	condtest_masked_2	9	20	400	0	300	300	0	0	485	50	0	1	0	0	0	1	blank2r.bmp	0	1	+	0	4	B4r.bmp	492	1	blank2r.bmp	786	1	BMVZ	786	1	blank2r.bmp	866	2	treu	866	1	!	1239	1	!	-1	0	0	0	0	0	0	0	0	0	0	0	0	0	0	0	0	0	0	0	0	0	0	0	0	0	0	0
032819	09:08:41	09:21:26	761591	5.0.10.0	4_exp_AWA_CON_EVA_AMP	190	Rpleas_acq	Same	Rpleas	Bmasked	CS_B	2pleas	distractor2	CONbeforeEVA	cond_new_unple_456_masked_CS2	condtest_masked_2	9	21	400	0	300	300	0	0	488	46	0	1	0	0	0	1	blank2r.bmp	0	1	+	0	5	C1r.bmp	492	1	blank2r.bmp	786	1	GKQX	786	1	blank2r.bmp	866	2	rächen	866	1	!	1239	1	!	-1	0	0	0	0	0	0	0	0	0	0	0	0	0	0	0	0	0	0	0	0	0	0	0	0	0	0	0
032819	09:08:41	09:21:29	763763	5.0.10.0	4_exp_AWA_CON_EVA_AMP	190	Rpleas_acq	Same	Rpleas	Bmasked	CS_B	2pleas	distractor2	CONbeforeEVA	cond_new_pleas_456_masked_CS2	condtest_masked_2	9	22	400	1	300	300	0	0	364	46	0	0	0	0	0	1	blank2r.bmp	0	1	+	0	7	C3r.bmp	492	1	blank2r.bmp	786	1	GKQX	786	1	blank2r.bmp	866	2	retten	866	1	!	1239	1	!	1266	0	0	0	0	0	0	0	0	0	0	0	0	0	0	0	0	0	0	0	0	0	0	0	0	0	0	0
032819	09:08:41	09:21:31	765923	5.0.10.0	4_exp_AWA_CON_EVA_AMP	190	Rpleas_acq	Same	Rpleas	Bmasked	CS_B	2pleas	distractor2	CONbeforeEVA	cond_US_pleas_123_masked_CS2	condtest_masked_2	9	23	400	1	300	300	0	0	368	50	0	1	0	0	0	1	blank2r.bmp	0	1	+	0	2	B2r.bmp	492	1	blank2r.bmp	786	1	GKQX	786	1	blank2r.bmp	866	3	helfen	866	1	!	1239	1	!	1266	0	0	0	0	0	0	0	0	0	0	0	0	0	0	0	0	0	0	0	0	0	0	0	0	0	0	0
032819	09:08:41	09:21:33	768108	5.0.10.0	4_exp_AWA_CON_EVA_AMP	190	Rpleas_acq	Same	Rpleas	Bmasked	CS_B	2pleas	distractor2	CONbeforeEVA	cond_US_unple_123_masked_CS1	condtest_masked_2	9	24	400	1	300	300	0	0	394	46	0	1	0	0	0	1	blank2r.bmp	0	1	+	0	6	C2r.bmp	492	1	blank2r.bmp	786	1	BMVZ	786	1	blank2r.bmp	866	3	hindern	866	1	!	1239	1	!	1292	0	0	0	0	0	0	0	0	0	0	0	0	0	0	0	0	0	0	0	0	0	0	0	0	0	0	0
032819	09:08:41	09:21:35	770254	5.0.10.0	4_exp_AWA_CON_EVA_AMP	190	Rpleas_acq	Same	Rpleas	Bmasked	CS_B	2pleas	distractor2	CONbeforeEVA	cond_US_pleas_123_masked_CS1	condtest_masked_2	9	25	400	1	300	300	0	0	349	50	0	1	0	0	0	1	blank2r.bmp	0	1	+	0	3	B3r.bmp	492	1	blank2r.bmp	786	1	BMVZ	786	1	blank2r.bmp	866	2	treu	866	1	!	1239	1	!	1252	0	0	0	0	0	0	0	0	0	0	0	0	0	0	0	0	0	0	0	0	0	0	0	0	0	0	0
032819	09:08:41	09:21:37	772400	5.0.10.0	4_exp_AWA_CON_EVA_AMP	190	Rpleas_acq	Same	Rpleas	Bmasked	CS_B	2pleas	distractor2	CONbeforeEVA	cond_new_pleas_456_masked_CS2	condtest_masked_2	9	26	400	1	300	300	0	0	357	50	0	1	0	0	0	1	blank2r.bmp	0	1	+	0	8	C4r.bmp	492	1	blank2r.bmp	786	1	GKQX	786	1	blank2r.bmp	866	3	schlau	866	1	!	1239	1	!	1252	0	0	0	0	0	0	0	0	0	0	0	0	0	0	0	0	0	0	0	0	0	0	0	0	0	0	0
032819	09:08:41	09:21:39	774652	5.0.10.0	4_exp_AWA_CON_EVA_AMP	190	Rpleas_acq	Same	Rpleas	Bmasked	CS_B	2pleas	distractor2	CONbeforeEVA	cond_new_pleas_456_masked_CS1	condtest_masked_2	9	27	400	1	300	300	0	0	458	50	0	1	0	0	0	1	blank2r.bmp	0	1	+	0	4	B4r.bmp	492	1	blank2r.bmp	786	1	BMVZ	786	1	blank2r.bmp	866	3	schlau	866	1	!	1239	1	!	1359	0	0	0	0	0	0	0	0	0	0	0	0	0	0	0	0	0	0	0	0	0	0	0	0	0	0	0
032819	09:08:41	09:21:41	776718	5.0.10.0	4_exp_AWA_CON_EVA_AMP	190	Rpleas_acq	Same	Rpleas	Bmasked	CS_B	2pleas	distractor2	CONbeforeEVA	cond_new_unple_456_masked_CS2	condtest_masked_2	9	28	400	0	300	300	0	0	296	50	0	0	0	0	0	1	blank2r.bmp	0	1	+	0	1	B1r.bmp	492	1	blank2r.bmp	786	1	GKQX	786	1	blank2r.bmp	866	1	leiden	866	1	!	-1	1	!	-1	0	0	0	0	0	0	0	0	0	0	0	0	0	0	0	0	0	0	0	0	0	0	0	0	0	0	0
032819	09:08:41	09:21:44	778917	5.0.10.0	4_exp_AWA_CON_EVA_AMP	190	Rpleas_acq	Same	Rpleas	Bmasked	CS_B	2pleas	distractor2	CONbeforeEVA	cond_US_pleas_123_masked_CS2	condtest_masked_2	9	29	400	1	300	300	0	0	386	50	0	1	0	0	0	1	blank2r.bmp	0	1	+	0	7	C3r.bmp	492	1	blank2r.bmp	786	1	GKQX	786	1	blank2r.bmp	866	1	freundlich	866	1	!	1239	1	!	1292	0	0	0	0	0	0	0	0	0	0	0	0	0	0	0	0	0	0	0	0	0	0	0	0	0	0	0
032819	09:08:41	09:21:46	781116	5.0.10.0	4_exp_AWA_CON_EVA_AMP	190	Rpleas_acq	Same	Rpleas	Bmasked	CS_B	2pleas	distractor2	CONbeforeEVA	cond_new_unple_456_masked_CS1	condtest_masked_2	9	30	400	1	300	300	0	0	403	46	0	1	0	0	0	1	blank2r.bmp	0	1	+	0	1	B1r.bmp	492	1	blank2r.bmp	786	1	BMVZ	786	1	blank2r.bmp	866	2	rächen	866	1	!	1239	1	!	1306	0	0	0	0	0	0	0	0	0	0	0	0	0	0	0	0	0	0	0	0	0	0	0	0	0	0	0
032819	09:08:41	09:21:48	783262	5.0.10.0	4_exp_AWA_CON_EVA_AMP	190	Rpleas_acq	Same	Rpleas	Bmasked	CS_B	2pleas	distractor2	CONbeforeEVA	cond_new_pleas_456_masked_CS1	condtest_masked_2	9	31	400	1	300	300	0	0	346	50	0	1	0	0	0	1	blank2r.bmp	0	1	+	0	8	C4r.bmp	492	1	blank2r.bmp	786	1	BMVZ	786	1	blank2r.bmp	866	2	retten	866	1	!	1239	1	!	1252	0	0	0	0	0	0	0	0	0	0	0	0	0	0	0	0	0	0	0	0	0	0	0	0	0	0	0
032819	09:08:41	09:21:50	785408	5.0.10.0	4_exp_AWA_CON_EVA_AMP	190	Rpleas_acq	Same	Rpleas	Bmasked	CS_B	2pleas	distractor2	CONbeforeEVA	cond_new_unple_456_masked_CS2	condtest_masked_2	9	32	400	1	300	300	0	0	347	50	0	0	0	0	0	1	blank2r.bmp	0	1	+	0	3	B3r.bmp	492	1	blank2r.bmp	786	1	GKQX	786	1	blank2r.bmp	866	1	leiden	866	1	!	1239	1	!	1252	0	0	0	0	0	0	0	0	0	0	0	0	0	0	0	0	0	0	0	0	0	0	0	0	0	0	0
032819	09:08:41	09:21:52	787594	5.0.10.0	4_exp_AWA_CON_EVA_AMP	190	Rpleas_acq	Same	Rpleas	Bmasked	CS_B	2pleas	distractor2	CONbeforeEVA	cond_US_unple_123_masked_CS1	condtest_masked_2	9	33	400	1	300	300	0	0	389	46	0	1	0	0	0	1	blank2r.bmp	0	1	+	0	5	C1r.bmp	492	1	blank2r.bmp	786	1	BMVZ	786	1	blank2r.bmp	866	2	tot	866	1	!	1239	1	!	1292	0	0	0	0	0	0	0	0	0	0	0	0	0	0	0	0	0	0	0	0	0	0	0	0	0	0	0
032819	09:08:41	09:21:55	789739	5.0.10.0	4_exp_AWA_CON_EVA_AMP	190	Rpleas_acq	Same	Rpleas	Bmasked	CS_B	2pleas	distractor2	CONbeforeEVA	cond_new_unple_456_masked_CS1	condtest_masked_2	9	34	400	1	300	300	0	0	350	50	0	0	0	0	0	1	blank2r.bmp	0	1	+	0	6	C2r.bmp	492	1	blank2r.bmp	786	1	BMVZ	786	1	blank2r.bmp	866	3	schroff	866	1	!	1239	1	!	1252	0	0	0	0	0	0	0	0	0	0	0	0	0	0	0	0	0	0	0	0	0	0	0	0	0	0	0
032819	09:08:41	09:21:57	791938	5.0.10.0	4_exp_AWA_CON_EVA_AMP	190	Rpleas_acq	Same	Rpleas	Bmasked	CS_B	2pleas	distractor2	CONbeforeEVA	cond_new_unple_456_masked_CS1	condtest_masked_2	9	35	400	1	300	300	0	0	401	46	0	1	0	0	0	1	blank2r.bmp	0	1	+	0	4	B4r.bmp	492	1	blank2r.bmp	786	1	BMVZ	786	1	blank2r.bmp	866	3	schroff	866	1	!	1239	1	!	1306	0	0	0	0	0	0	0	0	0	0	0	0	0	0	0	0	0	0	0	0	0	0	0	0	0	0	0
032819	09:08:41	09:21:59	794138	5.0.10.0	4_exp_AWA_CON_EVA_AMP	190	Rpleas_acq	Same	Rpleas	Bmasked	CS_B	2pleas	distractor2	CONbeforeEVA	cond_new_pleas_456_masked_CS1	condtest_masked_2	9	36	400	1	300	300	0	0	410	50	0	1	0	0	0	1	blank2r.bmp	0	1	+	0	2	B2r.bmp	492	1	blank2r.bmp	786	1	BMVZ	786	1	blank2r.bmp	866	1	lachen	866	1	!	1239	1	!	1306	0	0	0	0	0	0	0	0	0	0	0	0	0	0	0	0	0	0	0	0	0	0	0	0	0	0	0
032819	09:08:41	09:22:01	796323	5.0.10.0	4_exp_AWA_CON_EVA_AMP	190	Rpleas_acq	Same	Rpleas	Bmasked	CS_B	2pleas	distractor2	CONbeforeEVA	cond_US_unple_123_masked_CS2	condtest_masked_2	9	37	400	1	300	300	0	0	398	46	0	1	0	0	0	1	blank2r.bmp	0	1	+	0	6	C2r.bmp	492	1	blank2r.bmp	786	1	GKQX	786	1	blank2r.bmp	866	1	fanatisch	866	1	!	1239	1	!	1292	0	0	0	0	0	0	0	0	0	0	0	0	0	0	0	0	0	0	0	0	0	0	0	0	0	0	0
032819	09:08:41	09:22:03	798482	5.0.10.0	4_exp_AWA_CON_EVA_AMP	190	Rpleas_acq	Same	Rpleas	Bmasked	CS_B	2pleas	distractor2	CONbeforeEVA	cond_new_unple_456_masked_CS1	condtest_masked_2	9	38	400	1	300	300	0	0	372	46	0	1	0	0	0	1	blank2r.bmp	0	1	+	0	1	B1r.bmp	492	1	blank2r.bmp	786	1	BMVZ	786	1	blank2r.bmp	866	1	leiden	866	1	!	1239	1	!	1266	0	0	0	0	0	0	0	0	0	0	0	0	0	0	0	0	0	0	0	0	0	0	0	0	0	0	0
032819	09:08:41	09:22:05	800655	5.0.10.0	4_exp_AWA_CON_EVA_AMP	190	Rpleas_acq	Same	Rpleas	Bmasked	CS_B	2pleas	distractor2	CONbeforeEVA	cond_new_unple_456_masked_CS2	condtest_masked_2	9	39	400	1	300	300	0	0	377	46	0	1	0	0	0	1	blank2r.bmp	0	1	+	0	7	C3r.bmp	492	1	blank2r.bmp	786	1	GKQX	786	1	blank2r.bmp	866	2	rächen	866	1	!	1239	1	!	1279	0	0	0	0	0	0	0	0	0	0	0	0	0	0	0	0	0	0	0	0	0	0	0	0	0	0	0
032819	09:08:41	09:22:08	802907	5.0.10.0	4_exp_AWA_CON_EVA_AMP	190	Rpleas_acq	Same	Rpleas	Bmasked	CS_B	2pleas	distractor2	CONbeforeEVA	cond_US_pleas_123_masked_CS2	condtest_masked_2	9	40	400	0	300	300	0	0	479	50	0	1	0	0	0	1	blank2r.bmp	0	1	+	0	3	B3r.bmp	492	1	blank2r.bmp	786	1	GKQX	786	1	blank2r.bmp	866	3	helfen	866	1	!	1239	1	!	-1	0	0	0	0	0	0	0	0	0	0	0	0	0	0	0	0	0	0	0	0	0	0	0	0	0	0	0
032819	09:08:41	09:22:18	813663	5.0.10.0	4_exp_AWA_CON_EVA_AMP	190	Rpleas_acq	Same	Rpleas	Bmasked	CS_B	2pleas	distractor2	CONbeforeEVA	cond_new_pleas_123_masked_CS2	condtest_masked_3	10	1	400	1	300	300	0	0	436	50	0	1	0	0	0	1	blank2r.bmp	0	1	+	0	5	C1r.bmp	492	1	blank2r.bmp	786	1	GKQX	786	1	blank2r.bmp	866	2	ehrlich	866	1	!	1239	1	!	1332	0	0	0	0	0	0	0	0	0	0	0	0	0	0	0	0	0	0	0	0	0	0	0	0	0	0	0
032819	09:08:41	09:22:21	815875	5.0.10.0	4_exp_AWA_CON_EVA_AMP	190	Rpleas_acq	Same	Rpleas	Bmasked	CS_B	2pleas	distractor2	CONbeforeEVA	cond_US_unple_456_masked_CS2	condtest_masked_3	10	2	400	1	300	300	0	0	405	46	0	1	0	0	0	1	blank2r.bmp	0	1	+	0	4	B4r.bmp	492	1	blank2r.bmp	786	1	GKQX	786	1	blank2r.bmp	866	2	faul	866	1	!	1239	1	!	1306	0	0	0	0	0	0	0	0	0	0	0	0	0	0	0	0	0	0	0	0	0	0	0	0	0	0	0
032819	09:08:41	09:22:23	818088	5.0.10.0	4_exp_AWA_CON_EVA_AMP	190	Rpleas_acq	Same	Rpleas	Bmasked	CS_B	2pleas	distractor2	CONbeforeEVA	cond_US_unple_456_masked_CS1	condtest_masked_3	10	3	400	1	300	300	0	0	420	46	0	1	0	0	0	1	blank2r.bmp	0	1	+	0	8	C4r.bmp	492	1	blank2r.bmp	786	1	BMVZ	786	1	blank2r.bmp	866	3	schlecht	866	1	!	1239	1	!	1319	0	0	0	0	0	0	0	0	0	0	0	0	0	0	0	0	0	0	0	0	0	0	0	0	0	0	0
032819	09:08:41	09:22:25	820233	5.0.10.0	4_exp_AWA_CON_EVA_AMP	190	Rpleas_acq	Same	Rpleas	Bmasked	CS_B	2pleas	distractor2	CONbeforeEVA	cond_US_pleas_456_masked_CS2	condtest_masked_3	10	4	400	1	300	300	0	0	358	46	0	0	0	0	0	1	blank2r.bmp	0	1	+	0	2	B2r.bmp	492	1	blank2r.bmp	786	1	GKQX	786	1	blank2r.bmp	866	1	loyal	866	1	!	1239	1	!	1252	0	0	0	0	0	0	0	0	0	0	0	0	0	0	0	0	0	0	0	0	0	0	0	0	0	0	0
032819	09:08:41	09:22:27	822433	5.0.10.0	4_exp_AWA_CON_EVA_AMP	190	Rpleas_acq	Same	Rpleas	Bmasked	CS_B	2pleas	distractor2	CONbeforeEVA	cond_US_pleas_456_masked_CS1	condtest_masked_3	10	5	400	1	300	300	0	0	410	50	0	1	0	0	0	1	blank2r.bmp	0	1	+	0	8	C4r.bmp	492	1	blank2r.bmp	786	1	BMVZ	786	1	blank2r.bmp	866	2	fair	866	1	!	1239	1	!	1306	0	0	0	0	0	0	0	0	0	0	0	0	0	0	0	0	0	0	0	0	0	0	0	0	0	0	0
032819	09:08:41	09:22:29	824645	5.0.10.0	4_exp_AWA_CON_EVA_AMP	190	Rpleas_acq	Same	Rpleas	Bmasked	CS_B	2pleas	distractor2	CONbeforeEVA	cond_new_unple_123_masked_CS2	condtest_masked_3	10	6	400	1	300	300	0	0	422	46	0	1	0	0	0	1	blank2r.bmp	0	1	+	0	6	C2r.bmp	492	1	blank2r.bmp	786	1	GKQX	786	1	blank2r.bmp	866	1	tyrannisch	866	1	!	1239	1	!	1319	0	0	0	0	0	0	0	0	0	0	0	0	0	0	0	0	0	0	0	0	0	0	0	0	0	0	0
032819	09:08:41	09:22:32	826804	5.0.10.0	4_exp_AWA_CON_EVA_AMP	190	Rpleas_acq	Same	Rpleas	Bmasked	CS_B	2pleas	distractor2	CONbeforeEVA	cond_US_pleas_456_masked_CS2	condtest_masked_3	10	7	400	1	300	300	0	0	346	50	0	1	0	0	0	1	blank2r.bmp	0	1	+	0	3	B3r.bmp	492	1	blank2r.bmp	786	1	GKQX	786	1	blank2r.bmp	866	3	schön	866	1	!	1239	1	!	1252	0	0	0	0	0	0	0	0	0	0	0	0	0	0	0	0	0	0	0	0	0	0	0	0	0	0	0
032819	09:08:41	09:22:34	829057	5.0.10.0	4_exp_AWA_CON_EVA_AMP	190	Rpleas_acq	Same	Rpleas	Bmasked	CS_B	2pleas	distractor2	CONbeforeEVA	cond_new_unple_123_masked_CS1	condtest_masked_3	10	8	400	0	300	300	0	0	479	46	0	1	0	0	0	1	blank2r.bmp	0	1	+	0	5	C1r.bmp	492	1	blank2r.bmp	786	1	BMVZ	786	1	blank2r.bmp	866	3	strafen	866	1	!	1239	1	!	-1	0	0	0	0	0	0	0	0	0	0	0	0	0	0	0	0	0	0	0	0	0	0	0	0	0	0	0
032819	09:08:41	09:22:36	831269	5.0.10.0	4_exp_AWA_CON_EVA_AMP	190	Rpleas_acq	Same	Rpleas	Bmasked	CS_B	2pleas	distractor2	CONbeforeEVA	cond_new_pleas_123_masked_CS2	condtest_masked_3	10	9	400	1	300	300	0	0	409	50	0	1	0	0	0	1	blank2r.bmp	0	1	+	0	4	B4r.bmp	492	1	blank2r.bmp	786	1	GKQX	786	1	blank2r.bmp	866	1	tolerant	866	1	!	1239	1	!	1306	0	0	0	0	0	0	0	0	0	0	0	0	0	0	0	0	0	0	0	0	0	0	0	0	0	0	0
032819	09:08:41	09:22:38	833468	5.0.10.0	4_exp_AWA_CON_EVA_AMP	190	Rpleas_acq	Same	Rpleas	Bmasked	CS_B	2pleas	distractor2	CONbeforeEVA	cond_US_unple_456_masked_CS1	condtest_masked_3	10	10	400	1	300	300	0	0	399	46	0	1	0	0	0	1	blank2r.bmp	0	1	+	0	1	B1r.bmp	492	1	blank2r.bmp	786	1	BMVZ	786	1	blank2r.bmp	866	1	lasch	866	1	!	1239	1	!	1306	0	0	0	0	0	0	0	0	0	0	0	0	0	0	0	0	0	0	0	0	0	0	0	0	0	0	0
032819	09:08:41	09:22:40	835694	5.0.10.0	4_exp_AWA_CON_EVA_AMP	190	Rpleas_acq	Same	Rpleas	Bmasked	CS_B	2pleas	distractor2	CONbeforeEVA	cond_new_unple_123_masked_CS1	condtest_masked_3	10	11	400	1	300	300	0	0	434	50	0	0	0	0	0	1	blank2r.bmp	0	1	+	0	7	C3r.bmp	492	1	blank2r.bmp	786	1	BMVZ	786	1	blank2r.bmp	866	2	eitel	866	1	!	1239	1	!	1332	0	0	0	0	0	0	0	0	0	0	0	0	0	0	0	0	0	0	0	0	0	0	0	0	0	0	0
032819	09:08:41	09:22:43	837946	5.0.10.0	4_exp_AWA_CON_EVA_AMP	190	Rpleas_acq	Same	Rpleas	Bmasked	CS_B	2pleas	distractor2	CONbeforeEVA	cond_US_unple_456_masked_CS1	condtest_masked_3	10	12	400	0	300	300	0	0	485	46	0	1	0	0	0	1	blank2r.bmp	0	1	+	0	2	B2r.bmp	492	1	blank2r.bmp	786	1	BMVZ	786	1	blank2r.bmp	866	3	schlecht	866	1	!	1239	1	!	-1	0	0	0	0	0	0	0	0	0	0	0	0	0	0	0	0	0	0	0	0	0	0	0	0	0	0	0
032819	09:08:41	09:22:45	840105	5.0.10.0	4_exp_AWA_CON_EVA_AMP	190	Rpleas_acq	Same	Rpleas	Bmasked	CS_B	2pleas	distractor2	CONbeforeEVA	cond_US_pleas_456_masked_CS1	condtest_masked_3	10	13	400	1	300	300	0	0	353	50	0	1	0	0	0	1	blank2r.bmp	0	1	+	0	1	B1r.bmp	492	1	blank2r.bmp	786	1	BMVZ	786	1	blank2r.bmp	866	3	schön	866	1	!	1239	1	!	1252	0	0	0	0	0	0	0	0	0	0	0	0	0	0	0	0	0	0	0	0	0	0	0	0	0	0	0
032819	09:08:41	09:22:47	842264	5.0.10.0	4_exp_AWA_CON_EVA_AMP	190	Rpleas_acq	Same	Rpleas	Bmasked	CS_B	2pleas	distractor2	CONbeforeEVA	cond_US_unple_456_masked_CS1	condtest_masked_3	10	14	400	1	300	300	0	0	348	46	0	1	0	0	0	1	blank2r.bmp	0	1	+	0	2	B2r.bmp	492	1	blank2r.bmp	786	1	BMVZ	786	1	blank2r.bmp	866	1	lasch	866	1	!	1239	1	!	1252	0	0	0	0	0	0	0	0	0	0	0	0	0	0	0	0	0	0	0	0	0	0	0	0	0	0	0
032819	09:08:41	09:22:49	844424	5.0.10.0	4_exp_AWA_CON_EVA_AMP	190	Rpleas_acq	Same	Rpleas	Bmasked	CS_B	2pleas	distractor2	CONbeforeEVA	cond_new_unple_123_masked_CS2	condtest_masked_3	10	15	400	1	300	300	0	0	366	46	0	1	0	0	0	1	blank2r.bmp	0	1	+	0	5	C1r.bmp	492	1	blank2r.bmp	786	1	GKQX	786	1	blank2r.bmp	866	1	tyrannisch	866	1	!	1239	1	!	1266	0	0	0	0	0	0	0	0	0	0	0	0	0	0	0	0	0	0	0	0	0	0	0	0	0	0	0
032819	09:08:41	09:22:51	846529	5.0.10.0	4_exp_AWA_CON_EVA_AMP	190	Rpleas_acq	Same	Rpleas	Bmasked	CS_B	2pleas	distractor2	CONbeforeEVA	cond_new_unple_123_masked_CS1	condtest_masked_3	10	16	400	0	300	300	0	0	332	46	0	1	0	0	0	1	blank2r.bmp	0	1	+	0	8	C4r.bmp	492	1	blank2r.bmp	786	1	BMVZ	786	1	blank2r.bmp	866	2	eitel	866	1	!	-1	1	!	-1	0	0	0	0	0	0	0	0	0	0	0	0	0	0	0	0	0	0	0	0	0	0	0	0	0	0	0
032819	09:08:41	09:22:53	848688	5.0.10.0	4_exp_AWA_CON_EVA_AMP	190	Rpleas_acq	Same	Rpleas	Bmasked	CS_B	2pleas	distractor2	CONbeforeEVA	cond_US_unple_456_masked_CS2	condtest_masked_3	10	17	400	1	300	300	0	0	353	46	0	1	0	0	0	1	blank2r.bmp	0	1	+	0	7	C3r.bmp	492	1	blank2r.bmp	786	1	GKQX	786	1	blank2r.bmp	866	2	faul	866	1	!	1239	1	!	1252	0	0	0	0	0	0	0	0	0	0	0	0	0	0	0	0	0	0	0	0	0	0	0	0	0	0	0
032819	09:08:41	09:22:56	850834	5.0.10.0	4_exp_AWA_CON_EVA_AMP	190	Rpleas_acq	Same	Rpleas	Bmasked	CS_B	2pleas	distractor2	CONbeforeEVA	cond_US_unple_456_masked_CS2	condtest_masked_3	10	18	400	1	300	300	0	0	349	46	0	1	0	0	0	1	blank2r.bmp	0	1	+	0	4	B4r.bmp	492	1	blank2r.bmp	786	1	GKQX	786	1	blank2r.bmp	866	1	lasch	866	1	!	1239	1	!	1252	0	0	0	0	0	0	0	0	0	0	0	0	0	0	0	0	0	0	0	0	0	0	0	0	0	0	0
032819	09:08:41	09:22:58	852927	5.0.10.0	4_exp_AWA_CON_EVA_AMP	190	Rpleas_acq	Same	Rpleas	Bmasked	CS_B	2pleas	distractor2	CONbeforeEVA	cond_new_unple_123_masked_CS1	condtest_masked_3	10	19	400	0	300	300	0	0	329	46	0	1	0	0	0	1	blank2r.bmp	0	1	+	0	6	C2r.bmp	492	1	blank2r.bmp	786	1	BMVZ	786	1	blank2r.bmp	866	3	strafen	866	1	!	-1	1	!	-1	0	0	0	0	0	0	0	0	0	0	0	0	0	0	0	0	0	0	0	0	0	0	0	0	0	0	0
032819	09:08:41	09:23:00	855032	5.0.10.0	4_exp_AWA_CON_EVA_AMP	190	Rpleas_acq	Same	Rpleas	Bmasked	CS_B	2pleas	distractor2	CONbeforeEVA	cond_new_unple_123_masked_CS1	condtest_masked_3	10	20	400	0	300	300	0	0	321	46	0	1	0	0	0	1	blank2r.bmp	0	1	+	0	3	B3r.bmp	492	1	blank2r.bmp	786	1	BMVZ	786	1	blank2r.bmp	866	2	eitel	866	1	!	-1	1	!	-1	0	0	0	0	0	0	0	0	0	0	0	0	0	0	0	0	0	0	0	0	0	0	0	0	0	0	0
032819	09:08:41	09:23:02	857232	5.0.10.0	4_exp_AWA_CON_EVA_AMP	190	Rpleas_acq	Same	Rpleas	Bmasked	CS_B	2pleas	distractor2	CONbeforeEVA	cond_new_unple_123_masked_CS2	condtest_masked_3	10	21	400	1	300	300	0	0	396	46	0	1	0	0	0	1	blank2r.bmp	0	1	+	0	4	B4r.bmp	492	1	blank2r.bmp	786	1	GKQX	786	1	blank2r.bmp	866	1	tyrannisch	866	1	!	1239	1	!	1292	0	0	0	0	0	0	0	0	0	0	0	0	0	0	0	0	0	0	0	0	0	0	0	0	0	0	0
032819	09:08:41	09:23:04	859484	5.0.10.0	4_exp_AWA_CON_EVA_AMP	190	Rpleas_acq	Same	Rpleas	Bmasked	CS_B	2pleas	distractor2	CONbeforeEVA	cond_US_pleas_456_masked_CS1	condtest_masked_3	10	22	400	0	300	300	0	0	481	50	0	1	0	0	0	1	blank2r.bmp	0	1	+	0	7	C3r.bmp	492	1	blank2r.bmp	786	1	BMVZ	786	1	blank2r.bmp	866	1	loyal	866	1	!	1239	1	!	-1	0	0	0	0	0	0	0	0	0	0	0	0	0	0	0	0	0	0	0	0	0	0	0	0	0	0	0
032819	09:08:41	09:23:06	861710	5.0.10.0	4_exp_AWA_CON_EVA_AMP	190	Rpleas_acq	Same	Rpleas	Bmasked	CS_B	2pleas	distractor2	CONbeforeEVA	cond_US_unple_456_masked_CS2	condtest_masked_3	10	23	400	1	300	300	0	0	407	46	0	1	0	0	0	1	blank2r.bmp	0	1	+	0	8	C4r.bmp	492	1	blank2r.bmp	786	1	GKQX	786	1	blank2r.bmp	866	3	schlecht	866	1	!	1239	1	!	1306	0	0	0	0	0	0	0	0	0	0	0	0	0	0	0	0	0	0	0	0	0	0	0	0	0	0	0
032819	09:08:41	09:23:09	863802	5.0.10.0	4_exp_AWA_CON_EVA_AMP	190	Rpleas_acq	Same	Rpleas	Bmasked	CS_B	2pleas	distractor2	CONbeforeEVA	cond_new_unple_123_masked_CS1	condtest_masked_3	10	24	400	0	300	300	0	0	329	46	0	1	0	0	0	1	blank2r.bmp	0	1	+	0	6	C2r.bmp	492	1	blank2r.bmp	786	1	BMVZ	786	1	blank2r.bmp	866	3	strafen	866	1	!	-1	1	!	-1	0	0	0	0	0	0	0	0	0	0	0	0	0	0	0	0	0	0	0	0	0	0	0	0	0	0	0
032819	09:08:41	09:23:11	866081	5.0.10.0	4_exp_AWA_CON_EVA_AMP	190	Rpleas_acq	Same	Rpleas	Bmasked	CS_B	2pleas	distractor2	CONbeforeEVA	cond_new_pleas_123_masked_CS2	condtest_masked_3	10	25	400	1	300	300	0	0	465	50	0	1	0	0	0	1	blank2r.bmp	0	1	+	0	3	B3r.bmp	492	1	blank2r.bmp	786	1	GKQX	786	1	blank2r.bmp	866	3	spielen	866	1	!	1239	1	!	1372	0	0	0	0	0	0	0	0	0	0	0	0	0	0	0	0	0	0	0	0	0	0	0	0	0	0	0
032819	09:08:41	09:23:13	868227	5.0.10.0	4_exp_AWA_CON_EVA_AMP	190	Rpleas_acq	Same	Rpleas	Bmasked	CS_B	2pleas	distractor2	CONbeforeEVA	cond_US_unple_456_masked_CS1	condtest_masked_3	10	26	400	1	300	300	0	0	346	46	0	1	0	0	0	1	blank2r.bmp	0	1	+	0	1	B1r.bmp	492	1	blank2r.bmp	786	1	BMVZ	786	1	blank2r.bmp	866	2	faul	866	1	!	1239	1	!	1252	0	0	0	0	0	0	0	0	0	0	0	0	0	0	0	0	0	0	0	0	0	0	0	0	0	0	0
032819	09:08:41	09:23:15	870399	5.0.10.0	4_exp_AWA_CON_EVA_AMP	190	Rpleas_acq	Same	Rpleas	Bmasked	CS_B	2pleas	distractor2	CONbeforeEVA	cond_new_pleas_123_masked_CS1	condtest_masked_3	10	27	400	1	300	300	0	0	382	46	0	0	0	0	0	1	blank2r.bmp	0	1	+	0	2	B2r.bmp	492	1	blank2r.bmp	786	1	BMVZ	786	1	blank2r.bmp	866	2	ehrlich	866	1	!	1239	1	!	1279	0	0	0	0	0	0	0	0	0	0	0	0	0	0	0	0	0	0	0	0	0	0	0	0	0	0	0
032819	09:08:41	09:23:17	872652	5.0.10.0	4_exp_AWA_CON_EVA_AMP	190	Rpleas_acq	Same	Rpleas	Bmasked	CS_B	2pleas	distractor2	CONbeforeEVA	cond_US_pleas_456_masked_CS1	condtest_masked_3	10	28	400	1	300	300	0	0	440	46	0	0	0	0	0	1	blank2r.bmp	0	1	+	0	5	C1r.bmp	492	1	blank2r.bmp	786	1	BMVZ	786	1	blank2r.bmp	866	2	fair	866	1	!	1239	1	!	1346	0	0	0	0	0	0	0	0	0	0	0	0	0	0	0	0	0	0	0	0	0	0	0	0	0	0	0
032819	09:08:41	09:23:20	874878	5.0.10.0	4_exp_AWA_CON_EVA_AMP	190	Rpleas_acq	Same	Rpleas	Bmasked	CS_B	2pleas	distractor2	CONbeforeEVA	cond_US_unple_456_masked_CS2	condtest_masked_3	10	29	400	1	300	300	0	0	429	46	0	1	0	0	0	1	blank2r.bmp	0	1	+	0	5	C1r.bmp	492	1	blank2r.bmp	786	1	GKQX	786	1	blank2r.bmp	866	2	faul	866	1	!	1239	1	!	1332	0	0	0	0	0	0	0	0	0	0	0	0	0	0	0	0	0	0	0	0	0	0	0	0	0	0	0
032819	09:08:41	09:23:22	877117	5.0.10.0	4_exp_AWA_CON_EVA_AMP	190	Rpleas_acq	Same	Rpleas	Bmasked	CS_B	2pleas	distractor2	CONbeforeEVA	cond_new_unple_123_masked_CS2	condtest_masked_3	10	30	400	1	300	300	0	0	432	46	0	1	0	0	0	1	blank2r.bmp	0	1	+	0	6	C2r.bmp	492	1	blank2r.bmp	786	1	GKQX	786	1	blank2r.bmp	866	3	strafen	866	1	!	1239	1	!	1332	0	0	0	0	0	0	0	0	0	0	0	0	0	0	0	0	0	0	0	0	0	0	0	0	0	0	0
032819	09:08:41	09:23:24	879342	5.0.10.0	4_exp_AWA_CON_EVA_AMP	190	Rpleas_acq	Same	Rpleas	Bmasked	CS_B	2pleas	distractor2	CONbeforeEVA	cond_new_pleas_123_masked_CS1	condtest_masked_3	10	31	400	1	300	300	0	0	428	50	0	1	0	0	0	1	blank2r.bmp	0	1	+	0	4	B4r.bmp	492	1	blank2r.bmp	786	1	BMVZ	786	1	blank2r.bmp	866	3	spielen	866	1	!	1239	1	!	1332	0	0	0	0	0	0	0	0	0	0	0	0	0	0	0	0	0	0	0	0	0	0	0	0	0	0	0
