date	time	script.currenttime	script.elapsedtime	build	subject	expressions.LRpleas_acq	expressions.SameOppo	expressions.condition_Lpleas	expressions.ABmasked	expressions.conditionCS_A	expressions.condition_1pleas	expressions.condition_distractor_AMP	trialcode	blockcode	blocknum	trialnum	windowcenter	inwindow	pretrialpause	posttrialpause	trialduration	trialtimeout	latency	response	expressions.correctedscore	correct	values.vis_performance	values.vis_rating_sum	values.vis_rating_mean	stimulusnumber1	stimulusitem1	stimulusonset1	stimulusnumber2	stimulusitem2	stimulusonset2	stimulusnumber3	stimulusitem3	stimulusonset3	stimulusnumber4	stimulusitem4	stimulusonset4	stimulusnumber5	stimulusitem5	stimulusonset5	stimulusnumber6	stimulusitem6	stimulusonset6	stimulusnumber7	stimulusitem7	stimulusonset7	stimulusnumber8	stimulusitem8	stimulusonset8	stimulusnumber9	stimulusitem9	stimulusonset9	stimulusnumber10	stimulusitem10	stimulusonset10	stimulusnumber11	stimulusitem11	stimulusonset11	stimulusnumber12	stimulusitem12	stimulusonset12	stimulusnumber13	stimulusitem13	stimulusonset13	stimulusnumber14	stimulusitem14	stimulusonset14	stimulusnumber15	stimulusitem15	stimulusonset15	stimulusnumber16	stimulusitem16	stimulusonset16	stimulusnumber17	stimulusitem17	stimulusonset17	stimulusnumber18	stimulusitem18	stimulusonset18
112818	15:07:39	15:09:01	79740	5.0.10.0	993	Rpleas_acq	Same	Rpleas	Amasked	CS_A	2pleas	distractor2	acq_US_pleas_masked	acq1_masked	1	1	0	0	300	300	0	0	918	50	0	1	0	0	0	1	blank2r.bmp	0	1	+	0	6	C2r.bmp	492	1	blank2r.bmp	786	1	DHJF	786	1	blank2r.bmp	866	1	kreativ	866	0	0	0	0	0	0	0	0	0	0	0	0	0	0	0	0	0	0	0	0	0	0	0	0	0	0	0	0	0	0	0	0	0
112818	15:07:39	15:09:03	81699	5.0.10.0	993	Rpleas_acq	Same	Rpleas	Amasked	CS_A	2pleas	distractor2	acq_US_unple_masked	acq1_masked	1	2	0	0	300	300	0	0	486	46	0	1	0	0	0	1	blank2r.bmp	0	1	+	0	2	B2r.bmp	492	1	blank2r.bmp	786	1	CPLW	786	1	blank2r.bmp	866	3	krise	866	0	0	0	0	0	0	0	0	0	0	0	0	0	0	0	0	0	0	0	0	0	0	0	0	0	0	0	0	0	0	0	0	0
112818	15:07:39	15:09:05	84125	5.0.10.0	993	Rpleas_acq	Same	Rpleas	Amasked	CS_A	2pleas	distractor2	acq_new_pleas_masked	acq1_masked	1	3	0	0	300	300	0	0	735	46	0	0	0	0	0	1	blank2r.bmp	0	1	+	0	7	C3r.bmp	492	1	blank2r.bmp	786	6	vertrauen	866	1	FEHLER	1639	0	0	0	0	0	0	0	0	0	0	0	0	0	0	0	0	0	0	0	0	0	0	0	0	0	0	0	0	0	0	0	0	0	0	0	0
112818	15:07:39	15:09:09	87413	5.0.10.0	993	Rpleas_acq	Same	Rpleas	Amasked	CS_A	2pleas	distractor2	acq_US_pleas_masked	acq1_masked	1	4	0	0	300	300	0	0	2021	Ctrl+'B'	0	1	0	0	0	1	blank2r.bmp	0	1	+	0	4	B4r.bmp	492	1	blank2r.bmp	786	1	DHJF	786	1	blank2r.bmp	866	5	anregung	866	0	0	0	0	0	0	0	0	0	0	0	0	0	0	0	0	0	0	0	0	0	0	0	0	0	0	0	0	0	0	0	0	0
112818	15:07:39	15:09:33	111673	5.0.10.0	993	Rpleas_acq	Same	Rpleas	Amasked	CS_A	2pleas	distractor2	acq_US_unple_masked	acq2_masked	2	1	480	1	300	300	0	0	426	50	0	0	0	0	0	1	blank2r.bmp	0	1	+	0	3	B3r.bmp	492	1	blank2r.bmp	786	1	CPLW	786	1	blank2r.bmp	866	2	bange	866	1	FEHLER	1652	1	!	1319	1	!	1332	0	0	0	0	0	0	0	0	0	0	0	0	0	0	0	0	0	0	0	0	0	0	0	0
112818	15:07:39	15:09:35	113979	5.0.10.0	993	Rpleas_acq	Same	Rpleas	Amasked	CS_A	2pleas	distractor2	acq_US_unple_masked	acq2_masked	2	2	480	1	300	300	0	0	496	50	0	0	0	0	0	1	blank2r.bmp	0	1	+	0	8	C4r.bmp	492	1	blank2r.bmp	786	1	CPLW	786	1	blank2r.bmp	866	5	sterben	866	1	FEHLER	1719	1	!	1319	1	!	1399	0	0	0	0	0	0	0	0	0	0	0	0	0	0	0	0	0	0	0	0	0	0	0	0
112818	15:07:39	15:09:37	115992	5.0.10.0	993	Rpleas_acq	Same	Rpleas	Amasked	CS_A	2pleas	distractor2	acq_US_pleas_masked	acq2_masked	2	3	480	1	300	300	0	0	427	50	0	1	0	0	0	1	blank2r.bmp	0	1	+	0	1	B1r.bmp	492	1	blank2r.bmp	786	1	DHJF	786	1	blank2r.bmp	866	2	genießen	866	1	!	1319	1	!	1332	0	0	0	0	0	0	0	0	0	0	0	0	0	0	0	0	0	0	0	0	0	0	0	0	0	0	0
112818	15:07:39	15:09:39	118164	5.0.10.0	993	Rpleas_acq	Same	Rpleas	Amasked	CS_A	2pleas	distractor2	acq_US_unple_masked	acq2_masked	2	4	480	0	300	300	0	0	408	46	0	1	0	0	0	1	blank2r.bmp	0	1	+	0	5	C1r.bmp	492	1	blank2r.bmp	786	1	CPLW	786	1	blank2r.bmp	866	1	töten	866	1	!	-1	1	!	-1	0	0	0	0	0	0	0	0	0	0	0	0	0	0	0	0	0	0	0	0	0	0	0	0	0	0	0
112818	15:07:39	15:09:42	120350	5.0.10.0	993	Rpleas_acq	Same	Rpleas	Amasked	CS_A	2pleas	distractor2	acq_US_pleas_masked	acq2_masked	2	5	480	0	300	300	0	0	408	50	0	1	0	0	0	1	blank2r.bmp	0	1	+	0	2	B2r.bmp	492	1	blank2r.bmp	786	1	DHJF	786	1	blank2r.bmp	866	3	sonnig	866	1	!	-1	1	!	-1	0	0	0	0	0	0	0	0	0	0	0	0	0	0	0	0	0	0	0	0	0	0	0	0	0	0	0
112818	15:07:39	15:09:44	122536	5.0.10.0	993	Rpleas_acq	Same	Rpleas	Amasked	CS_A	2pleas	distractor2	acq_new_pleas_masked	acq2_masked	2	6	480	0	300	300	0	0	402	50	0	1	0	0	0	1	blank2r.bmp	0	1	+	0	4	B4r.bmp	492	1	blank2r.bmp	786	3	kuss	866	1	!	-1	1	!	-1	0	0	0	0	0	0	0	0	0	0	0	0	0	0	0	0	0	0	0	0	0	0	0	0	0	0	0	0	0	0	0	0	0
112818	15:07:39	15:09:46	124881	5.0.10.0	993	Rpleas_acq	Same	Rpleas	Amasked	CS_A	2pleas	distractor2	acq_new_unple_masked	acq2_masked	2	7	480	1	300	300	0	0	543	46	0	1	0	0	0	1	blank2r.bmp	0	1	+	0	8	C4r.bmp	492	1	blank2r.bmp	786	2	geizig	866	1	!	1319	1	!	1439	0	0	0	0	0	0	0	0	0	0	0	0	0	0	0	0	0	0	0	0	0	0	0	0	0	0	0	0	0	0	0	0	0
112818	15:07:39	15:09:49	127374	5.0.10.0	993	Rpleas_acq	Same	Rpleas	Amasked	CS_A	2pleas	distractor2	acq_US_unple_masked	acq2_masked	2	8	480	0	300	300	0	0	723	46	0	1	0	0	0	1	blank2r.bmp	0	1	+	0	6	C2r.bmp	492	1	blank2r.bmp	786	1	CPLW	786	1	blank2r.bmp	866	6	engstirnig	866	1	!	1319	1	!	-1	0	0	0	0	0	0	0	0	0	0	0	0	0	0	0	0	0	0	0	0	0	0	0	0	0	0	0
112818	15:07:39	15:09:51	129666	5.0.10.0	993	Rpleas_acq	Same	Rpleas	Amasked	CS_A	2pleas	distractor2	acq_new_pleas_masked	acq2_masked	2	9	480	1	300	300	0	0	468	50	0	1	0	0	0	1	blank2r.bmp	0	1	+	0	3	B3r.bmp	492	1	blank2r.bmp	786	5	vergnügt	866	1	!	1319	1	!	1372	0	0	0	0	0	0	0	0	0	0	0	0	0	0	0	0	0	0	0	0	0	0	0	0	0	0	0	0	0	0	0	0	0
112818	15:07:39	15:09:53	131905	5.0.10.0	993	Rpleas_acq	Same	Rpleas	Amasked	CS_A	2pleas	distractor2	acq_US_unple_masked	acq2_masked	2	10	480	1	300	300	0	0	426	46	0	1	0	0	0	1	blank2r.bmp	0	1	+	0	7	C3r.bmp	492	1	blank2r.bmp	786	1	CPLW	786	1	blank2r.bmp	866	4	gierig	866	1	!	1319	1	!	1332	0	0	0	0	0	0	0	0	0	0	0	0	0	0	0	0	0	0	0	0	0	0	0	0	0	0	0
112818	15:07:39	15:09:55	134331	5.0.10.0	993	Rpleas_acq	Same	Rpleas	Amasked	CS_A	2pleas	distractor2	acq_US_pleas_masked	acq2_masked	2	11	480	0	300	300	0	0	652	50	0	1	0	0	0	1	blank2r.bmp	0	1	+	0	5	C1r.bmp	492	1	blank2r.bmp	786	1	DHJF	786	1	blank2r.bmp	866	4	träumen	866	1	!	1319	1	!	-1	0	0	0	0	0	0	0	0	0	0	0	0	0	0	0	0	0	0	0	0	0	0	0	0	0	0	0
112818	15:07:39	15:09:58	136450	5.0.10.0	993	Rpleas_acq	Same	Rpleas	Amasked	CS_A	2pleas	distractor2	acq_US_pleas_masked	acq2_masked	2	12	480	0	300	300	0	0	327	50	0	1	0	0	0	1	blank2r.bmp	0	1	+	0	1	B1r.bmp	492	1	blank2r.bmp	786	1	DHJF	786	1	blank2r.bmp	866	6	gütig	866	1	!	-1	1	!	-1	0	0	0	0	0	0	0	0	0	0	0	0	0	0	0	0	0	0	0	0	0	0	0	0	0	0	0
112818	15:07:39	15:10:00	138716	5.0.10.0	993	Rpleas_acq	Same	Rpleas	Amasked	CS_A	2pleas	distractor2	acq_US_pleas_masked	acq2_masked	2	13	480	1	300	300	0	0	453	50	0	1	0	0	0	1	blank2r.bmp	0	1	+	0	3	B3r.bmp	492	1	blank2r.bmp	786	1	DHJF	786	1	blank2r.bmp	866	1	kreativ	866	1	!	1319	1	!	1359	0	0	0	0	0	0	0	0	0	0	0	0	0	0	0	0	0	0	0	0	0	0	0	0	0	0	0
112818	15:07:39	15:10:02	141221	5.0.10.0	993	Rpleas_acq	Same	Rpleas	Amasked	CS_A	2pleas	distractor2	acq_new_unple_masked	acq2_masked	2	14	480	1	300	300	0	0	497	50	0	0	0	0	0	1	blank2r.bmp	0	1	+	0	7	C3r.bmp	492	1	blank2r.bmp	786	6	versagen	866	1	FEHLER	1719	1	!	1319	1	!	1399	0	0	0	0	0	0	0	0	0	0	0	0	0	0	0	0	0	0	0	0	0	0	0	0	0	0	0	0	0	0
112818	15:07:39	15:10:03	142292	5.0.10.0	993	Rpleas_acq	Same	Rpleas	Amasked	CS_A	2pleas	distractor2	acq_new_pleas_masked	acq2_masked	2	15	480	0	300	300	0	0	0	Ctrl+'B'	0	0	0	0	0	1	blank2r.bmp	0	1	+	0	1	B1r.bmp	492	1	blank2r.bmp	-1	1	engagiert	-1	1	FEHLER	-1	1	!	-1	1	!	-1	0	0	0	0	0	0	0	0	0	0	0	0	0	0	0	0	0	0	0	0	0	0	0	0	0	0	0	0	0	0
112818	15:07:39	15:10:10	148711	5.0.10.0	993	Rpleas_acq	Same	Rpleas	Amasked	CS_A	2pleas	distractor2	acq_US_pleas_masked	acq3_masked	3	1	453	1	300	300	0	0	486	50	0	1	0	0	0	1	blank2r.bmp	0	1	+	0	5	C1r.bmp	492	1	blank2r.bmp	786	1	DHJF	786	1	blank2r.bmp	866	5	anregung	866	1	!	1292	1	!	1386	0	0	0	0	0	0	0	0	0	0	0	0	0	0	0	0	0	0	0	0	0	0	0	0	0	0	0
112818	15:07:39	15:10:11	149607	5.0.10.0	993	Rpleas_acq	Same	Rpleas	Amasked	CS_A	2pleas	distractor2	acq_US_pleas_masked	acq3_masked	3	2	453	0	300	300	0	0	0	Ctrl+'B'	0	0	0	0	0	1	blank2r.bmp	0	1	+	0	2	B2r.bmp	-1	1	blank2r.bmp	-1	1	DHJF	-1	1	blank2r.bmp	-1	6	gütig	-1	1	FEHLER	-1	1	!	-1	1	!	-1	0	0	0	0	0	0	0	0	0	0	0	0	0	0	0	0	0	0	0	0	0	0	0	0
112818	15:07:39	15:10:15	154283	5.0.10.0	993	Rpleas_acq	Same	Rpleas	Amasked	CS_A	2pleas	distractor2	acq_US_pleas_masked	acq45_masked	4	1	400	0	300	300	0	0	479	50	0	1	0	0	0	1	blank2r.bmp	0	1	+	0	4	B4r.bmp	492	1	blank2r.bmp	786	1	DHJF	786	1	blank2r.bmp	866	4	träumen	866	1	!	1239	1	!	-1	0	0	0	0	0	0	0	0	0	0	0	0	0	0	0	0	0	0	0	0	0	0	0	0	0	0	0
112818	15:07:39	15:10:16	155117	5.0.10.0	993	Rpleas_acq	Same	Rpleas	Amasked	CS_A	2pleas	distractor2	acq_US_pleas_masked	acq45_masked	4	2	400	0	300	300	0	0	0	Ctrl+'B'	0	0	0	0	0	1	blank2r.bmp	0	1	+	0	6	C2r.bmp	-1	1	blank2r.bmp	-1	1	DHJF	-1	1	blank2r.bmp	-1	2	genießen	-1	1	!	-1	1	!	-1	0	0	0	0	0	0	0	0	0	0	0	0	0	0	0	0	0	0	0	0	0	0	0	0	0	0	0
112818	15:07:39	15:10:24	163279	5.0.10.0	993	Rpleas_acq	Same	Rpleas	Amasked	CS_A	2pleas	distractor2	acq_US_unple_masked	acq45_masked	5	1	400	0	300	300	0	0	310	50	0	0	0	0	0	1	blank2r.bmp	0	1	+	0	8	C4r.bmp	492	1	blank2r.bmp	786	1	CPLW	786	1	blank2r.bmp	866	3	krise	866	1	!	-1	1	!	-1	0	0	0	0	0	0	0	0	0	0	0	0	0	0	0	0	0	0	0	0	0	0	0	0	0	0	0
112818	15:07:39	15:10:25	164201	5.0.10.0	993	Rpleas_acq	Same	Rpleas	Amasked	CS_A	2pleas	distractor2	acq_US_pleas_masked	acq45_masked	5	2	400	0	300	300	0	0	0	Ctrl+'B'	0	0	0	0	0	1	blank2r.bmp	0	1	+	0	1	B1r.bmp	-1	1	blank2r.bmp	-1	1	DHJF	-1	1	blank2r.bmp	-1	3	sonnig	-1	1	!	-1	1	!	-1	0	0	0	0	0	0	0	0	0	0	0	0	0	0	0	0	0	0	0	0	0	0	0	0	0	0	0
112818	15:07:39	15:11:44	242859	5.0.10.0	993	Rpleas_acq	Same	Rpleas	Amasked	CS_A	2pleas	distractor2	cond_US_pleas_123_masked_CS1	condtest_masked_1	8	1	400	0	300	300	0	0	292	50	0	1	0	0	0	1	blank2r.bmp	0	1	+	0	4	B4r.bmp	492	1	blank2r.bmp	786	1	CPLW	786	1	blank2r.bmp	866	1	kreativ	866	1	!	-1	1	!	-1	0	0	0	0	0	0	0	0	0	0	0	0	0	0	0	0	0	0	0	0	0	0	0	0	0	0	0
112818	15:07:39	15:11:46	245138	5.0.10.0	993	Rpleas_acq	Same	Rpleas	Amasked	CS_A	2pleas	distractor2	cond_new_pleas_456_masked_CS2	condtest_masked_1	8	2	400	0	300	300	0	0	479	50	0	1	0	0	0	1	blank2r.bmp	0	1	+	0	6	C2r.bmp	492	1	blank2r.bmp	786	1	DHJF	786	1	blank2r.bmp	866	1	gesittet	866	1	!	1239	1	!	-1	0	0	0	0	0	0	0	0	0	0	0	0	0	0	0	0	0	0	0	0	0	0	0	0	0	0	0
112818	15:07:39	15:11:48	247071	5.0.10.0	993	Rpleas_acq	Same	Rpleas	Amasked	CS_A	2pleas	distractor2	cond_US_unple_123_masked_CS1	condtest_masked_1	8	3	400	0	300	300	0	0	132	50	0	0	0	0	0	1	blank2r.bmp	0	1	+	0	8	C4r.bmp	492	1	blank2r.bmp	786	1	CPLW	786	1	blank2r.bmp	866	1	töten	866	1	!	-1	1	!	-1	0	0	0	0	0	0	0	0	0	0	0	0	0	0	0	0	0	0	0	0	0	0	0	0	0	0	0
112818	15:07:39	15:11:50	249044	5.0.10.0	993	Rpleas_acq	Same	Rpleas	Amasked	CS_A	2pleas	distractor2	cond_new_unple_456_masked_CS1	condtest_masked_1	8	4	400	0	300	300	0	0	174	50	0	0	0	0	0	1	blank2r.bmp	0	1	+	0	2	B2r.bmp	492	1	blank2r.bmp	786	1	CPLW	786	1	blank2r.bmp	866	1	ausrottung	866	1	!	-1	1	!	-1	0	0	0	0	0	0	0	0	0	0	0	0	0	0	0	0	0	0	0	0	0	0	0	0	0	0	0
112818	15:07:39	15:11:52	251096	5.0.10.0	993	Rpleas_acq	Same	Rpleas	Amasked	CS_A	2pleas	distractor2	cond_new_unple_456_masked_CS2	condtest_masked_1	8	5	400	0	300	300	0	0	271	50	0	0	0	0	0	1	blank2r.bmp	0	1	+	0	5	C1r.bmp	492	1	blank2r.bmp	786	1	DHJF	786	1	blank2r.bmp	866	2	gemein	866	1	!	-1	1	!	-1	0	0	0	0	0	0	0	0	0	0	0	0	0	0	0	0	0	0	0	0	0	0	0	0	0	0	0
112818	15:07:39	15:11:54	253228	5.0.10.0	993	Rpleas_acq	Same	Rpleas	Amasked	CS_A	2pleas	distractor2	cond_US_unple_123_masked_CS2	condtest_masked_1	8	6	400	0	300	300	0	0	333	50	0	0	0	0	0	1	blank2r.bmp	0	1	+	0	3	B3r.bmp	492	1	blank2r.bmp	786	1	DHJF	786	1	blank2r.bmp	866	2	bange	866	1	!	-1	1	!	-1	0	0	0	0	0	0	0	0	0	0	0	0	0	0	0	0	0	0	0	0	0	0	0	0	0	0	0
112818	15:07:39	15:11:57	255588	5.0.10.0	993	Rpleas_acq	Same	Rpleas	Amasked	CS_A	2pleas	distractor2	cond_US_pleas_123_masked_CS2	condtest_masked_1	8	7	400	0	300	300	0	0	582	50	0	1	0	0	0	1	blank2r.bmp	0	1	+	0	7	C3r.bmp	492	1	blank2r.bmp	786	1	DHJF	786	1	blank2r.bmp	866	3	sonnig	866	1	!	1239	1	!	-1	0	0	0	0	0	0	0	0	0	0	0	0	0	0	0	0	0	0	0	0	0	0	0	0	0	0	0
112818	15:07:39	15:11:59	257573	5.0.10.0	993	Rpleas_acq	Same	Rpleas	Amasked	CS_A	2pleas	distractor2	cond_new_pleas_456_masked_CS1	condtest_masked_1	8	8	400	0	300	300	0	0	201	50	0	1	0	0	0	1	blank2r.bmp	0	1	+	0	3	B3r.bmp	492	1	blank2r.bmp	786	1	CPLW	786	1	blank2r.bmp	866	3	vertrauen	866	1	!	-1	1	!	-1	0	0	0	0	0	0	0	0	0	0	0	0	0	0	0	0	0	0	0	0	0	0	0	0	0	0	0
112818	15:07:39	15:12:15	274273	5.0.10.0	993	Rpleas_acq	Same	Rpleas	Amasked	CS_A	2pleas	distractor2	cond_new_unple_456_masked_CS2	condtest_masked_2	9	1	400	0	300	300	0	0	211	50	0	0	0	0	0	1	blank2r.bmp	0	1	+	0	8	C4r.bmp	492	1	blank2r.bmp	786	1	DHJF	786	1	blank2r.bmp	866	3	versagen	866	1	!	-1	1	!	-1	0	0	0	0	0	0	0	0	0	0	0	0	0	0	0	0	0	0	0	0	0	0	0	0	0	0	0
112818	15:07:39	15:12:18	276486	5.0.10.0	993	Rpleas_acq	Same	Rpleas	Amasked	CS_A	2pleas	distractor2	cond_US_unple_123_masked_CS1	condtest_masked_2	9	2	400	1	300	300	0	0	403	50	0	0	0	0	0	1	blank2r.bmp	0	1	+	0	5	C1r.bmp	492	1	blank2r.bmp	786	1	CPLW	786	1	blank2r.bmp	866	3	krise	866	1	!	1239	1	!	1306	0	0	0	0	0	0	0	0	0	0	0	0	0	0	0	0	0	0	0	0	0	0	0	0	0	0	0
112818	15:07:39	15:12:20	278751	5.0.10.0	993	Rpleas_acq	Same	Rpleas	Amasked	CS_A	2pleas	distractor2	cond_new_unple_456_masked_CS1	condtest_masked_2	9	3	400	0	300	300	0	0	505	50	0	0	0	0	0	1	blank2r.bmp	0	1	+	0	6	C2r.bmp	492	1	blank2r.bmp	786	1	CPLW	786	1	blank2r.bmp	866	1	ausrottung	866	1	!	1239	1	!	-1	0	0	0	0	0	0	0	0	0	0	0	0	0	0	0	0	0	0	0	0	0	0	0	0	0	0	0
112818	15:07:39	15:12:22	280950	5.0.10.0	993	Rpleas_acq	Same	Rpleas	Amasked	CS_A	2pleas	distractor2	cond_US_pleas_123_masked_CS2	condtest_masked_2	9	4	400	1	300	300	0	0	390	50	0	1	0	0	0	1	blank2r.bmp	0	1	+	0	7	C3r.bmp	492	1	blank2r.bmp	786	1	DHJF	786	1	blank2r.bmp	866	2	genießen	866	1	!	1239	1	!	1292	0	0	0	0	0	0	0	0	0	0	0	0	0	0	0	0	0	0	0	0	0	0	0	0	0	0	0
112818	15:07:39	15:12:24	282910	5.0.10.0	993	Rpleas_acq	Same	Rpleas	Amasked	CS_A	2pleas	distractor2	cond_US_unple_123_masked_CS1	condtest_masked_2	9	5	400	0	300	300	0	0	187	50	0	0	0	0	0	1	blank2r.bmp	0	1	+	0	1	B1r.bmp	492	1	blank2r.bmp	786	1	CPLW	786	1	blank2r.bmp	866	1	töten	866	1	!	-1	1	!	-1	0	0	0	0	0	0	0	0	0	0	0	0	0	0	0	0	0	0	0	0	0	0	0	0	0	0	0
112818	15:07:39	15:12:26	285175	5.0.10.0	993	Rpleas_acq	Same	Rpleas	Amasked	CS_A	2pleas	distractor2	cond_US_unple_123_masked_CS1	condtest_masked_2	9	6	400	0	300	300	0	0	480	50	0	0	0	0	0	1	blank2r.bmp	0	1	+	0	2	B2r.bmp	492	1	blank2r.bmp	786	1	CPLW	786	1	blank2r.bmp	866	3	krise	866	1	!	1239	1	!	-1	0	0	0	0	0	0	0	0	0	0	0	0	0	0	0	0	0	0	0	0	0	0	0	0	0	0	0
112818	15:07:39	15:12:29	287454	5.0.10.0	993	Rpleas_acq	Same	Rpleas	Amasked	CS_A	2pleas	distractor2	cond_new_pleas_456_masked_CS1	condtest_masked_2	9	7	400	0	300	300	0	0	493	50	0	1	0	0	0	1	blank2r.bmp	0	1	+	0	4	B4r.bmp	492	1	blank2r.bmp	786	1	CPLW	786	1	blank2r.bmp	866	2	vergnügt	866	1	!	1239	1	!	-1	0	0	0	0	0	0	0	0	0	0	0	0	0	0	0	0	0	0	0	0	0	0	0	0	0	0	0
112818	15:07:39	15:12:31	289427	5.0.10.0	993	Rpleas_acq	Same	Rpleas	Amasked	CS_A	2pleas	distractor2	cond_US_pleas_123_masked_CS2	condtest_masked_2	9	8	400	0	300	300	0	0	197	50	0	1	0	0	0	1	blank2r.bmp	0	1	+	0	3	B3r.bmp	492	1	blank2r.bmp	786	1	DHJF	786	1	blank2r.bmp	866	3	sonnig	866	1	!	-1	1	!	-1	0	0	0	0	0	0	0	0	0	0	0	0	0	0	0	0	0	0	0	0	0	0	0	0	0	0	0
112818	15:07:39	15:12:33	291666	5.0.10.0	993	Rpleas_acq	Same	Rpleas	Amasked	CS_A	2pleas	distractor2	cond_US_pleas_123_masked_CS1	condtest_masked_2	9	9	400	1	300	300	0	0	422	50	0	1	0	0	0	1	blank2r.bmp	0	1	+	0	1	B1r.bmp	492	1	blank2r.bmp	786	1	CPLW	786	1	blank2r.bmp	866	2	genießen	866	1	!	1239	1	!	1319	0	0	0	0	0	0	0	0	0	0	0	0	0	0	0	0	0	0	0	0	0	0	0	0	0	0	0
112818	15:07:39	15:12:35	293679	5.0.10.0	993	Rpleas_acq	Same	Rpleas	Amasked	CS_A	2pleas	distractor2	cond_new_pleas_456_masked_CS2	condtest_masked_2	9	10	400	0	300	300	0	0	245	46	0	0	0	0	0	1	blank2r.bmp	0	1	+	0	5	C1r.bmp	492	1	blank2r.bmp	786	1	DHJF	786	1	blank2r.bmp	866	3	vertrauen	866	1	!	-1	1	!	-1	0	0	0	0	0	0	0	0	0	0	0	0	0	0	0	0	0	0	0	0	0	0	0	0	0	0	0
112818	15:07:39	15:12:37	295878	5.0.10.0	993	Rpleas_acq	Same	Rpleas	Amasked	CS_A	2pleas	distractor2	cond_US_pleas_123_masked_CS1	condtest_masked_2	9	11	400	1	300	300	0	0	396	50	0	1	0	0	0	1	blank2r.bmp	0	1	+	0	8	C4r.bmp	492	1	blank2r.bmp	786	1	CPLW	786	1	blank2r.bmp	866	1	kreativ	866	1	!	1239	1	!	1292	0	0	0	0	0	0	0	0	0	0	0	0	0	0	0	0	0	0	0	0	0	0	0	0	0	0	0
112818	15:07:39	15:12:39	298050	5.0.10.0	993	Rpleas_acq	Same	Rpleas	Amasked	CS_A	2pleas	distractor2	cond_new_pleas_456_masked_CS2	condtest_masked_2	9	12	400	1	300	300	0	0	384	46	0	0	0	0	0	1	blank2r.bmp	0	1	+	0	4	B4r.bmp	492	1	blank2r.bmp	786	1	DHJF	786	1	blank2r.bmp	866	1	gesittet	866	1	!	1239	1	!	1279	0	0	0	0	0	0	0	0	0	0	0	0	0	0	0	0	0	0	0	0	0	0	0	0	0	0	0
112818	15:07:39	15:12:41	300249	5.0.10.0	993	Rpleas_acq	Same	Rpleas	Amasked	CS_A	2pleas	distractor2	cond_new_pleas_456_masked_CS1	condtest_masked_2	9	13	400	1	300	300	0	0	395	50	0	1	0	0	0	1	blank2r.bmp	0	1	+	0	7	C3r.bmp	492	1	blank2r.bmp	786	1	CPLW	786	1	blank2r.bmp	866	2	vergnügt	866	1	!	1239	1	!	1292	0	0	0	0	0	0	0	0	0	0	0	0	0	0	0	0	0	0	0	0	0	0	0	0	0	0	0
112818	15:07:39	15:12:44	302515	5.0.10.0	993	Rpleas_acq	Same	Rpleas	Amasked	CS_A	2pleas	distractor2	cond_new_pleas_456_masked_CS2	condtest_masked_2	9	14	400	1	300	300	0	0	463	50	0	1	0	0	0	1	blank2r.bmp	0	1	+	0	6	C2r.bmp	492	1	blank2r.bmp	786	1	DHJF	786	1	blank2r.bmp	866	3	vertrauen	866	1	!	1239	1	!	1359	0	0	0	0	0	0	0	0	0	0	0	0	0	0	0	0	0	0	0	0	0	0	0	0	0	0	0
112818	15:07:39	15:12:46	304687	5.0.10.0	993	Rpleas_acq	Same	Rpleas	Amasked	CS_A	2pleas	distractor2	cond_new_pleas_456_masked_CS1	condtest_masked_2	9	15	400	1	300	300	0	0	383	50	0	1	0	0	0	1	blank2r.bmp	0	1	+	0	2	B2r.bmp	492	1	blank2r.bmp	786	1	CPLW	786	1	blank2r.bmp	866	2	vergnügt	866	1	!	1239	1	!	1279	0	0	0	0	0	0	0	0	0	0	0	0	0	0	0	0	0	0	0	0	0	0	0	0	0	0	0
112818	15:07:39	15:12:48	306886	5.0.10.0	993	Rpleas_acq	Same	Rpleas	Amasked	CS_A	2pleas	distractor2	cond_new_pleas_456_masked_CS2	condtest_masked_2	9	16	400	1	300	300	0	0	409	50	0	1	0	0	0	1	blank2r.bmp	0	1	+	0	6	C2r.bmp	492	1	blank2r.bmp	786	1	DHJF	786	1	blank2r.bmp	866	1	gesittet	866	1	!	1239	1	!	1306	0	0	0	0	0	0	0	0	0	0	0	0	0	0	0	0	0	0	0	0	0	0	0	0	0	0	0
112818	15:07:39	15:12:50	309046	5.0.10.0	993	Rpleas_acq	Same	Rpleas	Amasked	CS_A	2pleas	distractor2	cond_US_unple_123_masked_CS1	condtest_masked_2	9	17	400	1	300	300	0	0	362	50	0	0	0	0	0	1	blank2r.bmp	0	1	+	0	7	C3r.bmp	492	1	blank2r.bmp	786	1	CPLW	786	1	blank2r.bmp	866	2	bange	866	1	!	1239	1	!	1266	0	0	0	0	0	0	0	0	0	0	0	0	0	0	0	0	0	0	0	0	0	0	0	0	0	0	0
112818	15:07:39	15:12:52	311231	5.0.10.0	993	Rpleas_acq	Same	Rpleas	Amasked	CS_A	2pleas	distractor2	cond_new_unple_456_masked_CS1	condtest_masked_2	9	18	400	1	300	300	0	0	397	50	0	0	0	0	0	1	blank2r.bmp	0	1	+	0	5	C1r.bmp	492	1	blank2r.bmp	786	1	CPLW	786	1	blank2r.bmp	866	3	versagen	866	1	!	1239	1	!	1292	0	0	0	0	0	0	0	0	0	0	0	0	0	0	0	0	0	0	0	0	0	0	0	0	0	0	0
112818	15:07:39	15:12:55	313390	5.0.10.0	993	Rpleas_acq	Same	Rpleas	Amasked	CS_A	2pleas	distractor2	cond_new_unple_456_masked_CS2	condtest_masked_2	9	19	400	1	300	300	0	0	346	46	0	1	0	0	0	1	blank2r.bmp	0	1	+	0	3	B3r.bmp	492	1	blank2r.bmp	786	1	DHJF	786	1	blank2r.bmp	866	2	gemein	866	1	!	1239	1	!	1252	0	0	0	0	0	0	0	0	0	0	0	0	0	0	0	0	0	0	0	0	0	0	0	0	0	0	0
112818	15:07:39	15:12:57	315536	5.0.10.0	993	Rpleas_acq	Same	Rpleas	Amasked	CS_A	2pleas	distractor2	cond_new_pleas_456_masked_CS2	condtest_masked_2	9	20	400	1	300	300	0	0	346	50	0	1	0	0	0	1	blank2r.bmp	0	1	+	0	4	B4r.bmp	492	1	blank2r.bmp	786	1	DHJF	786	1	blank2r.bmp	866	3	vertrauen	866	1	!	1239	1	!	1252	0	0	0	0	0	0	0	0	0	0	0	0	0	0	0	0	0	0	0	0	0	0	0	0	0	0	0
112818	15:07:39	15:12:59	317682	5.0.10.0	993	Rpleas_acq	Same	Rpleas	Amasked	CS_A	2pleas	distractor2	cond_US_unple_123_masked_CS2	condtest_masked_2	9	21	400	1	300	300	0	0	347	50	0	0	0	0	0	1	blank2r.bmp	0	1	+	0	1	B1r.bmp	492	1	blank2r.bmp	786	1	DHJF	786	1	blank2r.bmp	866	1	töten	866	1	!	1239	1	!	1252	0	0	0	0	0	0	0	0	0	0	0	0	0	0	0	0	0	0	0	0	0	0	0	0	0	0	0
112818	15:07:39	15:13:01	319868	5.0.10.0	993	Rpleas_acq	Same	Rpleas	Amasked	CS_A	2pleas	distractor2	cond_US_unple_123_masked_CS2	condtest_masked_2	9	22	400	1	300	300	0	0	391	46	0	1	0	0	0	1	blank2r.bmp	0	1	+	0	8	C4r.bmp	492	1	blank2r.bmp	786	1	DHJF	786	1	blank2r.bmp	866	3	krise	866	1	!	1239	1	!	1292	0	0	0	0	0	0	0	0	0	0	0	0	0	0	0	0	0	0	0	0	0	0	0	0	0	0	0
112818	15:07:39	15:13:03	321947	5.0.10.0	993	Rpleas_acq	Same	Rpleas	Amasked	CS_A	2pleas	distractor2	cond_new_unple_456_masked_CS1	condtest_masked_2	9	23	400	0	300	300	0	0	306	50	0	0	0	0	0	1	blank2r.bmp	0	1	+	0	2	B2r.bmp	492	1	blank2r.bmp	786	1	CPLW	786	1	blank2r.bmp	866	2	gemein	866	1	!	-1	1	!	-1	0	0	0	0	0	0	0	0	0	0	0	0	0	0	0	0	0	0	0	0	0	0	0	0	0	0	0
112818	15:07:39	15:13:05	324266	5.0.10.0	993	Rpleas_acq	Same	Rpleas	Amasked	CS_A	2pleas	distractor2	cond_new_unple_456_masked_CS1	condtest_masked_2	9	24	400	0	300	300	0	0	539	46	0	1	0	0	0	1	blank2r.bmp	0	1	+	0	8	C4r.bmp	492	1	blank2r.bmp	786	1	CPLW	786	1	blank2r.bmp	866	3	versagen	866	1	!	1239	1	!	-1	0	0	0	0	0	0	0	0	0	0	0	0	0	0	0	0	0	0	0	0	0	0	0	0	0	0	0
112818	15:07:39	15:13:08	326532	5.0.10.0	993	Rpleas_acq	Same	Rpleas	Amasked	CS_A	2pleas	distractor2	cond_US_pleas_123_masked_CS2	condtest_masked_2	9	25	400	0	300	300	0	0	485	50	0	1	0	0	0	1	blank2r.bmp	0	1	+	0	4	B4r.bmp	492	1	blank2r.bmp	786	1	DHJF	786	1	blank2r.bmp	866	3	sonnig	866	1	!	1239	1	!	-1	0	0	0	0	0	0	0	0	0	0	0	0	0	0	0	0	0	0	0	0	0	0	0	0	0	0	0
112818	15:07:39	15:13:10	328811	5.0.10.0	993	Rpleas_acq	Same	Rpleas	Amasked	CS_A	2pleas	distractor2	cond_US_pleas_123_masked_CS2	condtest_masked_2	9	26	400	0	300	300	0	0	492	46	0	0	0	0	0	1	blank2r.bmp	0	1	+	0	5	C1r.bmp	492	1	blank2r.bmp	786	1	DHJF	786	1	blank2r.bmp	866	1	kreativ	866	1	!	1239	1	!	-1	0	0	0	0	0	0	0	0	0	0	0	0	0	0	0	0	0	0	0	0	0	0	0	0	0	0	0
112818	15:07:39	15:13:12	330983	5.0.10.0	993	Rpleas_acq	Same	Rpleas	Amasked	CS_A	2pleas	distractor2	cond_US_unple_123_masked_CS2	condtest_masked_2	9	27	400	1	300	300	0	0	360	50	0	0	0	0	0	1	blank2r.bmp	0	1	+	0	1	B1r.bmp	492	1	blank2r.bmp	786	1	DHJF	786	1	blank2r.bmp	866	2	bange	866	1	!	1239	1	!	1266	0	0	0	0	0	0	0	0	0	0	0	0	0	0	0	0	0	0	0	0	0	0	0	0	0	0	0
112818	15:07:39	15:13:14	333076	5.0.10.0	993	Rpleas_acq	Same	Rpleas	Amasked	CS_A	2pleas	distractor2	cond_US_pleas_123_masked_CS1	condtest_masked_2	9	28	400	0	300	300	0	0	306	50	0	1	0	0	0	1	blank2r.bmp	0	1	+	0	6	C2r.bmp	492	1	blank2r.bmp	786	1	CPLW	786	1	blank2r.bmp	866	2	genießen	866	1	!	-1	1	!	-1	0	0	0	0	0	0	0	0	0	0	0	0	0	0	0	0	0	0	0	0	0	0	0	0	0	0	0
112818	15:07:39	15:13:16	335048	5.0.10.0	993	Rpleas_acq	Same	Rpleas	Amasked	CS_A	2pleas	distractor2	cond_US_pleas_123_masked_CS2	condtest_masked_2	9	29	400	0	300	300	0	0	185	50	0	1	0	0	0	1	blank2r.bmp	0	1	+	0	3	B3r.bmp	492	1	blank2r.bmp	786	1	DHJF	786	1	blank2r.bmp	866	2	genießen	866	1	!	-1	1	!	-1	0	0	0	0	0	0	0	0	0	0	0	0	0	0	0	0	0	0	0	0	0	0	0	0	0	0	0
112818	15:07:39	15:13:18	337101	5.0.10.0	993	Rpleas_acq	Same	Rpleas	Amasked	CS_A	2pleas	distractor2	cond_new_pleas_456_masked_CS1	condtest_masked_2	9	30	400	0	300	300	0	0	268	50	0	1	0	0	0	1	blank2r.bmp	0	1	+	0	2	B2r.bmp	492	1	blank2r.bmp	786	1	CPLW	786	1	blank2r.bmp	866	2	vergnügt	866	1	!	-1	1	!	-1	0	0	0	0	0	0	0	0	0	0	0	0	0	0	0	0	0	0	0	0	0	0	0	0	0	0	0
112818	15:07:39	15:13:21	339460	5.0.10.0	993	Rpleas_acq	Same	Rpleas	Amasked	CS_A	2pleas	distractor2	cond_new_unple_456_masked_CS2	condtest_masked_2	9	31	400	0	300	300	0	0	569	46	0	1	0	0	0	1	blank2r.bmp	0	1	+	0	7	C3r.bmp	492	1	blank2r.bmp	786	1	DHJF	786	1	blank2r.bmp	866	1	ausrottung	866	1	!	1239	1	!	-1	0	0	0	0	0	0	0	0	0	0	0	0	0	0	0	0	0	0	0	0	0	0	0	0	0	0	0
112818	15:07:39	15:13:23	341419	5.0.10.0	993	Rpleas_acq	Same	Rpleas	Amasked	CS_A	2pleas	distractor2	cond_new_pleas_456_masked_CS1	condtest_masked_2	9	32	400	0	300	300	0	0	177	50	0	1	0	0	0	1	blank2r.bmp	0	1	+	0	3	B3r.bmp	492	1	blank2r.bmp	786	1	CPLW	786	1	blank2r.bmp	866	1	gesittet	866	1	!	-1	1	!	-1	0	0	0	0	0	0	0	0	0	0	0	0	0	0	0	0	0	0	0	0	0	0	0	0	0	0	0
112818	15:07:39	15:13:25	343378	5.0.10.0	993	Rpleas_acq	Same	Rpleas	Amasked	CS_A	2pleas	distractor2	cond_US_unple_123_masked_CS2	condtest_masked_2	9	33	400	0	300	300	0	0	163	50	0	0	0	0	0	1	blank2r.bmp	0	1	+	0	1	B1r.bmp	492	1	blank2r.bmp	786	1	DHJF	786	1	blank2r.bmp	866	1	töten	866	1	!	-1	1	!	-1	0	0	0	0	0	0	0	0	0	0	0	0	0	0	0	0	0	0	0	0	0	0	0	0	0	0	0
112818	15:07:39	15:13:26	345337	5.0.10.0	993	Rpleas_acq	Same	Rpleas	Amasked	CS_A	2pleas	distractor2	cond_US_unple_123_masked_CS2	condtest_masked_2	9	34	400	0	300	300	0	0	180	50	0	0	0	0	0	1	blank2r.bmp	0	1	+	0	5	C1r.bmp	492	1	blank2r.bmp	786	1	DHJF	786	1	blank2r.bmp	866	3	krise	866	1	!	-1	1	!	-1	0	0	0	0	0	0	0	0	0	0	0	0	0	0	0	0	0	0	0	0	0	0	0	0	0	0	0
112818	15:07:39	15:13:28	347243	5.0.10.0	993	Rpleas_acq	Same	Rpleas	Amasked	CS_A	2pleas	distractor2	cond_US_pleas_123_masked_CS1	condtest_masked_2	9	35	400	0	300	300	0	0	113	50	0	1	0	0	0	1	blank2r.bmp	0	1	+	0	7	C3r.bmp	492	1	blank2r.bmp	786	1	CPLW	786	1	blank2r.bmp	866	1	kreativ	866	1	!	-1	1	!	-1	0	0	0	0	0	0	0	0	0	0	0	0	0	0	0	0	0	0	0	0	0	0	0	0	0	0	0
112818	15:07:39	15:13:33	351575	5.0.10.0	993	Rpleas_acq	Same	Rpleas	Amasked	CS_A	2pleas	distractor2	cond_new_unple_456_masked_CS1	condtest_masked_2	9	36	400	0	300	300	0	0	2555	50	0	0	0	0	0	1	blank2r.bmp	0	1	+	0	4	B4r.bmp	492	1	blank2r.bmp	786	1	CPLW	786	1	blank2r.bmp	866	3	versagen	866	1	!	1239	1	!	-1	0	0	0	0	0	0	0	0	0	0	0	0	0	0	0	0	0	0	0	0	0	0	0	0	0	0	0
112818	15:07:39	15:13:35	353854	5.0.10.0	993	Rpleas_acq	Same	Rpleas	Amasked	CS_A	2pleas	distractor2	cond_new_unple_456_masked_CS2	condtest_masked_2	9	37	400	0	300	300	0	0	493	50	0	0	0	0	0	1	blank2r.bmp	0	1	+	0	8	C4r.bmp	492	1	blank2r.bmp	786	1	DHJF	786	1	blank2r.bmp	866	1	ausrottung	866	1	!	1239	1	!	-1	0	0	0	0	0	0	0	0	0	0	0	0	0	0	0	0	0	0	0	0	0	0	0	0	0	0	0
112818	15:07:39	15:13:37	355826	5.0.10.0	993	Rpleas_acq	Same	Rpleas	Amasked	CS_A	2pleas	distractor2	cond_US_pleas_123_masked_CS1	condtest_masked_2	9	38	400	0	300	300	0	0	175	50	0	1	0	0	0	1	blank2r.bmp	0	1	+	0	2	B2r.bmp	492	1	blank2r.bmp	786	1	CPLW	786	1	blank2r.bmp	866	3	sonnig	866	1	!	-1	1	!	-1	0	0	0	0	0	0	0	0	0	0	0	0	0	0	0	0	0	0	0	0	0	0	0	0	0	0	0
112818	15:07:39	15:13:39	357905	5.0.10.0	993	Rpleas_acq	Same	Rpleas	Amasked	CS_A	2pleas	distractor2	cond_new_unple_456_masked_CS2	condtest_masked_2	9	39	400	0	300	300	0	0	297	50	0	0	0	0	0	1	blank2r.bmp	0	1	+	0	6	C2r.bmp	492	1	blank2r.bmp	786	1	DHJF	786	1	blank2r.bmp	866	2	gemein	866	1	!	-1	1	!	-1	0	0	0	0	0	0	0	0	0	0	0	0	0	0	0	0	0	0	0	0	0	0	0	0	0	0	0
112818	15:07:39	15:13:41	359865	5.0.10.0	993	Rpleas_acq	Same	Rpleas	Amasked	CS_A	2pleas	distractor2	cond_US_unple_123_masked_CS1	condtest_masked_2	9	40	400	0	300	300	0	0	179	50	0	0	0	0	0	1	blank2r.bmp	0	1	+	0	4	B4r.bmp	492	1	blank2r.bmp	786	1	CPLW	786	1	blank2r.bmp	866	2	bange	866	1	!	-1	1	!	-1	0	0	0	0	0	0	0	0	0	0	0	0	0	0	0	0	0	0	0	0	0	0	0	0	0	0	0
112818	15:07:39	15:13:58	376964	5.0.10.0	993	Rpleas_acq	Same	Rpleas	Amasked	CS_A	2pleas	distractor2	cond_US_pleas_456_masked_CS2	condtest_masked_3	10	1	400	0	300	300	0	0	73	50	0	1	0	0	0	1	blank2r.bmp	0	1	+	0	5	C1r.bmp	492	1	blank2r.bmp	786	1	DHJF	786	1	blank2r.bmp	866	2	anregung	866	1	!	-1	1	!	-1	0	0	0	0	0	0	0	0	0	0	0	0	0	0	0	0	0	0	0	0	0	0	0	0	0	0	0
112818	15:07:39	15:14:00	379083	5.0.10.0	993	Rpleas_acq	Same	Rpleas	Amasked	CS_A	2pleas	distractor2	cond_US_unple_456_masked_CS1	condtest_masked_3	10	2	400	0	300	300	0	0	331	50	0	0	0	0	0	1	blank2r.bmp	0	1	+	0	1	B1r.bmp	492	1	blank2r.bmp	786	1	CPLW	786	1	blank2r.bmp	866	2	sterben	866	1	!	-1	1	!	-1	0	0	0	0	0	0	0	0	0	0	0	0	0	0	0	0	0	0	0	0	0	0	0	0	0	0	0
112818	15:07:39	15:14:02	381136	5.0.10.0	993	Rpleas_acq	Same	Rpleas	Amasked	CS_A	2pleas	distractor2	cond_US_pleas_456_masked_CS1	condtest_masked_3	10	3	400	0	300	300	0	0	269	50	0	1	0	0	0	1	blank2r.bmp	0	1	+	0	7	C3r.bmp	492	1	blank2r.bmp	786	1	CPLW	786	1	blank2r.bmp	866	1	träumen	866	1	!	-1	1	!	-1	0	0	0	0	0	0	0	0	0	0	0	0	0	0	0	0	0	0	0	0	0	0	0	0	0	0	0
112818	15:07:39	15:14:04	383322	5.0.10.0	993	Rpleas_acq	Same	Rpleas	Amasked	CS_A	2pleas	distractor2	cond_US_pleas_456_masked_CS2	condtest_masked_3	10	4	400	1	300	300	0	0	377	50	0	1	0	0	0	1	blank2r.bmp	0	1	+	0	3	B3r.bmp	492	1	blank2r.bmp	786	1	DHJF	786	1	blank2r.bmp	866	3	gütig	866	1	!	1239	1	!	1279	0	0	0	0	0	0	0	0	0	0	0	0	0	0	0	0	0	0	0	0	0	0	0	0	0	0	0
112818	15:07:39	15:14:06	385334	5.0.10.0	993	Rpleas_acq	Same	Rpleas	Amasked	CS_A	2pleas	distractor2	cond_US_unple_456_masked_CS1	condtest_masked_3	10	5	400	0	300	300	0	0	240	Ctrl+'B'	0	1	0	0	0	1	blank2r.bmp	0	1	+	0	2	B2r.bmp	492	1	blank2r.bmp	786	1	CPLW	786	1	blank2r.bmp	866	1	gierig	866	1	!	-1	1	!	-1	0	0	0	0	0	0	0	0	0	0	0	0	0	0	0	0	0	0	0	0	0	0	0	0	0	0	0
112818	15:07:39	15:14:11	390212	5.0.10.0	993	Rpleas_acq	Same	Rpleas	Amasked	CS_A	2pleas	distractor2	cond_new_unple_456_masked_CS1	condtest_masked_4	11	1	400	0	300	300	0	0	303	50	0	0	0	0	0	1	blank2r.bmp	0	1	+	0	6	C2r.bmp	492	1	blank2r.bmp	786	1	CPLW	786	1	blank2r.bmp	866	2	gemein	866	1	!	-1	1	!	-1	0	0	0	0	0	0	0	0	0	0	0	0	0	0	0	0	0	0	0	0	0	0	0	0	0	0	0
112818	15:07:39	15:14:12	391212	5.0.10.0	993	Rpleas_acq	Same	Rpleas	Amasked	CS_A	2pleas	distractor2	cond_US_pleas_123_masked_CS2	condtest_masked_4	11	2	400	0	300	300	0	0	0	Ctrl+'B'	0	0	0	0	0	1	blank2r.bmp	0	1	+	0	8	C4r.bmp	-1	1	blank2r.bmp	-1	1	DHJF	-1	1	blank2r.bmp	-1	2	genießen	-1	1	!	-1	1	!	-1	0	0	0	0	0	0	0	0	0	0	0	0	0	0	0	0	0	0	0	0	0	0	0	0	0	0	0
112818	15:07:39	15:14:18	397249	5.0.10.0	993	Rpleas_acq	Same	Rpleas	Amasked	CS_A	2pleas	distractor2	cond_US_unple_456_masked_CS2	condtest_masked_5	12	1	400	0	300	300	0	0	0	Ctrl+'B'	0	1	0	0	0	1	blank2r.bmp	0	1	+	0	7	C3r.bmp	492	1	blank2r.bmp	786	1	DHJF	786	1	blank2r.bmp	866	3	engstirnig	866	1	!	-1	1	!	-1	0	0	0	0	0	0	0	0	0	0	0	0	0	0	0	0	0	0	0	0	0	0	0	0	0	0	0
112818	15:07:39	15:15:11	450201	5.0.10.0	993	Rpleas_acq	Same	Rpleas	Amasked	CS_A	2pleas	distractor2	AMP_CSunple	AMP1_masked	13	1	0	0	300	300	0	0	574	50	0	0	0	0	0	1	blank2r.bmp	0	1	CPLW	0	1	blank2r.bmp	79	119	pic119.bmp	199	1	whitenoise.bmp	306	0	0	0	0	0	0	0	0	0	0	0	0	0	0	0	0	0	0	0	0	0	0	0	0	0	0	0	0	0	0	0	0	0	0	0	0	0	0	0
112818	15:07:39	15:15:13	451414	5.0.10.0	993	Rpleas_acq	Same	Rpleas	Amasked	CS_A	2pleas	distractor2	AMP_CSpleas	AMP1_masked	13	2	0	0	300	300	0	0	301	50	0	1	0	0	0	1	blank2r.bmp	0	1	DHJF	0	1	blank2r.bmp	79	55	pic55.bmp	199	1	whitenoise.bmp	306	0	0	0	0	0	0	0	0	0	0	0	0	0	0	0	0	0	0	0	0	0	0	0	0	0	0	0	0	0	0	0	0	0	0	0	0	0	0	0
112818	15:07:39	15:15:14	452733	5.0.10.0	993	Rpleas_acq	Same	Rpleas	Amasked	CS_A	2pleas	distractor2	AMP_distractor	AMP1_masked	13	3	0	0	300	300	0	0	386	50	0	0	0	0	0	1	blank2r.bmp	0	1	PFCJ	0	1	blank2r.bmp	79	82	pic82.bmp	199	1	whitenoise.bmp	306	0	0	0	0	0	0	0	0	0	0	0	0	0	0	0	0	0	0	0	0	0	0	0	0	0	0	0	0	0	0	0	0	0	0	0	0	0	0	0
112818	15:07:39	15:15:15	454146	5.0.10.0	993	Rpleas_acq	Same	Rpleas	Amasked	CS_A	2pleas	distractor2	AMP_CSpleas	AMP1_masked	13	4	0	0	300	300	0	0	495	50	0	1	0	0	0	1	blank2r.bmp	0	1	DHJF	0	1	blank2r.bmp	79	70	pic70.bmp	199	1	whitenoise.bmp	306	0	0	0	0	0	0	0	0	0	0	0	0	0	0	0	0	0	0	0	0	0	0	0	0	0	0	0	0	0	0	0	0	0	0	0	0	0	0	0
112818	15:07:39	15:15:17	455399	5.0.10.0	993	Rpleas_acq	Same	Rpleas	Amasked	CS_A	2pleas	distractor2	AMP_distractor	AMP1_masked	13	5	0	0	300	300	0	0	336	50	0	0	0	0	0	1	blank2r.bmp	0	1	PFCJ	0	1	blank2r.bmp	79	137	pic137.bmp	199	1	whitenoise.bmp	306	0	0	0	0	0	0	0	0	0	0	0	0	0	0	0	0	0	0	0	0	0	0	0	0	0	0	0	0	0	0	0	0	0	0	0	0	0	0	0
112818	15:07:39	15:15:20	459130	5.0.10.0	993	Rpleas_acq	Same	Rpleas	Amasked	CS_A	2pleas	distractor2	AMP_CSpleas	AMP1_masked	13	6	0	0	300	300	0	0	2812	50	0	1	0	0	0	1	blank2r.bmp	0	1	DHJF	0	1	blank2r.bmp	79	32	pic32.bmp	199	1	whitenoise.bmp	306	0	0	0	0	0	0	0	0	0	0	0	0	0	0	0	0	0	0	0	0	0	0	0	0	0	0	0	0	0	0	0	0	0	0	0	0	0	0	0
112818	15:07:39	15:15:22	461276	5.0.10.0	993	Rpleas_acq	Same	Rpleas	Amasked	CS_A	2pleas	distractor2	AMP_distractor	AMP1_masked	13	7	0	0	300	300	0	0	1237	50	0	0	0	0	0	1	blank2r.bmp	0	1	PFCJ	0	1	blank2r.bmp	79	16	pic16.bmp	199	1	whitenoise.bmp	306	0	0	0	0	0	0	0	0	0	0	0	0	0	0	0	0	0	0	0	0	0	0	0	0	0	0	0	0	0	0	0	0	0	0	0	0	0	0	0
112818	15:07:39	15:15:24	462756	5.0.10.0	993	Rpleas_acq	Same	Rpleas	Amasked	CS_A	2pleas	distractor2	AMP_CSunple	AMP1_masked	13	8	0	0	300	300	0	0	552	50	0	0	0	0	0	1	blank2r.bmp	0	1	CPLW	0	1	blank2r.bmp	79	98	pic98.bmp	199	1	whitenoise.bmp	306	0	0	0	0	0	0	0	0	0	0	0	0	0	0	0	0	0	0	0	0	0	0	0	0	0	0	0	0	0	0	0	0	0	0	0	0	0	0	0
112818	15:07:39	15:15:26	464475	5.0.10.0	993	Rpleas_acq	Same	Rpleas	Amasked	CS_A	2pleas	distractor2	AMP_CSpleas	AMP1_masked	13	9	0	0	300	300	0	0	788	50	0	1	0	0	0	1	blank2r.bmp	0	1	DHJF	0	1	blank2r.bmp	79	93	pic93.bmp	199	1	whitenoise.bmp	306	0	0	0	0	0	0	0	0	0	0	0	0	0	0	0	0	0	0	0	0	0	0	0	0	0	0	0	0	0	0	0	0	0	0	0	0	0	0	0
112818	15:07:39	15:15:27	465994	5.0.10.0	993	Rpleas_acq	Same	Rpleas	Amasked	CS_A	2pleas	distractor2	AMP_CSunple	AMP1_masked	13	10	0	0	300	300	0	0	610	50	0	0	0	0	0	1	blank2r.bmp	0	1	CPLW	0	1	blank2r.bmp	79	19	pic19.bmp	199	1	whitenoise.bmp	306	0	0	0	0	0	0	0	0	0	0	0	0	0	0	0	0	0	0	0	0	0	0	0	0	0	0	0	0	0	0	0	0	0	0	0	0	0	0	0
112818	15:07:39	15:15:29	467634	5.0.10.0	993	Rpleas_acq	Same	Rpleas	Amasked	CS_A	2pleas	distractor2	AMP_CSpleas	AMP1_masked	13	11	0	0	300	300	0	0	716	50	0	1	0	0	0	1	blank2r.bmp	0	1	DHJF	0	1	blank2r.bmp	79	60	pic60.bmp	199	1	whitenoise.bmp	306	0	0	0	0	0	0	0	0	0	0	0	0	0	0	0	0	0	0	0	0	0	0	0	0	0	0	0	0	0	0	0	0	0	0	0	0	0	0	0
112818	15:07:39	15:15:30	469046	5.0.10.0	993	Rpleas_acq	Same	Rpleas	Amasked	CS_A	2pleas	distractor2	AMP_distractor	AMP1_masked	13	12	0	0	300	300	0	0	485	50	0	0	0	0	0	1	blank2r.bmp	0	1	PFCJ	0	1	blank2r.bmp	79	136	pic136.bmp	199	1	whitenoise.bmp	306	0	0	0	0	0	0	0	0	0	0	0	0	0	0	0	0	0	0	0	0	0	0	0	0	0	0	0	0	0	0	0	0	0	0	0	0	0	0	0
112818	15:07:39	15:15:32	470806	5.0.10.0	993	Rpleas_acq	Same	Rpleas	Amasked	CS_A	2pleas	distractor2	AMP_distractor	AMP1_masked	13	13	0	0	300	300	0	0	845	50	0	0	0	0	0	1	blank2r.bmp	0	1	PFCJ	0	1	blank2r.bmp	79	140	pic140.bmp	199	1	whitenoise.bmp	306	0	0	0	0	0	0	0	0	0	0	0	0	0	0	0	0	0	0	0	0	0	0	0	0	0	0	0	0	0	0	0	0	0	0	0	0	0	0	0
112818	15:07:39	15:15:34	473111	5.0.10.0	993	Rpleas_acq	Same	Rpleas	Amasked	CS_A	2pleas	distractor2	AMP_CSunple	AMP1_masked	13	14	0	0	300	300	0	0	1386	50	0	0	0	0	0	1	blank2r.bmp	0	1	CPLW	0	1	blank2r.bmp	79	117	pic117.bmp	199	1	whitenoise.bmp	306	0	0	0	0	0	0	0	0	0	0	0	0	0	0	0	0	0	0	0	0	0	0	0	0	0	0	0	0	0	0	0	0	0	0	0	0	0	0	0
112818	15:07:39	15:15:36	474444	5.0.10.0	993	Rpleas_acq	Same	Rpleas	Amasked	CS_A	2pleas	distractor2	AMP_CSunple	AMP1_masked	13	15	0	0	300	300	0	0	401	50	0	0	0	0	0	1	blank2r.bmp	0	1	CPLW	0	1	blank2r.bmp	79	67	pic67.bmp	199	1	whitenoise.bmp	306	0	0	0	0	0	0	0	0	0	0	0	0	0	0	0	0	0	0	0	0	0	0	0	0	0	0	0	0	0	0	0	0	0	0	0	0	0	0	0
112818	15:07:39	15:15:37	476070	5.0.10.0	993	Rpleas_acq	Same	Rpleas	Amasked	CS_A	2pleas	distractor2	AMP_distractor	AMP1_masked	13	16	0	0	300	300	0	0	709	50	0	0	0	0	0	1	blank2r.bmp	0	1	PFCJ	0	1	blank2r.bmp	79	76	pic76.bmp	199	1	whitenoise.bmp	306	0	0	0	0	0	0	0	0	0	0	0	0	0	0	0	0	0	0	0	0	0	0	0	0	0	0	0	0	0	0	0	0	0	0	0	0	0	0	0
112818	15:07:39	15:15:39	477536	5.0.10.0	993	Rpleas_acq	Same	Rpleas	Amasked	CS_A	2pleas	distractor2	AMP_CSunple	AMP1_masked	13	17	0	0	300	300	0	0	548	50	0	0	0	0	0	1	blank2r.bmp	0	1	CPLW	0	1	blank2r.bmp	79	15	pic15.bmp	199	1	whitenoise.bmp	306	0	0	0	0	0	0	0	0	0	0	0	0	0	0	0	0	0	0	0	0	0	0	0	0	0	0	0	0	0	0	0	0	0	0	0	0	0	0	0
112818	15:07:39	15:15:40	478976	5.0.10.0	993	Rpleas_acq	Same	Rpleas	Amasked	CS_A	2pleas	distractor2	AMP_CSunple	AMP1_masked	13	18	0	0	300	300	0	0	522	50	0	0	0	0	0	1	blank2r.bmp	0	1	CPLW	0	1	blank2r.bmp	79	74	pic74.bmp	199	1	whitenoise.bmp	306	0	0	0	0	0	0	0	0	0	0	0	0	0	0	0	0	0	0	0	0	0	0	0	0	0	0	0	0	0	0	0	0	0	0	0	0	0	0	0
112818	15:07:39	15:15:42	480348	5.0.10.0	993	Rpleas_acq	Same	Rpleas	Amasked	CS_A	2pleas	distractor2	AMP_distractor	AMP1_masked	13	19	0	0	300	300	0	0	449	50	0	0	0	0	0	1	blank2r.bmp	0	1	PFCJ	0	1	blank2r.bmp	79	86	pic86.bmp	199	1	whitenoise.bmp	306	0	0	0	0	0	0	0	0	0	0	0	0	0	0	0	0	0	0	0	0	0	0	0	0	0	0	0	0	0	0	0	0	0	0	0	0	0	0	0
112818	15:07:39	15:15:43	481868	5.0.10.0	993	Rpleas_acq	Same	Rpleas	Amasked	CS_A	2pleas	distractor2	AMP_CSpleas	AMP1_masked	13	20	0	0	300	300	0	0	592	50	0	1	0	0	0	1	blank2r.bmp	0	1	DHJF	0	1	blank2r.bmp	79	103	pic103.bmp	199	1	whitenoise.bmp	306	0	0	0	0	0	0	0	0	0	0	0	0	0	0	0	0	0	0	0	0	0	0	0	0	0	0	0	0	0	0	0	0	0	0	0	0	0	0	0
112818	15:07:39	15:15:45	483507	5.0.10.0	993	Rpleas_acq	Same	Rpleas	Amasked	CS_A	2pleas	distractor2	AMP_CSunple	AMP1_masked	13	21	0	0	300	300	0	0	721	50	0	0	0	0	0	1	blank2r.bmp	0	1	CPLW	0	1	blank2r.bmp	79	65	pic65.bmp	199	1	whitenoise.bmp	306	0	0	0	0	0	0	0	0	0	0	0	0	0	0	0	0	0	0	0	0	0	0	0	0	0	0	0	0	0	0	0	0	0	0	0	0	0	0	0
112818	15:07:39	15:15:46	484947	5.0.10.0	993	Rpleas_acq	Same	Rpleas	Amasked	CS_A	2pleas	distractor2	AMP_distractor	AMP1_masked	13	22	0	0	300	300	0	0	524	50	0	0	0	0	0	1	blank2r.bmp	0	1	PFCJ	0	1	blank2r.bmp	79	53	pic53.bmp	199	1	whitenoise.bmp	306	0	0	0	0	0	0	0	0	0	0	0	0	0	0	0	0	0	0	0	0	0	0	0	0	0	0	0	0	0	0	0	0	0	0	0	0	0	0	0
112818	15:07:39	15:15:48	486426	5.0.10.0	993	Rpleas_acq	Same	Rpleas	Amasked	CS_A	2pleas	distractor2	AMP_CSpleas	AMP1_masked	13	23	0	0	300	300	0	0	546	50	0	1	0	0	0	1	blank2r.bmp	0	1	DHJF	0	1	blank2r.bmp	79	42	pic42.bmp	199	1	whitenoise.bmp	306	0	0	0	0	0	0	0	0	0	0	0	0	0	0	0	0	0	0	0	0	0	0	0	0	0	0	0	0	0	0	0	0	0	0	0	0	0	0	0
112818	15:07:39	15:15:50	488345	5.0.10.0	993	Rpleas_acq	Same	Rpleas	Amasked	CS_A	2pleas	distractor2	AMP_CSpleas	AMP1_masked	13	24	0	0	300	300	0	0	1007	50	0	1	0	0	0	1	blank2r.bmp	0	1	DHJF	0	1	blank2r.bmp	79	132	pic132.bmp	199	1	whitenoise.bmp	306	0	0	0	0	0	0	0	0	0	0	0	0	0	0	0	0	0	0	0	0	0	0	0	0	0	0	0	0	0	0	0	0	0	0	0	0	0	0	0
112818	15:07:39	15:15:51	489571	5.0.10.0	993	Rpleas_acq	Same	Rpleas	Amasked	CS_A	2pleas	distractor2	AMP_CSunple	AMP1_masked	13	25	0	0	300	300	0	0	304	50	0	0	0	0	0	1	blank2r.bmp	0	1	CPLW	0	1	blank2r.bmp	79	101	pic101.bmp	199	1	whitenoise.bmp	306	0	0	0	0	0	0	0	0	0	0	0	0	0	0	0	0	0	0	0	0	0	0	0	0	0	0	0	0	0	0	0	0	0	0	0	0	0	0	0
112818	15:07:39	15:15:52	490704	5.0.10.0	993	Rpleas_acq	Same	Rpleas	Amasked	CS_A	2pleas	distractor2	AMP_distractor	AMP1_masked	13	26	0	0	300	300	0	0	199	50	0	0	0	0	0	1	blank2r.bmp	0	1	PFCJ	0	1	blank2r.bmp	79	18	pic18.bmp	199	1	whitenoise.bmp	306	0	0	0	0	0	0	0	0	0	0	0	0	0	0	0	0	0	0	0	0	0	0	0	0	0	0	0	0	0	0	0	0	0	0	0	0	0	0	0
112818	15:07:39	15:15:53	491824	5.0.10.0	993	Rpleas_acq	Same	Rpleas	Amasked	CS_A	2pleas	distractor2	AMP_distractor	AMP1_masked	13	27	0	0	300	300	0	0	204	50	0	0	0	0	0	1	blank2r.bmp	0	1	PFCJ	0	1	blank2r.bmp	79	41	pic41.bmp	199	1	whitenoise.bmp	306	0	0	0	0	0	0	0	0	0	0	0	0	0	0	0	0	0	0	0	0	0	0	0	0	0	0	0	0	0	0	0	0	0	0	0	0	0	0	0
112818	15:07:39	15:15:54	492997	5.0.10.0	993	Rpleas_acq	Same	Rpleas	Amasked	CS_A	2pleas	distractor2	AMP_CSunple	AMP1_masked	13	28	0	0	300	300	0	0	264	50	0	0	0	0	0	1	blank2r.bmp	0	1	CPLW	0	1	blank2r.bmp	79	54	pic54.bmp	199	1	whitenoise.bmp	306	0	0	0	0	0	0	0	0	0	0	0	0	0	0	0	0	0	0	0	0	0	0	0	0	0	0	0	0	0	0	0	0	0	0	0	0	0	0	0
112818	15:07:39	15:15:55	494076	5.0.10.0	993	Rpleas_acq	Same	Rpleas	Amasked	CS_A	2pleas	distractor2	AMP_distractor	AMP1_masked	13	29	0	0	300	300	0	0	148	50	0	0	0	0	0	1	blank2r.bmp	0	1	PFCJ	0	1	blank2r.bmp	79	10	pic10.bmp	199	1	whitenoise.bmp	306	0	0	0	0	0	0	0	0	0	0	0	0	0	0	0	0	0	0	0	0	0	0	0	0	0	0	0	0	0	0	0	0	0	0	0	0	0	0	0
112818	15:07:39	15:15:56	495142	5.0.10.0	993	Rpleas_acq	Same	Rpleas	Amasked	CS_A	2pleas	distractor2	AMP_distractor	AMP1_masked	13	30	0	0	300	300	0	0	153	50	0	0	0	0	0	1	blank2r.bmp	0	1	PFCJ	0	1	blank2r.bmp	79	33	pic33.bmp	199	1	whitenoise.bmp	306	0	0	0	0	0	0	0	0	0	0	0	0	0	0	0	0	0	0	0	0	0	0	0	0	0	0	0	0	0	0	0	0	0	0	0	0	0	0	0
112818	15:07:39	15:15:58	496968	5.0.10.0	993	Rpleas_acq	Same	Rpleas	Amasked	CS_A	2pleas	distractor2	AMP_distractor	AMP1_masked	13	31	0	0	300	300	0	0	918	50	0	0	0	0	0	1	blank2r.bmp	0	1	PFCJ	0	1	blank2r.bmp	79	48	pic48.bmp	199	1	whitenoise.bmp	306	0	0	0	0	0	0	0	0	0	0	0	0	0	0	0	0	0	0	0	0	0	0	0	0	0	0	0	0	0	0	0	0	0	0	0	0	0	0	0
112818	15:07:39	15:15:59	498288	5.0.10.0	993	Rpleas_acq	Same	Rpleas	Amasked	CS_A	2pleas	distractor2	AMP_CSpleas	AMP1_masked	13	32	0	0	300	300	0	0	383	46	0	0	0	0	0	1	blank2r.bmp	0	1	DHJF	0	1	blank2r.bmp	79	72	pic72.bmp	199	1	whitenoise.bmp	306	0	0	0	0	0	0	0	0	0	0	0	0	0	0	0	0	0	0	0	0	0	0	0	0	0	0	0	0	0	0	0	0	0	0	0	0	0	0	0
112818	15:07:39	15:16:01	499487	5.0.10.0	993	Rpleas_acq	Same	Rpleas	Amasked	CS_A	2pleas	distractor2	AMP_CSpleas	AMP1_masked	13	33	0	0	300	300	0	0	273	46	0	0	0	0	0	1	blank2r.bmp	0	1	DHJF	0	1	blank2r.bmp	79	57	pic57.bmp	199	1	whitenoise.bmp	306	0	0	0	0	0	0	0	0	0	0	0	0	0	0	0	0	0	0	0	0	0	0	0	0	0	0	0	0	0	0	0	0	0	0	0	0	0	0	0
112818	15:07:39	15:16:02	500660	5.0.10.0	993	Rpleas_acq	Same	Rpleas	Amasked	CS_A	2pleas	distractor2	AMP_CSunple	AMP1_masked	13	34	0	0	300	300	0	0	242	46	0	1	0	0	0	1	blank2r.bmp	0	1	CPLW	0	1	blank2r.bmp	79	3	pic3.bmp	199	1	whitenoise.bmp	306	0	0	0	0	0	0	0	0	0	0	0	0	0	0	0	0	0	0	0	0	0	0	0	0	0	0	0	0	0	0	0	0	0	0	0	0	0	0	0
112818	15:07:39	15:16:03	501726	5.0.10.0	993	Rpleas_acq	Same	Rpleas	Amasked	CS_A	2pleas	distractor2	AMP_CSunple	AMP1_masked	13	35	0	0	300	300	0	0	141	46	0	1	0	0	0	1	blank2r.bmp	0	1	CPLW	0	1	blank2r.bmp	79	115	pic115.bmp	199	1	whitenoise.bmp	306	0	0	0	0	0	0	0	0	0	0	0	0	0	0	0	0	0	0	0	0	0	0	0	0	0	0	0	0	0	0	0	0	0	0	0	0	0	0	0
112818	15:07:39	15:16:04	502859	5.0.10.0	993	Rpleas_acq	Same	Rpleas	Amasked	CS_A	2pleas	distractor2	AMP_CSpleas	AMP1_masked	13	36	0	0	300	300	0	0	212	46	0	0	0	0	0	1	blank2r.bmp	0	1	DHJF	0	1	blank2r.bmp	79	51	pic51.bmp	199	1	whitenoise.bmp	306	0	0	0	0	0	0	0	0	0	0	0	0	0	0	0	0	0	0	0	0	0	0	0	0	0	0	0	0	0	0	0	0	0	0	0	0	0	0	0
112818	15:07:39	15:16:05	504045	5.0.10.0	993	Rpleas_acq	Same	Rpleas	Amasked	CS_A	2pleas	distractor2	AMP_CSpleas	AMP1_masked	13	37	0	0	300	300	0	0	270	46	0	0	0	0	0	1	blank2r.bmp	0	1	DHJF	0	1	blank2r.bmp	79	30	pic30.bmp	199	1	whitenoise.bmp	306	0	0	0	0	0	0	0	0	0	0	0	0	0	0	0	0	0	0	0	0	0	0	0	0	0	0	0	0	0	0	0	0	0	0	0	0	0	0	0
112818	15:07:39	15:16:06	505058	5.0.10.0	993	Rpleas_acq	Same	Rpleas	Amasked	CS_A	2pleas	distractor2	AMP_CSpleas	AMP1_masked	13	38	0	0	300	300	0	0	82	46	0	0	0	0	0	1	blank2r.bmp	0	1	DHJF	0	1	blank2r.bmp	79	13	pic13.bmp	199	1	whitenoise.bmp	306	0	0	0	0	0	0	0	0	0	0	0	0	0	0	0	0	0	0	0	0	0	0	0	0	0	0	0	0	0	0	0	0	0	0	0	0	0	0	0
112818	15:07:39	15:16:07	506151	5.0.10.0	993	Rpleas_acq	Same	Rpleas	Amasked	CS_A	2pleas	distractor2	AMP_distractor	AMP1_masked	13	39	0	0	300	300	0	0	168	46	0	0	0	0	0	1	blank2r.bmp	0	1	PFCJ	0	1	blank2r.bmp	79	125	pic125.bmp	199	1	whitenoise.bmp	306	0	0	0	0	0	0	0	0	0	0	0	0	0	0	0	0	0	0	0	0	0	0	0	0	0	0	0	0	0	0	0	0	0	0	0	0	0	0	0
112818	15:07:39	15:16:09	507884	5.0.10.0	993	Rpleas_acq	Same	Rpleas	Amasked	CS_A	2pleas	distractor2	AMP_CSunple	AMP1_masked	13	40	0	0	300	300	0	0	811	46	0	1	0	0	0	1	blank2r.bmp	0	1	CPLW	0	1	blank2r.bmp	79	87	pic87.bmp	199	1	whitenoise.bmp	306	0	0	0	0	0	0	0	0	0	0	0	0	0	0	0	0	0	0	0	0	0	0	0	0	0	0	0	0	0	0	0	0	0	0	0	0	0	0	0
112818	15:07:39	15:16:10	508830	5.0.10.0	993	Rpleas_acq	Same	Rpleas	Amasked	CS_A	2pleas	distractor2	AMP_CSunple	AMP1_masked	13	41	0	0	300	300	0	0	12	46	0	1	0	0	0	1	blank2r.bmp	0	1	CPLW	0	1	blank2r.bmp	79	139	pic139.bmp	199	1	whitenoise.bmp	306	0	0	0	0	0	0	0	0	0	0	0	0	0	0	0	0	0	0	0	0	0	0	0	0	0	0	0	0	0	0	0	0	0	0	0	0	0	0	0
112818	15:07:39	15:16:11	509963	5.0.10.0	993	Rpleas_acq	Same	Rpleas	Amasked	CS_A	2pleas	distractor2	AMP_distractor	AMP1_masked	13	42	0	0	300	300	0	0	222	46	0	0	0	0	0	1	blank2r.bmp	0	1	PFCJ	0	1	blank2r.bmp	79	49	pic49.bmp	199	1	whitenoise.bmp	306	0	0	0	0	0	0	0	0	0	0	0	0	0	0	0	0	0	0	0	0	0	0	0	0	0	0	0	0	0	0	0	0	0	0	0	0	0	0	0
112818	15:07:39	15:16:13	511509	5.0.10.0	993	Rpleas_acq	Same	Rpleas	Amasked	CS_A	2pleas	distractor2	AMP_CSunple	AMP1_masked	13	43	0	0	300	300	0	0	626	46	0	1	0	0	0	1	blank2r.bmp	0	1	CPLW	0	1	blank2r.bmp	79	6	pic6.bmp	199	1	whitenoise.bmp	306	0	0	0	0	0	0	0	0	0	0	0	0	0	0	0	0	0	0	0	0	0	0	0	0	0	0	0	0	0	0	0	0	0	0	0	0	0	0	0
112818	15:07:39	15:16:14	512628	5.0.10.0	993	Rpleas_acq	Same	Rpleas	Amasked	CS_A	2pleas	distractor2	AMP_CSunple	AMP1_masked	13	44	0	0	300	300	0	0	204	50	0	0	0	0	0	1	blank2r.bmp	0	1	CPLW	0	1	blank2r.bmp	79	108	pic108.bmp	199	1	whitenoise.bmp	306	0	0	0	0	0	0	0	0	0	0	0	0	0	0	0	0	0	0	0	0	0	0	0	0	0	0	0	0	0	0	0	0	0	0	0	0	0	0	0
112818	15:07:39	15:16:15	513681	5.0.10.0	993	Rpleas_acq	Same	Rpleas	Amasked	CS_A	2pleas	distractor2	AMP_CSpleas	AMP1_masked	13	45	0	0	300	300	0	0	119	46	0	0	0	0	0	1	blank2r.bmp	0	1	DHJF	0	1	blank2r.bmp	79	118	pic118.bmp	199	1	whitenoise.bmp	306	0	0	0	0	0	0	0	0	0	0	0	0	0	0	0	0	0	0	0	0	0	0	0	0	0	0	0	0	0	0	0	0	0	0	0	0	0	0	0
112818	15:07:39	15:16:16	514708	5.0.10.0	993	Rpleas_acq	Same	Rpleas	Amasked	CS_A	2pleas	distractor2	AMP_distractor	AMP1_masked	13	46	0	0	300	300	0	0	111	50	0	0	0	0	0	1	blank2r.bmp	0	1	PFCJ	0	1	blank2r.bmp	79	90	pic90.bmp	199	1	whitenoise.bmp	306	0	0	0	0	0	0	0	0	0	0	0	0	0	0	0	0	0	0	0	0	0	0	0	0	0	0	0	0	0	0	0	0	0	0	0	0	0	0	0
112818	15:07:39	15:16:17	515681	5.0.10.0	993	Rpleas_acq	Same	Rpleas	Amasked	CS_A	2pleas	distractor2	AMP_CSunple	AMP1_masked	13	47	0	0	300	300	0	0	62	46	0	1	0	0	0	1	blank2r.bmp	0	1	CPLW	0	1	blank2r.bmp	79	78	pic78.bmp	199	1	whitenoise.bmp	306	0	0	0	0	0	0	0	0	0	0	0	0	0	0	0	0	0	0	0	0	0	0	0	0	0	0	0	0	0	0	0	0	0	0	0	0	0	0	0
112818	15:07:39	15:16:18	516747	5.0.10.0	993	Rpleas_acq	Same	Rpleas	Amasked	CS_A	2pleas	distractor2	AMP_CSpleas	AMP1_masked	13	48	0	0	300	300	0	0	137	50	0	1	0	0	0	1	blank2r.bmp	0	1	DHJF	0	1	blank2r.bmp	79	69	pic69.bmp	199	1	whitenoise.bmp	306	0	0	0	0	0	0	0	0	0	0	0	0	0	0	0	0	0	0	0	0	0	0	0	0	0	0	0	0	0	0	0	0	0	0	0	0	0	0	0
112818	15:07:39	15:16:19	518279	5.0.10.0	993	Rpleas_acq	Same	Rpleas	Amasked	CS_A	2pleas	distractor2	AMP_CSpleas	AMP1_masked	13	49	0	0	300	300	0	0	605	46	0	0	0	0	0	1	blank2r.bmp	0	1	DHJF	0	1	blank2r.bmp	79	21	pic21.bmp	199	1	whitenoise.bmp	306	0	0	0	0	0	0	0	0	0	0	0	0	0	0	0	0	0	0	0	0	0	0	0	0	0	0	0	0	0	0	0	0	0	0	0	0	0	0	0
112818	15:07:39	15:16:21	519399	5.0.10.0	993	Rpleas_acq	Same	Rpleas	Amasked	CS_A	2pleas	distractor2	AMP_distractor	AMP1_masked	13	50	0	0	300	300	0	0	209	50	0	0	0	0	0	1	blank2r.bmp	0	1	PFCJ	0	1	blank2r.bmp	79	77	pic77.bmp	199	1	whitenoise.bmp	306	0	0	0	0	0	0	0	0	0	0	0	0	0	0	0	0	0	0	0	0	0	0	0	0	0	0	0	0	0	0	0	0	0	0	0	0	0	0	0
112818	15:07:39	15:16:32	530858	5.0.10.0	993	Rpleas_acq	Same	Rpleas	Amasked	CS_A	2pleas	distractor2	AMP_CSpleas	AMP2	14	1	0	0	300	300	0	0	1715	Ctrl+'B'	0	1	0	0	0	1	blank2r.bmp	0	1	DHJF	0	1	blank2r.bmp	79	36	pic36.bmp	199	1	whitenoise.bmp	306	0	0	0	0	0	0	0	0	0	0	0	0	0	0	0	0	0	0	0	0	0	0	0	0	0	0	0	0	0	0	0	0	0	0	0	0	0	0	0
112818	15:07:39	15:16:43	542176	5.0.10.0	993	Rpleas_acq	Same	Rpleas	Amasked	CS_A	2pleas	distractor2	EvalRating_firsttwo	EvalRating_firsttwo	15	1	0	0	300	300	0	0	3199	line	-60,3027343749999928946	0	0	0	0	1	eraser	0	1	Wie angenehm oder unangenehm finden Sie die  Buchstabenkette HWDL?	0	1	leftborder	0	1	rightborder	0	1	line	0	1	Unangenehm	0	1	Angenehm	0	0	0	0	0	0	0	0	0	0	0	0	0	0	0	0	0	0	0	0	0	0	0	0	0	0	0	0	0	0	0	0	0	0
112818	15:07:39	15:16:47	546335	5.0.10.0	993	Rpleas_acq	Same	Rpleas	Amasked	CS_A	2pleas	distractor2	EvalRating_lastfour	EvalRating_lastfour	16	1	0	0	300	300	0	0	1714	line	24,169921875	0	0	0	0	1	eraser	0	2	Wie angenehm oder unangenehm finden Sie die  Buchstabenkette DHJF?	0	1	leftborder	0	1	rightborder	0	1	line	0	1	Unangenehm	0	1	Angenehm	0	0	0	0	0	0	0	0	0	0	0	0	0	0	0	0	0	0	0	0	0	0	0	0	0	0	0	0	0	0	0	0	0	0
112818	15:07:39	15:16:50	548720	5.0.10.0	993	Rpleas_acq	Same	Rpleas	Amasked	CS_A	2pleas	distractor2	blank_screen	EvalRating_lastfour	16	3	0	0	300	300	0	0	0	0	24,169921875	0	0	0	0	1	eraser	0	0	0	0	0	0	0	0	0	0	0	0	0	0	0	0	0	0	0	0	0	0	0	0	0	0	0	0	0	0	0	0	0	0	0	0	0	0	0	0	0	0	0	0	0	0	0	0	0	0	0	0
112818	15:07:39	15:16:51	550226	5.0.10.0	993	Rpleas_acq	Same	Rpleas	Amasked	CS_A	2pleas	distractor2	EvalRating_lastfour	EvalRating_lastfour	16	4	0	0	300	300	0	0	919	line	35,15625	0	0	0	0	1	eraser	1	3	Wie angenehm oder unangenehm finden Sie die  Buchstabenkette PFCJ?	1	1	leftborder	1	1	rightborder	1	1	line	1	1	Unangenehm	1	1	Angenehm	1	0	0	0	0	0	0	0	0	0	0	0	0	0	0	0	0	0	0	0	0	0	0	0	0	0	0	0	0	0	0	0	0	0
112818	15:07:39	15:16:54	552599	5.0.10.0	993	Rpleas_acq	Same	Rpleas	Amasked	CS_A	2pleas	distractor2	blank_screen	EvalRating_lastfour	16	6	0	0	300	300	0	0	0	0	35,15625	0	0	0	0	1	eraser	0	0	0	0	0	0	0	0	0	0	0	0	0	0	0	0	0	0	0	0	0	0	0	0	0	0	0	0	0	0	0	0	0	0	0	0	0	0	0	0	0	0	0	0	0	0	0	0	0	0	0	0
112818	15:07:39	15:16:56	554358	5.0.10.0	993	Rpleas_acq	Same	Rpleas	Amasked	CS_A	2pleas	distractor2	EvalRating_lastfour	EvalRating_lastfour	16	7	0	0	300	300	0	0	1179	line	-96,435546875	0	0	0	0	1	eraser	1	1	Wie angenehm oder unangenehm finden Sie die  Buchstabenkette CPLW?	1	1	leftborder	1	1	rightborder	1	1	line	1	1	Unangenehm	1	1	Angenehm	1	0	0	0	0	0	0	0	0	0	0	0	0	0	0	0	0	0	0	0	0	0	0	0	0	0	0	0	0	0	0	0	0	0
112818	15:07:39	15:18:31	649785	5.0.10.0	993	Rpleas_acq	Same	Rpleas	Amasked	CS_B	2pleas	distractor2	acq_US_pleas_nomask	acq1_nomask	17	1	0	0	300	300	0	0	462	50	-96,435546875	1	0	0	0	1	blank2r.bmp	0	1	+	0	1	blank2r.bmp	492	1	GKQX	492	1	blank2r.bmp	572	1	tolerant	866	0	0	0	0	0	0	0	0	0	0	0	0	0	0	0	0	0	0	0	0	0	0	0	0	0	0	0	0	0	0	0	0	0	0	0	0
112818	15:07:39	15:18:33	651705	5.0.10.0	993	Rpleas_acq	Same	Rpleas	Amasked	CS_B	2pleas	distractor2	acq_US_unple_nomask	acq1_nomask	17	2	0	0	300	300	0	0	237	50	-96,435546875	0	0	0	0	1	blank2r.bmp	0	1	+	0	1	blank2r.bmp	492	1	BMVZ	492	1	blank2r.bmp	572	2	schlecht	866	1	FEHLER	1132	0	0	0	0	0	0	0	0	0	0	0	0	0	0	0	0	0	0	0	0	0	0	0	0	0	0	0	0	0	0	0	0	0
112818	15:07:39	15:18:34	653237	5.0.10.0	993	Rpleas_acq	Same	Rpleas	Amasked	CS_B	2pleas	distractor2	acq_US_pleas_nomask	acq1_nomask	17	3	0	0	300	300	0	0	258	50	-96,435546875	1	0	0	0	1	blank2r.bmp	0	1	+	0	1	blank2r.bmp	492	1	GKQX	492	1	blank2r.bmp	572	4	retten	866	0	0	0	0	0	0	0	0	0	0	0	0	0	0	0	0	0	0	0	0	0	0	0	0	0	0	0	0	0	0	0	0	0	0	0	0
112818	15:07:39	15:18:36	654630	5.0.10.0	993	Rpleas_acq	Same	Rpleas	Amasked	CS_B	2pleas	distractor2	acq_US_pleas_nomask	acq1_nomask	17	4	0	0	300	300	0	0	0	Ctrl+'B'	-96,435546875	0	0	0	0	1	blank2r.bmp	0	1	+	0	1	blank2r.bmp	492	1	GKQX	492	1	blank2r.bmp	572	2	freundlich	-1	1	FEHLER	-1	0	0	0	0	0	0	0	0	0	0	0	0	0	0	0	0	0	0	0	0	0	0	0	0	0	0	0	0	0	0	0	0	0
112818	15:07:39	15:18:45	664180	5.0.10.0	993	Rpleas_acq	Same	Rpleas	Amasked	CS_B	2pleas	distractor2	acq_new_unple_nomask	acq2_nomask	18	1	480	0	300	300	0	0	752	50	-96,435546875	0	0	0	0	1	blank2r.bmp	0	1	+	0	1	blank2r.bmp	492	4	faul	866	1	FEHLER	1959	1	!	1319	1	!	-1	0	0	0	0	0	0	0	0	0	0	0	0	0	0	0	0	0	0	0	0	0	0	0	0	0	0	0	0	0	0	0	0	0
112818	15:07:39	15:18:47	666045	5.0.10.0	993	Rpleas_acq	Same	Rpleas	Amasked	CS_B	2pleas	distractor2	acq_new_pleas_nomask	acq2_nomask	18	2	480	0	300	300	0	0	294	50	-96,435546875	1	0	0	0	1	blank2r.bmp	0	1	+	0	1	blank2r.bmp	492	3	helfen	866	1	!	-1	1	!	-1	0	0	0	0	0	0	0	0	0	0	0	0	0	0	0	0	0	0	0	0	0	0	0	0	0	0	0	0	0	0	0	0	0	0	0	0
112818	15:07:39	15:18:49	668138	5.0.10.0	993	Rpleas_acq	Same	Rpleas	Amasked	CS_B	2pleas	distractor2	acq_US_pleas_nomask	acq2_nomask	18	3	480	0	300	300	0	0	306	50	-96,435546875	1	0	0	0	1	blank2r.bmp	0	1	+	0	1	blank2r.bmp	492	1	GKQX	492	1	blank2r.bmp	572	5	lachen	866	1	!	-1	1	!	-1	0	0	0	0	0	0	0	0	0	0	0	0	0	0	0	0	0	0	0	0	0	0	0	0	0	0	0	0	0	0
112818	15:07:39	15:18:51	670177	5.0.10.0	993	Rpleas_acq	Same	Rpleas	Amasked	CS_B	2pleas	distractor2	acq_US_pleas_nomask	acq2_nomask	18	4	480	0	300	300	0	0	264	50	-96,435546875	1	0	0	0	1	blank2r.bmp	0	1	+	0	1	blank2r.bmp	492	1	GKQX	492	1	blank2r.bmp	572	6	treu	866	1	!	-1	1	!	-1	0	0	0	0	0	0	0	0	0	0	0	0	0	0	0	0	0	0	0	0	0	0	0	0	0	0	0	0	0	0
112818	15:07:39	15:18:53	672323	5.0.10.0	993	Rpleas_acq	Same	Rpleas	Amasked	CS_B	2pleas	distractor2	acq_US_pleas_nomask	acq2_nomask	18	5	480	0	300	300	0	0	368	50	-96,435546875	1	0	0	0	1	blank2r.bmp	0	1	+	0	1	blank2r.bmp	492	1	GKQX	492	1	blank2r.bmp	572	3	fair	866	1	!	-1	1	!	-1	0	0	0	0	0	0	0	0	0	0	0	0	0	0	0	0	0	0	0	0	0	0	0	0	0	0	0	0	0	0
112818	15:07:39	15:18:56	674722	5.0.10.0	993	Rpleas_acq	Same	Rpleas	Amasked	CS_B	2pleas	distractor2	acq_new_unple_nomask	acq2_nomask	18	6	480	0	300	300	0	0	615	46	-96,435546875	1	0	0	0	1	blank2r.bmp	0	1	+	0	1	blank2r.bmp	492	6	hindern	866	1	!	1319	1	!	-1	0	0	0	0	0	0	0	0	0	0	0	0	0	0	0	0	0	0	0	0	0	0	0	0	0	0	0	0	0	0	0	0	0	0	0	0
112818	15:07:39	15:18:58	677014	5.0.10.0	993	Rpleas_acq	Same	Rpleas	Amasked	CS_B	2pleas	distractor2	acq_new_pleas_nomask	acq2_nomask	18	7	480	1	300	300	0	0	488	50	-96,435546875	1	0	0	0	1	blank2r.bmp	0	1	+	0	1	blank2r.bmp	492	5	schön	866	1	!	1319	1	!	1386	0	0	0	0	0	0	0	0	0	0	0	0	0	0	0	0	0	0	0	0	0	0	0	0	0	0	0	0	0	0	0	0	0	0	0	0
112818	15:07:39	15:19:00	679280	5.0.10.0	993	Rpleas_acq	Same	Rpleas	Amasked	CS_B	2pleas	distractor2	acq_US_unple_nomask	acq2_nomask	18	8	480	1	300	300	0	0	469	46	-96,435546875	1	0	0	0	1	blank2r.bmp	0	1	+	0	1	blank2r.bmp	492	1	BMVZ	492	1	blank2r.bmp	572	1	lasch	866	1	!	1319	1	!	1372	0	0	0	0	0	0	0	0	0	0	0	0	0	0	0	0	0	0	0	0	0	0	0	0	0	0	0	0	0	0
112818	15:07:39	15:19:03	681879	5.0.10.0	993	Rpleas_acq	Same	Rpleas	Amasked	CS_B	2pleas	distractor2	acq_US_unple_nomask	acq2_nomask	18	9	480	0	300	300	0	0	587	50	-96,435546875	0	0	0	0	1	blank2r.bmp	0	1	+	0	1	blank2r.bmp	492	1	BMVZ	492	1	blank2r.bmp	572	5	fanatisch	866	1	FEHLER	1799	1	!	1319	1	!	-1	0	0	0	0	0	0	0	0	0	0	0	0	0	0	0	0	0	0	0	0	0	0	0	0	0	0	0
112818	15:07:39	15:19:05	684158	5.0.10.0	993	Rpleas_acq	Same	Rpleas	Amasked	CS_B	2pleas	distractor2	acq_US_pleas_nomask	acq2_nomask	18	10	480	1	300	300	0	0	488	46	-96,435546875	0	0	0	0	1	blank2r.bmp	0	1	+	0	1	blank2r.bmp	492	1	GKQX	492	1	blank2r.bmp	572	3	fair	866	1	FEHLER	1705	1	!	1319	1	!	1386	0	0	0	0	0	0	0	0	0	0	0	0	0	0	0	0	0	0	0	0	0	0	0	0	0	0	0
112818	15:07:39	15:19:07	686184	5.0.10.0	993	Rpleas_acq	Same	Rpleas	Amasked	CS_B	2pleas	distractor2	acq_US_pleas_nomask	acq2_nomask	18	11	480	1	300	300	0	0	426	50	-96,435546875	1	0	0	0	1	blank2r.bmp	0	1	+	0	1	blank2r.bmp	492	1	GKQX	492	1	blank2r.bmp	572	2	freundlich	866	1	!	1319	1	!	1332	0	0	0	0	0	0	0	0	0	0	0	0	0	0	0	0	0	0	0	0	0	0	0	0	0	0	0	0	0	0
112818	15:07:39	15:19:10	688649	5.0.10.0	993	Rpleas_acq	Same	Rpleas	Amasked	CS_B	2pleas	distractor2	acq_US_pleas_nomask	acq2_nomask	18	12	480	1	300	300	0	0	457	46	-96,435546875	0	0	0	0	1	blank2r.bmp	0	1	+	0	1	blank2r.bmp	492	1	GKQX	492	1	blank2r.bmp	572	1	tolerant	866	1	FEHLER	1679	1	!	1319	1	!	1359	0	0	0	0	0	0	0	0	0	0	0	0	0	0	0	0	0	0	0	0	0	0	0	0	0	0	0
112818	15:07:39	15:19:12	691088	5.0.10.0	993	Rpleas_acq	Same	Rpleas	Amasked	CS_B	2pleas	distractor2	acq_US_unple_nomask	acq2_nomask	18	13	480	0	300	300	0	0	645	50	-96,435546875	0	0	0	0	1	blank2r.bmp	0	1	+	0	1	blank2r.bmp	492	1	BMVZ	492	1	blank2r.bmp	572	3	eitel	866	1	FEHLER	1852	1	!	1319	1	!	-1	0	0	0	0	0	0	0	0	0	0	0	0	0	0	0	0	0	0	0	0	0	0	0	0	0	0	0
112818	15:07:39	15:19:13	692260	5.0.10.0	993	Rpleas_acq	Same	Rpleas	Amasked	CS_B	2pleas	distractor2	acq_new_unple_nomask	acq2_nomask	18	14	480	0	300	300	0	0	0	Ctrl+'B'	-96,435546875	0	0	0	0	1	blank2r.bmp	0	1	+	0	1	blank2r.bmp	492	1	tot	-1	1	FEHLER	-1	1	!	-1	1	!	-1	0	0	0	0	0	0	0	0	0	0	0	0	0	0	0	0	0	0	0	0	0	0	0	0	0	0	0	0	0	0	0	0	0
112818	15:07:39	15:19:23	702111	5.0.10.0	993	Rpleas_acq	Same	Rpleas	Amasked	CS_B	2pleas	distractor2	acq_US_pleas_nomask	acq3_nomask	19	1	453	1	300	300	0	0	399	50	-96,435546875	1	0	0	0	1	blank2r.bmp	0	1	+	0	1	blank2r.bmp	492	1	GKQX	492	1	blank2r.bmp	572	4	retten	866	1	!	1292	1	!	1306	0	0	0	0	0	0	0	0	0	0	0	0	0	0	0	0	0	0	0	0	0	0	0	0	0	0	0	0	0	0
112818	15:07:39	15:19:26	704523	5.0.10.0	993	Rpleas_acq	Same	Rpleas	Amasked	CS_B	2pleas	distractor2	acq_US_unple_nomask	acq3_nomask	19	2	453	1	300	300	0	0	399	50	-96,435546875	0	0	0	0	1	blank2r.bmp	0	1	+	0	1	blank2r.bmp	492	1	BMVZ	492	1	blank2r.bmp	572	6	strafen	866	1	FEHLER	1625	1	!	1292	1	!	1306	0	0	0	0	0	0	0	0	0	0	0	0	0	0	0	0	0	0	0	0	0	0	0	0	0	0	0
112818	15:07:39	15:19:28	706975	5.0.10.0	993	Rpleas_acq	Same	Rpleas	Amasked	CS_B	2pleas	distractor2	acq_new_unple_nomask	acq3_nomask	19	3	453	0	300	300	0	0	667	50	-96,435546875	0	0	0	0	1	blank2r.bmp	0	1	+	0	1	blank2r.bmp	492	5	leiden	866	1	FEHLER	1879	1	!	1292	1	!	-1	0	0	0	0	0	0	0	0	0	0	0	0	0	0	0	0	0	0	0	0	0	0	0	0	0	0	0	0	0	0	0	0	0
112818	15:07:39	15:19:30	708801	5.0.10.0	993	Rpleas_acq	Same	Rpleas	Amasked	CS_B	2pleas	distractor2	acq_US_pleas_nomask	acq3_nomask	19	4	453	0	300	300	0	0	278	Ctrl+'B'	-96,435546875	1	0	0	0	1	blank2r.bmp	0	1	+	0	1	blank2r.bmp	492	1	GKQX	492	1	blank2r.bmp	572	6	treu	866	1	!	-1	1	!	-1	0	0	0	0	0	0	0	0	0	0	0	0	0	0	0	0	0	0	0	0	0	0	0	0	0	0	0	0	0	0
112818	15:07:39	15:19:34	712680	5.0.10.0	993	Rpleas_acq	Same	Rpleas	Amasked	CS_B	2pleas	distractor2	acq_US_pleas_nomask	acq45_nomask	20	1	400	1	300	300	0	0	346	50	-96,435546875	1	0	0	0	1	blank2r.bmp	0	1	+	0	1	blank2r.bmp	492	1	GKQX	492	1	blank2r.bmp	572	5	lachen	866	1	!	1239	1	!	1252	0	0	0	0	0	0	0	0	0	0	0	0	0	0	0	0	0	0	0	0	0	0	0	0	0	0	0	0	0	0
112818	15:07:39	15:19:35	713563	5.0.10.0	993	Rpleas_acq	Same	Rpleas	Amasked	CS_B	2pleas	distractor2	acq_US_pleas_nomask	acq45_nomask	20	2	400	0	300	300	0	0	0	Ctrl+'B'	-96,435546875	0	0	0	0	1	blank2r.bmp	0	1	+	0	1	blank2r.bmp	-1	1	GKQX	-1	1	blank2r.bmp	-1	6	treu	-1	1	!	-1	1	!	-1	0	0	0	0	0	0	0	0	0	0	0	0	0	0	0	0	0	0	0	0	0	0	0	0	0	0	0	0	0	0
112818	15:07:39	15:19:39	718224	5.0.10.0	993	Rpleas_acq	Same	Rpleas	Amasked	CS_B	2pleas	distractor2	acq_US_pleas_nomask	acq45_nomask	21	1	400	0	300	300	0	0	165	50	-96,435546875	1	0	0	0	1	blank2r.bmp	0	1	+	0	1	blank2r.bmp	492	1	GKQX	492	1	blank2r.bmp	572	1	tolerant	866	1	!	-1	1	!	-1	0	0	0	0	0	0	0	0	0	0	0	0	0	0	0	0	0	0	0	0	0	0	0	0	0	0	0	0	0	0
112818	15:07:39	15:19:42	720583	5.0.10.0	993	Rpleas_acq	Same	Rpleas	Amasked	CS_B	2pleas	distractor2	acq_US_unple_nomask	acq45_nomask	21	2	400	0	300	300	0	0	583	50	-96,435546875	0	0	0	0	1	blank2r.bmp	0	1	+	0	1	blank2r.bmp	492	1	BMVZ	492	1	blank2r.bmp	572	4	schroff	866	1	!	1239	1	!	-1	0	0	0	0	0	0	0	0	0	0	0	0	0	0	0	0	0	0	0	0	0	0	0	0	0	0	0	0	0	0
112818	15:07:39	15:19:43	721549	5.0.10.0	993	Rpleas_acq	Same	Rpleas	Amasked	CS_B	2pleas	distractor2	acq_US_unple_nomask	acq45_nomask	21	3	400	0	300	300	0	0	0	Ctrl+'B'	-96,435546875	0	0	0	0	1	blank2r.bmp	0	1	+	0	1	blank2r.bmp	-1	1	BMVZ	-1	1	blank2r.bmp	-1	5	fanatisch	-1	1	!	-1	1	!	-1	0	0	0	0	0	0	0	0	0	0	0	0	0	0	0	0	0	0	0	0	0	0	0	0	0	0	0	0	0	0
112818	15:07:39	15:20:39	777919	5.0.10.0	993	Rpleas_acq	Same	Rpleas	Amasked	CS_B	2pleas	distractor2	cond_US_unple_123_nomask_CS2	condtest_nomask_1	24	1	400	0	300	300	0	0	554	50	-96,435546875	0	0	0	0	1	blank2r.bmp	0	1	+	0	1	blank2r.bmp	492	1	GKQX	492	1	blank2r.bmp	572	2	schlecht	866	1	!	1239	1	!	-1	0	0	0	0	0	0	0	0	0	0	0	0	0	0	0	0	0	0	0	0	0	0	0	0	0	0	0	0	0	0
112818	15:07:39	15:20:40	778929	5.0.10.0	993	Rpleas_acq	Same	Rpleas	Amasked	CS_B	2pleas	distractor2	cond_new_unple_456_nomask_CS2	condtest_nomask_1	24	2	400	0	300	300	0	0	0	Ctrl+'B'	-96,435546875	0	0	0	0	1	blank2r.bmp	0	1	+	0	1	blank2r.bmp	-1	1	GKQX	-1	1	blank2r.bmp	-1	3	hindern	-1	1	!	-1	1	!	-1	0	0	0	0	0	0	0	0	0	0	0	0	0	0	0	0	0	0	0	0	0	0	0	0	0	0	0	0	0	0
112818	15:07:39	15:20:46	785130	5.0.10.0	993	Rpleas_acq	Same	Rpleas	Amasked	CS_B	2pleas	distractor2	cond_new_pleas_123_nomask_CS1	condtest_nomask_3	26	1	400	0	300	300	0	0	260	Ctrl+'B'	-96,435546875	1	0	0	0	1	blank2r.bmp	0	1	+	0	1	blank2r.bmp	492	1	BMVZ	492	1	blank2r.bmp	572	2	ehrlich	866	1	!	-1	1	!	-1	0	0	0	0	0	0	0	0	0	0	0	0	0	0	0	0	0	0	0	0	0	0	0	0	0	0	0	0	0	0
112818	15:07:39	15:20:49	788315	5.0.10.0	993	Rpleas_acq	Same	Rpleas	Amasked	CS_B	2pleas	distractor2	cond_new_unple_456_nomask_CS1	condtest_nomask_4	27	1	400	0	300	300	0	0	74	Ctrl+'B'	-96,435546875	1	0	0	0	1	blank2r.bmp	0	1	+	0	1	blank2r.bmp	492	1	BMVZ	492	1	blank2r.bmp	572	1	faul	866	1	!	-1	1	!	-1	0	0	0	0	0	0	0	0	0	0	0	0	0	0	0	0	0	0	0	0	0	0	0	0	0	0	0	0	0	0
112818	15:07:39	15:20:52	791074	5.0.10.0	993	Rpleas_acq	Same	Rpleas	Amasked	CS_B	2pleas	distractor2	cond_US_unple_456_nomask_CS1	condtest_nomask_5	28	1	400	0	300	300	0	0	77	Ctrl+'B'	-96,435546875	1	0	0	0	1	blank2r.bmp	0	1	+	0	1	blank2r.bmp	492	1	BMVZ	492	1	blank2r.bmp	572	3	strafen	866	1	!	-1	1	!	-1	0	0	0	0	0	0	0	0	0	0	0	0	0	0	0	0	0	0	0	0	0	0	0	0	0	0	0	0	0	0
112818	15:07:39	15:21:06	804522	5.0.10.0	993	Rpleas_acq	Same	Rpleas	Amasked	CS_B	2pleas	distractor2	AMP_CSpleas	AMP1_nomask	29	1	0	0	300	300	0	0	419	50	-96,435546875	1	0	0	0	1	blank2r.bmp	0	1	GKQX	0	1	blank2r.bmp	79	22	pic22.bmp	199	1	whitenoise.bmp	306	0	0	0	0	0	0	0	0	0	0	0	0	0	0	0	0	0	0	0	0	0	0	0	0	0	0	0	0	0	0	0	0	0	0	0	0	0	0	0
112818	15:07:39	15:21:07	805761	5.0.10.0	993	Rpleas_acq	Same	Rpleas	Amasked	CS_B	2pleas	distractor2	AMP_distractor	AMP1_nomask	29	2	0	0	300	300	0	0	327	50	-96,435546875	0	0	0	0	1	blank2r.bmp	0	1	QMXB	0	1	blank2r.bmp	79	135	pic135.bmp	199	1	whitenoise.bmp	306	0	0	0	0	0	0	0	0	0	0	0	0	0	0	0	0	0	0	0	0	0	0	0	0	0	0	0	0	0	0	0	0	0	0	0	0	0	0	0
112818	15:07:39	15:21:08	806921	5.0.10.0	993	Rpleas_acq	Same	Rpleas	Amasked	CS_B	2pleas	distractor2	AMP_CSunple	AMP1_nomask	29	3	0	0	300	300	0	0	230	50	-96,435546875	0	0	0	0	1	blank2r.bmp	0	1	BMVZ	0	1	blank2r.bmp	79	66	pic66.bmp	199	1	whitenoise.bmp	306	0	0	0	0	0	0	0	0	0	0	0	0	0	0	0	0	0	0	0	0	0	0	0	0	0	0	0	0	0	0	0	0	0	0	0	0	0	0	0
112818	15:07:39	15:21:09	807954	5.0.10.0	993	Rpleas_acq	Same	Rpleas	Amasked	CS_B	2pleas	distractor2	AMP_CSunple	AMP1_nomask	29	4	0	0	300	300	0	0	127	Ctrl+'B'	-96,435546875	1	0	0	0	1	blank2r.bmp	0	1	BMVZ	0	1	blank2r.bmp	79	112	pic112.bmp	199	1	whitenoise.bmp	306	0	0	0	0	0	0	0	0	0	0	0	0	0	0	0	0	0	0	0	0	0	0	0	0	0	0	0	0	0	0	0	0	0	0	0	0	0	0	0
112818	15:07:39	15:21:12	810626	5.0.10.0	993	Rpleas_acq	Same	Rpleas	Amasked	CS_B	2pleas	distractor2	AMP_CSpleas	AMP2	30	1	0	0	300	300	0	0	341	50	-96,435546875	1	0	0	0	1	blank2r.bmp	0	1	GKQX	0	1	blank2r.bmp	79	130	pic130.bmp	199	1	whitenoise.bmp	306	0	0	0	0	0	0	0	0	0	0	0	0	0	0	0	0	0	0	0	0	0	0	0	0	0	0	0	0	0	0	0	0	0	0	0	0	0	0	0
112818	15:07:39	15:21:13	812275	5.0.10.0	993	Rpleas_acq	Same	Rpleas	Amasked	CS_B	2pleas	distractor2	AMP_CSpleas	AMP2	30	2	0	0	300	300	0	0	728	Ctrl+'B'	-96,435546875	1	0	0	0	1	blank2r.bmp	0	1	GKQX	0	1	blank2r.bmp	79	134	pic134.bmp	199	1	whitenoise.bmp	306	0	0	0	0	0	0	0	0	0	0	0	0	0	0	0	0	0	0	0	0	0	0	0	0	0	0	0	0	0	0	0	0	0	0	0	0	0	0	0
112818	15:07:39	15:21:21	819969	5.0.10.0	993	Rpleas_acq	Same	Rpleas	Amasked	CS_B	2pleas	distractor2	EvalRating_firsttwo	EvalRating_firsttwo	31	1	0	0	300	300	0	0	1764	line	-38,0859374999999928946	0	0	0	0	1	eraser	1	1	Wie angenehm oder unangenehm finden Sie die  Buchstabenkette VGZK?	1	1	leftborder	1	1	rightborder	1	1	line	1	1	Unangenehm	1	1	Angenehm	1	0	0	0	0	0	0	0	0	0	0	0	0	0	0	0	0	0	0	0	0	0	0	0	0	0	0	0	0	0	0	0	0	0
112818	15:07:39	15:21:24	823194	5.0.10.0	993	Rpleas_acq	Same	Rpleas	Amasked	CS_B	2pleas	distractor2	EvalRating_lastfour	EvalRating_lastfour	32	1	0	0	300	300	0	0	798	line	-21,240234375	0	0	0	0	1	eraser	1	2	Wie angenehm oder unangenehm finden Sie die  Buchstabenkette GKQX?	1	1	leftborder	1	1	rightborder	1	1	line	1	1	Unangenehm	1	1	Angenehm	1	0	0	0	0	0	0	0	0	0	0	0	0	0	0	0	0	0	0	0	0	0	0	0	0	0	0	0	0	0	0	0	0	0
112818	15:07:39	15:21:27	825580	5.0.10.0	993	Rpleas_acq	Same	Rpleas	Amasked	CS_B	2pleas	distractor2	blank_screen	EvalRating_lastfour	32	3	0	0	300	300	0	0	0	0	-21,240234375	0	0	0	0	1	eraser	0	0	0	0	0	0	0	0	0	0	0	0	0	0	0	0	0	0	0	0	0	0	0	0	0	0	0	0	0	0	0	0	0	0	0	0	0	0	0	0	0	0	0	0	0	0	0	0	0	0	0	0
112818	15:07:39	15:21:28	826659	5.0.10.0	993	Rpleas_acq	Same	Rpleas	Amasked	CS_B	2pleas	distractor2	EvalRating_lastfour	EvalRating_lastfour	32	4	0	0	300	300	0	0	498	line	-20,263671875	0	0	0	0	1	eraser	1	3	Wie angenehm oder unangenehm finden Sie die  Buchstabenkette QMXB?	1	1	leftborder	1	1	rightborder	1	1	line	1	1	Unangenehm	1	1	Angenehm	1	0	0	0	0	0	0	0	0	0	0	0	0	0	0	0	0	0	0	0	0	0	0	0	0	0	0	0	0	0	0	0	0	0
112818	15:07:39	15:21:30	829032	5.0.10.0	993	Rpleas_acq	Same	Rpleas	Amasked	CS_B	2pleas	distractor2	blank_screen	EvalRating_lastfour	32	6	0	0	300	300	0	0	0	0	-20,263671875	0	0	0	0	1	eraser	0	0	0	0	0	0	0	0	0	0	0	0	0	0	0	0	0	0	0	0	0	0	0	0	0	0	0	0	0	0	0	0	0	0	0	0	0	0	0	0	0	0	0	0	0	0	0	0	0	0	0	0
112818	15:07:39	15:21:32	830951	5.0.10.0	993	Rpleas_acq	Same	Rpleas	Amasked	CS_B	2pleas	distractor2	EvalRating_lastfour	EvalRating_lastfour	32	7	0	0	300	300	0	0	1334	line	2,9296875	0	0	0	0	1	eraser	0	1	Wie angenehm oder unangenehm finden Sie die  Buchstabenkette BMVZ?	0	1	leftborder	0	1	rightborder	0	1	line	0	1	Unangenehm	0	1	Angenehm	0	0	0	0	0	0	0	0	0	0	0	0	0	0	0	0	0	0	0	0	0	0	0	0	0	0	0	0	0	0	0	0	0	0
112818	15:07:39	15:23:32	951141	5.0.10.0	993	Rpleas_acq	Same	Rpleas	Amasked	CS_A	2pleas	distractor2	pracobj1_US_unple_CS2	vispracOBJ_masked_1	34	1	0	0	300	300	0	0	689	30	2,9296875	0	0	0	0	1	blank2r.bmp	0	1	+	0	6	C2r.bmp	492	1	blank2r.bmp	692	1	DHJF	692	5	C1r.bmp	826	1	blank2r.bmp	866	6	engstirnig	866	1	!	1212	1	blank2r.bmp	1346	1	FEHLER	2065	0	0	0	0	0	0	0	0	0	0	0	0	0	0	0	0	0	0	0	0	0
112818	15:07:39	15:23:36	954807	5.0.10.0	993	Rpleas_acq	Same	Rpleas	Amasked	CS_A	2pleas	distractor2	pracobj1_US_unple_CS2	vispracOBJ_masked_1	34	2	0	0	300	300	0	0	1905	44	2,9296875	1	0	0	0	1	blank2r.bmp	0	1	+	0	1	B1r.bmp	492	1	blank2r.bmp	692	1	DHJF	692	3	B3r.bmp	826	1	blank2r.bmp	866	1	töten	866	1	!	1212	1	blank2r.bmp	1346	0	0	0	0	0	0	0	0	0	0	0	0	0	0	0	0	0	0	0	0	0	0	0	0
112818	15:07:39	15:23:38	957112	5.0.10.0	993	Rpleas_acq	Same	Rpleas	Amasked	CS_A	2pleas	distractor2	pracobj1_US_unple_CS1	vispracOBJ_masked_1	34	3	0	0	300	300	0	0	337	30	2,9296875	1	0	0	0	1	blank2r.bmp	0	1	+	0	2	B2r.bmp	492	1	blank2r.bmp	692	1	CPLW	692	4	B4r.bmp	826	1	blank2r.bmp	866	2	bange	866	1	!	1212	1	blank2r.bmp	1346	0	0	0	0	0	0	0	0	0	0	0	0	0	0	0	0	0	0	0	0	0	0	0	0
112818	15:07:39	15:23:41	959591	5.0.10.0	993	Rpleas_acq	Same	Rpleas	Amasked	CS_A	2pleas	distractor2	pracobj1_US_unple_CS1	vispracOBJ_masked_1	34	4	0	0	300	300	0	0	512	30	2,9296875	1	0	0	0	1	blank2r.bmp	0	1	+	0	8	C4r.bmp	492	1	blank2r.bmp	692	1	CPLW	692	7	C3r.bmp	826	1	blank2r.bmp	866	4	gierig	866	1	!	1212	1	blank2r.bmp	1346	0	0	0	0	0	0	0	0	0	0	0	0	0	0	0	0	0	0	0	0	0	0	0	0
112818	15:07:39	15:23:43	962044	5.0.10.0	993	Rpleas_acq	Same	Rpleas	Amasked	CS_A	2pleas	distractor2	pracobj1_US_pleas_CS1	vispracOBJ_masked_1	34	5	0	0	300	300	0	0	490	30	2,9296875	1	0	0	0	1	blank2r.bmp	0	1	+	0	4	B4r.bmp	492	1	blank2r.bmp	692	1	CPLW	692	6	C2r.bmp	826	1	blank2r.bmp	866	1	kreativ	866	1	!	1212	1	blank2r.bmp	1346	0	0	0	0	0	0	0	0	0	0	0	0	0	0	0	0	0	0	0	0	0	0	0	0
112818	15:07:39	15:23:45	964229	5.0.10.0	993	Rpleas_acq	Same	Rpleas	Amasked	CS_A	2pleas	distractor2	pracobj1_US_pleas_CS1	vispracOBJ_masked_1	34	6	0	0	300	300	0	0	212	30	2,9296875	1	0	0	0	1	blank2r.bmp	0	1	+	0	3	B3r.bmp	492	1	blank2r.bmp	692	1	CPLW	692	1	B1r.bmp	826	1	blank2r.bmp	866	2	genießen	866	1	!	1212	1	blank2r.bmp	1346	0	0	0	0	0	0	0	0	0	0	0	0	0	0	0	0	0	0	0	0	0	0	0	0
112818	15:07:39	15:23:48	966588	5.0.10.0	993	Rpleas_acq	Same	Rpleas	Amasked	CS_A	2pleas	distractor2	pracobj1_US_pleas_CS2	vispracOBJ_masked_1	34	7	0	0	300	300	0	0	397	44	2,9296875	1	0	0	0	1	blank2r.bmp	0	1	+	0	5	C1r.bmp	492	1	blank2r.bmp	692	1	DHJF	692	2	B2r.bmp	826	1	blank2r.bmp	866	4	träumen	866	1	!	1212	1	blank2r.bmp	1346	0	0	0	0	0	0	0	0	0	0	0	0	0	0	0	0	0	0	0	0	0	0	0	0
112818	15:07:39	15:23:50	968881	5.0.10.0	993	Rpleas_acq	Same	Rpleas	Amasked	CS_A	2pleas	distractor2	pracobj1_US_pleas_CS1	vispracOBJ_masked_1	34	8	0	0	300	300	0	0	322	30	2,9296875	1	0	0	0	1	blank2r.bmp	0	1	+	0	7	C3r.bmp	492	1	blank2r.bmp	692	1	CPLW	692	8	C4r.bmp	826	1	blank2r.bmp	866	6	gütig	866	1	!	1212	1	blank2r.bmp	1346	0	0	0	0	0	0	0	0	0	0	0	0	0	0	0	0	0	0	0	0	0	0	0	0
112818	15:07:39	15:23:52	971067	5.0.10.0	993	Rpleas_acq	Same	Rpleas	Amasked	CS_A	2pleas	distractor2	pracobj1_US_unple_CS2	vispracOBJ_masked_1	34	9	0	0	300	300	0	0	230	44	2,9296875	1	0	0	0	1	blank2r.bmp	0	1	+	0	5	C1r.bmp	492	1	blank2r.bmp	692	1	DHJF	692	6	C2r.bmp	826	1	blank2r.bmp	866	5	sterben	866	1	!	1212	1	blank2r.bmp	1346	0	0	0	0	0	0	0	0	0	0	0	0	0	0	0	0	0	0	0	0	0	0	0	0
112818	15:07:39	15:23:54	973332	5.0.10.0	993	Rpleas_acq	Same	Rpleas	Amasked	CS_A	2pleas	distractor2	pracobj1_US_pleas_CS2	vispracOBJ_masked_1	34	10	0	0	300	300	0	0	311	44	2,9296875	1	0	0	0	1	blank2r.bmp	0	1	+	0	8	C4r.bmp	492	1	blank2r.bmp	692	1	DHJF	692	3	B3r.bmp	826	1	blank2r.bmp	866	5	anregung	866	1	!	1212	1	blank2r.bmp	1346	0	0	0	0	0	0	0	0	0	0	0	0	0	0	0	0	0	0	0	0	0	0	0	0
112818	15:07:39	15:23:57	975931	5.0.10.0	993	Rpleas_acq	Same	Rpleas	Amasked	CS_A	2pleas	distractor2	pracobj1_US_pleas_CS2	vispracOBJ_masked_1	34	11	0	0	300	300	0	0	415	30	2,9296875	0	0	0	0	1	blank2r.bmp	0	1	+	0	3	B3r.bmp	492	1	blank2r.bmp	692	1	DHJF	692	8	C4r.bmp	826	1	blank2r.bmp	866	3	sonnig	866	1	!	1212	1	blank2r.bmp	1346	1	FEHLER	1799	0	0	0	0	0	0	0	0	0	0	0	0	0	0	0	0	0	0	0	0	0
112818	15:07:39	15:23:59	978077	5.0.10.0	993	Rpleas_acq	Same	Rpleas	Amasked	CS_A	2pleas	distractor2	pracobj1_US_unple_CS1	vispracOBJ_masked_1	34	12	0	0	300	300	0	0	409	30	2,9296875	1	0	0	0	1	blank2r.bmp	0	1	+	0	6	C2r.bmp	492	1	blank2r.bmp	692	1	CPLW	692	1	B1r.bmp	826	1	blank2r.bmp	866	2	bange	866	1	!	1212	1	blank2r.bmp	1346	0	0	0	0	0	0	0	0	0	0	0	0	0	0	0	0	0	0	0	0	0	0	0	0
112818	15:07:39	15:24:10	989192	5.0.10.0	993	Rpleas_acq	Same	Rpleas	Amasked	CS_A	2pleas	distractor2	pracobj2_US_pleas_CS2	vispracOBJ_masked_2	35	1	0	0	300	300	0	0	304	44	2,9296875	1	83,3333333333333285964	0	0	1	blank2r.bmp	0	1	+	0	2	B2r.bmp	492	1	blank2r.bmp	719	1	DHJF	719	4	B4r.bmp	812	1	blank2r.bmp	852	2	genießen	852	1	!	1199	1	blank2r.bmp	1332	0	0	0	0	0	0	0	0	0	0	0	0	0	0	0	0	0	0	0	0	0	0	0	0
112818	15:07:39	15:24:13	991551	5.0.10.0	993	Rpleas_acq	Same	Rpleas	Amasked	CS_A	2pleas	distractor2	pracobj2_US_unple_CS2	vispracOBJ_masked_2	35	2	0	0	300	300	0	0	412	44	2,9296875	1	83,3333333333333285964	0	0	1	blank2r.bmp	0	1	+	0	4	B4r.bmp	492	1	blank2r.bmp	719	1	DHJF	719	7	C3r.bmp	812	1	blank2r.bmp	852	4	gierig	852	1	!	1199	1	blank2r.bmp	1332	0	0	0	0	0	0	0	0	0	0	0	0	0	0	0	0	0	0	0	0	0	0	0	0
112818	15:07:39	15:24:15	993724	5.0.10.0	993	Rpleas_acq	Same	Rpleas	Amasked	CS_A	2pleas	distractor2	pracobj2_US_unple_CS1	vispracOBJ_masked_2	35	3	0	0	300	300	0	0	227	30	2,9296875	1	83,3333333333333285964	0	0	1	blank2r.bmp	0	1	+	0	1	B1r.bmp	492	1	blank2r.bmp	719	1	CPLW	719	2	B2r.bmp	812	1	blank2r.bmp	852	5	sterben	852	1	!	1199	1	blank2r.bmp	1332	0	0	0	0	0	0	0	0	0	0	0	0	0	0	0	0	0	0	0	0	0	0	0	0
112818	15:07:39	15:24:17	995896	5.0.10.0	993	Rpleas_acq	Same	Rpleas	Amasked	CS_A	2pleas	distractor2	pracobj2_US_unple_CS2	vispracOBJ_masked_2	35	4	0	0	300	300	0	0	237	44	2,9296875	1	83,3333333333333285964	0	0	1	blank2r.bmp	0	1	+	0	8	C4r.bmp	492	1	blank2r.bmp	719	1	DHJF	719	5	C1r.bmp	812	1	blank2r.bmp	852	6	engstirnig	852	1	!	1199	1	blank2r.bmp	1332	0	0	0	0	0	0	0	0	0	0	0	0	0	0	0	0	0	0	0	0	0	0	0	0
112818	15:07:39	15:24:19	998109	5.0.10.0	993	Rpleas_acq	Same	Rpleas	Amasked	CS_A	2pleas	distractor2	pracobj2_US_unple_CS2	vispracOBJ_masked_2	35	5	0	0	300	300	0	0	260	44	2,9296875	1	83,3333333333333285964	0	0	1	blank2r.bmp	0	1	+	0	7	C3r.bmp	492	1	blank2r.bmp	719	1	DHJF	719	8	C4r.bmp	812	1	blank2r.bmp	852	3	krise	852	1	!	1199	1	blank2r.bmp	1332	0	0	0	0	0	0	0	0	0	0	0	0	0	0	0	0	0	0	0	0	0	0	0	0
112818	15:07:39	15:24:21	1000335	5.0.10.0	993	Rpleas_acq	Same	Rpleas	Amasked	CS_A	2pleas	distractor2	pracobj2_US_pleas_CS2	vispracOBJ_masked_2	35	6	0	0	300	300	0	0	270	44	2,9296875	1	83,3333333333333285964	0	0	1	blank2r.bmp	0	1	+	0	6	C2r.bmp	492	1	blank2r.bmp	719	1	DHJF	719	7	C3r.bmp	812	1	blank2r.bmp	852	4	träumen	852	1	!	1199	1	blank2r.bmp	1332	0	0	0	0	0	0	0	0	0	0	0	0	0	0	0	0	0	0	0	0	0	0	0	0
112818	15:07:39	15:24:24	1002520	5.0.10.0	993	Rpleas_acq	Same	Rpleas	Amasked	CS_A	2pleas	distractor2	pracobj2_US_pleas_CS1	vispracOBJ_masked_2	35	7	0	0	300	300	0	0	242	30	2,9296875	1	83,3333333333333285964	0	0	1	blank2r.bmp	0	1	+	0	4	B4r.bmp	492	1	blank2r.bmp	719	1	CPLW	719	5	C1r.bmp	812	1	blank2r.bmp	852	5	anregung	852	1	!	1199	1	blank2r.bmp	1332	0	0	0	0	0	0	0	0	0	0	0	0	0	0	0	0	0	0	0	0	0	0	0	0
112818	15:07:39	15:24:26	1004533	5.0.10.0	993	Rpleas_acq	Same	Rpleas	Amasked	CS_A	2pleas	distractor2	pracobj2_US_pleas_CS2	vispracOBJ_masked_2	35	8	0	0	300	300	0	0	71	44	2,9296875	1	83,3333333333333285964	0	0	1	blank2r.bmp	0	1	+	0	5	C1r.bmp	492	1	blank2r.bmp	719	1	DHJF	719	3	B3r.bmp	812	1	blank2r.bmp	852	1	kreativ	852	1	!	1199	1	blank2r.bmp	1332	0	0	0	0	0	0	0	0	0	0	0	0	0	0	0	0	0	0	0	0	0	0	0	0
112818	15:07:39	15:24:28	1006639	5.0.10.0	993	Rpleas_acq	Same	Rpleas	Amasked	CS_A	2pleas	distractor2	pracobj2_US_unple_CS1	vispracOBJ_masked_2	35	9	0	0	300	300	0	0	149	30	2,9296875	1	83,3333333333333285964	0	0	1	blank2r.bmp	0	1	+	0	3	B3r.bmp	492	1	blank2r.bmp	719	1	CPLW	719	4	B4r.bmp	812	1	blank2r.bmp	852	1	töten	852	1	!	1199	1	blank2r.bmp	1332	0	0	0	0	0	0	0	0	0	0	0	0	0	0	0	0	0	0	0	0	0	0	0	0
112818	15:07:39	15:24:30	1008878	5.0.10.0	993	Rpleas_acq	Same	Rpleas	Amasked	CS_A	2pleas	distractor2	pracobj2_US_pleas_CS1	vispracOBJ_masked_2	35	10	0	0	300	300	0	0	300	30	2,9296875	1	83,3333333333333285964	0	0	1	blank2r.bmp	0	1	+	0	2	B2r.bmp	492	1	blank2r.bmp	719	1	CPLW	719	6	C2r.bmp	812	1	blank2r.bmp	852	3	sonnig	852	1	!	1199	1	blank2r.bmp	1332	0	0	0	0	0	0	0	0	0	0	0	0	0	0	0	0	0	0	0	0	0	0	0	0
112818	15:07:39	15:24:32	1011157	5.0.10.0	993	Rpleas_acq	Same	Rpleas	Amasked	CS_A	2pleas	distractor2	pracobj2_US_pleas_CS1	vispracOBJ_masked_2	35	11	0	0	300	300	0	0	333	30	2,9296875	1	83,3333333333333285964	0	0	1	blank2r.bmp	0	1	+	0	1	B1r.bmp	492	1	blank2r.bmp	719	1	CPLW	719	2	B2r.bmp	812	1	blank2r.bmp	852	6	gütig	852	1	!	1199	1	blank2r.bmp	1332	0	0	0	0	0	0	0	0	0	0	0	0	0	0	0	0	0	0	0	0	0	0	0	0
112818	15:07:39	15:24:35	1013342	5.0.10.0	993	Rpleas_acq	Same	Rpleas	Amasked	CS_A	2pleas	distractor2	pracobj2_US_unple_CS1	vispracOBJ_masked_2	35	12	0	0	300	300	0	0	246	30	2,9296875	1	83,3333333333333285964	0	0	1	blank2r.bmp	0	1	+	0	3	B3r.bmp	492	1	blank2r.bmp	719	1	CPLW	719	1	B1r.bmp	812	1	blank2r.bmp	852	4	gierig	852	1	!	1199	1	blank2r.bmp	1332	0	0	0	0	0	0	0	0	0	0	0	0	0	0	0	0	0	0	0	0	0	0	0	0
112818	15:07:39	15:24:45	1024018	5.0.10.0	993	Rpleas_acq	Same	Rpleas	Amasked	CS_A	2pleas	distractor2	vistestobj_masked_US_pleas_CS2	vistestOBJ_masked_1	36	1	0	0	300	300	0	0	253	44	2,9296875	1	100	0	0	1	blank2r.bmp	0	1	+	0	5	C1r.bmp	492	1	blank2r.bmp	786	1	DHJF	786	1	blank2r.bmp	866	4	träumen	866	1	!	1212	1	blank2r.bmp	1346	0	0	0	0	0	0	0	0	0	0	0	0	0	0	0	0	0	0	0	0	0	0	0	0	0	0	0
112818	15:07:39	15:24:47	1026257	5.0.10.0	993	Rpleas_acq	Same	Rpleas	Amasked	CS_A	2pleas	distractor2	vistestobj_masked_US_pleas_CS1	vistestOBJ_masked_1	36	2	0	0	300	300	0	0	283	30	2,9296875	1	100	0	0	1	blank2r.bmp	0	1	+	0	2	B2r.bmp	492	1	blank2r.bmp	786	1	CPLW	786	1	blank2r.bmp	866	3	sonnig	866	1	!	1212	1	blank2r.bmp	1346	0	0	0	0	0	0	0	0	0	0	0	0	0	0	0	0	0	0	0	0	0	0	0	0	0	0	0
112818	15:07:39	15:24:50	1028443	5.0.10.0	993	Rpleas_acq	Same	Rpleas	Amasked	CS_A	2pleas	distractor2	vistestobj_masked_US_unple_CS2	vistestOBJ_masked_1	36	3	0	0	300	300	0	0	230	44	2,9296875	1	100	0	0	1	blank2r.bmp	0	1	+	0	7	C3r.bmp	492	1	blank2r.bmp	786	1	DHJF	786	1	blank2r.bmp	866	2	bange	866	1	!	1212	1	blank2r.bmp	1346	0	0	0	0	0	0	0	0	0	0	0	0	0	0	0	0	0	0	0	0	0	0	0	0	0	0	0
112818	15:07:39	15:24:52	1030869	5.0.10.0	993	Rpleas_acq	Same	Rpleas	Amasked	CS_A	2pleas	distractor2	vistestobj_masked_US_unple_CS2	vistestOBJ_masked_1	36	4	0	0	300	300	0	0	474	44	2,9296875	1	100	0	0	1	blank2r.bmp	0	1	+	0	4	B4r.bmp	492	1	blank2r.bmp	786	1	DHJF	786	1	blank2r.bmp	866	1	töten	866	1	!	1212	1	blank2r.bmp	1346	0	0	0	0	0	0	0	0	0	0	0	0	0	0	0	0	0	0	0	0	0	0	0	0	0	0	0
112818	15:07:39	15:24:54	1033201	5.0.10.0	993	Rpleas_acq	Same	Rpleas	Amasked	CS_A	2pleas	distractor2	motivation_obj_US_unple_CS1	vistestOBJ_masked_1	36	5	0	0	300	300	0	0	329	30	2,9296875	1	100	0	0	1	blank2r.bmp	0	1	+	0	1	B1r.bmp	492	1	blank2r.bmp	786	1	CPLW	786	1	blank2r.bmp	906	6	engstirnig	906	1	!	1252	1	blank2r.bmp	1386	0	0	0	0	0	0	0	0	0	0	0	0	0	0	0	0	0	0	0	0	0	0	0	0	0	0	0
112818	15:07:39	15:24:57	1035360	5.0.10.0	993	Rpleas_acq	Same	Rpleas	Amasked	CS_A	2pleas	distractor2	vistestobj_masked_US_unple_CS2	vistestOBJ_masked_1	36	6	0	0	300	300	0	0	190	44	2,9296875	1	100	0	0	1	blank2r.bmp	0	1	+	0	8	C4r.bmp	492	1	blank2r.bmp	786	1	DHJF	786	1	blank2r.bmp	866	3	krise	866	1	!	1212	1	blank2r.bmp	1346	0	0	0	0	0	0	0	0	0	0	0	0	0	0	0	0	0	0	0	0	0	0	0	0	0	0	0
112818	15:07:39	15:24:59	1037506	5.0.10.0	993	Rpleas_acq	Same	Rpleas	Amasked	CS_A	2pleas	distractor2	vistestobj_masked_US_unple_CS1	vistestOBJ_masked_1	36	7	0	0	300	300	0	0	172	30	2,9296875	1	100	0	0	1	blank2r.bmp	0	1	+	0	6	C2r.bmp	492	1	blank2r.bmp	786	1	CPLW	786	1	blank2r.bmp	866	5	sterben	866	1	!	1212	1	blank2r.bmp	1346	0	0	0	0	0	0	0	0	0	0	0	0	0	0	0	0	0	0	0	0	0	0	0	0	0	0	0
112818	15:07:39	15:25:01	1039745	5.0.10.0	993	Rpleas_acq	Same	Rpleas	Amasked	CS_A	2pleas	distractor2	vistestobj_masked_US_pleas_CS1	vistestOBJ_masked_1	36	8	0	0	300	300	0	0	282	44	2,9296875	0	100	0	0	1	blank2r.bmp	0	1	+	0	5	C1r.bmp	492	1	blank2r.bmp	786	1	CPLW	786	1	blank2r.bmp	866	1	kreativ	866	1	!	1212	1	blank2r.bmp	1346	0	0	0	0	0	0	0	0	0	0	0	0	0	0	0	0	0	0	0	0	0	0	0	0	0	0	0
112818	15:07:39	15:25:04	1042344	5.0.10.0	993	Rpleas_acq	Same	Rpleas	Amasked	CS_A	2pleas	distractor2	vistestobj_masked_US_unple_CS2	vistestOBJ_masked_1	36	9	0	0	300	300	0	0	624	30	2,9296875	0	100	0	0	1	blank2r.bmp	0	1	+	0	6	C2r.bmp	492	1	blank2r.bmp	786	1	DHJF	786	1	blank2r.bmp	866	4	gierig	866	1	!	1212	1	blank2r.bmp	1346	0	0	0	0	0	0	0	0	0	0	0	0	0	0	0	0	0	0	0	0	0	0	0	0	0	0	0
112818	15:07:39	15:25:06	1044663	5.0.10.0	993	Rpleas_acq	Same	Rpleas	Amasked	CS_A	2pleas	distractor2	vistestobj_masked_US_unple_CS2	vistestOBJ_masked_1	36	10	0	0	300	300	0	0	362	44	2,9296875	1	100	0	0	1	blank2r.bmp	0	1	+	0	4	B4r.bmp	492	1	blank2r.bmp	786	1	DHJF	786	1	blank2r.bmp	866	2	bange	866	1	!	1212	1	blank2r.bmp	1346	0	0	0	0	0	0	0	0	0	0	0	0	0	0	0	0	0	0	0	0	0	0	0	0	0	0	0
112818	15:07:39	15:25:08	1046889	5.0.10.0	993	Rpleas_acq	Same	Rpleas	Amasked	CS_A	2pleas	distractor2	vistestobj_masked_US_unple_CS2	vistestOBJ_masked_1	36	11	0	0	300	300	0	0	265	44	2,9296875	1	100	0	0	1	blank2r.bmp	0	1	+	0	1	B1r.bmp	492	1	blank2r.bmp	786	1	DHJF	786	1	blank2r.bmp	866	6	engstirnig	866	1	!	1212	1	blank2r.bmp	1346	0	0	0	0	0	0	0	0	0	0	0	0	0	0	0	0	0	0	0	0	0	0	0	0	0	0	0
112818	15:07:39	15:25:10	1049101	5.0.10.0	993	Rpleas_acq	Same	Rpleas	Amasked	CS_A	2pleas	distractor2	vistestobj_masked_US_pleas_CS2	vistestOBJ_masked_1	36	12	0	0	300	300	0	0	259	30	2,9296875	0	100	0	0	1	blank2r.bmp	0	1	+	0	7	C3r.bmp	492	1	blank2r.bmp	786	1	DHJF	786	1	blank2r.bmp	866	6	gütig	866	1	!	1212	1	blank2r.bmp	1346	0	0	0	0	0	0	0	0	0	0	0	0	0	0	0	0	0	0	0	0	0	0	0	0	0	0	0
112818	15:07:39	15:25:13	1051447	5.0.10.0	993	Rpleas_acq	Same	Rpleas	Amasked	CS_A	2pleas	distractor2	vistestobj_masked_US_unple_CS1	vistestOBJ_masked_1	36	13	0	0	300	300	0	0	373	44	2,9296875	0	100	0	0	1	blank2r.bmp	0	1	+	0	3	B3r.bmp	492	1	blank2r.bmp	786	1	CPLW	786	1	blank2r.bmp	866	1	töten	866	1	!	1212	1	blank2r.bmp	1346	0	0	0	0	0	0	0	0	0	0	0	0	0	0	0	0	0	0	0	0	0	0	0	0	0	0	0
112818	15:07:39	15:25:15	1053713	5.0.10.0	993	Rpleas_acq	Same	Rpleas	Amasked	CS_A	2pleas	distractor2	vistestobj_masked_US_unple_CS2	vistestOBJ_masked_1	36	14	0	0	300	300	0	0	296	44	2,9296875	1	100	0	0	1	blank2r.bmp	0	1	+	0	8	C4r.bmp	492	1	blank2r.bmp	786	1	DHJF	786	1	blank2r.bmp	866	5	sterben	866	1	!	1212	1	blank2r.bmp	1346	0	0	0	0	0	0	0	0	0	0	0	0	0	0	0	0	0	0	0	0	0	0	0	0	0	0	0
112818	15:07:39	15:25:17	1055898	5.0.10.0	993	Rpleas_acq	Same	Rpleas	Amasked	CS_A	2pleas	distractor2	vistestobj_masked_US_pleas_CS1	vistestOBJ_masked_1	36	15	0	0	300	300	0	0	235	30	2,9296875	1	100	0	0	1	blank2r.bmp	0	1	+	0	2	B2r.bmp	492	1	blank2r.bmp	786	1	CPLW	786	1	blank2r.bmp	866	2	genießen	866	1	!	1212	1	blank2r.bmp	1346	0	0	0	0	0	0	0	0	0	0	0	0	0	0	0	0	0	0	0	0	0	0	0	0	0	0	0
112818	15:07:39	15:25:19	1058231	5.0.10.0	993	Rpleas_acq	Same	Rpleas	Amasked	CS_A	2pleas	distractor2	vistestobj_masked_US_unple_CS1	vistestOBJ_masked_1	36	16	0	0	300	300	0	0	359	44	2,9296875	0	100	0	0	1	blank2r.bmp	0	1	+	0	1	B1r.bmp	492	1	blank2r.bmp	786	1	CPLW	786	1	blank2r.bmp	866	3	krise	866	1	!	1212	1	blank2r.bmp	1346	0	0	0	0	0	0	0	0	0	0	0	0	0	0	0	0	0	0	0	0	0	0	0	0	0	0	0
112818	15:07:39	15:25:22	1060456	5.0.10.0	993	Rpleas_acq	Same	Rpleas	Amasked	CS_A	2pleas	distractor2	vistestobj_masked_US_unple_CS1	vistestOBJ_masked_1	36	17	0	0	300	300	0	0	277	30	2,9296875	1	100	0	0	1	blank2r.bmp	0	1	+	0	5	C1r.bmp	492	1	blank2r.bmp	786	1	CPLW	786	1	blank2r.bmp	866	5	sterben	866	1	!	1212	1	blank2r.bmp	1346	0	0	0	0	0	0	0	0	0	0	0	0	0	0	0	0	0	0	0	0	0	0	0	0	0	0	0
112818	15:07:39	15:25:24	1062735	5.0.10.0	993	Rpleas_acq	Same	Rpleas	Amasked	CS_A	2pleas	distractor2	motivation_obj_US_pleas_CS2	vistestOBJ_masked_1	36	18	0	0	300	300	0	0	271	30	2,9296875	0	100	0	0	1	blank2r.bmp	0	1	+	0	3	B3r.bmp	492	1	blank2r.bmp	786	1	DHJF	786	1	blank2r.bmp	906	5	anregung	906	1	!	1252	1	blank2r.bmp	1386	0	0	0	0	0	0	0	0	0	0	0	0	0	0	0	0	0	0	0	0	0	0	0	0	0	0	0
112818	15:07:39	15:25:26	1064961	5.0.10.0	993	Rpleas_acq	Same	Rpleas	Amasked	CS_A	2pleas	distractor2	vistestobj_masked_US_pleas_CS2	vistestOBJ_masked_1	36	19	0	0	300	300	0	0	264	30	2,9296875	0	100	0	0	1	blank2r.bmp	0	1	+	0	6	C2r.bmp	492	1	blank2r.bmp	786	1	DHJF	786	1	blank2r.bmp	866	2	genießen	866	1	!	1212	1	blank2r.bmp	1346	0	0	0	0	0	0	0	0	0	0	0	0	0	0	0	0	0	0	0	0	0	0	0	0	0	0	0
112818	15:07:39	15:25:28	1067294	5.0.10.0	993	Rpleas_acq	Same	Rpleas	Amasked	CS_A	2pleas	distractor2	vistestobj_masked_US_unple_CS1	vistestOBJ_masked_1	36	20	0	0	300	300	0	0	369	30	2,9296875	1	100	0	0	1	blank2r.bmp	0	1	+	0	2	B2r.bmp	492	1	blank2r.bmp	786	1	CPLW	786	1	blank2r.bmp	866	2	bange	866	1	!	1212	1	blank2r.bmp	1346	0	0	0	0	0	0	0	0	0	0	0	0	0	0	0	0	0	0	0	0	0	0	0	0	0	0	0
112818	15:07:39	15:25:31	1069599	5.0.10.0	993	Rpleas_acq	Same	Rpleas	Amasked	CS_A	2pleas	distractor2	vistestobj_masked_US_unple_CS1	vistestOBJ_masked_1	36	21	0	0	300	300	0	0	339	44	2,9296875	0	100	0	0	1	blank2r.bmp	0	1	+	0	4	B4r.bmp	492	1	blank2r.bmp	786	1	CPLW	786	1	blank2r.bmp	866	6	engstirnig	866	1	!	1212	1	blank2r.bmp	1346	0	0	0	0	0	0	0	0	0	0	0	0	0	0	0	0	0	0	0	0	0	0	0	0	0	0	0
112818	15:07:39	15:25:33	1071732	5.0.10.0	993	Rpleas_acq	Same	Rpleas	Amasked	CS_A	2pleas	distractor2	vistestobj_masked_US_pleas_CS2	vistestOBJ_masked_1	36	22	0	0	300	300	0	0	169	30	2,9296875	0	100	0	0	1	blank2r.bmp	0	1	+	0	7	C3r.bmp	492	1	blank2r.bmp	786	1	DHJF	786	1	blank2r.bmp	866	3	sonnig	866	1	!	1212	1	blank2r.bmp	1346	0	0	0	0	0	0	0	0	0	0	0	0	0	0	0	0	0	0	0	0	0	0	0	0	0	0	0
112818	15:07:39	15:25:35	1074011	5.0.10.0	993	Rpleas_acq	Same	Rpleas	Amasked	CS_A	2pleas	distractor2	vistestobj_masked_US_unple_CS2	vistestOBJ_masked_1	36	23	0	0	300	300	0	0	314	44	2,9296875	1	100	0	0	1	blank2r.bmp	0	1	+	0	8	C4r.bmp	492	1	blank2r.bmp	786	1	DHJF	786	1	blank2r.bmp	866	1	töten	866	1	!	1212	1	blank2r.bmp	1346	0	0	0	0	0	0	0	0	0	0	0	0	0	0	0	0	0	0	0	0	0	0	0	0	0	0	0
112818	15:07:39	15:25:37	1076183	5.0.10.0	993	Rpleas_acq	Same	Rpleas	Amasked	CS_A	2pleas	distractor2	vistestobj_masked_US_pleas_CS2	vistestOBJ_masked_1	36	24	0	0	300	300	0	0	203	30	2,9296875	0	100	0	0	1	blank2r.bmp	0	1	+	0	7	C3r.bmp	492	1	blank2r.bmp	786	1	DHJF	786	1	blank2r.bmp	866	6	gütig	866	1	!	1212	1	blank2r.bmp	1346	0	0	0	0	0	0	0	0	0	0	0	0	0	0	0	0	0	0	0	0	0	0	0	0	0	0	0
112818	15:07:39	15:25:40	1078409	5.0.10.0	993	Rpleas_acq	Same	Rpleas	Amasked	CS_A	2pleas	distractor2	vistestobj_masked_US_pleas_CS1	vistestOBJ_masked_1	36	25	0	0	300	300	0	0	264	30	2,9296875	1	100	0	0	1	blank2r.bmp	0	1	+	0	5	C1r.bmp	492	1	blank2r.bmp	786	1	CPLW	786	1	blank2r.bmp	866	1	kreativ	866	1	!	1212	1	blank2r.bmp	1346	0	0	0	0	0	0	0	0	0	0	0	0	0	0	0	0	0	0	0	0	0	0	0	0	0	0	0
112818	15:07:39	15:25:42	1080648	5.0.10.0	993	Rpleas_acq	Same	Rpleas	Amasked	CS_A	2pleas	distractor2	vistestobj_masked_US_pleas_CS1	vistestOBJ_masked_1	36	26	0	0	300	300	0	0	267	44	2,9296875	0	100	0	0	1	blank2r.bmp	0	1	+	0	1	B1r.bmp	492	1	blank2r.bmp	786	1	CPLW	786	1	blank2r.bmp	866	5	anregung	866	1	!	1212	1	blank2r.bmp	1346	0	0	0	0	0	0	0	0	0	0	0	0	0	0	0	0	0	0	0	0	0	0	0	0	0	0	0
112818	15:07:39	15:25:44	1083327	5.0.10.0	993	Rpleas_acq	Same	Rpleas	Amasked	CS_A	2pleas	distractor2	motivation_obj_US_unple_CS2	vistestOBJ_masked_1	36	27	0	0	300	300	0	0	665	30	2,9296875	0	100	0	0	1	blank2r.bmp	0	1	+	0	8	C4r.bmp	492	1	blank2r.bmp	786	1	DHJF	786	1	blank2r.bmp	906	3	krise	906	1	!	1252	1	blank2r.bmp	1386	0	0	0	0	0	0	0	0	0	0	0	0	0	0	0	0	0	0	0	0	0	0	0	0	0	0	0
112818	15:07:39	15:25:47	1085499	5.0.10.0	993	Rpleas_acq	Same	Rpleas	Amasked	CS_A	2pleas	distractor2	vistestobj_masked_US_unple_CS1	vistestOBJ_masked_1	36	28	0	0	300	300	0	0	224	44	2,9296875	0	100	0	0	1	blank2r.bmp	0	1	+	0	2	B2r.bmp	492	1	blank2r.bmp	786	1	CPLW	786	1	blank2r.bmp	866	4	gierig	866	1	!	1212	1	blank2r.bmp	1346	0	0	0	0	0	0	0	0	0	0	0	0	0	0	0	0	0	0	0	0	0	0	0	0	0	0	0
112818	15:07:39	15:25:49	1087659	5.0.10.0	993	Rpleas_acq	Same	Rpleas	Amasked	CS_A	2pleas	distractor2	vistestobj_masked_US_pleas_CS1	vistestOBJ_masked_1	36	29	0	0	300	300	0	0	191	44	2,9296875	0	100	0	0	1	blank2r.bmp	0	1	+	0	4	B4r.bmp	492	1	blank2r.bmp	786	1	CPLW	786	1	blank2r.bmp	866	4	träumen	866	1	!	1212	1	blank2r.bmp	1346	0	0	0	0	0	0	0	0	0	0	0	0	0	0	0	0	0	0	0	0	0	0	0	0	0	0	0
112818	15:07:39	15:25:51	1089818	5.0.10.0	993	Rpleas_acq	Same	Rpleas	Amasked	CS_A	2pleas	distractor2	vistestobj_masked_US_pleas_CS1	vistestOBJ_masked_1	36	30	0	0	300	300	0	0	205	30	2,9296875	1	100	0	0	1	blank2r.bmp	0	1	+	0	3	B3r.bmp	492	1	blank2r.bmp	786	1	CPLW	786	1	blank2r.bmp	866	4	träumen	866	1	!	1212	1	blank2r.bmp	1346	0	0	0	0	0	0	0	0	0	0	0	0	0	0	0	0	0	0	0	0	0	0	0	0	0	0	0
112818	15:07:39	15:25:53	1091977	5.0.10.0	993	Rpleas_acq	Same	Rpleas	Amasked	CS_A	2pleas	distractor2	vistestobj_masked_US_unple_CS1	vistestOBJ_masked_1	36	31	0	0	300	300	0	0	189	30	2,9296875	1	100	0	0	1	blank2r.bmp	0	1	+	0	6	C2r.bmp	492	1	blank2r.bmp	786	1	CPLW	786	1	blank2r.bmp	866	5	sterben	866	1	!	1212	1	blank2r.bmp	1346	0	0	0	0	0	0	0	0	0	0	0	0	0	0	0	0	0	0	0	0	0	0	0	0	0	0	0
112818	15:07:39	15:25:56	1094442	5.0.10.0	993	Rpleas_acq	Same	Rpleas	Amasked	CS_A	2pleas	distractor2	vistestobj_masked_US_pleas_CS1	vistestOBJ_masked_1	36	32	0	0	300	300	0	0	504	44	2,9296875	0	100	0	0	1	blank2r.bmp	0	1	+	0	1	B1r.bmp	492	1	blank2r.bmp	786	1	CPLW	786	1	blank2r.bmp	866	2	genießen	866	1	!	1212	1	blank2r.bmp	1346	0	0	0	0	0	0	0	0	0	0	0	0	0	0	0	0	0	0	0	0	0	0	0	0	0	0	0
112818	15:07:39	15:25:58	1096615	5.0.10.0	993	Rpleas_acq	Same	Rpleas	Amasked	CS_A	2pleas	distractor2	vistestobj_masked_US_pleas_CS2	vistestOBJ_masked_1	36	33	0	0	300	300	0	0	224	30	2,9296875	0	100	0	0	1	blank2r.bmp	0	1	+	0	3	B3r.bmp	492	1	blank2r.bmp	786	1	DHJF	786	1	blank2r.bmp	866	1	kreativ	866	1	!	1212	1	blank2r.bmp	1346	0	0	0	0	0	0	0	0	0	0	0	0	0	0	0	0	0	0	0	0	0	0	0	0	0	0	0
112818	15:07:39	15:26:00	1098814	5.0.10.0	993	Rpleas_acq	Same	Rpleas	Amasked	CS_A	2pleas	distractor2	vistestobj_masked_US_pleas_CS1	vistestOBJ_masked_1	36	34	0	0	300	300	0	0	234	30	2,9296875	1	100	0	0	1	blank2r.bmp	0	1	+	0	2	B2r.bmp	492	1	blank2r.bmp	786	1	CPLW	786	1	blank2r.bmp	866	6	gütig	866	1	!	1212	1	blank2r.bmp	1346	0	0	0	0	0	0	0	0	0	0	0	0	0	0	0	0	0	0	0	0	0	0	0	0	0	0	0
112818	15:07:39	15:26:02	1100973	5.0.10.0	993	Rpleas_acq	Same	Rpleas	Amasked	CS_A	2pleas	distractor2	vistestobj_masked_US_pleas_CS2	vistestOBJ_masked_1	36	35	0	0	300	300	0	0	202	30	2,9296875	0	100	0	0	1	blank2r.bmp	0	1	+	0	7	C3r.bmp	492	1	blank2r.bmp	786	1	DHJF	786	1	blank2r.bmp	866	5	anregung	866	1	!	1212	1	blank2r.bmp	1346	0	0	0	0	0	0	0	0	0	0	0	0	0	0	0	0	0	0	0	0	0	0	0	0	0	0	0
112818	15:07:39	15:26:04	1103039	5.0.10.0	993	Rpleas_acq	Same	Rpleas	Amasked	CS_A	2pleas	distractor2	vistestobj_masked_US_pleas_CS2	vistestOBJ_masked_1	36	36	0	0	300	300	0	0	102	30	2,9296875	0	100	0	0	1	blank2r.bmp	0	1	+	0	4	B4r.bmp	492	1	blank2r.bmp	786	1	DHJF	786	1	blank2r.bmp	866	3	sonnig	866	1	!	1212	1	blank2r.bmp	1346	0	0	0	0	0	0	0	0	0	0	0	0	0	0	0	0	0	0	0	0	0	0	0	0	0	0	0
112818	15:07:39	15:26:06	1105105	5.0.10.0	993	Rpleas_acq	Same	Rpleas	Amasked	CS_A	2pleas	distractor2	vistestobj_masked_US_pleas_CS1	vistestOBJ_masked_1	36	37	0	0	300	300	0	0	107	30	2,9296875	1	100	0	0	1	blank2r.bmp	0	1	+	0	6	C2r.bmp	492	1	blank2r.bmp	786	1	CPLW	786	1	blank2r.bmp	866	6	gütig	866	1	!	1212	1	blank2r.bmp	1346	0	0	0	0	0	0	0	0	0	0	0	0	0	0	0	0	0	0	0	0	0	0	0	0	0	0	0
112818	15:07:39	15:26:09	1107437	5.0.10.0	993	Rpleas_acq	Same	Rpleas	Amasked	CS_A	2pleas	distractor2	vistestobj_masked_US_unple_CS2	vistestOBJ_masked_1	36	38	0	0	300	300	0	0	373	30	2,9296875	0	100	0	0	1	blank2r.bmp	0	1	+	0	5	C1r.bmp	492	1	blank2r.bmp	786	1	DHJF	786	1	blank2r.bmp	866	1	töten	866	1	!	1212	1	blank2r.bmp	1346	0	0	0	0	0	0	0	0	0	0	0	0	0	0	0	0	0	0	0	0	0	0	0	0	0	0	0
112818	15:07:39	15:26:11	1109729	5.0.10.0	993	Rpleas_acq	Same	Rpleas	Amasked	CS_A	2pleas	distractor2	vistestobj_masked_US_pleas_CS1	vistestOBJ_masked_1	36	39	0	0	300	300	0	0	335	30	2,9296875	1	100	0	0	1	blank2r.bmp	0	1	+	0	8	C4r.bmp	492	1	blank2r.bmp	786	1	CPLW	786	1	blank2r.bmp	866	4	träumen	866	1	!	1212	1	blank2r.bmp	1346	0	0	0	0	0	0	0	0	0	0	0	0	0	0	0	0	0	0	0	0	0	0	0	0	0	0	0
112818	15:07:39	15:26:13	1112022	5.0.10.0	993	Rpleas_acq	Same	Rpleas	Amasked	CS_A	2pleas	distractor2	vistestobj_masked_US_pleas_CS2	vistestOBJ_masked_1	36	40	0	0	300	300	0	0	327	44	2,9296875	1	100	0	0	1	blank2r.bmp	0	1	+	0	6	C2r.bmp	492	1	blank2r.bmp	786	1	DHJF	786	1	blank2r.bmp	866	3	sonnig	866	1	!	1212	1	blank2r.bmp	1346	0	0	0	0	0	0	0	0	0	0	0	0	0	0	0	0	0	0	0	0	0	0	0	0	0	0	0
112818	15:07:39	15:26:15	1114234	5.0.10.0	993	Rpleas_acq	Same	Rpleas	Amasked	CS_A	2pleas	distractor2	vistestobj_masked_US_pleas_CS2	vistestOBJ_masked_1	36	41	0	0	300	300	0	0	247	44	2,9296875	1	100	0	0	1	blank2r.bmp	0	1	+	0	8	C4r.bmp	492	1	blank2r.bmp	786	1	DHJF	786	1	blank2r.bmp	866	5	anregung	866	1	!	1212	1	blank2r.bmp	1346	0	0	0	0	0	0	0	0	0	0	0	0	0	0	0	0	0	0	0	0	0	0	0	0	0	0	0
112818	15:07:39	15:26:18	1116420	5.0.10.0	993	Rpleas_acq	Same	Rpleas	Amasked	CS_A	2pleas	distractor2	motivation_obj_US_pleas_CS1	vistestOBJ_masked_1	36	42	0	0	300	300	0	0	182	30	2,9296875	1	100	0	0	1	blank2r.bmp	0	1	+	0	3	B3r.bmp	492	1	blank2r.bmp	786	1	CPLW	786	1	blank2r.bmp	906	2	genießen	906	1	!	1252	1	blank2r.bmp	1386	0	0	0	0	0	0	0	0	0	0	0	0	0	0	0	0	0	0	0	0	0	0	0	0	0	0	0
112818	15:07:39	15:26:20	1118699	5.0.10.0	993	Rpleas_acq	Same	Rpleas	Amasked	CS_A	2pleas	distractor2	vistestobj_masked_US_pleas_CS2	vistestOBJ_masked_1	36	43	0	0	300	300	0	0	317	44	2,9296875	1	100	0	0	1	blank2r.bmp	0	1	+	0	7	C3r.bmp	492	1	blank2r.bmp	786	1	DHJF	786	1	blank2r.bmp	866	1	kreativ	866	1	!	1212	1	blank2r.bmp	1346	0	0	0	0	0	0	0	0	0	0	0	0	0	0	0	0	0	0	0	0	0	0	0	0	0	0	0
112818	15:07:39	15:26:22	1120805	5.0.10.0	993	Rpleas_acq	Same	Rpleas	Amasked	CS_A	2pleas	distractor2	vistestobj_masked_US_unple_CS2	vistestOBJ_masked_1	36	44	0	0	300	300	0	0	134	44	2,9296875	1	100	0	0	1	blank2r.bmp	0	1	+	0	2	B2r.bmp	492	1	blank2r.bmp	786	1	DHJF	786	1	blank2r.bmp	866	4	gierig	866	1	!	1212	1	blank2r.bmp	1346	0	0	0	0	0	0	0	0	0	0	0	0	0	0	0	0	0	0	0	0	0	0	0	0	0	0	0
112818	15:07:39	15:26:24	1122977	5.0.10.0	993	Rpleas_acq	Same	Rpleas	Amasked	CS_A	2pleas	distractor2	vistestobj_masked_US_unple_CS1	vistestOBJ_masked_1	36	45	0	0	300	300	0	0	209	30	2,9296875	1	100	0	0	1	blank2r.bmp	0	1	+	0	5	C1r.bmp	492	1	blank2r.bmp	786	1	CPLW	786	1	blank2r.bmp	866	2	bange	866	1	!	1212	1	blank2r.bmp	1346	0	0	0	0	0	0	0	0	0	0	0	0	0	0	0	0	0	0	0	0	0	0	0	0	0	0	0
112818	15:07:39	15:26:26	1125097	5.0.10.0	993	Rpleas_acq	Same	Rpleas	Amasked	CS_A	2pleas	distractor2	vistestobj_masked_US_unple_CS1	vistestOBJ_masked_1	36	46	0	0	300	300	0	0	145	44	2,9296875	0	100	0	0	1	blank2r.bmp	0	1	+	0	1	B1r.bmp	492	1	blank2r.bmp	786	1	CPLW	786	1	blank2r.bmp	866	6	engstirnig	866	1	!	1212	1	blank2r.bmp	1346	0	0	0	0	0	0	0	0	0	0	0	0	0	0	0	0	0	0	0	0	0	0	0	0	0	0	0
112818	15:07:39	15:26:28	1127216	5.0.10.0	993	Rpleas_acq	Same	Rpleas	Amasked	CS_A	2pleas	distractor2	vistestobj_masked_US_pleas_CS1	vistestOBJ_masked_1	36	47	0	0	300	300	0	0	170	30	2,9296875	1	100	0	0	1	blank2r.bmp	0	1	+	0	4	B4r.bmp	492	1	blank2r.bmp	786	1	CPLW	786	1	blank2r.bmp	866	3	sonnig	866	1	!	1212	1	blank2r.bmp	1346	0	0	0	0	0	0	0	0	0	0	0	0	0	0	0	0	0	0	0	0	0	0	0	0	0	0	0
112818	15:07:39	15:26:31	1129428	5.0.10.0	993	Rpleas_acq	Same	Rpleas	Amasked	CS_A	2pleas	distractor2	vistestobj_masked_US_unple_CS1	vistestOBJ_masked_1	36	48	0	0	300	300	0	0	251	30	2,9296875	1	100	0	0	1	blank2r.bmp	0	1	+	0	4	B4r.bmp	492	1	blank2r.bmp	786	1	CPLW	786	1	blank2r.bmp	866	3	krise	866	1	!	1212	1	blank2r.bmp	1346	0	0	0	0	0	0	0	0	0	0	0	0	0	0	0	0	0	0	0	0	0	0	0	0	0	0	0
112818	15:07:39	15:26:33	1131960	5.0.10.0	993	Rpleas_acq	Same	Rpleas	Amasked	CS_A	2pleas	distractor2	vistestobj_masked_US_unple_CS1	vistestOBJ_masked_1	36	49	0	0	300	300	0	0	567	30	2,9296875	1	100	0	0	1	blank2r.bmp	0	1	+	0	3	B3r.bmp	492	1	blank2r.bmp	786	1	CPLW	786	1	blank2r.bmp	866	2	bange	866	1	!	1212	1	blank2r.bmp	1346	0	0	0	0	0	0	0	0	0	0	0	0	0	0	0	0	0	0	0	0	0	0	0	0	0	0	0
112818	15:07:39	15:26:35	1134093	5.0.10.0	993	Rpleas_acq	Same	Rpleas	Amasked	CS_A	2pleas	distractor2	vistestobj_masked_US_unple_CS2	vistestOBJ_masked_1	36	50	0	0	300	300	0	0	184	44	2,9296875	1	100	0	0	1	blank2r.bmp	0	1	+	0	6	C2r.bmp	492	1	blank2r.bmp	786	1	DHJF	786	1	blank2r.bmp	866	4	gierig	866	1	!	1212	1	blank2r.bmp	1346	0	0	0	0	0	0	0	0	0	0	0	0	0	0	0	0	0	0	0	0	0	0	0	0	0	0	0
112818	15:07:39	15:26:37	1136332	5.0.10.0	993	Rpleas_acq	Same	Rpleas	Amasked	CS_A	2pleas	distractor2	vistestobj_masked_US_unple_CS2	vistestOBJ_masked_1	36	51	0	0	300	300	0	0	271	30	2,9296875	0	100	0	0	1	blank2r.bmp	0	1	+	0	5	C1r.bmp	492	1	blank2r.bmp	786	1	DHJF	786	1	blank2r.bmp	866	6	engstirnig	866	1	!	1212	1	blank2r.bmp	1346	0	0	0	0	0	0	0	0	0	0	0	0	0	0	0	0	0	0	0	0	0	0	0	0	0	0	0
112818	15:07:39	15:26:40	1139037	5.0.10.0	993	Rpleas_acq	Same	Rpleas	Amasked	CS_A	2pleas	distractor2	vistestobj_masked_US_pleas_CS2	vistestOBJ_masked_1	36	52	0	0	300	300	0	0	755	30	2,9296875	0	100	0	0	1	blank2r.bmp	0	1	+	0	8	C4r.bmp	492	1	blank2r.bmp	786	1	DHJF	786	1	blank2r.bmp	866	6	gütig	866	1	!	1212	1	blank2r.bmp	1346	0	0	0	0	0	0	0	0	0	0	0	0	0	0	0	0	0	0	0	0	0	0	0	0	0	0	0
112818	15:07:39	15:26:50	1149136	5.0.10.0	993	Rpleas_acq	Same	Rpleas	Amasked	CS_A	2pleas	distractor2	vistestobj_masked_US_pleas_CS1	vistestOBJ_masked_2	37	1	0	0	300	300	0	0	861	Ctrl+'B'	2,9296875	1	57,6923076923076934008	0	0	1	blank2r.bmp	0	1	+	0	7	C3r.bmp	492	1	blank2r.bmp	786	1	CPLW	786	1	blank2r.bmp	866	1	kreativ	866	1	!	1212	1	blank2r.bmp	1346	0	0	0	0	0	0	0	0	0	0	0	0	0	0	0	0	0	0	0	0	0	0	0	0	0	0	0
112818	15:07:39	15:28:04	1223056	5.0.10.0	993	Rpleas_acq	Same	Rpleas	Amasked	CS_A	2pleas	distractor2	vistestsub_masked_US_pleas_CS1	vistestSUB_masked	38	1	0	0	300	300	0	0	4044	36	2,9296875	0	100	1	0	1	blank2r.bmp	0	1	+	0	2	B2r.bmp	492	1	blank2r.bmp	786	1	CPLW	786	1	blank2r.bmp	866	4	träumen	866	1	!	1212	1	blank2r.bmp	1346	0	0	0	0	0	0	0	0	0	0	0	0	0	0	0	0	0	0	0	0	0	0	0	0	0	0	0
112818	15:07:39	15:28:06	1225229	5.0.10.0	993	Rpleas_acq	Same	Rpleas	Amasked	CS_A	2pleas	distractor2	vistestsub_masked_US_pleas_CS1	vistestSUB_masked	38	2	0	0	300	300	0	0	199	37	2,9296875	0	100	3	0	1	blank2r.bmp	0	1	+	0	1	B1r.bmp	492	1	blank2r.bmp	786	1	CPLW	786	1	blank2r.bmp	866	2	genießen	866	1	!	1212	1	blank2r.bmp	1346	0	0	0	0	0	0	0	0	0	0	0	0	0	0	0	0	0	0	0	0	0	0	0	0	0	0	0
112818	15:07:39	15:28:08	1227254	5.0.10.0	993	Rpleas_acq	Same	Rpleas	Amasked	CS_A	2pleas	distractor2	vistestsub_masked_US_unple_CS1	vistestSUB_masked	38	3	0	0	300	300	0	0	60	37	2,9296875	0	100	5	0	1	blank2r.bmp	0	1	+	0	8	C4r.bmp	492	1	blank2r.bmp	786	1	CPLW	786	1	blank2r.bmp	866	5	sterben	866	1	!	1212	1	blank2r.bmp	1346	0	0	0	0	0	0	0	0	0	0	0	0	0	0	0	0	0	0	0	0	0	0	0	0	0	0	0
112818	15:07:39	15:28:11	1229534	5.0.10.0	993	Rpleas_acq	Same	Rpleas	Amasked	CS_A	2pleas	distractor2	vistestsub_masked_US_pleas_CS2	vistestSUB_masked	38	4	0	0	300	300	0	0	305	37	2,9296875	0	100	7	0	1	blank2r.bmp	0	1	+	0	4	B4r.bmp	492	1	blank2r.bmp	786	1	DHJF	786	1	blank2r.bmp	866	5	anregung	866	1	!	1212	1	blank2r.bmp	1346	0	0	0	0	0	0	0	0	0	0	0	0	0	0	0	0	0	0	0	0	0	0	0	0	0	0	0
112818	15:07:39	15:28:15	1234185	5.0.10.0	993	Rpleas_acq	Same	Rpleas	Amasked	CS_A	2pleas	distractor2	motivation_sub_US_unple_CS2	vistestSUB_masked	38	5	0	0	300	300	0	0	2655	38	2,9296875	0	100	10	0	1	blank2r.bmp	0	1	+	0	2	B2r.bmp	492	1	blank2r.bmp	786	1	DHJF	786	1	blank2r.bmp	906	1	töten	906	1	!	1252	1	blank2r.bmp	1386	0	0	0	0	0	0	0	0	0	0	0	0	0	0	0	0	0	0	0	0	0	0	0	0	0	0	0
112818	15:07:39	15:28:17	1236197	5.0.10.0	993	Rpleas_acq	Same	Rpleas	Amasked	CS_A	2pleas	distractor2	vistestsub_masked_US_pleas_CS1	vistestSUB_masked	38	6	0	0	300	300	0	0	45	38	2,9296875	0	100	13	0	1	blank2r.bmp	0	1	+	0	3	B3r.bmp	492	1	blank2r.bmp	786	1	CPLW	786	1	blank2r.bmp	866	3	sonnig	866	1	!	1212	1	blank2r.bmp	1346	0	0	0	0	0	0	0	0	0	0	0	0	0	0	0	0	0	0	0	0	0	0	0	0	0	0	0
112818	15:07:39	15:28:19	1238170	5.0.10.0	993	Rpleas_acq	Same	Rpleas	Amasked	CS_A	2pleas	distractor2	vistestsub_masked_US_unple_CS2	vistestSUB_masked	38	7	0	0	300	300	0	0	8	38	2,9296875	0	100	16	0	1	blank2r.bmp	0	1	+	0	1	B1r.bmp	492	1	blank2r.bmp	786	1	DHJF	786	1	blank2r.bmp	866	3	krise	866	1	!	1212	1	blank2r.bmp	1346	0	0	0	0	0	0	0	0	0	0	0	0	0	0	0	0	0	0	0	0	0	0	0	0	0	0	0
112818	15:07:39	15:28:23	1242182	5.0.10.0	993	Rpleas_acq	Same	Rpleas	Amasked	CS_A	2pleas	distractor2	vistestsub_masked_US_unple_CS2	vistestSUB_masked	38	8	0	0	300	300	0	0	2039	38	2,9296875	0	100	19	0	1	blank2r.bmp	0	1	+	0	5	C1r.bmp	492	1	blank2r.bmp	786	1	DHJF	786	1	blank2r.bmp	866	1	töten	866	1	!	1212	1	blank2r.bmp	1346	0	0	0	0	0	0	0	0	0	0	0	0	0	0	0	0	0	0	0	0	0	0	0	0	0	0	0
112818	15:07:39	15:28:25	1244314	5.0.10.0	993	Rpleas_acq	Same	Rpleas	Amasked	CS_A	2pleas	distractor2	vistestsub_masked_US_unple_CS1	vistestSUB_masked	38	9	0	0	300	300	0	0	171	38	2,9296875	0	100	22	0	1	blank2r.bmp	0	1	+	0	6	C2r.bmp	492	1	blank2r.bmp	786	1	CPLW	786	1	blank2r.bmp	866	6	engstirnig	866	1	!	1212	1	blank2r.bmp	1346	0	0	0	0	0	0	0	0	0	0	0	0	0	0	0	0	0	0	0	0	0	0	0	0	0	0	0
112818	15:07:39	15:28:28	1246513	5.0.10.0	993	Rpleas_acq	Same	Rpleas	Amasked	CS_A	2pleas	distractor2	vistestsub_masked_US_unple_CS2	vistestSUB_masked	38	10	0	0	300	300	0	0	250	38	2,9296875	0	100	25	0	1	blank2r.bmp	0	1	+	0	7	C3r.bmp	492	1	blank2r.bmp	786	1	DHJF	786	1	blank2r.bmp	866	5	sterben	866	1	!	1212	1	blank2r.bmp	1346	0	0	0	0	0	0	0	0	0	0	0	0	0	0	0	0	0	0	0	0	0	0	0	0	0	0	0
112818	15:07:39	15:28:30	1248632	5.0.10.0	993	Rpleas_acq	Same	Rpleas	Amasked	CS_A	2pleas	distractor2	vistestsub_masked_US_unple_CS2	vistestSUB_masked	38	11	0	0	300	300	0	0	156	38	2,9296875	0	100	28	0	1	blank2r.bmp	0	1	+	0	7	C3r.bmp	492	1	blank2r.bmp	786	1	DHJF	786	1	blank2r.bmp	866	4	gierig	866	1	!	1212	1	blank2r.bmp	1346	0	0	0	0	0	0	0	0	0	0	0	0	0	0	0	0	0	0	0	0	0	0	0	0	0	0	0
112818	15:07:39	15:28:32	1250658	5.0.10.0	993	Rpleas_acq	Same	Rpleas	Amasked	CS_A	2pleas	distractor2	vistestsub_masked_US_unple_CS1	vistestSUB_masked	38	12	0	0	300	300	0	0	69	38	2,9296875	0	100	31	0	1	blank2r.bmp	0	1	+	0	2	B2r.bmp	492	1	blank2r.bmp	786	1	CPLW	786	1	blank2r.bmp	866	2	bange	866	1	!	1212	1	blank2r.bmp	1346	0	0	0	0	0	0	0	0	0	0	0	0	0	0	0	0	0	0	0	0	0	0	0	0	0	0	0
112818	15:07:39	15:28:34	1252737	5.0.10.0	993	Rpleas_acq	Same	Rpleas	Amasked	CS_A	2pleas	distractor2	vistestsub_masked_US_unple_CS2	vistestSUB_masked	38	13	0	0	300	300	0	0	114	38	2,9296875	0	100	34	0	1	blank2r.bmp	0	1	+	0	8	C4r.bmp	492	1	blank2r.bmp	786	1	DHJF	786	1	blank2r.bmp	866	3	krise	866	1	!	1212	1	blank2r.bmp	1346	0	0	0	0	0	0	0	0	0	0	0	0	0	0	0	0	0	0	0	0	0	0	0	0	0	0	0
112818	15:07:39	15:28:36	1254816	5.0.10.0	993	Rpleas_acq	Same	Rpleas	Amasked	CS_A	2pleas	distractor2	vistestsub_masked_US_pleas_CS1	vistestSUB_masked	38	14	0	0	300	300	0	0	122	38	2,9296875	0	100	37	0	1	blank2r.bmp	0	1	+	0	1	B1r.bmp	492	1	blank2r.bmp	786	1	CPLW	786	1	blank2r.bmp	866	4	träumen	866	1	!	1212	1	blank2r.bmp	1346	0	0	0	0	0	0	0	0	0	0	0	0	0	0	0	0	0	0	0	0	0	0	0	0	0	0	0
112818	15:07:39	15:28:38	1256829	5.0.10.0	993	Rpleas_acq	Same	Rpleas	Amasked	CS_A	2pleas	distractor2	vistestsub_masked_US_unple_CS1	vistestSUB_masked	38	15	0	0	300	300	0	0	63	38	2,9296875	0	100	40	0	1	blank2r.bmp	0	1	+	0	4	B4r.bmp	492	1	blank2r.bmp	786	1	CPLW	786	1	blank2r.bmp	866	2	bange	866	1	!	1212	1	blank2r.bmp	1346	0	0	0	0	0	0	0	0	0	0	0	0	0	0	0	0	0	0	0	0	0	0	0	0	0	0	0
112818	15:07:39	15:28:40	1258948	5.0.10.0	993	Rpleas_acq	Same	Rpleas	Amasked	CS_A	2pleas	distractor2	vistestsub_masked_US_pleas_CS2	vistestSUB_masked	38	16	0	0	300	300	0	0	147	38	2,9296875	0	100	43	0	1	blank2r.bmp	0	1	+	0	5	C1r.bmp	492	1	blank2r.bmp	786	1	DHJF	786	1	blank2r.bmp	866	6	gütig	866	1	!	1212	1	blank2r.bmp	1346	0	0	0	0	0	0	0	0	0	0	0	0	0	0	0	0	0	0	0	0	0	0	0	0	0	0	0
112818	15:07:39	15:28:42	1261081	5.0.10.0	993	Rpleas_acq	Same	Rpleas	Amasked	CS_A	2pleas	distractor2	vistestsub_masked_US_pleas_CS2	vistestSUB_masked	38	17	0	0	300	300	0	0	173	38	2,9296875	0	100	46	0	1	blank2r.bmp	0	1	+	0	6	C2r.bmp	492	1	blank2r.bmp	786	1	DHJF	786	1	blank2r.bmp	866	2	genießen	866	1	!	1212	1	blank2r.bmp	1346	0	0	0	0	0	0	0	0	0	0	0	0	0	0	0	0	0	0	0	0	0	0	0	0	0	0	0
112818	15:07:39	15:28:44	1263226	5.0.10.0	993	Rpleas_acq	Same	Rpleas	Amasked	CS_A	2pleas	distractor2	motivation_sub_US_unple_CS1	vistestSUB_masked	38	18	0	0	300	300	0	0	150	37	2,9296875	0	100	48	0	1	blank2r.bmp	0	1	+	0	3	B3r.bmp	492	1	blank2r.bmp	786	1	CPLW	786	1	blank2r.bmp	906	3	krise	906	1	!	1252	1	blank2r.bmp	1386	0	0	0	0	0	0	0	0	0	0	0	0	0	0	0	0	0	0	0	0	0	0	0	0	0	0	0
