date	time	script.currenttime	script.elapsedtime	build	script.currentexpt	subject	expressions.LRpleas_acq	expressions.SameOppo	expressions.condition_Lpleas	expressions.ABmasked	expressions.conditionCS_A	expressions.condition_1pleas	expressions.condition_distractor_AMP	expressions.AWACON_AMPEVA_first	trialcode	blockcode	blocknum	trialnum	windowcenter	inwindow	pretrialpause	posttrialpause	trialduration	trialtimeout	latency	response	expressions.correctedscore	correct	values.vis_performance	values.vis_rating_sum	values.vis_rating_mean	stimulusnumber1	stimulusitem1	stimulusonset1	stimulusnumber2	stimulusitem2	stimulusonset2	stimulusnumber3	stimulusitem3	stimulusonset3	stimulusnumber4	stimulusitem4	stimulusonset4	stimulusnumber5	stimulusitem5	stimulusonset5	stimulusnumber6	stimulusitem6	stimulusonset6	stimulusnumber7	stimulusitem7	stimulusonset7	stimulusnumber8	stimulusitem8	stimulusonset8	stimulusnumber9	stimulusitem9	stimulusonset9	stimulusnumber10	stimulusitem10	stimulusonset10	stimulusnumber11	stimulusitem11	stimulusonset11	stimulusnumber12	stimulusitem12	stimulusonset12	stimulusnumber13	stimulusitem13	stimulusonset13	stimulusnumber14	stimulusitem14	stimulusonset14	stimulusnumber15	stimulusitem15	stimulusonset15	stimulusnumber16	stimulusitem16	stimulusonset16	stimulusnumber17	stimulusitem17	stimulusonset17	stimulusnumber18	stimulusitem18	stimulusonset18
013119	13:35:51	13:37:40	107981	5.0.10.0	4_exp_AWA_CON_AMP_EVA	105	Rpleas_acq	Same	Rpleas	Bmasked	CS_B	1pleas	distractor1	CONbeforeEVA	acq_new_pleas_masked	acq1_masked	1	1	0	0	300	300	0	0	2898	50	0	1	0	0	0	1	blank2r.bmp	0	1	+	0	8	C4r.bmp	492	1	blank2r.bmp	786	3	B3r.bmp	786	1	blank2r.bmp	866	3	helfen	866	0	0	0	0	0	0	0	0	0	0	0	0	0	0	0	0	0	0	0	0	0	0	0	0	0	0	0	0	0	0	0	0	0
013119	13:35:51	13:37:43	110980	5.0.10.0	4_exp_AWA_CON_AMP_EVA	105	Rpleas_acq	Same	Rpleas	Bmasked	CS_B	2pleas	distractor1	CONbeforeEVA	acq_US_unple_masked	acq1_masked	1	2	0	0	300	300	0	0	1514	46	0	1	0	0	0	1	blank2r.bmp	0	1	+	0	4	B4r.bmp	492	1	blank2r.bmp	786	1	BMVZ	786	1	blank2r.bmp	866	2	lasch	866	0	0	0	0	0	0	0	0	0	0	0	0	0	0	0	0	0	0	0	0	0	0	0	0	0	0	0	0	0	0	0	0	0
013119	13:35:51	13:37:46	113912	5.0.10.0	4_exp_AWA_CON_AMP_EVA	105	Rpleas_acq	Same	Rpleas	Bmasked	CS_B	2pleas	distractor1	CONbeforeEVA	acq_US_pleas_masked	acq1_masked	1	3	0	0	300	300	0	0	1437	50	0	1	0	0	0	1	blank2r.bmp	0	1	+	0	6	C2r.bmp	492	1	blank2r.bmp	786	1	GKQX	786	1	blank2r.bmp	866	2	loyal	866	0	0	0	0	0	0	0	0	0	0	0	0	0	0	0	0	0	0	0	0	0	0	0	0	0	0	0	0	0	0	0	0	0
013119	13:35:51	13:37:48	116271	5.0.10.0	4_exp_AWA_CON_AMP_EVA	105	Rpleas_acq	Same	Rpleas	Bmasked	CS_B	2pleas	distractor1	CONbeforeEVA	acq_new_pleas_masked	acq1_masked	1	4	0	0	300	300	0	0	881	50	0	1	0	0	0	1	blank2r.bmp	0	1	+	0	2	B2r.bmp	492	1	blank2r.bmp	786	4	B4r.bmp	786	1	blank2r.bmp	866	5	treu	866	0	0	0	0	0	0	0	0	0	0	0	0	0	0	0	0	0	0	0	0	0	0	0	0	0	0	0	0	0	0	0	0	0
013119	13:35:51	13:37:50	118577	5.0.10.0	4_exp_AWA_CON_AMP_EVA	105	Rpleas_acq	Same	Rpleas	Bmasked	CS_B	2pleas	distractor1	CONbeforeEVA	acq_US_pleas_masked	acq1_masked	1	5	0	0	300	300	0	0	816	50	0	1	0	0	0	1	blank2r.bmp	0	1	+	0	5	C1r.bmp	492	1	blank2r.bmp	786	1	GKQX	786	1	blank2r.bmp	866	5	schlau	866	0	0	0	0	0	0	0	0	0	0	0	0	0	0	0	0	0	0	0	0	0	0	0	0	0	0	0	0	0	0	0	0	0
013119	13:35:51	13:37:54	122016	5.0.10.0	4_exp_AWA_CON_AMP_EVA	105	Rpleas_acq	Same	Rpleas	Bmasked	CS_B	2pleas	distractor1	CONbeforeEVA	acq_new_pleas_masked	acq1_masked	1	6	0	0	300	300	0	0	1743	46	0	0	0	0	0	1	blank2r.bmp	0	1	+	0	1	B1r.bmp	492	1	blank2r.bmp	786	5	C1r.bmp	786	1	blank2r.bmp	866	4	spielen	866	1	FEHLER	2638	0	0	0	0	0	0	0	0	0	0	0	0	0	0	0	0	0	0	0	0	0	0	0	0	0	0	0	0	0	0
013119	13:35:51	13:37:56	124188	5.0.10.0	4_exp_AWA_CON_AMP_EVA	105	Rpleas_acq	Same	Rpleas	Bmasked	CS_B	2pleas	distractor1	CONbeforeEVA	acq_US_unple_masked	acq1_masked	1	7	0	0	300	300	0	0	894	46	0	1	0	0	0	1	blank2r.bmp	0	1	+	0	7	C3r.bmp	492	1	blank2r.bmp	786	1	BMVZ	786	1	blank2r.bmp	866	4	faul	866	0	0	0	0	0	0	0	0	0	0	0	0	0	0	0	0	0	0	0	0	0	0	0	0	0	0	0	0	0	0	0	0	0
013119	13:35:51	13:37:59	127573	5.0.10.0	4_exp_AWA_CON_AMP_EVA	105	Rpleas_acq	Same	Rpleas	Bmasked	CS_B	2pleas	distractor1	CONbeforeEVA	acq_US_unple_masked	acq1_masked	1	8	0	0	300	300	0	0	1914	46	0	1	0	0	0	1	blank2r.bmp	0	1	+	0	3	B3r.bmp	492	1	blank2r.bmp	786	1	BMVZ	786	1	blank2r.bmp	866	5	schroff	866	0	0	0	0	0	0	0	0	0	0	0	0	0	0	0	0	0	0	0	0	0	0	0	0	0	0	0	0	0	0	0	0	0
013119	13:35:51	13:38:02	130212	5.0.10.0	4_exp_AWA_CON_AMP_EVA	105	Rpleas_acq	Same	Rpleas	Bmasked	CS_B	2pleas	distractor1	CONbeforeEVA	acq_new_unple_masked	acq1_masked	1	9	0	0	300	300	0	0	1147	46	0	1	0	0	0	1	blank2r.bmp	0	1	+	0	4	B4r.bmp	492	1	blank2r.bmp	786	8	C4r.bmp	786	1	blank2r.bmp	866	3	hindern	866	0	0	0	0	0	0	0	0	0	0	0	0	0	0	0	0	0	0	0	0	0	0	0	0	0	0	0	0	0	0	0	0	0
013119	13:35:51	13:38:04	132331	5.0.10.0	4_exp_AWA_CON_AMP_EVA	105	Rpleas_acq	Same	Rpleas	Bmasked	CS_B	2pleas	distractor1	CONbeforeEVA	acq_US_pleas_masked	acq1_masked	1	10	0	0	300	300	0	0	649	50	0	1	0	0	0	1	blank2r.bmp	0	1	+	0	6	C2r.bmp	492	1	blank2r.bmp	786	1	GKQX	786	1	blank2r.bmp	866	4	fair	866	0	0	0	0	0	0	0	0	0	0	0	0	0	0	0	0	0	0	0	0	0	0	0	0	0	0	0	0	0	0	0	0	0
013119	13:35:51	13:38:07	134770	5.0.10.0	4_exp_AWA_CON_AMP_EVA	105	Rpleas_acq	Same	Rpleas	Bmasked	CS_B	2pleas	distractor1	CONbeforeEVA	acq_new_unple_masked	acq1_masked	1	11	0	0	300	300	0	0	954	46	0	1	0	0	0	1	blank2r.bmp	0	1	+	0	7	C3r.bmp	492	1	blank2r.bmp	786	2	B2r.bmp	786	1	blank2r.bmp	866	4	strafen	866	0	0	0	0	0	0	0	0	0	0	0	0	0	0	0	0	0	0	0	0	0	0	0	0	0	0	0	0	0	0	0	0	0
013119	13:35:51	13:38:09	137289	5.0.10.0	4_exp_AWA_CON_AMP_EVA	105	Rpleas_acq	Same	Rpleas	Bmasked	CS_B	2pleas	distractor1	CONbeforeEVA	acq_new_unple_masked	acq1_masked	1	12	0	0	300	300	0	0	815	50	0	0	0	0	0	1	blank2r.bmp	0	1	+	0	8	C4r.bmp	492	1	blank2r.bmp	786	7	C3r.bmp	786	1	blank2r.bmp	866	2	fanatisch	866	1	FEHLER	1719	0	0	0	0	0	0	0	0	0	0	0	0	0	0	0	0	0	0	0	0	0	0	0	0	0	0	0	0	0	0
013119	13:35:51	13:38:12	140461	5.0.10.0	4_exp_AWA_CON_AMP_EVA	105	Rpleas_acq	Same	Rpleas	Bmasked	CS_B	2pleas	distractor1	CONbeforeEVA	acq_US_unple_masked	acq1_masked	1	13	0	0	300	300	0	0	1907	46	0	1	0	0	0	1	blank2r.bmp	0	1	+	0	1	B1r.bmp	492	1	blank2r.bmp	786	1	BMVZ	786	1	blank2r.bmp	866	6	tyrannisch	866	0	0	0	0	0	0	0	0	0	0	0	0	0	0	0	0	0	0	0	0	0	0	0	0	0	0	0	0	0	0	0	0	0
013119	13:35:51	13:38:16	143873	5.0.10.0	4_exp_AWA_CON_AMP_EVA	105	Rpleas_acq	Same	Rpleas	Bmasked	CS_B	2pleas	distractor1	CONbeforeEVA	acq_US_unple_masked	acq1_masked	1	14	0	0	300	300	0	0	1931	46	0	1	0	0	0	1	blank2r.bmp	0	1	+	0	3	B3r.bmp	492	1	blank2r.bmp	786	1	BMVZ	786	1	blank2r.bmp	866	3	rächen	866	0	0	0	0	0	0	0	0	0	0	0	0	0	0	0	0	0	0	0	0	0	0	0	0	0	0	0	0	0	0	0	0	0
013119	13:35:51	13:38:18	146446	5.0.10.0	4_exp_AWA_CON_AMP_EVA	105	Rpleas_acq	Same	Rpleas	Bmasked	CS_B	2pleas	distractor1	CONbeforeEVA	acq_US_pleas_masked	acq1_masked	1	15	0	0	300	300	0	0	1101	50	0	1	0	0	0	1	blank2r.bmp	0	1	+	0	5	C1r.bmp	492	1	blank2r.bmp	786	1	GKQX	786	1	blank2r.bmp	866	6	tolerant	866	0	0	0	0	0	0	0	0	0	0	0	0	0	0	0	0	0	0	0	0	0	0	0	0	0	0	0	0	0	0	0	0	0
013119	13:35:51	13:38:21	148738	5.0.10.0	4_exp_AWA_CON_AMP_EVA	105	Rpleas_acq	Same	Rpleas	Bmasked	CS_B	2pleas	distractor1	CONbeforeEVA	acq_US_unple_masked	acq1_masked	1	16	0	0	300	300	0	0	817	46	0	1	0	0	0	1	blank2r.bmp	0	1	+	0	2	B2r.bmp	492	1	blank2r.bmp	786	1	BMVZ	786	1	blank2r.bmp	866	1	eitel	866	0	0	0	0	0	0	0	0	0	0	0	0	0	0	0	0	0	0	0	0	0	0	0	0	0	0	0	0	0	0	0	0	0
013119	13:35:51	13:38:23	150817	5.0.10.0	4_exp_AWA_CON_AMP_EVA	105	Rpleas_acq	Same	Rpleas	Bmasked	CS_B	2pleas	distractor1	CONbeforeEVA	acq_US_pleas_masked	acq1_masked	1	17	0	0	300	300	0	0	608	50	0	1	0	0	0	1	blank2r.bmp	0	1	+	0	4	B4r.bmp	492	1	blank2r.bmp	786	1	GKQX	786	1	blank2r.bmp	866	1	ehrlich	866	0	0	0	0	0	0	0	0	0	0	0	0	0	0	0	0	0	0	0	0	0	0	0	0	0	0	0	0	0	0	0	0	0
013119	13:35:51	13:38:25	152963	5.0.10.0	4_exp_AWA_CON_AMP_EVA	105	Rpleas_acq	Same	Rpleas	Bmasked	CS_B	2pleas	distractor1	CONbeforeEVA	acq_new_pleas_masked	acq1_masked	1	18	0	0	300	300	0	0	661	50	0	1	0	0	0	1	blank2r.bmp	0	1	+	0	3	B3r.bmp	492	1	blank2r.bmp	786	1	B1r.bmp	786	1	blank2r.bmp	866	2	freundlich	866	0	0	0	0	0	0	0	0	0	0	0	0	0	0	0	0	0	0	0	0	0	0	0	0	0	0	0	0	0	0	0	0	0
013119	13:35:51	13:38:27	155095	5.0.10.0	4_exp_AWA_CON_AMP_EVA	105	Rpleas_acq	Same	Rpleas	Bmasked	CS_B	2pleas	distractor1	CONbeforeEVA	acq_new_unple_masked	acq1_masked	1	19	0	0	300	300	0	0	648	46	0	1	0	0	0	1	blank2r.bmp	0	1	+	0	7	C3r.bmp	492	1	blank2r.bmp	786	6	C2r.bmp	786	1	blank2r.bmp	866	5	tot	866	0	0	0	0	0	0	0	0	0	0	0	0	0	0	0	0	0	0	0	0	0	0	0	0	0	0	0	0	0	0	0	0	0
013119	13:35:51	13:38:29	157294	5.0.10.0	4_exp_AWA_CON_AMP_EVA	105	Rpleas_acq	Same	Rpleas	Bmasked	CS_B	2pleas	distractor1	CONbeforeEVA	acq_new_unple_masked	acq1_masked	1	20	0	0	300	300	0	0	713	46	0	1	0	0	0	1	blank2r.bmp	0	1	+	0	6	C2r.bmp	492	1	blank2r.bmp	786	1	B1r.bmp	786	1	blank2r.bmp	866	6	leiden	866	0	0	0	0	0	0	0	0	0	0	0	0	0	0	0	0	0	0	0	0	0	0	0	0	0	0	0	0	0	0	0	0	0
013119	13:35:51	13:38:31	159427	5.0.10.0	4_exp_AWA_CON_AMP_EVA	105	Rpleas_acq	Same	Rpleas	Bmasked	CS_B	2pleas	distractor1	CONbeforeEVA	acq_new_unple_masked	acq1_masked	1	21	0	0	300	300	0	0	647	46	0	1	0	0	0	1	blank2r.bmp	0	1	+	0	5	C1r.bmp	492	1	blank2r.bmp	786	8	C4r.bmp	786	1	blank2r.bmp	866	1	schlecht	866	0	0	0	0	0	0	0	0	0	0	0	0	0	0	0	0	0	0	0	0	0	0	0	0	0	0	0	0	0	0	0	0	0
013119	13:35:51	13:38:33	161479	5.0.10.0	4_exp_AWA_CON_AMP_EVA	105	Rpleas_acq	Same	Rpleas	Bmasked	CS_B	2pleas	distractor1	CONbeforeEVA	acq_new_pleas_masked	acq1_masked	1	22	0	0	300	300	0	0	564	50	0	1	0	0	0	1	blank2r.bmp	0	1	+	0	2	B2r.bmp	492	1	blank2r.bmp	786	5	C1r.bmp	786	1	blank2r.bmp	866	1	schön	866	0	0	0	0	0	0	0	0	0	0	0	0	0	0	0	0	0	0	0	0	0	0	0	0	0	0	0	0	0	0	0	0	0
013119	13:35:51	13:38:36	163852	5.0.10.0	4_exp_AWA_CON_AMP_EVA	105	Rpleas_acq	Same	Rpleas	Bmasked	CS_B	2pleas	distractor1	CONbeforeEVA	acq_US_pleas_masked	acq1_masked	1	23	0	0	300	300	0	0	888	50	0	1	0	0	0	1	blank2r.bmp	0	1	+	0	8	C4r.bmp	492	1	blank2r.bmp	786	1	GKQX	786	1	blank2r.bmp	866	3	retten	866	0	0	0	0	0	0	0	0	0	0	0	0	0	0	0	0	0	0	0	0	0	0	0	0	0	0	0	0	0	0	0	0	0
013119	13:35:51	13:38:38	165904	5.0.10.0	4_exp_AWA_CON_AMP_EVA	105	Rpleas_acq	Same	Rpleas	Bmasked	CS_B	2pleas	distractor1	CONbeforeEVA	acq_new_pleas_masked	acq1_masked	1	24	0	0	300	300	0	0	570	50	0	1	0	0	0	1	blank2r.bmp	0	1	+	0	1	B1r.bmp	492	1	blank2r.bmp	786	7	C3r.bmp	786	1	blank2r.bmp	866	6	lachen	866	0	0	0	0	0	0	0	0	0	0	0	0	0	0	0	0	0	0	0	0	0	0	0	0	0	0	0	0	0	0	0	0	0
013119	13:35:51	13:38:40	168343	5.0.10.0	4_exp_AWA_CON_AMP_EVA	105	Rpleas_acq	Same	Rpleas	Bmasked	CS_B	2pleas	distractor1	CONbeforeEVA	acq_new_unple_masked	acq1_masked	1	25	0	0	300	300	0	0	956	46	0	1	0	0	0	1	blank2r.bmp	0	1	+	0	5	C1r.bmp	492	1	blank2r.bmp	786	2	B2r.bmp	786	1	blank2r.bmp	866	3	hindern	866	0	0	0	0	0	0	0	0	0	0	0	0	0	0	0	0	0	0	0	0	0	0	0	0	0	0	0	0	0	0	0	0	0
013119	13:35:51	13:38:42	170569	5.0.10.0	4_exp_AWA_CON_AMP_EVA	105	Rpleas_acq	Same	Rpleas	Bmasked	CS_B	2pleas	distractor1	CONbeforeEVA	acq_new_unple_masked	acq1_masked	1	26	0	0	300	300	0	0	528	50	0	0	0	0	0	1	blank2r.bmp	0	1	+	0	4	B4r.bmp	492	1	blank2r.bmp	786	6	C2r.bmp	786	1	blank2r.bmp	866	6	leiden	866	1	FEHLER	1426	0	0	0	0	0	0	0	0	0	0	0	0	0	0	0	0	0	0	0	0	0	0	0	0	0	0	0	0	0	0
013119	13:35:51	13:38:45	172661	5.0.10.0	4_exp_AWA_CON_AMP_EVA	105	Rpleas_acq	Same	Rpleas	Bmasked	CS_B	2pleas	distractor1	CONbeforeEVA	acq_US_pleas_masked	acq1_masked	1	27	0	0	300	300	0	0	818	50	0	1	0	0	0	1	blank2r.bmp	0	1	+	0	2	B2r.bmp	492	1	blank2r.bmp	786	1	GKQX	786	1	blank2r.bmp	866	2	loyal	866	0	0	0	0	0	0	0	0	0	0	0	0	0	0	0	0	0	0	0	0	0	0	0	0	0	0	0	0	0	0	0	0	0
013119	13:35:51	13:38:47	174794	5.0.10.0	4_exp_AWA_CON_AMP_EVA	105	Rpleas_acq	Same	Rpleas	Bmasked	CS_B	2pleas	distractor1	CONbeforeEVA	acq_US_unple_masked	acq1_masked	1	28	0	0	300	300	0	0	646	46	0	1	0	0	0	1	blank2r.bmp	0	1	+	0	8	C4r.bmp	492	1	blank2r.bmp	786	1	BMVZ	786	1	blank2r.bmp	866	4	faul	866	0	0	0	0	0	0	0	0	0	0	0	0	0	0	0	0	0	0	0	0	0	0	0	0	0	0	0	0	0	0	0	0	0
013119	13:35:51	13:38:49	177126	5.0.10.0	4_exp_AWA_CON_AMP_EVA	105	Rpleas_acq	Same	Rpleas	Bmasked	CS_B	2pleas	distractor1	CONbeforeEVA	acq_US_pleas_masked	acq1_masked	1	29	0	0	300	300	0	0	839	50	0	1	0	0	0	1	blank2r.bmp	0	1	+	0	7	C3r.bmp	492	1	blank2r.bmp	786	1	GKQX	786	1	blank2r.bmp	866	6	tolerant	866	0	0	0	0	0	0	0	0	0	0	0	0	0	0	0	0	0	0	0	0	0	0	0	0	0	0	0	0	0	0	0	0	0
013119	13:35:51	13:38:52	180045	5.0.10.0	4_exp_AWA_CON_AMP_EVA	105	Rpleas_acq	Same	Rpleas	Bmasked	CS_B	2pleas	distractor1	CONbeforeEVA	acq_US_pleas_masked	acq1_masked	1	30	0	0	300	300	0	0	1426	50	0	1	0	0	0	1	blank2r.bmp	0	1	+	0	3	B3r.bmp	492	1	blank2r.bmp	786	1	GKQX	786	1	blank2r.bmp	866	5	schlau	866	0	0	0	0	0	0	0	0	0	0	0	0	0	0	0	0	0	0	0	0	0	0	0	0	0	0	0	0	0	0	0	0	0
013119	13:35:51	13:38:54	182244	5.0.10.0	4_exp_AWA_CON_AMP_EVA	105	Rpleas_acq	Same	Rpleas	Bmasked	CS_B	2pleas	distractor1	CONbeforeEVA	acq_US_unple_masked	acq1_masked	1	31	0	0	300	300	0	0	722	46	0	1	0	0	0	1	blank2r.bmp	0	1	+	0	6	C2r.bmp	492	1	blank2r.bmp	786	1	BMVZ	786	1	blank2r.bmp	866	3	rächen	866	0	0	0	0	0	0	0	0	0	0	0	0	0	0	0	0	0	0	0	0	0	0	0	0	0	0	0	0	0	0	0	0	0
013119	13:35:51	13:38:56	184310	5.0.10.0	4_exp_AWA_CON_AMP_EVA	105	Rpleas_acq	Same	Rpleas	Bmasked	CS_B	2pleas	distractor1	CONbeforeEVA	acq_new_unple_masked	acq1_masked	1	32	0	0	300	300	0	0	578	46	0	1	0	0	0	1	blank2r.bmp	0	1	+	0	1	B1r.bmp	492	1	blank2r.bmp	786	3	B3r.bmp	786	1	blank2r.bmp	866	5	tot	866	0	0	0	0	0	0	0	0	0	0	0	0	0	0	0	0	0	0	0	0	0	0	0	0	0	0	0	0	0	0	0	0	0
013119	13:35:51	13:38:59	186709	5.0.10.0	4_exp_AWA_CON_AMP_EVA	105	Rpleas_acq	Same	Rpleas	Bmasked	CS_B	2pleas	distractor1	CONbeforeEVA	acq_US_unple_masked	acq1_masked	1	33	0	0	300	300	0	0	926	46	0	1	0	0	0	1	blank2r.bmp	0	1	+	0	8	C4r.bmp	492	1	blank2r.bmp	786	1	BMVZ	786	1	blank2r.bmp	866	6	tyrannisch	866	0	0	0	0	0	0	0	0	0	0	0	0	0	0	0	0	0	0	0	0	0	0	0	0	0	0	0	0	0	0	0	0	0
013119	13:35:51	13:39:01	188708	5.0.10.0	4_exp_AWA_CON_AMP_EVA	105	Rpleas_acq	Same	Rpleas	Bmasked	CS_B	2pleas	distractor1	CONbeforeEVA	acq_new_pleas_masked	acq1_masked	1	34	0	0	300	300	0	0	524	50	0	1	0	0	0	1	blank2r.bmp	0	1	+	0	2	B2r.bmp	492	1	blank2r.bmp	786	4	B4r.bmp	786	1	blank2r.bmp	866	1	schön	866	0	0	0	0	0	0	0	0	0	0	0	0	0	0	0	0	0	0	0	0	0	0	0	0	0	0	0	0	0	0	0	0	0
013119	13:35:51	13:39:03	191614	5.0.10.0	4_exp_AWA_CON_AMP_EVA	105	Rpleas_acq	Same	Rpleas	Bmasked	CS_B	2pleas	distractor1	CONbeforeEVA	acq_new_pleas_masked	acq1_masked	1	35	0	0	300	300	0	0	1219	46	0	0	0	0	0	1	blank2r.bmp	0	1	+	0	1	B1r.bmp	492	1	blank2r.bmp	786	3	B3r.bmp	786	1	blank2r.bmp	866	4	spielen	866	1	FEHLER	2119	0	0	0	0	0	0	0	0	0	0	0	0	0	0	0	0	0	0	0	0	0	0	0	0	0	0	0	0	0	0
013119	13:35:51	13:39:06	193666	5.0.10.0	4_exp_AWA_CON_AMP_EVA	105	Rpleas_acq	Same	Rpleas	Bmasked	CS_B	2pleas	distractor1	CONbeforeEVA	acq_new_pleas_masked	acq1_masked	1	36	0	0	300	300	0	0	783	50	0	1	0	0	0	1	blank2r.bmp	0	1	+	0	6	C2r.bmp	492	1	blank2r.bmp	786	7	C3r.bmp	786	1	blank2r.bmp	866	5	treu	866	0	0	0	0	0	0	0	0	0	0	0	0	0	0	0	0	0	0	0	0	0	0	0	0	0	0	0	0	0	0	0	0	0
013119	13:35:51	13:39:44	232197	5.0.10.0	4_exp_AWA_CON_AMP_EVA	105	Rpleas_acq	Same	Rpleas	Bmasked	CS_B	2pleas	distractor1	CONbeforeEVA	acq_new_pleas_masked	acq2_masked	2	1	480	0	300	300	0	0	1173	50	0	1	0	0	0	1	blank2r.bmp	0	1	+	0	3	B3r.bmp	492	1	blank2r.bmp	786	8	C4r.bmp	786	1	blank2r.bmp	866	6	lachen	866	1	!	1319	1	!	-1	0	0	0	0	0	0	0	0	0	0	0	0	0	0	0	0	0	0	0	0	0	0	0	0	0	0	0
013119	13:35:51	13:39:46	234623	5.0.10.0	4_exp_AWA_CON_AMP_EVA	105	Rpleas_acq	Same	Rpleas	Bmasked	CS_B	2pleas	distractor1	CONbeforeEVA	acq_US_pleas_masked	acq2_masked	2	2	480	0	300	300	0	0	408	46	0	0	0	0	0	1	blank2r.bmp	0	1	+	0	5	C1r.bmp	492	1	blank2r.bmp	786	1	GKQX	786	1	blank2r.bmp	866	4	fair	866	1	FEHLER	1612	1	!	-1	1	!	-1	0	0	0	0	0	0	0	0	0	0	0	0	0	0	0	0	0	0	0	0	0	0	0	0
013119	13:35:51	13:39:49	236648	5.0.10.0	4_exp_AWA_CON_AMP_EVA	105	Rpleas_acq	Same	Rpleas	Bmasked	CS_B	2pleas	distractor1	CONbeforeEVA	acq_US_pleas_masked	acq2_masked	2	3	480	1	300	300	0	0	426	50	0	1	0	0	0	1	blank2r.bmp	0	1	+	0	7	C3r.bmp	492	1	blank2r.bmp	786	1	GKQX	786	1	blank2r.bmp	866	1	ehrlich	866	1	!	1319	1	!	1332	0	0	0	0	0	0	0	0	0	0	0	0	0	0	0	0	0	0	0	0	0	0	0	0	0	0	0
013119	13:35:51	13:39:55	242646	5.0.10.0	4_exp_AWA_CON_AMP_EVA	105	Rpleas_acq	Same	Rpleas	Bmasked	CS_B	2pleas	distractor1	CONbeforeEVA	acq_new_unple_masked	acq2_masked	2	4	480	0	300	300	0	0	4007	50	0	0	0	0	0	1	blank2r.bmp	0	1	+	0	4	B4r.bmp	492	1	blank2r.bmp	786	2	B2r.bmp	786	1	blank2r.bmp	866	4	strafen	866	1	FEHLER	5211	1	!	1319	1	!	-1	0	0	0	0	0	0	0	0	0	0	0	0	0	0	0	0	0	0	0	0	0	0	0	0
013119	13:35:51	13:39:57	245058	5.0.10.0	4_exp_AWA_CON_AMP_EVA	105	Rpleas_acq	Same	Rpleas	Bmasked	CS_B	2pleas	distractor1	CONbeforeEVA	acq_new_unple_masked	acq2_masked	2	5	480	0	300	300	0	0	635	50	0	0	0	0	0	1	blank2r.bmp	0	1	+	0	7	C3r.bmp	492	1	blank2r.bmp	786	5	C1r.bmp	786	1	blank2r.bmp	866	2	fanatisch	866	1	FEHLER	1839	1	!	1319	1	!	-1	0	0	0	0	0	0	0	0	0	0	0	0	0	0	0	0	0	0	0	0	0	0	0	0
013119	13:35:51	13:39:59	247191	5.0.10.0	4_exp_AWA_CON_AMP_EVA	105	Rpleas_acq	Same	Rpleas	Bmasked	CS_B	2pleas	distractor1	CONbeforeEVA	acq_new_pleas_masked	acq2_masked	2	6	480	0	300	300	0	0	559	50	0	1	0	0	0	1	blank2r.bmp	0	1	+	0	5	C1r.bmp	492	1	blank2r.bmp	786	1	B1r.bmp	786	1	blank2r.bmp	866	2	freundlich	866	1	!	1319	1	!	-1	0	0	0	0	0	0	0	0	0	0	0	0	0	0	0	0	0	0	0	0	0	0	0	0	0	0	0
013119	13:35:51	13:40:01	249563	5.0.10.0	4_exp_AWA_CON_AMP_EVA	105	Rpleas_acq	Same	Rpleas	Bmasked	CS_B	2pleas	distractor1	CONbeforeEVA	acq_US_unple_masked	acq2_masked	2	7	480	0	300	300	0	0	585	46	0	1	0	0	0	1	blank2r.bmp	0	1	+	0	2	B2r.bmp	492	1	blank2r.bmp	786	1	BMVZ	786	1	blank2r.bmp	866	2	lasch	866	1	!	1319	1	!	-1	0	0	0	0	0	0	0	0	0	0	0	0	0	0	0	0	0	0	0	0	0	0	0	0	0	0	0
013119	13:35:51	13:40:04	251895	5.0.10.0	4_exp_AWA_CON_AMP_EVA	105	Rpleas_acq	Same	Rpleas	Bmasked	CS_B	2pleas	distractor1	CONbeforeEVA	acq_new_pleas_masked	acq2_masked	2	8	480	1	300	300	0	0	529	50	0	1	0	0	0	1	blank2r.bmp	0	1	+	0	1	B1r.bmp	492	1	blank2r.bmp	786	4	B4r.bmp	786	1	blank2r.bmp	866	3	helfen	866	1	!	1319	1	!	1426	0	0	0	0	0	0	0	0	0	0	0	0	0	0	0	0	0	0	0	0	0	0	0	0	0	0	0
013119	13:35:51	13:40:06	254508	5.0.10.0	4_exp_AWA_CON_AMP_EVA	105	Rpleas_acq	Same	Rpleas	Bmasked	CS_B	2pleas	distractor1	CONbeforeEVA	acq_US_unple_masked	acq2_masked	2	9	480	0	300	300	0	0	603	50	0	0	0	0	0	1	blank2r.bmp	0	1	+	0	4	B4r.bmp	492	1	blank2r.bmp	786	1	BMVZ	786	1	blank2r.bmp	866	1	eitel	866	1	FEHLER	1812	1	!	1319	1	!	-1	0	0	0	0	0	0	0	0	0	0	0	0	0	0	0	0	0	0	0	0	0	0	0	0
013119	13:35:51	13:40:09	257013	5.0.10.0	4_exp_AWA_CON_AMP_EVA	105	Rpleas_acq	Same	Rpleas	Bmasked	CS_B	2pleas	distractor1	CONbeforeEVA	acq_US_pleas_masked	acq2_masked	2	10	480	0	300	300	0	0	947	50	0	1	0	0	0	1	blank2r.bmp	0	1	+	0	3	B3r.bmp	492	1	blank2r.bmp	786	1	GKQX	786	1	blank2r.bmp	866	3	retten	866	1	!	1319	1	!	-1	0	0	0	0	0	0	0	0	0	0	0	0	0	0	0	0	0	0	0	0	0	0	0	0	0	0	0
013119	13:35:51	13:40:11	259412	5.0.10.0	4_exp_AWA_CON_AMP_EVA	105	Rpleas_acq	Same	Rpleas	Bmasked	CS_B	2pleas	distractor1	CONbeforeEVA	acq_US_unple_masked	acq2_masked	2	11	480	0	300	300	0	0	621	46	0	1	0	0	0	1	blank2r.bmp	0	1	+	0	8	C4r.bmp	492	1	blank2r.bmp	786	1	BMVZ	786	1	blank2r.bmp	866	5	schroff	866	1	!	1319	1	!	-1	0	0	0	0	0	0	0	0	0	0	0	0	0	0	0	0	0	0	0	0	0	0	0	0	0	0	0
013119	13:35:51	13:40:14	261798	5.0.10.0	4_exp_AWA_CON_AMP_EVA	105	Rpleas_acq	Same	Rpleas	Bmasked	CS_B	2pleas	distractor1	CONbeforeEVA	acq_new_unple_masked	acq2_masked	2	12	480	0	300	300	0	0	611	46	0	1	0	0	0	1	blank2r.bmp	0	1	+	0	6	C2r.bmp	492	1	blank2r.bmp	786	6	C2r.bmp	786	1	blank2r.bmp	866	1	schlecht	866	1	!	1319	1	!	-1	0	0	0	0	0	0	0	0	0	0	0	0	0	0	0	0	0	0	0	0	0	0	0	0	0	0	0
013119	13:35:51	13:40:16	264144	5.0.10.0	4_exp_AWA_CON_AMP_EVA	105	Rpleas_acq	Same	Rpleas	Bmasked	CS_B	2pleas	distractor1	CONbeforeEVA	acq_US_unple_masked	acq2_masked	2	13	480	0	300	300	0	0	559	46	0	1	0	0	0	1	blank2r.bmp	0	1	+	0	5	C1r.bmp	492	1	blank2r.bmp	786	1	BMVZ	786	1	blank2r.bmp	866	5	schroff	866	1	!	1319	1	!	-1	0	0	0	0	0	0	0	0	0	0	0	0	0	0	0	0	0	0	0	0	0	0	0	0	0	0	0
013119	13:35:51	13:40:19	266636	5.0.10.0	4_exp_AWA_CON_AMP_EVA	105	Rpleas_acq	Same	Rpleas	Bmasked	CS_B	2pleas	distractor1	CONbeforeEVA	acq_new_unple_masked	acq2_masked	2	14	480	0	300	300	0	0	697	46	0	1	0	0	0	1	blank2r.bmp	0	1	+	0	8	C4r.bmp	492	1	blank2r.bmp	786	7	C3r.bmp	786	1	blank2r.bmp	866	6	leiden	866	1	!	1319	1	!	-1	0	0	0	0	0	0	0	0	0	0	0	0	0	0	0	0	0	0	0	0	0	0	0	0	0	0	0
013119	13:35:51	13:40:21	268822	5.0.10.0	4_exp_AWA_CON_AMP_EVA	105	Rpleas_acq	Same	Rpleas	Bmasked	CS_B	2pleas	distractor1	CONbeforeEVA	acq_new_pleas_masked	acq2_masked	2	15	480	0	300	300	0	0	406	50	0	1	0	0	0	1	blank2r.bmp	0	1	+	0	7	C3r.bmp	492	1	blank2r.bmp	786	5	C1r.bmp	786	1	blank2r.bmp	866	1	schön	866	1	!	-1	1	!	-1	0	0	0	0	0	0	0	0	0	0	0	0	0	0	0	0	0	0	0	0	0	0	0	0	0	0	0
013119	13:35:51	13:40:23	271181	5.0.10.0	4_exp_AWA_CON_AMP_EVA	105	Rpleas_acq	Same	Rpleas	Bmasked	CS_B	2pleas	distractor1	CONbeforeEVA	acq_new_pleas_masked	acq2_masked	2	16	480	0	300	300	0	0	581	50	0	1	0	0	0	1	blank2r.bmp	0	1	+	0	3	B3r.bmp	492	1	blank2r.bmp	786	8	C4r.bmp	786	1	blank2r.bmp	866	2	freundlich	866	1	!	1319	1	!	-1	0	0	0	0	0	0	0	0	0	0	0	0	0	0	0	0	0	0	0	0	0	0	0	0	0	0	0
013119	13:35:51	13:40:25	273593	5.0.10.0	4_exp_AWA_CON_AMP_EVA	105	Rpleas_acq	Same	Rpleas	Bmasked	CS_B	2pleas	distractor1	CONbeforeEVA	acq_US_pleas_masked	acq2_masked	2	17	480	0	300	300	0	0	612	50	0	1	0	0	0	1	blank2r.bmp	0	1	+	0	4	B4r.bmp	492	1	blank2r.bmp	786	1	GKQX	786	1	blank2r.bmp	866	6	tolerant	866	1	!	1319	1	!	-1	0	0	0	0	0	0	0	0	0	0	0	0	0	0	0	0	0	0	0	0	0	0	0	0	0	0	0
013119	13:35:51	13:40:28	275899	5.0.10.0	4_exp_AWA_CON_AMP_EVA	105	Rpleas_acq	Same	Rpleas	Bmasked	CS_B	2pleas	distractor1	CONbeforeEVA	acq_US_pleas_masked	acq2_masked	2	18	480	1	300	300	0	0	493	50	0	1	0	0	0	1	blank2r.bmp	0	1	+	0	2	B2r.bmp	492	1	blank2r.bmp	786	1	GKQX	786	1	blank2r.bmp	866	2	loyal	866	1	!	1319	1	!	1399	0	0	0	0	0	0	0	0	0	0	0	0	0	0	0	0	0	0	0	0	0	0	0	0	0	0	0
013119	13:35:51	13:40:30	278298	5.0.10.0	4_exp_AWA_CON_AMP_EVA	105	Rpleas_acq	Same	Rpleas	Bmasked	CS_B	2pleas	distractor1	CONbeforeEVA	acq_new_unple_masked	acq2_masked	2	19	480	0	300	300	0	0	625	46	0	1	0	0	0	1	blank2r.bmp	0	1	+	0	1	B1r.bmp	492	1	blank2r.bmp	786	2	B2r.bmp	786	1	blank2r.bmp	866	3	hindern	866	1	!	1319	1	!	-1	0	0	0	0	0	0	0	0	0	0	0	0	0	0	0	0	0	0	0	0	0	0	0	0	0	0	0
013119	13:35:51	13:40:32	280430	5.0.10.0	4_exp_AWA_CON_AMP_EVA	105	Rpleas_acq	Same	Rpleas	Bmasked	CS_B	2pleas	distractor1	CONbeforeEVA	acq_US_pleas_masked	acq2_masked	2	20	480	0	300	300	0	0	368	50	0	1	0	0	0	1	blank2r.bmp	0	1	+	0	6	C2r.bmp	492	1	blank2r.bmp	786	1	GKQX	786	1	blank2r.bmp	866	3	retten	866	1	!	-1	1	!	-1	0	0	0	0	0	0	0	0	0	0	0	0	0	0	0	0	0	0	0	0	0	0	0	0	0	0	0
013119	13:35:51	13:40:37	285015	5.0.10.0	4_exp_AWA_CON_AMP_EVA	105	Rpleas_acq	Same	Rpleas	Bmasked	CS_B	2pleas	distractor1	CONbeforeEVA	acq_new_unple_masked	acq2_masked	2	21	480	0	300	300	0	0	2559	50	0	0	0	0	0	1	blank2r.bmp	0	1	+	0	3	B3r.bmp	492	1	blank2r.bmp	786	1	B1r.bmp	786	1	blank2r.bmp	866	2	fanatisch	866	1	FEHLER	3771	1	!	1319	1	!	-1	0	0	0	0	0	0	0	0	0	0	0	0	0	0	0	0	0	0	0	0	0	0	0	0
013119	13:35:51	13:40:39	287414	5.0.10.0	4_exp_AWA_CON_AMP_EVA	105	Rpleas_acq	Same	Rpleas	Bmasked	CS_B	2pleas	distractor1	CONbeforeEVA	acq_US_unple_masked	acq2_masked	2	22	480	0	300	300	0	0	618	50	0	0	0	0	0	1	blank2r.bmp	0	1	+	0	7	C3r.bmp	492	1	blank2r.bmp	786	1	BMVZ	786	1	blank2r.bmp	866	6	tyrannisch	866	1	FEHLER	1825	1	!	1319	1	!	-1	0	0	0	0	0	0	0	0	0	0	0	0	0	0	0	0	0	0	0	0	0	0	0	0
013119	13:35:51	13:40:41	289560	5.0.10.0	4_exp_AWA_CON_AMP_EVA	105	Rpleas_acq	Same	Rpleas	Bmasked	CS_B	2pleas	distractor1	CONbeforeEVA	acq_US_unple_masked	acq2_masked	2	23	480	0	300	300	0	0	588	46	0	1	0	0	0	1	blank2r.bmp	0	1	+	0	4	B4r.bmp	492	1	blank2r.bmp	786	1	BMVZ	786	1	blank2r.bmp	866	4	faul	866	1	!	1319	1	!	-1	0	0	0	0	0	0	0	0	0	0	0	0	0	0	0	0	0	0	0	0	0	0	0	0	0	0	0
013119	13:35:51	13:40:44	291866	5.0.10.0	4_exp_AWA_CON_AMP_EVA	105	Rpleas_acq	Same	Rpleas	Bmasked	CS_B	2pleas	distractor1	CONbeforeEVA	acq_new_pleas_masked	acq2_masked	2	24	480	1	300	300	0	0	504	50	0	1	0	0	0	1	blank2r.bmp	0	1	+	0	5	C1r.bmp	492	1	blank2r.bmp	786	4	B4r.bmp	786	1	blank2r.bmp	866	6	lachen	866	1	!	1319	1	!	1399	0	0	0	0	0	0	0	0	0	0	0	0	0	0	0	0	0	0	0	0	0	0	0	0	0	0	0
013119	13:35:51	13:40:46	294305	5.0.10.0	4_exp_AWA_CON_AMP_EVA	105	Rpleas_acq	Same	Rpleas	Bmasked	CS_B	2pleas	distractor1	CONbeforeEVA	acq_new_unple_masked	acq2_masked	2	25	480	1	300	300	0	0	428	50	0	0	0	0	0	1	blank2r.bmp	0	1	+	0	8	C4r.bmp	492	1	blank2r.bmp	786	6	C2r.bmp	786	1	blank2r.bmp	866	1	schlecht	866	1	FEHLER	1652	1	!	1319	1	!	1332	0	0	0	0	0	0	0	0	0	0	0	0	0	0	0	0	0	0	0	0	0	0	0	0
013119	13:35:51	13:40:48	296410	5.0.10.0	4_exp_AWA_CON_AMP_EVA	105	Rpleas_acq	Same	Rpleas	Bmasked	CS_B	2pleas	distractor1	CONbeforeEVA	acq_new_unple_masked	acq2_masked	2	26	480	1	300	300	0	0	522	46	0	1	0	0	0	1	blank2r.bmp	0	1	+	0	6	C2r.bmp	492	1	blank2r.bmp	786	3	B3r.bmp	786	1	blank2r.bmp	866	4	strafen	866	1	!	1319	1	!	1426	0	0	0	0	0	0	0	0	0	0	0	0	0	0	0	0	0	0	0	0	0	0	0	0	0	0	0
013119	13:35:51	13:40:50	298636	5.0.10.0	4_exp_AWA_CON_AMP_EVA	105	Rpleas_acq	Same	Rpleas	Bmasked	CS_B	2pleas	distractor1	CONbeforeEVA	acq_US_pleas_masked	acq2_masked	2	27	480	1	300	300	0	0	428	50	0	1	0	0	0	1	blank2r.bmp	0	1	+	0	1	B1r.bmp	492	1	blank2r.bmp	786	1	GKQX	786	1	blank2r.bmp	866	5	schlau	866	1	!	1319	1	!	1332	0	0	0	0	0	0	0	0	0	0	0	0	0	0	0	0	0	0	0	0	0	0	0	0	0	0	0
013119	13:35:51	13:40:53	300969	5.0.10.0	4_exp_AWA_CON_AMP_EVA	105	Rpleas_acq	Same	Rpleas	Bmasked	CS_B	2pleas	distractor1	CONbeforeEVA	acq_US_pleas_masked	acq2_masked	2	28	480	1	300	300	0	0	538	50	0	1	0	0	0	1	blank2r.bmp	0	1	+	0	2	B2r.bmp	492	1	blank2r.bmp	786	1	GKQX	786	1	blank2r.bmp	866	1	ehrlich	866	1	!	1319	1	!	1439	0	0	0	0	0	0	0	0	0	0	0	0	0	0	0	0	0	0	0	0	0	0	0	0	0	0	0
013119	13:35:51	13:40:55	303288	5.0.10.0	4_exp_AWA_CON_AMP_EVA	105	Rpleas_acq	Same	Rpleas	Bmasked	CS_B	2pleas	distractor1	CONbeforeEVA	acq_new_pleas_masked	acq2_masked	2	29	480	1	300	300	0	0	527	50	0	1	0	0	0	1	blank2r.bmp	0	1	+	0	3	B3r.bmp	492	1	blank2r.bmp	786	7	C3r.bmp	786	1	blank2r.bmp	866	5	treu	866	1	!	1319	1	!	1426	0	0	0	0	0	0	0	0	0	0	0	0	0	0	0	0	0	0	0	0	0	0	0	0	0	0	0
013119	13:35:51	13:40:58	305687	5.0.10.0	4_exp_AWA_CON_AMP_EVA	105	Rpleas_acq	Same	Rpleas	Bmasked	CS_B	2pleas	distractor1	CONbeforeEVA	acq_new_pleas_masked	acq2_masked	2	30	480	0	300	300	0	0	401	46	0	0	0	0	0	1	blank2r.bmp	0	1	+	0	8	C4r.bmp	492	1	blank2r.bmp	786	4	B4r.bmp	786	1	blank2r.bmp	866	4	spielen	866	1	FEHLER	1612	1	!	-1	1	!	-1	0	0	0	0	0	0	0	0	0	0	0	0	0	0	0	0	0	0	0	0	0	0	0	0
013119	13:35:51	13:41:00	307859	5.0.10.0	4_exp_AWA_CON_AMP_EVA	105	Rpleas_acq	Same	Rpleas	Bmasked	CS_B	2pleas	distractor1	CONbeforeEVA	acq_US_unple_masked	acq2_masked	2	31	480	0	300	300	0	0	390	50	0	0	0	0	0	1	blank2r.bmp	0	1	+	0	2	B2r.bmp	492	1	blank2r.bmp	786	1	BMVZ	786	1	blank2r.bmp	866	3	rächen	866	1	FEHLER	1599	1	!	-1	1	!	-1	0	0	0	0	0	0	0	0	0	0	0	0	0	0	0	0	0	0	0	0	0	0	0	0
013119	13:35:51	13:41:02	310098	5.0.10.0	4_exp_AWA_CON_AMP_EVA	105	Rpleas_acq	Same	Rpleas	Bmasked	CS_B	2pleas	distractor1	CONbeforeEVA	acq_US_unple_masked	acq2_masked	2	32	480	1	300	300	0	0	443	50	0	0	0	0	0	1	blank2r.bmp	0	1	+	0	7	C3r.bmp	492	1	blank2r.bmp	786	1	BMVZ	786	1	blank2r.bmp	866	1	eitel	866	1	FEHLER	1665	1	!	1319	1	!	1346	0	0	0	0	0	0	0	0	0	0	0	0	0	0	0	0	0	0	0	0	0	0	0	0
013119	13:35:51	13:41:05	312737	5.0.10.0	4_exp_AWA_CON_AMP_EVA	105	Rpleas_acq	Same	Rpleas	Bmasked	CS_B	2pleas	distractor1	CONbeforeEVA	acq_US_unple_masked	acq2_masked	2	33	480	0	300	300	0	0	1088	46	0	1	0	0	0	1	blank2r.bmp	0	1	+	0	1	B1r.bmp	492	1	blank2r.bmp	786	1	BMVZ	786	1	blank2r.bmp	866	2	lasch	866	1	!	1319	1	!	-1	0	0	0	0	0	0	0	0	0	0	0	0	0	0	0	0	0	0	0	0	0	0	0	0	0	0	0
013119	13:35:51	13:41:07	315109	5.0.10.0	4_exp_AWA_CON_AMP_EVA	105	Rpleas_acq	Same	Rpleas	Bmasked	CS_B	2pleas	distractor1	CONbeforeEVA	acq_new_unple_masked	acq2_masked	2	34	480	0	300	300	0	0	368	50	0	0	0	0	0	1	blank2r.bmp	0	1	+	0	5	C1r.bmp	492	1	blank2r.bmp	786	3	B3r.bmp	786	1	blank2r.bmp	866	5	tot	866	1	FEHLER	1572	1	!	-1	1	!	-1	0	0	0	0	0	0	0	0	0	0	0	0	0	0	0	0	0	0	0	0	0	0	0	0
013119	13:35:51	13:41:09	317242	5.0.10.0	4_exp_AWA_CON_AMP_EVA	105	Rpleas_acq	Same	Rpleas	Bmasked	CS_B	2pleas	distractor1	CONbeforeEVA	acq_new_pleas_masked	acq2_masked	2	35	480	0	300	300	0	0	559	50	0	1	0	0	0	1	blank2r.bmp	0	1	+	0	4	B4r.bmp	492	1	blank2r.bmp	786	8	C4r.bmp	786	1	blank2r.bmp	866	3	helfen	866	1	!	1319	1	!	-1	0	0	0	0	0	0	0	0	0	0	0	0	0	0	0	0	0	0	0	0	0	0	0	0	0	0	0
013119	13:35:51	13:41:12	319707	5.0.10.0	4_exp_AWA_CON_AMP_EVA	105	Rpleas_acq	Same	Rpleas	Bmasked	CS_B	2pleas	distractor1	CONbeforeEVA	acq_US_pleas_masked	acq2_masked	2	36	480	1	300	300	0	0	455	46	0	0	0	0	0	1	blank2r.bmp	0	1	+	0	6	C2r.bmp	492	1	blank2r.bmp	786	1	GKQX	786	1	blank2r.bmp	866	4	fair	866	1	FEHLER	1679	1	!	1319	1	!	1359	0	0	0	0	0	0	0	0	0	0	0	0	0	0	0	0	0	0	0	0	0	0	0	0
013119	13:35:51	13:41:32	340112	5.0.10.0	4_exp_AWA_CON_AMP_EVA	105	Rpleas_acq	Same	Rpleas	Bmasked	CS_B	2pleas	distractor1	CONbeforeEVA	acq_US_pleas_masked	acq3_masked	3	1	453	1	300	300	0	0	462	50	0	1	0	0	0	1	blank2r.bmp	0	1	+	0	5	C1r.bmp	492	1	blank2r.bmp	786	1	GKQX	786	1	blank2r.bmp	866	2	loyal	866	1	!	1292	1	!	1359	0	0	0	0	0	0	0	0	0	0	0	0	0	0	0	0	0	0	0	0	0	0	0	0	0	0	0
013119	13:35:51	13:41:34	342365	5.0.10.0	4_exp_AWA_CON_AMP_EVA	105	Rpleas_acq	Same	Rpleas	Bmasked	CS_B	2pleas	distractor1	CONbeforeEVA	acq_US_unple_masked	acq3_masked	3	2	453	1	300	300	0	0	449	46	0	1	0	0	0	1	blank2r.bmp	0	1	+	0	2	B2r.bmp	492	1	blank2r.bmp	786	1	BMVZ	786	1	blank2r.bmp	866	1	eitel	866	1	!	1292	1	!	1346	0	0	0	0	0	0	0	0	0	0	0	0	0	0	0	0	0	0	0	0	0	0	0	0	0	0	0
013119	13:35:51	13:41:36	344631	5.0.10.0	4_exp_AWA_CON_AMP_EVA	105	Rpleas_acq	Same	Rpleas	Bmasked	CS_B	2pleas	distractor1	CONbeforeEVA	acq_US_unple_masked	acq3_masked	3	3	453	1	300	300	0	0	472	46	0	1	0	0	0	1	blank2r.bmp	0	1	+	0	3	B3r.bmp	492	1	blank2r.bmp	786	1	BMVZ	786	1	blank2r.bmp	866	4	faul	866	1	!	1292	1	!	1372	0	0	0	0	0	0	0	0	0	0	0	0	0	0	0	0	0	0	0	0	0	0	0	0	0	0	0
013119	13:35:51	13:41:39	346883	5.0.10.0	4_exp_AWA_CON_AMP_EVA	105	Rpleas_acq	Same	Rpleas	Bmasked	CS_B	2pleas	distractor1	CONbeforeEVA	acq_US_pleas_masked	acq3_masked	3	4	453	1	300	300	0	0	464	50	0	1	0	0	0	1	blank2r.bmp	0	1	+	0	1	B1r.bmp	492	1	blank2r.bmp	786	1	GKQX	786	1	blank2r.bmp	866	4	fair	866	1	!	1292	1	!	1359	0	0	0	0	0	0	0	0	0	0	0	0	0	0	0	0	0	0	0	0	0	0	0	0	0	0	0
013119	13:35:51	13:41:41	349175	5.0.10.0	4_exp_AWA_CON_AMP_EVA	105	Rpleas_acq	Same	Rpleas	Bmasked	CS_B	2pleas	distractor1	CONbeforeEVA	acq_US_unple_masked	acq3_masked	3	5	453	1	300	300	0	0	486	46	0	1	0	0	0	1	blank2r.bmp	0	1	+	0	4	B4r.bmp	492	1	blank2r.bmp	786	1	BMVZ	786	1	blank2r.bmp	866	6	tyrannisch	866	1	!	1292	1	!	1386	0	0	0	0	0	0	0	0	0	0	0	0	0	0	0	0	0	0	0	0	0	0	0	0	0	0	0
013119	13:35:51	13:41:43	351628	5.0.10.0	4_exp_AWA_CON_AMP_EVA	105	Rpleas_acq	Same	Rpleas	Bmasked	CS_B	2pleas	distractor1	CONbeforeEVA	acq_US_unple_masked	acq3_masked	3	6	453	1	300	300	0	0	450	50	0	0	0	0	0	1	blank2r.bmp	0	1	+	0	6	C2r.bmp	492	1	blank2r.bmp	786	1	BMVZ	786	1	blank2r.bmp	866	3	rächen	866	1	FEHLER	1665	1	!	1292	1	!	1346	0	0	0	0	0	0	0	0	0	0	0	0	0	0	0	0	0	0	0	0	0	0	0	0
013119	13:35:51	13:41:45	353627	5.0.10.0	4_exp_AWA_CON_AMP_EVA	105	Rpleas_acq	Same	Rpleas	Bmasked	CS_B	2pleas	distractor1	CONbeforeEVA	acq_US_pleas_masked	acq3_masked	3	7	453	1	300	300	0	0	420	50	0	1	0	0	0	1	blank2r.bmp	0	1	+	0	8	C4r.bmp	492	1	blank2r.bmp	786	1	GKQX	786	1	blank2r.bmp	866	3	retten	866	1	!	1292	1	!	1319	0	0	0	0	0	0	0	0	0	0	0	0	0	0	0	0	0	0	0	0	0	0	0	0	0	0	0
013119	13:35:51	13:41:48	356132	5.0.10.0	4_exp_AWA_CON_AMP_EVA	105	Rpleas_acq	Same	Rpleas	Bmasked	CS_B	2pleas	distractor1	CONbeforeEVA	acq_US_pleas_masked	acq3_masked	3	8	453	1	300	300	0	0	495	46	0	0	0	0	0	1	blank2r.bmp	0	1	+	0	7	C3r.bmp	492	1	blank2r.bmp	786	1	GKQX	786	1	blank2r.bmp	866	5	schlau	866	1	FEHLER	1719	1	!	1292	1	!	1399	0	0	0	0	0	0	0	0	0	0	0	0	0	0	0	0	0	0	0	0	0	0	0	0
013119	13:35:51	13:41:50	358132	5.0.10.0	4_exp_AWA_CON_AMP_EVA	105	Rpleas_acq	Same	Rpleas	Bmasked	CS_B	2pleas	distractor1	CONbeforeEVA	acq_US_pleas_masked	acq3_masked	3	9	453	1	300	300	0	0	423	50	0	1	0	0	0	1	blank2r.bmp	0	1	+	0	1	B1r.bmp	492	1	blank2r.bmp	786	1	GKQX	786	1	blank2r.bmp	866	1	ehrlich	866	1	!	1292	1	!	1319	0	0	0	0	0	0	0	0	0	0	0	0	0	0	0	0	0	0	0	0	0	0	0	0	0	0	0
013119	13:35:51	13:41:53	360851	5.0.10.0	4_exp_AWA_CON_AMP_EVA	105	Rpleas_acq	Same	Rpleas	Bmasked	CS_B	2pleas	distractor1	CONbeforeEVA	acq_US_pleas_masked	acq3_masked	3	10	453	0	300	300	0	0	705	46	0	0	0	0	0	1	blank2r.bmp	0	1	+	0	5	C1r.bmp	492	1	blank2r.bmp	786	1	GKQX	786	1	blank2r.bmp	866	6	tolerant	866	1	FEHLER	1919	1	!	1292	1	!	-1	0	0	0	0	0	0	0	0	0	0	0	0	0	0	0	0	0	0	0	0	0	0	0	0
013119	13:35:51	13:41:55	363036	5.0.10.0	4_exp_AWA_CON_AMP_EVA	105	Rpleas_acq	Same	Rpleas	Bmasked	CS_B	2pleas	distractor1	CONbeforeEVA	acq_US_unple_masked	acq3_masked	3	11	453	0	300	300	0	0	630	46	0	1	0	0	0	1	blank2r.bmp	0	1	+	0	6	C2r.bmp	492	1	blank2r.bmp	786	1	BMVZ	786	1	blank2r.bmp	866	2	lasch	866	1	!	1292	1	!	-1	0	0	0	0	0	0	0	0	0	0	0	0	0	0	0	0	0	0	0	0	0	0	0	0	0	0	0
013119	13:35:51	13:41:58	365795	5.0.10.0	4_exp_AWA_CON_AMP_EVA	105	Rpleas_acq	Same	Rpleas	Bmasked	CS_B	2pleas	distractor1	CONbeforeEVA	acq_US_unple_masked	acq3_masked	3	12	453	0	300	300	0	0	982	46	0	1	0	0	0	1	blank2r.bmp	0	1	+	0	3	B3r.bmp	492	1	blank2r.bmp	786	1	BMVZ	786	1	blank2r.bmp	866	5	schroff	866	1	!	1292	1	!	-1	0	0	0	0	0	0	0	0	0	0	0	0	0	0	0	0	0	0	0	0	0	0	0	0	0	0	0
013119	13:35:51	13:42:00	368421	5.0.10.0	4_exp_AWA_CON_AMP_EVA	105	Rpleas_acq	Same	Rpleas	Bmasked	CS_B	2pleas	distractor1	CONbeforeEVA	acq_US_unple_masked	acq3_masked	3	13	453	0	300	300	0	0	612	50	0	0	0	0	0	1	blank2r.bmp	0	1	+	0	2	B2r.bmp	492	1	blank2r.bmp	786	1	BMVZ	786	1	blank2r.bmp	866	1	eitel	866	1	FEHLER	1825	1	!	1292	1	!	-1	0	0	0	0	0	0	0	0	0	0	0	0	0	0	0	0	0	0	0	0	0	0	0	0
013119	13:35:51	13:42:02	370606	5.0.10.0	4_exp_AWA_CON_AMP_EVA	105	Rpleas_acq	Same	Rpleas	Bmasked	CS_B	2pleas	distractor1	CONbeforeEVA	acq_US_unple_masked	acq3_masked	3	14	453	0	300	300	0	0	626	46	0	1	0	0	0	1	blank2r.bmp	0	1	+	0	8	C4r.bmp	492	1	blank2r.bmp	786	1	BMVZ	786	1	blank2r.bmp	866	6	tyrannisch	866	1	!	1292	1	!	-1	0	0	0	0	0	0	0	0	0	0	0	0	0	0	0	0	0	0	0	0	0	0	0	0	0	0	0
013119	13:35:51	13:42:05	372739	5.0.10.0	4_exp_AWA_CON_AMP_EVA	105	Rpleas_acq	Same	Rpleas	Bmasked	CS_B	2pleas	distractor1	CONbeforeEVA	acq_US_pleas_masked	acq3_masked	3	15	453	0	300	300	0	0	351	50	0	1	0	0	0	1	blank2r.bmp	0	1	+	0	4	B4r.bmp	492	1	blank2r.bmp	786	1	GKQX	786	1	blank2r.bmp	866	5	schlau	866	1	!	-1	1	!	-1	0	0	0	0	0	0	0	0	0	0	0	0	0	0	0	0	0	0	0	0	0	0	0	0	0	0	0
013119	13:35:51	13:42:07	375391	5.0.10.0	4_exp_AWA_CON_AMP_EVA	105	Rpleas_acq	Same	Rpleas	Bmasked	CS_B	2pleas	distractor1	CONbeforeEVA	acq_US_pleas_masked	acq3_masked	3	16	453	0	300	300	0	0	869	50	0	1	0	0	0	1	blank2r.bmp	0	1	+	0	7	C3r.bmp	492	1	blank2r.bmp	786	1	GKQX	786	1	blank2r.bmp	866	6	tolerant	866	1	!	1292	1	!	-1	0	0	0	0	0	0	0	0	0	0	0	0	0	0	0	0	0	0	0	0	0	0	0	0	0	0	0
013119	13:35:51	13:42:09	377644	5.0.10.0	4_exp_AWA_CON_AMP_EVA	105	Rpleas_acq	Same	Rpleas	Bmasked	CS_B	2pleas	distractor1	CONbeforeEVA	acq_US_unple_masked	acq3_masked	3	17	453	1	300	300	0	0	449	46	0	1	0	0	0	1	blank2r.bmp	0	1	+	0	5	C1r.bmp	492	1	blank2r.bmp	786	1	BMVZ	786	1	blank2r.bmp	866	5	schroff	866	1	!	1292	1	!	1346	0	0	0	0	0	0	0	0	0	0	0	0	0	0	0	0	0	0	0	0	0	0	0	0	0	0	0
013119	13:35:51	13:42:12	380203	5.0.10.0	4_exp_AWA_CON_AMP_EVA	105	Rpleas_acq	Same	Rpleas	Bmasked	CS_B	2pleas	distractor1	CONbeforeEVA	acq_US_pleas_masked	acq3_masked	3	18	453	0	300	300	0	0	795	50	0	1	0	0	0	1	blank2r.bmp	0	1	+	0	3	B3r.bmp	492	1	blank2r.bmp	786	1	GKQX	786	1	blank2r.bmp	866	2	loyal	866	1	!	1292	1	!	-1	0	0	0	0	0	0	0	0	0	0	0	0	0	0	0	0	0	0	0	0	0	0	0	0	0	0	0
013119	13:35:51	13:42:14	382415	5.0.10.0	4_exp_AWA_CON_AMP_EVA	105	Rpleas_acq	Same	Rpleas	Bmasked	CS_B	2pleas	distractor1	CONbeforeEVA	acq_US_pleas_masked	acq3_masked	3	19	453	1	300	300	0	0	399	50	0	1	0	0	0	1	blank2r.bmp	0	1	+	0	2	B2r.bmp	492	1	blank2r.bmp	786	1	GKQX	786	1	blank2r.bmp	866	1	ehrlich	866	1	!	1292	1	!	1306	0	0	0	0	0	0	0	0	0	0	0	0	0	0	0	0	0	0	0	0	0	0	0	0	0	0	0
013119	13:35:51	13:42:16	384627	5.0.10.0	4_exp_AWA_CON_AMP_EVA	105	Rpleas_acq	Same	Rpleas	Bmasked	CS_B	2pleas	distractor1	CONbeforeEVA	acq_US_unple_masked	acq3_masked	3	20	453	1	300	300	0	0	417	46	0	1	0	0	0	1	blank2r.bmp	0	1	+	0	4	B4r.bmp	492	1	blank2r.bmp	786	1	BMVZ	786	1	blank2r.bmp	866	3	rächen	866	1	!	1292	1	!	1319	0	0	0	0	0	0	0	0	0	0	0	0	0	0	0	0	0	0	0	0	0	0	0	0	0	0	0
013119	13:35:51	13:42:19	386840	5.0.10.0	4_exp_AWA_CON_AMP_EVA	105	Rpleas_acq	Same	Rpleas	Bmasked	CS_B	2pleas	distractor1	CONbeforeEVA	acq_US_pleas_masked	acq3_masked	3	21	453	1	300	300	0	0	417	50	0	1	0	0	0	1	blank2r.bmp	0	1	+	0	7	C3r.bmp	492	1	blank2r.bmp	786	1	GKQX	786	1	blank2r.bmp	866	4	fair	866	1	!	1292	1	!	1319	0	0	0	0	0	0	0	0	0	0	0	0	0	0	0	0	0	0	0	0	0	0	0	0	0	0	0
013119	13:35:51	13:42:21	389146	5.0.10.0	4_exp_AWA_CON_AMP_EVA	105	Rpleas_acq	Same	Rpleas	Bmasked	CS_B	2pleas	distractor1	CONbeforeEVA	acq_US_unple_masked	acq3_masked	3	22	453	0	300	300	0	0	532	46	0	1	0	0	0	1	blank2r.bmp	0	1	+	0	6	C2r.bmp	492	1	blank2r.bmp	786	1	BMVZ	786	1	blank2r.bmp	866	4	faul	866	1	!	1292	1	!	-1	0	0	0	0	0	0	0	0	0	0	0	0	0	0	0	0	0	0	0	0	0	0	0	0	0	0	0
013119	13:35:51	13:42:23	391585	5.0.10.0	4_exp_AWA_CON_AMP_EVA	105	Rpleas_acq	Same	Rpleas	Bmasked	CS_B	2pleas	distractor1	CONbeforeEVA	acq_US_unple_masked	acq3_masked	3	23	453	1	300	300	0	0	399	50	0	0	0	0	0	1	blank2r.bmp	0	1	+	0	8	C4r.bmp	492	1	blank2r.bmp	786	1	BMVZ	786	1	blank2r.bmp	866	2	lasch	866	1	FEHLER	1625	1	!	1292	1	!	1306	0	0	0	0	0	0	0	0	0	0	0	0	0	0	0	0	0	0	0	0	0	0	0	0
013119	13:35:51	13:42:25	393570	5.0.10.0	4_exp_AWA_CON_AMP_EVA	105	Rpleas_acq	Same	Rpleas	Bmasked	CS_B	2pleas	distractor1	CONbeforeEVA	acq_US_pleas_masked	acq3_masked	3	24	453	1	300	300	0	0	399	50	0	1	0	0	0	1	blank2r.bmp	0	1	+	0	1	B1r.bmp	492	1	blank2r.bmp	786	1	GKQX	786	1	blank2r.bmp	866	3	retten	866	1	!	1292	1	!	1306	0	0	0	0	0	0	0	0	0	0	0	0	0	0	0	0	0	0	0	0	0	0	0	0	0	0	0
013119	13:35:51	13:42:28	395783	5.0.10.0	4_exp_AWA_CON_AMP_EVA	105	Rpleas_acq	Same	Rpleas	Bmasked	CS_B	2pleas	distractor1	CONbeforeEVA	acq_US_pleas_masked	acq3_masked	3	25	453	1	300	300	0	0	422	50	0	1	0	0	0	1	blank2r.bmp	0	1	+	0	5	C1r.bmp	492	1	blank2r.bmp	786	1	GKQX	786	1	blank2r.bmp	866	3	retten	866	1	!	1292	1	!	1319	0	0	0	0	0	0	0	0	0	0	0	0	0	0	0	0	0	0	0	0	0	0	0	0	0	0	0
013119	13:35:51	13:42:30	397995	5.0.10.0	4_exp_AWA_CON_AMP_EVA	105	Rpleas_acq	Same	Rpleas	Bmasked	CS_B	2pleas	distractor1	CONbeforeEVA	acq_US_unple_masked	acq3_masked	3	26	453	1	300	300	0	0	418	46	0	1	0	0	0	1	blank2r.bmp	0	1	+	0	3	B3r.bmp	492	1	blank2r.bmp	786	1	BMVZ	786	1	blank2r.bmp	866	3	rächen	866	1	!	1292	1	!	1319	0	0	0	0	0	0	0	0	0	0	0	0	0	0	0	0	0	0	0	0	0	0	0	0	0	0	0
013119	13:35:51	13:42:32	400221	5.0.10.0	4_exp_AWA_CON_AMP_EVA	105	Rpleas_acq	Same	Rpleas	Bmasked	CS_B	2pleas	distractor1	CONbeforeEVA	acq_US_pleas_masked	acq3_masked	3	27	453	1	300	300	0	0	435	50	0	1	0	0	0	1	blank2r.bmp	0	1	+	0	7	C3r.bmp	492	1	blank2r.bmp	786	1	GKQX	786	1	blank2r.bmp	866	6	tolerant	866	1	!	1292	1	!	1332	0	0	0	0	0	0	0	0	0	0	0	0	0	0	0	0	0	0	0	0	0	0	0	0	0	0	0
013119	13:35:51	13:42:34	402433	5.0.10.0	4_exp_AWA_CON_AMP_EVA	105	Rpleas_acq	Same	Rpleas	Bmasked	CS_B	2pleas	distractor1	CONbeforeEVA	acq_US_unple_masked	acq3_masked	3	28	453	1	300	300	0	0	404	46	0	1	0	0	0	1	blank2r.bmp	0	1	+	0	6	C2r.bmp	492	1	blank2r.bmp	786	1	BMVZ	786	1	blank2r.bmp	866	6	tyrannisch	866	1	!	1292	1	!	1306	0	0	0	0	0	0	0	0	0	0	0	0	0	0	0	0	0	0	0	0	0	0	0	0	0	0	0
013119	13:35:51	13:42:37	404686	5.0.10.0	4_exp_AWA_CON_AMP_EVA	105	Rpleas_acq	Same	Rpleas	Bmasked	CS_B	2pleas	distractor1	CONbeforeEVA	acq_US_unple_masked	acq3_masked	3	29	453	1	300	300	0	0	464	46	0	1	0	0	0	1	blank2r.bmp	0	1	+	0	8	C4r.bmp	492	1	blank2r.bmp	786	1	BMVZ	786	1	blank2r.bmp	866	5	schroff	866	1	!	1292	1	!	1359	0	0	0	0	0	0	0	0	0	0	0	0	0	0	0	0	0	0	0	0	0	0	0	0	0	0	0
013119	13:35:51	13:42:39	406832	5.0.10.0	4_exp_AWA_CON_AMP_EVA	105	Rpleas_acq	Same	Rpleas	Bmasked	CS_B	2pleas	distractor1	CONbeforeEVA	acq_US_unple_masked	acq3_masked	3	30	453	0	300	300	0	0	376	46	0	1	0	0	0	1	blank2r.bmp	0	1	+	0	2	B2r.bmp	492	1	blank2r.bmp	786	1	BMVZ	786	1	blank2r.bmp	866	2	lasch	866	1	!	-1	1	!	-1	0	0	0	0	0	0	0	0	0	0	0	0	0	0	0	0	0	0	0	0	0	0	0	0	0	0	0
013119	13:35:51	13:42:41	408937	5.0.10.0	4_exp_AWA_CON_AMP_EVA	105	Rpleas_acq	Same	Rpleas	Bmasked	CS_B	2pleas	distractor1	CONbeforeEVA	acq_US_pleas_masked	acq3_masked	3	31	453	0	300	300	0	0	328	50	0	1	0	0	0	1	blank2r.bmp	0	1	+	0	1	B1r.bmp	492	1	blank2r.bmp	786	1	GKQX	786	1	blank2r.bmp	866	4	fair	866	1	!	-1	1	!	-1	0	0	0	0	0	0	0	0	0	0	0	0	0	0	0	0	0	0	0	0	0	0	0	0	0	0	0
013119	13:35:51	13:42:43	411363	5.0.10.0	4_exp_AWA_CON_AMP_EVA	105	Rpleas_acq	Same	Rpleas	Bmasked	CS_B	2pleas	distractor1	CONbeforeEVA	acq_US_pleas_masked	acq3_masked	3	32	453	1	300	300	0	0	404	46	0	0	0	0	0	1	blank2r.bmp	0	1	+	0	4	B4r.bmp	492	1	blank2r.bmp	786	1	GKQX	786	1	blank2r.bmp	866	5	schlau	866	1	FEHLER	1625	1	!	1292	1	!	1306	0	0	0	0	0	0	0	0	0	0	0	0	0	0	0	0	0	0	0	0	0	0	0	0
013119	13:35:51	13:42:45	413575	5.0.10.0	4_exp_AWA_CON_AMP_EVA	105	Rpleas_acq	Same	Rpleas	Bmasked	CS_B	2pleas	distractor1	CONbeforeEVA	acq_US_unple_masked	acq3_masked	3	33	453	1	300	300	0	0	414	50	0	0	0	0	0	1	blank2r.bmp	0	1	+	0	4	B4r.bmp	492	1	blank2r.bmp	786	1	BMVZ	786	1	blank2r.bmp	866	1	eitel	866	1	FEHLER	1639	1	!	1292	1	!	1319	0	0	0	0	0	0	0	0	0	0	0	0	0	0	0	0	0	0	0	0	0	0	0	0
013119	13:35:51	13:42:48	415668	5.0.10.0	4_exp_AWA_CON_AMP_EVA	105	Rpleas_acq	Same	Rpleas	Bmasked	CS_B	2pleas	distractor1	CONbeforeEVA	acq_US_unple_masked	acq3_masked	3	34	453	0	300	300	0	0	544	46	0	1	0	0	0	1	blank2r.bmp	0	1	+	0	2	B2r.bmp	492	1	blank2r.bmp	786	1	BMVZ	786	1	blank2r.bmp	866	4	faul	866	1	!	1292	1	!	-1	0	0	0	0	0	0	0	0	0	0	0	0	0	0	0	0	0	0	0	0	0	0	0	0	0	0	0
013119	13:35:51	13:42:50	417814	5.0.10.0	4_exp_AWA_CON_AMP_EVA	105	Rpleas_acq	Same	Rpleas	Bmasked	CS_B	2pleas	distractor1	CONbeforeEVA	acq_US_pleas_masked	acq3_masked	3	35	453	0	300	300	0	0	369	50	0	1	0	0	0	1	blank2r.bmp	0	1	+	0	7	C3r.bmp	492	1	blank2r.bmp	786	1	GKQX	786	1	blank2r.bmp	866	1	ehrlich	866	1	!	-1	1	!	-1	0	0	0	0	0	0	0	0	0	0	0	0	0	0	0	0	0	0	0	0	0	0	0	0	0	0	0
013119	13:35:51	13:42:52	420279	5.0.10.0	4_exp_AWA_CON_AMP_EVA	105	Rpleas_acq	Same	Rpleas	Bmasked	CS_B	2pleas	distractor1	CONbeforeEVA	acq_US_pleas_masked	acq3_masked	3	36	453	1	300	300	0	0	451	46	0	0	0	0	0	1	blank2r.bmp	0	1	+	0	6	C2r.bmp	492	1	blank2r.bmp	786	1	GKQX	786	1	blank2r.bmp	866	2	loyal	866	1	FEHLER	1665	1	!	1292	1	!	1346	0	0	0	0	0	0	0	0	0	0	0	0	0	0	0	0	0	0	0	0	0	0	0	0
013119	13:35:51	13:43:05	433394	5.0.10.0	4_exp_AWA_CON_AMP_EVA	105	Rpleas_acq	Same	Rpleas	Bmasked	CS_B	2pleas	distractor1	CONbeforeEVA	acq_US_pleas_masked	acq45_masked	4	1	400	1	300	300	0	0	409	50	0	1	0	0	0	1	blank2r.bmp	0	1	+	0	8	C4r.bmp	492	1	blank2r.bmp	786	1	GKQX	786	1	blank2r.bmp	866	2	loyal	866	1	!	1239	1	!	1306	0	0	0	0	0	0	0	0	0	0	0	0	0	0	0	0	0	0	0	0	0	0	0	0	0	0	0
013119	13:35:51	13:43:07	435593	5.0.10.0	4_exp_AWA_CON_AMP_EVA	105	Rpleas_acq	Same	Rpleas	Bmasked	CS_B	2pleas	distractor1	CONbeforeEVA	acq_US_unple_masked	acq45_masked	4	2	400	1	300	300	0	0	406	46	0	1	0	0	0	1	blank2r.bmp	0	1	+	0	5	C1r.bmp	492	1	blank2r.bmp	786	1	BMVZ	786	1	blank2r.bmp	866	6	tyrannisch	866	1	!	1239	1	!	1306	0	0	0	0	0	0	0	0	0	0	0	0	0	0	0	0	0	0	0	0	0	0	0	0	0	0	0
013119	13:35:51	13:43:10	437872	5.0.10.0	4_exp_AWA_CON_AMP_EVA	105	Rpleas_acq	Same	Rpleas	Bmasked	CS_B	2pleas	distractor1	CONbeforeEVA	acq_US_unple_masked	acq45_masked	4	3	400	0	300	300	0	0	507	46	0	1	0	0	0	1	blank2r.bmp	0	1	+	0	1	B1r.bmp	492	1	blank2r.bmp	786	1	BMVZ	786	1	blank2r.bmp	866	3	rächen	866	1	!	1239	1	!	-1	0	0	0	0	0	0	0	0	0	0	0	0	0	0	0	0	0	0	0	0	0	0	0	0	0	0	0
013119	13:35:51	13:43:12	440151	5.0.10.0	4_exp_AWA_CON_AMP_EVA	105	Rpleas_acq	Same	Rpleas	Bmasked	CS_B	2pleas	distractor1	CONbeforeEVA	acq_US_unple_masked	acq45_masked	4	4	400	0	300	300	0	0	494	46	0	1	0	0	0	1	blank2r.bmp	0	1	+	0	3	B3r.bmp	492	1	blank2r.bmp	786	1	BMVZ	786	1	blank2r.bmp	866	5	schroff	866	1	!	1239	1	!	-1	0	0	0	0	0	0	0	0	0	0	0	0	0	0	0	0	0	0	0	0	0	0	0	0	0	0	0
013119	13:35:51	13:43:14	442350	5.0.10.0	4_exp_AWA_CON_AMP_EVA	105	Rpleas_acq	Same	Rpleas	Bmasked	CS_B	2pleas	distractor1	CONbeforeEVA	acq_US_unple_masked	acq45_masked	4	5	400	1	300	300	0	0	389	50	0	0	0	0	0	1	blank2r.bmp	0	1	+	0	2	B2r.bmp	492	1	blank2r.bmp	786	1	BMVZ	786	1	blank2r.bmp	866	2	lasch	866	1	!	1239	1	!	1292	0	0	0	0	0	0	0	0	0	0	0	0	0	0	0	0	0	0	0	0	0	0	0	0	0	0	0
013119	13:35:51	13:43:16	444589	5.0.10.0	4_exp_AWA_CON_AMP_EVA	105	Rpleas_acq	Same	Rpleas	Bmasked	CS_B	2pleas	distractor1	CONbeforeEVA	acq_US_pleas_masked	acq45_masked	4	6	400	1	300	300	0	0	440	50	0	1	0	0	0	1	blank2r.bmp	0	1	+	0	8	C4r.bmp	492	1	blank2r.bmp	786	1	GKQX	786	1	blank2r.bmp	866	5	schlau	866	1	!	1239	1	!	1346	0	0	0	0	0	0	0	0	0	0	0	0	0	0	0	0	0	0	0	0	0	0	0	0	0	0	0
013119	13:35:51	13:43:19	446788	5.0.10.0	4_exp_AWA_CON_AMP_EVA	105	Rpleas_acq	Same	Rpleas	Bmasked	CS_B	2pleas	distractor1	CONbeforeEVA	acq_US_unple_masked	acq45_masked	4	7	400	1	300	300	0	0	405	50	0	0	0	0	0	1	blank2r.bmp	0	1	+	0	6	C2r.bmp	492	1	blank2r.bmp	786	1	BMVZ	786	1	blank2r.bmp	866	1	eitel	866	1	!	1239	1	!	1306	0	0	0	0	0	0	0	0	0	0	0	0	0	0	0	0	0	0	0	0	0	0	0	0	0	0	0
013119	13:35:51	13:43:21	449028	5.0.10.0	4_exp_AWA_CON_AMP_EVA	105	Rpleas_acq	Same	Rpleas	Bmasked	CS_B	2pleas	distractor1	CONbeforeEVA	acq_US_pleas_masked	acq45_masked	4	8	400	1	300	300	0	0	443	50	0	1	0	0	0	1	blank2r.bmp	0	1	+	0	1	B1r.bmp	492	1	blank2r.bmp	786	1	GKQX	786	1	blank2r.bmp	866	1	ehrlich	866	1	!	1239	1	!	1346	0	0	0	0	0	0	0	0	0	0	0	0	0	0	0	0	0	0	0	0	0	0	0	0	0	0	0
013119	13:35:51	13:43:23	451173	5.0.10.0	4_exp_AWA_CON_AMP_EVA	105	Rpleas_acq	Same	Rpleas	Bmasked	CS_B	2pleas	distractor1	CONbeforeEVA	acq_US_pleas_masked	acq45_masked	4	9	400	1	300	300	0	0	346	46	0	0	0	0	0	1	blank2r.bmp	0	1	+	0	7	C3r.bmp	492	1	blank2r.bmp	786	1	GKQX	786	1	blank2r.bmp	866	6	tolerant	866	1	!	1239	1	!	1252	0	0	0	0	0	0	0	0	0	0	0	0	0	0	0	0	0	0	0	0	0	0	0	0	0	0	0
013119	13:35:51	13:43:25	453426	5.0.10.0	4_exp_AWA_CON_AMP_EVA	105	Rpleas_acq	Same	Rpleas	Bmasked	CS_B	2pleas	distractor1	CONbeforeEVA	acq_US_unple_masked	acq45_masked	4	10	400	0	300	300	0	0	479	46	0	1	0	0	0	1	blank2r.bmp	0	1	+	0	4	B4r.bmp	492	1	blank2r.bmp	786	1	BMVZ	786	1	blank2r.bmp	866	4	faul	866	1	!	1239	1	!	-1	0	0	0	0	0	0	0	0	0	0	0	0	0	0	0	0	0	0	0	0	0	0	0	0	0	0	0
013119	13:35:51	13:43:28	455691	5.0.10.0	4_exp_AWA_CON_AMP_EVA	105	Rpleas_acq	Same	Rpleas	Bmasked	CS_B	2pleas	distractor1	CONbeforeEVA	acq_US_pleas_masked	acq45_masked	4	11	400	0	300	300	0	0	483	50	0	1	0	0	0	1	blank2r.bmp	0	1	+	0	5	C1r.bmp	492	1	blank2r.bmp	786	1	GKQX	786	1	blank2r.bmp	866	3	retten	866	1	!	1239	1	!	-1	0	0	0	0	0	0	0	0	0	0	0	0	0	0	0	0	0	0	0	0	0	0	0	0	0	0	0
013119	13:35:51	13:43:30	457984	5.0.10.0	4_exp_AWA_CON_AMP_EVA	105	Rpleas_acq	Same	Rpleas	Bmasked	CS_B	2pleas	distractor1	CONbeforeEVA	acq_US_unple_masked	acq45_masked	4	12	400	0	300	300	0	0	508	46	0	1	0	0	0	1	blank2r.bmp	0	1	+	0	3	B3r.bmp	492	1	blank2r.bmp	786	1	BMVZ	786	1	blank2r.bmp	866	4	faul	866	1	!	1239	1	!	-1	0	0	0	0	0	0	0	0	0	0	0	0	0	0	0	0	0	0	0	0	0	0	0	0	0	0	0
013119	13:35:51	13:43:32	460170	5.0.10.0	4_exp_AWA_CON_AMP_EVA	105	Rpleas_acq	Same	Rpleas	Bmasked	CS_B	2pleas	distractor1	CONbeforeEVA	acq_US_pleas_masked	acq45_masked	4	13	400	1	300	300	0	0	373	50	0	1	0	0	0	1	blank2r.bmp	0	1	+	0	4	B4r.bmp	492	1	blank2r.bmp	786	1	GKQX	786	1	blank2r.bmp	866	4	fair	866	1	!	1239	1	!	1279	0	0	0	0	0	0	0	0	0	0	0	0	0	0	0	0	0	0	0	0	0	0	0	0	0	0	0
013119	13:35:51	13:43:34	462355	5.0.10.0	4_exp_AWA_CON_AMP_EVA	105	Rpleas_acq	Same	Rpleas	Bmasked	CS_B	2pleas	distractor1	CONbeforeEVA	acq_US_pleas_masked	acq45_masked	4	14	400	1	300	300	0	0	375	50	0	1	0	0	0	1	blank2r.bmp	0	1	+	0	5	C1r.bmp	492	1	blank2r.bmp	786	1	GKQX	786	1	blank2r.bmp	866	1	ehrlich	866	1	!	1239	1	!	1279	0	0	0	0	0	0	0	0	0	0	0	0	0	0	0	0	0	0	0	0	0	0	0	0	0	0	0
013119	13:35:51	13:43:36	464594	5.0.10.0	4_exp_AWA_CON_AMP_EVA	105	Rpleas_acq	Same	Rpleas	Bmasked	CS_B	2pleas	distractor1	CONbeforeEVA	acq_US_unple_masked	acq45_masked	4	15	400	1	300	300	0	0	433	46	0	1	0	0	0	1	blank2r.bmp	0	1	+	0	1	B1r.bmp	492	1	blank2r.bmp	786	1	BMVZ	786	1	blank2r.bmp	866	6	tyrannisch	866	1	!	1239	1	!	1332	0	0	0	0	0	0	0	0	0	0	0	0	0	0	0	0	0	0	0	0	0	0	0	0	0	0	0
013119	13:35:51	13:43:39	466847	5.0.10.0	4_exp_AWA_CON_AMP_EVA	105	Rpleas_acq	Same	Rpleas	Bmasked	CS_B	2pleas	distractor1	CONbeforeEVA	acq_US_pleas_masked	acq45_masked	4	16	400	0	300	300	0	0	480	50	0	1	0	0	0	1	blank2r.bmp	0	1	+	0	2	B2r.bmp	492	1	blank2r.bmp	786	1	GKQX	786	1	blank2r.bmp	866	5	schlau	866	1	!	1239	1	!	-1	0	0	0	0	0	0	0	0	0	0	0	0	0	0	0	0	0	0	0	0	0	0	0	0	0	0	0
013119	13:35:51	13:43:41	469006	5.0.10.0	4_exp_AWA_CON_AMP_EVA	105	Rpleas_acq	Same	Rpleas	Bmasked	CS_B	2pleas	distractor1	CONbeforeEVA	acq_US_unple_masked	acq45_masked	4	17	400	1	300	300	0	0	346	50	0	0	0	0	0	1	blank2r.bmp	0	1	+	0	7	C3r.bmp	492	1	blank2r.bmp	786	1	BMVZ	786	1	blank2r.bmp	866	1	eitel	866	1	!	1239	1	!	1252	0	0	0	0	0	0	0	0	0	0	0	0	0	0	0	0	0	0	0	0	0	0	0	0	0	0	0
013119	13:35:51	13:43:43	471192	5.0.10.0	4_exp_AWA_CON_AMP_EVA	105	Rpleas_acq	Same	Rpleas	Bmasked	CS_B	2pleas	distractor1	CONbeforeEVA	acq_US_pleas_masked	acq45_masked	4	18	400	1	300	300	0	0	388	50	0	1	0	0	0	1	blank2r.bmp	0	1	+	0	8	C4r.bmp	492	1	blank2r.bmp	786	1	GKQX	786	1	blank2r.bmp	866	4	fair	866	1	!	1239	1	!	1292	0	0	0	0	0	0	0	0	0	0	0	0	0	0	0	0	0	0	0	0	0	0	0	0	0	0	0
013119	13:35:51	13:43:45	473351	5.0.10.0	4_exp_AWA_CON_AMP_EVA	105	Rpleas_acq	Same	Rpleas	Bmasked	CS_B	2pleas	distractor1	CONbeforeEVA	acq_US_pleas_masked	acq45_masked	4	19	400	1	300	300	0	0	366	46	0	0	0	0	0	1	blank2r.bmp	0	1	+	0	3	B3r.bmp	492	1	blank2r.bmp	786	1	GKQX	786	1	blank2r.bmp	866	6	tolerant	866	1	!	1239	1	!	1266	0	0	0	0	0	0	0	0	0	0	0	0	0	0	0	0	0	0	0	0	0	0	0	0	0	0	0
013119	13:35:51	13:43:47	475603	5.0.10.0	4_exp_AWA_CON_AMP_EVA	105	Rpleas_acq	Same	Rpleas	Bmasked	CS_B	2pleas	distractor1	CONbeforeEVA	acq_US_pleas_masked	acq45_masked	4	20	400	1	300	300	0	0	454	50	0	1	0	0	0	1	blank2r.bmp	0	1	+	0	6	C2r.bmp	492	1	blank2r.bmp	786	1	GKQX	786	1	blank2r.bmp	866	2	loyal	866	1	!	1239	1	!	1359	0	0	0	0	0	0	0	0	0	0	0	0	0	0	0	0	0	0	0	0	0	0	0	0	0	0	0
013119	13:35:51	13:43:50	477776	5.0.10.0	4_exp_AWA_CON_AMP_EVA	105	Rpleas_acq	Same	Rpleas	Bmasked	CS_B	2pleas	distractor1	CONbeforeEVA	acq_US_pleas_masked	acq45_masked	4	21	400	1	300	300	0	0	381	50	0	1	0	0	0	1	blank2r.bmp	0	1	+	0	7	C3r.bmp	492	1	blank2r.bmp	786	1	GKQX	786	1	blank2r.bmp	866	3	retten	866	1	!	1239	1	!	1279	0	0	0	0	0	0	0	0	0	0	0	0	0	0	0	0	0	0	0	0	0	0	0	0	0	0	0
013119	13:35:51	13:43:52	480001	5.0.10.0	4_exp_AWA_CON_AMP_EVA	105	Rpleas_acq	Same	Rpleas	Bmasked	CS_B	2pleas	distractor1	CONbeforeEVA	acq_US_unple_masked	acq45_masked	4	22	400	1	300	300	0	0	429	50	0	0	0	0	0	1	blank2r.bmp	0	1	+	0	1	B1r.bmp	492	1	blank2r.bmp	786	1	BMVZ	786	1	blank2r.bmp	866	5	schroff	866	1	!	1239	1	!	1332	0	0	0	0	0	0	0	0	0	0	0	0	0	0	0	0	0	0	0	0	0	0	0	0	0	0	0
013119	13:35:51	13:43:54	482201	5.0.10.0	4_exp_AWA_CON_AMP_EVA	105	Rpleas_acq	Same	Rpleas	Bmasked	CS_B	2pleas	distractor1	CONbeforeEVA	acq_US_pleas_masked	acq45_masked	4	23	400	1	300	300	0	0	399	50	0	1	0	0	0	1	blank2r.bmp	0	1	+	0	8	C4r.bmp	492	1	blank2r.bmp	786	1	GKQX	786	1	blank2r.bmp	866	2	loyal	866	1	!	1239	1	!	1306	0	0	0	0	0	0	0	0	0	0	0	0	0	0	0	0	0	0	0	0	0	0	0	0	0	0	0
013119	13:35:51	13:43:56	484280	5.0.10.0	4_exp_AWA_CON_AMP_EVA	105	Rpleas_acq	Same	Rpleas	Bmasked	CS_B	2pleas	distractor1	CONbeforeEVA	acq_US_unple_masked	acq45_masked	4	24	400	0	300	300	0	0	311	46	0	1	0	0	0	1	blank2r.bmp	0	1	+	0	5	C1r.bmp	492	1	blank2r.bmp	786	1	BMVZ	786	1	blank2r.bmp	866	3	rächen	866	1	!	-1	1	!	-1	0	0	0	0	0	0	0	0	0	0	0	0	0	0	0	0	0	0	0	0	0	0	0	0	0	0	0
013119	13:35:51	13:43:58	486465	5.0.10.0	4_exp_AWA_CON_AMP_EVA	105	Rpleas_acq	Same	Rpleas	Bmasked	CS_B	2pleas	distractor1	CONbeforeEVA	acq_US_unple_masked	acq45_masked	4	25	400	1	300	300	0	0	375	50	0	0	0	0	0	1	blank2r.bmp	0	1	+	0	2	B2r.bmp	492	1	blank2r.bmp	786	1	BMVZ	786	1	blank2r.bmp	866	2	lasch	866	1	!	1239	1	!	1279	0	0	0	0	0	0	0	0	0	0	0	0	0	0	0	0	0	0	0	0	0	0	0	0	0	0	0
013119	13:35:51	13:44:00	488571	5.0.10.0	4_exp_AWA_CON_AMP_EVA	105	Rpleas_acq	Same	Rpleas	Bmasked	CS_B	2pleas	distractor1	CONbeforeEVA	acq_US_pleas_masked	acq45_masked	4	26	400	0	300	300	0	0	327	50	0	1	0	0	0	1	blank2r.bmp	0	1	+	0	3	B3r.bmp	492	1	blank2r.bmp	786	1	GKQX	786	1	blank2r.bmp	866	5	schlau	866	1	!	-1	1	!	-1	0	0	0	0	0	0	0	0	0	0	0	0	0	0	0	0	0	0	0	0	0	0	0	0	0	0	0
013119	13:35:51	13:44:03	490744	5.0.10.0	4_exp_AWA_CON_AMP_EVA	105	Rpleas_acq	Same	Rpleas	Bmasked	CS_B	2pleas	distractor1	CONbeforeEVA	acq_US_pleas_masked	acq45_masked	4	27	400	1	300	300	0	0	385	46	0	0	0	0	0	1	blank2r.bmp	0	1	+	0	4	B4r.bmp	492	1	blank2r.bmp	786	1	GKQX	786	1	blank2r.bmp	866	6	tolerant	866	1	!	1239	1	!	1279	0	0	0	0	0	0	0	0	0	0	0	0	0	0	0	0	0	0	0	0	0	0	0	0	0	0	0
013119	13:35:51	13:44:05	492796	5.0.10.0	4_exp_AWA_CON_AMP_EVA	105	Rpleas_acq	Same	Rpleas	Bmasked	CS_B	2pleas	distractor1	CONbeforeEVA	acq_US_unple_masked	acq45_masked	4	28	400	0	300	300	0	0	287	50	0	0	0	0	0	1	blank2r.bmp	0	1	+	0	6	C2r.bmp	492	1	blank2r.bmp	786	1	BMVZ	786	1	blank2r.bmp	866	2	lasch	866	1	!	-1	1	!	-1	0	0	0	0	0	0	0	0	0	0	0	0	0	0	0	0	0	0	0	0	0	0	0	0	0	0	0
013119	13:35:51	13:44:07	494875	5.0.10.0	4_exp_AWA_CON_AMP_EVA	105	Rpleas_acq	Same	Rpleas	Bmasked	CS_B	2pleas	distractor1	CONbeforeEVA	acq_US_pleas_masked	acq45_masked	4	29	400	0	300	300	0	0	303	50	0	1	0	0	0	1	blank2r.bmp	0	1	+	0	5	C1r.bmp	492	1	blank2r.bmp	786	1	GKQX	786	1	blank2r.bmp	866	4	fair	866	1	!	-1	1	!	-1	0	0	0	0	0	0	0	0	0	0	0	0	0	0	0	0	0	0	0	0	0	0	0	0	0	0	0
013119	13:35:51	13:44:09	497088	5.0.10.0	4_exp_AWA_CON_AMP_EVA	105	Rpleas_acq	Same	Rpleas	Bmasked	CS_B	2pleas	distractor1	CONbeforeEVA	acq_US_pleas_masked	acq45_masked	4	30	400	1	300	300	0	0	400	50	0	1	0	0	0	1	blank2r.bmp	0	1	+	0	6	C2r.bmp	492	1	blank2r.bmp	786	1	GKQX	786	1	blank2r.bmp	866	1	ehrlich	866	1	!	1239	1	!	1306	0	0	0	0	0	0	0	0	0	0	0	0	0	0	0	0	0	0	0	0	0	0	0	0	0	0	0
013119	13:35:51	13:44:11	499233	5.0.10.0	4_exp_AWA_CON_AMP_EVA	105	Rpleas_acq	Same	Rpleas	Bmasked	CS_B	2pleas	distractor1	CONbeforeEVA	acq_US_unple_masked	acq45_masked	4	31	400	1	300	300	0	0	346	50	0	0	0	0	0	1	blank2r.bmp	0	1	+	0	4	B4r.bmp	492	1	blank2r.bmp	786	1	BMVZ	786	1	blank2r.bmp	866	1	eitel	866	1	!	1239	1	!	1252	0	0	0	0	0	0	0	0	0	0	0	0	0	0	0	0	0	0	0	0	0	0	0	0	0	0	0
013119	13:35:51	13:44:13	501566	5.0.10.0	4_exp_AWA_CON_AMP_EVA	105	Rpleas_acq	Same	Rpleas	Bmasked	CS_B	2pleas	distractor1	CONbeforeEVA	acq_US_unple_masked	acq45_masked	4	32	400	0	300	300	0	0	557	46	0	1	0	0	0	1	blank2r.bmp	0	1	+	0	1	B1r.bmp	492	1	blank2r.bmp	786	1	BMVZ	786	1	blank2r.bmp	866	6	tyrannisch	866	1	!	1239	1	!	-1	0	0	0	0	0	0	0	0	0	0	0	0	0	0	0	0	0	0	0	0	0	0	0	0	0	0	0
013119	13:35:51	13:44:16	503832	5.0.10.0	4_exp_AWA_CON_AMP_EVA	105	Rpleas_acq	Same	Rpleas	Bmasked	CS_B	2pleas	distractor1	CONbeforeEVA	acq_US_unple_masked	acq45_masked	4	33	400	0	300	300	0	0	479	46	0	1	0	0	0	1	blank2r.bmp	0	1	+	0	7	C3r.bmp	492	1	blank2r.bmp	786	1	BMVZ	786	1	blank2r.bmp	866	5	schroff	866	1	!	1239	1	!	-1	0	0	0	0	0	0	0	0	0	0	0	0	0	0	0	0	0	0	0	0	0	0	0	0	0	0	0
013119	13:35:51	13:44:18	505924	5.0.10.0	4_exp_AWA_CON_AMP_EVA	105	Rpleas_acq	Same	Rpleas	Bmasked	CS_B	2pleas	distractor1	CONbeforeEVA	acq_US_unple_masked	acq45_masked	4	34	400	0	300	300	0	0	313	46	0	1	0	0	0	1	blank2r.bmp	0	1	+	0	3	B3r.bmp	492	1	blank2r.bmp	786	1	BMVZ	786	1	blank2r.bmp	866	4	faul	866	1	!	-1	1	!	-1	0	0	0	0	0	0	0	0	0	0	0	0	0	0	0	0	0	0	0	0	0	0	0	0	0	0	0
013119	13:35:51	13:44:20	508097	5.0.10.0	4_exp_AWA_CON_AMP_EVA	105	Rpleas_acq	Same	Rpleas	Bmasked	CS_B	2pleas	distractor1	CONbeforeEVA	acq_US_pleas_masked	acq45_masked	4	35	400	1	300	300	0	0	371	50	0	1	0	0	0	1	blank2r.bmp	0	1	+	0	2	B2r.bmp	492	1	blank2r.bmp	786	1	GKQX	786	1	blank2r.bmp	866	3	retten	866	1	!	1239	1	!	1266	0	0	0	0	0	0	0	0	0	0	0	0	0	0	0	0	0	0	0	0	0	0	0	0	0	0	0
013119	13:35:51	13:44:22	510376	5.0.10.0	4_exp_AWA_CON_AMP_EVA	105	Rpleas_acq	Same	Rpleas	Bmasked	CS_B	2pleas	distractor1	CONbeforeEVA	acq_US_unple_masked	acq45_masked	4	36	400	0	300	300	0	0	512	50	0	0	0	0	0	1	blank2r.bmp	0	1	+	0	8	C4r.bmp	492	1	blank2r.bmp	786	1	BMVZ	786	1	blank2r.bmp	866	3	rächen	866	1	!	1239	1	!	-1	0	0	0	0	0	0	0	0	0	0	0	0	0	0	0	0	0	0	0	0	0	0	0	0	0	0	0
013119	13:35:51	13:44:37	525116	5.0.10.0	4_exp_AWA_CON_AMP_EVA	105	Rpleas_acq	Same	Rpleas	Bmasked	CS_B	2pleas	distractor1	CONbeforeEVA	acq_US_pleas_masked	acq45_masked	5	1	400	1	300	300	0	0	399	50	0	1	0	0	0	1	blank2r.bmp	0	1	+	0	1	B1r.bmp	492	1	blank2r.bmp	786	1	GKQX	786	1	blank2r.bmp	866	1	ehrlich	866	1	!	1239	1	!	1306	0	0	0	0	0	0	0	0	0	0	0	0	0	0	0	0	0	0	0	0	0	0	0	0	0	0	0
013119	13:35:51	13:44:39	527369	5.0.10.0	4_exp_AWA_CON_AMP_EVA	105	Rpleas_acq	Same	Rpleas	Bmasked	CS_B	2pleas	distractor1	CONbeforeEVA	acq_US_unple_masked	acq45_masked	5	2	400	1	300	300	0	0	459	50	0	0	0	0	0	1	blank2r.bmp	0	1	+	0	3	B3r.bmp	492	1	blank2r.bmp	786	1	BMVZ	786	1	blank2r.bmp	866	1	eitel	866	1	!	1239	1	!	1359	0	0	0	0	0	0	0	0	0	0	0	0	0	0	0	0	0	0	0	0	0	0	0	0	0	0	0
013119	13:35:51	13:44:42	529674	5.0.10.0	4_exp_AWA_CON_AMP_EVA	105	Rpleas_acq	Same	Rpleas	Bmasked	CS_B	2pleas	distractor1	CONbeforeEVA	acq_US_pleas_masked	acq45_masked	5	3	400	0	300	300	0	0	543	50	0	1	0	0	0	1	blank2r.bmp	0	1	+	0	2	B2r.bmp	492	1	blank2r.bmp	786	1	GKQX	786	1	blank2r.bmp	866	6	tolerant	866	1	!	1239	1	!	-1	0	0	0	0	0	0	0	0	0	0	0	0	0	0	0	0	0	0	0	0	0	0	0	0	0	0	0
013119	13:35:51	13:44:44	531873	5.0.10.0	4_exp_AWA_CON_AMP_EVA	105	Rpleas_acq	Same	Rpleas	Bmasked	CS_B	2pleas	distractor1	CONbeforeEVA	acq_US_pleas_masked	acq45_masked	5	4	400	1	300	300	0	0	386	50	0	1	0	0	0	1	blank2r.bmp	0	1	+	0	4	B4r.bmp	492	1	blank2r.bmp	786	1	GKQX	786	1	blank2r.bmp	866	2	loyal	866	1	!	1239	1	!	1292	0	0	0	0	0	0	0	0	0	0	0	0	0	0	0	0	0	0	0	0	0	0	0	0	0	0	0
013119	13:35:51	13:44:46	534139	5.0.10.0	4_exp_AWA_CON_AMP_EVA	105	Rpleas_acq	Same	Rpleas	Bmasked	CS_B	2pleas	distractor1	CONbeforeEVA	acq_US_unple_masked	acq45_masked	5	5	400	0	300	300	0	0	494	46	0	1	0	0	0	1	blank2r.bmp	0	1	+	0	8	C4r.bmp	492	1	blank2r.bmp	786	1	BMVZ	786	1	blank2r.bmp	866	4	faul	866	1	!	1239	1	!	-1	0	0	0	0	0	0	0	0	0	0	0	0	0	0	0	0	0	0	0	0	0	0	0	0	0	0	0
013119	13:35:51	13:44:48	536405	5.0.10.0	4_exp_AWA_CON_AMP_EVA	105	Rpleas_acq	Same	Rpleas	Bmasked	CS_B	2pleas	distractor1	CONbeforeEVA	acq_US_pleas_masked	acq45_masked	5	6	400	1	300	300	0	0	463	46	0	0	0	0	0	1	blank2r.bmp	0	1	+	0	7	C3r.bmp	492	1	blank2r.bmp	786	1	GKQX	786	1	blank2r.bmp	866	4	fair	866	1	!	1239	1	!	1359	0	0	0	0	0	0	0	0	0	0	0	0	0	0	0	0	0	0	0	0	0	0	0	0	0	0	0
013119	13:35:51	13:44:50	538617	5.0.10.0	4_exp_AWA_CON_AMP_EVA	105	Rpleas_acq	Same	Rpleas	Bmasked	CS_B	2pleas	distractor1	CONbeforeEVA	acq_US_unple_masked	acq45_masked	5	7	400	1	300	300	0	0	421	46	0	1	0	0	0	1	blank2r.bmp	0	1	+	0	5	C1r.bmp	492	1	blank2r.bmp	786	1	BMVZ	786	1	blank2r.bmp	866	3	rächen	866	1	!	1239	1	!	1319	0	0	0	0	0	0	0	0	0	0	0	0	0	0	0	0	0	0	0	0	0	0	0	0	0	0	0
013119	13:35:51	13:44:53	540803	5.0.10.0	4_exp_AWA_CON_AMP_EVA	105	Rpleas_acq	Same	Rpleas	Bmasked	CS_B	2pleas	distractor1	CONbeforeEVA	acq_US_pleas_masked	acq45_masked	5	8	400	1	300	300	0	0	398	50	0	1	0	0	0	1	blank2r.bmp	0	1	+	0	6	C2r.bmp	492	1	blank2r.bmp	786	1	GKQX	786	1	blank2r.bmp	866	3	retten	866	1	!	1239	1	!	1292	0	0	0	0	0	0	0	0	0	0	0	0	0	0	0	0	0	0	0	0	0	0	0	0	0	0	0
013119	13:35:51	13:44:55	543055	5.0.10.0	4_exp_AWA_CON_AMP_EVA	105	Rpleas_acq	Same	Rpleas	Bmasked	CS_B	2pleas	distractor1	CONbeforeEVA	acq_US_pleas_masked	acq45_masked	5	9	400	1	300	300	0	0	453	46	0	0	0	0	0	1	blank2r.bmp	0	1	+	0	8	C4r.bmp	492	1	blank2r.bmp	786	1	GKQX	786	1	blank2r.bmp	866	5	schlau	866	1	!	1239	1	!	1359	0	0	0	0	0	0	0	0	0	0	0	0	0	0	0	0	0	0	0	0	0	0	0	0	0	0	0
013119	13:35:51	13:44:57	545295	5.0.10.0	4_exp_AWA_CON_AMP_EVA	105	Rpleas_acq	Same	Rpleas	Bmasked	CS_B	2pleas	distractor1	CONbeforeEVA	acq_US_unple_masked	acq45_masked	5	10	400	1	300	300	0	0	442	46	0	1	0	0	0	1	blank2r.bmp	0	1	+	0	5	C1r.bmp	492	1	blank2r.bmp	786	1	BMVZ	786	1	blank2r.bmp	866	6	tyrannisch	866	1	!	1239	1	!	1346	0	0	0	0	0	0	0	0	0	0	0	0	0	0	0	0	0	0	0	0	0	0	0	0	0	0	0
013119	13:35:51	13:44:59	547440	5.0.10.0	4_exp_AWA_CON_AMP_EVA	105	Rpleas_acq	Same	Rpleas	Bmasked	CS_B	2pleas	distractor1	CONbeforeEVA	acq_US_unple_masked	acq45_masked	5	11	400	1	300	300	0	0	346	50	0	0	0	0	0	1	blank2r.bmp	0	1	+	0	6	C2r.bmp	492	1	blank2r.bmp	786	1	BMVZ	786	1	blank2r.bmp	866	2	lasch	866	1	!	1239	1	!	1252	0	0	0	0	0	0	0	0	0	0	0	0	0	0	0	0	0	0	0	0	0	0	0	0	0	0	0
013119	13:35:51	13:45:01	549613	5.0.10.0	4_exp_AWA_CON_AMP_EVA	105	Rpleas_acq	Same	Rpleas	Bmasked	CS_B	2pleas	distractor1	CONbeforeEVA	acq_US_pleas_masked	acq45_masked	5	12	400	1	300	300	0	0	378	50	0	1	0	0	0	1	blank2r.bmp	0	1	+	0	3	B3r.bmp	492	1	blank2r.bmp	786	1	GKQX	786	1	blank2r.bmp	866	1	ehrlich	866	1	!	1239	1	!	1279	0	0	0	0	0	0	0	0	0	0	0	0	0	0	0	0	0	0	0	0	0	0	0	0	0	0	0
013119	13:35:51	13:45:04	551759	5.0.10.0	4_exp_AWA_CON_AMP_EVA	105	Rpleas_acq	Same	Rpleas	Bmasked	CS_B	2pleas	distractor1	CONbeforeEVA	acq_US_unple_masked	acq45_masked	5	13	400	1	300	300	0	0	353	46	0	1	0	0	0	1	blank2r.bmp	0	1	+	0	2	B2r.bmp	492	1	blank2r.bmp	786	1	BMVZ	786	1	blank2r.bmp	866	5	schroff	866	1	!	1239	1	!	1252	0	0	0	0	0	0	0	0	0	0	0	0	0	0	0	0	0	0	0	0	0	0	0	0	0	0	0
013119	13:35:51	13:45:06	554011	5.0.10.0	4_exp_AWA_CON_AMP_EVA	105	Rpleas_acq	Same	Rpleas	Bmasked	CS_B	2pleas	distractor1	CONbeforeEVA	acq_US_unple_masked	acq45_masked	5	14	400	1	300	300	0	0	440	46	0	1	0	0	0	1	blank2r.bmp	0	1	+	0	7	C3r.bmp	492	1	blank2r.bmp	786	1	BMVZ	786	1	blank2r.bmp	866	6	tyrannisch	866	1	!	1239	1	!	1346	0	0	0	0	0	0	0	0	0	0	0	0	0	0	0	0	0	0	0	0	0	0	0	0	0	0	0
013119	13:35:51	13:45:08	556157	5.0.10.0	4_exp_AWA_CON_AMP_EVA	105	Rpleas_acq	Same	Rpleas	Bmasked	CS_B	2pleas	distractor1	CONbeforeEVA	acq_US_unple_masked	acq45_masked	5	15	400	1	300	300	0	0	346	50	0	0	0	0	0	1	blank2r.bmp	0	1	+	0	4	B4r.bmp	492	1	blank2r.bmp	786	1	BMVZ	786	1	blank2r.bmp	866	1	eitel	866	1	!	1239	1	!	1252	0	0	0	0	0	0	0	0	0	0	0	0	0	0	0	0	0	0	0	0	0	0	0	0	0	0	0
013119	13:35:51	13:45:10	558422	5.0.10.0	4_exp_AWA_CON_AMP_EVA	105	Rpleas_acq	Same	Rpleas	Bmasked	CS_B	2pleas	distractor1	CONbeforeEVA	acq_US_unple_masked	acq45_masked	5	16	400	0	300	300	0	0	479	46	0	1	0	0	0	1	blank2r.bmp	0	1	+	0	1	B1r.bmp	492	1	blank2r.bmp	786	1	BMVZ	786	1	blank2r.bmp	866	2	lasch	866	1	!	1239	1	!	-1	0	0	0	0	0	0	0	0	0	0	0	0	0	0	0	0	0	0	0	0	0	0	0	0	0	0	0
013119	13:35:51	13:45:12	560582	5.0.10.0	4_exp_AWA_CON_AMP_EVA	105	Rpleas_acq	Same	Rpleas	Bmasked	CS_B	2pleas	distractor1	CONbeforeEVA	acq_US_pleas_masked	acq45_masked	5	17	400	1	300	300	0	0	350	46	0	0	0	0	0	1	blank2r.bmp	0	1	+	0	2	B2r.bmp	492	1	blank2r.bmp	786	1	GKQX	786	1	blank2r.bmp	866	4	fair	866	1	!	1239	1	!	1252	0	0	0	0	0	0	0	0	0	0	0	0	0	0	0	0	0	0	0	0	0	0	0	0	0	0	0
013119	13:35:51	13:45:15	562847	5.0.10.0	4_exp_AWA_CON_AMP_EVA	105	Rpleas_acq	Same	Rpleas	Bmasked	CS_B	2pleas	distractor1	CONbeforeEVA	acq_US_pleas_masked	acq45_masked	5	18	400	1	300	300	0	0	466	50	0	1	0	0	0	1	blank2r.bmp	0	1	+	0	7	C3r.bmp	492	1	blank2r.bmp	786	1	GKQX	786	1	blank2r.bmp	866	6	tolerant	866	1	!	1239	1	!	1372	0	0	0	0	0	0	0	0	0	0	0	0	0	0	0	0	0	0	0	0	0	0	0	0	0	0	0
013119	13:35:51	13:45:17	565020	5.0.10.0	4_exp_AWA_CON_AMP_EVA	105	Rpleas_acq	Same	Rpleas	Bmasked	CS_B	2pleas	distractor1	CONbeforeEVA	acq_US_unple_masked	acq45_masked	5	19	400	1	300	300	0	0	360	46	0	1	0	0	0	1	blank2r.bmp	0	1	+	0	8	C4r.bmp	492	1	blank2r.bmp	786	1	BMVZ	786	1	blank2r.bmp	866	3	rächen	866	1	!	1239	1	!	1266	0	0	0	0	0	0	0	0	0	0	0	0	0	0	0	0	0	0	0	0	0	0	0	0	0	0	0
013119	13:35:51	13:45:19	567232	5.0.10.0	4_exp_AWA_CON_AMP_EVA	105	Rpleas_acq	Same	Rpleas	Bmasked	CS_B	2pleas	distractor1	CONbeforeEVA	acq_US_unple_masked	acq45_masked	5	20	400	1	300	300	0	0	413	46	0	1	0	0	0	1	blank2r.bmp	0	1	+	0	1	B1r.bmp	492	1	blank2r.bmp	786	1	BMVZ	786	1	blank2r.bmp	866	5	schroff	866	1	!	1239	1	!	1319	0	0	0	0	0	0	0	0	0	0	0	0	0	0	0	0	0	0	0	0	0	0	0	0	0	0	0
013119	13:35:51	13:45:21	569391	5.0.10.0	4_exp_AWA_CON_AMP_EVA	105	Rpleas_acq	Same	Rpleas	Bmasked	CS_B	2pleas	distractor1	CONbeforeEVA	acq_US_pleas_masked	acq45_masked	5	21	400	1	300	300	0	0	351	50	0	1	0	0	0	1	blank2r.bmp	0	1	+	0	3	B3r.bmp	492	1	blank2r.bmp	786	1	GKQX	786	1	blank2r.bmp	866	2	loyal	866	1	!	1239	1	!	1252	0	0	0	0	0	0	0	0	0	0	0	0	0	0	0	0	0	0	0	0	0	0	0	0	0	0	0
013119	13:35:51	13:45:23	571630	5.0.10.0	4_exp_AWA_CON_AMP_EVA	105	Rpleas_acq	Same	Rpleas	Bmasked	CS_B	2pleas	distractor1	CONbeforeEVA	acq_US_pleas_masked	acq45_masked	5	22	400	1	300	300	0	0	449	46	0	0	0	0	0	1	blank2r.bmp	0	1	+	0	6	C2r.bmp	492	1	blank2r.bmp	786	1	GKQX	786	1	blank2r.bmp	866	3	retten	866	1	!	1239	1	!	1346	0	0	0	0	0	0	0	0	0	0	0	0	0	0	0	0	0	0	0	0	0	0	0	0	0	0	0
013119	13:35:51	13:45:26	573883	5.0.10.0	4_exp_AWA_CON_AMP_EVA	105	Rpleas_acq	Same	Rpleas	Bmasked	CS_B	2pleas	distractor1	CONbeforeEVA	acq_US_unple_masked	acq45_masked	5	23	400	1	300	300	0	0	442	46	0	1	0	0	0	1	blank2r.bmp	0	1	+	0	4	B4r.bmp	492	1	blank2r.bmp	786	1	BMVZ	786	1	blank2r.bmp	866	4	faul	866	1	!	1239	1	!	1346	0	0	0	0	0	0	0	0	0	0	0	0	0	0	0	0	0	0	0	0	0	0	0	0	0	0	0
013119	13:35:51	13:45:28	576029	5.0.10.0	4_exp_AWA_CON_AMP_EVA	105	Rpleas_acq	Same	Rpleas	Bmasked	CS_B	2pleas	distractor1	CONbeforeEVA	acq_US_pleas_masked	acq45_masked	5	24	400	1	300	300	0	0	358	50	0	1	0	0	0	1	blank2r.bmp	0	1	+	0	5	C1r.bmp	492	1	blank2r.bmp	786	1	GKQX	786	1	blank2r.bmp	866	5	schlau	866	1	!	1239	1	!	1252	0	0	0	0	0	0	0	0	0	0	0	0	0	0	0	0	0	0	0	0	0	0	0	0	0	0	0
013119	13:35:51	13:45:30	578228	5.0.10.0	4_exp_AWA_CON_AMP_EVA	105	Rpleas_acq	Same	Rpleas	Bmasked	CS_B	2pleas	distractor1	CONbeforeEVA	acq_US_pleas_masked	acq45_masked	5	25	400	1	300	300	0	0	400	50	0	1	0	0	0	1	blank2r.bmp	0	1	+	0	2	B2r.bmp	492	1	blank2r.bmp	786	1	GKQX	786	1	blank2r.bmp	866	2	loyal	866	1	!	1239	1	!	1306	0	0	0	0	0	0	0	0	0	0	0	0	0	0	0	0	0	0	0	0	0	0	0	0	0	0	0
013119	13:35:51	13:45:32	580453	5.0.10.0	4_exp_AWA_CON_AMP_EVA	105	Rpleas_acq	Same	Rpleas	Bmasked	CS_B	2pleas	distractor1	CONbeforeEVA	acq_US_unple_masked	acq45_masked	5	26	400	1	300	300	0	0	432	46	0	1	0	0	0	1	blank2r.bmp	0	1	+	0	7	C3r.bmp	492	1	blank2r.bmp	786	1	BMVZ	786	1	blank2r.bmp	866	6	tyrannisch	866	1	!	1239	1	!	1332	0	0	0	0	0	0	0	0	0	0	0	0	0	0	0	0	0	0	0	0	0	0	0	0	0	0	0
013119	13:35:51	13:45:34	582546	5.0.10.0	4_exp_AWA_CON_AMP_EVA	105	Rpleas_acq	Same	Rpleas	Bmasked	CS_B	2pleas	distractor1	CONbeforeEVA	acq_US_pleas_masked	acq45_masked	5	27	400	0	300	300	0	0	321	50	0	1	0	0	0	1	blank2r.bmp	0	1	+	0	8	C4r.bmp	492	1	blank2r.bmp	786	1	GKQX	786	1	blank2r.bmp	866	1	ehrlich	866	1	!	-1	1	!	-1	0	0	0	0	0	0	0	0	0	0	0	0	0	0	0	0	0	0	0	0	0	0	0	0	0	0	0
013119	13:35:51	13:45:39	587184	5.0.10.0	4_exp_AWA_CON_AMP_EVA	105	Rpleas_acq	Same	Rpleas	Bmasked	CS_B	2pleas	distractor1	CONbeforeEVA	acq_US_unple_masked	acq45_masked	5	28	400	0	300	300	0	0	2850	46	0	1	0	0	0	1	blank2r.bmp	0	1	+	0	4	B4r.bmp	492	1	blank2r.bmp	786	1	BMVZ	786	1	blank2r.bmp	866	2	lasch	866	1	!	1239	1	!	-1	0	0	0	0	0	0	0	0	0	0	0	0	0	0	0	0	0	0	0	0	0	0	0	0	0	0	0
013119	13:35:51	13:45:41	589383	5.0.10.0	4_exp_AWA_CON_AMP_EVA	105	Rpleas_acq	Same	Rpleas	Bmasked	CS_B	2pleas	distractor1	CONbeforeEVA	acq_US_pleas_masked	acq45_masked	5	29	400	1	300	300	0	0	390	50	0	1	0	0	0	1	blank2r.bmp	0	1	+	0	3	B3r.bmp	492	1	blank2r.bmp	786	1	GKQX	786	1	blank2r.bmp	866	6	tolerant	866	1	!	1239	1	!	1292	0	0	0	0	0	0	0	0	0	0	0	0	0	0	0	0	0	0	0	0	0	0	0	0	0	0	0
013119	13:35:51	13:45:43	591542	5.0.10.0	4_exp_AWA_CON_AMP_EVA	105	Rpleas_acq	Same	Rpleas	Bmasked	CS_B	2pleas	distractor1	CONbeforeEVA	acq_US_pleas_masked	acq45_masked	5	30	400	1	300	300	0	0	346	50	0	1	0	0	0	1	blank2r.bmp	0	1	+	0	6	C2r.bmp	492	1	blank2r.bmp	786	1	GKQX	786	1	blank2r.bmp	866	5	schlau	866	1	!	1239	1	!	1252	0	0	0	0	0	0	0	0	0	0	0	0	0	0	0	0	0	0	0	0	0	0	0	0	0	0	0
013119	13:35:51	13:45:46	593688	5.0.10.0	4_exp_AWA_CON_AMP_EVA	105	Rpleas_acq	Same	Rpleas	Bmasked	CS_B	2pleas	distractor1	CONbeforeEVA	acq_US_unple_masked	acq45_masked	5	31	400	1	300	300	0	0	349	46	0	1	0	0	0	1	blank2r.bmp	0	1	+	0	5	C1r.bmp	492	1	blank2r.bmp	786	1	BMVZ	786	1	blank2r.bmp	866	5	schroff	866	1	!	1239	1	!	1252	0	0	0	0	0	0	0	0	0	0	0	0	0	0	0	0	0	0	0	0	0	0	0	0	0	0	0
013119	13:35:51	13:45:48	596487	5.0.10.0	4_exp_AWA_CON_AMP_EVA	105	Rpleas_acq	Same	Rpleas	Bmasked	CS_B	2pleas	distractor1	CONbeforeEVA	acq_US_unple_masked	acq45_masked	5	32	400	0	300	300	0	0	1015	46	0	1	0	0	0	1	blank2r.bmp	0	1	+	0	1	B1r.bmp	492	1	blank2r.bmp	786	1	BMVZ	786	1	blank2r.bmp	866	4	faul	866	1	!	1239	1	!	-1	0	0	0	0	0	0	0	0	0	0	0	0	0	0	0	0	0	0	0	0	0	0	0	0	0	0	0
013119	13:35:51	13:45:51	598646	5.0.10.0	4_exp_AWA_CON_AMP_EVA	105	Rpleas_acq	Same	Rpleas	Bmasked	CS_B	2pleas	distractor1	CONbeforeEVA	acq_US_pleas_masked	acq45_masked	5	33	400	1	300	300	0	0	346	50	0	1	0	0	0	1	blank2r.bmp	0	1	+	0	5	C1r.bmp	492	1	blank2r.bmp	786	1	GKQX	786	1	blank2r.bmp	866	4	fair	866	1	!	1239	1	!	1252	0	0	0	0	0	0	0	0	0	0	0	0	0	0	0	0	0	0	0	0	0	0	0	0	0	0	0
013119	13:35:51	13:45:53	600885	5.0.10.0	4_exp_AWA_CON_AMP_EVA	105	Rpleas_acq	Same	Rpleas	Bmasked	CS_B	2pleas	distractor1	CONbeforeEVA	acq_US_unple_masked	acq45_masked	5	34	400	1	300	300	0	0	446	46	0	1	0	0	0	1	blank2r.bmp	0	1	+	0	2	B2r.bmp	492	1	blank2r.bmp	786	1	BMVZ	786	1	blank2r.bmp	866	3	rächen	866	1	!	1239	1	!	1346	0	0	0	0	0	0	0	0	0	0	0	0	0	0	0	0	0	0	0	0	0	0	0	0	0	0	0
013119	13:35:51	13:45:55	603044	5.0.10.0	4_exp_AWA_CON_AMP_EVA	105	Rpleas_acq	Same	Rpleas	Bmasked	CS_B	2pleas	distractor1	CONbeforeEVA	acq_US_unple_masked	acq45_masked	5	35	400	1	300	300	0	0	368	50	0	0	0	0	0	1	blank2r.bmp	0	1	+	0	1	B1r.bmp	492	1	blank2r.bmp	786	1	BMVZ	786	1	blank2r.bmp	866	1	eitel	866	1	!	1239	1	!	1266	0	0	0	0	0	0	0	0	0	0	0	0	0	0	0	0	0	0	0	0	0	0	0	0	0	0	0
013119	13:35:51	13:45:57	605296	5.0.10.0	4_exp_AWA_CON_AMP_EVA	105	Rpleas_acq	Same	Rpleas	Bmasked	CS_B	2pleas	distractor1	CONbeforeEVA	acq_US_pleas_masked	acq45_masked	5	36	400	0	300	300	0	0	490	46	0	0	0	0	0	1	blank2r.bmp	0	1	+	0	7	C3r.bmp	492	1	blank2r.bmp	786	1	GKQX	786	1	blank2r.bmp	866	3	retten	866	1	!	1239	1	!	-1	0	0	0	0	0	0	0	0	0	0	0	0	0	0	0	0	0	0	0	0	0	0	0	0	0	0	0
013119	13:35:51	13:47:06	674228	5.0.10.0	4_exp_AWA_CON_AMP_EVA	105	Rpleas_acq	Same	Rpleas	Bmasked	CS_B	2pleas	distractor1	CONbeforeEVA	cond_US_unple_123_masked_CS2	condtest_masked_1	8	1	400	0	300	300	0	0	573	46	0	1	0	0	0	1	blank2r.bmp	0	1	+	0	6	C2r.bmp	492	1	blank2r.bmp	786	1	GKQX	786	1	blank2r.bmp	866	3	rächen	866	1	!	1239	1	!	-1	0	0	0	0	0	0	0	0	0	0	0	0	0	0	0	0	0	0	0	0	0	0	0	0	0	0	0
013119	13:35:51	13:47:08	676400	5.0.10.0	4_exp_AWA_CON_AMP_EVA	105	Rpleas_acq	Same	Rpleas	Bmasked	CS_B	2pleas	distractor1	CONbeforeEVA	cond_new_unple_456_masked_CS2	condtest_masked_1	8	2	400	1	300	300	0	0	359	50	0	0	0	0	0	1	blank2r.bmp	0	1	+	0	3	B3r.bmp	492	1	blank2r.bmp	786	1	GKQX	786	1	blank2r.bmp	866	1	strafen	866	1	!	1239	1	!	1266	0	0	0	0	0	0	0	0	0	0	0	0	0	0	0	0	0	0	0	0	0	0	0	0	0	0	0
013119	13:35:51	13:47:10	678573	5.0.10.0	4_exp_AWA_CON_AMP_EVA	105	Rpleas_acq	Same	Rpleas	Bmasked	CS_B	2pleas	distractor1	CONbeforeEVA	cond_new_pleas_456_masked_CS1	condtest_masked_1	8	3	400	1	300	300	0	0	360	50	0	1	0	0	0	1	blank2r.bmp	0	1	+	0	4	B4r.bmp	492	1	blank2r.bmp	786	1	BMVZ	786	1	blank2r.bmp	866	2	treu	866	1	!	1239	1	!	1266	0	0	0	0	0	0	0	0	0	0	0	0	0	0	0	0	0	0	0	0	0	0	0	0	0	0	0
013119	13:35:51	13:47:13	680772	5.0.10.0	4_exp_AWA_CON_AMP_EVA	105	Rpleas_acq	Same	Rpleas	Bmasked	CS_B	2pleas	distractor1	CONbeforeEVA	cond_new_pleas_456_masked_CS2	condtest_masked_1	8	4	400	1	300	300	0	0	407	50	0	1	0	0	0	1	blank2r.bmp	0	1	+	0	8	C4r.bmp	492	1	blank2r.bmp	786	1	GKQX	786	1	blank2r.bmp	866	1	spielen	866	1	!	1239	1	!	1306	0	0	0	0	0	0	0	0	0	0	0	0	0	0	0	0	0	0	0	0	0	0	0	0	0	0	0
013119	13:35:51	13:47:15	683011	5.0.10.0	4_exp_AWA_CON_AMP_EVA	105	Rpleas_acq	Same	Rpleas	Bmasked	CS_B	2pleas	distractor1	CONbeforeEVA	cond_US_pleas_123_masked_CS1	condtest_masked_1	8	5	400	1	300	300	0	0	440	50	0	1	0	0	0	1	blank2r.bmp	0	1	+	0	8	C4r.bmp	492	1	blank2r.bmp	786	1	BMVZ	786	1	blank2r.bmp	866	1	ehrlich	866	1	!	1239	1	!	1346	0	0	0	0	0	0	0	0	0	0	0	0	0	0	0	0	0	0	0	0	0	0	0	0	0	0	0
013119	13:35:51	13:47:17	685250	5.0.10.0	4_exp_AWA_CON_AMP_EVA	105	Rpleas_acq	Same	Rpleas	Bmasked	CS_B	2pleas	distractor1	CONbeforeEVA	cond_US_unple_123_masked_CS1	condtest_masked_1	8	6	400	1	300	300	0	0	445	46	0	1	0	0	0	1	blank2r.bmp	0	1	+	0	2	B2r.bmp	492	1	blank2r.bmp	786	1	BMVZ	786	1	blank2r.bmp	866	2	lasch	866	1	!	1239	1	!	1346	0	0	0	0	0	0	0	0	0	0	0	0	0	0	0	0	0	0	0	0	0	0	0	0	0	0	0
013119	13:35:51	13:47:19	687436	5.0.10.0	4_exp_AWA_CON_AMP_EVA	105	Rpleas_acq	Same	Rpleas	Bmasked	CS_B	2pleas	distractor1	CONbeforeEVA	cond_US_pleas_123_masked_CS2	condtest_masked_1	8	7	400	1	300	300	0	0	385	50	0	1	0	0	0	1	blank2r.bmp	0	1	+	0	3	B3r.bmp	492	1	blank2r.bmp	786	1	GKQX	786	1	blank2r.bmp	866	2	loyal	866	1	!	1239	1	!	1292	0	0	0	0	0	0	0	0	0	0	0	0	0	0	0	0	0	0	0	0	0	0	0	0	0	0	0
013119	13:35:51	13:47:21	689582	5.0.10.0	4_exp_AWA_CON_AMP_EVA	105	Rpleas_acq	Same	Rpleas	Bmasked	CS_B	2pleas	distractor1	CONbeforeEVA	cond_new_unple_456_masked_CS1	condtest_masked_1	8	8	400	1	300	300	0	0	346	50	0	0	0	0	0	1	blank2r.bmp	0	1	+	0	7	C3r.bmp	492	1	blank2r.bmp	786	1	BMVZ	786	1	blank2r.bmp	866	3	leiden	866	1	!	1239	1	!	1252	0	0	0	0	0	0	0	0	0	0	0	0	0	0	0	0	0	0	0	0	0	0	0	0	0	0	0
013119	13:35:51	13:47:29	697259	5.0.10.0	4_exp_AWA_CON_AMP_EVA	105	Rpleas_acq	Same	Rpleas	Bmasked	CS_B	2pleas	distractor1	CONbeforeEVA	cond_new_unple_456_masked_CS1	condtest_masked_2	9	1	400	0	300	300	0	0	1000	46	0	1	0	0	0	1	blank2r.bmp	0	1	+	0	1	B1r.bmp	492	1	blank2r.bmp	786	1	BMVZ	786	1	blank2r.bmp	866	2	tot	866	1	!	1239	1	!	-1	0	0	0	0	0	0	0	0	0	0	0	0	0	0	0	0	0	0	0	0	0	0	0	0	0	0	0
013119	13:35:51	13:47:31	699431	5.0.10.0	4_exp_AWA_CON_AMP_EVA	105	Rpleas_acq	Same	Rpleas	Bmasked	CS_B	2pleas	distractor1	CONbeforeEVA	cond_US_unple_123_masked_CS1	condtest_masked_2	9	2	400	1	300	300	0	0	369	50	0	0	0	0	0	1	blank2r.bmp	0	1	+	0	4	B4r.bmp	492	1	blank2r.bmp	786	1	BMVZ	786	1	blank2r.bmp	866	1	eitel	866	1	!	1239	1	!	1266	0	0	0	0	0	0	0	0	0	0	0	0	0	0	0	0	0	0	0	0	0	0	0	0	0	0	0
013119	13:35:51	13:47:34	701697	5.0.10.0	4_exp_AWA_CON_AMP_EVA	105	Rpleas_acq	Same	Rpleas	Bmasked	CS_B	2pleas	distractor1	CONbeforeEVA	cond_new_unple_456_masked_CS1	condtest_masked_2	9	3	400	1	300	300	0	0	466	46	0	1	0	0	0	1	blank2r.bmp	0	1	+	0	6	C2r.bmp	492	1	blank2r.bmp	786	1	BMVZ	786	1	blank2r.bmp	866	2	tot	866	1	!	1239	1	!	1372	0	0	0	0	0	0	0	0	0	0	0	0	0	0	0	0	0	0	0	0	0	0	0	0	0	0	0
013119	13:35:51	13:47:36	703856	5.0.10.0	4_exp_AWA_CON_AMP_EVA	105	Rpleas_acq	Same	Rpleas	Bmasked	CS_B	2pleas	distractor1	CONbeforeEVA	cond_new_pleas_456_masked_CS2	condtest_masked_2	9	4	400	1	300	300	0	0	368	50	0	1	0	0	0	1	blank2r.bmp	0	1	+	0	5	C1r.bmp	492	1	blank2r.bmp	786	1	GKQX	786	1	blank2r.bmp	866	3	lachen	866	1	!	1239	1	!	1266	0	0	0	0	0	0	0	0	0	0	0	0	0	0	0	0	0	0	0	0	0	0	0	0	0	0	0
013119	13:35:51	13:47:38	706095	5.0.10.0	4_exp_AWA_CON_AMP_EVA	105	Rpleas_acq	Same	Rpleas	Bmasked	CS_B	2pleas	distractor1	CONbeforeEVA	cond_US_pleas_123_masked_CS1	condtest_masked_2	9	5	400	1	300	300	0	0	434	50	0	1	0	0	0	1	blank2r.bmp	0	1	+	0	7	C3r.bmp	492	1	blank2r.bmp	786	1	BMVZ	786	1	blank2r.bmp	866	3	retten	866	1	!	1239	1	!	1332	0	0	0	0	0	0	0	0	0	0	0	0	0	0	0	0	0	0	0	0	0	0	0	0	0	0	0
013119	13:35:51	13:47:40	708281	5.0.10.0	4_exp_AWA_CON_AMP_EVA	105	Rpleas_acq	Same	Rpleas	Bmasked	CS_B	2pleas	distractor1	CONbeforeEVA	cond_US_unple_123_masked_CS1	condtest_masked_2	9	6	400	1	300	300	0	0	394	46	0	1	0	0	0	1	blank2r.bmp	0	1	+	0	4	B4r.bmp	492	1	blank2r.bmp	786	1	BMVZ	786	1	blank2r.bmp	866	3	rächen	866	1	!	1239	1	!	1292	0	0	0	0	0	0	0	0	0	0	0	0	0	0	0	0	0	0	0	0	0	0	0	0	0	0	0
013119	13:35:51	13:47:42	710440	5.0.10.0	4_exp_AWA_CON_AMP_EVA	105	Rpleas_acq	Same	Rpleas	Bmasked	CS_B	2pleas	distractor1	CONbeforeEVA	cond_new_pleas_456_masked_CS1	condtest_masked_2	9	7	400	1	300	300	0	0	363	50	0	1	0	0	0	1	blank2r.bmp	0	1	+	0	6	C2r.bmp	492	1	blank2r.bmp	786	1	BMVZ	786	1	blank2r.bmp	866	1	spielen	866	1	!	1239	1	!	1266	0	0	0	0	0	0	0	0	0	0	0	0	0	0	0	0	0	0	0	0	0	0	0	0	0	0	0
013119	13:35:51	13:47:45	712666	5.0.10.0	4_exp_AWA_CON_AMP_EVA	105	Rpleas_acq	Same	Rpleas	Bmasked	CS_B	2pleas	distractor1	CONbeforeEVA	cond_new_pleas_456_masked_CS1	condtest_masked_2	9	8	400	1	300	300	0	0	419	50	0	1	0	0	0	1	blank2r.bmp	0	1	+	0	2	B2r.bmp	492	1	blank2r.bmp	786	1	BMVZ	786	1	blank2r.bmp	866	3	lachen	866	1	!	1239	1	!	1319	0	0	0	0	0	0	0	0	0	0	0	0	0	0	0	0	0	0	0	0	0	0	0	0	0	0	0
013119	13:35:51	13:47:47	714878	5.0.10.0	4_exp_AWA_CON_AMP_EVA	105	Rpleas_acq	Same	Rpleas	Bmasked	CS_B	2pleas	distractor1	CONbeforeEVA	cond_new_unple_456_masked_CS1	condtest_masked_2	9	9	400	1	300	300	0	0	423	46	0	1	0	0	0	1	blank2r.bmp	0	1	+	0	3	B3r.bmp	492	1	blank2r.bmp	786	1	BMVZ	786	1	blank2r.bmp	866	1	strafen	866	1	!	1239	1	!	1319	0	0	0	0	0	0	0	0	0	0	0	0	0	0	0	0	0	0	0	0	0	0	0	0	0	0	0
013119	13:35:51	13:47:49	717024	5.0.10.0	4_exp_AWA_CON_AMP_EVA	105	Rpleas_acq	Same	Rpleas	Bmasked	CS_B	2pleas	distractor1	CONbeforeEVA	cond_US_pleas_123_masked_CS2	condtest_masked_2	9	10	400	1	300	300	0	0	346	50	0	1	0	0	0	1	blank2r.bmp	0	1	+	0	5	C1r.bmp	492	1	blank2r.bmp	786	1	GKQX	786	1	blank2r.bmp	866	1	ehrlich	866	1	!	1239	1	!	1252	0	0	0	0	0	0	0	0	0	0	0	0	0	0	0	0	0	0	0	0	0	0	0	0	0	0	0
013119	13:35:51	13:47:51	719210	5.0.10.0	4_exp_AWA_CON_AMP_EVA	105	Rpleas_acq	Same	Rpleas	Bmasked	CS_B	2pleas	distractor1	CONbeforeEVA	cond_US_unple_123_masked_CS2	condtest_masked_2	9	11	400	1	300	300	0	0	376	50	0	0	0	0	0	1	blank2r.bmp	0	1	+	0	8	C4r.bmp	492	1	blank2r.bmp	786	1	GKQX	786	1	blank2r.bmp	866	1	eitel	866	1	!	1239	1	!	1279	0	0	0	0	0	0	0	0	0	0	0	0	0	0	0	0	0	0	0	0	0	0	0	0	0	0	0
013119	13:35:51	13:47:53	721369	5.0.10.0	4_exp_AWA_CON_AMP_EVA	105	Rpleas_acq	Same	Rpleas	Bmasked	CS_B	2pleas	distractor1	CONbeforeEVA	cond_US_unple_123_masked_CS2	condtest_masked_2	9	12	400	1	300	300	0	0	365	46	0	1	0	0	0	1	blank2r.bmp	0	1	+	0	1	B1r.bmp	492	1	blank2r.bmp	786	1	GKQX	786	1	blank2r.bmp	866	2	lasch	866	1	!	1239	1	!	1266	0	0	0	0	0	0	0	0	0	0	0	0	0	0	0	0	0	0	0	0	0	0	0	0	0	0	0
013119	13:35:51	13:47:55	723581	5.0.10.0	4_exp_AWA_CON_AMP_EVA	105	Rpleas_acq	Same	Rpleas	Bmasked	CS_B	2pleas	distractor1	CONbeforeEVA	cond_new_unple_456_masked_CS2	condtest_masked_2	9	13	400	1	300	300	0	0	414	50	0	0	0	0	0	1	blank2r.bmp	0	1	+	0	2	B2r.bmp	492	1	blank2r.bmp	786	1	GKQX	786	1	blank2r.bmp	866	3	leiden	866	1	!	1239	1	!	1319	0	0	0	0	0	0	0	0	0	0	0	0	0	0	0	0	0	0	0	0	0	0	0	0	0	0	0
013119	13:35:51	13:47:58	725793	5.0.10.0	4_exp_AWA_CON_AMP_EVA	105	Rpleas_acq	Same	Rpleas	Bmasked	CS_B	2pleas	distractor1	CONbeforeEVA	cond_US_unple_123_masked_CS1	condtest_masked_2	9	14	400	1	300	300	0	0	414	50	0	0	0	0	0	1	blank2r.bmp	0	1	+	0	5	C1r.bmp	492	1	blank2r.bmp	786	1	BMVZ	786	1	blank2r.bmp	866	1	eitel	866	1	!	1239	1	!	1319	0	0	0	0	0	0	0	0	0	0	0	0	0	0	0	0	0	0	0	0	0	0	0	0	0	0	0
013119	13:35:51	13:48:00	728046	5.0.10.0	4_exp_AWA_CON_AMP_EVA	105	Rpleas_acq	Same	Rpleas	Bmasked	CS_B	2pleas	distractor1	CONbeforeEVA	cond_new_unple_456_masked_CS2	condtest_masked_2	9	15	400	1	300	300	0	0	452	46	0	1	0	0	0	1	blank2r.bmp	0	1	+	0	6	C2r.bmp	492	1	blank2r.bmp	786	1	GKQX	786	1	blank2r.bmp	866	2	tot	866	1	!	1239	1	!	1359	0	0	0	0	0	0	0	0	0	0	0	0	0	0	0	0	0	0	0	0	0	0	0	0	0	0	0
013119	13:35:51	13:48:02	730298	5.0.10.0	4_exp_AWA_CON_AMP_EVA	105	Rpleas_acq	Same	Rpleas	Bmasked	CS_B	2pleas	distractor1	CONbeforeEVA	cond_new_pleas_456_masked_CS2	condtest_masked_2	9	16	400	1	300	300	0	0	452	50	0	1	0	0	0	1	blank2r.bmp	0	1	+	0	4	B4r.bmp	492	1	blank2r.bmp	786	1	GKQX	786	1	blank2r.bmp	866	2	treu	866	1	!	1239	1	!	1359	0	0	0	0	0	0	0	0	0	0	0	0	0	0	0	0	0	0	0	0	0	0	0	0	0	0	0
013119	13:35:51	13:48:04	732564	5.0.10.0	4_exp_AWA_CON_AMP_EVA	105	Rpleas_acq	Same	Rpleas	Bmasked	CS_B	2pleas	distractor1	CONbeforeEVA	cond_new_pleas_456_masked_CS2	condtest_masked_2	9	17	400	1	300	300	0	0	463	50	0	1	0	0	0	1	blank2r.bmp	0	1	+	0	3	B3r.bmp	492	1	blank2r.bmp	786	1	GKQX	786	1	blank2r.bmp	866	1	spielen	866	1	!	1239	1	!	1359	0	0	0	0	0	0	0	0	0	0	0	0	0	0	0	0	0	0	0	0	0	0	0	0	0	0	0
013119	13:35:51	13:48:07	734723	5.0.10.0	4_exp_AWA_CON_AMP_EVA	105	Rpleas_acq	Same	Rpleas	Bmasked	CS_B	2pleas	distractor1	CONbeforeEVA	cond_new_pleas_456_masked_CS2	condtest_masked_2	9	18	400	1	300	300	0	0	367	46	0	0	0	0	0	1	blank2r.bmp	0	1	+	0	1	B1r.bmp	492	1	blank2r.bmp	786	1	GKQX	786	1	blank2r.bmp	866	2	treu	866	1	!	1239	1	!	1266	0	0	0	0	0	0	0	0	0	0	0	0	0	0	0	0	0	0	0	0	0	0	0	0	0	0	0
013119	13:35:51	13:48:09	736882	5.0.10.0	4_exp_AWA_CON_AMP_EVA	105	Rpleas_acq	Same	Rpleas	Bmasked	CS_B	2pleas	distractor1	CONbeforeEVA	cond_US_unple_123_masked_CS1	condtest_masked_2	9	19	400	1	300	300	0	0	363	46	0	1	0	0	0	1	blank2r.bmp	0	1	+	0	8	C4r.bmp	492	1	blank2r.bmp	786	1	BMVZ	786	1	blank2r.bmp	866	3	rächen	866	1	!	1239	1	!	1266	0	0	0	0	0	0	0	0	0	0	0	0	0	0	0	0	0	0	0	0	0	0	0	0	0	0	0
013119	13:35:51	13:48:11	739041	5.0.10.0	4_exp_AWA_CON_AMP_EVA	105	Rpleas_acq	Same	Rpleas	Bmasked	CS_B	2pleas	distractor1	CONbeforeEVA	cond_new_unple_456_masked_CS2	condtest_masked_2	9	20	400	1	300	300	0	0	346	50	0	0	0	0	0	1	blank2r.bmp	0	1	+	0	7	C3r.bmp	492	1	blank2r.bmp	786	1	GKQX	786	1	blank2r.bmp	866	3	leiden	866	1	!	1239	1	!	1252	0	0	0	0	0	0	0	0	0	0	0	0	0	0	0	0	0	0	0	0	0	0	0	0	0	0	0
013119	13:35:51	13:48:13	741254	5.0.10.0	4_exp_AWA_CON_AMP_EVA	105	Rpleas_acq	Same	Rpleas	Bmasked	CS_B	2pleas	distractor1	CONbeforeEVA	cond_US_pleas_123_masked_CS1	condtest_masked_2	9	21	400	1	300	300	0	0	412	50	0	1	0	0	0	1	blank2r.bmp	0	1	+	0	5	C1r.bmp	492	1	blank2r.bmp	786	1	BMVZ	786	1	blank2r.bmp	866	2	loyal	866	1	!	1239	1	!	1319	0	0	0	0	0	0	0	0	0	0	0	0	0	0	0	0	0	0	0	0	0	0	0	0	0	0	0
013119	13:35:51	13:48:15	743440	5.0.10.0	4_exp_AWA_CON_AMP_EVA	105	Rpleas_acq	Same	Rpleas	Bmasked	CS_B	2pleas	distractor1	CONbeforeEVA	cond_US_pleas_123_masked_CS1	condtest_masked_2	9	22	400	1	300	300	0	0	386	50	0	1	0	0	0	1	blank2r.bmp	0	1	+	0	6	C2r.bmp	492	1	blank2r.bmp	786	1	BMVZ	786	1	blank2r.bmp	866	3	retten	866	1	!	1239	1	!	1292	0	0	0	0	0	0	0	0	0	0	0	0	0	0	0	0	0	0	0	0	0	0	0	0	0	0	0
013119	13:35:51	13:48:17	745599	5.0.10.0	4_exp_AWA_CON_AMP_EVA	105	Rpleas_acq	Same	Rpleas	Bmasked	CS_B	2pleas	distractor1	CONbeforeEVA	cond_US_unple_123_masked_CS2	condtest_masked_2	9	23	400	1	300	300	0	0	371	46	0	1	0	0	0	1	blank2r.bmp	0	1	+	0	4	B4r.bmp	492	1	blank2r.bmp	786	1	GKQX	786	1	blank2r.bmp	866	2	lasch	866	1	!	1239	1	!	1266	0	0	0	0	0	0	0	0	0	0	0	0	0	0	0	0	0	0	0	0	0	0	0	0	0	0	0
013119	13:35:51	13:48:20	747851	5.0.10.0	4_exp_AWA_CON_AMP_EVA	105	Rpleas_acq	Same	Rpleas	Bmasked	CS_B	2pleas	distractor1	CONbeforeEVA	cond_US_unple_123_masked_CS2	condtest_masked_2	9	24	400	0	300	300	0	0	479	50	0	0	0	0	0	1	blank2r.bmp	0	1	+	0	2	B2r.bmp	492	1	blank2r.bmp	786	1	GKQX	786	1	blank2r.bmp	866	3	rächen	866	1	!	1239	1	!	-1	0	0	0	0	0	0	0	0	0	0	0	0	0	0	0	0	0	0	0	0	0	0	0	0	0	0	0
013119	13:35:51	13:48:22	749984	5.0.10.0	4_exp_AWA_CON_AMP_EVA	105	Rpleas_acq	Same	Rpleas	Bmasked	CS_B	2pleas	distractor1	CONbeforeEVA	cond_new_pleas_456_masked_CS2	condtest_masked_2	9	25	400	0	300	300	0	0	333	50	0	1	0	0	0	1	blank2r.bmp	0	1	+	0	8	C4r.bmp	492	1	blank2r.bmp	786	1	GKQX	786	1	blank2r.bmp	866	3	lachen	866	1	!	-1	1	!	-1	0	0	0	0	0	0	0	0	0	0	0	0	0	0	0	0	0	0	0	0	0	0	0	0	0	0	0
013119	13:35:51	13:48:24	752249	5.0.10.0	4_exp_AWA_CON_AMP_EVA	105	Rpleas_acq	Same	Rpleas	Bmasked	CS_B	2pleas	distractor1	CONbeforeEVA	cond_US_pleas_123_masked_CS1	condtest_masked_2	9	26	400	0	300	300	0	0	488	50	0	1	0	0	0	1	blank2r.bmp	0	1	+	0	1	B1r.bmp	492	1	blank2r.bmp	786	1	BMVZ	786	1	blank2r.bmp	866	3	retten	866	1	!	1239	1	!	-1	0	0	0	0	0	0	0	0	0	0	0	0	0	0	0	0	0	0	0	0	0	0	0	0	0	0	0
013119	13:35:51	13:48:26	754355	5.0.10.0	4_exp_AWA_CON_AMP_EVA	105	Rpleas_acq	Same	Rpleas	Bmasked	CS_B	2pleas	distractor1	CONbeforeEVA	cond_US_pleas_123_masked_CS2	condtest_masked_2	9	27	400	0	300	300	0	0	315	50	0	1	0	0	0	1	blank2r.bmp	0	1	+	0	7	C3r.bmp	492	1	blank2r.bmp	786	1	GKQX	786	1	blank2r.bmp	866	1	ehrlich	866	1	!	-1	1	!	-1	0	0	0	0	0	0	0	0	0	0	0	0	0	0	0	0	0	0	0	0	0	0	0	0	0	0	0
013119	13:35:51	13:48:28	756541	5.0.10.0	4_exp_AWA_CON_AMP_EVA	105	Rpleas_acq	Same	Rpleas	Bmasked	CS_B	2pleas	distractor1	CONbeforeEVA	cond_US_pleas_123_masked_CS2	condtest_masked_2	9	28	400	1	300	300	0	0	359	50	0	1	0	0	0	1	blank2r.bmp	0	1	+	0	3	B3r.bmp	492	1	blank2r.bmp	786	1	GKQX	786	1	blank2r.bmp	866	2	loyal	866	1	!	1239	1	!	1266	0	0	0	0	0	0	0	0	0	0	0	0	0	0	0	0	0	0	0	0	0	0	0	0	0	0	0
013119	13:35:51	13:48:30	758633	5.0.10.0	4_exp_AWA_CON_AMP_EVA	105	Rpleas_acq	Same	Rpleas	Bmasked	CS_B	2pleas	distractor1	CONbeforeEVA	cond_new_unple_456_masked_CS1	condtest_masked_2	9	29	400	0	300	300	0	0	325	46	0	1	0	0	0	1	blank2r.bmp	0	1	+	0	7	C3r.bmp	492	1	blank2r.bmp	786	1	BMVZ	786	1	blank2r.bmp	866	1	strafen	866	1	!	-1	1	!	-1	0	0	0	0	0	0	0	0	0	0	0	0	0	0	0	0	0	0	0	0	0	0	0	0	0	0	0
013119	13:35:51	13:48:33	760832	5.0.10.0	4_exp_AWA_CON_AMP_EVA	105	Rpleas_acq	Same	Rpleas	Bmasked	CS_B	2pleas	distractor1	CONbeforeEVA	cond_US_pleas_123_masked_CS2	condtest_masked_2	9	30	400	1	300	300	0	0	392	50	0	1	0	0	0	1	blank2r.bmp	0	1	+	0	4	B4r.bmp	492	1	blank2r.bmp	786	1	GKQX	786	1	blank2r.bmp	866	3	retten	866	1	!	1239	1	!	1292	0	0	0	0	0	0	0	0	0	0	0	0	0	0	0	0	0	0	0	0	0	0	0	0	0	0	0
013119	13:35:51	13:48:35	763538	5.0.10.0	4_exp_AWA_CON_AMP_EVA	105	Rpleas_acq	Same	Rpleas	Bmasked	CS_B	2pleas	distractor1	CONbeforeEVA	cond_new_unple_456_masked_CS2	condtest_masked_2	9	31	400	0	300	300	0	0	934	46	0	1	0	0	0	1	blank2r.bmp	0	1	+	0	3	B3r.bmp	492	1	blank2r.bmp	786	1	GKQX	786	1	blank2r.bmp	866	2	tot	866	1	!	1239	1	!	-1	0	0	0	0	0	0	0	0	0	0	0	0	0	0	0	0	0	0	0	0	0	0	0	0	0	0	0
013119	13:35:51	13:48:38	765790	5.0.10.0	4_exp_AWA_CON_AMP_EVA	105	Rpleas_acq	Same	Rpleas	Bmasked	CS_B	2pleas	distractor1	CONbeforeEVA	cond_new_unple_456_masked_CS1	condtest_masked_2	9	32	400	1	300	300	0	0	444	50	0	0	0	0	0	1	blank2r.bmp	0	1	+	0	2	B2r.bmp	492	1	blank2r.bmp	786	1	BMVZ	786	1	blank2r.bmp	866	3	leiden	866	1	!	1239	1	!	1346	0	0	0	0	0	0	0	0	0	0	0	0	0	0	0	0	0	0	0	0	0	0	0	0	0	0	0
013119	13:35:51	13:48:40	768123	5.0.10.0	4_exp_AWA_CON_AMP_EVA	105	Rpleas_acq	Same	Rpleas	Bmasked	CS_B	2pleas	distractor1	CONbeforeEVA	cond_US_unple_123_masked_CS2	condtest_masked_2	9	33	400	0	300	300	0	0	563	50	0	0	0	0	0	1	blank2r.bmp	0	1	+	0	8	C4r.bmp	492	1	blank2r.bmp	786	1	GKQX	786	1	blank2r.bmp	866	2	lasch	866	1	!	1239	1	!	-1	0	0	0	0	0	0	0	0	0	0	0	0	0	0	0	0	0	0	0	0	0	0	0	0	0	0	0
013119	13:35:51	13:48:42	770335	5.0.10.0	4_exp_AWA_CON_AMP_EVA	105	Rpleas_acq	Same	Rpleas	Bmasked	CS_B	2pleas	distractor1	CONbeforeEVA	cond_US_pleas_123_masked_CS2	condtest_masked_2	9	34	400	1	300	300	0	0	408	50	0	1	0	0	0	1	blank2r.bmp	0	1	+	0	1	B1r.bmp	492	1	blank2r.bmp	786	1	GKQX	786	1	blank2r.bmp	866	1	ehrlich	866	1	!	1239	1	!	1306	0	0	0	0	0	0	0	0	0	0	0	0	0	0	0	0	0	0	0	0	0	0	0	0	0	0	0
013119	13:35:51	13:48:44	772481	5.0.10.0	4_exp_AWA_CON_AMP_EVA	105	Rpleas_acq	Same	Rpleas	Bmasked	CS_B	2pleas	distractor1	CONbeforeEVA	cond_new_unple_456_masked_CS2	condtest_masked_2	9	35	400	1	300	300	0	0	353	50	0	0	0	0	0	1	blank2r.bmp	0	1	+	0	5	C1r.bmp	492	1	blank2r.bmp	786	1	GKQX	786	1	blank2r.bmp	866	1	strafen	866	1	!	1239	1	!	1252	0	0	0	0	0	0	0	0	0	0	0	0	0	0	0	0	0	0	0	0	0	0	0	0	0	0	0
013119	13:35:51	13:48:47	774747	5.0.10.0	4_exp_AWA_CON_AMP_EVA	105	Rpleas_acq	Same	Rpleas	Bmasked	CS_B	2pleas	distractor1	CONbeforeEVA	cond_new_pleas_456_masked_CS1	condtest_masked_2	9	36	400	0	300	300	0	0	479	50	0	1	0	0	0	1	blank2r.bmp	0	1	+	0	6	C2r.bmp	492	1	blank2r.bmp	786	1	BMVZ	786	1	blank2r.bmp	866	3	lachen	866	1	!	1239	1	!	-1	0	0	0	0	0	0	0	0	0	0	0	0	0	0	0	0	0	0	0	0	0	0	0	0	0	0	0
013119	13:35:51	13:48:49	776999	5.0.10.0	4_exp_AWA_CON_AMP_EVA	105	Rpleas_acq	Same	Rpleas	Bmasked	CS_B	2pleas	distractor1	CONbeforeEVA	cond_new_pleas_456_masked_CS1	condtest_masked_2	9	37	400	1	300	300	0	0	441	50	0	1	0	0	0	1	blank2r.bmp	0	1	+	0	5	C1r.bmp	492	1	blank2r.bmp	786	1	BMVZ	786	1	blank2r.bmp	866	2	treu	866	1	!	1239	1	!	1346	0	0	0	0	0	0	0	0	0	0	0	0	0	0	0	0	0	0	0	0	0	0	0	0	0	0	0
013119	13:35:51	13:48:51	779251	5.0.10.0	4_exp_AWA_CON_AMP_EVA	105	Rpleas_acq	Same	Rpleas	Bmasked	CS_B	2pleas	distractor1	CONbeforeEVA	cond_new_pleas_456_masked_CS1	condtest_masked_2	9	38	400	1	300	300	0	0	459	50	0	1	0	0	0	1	blank2r.bmp	0	1	+	0	2	B2r.bmp	492	1	blank2r.bmp	786	1	BMVZ	786	1	blank2r.bmp	866	1	spielen	866	1	!	1239	1	!	1359	0	0	0	0	0	0	0	0	0	0	0	0	0	0	0	0	0	0	0	0	0	0	0	0	0	0	0
013119	13:35:51	13:48:54	781650	5.0.10.0	4_exp_AWA_CON_AMP_EVA	105	Rpleas_acq	Same	Rpleas	Bmasked	CS_B	2pleas	distractor1	CONbeforeEVA	cond_US_pleas_123_masked_CS1	condtest_masked_2	9	39	400	0	300	300	0	0	612	50	0	1	0	0	0	1	blank2r.bmp	0	1	+	0	1	B1r.bmp	492	1	blank2r.bmp	786	1	BMVZ	786	1	blank2r.bmp	866	2	loyal	866	1	!	1239	1	!	-1	0	0	0	0	0	0	0	0	0	0	0	0	0	0	0	0	0	0	0	0	0	0	0	0	0	0	0
013119	13:35:51	13:48:56	783756	5.0.10.0	4_exp_AWA_CON_AMP_EVA	105	Rpleas_acq	Same	Rpleas	Bmasked	CS_B	2pleas	distractor1	CONbeforeEVA	cond_US_unple_123_masked_CS1	condtest_masked_2	9	40	400	0	300	300	0	0	325	50	0	0	0	0	0	1	blank2r.bmp	0	1	+	0	3	B3r.bmp	492	1	blank2r.bmp	786	1	BMVZ	786	1	blank2r.bmp	866	1	eitel	866	1	!	-1	1	!	-1	0	0	0	0	0	0	0	0	0	0	0	0	0	0	0	0	0	0	0	0	0	0	0	0	0	0	0
013119	13:35:51	13:49:03	790873	5.0.10.0	4_exp_AWA_CON_AMP_EVA	105	Rpleas_acq	Same	Rpleas	Bmasked	CS_B	2pleas	distractor1	CONbeforeEVA	cond_US_pleas_456_masked_CS2	condtest_masked_3	10	1	400	1	300	300	0	0	428	50	0	1	0	0	0	1	blank2r.bmp	0	1	+	0	7	C3r.bmp	492	1	blank2r.bmp	786	1	GKQX	786	1	blank2r.bmp	866	2	schlau	866	1	!	1239	1	!	1332	0	0	0	0	0	0	0	0	0	0	0	0	0	0	0	0	0	0	0	0	0	0	0	0	0	0	0
013119	13:35:51	13:49:05	793139	5.0.10.0	4_exp_AWA_CON_AMP_EVA	105	Rpleas_acq	Same	Rpleas	Bmasked	CS_B	2pleas	distractor1	CONbeforeEVA	cond_US_unple_456_masked_CS1	condtest_masked_3	10	2	400	0	300	300	0	0	479	50	0	0	0	0	0	1	blank2r.bmp	0	1	+	0	8	C4r.bmp	492	1	blank2r.bmp	786	1	BMVZ	786	1	blank2r.bmp	866	2	schroff	866	1	!	1239	1	!	-1	0	0	0	0	0	0	0	0	0	0	0	0	0	0	0	0	0	0	0	0	0	0	0	0	0	0	0
013119	13:35:51	13:49:07	795365	5.0.10.0	4_exp_AWA_CON_AMP_EVA	105	Rpleas_acq	Same	Rpleas	Bmasked	CS_B	2pleas	distractor1	CONbeforeEVA	cond_US_pleas_456_masked_CS1	condtest_masked_3	10	3	400	1	300	300	0	0	417	50	0	1	0	0	0	1	blank2r.bmp	0	1	+	0	6	C2r.bmp	492	1	blank2r.bmp	786	1	BMVZ	786	1	blank2r.bmp	866	1	fair	866	1	!	1239	1	!	1319	0	0	0	0	0	0	0	0	0	0	0	0	0	0	0	0	0	0	0	0	0	0	0	0	0	0	0
013119	13:35:51	13:49:09	797604	5.0.10.0	4_exp_AWA_CON_AMP_EVA	105	Rpleas_acq	Same	Rpleas	Bmasked	CS_B	2pleas	distractor1	CONbeforeEVA	cond_US_unple_456_masked_CS1	condtest_masked_3	10	4	400	1	300	300	0	0	429	46	0	1	0	0	0	1	blank2r.bmp	0	1	+	0	4	B4r.bmp	492	1	blank2r.bmp	786	1	BMVZ	786	1	blank2r.bmp	866	3	tyrannisch	866	1	!	1239	1	!	1332	0	0	0	0	0	0	0	0	0	0	0	0	0	0	0	0	0	0	0	0	0	0	0	0	0	0	0
013119	13:35:51	13:49:12	799843	5.0.10.0	4_exp_AWA_CON_AMP_EVA	105	Rpleas_acq	Same	Rpleas	Bmasked	CS_B	2pleas	distractor1	CONbeforeEVA	cond_US_unple_456_masked_CS2	condtest_masked_3	10	5	400	1	300	300	0	0	439	46	0	1	0	0	0	1	blank2r.bmp	0	1	+	0	1	B1r.bmp	492	1	blank2r.bmp	786	1	GKQX	786	1	blank2r.bmp	866	1	faul	866	1	!	1239	1	!	1346	0	0	0	0	0	0	0	0	0	0	0	0	0	0	0	0	0	0	0	0	0	0	0	0	0	0	0
013119	13:35:51	13:49:14	802055	5.0.10.0	4_exp_AWA_CON_AMP_EVA	105	Rpleas_acq	Same	Rpleas	Bmasked	CS_B	2pleas	distractor1	CONbeforeEVA	cond_US_unple_456_masked_CS2	condtest_masked_3	10	6	400	1	300	300	0	0	403	46	0	1	0	0	0	1	blank2r.bmp	0	1	+	0	5	C1r.bmp	492	1	blank2r.bmp	786	1	GKQX	786	1	blank2r.bmp	866	1	faul	866	1	!	1239	1	!	1306	0	0	0	0	0	0	0	0	0	0	0	0	0	0	0	0	0	0	0	0	0	0	0	0	0	0	0
013119	13:35:51	13:49:16	804268	5.0.10.0	4_exp_AWA_CON_AMP_EVA	105	Rpleas_acq	Same	Rpleas	Bmasked	CS_B	2pleas	distractor1	CONbeforeEVA	cond_new_unple_123_masked_CS2	condtest_masked_3	10	7	400	1	300	300	0	0	421	50	0	0	0	0	0	1	blank2r.bmp	0	1	+	0	4	B4r.bmp	492	1	blank2r.bmp	786	1	GKQX	786	1	blank2r.bmp	866	3	hindern	866	1	!	1239	1	!	1319	0	0	0	0	0	0	0	0	0	0	0	0	0	0	0	0	0	0	0	0	0	0	0	0	0	0	0
013119	13:35:51	13:49:18	806494	5.0.10.0	4_exp_AWA_CON_AMP_EVA	105	Rpleas_acq	Same	Rpleas	Bmasked	CS_B	2pleas	distractor1	CONbeforeEVA	cond_US_pleas_456_masked_CS2	condtest_masked_3	10	8	400	1	300	300	0	0	434	50	0	1	0	0	0	1	blank2r.bmp	0	1	+	0	2	B2r.bmp	492	1	blank2r.bmp	786	1	GKQX	786	1	blank2r.bmp	866	3	tolerant	866	1	!	1239	1	!	1332	0	0	0	0	0	0	0	0	0	0	0	0	0	0	0	0	0	0	0	0	0	0	0	0	0	0	0
013119	13:35:51	13:49:21	808706	5.0.10.0	4_exp_AWA_CON_AMP_EVA	105	Rpleas_acq	Same	Rpleas	Bmasked	CS_B	2pleas	distractor1	CONbeforeEVA	cond_US_unple_456_masked_CS1	condtest_masked_3	10	9	400	1	300	300	0	0	421	46	0	1	0	0	0	1	blank2r.bmp	0	1	+	0	3	B3r.bmp	492	1	blank2r.bmp	786	1	BMVZ	786	1	blank2r.bmp	866	3	tyrannisch	866	1	!	1239	1	!	1319	0	0	0	0	0	0	0	0	0	0	0	0	0	0	0	0	0	0	0	0	0	0	0	0	0	0	0
013119	13:35:51	13:49:23	810918	5.0.10.0	4_exp_AWA_CON_AMP_EVA	105	Rpleas_acq	Same	Rpleas	Bmasked	CS_B	2pleas	distractor1	CONbeforeEVA	cond_US_unple_456_masked_CS1	condtest_masked_3	10	10	400	1	300	300	0	0	422	50	0	0	0	0	0	1	blank2r.bmp	0	1	+	0	6	C2r.bmp	492	1	blank2r.bmp	786	1	BMVZ	786	1	blank2r.bmp	866	2	schroff	866	1	!	1239	1	!	1319	0	0	0	0	0	0	0	0	0	0	0	0	0	0	0	0	0	0	0	0	0	0	0	0	0	0	0
013119	13:35:51	13:49:25	813118	5.0.10.0	4_exp_AWA_CON_AMP_EVA	105	Rpleas_acq	Same	Rpleas	Bmasked	CS_B	2pleas	distractor1	CONbeforeEVA	cond_new_unple_123_masked_CS1	condtest_masked_3	10	11	400	1	300	300	0	0	387	46	0	1	0	0	0	1	blank2r.bmp	0	1	+	0	7	C3r.bmp	492	1	blank2r.bmp	786	1	BMVZ	786	1	blank2r.bmp	866	1	schlecht	866	1	!	1239	1	!	1292	0	0	0	0	0	0	0	0	0	0	0	0	0	0	0	0	0	0	0	0	0	0	0	0	0	0	0
013119	13:35:51	13:49:27	815383	5.0.10.0	4_exp_AWA_CON_AMP_EVA	105	Rpleas_acq	Same	Rpleas	Bmasked	CS_B	2pleas	distractor1	CONbeforeEVA	cond_US_unple_456_masked_CS2	condtest_masked_3	10	12	400	0	300	300	0	0	479	50	0	0	0	0	0	1	blank2r.bmp	0	1	+	0	8	C4r.bmp	492	1	blank2r.bmp	786	1	GKQX	786	1	blank2r.bmp	866	1	faul	866	1	!	1239	1	!	-1	0	0	0	0	0	0	0	0	0	0	0	0	0	0	0	0	0	0	0	0	0	0	0	0	0	0	0
013119	13:35:51	13:49:29	817609	5.0.10.0	4_exp_AWA_CON_AMP_EVA	105	Rpleas_acq	Same	Rpleas	Bmasked	CS_B	2pleas	distractor1	CONbeforeEVA	cond_new_unple_123_masked_CS2	condtest_masked_3	10	13	400	1	300	300	0	0	400	46	0	1	0	0	0	1	blank2r.bmp	0	1	+	0	3	B3r.bmp	492	1	blank2r.bmp	786	1	GKQX	786	1	blank2r.bmp	866	2	fanatisch	866	1	!	1239	1	!	1306	0	0	0	0	0	0	0	0	0	0	0	0	0	0	0	0	0	0	0	0	0	0	0	0	0	0	0
013119	13:35:51	13:49:32	819861	5.0.10.0	4_exp_AWA_CON_AMP_EVA	105	Rpleas_acq	Same	Rpleas	Bmasked	CS_B	2pleas	distractor1	CONbeforeEVA	cond_US_pleas_456_masked_CS2	condtest_masked_3	10	14	400	1	300	300	0	0	451	50	0	1	0	0	0	1	blank2r.bmp	0	1	+	0	8	C4r.bmp	492	1	blank2r.bmp	786	1	GKQX	786	1	blank2r.bmp	866	2	schlau	866	1	!	1239	1	!	1346	0	0	0	0	0	0	0	0	0	0	0	0	0	0	0	0	0	0	0	0	0	0	0	0	0	0	0
013119	13:35:51	13:49:34	822127	5.0.10.0	4_exp_AWA_CON_AMP_EVA	105	Rpleas_acq	Same	Rpleas	Bmasked	CS_B	2pleas	distractor1	CONbeforeEVA	cond_new_unple_123_masked_CS2	condtest_masked_3	10	15	400	0	300	300	0	0	494	50	0	0	0	0	0	1	blank2r.bmp	0	1	+	0	6	C2r.bmp	492	1	blank2r.bmp	786	1	GKQX	786	1	blank2r.bmp	866	1	schlecht	866	1	!	1239	1	!	-1	0	0	0	0	0	0	0	0	0	0	0	0	0	0	0	0	0	0	0	0	0	0	0	0	0	0	0
013119	13:35:51	13:49:36	824393	5.0.10.0	4_exp_AWA_CON_AMP_EVA	105	Rpleas_acq	Same	Rpleas	Bmasked	CS_B	2pleas	distractor1	CONbeforeEVA	cond_US_unple_456_masked_CS2	condtest_masked_3	10	16	400	1	300	300	0	0	455	50	0	0	0	0	0	1	blank2r.bmp	0	1	+	0	1	B1r.bmp	492	1	blank2r.bmp	786	1	GKQX	786	1	blank2r.bmp	866	3	tyrannisch	866	1	!	1239	1	!	1359	0	0	0	0	0	0	0	0	0	0	0	0	0	0	0	0	0	0	0	0	0	0	0	0	0	0	0
013119	13:35:51	13:49:38	826605	5.0.10.0	4_exp_AWA_CON_AMP_EVA	105	Rpleas_acq	Same	Rpleas	Bmasked	CS_B	2pleas	distractor1	CONbeforeEVA	cond_new_pleas_123_masked_CS2	condtest_masked_3	10	17	400	1	300	300	0	0	423	50	0	1	0	0	0	1	blank2r.bmp	0	1	+	0	7	C3r.bmp	492	1	blank2r.bmp	786	1	GKQX	786	1	blank2r.bmp	866	3	helfen	866	1	!	1239	1	!	1319	0	0	0	0	0	0	0	0	0	0	0	0	0	0	0	0	0	0	0	0	0	0	0	0	0	0	0
013119	13:35:51	13:49:41	828844	5.0.10.0	4_exp_AWA_CON_AMP_EVA	105	Rpleas_acq	Same	Rpleas	Bmasked	CS_B	2pleas	distractor1	CONbeforeEVA	cond_new_pleas_123_masked_CS1	condtest_masked_3	10	18	400	1	300	300	0	0	444	46	0	0	0	0	0	1	blank2r.bmp	0	1	+	0	5	C1r.bmp	492	1	blank2r.bmp	786	1	BMVZ	786	1	blank2r.bmp	866	2	freundlich	866	1	!	1239	1	!	1346	0	0	0	0	0	0	0	0	0	0	0	0	0	0	0	0	0	0	0	0	0	0	0	0	0	0	0
013119	13:35:51	13:49:43	831097	5.0.10.0	4_exp_AWA_CON_AMP_EVA	105	Rpleas_acq	Same	Rpleas	Bmasked	CS_B	2pleas	distractor1	CONbeforeEVA	cond_new_unple_123_masked_CS1	condtest_masked_3	10	19	400	1	300	300	0	0	462	46	0	1	0	0	0	1	blank2r.bmp	0	1	+	0	4	B4r.bmp	492	1	blank2r.bmp	786	1	BMVZ	786	1	blank2r.bmp	866	2	fanatisch	866	1	!	1239	1	!	1359	0	0	0	0	0	0	0	0	0	0	0	0	0	0	0	0	0	0	0	0	0	0	0	0	0	0	0
013119	13:35:51	13:49:45	833296	5.0.10.0	4_exp_AWA_CON_AMP_EVA	105	Rpleas_acq	Same	Rpleas	Bmasked	CS_B	2pleas	distractor1	CONbeforeEVA	cond_new_pleas_123_masked_CS1	condtest_masked_3	10	20	400	1	300	300	0	0	401	50	0	1	0	0	0	1	blank2r.bmp	0	1	+	0	2	B2r.bmp	492	1	blank2r.bmp	786	1	BMVZ	786	1	blank2r.bmp	866	1	schön	866	1	!	1239	1	!	1306	0	0	0	0	0	0	0	0	0	0	0	0	0	0	0	0	0	0	0	0	0	0	0	0	0	0	0
013119	13:35:51	13:49:47	835522	5.0.10.0	4_exp_AWA_CON_AMP_EVA	105	Rpleas_acq	Same	Rpleas	Bmasked	CS_B	2pleas	distractor1	CONbeforeEVA	cond_US_pleas_456_masked_CS1	condtest_masked_3	10	21	400	1	300	300	0	0	435	50	0	1	0	0	0	1	blank2r.bmp	0	1	+	0	4	B4r.bmp	492	1	blank2r.bmp	786	1	BMVZ	786	1	blank2r.bmp	866	3	tolerant	866	1	!	1239	1	!	1332	0	0	0	0	0	0	0	0	0	0	0	0	0	0	0	0	0	0	0	0	0	0	0	0	0	0	0
013119	13:35:51	13:49:50	837774	5.0.10.0	4_exp_AWA_CON_AMP_EVA	105	Rpleas_acq	Same	Rpleas	Bmasked	CS_B	2pleas	distractor1	CONbeforeEVA	cond_US_unple_456_masked_CS2	condtest_masked_3	10	22	400	0	300	300	0	0	488	50	0	0	0	0	0	1	blank2r.bmp	0	1	+	0	5	C1r.bmp	492	1	blank2r.bmp	786	1	GKQX	786	1	blank2r.bmp	866	2	schroff	866	1	!	1239	1	!	-1	0	0	0	0	0	0	0	0	0	0	0	0	0	0	0	0	0	0	0	0	0	0	0	0	0	0	0
013119	13:35:51	13:49:52	839986	5.0.10.0	4_exp_AWA_CON_AMP_EVA	105	Rpleas_acq	Same	Rpleas	Bmasked	CS_B	2pleas	distractor1	CONbeforeEVA	cond_new_unple_123_masked_CS2	condtest_masked_3	10	23	400	1	300	300	0	0	402	50	0	0	0	0	0	1	blank2r.bmp	0	1	+	0	1	B1r.bmp	492	1	blank2r.bmp	786	1	GKQX	786	1	blank2r.bmp	866	3	hindern	866	1	!	1239	1	!	1306	0	0	0	0	0	0	0	0	0	0	0	0	0	0	0	0	0	0	0	0	0	0	0	0	0	0	0
013119	13:35:51	13:49:54	842239	5.0.10.0	4_exp_AWA_CON_AMP_EVA	105	Rpleas_acq	Same	Rpleas	Bmasked	CS_B	2pleas	distractor1	CONbeforeEVA	cond_new_unple_123_masked_CS1	condtest_masked_3	10	24	400	1	300	300	0	0	460	50	0	0	0	0	0	1	blank2r.bmp	0	1	+	0	7	C3r.bmp	492	1	blank2r.bmp	786	1	BMVZ	786	1	blank2r.bmp	866	2	fanatisch	866	1	!	1239	1	!	1359	0	0	0	0	0	0	0	0	0	0	0	0	0	0	0	0	0	0	0	0	0	0	0	0	0	0	0
013119	13:35:51	13:49:56	844505	5.0.10.0	4_exp_AWA_CON_AMP_EVA	105	Rpleas_acq	Same	Rpleas	Bmasked	CS_B	2pleas	distractor1	CONbeforeEVA	cond_new_pleas_123_masked_CS2	condtest_masked_3	10	25	400	0	300	300	0	0	499	50	0	1	0	0	0	1	blank2r.bmp	0	1	+	0	2	B2r.bmp	492	1	blank2r.bmp	786	1	GKQX	786	1	blank2r.bmp	866	3	helfen	866	1	!	1239	1	!	-1	0	0	0	0	0	0	0	0	0	0	0	0	0	0	0	0	0	0	0	0	0	0	0	0	0	0	0
013119	13:35:51	13:49:59	846770	5.0.10.0	4_exp_AWA_CON_AMP_EVA	105	Rpleas_acq	Same	Rpleas	Bmasked	CS_B	2pleas	distractor1	CONbeforeEVA	cond_US_pleas_456_masked_CS2	condtest_masked_3	10	26	400	0	300	300	0	0	479	50	0	1	0	0	0	1	blank2r.bmp	0	1	+	0	3	B3r.bmp	492	1	blank2r.bmp	786	1	GKQX	786	1	blank2r.bmp	866	1	fair	866	1	!	1239	1	!	-1	0	0	0	0	0	0	0	0	0	0	0	0	0	0	0	0	0	0	0	0	0	0	0	0	0	0	0
013119	13:35:51	13:50:01	849049	5.0.10.0	4_exp_AWA_CON_AMP_EVA	105	Rpleas_acq	Same	Rpleas	Bmasked	CS_B	2pleas	distractor1	CONbeforeEVA	cond_US_unple_456_masked_CS1	condtest_masked_3	10	27	400	1	300	300	0	0	456	50	0	0	0	0	0	1	blank2r.bmp	0	1	+	0	8	C4r.bmp	492	1	blank2r.bmp	786	1	BMVZ	786	1	blank2r.bmp	866	1	faul	866	1	!	1239	1	!	1359	0	0	0	0	0	0	0	0	0	0	0	0	0	0	0	0	0	0	0	0	0	0	0	0	0	0	0
013119	13:35:51	13:50:03	851262	5.0.10.0	4_exp_AWA_CON_AMP_EVA	105	Rpleas_acq	Same	Rpleas	Bmasked	CS_B	2pleas	distractor1	CONbeforeEVA	cond_new_pleas_123_masked_CS2	condtest_masked_3	10	28	400	1	300	300	0	0	414	50	0	1	0	0	0	1	blank2r.bmp	0	1	+	0	6	C2r.bmp	492	1	blank2r.bmp	786	1	GKQX	786	1	blank2r.bmp	866	2	freundlich	866	1	!	1239	1	!	1319	0	0	0	0	0	0	0	0	0	0	0	0	0	0	0	0	0	0	0	0	0	0	0	0	0	0	0
013119	13:35:51	13:50:05	853448	5.0.10.0	4_exp_AWA_CON_AMP_EVA	105	Rpleas_acq	Same	Rpleas	Bmasked	CS_B	2pleas	distractor1	CONbeforeEVA	cond_new_pleas_123_masked_CS1	condtest_masked_3	10	29	400	1	300	300	0	0	396	50	0	1	0	0	0	1	blank2r.bmp	0	1	+	0	5	C1r.bmp	492	1	blank2r.bmp	786	1	BMVZ	786	1	blank2r.bmp	866	1	schön	866	1	!	1239	1	!	1292	0	0	0	0	0	0	0	0	0	0	0	0	0	0	0	0	0	0	0	0	0	0	0	0	0	0	0
013119	13:35:51	13:50:08	855660	5.0.10.0	4_exp_AWA_CON_AMP_EVA	105	Rpleas_acq	Same	Rpleas	Bmasked	CS_B	2pleas	distractor1	CONbeforeEVA	cond_US_pleas_456_masked_CS1	condtest_masked_3	10	30	400	1	300	300	0	0	414	50	0	1	0	0	0	1	blank2r.bmp	0	1	+	0	7	C3r.bmp	492	1	blank2r.bmp	786	1	BMVZ	786	1	blank2r.bmp	866	2	schlau	866	1	!	1239	1	!	1319	0	0	0	0	0	0	0	0	0	0	0	0	0	0	0	0	0	0	0	0	0	0	0	0	0	0	0
013119	13:35:51	13:50:10	858459	5.0.10.0	4_exp_AWA_CON_AMP_EVA	105	Rpleas_acq	Same	Rpleas	Bmasked	CS_B	2pleas	distractor1	CONbeforeEVA	cond_US_unple_456_masked_CS2	condtest_masked_3	10	31	400	0	300	300	0	0	1018	46	0	1	0	0	0	1	blank2r.bmp	0	1	+	0	2	B2r.bmp	492	1	blank2r.bmp	786	1	GKQX	786	1	blank2r.bmp	866	2	schroff	866	1	!	1239	1	!	-1	0	0	0	0	0	0	0	0	0	0	0	0	0	0	0	0	0	0	0	0	0	0	0	0	0	0	0
