date	time	script.currenttime	script.elapsedtime	build	script.currentexpt	subject	expressions.LRpleas_acq	expressions.SameOppo	expressions.condition_Lpleas	expressions.ABmasked	expressions.conditionCS_A	expressions.condition_1pleas	expressions.condition_distractor_AMP	expressions.AWACON_AMPEVA_first	trialcode	blockcode	blocknum	trialnum	windowcenter	inwindow	pretrialpause	posttrialpause	trialduration	trialtimeout	latency	response	expressions.correctedscore	correct	values.vis_performance	values.vis_rating_sum	values.vis_rating_mean	stimulusnumber1	stimulusitem1	stimulusonset1	stimulusnumber2	stimulusitem2	stimulusonset2	stimulusnumber3	stimulusitem3	stimulusonset3	stimulusnumber4	stimulusitem4	stimulusonset4	stimulusnumber5	stimulusitem5	stimulusonset5	stimulusnumber6	stimulusitem6	stimulusonset6	stimulusnumber7	stimulusitem7	stimulusonset7	stimulusnumber8	stimulusitem8	stimulusonset8	stimulusnumber9	stimulusitem9	stimulusonset9	stimulusnumber10	stimulusitem10	stimulusonset10	stimulusnumber11	stimulusitem11	stimulusonset11	stimulusnumber12	stimulusitem12	stimulusonset12	stimulusnumber13	stimulusitem13	stimulusonset13	stimulusnumber14	stimulusitem14	stimulusonset14	stimulusnumber15	stimulusitem15	stimulusonset15	stimulusnumber16	stimulusitem16	stimulusonset16	stimulusnumber17	stimulusitem17	stimulusonset17	stimulusnumber18	stimulusitem18	stimulusonset18
012919	13:44:35	13:47:29	173046	5.0.10.0	4_exp_AMP_EVA_AWA_CON	96	Rpleas_acq	Oppo	Rpleas	Bmasked	CS_B	2pleas	distractor2	EVAbeforeCON	acq_US_unple_masked	acq1_masked	1	1	0	0	300	300	0	0	4683	46	0	1	0	0	0	1	blank2r.bmp	0	1	+	0	7	C3r.bmp	492	1	blank2r.bmp	786	1	BMVZ	786	1	blank2r.bmp	866	4	tyrannisch	866	0	0	0	0	0	0	0	0	0	0	0	0	0	0	0	0	0	0	0	0	0	0	0	0	0	0	0	0	0	0	0	0	0
012919	13:44:35	13:47:32	175699	5.0.10.0	4_exp_AMP_EVA_AWA_CON	96	Rpleas_acq	Oppo	Rpleas	Bmasked	CS_B	2pleas	distractor2	EVAbeforeCON	acq_new_unple_masked	acq1_masked	1	2	0	0	300	300	0	0	958	50	0	0	0	0	0	1	blank2r.bmp	0	1	+	0	8	C4r.bmp	492	1	blank2r.bmp	786	4	B4r.bmp	786	1	blank2r.bmp	866	5	fanatisch	866	1	FEHLER	1865	0	0	0	0	0	0	0	0	0	0	0	0	0	0	0	0	0	0	0	0	0	0	0	0	0	0	0	0	0	0
012919	13:44:35	13:47:34	177778	5.0.10.0	4_exp_AMP_EVA_AWA_CON	96	Rpleas_acq	Oppo	Rpleas	Bmasked	CS_B	2pleas	distractor2	EVAbeforeCON	acq_US_unple_masked	acq1_masked	1	3	0	0	300	300	0	0	816	46	0	1	0	0	0	1	blank2r.bmp	0	1	+	0	1	B1r.bmp	492	1	blank2r.bmp	786	1	BMVZ	786	1	blank2r.bmp	866	3	rächen	866	0	0	0	0	0	0	0	0	0	0	0	0	0	0	0	0	0	0	0	0	0	0	0	0	0	0	0	0	0	0	0	0	0
012919	13:44:35	13:47:36	180044	5.0.10.0	4_exp_AMP_EVA_AWA_CON	96	Rpleas_acq	Oppo	Rpleas	Bmasked	CS_B	2pleas	distractor2	EVAbeforeCON	acq_new_pleas_masked	acq1_masked	1	4	0	0	300	300	0	0	797	50	0	1	0	0	0	1	blank2r.bmp	0	1	+	0	5	C1r.bmp	492	1	blank2r.bmp	786	2	B2r.bmp	786	1	blank2r.bmp	866	1	lachen	866	0	0	0	0	0	0	0	0	0	0	0	0	0	0	0	0	0	0	0	0	0	0	0	0	0	0	0	0	0	0	0	0	0
012919	13:44:35	13:47:38	182323	5.0.10.0	4_exp_AMP_EVA_AWA_CON	96	Rpleas_acq	Oppo	Rpleas	Bmasked	CS_B	2pleas	distractor2	EVAbeforeCON	acq_new_pleas_masked	acq1_masked	1	5	0	0	300	300	0	0	790	50	0	1	0	0	0	1	blank2r.bmp	0	1	+	0	3	B3r.bmp	492	1	blank2r.bmp	786	1	B1r.bmp	786	1	blank2r.bmp	866	3	treu	866	0	0	0	0	0	0	0	0	0	0	0	0	0	0	0	0	0	0	0	0	0	0	0	0	0	0	0	0	0	0	0	0	0
012919	13:44:35	13:47:41	184428	5.0.10.0	4_exp_AMP_EVA_AWA_CON	96	Rpleas_acq	Oppo	Rpleas	Bmasked	CS_B	2pleas	distractor2	EVAbeforeCON	acq_US_pleas_masked	acq1_masked	1	6	0	0	300	300	0	0	613	50	0	1	0	0	0	1	blank2r.bmp	0	1	+	0	2	B2r.bmp	492	1	blank2r.bmp	786	1	GKQX	786	1	blank2r.bmp	866	6	schlau	866	0	0	0	0	0	0	0	0	0	0	0	0	0	0	0	0	0	0	0	0	0	0	0	0	0	0	0	0	0	0	0	0	0
012919	13:44:35	13:47:43	186521	5.0.10.0	4_exp_AMP_EVA_AWA_CON	96	Rpleas_acq	Oppo	Rpleas	Bmasked	CS_B	2pleas	distractor2	EVAbeforeCON	acq_US_pleas_masked	acq1_masked	1	7	0	0	300	300	0	0	613	50	0	1	0	0	0	1	blank2r.bmp	0	1	+	0	4	B4r.bmp	492	1	blank2r.bmp	786	1	GKQX	786	1	blank2r.bmp	866	1	loyal	866	0	0	0	0	0	0	0	0	0	0	0	0	0	0	0	0	0	0	0	0	0	0	0	0	0	0	0	0	0	0	0	0	0
012919	13:44:35	13:47:45	188707	5.0.10.0	4_exp_AMP_EVA_AWA_CON	96	Rpleas_acq	Oppo	Rpleas	Bmasked	CS_B	2pleas	distractor2	EVAbeforeCON	acq_US_unple_masked	acq1_masked	1	8	0	0	300	300	0	0	698	46	0	1	0	0	0	1	blank2r.bmp	0	1	+	0	6	C2r.bmp	492	1	blank2r.bmp	786	1	BMVZ	786	1	blank2r.bmp	866	5	hindern	866	0	0	0	0	0	0	0	0	0	0	0	0	0	0	0	0	0	0	0	0	0	0	0	0	0	0	0	0	0	0	0	0	0
012919	13:44:35	13:47:47	190679	5.0.10.0	4_exp_AMP_EVA_AWA_CON	96	Rpleas_acq	Oppo	Rpleas	Bmasked	CS_B	2pleas	distractor2	EVAbeforeCON	acq_new_pleas_masked	acq1_masked	1	9	0	0	300	300	0	0	486	50	0	1	0	0	0	1	blank2r.bmp	0	1	+	0	8	C4r.bmp	492	1	blank2r.bmp	786	5	C1r.bmp	786	1	blank2r.bmp	866	4	schön	866	0	0	0	0	0	0	0	0	0	0	0	0	0	0	0	0	0	0	0	0	0	0	0	0	0	0	0	0	0	0	0	0	0
012919	13:44:35	13:47:49	192705	5.0.10.0	4_exp_AMP_EVA_AWA_CON	96	Rpleas_acq	Oppo	Rpleas	Bmasked	CS_B	2pleas	distractor2	EVAbeforeCON	acq_US_pleas_masked	acq1_masked	1	10	0	0	300	300	0	0	536	50	0	1	0	0	0	1	blank2r.bmp	0	1	+	0	4	B4r.bmp	492	1	blank2r.bmp	786	1	GKQX	786	1	blank2r.bmp	866	5	helfen	866	0	0	0	0	0	0	0	0	0	0	0	0	0	0	0	0	0	0	0	0	0	0	0	0	0	0	0	0	0	0	0	0	0
012919	13:44:35	13:47:51	194877	5.0.10.0	4_exp_AMP_EVA_AWA_CON	96	Rpleas_acq	Oppo	Rpleas	Bmasked	CS_B	2pleas	distractor2	EVAbeforeCON	acq_new_unple_masked	acq1_masked	1	11	0	0	300	300	0	0	692	46	0	1	0	0	0	1	blank2r.bmp	0	1	+	0	2	B2r.bmp	492	1	blank2r.bmp	786	7	C3r.bmp	786	1	blank2r.bmp	866	3	tot	866	0	0	0	0	0	0	0	0	0	0	0	0	0	0	0	0	0	0	0	0	0	0	0	0	0	0	0	0	0	0	0	0	0
012919	13:44:35	13:47:53	197090	5.0.10.0	4_exp_AMP_EVA_AWA_CON	96	Rpleas_acq	Oppo	Rpleas	Bmasked	CS_B	2pleas	distractor2	EVAbeforeCON	acq_new_unple_masked	acq1_masked	1	12	0	0	300	300	0	0	525	50	0	0	0	0	0	1	blank2r.bmp	0	1	+	0	1	B1r.bmp	492	1	blank2r.bmp	786	3	B3r.bmp	786	1	blank2r.bmp	866	1	leiden	866	1	FEHLER	1426	0	0	0	0	0	0	0	0	0	0	0	0	0	0	0	0	0	0	0	0	0	0	0	0	0	0	0	0	0	0
012919	13:44:35	13:47:55	199222	5.0.10.0	4_exp_AMP_EVA_AWA_CON	96	Rpleas_acq	Oppo	Rpleas	Bmasked	CS_B	2pleas	distractor2	EVAbeforeCON	acq_new_unple_masked	acq1_masked	1	13	0	0	300	300	0	0	862	46	0	1	0	0	0	1	blank2r.bmp	0	1	+	0	6	C2r.bmp	492	1	blank2r.bmp	786	8	C4r.bmp	786	1	blank2r.bmp	866	2	strafen	866	0	0	0	0	0	0	0	0	0	0	0	0	0	0	0	0	0	0	0	0	0	0	0	0	0	0	0	0	0	0	0	0	0
012919	13:44:35	13:47:57	201341	5.0.10.0	4_exp_AMP_EVA_AWA_CON	96	Rpleas_acq	Oppo	Rpleas	Bmasked	CS_B	2pleas	distractor2	EVAbeforeCON	acq_US_pleas_masked	acq1_masked	1	14	0	0	300	300	0	0	637	50	0	1	0	0	0	1	blank2r.bmp	0	1	+	0	7	C3r.bmp	492	1	blank2r.bmp	786	1	GKQX	786	1	blank2r.bmp	866	3	retten	866	0	0	0	0	0	0	0	0	0	0	0	0	0	0	0	0	0	0	0	0	0	0	0	0	0	0	0	0	0	0	0	0	0
012919	13:44:35	13:48:00	203554	5.0.10.0	4_exp_AMP_EVA_AWA_CON	96	Rpleas_acq	Oppo	Rpleas	Bmasked	CS_B	2pleas	distractor2	EVAbeforeCON	acq_US_pleas_masked	acq1_masked	1	15	0	0	300	300	0	0	720	50	0	1	0	0	0	1	blank2r.bmp	0	1	+	0	3	B3r.bmp	492	1	blank2r.bmp	786	1	GKQX	786	1	blank2r.bmp	866	4	tolerant	866	0	0	0	0	0	0	0	0	0	0	0	0	0	0	0	0	0	0	0	0	0	0	0	0	0	0	0	0	0	0	0	0	0
012919	13:44:35	13:48:02	205713	5.0.10.0	4_exp_AMP_EVA_AWA_CON	96	Rpleas_acq	Oppo	Rpleas	Bmasked	CS_B	2pleas	distractor2	EVAbeforeCON	acq_US_unple_masked	acq1_masked	1	16	0	0	300	300	0	0	678	46	0	1	0	0	0	1	blank2r.bmp	0	1	+	0	5	C1r.bmp	492	1	blank2r.bmp	786	1	BMVZ	786	1	blank2r.bmp	866	2	faul	866	0	0	0	0	0	0	0	0	0	0	0	0	0	0	0	0	0	0	0	0	0	0	0	0	0	0	0	0	0	0	0	0	0
012919	13:44:35	13:48:04	207832	5.0.10.0	4_exp_AMP_EVA_AWA_CON	96	Rpleas_acq	Oppo	Rpleas	Bmasked	CS_B	2pleas	distractor2	EVAbeforeCON	acq_new_pleas_masked	acq1_masked	1	17	0	0	300	300	0	0	647	50	0	1	0	0	0	1	blank2r.bmp	0	1	+	0	5	C1r.bmp	492	1	blank2r.bmp	786	6	C2r.bmp	786	1	blank2r.bmp	866	6	ehrlich	866	0	0	0	0	0	0	0	0	0	0	0	0	0	0	0	0	0	0	0	0	0	0	0	0	0	0	0	0	0	0	0	0	0
012919	13:44:35	13:48:06	210151	5.0.10.0	4_exp_AMP_EVA_AWA_CON	96	Rpleas_acq	Oppo	Rpleas	Bmasked	CS_B	2pleas	distractor2	EVAbeforeCON	acq_new_pleas_masked	acq1_masked	1	18	0	0	300	300	0	0	834	50	0	1	0	0	0	1	blank2r.bmp	0	1	+	0	4	B4r.bmp	492	1	blank2r.bmp	786	6	C2r.bmp	786	1	blank2r.bmp	866	5	freundlich	866	0	0	0	0	0	0	0	0	0	0	0	0	0	0	0	0	0	0	0	0	0	0	0	0	0	0	0	0	0	0	0	0	0
012919	13:44:35	13:48:08	212163	5.0.10.0	4_exp_AMP_EVA_AWA_CON	96	Rpleas_acq	Oppo	Rpleas	Bmasked	CS_B	2pleas	distractor2	EVAbeforeCON	acq_new_unple_masked	acq1_masked	1	19	0	0	300	300	0	0	529	46	0	1	0	0	0	1	blank2r.bmp	0	1	+	0	3	B3r.bmp	492	1	blank2r.bmp	786	7	C3r.bmp	786	1	blank2r.bmp	866	4	schlecht	866	0	0	0	0	0	0	0	0	0	0	0	0	0	0	0	0	0	0	0	0	0	0	0	0	0	0	0	0	0	0	0	0	0
012919	13:44:35	13:48:10	214176	5.0.10.0	4_exp_AMP_EVA_AWA_CON	96	Rpleas_acq	Oppo	Rpleas	Bmasked	CS_B	2pleas	distractor2	EVAbeforeCON	acq_new_pleas_masked	acq1_masked	1	20	0	0	300	300	0	0	519	50	0	1	0	0	0	1	blank2r.bmp	0	1	+	0	6	C2r.bmp	492	1	blank2r.bmp	786	3	B3r.bmp	786	1	blank2r.bmp	866	2	spielen	866	0	0	0	0	0	0	0	0	0	0	0	0	0	0	0	0	0	0	0	0	0	0	0	0	0	0	0	0	0	0	0	0	0
012919	13:44:35	13:48:12	216335	5.0.10.0	4_exp_AMP_EVA_AWA_CON	96	Rpleas_acq	Oppo	Rpleas	Bmasked	CS_B	2pleas	distractor2	EVAbeforeCON	acq_US_unple_masked	acq1_masked	1	21	0	0	300	300	0	0	683	46	0	1	0	0	0	1	blank2r.bmp	0	1	+	0	2	B2r.bmp	492	1	blank2r.bmp	786	1	BMVZ	786	1	blank2r.bmp	866	1	lasch	866	0	0	0	0	0	0	0	0	0	0	0	0	0	0	0	0	0	0	0	0	0	0	0	0	0	0	0	0	0	0	0	0	0
012919	13:44:35	13:48:15	218841	5.0.10.0	4_exp_AMP_EVA_AWA_CON	96	Rpleas_acq	Oppo	Rpleas	Bmasked	CS_B	2pleas	distractor2	EVAbeforeCON	acq_US_pleas_masked	acq1_masked	1	22	0	0	300	300	0	0	1019	50	0	1	0	0	0	1	blank2r.bmp	0	1	+	0	1	B1r.bmp	492	1	blank2r.bmp	786	1	GKQX	786	1	blank2r.bmp	866	2	fair	866	0	0	0	0	0	0	0	0	0	0	0	0	0	0	0	0	0	0	0	0	0	0	0	0	0	0	0	0	0	0	0	0	0
012919	13:44:35	13:48:17	221293	5.0.10.0	4_exp_AMP_EVA_AWA_CON	96	Rpleas_acq	Oppo	Rpleas	Bmasked	CS_B	2pleas	distractor2	EVAbeforeCON	acq_US_unple_masked	acq1_masked	1	23	0	0	300	300	0	0	960	46	0	1	0	0	0	1	blank2r.bmp	0	1	+	0	7	C3r.bmp	492	1	blank2r.bmp	786	1	BMVZ	786	1	blank2r.bmp	866	6	schroff	866	0	0	0	0	0	0	0	0	0	0	0	0	0	0	0	0	0	0	0	0	0	0	0	0	0	0	0	0	0	0	0	0	0
012919	13:44:35	13:48:20	223772	5.0.10.0	4_exp_AMP_EVA_AWA_CON	96	Rpleas_acq	Oppo	Rpleas	Bmasked	CS_B	2pleas	distractor2	EVAbeforeCON	acq_new_unple_masked	acq1_masked	1	24	0	0	300	300	0	0	783	50	0	0	0	0	0	1	blank2r.bmp	0	1	+	0	8	C4r.bmp	492	1	blank2r.bmp	786	1	B1r.bmp	786	1	blank2r.bmp	866	6	eitel	866	1	FEHLER	1679	0	0	0	0	0	0	0	0	0	0	0	0	0	0	0	0	0	0	0	0	0	0	0	0	0	0	0	0	0	0
012919	13:44:35	13:48:22	225731	5.0.10.0	4_exp_AMP_EVA_AWA_CON	96	Rpleas_acq	Oppo	Rpleas	Bmasked	CS_B	2pleas	distractor2	EVAbeforeCON	acq_new_pleas_masked	acq1_masked	1	25	0	0	300	300	0	0	701	50	0	1	0	0	0	1	blank2r.bmp	0	1	+	0	5	C1r.bmp	492	1	blank2r.bmp	786	8	C4r.bmp	786	1	blank2r.bmp	866	6	ehrlich	866	0	0	0	0	0	0	0	0	0	0	0	0	0	0	0	0	0	0	0	0	0	0	0	0	0	0	0	0	0	0	0	0	0
012919	13:44:35	13:48:24	228170	5.0.10.0	4_exp_AMP_EVA_AWA_CON	96	Rpleas_acq	Oppo	Rpleas	Bmasked	CS_B	2pleas	distractor2	EVAbeforeCON	acq_new_pleas_masked	acq1_masked	1	26	0	0	300	300	0	0	945	50	0	1	0	0	0	1	blank2r.bmp	0	1	+	0	4	B4r.bmp	492	1	blank2r.bmp	786	5	C1r.bmp	786	1	blank2r.bmp	866	1	lachen	866	0	0	0	0	0	0	0	0	0	0	0	0	0	0	0	0	0	0	0	0	0	0	0	0	0	0	0	0	0	0	0	0	0
012919	13:44:35	13:48:27	230409	5.0.10.0	4_exp_AMP_EVA_AWA_CON	96	Rpleas_acq	Oppo	Rpleas	Bmasked	CS_B	2pleas	distractor2	EVAbeforeCON	acq_US_pleas_masked	acq1_masked	1	27	0	0	300	300	0	0	759	50	0	1	0	0	0	1	blank2r.bmp	0	1	+	0	3	B3r.bmp	492	1	blank2r.bmp	786	1	GKQX	786	1	blank2r.bmp	866	4	tolerant	866	0	0	0	0	0	0	0	0	0	0	0	0	0	0	0	0	0	0	0	0	0	0	0	0	0	0	0	0	0	0	0	0	0
012919	13:44:35	13:48:29	232448	5.0.10.0	4_exp_AMP_EVA_AWA_CON	96	Rpleas_acq	Oppo	Rpleas	Bmasked	CS_B	2pleas	distractor2	EVAbeforeCON	acq_US_pleas_masked	acq1_masked	1	28	0	0	300	300	0	0	561	50	0	1	0	0	0	1	blank2r.bmp	0	1	+	0	7	C3r.bmp	492	1	blank2r.bmp	786	1	GKQX	786	1	blank2r.bmp	866	5	helfen	866	0	0	0	0	0	0	0	0	0	0	0	0	0	0	0	0	0	0	0	0	0	0	0	0	0	0	0	0	0	0	0	0	0
012919	13:44:35	13:48:31	234701	5.0.10.0	4_exp_AMP_EVA_AWA_CON	96	Rpleas_acq	Oppo	Rpleas	Bmasked	CS_B	2pleas	distractor2	EVAbeforeCON	acq_new_unple_masked	acq1_masked	1	29	0	0	300	300	0	0	766	46	0	1	0	0	0	1	blank2r.bmp	0	1	+	0	6	C2r.bmp	492	1	blank2r.bmp	786	4	B4r.bmp	786	1	blank2r.bmp	866	1	leiden	866	0	0	0	0	0	0	0	0	0	0	0	0	0	0	0	0	0	0	0	0	0	0	0	0	0	0	0	0	0	0	0	0	0
012919	13:44:35	13:48:33	236766	5.0.10.0	4_exp_AMP_EVA_AWA_CON	96	Rpleas_acq	Oppo	Rpleas	Bmasked	CS_B	2pleas	distractor2	EVAbeforeCON	acq_US_unple_masked	acq1_masked	1	30	0	0	300	300	0	0	587	46	0	1	0	0	0	1	blank2r.bmp	0	1	+	0	1	B1r.bmp	492	1	blank2r.bmp	786	1	BMVZ	786	1	blank2r.bmp	866	4	tyrannisch	866	0	0	0	0	0	0	0	0	0	0	0	0	0	0	0	0	0	0	0	0	0	0	0	0	0	0	0	0	0	0	0	0	0
012919	13:44:35	13:48:35	238899	5.0.10.0	4_exp_AMP_EVA_AWA_CON	96	Rpleas_acq	Oppo	Rpleas	Bmasked	CS_B	2pleas	distractor2	EVAbeforeCON	acq_US_unple_masked	acq1_masked	1	31	0	0	300	300	0	0	662	46	0	1	0	0	0	1	blank2r.bmp	0	1	+	0	8	C4r.bmp	492	1	blank2r.bmp	786	1	BMVZ	786	1	blank2r.bmp	866	1	lasch	866	0	0	0	0	0	0	0	0	0	0	0	0	0	0	0	0	0	0	0	0	0	0	0	0	0	0	0	0	0	0	0	0	0
012919	13:44:35	13:48:37	240911	5.0.10.0	4_exp_AMP_EVA_AWA_CON	96	Rpleas_acq	Oppo	Rpleas	Bmasked	CS_B	2pleas	distractor2	EVAbeforeCON	acq_US_pleas_masked	acq1_masked	1	32	0	0	300	300	0	0	528	50	0	1	0	0	0	1	blank2r.bmp	0	1	+	0	2	B2r.bmp	492	1	blank2r.bmp	786	1	GKQX	786	1	blank2r.bmp	866	3	retten	866	0	0	0	0	0	0	0	0	0	0	0	0	0	0	0	0	0	0	0	0	0	0	0	0	0	0	0	0	0	0	0	0	0
012919	13:44:35	13:48:39	243110	5.0.10.0	4_exp_AMP_EVA_AWA_CON	96	Rpleas_acq	Oppo	Rpleas	Bmasked	CS_B	2pleas	distractor2	EVAbeforeCON	acq_US_unple_masked	acq1_masked	1	33	0	0	300	300	0	0	706	46	0	1	0	0	0	1	blank2r.bmp	0	1	+	0	8	C4r.bmp	492	1	blank2r.bmp	786	1	BMVZ	786	1	blank2r.bmp	866	2	faul	866	0	0	0	0	0	0	0	0	0	0	0	0	0	0	0	0	0	0	0	0	0	0	0	0	0	0	0	0	0	0	0	0	0
012919	13:44:35	13:48:41	245323	5.0.10.0	4_exp_AMP_EVA_AWA_CON	96	Rpleas_acq	Oppo	Rpleas	Bmasked	CS_B	2pleas	distractor2	EVAbeforeCON	acq_new_unple_masked	acq1_masked	1	34	0	0	300	300	0	0	733	46	0	1	0	0	0	1	blank2r.bmp	0	1	+	0	1	B1r.bmp	492	1	blank2r.bmp	786	2	B2r.bmp	786	1	blank2r.bmp	866	2	strafen	866	0	0	0	0	0	0	0	0	0	0	0	0	0	0	0	0	0	0	0	0	0	0	0	0	0	0	0	0	0	0	0	0	0
012919	13:44:35	13:48:43	247402	5.0.10.0	4_exp_AMP_EVA_AWA_CON	96	Rpleas_acq	Oppo	Rpleas	Bmasked	CS_B	2pleas	distractor2	EVAbeforeCON	acq_new_pleas_masked	acq1_masked	1	35	0	0	300	300	0	0	608	50	0	1	0	0	0	1	blank2r.bmp	0	1	+	0	6	C2r.bmp	492	1	blank2r.bmp	786	5	C1r.bmp	786	1	blank2r.bmp	866	3	treu	866	0	0	0	0	0	0	0	0	0	0	0	0	0	0	0	0	0	0	0	0	0	0	0	0	0	0	0	0	0	0	0	0	0
012919	13:44:35	13:48:45	249388	5.0.10.0	4_exp_AMP_EVA_AWA_CON	96	Rpleas_acq	Oppo	Rpleas	Bmasked	CS_B	2pleas	distractor2	EVAbeforeCON	acq_new_unple_masked	acq1_masked	1	36	0	0	300	300	0	0	495	46	0	1	0	0	0	1	blank2r.bmp	0	1	+	0	3	B3r.bmp	492	1	blank2r.bmp	786	2	B2r.bmp	786	1	blank2r.bmp	866	3	tot	866	0	0	0	0	0	0	0	0	0	0	0	0	0	0	0	0	0	0	0	0	0	0	0	0	0	0	0	0	0	0	0	0	0
012919	13:44:35	13:49:32	296395	5.0.10.0	4_exp_AMP_EVA_AWA_CON	96	Rpleas_acq	Oppo	Rpleas	Bmasked	CS_B	2pleas	distractor2	EVAbeforeCON	acq_new_pleas_masked	acq2_masked	2	1	480	0	300	300	0	0	3650	50	0	1	0	0	0	1	blank2r.bmp	0	1	+	0	4	B4r.bmp	492	1	blank2r.bmp	786	3	B3r.bmp	786	1	blank2r.bmp	866	5	freundlich	866	1	!	1319	1	!	-1	0	0	0	0	0	0	0	0	0	0	0	0	0	0	0	0	0	0	0	0	0	0	0	0	0	0	0
012919	13:44:35	13:49:35	298900	5.0.10.0	4_exp_AMP_EVA_AWA_CON	96	Rpleas_acq	Oppo	Rpleas	Bmasked	CS_B	2pleas	distractor2	EVAbeforeCON	acq_US_pleas_masked	acq2_masked	2	2	480	0	300	300	0	0	716	50	0	1	0	0	0	1	blank2r.bmp	0	1	+	0	7	C3r.bmp	492	1	blank2r.bmp	786	1	GKQX	786	1	blank2r.bmp	866	2	fair	866	1	!	1319	1	!	-1	0	0	0	0	0	0	0	0	0	0	0	0	0	0	0	0	0	0	0	0	0	0	0	0	0	0	0
012919	13:44:35	13:49:37	301233	5.0.10.0	4_exp_AMP_EVA_AWA_CON	96	Rpleas_acq	Oppo	Rpleas	Bmasked	CS_B	2pleas	distractor2	EVAbeforeCON	acq_new_pleas_masked	acq2_masked	2	3	480	1	300	300	0	0	528	50	0	1	0	0	0	1	blank2r.bmp	0	1	+	0	5	C1r.bmp	492	1	blank2r.bmp	786	8	C4r.bmp	786	1	blank2r.bmp	866	2	spielen	866	1	!	1319	1	!	1426	0	0	0	0	0	0	0	0	0	0	0	0	0	0	0	0	0	0	0	0	0	0	0	0	0	0	0
012919	13:44:35	13:49:40	303472	5.0.10.0	4_exp_AMP_EVA_AWA_CON	96	Rpleas_acq	Oppo	Rpleas	Bmasked	CS_B	2pleas	distractor2	EVAbeforeCON	acq_US_unple_masked	acq2_masked	2	4	480	1	300	300	0	0	439	46	0	1	0	0	0	1	blank2r.bmp	0	1	+	0	2	B2r.bmp	492	1	blank2r.bmp	786	1	BMVZ	786	1	blank2r.bmp	866	6	schroff	866	1	!	1319	1	!	1346	0	0	0	0	0	0	0	0	0	0	0	0	0	0	0	0	0	0	0	0	0	0	0	0	0	0	0
012919	13:44:35	13:49:42	305697	5.0.10.0	4_exp_AMP_EVA_AWA_CON	96	Rpleas_acq	Oppo	Rpleas	Bmasked	CS_B	2pleas	distractor2	EVAbeforeCON	acq_US_pleas_masked	acq2_masked	2	5	480	1	300	300	0	0	426	50	0	1	0	0	0	1	blank2r.bmp	0	1	+	0	1	B1r.bmp	492	1	blank2r.bmp	786	1	GKQX	786	1	blank2r.bmp	866	6	schlau	866	1	!	1319	1	!	1332	0	0	0	0	0	0	0	0	0	0	0	0	0	0	0	0	0	0	0	0	0	0	0	0	0	0	0
012919	13:44:35	13:49:44	308216	5.0.10.0	4_exp_AMP_EVA_AWA_CON	96	Rpleas_acq	Oppo	Rpleas	Bmasked	CS_B	2pleas	distractor2	EVAbeforeCON	acq_new_unple_masked	acq2_masked	2	6	480	1	300	300	0	0	506	50	0	0	0	0	0	1	blank2r.bmp	0	1	+	0	8	C4r.bmp	492	1	blank2r.bmp	786	6	C2r.bmp	786	1	blank2r.bmp	866	6	eitel	866	1	FEHLER	1732	1	!	1319	1	!	1412	0	0	0	0	0	0	0	0	0	0	0	0	0	0	0	0	0	0	0	0	0	0	0	0
012919	13:44:35	13:49:46	310242	5.0.10.0	4_exp_AMP_EVA_AWA_CON	96	Rpleas_acq	Oppo	Rpleas	Bmasked	CS_B	2pleas	distractor2	EVAbeforeCON	acq_new_unple_masked	acq2_masked	2	7	480	1	300	300	0	0	443	46	0	1	0	0	0	1	blank2r.bmp	0	1	+	0	2	B2r.bmp	492	1	blank2r.bmp	786	1	B1r.bmp	786	1	blank2r.bmp	866	4	schlecht	866	1	!	1319	1	!	1346	0	0	0	0	0	0	0	0	0	0	0	0	0	0	0	0	0	0	0	0	0	0	0	0	0	0	0
012919	13:44:35	13:49:49	312521	5.0.10.0	4_exp_AMP_EVA_AWA_CON	96	Rpleas_acq	Oppo	Rpleas	Bmasked	CS_B	2pleas	distractor2	EVAbeforeCON	acq_US_unple_masked	acq2_masked	2	8	480	1	300	300	0	0	481	46	0	1	0	0	0	1	blank2r.bmp	0	1	+	0	4	B4r.bmp	492	1	blank2r.bmp	786	1	BMVZ	786	1	blank2r.bmp	866	5	hindern	866	1	!	1319	1	!	1386	0	0	0	0	0	0	0	0	0	0	0	0	0	0	0	0	0	0	0	0	0	0	0	0	0	0	0
012919	13:44:35	13:49:51	314694	5.0.10.0	4_exp_AMP_EVA_AWA_CON	96	Rpleas_acq	Oppo	Rpleas	Bmasked	CS_B	2pleas	distractor2	EVAbeforeCON	acq_new_unple_masked	acq2_masked	2	9	480	0	300	300	0	0	404	46	0	1	0	0	0	1	blank2r.bmp	0	1	+	0	6	C2r.bmp	492	1	blank2r.bmp	786	4	B4r.bmp	786	1	blank2r.bmp	866	5	fanatisch	866	1	!	-1	1	!	-1	0	0	0	0	0	0	0	0	0	0	0	0	0	0	0	0	0	0	0	0	0	0	0	0	0	0	0
012919	13:44:35	13:49:53	316973	5.0.10.0	4_exp_AMP_EVA_AWA_CON	96	Rpleas_acq	Oppo	Rpleas	Bmasked	CS_B	2pleas	distractor2	EVAbeforeCON	acq_new_pleas_masked	acq2_masked	2	10	480	1	300	300	0	0	458	50	0	1	0	0	0	1	blank2r.bmp	0	1	+	0	7	C3r.bmp	492	1	blank2r.bmp	786	7	C3r.bmp	786	1	blank2r.bmp	866	4	schön	866	1	!	1319	1	!	1359	0	0	0	0	0	0	0	0	0	0	0	0	0	0	0	0	0	0	0	0	0	0	0	0	0	0	0
012919	13:44:35	13:49:55	319318	5.0.10.0	4_exp_AMP_EVA_AWA_CON	96	Rpleas_acq	Oppo	Rpleas	Bmasked	CS_B	2pleas	distractor2	EVAbeforeCON	acq_US_unple_masked	acq2_masked	2	11	480	0	300	300	0	0	576	46	0	1	0	0	0	1	blank2r.bmp	0	1	+	0	5	C1r.bmp	492	1	blank2r.bmp	786	1	BMVZ	786	1	blank2r.bmp	866	3	rächen	866	1	!	1319	1	!	-1	0	0	0	0	0	0	0	0	0	0	0	0	0	0	0	0	0	0	0	0	0	0	0	0	0	0	0
012919	13:44:35	13:49:58	321597	5.0.10.0	4_exp_AMP_EVA_AWA_CON	96	Rpleas_acq	Oppo	Rpleas	Bmasked	CS_B	2pleas	distractor2	EVAbeforeCON	acq_US_pleas_masked	acq2_masked	2	12	480	1	300	300	0	0	477	50	0	1	0	0	0	1	blank2r.bmp	0	1	+	0	3	B3r.bmp	492	1	blank2r.bmp	786	1	GKQX	786	1	blank2r.bmp	866	1	loyal	866	1	!	1319	1	!	1372	0	0	0	0	0	0	0	0	0	0	0	0	0	0	0	0	0	0	0	0	0	0	0	0	0	0	0
012919	13:44:35	13:50:00	323956	5.0.10.0	4_exp_AMP_EVA_AWA_CON	96	Rpleas_acq	Oppo	Rpleas	Bmasked	CS_B	2pleas	distractor2	EVAbeforeCON	acq_new_pleas_masked	acq2_masked	2	13	480	0	300	300	0	0	589	50	0	1	0	0	0	1	blank2r.bmp	0	1	+	0	5	C1r.bmp	492	1	blank2r.bmp	786	1	B1r.bmp	786	1	blank2r.bmp	866	6	ehrlich	866	1	!	1319	1	!	-1	0	0	0	0	0	0	0	0	0	0	0	0	0	0	0	0	0	0	0	0	0	0	0	0	0	0	0
012919	13:44:35	13:50:02	326129	5.0.10.0	4_exp_AMP_EVA_AWA_CON	96	Rpleas_acq	Oppo	Rpleas	Bmasked	CS_B	2pleas	distractor2	EVAbeforeCON	acq_new_unple_masked	acq2_masked	2	14	480	0	300	300	0	0	385	46	0	1	0	0	0	1	blank2r.bmp	0	1	+	0	4	B4r.bmp	492	1	blank2r.bmp	786	2	B2r.bmp	786	1	blank2r.bmp	866	1	leiden	866	1	!	-1	1	!	-1	0	0	0	0	0	0	0	0	0	0	0	0	0	0	0	0	0	0	0	0	0	0	0	0	0	0	0
012919	13:44:35	13:50:04	328314	5.0.10.0	4_exp_AMP_EVA_AWA_CON	96	Rpleas_acq	Oppo	Rpleas	Bmasked	CS_B	2pleas	distractor2	EVAbeforeCON	acq_new_pleas_masked	acq2_masked	2	15	480	0	300	300	0	0	392	50	0	1	0	0	0	1	blank2r.bmp	0	1	+	0	7	C3r.bmp	492	1	blank2r.bmp	786	4	B4r.bmp	786	1	blank2r.bmp	866	2	spielen	866	1	!	-1	1	!	-1	0	0	0	0	0	0	0	0	0	0	0	0	0	0	0	0	0	0	0	0	0	0	0	0	0	0	0
012919	13:44:35	13:50:07	330660	5.0.10.0	4_exp_AMP_EVA_AWA_CON	96	Rpleas_acq	Oppo	Rpleas	Bmasked	CS_B	2pleas	distractor2	EVAbeforeCON	acq_US_unple_masked	acq2_masked	2	16	480	0	300	300	0	0	561	46	0	1	0	0	0	1	blank2r.bmp	0	1	+	0	1	B1r.bmp	492	1	blank2r.bmp	786	1	BMVZ	786	1	blank2r.bmp	866	3	rächen	866	1	!	1319	1	!	-1	0	0	0	0	0	0	0	0	0	0	0	0	0	0	0	0	0	0	0	0	0	0	0	0	0	0	0
012919	13:44:35	13:50:09	332939	5.0.10.0	4_exp_AMP_EVA_AWA_CON	96	Rpleas_acq	Oppo	Rpleas	Bmasked	CS_B	2pleas	distractor2	EVAbeforeCON	acq_new_unple_masked	acq2_masked	2	17	480	1	300	300	0	0	478	46	0	1	0	0	0	1	blank2r.bmp	0	1	+	0	8	C4r.bmp	492	1	blank2r.bmp	786	6	C2r.bmp	786	1	blank2r.bmp	866	6	eitel	866	1	!	1319	1	!	1372	0	0	0	0	0	0	0	0	0	0	0	0	0	0	0	0	0	0	0	0	0	0	0	0	0	0	0
012919	13:44:35	13:50:11	335392	5.0.10.0	4_exp_AMP_EVA_AWA_CON	96	Rpleas_acq	Oppo	Rpleas	Bmasked	CS_B	2pleas	distractor2	EVAbeforeCON	acq_US_pleas_masked	acq2_masked	2	18	480	1	300	300	0	0	450	46	0	0	0	0	0	1	blank2r.bmp	0	1	+	0	2	B2r.bmp	492	1	blank2r.bmp	786	1	GKQX	786	1	blank2r.bmp	866	5	helfen	866	1	FEHLER	1665	1	!	1319	1	!	1346	0	0	0	0	0	0	0	0	0	0	0	0	0	0	0	0	0	0	0	0	0	0	0	0
012919	13:44:35	13:50:14	337524	5.0.10.0	4_exp_AMP_EVA_AWA_CON	96	Rpleas_acq	Oppo	Rpleas	Bmasked	CS_B	2pleas	distractor2	EVAbeforeCON	acq_US_unple_masked	acq2_masked	2	19	480	0	300	300	0	0	583	46	0	1	0	0	0	1	blank2r.bmp	0	1	+	0	6	C2r.bmp	492	1	blank2r.bmp	786	1	BMVZ	786	1	blank2r.bmp	866	6	schroff	866	1	!	1319	1	!	-1	0	0	0	0	0	0	0	0	0	0	0	0	0	0	0	0	0	0	0	0	0	0	0	0	0	0	0
012919	13:44:35	13:50:16	339763	5.0.10.0	4_exp_AMP_EVA_AWA_CON	96	Rpleas_acq	Oppo	Rpleas	Bmasked	CS_B	2pleas	distractor2	EVAbeforeCON	acq_US_pleas_masked	acq2_masked	2	20	480	1	300	300	0	0	435	50	0	1	0	0	0	1	blank2r.bmp	0	1	+	0	3	B3r.bmp	492	1	blank2r.bmp	786	1	GKQX	786	1	blank2r.bmp	866	6	schlau	866	1	!	1319	1	!	1332	0	0	0	0	0	0	0	0	0	0	0	0	0	0	0	0	0	0	0	0	0	0	0	0	0	0	0
012919	13:44:35	13:50:18	342109	5.0.10.0	4_exp_AMP_EVA_AWA_CON	96	Rpleas_acq	Oppo	Rpleas	Bmasked	CS_B	2pleas	distractor2	EVAbeforeCON	acq_new_unple_masked	acq2_masked	2	21	480	0	300	300	0	0	583	46	0	1	0	0	0	1	blank2r.bmp	0	1	+	0	4	B4r.bmp	492	1	blank2r.bmp	786	7	C3r.bmp	786	1	blank2r.bmp	866	2	strafen	866	1	!	1319	1	!	-1	0	0	0	0	0	0	0	0	0	0	0	0	0	0	0	0	0	0	0	0	0	0	0	0	0	0	0
012919	13:44:35	13:50:20	344401	5.0.10.0	4_exp_AMP_EVA_AWA_CON	96	Rpleas_acq	Oppo	Rpleas	Bmasked	CS_B	2pleas	distractor2	EVAbeforeCON	acq_US_unple_masked	acq2_masked	2	22	480	1	300	300	0	0	492	46	0	1	0	0	0	1	blank2r.bmp	0	1	+	0	6	C2r.bmp	492	1	blank2r.bmp	786	1	BMVZ	786	1	blank2r.bmp	866	4	tyrannisch	866	1	!	1319	1	!	1386	0	0	0	0	0	0	0	0	0	0	0	0	0	0	0	0	0	0	0	0	0	0	0	0	0	0	0
012919	13:44:35	13:50:23	346733	5.0.10.0	4_exp_AMP_EVA_AWA_CON	96	Rpleas_acq	Oppo	Rpleas	Bmasked	CS_B	2pleas	distractor2	EVAbeforeCON	acq_new_pleas_masked	acq2_masked	2	23	480	0	300	300	0	0	559	50	0	1	0	0	0	1	blank2r.bmp	0	1	+	0	3	B3r.bmp	492	1	blank2r.bmp	786	5	C1r.bmp	786	1	blank2r.bmp	866	5	freundlich	866	1	!	1319	1	!	-1	0	0	0	0	0	0	0	0	0	0	0	0	0	0	0	0	0	0	0	0	0	0	0	0	0	0	0
012919	13:44:35	13:50:25	349079	5.0.10.0	4_exp_AMP_EVA_AWA_CON	96	Rpleas_acq	Oppo	Rpleas	Bmasked	CS_B	2pleas	distractor2	EVAbeforeCON	acq_US_pleas_masked	acq2_masked	2	24	480	0	300	300	0	0	341	46	0	0	0	0	0	1	blank2r.bmp	0	1	+	0	1	B1r.bmp	492	1	blank2r.bmp	786	1	GKQX	786	1	blank2r.bmp	866	2	fair	866	1	FEHLER	1546	1	!	-1	1	!	-1	0	0	0	0	0	0	0	0	0	0	0	0	0	0	0	0	0	0	0	0	0	0	0	0
012919	13:44:35	13:50:27	351265	5.0.10.0	4_exp_AMP_EVA_AWA_CON	96	Rpleas_acq	Oppo	Rpleas	Bmasked	CS_B	2pleas	distractor2	EVAbeforeCON	acq_US_unple_masked	acq2_masked	2	25	480	0	300	300	0	0	402	50	0	0	0	0	0	1	blank2r.bmp	0	1	+	0	2	B2r.bmp	492	1	blank2r.bmp	786	1	BMVZ	786	1	blank2r.bmp	866	5	hindern	866	1	FEHLER	1612	1	!	-1	1	!	-1	0	0	0	0	0	0	0	0	0	0	0	0	0	0	0	0	0	0	0	0	0	0	0	0
012919	13:44:35	13:50:30	353424	5.0.10.0	4_exp_AMP_EVA_AWA_CON	96	Rpleas_acq	Oppo	Rpleas	Bmasked	CS_B	2pleas	distractor2	EVAbeforeCON	acq_US_pleas_masked	acq2_masked	2	26	480	0	300	300	0	0	380	46	0	0	0	0	0	1	blank2r.bmp	0	1	+	0	7	C3r.bmp	492	1	blank2r.bmp	786	1	GKQX	786	1	blank2r.bmp	866	1	loyal	866	1	FEHLER	1585	1	!	-1	1	!	-1	0	0	0	0	0	0	0	0	0	0	0	0	0	0	0	0	0	0	0	0	0	0	0	0
012919	13:44:35	13:50:32	355436	5.0.10.0	4_exp_AMP_EVA_AWA_CON	96	Rpleas_acq	Oppo	Rpleas	Bmasked	CS_B	2pleas	distractor2	EVAbeforeCON	acq_new_pleas_masked	acq2_masked	2	27	480	1	300	300	0	0	427	50	0	1	0	0	0	1	blank2r.bmp	0	1	+	0	8	C4r.bmp	492	1	blank2r.bmp	786	3	B3r.bmp	786	1	blank2r.bmp	866	4	schön	866	1	!	1319	1	!	1332	0	0	0	0	0	0	0	0	0	0	0	0	0	0	0	0	0	0	0	0	0	0	0	0	0	0	0
012919	13:44:35	13:50:34	357675	5.0.10.0	4_exp_AMP_EVA_AWA_CON	96	Rpleas_acq	Oppo	Rpleas	Bmasked	CS_B	2pleas	distractor2	EVAbeforeCON	acq_new_unple_masked	acq2_masked	2	28	480	1	300	300	0	0	442	46	0	1	0	0	0	1	blank2r.bmp	0	1	+	0	5	C1r.bmp	492	1	blank2r.bmp	786	8	C4r.bmp	786	1	blank2r.bmp	866	5	fanatisch	866	1	!	1319	1	!	1346	0	0	0	0	0	0	0	0	0	0	0	0	0	0	0	0	0	0	0	0	0	0	0	0	0	0	0
012919	13:44:35	13:50:36	359915	5.0.10.0	4_exp_AMP_EVA_AWA_CON	96	Rpleas_acq	Oppo	Rpleas	Bmasked	CS_B	2pleas	distractor2	EVAbeforeCON	acq_US_pleas_masked	acq2_masked	2	29	480	1	300	300	0	0	438	50	0	1	0	0	0	1	blank2r.bmp	0	1	+	0	4	B4r.bmp	492	1	blank2r.bmp	786	1	GKQX	786	1	blank2r.bmp	866	3	retten	866	1	!	1319	1	!	1346	0	0	0	0	0	0	0	0	0	0	0	0	0	0	0	0	0	0	0	0	0	0	0	0	0	0	0
012919	13:44:35	13:50:39	362420	5.0.10.0	4_exp_AMP_EVA_AWA_CON	96	Rpleas_acq	Oppo	Rpleas	Bmasked	CS_B	2pleas	distractor2	EVAbeforeCON	acq_US_pleas_masked	acq2_masked	2	30	480	1	300	300	0	0	486	46	0	0	0	0	0	1	blank2r.bmp	0	1	+	0	3	B3r.bmp	492	1	blank2r.bmp	786	1	GKQX	786	1	blank2r.bmp	866	4	tolerant	866	1	FEHLER	1705	1	!	1319	1	!	1386	0	0	0	0	0	0	0	0	0	0	0	0	0	0	0	0	0	0	0	0	0	0	0	0
012919	13:44:35	13:50:41	364459	5.0.10.0	4_exp_AMP_EVA_AWA_CON	96	Rpleas_acq	Oppo	Rpleas	Bmasked	CS_B	2pleas	distractor2	EVAbeforeCON	acq_US_unple_masked	acq2_masked	2	31	480	1	300	300	0	0	452	46	0	1	0	0	0	1	blank2r.bmp	0	1	+	0	6	C2r.bmp	492	1	blank2r.bmp	786	1	BMVZ	786	1	blank2r.bmp	866	2	faul	866	1	!	1319	1	!	1346	0	0	0	0	0	0	0	0	0	0	0	0	0	0	0	0	0	0	0	0	0	0	0	0	0	0	0
012919	13:44:35	13:50:43	366685	5.0.10.0	4_exp_AMP_EVA_AWA_CON	96	Rpleas_acq	Oppo	Rpleas	Bmasked	CS_B	2pleas	distractor2	EVAbeforeCON	acq_new_unple_masked	acq2_masked	2	32	480	1	300	300	0	0	426	46	0	1	0	0	0	1	blank2r.bmp	0	1	+	0	1	B1r.bmp	492	1	blank2r.bmp	786	2	B2r.bmp	786	1	blank2r.bmp	866	3	tot	866	1	!	1319	1	!	1332	0	0	0	0	0	0	0	0	0	0	0	0	0	0	0	0	0	0	0	0	0	0	0	0	0	0	0
012919	13:44:35	13:50:45	369031	5.0.10.0	4_exp_AMP_EVA_AWA_CON	96	Rpleas_acq	Oppo	Rpleas	Bmasked	CS_B	2pleas	distractor2	EVAbeforeCON	acq_new_pleas_masked	acq2_masked	2	33	480	1	300	300	0	0	536	50	0	1	0	0	0	1	blank2r.bmp	0	1	+	0	5	C1r.bmp	492	1	blank2r.bmp	786	4	B4r.bmp	786	1	blank2r.bmp	866	3	treu	866	1	!	1319	1	!	1439	0	0	0	0	0	0	0	0	0	0	0	0	0	0	0	0	0	0	0	0	0	0	0	0	0	0	0
012919	13:44:35	13:50:47	371390	5.0.10.0	4_exp_AMP_EVA_AWA_CON	96	Rpleas_acq	Oppo	Rpleas	Bmasked	CS_B	2pleas	distractor2	EVAbeforeCON	acq_US_unple_masked	acq2_masked	2	34	480	0	300	300	0	0	593	46	0	1	0	0	0	1	blank2r.bmp	0	1	+	0	2	B2r.bmp	492	1	blank2r.bmp	786	1	BMVZ	786	1	blank2r.bmp	866	1	lasch	866	1	!	1319	1	!	-1	0	0	0	0	0	0	0	0	0	0	0	0	0	0	0	0	0	0	0	0	0	0	0	0	0	0	0
012919	13:44:35	13:50:50	373575	5.0.10.0	4_exp_AMP_EVA_AWA_CON	96	Rpleas_acq	Oppo	Rpleas	Bmasked	CS_B	2pleas	distractor2	EVAbeforeCON	acq_new_pleas_masked	acq2_masked	2	35	480	0	300	300	0	0	402	50	0	1	0	0	0	1	blank2r.bmp	0	1	+	0	8	C4r.bmp	492	1	blank2r.bmp	786	7	C3r.bmp	786	1	blank2r.bmp	866	1	lachen	866	1	!	-1	1	!	-1	0	0	0	0	0	0	0	0	0	0	0	0	0	0	0	0	0	0	0	0	0	0	0	0	0	0	0
012919	13:44:35	13:50:52	375921	5.0.10.0	4_exp_AMP_EVA_AWA_CON	96	Rpleas_acq	Oppo	Rpleas	Bmasked	CS_B	2pleas	distractor2	EVAbeforeCON	acq_new_unple_masked	acq2_masked	2	36	480	0	300	300	0	0	559	46	0	1	0	0	0	1	blank2r.bmp	0	1	+	0	7	C3r.bmp	492	1	blank2r.bmp	786	6	C2r.bmp	786	1	blank2r.bmp	866	4	schlecht	866	1	!	1319	1	!	-1	0	0	0	0	0	0	0	0	0	0	0	0	0	0	0	0	0	0	0	0	0	0	0	0	0	0	0
012919	13:44:35	13:51:16	399551	5.0.10.0	4_exp_AMP_EVA_AWA_CON	96	Rpleas_acq	Oppo	Rpleas	Bmasked	CS_B	2pleas	distractor2	EVAbeforeCON	acq_US_pleas_masked	acq3_masked	3	1	453	1	300	300	0	0	457	50	0	1	0	0	0	1	blank2r.bmp	0	1	+	0	1	B1r.bmp	492	1	blank2r.bmp	786	1	GKQX	786	1	blank2r.bmp	866	3	retten	866	1	!	1292	1	!	1359	0	0	0	0	0	0	0	0	0	0	0	0	0	0	0	0	0	0	0	0	0	0	0	0	0	0	0
012919	13:44:35	13:51:18	401777	5.0.10.0	4_exp_AMP_EVA_AWA_CON	96	Rpleas_acq	Oppo	Rpleas	Bmasked	CS_B	2pleas	distractor2	EVAbeforeCON	acq_US_unple_masked	acq3_masked	3	2	453	1	300	300	0	0	428	46	0	1	0	0	0	1	blank2r.bmp	0	1	+	0	7	C3r.bmp	492	1	blank2r.bmp	786	1	BMVZ	786	1	blank2r.bmp	866	4	tyrannisch	866	1	!	1292	1	!	1332	0	0	0	0	0	0	0	0	0	0	0	0	0	0	0	0	0	0	0	0	0	0	0	0	0	0	0
012919	13:44:35	13:51:20	404083	5.0.10.0	4_exp_AMP_EVA_AWA_CON	96	Rpleas_acq	Oppo	Rpleas	Bmasked	CS_B	2pleas	distractor2	EVAbeforeCON	acq_US_pleas_masked	acq3_masked	3	3	453	0	300	300	0	0	545	50	0	1	0	0	0	1	blank2r.bmp	0	1	+	0	5	C1r.bmp	492	1	blank2r.bmp	786	1	GKQX	786	1	blank2r.bmp	866	1	loyal	866	1	!	1292	1	!	-1	0	0	0	0	0	0	0	0	0	0	0	0	0	0	0	0	0	0	0	0	0	0	0	0	0	0	0
012919	13:44:35	13:51:22	406295	5.0.10.0	4_exp_AMP_EVA_AWA_CON	96	Rpleas_acq	Oppo	Rpleas	Bmasked	CS_B	2pleas	distractor2	EVAbeforeCON	acq_US_unple_masked	acq3_masked	3	4	453	1	300	300	0	0	399	46	0	1	0	0	0	1	blank2r.bmp	0	1	+	0	6	C2r.bmp	492	1	blank2r.bmp	786	1	BMVZ	786	1	blank2r.bmp	866	6	schroff	866	1	!	1292	1	!	1306	0	0	0	0	0	0	0	0	0	0	0	0	0	0	0	0	0	0	0	0	0	0	0	0	0	0	0
012919	13:44:35	13:51:25	408721	5.0.10.0	4_exp_AMP_EVA_AWA_CON	96	Rpleas_acq	Oppo	Rpleas	Bmasked	CS_B	2pleas	distractor2	EVAbeforeCON	acq_US_unple_masked	acq3_masked	3	5	453	1	300	300	0	0	406	50	0	0	0	0	0	1	blank2r.bmp	0	1	+	0	4	B4r.bmp	492	1	blank2r.bmp	786	1	BMVZ	786	1	blank2r.bmp	866	5	hindern	866	1	FEHLER	1625	1	!	1292	1	!	1306	0	0	0	0	0	0	0	0	0	0	0	0	0	0	0	0	0	0	0	0	0	0	0	0
012919	13:44:35	13:51:27	410893	5.0.10.0	4_exp_AMP_EVA_AWA_CON	96	Rpleas_acq	Oppo	Rpleas	Bmasked	CS_B	2pleas	distractor2	EVAbeforeCON	acq_US_pleas_masked	acq3_masked	3	6	453	0	300	300	0	0	385	46	0	0	0	0	0	1	blank2r.bmp	0	1	+	0	3	B3r.bmp	492	1	blank2r.bmp	786	1	GKQX	786	1	blank2r.bmp	866	6	schlau	866	1	FEHLER	1599	1	!	-1	1	!	-1	0	0	0	0	0	0	0	0	0	0	0	0	0	0	0	0	0	0	0	0	0	0	0	0
012919	13:44:35	13:51:29	413012	5.0.10.0	4_exp_AMP_EVA_AWA_CON	96	Rpleas_acq	Oppo	Rpleas	Bmasked	CS_B	2pleas	distractor2	EVAbeforeCON	acq_US_pleas_masked	acq3_masked	3	7	453	0	300	300	0	0	334	46	0	0	0	0	0	1	blank2r.bmp	0	1	+	0	2	B2r.bmp	492	1	blank2r.bmp	786	1	GKQX	786	1	blank2r.bmp	866	4	tolerant	866	1	FEHLER	1546	1	!	-1	1	!	-1	0	0	0	0	0	0	0	0	0	0	0	0	0	0	0	0	0	0	0	0	0	0	0	0
012919	13:44:35	13:51:31	415011	5.0.10.0	4_exp_AMP_EVA_AWA_CON	96	Rpleas_acq	Oppo	Rpleas	Bmasked	CS_B	2pleas	distractor2	EVAbeforeCON	acq_US_pleas_masked	acq3_masked	3	8	453	1	300	300	0	0	399	50	0	1	0	0	0	1	blank2r.bmp	0	1	+	0	8	C4r.bmp	492	1	blank2r.bmp	786	1	GKQX	786	1	blank2r.bmp	866	5	helfen	866	1	!	1292	1	!	1306	0	0	0	0	0	0	0	0	0	0	0	0	0	0	0	0	0	0	0	0	0	0	0	0	0	0	0
012919	13:44:35	13:51:33	417117	5.0.10.0	4_exp_AMP_EVA_AWA_CON	96	Rpleas_acq	Oppo	Rpleas	Bmasked	CS_B	2pleas	distractor2	EVAbeforeCON	acq_US_unple_masked	acq3_masked	3	9	453	0	300	300	0	0	344	46	0	1	0	0	0	1	blank2r.bmp	0	1	+	0	1	B1r.bmp	492	1	blank2r.bmp	786	1	BMVZ	786	1	blank2r.bmp	866	2	faul	866	1	!	-1	1	!	-1	0	0	0	0	0	0	0	0	0	0	0	0	0	0	0	0	0	0	0	0	0	0	0	0	0	0	0
012919	13:44:35	13:51:36	419489	5.0.10.0	4_exp_AMP_EVA_AWA_CON	96	Rpleas_acq	Oppo	Rpleas	Bmasked	CS_B	2pleas	distractor2	EVAbeforeCON	acq_US_unple_masked	acq3_masked	3	10	453	0	300	300	0	0	368	50	0	0	0	0	0	1	blank2r.bmp	0	1	+	0	4	B4r.bmp	492	1	blank2r.bmp	786	1	BMVZ	786	1	blank2r.bmp	866	3	rächen	866	1	FEHLER	1572	1	!	-1	1	!	-1	0	0	0	0	0	0	0	0	0	0	0	0	0	0	0	0	0	0	0	0	0	0	0	0
012919	13:44:35	13:51:38	421729	5.0.10.0	4_exp_AMP_EVA_AWA_CON	96	Rpleas_acq	Oppo	Rpleas	Bmasked	CS_B	2pleas	distractor2	EVAbeforeCON	acq_US_pleas_masked	acq3_masked	3	11	453	1	300	300	0	0	448	46	0	0	0	0	0	1	blank2r.bmp	0	1	+	0	7	C3r.bmp	492	1	blank2r.bmp	786	1	GKQX	786	1	blank2r.bmp	866	2	fair	866	1	FEHLER	1665	1	!	1292	1	!	1346	0	0	0	0	0	0	0	0	0	0	0	0	0	0	0	0	0	0	0	0	0	0	0	0
012919	13:44:35	13:51:40	423808	5.0.10.0	4_exp_AMP_EVA_AWA_CON	96	Rpleas_acq	Oppo	Rpleas	Bmasked	CS_B	2pleas	distractor2	EVAbeforeCON	acq_US_unple_masked	acq3_masked	3	12	453	1	300	300	0	0	502	46	0	1	0	0	0	1	blank2r.bmp	0	1	+	0	2	B2r.bmp	492	1	blank2r.bmp	786	1	BMVZ	786	1	blank2r.bmp	866	1	lasch	866	1	!	1292	1	!	1399	0	0	0	0	0	0	0	0	0	0	0	0	0	0	0	0	0	0	0	0	0	0	0	0	0	0	0
012919	13:44:35	13:51:42	426193	5.0.10.0	4_exp_AMP_EVA_AWA_CON	96	Rpleas_acq	Oppo	Rpleas	Bmasked	CS_B	2pleas	distractor2	EVAbeforeCON	acq_US_pleas_masked	acq3_masked	3	13	453	0	300	300	0	0	386	46	0	0	0	0	0	1	blank2r.bmp	0	1	+	0	8	C4r.bmp	492	1	blank2r.bmp	786	1	GKQX	786	1	blank2r.bmp	866	4	tolerant	866	1	FEHLER	1599	1	!	-1	1	!	-1	0	0	0	0	0	0	0	0	0	0	0	0	0	0	0	0	0	0	0	0	0	0	0	0
012919	13:44:35	13:51:44	428326	5.0.10.0	4_exp_AMP_EVA_AWA_CON	96	Rpleas_acq	Oppo	Rpleas	Bmasked	CS_B	2pleas	distractor2	EVAbeforeCON	acq_US_unple_masked	acq3_masked	3	14	453	0	300	300	0	0	593	46	0	1	0	0	0	1	blank2r.bmp	0	1	+	0	5	C1r.bmp	492	1	blank2r.bmp	786	1	BMVZ	786	1	blank2r.bmp	866	6	schroff	866	1	!	1292	1	!	-1	0	0	0	0	0	0	0	0	0	0	0	0	0	0	0	0	0	0	0	0	0	0	0	0	0	0	0
012919	13:44:35	13:51:47	430645	5.0.10.0	4_exp_AMP_EVA_AWA_CON	96	Rpleas_acq	Oppo	Rpleas	Bmasked	CS_B	2pleas	distractor2	EVAbeforeCON	acq_US_unple_masked	acq3_masked	3	15	453	0	300	300	0	0	539	46	0	1	0	0	0	1	blank2r.bmp	0	1	+	0	3	B3r.bmp	492	1	blank2r.bmp	786	1	BMVZ	786	1	blank2r.bmp	866	3	rächen	866	1	!	1292	1	!	-1	0	0	0	0	0	0	0	0	0	0	0	0	0	0	0	0	0	0	0	0	0	0	0	0	0	0	0
012919	13:44:35	13:51:49	432871	5.0.10.0	4_exp_AMP_EVA_AWA_CON	96	Rpleas_acq	Oppo	Rpleas	Bmasked	CS_B	2pleas	distractor2	EVAbeforeCON	acq_US_pleas_masked	acq3_masked	3	16	453	1	300	300	0	0	421	50	0	1	0	0	0	1	blank2r.bmp	0	1	+	0	6	C2r.bmp	492	1	blank2r.bmp	786	1	GKQX	786	1	blank2r.bmp	866	5	helfen	866	1	!	1292	1	!	1319	0	0	0	0	0	0	0	0	0	0	0	0	0	0	0	0	0	0	0	0	0	0	0	0	0	0	0
012919	13:44:35	13:51:51	435110	5.0.10.0	4_exp_AMP_EVA_AWA_CON	96	Rpleas_acq	Oppo	Rpleas	Bmasked	CS_B	2pleas	distractor2	EVAbeforeCON	acq_US_unple_masked	acq3_masked	3	17	453	1	300	300	0	0	440	46	0	1	0	0	0	1	blank2r.bmp	0	1	+	0	4	B4r.bmp	492	1	blank2r.bmp	786	1	BMVZ	786	1	blank2r.bmp	866	1	lasch	866	1	!	1292	1	!	1346	0	0	0	0	0	0	0	0	0	0	0	0	0	0	0	0	0	0	0	0	0	0	0	0	0	0	0
012919	13:44:35	13:51:53	437309	5.0.10.0	4_exp_AMP_EVA_AWA_CON	96	Rpleas_acq	Oppo	Rpleas	Bmasked	CS_B	2pleas	distractor2	EVAbeforeCON	acq_US_pleas_masked	acq3_masked	3	18	453	1	300	300	0	0	399	50	0	1	0	0	0	1	blank2r.bmp	0	1	+	0	3	B3r.bmp	492	1	blank2r.bmp	786	1	GKQX	786	1	blank2r.bmp	866	2	fair	866	1	!	1292	1	!	1306	0	0	0	0	0	0	0	0	0	0	0	0	0	0	0	0	0	0	0	0	0	0	0	0	0	0	0
012919	13:44:35	13:51:56	439534	5.0.10.0	4_exp_AMP_EVA_AWA_CON	96	Rpleas_acq	Oppo	Rpleas	Bmasked	CS_B	2pleas	distractor2	EVAbeforeCON	acq_US_unple_masked	acq3_masked	3	19	453	1	300	300	0	0	430	46	0	1	0	0	0	1	blank2r.bmp	0	1	+	0	8	C4r.bmp	492	1	blank2r.bmp	786	1	BMVZ	786	1	blank2r.bmp	866	4	tyrannisch	866	1	!	1292	1	!	1332	0	0	0	0	0	0	0	0	0	0	0	0	0	0	0	0	0	0	0	0	0	0	0	0	0	0	0
012919	13:44:35	13:51:58	441827	5.0.10.0	4_exp_AMP_EVA_AWA_CON	96	Rpleas_acq	Oppo	Rpleas	Bmasked	CS_B	2pleas	distractor2	EVAbeforeCON	acq_US_pleas_masked	acq3_masked	3	20	453	1	300	300	0	0	495	50	0	1	0	0	0	1	blank2r.bmp	0	1	+	0	7	C3r.bmp	492	1	blank2r.bmp	786	1	GKQX	786	1	blank2r.bmp	866	1	loyal	866	1	!	1292	1	!	1399	0	0	0	0	0	0	0	0	0	0	0	0	0	0	0	0	0	0	0	0	0	0	0	0	0	0	0
012919	13:44:35	13:52:00	444132	5.0.10.0	4_exp_AMP_EVA_AWA_CON	96	Rpleas_acq	Oppo	Rpleas	Bmasked	CS_B	2pleas	distractor2	EVAbeforeCON	acq_US_pleas_masked	acq3_masked	3	21	453	0	300	300	0	0	314	46	0	0	0	0	0	1	blank2r.bmp	0	1	+	0	2	B2r.bmp	492	1	blank2r.bmp	786	1	GKQX	786	1	blank2r.bmp	866	6	schlau	866	1	FEHLER	1519	1	!	-1	1	!	-1	0	0	0	0	0	0	0	0	0	0	0	0	0	0	0	0	0	0	0	0	0	0	0	0
012919	13:44:35	13:52:03	446438	5.0.10.0	4_exp_AMP_EVA_AWA_CON	96	Rpleas_acq	Oppo	Rpleas	Bmasked	CS_B	2pleas	distractor2	EVAbeforeCON	acq_US_unple_masked	acq3_masked	3	22	453	1	300	300	0	0	502	50	0	0	0	0	0	1	blank2r.bmp	0	1	+	0	1	B1r.bmp	492	1	blank2r.bmp	786	1	BMVZ	786	1	blank2r.bmp	866	5	hindern	866	1	FEHLER	1719	1	!	1292	1	!	1399	0	0	0	0	0	0	0	0	0	0	0	0	0	0	0	0	0	0	0	0	0	0	0	0
012919	13:44:35	13:52:05	448531	5.0.10.0	4_exp_AMP_EVA_AWA_CON	96	Rpleas_acq	Oppo	Rpleas	Bmasked	CS_B	2pleas	distractor2	EVAbeforeCON	acq_US_unple_masked	acq3_masked	3	23	453	1	300	300	0	0	505	46	0	1	0	0	0	1	blank2r.bmp	0	1	+	0	5	C1r.bmp	492	1	blank2r.bmp	786	1	BMVZ	786	1	blank2r.bmp	866	2	faul	866	1	!	1292	1	!	1412	0	0	0	0	0	0	0	0	0	0	0	0	0	0	0	0	0	0	0	0	0	0	0	0	0	0	0
012919	13:44:35	13:52:07	450770	5.0.10.0	4_exp_AMP_EVA_AWA_CON	96	Rpleas_acq	Oppo	Rpleas	Bmasked	CS_B	2pleas	distractor2	EVAbeforeCON	acq_US_pleas_masked	acq3_masked	3	24	453	1	300	300	0	0	450	50	0	1	0	0	0	1	blank2r.bmp	0	1	+	0	6	C2r.bmp	492	1	blank2r.bmp	786	1	GKQX	786	1	blank2r.bmp	866	3	retten	866	1	!	1292	1	!	1346	0	0	0	0	0	0	0	0	0	0	0	0	0	0	0	0	0	0	0	0	0	0	0	0	0	0	0
012919	13:44:35	13:52:09	453022	5.0.10.0	4_exp_AMP_EVA_AWA_CON	96	Rpleas_acq	Oppo	Rpleas	Bmasked	CS_B	2pleas	distractor2	EVAbeforeCON	acq_US_unple_masked	acq3_masked	3	25	453	1	300	300	0	0	440	46	0	1	0	0	0	1	blank2r.bmp	0	1	+	0	6	C2r.bmp	492	1	blank2r.bmp	786	1	BMVZ	786	1	blank2r.bmp	866	3	rächen	866	1	!	1292	1	!	1346	0	0	0	0	0	0	0	0	0	0	0	0	0	0	0	0	0	0	0	0	0	0	0	0	0	0	0
012919	13:44:35	13:52:11	455274	5.0.10.0	4_exp_AMP_EVA_AWA_CON	96	Rpleas_acq	Oppo	Rpleas	Bmasked	CS_B	2pleas	distractor2	EVAbeforeCON	acq_US_unple_masked	acq3_masked	3	26	453	1	300	300	0	0	454	46	0	1	0	0	0	1	blank2r.bmp	0	1	+	0	4	B4r.bmp	492	1	blank2r.bmp	786	1	BMVZ	786	1	blank2r.bmp	866	5	hindern	866	1	!	1292	1	!	1359	0	0	0	0	0	0	0	0	0	0	0	0	0	0	0	0	0	0	0	0	0	0	0	0	0	0	0
012919	13:44:35	13:52:14	457713	5.0.10.0	4_exp_AMP_EVA_AWA_CON	96	Rpleas_acq	Oppo	Rpleas	Bmasked	CS_B	2pleas	distractor2	EVAbeforeCON	acq_US_pleas_masked	acq3_masked	3	27	453	1	300	300	0	0	438	46	0	0	0	0	0	1	blank2r.bmp	0	1	+	0	1	B1r.bmp	492	1	blank2r.bmp	786	1	GKQX	786	1	blank2r.bmp	866	4	tolerant	866	1	FEHLER	1652	1	!	1292	1	!	1332	0	0	0	0	0	0	0	0	0	0	0	0	0	0	0	0	0	0	0	0	0	0	0	0
012919	13:44:35	13:52:16	459912	5.0.10.0	4_exp_AMP_EVA_AWA_CON	96	Rpleas_acq	Oppo	Rpleas	Bmasked	CS_B	2pleas	distractor2	EVAbeforeCON	acq_US_pleas_masked	acq3_masked	3	28	453	1	300	300	0	0	402	46	0	0	0	0	0	1	blank2r.bmp	0	1	+	0	5	C1r.bmp	492	1	blank2r.bmp	786	1	GKQX	786	1	blank2r.bmp	866	3	retten	866	1	FEHLER	1625	1	!	1292	1	!	1306	0	0	0	0	0	0	0	0	0	0	0	0	0	0	0	0	0	0	0	0	0	0	0	0
012919	13:44:35	13:52:18	461938	5.0.10.0	4_exp_AMP_EVA_AWA_CON	96	Rpleas_acq	Oppo	Rpleas	Bmasked	CS_B	2pleas	distractor2	EVAbeforeCON	acq_US_pleas_masked	acq3_masked	3	29	453	1	300	300	0	0	439	50	0	1	0	0	0	1	blank2r.bmp	0	1	+	0	2	B2r.bmp	492	1	blank2r.bmp	786	1	GKQX	786	1	blank2r.bmp	866	5	helfen	866	1	!	1292	1	!	1346	0	0	0	0	0	0	0	0	0	0	0	0	0	0	0	0	0	0	0	0	0	0	0	0	0	0	0
012919	13:44:35	13:52:20	464191	5.0.10.0	4_exp_AMP_EVA_AWA_CON	96	Rpleas_acq	Oppo	Rpleas	Bmasked	CS_B	2pleas	distractor2	EVAbeforeCON	acq_US_pleas_masked	acq3_masked	3	30	453	1	300	300	0	0	442	50	0	1	0	0	0	1	blank2r.bmp	0	1	+	0	8	C4r.bmp	492	1	blank2r.bmp	786	1	GKQX	786	1	blank2r.bmp	866	6	schlau	866	1	!	1292	1	!	1346	0	0	0	0	0	0	0	0	0	0	0	0	0	0	0	0	0	0	0	0	0	0	0	0	0	0	0
012919	13:44:35	13:52:22	466323	5.0.10.0	4_exp_AMP_EVA_AWA_CON	96	Rpleas_acq	Oppo	Rpleas	Bmasked	CS_B	2pleas	distractor2	EVAbeforeCON	acq_US_unple_masked	acq3_masked	3	31	453	0	300	300	0	0	371	46	0	1	0	0	0	1	blank2r.bmp	0	1	+	0	3	B3r.bmp	492	1	blank2r.bmp	786	1	BMVZ	786	1	blank2r.bmp	866	2	faul	866	1	!	-1	1	!	-1	0	0	0	0	0	0	0	0	0	0	0	0	0	0	0	0	0	0	0	0	0	0	0	0	0	0	0
012919	13:44:35	13:52:25	468589	5.0.10.0	4_exp_AMP_EVA_AWA_CON	96	Rpleas_acq	Oppo	Rpleas	Bmasked	CS_B	2pleas	distractor2	EVAbeforeCON	acq_US_unple_masked	acq3_masked	3	32	453	1	300	300	0	0	449	46	0	1	0	0	0	1	blank2r.bmp	0	1	+	0	7	C3r.bmp	492	1	blank2r.bmp	786	1	BMVZ	786	1	blank2r.bmp	866	4	tyrannisch	866	1	!	1292	1	!	1346	0	0	0	0	0	0	0	0	0	0	0	0	0	0	0	0	0	0	0	0	0	0	0	0	0	0	0
012919	13:44:35	13:52:27	471014	5.0.10.0	4_exp_AMP_EVA_AWA_CON	96	Rpleas_acq	Oppo	Rpleas	Bmasked	CS_B	2pleas	distractor2	EVAbeforeCON	acq_US_unple_masked	acq3_masked	3	33	453	1	300	300	0	0	427	50	0	0	0	0	0	1	blank2r.bmp	0	1	+	0	2	B2r.bmp	492	1	blank2r.bmp	786	1	BMVZ	786	1	blank2r.bmp	866	1	lasch	866	1	FEHLER	1652	1	!	1292	1	!	1332	0	0	0	0	0	0	0	0	0	0	0	0	0	0	0	0	0	0	0	0	0	0	0	0
012919	13:44:35	13:52:29	473067	5.0.10.0	4_exp_AMP_EVA_AWA_CON	96	Rpleas_acq	Oppo	Rpleas	Bmasked	CS_B	2pleas	distractor2	EVAbeforeCON	acq_US_unple_masked	acq3_masked	3	34	453	1	300	300	0	0	450	46	0	1	0	0	0	1	blank2r.bmp	0	1	+	0	1	B1r.bmp	492	1	blank2r.bmp	786	1	BMVZ	786	1	blank2r.bmp	866	6	schroff	866	1	!	1292	1	!	1346	0	0	0	0	0	0	0	0	0	0	0	0	0	0	0	0	0	0	0	0	0	0	0	0	0	0	0
012919	13:44:35	13:52:32	475479	5.0.10.0	4_exp_AMP_EVA_AWA_CON	96	Rpleas_acq	Oppo	Rpleas	Bmasked	CS_B	2pleas	distractor2	EVAbeforeCON	acq_US_pleas_masked	acq3_masked	3	35	453	1	300	300	0	0	402	46	0	0	0	0	0	1	blank2r.bmp	0	1	+	0	5	C1r.bmp	492	1	blank2r.bmp	786	1	GKQX	786	1	blank2r.bmp	866	1	loyal	866	1	FEHLER	1625	1	!	1292	1	!	1306	0	0	0	0	0	0	0	0	0	0	0	0	0	0	0	0	0	0	0	0	0	0	0	0
012919	13:44:35	13:52:34	477732	5.0.10.0	4_exp_AMP_EVA_AWA_CON	96	Rpleas_acq	Oppo	Rpleas	Bmasked	CS_B	2pleas	distractor2	EVAbeforeCON	acq_US_pleas_masked	acq3_masked	3	36	453	1	300	300	0	0	464	46	0	0	0	0	0	1	blank2r.bmp	0	1	+	0	7	C3r.bmp	492	1	blank2r.bmp	786	1	GKQX	786	1	blank2r.bmp	866	2	fair	866	1	FEHLER	1679	1	!	1292	1	!	1359	0	0	0	0	0	0	0	0	0	0	0	0	0	0	0	0	0	0	0	0	0	0	0	0
012919	13:44:35	13:52:51	494938	5.0.10.0	4_exp_AMP_EVA_AWA_CON	96	Rpleas_acq	Oppo	Rpleas	Bmasked	CS_B	2pleas	distractor2	EVAbeforeCON	acq_US_unple_masked	acq45_masked	4	1	400	0	300	300	0	0	492	46	0	1	0	0	0	1	blank2r.bmp	0	1	+	0	8	C4r.bmp	492	1	blank2r.bmp	786	1	BMVZ	786	1	blank2r.bmp	866	4	tyrannisch	866	1	!	1239	1	!	-1	0	0	0	0	0	0	0	0	0	0	0	0	0	0	0	0	0	0	0	0	0	0	0	0	0	0	0
012919	13:44:35	13:52:53	497163	5.0.10.0	4_exp_AMP_EVA_AWA_CON	96	Rpleas_acq	Oppo	Rpleas	Bmasked	CS_B	2pleas	distractor2	EVAbeforeCON	acq_US_unple_masked	acq45_masked	4	2	400	1	300	300	0	0	412	46	0	1	0	0	0	1	blank2r.bmp	0	1	+	0	4	B4r.bmp	492	1	blank2r.bmp	786	1	BMVZ	786	1	blank2r.bmp	866	2	faul	866	1	!	1239	1	!	1319	0	0	0	0	0	0	0	0	0	0	0	0	0	0	0	0	0	0	0	0	0	0	0	0	0	0	0
012919	13:44:35	13:52:55	499323	5.0.10.0	4_exp_AMP_EVA_AWA_CON	96	Rpleas_acq	Oppo	Rpleas	Bmasked	CS_B	2pleas	distractor2	EVAbeforeCON	acq_US_pleas_masked	acq45_masked	4	3	400	1	300	300	0	0	346	46	0	0	0	0	0	1	blank2r.bmp	0	1	+	0	3	B3r.bmp	492	1	blank2r.bmp	786	1	GKQX	786	1	blank2r.bmp	866	2	fair	866	1	!	1239	1	!	1252	0	0	0	0	0	0	0	0	0	0	0	0	0	0	0	0	0	0	0	0	0	0	0	0	0	0	0
012919	13:44:35	13:52:58	501535	5.0.10.0	4_exp_AMP_EVA_AWA_CON	96	Rpleas_acq	Oppo	Rpleas	Bmasked	CS_B	2pleas	distractor2	EVAbeforeCON	acq_US_unple_masked	acq45_masked	4	4	400	1	300	300	0	0	414	46	0	1	0	0	0	1	blank2r.bmp	0	1	+	0	6	C2r.bmp	492	1	blank2r.bmp	786	1	BMVZ	786	1	blank2r.bmp	866	5	hindern	866	1	!	1239	1	!	1319	0	0	0	0	0	0	0	0	0	0	0	0	0	0	0	0	0	0	0	0	0	0	0	0	0	0	0
012919	13:44:35	13:53:00	503627	5.0.10.0	4_exp_AMP_EVA_AWA_CON	96	Rpleas_acq	Oppo	Rpleas	Bmasked	CS_B	2pleas	distractor2	EVAbeforeCON	acq_US_pleas_masked	acq45_masked	4	5	400	0	300	300	0	0	326	50	0	1	0	0	0	1	blank2r.bmp	0	1	+	0	3	B3r.bmp	492	1	blank2r.bmp	786	1	GKQX	786	1	blank2r.bmp	866	5	helfen	866	1	!	-1	1	!	-1	0	0	0	0	0	0	0	0	0	0	0	0	0	0	0	0	0	0	0	0	0	0	0	0	0	0	0
012919	13:44:35	13:53:02	505866	5.0.10.0	4_exp_AMP_EVA_AWA_CON	96	Rpleas_acq	Oppo	Rpleas	Bmasked	CS_B	2pleas	distractor2	EVAbeforeCON	acq_US_unple_masked	acq45_masked	4	6	400	1	300	300	0	0	427	46	0	1	0	0	0	1	blank2r.bmp	0	1	+	0	5	C1r.bmp	492	1	blank2r.bmp	786	1	BMVZ	786	1	blank2r.bmp	866	3	rächen	866	1	!	1239	1	!	1332	0	0	0	0	0	0	0	0	0	0	0	0	0	0	0	0	0	0	0	0	0	0	0	0	0	0	0
012919	13:44:35	13:53:04	508012	5.0.10.0	4_exp_AMP_EVA_AWA_CON	96	Rpleas_acq	Oppo	Rpleas	Bmasked	CS_B	2pleas	distractor2	EVAbeforeCON	acq_US_pleas_masked	acq45_masked	4	7	400	1	300	300	0	0	350	46	0	0	0	0	0	1	blank2r.bmp	0	1	+	0	2	B2r.bmp	492	1	blank2r.bmp	786	1	GKQX	786	1	blank2r.bmp	866	1	loyal	866	1	!	1239	1	!	1252	0	0	0	0	0	0	0	0	0	0	0	0	0	0	0	0	0	0	0	0	0	0	0	0	0	0	0
012919	13:44:35	13:53:06	510198	5.0.10.0	4_exp_AMP_EVA_AWA_CON	96	Rpleas_acq	Oppo	Rpleas	Bmasked	CS_B	2pleas	distractor2	EVAbeforeCON	acq_US_pleas_masked	acq45_masked	4	8	400	1	300	300	0	0	398	46	0	0	0	0	0	1	blank2r.bmp	0	1	+	0	4	B4r.bmp	492	1	blank2r.bmp	786	1	GKQX	786	1	blank2r.bmp	866	4	tolerant	866	1	!	1239	1	!	1292	0	0	0	0	0	0	0	0	0	0	0	0	0	0	0	0	0	0	0	0	0	0	0	0	0	0	0
012919	13:44:35	13:53:09	512424	5.0.10.0	4_exp_AMP_EVA_AWA_CON	96	Rpleas_acq	Oppo	Rpleas	Bmasked	CS_B	2pleas	distractor2	EVAbeforeCON	acq_US_pleas_masked	acq45_masked	4	9	400	1	300	300	0	0	436	50	0	1	0	0	0	1	blank2r.bmp	0	1	+	0	1	B1r.bmp	492	1	blank2r.bmp	786	1	GKQX	786	1	blank2r.bmp	866	3	retten	866	1	!	1239	1	!	1332	0	0	0	0	0	0	0	0	0	0	0	0	0	0	0	0	0	0	0	0	0	0	0	0	0	0	0
012919	13:44:35	13:53:11	514596	5.0.10.0	4_exp_AMP_EVA_AWA_CON	96	Rpleas_acq	Oppo	Rpleas	Bmasked	CS_B	2pleas	distractor2	EVAbeforeCON	acq_US_unple_masked	acq45_masked	4	10	400	1	300	300	0	0	382	46	0	1	0	0	0	1	blank2r.bmp	0	1	+	0	8	C4r.bmp	492	1	blank2r.bmp	786	1	BMVZ	786	1	blank2r.bmp	866	1	lasch	866	1	!	1239	1	!	1279	0	0	0	0	0	0	0	0	0	0	0	0	0	0	0	0	0	0	0	0	0	0	0	0	0	0	0
012919	13:44:35	13:53:13	516822	5.0.10.0	4_exp_AMP_EVA_AWA_CON	96	Rpleas_acq	Oppo	Rpleas	Bmasked	CS_B	2pleas	distractor2	EVAbeforeCON	acq_US_unple_masked	acq45_masked	4	11	400	1	300	300	0	0	427	46	0	1	0	0	0	1	blank2r.bmp	0	1	+	0	6	C2r.bmp	492	1	blank2r.bmp	786	1	BMVZ	786	1	blank2r.bmp	866	6	schroff	866	1	!	1239	1	!	1332	0	0	0	0	0	0	0	0	0	0	0	0	0	0	0	0	0	0	0	0	0	0	0	0	0	0	0
012919	13:44:35	13:53:15	518994	5.0.10.0	4_exp_AMP_EVA_AWA_CON	96	Rpleas_acq	Oppo	Rpleas	Bmasked	CS_B	2pleas	distractor2	EVAbeforeCON	acq_US_pleas_masked	acq45_masked	4	12	400	1	300	300	0	0	385	50	0	1	0	0	0	1	blank2r.bmp	0	1	+	0	7	C3r.bmp	492	1	blank2r.bmp	786	1	GKQX	786	1	blank2r.bmp	866	6	schlau	866	1	!	1239	1	!	1279	0	0	0	0	0	0	0	0	0	0	0	0	0	0	0	0	0	0	0	0	0	0	0	0	0	0	0
012919	13:44:35	13:53:17	521193	5.0.10.0	4_exp_AMP_EVA_AWA_CON	96	Rpleas_acq	Oppo	Rpleas	Bmasked	CS_B	2pleas	distractor2	EVAbeforeCON	acq_US_unple_masked	acq45_masked	4	13	400	1	300	300	0	0	403	50	0	0	0	0	0	1	blank2r.bmp	0	1	+	0	3	B3r.bmp	492	1	blank2r.bmp	786	1	BMVZ	786	1	blank2r.bmp	866	6	schroff	866	1	!	1239	1	!	1306	0	0	0	0	0	0	0	0	0	0	0	0	0	0	0	0	0	0	0	0	0	0	0	0	0	0	0
012919	13:44:35	13:53:20	523446	5.0.10.0	4_exp_AMP_EVA_AWA_CON	96	Rpleas_acq	Oppo	Rpleas	Bmasked	CS_B	2pleas	distractor2	EVAbeforeCON	acq_US_unple_masked	acq45_masked	4	14	400	0	300	300	0	0	487	46	0	1	0	0	0	1	blank2r.bmp	0	1	+	0	5	C1r.bmp	492	1	blank2r.bmp	786	1	BMVZ	786	1	blank2r.bmp	866	1	lasch	866	1	!	1239	1	!	-1	0	0	0	0	0	0	0	0	0	0	0	0	0	0	0	0	0	0	0	0	0	0	0	0	0	0	0
012919	13:44:35	13:53:22	525525	5.0.10.0	4_exp_AMP_EVA_AWA_CON	96	Rpleas_acq	Oppo	Rpleas	Bmasked	CS_B	2pleas	distractor2	EVAbeforeCON	acq_US_pleas_masked	acq45_masked	4	15	400	0	300	300	0	0	293	50	0	1	0	0	0	1	blank2r.bmp	0	1	+	0	7	C3r.bmp	492	1	blank2r.bmp	786	1	GKQX	786	1	blank2r.bmp	866	3	retten	866	1	!	-1	1	!	-1	0	0	0	0	0	0	0	0	0	0	0	0	0	0	0	0	0	0	0	0	0	0	0	0	0	0	0
012919	13:44:35	13:53:24	527577	5.0.10.0	4_exp_AMP_EVA_AWA_CON	96	Rpleas_acq	Oppo	Rpleas	Bmasked	CS_B	2pleas	distractor2	EVAbeforeCON	acq_US_unple_masked	acq45_masked	4	16	400	0	300	300	0	0	256	46	0	1	0	0	0	1	blank2r.bmp	0	1	+	0	4	B4r.bmp	492	1	blank2r.bmp	786	1	BMVZ	786	1	blank2r.bmp	866	3	rächen	866	1	!	-1	1	!	-1	0	0	0	0	0	0	0	0	0	0	0	0	0	0	0	0	0	0	0	0	0	0	0	0	0	0	0
012919	13:44:35	13:53:26	529816	5.0.10.0	4_exp_AMP_EVA_AWA_CON	96	Rpleas_acq	Oppo	Rpleas	Bmasked	CS_B	2pleas	distractor2	EVAbeforeCON	acq_US_pleas_masked	acq45_masked	4	17	400	1	300	300	0	0	437	46	0	0	0	0	0	1	blank2r.bmp	0	1	+	0	2	B2r.bmp	492	1	blank2r.bmp	786	1	GKQX	786	1	blank2r.bmp	866	1	loyal	866	1	!	1239	1	!	1332	0	0	0	0	0	0	0	0	0	0	0	0	0	0	0	0	0	0	0	0	0	0	0	0	0	0	0
012919	13:44:35	13:53:28	532029	5.0.10.0	4_exp_AMP_EVA_AWA_CON	96	Rpleas_acq	Oppo	Rpleas	Bmasked	CS_B	2pleas	distractor2	EVAbeforeCON	acq_US_pleas_masked	acq45_masked	4	18	400	1	300	300	0	0	415	50	0	1	0	0	0	1	blank2r.bmp	0	1	+	0	1	B1r.bmp	492	1	blank2r.bmp	786	1	GKQX	786	1	blank2r.bmp	866	5	helfen	866	1	!	1239	1	!	1319	0	0	0	0	0	0	0	0	0	0	0	0	0	0	0	0	0	0	0	0	0	0	0	0	0	0	0
012919	13:44:35	13:53:30	534188	5.0.10.0	4_exp_AMP_EVA_AWA_CON	96	Rpleas_acq	Oppo	Rpleas	Bmasked	CS_B	2pleas	distractor2	EVAbeforeCON	acq_US_unple_masked	acq45_masked	4	19	400	1	300	300	0	0	354	46	0	1	0	0	0	1	blank2r.bmp	0	1	+	0	8	C4r.bmp	492	1	blank2r.bmp	786	1	BMVZ	786	1	blank2r.bmp	866	5	hindern	866	1	!	1239	1	!	1252	0	0	0	0	0	0	0	0	0	0	0	0	0	0	0	0	0	0	0	0	0	0	0	0	0	0	0
012919	13:44:35	13:53:32	536347	5.0.10.0	4_exp_AMP_EVA_AWA_CON	96	Rpleas_acq	Oppo	Rpleas	Bmasked	CS_B	2pleas	distractor2	EVAbeforeCON	acq_US_unple_masked	acq45_masked	4	20	400	1	300	300	0	0	369	46	0	1	0	0	0	1	blank2r.bmp	0	1	+	0	6	C2r.bmp	492	1	blank2r.bmp	786	1	BMVZ	786	1	blank2r.bmp	866	4	tyrannisch	866	1	!	1239	1	!	1266	0	0	0	0	0	0	0	0	0	0	0	0	0	0	0	0	0	0	0	0	0	0	0	0	0	0	0
012919	13:44:35	13:53:35	538533	5.0.10.0	4_exp_AMP_EVA_AWA_CON	96	Rpleas_acq	Oppo	Rpleas	Bmasked	CS_B	2pleas	distractor2	EVAbeforeCON	acq_US_unple_masked	acq45_masked	4	21	400	1	300	300	0	0	391	46	0	1	0	0	0	1	blank2r.bmp	0	1	+	0	4	B4r.bmp	492	1	blank2r.bmp	786	1	BMVZ	786	1	blank2r.bmp	866	2	faul	866	1	!	1239	1	!	1292	0	0	0	0	0	0	0	0	0	0	0	0	0	0	0	0	0	0	0	0	0	0	0	0	0	0	0
012919	13:44:35	13:53:37	540732	5.0.10.0	4_exp_AMP_EVA_AWA_CON	96	Rpleas_acq	Oppo	Rpleas	Bmasked	CS_B	2pleas	distractor2	EVAbeforeCON	acq_US_pleas_masked	acq45_masked	4	22	400	1	300	300	0	0	403	50	0	1	0	0	0	1	blank2r.bmp	0	1	+	0	8	C4r.bmp	492	1	blank2r.bmp	786	1	GKQX	786	1	blank2r.bmp	866	4	tolerant	866	1	!	1239	1	!	1306	0	0	0	0	0	0	0	0	0	0	0	0	0	0	0	0	0	0	0	0	0	0	0	0	0	0	0
012919	13:44:35	13:53:39	542984	5.0.10.0	4_exp_AMP_EVA_AWA_CON	96	Rpleas_acq	Oppo	Rpleas	Bmasked	CS_B	2pleas	distractor2	EVAbeforeCON	acq_US_unple_masked	acq45_masked	4	23	400	1	300	300	0	0	454	46	0	1	0	0	0	1	blank2r.bmp	0	1	+	0	6	C2r.bmp	492	1	blank2r.bmp	786	1	BMVZ	786	1	blank2r.bmp	866	5	hindern	866	1	!	1239	1	!	1359	0	0	0	0	0	0	0	0	0	0	0	0	0	0	0	0	0	0	0	0	0	0	0	0	0	0	0
012919	13:44:35	13:53:41	545157	5.0.10.0	4_exp_AMP_EVA_AWA_CON	96	Rpleas_acq	Oppo	Rpleas	Bmasked	CS_B	2pleas	distractor2	EVAbeforeCON	acq_US_pleas_masked	acq45_masked	4	24	400	1	300	300	0	0	379	50	0	1	0	0	0	1	blank2r.bmp	0	1	+	0	1	B1r.bmp	492	1	blank2r.bmp	786	1	GKQX	786	1	blank2r.bmp	866	6	schlau	866	1	!	1239	1	!	1279	0	0	0	0	0	0	0	0	0	0	0	0	0	0	0	0	0	0	0	0	0	0	0	0	0	0	0
012919	13:44:35	13:53:43	547356	5.0.10.0	4_exp_AMP_EVA_AWA_CON	96	Rpleas_acq	Oppo	Rpleas	Bmasked	CS_B	2pleas	distractor2	EVAbeforeCON	acq_US_unple_masked	acq45_masked	4	25	400	1	300	300	0	0	404	46	0	1	0	0	0	1	blank2r.bmp	0	1	+	0	2	B2r.bmp	492	1	blank2r.bmp	786	1	BMVZ	786	1	blank2r.bmp	866	2	faul	866	1	!	1239	1	!	1306	0	0	0	0	0	0	0	0	0	0	0	0	0	0	0	0	0	0	0	0	0	0	0	0	0	0	0
012919	13:44:35	13:53:46	549555	5.0.10.0	4_exp_AMP_EVA_AWA_CON	96	Rpleas_acq	Oppo	Rpleas	Bmasked	CS_B	2pleas	distractor2	EVAbeforeCON	acq_US_pleas_masked	acq45_masked	4	26	400	1	300	300	0	0	405	46	0	0	0	0	0	1	blank2r.bmp	0	1	+	0	3	B3r.bmp	492	1	blank2r.bmp	786	1	GKQX	786	1	blank2r.bmp	866	2	fair	866	1	!	1239	1	!	1306	0	0	0	0	0	0	0	0	0	0	0	0	0	0	0	0	0	0	0	0	0	0	0	0	0	0	0
012919	13:44:35	13:53:48	551767	5.0.10.0	4_exp_AMP_EVA_AWA_CON	96	Rpleas_acq	Oppo	Rpleas	Bmasked	CS_B	2pleas	distractor2	EVAbeforeCON	acq_US_pleas_masked	acq45_masked	4	27	400	1	300	300	0	0	414	50	0	1	0	0	0	1	blank2r.bmp	0	1	+	0	5	C1r.bmp	492	1	blank2r.bmp	786	1	GKQX	786	1	blank2r.bmp	866	1	loyal	866	1	!	1239	1	!	1319	0	0	0	0	0	0	0	0	0	0	0	0	0	0	0	0	0	0	0	0	0	0	0	0	0	0	0
012919	13:44:35	13:53:50	553966	5.0.10.0	4_exp_AMP_EVA_AWA_CON	96	Rpleas_acq	Oppo	Rpleas	Bmasked	CS_B	2pleas	distractor2	EVAbeforeCON	acq_US_pleas_masked	acq45_masked	4	28	400	1	300	300	0	0	401	50	0	1	0	0	0	1	blank2r.bmp	0	1	+	0	7	C3r.bmp	492	1	blank2r.bmp	786	1	GKQX	786	1	blank2r.bmp	866	2	fair	866	1	!	1239	1	!	1306	0	0	0	0	0	0	0	0	0	0	0	0	0	0	0	0	0	0	0	0	0	0	0	0	0	0	0
012919	13:44:35	13:53:52	556139	5.0.10.0	4_exp_AMP_EVA_AWA_CON	96	Rpleas_acq	Oppo	Rpleas	Bmasked	CS_B	2pleas	distractor2	EVAbeforeCON	acq_US_pleas_masked	acq45_masked	4	29	400	1	300	300	0	0	373	50	0	1	0	0	0	1	blank2r.bmp	0	1	+	0	1	B1r.bmp	492	1	blank2r.bmp	786	1	GKQX	786	1	blank2r.bmp	866	3	retten	866	1	!	1239	1	!	1279	0	0	0	0	0	0	0	0	0	0	0	0	0	0	0	0	0	0	0	0	0	0	0	0	0	0	0
012919	13:44:35	13:53:54	558191	5.0.10.0	4_exp_AMP_EVA_AWA_CON	96	Rpleas_acq	Oppo	Rpleas	Bmasked	CS_B	2pleas	distractor2	EVAbeforeCON	acq_US_pleas_masked	acq45_masked	4	30	400	0	300	300	0	0	290	46	0	0	0	0	0	1	blank2r.bmp	0	1	+	0	7	C3r.bmp	492	1	blank2r.bmp	786	1	GKQX	786	1	blank2r.bmp	866	4	tolerant	866	1	!	-1	1	!	-1	0	0	0	0	0	0	0	0	0	0	0	0	0	0	0	0	0	0	0	0	0	0	0	0	0	0	0
012919	13:44:35	13:53:57	560484	5.0.10.0	4_exp_AMP_EVA_AWA_CON	96	Rpleas_acq	Oppo	Rpleas	Bmasked	CS_B	2pleas	distractor2	EVAbeforeCON	acq_US_pleas_masked	acq45_masked	4	31	400	0	300	300	0	0	493	50	0	1	0	0	0	1	blank2r.bmp	0	1	+	0	6	C2r.bmp	492	1	blank2r.bmp	786	1	GKQX	786	1	blank2r.bmp	866	5	helfen	866	1	!	1239	1	!	-1	0	0	0	0	0	0	0	0	0	0	0	0	0	0	0	0	0	0	0	0	0	0	0	0	0	0	0
012919	13:44:35	13:53:59	562656	5.0.10.0	4_exp_AMP_EVA_AWA_CON	96	Rpleas_acq	Oppo	Rpleas	Bmasked	CS_B	2pleas	distractor2	EVAbeforeCON	acq_US_pleas_masked	acq45_masked	4	32	400	1	300	300	0	0	370	50	0	1	0	0	0	1	blank2r.bmp	0	1	+	0	5	C1r.bmp	492	1	blank2r.bmp	786	1	GKQX	786	1	blank2r.bmp	866	6	schlau	866	1	!	1239	1	!	1266	0	0	0	0	0	0	0	0	0	0	0	0	0	0	0	0	0	0	0	0	0	0	0	0	0	0	0
012919	13:44:35	13:54:01	564735	5.0.10.0	4_exp_AMP_EVA_AWA_CON	96	Rpleas_acq	Oppo	Rpleas	Bmasked	CS_B	2pleas	distractor2	EVAbeforeCON	acq_US_unple_masked	acq45_masked	4	33	400	0	300	300	0	0	316	50	0	0	0	0	0	1	blank2r.bmp	0	1	+	0	2	B2r.bmp	492	1	blank2r.bmp	786	1	BMVZ	786	1	blank2r.bmp	866	1	lasch	866	1	!	-1	1	!	-1	0	0	0	0	0	0	0	0	0	0	0	0	0	0	0	0	0	0	0	0	0	0	0	0	0	0	0
012919	13:44:35	13:54:03	567001	5.0.10.0	4_exp_AMP_EVA_AWA_CON	96	Rpleas_acq	Oppo	Rpleas	Bmasked	CS_B	2pleas	distractor2	EVAbeforeCON	acq_US_unple_masked	acq45_masked	4	34	400	0	300	300	0	0	479	46	0	1	0	0	0	1	blank2r.bmp	0	1	+	0	3	B3r.bmp	492	1	blank2r.bmp	786	1	BMVZ	786	1	blank2r.bmp	866	3	rächen	866	1	!	1239	1	!	-1	0	0	0	0	0	0	0	0	0	0	0	0	0	0	0	0	0	0	0	0	0	0	0	0	0	0	0
012919	13:44:35	13:54:05	569266	5.0.10.0	4_exp_AMP_EVA_AWA_CON	96	Rpleas_acq	Oppo	Rpleas	Bmasked	CS_B	2pleas	distractor2	EVAbeforeCON	acq_US_unple_masked	acq45_masked	4	35	400	0	300	300	0	0	479	46	0	1	0	0	0	1	blank2r.bmp	0	1	+	0	8	C4r.bmp	492	1	blank2r.bmp	786	1	BMVZ	786	1	blank2r.bmp	866	6	schroff	866	1	!	1239	1	!	-1	0	0	0	0	0	0	0	0	0	0	0	0	0	0	0	0	0	0	0	0	0	0	0	0	0	0	0
012919	13:44:35	13:54:08	571519	5.0.10.0	4_exp_AMP_EVA_AWA_CON	96	Rpleas_acq	Oppo	Rpleas	Bmasked	CS_B	2pleas	distractor2	EVAbeforeCON	acq_US_unple_masked	acq45_masked	4	36	400	1	300	300	0	0	447	46	0	1	0	0	0	1	blank2r.bmp	0	1	+	0	4	B4r.bmp	492	1	blank2r.bmp	786	1	BMVZ	786	1	blank2r.bmp	866	4	tyrannisch	866	1	!	1239	1	!	1346	0	0	0	0	0	0	0	0	0	0	0	0	0	0	0	0	0	0	0	0	0	0	0	0	0	0	0
012919	13:44:35	13:54:25	589245	5.0.10.0	4_exp_AMP_EVA_AWA_CON	96	Rpleas_acq	Oppo	Rpleas	Bmasked	CS_B	2pleas	distractor2	EVAbeforeCON	acq_US_pleas_masked	acq45_masked	5	1	400	1	300	300	0	0	414	50	0	1	0	0	0	1	blank2r.bmp	0	1	+	0	2	B2r.bmp	492	1	blank2r.bmp	786	1	GKQX	786	1	blank2r.bmp	866	1	loyal	866	1	!	1239	1	!	1319	0	0	0	0	0	0	0	0	0	0	0	0	0	0	0	0	0	0	0	0	0	0	0	0	0	0	0
012919	13:44:35	13:54:27	591391	5.0.10.0	4_exp_AMP_EVA_AWA_CON	96	Rpleas_acq	Oppo	Rpleas	Bmasked	CS_B	2pleas	distractor2	EVAbeforeCON	acq_US_unple_masked	acq45_masked	5	2	400	1	300	300	0	0	346	46	0	1	0	0	0	1	blank2r.bmp	0	1	+	0	8	C4r.bmp	492	1	blank2r.bmp	786	1	BMVZ	786	1	blank2r.bmp	866	2	faul	866	1	!	1239	1	!	1252	0	0	0	0	0	0	0	0	0	0	0	0	0	0	0	0	0	0	0	0	0	0	0	0	0	0	0
012919	13:44:35	13:54:30	593590	5.0.10.0	4_exp_AMP_EVA_AWA_CON	96	Rpleas_acq	Oppo	Rpleas	Bmasked	CS_B	2pleas	distractor2	EVAbeforeCON	acq_US_unple_masked	acq45_masked	5	3	400	1	300	300	0	0	409	50	0	0	0	0	0	1	blank2r.bmp	0	1	+	0	4	B4r.bmp	492	1	blank2r.bmp	786	1	BMVZ	786	1	blank2r.bmp	866	3	rächen	866	1	!	1239	1	!	1306	0	0	0	0	0	0	0	0	0	0	0	0	0	0	0	0	0	0	0	0	0	0	0	0	0	0	0
012919	13:44:35	13:54:32	595735	5.0.10.0	4_exp_AMP_EVA_AWA_CON	96	Rpleas_acq	Oppo	Rpleas	Bmasked	CS_B	2pleas	distractor2	EVAbeforeCON	acq_US_unple_masked	acq45_masked	5	4	400	1	300	300	0	0	354	46	0	1	0	0	0	1	blank2r.bmp	0	1	+	0	6	C2r.bmp	492	1	blank2r.bmp	786	1	BMVZ	786	1	blank2r.bmp	866	1	lasch	866	1	!	1239	1	!	1252	0	0	0	0	0	0	0	0	0	0	0	0	0	0	0	0	0	0	0	0	0	0	0	0	0	0	0
012919	13:44:35	13:54:34	597948	5.0.10.0	4_exp_AMP_EVA_AWA_CON	96	Rpleas_acq	Oppo	Rpleas	Bmasked	CS_B	2pleas	distractor2	EVAbeforeCON	acq_US_pleas_masked	acq45_masked	5	5	400	1	300	300	0	0	418	46	0	0	0	0	0	1	blank2r.bmp	0	1	+	0	5	C1r.bmp	492	1	blank2r.bmp	786	1	GKQX	786	1	blank2r.bmp	866	4	tolerant	866	1	!	1239	1	!	1319	0	0	0	0	0	0	0	0	0	0	0	0	0	0	0	0	0	0	0	0	0	0	0	0	0	0	0
012919	13:44:35	13:54:36	600160	5.0.10.0	4_exp_AMP_EVA_AWA_CON	96	Rpleas_acq	Oppo	Rpleas	Bmasked	CS_B	2pleas	distractor2	EVAbeforeCON	acq_US_pleas_masked	acq45_masked	5	6	400	1	300	300	0	0	422	50	0	1	0	0	0	1	blank2r.bmp	0	1	+	0	3	B3r.bmp	492	1	blank2r.bmp	786	1	GKQX	786	1	blank2r.bmp	866	3	retten	866	1	!	1239	1	!	1319	0	0	0	0	0	0	0	0	0	0	0	0	0	0	0	0	0	0	0	0	0	0	0	0	0	0	0
012919	13:44:35	13:54:38	602333	5.0.10.0	4_exp_AMP_EVA_AWA_CON	96	Rpleas_acq	Oppo	Rpleas	Bmasked	CS_B	2pleas	distractor2	EVAbeforeCON	acq_US_pleas_masked	acq45_masked	5	7	400	1	300	300	0	0	382	46	0	0	0	0	0	1	blank2r.bmp	0	1	+	0	7	C3r.bmp	492	1	blank2r.bmp	786	1	GKQX	786	1	blank2r.bmp	866	6	schlau	866	1	!	1239	1	!	1279	0	0	0	0	0	0	0	0	0	0	0	0	0	0	0	0	0	0	0	0	0	0	0	0	0	0	0
012919	13:44:35	13:54:41	604505	5.0.10.0	4_exp_AMP_EVA_AWA_CON	96	Rpleas_acq	Oppo	Rpleas	Bmasked	CS_B	2pleas	distractor2	EVAbeforeCON	acq_US_pleas_masked	acq45_masked	5	8	400	1	300	300	0	0	385	46	0	0	0	0	0	1	blank2r.bmp	0	1	+	0	1	B1r.bmp	492	1	blank2r.bmp	786	1	GKQX	786	1	blank2r.bmp	866	2	fair	866	1	!	1239	1	!	1279	0	0	0	0	0	0	0	0	0	0	0	0	0	0	0	0	0	0	0	0	0	0	0	0	0	0	0
012919	13:44:35	13:54:43	606704	5.0.10.0	4_exp_AMP_EVA_AWA_CON	96	Rpleas_acq	Oppo	Rpleas	Bmasked	CS_B	2pleas	distractor2	EVAbeforeCON	acq_US_unple_masked	acq45_masked	5	9	400	1	300	300	0	0	389	46	0	1	0	0	0	1	blank2r.bmp	0	1	+	0	6	C2r.bmp	492	1	blank2r.bmp	786	1	BMVZ	786	1	blank2r.bmp	866	6	schroff	866	1	!	1239	1	!	1292	0	0	0	0	0	0	0	0	0	0	0	0	0	0	0	0	0	0	0	0	0	0	0	0	0	0	0
012919	13:44:35	13:54:45	608903	5.0.10.0	4_exp_AMP_EVA_AWA_CON	96	Rpleas_acq	Oppo	Rpleas	Bmasked	CS_B	2pleas	distractor2	EVAbeforeCON	acq_US_unple_masked	acq45_masked	5	10	400	1	300	300	0	0	386	46	0	1	0	0	0	1	blank2r.bmp	0	1	+	0	1	B1r.bmp	492	1	blank2r.bmp	786	1	BMVZ	786	1	blank2r.bmp	866	4	tyrannisch	866	1	!	1239	1	!	1292	0	0	0	0	0	0	0	0	0	0	0	0	0	0	0	0	0	0	0	0	0	0	0	0	0	0	0
012919	13:44:35	13:54:47	611222	5.0.10.0	4_exp_AMP_EVA_AWA_CON	96	Rpleas_acq	Oppo	Rpleas	Bmasked	CS_B	2pleas	distractor2	EVAbeforeCON	acq_US_unple_masked	acq45_masked	5	11	400	0	300	300	0	0	556	46	0	1	0	0	0	1	blank2r.bmp	0	1	+	0	8	C4r.bmp	492	1	blank2r.bmp	786	1	BMVZ	786	1	blank2r.bmp	866	5	hindern	866	1	!	1239	1	!	-1	0	0	0	0	0	0	0	0	0	0	0	0	0	0	0	0	0	0	0	0	0	0	0	0	0	0	0
012919	13:44:35	13:54:50	613448	5.0.10.0	4_exp_AMP_EVA_AWA_CON	96	Rpleas_acq	Oppo	Rpleas	Bmasked	CS_B	2pleas	distractor2	EVAbeforeCON	acq_US_unple_masked	acq45_masked	5	12	400	1	300	300	0	0	419	46	0	1	0	0	0	1	blank2r.bmp	0	1	+	0	4	B4r.bmp	492	1	blank2r.bmp	786	1	BMVZ	786	1	blank2r.bmp	866	4	tyrannisch	866	1	!	1239	1	!	1319	0	0	0	0	0	0	0	0	0	0	0	0	0	0	0	0	0	0	0	0	0	0	0	0	0	0	0
012919	13:44:35	13:54:52	615674	5.0.10.0	4_exp_AMP_EVA_AWA_CON	96	Rpleas_acq	Oppo	Rpleas	Bmasked	CS_B	2pleas	distractor2	EVAbeforeCON	acq_US_pleas_masked	acq45_masked	5	13	400	1	300	300	0	0	432	50	0	1	0	0	0	1	blank2r.bmp	0	1	+	0	5	C1r.bmp	492	1	blank2r.bmp	786	1	GKQX	786	1	blank2r.bmp	866	5	helfen	866	1	!	1239	1	!	1332	0	0	0	0	0	0	0	0	0	0	0	0	0	0	0	0	0	0	0	0	0	0	0	0	0	0	0
012919	13:44:35	13:54:54	617726	5.0.10.0	4_exp_AMP_EVA_AWA_CON	96	Rpleas_acq	Oppo	Rpleas	Bmasked	CS_B	2pleas	distractor2	EVAbeforeCON	acq_US_unple_masked	acq45_masked	5	14	400	0	300	300	0	0	287	50	0	0	0	0	0	1	blank2r.bmp	0	1	+	0	3	B3r.bmp	492	1	blank2r.bmp	786	1	BMVZ	786	1	blank2r.bmp	866	3	rächen	866	1	!	-1	1	!	-1	0	0	0	0	0	0	0	0	0	0	0	0	0	0	0	0	0	0	0	0	0	0	0	0	0	0	0
012919	13:44:35	13:54:56	619939	5.0.10.0	4_exp_AMP_EVA_AWA_CON	96	Rpleas_acq	Oppo	Rpleas	Bmasked	CS_B	2pleas	distractor2	EVAbeforeCON	acq_US_unple_masked	acq45_masked	5	15	400	1	300	300	0	0	410	46	0	1	0	0	0	1	blank2r.bmp	0	1	+	0	7	C3r.bmp	492	1	blank2r.bmp	786	1	BMVZ	786	1	blank2r.bmp	866	6	schroff	866	1	!	1239	1	!	1306	0	0	0	0	0	0	0	0	0	0	0	0	0	0	0	0	0	0	0	0	0	0	0	0	0	0	0
012919	13:44:35	13:54:58	622084	5.0.10.0	4_exp_AMP_EVA_AWA_CON	96	Rpleas_acq	Oppo	Rpleas	Bmasked	CS_B	2pleas	distractor2	EVAbeforeCON	acq_US_pleas_masked	acq45_masked	5	16	400	1	300	300	0	0	349	46	0	0	0	0	0	1	blank2r.bmp	0	1	+	0	2	B2r.bmp	492	1	blank2r.bmp	786	1	GKQX	786	1	blank2r.bmp	866	3	retten	866	1	!	1239	1	!	1252	0	0	0	0	0	0	0	0	0	0	0	0	0	0	0	0	0	0	0	0	0	0	0	0	0	0	0
012919	13:44:35	13:55:00	624283	5.0.10.0	4_exp_AMP_EVA_AWA_CON	96	Rpleas_acq	Oppo	Rpleas	Bmasked	CS_B	2pleas	distractor2	EVAbeforeCON	acq_US_pleas_masked	acq45_masked	5	17	400	1	300	300	0	0	401	46	0	0	0	0	0	1	blank2r.bmp	0	1	+	0	8	C4r.bmp	492	1	blank2r.bmp	786	1	GKQX	786	1	blank2r.bmp	866	2	fair	866	1	!	1239	1	!	1306	0	0	0	0	0	0	0	0	0	0	0	0	0	0	0	0	0	0	0	0	0	0	0	0	0	0	0
012919	13:44:35	13:55:03	626509	5.0.10.0	4_exp_AMP_EVA_AWA_CON	96	Rpleas_acq	Oppo	Rpleas	Bmasked	CS_B	2pleas	distractor2	EVAbeforeCON	acq_US_pleas_masked	acq45_masked	5	18	400	1	300	300	0	0	430	50	0	1	0	0	0	1	blank2r.bmp	0	1	+	0	4	B4r.bmp	492	1	blank2r.bmp	786	1	GKQX	786	1	blank2r.bmp	866	4	tolerant	866	1	!	1239	1	!	1332	0	0	0	0	0	0	0	0	0	0	0	0	0	0	0	0	0	0	0	0	0	0	0	0	0	0	0
012919	13:44:35	13:55:05	628721	5.0.10.0	4_exp_AMP_EVA_AWA_CON	96	Rpleas_acq	Oppo	Rpleas	Bmasked	CS_B	2pleas	distractor2	EVAbeforeCON	acq_US_pleas_masked	acq45_masked	5	19	400	1	300	300	0	0	423	46	0	0	0	0	0	1	blank2r.bmp	0	1	+	0	1	B1r.bmp	492	1	blank2r.bmp	786	1	GKQX	786	1	blank2r.bmp	866	5	helfen	866	1	!	1239	1	!	1319	0	0	0	0	0	0	0	0	0	0	0	0	0	0	0	0	0	0	0	0	0	0	0	0	0	0	0
012919	13:44:35	13:55:07	630947	5.0.10.0	4_exp_AMP_EVA_AWA_CON	96	Rpleas_acq	Oppo	Rpleas	Bmasked	CS_B	2pleas	distractor2	EVAbeforeCON	acq_US_pleas_masked	acq45_masked	5	20	400	1	300	300	0	0	427	50	0	1	0	0	0	1	blank2r.bmp	0	1	+	0	2	B2r.bmp	492	1	blank2r.bmp	786	1	GKQX	786	1	blank2r.bmp	866	6	schlau	866	1	!	1239	1	!	1332	0	0	0	0	0	0	0	0	0	0	0	0	0	0	0	0	0	0	0	0	0	0	0	0	0	0	0
012919	13:44:35	13:55:09	633173	5.0.10.0	4_exp_AMP_EVA_AWA_CON	96	Rpleas_acq	Oppo	Rpleas	Bmasked	CS_B	2pleas	distractor2	EVAbeforeCON	acq_US_unple_masked	acq45_masked	5	21	400	1	300	300	0	0	414	46	0	1	0	0	0	1	blank2r.bmp	0	1	+	0	3	B3r.bmp	492	1	blank2r.bmp	786	1	BMVZ	786	1	blank2r.bmp	866	2	faul	866	1	!	1239	1	!	1319	0	0	0	0	0	0	0	0	0	0	0	0	0	0	0	0	0	0	0	0	0	0	0	0	0	0	0
012919	13:44:35	13:55:12	635412	5.0.10.0	4_exp_AMP_EVA_AWA_CON	96	Rpleas_acq	Oppo	Rpleas	Bmasked	CS_B	2pleas	distractor2	EVAbeforeCON	acq_US_unple_masked	acq45_masked	5	22	400	1	300	300	0	0	442	50	0	0	0	0	0	1	blank2r.bmp	0	1	+	0	6	C2r.bmp	492	1	blank2r.bmp	786	1	BMVZ	786	1	blank2r.bmp	866	1	lasch	866	1	!	1239	1	!	1346	0	0	0	0	0	0	0	0	0	0	0	0	0	0	0	0	0	0	0	0	0	0	0	0	0	0	0
012919	13:44:35	13:55:14	637558	5.0.10.0	4_exp_AMP_EVA_AWA_CON	96	Rpleas_acq	Oppo	Rpleas	Bmasked	CS_B	2pleas	distractor2	EVAbeforeCON	acq_US_pleas_masked	acq45_masked	5	23	400	1	300	300	0	0	346	46	0	0	0	0	0	1	blank2r.bmp	0	1	+	0	7	C3r.bmp	492	1	blank2r.bmp	786	1	GKQX	786	1	blank2r.bmp	866	1	loyal	866	1	!	1239	1	!	1252	0	0	0	0	0	0	0	0	0	0	0	0	0	0	0	0	0	0	0	0	0	0	0	0	0	0	0
012919	13:44:35	13:55:16	639810	5.0.10.0	4_exp_AMP_EVA_AWA_CON	96	Rpleas_acq	Oppo	Rpleas	Bmasked	CS_B	2pleas	distractor2	EVAbeforeCON	acq_US_unple_masked	acq45_masked	5	24	400	1	300	300	0	0	464	46	0	1	0	0	0	1	blank2r.bmp	0	1	+	0	5	C1r.bmp	492	1	blank2r.bmp	786	1	BMVZ	786	1	blank2r.bmp	866	5	hindern	866	1	!	1239	1	!	1359	0	0	0	0	0	0	0	0	0	0	0	0	0	0	0	0	0	0	0	0	0	0	0	0	0	0	0
012919	13:44:35	13:55:18	641889	5.0.10.0	4_exp_AMP_EVA_AWA_CON	96	Rpleas_acq	Oppo	Rpleas	Bmasked	CS_B	2pleas	distractor2	EVAbeforeCON	acq_US_pleas_masked	acq45_masked	5	25	400	0	300	300	0	0	317	50	0	1	0	0	0	1	blank2r.bmp	0	1	+	0	4	B4r.bmp	492	1	blank2r.bmp	786	1	GKQX	786	1	blank2r.bmp	866	1	loyal	866	1	!	-1	1	!	-1	0	0	0	0	0	0	0	0	0	0	0	0	0	0	0	0	0	0	0	0	0	0	0	0	0	0	0
012919	13:44:35	13:55:20	644048	5.0.10.0	4_exp_AMP_EVA_AWA_CON	96	Rpleas_acq	Oppo	Rpleas	Bmasked	CS_B	2pleas	distractor2	EVAbeforeCON	acq_US_pleas_masked	acq45_masked	5	26	400	1	300	300	0	0	359	50	0	1	0	0	0	1	blank2r.bmp	0	1	+	0	6	C2r.bmp	492	1	blank2r.bmp	786	1	GKQX	786	1	blank2r.bmp	866	2	fair	866	1	!	1239	1	!	1252	0	0	0	0	0	0	0	0	0	0	0	0	0	0	0	0	0	0	0	0	0	0	0	0	0	0	0
012919	13:44:35	13:55:22	646194	5.0.10.0	4_exp_AMP_EVA_AWA_CON	96	Rpleas_acq	Oppo	Rpleas	Bmasked	CS_B	2pleas	distractor2	EVAbeforeCON	acq_US_pleas_masked	acq45_masked	5	27	400	1	300	300	0	0	352	50	0	1	0	0	0	1	blank2r.bmp	0	1	+	0	2	B2r.bmp	492	1	blank2r.bmp	786	1	GKQX	786	1	blank2r.bmp	866	5	helfen	866	1	!	1239	1	!	1252	0	0	0	0	0	0	0	0	0	0	0	0	0	0	0	0	0	0	0	0	0	0	0	0	0	0	0
012919	13:44:35	13:55:25	648407	5.0.10.0	4_exp_AMP_EVA_AWA_CON	96	Rpleas_acq	Oppo	Rpleas	Bmasked	CS_B	2pleas	distractor2	EVAbeforeCON	acq_US_unple_masked	acq45_masked	5	28	400	1	300	300	0	0	421	46	0	1	0	0	0	1	blank2r.bmp	0	1	+	0	8	C4r.bmp	492	1	blank2r.bmp	786	1	BMVZ	786	1	blank2r.bmp	866	3	rächen	866	1	!	1239	1	!	1319	0	0	0	0	0	0	0	0	0	0	0	0	0	0	0	0	0	0	0	0	0	0	0	0	0	0	0
012919	13:44:35	13:55:27	650499	5.0.10.0	4_exp_AMP_EVA_AWA_CON	96	Rpleas_acq	Oppo	Rpleas	Bmasked	CS_B	2pleas	distractor2	EVAbeforeCON	acq_US_pleas_masked	acq45_masked	5	29	400	0	300	300	0	0	329	50	0	1	0	0	0	1	blank2r.bmp	0	1	+	0	1	B1r.bmp	492	1	blank2r.bmp	786	1	GKQX	786	1	blank2r.bmp	866	6	schlau	866	1	!	-1	1	!	-1	0	0	0	0	0	0	0	0	0	0	0	0	0	0	0	0	0	0	0	0	0	0	0	0	0	0	0
012919	13:44:35	13:55:29	652725	5.0.10.0	4_exp_AMP_EVA_AWA_CON	96	Rpleas_acq	Oppo	Rpleas	Bmasked	CS_B	2pleas	distractor2	EVAbeforeCON	acq_US_pleas_masked	acq45_masked	5	30	400	1	300	300	0	0	421	50	0	1	0	0	0	1	blank2r.bmp	0	1	+	0	3	B3r.bmp	492	1	blank2r.bmp	786	1	GKQX	786	1	blank2r.bmp	866	3	retten	866	1	!	1239	1	!	1319	0	0	0	0	0	0	0	0	0	0	0	0	0	0	0	0	0	0	0	0	0	0	0	0	0	0	0
012919	13:44:35	13:55:31	654964	5.0.10.0	4_exp_AMP_EVA_AWA_CON	96	Rpleas_acq	Oppo	Rpleas	Bmasked	CS_B	2pleas	distractor2	EVAbeforeCON	acq_US_unple_masked	acq45_masked	5	31	400	1	300	300	0	0	428	46	0	1	0	0	0	1	blank2r.bmp	0	1	+	0	7	C3r.bmp	492	1	blank2r.bmp	786	1	BMVZ	786	1	blank2r.bmp	866	6	schroff	866	1	!	1239	1	!	1332	0	0	0	0	0	0	0	0	0	0	0	0	0	0	0	0	0	0	0	0	0	0	0	0	0	0	0
012919	13:44:35	13:55:33	657123	5.0.10.0	4_exp_AMP_EVA_AWA_CON	96	Rpleas_acq	Oppo	Rpleas	Bmasked	CS_B	2pleas	distractor2	EVAbeforeCON	acq_US_unple_masked	acq45_masked	5	32	400	1	300	300	0	0	371	46	0	1	0	0	0	1	blank2r.bmp	0	1	+	0	5	C1r.bmp	492	1	blank2r.bmp	786	1	BMVZ	786	1	blank2r.bmp	866	1	lasch	866	1	!	1239	1	!	1266	0	0	0	0	0	0	0	0	0	0	0	0	0	0	0	0	0	0	0	0	0	0	0	0	0	0	0
012919	13:44:35	13:55:36	659402	5.0.10.0	4_exp_AMP_EVA_AWA_CON	96	Rpleas_acq	Oppo	Rpleas	Bmasked	CS_B	2pleas	distractor2	EVAbeforeCON	acq_US_unple_masked	acq45_masked	5	33	400	0	300	300	0	0	518	46	0	1	0	0	0	1	blank2r.bmp	0	1	+	0	8	C4r.bmp	492	1	blank2r.bmp	786	1	BMVZ	786	1	blank2r.bmp	866	5	hindern	866	1	!	1239	1	!	-1	0	0	0	0	0	0	0	0	0	0	0	0	0	0	0	0	0	0	0	0	0	0	0	0	0	0	0
012919	13:44:35	13:55:38	661574	5.0.10.0	4_exp_AMP_EVA_AWA_CON	96	Rpleas_acq	Oppo	Rpleas	Bmasked	CS_B	2pleas	distractor2	EVAbeforeCON	acq_US_pleas_masked	acq45_masked	5	34	400	1	300	300	0	0	369	46	0	0	0	0	0	1	blank2r.bmp	0	1	+	0	1	B1r.bmp	492	1	blank2r.bmp	786	1	GKQX	786	1	blank2r.bmp	866	4	tolerant	866	1	!	1239	1	!	1266	0	0	0	0	0	0	0	0	0	0	0	0	0	0	0	0	0	0	0	0	0	0	0	0	0	0	0
012919	13:44:35	13:55:40	663827	5.0.10.0	4_exp_AMP_EVA_AWA_CON	96	Rpleas_acq	Oppo	Rpleas	Bmasked	CS_B	2pleas	distractor2	EVAbeforeCON	acq_US_unple_masked	acq45_masked	5	35	400	0	300	300	0	0	480	46	0	1	0	0	0	1	blank2r.bmp	0	1	+	0	2	B2r.bmp	492	1	blank2r.bmp	786	1	BMVZ	786	1	blank2r.bmp	866	2	faul	866	1	!	1239	1	!	-1	0	0	0	0	0	0	0	0	0	0	0	0	0	0	0	0	0	0	0	0	0	0	0	0	0	0	0
012919	13:44:35	13:55:42	666026	5.0.10.0	4_exp_AMP_EVA_AWA_CON	96	Rpleas_acq	Oppo	Rpleas	Bmasked	CS_B	2pleas	distractor2	EVAbeforeCON	acq_US_unple_masked	acq45_masked	5	36	400	1	300	300	0	0	392	46	0	1	0	0	0	1	blank2r.bmp	0	1	+	0	6	C2r.bmp	492	1	blank2r.bmp	786	1	BMVZ	786	1	blank2r.bmp	866	4	tyrannisch	866	1	!	1239	1	!	1292	0	0	0	0	0	0	0	0	0	0	0	0	0	0	0	0	0	0	0	0	0	0	0	0	0	0	0
012919	13:44:35	13:56:58	741474	5.0.10.0	4_exp_AMP_EVA_AWA_CON	96	Rpleas_acq	Oppo	Lpleas	Bmasked	CS_B	2pleas	distractor2	EVAbeforeCON	AMP_distractor	AMP1_masked	6	1	0	0	300	300	0	0	5000	46	0	0	0	0	0	1	blank2r.bmp	0	1	JCRD	0	1	blank2r.bmp	79	63	pic63.bmp	199	1	whitenoise_No3.bmp	306	0	0	0	0	0	0	0	0	0	0	0	0	0	0	0	0	0	0	0	0	0	0	0	0	0	0	0	0	0	0	0	0	0	0	0	0	0	0	0
012919	13:44:35	13:57:03	747245	5.0.10.0	4_exp_AMP_EVA_AWA_CON	96	Rpleas_acq	Oppo	Lpleas	Bmasked	CS_B	2pleas	distractor2	EVAbeforeCON	AMP_CSunple	AMP1_masked	6	2	0	0	300	300	0	0	4845	46	0	0	0	0	0	1	blank2r.bmp	0	1	BMVZ	0	1	blank2r.bmp	79	39	pic39.bmp	199	1	whitenoise_No3.bmp	306	0	0	0	0	0	0	0	0	0	0	0	0	0	0	0	0	0	0	0	0	0	0	0	0	0	0	0	0	0	0	0	0	0	0	0	0	0	0	0
012919	13:44:35	13:57:05	748951	5.0.10.0	4_exp_AMP_EVA_AWA_CON	96	Rpleas_acq	Oppo	Lpleas	Bmasked	CS_B	2pleas	distractor2	EVAbeforeCON	AMP_CSpleas	AMP1_masked	6	3	0	0	300	300	0	0	781	50	0	0	0	0	0	1	blank2r.bmp	0	1	GKQX	0	1	blank2r.bmp	79	86	pic86.bmp	199	1	whitenoise_No3.bmp	306	0	0	0	0	0	0	0	0	0	0	0	0	0	0	0	0	0	0	0	0	0	0	0	0	0	0	0	0	0	0	0	0	0	0	0	0	0	0	0
012919	13:44:35	13:57:07	750617	5.0.10.0	4_exp_AMP_EVA_AWA_CON	96	Rpleas_acq	Oppo	Lpleas	Bmasked	CS_B	2pleas	distractor2	EVAbeforeCON	AMP_CSunple	AMP1_masked	6	4	0	0	300	300	0	0	754	50	0	1	0	0	0	1	blank2r.bmp	0	1	BMVZ	0	1	blank2r.bmp	79	72	pic72.bmp	199	1	whitenoise_No3.bmp	306	0	0	0	0	0	0	0	0	0	0	0	0	0	0	0	0	0	0	0	0	0	0	0	0	0	0	0	0	0	0	0	0	0	0	0	0	0	0	0
012919	13:44:35	13:57:08	752176	5.0.10.0	4_exp_AMP_EVA_AWA_CON	96	Rpleas_acq	Oppo	Lpleas	Bmasked	CS_B	2pleas	distractor2	EVAbeforeCON	AMP_CSpleas	AMP1_masked	6	5	0	0	300	300	0	0	645	46	0	1	0	0	0	1	blank2r.bmp	0	1	GKQX	0	1	blank2r.bmp	79	98	pic98.bmp	199	1	whitenoise_No3.bmp	306	0	0	0	0	0	0	0	0	0	0	0	0	0	0	0	0	0	0	0	0	0	0	0	0	0	0	0	0	0	0	0	0	0	0	0	0	0	0	0
012919	13:44:35	13:57:10	754255	5.0.10.0	4_exp_AMP_EVA_AWA_CON	96	Rpleas_acq	Oppo	Lpleas	Bmasked	CS_B	2pleas	distractor2	EVAbeforeCON	AMP_CSunple	AMP1_masked	6	6	0	0	300	300	0	0	1169	50	0	1	0	0	0	1	blank2r.bmp	0	1	BMVZ	0	1	blank2r.bmp	79	13	pic13.bmp	199	1	whitenoise_No3.bmp	306	0	0	0	0	0	0	0	0	0	0	0	0	0	0	0	0	0	0	0	0	0	0	0	0	0	0	0	0	0	0	0	0	0	0	0	0	0	0	0
012919	13:44:35	13:57:12	756294	5.0.10.0	4_exp_AMP_EVA_AWA_CON	96	Rpleas_acq	Oppo	Lpleas	Bmasked	CS_B	2pleas	distractor2	EVAbeforeCON	AMP_CSpleas	AMP1_masked	6	7	0	0	300	300	0	0	1108	46	0	1	0	0	0	1	blank2r.bmp	0	1	GKQX	0	1	blank2r.bmp	79	125	pic125.bmp	199	1	whitenoise_No3.bmp	306	0	0	0	0	0	0	0	0	0	0	0	0	0	0	0	0	0	0	0	0	0	0	0	0	0	0	0	0	0	0	0	0	0	0	0	0	0	0	0
012919	13:44:35	13:57:14	758374	5.0.10.0	4_exp_AMP_EVA_AWA_CON	96	Rpleas_acq	Oppo	Lpleas	Bmasked	CS_B	2pleas	distractor2	EVAbeforeCON	AMP_CSpleas	AMP1_masked	6	8	0	0	300	300	0	0	1161	50	0	0	0	0	0	1	blank2r.bmp	0	1	GKQX	0	1	blank2r.bmp	79	7	pic7.bmp	199	1	whitenoise_No3.bmp	306	0	0	0	0	0	0	0	0	0	0	0	0	0	0	0	0	0	0	0	0	0	0	0	0	0	0	0	0	0	0	0	0	0	0	0	0	0	0	0
012919	13:44:35	13:57:16	759973	5.0.10.0	4_exp_AMP_EVA_AWA_CON	96	Rpleas_acq	Oppo	Lpleas	Bmasked	CS_B	2pleas	distractor2	EVAbeforeCON	AMP_distractor	AMP1_masked	6	9	0	0	300	300	0	0	686	46	0	0	0	0	0	1	blank2r.bmp	0	1	JCRD	0	1	blank2r.bmp	79	103	pic103.bmp	199	1	whitenoise_No3.bmp	306	0	0	0	0	0	0	0	0	0	0	0	0	0	0	0	0	0	0	0	0	0	0	0	0	0	0	0	0	0	0	0	0	0	0	0	0	0	0	0
012919	13:44:35	13:57:21	764491	5.0.10.0	4_exp_AMP_EVA_AWA_CON	96	Rpleas_acq	Oppo	Lpleas	Bmasked	CS_B	2pleas	distractor2	EVAbeforeCON	AMP_distractor	AMP1_masked	6	10	0	0	300	300	0	0	3594	50	0	0	0	0	0	1	blank2r.bmp	0	1	JCRD	0	1	blank2r.bmp	79	51	pic51.bmp	199	1	whitenoise_No3.bmp	306	0	0	0	0	0	0	0	0	0	0	0	0	0	0	0	0	0	0	0	0	0	0	0	0	0	0	0	0	0	0	0	0	0	0	0	0	0	0	0
012919	13:44:35	13:57:25	768596	5.0.10.0	4_exp_AMP_EVA_AWA_CON	96	Rpleas_acq	Oppo	Lpleas	Bmasked	CS_B	2pleas	distractor2	EVAbeforeCON	AMP_distractor	AMP1_masked	6	11	0	0	300	300	0	0	3179	50	0	0	0	0	0	1	blank2r.bmp	0	1	JCRD	0	1	blank2r.bmp	79	4	pic4.bmp	199	1	whitenoise_No3.bmp	306	0	0	0	0	0	0	0	0	0	0	0	0	0	0	0	0	0	0	0	0	0	0	0	0	0	0	0	0	0	0	0	0	0	0	0	0	0	0	0
012919	13:44:35	13:57:26	770342	5.0.10.0	4_exp_AMP_EVA_AWA_CON	96	Rpleas_acq	Oppo	Lpleas	Bmasked	CS_B	2pleas	distractor2	EVAbeforeCON	AMP_CSpleas	AMP1_masked	6	12	0	0	300	300	0	0	812	46	0	1	0	0	0	1	blank2r.bmp	0	1	GKQX	0	1	blank2r.bmp	79	129	pic129.bmp	199	1	whitenoise_No3.bmp	306	0	0	0	0	0	0	0	0	0	0	0	0	0	0	0	0	0	0	0	0	0	0	0	0	0	0	0	0	0	0	0	0	0	0	0	0	0	0	0
012919	13:44:35	13:57:29	773061	5.0.10.0	4_exp_AMP_EVA_AWA_CON	96	Rpleas_acq	Oppo	Lpleas	Bmasked	CS_B	2pleas	distractor2	EVAbeforeCON	AMP_CSunple	AMP1_masked	6	13	0	0	300	300	0	0	1810	46	0	0	0	0	0	1	blank2r.bmp	0	1	BMVZ	0	1	blank2r.bmp	79	2	pic2.bmp	199	1	whitenoise_No3.bmp	306	0	0	0	0	0	0	0	0	0	0	0	0	0	0	0	0	0	0	0	0	0	0	0	0	0	0	0	0	0	0	0	0	0	0	0	0	0	0	0
012919	13:44:35	13:57:31	774580	5.0.10.0	4_exp_AMP_EVA_AWA_CON	96	Rpleas_acq	Oppo	Lpleas	Bmasked	CS_B	2pleas	distractor2	EVAbeforeCON	AMP_CSunple	AMP1_masked	6	14	0	0	300	300	0	0	590	50	0	1	0	0	0	1	blank2r.bmp	0	1	BMVZ	0	1	blank2r.bmp	79	69	pic69.bmp	199	1	whitenoise_No3.bmp	306	0	0	0	0	0	0	0	0	0	0	0	0	0	0	0	0	0	0	0	0	0	0	0	0	0	0	0	0	0	0	0	0	0	0	0	0	0	0	0
012919	13:44:35	13:57:33	776606	5.0.10.0	4_exp_AMP_EVA_AWA_CON	96	Rpleas_acq	Oppo	Lpleas	Bmasked	CS_B	2pleas	distractor2	EVAbeforeCON	AMP_distractor	AMP1_masked	6	15	0	0	300	300	0	0	1115	50	0	0	0	0	0	1	blank2r.bmp	0	1	JCRD	0	1	blank2r.bmp	79	8	pic8.bmp	199	1	whitenoise_No3.bmp	306	0	0	0	0	0	0	0	0	0	0	0	0	0	0	0	0	0	0	0	0	0	0	0	0	0	0	0	0	0	0	0	0	0	0	0	0	0	0	0
012919	13:44:35	13:57:35	778445	5.0.10.0	4_exp_AMP_EVA_AWA_CON	96	Rpleas_acq	Oppo	Lpleas	Bmasked	CS_B	2pleas	distractor2	EVAbeforeCON	AMP_distractor	AMP1_masked	6	16	0	0	300	300	0	0	922	46	0	0	0	0	0	1	blank2r.bmp	0	1	JCRD	0	1	blank2r.bmp	79	149	pic149.bmp	199	1	whitenoise_No3.bmp	306	0	0	0	0	0	0	0	0	0	0	0	0	0	0	0	0	0	0	0	0	0	0	0	0	0	0	0	0	0	0	0	0	0	0	0	0	0	0	0
012919	13:44:35	13:57:37	780458	5.0.10.0	4_exp_AMP_EVA_AWA_CON	96	Rpleas_acq	Oppo	Lpleas	Bmasked	CS_B	2pleas	distractor2	EVAbeforeCON	AMP_CSpleas	AMP1_masked	6	17	0	0	300	300	0	0	1080	46	0	1	0	0	0	1	blank2r.bmp	0	1	GKQX	0	1	blank2r.bmp	79	22	pic22.bmp	199	1	whitenoise_No3.bmp	306	0	0	0	0	0	0	0	0	0	0	0	0	0	0	0	0	0	0	0	0	0	0	0	0	0	0	0	0	0	0	0	0	0	0	0	0	0	0	0
012919	13:44:35	13:57:38	782204	5.0.10.0	4_exp_AMP_EVA_AWA_CON	96	Rpleas_acq	Oppo	Lpleas	Bmasked	CS_B	2pleas	distractor2	EVAbeforeCON	AMP_CSunple	AMP1_masked	6	18	0	0	300	300	0	0	816	50	0	1	0	0	0	1	blank2r.bmp	0	1	BMVZ	0	1	blank2r.bmp	79	143	pic143.bmp	199	1	whitenoise_No3.bmp	306	0	0	0	0	0	0	0	0	0	0	0	0	0	0	0	0	0	0	0	0	0	0	0	0	0	0	0	0	0	0	0	0	0	0	0	0	0	0	0
012919	13:44:35	13:57:40	783776	5.0.10.0	4_exp_AMP_EVA_AWA_CON	96	Rpleas_acq	Oppo	Lpleas	Bmasked	CS_B	2pleas	distractor2	EVAbeforeCON	AMP_CSpleas	AMP1_masked	6	19	0	0	300	300	0	0	644	50	0	0	0	0	0	1	blank2r.bmp	0	1	GKQX	0	1	blank2r.bmp	79	53	pic53.bmp	199	1	whitenoise_No3.bmp	306	0	0	0	0	0	0	0	0	0	0	0	0	0	0	0	0	0	0	0	0	0	0	0	0	0	0	0	0	0	0	0	0	0	0	0	0	0	0	0
012919	13:44:35	13:57:42	785842	5.0.10.0	4_exp_AMP_EVA_AWA_CON	96	Rpleas_acq	Oppo	Lpleas	Bmasked	CS_B	2pleas	distractor2	EVAbeforeCON	AMP_CSunple	AMP1_masked	6	20	0	0	300	300	0	0	1133	46	0	0	0	0	0	1	blank2r.bmp	0	1	BMVZ	0	1	blank2r.bmp	79	107	pic107.bmp	199	1	whitenoise_No3.bmp	306	0	0	0	0	0	0	0	0	0	0	0	0	0	0	0	0	0	0	0	0	0	0	0	0	0	0	0	0	0	0	0	0	0	0	0	0	0	0	0
012919	13:44:35	13:57:44	788241	5.0.10.0	4_exp_AMP_EVA_AWA_CON	96	Rpleas_acq	Oppo	Lpleas	Bmasked	CS_B	2pleas	distractor2	EVAbeforeCON	AMP_CSpleas	AMP1_masked	6	21	0	0	300	300	0	0	1488	46	0	1	0	0	0	1	blank2r.bmp	0	1	GKQX	0	1	blank2r.bmp	79	132	pic132.bmp	199	1	whitenoise_No3.bmp	306	0	0	0	0	0	0	0	0	0	0	0	0	0	0	0	0	0	0	0	0	0	0	0	0	0	0	0	0	0	0	0	0	0	0	0	0	0	0	0
012919	13:44:35	13:57:46	790054	5.0.10.0	4_exp_AMP_EVA_AWA_CON	96	Rpleas_acq	Oppo	Lpleas	Bmasked	CS_B	2pleas	distractor2	EVAbeforeCON	AMP_CSpleas	AMP1_masked	6	22	0	0	300	300	0	0	880	46	0	1	0	0	0	1	blank2r.bmp	0	1	GKQX	0	1	blank2r.bmp	79	61	pic61.bmp	199	1	whitenoise_No3.bmp	306	0	0	0	0	0	0	0	0	0	0	0	0	0	0	0	0	0	0	0	0	0	0	0	0	0	0	0	0	0	0	0	0	0	0	0	0	0	0	0
012919	13:44:35	13:57:48	791640	5.0.10.0	4_exp_AMP_EVA_AWA_CON	96	Rpleas_acq	Oppo	Lpleas	Bmasked	CS_B	2pleas	distractor2	EVAbeforeCON	AMP_distractor	AMP1_masked	6	23	0	0	300	300	0	0	674	50	0	0	0	0	0	1	blank2r.bmp	0	1	JCRD	0	1	blank2r.bmp	79	153	pic153.bmp	199	1	whitenoise_No3.bmp	306	0	0	0	0	0	0	0	0	0	0	0	0	0	0	0	0	0	0	0	0	0	0	0	0	0	0	0	0	0	0	0	0	0	0	0	0	0	0	0
012919	13:44:35	13:57:49	793119	5.0.10.0	4_exp_AMP_EVA_AWA_CON	96	Rpleas_acq	Oppo	Lpleas	Bmasked	CS_B	2pleas	distractor2	EVAbeforeCON	AMP_distractor	AMP1_masked	6	24	0	0	300	300	0	0	551	46	0	0	0	0	0	1	blank2r.bmp	0	1	JCRD	0	1	blank2r.bmp	79	120	pic120.bmp	199	1	whitenoise_No3.bmp	306	0	0	0	0	0	0	0	0	0	0	0	0	0	0	0	0	0	0	0	0	0	0	0	0	0	0	0	0	0	0	0	0	0	0	0	0	0	0	0
012919	13:44:35	13:57:51	794865	5.0.10.0	4_exp_AMP_EVA_AWA_CON	96	Rpleas_acq	Oppo	Lpleas	Bmasked	CS_B	2pleas	distractor2	EVAbeforeCON	AMP_CSpleas	AMP1_masked	6	25	0	0	300	300	0	0	811	46	0	1	0	0	0	1	blank2r.bmp	0	1	GKQX	0	1	blank2r.bmp	79	30	pic30.bmp	199	1	whitenoise_No3.bmp	306	0	0	0	0	0	0	0	0	0	0	0	0	0	0	0	0	0	0	0	0	0	0	0	0	0	0	0	0	0	0	0	0	0	0	0	0	0	0	0
012919	13:44:35	13:57:54	797490	5.0.10.0	4_exp_AMP_EVA_AWA_CON	96	Rpleas_acq	Oppo	Lpleas	Bmasked	CS_B	2pleas	distractor2	EVAbeforeCON	AMP_CSunple	AMP1_masked	6	26	0	0	300	300	0	0	1715	50	0	1	0	0	0	1	blank2r.bmp	0	1	BMVZ	0	1	blank2r.bmp	79	28	pic28.bmp	199	1	whitenoise_No3.bmp	306	0	0	0	0	0	0	0	0	0	0	0	0	0	0	0	0	0	0	0	0	0	0	0	0	0	0	0	0	0	0	0	0	0	0	0	0	0	0	0
012919	13:44:35	13:57:56	800236	5.0.10.0	4_exp_AMP_EVA_AWA_CON	96	Rpleas_acq	Oppo	Lpleas	Bmasked	CS_B	2pleas	distractor2	EVAbeforeCON	AMP_distractor	AMP1_masked	6	27	0	0	300	300	0	0	1823	46	0	0	0	0	0	1	blank2r.bmp	0	1	JCRD	0	1	blank2r.bmp	79	85	pic85.bmp	199	1	whitenoise_No3.bmp	306	0	0	0	0	0	0	0	0	0	0	0	0	0	0	0	0	0	0	0	0	0	0	0	0	0	0	0	0	0	0	0	0	0	0	0	0	0	0	0
012919	13:44:35	13:57:58	801715	5.0.10.0	4_exp_AMP_EVA_AWA_CON	96	Rpleas_acq	Oppo	Lpleas	Bmasked	CS_B	2pleas	distractor2	EVAbeforeCON	AMP_CSunple	AMP1_masked	6	28	0	0	300	300	0	0	547	46	0	0	0	0	0	1	blank2r.bmp	0	1	BMVZ	0	1	blank2r.bmp	79	137	pic137.bmp	199	1	whitenoise_No3.bmp	306	0	0	0	0	0	0	0	0	0	0	0	0	0	0	0	0	0	0	0	0	0	0	0	0	0	0	0	0	0	0	0	0	0	0	0	0	0	0	0
012919	13:44:35	13:57:59	803288	5.0.10.0	4_exp_AMP_EVA_AWA_CON	96	Rpleas_acq	Oppo	Lpleas	Bmasked	CS_B	2pleas	distractor2	EVAbeforeCON	AMP_CSunple	AMP1_masked	6	29	0	0	300	300	0	0	655	46	0	0	0	0	0	1	blank2r.bmp	0	1	BMVZ	0	1	blank2r.bmp	79	109	pic109.bmp	199	1	whitenoise_No3.bmp	306	0	0	0	0	0	0	0	0	0	0	0	0	0	0	0	0	0	0	0	0	0	0	0	0	0	0	0	0	0	0	0	0	0	0	0	0	0	0	0
012919	13:44:35	13:58:01	804727	5.0.10.0	4_exp_AMP_EVA_AWA_CON	96	Rpleas_acq	Oppo	Lpleas	Bmasked	CS_B	2pleas	distractor2	EVAbeforeCON	AMP_CSpleas	AMP1_masked	6	30	0	0	300	300	0	0	529	46	0	1	0	0	0	1	blank2r.bmp	0	1	GKQX	0	1	blank2r.bmp	79	134	pic134.bmp	199	1	whitenoise_No3.bmp	306	0	0	0	0	0	0	0	0	0	0	0	0	0	0	0	0	0	0	0	0	0	0	0	0	0	0	0	0	0	0	0	0	0	0	0	0	0	0	0
012919	13:44:35	13:58:02	805994	5.0.10.0	4_exp_AMP_EVA_AWA_CON	96	Rpleas_acq	Oppo	Lpleas	Bmasked	CS_B	2pleas	distractor2	EVAbeforeCON	AMP_CSpleas	AMP1_masked	6	31	0	0	300	300	0	0	338	50	0	0	0	0	0	1	blank2r.bmp	0	1	GKQX	0	1	blank2r.bmp	79	65	pic65.bmp	199	1	whitenoise_No3.bmp	306	0	0	0	0	0	0	0	0	0	0	0	0	0	0	0	0	0	0	0	0	0	0	0	0	0	0	0	0	0	0	0	0	0	0	0	0	0	0	0
012919	13:44:35	13:58:04	807566	5.0.10.0	4_exp_AMP_EVA_AWA_CON	96	Rpleas_acq	Oppo	Lpleas	Bmasked	CS_B	2pleas	distractor2	EVAbeforeCON	AMP_CSunple	AMP1_masked	6	32	0	0	300	300	0	0	643	50	0	1	0	0	0	1	blank2r.bmp	0	1	BMVZ	0	1	blank2r.bmp	79	66	pic66.bmp	199	1	whitenoise_No3.bmp	306	0	0	0	0	0	0	0	0	0	0	0	0	0	0	0	0	0	0	0	0	0	0	0	0	0	0	0	0	0	0	0	0	0	0	0	0	0	0	0
012919	13:44:35	13:58:05	809072	5.0.10.0	4_exp_AMP_EVA_AWA_CON	96	Rpleas_acq	Oppo	Lpleas	Bmasked	CS_B	2pleas	distractor2	EVAbeforeCON	AMP_CSunple	AMP1_masked	6	33	0	0	300	300	0	0	572	46	0	0	0	0	0	1	blank2r.bmp	0	1	BMVZ	0	1	blank2r.bmp	79	138	pic138.bmp	199	1	whitenoise_No3.bmp	306	0	0	0	0	0	0	0	0	0	0	0	0	0	0	0	0	0	0	0	0	0	0	0	0	0	0	0	0	0	0	0	0	0	0	0	0	0	0	0
012919	13:44:35	13:58:07	810725	5.0.10.0	4_exp_AMP_EVA_AWA_CON	96	Rpleas_acq	Oppo	Lpleas	Bmasked	CS_B	2pleas	distractor2	EVAbeforeCON	AMP_distractor	AMP1_masked	6	34	0	0	300	300	0	0	739	46	0	0	0	0	0	1	blank2r.bmp	0	1	JCRD	0	1	blank2r.bmp	79	87	pic87.bmp	199	1	whitenoise_No3.bmp	306	0	0	0	0	0	0	0	0	0	0	0	0	0	0	0	0	0	0	0	0	0	0	0	0	0	0	0	0	0	0	0	0	0	0	0	0	0	0	0
012919	13:44:35	13:58:09	813124	5.0.10.0	4_exp_AMP_EVA_AWA_CON	96	Rpleas_acq	Oppo	Lpleas	Bmasked	CS_B	2pleas	distractor2	EVAbeforeCON	AMP_CSpleas	AMP1_masked	6	35	0	0	300	300	0	0	1490	50	0	0	0	0	0	1	blank2r.bmp	0	1	GKQX	0	1	blank2r.bmp	79	59	pic59.bmp	199	1	whitenoise_No3.bmp	306	0	0	0	0	0	0	0	0	0	0	0	0	0	0	0	0	0	0	0	0	0	0	0	0	0	0	0	0	0	0	0	0	0	0	0	0	0	0	0
012919	13:44:35	13:58:11	814577	5.0.10.0	4_exp_AMP_EVA_AWA_CON	96	Rpleas_acq	Oppo	Lpleas	Bmasked	CS_B	2pleas	distractor2	EVAbeforeCON	AMP_CSunple	AMP1_masked	6	36	0	0	300	300	0	0	520	46	0	0	0	0	0	1	blank2r.bmp	0	1	BMVZ	0	1	blank2r.bmp	79	112	pic112.bmp	199	1	whitenoise_No3.bmp	306	0	0	0	0	0	0	0	0	0	0	0	0	0	0	0	0	0	0	0	0	0	0	0	0	0	0	0	0	0	0	0	0	0	0	0	0	0	0	0
012919	13:44:35	13:58:13	816669	5.0.10.0	4_exp_AMP_EVA_AWA_CON	96	Rpleas_acq	Oppo	Lpleas	Bmasked	CS_B	2pleas	distractor2	EVAbeforeCON	AMP_distractor	AMP1_masked	6	37	0	0	300	300	0	0	1181	50	0	0	0	0	0	1	blank2r.bmp	0	1	JCRD	0	1	blank2r.bmp	79	83	pic83.bmp	199	1	whitenoise_No3.bmp	306	0	0	0	0	0	0	0	0	0	0	0	0	0	0	0	0	0	0	0	0	0	0	0	0	0	0	0	0	0	0	0	0	0	0	0	0	0	0	0
012919	13:44:35	13:58:14	818095	5.0.10.0	4_exp_AMP_EVA_AWA_CON	96	Rpleas_acq	Oppo	Lpleas	Bmasked	CS_B	2pleas	distractor2	EVAbeforeCON	AMP_CSpleas	AMP1_masked	6	38	0	0	300	300	0	0	517	46	0	1	0	0	0	1	blank2r.bmp	0	1	GKQX	0	1	blank2r.bmp	79	114	pic114.bmp	199	1	whitenoise_No3.bmp	306	0	0	0	0	0	0	0	0	0	0	0	0	0	0	0	0	0	0	0	0	0	0	0	0	0	0	0	0	0	0	0	0	0	0	0	0	0	0	0
012919	13:44:35	13:58:15	819361	5.0.10.0	4_exp_AMP_EVA_AWA_CON	96	Rpleas_acq	Oppo	Lpleas	Bmasked	CS_B	2pleas	distractor2	EVAbeforeCON	AMP_distractor	AMP1_masked	6	39	0	0	300	300	0	0	334	46	0	0	0	0	0	1	blank2r.bmp	0	1	JCRD	0	1	blank2r.bmp	79	17	pic17.bmp	199	1	whitenoise_No3.bmp	306	0	0	0	0	0	0	0	0	0	0	0	0	0	0	0	0	0	0	0	0	0	0	0	0	0	0	0	0	0	0	0	0	0	0	0	0	0	0	0
012919	13:44:35	13:58:17	820934	5.0.10.0	4_exp_AMP_EVA_AWA_CON	96	Rpleas_acq	Oppo	Lpleas	Bmasked	CS_B	2pleas	distractor2	EVAbeforeCON	AMP_distractor	AMP1_masked	6	40	0	0	300	300	0	0	642	50	0	0	0	0	0	1	blank2r.bmp	0	1	JCRD	0	1	blank2r.bmp	79	88	pic88.bmp	199	1	whitenoise_No3.bmp	306	0	0	0	0	0	0	0	0	0	0	0	0	0	0	0	0	0	0	0	0	0	0	0	0	0	0	0	0	0	0	0	0	0	0	0	0	0	0	0
012919	13:44:35	13:58:18	822360	5.0.10.0	4_exp_AMP_EVA_AWA_CON	96	Rpleas_acq	Oppo	Lpleas	Bmasked	CS_B	2pleas	distractor2	EVAbeforeCON	AMP_distractor	AMP1_masked	6	41	0	0	300	300	0	0	494	46	0	0	0	0	0	1	blank2r.bmp	0	1	JCRD	0	1	blank2r.bmp	79	79	pic79.bmp	199	1	whitenoise_No3.bmp	306	0	0	0	0	0	0	0	0	0	0	0	0	0	0	0	0	0	0	0	0	0	0	0	0	0	0	0	0	0	0	0	0	0	0	0	0	0	0	0
012919	13:44:35	13:58:20	824186	5.0.10.0	4_exp_AMP_EVA_AWA_CON	96	Rpleas_acq	Oppo	Lpleas	Bmasked	CS_B	2pleas	distractor2	EVAbeforeCON	AMP_CSunple	AMP1_masked	6	42	0	0	300	300	0	0	909	50	0	1	0	0	0	1	blank2r.bmp	0	1	BMVZ	0	1	blank2r.bmp	79	49	pic49.bmp	199	1	whitenoise_No3.bmp	306	0	0	0	0	0	0	0	0	0	0	0	0	0	0	0	0	0	0	0	0	0	0	0	0	0	0	0	0	0	0	0	0	0	0	0	0	0	0	0
012919	13:44:35	13:58:22	825625	5.0.10.0	4_exp_AMP_EVA_AWA_CON	96	Rpleas_acq	Oppo	Lpleas	Bmasked	CS_B	2pleas	distractor2	EVAbeforeCON	AMP_CSunple	AMP1_masked	6	43	0	0	300	300	0	0	526	50	0	1	0	0	0	1	blank2r.bmp	0	1	BMVZ	0	1	blank2r.bmp	79	146	pic146.bmp	199	1	whitenoise_No3.bmp	306	0	0	0	0	0	0	0	0	0	0	0	0	0	0	0	0	0	0	0	0	0	0	0	0	0	0	0	0	0	0	0	0	0	0	0	0	0	0	0
012919	13:44:35	13:58:23	827118	5.0.10.0	4_exp_AMP_EVA_AWA_CON	96	Rpleas_acq	Oppo	Lpleas	Bmasked	CS_B	2pleas	distractor2	EVAbeforeCON	AMP_distractor	AMP1_masked	6	44	0	0	300	300	0	0	582	46	0	0	0	0	0	1	blank2r.bmp	0	1	JCRD	0	1	blank2r.bmp	79	25	pic25.bmp	199	1	whitenoise_No3.bmp	306	0	0	0	0	0	0	0	0	0	0	0	0	0	0	0	0	0	0	0	0	0	0	0	0	0	0	0	0	0	0	0	0	0	0	0	0	0	0	0
012919	13:44:35	13:58:25	828917	5.0.10.0	4_exp_AMP_EVA_AWA_CON	96	Rpleas_acq	Oppo	Lpleas	Bmasked	CS_B	2pleas	distractor2	EVAbeforeCON	AMP_CSpleas	AMP1_masked	6	45	0	0	300	300	0	0	885	50	0	0	0	0	0	1	blank2r.bmp	0	1	GKQX	0	1	blank2r.bmp	79	67	pic67.bmp	199	1	whitenoise_No3.bmp	306	0	0	0	0	0	0	0	0	0	0	0	0	0	0	0	0	0	0	0	0	0	0	0	0	0	0	0	0	0	0	0	0	0	0	0	0	0	0	0
012919	13:44:35	13:58:27	831290	5.0.10.0	4_exp_AMP_EVA_AWA_CON	96	Rpleas_acq	Oppo	Lpleas	Bmasked	CS_B	2pleas	distractor2	EVAbeforeCON	AMP_CSpleas	AMP1_masked	6	46	0	0	300	300	0	0	1464	50	0	0	0	0	0	1	blank2r.bmp	0	1	GKQX	0	1	blank2r.bmp	79	82	pic82.bmp	199	1	whitenoise_No3.bmp	306	0	0	0	0	0	0	0	0	0	0	0	0	0	0	0	0	0	0	0	0	0	0	0	0	0	0	0	0	0	0	0	0	0	0	0	0	0	0	0
012919	13:44:35	13:58:29	832862	5.0.10.0	4_exp_AMP_EVA_AWA_CON	96	Rpleas_acq	Oppo	Lpleas	Bmasked	CS_B	2pleas	distractor2	EVAbeforeCON	AMP_CSunple	AMP1_masked	6	47	0	0	300	300	0	0	641	50	0	1	0	0	0	1	blank2r.bmp	0	1	BMVZ	0	1	blank2r.bmp	79	19	pic19.bmp	199	1	whitenoise_No3.bmp	306	0	0	0	0	0	0	0	0	0	0	0	0	0	0	0	0	0	0	0	0	0	0	0	0	0	0	0	0	0	0	0	0	0	0	0	0	0	0	0
012919	13:44:35	13:58:30	834208	5.0.10.0	4_exp_AMP_EVA_AWA_CON	96	Rpleas_acq	Oppo	Lpleas	Bmasked	CS_B	2pleas	distractor2	EVAbeforeCON	AMP_distractor	AMP1_masked	6	48	0	0	300	300	0	0	433	50	0	0	0	0	0	1	blank2r.bmp	0	1	JCRD	0	1	blank2r.bmp	79	54	pic54.bmp	199	1	whitenoise_No3.bmp	306	0	0	0	0	0	0	0	0	0	0	0	0	0	0	0	0	0	0	0	0	0	0	0	0	0	0	0	0	0	0	0	0	0	0	0	0	0	0	0
012919	13:44:35	13:58:32	835688	5.0.10.0	4_exp_AMP_EVA_AWA_CON	96	Rpleas_acq	Oppo	Lpleas	Bmasked	CS_B	2pleas	distractor2	EVAbeforeCON	AMP_CSunple	AMP1_masked	6	49	0	0	300	300	0	0	553	46	0	0	0	0	0	1	blank2r.bmp	0	1	BMVZ	0	1	blank2r.bmp	79	131	pic131.bmp	199	1	whitenoise_No3.bmp	306	0	0	0	0	0	0	0	0	0	0	0	0	0	0	0	0	0	0	0	0	0	0	0	0	0	0	0	0	0	0	0	0	0	0	0	0	0	0	0
012919	13:44:35	13:58:33	837047	5.0.10.0	4_exp_AMP_EVA_AWA_CON	96	Rpleas_acq	Oppo	Lpleas	Bmasked	CS_B	2pleas	distractor2	EVAbeforeCON	AMP_CSpleas	AMP1_masked	6	50	0	0	300	300	0	0	427	46	0	1	0	0	0	1	blank2r.bmp	0	1	GKQX	0	1	blank2r.bmp	79	9	pic9.bmp	199	1	whitenoise_No3.bmp	306	0	0	0	0	0	0	0	0	0	0	0	0	0	0	0	0	0	0	0	0	0	0	0	0	0	0	0	0	0	0	0	0	0	0	0	0	0	0	0
012919	13:44:35	13:58:35	838646	5.0.10.0	4_exp_AMP_EVA_AWA_CON	96	Rpleas_acq	Oppo	Lpleas	Bmasked	CS_B	2pleas	distractor2	EVAbeforeCON	AMP_distractor	AMP1_masked	6	51	0	0	300	300	0	0	679	50	0	0	0	0	0	1	blank2r.bmp	0	1	JCRD	0	1	blank2r.bmp	79	12	pic12.bmp	199	1	whitenoise_No3.bmp	306	0	0	0	0	0	0	0	0	0	0	0	0	0	0	0	0	0	0	0	0	0	0	0	0	0	0	0	0	0	0	0	0	0	0	0	0	0	0	0
012919	13:44:35	13:58:55	858811	5.0.10.0	4_exp_AMP_EVA_AWA_CON	96	Rpleas_acq	Oppo	Lpleas	Bmasked	CS_B	2pleas	distractor2	EVAbeforeCON	AMP_CSunple	AMP23	7	1	0	0	300	300	0	0	1497	46	0	0	0	0	0	1	blank2r.bmp	0	1	BMVZ	0	1	blank2r.bmp	79	41	pic41.bmp	199	1	whitenoise_No3.bmp	306	0	0	0	0	0	0	0	0	0	0	0	0	0	0	0	0	0	0	0	0	0	0	0	0	0	0	0	0	0	0	0	0	0	0	0	0	0	0	0
012919	13:44:35	13:58:57	860651	5.0.10.0	4_exp_AMP_EVA_AWA_CON	96	Rpleas_acq	Oppo	Lpleas	Bmasked	CS_B	2pleas	distractor2	EVAbeforeCON	AMP_distractor	AMP23	7	2	0	0	300	300	0	0	916	46	0	0	0	0	0	1	blank2r.bmp	0	1	JCRD	0	1	blank2r.bmp	79	3	pic3.bmp	199	1	whitenoise_No3.bmp	306	0	0	0	0	0	0	0	0	0	0	0	0	0	0	0	0	0	0	0	0	0	0	0	0	0	0	0	0	0	0	0	0	0	0	0	0	0	0	0
012919	13:44:35	13:58:58	862383	5.0.10.0	4_exp_AMP_EVA_AWA_CON	96	Rpleas_acq	Oppo	Lpleas	Bmasked	CS_B	2pleas	distractor2	EVAbeforeCON	AMP_CSunple	AMP23	7	3	0	0	300	300	0	0	800	50	0	1	0	0	0	1	blank2r.bmp	0	1	BMVZ	0	1	blank2r.bmp	79	71	pic71.bmp	199	1	whitenoise_No3.bmp	306	0	0	0	0	0	0	0	0	0	0	0	0	0	0	0	0	0	0	0	0	0	0	0	0	0	0	0	0	0	0	0	0	0	0	0	0	0	0	0
012919	13:44:35	13:59:00	864036	5.0.10.0	4_exp_AMP_EVA_AWA_CON	96	Rpleas_acq	Oppo	Lpleas	Bmasked	CS_B	2pleas	distractor2	EVAbeforeCON	AMP_CSpleas	AMP23	7	4	0	0	300	300	0	0	736	46	0	1	0	0	0	1	blank2r.bmp	0	1	GKQX	0	1	blank2r.bmp	79	35	pic35.bmp	199	1	whitenoise_No3.bmp	306	0	0	0	0	0	0	0	0	0	0	0	0	0	0	0	0	0	0	0	0	0	0	0	0	0	0	0	0	0	0	0	0	0	0	0	0	0	0	0
012919	13:44:35	13:59:01	865395	5.0.10.0	4_exp_AMP_EVA_AWA_CON	96	Rpleas_acq	Oppo	Lpleas	Bmasked	CS_B	2pleas	distractor2	EVAbeforeCON	AMP_distractor	AMP23	7	5	0	0	300	300	0	0	428	46	0	0	0	0	0	1	blank2r.bmp	0	1	JCRD	0	1	blank2r.bmp	79	136	pic136.bmp	199	1	whitenoise_No3.bmp	306	0	0	0	0	0	0	0	0	0	0	0	0	0	0	0	0	0	0	0	0	0	0	0	0	0	0	0	0	0	0	0	0	0	0	0	0	0	0	0
012919	13:44:35	13:59:03	867314	5.0.10.0	4_exp_AMP_EVA_AWA_CON	96	Rpleas_acq	Oppo	Lpleas	Bmasked	CS_B	2pleas	distractor2	EVAbeforeCON	AMP_CSunple	AMP23	7	6	0	0	300	300	0	0	989	46	0	0	0	0	0	1	blank2r.bmp	0	1	BMVZ	0	1	blank2r.bmp	79	40	pic40.bmp	199	1	whitenoise_No3.bmp	306	0	0	0	0	0	0	0	0	0	0	0	0	0	0	0	0	0	0	0	0	0	0	0	0	0	0	0	0	0	0	0	0	0	0	0	0	0	0	0
012919	13:44:35	13:59:05	868780	5.0.10.0	4_exp_AMP_EVA_AWA_CON	96	Rpleas_acq	Oppo	Lpleas	Bmasked	CS_B	2pleas	distractor2	EVAbeforeCON	AMP_distractor	AMP23	7	7	0	0	300	300	0	0	541	46	0	0	0	0	0	1	blank2r.bmp	0	1	JCRD	0	1	blank2r.bmp	79	102	pic102.bmp	199	1	whitenoise_No3.bmp	306	0	0	0	0	0	0	0	0	0	0	0	0	0	0	0	0	0	0	0	0	0	0	0	0	0	0	0	0	0	0	0	0	0	0	0	0	0	0	0
012919	13:44:35	13:59:06	870153	5.0.10.0	4_exp_AMP_EVA_AWA_CON	96	Rpleas_acq	Oppo	Lpleas	Bmasked	CS_B	2pleas	distractor2	EVAbeforeCON	AMP_CSpleas	AMP23	7	8	0	0	300	300	0	0	451	46	0	1	0	0	0	1	blank2r.bmp	0	1	GKQX	0	1	blank2r.bmp	79	144	pic144.bmp	199	1	whitenoise_No3.bmp	306	0	0	0	0	0	0	0	0	0	0	0	0	0	0	0	0	0	0	0	0	0	0	0	0	0	0	0	0	0	0	0	0	0	0	0	0	0	0	0
012919	13:44:35	13:59:08	871593	5.0.10.0	4_exp_AMP_EVA_AWA_CON	96	Rpleas_acq	Oppo	Lpleas	Bmasked	CS_B	2pleas	distractor2	EVAbeforeCON	AMP_distractor	AMP23	7	9	0	0	300	300	0	0	509	46	0	0	0	0	0	1	blank2r.bmp	0	1	JCRD	0	1	blank2r.bmp	79	24	pic24.bmp	199	1	whitenoise_No3.bmp	306	0	0	0	0	0	0	0	0	0	0	0	0	0	0	0	0	0	0	0	0	0	0	0	0	0	0	0	0	0	0	0	0	0	0	0	0	0	0	0
012919	13:44:35	13:59:09	872805	5.0.10.0	4_exp_AMP_EVA_AWA_CON	96	Rpleas_acq	Oppo	Lpleas	Bmasked	CS_B	2pleas	distractor2	EVAbeforeCON	AMP_CSunple	AMP23	7	10	0	0	300	300	0	0	288	50	0	1	0	0	0	1	blank2r.bmp	0	1	BMVZ	0	1	blank2r.bmp	79	45	pic45.bmp	199	1	whitenoise_No3.bmp	306	0	0	0	0	0	0	0	0	0	0	0	0	0	0	0	0	0	0	0	0	0	0	0	0	0	0	0	0	0	0	0	0	0	0	0	0	0	0	0
012919	13:44:35	13:59:10	874191	5.0.10.0	4_exp_AMP_EVA_AWA_CON	96	Rpleas_acq	Oppo	Lpleas	Bmasked	CS_B	2pleas	distractor2	EVAbeforeCON	AMP_CSpleas	AMP23	7	11	0	0	300	300	0	0	458	50	0	0	0	0	0	1	blank2r.bmp	0	1	GKQX	0	1	blank2r.bmp	79	26	pic26.bmp	199	1	whitenoise_No3.bmp	306	0	0	0	0	0	0	0	0	0	0	0	0	0	0	0	0	0	0	0	0	0	0	0	0	0	0	0	0	0	0	0	0	0	0	0	0	0	0	0
012919	13:44:35	13:59:12	875471	5.0.10.0	4_exp_AMP_EVA_AWA_CON	96	Rpleas_acq	Oppo	Lpleas	Bmasked	CS_B	2pleas	distractor2	EVAbeforeCON	AMP_CSpleas	AMP23	7	12	0	0	300	300	0	0	346	46	0	1	0	0	0	1	blank2r.bmp	0	1	GKQX	0	1	blank2r.bmp	79	46	pic46.bmp	199	1	whitenoise_No3.bmp	306	0	0	0	0	0	0	0	0	0	0	0	0	0	0	0	0	0	0	0	0	0	0	0	0	0	0	0	0	0	0	0	0	0	0	0	0	0	0	0
012919	13:44:35	13:59:13	877270	5.0.10.0	4_exp_AMP_EVA_AWA_CON	96	Rpleas_acq	Oppo	Lpleas	Bmasked	CS_B	2pleas	distractor2	EVAbeforeCON	AMP_distractor	AMP23	7	13	0	0	300	300	0	0	882	46	0	0	0	0	0	1	blank2r.bmp	0	1	JCRD	0	1	blank2r.bmp	79	113	pic113.bmp	199	1	whitenoise_No3.bmp	306	0	0	0	0	0	0	0	0	0	0	0	0	0	0	0	0	0	0	0	0	0	0	0	0	0	0	0	0	0	0	0	0	0	0	0	0	0	0	0
012919	13:44:35	13:59:15	878776	5.0.10.0	4_exp_AMP_EVA_AWA_CON	96	Rpleas_acq	Oppo	Lpleas	Bmasked	CS_B	2pleas	distractor2	EVAbeforeCON	AMP_distractor	AMP23	7	14	0	0	300	300	0	0	572	50	0	0	0	0	0	1	blank2r.bmp	0	1	JCRD	0	1	blank2r.bmp	79	73	pic73.bmp	199	1	whitenoise_No3.bmp	306	0	0	0	0	0	0	0	0	0	0	0	0	0	0	0	0	0	0	0	0	0	0	0	0	0	0	0	0	0	0	0	0	0	0	0	0	0	0	0
012919	13:44:35	13:59:17	880789	5.0.10.0	4_exp_AMP_EVA_AWA_CON	96	Rpleas_acq	Oppo	Lpleas	Bmasked	CS_B	2pleas	distractor2	EVAbeforeCON	AMP_distractor	AMP23	7	15	0	0	300	300	0	0	1103	50	0	0	0	0	0	1	blank2r.bmp	0	1	JCRD	0	1	blank2r.bmp	79	70	pic70.bmp	199	1	whitenoise_No3.bmp	306	0	0	0	0	0	0	0	0	0	0	0	0	0	0	0	0	0	0	0	0	0	0	0	0	0	0	0	0	0	0	0	0	0	0	0	0	0	0	0
012919	13:44:35	13:59:18	882281	5.0.10.0	4_exp_AMP_EVA_AWA_CON	96	Rpleas_acq	Oppo	Lpleas	Bmasked	CS_B	2pleas	distractor2	EVAbeforeCON	AMP_CSunple	AMP23	7	16	0	0	300	300	0	0	560	46	0	0	0	0	0	1	blank2r.bmp	0	1	BMVZ	0	1	blank2r.bmp	79	91	pic91.bmp	199	1	whitenoise_No3.bmp	306	0	0	0	0	0	0	0	0	0	0	0	0	0	0	0	0	0	0	0	0	0	0	0	0	0	0	0	0	0	0	0	0	0	0	0	0	0	0	0
012919	13:44:35	13:59:20	884107	5.0.10.0	4_exp_AMP_EVA_AWA_CON	96	Rpleas_acq	Oppo	Lpleas	Bmasked	CS_B	2pleas	distractor2	EVAbeforeCON	AMP_distractor	AMP23	7	17	0	0	300	300	0	0	913	46	0	0	0	0	0	1	blank2r.bmp	0	1	JCRD	0	1	blank2r.bmp	79	121	pic121.bmp	199	1	whitenoise_No3.bmp	306	0	0	0	0	0	0	0	0	0	0	0	0	0	0	0	0	0	0	0	0	0	0	0	0	0	0	0	0	0	0	0	0	0	0	0	0	0	0	0
012919	13:44:35	13:59:22	885493	5.0.10.0	4_exp_AMP_EVA_AWA_CON	96	Rpleas_acq	Oppo	Lpleas	Bmasked	CS_B	2pleas	distractor2	EVAbeforeCON	AMP_distractor	AMP23	7	18	0	0	300	300	0	0	477	50	0	0	0	0	0	1	blank2r.bmp	0	1	JCRD	0	1	blank2r.bmp	79	42	pic42.bmp	199	1	whitenoise_No3.bmp	306	0	0	0	0	0	0	0	0	0	0	0	0	0	0	0	0	0	0	0	0	0	0	0	0	0	0	0	0	0	0	0	0	0	0	0	0	0	0	0
012919	13:44:35	13:59:23	887013	5.0.10.0	4_exp_AMP_EVA_AWA_CON	96	Rpleas_acq	Oppo	Lpleas	Bmasked	CS_B	2pleas	distractor2	EVAbeforeCON	AMP_CSpleas	AMP23	7	19	0	0	300	300	0	0	578	46	0	1	0	0	0	1	blank2r.bmp	0	1	GKQX	0	1	blank2r.bmp	79	150	pic150.bmp	199	1	whitenoise_No3.bmp	306	0	0	0	0	0	0	0	0	0	0	0	0	0	0	0	0	0	0	0	0	0	0	0	0	0	0	0	0	0	0	0	0	0	0	0	0	0	0	0
012919	13:44:35	13:59:25	888865	5.0.10.0	4_exp_AMP_EVA_AWA_CON	96	Rpleas_acq	Oppo	Lpleas	Bmasked	CS_B	2pleas	distractor2	EVAbeforeCON	AMP_CSunple	AMP23	7	20	0	0	300	300	0	0	940	46	0	0	0	0	0	1	blank2r.bmp	0	1	BMVZ	0	1	blank2r.bmp	79	108	pic108.bmp	199	1	whitenoise_No3.bmp	306	0	0	0	0	0	0	0	0	0	0	0	0	0	0	0	0	0	0	0	0	0	0	0	0	0	0	0	0	0	0	0	0	0	0	0	0	0	0	0
012919	13:44:35	13:59:26	890238	5.0.10.0	4_exp_AMP_EVA_AWA_CON	96	Rpleas_acq	Oppo	Lpleas	Bmasked	CS_B	2pleas	distractor2	EVAbeforeCON	AMP_distractor	AMP23	7	21	0	0	300	300	0	0	455	50	0	0	0	0	0	1	blank2r.bmp	0	1	JCRD	0	1	blank2r.bmp	79	76	pic76.bmp	199	1	whitenoise_No3.bmp	306	0	0	0	0	0	0	0	0	0	0	0	0	0	0	0	0	0	0	0	0	0	0	0	0	0	0	0	0	0	0	0	0	0	0	0	0	0	0	0
012919	13:44:35	13:59:28	891691	5.0.10.0	4_exp_AMP_EVA_AWA_CON	96	Rpleas_acq	Oppo	Lpleas	Bmasked	CS_B	2pleas	distractor2	EVAbeforeCON	AMP_CSpleas	AMP23	7	22	0	0	300	300	0	0	540	50	0	0	0	0	0	1	blank2r.bmp	0	1	GKQX	0	1	blank2r.bmp	79	20	pic20.bmp	199	1	whitenoise_No3.bmp	306	0	0	0	0	0	0	0	0	0	0	0	0	0	0	0	0	0	0	0	0	0	0	0	0	0	0	0	0	0	0	0	0	0	0	0	0	0	0	0
012919	13:44:35	13:59:29	893064	5.0.10.0	4_exp_AMP_EVA_AWA_CON	96	Rpleas_acq	Oppo	Lpleas	Bmasked	CS_B	2pleas	distractor2	EVAbeforeCON	AMP_CSpleas	AMP23	7	23	0	0	300	300	0	0	455	46	0	1	0	0	0	1	blank2r.bmp	0	1	GKQX	0	1	blank2r.bmp	79	105	pic105.bmp	199	1	whitenoise_No3.bmp	306	0	0	0	0	0	0	0	0	0	0	0	0	0	0	0	0	0	0	0	0	0	0	0	0	0	0	0	0	0	0	0	0	0	0	0	0	0	0	0
012919	13:44:35	13:59:31	895383	5.0.10.0	4_exp_AMP_EVA_AWA_CON	96	Rpleas_acq	Oppo	Lpleas	Bmasked	CS_B	2pleas	distractor2	EVAbeforeCON	AMP_CSpleas	AMP23	7	24	0	0	300	300	0	0	1398	50	0	0	0	0	0	1	blank2r.bmp	0	1	GKQX	0	1	blank2r.bmp	79	43	pic43.bmp	199	1	whitenoise_No3.bmp	306	0	0	0	0	0	0	0	0	0	0	0	0	0	0	0	0	0	0	0	0	0	0	0	0	0	0	0	0	0	0	0	0	0	0	0	0	0	0	0
012919	13:44:35	13:59:33	897075	5.0.10.0	4_exp_AMP_EVA_AWA_CON	96	Rpleas_acq	Oppo	Lpleas	Bmasked	CS_B	2pleas	distractor2	EVAbeforeCON	AMP_CSunple	AMP23	7	25	0	0	300	300	0	0	769	50	0	1	0	0	0	1	blank2r.bmp	0	1	BMVZ	0	1	blank2r.bmp	79	58	pic58.bmp	199	1	whitenoise_No3.bmp	306	0	0	0	0	0	0	0	0	0	0	0	0	0	0	0	0	0	0	0	0	0	0	0	0	0	0	0	0	0	0	0	0	0	0	0	0	0	0	0
012919	13:44:35	13:59:35	898675	5.0.10.0	4_exp_AMP_EVA_AWA_CON	96	Rpleas_acq	Oppo	Lpleas	Bmasked	CS_B	2pleas	distractor2	EVAbeforeCON	AMP_CSpleas	AMP23	7	26	0	0	300	300	0	0	669	50	0	0	0	0	0	1	blank2r.bmp	0	1	GKQX	0	1	blank2r.bmp	79	57	pic57.bmp	199	1	whitenoise_No3.bmp	306	0	0	0	0	0	0	0	0	0	0	0	0	0	0	0	0	0	0	0	0	0	0	0	0	0	0	0	0	0	0	0	0	0	0	0	0	0	0	0
012919	13:44:35	13:59:36	900074	5.0.10.0	4_exp_AMP_EVA_AWA_CON	96	Rpleas_acq	Oppo	Lpleas	Bmasked	CS_B	2pleas	distractor2	EVAbeforeCON	AMP_CSunple	AMP23	7	27	0	0	300	300	0	0	480	46	0	0	0	0	0	1	blank2r.bmp	0	1	BMVZ	0	1	blank2r.bmp	79	38	pic38.bmp	199	1	whitenoise_No3.bmp	306	0	0	0	0	0	0	0	0	0	0	0	0	0	0	0	0	0	0	0	0	0	0	0	0	0	0	0	0	0	0	0	0	0	0	0	0	0	0	0
012919	13:44:35	13:59:38	901447	5.0.10.0	4_exp_AMP_EVA_AWA_CON	96	Rpleas_acq	Oppo	Lpleas	Bmasked	CS_B	2pleas	distractor2	EVAbeforeCON	AMP_CSunple	AMP23	7	28	0	0	300	300	0	0	456	46	0	0	0	0	0	1	blank2r.bmp	0	1	BMVZ	0	1	blank2r.bmp	79	90	pic90.bmp	199	1	whitenoise_No3.bmp	306	0	0	0	0	0	0	0	0	0	0	0	0	0	0	0	0	0	0	0	0	0	0	0	0	0	0	0	0	0	0	0	0	0	0	0	0	0	0	0
012919	13:44:35	13:59:39	903393	5.0.10.0	4_exp_AMP_EVA_AWA_CON	96	Rpleas_acq	Oppo	Lpleas	Bmasked	CS_B	2pleas	distractor2	EVAbeforeCON	AMP_CSpleas	AMP23	7	29	0	0	300	300	0	0	1023	46	0	1	0	0	0	1	blank2r.bmp	0	1	GKQX	0	1	blank2r.bmp	79	6	pic6.bmp	199	1	whitenoise_No3.bmp	306	0	0	0	0	0	0	0	0	0	0	0	0	0	0	0	0	0	0	0	0	0	0	0	0	0	0	0	0	0	0	0	0	0	0	0	0	0	0	0
012919	13:44:35	13:59:41	905178	5.0.10.0	4_exp_AMP_EVA_AWA_CON	96	Rpleas_acq	Oppo	Lpleas	Bmasked	CS_B	2pleas	distractor2	EVAbeforeCON	AMP_CSpleas	AMP23	7	30	0	0	300	300	0	0	861	50	0	0	0	0	0	1	blank2r.bmp	0	1	GKQX	0	1	blank2r.bmp	79	11	pic11.bmp	199	1	whitenoise_No3.bmp	306	0	0	0	0	0	0	0	0	0	0	0	0	0	0	0	0	0	0	0	0	0	0	0	0	0	0	0	0	0	0	0	0	0	0	0	0	0	0	0
012919	13:44:35	13:59:43	906884	5.0.10.0	4_exp_AMP_EVA_AWA_CON	96	Rpleas_acq	Oppo	Lpleas	Bmasked	CS_B	2pleas	distractor2	EVAbeforeCON	AMP_distractor	AMP23	7	31	0	0	300	300	0	0	777	50	0	0	0	0	0	1	blank2r.bmp	0	1	JCRD	0	1	blank2r.bmp	79	50	pic50.bmp	199	1	whitenoise_No3.bmp	306	0	0	0	0	0	0	0	0	0	0	0	0	0	0	0	0	0	0	0	0	0	0	0	0	0	0	0	0	0	0	0	0	0	0	0	0	0	0	0
012919	13:44:35	13:59:45	908404	5.0.10.0	4_exp_AMP_EVA_AWA_CON	96	Rpleas_acq	Oppo	Lpleas	Bmasked	CS_B	2pleas	distractor2	EVAbeforeCON	AMP_CSunple	AMP23	7	32	0	0	300	300	0	0	599	46	0	0	0	0	0	1	blank2r.bmp	0	1	BMVZ	0	1	blank2r.bmp	79	99	pic99.bmp	199	1	whitenoise_No3.bmp	306	0	0	0	0	0	0	0	0	0	0	0	0	0	0	0	0	0	0	0	0	0	0	0	0	0	0	0	0	0	0	0	0	0	0	0	0	0	0	0
012919	13:44:35	13:59:46	909883	5.0.10.0	4_exp_AMP_EVA_AWA_CON	96	Rpleas_acq	Oppo	Lpleas	Bmasked	CS_B	2pleas	distractor2	EVAbeforeCON	AMP_CSpleas	AMP23	7	33	0	0	300	300	0	0	571	50	0	0	0	0	0	1	blank2r.bmp	0	1	GKQX	0	1	blank2r.bmp	79	55	pic55.bmp	199	1	whitenoise_No3.bmp	306	0	0	0	0	0	0	0	0	0	0	0	0	0	0	0	0	0	0	0	0	0	0	0	0	0	0	0	0	0	0	0	0	0	0	0	0	0	0	0
012919	13:44:35	13:59:48	911482	5.0.10.0	4_exp_AMP_EVA_AWA_CON	96	Rpleas_acq	Oppo	Lpleas	Bmasked	CS_B	2pleas	distractor2	EVAbeforeCON	AMP_distractor	AMP23	7	34	0	0	300	300	0	0	673	46	0	0	0	0	0	1	blank2r.bmp	0	1	JCRD	0	1	blank2r.bmp	79	33	pic33.bmp	199	1	whitenoise_No3.bmp	306	0	0	0	0	0	0	0	0	0	0	0	0	0	0	0	0	0	0	0	0	0	0	0	0	0	0	0	0	0	0	0	0	0	0	0	0	0	0	0
012919	13:44:35	13:59:49	913095	5.0.10.0	4_exp_AMP_EVA_AWA_CON	96	Rpleas_acq	Oppo	Lpleas	Bmasked	CS_B	2pleas	distractor2	EVAbeforeCON	AMP_distractor	AMP23	7	35	0	0	300	300	0	0	695	46	0	0	0	0	0	1	blank2r.bmp	0	1	JCRD	0	1	blank2r.bmp	79	23	pic23.bmp	199	1	whitenoise_No3.bmp	306	0	0	0	0	0	0	0	0	0	0	0	0	0	0	0	0	0	0	0	0	0	0	0	0	0	0	0	0	0	0	0	0	0	0	0	0	0	0	0
012919	13:44:35	13:59:51	914668	5.0.10.0	4_exp_AMP_EVA_AWA_CON	96	Rpleas_acq	Oppo	Lpleas	Bmasked	CS_B	2pleas	distractor2	EVAbeforeCON	AMP_distractor	AMP23	7	36	0	0	300	300	0	0	659	46	0	0	0	0	0	1	blank2r.bmp	0	1	JCRD	0	1	blank2r.bmp	79	81	pic81.bmp	199	1	whitenoise_No3.bmp	306	0	0	0	0	0	0	0	0	0	0	0	0	0	0	0	0	0	0	0	0	0	0	0	0	0	0	0	0	0	0	0	0	0	0	0	0	0	0	0
