date	time	script.currenttime	script.elapsedtime	build	script.currentexpt	subject	expressions.LRpleas_acq	expressions.SameOppo	expressions.condition_Lpleas	expressions.ABmasked	expressions.conditionCS_A	expressions.condition_1pleas	expressions.condition_distractor_AMP	expressions.AWACON_AMPEVA_first	trialcode	blockcode	blocknum	trialnum	windowcenter	inwindow	pretrialpause	posttrialpause	trialduration	trialtimeout	latency	response	expressions.correctedscore	correct	values.vis_performance	values.vis_rating_sum	values.vis_rating_mean	stimulusnumber1	stimulusitem1	stimulusonset1	stimulusnumber2	stimulusitem2	stimulusonset2	stimulusnumber3	stimulusitem3	stimulusonset3	stimulusnumber4	stimulusitem4	stimulusonset4	stimulusnumber5	stimulusitem5	stimulusonset5	stimulusnumber6	stimulusitem6	stimulusonset6	stimulusnumber7	stimulusitem7	stimulusonset7	stimulusnumber8	stimulusitem8	stimulusonset8	stimulusnumber9	stimulusitem9	stimulusonset9	stimulusnumber10	stimulusitem10	stimulusonset10	stimulusnumber11	stimulusitem11	stimulusonset11	stimulusnumber12	stimulusitem12	stimulusonset12	stimulusnumber13	stimulusitem13	stimulusonset13	stimulusnumber14	stimulusitem14	stimulusonset14	stimulusnumber15	stimulusitem15	stimulusonset15	stimulusnumber16	stimulusitem16	stimulusonset16	stimulusnumber17	stimulusitem17	stimulusonset17	stimulusnumber18	stimulusitem18	stimulusonset18
012219	09:59:26	10:01:04	97066	5.0.10.0	4_exp_AWA_CON_AMP_EVA	81	Rpleas_acq	Same	Rpleas	Amasked	CS_A	1pleas	distractor1	CONbeforeEVA	acq_new_unple_masked	acq1_masked	1	1	0	0	300	300	0	0	984	46	0	1	0	0	0	1	blank2r.bmp	0	1	+	0	8	C4r.bmp	492	1	blank2r.bmp	786	4	B4r.bmp	786	1	blank2r.bmp	866	2	krise	866	0	0	0	0	0	0	0	0	0	0	0	0	0	0	0	0	0	0	0	0	0	0	0	0	0	0	0	0	0	0	0	0	0
012219	09:59:26	10:01:07	99292	5.0.10.0	4_exp_AWA_CON_AMP_EVA	81	Rpleas_acq	Same	Rpleas	Amasked	CS_A	1pleas	distractor1	CONbeforeEVA	acq_US_unple_masked	acq1_masked	1	2	0	0	300	300	0	0	732	46	0	1	0	0	0	1	blank2r.bmp	0	1	+	0	7	C3r.bmp	492	1	blank2r.bmp	786	1	DHJF	786	1	blank2r.bmp	866	2	gierig	866	0	0	0	0	0	0	0	0	0	0	0	0	0	0	0	0	0	0	0	0	0	0	0	0	0	0	0	0	0	0	0	0	0
012219	09:59:26	10:01:09	101384	5.0.10.0	4_exp_AWA_CON_AMP_EVA	81	Rpleas_acq	Same	Rpleas	Amasked	CS_A	1pleas	distractor1	CONbeforeEVA	acq_new_pleas_masked	acq1_masked	1	3	0	0	300	300	0	0	619	50	0	1	0	0	0	1	blank2r.bmp	0	1	+	0	6	C2r.bmp	492	1	blank2r.bmp	786	7	C3r.bmp	786	1	blank2r.bmp	866	1	besonnen	866	0	0	0	0	0	0	0	0	0	0	0	0	0	0	0	0	0	0	0	0	0	0	0	0	0	0	0	0	0	0	0	0	0
012219	09:59:26	10:01:11	103517	5.0.10.0	4_exp_AWA_CON_AMP_EVA	81	Rpleas_acq	Same	Rpleas	Amasked	CS_A	1pleas	distractor1	CONbeforeEVA	acq_new_pleas_masked	acq1_masked	1	4	0	0	300	300	0	0	648	50	0	1	0	0	0	1	blank2r.bmp	0	1	+	0	2	B2r.bmp	492	1	blank2r.bmp	786	8	C4r.bmp	786	1	blank2r.bmp	866	3	vertrauen	866	0	0	0	0	0	0	0	0	0	0	0	0	0	0	0	0	0	0	0	0	0	0	0	0	0	0	0	0	0	0	0	0	0
012219	09:59:26	10:01:13	105689	5.0.10.0	4_exp_AWA_CON_AMP_EVA	81	Rpleas_acq	Same	Rpleas	Amasked	CS_A	1pleas	distractor1	CONbeforeEVA	acq_new_pleas_masked	acq1_masked	1	5	0	0	300	300	0	0	704	50	0	1	0	0	0	1	blank2r.bmp	0	1	+	0	5	C1r.bmp	492	1	blank2r.bmp	786	2	B2r.bmp	786	1	blank2r.bmp	866	4	gesittet	866	0	0	0	0	0	0	0	0	0	0	0	0	0	0	0	0	0	0	0	0	0	0	0	0	0	0	0	0	0	0	0	0	0
012219	09:59:26	10:01:15	107781	5.0.10.0	4_exp_AWA_CON_AMP_EVA	81	Rpleas_acq	Same	Rpleas	Amasked	CS_A	1pleas	distractor1	CONbeforeEVA	acq_US_unple_masked	acq1_masked	1	6	0	0	300	300	0	0	602	46	0	1	0	0	0	1	blank2r.bmp	0	1	+	0	3	B3r.bmp	492	1	blank2r.bmp	786	1	DHJF	786	1	blank2r.bmp	866	4	ausrottung	866	0	0	0	0	0	0	0	0	0	0	0	0	0	0	0	0	0	0	0	0	0	0	0	0	0	0	0	0	0	0	0	0	0
012219	09:59:26	10:01:17	109927	5.0.10.0	4_exp_AWA_CON_AMP_EVA	81	Rpleas_acq	Same	Rpleas	Amasked	CS_A	1pleas	distractor1	CONbeforeEVA	acq_US_pleas_masked	acq1_masked	1	7	0	0	300	300	0	0	660	50	0	1	0	0	0	1	blank2r.bmp	0	1	+	0	1	B1r.bmp	492	1	blank2r.bmp	786	1	CPLW	786	1	blank2r.bmp	866	3	träumen	866	0	0	0	0	0	0	0	0	0	0	0	0	0	0	0	0	0	0	0	0	0	0	0	0	0	0	0	0	0	0	0	0	0
012219	09:59:26	10:01:20	112220	5.0.10.0	4_exp_AWA_CON_AMP_EVA	81	Rpleas_acq	Same	Rpleas	Amasked	CS_A	1pleas	distractor1	CONbeforeEVA	acq_new_unple_masked	acq1_masked	1	8	0	0	300	300	0	0	812	46	0	1	0	0	0	1	blank2r.bmp	0	1	+	0	4	B4r.bmp	492	1	blank2r.bmp	786	1	B1r.bmp	786	1	blank2r.bmp	866	4	geizig	866	0	0	0	0	0	0	0	0	0	0	0	0	0	0	0	0	0	0	0	0	0	0	0	0	0	0	0	0	0	0	0	0	0
012219	09:59:26	10:01:22	114232	5.0.10.0	4_exp_AWA_CON_AMP_EVA	81	Rpleas_acq	Same	Rpleas	Amasked	CS_A	1pleas	distractor1	CONbeforeEVA	acq_US_pleas_masked	acq1_masked	1	9	0	0	300	300	0	0	537	50	0	1	0	0	0	1	blank2r.bmp	0	1	+	0	4	B4r.bmp	492	1	blank2r.bmp	786	1	CPLW	786	1	blank2r.bmp	866	2	gütig	866	0	0	0	0	0	0	0	0	0	0	0	0	0	0	0	0	0	0	0	0	0	0	0	0	0	0	0	0	0	0	0	0	0
012219	09:59:26	10:01:24	116285	5.0.10.0	4_exp_AWA_CON_AMP_EVA	81	Rpleas_acq	Same	Rpleas	Amasked	CS_A	1pleas	distractor1	CONbeforeEVA	acq_US_pleas_masked	acq1_masked	1	10	0	0	300	300	0	0	573	50	0	1	0	0	0	1	blank2r.bmp	0	1	+	0	6	C2r.bmp	492	1	blank2r.bmp	786	1	CPLW	786	1	blank2r.bmp	866	4	anregung	866	0	0	0	0	0	0	0	0	0	0	0	0	0	0	0	0	0	0	0	0	0	0	0	0	0	0	0	0	0	0	0	0	0
012219	09:59:26	10:01:26	118444	5.0.10.0	4_exp_AWA_CON_AMP_EVA	81	Rpleas_acq	Same	Rpleas	Amasked	CS_A	1pleas	distractor1	CONbeforeEVA	acq_new_unple_masked	acq1_masked	1	11	0	0	300	300	0	0	679	46	0	1	0	0	0	1	blank2r.bmp	0	1	+	0	3	B3r.bmp	492	1	blank2r.bmp	786	6	C2r.bmp	786	1	blank2r.bmp	866	3	versagen	866	0	0	0	0	0	0	0	0	0	0	0	0	0	0	0	0	0	0	0	0	0	0	0	0	0	0	0	0	0	0	0	0	0
012219	09:59:26	10:01:28	120669	5.0.10.0	4_exp_AWA_CON_AMP_EVA	81	Rpleas_acq	Same	Rpleas	Amasked	CS_A	1pleas	distractor1	CONbeforeEVA	acq_US_unple_masked	acq1_masked	1	12	0	0	300	300	0	0	755	46	0	1	0	0	0	1	blank2r.bmp	0	1	+	0	1	B1r.bmp	492	1	blank2r.bmp	786	1	DHJF	786	1	blank2r.bmp	866	3	töten	866	0	0	0	0	0	0	0	0	0	0	0	0	0	0	0	0	0	0	0	0	0	0	0	0	0	0	0	0	0	0	0	0	0
012219	09:59:26	10:01:30	122802	5.0.10.0	4_exp_AWA_CON_AMP_EVA	81	Rpleas_acq	Same	Rpleas	Amasked	CS_A	1pleas	distractor1	CONbeforeEVA	acq_new_pleas_masked	acq1_masked	1	13	0	0	300	300	0	0	643	50	0	1	0	0	0	1	blank2r.bmp	0	1	+	0	8	C4r.bmp	492	1	blank2r.bmp	786	5	C1r.bmp	786	1	blank2r.bmp	866	2	kuss	866	0	0	0	0	0	0	0	0	0	0	0	0	0	0	0	0	0	0	0	0	0	0	0	0	0	0	0	0	0	0	0	0	0
012219	09:59:26	10:01:32	124774	5.0.10.0	4_exp_AWA_CON_AMP_EVA	81	Rpleas_acq	Same	Rpleas	Amasked	CS_A	1pleas	distractor1	CONbeforeEVA	acq_US_unple_masked	acq1_masked	1	14	0	0	300	300	0	0	497	46	0	1	0	0	0	1	blank2r.bmp	0	1	+	0	2	B2r.bmp	492	1	blank2r.bmp	786	1	DHJF	786	1	blank2r.bmp	866	6	krank	866	0	0	0	0	0	0	0	0	0	0	0	0	0	0	0	0	0	0	0	0	0	0	0	0	0	0	0	0	0	0	0	0	0
012219	09:59:26	10:01:34	126947	5.0.10.0	4_exp_AWA_CON_AMP_EVA	81	Rpleas_acq	Same	Rpleas	Amasked	CS_A	1pleas	distractor1	CONbeforeEVA	acq_new_unple_masked	acq1_masked	1	15	0	0	300	300	0	0	679	46	0	1	0	0	0	1	blank2r.bmp	0	1	+	0	7	C3r.bmp	492	1	blank2r.bmp	786	3	B3r.bmp	786	1	blank2r.bmp	866	6	verbissen	866	0	0	0	0	0	0	0	0	0	0	0	0	0	0	0	0	0	0	0	0	0	0	0	0	0	0	0	0	0	0	0	0	0
012219	09:59:26	10:01:37	129133	5.0.10.0	4_exp_AWA_CON_AMP_EVA	81	Rpleas_acq	Same	Rpleas	Amasked	CS_A	1pleas	distractor1	CONbeforeEVA	acq_US_unple_masked	acq1_masked	1	16	0	0	300	300	0	0	713	46	0	1	0	0	0	1	blank2r.bmp	0	1	+	0	5	C1r.bmp	492	1	blank2r.bmp	786	1	DHJF	786	1	blank2r.bmp	866	1	gemein	866	0	0	0	0	0	0	0	0	0	0	0	0	0	0	0	0	0	0	0	0	0	0	0	0	0	0	0	0	0	0	0	0	0
012219	09:59:26	10:01:39	131132	5.0.10.0	4_exp_AWA_CON_AMP_EVA	81	Rpleas_acq	Same	Rpleas	Amasked	CS_A	1pleas	distractor1	CONbeforeEVA	acq_US_pleas_masked	acq1_masked	1	17	0	0	300	300	0	0	519	50	0	1	0	0	0	1	blank2r.bmp	0	1	+	0	1	B1r.bmp	492	1	blank2r.bmp	786	1	CPLW	786	1	blank2r.bmp	866	6	kreativ	866	0	0	0	0	0	0	0	0	0	0	0	0	0	0	0	0	0	0	0	0	0	0	0	0	0	0	0	0	0	0	0	0	0
012219	09:59:26	10:01:41	133131	5.0.10.0	4_exp_AWA_CON_AMP_EVA	81	Rpleas_acq	Same	Rpleas	Amasked	CS_A	1pleas	distractor1	CONbeforeEVA	acq_new_pleas_masked	acq1_masked	1	18	0	0	300	300	0	0	526	50	0	1	0	0	0	1	blank2r.bmp	0	1	+	0	5	C1r.bmp	492	1	blank2r.bmp	786	6	C2r.bmp	786	1	blank2r.bmp	866	5	sonnig	866	0	0	0	0	0	0	0	0	0	0	0	0	0	0	0	0	0	0	0	0	0	0	0	0	0	0	0	0	0	0	0	0	0
012219	09:59:26	10:01:43	135250	5.0.10.0	4_exp_AWA_CON_AMP_EVA	81	Rpleas_acq	Same	Rpleas	Amasked	CS_A	1pleas	distractor1	CONbeforeEVA	acq_new_unple_masked	acq1_masked	1	19	0	0	300	300	0	0	631	46	0	1	0	0	0	1	blank2r.bmp	0	1	+	0	8	C4r.bmp	492	1	blank2r.bmp	786	1	B1r.bmp	786	1	blank2r.bmp	866	1	bange	866	0	0	0	0	0	0	0	0	0	0	0	0	0	0	0	0	0	0	0	0	0	0	0	0	0	0	0	0	0	0	0	0	0
012219	09:59:26	10:01:45	137343	5.0.10.0	4_exp_AWA_CON_AMP_EVA	81	Rpleas_acq	Same	Rpleas	Amasked	CS_A	1pleas	distractor1	CONbeforeEVA	acq_US_pleas_masked	acq1_masked	1	20	0	0	300	300	0	0	614	50	0	1	0	0	0	1	blank2r.bmp	0	1	+	0	3	B3r.bmp	492	1	blank2r.bmp	786	1	CPLW	786	1	blank2r.bmp	866	5	engagiert	866	0	0	0	0	0	0	0	0	0	0	0	0	0	0	0	0	0	0	0	0	0	0	0	0	0	0	0	0	0	0	0	0	0
012219	09:59:26	10:01:47	139422	5.0.10.0	4_exp_AWA_CON_AMP_EVA	81	Rpleas_acq	Same	Rpleas	Amasked	CS_A	1pleas	distractor1	CONbeforeEVA	acq_new_pleas_masked	acq1_masked	1	21	0	0	300	300	0	0	606	50	0	1	0	0	0	1	blank2r.bmp	0	1	+	0	2	B2r.bmp	492	1	blank2r.bmp	786	4	B4r.bmp	786	1	blank2r.bmp	866	6	vergnügt	866	0	0	0	0	0	0	0	0	0	0	0	0	0	0	0	0	0	0	0	0	0	0	0	0	0	0	0	0	0	0	0	0	0
012219	09:59:26	10:01:49	141408	5.0.10.0	4_exp_AWA_CON_AMP_EVA	81	Rpleas_acq	Same	Rpleas	Amasked	CS_A	1pleas	distractor1	CONbeforeEVA	acq_US_unple_masked	acq1_masked	1	22	0	0	300	300	0	0	492	46	0	1	0	0	0	1	blank2r.bmp	0	1	+	0	4	B4r.bmp	492	1	blank2r.bmp	786	1	DHJF	786	1	blank2r.bmp	866	5	engstirnig	866	0	0	0	0	0	0	0	0	0	0	0	0	0	0	0	0	0	0	0	0	0	0	0	0	0	0	0	0	0	0	0	0	0
012219	09:59:26	10:01:51	143460	5.0.10.0	4_exp_AWA_CON_AMP_EVA	81	Rpleas_acq	Same	Rpleas	Amasked	CS_A	1pleas	distractor1	CONbeforeEVA	acq_new_unple_masked	acq1_masked	1	23	0	0	300	300	0	0	574	46	0	1	0	0	0	1	blank2r.bmp	0	1	+	0	7	C3r.bmp	492	1	blank2r.bmp	786	5	C1r.bmp	786	1	blank2r.bmp	866	5	sterben	866	0	0	0	0	0	0	0	0	0	0	0	0	0	0	0	0	0	0	0	0	0	0	0	0	0	0	0	0	0	0	0	0	0
012219	09:59:26	10:01:53	145672	5.0.10.0	4_exp_AWA_CON_AMP_EVA	81	Rpleas_acq	Same	Rpleas	Amasked	CS_A	1pleas	distractor1	CONbeforeEVA	acq_US_pleas_masked	acq1_masked	1	24	0	0	300	300	0	0	724	50	0	1	0	0	0	1	blank2r.bmp	0	1	+	0	6	C2r.bmp	492	1	blank2r.bmp	786	1	CPLW	786	1	blank2r.bmp	866	1	genießen	866	0	0	0	0	0	0	0	0	0	0	0	0	0	0	0	0	0	0	0	0	0	0	0	0	0	0	0	0	0	0	0	0	0
012219	09:59:26	10:01:55	147792	5.0.10.0	4_exp_AWA_CON_AMP_EVA	81	Rpleas_acq	Same	Rpleas	Amasked	CS_A	1pleas	distractor1	CONbeforeEVA	acq_US_pleas_masked	acq1_masked	1	25	0	0	300	300	0	0	628	50	0	1	0	0	0	1	blank2r.bmp	0	1	+	0	4	B4r.bmp	492	1	blank2r.bmp	786	1	CPLW	786	1	blank2r.bmp	866	1	genießen	866	0	0	0	0	0	0	0	0	0	0	0	0	0	0	0	0	0	0	0	0	0	0	0	0	0	0	0	0	0	0	0	0	0
012219	09:59:26	10:01:57	149844	5.0.10.0	4_exp_AWA_CON_AMP_EVA	81	Rpleas_acq	Same	Rpleas	Amasked	CS_A	1pleas	distractor1	CONbeforeEVA	acq_new_pleas_masked	acq1_masked	1	26	0	0	300	300	0	0	579	50	0	1	0	0	0	1	blank2r.bmp	0	1	+	0	6	C2r.bmp	492	1	blank2r.bmp	786	8	C4r.bmp	786	1	blank2r.bmp	866	5	sonnig	866	0	0	0	0	0	0	0	0	0	0	0	0	0	0	0	0	0	0	0	0	0	0	0	0	0	0	0	0	0	0	0	0	0
012219	09:59:26	10:01:59	151910	5.0.10.0	4_exp_AWA_CON_AMP_EVA	81	Rpleas_acq	Same	Rpleas	Amasked	CS_A	1pleas	distractor1	CONbeforeEVA	acq_new_unple_masked	acq1_masked	1	27	0	0	300	300	0	0	574	46	0	1	0	0	0	1	blank2r.bmp	0	1	+	0	3	B3r.bmp	492	1	blank2r.bmp	786	7	C3r.bmp	786	1	blank2r.bmp	866	1	bange	866	0	0	0	0	0	0	0	0	0	0	0	0	0	0	0	0	0	0	0	0	0	0	0	0	0	0	0	0	0	0	0	0	0
012219	09:59:26	10:02:01	153922	5.0.10.0	4_exp_AWA_CON_AMP_EVA	81	Rpleas_acq	Same	Rpleas	Amasked	CS_A	1pleas	distractor1	CONbeforeEVA	acq_new_unple_masked	acq1_masked	1	28	0	0	300	300	0	0	539	46	0	1	0	0	0	1	blank2r.bmp	0	1	+	0	1	B1r.bmp	492	1	blank2r.bmp	786	3	B3r.bmp	786	1	blank2r.bmp	866	6	verbissen	866	0	0	0	0	0	0	0	0	0	0	0	0	0	0	0	0	0	0	0	0	0	0	0	0	0	0	0	0	0	0	0	0	0
012219	09:59:26	10:02:03	155975	5.0.10.0	4_exp_AWA_CON_AMP_EVA	81	Rpleas_acq	Same	Rpleas	Amasked	CS_A	1pleas	distractor1	CONbeforeEVA	acq_new_unple_masked	acq1_masked	1	29	0	0	300	300	0	0	566	46	0	1	0	0	0	1	blank2r.bmp	0	1	+	0	5	C1r.bmp	492	1	blank2r.bmp	786	2	B2r.bmp	786	1	blank2r.bmp	866	2	krise	866	0	0	0	0	0	0	0	0	0	0	0	0	0	0	0	0	0	0	0	0	0	0	0	0	0	0	0	0	0	0	0	0	0
012219	09:59:26	10:02:05	157961	5.0.10.0	4_exp_AWA_CON_AMP_EVA	81	Rpleas_acq	Same	Rpleas	Amasked	CS_A	1pleas	distractor1	CONbeforeEVA	acq_US_unple_masked	acq1_masked	1	30	0	0	300	300	0	0	498	46	0	1	0	0	0	1	blank2r.bmp	0	1	+	0	7	C3r.bmp	492	1	blank2r.bmp	786	1	DHJF	786	1	blank2r.bmp	866	3	töten	866	0	0	0	0	0	0	0	0	0	0	0	0	0	0	0	0	0	0	0	0	0	0	0	0	0	0	0	0	0	0	0	0	0
012219	09:59:26	10:02:07	159893	5.0.10.0	4_exp_AWA_CON_AMP_EVA	81	Rpleas_acq	Same	Rpleas	Amasked	CS_A	1pleas	distractor1	CONbeforeEVA	acq_new_pleas_masked	acq1_masked	1	31	0	0	300	300	0	0	464	50	0	1	0	0	0	1	blank2r.bmp	0	1	+	0	2	B2r.bmp	492	1	blank2r.bmp	786	3	B3r.bmp	786	1	blank2r.bmp	866	1	besonnen	866	0	0	0	0	0	0	0	0	0	0	0	0	0	0	0	0	0	0	0	0	0	0	0	0	0	0	0	0	0	0	0	0	0
012219	09:59:26	10:02:09	161959	5.0.10.0	4_exp_AWA_CON_AMP_EVA	81	Rpleas_acq	Same	Rpleas	Amasked	CS_A	1pleas	distractor1	CONbeforeEVA	acq_US_pleas_masked	acq1_masked	1	32	0	0	300	300	0	0	581	50	0	1	0	0	0	1	blank2r.bmp	0	1	+	0	8	C4r.bmp	492	1	blank2r.bmp	786	1	CPLW	786	1	blank2r.bmp	866	5	engagiert	866	0	0	0	0	0	0	0	0	0	0	0	0	0	0	0	0	0	0	0	0	0	0	0	0	0	0	0	0	0	0	0	0	0
012219	09:59:26	10:02:11	164052	5.0.10.0	4_exp_AWA_CON_AMP_EVA	81	Rpleas_acq	Same	Rpleas	Amasked	CS_A	1pleas	distractor1	CONbeforeEVA	acq_US_pleas_masked	acq1_masked	1	33	0	0	300	300	0	0	605	50	0	1	0	0	0	1	blank2r.bmp	0	1	+	0	5	C1r.bmp	492	1	blank2r.bmp	786	1	CPLW	786	1	blank2r.bmp	866	2	gütig	866	0	0	0	0	0	0	0	0	0	0	0	0	0	0	0	0	0	0	0	0	0	0	0	0	0	0	0	0	0	0	0	0	0
012219	09:59:26	10:02:14	166357	5.0.10.0	4_exp_AWA_CON_AMP_EVA	81	Rpleas_acq	Same	Rpleas	Amasked	CS_A	1pleas	distractor1	CONbeforeEVA	acq_US_unple_masked	acq1_masked	1	34	0	0	300	300	0	0	821	46	0	1	0	0	0	1	blank2r.bmp	0	1	+	0	8	C4r.bmp	492	1	blank2r.bmp	786	1	DHJF	786	1	blank2r.bmp	866	6	krank	866	0	0	0	0	0	0	0	0	0	0	0	0	0	0	0	0	0	0	0	0	0	0	0	0	0	0	0	0	0	0	0	0	0
012219	09:59:26	10:02:16	168450	5.0.10.0	4_exp_AWA_CON_AMP_EVA	81	Rpleas_acq	Same	Rpleas	Amasked	CS_A	1pleas	distractor1	CONbeforeEVA	acq_new_pleas_masked	acq1_masked	1	35	0	0	300	300	0	0	609	50	0	1	0	0	0	1	blank2r.bmp	0	1	+	0	4	B4r.bmp	492	1	blank2r.bmp	786	2	B2r.bmp	786	1	blank2r.bmp	866	2	kuss	866	0	0	0	0	0	0	0	0	0	0	0	0	0	0	0	0	0	0	0	0	0	0	0	0	0	0	0	0	0	0	0	0	0
012219	09:59:26	10:02:18	170436	5.0.10.0	4_exp_AWA_CON_AMP_EVA	81	Rpleas_acq	Same	Rpleas	Amasked	CS_A	1pleas	distractor1	CONbeforeEVA	acq_US_unple_masked	acq1_masked	1	36	0	0	300	300	0	0	504	46	0	1	0	0	0	1	blank2r.bmp	0	1	+	0	7	C3r.bmp	492	1	blank2r.bmp	786	1	DHJF	786	1	blank2r.bmp	866	1	gemein	866	0	0	0	0	0	0	0	0	0	0	0	0	0	0	0	0	0	0	0	0	0	0	0	0	0	0	0	0	0	0	0	0	0
012219	09:59:26	10:02:49	201223	5.0.10.0	4_exp_AWA_CON_AMP_EVA	81	Rpleas_acq	Same	Rpleas	Amasked	CS_A	1pleas	distractor1	CONbeforeEVA	acq_US_pleas_masked	acq2_masked	2	1	480	0	300	300	0	0	966	50	0	1	0	0	0	1	blank2r.bmp	0	1	+	0	3	B3r.bmp	492	1	blank2r.bmp	786	1	CPLW	786	1	blank2r.bmp	866	4	anregung	866	1	!	1319	1	!	-1	0	0	0	0	0	0	0	0	0	0	0	0	0	0	0	0	0	0	0	0	0	0	0	0	0	0	0
012219	09:59:26	10:02:51	203475	5.0.10.0	4_exp_AWA_CON_AMP_EVA	81	Rpleas_acq	Same	Rpleas	Amasked	CS_A	1pleas	distractor1	CONbeforeEVA	acq_US_pleas_masked	acq2_masked	2	2	480	1	300	300	0	0	441	50	0	1	0	0	0	1	blank2r.bmp	0	1	+	0	2	B2r.bmp	492	1	blank2r.bmp	786	1	CPLW	786	1	blank2r.bmp	866	6	kreativ	866	1	!	1319	1	!	1346	0	0	0	0	0	0	0	0	0	0	0	0	0	0	0	0	0	0	0	0	0	0	0	0	0	0	0
012219	09:59:26	10:02:53	205634	5.0.10.0	4_exp_AWA_CON_AMP_EVA	81	Rpleas_acq	Same	Rpleas	Amasked	CS_A	1pleas	distractor1	CONbeforeEVA	acq_new_unple_masked	acq2_masked	2	3	480	0	300	300	0	0	374	46	0	1	0	0	0	1	blank2r.bmp	0	1	+	0	1	B1r.bmp	492	1	blank2r.bmp	786	7	C3r.bmp	786	1	blank2r.bmp	866	4	geizig	866	1	!	-1	1	!	-1	0	0	0	0	0	0	0	0	0	0	0	0	0	0	0	0	0	0	0	0	0	0	0	0	0	0	0
012219	09:59:26	10:02:55	208073	5.0.10.0	4_exp_AWA_CON_AMP_EVA	81	Rpleas_acq	Same	Rpleas	Amasked	CS_A	1pleas	distractor1	CONbeforeEVA	acq_US_unple_masked	acq2_masked	2	4	480	1	300	300	0	0	435	50	0	0	0	0	0	1	blank2r.bmp	0	1	+	0	6	C2r.bmp	492	1	blank2r.bmp	786	1	DHJF	786	1	blank2r.bmp	866	5	engstirnig	866	1	FEHLER	1652	1	!	1319	1	!	1332	0	0	0	0	0	0	0	0	0	0	0	0	0	0	0	0	0	0	0	0	0	0	0	0
012219	09:59:26	10:02:58	210539	5.0.10.0	4_exp_AWA_CON_AMP_EVA	81	Rpleas_acq	Same	Rpleas	Amasked	CS_A	1pleas	distractor1	CONbeforeEVA	acq_new_unple_masked	acq2_masked	2	5	480	0	300	300	0	0	878	46	0	1	0	0	0	1	blank2r.bmp	0	1	+	0	5	C1r.bmp	492	1	blank2r.bmp	786	1	B1r.bmp	786	1	blank2r.bmp	866	3	versagen	866	1	!	1319	1	!	-1	0	0	0	0	0	0	0	0	0	0	0	0	0	0	0	0	0	0	0	0	0	0	0	0	0	0	0
012219	09:59:26	10:03:00	212951	5.0.10.0	4_exp_AWA_CON_AMP_EVA	81	Rpleas_acq	Same	Rpleas	Amasked	CS_A	1pleas	distractor1	CONbeforeEVA	acq_new_unple_masked	acq2_masked	2	6	480	0	300	300	0	0	400	50	0	0	0	0	0	1	blank2r.bmp	0	1	+	0	3	B3r.bmp	492	1	blank2r.bmp	786	4	B4r.bmp	786	1	blank2r.bmp	866	5	sterben	866	1	FEHLER	1612	1	!	-1	1	!	-1	0	0	0	0	0	0	0	0	0	0	0	0	0	0	0	0	0	0	0	0	0	0	0	0
012219	09:59:26	10:03:02	215004	5.0.10.0	4_exp_AWA_CON_AMP_EVA	81	Rpleas_acq	Same	Rpleas	Amasked	CS_A	1pleas	distractor1	CONbeforeEVA	acq_US_pleas_masked	acq2_masked	2	7	480	1	300	300	0	0	476	50	0	1	0	0	0	1	blank2r.bmp	0	1	+	0	2	B2r.bmp	492	1	blank2r.bmp	786	1	CPLW	786	1	blank2r.bmp	866	3	träumen	866	1	!	1319	1	!	1372	0	0	0	0	0	0	0	0	0	0	0	0	0	0	0	0	0	0	0	0	0	0	0	0	0	0	0
012219	09:59:26	10:03:05	217350	5.0.10.0	4_exp_AWA_CON_AMP_EVA	81	Rpleas_acq	Same	Rpleas	Amasked	CS_A	1pleas	distractor1	CONbeforeEVA	acq_new_pleas_masked	acq2_masked	2	8	480	0	300	300	0	0	570	50	0	1	0	0	0	1	blank2r.bmp	0	1	+	0	7	C3r.bmp	492	1	blank2r.bmp	786	8	C4r.bmp	786	1	blank2r.bmp	866	4	gesittet	866	1	!	1319	1	!	-1	0	0	0	0	0	0	0	0	0	0	0	0	0	0	0	0	0	0	0	0	0	0	0	0	0	0	0
012219	09:59:26	10:03:07	219802	5.0.10.0	4_exp_AWA_CON_AMP_EVA	81	Rpleas_acq	Same	Rpleas	Amasked	CS_A	1pleas	distractor1	CONbeforeEVA	acq_US_unple_masked	acq2_masked	2	9	480	1	300	300	0	0	426	50	0	0	0	0	0	1	blank2r.bmp	0	1	+	0	6	C2r.bmp	492	1	blank2r.bmp	786	1	DHJF	786	1	blank2r.bmp	866	2	gierig	866	1	FEHLER	1652	1	!	1319	1	!	1332	0	0	0	0	0	0	0	0	0	0	0	0	0	0	0	0	0	0	0	0	0	0	0	0
012219	09:59:26	10:03:09	221814	5.0.10.0	4_exp_AWA_CON_AMP_EVA	81	Rpleas_acq	Same	Rpleas	Amasked	CS_A	1pleas	distractor1	CONbeforeEVA	acq_new_pleas_masked	acq2_masked	2	10	480	1	300	300	0	0	432	50	0	1	0	0	0	1	blank2r.bmp	0	1	+	0	4	B4r.bmp	492	1	blank2r.bmp	786	5	C1r.bmp	786	1	blank2r.bmp	866	3	vertrauen	866	1	!	1319	1	!	1332	0	0	0	0	0	0	0	0	0	0	0	0	0	0	0	0	0	0	0	0	0	0	0	0	0	0	0
012219	09:59:26	10:03:12	224147	5.0.10.0	4_exp_AWA_CON_AMP_EVA	81	Rpleas_acq	Same	Rpleas	Amasked	CS_A	1pleas	distractor1	CONbeforeEVA	acq_new_pleas_masked	acq2_masked	2	11	480	0	300	300	0	0	565	50	0	1	0	0	0	1	blank2r.bmp	0	1	+	0	1	B1r.bmp	492	1	blank2r.bmp	786	6	C2r.bmp	786	1	blank2r.bmp	866	6	vergnügt	866	1	!	1319	1	!	-1	0	0	0	0	0	0	0	0	0	0	0	0	0	0	0	0	0	0	0	0	0	0	0	0	0	0	0
012219	09:59:26	10:03:14	226319	5.0.10.0	4_exp_AWA_CON_AMP_EVA	81	Rpleas_acq	Same	Rpleas	Amasked	CS_A	1pleas	distractor1	CONbeforeEVA	acq_US_unple_masked	acq2_masked	2	12	480	0	300	300	0	0	378	46	0	1	0	0	0	1	blank2r.bmp	0	1	+	0	8	C4r.bmp	492	1	blank2r.bmp	786	1	DHJF	786	1	blank2r.bmp	866	4	ausrottung	866	1	!	-1	1	!	-1	0	0	0	0	0	0	0	0	0	0	0	0	0	0	0	0	0	0	0	0	0	0	0	0	0	0	0
012219	09:59:26	10:03:16	228772	5.0.10.0	4_exp_AWA_CON_AMP_EVA	81	Rpleas_acq	Same	Rpleas	Amasked	CS_A	1pleas	distractor1	CONbeforeEVA	acq_new_unple_masked	acq2_masked	2	13	480	0	300	300	0	0	677	46	0	1	0	0	0	1	blank2r.bmp	0	1	+	0	8	C4r.bmp	492	1	blank2r.bmp	786	1	B1r.bmp	786	1	blank2r.bmp	866	5	sterben	866	1	!	1319	1	!	-1	0	0	0	0	0	0	0	0	0	0	0	0	0	0	0	0	0	0	0	0	0	0	0	0	0	0	0
012219	09:59:26	10:03:19	231144	5.0.10.0	4_exp_AWA_CON_AMP_EVA	81	Rpleas_acq	Same	Rpleas	Amasked	CS_A	1pleas	distractor1	CONbeforeEVA	acq_US_unple_masked	acq2_masked	2	14	480	0	300	300	0	0	360	50	0	0	0	0	0	1	blank2r.bmp	0	1	+	0	1	B1r.bmp	492	1	blank2r.bmp	786	1	DHJF	786	1	blank2r.bmp	866	1	gemein	866	1	FEHLER	1572	1	!	-1	1	!	-1	0	0	0	0	0	0	0	0	0	0	0	0	0	0	0	0	0	0	0	0	0	0	0	0
012219	09:59:26	10:03:21	233370	5.0.10.0	4_exp_AWA_CON_AMP_EVA	81	Rpleas_acq	Same	Rpleas	Amasked	CS_A	1pleas	distractor1	CONbeforeEVA	acq_US_pleas_masked	acq2_masked	2	15	480	0	300	300	0	0	663	50	0	1	0	0	0	1	blank2r.bmp	0	1	+	0	3	B3r.bmp	492	1	blank2r.bmp	786	1	CPLW	786	1	blank2r.bmp	866	3	träumen	866	1	!	1319	1	!	-1	0	0	0	0	0	0	0	0	0	0	0	0	0	0	0	0	0	0	0	0	0	0	0	0	0	0	0
012219	09:59:26	10:03:23	235502	5.0.10.0	4_exp_AWA_CON_AMP_EVA	81	Rpleas_acq	Same	Rpleas	Amasked	CS_A	1pleas	distractor1	CONbeforeEVA	acq_new_unple_masked	acq2_masked	2	16	480	0	300	300	0	0	354	46	0	1	0	0	0	1	blank2r.bmp	0	1	+	0	6	C2r.bmp	492	1	blank2r.bmp	786	5	C1r.bmp	786	1	blank2r.bmp	866	3	versagen	866	1	!	-1	1	!	-1	0	0	0	0	0	0	0	0	0	0	0	0	0	0	0	0	0	0	0	0	0	0	0	0	0	0	0
012219	09:59:26	10:03:25	237941	5.0.10.0	4_exp_AWA_CON_AMP_EVA	81	Rpleas_acq	Same	Rpleas	Amasked	CS_A	1pleas	distractor1	CONbeforeEVA	acq_new_pleas_masked	acq2_masked	2	17	480	0	300	300	0	0	656	50	0	1	0	0	0	1	blank2r.bmp	0	1	+	0	5	C1r.bmp	492	1	blank2r.bmp	786	6	C2r.bmp	786	1	blank2r.bmp	866	3	vertrauen	866	1	!	1319	1	!	-1	0	0	0	0	0	0	0	0	0	0	0	0	0	0	0	0	0	0	0	0	0	0	0	0	0	0	0
012219	09:59:26	10:03:28	240300	5.0.10.0	4_exp_AWA_CON_AMP_EVA	81	Rpleas_acq	Same	Rpleas	Amasked	CS_A	1pleas	distractor1	CONbeforeEVA	acq_US_unple_masked	acq2_masked	2	18	480	0	300	300	0	0	580	46	0	1	0	0	0	1	blank2r.bmp	0	1	+	0	4	B4r.bmp	492	1	blank2r.bmp	786	1	DHJF	786	1	blank2r.bmp	866	6	krank	866	1	!	1319	1	!	-1	0	0	0	0	0	0	0	0	0	0	0	0	0	0	0	0	0	0	0	0	0	0	0	0	0	0	0
012219	09:59:26	10:03:30	242832	5.0.10.0	4_exp_AWA_CON_AMP_EVA	81	Rpleas_acq	Same	Rpleas	Amasked	CS_A	1pleas	distractor1	CONbeforeEVA	acq_US_pleas_masked	acq2_masked	2	19	480	0	300	300	0	0	746	50	0	1	0	0	0	1	blank2r.bmp	0	1	+	0	2	B2r.bmp	492	1	blank2r.bmp	786	1	CPLW	786	1	blank2r.bmp	866	2	gütig	866	1	!	1319	1	!	-1	0	0	0	0	0	0	0	0	0	0	0	0	0	0	0	0	0	0	0	0	0	0	0	0	0	0	0
012219	09:59:26	10:03:33	245112	5.0.10.0	4_exp_AWA_CON_AMP_EVA	81	Rpleas_acq	Same	Rpleas	Amasked	CS_A	1pleas	distractor1	CONbeforeEVA	acq_new_unple_masked	acq2_masked	2	20	480	1	300	300	0	0	477	46	0	1	0	0	0	1	blank2r.bmp	0	1	+	0	7	C3r.bmp	492	1	blank2r.bmp	786	8	C4r.bmp	786	1	blank2r.bmp	866	6	verbissen	866	1	!	1319	1	!	1372	0	0	0	0	0	0	0	0	0	0	0	0	0	0	0	0	0	0	0	0	0	0	0	0	0	0	0
012219	09:59:26	10:03:35	247511	5.0.10.0	4_exp_AWA_CON_AMP_EVA	81	Rpleas_acq	Same	Rpleas	Amasked	CS_A	1pleas	distractor1	CONbeforeEVA	acq_new_pleas_masked	acq2_masked	2	21	480	0	300	300	0	0	624	50	0	1	0	0	0	1	blank2r.bmp	0	1	+	0	2	B2r.bmp	492	1	blank2r.bmp	786	3	B3r.bmp	786	1	blank2r.bmp	866	6	vergnügt	866	1	!	1319	1	!	-1	0	0	0	0	0	0	0	0	0	0	0	0	0	0	0	0	0	0	0	0	0	0	0	0	0	0	0
012219	09:59:26	10:03:37	249763	5.0.10.0	4_exp_AWA_CON_AMP_EVA	81	Rpleas_acq	Same	Rpleas	Amasked	CS_A	1pleas	distractor1	CONbeforeEVA	acq_US_unple_masked	acq2_masked	2	22	480	1	300	300	0	0	444	46	0	1	0	0	0	1	blank2r.bmp	0	1	+	0	3	B3r.bmp	492	1	blank2r.bmp	786	1	DHJF	786	1	blank2r.bmp	866	4	ausrottung	866	1	!	1319	1	!	1346	0	0	0	0	0	0	0	0	0	0	0	0	0	0	0	0	0	0	0	0	0	0	0	0	0	0	0
012219	09:59:26	10:03:39	251842	5.0.10.0	4_exp_AWA_CON_AMP_EVA	81	Rpleas_acq	Same	Rpleas	Amasked	CS_A	1pleas	distractor1	CONbeforeEVA	acq_US_pleas_masked	acq2_masked	2	23	480	0	300	300	0	0	311	50	0	1	0	0	0	1	blank2r.bmp	0	1	+	0	6	C2r.bmp	492	1	blank2r.bmp	786	1	CPLW	786	1	blank2r.bmp	866	6	kreativ	866	1	!	-1	1	!	-1	0	0	0	0	0	0	0	0	0	0	0	0	0	0	0	0	0	0	0	0	0	0	0	0	0	0	0
012219	09:59:26	10:03:42	254321	5.0.10.0	4_exp_AWA_CON_AMP_EVA	81	Rpleas_acq	Same	Rpleas	Amasked	CS_A	1pleas	distractor1	CONbeforeEVA	acq_new_pleas_masked	acq2_masked	2	24	480	0	300	300	0	0	702	50	0	1	0	0	0	1	blank2r.bmp	0	1	+	0	7	C3r.bmp	492	1	blank2r.bmp	786	4	B4r.bmp	786	1	blank2r.bmp	866	4	gesittet	866	1	!	1319	1	!	-1	0	0	0	0	0	0	0	0	0	0	0	0	0	0	0	0	0	0	0	0	0	0	0	0	0	0	0
012219	09:59:26	10:03:44	256733	5.0.10.0	4_exp_AWA_CON_AMP_EVA	81	Rpleas_acq	Same	Rpleas	Amasked	CS_A	1pleas	distractor1	CONbeforeEVA	acq_new_pleas_masked	acq2_masked	2	25	480	0	300	300	0	0	634	50	0	1	0	0	0	1	blank2r.bmp	0	1	+	0	8	C4r.bmp	492	1	blank2r.bmp	786	2	B2r.bmp	786	1	blank2r.bmp	866	2	kuss	866	1	!	1319	1	!	-1	0	0	0	0	0	0	0	0	0	0	0	0	0	0	0	0	0	0	0	0	0	0	0	0	0	0	0
012219	09:59:26	10:03:46	259079	5.0.10.0	4_exp_AWA_CON_AMP_EVA	81	Rpleas_acq	Same	Rpleas	Amasked	CS_A	1pleas	distractor1	CONbeforeEVA	acq_US_unple_masked	acq2_masked	2	26	480	0	300	300	0	0	559	46	0	1	0	0	0	1	blank2r.bmp	0	1	+	0	1	B1r.bmp	492	1	blank2r.bmp	786	1	DHJF	786	1	blank2r.bmp	866	2	gierig	866	1	!	1319	1	!	-1	0	0	0	0	0	0	0	0	0	0	0	0	0	0	0	0	0	0	0	0	0	0	0	0	0	0	0
012219	09:59:26	10:03:49	261318	5.0.10.0	4_exp_AWA_CON_AMP_EVA	81	Rpleas_acq	Same	Rpleas	Amasked	CS_A	1pleas	distractor1	CONbeforeEVA	acq_new_pleas_masked	acq2_masked	2	27	480	1	300	300	0	0	436	50	0	1	0	0	0	1	blank2r.bmp	0	1	+	0	5	C1r.bmp	492	1	blank2r.bmp	786	7	C3r.bmp	786	1	blank2r.bmp	866	1	besonnen	866	1	!	1319	1	!	1332	0	0	0	0	0	0	0	0	0	0	0	0	0	0	0	0	0	0	0	0	0	0	0	0	0	0	0
012219	09:59:26	10:03:51	263664	5.0.10.0	4_exp_AWA_CON_AMP_EVA	81	Rpleas_acq	Same	Rpleas	Amasked	CS_A	1pleas	distractor1	CONbeforeEVA	acq_US_unple_masked	acq2_masked	2	28	480	0	300	300	0	0	559	46	0	1	0	0	0	1	blank2r.bmp	0	1	+	0	4	B4r.bmp	492	1	blank2r.bmp	786	1	DHJF	786	1	blank2r.bmp	866	5	engstirnig	866	1	!	1319	1	!	-1	0	0	0	0	0	0	0	0	0	0	0	0	0	0	0	0	0	0	0	0	0	0	0	0	0	0	0
012219	09:59:26	10:03:53	266010	5.0.10.0	4_exp_AWA_CON_AMP_EVA	81	Rpleas_acq	Same	Rpleas	Amasked	CS_A	1pleas	distractor1	CONbeforeEVA	acq_new_unple_masked	acq2_masked	2	29	480	1	300	300	0	0	542	46	0	1	0	0	0	1	blank2r.bmp	0	1	+	0	6	C2r.bmp	492	1	blank2r.bmp	786	4	B4r.bmp	786	1	blank2r.bmp	866	4	geizig	866	1	!	1319	1	!	1439	0	0	0	0	0	0	0	0	0	0	0	0	0	0	0	0	0	0	0	0	0	0	0	0	0	0	0
012219	09:59:26	10:03:56	268155	5.0.10.0	4_exp_AWA_CON_AMP_EVA	81	Rpleas_acq	Same	Rpleas	Amasked	CS_A	1pleas	distractor1	CONbeforeEVA	acq_US_pleas_masked	acq2_masked	2	30	480	0	300	300	0	0	376	50	0	1	0	0	0	1	blank2r.bmp	0	1	+	0	5	C1r.bmp	492	1	blank2r.bmp	786	1	CPLW	786	1	blank2r.bmp	866	4	anregung	866	1	!	-1	1	!	-1	0	0	0	0	0	0	0	0	0	0	0	0	0	0	0	0	0	0	0	0	0	0	0	0	0	0	0
012219	09:59:26	10:03:58	270541	5.0.10.0	4_exp_AWA_CON_AMP_EVA	81	Rpleas_acq	Same	Rpleas	Amasked	CS_A	1pleas	distractor1	CONbeforeEVA	acq_US_pleas_masked	acq2_masked	2	31	480	0	300	300	0	0	593	50	0	1	0	0	0	1	blank2r.bmp	0	1	+	0	4	B4r.bmp	492	1	blank2r.bmp	786	1	CPLW	786	1	blank2r.bmp	866	1	genießen	866	1	!	1319	1	!	-1	0	0	0	0	0	0	0	0	0	0	0	0	0	0	0	0	0	0	0	0	0	0	0	0	0	0	0
012219	09:59:26	10:04:00	272900	5.0.10.0	4_exp_AWA_CON_AMP_EVA	81	Rpleas_acq	Same	Rpleas	Amasked	CS_A	1pleas	distractor1	CONbeforeEVA	acq_US_pleas_masked	acq2_masked	2	32	480	0	300	300	0	0	571	50	0	1	0	0	0	1	blank2r.bmp	0	1	+	0	7	C3r.bmp	492	1	blank2r.bmp	786	1	CPLW	786	1	blank2r.bmp	866	5	engagiert	866	1	!	1319	1	!	-1	0	0	0	0	0	0	0	0	0	0	0	0	0	0	0	0	0	0	0	0	0	0	0	0	0	0	0
012219	09:59:26	10:04:03	275179	5.0.10.0	4_exp_AWA_CON_AMP_EVA	81	Rpleas_acq	Same	Rpleas	Amasked	CS_A	1pleas	distractor1	CONbeforeEVA	acq_US_unple_masked	acq2_masked	2	33	480	1	300	300	0	0	475	46	0	1	0	0	0	1	blank2r.bmp	0	1	+	0	3	B3r.bmp	492	1	blank2r.bmp	786	1	DHJF	786	1	blank2r.bmp	866	3	töten	866	1	!	1319	1	!	1372	0	0	0	0	0	0	0	0	0	0	0	0	0	0	0	0	0	0	0	0	0	0	0	0	0	0	0
012219	09:59:26	10:04:05	277578	5.0.10.0	4_exp_AWA_CON_AMP_EVA	81	Rpleas_acq	Same	Rpleas	Amasked	CS_A	1pleas	distractor1	CONbeforeEVA	acq_new_unple_masked	acq2_masked	2	34	480	0	300	300	0	0	398	50	0	0	0	0	0	1	blank2r.bmp	0	1	+	0	8	C4r.bmp	492	1	blank2r.bmp	786	7	C3r.bmp	786	1	blank2r.bmp	866	1	bange	866	1	FEHLER	1612	1	!	-1	1	!	-1	0	0	0	0	0	0	0	0	0	0	0	0	0	0	0	0	0	0	0	0	0	0	0	0
012219	09:59:26	10:04:07	279751	5.0.10.0	4_exp_AWA_CON_AMP_EVA	81	Rpleas_acq	Same	Rpleas	Amasked	CS_A	1pleas	distractor1	CONbeforeEVA	acq_new_unple_masked	acq2_masked	2	35	480	0	300	300	0	0	613	46	0	1	0	0	0	1	blank2r.bmp	0	1	+	0	1	B1r.bmp	492	1	blank2r.bmp	786	3	B3r.bmp	786	1	blank2r.bmp	866	2	krise	866	1	!	1319	1	!	-1	0	0	0	0	0	0	0	0	0	0	0	0	0	0	0	0	0	0	0	0	0	0	0	0	0	0	0
012219	09:59:26	10:04:10	282083	5.0.10.0	4_exp_AWA_CON_AMP_EVA	81	Rpleas_acq	Same	Rpleas	Amasked	CS_A	1pleas	distractor1	CONbeforeEVA	acq_new_pleas_masked	acq2_masked	2	36	480	1	300	300	0	0	527	50	0	1	0	0	0	1	blank2r.bmp	0	1	+	0	2	B2r.bmp	492	1	blank2r.bmp	786	5	C1r.bmp	786	1	blank2r.bmp	866	5	sonnig	866	1	!	1319	1	!	1426	0	0	0	0	0	0	0	0	0	0	0	0	0	0	0	0	0	0	0	0	0	0	0	0	0	0	0
012219	09:59:26	10:04:32	304900	5.0.10.0	4_exp_AWA_CON_AMP_EVA	81	Rpleas_acq	Same	Rpleas	Amasked	CS_A	1pleas	distractor1	CONbeforeEVA	acq_US_pleas_masked	acq3_masked	3	1	453	0	300	300	0	0	922	46	0	0	0	0	0	1	blank2r.bmp	0	1	+	0	5	C1r.bmp	492	1	blank2r.bmp	786	1	CPLW	786	1	blank2r.bmp	866	5	engagiert	866	1	FEHLER	2132	1	!	1292	1	!	-1	0	0	0	0	0	0	0	0	0	0	0	0	0	0	0	0	0	0	0	0	0	0	0	0
012219	09:59:26	10:04:34	307006	5.0.10.0	4_exp_AWA_CON_AMP_EVA	81	Rpleas_acq	Same	Rpleas	Amasked	CS_A	1pleas	distractor1	CONbeforeEVA	acq_US_pleas_masked	acq3_masked	3	2	453	1	300	300	0	0	508	50	0	1	0	0	0	1	blank2r.bmp	0	1	+	0	1	B1r.bmp	492	1	blank2r.bmp	786	1	CPLW	786	1	blank2r.bmp	866	4	anregung	866	1	!	1292	1	!	1412	0	0	0	0	0	0	0	0	0	0	0	0	0	0	0	0	0	0	0	0	0	0	0	0	0	0	0
012219	09:59:26	10:04:37	309205	5.0.10.0	4_exp_AWA_CON_AMP_EVA	81	Rpleas_acq	Same	Rpleas	Amasked	CS_A	1pleas	distractor1	CONbeforeEVA	acq_US_unple_masked	acq3_masked	3	3	453	1	300	300	0	0	399	46	0	1	0	0	0	1	blank2r.bmp	0	1	+	0	4	B4r.bmp	492	1	blank2r.bmp	786	1	DHJF	786	1	blank2r.bmp	866	3	töten	866	1	!	1292	1	!	1306	0	0	0	0	0	0	0	0	0	0	0	0	0	0	0	0	0	0	0	0	0	0	0	0	0	0	0
012219	09:59:26	10:04:39	311484	5.0.10.0	4_exp_AWA_CON_AMP_EVA	81	Rpleas_acq	Same	Rpleas	Amasked	CS_A	1pleas	distractor1	CONbeforeEVA	acq_US_unple_masked	acq3_masked	3	4	453	1	300	300	0	0	486	46	0	1	0	0	0	1	blank2r.bmp	0	1	+	0	8	C4r.bmp	492	1	blank2r.bmp	786	1	DHJF	786	1	blank2r.bmp	866	6	krank	866	1	!	1292	1	!	1386	0	0	0	0	0	0	0	0	0	0	0	0	0	0	0	0	0	0	0	0	0	0	0	0	0	0	0
012219	09:59:26	10:04:41	313817	5.0.10.0	4_exp_AWA_CON_AMP_EVA	81	Rpleas_acq	Same	Rpleas	Amasked	CS_A	1pleas	distractor1	CONbeforeEVA	acq_US_unple_masked	acq3_masked	3	5	453	0	300	300	0	0	561	46	0	1	0	0	0	1	blank2r.bmp	0	1	+	0	3	B3r.bmp	492	1	blank2r.bmp	786	1	DHJF	786	1	blank2r.bmp	866	5	engstirnig	866	1	!	1292	1	!	-1	0	0	0	0	0	0	0	0	0	0	0	0	0	0	0	0	0	0	0	0	0	0	0	0	0	0	0
012219	09:59:26	10:04:44	316149	5.0.10.0	4_exp_AWA_CON_AMP_EVA	81	Rpleas_acq	Same	Rpleas	Amasked	CS_A	1pleas	distractor1	CONbeforeEVA	acq_US_unple_masked	acq3_masked	3	6	453	1	300	300	0	0	508	46	0	1	0	0	0	1	blank2r.bmp	0	1	+	0	7	C3r.bmp	492	1	blank2r.bmp	786	1	DHJF	786	1	blank2r.bmp	866	1	gemein	866	1	!	1292	1	!	1412	0	0	0	0	0	0	0	0	0	0	0	0	0	0	0	0	0	0	0	0	0	0	0	0	0	0	0
012219	09:59:26	10:04:46	318455	5.0.10.0	4_exp_AWA_CON_AMP_EVA	81	Rpleas_acq	Same	Rpleas	Amasked	CS_A	1pleas	distractor1	CONbeforeEVA	acq_US_pleas_masked	acq3_masked	3	7	453	0	300	300	0	0	544	50	0	1	0	0	0	1	blank2r.bmp	0	1	+	0	2	B2r.bmp	492	1	blank2r.bmp	786	1	CPLW	786	1	blank2r.bmp	866	2	gütig	866	1	!	1292	1	!	-1	0	0	0	0	0	0	0	0	0	0	0	0	0	0	0	0	0	0	0	0	0	0	0	0	0	0	0
012219	09:59:26	10:04:48	320707	5.0.10.0	4_exp_AWA_CON_AMP_EVA	81	Rpleas_acq	Same	Rpleas	Amasked	CS_A	1pleas	distractor1	CONbeforeEVA	acq_US_unple_masked	acq3_masked	3	8	453	1	300	300	0	0	440	46	0	1	0	0	0	1	blank2r.bmp	0	1	+	0	6	C2r.bmp	492	1	blank2r.bmp	786	1	DHJF	786	1	blank2r.bmp	866	4	ausrottung	866	1	!	1292	1	!	1346	0	0	0	0	0	0	0	0	0	0	0	0	0	0	0	0	0	0	0	0	0	0	0	0	0	0	0
012219	09:59:26	10:04:50	322919	5.0.10.0	4_exp_AWA_CON_AMP_EVA	81	Rpleas_acq	Same	Rpleas	Amasked	CS_A	1pleas	distractor1	CONbeforeEVA	acq_US_pleas_masked	acq3_masked	3	9	453	1	300	300	0	0	399	50	0	1	0	0	0	1	blank2r.bmp	0	1	+	0	5	C1r.bmp	492	1	blank2r.bmp	786	1	CPLW	786	1	blank2r.bmp	866	6	kreativ	866	1	!	1292	1	!	1306	0	0	0	0	0	0	0	0	0	0	0	0	0	0	0	0	0	0	0	0	0	0	0	0	0	0	0
012219	09:59:26	10:04:53	325238	5.0.10.0	4_exp_AWA_CON_AMP_EVA	81	Rpleas_acq	Same	Rpleas	Amasked	CS_A	1pleas	distractor1	CONbeforeEVA	acq_US_pleas_masked	acq3_masked	3	10	453	0	300	300	0	0	547	50	0	1	0	0	0	1	blank2r.bmp	0	1	+	0	6	C2r.bmp	492	1	blank2r.bmp	786	1	CPLW	786	1	blank2r.bmp	866	3	träumen	866	1	!	1292	1	!	-1	0	0	0	0	0	0	0	0	0	0	0	0	0	0	0	0	0	0	0	0	0	0	0	0	0	0	0
012219	09:59:26	10:04:55	327318	5.0.10.0	4_exp_AWA_CON_AMP_EVA	81	Rpleas_acq	Same	Rpleas	Amasked	CS_A	1pleas	distractor1	CONbeforeEVA	acq_US_unple_masked	acq3_masked	3	11	453	0	300	300	0	0	304	46	0	1	0	0	0	1	blank2r.bmp	0	1	+	0	3	B3r.bmp	492	1	blank2r.bmp	786	1	DHJF	786	1	blank2r.bmp	866	2	gierig	866	1	!	-1	1	!	-1	0	0	0	0	0	0	0	0	0	0	0	0	0	0	0	0	0	0	0	0	0	0	0	0	0	0	0
012219	09:59:26	10:04:57	329463	5.0.10.0	4_exp_AWA_CON_AMP_EVA	81	Rpleas_acq	Same	Rpleas	Amasked	CS_A	1pleas	distractor1	CONbeforeEVA	acq_US_pleas_masked	acq3_masked	3	12	453	0	300	300	0	0	359	50	0	1	0	0	0	1	blank2r.bmp	0	1	+	0	8	C4r.bmp	492	1	blank2r.bmp	786	1	CPLW	786	1	blank2r.bmp	866	1	genießen	866	1	!	-1	1	!	-1	0	0	0	0	0	0	0	0	0	0	0	0	0	0	0	0	0	0	0	0	0	0	0	0	0	0	0
012219	09:59:26	10:04:59	331796	5.0.10.0	4_exp_AWA_CON_AMP_EVA	81	Rpleas_acq	Same	Rpleas	Amasked	CS_A	1pleas	distractor1	CONbeforeEVA	acq_US_unple_masked	acq3_masked	3	13	453	0	300	300	0	0	540	46	0	1	0	0	0	1	blank2r.bmp	0	1	+	0	4	B4r.bmp	492	1	blank2r.bmp	786	1	DHJF	786	1	blank2r.bmp	866	1	gemein	866	1	!	1292	1	!	-1	0	0	0	0	0	0	0	0	0	0	0	0	0	0	0	0	0	0	0	0	0	0	0	0	0	0	0
012219	09:59:26	10:05:02	334115	5.0.10.0	4_exp_AWA_CON_AMP_EVA	81	Rpleas_acq	Same	Rpleas	Amasked	CS_A	1pleas	distractor1	CONbeforeEVA	acq_US_pleas_masked	acq3_masked	3	14	453	0	300	300	0	0	532	50	0	1	0	0	0	1	blank2r.bmp	0	1	+	0	2	B2r.bmp	492	1	blank2r.bmp	786	1	CPLW	786	1	blank2r.bmp	866	4	anregung	866	1	!	1292	1	!	-1	0	0	0	0	0	0	0	0	0	0	0	0	0	0	0	0	0	0	0	0	0	0	0	0	0	0	0
012219	09:59:26	10:05:04	336447	5.0.10.0	4_exp_AWA_CON_AMP_EVA	81	Rpleas_acq	Same	Rpleas	Amasked	CS_A	1pleas	distractor1	CONbeforeEVA	acq_US_pleas_masked	acq3_masked	3	15	453	1	300	300	0	0	519	50	0	1	0	0	0	1	blank2r.bmp	0	1	+	0	1	B1r.bmp	492	1	blank2r.bmp	786	1	CPLW	786	1	blank2r.bmp	866	2	gütig	866	1	!	1292	1	!	1426	0	0	0	0	0	0	0	0	0	0	0	0	0	0	0	0	0	0	0	0	0	0	0	0	0	0	0
012219	09:59:26	10:05:06	338726	5.0.10.0	4_exp_AWA_CON_AMP_EVA	81	Rpleas_acq	Same	Rpleas	Amasked	CS_A	1pleas	distractor1	CONbeforeEVA	acq_US_pleas_masked	acq3_masked	3	16	453	1	300	300	0	0	489	50	0	1	0	0	0	1	blank2r.bmp	0	1	+	0	7	C3r.bmp	492	1	blank2r.bmp	786	1	CPLW	786	1	blank2r.bmp	866	3	träumen	866	1	!	1292	1	!	1386	0	0	0	0	0	0	0	0	0	0	0	0	0	0	0	0	0	0	0	0	0	0	0	0	0	0	0
012219	09:59:26	10:05:08	340832	5.0.10.0	4_exp_AWA_CON_AMP_EVA	81	Rpleas_acq	Same	Rpleas	Amasked	CS_A	1pleas	distractor1	CONbeforeEVA	acq_US_unple_masked	acq3_masked	3	17	453	0	300	300	0	0	326	46	0	1	0	0	0	1	blank2r.bmp	0	1	+	0	1	B1r.bmp	492	1	blank2r.bmp	786	1	DHJF	786	1	blank2r.bmp	866	4	ausrottung	866	1	!	-1	1	!	-1	0	0	0	0	0	0	0	0	0	0	0	0	0	0	0	0	0	0	0	0	0	0	0	0	0	0	0
012219	09:59:26	10:05:11	343284	5.0.10.0	4_exp_AWA_CON_AMP_EVA	81	Rpleas_acq	Same	Rpleas	Amasked	CS_A	1pleas	distractor1	CONbeforeEVA	acq_US_pleas_masked	acq3_masked	3	18	453	0	300	300	0	0	673	50	0	1	0	0	0	1	blank2r.bmp	0	1	+	0	5	C1r.bmp	492	1	blank2r.bmp	786	1	CPLW	786	1	blank2r.bmp	866	1	genießen	866	1	!	1292	1	!	-1	0	0	0	0	0	0	0	0	0	0	0	0	0	0	0	0	0	0	0	0	0	0	0	0	0	0	0
012219	09:59:26	10:05:13	345577	5.0.10.0	4_exp_AWA_CON_AMP_EVA	81	Rpleas_acq	Same	Rpleas	Amasked	CS_A	1pleas	distractor1	CONbeforeEVA	acq_US_unple_masked	acq3_masked	3	19	453	1	300	300	0	0	466	46	0	1	0	0	0	1	blank2r.bmp	0	1	+	0	3	B3r.bmp	492	1	blank2r.bmp	786	1	DHJF	786	1	blank2r.bmp	866	5	engstirnig	866	1	!	1292	1	!	1372	0	0	0	0	0	0	0	0	0	0	0	0	0	0	0	0	0	0	0	0	0	0	0	0	0	0	0
012219	09:59:26	10:05:15	347949	5.0.10.0	4_exp_AWA_CON_AMP_EVA	81	Rpleas_acq	Same	Rpleas	Amasked	CS_A	1pleas	distractor1	CONbeforeEVA	acq_US_unple_masked	acq3_masked	3	20	453	0	300	300	0	0	610	46	0	1	0	0	0	1	blank2r.bmp	0	1	+	0	7	C3r.bmp	492	1	blank2r.bmp	786	1	DHJF	786	1	blank2r.bmp	866	2	gierig	866	1	!	1292	1	!	-1	0	0	0	0	0	0	0	0	0	0	0	0	0	0	0	0	0	0	0	0	0	0	0	0	0	0	0
012219	09:59:26	10:05:18	350281	5.0.10.0	4_exp_AWA_CON_AMP_EVA	81	Rpleas_acq	Same	Rpleas	Amasked	CS_A	1pleas	distractor1	CONbeforeEVA	acq_US_pleas_masked	acq3_masked	3	21	453	0	300	300	0	0	544	50	0	1	0	0	0	1	blank2r.bmp	0	1	+	0	6	C2r.bmp	492	1	blank2r.bmp	786	1	CPLW	786	1	blank2r.bmp	866	5	engagiert	866	1	!	1292	1	!	-1	0	0	0	0	0	0	0	0	0	0	0	0	0	0	0	0	0	0	0	0	0	0	0	0	0	0	0
012219	09:59:26	10:05:20	352401	5.0.10.0	4_exp_AWA_CON_AMP_EVA	81	Rpleas_acq	Same	Rpleas	Amasked	CS_A	1pleas	distractor1	CONbeforeEVA	acq_US_unple_masked	acq3_masked	3	22	453	0	300	300	0	0	339	46	0	1	0	0	0	1	blank2r.bmp	0	1	+	0	4	B4r.bmp	492	1	blank2r.bmp	786	1	DHJF	786	1	blank2r.bmp	866	3	töten	866	1	!	-1	1	!	-1	0	0	0	0	0	0	0	0	0	0	0	0	0	0	0	0	0	0	0	0	0	0	0	0	0	0	0
012219	09:59:26	10:05:22	354746	5.0.10.0	4_exp_AWA_CON_AMP_EVA	81	Rpleas_acq	Same	Rpleas	Amasked	CS_A	1pleas	distractor1	CONbeforeEVA	acq_US_pleas_masked	acq3_masked	3	23	453	0	300	300	0	0	566	50	0	1	0	0	0	1	blank2r.bmp	0	1	+	0	2	B2r.bmp	492	1	blank2r.bmp	786	1	CPLW	786	1	blank2r.bmp	866	6	kreativ	866	1	!	1292	1	!	-1	0	0	0	0	0	0	0	0	0	0	0	0	0	0	0	0	0	0	0	0	0	0	0	0	0	0	0
012219	09:59:26	10:05:24	356959	5.0.10.0	4_exp_AWA_CON_AMP_EVA	81	Rpleas_acq	Same	Rpleas	Amasked	CS_A	1pleas	distractor1	CONbeforeEVA	acq_US_unple_masked	acq3_masked	3	24	453	1	300	300	0	0	399	46	0	1	0	0	0	1	blank2r.bmp	0	1	+	0	8	C4r.bmp	492	1	blank2r.bmp	786	1	DHJF	786	1	blank2r.bmp	866	6	krank	866	1	!	1292	1	!	1306	0	0	0	0	0	0	0	0	0	0	0	0	0	0	0	0	0	0	0	0	0	0	0	0	0	0	0
012219	09:59:26	10:05:27	359264	5.0.10.0	4_exp_AWA_CON_AMP_EVA	81	Rpleas_acq	Same	Rpleas	Amasked	CS_A	1pleas	distractor1	CONbeforeEVA	acq_US_unple_masked	acq3_masked	3	25	453	0	300	300	0	0	532	46	0	1	0	0	0	1	blank2r.bmp	0	1	+	0	5	C1r.bmp	492	1	blank2r.bmp	786	1	DHJF	786	1	blank2r.bmp	866	5	engstirnig	866	1	!	1292	1	!	-1	0	0	0	0	0	0	0	0	0	0	0	0	0	0	0	0	0	0	0	0	0	0	0	0	0	0	0
012219	09:59:26	10:05:29	361557	5.0.10.0	4_exp_AWA_CON_AMP_EVA	81	Rpleas_acq	Same	Rpleas	Amasked	CS_A	1pleas	distractor1	CONbeforeEVA	acq_US_pleas_masked	acq3_masked	3	26	453	1	300	300	0	0	485	50	0	1	0	0	0	1	blank2r.bmp	0	1	+	0	7	C3r.bmp	492	1	blank2r.bmp	786	1	CPLW	786	1	blank2r.bmp	866	6	kreativ	866	1	!	1292	1	!	1386	0	0	0	0	0	0	0	0	0	0	0	0	0	0	0	0	0	0	0	0	0	0	0	0	0	0	0
012219	09:59:26	10:05:31	363863	5.0.10.0	4_exp_AWA_CON_AMP_EVA	81	Rpleas_acq	Same	Rpleas	Amasked	CS_A	1pleas	distractor1	CONbeforeEVA	acq_US_pleas_masked	acq3_masked	3	27	453	0	300	300	0	0	533	50	0	1	0	0	0	1	blank2r.bmp	0	1	+	0	8	C4r.bmp	492	1	blank2r.bmp	786	1	CPLW	786	1	blank2r.bmp	866	1	genießen	866	1	!	1292	1	!	-1	0	0	0	0	0	0	0	0	0	0	0	0	0	0	0	0	0	0	0	0	0	0	0	0	0	0	0
012219	09:59:26	10:05:33	366075	5.0.10.0	4_exp_AWA_CON_AMP_EVA	81	Rpleas_acq	Same	Rpleas	Amasked	CS_A	1pleas	distractor1	CONbeforeEVA	acq_US_pleas_masked	acq3_masked	3	28	453	1	300	300	0	0	399	50	0	1	0	0	0	1	blank2r.bmp	0	1	+	0	4	B4r.bmp	492	1	blank2r.bmp	786	1	CPLW	786	1	blank2r.bmp	866	5	engagiert	866	1	!	1292	1	!	1306	0	0	0	0	0	0	0	0	0	0	0	0	0	0	0	0	0	0	0	0	0	0	0	0	0	0	0
012219	09:59:26	10:05:36	368381	5.0.10.0	4_exp_AWA_CON_AMP_EVA	81	Rpleas_acq	Same	Rpleas	Amasked	CS_A	1pleas	distractor1	CONbeforeEVA	acq_US_unple_masked	acq3_masked	3	29	453	0	300	300	0	0	532	46	0	1	0	0	0	1	blank2r.bmp	0	1	+	0	1	B1r.bmp	492	1	blank2r.bmp	786	1	DHJF	786	1	blank2r.bmp	866	6	krank	866	1	!	1292	1	!	-1	0	0	0	0	0	0	0	0	0	0	0	0	0	0	0	0	0	0	0	0	0	0	0	0	0	0	0
012219	09:59:26	10:05:38	370700	5.0.10.0	4_exp_AWA_CON_AMP_EVA	81	Rpleas_acq	Same	Rpleas	Amasked	CS_A	1pleas	distractor1	CONbeforeEVA	acq_US_pleas_masked	acq3_masked	3	30	453	1	300	300	0	0	510	50	0	1	0	0	0	1	blank2r.bmp	0	1	+	0	6	C2r.bmp	492	1	blank2r.bmp	786	1	CPLW	786	1	blank2r.bmp	866	3	träumen	866	1	!	1292	1	!	1412	0	0	0	0	0	0	0	0	0	0	0	0	0	0	0	0	0	0	0	0	0	0	0	0	0	0	0
012219	09:59:26	10:05:40	372965	5.0.10.0	4_exp_AWA_CON_AMP_EVA	81	Rpleas_acq	Same	Rpleas	Amasked	CS_A	1pleas	distractor1	CONbeforeEVA	acq_US_unple_masked	acq3_masked	3	31	453	1	300	300	0	0	472	46	0	1	0	0	0	1	blank2r.bmp	0	1	+	0	2	B2r.bmp	492	1	blank2r.bmp	786	1	DHJF	786	1	blank2r.bmp	866	3	töten	866	1	!	1292	1	!	1372	0	0	0	0	0	0	0	0	0	0	0	0	0	0	0	0	0	0	0	0	0	0	0	0	0	0	0
012219	09:59:26	10:05:43	375444	5.0.10.0	4_exp_AWA_CON_AMP_EVA	81	Rpleas_acq	Same	Rpleas	Amasked	CS_A	1pleas	distractor1	CONbeforeEVA	acq_US_unple_masked	acq3_masked	3	32	453	0	300	300	0	0	712	46	0	1	0	0	0	1	blank2r.bmp	0	1	+	0	3	B3r.bmp	492	1	blank2r.bmp	786	1	DHJF	786	1	blank2r.bmp	866	1	gemein	866	1	!	1292	1	!	-1	0	0	0	0	0	0	0	0	0	0	0	0	0	0	0	0	0	0	0	0	0	0	0	0	0	0	0
012219	09:59:26	10:05:45	377777	5.0.10.0	4_exp_AWA_CON_AMP_EVA	81	Rpleas_acq	Same	Rpleas	Amasked	CS_A	1pleas	distractor1	CONbeforeEVA	acq_US_unple_masked	acq3_masked	3	33	453	0	300	300	0	0	549	46	0	1	0	0	0	1	blank2r.bmp	0	1	+	0	2	B2r.bmp	492	1	blank2r.bmp	786	1	DHJF	786	1	blank2r.bmp	866	4	ausrottung	866	1	!	1292	1	!	-1	0	0	0	0	0	0	0	0	0	0	0	0	0	0	0	0	0	0	0	0	0	0	0	0	0	0	0
012219	09:59:26	10:05:47	380016	5.0.10.0	4_exp_AWA_CON_AMP_EVA	81	Rpleas_acq	Same	Rpleas	Amasked	CS_A	1pleas	distractor1	CONbeforeEVA	acq_US_pleas_masked	acq3_masked	3	34	453	1	300	300	0	0	437	50	0	1	0	0	0	1	blank2r.bmp	0	1	+	0	6	C2r.bmp	492	1	blank2r.bmp	786	1	CPLW	786	1	blank2r.bmp	866	4	anregung	866	1	!	1292	1	!	1332	0	0	0	0	0	0	0	0	0	0	0	0	0	0	0	0	0	0	0	0	0	0	0	0	0	0	0
012219	09:59:26	10:05:50	382442	5.0.10.0	4_exp_AWA_CON_AMP_EVA	81	Rpleas_acq	Same	Rpleas	Amasked	CS_A	1pleas	distractor1	CONbeforeEVA	acq_US_pleas_masked	acq3_masked	3	35	453	0	300	300	0	0	654	50	0	1	0	0	0	1	blank2r.bmp	0	1	+	0	3	B3r.bmp	492	1	blank2r.bmp	786	1	CPLW	786	1	blank2r.bmp	866	2	gütig	866	1	!	1292	1	!	-1	0	0	0	0	0	0	0	0	0	0	0	0	0	0	0	0	0	0	0	0	0	0	0	0	0	0	0
012219	09:59:26	10:05:52	384774	5.0.10.0	4_exp_AWA_CON_AMP_EVA	81	Rpleas_acq	Same	Rpleas	Amasked	CS_A	1pleas	distractor1	CONbeforeEVA	acq_US_unple_masked	acq3_masked	3	36	453	1	300	300	0	0	520	46	0	1	0	0	0	1	blank2r.bmp	0	1	+	0	8	C4r.bmp	492	1	blank2r.bmp	786	1	DHJF	786	1	blank2r.bmp	866	2	gierig	866	1	!	1292	1	!	1426	0	0	0	0	0	0	0	0	0	0	0	0	0	0	0	0	0	0	0	0	0	0	0	0	0	0	0
012219	09:59:26	10:06:09	401407	5.0.10.0	4_exp_AWA_CON_AMP_EVA	81	Rpleas_acq	Same	Rpleas	Amasked	CS_A	1pleas	distractor1	CONbeforeEVA	acq_US_pleas_masked	acq45_masked	4	1	400	0	300	300	0	0	291	46	0	0	0	0	0	1	blank2r.bmp	0	1	+	0	4	B4r.bmp	492	1	blank2r.bmp	786	1	CPLW	786	1	blank2r.bmp	866	4	anregung	866	1	!	-1	1	!	-1	0	0	0	0	0	0	0	0	0	0	0	0	0	0	0	0	0	0	0	0	0	0	0	0	0	0	0
012219	09:59:26	10:06:11	403659	5.0.10.0	4_exp_AWA_CON_AMP_EVA	81	Rpleas_acq	Same	Rpleas	Amasked	CS_A	1pleas	distractor1	CONbeforeEVA	acq_US_unple_masked	acq45_masked	4	2	400	1	300	300	0	0	440	46	0	1	0	0	0	1	blank2r.bmp	0	1	+	0	5	C1r.bmp	492	1	blank2r.bmp	786	1	DHJF	786	1	blank2r.bmp	866	2	gierig	866	1	!	1239	1	!	1346	0	0	0	0	0	0	0	0	0	0	0	0	0	0	0	0	0	0	0	0	0	0	0	0	0	0	0
012219	09:59:26	10:06:13	405725	5.0.10.0	4_exp_AWA_CON_AMP_EVA	81	Rpleas_acq	Same	Rpleas	Amasked	CS_A	1pleas	distractor1	CONbeforeEVA	acq_US_pleas_masked	acq45_masked	4	3	400	0	300	300	0	0	301	50	0	1	0	0	0	1	blank2r.bmp	0	1	+	0	7	C3r.bmp	492	1	blank2r.bmp	786	1	CPLW	786	1	blank2r.bmp	866	2	gütig	866	1	!	-1	1	!	-1	0	0	0	0	0	0	0	0	0	0	0	0	0	0	0	0	0	0	0	0	0	0	0	0	0	0	0
012219	09:59:26	10:06:15	407951	5.0.10.0	4_exp_AWA_CON_AMP_EVA	81	Rpleas_acq	Same	Rpleas	Amasked	CS_A	1pleas	distractor1	CONbeforeEVA	acq_US_unple_masked	acq45_masked	4	4	400	1	300	300	0	0	416	46	0	1	0	0	0	1	blank2r.bmp	0	1	+	0	1	B1r.bmp	492	1	blank2r.bmp	786	1	DHJF	786	1	blank2r.bmp	866	5	engstirnig	866	1	!	1239	1	!	1319	0	0	0	0	0	0	0	0	0	0	0	0	0	0	0	0	0	0	0	0	0	0	0	0	0	0	0
012219	09:59:26	10:06:18	410217	5.0.10.0	4_exp_AWA_CON_AMP_EVA	81	Rpleas_acq	Same	Rpleas	Amasked	CS_A	1pleas	distractor1	CONbeforeEVA	acq_US_unple_masked	acq45_masked	4	5	400	0	300	300	0	0	504	46	0	1	0	0	0	1	blank2r.bmp	0	1	+	0	3	B3r.bmp	492	1	blank2r.bmp	786	1	DHJF	786	1	blank2r.bmp	866	3	töten	866	1	!	1239	1	!	-1	0	0	0	0	0	0	0	0	0	0	0	0	0	0	0	0	0	0	0	0	0	0	0	0	0	0	0
012219	09:59:26	10:06:20	412416	5.0.10.0	4_exp_AWA_CON_AMP_EVA	81	Rpleas_acq	Same	Rpleas	Amasked	CS_A	1pleas	distractor1	CONbeforeEVA	acq_US_pleas_masked	acq45_masked	4	6	400	1	300	300	0	0	397	46	0	0	0	0	0	1	blank2r.bmp	0	1	+	0	7	C3r.bmp	492	1	blank2r.bmp	786	1	CPLW	786	1	blank2r.bmp	866	5	engagiert	866	1	!	1239	1	!	1292	0	0	0	0	0	0	0	0	0	0	0	0	0	0	0	0	0	0	0	0	0	0	0	0	0	0	0
012219	09:59:26	10:06:22	414722	5.0.10.0	4_exp_AWA_CON_AMP_EVA	81	Rpleas_acq	Same	Rpleas	Amasked	CS_A	1pleas	distractor1	CONbeforeEVA	acq_US_pleas_masked	acq45_masked	4	7	400	0	300	300	0	0	544	50	0	1	0	0	0	1	blank2r.bmp	0	1	+	0	6	C2r.bmp	492	1	blank2r.bmp	786	1	CPLW	786	1	blank2r.bmp	866	1	genießen	866	1	!	1239	1	!	-1	0	0	0	0	0	0	0	0	0	0	0	0	0	0	0	0	0	0	0	0	0	0	0	0	0	0	0
012219	09:59:26	10:06:24	416987	5.0.10.0	4_exp_AWA_CON_AMP_EVA	81	Rpleas_acq	Same	Rpleas	Amasked	CS_A	1pleas	distractor1	CONbeforeEVA	acq_US_pleas_masked	acq45_masked	4	8	400	1	300	300	0	0	461	50	0	1	0	0	0	1	blank2r.bmp	0	1	+	0	4	B4r.bmp	492	1	blank2r.bmp	786	1	CPLW	786	1	blank2r.bmp	866	6	kreativ	866	1	!	1239	1	!	1359	0	0	0	0	0	0	0	0	0	0	0	0	0	0	0	0	0	0	0	0	0	0	0	0	0	0	0
012219	09:59:26	10:06:27	419213	5.0.10.0	4_exp_AWA_CON_AMP_EVA	81	Rpleas_acq	Same	Rpleas	Amasked	CS_A	1pleas	distractor1	CONbeforeEVA	acq_US_unple_masked	acq45_masked	4	9	400	1	300	300	0	0	428	46	0	1	0	0	0	1	blank2r.bmp	0	1	+	0	2	B2r.bmp	492	1	blank2r.bmp	786	1	DHJF	786	1	blank2r.bmp	866	1	gemein	866	1	!	1239	1	!	1332	0	0	0	0	0	0	0	0	0	0	0	0	0	0	0	0	0	0	0	0	0	0	0	0	0	0	0
012219	09:59:26	10:06:29	421279	5.0.10.0	4_exp_AWA_CON_AMP_EVA	81	Rpleas_acq	Same	Rpleas	Amasked	CS_A	1pleas	distractor1	CONbeforeEVA	acq_US_unple_masked	acq45_masked	4	10	400	0	300	300	0	0	301	50	0	0	0	0	0	1	blank2r.bmp	0	1	+	0	8	C4r.bmp	492	1	blank2r.bmp	786	1	DHJF	786	1	blank2r.bmp	866	6	krank	866	1	!	-1	1	!	-1	0	0	0	0	0	0	0	0	0	0	0	0	0	0	0	0	0	0	0	0	0	0	0	0	0	0	0
012219	09:59:26	10:06:31	423545	5.0.10.0	4_exp_AWA_CON_AMP_EVA	81	Rpleas_acq	Same	Rpleas	Amasked	CS_A	1pleas	distractor1	CONbeforeEVA	acq_US_unple_masked	acq45_masked	4	11	400	0	300	300	0	0	485	46	0	1	0	0	0	1	blank2r.bmp	0	1	+	0	5	C1r.bmp	492	1	blank2r.bmp	786	1	DHJF	786	1	blank2r.bmp	866	4	ausrottung	866	1	!	1239	1	!	-1	0	0	0	0	0	0	0	0	0	0	0	0	0	0	0	0	0	0	0	0	0	0	0	0	0	0	0
012219	09:59:26	10:06:33	425757	5.0.10.0	4_exp_AWA_CON_AMP_EVA	81	Rpleas_acq	Same	Rpleas	Amasked	CS_A	1pleas	distractor1	CONbeforeEVA	acq_US_pleas_masked	acq45_masked	4	12	400	1	300	300	0	0	393	50	0	1	0	0	0	1	blank2r.bmp	0	1	+	0	1	B1r.bmp	492	1	blank2r.bmp	786	1	CPLW	786	1	blank2r.bmp	866	3	träumen	866	1	!	1239	1	!	1292	0	0	0	0	0	0	0	0	0	0	0	0	0	0	0	0	0	0	0	0	0	0	0	0	0	0	0
012219	09:59:26	10:06:35	428009	5.0.10.0	4_exp_AWA_CON_AMP_EVA	81	Rpleas_acq	Same	Rpleas	Amasked	CS_A	1pleas	distractor1	CONbeforeEVA	acq_US_unple_masked	acq45_masked	4	13	400	1	300	300	0	0	440	46	0	1	0	0	0	1	blank2r.bmp	0	1	+	0	6	C2r.bmp	492	1	blank2r.bmp	786	1	DHJF	786	1	blank2r.bmp	866	4	ausrottung	866	1	!	1239	1	!	1346	0	0	0	0	0	0	0	0	0	0	0	0	0	0	0	0	0	0	0	0	0	0	0	0	0	0	0
012219	09:59:26	10:06:38	430195	5.0.10.0	4_exp_AWA_CON_AMP_EVA	81	Rpleas_acq	Same	Rpleas	Amasked	CS_A	1pleas	distractor1	CONbeforeEVA	acq_US_pleas_masked	acq45_masked	4	14	400	1	300	300	0	0	390	50	0	1	0	0	0	1	blank2r.bmp	0	1	+	0	1	B1r.bmp	492	1	blank2r.bmp	786	1	CPLW	786	1	blank2r.bmp	866	5	engagiert	866	1	!	1239	1	!	1292	0	0	0	0	0	0	0	0	0	0	0	0	0	0	0	0	0	0	0	0	0	0	0	0	0	0	0
012219	09:59:26	10:06:40	432341	5.0.10.0	4_exp_AWA_CON_AMP_EVA	81	Rpleas_acq	Same	Rpleas	Amasked	CS_A	1pleas	distractor1	CONbeforeEVA	acq_US_pleas_masked	acq45_masked	4	15	400	1	300	300	0	0	357	46	0	0	0	0	0	1	blank2r.bmp	0	1	+	0	4	B4r.bmp	492	1	blank2r.bmp	786	1	CPLW	786	1	blank2r.bmp	866	1	genießen	866	1	!	1239	1	!	1252	0	0	0	0	0	0	0	0	0	0	0	0	0	0	0	0	0	0	0	0	0	0	0	0	0	0	0
012219	09:59:26	10:06:42	434527	5.0.10.0	4_exp_AWA_CON_AMP_EVA	81	Rpleas_acq	Same	Rpleas	Amasked	CS_A	1pleas	distractor1	CONbeforeEVA	acq_US_unple_masked	acq45_masked	4	16	400	1	300	300	0	0	379	50	0	0	0	0	0	1	blank2r.bmp	0	1	+	0	8	C4r.bmp	492	1	blank2r.bmp	786	1	DHJF	786	1	blank2r.bmp	866	2	gierig	866	1	!	1239	1	!	1279	0	0	0	0	0	0	0	0	0	0	0	0	0	0	0	0	0	0	0	0	0	0	0	0	0	0	0
012219	09:59:26	10:06:44	436673	5.0.10.0	4_exp_AWA_CON_AMP_EVA	81	Rpleas_acq	Same	Rpleas	Amasked	CS_A	1pleas	distractor1	CONbeforeEVA	acq_US_pleas_masked	acq45_masked	4	17	400	1	300	300	0	0	348	50	0	1	0	0	0	1	blank2r.bmp	0	1	+	0	2	B2r.bmp	492	1	blank2r.bmp	786	1	CPLW	786	1	blank2r.bmp	866	3	träumen	866	1	!	1239	1	!	1252	0	0	0	0	0	0	0	0	0	0	0	0	0	0	0	0	0	0	0	0	0	0	0	0	0	0	0
012219	09:59:26	10:06:46	438765	5.0.10.0	4_exp_AWA_CON_AMP_EVA	81	Rpleas_acq	Same	Rpleas	Amasked	CS_A	1pleas	distractor1	CONbeforeEVA	acq_US_unple_masked	acq45_masked	4	18	400	0	300	300	0	0	328	50	0	0	0	0	0	1	blank2r.bmp	0	1	+	0	3	B3r.bmp	492	1	blank2r.bmp	786	1	DHJF	786	1	blank2r.bmp	866	5	engstirnig	866	1	!	-1	1	!	-1	0	0	0	0	0	0	0	0	0	0	0	0	0	0	0	0	0	0	0	0	0	0	0	0	0	0	0
012219	09:59:26	10:06:48	440937	5.0.10.0	4_exp_AWA_CON_AMP_EVA	81	Rpleas_acq	Same	Rpleas	Amasked	CS_A	1pleas	distractor1	CONbeforeEVA	acq_US_unple_masked	acq45_masked	4	19	400	1	300	300	0	0	359	46	0	1	0	0	0	1	blank2r.bmp	0	1	+	0	5	C1r.bmp	492	1	blank2r.bmp	786	1	DHJF	786	1	blank2r.bmp	866	1	gemein	866	1	!	1239	1	!	1266	0	0	0	0	0	0	0	0	0	0	0	0	0	0	0	0	0	0	0	0	0	0	0	0	0	0	0
012219	09:59:26	10:06:51	443203	5.0.10.0	4_exp_AWA_CON_AMP_EVA	81	Rpleas_acq	Same	Rpleas	Amasked	CS_A	1pleas	distractor1	CONbeforeEVA	acq_US_pleas_masked	acq45_masked	4	20	400	1	300	300	0	0	455	50	0	1	0	0	0	1	blank2r.bmp	0	1	+	0	7	C3r.bmp	492	1	blank2r.bmp	786	1	CPLW	786	1	blank2r.bmp	866	2	gütig	866	1	!	1239	1	!	1359	0	0	0	0	0	0	0	0	0	0	0	0	0	0	0	0	0	0	0	0	0	0	0	0	0	0	0
012219	09:59:26	10:06:53	445469	5.0.10.0	4_exp_AWA_CON_AMP_EVA	81	Rpleas_acq	Same	Rpleas	Amasked	CS_A	1pleas	distractor1	CONbeforeEVA	acq_US_pleas_masked	acq45_masked	4	21	400	1	300	300	0	0	465	50	0	1	0	0	0	1	blank2r.bmp	0	1	+	0	5	C1r.bmp	492	1	blank2r.bmp	786	1	CPLW	786	1	blank2r.bmp	866	6	kreativ	866	1	!	1239	1	!	1372	0	0	0	0	0	0	0	0	0	0	0	0	0	0	0	0	0	0	0	0	0	0	0	0	0	0	0
012219	09:59:26	10:06:55	447721	5.0.10.0	4_exp_AWA_CON_AMP_EVA	81	Rpleas_acq	Same	Rpleas	Amasked	CS_A	1pleas	distractor1	CONbeforeEVA	acq_US_pleas_masked	acq45_masked	4	22	400	1	300	300	0	0	458	50	0	1	0	0	0	1	blank2r.bmp	0	1	+	0	7	C3r.bmp	492	1	blank2r.bmp	786	1	CPLW	786	1	blank2r.bmp	866	4	anregung	866	1	!	1239	1	!	1359	0	0	0	0	0	0	0	0	0	0	0	0	0	0	0	0	0	0	0	0	0	0	0	0	0	0	0
012219	09:59:26	10:06:57	449920	5.0.10.0	4_exp_AWA_CON_AMP_EVA	81	Rpleas_acq	Same	Rpleas	Amasked	CS_A	1pleas	distractor1	CONbeforeEVA	acq_US_unple_masked	acq45_masked	4	23	400	1	300	300	0	0	390	46	0	1	0	0	0	1	blank2r.bmp	0	1	+	0	6	C2r.bmp	492	1	blank2r.bmp	786	1	DHJF	786	1	blank2r.bmp	866	3	töten	866	1	!	1239	1	!	1292	0	0	0	0	0	0	0	0	0	0	0	0	0	0	0	0	0	0	0	0	0	0	0	0	0	0	0
012219	09:59:26	10:06:59	452066	5.0.10.0	4_exp_AWA_CON_AMP_EVA	81	Rpleas_acq	Same	Rpleas	Amasked	CS_A	1pleas	distractor1	CONbeforeEVA	acq_US_pleas_masked	acq45_masked	4	24	400	1	300	300	0	0	346	50	0	1	0	0	0	1	blank2r.bmp	0	1	+	0	2	B2r.bmp	492	1	blank2r.bmp	786	1	CPLW	786	1	blank2r.bmp	866	4	anregung	866	1	!	1239	1	!	1252	0	0	0	0	0	0	0	0	0	0	0	0	0	0	0	0	0	0	0	0	0	0	0	0	0	0	0
012219	09:59:26	10:07:02	454145	5.0.10.0	4_exp_AWA_CON_AMP_EVA	81	Rpleas_acq	Same	Rpleas	Amasked	CS_A	1pleas	distractor1	CONbeforeEVA	acq_US_unple_masked	acq45_masked	4	25	400	0	300	300	0	0	310	46	0	1	0	0	0	1	blank2r.bmp	0	1	+	0	8	C4r.bmp	492	1	blank2r.bmp	786	1	DHJF	786	1	blank2r.bmp	866	6	krank	866	1	!	-1	1	!	-1	0	0	0	0	0	0	0	0	0	0	0	0	0	0	0	0	0	0	0	0	0	0	0	0	0	0	0
012219	09:59:26	10:07:04	456544	5.0.10.0	4_exp_AWA_CON_AMP_EVA	81	Rpleas_acq	Same	Rpleas	Amasked	CS_A	1pleas	distractor1	CONbeforeEVA	acq_US_pleas_masked	acq45_masked	4	26	400	0	300	300	0	0	621	50	0	1	0	0	0	1	blank2r.bmp	0	1	+	0	3	B3r.bmp	492	1	blank2r.bmp	786	1	CPLW	786	1	blank2r.bmp	866	6	kreativ	866	1	!	1239	1	!	-1	0	0	0	0	0	0	0	0	0	0	0	0	0	0	0	0	0	0	0	0	0	0	0	0	0	0	0
012219	09:59:26	10:07:06	458783	5.0.10.0	4_exp_AWA_CON_AMP_EVA	81	Rpleas_acq	Same	Rpleas	Amasked	CS_A	1pleas	distractor1	CONbeforeEVA	acq_US_pleas_masked	acq45_masked	4	27	400	1	300	300	0	0	434	50	0	1	0	0	0	1	blank2r.bmp	0	1	+	0	4	B4r.bmp	492	1	blank2r.bmp	786	1	CPLW	786	1	blank2r.bmp	866	2	gütig	866	1	!	1239	1	!	1332	0	0	0	0	0	0	0	0	0	0	0	0	0	0	0	0	0	0	0	0	0	0	0	0	0	0	0
012219	09:59:26	10:07:08	460996	5.0.10.0	4_exp_AWA_CON_AMP_EVA	81	Rpleas_acq	Same	Rpleas	Amasked	CS_A	1pleas	distractor1	CONbeforeEVA	acq_US_unple_masked	acq45_masked	4	28	400	1	300	300	0	0	405	46	0	1	0	0	0	1	blank2r.bmp	0	1	+	0	1	B1r.bmp	492	1	blank2r.bmp	786	1	DHJF	786	1	blank2r.bmp	866	5	engstirnig	866	1	!	1239	1	!	1306	0	0	0	0	0	0	0	0	0	0	0	0	0	0	0	0	0	0	0	0	0	0	0	0	0	0	0
012219	09:59:26	10:07:11	463142	5.0.10.0	4_exp_AWA_CON_AMP_EVA	81	Rpleas_acq	Same	Rpleas	Amasked	CS_A	1pleas	distractor1	CONbeforeEVA	acq_US_unple_masked	acq45_masked	4	29	400	1	300	300	0	0	346	50	0	0	0	0	0	1	blank2r.bmp	0	1	+	0	5	C1r.bmp	492	1	blank2r.bmp	786	1	DHJF	786	1	blank2r.bmp	866	2	gierig	866	1	!	1239	1	!	1252	0	0	0	0	0	0	0	0	0	0	0	0	0	0	0	0	0	0	0	0	0	0	0	0	0	0	0
012219	09:59:26	10:07:13	465221	5.0.10.0	4_exp_AWA_CON_AMP_EVA	81	Rpleas_acq	Same	Rpleas	Amasked	CS_A	1pleas	distractor1	CONbeforeEVA	acq_US_unple_masked	acq45_masked	4	30	400	0	300	300	0	0	315	50	0	0	0	0	0	1	blank2r.bmp	0	1	+	0	7	C3r.bmp	492	1	blank2r.bmp	786	1	DHJF	786	1	blank2r.bmp	866	6	krank	866	1	!	-1	1	!	-1	0	0	0	0	0	0	0	0	0	0	0	0	0	0	0	0	0	0	0	0	0	0	0	0	0	0	0
012219	09:59:26	10:07:15	467313	5.0.10.0	4_exp_AWA_CON_AMP_EVA	81	Rpleas_acq	Same	Rpleas	Amasked	CS_A	1pleas	distractor1	CONbeforeEVA	acq_US_unple_masked	acq45_masked	4	31	400	0	300	300	0	0	316	50	0	0	0	0	0	1	blank2r.bmp	0	1	+	0	4	B4r.bmp	492	1	blank2r.bmp	786	1	DHJF	786	1	blank2r.bmp	866	4	ausrottung	866	1	!	-1	1	!	-1	0	0	0	0	0	0	0	0	0	0	0	0	0	0	0	0	0	0	0	0	0	0	0	0	0	0	0
012219	09:59:26	10:07:17	469526	5.0.10.0	4_exp_AWA_CON_AMP_EVA	81	Rpleas_acq	Same	Rpleas	Amasked	CS_A	1pleas	distractor1	CONbeforeEVA	acq_US_pleas_masked	acq45_masked	4	32	400	1	300	300	0	0	402	50	0	1	0	0	0	1	blank2r.bmp	0	1	+	0	3	B3r.bmp	492	1	blank2r.bmp	786	1	CPLW	786	1	blank2r.bmp	866	5	engagiert	866	1	!	1239	1	!	1306	0	0	0	0	0	0	0	0	0	0	0	0	0	0	0	0	0	0	0	0	0	0	0	0	0	0	0
012219	09:59:26	10:07:19	471711	5.0.10.0	4_exp_AWA_CON_AMP_EVA	81	Rpleas_acq	Same	Rpleas	Amasked	CS_A	1pleas	distractor1	CONbeforeEVA	acq_US_pleas_masked	acq45_masked	4	33	400	1	300	300	0	0	394	46	0	0	0	0	0	1	blank2r.bmp	0	1	+	0	2	B2r.bmp	492	1	blank2r.bmp	786	1	CPLW	786	1	blank2r.bmp	866	1	genießen	866	1	!	1239	1	!	1292	0	0	0	0	0	0	0	0	0	0	0	0	0	0	0	0	0	0	0	0	0	0	0	0	0	0	0
012219	09:59:26	10:07:25	477442	5.0.10.0	4_exp_AWA_CON_AMP_EVA	81	Rpleas_acq	Same	Rpleas	Amasked	CS_A	1pleas	distractor1	CONbeforeEVA	acq_US_unple_masked	acq45_masked	4	34	400	0	300	300	0	0	3959	46	0	1	0	0	0	1	blank2r.bmp	0	1	+	0	6	C2r.bmp	492	1	blank2r.bmp	786	1	DHJF	786	1	blank2r.bmp	866	3	töten	866	1	!	1239	1	!	-1	0	0	0	0	0	0	0	0	0	0	0	0	0	0	0	0	0	0	0	0	0	0	0	0	0	0	0
012219	09:59:26	10:07:27	479695	5.0.10.0	4_exp_AWA_CON_AMP_EVA	81	Rpleas_acq	Same	Rpleas	Amasked	CS_A	1pleas	distractor1	CONbeforeEVA	acq_US_pleas_masked	acq45_masked	4	35	400	1	300	300	0	0	435	50	0	1	0	0	0	1	blank2r.bmp	0	1	+	0	8	C4r.bmp	492	1	blank2r.bmp	786	1	CPLW	786	1	blank2r.bmp	866	3	träumen	866	1	!	1239	1	!	1332	0	0	0	0	0	0	0	0	0	0	0	0	0	0	0	0	0	0	0	0	0	0	0	0	0	0	0
012219	09:59:26	10:07:29	481921	5.0.10.0	4_exp_AWA_CON_AMP_EVA	81	Rpleas_acq	Same	Rpleas	Amasked	CS_A	1pleas	distractor1	CONbeforeEVA	acq_US_unple_masked	acq45_masked	4	36	400	1	300	300	0	0	432	46	0	1	0	0	0	1	blank2r.bmp	0	1	+	0	1	B1r.bmp	492	1	blank2r.bmp	786	1	DHJF	786	1	blank2r.bmp	866	1	gemein	866	1	!	1239	1	!	1332	0	0	0	0	0	0	0	0	0	0	0	0	0	0	0	0	0	0	0	0	0	0	0	0	0	0	0
012219	09:59:26	10:07:53	505578	5.0.10.0	4_exp_AWA_CON_AMP_EVA	81	Rpleas_acq	Same	Rpleas	Amasked	CS_A	1pleas	distractor1	CONbeforeEVA	acq_US_pleas_masked	acq45_masked	5	1	400	1	300	300	0	0	346	50	0	1	0	0	0	1	blank2r.bmp	0	1	+	0	8	C4r.bmp	492	1	blank2r.bmp	786	1	CPLW	786	1	blank2r.bmp	866	1	genießen	866	1	!	1239	1	!	1252	0	0	0	0	0	0	0	0	0	0	0	0	0	0	0	0	0	0	0	0	0	0	0	0	0	0	0
012219	09:59:26	10:07:55	507763	5.0.10.0	4_exp_AWA_CON_AMP_EVA	81	Rpleas_acq	Same	Rpleas	Amasked	CS_A	1pleas	distractor1	CONbeforeEVA	acq_US_pleas_masked	acq45_masked	5	2	400	1	300	300	0	0	388	50	0	1	0	0	0	1	blank2r.bmp	0	1	+	0	6	C2r.bmp	492	1	blank2r.bmp	786	1	CPLW	786	1	blank2r.bmp	866	5	engagiert	866	1	!	1239	1	!	1292	0	0	0	0	0	0	0	0	0	0	0	0	0	0	0	0	0	0	0	0	0	0	0	0	0	0	0
012219	09:59:26	10:07:57	509829	5.0.10.0	4_exp_AWA_CON_AMP_EVA	81	Rpleas_acq	Same	Rpleas	Amasked	CS_A	1pleas	distractor1	CONbeforeEVA	acq_US_unple_masked	acq45_masked	5	3	400	0	300	300	0	0	304	46	0	1	0	0	0	1	blank2r.bmp	0	1	+	0	3	B3r.bmp	492	1	blank2r.bmp	786	1	DHJF	786	1	blank2r.bmp	866	3	töten	866	1	!	-1	1	!	-1	0	0	0	0	0	0	0	0	0	0	0	0	0	0	0	0	0	0	0	0	0	0	0	0	0	0	0
012219	09:59:26	10:07:59	512028	5.0.10.0	4_exp_AWA_CON_AMP_EVA	81	Rpleas_acq	Same	Rpleas	Amasked	CS_A	1pleas	distractor1	CONbeforeEVA	acq_US_pleas_masked	acq45_masked	5	4	400	1	300	300	0	0	383	50	0	1	0	0	0	1	blank2r.bmp	0	1	+	0	4	B4r.bmp	492	1	blank2r.bmp	786	1	CPLW	786	1	blank2r.bmp	866	4	anregung	866	1	!	1239	1	!	1279	0	0	0	0	0	0	0	0	0	0	0	0	0	0	0	0	0	0	0	0	0	0	0	0	0	0	0
012219	09:59:26	10:08:02	514294	5.0.10.0	4_exp_AWA_CON_AMP_EVA	81	Rpleas_acq	Same	Rpleas	Amasked	CS_A	1pleas	distractor1	CONbeforeEVA	acq_US_unple_masked	acq45_masked	5	5	400	0	300	300	0	0	497	46	0	1	0	0	0	1	blank2r.bmp	0	1	+	0	2	B2r.bmp	492	1	blank2r.bmp	786	1	DHJF	786	1	blank2r.bmp	866	6	krank	866	1	!	1239	1	!	-1	0	0	0	0	0	0	0	0	0	0	0	0	0	0	0	0	0	0	0	0	0	0	0	0	0	0	0
012219	09:59:26	10:08:04	516466	5.0.10.0	4_exp_AWA_CON_AMP_EVA	81	Rpleas_acq	Same	Rpleas	Amasked	CS_A	1pleas	distractor1	CONbeforeEVA	acq_US_unple_masked	acq45_masked	5	6	400	1	300	300	0	0	366	50	0	0	0	0	0	1	blank2r.bmp	0	1	+	0	5	C1r.bmp	492	1	blank2r.bmp	786	1	DHJF	786	1	blank2r.bmp	866	4	ausrottung	866	1	!	1239	1	!	1266	0	0	0	0	0	0	0	0	0	0	0	0	0	0	0	0	0	0	0	0	0	0	0	0	0	0	0
012219	09:59:26	10:08:06	518612	5.0.10.0	4_exp_AWA_CON_AMP_EVA	81	Rpleas_acq	Same	Rpleas	Amasked	CS_A	1pleas	distractor1	CONbeforeEVA	acq_US_unple_masked	acq45_masked	5	7	400	1	300	300	0	0	346	50	0	0	0	0	0	1	blank2r.bmp	0	1	+	0	1	B1r.bmp	492	1	blank2r.bmp	786	1	DHJF	786	1	blank2r.bmp	866	1	gemein	866	1	!	1239	1	!	1252	0	0	0	0	0	0	0	0	0	0	0	0	0	0	0	0	0	0	0	0	0	0	0	0	0	0	0
012219	09:59:26	10:08:08	520865	5.0.10.0	4_exp_AWA_CON_AMP_EVA	81	Rpleas_acq	Same	Rpleas	Amasked	CS_A	1pleas	distractor1	CONbeforeEVA	acq_US_unple_masked	acq45_masked	5	8	400	0	300	300	0	0	479	46	0	1	0	0	0	1	blank2r.bmp	0	1	+	0	7	C3r.bmp	492	1	blank2r.bmp	786	1	DHJF	786	1	blank2r.bmp	866	5	engstirnig	866	1	!	1239	1	!	-1	0	0	0	0	0	0	0	0	0	0	0	0	0	0	0	0	0	0	0	0	0	0	0	0	0	0	0
012219	09:59:26	10:08:10	523037	5.0.10.0	4_exp_AWA_CON_AMP_EVA	81	Rpleas_acq	Same	Rpleas	Amasked	CS_A	1pleas	distractor1	CONbeforeEVA	acq_US_unple_masked	acq45_masked	5	9	400	1	300	300	0	0	369	50	0	0	0	0	0	1	blank2r.bmp	0	1	+	0	2	B2r.bmp	492	1	blank2r.bmp	786	1	DHJF	786	1	blank2r.bmp	866	2	gierig	866	1	!	1239	1	!	1266	0	0	0	0	0	0	0	0	0	0	0	0	0	0	0	0	0	0	0	0	0	0	0	0	0	0	0
012219	09:59:26	10:08:14	526169	5.0.10.0	4_exp_AWA_CON_AMP_EVA	81	Rpleas_acq	Same	Rpleas	Amasked	CS_A	1pleas	distractor1	CONbeforeEVA	acq_US_unple_masked	acq45_masked	5	10	400	0	300	300	0	0	1365	46	0	1	0	0	0	1	blank2r.bmp	0	1	+	0	1	B1r.bmp	492	1	blank2r.bmp	786	1	DHJF	786	1	blank2r.bmp	866	3	töten	866	1	!	1239	1	!	-1	0	0	0	0	0	0	0	0	0	0	0	0	0	0	0	0	0	0	0	0	0	0	0	0	0	0	0
012219	09:59:26	10:08:16	528435	5.0.10.0	4_exp_AWA_CON_AMP_EVA	81	Rpleas_acq	Same	Rpleas	Amasked	CS_A	1pleas	distractor1	CONbeforeEVA	acq_US_pleas_masked	acq45_masked	5	11	400	0	300	300	0	0	482	50	0	1	0	0	0	1	blank2r.bmp	0	1	+	0	5	C1r.bmp	492	1	blank2r.bmp	786	1	CPLW	786	1	blank2r.bmp	866	6	kreativ	866	1	!	1239	1	!	-1	0	0	0	0	0	0	0	0	0	0	0	0	0	0	0	0	0	0	0	0	0	0	0	0	0	0	0
012219	09:59:26	10:08:18	530701	5.0.10.0	4_exp_AWA_CON_AMP_EVA	81	Rpleas_acq	Same	Rpleas	Amasked	CS_A	1pleas	distractor1	CONbeforeEVA	acq_US_pleas_masked	acq45_masked	5	12	400	0	300	300	0	0	479	50	0	1	0	0	0	1	blank2r.bmp	0	1	+	0	6	C2r.bmp	492	1	blank2r.bmp	786	1	CPLW	786	1	blank2r.bmp	866	3	träumen	866	1	!	1239	1	!	-1	0	0	0	0	0	0	0	0	0	0	0	0	0	0	0	0	0	0	0	0	0	0	0	0	0	0	0
012219	09:59:26	10:08:20	532873	5.0.10.0	4_exp_AWA_CON_AMP_EVA	81	Rpleas_acq	Same	Rpleas	Amasked	CS_A	1pleas	distractor1	CONbeforeEVA	acq_US_pleas_masked	acq45_masked	5	13	400	1	300	300	0	0	346	46	0	0	0	0	0	1	blank2r.bmp	0	1	+	0	4	B4r.bmp	492	1	blank2r.bmp	786	1	CPLW	786	1	blank2r.bmp	866	2	gütig	866	1	!	1239	1	!	1252	0	0	0	0	0	0	0	0	0	0	0	0	0	0	0	0	0	0	0	0	0	0	0	0	0	0	0
012219	09:59:26	10:08:23	535179	5.0.10.0	4_exp_AWA_CON_AMP_EVA	81	Rpleas_acq	Same	Rpleas	Amasked	CS_A	1pleas	distractor1	CONbeforeEVA	acq_US_unple_masked	acq45_masked	5	14	400	0	300	300	0	0	539	46	0	1	0	0	0	1	blank2r.bmp	0	1	+	0	3	B3r.bmp	492	1	blank2r.bmp	786	1	DHJF	786	1	blank2r.bmp	866	2	gierig	866	1	!	1239	1	!	-1	0	0	0	0	0	0	0	0	0	0	0	0	0	0	0	0	0	0	0	0	0	0	0	0	0	0	0
012219	09:59:26	10:08:25	537351	5.0.10.0	4_exp_AWA_CON_AMP_EVA	81	Rpleas_acq	Same	Rpleas	Amasked	CS_A	1pleas	distractor1	CONbeforeEVA	acq_US_pleas_masked	acq45_masked	5	15	400	1	300	300	0	0	346	50	0	1	0	0	0	1	blank2r.bmp	0	1	+	0	8	C4r.bmp	492	1	blank2r.bmp	786	1	CPLW	786	1	blank2r.bmp	866	4	anregung	866	1	!	1239	1	!	1252	0	0	0	0	0	0	0	0	0	0	0	0	0	0	0	0	0	0	0	0	0	0	0	0	0	0	0
012219	09:59:26	10:08:27	539577	5.0.10.0	4_exp_AWA_CON_AMP_EVA	81	Rpleas_acq	Same	Rpleas	Amasked	CS_A	1pleas	distractor1	CONbeforeEVA	acq_US_pleas_masked	acq45_masked	5	16	400	1	300	300	0	0	437	46	0	0	0	0	0	1	blank2r.bmp	0	1	+	0	7	C3r.bmp	492	1	blank2r.bmp	786	1	CPLW	786	1	blank2r.bmp	866	2	gütig	866	1	!	1239	1	!	1332	0	0	0	0	0	0	0	0	0	0	0	0	0	0	0	0	0	0	0	0	0	0	0	0	0	0	0
012219	09:59:26	10:08:29	541949	5.0.10.0	4_exp_AWA_CON_AMP_EVA	81	Rpleas_acq	Same	Rpleas	Amasked	CS_A	1pleas	distractor1	CONbeforeEVA	acq_US_pleas_masked	acq45_masked	5	17	400	0	300	300	0	0	606	50	0	1	0	0	0	1	blank2r.bmp	0	1	+	0	7	C3r.bmp	492	1	blank2r.bmp	786	1	CPLW	786	1	blank2r.bmp	866	1	genießen	866	1	!	1239	1	!	-1	0	0	0	0	0	0	0	0	0	0	0	0	0	0	0	0	0	0	0	0	0	0	0	0	0	0	0
012219	09:59:26	10:08:32	544215	5.0.10.0	4_exp_AWA_CON_AMP_EVA	81	Rpleas_acq	Same	Rpleas	Amasked	CS_A	1pleas	distractor1	CONbeforeEVA	acq_US_unple_masked	acq45_masked	5	18	400	1	300	300	0	0	442	46	0	1	0	0	0	1	blank2r.bmp	0	1	+	0	3	B3r.bmp	492	1	blank2r.bmp	786	1	DHJF	786	1	blank2r.bmp	866	4	ausrottung	866	1	!	1239	1	!	1346	0	0	0	0	0	0	0	0	0	0	0	0	0	0	0	0	0	0	0	0	0	0	0	0	0	0	0
012219	09:59:26	10:08:34	546441	5.0.10.0	4_exp_AWA_CON_AMP_EVA	81	Rpleas_acq	Same	Rpleas	Amasked	CS_A	1pleas	distractor1	CONbeforeEVA	acq_US_unple_masked	acq45_masked	5	19	400	1	300	300	0	0	435	50	0	0	0	0	0	1	blank2r.bmp	0	1	+	0	4	B4r.bmp	492	1	blank2r.bmp	786	1	DHJF	786	1	blank2r.bmp	866	6	krank	866	1	!	1239	1	!	1332	0	0	0	0	0	0	0	0	0	0	0	0	0	0	0	0	0	0	0	0	0	0	0	0	0	0	0
012219	09:59:26	10:08:37	549319	5.0.10.0	4_exp_AWA_CON_AMP_EVA	81	Rpleas_acq	Same	Rpleas	Amasked	CS_A	1pleas	distractor1	CONbeforeEVA	acq_US_unple_masked	acq45_masked	5	20	400	0	300	300	0	0	1113	46	0	1	0	0	0	1	blank2r.bmp	0	1	+	0	2	B2r.bmp	492	1	blank2r.bmp	786	1	DHJF	786	1	blank2r.bmp	866	5	engstirnig	866	1	!	1239	1	!	-1	0	0	0	0	0	0	0	0	0	0	0	0	0	0	0	0	0	0	0	0	0	0	0	0	0	0	0
012219	09:59:26	10:08:39	551612	5.0.10.0	4_exp_AWA_CON_AMP_EVA	81	Rpleas_acq	Same	Rpleas	Amasked	CS_A	1pleas	distractor1	CONbeforeEVA	acq_US_pleas_masked	acq45_masked	5	21	400	0	300	300	0	0	510	50	0	1	0	0	0	1	blank2r.bmp	0	1	+	0	6	C2r.bmp	492	1	blank2r.bmp	786	1	CPLW	786	1	blank2r.bmp	866	3	träumen	866	1	!	1239	1	!	-1	0	0	0	0	0	0	0	0	0	0	0	0	0	0	0	0	0	0	0	0	0	0	0	0	0	0	0
012219	09:59:26	10:08:41	553878	5.0.10.0	4_exp_AWA_CON_AMP_EVA	81	Rpleas_acq	Same	Rpleas	Amasked	CS_A	1pleas	distractor1	CONbeforeEVA	acq_US_pleas_masked	acq45_masked	5	22	400	1	300	300	0	0	453	50	0	1	0	0	0	1	blank2r.bmp	0	1	+	0	8	C4r.bmp	492	1	blank2r.bmp	786	1	CPLW	786	1	blank2r.bmp	866	6	kreativ	866	1	!	1239	1	!	1359	0	0	0	0	0	0	0	0	0	0	0	0	0	0	0	0	0	0	0	0	0	0	0	0	0	0	0
012219	09:59:26	10:08:43	556023	5.0.10.0	4_exp_AWA_CON_AMP_EVA	81	Rpleas_acq	Same	Rpleas	Amasked	CS_A	1pleas	distractor1	CONbeforeEVA	acq_US_unple_masked	acq45_masked	5	23	400	1	300	300	0	0	346	46	0	1	0	0	0	1	blank2r.bmp	0	1	+	0	1	B1r.bmp	492	1	blank2r.bmp	786	1	DHJF	786	1	blank2r.bmp	866	1	gemein	866	1	!	1239	1	!	1252	0	0	0	0	0	0	0	0	0	0	0	0	0	0	0	0	0	0	0	0	0	0	0	0	0	0	0
012219	09:59:26	10:08:46	558316	5.0.10.0	4_exp_AWA_CON_AMP_EVA	81	Rpleas_acq	Same	Rpleas	Amasked	CS_A	1pleas	distractor1	CONbeforeEVA	acq_US_unple_masked	acq45_masked	5	24	400	0	300	300	0	0	524	46	0	1	0	0	0	1	blank2r.bmp	0	1	+	0	5	C1r.bmp	492	1	blank2r.bmp	786	1	DHJF	786	1	blank2r.bmp	866	5	engstirnig	866	1	!	1239	1	!	-1	0	0	0	0	0	0	0	0	0	0	0	0	0	0	0	0	0	0	0	0	0	0	0	0	0	0	0
012219	09:59:26	10:08:48	560608	5.0.10.0	4_exp_AWA_CON_AMP_EVA	81	Rpleas_acq	Same	Rpleas	Amasked	CS_A	1pleas	distractor1	CONbeforeEVA	acq_US_unple_masked	acq45_masked	5	25	400	0	300	300	0	0	510	46	0	1	0	0	0	1	blank2r.bmp	0	1	+	0	1	B1r.bmp	492	1	blank2r.bmp	786	1	DHJF	786	1	blank2r.bmp	866	1	gemein	866	1	!	1239	1	!	-1	0	0	0	0	0	0	0	0	0	0	0	0	0	0	0	0	0	0	0	0	0	0	0	0	0	0	0
012219	09:59:26	10:08:50	562701	5.0.10.0	4_exp_AWA_CON_AMP_EVA	81	Rpleas_acq	Same	Rpleas	Amasked	CS_A	1pleas	distractor1	CONbeforeEVA	acq_US_unple_masked	acq45_masked	5	26	400	0	300	300	0	0	309	50	0	0	0	0	0	1	blank2r.bmp	0	1	+	0	7	C3r.bmp	492	1	blank2r.bmp	786	1	DHJF	786	1	blank2r.bmp	866	6	krank	866	1	!	-1	1	!	-1	0	0	0	0	0	0	0	0	0	0	0	0	0	0	0	0	0	0	0	0	0	0	0	0	0	0	0
012219	09:59:26	10:08:53	565353	5.0.10.0	4_exp_AWA_CON_AMP_EVA	81	Rpleas_acq	Same	Rpleas	Amasked	CS_A	1pleas	distractor1	CONbeforeEVA	acq_US_pleas_masked	acq45_masked	5	27	400	0	300	300	0	0	867	50	0	1	0	0	0	1	blank2r.bmp	0	1	+	0	3	B3r.bmp	492	1	blank2r.bmp	786	1	CPLW	786	1	blank2r.bmp	866	5	engagiert	866	1	!	1239	1	!	-1	0	0	0	0	0	0	0	0	0	0	0	0	0	0	0	0	0	0	0	0	0	0	0	0	0	0	0
012219	09:59:26	10:08:55	567592	5.0.10.0	4_exp_AWA_CON_AMP_EVA	81	Rpleas_acq	Same	Rpleas	Amasked	CS_A	1pleas	distractor1	CONbeforeEVA	acq_US_pleas_masked	acq45_masked	5	28	400	1	300	300	0	0	428	50	0	1	0	0	0	1	blank2r.bmp	0	1	+	0	5	C1r.bmp	492	1	blank2r.bmp	786	1	CPLW	786	1	blank2r.bmp	866	6	kreativ	866	1	!	1239	1	!	1332	0	0	0	0	0	0	0	0	0	0	0	0	0	0	0	0	0	0	0	0	0	0	0	0	0	0	0
012219	09:59:26	10:08:57	569764	5.0.10.0	4_exp_AWA_CON_AMP_EVA	81	Rpleas_acq	Same	Rpleas	Amasked	CS_A	1pleas	distractor1	CONbeforeEVA	acq_US_pleas_masked	acq45_masked	5	29	400	1	300	300	0	0	371	50	0	1	0	0	0	1	blank2r.bmp	0	1	+	0	6	C2r.bmp	492	1	blank2r.bmp	786	1	CPLW	786	1	blank2r.bmp	866	3	träumen	866	1	!	1239	1	!	1266	0	0	0	0	0	0	0	0	0	0	0	0	0	0	0	0	0	0	0	0	0	0	0	0	0	0	0
012219	09:59:26	10:08:59	571990	5.0.10.0	4_exp_AWA_CON_AMP_EVA	81	Rpleas_acq	Same	Rpleas	Amasked	CS_A	1pleas	distractor1	CONbeforeEVA	acq_US_pleas_masked	acq45_masked	5	30	400	1	300	300	0	0	430	50	0	1	0	0	0	1	blank2r.bmp	0	1	+	0	8	C4r.bmp	492	1	blank2r.bmp	786	1	CPLW	786	1	blank2r.bmp	866	1	genießen	866	1	!	1239	1	!	1332	0	0	0	0	0	0	0	0	0	0	0	0	0	0	0	0	0	0	0	0	0	0	0	0	0	0	0
012219	09:59:26	10:09:02	574269	5.0.10.0	4_exp_AWA_CON_AMP_EVA	81	Rpleas_acq	Same	Rpleas	Amasked	CS_A	1pleas	distractor1	CONbeforeEVA	acq_US_unple_masked	acq45_masked	5	31	400	0	300	300	0	0	493	46	0	1	0	0	0	1	blank2r.bmp	0	1	+	0	4	B4r.bmp	492	1	blank2r.bmp	786	1	DHJF	786	1	blank2r.bmp	866	3	töten	866	1	!	1239	1	!	-1	0	0	0	0	0	0	0	0	0	0	0	0	0	0	0	0	0	0	0	0	0	0	0	0	0	0	0
012219	09:59:26	10:09:04	576535	5.0.10.0	4_exp_AWA_CON_AMP_EVA	81	Rpleas_acq	Same	Rpleas	Amasked	CS_A	1pleas	distractor1	CONbeforeEVA	acq_US_unple_masked	acq45_masked	5	32	400	0	300	300	0	0	484	46	0	1	0	0	0	1	blank2r.bmp	0	1	+	0	2	B2r.bmp	492	1	blank2r.bmp	786	1	DHJF	786	1	blank2r.bmp	866	2	gierig	866	1	!	1239	1	!	-1	0	0	0	0	0	0	0	0	0	0	0	0	0	0	0	0	0	0	0	0	0	0	0	0	0	0	0
012219	09:59:26	10:09:06	578787	5.0.10.0	4_exp_AWA_CON_AMP_EVA	81	Rpleas_acq	Same	Rpleas	Amasked	CS_A	1pleas	distractor1	CONbeforeEVA	acq_US_pleas_masked	acq45_masked	5	33	400	1	300	300	0	0	443	50	0	1	0	0	0	1	blank2r.bmp	0	1	+	0	5	C1r.bmp	492	1	blank2r.bmp	786	1	CPLW	786	1	blank2r.bmp	866	5	engagiert	866	1	!	1239	1	!	1346	0	0	0	0	0	0	0	0	0	0	0	0	0	0	0	0	0	0	0	0	0	0	0	0	0	0	0
012219	09:59:26	10:09:08	580946	5.0.10.0	4_exp_AWA_CON_AMP_EVA	81	Rpleas_acq	Same	Rpleas	Amasked	CS_A	1pleas	distractor1	CONbeforeEVA	acq_US_pleas_masked	acq45_masked	5	34	400	1	300	300	0	0	365	50	0	1	0	0	0	1	blank2r.bmp	0	1	+	0	6	C2r.bmp	492	1	blank2r.bmp	786	1	CPLW	786	1	blank2r.bmp	866	4	anregung	866	1	!	1239	1	!	1266	0	0	0	0	0	0	0	0	0	0	0	0	0	0	0	0	0	0	0	0	0	0	0	0	0	0	0
012219	09:59:26	10:09:11	583146	5.0.10.0	4_exp_AWA_CON_AMP_EVA	81	Rpleas_acq	Same	Rpleas	Amasked	CS_A	1pleas	distractor1	CONbeforeEVA	acq_US_unple_masked	acq45_masked	5	35	400	1	300	300	0	0	394	46	0	1	0	0	0	1	blank2r.bmp	0	1	+	0	7	C3r.bmp	492	1	blank2r.bmp	786	1	DHJF	786	1	blank2r.bmp	866	4	ausrottung	866	1	!	1239	1	!	1292	0	0	0	0	0	0	0	0	0	0	0	0	0	0	0	0	0	0	0	0	0	0	0	0	0	0	0
012219	09:59:26	10:09:13	585331	5.0.10.0	4_exp_AWA_CON_AMP_EVA	81	Rpleas_acq	Same	Rpleas	Amasked	CS_A	1pleas	distractor1	CONbeforeEVA	acq_US_pleas_masked	acq45_masked	5	36	400	1	300	300	0	0	374	50	0	1	0	0	0	1	blank2r.bmp	0	1	+	0	4	B4r.bmp	492	1	blank2r.bmp	786	1	CPLW	786	1	blank2r.bmp	866	2	gütig	866	1	!	1239	1	!	1279	0	0	0	0	0	0	0	0	0	0	0	0	0	0	0	0	0	0	0	0	0	0	0	0	0	0	0
012219	09:59:26	10:10:29	661447	5.0.10.0	4_exp_AWA_CON_AMP_EVA	81	Rpleas_acq	Same	Rpleas	Amasked	CS_A	1pleas	distractor1	CONbeforeEVA	cond_new_pleas_456_masked_CS1	condtest_masked_1	8	1	400	1	300	300	0	0	424	50	0	1	0	0	0	1	blank2r.bmp	0	1	+	0	8	C4r.bmp	492	1	blank2r.bmp	786	1	CPLW	786	1	blank2r.bmp	866	2	sonnig	866	1	!	1239	1	!	1319	0	0	0	0	0	0	0	0	0	0	0	0	0	0	0	0	0	0	0	0	0	0	0	0	0	0	0
012219	09:59:26	10:10:31	663646	5.0.10.0	4_exp_AWA_CON_AMP_EVA	81	Rpleas_acq	Same	Rpleas	Amasked	CS_A	1pleas	distractor1	CONbeforeEVA	cond_US_unple_123_masked_CS2	condtest_masked_1	8	2	400	1	300	300	0	0	409	46	0	1	0	0	0	1	blank2r.bmp	0	1	+	0	1	B1r.bmp	492	1	blank2r.bmp	786	1	DHJF	786	1	blank2r.bmp	866	3	töten	866	1	!	1239	1	!	1306	0	0	0	0	0	0	0	0	0	0	0	0	0	0	0	0	0	0	0	0	0	0	0	0	0	0	0
012219	09:59:26	10:10:33	665898	5.0.10.0	4_exp_AWA_CON_AMP_EVA	81	Rpleas_acq	Same	Rpleas	Amasked	CS_A	1pleas	distractor1	CONbeforeEVA	cond_new_unple_456_masked_CS2	condtest_masked_1	8	3	400	0	300	300	0	0	479	46	0	1	0	0	0	1	blank2r.bmp	0	1	+	0	2	B2r.bmp	492	1	blank2r.bmp	786	1	DHJF	786	1	blank2r.bmp	866	3	verbissen	866	1	!	1239	1	!	-1	0	0	0	0	0	0	0	0	0	0	0	0	0	0	0	0	0	0	0	0	0	0	0	0	0	0	0
012219	09:59:26	10:10:35	668057	5.0.10.0	4_exp_AWA_CON_AMP_EVA	81	Rpleas_acq	Same	Rpleas	Amasked	CS_A	1pleas	distractor1	CONbeforeEVA	cond_new_unple_456_masked_CS1	condtest_masked_1	8	4	400	1	300	300	0	0	346	50	0	0	0	0	0	1	blank2r.bmp	0	1	+	0	3	B3r.bmp	492	1	blank2r.bmp	786	1	CPLW	786	1	blank2r.bmp	866	1	geizig	866	1	!	1239	1	!	1252	0	0	0	0	0	0	0	0	0	0	0	0	0	0	0	0	0	0	0	0	0	0	0	0	0	0	0
012219	09:59:26	10:10:38	670323	5.0.10.0	4_exp_AWA_CON_AMP_EVA	81	Rpleas_acq	Same	Rpleas	Amasked	CS_A	1pleas	distractor1	CONbeforeEVA	cond_US_unple_123_masked_CS1	condtest_masked_1	8	5	400	0	300	300	0	0	493	46	0	1	0	0	0	1	blank2r.bmp	0	1	+	0	8	C4r.bmp	492	1	blank2r.bmp	786	1	CPLW	786	1	blank2r.bmp	866	1	gemein	866	1	!	1239	1	!	-1	0	0	0	0	0	0	0	0	0	0	0	0	0	0	0	0	0	0	0	0	0	0	0	0	0	0	0
012219	09:59:26	10:10:40	672522	5.0.10.0	4_exp_AWA_CON_AMP_EVA	81	Rpleas_acq	Same	Rpleas	Amasked	CS_A	1pleas	distractor1	CONbeforeEVA	cond_US_pleas_123_masked_CS1	condtest_masked_1	8	6	400	1	300	300	0	0	389	50	0	1	0	0	0	1	blank2r.bmp	0	1	+	0	7	C3r.bmp	492	1	blank2r.bmp	786	1	CPLW	786	1	blank2r.bmp	866	2	gütig	866	1	!	1239	1	!	1292	0	0	0	0	0	0	0	0	0	0	0	0	0	0	0	0	0	0	0	0	0	0	0	0	0	0	0
012219	09:59:26	10:10:42	674734	5.0.10.0	4_exp_AWA_CON_AMP_EVA	81	Rpleas_acq	Same	Rpleas	Amasked	CS_A	1pleas	distractor1	CONbeforeEVA	cond_US_pleas_123_masked_CS2	condtest_masked_1	8	7	400	1	300	300	0	0	414	50	0	1	0	0	0	1	blank2r.bmp	0	1	+	0	4	B4r.bmp	492	1	blank2r.bmp	786	1	DHJF	786	1	blank2r.bmp	866	3	träumen	866	1	!	1239	1	!	1319	0	0	0	0	0	0	0	0	0	0	0	0	0	0	0	0	0	0	0	0	0	0	0	0	0	0	0
012219	09:59:26	10:10:44	676987	5.0.10.0	4_exp_AWA_CON_AMP_EVA	81	Rpleas_acq	Same	Rpleas	Amasked	CS_A	1pleas	distractor1	CONbeforeEVA	cond_new_pleas_456_masked_CS2	condtest_masked_1	8	8	400	0	300	300	0	0	479	46	0	0	0	0	0	1	blank2r.bmp	0	1	+	0	6	C2r.bmp	492	1	blank2r.bmp	786	1	DHJF	786	1	blank2r.bmp	866	1	gesittet	866	1	!	1239	1	!	-1	0	0	0	0	0	0	0	0	0	0	0	0	0	0	0	0	0	0	0	0	0	0	0	0	0	0	0
012219	09:59:26	10:10:55	687609	5.0.10.0	4_exp_AWA_CON_AMP_EVA	81	Rpleas_acq	Same	Rpleas	Amasked	CS_A	1pleas	distractor1	CONbeforeEVA	cond_new_pleas_456_masked_CS2	condtest_masked_2	9	1	400	1	300	300	0	0	389	50	0	1	0	0	0	1	blank2r.bmp	0	1	+	0	5	C1r.bmp	492	1	blank2r.bmp	786	1	DHJF	786	1	blank2r.bmp	866	3	vergnügt	866	1	!	1239	1	!	1292	0	0	0	0	0	0	0	0	0	0	0	0	0	0	0	0	0	0	0	0	0	0	0	0	0	0	0
012219	09:59:26	10:10:57	689755	5.0.10.0	4_exp_AWA_CON_AMP_EVA	81	Rpleas_acq	Same	Rpleas	Amasked	CS_A	1pleas	distractor1	CONbeforeEVA	cond_US_unple_123_masked_CS2	condtest_masked_2	9	2	400	1	300	300	0	0	356	50	0	0	0	0	0	1	blank2r.bmp	0	1	+	0	2	B2r.bmp	492	1	blank2r.bmp	786	1	DHJF	786	1	blank2r.bmp	866	2	gierig	866	1	!	1239	1	!	1252	0	0	0	0	0	0	0	0	0	0	0	0	0	0	0	0	0	0	0	0	0	0	0	0	0	0	0
012219	09:59:26	10:10:59	691981	5.0.10.0	4_exp_AWA_CON_AMP_EVA	81	Rpleas_acq	Same	Rpleas	Amasked	CS_A	1pleas	distractor1	CONbeforeEVA	cond_new_unple_456_masked_CS1	condtest_masked_2	9	3	400	1	300	300	0	0	424	46	0	1	0	0	0	1	blank2r.bmp	0	1	+	0	1	B1r.bmp	492	1	blank2r.bmp	786	1	CPLW	786	1	blank2r.bmp	866	2	sterben	866	1	!	1239	1	!	1319	0	0	0	0	0	0	0	0	0	0	0	0	0	0	0	0	0	0	0	0	0	0	0	0	0	0	0
012219	09:59:26	10:11:02	694300	5.0.10.0	4_exp_AWA_CON_AMP_EVA	81	Rpleas_acq	Same	Rpleas	Amasked	CS_A	1pleas	distractor1	CONbeforeEVA	cond_new_unple_456_masked_CS1	condtest_masked_2	9	4	400	0	300	300	0	0	552	46	0	1	0	0	0	1	blank2r.bmp	0	1	+	0	3	B3r.bmp	492	1	blank2r.bmp	786	1	CPLW	786	1	blank2r.bmp	866	2	sterben	866	1	!	1239	1	!	-1	0	0	0	0	0	0	0	0	0	0	0	0	0	0	0	0	0	0	0	0	0	0	0	0	0	0	0
012219	09:59:26	10:11:04	696459	5.0.10.0	4_exp_AWA_CON_AMP_EVA	81	Rpleas_acq	Same	Rpleas	Amasked	CS_A	1pleas	distractor1	CONbeforeEVA	cond_US_pleas_123_masked_CS2	condtest_masked_2	9	5	400	1	300	300	0	0	346	50	0	1	0	0	0	1	blank2r.bmp	0	1	+	0	7	C3r.bmp	492	1	blank2r.bmp	786	1	DHJF	786	1	blank2r.bmp	866	1	genießen	866	1	!	1239	1	!	1252	0	0	0	0	0	0	0	0	0	0	0	0	0	0	0	0	0	0	0	0	0	0	0	0	0	0	0
012219	09:59:26	10:11:06	698725	5.0.10.0	4_exp_AWA_CON_AMP_EVA	81	Rpleas_acq	Same	Rpleas	Amasked	CS_A	1pleas	distractor1	CONbeforeEVA	cond_new_unple_456_masked_CS1	condtest_masked_2	9	6	400	0	300	300	0	0	499	46	0	1	0	0	0	1	blank2r.bmp	0	1	+	0	5	C1r.bmp	492	1	blank2r.bmp	786	1	CPLW	786	1	blank2r.bmp	866	1	geizig	866	1	!	1239	1	!	-1	0	0	0	0	0	0	0	0	0	0	0	0	0	0	0	0	0	0	0	0	0	0	0	0	0	0	0
012219	09:59:26	10:11:08	700937	5.0.10.0	4_exp_AWA_CON_AMP_EVA	81	Rpleas_acq	Same	Rpleas	Amasked	CS_A	1pleas	distractor1	CONbeforeEVA	cond_US_pleas_123_masked_CS1	condtest_masked_2	9	7	400	1	300	300	0	0	408	50	0	1	0	0	0	1	blank2r.bmp	0	1	+	0	4	B4r.bmp	492	1	blank2r.bmp	786	1	CPLW	786	1	blank2r.bmp	866	2	gütig	866	1	!	1239	1	!	1306	0	0	0	0	0	0	0	0	0	0	0	0	0	0	0	0	0	0	0	0	0	0	0	0	0	0	0
012219	09:59:26	10:11:11	703163	5.0.10.0	4_exp_AWA_CON_AMP_EVA	81	Rpleas_acq	Same	Rpleas	Amasked	CS_A	1pleas	distractor1	CONbeforeEVA	cond_US_unple_123_masked_CS1	condtest_masked_2	9	8	400	1	300	300	0	0	432	50	0	0	0	0	0	1	blank2r.bmp	0	1	+	0	6	C2r.bmp	492	1	blank2r.bmp	786	1	CPLW	786	1	blank2r.bmp	866	3	töten	866	1	!	1239	1	!	1332	0	0	0	0	0	0	0	0	0	0	0	0	0	0	0	0	0	0	0	0	0	0	0	0	0	0	0
012219	09:59:26	10:11:13	705375	5.0.10.0	4_exp_AWA_CON_AMP_EVA	81	Rpleas_acq	Same	Rpleas	Amasked	CS_A	1pleas	distractor1	CONbeforeEVA	cond_US_pleas_123_masked_CS1	condtest_masked_2	9	9	400	1	300	300	0	0	413	50	0	1	0	0	0	1	blank2r.bmp	0	1	+	0	3	B3r.bmp	492	1	blank2r.bmp	786	1	CPLW	786	1	blank2r.bmp	866	3	träumen	866	1	!	1239	1	!	1319	0	0	0	0	0	0	0	0	0	0	0	0	0	0	0	0	0	0	0	0	0	0	0	0	0	0	0
012219	09:59:26	10:11:15	707641	5.0.10.0	4_exp_AWA_CON_AMP_EVA	81	Rpleas_acq	Same	Rpleas	Amasked	CS_A	1pleas	distractor1	CONbeforeEVA	cond_new_unple_456_masked_CS1	condtest_masked_2	9	10	400	0	300	300	0	0	497	50	0	0	0	0	0	1	blank2r.bmp	0	1	+	0	1	B1r.bmp	492	1	blank2r.bmp	786	1	CPLW	786	1	blank2r.bmp	866	3	verbissen	866	1	!	1239	1	!	-1	0	0	0	0	0	0	0	0	0	0	0	0	0	0	0	0	0	0	0	0	0	0	0	0	0	0	0
012219	09:59:26	10:11:17	709800	5.0.10.0	4_exp_AWA_CON_AMP_EVA	81	Rpleas_acq	Same	Rpleas	Amasked	CS_A	1pleas	distractor1	CONbeforeEVA	cond_US_unple_123_masked_CS1	condtest_masked_2	9	11	400	1	300	300	0	0	358	46	0	1	0	0	0	1	blank2r.bmp	0	1	+	0	8	C4r.bmp	492	1	blank2r.bmp	786	1	CPLW	786	1	blank2r.bmp	866	2	gierig	866	1	!	1239	1	!	1252	0	0	0	0	0	0	0	0	0	0	0	0	0	0	0	0	0	0	0	0	0	0	0	0	0	0	0
012219	09:59:26	10:11:19	711986	5.0.10.0	4_exp_AWA_CON_AMP_EVA	81	Rpleas_acq	Same	Rpleas	Amasked	CS_A	1pleas	distractor1	CONbeforeEVA	cond_US_pleas_123_masked_CS1	condtest_masked_2	9	12	400	1	300	300	0	0	375	50	0	1	0	0	0	1	blank2r.bmp	0	1	+	0	2	B2r.bmp	492	1	blank2r.bmp	786	1	CPLW	786	1	blank2r.bmp	866	1	genießen	866	1	!	1239	1	!	1279	0	0	0	0	0	0	0	0	0	0	0	0	0	0	0	0	0	0	0	0	0	0	0	0	0	0	0
012219	09:59:26	10:11:22	714318	5.0.10.0	4_exp_AWA_CON_AMP_EVA	81	Rpleas_acq	Same	Rpleas	Amasked	CS_A	1pleas	distractor1	CONbeforeEVA	cond_new_pleas_456_masked_CS1	condtest_masked_2	9	13	400	0	300	300	0	0	551	50	0	1	0	0	0	1	blank2r.bmp	0	1	+	0	5	C1r.bmp	492	1	blank2r.bmp	786	1	CPLW	786	1	blank2r.bmp	866	3	vergnügt	866	1	!	1239	1	!	-1	0	0	0	0	0	0	0	0	0	0	0	0	0	0	0	0	0	0	0	0	0	0	0	0	0	0	0
012219	09:59:26	10:11:24	716504	5.0.10.0	4_exp_AWA_CON_AMP_EVA	81	Rpleas_acq	Same	Rpleas	Amasked	CS_A	1pleas	distractor1	CONbeforeEVA	cond_US_unple_123_masked_CS1	condtest_masked_2	9	14	400	1	300	300	0	0	373	50	0	0	0	0	0	1	blank2r.bmp	0	1	+	0	7	C3r.bmp	492	1	blank2r.bmp	786	1	CPLW	786	1	blank2r.bmp	866	1	gemein	866	1	!	1239	1	!	1279	0	0	0	0	0	0	0	0	0	0	0	0	0	0	0	0	0	0	0	0	0	0	0	0	0	0	0
012219	09:59:26	10:11:26	718730	5.0.10.0	4_exp_AWA_CON_AMP_EVA	81	Rpleas_acq	Same	Rpleas	Amasked	CS_A	1pleas	distractor1	CONbeforeEVA	cond_new_pleas_456_masked_CS1	condtest_masked_2	9	15	400	1	300	300	0	0	437	50	0	1	0	0	0	1	blank2r.bmp	0	1	+	0	1	B1r.bmp	492	1	blank2r.bmp	786	1	CPLW	786	1	blank2r.bmp	866	1	gesittet	866	1	!	1239	1	!	1332	0	0	0	0	0	0	0	0	0	0	0	0	0	0	0	0	0	0	0	0	0	0	0	0	0	0	0
012219	09:59:26	10:11:28	720955	5.0.10.0	4_exp_AWA_CON_AMP_EVA	81	Rpleas_acq	Same	Rpleas	Amasked	CS_A	1pleas	distractor1	CONbeforeEVA	cond_US_unple_123_masked_CS1	condtest_masked_2	9	16	400	1	300	300	0	0	436	46	0	1	0	0	0	1	blank2r.bmp	0	1	+	0	4	B4r.bmp	492	1	blank2r.bmp	786	1	CPLW	786	1	blank2r.bmp	866	3	töten	866	1	!	1239	1	!	1332	0	0	0	0	0	0	0	0	0	0	0	0	0	0	0	0	0	0	0	0	0	0	0	0	0	0	0
012219	09:59:26	10:11:31	723221	5.0.10.0	4_exp_AWA_CON_AMP_EVA	81	Rpleas_acq	Same	Rpleas	Amasked	CS_A	1pleas	distractor1	CONbeforeEVA	cond_US_unple_123_masked_CS2	condtest_masked_2	9	17	400	1	300	300	0	0	462	50	0	0	0	0	0	1	blank2r.bmp	0	1	+	0	3	B3r.bmp	492	1	blank2r.bmp	786	1	DHJF	786	1	blank2r.bmp	866	1	gemein	866	1	!	1239	1	!	1359	0	0	0	0	0	0	0	0	0	0	0	0	0	0	0	0	0	0	0	0	0	0	0	0	0	0	0
012219	09:59:26	10:11:33	725314	5.0.10.0	4_exp_AWA_CON_AMP_EVA	81	Rpleas_acq	Same	Rpleas	Amasked	CS_A	1pleas	distractor1	CONbeforeEVA	cond_new_unple_456_masked_CS2	condtest_masked_2	9	18	400	0	300	300	0	0	331	50	0	0	0	0	0	1	blank2r.bmp	0	1	+	0	6	C2r.bmp	492	1	blank2r.bmp	786	1	DHJF	786	1	blank2r.bmp	866	2	sterben	866	1	!	-1	1	!	-1	0	0	0	0	0	0	0	0	0	0	0	0	0	0	0	0	0	0	0	0	0	0	0	0	0	0	0
012219	09:59:26	10:11:35	727499	5.0.10.0	4_exp_AWA_CON_AMP_EVA	81	Rpleas_acq	Same	Rpleas	Amasked	CS_A	1pleas	distractor1	CONbeforeEVA	cond_new_unple_456_masked_CS2	condtest_masked_2	9	19	400	1	300	300	0	0	381	46	0	1	0	0	0	1	blank2r.bmp	0	1	+	0	8	C4r.bmp	492	1	blank2r.bmp	786	1	DHJF	786	1	blank2r.bmp	866	3	verbissen	866	1	!	1239	1	!	1279	0	0	0	0	0	0	0	0	0	0	0	0	0	0	0	0	0	0	0	0	0	0	0	0	0	0	0
012219	09:59:26	10:11:37	729805	5.0.10.0	4_exp_AWA_CON_AMP_EVA	81	Rpleas_acq	Same	Rpleas	Amasked	CS_A	1pleas	distractor1	CONbeforeEVA	cond_US_unple_123_masked_CS2	condtest_masked_2	9	20	400	0	300	300	0	0	540	46	0	1	0	0	0	1	blank2r.bmp	0	1	+	0	2	B2r.bmp	492	1	blank2r.bmp	786	1	DHJF	786	1	blank2r.bmp	866	2	gierig	866	1	!	1239	1	!	-1	0	0	0	0	0	0	0	0	0	0	0	0	0	0	0	0	0	0	0	0	0	0	0	0	0	0	0
012219	09:59:26	10:11:39	731898	5.0.10.0	4_exp_AWA_CON_AMP_EVA	81	Rpleas_acq	Same	Rpleas	Amasked	CS_A	1pleas	distractor1	CONbeforeEVA	cond_US_pleas_123_masked_CS2	condtest_masked_2	9	21	400	0	300	300	0	0	309	50	0	1	0	0	0	1	blank2r.bmp	0	1	+	0	6	C2r.bmp	492	1	blank2r.bmp	786	1	DHJF	786	1	blank2r.bmp	866	3	träumen	866	1	!	-1	1	!	-1	0	0	0	0	0	0	0	0	0	0	0	0	0	0	0	0	0	0	0	0	0	0	0	0	0	0	0
012219	09:59:26	10:11:42	734083	5.0.10.0	4_exp_AWA_CON_AMP_EVA	81	Rpleas_acq	Same	Rpleas	Amasked	CS_A	1pleas	distractor1	CONbeforeEVA	cond_new_unple_456_masked_CS2	condtest_masked_2	9	22	400	1	300	300	0	0	381	46	0	1	0	0	0	1	blank2r.bmp	0	1	+	0	4	B4r.bmp	492	1	blank2r.bmp	786	1	DHJF	786	1	blank2r.bmp	866	1	geizig	866	1	!	1239	1	!	1279	0	0	0	0	0	0	0	0	0	0	0	0	0	0	0	0	0	0	0	0	0	0	0	0	0	0	0
012219	09:59:26	10:11:44	736336	5.0.10.0	4_exp_AWA_CON_AMP_EVA	81	Rpleas_acq	Same	Rpleas	Amasked	CS_A	1pleas	distractor1	CONbeforeEVA	cond_US_pleas_123_masked_CS1	condtest_masked_2	9	23	400	1	300	300	0	0	459	50	0	1	0	0	0	1	blank2r.bmp	0	1	+	0	5	C1r.bmp	492	1	blank2r.bmp	786	1	CPLW	786	1	blank2r.bmp	866	2	gütig	866	1	!	1239	1	!	1359	0	0	0	0	0	0	0	0	0	0	0	0	0	0	0	0	0	0	0	0	0	0	0	0	0	0	0
012219	09:59:26	10:11:46	738602	5.0.10.0	4_exp_AWA_CON_AMP_EVA	81	Rpleas_acq	Same	Rpleas	Amasked	CS_A	1pleas	distractor1	CONbeforeEVA	cond_US_unple_123_masked_CS1	condtest_masked_2	9	24	400	1	300	300	0	0	461	46	0	1	0	0	0	1	blank2r.bmp	0	1	+	0	3	B3r.bmp	492	1	blank2r.bmp	786	1	CPLW	786	1	blank2r.bmp	866	1	gemein	866	1	!	1239	1	!	1359	0	0	0	0	0	0	0	0	0	0	0	0	0	0	0	0	0	0	0	0	0	0	0	0	0	0	0
012219	09:59:26	10:11:48	740841	5.0.10.0	4_exp_AWA_CON_AMP_EVA	81	Rpleas_acq	Same	Rpleas	Amasked	CS_A	1pleas	distractor1	CONbeforeEVA	cond_new_unple_456_masked_CS2	condtest_masked_2	9	25	400	1	300	300	0	0	440	46	0	1	0	0	0	1	blank2r.bmp	0	1	+	0	8	C4r.bmp	492	1	blank2r.bmp	786	1	DHJF	786	1	blank2r.bmp	866	1	geizig	866	1	!	1239	1	!	1346	0	0	0	0	0	0	0	0	0	0	0	0	0	0	0	0	0	0	0	0	0	0	0	0	0	0	0
012219	09:59:26	10:11:51	743106	5.0.10.0	4_exp_AWA_CON_AMP_EVA	81	Rpleas_acq	Same	Rpleas	Amasked	CS_A	1pleas	distractor1	CONbeforeEVA	cond_US_pleas_123_masked_CS2	condtest_masked_2	9	26	400	0	300	300	0	0	499	50	0	1	0	0	0	1	blank2r.bmp	0	1	+	0	2	B2r.bmp	492	1	blank2r.bmp	786	1	DHJF	786	1	blank2r.bmp	866	1	genießen	866	1	!	1239	1	!	-1	0	0	0	0	0	0	0	0	0	0	0	0	0	0	0	0	0	0	0	0	0	0	0	0	0	0	0
012219	09:59:26	10:11:53	745359	5.0.10.0	4_exp_AWA_CON_AMP_EVA	81	Rpleas_acq	Same	Rpleas	Amasked	CS_A	1pleas	distractor1	CONbeforeEVA	cond_new_pleas_456_masked_CS1	condtest_masked_2	9	27	400	1	300	300	0	0	443	50	0	1	0	0	0	1	blank2r.bmp	0	1	+	0	1	B1r.bmp	492	1	blank2r.bmp	786	1	CPLW	786	1	blank2r.bmp	866	2	sonnig	866	1	!	1239	1	!	1346	0	0	0	0	0	0	0	0	0	0	0	0	0	0	0	0	0	0	0	0	0	0	0	0	0	0	0
012219	09:59:26	10:11:55	747531	5.0.10.0	4_exp_AWA_CON_AMP_EVA	81	Rpleas_acq	Same	Rpleas	Amasked	CS_A	1pleas	distractor1	CONbeforeEVA	cond_new_pleas_456_masked_CS2	condtest_masked_2	9	28	400	1	300	300	0	0	380	50	0	1	0	0	0	1	blank2r.bmp	0	1	+	0	7	C3r.bmp	492	1	blank2r.bmp	786	1	DHJF	786	1	blank2r.bmp	866	2	sonnig	866	1	!	1239	1	!	1279	0	0	0	0	0	0	0	0	0	0	0	0	0	0	0	0	0	0	0	0	0	0	0	0	0	0	0
012219	09:59:26	10:11:57	749717	5.0.10.0	4_exp_AWA_CON_AMP_EVA	81	Rpleas_acq	Same	Rpleas	Amasked	CS_A	1pleas	distractor1	CONbeforeEVA	cond_US_unple_123_masked_CS2	condtest_masked_2	9	29	400	1	300	300	0	0	396	46	0	1	0	0	0	1	blank2r.bmp	0	1	+	0	7	C3r.bmp	492	1	blank2r.bmp	786	1	DHJF	786	1	blank2r.bmp	866	2	gierig	866	1	!	1239	1	!	1292	0	0	0	0	0	0	0	0	0	0	0	0	0	0	0	0	0	0	0	0	0	0	0	0	0	0	0
012219	09:59:26	10:11:59	751996	5.0.10.0	4_exp_AWA_CON_AMP_EVA	81	Rpleas_acq	Same	Rpleas	Amasked	CS_A	1pleas	distractor1	CONbeforeEVA	cond_new_unple_456_masked_CS2	condtest_masked_2	9	30	400	0	300	300	0	0	506	46	0	1	0	0	0	1	blank2r.bmp	0	1	+	0	3	B3r.bmp	492	1	blank2r.bmp	786	1	DHJF	786	1	blank2r.bmp	866	2	sterben	866	1	!	1239	1	!	-1	0	0	0	0	0	0	0	0	0	0	0	0	0	0	0	0	0	0	0	0	0	0	0	0	0	0	0
012219	09:59:26	10:12:02	754102	5.0.10.0	4_exp_AWA_CON_AMP_EVA	81	Rpleas_acq	Same	Rpleas	Amasked	CS_A	1pleas	distractor1	CONbeforeEVA	cond_US_unple_123_masked_CS2	condtest_masked_2	9	31	400	0	300	300	0	0	322	50	0	0	0	0	0	1	blank2r.bmp	0	1	+	0	1	B1r.bmp	492	1	blank2r.bmp	786	1	DHJF	786	1	blank2r.bmp	866	3	töten	866	1	!	-1	1	!	-1	0	0	0	0	0	0	0	0	0	0	0	0	0	0	0	0	0	0	0	0	0	0	0	0	0	0	0
012219	09:59:26	10:12:04	756261	5.0.10.0	4_exp_AWA_CON_AMP_EVA	81	Rpleas_acq	Same	Rpleas	Amasked	CS_A	1pleas	distractor1	CONbeforeEVA	cond_new_pleas_456_masked_CS2	condtest_masked_2	9	32	400	1	300	300	0	0	346	50	0	1	0	0	0	1	blank2r.bmp	0	1	+	0	4	B4r.bmp	492	1	blank2r.bmp	786	1	DHJF	786	1	blank2r.bmp	866	1	gesittet	866	1	!	1239	1	!	1252	0	0	0	0	0	0	0	0	0	0	0	0	0	0	0	0	0	0	0	0	0	0	0	0	0	0	0
012219	09:59:26	10:12:06	758447	5.0.10.0	4_exp_AWA_CON_AMP_EVA	81	Rpleas_acq	Same	Rpleas	Amasked	CS_A	1pleas	distractor1	CONbeforeEVA	cond_new_pleas_456_masked_CS1	condtest_masked_2	9	33	400	1	300	300	0	0	386	46	0	0	0	0	0	1	blank2r.bmp	0	1	+	0	8	C4r.bmp	492	1	blank2r.bmp	786	1	CPLW	786	1	blank2r.bmp	866	3	vergnügt	866	1	!	1239	1	!	1292	0	0	0	0	0	0	0	0	0	0	0	0	0	0	0	0	0	0	0	0	0	0	0	0	0	0	0
012219	09:59:26	10:12:08	760592	5.0.10.0	4_exp_AWA_CON_AMP_EVA	81	Rpleas_acq	Same	Rpleas	Amasked	CS_A	1pleas	distractor1	CONbeforeEVA	cond_US_pleas_123_masked_CS1	condtest_masked_2	9	34	400	1	300	300	0	0	346	50	0	1	0	0	0	1	blank2r.bmp	0	1	+	0	6	C2r.bmp	492	1	blank2r.bmp	786	1	CPLW	786	1	blank2r.bmp	866	1	genießen	866	1	!	1239	1	!	1252	0	0	0	0	0	0	0	0	0	0	0	0	0	0	0	0	0	0	0	0	0	0	0	0	0	0	0
012219	09:59:26	10:12:10	762845	5.0.10.0	4_exp_AWA_CON_AMP_EVA	81	Rpleas_acq	Same	Rpleas	Amasked	CS_A	1pleas	distractor1	CONbeforeEVA	cond_new_pleas_456_masked_CS1	condtest_masked_2	9	35	400	1	300	300	0	0	463	50	0	1	0	0	0	1	blank2r.bmp	0	1	+	0	2	B2r.bmp	492	1	blank2r.bmp	786	1	CPLW	786	1	blank2r.bmp	866	2	sonnig	866	1	!	1239	1	!	1359	0	0	0	0	0	0	0	0	0	0	0	0	0	0	0	0	0	0	0	0	0	0	0	0	0	0	0
012219	09:59:26	10:12:13	765137	5.0.10.0	4_exp_AWA_CON_AMP_EVA	81	Rpleas_acq	Same	Rpleas	Amasked	CS_A	1pleas	distractor1	CONbeforeEVA	cond_new_pleas_456_masked_CS2	condtest_masked_2	9	36	400	0	300	300	0	0	521	50	0	1	0	0	0	1	blank2r.bmp	0	1	+	0	5	C1r.bmp	492	1	blank2r.bmp	786	1	DHJF	786	1	blank2r.bmp	866	3	vergnügt	866	1	!	1239	1	!	-1	0	0	0	0	0	0	0	0	0	0	0	0	0	0	0	0	0	0	0	0	0	0	0	0	0	0	0
012219	09:59:26	10:12:15	767376	5.0.10.0	4_exp_AWA_CON_AMP_EVA	81	Rpleas_acq	Same	Rpleas	Amasked	CS_A	1pleas	distractor1	CONbeforeEVA	cond_new_unple_456_masked_CS1	condtest_masked_2	9	37	400	1	300	300	0	0	412	46	0	1	0	0	0	1	blank2r.bmp	0	1	+	0	8	C4r.bmp	492	1	blank2r.bmp	786	1	CPLW	786	1	blank2r.bmp	866	3	verbissen	866	1	!	1239	1	!	1319	0	0	0	0	0	0	0	0	0	0	0	0	0	0	0	0	0	0	0	0	0	0	0	0	0	0	0
012219	09:59:26	10:12:17	769615	5.0.10.0	4_exp_AWA_CON_AMP_EVA	81	Rpleas_acq	Same	Rpleas	Amasked	CS_A	1pleas	distractor1	CONbeforeEVA	cond_US_pleas_123_masked_CS2	condtest_masked_2	9	38	400	1	300	300	0	0	439	50	0	1	0	0	0	1	blank2r.bmp	0	1	+	0	1	B1r.bmp	492	1	blank2r.bmp	786	1	DHJF	786	1	blank2r.bmp	866	3	träumen	866	1	!	1239	1	!	1346	0	0	0	0	0	0	0	0	0	0	0	0	0	0	0	0	0	0	0	0	0	0	0	0	0	0	0
012219	09:59:26	10:12:19	771841	5.0.10.0	4_exp_AWA_CON_AMP_EVA	81	Rpleas_acq	Same	Rpleas	Amasked	CS_A	1pleas	distractor1	CONbeforeEVA	cond_US_pleas_123_masked_CS2	condtest_masked_2	9	39	400	1	300	300	0	0	435	50	0	1	0	0	0	1	blank2r.bmp	0	1	+	0	4	B4r.bmp	492	1	blank2r.bmp	786	1	DHJF	786	1	blank2r.bmp	866	2	gütig	866	1	!	1239	1	!	1332	0	0	0	0	0	0	0	0	0	0	0	0	0	0	0	0	0	0	0	0	0	0	0	0	0	0	0
012219	09:59:26	10:12:22	774107	5.0.10.0	4_exp_AWA_CON_AMP_EVA	81	Rpleas_acq	Same	Rpleas	Amasked	CS_A	1pleas	distractor1	CONbeforeEVA	cond_new_pleas_456_masked_CS2	condtest_masked_2	9	40	400	0	300	300	0	0	479	50	0	1	0	0	0	1	blank2r.bmp	0	1	+	0	7	C3r.bmp	492	1	blank2r.bmp	786	1	DHJF	786	1	blank2r.bmp	866	1	gesittet	866	1	!	1239	1	!	-1	0	0	0	0	0	0	0	0	0	0	0	0	0	0	0	0	0	0	0	0	0	0	0	0	0	0	0
012219	09:59:26	10:12:46	798923	5.0.10.0	4_exp_AWA_CON_AMP_EVA	81	Rpleas_acq	Same	Rpleas	Amasked	CS_A	1pleas	distractor1	CONbeforeEVA	cond_US_unple_456_masked_CS2	condtest_masked_3	10	1	400	0	300	300	0	0	493	46	0	1	0	0	0	1	blank2r.bmp	0	1	+	0	3	B3r.bmp	492	1	blank2r.bmp	786	1	DHJF	786	1	blank2r.bmp	866	2	engstirnig	866	1	!	1239	1	!	-1	0	0	0	0	0	0	0	0	0	0	0	0	0	0	0	0	0	0	0	0	0	0	0	0	0	0	0
012219	09:59:26	10:12:49	801562	5.0.10.0	4_exp_AWA_CON_AMP_EVA	81	Rpleas_acq	Same	Rpleas	Amasked	CS_A	1pleas	distractor1	CONbeforeEVA	cond_new_unple_123_masked_CS1	condtest_masked_3	10	2	400	0	300	300	0	0	854	50	0	0	0	0	0	1	blank2r.bmp	0	1	+	0	5	C1r.bmp	492	1	blank2r.bmp	786	1	CPLW	786	1	blank2r.bmp	866	1	bange	866	1	!	1239	1	!	-1	0	0	0	0	0	0	0	0	0	0	0	0	0	0	0	0	0	0	0	0	0	0	0	0	0	0	0
012219	09:59:26	10:12:51	803815	5.0.10.0	4_exp_AWA_CON_AMP_EVA	81	Rpleas_acq	Same	Rpleas	Amasked	CS_A	1pleas	distractor1	CONbeforeEVA	cond_new_pleas_123_masked_CS1	condtest_masked_3	10	3	400	1	300	300	0	0	437	50	0	1	0	0	0	1	blank2r.bmp	0	1	+	0	6	C2r.bmp	492	1	blank2r.bmp	786	1	CPLW	786	1	blank2r.bmp	866	2	kuss	866	1	!	1239	1	!	1332	0	0	0	0	0	0	0	0	0	0	0	0	0	0	0	0	0	0	0	0	0	0	0	0	0	0	0
012219	09:59:26	10:12:53	806054	5.0.10.0	4_exp_AWA_CON_AMP_EVA	81	Rpleas_acq	Same	Rpleas	Amasked	CS_A	1pleas	distractor1	CONbeforeEVA	cond_new_pleas_123_masked_CS2	condtest_masked_3	10	4	400	1	300	300	0	0	444	50	0	1	0	0	0	1	blank2r.bmp	0	1	+	0	2	B2r.bmp	492	1	blank2r.bmp	786	1	DHJF	786	1	blank2r.bmp	866	1	besonnen	866	1	!	1239	1	!	1346	0	0	0	0	0	0	0	0	0	0	0	0	0	0	0	0	0	0	0	0	0	0	0	0	0	0	0
012219	09:59:26	10:12:56	808359	5.0.10.0	4_exp_AWA_CON_AMP_EVA	81	Rpleas_acq	Same	Rpleas	Amasked	CS_A	1pleas	distractor1	CONbeforeEVA	cond_new_pleas_123_masked_CS2	condtest_masked_3	10	5	400	0	300	300	0	0	520	50	0	1	0	0	0	1	blank2r.bmp	0	1	+	0	1	B1r.bmp	492	1	blank2r.bmp	786	1	DHJF	786	1	blank2r.bmp	866	3	vertrauen	866	1	!	1239	1	!	-1	0	0	0	0	0	0	0	0	0	0	0	0	0	0	0	0	0	0	0	0	0	0	0	0	0	0	0
012219	09:59:26	10:12:58	810545	5.0.10.0	4_exp_AWA_CON_AMP_EVA	81	Rpleas_acq	Same	Rpleas	Amasked	CS_A	1pleas	distractor1	CONbeforeEVA	cond_new_pleas_123_masked_CS1	condtest_masked_3	10	6	400	1	300	300	0	0	384	50	0	1	0	0	0	1	blank2r.bmp	0	1	+	0	2	B2r.bmp	492	1	blank2r.bmp	786	1	CPLW	786	1	blank2r.bmp	866	3	vertrauen	866	1	!	1239	1	!	1279	0	0	0	0	0	0	0	0	0	0	0	0	0	0	0	0	0	0	0	0	0	0	0	0	0	0	0
012219	09:59:26	10:13:00	812784	5.0.10.0	4_exp_AWA_CON_AMP_EVA	81	Rpleas_acq	Same	Rpleas	Amasked	CS_A	1pleas	distractor1	CONbeforeEVA	cond_US_unple_456_masked_CS2	condtest_masked_3	10	7	400	1	300	300	0	0	433	46	0	1	0	0	0	1	blank2r.bmp	0	1	+	0	5	C1r.bmp	492	1	blank2r.bmp	786	1	DHJF	786	1	blank2r.bmp	866	1	ausrottung	866	1	!	1239	1	!	1332	0	0	0	0	0	0	0	0	0	0	0	0	0	0	0	0	0	0	0	0	0	0	0	0	0	0	0
012219	09:59:26	10:13:02	815037	5.0.10.0	4_exp_AWA_CON_AMP_EVA	81	Rpleas_acq	Same	Rpleas	Amasked	CS_A	1pleas	distractor1	CONbeforeEVA	cond_new_unple_123_masked_CS2	condtest_masked_3	10	8	400	1	300	300	0	0	453	46	0	1	0	0	0	1	blank2r.bmp	0	1	+	0	6	C2r.bmp	492	1	blank2r.bmp	786	1	DHJF	786	1	blank2r.bmp	866	2	krise	866	1	!	1239	1	!	1359	0	0	0	0	0	0	0	0	0	0	0	0	0	0	0	0	0	0	0	0	0	0	0	0	0	0	0
012219	09:59:26	10:13:05	817129	5.0.10.0	4_exp_AWA_CON_AMP_EVA	81	Rpleas_acq	Same	Rpleas	Amasked	CS_A	1pleas	distractor1	CONbeforeEVA	cond_new_unple_123_masked_CS2	condtest_masked_3	10	9	400	0	300	300	0	0	317	50	0	0	0	0	0	1	blank2r.bmp	0	1	+	0	4	B4r.bmp	492	1	blank2r.bmp	786	1	DHJF	786	1	blank2r.bmp	866	3	versagen	866	1	!	-1	1	!	-1	0	0	0	0	0	0	0	0	0	0	0	0	0	0	0	0	0	0	0	0	0	0	0	0	0	0	0
012219	09:59:26	10:13:07	819248	5.0.10.0	4_exp_AWA_CON_AMP_EVA	81	Rpleas_acq	Same	Rpleas	Amasked	CS_A	1pleas	distractor1	CONbeforeEVA	cond_new_pleas_123_masked_CS1	condtest_masked_3	10	10	400	0	300	300	0	0	318	50	0	1	0	0	0	1	blank2r.bmp	0	1	+	0	3	B3r.bmp	492	1	blank2r.bmp	786	1	CPLW	786	1	blank2r.bmp	866	1	besonnen	866	1	!	-1	1	!	-1	0	0	0	0	0	0	0	0	0	0	0	0	0	0	0	0	0	0	0	0	0	0	0	0	0	0	0
012219	09:59:26	10:13:09	821514	5.0.10.0	4_exp_AWA_CON_AMP_EVA	81	Rpleas_acq	Same	Rpleas	Amasked	CS_A	1pleas	distractor1	CONbeforeEVA	cond_US_pleas_456_masked_CS1	condtest_masked_3	10	11	400	0	300	300	0	0	489	50	0	1	0	0	0	1	blank2r.bmp	0	1	+	0	8	C4r.bmp	492	1	blank2r.bmp	786	1	CPLW	786	1	blank2r.bmp	866	1	anregung	866	1	!	1239	1	!	-1	0	0	0	0	0	0	0	0	0	0	0	0	0	0	0	0	0	0	0	0	0	0	0	0	0	0	0
012219	09:59:26	10:13:11	823686	5.0.10.0	4_exp_AWA_CON_AMP_EVA	81	Rpleas_acq	Same	Rpleas	Amasked	CS_A	1pleas	distractor1	CONbeforeEVA	cond_new_pleas_123_masked_CS2	condtest_masked_3	10	12	400	1	300	300	0	0	346	50	0	1	0	0	0	1	blank2r.bmp	0	1	+	0	7	C3r.bmp	492	1	blank2r.bmp	786	1	DHJF	786	1	blank2r.bmp	866	2	kuss	866	1	!	1239	1	!	1252	0	0	0	0	0	0	0	0	0	0	0	0	0	0	0	0	0	0	0	0	0	0	0	0	0	0	0
012219	09:59:26	10:13:13	825792	5.0.10.0	4_exp_AWA_CON_AMP_EVA	81	Rpleas_acq	Same	Rpleas	Amasked	CS_A	1pleas	distractor1	CONbeforeEVA	cond_US_unple_456_masked_CS2	condtest_masked_3	10	13	400	0	300	300	0	0	332	46	0	1	0	0	0	1	blank2r.bmp	0	1	+	0	1	B1r.bmp	492	1	blank2r.bmp	786	1	DHJF	786	1	blank2r.bmp	866	3	krank	866	1	!	-1	1	!	-1	0	0	0	0	0	0	0	0	0	0	0	0	0	0	0	0	0	0	0	0	0	0	0	0	0	0	0
012219	09:59:26	10:13:15	827885	5.0.10.0	4_exp_AWA_CON_AMP_EVA	81	Rpleas_acq	Same	Rpleas	Amasked	CS_A	1pleas	distractor1	CONbeforeEVA	cond_new_pleas_123_masked_CS1	condtest_masked_3	10	14	400	0	300	300	0	0	308	50	0	1	0	0	0	1	blank2r.bmp	0	1	+	0	8	C4r.bmp	492	1	blank2r.bmp	786	1	CPLW	786	1	blank2r.bmp	866	2	kuss	866	1	!	-1	1	!	-1	0	0	0	0	0	0	0	0	0	0	0	0	0	0	0	0	0	0	0	0	0	0	0	0	0	0	0
012219	09:59:26	10:13:18	830164	5.0.10.0	4_exp_AWA_CON_AMP_EVA	81	Rpleas_acq	Same	Rpleas	Amasked	CS_A	1pleas	distractor1	CONbeforeEVA	cond_US_pleas_456_masked_CS1	condtest_masked_3	10	15	400	0	300	300	0	0	505	50	0	1	0	0	0	1	blank2r.bmp	0	1	+	0	5	C1r.bmp	492	1	blank2r.bmp	786	1	CPLW	786	1	blank2r.bmp	866	3	kreativ	866	1	!	1239	1	!	-1	0	0	0	0	0	0	0	0	0	0	0	0	0	0	0	0	0	0	0	0	0	0	0	0	0	0	0
012219	09:59:26	10:13:20	832390	5.0.10.0	4_exp_AWA_CON_AMP_EVA	81	Rpleas_acq	Same	Rpleas	Amasked	CS_A	1pleas	distractor1	CONbeforeEVA	cond_US_unple_456_masked_CS1	condtest_masked_3	10	16	400	1	300	300	0	0	424	50	0	0	0	0	0	1	blank2r.bmp	0	1	+	0	6	C2r.bmp	492	1	blank2r.bmp	786	1	CPLW	786	1	blank2r.bmp	866	1	ausrottung	866	1	!	1239	1	!	1319	0	0	0	0	0	0	0	0	0	0	0	0	0	0	0	0	0	0	0	0	0	0	0	0	0	0	0
012219	09:59:26	10:13:22	834549	5.0.10.0	4_exp_AWA_CON_AMP_EVA	81	Rpleas_acq	Same	Rpleas	Amasked	CS_A	1pleas	distractor1	CONbeforeEVA	cond_US_pleas_456_masked_CS1	condtest_masked_3	10	17	400	1	300	300	0	0	360	50	0	1	0	0	0	1	blank2r.bmp	0	1	+	0	4	B4r.bmp	492	1	blank2r.bmp	786	1	CPLW	786	1	blank2r.bmp	866	2	engagiert	866	1	!	1239	1	!	1266	0	0	0	0	0	0	0	0	0	0	0	0	0	0	0	0	0	0	0	0	0	0	0	0	0	0	0
012219	09:59:26	10:13:24	836841	5.0.10.0	4_exp_AWA_CON_AMP_EVA	81	Rpleas_acq	Same	Rpleas	Amasked	CS_A	1pleas	distractor1	CONbeforeEVA	cond_US_pleas_456_masked_CS1	condtest_masked_3	10	18	400	0	300	300	0	0	530	50	0	1	0	0	0	1	blank2r.bmp	0	1	+	0	2	B2r.bmp	492	1	blank2r.bmp	786	1	CPLW	786	1	blank2r.bmp	866	1	anregung	866	1	!	1239	1	!	-1	0	0	0	0	0	0	0	0	0	0	0	0	0	0	0	0	0	0	0	0	0	0	0	0	0	0	0
012219	09:59:26	10:13:27	839107	5.0.10.0	4_exp_AWA_CON_AMP_EVA	81	Rpleas_acq	Same	Rpleas	Amasked	CS_A	1pleas	distractor1	CONbeforeEVA	cond_US_pleas_456_masked_CS2	condtest_masked_3	10	19	400	1	300	300	0	0	464	50	0	1	0	0	0	1	blank2r.bmp	0	1	+	0	3	B3r.bmp	492	1	blank2r.bmp	786	1	DHJF	786	1	blank2r.bmp	866	2	engagiert	866	1	!	1239	1	!	1359	0	0	0	0	0	0	0	0	0	0	0	0	0	0	0	0	0	0	0	0	0	0	0	0	0	0	0
012219	09:59:26	10:13:29	841293	5.0.10.0	4_exp_AWA_CON_AMP_EVA	81	Rpleas_acq	Same	Rpleas	Amasked	CS_A	1pleas	distractor1	CONbeforeEVA	cond_new_unple_123_masked_CS2	condtest_masked_3	10	20	400	1	300	300	0	0	394	50	0	0	0	0	0	1	blank2r.bmp	0	1	+	0	7	C3r.bmp	492	1	blank2r.bmp	786	1	DHJF	786	1	blank2r.bmp	866	1	bange	866	1	!	1239	1	!	1292	0	0	0	0	0	0	0	0	0	0	0	0	0	0	0	0	0	0	0	0	0	0	0	0	0	0	0
012219	09:59:26	10:13:31	843492	5.0.10.0	4_exp_AWA_CON_AMP_EVA	81	Rpleas_acq	Same	Rpleas	Amasked	CS_A	1pleas	distractor1	CONbeforeEVA	cond_US_unple_456_masked_CS1	condtest_masked_3	10	21	400	1	300	300	0	0	386	46	0	1	0	0	0	1	blank2r.bmp	0	1	+	0	5	C1r.bmp	492	1	blank2r.bmp	786	1	CPLW	786	1	blank2r.bmp	866	3	krank	866	1	!	1239	1	!	1292	0	0	0	0	0	0	0	0	0	0	0	0	0	0	0	0	0	0	0	0	0	0	0	0	0	0	0
012219	09:59:26	10:13:33	845757	5.0.10.0	4_exp_AWA_CON_AMP_EVA	81	Rpleas_acq	Same	Rpleas	Amasked	CS_A	1pleas	distractor1	CONbeforeEVA	cond_US_unple_456_masked_CS1	condtest_masked_3	10	22	400	0	300	300	0	0	479	46	0	1	0	0	0	1	blank2r.bmp	0	1	+	0	7	C3r.bmp	492	1	blank2r.bmp	786	1	CPLW	786	1	blank2r.bmp	866	2	engstirnig	866	1	!	1239	1	!	-1	0	0	0	0	0	0	0	0	0	0	0	0	0	0	0	0	0	0	0	0	0	0	0	0	0	0	0
012219	09:59:26	10:13:35	848036	5.0.10.0	4_exp_AWA_CON_AMP_EVA	81	Rpleas_acq	Same	Rpleas	Amasked	CS_A	1pleas	distractor1	CONbeforeEVA	cond_new_unple_123_masked_CS2	condtest_masked_3	10	23	400	0	300	300	0	0	487	46	0	1	0	0	0	1	blank2r.bmp	0	1	+	0	2	B2r.bmp	492	1	blank2r.bmp	786	1	DHJF	786	1	blank2r.bmp	866	2	krise	866	1	!	1239	1	!	-1	0	0	0	0	0	0	0	0	0	0	0	0	0	0	0	0	0	0	0	0	0	0	0	0	0	0	0
012219	09:59:26	10:13:38	850209	5.0.10.0	4_exp_AWA_CON_AMP_EVA	81	Rpleas_acq	Same	Rpleas	Amasked	CS_A	1pleas	distractor1	CONbeforeEVA	cond_new_unple_123_masked_CS2	condtest_masked_3	10	24	400	1	300	300	0	0	364	50	0	0	0	0	0	1	blank2r.bmp	0	1	+	0	8	C4r.bmp	492	1	blank2r.bmp	786	1	DHJF	786	1	blank2r.bmp	866	3	versagen	866	1	!	1239	1	!	1266	0	0	0	0	0	0	0	0	0	0	0	0	0	0	0	0	0	0	0	0	0	0	0	0	0	0	0
012219	09:59:26	10:13:40	852355	5.0.10.0	4_exp_AWA_CON_AMP_EVA	81	Rpleas_acq	Same	Rpleas	Amasked	CS_A	1pleas	distractor1	CONbeforeEVA	cond_new_pleas_123_masked_CS1	condtest_masked_3	10	25	400	1	300	300	0	0	346	50	0	1	0	0	0	1	blank2r.bmp	0	1	+	0	1	B1r.bmp	492	1	blank2r.bmp	786	1	CPLW	786	1	blank2r.bmp	866	3	vertrauen	866	1	!	1239	1	!	1252	0	0	0	0	0	0	0	0	0	0	0	0	0	0	0	0	0	0	0	0	0	0	0	0	0	0	0
012219	09:59:26	10:13:42	854674	5.0.10.0	4_exp_AWA_CON_AMP_EVA	81	Rpleas_acq	Same	Rpleas	Amasked	CS_A	1pleas	distractor1	CONbeforeEVA	cond_new_unple_123_masked_CS1	condtest_masked_3	10	26	400	0	300	300	0	0	549	46	0	1	0	0	0	1	blank2r.bmp	0	1	+	0	6	C2r.bmp	492	1	blank2r.bmp	786	1	CPLW	786	1	blank2r.bmp	866	2	krise	866	1	!	1239	1	!	-1	0	0	0	0	0	0	0	0	0	0	0	0	0	0	0	0	0	0	0	0	0	0	0	0	0	0	0
012219	09:59:26	10:13:44	856926	5.0.10.0	4_exp_AWA_CON_AMP_EVA	81	Rpleas_acq	Same	Rpleas	Amasked	CS_A	1pleas	distractor1	CONbeforeEVA	cond_US_unple_456_masked_CS2	condtest_masked_3	10	27	400	1	300	300	0	0	444	46	0	1	0	0	0	1	blank2r.bmp	0	1	+	0	4	B4r.bmp	492	1	blank2r.bmp	786	1	DHJF	786	1	blank2r.bmp	866	2	engstirnig	866	1	!	1239	1	!	1346	0	0	0	0	0	0	0	0	0	0	0	0	0	0	0	0	0	0	0	0	0	0	0	0	0	0	0
012219	09:59:26	10:13:47	859178	5.0.10.0	4_exp_AWA_CON_AMP_EVA	81	Rpleas_acq	Same	Rpleas	Amasked	CS_A	1pleas	distractor1	CONbeforeEVA	cond_new_pleas_123_masked_CS2	condtest_masked_3	10	28	400	1	300	300	0	0	461	50	0	1	0	0	0	1	blank2r.bmp	0	1	+	0	3	B3r.bmp	492	1	blank2r.bmp	786	1	DHJF	786	1	blank2r.bmp	866	1	besonnen	866	1	!	1239	1	!	1359	0	0	0	0	0	0	0	0	0	0	0	0	0	0	0	0	0	0	0	0	0	0	0	0	0	0	0
012219	09:59:26	10:13:49	861884	5.0.10.0	4_exp_AWA_CON_AMP_EVA	81	Rpleas_acq	Same	Rpleas	Amasked	CS_A	1pleas	distractor1	CONbeforeEVA	cond_US_unple_456_masked_CS1	condtest_masked_3	10	29	400	0	300	300	0	0	938	46	0	1	0	0	0	1	blank2r.bmp	0	1	+	0	5	C1r.bmp	492	1	blank2r.bmp	786	1	CPLW	786	1	blank2r.bmp	866	1	ausrottung	866	1	!	1239	1	!	-1	0	0	0	0	0	0	0	0	0	0	0	0	0	0	0	0	0	0	0	0	0	0	0	0	0	0	0
012219	09:59:26	10:13:52	864150	5.0.10.0	4_exp_AWA_CON_AMP_EVA	81	Rpleas_acq	Same	Rpleas	Amasked	CS_A	1pleas	distractor1	CONbeforeEVA	cond_US_unple_456_masked_CS1	condtest_masked_3	10	30	400	0	300	300	0	0	479	46	0	1	0	0	0	1	blank2r.bmp	0	1	+	0	8	C4r.bmp	492	1	blank2r.bmp	786	1	CPLW	786	1	blank2r.bmp	866	3	krank	866	1	!	1239	1	!	-1	0	0	0	0	0	0	0	0	0	0	0	0	0	0	0	0	0	0	0	0	0	0	0	0	0	0	0
012219	09:59:26	10:13:56	868895	5.0.10.0	4_exp_AWA_CON_AMP_EVA	81	Rpleas_acq	Same	Rpleas	Amasked	CS_A	1pleas	distractor1	CONbeforeEVA	cond_new_unple_123_masked_CS2	condtest_masked_3	10	31	400	0	300	300	0	0	2956	50	0	0	0	0	0	1	blank2r.bmp	0	1	+	0	4	B4r.bmp	492	1	blank2r.bmp	786	1	DHJF	786	1	blank2r.bmp	866	1	bange	866	1	!	1239	1	!	-1	0	0	0	0	0	0	0	0	0	0	0	0	0	0	0	0	0	0	0	0	0	0	0	0	0	0	0
