date	time	script.currenttime	script.elapsedtime	build	script.currentexpt	subject	expressions.LRpleas_acq	expressions.SameOppo	expressions.condition_Lpleas	expressions.ABmasked	expressions.conditionCS_A	expressions.condition_1pleas	expressions.condition_distractor_AMP	expressions.AWACON_AMPEVA_first	trialcode	blockcode	blocknum	trialnum	windowcenter	inwindow	pretrialpause	posttrialpause	trialduration	trialtimeout	latency	response	expressions.correctedscore	correct	values.vis_performance	values.vis_rating_sum	values.vis_rating_mean	stimulusnumber1	stimulusitem1	stimulusonset1	stimulusnumber2	stimulusitem2	stimulusonset2	stimulusnumber3	stimulusitem3	stimulusonset3	stimulusnumber4	stimulusitem4	stimulusonset4	stimulusnumber5	stimulusitem5	stimulusonset5	stimulusnumber6	stimulusitem6	stimulusonset6	stimulusnumber7	stimulusitem7	stimulusonset7	stimulusnumber8	stimulusitem8	stimulusonset8	stimulusnumber9	stimulusitem9	stimulusonset9	stimulusnumber10	stimulusitem10	stimulusonset10	stimulusnumber11	stimulusitem11	stimulusonset11	stimulusnumber12	stimulusitem12	stimulusonset12	stimulusnumber13	stimulusitem13	stimulusonset13	stimulusnumber14	stimulusitem14	stimulusonset14	stimulusnumber15	stimulusitem15	stimulusonset15	stimulusnumber16	stimulusitem16	stimulusonset16	stimulusnumber17	stimulusitem17	stimulusonset17	stimulusnumber18	stimulusitem18	stimulusonset18
031419	10:34:48	10:35:44	55856	5.0.10.0	4_exp_EVA_AMP_AWA_CON	162	Rpleas_acq	Same	Rpleas	Bmasked	CS_B	2pleas	distractor1	EVAbeforeCON	acq_US_unple_masked	acq1_masked	1	1	0	0	300	300	0	0	831	46	0	1	0	0	0	1	blank2r.bmp	0	1	+	0	7	C3r.bmp	492	1	blank2r.bmp	786	1	BMVZ	786	1	blank2r.bmp	866	4	hindern	866	0	0	0	0	0	0	0	0	0	0	0	0	0	0	0	0	0	0	0	0	0	0	0	0	0	0	0	0	0	0	0	0	0
031419	10:34:48	10:35:46	57842	5.0.10.0	4_exp_EVA_AMP_AWA_CON	162	Rpleas_acq	Same	Rpleas	Bmasked	CS_B	2pleas	distractor1	EVAbeforeCON	acq_new_pleas_masked	acq1_masked	1	2	0	0	300	300	0	0	492	50	0	1	0	0	0	1	blank2r.bmp	0	1	+	0	3	B3r.bmp	492	1	blank2r.bmp	786	4	B4r.bmp	786	1	blank2r.bmp	866	3	retten	866	0	0	0	0	0	0	0	0	0	0	0	0	0	0	0	0	0	0	0	0	0	0	0	0	0	0	0	0	0	0	0	0	0
031419	10:34:48	10:35:48	59761	5.0.10.0	4_exp_EVA_AMP_AWA_CON	162	Rpleas_acq	Same	Rpleas	Bmasked	CS_B	2pleas	distractor1	EVAbeforeCON	acq_US_pleas_masked	acq1_masked	1	3	0	0	300	300	0	0	451	50	0	1	0	0	0	1	blank2r.bmp	0	1	+	0	1	B1r.bmp	492	1	blank2r.bmp	786	1	GKQX	786	1	blank2r.bmp	866	1	tolerant	866	0	0	0	0	0	0	0	0	0	0	0	0	0	0	0	0	0	0	0	0	0	0	0	0	0	0	0	0	0	0	0	0	0
031419	10:34:48	10:35:51	62040	5.0.10.0	4_exp_EVA_AMP_AWA_CON	162	Rpleas_acq	Same	Rpleas	Bmasked	CS_B	2pleas	distractor1	EVAbeforeCON	acq_new_unple_masked	acq1_masked	1	4	0	0	300	300	0	0	571	50	0	0	0	0	0	1	blank2r.bmp	0	1	+	0	2	B2r.bmp	492	1	blank2r.bmp	786	5	C1r.bmp	786	1	blank2r.bmp	866	4	lasch	866	1	FEHLER	1479	0	0	0	0	0	0	0	0	0	0	0	0	0	0	0	0	0	0	0	0	0	0	0	0	0	0	0	0	0	0
031419	10:34:48	10:35:52	63840	5.0.10.0	4_exp_EVA_AMP_AWA_CON	162	Rpleas_acq	Same	Rpleas	Bmasked	CS_B	2pleas	distractor1	EVAbeforeCON	acq_new_unple_masked	acq1_masked	1	5	0	0	300	300	0	0	539	46	0	1	0	0	0	1	blank2r.bmp	0	1	+	0	5	C1r.bmp	492	1	blank2r.bmp	786	7	C3r.bmp	786	1	blank2r.bmp	866	2	schroff	866	0	0	0	0	0	0	0	0	0	0	0	0	0	0	0	0	0	0	0	0	0	0	0	0	0	0	0	0	0	0	0	0	0
031419	10:34:48	10:35:54	65745	5.0.10.0	4_exp_EVA_AMP_AWA_CON	162	Rpleas_acq	Same	Rpleas	Bmasked	CS_B	2pleas	distractor1	EVAbeforeCON	acq_US_pleas_masked	acq1_masked	1	6	0	0	300	300	0	0	415	50	0	1	0	0	0	1	blank2r.bmp	0	1	+	0	8	C4r.bmp	492	1	blank2r.bmp	786	1	GKQX	786	1	blank2r.bmp	866	2	schön	866	0	0	0	0	0	0	0	0	0	0	0	0	0	0	0	0	0	0	0	0	0	0	0	0	0	0	0	0	0	0	0	0	0
031419	10:34:48	10:35:56	67745	5.0.10.0	4_exp_EVA_AMP_AWA_CON	162	Rpleas_acq	Same	Rpleas	Bmasked	CS_B	2pleas	distractor1	EVAbeforeCON	acq_new_pleas_masked	acq1_masked	1	7	0	0	300	300	0	0	515	50	0	1	0	0	0	1	blank2r.bmp	0	1	+	0	4	B4r.bmp	492	1	blank2r.bmp	786	1	B1r.bmp	786	1	blank2r.bmp	866	4	loyal	866	0	0	0	0	0	0	0	0	0	0	0	0	0	0	0	0	0	0	0	0	0	0	0	0	0	0	0	0	0	0	0	0	0
031419	10:34:48	10:35:58	69637	5.0.10.0	4_exp_EVA_AMP_AWA_CON	162	Rpleas_acq	Same	Rpleas	Bmasked	CS_B	2pleas	distractor1	EVAbeforeCON	acq_US_pleas_masked	acq1_masked	1	8	0	0	300	300	0	0	420	50	0	1	0	0	0	1	blank2r.bmp	0	1	+	0	6	C2r.bmp	492	1	blank2r.bmp	786	1	GKQX	786	1	blank2r.bmp	866	5	freundlich	866	0	0	0	0	0	0	0	0	0	0	0	0	0	0	0	0	0	0	0	0	0	0	0	0	0	0	0	0	0	0	0	0	0
031419	10:34:48	10:36:00	71663	5.0.10.0	4_exp_EVA_AMP_AWA_CON	162	Rpleas_acq	Same	Rpleas	Bmasked	CS_B	2pleas	distractor1	EVAbeforeCON	acq_new_unple_masked	acq1_masked	1	9	0	0	300	300	0	0	538	46	0	1	0	0	0	1	blank2r.bmp	0	1	+	0	8	C4r.bmp	492	1	blank2r.bmp	786	2	B2r.bmp	786	1	blank2r.bmp	866	3	rächen	866	0	0	0	0	0	0	0	0	0	0	0	0	0	0	0	0	0	0	0	0	0	0	0	0	0	0	0	0	0	0	0	0	0
031419	10:34:48	10:36:02	73609	5.0.10.0	4_exp_EVA_AMP_AWA_CON	162	Rpleas_acq	Same	Rpleas	Bmasked	CS_B	2pleas	distractor1	EVAbeforeCON	acq_new_pleas_masked	acq1_masked	1	10	0	0	300	300	0	0	467	50	0	1	0	0	0	1	blank2r.bmp	0	1	+	0	5	C1r.bmp	492	1	blank2r.bmp	786	3	B3r.bmp	786	1	blank2r.bmp	866	2	schlau	866	0	0	0	0	0	0	0	0	0	0	0	0	0	0	0	0	0	0	0	0	0	0	0	0	0	0	0	0	0	0	0	0	0
031419	10:34:48	10:36:04	75675	5.0.10.0	4_exp_EVA_AMP_AWA_CON	162	Rpleas_acq	Same	Rpleas	Bmasked	CS_B	2pleas	distractor1	EVAbeforeCON	acq_US_unple_masked	acq1_masked	1	11	0	0	300	300	0	0	584	46	0	1	0	0	0	1	blank2r.bmp	0	1	+	0	3	B3r.bmp	492	1	blank2r.bmp	786	1	BMVZ	786	1	blank2r.bmp	866	6	leiden	866	0	0	0	0	0	0	0	0	0	0	0	0	0	0	0	0	0	0	0	0	0	0	0	0	0	0	0	0	0	0	0	0	0
031419	10:34:48	10:36:06	77661	5.0.10.0	4_exp_EVA_AMP_AWA_CON	162	Rpleas_acq	Same	Rpleas	Bmasked	CS_B	2pleas	distractor1	EVAbeforeCON	acq_US_unple_masked	acq1_masked	1	12	0	0	300	300	0	0	497	46	0	1	0	0	0	1	blank2r.bmp	0	1	+	0	2	B2r.bmp	492	1	blank2r.bmp	786	1	BMVZ	786	1	blank2r.bmp	866	3	faul	866	0	0	0	0	0	0	0	0	0	0	0	0	0	0	0	0	0	0	0	0	0	0	0	0	0	0	0	0	0	0	0	0	0
031419	10:34:48	10:36:08	79686	5.0.10.0	4_exp_EVA_AMP_AWA_CON	162	Rpleas_acq	Same	Rpleas	Bmasked	CS_B	2pleas	distractor1	EVAbeforeCON	acq_new_unple_masked	acq1_masked	1	13	0	0	300	300	0	0	543	46	0	1	0	0	0	1	blank2r.bmp	0	1	+	0	7	C3r.bmp	492	1	blank2r.bmp	786	6	C2r.bmp	786	1	blank2r.bmp	866	1	strafen	866	0	0	0	0	0	0	0	0	0	0	0	0	0	0	0	0	0	0	0	0	0	0	0	0	0	0	0	0	0	0	0	0	0
031419	10:34:48	10:36:10	81606	5.0.10.0	4_exp_EVA_AMP_AWA_CON	162	Rpleas_acq	Same	Rpleas	Bmasked	CS_B	2pleas	distractor1	EVAbeforeCON	acq_US_pleas_masked	acq1_masked	1	14	0	0	300	300	0	0	433	50	0	1	0	0	0	1	blank2r.bmp	0	1	+	0	1	B1r.bmp	492	1	blank2r.bmp	786	1	GKQX	786	1	blank2r.bmp	866	3	fair	866	0	0	0	0	0	0	0	0	0	0	0	0	0	0	0	0	0	0	0	0	0	0	0	0	0	0	0	0	0	0	0	0	0
031419	10:34:48	10:36:12	83578	5.0.10.0	4_exp_EVA_AMP_AWA_CON	162	Rpleas_acq	Same	Rpleas	Bmasked	CS_B	2pleas	distractor1	EVAbeforeCON	acq_new_pleas_masked	acq1_masked	1	15	0	0	300	300	0	0	482	50	0	1	0	0	0	1	blank2r.bmp	0	1	+	0	6	C2r.bmp	492	1	blank2r.bmp	786	8	C4r.bmp	786	1	blank2r.bmp	866	5	treu	866	0	0	0	0	0	0	0	0	0	0	0	0	0	0	0	0	0	0	0	0	0	0	0	0	0	0	0	0	0	0	0	0	0
031419	10:34:48	10:36:14	85604	5.0.10.0	4_exp_EVA_AMP_AWA_CON	162	Rpleas_acq	Same	Rpleas	Bmasked	CS_B	2pleas	distractor1	EVAbeforeCON	acq_new_unple_masked	acq1_masked	1	16	0	0	300	300	0	0	553	46	0	1	0	0	0	1	blank2r.bmp	0	1	+	0	4	B4r.bmp	492	1	blank2r.bmp	786	6	C2r.bmp	786	1	blank2r.bmp	866	5	tot	866	0	0	0	0	0	0	0	0	0	0	0	0	0	0	0	0	0	0	0	0	0	0	0	0	0	0	0	0	0	0	0	0	0
031419	10:34:48	10:36:17	87976	5.0.10.0	4_exp_EVA_AMP_AWA_CON	162	Rpleas_acq	Same	Rpleas	Bmasked	CS_B	2pleas	distractor1	EVAbeforeCON	acq_new_unple_masked	acq1_masked	1	17	0	0	300	300	0	0	666	50	0	0	0	0	0	1	blank2r.bmp	0	1	+	0	2	B2r.bmp	492	1	blank2r.bmp	786	4	B4r.bmp	786	1	blank2r.bmp	866	6	eitel	866	1	FEHLER	1572	0	0	0	0	0	0	0	0	0	0	0	0	0	0	0	0	0	0	0	0	0	0	0	0	0	0	0	0	0	0
031419	10:34:48	10:36:18	89842	5.0.10.0	4_exp_EVA_AMP_AWA_CON	162	Rpleas_acq	Same	Rpleas	Bmasked	CS_B	2pleas	distractor1	EVAbeforeCON	acq_US_pleas_masked	acq1_masked	1	18	0	0	300	300	0	0	598	50	0	1	0	0	0	1	blank2r.bmp	0	1	+	0	8	C4r.bmp	492	1	blank2r.bmp	786	1	GKQX	786	1	blank2r.bmp	866	6	lachen	866	0	0	0	0	0	0	0	0	0	0	0	0	0	0	0	0	0	0	0	0	0	0	0	0	0	0	0	0	0	0	0	0	0
031419	10:34:48	10:36:20	91815	5.0.10.0	4_exp_EVA_AMP_AWA_CON	162	Rpleas_acq	Same	Rpleas	Bmasked	CS_B	2pleas	distractor1	EVAbeforeCON	acq_US_unple_masked	acq1_masked	1	19	0	0	300	300	0	0	494	46	0	1	0	0	0	1	blank2r.bmp	0	1	+	0	1	B1r.bmp	492	1	blank2r.bmp	786	1	BMVZ	786	1	blank2r.bmp	866	1	tyrannisch	866	0	0	0	0	0	0	0	0	0	0	0	0	0	0	0	0	0	0	0	0	0	0	0	0	0	0	0	0	0	0	0	0	0
031419	10:34:48	10:36:22	93841	5.0.10.0	4_exp_EVA_AMP_AWA_CON	162	Rpleas_acq	Same	Rpleas	Bmasked	CS_B	2pleas	distractor1	EVAbeforeCON	acq_US_unple_masked	acq1_masked	1	20	0	0	300	300	0	0	545	46	0	1	0	0	0	1	blank2r.bmp	0	1	+	0	6	C2r.bmp	492	1	blank2r.bmp	786	1	BMVZ	786	1	blank2r.bmp	866	5	fanatisch	866	0	0	0	0	0	0	0	0	0	0	0	0	0	0	0	0	0	0	0	0	0	0	0	0	0	0	0	0	0	0	0	0	0
031419	10:34:48	10:36:24	95773	5.0.10.0	4_exp_EVA_AMP_AWA_CON	162	Rpleas_acq	Same	Rpleas	Bmasked	CS_B	2pleas	distractor1	EVAbeforeCON	acq_US_pleas_masked	acq1_masked	1	21	0	0	300	300	0	0	440	50	0	1	0	0	0	1	blank2r.bmp	0	1	+	0	4	B4r.bmp	492	1	blank2r.bmp	786	1	GKQX	786	1	blank2r.bmp	866	4	helfen	866	0	0	0	0	0	0	0	0	0	0	0	0	0	0	0	0	0	0	0	0	0	0	0	0	0	0	0	0	0	0	0	0	0
031419	10:34:48	10:36:26	97732	5.0.10.0	4_exp_EVA_AMP_AWA_CON	162	Rpleas_acq	Same	Rpleas	Bmasked	CS_B	2pleas	distractor1	EVAbeforeCON	acq_new_pleas_masked	acq1_masked	1	22	0	0	300	300	0	0	470	50	0	1	0	0	0	1	blank2r.bmp	0	1	+	0	5	C1r.bmp	492	1	blank2r.bmp	786	3	B3r.bmp	786	1	blank2r.bmp	866	6	ehrlich	866	0	0	0	0	0	0	0	0	0	0	0	0	0	0	0	0	0	0	0	0	0	0	0	0	0	0	0	0	0	0	0	0	0
031419	10:34:48	10:36:29	100185	5.0.10.0	4_exp_EVA_AMP_AWA_CON	162	Rpleas_acq	Same	Rpleas	Bmasked	CS_B	2pleas	distractor1	EVAbeforeCON	acq_new_pleas_masked	acq1_masked	1	23	0	0	300	300	0	0	978	50	0	1	0	0	0	1	blank2r.bmp	0	1	+	0	3	B3r.bmp	492	1	blank2r.bmp	786	5	C1r.bmp	786	1	blank2r.bmp	866	1	spielen	866	0	0	0	0	0	0	0	0	0	0	0	0	0	0	0	0	0	0	0	0	0	0	0	0	0	0	0	0	0	0	0	0	0
031419	10:34:48	10:36:31	102130	5.0.10.0	4_exp_EVA_AMP_AWA_CON	162	Rpleas_acq	Same	Rpleas	Bmasked	CS_B	2pleas	distractor1	EVAbeforeCON	acq_US_unple_masked	acq1_masked	1	24	0	0	300	300	0	0	460	46	0	1	0	0	0	1	blank2r.bmp	0	1	+	0	7	C3r.bmp	492	1	blank2r.bmp	786	1	BMVZ	786	1	blank2r.bmp	866	2	schlecht	866	0	0	0	0	0	0	0	0	0	0	0	0	0	0	0	0	0	0	0	0	0	0	0	0	0	0	0	0	0	0	0	0	0
031419	10:34:48	10:36:33	104156	5.0.10.0	4_exp_EVA_AMP_AWA_CON	162	Rpleas_acq	Same	Rpleas	Bmasked	CS_B	2pleas	distractor1	EVAbeforeCON	acq_US_unple_masked	acq1_masked	1	25	0	0	300	300	0	0	550	46	0	1	0	0	0	1	blank2r.bmp	0	1	+	0	8	C4r.bmp	492	1	blank2r.bmp	786	1	BMVZ	786	1	blank2r.bmp	866	5	fanatisch	866	0	0	0	0	0	0	0	0	0	0	0	0	0	0	0	0	0	0	0	0	0	0	0	0	0	0	0	0	0	0	0	0	0
031419	10:34:48	10:36:35	106089	5.0.10.0	4_exp_EVA_AMP_AWA_CON	162	Rpleas_acq	Same	Rpleas	Bmasked	CS_B	2pleas	distractor1	EVAbeforeCON	acq_US_unple_masked	acq1_masked	1	26	0	0	300	300	0	0	454	46	0	1	0	0	0	1	blank2r.bmp	0	1	+	0	3	B3r.bmp	492	1	blank2r.bmp	786	1	BMVZ	786	1	blank2r.bmp	866	1	tyrannisch	866	0	0	0	0	0	0	0	0	0	0	0	0	0	0	0	0	0	0	0	0	0	0	0	0	0	0	0	0	0	0	0	0	0
031419	10:34:48	10:36:37	108008	5.0.10.0	4_exp_EVA_AMP_AWA_CON	162	Rpleas_acq	Same	Rpleas	Bmasked	CS_B	2pleas	distractor1	EVAbeforeCON	acq_US_pleas_masked	acq1_masked	1	27	0	0	300	300	0	0	438	50	0	1	0	0	0	1	blank2r.bmp	0	1	+	0	5	C1r.bmp	492	1	blank2r.bmp	786	1	GKQX	786	1	blank2r.bmp	866	2	schön	866	0	0	0	0	0	0	0	0	0	0	0	0	0	0	0	0	0	0	0	0	0	0	0	0	0	0	0	0	0	0	0	0	0
031419	10:34:48	10:36:39	109994	5.0.10.0	4_exp_EVA_AMP_AWA_CON	162	Rpleas_acq	Same	Rpleas	Bmasked	CS_B	2pleas	distractor1	EVAbeforeCON	acq_new_unple_masked	acq1_masked	1	28	0	0	300	300	0	0	514	46	0	1	0	0	0	1	blank2r.bmp	0	1	+	0	2	B2r.bmp	492	1	blank2r.bmp	786	1	B1r.bmp	786	1	blank2r.bmp	866	2	schroff	866	0	0	0	0	0	0	0	0	0	0	0	0	0	0	0	0	0	0	0	0	0	0	0	0	0	0	0	0	0	0	0	0	0
031419	10:34:48	10:36:41	112086	5.0.10.0	4_exp_EVA_AMP_AWA_CON	162	Rpleas_acq	Same	Rpleas	Bmasked	CS_B	2pleas	distractor1	EVAbeforeCON	acq_new_unple_masked	acq1_masked	1	29	0	0	300	300	0	0	610	46	0	1	0	0	0	1	blank2r.bmp	0	1	+	0	7	C3r.bmp	492	1	blank2r.bmp	786	8	C4r.bmp	786	1	blank2r.bmp	866	3	rächen	866	0	0	0	0	0	0	0	0	0	0	0	0	0	0	0	0	0	0	0	0	0	0	0	0	0	0	0	0	0	0	0	0	0
031419	10:34:48	10:36:43	114152	5.0.10.0	4_exp_EVA_AMP_AWA_CON	162	Rpleas_acq	Same	Rpleas	Bmasked	CS_B	2pleas	distractor1	EVAbeforeCON	acq_new_pleas_masked	acq1_masked	1	30	0	0	300	300	0	0	579	50	0	1	0	0	0	1	blank2r.bmp	0	1	+	0	4	B4r.bmp	492	1	blank2r.bmp	786	2	B2r.bmp	786	1	blank2r.bmp	866	3	retten	866	0	0	0	0	0	0	0	0	0	0	0	0	0	0	0	0	0	0	0	0	0	0	0	0	0	0	0	0	0	0	0	0	0
031419	10:34:48	10:36:45	116125	5.0.10.0	4_exp_EVA_AMP_AWA_CON	162	Rpleas_acq	Same	Rpleas	Bmasked	CS_B	2pleas	distractor1	EVAbeforeCON	acq_US_unple_masked	acq1_masked	1	31	0	0	300	300	0	0	479	46	0	1	0	0	0	1	blank2r.bmp	0	1	+	0	1	B1r.bmp	492	1	blank2r.bmp	786	1	BMVZ	786	1	blank2r.bmp	866	2	schlecht	866	0	0	0	0	0	0	0	0	0	0	0	0	0	0	0	0	0	0	0	0	0	0	0	0	0	0	0	0	0	0	0	0	0
031419	10:34:48	10:36:47	118230	5.0.10.0	4_exp_EVA_AMP_AWA_CON	162	Rpleas_acq	Same	Rpleas	Bmasked	CS_B	2pleas	distractor1	EVAbeforeCON	acq_new_pleas_masked	acq1_masked	1	32	0	0	300	300	0	0	629	50	0	1	0	0	0	1	blank2r.bmp	0	1	+	0	6	C2r.bmp	492	1	blank2r.bmp	786	7	C3r.bmp	786	1	blank2r.bmp	866	5	treu	866	0	0	0	0	0	0	0	0	0	0	0	0	0	0	0	0	0	0	0	0	0	0	0	0	0	0	0	0	0	0	0	0	0
031419	10:34:48	10:36:49	120310	5.0.10.0	4_exp_EVA_AMP_AWA_CON	162	Rpleas_acq	Same	Rpleas	Bmasked	CS_B	2pleas	distractor1	EVAbeforeCON	acq_new_pleas_masked	acq1_masked	1	33	0	0	300	300	0	0	611	50	0	1	0	0	0	1	blank2r.bmp	0	1	+	0	7	C3r.bmp	492	1	blank2r.bmp	786	2	B2r.bmp	786	1	blank2r.bmp	866	6	ehrlich	866	0	0	0	0	0	0	0	0	0	0	0	0	0	0	0	0	0	0	0	0	0	0	0	0	0	0	0	0	0	0	0	0	0
031419	10:34:48	10:36:51	122335	5.0.10.0	4_exp_EVA_AMP_AWA_CON	162	Rpleas_acq	Same	Rpleas	Bmasked	CS_B	2pleas	distractor1	EVAbeforeCON	acq_US_pleas_masked	acq1_masked	1	34	0	0	300	300	0	0	541	50	0	1	0	0	0	1	blank2r.bmp	0	1	+	0	1	B1r.bmp	492	1	blank2r.bmp	786	1	GKQX	786	1	blank2r.bmp	866	6	lachen	866	0	0	0	0	0	0	0	0	0	0	0	0	0	0	0	0	0	0	0	0	0	0	0	0	0	0	0	0	0	0	0	0	0
031419	10:34:48	10:36:53	124548	5.0.10.0	4_exp_EVA_AMP_AWA_CON	162	Rpleas_acq	Same	Rpleas	Bmasked	CS_B	2pleas	distractor1	EVAbeforeCON	acq_new_unple_masked	acq1_masked	1	35	0	0	300	300	0	0	721	46	0	1	0	0	0	1	blank2r.bmp	0	1	+	0	4	B4r.bmp	492	1	blank2r.bmp	786	8	C4r.bmp	786	1	blank2r.bmp	866	1	strafen	866	0	0	0	0	0	0	0	0	0	0	0	0	0	0	0	0	0	0	0	0	0	0	0	0	0	0	0	0	0	0	0	0	0
031419	10:34:48	10:36:55	126480	5.0.10.0	4_exp_EVA_AMP_AWA_CON	162	Rpleas_acq	Same	Rpleas	Bmasked	CS_B	2pleas	distractor1	EVAbeforeCON	acq_US_pleas_masked	acq1_masked	1	36	0	0	300	300	0	0	459	50	0	1	0	0	0	1	blank2r.bmp	0	1	+	0	3	B3r.bmp	492	1	blank2r.bmp	786	1	GKQX	786	1	blank2r.bmp	866	5	freundlich	866	0	0	0	0	0	0	0	0	0	0	0	0	0	0	0	0	0	0	0	0	0	0	0	0	0	0	0	0	0	0	0	0	0
031419	10:34:48	10:37:26	157601	5.0.10.0	4_exp_EVA_AMP_AWA_CON	162	Rpleas_acq	Same	Rpleas	Bmasked	CS_B	2pleas	distractor1	EVAbeforeCON	acq_US_pleas_masked	acq2_masked	2	1	480	1	300	300	0	0	505	50	0	1	0	0	0	1	blank2r.bmp	0	1	+	0	2	B2r.bmp	492	1	blank2r.bmp	786	1	GKQX	786	1	blank2r.bmp	866	3	fair	866	1	!	1319	1	!	1412	0	0	0	0	0	0	0	0	0	0	0	0	0	0	0	0	0	0	0	0	0	0	0	0	0	0	0
031419	10:34:48	10:37:30	161213	5.0.10.0	4_exp_EVA_AMP_AWA_CON	162	Rpleas_acq	Same	Rpleas	Bmasked	CS_B	2pleas	distractor1	EVAbeforeCON	acq_new_unple_masked	acq2_masked	2	2	480	0	300	300	0	0	1844	46	0	1	0	0	0	1	blank2r.bmp	0	1	+	0	6	C2r.bmp	492	1	blank2r.bmp	786	1	B1r.bmp	786	1	blank2r.bmp	866	5	tot	866	1	!	1319	1	!	-1	0	0	0	0	0	0	0	0	0	0	0	0	0	0	0	0	0	0	0	0	0	0	0	0	0	0	0
031419	10:34:48	10:37:32	163585	5.0.10.0	4_exp_EVA_AMP_AWA_CON	162	Rpleas_acq	Same	Rpleas	Bmasked	CS_B	2pleas	distractor1	EVAbeforeCON	acq_US_pleas_masked	acq2_masked	2	3	480	0	300	300	0	0	585	50	0	1	0	0	0	1	blank2r.bmp	0	1	+	0	5	C1r.bmp	492	1	blank2r.bmp	786	1	GKQX	786	1	blank2r.bmp	866	4	helfen	866	1	!	1319	1	!	-1	0	0	0	0	0	0	0	0	0	0	0	0	0	0	0	0	0	0	0	0	0	0	0	0	0	0	0
031419	10:34:48	10:37:34	165784	5.0.10.0	4_exp_EVA_AMP_AWA_CON	162	Rpleas_acq	Same	Rpleas	Bmasked	CS_B	2pleas	distractor1	EVAbeforeCON	acq_US_unple_masked	acq2_masked	2	4	480	0	300	300	0	0	412	46	0	1	0	0	0	1	blank2r.bmp	0	1	+	0	8	C4r.bmp	492	1	blank2r.bmp	786	1	BMVZ	786	1	blank2r.bmp	866	4	hindern	866	1	!	-1	1	!	-1	0	0	0	0	0	0	0	0	0	0	0	0	0	0	0	0	0	0	0	0	0	0	0	0	0	0	0
031419	10:34:48	10:37:37	167970	5.0.10.0	4_exp_EVA_AMP_AWA_CON	162	Rpleas_acq	Same	Rpleas	Bmasked	CS_B	2pleas	distractor1	EVAbeforeCON	acq_new_unple_masked	acq2_masked	2	5	480	0	300	300	0	0	400	46	0	1	0	0	0	1	blank2r.bmp	0	1	+	0	4	B4r.bmp	492	1	blank2r.bmp	786	5	C1r.bmp	786	1	blank2r.bmp	866	4	lasch	866	1	!	-1	1	!	-1	0	0	0	0	0	0	0	0	0	0	0	0	0	0	0	0	0	0	0	0	0	0	0	0	0	0	0
031419	10:34:48	10:37:39	170622	5.0.10.0	4_exp_EVA_AMP_AWA_CON	162	Rpleas_acq	Same	Rpleas	Bmasked	CS_B	2pleas	distractor1	EVAbeforeCON	acq_new_unple_masked	acq2_masked	2	6	480	0	300	300	0	0	645	50	0	0	0	0	0	1	blank2r.bmp	0	1	+	0	3	B3r.bmp	492	1	blank2r.bmp	786	4	B4r.bmp	786	1	blank2r.bmp	866	6	eitel	866	1	FEHLER	1852	1	!	1319	1	!	-1	0	0	0	0	0	0	0	0	0	0	0	0	0	0	0	0	0	0	0	0	0	0	0	0
031419	10:34:48	10:37:41	172701	5.0.10.0	4_exp_EVA_AMP_AWA_CON	162	Rpleas_acq	Same	Rpleas	Bmasked	CS_B	2pleas	distractor1	EVAbeforeCON	acq_new_pleas_masked	acq2_masked	2	7	480	1	300	300	0	0	495	50	0	1	0	0	0	1	blank2r.bmp	0	1	+	0	8	C4r.bmp	492	1	blank2r.bmp	786	6	C2r.bmp	786	1	blank2r.bmp	866	4	loyal	866	1	!	1319	1	!	1399	0	0	0	0	0	0	0	0	0	0	0	0	0	0	0	0	0	0	0	0	0	0	0	0	0	0	0
031419	10:34:48	10:37:44	174967	5.0.10.0	4_exp_EVA_AMP_AWA_CON	162	Rpleas_acq	Same	Rpleas	Bmasked	CS_B	2pleas	distractor1	EVAbeforeCON	acq_US_unple_masked	acq2_masked	2	8	480	1	300	300	0	0	468	46	0	1	0	0	0	1	blank2r.bmp	0	1	+	0	2	B2r.bmp	492	1	blank2r.bmp	786	1	BMVZ	786	1	blank2r.bmp	866	6	leiden	866	1	!	1319	1	!	1372	0	0	0	0	0	0	0	0	0	0	0	0	0	0	0	0	0	0	0	0	0	0	0	0	0	0	0
031419	10:34:48	10:37:46	177100	5.0.10.0	4_exp_EVA_AMP_AWA_CON	162	Rpleas_acq	Same	Rpleas	Bmasked	CS_B	2pleas	distractor1	EVAbeforeCON	acq_new_pleas_masked	acq2_masked	2	9	480	0	300	300	0	0	369	50	0	1	0	0	0	1	blank2r.bmp	0	1	+	0	1	B1r.bmp	492	1	blank2r.bmp	786	3	B3r.bmp	786	1	blank2r.bmp	866	1	spielen	866	1	!	-1	1	!	-1	0	0	0	0	0	0	0	0	0	0	0	0	0	0	0	0	0	0	0	0	0	0	0	0	0	0	0
031419	10:34:48	10:37:48	179552	5.0.10.0	4_exp_EVA_AMP_AWA_CON	162	Rpleas_acq	Same	Rpleas	Bmasked	CS_B	2pleas	distractor1	EVAbeforeCON	acq_new_pleas_masked	acq2_masked	2	10	480	0	300	300	0	0	657	50	0	1	0	0	0	1	blank2r.bmp	0	1	+	0	7	C3r.bmp	492	1	blank2r.bmp	786	7	C3r.bmp	786	1	blank2r.bmp	866	2	schlau	866	1	!	1319	1	!	-1	0	0	0	0	0	0	0	0	0	0	0	0	0	0	0	0	0	0	0	0	0	0	0	0	0	0	0
031419	10:34:48	10:37:50	181724	5.0.10.0	4_exp_EVA_AMP_AWA_CON	162	Rpleas_acq	Same	Rpleas	Bmasked	CS_B	2pleas	distractor1	EVAbeforeCON	acq_US_unple_masked	acq2_masked	2	11	480	0	300	300	0	0	393	46	0	1	0	0	0	1	blank2r.bmp	0	1	+	0	6	C2r.bmp	492	1	blank2r.bmp	786	1	BMVZ	786	1	blank2r.bmp	866	3	faul	866	1	!	-1	1	!	-1	0	0	0	0	0	0	0	0	0	0	0	0	0	0	0	0	0	0	0	0	0	0	0	0	0	0	0
031419	10:34:48	10:37:53	184097	5.0.10.0	4_exp_EVA_AMP_AWA_CON	162	Rpleas_acq	Same	Rpleas	Bmasked	CS_B	2pleas	distractor1	EVAbeforeCON	acq_US_pleas_masked	acq2_masked	2	12	480	0	300	300	0	0	585	50	0	1	0	0	0	1	blank2r.bmp	0	1	+	0	5	C1r.bmp	492	1	blank2r.bmp	786	1	GKQX	786	1	blank2r.bmp	866	1	tolerant	866	1	!	1319	1	!	-1	0	0	0	0	0	0	0	0	0	0	0	0	0	0	0	0	0	0	0	0	0	0	0	0	0	0	0
031419	10:34:48	10:37:55	186442	5.0.10.0	4_exp_EVA_AMP_AWA_CON	162	Rpleas_acq	Same	Rpleas	Bmasked	CS_B	2pleas	distractor1	EVAbeforeCON	acq_new_unple_masked	acq2_masked	2	13	480	0	300	300	0	0	562	46	0	1	0	0	0	1	blank2r.bmp	0	1	+	0	8	C4r.bmp	492	1	blank2r.bmp	786	1	B1r.bmp	786	1	blank2r.bmp	866	4	lasch	866	1	!	1319	1	!	-1	0	0	0	0	0	0	0	0	0	0	0	0	0	0	0	0	0	0	0	0	0	0	0	0	0	0	0
031419	10:34:48	10:37:58	188988	5.0.10.0	4_exp_EVA_AMP_AWA_CON	162	Rpleas_acq	Same	Rpleas	Bmasked	CS_B	2pleas	distractor1	EVAbeforeCON	acq_US_unple_masked	acq2_masked	2	14	480	1	300	300	0	0	518	50	0	0	0	0	0	1	blank2r.bmp	0	1	+	0	5	C1r.bmp	492	1	blank2r.bmp	786	1	BMVZ	786	1	blank2r.bmp	866	5	fanatisch	866	1	FEHLER	1745	1	!	1319	1	!	1426	0	0	0	0	0	0	0	0	0	0	0	0	0	0	0	0	0	0	0	0	0	0	0	0
031419	10:34:48	10:38:00	191160	5.0.10.0	4_exp_EVA_AMP_AWA_CON	162	Rpleas_acq	Same	Rpleas	Bmasked	CS_B	2pleas	distractor1	EVAbeforeCON	acq_new_pleas_masked	acq2_masked	2	15	480	0	300	300	0	0	395	46	0	0	0	0	0	1	blank2r.bmp	0	1	+	0	2	B2r.bmp	492	1	blank2r.bmp	786	3	B3r.bmp	786	1	blank2r.bmp	866	6	ehrlich	866	1	FEHLER	1599	1	!	-1	1	!	-1	0	0	0	0	0	0	0	0	0	0	0	0	0	0	0	0	0	0	0	0	0	0	0	0
031419	10:34:48	10:38:02	193200	5.0.10.0	4_exp_EVA_AMP_AWA_CON	162	Rpleas_acq	Same	Rpleas	Bmasked	CS_B	2pleas	distractor1	EVAbeforeCON	acq_US_pleas_masked	acq2_masked	2	16	480	1	300	300	0	0	464	50	0	1	0	0	0	1	blank2r.bmp	0	1	+	0	7	C3r.bmp	492	1	blank2r.bmp	786	1	GKQX	786	1	blank2r.bmp	866	3	fair	866	1	!	1319	1	!	1359	0	0	0	0	0	0	0	0	0	0	0	0	0	0	0	0	0	0	0	0	0	0	0	0	0	0	0
031419	10:34:48	10:38:04	195559	5.0.10.0	4_exp_EVA_AMP_AWA_CON	162	Rpleas_acq	Same	Rpleas	Bmasked	CS_B	2pleas	distractor1	EVAbeforeCON	acq_new_pleas_masked	acq2_masked	2	17	480	0	300	300	0	0	592	50	0	1	0	0	0	1	blank2r.bmp	0	1	+	0	4	B4r.bmp	492	1	blank2r.bmp	786	8	C4r.bmp	786	1	blank2r.bmp	866	5	treu	866	1	!	1319	1	!	-1	0	0	0	0	0	0	0	0	0	0	0	0	0	0	0	0	0	0	0	0	0	0	0	0	0	0	0
031419	10:34:48	10:38:07	197971	5.0.10.0	4_exp_EVA_AMP_AWA_CON	162	Rpleas_acq	Same	Rpleas	Bmasked	CS_B	2pleas	distractor1	EVAbeforeCON	acq_US_unple_masked	acq2_masked	2	18	480	0	300	300	0	0	632	46	0	1	0	0	0	1	blank2r.bmp	0	1	+	0	1	B1r.bmp	492	1	blank2r.bmp	786	1	BMVZ	786	1	blank2r.bmp	866	4	hindern	866	1	!	1319	1	!	-1	0	0	0	0	0	0	0	0	0	0	0	0	0	0	0	0	0	0	0	0	0	0	0	0	0	0	0
031419	10:34:48	10:38:09	200077	5.0.10.0	4_exp_EVA_AMP_AWA_CON	162	Rpleas_acq	Same	Rpleas	Bmasked	CS_B	2pleas	distractor1	EVAbeforeCON	acq_US_pleas_masked	acq2_masked	2	19	480	0	300	300	0	0	326	50	0	1	0	0	0	1	blank2r.bmp	0	1	+	0	6	C2r.bmp	492	1	blank2r.bmp	786	1	GKQX	786	1	blank2r.bmp	866	5	freundlich	866	1	!	-1	1	!	-1	0	0	0	0	0	0	0	0	0	0	0	0	0	0	0	0	0	0	0	0	0	0	0	0	0	0	0
031419	10:34:48	10:38:11	202516	5.0.10.0	4_exp_EVA_AMP_AWA_CON	162	Rpleas_acq	Same	Rpleas	Bmasked	CS_B	2pleas	distractor1	EVAbeforeCON	acq_new_unple_masked	acq2_masked	2	20	480	0	300	300	0	0	657	46	0	1	0	0	0	1	blank2r.bmp	0	1	+	0	3	B3r.bmp	492	1	blank2r.bmp	786	6	C2r.bmp	786	1	blank2r.bmp	866	6	eitel	866	1	!	1319	1	!	-1	0	0	0	0	0	0	0	0	0	0	0	0	0	0	0	0	0	0	0	0	0	0	0	0	0	0	0
031419	10:34:48	10:38:13	204768	5.0.10.0	4_exp_EVA_AMP_AWA_CON	162	Rpleas_acq	Same	Rpleas	Bmasked	CS_B	2pleas	distractor1	EVAbeforeCON	acq_new_pleas_masked	acq2_masked	2	21	480	1	300	300	0	0	451	50	0	1	0	0	0	1	blank2r.bmp	0	1	+	0	2	B2r.bmp	492	1	blank2r.bmp	786	4	B4r.bmp	786	1	blank2r.bmp	866	4	loyal	866	1	!	1319	1	!	1346	0	0	0	0	0	0	0	0	0	0	0	0	0	0	0	0	0	0	0	0	0	0	0	0	0	0	0
031419	10:34:48	10:38:16	206914	5.0.10.0	4_exp_EVA_AMP_AWA_CON	162	Rpleas_acq	Same	Rpleas	Bmasked	CS_B	2pleas	distractor1	EVAbeforeCON	acq_US_pleas_masked	acq2_masked	2	22	480	0	300	300	0	0	384	50	0	1	0	0	0	1	blank2r.bmp	0	1	+	0	7	C3r.bmp	492	1	blank2r.bmp	786	1	GKQX	786	1	blank2r.bmp	866	6	lachen	866	1	!	-1	1	!	-1	0	0	0	0	0	0	0	0	0	0	0	0	0	0	0	0	0	0	0	0	0	0	0	0	0	0	0
031419	10:34:48	10:38:18	209300	5.0.10.0	4_exp_EVA_AMP_AWA_CON	162	Rpleas_acq	Same	Rpleas	Bmasked	CS_B	2pleas	distractor1	EVAbeforeCON	acq_new_unple_masked	acq2_masked	2	23	480	0	300	300	0	0	610	46	0	1	0	0	0	1	blank2r.bmp	0	1	+	0	5	C1r.bmp	492	1	blank2r.bmp	786	7	C3r.bmp	786	1	blank2r.bmp	866	5	tot	866	1	!	1319	1	!	-1	0	0	0	0	0	0	0	0	0	0	0	0	0	0	0	0	0	0	0	0	0	0	0	0	0	0	0
031419	10:34:48	10:38:20	211672	5.0.10.0	4_exp_EVA_AMP_AWA_CON	162	Rpleas_acq	Same	Rpleas	Bmasked	CS_B	2pleas	distractor1	EVAbeforeCON	acq_US_unple_masked	acq2_masked	2	24	480	0	300	300	0	0	587	46	0	1	0	0	0	1	blank2r.bmp	0	1	+	0	6	C2r.bmp	492	1	blank2r.bmp	786	1	BMVZ	786	1	blank2r.bmp	866	1	tyrannisch	866	1	!	1319	1	!	-1	0	0	0	0	0	0	0	0	0	0	0	0	0	0	0	0	0	0	0	0	0	0	0	0	0	0	0
031419	10:34:48	10:38:23	214044	5.0.10.0	4_exp_EVA_AMP_AWA_CON	162	Rpleas_acq	Same	Rpleas	Bmasked	CS_B	2pleas	distractor1	EVAbeforeCON	acq_US_unple_masked	acq2_masked	2	25	480	0	300	300	0	0	589	46	0	1	0	0	0	1	blank2r.bmp	0	1	+	0	3	B3r.bmp	492	1	blank2r.bmp	786	1	BMVZ	786	1	blank2r.bmp	866	3	faul	866	1	!	1319	1	!	-1	0	0	0	0	0	0	0	0	0	0	0	0	0	0	0	0	0	0	0	0	0	0	0	0	0	0	0
031419	10:34:48	10:38:25	216323	5.0.10.0	4_exp_EVA_AMP_AWA_CON	162	Rpleas_acq	Same	Rpleas	Bmasked	CS_B	2pleas	distractor1	EVAbeforeCON	acq_US_unple_masked	acq2_masked	2	26	480	1	300	300	0	0	467	46	0	1	0	0	0	1	blank2r.bmp	0	1	+	0	1	B1r.bmp	492	1	blank2r.bmp	786	1	BMVZ	786	1	blank2r.bmp	866	6	leiden	866	1	!	1319	1	!	1372	0	0	0	0	0	0	0	0	0	0	0	0	0	0	0	0	0	0	0	0	0	0	0	0	0	0	0
031419	10:34:48	10:38:27	218696	5.0.10.0	4_exp_EVA_AMP_AWA_CON	162	Rpleas_acq	Same	Rpleas	Bmasked	CS_B	2pleas	distractor1	EVAbeforeCON	acq_new_unple_masked	acq2_masked	2	27	480	0	300	300	0	0	372	50	0	0	0	0	0	1	blank2r.bmp	0	1	+	0	8	C4r.bmp	492	1	blank2r.bmp	786	2	B2r.bmp	786	1	blank2r.bmp	866	1	strafen	866	1	FEHLER	1586	1	!	-1	1	!	-1	0	0	0	0	0	0	0	0	0	0	0	0	0	0	0	0	0	0	0	0	0	0	0	0
031419	10:34:48	10:38:29	220762	5.0.10.0	4_exp_EVA_AMP_AWA_CON	162	Rpleas_acq	Same	Rpleas	Bmasked	CS_B	2pleas	distractor1	EVAbeforeCON	acq_new_unple_masked	acq2_masked	2	28	480	1	300	300	0	0	486	46	0	1	0	0	0	1	blank2r.bmp	0	1	+	0	4	B4r.bmp	492	1	blank2r.bmp	786	5	C1r.bmp	786	1	blank2r.bmp	866	3	rächen	866	1	!	1319	1	!	1386	0	0	0	0	0	0	0	0	0	0	0	0	0	0	0	0	0	0	0	0	0	0	0	0	0	0	0
031419	10:34:48	10:38:32	223107	5.0.10.0	4_exp_EVA_AMP_AWA_CON	162	Rpleas_acq	Same	Rpleas	Bmasked	CS_B	2pleas	distractor1	EVAbeforeCON	acq_new_pleas_masked	acq2_masked	2	29	480	1	300	300	0	0	537	50	0	1	0	0	0	1	blank2r.bmp	0	1	+	0	4	B4r.bmp	492	1	blank2r.bmp	786	7	C3r.bmp	786	1	blank2r.bmp	866	1	spielen	866	1	!	1319	1	!	1439	0	0	0	0	0	0	0	0	0	0	0	0	0	0	0	0	0	0	0	0	0	0	0	0	0	0	0
031419	10:34:48	10:38:34	225346	5.0.10.0	4_exp_EVA_AMP_AWA_CON	162	Rpleas_acq	Same	Rpleas	Bmasked	CS_B	2pleas	distractor1	EVAbeforeCON	acq_US_pleas_masked	acq2_masked	2	30	480	1	300	300	0	0	448	50	0	1	0	0	0	1	blank2r.bmp	0	1	+	0	5	C1r.bmp	492	1	blank2r.bmp	786	1	GKQX	786	1	blank2r.bmp	866	2	schön	866	1	!	1319	1	!	1346	0	0	0	0	0	0	0	0	0	0	0	0	0	0	0	0	0	0	0	0	0	0	0	0	0	0	0
031419	10:34:48	10:38:36	227692	5.0.10.0	4_exp_EVA_AMP_AWA_CON	162	Rpleas_acq	Same	Rpleas	Bmasked	CS_B	2pleas	distractor1	EVAbeforeCON	acq_new_pleas_masked	acq2_masked	2	31	480	0	300	300	0	0	575	50	0	1	0	0	0	1	blank2r.bmp	0	1	+	0	7	C3r.bmp	492	1	blank2r.bmp	786	4	B4r.bmp	786	1	blank2r.bmp	866	3	retten	866	1	!	1319	1	!	-1	0	0	0	0	0	0	0	0	0	0	0	0	0	0	0	0	0	0	0	0	0	0	0	0	0	0	0
031419	10:34:48	10:38:39	229891	5.0.10.0	4_exp_EVA_AMP_AWA_CON	162	Rpleas_acq	Same	Rpleas	Bmasked	CS_B	2pleas	distractor1	EVAbeforeCON	acq_new_pleas_masked	acq2_masked	2	32	480	0	300	300	0	0	399	50	0	1	0	0	0	1	blank2r.bmp	0	1	+	0	8	C4r.bmp	492	1	blank2r.bmp	786	3	B3r.bmp	786	1	blank2r.bmp	866	2	schlau	866	1	!	-1	1	!	-1	0	0	0	0	0	0	0	0	0	0	0	0	0	0	0	0	0	0	0	0	0	0	0	0	0	0	0
031419	10:34:48	10:38:41	232250	5.0.10.0	4_exp_EVA_AMP_AWA_CON	162	Rpleas_acq	Same	Rpleas	Bmasked	CS_B	2pleas	distractor1	EVAbeforeCON	acq_new_unple_masked	acq2_masked	2	33	480	0	300	300	0	0	562	46	0	1	0	0	0	1	blank2r.bmp	0	1	+	0	1	B1r.bmp	492	1	blank2r.bmp	786	6	C2r.bmp	786	1	blank2r.bmp	866	2	schroff	866	1	!	1319	1	!	-1	0	0	0	0	0	0	0	0	0	0	0	0	0	0	0	0	0	0	0	0	0	0	0	0	0	0	0
031419	10:34:48	10:38:43	234596	5.0.10.0	4_exp_EVA_AMP_AWA_CON	162	Rpleas_acq	Same	Rpleas	Bmasked	CS_B	2pleas	distractor1	EVAbeforeCON	acq_US_pleas_masked	acq2_masked	2	34	480	0	300	300	0	0	570	50	0	1	0	0	0	1	blank2r.bmp	0	1	+	0	6	C2r.bmp	492	1	blank2r.bmp	786	1	GKQX	786	1	blank2r.bmp	866	1	tolerant	866	1	!	1319	1	!	-1	0	0	0	0	0	0	0	0	0	0	0	0	0	0	0	0	0	0	0	0	0	0	0	0	0	0	0
031419	10:34:48	10:38:46	236968	5.0.10.0	4_exp_EVA_AMP_AWA_CON	162	Rpleas_acq	Same	Rpleas	Bmasked	CS_B	2pleas	distractor1	EVAbeforeCON	acq_US_pleas_masked	acq2_masked	2	35	480	0	300	300	0	0	365	46	0	0	0	0	0	1	blank2r.bmp	0	1	+	0	2	B2r.bmp	492	1	blank2r.bmp	786	1	GKQX	786	1	blank2r.bmp	866	4	helfen	866	1	FEHLER	1572	1	!	-1	1	!	-1	0	0	0	0	0	0	0	0	0	0	0	0	0	0	0	0	0	0	0	0	0	0	0	0
031419	10:34:48	10:38:48	239007	5.0.10.0	4_exp_EVA_AMP_AWA_CON	162	Rpleas_acq	Same	Rpleas	Bmasked	CS_B	2pleas	distractor1	EVAbeforeCON	acq_US_unple_masked	acq2_masked	2	36	480	1	300	300	0	0	461	46	0	1	0	0	0	1	blank2r.bmp	0	1	+	0	3	B3r.bmp	492	1	blank2r.bmp	786	1	BMVZ	786	1	blank2r.bmp	866	2	schlecht	866	1	!	1319	1	!	1359	0	0	0	0	0	0	0	0	0	0	0	0	0	0	0	0	0	0	0	0	0	0	0	0	0	0	0
031419	10:34:48	10:39:07	258573	5.0.10.0	4_exp_EVA_AMP_AWA_CON	162	Rpleas_acq	Same	Rpleas	Bmasked	CS_B	2pleas	distractor1	EVAbeforeCON	acq_US_pleas_masked	acq3_masked	3	1	453	1	300	300	0	0	399	46	0	0	0	0	0	1	blank2r.bmp	0	1	+	0	6	C2r.bmp	492	1	blank2r.bmp	786	1	GKQX	786	1	blank2r.bmp	866	4	helfen	866	1	FEHLER	1625	1	!	1292	1	!	1306	0	0	0	0	0	0	0	0	0	0	0	0	0	0	0	0	0	0	0	0	0	0	0	0
031419	10:34:48	10:39:09	260665	5.0.10.0	4_exp_EVA_AMP_AWA_CON	162	Rpleas_acq	Same	Rpleas	Bmasked	CS_B	2pleas	distractor1	EVAbeforeCON	acq_US_unple_masked	acq3_masked	3	2	453	0	300	300	0	0	535	46	0	1	0	0	0	1	blank2r.bmp	0	1	+	0	7	C3r.bmp	492	1	blank2r.bmp	786	1	BMVZ	786	1	blank2r.bmp	866	4	hindern	866	1	!	1292	1	!	-1	0	0	0	0	0	0	0	0	0	0	0	0	0	0	0	0	0	0	0	0	0	0	0	0	0	0	0
031419	10:34:48	10:39:12	262917	5.0.10.0	4_exp_EVA_AMP_AWA_CON	162	Rpleas_acq	Same	Rpleas	Bmasked	CS_B	2pleas	distractor1	EVAbeforeCON	acq_US_pleas_masked	acq3_masked	3	3	453	1	300	300	0	0	443	50	0	1	0	0	0	1	blank2r.bmp	0	1	+	0	5	C1r.bmp	492	1	blank2r.bmp	786	1	GKQX	786	1	blank2r.bmp	866	3	fair	866	1	!	1292	1	!	1346	0	0	0	0	0	0	0	0	0	0	0	0	0	0	0	0	0	0	0	0	0	0	0	0	0	0	0
031419	10:34:48	10:39:14	265156	5.0.10.0	4_exp_EVA_AMP_AWA_CON	162	Rpleas_acq	Same	Rpleas	Bmasked	CS_B	2pleas	distractor1	EVAbeforeCON	acq_US_unple_masked	acq3_masked	3	4	453	1	300	300	0	0	451	46	0	1	0	0	0	1	blank2r.bmp	0	1	+	0	8	C4r.bmp	492	1	blank2r.bmp	786	1	BMVZ	786	1	blank2r.bmp	866	6	leiden	866	1	!	1292	1	!	1346	0	0	0	0	0	0	0	0	0	0	0	0	0	0	0	0	0	0	0	0	0	0	0	0	0	0	0
031419	10:34:48	10:39:16	267636	5.0.10.0	4_exp_EVA_AMP_AWA_CON	162	Rpleas_acq	Same	Rpleas	Bmasked	CS_B	2pleas	distractor1	EVAbeforeCON	acq_US_unple_masked	acq3_masked	3	5	453	1	300	300	0	0	475	50	0	0	0	0	0	1	blank2r.bmp	0	1	+	0	2	B2r.bmp	492	1	blank2r.bmp	786	1	BMVZ	786	1	blank2r.bmp	866	5	fanatisch	866	1	FEHLER	1692	1	!	1292	1	!	1372	0	0	0	0	0	0	0	0	0	0	0	0	0	0	0	0	0	0	0	0	0	0	0	0
031419	10:34:48	10:39:18	269848	5.0.10.0	4_exp_EVA_AMP_AWA_CON	162	Rpleas_acq	Same	Rpleas	Bmasked	CS_B	2pleas	distractor1	EVAbeforeCON	acq_US_pleas_masked	acq3_masked	3	6	453	1	300	300	0	0	410	46	0	0	0	0	0	1	blank2r.bmp	0	1	+	0	1	B1r.bmp	492	1	blank2r.bmp	786	1	GKQX	786	1	blank2r.bmp	866	6	lachen	866	1	FEHLER	1625	1	!	1292	1	!	1306	0	0	0	0	0	0	0	0	0	0	0	0	0	0	0	0	0	0	0	0	0	0	0	0
031419	10:34:48	10:39:21	271927	5.0.10.0	4_exp_EVA_AMP_AWA_CON	162	Rpleas_acq	Same	Rpleas	Bmasked	CS_B	2pleas	distractor1	EVAbeforeCON	acq_US_unple_masked	acq3_masked	3	7	453	1	300	300	0	0	505	46	0	1	0	0	0	1	blank2r.bmp	0	1	+	0	4	B4r.bmp	492	1	blank2r.bmp	786	1	BMVZ	786	1	blank2r.bmp	866	1	tyrannisch	866	1	!	1292	1	!	1399	0	0	0	0	0	0	0	0	0	0	0	0	0	0	0	0	0	0	0	0	0	0	0	0	0	0	0
031419	10:34:48	10:39:23	274206	5.0.10.0	4_exp_EVA_AMP_AWA_CON	162	Rpleas_acq	Same	Rpleas	Bmasked	CS_B	2pleas	distractor1	EVAbeforeCON	acq_US_pleas_masked	acq3_masked	3	8	453	1	300	300	0	0	486	50	0	1	0	0	0	1	blank2r.bmp	0	1	+	0	3	B3r.bmp	492	1	blank2r.bmp	786	1	GKQX	786	1	blank2r.bmp	866	2	schön	866	1	!	1292	1	!	1386	0	0	0	0	0	0	0	0	0	0	0	0	0	0	0	0	0	0	0	0	0	0	0	0	0	0	0
031419	10:34:48	10:39:25	276752	5.0.10.0	4_exp_EVA_AMP_AWA_CON	162	Rpleas_acq	Same	Rpleas	Bmasked	CS_B	2pleas	distractor1	EVAbeforeCON	acq_US_pleas_masked	acq3_masked	3	9	453	0	300	300	0	0	532	46	0	0	0	0	0	1	blank2r.bmp	0	1	+	0	7	C3r.bmp	492	1	blank2r.bmp	786	1	GKQX	786	1	blank2r.bmp	866	1	tolerant	866	1	FEHLER	1745	1	!	1292	1	!	-1	0	0	0	0	0	0	0	0	0	0	0	0	0	0	0	0	0	0	0	0	0	0	0	0
031419	10:34:48	10:39:27	278778	5.0.10.0	4_exp_EVA_AMP_AWA_CON	162	Rpleas_acq	Same	Rpleas	Bmasked	CS_B	2pleas	distractor1	EVAbeforeCON	acq_US_unple_masked	acq3_masked	3	10	453	1	300	300	0	0	440	46	0	1	0	0	0	1	blank2r.bmp	0	1	+	0	3	B3r.bmp	492	1	blank2r.bmp	786	1	BMVZ	786	1	blank2r.bmp	866	2	schlecht	866	1	!	1292	1	!	1346	0	0	0	0	0	0	0	0	0	0	0	0	0	0	0	0	0	0	0	0	0	0	0	0	0	0	0
031419	10:34:48	10:39:30	281057	5.0.10.0	4_exp_EVA_AMP_AWA_CON	162	Rpleas_acq	Same	Rpleas	Bmasked	CS_B	2pleas	distractor1	EVAbeforeCON	acq_US_pleas_masked	acq3_masked	3	11	453	1	300	300	0	0	478	50	0	1	0	0	0	1	blank2r.bmp	0	1	+	0	2	B2r.bmp	492	1	blank2r.bmp	786	1	GKQX	786	1	blank2r.bmp	866	5	freundlich	866	1	!	1292	1	!	1372	0	0	0	0	0	0	0	0	0	0	0	0	0	0	0	0	0	0	0	0	0	0	0	0	0	0	0
031419	10:34:48	10:39:32	283389	5.0.10.0	4_exp_EVA_AMP_AWA_CON	162	Rpleas_acq	Same	Rpleas	Bmasked	CS_B	2pleas	distractor1	EVAbeforeCON	acq_US_unple_masked	acq3_masked	3	12	453	0	300	300	0	0	557	46	0	1	0	0	0	1	blank2r.bmp	0	1	+	0	8	C4r.bmp	492	1	blank2r.bmp	786	1	BMVZ	786	1	blank2r.bmp	866	3	faul	866	1	!	1292	1	!	-1	0	0	0	0	0	0	0	0	0	0	0	0	0	0	0	0	0	0	0	0	0	0	0	0	0	0	0
031419	10:34:48	10:39:34	285681	5.0.10.0	4_exp_EVA_AMP_AWA_CON	162	Rpleas_acq	Same	Rpleas	Bmasked	CS_B	2pleas	distractor1	EVAbeforeCON	acq_US_pleas_masked	acq3_masked	3	13	453	1	300	300	0	0	488	50	0	1	0	0	0	1	blank2r.bmp	0	1	+	0	1	B1r.bmp	492	1	blank2r.bmp	786	1	GKQX	786	1	blank2r.bmp	866	6	lachen	866	1	!	1292	1	!	1386	0	0	0	0	0	0	0	0	0	0	0	0	0	0	0	0	0	0	0	0	0	0	0	0	0	0	0
031419	10:34:48	10:39:37	287907	5.0.10.0	4_exp_EVA_AMP_AWA_CON	162	Rpleas_acq	Same	Rpleas	Bmasked	CS_B	2pleas	distractor1	EVAbeforeCON	acq_US_pleas_masked	acq3_masked	3	14	453	1	300	300	0	0	429	50	0	1	0	0	0	1	blank2r.bmp	0	1	+	0	6	C2r.bmp	492	1	blank2r.bmp	786	1	GKQX	786	1	blank2r.bmp	866	5	freundlich	866	1	!	1292	1	!	1332	0	0	0	0	0	0	0	0	0	0	0	0	0	0	0	0	0	0	0	0	0	0	0	0	0	0	0
031419	10:34:48	10:39:39	290213	5.0.10.0	4_exp_EVA_AMP_AWA_CON	162	Rpleas_acq	Same	Rpleas	Bmasked	CS_B	2pleas	distractor1	EVAbeforeCON	acq_US_pleas_masked	acq3_masked	3	15	453	1	300	300	0	0	513	50	0	1	0	0	0	1	blank2r.bmp	0	1	+	0	5	C1r.bmp	492	1	blank2r.bmp	786	1	GKQX	786	1	blank2r.bmp	866	3	fair	866	1	!	1292	1	!	1412	0	0	0	0	0	0	0	0	0	0	0	0	0	0	0	0	0	0	0	0	0	0	0	0	0	0	0
031419	10:34:48	10:39:41	292705	5.0.10.0	4_exp_EVA_AMP_AWA_CON	162	Rpleas_acq	Same	Rpleas	Bmasked	CS_B	2pleas	distractor1	EVAbeforeCON	acq_US_pleas_masked	acq3_masked	3	16	453	1	300	300	0	0	471	46	0	0	0	0	0	1	blank2r.bmp	0	1	+	0	4	B4r.bmp	492	1	blank2r.bmp	786	1	GKQX	786	1	blank2r.bmp	866	1	tolerant	866	1	FEHLER	1692	1	!	1292	1	!	1372	0	0	0	0	0	0	0	0	0	0	0	0	0	0	0	0	0	0	0	0	0	0	0	0
031419	10:34:48	10:39:43	294691	5.0.10.0	4_exp_EVA_AMP_AWA_CON	162	Rpleas_acq	Same	Rpleas	Bmasked	CS_B	2pleas	distractor1	EVAbeforeCON	acq_US_unple_masked	acq3_masked	3	17	453	1	300	300	0	0	406	46	0	1	0	0	0	1	blank2r.bmp	0	1	+	0	8	C4r.bmp	492	1	blank2r.bmp	786	1	BMVZ	786	1	blank2r.bmp	866	1	tyrannisch	866	1	!	1292	1	!	1306	0	0	0	0	0	0	0	0	0	0	0	0	0	0	0	0	0	0	0	0	0	0	0	0	0	0	0
031419	10:34:48	10:39:46	297197	5.0.10.0	4_exp_EVA_AMP_AWA_CON	162	Rpleas_acq	Same	Rpleas	Bmasked	CS_B	2pleas	distractor1	EVAbeforeCON	acq_US_unple_masked	acq3_masked	3	18	453	1	300	300	0	0	497	50	0	0	0	0	0	1	blank2r.bmp	0	1	+	0	4	B4r.bmp	492	1	blank2r.bmp	786	1	BMVZ	786	1	blank2r.bmp	866	5	fanatisch	866	1	FEHLER	1719	1	!	1292	1	!	1399	0	0	0	0	0	0	0	0	0	0	0	0	0	0	0	0	0	0	0	0	0	0	0	0
031419	10:34:48	10:39:48	299249	5.0.10.0	4_exp_EVA_AMP_AWA_CON	162	Rpleas_acq	Same	Rpleas	Bmasked	CS_B	2pleas	distractor1	EVAbeforeCON	acq_US_pleas_masked	acq3_masked	3	19	453	1	300	300	0	0	454	50	0	1	0	0	0	1	blank2r.bmp	0	1	+	0	3	B3r.bmp	492	1	blank2r.bmp	786	1	GKQX	786	1	blank2r.bmp	866	4	helfen	866	1	!	1292	1	!	1359	0	0	0	0	0	0	0	0	0	0	0	0	0	0	0	0	0	0	0	0	0	0	0	0	0	0	0
031419	10:34:48	10:39:50	301355	5.0.10.0	4_exp_EVA_AMP_AWA_CON	162	Rpleas_acq	Same	Rpleas	Bmasked	CS_B	2pleas	distractor1	EVAbeforeCON	acq_US_pleas_masked	acq3_masked	3	20	453	0	300	300	0	0	341	50	0	1	0	0	0	1	blank2r.bmp	0	1	+	0	2	B2r.bmp	492	1	blank2r.bmp	786	1	GKQX	786	1	blank2r.bmp	866	2	schön	866	1	!	-1	1	!	-1	0	0	0	0	0	0	0	0	0	0	0	0	0	0	0	0	0	0	0	0	0	0	0	0	0	0	0
031419	10:34:48	10:39:52	303501	5.0.10.0	4_exp_EVA_AMP_AWA_CON	162	Rpleas_acq	Same	Rpleas	Bmasked	CS_B	2pleas	distractor1	EVAbeforeCON	acq_US_unple_masked	acq3_masked	3	21	453	0	300	300	0	0	361	46	0	1	0	0	0	1	blank2r.bmp	0	1	+	0	6	C2r.bmp	492	1	blank2r.bmp	786	1	BMVZ	786	1	blank2r.bmp	866	6	leiden	866	1	!	-1	1	!	-1	0	0	0	0	0	0	0	0	0	0	0	0	0	0	0	0	0	0	0	0	0	0	0	0	0	0	0
031419	10:34:48	10:39:54	305846	5.0.10.0	4_exp_EVA_AMP_AWA_CON	162	Rpleas_acq	Same	Rpleas	Bmasked	CS_B	2pleas	distractor1	EVAbeforeCON	acq_US_unple_masked	acq3_masked	3	22	453	0	300	300	0	0	569	46	0	1	0	0	0	1	blank2r.bmp	0	1	+	0	1	B1r.bmp	492	1	blank2r.bmp	786	1	BMVZ	786	1	blank2r.bmp	866	2	schlecht	866	1	!	1292	1	!	-1	0	0	0	0	0	0	0	0	0	0	0	0	0	0	0	0	0	0	0	0	0	0	0	0	0	0	0
031419	10:34:48	10:39:57	308139	5.0.10.0	4_exp_EVA_AMP_AWA_CON	162	Rpleas_acq	Same	Rpleas	Bmasked	CS_B	2pleas	distractor1	EVAbeforeCON	acq_US_unple_masked	acq3_masked	3	23	453	1	300	300	0	0	475	46	0	1	0	0	0	1	blank2r.bmp	0	1	+	0	5	C1r.bmp	492	1	blank2r.bmp	786	1	BMVZ	786	1	blank2r.bmp	866	3	faul	866	1	!	1292	1	!	1372	0	0	0	0	0	0	0	0	0	0	0	0	0	0	0	0	0	0	0	0	0	0	0	0	0	0	0
031419	10:34:48	10:39:59	310445	5.0.10.0	4_exp_EVA_AMP_AWA_CON	162	Rpleas_acq	Same	Rpleas	Bmasked	CS_B	2pleas	distractor1	EVAbeforeCON	acq_US_unple_masked	acq3_masked	3	24	453	0	300	300	0	0	534	46	0	1	0	0	0	1	blank2r.bmp	0	1	+	0	7	C3r.bmp	492	1	blank2r.bmp	786	1	BMVZ	786	1	blank2r.bmp	866	4	hindern	866	1	!	1292	1	!	-1	0	0	0	0	0	0	0	0	0	0	0	0	0	0	0	0	0	0	0	0	0	0	0	0	0	0	0
031419	10:34:48	10:40:01	312870	5.0.10.0	4_exp_EVA_AMP_AWA_CON	162	Rpleas_acq	Same	Rpleas	Bmasked	CS_B	2pleas	distractor1	EVAbeforeCON	acq_US_unple_masked	acq3_masked	3	25	453	0	300	300	0	0	648	46	0	1	0	0	0	1	blank2r.bmp	0	1	+	0	3	B3r.bmp	492	1	blank2r.bmp	786	1	BMVZ	786	1	blank2r.bmp	866	5	fanatisch	866	1	!	1292	1	!	-1	0	0	0	0	0	0	0	0	0	0	0	0	0	0	0	0	0	0	0	0	0	0	0	0	0	0	0
031419	10:34:48	10:40:04	315189	5.0.10.0	4_exp_EVA_AMP_AWA_CON	162	Rpleas_acq	Same	Rpleas	Bmasked	CS_B	2pleas	distractor1	EVAbeforeCON	acq_US_unple_masked	acq3_masked	3	26	453	0	300	300	0	0	542	46	0	1	0	0	0	1	blank2r.bmp	0	1	+	0	1	B1r.bmp	492	1	blank2r.bmp	786	1	BMVZ	786	1	blank2r.bmp	866	4	hindern	866	1	!	1292	1	!	-1	0	0	0	0	0	0	0	0	0	0	0	0	0	0	0	0	0	0	0	0	0	0	0	0	0	0	0
031419	10:34:48	10:40:06	317522	5.0.10.0	4_exp_EVA_AMP_AWA_CON	162	Rpleas_acq	Same	Rpleas	Bmasked	CS_B	2pleas	distractor1	EVAbeforeCON	acq_US_pleas_masked	acq3_masked	3	27	453	0	300	300	0	0	541	50	0	1	0	0	0	1	blank2r.bmp	0	1	+	0	7	C3r.bmp	492	1	blank2r.bmp	786	1	GKQX	786	1	blank2r.bmp	866	6	lachen	866	1	!	1292	1	!	-1	0	0	0	0	0	0	0	0	0	0	0	0	0	0	0	0	0	0	0	0	0	0	0	0	0	0	0
031419	10:34:48	10:40:08	319854	5.0.10.0	4_exp_EVA_AMP_AWA_CON	162	Rpleas_acq	Same	Rpleas	Bmasked	CS_B	2pleas	distractor1	EVAbeforeCON	acq_US_pleas_masked	acq3_masked	3	28	453	0	300	300	0	0	552	50	0	1	0	0	0	1	blank2r.bmp	0	1	+	0	2	B2r.bmp	492	1	blank2r.bmp	786	1	GKQX	786	1	blank2r.bmp	866	5	freundlich	866	1	!	1292	1	!	-1	0	0	0	0	0	0	0	0	0	0	0	0	0	0	0	0	0	0	0	0	0	0	0	0	0	0	0
031419	10:34:48	10:40:11	321986	5.0.10.0	4_exp_EVA_AMP_AWA_CON	162	Rpleas_acq	Same	Rpleas	Bmasked	CS_B	2pleas	distractor1	EVAbeforeCON	acq_US_pleas_masked	acq3_masked	3	29	453	0	300	300	0	0	343	50	0	1	0	0	0	1	blank2r.bmp	0	1	+	0	5	C1r.bmp	492	1	blank2r.bmp	786	1	GKQX	786	1	blank2r.bmp	866	3	fair	866	1	!	-1	1	!	-1	0	0	0	0	0	0	0	0	0	0	0	0	0	0	0	0	0	0	0	0	0	0	0	0	0	0	0
031419	10:34:48	10:40:13	324292	5.0.10.0	4_exp_EVA_AMP_AWA_CON	162	Rpleas_acq	Same	Rpleas	Bmasked	CS_B	2pleas	distractor1	EVAbeforeCON	acq_US_unple_masked	acq3_masked	3	30	453	1	300	300	0	0	502	46	0	1	0	0	0	1	blank2r.bmp	0	1	+	0	4	B4r.bmp	492	1	blank2r.bmp	786	1	BMVZ	786	1	blank2r.bmp	866	2	schlecht	866	1	!	1292	1	!	1399	0	0	0	0	0	0	0	0	0	0	0	0	0	0	0	0	0	0	0	0	0	0	0	0	0	0	0
031419	10:34:48	10:40:15	326531	5.0.10.0	4_exp_EVA_AMP_AWA_CON	162	Rpleas_acq	Same	Rpleas	Bmasked	CS_B	2pleas	distractor1	EVAbeforeCON	acq_US_unple_masked	acq3_masked	3	31	453	1	300	300	0	0	446	46	0	1	0	0	0	1	blank2r.bmp	0	1	+	0	6	C2r.bmp	492	1	blank2r.bmp	786	1	BMVZ	786	1	blank2r.bmp	866	6	leiden	866	1	!	1292	1	!	1346	0	0	0	0	0	0	0	0	0	0	0	0	0	0	0	0	0	0	0	0	0	0	0	0	0	0	0
031419	10:34:48	10:40:17	328757	5.0.10.0	4_exp_EVA_AMP_AWA_CON	162	Rpleas_acq	Same	Rpleas	Bmasked	CS_B	2pleas	distractor1	EVAbeforeCON	acq_US_unple_masked	acq3_masked	3	32	453	1	300	300	0	0	435	46	0	1	0	0	0	1	blank2r.bmp	0	1	+	0	8	C4r.bmp	492	1	blank2r.bmp	786	1	BMVZ	786	1	blank2r.bmp	866	1	tyrannisch	866	1	!	1292	1	!	1332	0	0	0	0	0	0	0	0	0	0	0	0	0	0	0	0	0	0	0	0	0	0	0	0	0	0	0
031419	10:34:48	10:40:20	331156	5.0.10.0	4_exp_EVA_AMP_AWA_CON	162	Rpleas_acq	Same	Rpleas	Bmasked	CS_B	2pleas	distractor1	EVAbeforeCON	acq_US_pleas_masked	acq3_masked	3	33	453	0	300	300	0	0	630	50	0	1	0	0	0	1	blank2r.bmp	0	1	+	0	8	C4r.bmp	492	1	blank2r.bmp	786	1	GKQX	786	1	blank2r.bmp	866	1	tolerant	866	1	!	1292	1	!	-1	0	0	0	0	0	0	0	0	0	0	0	0	0	0	0	0	0	0	0	0	0	0	0	0	0	0	0
031419	10:34:48	10:40:22	333448	5.0.10.0	4_exp_EVA_AMP_AWA_CON	162	Rpleas_acq	Same	Rpleas	Bmasked	CS_B	2pleas	distractor1	EVAbeforeCON	acq_US_unple_masked	acq3_masked	3	34	453	1	300	300	0	0	481	46	0	1	0	0	0	1	blank2r.bmp	0	1	+	0	6	C2r.bmp	492	1	blank2r.bmp	786	1	BMVZ	786	1	blank2r.bmp	866	3	faul	866	1	!	1292	1	!	1386	0	0	0	0	0	0	0	0	0	0	0	0	0	0	0	0	0	0	0	0	0	0	0	0	0	0	0
031419	10:34:48	10:40:24	335781	5.0.10.0	4_exp_EVA_AMP_AWA_CON	162	Rpleas_acq	Same	Rpleas	Bmasked	CS_B	2pleas	distractor1	EVAbeforeCON	acq_US_pleas_masked	acq3_masked	3	35	453	0	300	300	0	0	559	50	0	1	0	0	0	1	blank2r.bmp	0	1	+	0	7	C3r.bmp	492	1	blank2r.bmp	786	1	GKQX	786	1	blank2r.bmp	866	4	helfen	866	1	!	1292	1	!	-1	0	0	0	0	0	0	0	0	0	0	0	0	0	0	0	0	0	0	0	0	0	0	0	0	0	0	0
031419	10:34:48	10:40:27	338006	5.0.10.0	4_exp_EVA_AMP_AWA_CON	162	Rpleas_acq	Same	Rpleas	Bmasked	CS_B	2pleas	distractor1	EVAbeforeCON	acq_US_pleas_masked	acq3_masked	3	36	453	1	300	300	0	0	424	50	0	1	0	0	0	1	blank2r.bmp	0	1	+	0	5	C1r.bmp	492	1	blank2r.bmp	786	1	GKQX	786	1	blank2r.bmp	866	2	schön	866	1	!	1292	1	!	1319	0	0	0	0	0	0	0	0	0	0	0	0	0	0	0	0	0	0	0	0	0	0	0	0	0	0	0
031419	10:34:48	10:40:38	349602	5.0.10.0	4_exp_EVA_AMP_AWA_CON	162	Rpleas_acq	Same	Rpleas	Bmasked	CS_B	2pleas	distractor1	EVAbeforeCON	acq_US_pleas_masked	acq45_masked	4	1	400	0	300	300	0	0	486	50	0	1	0	0	0	1	blank2r.bmp	0	1	+	0	4	B4r.bmp	492	1	blank2r.bmp	786	1	GKQX	786	1	blank2r.bmp	866	4	helfen	866	1	!	1239	1	!	-1	0	0	0	0	0	0	0	0	0	0	0	0	0	0	0	0	0	0	0	0	0	0	0	0	0	0	0
031419	10:34:48	10:40:41	351907	5.0.10.0	4_exp_EVA_AMP_AWA_CON	162	Rpleas_acq	Same	Rpleas	Bmasked	CS_B	2pleas	distractor1	EVAbeforeCON	acq_US_unple_masked	acq45_masked	4	2	400	0	300	300	0	0	532	46	0	1	0	0	0	1	blank2r.bmp	0	1	+	0	1	B1r.bmp	492	1	blank2r.bmp	786	1	BMVZ	786	1	blank2r.bmp	866	1	tyrannisch	866	1	!	1239	1	!	-1	0	0	0	0	0	0	0	0	0	0	0	0	0	0	0	0	0	0	0	0	0	0	0	0	0	0	0
031419	10:34:48	10:40:43	354200	5.0.10.0	4_exp_EVA_AMP_AWA_CON	162	Rpleas_acq	Same	Rpleas	Bmasked	CS_B	2pleas	distractor1	EVAbeforeCON	acq_US_pleas_masked	acq45_masked	4	3	400	0	300	300	0	0	505	50	0	1	0	0	0	1	blank2r.bmp	0	1	+	0	3	B3r.bmp	492	1	blank2r.bmp	786	1	GKQX	786	1	blank2r.bmp	866	1	tolerant	866	1	!	1239	1	!	-1	0	0	0	0	0	0	0	0	0	0	0	0	0	0	0	0	0	0	0	0	0	0	0	0	0	0	0
031419	10:34:48	10:40:45	356386	5.0.10.0	4_exp_EVA_AMP_AWA_CON	162	Rpleas_acq	Same	Rpleas	Bmasked	CS_B	2pleas	distractor1	EVAbeforeCON	acq_US_pleas_masked	acq45_masked	4	4	400	1	300	300	0	0	377	50	0	1	0	0	0	1	blank2r.bmp	0	1	+	0	2	B2r.bmp	492	1	blank2r.bmp	786	1	GKQX	786	1	blank2r.bmp	866	6	lachen	866	1	!	1239	1	!	1279	0	0	0	0	0	0	0	0	0	0	0	0	0	0	0	0	0	0	0	0	0	0	0	0	0	0	0
031419	10:34:48	10:40:47	358558	5.0.10.0	4_exp_EVA_AMP_AWA_CON	162	Rpleas_acq	Same	Rpleas	Bmasked	CS_B	2pleas	distractor1	EVAbeforeCON	acq_US_pleas_masked	acq45_masked	4	5	400	1	300	300	0	0	377	46	0	0	0	0	0	1	blank2r.bmp	0	1	+	0	7	C3r.bmp	492	1	blank2r.bmp	786	1	GKQX	786	1	blank2r.bmp	866	3	fair	866	1	!	1239	1	!	1279	0	0	0	0	0	0	0	0	0	0	0	0	0	0	0	0	0	0	0	0	0	0	0	0	0	0	0
031419	10:34:48	10:40:49	360850	5.0.10.0	4_exp_EVA_AMP_AWA_CON	162	Rpleas_acq	Same	Rpleas	Bmasked	CS_B	2pleas	distractor1	EVAbeforeCON	acq_US_unple_masked	acq45_masked	4	6	400	0	300	300	0	0	526	46	0	1	0	0	0	1	blank2r.bmp	0	1	+	0	2	B2r.bmp	492	1	blank2r.bmp	786	1	BMVZ	786	1	blank2r.bmp	866	4	hindern	866	1	!	1239	1	!	-1	0	0	0	0	0	0	0	0	0	0	0	0	0	0	0	0	0	0	0	0	0	0	0	0	0	0	0
031419	10:34:48	10:40:52	362916	5.0.10.0	4_exp_EVA_AMP_AWA_CON	162	Rpleas_acq	Same	Rpleas	Bmasked	CS_B	2pleas	distractor1	EVAbeforeCON	acq_US_unple_masked	acq45_masked	4	7	400	0	300	300	0	0	268	50	0	0	0	0	0	1	blank2r.bmp	0	1	+	0	6	C2r.bmp	492	1	blank2r.bmp	786	1	BMVZ	786	1	blank2r.bmp	866	2	schlecht	866	1	!	-1	1	!	-1	0	0	0	0	0	0	0	0	0	0	0	0	0	0	0	0	0	0	0	0	0	0	0	0	0	0	0
031419	10:34:48	10:40:54	365102	5.0.10.0	4_exp_EVA_AMP_AWA_CON	162	Rpleas_acq	Same	Rpleas	Bmasked	CS_B	2pleas	distractor1	EVAbeforeCON	acq_US_unple_masked	acq45_masked	4	8	400	1	300	300	0	0	379	46	0	1	0	0	0	1	blank2r.bmp	0	1	+	0	3	B3r.bmp	492	1	blank2r.bmp	786	1	BMVZ	786	1	blank2r.bmp	866	6	leiden	866	1	!	1239	1	!	1279	0	0	0	0	0	0	0	0	0	0	0	0	0	0	0	0	0	0	0	0	0	0	0	0	0	0	0
031419	10:34:48	10:40:56	367194	5.0.10.0	4_exp_EVA_AMP_AWA_CON	162	Rpleas_acq	Same	Rpleas	Bmasked	CS_B	2pleas	distractor1	EVAbeforeCON	acq_US_pleas_masked	acq45_masked	4	9	400	0	300	300	0	0	323	50	0	1	0	0	0	1	blank2r.bmp	0	1	+	0	4	B4r.bmp	492	1	blank2r.bmp	786	1	GKQX	786	1	blank2r.bmp	866	2	schön	866	1	!	-1	1	!	-1	0	0	0	0	0	0	0	0	0	0	0	0	0	0	0	0	0	0	0	0	0	0	0	0	0	0	0
031419	10:34:48	10:40:58	369420	5.0.10.0	4_exp_EVA_AMP_AWA_CON	162	Rpleas_acq	Same	Rpleas	Bmasked	CS_B	2pleas	distractor1	EVAbeforeCON	acq_US_unple_masked	acq45_masked	4	10	400	1	300	300	0	0	424	46	0	1	0	0	0	1	blank2r.bmp	0	1	+	0	1	B1r.bmp	492	1	blank2r.bmp	786	1	BMVZ	786	1	blank2r.bmp	866	5	fanatisch	866	1	!	1239	1	!	1319	0	0	0	0	0	0	0	0	0	0	0	0	0	0	0	0	0	0	0	0	0	0	0	0	0	0	0
031419	10:34:48	10:41:00	371633	5.0.10.0	4_exp_EVA_AMP_AWA_CON	162	Rpleas_acq	Same	Rpleas	Bmasked	CS_B	2pleas	distractor1	EVAbeforeCON	acq_US_pleas_masked	acq45_masked	4	11	400	1	300	300	0	0	425	50	0	1	0	0	0	1	blank2r.bmp	0	1	+	0	8	C4r.bmp	492	1	blank2r.bmp	786	1	GKQX	786	1	blank2r.bmp	866	5	freundlich	866	1	!	1239	1	!	1319	0	0	0	0	0	0	0	0	0	0	0	0	0	0	0	0	0	0	0	0	0	0	0	0	0	0	0
031419	10:34:48	10:41:02	373805	5.0.10.0	4_exp_EVA_AMP_AWA_CON	162	Rpleas_acq	Same	Rpleas	Bmasked	CS_B	2pleas	distractor1	EVAbeforeCON	acq_US_unple_masked	acq45_masked	4	12	400	1	300	300	0	0	383	46	0	1	0	0	0	1	blank2r.bmp	0	1	+	0	5	C1r.bmp	492	1	blank2r.bmp	786	1	BMVZ	786	1	blank2r.bmp	866	3	faul	866	1	!	1239	1	!	1279	0	0	0	0	0	0	0	0	0	0	0	0	0	0	0	0	0	0	0	0	0	0	0	0	0	0	0
031419	10:34:48	10:41:05	376084	5.0.10.0	4_exp_EVA_AMP_AWA_CON	162	Rpleas_acq	Same	Rpleas	Bmasked	CS_B	2pleas	distractor1	EVAbeforeCON	acq_US_unple_masked	acq45_masked	4	13	400	0	300	300	0	0	517	46	0	1	0	0	0	1	blank2r.bmp	0	1	+	0	1	B1r.bmp	492	1	blank2r.bmp	786	1	BMVZ	786	1	blank2r.bmp	866	1	tyrannisch	866	1	!	1239	1	!	-1	0	0	0	0	0	0	0	0	0	0	0	0	0	0	0	0	0	0	0	0	0	0	0	0	0	0	0
031419	10:34:48	10:41:07	378350	5.0.10.0	4_exp_EVA_AMP_AWA_CON	162	Rpleas_acq	Same	Rpleas	Bmasked	CS_B	2pleas	distractor1	EVAbeforeCON	acq_US_unple_masked	acq45_masked	4	14	400	0	300	300	0	0	484	46	0	1	0	0	0	1	blank2r.bmp	0	1	+	0	2	B2r.bmp	492	1	blank2r.bmp	786	1	BMVZ	786	1	blank2r.bmp	866	2	schlecht	866	1	!	1239	1	!	-1	0	0	0	0	0	0	0	0	0	0	0	0	0	0	0	0	0	0	0	0	0	0	0	0	0	0	0
031419	10:34:48	10:41:09	380402	5.0.10.0	4_exp_EVA_AMP_AWA_CON	162	Rpleas_acq	Same	Rpleas	Bmasked	CS_B	2pleas	distractor1	EVAbeforeCON	acq_US_pleas_masked	acq45_masked	4	15	400	0	300	300	0	0	271	50	0	1	0	0	0	1	blank2r.bmp	0	1	+	0	3	B3r.bmp	492	1	blank2r.bmp	786	1	GKQX	786	1	blank2r.bmp	866	4	helfen	866	1	!	-1	1	!	-1	0	0	0	0	0	0	0	0	0	0	0	0	0	0	0	0	0	0	0	0	0	0	0	0	0	0	0
031419	10:34:48	10:41:11	382681	5.0.10.0	4_exp_EVA_AMP_AWA_CON	162	Rpleas_acq	Same	Rpleas	Bmasked	CS_B	2pleas	distractor1	EVAbeforeCON	acq_US_pleas_masked	acq45_masked	4	16	400	0	300	300	0	0	492	50	0	1	0	0	0	1	blank2r.bmp	0	1	+	0	6	C2r.bmp	492	1	blank2r.bmp	786	1	GKQX	786	1	blank2r.bmp	866	1	tolerant	866	1	!	1239	1	!	-1	0	0	0	0	0	0	0	0	0	0	0	0	0	0	0	0	0	0	0	0	0	0	0	0	0	0	0
031419	10:34:48	10:41:14	384974	5.0.10.0	4_exp_EVA_AMP_AWA_CON	162	Rpleas_acq	Same	Rpleas	Bmasked	CS_B	2pleas	distractor1	EVAbeforeCON	acq_US_pleas_masked	acq45_masked	4	17	400	0	300	300	0	0	508	50	0	1	0	0	0	1	blank2r.bmp	0	1	+	0	7	C3r.bmp	492	1	blank2r.bmp	786	1	GKQX	786	1	blank2r.bmp	866	3	fair	866	1	!	1239	1	!	-1	0	0	0	0	0	0	0	0	0	0	0	0	0	0	0	0	0	0	0	0	0	0	0	0	0	0	0
031419	10:34:48	10:41:16	387266	5.0.10.0	4_exp_EVA_AMP_AWA_CON	162	Rpleas_acq	Same	Rpleas	Bmasked	CS_B	2pleas	distractor1	EVAbeforeCON	acq_US_unple_masked	acq45_masked	4	18	400	0	300	300	0	0	518	46	0	1	0	0	0	1	blank2r.bmp	0	1	+	0	4	B4r.bmp	492	1	blank2r.bmp	786	1	BMVZ	786	1	blank2r.bmp	866	6	leiden	866	1	!	1239	1	!	-1	0	0	0	0	0	0	0	0	0	0	0	0	0	0	0	0	0	0	0	0	0	0	0	0	0	0	0
031419	10:34:48	10:41:18	389679	5.0.10.0	4_exp_EVA_AMP_AWA_CON	162	Rpleas_acq	Same	Rpleas	Bmasked	CS_B	2pleas	distractor1	EVAbeforeCON	acq_US_unple_masked	acq45_masked	4	19	400	0	300	300	0	0	629	46	0	1	0	0	0	1	blank2r.bmp	0	1	+	0	5	C1r.bmp	492	1	blank2r.bmp	786	1	BMVZ	786	1	blank2r.bmp	866	4	hindern	866	1	!	1239	1	!	-1	0	0	0	0	0	0	0	0	0	0	0	0	0	0	0	0	0	0	0	0	0	0	0	0	0	0	0
031419	10:34:48	10:41:20	391838	5.0.10.0	4_exp_EVA_AMP_AWA_CON	162	Rpleas_acq	Same	Rpleas	Bmasked	CS_B	2pleas	distractor1	EVAbeforeCON	acq_US_unple_masked	acq45_masked	4	20	400	1	300	300	0	0	346	46	0	1	0	0	0	1	blank2r.bmp	0	1	+	0	8	C4r.bmp	492	1	blank2r.bmp	786	1	BMVZ	786	1	blank2r.bmp	866	3	faul	866	1	!	1239	1	!	1252	0	0	0	0	0	0	0	0	0	0	0	0	0	0	0	0	0	0	0	0	0	0	0	0	0	0	0
031419	10:34:48	10:41:23	393930	5.0.10.0	4_exp_EVA_AMP_AWA_CON	162	Rpleas_acq	Same	Rpleas	Bmasked	CS_B	2pleas	distractor1	EVAbeforeCON	acq_US_pleas_masked	acq45_masked	4	21	400	0	300	300	0	0	318	50	0	1	0	0	0	1	blank2r.bmp	0	1	+	0	6	C2r.bmp	492	1	blank2r.bmp	786	1	GKQX	786	1	blank2r.bmp	866	5	freundlich	866	1	!	-1	1	!	-1	0	0	0	0	0	0	0	0	0	0	0	0	0	0	0	0	0	0	0	0	0	0	0	0	0	0	0
031419	10:34:48	10:41:25	396222	5.0.10.0	4_exp_EVA_AMP_AWA_CON	162	Rpleas_acq	Same	Rpleas	Bmasked	CS_B	2pleas	distractor1	EVAbeforeCON	acq_US_pleas_masked	acq45_masked	4	22	400	0	300	300	0	0	508	50	0	1	0	0	0	1	blank2r.bmp	0	1	+	0	5	C1r.bmp	492	1	blank2r.bmp	786	1	GKQX	786	1	blank2r.bmp	866	2	schön	866	1	!	1239	1	!	-1	0	0	0	0	0	0	0	0	0	0	0	0	0	0	0	0	0	0	0	0	0	0	0	0	0	0	0
031419	10:34:48	10:41:27	398435	5.0.10.0	4_exp_EVA_AMP_AWA_CON	162	Rpleas_acq	Same	Rpleas	Bmasked	CS_B	2pleas	distractor1	EVAbeforeCON	acq_US_unple_masked	acq45_masked	4	23	400	1	300	300	0	0	411	46	0	1	0	0	0	1	blank2r.bmp	0	1	+	0	4	B4r.bmp	492	1	blank2r.bmp	786	1	BMVZ	786	1	blank2r.bmp	866	5	fanatisch	866	1	!	1239	1	!	1306	0	0	0	0	0	0	0	0	0	0	0	0	0	0	0	0	0	0	0	0	0	0	0	0	0	0	0
031419	10:34:48	10:41:29	400514	5.0.10.0	4_exp_EVA_AMP_AWA_CON	162	Rpleas_acq	Same	Rpleas	Bmasked	CS_B	2pleas	distractor1	EVAbeforeCON	acq_US_pleas_masked	acq45_masked	4	24	400	0	300	300	0	0	309	50	0	1	0	0	0	1	blank2r.bmp	0	1	+	0	3	B3r.bmp	492	1	blank2r.bmp	786	1	GKQX	786	1	blank2r.bmp	866	6	lachen	866	1	!	-1	1	!	-1	0	0	0	0	0	0	0	0	0	0	0	0	0	0	0	0	0	0	0	0	0	0	0	0	0	0	0
031419	10:34:48	10:41:31	402593	5.0.10.0	4_exp_EVA_AMP_AWA_CON	162	Rpleas_acq	Same	Rpleas	Bmasked	CS_B	2pleas	distractor1	EVAbeforeCON	acq_US_pleas_masked	acq45_masked	4	25	400	0	300	300	0	0	302	50	0	1	0	0	0	1	blank2r.bmp	0	1	+	0	1	B1r.bmp	492	1	blank2r.bmp	786	1	GKQX	786	1	blank2r.bmp	866	5	freundlich	866	1	!	-1	1	!	-1	0	0	0	0	0	0	0	0	0	0	0	0	0	0	0	0	0	0	0	0	0	0	0	0	0	0	0
031419	10:34:48	10:41:34	404872	5.0.10.0	4_exp_EVA_AMP_AWA_CON	162	Rpleas_acq	Same	Rpleas	Bmasked	CS_B	2pleas	distractor1	EVAbeforeCON	acq_US_unple_masked	acq45_masked	4	26	400	0	300	300	0	0	495	46	0	1	0	0	0	1	blank2r.bmp	0	1	+	0	2	B2r.bmp	492	1	blank2r.bmp	786	1	BMVZ	786	1	blank2r.bmp	866	6	leiden	866	1	!	1239	1	!	-1	0	0	0	0	0	0	0	0	0	0	0	0	0	0	0	0	0	0	0	0	0	0	0	0	0	0	0
031419	10:34:48	10:41:36	407111	5.0.10.0	4_exp_EVA_AMP_AWA_CON	162	Rpleas_acq	Same	Rpleas	Bmasked	CS_B	2pleas	distractor1	EVAbeforeCON	acq_US_pleas_masked	acq45_masked	4	27	400	1	300	300	0	0	435	50	0	1	0	0	0	1	blank2r.bmp	0	1	+	0	7	C3r.bmp	492	1	blank2r.bmp	786	1	GKQX	786	1	blank2r.bmp	866	2	schön	866	1	!	1239	1	!	1332	0	0	0	0	0	0	0	0	0	0	0	0	0	0	0	0	0	0	0	0	0	0	0	0	0	0	0
031419	10:34:48	10:41:38	409390	5.0.10.0	4_exp_EVA_AMP_AWA_CON	162	Rpleas_acq	Same	Rpleas	Bmasked	CS_B	2pleas	distractor1	EVAbeforeCON	acq_US_unple_masked	acq45_masked	4	28	400	0	300	300	0	0	517	46	0	1	0	0	0	1	blank2r.bmp	0	1	+	0	8	C4r.bmp	492	1	blank2r.bmp	786	1	BMVZ	786	1	blank2r.bmp	866	3	faul	866	1	!	1239	1	!	-1	0	0	0	0	0	0	0	0	0	0	0	0	0	0	0	0	0	0	0	0	0	0	0	0	0	0	0
031419	10:34:48	10:41:40	411656	5.0.10.0	4_exp_EVA_AMP_AWA_CON	162	Rpleas_acq	Same	Rpleas	Bmasked	CS_B	2pleas	distractor1	EVAbeforeCON	acq_US_unple_masked	acq45_masked	4	29	400	0	300	300	0	0	481	46	0	1	0	0	0	1	blank2r.bmp	0	1	+	0	6	C2r.bmp	492	1	blank2r.bmp	786	1	BMVZ	786	1	blank2r.bmp	866	2	schlecht	866	1	!	1239	1	!	-1	0	0	0	0	0	0	0	0	0	0	0	0	0	0	0	0	0	0	0	0	0	0	0	0	0	0	0
031419	10:34:48	10:41:43	413962	5.0.10.0	4_exp_EVA_AMP_AWA_CON	162	Rpleas_acq	Same	Rpleas	Bmasked	CS_B	2pleas	distractor1	EVAbeforeCON	acq_US_pleas_masked	acq45_masked	4	30	400	0	300	300	0	0	520	50	0	1	0	0	0	1	blank2r.bmp	0	1	+	0	1	B1r.bmp	492	1	blank2r.bmp	786	1	GKQX	786	1	blank2r.bmp	866	1	tolerant	866	1	!	1239	1	!	-1	0	0	0	0	0	0	0	0	0	0	0	0	0	0	0	0	0	0	0	0	0	0	0	0	0	0	0
031419	10:34:48	10:41:45	416321	5.0.10.0	4_exp_EVA_AMP_AWA_CON	162	Rpleas_acq	Same	Rpleas	Bmasked	CS_B	2pleas	distractor1	EVAbeforeCON	acq_US_unple_masked	acq45_masked	4	31	400	0	300	300	0	0	578	50	0	0	0	0	0	1	blank2r.bmp	0	1	+	0	5	C1r.bmp	492	1	blank2r.bmp	786	1	BMVZ	786	1	blank2r.bmp	866	5	fanatisch	866	1	!	1239	1	!	-1	0	0	0	0	0	0	0	0	0	0	0	0	0	0	0	0	0	0	0	0	0	0	0	0	0	0	0
031419	10:34:48	10:41:47	418400	5.0.10.0	4_exp_EVA_AMP_AWA_CON	162	Rpleas_acq	Same	Rpleas	Bmasked	CS_B	2pleas	distractor1	EVAbeforeCON	acq_US_pleas_masked	acq45_masked	4	32	400	0	300	300	0	0	304	46	0	0	0	0	0	1	blank2r.bmp	0	1	+	0	8	C4r.bmp	492	1	blank2r.bmp	786	1	GKQX	786	1	blank2r.bmp	866	6	lachen	866	1	!	-1	1	!	-1	0	0	0	0	0	0	0	0	0	0	0	0	0	0	0	0	0	0	0	0	0	0	0	0	0	0	0
031419	10:34:48	10:41:49	420679	5.0.10.0	4_exp_EVA_AMP_AWA_CON	162	Rpleas_acq	Same	Rpleas	Bmasked	CS_B	2pleas	distractor1	EVAbeforeCON	acq_US_unple_masked	acq45_masked	4	33	400	0	300	300	0	0	479	46	0	1	0	0	0	1	blank2r.bmp	0	1	+	0	4	B4r.bmp	492	1	blank2r.bmp	786	1	BMVZ	786	1	blank2r.bmp	866	4	hindern	866	1	!	1239	1	!	-1	0	0	0	0	0	0	0	0	0	0	0	0	0	0	0	0	0	0	0	0	0	0	0	0	0	0	0
031419	10:34:48	10:41:52	422945	5.0.10.0	4_exp_EVA_AMP_AWA_CON	162	Rpleas_acq	Same	Rpleas	Bmasked	CS_B	2pleas	distractor1	EVAbeforeCON	acq_US_unple_masked	acq45_masked	4	34	400	0	300	300	0	0	481	46	0	1	0	0	0	1	blank2r.bmp	0	1	+	0	3	B3r.bmp	492	1	blank2r.bmp	786	1	BMVZ	786	1	blank2r.bmp	866	1	tyrannisch	866	1	!	1239	1	!	-1	0	0	0	0	0	0	0	0	0	0	0	0	0	0	0	0	0	0	0	0	0	0	0	0	0	0	0
031419	10:34:48	10:41:54	425117	5.0.10.0	4_exp_EVA_AMP_AWA_CON	162	Rpleas_acq	Same	Rpleas	Bmasked	CS_B	2pleas	distractor1	EVAbeforeCON	acq_US_pleas_masked	acq45_masked	4	35	400	1	300	300	0	0	367	50	0	1	0	0	0	1	blank2r.bmp	0	1	+	0	2	B2r.bmp	492	1	blank2r.bmp	786	1	GKQX	786	1	blank2r.bmp	866	4	helfen	866	1	!	1239	1	!	1266	0	0	0	0	0	0	0	0	0	0	0	0	0	0	0	0	0	0	0	0	0	0	0	0	0	0	0
031419	10:34:48	10:41:56	427290	5.0.10.0	4_exp_EVA_AMP_AWA_CON	162	Rpleas_acq	Same	Rpleas	Bmasked	CS_B	2pleas	distractor1	EVAbeforeCON	acq_US_pleas_masked	acq45_masked	4	36	400	1	300	300	0	0	385	50	0	1	0	0	0	1	blank2r.bmp	0	1	+	0	7	C3r.bmp	492	1	blank2r.bmp	786	1	GKQX	786	1	blank2r.bmp	866	3	fair	866	1	!	1239	1	!	1279	0	0	0	0	0	0	0	0	0	0	0	0	0	0	0	0	0	0	0	0	0	0	0	0	0	0	0
031419	10:34:48	10:42:07	438032	5.0.10.0	4_exp_EVA_AMP_AWA_CON	162	Rpleas_acq	Same	Rpleas	Bmasked	CS_B	2pleas	distractor1	EVAbeforeCON	acq_US_unple_masked	acq45_masked	5	1	400	0	300	300	0	0	2610	50	0	0	0	0	0	1	blank2r.bmp	0	1	+	0	8	C4r.bmp	492	1	blank2r.bmp	786	1	BMVZ	786	1	blank2r.bmp	866	4	hindern	866	1	!	1239	1	!	-1	0	0	0	0	0	0	0	0	0	0	0	0	0	0	0	0	0	0	0	0	0	0	0	0	0	0	0
031419	10:34:48	10:42:09	440338	5.0.10.0	4_exp_EVA_AMP_AWA_CON	162	Rpleas_acq	Same	Rpleas	Bmasked	CS_B	2pleas	distractor1	EVAbeforeCON	acq_US_pleas_masked	acq45_masked	5	2	400	0	300	300	0	0	525	50	0	1	0	0	0	1	blank2r.bmp	0	1	+	0	2	B2r.bmp	492	1	blank2r.bmp	786	1	GKQX	786	1	blank2r.bmp	866	1	tolerant	866	1	!	1239	1	!	-1	0	0	0	0	0	0	0	0	0	0	0	0	0	0	0	0	0	0	0	0	0	0	0	0	0	0	0
031419	10:34:48	10:42:11	442603	5.0.10.0	4_exp_EVA_AMP_AWA_CON	162	Rpleas_acq	Same	Rpleas	Bmasked	CS_B	2pleas	distractor1	EVAbeforeCON	acq_US_pleas_masked	acq45_masked	5	3	400	0	300	300	0	0	485	50	0	1	0	0	0	1	blank2r.bmp	0	1	+	0	4	B4r.bmp	492	1	blank2r.bmp	786	1	GKQX	786	1	blank2r.bmp	866	3	fair	866	1	!	1239	1	!	-1	0	0	0	0	0	0	0	0	0	0	0	0	0	0	0	0	0	0	0	0	0	0	0	0	0	0	0
031419	10:34:48	10:42:13	444762	5.0.10.0	4_exp_EVA_AMP_AWA_CON	162	Rpleas_acq	Same	Rpleas	Bmasked	CS_B	2pleas	distractor1	EVAbeforeCON	acq_US_unple_masked	acq45_masked	5	4	400	1	300	300	0	0	346	50	0	0	0	0	0	1	blank2r.bmp	0	1	+	0	3	B3r.bmp	492	1	blank2r.bmp	786	1	BMVZ	786	1	blank2r.bmp	866	1	tyrannisch	866	1	!	1239	1	!	1252	0	0	0	0	0	0	0	0	0	0	0	0	0	0	0	0	0	0	0	0	0	0	0	0	0	0	0
031419	10:34:48	10:42:16	446962	5.0.10.0	4_exp_EVA_AMP_AWA_CON	162	Rpleas_acq	Same	Rpleas	Bmasked	CS_B	2pleas	distractor1	EVAbeforeCON	acq_US_unple_masked	acq45_masked	5	5	400	1	300	300	0	0	401	46	0	1	0	0	0	1	blank2r.bmp	0	1	+	0	5	C1r.bmp	492	1	blank2r.bmp	786	1	BMVZ	786	1	blank2r.bmp	866	3	faul	866	1	!	1239	1	!	1306	0	0	0	0	0	0	0	0	0	0	0	0	0	0	0	0	0	0	0	0	0	0	0	0	0	0	0
031419	10:34:48	10:42:18	449054	5.0.10.0	4_exp_EVA_AMP_AWA_CON	162	Rpleas_acq	Same	Rpleas	Bmasked	CS_B	2pleas	distractor1	EVAbeforeCON	acq_US_pleas_masked	acq45_masked	5	6	400	0	300	300	0	0	308	46	0	0	0	0	0	1	blank2r.bmp	0	1	+	0	7	C3r.bmp	492	1	blank2r.bmp	786	1	GKQX	786	1	blank2r.bmp	866	5	freundlich	866	1	!	-1	1	!	-1	0	0	0	0	0	0	0	0	0	0	0	0	0	0	0	0	0	0	0	0	0	0	0	0	0	0	0
031419	10:34:48	10:42:20	451306	5.0.10.0	4_exp_EVA_AMP_AWA_CON	162	Rpleas_acq	Same	Rpleas	Bmasked	CS_B	2pleas	distractor1	EVAbeforeCON	acq_US_unple_masked	acq45_masked	5	7	400	1	300	300	0	0	430	46	0	1	0	0	0	1	blank2r.bmp	0	1	+	0	6	C2r.bmp	492	1	blank2r.bmp	786	1	BMVZ	786	1	blank2r.bmp	866	6	leiden	866	1	!	1239	1	!	1332	0	0	0	0	0	0	0	0	0	0	0	0	0	0	0	0	0	0	0	0	0	0	0	0	0	0	0
031419	10:34:48	10:42:22	453492	5.0.10.0	4_exp_EVA_AMP_AWA_CON	162	Rpleas_acq	Same	Rpleas	Bmasked	CS_B	2pleas	distractor1	EVAbeforeCON	acq_US_unple_masked	acq45_masked	5	8	400	1	300	300	0	0	387	50	0	0	0	0	0	1	blank2r.bmp	0	1	+	0	1	B1r.bmp	492	1	blank2r.bmp	786	1	BMVZ	786	1	blank2r.bmp	866	5	fanatisch	866	1	!	1239	1	!	1292	0	0	0	0	0	0	0	0	0	0	0	0	0	0	0	0	0	0	0	0	0	0	0	0	0	0	0
031419	10:34:48	10:42:24	455665	5.0.10.0	4_exp_EVA_AMP_AWA_CON	162	Rpleas_acq	Same	Rpleas	Bmasked	CS_B	2pleas	distractor1	EVAbeforeCON	acq_US_unple_masked	acq45_masked	5	9	400	1	300	300	0	0	384	46	0	1	0	0	0	1	blank2r.bmp	0	1	+	0	8	C4r.bmp	492	1	blank2r.bmp	786	1	BMVZ	786	1	blank2r.bmp	866	2	schlecht	866	1	!	1239	1	!	1279	0	0	0	0	0	0	0	0	0	0	0	0	0	0	0	0	0	0	0	0	0	0	0	0	0	0	0
031419	10:34:48	10:42:26	457850	5.0.10.0	4_exp_EVA_AMP_AWA_CON	162	Rpleas_acq	Same	Rpleas	Bmasked	CS_B	2pleas	distractor1	EVAbeforeCON	acq_US_pleas_masked	acq45_masked	5	10	400	1	300	300	0	0	382	50	0	1	0	0	0	1	blank2r.bmp	0	1	+	0	3	B3r.bmp	492	1	blank2r.bmp	786	1	GKQX	786	1	blank2r.bmp	866	4	helfen	866	1	!	1239	1	!	1279	0	0	0	0	0	0	0	0	0	0	0	0	0	0	0	0	0	0	0	0	0	0	0	0	0	0	0
031419	10:34:48	10:42:29	460103	5.0.10.0	4_exp_EVA_AMP_AWA_CON	162	Rpleas_acq	Same	Rpleas	Bmasked	CS_B	2pleas	distractor1	EVAbeforeCON	acq_US_unple_masked	acq45_masked	5	11	400	1	300	300	0	0	443	46	0	1	0	0	0	1	blank2r.bmp	0	1	+	0	4	B4r.bmp	492	1	blank2r.bmp	786	1	BMVZ	786	1	blank2r.bmp	866	6	leiden	866	1	!	1239	1	!	1346	0	0	0	0	0	0	0	0	0	0	0	0	0	0	0	0	0	0	0	0	0	0	0	0	0	0	0
031419	10:34:48	10:42:31	462195	5.0.10.0	4_exp_EVA_AMP_AWA_CON	162	Rpleas_acq	Same	Rpleas	Bmasked	CS_B	2pleas	distractor1	EVAbeforeCON	acq_US_pleas_masked	acq45_masked	5	12	400	0	300	300	0	0	330	50	0	1	0	0	0	1	blank2r.bmp	0	1	+	0	2	B2r.bmp	492	1	blank2r.bmp	786	1	GKQX	786	1	blank2r.bmp	866	2	schön	866	1	!	-1	1	!	-1	0	0	0	0	0	0	0	0	0	0	0	0	0	0	0	0	0	0	0	0	0	0	0	0	0	0	0
031419	10:34:48	10:42:33	464461	5.0.10.0	4_exp_EVA_AMP_AWA_CON	162	Rpleas_acq	Same	Rpleas	Bmasked	CS_B	2pleas	distractor1	EVAbeforeCON	acq_US_pleas_masked	acq45_masked	5	13	400	0	300	300	0	0	486	50	0	1	0	0	0	1	blank2r.bmp	0	1	+	0	6	C2r.bmp	492	1	blank2r.bmp	786	1	GKQX	786	1	blank2r.bmp	866	6	lachen	866	1	!	1239	1	!	-1	0	0	0	0	0	0	0	0	0	0	0	0	0	0	0	0	0	0	0	0	0	0	0	0	0	0	0
031419	10:34:48	10:42:35	466620	5.0.10.0	4_exp_EVA_AMP_AWA_CON	162	Rpleas_acq	Same	Rpleas	Bmasked	CS_B	2pleas	distractor1	EVAbeforeCON	acq_US_pleas_masked	acq45_masked	5	14	400	1	300	300	0	0	346	46	0	0	0	0	0	1	blank2r.bmp	0	1	+	0	5	C1r.bmp	492	1	blank2r.bmp	786	1	GKQX	786	1	blank2r.bmp	866	1	tolerant	866	1	!	1239	1	!	1252	0	0	0	0	0	0	0	0	0	0	0	0	0	0	0	0	0	0	0	0	0	0	0	0	0	0	0
031419	10:34:48	10:42:37	468846	5.0.10.0	4_exp_EVA_AMP_AWA_CON	162	Rpleas_acq	Same	Rpleas	Bmasked	CS_B	2pleas	distractor1	EVAbeforeCON	acq_US_pleas_masked	acq45_masked	5	15	400	1	300	300	0	0	426	46	0	0	0	0	0	1	blank2r.bmp	0	1	+	0	7	C3r.bmp	492	1	blank2r.bmp	786	1	GKQX	786	1	blank2r.bmp	866	6	lachen	866	1	!	1239	1	!	1332	0	0	0	0	0	0	0	0	0	0	0	0	0	0	0	0	0	0	0	0	0	0	0	0	0	0	0
031419	10:34:48	10:42:40	471005	5.0.10.0	4_exp_EVA_AMP_AWA_CON	162	Rpleas_acq	Same	Rpleas	Bmasked	CS_B	2pleas	distractor1	EVAbeforeCON	acq_US_unple_masked	acq45_masked	5	16	400	1	300	300	0	0	348	46	0	1	0	0	0	1	blank2r.bmp	0	1	+	0	1	B1r.bmp	492	1	blank2r.bmp	786	1	BMVZ	786	1	blank2r.bmp	866	3	faul	866	1	!	1239	1	!	1252	0	0	0	0	0	0	0	0	0	0	0	0	0	0	0	0	0	0	0	0	0	0	0	0	0	0	0
031419	10:34:48	10:42:42	473231	5.0.10.0	4_exp_EVA_AMP_AWA_CON	162	Rpleas_acq	Same	Rpleas	Bmasked	CS_B	2pleas	distractor1	EVAbeforeCON	acq_US_unple_masked	acq45_masked	5	17	400	1	300	300	0	0	437	46	0	1	0	0	0	1	blank2r.bmp	0	1	+	0	2	B2r.bmp	492	1	blank2r.bmp	786	1	BMVZ	786	1	blank2r.bmp	866	1	tyrannisch	866	1	!	1239	1	!	1332	0	0	0	0	0	0	0	0	0	0	0	0	0	0	0	0	0	0	0	0	0	0	0	0	0	0	0
031419	10:34:48	10:42:44	475443	5.0.10.0	4_exp_EVA_AMP_AWA_CON	162	Rpleas_acq	Same	Rpleas	Bmasked	CS_B	2pleas	distractor1	EVAbeforeCON	acq_US_pleas_masked	acq45_masked	5	18	400	1	300	300	0	0	404	50	0	1	0	0	0	1	blank2r.bmp	0	1	+	0	3	B3r.bmp	492	1	blank2r.bmp	786	1	GKQX	786	1	blank2r.bmp	866	3	fair	866	1	!	1239	1	!	1306	0	0	0	0	0	0	0	0	0	0	0	0	0	0	0	0	0	0	0	0	0	0	0	0	0	0	0
031419	10:34:48	10:42:46	477602	5.0.10.0	4_exp_EVA_AMP_AWA_CON	162	Rpleas_acq	Same	Rpleas	Bmasked	CS_B	2pleas	distractor1	EVAbeforeCON	acq_US_unple_masked	acq45_masked	5	19	400	1	300	300	0	0	366	46	0	1	0	0	0	1	blank2r.bmp	0	1	+	0	6	C2r.bmp	492	1	blank2r.bmp	786	1	BMVZ	786	1	blank2r.bmp	866	2	schlecht	866	1	!	1239	1	!	1266	0	0	0	0	0	0	0	0	0	0	0	0	0	0	0	0	0	0	0	0	0	0	0	0	0	0	0
031419	10:34:48	10:42:48	479775	5.0.10.0	4_exp_EVA_AMP_AWA_CON	162	Rpleas_acq	Same	Rpleas	Bmasked	CS_B	2pleas	distractor1	EVAbeforeCON	acq_US_unple_masked	acq45_masked	5	20	400	1	300	300	0	0	385	46	0	1	0	0	0	1	blank2r.bmp	0	1	+	0	1	B1r.bmp	492	1	blank2r.bmp	786	1	BMVZ	786	1	blank2r.bmp	866	5	fanatisch	866	1	!	1239	1	!	1279	0	0	0	0	0	0	0	0	0	0	0	0	0	0	0	0	0	0	0	0	0	0	0	0	0	0	0
031419	10:34:48	10:42:51	481947	5.0.10.0	4_exp_EVA_AMP_AWA_CON	162	Rpleas_acq	Same	Rpleas	Bmasked	CS_B	2pleas	distractor1	EVAbeforeCON	acq_US_pleas_masked	acq45_masked	5	21	400	1	300	300	0	0	373	50	0	1	0	0	0	1	blank2r.bmp	0	1	+	0	7	C3r.bmp	492	1	blank2r.bmp	786	1	GKQX	786	1	blank2r.bmp	866	5	freundlich	866	1	!	1239	1	!	1279	0	0	0	0	0	0	0	0	0	0	0	0	0	0	0	0	0	0	0	0	0	0	0	0	0	0	0
031419	10:34:48	10:42:55	486185	5.0.10.0	4_exp_EVA_AMP_AWA_CON	162	Rpleas_acq	Same	Rpleas	Bmasked	CS_B	2pleas	distractor1	EVAbeforeCON	acq_US_unple_masked	acq45_masked	5	22	400	0	300	300	0	0	2465	50	0	0	0	0	0	1	blank2r.bmp	0	1	+	0	8	C4r.bmp	492	1	blank2r.bmp	786	1	BMVZ	786	1	blank2r.bmp	866	4	hindern	866	1	!	1239	1	!	-1	0	0	0	0	0	0	0	0	0	0	0	0	0	0	0	0	0	0	0	0	0	0	0	0	0	0	0
031419	10:34:48	10:42:57	488651	5.0.10.0	4_exp_EVA_AMP_AWA_CON	162	Rpleas_acq	Same	Rpleas	Bmasked	CS_B	2pleas	distractor1	EVAbeforeCON	acq_US_unple_masked	acq45_masked	5	23	400	0	300	300	0	0	685	46	0	1	0	0	0	1	blank2r.bmp	0	1	+	0	5	C1r.bmp	492	1	blank2r.bmp	786	1	BMVZ	786	1	blank2r.bmp	866	5	fanatisch	866	1	!	1239	1	!	-1	0	0	0	0	0	0	0	0	0	0	0	0	0	0	0	0	0	0	0	0	0	0	0	0	0	0	0
031419	10:34:48	10:42:59	490837	5.0.10.0	4_exp_EVA_AMP_AWA_CON	162	Rpleas_acq	Same	Rpleas	Bmasked	CS_B	2pleas	distractor1	EVAbeforeCON	acq_US_pleas_masked	acq45_masked	5	24	400	1	300	300	0	0	379	50	0	1	0	0	0	1	blank2r.bmp	0	1	+	0	4	B4r.bmp	492	1	blank2r.bmp	786	1	GKQX	786	1	blank2r.bmp	866	4	helfen	866	1	!	1239	1	!	1279	0	0	0	0	0	0	0	0	0	0	0	0	0	0	0	0	0	0	0	0	0	0	0	0	0	0	0
031419	10:34:48	10:43:02	493076	5.0.10.0	4_exp_EVA_AMP_AWA_CON	162	Rpleas_acq	Same	Rpleas	Bmasked	CS_B	2pleas	distractor1	EVAbeforeCON	acq_US_unple_masked	acq45_masked	5	25	400	1	300	300	0	0	451	46	0	1	0	0	0	1	blank2r.bmp	0	1	+	0	5	C1r.bmp	492	1	blank2r.bmp	786	1	BMVZ	786	1	blank2r.bmp	866	4	hindern	866	1	!	1239	1	!	1346	0	0	0	0	0	0	0	0	0	0	0	0	0	0	0	0	0	0	0	0	0	0	0	0	0	0	0
031419	10:34:48	10:43:04	495302	5.0.10.0	4_exp_EVA_AMP_AWA_CON	162	Rpleas_acq	Same	Rpleas	Bmasked	CS_B	2pleas	distractor1	EVAbeforeCON	acq_US_unple_masked	acq45_masked	5	26	400	1	300	300	0	0	438	46	0	1	0	0	0	1	blank2r.bmp	0	1	+	0	2	B2r.bmp	492	1	blank2r.bmp	786	1	BMVZ	786	1	blank2r.bmp	866	2	schlecht	866	1	!	1239	1	!	1332	0	0	0	0	0	0	0	0	0	0	0	0	0	0	0	0	0	0	0	0	0	0	0	0	0	0	0
031419	10:34:48	10:43:06	497447	5.0.10.0	4_exp_EVA_AMP_AWA_CON	162	Rpleas_acq	Same	Rpleas	Bmasked	CS_B	2pleas	distractor1	EVAbeforeCON	acq_US_pleas_masked	acq45_masked	5	27	400	1	300	300	0	0	346	50	0	1	0	0	0	1	blank2r.bmp	0	1	+	0	3	B3r.bmp	492	1	blank2r.bmp	786	1	GKQX	786	1	blank2r.bmp	866	2	schön	866	1	!	1239	1	!	1252	0	0	0	0	0	0	0	0	0	0	0	0	0	0	0	0	0	0	0	0	0	0	0	0	0	0	0
031419	10:34:48	10:43:08	499633	5.0.10.0	4_exp_EVA_AMP_AWA_CON	162	Rpleas_acq	Same	Rpleas	Bmasked	CS_B	2pleas	distractor1	EVAbeforeCON	acq_US_pleas_masked	acq45_masked	5	28	400	1	300	300	0	0	389	46	0	0	0	0	0	1	blank2r.bmp	0	1	+	0	4	B4r.bmp	492	1	blank2r.bmp	786	1	GKQX	786	1	blank2r.bmp	866	1	tolerant	866	1	!	1239	1	!	1292	0	0	0	0	0	0	0	0	0	0	0	0	0	0	0	0	0	0	0	0	0	0	0	0	0	0	0
031419	10:34:48	10:43:11	501912	5.0.10.0	4_exp_EVA_AMP_AWA_CON	162	Rpleas_acq	Same	Rpleas	Bmasked	CS_B	2pleas	distractor1	EVAbeforeCON	acq_US_pleas_masked	acq45_masked	5	29	400	0	300	300	0	0	510	50	0	1	0	0	0	1	blank2r.bmp	0	1	+	0	8	C4r.bmp	492	1	blank2r.bmp	786	1	GKQX	786	1	blank2r.bmp	866	5	freundlich	866	1	!	1239	1	!	-1	0	0	0	0	0	0	0	0	0	0	0	0	0	0	0	0	0	0	0	0	0	0	0	0	0	0	0
031419	10:34:48	10:43:13	504098	5.0.10.0	4_exp_EVA_AMP_AWA_CON	162	Rpleas_acq	Same	Rpleas	Bmasked	CS_B	2pleas	distractor1	EVAbeforeCON	acq_US_unple_masked	acq45_masked	5	30	400	1	300	300	0	0	381	46	0	1	0	0	0	1	blank2r.bmp	0	1	+	0	1	B1r.bmp	492	1	blank2r.bmp	786	1	BMVZ	786	1	blank2r.bmp	866	6	leiden	866	1	!	1239	1	!	1279	0	0	0	0	0	0	0	0	0	0	0	0	0	0	0	0	0	0	0	0	0	0	0	0	0	0	0
031419	10:34:48	10:43:15	506404	5.0.10.0	4_exp_EVA_AMP_AWA_CON	162	Rpleas_acq	Same	Rpleas	Bmasked	CS_B	2pleas	distractor1	EVAbeforeCON	acq_US_pleas_masked	acq45_masked	5	31	400	0	300	300	0	0	544	50	0	1	0	0	0	1	blank2r.bmp	0	1	+	0	6	C2r.bmp	492	1	blank2r.bmp	786	1	GKQX	786	1	blank2r.bmp	866	2	schön	866	1	!	1239	1	!	-1	0	0	0	0	0	0	0	0	0	0	0	0	0	0	0	0	0	0	0	0	0	0	0	0	0	0	0
031419	10:34:48	10:43:17	508496	5.0.10.0	4_exp_EVA_AMP_AWA_CON	162	Rpleas_acq	Same	Rpleas	Bmasked	CS_B	2pleas	distractor1	EVAbeforeCON	acq_US_pleas_masked	acq45_masked	5	32	400	0	300	300	0	0	310	46	0	0	0	0	0	1	blank2r.bmp	0	1	+	0	7	C3r.bmp	492	1	blank2r.bmp	786	1	GKQX	786	1	blank2r.bmp	866	4	helfen	866	1	!	-1	1	!	-1	0	0	0	0	0	0	0	0	0	0	0	0	0	0	0	0	0	0	0	0	0	0	0	0	0	0	0
031419	10:34:48	10:43:19	510722	5.0.10.0	4_exp_EVA_AMP_AWA_CON	162	Rpleas_acq	Same	Rpleas	Bmasked	CS_B	2pleas	distractor1	EVAbeforeCON	acq_US_pleas_masked	acq45_masked	5	33	400	1	300	300	0	0	420	50	0	1	0	0	0	1	blank2r.bmp	0	1	+	0	7	C3r.bmp	492	1	blank2r.bmp	786	1	GKQX	786	1	blank2r.bmp	866	3	fair	866	1	!	1239	1	!	1319	0	0	0	0	0	0	0	0	0	0	0	0	0	0	0	0	0	0	0	0	0	0	0	0	0	0	0
031419	10:34:48	10:43:22	513068	5.0.10.0	4_exp_EVA_AMP_AWA_CON	162	Rpleas_acq	Same	Rpleas	Bmasked	CS_B	2pleas	distractor1	EVAbeforeCON	acq_US_unple_masked	acq45_masked	5	34	400	0	300	300	0	0	574	46	0	1	0	0	0	1	blank2r.bmp	0	1	+	0	6	C2r.bmp	492	1	blank2r.bmp	786	1	BMVZ	786	1	blank2r.bmp	866	3	faul	866	1	!	1239	1	!	-1	0	0	0	0	0	0	0	0	0	0	0	0	0	0	0	0	0	0	0	0	0	0	0	0	0	0	0
031419	10:34:48	10:43:24	515387	5.0.10.0	4_exp_EVA_AMP_AWA_CON	162	Rpleas_acq	Same	Rpleas	Bmasked	CS_B	2pleas	distractor1	EVAbeforeCON	acq_US_pleas_masked	acq45_masked	5	35	400	0	300	300	0	0	535	50	0	1	0	0	0	1	blank2r.bmp	0	1	+	0	8	C4r.bmp	492	1	blank2r.bmp	786	1	GKQX	786	1	blank2r.bmp	866	6	lachen	866	1	!	1239	1	!	-1	0	0	0	0	0	0	0	0	0	0	0	0	0	0	0	0	0	0	0	0	0	0	0	0	0	0	0
031419	10:34:48	10:43:26	517746	5.0.10.0	4_exp_EVA_AMP_AWA_CON	162	Rpleas_acq	Same	Rpleas	Bmasked	CS_B	2pleas	distractor1	EVAbeforeCON	acq_US_unple_masked	acq45_masked	5	36	400	0	300	300	0	0	577	46	0	1	0	0	0	1	blank2r.bmp	0	1	+	0	3	B3r.bmp	492	1	blank2r.bmp	786	1	BMVZ	786	1	blank2r.bmp	866	1	tyrannisch	866	1	!	1239	1	!	-1	0	0	0	0	0	0	0	0	0	0	0	0	0	0	0	0	0	0	0	0	0	0	0	0	0	0	0
031419	10:34:48	10:43:41	532153	5.0.10.0	4_exp_EVA_AMP_AWA_CON	162	Rpleas_acq	Same	Rpleas	Bmasked	CS_B	2pleas	distractor1	EVAbeforeCON	EvalRating_firsttwo	EvalRating_firsttwo	6	1	0	0	300	300	0	0	2566	line	-63,9648437499999928946	0	0	0	0	1	eraser	0	1	Wie angenehm oder unangenehm finden Sie die  Buchstabenkette WFPH?	0	1	leftborder	0	1	rightborder	0	1	line	0	1	Unangenehm	0	1	Angenehm	0	0	0	0	0	0	0	0	0	0	0	0	0	0	0	0	0	0	0	0	0	0	0	0	0	0	0	0	0	0	0	0	0	0
031419	10:34:48	10:43:45	536178	5.0.10.0	4_exp_EVA_AMP_AWA_CON	162	Rpleas_acq	Same	Rpleas	Bmasked	CS_B	2pleas	distractor1	EVAbeforeCON	EvalRating_lastfour	EvalRating_lastfour	7	1	0	0	300	300	0	0	1578	line	-59,0820312499999928946	0	0	0	0	1	eraser	1	1	Wie angenehm oder unangenehm finden Sie die  Buchstabenkette BMVZ?	1	1	leftborder	1	1	rightborder	1	1	line	1	1	Unangenehm	1	1	Angenehm	1	0	0	0	0	0	0	0	0	0	0	0	0	0	0	0	0	0	0	0	0	0	0	0	0	0	0	0	0	0	0	0	0	0
031419	10:34:48	10:43:47	538550	5.0.10.0	4_exp_EVA_AMP_AWA_CON	162	Rpleas_acq	Same	Rpleas	Bmasked	CS_B	2pleas	distractor1	EVAbeforeCON	blank_screen	EvalRating_lastfour	7	3	0	0	300	300	0	0	0	0	-59,0820312499999928946	0	0	0	0	1	eraser	0	0	0	0	0	0	0	0	0	0	0	0	0	0	0	0	0	0	0	0	0	0	0	0	0	0	0	0	0	0	0	0	0	0	0	0	0	0	0	0	0	0	0	0	0	0	0	0	0	0	0	0
031419	10:34:48	10:43:50	540989	5.0.10.0	4_exp_EVA_AMP_AWA_CON	162	Rpleas_acq	Same	Rpleas	Bmasked	CS_B	2pleas	distractor1	EVAbeforeCON	EvalRating_lastfour	EvalRating_lastfour	7	4	0	0	300	300	0	0	1859	line	-76,171875	0	0	0	0	1	eraser	1	3	Wie angenehm oder unangenehm finden Sie die  Buchstabenkette JCRD?	1	1	leftborder	1	1	rightborder	1	1	line	1	1	Unangenehm	1	1	Angenehm	1	0	0	0	0	0	0	0	0	0	0	0	0	0	0	0	0	0	0	0	0	0	0	0	0	0	0	0	0	0	0	0	0	0
031419	10:34:48	10:43:52	543388	5.0.10.0	4_exp_EVA_AMP_AWA_CON	162	Rpleas_acq	Same	Rpleas	Bmasked	CS_B	2pleas	distractor1	EVAbeforeCON	blank_screen	EvalRating_lastfour	7	6	0	0	300	300	0	0	0	0	-76,171875	0	0	0	0	1	eraser	0	0	0	0	0	0	0	0	0	0	0	0	0	0	0	0	0	0	0	0	0	0	0	0	0	0	0	0	0	0	0	0	0	0	0	0	0	0	0	0	0	0	0	0	0	0	0	0	0	0	0	0
031419	10:34:48	10:43:55	546174	5.0.10.0	4_exp_EVA_AMP_AWA_CON	162	Rpleas_acq	Same	Rpleas	Bmasked	CS_B	2pleas	distractor1	EVAbeforeCON	EvalRating_lastfour	EvalRating_lastfour	7	7	0	0	300	300	0	0	2211	line	-74,951171875	0	0	0	0	1	eraser	1	2	Wie angenehm oder unangenehm finden Sie die  Buchstabenkette GKQX?	1	1	leftborder	1	1	rightborder	1	1	line	1	1	Unangenehm	1	1	Angenehm	1	0	0	0	0	0	0	0	0	0	0	0	0	0	0	0	0	0	0	0	0	0	0	0	0	0	0	0	0	0	0	0	0	0
031419	10:34:48	10:44:08	558902	5.0.10.0	4_exp_EVA_AMP_AWA_CON	162	Rpleas_acq	Same	Rpleas	Bmasked	CS_B	2pleas	distractor1	EVAbeforeCON	AMP_CSpleas	AMP1_masked	8	1	0	0	300	300	0	0	4217	46	-74,951171875	0	0	0	0	1	blank2r.bmp	0	1	GKQX	0	1	blank2r.bmp	79	128	pic128.bmp	199	1	whitenoise_No3.bmp	306	0	0	0	0	0	0	0	0	0	0	0	0	0	0	0	0	0	0	0	0	0	0	0	0	0	0	0	0	0	0	0	0	0	0	0	0	0	0	0
031419	10:34:48	10:44:10	561474	5.0.10.0	4_exp_EVA_AMP_AWA_CON	162	Rpleas_acq	Same	Rpleas	Bmasked	CS_B	2pleas	distractor1	EVAbeforeCON	AMP_CSpleas	AMP1_masked	8	2	0	0	300	300	0	0	1648	46	-74,951171875	0	0	0	0	1	blank2r.bmp	0	1	GKQX	0	1	blank2r.bmp	79	110	pic110.bmp	199	1	whitenoise_No3.bmp	306	0	0	0	0	0	0	0	0	0	0	0	0	0	0	0	0	0	0	0	0	0	0	0	0	0	0	0	0	0	0	0	0	0	0	0	0	0	0	0
031419	10:34:48	10:44:12	562954	5.0.10.0	4_exp_EVA_AMP_AWA_CON	162	Rpleas_acq	Same	Rpleas	Bmasked	CS_B	2pleas	distractor1	EVAbeforeCON	AMP_CSunple	AMP1_masked	8	3	0	0	300	300	0	0	552	46	-74,951171875	1	0	0	0	1	blank2r.bmp	0	1	BMVZ	0	1	blank2r.bmp	79	108	pic108.bmp	199	1	whitenoise_No3.bmp	306	0	0	0	0	0	0	0	0	0	0	0	0	0	0	0	0	0	0	0	0	0	0	0	0	0	0	0	0	0	0	0	0	0	0	0	0	0	0	0
031419	10:34:48	10:44:13	564353	5.0.10.0	4_exp_EVA_AMP_AWA_CON	162	Rpleas_acq	Same	Rpleas	Bmasked	CS_B	2pleas	distractor1	EVAbeforeCON	AMP_CSunple	AMP1_masked	8	4	0	0	300	300	0	0	468	46	-74,951171875	1	0	0	0	1	blank2r.bmp	0	1	BMVZ	0	1	blank2r.bmp	79	69	pic69.bmp	199	1	whitenoise_No3.bmp	306	0	0	0	0	0	0	0	0	0	0	0	0	0	0	0	0	0	0	0	0	0	0	0	0	0	0	0	0	0	0	0	0	0	0	0	0	0	0	0
031419	10:34:48	10:44:14	565819	5.0.10.0	4_exp_EVA_AMP_AWA_CON	162	Rpleas_acq	Same	Rpleas	Bmasked	CS_B	2pleas	distractor1	EVAbeforeCON	AMP_CSunple	AMP1_masked	8	5	0	0	300	300	0	0	548	46	-74,951171875	1	0	0	0	1	blank2r.bmp	0	1	BMVZ	0	1	blank2r.bmp	79	62	pic62.bmp	199	1	whitenoise_No3.bmp	306	0	0	0	0	0	0	0	0	0	0	0	0	0	0	0	0	0	0	0	0	0	0	0	0	0	0	0	0	0	0	0	0	0	0	0	0	0	0	0
031419	10:34:48	10:44:16	567232	5.0.10.0	4_exp_EVA_AMP_AWA_CON	162	Rpleas_acq	Same	Rpleas	Bmasked	CS_B	2pleas	distractor1	EVAbeforeCON	AMP_CSpleas	AMP1_masked	8	6	0	0	300	300	0	0	502	46	-74,951171875	0	0	0	0	1	blank2r.bmp	0	1	GKQX	0	1	blank2r.bmp	79	28	pic28.bmp	199	1	whitenoise_No3.bmp	306	0	0	0	0	0	0	0	0	0	0	0	0	0	0	0	0	0	0	0	0	0	0	0	0	0	0	0	0	0	0	0	0	0	0	0	0	0	0	0
031419	10:34:48	10:44:17	568831	5.0.10.0	4_exp_EVA_AMP_AWA_CON	162	Rpleas_acq	Same	Rpleas	Bmasked	CS_B	2pleas	distractor1	EVAbeforeCON	AMP_CSunple	AMP1_masked	8	7	0	0	300	300	0	0	670	50	-74,951171875	0	0	0	0	1	blank2r.bmp	0	1	BMVZ	0	1	blank2r.bmp	79	24	pic24.bmp	199	1	whitenoise_No3.bmp	306	0	0	0	0	0	0	0	0	0	0	0	0	0	0	0	0	0	0	0	0	0	0	0	0	0	0	0	0	0	0	0	0	0	0	0	0	0	0	0
031419	10:34:48	10:44:19	570231	5.0.10.0	4_exp_EVA_AMP_AWA_CON	162	Rpleas_acq	Same	Rpleas	Bmasked	CS_B	2pleas	distractor1	EVAbeforeCON	AMP_distractor	AMP1_masked	8	8	0	0	300	300	0	0	490	46	-74,951171875	0	0	0	0	1	blank2r.bmp	0	1	WFPH	0	1	blank2r.bmp	79	84	pic84.bmp	199	1	whitenoise_No3.bmp	306	0	0	0	0	0	0	0	0	0	0	0	0	0	0	0	0	0	0	0	0	0	0	0	0	0	0	0	0	0	0	0	0	0	0	0	0	0	0	0
031419	10:34:48	10:44:20	571803	5.0.10.0	4_exp_EVA_AMP_AWA_CON	162	Rpleas_acq	Same	Rpleas	Bmasked	CS_B	2pleas	distractor1	EVAbeforeCON	AMP_CSpleas	AMP1_masked	8	9	0	0	300	300	0	0	646	46	-74,951171875	0	0	0	0	1	blank2r.bmp	0	1	GKQX	0	1	blank2r.bmp	79	22	pic22.bmp	199	1	whitenoise_No3.bmp	306	0	0	0	0	0	0	0	0	0	0	0	0	0	0	0	0	0	0	0	0	0	0	0	0	0	0	0	0	0	0	0	0	0	0	0	0	0	0	0
031419	10:34:48	10:44:22	573269	5.0.10.0	4_exp_EVA_AMP_AWA_CON	162	Rpleas_acq	Same	Rpleas	Bmasked	CS_B	2pleas	distractor1	EVAbeforeCON	AMP_CSpleas	AMP1_masked	8	10	0	0	300	300	0	0	533	46	-74,951171875	0	0	0	0	1	blank2r.bmp	0	1	GKQX	0	1	blank2r.bmp	79	118	pic118.bmp	199	1	whitenoise_No3.bmp	306	0	0	0	0	0	0	0	0	0	0	0	0	0	0	0	0	0	0	0	0	0	0	0	0	0	0	0	0	0	0	0	0	0	0	0	0	0	0	0
031419	10:34:48	10:44:23	574789	5.0.10.0	4_exp_EVA_AMP_AWA_CON	162	Rpleas_acq	Same	Rpleas	Bmasked	CS_B	2pleas	distractor1	EVAbeforeCON	AMP_distractor	AMP1_masked	8	11	0	0	300	300	0	0	605	50	-74,951171875	0	0	0	0	1	blank2r.bmp	0	1	WFPH	0	1	blank2r.bmp	79	106	pic106.bmp	199	1	whitenoise_No3.bmp	306	0	0	0	0	0	0	0	0	0	0	0	0	0	0	0	0	0	0	0	0	0	0	0	0	0	0	0	0	0	0	0	0	0	0	0	0	0	0	0
031419	10:34:48	10:44:25	576641	5.0.10.0	4_exp_EVA_AMP_AWA_CON	162	Rpleas_acq	Same	Rpleas	Bmasked	CS_B	2pleas	distractor1	EVAbeforeCON	AMP_CSpleas	AMP1_masked	8	12	0	0	300	300	0	0	936	50	-74,951171875	1	0	0	0	1	blank2r.bmp	0	1	GKQX	0	1	blank2r.bmp	79	150	pic150.bmp	199	1	whitenoise_No3.bmp	306	0	0	0	0	0	0	0	0	0	0	0	0	0	0	0	0	0	0	0	0	0	0	0	0	0	0	0	0	0	0	0	0	0	0	0	0	0	0	0
031419	10:34:48	10:44:27	578041	5.0.10.0	4_exp_EVA_AMP_AWA_CON	162	Rpleas_acq	Same	Rpleas	Bmasked	CS_B	2pleas	distractor1	EVAbeforeCON	AMP_CSunple	AMP1_masked	8	13	0	0	300	300	0	0	466	46	-74,951171875	1	0	0	0	1	blank2r.bmp	0	1	BMVZ	0	1	blank2r.bmp	79	80	pic80.bmp	199	1	whitenoise_No3.bmp	306	0	0	0	0	0	0	0	0	0	0	0	0	0	0	0	0	0	0	0	0	0	0	0	0	0	0	0	0	0	0	0	0	0	0	0	0	0	0	0
031419	10:34:48	10:44:28	579507	5.0.10.0	4_exp_EVA_AMP_AWA_CON	162	Rpleas_acq	Same	Rpleas	Bmasked	CS_B	2pleas	distractor1	EVAbeforeCON	AMP_distractor	AMP1_masked	8	14	0	0	300	300	0	0	548	50	-74,951171875	0	0	0	0	1	blank2r.bmp	0	1	WFPH	0	1	blank2r.bmp	79	121	pic121.bmp	199	1	whitenoise_No3.bmp	306	0	0	0	0	0	0	0	0	0	0	0	0	0	0	0	0	0	0	0	0	0	0	0	0	0	0	0	0	0	0	0	0	0	0	0	0	0	0	0
031419	10:34:48	10:44:30	581040	5.0.10.0	4_exp_EVA_AMP_AWA_CON	162	Rpleas_acq	Same	Rpleas	Bmasked	CS_B	2pleas	distractor1	EVAbeforeCON	AMP_CSunple	AMP1_masked	8	15	0	0	300	300	0	0	611	50	-74,951171875	0	0	0	0	1	blank2r.bmp	0	1	BMVZ	0	1	blank2r.bmp	79	17	pic17.bmp	199	1	whitenoise_No3.bmp	306	0	0	0	0	0	0	0	0	0	0	0	0	0	0	0	0	0	0	0	0	0	0	0	0	0	0	0	0	0	0	0	0	0	0	0	0	0	0	0
031419	10:34:48	10:44:31	582386	5.0.10.0	4_exp_EVA_AMP_AWA_CON	162	Rpleas_acq	Same	Rpleas	Bmasked	CS_B	2pleas	distractor1	EVAbeforeCON	AMP_CSunple	AMP1_masked	8	16	0	0	300	300	0	0	429	50	-74,951171875	0	0	0	0	1	blank2r.bmp	0	1	BMVZ	0	1	blank2r.bmp	79	39	pic39.bmp	199	1	whitenoise_No3.bmp	306	0	0	0	0	0	0	0	0	0	0	0	0	0	0	0	0	0	0	0	0	0	0	0	0	0	0	0	0	0	0	0	0	0	0	0	0	0	0	0
031419	10:34:48	10:44:32	583718	5.0.10.0	4_exp_EVA_AMP_AWA_CON	162	Rpleas_acq	Same	Rpleas	Bmasked	CS_B	2pleas	distractor1	EVAbeforeCON	AMP_distractor	AMP1_masked	8	17	0	0	300	300	0	0	420	46	-74,951171875	0	0	0	0	1	blank2r.bmp	0	1	WFPH	0	1	blank2r.bmp	79	34	pic34.bmp	199	1	whitenoise_No3.bmp	306	0	0	0	0	0	0	0	0	0	0	0	0	0	0	0	0	0	0	0	0	0	0	0	0	0	0	0	0	0	0	0	0	0	0	0	0	0	0	0
031419	10:34:48	10:44:34	585318	5.0.10.0	4_exp_EVA_AMP_AWA_CON	162	Rpleas_acq	Same	Rpleas	Bmasked	CS_B	2pleas	distractor1	EVAbeforeCON	AMP_CSunple	AMP1_masked	8	18	0	0	300	300	0	0	667	46	-74,951171875	1	0	0	0	1	blank2r.bmp	0	1	BMVZ	0	1	blank2r.bmp	79	61	pic61.bmp	199	1	whitenoise_No3.bmp	306	0	0	0	0	0	0	0	0	0	0	0	0	0	0	0	0	0	0	0	0	0	0	0	0	0	0	0	0	0	0	0	0	0	0	0	0	0	0	0
031419	10:34:48	10:44:35	586571	5.0.10.0	4_exp_EVA_AMP_AWA_CON	162	Rpleas_acq	Same	Rpleas	Bmasked	CS_B	2pleas	distractor1	EVAbeforeCON	AMP_CSunple	AMP1_masked	8	19	0	0	300	300	0	0	343	46	-74,951171875	1	0	0	0	1	blank2r.bmp	0	1	BMVZ	0	1	blank2r.bmp	79	140	pic140.bmp	199	1	whitenoise_No3.bmp	306	0	0	0	0	0	0	0	0	0	0	0	0	0	0	0	0	0	0	0	0	0	0	0	0	0	0	0	0	0	0	0	0	0	0	0	0	0	0	0
031419	10:34:48	10:44:37	588143	5.0.10.0	4_exp_EVA_AMP_AWA_CON	162	Rpleas_acq	Same	Rpleas	Bmasked	CS_B	2pleas	distractor1	EVAbeforeCON	AMP_distractor	AMP1_masked	8	20	0	0	300	300	0	0	651	50	-74,951171875	0	0	0	0	1	blank2r.bmp	0	1	WFPH	0	1	blank2r.bmp	79	119	pic119.bmp	199	1	whitenoise_No3.bmp	306	0	0	0	0	0	0	0	0	0	0	0	0	0	0	0	0	0	0	0	0	0	0	0	0	0	0	0	0	0	0	0	0	0	0	0	0	0	0	0
031419	10:34:48	10:44:38	589463	5.0.10.0	4_exp_EVA_AMP_AWA_CON	162	Rpleas_acq	Same	Rpleas	Bmasked	CS_B	2pleas	distractor1	EVAbeforeCON	AMP_CSpleas	AMP1_masked	8	21	0	0	300	300	0	0	386	46	-74,951171875	0	0	0	0	1	blank2r.bmp	0	1	GKQX	0	1	blank2r.bmp	79	16	pic16.bmp	199	1	whitenoise_No3.bmp	306	0	0	0	0	0	0	0	0	0	0	0	0	0	0	0	0	0	0	0	0	0	0	0	0	0	0	0	0	0	0	0	0	0	0	0	0	0	0	0
031419	10:34:48	10:44:39	590769	5.0.10.0	4_exp_EVA_AMP_AWA_CON	162	Rpleas_acq	Same	Rpleas	Bmasked	CS_B	2pleas	distractor1	EVAbeforeCON	AMP_distractor	AMP1_masked	8	22	0	0	300	300	0	0	385	50	-74,951171875	0	0	0	0	1	blank2r.bmp	0	1	WFPH	0	1	blank2r.bmp	79	103	pic103.bmp	199	1	whitenoise_No3.bmp	306	0	0	0	0	0	0	0	0	0	0	0	0	0	0	0	0	0	0	0	0	0	0	0	0	0	0	0	0	0	0	0	0	0	0	0	0	0	0	0
031419	10:34:48	10:44:41	592128	5.0.10.0	4_exp_EVA_AMP_AWA_CON	162	Rpleas_acq	Same	Rpleas	Bmasked	CS_B	2pleas	distractor1	EVAbeforeCON	AMP_distractor	AMP1_masked	8	23	0	0	300	300	0	0	442	46	-74,951171875	0	0	0	0	1	blank2r.bmp	0	1	WFPH	0	1	blank2r.bmp	79	35	pic35.bmp	199	1	whitenoise_No3.bmp	306	0	0	0	0	0	0	0	0	0	0	0	0	0	0	0	0	0	0	0	0	0	0	0	0	0	0	0	0	0	0	0	0	0	0	0	0	0	0	0
031419	10:34:48	10:44:42	593461	5.0.10.0	4_exp_EVA_AMP_AWA_CON	162	Rpleas_acq	Same	Rpleas	Bmasked	CS_B	2pleas	distractor1	EVAbeforeCON	AMP_CSpleas	AMP1_masked	8	24	0	0	300	300	0	0	400	46	-74,951171875	0	0	0	0	1	blank2r.bmp	0	1	GKQX	0	1	blank2r.bmp	79	3	pic3.bmp	199	1	whitenoise_No3.bmp	306	0	0	0	0	0	0	0	0	0	0	0	0	0	0	0	0	0	0	0	0	0	0	0	0	0	0	0	0	0	0	0	0	0	0	0	0	0	0	0
031419	10:34:48	10:44:44	594900	5.0.10.0	4_exp_EVA_AMP_AWA_CON	162	Rpleas_acq	Same	Rpleas	Bmasked	CS_B	2pleas	distractor1	EVAbeforeCON	AMP_CSpleas	AMP1_masked	8	25	0	0	300	300	0	0	531	50	-74,951171875	1	0	0	0	1	blank2r.bmp	0	1	GKQX	0	1	blank2r.bmp	79	135	pic135.bmp	199	1	whitenoise_No3.bmp	306	0	0	0	0	0	0	0	0	0	0	0	0	0	0	0	0	0	0	0	0	0	0	0	0	0	0	0	0	0	0	0	0	0	0	0	0	0	0	0
031419	10:34:48	10:44:45	596233	5.0.10.0	4_exp_EVA_AMP_AWA_CON	162	Rpleas_acq	Same	Rpleas	Bmasked	CS_B	2pleas	distractor1	EVAbeforeCON	AMP_distractor	AMP1_masked	8	26	0	0	300	300	0	0	401	46	-74,951171875	0	0	0	0	1	blank2r.bmp	0	1	WFPH	0	1	blank2r.bmp	79	47	pic47.bmp	199	1	whitenoise_No3.bmp	306	0	0	0	0	0	0	0	0	0	0	0	0	0	0	0	0	0	0	0	0	0	0	0	0	0	0	0	0	0	0	0	0	0	0	0	0	0	0	0
031419	10:34:48	10:44:46	597859	5.0.10.0	4_exp_EVA_AMP_AWA_CON	162	Rpleas_acq	Same	Rpleas	Bmasked	CS_B	2pleas	distractor1	EVAbeforeCON	AMP_CSunple	AMP1_masked	8	27	0	0	300	300	0	0	703	46	-74,951171875	1	0	0	0	1	blank2r.bmp	0	1	BMVZ	0	1	blank2r.bmp	79	101	pic101.bmp	199	1	whitenoise_No3.bmp	306	0	0	0	0	0	0	0	0	0	0	0	0	0	0	0	0	0	0	0	0	0	0	0	0	0	0	0	0	0	0	0	0	0	0	0	0	0	0	0
031419	10:34:48	10:44:48	599325	5.0.10.0	4_exp_EVA_AMP_AWA_CON	162	Rpleas_acq	Same	Rpleas	Bmasked	CS_B	2pleas	distractor1	EVAbeforeCON	AMP_distractor	AMP1_masked	8	28	0	0	300	300	0	0	552	46	-74,951171875	0	0	0	0	1	blank2r.bmp	0	1	WFPH	0	1	blank2r.bmp	79	25	pic25.bmp	199	1	whitenoise_No3.bmp	306	0	0	0	0	0	0	0	0	0	0	0	0	0	0	0	0	0	0	0	0	0	0	0	0	0	0	0	0	0	0	0	0	0	0	0	0	0	0	0
031419	10:34:48	10:44:49	600765	5.0.10.0	4_exp_EVA_AMP_AWA_CON	162	Rpleas_acq	Same	Rpleas	Bmasked	CS_B	2pleas	distractor1	EVAbeforeCON	AMP_CSpleas	AMP1_masked	8	29	0	0	300	300	0	0	507	50	-74,951171875	1	0	0	0	1	blank2r.bmp	0	1	GKQX	0	1	blank2r.bmp	79	120	pic120.bmp	199	1	whitenoise_No3.bmp	306	0	0	0	0	0	0	0	0	0	0	0	0	0	0	0	0	0	0	0	0	0	0	0	0	0	0	0	0	0	0	0	0	0	0	0	0	0	0	0
031419	10:34:48	10:44:51	602031	5.0.10.0	4_exp_EVA_AMP_AWA_CON	162	Rpleas_acq	Same	Rpleas	Bmasked	CS_B	2pleas	distractor1	EVAbeforeCON	AMP_distractor	AMP1_masked	8	30	0	0	300	300	0	0	347	50	-74,951171875	0	0	0	0	1	blank2r.bmp	0	1	WFPH	0	1	blank2r.bmp	79	9	pic9.bmp	199	1	whitenoise_No3.bmp	306	0	0	0	0	0	0	0	0	0	0	0	0	0	0	0	0	0	0	0	0	0	0	0	0	0	0	0	0	0	0	0	0	0	0	0	0	0	0	0
031419	10:34:48	10:44:52	603870	5.0.10.0	4_exp_EVA_AMP_AWA_CON	162	Rpleas_acq	Same	Rpleas	Bmasked	CS_B	2pleas	distractor1	EVAbeforeCON	AMP_CSunple	AMP1_masked	8	31	0	0	300	300	0	0	925	50	-74,951171875	0	0	0	0	1	blank2r.bmp	0	1	BMVZ	0	1	blank2r.bmp	79	143	pic143.bmp	199	1	whitenoise_No3.bmp	306	0	0	0	0	0	0	0	0	0	0	0	0	0	0	0	0	0	0	0	0	0	0	0	0	0	0	0	0	0	0	0	0	0	0	0	0	0	0	0
031419	10:34:48	10:44:54	605096	5.0.10.0	4_exp_EVA_AMP_AWA_CON	162	Rpleas_acq	Same	Rpleas	Bmasked	CS_B	2pleas	distractor1	EVAbeforeCON	AMP_CSpleas	AMP1_masked	8	32	0	0	300	300	0	0	315	46	-74,951171875	0	0	0	0	1	blank2r.bmp	0	1	GKQX	0	1	blank2r.bmp	79	41	pic41.bmp	199	1	whitenoise_No3.bmp	306	0	0	0	0	0	0	0	0	0	0	0	0	0	0	0	0	0	0	0	0	0	0	0	0	0	0	0	0	0	0	0	0	0	0	0	0	0	0	0
031419	10:34:48	10:44:55	606322	5.0.10.0	4_exp_EVA_AMP_AWA_CON	162	Rpleas_acq	Same	Rpleas	Bmasked	CS_B	2pleas	distractor1	EVAbeforeCON	AMP_distractor	AMP1_masked	8	33	0	0	300	300	0	0	301	46	-74,951171875	0	0	0	0	1	blank2r.bmp	0	1	WFPH	0	1	blank2r.bmp	79	132	pic132.bmp	199	1	whitenoise_No3.bmp	306	0	0	0	0	0	0	0	0	0	0	0	0	0	0	0	0	0	0	0	0	0	0	0	0	0	0	0	0	0	0	0	0	0	0	0	0	0	0	0
031419	10:34:48	10:44:56	607589	5.0.10.0	4_exp_EVA_AMP_AWA_CON	162	Rpleas_acq	Same	Rpleas	Bmasked	CS_B	2pleas	distractor1	EVAbeforeCON	AMP_distractor	AMP1_masked	8	34	0	0	300	300	0	0	340	50	-74,951171875	0	0	0	0	1	blank2r.bmp	0	1	WFPH	0	1	blank2r.bmp	79	99	pic99.bmp	199	1	whitenoise_No3.bmp	306	0	0	0	0	0	0	0	0	0	0	0	0	0	0	0	0	0	0	0	0	0	0	0	0	0	0	0	0	0	0	0	0	0	0	0	0	0	0	0
031419	10:34:48	10:44:57	608761	5.0.10.0	4_exp_EVA_AMP_AWA_CON	162	Rpleas_acq	Same	Rpleas	Bmasked	CS_B	2pleas	distractor1	EVAbeforeCON	AMP_CSunple	AMP1_masked	8	35	0	0	300	300	0	0	239	50	-74,951171875	0	0	0	0	1	blank2r.bmp	0	1	BMVZ	0	1	blank2r.bmp	79	74	pic74.bmp	199	1	whitenoise_No3.bmp	306	0	0	0	0	0	0	0	0	0	0	0	0	0	0	0	0	0	0	0	0	0	0	0	0	0	0	0	0	0	0	0	0	0	0	0	0	0	0	0
031419	10:34:48	10:44:59	609934	5.0.10.0	4_exp_EVA_AMP_AWA_CON	162	Rpleas_acq	Same	Rpleas	Bmasked	CS_B	2pleas	distractor1	EVAbeforeCON	AMP_distractor	AMP1_masked	8	36	0	0	300	300	0	0	243	50	-74,951171875	0	0	0	0	1	blank2r.bmp	0	1	WFPH	0	1	blank2r.bmp	79	18	pic18.bmp	199	1	whitenoise_No3.bmp	306	0	0	0	0	0	0	0	0	0	0	0	0	0	0	0	0	0	0	0	0	0	0	0	0	0	0	0	0	0	0	0	0	0	0	0	0	0	0	0
031419	10:34:48	10:45:00	610974	5.0.10.0	4_exp_EVA_AMP_AWA_CON	162	Rpleas_acq	Same	Rpleas	Bmasked	CS_B	2pleas	distractor1	EVAbeforeCON	AMP_CSunple	AMP1_masked	8	37	0	0	300	300	0	0	131	46	-74,951171875	1	0	0	0	1	blank2r.bmp	0	1	BMVZ	0	1	blank2r.bmp	79	2	pic2.bmp	199	1	whitenoise_No3.bmp	306	0	0	0	0	0	0	0	0	0	0	0	0	0	0	0	0	0	0	0	0	0	0	0	0	0	0	0	0	0	0	0	0	0	0	0	0	0	0	0
031419	10:34:48	10:45:01	611960	5.0.10.0	4_exp_EVA_AMP_AWA_CON	162	Rpleas_acq	Same	Rpleas	Bmasked	CS_B	2pleas	distractor1	EVAbeforeCON	AMP_CSunple	AMP1_masked	8	38	0	0	300	300	0	0	64	46	-74,951171875	1	0	0	0	1	blank2r.bmp	0	1	BMVZ	0	1	blank2r.bmp	79	136	pic136.bmp	199	1	whitenoise_No3.bmp	306	0	0	0	0	0	0	0	0	0	0	0	0	0	0	0	0	0	0	0	0	0	0	0	0	0	0	0	0	0	0	0	0	0	0	0	0	0	0	0
031419	10:34:48	10:45:02	613120	5.0.10.0	4_exp_EVA_AMP_AWA_CON	162	Rpleas_acq	Same	Rpleas	Bmasked	CS_B	2pleas	distractor1	EVAbeforeCON	AMP_CSpleas	AMP1_masked	8	39	0	0	300	300	0	0	231	46	-74,951171875	0	0	0	0	1	blank2r.bmp	0	1	GKQX	0	1	blank2r.bmp	79	36	pic36.bmp	199	1	whitenoise_No3.bmp	306	0	0	0	0	0	0	0	0	0	0	0	0	0	0	0	0	0	0	0	0	0	0	0	0	0	0	0	0	0	0	0	0	0	0	0	0	0	0	0
031419	10:34:48	10:45:03	614226	5.0.10.0	4_exp_EVA_AMP_AWA_CON	162	Rpleas_acq	Same	Rpleas	Bmasked	CS_B	2pleas	distractor1	EVAbeforeCON	AMP_CSpleas	AMP1_masked	8	40	0	0	300	300	0	0	193	46	-74,951171875	0	0	0	0	1	blank2r.bmp	0	1	GKQX	0	1	blank2r.bmp	79	88	pic88.bmp	199	1	whitenoise_No3.bmp	306	0	0	0	0	0	0	0	0	0	0	0	0	0	0	0	0	0	0	0	0	0	0	0	0	0	0	0	0	0	0	0	0	0	0	0	0	0	0	0
031419	10:34:48	10:45:04	615252	5.0.10.0	4_exp_EVA_AMP_AWA_CON	162	Rpleas_acq	Same	Rpleas	Bmasked	CS_B	2pleas	distractor1	EVAbeforeCON	AMP_distractor	AMP1_masked	8	41	0	0	300	300	0	0	114	50	-74,951171875	0	0	0	0	1	blank2r.bmp	0	1	WFPH	0	1	blank2r.bmp	79	113	pic113.bmp	199	1	whitenoise_No3.bmp	306	0	0	0	0	0	0	0	0	0	0	0	0	0	0	0	0	0	0	0	0	0	0	0	0	0	0	0	0	0	0	0	0	0	0	0	0	0	0	0
031419	10:34:48	10:45:05	616212	5.0.10.0	4_exp_EVA_AMP_AWA_CON	162	Rpleas_acq	Same	Rpleas	Bmasked	CS_B	2pleas	distractor1	EVAbeforeCON	AMP_CSunple	AMP1_masked	8	42	0	0	300	300	0	0	27	46	-74,951171875	1	0	0	0	1	blank2r.bmp	0	1	BMVZ	0	1	blank2r.bmp	79	133	pic133.bmp	199	1	whitenoise_No3.bmp	306	0	0	0	0	0	0	0	0	0	0	0	0	0	0	0	0	0	0	0	0	0	0	0	0	0	0	0	0	0	0	0	0	0	0	0	0	0	0	0
031419	10:34:48	10:45:06	617411	5.0.10.0	4_exp_EVA_AMP_AWA_CON	162	Rpleas_acq	Same	Rpleas	Bmasked	CS_B	2pleas	distractor1	EVAbeforeCON	AMP_CSpleas	AMP1_masked	8	43	0	0	300	300	0	0	288	46	-74,951171875	0	0	0	0	1	blank2r.bmp	0	1	GKQX	0	1	blank2r.bmp	79	126	pic126.bmp	199	1	whitenoise_No3.bmp	306	0	0	0	0	0	0	0	0	0	0	0	0	0	0	0	0	0	0	0	0	0	0	0	0	0	0	0	0	0	0	0	0	0	0	0	0	0	0	0
031419	10:34:48	10:45:07	618491	5.0.10.0	4_exp_EVA_AMP_AWA_CON	162	Rpleas_acq	Same	Rpleas	Bmasked	CS_B	2pleas	distractor1	EVAbeforeCON	AMP_CSpleas	AMP1_masked	8	44	0	0	300	300	0	0	152	50	-74,951171875	1	0	0	0	1	blank2r.bmp	0	1	GKQX	0	1	blank2r.bmp	79	68	pic68.bmp	199	1	whitenoise_No3.bmp	306	0	0	0	0	0	0	0	0	0	0	0	0	0	0	0	0	0	0	0	0	0	0	0	0	0	0	0	0	0	0	0	0	0	0	0	0	0	0	0
031419	10:34:48	10:45:08	619584	5.0.10.0	4_exp_EVA_AMP_AWA_CON	162	Rpleas_acq	Same	Rpleas	Bmasked	CS_B	2pleas	distractor1	EVAbeforeCON	AMP_CSpleas	AMP1_masked	8	45	0	0	300	300	0	0	170	46	-74,951171875	0	0	0	0	1	blank2r.bmp	0	1	GKQX	0	1	blank2r.bmp	79	33	pic33.bmp	199	1	whitenoise_No3.bmp	306	0	0	0	0	0	0	0	0	0	0	0	0	0	0	0	0	0	0	0	0	0	0	0	0	0	0	0	0	0	0	0	0	0	0	0	0	0	0	0
031419	10:34:48	10:45:09	620796	5.0.10.0	4_exp_EVA_AMP_AWA_CON	162	Rpleas_acq	Same	Rpleas	Bmasked	CS_B	2pleas	distractor1	EVAbeforeCON	AMP_CSunple	AMP1_masked	8	46	0	0	300	300	0	0	290	46	-74,951171875	1	0	0	0	1	blank2r.bmp	0	1	BMVZ	0	1	blank2r.bmp	79	78	pic78.bmp	199	1	whitenoise_No3.bmp	306	0	0	0	0	0	0	0	0	0	0	0	0	0	0	0	0	0	0	0	0	0	0	0	0	0	0	0	0	0	0	0	0	0	0	0	0	0	0	0
031419	10:34:48	10:45:11	621943	5.0.10.0	4_exp_EVA_AMP_AWA_CON	162	Rpleas_acq	Same	Rpleas	Bmasked	CS_B	2pleas	distractor1	EVAbeforeCON	AMP_CSunple	AMP1_masked	8	47	0	0	300	300	0	0	215	46	-74,951171875	1	0	0	0	1	blank2r.bmp	0	1	BMVZ	0	1	blank2r.bmp	79	147	pic147.bmp	199	1	whitenoise_No3.bmp	306	0	0	0	0	0	0	0	0	0	0	0	0	0	0	0	0	0	0	0	0	0	0	0	0	0	0	0	0	0	0	0	0	0	0	0	0	0	0	0
031419	10:34:48	10:45:12	623062	5.0.10.0	4_exp_EVA_AMP_AWA_CON	162	Rpleas_acq	Same	Rpleas	Bmasked	CS_B	2pleas	distractor1	EVAbeforeCON	AMP_distractor	AMP1_masked	8	48	0	0	300	300	0	0	186	46	-74,951171875	0	0	0	0	1	blank2r.bmp	0	1	WFPH	0	1	blank2r.bmp	79	125	pic125.bmp	199	1	whitenoise_No3.bmp	306	0	0	0	0	0	0	0	0	0	0	0	0	0	0	0	0	0	0	0	0	0	0	0	0	0	0	0	0	0	0	0	0	0	0	0	0	0	0	0
031419	10:34:48	10:45:13	624102	5.0.10.0	4_exp_EVA_AMP_AWA_CON	162	Rpleas_acq	Same	Rpleas	Bmasked	CS_B	2pleas	distractor1	EVAbeforeCON	AMP_distractor	AMP1_masked	8	49	0	0	300	300	0	0	129	46	-74,951171875	0	0	0	0	1	blank2r.bmp	0	1	WFPH	0	1	blank2r.bmp	79	10	pic10.bmp	199	1	whitenoise_No3.bmp	306	0	0	0	0	0	0	0	0	0	0	0	0	0	0	0	0	0	0	0	0	0	0	0	0	0	0	0	0	0	0	0	0	0	0	0	0	0	0	0
031419	10:34:48	10:45:14	625301	5.0.10.0	4_exp_EVA_AMP_AWA_CON	162	Rpleas_acq	Same	Rpleas	Bmasked	CS_B	2pleas	distractor1	EVAbeforeCON	AMP_CSpleas	AMP1_masked	8	50	0	0	300	300	0	0	268	50	-74,951171875	1	0	0	0	1	blank2r.bmp	0	1	GKQX	0	1	blank2r.bmp	79	144	pic144.bmp	199	1	whitenoise_No3.bmp	306	0	0	0	0	0	0	0	0	0	0	0	0	0	0	0	0	0	0	0	0	0	0	0	0	0	0	0	0	0	0	0	0	0	0	0	0	0	0	0
031419	10:34:48	10:45:15	626381	5.0.10.0	4_exp_EVA_AMP_AWA_CON	162	Rpleas_acq	Same	Rpleas	Bmasked	CS_B	2pleas	distractor1	EVAbeforeCON	AMP_distractor	AMP1_masked	8	51	0	0	300	300	0	0	171	46	-74,951171875	0	0	0	0	1	blank2r.bmp	0	1	WFPH	0	1	blank2r.bmp	79	66	pic66.bmp	199	1	whitenoise_No3.bmp	306	0	0	0	0	0	0	0	0	0	0	0	0	0	0	0	0	0	0	0	0	0	0	0	0	0	0	0	0	0	0	0	0	0	0	0	0	0	0	0
031419	10:34:48	10:45:18	629100	5.0.10.0	4_exp_EVA_AMP_AWA_CON	162	Rpleas_acq	Same	Rpleas	Bmasked	CS_B	2pleas	distractor1	EVAbeforeCON	AMP_CSpleas	AMP23	9	1	0	0	300	300	0	0	451	46	-74,951171875	0	0	0	0	1	blank2r.bmp	0	1	GKQX	0	1	blank2r.bmp	79	60	pic60.bmp	199	1	whitenoise_No3.bmp	306	0	0	0	0	0	0	0	0	0	0	0	0	0	0	0	0	0	0	0	0	0	0	0	0	0	0	0	0	0	0	0	0	0	0	0	0	0	0	0
031419	10:34:48	10:45:19	630153	5.0.10.0	4_exp_EVA_AMP_AWA_CON	162	Rpleas_acq	Same	Rpleas	Bmasked	CS_B	2pleas	distractor1	EVAbeforeCON	AMP_distractor	AMP23	9	2	0	0	300	300	0	0	131	46	-74,951171875	0	0	0	0	1	blank2r.bmp	0	1	WFPH	0	1	blank2r.bmp	79	148	pic148.bmp	199	1	whitenoise_No3.bmp	306	0	0	0	0	0	0	0	0	0	0	0	0	0	0	0	0	0	0	0	0	0	0	0	0	0	0	0	0	0	0	0	0	0	0	0	0	0	0	0
031419	10:34:48	10:45:20	631232	5.0.10.0	4_exp_EVA_AMP_AWA_CON	162	Rpleas_acq	Same	Rpleas	Bmasked	CS_B	2pleas	distractor1	EVAbeforeCON	AMP_CSpleas	AMP23	9	3	0	0	300	300	0	0	141	46	-74,951171875	0	0	0	0	1	blank2r.bmp	0	1	GKQX	0	1	blank2r.bmp	79	123	pic123.bmp	199	1	whitenoise_No3.bmp	306	0	0	0	0	0	0	0	0	0	0	0	0	0	0	0	0	0	0	0	0	0	0	0	0	0	0	0	0	0	0	0	0	0	0	0	0	0	0	0
031419	10:34:48	10:45:22	633058	5.0.10.0	4_exp_EVA_AMP_AWA_CON	162	Rpleas_acq	Same	Rpleas	Bmasked	CS_B	2pleas	distractor1	EVAbeforeCON	AMP_CSunple	AMP23	9	4	0	0	300	300	0	0	896	46	-74,951171875	1	0	0	0	1	blank2r.bmp	0	1	BMVZ	0	1	blank2r.bmp	79	95	pic95.bmp	199	1	whitenoise_No3.bmp	306	0	0	0	0	0	0	0	0	0	0	0	0	0	0	0	0	0	0	0	0	0	0	0	0	0	0	0	0	0	0	0	0	0	0	0	0	0	0	0
031419	10:34:48	10:45:23	634111	5.0.10.0	4_exp_EVA_AMP_AWA_CON	162	Rpleas_acq	Same	Rpleas	Bmasked	CS_B	2pleas	distractor1	EVAbeforeCON	AMP_CSpleas	AMP23	9	5	0	0	300	300	0	0	140	46	-74,951171875	0	0	0	0	1	blank2r.bmp	0	1	GKQX	0	1	blank2r.bmp	79	153	pic153.bmp	199	1	whitenoise_No3.bmp	306	0	0	0	0	0	0	0	0	0	0	0	0	0	0	0	0	0	0	0	0	0	0	0	0	0	0	0	0	0	0	0	0	0	0	0	0	0	0	0
031419	10:34:48	10:45:24	635137	5.0.10.0	4_exp_EVA_AMP_AWA_CON	162	Rpleas_acq	Same	Rpleas	Bmasked	CS_B	2pleas	distractor1	EVAbeforeCON	AMP_CSunple	AMP23	9	6	0	0	300	300	0	0	94	46	-74,951171875	1	0	0	0	1	blank2r.bmp	0	1	BMVZ	0	1	blank2r.bmp	79	77	pic77.bmp	199	1	whitenoise_No3.bmp	306	0	0	0	0	0	0	0	0	0	0	0	0	0	0	0	0	0	0	0	0	0	0	0	0	0	0	0	0	0	0	0	0	0	0	0	0	0	0	0
031419	10:34:48	10:45:25	636070	5.0.10.0	4_exp_EVA_AMP_AWA_CON	162	Rpleas_acq	Same	Rpleas	Bmasked	CS_B	2pleas	distractor1	EVAbeforeCON	AMP_CSunple	AMP23	9	7	0	0	300	300	0	0	16	46	-74,951171875	1	0	0	0	1	blank2r.bmp	0	1	BMVZ	0	1	blank2r.bmp	79	73	pic73.bmp	199	1	whitenoise_No3.bmp	306	0	0	0	0	0	0	0	0	0	0	0	0	0	0	0	0	0	0	0	0	0	0	0	0	0	0	0	0	0	0	0	0	0	0	0	0	0	0	0
031419	10:34:48	10:45:26	637043	5.0.10.0	4_exp_EVA_AMP_AWA_CON	162	Rpleas_acq	Same	Rpleas	Bmasked	CS_B	2pleas	distractor1	EVAbeforeCON	AMP_CSpleas	AMP23	9	8	0	0	300	300	0	0	63	46	-74,951171875	0	0	0	0	1	blank2r.bmp	0	1	GKQX	0	1	blank2r.bmp	79	50	pic50.bmp	199	1	whitenoise_No3.bmp	306	0	0	0	0	0	0	0	0	0	0	0	0	0	0	0	0	0	0	0	0	0	0	0	0	0	0	0	0	0	0	0	0	0	0	0	0	0	0	0
031419	10:34:48	10:45:28	639775	5.0.10.0	4_exp_EVA_AMP_AWA_CON	162	Rpleas_acq	Same	Rpleas	Bmasked	CS_B	2pleas	distractor1	EVAbeforeCON	AMP_distractor	AMP23	9	9	0	0	300	300	0	0	1809	50	-74,951171875	0	0	0	0	1	blank2r.bmp	0	1	WFPH	0	1	blank2r.bmp	79	109	pic109.bmp	199	1	whitenoise_No3.bmp	306	0	0	0	0	0	0	0	0	0	0	0	0	0	0	0	0	0	0	0	0	0	0	0	0	0	0	0	0	0	0	0	0	0	0	0	0	0	0	0
031419	10:34:48	10:45:30	641108	5.0.10.0	4_exp_EVA_AMP_AWA_CON	162	Rpleas_acq	Same	Rpleas	Bmasked	CS_B	2pleas	distractor1	EVAbeforeCON	AMP_CSunple	AMP23	9	10	0	0	300	300	0	0	408	50	-74,951171875	0	0	0	0	1	blank2r.bmp	0	1	BMVZ	0	1	blank2r.bmp	79	96	pic96.bmp	199	1	whitenoise_No3.bmp	306	0	0	0	0	0	0	0	0	0	0	0	0	0	0	0	0	0	0	0	0	0	0	0	0	0	0	0	0	0	0	0	0	0	0	0	0	0	0	0
031419	10:34:48	10:45:31	642401	5.0.10.0	4_exp_EVA_AMP_AWA_CON	162	Rpleas_acq	Same	Rpleas	Bmasked	CS_B	2pleas	distractor1	EVAbeforeCON	AMP_distractor	AMP23	9	11	0	0	300	300	0	0	367	50	-74,951171875	0	0	0	0	1	blank2r.bmp	0	1	WFPH	0	1	blank2r.bmp	79	27	pic27.bmp	199	1	whitenoise_No3.bmp	306	0	0	0	0	0	0	0	0	0	0	0	0	0	0	0	0	0	0	0	0	0	0	0	0	0	0	0	0	0	0	0	0	0	0	0	0	0	0	0
031419	10:34:48	10:45:32	643440	5.0.10.0	4_exp_EVA_AMP_AWA_CON	162	Rpleas_acq	Same	Rpleas	Bmasked	CS_B	2pleas	distractor1	EVAbeforeCON	AMP_distractor	AMP23	9	12	0	0	300	300	0	0	122	46	-74,951171875	0	0	0	0	1	blank2r.bmp	0	1	WFPH	0	1	blank2r.bmp	79	138	pic138.bmp	199	1	whitenoise_No3.bmp	306	0	0	0	0	0	0	0	0	0	0	0	0	0	0	0	0	0	0	0	0	0	0	0	0	0	0	0	0	0	0	0	0	0	0	0	0	0	0	0
031419	10:34:48	10:45:33	644480	5.0.10.0	4_exp_EVA_AMP_AWA_CON	162	Rpleas_acq	Same	Rpleas	Bmasked	CS_B	2pleas	distractor1	EVAbeforeCON	AMP_CSpleas	AMP23	9	13	0	0	300	300	0	0	116	46	-74,951171875	0	0	0	0	1	blank2r.bmp	0	1	GKQX	0	1	blank2r.bmp	79	89	pic89.bmp	199	1	whitenoise_No3.bmp	306	0	0	0	0	0	0	0	0	0	0	0	0	0	0	0	0	0	0	0	0	0	0	0	0	0	0	0	0	0	0	0	0	0	0	0	0	0	0	0
031419	10:34:48	10:45:34	645520	5.0.10.0	4_exp_EVA_AMP_AWA_CON	162	Rpleas_acq	Same	Rpleas	Bmasked	CS_B	2pleas	distractor1	EVAbeforeCON	AMP_CSpleas	AMP23	9	14	0	0	300	300	0	0	110	46	-74,951171875	0	0	0	0	1	blank2r.bmp	0	1	GKQX	0	1	blank2r.bmp	79	130	pic130.bmp	199	1	whitenoise_No3.bmp	306	0	0	0	0	0	0	0	0	0	0	0	0	0	0	0	0	0	0	0	0	0	0	0	0	0	0	0	0	0	0	0	0	0	0	0	0	0	0	0
031419	10:34:48	10:45:35	646532	5.0.10.0	4_exp_EVA_AMP_AWA_CON	162	Rpleas_acq	Same	Rpleas	Bmasked	CS_B	2pleas	distractor1	EVAbeforeCON	AMP_CSpleas	AMP23	9	15	0	0	300	300	0	0	93	46	-74,951171875	0	0	0	0	1	blank2r.bmp	0	1	GKQX	0	1	blank2r.bmp	79	59	pic59.bmp	199	1	whitenoise_No3.bmp	306	0	0	0	0	0	0	0	0	0	0	0	0	0	0	0	0	0	0	0	0	0	0	0	0	0	0	0	0	0	0	0	0	0	0	0	0	0	0	0
031419	10:34:48	10:45:36	647505	5.0.10.0	4_exp_EVA_AMP_AWA_CON	162	Rpleas_acq	Same	Rpleas	Bmasked	CS_B	2pleas	distractor1	EVAbeforeCON	AMP_CSunple	AMP23	9	16	0	0	300	300	0	0	61	46	-74,951171875	1	0	0	0	1	blank2r.bmp	0	1	BMVZ	0	1	blank2r.bmp	79	15	pic15.bmp	199	1	whitenoise_No3.bmp	306	0	0	0	0	0	0	0	0	0	0	0	0	0	0	0	0	0	0	0	0	0	0	0	0	0	0	0	0	0	0	0	0	0	0	0	0	0	0	0
031419	10:34:48	10:45:37	648492	5.0.10.0	4_exp_EVA_AMP_AWA_CON	162	Rpleas_acq	Same	Rpleas	Bmasked	CS_B	2pleas	distractor1	EVAbeforeCON	AMP_distractor	AMP23	9	17	0	0	300	300	0	0	54	46	-74,951171875	0	0	0	0	1	blank2r.bmp	0	1	WFPH	0	1	blank2r.bmp	79	134	pic134.bmp	199	1	whitenoise_No3.bmp	306	0	0	0	0	0	0	0	0	0	0	0	0	0	0	0	0	0	0	0	0	0	0	0	0	0	0	0	0	0	0	0	0	0	0	0	0	0	0	0
031419	10:34:48	10:45:38	649531	5.0.10.0	4_exp_EVA_AMP_AWA_CON	162	Rpleas_acq	Same	Rpleas	Bmasked	CS_B	2pleas	distractor1	EVAbeforeCON	AMP_CSpleas	AMP23	9	18	0	0	300	300	0	0	125	46	-74,951171875	0	0	0	0	1	blank2r.bmp	0	1	GKQX	0	1	blank2r.bmp	79	37	pic37.bmp	199	1	whitenoise_No3.bmp	306	0	0	0	0	0	0	0	0	0	0	0	0	0	0	0	0	0	0	0	0	0	0	0	0	0	0	0	0	0	0	0	0	0	0	0	0	0	0	0
031419	10:34:48	10:45:39	650571	5.0.10.0	4_exp_EVA_AMP_AWA_CON	162	Rpleas_acq	Same	Rpleas	Bmasked	CS_B	2pleas	distractor1	EVAbeforeCON	AMP_CSunple	AMP23	9	19	0	0	300	300	0	0	122	46	-74,951171875	1	0	0	0	1	blank2r.bmp	0	1	BMVZ	0	1	blank2r.bmp	79	67	pic67.bmp	199	1	whitenoise_No3.bmp	306	0	0	0	0	0	0	0	0	0	0	0	0	0	0	0	0	0	0	0	0	0	0	0	0	0	0	0	0	0	0	0	0	0	0	0	0	0	0	0
031419	10:34:48	10:45:41	652730	5.0.10.0	4_exp_EVA_AMP_AWA_CON	162	Rpleas_acq	Same	Rpleas	Bmasked	CS_B	2pleas	distractor1	EVAbeforeCON	AMP_distractor	AMP23	9	20	0	0	300	300	0	0	1229	46	-74,951171875	0	0	0	0	1	blank2r.bmp	0	1	WFPH	0	1	blank2r.bmp	79	111	pic111.bmp	199	1	whitenoise_No3.bmp	306	0	0	0	0	0	0	0	0	0	0	0	0	0	0	0	0	0	0	0	0	0	0	0	0	0	0	0	0	0	0	0	0	0	0	0	0	0	0	0
031419	10:34:48	10:45:42	653796	5.0.10.0	4_exp_EVA_AMP_AWA_CON	162	Rpleas_acq	Same	Rpleas	Bmasked	CS_B	2pleas	distractor1	EVAbeforeCON	AMP_CSunple	AMP23	9	21	0	0	300	300	0	0	145	46	-74,951171875	1	0	0	0	1	blank2r.bmp	0	1	BMVZ	0	1	blank2r.bmp	79	44	pic44.bmp	199	1	whitenoise_No3.bmp	306	0	0	0	0	0	0	0	0	0	0	0	0	0	0	0	0	0	0	0	0	0	0	0	0	0	0	0	0	0	0	0	0	0	0	0	0	0	0	0
031419	10:34:48	10:45:43	654742	5.0.10.0	4_exp_EVA_AMP_AWA_CON	162	Rpleas_acq	Same	Rpleas	Bmasked	CS_B	2pleas	distractor1	EVAbeforeCON	AMP_distractor	AMP23	9	22	0	0	300	300	0	0	38	46	-74,951171875	0	0	0	0	1	blank2r.bmp	0	1	WFPH	0	1	blank2r.bmp	79	91	pic91.bmp	199	1	whitenoise_No3.bmp	306	0	0	0	0	0	0	0	0	0	0	0	0	0	0	0	0	0	0	0	0	0	0	0	0	0	0	0	0	0	0	0	0	0	0	0	0	0	0	0
031419	10:34:48	10:45:44	655742	5.0.10.0	4_exp_EVA_AMP_AWA_CON	162	Rpleas_acq	Same	Rpleas	Bmasked	CS_B	2pleas	distractor1	EVAbeforeCON	AMP_distractor	AMP23	9	23	0	0	300	300	0	0	69	46	-74,951171875	0	0	0	0	1	blank2r.bmp	0	1	WFPH	0	1	blank2r.bmp	79	152	pic152.bmp	199	1	whitenoise_No3.bmp	306	0	0	0	0	0	0	0	0	0	0	0	0	0	0	0	0	0	0	0	0	0	0	0	0	0	0	0	0	0	0	0	0	0	0	0	0	0	0	0
031419	10:34:48	10:45:46	657555	5.0.10.0	4_exp_EVA_AMP_AWA_CON	162	Rpleas_acq	Same	Rpleas	Bmasked	CS_B	2pleas	distractor1	EVAbeforeCON	AMP_distractor	AMP23	9	24	0	0	300	300	0	0	899	46	-74,951171875	0	0	0	0	1	blank2r.bmp	0	1	WFPH	0	1	blank2r.bmp	79	20	pic20.bmp	199	1	whitenoise_No3.bmp	306	0	0	0	0	0	0	0	0	0	0	0	0	0	0	0	0	0	0	0	0	0	0	0	0	0	0	0	0	0	0	0	0	0	0	0	0	0	0	0
031419	10:34:48	10:45:48	659127	5.0.10.0	4_exp_EVA_AMP_AWA_CON	162	Rpleas_acq	Same	Rpleas	Bmasked	CS_B	2pleas	distractor1	EVAbeforeCON	AMP_CSunple	AMP23	9	25	0	0	300	300	0	0	643	46	-74,951171875	1	0	0	0	1	blank2r.bmp	0	1	BMVZ	0	1	blank2r.bmp	79	93	pic93.bmp	199	1	whitenoise_No3.bmp	306	0	0	0	0	0	0	0	0	0	0	0	0	0	0	0	0	0	0	0	0	0	0	0	0	0	0	0	0	0	0	0	0	0	0	0	0	0	0	0
031419	10:34:48	10:45:49	660647	5.0.10.0	4_exp_EVA_AMP_AWA_CON	162	Rpleas_acq	Same	Rpleas	Bmasked	CS_B	2pleas	distractor1	EVAbeforeCON	AMP_CSpleas	AMP23	9	26	0	0	300	300	0	0	609	46	-74,951171875	0	0	0	0	1	blank2r.bmp	0	1	GKQX	0	1	blank2r.bmp	79	85	pic85.bmp	199	1	whitenoise_No3.bmp	306	0	0	0	0	0	0	0	0	0	0	0	0	0	0	0	0	0	0	0	0	0	0	0	0	0	0	0	0	0	0	0	0	0	0	0	0	0	0	0
