date	time	script.currenttime	script.elapsedtime	build	script.currentexpt	subject	expressions.LRpleas_acq	expressions.SameOppo	expressions.condition_Lpleas	expressions.ABmasked	expressions.conditionCS_A	expressions.condition_1pleas	expressions.condition_distractor_AMP	expressions.AWACON_AMPEVA_first	trialcode	blockcode	blocknum	trialnum	windowcenter	inwindow	pretrialpause	posttrialpause	trialduration	trialtimeout	latency	response	expressions.correctedscore	correct	values.vis_performance	values.vis_rating_sum	values.vis_rating_mean	stimulusnumber1	stimulusitem1	stimulusonset1	stimulusnumber2	stimulusitem2	stimulusonset2	stimulusnumber3	stimulusitem3	stimulusonset3	stimulusnumber4	stimulusitem4	stimulusonset4	stimulusnumber5	stimulusitem5	stimulusonset5	stimulusnumber6	stimulusitem6	stimulusonset6	stimulusnumber7	stimulusitem7	stimulusonset7	stimulusnumber8	stimulusitem8	stimulusonset8	stimulusnumber9	stimulusitem9	stimulusonset9	stimulusnumber10	stimulusitem10	stimulusonset10	stimulusnumber11	stimulusitem11	stimulusonset11	stimulusnumber12	stimulusitem12	stimulusonset12	stimulusnumber13	stimulusitem13	stimulusonset13	stimulusnumber14	stimulusitem14	stimulusonset14	stimulusnumber15	stimulusitem15	stimulusonset15	stimulusnumber16	stimulusitem16	stimulusonset16	stimulusnumber17	stimulusitem17	stimulusonset17	stimulusnumber18	stimulusitem18	stimulusonset18
122018	12:10:33	12:12:34	119642	5.0.10.0	4_exp_AWA_CON_EVA_AMP	39	Rpleas_acq	Oppo	Rpleas	Amasked	CS_A	1pleas	distractor1	CONbeforeEVA	acq_new_pleas_masked	acq1_masked	1	1	0	0	300	300	0	0	1762	50	0	1	0	0	0	1	blank2r.bmp	0	1	+	0	8	C4r.bmp	492	1	blank2r.bmp	786	6	C2r.bmp	786	1	blank2r.bmp	866	5	anregung	866	0	0	0	0	0	0	0	0	0	0	0	0	0	0	0	0	0	0	0	0	0	0	0	0	0	0	0	0	0	0	0	0	0
122018	12:10:33	12:12:36	121988	5.0.10.0	4_exp_AWA_CON_EVA_AMP	39	Rpleas_acq	Oppo	Rpleas	Amasked	CS_A	1pleas	distractor1	CONbeforeEVA	acq_new_pleas_masked	acq1_masked	1	2	0	0	300	300	0	0	855	50	0	1	0	0	0	1	blank2r.bmp	0	1	+	0	3	B3r.bmp	492	1	blank2r.bmp	786	7	C3r.bmp	786	1	blank2r.bmp	866	1	träumen	866	0	0	0	0	0	0	0	0	0	0	0	0	0	0	0	0	0	0	0	0	0	0	0	0	0	0	0	0	0	0	0	0	0
122018	12:10:33	12:12:38	124094	5.0.10.0	4_exp_AWA_CON_EVA_AMP	39	Rpleas_acq	Oppo	Rpleas	Amasked	CS_A	1pleas	distractor1	CONbeforeEVA	acq_new_pleas_masked	acq1_masked	1	3	0	0	300	300	0	0	626	50	0	1	0	0	0	1	blank2r.bmp	0	1	+	0	6	C2r.bmp	492	1	blank2r.bmp	786	4	B4r.bmp	786	1	blank2r.bmp	866	6	sonnig	866	0	0	0	0	0	0	0	0	0	0	0	0	0	0	0	0	0	0	0	0	0	0	0	0	0	0	0	0	0	0	0	0	0
122018	12:10:33	12:12:40	126373	5.0.10.0	4_exp_AWA_CON_EVA_AMP	39	Rpleas_acq	Oppo	Rpleas	Amasked	CS_A	1pleas	distractor1	CONbeforeEVA	acq_US_pleas_masked	acq1_masked	1	4	0	0	300	300	0	0	807	50	0	1	0	0	0	1	blank2r.bmp	0	1	+	0	5	C1r.bmp	492	1	blank2r.bmp	786	1	CPLW	786	1	blank2r.bmp	866	3	engagiert	866	0	0	0	0	0	0	0	0	0	0	0	0	0	0	0	0	0	0	0	0	0	0	0	0	0	0	0	0	0	0	0	0	0
122018	12:10:33	12:12:43	128932	5.0.10.0	4_exp_AWA_CON_EVA_AMP	39	Rpleas_acq	Oppo	Rpleas	Amasked	CS_A	1pleas	distractor1	CONbeforeEVA	acq_new_unple_masked	acq1_masked	1	5	0	0	300	300	0	0	1083	46	0	1	0	0	0	1	blank2r.bmp	0	1	+	0	1	B1r.bmp	492	1	blank2r.bmp	786	5	C1r.bmp	786	1	blank2r.bmp	866	5	ausrottung	866	0	0	0	0	0	0	0	0	0	0	0	0	0	0	0	0	0	0	0	0	0	0	0	0	0	0	0	0	0	0	0	0	0
122018	12:10:33	12:12:45	131211	5.0.10.0	4_exp_AWA_CON_EVA_AMP	39	Rpleas_acq	Oppo	Rpleas	Amasked	CS_A	1pleas	distractor1	CONbeforeEVA	acq_US_pleas_masked	acq1_masked	1	6	0	0	300	300	0	0	801	50	0	1	0	0	0	1	blank2r.bmp	0	1	+	0	2	B2r.bmp	492	1	blank2r.bmp	786	1	CPLW	786	1	blank2r.bmp	866	1	gesittet	866	0	0	0	0	0	0	0	0	0	0	0	0	0	0	0	0	0	0	0	0	0	0	0	0	0	0	0	0	0	0	0	0	0
122018	12:10:33	12:12:48	133543	5.0.10.0	4_exp_AWA_CON_EVA_AMP	39	Rpleas_acq	Oppo	Rpleas	Amasked	CS_A	1pleas	distractor1	CONbeforeEVA	acq_US_unple_masked	acq1_masked	1	7	0	0	300	300	0	0	862	46	0	1	0	0	0	1	blank2r.bmp	0	1	+	0	4	B4r.bmp	492	1	blank2r.bmp	786	1	DHJF	786	1	blank2r.bmp	866	2	versagen	866	0	0	0	0	0	0	0	0	0	0	0	0	0	0	0	0	0	0	0	0	0	0	0	0	0	0	0	0	0	0	0	0	0
122018	12:10:33	12:12:50	135689	5.0.10.0	4_exp_AWA_CON_EVA_AMP	39	Rpleas_acq	Oppo	Rpleas	Amasked	CS_A	1pleas	distractor1	CONbeforeEVA	acq_US_pleas_masked	acq1_masked	1	8	0	0	300	300	0	0	652	50	0	1	0	0	0	1	blank2r.bmp	0	1	+	0	7	C3r.bmp	492	1	blank2r.bmp	786	1	CPLW	786	1	blank2r.bmp	866	6	vergnügt	866	0	0	0	0	0	0	0	0	0	0	0	0	0	0	0	0	0	0	0	0	0	0	0	0	0	0	0	0	0	0	0	0	0
122018	12:10:33	12:12:52	138101	5.0.10.0	4_exp_AWA_CON_EVA_AMP	39	Rpleas_acq	Oppo	Rpleas	Amasked	CS_A	1pleas	distractor1	CONbeforeEVA	acq_US_unple_masked	acq1_masked	1	9	0	0	300	300	0	0	942	46	0	1	0	0	0	1	blank2r.bmp	0	1	+	0	5	C1r.bmp	492	1	blank2r.bmp	786	1	DHJF	786	1	blank2r.bmp	866	1	geizig	866	0	0	0	0	0	0	0	0	0	0	0	0	0	0	0	0	0	0	0	0	0	0	0	0	0	0	0	0	0	0	0	0	0
122018	12:10:33	12:12:54	140420	5.0.10.0	4_exp_AWA_CON_EVA_AMP	39	Rpleas_acq	Oppo	Rpleas	Amasked	CS_A	1pleas	distractor1	CONbeforeEVA	acq_new_unple_masked	acq1_masked	1	10	0	0	300	300	0	0	632	50	0	0	0	0	0	1	blank2r.bmp	0	1	+	0	7	C3r.bmp	492	1	blank2r.bmp	786	3	B3r.bmp	786	1	blank2r.bmp	866	3	krank	866	1	FEHLER	1532	0	0	0	0	0	0	0	0	0	0	0	0	0	0	0	0	0	0	0	0	0	0	0	0	0	0	0	0	0	0
122018	12:10:33	12:12:56	142406	5.0.10.0	4_exp_AWA_CON_EVA_AMP	39	Rpleas_acq	Oppo	Rpleas	Amasked	CS_A	1pleas	distractor1	CONbeforeEVA	acq_US_unple_masked	acq1_masked	1	11	0	0	300	300	0	0	723	46	0	1	0	0	0	1	blank2r.bmp	0	1	+	0	4	B4r.bmp	492	1	blank2r.bmp	786	1	DHJF	786	1	blank2r.bmp	866	5	bange	866	0	0	0	0	0	0	0	0	0	0	0	0	0	0	0	0	0	0	0	0	0	0	0	0	0	0	0	0	0	0	0	0	0
122018	12:10:33	12:12:59	144618	5.0.10.0	4_exp_AWA_CON_EVA_AMP	39	Rpleas_acq	Oppo	Rpleas	Amasked	CS_A	1pleas	distractor1	CONbeforeEVA	acq_new_unple_masked	acq1_masked	1	12	0	0	300	300	0	0	734	46	0	1	0	0	0	1	blank2r.bmp	0	1	+	0	2	B2r.bmp	492	1	blank2r.bmp	786	1	B1r.bmp	786	1	blank2r.bmp	866	6	sterben	866	0	0	0	0	0	0	0	0	0	0	0	0	0	0	0	0	0	0	0	0	0	0	0	0	0	0	0	0	0	0	0	0	0
122018	12:10:33	12:13:01	147057	5.0.10.0	4_exp_AWA_CON_EVA_AMP	39	Rpleas_acq	Oppo	Rpleas	Amasked	CS_A	1pleas	distractor1	CONbeforeEVA	acq_new_pleas_masked	acq1_masked	1	13	0	0	300	300	0	0	955	50	0	1	0	0	0	1	blank2r.bmp	0	1	+	0	8	C4r.bmp	492	1	blank2r.bmp	786	2	B2r.bmp	786	1	blank2r.bmp	866	2	gütig	866	0	0	0	0	0	0	0	0	0	0	0	0	0	0	0	0	0	0	0	0	0	0	0	0	0	0	0	0	0	0	0	0	0
122018	12:10:33	12:13:03	149203	5.0.10.0	4_exp_AWA_CON_EVA_AMP	39	Rpleas_acq	Oppo	Rpleas	Amasked	CS_A	1pleas	distractor1	CONbeforeEVA	acq_new_pleas_masked	acq1_masked	1	14	0	0	300	300	0	0	658	50	0	1	0	0	0	1	blank2r.bmp	0	1	+	0	3	B3r.bmp	492	1	blank2r.bmp	786	8	C4r.bmp	786	1	blank2r.bmp	866	4	kuss	866	0	0	0	0	0	0	0	0	0	0	0	0	0	0	0	0	0	0	0	0	0	0	0	0	0	0	0	0	0	0	0	0	0
122018	12:10:33	12:13:06	151722	5.0.10.0	4_exp_AWA_CON_EVA_AMP	39	Rpleas_acq	Oppo	Rpleas	Amasked	CS_A	1pleas	distractor1	CONbeforeEVA	acq_US_pleas_masked	acq1_masked	1	15	0	0	300	300	0	0	1034	50	0	1	0	0	0	1	blank2r.bmp	0	1	+	0	1	B1r.bmp	492	1	blank2r.bmp	786	1	CPLW	786	1	blank2r.bmp	866	2	vertrauen	866	0	0	0	0	0	0	0	0	0	0	0	0	0	0	0	0	0	0	0	0	0	0	0	0	0	0	0	0	0	0	0	0	0
122018	12:10:33	12:13:08	154334	5.0.10.0	4_exp_AWA_CON_EVA_AMP	39	Rpleas_acq	Oppo	Rpleas	Amasked	CS_A	1pleas	distractor1	CONbeforeEVA	acq_US_unple_masked	acq1_masked	1	16	0	0	300	300	0	0	1123	46	0	1	0	0	0	1	blank2r.bmp	0	1	+	0	6	C2r.bmp	492	1	blank2r.bmp	786	1	DHJF	786	1	blank2r.bmp	866	3	engstirnig	866	0	0	0	0	0	0	0	0	0	0	0	0	0	0	0	0	0	0	0	0	0	0	0	0	0	0	0	0	0	0	0	0	0
122018	12:10:33	12:13:11	156494	5.0.10.0	4_exp_AWA_CON_EVA_AMP	39	Rpleas_acq	Oppo	Rpleas	Amasked	CS_A	1pleas	distractor1	CONbeforeEVA	acq_new_unple_masked	acq1_masked	1	17	0	0	300	300	0	0	677	46	0	1	0	0	0	1	blank2r.bmp	0	1	+	0	3	B3r.bmp	492	1	blank2r.bmp	786	2	B2r.bmp	786	1	blank2r.bmp	866	1	töten	866	0	0	0	0	0	0	0	0	0	0	0	0	0	0	0	0	0	0	0	0	0	0	0	0	0	0	0	0	0	0	0	0	0
122018	12:10:33	12:13:13	158733	5.0.10.0	4_exp_AWA_CON_EVA_AMP	39	Rpleas_acq	Oppo	Rpleas	Amasked	CS_A	1pleas	distractor1	CONbeforeEVA	acq_new_unple_masked	acq1_masked	1	18	0	0	300	300	0	0	760	46	0	1	0	0	0	1	blank2r.bmp	0	1	+	0	7	C3r.bmp	492	1	blank2r.bmp	786	1	B1r.bmp	786	1	blank2r.bmp	866	4	krise	866	0	0	0	0	0	0	0	0	0	0	0	0	0	0	0	0	0	0	0	0	0	0	0	0	0	0	0	0	0	0	0	0	0
122018	12:10:33	12:13:15	160878	5.0.10.0	4_exp_AWA_CON_EVA_AMP	39	Rpleas_acq	Oppo	Rpleas	Amasked	CS_A	1pleas	distractor1	CONbeforeEVA	acq_new_pleas_masked	acq1_masked	1	19	0	0	300	300	0	0	676	50	0	1	0	0	0	1	blank2r.bmp	0	1	+	0	6	C2r.bmp	492	1	blank2r.bmp	786	7	C3r.bmp	786	1	blank2r.bmp	866	3	kreativ	866	0	0	0	0	0	0	0	0	0	0	0	0	0	0	0	0	0	0	0	0	0	0	0	0	0	0	0	0	0	0	0	0	0
122018	12:10:33	12:13:18	163677	5.0.10.0	4_exp_AWA_CON_EVA_AMP	39	Rpleas_acq	Oppo	Rpleas	Amasked	CS_A	1pleas	distractor1	CONbeforeEVA	acq_US_unple_masked	acq1_masked	1	20	0	0	300	300	0	0	1325	46	0	1	0	0	0	1	blank2r.bmp	0	1	+	0	4	B4r.bmp	492	1	blank2r.bmp	786	1	DHJF	786	1	blank2r.bmp	866	6	verbissen	866	0	0	0	0	0	0	0	0	0	0	0	0	0	0	0	0	0	0	0	0	0	0	0	0	0	0	0	0	0	0	0	0	0
122018	12:10:33	12:13:20	165850	5.0.10.0	4_exp_AWA_CON_EVA_AMP	39	Rpleas_acq	Oppo	Rpleas	Amasked	CS_A	1pleas	distractor1	CONbeforeEVA	acq_US_unple_masked	acq1_masked	1	21	0	0	300	300	0	0	682	46	0	1	0	0	0	1	blank2r.bmp	0	1	+	0	8	C4r.bmp	492	1	blank2r.bmp	786	1	DHJF	786	1	blank2r.bmp	866	4	gemein	866	0	0	0	0	0	0	0	0	0	0	0	0	0	0	0	0	0	0	0	0	0	0	0	0	0	0	0	0	0	0	0	0	0
122018	12:10:33	12:13:22	168435	5.0.10.0	4_exp_AWA_CON_EVA_AMP	39	Rpleas_acq	Oppo	Rpleas	Amasked	CS_A	1pleas	distractor1	CONbeforeEVA	acq_new_unple_masked	acq1_masked	1	22	0	0	300	300	0	0	1097	46	0	1	0	0	0	1	blank2r.bmp	0	1	+	0	2	B2r.bmp	492	1	blank2r.bmp	786	4	B4r.bmp	786	1	blank2r.bmp	866	2	gierig	866	0	0	0	0	0	0	0	0	0	0	0	0	0	0	0	0	0	0	0	0	0	0	0	0	0	0	0	0	0	0	0	0	0
122018	12:10:33	12:13:25	170741	5.0.10.0	4_exp_AWA_CON_EVA_AMP	39	Rpleas_acq	Oppo	Rpleas	Amasked	CS_A	1pleas	distractor1	CONbeforeEVA	acq_US_pleas_masked	acq1_masked	1	23	0	0	300	300	0	0	820	50	0	1	0	0	0	1	blank2r.bmp	0	1	+	0	5	C1r.bmp	492	1	blank2r.bmp	786	1	CPLW	786	1	blank2r.bmp	866	5	besonnen	866	0	0	0	0	0	0	0	0	0	0	0	0	0	0	0	0	0	0	0	0	0	0	0	0	0	0	0	0	0	0	0	0	0
122018	12:10:33	12:13:27	173233	5.0.10.0	4_exp_AWA_CON_EVA_AMP	39	Rpleas_acq	Oppo	Rpleas	Amasked	CS_A	1pleas	distractor1	CONbeforeEVA	acq_US_pleas_masked	acq1_masked	1	24	0	0	300	300	0	0	793	46	0	0	0	0	0	1	blank2r.bmp	0	1	+	0	1	B1r.bmp	492	1	blank2r.bmp	786	1	CPLW	786	1	blank2r.bmp	866	4	genießen	866	1	FEHLER	1692	0	0	0	0	0	0	0	0	0	0	0	0	0	0	0	0	0	0	0	0	0	0	0	0	0	0	0	0	0	0
122018	12:10:33	12:13:30	175579	5.0.10.0	4_exp_AWA_CON_EVA_AMP	39	Rpleas_acq	Oppo	Rpleas	Amasked	CS_A	1pleas	distractor1	CONbeforeEVA	acq_US_pleas_masked	acq1_masked	1	25	0	0	300	300	0	0	1074	50	0	1	0	0	0	1	blank2r.bmp	0	1	+	0	3	B3r.bmp	492	1	blank2r.bmp	786	1	CPLW	786	1	blank2r.bmp	866	1	gesittet	866	0	0	0	0	0	0	0	0	0	0	0	0	0	0	0	0	0	0	0	0	0	0	0	0	0	0	0	0	0	0	0	0	0
122018	12:10:33	12:13:32	177885	5.0.10.0	4_exp_AWA_CON_EVA_AMP	39	Rpleas_acq	Oppo	Rpleas	Amasked	CS_A	1pleas	distractor1	CONbeforeEVA	acq_US_pleas_masked	acq1_masked	1	26	0	0	300	300	0	0	817	50	0	1	0	0	0	1	blank2r.bmp	0	1	+	0	5	C1r.bmp	492	1	blank2r.bmp	786	1	CPLW	786	1	blank2r.bmp	866	4	genießen	866	0	0	0	0	0	0	0	0	0	0	0	0	0	0	0	0	0	0	0	0	0	0	0	0	0	0	0	0	0	0	0	0	0
122018	12:10:33	12:13:34	180257	5.0.10.0	4_exp_AWA_CON_EVA_AMP	39	Rpleas_acq	Oppo	Rpleas	Amasked	CS_A	1pleas	distractor1	CONbeforeEVA	acq_new_unple_masked	acq1_masked	1	27	0	0	300	300	0	0	903	46	0	1	0	0	0	1	blank2r.bmp	0	1	+	0	1	B1r.bmp	492	1	blank2r.bmp	786	3	B3r.bmp	786	1	blank2r.bmp	866	3	krank	866	0	0	0	0	0	0	0	0	0	0	0	0	0	0	0	0	0	0	0	0	0	0	0	0	0	0	0	0	0	0	0	0	0
122018	12:10:33	12:13:37	182549	5.0.10.0	4_exp_AWA_CON_EVA_AMP	39	Rpleas_acq	Oppo	Rpleas	Amasked	CS_A	1pleas	distractor1	CONbeforeEVA	acq_new_pleas_masked	acq1_masked	1	28	0	0	300	300	0	0	811	50	0	1	0	0	0	1	blank2r.bmp	0	1	+	0	2	B2r.bmp	492	1	blank2r.bmp	786	6	C2r.bmp	786	1	blank2r.bmp	866	3	kreativ	866	0	0	0	0	0	0	0	0	0	0	0	0	0	0	0	0	0	0	0	0	0	0	0	0	0	0	0	0	0	0	0	0	0
122018	12:10:33	12:13:39	184748	5.0.10.0	4_exp_AWA_CON_EVA_AMP	39	Rpleas_acq	Oppo	Rpleas	Amasked	CS_A	1pleas	distractor1	CONbeforeEVA	acq_US_unple_masked	acq1_masked	1	29	0	0	300	300	0	0	706	46	0	1	0	0	0	1	blank2r.bmp	0	1	+	0	8	C4r.bmp	492	1	blank2r.bmp	786	1	DHJF	786	1	blank2r.bmp	866	5	bange	866	0	0	0	0	0	0	0	0	0	0	0	0	0	0	0	0	0	0	0	0	0	0	0	0	0	0	0	0	0	0	0	0	0
122018	12:10:33	12:13:41	186894	5.0.10.0	4_exp_AWA_CON_EVA_AMP	39	Rpleas_acq	Oppo	Rpleas	Amasked	CS_A	1pleas	distractor1	CONbeforeEVA	acq_US_unple_masked	acq1_masked	1	30	0	0	300	300	0	0	672	46	0	1	0	0	0	1	blank2r.bmp	0	1	+	0	4	B4r.bmp	492	1	blank2r.bmp	786	1	DHJF	786	1	blank2r.bmp	866	2	versagen	866	0	0	0	0	0	0	0	0	0	0	0	0	0	0	0	0	0	0	0	0	0	0	0	0	0	0	0	0	0	0	0	0	0
122018	12:10:33	12:13:43	189200	5.0.10.0	4_exp_AWA_CON_EVA_AMP	39	Rpleas_acq	Oppo	Rpleas	Amasked	CS_A	1pleas	distractor1	CONbeforeEVA	acq_US_unple_masked	acq1_masked	1	31	0	0	300	300	0	0	815	46	0	1	0	0	0	1	blank2r.bmp	0	1	+	0	6	C2r.bmp	492	1	blank2r.bmp	786	1	DHJF	786	1	blank2r.bmp	866	1	geizig	866	0	0	0	0	0	0	0	0	0	0	0	0	0	0	0	0	0	0	0	0	0	0	0	0	0	0	0	0	0	0	0	0	0
122018	12:10:33	12:13:45	191306	5.0.10.0	4_exp_AWA_CON_EVA_AMP	39	Rpleas_acq	Oppo	Rpleas	Amasked	CS_A	1pleas	distractor1	CONbeforeEVA	acq_US_pleas_masked	acq1_masked	1	32	0	0	300	300	0	0	612	50	0	1	0	0	0	1	blank2r.bmp	0	1	+	0	7	C3r.bmp	492	1	blank2r.bmp	786	1	CPLW	786	1	blank2r.bmp	866	5	besonnen	866	0	0	0	0	0	0	0	0	0	0	0	0	0	0	0	0	0	0	0	0	0	0	0	0	0	0	0	0	0	0	0	0	0
122018	12:10:33	12:13:48	193531	5.0.10.0	4_exp_AWA_CON_EVA_AMP	39	Rpleas_acq	Oppo	Rpleas	Amasked	CS_A	1pleas	distractor1	CONbeforeEVA	acq_new_pleas_masked	acq1_masked	1	33	0	0	300	300	0	0	746	50	0	1	0	0	0	1	blank2r.bmp	0	1	+	0	6	C2r.bmp	492	1	blank2r.bmp	786	8	C4r.bmp	786	1	blank2r.bmp	866	4	kuss	866	0	0	0	0	0	0	0	0	0	0	0	0	0	0	0	0	0	0	0	0	0	0	0	0	0	0	0	0	0	0	0	0	0
122018	12:10:33	12:13:50	195904	5.0.10.0	4_exp_AWA_CON_EVA_AMP	39	Rpleas_acq	Oppo	Rpleas	Amasked	CS_A	1pleas	distractor1	CONbeforeEVA	acq_new_unple_masked	acq1_masked	1	34	0	0	300	300	0	0	895	46	0	1	0	0	0	1	blank2r.bmp	0	1	+	0	2	B2r.bmp	492	1	blank2r.bmp	786	5	C1r.bmp	786	1	blank2r.bmp	866	5	ausrottung	866	0	0	0	0	0	0	0	0	0	0	0	0	0	0	0	0	0	0	0	0	0	0	0	0	0	0	0	0	0	0	0	0	0
122018	12:10:33	12:13:52	198009	5.0.10.0	4_exp_AWA_CON_EVA_AMP	39	Rpleas_acq	Oppo	Rpleas	Amasked	CS_A	1pleas	distractor1	CONbeforeEVA	acq_new_pleas_masked	acq1_masked	1	35	0	0	300	300	0	0	628	50	0	1	0	0	0	1	blank2r.bmp	0	1	+	0	8	C4r.bmp	492	1	blank2r.bmp	786	2	B2r.bmp	786	1	blank2r.bmp	866	2	gütig	866	0	0	0	0	0	0	0	0	0	0	0	0	0	0	0	0	0	0	0	0	0	0	0	0	0	0	0	0	0	0	0	0	0
122018	12:10:33	12:13:54	200142	5.0.10.0	4_exp_AWA_CON_EVA_AMP	39	Rpleas_acq	Oppo	Rpleas	Amasked	CS_A	1pleas	distractor1	CONbeforeEVA	acq_new_unple_masked	acq1_masked	1	36	0	0	300	300	0	0	657	46	0	1	0	0	0	1	blank2r.bmp	0	1	+	0	5	C1r.bmp	492	1	blank2r.bmp	786	8	C4r.bmp	786	1	blank2r.bmp	866	1	töten	866	0	0	0	0	0	0	0	0	0	0	0	0	0	0	0	0	0	0	0	0	0	0	0	0	0	0	0	0	0	0	0	0	0
122018	12:10:33	12:14:40	246309	5.0.10.0	4_exp_AWA_CON_EVA_AMP	39	Rpleas_acq	Oppo	Rpleas	Amasked	CS_A	1pleas	distractor1	CONbeforeEVA	acq_US_pleas_masked	acq2_masked	2	1	480	0	300	300	0	0	946	50	0	1	0	0	0	1	blank2r.bmp	0	1	+	0	3	B3r.bmp	492	1	blank2r.bmp	786	1	CPLW	786	1	blank2r.bmp	866	6	vergnügt	866	1	!	1319	1	!	-1	0	0	0	0	0	0	0	0	0	0	0	0	0	0	0	0	0	0	0	0	0	0	0	0	0	0	0
122018	12:10:33	12:14:43	248548	5.0.10.0	4_exp_AWA_CON_EVA_AMP	39	Rpleas_acq	Oppo	Rpleas	Amasked	CS_A	1pleas	distractor1	CONbeforeEVA	acq_US_unple_masked	acq2_masked	2	2	480	1	300	300	0	0	426	46	0	1	0	0	0	1	blank2r.bmp	0	1	+	0	7	C3r.bmp	492	1	blank2r.bmp	786	1	DHJF	786	1	blank2r.bmp	866	4	gemein	866	1	!	1319	1	!	1332	0	0	0	0	0	0	0	0	0	0	0	0	0	0	0	0	0	0	0	0	0	0	0	0	0	0	0
122018	12:10:33	12:14:45	250774	5.0.10.0	4_exp_AWA_CON_EVA_AMP	39	Rpleas_acq	Oppo	Rpleas	Amasked	CS_A	1pleas	distractor1	CONbeforeEVA	acq_US_unple_masked	acq2_masked	2	3	480	1	300	300	0	0	437	46	0	1	0	0	0	1	blank2r.bmp	0	1	+	0	1	B1r.bmp	492	1	blank2r.bmp	786	1	DHJF	786	1	blank2r.bmp	866	3	engstirnig	866	1	!	1319	1	!	1332	0	0	0	0	0	0	0	0	0	0	0	0	0	0	0	0	0	0	0	0	0	0	0	0	0	0	0
122018	12:10:33	12:14:47	253133	5.0.10.0	4_exp_AWA_CON_EVA_AMP	39	Rpleas_acq	Oppo	Rpleas	Amasked	CS_A	1pleas	distractor1	CONbeforeEVA	acq_US_pleas_masked	acq2_masked	2	4	480	0	300	300	0	0	592	50	0	1	0	0	0	1	blank2r.bmp	0	1	+	0	4	B4r.bmp	492	1	blank2r.bmp	786	1	CPLW	786	1	blank2r.bmp	866	2	vertrauen	866	1	!	1319	1	!	-1	0	0	0	0	0	0	0	0	0	0	0	0	0	0	0	0	0	0	0	0	0	0	0	0	0	0	0
122018	12:10:33	12:14:49	255399	5.0.10.0	4_exp_AWA_CON_EVA_AMP	39	Rpleas_acq	Oppo	Rpleas	Amasked	CS_A	1pleas	distractor1	CONbeforeEVA	acq_new_unple_masked	acq2_masked	2	5	480	1	300	300	0	0	449	46	0	1	0	0	0	1	blank2r.bmp	0	1	+	0	8	C4r.bmp	492	1	blank2r.bmp	786	3	B3r.bmp	786	1	blank2r.bmp	866	4	krise	866	1	!	1319	1	!	1346	0	0	0	0	0	0	0	0	0	0	0	0	0	0	0	0	0	0	0	0	0	0	0	0	0	0	0
122018	12:10:33	12:14:52	257718	5.0.10.0	4_exp_AWA_CON_EVA_AMP	39	Rpleas_acq	Oppo	Rpleas	Amasked	CS_A	1pleas	distractor1	CONbeforeEVA	acq_new_pleas_masked	acq2_masked	2	6	480	1	300	300	0	0	524	50	0	1	0	0	0	1	blank2r.bmp	0	1	+	0	4	B4r.bmp	492	1	blank2r.bmp	786	6	C2r.bmp	786	1	blank2r.bmp	866	5	anregung	866	1	!	1319	1	!	1426	0	0	0	0	0	0	0	0	0	0	0	0	0	0	0	0	0	0	0	0	0	0	0	0	0	0	0
122018	12:10:33	12:14:54	260197	5.0.10.0	4_exp_AWA_CON_EVA_AMP	39	Rpleas_acq	Oppo	Rpleas	Amasked	CS_A	1pleas	distractor1	CONbeforeEVA	acq_US_pleas_masked	acq2_masked	2	7	480	1	300	300	0	0	462	46	0	0	0	0	0	1	blank2r.bmp	0	1	+	0	7	C3r.bmp	492	1	blank2r.bmp	786	1	CPLW	786	1	blank2r.bmp	866	3	engagiert	866	1	FEHLER	1679	1	!	1319	1	!	1359	0	0	0	0	0	0	0	0	0	0	0	0	0	0	0	0	0	0	0	0	0	0	0	0
122018	12:10:33	12:14:56	262489	5.0.10.0	4_exp_AWA_CON_EVA_AMP	39	Rpleas_acq	Oppo	Rpleas	Amasked	CS_A	1pleas	distractor1	CONbeforeEVA	acq_new_pleas_masked	acq2_masked	2	8	480	1	300	300	0	0	504	46	0	0	0	0	0	1	blank2r.bmp	0	1	+	0	6	C2r.bmp	492	1	blank2r.bmp	786	1	B1r.bmp	786	1	blank2r.bmp	866	6	sonnig	866	1	FEHLER	1719	1	!	1319	1	!	1399	0	0	0	0	0	0	0	0	0	0	0	0	0	0	0	0	0	0	0	0	0	0	0	0
122018	12:10:33	12:14:59	264675	5.0.10.0	4_exp_AWA_CON_EVA_AMP	39	Rpleas_acq	Oppo	Rpleas	Amasked	CS_A	1pleas	distractor1	CONbeforeEVA	acq_new_unple_masked	acq2_masked	2	9	480	0	300	300	0	0	628	46	0	1	0	0	0	1	blank2r.bmp	0	1	+	0	5	C1r.bmp	492	1	blank2r.bmp	786	7	C3r.bmp	786	1	blank2r.bmp	866	2	gierig	866	1	!	1319	1	!	-1	0	0	0	0	0	0	0	0	0	0	0	0	0	0	0	0	0	0	0	0	0	0	0	0	0	0	0
122018	12:10:33	12:15:01	267020	5.0.10.0	4_exp_AWA_CON_EVA_AMP	39	Rpleas_acq	Oppo	Rpleas	Amasked	CS_A	1pleas	distractor1	CONbeforeEVA	acq_new_pleas_masked	acq2_masked	2	10	480	1	300	300	0	0	533	50	0	1	0	0	0	1	blank2r.bmp	0	1	+	0	2	B2r.bmp	492	1	blank2r.bmp	786	4	B4r.bmp	786	1	blank2r.bmp	866	1	träumen	866	1	!	1319	1	!	1439	0	0	0	0	0	0	0	0	0	0	0	0	0	0	0	0	0	0	0	0	0	0	0	0	0	0	0
122018	12:10:33	12:15:03	269339	5.0.10.0	4_exp_AWA_CON_EVA_AMP	39	Rpleas_acq	Oppo	Rpleas	Amasked	CS_A	1pleas	distractor1	CONbeforeEVA	acq_new_unple_masked	acq2_masked	2	11	480	1	300	300	0	0	523	46	0	1	0	0	0	1	blank2r.bmp	0	1	+	0	3	B3r.bmp	492	1	blank2r.bmp	786	5	C1r.bmp	786	1	blank2r.bmp	866	6	sterben	866	1	!	1319	1	!	1426	0	0	0	0	0	0	0	0	0	0	0	0	0	0	0	0	0	0	0	0	0	0	0	0	0	0	0
122018	12:10:33	12:15:06	271792	5.0.10.0	4_exp_AWA_CON_EVA_AMP	39	Rpleas_acq	Oppo	Rpleas	Amasked	CS_A	1pleas	distractor1	CONbeforeEVA	acq_US_unple_masked	acq2_masked	2	12	480	1	300	300	0	0	426	50	0	0	0	0	0	1	blank2r.bmp	0	1	+	0	1	B1r.bmp	492	1	blank2r.bmp	786	1	DHJF	786	1	blank2r.bmp	866	6	verbissen	866	1	FEHLER	1652	1	!	1319	1	!	1332	0	0	0	0	0	0	0	0	0	0	0	0	0	0	0	0	0	0	0	0	0	0	0	0
122018	12:10:33	12:15:08	273818	5.0.10.0	4_exp_AWA_CON_EVA_AMP	39	Rpleas_acq	Oppo	Rpleas	Amasked	CS_A	1pleas	distractor1	CONbeforeEVA	acq_new_pleas_masked	acq2_masked	2	13	480	1	300	300	0	0	446	50	0	1	0	0	0	1	blank2r.bmp	0	1	+	0	1	B1r.bmp	492	1	blank2r.bmp	786	5	C1r.bmp	786	1	blank2r.bmp	866	6	sonnig	866	1	!	1319	1	!	1346	0	0	0	0	0	0	0	0	0	0	0	0	0	0	0	0	0	0	0	0	0	0	0	0	0	0	0
122018	12:10:33	12:15:10	276110	5.0.10.0	4_exp_AWA_CON_EVA_AMP	39	Rpleas_acq	Oppo	Rpleas	Amasked	CS_A	1pleas	distractor1	CONbeforeEVA	acq_US_unple_masked	acq2_masked	2	14	480	1	300	300	0	0	485	46	0	1	0	0	0	1	blank2r.bmp	0	1	+	0	4	B4r.bmp	492	1	blank2r.bmp	786	1	DHJF	786	1	blank2r.bmp	866	4	gemein	866	1	!	1319	1	!	1386	0	0	0	0	0	0	0	0	0	0	0	0	0	0	0	0	0	0	0	0	0	0	0	0	0	0	0
122018	12:10:33	12:15:12	278456	5.0.10.0	4_exp_AWA_CON_EVA_AMP	39	Rpleas_acq	Oppo	Rpleas	Amasked	CS_A	1pleas	distractor1	CONbeforeEVA	acq_new_pleas_masked	acq2_masked	2	15	480	0	300	300	0	0	559	50	0	1	0	0	0	1	blank2r.bmp	0	1	+	0	5	C1r.bmp	492	1	blank2r.bmp	786	6	C2r.bmp	786	1	blank2r.bmp	866	5	anregung	866	1	!	1319	1	!	-1	0	0	0	0	0	0	0	0	0	0	0	0	0	0	0	0	0	0	0	0	0	0	0	0	0	0	0
122018	12:10:33	12:15:15	280641	5.0.10.0	4_exp_AWA_CON_EVA_AMP	39	Rpleas_acq	Oppo	Rpleas	Amasked	CS_A	1pleas	distractor1	CONbeforeEVA	acq_new_unple_masked	acq2_masked	2	16	480	0	300	300	0	0	399	46	0	1	0	0	0	1	blank2r.bmp	0	1	+	0	8	C4r.bmp	492	1	blank2r.bmp	786	4	B4r.bmp	786	1	blank2r.bmp	866	4	krise	866	1	!	-1	1	!	-1	0	0	0	0	0	0	0	0	0	0	0	0	0	0	0	0	0	0	0	0	0	0	0	0	0	0	0
122018	12:10:33	12:15:17	282960	5.0.10.0	4_exp_AWA_CON_EVA_AMP	39	Rpleas_acq	Oppo	Rpleas	Amasked	CS_A	1pleas	distractor1	CONbeforeEVA	acq_US_unple_masked	acq2_masked	2	17	480	1	300	300	0	0	511	46	0	1	0	0	0	1	blank2r.bmp	0	1	+	0	3	B3r.bmp	492	1	blank2r.bmp	786	1	DHJF	786	1	blank2r.bmp	866	6	verbissen	866	1	!	1319	1	!	1412	0	0	0	0	0	0	0	0	0	0	0	0	0	0	0	0	0	0	0	0	0	0	0	0	0	0	0
122018	12:10:33	12:15:19	285253	5.0.10.0	4_exp_AWA_CON_EVA_AMP	39	Rpleas_acq	Oppo	Rpleas	Amasked	CS_A	1pleas	distractor1	CONbeforeEVA	acq_US_unple_masked	acq2_masked	2	18	480	1	300	300	0	0	487	46	0	1	0	0	0	1	blank2r.bmp	0	1	+	0	7	C3r.bmp	492	1	blank2r.bmp	786	1	DHJF	786	1	blank2r.bmp	866	5	bange	866	1	!	1319	1	!	1386	0	0	0	0	0	0	0	0	0	0	0	0	0	0	0	0	0	0	0	0	0	0	0	0	0	0	0
122018	12:10:33	12:15:22	287505	5.0.10.0	4_exp_AWA_CON_EVA_AMP	39	Rpleas_acq	Oppo	Rpleas	Amasked	CS_A	1pleas	distractor1	CONbeforeEVA	acq_US_pleas_masked	acq2_masked	2	19	480	1	300	300	0	0	448	50	0	1	0	0	0	1	blank2r.bmp	0	1	+	0	2	B2r.bmp	492	1	blank2r.bmp	786	1	CPLW	786	1	blank2r.bmp	866	2	vertrauen	866	1	!	1319	1	!	1346	0	0	0	0	0	0	0	0	0	0	0	0	0	0	0	0	0	0	0	0	0	0	0	0	0	0	0
122018	12:10:33	12:15:24	289837	5.0.10.0	4_exp_AWA_CON_EVA_AMP	39	Rpleas_acq	Oppo	Rpleas	Amasked	CS_A	1pleas	distractor1	CONbeforeEVA	acq_new_unple_masked	acq2_masked	2	20	480	1	300	300	0	0	534	46	0	1	0	0	0	1	blank2r.bmp	0	1	+	0	6	C2r.bmp	492	1	blank2r.bmp	786	8	C4r.bmp	786	1	blank2r.bmp	866	6	sterben	866	1	!	1319	1	!	1439	0	0	0	0	0	0	0	0	0	0	0	0	0	0	0	0	0	0	0	0	0	0	0	0	0	0	0
122018	12:10:33	12:15:26	292303	5.0.10.0	4_exp_AWA_CON_EVA_AMP	39	Rpleas_acq	Oppo	Rpleas	Amasked	CS_A	1pleas	distractor1	CONbeforeEVA	acq_US_pleas_masked	acq2_masked	2	21	480	1	300	300	0	0	447	46	0	0	0	0	0	1	blank2r.bmp	0	1	+	0	1	B1r.bmp	492	1	blank2r.bmp	786	1	CPLW	786	1	blank2r.bmp	866	4	genießen	866	1	FEHLER	1665	1	!	1319	1	!	1346	0	0	0	0	0	0	0	0	0	0	0	0	0	0	0	0	0	0	0	0	0	0	0	0
122018	12:10:33	12:15:30	295755	5.0.10.0	4_exp_AWA_CON_EVA_AMP	39	Rpleas_acq	Oppo	Rpleas	Amasked	CS_A	1pleas	distractor1	CONbeforeEVA	acq_US_pleas_masked	acq2_masked	2	22	480	0	300	300	0	0	1901	50	0	1	0	0	0	1	blank2r.bmp	0	1	+	0	4	B4r.bmp	492	1	blank2r.bmp	786	1	CPLW	786	1	blank2r.bmp	866	1	gesittet	866	1	!	1319	1	!	-1	0	0	0	0	0	0	0	0	0	0	0	0	0	0	0	0	0	0	0	0	0	0	0	0	0	0	0
122018	12:10:33	12:15:32	298101	5.0.10.0	4_exp_AWA_CON_EVA_AMP	39	Rpleas_acq	Oppo	Rpleas	Amasked	CS_A	1pleas	distractor1	CONbeforeEVA	acq_new_unple_masked	acq2_masked	2	23	480	0	300	300	0	0	562	46	0	1	0	0	0	1	blank2r.bmp	0	1	+	0	8	C4r.bmp	492	1	blank2r.bmp	786	2	B2r.bmp	786	1	blank2r.bmp	866	1	töten	866	1	!	1319	1	!	-1	0	0	0	0	0	0	0	0	0	0	0	0	0	0	0	0	0	0	0	0	0	0	0	0	0	0	0
122018	12:10:33	12:15:35	300660	5.0.10.0	4_exp_AWA_CON_EVA_AMP	39	Rpleas_acq	Oppo	Rpleas	Amasked	CS_A	1pleas	distractor1	CONbeforeEVA	acq_new_pleas_masked	acq2_masked	2	24	480	1	300	300	0	0	543	46	0	0	0	0	0	1	blank2r.bmp	0	1	+	0	2	B2r.bmp	492	1	blank2r.bmp	786	1	B1r.bmp	786	1	blank2r.bmp	866	2	gütig	866	1	FEHLER	1759	1	!	1319	1	!	1439	0	0	0	0	0	0	0	0	0	0	0	0	0	0	0	0	0	0	0	0	0	0	0	0
122018	12:10:33	12:15:37	302912	5.0.10.0	4_exp_AWA_CON_EVA_AMP	39	Rpleas_acq	Oppo	Rpleas	Amasked	CS_A	1pleas	distractor1	CONbeforeEVA	acq_US_unple_masked	acq2_masked	2	25	480	0	300	300	0	0	690	46	0	1	0	0	0	1	blank2r.bmp	0	1	+	0	5	C1r.bmp	492	1	blank2r.bmp	786	1	DHJF	786	1	blank2r.bmp	866	2	versagen	866	1	!	1319	1	!	-1	0	0	0	0	0	0	0	0	0	0	0	0	0	0	0	0	0	0	0	0	0	0	0	0	0	0	0
122018	12:10:33	12:15:39	305191	5.0.10.0	4_exp_AWA_CON_EVA_AMP	39	Rpleas_acq	Oppo	Rpleas	Amasked	CS_A	1pleas	distractor1	CONbeforeEVA	acq_US_pleas_masked	acq2_masked	2	26	480	1	300	300	0	0	471	50	0	1	0	0	0	1	blank2r.bmp	0	1	+	0	6	C2r.bmp	492	1	blank2r.bmp	786	1	CPLW	786	1	blank2r.bmp	866	3	engagiert	866	1	!	1319	1	!	1372	0	0	0	0	0	0	0	0	0	0	0	0	0	0	0	0	0	0	0	0	0	0	0	0	0	0	0
122018	12:10:33	12:15:42	307497	5.0.10.0	4_exp_AWA_CON_EVA_AMP	39	Rpleas_acq	Oppo	Rpleas	Amasked	CS_A	1pleas	distractor1	CONbeforeEVA	acq_new_pleas_masked	acq2_masked	2	27	480	1	300	300	0	0	512	50	0	1	0	0	0	1	blank2r.bmp	0	1	+	0	7	C3r.bmp	492	1	blank2r.bmp	786	3	B3r.bmp	786	1	blank2r.bmp	866	4	kuss	866	1	!	1319	1	!	1412	0	0	0	0	0	0	0	0	0	0	0	0	0	0	0	0	0	0	0	0	0	0	0	0	0	0	0
122018	12:10:33	12:15:44	309749	5.0.10.0	4_exp_AWA_CON_EVA_AMP	39	Rpleas_acq	Oppo	Rpleas	Amasked	CS_A	1pleas	distractor1	CONbeforeEVA	acq_US_pleas_masked	acq2_masked	2	28	480	1	300	300	0	0	445	50	0	1	0	0	0	1	blank2r.bmp	0	1	+	0	3	B3r.bmp	492	1	blank2r.bmp	786	1	CPLW	786	1	blank2r.bmp	866	5	besonnen	866	1	!	1319	1	!	1346	0	0	0	0	0	0	0	0	0	0	0	0	0	0	0	0	0	0	0	0	0	0	0	0	0	0	0
122018	12:10:33	12:15:46	312041	5.0.10.0	4_exp_AWA_CON_EVA_AMP	39	Rpleas_acq	Oppo	Rpleas	Amasked	CS_A	1pleas	distractor1	CONbeforeEVA	acq_new_pleas_masked	acq2_masked	2	29	480	1	300	300	0	0	496	50	0	1	0	0	0	1	blank2r.bmp	0	1	+	0	2	B2r.bmp	492	1	blank2r.bmp	786	7	C3r.bmp	786	1	blank2r.bmp	866	1	träumen	866	1	!	1319	1	!	1399	0	0	0	0	0	0	0	0	0	0	0	0	0	0	0	0	0	0	0	0	0	0	0	0	0	0	0
122018	12:10:33	12:15:49	314600	5.0.10.0	4_exp_AWA_CON_EVA_AMP	39	Rpleas_acq	Oppo	Rpleas	Amasked	CS_A	1pleas	distractor1	CONbeforeEVA	acq_new_unple_masked	acq2_masked	2	30	480	0	300	300	0	0	578	50	0	0	0	0	0	1	blank2r.bmp	0	1	+	0	6	C2r.bmp	492	1	blank2r.bmp	786	3	B3r.bmp	786	1	blank2r.bmp	866	5	ausrottung	866	1	FEHLER	1785	1	!	1319	1	!	-1	0	0	0	0	0	0	0	0	0	0	0	0	0	0	0	0	0	0	0	0	0	0	0	0
122018	12:10:33	12:15:51	316759	5.0.10.0	4_exp_AWA_CON_EVA_AMP	39	Rpleas_acq	Oppo	Rpleas	Amasked	CS_A	1pleas	distractor1	CONbeforeEVA	acq_new_pleas_masked	acq2_masked	2	31	480	0	300	300	0	0	588	50	0	1	0	0	0	1	blank2r.bmp	0	1	+	0	7	C3r.bmp	492	1	blank2r.bmp	786	5	C1r.bmp	786	1	blank2r.bmp	866	3	kreativ	866	1	!	1319	1	!	-1	0	0	0	0	0	0	0	0	0	0	0	0	0	0	0	0	0	0	0	0	0	0	0	0	0	0	0
122018	12:10:33	12:15:53	319119	5.0.10.0	4_exp_AWA_CON_EVA_AMP	39	Rpleas_acq	Oppo	Rpleas	Amasked	CS_A	1pleas	distractor1	CONbeforeEVA	acq_new_unple_masked	acq2_masked	2	32	480	0	300	300	0	0	580	46	0	1	0	0	0	1	blank2r.bmp	0	1	+	0	3	B3r.bmp	492	1	blank2r.bmp	786	4	B4r.bmp	786	1	blank2r.bmp	866	3	krank	866	1	!	1319	1	!	-1	0	0	0	0	0	0	0	0	0	0	0	0	0	0	0	0	0	0	0	0	0	0	0	0	0	0	0
122018	12:10:33	12:15:56	321531	5.0.10.0	4_exp_AWA_CON_EVA_AMP	39	Rpleas_acq	Oppo	Rpleas	Amasked	CS_A	1pleas	distractor1	CONbeforeEVA	acq_new_unple_masked	acq2_masked	2	33	480	0	300	300	0	0	636	46	0	1	0	0	0	1	blank2r.bmp	0	1	+	0	4	B4r.bmp	492	1	blank2r.bmp	786	2	B2r.bmp	786	1	blank2r.bmp	866	2	gierig	866	1	!	1319	1	!	-1	0	0	0	0	0	0	0	0	0	0	0	0	0	0	0	0	0	0	0	0	0	0	0	0	0	0	0
122018	12:10:33	12:15:58	323823	5.0.10.0	4_exp_AWA_CON_EVA_AMP	39	Rpleas_acq	Oppo	Rpleas	Amasked	CS_A	1pleas	distractor1	CONbeforeEVA	acq_US_unple_masked	acq2_masked	2	34	480	1	300	300	0	0	492	46	0	1	0	0	0	1	blank2r.bmp	0	1	+	0	5	C1r.bmp	492	1	blank2r.bmp	786	1	DHJF	786	1	blank2r.bmp	866	3	engstirnig	866	1	!	1319	1	!	1386	0	0	0	0	0	0	0	0	0	0	0	0	0	0	0	0	0	0	0	0	0	0	0	0	0	0	0
122018	12:10:33	12:16:00	326342	5.0.10.0	4_exp_AWA_CON_EVA_AMP	39	Rpleas_acq	Oppo	Rpleas	Amasked	CS_A	1pleas	distractor1	CONbeforeEVA	acq_US_pleas_masked	acq2_masked	2	35	480	0	300	300	0	0	745	50	0	1	0	0	0	1	blank2r.bmp	0	1	+	0	8	C4r.bmp	492	1	blank2r.bmp	786	1	CPLW	786	1	blank2r.bmp	866	6	vergnügt	866	1	!	1319	1	!	-1	0	0	0	0	0	0	0	0	0	0	0	0	0	0	0	0	0	0	0	0	0	0	0	0	0	0	0
122018	12:10:33	12:16:03	328635	5.0.10.0	4_exp_AWA_CON_EVA_AMP	39	Rpleas_acq	Oppo	Rpleas	Amasked	CS_A	1pleas	distractor1	CONbeforeEVA	acq_US_unple_masked	acq2_masked	2	36	480	1	300	300	0	0	490	46	0	1	0	0	0	1	blank2r.bmp	0	1	+	0	1	B1r.bmp	492	1	blank2r.bmp	786	1	DHJF	786	1	blank2r.bmp	866	1	geizig	866	1	!	1319	1	!	1386	0	0	0	0	0	0	0	0	0	0	0	0	0	0	0	0	0	0	0	0	0	0	0	0	0	0	0
122018	12:10:33	12:16:23	349053	5.0.10.0	4_exp_AWA_CON_EVA_AMP	39	Rpleas_acq	Oppo	Rpleas	Amasked	CS_A	1pleas	distractor1	CONbeforeEVA	acq_US_unple_masked	acq3_masked	3	1	453	0	300	300	0	0	1237	46	0	1	0	0	0	1	blank2r.bmp	0	1	+	0	3	B3r.bmp	492	1	blank2r.bmp	786	1	DHJF	786	1	blank2r.bmp	866	1	geizig	866	1	!	1292	1	!	-1	0	0	0	0	0	0	0	0	0	0	0	0	0	0	0	0	0	0	0	0	0	0	0	0	0	0	0
122018	12:10:33	12:16:26	351545	5.0.10.0	4_exp_AWA_CON_EVA_AMP	39	Rpleas_acq	Oppo	Rpleas	Amasked	CS_A	1pleas	distractor1	CONbeforeEVA	acq_US_pleas_masked	acq3_masked	3	2	453	1	300	300	0	0	469	46	0	0	0	0	0	1	blank2r.bmp	0	1	+	0	1	B1r.bmp	492	1	blank2r.bmp	786	1	CPLW	786	1	blank2r.bmp	866	1	gesittet	866	1	FEHLER	1692	1	!	1292	1	!	1372	0	0	0	0	0	0	0	0	0	0	0	0	0	0	0	0	0	0	0	0	0	0	0	0
122018	12:10:33	12:16:28	353757	5.0.10.0	4_exp_AWA_CON_EVA_AMP	39	Rpleas_acq	Oppo	Rpleas	Amasked	CS_A	1pleas	distractor1	CONbeforeEVA	acq_US_unple_masked	acq3_masked	3	3	453	0	300	300	0	0	659	46	0	1	0	0	0	1	blank2r.bmp	0	1	+	0	7	C3r.bmp	492	1	blank2r.bmp	786	1	DHJF	786	1	blank2r.bmp	866	2	versagen	866	1	!	1292	1	!	-1	0	0	0	0	0	0	0	0	0	0	0	0	0	0	0	0	0	0	0	0	0	0	0	0	0	0	0
122018	12:10:33	12:16:30	356223	5.0.10.0	4_exp_AWA_CON_EVA_AMP	39	Rpleas_acq	Oppo	Rpleas	Amasked	CS_A	1pleas	distractor1	CONbeforeEVA	acq_US_unple_masked	acq3_masked	3	4	453	0	300	300	0	0	691	46	0	1	0	0	0	1	blank2r.bmp	0	1	+	0	5	C1r.bmp	492	1	blank2r.bmp	786	1	DHJF	786	1	blank2r.bmp	866	3	engstirnig	866	1	!	1292	1	!	-1	0	0	0	0	0	0	0	0	0	0	0	0	0	0	0	0	0	0	0	0	0	0	0	0	0	0	0
122018	12:10:33	12:16:33	358649	5.0.10.0	4_exp_AWA_CON_EVA_AMP	39	Rpleas_acq	Oppo	Rpleas	Amasked	CS_A	1pleas	distractor1	CONbeforeEVA	acq_US_pleas_masked	acq3_masked	3	5	453	1	300	300	0	0	404	46	0	0	0	0	0	1	blank2r.bmp	0	1	+	0	6	C2r.bmp	492	1	blank2r.bmp	786	1	CPLW	786	1	blank2r.bmp	866	3	engagiert	866	1	FEHLER	1625	1	!	1292	1	!	1306	0	0	0	0	0	0	0	0	0	0	0	0	0	0	0	0	0	0	0	0	0	0	0	0
122018	12:10:33	12:16:35	360768	5.0.10.0	4_exp_AWA_CON_EVA_AMP	39	Rpleas_acq	Oppo	Rpleas	Amasked	CS_A	1pleas	distractor1	CONbeforeEVA	acq_US_unple_masked	acq3_masked	3	6	453	0	300	300	0	0	563	46	0	1	0	0	0	1	blank2r.bmp	0	1	+	0	8	C4r.bmp	492	1	blank2r.bmp	786	1	DHJF	786	1	blank2r.bmp	866	6	verbissen	866	1	!	1292	1	!	-1	0	0	0	0	0	0	0	0	0	0	0	0	0	0	0	0	0	0	0	0	0	0	0	0	0	0	0
122018	12:10:33	12:16:37	363020	5.0.10.0	4_exp_AWA_CON_EVA_AMP	39	Rpleas_acq	Oppo	Rpleas	Amasked	CS_A	1pleas	distractor1	CONbeforeEVA	acq_US_pleas_masked	acq3_masked	3	7	453	1	300	300	0	0	439	50	0	1	0	0	0	1	blank2r.bmp	0	1	+	0	4	B4r.bmp	492	1	blank2r.bmp	786	1	CPLW	786	1	blank2r.bmp	866	6	vergnügt	866	1	!	1292	1	!	1346	0	0	0	0	0	0	0	0	0	0	0	0	0	0	0	0	0	0	0	0	0	0	0	0	0	0	0
122018	12:10:33	12:16:39	365419	5.0.10.0	4_exp_AWA_CON_EVA_AMP	39	Rpleas_acq	Oppo	Rpleas	Amasked	CS_A	1pleas	distractor1	CONbeforeEVA	acq_US_pleas_masked	acq3_masked	3	8	453	0	300	300	0	0	633	50	0	1	0	0	0	1	blank2r.bmp	0	1	+	0	2	B2r.bmp	492	1	blank2r.bmp	786	1	CPLW	786	1	blank2r.bmp	866	4	genießen	866	1	!	1292	1	!	-1	0	0	0	0	0	0	0	0	0	0	0	0	0	0	0	0	0	0	0	0	0	0	0	0	0	0	0
122018	12:10:33	12:16:42	367658	5.0.10.0	4_exp_AWA_CON_EVA_AMP	39	Rpleas_acq	Oppo	Rpleas	Amasked	CS_A	1pleas	distractor1	CONbeforeEVA	acq_US_pleas_masked	acq3_masked	3	9	453	1	300	300	0	0	434	50	0	1	0	0	0	1	blank2r.bmp	0	1	+	0	2	B2r.bmp	492	1	blank2r.bmp	786	1	CPLW	786	1	blank2r.bmp	866	5	besonnen	866	1	!	1292	1	!	1332	0	0	0	0	0	0	0	0	0	0	0	0	0	0	0	0	0	0	0	0	0	0	0	0	0	0	0
122018	12:10:33	12:16:44	369857	5.0.10.0	4_exp_AWA_CON_EVA_AMP	39	Rpleas_acq	Oppo	Rpleas	Amasked	CS_A	1pleas	distractor1	CONbeforeEVA	acq_US_unple_masked	acq3_masked	3	10	453	1	300	300	0	0	407	46	0	1	0	0	0	1	blank2r.bmp	0	1	+	0	4	B4r.bmp	492	1	blank2r.bmp	786	1	DHJF	786	1	blank2r.bmp	866	4	gemein	866	1	!	1292	1	!	1306	0	0	0	0	0	0	0	0	0	0	0	0	0	0	0	0	0	0	0	0	0	0	0	0	0	0	0
122018	12:10:33	12:16:46	372163	5.0.10.0	4_exp_AWA_CON_EVA_AMP	39	Rpleas_acq	Oppo	Rpleas	Amasked	CS_A	1pleas	distractor1	CONbeforeEVA	acq_US_unple_masked	acq3_masked	3	11	453	1	300	300	0	0	513	46	0	1	0	0	0	1	blank2r.bmp	0	1	+	0	5	C1r.bmp	492	1	blank2r.bmp	786	1	DHJF	786	1	blank2r.bmp	866	5	bange	866	1	!	1292	1	!	1412	0	0	0	0	0	0	0	0	0	0	0	0	0	0	0	0	0	0	0	0	0	0	0	0	0	0	0
122018	12:10:33	12:16:48	374469	5.0.10.0	4_exp_AWA_CON_EVA_AMP	39	Rpleas_acq	Oppo	Rpleas	Amasked	CS_A	1pleas	distractor1	CONbeforeEVA	acq_US_pleas_masked	acq3_masked	3	12	453	0	300	300	0	0	532	50	0	1	0	0	0	1	blank2r.bmp	0	1	+	0	8	C4r.bmp	492	1	blank2r.bmp	786	1	CPLW	786	1	blank2r.bmp	866	2	vertrauen	866	1	!	1292	1	!	-1	0	0	0	0	0	0	0	0	0	0	0	0	0	0	0	0	0	0	0	0	0	0	0	0	0	0	0
122018	12:10:33	12:16:51	376694	5.0.10.0	4_exp_AWA_CON_EVA_AMP	39	Rpleas_acq	Oppo	Rpleas	Amasked	CS_A	1pleas	distractor1	CONbeforeEVA	acq_US_pleas_masked	acq3_masked	3	13	453	1	300	300	0	0	399	50	0	1	0	0	0	1	blank2r.bmp	0	1	+	0	6	C2r.bmp	492	1	blank2r.bmp	786	1	CPLW	786	1	blank2r.bmp	866	5	besonnen	866	1	!	1292	1	!	1306	0	0	0	0	0	0	0	0	0	0	0	0	0	0	0	0	0	0	0	0	0	0	0	0	0	0	0
122018	12:10:33	12:16:53	378893	5.0.10.0	4_exp_AWA_CON_EVA_AMP	39	Rpleas_acq	Oppo	Rpleas	Amasked	CS_A	1pleas	distractor1	CONbeforeEVA	acq_US_unple_masked	acq3_masked	3	14	453	1	300	300	0	0	399	46	0	1	0	0	0	1	blank2r.bmp	0	1	+	0	3	B3r.bmp	492	1	blank2r.bmp	786	1	DHJF	786	1	blank2r.bmp	866	4	gemein	866	1	!	1292	1	!	1306	0	0	0	0	0	0	0	0	0	0	0	0	0	0	0	0	0	0	0	0	0	0	0	0	0	0	0
122018	12:10:33	12:16:55	381119	5.0.10.0	4_exp_AWA_CON_EVA_AMP	39	Rpleas_acq	Oppo	Rpleas	Amasked	CS_A	1pleas	distractor1	CONbeforeEVA	acq_US_pleas_masked	acq3_masked	3	15	453	1	300	300	0	0	432	50	0	1	0	0	0	1	blank2r.bmp	0	1	+	0	1	B1r.bmp	492	1	blank2r.bmp	786	1	CPLW	786	1	blank2r.bmp	866	2	vertrauen	866	1	!	1292	1	!	1332	0	0	0	0	0	0	0	0	0	0	0	0	0	0	0	0	0	0	0	0	0	0	0	0	0	0	0
122018	12:10:33	12:16:58	383531	5.0.10.0	4_exp_AWA_CON_EVA_AMP	39	Rpleas_acq	Oppo	Rpleas	Amasked	CS_A	1pleas	distractor1	CONbeforeEVA	acq_US_pleas_masked	acq3_masked	3	16	453	1	300	300	0	0	407	46	0	0	0	0	0	1	blank2r.bmp	0	1	+	0	7	C3r.bmp	492	1	blank2r.bmp	786	1	CPLW	786	1	blank2r.bmp	866	1	gesittet	866	1	FEHLER	1625	1	!	1292	1	!	1306	0	0	0	0	0	0	0	0	0	0	0	0	0	0	0	0	0	0	0	0	0	0	0	0
122018	12:10:33	12:17:00	385890	5.0.10.0	4_exp_AWA_CON_EVA_AMP	39	Rpleas_acq	Oppo	Rpleas	Amasked	CS_A	1pleas	distractor1	CONbeforeEVA	acq_US_unple_masked	acq3_masked	3	17	453	0	300	300	0	0	595	50	0	0	0	0	0	1	blank2r.bmp	0	1	+	0	2	B2r.bmp	492	1	blank2r.bmp	786	1	DHJF	786	1	blank2r.bmp	866	3	engstirnig	866	1	FEHLER	1799	1	!	1292	1	!	-1	0	0	0	0	0	0	0	0	0	0	0	0	0	0	0	0	0	0	0	0	0	0	0	0
122018	12:10:33	12:17:02	388156	5.0.10.0	4_exp_AWA_CON_EVA_AMP	39	Rpleas_acq	Oppo	Rpleas	Amasked	CS_A	1pleas	distractor1	CONbeforeEVA	acq_US_pleas_masked	acq3_masked	3	18	453	0	300	300	0	0	699	50	0	1	0	0	0	1	blank2r.bmp	0	1	+	0	1	B1r.bmp	492	1	blank2r.bmp	786	1	CPLW	786	1	blank2r.bmp	866	4	genießen	866	1	!	1292	1	!	-1	0	0	0	0	0	0	0	0	0	0	0	0	0	0	0	0	0	0	0	0	0	0	0	0	0	0	0
122018	12:10:33	12:17:05	390568	5.0.10.0	4_exp_AWA_CON_EVA_AMP	39	Rpleas_acq	Oppo	Rpleas	Amasked	CS_A	1pleas	distractor1	CONbeforeEVA	acq_US_pleas_masked	acq3_masked	3	19	453	1	300	300	0	0	399	46	0	0	0	0	0	1	blank2r.bmp	0	1	+	0	5	C1r.bmp	492	1	blank2r.bmp	786	1	CPLW	786	1	blank2r.bmp	866	6	vergnügt	866	1	FEHLER	1625	1	!	1292	1	!	1306	0	0	0	0	0	0	0	0	0	0	0	0	0	0	0	0	0	0	0	0	0	0	0	0
122018	12:10:33	12:17:08	393554	5.0.10.0	4_exp_AWA_CON_EVA_AMP	39	Rpleas_acq	Oppo	Rpleas	Amasked	CS_A	1pleas	distractor1	CONbeforeEVA	acq_US_unple_masked	acq3_masked	3	20	453	0	300	300	0	0	1423	46	0	1	0	0	0	1	blank2r.bmp	0	1	+	0	6	C2r.bmp	492	1	blank2r.bmp	786	1	DHJF	786	1	blank2r.bmp	866	6	verbissen	866	1	!	1292	1	!	-1	0	0	0	0	0	0	0	0	0	0	0	0	0	0	0	0	0	0	0	0	0	0	0	0	0	0	0
122018	12:10:33	12:17:10	396020	5.0.10.0	4_exp_AWA_CON_EVA_AMP	39	Rpleas_acq	Oppo	Rpleas	Amasked	CS_A	1pleas	distractor1	CONbeforeEVA	acq_US_unple_masked	acq3_masked	3	21	453	0	300	300	0	0	688	46	0	1	0	0	0	1	blank2r.bmp	0	1	+	0	8	C4r.bmp	492	1	blank2r.bmp	786	1	DHJF	786	1	blank2r.bmp	866	2	versagen	866	1	!	1292	1	!	-1	0	0	0	0	0	0	0	0	0	0	0	0	0	0	0	0	0	0	0	0	0	0	0	0	0	0	0
122018	12:10:33	12:17:13	399072	5.0.10.0	4_exp_AWA_CON_EVA_AMP	39	Rpleas_acq	Oppo	Rpleas	Amasked	CS_A	1pleas	distractor1	CONbeforeEVA	acq_US_unple_masked	acq3_masked	3	22	453	0	300	300	0	0	1270	46	0	1	0	0	0	1	blank2r.bmp	0	1	+	0	7	C3r.bmp	492	1	blank2r.bmp	786	1	DHJF	786	1	blank2r.bmp	866	1	geizig	866	1	!	1292	1	!	-1	0	0	0	0	0	0	0	0	0	0	0	0	0	0	0	0	0	0	0	0	0	0	0	0	0	0	0
122018	12:10:33	12:17:15	401351	5.0.10.0	4_exp_AWA_CON_EVA_AMP	39	Rpleas_acq	Oppo	Rpleas	Amasked	CS_A	1pleas	distractor1	CONbeforeEVA	acq_US_unple_masked	acq3_masked	3	23	453	1	300	300	0	0	463	46	0	1	0	0	0	1	blank2r.bmp	0	1	+	0	3	B3r.bmp	492	1	blank2r.bmp	786	1	DHJF	786	1	blank2r.bmp	866	5	bange	866	1	!	1292	1	!	1359	0	0	0	0	0	0	0	0	0	0	0	0	0	0	0	0	0	0	0	0	0	0	0	0	0	0	0
122018	12:10:33	12:17:18	403656	5.0.10.0	4_exp_AWA_CON_EVA_AMP	39	Rpleas_acq	Oppo	Rpleas	Amasked	CS_A	1pleas	distractor1	CONbeforeEVA	acq_US_pleas_masked	acq3_masked	3	24	453	1	300	300	0	0	515	50	0	1	0	0	0	1	blank2r.bmp	0	1	+	0	4	B4r.bmp	492	1	blank2r.bmp	786	1	CPLW	786	1	blank2r.bmp	866	3	engagiert	866	1	!	1292	1	!	1412	0	0	0	0	0	0	0	0	0	0	0	0	0	0	0	0	0	0	0	0	0	0	0	0	0	0	0
122018	12:10:33	12:17:20	406135	5.0.10.0	4_exp_AWA_CON_EVA_AMP	39	Rpleas_acq	Oppo	Rpleas	Amasked	CS_A	1pleas	distractor1	CONbeforeEVA	acq_US_unple_masked	acq3_masked	3	25	453	0	300	300	0	0	699	46	0	1	0	0	0	1	blank2r.bmp	0	1	+	0	6	C2r.bmp	492	1	blank2r.bmp	786	1	DHJF	786	1	blank2r.bmp	866	6	verbissen	866	1	!	1292	1	!	-1	0	0	0	0	0	0	0	0	0	0	0	0	0	0	0	0	0	0	0	0	0	0	0	0	0	0	0
122018	12:10:33	12:17:23	408654	5.0.10.0	4_exp_AWA_CON_EVA_AMP	39	Rpleas_acq	Oppo	Rpleas	Amasked	CS_A	1pleas	distractor1	CONbeforeEVA	acq_US_unple_masked	acq3_masked	3	26	453	1	300	300	0	0	497	50	0	0	0	0	0	1	blank2r.bmp	0	1	+	0	3	B3r.bmp	492	1	blank2r.bmp	786	1	DHJF	786	1	blank2r.bmp	866	4	gemein	866	1	FEHLER	1719	1	!	1292	1	!	1399	0	0	0	0	0	0	0	0	0	0	0	0	0	0	0	0	0	0	0	0	0	0	0	0
122018	12:10:33	12:17:25	410973	5.0.10.0	4_exp_AWA_CON_EVA_AMP	39	Rpleas_acq	Oppo	Rpleas	Amasked	CS_A	1pleas	distractor1	CONbeforeEVA	acq_US_pleas_masked	acq3_masked	3	27	453	0	300	300	0	0	769	50	0	1	0	0	0	1	blank2r.bmp	0	1	+	0	5	C1r.bmp	492	1	blank2r.bmp	786	1	CPLW	786	1	blank2r.bmp	866	6	vergnügt	866	1	!	1292	1	!	-1	0	0	0	0	0	0	0	0	0	0	0	0	0	0	0	0	0	0	0	0	0	0	0	0	0	0	0
122018	12:10:33	12:17:27	413199	5.0.10.0	4_exp_AWA_CON_EVA_AMP	39	Rpleas_acq	Oppo	Rpleas	Amasked	CS_A	1pleas	distractor1	CONbeforeEVA	acq_US_unple_masked	acq3_masked	3	28	453	1	300	300	0	0	399	46	0	1	0	0	0	1	blank2r.bmp	0	1	+	0	4	B4r.bmp	492	1	blank2r.bmp	786	1	DHJF	786	1	blank2r.bmp	866	5	bange	866	1	!	1292	1	!	1306	0	0	0	0	0	0	0	0	0	0	0	0	0	0	0	0	0	0	0	0	0	0	0	0	0	0	0
122018	12:10:33	12:17:30	415571	5.0.10.0	4_exp_AWA_CON_EVA_AMP	39	Rpleas_acq	Oppo	Rpleas	Amasked	CS_A	1pleas	distractor1	CONbeforeEVA	acq_US_unple_masked	acq3_masked	3	29	453	0	300	300	0	0	610	46	0	1	0	0	0	1	blank2r.bmp	0	1	+	0	2	B2r.bmp	492	1	blank2r.bmp	786	1	DHJF	786	1	blank2r.bmp	866	1	geizig	866	1	!	1292	1	!	-1	0	0	0	0	0	0	0	0	0	0	0	0	0	0	0	0	0	0	0	0	0	0	0	0	0	0	0
122018	12:10:33	12:17:32	417997	5.0.10.0	4_exp_AWA_CON_EVA_AMP	39	Rpleas_acq	Oppo	Rpleas	Amasked	CS_A	1pleas	distractor1	CONbeforeEVA	acq_US_unple_masked	acq3_masked	3	30	453	0	300	300	0	0	639	46	0	1	0	0	0	1	blank2r.bmp	0	1	+	0	8	C4r.bmp	492	1	blank2r.bmp	786	1	DHJF	786	1	blank2r.bmp	866	3	engstirnig	866	1	!	1292	1	!	-1	0	0	0	0	0	0	0	0	0	0	0	0	0	0	0	0	0	0	0	0	0	0	0	0	0	0	0
122018	12:10:33	12:17:34	420169	5.0.10.0	4_exp_AWA_CON_EVA_AMP	39	Rpleas_acq	Oppo	Rpleas	Amasked	CS_A	1pleas	distractor1	CONbeforeEVA	acq_US_pleas_masked	acq3_masked	3	31	453	0	300	300	0	0	386	50	0	1	0	0	0	1	blank2r.bmp	0	1	+	0	7	C3r.bmp	492	1	blank2r.bmp	786	1	CPLW	786	1	blank2r.bmp	866	2	vertrauen	866	1	!	-1	1	!	-1	0	0	0	0	0	0	0	0	0	0	0	0	0	0	0	0	0	0	0	0	0	0	0	0	0	0	0
122018	12:10:33	12:17:37	422648	5.0.10.0	4_exp_AWA_CON_EVA_AMP	39	Rpleas_acq	Oppo	Rpleas	Amasked	CS_A	1pleas	distractor1	CONbeforeEVA	acq_US_pleas_masked	acq3_masked	3	32	453	0	300	300	0	0	698	50	0	1	0	0	0	1	blank2r.bmp	0	1	+	0	1	B1r.bmp	492	1	blank2r.bmp	786	1	CPLW	786	1	blank2r.bmp	866	4	genießen	866	1	!	1292	1	!	-1	0	0	0	0	0	0	0	0	0	0	0	0	0	0	0	0	0	0	0	0	0	0	0	0	0	0	0
122018	12:10:33	12:17:39	424967	5.0.10.0	4_exp_AWA_CON_EVA_AMP	39	Rpleas_acq	Oppo	Rpleas	Amasked	CS_A	1pleas	distractor1	CONbeforeEVA	acq_US_pleas_masked	acq3_masked	3	33	453	1	300	300	0	0	507	50	0	1	0	0	0	1	blank2r.bmp	0	1	+	0	5	C1r.bmp	492	1	blank2r.bmp	786	1	CPLW	786	1	blank2r.bmp	866	5	besonnen	866	1	!	1292	1	!	1412	0	0	0	0	0	0	0	0	0	0	0	0	0	0	0	0	0	0	0	0	0	0	0	0	0	0	0
122018	12:10:33	12:17:42	427526	5.0.10.0	4_exp_AWA_CON_EVA_AMP	39	Rpleas_acq	Oppo	Rpleas	Amasked	CS_A	1pleas	distractor1	CONbeforeEVA	acq_US_pleas_masked	acq3_masked	3	34	453	0	300	300	0	0	570	46	0	0	0	0	0	1	blank2r.bmp	0	1	+	0	4	B4r.bmp	492	1	blank2r.bmp	786	1	CPLW	786	1	blank2r.bmp	866	3	engagiert	866	1	FEHLER	1772	1	!	1292	1	!	-1	0	0	0	0	0	0	0	0	0	0	0	0	0	0	0	0	0	0	0	0	0	0	0	0
122018	12:10:33	12:17:44	429845	5.0.10.0	4_exp_AWA_CON_EVA_AMP	39	Rpleas_acq	Oppo	Rpleas	Amasked	CS_A	1pleas	distractor1	CONbeforeEVA	acq_US_pleas_masked	acq3_masked	3	35	453	0	300	300	0	0	532	46	0	0	0	0	0	1	blank2r.bmp	0	1	+	0	2	B2r.bmp	492	1	blank2r.bmp	786	1	CPLW	786	1	blank2r.bmp	866	1	gesittet	866	1	FEHLER	1745	1	!	1292	1	!	-1	0	0	0	0	0	0	0	0	0	0	0	0	0	0	0	0	0	0	0	0	0	0	0	0
122018	12:10:33	12:17:46	432191	5.0.10.0	4_exp_AWA_CON_EVA_AMP	39	Rpleas_acq	Oppo	Rpleas	Amasked	CS_A	1pleas	distractor1	CONbeforeEVA	acq_US_unple_masked	acq3_masked	3	36	453	0	300	300	0	0	791	46	0	1	0	0	0	1	blank2r.bmp	0	1	+	0	1	B1r.bmp	492	1	blank2r.bmp	786	1	DHJF	786	1	blank2r.bmp	866	2	versagen	866	1	!	1292	1	!	-1	0	0	0	0	0	0	0	0	0	0	0	0	0	0	0	0	0	0	0	0	0	0	0	0	0	0	0
122018	12:10:33	12:18:05	451210	5.0.10.0	4_exp_AWA_CON_EVA_AMP	39	Rpleas_acq	Oppo	Rpleas	Amasked	CS_A	1pleas	distractor1	CONbeforeEVA	acq_US_pleas_masked	acq45_masked	4	1	400	0	300	300	0	0	4738	50	0	1	0	0	0	1	blank2r.bmp	0	1	+	0	7	C3r.bmp	492	1	blank2r.bmp	786	1	CPLW	786	1	blank2r.bmp	866	1	gesittet	866	1	!	1239	1	!	-1	0	0	0	0	0	0	0	0	0	0	0	0	0	0	0	0	0	0	0	0	0	0	0	0	0	0	0
122018	12:10:33	12:18:08	453542	5.0.10.0	4_exp_AWA_CON_EVA_AMP	39	Rpleas_acq	Oppo	Rpleas	Amasked	CS_A	1pleas	distractor1	CONbeforeEVA	acq_US_pleas_masked	acq45_masked	4	2	400	0	300	300	0	0	553	50	0	1	0	0	0	1	blank2r.bmp	0	1	+	0	3	B3r.bmp	492	1	blank2r.bmp	786	1	CPLW	786	1	blank2r.bmp	866	2	vertrauen	866	1	!	1239	1	!	-1	0	0	0	0	0	0	0	0	0	0	0	0	0	0	0	0	0	0	0	0	0	0	0	0	0	0	0
122018	12:10:33	12:18:10	455754	5.0.10.0	4_exp_AWA_CON_EVA_AMP	39	Rpleas_acq	Oppo	Rpleas	Amasked	CS_A	1pleas	distractor1	CONbeforeEVA	acq_US_pleas_masked	acq45_masked	4	3	400	1	300	300	0	0	402	50	0	1	0	0	0	1	blank2r.bmp	0	1	+	0	6	C2r.bmp	492	1	blank2r.bmp	786	1	CPLW	786	1	blank2r.bmp	866	6	vergnügt	866	1	!	1239	1	!	1306	0	0	0	0	0	0	0	0	0	0	0	0	0	0	0	0	0	0	0	0	0	0	0	0	0	0	0
122018	12:10:33	12:18:12	458007	5.0.10.0	4_exp_AWA_CON_EVA_AMP	39	Rpleas_acq	Oppo	Rpleas	Amasked	CS_A	1pleas	distractor1	CONbeforeEVA	acq_US_unple_masked	acq45_masked	4	4	400	0	300	300	0	0	482	50	0	0	0	0	0	1	blank2r.bmp	0	1	+	0	8	C4r.bmp	492	1	blank2r.bmp	786	1	DHJF	786	1	blank2r.bmp	866	3	engstirnig	866	1	!	1239	1	!	-1	0	0	0	0	0	0	0	0	0	0	0	0	0	0	0	0	0	0	0	0	0	0	0	0	0	0	0
122018	12:10:33	12:18:15	460526	5.0.10.0	4_exp_AWA_CON_EVA_AMP	39	Rpleas_acq	Oppo	Rpleas	Amasked	CS_A	1pleas	distractor1	CONbeforeEVA	acq_US_unple_masked	acq45_masked	4	5	400	0	300	300	0	0	730	46	0	1	0	0	0	1	blank2r.bmp	0	1	+	0	3	B3r.bmp	492	1	blank2r.bmp	786	1	DHJF	786	1	blank2r.bmp	866	5	bange	866	1	!	1239	1	!	-1	0	0	0	0	0	0	0	0	0	0	0	0	0	0	0	0	0	0	0	0	0	0	0	0	0	0	0
122018	12:10:33	12:18:17	462978	5.0.10.0	4_exp_AWA_CON_EVA_AMP	39	Rpleas_acq	Oppo	Rpleas	Amasked	CS_A	1pleas	distractor1	CONbeforeEVA	acq_US_unple_masked	acq45_masked	4	6	400	0	300	300	0	0	677	46	0	1	0	0	0	1	blank2r.bmp	0	1	+	0	6	C2r.bmp	492	1	blank2r.bmp	786	1	DHJF	786	1	blank2r.bmp	866	6	verbissen	866	1	!	1239	1	!	-1	0	0	0	0	0	0	0	0	0	0	0	0	0	0	0	0	0	0	0	0	0	0	0	0	0	0	0
122018	12:10:33	12:18:19	465190	5.0.10.0	4_exp_AWA_CON_EVA_AMP	39	Rpleas_acq	Oppo	Rpleas	Amasked	CS_A	1pleas	distractor1	CONbeforeEVA	acq_US_pleas_masked	acq45_masked	4	7	400	1	300	300	0	0	401	46	0	0	0	0	0	1	blank2r.bmp	0	1	+	0	1	B1r.bmp	492	1	blank2r.bmp	786	1	CPLW	786	1	blank2r.bmp	866	4	genießen	866	1	!	1239	1	!	1306	0	0	0	0	0	0	0	0	0	0	0	0	0	0	0	0	0	0	0	0	0	0	0	0	0	0	0
122018	12:10:33	12:18:22	467496	5.0.10.0	4_exp_AWA_CON_EVA_AMP	39	Rpleas_acq	Oppo	Rpleas	Amasked	CS_A	1pleas	distractor1	CONbeforeEVA	acq_US_pleas_masked	acq45_masked	4	8	400	0	300	300	0	0	540	50	0	1	0	0	0	1	blank2r.bmp	0	1	+	0	8	C4r.bmp	492	1	blank2r.bmp	786	1	CPLW	786	1	blank2r.bmp	866	5	besonnen	866	1	!	1239	1	!	-1	0	0	0	0	0	0	0	0	0	0	0	0	0	0	0	0	0	0	0	0	0	0	0	0	0	0	0
122018	12:10:33	12:18:24	469935	5.0.10.0	4_exp_AWA_CON_EVA_AMP	39	Rpleas_acq	Oppo	Rpleas	Amasked	CS_A	1pleas	distractor1	CONbeforeEVA	acq_US_pleas_masked	acq45_masked	4	9	400	0	300	300	0	0	658	50	0	1	0	0	0	1	blank2r.bmp	0	1	+	0	4	B4r.bmp	492	1	blank2r.bmp	786	1	CPLW	786	1	blank2r.bmp	866	3	engagiert	866	1	!	1239	1	!	-1	0	0	0	0	0	0	0	0	0	0	0	0	0	0	0	0	0	0	0	0	0	0	0	0	0	0	0
122018	12:10:33	12:18:26	472347	5.0.10.0	4_exp_AWA_CON_EVA_AMP	39	Rpleas_acq	Oppo	Rpleas	Amasked	CS_A	1pleas	distractor1	CONbeforeEVA	acq_US_unple_masked	acq45_masked	4	10	400	0	300	300	0	0	625	46	0	1	0	0	0	1	blank2r.bmp	0	1	+	0	7	C3r.bmp	492	1	blank2r.bmp	786	1	DHJF	786	1	blank2r.bmp	866	2	versagen	866	1	!	1239	1	!	-1	0	0	0	0	0	0	0	0	0	0	0	0	0	0	0	0	0	0	0	0	0	0	0	0	0	0	0
122018	12:10:33	12:18:29	474573	5.0.10.0	4_exp_AWA_CON_EVA_AMP	39	Rpleas_acq	Oppo	Rpleas	Amasked	CS_A	1pleas	distractor1	CONbeforeEVA	acq_US_unple_masked	acq45_masked	4	11	400	1	300	300	0	0	413	46	0	1	0	0	0	1	blank2r.bmp	0	1	+	0	2	B2r.bmp	492	1	blank2r.bmp	786	1	DHJF	786	1	blank2r.bmp	866	1	geizig	866	1	!	1239	1	!	1319	0	0	0	0	0	0	0	0	0	0	0	0	0	0	0	0	0	0	0	0	0	0	0	0	0	0	0
122018	12:10:33	12:18:31	476812	5.0.10.0	4_exp_AWA_CON_EVA_AMP	39	Rpleas_acq	Oppo	Rpleas	Amasked	CS_A	1pleas	distractor1	CONbeforeEVA	acq_US_unple_masked	acq45_masked	4	12	400	1	300	300	0	0	436	46	0	1	0	0	0	1	blank2r.bmp	0	1	+	0	5	C1r.bmp	492	1	blank2r.bmp	786	1	DHJF	786	1	blank2r.bmp	866	4	gemein	866	1	!	1239	1	!	1332	0	0	0	0	0	0	0	0	0	0	0	0	0	0	0	0	0	0	0	0	0	0	0	0	0	0	0
122018	12:10:33	12:18:33	479025	5.0.10.0	4_exp_AWA_CON_EVA_AMP	39	Rpleas_acq	Oppo	Rpleas	Amasked	CS_A	1pleas	distractor1	CONbeforeEVA	acq_US_unple_masked	acq45_masked	4	13	400	1	300	300	0	0	424	46	0	1	0	0	0	1	blank2r.bmp	0	1	+	0	8	C4r.bmp	492	1	blank2r.bmp	786	1	DHJF	786	1	blank2r.bmp	866	1	geizig	866	1	!	1239	1	!	1319	0	0	0	0	0	0	0	0	0	0	0	0	0	0	0	0	0	0	0	0	0	0	0	0	0	0	0
122018	12:10:33	12:18:35	481104	5.0.10.0	4_exp_AWA_CON_EVA_AMP	39	Rpleas_acq	Oppo	Rpleas	Amasked	CS_A	1pleas	distractor1	CONbeforeEVA	acq_US_unple_masked	acq45_masked	4	14	400	0	300	300	0	0	316	50	0	0	0	0	0	1	blank2r.bmp	0	1	+	0	3	B3r.bmp	492	1	blank2r.bmp	786	1	DHJF	786	1	blank2r.bmp	866	2	versagen	866	1	!	-1	1	!	-1	0	0	0	0	0	0	0	0	0	0	0	0	0	0	0	0	0	0	0	0	0	0	0	0	0	0	0
122018	12:10:33	12:18:38	483689	5.0.10.0	4_exp_AWA_CON_EVA_AMP	39	Rpleas_acq	Oppo	Rpleas	Amasked	CS_A	1pleas	distractor1	CONbeforeEVA	acq_US_unple_masked	acq45_masked	4	15	400	0	300	300	0	0	799	46	0	1	0	0	0	1	blank2r.bmp	0	1	+	0	1	B1r.bmp	492	1	blank2r.bmp	786	1	DHJF	786	1	blank2r.bmp	866	3	engstirnig	866	1	!	1239	1	!	-1	0	0	0	0	0	0	0	0	0	0	0	0	0	0	0	0	0	0	0	0	0	0	0	0	0	0	0
122018	12:10:33	12:18:40	486168	5.0.10.0	4_exp_AWA_CON_EVA_AMP	39	Rpleas_acq	Oppo	Rpleas	Amasked	CS_A	1pleas	distractor1	CONbeforeEVA	acq_US_pleas_masked	acq45_masked	4	16	400	0	300	300	0	0	693	50	0	1	0	0	0	1	blank2r.bmp	0	1	+	0	5	C1r.bmp	492	1	blank2r.bmp	786	1	CPLW	786	1	blank2r.bmp	866	1	gesittet	866	1	!	1239	1	!	-1	0	0	0	0	0	0	0	0	0	0	0	0	0	0	0	0	0	0	0	0	0	0	0	0	0	0	0
122018	12:10:33	12:18:42	488447	5.0.10.0	4_exp_AWA_CON_EVA_AMP	39	Rpleas_acq	Oppo	Rpleas	Amasked	CS_A	1pleas	distractor1	CONbeforeEVA	acq_US_pleas_masked	acq45_masked	4	17	400	0	300	300	0	0	493	50	0	1	0	0	0	1	blank2r.bmp	0	1	+	0	6	C2r.bmp	492	1	blank2r.bmp	786	1	CPLW	786	1	blank2r.bmp	866	2	vertrauen	866	1	!	1239	1	!	-1	0	0	0	0	0	0	0	0	0	0	0	0	0	0	0	0	0	0	0	0	0	0	0	0	0	0	0
122018	12:10:33	12:18:45	490833	5.0.10.0	4_exp_AWA_CON_EVA_AMP	39	Rpleas_acq	Oppo	Rpleas	Amasked	CS_A	1pleas	distractor1	CONbeforeEVA	acq_US_pleas_masked	acq45_masked	4	18	400	0	300	300	0	0	609	50	0	1	0	0	0	1	blank2r.bmp	0	1	+	0	2	B2r.bmp	492	1	blank2r.bmp	786	1	CPLW	786	1	blank2r.bmp	866	3	engagiert	866	1	!	1239	1	!	-1	0	0	0	0	0	0	0	0	0	0	0	0	0	0	0	0	0	0	0	0	0	0	0	0	0	0	0
122018	12:10:33	12:18:47	493099	5.0.10.0	4_exp_AWA_CON_EVA_AMP	39	Rpleas_acq	Oppo	Rpleas	Amasked	CS_A	1pleas	distractor1	CONbeforeEVA	acq_US_pleas_masked	acq45_masked	4	19	400	1	300	300	0	0	464	50	0	1	0	0	0	1	blank2r.bmp	0	1	+	0	7	C3r.bmp	492	1	blank2r.bmp	786	1	CPLW	786	1	blank2r.bmp	866	6	vergnügt	866	1	!	1239	1	!	1359	0	0	0	0	0	0	0	0	0	0	0	0	0	0	0	0	0	0	0	0	0	0	0	0	0	0	0
122018	12:10:33	12:18:50	495524	5.0.10.0	4_exp_AWA_CON_EVA_AMP	39	Rpleas_acq	Oppo	Rpleas	Amasked	CS_A	1pleas	distractor1	CONbeforeEVA	acq_US_pleas_masked	acq45_masked	4	20	400	0	300	300	0	0	655	50	0	1	0	0	0	1	blank2r.bmp	0	1	+	0	4	B4r.bmp	492	1	blank2r.bmp	786	1	CPLW	786	1	blank2r.bmp	866	4	genießen	866	1	!	1239	1	!	-1	0	0	0	0	0	0	0	0	0	0	0	0	0	0	0	0	0	0	0	0	0	0	0	0	0	0	0
122018	12:10:33	12:18:52	497803	5.0.10.0	4_exp_AWA_CON_EVA_AMP	39	Rpleas_acq	Oppo	Rpleas	Amasked	CS_A	1pleas	distractor1	CONbeforeEVA	acq_US_unple_masked	acq45_masked	4	21	400	0	300	300	0	0	479	46	0	1	0	0	0	1	blank2r.bmp	0	1	+	0	8	C4r.bmp	492	1	blank2r.bmp	786	1	DHJF	786	1	blank2r.bmp	866	4	gemein	866	1	!	1239	1	!	-1	0	0	0	0	0	0	0	0	0	0	0	0	0	0	0	0	0	0	0	0	0	0	0	0	0	0	0
122018	12:10:33	12:18:54	499909	5.0.10.0	4_exp_AWA_CON_EVA_AMP	39	Rpleas_acq	Oppo	Rpleas	Amasked	CS_A	1pleas	distractor1	CONbeforeEVA	acq_US_unple_masked	acq45_masked	4	22	400	0	300	300	0	0	317	50	0	0	0	0	0	1	blank2r.bmp	0	1	+	0	4	B4r.bmp	492	1	blank2r.bmp	786	1	DHJF	786	1	blank2r.bmp	866	6	verbissen	866	1	!	-1	1	!	-1	0	0	0	0	0	0	0	0	0	0	0	0	0	0	0	0	0	0	0	0	0	0	0	0	0	0	0
122018	12:10:33	12:18:56	502188	5.0.10.0	4_exp_AWA_CON_EVA_AMP	39	Rpleas_acq	Oppo	Rpleas	Amasked	CS_A	1pleas	distractor1	CONbeforeEVA	acq_US_pleas_masked	acq45_masked	4	23	400	0	300	300	0	0	479	50	0	1	0	0	0	1	blank2r.bmp	0	1	+	0	1	B1r.bmp	492	1	blank2r.bmp	786	1	CPLW	786	1	blank2r.bmp	866	5	besonnen	866	1	!	1239	1	!	-1	0	0	0	0	0	0	0	0	0	0	0	0	0	0	0	0	0	0	0	0	0	0	0	0	0	0	0
122018	12:10:33	12:18:58	504281	5.0.10.0	4_exp_AWA_CON_EVA_AMP	39	Rpleas_acq	Oppo	Rpleas	Amasked	CS_A	1pleas	distractor1	CONbeforeEVA	acq_US_pleas_masked	acq45_masked	4	24	400	0	300	300	0	0	309	50	0	1	0	0	0	1	blank2r.bmp	0	1	+	0	2	B2r.bmp	492	1	blank2r.bmp	786	1	CPLW	786	1	blank2r.bmp	866	4	genießen	866	1	!	-1	1	!	-1	0	0	0	0	0	0	0	0	0	0	0	0	0	0	0	0	0	0	0	0	0	0	0	0	0	0	0
122018	12:10:33	12:19:01	506573	5.0.10.0	4_exp_AWA_CON_EVA_AMP	39	Rpleas_acq	Oppo	Rpleas	Amasked	CS_A	1pleas	distractor1	CONbeforeEVA	acq_US_unple_masked	acq45_masked	4	25	400	0	300	300	0	0	515	46	0	1	0	0	0	1	blank2r.bmp	0	1	+	0	3	B3r.bmp	492	1	blank2r.bmp	786	1	DHJF	786	1	blank2r.bmp	866	5	bange	866	1	!	1239	1	!	-1	0	0	0	0	0	0	0	0	0	0	0	0	0	0	0	0	0	0	0	0	0	0	0	0	0	0	0
122018	12:10:33	12:19:03	508892	5.0.10.0	4_exp_AWA_CON_EVA_AMP	39	Rpleas_acq	Oppo	Rpleas	Amasked	CS_A	1pleas	distractor1	CONbeforeEVA	acq_US_unple_masked	acq45_masked	4	26	400	0	300	300	0	0	539	46	0	1	0	0	0	1	blank2r.bmp	0	1	+	0	5	C1r.bmp	492	1	blank2r.bmp	786	1	DHJF	786	1	blank2r.bmp	866	2	versagen	866	1	!	1239	1	!	-1	0	0	0	0	0	0	0	0	0	0	0	0	0	0	0	0	0	0	0	0	0	0	0	0	0	0	0
122018	12:10:33	12:19:05	511051	5.0.10.0	4_exp_AWA_CON_EVA_AMP	39	Rpleas_acq	Oppo	Rpleas	Amasked	CS_A	1pleas	distractor1	CONbeforeEVA	acq_US_unple_masked	acq45_masked	4	27	400	1	300	300	0	0	346	46	0	1	0	0	0	1	blank2r.bmp	0	1	+	0	7	C3r.bmp	492	1	blank2r.bmp	786	1	DHJF	786	1	blank2r.bmp	866	1	geizig	866	1	!	1239	1	!	1252	0	0	0	0	0	0	0	0	0	0	0	0	0	0	0	0	0	0	0	0	0	0	0	0	0	0	0
122018	12:10:33	12:19:07	513117	5.0.10.0	4_exp_AWA_CON_EVA_AMP	39	Rpleas_acq	Oppo	Rpleas	Amasked	CS_A	1pleas	distractor1	CONbeforeEVA	acq_US_pleas_masked	acq45_masked	4	28	400	0	300	300	0	0	299	50	0	1	0	0	0	1	blank2r.bmp	0	1	+	0	6	C2r.bmp	492	1	blank2r.bmp	786	1	CPLW	786	1	blank2r.bmp	866	3	engagiert	866	1	!	-1	1	!	-1	0	0	0	0	0	0	0	0	0	0	0	0	0	0	0	0	0	0	0	0	0	0	0	0	0	0	0
122018	12:10:33	12:19:09	515383	5.0.10.0	4_exp_AWA_CON_EVA_AMP	39	Rpleas_acq	Oppo	Rpleas	Amasked	CS_A	1pleas	distractor1	CONbeforeEVA	acq_US_unple_masked	acq45_masked	4	29	400	0	300	300	0	0	479	46	0	1	0	0	0	1	blank2r.bmp	0	1	+	0	8	C4r.bmp	492	1	blank2r.bmp	786	1	DHJF	786	1	blank2r.bmp	866	4	gemein	866	1	!	1239	1	!	-1	0	0	0	0	0	0	0	0	0	0	0	0	0	0	0	0	0	0	0	0	0	0	0	0	0	0	0
122018	12:10:33	12:19:12	517688	5.0.10.0	4_exp_AWA_CON_EVA_AMP	39	Rpleas_acq	Oppo	Rpleas	Amasked	CS_A	1pleas	distractor1	CONbeforeEVA	acq_US_pleas_masked	acq45_masked	4	30	400	0	300	300	0	0	531	50	0	1	0	0	0	1	blank2r.bmp	0	1	+	0	7	C3r.bmp	492	1	blank2r.bmp	786	1	CPLW	786	1	blank2r.bmp	866	1	gesittet	866	1	!	1239	1	!	-1	0	0	0	0	0	0	0	0	0	0	0	0	0	0	0	0	0	0	0	0	0	0	0	0	0	0	0
122018	12:10:33	12:19:14	519954	5.0.10.0	4_exp_AWA_CON_EVA_AMP	39	Rpleas_acq	Oppo	Rpleas	Amasked	CS_A	1pleas	distractor1	CONbeforeEVA	acq_US_pleas_masked	acq45_masked	4	31	400	1	300	300	0	0	456	50	0	1	0	0	0	1	blank2r.bmp	0	1	+	0	2	B2r.bmp	492	1	blank2r.bmp	786	1	CPLW	786	1	blank2r.bmp	866	6	vergnügt	866	1	!	1239	1	!	1359	0	0	0	0	0	0	0	0	0	0	0	0	0	0	0	0	0	0	0	0	0	0	0	0	0	0	0
122018	12:10:33	12:19:16	522206	5.0.10.0	4_exp_AWA_CON_EVA_AMP	39	Rpleas_acq	Oppo	Rpleas	Amasked	CS_A	1pleas	distractor1	CONbeforeEVA	acq_US_unple_masked	acq45_masked	4	32	400	0	300	300	0	0	479	46	0	1	0	0	0	1	blank2r.bmp	0	1	+	0	3	B3r.bmp	492	1	blank2r.bmp	786	1	DHJF	786	1	blank2r.bmp	866	5	bange	866	1	!	1239	1	!	-1	0	0	0	0	0	0	0	0	0	0	0	0	0	0	0	0	0	0	0	0	0	0	0	0	0	0	0
122018	12:10:33	12:19:19	525445	5.0.10.0	4_exp_AWA_CON_EVA_AMP	39	Rpleas_acq	Oppo	Rpleas	Amasked	CS_A	1pleas	distractor1	CONbeforeEVA	acq_US_pleas_masked	acq45_masked	4	33	400	0	300	300	0	0	1451	50	0	1	0	0	0	1	blank2r.bmp	0	1	+	0	4	B4r.bmp	492	1	blank2r.bmp	786	1	CPLW	786	1	blank2r.bmp	866	2	vertrauen	866	1	!	1239	1	!	-1	0	0	0	0	0	0	0	0	0	0	0	0	0	0	0	0	0	0	0	0	0	0	0	0	0	0	0
122018	12:10:33	12:19:22	527671	5.0.10.0	4_exp_AWA_CON_EVA_AMP	39	Rpleas_acq	Oppo	Rpleas	Amasked	CS_A	1pleas	distractor1	CONbeforeEVA	acq_US_pleas_masked	acq45_masked	4	34	400	1	300	300	0	0	401	50	0	1	0	0	0	1	blank2r.bmp	0	1	+	0	5	C1r.bmp	492	1	blank2r.bmp	786	1	CPLW	786	1	blank2r.bmp	866	5	besonnen	866	1	!	1239	1	!	1306	0	0	0	0	0	0	0	0	0	0	0	0	0	0	0	0	0	0	0	0	0	0	0	0	0	0	0
122018	12:10:33	12:19:24	529923	5.0.10.0	4_exp_AWA_CON_EVA_AMP	39	Rpleas_acq	Oppo	Rpleas	Amasked	CS_A	1pleas	distractor1	CONbeforeEVA	acq_US_unple_masked	acq45_masked	4	35	400	1	300	300	0	0	453	50	0	0	0	0	0	1	blank2r.bmp	0	1	+	0	6	C2r.bmp	492	1	blank2r.bmp	786	1	DHJF	786	1	blank2r.bmp	866	3	engstirnig	866	1	!	1239	1	!	1359	0	0	0	0	0	0	0	0	0	0	0	0	0	0	0	0	0	0	0	0	0	0	0	0	0	0	0
122018	12:10:33	12:19:26	532322	5.0.10.0	4_exp_AWA_CON_EVA_AMP	39	Rpleas_acq	Oppo	Rpleas	Amasked	CS_A	1pleas	distractor1	CONbeforeEVA	acq_US_unple_masked	acq45_masked	4	36	400	0	300	300	0	0	629	46	0	1	0	0	0	1	blank2r.bmp	0	1	+	0	1	B1r.bmp	492	1	blank2r.bmp	786	1	DHJF	786	1	blank2r.bmp	866	6	verbissen	866	1	!	1239	1	!	-1	0	0	0	0	0	0	0	0	0	0	0	0	0	0	0	0	0	0	0	0	0	0	0	0	0	0	0
122018	12:10:33	12:19:39	545250	5.0.10.0	4_exp_AWA_CON_EVA_AMP	39	Rpleas_acq	Oppo	Rpleas	Amasked	CS_A	1pleas	distractor1	CONbeforeEVA	acq_US_unple_masked	acq45_masked	5	1	400	1	300	300	0	0	420	46	0	1	0	0	0	1	blank2r.bmp	0	1	+	0	8	C4r.bmp	492	1	blank2r.bmp	786	1	DHJF	786	1	blank2r.bmp	866	5	bange	866	1	!	1239	1	!	1319	0	0	0	0	0	0	0	0	0	0	0	0	0	0	0	0	0	0	0	0	0	0	0	0	0	0	0
122018	12:10:33	12:19:42	547503	5.0.10.0	4_exp_AWA_CON_EVA_AMP	39	Rpleas_acq	Oppo	Rpleas	Amasked	CS_A	1pleas	distractor1	CONbeforeEVA	acq_US_unple_masked	acq45_masked	5	2	400	1	300	300	0	0	453	50	0	0	0	0	0	1	blank2r.bmp	0	1	+	0	5	C1r.bmp	492	1	blank2r.bmp	786	1	DHJF	786	1	blank2r.bmp	866	6	verbissen	866	1	!	1239	1	!	1359	0	0	0	0	0	0	0	0	0	0	0	0	0	0	0	0	0	0	0	0	0	0	0	0	0	0	0
122018	12:10:33	12:19:44	549755	5.0.10.0	4_exp_AWA_CON_EVA_AMP	39	Rpleas_acq	Oppo	Rpleas	Amasked	CS_A	1pleas	distractor1	CONbeforeEVA	acq_US_pleas_masked	acq45_masked	5	3	400	1	300	300	0	0	450	50	0	1	0	0	0	1	blank2r.bmp	0	1	+	0	2	B2r.bmp	492	1	blank2r.bmp	786	1	CPLW	786	1	blank2r.bmp	866	5	besonnen	866	1	!	1239	1	!	1346	0	0	0	0	0	0	0	0	0	0	0	0	0	0	0	0	0	0	0	0	0	0	0	0	0	0	0
122018	12:10:33	12:19:46	552047	5.0.10.0	4_exp_AWA_CON_EVA_AMP	39	Rpleas_acq	Oppo	Rpleas	Amasked	CS_A	1pleas	distractor1	CONbeforeEVA	acq_US_pleas_masked	acq45_masked	5	4	400	0	300	300	0	0	528	50	0	1	0	0	0	1	blank2r.bmp	0	1	+	0	3	B3r.bmp	492	1	blank2r.bmp	786	1	CPLW	786	1	blank2r.bmp	866	2	vertrauen	866	1	!	1239	1	!	-1	0	0	0	0	0	0	0	0	0	0	0	0	0	0	0	0	0	0	0	0	0	0	0	0	0	0	0
122018	12:10:33	12:19:48	554220	5.0.10.0	4_exp_AWA_CON_EVA_AMP	39	Rpleas_acq	Oppo	Rpleas	Amasked	CS_A	1pleas	distractor1	CONbeforeEVA	acq_US_pleas_masked	acq45_masked	5	5	400	1	300	300	0	0	365	50	0	1	0	0	0	1	blank2r.bmp	0	1	+	0	7	C3r.bmp	492	1	blank2r.bmp	786	1	CPLW	786	1	blank2r.bmp	866	6	vergnügt	866	1	!	1239	1	!	1266	0	0	0	0	0	0	0	0	0	0	0	0	0	0	0	0	0	0	0	0	0	0	0	0	0	0	0
122018	12:10:33	12:19:51	556552	5.0.10.0	4_exp_AWA_CON_EVA_AMP	39	Rpleas_acq	Oppo	Rpleas	Amasked	CS_A	1pleas	distractor1	CONbeforeEVA	acq_US_unple_masked	acq45_masked	5	6	400	0	300	300	0	0	564	46	0	1	0	0	0	1	blank2r.bmp	0	1	+	0	4	B4r.bmp	492	1	blank2r.bmp	786	1	DHJF	786	1	blank2r.bmp	866	1	geizig	866	1	!	1239	1	!	-1	0	0	0	0	0	0	0	0	0	0	0	0	0	0	0	0	0	0	0	0	0	0	0	0	0	0	0
122018	12:10:33	12:19:53	558791	5.0.10.0	4_exp_AWA_CON_EVA_AMP	39	Rpleas_acq	Oppo	Rpleas	Amasked	CS_A	1pleas	distractor1	CONbeforeEVA	acq_US_unple_masked	acq45_masked	5	7	400	1	300	300	0	0	417	46	0	1	0	0	0	1	blank2r.bmp	0	1	+	0	1	B1r.bmp	492	1	blank2r.bmp	786	1	DHJF	786	1	blank2r.bmp	866	4	gemein	866	1	!	1239	1	!	1319	0	0	0	0	0	0	0	0	0	0	0	0	0	0	0	0	0	0	0	0	0	0	0	0	0	0	0
122018	12:10:33	12:19:55	560897	5.0.10.0	4_exp_AWA_CON_EVA_AMP	39	Rpleas_acq	Oppo	Rpleas	Amasked	CS_A	1pleas	distractor1	CONbeforeEVA	acq_US_pleas_masked	acq45_masked	5	8	400	0	300	300	0	0	333	46	0	0	0	0	0	1	blank2r.bmp	0	1	+	0	6	C2r.bmp	492	1	blank2r.bmp	786	1	CPLW	786	1	blank2r.bmp	866	1	gesittet	866	1	!	-1	1	!	-1	0	0	0	0	0	0	0	0	0	0	0	0	0	0	0	0	0	0	0	0	0	0	0	0	0	0	0
122018	12:10:33	12:19:57	563069	5.0.10.0	4_exp_AWA_CON_EVA_AMP	39	Rpleas_acq	Oppo	Rpleas	Amasked	CS_A	1pleas	distractor1	CONbeforeEVA	acq_US_pleas_masked	acq45_masked	5	9	400	1	300	300	0	0	363	50	0	1	0	0	0	1	blank2r.bmp	0	1	+	0	4	B4r.bmp	492	1	blank2r.bmp	786	1	CPLW	786	1	blank2r.bmp	866	3	engagiert	866	1	!	1239	1	!	1266	0	0	0	0	0	0	0	0	0	0	0	0	0	0	0	0	0	0	0	0	0	0	0	0	0	0	0
122018	12:10:33	12:19:59	565228	5.0.10.0	4_exp_AWA_CON_EVA_AMP	39	Rpleas_acq	Oppo	Rpleas	Amasked	CS_A	1pleas	distractor1	CONbeforeEVA	acq_US_pleas_masked	acq45_masked	5	10	400	1	300	300	0	0	356	50	0	1	0	0	0	1	blank2r.bmp	0	1	+	0	2	B2r.bmp	492	1	blank2r.bmp	786	1	CPLW	786	1	blank2r.bmp	866	4	genießen	866	1	!	1239	1	!	1252	0	0	0	0	0	0	0	0	0	0	0	0	0	0	0	0	0	0	0	0	0	0	0	0	0	0	0
122018	12:10:33	12:20:01	567441	5.0.10.0	4_exp_AWA_CON_EVA_AMP	39	Rpleas_acq	Oppo	Rpleas	Amasked	CS_A	1pleas	distractor1	CONbeforeEVA	acq_US_unple_masked	acq45_masked	5	11	400	1	300	300	0	0	419	50	0	0	0	0	0	1	blank2r.bmp	0	1	+	0	8	C4r.bmp	492	1	blank2r.bmp	786	1	DHJF	786	1	blank2r.bmp	866	2	versagen	866	1	!	1239	1	!	1319	0	0	0	0	0	0	0	0	0	0	0	0	0	0	0	0	0	0	0	0	0	0	0	0	0	0	0
122018	12:10:33	12:20:05	571013	5.0.10.0	4_exp_AWA_CON_EVA_AMP	39	Rpleas_acq	Oppo	Rpleas	Amasked	CS_A	1pleas	distractor1	CONbeforeEVA	acq_US_unple_masked	acq45_masked	5	12	400	0	300	300	0	0	1805	46	0	1	0	0	0	1	blank2r.bmp	0	1	+	0	3	B3r.bmp	492	1	blank2r.bmp	786	1	DHJF	786	1	blank2r.bmp	866	3	engstirnig	866	1	!	1239	1	!	-1	0	0	0	0	0	0	0	0	0	0	0	0	0	0	0	0	0	0	0	0	0	0	0	0	0	0	0
122018	12:10:33	12:20:08	573665	5.0.10.0	4_exp_AWA_CON_EVA_AMP	39	Rpleas_acq	Oppo	Rpleas	Amasked	CS_A	1pleas	distractor1	CONbeforeEVA	acq_US_pleas_masked	acq45_masked	5	13	400	0	300	300	0	0	863	50	0	1	0	0	0	1	blank2r.bmp	0	1	+	0	5	C1r.bmp	492	1	blank2r.bmp	786	1	CPLW	786	1	blank2r.bmp	866	3	engagiert	866	1	!	1239	1	!	-1	0	0	0	0	0	0	0	0	0	0	0	0	0	0	0	0	0	0	0	0	0	0	0	0	0	0	0
122018	12:10:33	12:20:10	575944	5.0.10.0	4_exp_AWA_CON_EVA_AMP	39	Rpleas_acq	Oppo	Rpleas	Amasked	CS_A	1pleas	distractor1	CONbeforeEVA	acq_US_pleas_masked	acq45_masked	5	14	400	1	300	300	0	0	461	50	0	1	0	0	0	1	blank2r.bmp	0	1	+	0	1	B1r.bmp	492	1	blank2r.bmp	786	1	CPLW	786	1	blank2r.bmp	866	6	vergnügt	866	1	!	1239	1	!	1359	0	0	0	0	0	0	0	0	0	0	0	0	0	0	0	0	0	0	0	0	0	0	0	0	0	0	0
122018	12:10:33	12:20:12	578303	5.0.10.0	4_exp_AWA_CON_EVA_AMP	39	Rpleas_acq	Oppo	Rpleas	Amasked	CS_A	1pleas	distractor1	CONbeforeEVA	acq_US_unple_masked	acq45_masked	5	15	400	0	300	300	0	0	595	46	0	1	0	0	0	1	blank2r.bmp	0	1	+	0	7	C3r.bmp	492	1	blank2r.bmp	786	1	DHJF	786	1	blank2r.bmp	866	6	verbissen	866	1	!	1239	1	!	-1	0	0	0	0	0	0	0	0	0	0	0	0	0	0	0	0	0	0	0	0	0	0	0	0	0	0	0
122018	12:10:33	12:20:15	580849	5.0.10.0	4_exp_AWA_CON_EVA_AMP	39	Rpleas_acq	Oppo	Rpleas	Amasked	CS_A	1pleas	distractor1	CONbeforeEVA	acq_US_pleas_masked	acq45_masked	5	16	400	0	300	300	0	0	761	50	0	1	0	0	0	1	blank2r.bmp	0	1	+	0	6	C2r.bmp	492	1	blank2r.bmp	786	1	CPLW	786	1	blank2r.bmp	866	4	genießen	866	1	!	1239	1	!	-1	0	0	0	0	0	0	0	0	0	0	0	0	0	0	0	0	0	0	0	0	0	0	0	0	0	0	0
122018	12:10:33	12:20:17	583114	5.0.10.0	4_exp_AWA_CON_EVA_AMP	39	Rpleas_acq	Oppo	Rpleas	Amasked	CS_A	1pleas	distractor1	CONbeforeEVA	acq_US_unple_masked	acq45_masked	5	17	400	0	300	300	0	0	488	46	0	1	0	0	0	1	blank2r.bmp	0	1	+	0	4	B4r.bmp	492	1	blank2r.bmp	786	1	DHJF	786	1	blank2r.bmp	866	4	gemein	866	1	!	1239	1	!	-1	0	0	0	0	0	0	0	0	0	0	0	0	0	0	0	0	0	0	0	0	0	0	0	0	0	0	0
122018	12:10:33	12:20:19	585380	5.0.10.0	4_exp_AWA_CON_EVA_AMP	39	Rpleas_acq	Oppo	Rpleas	Amasked	CS_A	1pleas	distractor1	CONbeforeEVA	acq_US_unple_masked	acq45_masked	5	18	400	0	300	300	0	0	479	50	0	0	0	0	0	1	blank2r.bmp	0	1	+	0	2	B2r.bmp	492	1	blank2r.bmp	786	1	DHJF	786	1	blank2r.bmp	866	5	bange	866	1	!	1239	1	!	-1	0	0	0	0	0	0	0	0	0	0	0	0	0	0	0	0	0	0	0	0	0	0	0	0	0	0	0
122018	12:10:33	12:20:22	587832	5.0.10.0	4_exp_AWA_CON_EVA_AMP	39	Rpleas_acq	Oppo	Rpleas	Amasked	CS_A	1pleas	distractor1	CONbeforeEVA	acq_US_unple_masked	acq45_masked	5	19	400	0	300	300	0	0	657	46	0	1	0	0	0	1	blank2r.bmp	0	1	+	0	6	C2r.bmp	492	1	blank2r.bmp	786	1	DHJF	786	1	blank2r.bmp	866	3	engstirnig	866	1	!	1239	1	!	-1	0	0	0	0	0	0	0	0	0	0	0	0	0	0	0	0	0	0	0	0	0	0	0	0	0	0	0
122018	12:10:33	12:20:24	590098	5.0.10.0	4_exp_AWA_CON_EVA_AMP	39	Rpleas_acq	Oppo	Rpleas	Amasked	CS_A	1pleas	distractor1	CONbeforeEVA	acq_US_pleas_masked	acq45_masked	5	20	400	1	300	300	0	0	456	50	0	1	0	0	0	1	blank2r.bmp	0	1	+	0	7	C3r.bmp	492	1	blank2r.bmp	786	1	CPLW	786	1	blank2r.bmp	866	2	vertrauen	866	1	!	1239	1	!	1359	0	0	0	0	0	0	0	0	0	0	0	0	0	0	0	0	0	0	0	0	0	0	0	0	0	0	0
122018	12:10:33	12:20:26	592324	5.0.10.0	4_exp_AWA_CON_EVA_AMP	39	Rpleas_acq	Oppo	Rpleas	Amasked	CS_A	1pleas	distractor1	CONbeforeEVA	acq_US_unple_masked	acq45_masked	5	21	400	1	300	300	0	0	434	46	0	1	0	0	0	1	blank2r.bmp	0	1	+	0	1	B1r.bmp	492	1	blank2r.bmp	786	1	DHJF	786	1	blank2r.bmp	866	1	geizig	866	1	!	1239	1	!	1332	0	0	0	0	0	0	0	0	0	0	0	0	0	0	0	0	0	0	0	0	0	0	0	0	0	0	0
122018	12:10:33	12:20:29	594656	5.0.10.0	4_exp_AWA_CON_EVA_AMP	39	Rpleas_acq	Oppo	Rpleas	Amasked	CS_A	1pleas	distractor1	CONbeforeEVA	acq_US_pleas_masked	acq45_masked	5	22	400	0	300	300	0	0	570	46	0	0	0	0	0	1	blank2r.bmp	0	1	+	0	8	C4r.bmp	492	1	blank2r.bmp	786	1	CPLW	786	1	blank2r.bmp	866	1	gesittet	866	1	!	1239	1	!	-1	0	0	0	0	0	0	0	0	0	0	0	0	0	0	0	0	0	0	0	0	0	0	0	0	0	0	0
122018	12:10:33	12:20:31	596935	5.0.10.0	4_exp_AWA_CON_EVA_AMP	39	Rpleas_acq	Oppo	Rpleas	Amasked	CS_A	1pleas	distractor1	CONbeforeEVA	acq_US_pleas_masked	acq45_masked	5	23	400	0	300	300	0	0	494	50	0	1	0	0	0	1	blank2r.bmp	0	1	+	0	5	C1r.bmp	492	1	blank2r.bmp	786	1	CPLW	786	1	blank2r.bmp	866	5	besonnen	866	1	!	1239	1	!	-1	0	0	0	0	0	0	0	0	0	0	0	0	0	0	0	0	0	0	0	0	0	0	0	0	0	0	0
122018	12:10:33	12:20:33	599281	5.0.10.0	4_exp_AWA_CON_EVA_AMP	39	Rpleas_acq	Oppo	Rpleas	Amasked	CS_A	1pleas	distractor1	CONbeforeEVA	acq_US_unple_masked	acq45_masked	5	24	400	0	300	300	0	0	571	46	0	1	0	0	0	1	blank2r.bmp	0	1	+	0	3	B3r.bmp	492	1	blank2r.bmp	786	1	DHJF	786	1	blank2r.bmp	866	2	versagen	866	1	!	1239	1	!	-1	0	0	0	0	0	0	0	0	0	0	0	0	0	0	0	0	0	0	0	0	0	0	0	0	0	0	0
122018	12:10:33	12:20:36	601626	5.0.10.0	4_exp_AWA_CON_EVA_AMP	39	Rpleas_acq	Oppo	Rpleas	Amasked	CS_A	1pleas	distractor1	CONbeforeEVA	acq_US_unple_masked	acq45_masked	5	25	400	0	300	300	0	0	550	50	0	0	0	0	0	1	blank2r.bmp	0	1	+	0	7	C3r.bmp	492	1	blank2r.bmp	786	1	DHJF	786	1	blank2r.bmp	866	3	engstirnig	866	1	!	1239	1	!	-1	0	0	0	0	0	0	0	0	0	0	0	0	0	0	0	0	0	0	0	0	0	0	0	0	0	0	0
122018	12:10:33	12:20:39	604505	5.0.10.0	4_exp_AWA_CON_EVA_AMP	39	Rpleas_acq	Oppo	Rpleas	Amasked	CS_A	1pleas	distractor1	CONbeforeEVA	acq_US_unple_masked	acq45_masked	5	26	400	0	300	300	0	0	1091	46	0	1	0	0	0	1	blank2r.bmp	0	1	+	0	5	C1r.bmp	492	1	blank2r.bmp	786	1	DHJF	786	1	blank2r.bmp	866	5	bange	866	1	!	1239	1	!	-1	0	0	0	0	0	0	0	0	0	0	0	0	0	0	0	0	0	0	0	0	0	0	0	0	0	0	0
122018	12:10:33	12:20:41	606771	5.0.10.0	4_exp_AWA_CON_EVA_AMP	39	Rpleas_acq	Oppo	Rpleas	Amasked	CS_A	1pleas	distractor1	CONbeforeEVA	acq_US_unple_masked	acq45_masked	5	27	400	1	300	300	0	0	443	50	0	0	0	0	0	1	blank2r.bmp	0	1	+	0	1	B1r.bmp	492	1	blank2r.bmp	786	1	DHJF	786	1	blank2r.bmp	866	2	versagen	866	1	!	1239	1	!	1346	0	0	0	0	0	0	0	0	0	0	0	0	0	0	0	0	0	0	0	0	0	0	0	0	0	0	0
122018	12:10:33	12:20:43	609277	5.0.10.0	4_exp_AWA_CON_EVA_AMP	39	Rpleas_acq	Oppo	Rpleas	Amasked	CS_A	1pleas	distractor1	CONbeforeEVA	acq_US_pleas_masked	acq45_masked	5	28	400	0	300	300	0	0	732	50	0	1	0	0	0	1	blank2r.bmp	0	1	+	0	4	B4r.bmp	492	1	blank2r.bmp	786	1	CPLW	786	1	blank2r.bmp	866	1	gesittet	866	1	!	1239	1	!	-1	0	0	0	0	0	0	0	0	0	0	0	0	0	0	0	0	0	0	0	0	0	0	0	0	0	0	0
122018	12:10:33	12:20:46	611689	5.0.10.0	4_exp_AWA_CON_EVA_AMP	39	Rpleas_acq	Oppo	Rpleas	Amasked	CS_A	1pleas	distractor1	CONbeforeEVA	acq_US_unple_masked	acq45_masked	5	29	400	0	300	300	0	0	632	46	0	1	0	0	0	1	blank2r.bmp	0	1	+	0	3	B3r.bmp	492	1	blank2r.bmp	786	1	DHJF	786	1	blank2r.bmp	866	6	verbissen	866	1	!	1239	1	!	-1	0	0	0	0	0	0	0	0	0	0	0	0	0	0	0	0	0	0	0	0	0	0	0	0	0	0	0
122018	12:10:33	12:20:48	613981	5.0.10.0	4_exp_AWA_CON_EVA_AMP	39	Rpleas_acq	Oppo	Rpleas	Amasked	CS_A	1pleas	distractor1	CONbeforeEVA	acq_US_pleas_masked	acq45_masked	5	30	400	0	300	300	0	0	509	50	0	1	0	0	0	1	blank2r.bmp	0	1	+	0	8	C4r.bmp	492	1	blank2r.bmp	786	1	CPLW	786	1	blank2r.bmp	866	2	vertrauen	866	1	!	1239	1	!	-1	0	0	0	0	0	0	0	0	0	0	0	0	0	0	0	0	0	0	0	0	0	0	0	0	0	0	0
122018	12:10:33	12:20:50	616247	5.0.10.0	4_exp_AWA_CON_EVA_AMP	39	Rpleas_acq	Oppo	Rpleas	Amasked	CS_A	1pleas	distractor1	CONbeforeEVA	acq_US_pleas_masked	acq45_masked	5	31	400	0	300	300	0	0	488	50	0	1	0	0	0	1	blank2r.bmp	0	1	+	0	6	C2r.bmp	492	1	blank2r.bmp	786	1	CPLW	786	1	blank2r.bmp	866	5	besonnen	866	1	!	1239	1	!	-1	0	0	0	0	0	0	0	0	0	0	0	0	0	0	0	0	0	0	0	0	0	0	0	0	0	0	0
122018	12:10:33	12:20:53	618513	5.0.10.0	4_exp_AWA_CON_EVA_AMP	39	Rpleas_acq	Oppo	Rpleas	Amasked	CS_A	1pleas	distractor1	CONbeforeEVA	acq_US_unple_masked	acq45_masked	5	32	400	0	300	300	0	0	484	46	0	1	0	0	0	1	blank2r.bmp	0	1	+	0	2	B2r.bmp	492	1	blank2r.bmp	786	1	DHJF	786	1	blank2r.bmp	866	1	geizig	866	1	!	1239	1	!	-1	0	0	0	0	0	0	0	0	0	0	0	0	0	0	0	0	0	0	0	0	0	0	0	0	0	0	0
122018	12:10:33	12:20:55	620672	5.0.10.0	4_exp_AWA_CON_EVA_AMP	39	Rpleas_acq	Oppo	Rpleas	Amasked	CS_A	1pleas	distractor1	CONbeforeEVA	acq_US_unple_masked	acq45_masked	5	33	400	1	300	300	0	0	352	50	0	0	0	0	0	1	blank2r.bmp	0	1	+	0	6	C2r.bmp	492	1	blank2r.bmp	786	1	DHJF	786	1	blank2r.bmp	866	4	gemein	866	1	!	1239	1	!	1252	0	0	0	0	0	0	0	0	0	0	0	0	0	0	0	0	0	0	0	0	0	0	0	0	0	0	0
122018	12:10:33	12:20:57	623351	5.0.10.0	4_exp_AWA_CON_EVA_AMP	39	Rpleas_acq	Oppo	Rpleas	Amasked	CS_A	1pleas	distractor1	CONbeforeEVA	acq_US_pleas_masked	acq45_masked	5	34	400	0	300	300	0	0	907	50	0	1	0	0	0	1	blank2r.bmp	0	1	+	0	7	C3r.bmp	492	1	blank2r.bmp	786	1	CPLW	786	1	blank2r.bmp	866	3	engagiert	866	1	!	1239	1	!	-1	0	0	0	0	0	0	0	0	0	0	0	0	0	0	0	0	0	0	0	0	0	0	0	0	0	0	0
122018	12:10:33	12:21:00	625883	5.0.10.0	4_exp_AWA_CON_EVA_AMP	39	Rpleas_acq	Oppo	Rpleas	Amasked	CS_A	1pleas	distractor1	CONbeforeEVA	acq_US_pleas_masked	acq45_masked	5	35	400	0	300	300	0	0	738	46	0	0	0	0	0	1	blank2r.bmp	0	1	+	0	8	C4r.bmp	492	1	blank2r.bmp	786	1	CPLW	786	1	blank2r.bmp	866	4	genießen	866	1	!	1239	1	!	-1	0	0	0	0	0	0	0	0	0	0	0	0	0	0	0	0	0	0	0	0	0	0	0	0	0	0	0
122018	12:10:33	12:21:02	628175	5.0.10.0	4_exp_AWA_CON_EVA_AMP	39	Rpleas_acq	Oppo	Rpleas	Amasked	CS_A	1pleas	distractor1	CONbeforeEVA	acq_US_pleas_masked	acq45_masked	5	36	400	0	300	300	0	0	507	50	0	1	0	0	0	1	blank2r.bmp	0	1	+	0	3	B3r.bmp	492	1	blank2r.bmp	786	1	CPLW	786	1	blank2r.bmp	866	6	vergnügt	866	1	!	1239	1	!	-1	0	0	0	0	0	0	0	0	0	0	0	0	0	0	0	0	0	0	0	0	0	0	0	0	0	0	0
122018	12:10:33	12:22:51	736543	5.0.10.0	4_exp_AWA_CON_EVA_AMP	39	Rpleas_acq	Oppo	Lpleas	Amasked	CS_A	1pleas	distractor1	CONbeforeEVA	cond_US_pleas_123_masked_CS1	condtest_masked_1	8	1	400	0	300	300	0	0	547	46	0	1	0	0	0	1	blank2r.bmp	0	1	+	0	5	C1r.bmp	492	1	blank2r.bmp	786	1	CPLW	786	1	blank2r.bmp	866	3	engagiert	866	1	!	1239	1	!	-1	0	0	0	0	0	0	0	0	0	0	0	0	0	0	0	0	0	0	0	0	0	0	0	0	0	0	0
122018	12:10:33	12:22:53	738822	5.0.10.0	4_exp_AWA_CON_EVA_AMP	39	Rpleas_acq	Oppo	Lpleas	Amasked	CS_A	1pleas	distractor1	CONbeforeEVA	cond_new_unple_456_masked_CS2	condtest_masked_1	8	2	400	0	300	300	0	0	486	50	0	1	0	0	0	1	blank2r.bmp	0	1	+	0	1	B1r.bmp	492	1	blank2r.bmp	786	1	DHJF	786	1	blank2r.bmp	866	2	ausrottung	866	1	!	1239	1	!	-1	0	0	0	0	0	0	0	0	0	0	0	0	0	0	0	0	0	0	0	0	0	0	0	0	0	0	0
122018	12:10:33	12:22:55	741088	5.0.10.0	4_exp_AWA_CON_EVA_AMP	39	Rpleas_acq	Oppo	Lpleas	Amasked	CS_A	1pleas	distractor1	CONbeforeEVA	cond_new_pleas_456_masked_CS2	condtest_masked_1	8	3	400	1	300	300	0	0	449	46	0	1	0	0	0	1	blank2r.bmp	0	1	+	0	4	B4r.bmp	492	1	blank2r.bmp	786	1	DHJF	786	1	blank2r.bmp	866	3	sonnig	866	1	!	1239	1	!	1346	0	0	0	0	0	0	0	0	0	0	0	0	0	0	0	0	0	0	0	0	0	0	0	0	0	0	0
122018	12:10:33	12:22:57	743340	5.0.10.0	4_exp_AWA_CON_EVA_AMP	39	Rpleas_acq	Oppo	Lpleas	Amasked	CS_A	1pleas	distractor1	CONbeforeEVA	cond_US_pleas_123_masked_CS2	condtest_masked_1	8	4	400	1	300	300	0	0	454	46	0	1	0	0	0	1	blank2r.bmp	0	1	+	0	2	B2r.bmp	492	1	blank2r.bmp	786	1	DHJF	786	1	blank2r.bmp	866	2	vertrauen	866	1	!	1239	1	!	1359	0	0	0	0	0	0	0	0	0	0	0	0	0	0	0	0	0	0	0	0	0	0	0	0	0	0	0
122018	12:10:33	12:23:00	745593	5.0.10.0	4_exp_AWA_CON_EVA_AMP	39	Rpleas_acq	Oppo	Lpleas	Amasked	CS_A	1pleas	distractor1	CONbeforeEVA	cond_US_unple_123_masked_CS2	condtest_masked_1	8	5	400	0	300	300	0	0	479	46	0	0	0	0	0	1	blank2r.bmp	0	1	+	0	7	C3r.bmp	492	1	blank2r.bmp	786	1	DHJF	786	1	blank2r.bmp	866	3	engstirnig	866	1	!	1239	1	!	-1	0	0	0	0	0	0	0	0	0	0	0	0	0	0	0	0	0	0	0	0	0	0	0	0	0	0	0
122018	12:10:33	12:23:02	747872	5.0.10.0	4_exp_AWA_CON_EVA_AMP	39	Rpleas_acq	Oppo	Lpleas	Amasked	CS_A	1pleas	distractor1	CONbeforeEVA	cond_US_unple_123_masked_CS1	condtest_masked_1	8	6	400	0	300	300	0	0	479	50	0	1	0	0	0	1	blank2r.bmp	0	1	+	0	2	B2r.bmp	492	1	blank2r.bmp	786	1	CPLW	786	1	blank2r.bmp	866	1	geizig	866	1	!	1239	1	!	-1	0	0	0	0	0	0	0	0	0	0	0	0	0	0	0	0	0	0	0	0	0	0	0	0	0	0	0
122018	12:10:33	12:23:04	750351	5.0.10.0	4_exp_AWA_CON_EVA_AMP	39	Rpleas_acq	Oppo	Lpleas	Amasked	CS_A	1pleas	distractor1	CONbeforeEVA	cond_new_unple_456_masked_CS1	condtest_masked_1	8	7	400	0	300	300	0	0	702	50	0	1	0	0	0	1	blank2r.bmp	0	1	+	0	3	B3r.bmp	492	1	blank2r.bmp	786	1	CPLW	786	1	blank2r.bmp	866	3	sterben	866	1	!	1239	1	!	-1	0	0	0	0	0	0	0	0	0	0	0	0	0	0	0	0	0	0	0	0	0	0	0	0	0	0	0
122018	12:10:33	12:23:07	752630	5.0.10.0	4_exp_AWA_CON_EVA_AMP	39	Rpleas_acq	Oppo	Lpleas	Amasked	CS_A	1pleas	distractor1	CONbeforeEVA	cond_new_pleas_456_masked_CS1	condtest_masked_1	8	8	400	1	300	300	0	0	452	46	0	1	0	0	0	1	blank2r.bmp	0	1	+	0	1	B1r.bmp	492	1	blank2r.bmp	786	1	CPLW	786	1	blank2r.bmp	866	1	kuss	866	1	!	1239	1	!	1359	0	0	0	0	0	0	0	0	0	0	0	0	0	0	0	0	0	0	0	0	0	0	0	0	0	0	0
122018	12:10:33	12:23:20	765851	5.0.10.0	4_exp_AWA_CON_EVA_AMP	39	Rpleas_acq	Oppo	Lpleas	Amasked	CS_A	1pleas	distractor1	CONbeforeEVA	cond_new_unple_456_masked_CS2	condtest_masked_2	9	1	400	0	300	300	0	0	2609	50	0	1	0	0	0	1	blank2r.bmp	0	1	+	0	5	C1r.bmp	492	1	blank2r.bmp	786	1	DHJF	786	1	blank2r.bmp	866	1	krise	866	1	!	1239	1	!	-1	0	0	0	0	0	0	0	0	0	0	0	0	0	0	0	0	0	0	0	0	0	0	0	0	0	0	0
122018	12:10:33	12:23:22	768343	5.0.10.0	4_exp_AWA_CON_EVA_AMP	39	Rpleas_acq	Oppo	Lpleas	Amasked	CS_A	1pleas	distractor1	CONbeforeEVA	cond_US_pleas_123_masked_CS2	condtest_masked_2	9	2	400	0	300	300	0	0	717	50	0	0	0	0	0	1	blank2r.bmp	0	1	+	0	4	B4r.bmp	492	1	blank2r.bmp	786	1	DHJF	786	1	blank2r.bmp	866	1	gesittet	866	1	!	1239	1	!	-1	0	0	0	0	0	0	0	0	0	0	0	0	0	0	0	0	0	0	0	0	0	0	0	0	0	0	0
122018	12:10:33	12:23:25	770729	5.0.10.0	4_exp_AWA_CON_EVA_AMP	39	Rpleas_acq	Oppo	Lpleas	Amasked	CS_A	1pleas	distractor1	CONbeforeEVA	cond_new_unple_456_masked_CS1	condtest_masked_2	9	3	400	0	300	300	0	0	605	50	0	1	0	0	0	1	blank2r.bmp	0	1	+	0	8	C4r.bmp	492	1	blank2r.bmp	786	1	CPLW	786	1	blank2r.bmp	866	2	ausrottung	866	1	!	1239	1	!	-1	0	0	0	0	0	0	0	0	0	0	0	0	0	0	0	0	0	0	0	0	0	0	0	0	0	0	0
122018	12:10:33	12:23:27	772994	5.0.10.0	4_exp_AWA_CON_EVA_AMP	39	Rpleas_acq	Oppo	Lpleas	Amasked	CS_A	1pleas	distractor1	CONbeforeEVA	cond_new_unple_456_masked_CS1	condtest_masked_2	9	4	400	0	300	300	0	0	482	50	0	1	0	0	0	1	blank2r.bmp	0	1	+	0	6	C2r.bmp	492	1	blank2r.bmp	786	1	CPLW	786	1	blank2r.bmp	866	3	sterben	866	1	!	1239	1	!	-1	0	0	0	0	0	0	0	0	0	0	0	0	0	0	0	0	0	0	0	0	0	0	0	0	0	0	0
122018	12:10:33	12:23:29	775420	5.0.10.0	4_exp_AWA_CON_EVA_AMP	39	Rpleas_acq	Oppo	Lpleas	Amasked	CS_A	1pleas	distractor1	CONbeforeEVA	cond_new_pleas_456_masked_CS1	condtest_masked_2	9	5	400	0	300	300	0	0	648	46	0	1	0	0	0	1	blank2r.bmp	0	1	+	0	2	B2r.bmp	492	1	blank2r.bmp	786	1	CPLW	786	1	blank2r.bmp	866	2	anregung	866	1	!	1239	1	!	-1	0	0	0	0	0	0	0	0	0	0	0	0	0	0	0	0	0	0	0	0	0	0	0	0	0	0	0
122018	12:10:33	12:23:32	777872	5.0.10.0	4_exp_AWA_CON_EVA_AMP	39	Rpleas_acq	Oppo	Lpleas	Amasked	CS_A	1pleas	distractor1	CONbeforeEVA	cond_US_pleas_123_masked_CS1	condtest_masked_2	9	6	400	0	300	300	0	0	667	46	0	1	0	0	0	1	blank2r.bmp	0	1	+	0	3	B3r.bmp	492	1	blank2r.bmp	786	1	CPLW	786	1	blank2r.bmp	866	3	engagiert	866	1	!	1239	1	!	-1	0	0	0	0	0	0	0	0	0	0	0	0	0	0	0	0	0	0	0	0	0	0	0	0	0	0	0
122018	12:10:33	12:23:34	780125	5.0.10.0	4_exp_AWA_CON_EVA_AMP	39	Rpleas_acq	Oppo	Lpleas	Amasked	CS_A	1pleas	distractor1	CONbeforeEVA	cond_new_pleas_456_masked_CS1	condtest_masked_2	9	7	400	1	300	300	0	0	440	46	0	1	0	0	0	1	blank2r.bmp	0	1	+	0	4	B4r.bmp	492	1	blank2r.bmp	786	1	CPLW	786	1	blank2r.bmp	866	1	kuss	866	1	!	1239	1	!	1346	0	0	0	0	0	0	0	0	0	0	0	0	0	0	0	0	0	0	0	0	0	0	0	0	0	0	0
122018	12:10:33	12:23:36	782377	5.0.10.0	4_exp_AWA_CON_EVA_AMP	39	Rpleas_acq	Oppo	Lpleas	Amasked	CS_A	1pleas	distractor1	CONbeforeEVA	cond_US_pleas_123_masked_CS2	condtest_masked_2	9	8	400	0	300	300	0	0	479	50	0	0	0	0	0	1	blank2r.bmp	0	1	+	0	6	C2r.bmp	492	1	blank2r.bmp	786	1	DHJF	786	1	blank2r.bmp	866	1	gesittet	866	1	!	1239	1	!	-1	0	0	0	0	0	0	0	0	0	0	0	0	0	0	0	0	0	0	0	0	0	0	0	0	0	0	0
122018	12:10:33	12:23:39	784803	5.0.10.0	4_exp_AWA_CON_EVA_AMP	39	Rpleas_acq	Oppo	Lpleas	Amasked	CS_A	1pleas	distractor1	CONbeforeEVA	cond_US_unple_123_masked_CS1	condtest_masked_2	9	9	400	0	300	300	0	0	638	50	0	1	0	0	0	1	blank2r.bmp	0	1	+	0	5	C1r.bmp	492	1	blank2r.bmp	786	1	CPLW	786	1	blank2r.bmp	866	2	versagen	866	1	!	1239	1	!	-1	0	0	0	0	0	0	0	0	0	0	0	0	0	0	0	0	0	0	0	0	0	0	0	0	0	0	0
122018	12:10:33	12:23:41	787295	5.0.10.0	4_exp_AWA_CON_EVA_AMP	39	Rpleas_acq	Oppo	Lpleas	Amasked	CS_A	1pleas	distractor1	CONbeforeEVA	cond_US_unple_123_masked_CS1	condtest_masked_2	9	10	400	0	300	300	0	0	708	50	0	1	0	0	0	1	blank2r.bmp	0	1	+	0	7	C3r.bmp	492	1	blank2r.bmp	786	1	CPLW	786	1	blank2r.bmp	866	3	engstirnig	866	1	!	1239	1	!	-1	0	0	0	0	0	0	0	0	0	0	0	0	0	0	0	0	0	0	0	0	0	0	0	0	0	0	0
122018	12:10:33	12:23:44	789601	5.0.10.0	4_exp_AWA_CON_EVA_AMP	39	Rpleas_acq	Oppo	Lpleas	Amasked	CS_A	1pleas	distractor1	CONbeforeEVA	cond_US_pleas_123_masked_CS2	condtest_masked_2	9	11	400	0	300	300	0	0	520	46	0	1	0	0	0	1	blank2r.bmp	0	1	+	0	1	B1r.bmp	492	1	blank2r.bmp	786	1	DHJF	786	1	blank2r.bmp	866	2	vertrauen	866	1	!	1239	1	!	-1	0	0	0	0	0	0	0	0	0	0	0	0	0	0	0	0	0	0	0	0	0	0	0	0	0	0	0
122018	12:10:33	12:23:50	795585	5.0.10.0	4_exp_AWA_CON_EVA_AMP	39	Rpleas_acq	Oppo	Lpleas	Amasked	CS_A	1pleas	distractor1	CONbeforeEVA	cond_US_unple_123_masked_CS2	condtest_masked_2	9	12	400	0	300	300	0	0	4203	50	0	1	0	0	0	1	blank2r.bmp	0	1	+	0	8	C4r.bmp	492	1	blank2r.bmp	786	1	DHJF	786	1	blank2r.bmp	866	1	geizig	866	1	!	1239	1	!	-1	0	0	0	0	0	0	0	0	0	0	0	0	0	0	0	0	0	0	0	0	0	0	0	0	0	0	0
122018	12:10:33	12:23:52	797877	5.0.10.0	4_exp_AWA_CON_EVA_AMP	39	Rpleas_acq	Oppo	Lpleas	Amasked	CS_A	1pleas	distractor1	CONbeforeEVA	cond_new_unple_456_masked_CS2	condtest_masked_2	9	13	400	0	300	300	0	0	506	50	0	1	0	0	0	1	blank2r.bmp	0	1	+	0	6	C2r.bmp	492	1	blank2r.bmp	786	1	DHJF	786	1	blank2r.bmp	866	1	krise	866	1	!	1239	1	!	-1	0	0	0	0	0	0	0	0	0	0	0	0	0	0	0	0	0	0	0	0	0	0	0	0	0	0	0
122018	12:10:33	12:23:54	800210	5.0.10.0	4_exp_AWA_CON_EVA_AMP	39	Rpleas_acq	Oppo	Lpleas	Amasked	CS_A	1pleas	distractor1	CONbeforeEVA	cond_US_pleas_123_masked_CS1	condtest_masked_2	9	14	400	0	300	300	0	0	554	50	0	0	0	0	0	1	blank2r.bmp	0	1	+	0	3	B3r.bmp	492	1	blank2r.bmp	786	1	CPLW	786	1	blank2r.bmp	866	1	gesittet	866	1	!	1239	1	!	-1	0	0	0	0	0	0	0	0	0	0	0	0	0	0	0	0	0	0	0	0	0	0	0	0	0	0	0
122018	12:10:33	12:23:57	802555	5.0.10.0	4_exp_AWA_CON_EVA_AMP	39	Rpleas_acq	Oppo	Lpleas	Amasked	CS_A	1pleas	distractor1	CONbeforeEVA	cond_new_unple_456_masked_CS1	condtest_masked_2	9	15	400	0	300	300	0	0	570	50	0	1	0	0	0	1	blank2r.bmp	0	1	+	0	4	B4r.bmp	492	1	blank2r.bmp	786	1	CPLW	786	1	blank2r.bmp	866	3	sterben	866	1	!	1239	1	!	-1	0	0	0	0	0	0	0	0	0	0	0	0	0	0	0	0	0	0	0	0	0	0	0	0	0	0	0
122018	12:10:33	12:23:59	804861	5.0.10.0	4_exp_AWA_CON_EVA_AMP	39	Rpleas_acq	Oppo	Lpleas	Amasked	CS_A	1pleas	distractor1	CONbeforeEVA	cond_US_unple_123_masked_CS2	condtest_masked_2	9	16	400	0	300	300	0	0	520	50	0	1	0	0	0	1	blank2r.bmp	0	1	+	0	7	C3r.bmp	492	1	blank2r.bmp	786	1	DHJF	786	1	blank2r.bmp	866	2	versagen	866	1	!	1239	1	!	-1	0	0	0	0	0	0	0	0	0	0	0	0	0	0	0	0	0	0	0	0	0	0	0	0	0	0	0
122018	12:10:33	12:24:01	807047	5.0.10.0	4_exp_AWA_CON_EVA_AMP	39	Rpleas_acq	Oppo	Lpleas	Amasked	CS_A	1pleas	distractor1	CONbeforeEVA	cond_new_pleas_456_masked_CS2	condtest_masked_2	9	17	400	1	300	300	0	0	380	46	0	1	0	0	0	1	blank2r.bmp	0	1	+	0	2	B2r.bmp	492	1	blank2r.bmp	786	1	DHJF	786	1	blank2r.bmp	866	3	sonnig	866	1	!	1239	1	!	1279	0	0	0	0	0	0	0	0	0	0	0	0	0	0	0	0	0	0	0	0	0	0	0	0	0	0	0
122018	12:10:33	12:24:03	809432	5.0.10.0	4_exp_AWA_CON_EVA_AMP	39	Rpleas_acq	Oppo	Lpleas	Amasked	CS_A	1pleas	distractor1	CONbeforeEVA	cond_US_unple_123_masked_CS1	condtest_masked_2	9	18	400	0	300	300	0	0	615	50	0	1	0	0	0	1	blank2r.bmp	0	1	+	0	8	C4r.bmp	492	1	blank2r.bmp	786	1	CPLW	786	1	blank2r.bmp	866	3	engstirnig	866	1	!	1239	1	!	-1	0	0	0	0	0	0	0	0	0	0	0	0	0	0	0	0	0	0	0	0	0	0	0	0	0	0	0
122018	12:10:33	12:24:06	811765	5.0.10.0	4_exp_AWA_CON_EVA_AMP	39	Rpleas_acq	Oppo	Lpleas	Amasked	CS_A	1pleas	distractor1	CONbeforeEVA	cond_new_unple_456_masked_CS2	condtest_masked_2	9	19	400	0	300	300	0	0	552	50	0	1	0	0	0	1	blank2r.bmp	0	1	+	0	5	C1r.bmp	492	1	blank2r.bmp	786	1	DHJF	786	1	blank2r.bmp	866	2	ausrottung	866	1	!	1239	1	!	-1	0	0	0	0	0	0	0	0	0	0	0	0	0	0	0	0	0	0	0	0	0	0	0	0	0	0	0
122018	12:10:33	12:24:08	814017	5.0.10.0	4_exp_AWA_CON_EVA_AMP	39	Rpleas_acq	Oppo	Lpleas	Amasked	CS_A	1pleas	distractor1	CONbeforeEVA	cond_US_unple_123_masked_CS2	condtest_masked_2	9	20	400	1	300	300	0	0	449	50	0	1	0	0	0	1	blank2r.bmp	0	1	+	0	1	B1r.bmp	492	1	blank2r.bmp	786	1	DHJF	786	1	blank2r.bmp	866	1	geizig	866	1	!	1239	1	!	1346	0	0	0	0	0	0	0	0	0	0	0	0	0	0	0	0	0	0	0	0	0	0	0	0	0	0	0
122018	12:10:33	12:24:10	816176	5.0.10.0	4_exp_AWA_CON_EVA_AMP	39	Rpleas_acq	Oppo	Lpleas	Amasked	CS_A	1pleas	distractor1	CONbeforeEVA	cond_new_pleas_456_masked_CS1	condtest_masked_2	9	21	400	1	300	300	0	0	370	50	0	0	0	0	0	1	blank2r.bmp	0	1	+	0	4	B4r.bmp	492	1	blank2r.bmp	786	1	CPLW	786	1	blank2r.bmp	866	2	anregung	866	1	!	1239	1	!	1266	0	0	0	0	0	0	0	0	0	0	0	0	0	0	0	0	0	0	0	0	0	0	0	0	0	0	0
122018	12:10:33	12:24:12	818269	5.0.10.0	4_exp_AWA_CON_EVA_AMP	39	Rpleas_acq	Oppo	Lpleas	Amasked	CS_A	1pleas	distractor1	CONbeforeEVA	cond_new_unple_456_masked_CS1	condtest_masked_2	9	22	400	0	300	300	0	0	321	50	0	1	0	0	0	1	blank2r.bmp	0	1	+	0	7	C3r.bmp	492	1	blank2r.bmp	786	1	CPLW	786	1	blank2r.bmp	866	1	krise	866	1	!	-1	1	!	-1	0	0	0	0	0	0	0	0	0	0	0	0	0	0	0	0	0	0	0	0	0	0	0	0	0	0	0
122018	12:10:33	12:24:14	820481	5.0.10.0	4_exp_AWA_CON_EVA_AMP	39	Rpleas_acq	Oppo	Lpleas	Amasked	CS_A	1pleas	distractor1	CONbeforeEVA	cond_new_pleas_456_masked_CS2	condtest_masked_2	9	23	400	1	300	300	0	0	407	46	0	1	0	0	0	1	blank2r.bmp	0	1	+	0	2	B2r.bmp	492	1	blank2r.bmp	786	1	DHJF	786	1	blank2r.bmp	866	3	sonnig	866	1	!	1239	1	!	1306	0	0	0	0	0	0	0	0	0	0	0	0	0	0	0	0	0	0	0	0	0	0	0	0	0	0	0
122018	12:10:33	12:24:17	822574	5.0.10.0	4_exp_AWA_CON_EVA_AMP	39	Rpleas_acq	Oppo	Lpleas	Amasked	CS_A	1pleas	distractor1	CONbeforeEVA	cond_new_pleas_456_masked_CS2	condtest_masked_2	9	24	400	0	300	300	0	0	324	46	0	1	0	0	0	1	blank2r.bmp	0	1	+	0	5	C1r.bmp	492	1	blank2r.bmp	786	1	DHJF	786	1	blank2r.bmp	866	1	kuss	866	1	!	-1	1	!	-1	0	0	0	0	0	0	0	0	0	0	0	0	0	0	0	0	0	0	0	0	0	0	0	0	0	0	0
122018	12:10:33	12:24:19	825013	5.0.10.0	4_exp_AWA_CON_EVA_AMP	39	Rpleas_acq	Oppo	Lpleas	Amasked	CS_A	1pleas	distractor1	CONbeforeEVA	cond_US_pleas_123_masked_CS1	condtest_masked_2	9	25	400	0	300	300	0	0	652	46	0	1	0	0	0	1	blank2r.bmp	0	1	+	0	6	C2r.bmp	492	1	blank2r.bmp	786	1	CPLW	786	1	blank2r.bmp	866	2	vertrauen	866	1	!	1239	1	!	-1	0	0	0	0	0	0	0	0	0	0	0	0	0	0	0	0	0	0	0	0	0	0	0	0	0	0	0
122018	12:10:33	12:24:21	827278	5.0.10.0	4_exp_AWA_CON_EVA_AMP	39	Rpleas_acq	Oppo	Lpleas	Amasked	CS_A	1pleas	distractor1	CONbeforeEVA	cond_US_pleas_123_masked_CS2	condtest_masked_2	9	26	400	1	300	300	0	0	452	46	0	1	0	0	0	1	blank2r.bmp	0	1	+	0	1	B1r.bmp	492	1	blank2r.bmp	786	1	DHJF	786	1	blank2r.bmp	866	3	engagiert	866	1	!	1239	1	!	1359	0	0	0	0	0	0	0	0	0	0	0	0	0	0	0	0	0	0	0	0	0	0	0	0	0	0	0
122018	12:10:33	12:24:24	829571	5.0.10.0	4_exp_AWA_CON_EVA_AMP	39	Rpleas_acq	Oppo	Lpleas	Amasked	CS_A	1pleas	distractor1	CONbeforeEVA	cond_US_unple_123_masked_CS1	condtest_masked_2	9	27	400	0	300	300	0	0	530	50	0	1	0	0	0	1	blank2r.bmp	0	1	+	0	8	C4r.bmp	492	1	blank2r.bmp	786	1	CPLW	786	1	blank2r.bmp	866	2	versagen	866	1	!	1239	1	!	-1	0	0	0	0	0	0	0	0	0	0	0	0	0	0	0	0	0	0	0	0	0	0	0	0	0	0	0
122018	12:10:33	12:24:26	831876	5.0.10.0	4_exp_AWA_CON_EVA_AMP	39	Rpleas_acq	Oppo	Lpleas	Amasked	CS_A	1pleas	distractor1	CONbeforeEVA	cond_US_pleas_123_masked_CS1	condtest_masked_2	9	28	400	0	300	300	0	0	525	50	0	0	0	0	0	1	blank2r.bmp	0	1	+	0	3	B3r.bmp	492	1	blank2r.bmp	786	1	CPLW	786	1	blank2r.bmp	866	2	vertrauen	866	1	!	1239	1	!	-1	0	0	0	0	0	0	0	0	0	0	0	0	0	0	0	0	0	0	0	0	0	0	0	0	0	0	0
122018	12:10:33	12:24:28	834035	5.0.10.0	4_exp_AWA_CON_EVA_AMP	39	Rpleas_acq	Oppo	Lpleas	Amasked	CS_A	1pleas	distractor1	CONbeforeEVA	cond_new_pleas_456_masked_CS2	condtest_masked_2	9	29	400	1	300	300	0	0	358	46	0	1	0	0	0	1	blank2r.bmp	0	1	+	0	6	C2r.bmp	492	1	blank2r.bmp	786	1	DHJF	786	1	blank2r.bmp	866	2	anregung	866	1	!	1239	1	!	1252	0	0	0	0	0	0	0	0	0	0	0	0	0	0	0	0	0	0	0	0	0	0	0	0	0	0	0
122018	12:10:33	12:24:30	836301	5.0.10.0	4_exp_AWA_CON_EVA_AMP	39	Rpleas_acq	Oppo	Lpleas	Amasked	CS_A	1pleas	distractor1	CONbeforeEVA	cond_new_pleas_456_masked_CS2	condtest_masked_2	9	30	400	1	300	300	0	0	466	46	0	1	0	0	0	1	blank2r.bmp	0	1	+	0	5	C1r.bmp	492	1	blank2r.bmp	786	1	DHJF	786	1	blank2r.bmp	866	2	anregung	866	1	!	1239	1	!	1372	0	0	0	0	0	0	0	0	0	0	0	0	0	0	0	0	0	0	0	0	0	0	0	0	0	0	0
122018	12:10:33	12:24:33	838514	5.0.10.0	4_exp_AWA_CON_EVA_AMP	39	Rpleas_acq	Oppo	Lpleas	Amasked	CS_A	1pleas	distractor1	CONbeforeEVA	cond_US_pleas_123_masked_CS2	condtest_masked_2	9	31	400	1	300	300	0	0	406	46	0	1	0	0	0	1	blank2r.bmp	0	1	+	0	7	C3r.bmp	492	1	blank2r.bmp	786	1	DHJF	786	1	blank2r.bmp	866	3	engagiert	866	1	!	1239	1	!	1306	0	0	0	0	0	0	0	0	0	0	0	0	0	0	0	0	0	0	0	0	0	0	0	0	0	0	0
122018	12:10:33	12:24:35	840713	5.0.10.0	4_exp_AWA_CON_EVA_AMP	39	Rpleas_acq	Oppo	Lpleas	Amasked	CS_A	1pleas	distractor1	CONbeforeEVA	cond_US_unple_123_masked_CS2	condtest_masked_2	9	32	400	1	300	300	0	0	402	46	0	0	0	0	0	1	blank2r.bmp	0	1	+	0	8	C4r.bmp	492	1	blank2r.bmp	786	1	DHJF	786	1	blank2r.bmp	866	2	versagen	866	1	!	1239	1	!	1306	0	0	0	0	0	0	0	0	0	0	0	0	0	0	0	0	0	0	0	0	0	0	0	0	0	0	0
122018	12:10:33	12:24:37	842965	5.0.10.0	4_exp_AWA_CON_EVA_AMP	39	Rpleas_acq	Oppo	Lpleas	Amasked	CS_A	1pleas	distractor1	CONbeforeEVA	cond_new_unple_456_masked_CS1	condtest_masked_2	9	33	400	1	300	300	0	0	455	50	0	1	0	0	0	1	blank2r.bmp	0	1	+	0	1	B1r.bmp	492	1	blank2r.bmp	786	1	CPLW	786	1	blank2r.bmp	866	2	ausrottung	866	1	!	1239	1	!	1359	0	0	0	0	0	0	0	0	0	0	0	0	0	0	0	0	0	0	0	0	0	0	0	0	0	0	0
122018	12:10:33	12:24:39	845244	5.0.10.0	4_exp_AWA_CON_EVA_AMP	39	Rpleas_acq	Oppo	Lpleas	Amasked	CS_A	1pleas	distractor1	CONbeforeEVA	cond_US_unple_123_masked_CS2	condtest_masked_2	9	34	400	0	300	300	0	0	496	46	0	0	0	0	0	1	blank2r.bmp	0	1	+	0	2	B2r.bmp	492	1	blank2r.bmp	786	1	DHJF	786	1	blank2r.bmp	866	3	engstirnig	866	1	!	1239	1	!	-1	0	0	0	0	0	0	0	0	0	0	0	0	0	0	0	0	0	0	0	0	0	0	0	0	0	0	0
122018	12:10:33	12:24:41	847416	5.0.10.0	4_exp_AWA_CON_EVA_AMP	39	Rpleas_acq	Oppo	Lpleas	Amasked	CS_A	1pleas	distractor1	CONbeforeEVA	cond_new_pleas_456_masked_CS1	condtest_masked_2	9	35	400	1	300	300	0	0	346	50	0	0	0	0	0	1	blank2r.bmp	0	1	+	0	4	B4r.bmp	492	1	blank2r.bmp	786	1	CPLW	786	1	blank2r.bmp	866	1	kuss	866	1	!	1239	1	!	1252	0	0	0	0	0	0	0	0	0	0	0	0	0	0	0	0	0	0	0	0	0	0	0	0	0	0	0
122018	12:10:33	12:24:44	849695	5.0.10.0	4_exp_AWA_CON_EVA_AMP	39	Rpleas_acq	Oppo	Lpleas	Amasked	CS_A	1pleas	distractor1	CONbeforeEVA	cond_US_pleas_123_masked_CS1	condtest_masked_2	9	36	400	0	300	300	0	0	511	46	0	1	0	0	0	1	blank2r.bmp	0	1	+	0	3	B3r.bmp	492	1	blank2r.bmp	786	1	CPLW	786	1	blank2r.bmp	866	1	gesittet	866	1	!	1239	1	!	-1	0	0	0	0	0	0	0	0	0	0	0	0	0	0	0	0	0	0	0	0	0	0	0	0	0	0	0
122018	12:10:33	12:24:46	851801	5.0.10.0	4_exp_AWA_CON_EVA_AMP	39	Rpleas_acq	Oppo	Lpleas	Amasked	CS_A	1pleas	distractor1	CONbeforeEVA	cond_new_pleas_456_masked_CS1	condtest_masked_2	9	37	400	0	300	300	0	0	330	46	0	1	0	0	0	1	blank2r.bmp	0	1	+	0	2	B2r.bmp	492	1	blank2r.bmp	786	1	CPLW	786	1	blank2r.bmp	866	3	sonnig	866	1	!	-1	1	!	-1	0	0	0	0	0	0	0	0	0	0	0	0	0	0	0	0	0	0	0	0	0	0	0	0	0	0	0
122018	12:10:33	12:24:48	853840	5.0.10.0	4_exp_AWA_CON_EVA_AMP	39	Rpleas_acq	Oppo	Lpleas	Amasked	CS_A	1pleas	distractor1	CONbeforeEVA	cond_US_unple_123_masked_CS1	condtest_masked_2	9	38	400	0	300	300	0	0	262	46	0	0	0	0	0	1	blank2r.bmp	0	1	+	0	6	C2r.bmp	492	1	blank2r.bmp	786	1	CPLW	786	1	blank2r.bmp	866	1	geizig	866	1	!	-1	1	!	-1	0	0	0	0	0	0	0	0	0	0	0	0	0	0	0	0	0	0	0	0	0	0	0	0	0	0	0
122018	12:10:33	12:24:50	856119	5.0.10.0	4_exp_AWA_CON_EVA_AMP	39	Rpleas_acq	Oppo	Lpleas	Amasked	CS_A	1pleas	distractor1	CONbeforeEVA	cond_new_unple_456_masked_CS2	condtest_masked_2	9	39	400	1	300	300	0	0	461	46	0	0	0	0	0	1	blank2r.bmp	0	1	+	0	1	B1r.bmp	492	1	blank2r.bmp	786	1	DHJF	786	1	blank2r.bmp	866	1	krise	866	1	!	1239	1	!	1359	0	0	0	0	0	0	0	0	0	0	0	0	0	0	0	0	0	0	0	0	0	0	0	0	0	0	0
122018	12:10:33	12:24:52	858345	5.0.10.0	4_exp_AWA_CON_EVA_AMP	39	Rpleas_acq	Oppo	Lpleas	Amasked	CS_A	1pleas	distractor1	CONbeforeEVA	cond_new_unple_456_masked_CS2	condtest_masked_2	9	40	400	1	300	300	0	0	436	50	0	1	0	0	0	1	blank2r.bmp	0	1	+	0	3	B3r.bmp	492	1	blank2r.bmp	786	1	DHJF	786	1	blank2r.bmp	866	3	sterben	866	1	!	1239	1	!	1332	0	0	0	0	0	0	0	0	0	0	0	0	0	0	0	0	0	0	0	0	0	0	0	0	0	0	0
122018	12:10:33	12:25:16	881629	5.0.10.0	4_exp_AWA_CON_EVA_AMP	39	Rpleas_acq	Oppo	Lpleas	Amasked	CS_A	1pleas	distractor1	CONbeforeEVA	cond_new_unple_123_masked_CS1	condtest_masked_3	10	1	400	0	300	300	0	0	1375	50	0	1	0	0	0	1	blank2r.bmp	0	1	+	0	4	B4r.bmp	492	1	blank2r.bmp	786	1	CPLW	786	1	blank2r.bmp	866	3	krank	866	1	!	1239	1	!	-1	0	0	0	0	0	0	0	0	0	0	0	0	0	0	0	0	0	0	0	0	0	0	0	0	0	0	0
122018	12:10:33	12:25:18	884121	5.0.10.0	4_exp_AWA_CON_EVA_AMP	39	Rpleas_acq	Oppo	Lpleas	Amasked	CS_A	1pleas	distractor1	CONbeforeEVA	cond_new_pleas_123_masked_CS2	condtest_masked_3	10	2	400	0	300	300	0	0	716	46	0	1	0	0	0	1	blank2r.bmp	0	1	+	0	5	C1r.bmp	492	1	blank2r.bmp	786	1	DHJF	786	1	blank2r.bmp	866	2	gütig	866	1	!	1239	1	!	-1	0	0	0	0	0	0	0	0	0	0	0	0	0	0	0	0	0	0	0	0	0	0	0	0	0	0	0
122018	12:10:33	12:25:20	886413	5.0.10.0	4_exp_AWA_CON_EVA_AMP	39	Rpleas_acq	Oppo	Lpleas	Amasked	CS_A	1pleas	distractor1	CONbeforeEVA	cond_new_unple_123_masked_CS2	condtest_masked_3	10	3	400	0	300	300	0	0	513	50	0	1	0	0	0	1	blank2r.bmp	0	1	+	0	7	C3r.bmp	492	1	blank2r.bmp	786	1	DHJF	786	1	blank2r.bmp	866	1	töten	866	1	!	1239	1	!	-1	0	0	0	0	0	0	0	0	0	0	0	0	0	0	0	0	0	0	0	0	0	0	0	0	0	0	0
122018	12:10:33	12:25:23	888746	5.0.10.0	4_exp_AWA_CON_EVA_AMP	39	Rpleas_acq	Oppo	Lpleas	Amasked	CS_A	1pleas	distractor1	CONbeforeEVA	cond_new_pleas_123_masked_CS2	condtest_masked_3	10	4	400	0	300	300	0	0	545	46	0	1	0	0	0	1	blank2r.bmp	0	1	+	0	8	C4r.bmp	492	1	blank2r.bmp	786	1	DHJF	786	1	blank2r.bmp	866	1	träumen	866	1	!	1239	1	!	-1	0	0	0	0	0	0	0	0	0	0	0	0	0	0	0	0	0	0	0	0	0	0	0	0	0	0	0
122018	12:10:33	12:25:25	891051	5.0.10.0	4_exp_AWA_CON_EVA_AMP	39	Rpleas_acq	Oppo	Lpleas	Amasked	CS_A	1pleas	distractor1	CONbeforeEVA	cond_new_unple_123_masked_CS1	condtest_masked_3	10	5	400	0	300	300	0	0	531	50	0	1	0	0	0	1	blank2r.bmp	0	1	+	0	4	B4r.bmp	492	1	blank2r.bmp	786	1	CPLW	786	1	blank2r.bmp	866	2	gierig	866	1	!	1239	1	!	-1	0	0	0	0	0	0	0	0	0	0	0	0	0	0	0	0	0	0	0	0	0	0	0	0	0	0	0
122018	12:10:33	12:25:27	893450	5.0.10.0	4_exp_AWA_CON_EVA_AMP	39	Rpleas_acq	Oppo	Lpleas	Amasked	CS_A	1pleas	distractor1	CONbeforeEVA	cond_new_unple_123_masked_CS1	condtest_masked_3	10	6	400	0	300	300	0	0	618	50	0	1	0	0	0	1	blank2r.bmp	0	1	+	0	5	C1r.bmp	492	1	blank2r.bmp	786	1	CPLW	786	1	blank2r.bmp	866	2	gierig	866	1	!	1239	1	!	-1	0	0	0	0	0	0	0	0	0	0	0	0	0	0	0	0	0	0	0	0	0	0	0	0	0	0	0
122018	12:10:33	12:25:30	895809	5.0.10.0	4_exp_AWA_CON_EVA_AMP	39	Rpleas_acq	Oppo	Lpleas	Amasked	CS_A	1pleas	distractor1	CONbeforeEVA	cond_US_unple_456_masked_CS1	condtest_masked_3	10	7	400	0	300	300	0	0	581	50	0	1	0	0	0	1	blank2r.bmp	0	1	+	0	2	B2r.bmp	492	1	blank2r.bmp	786	1	CPLW	786	1	blank2r.bmp	866	2	bange	866	1	!	1239	1	!	-1	0	0	0	0	0	0	0	0	0	0	0	0	0	0	0	0	0	0	0	0	0	0	0	0	0	0	0
122018	12:10:33	12:25:32	898142	5.0.10.0	4_exp_AWA_CON_EVA_AMP	39	Rpleas_acq	Oppo	Lpleas	Amasked	CS_A	1pleas	distractor1	CONbeforeEVA	cond_US_pleas_456_masked_CS2	condtest_masked_3	10	8	400	0	300	300	0	0	547	50	0	0	0	0	0	1	blank2r.bmp	0	1	+	0	1	B1r.bmp	492	1	blank2r.bmp	786	1	DHJF	786	1	blank2r.bmp	866	1	genießen	866	1	!	1239	1	!	-1	0	0	0	0	0	0	0	0	0	0	0	0	0	0	0	0	0	0	0	0	0	0	0	0	0	0	0
122018	12:10:33	12:25:34	900421	5.0.10.0	4_exp_AWA_CON_EVA_AMP	39	Rpleas_acq	Oppo	Lpleas	Amasked	CS_A	1pleas	distractor1	CONbeforeEVA	cond_new_pleas_123_masked_CS1	condtest_masked_3	10	9	400	0	300	300	0	0	479	46	0	1	0	0	0	1	blank2r.bmp	0	1	+	0	7	C3r.bmp	492	1	blank2r.bmp	786	1	CPLW	786	1	blank2r.bmp	866	3	kreativ	866	1	!	1239	1	!	-1	0	0	0	0	0	0	0	0	0	0	0	0	0	0	0	0	0	0	0	0	0	0	0	0	0	0	0
122018	12:10:33	12:25:37	902700	5.0.10.0	4_exp_AWA_CON_EVA_AMP	39	Rpleas_acq	Oppo	Lpleas	Amasked	CS_A	1pleas	distractor1	CONbeforeEVA	cond_US_pleas_456_masked_CS2	condtest_masked_3	10	10	400	1	300	300	0	0	459	46	0	1	0	0	0	1	blank2r.bmp	0	1	+	0	3	B3r.bmp	492	1	blank2r.bmp	786	1	DHJF	786	1	blank2r.bmp	866	3	vergnügt	866	1	!	1239	1	!	1359	0	0	0	0	0	0	0	0	0	0	0	0	0	0	0	0	0	0	0	0	0	0	0	0	0	0	0
122018	12:10:33	12:25:39	904992	5.0.10.0	4_exp_AWA_CON_EVA_AMP	39	Rpleas_acq	Oppo	Lpleas	Amasked	CS_A	1pleas	distractor1	CONbeforeEVA	cond_US_unple_456_masked_CS2	condtest_masked_3	10	11	400	0	300	300	0	0	520	50	0	1	0	0	0	1	blank2r.bmp	0	1	+	0	6	C2r.bmp	492	1	blank2r.bmp	786	1	DHJF	786	1	blank2r.bmp	866	1	gemein	866	1	!	1239	1	!	-1	0	0	0	0	0	0	0	0	0	0	0	0	0	0	0	0	0	0	0	0	0	0	0	0	0	0	0
122018	12:10:33	12:25:41	907191	5.0.10.0	4_exp_AWA_CON_EVA_AMP	39	Rpleas_acq	Oppo	Lpleas	Amasked	CS_A	1pleas	distractor1	CONbeforeEVA	cond_new_unple_123_masked_CS2	condtest_masked_3	10	12	400	1	300	300	0	0	373	46	0	0	0	0	0	1	blank2r.bmp	0	1	+	0	8	C4r.bmp	492	1	blank2r.bmp	786	1	DHJF	786	1	blank2r.bmp	866	1	töten	866	1	!	1239	1	!	1279	0	0	0	0	0	0	0	0	0	0	0	0	0	0	0	0	0	0	0	0	0	0	0	0	0	0	0
122018	12:10:33	12:25:43	909444	5.0.10.0	4_exp_AWA_CON_EVA_AMP	39	Rpleas_acq	Oppo	Lpleas	Amasked	CS_A	1pleas	distractor1	CONbeforeEVA	cond_new_unple_123_masked_CS1	condtest_masked_3	10	13	400	0	300	300	0	0	479	46	0	0	0	0	0	1	blank2r.bmp	0	1	+	0	4	B4r.bmp	492	1	blank2r.bmp	786	1	CPLW	786	1	blank2r.bmp	866	3	krank	866	1	!	1239	1	!	-1	0	0	0	0	0	0	0	0	0	0	0	0	0	0	0	0	0	0	0	0	0	0	0	0	0	0	0
122018	12:10:33	12:25:46	911683	5.0.10.0	4_exp_AWA_CON_EVA_AMP	39	Rpleas_acq	Oppo	Lpleas	Amasked	CS_A	1pleas	distractor1	CONbeforeEVA	cond_US_unple_456_masked_CS1	condtest_masked_3	10	14	400	1	300	300	0	0	435	50	0	1	0	0	0	1	blank2r.bmp	0	1	+	0	2	B2r.bmp	492	1	blank2r.bmp	786	1	CPLW	786	1	blank2r.bmp	866	3	verbissen	866	1	!	1239	1	!	1332	0	0	0	0	0	0	0	0	0	0	0	0	0	0	0	0	0	0	0	0	0	0	0	0	0	0	0
122018	12:10:33	12:25:48	913935	5.0.10.0	4_exp_AWA_CON_EVA_AMP	39	Rpleas_acq	Oppo	Lpleas	Amasked	CS_A	1pleas	distractor1	CONbeforeEVA	cond_US_pleas_456_masked_CS2	condtest_masked_3	10	15	400	1	300	300	0	0	465	46	0	1	0	0	0	1	blank2r.bmp	0	1	+	0	1	B1r.bmp	492	1	blank2r.bmp	786	1	DHJF	786	1	blank2r.bmp	866	2	besonnen	866	1	!	1239	1	!	1359	0	0	0	0	0	0	0	0	0	0	0	0	0	0	0	0	0	0	0	0	0	0	0	0	0	0	0
122018	12:10:33	12:25:50	916014	5.0.10.0	4_exp_AWA_CON_EVA_AMP	39	Rpleas_acq	Oppo	Lpleas	Amasked	CS_A	1pleas	distractor1	CONbeforeEVA	cond_new_unple_123_masked_CS2	condtest_masked_3	10	16	400	0	300	300	0	0	317	50	0	1	0	0	0	1	blank2r.bmp	0	1	+	0	3	B3r.bmp	492	1	blank2r.bmp	786	1	DHJF	786	1	blank2r.bmp	866	3	krank	866	1	!	-1	1	!	-1	0	0	0	0	0	0	0	0	0	0	0	0	0	0	0	0	0	0	0	0	0	0	0	0	0	0	0
122018	12:10:33	12:25:52	918067	5.0.10.0	4_exp_AWA_CON_EVA_AMP	39	Rpleas_acq	Oppo	Lpleas	Amasked	CS_A	1pleas	distractor1	CONbeforeEVA	cond_new_pleas_123_masked_CS1	condtest_masked_3	10	17	400	0	300	300	0	0	266	50	0	0	0	0	0	1	blank2r.bmp	0	1	+	0	8	C4r.bmp	492	1	blank2r.bmp	786	1	CPLW	786	1	blank2r.bmp	866	3	kreativ	866	1	!	-1	1	!	-1	0	0	0	0	0	0	0	0	0	0	0	0	0	0	0	0	0	0	0	0	0	0	0	0	0	0	0
122018	12:10:33	12:25:54	920359	5.0.10.0	4_exp_AWA_CON_EVA_AMP	39	Rpleas_acq	Oppo	Lpleas	Amasked	CS_A	1pleas	distractor1	CONbeforeEVA	cond_new_unple_123_masked_CS1	condtest_masked_3	10	18	400	0	300	300	0	0	495	50	0	1	0	0	0	1	blank2r.bmp	0	1	+	0	6	C2r.bmp	492	1	blank2r.bmp	786	1	CPLW	786	1	blank2r.bmp	866	2	gierig	866	1	!	1239	1	!	-1	0	0	0	0	0	0	0	0	0	0	0	0	0	0	0	0	0	0	0	0	0	0	0	0	0	0	0
122018	12:10:33	12:25:57	922612	5.0.10.0	4_exp_AWA_CON_EVA_AMP	39	Rpleas_acq	Oppo	Lpleas	Amasked	CS_A	1pleas	distractor1	CONbeforeEVA	cond_new_unple_123_masked_CS2	condtest_masked_3	10	19	400	1	300	300	0	0	447	50	0	1	0	0	0	1	blank2r.bmp	0	1	+	0	5	C1r.bmp	492	1	blank2r.bmp	786	1	DHJF	786	1	blank2r.bmp	866	1	töten	866	1	!	1239	1	!	1346	0	0	0	0	0	0	0	0	0	0	0	0	0	0	0	0	0	0	0	0	0	0	0	0	0	0	0
122018	12:10:33	12:25:59	924691	5.0.10.0	4_exp_AWA_CON_EVA_AMP	39	Rpleas_acq	Oppo	Lpleas	Amasked	CS_A	1pleas	distractor1	CONbeforeEVA	cond_new_pleas_123_masked_CS2	condtest_masked_3	10	20	400	0	300	300	0	0	312	50	0	0	0	0	0	1	blank2r.bmp	0	1	+	0	7	C3r.bmp	492	1	blank2r.bmp	786	1	DHJF	786	1	blank2r.bmp	866	1	träumen	866	1	!	-1	1	!	-1	0	0	0	0	0	0	0	0	0	0	0	0	0	0	0	0	0	0	0	0	0	0	0	0	0	0	0
122018	12:10:33	12:26:01	926956	5.0.10.0	4_exp_AWA_CON_EVA_AMP	39	Rpleas_acq	Oppo	Lpleas	Amasked	CS_A	1pleas	distractor1	CONbeforeEVA	cond_new_unple_123_masked_CS1	condtest_masked_3	10	21	400	0	300	300	0	0	479	50	0	1	0	0	0	1	blank2r.bmp	0	1	+	0	4	B4r.bmp	492	1	blank2r.bmp	786	1	CPLW	786	1	blank2r.bmp	866	1	töten	866	1	!	1239	1	!	-1	0	0	0	0	0	0	0	0	0	0	0	0	0	0	0	0	0	0	0	0	0	0	0	0	0	0	0
122018	12:10:33	12:26:03	929249	5.0.10.0	4_exp_AWA_CON_EVA_AMP	39	Rpleas_acq	Oppo	Lpleas	Amasked	CS_A	1pleas	distractor1	CONbeforeEVA	cond_US_unple_456_masked_CS2	condtest_masked_3	10	22	400	0	300	300	0	0	502	50	0	1	0	0	0	1	blank2r.bmp	0	1	+	0	6	C2r.bmp	492	1	blank2r.bmp	786	1	DHJF	786	1	blank2r.bmp	866	1	gemein	866	1	!	1239	1	!	-1	0	0	0	0	0	0	0	0	0	0	0	0	0	0	0	0	0	0	0	0	0	0	0	0	0	0	0
122018	12:10:33	12:26:05	931448	5.0.10.0	4_exp_AWA_CON_EVA_AMP	39	Rpleas_acq	Oppo	Lpleas	Amasked	CS_A	1pleas	distractor1	CONbeforeEVA	cond_new_pleas_123_masked_CS2	condtest_masked_3	10	23	400	1	300	300	0	0	383	46	0	1	0	0	0	1	blank2r.bmp	0	1	+	0	8	C4r.bmp	492	1	blank2r.bmp	786	1	DHJF	786	1	blank2r.bmp	866	2	gütig	866	1	!	1239	1	!	1279	0	0	0	0	0	0	0	0	0	0	0	0	0	0	0	0	0	0	0	0	0	0	0	0	0	0	0
122018	12:10:33	12:26:10	935713	5.0.10.0	4_exp_AWA_CON_EVA_AMP	39	Rpleas_acq	Oppo	Lpleas	Amasked	CS_A	1pleas	distractor1	CONbeforeEVA	cond_new_pleas_123_masked_CS2	condtest_masked_3	10	24	400	0	300	300	0	0	2496	46	0	1	0	0	0	1	blank2r.bmp	0	1	+	0	2	B2r.bmp	492	1	blank2r.bmp	786	1	DHJF	786	1	blank2r.bmp	866	3	kreativ	866	1	!	1239	1	!	-1	0	0	0	0	0	0	0	0	0	0	0	0	0	0	0	0	0	0	0	0	0	0	0	0	0	0	0
122018	12:10:33	12:26:12	937965	5.0.10.0	4_exp_AWA_CON_EVA_AMP	39	Rpleas_acq	Oppo	Lpleas	Amasked	CS_A	1pleas	distractor1	CONbeforeEVA	cond_US_unple_456_masked_CS2	condtest_masked_3	10	25	400	1	300	300	0	0	446	50	0	1	0	0	0	1	blank2r.bmp	0	1	+	0	5	C1r.bmp	492	1	blank2r.bmp	786	1	DHJF	786	1	blank2r.bmp	866	2	bange	866	1	!	1239	1	!	1346	0	0	0	0	0	0	0	0	0	0	0	0	0	0	0	0	0	0	0	0	0	0	0	0	0	0	0
122018	12:10:33	12:26:14	940217	5.0.10.0	4_exp_AWA_CON_EVA_AMP	39	Rpleas_acq	Oppo	Lpleas	Amasked	CS_A	1pleas	distractor1	CONbeforeEVA	cond_new_pleas_123_masked_CS1	condtest_masked_3	10	26	400	1	300	300	0	0	459	46	0	1	0	0	0	1	blank2r.bmp	0	1	+	0	7	C3r.bmp	492	1	blank2r.bmp	786	1	CPLW	786	1	blank2r.bmp	866	2	gütig	866	1	!	1239	1	!	1359	0	0	0	0	0	0	0	0	0	0	0	0	0	0	0	0	0	0	0	0	0	0	0	0	0	0	0
122018	12:10:33	12:26:16	942363	5.0.10.0	4_exp_AWA_CON_EVA_AMP	39	Rpleas_acq	Oppo	Lpleas	Amasked	CS_A	1pleas	distractor1	CONbeforeEVA	cond_US_unple_456_masked_CS1	condtest_masked_3	10	27	400	1	300	300	0	0	346	50	0	1	0	0	0	1	blank2r.bmp	0	1	+	0	1	B1r.bmp	492	1	blank2r.bmp	786	1	CPLW	786	1	blank2r.bmp	866	3	verbissen	866	1	!	1239	1	!	1252	0	0	0	0	0	0	0	0	0	0	0	0	0	0	0	0	0	0	0	0	0	0	0	0	0	0	0
122018	12:10:33	12:26:19	944562	5.0.10.0	4_exp_AWA_CON_EVA_AMP	39	Rpleas_acq	Oppo	Lpleas	Amasked	CS_A	1pleas	distractor1	CONbeforeEVA	cond_US_unple_456_masked_CS2	condtest_masked_3	10	28	400	1	300	300	0	0	401	46	0	0	0	0	0	1	blank2r.bmp	0	1	+	0	3	B3r.bmp	492	1	blank2r.bmp	786	1	DHJF	786	1	blank2r.bmp	866	2	bange	866	1	!	1239	1	!	1306	0	0	0	0	0	0	0	0	0	0	0	0	0	0	0	0	0	0	0	0	0	0	0	0	0	0	0
122018	12:10:33	12:26:21	946815	5.0.10.0	4_exp_AWA_CON_EVA_AMP	39	Rpleas_acq	Oppo	Lpleas	Amasked	CS_A	1pleas	distractor1	CONbeforeEVA	cond_US_pleas_456_masked_CS2	condtest_masked_3	10	29	400	0	300	300	0	0	480	46	0	1	0	0	0	1	blank2r.bmp	0	1	+	0	1	B1r.bmp	492	1	blank2r.bmp	786	1	DHJF	786	1	blank2r.bmp	866	2	besonnen	866	1	!	1239	1	!	-1	0	0	0	0	0	0	0	0	0	0	0	0	0	0	0	0	0	0	0	0	0	0	0	0	0	0	0
122018	12:10:33	12:26:23	949214	5.0.10.0	4_exp_AWA_CON_EVA_AMP	39	Rpleas_acq	Oppo	Lpleas	Amasked	CS_A	1pleas	distractor1	CONbeforeEVA	cond_US_pleas_456_masked_CS2	condtest_masked_3	10	30	400	0	300	300	0	0	602	46	0	1	0	0	0	1	blank2r.bmp	0	1	+	0	8	C4r.bmp	492	1	blank2r.bmp	786	1	DHJF	786	1	blank2r.bmp	866	3	vergnügt	866	1	!	1239	1	!	-1	0	0	0	0	0	0	0	0	0	0	0	0	0	0	0	0	0	0	0	0	0	0	0	0	0	0	0
122018	12:10:33	12:26:26	951479	5.0.10.0	4_exp_AWA_CON_EVA_AMP	39	Rpleas_acq	Oppo	Lpleas	Amasked	CS_A	1pleas	distractor1	CONbeforeEVA	cond_US_pleas_456_masked_CS1	condtest_masked_3	10	31	400	0	300	300	0	0	479	46	0	1	0	0	0	1	blank2r.bmp	0	1	+	0	5	C1r.bmp	492	1	blank2r.bmp	786	1	CPLW	786	1	blank2r.bmp	866	1	genießen	866	1	!	1239	1	!	-1	0	0	0	0	0	0	0	0	0	0	0	0	0	0	0	0	0	0	0	0	0	0	0	0	0	0	0
