date	time	script.currenttime	script.elapsedtime	build	script.currentexpt	subject	expressions.LRpleas_acq	expressions.SameOppo	expressions.condition_Lpleas	expressions.ABmasked	expressions.conditionCS_A	expressions.condition_1pleas	expressions.condition_distractor_AMP	expressions.AWACON_AMPEVA_first	trialcode	blockcode	blocknum	trialnum	windowcenter	inwindow	pretrialpause	posttrialpause	trialduration	trialtimeout	latency	response	expressions.correctedscore	correct	values.vis_performance	values.vis_rating_sum	values.vis_rating_mean	stimulusnumber1	stimulusitem1	stimulusonset1	stimulusnumber2	stimulusitem2	stimulusonset2	stimulusnumber3	stimulusitem3	stimulusonset3	stimulusnumber4	stimulusitem4	stimulusonset4	stimulusnumber5	stimulusitem5	stimulusonset5	stimulusnumber6	stimulusitem6	stimulusonset6	stimulusnumber7	stimulusitem7	stimulusonset7	stimulusnumber8	stimulusitem8	stimulusonset8	stimulusnumber9	stimulusitem9	stimulusonset9	stimulusnumber10	stimulusitem10	stimulusonset10	stimulusnumber11	stimulusitem11	stimulusonset11	stimulusnumber12	stimulusitem12	stimulusonset12	stimulusnumber13	stimulusitem13	stimulusonset13	stimulusnumber14	stimulusitem14	stimulusonset14	stimulusnumber15	stimulusitem15	stimulusonset15	stimulusnumber16	stimulusitem16	stimulusonset16	stimulusnumber17	stimulusitem17	stimulusonset17	stimulusnumber18	stimulusitem18	stimulusonset18
013119	11:21:58	11:23:36	97532	5.0.10.0	4_exp_AWA_CON_EVA_AMP	103	Rpleas_acq	Oppo	Rpleas	Bmasked	CS_B	2pleas	distractor2	CONbeforeEVA	acq_US_unple_masked	acq1_masked	1	1	0	0	300	300	0	0	2451	46	0	1	0	0	0	1	blank2r.bmp	0	1	+	0	7	C3r.bmp	492	1	blank2r.bmp	786	1	BMVZ	786	1	blank2r.bmp	866	5	strafen	866	0	0	0	0	0	0	0	0	0	0	0	0	0	0	0	0	0	0	0	0	0	0	0	0	0	0	0	0	0	0	0	0	0
013119	11:21:58	11:23:39	100038	5.0.10.0	4_exp_AWA_CON_EVA_AMP	103	Rpleas_acq	Oppo	Rpleas	Bmasked	CS_B	2pleas	distractor2	CONbeforeEVA	acq_new_unple_masked	acq1_masked	1	2	0	0	300	300	0	0	1032	46	0	1	0	0	0	1	blank2r.bmp	0	1	+	0	3	B3r.bmp	492	1	blank2r.bmp	786	6	C2r.bmp	786	1	blank2r.bmp	866	1	fanatisch	866	0	0	0	0	0	0	0	0	0	0	0	0	0	0	0	0	0	0	0	0	0	0	0	0	0	0	0	0	0	0	0	0	0
013119	11:21:58	11:23:42	102650	5.0.10.0	4_exp_AWA_CON_EVA_AMP	103	Rpleas_acq	Oppo	Rpleas	Bmasked	CS_B	2pleas	distractor2	CONbeforeEVA	acq_US_pleas_masked	acq1_masked	1	3	0	0	300	300	0	0	1131	50	0	1	0	0	0	1	blank2r.bmp	0	1	+	0	6	C2r.bmp	492	1	blank2r.bmp	786	1	GKQX	786	1	blank2r.bmp	866	4	retten	866	0	0	0	0	0	0	0	0	0	0	0	0	0	0	0	0	0	0	0	0	0	0	0	0	0	0	0	0	0	0	0	0	0
013119	11:21:58	11:23:44	104956	5.0.10.0	4_exp_AWA_CON_EVA_AMP	103	Rpleas_acq	Oppo	Rpleas	Bmasked	CS_B	2pleas	distractor2	CONbeforeEVA	acq_new_unple_masked	acq1_masked	1	4	0	0	300	300	0	0	829	46	0	1	0	0	0	1	blank2r.bmp	0	1	+	0	5	C1r.bmp	492	1	blank2r.bmp	786	1	B1r.bmp	786	1	blank2r.bmp	866	6	schlecht	866	0	0	0	0	0	0	0	0	0	0	0	0	0	0	0	0	0	0	0	0	0	0	0	0	0	0	0	0	0	0	0	0	0
013119	11:21:58	11:23:46	107422	5.0.10.0	4_exp_AWA_CON_EVA_AMP	103	Rpleas_acq	Oppo	Rpleas	Bmasked	CS_B	2pleas	distractor2	CONbeforeEVA	acq_new_pleas_masked	acq1_masked	1	5	0	0	300	300	0	0	978	50	0	1	0	0	0	1	blank2r.bmp	0	1	+	0	8	C4r.bmp	492	1	blank2r.bmp	786	5	C1r.bmp	786	1	blank2r.bmp	866	4	ehrlich	866	0	0	0	0	0	0	0	0	0	0	0	0	0	0	0	0	0	0	0	0	0	0	0	0	0	0	0	0	0	0	0	0	0
013119	11:21:58	11:23:49	109714	5.0.10.0	4_exp_AWA_CON_EVA_AMP	103	Rpleas_acq	Oppo	Rpleas	Bmasked	CS_B	2pleas	distractor2	CONbeforeEVA	acq_US_unple_masked	acq1_masked	1	6	0	0	300	300	0	0	808	46	0	1	0	0	0	1	blank2r.bmp	0	1	+	0	2	B2r.bmp	492	1	blank2r.bmp	786	1	BMVZ	786	1	blank2r.bmp	866	2	schroff	866	0	0	0	0	0	0	0	0	0	0	0	0	0	0	0	0	0	0	0	0	0	0	0	0	0	0	0	0	0	0	0	0	0
013119	11:21:58	11:23:51	111926	5.0.10.0	4_exp_AWA_CON_EVA_AMP	103	Rpleas_acq	Oppo	Rpleas	Bmasked	CS_B	2pleas	distractor2	CONbeforeEVA	acq_US_pleas_masked	acq1_masked	1	7	0	0	300	300	0	0	724	50	0	1	0	0	0	1	blank2r.bmp	0	1	+	0	1	B1r.bmp	492	1	blank2r.bmp	786	1	GKQX	786	1	blank2r.bmp	866	1	treu	866	0	0	0	0	0	0	0	0	0	0	0	0	0	0	0	0	0	0	0	0	0	0	0	0	0	0	0	0	0	0	0	0	0
013119	11:21:58	11:23:53	114445	5.0.10.0	4_exp_AWA_CON_EVA_AMP	103	Rpleas_acq	Oppo	Rpleas	Bmasked	CS_B	2pleas	distractor2	CONbeforeEVA	acq_US_pleas_masked	acq1_masked	1	8	0	0	300	300	0	0	1027	50	0	1	0	0	0	1	blank2r.bmp	0	1	+	0	4	B4r.bmp	492	1	blank2r.bmp	786	1	GKQX	786	1	blank2r.bmp	866	5	spielen	866	0	0	0	0	0	0	0	0	0	0	0	0	0	0	0	0	0	0	0	0	0	0	0	0	0	0	0	0	0	0	0	0	0
013119	11:21:58	11:23:56	116871	5.0.10.0	4_exp_AWA_CON_EVA_AMP	103	Rpleas_acq	Oppo	Rpleas	Bmasked	CS_B	2pleas	distractor2	CONbeforeEVA	acq_new_unple_masked	acq1_masked	1	9	0	0	300	300	0	0	934	46	0	1	0	0	0	1	blank2r.bmp	0	1	+	0	3	B3r.bmp	492	1	blank2r.bmp	786	2	B2r.bmp	786	1	blank2r.bmp	866	2	tyrannisch	866	0	0	0	0	0	0	0	0	0	0	0	0	0	0	0	0	0	0	0	0	0	0	0	0	0	0	0	0	0	0	0	0	0
013119	11:21:58	11:23:58	119137	5.0.10.0	4_exp_AWA_CON_EVA_AMP	103	Rpleas_acq	Oppo	Rpleas	Bmasked	CS_B	2pleas	distractor2	CONbeforeEVA	acq_new_pleas_masked	acq1_masked	1	10	0	0	300	300	0	0	786	50	0	1	0	0	0	1	blank2r.bmp	0	1	+	0	2	B2r.bmp	492	1	blank2r.bmp	786	8	C4r.bmp	786	1	blank2r.bmp	866	2	tolerant	866	0	0	0	0	0	0	0	0	0	0	0	0	0	0	0	0	0	0	0	0	0	0	0	0	0	0	0	0	0	0	0	0	0
013119	11:21:58	11:24:00	121229	5.0.10.0	4_exp_AWA_CON_EVA_AMP	103	Rpleas_acq	Oppo	Rpleas	Bmasked	CS_B	2pleas	distractor2	CONbeforeEVA	acq_new_pleas_masked	acq1_masked	1	11	0	0	300	300	0	0	621	50	0	1	0	0	0	1	blank2r.bmp	0	1	+	0	5	C1r.bmp	492	1	blank2r.bmp	786	4	B4r.bmp	786	1	blank2r.bmp	866	6	schön	866	0	0	0	0	0	0	0	0	0	0	0	0	0	0	0	0	0	0	0	0	0	0	0	0	0	0	0	0	0	0	0	0	0
013119	11:21:58	11:24:03	123682	5.0.10.0	4_exp_AWA_CON_EVA_AMP	103	Rpleas_acq	Oppo	Rpleas	Bmasked	CS_B	2pleas	distractor2	CONbeforeEVA	acq_US_unple_masked	acq1_masked	1	12	0	0	300	300	0	0	964	46	0	1	0	0	0	1	blank2r.bmp	0	1	+	0	4	B4r.bmp	492	1	blank2r.bmp	786	1	BMVZ	786	1	blank2r.bmp	866	4	rächen	866	0	0	0	0	0	0	0	0	0	0	0	0	0	0	0	0	0	0	0	0	0	0	0	0	0	0	0	0	0	0	0	0	0
013119	11:21:58	11:24:05	126094	5.0.10.0	4_exp_AWA_CON_EVA_AMP	103	Rpleas_acq	Oppo	Rpleas	Bmasked	CS_B	2pleas	distractor2	CONbeforeEVA	acq_new_unple_masked	acq1_masked	1	13	0	0	300	300	0	0	933	46	0	1	0	0	0	1	blank2r.bmp	0	1	+	0	6	C2r.bmp	492	1	blank2r.bmp	786	3	B3r.bmp	786	1	blank2r.bmp	866	3	leiden	866	0	0	0	0	0	0	0	0	0	0	0	0	0	0	0	0	0	0	0	0	0	0	0	0	0	0	0	0	0	0	0	0	0
013119	11:21:58	11:24:09	130372	5.0.10.0	4_exp_AWA_CON_EVA_AMP	103	Rpleas_acq	Oppo	Rpleas	Bmasked	CS_B	2pleas	distractor2	CONbeforeEVA	acq_US_unple_masked	acq1_masked	1	14	0	0	300	300	0	0	2585	50	0	0	0	0	0	1	blank2r.bmp	0	1	+	0	7	C3r.bmp	492	1	blank2r.bmp	786	1	BMVZ	786	1	blank2r.bmp	866	3	lasch	866	1	FEHLER	3491	0	0	0	0	0	0	0	0	0	0	0	0	0	0	0	0	0	0	0	0	0	0	0	0	0	0	0	0	0	0
013119	11:21:58	11:24:12	132705	5.0.10.0	4_exp_AWA_CON_EVA_AMP	103	Rpleas_acq	Oppo	Rpleas	Bmasked	CS_B	2pleas	distractor2	CONbeforeEVA	acq_new_pleas_masked	acq1_masked	1	15	0	0	300	300	0	0	1071	50	0	1	0	0	0	1	blank2r.bmp	0	1	+	0	8	C4r.bmp	492	1	blank2r.bmp	786	7	C3r.bmp	786	1	blank2r.bmp	866	1	freundlich	866	0	0	0	0	0	0	0	0	0	0	0	0	0	0	0	0	0	0	0	0	0	0	0	0	0	0	0	0	0	0	0	0	0
013119	11:21:58	11:24:14	135170	5.0.10.0	4_exp_AWA_CON_EVA_AMP	103	Rpleas_acq	Oppo	Rpleas	Bmasked	CS_B	2pleas	distractor2	CONbeforeEVA	acq_US_unple_masked	acq1_masked	1	16	0	0	300	300	0	0	993	46	0	1	0	0	0	1	blank2r.bmp	0	1	+	0	1	B1r.bmp	492	1	blank2r.bmp	786	1	BMVZ	786	1	blank2r.bmp	866	6	faul	866	0	0	0	0	0	0	0	0	0	0	0	0	0	0	0	0	0	0	0	0	0	0	0	0	0	0	0	0	0	0	0	0	0
013119	11:21:58	11:24:16	137556	5.0.10.0	4_exp_AWA_CON_EVA_AMP	103	Rpleas_acq	Oppo	Rpleas	Bmasked	CS_B	2pleas	distractor2	CONbeforeEVA	acq_US_pleas_masked	acq1_masked	1	17	0	0	300	300	0	0	892	50	0	1	0	0	0	1	blank2r.bmp	0	1	+	0	2	B2r.bmp	492	1	blank2r.bmp	786	1	GKQX	786	1	blank2r.bmp	866	6	fair	866	0	0	0	0	0	0	0	0	0	0	0	0	0	0	0	0	0	0	0	0	0	0	0	0	0	0	0	0	0	0	0	0	0
013119	11:21:58	11:24:19	139728	5.0.10.0	4_exp_AWA_CON_EVA_AMP	103	Rpleas_acq	Oppo	Rpleas	Bmasked	CS_B	2pleas	distractor2	CONbeforeEVA	acq_new_pleas_masked	acq1_masked	1	18	0	0	300	300	0	0	702	50	0	1	0	0	0	1	blank2r.bmp	0	1	+	0	5	C1r.bmp	492	1	blank2r.bmp	786	8	C4r.bmp	786	1	blank2r.bmp	866	5	helfen	866	0	0	0	0	0	0	0	0	0	0	0	0	0	0	0	0	0	0	0	0	0	0	0	0	0	0	0	0	0	0	0	0	0
013119	11:21:58	11:24:21	141954	5.0.10.0	4_exp_AWA_CON_EVA_AMP	103	Rpleas_acq	Oppo	Rpleas	Bmasked	CS_B	2pleas	distractor2	CONbeforeEVA	acq_US_pleas_masked	acq1_masked	1	19	0	0	300	300	0	0	741	50	0	1	0	0	0	1	blank2r.bmp	0	1	+	0	3	B3r.bmp	492	1	blank2r.bmp	786	1	GKQX	786	1	blank2r.bmp	866	3	loyal	866	0	0	0	0	0	0	0	0	0	0	0	0	0	0	0	0	0	0	0	0	0	0	0	0	0	0	0	0	0	0	0	0	0
013119	11:21:58	11:24:23	144113	5.0.10.0	4_exp_AWA_CON_EVA_AMP	103	Rpleas_acq	Oppo	Rpleas	Bmasked	CS_B	2pleas	distractor2	CONbeforeEVA	acq_US_unple_masked	acq1_masked	1	20	0	0	300	300	0	0	665	46	0	1	0	0	0	1	blank2r.bmp	0	1	+	0	8	C4r.bmp	492	1	blank2r.bmp	786	1	BMVZ	786	1	blank2r.bmp	866	1	tot	866	0	0	0	0	0	0	0	0	0	0	0	0	0	0	0	0	0	0	0	0	0	0	0	0	0	0	0	0	0	0	0	0	0
013119	11:21:58	11:24:26	147085	5.0.10.0	4_exp_AWA_CON_EVA_AMP	103	Rpleas_acq	Oppo	Rpleas	Bmasked	CS_B	2pleas	distractor2	CONbeforeEVA	acq_new_unple_masked	acq1_masked	1	21	0	0	300	300	0	0	1500	46	0	1	0	0	0	1	blank2r.bmp	0	1	+	0	1	B1r.bmp	492	1	blank2r.bmp	786	2	B2r.bmp	786	1	blank2r.bmp	866	4	eitel	866	0	0	0	0	0	0	0	0	0	0	0	0	0	0	0	0	0	0	0	0	0	0	0	0	0	0	0	0	0	0	0	0	0
013119	11:21:58	11:24:28	149364	5.0.10.0	4_exp_AWA_CON_EVA_AMP	103	Rpleas_acq	Oppo	Rpleas	Bmasked	CS_B	2pleas	distractor2	CONbeforeEVA	acq_new_pleas_masked	acq1_masked	1	22	0	0	300	300	0	0	798	50	0	1	0	0	0	1	blank2r.bmp	0	1	+	0	7	C3r.bmp	492	1	blank2r.bmp	786	3	B3r.bmp	786	1	blank2r.bmp	866	3	lachen	866	0	0	0	0	0	0	0	0	0	0	0	0	0	0	0	0	0	0	0	0	0	0	0	0	0	0	0	0	0	0	0	0	0
013119	11:21:58	11:24:31	152563	5.0.10.0	4_exp_AWA_CON_EVA_AMP	103	Rpleas_acq	Oppo	Rpleas	Bmasked	CS_B	2pleas	distractor2	CONbeforeEVA	acq_new_unple_masked	acq1_masked	1	23	0	0	300	300	0	0	1720	46	0	1	0	0	0	1	blank2r.bmp	0	1	+	0	4	B4r.bmp	492	1	blank2r.bmp	786	5	C1r.bmp	786	1	blank2r.bmp	866	5	hindern	866	0	0	0	0	0	0	0	0	0	0	0	0	0	0	0	0	0	0	0	0	0	0	0	0	0	0	0	0	0	0	0	0	0
013119	11:21:58	11:24:34	154815	5.0.10.0	4_exp_AWA_CON_EVA_AMP	103	Rpleas_acq	Oppo	Rpleas	Bmasked	CS_B	2pleas	distractor2	CONbeforeEVA	acq_US_pleas_masked	acq1_masked	1	24	0	0	300	300	0	0	781	50	0	1	0	0	0	1	blank2r.bmp	0	1	+	0	6	C2r.bmp	492	1	blank2r.bmp	786	1	GKQX	786	1	blank2r.bmp	866	2	schlau	866	0	0	0	0	0	0	0	0	0	0	0	0	0	0	0	0	0	0	0	0	0	0	0	0	0	0	0	0	0	0	0	0	0
013119	11:21:58	11:24:36	157201	5.0.10.0	4_exp_AWA_CON_EVA_AMP	103	Rpleas_acq	Oppo	Rpleas	Bmasked	CS_B	2pleas	distractor2	CONbeforeEVA	acq_new_unple_masked	acq1_masked	1	25	0	0	300	300	0	0	904	46	0	1	0	0	0	1	blank2r.bmp	0	1	+	0	8	C4r.bmp	492	1	blank2r.bmp	786	4	B4r.bmp	786	1	blank2r.bmp	866	3	leiden	866	0	0	0	0	0	0	0	0	0	0	0	0	0	0	0	0	0	0	0	0	0	0	0	0	0	0	0	0	0	0	0	0	0
013119	11:21:58	11:24:38	159334	5.0.10.0	4_exp_AWA_CON_EVA_AMP	103	Rpleas_acq	Oppo	Rpleas	Bmasked	CS_B	2pleas	distractor2	CONbeforeEVA	acq_US_pleas_masked	acq1_masked	1	26	0	0	300	300	0	0	643	50	0	1	0	0	0	1	blank2r.bmp	0	1	+	0	7	C3r.bmp	492	1	blank2r.bmp	786	1	GKQX	786	1	blank2r.bmp	866	6	fair	866	0	0	0	0	0	0	0	0	0	0	0	0	0	0	0	0	0	0	0	0	0	0	0	0	0	0	0	0	0	0	0	0	0
013119	11:21:58	11:24:40	161399	5.0.10.0	4_exp_AWA_CON_EVA_AMP	103	Rpleas_acq	Oppo	Rpleas	Bmasked	CS_B	2pleas	distractor2	CONbeforeEVA	acq_US_pleas_masked	acq1_masked	1	27	0	0	300	300	0	0	586	50	0	1	0	0	0	1	blank2r.bmp	0	1	+	0	6	C2r.bmp	492	1	blank2r.bmp	786	1	GKQX	786	1	blank2r.bmp	866	1	treu	866	0	0	0	0	0	0	0	0	0	0	0	0	0	0	0	0	0	0	0	0	0	0	0	0	0	0	0	0	0	0	0	0	0
013119	11:21:58	11:24:42	163412	5.0.10.0	4_exp_AWA_CON_EVA_AMP	103	Rpleas_acq	Oppo	Rpleas	Bmasked	CS_B	2pleas	distractor2	CONbeforeEVA	acq_new_pleas_masked	acq1_masked	1	28	0	0	300	300	0	0	521	50	0	1	0	0	0	1	blank2r.bmp	0	1	+	0	1	B1r.bmp	492	1	blank2r.bmp	786	6	C2r.bmp	786	1	blank2r.bmp	866	6	schön	866	0	0	0	0	0	0	0	0	0	0	0	0	0	0	0	0	0	0	0	0	0	0	0	0	0	0	0	0	0	0	0	0	0
013119	11:21:58	11:24:45	165624	5.0.10.0	4_exp_AWA_CON_EVA_AMP	103	Rpleas_acq	Oppo	Rpleas	Bmasked	CS_B	2pleas	distractor2	CONbeforeEVA	acq_new_unple_masked	acq1_masked	1	29	0	0	300	300	0	0	731	46	0	1	0	0	0	1	blank2r.bmp	0	1	+	0	3	B3r.bmp	492	1	blank2r.bmp	786	7	C3r.bmp	786	1	blank2r.bmp	866	6	schlecht	866	0	0	0	0	0	0	0	0	0	0	0	0	0	0	0	0	0	0	0	0	0	0	0	0	0	0	0	0	0	0	0	0	0
013119	11:21:58	11:24:47	167743	5.0.10.0	4_exp_AWA_CON_EVA_AMP	103	Rpleas_acq	Oppo	Rpleas	Bmasked	CS_B	2pleas	distractor2	CONbeforeEVA	acq_new_pleas_masked	acq1_masked	1	30	0	0	300	300	0	0	632	50	0	1	0	0	0	1	blank2r.bmp	0	1	+	0	4	B4r.bmp	492	1	blank2r.bmp	786	1	B1r.bmp	786	1	blank2r.bmp	866	5	helfen	866	0	0	0	0	0	0	0	0	0	0	0	0	0	0	0	0	0	0	0	0	0	0	0	0	0	0	0	0	0	0	0	0	0
013119	11:21:58	11:24:49	170076	5.0.10.0	4_exp_AWA_CON_EVA_AMP	103	Rpleas_acq	Oppo	Rpleas	Bmasked	CS_B	2pleas	distractor2	CONbeforeEVA	acq_US_pleas_masked	acq1_masked	1	31	0	0	300	300	0	0	844	50	0	1	0	0	0	1	blank2r.bmp	0	1	+	0	2	B2r.bmp	492	1	blank2r.bmp	786	1	GKQX	786	1	blank2r.bmp	866	3	loyal	866	0	0	0	0	0	0	0	0	0	0	0	0	0	0	0	0	0	0	0	0	0	0	0	0	0	0	0	0	0	0	0	0	0
013119	11:21:58	11:24:51	172568	5.0.10.0	4_exp_AWA_CON_EVA_AMP	103	Rpleas_acq	Oppo	Rpleas	Bmasked	CS_B	2pleas	distractor2	CONbeforeEVA	acq_US_unple_masked	acq1_masked	1	32	0	0	300	300	0	0	1021	46	0	1	0	0	0	1	blank2r.bmp	0	1	+	0	5	C1r.bmp	492	1	blank2r.bmp	786	1	BMVZ	786	1	blank2r.bmp	866	4	rächen	866	0	0	0	0	0	0	0	0	0	0	0	0	0	0	0	0	0	0	0	0	0	0	0	0	0	0	0	0	0	0	0	0	0
013119	11:21:58	11:24:54	174847	5.0.10.0	4_exp_AWA_CON_EVA_AMP	103	Rpleas_acq	Oppo	Rpleas	Bmasked	CS_B	2pleas	distractor2	CONbeforeEVA	acq_US_unple_masked	acq1_masked	1	33	0	0	300	300	0	0	791	46	0	1	0	0	0	1	blank2r.bmp	0	1	+	0	2	B2r.bmp	492	1	blank2r.bmp	786	1	BMVZ	786	1	blank2r.bmp	866	5	strafen	866	0	0	0	0	0	0	0	0	0	0	0	0	0	0	0	0	0	0	0	0	0	0	0	0	0	0	0	0	0	0	0	0	0
013119	11:21:58	11:24:56	176860	5.0.10.0	4_exp_AWA_CON_EVA_AMP	103	Rpleas_acq	Oppo	Rpleas	Bmasked	CS_B	2pleas	distractor2	CONbeforeEVA	acq_new_pleas_masked	acq1_masked	1	34	0	0	300	300	0	0	525	50	0	1	0	0	0	1	blank2r.bmp	0	1	+	0	4	B4r.bmp	492	1	blank2r.bmp	786	7	C3r.bmp	786	1	blank2r.bmp	866	3	lachen	866	0	0	0	0	0	0	0	0	0	0	0	0	0	0	0	0	0	0	0	0	0	0	0	0	0	0	0	0	0	0	0	0	0
013119	11:21:58	11:24:58	178899	5.0.10.0	4_exp_AWA_CON_EVA_AMP	103	Rpleas_acq	Oppo	Rpleas	Bmasked	CS_B	2pleas	distractor2	CONbeforeEVA	acq_US_unple_masked	acq1_masked	1	35	0	0	300	300	0	0	556	46	0	1	0	0	0	1	blank2r.bmp	0	1	+	0	6	C2r.bmp	492	1	blank2r.bmp	786	1	BMVZ	786	1	blank2r.bmp	866	1	tot	866	0	0	0	0	0	0	0	0	0	0	0	0	0	0	0	0	0	0	0	0	0	0	0	0	0	0	0	0	0	0	0	0	0
013119	11:21:58	11:25:00	180978	5.0.10.0	4_exp_AWA_CON_EVA_AMP	103	Rpleas_acq	Oppo	Rpleas	Bmasked	CS_B	2pleas	distractor2	CONbeforeEVA	acq_new_unple_masked	acq1_masked	1	36	0	0	300	300	0	0	592	46	0	1	0	0	0	1	blank2r.bmp	0	1	+	0	3	B3r.bmp	492	1	blank2r.bmp	786	6	C2r.bmp	786	1	blank2r.bmp	866	2	tyrannisch	866	0	0	0	0	0	0	0	0	0	0	0	0	0	0	0	0	0	0	0	0	0	0	0	0	0	0	0	0	0	0	0	0	0
013119	11:21:58	11:25:29	210566	5.0.10.0	4_exp_AWA_CON_EVA_AMP	103	Rpleas_acq	Oppo	Rpleas	Bmasked	CS_B	2pleas	distractor2	CONbeforeEVA	acq_new_pleas_masked	acq2_masked	2	1	480	0	300	300	0	0	985	50	0	1	0	0	0	1	blank2r.bmp	0	1	+	0	1	B1r.bmp	492	1	blank2r.bmp	786	2	B2r.bmp	786	1	blank2r.bmp	866	2	tolerant	866	1	!	1319	1	!	-1	0	0	0	0	0	0	0	0	0	0	0	0	0	0	0	0	0	0	0	0	0	0	0	0	0	0	0
013119	11:21:58	11:25:32	213085	5.0.10.0	4_exp_AWA_CON_EVA_AMP	103	Rpleas_acq	Oppo	Rpleas	Bmasked	CS_B	2pleas	distractor2	CONbeforeEVA	acq_US_unple_masked	acq2_masked	2	2	480	0	300	300	0	0	739	46	0	1	0	0	0	1	blank2r.bmp	0	1	+	0	7	C3r.bmp	492	1	blank2r.bmp	786	1	BMVZ	786	1	blank2r.bmp	866	2	schroff	866	1	!	1319	1	!	-1	0	0	0	0	0	0	0	0	0	0	0	0	0	0	0	0	0	0	0	0	0	0	0	0	0	0	0
013119	11:21:58	11:25:35	215577	5.0.10.0	4_exp_AWA_CON_EVA_AMP	103	Rpleas_acq	Oppo	Rpleas	Bmasked	CS_B	2pleas	distractor2	CONbeforeEVA	acq_new_pleas_masked	acq2_masked	2	3	480	0	300	300	0	0	702	50	0	1	0	0	0	1	blank2r.bmp	0	1	+	0	8	C4r.bmp	492	1	blank2r.bmp	786	4	B4r.bmp	786	1	blank2r.bmp	866	4	ehrlich	866	1	!	1319	1	!	-1	0	0	0	0	0	0	0	0	0	0	0	0	0	0	0	0	0	0	0	0	0	0	0	0	0	0	0
013119	11:21:58	11:25:44	224920	5.0.10.0	4_exp_AWA_CON_EVA_AMP	103	Rpleas_acq	Oppo	Rpleas	Bmasked	CS_B	2pleas	distractor2	CONbeforeEVA	acq_US_unple_masked	acq2_masked	2	4	480	0	300	300	0	0	7329	50	0	0	0	0	0	1	blank2r.bmp	0	1	+	0	5	C1r.bmp	492	1	blank2r.bmp	786	1	BMVZ	786	1	blank2r.bmp	866	3	lasch	866	1	FEHLER	8543	1	!	1319	1	!	-1	0	0	0	0	0	0	0	0	0	0	0	0	0	0	0	0	0	0	0	0	0	0	0	0
013119	11:21:58	11:25:46	227252	5.0.10.0	4_exp_AWA_CON_EVA_AMP	103	Rpleas_acq	Oppo	Rpleas	Bmasked	CS_B	2pleas	distractor2	CONbeforeEVA	acq_new_unple_masked	acq2_masked	2	5	480	1	300	300	0	0	541	50	0	0	0	0	0	1	blank2r.bmp	0	1	+	0	7	C3r.bmp	492	1	blank2r.bmp	786	3	B3r.bmp	786	1	blank2r.bmp	866	1	fanatisch	866	1	FEHLER	1759	1	!	1319	1	!	1439	0	0	0	0	0	0	0	0	0	0	0	0	0	0	0	0	0	0	0	0	0	0	0	0
013119	11:21:58	11:25:48	229411	5.0.10.0	4_exp_AWA_CON_EVA_AMP	103	Rpleas_acq	Oppo	Rpleas	Bmasked	CS_B	2pleas	distractor2	CONbeforeEVA	acq_US_pleas_masked	acq2_masked	2	6	480	0	300	300	0	0	393	46	0	0	0	0	0	1	blank2r.bmp	0	1	+	0	1	B1r.bmp	492	1	blank2r.bmp	786	1	GKQX	786	1	blank2r.bmp	866	2	schlau	866	1	FEHLER	1599	1	!	-1	1	!	-1	0	0	0	0	0	0	0	0	0	0	0	0	0	0	0	0	0	0	0	0	0	0	0	0
013119	11:21:58	11:25:51	231730	5.0.10.0	4_exp_AWA_CON_EVA_AMP	103	Rpleas_acq	Oppo	Rpleas	Bmasked	CS_B	2pleas	distractor2	CONbeforeEVA	acq_US_unple_masked	acq2_masked	2	7	480	1	300	300	0	0	513	50	0	0	0	0	0	1	blank2r.bmp	0	1	+	0	3	B3r.bmp	492	1	blank2r.bmp	786	1	BMVZ	786	1	blank2r.bmp	866	6	faul	866	1	FEHLER	1732	1	!	1319	1	!	1412	0	0	0	0	0	0	0	0	0	0	0	0	0	0	0	0	0	0	0	0	0	0	0	0
013119	11:21:58	11:26:01	242179	5.0.10.0	4_exp_AWA_CON_EVA_AMP	103	Rpleas_acq	Oppo	Rpleas	Bmasked	CS_B	2pleas	distractor2	CONbeforeEVA	acq_new_unple_masked	acq2_masked	2	8	480	0	300	300	0	0	8666	50	0	0	0	0	0	1	blank2r.bmp	0	1	+	0	2	B2r.bmp	492	1	blank2r.bmp	786	5	C1r.bmp	786	1	blank2r.bmp	866	5	hindern	866	1	FEHLER	9875	1	!	1319	1	!	-1	0	0	0	0	0	0	0	0	0	0	0	0	0	0	0	0	0	0	0	0	0	0	0	0
013119	11:21:58	11:26:03	244525	5.0.10.0	4_exp_AWA_CON_EVA_AMP	103	Rpleas_acq	Oppo	Rpleas	Bmasked	CS_B	2pleas	distractor2	CONbeforeEVA	acq_new_unple_masked	acq2_masked	2	9	480	0	300	300	0	0	559	50	0	0	0	0	0	1	blank2r.bmp	0	1	+	0	6	C2r.bmp	492	1	blank2r.bmp	786	1	B1r.bmp	786	1	blank2r.bmp	866	4	eitel	866	1	FEHLER	1772	1	!	1319	1	!	-1	0	0	0	0	0	0	0	0	0	0	0	0	0	0	0	0	0	0	0	0	0	0	0	0
013119	11:21:58	11:26:06	246764	5.0.10.0	4_exp_AWA_CON_EVA_AMP	103	Rpleas_acq	Oppo	Rpleas	Bmasked	CS_B	2pleas	distractor2	CONbeforeEVA	acq_new_pleas_masked	acq2_masked	2	10	480	0	300	300	0	0	684	50	0	1	0	0	0	1	blank2r.bmp	0	1	+	0	4	B4r.bmp	492	1	blank2r.bmp	786	8	C4r.bmp	786	1	blank2r.bmp	866	1	freundlich	866	1	!	1319	1	!	-1	0	0	0	0	0	0	0	0	0	0	0	0	0	0	0	0	0	0	0	0	0	0	0	0	0	0	0
013119	11:21:58	11:26:08	249123	5.0.10.0	4_exp_AWA_CON_EVA_AMP	103	Rpleas_acq	Oppo	Rpleas	Bmasked	CS_B	2pleas	distractor2	CONbeforeEVA	acq_US_pleas_masked	acq2_masked	2	11	480	0	300	300	0	0	559	50	0	1	0	0	0	1	blank2r.bmp	0	1	+	0	5	C1r.bmp	492	1	blank2r.bmp	786	1	GKQX	786	1	blank2r.bmp	866	4	retten	866	1	!	1319	1	!	-1	0	0	0	0	0	0	0	0	0	0	0	0	0	0	0	0	0	0	0	0	0	0	0	0	0	0	0
013119	11:21:58	11:26:10	251402	5.0.10.0	4_exp_AWA_CON_EVA_AMP	103	Rpleas_acq	Oppo	Rpleas	Bmasked	CS_B	2pleas	distractor2	CONbeforeEVA	acq_US_pleas_masked	acq2_masked	2	12	480	1	300	300	0	0	472	50	0	1	0	0	0	1	blank2r.bmp	0	1	+	0	8	C4r.bmp	492	1	blank2r.bmp	786	1	GKQX	786	1	blank2r.bmp	866	5	spielen	866	1	!	1319	1	!	1372	0	0	0	0	0	0	0	0	0	0	0	0	0	0	0	0	0	0	0	0	0	0	0	0	0	0	0
013119	11:21:58	11:26:12	253561	5.0.10.0	4_exp_AWA_CON_EVA_AMP	103	Rpleas_acq	Oppo	Rpleas	Bmasked	CS_B	2pleas	distractor2	CONbeforeEVA	acq_new_unple_masked	acq2_masked	2	13	480	0	300	300	0	0	390	46	0	1	0	0	0	1	blank2r.bmp	0	1	+	0	6	C2r.bmp	492	1	blank2r.bmp	786	5	C1r.bmp	786	1	blank2r.bmp	866	1	fanatisch	866	1	!	-1	1	!	-1	0	0	0	0	0	0	0	0	0	0	0	0	0	0	0	0	0	0	0	0	0	0	0	0	0	0	0
013119	11:21:58	11:26:15	255907	5.0.10.0	4_exp_AWA_CON_EVA_AMP	103	Rpleas_acq	Oppo	Rpleas	Bmasked	CS_B	2pleas	distractor2	CONbeforeEVA	acq_new_pleas_masked	acq2_masked	2	14	480	1	300	300	0	0	543	50	0	1	0	0	0	1	blank2r.bmp	0	1	+	0	5	C1r.bmp	492	1	blank2r.bmp	786	6	C2r.bmp	786	1	blank2r.bmp	866	3	lachen	866	1	!	1319	1	!	1439	0	0	0	0	0	0	0	0	0	0	0	0	0	0	0	0	0	0	0	0	0	0	0	0	0	0	0
013119	11:21:58	11:26:17	258240	5.0.10.0	4_exp_AWA_CON_EVA_AMP	103	Rpleas_acq	Oppo	Rpleas	Bmasked	CS_B	2pleas	distractor2	CONbeforeEVA	acq_US_unple_masked	acq2_masked	2	15	480	1	300	300	0	0	539	46	0	1	0	0	0	1	blank2r.bmp	0	1	+	0	4	B4r.bmp	492	1	blank2r.bmp	786	1	BMVZ	786	1	blank2r.bmp	866	4	rächen	866	1	!	1319	1	!	1439	0	0	0	0	0	0	0	0	0	0	0	0	0	0	0	0	0	0	0	0	0	0	0	0	0	0	0
013119	11:21:58	11:26:20	260599	5.0.10.0	4_exp_AWA_CON_EVA_AMP	103	Rpleas_acq	Oppo	Rpleas	Bmasked	CS_B	2pleas	distractor2	CONbeforeEVA	acq_new_unple_masked	acq2_masked	2	16	480	0	300	300	0	0	366	50	0	0	0	0	0	1	blank2r.bmp	0	1	+	0	1	B1r.bmp	492	1	blank2r.bmp	786	2	B2r.bmp	786	1	blank2r.bmp	866	6	schlecht	866	1	FEHLER	1572	1	!	-1	1	!	-1	0	0	0	0	0	0	0	0	0	0	0	0	0	0	0	0	0	0	0	0	0	0	0	0
013119	11:21:58	11:26:22	262611	5.0.10.0	4_exp_AWA_CON_EVA_AMP	103	Rpleas_acq	Oppo	Rpleas	Bmasked	CS_B	2pleas	distractor2	CONbeforeEVA	acq_US_pleas_masked	acq2_masked	2	17	480	1	300	300	0	0	426	50	0	1	0	0	0	1	blank2r.bmp	0	1	+	0	3	B3r.bmp	492	1	blank2r.bmp	786	1	GKQX	786	1	blank2r.bmp	866	4	retten	866	1	!	1319	1	!	1332	0	0	0	0	0	0	0	0	0	0	0	0	0	0	0	0	0	0	0	0	0	0	0	0	0	0	0
013119	11:21:58	11:26:24	264917	5.0.10.0	4_exp_AWA_CON_EVA_AMP	103	Rpleas_acq	Oppo	Rpleas	Bmasked	CS_B	2pleas	distractor2	CONbeforeEVA	acq_new_unple_masked	acq2_masked	2	18	480	1	300	300	0	0	503	46	0	1	0	0	0	1	blank2r.bmp	0	1	+	0	8	C4r.bmp	492	1	blank2r.bmp	786	7	C3r.bmp	786	1	blank2r.bmp	866	3	leiden	866	1	!	1319	1	!	1399	0	0	0	0	0	0	0	0	0	0	0	0	0	0	0	0	0	0	0	0	0	0	0	0	0	0	0
013119	11:21:58	11:26:26	267249	5.0.10.0	4_exp_AWA_CON_EVA_AMP	103	Rpleas_acq	Oppo	Rpleas	Bmasked	CS_B	2pleas	distractor2	CONbeforeEVA	acq_US_unple_masked	acq2_masked	2	19	480	0	300	300	0	0	566	46	0	1	0	0	0	1	blank2r.bmp	0	1	+	0	2	B2r.bmp	492	1	blank2r.bmp	786	1	BMVZ	786	1	blank2r.bmp	866	5	strafen	866	1	!	1319	1	!	-1	0	0	0	0	0	0	0	0	0	0	0	0	0	0	0	0	0	0	0	0	0	0	0	0	0	0	0
013119	11:21:58	11:26:29	269608	5.0.10.0	4_exp_AWA_CON_EVA_AMP	103	Rpleas_acq	Oppo	Rpleas	Bmasked	CS_B	2pleas	distractor2	CONbeforeEVA	acq_new_pleas_masked	acq2_masked	2	20	480	0	300	300	0	0	559	50	0	1	0	0	0	1	blank2r.bmp	0	1	+	0	7	C3r.bmp	492	1	blank2r.bmp	786	3	B3r.bmp	786	1	blank2r.bmp	866	1	freundlich	866	1	!	1319	1	!	-1	0	0	0	0	0	0	0	0	0	0	0	0	0	0	0	0	0	0	0	0	0	0	0	0	0	0	0
013119	11:21:58	11:26:31	271941	5.0.10.0	4_exp_AWA_CON_EVA_AMP	103	Rpleas_acq	Oppo	Rpleas	Bmasked	CS_B	2pleas	distractor2	CONbeforeEVA	acq_US_pleas_masked	acq2_masked	2	21	480	0	300	300	0	0	329	46	0	0	0	0	0	1	blank2r.bmp	0	1	+	0	1	B1r.bmp	492	1	blank2r.bmp	786	1	GKQX	786	1	blank2r.bmp	866	6	fair	866	1	FEHLER	1532	1	!	-1	1	!	-1	0	0	0	0	0	0	0	0	0	0	0	0	0	0	0	0	0	0	0	0	0	0	0	0
013119	11:21:58	11:26:33	274113	5.0.10.0	4_exp_AWA_CON_EVA_AMP	103	Rpleas_acq	Oppo	Rpleas	Bmasked	CS_B	2pleas	distractor2	CONbeforeEVA	acq_US_unple_masked	acq2_masked	2	22	480	0	300	300	0	0	396	50	0	0	0	0	0	1	blank2r.bmp	0	1	+	0	5	C1r.bmp	492	1	blank2r.bmp	786	1	BMVZ	786	1	blank2r.bmp	866	6	faul	866	1	FEHLER	1599	1	!	-1	1	!	-1	0	0	0	0	0	0	0	0	0	0	0	0	0	0	0	0	0	0	0	0	0	0	0	0
013119	11:21:58	11:26:35	276179	5.0.10.0	4_exp_AWA_CON_EVA_AMP	103	Rpleas_acq	Oppo	Rpleas	Bmasked	CS_B	2pleas	distractor2	CONbeforeEVA	acq_US_pleas_masked	acq2_masked	2	23	480	1	300	300	0	0	480	50	0	1	0	0	0	1	blank2r.bmp	0	1	+	0	3	B3r.bmp	492	1	blank2r.bmp	786	1	GKQX	786	1	blank2r.bmp	866	3	loyal	866	1	!	1319	1	!	1386	0	0	0	0	0	0	0	0	0	0	0	0	0	0	0	0	0	0	0	0	0	0	0	0	0	0	0
013119	11:21:58	11:26:38	278684	5.0.10.0	4_exp_AWA_CON_EVA_AMP	103	Rpleas_acq	Oppo	Rpleas	Bmasked	CS_B	2pleas	distractor2	CONbeforeEVA	acq_new_pleas_masked	acq2_masked	2	24	480	1	300	300	0	0	518	46	0	0	0	0	0	1	blank2r.bmp	0	1	+	0	4	B4r.bmp	492	1	blank2r.bmp	786	8	C4r.bmp	786	1	blank2r.bmp	866	4	ehrlich	866	1	FEHLER	1732	1	!	1319	1	!	1412	0	0	0	0	0	0	0	0	0	0	0	0	0	0	0	0	0	0	0	0	0	0	0	0
013119	11:21:58	11:26:40	280884	5.0.10.0	4_exp_AWA_CON_EVA_AMP	103	Rpleas_acq	Oppo	Rpleas	Bmasked	CS_B	2pleas	distractor2	CONbeforeEVA	acq_US_unple_masked	acq2_masked	2	25	480	0	300	300	0	0	405	50	0	0	0	0	0	1	blank2r.bmp	0	1	+	0	2	B2r.bmp	492	1	blank2r.bmp	786	1	BMVZ	786	1	blank2r.bmp	866	2	schroff	866	1	FEHLER	1612	1	!	-1	1	!	-1	0	0	0	0	0	0	0	0	0	0	0	0	0	0	0	0	0	0	0	0	0	0	0	0
013119	11:21:58	11:26:42	283229	5.0.10.0	4_exp_AWA_CON_EVA_AMP	103	Rpleas_acq	Oppo	Rpleas	Bmasked	CS_B	2pleas	distractor2	CONbeforeEVA	acq_new_unple_masked	acq2_masked	2	26	480	0	300	300	0	0	559	50	0	0	0	0	0	1	blank2r.bmp	0	1	+	0	6	C2r.bmp	492	1	blank2r.bmp	786	1	B1r.bmp	786	1	blank2r.bmp	866	4	eitel	866	1	FEHLER	1772	1	!	1319	1	!	-1	0	0	0	0	0	0	0	0	0	0	0	0	0	0	0	0	0	0	0	0	0	0	0	0
013119	11:21:58	11:26:44	285282	5.0.10.0	4_exp_AWA_CON_EVA_AMP	103	Rpleas_acq	Oppo	Rpleas	Bmasked	CS_B	2pleas	distractor2	CONbeforeEVA	acq_new_pleas_masked	acq2_masked	2	27	480	1	300	300	0	0	472	50	0	1	0	0	0	1	blank2r.bmp	0	1	+	0	8	C4r.bmp	492	1	blank2r.bmp	786	4	B4r.bmp	786	1	blank2r.bmp	866	5	helfen	866	1	!	1319	1	!	1372	0	0	0	0	0	0	0	0	0	0	0	0	0	0	0	0	0	0	0	0	0	0	0	0	0	0	0
013119	11:21:58	11:26:46	287561	5.0.10.0	4_exp_AWA_CON_EVA_AMP	103	Rpleas_acq	Oppo	Rpleas	Bmasked	CS_B	2pleas	distractor2	CONbeforeEVA	acq_new_pleas_masked	acq2_masked	2	28	480	1	300	300	0	0	481	50	0	1	0	0	0	1	blank2r.bmp	0	1	+	0	7	C3r.bmp	492	1	blank2r.bmp	786	5	C1r.bmp	786	1	blank2r.bmp	866	6	schön	866	1	!	1319	1	!	1386	0	0	0	0	0	0	0	0	0	0	0	0	0	0	0	0	0	0	0	0	0	0	0	0	0	0	0
013119	11:21:58	11:26:49	289827	5.0.10.0	4_exp_AWA_CON_EVA_AMP	103	Rpleas_acq	Oppo	Rpleas	Bmasked	CS_B	2pleas	distractor2	CONbeforeEVA	acq_US_pleas_masked	acq2_masked	2	29	480	1	300	300	0	0	471	50	0	1	0	0	0	1	blank2r.bmp	0	1	+	0	7	C3r.bmp	492	1	blank2r.bmp	786	1	GKQX	786	1	blank2r.bmp	866	2	schlau	866	1	!	1319	1	!	1372	0	0	0	0	0	0	0	0	0	0	0	0	0	0	0	0	0	0	0	0	0	0	0	0	0	0	0
013119	11:21:58	11:26:51	292119	5.0.10.0	4_exp_AWA_CON_EVA_AMP	103	Rpleas_acq	Oppo	Rpleas	Bmasked	CS_B	2pleas	distractor2	CONbeforeEVA	acq_US_unple_masked	acq2_masked	2	30	480	1	300	300	0	0	493	46	0	1	0	0	0	1	blank2r.bmp	0	1	+	0	3	B3r.bmp	492	1	blank2r.bmp	786	1	BMVZ	786	1	blank2r.bmp	866	1	tot	866	1	!	1319	1	!	1399	0	0	0	0	0	0	0	0	0	0	0	0	0	0	0	0	0	0	0	0	0	0	0	0	0	0	0
013119	11:21:58	11:26:53	294491	5.0.10.0	4_exp_AWA_CON_EVA_AMP	103	Rpleas_acq	Oppo	Rpleas	Bmasked	CS_B	2pleas	distractor2	CONbeforeEVA	acq_new_pleas_masked	acq2_masked	2	31	480	0	300	300	0	0	604	50	0	1	0	0	0	1	blank2r.bmp	0	1	+	0	2	B2r.bmp	492	1	blank2r.bmp	786	6	C2r.bmp	786	1	blank2r.bmp	866	2	tolerant	866	1	!	1319	1	!	-1	0	0	0	0	0	0	0	0	0	0	0	0	0	0	0	0	0	0	0	0	0	0	0	0	0	0	0
013119	11:21:58	11:26:56	296677	5.0.10.0	4_exp_AWA_CON_EVA_AMP	103	Rpleas_acq	Oppo	Rpleas	Bmasked	CS_B	2pleas	distractor2	CONbeforeEVA	acq_US_pleas_masked	acq2_masked	2	32	480	0	300	300	0	0	403	50	0	1	0	0	0	1	blank2r.bmp	0	1	+	0	5	C1r.bmp	492	1	blank2r.bmp	786	1	GKQX	786	1	blank2r.bmp	866	1	treu	866	1	!	-1	1	!	-1	0	0	0	0	0	0	0	0	0	0	0	0	0	0	0	0	0	0	0	0	0	0	0	0	0	0	0
013119	11:21:58	11:26:58	299156	5.0.10.0	4_exp_AWA_CON_EVA_AMP	103	Rpleas_acq	Oppo	Rpleas	Bmasked	CS_B	2pleas	distractor2	CONbeforeEVA	acq_US_pleas_masked	acq2_masked	2	33	480	0	300	300	0	0	703	50	0	1	0	0	0	1	blank2r.bmp	0	1	+	0	4	B4r.bmp	492	1	blank2r.bmp	786	1	GKQX	786	1	blank2r.bmp	866	5	spielen	866	1	!	1319	1	!	-1	0	0	0	0	0	0	0	0	0	0	0	0	0	0	0	0	0	0	0	0	0	0	0	0	0	0	0
013119	11:21:58	11:27:01	301608	5.0.10.0	4_exp_AWA_CON_EVA_AMP	103	Rpleas_acq	Oppo	Rpleas	Bmasked	CS_B	2pleas	distractor2	CONbeforeEVA	acq_US_unple_masked	acq2_masked	2	34	480	1	300	300	0	0	438	50	0	0	0	0	0	1	blank2r.bmp	0	1	+	0	8	C4r.bmp	492	1	blank2r.bmp	786	1	BMVZ	786	1	blank2r.bmp	866	3	lasch	866	1	FEHLER	1652	1	!	1319	1	!	1332	0	0	0	0	0	0	0	0	0	0	0	0	0	0	0	0	0	0	0	0	0	0	0	0
013119	11:21:58	11:27:05	306473	5.0.10.0	4_exp_AWA_CON_EVA_AMP	103	Rpleas_acq	Oppo	Rpleas	Bmasked	CS_B	2pleas	distractor2	CONbeforeEVA	acq_new_unple_masked	acq2_masked	2	35	480	0	300	300	0	0	3076	50	0	0	0	0	0	1	blank2r.bmp	0	1	+	0	6	C2r.bmp	492	1	blank2r.bmp	786	2	B2r.bmp	786	1	blank2r.bmp	866	2	tyrannisch	866	1	FEHLER	4278	1	!	1319	1	!	-1	0	0	0	0	0	0	0	0	0	0	0	0	0	0	0	0	0	0	0	0	0	0	0	0
013119	11:21:58	11:27:09	309658	5.0.10.0	4_exp_AWA_CON_EVA_AMP	103	Rpleas_acq	Oppo	Rpleas	Bmasked	CS_B	2pleas	distractor2	CONbeforeEVA	acq_new_unple_masked	acq2_masked	2	36	480	0	300	300	0	0	1416	50	0	0	0	0	0	1	blank2r.bmp	0	1	+	0	1	B1r.bmp	492	1	blank2r.bmp	786	7	C3r.bmp	786	1	blank2r.bmp	866	5	hindern	866	1	FEHLER	2625	1	!	1319	1	!	-1	0	0	0	0	0	0	0	0	0	0	0	0	0	0	0	0	0	0	0	0	0	0	0	0
013119	11:21:58	11:27:24	325092	5.0.10.0	4_exp_AWA_CON_EVA_AMP	103	Rpleas_acq	Oppo	Rpleas	Bmasked	CS_B	2pleas	distractor2	CONbeforeEVA	acq_US_pleas_masked	acq3_masked	3	1	453	1	300	300	0	0	410	50	0	1	0	0	0	1	blank2r.bmp	0	1	+	0	2	B2r.bmp	492	1	blank2r.bmp	786	1	GKQX	786	1	blank2r.bmp	866	2	schlau	866	1	!	1292	1	!	1306	0	0	0	0	0	0	0	0	0	0	0	0	0	0	0	0	0	0	0	0	0	0	0	0	0	0	0
013119	11:21:58	11:27:26	327411	5.0.10.0	4_exp_AWA_CON_EVA_AMP	103	Rpleas_acq	Oppo	Rpleas	Bmasked	CS_B	2pleas	distractor2	CONbeforeEVA	acq_US_unple_masked	acq3_masked	3	2	453	0	300	300	0	0	552	46	0	1	0	0	0	1	blank2r.bmp	0	1	+	0	1	B1r.bmp	492	1	blank2r.bmp	786	1	BMVZ	786	1	blank2r.bmp	866	1	tot	866	1	!	1292	1	!	-1	0	0	0	0	0	0	0	0	0	0	0	0	0	0	0	0	0	0	0	0	0	0	0	0	0	0	0
013119	11:21:58	11:27:29	329583	5.0.10.0	4_exp_AWA_CON_EVA_AMP	103	Rpleas_acq	Oppo	Rpleas	Bmasked	CS_B	2pleas	distractor2	CONbeforeEVA	acq_US_pleas_masked	acq3_masked	3	3	453	0	300	300	0	0	386	50	0	1	0	0	0	1	blank2r.bmp	0	1	+	0	6	C2r.bmp	492	1	blank2r.bmp	786	1	GKQX	786	1	blank2r.bmp	866	3	loyal	866	1	!	-1	1	!	-1	0	0	0	0	0	0	0	0	0	0	0	0	0	0	0	0	0	0	0	0	0	0	0	0	0	0	0
013119	11:21:58	11:27:31	332009	5.0.10.0	4_exp_AWA_CON_EVA_AMP	103	Rpleas_acq	Oppo	Rpleas	Bmasked	CS_B	2pleas	distractor2	CONbeforeEVA	acq_US_unple_masked	acq3_masked	3	4	453	0	300	300	0	0	643	46	0	1	0	0	0	1	blank2r.bmp	0	1	+	0	4	B4r.bmp	492	1	blank2r.bmp	786	1	BMVZ	786	1	blank2r.bmp	866	4	rächen	866	1	!	1292	1	!	-1	0	0	0	0	0	0	0	0	0	0	0	0	0	0	0	0	0	0	0	0	0	0	0	0	0	0	0
013119	11:21:58	11:27:33	334435	5.0.10.0	4_exp_AWA_CON_EVA_AMP	103	Rpleas_acq	Oppo	Rpleas	Bmasked	CS_B	2pleas	distractor2	CONbeforeEVA	acq_US_unple_masked	acq3_masked	3	5	453	1	300	300	0	0	399	50	0	0	0	0	0	1	blank2r.bmp	0	1	+	0	7	C3r.bmp	492	1	blank2r.bmp	786	1	BMVZ	786	1	blank2r.bmp	866	2	schroff	866	1	FEHLER	1625	1	!	1292	1	!	1306	0	0	0	0	0	0	0	0	0	0	0	0	0	0	0	0	0	0	0	0	0	0	0	0
013119	11:21:58	11:27:35	336447	5.0.10.0	4_exp_AWA_CON_EVA_AMP	103	Rpleas_acq	Oppo	Rpleas	Bmasked	CS_B	2pleas	distractor2	CONbeforeEVA	acq_US_pleas_masked	acq3_masked	3	6	453	1	300	300	0	0	433	50	0	1	0	0	0	1	blank2r.bmp	0	1	+	0	3	B3r.bmp	492	1	blank2r.bmp	786	1	GKQX	786	1	blank2r.bmp	866	1	treu	866	1	!	1292	1	!	1332	0	0	0	0	0	0	0	0	0	0	0	0	0	0	0	0	0	0	0	0	0	0	0	0	0	0	0
013119	11:21:58	11:27:38	338740	5.0.10.0	4_exp_AWA_CON_EVA_AMP	103	Rpleas_acq	Oppo	Rpleas	Bmasked	CS_B	2pleas	distractor2	CONbeforeEVA	acq_US_unple_masked	acq3_masked	3	7	453	1	300	300	0	0	483	46	0	1	0	0	0	1	blank2r.bmp	0	1	+	0	5	C1r.bmp	492	1	blank2r.bmp	786	1	BMVZ	786	1	blank2r.bmp	866	3	lasch	866	1	!	1292	1	!	1386	0	0	0	0	0	0	0	0	0	0	0	0	0	0	0	0	0	0	0	0	0	0	0	0	0	0	0
013119	11:21:58	11:27:40	341165	5.0.10.0	4_exp_AWA_CON_EVA_AMP	103	Rpleas_acq	Oppo	Rpleas	Bmasked	CS_B	2pleas	distractor2	CONbeforeEVA	acq_US_unple_masked	acq3_masked	3	8	453	0	300	300	0	0	649	46	0	1	0	0	0	1	blank2r.bmp	0	1	+	0	8	C4r.bmp	492	1	blank2r.bmp	786	1	BMVZ	786	1	blank2r.bmp	866	5	strafen	866	1	!	1292	1	!	-1	0	0	0	0	0	0	0	0	0	0	0	0	0	0	0	0	0	0	0	0	0	0	0	0	0	0	0
013119	11:21:58	11:27:42	343418	5.0.10.0	4_exp_AWA_CON_EVA_AMP	103	Rpleas_acq	Oppo	Rpleas	Bmasked	CS_B	2pleas	distractor2	CONbeforeEVA	acq_US_pleas_masked	acq3_masked	3	9	453	1	300	300	0	0	450	50	0	1	0	0	0	1	blank2r.bmp	0	1	+	0	8	C4r.bmp	492	1	blank2r.bmp	786	1	GKQX	786	1	blank2r.bmp	866	6	fair	866	1	!	1292	1	!	1346	0	0	0	0	0	0	0	0	0	0	0	0	0	0	0	0	0	0	0	0	0	0	0	0	0	0	0
013119	11:21:58	11:27:45	345737	5.0.10.0	4_exp_AWA_CON_EVA_AMP	103	Rpleas_acq	Oppo	Rpleas	Bmasked	CS_B	2pleas	distractor2	CONbeforeEVA	acq_US_unple_masked	acq3_masked	3	10	453	0	300	300	0	0	558	46	0	1	0	0	0	1	blank2r.bmp	0	1	+	0	4	B4r.bmp	492	1	blank2r.bmp	786	1	BMVZ	786	1	blank2r.bmp	866	6	faul	866	1	!	1292	1	!	-1	0	0	0	0	0	0	0	0	0	0	0	0	0	0	0	0	0	0	0	0	0	0	0	0	0	0	0
013119	11:21:58	11:27:47	348056	5.0.10.0	4_exp_AWA_CON_EVA_AMP	103	Rpleas_acq	Oppo	Rpleas	Bmasked	CS_B	2pleas	distractor2	CONbeforeEVA	acq_US_pleas_masked	acq3_masked	3	11	453	0	300	300	0	0	532	50	0	1	0	0	0	1	blank2r.bmp	0	1	+	0	5	C1r.bmp	492	1	blank2r.bmp	786	1	GKQX	786	1	blank2r.bmp	866	5	spielen	866	1	!	1292	1	!	-1	0	0	0	0	0	0	0	0	0	0	0	0	0	0	0	0	0	0	0	0	0	0	0	0	0	0	0
013119	11:21:58	11:27:50	350615	5.0.10.0	4_exp_AWA_CON_EVA_AMP	103	Rpleas_acq	Oppo	Rpleas	Bmasked	CS_B	2pleas	distractor2	CONbeforeEVA	acq_US_pleas_masked	acq3_masked	3	12	453	0	300	300	0	0	537	46	0	0	0	0	0	1	blank2r.bmp	0	1	+	0	7	C3r.bmp	492	1	blank2r.bmp	786	1	GKQX	786	1	blank2r.bmp	866	4	retten	866	1	FEHLER	1745	1	!	1292	1	!	-1	0	0	0	0	0	0	0	0	0	0	0	0	0	0	0	0	0	0	0	0	0	0	0	0
013119	11:21:58	11:27:52	352614	5.0.10.0	4_exp_AWA_CON_EVA_AMP	103	Rpleas_acq	Oppo	Rpleas	Bmasked	CS_B	2pleas	distractor2	CONbeforeEVA	acq_US_unple_masked	acq3_masked	3	13	453	1	300	300	0	0	420	46	0	1	0	0	0	1	blank2r.bmp	0	1	+	0	3	B3r.bmp	492	1	blank2r.bmp	786	1	BMVZ	786	1	blank2r.bmp	866	3	lasch	866	1	!	1292	1	!	1319	0	0	0	0	0	0	0	0	0	0	0	0	0	0	0	0	0	0	0	0	0	0	0	0	0	0	0
013119	11:21:58	11:27:54	354986	5.0.10.0	4_exp_AWA_CON_EVA_AMP	103	Rpleas_acq	Oppo	Rpleas	Bmasked	CS_B	2pleas	distractor2	CONbeforeEVA	acq_US_unple_masked	acq3_masked	3	14	453	0	300	300	0	0	382	50	0	0	0	0	0	1	blank2r.bmp	0	1	+	0	2	B2r.bmp	492	1	blank2r.bmp	786	1	BMVZ	786	1	blank2r.bmp	866	6	faul	866	1	FEHLER	1586	1	!	-1	1	!	-1	0	0	0	0	0	0	0	0	0	0	0	0	0	0	0	0	0	0	0	0	0	0	0	0
013119	11:21:58	11:27:56	357052	5.0.10.0	4_exp_AWA_CON_EVA_AMP	103	Rpleas_acq	Oppo	Rpleas	Bmasked	CS_B	2pleas	distractor2	CONbeforeEVA	acq_US_pleas_masked	acq3_masked	3	15	453	1	300	300	0	0	488	50	0	1	0	0	0	1	blank2r.bmp	0	1	+	0	6	C2r.bmp	492	1	blank2r.bmp	786	1	GKQX	786	1	blank2r.bmp	866	3	loyal	866	1	!	1292	1	!	1386	0	0	0	0	0	0	0	0	0	0	0	0	0	0	0	0	0	0	0	0	0	0	0	0	0	0	0
013119	11:21:58	11:27:58	359345	5.0.10.0	4_exp_AWA_CON_EVA_AMP	103	Rpleas_acq	Oppo	Rpleas	Bmasked	CS_B	2pleas	distractor2	CONbeforeEVA	acq_US_unple_masked	acq3_masked	3	16	453	1	300	300	0	0	503	46	0	1	0	0	0	1	blank2r.bmp	0	1	+	0	1	B1r.bmp	492	1	blank2r.bmp	786	1	BMVZ	786	1	blank2r.bmp	866	1	tot	866	1	!	1292	1	!	1399	0	0	0	0	0	0	0	0	0	0	0	0	0	0	0	0	0	0	0	0	0	0	0	0	0	0	0
013119	11:21:58	11:28:00	361570	5.0.10.0	4_exp_AWA_CON_EVA_AMP	103	Rpleas_acq	Oppo	Rpleas	Bmasked	CS_B	2pleas	distractor2	CONbeforeEVA	acq_US_pleas_masked	acq3_masked	3	17	453	1	300	300	0	0	430	50	0	1	0	0	0	1	blank2r.bmp	0	1	+	0	7	C3r.bmp	492	1	blank2r.bmp	786	1	GKQX	786	1	blank2r.bmp	866	6	fair	866	1	!	1292	1	!	1332	0	0	0	0	0	0	0	0	0	0	0	0	0	0	0	0	0	0	0	0	0	0	0	0	0	0	0
013119	11:21:58	11:28:03	363863	5.0.10.0	4_exp_AWA_CON_EVA_AMP	103	Rpleas_acq	Oppo	Rpleas	Bmasked	CS_B	2pleas	distractor2	CONbeforeEVA	acq_US_pleas_masked	acq3_masked	3	18	453	1	300	300	0	0	503	50	0	1	0	0	0	1	blank2r.bmp	0	1	+	0	6	C2r.bmp	492	1	blank2r.bmp	786	1	GKQX	786	1	blank2r.bmp	866	1	treu	866	1	!	1292	1	!	1399	0	0	0	0	0	0	0	0	0	0	0	0	0	0	0	0	0	0	0	0	0	0	0	0	0	0	0
013119	11:21:58	11:28:05	366208	5.0.10.0	4_exp_AWA_CON_EVA_AMP	103	Rpleas_acq	Oppo	Rpleas	Bmasked	CS_B	2pleas	distractor2	CONbeforeEVA	acq_US_unple_masked	acq3_masked	3	19	453	0	300	300	0	0	585	46	0	1	0	0	0	1	blank2r.bmp	0	1	+	0	8	C4r.bmp	492	1	blank2r.bmp	786	1	BMVZ	786	1	blank2r.bmp	866	5	strafen	866	1	!	1292	1	!	-1	0	0	0	0	0	0	0	0	0	0	0	0	0	0	0	0	0	0	0	0	0	0	0	0	0	0	0
013119	11:21:58	11:28:08	368714	5.0.10.0	4_exp_AWA_CON_EVA_AMP	103	Rpleas_acq	Oppo	Rpleas	Bmasked	CS_B	2pleas	distractor2	CONbeforeEVA	acq_US_unple_masked	acq3_masked	3	20	453	0	300	300	0	0	720	46	0	1	0	0	0	1	blank2r.bmp	0	1	+	0	3	B3r.bmp	492	1	blank2r.bmp	786	1	BMVZ	786	1	blank2r.bmp	866	4	rächen	866	1	!	1292	1	!	-1	0	0	0	0	0	0	0	0	0	0	0	0	0	0	0	0	0	0	0	0	0	0	0	0	0	0	0
013119	11:21:58	11:28:10	370993	5.0.10.0	4_exp_AWA_CON_EVA_AMP	103	Rpleas_acq	Oppo	Rpleas	Bmasked	CS_B	2pleas	distractor2	CONbeforeEVA	acq_US_unple_masked	acq3_masked	3	21	453	1	300	300	0	0	471	46	0	1	0	0	0	1	blank2r.bmp	0	1	+	0	5	C1r.bmp	492	1	blank2r.bmp	786	1	BMVZ	786	1	blank2r.bmp	866	2	schroff	866	1	!	1292	1	!	1372	0	0	0	0	0	0	0	0	0	0	0	0	0	0	0	0	0	0	0	0	0	0	0	0	0	0	0
013119	11:21:58	11:28:12	373272	5.0.10.0	4_exp_AWA_CON_EVA_AMP	103	Rpleas_acq	Oppo	Rpleas	Bmasked	CS_B	2pleas	distractor2	CONbeforeEVA	acq_US_pleas_masked	acq3_masked	3	22	453	1	300	300	0	0	486	50	0	1	0	0	0	1	blank2r.bmp	0	1	+	0	2	B2r.bmp	492	1	blank2r.bmp	786	1	GKQX	786	1	blank2r.bmp	866	2	schlau	866	1	!	1292	1	!	1386	0	0	0	0	0	0	0	0	0	0	0	0	0	0	0	0	0	0	0	0	0	0	0	0	0	0	0
013119	11:21:58	11:28:14	375511	5.0.10.0	4_exp_AWA_CON_EVA_AMP	103	Rpleas_acq	Oppo	Rpleas	Bmasked	CS_B	2pleas	distractor2	CONbeforeEVA	acq_US_pleas_masked	acq3_masked	3	23	453	1	300	300	0	0	446	50	0	1	0	0	0	1	blank2r.bmp	0	1	+	0	1	B1r.bmp	492	1	blank2r.bmp	786	1	GKQX	786	1	blank2r.bmp	866	5	spielen	866	1	!	1292	1	!	1346	0	0	0	0	0	0	0	0	0	0	0	0	0	0	0	0	0	0	0	0	0	0	0	0	0	0	0
013119	11:21:58	11:28:17	377950	5.0.10.0	4_exp_AWA_CON_EVA_AMP	103	Rpleas_acq	Oppo	Rpleas	Bmasked	CS_B	2pleas	distractor2	CONbeforeEVA	acq_US_pleas_masked	acq3_masked	3	24	453	0	300	300	0	0	670	50	0	1	0	0	0	1	blank2r.bmp	0	1	+	0	4	B4r.bmp	492	1	blank2r.bmp	786	1	GKQX	786	1	blank2r.bmp	866	4	retten	866	1	!	1292	1	!	-1	0	0	0	0	0	0	0	0	0	0	0	0	0	0	0	0	0	0	0	0	0	0	0	0	0	0	0
013119	11:21:58	11:28:19	380443	5.0.10.0	4_exp_AWA_CON_EVA_AMP	103	Rpleas_acq	Oppo	Rpleas	Bmasked	CS_B	2pleas	distractor2	CONbeforeEVA	acq_US_pleas_masked	acq3_masked	3	25	453	0	300	300	0	0	707	50	0	1	0	0	0	1	blank2r.bmp	0	1	+	0	7	C3r.bmp	492	1	blank2r.bmp	786	1	GKQX	786	1	blank2r.bmp	866	4	retten	866	1	!	1292	1	!	-1	0	0	0	0	0	0	0	0	0	0	0	0	0	0	0	0	0	0	0	0	0	0	0	0	0	0	0
013119	11:21:58	11:28:22	382815	5.0.10.0	4_exp_AWA_CON_EVA_AMP	103	Rpleas_acq	Oppo	Rpleas	Bmasked	CS_B	2pleas	distractor2	CONbeforeEVA	acq_US_unple_masked	acq3_masked	3	26	453	0	300	300	0	0	586	46	0	1	0	0	0	1	blank2r.bmp	0	1	+	0	8	C4r.bmp	492	1	blank2r.bmp	786	1	BMVZ	786	1	blank2r.bmp	866	6	faul	866	1	!	1292	1	!	-1	0	0	0	0	0	0	0	0	0	0	0	0	0	0	0	0	0	0	0	0	0	0	0	0	0	0	0
013119	11:21:58	11:28:24	385027	5.0.10.0	4_exp_AWA_CON_EVA_AMP	103	Rpleas_acq	Oppo	Rpleas	Bmasked	CS_B	2pleas	distractor2	CONbeforeEVA	acq_US_pleas_masked	acq3_masked	3	27	453	1	300	300	0	0	402	50	0	1	0	0	0	1	blank2r.bmp	0	1	+	0	4	B4r.bmp	492	1	blank2r.bmp	786	1	GKQX	786	1	blank2r.bmp	866	1	treu	866	1	!	1292	1	!	1306	0	0	0	0	0	0	0	0	0	0	0	0	0	0	0	0	0	0	0	0	0	0	0	0	0	0	0
013119	11:21:58	11:28:26	387333	5.0.10.0	4_exp_AWA_CON_EVA_AMP	103	Rpleas_acq	Oppo	Rpleas	Bmasked	CS_B	2pleas	distractor2	CONbeforeEVA	acq_US_unple_masked	acq3_masked	3	28	453	1	300	300	0	0	509	46	0	1	0	0	0	1	blank2r.bmp	0	1	+	0	6	C2r.bmp	492	1	blank2r.bmp	786	1	BMVZ	786	1	blank2r.bmp	866	4	rächen	866	1	!	1292	1	!	1412	0	0	0	0	0	0	0	0	0	0	0	0	0	0	0	0	0	0	0	0	0	0	0	0	0	0	0
013119	11:21:58	11:28:29	389745	5.0.10.0	4_exp_AWA_CON_EVA_AMP	103	Rpleas_acq	Oppo	Rpleas	Bmasked	CS_B	2pleas	distractor2	CONbeforeEVA	acq_US_unple_masked	acq3_masked	3	29	453	1	300	300	0	0	401	50	0	0	0	0	0	1	blank2r.bmp	0	1	+	0	3	B3r.bmp	492	1	blank2r.bmp	786	1	BMVZ	786	1	blank2r.bmp	866	1	tot	866	1	FEHLER	1625	1	!	1292	1	!	1306	0	0	0	0	0	0	0	0	0	0	0	0	0	0	0	0	0	0	0	0	0	0	0	0
013119	11:21:58	11:28:31	391904	5.0.10.0	4_exp_AWA_CON_EVA_AMP	103	Rpleas_acq	Oppo	Rpleas	Bmasked	CS_B	2pleas	distractor2	CONbeforeEVA	acq_US_unple_masked	acq3_masked	3	30	453	0	300	300	0	0	592	46	0	1	0	0	0	1	blank2r.bmp	0	1	+	0	1	B1r.bmp	492	1	blank2r.bmp	786	1	BMVZ	786	1	blank2r.bmp	866	5	strafen	866	1	!	1292	1	!	-1	0	0	0	0	0	0	0	0	0	0	0	0	0	0	0	0	0	0	0	0	0	0	0	0	0	0	0
013119	11:21:58	11:28:33	394130	5.0.10.0	4_exp_AWA_CON_EVA_AMP	103	Rpleas_acq	Oppo	Rpleas	Bmasked	CS_B	2pleas	distractor2	CONbeforeEVA	acq_US_pleas_masked	acq3_masked	3	31	453	1	300	300	0	0	417	50	0	1	0	0	0	1	blank2r.bmp	0	1	+	0	2	B2r.bmp	492	1	blank2r.bmp	786	1	GKQX	786	1	blank2r.bmp	866	3	loyal	866	1	!	1292	1	!	1319	0	0	0	0	0	0	0	0	0	0	0	0	0	0	0	0	0	0	0	0	0	0	0	0	0	0	0
013119	11:21:58	11:28:35	396423	5.0.10.0	4_exp_AWA_CON_EVA_AMP	103	Rpleas_acq	Oppo	Rpleas	Bmasked	CS_B	2pleas	distractor2	CONbeforeEVA	acq_US_pleas_masked	acq3_masked	3	32	453	1	300	300	0	0	501	50	0	1	0	0	0	1	blank2r.bmp	0	1	+	0	5	C1r.bmp	492	1	blank2r.bmp	786	1	GKQX	786	1	blank2r.bmp	866	6	fair	866	1	!	1292	1	!	1399	0	0	0	0	0	0	0	0	0	0	0	0	0	0	0	0	0	0	0	0	0	0	0	0	0	0	0
013119	11:21:58	11:28:38	398702	5.0.10.0	4_exp_AWA_CON_EVA_AMP	103	Rpleas_acq	Oppo	Rpleas	Bmasked	CS_B	2pleas	distractor2	CONbeforeEVA	acq_US_pleas_masked	acq3_masked	3	33	453	1	300	300	0	0	481	50	0	1	0	0	0	1	blank2r.bmp	0	1	+	0	3	B3r.bmp	492	1	blank2r.bmp	786	1	GKQX	786	1	blank2r.bmp	866	2	schlau	866	1	!	1292	1	!	1386	0	0	0	0	0	0	0	0	0	0	0	0	0	0	0	0	0	0	0	0	0	0	0	0	0	0	0
013119	11:21:58	11:28:40	401114	5.0.10.0	4_exp_AWA_CON_EVA_AMP	103	Rpleas_acq	Oppo	Rpleas	Bmasked	CS_B	2pleas	distractor2	CONbeforeEVA	acq_US_unple_masked	acq3_masked	3	34	453	1	300	300	0	0	399	50	0	0	0	0	0	1	blank2r.bmp	0	1	+	0	8	C4r.bmp	492	1	blank2r.bmp	786	1	BMVZ	786	1	blank2r.bmp	866	3	lasch	866	1	FEHLER	1625	1	!	1292	1	!	1306	0	0	0	0	0	0	0	0	0	0	0	0	0	0	0	0	0	0	0	0	0	0	0	0
013119	11:21:58	11:28:42	403406	5.0.10.0	4_exp_AWA_CON_EVA_AMP	103	Rpleas_acq	Oppo	Rpleas	Bmasked	CS_B	2pleas	distractor2	CONbeforeEVA	acq_US_pleas_masked	acq3_masked	3	35	453	0	300	300	0	0	734	50	0	1	0	0	0	1	blank2r.bmp	0	1	+	0	2	B2r.bmp	492	1	blank2r.bmp	786	1	GKQX	786	1	blank2r.bmp	866	5	spielen	866	1	!	1292	1	!	-1	0	0	0	0	0	0	0	0	0	0	0	0	0	0	0	0	0	0	0	0	0	0	0	0	0	0	0
013119	11:21:58	11:28:45	405699	5.0.10.0	4_exp_AWA_CON_EVA_AMP	103	Rpleas_acq	Oppo	Rpleas	Bmasked	CS_B	2pleas	distractor2	CONbeforeEVA	acq_US_unple_masked	acq3_masked	3	36	453	1	300	300	0	0	484	46	0	1	0	0	0	1	blank2r.bmp	0	1	+	0	1	B1r.bmp	492	1	blank2r.bmp	786	1	BMVZ	786	1	blank2r.bmp	866	2	schroff	866	1	!	1292	1	!	1386	0	0	0	0	0	0	0	0	0	0	0	0	0	0	0	0	0	0	0	0	0	0	0	0	0	0	0
013119	11:21:58	11:28:55	415855	5.0.10.0	4_exp_AWA_CON_EVA_AMP	103	Rpleas_acq	Oppo	Rpleas	Bmasked	CS_B	2pleas	distractor2	CONbeforeEVA	acq_US_unple_masked	acq45_masked	4	1	400	0	300	300	0	0	479	46	0	1	0	0	0	1	blank2r.bmp	0	1	+	0	4	B4r.bmp	492	1	blank2r.bmp	786	1	BMVZ	786	1	blank2r.bmp	866	3	lasch	866	1	!	1239	1	!	-1	0	0	0	0	0	0	0	0	0	0	0	0	0	0	0	0	0	0	0	0	0	0	0	0	0	0	0
013119	11:21:58	11:28:57	418054	5.0.10.0	4_exp_AWA_CON_EVA_AMP	103	Rpleas_acq	Oppo	Rpleas	Bmasked	CS_B	2pleas	distractor2	CONbeforeEVA	acq_US_pleas_masked	acq45_masked	4	2	400	1	300	300	0	0	386	50	0	1	0	0	0	1	blank2r.bmp	0	1	+	0	5	C1r.bmp	492	1	blank2r.bmp	786	1	GKQX	786	1	blank2r.bmp	866	2	schlau	866	1	!	1239	1	!	1292	0	0	0	0	0	0	0	0	0	0	0	0	0	0	0	0	0	0	0	0	0	0	0	0	0	0	0
013119	11:21:58	11:28:59	420200	5.0.10.0	4_exp_AWA_CON_EVA_AMP	103	Rpleas_acq	Oppo	Rpleas	Bmasked	CS_B	2pleas	distractor2	CONbeforeEVA	acq_US_unple_masked	acq45_masked	4	3	400	1	300	300	0	0	358	50	0	0	0	0	0	1	blank2r.bmp	0	1	+	0	7	C3r.bmp	492	1	blank2r.bmp	786	1	BMVZ	786	1	blank2r.bmp	866	6	faul	866	1	!	1239	1	!	1252	0	0	0	0	0	0	0	0	0	0	0	0	0	0	0	0	0	0	0	0	0	0	0	0	0	0	0
013119	11:21:58	11:29:01	422452	5.0.10.0	4_exp_AWA_CON_EVA_AMP	103	Rpleas_acq	Oppo	Rpleas	Bmasked	CS_B	2pleas	distractor2	CONbeforeEVA	acq_US_unple_masked	acq45_masked	4	4	400	0	300	300	0	0	482	46	0	1	0	0	0	1	blank2r.bmp	0	1	+	0	6	C2r.bmp	492	1	blank2r.bmp	786	1	BMVZ	786	1	blank2r.bmp	866	4	rächen	866	1	!	1239	1	!	-1	0	0	0	0	0	0	0	0	0	0	0	0	0	0	0	0	0	0	0	0	0	0	0	0	0	0	0
013119	11:21:58	11:29:04	424678	5.0.10.0	4_exp_AWA_CON_EVA_AMP	103	Rpleas_acq	Oppo	Rpleas	Bmasked	CS_B	2pleas	distractor2	CONbeforeEVA	acq_US_pleas_masked	acq45_masked	4	5	400	1	300	300	0	0	411	50	0	1	0	0	0	1	blank2r.bmp	0	1	+	0	1	B1r.bmp	492	1	blank2r.bmp	786	1	GKQX	786	1	blank2r.bmp	866	5	spielen	866	1	!	1239	1	!	1306	0	0	0	0	0	0	0	0	0	0	0	0	0	0	0	0	0	0	0	0	0	0	0	0	0	0	0
013119	11:21:58	11:29:06	426770	5.0.10.0	4_exp_AWA_CON_EVA_AMP	103	Rpleas_acq	Oppo	Rpleas	Bmasked	CS_B	2pleas	distractor2	CONbeforeEVA	acq_US_pleas_masked	acq45_masked	4	6	400	0	300	300	0	0	329	46	0	0	0	0	0	1	blank2r.bmp	0	1	+	0	4	B4r.bmp	492	1	blank2r.bmp	786	1	GKQX	786	1	blank2r.bmp	866	3	loyal	866	1	!	-1	1	!	-1	0	0	0	0	0	0	0	0	0	0	0	0	0	0	0	0	0	0	0	0	0	0	0	0	0	0	0
013119	11:21:58	11:29:08	429063	5.0.10.0	4_exp_AWA_CON_EVA_AMP	103	Rpleas_acq	Oppo	Rpleas	Bmasked	CS_B	2pleas	distractor2	CONbeforeEVA	acq_US_unple_masked	acq45_masked	4	7	400	0	300	300	0	0	516	46	0	1	0	0	0	1	blank2r.bmp	0	1	+	0	6	C2r.bmp	492	1	blank2r.bmp	786	1	BMVZ	786	1	blank2r.bmp	866	1	tot	866	1	!	1239	1	!	-1	0	0	0	0	0	0	0	0	0	0	0	0	0	0	0	0	0	0	0	0	0	0	0	0	0	0	0
013119	11:21:58	11:29:10	431328	5.0.10.0	4_exp_AWA_CON_EVA_AMP	103	Rpleas_acq	Oppo	Rpleas	Bmasked	CS_B	2pleas	distractor2	CONbeforeEVA	acq_US_unple_masked	acq45_masked	4	8	400	1	300	300	0	0	460	50	0	0	0	0	0	1	blank2r.bmp	0	1	+	0	5	C1r.bmp	492	1	blank2r.bmp	786	1	BMVZ	786	1	blank2r.bmp	866	5	strafen	866	1	!	1239	1	!	1359	0	0	0	0	0	0	0	0	0	0	0	0	0	0	0	0	0	0	0	0	0	0	0	0	0	0	0
013119	11:21:58	11:29:13	433607	5.0.10.0	4_exp_AWA_CON_EVA_AMP	103	Rpleas_acq	Oppo	Rpleas	Bmasked	CS_B	2pleas	distractor2	CONbeforeEVA	acq_US_unple_masked	acq45_masked	4	9	400	0	300	300	0	0	514	46	0	1	0	0	0	1	blank2r.bmp	0	1	+	0	7	C3r.bmp	492	1	blank2r.bmp	786	1	BMVZ	786	1	blank2r.bmp	866	2	schroff	866	1	!	1239	1	!	-1	0	0	0	0	0	0	0	0	0	0	0	0	0	0	0	0	0	0	0	0	0	0	0	0	0	0	0
013119	11:21:58	11:29:15	435873	5.0.10.0	4_exp_AWA_CON_EVA_AMP	103	Rpleas_acq	Oppo	Rpleas	Bmasked	CS_B	2pleas	distractor2	CONbeforeEVA	acq_US_pleas_masked	acq45_masked	4	10	400	1	300	300	0	0	457	50	0	1	0	0	0	1	blank2r.bmp	0	1	+	0	3	B3r.bmp	492	1	blank2r.bmp	786	1	GKQX	786	1	blank2r.bmp	866	6	fair	866	1	!	1239	1	!	1359	0	0	0	0	0	0	0	0	0	0	0	0	0	0	0	0	0	0	0	0	0	0	0	0	0	0	0
013119	11:21:58	11:29:18	439272	5.0.10.0	4_exp_AWA_CON_EVA_AMP	103	Rpleas_acq	Oppo	Rpleas	Bmasked	CS_B	2pleas	distractor2	CONbeforeEVA	acq_US_pleas_masked	acq45_masked	4	11	400	0	300	300	0	0	1636	50	0	1	0	0	0	1	blank2r.bmp	0	1	+	0	8	C4r.bmp	492	1	blank2r.bmp	786	1	GKQX	786	1	blank2r.bmp	866	4	retten	866	1	!	1239	1	!	-1	0	0	0	0	0	0	0	0	0	0	0	0	0	0	0	0	0	0	0	0	0	0	0	0	0	0	0
013119	11:21:58	11:29:21	441711	5.0.10.0	4_exp_AWA_CON_EVA_AMP	103	Rpleas_acq	Oppo	Rpleas	Bmasked	CS_B	2pleas	distractor2	CONbeforeEVA	acq_US_pleas_masked	acq45_masked	4	12	400	0	300	300	0	0	652	50	0	1	0	0	0	1	blank2r.bmp	0	1	+	0	2	B2r.bmp	492	1	blank2r.bmp	786	1	GKQX	786	1	blank2r.bmp	866	1	treu	866	1	!	1239	1	!	-1	0	0	0	0	0	0	0	0	0	0	0	0	0	0	0	0	0	0	0	0	0	0	0	0	0	0	0
013119	11:21:58	11:29:23	444056	5.0.10.0	4_exp_AWA_CON_EVA_AMP	103	Rpleas_acq	Oppo	Rpleas	Bmasked	CS_B	2pleas	distractor2	CONbeforeEVA	acq_US_unple_masked	acq45_masked	4	13	400	0	300	300	0	0	562	46	0	1	0	0	0	1	blank2r.bmp	0	1	+	0	2	B2r.bmp	492	1	blank2r.bmp	786	1	BMVZ	786	1	blank2r.bmp	866	4	rächen	866	1	!	1239	1	!	-1	0	0	0	0	0	0	0	0	0	0	0	0	0	0	0	0	0	0	0	0	0	0	0	0	0	0	0
013119	11:21:58	11:29:25	446402	5.0.10.0	4_exp_AWA_CON_EVA_AMP	103	Rpleas_acq	Oppo	Rpleas	Bmasked	CS_B	2pleas	distractor2	CONbeforeEVA	acq_US_unple_masked	acq45_masked	4	14	400	0	300	300	0	0	556	46	0	1	0	0	0	1	blank2r.bmp	0	1	+	0	1	B1r.bmp	492	1	blank2r.bmp	786	1	BMVZ	786	1	blank2r.bmp	866	1	tot	866	1	!	1239	1	!	-1	0	0	0	0	0	0	0	0	0	0	0	0	0	0	0	0	0	0	0	0	0	0	0	0	0	0	0
013119	11:21:58	11:29:34	455292	5.0.10.0	4_exp_AWA_CON_EVA_AMP	103	Rpleas_acq	Oppo	Rpleas	Bmasked	CS_B	2pleas	distractor2	CONbeforeEVA	acq_US_pleas_masked	acq45_masked	4	15	400	0	300	300	0	0	7106	50	0	1	0	0	0	1	blank2r.bmp	0	1	+	0	6	C2r.bmp	492	1	blank2r.bmp	786	1	GKQX	786	1	blank2r.bmp	866	3	loyal	866	1	!	1239	1	!	-1	0	0	0	0	0	0	0	0	0	0	0	0	0	0	0	0	0	0	0	0	0	0	0	0	0	0	0
013119	11:21:58	11:29:36	457531	5.0.10.0	4_exp_AWA_CON_EVA_AMP	103	Rpleas_acq	Oppo	Rpleas	Bmasked	CS_B	2pleas	distractor2	CONbeforeEVA	acq_US_unple_masked	acq45_masked	4	16	400	1	300	300	0	0	430	46	0	1	0	0	0	1	blank2r.bmp	0	1	+	0	4	B4r.bmp	492	1	blank2r.bmp	786	1	BMVZ	786	1	blank2r.bmp	866	5	strafen	866	1	!	1239	1	!	1332	0	0	0	0	0	0	0	0	0	0	0	0	0	0	0	0	0	0	0	0	0	0	0	0	0	0	0
013119	11:21:58	11:29:39	459717	5.0.10.0	4_exp_AWA_CON_EVA_AMP	103	Rpleas_acq	Oppo	Rpleas	Bmasked	CS_B	2pleas	distractor2	CONbeforeEVA	acq_US_pleas_masked	acq45_masked	4	17	400	1	300	300	0	0	397	50	0	1	0	0	0	1	blank2r.bmp	0	1	+	0	3	B3r.bmp	492	1	blank2r.bmp	786	1	GKQX	786	1	blank2r.bmp	866	4	retten	866	1	!	1239	1	!	1292	0	0	0	0	0	0	0	0	0	0	0	0	0	0	0	0	0	0	0	0	0	0	0	0	0	0	0
013119	11:21:58	11:29:41	461822	5.0.10.0	4_exp_AWA_CON_EVA_AMP	103	Rpleas_acq	Oppo	Rpleas	Bmasked	CS_B	2pleas	distractor2	CONbeforeEVA	acq_US_pleas_masked	acq45_masked	4	18	400	0	300	300	0	0	324	46	0	0	0	0	0	1	blank2r.bmp	0	1	+	0	8	C4r.bmp	492	1	blank2r.bmp	786	1	GKQX	786	1	blank2r.bmp	866	6	fair	866	1	!	-1	1	!	-1	0	0	0	0	0	0	0	0	0	0	0	0	0	0	0	0	0	0	0	0	0	0	0	0	0	0	0
013119	11:21:58	11:29:43	464141	5.0.10.0	4_exp_AWA_CON_EVA_AMP	103	Rpleas_acq	Oppo	Rpleas	Bmasked	CS_B	2pleas	distractor2	CONbeforeEVA	acq_US_unple_masked	acq45_masked	4	19	400	0	300	300	0	0	541	46	0	1	0	0	0	1	blank2r.bmp	0	1	+	0	7	C3r.bmp	492	1	blank2r.bmp	786	1	BMVZ	786	1	blank2r.bmp	866	6	faul	866	1	!	1239	1	!	-1	0	0	0	0	0	0	0	0	0	0	0	0	0	0	0	0	0	0	0	0	0	0	0	0	0	0	0
013119	11:21:58	11:29:45	466434	5.0.10.0	4_exp_AWA_CON_EVA_AMP	103	Rpleas_acq	Oppo	Rpleas	Bmasked	CS_B	2pleas	distractor2	CONbeforeEVA	acq_US_unple_masked	acq45_masked	4	20	400	0	300	300	0	0	518	46	0	1	0	0	0	1	blank2r.bmp	0	1	+	0	5	C1r.bmp	492	1	blank2r.bmp	786	1	BMVZ	786	1	blank2r.bmp	866	3	lasch	866	1	!	1239	1	!	-1	0	0	0	0	0	0	0	0	0	0	0	0	0	0	0	0	0	0	0	0	0	0	0	0	0	0	0
013119	11:21:58	11:29:48	468593	5.0.10.0	4_exp_AWA_CON_EVA_AMP	103	Rpleas_acq	Oppo	Rpleas	Bmasked	CS_B	2pleas	distractor2	CONbeforeEVA	acq_US_pleas_masked	acq45_masked	4	21	400	1	300	300	0	0	346	50	0	1	0	0	0	1	blank2r.bmp	0	1	+	0	7	C3r.bmp	492	1	blank2r.bmp	786	1	GKQX	786	1	blank2r.bmp	866	5	spielen	866	1	!	1239	1	!	1252	0	0	0	0	0	0	0	0	0	0	0	0	0	0	0	0	0	0	0	0	0	0	0	0	0	0	0
013119	11:21:58	11:29:50	470699	5.0.10.0	4_exp_AWA_CON_EVA_AMP	103	Rpleas_acq	Oppo	Rpleas	Bmasked	CS_B	2pleas	distractor2	CONbeforeEVA	acq_US_pleas_masked	acq45_masked	4	22	400	0	300	300	0	0	328	46	0	0	0	0	0	1	blank2r.bmp	0	1	+	0	3	B3r.bmp	492	1	blank2r.bmp	786	1	GKQX	786	1	blank2r.bmp	866	1	treu	866	1	!	-1	1	!	-1	0	0	0	0	0	0	0	0	0	0	0	0	0	0	0	0	0	0	0	0	0	0	0	0	0	0	0
013119	11:21:58	11:29:52	472964	5.0.10.0	4_exp_AWA_CON_EVA_AMP	103	Rpleas_acq	Oppo	Rpleas	Bmasked	CS_B	2pleas	distractor2	CONbeforeEVA	acq_US_pleas_masked	acq45_masked	4	23	400	0	300	300	0	0	479	50	0	1	0	0	0	1	blank2r.bmp	0	1	+	0	5	C1r.bmp	492	1	blank2r.bmp	786	1	GKQX	786	1	blank2r.bmp	866	2	schlau	866	1	!	1239	1	!	-1	0	0	0	0	0	0	0	0	0	0	0	0	0	0	0	0	0	0	0	0	0	0	0	0	0	0	0
013119	11:21:58	11:29:54	475230	5.0.10.0	4_exp_AWA_CON_EVA_AMP	103	Rpleas_acq	Oppo	Rpleas	Bmasked	CS_B	2pleas	distractor2	CONbeforeEVA	acq_US_unple_masked	acq45_masked	4	24	400	1	300	300	0	0	443	46	0	1	0	0	0	1	blank2r.bmp	0	1	+	0	4	B4r.bmp	492	1	blank2r.bmp	786	1	BMVZ	786	1	blank2r.bmp	866	2	schroff	866	1	!	1239	1	!	1346	0	0	0	0	0	0	0	0	0	0	0	0	0	0	0	0	0	0	0	0	0	0	0	0	0	0	0
013119	11:21:58	11:29:56	477483	5.0.10.0	4_exp_AWA_CON_EVA_AMP	103	Rpleas_acq	Oppo	Rpleas	Bmasked	CS_B	2pleas	distractor2	CONbeforeEVA	acq_US_unple_masked	acq45_masked	4	25	400	0	300	300	0	0	479	46	0	1	0	0	0	1	blank2r.bmp	0	1	+	0	1	B1r.bmp	492	1	blank2r.bmp	786	1	BMVZ	786	1	blank2r.bmp	866	3	lasch	866	1	!	1239	1	!	-1	0	0	0	0	0	0	0	0	0	0	0	0	0	0	0	0	0	0	0	0	0	0	0	0	0	0	0
013119	11:21:58	11:29:59	479882	5.0.10.0	4_exp_AWA_CON_EVA_AMP	103	Rpleas_acq	Oppo	Rpleas	Bmasked	CS_B	2pleas	distractor2	CONbeforeEVA	acq_US_unple_masked	acq45_masked	4	26	400	0	300	300	0	0	621	46	0	1	0	0	0	1	blank2r.bmp	0	1	+	0	2	B2r.bmp	492	1	blank2r.bmp	786	1	BMVZ	786	1	blank2r.bmp	866	2	schroff	866	1	!	1239	1	!	-1	0	0	0	0	0	0	0	0	0	0	0	0	0	0	0	0	0	0	0	0	0	0	0	0	0	0	0
013119	11:21:58	11:30:01	482107	5.0.10.0	4_exp_AWA_CON_EVA_AMP	103	Rpleas_acq	Oppo	Rpleas	Bmasked	CS_B	2pleas	distractor2	CONbeforeEVA	acq_US_pleas_masked	acq45_masked	4	27	400	1	300	300	0	0	417	50	0	1	0	0	0	1	blank2r.bmp	0	1	+	0	6	C2r.bmp	492	1	blank2r.bmp	786	1	GKQX	786	1	blank2r.bmp	866	1	treu	866	1	!	1239	1	!	1319	0	0	0	0	0	0	0	0	0	0	0	0	0	0	0	0	0	0	0	0	0	0	0	0	0	0	0
013119	11:21:58	11:30:03	484360	5.0.10.0	4_exp_AWA_CON_EVA_AMP	103	Rpleas_acq	Oppo	Rpleas	Bmasked	CS_B	2pleas	distractor2	CONbeforeEVA	acq_US_unple_masked	acq45_masked	4	28	400	1	300	300	0	0	457	50	0	0	0	0	0	1	blank2r.bmp	0	1	+	0	8	C4r.bmp	492	1	blank2r.bmp	786	1	BMVZ	786	1	blank2r.bmp	866	4	rächen	866	1	!	1239	1	!	1359	0	0	0	0	0	0	0	0	0	0	0	0	0	0	0	0	0	0	0	0	0	0	0	0	0	0	0
013119	11:21:58	11:30:05	486572	5.0.10.0	4_exp_AWA_CON_EVA_AMP	103	Rpleas_acq	Oppo	Rpleas	Bmasked	CS_B	2pleas	distractor2	CONbeforeEVA	acq_US_pleas_masked	acq45_masked	4	29	400	1	300	300	0	0	413	46	0	0	0	0	0	1	blank2r.bmp	0	1	+	0	3	B3r.bmp	492	1	blank2r.bmp	786	1	GKQX	786	1	blank2r.bmp	866	3	loyal	866	1	!	1239	1	!	1319	0	0	0	0	0	0	0	0	0	0	0	0	0	0	0	0	0	0	0	0	0	0	0	0	0	0	0
013119	11:21:58	11:30:08	488931	5.0.10.0	4_exp_AWA_CON_EVA_AMP	103	Rpleas_acq	Oppo	Rpleas	Bmasked	CS_B	2pleas	distractor2	CONbeforeEVA	acq_US_unple_masked	acq45_masked	4	30	400	0	300	300	0	0	589	46	0	1	0	0	0	1	blank2r.bmp	0	1	+	0	7	C3r.bmp	492	1	blank2r.bmp	786	1	BMVZ	786	1	blank2r.bmp	866	6	faul	866	1	!	1239	1	!	-1	0	0	0	0	0	0	0	0	0	0	0	0	0	0	0	0	0	0	0	0	0	0	0	0	0	0	0
013119	11:21:58	11:30:10	491184	5.0.10.0	4_exp_AWA_CON_EVA_AMP	103	Rpleas_acq	Oppo	Rpleas	Bmasked	CS_B	2pleas	distractor2	CONbeforeEVA	acq_US_pleas_masked	acq45_masked	4	31	400	1	300	300	0	0	447	50	0	1	0	0	0	1	blank2r.bmp	0	1	+	0	8	C4r.bmp	492	1	blank2r.bmp	786	1	GKQX	786	1	blank2r.bmp	866	6	fair	866	1	!	1239	1	!	1346	0	0	0	0	0	0	0	0	0	0	0	0	0	0	0	0	0	0	0	0	0	0	0	0	0	0	0
013119	11:21:58	11:30:12	493543	5.0.10.0	4_exp_AWA_CON_EVA_AMP	103	Rpleas_acq	Oppo	Rpleas	Bmasked	CS_B	2pleas	distractor2	CONbeforeEVA	acq_US_unple_masked	acq45_masked	4	32	400	0	300	300	0	0	593	50	0	0	0	0	0	1	blank2r.bmp	0	1	+	0	1	B1r.bmp	492	1	blank2r.bmp	786	1	BMVZ	786	1	blank2r.bmp	866	1	tot	866	1	!	1239	1	!	-1	0	0	0	0	0	0	0	0	0	0	0	0	0	0	0	0	0	0	0	0	0	0	0	0	0	0	0
013119	11:21:58	11:30:15	495715	5.0.10.0	4_exp_AWA_CON_EVA_AMP	103	Rpleas_acq	Oppo	Rpleas	Bmasked	CS_B	2pleas	distractor2	CONbeforeEVA	acq_US_pleas_masked	acq45_masked	4	33	400	1	300	300	0	0	368	50	0	1	0	0	0	1	blank2r.bmp	0	1	+	0	5	C1r.bmp	492	1	blank2r.bmp	786	1	GKQX	786	1	blank2r.bmp	866	4	retten	866	1	!	1239	1	!	1266	0	0	0	0	0	0	0	0	0	0	0	0	0	0	0	0	0	0	0	0	0	0	0	0	0	0	0
013119	11:21:58	11:30:17	498074	5.0.10.0	4_exp_AWA_CON_EVA_AMP	103	Rpleas_acq	Oppo	Rpleas	Bmasked	CS_B	2pleas	distractor2	CONbeforeEVA	acq_US_unple_masked	acq45_masked	4	34	400	0	300	300	0	0	586	50	0	0	0	0	0	1	blank2r.bmp	0	1	+	0	2	B2r.bmp	492	1	blank2r.bmp	786	1	BMVZ	786	1	blank2r.bmp	866	5	strafen	866	1	!	1239	1	!	-1	0	0	0	0	0	0	0	0	0	0	0	0	0	0	0	0	0	0	0	0	0	0	0	0	0	0	0
013119	11:21:58	11:30:19	500260	5.0.10.0	4_exp_AWA_CON_EVA_AMP	103	Rpleas_acq	Oppo	Rpleas	Bmasked	CS_B	2pleas	distractor2	CONbeforeEVA	acq_US_pleas_masked	acq45_masked	4	35	400	1	300	300	0	0	379	50	0	1	0	0	0	1	blank2r.bmp	0	1	+	0	4	B4r.bmp	492	1	blank2r.bmp	786	1	GKQX	786	1	blank2r.bmp	866	2	schlau	866	1	!	1239	1	!	1279	0	0	0	0	0	0	0	0	0	0	0	0	0	0	0	0	0	0	0	0	0	0	0	0	0	0	0
013119	11:21:58	11:30:21	502446	5.0.10.0	4_exp_AWA_CON_EVA_AMP	103	Rpleas_acq	Oppo	Rpleas	Bmasked	CS_B	2pleas	distractor2	CONbeforeEVA	acq_US_pleas_masked	acq45_masked	4	36	400	1	300	300	0	0	395	50	0	1	0	0	0	1	blank2r.bmp	0	1	+	0	6	C2r.bmp	492	1	blank2r.bmp	786	1	GKQX	786	1	blank2r.bmp	866	5	spielen	866	1	!	1239	1	!	1292	0	0	0	0	0	0	0	0	0	0	0	0	0	0	0	0	0	0	0	0	0	0	0	0	0	0	0
013119	11:21:58	11:30:33	514201	5.0.10.0	4_exp_AWA_CON_EVA_AMP	103	Rpleas_acq	Oppo	Rpleas	Bmasked	CS_B	2pleas	distractor2	CONbeforeEVA	acq_US_pleas_masked	acq45_masked	5	1	400	0	300	300	0	0	326	50	0	1	0	0	0	1	blank2r.bmp	0	1	+	0	7	C3r.bmp	492	1	blank2r.bmp	786	1	GKQX	786	1	blank2r.bmp	866	5	spielen	866	1	!	-1	1	!	-1	0	0	0	0	0	0	0	0	0	0	0	0	0	0	0	0	0	0	0	0	0	0	0	0	0	0	0
013119	11:21:58	11:30:36	516613	5.0.10.0	4_exp_AWA_CON_EVA_AMP	103	Rpleas_acq	Oppo	Rpleas	Bmasked	CS_B	2pleas	distractor2	CONbeforeEVA	acq_US_pleas_masked	acq45_masked	5	2	400	0	300	300	0	0	635	50	0	1	0	0	0	1	blank2r.bmp	0	1	+	0	4	B4r.bmp	492	1	blank2r.bmp	786	1	GKQX	786	1	blank2r.bmp	866	2	schlau	866	1	!	1239	1	!	-1	0	0	0	0	0	0	0	0	0	0	0	0	0	0	0	0	0	0	0	0	0	0	0	0	0	0	0
013119	11:21:58	11:30:38	518892	5.0.10.0	4_exp_AWA_CON_EVA_AMP	103	Rpleas_acq	Oppo	Rpleas	Bmasked	CS_B	2pleas	distractor2	CONbeforeEVA	acq_US_unple_masked	acq45_masked	5	3	400	1	300	300	0	0	454	50	0	0	0	0	0	1	blank2r.bmp	0	1	+	0	2	B2r.bmp	492	1	blank2r.bmp	786	1	BMVZ	786	1	blank2r.bmp	866	3	lasch	866	1	!	1239	1	!	1359	0	0	0	0	0	0	0	0	0	0	0	0	0	0	0	0	0	0	0	0	0	0	0	0	0	0	0
013119	11:21:58	11:30:40	521038	5.0.10.0	4_exp_AWA_CON_EVA_AMP	103	Rpleas_acq	Oppo	Rpleas	Bmasked	CS_B	2pleas	distractor2	CONbeforeEVA	acq_US_unple_masked	acq45_masked	5	4	400	1	300	300	0	0	346	50	0	0	0	0	0	1	blank2r.bmp	0	1	+	0	1	B1r.bmp	492	1	blank2r.bmp	786	1	BMVZ	786	1	blank2r.bmp	866	1	tot	866	1	!	1239	1	!	1252	0	0	0	0	0	0	0	0	0	0	0	0	0	0	0	0	0	0	0	0	0	0	0	0	0	0	0
013119	11:21:58	11:30:42	523370	5.0.10.0	4_exp_AWA_CON_EVA_AMP	103	Rpleas_acq	Oppo	Rpleas	Bmasked	CS_B	2pleas	distractor2	CONbeforeEVA	acq_US_unple_masked	acq45_masked	5	5	400	0	300	300	0	0	564	50	0	0	0	0	0	1	blank2r.bmp	0	1	+	0	8	C4r.bmp	492	1	blank2r.bmp	786	1	BMVZ	786	1	blank2r.bmp	866	4	rächen	866	1	!	1239	1	!	-1	0	0	0	0	0	0	0	0	0	0	0	0	0	0	0	0	0	0	0	0	0	0	0	0	0	0	0
013119	11:21:58	11:30:44	525423	5.0.10.0	4_exp_AWA_CON_EVA_AMP	103	Rpleas_acq	Oppo	Rpleas	Bmasked	CS_B	2pleas	distractor2	CONbeforeEVA	acq_US_unple_masked	acq45_masked	5	6	400	0	300	300	0	0	269	50	0	0	0	0	0	1	blank2r.bmp	0	1	+	0	6	C2r.bmp	492	1	blank2r.bmp	786	1	BMVZ	786	1	blank2r.bmp	866	2	schroff	866	1	!	-1	1	!	-1	0	0	0	0	0	0	0	0	0	0	0	0	0	0	0	0	0	0	0	0	0	0	0	0	0	0	0
013119	11:21:58	11:30:47	527635	5.0.10.0	4_exp_AWA_CON_EVA_AMP	103	Rpleas_acq	Oppo	Rpleas	Bmasked	CS_B	2pleas	distractor2	CONbeforeEVA	acq_US_unple_masked	acq45_masked	5	7	400	1	300	300	0	0	402	50	0	0	0	0	0	1	blank2r.bmp	0	1	+	0	5	C1r.bmp	492	1	blank2r.bmp	786	1	BMVZ	786	1	blank2r.bmp	866	6	faul	866	1	!	1239	1	!	1306	0	0	0	0	0	0	0	0	0	0	0	0	0	0	0	0	0	0	0	0	0	0	0	0	0	0	0
013119	11:21:58	11:30:49	529701	5.0.10.0	4_exp_AWA_CON_EVA_AMP	103	Rpleas_acq	Oppo	Rpleas	Bmasked	CS_B	2pleas	distractor2	CONbeforeEVA	acq_US_pleas_masked	acq45_masked	5	8	400	0	300	300	0	0	295	50	0	1	0	0	0	1	blank2r.bmp	0	1	+	0	3	B3r.bmp	492	1	blank2r.bmp	786	1	GKQX	786	1	blank2r.bmp	866	1	treu	866	1	!	-1	1	!	-1	0	0	0	0	0	0	0	0	0	0	0	0	0	0	0	0	0	0	0	0	0	0	0	0	0	0	0
013119	11:21:58	11:30:51	531874	5.0.10.0	4_exp_AWA_CON_EVA_AMP	103	Rpleas_acq	Oppo	Rpleas	Bmasked	CS_B	2pleas	distractor2	CONbeforeEVA	acq_US_pleas_masked	acq45_masked	5	9	400	1	300	300	0	0	346	50	0	1	0	0	0	1	blank2r.bmp	0	1	+	0	4	B4r.bmp	492	1	blank2r.bmp	786	1	GKQX	786	1	blank2r.bmp	866	6	fair	866	1	!	1239	1	!	1252	0	0	0	0	0	0	0	0	0	0	0	0	0	0	0	0	0	0	0	0	0	0	0	0	0	0	0
013119	11:21:58	11:30:53	534073	5.0.10.0	4_exp_AWA_CON_EVA_AMP	103	Rpleas_acq	Oppo	Rpleas	Bmasked	CS_B	2pleas	distractor2	CONbeforeEVA	acq_US_pleas_masked	acq45_masked	5	10	400	1	300	300	0	0	402	50	0	1	0	0	0	1	blank2r.bmp	0	1	+	0	5	C1r.bmp	492	1	blank2r.bmp	786	1	GKQX	786	1	blank2r.bmp	866	4	retten	866	1	!	1239	1	!	1306	0	0	0	0	0	0	0	0	0	0	0	0	0	0	0	0	0	0	0	0	0	0	0	0	0	0	0
013119	11:21:58	11:30:55	536325	5.0.10.0	4_exp_AWA_CON_EVA_AMP	103	Rpleas_acq	Oppo	Rpleas	Bmasked	CS_B	2pleas	distractor2	CONbeforeEVA	acq_US_unple_masked	acq45_masked	5	11	400	1	300	300	0	0	452	50	0	0	0	0	0	1	blank2r.bmp	0	1	+	0	7	C3r.bmp	492	1	blank2r.bmp	786	1	BMVZ	786	1	blank2r.bmp	866	5	strafen	866	1	!	1239	1	!	1359	0	0	0	0	0	0	0	0	0	0	0	0	0	0	0	0	0	0	0	0	0	0	0	0	0	0	0
013119	11:21:58	11:30:57	538484	5.0.10.0	4_exp_AWA_CON_EVA_AMP	103	Rpleas_acq	Oppo	Rpleas	Bmasked	CS_B	2pleas	distractor2	CONbeforeEVA	acq_US_pleas_masked	acq45_masked	5	12	400	1	300	300	0	0	366	50	0	1	0	0	0	1	blank2r.bmp	0	1	+	0	2	B2r.bmp	492	1	blank2r.bmp	786	1	GKQX	786	1	blank2r.bmp	866	3	loyal	866	1	!	1239	1	!	1266	0	0	0	0	0	0	0	0	0	0	0	0	0	0	0	0	0	0	0	0	0	0	0	0	0	0	0
013119	11:21:58	11:31:00	540630	5.0.10.0	4_exp_AWA_CON_EVA_AMP	103	Rpleas_acq	Oppo	Rpleas	Bmasked	CS_B	2pleas	distractor2	CONbeforeEVA	acq_US_pleas_masked	acq45_masked	5	13	400	1	300	300	0	0	346	50	0	1	0	0	0	1	blank2r.bmp	0	1	+	0	8	C4r.bmp	492	1	blank2r.bmp	786	1	GKQX	786	1	blank2r.bmp	866	3	loyal	866	1	!	1239	1	!	1252	0	0	0	0	0	0	0	0	0	0	0	0	0	0	0	0	0	0	0	0	0	0	0	0	0	0	0
013119	11:21:58	11:31:02	542856	5.0.10.0	4_exp_AWA_CON_EVA_AMP	103	Rpleas_acq	Oppo	Rpleas	Bmasked	CS_B	2pleas	distractor2	CONbeforeEVA	acq_US_unple_masked	acq45_masked	5	14	400	1	300	300	0	0	427	50	0	0	0	0	0	1	blank2r.bmp	0	1	+	0	3	B3r.bmp	492	1	blank2r.bmp	786	1	BMVZ	786	1	blank2r.bmp	866	2	schroff	866	1	!	1239	1	!	1332	0	0	0	0	0	0	0	0	0	0	0	0	0	0	0	0	0	0	0	0	0	0	0	0	0	0	0
013119	11:21:58	11:31:04	545228	5.0.10.0	4_exp_AWA_CON_EVA_AMP	103	Rpleas_acq	Oppo	Rpleas	Bmasked	CS_B	2pleas	distractor2	CONbeforeEVA	acq_US_unple_masked	acq45_masked	5	15	400	0	300	300	0	0	601	50	0	0	0	0	0	1	blank2r.bmp	0	1	+	0	1	B1r.bmp	492	1	blank2r.bmp	786	1	BMVZ	786	1	blank2r.bmp	866	1	tot	866	1	!	1239	1	!	-1	0	0	0	0	0	0	0	0	0	0	0	0	0	0	0	0	0	0	0	0	0	0	0	0	0	0	0
013119	11:21:58	11:31:06	547400	5.0.10.0	4_exp_AWA_CON_EVA_AMP	103	Rpleas_acq	Oppo	Rpleas	Bmasked	CS_B	2pleas	distractor2	CONbeforeEVA	acq_US_unple_masked	acq45_masked	5	16	400	1	300	300	0	0	364	50	0	0	0	0	0	1	blank2r.bmp	0	1	+	0	6	C2r.bmp	492	1	blank2r.bmp	786	1	BMVZ	786	1	blank2r.bmp	866	3	lasch	866	1	!	1239	1	!	1266	0	0	0	0	0	0	0	0	0	0	0	0	0	0	0	0	0	0	0	0	0	0	0	0	0	0	0
013119	11:21:58	11:31:08	549480	5.0.10.0	4_exp_AWA_CON_EVA_AMP	103	Rpleas_acq	Oppo	Rpleas	Bmasked	CS_B	2pleas	distractor2	CONbeforeEVA	acq_US_pleas_masked	acq45_masked	5	17	400	0	300	300	0	0	305	50	0	1	0	0	0	1	blank2r.bmp	0	1	+	0	3	B3r.bmp	492	1	blank2r.bmp	786	1	GKQX	786	1	blank2r.bmp	866	6	fair	866	1	!	-1	1	!	-1	0	0	0	0	0	0	0	0	0	0	0	0	0	0	0	0	0	0	0	0	0	0	0	0	0	0	0
013119	11:21:58	11:31:11	552119	5.0.10.0	4_exp_AWA_CON_EVA_AMP	103	Rpleas_acq	Oppo	Rpleas	Bmasked	CS_B	2pleas	distractor2	CONbeforeEVA	acq_US_pleas_masked	acq45_masked	5	18	400	0	300	300	0	0	860	50	0	1	0	0	0	1	blank2r.bmp	0	1	+	0	7	C3r.bmp	492	1	blank2r.bmp	786	1	GKQX	786	1	blank2r.bmp	866	1	treu	866	1	!	1239	1	!	-1	0	0	0	0	0	0	0	0	0	0	0	0	0	0	0	0	0	0	0	0	0	0	0	0	0	0	0
013119	11:21:58	11:31:13	554224	5.0.10.0	4_exp_AWA_CON_EVA_AMP	103	Rpleas_acq	Oppo	Rpleas	Bmasked	CS_B	2pleas	distractor2	CONbeforeEVA	acq_US_unple_masked	acq45_masked	5	19	400	0	300	300	0	0	317	50	0	0	0	0	0	1	blank2r.bmp	0	1	+	0	6	C2r.bmp	492	1	blank2r.bmp	786	1	BMVZ	786	1	blank2r.bmp	866	5	strafen	866	1	!	-1	1	!	-1	0	0	0	0	0	0	0	0	0	0	0	0	0	0	0	0	0	0	0	0	0	0	0	0	0	0	0
013119	11:21:58	11:31:15	556290	5.0.10.0	4_exp_AWA_CON_EVA_AMP	103	Rpleas_acq	Oppo	Rpleas	Bmasked	CS_B	2pleas	distractor2	CONbeforeEVA	acq_US_unple_masked	acq45_masked	5	20	400	0	300	300	0	0	271	50	0	0	0	0	0	1	blank2r.bmp	0	1	+	0	4	B4r.bmp	492	1	blank2r.bmp	786	1	BMVZ	786	1	blank2r.bmp	866	6	faul	866	1	!	-1	1	!	-1	0	0	0	0	0	0	0	0	0	0	0	0	0	0	0	0	0	0	0	0	0	0	0	0	0	0	0
013119	11:21:58	11:31:17	558503	5.0.10.0	4_exp_AWA_CON_EVA_AMP	103	Rpleas_acq	Oppo	Rpleas	Bmasked	CS_B	2pleas	distractor2	CONbeforeEVA	acq_US_pleas_masked	acq45_masked	5	21	400	1	300	300	0	0	403	50	0	1	0	0	0	1	blank2r.bmp	0	1	+	0	5	C1r.bmp	492	1	blank2r.bmp	786	1	GKQX	786	1	blank2r.bmp	866	4	retten	866	1	!	1239	1	!	1306	0	0	0	0	0	0	0	0	0	0	0	0	0	0	0	0	0	0	0	0	0	0	0	0	0	0	0
013119	11:21:58	11:31:20	560648	5.0.10.0	4_exp_AWA_CON_EVA_AMP	103	Rpleas_acq	Oppo	Rpleas	Bmasked	CS_B	2pleas	distractor2	CONbeforeEVA	acq_US_unple_masked	acq45_masked	5	22	400	1	300	300	0	0	356	50	0	0	0	0	0	1	blank2r.bmp	0	1	+	0	8	C4r.bmp	492	1	blank2r.bmp	786	1	BMVZ	786	1	blank2r.bmp	866	4	rächen	866	1	!	1239	1	!	1252	0	0	0	0	0	0	0	0	0	0	0	0	0	0	0	0	0	0	0	0	0	0	0	0	0	0	0
013119	11:21:58	11:31:22	562727	5.0.10.0	4_exp_AWA_CON_EVA_AMP	103	Rpleas_acq	Oppo	Rpleas	Bmasked	CS_B	2pleas	distractor2	CONbeforeEVA	acq_US_unple_masked	acq45_masked	5	23	400	0	300	300	0	0	299	50	0	0	0	0	0	1	blank2r.bmp	0	1	+	0	2	B2r.bmp	492	1	blank2r.bmp	786	1	BMVZ	786	1	blank2r.bmp	866	3	lasch	866	1	!	-1	1	!	-1	0	0	0	0	0	0	0	0	0	0	0	0	0	0	0	0	0	0	0	0	0	0	0	0	0	0	0
013119	11:21:58	11:31:24	564900	5.0.10.0	4_exp_AWA_CON_EVA_AMP	103	Rpleas_acq	Oppo	Rpleas	Bmasked	CS_B	2pleas	distractor2	CONbeforeEVA	acq_US_pleas_masked	acq45_masked	5	24	400	1	300	300	0	0	363	50	0	1	0	0	0	1	blank2r.bmp	0	1	+	0	1	B1r.bmp	492	1	blank2r.bmp	786	1	GKQX	786	1	blank2r.bmp	866	5	spielen	866	1	!	1239	1	!	1266	0	0	0	0	0	0	0	0	0	0	0	0	0	0	0	0	0	0	0	0	0	0	0	0	0	0	0
013119	11:21:58	11:31:26	567099	5.0.10.0	4_exp_AWA_CON_EVA_AMP	103	Rpleas_acq	Oppo	Rpleas	Bmasked	CS_B	2pleas	distractor2	CONbeforeEVA	acq_US_pleas_masked	acq45_masked	5	25	400	1	300	300	0	0	403	50	0	1	0	0	0	1	blank2r.bmp	0	1	+	0	3	B3r.bmp	492	1	blank2r.bmp	786	1	GKQX	786	1	blank2r.bmp	866	2	schlau	866	1	!	1239	1	!	1306	0	0	0	0	0	0	0	0	0	0	0	0	0	0	0	0	0	0	0	0	0	0	0	0	0	0	0
013119	11:21:58	11:31:28	569565	5.0.10.0	4_exp_AWA_CON_EVA_AMP	103	Rpleas_acq	Oppo	Rpleas	Bmasked	CS_B	2pleas	distractor2	CONbeforeEVA	acq_US_pleas_masked	acq45_masked	5	26	400	0	300	300	0	0	700	50	0	1	0	0	0	1	blank2r.bmp	0	1	+	0	7	C3r.bmp	492	1	blank2r.bmp	786	1	GKQX	786	1	blank2r.bmp	866	3	loyal	866	1	!	1239	1	!	-1	0	0	0	0	0	0	0	0	0	0	0	0	0	0	0	0	0	0	0	0	0	0	0	0	0	0	0
013119	11:21:58	11:31:31	571737	5.0.10.0	4_exp_AWA_CON_EVA_AMP	103	Rpleas_acq	Oppo	Rpleas	Bmasked	CS_B	2pleas	distractor2	CONbeforeEVA	acq_US_pleas_masked	acq45_masked	5	27	400	1	300	300	0	0	369	50	0	1	0	0	0	1	blank2r.bmp	0	1	+	0	8	C4r.bmp	492	1	blank2r.bmp	786	1	GKQX	786	1	blank2r.bmp	866	6	fair	866	1	!	1239	1	!	1266	0	0	0	0	0	0	0	0	0	0	0	0	0	0	0	0	0	0	0	0	0	0	0	0	0	0	0
013119	11:21:58	11:31:33	573910	5.0.10.0	4_exp_AWA_CON_EVA_AMP	103	Rpleas_acq	Oppo	Rpleas	Bmasked	CS_B	2pleas	distractor2	CONbeforeEVA	acq_US_pleas_masked	acq45_masked	5	28	400	1	300	300	0	0	382	50	0	1	0	0	0	1	blank2r.bmp	0	1	+	0	1	B1r.bmp	492	1	blank2r.bmp	786	1	GKQX	786	1	blank2r.bmp	866	4	retten	866	1	!	1239	1	!	1279	0	0	0	0	0	0	0	0	0	0	0	0	0	0	0	0	0	0	0	0	0	0	0	0	0	0	0
013119	11:21:58	11:31:35	576442	5.0.10.0	4_exp_AWA_CON_EVA_AMP	103	Rpleas_acq	Oppo	Rpleas	Bmasked	CS_B	2pleas	distractor2	CONbeforeEVA	acq_US_unple_masked	acq45_masked	5	29	400	0	300	300	0	0	750	50	0	0	0	0	0	1	blank2r.bmp	0	1	+	0	6	C2r.bmp	492	1	blank2r.bmp	786	1	BMVZ	786	1	blank2r.bmp	866	2	schroff	866	1	!	1239	1	!	-1	0	0	0	0	0	0	0	0	0	0	0	0	0	0	0	0	0	0	0	0	0	0	0	0	0	0	0
013119	11:21:58	11:31:38	578987	5.0.10.0	4_exp_AWA_CON_EVA_AMP	103	Rpleas_acq	Oppo	Rpleas	Bmasked	CS_B	2pleas	distractor2	CONbeforeEVA	acq_US_pleas_masked	acq45_masked	5	30	400	0	300	300	0	0	767	50	0	1	0	0	0	1	blank2r.bmp	0	1	+	0	2	B2r.bmp	492	1	blank2r.bmp	786	1	GKQX	786	1	blank2r.bmp	866	2	schlau	866	1	!	1239	1	!	-1	0	0	0	0	0	0	0	0	0	0	0	0	0	0	0	0	0	0	0	0	0	0	0	0	0	0	0
013119	11:21:58	11:31:40	581053	5.0.10.0	4_exp_AWA_CON_EVA_AMP	103	Rpleas_acq	Oppo	Rpleas	Bmasked	CS_B	2pleas	distractor2	CONbeforeEVA	acq_US_unple_masked	acq45_masked	5	31	400	0	300	300	0	0	281	50	0	0	0	0	0	1	blank2r.bmp	0	1	+	0	5	C1r.bmp	492	1	blank2r.bmp	786	1	BMVZ	786	1	blank2r.bmp	866	4	rächen	866	1	!	-1	1	!	-1	0	0	0	0	0	0	0	0	0	0	0	0	0	0	0	0	0	0	0	0	0	0	0	0	0	0	0
013119	11:21:58	11:31:42	583172	5.0.10.0	4_exp_AWA_CON_EVA_AMP	103	Rpleas_acq	Oppo	Rpleas	Bmasked	CS_B	2pleas	distractor2	CONbeforeEVA	acq_US_unple_masked	acq45_masked	5	32	400	0	300	300	0	0	333	50	0	0	0	0	0	1	blank2r.bmp	0	1	+	0	4	B4r.bmp	492	1	blank2r.bmp	786	1	BMVZ	786	1	blank2r.bmp	866	6	faul	866	1	!	-1	1	!	-1	0	0	0	0	0	0	0	0	0	0	0	0	0	0	0	0	0	0	0	0	0	0	0	0	0	0	0
013119	11:21:58	11:31:44	585332	5.0.10.0	4_exp_AWA_CON_EVA_AMP	103	Rpleas_acq	Oppo	Rpleas	Bmasked	CS_B	2pleas	distractor2	CONbeforeEVA	acq_US_unple_masked	acq45_masked	5	33	400	1	300	300	0	0	353	50	0	0	0	0	0	1	blank2r.bmp	0	1	+	0	7	C3r.bmp	492	1	blank2r.bmp	786	1	BMVZ	786	1	blank2r.bmp	866	1	tot	866	1	!	1239	1	!	1252	0	0	0	0	0	0	0	0	0	0	0	0	0	0	0	0	0	0	0	0	0	0	0	0	0	0	0
013119	11:21:58	11:31:47	587771	5.0.10.0	4_exp_AWA_CON_EVA_AMP	103	Rpleas_acq	Oppo	Rpleas	Bmasked	CS_B	2pleas	distractor2	CONbeforeEVA	acq_US_pleas_masked	acq45_masked	5	34	400	0	300	300	0	0	674	50	0	1	0	0	0	1	blank2r.bmp	0	1	+	0	8	C4r.bmp	492	1	blank2r.bmp	786	1	GKQX	786	1	blank2r.bmp	866	5	spielen	866	1	!	1239	1	!	-1	0	0	0	0	0	0	0	0	0	0	0	0	0	0	0	0	0	0	0	0	0	0	0	0	0	0	0
013119	11:21:58	11:31:49	589930	5.0.10.0	4_exp_AWA_CON_EVA_AMP	103	Rpleas_acq	Oppo	Rpleas	Bmasked	CS_B	2pleas	distractor2	CONbeforeEVA	acq_US_unple_masked	acq45_masked	5	35	400	1	300	300	0	0	346	50	0	0	0	0	0	1	blank2r.bmp	0	1	+	0	1	B1r.bmp	492	1	blank2r.bmp	786	1	BMVZ	786	1	blank2r.bmp	866	5	strafen	866	1	!	1239	1	!	1252	0	0	0	0	0	0	0	0	0	0	0	0	0	0	0	0	0	0	0	0	0	0	0	0	0	0	0
013119	11:21:58	11:31:51	592395	5.0.10.0	4_exp_AWA_CON_EVA_AMP	103	Rpleas_acq	Oppo	Rpleas	Bmasked	CS_B	2pleas	distractor2	CONbeforeEVA	acq_US_pleas_masked	acq45_masked	5	36	400	0	300	300	0	0	683	50	0	1	0	0	0	1	blank2r.bmp	0	1	+	0	2	B2r.bmp	492	1	blank2r.bmp	786	1	GKQX	786	1	blank2r.bmp	866	1	treu	866	1	!	1239	1	!	-1	0	0	0	0	0	0	0	0	0	0	0	0	0	0	0	0	0	0	0	0	0	0	0	0	0	0	0
013119	11:21:58	11:33:08	668924	5.0.10.0	4_exp_AWA_CON_EVA_AMP	103	Rpleas_acq	Oppo	Lpleas	Bmasked	CS_B	2pleas	distractor2	CONbeforeEVA	cond_US_pleas_123_masked_CS1	condtest_masked_1	8	1	400	0	300	300	0	0	6102	50	0	0	0	0	0	1	blank2r.bmp	0	1	+	0	6	C2r.bmp	492	1	blank2r.bmp	786	1	BMVZ	786	1	blank2r.bmp	866	1	treu	866	1	!	1239	1	!	-1	0	0	0	0	0	0	0	0	0	0	0	0	0	0	0	0	0	0	0	0	0	0	0	0	0	0	0
013119	11:21:58	11:33:10	671163	5.0.10.0	4_exp_AWA_CON_EVA_AMP	103	Rpleas_acq	Oppo	Lpleas	Bmasked	CS_B	2pleas	distractor2	CONbeforeEVA	cond_new_pleas_456_masked_CS1	condtest_masked_1	8	2	400	1	300	300	0	0	431	46	0	1	0	0	0	1	blank2r.bmp	0	1	+	0	4	B4r.bmp	492	1	blank2r.bmp	786	1	BMVZ	786	1	blank2r.bmp	866	1	ehrlich	866	1	!	1239	1	!	1332	0	0	0	0	0	0	0	0	0	0	0	0	0	0	0	0	0	0	0	0	0	0	0	0	0	0	0
013119	11:21:58	11:33:12	673469	5.0.10.0	4_exp_AWA_CON_EVA_AMP	103	Rpleas_acq	Oppo	Lpleas	Bmasked	CS_B	2pleas	distractor2	CONbeforeEVA	cond_new_pleas_456_masked_CS2	condtest_masked_1	8	3	400	0	300	300	0	0	534	46	0	1	0	0	0	1	blank2r.bmp	0	1	+	0	5	C1r.bmp	492	1	blank2r.bmp	786	1	GKQX	786	1	blank2r.bmp	866	2	helfen	866	1	!	1239	1	!	-1	0	0	0	0	0	0	0	0	0	0	0	0	0	0	0	0	0	0	0	0	0	0	0	0	0	0	0
013119	11:21:58	11:33:15	675761	5.0.10.0	4_exp_AWA_CON_EVA_AMP	103	Rpleas_acq	Oppo	Lpleas	Bmasked	CS_B	2pleas	distractor2	CONbeforeEVA	cond_new_unple_456_masked_CS1	condtest_masked_1	8	4	400	0	300	300	0	0	500	50	0	1	0	0	0	1	blank2r.bmp	0	1	+	0	3	B3r.bmp	492	1	blank2r.bmp	786	1	BMVZ	786	1	blank2r.bmp	866	3	schlecht	866	1	!	1239	1	!	-1	0	0	0	0	0	0	0	0	0	0	0	0	0	0	0	0	0	0	0	0	0	0	0	0	0	0	0
013119	11:21:58	11:33:17	677960	5.0.10.0	4_exp_AWA_CON_EVA_AMP	103	Rpleas_acq	Oppo	Lpleas	Bmasked	CS_B	2pleas	distractor2	CONbeforeEVA	cond_US_unple_123_masked_CS1	condtest_masked_1	8	5	400	1	300	300	0	0	380	50	0	1	0	0	0	1	blank2r.bmp	0	1	+	0	6	C2r.bmp	492	1	blank2r.bmp	786	1	BMVZ	786	1	blank2r.bmp	866	1	tot	866	1	!	1239	1	!	1279	0	0	0	0	0	0	0	0	0	0	0	0	0	0	0	0	0	0	0	0	0	0	0	0	0	0	0
013119	11:21:58	11:33:19	680159	5.0.10.0	4_exp_AWA_CON_EVA_AMP	103	Rpleas_acq	Oppo	Lpleas	Bmasked	CS_B	2pleas	distractor2	CONbeforeEVA	cond_US_pleas_123_masked_CS2	condtest_masked_1	8	6	400	1	300	300	0	0	389	46	0	1	0	0	0	1	blank2r.bmp	0	1	+	0	7	C3r.bmp	492	1	blank2r.bmp	786	1	GKQX	786	1	blank2r.bmp	866	2	schlau	866	1	!	1239	1	!	1292	0	0	0	0	0	0	0	0	0	0	0	0	0	0	0	0	0	0	0	0	0	0	0	0	0	0	0
013119	11:21:58	11:33:21	682345	5.0.10.0	4_exp_AWA_CON_EVA_AMP	103	Rpleas_acq	Oppo	Lpleas	Bmasked	CS_B	2pleas	distractor2	CONbeforeEVA	cond_new_unple_456_masked_CS2	condtest_masked_1	8	7	400	1	300	300	0	0	382	46	0	0	0	0	0	1	blank2r.bmp	0	1	+	0	1	B1r.bmp	492	1	blank2r.bmp	786	1	GKQX	786	1	blank2r.bmp	866	1	eitel	866	1	!	1239	1	!	1279	0	0	0	0	0	0	0	0	0	0	0	0	0	0	0	0	0	0	0	0	0	0	0	0	0	0	0
013119	11:21:58	11:33:23	684571	5.0.10.0	4_exp_AWA_CON_EVA_AMP	103	Rpleas_acq	Oppo	Lpleas	Bmasked	CS_B	2pleas	distractor2	CONbeforeEVA	cond_US_unple_123_masked_CS2	condtest_masked_1	8	8	400	1	300	300	0	0	429	50	0	1	0	0	0	1	blank2r.bmp	0	1	+	0	2	B2r.bmp	492	1	blank2r.bmp	786	1	GKQX	786	1	blank2r.bmp	866	2	schroff	866	1	!	1239	1	!	1332	0	0	0	0	0	0	0	0	0	0	0	0	0	0	0	0	0	0	0	0	0	0	0	0	0	0	0
013119	11:21:58	11:33:34	694633	5.0.10.0	4_exp_AWA_CON_EVA_AMP	103	Rpleas_acq	Oppo	Lpleas	Bmasked	CS_B	2pleas	distractor2	CONbeforeEVA	cond_US_pleas_123_masked_CS2	condtest_masked_2	9	1	400	1	300	300	0	0	351	46	0	1	0	0	0	1	blank2r.bmp	0	1	+	0	5	C1r.bmp	492	1	blank2r.bmp	786	1	GKQX	786	1	blank2r.bmp	866	3	loyal	866	1	!	1239	1	!	1252	0	0	0	0	0	0	0	0	0	0	0	0	0	0	0	0	0	0	0	0	0	0	0	0	0	0	0
013119	11:21:58	11:33:36	696792	5.0.10.0	4_exp_AWA_CON_EVA_AMP	103	Rpleas_acq	Oppo	Lpleas	Bmasked	CS_B	2pleas	distractor2	CONbeforeEVA	cond_US_unple_123_masked_CS2	condtest_masked_2	9	2	400	1	300	300	0	0	370	46	0	0	0	0	0	1	blank2r.bmp	0	1	+	0	8	C4r.bmp	492	1	blank2r.bmp	786	1	GKQX	786	1	blank2r.bmp	866	3	lasch	866	1	!	1239	1	!	1266	0	0	0	0	0	0	0	0	0	0	0	0	0	0	0	0	0	0	0	0	0	0	0	0	0	0	0
013119	11:21:58	11:33:38	699045	5.0.10.0	4_exp_AWA_CON_EVA_AMP	103	Rpleas_acq	Oppo	Lpleas	Bmasked	CS_B	2pleas	distractor2	CONbeforeEVA	cond_US_pleas_123_masked_CS1	condtest_masked_2	9	3	400	0	300	300	0	0	479	46	0	1	0	0	0	1	blank2r.bmp	0	1	+	0	4	B4r.bmp	492	1	blank2r.bmp	786	1	BMVZ	786	1	blank2r.bmp	866	2	schlau	866	1	!	1239	1	!	-1	0	0	0	0	0	0	0	0	0	0	0	0	0	0	0	0	0	0	0	0	0	0	0	0	0	0	0
013119	11:21:58	11:33:40	701244	5.0.10.0	4_exp_AWA_CON_EVA_AMP	103	Rpleas_acq	Oppo	Lpleas	Bmasked	CS_B	2pleas	distractor2	CONbeforeEVA	cond_new_pleas_456_masked_CS2	condtest_masked_2	9	4	400	1	300	300	0	0	392	46	0	1	0	0	0	1	blank2r.bmp	0	1	+	0	3	B3r.bmp	492	1	blank2r.bmp	786	1	GKQX	786	1	blank2r.bmp	866	3	schön	866	1	!	1239	1	!	1292	0	0	0	0	0	0	0	0	0	0	0	0	0	0	0	0	0	0	0	0	0	0	0	0	0	0	0
013119	11:21:58	11:33:42	703496	5.0.10.0	4_exp_AWA_CON_EVA_AMP	103	Rpleas_acq	Oppo	Lpleas	Bmasked	CS_B	2pleas	distractor2	CONbeforeEVA	cond_new_unple_456_masked_CS2	condtest_masked_2	9	5	400	0	300	300	0	0	489	50	0	1	0	0	0	1	blank2r.bmp	0	1	+	0	6	C2r.bmp	492	1	blank2r.bmp	786	1	GKQX	786	1	blank2r.bmp	866	2	hindern	866	1	!	1239	1	!	-1	0	0	0	0	0	0	0	0	0	0	0	0	0	0	0	0	0	0	0	0	0	0	0	0	0	0	0
013119	11:21:58	11:33:45	705655	5.0.10.0	4_exp_AWA_CON_EVA_AMP	103	Rpleas_acq	Oppo	Lpleas	Bmasked	CS_B	2pleas	distractor2	CONbeforeEVA	cond_new_unple_456_masked_CS1	condtest_masked_2	9	6	400	1	300	300	0	0	357	50	0	1	0	0	0	1	blank2r.bmp	0	1	+	0	7	C3r.bmp	492	1	blank2r.bmp	786	1	BMVZ	786	1	blank2r.bmp	866	3	schlecht	866	1	!	1239	1	!	1252	0	0	0	0	0	0	0	0	0	0	0	0	0	0	0	0	0	0	0	0	0	0	0	0	0	0	0
013119	11:21:58	11:33:47	707828	5.0.10.0	4_exp_AWA_CON_EVA_AMP	103	Rpleas_acq	Oppo	Lpleas	Bmasked	CS_B	2pleas	distractor2	CONbeforeEVA	cond_US_pleas_123_masked_CS2	condtest_masked_2	9	7	400	1	300	300	0	0	378	46	0	1	0	0	0	1	blank2r.bmp	0	1	+	0	2	B2r.bmp	492	1	blank2r.bmp	786	1	GKQX	786	1	blank2r.bmp	866	3	loyal	866	1	!	1239	1	!	1279	0	0	0	0	0	0	0	0	0	0	0	0	0	0	0	0	0	0	0	0	0	0	0	0	0	0	0
013119	11:21:58	11:33:49	710040	5.0.10.0	4_exp_AWA_CON_EVA_AMP	103	Rpleas_acq	Oppo	Lpleas	Bmasked	CS_B	2pleas	distractor2	CONbeforeEVA	cond_new_unple_456_masked_CS1	condtest_masked_2	9	8	400	1	300	300	0	0	414	50	0	1	0	0	0	1	blank2r.bmp	0	1	+	0	1	B1r.bmp	492	1	blank2r.bmp	786	1	BMVZ	786	1	blank2r.bmp	866	1	eitel	866	1	!	1239	1	!	1319	0	0	0	0	0	0	0	0	0	0	0	0	0	0	0	0	0	0	0	0	0	0	0	0	0	0	0
013119	11:21:58	11:33:51	712413	5.0.10.0	4_exp_AWA_CON_EVA_AMP	103	Rpleas_acq	Oppo	Lpleas	Bmasked	CS_B	2pleas	distractor2	CONbeforeEVA	cond_new_unple_456_masked_CS2	condtest_masked_2	9	9	400	0	300	300	0	0	606	50	0	1	0	0	0	1	blank2r.bmp	0	1	+	0	8	C4r.bmp	492	1	blank2r.bmp	786	1	GKQX	786	1	blank2r.bmp	866	2	hindern	866	1	!	1239	1	!	-1	0	0	0	0	0	0	0	0	0	0	0	0	0	0	0	0	0	0	0	0	0	0	0	0	0	0	0
013119	11:21:58	11:33:54	714678	5.0.10.0	4_exp_AWA_CON_EVA_AMP	103	Rpleas_acq	Oppo	Lpleas	Bmasked	CS_B	2pleas	distractor2	CONbeforeEVA	cond_new_unple_456_masked_CS2	condtest_masked_2	9	10	400	0	300	300	0	0	479	50	0	1	0	0	0	1	blank2r.bmp	0	1	+	0	5	C1r.bmp	492	1	blank2r.bmp	786	1	GKQX	786	1	blank2r.bmp	866	2	hindern	866	1	!	1239	1	!	-1	0	0	0	0	0	0	0	0	0	0	0	0	0	0	0	0	0	0	0	0	0	0	0	0	0	0	0
013119	11:21:58	11:33:57	718490	5.0.10.0	4_exp_AWA_CON_EVA_AMP	103	Rpleas_acq	Oppo	Lpleas	Bmasked	CS_B	2pleas	distractor2	CONbeforeEVA	cond_US_unple_123_masked_CS1	condtest_masked_2	9	11	400	0	300	300	0	0	2037	50	0	1	0	0	0	1	blank2r.bmp	0	1	+	0	4	B4r.bmp	492	1	blank2r.bmp	786	1	BMVZ	786	1	blank2r.bmp	866	3	lasch	866	1	!	1239	1	!	-1	0	0	0	0	0	0	0	0	0	0	0	0	0	0	0	0	0	0	0	0	0	0	0	0	0	0	0
013119	11:21:58	11:34:00	720782	5.0.10.0	4_exp_AWA_CON_EVA_AMP	103	Rpleas_acq	Oppo	Lpleas	Bmasked	CS_B	2pleas	distractor2	CONbeforeEVA	cond_US_unple_123_masked_CS2	condtest_masked_2	9	12	400	0	300	300	0	0	499	50	0	1	0	0	0	1	blank2r.bmp	0	1	+	0	3	B3r.bmp	492	1	blank2r.bmp	786	1	GKQX	786	1	blank2r.bmp	866	2	schroff	866	1	!	1239	1	!	-1	0	0	0	0	0	0	0	0	0	0	0	0	0	0	0	0	0	0	0	0	0	0	0	0	0	0	0
013119	11:21:58	11:34:02	722955	5.0.10.0	4_exp_AWA_CON_EVA_AMP	103	Rpleas_acq	Oppo	Lpleas	Bmasked	CS_B	2pleas	distractor2	CONbeforeEVA	cond_US_pleas_123_masked_CS1	condtest_masked_2	9	13	400	1	300	300	0	0	356	50	0	0	0	0	0	1	blank2r.bmp	0	1	+	0	2	B2r.bmp	492	1	blank2r.bmp	786	1	BMVZ	786	1	blank2r.bmp	866	1	treu	866	1	!	1239	1	!	1252	0	0	0	0	0	0	0	0	0	0	0	0	0	0	0	0	0	0	0	0	0	0	0	0	0	0	0
013119	11:21:58	11:34:04	725047	5.0.10.0	4_exp_AWA_CON_EVA_AMP	103	Rpleas_acq	Oppo	Lpleas	Bmasked	CS_B	2pleas	distractor2	CONbeforeEVA	cond_US_unple_123_masked_CS2	condtest_masked_2	9	14	400	0	300	300	0	0	324	50	0	1	0	0	0	1	blank2r.bmp	0	1	+	0	1	B1r.bmp	492	1	blank2r.bmp	786	1	GKQX	786	1	blank2r.bmp	866	1	tot	866	1	!	-1	1	!	-1	0	0	0	0	0	0	0	0	0	0	0	0	0	0	0	0	0	0	0	0	0	0	0	0	0	0	0
013119	11:21:58	11:34:06	727153	5.0.10.0	4_exp_AWA_CON_EVA_AMP	103	Rpleas_acq	Oppo	Lpleas	Bmasked	CS_B	2pleas	distractor2	CONbeforeEVA	cond_new_unple_456_masked_CS2	condtest_masked_2	9	15	400	0	300	300	0	0	328	50	0	1	0	0	0	1	blank2r.bmp	0	1	+	0	5	C1r.bmp	492	1	blank2r.bmp	786	1	GKQX	786	1	blank2r.bmp	866	3	schlecht	866	1	!	-1	1	!	-1	0	0	0	0	0	0	0	0	0	0	0	0	0	0	0	0	0	0	0	0	0	0	0	0	0	0	0
013119	11:21:58	11:34:08	729232	5.0.10.0	4_exp_AWA_CON_EVA_AMP	103	Rpleas_acq	Oppo	Lpleas	Bmasked	CS_B	2pleas	distractor2	CONbeforeEVA	cond_new_pleas_456_masked_CS2	condtest_masked_2	9	16	400	0	300	300	0	0	304	50	0	0	0	0	0	1	blank2r.bmp	0	1	+	0	4	B4r.bmp	492	1	blank2r.bmp	786	1	GKQX	786	1	blank2r.bmp	866	2	helfen	866	1	!	-1	1	!	-1	0	0	0	0	0	0	0	0	0	0	0	0	0	0	0	0	0	0	0	0	0	0	0	0	0	0	0
013119	11:21:58	11:34:10	731418	5.0.10.0	4_exp_AWA_CON_EVA_AMP	103	Rpleas_acq	Oppo	Lpleas	Bmasked	CS_B	2pleas	distractor2	CONbeforeEVA	cond_US_pleas_123_masked_CS1	condtest_masked_2	9	17	400	1	300	300	0	0	384	46	0	1	0	0	0	1	blank2r.bmp	0	1	+	0	7	C3r.bmp	492	1	blank2r.bmp	786	1	BMVZ	786	1	blank2r.bmp	866	1	treu	866	1	!	1239	1	!	1279	0	0	0	0	0	0	0	0	0	0	0	0	0	0	0	0	0	0	0	0	0	0	0	0	0	0	0
013119	11:21:58	11:34:13	733697	5.0.10.0	4_exp_AWA_CON_EVA_AMP	103	Rpleas_acq	Oppo	Lpleas	Bmasked	CS_B	2pleas	distractor2	CONbeforeEVA	cond_new_pleas_456_masked_CS1	condtest_masked_2	9	18	400	0	300	300	0	0	515	46	0	1	0	0	0	1	blank2r.bmp	0	1	+	0	8	C4r.bmp	492	1	blank2r.bmp	786	1	BMVZ	786	1	blank2r.bmp	866	1	ehrlich	866	1	!	1239	1	!	-1	0	0	0	0	0	0	0	0	0	0	0	0	0	0	0	0	0	0	0	0	0	0	0	0	0	0	0
013119	11:21:58	11:34:15	735923	5.0.10.0	4_exp_AWA_CON_EVA_AMP	103	Rpleas_acq	Oppo	Lpleas	Bmasked	CS_B	2pleas	distractor2	CONbeforeEVA	cond_new_pleas_456_masked_CS1	condtest_masked_2	9	19	400	1	300	300	0	0	419	50	0	0	0	0	0	1	blank2r.bmp	0	1	+	0	6	C2r.bmp	492	1	blank2r.bmp	786	1	BMVZ	786	1	blank2r.bmp	866	3	schön	866	1	!	1239	1	!	1319	0	0	0	0	0	0	0	0	0	0	0	0	0	0	0	0	0	0	0	0	0	0	0	0	0	0	0
013119	11:21:58	11:34:17	738015	5.0.10.0	4_exp_AWA_CON_EVA_AMP	103	Rpleas_acq	Oppo	Lpleas	Bmasked	CS_B	2pleas	distractor2	CONbeforeEVA	cond_new_pleas_456_masked_CS1	condtest_masked_2	9	20	400	0	300	300	0	0	329	50	0	0	0	0	0	1	blank2r.bmp	0	1	+	0	3	B3r.bmp	492	1	blank2r.bmp	786	1	BMVZ	786	1	blank2r.bmp	866	1	ehrlich	866	1	!	-1	1	!	-1	0	0	0	0	0	0	0	0	0	0	0	0	0	0	0	0	0	0	0	0	0	0	0	0	0	0	0
013119	11:21:58	11:34:19	740028	5.0.10.0	4_exp_AWA_CON_EVA_AMP	103	Rpleas_acq	Oppo	Lpleas	Bmasked	CS_B	2pleas	distractor2	CONbeforeEVA	cond_US_unple_123_masked_CS1	condtest_masked_2	9	21	400	0	300	300	0	0	226	50	0	1	0	0	0	1	blank2r.bmp	0	1	+	0	5	C1r.bmp	492	1	blank2r.bmp	786	1	BMVZ	786	1	blank2r.bmp	866	1	tot	866	1	!	-1	1	!	-1	0	0	0	0	0	0	0	0	0	0	0	0	0	0	0	0	0	0	0	0	0	0	0	0	0	0	0
013119	11:21:58	11:34:21	742014	5.0.10.0	4_exp_AWA_CON_EVA_AMP	103	Rpleas_acq	Oppo	Lpleas	Bmasked	CS_B	2pleas	distractor2	CONbeforeEVA	cond_new_pleas_456_masked_CS2	condtest_masked_2	9	22	400	0	300	300	0	0	211	50	0	0	0	0	0	1	blank2r.bmp	0	1	+	0	8	C4r.bmp	492	1	blank2r.bmp	786	1	GKQX	786	1	blank2r.bmp	866	3	schön	866	1	!	-1	1	!	-1	0	0	0	0	0	0	0	0	0	0	0	0	0	0	0	0	0	0	0	0	0	0	0	0	0	0	0
013119	11:21:58	11:34:23	744119	5.0.10.0	4_exp_AWA_CON_EVA_AMP	103	Rpleas_acq	Oppo	Lpleas	Bmasked	CS_B	2pleas	distractor2	CONbeforeEVA	cond_US_unple_123_masked_CS2	condtest_masked_2	9	23	400	0	300	300	0	0	324	46	0	0	0	0	0	1	blank2r.bmp	0	1	+	0	7	C3r.bmp	492	1	blank2r.bmp	786	1	GKQX	786	1	blank2r.bmp	866	3	lasch	866	1	!	-1	1	!	-1	0	0	0	0	0	0	0	0	0	0	0	0	0	0	0	0	0	0	0	0	0	0	0	0	0	0	0
013119	11:21:58	11:34:27	747718	5.0.10.0	4_exp_AWA_CON_EVA_AMP	103	Rpleas_acq	Oppo	Lpleas	Bmasked	CS_B	2pleas	distractor2	CONbeforeEVA	cond_US_unple_123_masked_CS1	condtest_masked_2	9	24	400	0	300	300	0	0	1819	50	0	1	0	0	0	1	blank2r.bmp	0	1	+	0	2	B2r.bmp	492	1	blank2r.bmp	786	1	BMVZ	786	1	blank2r.bmp	866	2	schroff	866	1	!	1239	1	!	-1	0	0	0	0	0	0	0	0	0	0	0	0	0	0	0	0	0	0	0	0	0	0	0	0	0	0	0
013119	11:21:58	11:34:33	753969	5.0.10.0	4_exp_AWA_CON_EVA_AMP	103	Rpleas_acq	Oppo	Lpleas	Bmasked	CS_B	2pleas	distractor2	CONbeforeEVA	cond_US_unple_123_masked_CS1	condtest_masked_2	9	25	400	0	300	300	0	0	4475	50	0	1	0	0	0	1	blank2r.bmp	0	1	+	0	6	C2r.bmp	492	1	blank2r.bmp	786	1	BMVZ	786	1	blank2r.bmp	866	2	schroff	866	1	!	1239	1	!	-1	0	0	0	0	0	0	0	0	0	0	0	0	0	0	0	0	0	0	0	0	0	0	0	0	0	0	0
013119	11:21:58	11:34:35	756141	5.0.10.0	4_exp_AWA_CON_EVA_AMP	103	Rpleas_acq	Oppo	Lpleas	Bmasked	CS_B	2pleas	distractor2	CONbeforeEVA	cond_new_pleas_456_masked_CS2	condtest_masked_2	9	26	400	1	300	300	0	0	369	50	0	0	0	0	0	1	blank2r.bmp	0	1	+	0	1	B1r.bmp	492	1	blank2r.bmp	786	1	GKQX	786	1	blank2r.bmp	866	2	helfen	866	1	!	1239	1	!	1266	0	0	0	0	0	0	0	0	0	0	0	0	0	0	0	0	0	0	0	0	0	0	0	0	0	0	0
013119	11:21:58	11:34:37	758220	5.0.10.0	4_exp_AWA_CON_EVA_AMP	103	Rpleas_acq	Oppo	Lpleas	Bmasked	CS_B	2pleas	distractor2	CONbeforeEVA	cond_US_pleas_123_masked_CS1	condtest_masked_2	9	27	400	0	300	300	0	0	313	50	0	0	0	0	0	1	blank2r.bmp	0	1	+	0	4	B4r.bmp	492	1	blank2r.bmp	786	1	BMVZ	786	1	blank2r.bmp	866	3	loyal	866	1	!	-1	1	!	-1	0	0	0	0	0	0	0	0	0	0	0	0	0	0	0	0	0	0	0	0	0	0	0	0	0	0	0
013119	11:21:58	11:34:40	760686	5.0.10.0	4_exp_AWA_CON_EVA_AMP	103	Rpleas_acq	Oppo	Lpleas	Bmasked	CS_B	2pleas	distractor2	CONbeforeEVA	cond_US_pleas_123_masked_CS1	condtest_masked_2	9	28	400	0	300	300	0	0	682	46	0	1	0	0	0	1	blank2r.bmp	0	1	+	0	3	B3r.bmp	492	1	blank2r.bmp	786	1	BMVZ	786	1	blank2r.bmp	866	2	schlau	866	1	!	1239	1	!	-1	0	0	0	0	0	0	0	0	0	0	0	0	0	0	0	0	0	0	0	0	0	0	0	0	0	0	0
013119	11:21:58	11:34:42	762645	5.0.10.0	4_exp_AWA_CON_EVA_AMP	103	Rpleas_acq	Oppo	Lpleas	Bmasked	CS_B	2pleas	distractor2	CONbeforeEVA	cond_US_pleas_123_masked_CS2	condtest_masked_2	9	29	400	0	300	300	0	0	181	46	0	1	0	0	0	1	blank2r.bmp	0	1	+	0	3	B3r.bmp	492	1	blank2r.bmp	786	1	GKQX	786	1	blank2r.bmp	866	2	schlau	866	1	!	-1	1	!	-1	0	0	0	0	0	0	0	0	0	0	0	0	0	0	0	0	0	0	0	0	0	0	0	0	0	0	0
013119	11:21:58	11:34:44	764911	5.0.10.0	4_exp_AWA_CON_EVA_AMP	103	Rpleas_acq	Oppo	Lpleas	Bmasked	CS_B	2pleas	distractor2	CONbeforeEVA	cond_US_pleas_123_masked_CS2	condtest_masked_2	9	30	400	0	300	300	0	0	479	46	0	1	0	0	0	1	blank2r.bmp	0	1	+	0	7	C3r.bmp	492	1	blank2r.bmp	786	1	GKQX	786	1	blank2r.bmp	866	3	loyal	866	1	!	1239	1	!	-1	0	0	0	0	0	0	0	0	0	0	0	0	0	0	0	0	0	0	0	0	0	0	0	0	0	0	0
013119	11:21:58	11:34:46	767070	5.0.10.0	4_exp_AWA_CON_EVA_AMP	103	Rpleas_acq	Oppo	Lpleas	Bmasked	CS_B	2pleas	distractor2	CONbeforeEVA	cond_new_unple_456_masked_CS2	condtest_masked_2	9	31	400	1	300	300	0	0	346	46	0	0	0	0	0	1	blank2r.bmp	0	1	+	0	1	B1r.bmp	492	1	blank2r.bmp	786	1	GKQX	786	1	blank2r.bmp	866	1	eitel	866	1	!	1239	1	!	1252	0	0	0	0	0	0	0	0	0	0	0	0	0	0	0	0	0	0	0	0	0	0	0	0	0	0	0
013119	11:21:58	11:34:48	769402	5.0.10.0	4_exp_AWA_CON_EVA_AMP	103	Rpleas_acq	Oppo	Lpleas	Bmasked	CS_B	2pleas	distractor2	CONbeforeEVA	cond_new_pleas_456_masked_CS1	condtest_masked_2	9	32	400	0	300	300	0	0	567	50	0	0	0	0	0	1	blank2r.bmp	0	1	+	0	5	C1r.bmp	492	1	blank2r.bmp	786	1	BMVZ	786	1	blank2r.bmp	866	1	ehrlich	866	1	!	1239	1	!	-1	0	0	0	0	0	0	0	0	0	0	0	0	0	0	0	0	0	0	0	0	0	0	0	0	0	0	0
013119	11:21:58	11:34:51	771668	5.0.10.0	4_exp_AWA_CON_EVA_AMP	103	Rpleas_acq	Oppo	Lpleas	Bmasked	CS_B	2pleas	distractor2	CONbeforeEVA	cond_new_unple_456_masked_CS1	condtest_masked_2	9	33	400	0	300	300	0	0	481	46	0	0	0	0	0	1	blank2r.bmp	0	1	+	0	6	C2r.bmp	492	1	blank2r.bmp	786	1	BMVZ	786	1	blank2r.bmp	866	1	eitel	866	1	!	1239	1	!	-1	0	0	0	0	0	0	0	0	0	0	0	0	0	0	0	0	0	0	0	0	0	0	0	0	0	0	0
013119	11:21:58	11:34:53	773641	5.0.10.0	4_exp_AWA_CON_EVA_AMP	103	Rpleas_acq	Oppo	Lpleas	Bmasked	CS_B	2pleas	distractor2	CONbeforeEVA	cond_US_pleas_123_masked_CS2	condtest_masked_2	9	34	400	0	300	300	0	0	191	46	0	1	0	0	0	1	blank2r.bmp	0	1	+	0	4	B4r.bmp	492	1	blank2r.bmp	786	1	GKQX	786	1	blank2r.bmp	866	1	treu	866	1	!	-1	1	!	-1	0	0	0	0	0	0	0	0	0	0	0	0	0	0	0	0	0	0	0	0	0	0	0	0	0	0	0
013119	11:21:58	11:34:55	775640	5.0.10.0	4_exp_AWA_CON_EVA_AMP	103	Rpleas_acq	Oppo	Lpleas	Bmasked	CS_B	2pleas	distractor2	CONbeforeEVA	cond_new_pleas_456_masked_CS1	condtest_masked_2	9	35	400	0	300	300	0	0	220	46	0	1	0	0	0	1	blank2r.bmp	0	1	+	0	2	B2r.bmp	492	1	blank2r.bmp	786	1	BMVZ	786	1	blank2r.bmp	866	2	helfen	866	1	!	-1	1	!	-1	0	0	0	0	0	0	0	0	0	0	0	0	0	0	0	0	0	0	0	0	0	0	0	0	0	0	0
013119	11:21:58	11:34:57	777732	5.0.10.0	4_exp_AWA_CON_EVA_AMP	103	Rpleas_acq	Oppo	Lpleas	Bmasked	CS_B	2pleas	distractor2	CONbeforeEVA	cond_new_unple_456_masked_CS1	condtest_masked_2	9	36	400	0	300	300	0	0	313	46	0	0	0	0	0	1	blank2r.bmp	0	1	+	0	8	C4r.bmp	492	1	blank2r.bmp	786	1	BMVZ	786	1	blank2r.bmp	866	2	hindern	866	1	!	-1	1	!	-1	0	0	0	0	0	0	0	0	0	0	0	0	0	0	0	0	0	0	0	0	0	0	0	0	0	0	0
013119	11:21:58	11:34:59	779798	5.0.10.0	4_exp_AWA_CON_EVA_AMP	103	Rpleas_acq	Oppo	Lpleas	Bmasked	CS_B	2pleas	distractor2	CONbeforeEVA	cond_US_unple_123_masked_CS1	condtest_masked_2	9	37	400	0	300	300	0	0	289	46	0	0	0	0	0	1	blank2r.bmp	0	1	+	0	1	B1r.bmp	492	1	blank2r.bmp	786	1	BMVZ	786	1	blank2r.bmp	866	1	tot	866	1	!	-1	1	!	-1	0	0	0	0	0	0	0	0	0	0	0	0	0	0	0	0	0	0	0	0	0	0	0	0	0	0	0
013119	11:21:58	11:35:01	782037	5.0.10.0	4_exp_AWA_CON_EVA_AMP	103	Rpleas_acq	Oppo	Lpleas	Bmasked	CS_B	2pleas	distractor2	CONbeforeEVA	cond_new_unple_456_masked_CS1	condtest_masked_2	9	38	400	1	300	300	0	0	423	50	0	1	0	0	0	1	blank2r.bmp	0	1	+	0	3	B3r.bmp	492	1	blank2r.bmp	786	1	BMVZ	786	1	blank2r.bmp	866	3	schlecht	866	1	!	1239	1	!	1319	0	0	0	0	0	0	0	0	0	0	0	0	0	0	0	0	0	0	0	0	0	0	0	0	0	0	0
013119	11:21:58	11:35:03	784116	5.0.10.0	4_exp_AWA_CON_EVA_AMP	103	Rpleas_acq	Oppo	Lpleas	Bmasked	CS_B	2pleas	distractor2	CONbeforeEVA	cond_new_pleas_456_masked_CS2	condtest_masked_2	9	39	400	0	300	300	0	0	317	46	0	1	0	0	0	1	blank2r.bmp	0	1	+	0	4	B4r.bmp	492	1	blank2r.bmp	786	1	GKQX	786	1	blank2r.bmp	866	3	schön	866	1	!	-1	1	!	-1	0	0	0	0	0	0	0	0	0	0	0	0	0	0	0	0	0	0	0	0	0	0	0	0	0	0	0
013119	11:21:58	11:35:05	786076	5.0.10.0	4_exp_AWA_CON_EVA_AMP	103	Rpleas_acq	Oppo	Lpleas	Bmasked	CS_B	2pleas	distractor2	CONbeforeEVA	cond_US_unple_123_masked_CS2	condtest_masked_2	9	40	400	0	300	300	0	0	174	46	0	0	0	0	0	1	blank2r.bmp	0	1	+	0	5	C1r.bmp	492	1	blank2r.bmp	786	1	GKQX	786	1	blank2r.bmp	866	3	lasch	866	1	!	-1	1	!	-1	0	0	0	0	0	0	0	0	0	0	0	0	0	0	0	0	0	0	0	0	0	0	0	0	0	0	0
013119	11:21:58	11:35:15	796525	5.0.10.0	4_exp_AWA_CON_EVA_AMP	103	Rpleas_acq	Oppo	Lpleas	Bmasked	CS_B	2pleas	distractor2	CONbeforeEVA	cond_new_unple_123_masked_CS1	condtest_masked_3	10	1	400	1	300	300	0	0	390	46	0	0	0	0	0	1	blank2r.bmp	0	1	+	0	2	B2r.bmp	492	1	blank2r.bmp	786	1	BMVZ	786	1	blank2r.bmp	866	2	tyrannisch	866	1	!	1239	1	!	1292	0	0	0	0	0	0	0	0	0	0	0	0	0	0	0	0	0	0	0	0	0	0	0	0	0	0	0
013119	11:21:58	11:35:18	798670	5.0.10.0	4_exp_AWA_CON_EVA_AMP	103	Rpleas_acq	Oppo	Lpleas	Bmasked	CS_B	2pleas	distractor2	CONbeforeEVA	cond_new_pleas_123_masked_CS2	condtest_masked_3	10	2	400	1	300	300	0	0	346	46	0	1	0	0	0	1	blank2r.bmp	0	1	+	0	7	C3r.bmp	492	1	blank2r.bmp	786	1	GKQX	786	1	blank2r.bmp	866	3	lachen	866	1	!	1239	1	!	1252	0	0	0	0	0	0	0	0	0	0	0	0	0	0	0	0	0	0	0	0	0	0	0	0	0	0	0
013119	11:21:58	11:35:20	800763	5.0.10.0	4_exp_AWA_CON_EVA_AMP	103	Rpleas_acq	Oppo	Lpleas	Bmasked	CS_B	2pleas	distractor2	CONbeforeEVA	cond_new_pleas_123_masked_CS2	condtest_masked_3	10	3	400	0	300	300	0	0	310	46	0	1	0	0	0	1	blank2r.bmp	0	1	+	0	8	C4r.bmp	492	1	blank2r.bmp	786	1	GKQX	786	1	blank2r.bmp	866	2	tolerant	866	1	!	-1	1	!	-1	0	0	0	0	0	0	0	0	0	0	0	0	0	0	0	0	0	0	0	0	0	0	0	0	0	0	0
013119	11:21:58	11:35:22	802935	5.0.10.0	4_exp_AWA_CON_EVA_AMP	103	Rpleas_acq	Oppo	Lpleas	Bmasked	CS_B	2pleas	distractor2	CONbeforeEVA	cond_new_pleas_123_masked_CS2	condtest_masked_3	10	4	400	1	300	300	0	0	346	46	0	1	0	0	0	1	blank2r.bmp	0	1	+	0	6	C2r.bmp	492	1	blank2r.bmp	786	1	GKQX	786	1	blank2r.bmp	866	1	freundlich	866	1	!	1239	1	!	1252	0	0	0	0	0	0	0	0	0	0	0	0	0	0	0	0	0	0	0	0	0	0	0	0	0	0	0
013119	11:21:58	11:35:24	805001	5.0.10.0	4_exp_AWA_CON_EVA_AMP	103	Rpleas_acq	Oppo	Lpleas	Bmasked	CS_B	2pleas	distractor2	CONbeforeEVA	cond_US_pleas_456_masked_CS1	condtest_masked_3	10	5	400	0	300	300	0	0	305	46	0	1	0	0	0	1	blank2r.bmp	0	1	+	0	8	C4r.bmp	492	1	blank2r.bmp	786	1	BMVZ	786	1	blank2r.bmp	866	3	fair	866	1	!	-1	1	!	-1	0	0	0	0	0	0	0	0	0	0	0	0	0	0	0	0	0	0	0	0	0	0	0	0	0	0	0
013119	11:21:58	11:35:26	807267	5.0.10.0	4_exp_AWA_CON_EVA_AMP	103	Rpleas_acq	Oppo	Lpleas	Bmasked	CS_B	2pleas	distractor2	CONbeforeEVA	cond_new_pleas_123_masked_CS1	condtest_masked_3	10	6	400	1	300	300	0	0	462	46	0	1	0	0	0	1	blank2r.bmp	0	1	+	0	1	B1r.bmp	492	1	blank2r.bmp	786	1	BMVZ	786	1	blank2r.bmp	866	2	tolerant	866	1	!	1239	1	!	1359	0	0	0	0	0	0	0	0	0	0	0	0	0	0	0	0	0	0	0	0	0	0	0	0	0	0	0
013119	11:21:58	11:35:28	809453	5.0.10.0	4_exp_AWA_CON_EVA_AMP	103	Rpleas_acq	Oppo	Lpleas	Bmasked	CS_B	2pleas	distractor2	CONbeforeEVA	cond_new_pleas_123_masked_CS1	condtest_masked_3	10	7	400	1	300	300	0	0	383	46	0	1	0	0	0	1	blank2r.bmp	0	1	+	0	5	C1r.bmp	492	1	blank2r.bmp	786	1	BMVZ	786	1	blank2r.bmp	866	1	freundlich	866	1	!	1239	1	!	1279	0	0	0	0	0	0	0	0	0	0	0	0	0	0	0	0	0	0	0	0	0	0	0	0	0	0	0
013119	11:21:58	11:35:31	811598	5.0.10.0	4_exp_AWA_CON_EVA_AMP	103	Rpleas_acq	Oppo	Lpleas	Bmasked	CS_B	2pleas	distractor2	CONbeforeEVA	cond_US_unple_456_masked_CS2	condtest_masked_3	10	8	400	1	300	300	0	0	356	46	0	0	0	0	0	1	blank2r.bmp	0	1	+	0	7	C3r.bmp	492	1	blank2r.bmp	786	1	GKQX	786	1	blank2r.bmp	866	1	rächen	866	1	!	1239	1	!	1252	0	0	0	0	0	0	0	0	0	0	0	0	0	0	0	0	0	0	0	0	0	0	0	0	0	0	0
013119	11:21:58	11:35:33	813797	5.0.10.0	4_exp_AWA_CON_EVA_AMP	103	Rpleas_acq	Oppo	Lpleas	Bmasked	CS_B	2pleas	distractor2	CONbeforeEVA	cond_US_pleas_456_masked_CS2	condtest_masked_3	10	9	400	1	300	300	0	0	406	46	0	1	0	0	0	1	blank2r.bmp	0	1	+	0	3	B3r.bmp	492	1	blank2r.bmp	786	1	GKQX	786	1	blank2r.bmp	866	1	retten	866	1	!	1239	1	!	1306	0	0	0	0	0	0	0	0	0	0	0	0	0	0	0	0	0	0	0	0	0	0	0	0	0	0	0
013119	11:21:58	11:35:35	815997	5.0.10.0	4_exp_AWA_CON_EVA_AMP	103	Rpleas_acq	Oppo	Lpleas	Bmasked	CS_B	2pleas	distractor2	CONbeforeEVA	cond_new_pleas_123_masked_CS2	condtest_masked_3	10	10	400	1	300	300	0	0	402	46	0	1	0	0	0	1	blank2r.bmp	0	1	+	0	4	B4r.bmp	492	1	blank2r.bmp	786	1	GKQX	786	1	blank2r.bmp	866	3	lachen	866	1	!	1239	1	!	1306	0	0	0	0	0	0	0	0	0	0	0	0	0	0	0	0	0	0	0	0	0	0	0	0	0	0	0
013119	11:21:58	11:35:37	818169	5.0.10.0	4_exp_AWA_CON_EVA_AMP	103	Rpleas_acq	Oppo	Lpleas	Bmasked	CS_B	2pleas	distractor2	CONbeforeEVA	cond_new_pleas_123_masked_CS2	condtest_masked_3	10	11	400	1	300	300	0	0	376	46	0	1	0	0	0	1	blank2r.bmp	0	1	+	0	6	C2r.bmp	492	1	blank2r.bmp	786	1	GKQX	786	1	blank2r.bmp	866	1	freundlich	866	1	!	1239	1	!	1279	0	0	0	0	0	0	0	0	0	0	0	0	0	0	0	0	0	0	0	0	0	0	0	0	0	0	0
013119	11:21:58	11:35:39	820315	5.0.10.0	4_exp_AWA_CON_EVA_AMP	103	Rpleas_acq	Oppo	Lpleas	Bmasked	CS_B	2pleas	distractor2	CONbeforeEVA	cond_US_unple_456_masked_CS2	condtest_masked_3	10	12	400	1	300	300	0	0	346	46	0	0	0	0	0	1	blank2r.bmp	0	1	+	0	2	B2r.bmp	492	1	blank2r.bmp	786	1	GKQX	786	1	blank2r.bmp	866	2	strafen	866	1	!	1239	1	!	1252	0	0	0	0	0	0	0	0	0	0	0	0	0	0	0	0	0	0	0	0	0	0	0	0	0	0	0
013119	11:21:58	11:35:42	822580	5.0.10.0	4_exp_AWA_CON_EVA_AMP	103	Rpleas_acq	Oppo	Lpleas	Bmasked	CS_B	2pleas	distractor2	CONbeforeEVA	cond_US_pleas_456_masked_CS1	condtest_masked_3	10	13	400	0	300	300	0	0	498	46	0	1	0	0	0	1	blank2r.bmp	0	1	+	0	2	B2r.bmp	492	1	blank2r.bmp	786	1	BMVZ	786	1	blank2r.bmp	866	2	spielen	866	1	!	1239	1	!	-1	0	0	0	0	0	0	0	0	0	0	0	0	0	0	0	0	0	0	0	0	0	0	0	0	0	0	0
013119	11:21:58	11:35:44	824686	5.0.10.0	4_exp_AWA_CON_EVA_AMP	103	Rpleas_acq	Oppo	Lpleas	Bmasked	CS_B	2pleas	distractor2	CONbeforeEVA	cond_US_unple_456_masked_CS2	condtest_masked_3	10	14	400	0	300	300	0	0	320	46	0	0	0	0	0	1	blank2r.bmp	0	1	+	0	5	C1r.bmp	492	1	blank2r.bmp	786	1	GKQX	786	1	blank2r.bmp	866	3	faul	866	1	!	-1	1	!	-1	0	0	0	0	0	0	0	0	0	0	0	0	0	0	0	0	0	0	0	0	0	0	0	0	0	0	0
013119	11:21:58	11:35:46	826992	5.0.10.0	4_exp_AWA_CON_EVA_AMP	103	Rpleas_acq	Oppo	Lpleas	Bmasked	CS_B	2pleas	distractor2	CONbeforeEVA	cond_new_unple_123_masked_CS1	condtest_masked_3	10	15	400	0	300	300	0	0	530	50	0	1	0	0	0	1	blank2r.bmp	0	1	+	0	3	B3r.bmp	492	1	blank2r.bmp	786	1	BMVZ	786	1	blank2r.bmp	866	1	fanatisch	866	1	!	1239	1	!	-1	0	0	0	0	0	0	0	0	0	0	0	0	0	0	0	0	0	0	0	0	0	0	0	0	0	0	0
013119	11:21:58	11:35:48	829218	5.0.10.0	4_exp_AWA_CON_EVA_AMP	103	Rpleas_acq	Oppo	Lpleas	Bmasked	CS_B	2pleas	distractor2	CONbeforeEVA	cond_new_unple_123_masked_CS2	condtest_masked_3	10	16	400	1	300	300	0	0	414	50	0	1	0	0	0	1	blank2r.bmp	0	1	+	0	7	C3r.bmp	492	1	blank2r.bmp	786	1	GKQX	786	1	blank2r.bmp	866	3	leiden	866	1	!	1239	1	!	1319	0	0	0	0	0	0	0	0	0	0	0	0	0	0	0	0	0	0	0	0	0	0	0	0	0	0	0
013119	11:21:58	11:35:50	831310	5.0.10.0	4_exp_AWA_CON_EVA_AMP	103	Rpleas_acq	Oppo	Lpleas	Bmasked	CS_B	2pleas	distractor2	CONbeforeEVA	cond_US_unple_456_masked_CS1	condtest_masked_3	10	17	400	0	300	300	0	0	321	50	0	1	0	0	0	1	blank2r.bmp	0	1	+	0	8	C4r.bmp	492	1	blank2r.bmp	786	1	BMVZ	786	1	blank2r.bmp	866	1	rächen	866	1	!	-1	1	!	-1	0	0	0	0	0	0	0	0	0	0	0	0	0	0	0	0	0	0	0	0	0	0	0	0	0	0	0
013119	11:21:58	11:35:53	833603	5.0.10.0	4_exp_AWA_CON_EVA_AMP	103	Rpleas_acq	Oppo	Lpleas	Bmasked	CS_B	2pleas	distractor2	CONbeforeEVA	cond_US_pleas_456_masked_CS2	condtest_masked_3	10	18	400	0	300	300	0	0	513	46	0	1	0	0	0	1	blank2r.bmp	0	1	+	0	6	C2r.bmp	492	1	blank2r.bmp	786	1	GKQX	786	1	blank2r.bmp	866	2	spielen	866	1	!	1239	1	!	-1	0	0	0	0	0	0	0	0	0	0	0	0	0	0	0	0	0	0	0	0	0	0	0	0	0	0	0
013119	11:21:58	11:35:55	835802	5.0.10.0	4_exp_AWA_CON_EVA_AMP	103	Rpleas_acq	Oppo	Lpleas	Bmasked	CS_B	2pleas	distractor2	CONbeforeEVA	cond_US_unple_456_masked_CS2	condtest_masked_3	10	19	400	1	300	300	0	0	373	46	0	0	0	0	0	1	blank2r.bmp	0	1	+	0	4	B4r.bmp	492	1	blank2r.bmp	786	1	GKQX	786	1	blank2r.bmp	866	2	strafen	866	1	!	1239	1	!	1279	0	0	0	0	0	0	0	0	0	0	0	0	0	0	0	0	0	0	0	0	0	0	0	0	0	0	0
013119	11:21:58	11:35:57	837868	5.0.10.0	4_exp_AWA_CON_EVA_AMP	103	Rpleas_acq	Oppo	Lpleas	Bmasked	CS_B	2pleas	distractor2	CONbeforeEVA	cond_US_pleas_456_masked_CS1	condtest_masked_3	10	20	400	0	300	300	0	0	294	46	0	1	0	0	0	1	blank2r.bmp	0	1	+	0	1	B1r.bmp	492	1	blank2r.bmp	786	1	BMVZ	786	1	blank2r.bmp	866	3	fair	866	1	!	-1	1	!	-1	0	0	0	0	0	0	0	0	0	0	0	0	0	0	0	0	0	0	0	0	0	0	0	0	0	0	0
013119	11:21:58	11:35:59	840147	5.0.10.0	4_exp_AWA_CON_EVA_AMP	103	Rpleas_acq	Oppo	Lpleas	Bmasked	CS_B	2pleas	distractor2	CONbeforeEVA	cond_US_pleas_456_masked_CS2	condtest_masked_3	10	21	400	0	300	300	0	0	499	46	0	1	0	0	0	1	blank2r.bmp	0	1	+	0	2	B2r.bmp	492	1	blank2r.bmp	786	1	GKQX	786	1	blank2r.bmp	866	1	retten	866	1	!	1239	1	!	-1	0	0	0	0	0	0	0	0	0	0	0	0	0	0	0	0	0	0	0	0	0	0	0	0	0	0	0
013119	11:21:58	11:36:01	842359	5.0.10.0	4_exp_AWA_CON_EVA_AMP	103	Rpleas_acq	Oppo	Lpleas	Bmasked	CS_B	2pleas	distractor2	CONbeforeEVA	cond_US_unple_456_masked_CS1	condtest_masked_3	10	22	400	1	300	300	0	0	402	46	0	0	0	0	0	1	blank2r.bmp	0	1	+	0	5	C1r.bmp	492	1	blank2r.bmp	786	1	BMVZ	786	1	blank2r.bmp	866	3	faul	866	1	!	1239	1	!	1306	0	0	0	0	0	0	0	0	0	0	0	0	0	0	0	0	0	0	0	0	0	0	0	0	0	0	0
013119	11:21:58	11:36:04	844611	5.0.10.0	4_exp_AWA_CON_EVA_AMP	103	Rpleas_acq	Oppo	Lpleas	Bmasked	CS_B	2pleas	distractor2	CONbeforeEVA	cond_US_unple_456_masked_CS1	condtest_masked_3	10	23	400	0	300	300	0	0	490	46	0	0	0	0	0	1	blank2r.bmp	0	1	+	0	4	B4r.bmp	492	1	blank2r.bmp	786	1	BMVZ	786	1	blank2r.bmp	866	2	strafen	866	1	!	1239	1	!	-1	0	0	0	0	0	0	0	0	0	0	0	0	0	0	0	0	0	0	0	0	0	0	0	0	0	0	0
013119	11:21:58	11:36:06	846704	5.0.10.0	4_exp_AWA_CON_EVA_AMP	103	Rpleas_acq	Oppo	Lpleas	Bmasked	CS_B	2pleas	distractor2	CONbeforeEVA	cond_new_unple_123_masked_CS1	condtest_masked_3	10	24	400	0	300	300	0	0	309	50	0	1	0	0	0	1	blank2r.bmp	0	1	+	0	7	C3r.bmp	492	1	blank2r.bmp	786	1	BMVZ	786	1	blank2r.bmp	866	3	leiden	866	1	!	-1	1	!	-1	0	0	0	0	0	0	0	0	0	0	0	0	0	0	0	0	0	0	0	0	0	0	0	0	0	0	0
013119	11:21:58	11:36:09	850129	5.0.10.0	4_exp_AWA_CON_EVA_AMP	103	Rpleas_acq	Oppo	Lpleas	Bmasked	CS_B	2pleas	distractor2	CONbeforeEVA	cond_new_unple_123_masked_CS2	condtest_masked_3	10	25	400	0	300	300	0	0	1642	50	0	1	0	0	0	1	blank2r.bmp	0	1	+	0	6	C2r.bmp	492	1	blank2r.bmp	786	1	GKQX	786	1	blank2r.bmp	866	1	fanatisch	866	1	!	1239	1	!	-1	0	0	0	0	0	0	0	0	0	0	0	0	0	0	0	0	0	0	0	0	0	0	0	0	0	0	0
013119	11:21:58	11:36:11	852302	5.0.10.0	4_exp_AWA_CON_EVA_AMP	103	Rpleas_acq	Oppo	Lpleas	Bmasked	CS_B	2pleas	distractor2	CONbeforeEVA	cond_US_unple_456_masked_CS2	condtest_masked_3	10	26	400	1	300	300	0	0	363	50	0	1	0	0	0	1	blank2r.bmp	0	1	+	0	3	B3r.bmp	492	1	blank2r.bmp	786	1	GKQX	786	1	blank2r.bmp	866	3	faul	866	1	!	1239	1	!	1266	0	0	0	0	0	0	0	0	0	0	0	0	0	0	0	0	0	0	0	0	0	0	0	0	0	0	0
013119	11:21:58	11:36:13	854554	5.0.10.0	4_exp_AWA_CON_EVA_AMP	103	Rpleas_acq	Oppo	Lpleas	Bmasked	CS_B	2pleas	distractor2	CONbeforeEVA	cond_US_pleas_456_masked_CS2	condtest_masked_3	10	27	400	1	300	300	0	0	452	46	0	1	0	0	0	1	blank2r.bmp	0	1	+	0	8	C4r.bmp	492	1	blank2r.bmp	786	1	GKQX	786	1	blank2r.bmp	866	3	fair	866	1	!	1239	1	!	1359	0	0	0	0	0	0	0	0	0	0	0	0	0	0	0	0	0	0	0	0	0	0	0	0	0	0	0
013119	11:21:58	11:36:16	856820	5.0.10.0	4_exp_AWA_CON_EVA_AMP	103	Rpleas_acq	Oppo	Lpleas	Bmasked	CS_B	2pleas	distractor2	CONbeforeEVA	cond_US_pleas_456_masked_CS1	condtest_masked_3	10	28	400	0	300	300	0	0	505	50	0	0	0	0	0	1	blank2r.bmp	0	1	+	0	1	B1r.bmp	492	1	blank2r.bmp	786	1	BMVZ	786	1	blank2r.bmp	866	2	spielen	866	1	!	1239	1	!	-1	0	0	0	0	0	0	0	0	0	0	0	0	0	0	0	0	0	0	0	0	0	0	0	0	0	0	0
013119	11:21:58	11:36:18	858872	5.0.10.0	4_exp_AWA_CON_EVA_AMP	103	Rpleas_acq	Oppo	Lpleas	Bmasked	CS_B	2pleas	distractor2	CONbeforeEVA	cond_US_unple_456_masked_CS2	condtest_masked_3	10	29	400	0	300	300	0	0	270	46	0	0	0	0	0	1	blank2r.bmp	0	1	+	0	5	C1r.bmp	492	1	blank2r.bmp	786	1	GKQX	786	1	blank2r.bmp	866	1	rächen	866	1	!	-1	1	!	-1	0	0	0	0	0	0	0	0	0	0	0	0	0	0	0	0	0	0	0	0	0	0	0	0	0	0	0
013119	11:21:58	11:36:20	861138	5.0.10.0	4_exp_AWA_CON_EVA_AMP	103	Rpleas_acq	Oppo	Lpleas	Bmasked	CS_B	2pleas	distractor2	CONbeforeEVA	cond_new_unple_123_masked_CS1	condtest_masked_3	10	30	400	1	300	300	0	0	453	50	0	1	0	0	0	1	blank2r.bmp	0	1	+	0	8	C4r.bmp	492	1	blank2r.bmp	786	1	BMVZ	786	1	blank2r.bmp	866	2	tyrannisch	866	1	!	1239	1	!	1359	0	0	0	0	0	0	0	0	0	0	0	0	0	0	0	0	0	0	0	0	0	0	0	0	0	0	0
013119	11:21:58	11:36:22	863217	5.0.10.0	4_exp_AWA_CON_EVA_AMP	103	Rpleas_acq	Oppo	Lpleas	Bmasked	CS_B	2pleas	distractor2	CONbeforeEVA	cond_new_unple_123_masked_CS2	condtest_masked_3	10	31	400	0	300	300	0	0	317	46	0	0	0	0	0	1	blank2r.bmp	0	1	+	0	3	B3r.bmp	492	1	blank2r.bmp	786	1	GKQX	786	1	blank2r.bmp	866	3	leiden	866	1	!	-1	1	!	-1	0	0	0	0	0	0	0	0	0	0	0	0	0	0	0	0	0	0	0	0	0	0	0	0	0	0	0
