date	time	script.currenttime	script.elapsedtime	build	script.currentexpt	subject	expressions.LRpleas_acq	expressions.SameOppo	expressions.condition_Lpleas	expressions.ABmasked	expressions.conditionCS_A	expressions.condition_1pleas	expressions.condition_distractor_AMP	expressions.AWACON_AMPEVA_first	trialcode	blockcode	blocknum	trialnum	windowcenter	inwindow	pretrialpause	posttrialpause	trialduration	trialtimeout	latency	response	expressions.correctedscore	correct	values.vis_performance	values.vis_rating_sum	values.vis_rating_mean	stimulusnumber1	stimulusitem1	stimulusonset1	stimulusnumber2	stimulusitem2	stimulusonset2	stimulusnumber3	stimulusitem3	stimulusonset3	stimulusnumber4	stimulusitem4	stimulusonset4	stimulusnumber5	stimulusitem5	stimulusonset5	stimulusnumber6	stimulusitem6	stimulusonset6	stimulusnumber7	stimulusitem7	stimulusonset7	stimulusnumber8	stimulusitem8	stimulusonset8	stimulusnumber9	stimulusitem9	stimulusonset9	stimulusnumber10	stimulusitem10	stimulusonset10	stimulusnumber11	stimulusitem11	stimulusonset11	stimulusnumber12	stimulusitem12	stimulusonset12	stimulusnumber13	stimulusitem13	stimulusonset13	stimulusnumber14	stimulusitem14	stimulusonset14	stimulusnumber15	stimulusitem15	stimulusonset15	stimulusnumber16	stimulusitem16	stimulusonset16	stimulusnumber17	stimulusitem17	stimulusonset17	stimulusnumber18	stimulusitem18	stimulusonset18
022119	10:15:31	10:20:15	283336	5.0.10.0	4_exp_AMP_EVA_AWA_CON	132	Rpleas_acq	Same	Rpleas	Amasked	CS_A	1pleas	distractor2	EVAbeforeCON	acq_US_pleas_masked	acq1_masked	1	1	0	0	300	300	0	0	2079	50	0	1	0	0	0	1	blank2r.bmp	0	1	+	0	1	B1r.bmp	492	1	blank2r.bmp	786	1	CPLW	786	1	blank2r.bmp	866	4	sonnig	866	0	0	0	0	0	0	0	0	0	0	0	0	0	0	0	0	0	0	0	0	0	0	0	0	0	0	0	0	0	0	0	0	0
022119	10:15:31	10:20:19	286641	5.0.10.0	4_exp_AMP_EVA_AWA_CON	132	Rpleas_acq	Same	Rpleas	Amasked	CS_A	1pleas	distractor2	EVAbeforeCON	acq_US_unple_masked	acq1_masked	1	2	0	0	300	300	0	0	1823	46	0	1	0	0	0	1	blank2r.bmp	0	1	+	0	4	B4r.bmp	492	1	blank2r.bmp	786	1	DHJF	786	1	blank2r.bmp	866	1	geizig	866	0	0	0	0	0	0	0	0	0	0	0	0	0	0	0	0	0	0	0	0	0	0	0	0	0	0	0	0	0	0	0	0	0
022119	10:15:31	10:20:21	289040	5.0.10.0	4_exp_AMP_EVA_AWA_CON	132	Rpleas_acq	Same	Rpleas	Amasked	CS_A	1pleas	distractor2	EVAbeforeCON	acq_new_pleas_masked	acq1_masked	1	3	0	0	300	300	0	0	909	50	0	1	0	0	0	1	blank2r.bmp	0	1	+	0	3	B3r.bmp	492	1	blank2r.bmp	786	2	B2r.bmp	786	1	blank2r.bmp	866	4	vergnügt	866	0	0	0	0	0	0	0	0	0	0	0	0	0	0	0	0	0	0	0	0	0	0	0	0	0	0	0	0	0	0	0	0	0
022119	10:15:31	10:20:24	291665	5.0.10.0	4_exp_AMP_EVA_AWA_CON	132	Rpleas_acq	Same	Rpleas	Amasked	CS_A	1pleas	distractor2	EVAbeforeCON	acq_new_unple_masked	acq1_masked	1	4	0	0	300	300	0	0	1157	46	0	1	0	0	0	1	blank2r.bmp	0	1	+	0	8	C4r.bmp	492	1	blank2r.bmp	786	3	B3r.bmp	786	1	blank2r.bmp	866	5	ausrottung	866	0	0	0	0	0	0	0	0	0	0	0	0	0	0	0	0	0	0	0	0	0	0	0	0	0	0	0	0	0	0	0	0	0
022119	10:15:31	10:20:26	294158	5.0.10.0	4_exp_AMP_EVA_AWA_CON	132	Rpleas_acq	Same	Rpleas	Amasked	CS_A	1pleas	distractor2	EVAbeforeCON	acq_new_unple_masked	acq1_masked	1	5	0	0	300	300	0	0	1011	46	0	1	0	0	0	1	blank2r.bmp	0	1	+	0	2	B2r.bmp	492	1	blank2r.bmp	786	6	C2r.bmp	786	1	blank2r.bmp	866	2	engstirnig	866	0	0	0	0	0	0	0	0	0	0	0	0	0	0	0	0	0	0	0	0	0	0	0	0	0	0	0	0	0	0	0	0	0
022119	10:15:31	10:20:29	296517	5.0.10.0	4_exp_AMP_EVA_AWA_CON	132	Rpleas_acq	Same	Rpleas	Amasked	CS_A	1pleas	distractor2	EVAbeforeCON	acq_new_pleas_masked	acq1_masked	1	6	0	0	300	300	0	0	871	50	0	1	0	0	0	1	blank2r.bmp	0	1	+	0	5	C1r.bmp	492	1	blank2r.bmp	786	8	C4r.bmp	786	1	blank2r.bmp	866	6	vertrauen	866	0	0	0	0	0	0	0	0	0	0	0	0	0	0	0	0	0	0	0	0	0	0	0	0	0	0	0	0	0	0	0	0	0
022119	10:15:31	10:20:31	298809	5.0.10.0	4_exp_AMP_EVA_AWA_CON	132	Rpleas_acq	Same	Rpleas	Amasked	CS_A	1pleas	distractor2	EVAbeforeCON	acq_US_unple_masked	acq1_masked	1	7	0	0	300	300	0	0	799	46	0	1	0	0	0	1	blank2r.bmp	0	1	+	0	6	C2r.bmp	492	1	blank2r.bmp	786	1	DHJF	786	1	blank2r.bmp	866	4	sterben	866	0	0	0	0	0	0	0	0	0	0	0	0	0	0	0	0	0	0	0	0	0	0	0	0	0	0	0	0	0	0	0	0	0
022119	10:15:31	10:20:33	301208	5.0.10.0	4_exp_AMP_EVA_AWA_CON	132	Rpleas_acq	Same	Rpleas	Amasked	CS_A	1pleas	distractor2	EVAbeforeCON	acq_new_pleas_masked	acq1_masked	1	8	0	0	300	300	0	0	921	50	0	1	0	0	0	1	blank2r.bmp	0	1	+	0	7	C3r.bmp	492	1	blank2r.bmp	786	5	C1r.bmp	786	1	blank2r.bmp	866	5	anregung	866	0	0	0	0	0	0	0	0	0	0	0	0	0	0	0	0	0	0	0	0	0	0	0	0	0	0	0	0	0	0	0	0	0
022119	10:15:31	10:20:36	303661	5.0.10.0	4_exp_AMP_EVA_AWA_CON	132	Rpleas_acq	Same	Rpleas	Amasked	CS_A	1pleas	distractor2	EVAbeforeCON	acq_US_pleas_masked	acq1_masked	1	9	0	0	300	300	0	0	981	50	0	1	0	0	0	1	blank2r.bmp	0	1	+	0	8	C4r.bmp	492	1	blank2r.bmp	786	1	CPLW	786	1	blank2r.bmp	866	6	gütig	866	0	0	0	0	0	0	0	0	0	0	0	0	0	0	0	0	0	0	0	0	0	0	0	0	0	0	0	0	0	0	0	0	0
022119	10:15:31	10:20:38	305980	5.0.10.0	4_exp_AMP_EVA_AWA_CON	132	Rpleas_acq	Same	Rpleas	Amasked	CS_A	1pleas	distractor2	EVAbeforeCON	acq_new_unple_masked	acq1_masked	1	10	0	0	300	300	0	0	832	46	0	1	0	0	0	1	blank2r.bmp	0	1	+	0	6	C2r.bmp	492	1	blank2r.bmp	786	4	B4r.bmp	786	1	blank2r.bmp	866	4	verbissen	866	0	0	0	0	0	0	0	0	0	0	0	0	0	0	0	0	0	0	0	0	0	0	0	0	0	0	0	0	0	0	0	0	0
022119	10:15:31	10:20:40	308245	5.0.10.0	4_exp_AMP_EVA_AWA_CON	132	Rpleas_acq	Same	Rpleas	Amasked	CS_A	1pleas	distractor2	EVAbeforeCON	acq_US_pleas_masked	acq1_masked	1	11	0	0	300	300	0	0	798	50	0	1	0	0	0	1	blank2r.bmp	0	1	+	0	7	C3r.bmp	492	1	blank2r.bmp	786	1	CPLW	786	1	blank2r.bmp	866	2	träumen	866	0	0	0	0	0	0	0	0	0	0	0	0	0	0	0	0	0	0	0	0	0	0	0	0	0	0	0	0	0	0	0	0	0
022119	10:15:31	10:20:43	310578	5.0.10.0	4_exp_AMP_EVA_AWA_CON	132	Rpleas_acq	Same	Rpleas	Amasked	CS_A	1pleas	distractor2	EVAbeforeCON	acq_US_unple_masked	acq1_masked	1	12	0	0	300	300	0	0	842	46	0	1	0	0	0	1	blank2r.bmp	0	1	+	0	2	B2r.bmp	492	1	blank2r.bmp	786	1	DHJF	786	1	blank2r.bmp	866	3	gemein	866	0	0	0	0	0	0	0	0	0	0	0	0	0	0	0	0	0	0	0	0	0	0	0	0	0	0	0	0	0	0	0	0	0
022119	10:15:31	10:20:45	312723	5.0.10.0	4_exp_AMP_EVA_AWA_CON	132	Rpleas_acq	Same	Rpleas	Amasked	CS_A	1pleas	distractor2	EVAbeforeCON	acq_US_pleas_masked	acq1_masked	1	13	0	0	300	300	0	0	672	50	0	1	0	0	0	1	blank2r.bmp	0	1	+	0	3	B3r.bmp	492	1	blank2r.bmp	786	1	CPLW	786	1	blank2r.bmp	866	3	genießen	866	0	0	0	0	0	0	0	0	0	0	0	0	0	0	0	0	0	0	0	0	0	0	0	0	0	0	0	0	0	0	0	0	0
022119	10:15:31	10:20:48	315562	5.0.10.0	4_exp_AMP_EVA_AWA_CON	132	Rpleas_acq	Same	Rpleas	Amasked	CS_A	1pleas	distractor2	EVAbeforeCON	acq_new_unple_masked	acq1_masked	1	14	0	0	300	300	0	0	1349	46	0	1	0	0	0	1	blank2r.bmp	0	1	+	0	4	B4r.bmp	492	1	blank2r.bmp	786	7	C3r.bmp	786	1	blank2r.bmp	866	1	krank	866	0	0	0	0	0	0	0	0	0	0	0	0	0	0	0	0	0	0	0	0	0	0	0	0	0	0	0	0	0	0	0	0	0
022119	10:15:31	10:20:50	317828	5.0.10.0	4_exp_AMP_EVA_AWA_CON	132	Rpleas_acq	Same	Rpleas	Amasked	CS_A	1pleas	distractor2	EVAbeforeCON	acq_new_pleas_masked	acq1_masked	1	15	0	0	300	300	0	0	781	50	0	1	0	0	0	1	blank2r.bmp	0	1	+	0	5	C1r.bmp	492	1	blank2r.bmp	786	1	B1r.bmp	786	1	blank2r.bmp	866	3	besonnen	866	0	0	0	0	0	0	0	0	0	0	0	0	0	0	0	0	0	0	0	0	0	0	0	0	0	0	0	0	0	0	0	0	0
022119	10:15:31	10:20:52	320027	5.0.10.0	4_exp_AMP_EVA_AWA_CON	132	Rpleas_acq	Same	Rpleas	Amasked	CS_A	1pleas	distractor2	EVAbeforeCON	acq_US_pleas_masked	acq1_masked	1	16	0	0	300	300	0	0	713	50	0	1	0	0	0	1	blank2r.bmp	0	1	+	0	1	B1r.bmp	492	1	blank2r.bmp	786	1	CPLW	786	1	blank2r.bmp	866	5	kuss	866	0	0	0	0	0	0	0	0	0	0	0	0	0	0	0	0	0	0	0	0	0	0	0	0	0	0	0	0	0	0	0	0	0
022119	10:15:31	10:20:54	322186	5.0.10.0	4_exp_AMP_EVA_AWA_CON	132	Rpleas_acq	Same	Rpleas	Amasked	CS_A	1pleas	distractor2	EVAbeforeCON	acq_US_unple_masked	acq1_masked	1	17	0	0	300	300	0	0	675	46	0	1	0	0	0	1	blank2r.bmp	0	1	+	0	7	C3r.bmp	492	1	blank2r.bmp	786	1	DHJF	786	1	blank2r.bmp	866	2	töten	866	0	0	0	0	0	0	0	0	0	0	0	0	0	0	0	0	0	0	0	0	0	0	0	0	0	0	0	0	0	0	0	0	0
022119	10:15:31	10:21:00	327651	5.0.10.0	4_exp_AMP_EVA_AWA_CON	132	Rpleas_acq	Same	Rpleas	Amasked	CS_A	1pleas	distractor2	EVAbeforeCON	acq_US_unple_masked	acq1_masked	1	18	0	0	300	300	0	0	3996	46	0	1	0	0	0	1	blank2r.bmp	0	1	+	0	3	B3r.bmp	492	1	blank2r.bmp	786	1	DHJF	786	1	blank2r.bmp	866	5	krise	866	0	0	0	0	0	0	0	0	0	0	0	0	0	0	0	0	0	0	0	0	0	0	0	0	0	0	0	0	0	0	0	0	0
022119	10:15:31	10:21:05	332622	5.0.10.0	4_exp_AMP_EVA_AWA_CON	132	Rpleas_acq	Same	Rpleas	Amasked	CS_A	1pleas	distractor2	EVAbeforeCON	acq_new_pleas_masked	acq1_masked	1	19	0	0	300	300	0	0	3480	50	0	1	0	0	0	1	blank2r.bmp	0	1	+	0	4	B4r.bmp	492	1	blank2r.bmp	786	1	B1r.bmp	786	1	blank2r.bmp	866	2	engagiert	866	0	0	0	0	0	0	0	0	0	0	0	0	0	0	0	0	0	0	0	0	0	0	0	0	0	0	0	0	0	0	0	0	0
022119	10:15:31	10:21:10	338166	5.0.10.0	4_exp_AMP_EVA_AWA_CON	132	Rpleas_acq	Same	Rpleas	Amasked	CS_A	1pleas	distractor2	EVAbeforeCON	acq_US_unple_masked	acq1_masked	1	20	0	0	300	300	0	0	4070	46	0	1	0	0	0	1	blank2r.bmp	0	1	+	0	8	C4r.bmp	492	1	blank2r.bmp	786	1	DHJF	786	1	blank2r.bmp	866	6	gierig	866	0	0	0	0	0	0	0	0	0	0	0	0	0	0	0	0	0	0	0	0	0	0	0	0	0	0	0	0	0	0	0	0	0
022119	10:15:31	10:21:15	342431	5.0.10.0	4_exp_AMP_EVA_AWA_CON	132	Rpleas_acq	Same	Rpleas	Amasked	CS_A	1pleas	distractor2	EVAbeforeCON	acq_new_unple_masked	acq1_masked	1	21	0	0	300	300	0	0	2779	46	0	1	0	0	0	1	blank2r.bmp	0	1	+	0	1	B1r.bmp	492	1	blank2r.bmp	786	3	B3r.bmp	786	1	blank2r.bmp	866	3	bange	866	0	0	0	0	0	0	0	0	0	0	0	0	0	0	0	0	0	0	0	0	0	0	0	0	0	0	0	0	0	0	0	0	0
022119	10:15:31	10:21:17	344710	5.0.10.0	4_exp_AMP_EVA_AWA_CON	132	Rpleas_acq	Same	Rpleas	Amasked	CS_A	1pleas	distractor2	EVAbeforeCON	acq_US_pleas_masked	acq1_masked	1	22	0	0	300	300	0	0	788	50	0	1	0	0	0	1	blank2r.bmp	0	1	+	0	6	C2r.bmp	492	1	blank2r.bmp	786	1	CPLW	786	1	blank2r.bmp	866	1	gesittet	866	0	0	0	0	0	0	0	0	0	0	0	0	0	0	0	0	0	0	0	0	0	0	0	0	0	0	0	0	0	0	0	0	0
022119	10:15:31	10:21:19	346843	5.0.10.0	4_exp_AMP_EVA_AWA_CON	132	Rpleas_acq	Same	Rpleas	Amasked	CS_A	1pleas	distractor2	EVAbeforeCON	acq_new_pleas_masked	acq1_masked	1	23	0	0	300	300	0	0	653	50	0	1	0	0	0	1	blank2r.bmp	0	1	+	0	2	B2r.bmp	492	1	blank2r.bmp	786	8	C4r.bmp	786	1	blank2r.bmp	866	1	kreativ	866	0	0	0	0	0	0	0	0	0	0	0	0	0	0	0	0	0	0	0	0	0	0	0	0	0	0	0	0	0	0	0	0	0
022119	10:15:31	10:21:21	349135	5.0.10.0	4_exp_AMP_EVA_AWA_CON	132	Rpleas_acq	Same	Rpleas	Amasked	CS_A	1pleas	distractor2	EVAbeforeCON	acq_new_unple_masked	acq1_masked	1	24	0	0	300	300	0	0	801	46	0	1	0	0	0	1	blank2r.bmp	0	1	+	0	5	C1r.bmp	492	1	blank2r.bmp	786	7	C3r.bmp	786	1	blank2r.bmp	866	6	versagen	866	0	0	0	0	0	0	0	0	0	0	0	0	0	0	0	0	0	0	0	0	0	0	0	0	0	0	0	0	0	0	0	0	0
022119	10:15:31	10:21:23	351321	5.0.10.0	4_exp_AMP_EVA_AWA_CON	132	Rpleas_acq	Same	Rpleas	Amasked	CS_A	1pleas	distractor2	EVAbeforeCON	acq_new_pleas_masked	acq1_masked	1	25	0	0	300	300	0	0	696	50	0	1	0	0	0	1	blank2r.bmp	0	1	+	0	1	B1r.bmp	492	1	blank2r.bmp	786	5	C1r.bmp	786	1	blank2r.bmp	866	2	engagiert	866	0	0	0	0	0	0	0	0	0	0	0	0	0	0	0	0	0	0	0	0	0	0	0	0	0	0	0	0	0	0	0	0	0
022119	10:15:31	10:21:26	353613	5.0.10.0	4_exp_AMP_EVA_AWA_CON	132	Rpleas_acq	Same	Rpleas	Amasked	CS_A	1pleas	distractor2	EVAbeforeCON	acq_US_pleas_masked	acq1_masked	1	26	0	0	300	300	0	0	799	50	0	1	0	0	0	1	blank2r.bmp	0	1	+	0	6	C2r.bmp	492	1	blank2r.bmp	786	1	CPLW	786	1	blank2r.bmp	866	4	sonnig	866	0	0	0	0	0	0	0	0	0	0	0	0	0	0	0	0	0	0	0	0	0	0	0	0	0	0	0	0	0	0	0	0	0
022119	10:15:31	10:21:28	355826	5.0.10.0	4_exp_AMP_EVA_AWA_CON	132	Rpleas_acq	Same	Rpleas	Amasked	CS_A	1pleas	distractor2	EVAbeforeCON	acq_US_unple_masked	acq1_masked	1	27	0	0	300	300	0	0	740	46	0	1	0	0	0	1	blank2r.bmp	0	1	+	0	8	C4r.bmp	492	1	blank2r.bmp	786	1	DHJF	786	1	blank2r.bmp	866	5	krise	866	0	0	0	0	0	0	0	0	0	0	0	0	0	0	0	0	0	0	0	0	0	0	0	0	0	0	0	0	0	0	0	0	0
022119	10:15:31	10:21:30	358051	5.0.10.0	4_exp_AMP_EVA_AWA_CON	132	Rpleas_acq	Same	Rpleas	Amasked	CS_A	1pleas	distractor2	EVAbeforeCON	acq_US_unple_masked	acq1_masked	1	28	0	0	300	300	0	0	739	46	0	1	0	0	0	1	blank2r.bmp	0	1	+	0	2	B2r.bmp	492	1	blank2r.bmp	786	1	DHJF	786	1	blank2r.bmp	866	6	gierig	866	0	0	0	0	0	0	0	0	0	0	0	0	0	0	0	0	0	0	0	0	0	0	0	0	0	0	0	0	0	0	0	0	0
022119	10:15:31	10:21:32	360290	5.0.10.0	4_exp_AMP_EVA_AWA_CON	132	Rpleas_acq	Same	Rpleas	Amasked	CS_A	1pleas	distractor2	EVAbeforeCON	acq_new_unple_masked	acq1_masked	1	29	0	0	300	300	0	0	759	46	0	1	0	0	0	1	blank2r.bmp	0	1	+	0	7	C3r.bmp	492	1	blank2r.bmp	786	2	B2r.bmp	786	1	blank2r.bmp	866	4	verbissen	866	0	0	0	0	0	0	0	0	0	0	0	0	0	0	0	0	0	0	0	0	0	0	0	0	0	0	0	0	0	0	0	0	0
022119	10:15:31	10:21:35	362476	5.0.10.0	4_exp_AMP_EVA_AWA_CON	132	Rpleas_acq	Same	Rpleas	Amasked	CS_A	1pleas	distractor2	EVAbeforeCON	acq_new_unple_masked	acq1_masked	1	30	0	0	300	300	0	0	711	46	0	1	0	0	0	1	blank2r.bmp	0	1	+	0	3	B3r.bmp	492	1	blank2r.bmp	786	6	C2r.bmp	786	1	blank2r.bmp	866	3	bange	866	0	0	0	0	0	0	0	0	0	0	0	0	0	0	0	0	0	0	0	0	0	0	0	0	0	0	0	0	0	0	0	0	0
022119	10:15:31	10:21:37	364529	5.0.10.0	4_exp_AMP_EVA_AWA_CON	132	Rpleas_acq	Same	Rpleas	Amasked	CS_A	1pleas	distractor2	EVAbeforeCON	acq_US_pleas_masked	acq1_masked	1	31	0	0	300	300	0	0	567	50	0	1	0	0	0	1	blank2r.bmp	0	1	+	0	5	C1r.bmp	492	1	blank2r.bmp	786	1	CPLW	786	1	blank2r.bmp	866	5	kuss	866	0	0	0	0	0	0	0	0	0	0	0	0	0	0	0	0	0	0	0	0	0	0	0	0	0	0	0	0	0	0	0	0	0
022119	10:15:31	10:21:39	366581	5.0.10.0	4_exp_AMP_EVA_AWA_CON	132	Rpleas_acq	Same	Rpleas	Amasked	CS_A	1pleas	distractor2	EVAbeforeCON	acq_US_unple_masked	acq1_masked	1	32	0	0	300	300	0	0	563	46	0	1	0	0	0	1	blank2r.bmp	0	1	+	0	4	B4r.bmp	492	1	blank2r.bmp	786	1	DHJF	786	1	blank2r.bmp	866	2	töten	866	0	0	0	0	0	0	0	0	0	0	0	0	0	0	0	0	0	0	0	0	0	0	0	0	0	0	0	0	0	0	0	0	0
022119	10:15:31	10:21:41	368834	5.0.10.0	4_exp_AMP_EVA_AWA_CON	132	Rpleas_acq	Same	Rpleas	Amasked	CS_A	1pleas	distractor2	EVAbeforeCON	acq_US_pleas_masked	acq1_masked	1	33	0	0	300	300	0	0	775	50	0	1	0	0	0	1	blank2r.bmp	0	1	+	0	8	C4r.bmp	492	1	blank2r.bmp	786	1	CPLW	786	1	blank2r.bmp	866	3	genießen	866	0	0	0	0	0	0	0	0	0	0	0	0	0	0	0	0	0	0	0	0	0	0	0	0	0	0	0	0	0	0	0	0	0
022119	10:15:31	10:21:43	370993	5.0.10.0	4_exp_AMP_EVA_AWA_CON	132	Rpleas_acq	Same	Rpleas	Amasked	CS_A	1pleas	distractor2	EVAbeforeCON	acq_new_pleas_masked	acq1_masked	1	34	0	0	300	300	0	0	680	50	0	1	0	0	0	1	blank2r.bmp	0	1	+	0	7	C3r.bmp	492	1	blank2r.bmp	786	4	B4r.bmp	786	1	blank2r.bmp	866	1	kreativ	866	0	0	0	0	0	0	0	0	0	0	0	0	0	0	0	0	0	0	0	0	0	0	0	0	0	0	0	0	0	0	0	0	0
022119	10:15:31	10:21:46	373445	5.0.10.0	4_exp_AMP_EVA_AWA_CON	132	Rpleas_acq	Same	Rpleas	Amasked	CS_A	1pleas	distractor2	EVAbeforeCON	acq_new_pleas_masked	acq1_masked	1	35	0	0	300	300	0	0	967	50	0	1	0	0	0	1	blank2r.bmp	0	1	+	0	3	B3r.bmp	492	1	blank2r.bmp	786	2	B2r.bmp	786	1	blank2r.bmp	866	4	vergnügt	866	0	0	0	0	0	0	0	0	0	0	0	0	0	0	0	0	0	0	0	0	0	0	0	0	0	0	0	0	0	0	0	0	0
022119	10:15:31	10:21:48	376071	5.0.10.0	4_exp_AMP_EVA_AWA_CON	132	Rpleas_acq	Same	Rpleas	Amasked	CS_A	1pleas	distractor2	EVAbeforeCON	acq_new_unple_masked	acq1_masked	1	36	0	0	300	300	0	0	1152	46	0	1	0	0	0	1	blank2r.bmp	0	1	+	0	1	B1r.bmp	492	1	blank2r.bmp	786	6	C2r.bmp	786	1	blank2r.bmp	866	2	engstirnig	866	0	0	0	0	0	0	0	0	0	0	0	0	0	0	0	0	0	0	0	0	0	0	0	0	0	0	0	0	0	0	0	0	0
022119	10:15:31	10:22:58	446175	5.0.10.0	4_exp_AMP_EVA_AWA_CON	132	Rpleas_acq	Same	Rpleas	Amasked	CS_A	1pleas	distractor2	EVAbeforeCON	acq_new_unple_masked	acq2_masked	2	1	480	0	300	300	0	0	1442	46	0	1	0	0	0	1	blank2r.bmp	0	1	+	0	4	B4r.bmp	492	1	blank2r.bmp	786	3	B3r.bmp	786	1	blank2r.bmp	866	1	krank	866	1	!	1319	1	!	-1	0	0	0	0	0	0	0	0	0	0	0	0	0	0	0	0	0	0	0	0	0	0	0	0	0	0	0
022119	10:15:31	10:23:04	451639	5.0.10.0	4_exp_AMP_EVA_AWA_CON	132	Rpleas_acq	Same	Rpleas	Amasked	CS_A	1pleas	distractor2	EVAbeforeCON	acq_US_unple_masked	acq2_masked	2	2	480	0	300	300	0	0	3688	46	0	1	0	0	0	1	blank2r.bmp	0	1	+	0	2	B2r.bmp	492	1	blank2r.bmp	786	1	DHJF	786	1	blank2r.bmp	866	4	sterben	866	1	!	1319	1	!	-1	0	0	0	0	0	0	0	0	0	0	0	0	0	0	0	0	0	0	0	0	0	0	0	0	0	0	0
022119	10:15:31	10:23:09	456371	5.0.10.0	4_exp_AMP_EVA_AWA_CON	132	Rpleas_acq	Same	Rpleas	Amasked	CS_A	1pleas	distractor2	EVAbeforeCON	acq_US_unple_masked	acq2_masked	2	3	480	0	300	300	0	0	2945	46	0	1	0	0	0	1	blank2r.bmp	0	1	+	0	5	C1r.bmp	492	1	blank2r.bmp	786	1	DHJF	786	1	blank2r.bmp	866	1	geizig	866	1	!	1319	1	!	-1	0	0	0	0	0	0	0	0	0	0	0	0	0	0	0	0	0	0	0	0	0	0	0	0	0	0	0
022119	10:15:31	10:23:12	459623	5.0.10.0	4_exp_AMP_EVA_AWA_CON	132	Rpleas_acq	Same	Rpleas	Amasked	CS_A	1pleas	distractor2	EVAbeforeCON	acq_new_pleas_masked	acq2_masked	2	4	480	0	300	300	0	0	1467	50	0	1	0	0	0	1	blank2r.bmp	0	1	+	0	6	C2r.bmp	492	1	blank2r.bmp	786	5	C1r.bmp	786	1	blank2r.bmp	866	3	besonnen	866	1	!	1319	1	!	-1	0	0	0	0	0	0	0	0	0	0	0	0	0	0	0	0	0	0	0	0	0	0	0	0	0	0	0
022119	10:15:31	10:23:16	463968	5.0.10.0	4_exp_AMP_EVA_AWA_CON	132	Rpleas_acq	Same	Rpleas	Amasked	CS_A	1pleas	distractor2	EVAbeforeCON	acq_US_pleas_masked	acq2_masked	2	5	480	0	300	300	0	0	2569	50	0	1	0	0	0	1	blank2r.bmp	0	1	+	0	5	C1r.bmp	492	1	blank2r.bmp	786	1	CPLW	786	1	blank2r.bmp	866	1	gesittet	866	1	!	1319	1	!	-1	0	0	0	0	0	0	0	0	0	0	0	0	0	0	0	0	0	0	0	0	0	0	0	0	0	0	0
022119	10:15:31	10:23:20	468379	5.0.10.0	4_exp_AMP_EVA_AWA_CON	132	Rpleas_acq	Same	Rpleas	Amasked	CS_A	1pleas	distractor2	EVAbeforeCON	acq_US_pleas_masked	acq2_masked	2	6	480	0	300	300	0	0	2625	50	0	1	0	0	0	1	blank2r.bmp	0	1	+	0	8	C4r.bmp	492	1	blank2r.bmp	786	1	CPLW	786	1	blank2r.bmp	866	2	träumen	866	1	!	1319	1	!	-1	0	0	0	0	0	0	0	0	0	0	0	0	0	0	0	0	0	0	0	0	0	0	0	0	0	0	0
022119	10:15:31	10:23:24	471711	5.0.10.0	4_exp_AMP_EVA_AWA_CON	132	Rpleas_acq	Same	Rpleas	Amasked	CS_A	1pleas	distractor2	EVAbeforeCON	acq_new_unple_masked	acq2_masked	2	7	480	0	300	300	0	0	1547	46	0	1	0	0	0	1	blank2r.bmp	0	1	+	0	1	B1r.bmp	492	1	blank2r.bmp	786	8	C4r.bmp	786	1	blank2r.bmp	866	5	ausrottung	866	1	!	1319	1	!	-1	0	0	0	0	0	0	0	0	0	0	0	0	0	0	0	0	0	0	0	0	0	0	0	0	0	0	0
022119	10:15:31	10:23:27	475043	5.0.10.0	4_exp_AMP_EVA_AWA_CON	132	Rpleas_acq	Same	Rpleas	Amasked	CS_A	1pleas	distractor2	EVAbeforeCON	acq_new_unple_masked	acq2_masked	2	8	480	0	300	300	0	0	1553	46	0	1	0	0	0	1	blank2r.bmp	0	1	+	0	6	C2r.bmp	492	1	blank2r.bmp	786	1	B1r.bmp	786	1	blank2r.bmp	866	6	versagen	866	1	!	1319	1	!	-1	0	0	0	0	0	0	0	0	0	0	0	0	0	0	0	0	0	0	0	0	0	0	0	0	0	0	0
022119	10:15:31	10:23:30	477829	5.0.10.0	4_exp_AMP_EVA_AWA_CON	132	Rpleas_acq	Same	Rpleas	Amasked	CS_A	1pleas	distractor2	EVAbeforeCON	acq_US_pleas_masked	acq2_masked	2	9	480	0	300	300	0	0	1006	50	0	1	0	0	0	1	blank2r.bmp	0	1	+	0	2	B2r.bmp	492	1	blank2r.bmp	786	1	CPLW	786	1	blank2r.bmp	866	6	gütig	866	1	!	1319	1	!	-1	0	0	0	0	0	0	0	0	0	0	0	0	0	0	0	0	0	0	0	0	0	0	0	0	0	0	0
022119	10:15:31	10:23:32	480361	5.0.10.0	4_exp_AMP_EVA_AWA_CON	132	Rpleas_acq	Same	Rpleas	Amasked	CS_A	1pleas	distractor2	EVAbeforeCON	acq_US_unple_masked	acq2_masked	2	10	480	0	300	300	0	0	745	46	0	1	0	0	0	1	blank2r.bmp	0	1	+	0	4	B4r.bmp	492	1	blank2r.bmp	786	1	DHJF	786	1	blank2r.bmp	866	3	gemein	866	1	!	1319	1	!	-1	0	0	0	0	0	0	0	0	0	0	0	0	0	0	0	0	0	0	0	0	0	0	0	0	0	0	0
022119	10:15:31	10:23:38	486145	5.0.10.0	4_exp_AMP_EVA_AWA_CON	132	Rpleas_acq	Same	Rpleas	Amasked	CS_A	1pleas	distractor2	EVAbeforeCON	acq_new_pleas_masked	acq2_masked	2	11	480	0	300	300	0	0	4003	50	0	1	0	0	0	1	blank2r.bmp	0	1	+	0	3	B3r.bmp	492	1	blank2r.bmp	786	4	B4r.bmp	786	1	blank2r.bmp	866	6	vertrauen	866	1	!	1319	1	!	-1	0	0	0	0	0	0	0	0	0	0	0	0	0	0	0	0	0	0	0	0	0	0	0	0	0	0	0
022119	10:15:31	10:23:42	489624	5.0.10.0	4_exp_AMP_EVA_AWA_CON	132	Rpleas_acq	Same	Rpleas	Amasked	CS_A	1pleas	distractor2	EVAbeforeCON	acq_new_pleas_masked	acq2_masked	2	12	480	0	300	300	0	0	1698	50	0	1	0	0	0	1	blank2r.bmp	0	1	+	0	7	C3r.bmp	492	1	blank2r.bmp	786	7	C3r.bmp	786	1	blank2r.bmp	866	5	anregung	866	1	!	1319	1	!	-1	0	0	0	0	0	0	0	0	0	0	0	0	0	0	0	0	0	0	0	0	0	0	0	0	0	0	0
022119	10:15:31	10:23:44	492023	5.0.10.0	4_exp_AMP_EVA_AWA_CON	132	Rpleas_acq	Same	Rpleas	Amasked	CS_A	1pleas	distractor2	EVAbeforeCON	acq_US_unple_masked	acq2_masked	2	13	480	0	300	300	0	0	620	46	0	1	0	0	0	1	blank2r.bmp	0	1	+	0	5	C1r.bmp	492	1	blank2r.bmp	786	1	DHJF	786	1	blank2r.bmp	866	5	krise	866	1	!	1319	1	!	-1	0	0	0	0	0	0	0	0	0	0	0	0	0	0	0	0	0	0	0	0	0	0	0	0	0	0	0
022119	10:15:31	10:23:48	496141	5.0.10.0	4_exp_AMP_EVA_AWA_CON	132	Rpleas_acq	Same	Rpleas	Amasked	CS_A	1pleas	distractor2	EVAbeforeCON	acq_US_pleas_masked	acq2_masked	2	14	480	0	300	300	0	0	2332	50	0	1	0	0	0	1	blank2r.bmp	0	1	+	0	3	B3r.bmp	492	1	blank2r.bmp	786	1	CPLW	786	1	blank2r.bmp	866	4	sonnig	866	1	!	1319	1	!	-1	0	0	0	0	0	0	0	0	0	0	0	0	0	0	0	0	0	0	0	0	0	0	0	0	0	0	0
022119	10:15:31	10:23:51	498780	5.0.10.0	4_exp_AMP_EVA_AWA_CON	132	Rpleas_acq	Same	Rpleas	Amasked	CS_A	1pleas	distractor2	EVAbeforeCON	acq_new_pleas_masked	acq2_masked	2	15	480	0	300	300	0	0	854	50	0	1	0	0	0	1	blank2r.bmp	0	1	+	0	6	C2r.bmp	492	1	blank2r.bmp	786	5	C1r.bmp	786	1	blank2r.bmp	866	1	kreativ	866	1	!	1319	1	!	-1	0	0	0	0	0	0	0	0	0	0	0	0	0	0	0	0	0	0	0	0	0	0	0	0	0	0	0
022119	10:15:31	10:23:53	501206	5.0.10.0	4_exp_AMP_EVA_AWA_CON	132	Rpleas_acq	Same	Rpleas	Amasked	CS_A	1pleas	distractor2	EVAbeforeCON	acq_new_unple_masked	acq2_masked	2	16	480	0	300	300	0	0	648	46	0	1	0	0	0	1	blank2r.bmp	0	1	+	0	4	B4r.bmp	492	1	blank2r.bmp	786	1	B1r.bmp	786	1	blank2r.bmp	866	2	engstirnig	866	1	!	1319	1	!	-1	0	0	0	0	0	0	0	0	0	0	0	0	0	0	0	0	0	0	0	0	0	0	0	0	0	0	0
022119	10:15:31	10:23:56	503698	5.0.10.0	4_exp_AMP_EVA_AWA_CON	132	Rpleas_acq	Same	Rpleas	Amasked	CS_A	1pleas	distractor2	EVAbeforeCON	acq_new_unple_masked	acq2_masked	2	17	480	0	300	300	0	0	717	46	0	1	0	0	0	1	blank2r.bmp	0	1	+	0	2	B2r.bmp	492	1	blank2r.bmp	786	7	C3r.bmp	786	1	blank2r.bmp	866	3	bange	866	1	!	1319	1	!	-1	0	0	0	0	0	0	0	0	0	0	0	0	0	0	0	0	0	0	0	0	0	0	0	0	0	0	0
022119	10:15:31	10:23:58	506324	5.0.10.0	4_exp_AMP_EVA_AWA_CON	132	Rpleas_acq	Same	Rpleas	Amasked	CS_A	1pleas	distractor2	EVAbeforeCON	acq_new_unple_masked	acq2_masked	2	18	480	0	300	300	0	0	839	46	0	1	0	0	0	1	blank2r.bmp	0	1	+	0	7	C3r.bmp	492	1	blank2r.bmp	786	2	B2r.bmp	786	1	blank2r.bmp	866	6	versagen	866	1	!	1319	1	!	-1	0	0	0	0	0	0	0	0	0	0	0	0	0	0	0	0	0	0	0	0	0	0	0	0	0	0	0
022119	10:15:31	10:24:01	509056	5.0.10.0	4_exp_AMP_EVA_AWA_CON	132	Rpleas_acq	Same	Rpleas	Amasked	CS_A	1pleas	distractor2	EVAbeforeCON	acq_US_pleas_masked	acq2_masked	2	19	480	0	300	300	0	0	957	50	0	1	0	0	0	1	blank2r.bmp	0	1	+	0	8	C4r.bmp	492	1	blank2r.bmp	786	1	CPLW	786	1	blank2r.bmp	866	2	träumen	866	1	!	1319	1	!	-1	0	0	0	0	0	0	0	0	0	0	0	0	0	0	0	0	0	0	0	0	0	0	0	0	0	0	0
022119	10:15:31	10:24:05	512748	5.0.10.0	4_exp_AMP_EVA_AWA_CON	132	Rpleas_acq	Same	Rpleas	Amasked	CS_A	1pleas	distractor2	EVAbeforeCON	acq_new_pleas_masked	acq2_masked	2	20	480	0	300	300	0	0	1896	50	0	1	0	0	0	1	blank2r.bmp	0	1	+	0	1	B1r.bmp	492	1	blank2r.bmp	786	8	C4r.bmp	786	1	blank2r.bmp	866	4	vergnügt	866	1	!	1319	1	!	-1	0	0	0	0	0	0	0	0	0	0	0	0	0	0	0	0	0	0	0	0	0	0	0	0	0	0	0
022119	10:15:31	10:24:07	515240	5.0.10.0	4_exp_AMP_EVA_AWA_CON	132	Rpleas_acq	Same	Rpleas	Amasked	CS_A	1pleas	distractor2	EVAbeforeCON	acq_US_pleas_masked	acq2_masked	2	21	480	0	300	300	0	0	708	50	0	1	0	0	0	1	blank2r.bmp	0	1	+	0	5	C1r.bmp	492	1	blank2r.bmp	786	1	CPLW	786	1	blank2r.bmp	866	5	kuss	866	1	!	1319	1	!	-1	0	0	0	0	0	0	0	0	0	0	0	0	0	0	0	0	0	0	0	0	0	0	0	0	0	0	0
022119	10:15:31	10:24:10	517759	5.0.10.0	4_exp_AMP_EVA_AWA_CON	132	Rpleas_acq	Same	Rpleas	Amasked	CS_A	1pleas	distractor2	EVAbeforeCON	acq_US_unple_masked	acq2_masked	2	22	480	0	300	300	0	0	736	46	0	1	0	0	0	1	blank2r.bmp	0	1	+	0	4	B4r.bmp	492	1	blank2r.bmp	786	1	DHJF	786	1	blank2r.bmp	866	6	gierig	866	1	!	1319	1	!	-1	0	0	0	0	0	0	0	0	0	0	0	0	0	0	0	0	0	0	0	0	0	0	0	0	0	0	0
022119	10:15:31	10:24:13	520584	5.0.10.0	4_exp_AMP_EVA_AWA_CON	132	Rpleas_acq	Same	Rpleas	Amasked	CS_A	1pleas	distractor2	EVAbeforeCON	acq_new_pleas_masked	acq2_masked	2	23	480	0	300	300	0	0	1031	50	0	1	0	0	0	1	blank2r.bmp	0	1	+	0	7	C3r.bmp	492	1	blank2r.bmp	786	4	B4r.bmp	786	1	blank2r.bmp	866	6	vertrauen	866	1	!	1319	1	!	-1	0	0	0	0	0	0	0	0	0	0	0	0	0	0	0	0	0	0	0	0	0	0	0	0	0	0	0
022119	10:15:31	10:24:15	523130	5.0.10.0	4_exp_AMP_EVA_AWA_CON	132	Rpleas_acq	Same	Rpleas	Amasked	CS_A	1pleas	distractor2	EVAbeforeCON	acq_US_unple_masked	acq2_masked	2	24	480	0	300	300	0	0	751	46	0	1	0	0	0	1	blank2r.bmp	0	1	+	0	2	B2r.bmp	492	1	blank2r.bmp	786	1	DHJF	786	1	blank2r.bmp	866	4	sterben	866	1	!	1319	1	!	-1	0	0	0	0	0	0	0	0	0	0	0	0	0	0	0	0	0	0	0	0	0	0	0	0	0	0	0
022119	10:15:31	10:24:18	526275	5.0.10.0	4_exp_AMP_EVA_AWA_CON	132	Rpleas_acq	Same	Rpleas	Amasked	CS_A	1pleas	distractor2	EVAbeforeCON	acq_new_pleas_masked	acq2_masked	2	25	480	0	300	300	0	0	1363	50	0	1	0	0	0	1	blank2r.bmp	0	1	+	0	3	B3r.bmp	492	1	blank2r.bmp	786	6	C2r.bmp	786	1	blank2r.bmp	866	2	engagiert	866	1	!	1319	1	!	-1	0	0	0	0	0	0	0	0	0	0	0	0	0	0	0	0	0	0	0	0	0	0	0	0	0	0	0
022119	10:15:31	10:24:22	529621	5.0.10.0	4_exp_AMP_EVA_AWA_CON	132	Rpleas_acq	Same	Rpleas	Amasked	CS_A	1pleas	distractor2	EVAbeforeCON	acq_US_unple_masked	acq2_masked	2	26	480	0	300	300	0	0	1569	46	0	1	0	0	0	1	blank2r.bmp	0	1	+	0	6	C2r.bmp	492	1	blank2r.bmp	786	1	DHJF	786	1	blank2r.bmp	866	2	töten	866	1	!	1319	1	!	-1	0	0	0	0	0	0	0	0	0	0	0	0	0	0	0	0	0	0	0	0	0	0	0	0	0	0	0
022119	10:15:31	10:24:24	532300	5.0.10.0	4_exp_AMP_EVA_AWA_CON	132	Rpleas_acq	Same	Rpleas	Amasked	CS_A	1pleas	distractor2	EVAbeforeCON	acq_new_unple_masked	acq2_masked	2	27	480	0	300	300	0	0	903	46	0	1	0	0	0	1	blank2r.bmp	0	1	+	0	8	C4r.bmp	492	1	blank2r.bmp	786	3	B3r.bmp	786	1	blank2r.bmp	866	4	verbissen	866	1	!	1319	1	!	-1	0	0	0	0	0	0	0	0	0	0	0	0	0	0	0	0	0	0	0	0	0	0	0	0	0	0	0
022119	10:15:31	10:24:27	535165	5.0.10.0	4_exp_AMP_EVA_AWA_CON	132	Rpleas_acq	Same	Rpleas	Amasked	CS_A	1pleas	distractor2	EVAbeforeCON	acq_US_pleas_masked	acq2_masked	2	28	480	0	300	300	0	0	1069	50	0	1	0	0	0	1	blank2r.bmp	0	1	+	0	1	B1r.bmp	492	1	blank2r.bmp	786	1	CPLW	786	1	blank2r.bmp	866	3	genießen	866	1	!	1319	1	!	-1	0	0	0	0	0	0	0	0	0	0	0	0	0	0	0	0	0	0	0	0	0	0	0	0	0	0	0
022119	10:15:31	10:24:30	537804	5.0.10.0	4_exp_AMP_EVA_AWA_CON	132	Rpleas_acq	Same	Rpleas	Amasked	CS_A	1pleas	distractor2	EVAbeforeCON	acq_US_pleas_masked	acq2_masked	2	29	480	0	300	300	0	0	857	50	0	1	0	0	0	1	blank2r.bmp	0	1	+	0	7	C3r.bmp	492	1	blank2r.bmp	786	1	CPLW	786	1	blank2r.bmp	866	6	gütig	866	1	!	1319	1	!	-1	0	0	0	0	0	0	0	0	0	0	0	0	0	0	0	0	0	0	0	0	0	0	0	0	0	0	0
022119	10:15:31	10:24:32	540310	5.0.10.0	4_exp_AMP_EVA_AWA_CON	132	Rpleas_acq	Same	Rpleas	Amasked	CS_A	1pleas	distractor2	EVAbeforeCON	acq_new_unple_masked	acq2_masked	2	30	480	0	300	300	0	0	712	46	0	1	0	0	0	1	blank2r.bmp	0	1	+	0	3	B3r.bmp	492	1	blank2r.bmp	786	1	B1r.bmp	786	1	blank2r.bmp	866	1	krank	866	1	!	1319	1	!	-1	0	0	0	0	0	0	0	0	0	0	0	0	0	0	0	0	0	0	0	0	0	0	0	0	0	0	0
022119	10:15:31	10:24:35	543362	5.0.10.0	4_exp_AMP_EVA_AWA_CON	132	Rpleas_acq	Same	Rpleas	Amasked	CS_A	1pleas	distractor2	EVAbeforeCON	acq_US_unple_masked	acq2_masked	2	31	480	0	300	300	0	0	1039	50	0	0	0	0	0	1	blank2r.bmp	0	1	+	0	1	B1r.bmp	492	1	blank2r.bmp	786	1	DHJF	786	1	blank2r.bmp	866	3	gemein	866	1	FEHLER	2252	1	!	1319	1	!	-1	0	0	0	0	0	0	0	0	0	0	0	0	0	0	0	0	0	0	0	0	0	0	0	0
022119	10:15:31	10:24:38	545761	5.0.10.0	4_exp_AMP_EVA_AWA_CON	132	Rpleas_acq	Same	Rpleas	Amasked	CS_A	1pleas	distractor2	EVAbeforeCON	acq_new_pleas_masked	acq2_masked	2	32	480	0	300	300	0	0	841	50	0	1	0	0	0	1	blank2r.bmp	0	1	+	0	6	C2r.bmp	492	1	blank2r.bmp	786	3	B3r.bmp	786	1	blank2r.bmp	866	5	anregung	866	1	!	1319	1	!	-1	0	0	0	0	0	0	0	0	0	0	0	0	0	0	0	0	0	0	0	0	0	0	0	0	0	0	0
022119	10:15:31	10:24:41	548560	5.0.10.0	4_exp_AMP_EVA_AWA_CON	132	Rpleas_acq	Same	Rpleas	Amasked	CS_A	1pleas	distractor2	EVAbeforeCON	acq_new_pleas_masked	acq2_masked	2	33	480	0	300	300	0	0	998	50	0	1	0	0	0	1	blank2r.bmp	0	1	+	0	4	B4r.bmp	492	1	blank2r.bmp	786	8	C4r.bmp	786	1	blank2r.bmp	866	3	besonnen	866	1	!	1319	1	!	-1	0	0	0	0	0	0	0	0	0	0	0	0	0	0	0	0	0	0	0	0	0	0	0	0	0	0	0
022119	10:15:31	10:24:43	551052	5.0.10.0	4_exp_AMP_EVA_AWA_CON	132	Rpleas_acq	Same	Rpleas	Amasked	CS_A	1pleas	distractor2	EVAbeforeCON	acq_US_unple_masked	acq2_masked	2	34	480	0	300	300	0	0	715	46	0	1	0	0	0	1	blank2r.bmp	0	1	+	0	5	C1r.bmp	492	1	blank2r.bmp	786	1	DHJF	786	1	blank2r.bmp	866	1	geizig	866	1	!	1319	1	!	-1	0	0	0	0	0	0	0	0	0	0	0	0	0	0	0	0	0	0	0	0	0	0	0	0	0	0	0
022119	10:15:31	10:24:46	553691	5.0.10.0	4_exp_AMP_EVA_AWA_CON	132	Rpleas_acq	Same	Rpleas	Amasked	CS_A	1pleas	distractor2	EVAbeforeCON	acq_US_pleas_masked	acq2_masked	2	35	480	0	300	300	0	0	862	50	0	1	0	0	0	1	blank2r.bmp	0	1	+	0	2	B2r.bmp	492	1	blank2r.bmp	786	1	CPLW	786	1	blank2r.bmp	866	1	gesittet	866	1	!	1319	1	!	-1	0	0	0	0	0	0	0	0	0	0	0	0	0	0	0	0	0	0	0	0	0	0	0	0	0	0	0
022119	10:15:31	10:24:48	556183	5.0.10.0	4_exp_AMP_EVA_AWA_CON	132	Rpleas_acq	Same	Rpleas	Amasked	CS_A	1pleas	distractor2	EVAbeforeCON	acq_new_unple_masked	acq2_masked	2	36	480	0	300	300	0	0	710	46	0	1	0	0	0	1	blank2r.bmp	0	1	+	0	8	C4r.bmp	492	1	blank2r.bmp	786	7	C3r.bmp	786	1	blank2r.bmp	866	5	ausrottung	866	1	!	1319	1	!	-1	0	0	0	0	0	0	0	0	0	0	0	0	0	0	0	0	0	0	0	0	0	0	0	0	0	0	0
022119	10:15:31	10:25:10	578147	5.0.10.0	4_exp_AMP_EVA_AWA_CON	132	Rpleas_acq	Same	Rpleas	Amasked	CS_A	1pleas	distractor2	EVAbeforeCON	acq_US_pleas_masked	acq3_masked	3	1	453	0	300	300	0	0	647	50	0	1	0	0	0	1	blank2r.bmp	0	1	+	0	5	C1r.bmp	492	1	blank2r.bmp	786	1	CPLW	786	1	blank2r.bmp	866	2	träumen	866	1	!	1292	1	!	-1	0	0	0	0	0	0	0	0	0	0	0	0	0	0	0	0	0	0	0	0	0	0	0	0	0	0	0
022119	10:15:31	10:25:13	580533	5.0.10.0	4_exp_AMP_EVA_AWA_CON	132	Rpleas_acq	Same	Rpleas	Amasked	CS_A	1pleas	distractor2	EVAbeforeCON	acq_US_unple_masked	acq3_masked	3	2	453	0	300	300	0	0	590	46	0	1	0	0	0	1	blank2r.bmp	0	1	+	0	2	B2r.bmp	492	1	blank2r.bmp	786	1	DHJF	786	1	blank2r.bmp	866	4	sterben	866	1	!	1292	1	!	-1	0	0	0	0	0	0	0	0	0	0	0	0	0	0	0	0	0	0	0	0	0	0	0	0	0	0	0
022119	10:15:31	10:25:15	582972	5.0.10.0	4_exp_AMP_EVA_AWA_CON	132	Rpleas_acq	Same	Rpleas	Amasked	CS_A	1pleas	distractor2	EVAbeforeCON	acq_US_unple_masked	acq3_masked	3	3	453	0	300	300	0	0	638	46	0	1	0	0	0	1	blank2r.bmp	0	1	+	0	1	B1r.bmp	492	1	blank2r.bmp	786	1	DHJF	786	1	blank2r.bmp	866	1	geizig	866	1	!	1292	1	!	-1	0	0	0	0	0	0	0	0	0	0	0	0	0	0	0	0	0	0	0	0	0	0	0	0	0	0	0
022119	10:15:31	10:25:18	585478	5.0.10.0	4_exp_AMP_EVA_AWA_CON	132	Rpleas_acq	Same	Rpleas	Amasked	CS_A	1pleas	distractor2	EVAbeforeCON	acq_US_pleas_masked	acq3_masked	3	4	453	0	300	300	0	0	736	50	0	1	0	0	0	1	blank2r.bmp	0	1	+	0	7	C3r.bmp	492	1	blank2r.bmp	786	1	CPLW	786	1	blank2r.bmp	866	1	gesittet	866	1	!	1292	1	!	-1	0	0	0	0	0	0	0	0	0	0	0	0	0	0	0	0	0	0	0	0	0	0	0	0	0	0	0
022119	10:15:31	10:25:20	587930	5.0.10.0	4_exp_AMP_EVA_AWA_CON	132	Rpleas_acq	Same	Rpleas	Amasked	CS_A	1pleas	distractor2	EVAbeforeCON	acq_US_pleas_masked	acq3_masked	3	5	453	0	300	300	0	0	661	50	0	1	0	0	0	1	blank2r.bmp	0	1	+	0	3	B3r.bmp	492	1	blank2r.bmp	786	1	CPLW	786	1	blank2r.bmp	866	4	sonnig	866	1	!	1292	1	!	-1	0	0	0	0	0	0	0	0	0	0	0	0	0	0	0	0	0	0	0	0	0	0	0	0	0	0	0
022119	10:15:31	10:25:23	590396	5.0.10.0	4_exp_AMP_EVA_AWA_CON	132	Rpleas_acq	Same	Rpleas	Amasked	CS_A	1pleas	distractor2	EVAbeforeCON	acq_US_unple_masked	acq3_masked	3	6	453	0	300	300	0	0	680	46	0	1	0	0	0	1	blank2r.bmp	0	1	+	0	4	B4r.bmp	492	1	blank2r.bmp	786	1	DHJF	786	1	blank2r.bmp	866	5	krise	866	1	!	1292	1	!	-1	0	0	0	0	0	0	0	0	0	0	0	0	0	0	0	0	0	0	0	0	0	0	0	0	0	0	0
022119	10:15:31	10:25:25	592848	5.0.10.0	4_exp_AMP_EVA_AWA_CON	132	Rpleas_acq	Same	Rpleas	Amasked	CS_A	1pleas	distractor2	EVAbeforeCON	acq_US_unple_masked	acq3_masked	3	7	453	0	300	300	0	0	674	46	0	1	0	0	0	1	blank2r.bmp	0	1	+	0	6	C2r.bmp	492	1	blank2r.bmp	786	1	DHJF	786	1	blank2r.bmp	866	3	gemein	866	1	!	1292	1	!	-1	0	0	0	0	0	0	0	0	0	0	0	0	0	0	0	0	0	0	0	0	0	0	0	0	0	0	0
022119	10:15:31	10:25:27	595287	5.0.10.0	4_exp_AMP_EVA_AWA_CON	132	Rpleas_acq	Same	Rpleas	Amasked	CS_A	1pleas	distractor2	EVAbeforeCON	acq_US_pleas_masked	acq3_masked	3	8	453	0	300	300	0	0	653	50	0	1	0	0	0	1	blank2r.bmp	0	1	+	0	8	C4r.bmp	492	1	blank2r.bmp	786	1	CPLW	786	1	blank2r.bmp	866	3	genießen	866	1	!	1292	1	!	-1	0	0	0	0	0	0	0	0	0	0	0	0	0	0	0	0	0	0	0	0	0	0	0	0	0	0	0
022119	10:15:31	10:25:30	597659	5.0.10.0	4_exp_AMP_EVA_AWA_CON	132	Rpleas_acq	Same	Rpleas	Amasked	CS_A	1pleas	distractor2	EVAbeforeCON	acq_US_unple_masked	acq3_masked	3	9	453	0	300	300	0	0	595	46	0	1	0	0	0	1	blank2r.bmp	0	1	+	0	6	C2r.bmp	492	1	blank2r.bmp	786	1	DHJF	786	1	blank2r.bmp	866	2	töten	866	1	!	1292	1	!	-1	0	0	0	0	0	0	0	0	0	0	0	0	0	0	0	0	0	0	0	0	0	0	0	0	0	0	0
022119	10:15:31	10:25:32	600032	5.0.10.0	4_exp_AMP_EVA_AWA_CON	132	Rpleas_acq	Same	Rpleas	Amasked	CS_A	1pleas	distractor2	EVAbeforeCON	acq_US_pleas_masked	acq3_masked	3	10	453	0	300	300	0	0	586	50	0	1	0	0	0	1	blank2r.bmp	0	1	+	0	7	C3r.bmp	492	1	blank2r.bmp	786	1	CPLW	786	1	blank2r.bmp	866	5	kuss	866	1	!	1292	1	!	-1	0	0	0	0	0	0	0	0	0	0	0	0	0	0	0	0	0	0	0	0	0	0	0	0	0	0	0
022119	10:15:31	10:25:34	602364	5.0.10.0	4_exp_AMP_EVA_AWA_CON	132	Rpleas_acq	Same	Rpleas	Amasked	CS_A	1pleas	distractor2	EVAbeforeCON	acq_US_unple_masked	acq3_masked	3	11	453	0	300	300	0	0	552	46	0	1	0	0	0	1	blank2r.bmp	0	1	+	0	3	B3r.bmp	492	1	blank2r.bmp	786	1	DHJF	786	1	blank2r.bmp	866	6	gierig	866	1	!	1292	1	!	-1	0	0	0	0	0	0	0	0	0	0	0	0	0	0	0	0	0	0	0	0	0	0	0	0	0	0	0
022119	10:15:31	10:25:37	604750	5.0.10.0	4_exp_AMP_EVA_AWA_CON	132	Rpleas_acq	Same	Rpleas	Amasked	CS_A	1pleas	distractor2	EVAbeforeCON	acq_US_pleas_masked	acq3_masked	3	12	453	0	300	300	0	0	600	50	0	1	0	0	0	1	blank2r.bmp	0	1	+	0	5	C1r.bmp	492	1	blank2r.bmp	786	1	CPLW	786	1	blank2r.bmp	866	6	gütig	866	1	!	1292	1	!	-1	0	0	0	0	0	0	0	0	0	0	0	0	0	0	0	0	0	0	0	0	0	0	0	0	0	0	0
022119	10:15:31	10:25:39	607269	5.0.10.0	4_exp_AMP_EVA_AWA_CON	132	Rpleas_acq	Same	Rpleas	Amasked	CS_A	1pleas	distractor2	EVAbeforeCON	acq_US_pleas_masked	acq3_masked	3	13	453	0	300	300	0	0	733	50	0	1	0	0	0	1	blank2r.bmp	0	1	+	0	2	B2r.bmp	492	1	blank2r.bmp	786	1	CPLW	786	1	blank2r.bmp	866	6	gütig	866	1	!	1292	1	!	-1	0	0	0	0	0	0	0	0	0	0	0	0	0	0	0	0	0	0	0	0	0	0	0	0	0	0	0
022119	10:15:31	10:25:42	609748	5.0.10.0	4_exp_AMP_EVA_AWA_CON	132	Rpleas_acq	Same	Rpleas	Amasked	CS_A	1pleas	distractor2	EVAbeforeCON	acq_US_unple_masked	acq3_masked	3	14	453	0	300	300	0	0	699	46	0	1	0	0	0	1	blank2r.bmp	0	1	+	0	1	B1r.bmp	492	1	blank2r.bmp	786	1	DHJF	786	1	blank2r.bmp	866	1	geizig	866	1	!	1292	1	!	-1	0	0	0	0	0	0	0	0	0	0	0	0	0	0	0	0	0	0	0	0	0	0	0	0	0	0	0
022119	10:15:31	10:25:44	612227	5.0.10.0	4_exp_AMP_EVA_AWA_CON	132	Rpleas_acq	Same	Rpleas	Amasked	CS_A	1pleas	distractor2	EVAbeforeCON	acq_US_unple_masked	acq3_masked	3	15	453	0	300	300	0	0	697	46	0	1	0	0	0	1	blank2r.bmp	0	1	+	0	4	B4r.bmp	492	1	blank2r.bmp	786	1	DHJF	786	1	blank2r.bmp	866	4	sterben	866	1	!	1292	1	!	-1	0	0	0	0	0	0	0	0	0	0	0	0	0	0	0	0	0	0	0	0	0	0	0	0	0	0	0
022119	10:15:31	10:25:47	614612	5.0.10.0	4_exp_AMP_EVA_AWA_CON	132	Rpleas_acq	Same	Rpleas	Amasked	CS_A	1pleas	distractor2	EVAbeforeCON	acq_US_pleas_masked	acq3_masked	3	16	453	0	300	300	0	0	602	50	0	1	0	0	0	1	blank2r.bmp	0	1	+	0	8	C4r.bmp	492	1	blank2r.bmp	786	1	CPLW	786	1	blank2r.bmp	866	2	träumen	866	1	!	1292	1	!	-1	0	0	0	0	0	0	0	0	0	0	0	0	0	0	0	0	0	0	0	0	0	0	0	0	0	0	0
022119	10:15:31	10:25:49	617038	5.0.10.0	4_exp_AMP_EVA_AWA_CON	132	Rpleas_acq	Same	Rpleas	Amasked	CS_A	1pleas	distractor2	EVAbeforeCON	acq_US_pleas_masked	acq3_masked	3	17	453	0	300	300	0	0	643	50	0	1	0	0	0	1	blank2r.bmp	0	1	+	0	3	B3r.bmp	492	1	blank2r.bmp	786	1	CPLW	786	1	blank2r.bmp	866	5	kuss	866	1	!	1292	1	!	-1	0	0	0	0	0	0	0	0	0	0	0	0	0	0	0	0	0	0	0	0	0	0	0	0	0	0	0
022119	10:15:31	10:25:52	619384	5.0.10.0	4_exp_AMP_EVA_AWA_CON	132	Rpleas_acq	Same	Rpleas	Amasked	CS_A	1pleas	distractor2	EVAbeforeCON	acq_US_unple_masked	acq3_masked	3	18	453	0	300	300	0	0	550	46	0	1	0	0	0	1	blank2r.bmp	0	1	+	0	1	B1r.bmp	492	1	blank2r.bmp	786	1	DHJF	786	1	blank2r.bmp	866	2	töten	866	1	!	1292	1	!	-1	0	0	0	0	0	0	0	0	0	0	0	0	0	0	0	0	0	0	0	0	0	0	0	0	0	0	0
022119	10:15:31	10:25:54	621529	5.0.10.0	4_exp_AMP_EVA_AWA_CON	132	Rpleas_acq	Same	Rpleas	Amasked	CS_A	1pleas	distractor2	EVAbeforeCON	acq_US_pleas_masked	acq3_masked	3	19	453	0	300	300	0	0	369	50	0	1	0	0	0	1	blank2r.bmp	0	1	+	0	7	C3r.bmp	492	1	blank2r.bmp	786	1	CPLW	786	1	blank2r.bmp	866	3	genießen	866	1	!	-1	1	!	-1	0	0	0	0	0	0	0	0	0	0	0	0	0	0	0	0	0	0	0	0	0	0	0	0	0	0	0
022119	10:15:31	10:25:56	624008	5.0.10.0	4_exp_AMP_EVA_AWA_CON	132	Rpleas_acq	Same	Rpleas	Amasked	CS_A	1pleas	distractor2	EVAbeforeCON	acq_US_pleas_masked	acq3_masked	3	20	453	0	300	300	0	0	686	50	0	1	0	0	0	1	blank2r.bmp	0	1	+	0	4	B4r.bmp	492	1	blank2r.bmp	786	1	CPLW	786	1	blank2r.bmp	866	1	gesittet	866	1	!	1292	1	!	-1	0	0	0	0	0	0	0	0	0	0	0	0	0	0	0	0	0	0	0	0	0	0	0	0	0	0	0
022119	10:15:31	10:25:59	626461	5.0.10.0	4_exp_AMP_EVA_AWA_CON	132	Rpleas_acq	Same	Rpleas	Amasked	CS_A	1pleas	distractor2	EVAbeforeCON	acq_US_unple_masked	acq3_masked	3	21	453	0	300	300	0	0	667	46	0	1	0	0	0	1	blank2r.bmp	0	1	+	0	8	C4r.bmp	492	1	blank2r.bmp	786	1	DHJF	786	1	blank2r.bmp	866	5	krise	866	1	!	1292	1	!	-1	0	0	0	0	0	0	0	0	0	0	0	0	0	0	0	0	0	0	0	0	0	0	0	0	0	0	0
022119	10:15:31	10:26:01	629020	5.0.10.0	4_exp_AMP_EVA_AWA_CON	132	Rpleas_acq	Same	Rpleas	Amasked	CS_A	1pleas	distractor2	EVAbeforeCON	acq_US_unple_masked	acq3_masked	3	22	453	0	300	300	0	0	766	46	0	1	0	0	0	1	blank2r.bmp	0	1	+	0	6	C2r.bmp	492	1	blank2r.bmp	786	1	DHJF	786	1	blank2r.bmp	866	3	gemein	866	1	!	1292	1	!	-1	0	0	0	0	0	0	0	0	0	0	0	0	0	0	0	0	0	0	0	0	0	0	0	0	0	0	0
022119	10:15:31	10:26:04	631552	5.0.10.0	4_exp_AMP_EVA_AWA_CON	132	Rpleas_acq	Same	Rpleas	Amasked	CS_A	1pleas	distractor2	EVAbeforeCON	acq_US_unple_masked	acq3_masked	3	23	453	0	300	300	0	0	747	46	0	1	0	0	0	1	blank2r.bmp	0	1	+	0	5	C1r.bmp	492	1	blank2r.bmp	786	1	DHJF	786	1	blank2r.bmp	866	6	gierig	866	1	!	1292	1	!	-1	0	0	0	0	0	0	0	0	0	0	0	0	0	0	0	0	0	0	0	0	0	0	0	0	0	0	0
022119	10:15:31	10:26:06	633978	5.0.10.0	4_exp_AMP_EVA_AWA_CON	132	Rpleas_acq	Same	Rpleas	Amasked	CS_A	1pleas	distractor2	EVAbeforeCON	acq_US_pleas_masked	acq3_masked	3	24	453	0	300	300	0	0	651	50	0	1	0	0	0	1	blank2r.bmp	0	1	+	0	2	B2r.bmp	492	1	blank2r.bmp	786	1	CPLW	786	1	blank2r.bmp	866	4	sonnig	866	1	!	1292	1	!	-1	0	0	0	0	0	0	0	0	0	0	0	0	0	0	0	0	0	0	0	0	0	0	0	0	0	0	0
022119	10:15:31	10:26:09	636403	5.0.10.0	4_exp_AMP_EVA_AWA_CON	132	Rpleas_acq	Same	Rpleas	Amasked	CS_A	1pleas	distractor2	EVAbeforeCON	acq_US_unple_masked	acq3_masked	3	25	453	0	300	300	0	0	626	46	0	1	0	0	0	1	blank2r.bmp	0	1	+	0	7	C3r.bmp	492	1	blank2r.bmp	786	1	DHJF	786	1	blank2r.bmp	866	1	geizig	866	1	!	1292	1	!	-1	0	0	0	0	0	0	0	0	0	0	0	0	0	0	0	0	0	0	0	0	0	0	0	0	0	0	0
022119	10:15:31	10:26:11	638842	5.0.10.0	4_exp_AMP_EVA_AWA_CON	132	Rpleas_acq	Same	Rpleas	Amasked	CS_A	1pleas	distractor2	EVAbeforeCON	acq_US_unple_masked	acq3_masked	3	26	453	0	300	300	0	0	664	46	0	1	0	0	0	1	blank2r.bmp	0	1	+	0	6	C2r.bmp	492	1	blank2r.bmp	786	1	DHJF	786	1	blank2r.bmp	866	4	sterben	866	1	!	1292	1	!	-1	0	0	0	0	0	0	0	0	0	0	0	0	0	0	0	0	0	0	0	0	0	0	0	0	0	0	0
022119	10:15:31	10:26:13	641281	5.0.10.0	4_exp_AMP_EVA_AWA_CON	132	Rpleas_acq	Same	Rpleas	Amasked	CS_A	1pleas	distractor2	EVAbeforeCON	acq_US_pleas_masked	acq3_masked	3	27	453	0	300	300	0	0	655	50	0	1	0	0	0	1	blank2r.bmp	0	1	+	0	2	B2r.bmp	492	1	blank2r.bmp	786	1	CPLW	786	1	blank2r.bmp	866	5	kuss	866	1	!	1292	1	!	-1	0	0	0	0	0	0	0	0	0	0	0	0	0	0	0	0	0	0	0	0	0	0	0	0	0	0	0
022119	10:15:31	10:26:16	643560	5.0.10.0	4_exp_AMP_EVA_AWA_CON	132	Rpleas_acq	Same	Rpleas	Amasked	CS_A	1pleas	distractor2	EVAbeforeCON	acq_US_pleas_masked	acq3_masked	3	28	453	0	300	300	0	0	269	46	0	0	0	0	0	1	blank2r.bmp	0	1	+	0	8	C4r.bmp	492	1	blank2r.bmp	786	1	CPLW	786	1	blank2r.bmp	866	3	genießen	866	1	FEHLER	1479	1	!	-1	1	!	-1	0	0	0	0	0	0	0	0	0	0	0	0	0	0	0	0	0	0	0	0	0	0	0	0
022119	10:15:31	10:26:18	645799	5.0.10.0	4_exp_AMP_EVA_AWA_CON	132	Rpleas_acq	Same	Rpleas	Amasked	CS_A	1pleas	distractor2	EVAbeforeCON	acq_US_pleas_masked	acq3_masked	3	29	453	0	300	300	0	0	690	50	0	1	0	0	0	1	blank2r.bmp	0	1	+	0	4	B4r.bmp	492	1	blank2r.bmp	786	1	CPLW	786	1	blank2r.bmp	866	6	gütig	866	1	!	1292	1	!	-1	0	0	0	0	0	0	0	0	0	0	0	0	0	0	0	0	0	0	0	0	0	0	0	0	0	0	0
022119	10:15:31	10:26:20	648212	5.0.10.0	4_exp_AMP_EVA_AWA_CON	132	Rpleas_acq	Same	Rpleas	Amasked	CS_A	1pleas	distractor2	EVAbeforeCON	acq_US_pleas_masked	acq3_masked	3	30	453	0	300	300	0	0	634	50	0	1	0	0	0	1	blank2r.bmp	0	1	+	0	3	B3r.bmp	492	1	blank2r.bmp	786	1	CPLW	786	1	blank2r.bmp	866	2	träumen	866	1	!	1292	1	!	-1	0	0	0	0	0	0	0	0	0	0	0	0	0	0	0	0	0	0	0	0	0	0	0	0	0	0	0
022119	10:15:31	10:26:23	650637	5.0.10.0	4_exp_AMP_EVA_AWA_CON	132	Rpleas_acq	Same	Rpleas	Amasked	CS_A	1pleas	distractor2	EVAbeforeCON	acq_US_unple_masked	acq3_masked	3	31	453	0	300	300	0	0	643	46	0	1	0	0	0	1	blank2r.bmp	0	1	+	0	5	C1r.bmp	492	1	blank2r.bmp	786	1	DHJF	786	1	blank2r.bmp	866	3	gemein	866	1	!	1292	1	!	-1	0	0	0	0	0	0	0	0	0	0	0	0	0	0	0	0	0	0	0	0	0	0	0	0	0	0	0
022119	10:15:31	10:26:25	653010	5.0.10.0	4_exp_AMP_EVA_AWA_CON	132	Rpleas_acq	Same	Rpleas	Amasked	CS_A	1pleas	distractor2	EVAbeforeCON	acq_US_unple_masked	acq3_masked	3	32	453	0	300	300	0	0	590	46	0	1	0	0	0	1	blank2r.bmp	0	1	+	0	1	B1r.bmp	492	1	blank2r.bmp	786	1	DHJF	786	1	blank2r.bmp	866	2	töten	866	1	!	1292	1	!	-1	0	0	0	0	0	0	0	0	0	0	0	0	0	0	0	0	0	0	0	0	0	0	0	0	0	0	0
022119	10:15:31	10:26:28	655409	5.0.10.0	4_exp_AMP_EVA_AWA_CON	132	Rpleas_acq	Same	Rpleas	Amasked	CS_A	1pleas	distractor2	EVAbeforeCON	acq_US_unple_masked	acq3_masked	3	33	453	0	300	300	0	0	598	46	0	1	0	0	0	1	blank2r.bmp	0	1	+	0	4	B4r.bmp	492	1	blank2r.bmp	786	1	DHJF	786	1	blank2r.bmp	866	6	gierig	866	1	!	1292	1	!	-1	0	0	0	0	0	0	0	0	0	0	0	0	0	0	0	0	0	0	0	0	0	0	0	0	0	0	0
022119	10:15:31	10:26:30	657861	5.0.10.0	4_exp_AMP_EVA_AWA_CON	132	Rpleas_acq	Same	Rpleas	Amasked	CS_A	1pleas	distractor2	EVAbeforeCON	acq_US_pleas_masked	acq3_masked	3	34	453	0	300	300	0	0	678	50	0	1	0	0	0	1	blank2r.bmp	0	1	+	0	5	C1r.bmp	492	1	blank2r.bmp	786	1	CPLW	786	1	blank2r.bmp	866	4	sonnig	866	1	!	1292	1	!	-1	0	0	0	0	0	0	0	0	0	0	0	0	0	0	0	0	0	0	0	0	0	0	0	0	0	0	0
022119	10:15:31	10:26:32	660287	5.0.10.0	4_exp_AMP_EVA_AWA_CON	132	Rpleas_acq	Same	Rpleas	Amasked	CS_A	1pleas	distractor2	EVAbeforeCON	acq_US_pleas_masked	acq3_masked	3	35	453	0	300	300	0	0	627	50	0	1	0	0	0	1	blank2r.bmp	0	1	+	0	3	B3r.bmp	492	1	blank2r.bmp	786	1	CPLW	786	1	blank2r.bmp	866	1	gesittet	866	1	!	1292	1	!	-1	0	0	0	0	0	0	0	0	0	0	0	0	0	0	0	0	0	0	0	0	0	0	0	0	0	0	0
022119	10:15:31	10:26:35	662726	5.0.10.0	4_exp_AMP_EVA_AWA_CON	132	Rpleas_acq	Same	Rpleas	Amasked	CS_A	1pleas	distractor2	EVAbeforeCON	acq_US_unple_masked	acq3_masked	3	36	453	0	300	300	0	0	658	46	0	1	0	0	0	1	blank2r.bmp	0	1	+	0	2	B2r.bmp	492	1	blank2r.bmp	786	1	DHJF	786	1	blank2r.bmp	866	5	krise	866	1	!	1292	1	!	-1	0	0	0	0	0	0	0	0	0	0	0	0	0	0	0	0	0	0	0	0	0	0	0	0	0	0	0
022119	10:15:31	10:26:56	684357	5.0.10.0	4_exp_AMP_EVA_AWA_CON	132	Rpleas_acq	Same	Rpleas	Amasked	CS_A	1pleas	distractor2	EVAbeforeCON	acq_US_unple_masked	acq45_masked	4	1	400	0	300	300	0	0	558	46	0	1	0	0	0	1	blank2r.bmp	0	1	+	0	7	C3r.bmp	492	1	blank2r.bmp	786	1	DHJF	786	1	blank2r.bmp	866	6	gierig	866	1	!	1239	1	!	-1	0	0	0	0	0	0	0	0	0	0	0	0	0	0	0	0	0	0	0	0	0	0	0	0	0	0	0
022119	10:15:31	10:26:59	686703	5.0.10.0	4_exp_AMP_EVA_AWA_CON	132	Rpleas_acq	Same	Rpleas	Amasked	CS_A	1pleas	distractor2	EVAbeforeCON	acq_US_pleas_masked	acq45_masked	4	2	400	0	300	300	0	0	571	50	0	1	0	0	0	1	blank2r.bmp	0	1	+	0	1	B1r.bmp	492	1	blank2r.bmp	786	1	CPLW	786	1	blank2r.bmp	866	3	genießen	866	1	!	1239	1	!	-1	0	0	0	0	0	0	0	0	0	0	0	0	0	0	0	0	0	0	0	0	0	0	0	0	0	0	0
022119	10:15:31	10:27:01	689128	5.0.10.0	4_exp_AMP_EVA_AWA_CON	132	Rpleas_acq	Same	Rpleas	Amasked	CS_A	1pleas	distractor2	EVAbeforeCON	acq_US_pleas_masked	acq45_masked	4	3	400	0	300	300	0	0	640	50	0	1	0	0	0	1	blank2r.bmp	0	1	+	0	6	C2r.bmp	492	1	blank2r.bmp	786	1	CPLW	786	1	blank2r.bmp	866	6	gütig	866	1	!	1239	1	!	-1	0	0	0	0	0	0	0	0	0	0	0	0	0	0	0	0	0	0	0	0	0	0	0	0	0	0	0
022119	10:15:31	10:27:04	691554	5.0.10.0	4_exp_AMP_EVA_AWA_CON	132	Rpleas_acq	Same	Rpleas	Amasked	CS_A	1pleas	distractor2	EVAbeforeCON	acq_US_pleas_masked	acq45_masked	4	4	400	0	300	300	0	0	649	46	0	0	0	0	0	1	blank2r.bmp	0	1	+	0	8	C4r.bmp	492	1	blank2r.bmp	786	1	CPLW	786	1	blank2r.bmp	866	1	gesittet	866	1	!	1239	1	!	-1	0	0	0	0	0	0	0	0	0	0	0	0	0	0	0	0	0	0	0	0	0	0	0	0	0	0	0
022119	10:15:31	10:27:06	693940	5.0.10.0	4_exp_AMP_EVA_AWA_CON	132	Rpleas_acq	Same	Rpleas	Amasked	CS_A	1pleas	distractor2	EVAbeforeCON	acq_US_pleas_masked	acq45_masked	4	5	400	0	300	300	0	0	606	50	0	1	0	0	0	1	blank2r.bmp	0	1	+	0	7	C3r.bmp	492	1	blank2r.bmp	786	1	CPLW	786	1	blank2r.bmp	866	2	träumen	866	1	!	1239	1	!	-1	0	0	0	0	0	0	0	0	0	0	0	0	0	0	0	0	0	0	0	0	0	0	0	0	0	0	0
022119	10:15:31	10:27:08	696339	5.0.10.0	4_exp_AMP_EVA_AWA_CON	132	Rpleas_acq	Same	Rpleas	Amasked	CS_A	1pleas	distractor2	EVAbeforeCON	acq_US_pleas_masked	acq45_masked	4	6	400	0	300	300	0	0	618	50	0	1	0	0	0	1	blank2r.bmp	0	1	+	0	5	C1r.bmp	492	1	blank2r.bmp	786	1	CPLW	786	1	blank2r.bmp	866	5	kuss	866	1	!	1239	1	!	-1	0	0	0	0	0	0	0	0	0	0	0	0	0	0	0	0	0	0	0	0	0	0	0	0	0	0	0
022119	10:15:31	10:27:11	698698	5.0.10.0	4_exp_AMP_EVA_AWA_CON	132	Rpleas_acq	Same	Rpleas	Amasked	CS_A	1pleas	distractor2	EVAbeforeCON	acq_US_pleas_masked	acq45_masked	4	7	400	0	300	300	0	0	579	50	0	1	0	0	0	1	blank2r.bmp	0	1	+	0	8	C4r.bmp	492	1	blank2r.bmp	786	1	CPLW	786	1	blank2r.bmp	866	4	sonnig	866	1	!	1239	1	!	-1	0	0	0	0	0	0	0	0	0	0	0	0	0	0	0	0	0	0	0	0	0	0	0	0	0	0	0
022119	10:15:31	10:27:13	701030	5.0.10.0	4_exp_AMP_EVA_AWA_CON	132	Rpleas_acq	Same	Rpleas	Amasked	CS_A	1pleas	distractor2	EVAbeforeCON	acq_US_unple_masked	acq45_masked	4	8	400	0	300	300	0	0	550	46	0	1	0	0	0	1	blank2r.bmp	0	1	+	0	4	B4r.bmp	492	1	blank2r.bmp	786	1	DHJF	786	1	blank2r.bmp	866	2	töten	866	1	!	1239	1	!	-1	0	0	0	0	0	0	0	0	0	0	0	0	0	0	0	0	0	0	0	0	0	0	0	0	0	0	0
022119	10:15:31	10:27:16	703389	5.0.10.0	4_exp_AMP_EVA_AWA_CON	132	Rpleas_acq	Same	Rpleas	Amasked	CS_A	1pleas	distractor2	EVAbeforeCON	acq_US_unple_masked	acq45_masked	4	9	400	0	300	300	0	0	575	46	0	1	0	0	0	1	blank2r.bmp	0	1	+	0	1	B1r.bmp	492	1	blank2r.bmp	786	1	DHJF	786	1	blank2r.bmp	866	4	sterben	866	1	!	1239	1	!	-1	0	0	0	0	0	0	0	0	0	0	0	0	0	0	0	0	0	0	0	0	0	0	0	0	0	0	0
022119	10:15:31	10:27:18	705801	5.0.10.0	4_exp_AMP_EVA_AWA_CON	132	Rpleas_acq	Same	Rpleas	Amasked	CS_A	1pleas	distractor2	EVAbeforeCON	acq_US_unple_masked	acq45_masked	4	10	400	0	300	300	0	0	635	46	0	1	0	0	0	1	blank2r.bmp	0	1	+	0	6	C2r.bmp	492	1	blank2r.bmp	786	1	DHJF	786	1	blank2r.bmp	866	3	gemein	866	1	!	1239	1	!	-1	0	0	0	0	0	0	0	0	0	0	0	0	0	0	0	0	0	0	0	0	0	0	0	0	0	0	0
022119	10:15:31	10:27:20	708227	5.0.10.0	4_exp_AMP_EVA_AWA_CON	132	Rpleas_acq	Same	Rpleas	Amasked	CS_A	1pleas	distractor2	EVAbeforeCON	acq_US_unple_masked	acq45_masked	4	11	400	0	300	300	0	0	629	50	0	0	0	0	0	1	blank2r.bmp	0	1	+	0	2	B2r.bmp	492	1	blank2r.bmp	786	1	DHJF	786	1	blank2r.bmp	866	1	geizig	866	1	!	1239	1	!	-1	0	0	0	0	0	0	0	0	0	0	0	0	0	0	0	0	0	0	0	0	0	0	0	0	0	0	0
022119	10:15:31	10:27:23	710519	5.0.10.0	4_exp_AMP_EVA_AWA_CON	132	Rpleas_acq	Same	Rpleas	Amasked	CS_A	1pleas	distractor2	EVAbeforeCON	acq_US_pleas_masked	acq45_masked	4	12	400	0	300	300	0	0	514	50	0	1	0	0	0	1	blank2r.bmp	0	1	+	0	3	B3r.bmp	492	1	blank2r.bmp	786	1	CPLW	786	1	blank2r.bmp	866	4	sonnig	866	1	!	1239	1	!	-1	0	0	0	0	0	0	0	0	0	0	0	0	0	0	0	0	0	0	0	0	0	0	0	0	0	0	0
022119	10:15:31	10:27:25	712878	5.0.10.0	4_exp_AMP_EVA_AWA_CON	132	Rpleas_acq	Same	Rpleas	Amasked	CS_A	1pleas	distractor2	EVAbeforeCON	acq_US_pleas_masked	acq45_masked	4	13	400	0	300	300	0	0	574	50	0	1	0	0	0	1	blank2r.bmp	0	1	+	0	3	B3r.bmp	492	1	blank2r.bmp	786	1	CPLW	786	1	blank2r.bmp	866	2	träumen	866	1	!	1239	1	!	-1	0	0	0	0	0	0	0	0	0	0	0	0	0	0	0	0	0	0	0	0	0	0	0	0	0	0	0
022119	10:15:31	10:27:27	715331	5.0.10.0	4_exp_AMP_EVA_AWA_CON	132	Rpleas_acq	Same	Rpleas	Amasked	CS_A	1pleas	distractor2	EVAbeforeCON	acq_US_pleas_masked	acq45_masked	4	14	400	0	300	300	0	0	667	50	0	1	0	0	0	1	blank2r.bmp	0	1	+	0	6	C2r.bmp	492	1	blank2r.bmp	786	1	CPLW	786	1	blank2r.bmp	866	6	gütig	866	1	!	1239	1	!	-1	0	0	0	0	0	0	0	0	0	0	0	0	0	0	0	0	0	0	0	0	0	0	0	0	0	0	0
022119	10:15:31	10:27:30	717743	5.0.10.0	4_exp_AMP_EVA_AWA_CON	132	Rpleas_acq	Same	Rpleas	Amasked	CS_A	1pleas	distractor2	EVAbeforeCON	acq_US_unple_masked	acq45_masked	4	15	400	0	300	300	0	0	632	46	0	1	0	0	0	1	blank2r.bmp	0	1	+	0	5	C1r.bmp	492	1	blank2r.bmp	786	1	DHJF	786	1	blank2r.bmp	866	5	krise	866	1	!	1239	1	!	-1	0	0	0	0	0	0	0	0	0	0	0	0	0	0	0	0	0	0	0	0	0	0	0	0	0	0	0
022119	10:15:31	10:27:32	720222	5.0.10.0	4_exp_AMP_EVA_AWA_CON	132	Rpleas_acq	Same	Rpleas	Amasked	CS_A	1pleas	distractor2	EVAbeforeCON	acq_US_unple_masked	acq45_masked	4	16	400	0	300	300	0	0	696	46	0	1	0	0	0	1	blank2r.bmp	0	1	+	0	4	B4r.bmp	492	1	blank2r.bmp	786	1	DHJF	786	1	blank2r.bmp	866	1	geizig	866	1	!	1239	1	!	-1	0	0	0	0	0	0	0	0	0	0	0	0	0	0	0	0	0	0	0	0	0	0	0	0	0	0	0
022119	10:15:31	10:27:35	722594	5.0.10.0	4_exp_AMP_EVA_AWA_CON	132	Rpleas_acq	Same	Rpleas	Amasked	CS_A	1pleas	distractor2	EVAbeforeCON	acq_US_unple_masked	acq45_masked	4	17	400	0	300	300	0	0	587	46	0	1	0	0	0	1	blank2r.bmp	0	1	+	0	7	C3r.bmp	492	1	blank2r.bmp	786	1	DHJF	786	1	blank2r.bmp	866	2	töten	866	1	!	1239	1	!	-1	0	0	0	0	0	0	0	0	0	0	0	0	0	0	0	0	0	0	0	0	0	0	0	0	0	0	0
022119	10:15:31	10:27:37	724913	5.0.10.0	4_exp_AMP_EVA_AWA_CON	132	Rpleas_acq	Same	Rpleas	Amasked	CS_A	1pleas	distractor2	EVAbeforeCON	acq_US_unple_masked	acq45_masked	4	18	400	0	300	300	0	0	542	46	0	1	0	0	0	1	blank2r.bmp	0	1	+	0	2	B2r.bmp	492	1	blank2r.bmp	786	1	DHJF	786	1	blank2r.bmp	866	4	sterben	866	1	!	1239	1	!	-1	0	0	0	0	0	0	0	0	0	0	0	0	0	0	0	0	0	0	0	0	0	0	0	0	0	0	0
022119	10:15:31	10:27:39	727259	5.0.10.0	4_exp_AMP_EVA_AWA_CON	132	Rpleas_acq	Same	Rpleas	Amasked	CS_A	1pleas	distractor2	EVAbeforeCON	acq_US_pleas_masked	acq45_masked	4	19	400	0	300	300	0	0	566	50	0	1	0	0	0	1	blank2r.bmp	0	1	+	0	8	C4r.bmp	492	1	blank2r.bmp	786	1	CPLW	786	1	blank2r.bmp	866	5	kuss	866	1	!	1239	1	!	-1	0	0	0	0	0	0	0	0	0	0	0	0	0	0	0	0	0	0	0	0	0	0	0	0	0	0	0
022119	10:15:31	10:27:42	729618	5.0.10.0	4_exp_AMP_EVA_AWA_CON	132	Rpleas_acq	Same	Rpleas	Amasked	CS_A	1pleas	distractor2	EVAbeforeCON	acq_US_unple_masked	acq45_masked	4	20	400	0	300	300	0	0	576	46	0	1	0	0	0	1	blank2r.bmp	0	1	+	0	1	B1r.bmp	492	1	blank2r.bmp	786	1	DHJF	786	1	blank2r.bmp	866	5	krise	866	1	!	1239	1	!	-1	0	0	0	0	0	0	0	0	0	0	0	0	0	0	0	0	0	0	0	0	0	0	0	0	0	0	0
022119	10:15:31	10:27:44	731924	5.0.10.0	4_exp_AMP_EVA_AWA_CON	132	Rpleas_acq	Same	Rpleas	Amasked	CS_A	1pleas	distractor2	EVAbeforeCON	acq_US_unple_masked	acq45_masked	4	21	400	0	300	300	0	0	528	46	0	1	0	0	0	1	blank2r.bmp	0	1	+	0	6	C2r.bmp	492	1	blank2r.bmp	786	1	DHJF	786	1	blank2r.bmp	866	3	gemein	866	1	!	1239	1	!	-1	0	0	0	0	0	0	0	0	0	0	0	0	0	0	0	0	0	0	0	0	0	0	0	0	0	0	0
022119	10:15:31	10:27:47	734416	5.0.10.0	4_exp_AMP_EVA_AWA_CON	132	Rpleas_acq	Same	Rpleas	Amasked	CS_A	1pleas	distractor2	EVAbeforeCON	acq_US_unple_masked	acq45_masked	4	22	400	0	300	300	0	0	706	46	0	1	0	0	0	1	blank2r.bmp	0	1	+	0	2	B2r.bmp	492	1	blank2r.bmp	786	1	DHJF	786	1	blank2r.bmp	866	6	gierig	866	1	!	1239	1	!	-1	0	0	0	0	0	0	0	0	0	0	0	0	0	0	0	0	0	0	0	0	0	0	0	0	0	0	0
022119	10:15:31	10:27:49	736775	5.0.10.0	4_exp_AMP_EVA_AWA_CON	132	Rpleas_acq	Same	Rpleas	Amasked	CS_A	1pleas	distractor2	EVAbeforeCON	acq_US_pleas_masked	acq45_masked	4	23	400	0	300	300	0	0	582	50	0	1	0	0	0	1	blank2r.bmp	0	1	+	0	8	C4r.bmp	492	1	blank2r.bmp	786	1	CPLW	786	1	blank2r.bmp	866	1	gesittet	866	1	!	1239	1	!	-1	0	0	0	0	0	0	0	0	0	0	0	0	0	0	0	0	0	0	0	0	0	0	0	0	0	0	0
022119	10:15:31	10:27:51	739121	5.0.10.0	4_exp_AMP_EVA_AWA_CON	132	Rpleas_acq	Same	Rpleas	Amasked	CS_A	1pleas	distractor2	EVAbeforeCON	acq_US_pleas_masked	acq45_masked	4	24	400	0	300	300	0	0	570	50	0	1	0	0	0	1	blank2r.bmp	0	1	+	0	1	B1r.bmp	492	1	blank2r.bmp	786	1	CPLW	786	1	blank2r.bmp	866	3	genießen	866	1	!	1239	1	!	-1	0	0	0	0	0	0	0	0	0	0	0	0	0	0	0	0	0	0	0	0	0	0	0	0	0	0	0
022119	10:15:31	10:27:54	741480	5.0.10.0	4_exp_AMP_EVA_AWA_CON	132	Rpleas_acq	Same	Rpleas	Amasked	CS_A	1pleas	distractor2	EVAbeforeCON	acq_US_unple_masked	acq45_masked	4	25	400	0	300	300	0	0	567	46	0	1	0	0	0	1	blank2r.bmp	0	1	+	0	4	B4r.bmp	492	1	blank2r.bmp	786	1	DHJF	786	1	blank2r.bmp	866	1	geizig	866	1	!	1239	1	!	-1	0	0	0	0	0	0	0	0	0	0	0	0	0	0	0	0	0	0	0	0	0	0	0	0	0	0	0
022119	10:15:31	10:27:56	743812	5.0.10.0	4_exp_AMP_EVA_AWA_CON	132	Rpleas_acq	Same	Rpleas	Amasked	CS_A	1pleas	distractor2	EVAbeforeCON	acq_US_pleas_masked	acq45_masked	4	26	400	0	300	300	0	0	547	50	0	1	0	0	0	1	blank2r.bmp	0	1	+	0	7	C3r.bmp	492	1	blank2r.bmp	786	1	CPLW	786	1	blank2r.bmp	866	2	träumen	866	1	!	1239	1	!	-1	0	0	0	0	0	0	0	0	0	0	0	0	0	0	0	0	0	0	0	0	0	0	0	0	0	0	0
022119	10:15:31	10:27:58	746185	5.0.10.0	4_exp_AMP_EVA_AWA_CON	132	Rpleas_acq	Same	Rpleas	Amasked	CS_A	1pleas	distractor2	EVAbeforeCON	acq_US_unple_masked	acq45_masked	4	27	400	0	300	300	0	0	595	46	0	1	0	0	0	1	blank2r.bmp	0	1	+	0	3	B3r.bmp	492	1	blank2r.bmp	786	1	DHJF	786	1	blank2r.bmp	866	3	gemein	866	1	!	1239	1	!	-1	0	0	0	0	0	0	0	0	0	0	0	0	0	0	0	0	0	0	0	0	0	0	0	0	0	0	0
022119	10:15:31	10:28:01	748584	5.0.10.0	4_exp_AMP_EVA_AWA_CON	132	Rpleas_acq	Same	Rpleas	Amasked	CS_A	1pleas	distractor2	EVAbeforeCON	acq_US_pleas_masked	acq45_masked	4	28	400	0	300	300	0	0	612	50	0	1	0	0	0	1	blank2r.bmp	0	1	+	0	5	C1r.bmp	492	1	blank2r.bmp	786	1	CPLW	786	1	blank2r.bmp	866	5	kuss	866	1	!	1239	1	!	-1	0	0	0	0	0	0	0	0	0	0	0	0	0	0	0	0	0	0	0	0	0	0	0	0	0	0	0
022119	10:15:31	10:28:03	750863	5.0.10.0	4_exp_AMP_EVA_AWA_CON	132	Rpleas_acq	Same	Rpleas	Amasked	CS_A	1pleas	distractor2	EVAbeforeCON	acq_US_unple_masked	acq45_masked	4	29	400	0	300	300	0	0	493	46	0	1	0	0	0	1	blank2r.bmp	0	1	+	0	3	B3r.bmp	492	1	blank2r.bmp	786	1	DHJF	786	1	blank2r.bmp	866	5	krise	866	1	!	1239	1	!	-1	0	0	0	0	0	0	0	0	0	0	0	0	0	0	0	0	0	0	0	0	0	0	0	0	0	0	0
022119	10:15:31	10:28:05	753195	5.0.10.0	4_exp_AMP_EVA_AWA_CON	132	Rpleas_acq	Same	Rpleas	Amasked	CS_A	1pleas	distractor2	EVAbeforeCON	acq_US_unple_masked	acq45_masked	4	30	400	0	300	300	0	0	558	46	0	1	0	0	0	1	blank2r.bmp	0	1	+	0	6	C2r.bmp	492	1	blank2r.bmp	786	1	DHJF	786	1	blank2r.bmp	866	4	sterben	866	1	!	1239	1	!	-1	0	0	0	0	0	0	0	0	0	0	0	0	0	0	0	0	0	0	0	0	0	0	0	0	0	0	0
022119	10:15:31	10:28:08	755501	5.0.10.0	4_exp_AMP_EVA_AWA_CON	132	Rpleas_acq	Same	Rpleas	Amasked	CS_A	1pleas	distractor2	EVAbeforeCON	acq_US_pleas_masked	acq45_masked	4	31	400	0	300	300	0	0	531	50	0	1	0	0	0	1	blank2r.bmp	0	1	+	0	7	C3r.bmp	492	1	blank2r.bmp	786	1	CPLW	786	1	blank2r.bmp	866	4	sonnig	866	1	!	1239	1	!	-1	0	0	0	0	0	0	0	0	0	0	0	0	0	0	0	0	0	0	0	0	0	0	0	0	0	0	0
022119	10:15:31	10:28:10	757980	5.0.10.0	4_exp_AMP_EVA_AWA_CON	132	Rpleas_acq	Same	Rpleas	Amasked	CS_A	1pleas	distractor2	EVAbeforeCON	acq_US_pleas_masked	acq45_masked	4	32	400	0	300	300	0	0	689	46	0	0	0	0	0	1	blank2r.bmp	0	1	+	0	8	C4r.bmp	492	1	blank2r.bmp	786	1	CPLW	786	1	blank2r.bmp	866	3	genießen	866	1	!	1239	1	!	-1	0	0	0	0	0	0	0	0	0	0	0	0	0	0	0	0	0	0	0	0	0	0	0	0	0	0	0
022119	10:15:31	10:28:13	760539	5.0.10.0	4_exp_AMP_EVA_AWA_CON	132	Rpleas_acq	Same	Rpleas	Amasked	CS_A	1pleas	distractor2	EVAbeforeCON	acq_US_pleas_masked	acq45_masked	4	33	400	0	300	300	0	0	782	50	0	1	0	0	0	1	blank2r.bmp	0	1	+	0	4	B4r.bmp	492	1	blank2r.bmp	786	1	CPLW	786	1	blank2r.bmp	866	6	gütig	866	1	!	1239	1	!	-1	0	0	0	0	0	0	0	0	0	0	0	0	0	0	0	0	0	0	0	0	0	0	0	0	0	0	0
022119	10:15:31	10:28:15	763298	5.0.10.0	4_exp_AMP_EVA_AWA_CON	132	Rpleas_acq	Same	Rpleas	Amasked	CS_A	1pleas	distractor2	EVAbeforeCON	acq_US_pleas_masked	acq45_masked	4	34	400	0	300	300	0	0	964	50	0	1	0	0	0	1	blank2r.bmp	0	1	+	0	1	B1r.bmp	492	1	blank2r.bmp	786	1	CPLW	786	1	blank2r.bmp	866	1	gesittet	866	1	!	1239	1	!	-1	0	0	0	0	0	0	0	0	0	0	0	0	0	0	0	0	0	0	0	0	0	0	0	0	0	0	0
022119	10:15:31	10:28:18	765670	5.0.10.0	4_exp_AMP_EVA_AWA_CON	132	Rpleas_acq	Same	Rpleas	Amasked	CS_A	1pleas	distractor2	EVAbeforeCON	acq_US_unple_masked	acq45_masked	4	35	400	0	300	300	0	0	598	46	0	1	0	0	0	1	blank2r.bmp	0	1	+	0	5	C1r.bmp	492	1	blank2r.bmp	786	1	DHJF	786	1	blank2r.bmp	866	6	gierig	866	1	!	1239	1	!	-1	0	0	0	0	0	0	0	0	0	0	0	0	0	0	0	0	0	0	0	0	0	0	0	0	0	0	0
022119	10:15:31	10:28:20	767896	5.0.10.0	4_exp_AMP_EVA_AWA_CON	132	Rpleas_acq	Same	Rpleas	Amasked	CS_A	1pleas	distractor2	EVAbeforeCON	acq_US_unple_masked	acq45_masked	4	36	400	1	300	300	0	0	420	46	0	1	0	0	0	1	blank2r.bmp	0	1	+	0	2	B2r.bmp	492	1	blank2r.bmp	786	1	DHJF	786	1	blank2r.bmp	866	2	töten	866	1	!	1239	1	!	1319	0	0	0	0	0	0	0	0	0	0	0	0	0	0	0	0	0	0	0	0	0	0	0	0	0	0	0
022119	10:15:31	10:28:52	799869	5.0.10.0	4_exp_AMP_EVA_AWA_CON	132	Rpleas_acq	Same	Rpleas	Amasked	CS_A	1pleas	distractor2	EVAbeforeCON	acq_US_unple_masked	acq45_masked	5	1	400	0	300	300	0	0	1540	46	0	1	0	0	0	1	blank2r.bmp	0	1	+	0	6	C2r.bmp	492	1	blank2r.bmp	786	1	DHJF	786	1	blank2r.bmp	866	6	gierig	866	1	!	1239	1	!	-1	0	0	0	0	0	0	0	0	0	0	0	0	0	0	0	0	0	0	0	0	0	0	0	0	0	0	0
022119	10:15:31	10:28:54	802322	5.0.10.0	4_exp_AMP_EVA_AWA_CON	132	Rpleas_acq	Same	Rpleas	Amasked	CS_A	1pleas	distractor2	EVAbeforeCON	acq_US_pleas_masked	acq45_masked	5	2	400	0	300	300	0	0	677	50	0	1	0	0	0	1	blank2r.bmp	0	1	+	0	2	B2r.bmp	492	1	blank2r.bmp	786	1	CPLW	786	1	blank2r.bmp	866	5	kuss	866	1	!	1239	1	!	-1	0	0	0	0	0	0	0	0	0	0	0	0	0	0	0	0	0	0	0	0	0	0	0	0	0	0	0
022119	10:15:31	10:28:57	804694	5.0.10.0	4_exp_AMP_EVA_AWA_CON	132	Rpleas_acq	Same	Rpleas	Amasked	CS_A	1pleas	distractor2	EVAbeforeCON	acq_US_pleas_masked	acq45_masked	5	3	400	0	300	300	0	0	589	50	0	1	0	0	0	1	blank2r.bmp	0	1	+	0	7	C3r.bmp	492	1	blank2r.bmp	786	1	CPLW	786	1	blank2r.bmp	866	4	sonnig	866	1	!	1239	1	!	-1	0	0	0	0	0	0	0	0	0	0	0	0	0	0	0	0	0	0	0	0	0	0	0	0	0	0	0
022119	10:15:31	10:28:59	806760	5.0.10.0	4_exp_AMP_EVA_AWA_CON	132	Rpleas_acq	Same	Rpleas	Amasked	CS_A	1pleas	distractor2	EVAbeforeCON	acq_US_pleas_masked	acq45_masked	5	4	400	0	300	300	0	0	289	46	0	0	0	0	0	1	blank2r.bmp	0	1	+	0	1	B1r.bmp	492	1	blank2r.bmp	786	1	CPLW	786	1	blank2r.bmp	866	2	träumen	866	1	!	-1	1	!	-1	0	0	0	0	0	0	0	0	0	0	0	0	0	0	0	0	0	0	0	0	0	0	0	0	0	0	0
022119	10:15:31	10:29:01	809092	5.0.10.0	4_exp_AMP_EVA_AWA_CON	132	Rpleas_acq	Same	Rpleas	Amasked	CS_A	1pleas	distractor2	EVAbeforeCON	acq_US_unple_masked	acq45_masked	5	5	400	0	300	300	0	0	554	46	0	1	0	0	0	1	blank2r.bmp	0	1	+	0	4	B4r.bmp	492	1	blank2r.bmp	786	1	DHJF	786	1	blank2r.bmp	866	5	krise	866	1	!	1239	1	!	-1	0	0	0	0	0	0	0	0	0	0	0	0	0	0	0	0	0	0	0	0	0	0	0	0	0	0	0
022119	10:15:31	10:29:04	811518	5.0.10.0	4_exp_AMP_EVA_AWA_CON	132	Rpleas_acq	Same	Rpleas	Amasked	CS_A	1pleas	distractor2	EVAbeforeCON	acq_US_unple_masked	acq45_masked	5	6	400	0	300	300	0	0	648	46	0	1	0	0	0	1	blank2r.bmp	0	1	+	0	5	C1r.bmp	492	1	blank2r.bmp	786	1	DHJF	786	1	blank2r.bmp	866	4	sterben	866	1	!	1239	1	!	-1	0	0	0	0	0	0	0	0	0	0	0	0	0	0	0	0	0	0	0	0	0	0	0	0	0	0	0
022119	10:15:31	10:29:06	813903	5.0.10.0	4_exp_AMP_EVA_AWA_CON	132	Rpleas_acq	Same	Rpleas	Amasked	CS_A	1pleas	distractor2	EVAbeforeCON	acq_US_pleas_masked	acq45_masked	5	7	400	0	300	300	0	0	601	50	0	1	0	0	0	1	blank2r.bmp	0	1	+	0	8	C4r.bmp	492	1	blank2r.bmp	786	1	CPLW	786	1	blank2r.bmp	866	1	gesittet	866	1	!	1239	1	!	-1	0	0	0	0	0	0	0	0	0	0	0	0	0	0	0	0	0	0	0	0	0	0	0	0	0	0	0
022119	10:15:31	10:29:09	816502	5.0.10.0	4_exp_AMP_EVA_AWA_CON	132	Rpleas_acq	Same	Rpleas	Amasked	CS_A	1pleas	distractor2	EVAbeforeCON	acq_US_pleas_masked	acq45_masked	5	8	400	0	300	300	0	0	823	50	0	1	0	0	0	1	blank2r.bmp	0	1	+	0	3	B3r.bmp	492	1	blank2r.bmp	786	1	CPLW	786	1	blank2r.bmp	866	3	genießen	866	1	!	1239	1	!	-1	0	0	0	0	0	0	0	0	0	0	0	0	0	0	0	0	0	0	0	0	0	0	0	0	0	0	0
022119	10:15:31	10:29:11	818781	5.0.10.0	4_exp_AMP_EVA_AWA_CON	132	Rpleas_acq	Same	Rpleas	Amasked	CS_A	1pleas	distractor2	EVAbeforeCON	acq_US_unple_masked	acq45_masked	5	9	400	0	300	300	0	0	499	46	0	1	0	0	0	1	blank2r.bmp	0	1	+	0	5	C1r.bmp	492	1	blank2r.bmp	786	1	DHJF	786	1	blank2r.bmp	866	2	töten	866	1	!	1239	1	!	-1	0	0	0	0	0	0	0	0	0	0	0	0	0	0	0	0	0	0	0	0	0	0	0	0	0	0	0
022119	10:15:31	10:29:14	821394	5.0.10.0	4_exp_AMP_EVA_AWA_CON	132	Rpleas_acq	Same	Rpleas	Amasked	CS_A	1pleas	distractor2	EVAbeforeCON	acq_US_unple_masked	acq45_masked	5	10	400	0	300	300	0	0	833	46	0	1	0	0	0	1	blank2r.bmp	0	1	+	0	1	B1r.bmp	492	1	blank2r.bmp	786	1	DHJF	786	1	blank2r.bmp	866	3	gemein	866	1	!	1239	1	!	-1	0	0	0	0	0	0	0	0	0	0	0	0	0	0	0	0	0	0	0	0	0	0	0	0	0	0	0
022119	10:15:31	10:29:17	824646	5.0.10.0	4_exp_AMP_EVA_AWA_CON	132	Rpleas_acq	Same	Rpleas	Amasked	CS_A	1pleas	distractor2	EVAbeforeCON	acq_US_pleas_masked	acq45_masked	5	11	400	0	300	300	0	0	1465	50	0	1	0	0	0	1	blank2r.bmp	0	1	+	0	2	B2r.bmp	492	1	blank2r.bmp	786	1	CPLW	786	1	blank2r.bmp	866	6	gütig	866	1	!	1239	1	!	-1	0	0	0	0	0	0	0	0	0	0	0	0	0	0	0	0	0	0	0	0	0	0	0	0	0	0	0
022119	10:15:31	10:29:19	826978	5.0.10.0	4_exp_AMP_EVA_AWA_CON	132	Rpleas_acq	Same	Rpleas	Amasked	CS_A	1pleas	distractor2	EVAbeforeCON	acq_US_pleas_masked	acq45_masked	5	12	400	0	300	300	0	0	555	50	0	1	0	0	0	1	blank2r.bmp	0	1	+	0	8	C4r.bmp	492	1	blank2r.bmp	786	1	CPLW	786	1	blank2r.bmp	866	5	kuss	866	1	!	1239	1	!	-1	0	0	0	0	0	0	0	0	0	0	0	0	0	0	0	0	0	0	0	0	0	0	0	0	0	0	0
022119	10:15:31	10:29:21	829137	5.0.10.0	4_exp_AMP_EVA_AWA_CON	132	Rpleas_acq	Same	Rpleas	Amasked	CS_A	1pleas	distractor2	EVAbeforeCON	acq_US_unple_masked	acq45_masked	5	13	400	1	300	300	0	0	357	46	0	1	0	0	0	1	blank2r.bmp	0	1	+	0	4	B4r.bmp	492	1	blank2r.bmp	786	1	DHJF	786	1	blank2r.bmp	866	1	geizig	866	1	!	1239	1	!	1252	0	0	0	0	0	0	0	0	0	0	0	0	0	0	0	0	0	0	0	0	0	0	0	0	0	0	0
022119	10:15:31	10:29:24	831403	5.0.10.0	4_exp_AMP_EVA_AWA_CON	132	Rpleas_acq	Same	Rpleas	Amasked	CS_A	1pleas	distractor2	EVAbeforeCON	acq_US_unple_masked	acq45_masked	5	14	400	0	300	300	0	0	497	46	0	1	0	0	0	1	blank2r.bmp	0	1	+	0	7	C3r.bmp	492	1	blank2r.bmp	786	1	DHJF	786	1	blank2r.bmp	866	6	gierig	866	1	!	1239	1	!	-1	0	0	0	0	0	0	0	0	0	0	0	0	0	0	0	0	0	0	0	0	0	0	0	0	0	0	0
022119	10:15:31	10:29:26	833695	5.0.10.0	4_exp_AMP_EVA_AWA_CON	132	Rpleas_acq	Same	Rpleas	Amasked	CS_A	1pleas	distractor2	EVAbeforeCON	acq_US_pleas_masked	acq45_masked	5	15	400	0	300	300	0	0	516	50	0	1	0	0	0	1	blank2r.bmp	0	1	+	0	3	B3r.bmp	492	1	blank2r.bmp	786	1	CPLW	786	1	blank2r.bmp	866	3	genießen	866	1	!	1239	1	!	-1	0	0	0	0	0	0	0	0	0	0	0	0	0	0	0	0	0	0	0	0	0	0	0	0	0	0	0
022119	10:15:31	10:29:28	835601	5.0.10.0	4_exp_AMP_EVA_AWA_CON	132	Rpleas_acq	Same	Rpleas	Amasked	CS_A	1pleas	distractor2	EVAbeforeCON	acq_US_pleas_masked	acq45_masked	5	16	400	0	300	300	0	0	120	46	0	0	0	0	0	1	blank2r.bmp	0	1	+	0	6	C2r.bmp	492	1	blank2r.bmp	786	1	CPLW	786	1	blank2r.bmp	866	1	gesittet	866	1	!	-1	1	!	-1	0	0	0	0	0	0	0	0	0	0	0	0	0	0	0	0	0	0	0	0	0	0	0	0	0	0	0
022119	10:15:31	10:29:30	837814	5.0.10.0	4_exp_AMP_EVA_AWA_CON	132	Rpleas_acq	Same	Rpleas	Amasked	CS_A	1pleas	distractor2	EVAbeforeCON	acq_US_unple_masked	acq45_masked	5	17	400	1	300	300	0	0	401	46	0	1	0	0	0	1	blank2r.bmp	0	1	+	0	3	B3r.bmp	492	1	blank2r.bmp	786	1	DHJF	786	1	blank2r.bmp	866	5	krise	866	1	!	1239	1	!	1306	0	0	0	0	0	0	0	0	0	0	0	0	0	0	0	0	0	0	0	0	0	0	0	0	0	0	0
022119	10:15:31	10:29:32	839893	5.0.10.0	4_exp_AMP_EVA_AWA_CON	132	Rpleas_acq	Same	Rpleas	Amasked	CS_A	1pleas	distractor2	EVAbeforeCON	acq_US_unple_masked	acq45_masked	5	18	400	0	300	300	0	0	311	50	0	0	0	0	0	1	blank2r.bmp	0	1	+	0	1	B1r.bmp	492	1	blank2r.bmp	786	1	DHJF	786	1	blank2r.bmp	866	2	töten	866	1	!	-1	1	!	-1	0	0	0	0	0	0	0	0	0	0	0	0	0	0	0	0	0	0	0	0	0	0	0	0	0	0	0
022119	10:15:31	10:29:34	841999	5.0.10.0	4_exp_AMP_EVA_AWA_CON	132	Rpleas_acq	Same	Rpleas	Amasked	CS_A	1pleas	distractor2	EVAbeforeCON	acq_US_pleas_masked	acq45_masked	5	19	400	0	300	300	0	0	323	46	0	0	0	0	0	1	blank2r.bmp	0	1	+	0	5	C1r.bmp	492	1	blank2r.bmp	786	1	CPLW	786	1	blank2r.bmp	866	6	gütig	866	1	!	-1	1	!	-1	0	0	0	0	0	0	0	0	0	0	0	0	0	0	0	0	0	0	0	0	0	0	0	0	0	0	0
022119	10:15:31	10:29:36	844064	5.0.10.0	4_exp_AMP_EVA_AWA_CON	132	Rpleas_acq	Same	Rpleas	Amasked	CS_A	1pleas	distractor2	EVAbeforeCON	acq_US_pleas_masked	acq45_masked	5	20	400	0	300	300	0	0	280	46	0	0	0	0	0	1	blank2r.bmp	0	1	+	0	7	C3r.bmp	492	1	blank2r.bmp	786	1	CPLW	786	1	blank2r.bmp	866	4	sonnig	866	1	!	-1	1	!	-1	0	0	0	0	0	0	0	0	0	0	0	0	0	0	0	0	0	0	0	0	0	0	0	0	0	0	0
022119	10:15:31	10:29:38	846330	5.0.10.0	4_exp_AMP_EVA_AWA_CON	132	Rpleas_acq	Same	Rpleas	Amasked	CS_A	1pleas	distractor2	EVAbeforeCON	acq_US_pleas_masked	acq45_masked	5	21	400	0	300	300	0	0	479	50	0	1	0	0	0	1	blank2r.bmp	0	1	+	0	2	B2r.bmp	492	1	blank2r.bmp	786	1	CPLW	786	1	blank2r.bmp	866	2	träumen	866	1	!	1239	1	!	-1	0	0	0	0	0	0	0	0	0	0	0	0	0	0	0	0	0	0	0	0	0	0	0	0	0	0	0
022119	10:15:31	10:29:41	848649	5.0.10.0	4_exp_AMP_EVA_AWA_CON	132	Rpleas_acq	Same	Rpleas	Amasked	CS_A	1pleas	distractor2	EVAbeforeCON	acq_US_pleas_masked	acq45_masked	5	22	400	0	300	300	0	0	532	50	0	1	0	0	0	1	blank2r.bmp	0	1	+	0	4	B4r.bmp	492	1	blank2r.bmp	786	1	CPLW	786	1	blank2r.bmp	866	6	gütig	866	1	!	1239	1	!	-1	0	0	0	0	0	0	0	0	0	0	0	0	0	0	0	0	0	0	0	0	0	0	0	0	0	0	0
022119	10:15:31	10:29:43	850968	5.0.10.0	4_exp_AMP_EVA_AWA_CON	132	Rpleas_acq	Same	Rpleas	Amasked	CS_A	1pleas	distractor2	EVAbeforeCON	acq_US_unple_masked	acq45_masked	5	23	400	0	300	300	0	0	519	46	0	1	0	0	0	1	blank2r.bmp	0	1	+	0	8	C4r.bmp	492	1	blank2r.bmp	786	1	DHJF	786	1	blank2r.bmp	866	1	geizig	866	1	!	1239	1	!	-1	0	0	0	0	0	0	0	0	0	0	0	0	0	0	0	0	0	0	0	0	0	0	0	0	0	0	0
022119	10:15:31	10:29:45	853207	5.0.10.0	4_exp_AMP_EVA_AWA_CON	132	Rpleas_acq	Same	Rpleas	Amasked	CS_A	1pleas	distractor2	EVAbeforeCON	acq_US_unple_masked	acq45_masked	5	24	400	1	300	300	0	0	438	50	0	0	0	0	0	1	blank2r.bmp	0	1	+	0	6	C2r.bmp	492	1	blank2r.bmp	786	1	DHJF	786	1	blank2r.bmp	866	3	gemein	866	1	!	1239	1	!	1332	0	0	0	0	0	0	0	0	0	0	0	0	0	0	0	0	0	0	0	0	0	0	0	0	0	0	0
022119	10:15:31	10:29:48	855460	5.0.10.0	4_exp_AMP_EVA_AWA_CON	132	Rpleas_acq	Same	Rpleas	Amasked	CS_A	1pleas	distractor2	EVAbeforeCON	acq_US_pleas_masked	acq45_masked	5	25	400	1	300	300	0	0	458	50	0	1	0	0	0	1	blank2r.bmp	0	1	+	0	5	C1r.bmp	492	1	blank2r.bmp	786	1	CPLW	786	1	blank2r.bmp	866	3	genießen	866	1	!	1239	1	!	1359	0	0	0	0	0	0	0	0	0	0	0	0	0	0	0	0	0	0	0	0	0	0	0	0	0	0	0
022119	10:15:31	10:29:50	857712	5.0.10.0	4_exp_AMP_EVA_AWA_CON	132	Rpleas_acq	Same	Rpleas	Amasked	CS_A	1pleas	distractor2	EVAbeforeCON	acq_US_unple_masked	acq45_masked	5	26	400	0	300	300	0	0	479	46	0	1	0	0	0	1	blank2r.bmp	0	1	+	0	4	B4r.bmp	492	1	blank2r.bmp	786	1	DHJF	786	1	blank2r.bmp	866	4	sterben	866	1	!	1239	1	!	-1	0	0	0	0	0	0	0	0	0	0	0	0	0	0	0	0	0	0	0	0	0	0	0	0	0	0	0
022119	10:15:31	10:29:52	859925	5.0.10.0	4_exp_AMP_EVA_AWA_CON	132	Rpleas_acq	Same	Rpleas	Amasked	CS_A	1pleas	distractor2	EVAbeforeCON	acq_US_unple_masked	acq45_masked	5	27	400	1	300	300	0	0	386	46	0	1	0	0	0	1	blank2r.bmp	0	1	+	0	7	C3r.bmp	492	1	blank2r.bmp	786	1	DHJF	786	1	blank2r.bmp	866	2	töten	866	1	!	1239	1	!	1292	0	0	0	0	0	0	0	0	0	0	0	0	0	0	0	0	0	0	0	0	0	0	0	0	0	0	0
022119	10:15:31	10:29:54	862164	5.0.10.0	4_exp_AMP_EVA_AWA_CON	132	Rpleas_acq	Same	Rpleas	Amasked	CS_A	1pleas	distractor2	EVAbeforeCON	acq_US_pleas_masked	acq45_masked	5	28	400	1	300	300	0	0	429	50	0	1	0	0	0	1	blank2r.bmp	0	1	+	0	8	C4r.bmp	492	1	blank2r.bmp	786	1	CPLW	786	1	blank2r.bmp	866	5	kuss	866	1	!	1239	1	!	1332	0	0	0	0	0	0	0	0	0	0	0	0	0	0	0	0	0	0	0	0	0	0	0	0	0	0	0
022119	10:15:31	10:29:57	864403	5.0.10.0	4_exp_AMP_EVA_AWA_CON	132	Rpleas_acq	Same	Rpleas	Amasked	CS_A	1pleas	distractor2	EVAbeforeCON	acq_US_unple_masked	acq45_masked	5	29	400	1	300	300	0	0	444	46	0	1	0	0	0	1	blank2r.bmp	0	1	+	0	2	B2r.bmp	492	1	blank2r.bmp	786	1	DHJF	786	1	blank2r.bmp	866	5	krise	866	1	!	1239	1	!	1346	0	0	0	0	0	0	0	0	0	0	0	0	0	0	0	0	0	0	0	0	0	0	0	0	0	0	0
022119	10:15:31	10:29:59	866562	5.0.10.0	4_exp_AMP_EVA_AWA_CON	132	Rpleas_acq	Same	Rpleas	Amasked	CS_A	1pleas	distractor2	EVAbeforeCON	acq_US_pleas_masked	acq45_masked	5	30	400	1	300	300	0	0	350	50	0	1	0	0	0	1	blank2r.bmp	0	1	+	0	3	B3r.bmp	492	1	blank2r.bmp	786	1	CPLW	786	1	blank2r.bmp	866	2	träumen	866	1	!	1239	1	!	1252	0	0	0	0	0	0	0	0	0	0	0	0	0	0	0	0	0	0	0	0	0	0	0	0	0	0	0
022119	10:15:31	10:30:01	868788	5.0.10.0	4_exp_AMP_EVA_AWA_CON	132	Rpleas_acq	Same	Rpleas	Amasked	CS_A	1pleas	distractor2	EVAbeforeCON	acq_US_unple_masked	acq45_masked	5	31	400	1	300	300	0	0	426	46	0	1	0	0	0	1	blank2r.bmp	0	1	+	0	6	C2r.bmp	492	1	blank2r.bmp	786	1	DHJF	786	1	blank2r.bmp	866	1	geizig	866	1	!	1239	1	!	1332	0	0	0	0	0	0	0	0	0	0	0	0	0	0	0	0	0	0	0	0	0	0	0	0	0	0	0
022119	10:15:31	10:30:03	870973	5.0.10.0	4_exp_AMP_EVA_AWA_CON	132	Rpleas_acq	Same	Rpleas	Amasked	CS_A	1pleas	distractor2	EVAbeforeCON	acq_US_unple_masked	acq45_masked	5	32	400	1	300	300	0	0	397	46	0	1	0	0	0	1	blank2r.bmp	0	1	+	0	1	B1r.bmp	492	1	blank2r.bmp	786	1	DHJF	786	1	blank2r.bmp	866	6	gierig	866	1	!	1239	1	!	1292	0	0	0	0	0	0	0	0	0	0	0	0	0	0	0	0	0	0	0	0	0	0	0	0	0	0	0
022119	10:15:31	10:30:05	873252	5.0.10.0	4_exp_AMP_EVA_AWA_CON	132	Rpleas_acq	Same	Rpleas	Amasked	CS_A	1pleas	distractor2	EVAbeforeCON	acq_US_pleas_masked	acq45_masked	5	33	400	0	300	300	0	0	505	50	0	1	0	0	0	1	blank2r.bmp	0	1	+	0	8	C4r.bmp	492	1	blank2r.bmp	786	1	CPLW	786	1	blank2r.bmp	866	1	gesittet	866	1	!	1239	1	!	-1	0	0	0	0	0	0	0	0	0	0	0	0	0	0	0	0	0	0	0	0	0	0	0	0	0	0	0
022119	10:15:31	10:30:08	875411	5.0.10.0	4_exp_AMP_EVA_AWA_CON	132	Rpleas_acq	Same	Rpleas	Amasked	CS_A	1pleas	distractor2	EVAbeforeCON	acq_US_pleas_masked	acq45_masked	5	34	400	1	300	300	0	0	346	46	0	0	0	0	0	1	blank2r.bmp	0	1	+	0	7	C3r.bmp	492	1	blank2r.bmp	786	1	CPLW	786	1	blank2r.bmp	866	4	sonnig	866	1	!	1239	1	!	1252	0	0	0	0	0	0	0	0	0	0	0	0	0	0	0	0	0	0	0	0	0	0	0	0	0	0	0
022119	10:15:31	10:30:10	877584	5.0.10.0	4_exp_AMP_EVA_AWA_CON	132	Rpleas_acq	Same	Rpleas	Amasked	CS_A	1pleas	distractor2	EVAbeforeCON	acq_US_unple_masked	acq45_masked	5	35	400	1	300	300	0	0	378	50	0	0	0	0	0	1	blank2r.bmp	0	1	+	0	6	C2r.bmp	492	1	blank2r.bmp	786	1	DHJF	786	1	blank2r.bmp	866	4	sterben	866	1	!	1239	1	!	1279	0	0	0	0	0	0	0	0	0	0	0	0	0	0	0	0	0	0	0	0	0	0	0	0	0	0	0
022119	10:15:31	10:30:12	879850	5.0.10.0	4_exp_AMP_EVA_AWA_CON	132	Rpleas_acq	Same	Rpleas	Amasked	CS_A	1pleas	distractor2	EVAbeforeCON	acq_US_unple_masked	acq45_masked	5	36	400	0	300	300	0	0	479	46	0	1	0	0	0	1	blank2r.bmp	0	1	+	0	2	B2r.bmp	492	1	blank2r.bmp	786	1	DHJF	786	1	blank2r.bmp	866	3	gemein	866	1	!	1239	1	!	-1	0	0	0	0	0	0	0	0	0	0	0	0	0	0	0	0	0	0	0	0	0	0	0	0	0	0	0
022119	10:15:31	10:30:47	914675	5.0.10.0	4_exp_AMP_EVA_AWA_CON	132	Rpleas_acq	Same	Rpleas	Amasked	CS_A	1pleas	distractor2	EVAbeforeCON	AMP_CSunple	AMP1_masked	6	1	0	0	300	300	0	0	5183	46	0	1	0	0	0	1	blank2r.bmp	0	1	DHJF	0	1	blank2r.bmp	79	136	pic136.bmp	199	1	whitenoise_No3.bmp	306	0	0	0	0	0	0	0	0	0	0	0	0	0	0	0	0	0	0	0	0	0	0	0	0	0	0	0	0	0	0	0	0	0	0	0	0	0	0	0
022119	10:15:31	10:30:50	918340	5.0.10.0	4_exp_AMP_EVA_AWA_CON	132	Rpleas_acq	Same	Rpleas	Amasked	CS_A	1pleas	distractor2	EVAbeforeCON	AMP_distractor	AMP1_masked	6	2	0	0	300	300	0	0	2747	46	0	0	0	0	0	1	blank2r.bmp	0	1	QYSB	0	1	blank2r.bmp	79	33	pic33.bmp	199	1	whitenoise_No3.bmp	306	0	0	0	0	0	0	0	0	0	0	0	0	0	0	0	0	0	0	0	0	0	0	0	0	0	0	0	0	0	0	0	0	0	0	0	0	0	0	0
022119	10:15:31	10:30:55	922379	5.0.10.0	4_exp_AMP_EVA_AWA_CON	132	Rpleas_acq	Same	Rpleas	Amasked	CS_A	1pleas	distractor2	EVAbeforeCON	AMP_CSunple	AMP1_masked	6	3	0	0	300	300	0	0	3121	50	0	0	0	0	0	1	blank2r.bmp	0	1	DHJF	0	1	blank2r.bmp	79	67	pic67.bmp	199	1	whitenoise_No3.bmp	306	0	0	0	0	0	0	0	0	0	0	0	0	0	0	0	0	0	0	0	0	0	0	0	0	0	0	0	0	0	0	0	0	0	0	0	0	0	0	0
022119	10:15:31	10:31:32	959444	5.0.10.0	4_exp_AMP_EVA_AWA_CON	132	Rpleas_acq	Same	Rpleas	Amasked	CS_A	1pleas	distractor2	EVAbeforeCON	AMP_CSunple	AMP1_masked	6	4	0	0	300	300	0	0	36154	46	0	1	0	0	0	1	blank2r.bmp	0	1	DHJF	0	1	blank2r.bmp	79	125	pic125.bmp	199	1	whitenoise_No3.bmp	306	0	0	0	0	0	0	0	0	0	0	0	0	0	0	0	0	0	0	0	0	0	0	0	0	0	0	0	0	0	0	0	0	0	0	0	0	0	0	0
022119	10:15:31	10:31:55	983047	5.0.10.0	4_exp_AMP_EVA_AWA_CON	132	Rpleas_acq	Same	Rpleas	Amasked	CS_A	1pleas	distractor2	EVAbeforeCON	AMP_CSpleas	AMP1_masked	6	5	0	0	300	300	0	0	22670	50	0	1	0	0	0	1	blank2r.bmp	0	1	CPLW	0	1	blank2r.bmp	79	26	pic26.bmp	199	1	whitenoise_No3.bmp	306	0	0	0	0	0	0	0	0	0	0	0	0	0	0	0	0	0	0	0	0	0	0	0	0	0	0	0	0	0	0	0	0	0	0	0	0	0	0	0
022119	10:15:31	10:31:57	984646	5.0.10.0	4_exp_AMP_EVA_AWA_CON	132	Rpleas_acq	Same	Rpleas	Amasked	CS_A	1pleas	distractor2	EVAbeforeCON	AMP_CSpleas	AMP1_masked	6	6	0	0	300	300	0	0	682	50	0	1	0	0	0	1	blank2r.bmp	0	1	CPLW	0	1	blank2r.bmp	79	127	pic127.bmp	199	1	whitenoise_No3.bmp	306	0	0	0	0	0	0	0	0	0	0	0	0	0	0	0	0	0	0	0	0	0	0	0	0	0	0	0	0	0	0	0	0	0	0	0	0	0	0	0
022119	10:15:31	10:31:58	986166	5.0.10.0	4_exp_AMP_EVA_AWA_CON	132	Rpleas_acq	Same	Rpleas	Amasked	CS_A	1pleas	distractor2	EVAbeforeCON	AMP_CSpleas	AMP1_masked	6	7	0	0	300	300	0	0	593	50	0	1	0	0	0	1	blank2r.bmp	0	1	CPLW	0	1	blank2r.bmp	79	79	pic79.bmp	199	1	whitenoise_No3.bmp	306	0	0	0	0	0	0	0	0	0	0	0	0	0	0	0	0	0	0	0	0	0	0	0	0	0	0	0	0	0	0	0	0	0	0	0	0	0	0	0
022119	10:15:31	10:32:00	987992	5.0.10.0	4_exp_AMP_EVA_AWA_CON	132	Rpleas_acq	Same	Rpleas	Amasked	CS_A	1pleas	distractor2	EVAbeforeCON	AMP_CSpleas	AMP1_masked	6	8	0	0	300	300	0	0	910	46	0	0	0	0	0	1	blank2r.bmp	0	1	CPLW	0	1	blank2r.bmp	79	122	pic122.bmp	199	1	whitenoise_No3.bmp	306	0	0	0	0	0	0	0	0	0	0	0	0	0	0	0	0	0	0	0	0	0	0	0	0	0	0	0	0	0	0	0	0	0	0	0	0	0	0	0
022119	10:15:31	10:32:03	990951	5.0.10.0	4_exp_AMP_EVA_AWA_CON	132	Rpleas_acq	Same	Rpleas	Amasked	CS_A	1pleas	distractor2	EVAbeforeCON	AMP_CSunple	AMP1_masked	6	9	0	0	300	300	0	0	2047	46	0	1	0	0	0	1	blank2r.bmp	0	1	DHJF	0	1	blank2r.bmp	79	75	pic75.bmp	199	1	whitenoise_No3.bmp	306	0	0	0	0	0	0	0	0	0	0	0	0	0	0	0	0	0	0	0	0	0	0	0	0	0	0	0	0	0	0	0	0	0	0	0	0	0	0	0
022119	10:15:31	10:32:05	993230	5.0.10.0	4_exp_AMP_EVA_AWA_CON	132	Rpleas_acq	Same	Rpleas	Amasked	CS_A	1pleas	distractor2	EVAbeforeCON	AMP_CSpleas	AMP1_masked	6	10	0	0	300	300	0	0	1363	46	0	0	0	0	0	1	blank2r.bmp	0	1	CPLW	0	1	blank2r.bmp	79	114	pic114.bmp	199	1	whitenoise_No3.bmp	306	0	0	0	0	0	0	0	0	0	0	0	0	0	0	0	0	0	0	0	0	0	0	0	0	0	0	0	0	0	0	0	0	0	0	0	0	0	0	0
022119	10:15:31	10:32:07	994789	5.0.10.0	4_exp_AMP_EVA_AWA_CON	132	Rpleas_acq	Same	Rpleas	Amasked	CS_A	1pleas	distractor2	EVAbeforeCON	AMP_CSunple	AMP1_masked	6	11	0	0	300	300	0	0	642	50	0	0	0	0	0	1	blank2r.bmp	0	1	DHJF	0	1	blank2r.bmp	79	110	pic110.bmp	199	1	whitenoise_No3.bmp	306	0	0	0	0	0	0	0	0	0	0	0	0	0	0	0	0	0	0	0	0	0	0	0	0	0	0	0	0	0	0	0	0	0	0	0	0	0	0	0
022119	10:15:31	10:32:10	997694	5.0.10.0	4_exp_AMP_EVA_AWA_CON	132	Rpleas_acq	Same	Rpleas	Amasked	CS_A	1pleas	distractor2	EVAbeforeCON	AMP_CSunple	AMP1_masked	6	12	0	0	300	300	0	0	1991	46	0	1	0	0	0	1	blank2r.bmp	0	1	DHJF	0	1	blank2r.bmp	79	17	pic17.bmp	199	1	whitenoise_No3.bmp	306	0	0	0	0	0	0	0	0	0	0	0	0	0	0	0	0	0	0	0	0	0	0	0	0	0	0	0	0	0	0	0	0	0	0	0	0	0	0	0
022119	10:15:31	10:32:12	999507	5.0.10.0	4_exp_AMP_EVA_AWA_CON	132	Rpleas_acq	Same	Rpleas	Amasked	CS_A	1pleas	distractor2	EVAbeforeCON	AMP_CSunple	AMP1_masked	6	13	0	0	300	300	0	0	903	50	0	0	0	0	0	1	blank2r.bmp	0	1	DHJF	0	1	blank2r.bmp	79	92	pic92.bmp	199	1	whitenoise_No3.bmp	306	0	0	0	0	0	0	0	0	0	0	0	0	0	0	0	0	0	0	0	0	0	0	0	0	0	0	0	0	0	0	0	0	0	0	0	0	0	0	0
022119	10:15:31	10:32:14	1001613	5.0.10.0	4_exp_AMP_EVA_AWA_CON	132	Rpleas_acq	Same	Rpleas	Amasked	CS_A	1pleas	distractor2	EVAbeforeCON	AMP_CSpleas	AMP1_masked	6	14	0	0	300	300	0	0	1173	50	0	1	0	0	0	1	blank2r.bmp	0	1	CPLW	0	1	blank2r.bmp	79	34	pic34.bmp	199	1	whitenoise_No3.bmp	306	0	0	0	0	0	0	0	0	0	0	0	0	0	0	0	0	0	0	0	0	0	0	0	0	0	0	0	0	0	0	0	0	0	0	0	0	0	0	0
022119	10:15:31	10:32:15	1003252	5.0.10.0	4_exp_AMP_EVA_AWA_CON	132	Rpleas_acq	Same	Rpleas	Amasked	CS_A	1pleas	distractor2	EVAbeforeCON	AMP_CSunple	AMP1_masked	6	15	0	0	300	300	0	0	721	46	0	1	0	0	0	1	blank2r.bmp	0	1	DHJF	0	1	blank2r.bmp	79	45	pic45.bmp	199	1	whitenoise_No3.bmp	306	0	0	0	0	0	0	0	0	0	0	0	0	0	0	0	0	0	0	0	0	0	0	0	0	0	0	0	0	0	0	0	0	0	0	0	0	0	0	0
022119	10:15:31	10:32:17	1005025	5.0.10.0	4_exp_AMP_EVA_AWA_CON	132	Rpleas_acq	Same	Rpleas	Amasked	CS_A	1pleas	distractor2	EVAbeforeCON	AMP_distractor	AMP1_masked	6	16	0	0	300	300	0	0	851	46	0	0	0	0	0	1	blank2r.bmp	0	1	QYSB	0	1	blank2r.bmp	79	133	pic133.bmp	199	1	whitenoise_No3.bmp	306	0	0	0	0	0	0	0	0	0	0	0	0	0	0	0	0	0	0	0	0	0	0	0	0	0	0	0	0	0	0	0	0	0	0	0	0	0	0	0
022119	10:15:31	10:32:19	1007157	5.0.10.0	4_exp_AMP_EVA_AWA_CON	132	Rpleas_acq	Same	Rpleas	Amasked	CS_A	1pleas	distractor2	EVAbeforeCON	AMP_CSpleas	AMP1_masked	6	17	0	0	300	300	0	0	1218	50	0	1	0	0	0	1	blank2r.bmp	0	1	CPLW	0	1	blank2r.bmp	79	39	pic39.bmp	199	1	whitenoise_No3.bmp	306	0	0	0	0	0	0	0	0	0	0	0	0	0	0	0	0	0	0	0	0	0	0	0	0	0	0	0	0	0	0	0	0	0	0	0	0	0	0	0
022119	10:15:31	10:32:21	1008890	5.0.10.0	4_exp_AMP_EVA_AWA_CON	132	Rpleas_acq	Same	Rpleas	Amasked	CS_A	1pleas	distractor2	EVAbeforeCON	AMP_CSunple	AMP1_masked	6	18	0	0	300	300	0	0	809	46	0	1	0	0	0	1	blank2r.bmp	0	1	DHJF	0	1	blank2r.bmp	79	64	pic64.bmp	199	1	whitenoise_No3.bmp	306	0	0	0	0	0	0	0	0	0	0	0	0	0	0	0	0	0	0	0	0	0	0	0	0	0	0	0	0	0	0	0	0	0	0	0	0	0	0	0
022119	10:15:31	10:32:23	1010702	5.0.10.0	4_exp_AMP_EVA_AWA_CON	132	Rpleas_acq	Same	Rpleas	Amasked	CS_A	1pleas	distractor2	EVAbeforeCON	AMP_distractor	AMP1_masked	6	19	0	0	300	300	0	0	897	46	0	0	0	0	0	1	blank2r.bmp	0	1	QYSB	0	1	blank2r.bmp	79	126	pic126.bmp	199	1	whitenoise_No3.bmp	306	0	0	0	0	0	0	0	0	0	0	0	0	0	0	0	0	0	0	0	0	0	0	0	0	0	0	0	0	0	0	0	0	0	0	0	0	0	0	0
022119	10:15:31	10:32:25	1012408	5.0.10.0	4_exp_AMP_EVA_AWA_CON	132	Rpleas_acq	Same	Rpleas	Amasked	CS_A	1pleas	distractor2	EVAbeforeCON	AMP_CSunple	AMP1_masked	6	20	0	0	300	300	0	0	787	50	0	0	0	0	0	1	blank2r.bmp	0	1	DHJF	0	1	blank2r.bmp	79	94	pic94.bmp	199	1	whitenoise_No3.bmp	306	0	0	0	0	0	0	0	0	0	0	0	0	0	0	0	0	0	0	0	0	0	0	0	0	0	0	0	0	0	0	0	0	0	0	0	0	0	0	0
022119	10:15:31	10:32:26	1013848	5.0.10.0	4_exp_AMP_EVA_AWA_CON	132	Rpleas_acq	Same	Rpleas	Amasked	CS_A	1pleas	distractor2	EVAbeforeCON	AMP_CSpleas	AMP1_masked	6	21	0	0	300	300	0	0	525	46	0	0	0	0	0	1	blank2r.bmp	0	1	CPLW	0	1	blank2r.bmp	79	138	pic138.bmp	199	1	whitenoise_No3.bmp	306	0	0	0	0	0	0	0	0	0	0	0	0	0	0	0	0	0	0	0	0	0	0	0	0	0	0	0	0	0	0	0	0	0	0	0	0	0	0	0
022119	10:15:31	10:32:27	1015154	5.0.10.0	4_exp_AMP_EVA_AWA_CON	132	Rpleas_acq	Same	Rpleas	Amasked	CS_A	1pleas	distractor2	EVAbeforeCON	AMP_CSpleas	AMP1_masked	6	22	0	0	300	300	0	0	376	46	0	0	0	0	0	1	blank2r.bmp	0	1	CPLW	0	1	blank2r.bmp	79	38	pic38.bmp	199	1	whitenoise_No3.bmp	306	0	0	0	0	0	0	0	0	0	0	0	0	0	0	0	0	0	0	0	0	0	0	0	0	0	0	0	0	0	0	0	0	0	0	0	0	0	0	0
022119	10:15:31	10:32:29	1016833	5.0.10.0	4_exp_AMP_EVA_AWA_CON	132	Rpleas_acq	Same	Rpleas	Amasked	CS_A	1pleas	distractor2	EVAbeforeCON	AMP_CSpleas	AMP1_masked	6	23	0	0	300	300	0	0	760	50	0	1	0	0	0	1	blank2r.bmp	0	1	CPLW	0	1	blank2r.bmp	79	27	pic27.bmp	199	1	whitenoise_No3.bmp	306	0	0	0	0	0	0	0	0	0	0	0	0	0	0	0	0	0	0	0	0	0	0	0	0	0	0	0	0	0	0	0	0	0	0	0	0	0	0	0
022119	10:15:31	10:32:30	1018326	5.0.10.0	4_exp_AMP_EVA_AWA_CON	132	Rpleas_acq	Same	Rpleas	Amasked	CS_A	1pleas	distractor2	EVAbeforeCON	AMP_CSpleas	AMP1_masked	6	24	0	0	300	300	0	0	584	46	0	0	0	0	0	1	blank2r.bmp	0	1	CPLW	0	1	blank2r.bmp	79	28	pic28.bmp	199	1	whitenoise_No3.bmp	306	0	0	0	0	0	0	0	0	0	0	0	0	0	0	0	0	0	0	0	0	0	0	0	0	0	0	0	0	0	0	0	0	0	0	0	0	0	0	0
022119	10:15:31	10:32:32	1019912	5.0.10.0	4_exp_AMP_EVA_AWA_CON	132	Rpleas_acq	Same	Rpleas	Amasked	CS_A	1pleas	distractor2	EVAbeforeCON	AMP_distractor	AMP1_masked	6	25	0	0	300	300	0	0	662	50	0	0	0	0	0	1	blank2r.bmp	0	1	QYSB	0	1	blank2r.bmp	79	54	pic54.bmp	199	1	whitenoise_No3.bmp	306	0	0	0	0	0	0	0	0	0	0	0	0	0	0	0	0	0	0	0	0	0	0	0	0	0	0	0	0	0	0	0	0	0	0	0	0	0	0	0
022119	10:15:31	10:32:34	1021391	5.0.10.0	4_exp_AMP_EVA_AWA_CON	132	Rpleas_acq	Same	Rpleas	Amasked	CS_A	1pleas	distractor2	EVAbeforeCON	AMP_distractor	AMP1_masked	6	26	0	0	300	300	0	0	554	46	0	0	0	0	0	1	blank2r.bmp	0	1	QYSB	0	1	blank2r.bmp	79	63	pic63.bmp	199	1	whitenoise_No3.bmp	306	0	0	0	0	0	0	0	0	0	0	0	0	0	0	0	0	0	0	0	0	0	0	0	0	0	0	0	0	0	0	0	0	0	0	0	0	0	0	0
022119	10:15:31	10:32:35	1023231	5.0.10.0	4_exp_AMP_EVA_AWA_CON	132	Rpleas_acq	Same	Rpleas	Amasked	CS_A	1pleas	distractor2	EVAbeforeCON	AMP_CSpleas	AMP1_masked	6	27	0	0	300	300	0	0	907	50	0	1	0	0	0	1	blank2r.bmp	0	1	CPLW	0	1	blank2r.bmp	79	13	pic13.bmp	199	1	whitenoise_No3.bmp	306	0	0	0	0	0	0	0	0	0	0	0	0	0	0	0	0	0	0	0	0	0	0	0	0	0	0	0	0	0	0	0	0	0	0	0	0	0	0	0
022119	10:15:31	10:32:37	1025150	5.0.10.0	4_exp_AMP_EVA_AWA_CON	132	Rpleas_acq	Same	Rpleas	Amasked	CS_A	1pleas	distractor2	EVAbeforeCON	AMP_distractor	AMP1_masked	6	28	0	0	300	300	0	0	1001	46	0	0	0	0	0	1	blank2r.bmp	0	1	QYSB	0	1	blank2r.bmp	79	149	pic149.bmp	199	1	whitenoise_No3.bmp	306	0	0	0	0	0	0	0	0	0	0	0	0	0	0	0	0	0	0	0	0	0	0	0	0	0	0	0	0	0	0	0	0	0	0	0	0	0	0	0
022119	10:15:31	10:32:40	1027429	5.0.10.0	4_exp_AMP_EVA_AWA_CON	132	Rpleas_acq	Same	Rpleas	Amasked	CS_A	1pleas	distractor2	EVAbeforeCON	AMP_CSpleas	AMP1_masked	6	29	0	0	300	300	0	0	1369	46	0	0	0	0	0	1	blank2r.bmp	0	1	CPLW	0	1	blank2r.bmp	79	68	pic68.bmp	199	1	whitenoise_No3.bmp	306	0	0	0	0	0	0	0	0	0	0	0	0	0	0	0	0	0	0	0	0	0	0	0	0	0	0	0	0	0	0	0	0	0	0	0	0	0	0	0
022119	10:15:31	10:32:41	1028948	5.0.10.0	4_exp_AMP_EVA_AWA_CON	132	Rpleas_acq	Same	Rpleas	Amasked	CS_A	1pleas	distractor2	EVAbeforeCON	AMP_distractor	AMP1_masked	6	30	0	0	300	300	0	0	586	50	0	0	0	0	0	1	blank2r.bmp	0	1	QYSB	0	1	blank2r.bmp	79	115	pic115.bmp	199	1	whitenoise_No3.bmp	306	0	0	0	0	0	0	0	0	0	0	0	0	0	0	0	0	0	0	0	0	0	0	0	0	0	0	0	0	0	0	0	0	0	0	0	0	0	0	0
022119	10:15:31	10:32:43	1030441	5.0.10.0	4_exp_AMP_EVA_AWA_CON	132	Rpleas_acq	Same	Rpleas	Amasked	CS_A	1pleas	distractor2	EVAbeforeCON	AMP_CSpleas	AMP1_masked	6	31	0	0	300	300	0	0	568	46	0	0	0	0	0	1	blank2r.bmp	0	1	CPLW	0	1	blank2r.bmp	79	44	pic44.bmp	199	1	whitenoise_No3.bmp	306	0	0	0	0	0	0	0	0	0	0	0	0	0	0	0	0	0	0	0	0	0	0	0	0	0	0	0	0	0	0	0	0	0	0	0	0	0	0	0
022119	10:15:31	10:32:44	1031747	5.0.10.0	4_exp_AMP_EVA_AWA_CON	132	Rpleas_acq	Same	Rpleas	Amasked	CS_A	1pleas	distractor2	EVAbeforeCON	AMP_CSpleas	AMP1_masked	6	32	0	0	300	300	0	0	384	50	0	1	0	0	0	1	blank2r.bmp	0	1	CPLW	0	1	blank2r.bmp	79	19	pic19.bmp	199	1	whitenoise_No3.bmp	306	0	0	0	0	0	0	0	0	0	0	0	0	0	0	0	0	0	0	0	0	0	0	0	0	0	0	0	0	0	0	0	0	0	0	0	0	0	0	0
022119	10:15:31	10:32:45	1033186	5.0.10.0	4_exp_AMP_EVA_AWA_CON	132	Rpleas_acq	Same	Rpleas	Amasked	CS_A	1pleas	distractor2	EVAbeforeCON	AMP_CSunple	AMP1_masked	6	33	0	0	300	300	0	0	511	46	0	1	0	0	0	1	blank2r.bmp	0	1	DHJF	0	1	blank2r.bmp	79	50	pic50.bmp	199	1	whitenoise_No3.bmp	306	0	0	0	0	0	0	0	0	0	0	0	0	0	0	0	0	0	0	0	0	0	0	0	0	0	0	0	0	0	0	0	0	0	0	0	0	0	0	0
022119	10:15:31	10:32:47	1034506	5.0.10.0	4_exp_AMP_EVA_AWA_CON	132	Rpleas_acq	Same	Rpleas	Amasked	CS_A	1pleas	distractor2	EVAbeforeCON	AMP_distractor	AMP1_masked	6	34	0	0	300	300	0	0	399	46	0	0	0	0	0	1	blank2r.bmp	0	1	QYSB	0	1	blank2r.bmp	79	96	pic96.bmp	199	1	whitenoise_No3.bmp	306	0	0	0	0	0	0	0	0	0	0	0	0	0	0	0	0	0	0	0	0	0	0	0	0	0	0	0	0	0	0	0	0	0	0	0	0	0	0	0
022119	10:15:31	10:32:48	1036332	5.0.10.0	4_exp_AMP_EVA_AWA_CON	132	Rpleas_acq	Same	Rpleas	Amasked	CS_A	1pleas	distractor2	EVAbeforeCON	AMP_CSunple	AMP1_masked	6	35	0	0	300	300	0	0	907	46	0	1	0	0	0	1	blank2r.bmp	0	1	DHJF	0	1	blank2r.bmp	79	81	pic81.bmp	199	1	whitenoise_No3.bmp	306	0	0	0	0	0	0	0	0	0	0	0	0	0	0	0	0	0	0	0	0	0	0	0	0	0	0	0	0	0	0	0	0	0	0	0	0	0	0	0
022119	10:15:31	10:32:50	1037944	5.0.10.0	4_exp_AMP_EVA_AWA_CON	132	Rpleas_acq	Same	Rpleas	Amasked	CS_A	1pleas	distractor2	EVAbeforeCON	AMP_distractor	AMP1_masked	6	36	0	0	300	300	0	0	695	46	0	0	0	0	0	1	blank2r.bmp	0	1	QYSB	0	1	blank2r.bmp	79	118	pic118.bmp	199	1	whitenoise_No3.bmp	306	0	0	0	0	0	0	0	0	0	0	0	0	0	0	0	0	0	0	0	0	0	0	0	0	0	0	0	0	0	0	0	0	0	0	0	0	0	0	0
022119	10:15:31	10:32:52	1039437	5.0.10.0	4_exp_AMP_EVA_AWA_CON	132	Rpleas_acq	Same	Rpleas	Amasked	CS_A	1pleas	distractor2	EVAbeforeCON	AMP_distractor	AMP1_masked	6	37	0	0	300	300	0	0	583	50	0	0	0	0	0	1	blank2r.bmp	0	1	QYSB	0	1	blank2r.bmp	79	103	pic103.bmp	199	1	whitenoise_No3.bmp	306	0	0	0	0	0	0	0	0	0	0	0	0	0	0	0	0	0	0	0	0	0	0	0	0	0	0	0	0	0	0	0	0	0	0	0	0	0	0	0
022119	10:15:31	10:32:53	1041077	5.0.10.0	4_exp_AMP_EVA_AWA_CON	132	Rpleas_acq	Same	Rpleas	Amasked	CS_A	1pleas	distractor2	EVAbeforeCON	AMP_CSunple	AMP1_masked	6	38	0	0	300	300	0	0	706	50	0	0	0	0	0	1	blank2r.bmp	0	1	DHJF	0	1	blank2r.bmp	79	6	pic6.bmp	199	1	whitenoise_No3.bmp	306	0	0	0	0	0	0	0	0	0	0	0	0	0	0	0	0	0	0	0	0	0	0	0	0	0	0	0	0	0	0	0	0	0	0	0	0	0	0	0
022119	10:15:31	10:32:55	1042449	5.0.10.0	4_exp_AMP_EVA_AWA_CON	132	Rpleas_acq	Same	Rpleas	Amasked	CS_A	1pleas	distractor2	EVAbeforeCON	AMP_distractor	AMP1_masked	6	39	0	0	300	300	0	0	454	46	0	0	0	0	0	1	blank2r.bmp	0	1	QYSB	0	1	blank2r.bmp	79	80	pic80.bmp	199	1	whitenoise_No3.bmp	306	0	0	0	0	0	0	0	0	0	0	0	0	0	0	0	0	0	0	0	0	0	0	0	0	0	0	0	0	0	0	0	0	0	0	0	0	0	0	0
022119	10:15:31	10:32:56	1043742	5.0.10.0	4_exp_AMP_EVA_AWA_CON	132	Rpleas_acq	Same	Rpleas	Amasked	CS_A	1pleas	distractor2	EVAbeforeCON	AMP_distractor	AMP1_masked	6	40	0	0	300	300	0	0	382	46	0	0	0	0	0	1	blank2r.bmp	0	1	QYSB	0	1	blank2r.bmp	79	76	pic76.bmp	199	1	whitenoise_No3.bmp	306	0	0	0	0	0	0	0	0	0	0	0	0	0	0	0	0	0	0	0	0	0	0	0	0	0	0	0	0	0	0	0	0	0	0	0	0	0	0	0
022119	10:15:31	10:32:57	1045315	5.0.10.0	4_exp_AMP_EVA_AWA_CON	132	Rpleas_acq	Same	Rpleas	Amasked	CS_A	1pleas	distractor2	EVAbeforeCON	AMP_CSunple	AMP1_masked	6	41	0	0	300	300	0	0	654	50	0	0	0	0	0	1	blank2r.bmp	0	1	DHJF	0	1	blank2r.bmp	79	90	pic90.bmp	199	1	whitenoise_No3.bmp	306	0	0	0	0	0	0	0	0	0	0	0	0	0	0	0	0	0	0	0	0	0	0	0	0	0	0	0	0	0	0	0	0	0	0	0	0	0	0	0
022119	10:15:31	10:32:59	1046741	5.0.10.0	4_exp_AMP_EVA_AWA_CON	132	Rpleas_acq	Same	Rpleas	Amasked	CS_A	1pleas	distractor2	EVAbeforeCON	AMP_CSunple	AMP1_masked	6	42	0	0	300	300	0	0	494	46	0	1	0	0	0	1	blank2r.bmp	0	1	DHJF	0	1	blank2r.bmp	79	57	pic57.bmp	199	1	whitenoise_No3.bmp	306	0	0	0	0	0	0	0	0	0	0	0	0	0	0	0	0	0	0	0	0	0	0	0	0	0	0	0	0	0	0	0	0	0	0	0	0	0	0	0
022119	10:15:31	10:33:00	1048060	5.0.10.0	4_exp_AMP_EVA_AWA_CON	132	Rpleas_acq	Same	Rpleas	Amasked	CS_A	1pleas	distractor2	EVAbeforeCON	AMP_distractor	AMP1_masked	6	43	0	0	300	300	0	0	409	50	0	0	0	0	0	1	blank2r.bmp	0	1	QYSB	0	1	blank2r.bmp	79	36	pic36.bmp	199	1	whitenoise_No3.bmp	306	0	0	0	0	0	0	0	0	0	0	0	0	0	0	0	0	0	0	0	0	0	0	0	0	0	0	0	0	0	0	0	0	0	0	0	0	0	0	0
022119	10:15:31	10:33:02	1049500	5.0.10.0	4_exp_AMP_EVA_AWA_CON	132	Rpleas_acq	Same	Rpleas	Amasked	CS_A	1pleas	distractor2	EVAbeforeCON	AMP_distractor	AMP1_masked	6	44	0	0	300	300	0	0	509	46	0	0	0	0	0	1	blank2r.bmp	0	1	QYSB	0	1	blank2r.bmp	79	146	pic146.bmp	199	1	whitenoise_No3.bmp	306	0	0	0	0	0	0	0	0	0	0	0	0	0	0	0	0	0	0	0	0	0	0	0	0	0	0	0	0	0	0	0	0	0	0	0	0	0	0	0
022119	10:15:31	10:33:03	1050966	5.0.10.0	4_exp_AMP_EVA_AWA_CON	132	Rpleas_acq	Same	Rpleas	Amasked	CS_A	1pleas	distractor2	EVAbeforeCON	AMP_CSunple	AMP1_masked	6	45	0	0	300	300	0	0	555	46	0	1	0	0	0	1	blank2r.bmp	0	1	DHJF	0	1	blank2r.bmp	79	60	pic60.bmp	199	1	whitenoise_No3.bmp	306	0	0	0	0	0	0	0	0	0	0	0	0	0	0	0	0	0	0	0	0	0	0	0	0	0	0	0	0	0	0	0	0	0	0	0	0	0	0	0
022119	10:15:31	10:33:05	1052419	5.0.10.0	4_exp_AMP_EVA_AWA_CON	132	Rpleas_acq	Same	Rpleas	Amasked	CS_A	1pleas	distractor2	EVAbeforeCON	AMP_distractor	AMP1_masked	6	46	0	0	300	300	0	0	544	50	0	0	0	0	0	1	blank2r.bmp	0	1	QYSB	0	1	blank2r.bmp	79	91	pic91.bmp	199	1	whitenoise_No3.bmp	306	0	0	0	0	0	0	0	0	0	0	0	0	0	0	0	0	0	0	0	0	0	0	0	0	0	0	0	0	0	0	0	0	0	0	0	0	0	0	0
022119	10:15:31	10:33:06	1053898	5.0.10.0	4_exp_AMP_EVA_AWA_CON	132	Rpleas_acq	Same	Rpleas	Amasked	CS_A	1pleas	distractor2	EVAbeforeCON	AMP_CSpleas	AMP1_masked	6	47	0	0	300	300	0	0	556	46	0	0	0	0	0	1	blank2r.bmp	0	1	CPLW	0	1	blank2r.bmp	79	151	pic151.bmp	199	1	whitenoise_No3.bmp	306	0	0	0	0	0	0	0	0	0	0	0	0	0	0	0	0	0	0	0	0	0	0	0	0	0	0	0	0	0	0	0	0	0	0	0	0	0	0	0
022119	10:15:31	10:33:07	1055257	5.0.10.0	4_exp_AMP_EVA_AWA_CON	132	Rpleas_acq	Same	Rpleas	Amasked	CS_A	1pleas	distractor2	EVAbeforeCON	AMP_CSpleas	AMP1_masked	6	48	0	0	300	300	0	0	438	46	0	0	0	0	0	1	blank2r.bmp	0	1	CPLW	0	1	blank2r.bmp	79	98	pic98.bmp	199	1	whitenoise_No3.bmp	306	0	0	0	0	0	0	0	0	0	0	0	0	0	0	0	0	0	0	0	0	0	0	0	0	0	0	0	0	0	0	0	0	0	0	0	0	0	0	0
022119	10:15:31	10:33:09	1056830	5.0.10.0	4_exp_AMP_EVA_AWA_CON	132	Rpleas_acq	Same	Rpleas	Amasked	CS_A	1pleas	distractor2	EVAbeforeCON	AMP_CSunple	AMP1_masked	6	49	0	0	300	300	0	0	641	50	0	0	0	0	0	1	blank2r.bmp	0	1	DHJF	0	1	blank2r.bmp	79	106	pic106.bmp	199	1	whitenoise_No3.bmp	306	0	0	0	0	0	0	0	0	0	0	0	0	0	0	0	0	0	0	0	0	0	0	0	0	0	0	0	0	0	0	0	0	0	0	0	0	0	0	0
022119	10:15:31	10:33:10	1058269	5.0.10.0	4_exp_AMP_EVA_AWA_CON	132	Rpleas_acq	Same	Rpleas	Amasked	CS_A	1pleas	distractor2	EVAbeforeCON	AMP_distractor	AMP1_masked	6	50	0	0	300	300	0	0	525	50	0	0	0	0	0	1	blank2r.bmp	0	1	QYSB	0	1	blank2r.bmp	79	147	pic147.bmp	199	1	whitenoise_No3.bmp	306	0	0	0	0	0	0	0	0	0	0	0	0	0	0	0	0	0	0	0	0	0	0	0	0	0	0	0	0	0	0	0	0	0	0	0	0	0	0	0
022119	10:15:31	10:33:12	1059709	5.0.10.0	4_exp_AMP_EVA_AWA_CON	132	Rpleas_acq	Same	Rpleas	Amasked	CS_A	1pleas	distractor2	EVAbeforeCON	AMP_distractor	AMP1_masked	6	51	0	0	300	300	0	0	521	46	0	0	0	0	0	1	blank2r.bmp	0	1	QYSB	0	1	blank2r.bmp	79	53	pic53.bmp	199	1	whitenoise_No3.bmp	306	0	0	0	0	0	0	0	0	0	0	0	0	0	0	0	0	0	0	0	0	0	0	0	0	0	0	0	0	0	0	0	0	0	0	0	0	0	0	0
022119	10:15:31	10:33:23	1070784	5.0.10.0	4_exp_AMP_EVA_AWA_CON	132	Rpleas_acq	Same	Rpleas	Amasked	CS_A	1pleas	distractor2	EVAbeforeCON	AMP_CSunple	AMP23	7	1	0	0	300	300	0	0	1266	50	0	0	0	0	0	1	blank2r.bmp	0	1	DHJF	0	1	blank2r.bmp	79	71	pic71.bmp	199	1	whitenoise_No3.bmp	306	0	0	0	0	0	0	0	0	0	0	0	0	0	0	0	0	0	0	0	0	0	0	0	0	0	0	0	0	0	0	0	0	0	0	0	0	0	0	0
022119	10:15:31	10:33:24	1072224	5.0.10.0	4_exp_AMP_EVA_AWA_CON	132	Rpleas_acq	Same	Rpleas	Amasked	CS_A	1pleas	distractor2	EVAbeforeCON	AMP_distractor	AMP23	7	2	0	0	300	300	0	0	521	46	0	0	0	0	0	1	blank2r.bmp	0	1	QYSB	0	1	blank2r.bmp	79	47	pic47.bmp	199	1	whitenoise_No3.bmp	306	0	0	0	0	0	0	0	0	0	0	0	0	0	0	0	0	0	0	0	0	0	0	0	0	0	0	0	0	0	0	0	0	0	0	0	0	0	0	0
022119	10:15:31	10:33:26	1073703	5.0.10.0	4_exp_AMP_EVA_AWA_CON	132	Rpleas_acq	Same	Rpleas	Amasked	CS_A	1pleas	distractor2	EVAbeforeCON	AMP_distractor	AMP23	7	3	0	0	300	300	0	0	545	50	0	0	0	0	0	1	blank2r.bmp	0	1	QYSB	0	1	blank2r.bmp	79	113	pic113.bmp	199	1	whitenoise_No3.bmp	306	0	0	0	0	0	0	0	0	0	0	0	0	0	0	0	0	0	0	0	0	0	0	0	0	0	0	0	0	0	0	0	0	0	0	0	0	0	0	0
022119	10:15:31	10:33:27	1074956	5.0.10.0	4_exp_AMP_EVA_AWA_CON	132	Rpleas_acq	Same	Rpleas	Amasked	CS_A	1pleas	distractor2	EVAbeforeCON	AMP_distractor	AMP23	7	4	0	0	300	300	0	0	334	46	0	0	0	0	0	1	blank2r.bmp	0	1	QYSB	0	1	blank2r.bmp	79	111	pic111.bmp	199	1	whitenoise_No3.bmp	306	0	0	0	0	0	0	0	0	0	0	0	0	0	0	0	0	0	0	0	0	0	0	0	0	0	0	0	0	0	0	0	0	0	0	0	0	0	0	0
022119	10:15:31	10:33:28	1076289	5.0.10.0	4_exp_AMP_EVA_AWA_CON	132	Rpleas_acq	Same	Rpleas	Amasked	CS_A	1pleas	distractor2	EVAbeforeCON	AMP_CSpleas	AMP23	7	5	0	0	300	300	0	0	420	50	0	1	0	0	0	1	blank2r.bmp	0	1	CPLW	0	1	blank2r.bmp	79	5	pic5.bmp	199	1	whitenoise_No3.bmp	306	0	0	0	0	0	0	0	0	0	0	0	0	0	0	0	0	0	0	0	0	0	0	0	0	0	0	0	0	0	0	0	0	0	0	0	0	0	0	0
022119	10:15:31	10:33:30	1077715	5.0.10.0	4_exp_AMP_EVA_AWA_CON	132	Rpleas_acq	Same	Rpleas	Amasked	CS_A	1pleas	distractor2	EVAbeforeCON	AMP_CSpleas	AMP23	7	6	0	0	300	300	0	0	498	46	0	0	0	0	0	1	blank2r.bmp	0	1	CPLW	0	1	blank2r.bmp	79	77	pic77.bmp	199	1	whitenoise_No3.bmp	306	0	0	0	0	0	0	0	0	0	0	0	0	0	0	0	0	0	0	0	0	0	0	0	0	0	0	0	0	0	0	0	0	0	0	0	0	0	0	0
022119	10:15:31	10:33:31	1078968	5.0.10.0	4_exp_AMP_EVA_AWA_CON	132	Rpleas_acq	Same	Rpleas	Amasked	CS_A	1pleas	distractor2	EVAbeforeCON	AMP_distractor	AMP23	7	7	0	0	300	300	0	0	323	46	0	0	0	0	0	1	blank2r.bmp	0	1	QYSB	0	1	blank2r.bmp	79	139	pic139.bmp	199	1	whitenoise_No3.bmp	306	0	0	0	0	0	0	0	0	0	0	0	0	0	0	0	0	0	0	0	0	0	0	0	0	0	0	0	0	0	0	0	0	0	0	0	0	0	0	0
022119	10:15:31	10:33:32	1080127	5.0.10.0	4_exp_AMP_EVA_AWA_CON	132	Rpleas_acq	Same	Rpleas	Amasked	CS_A	1pleas	distractor2	EVAbeforeCON	AMP_CSpleas	AMP23	7	8	0	0	300	300	0	0	251	46	0	0	0	0	0	1	blank2r.bmp	0	1	CPLW	0	1	blank2r.bmp	79	7	pic7.bmp	199	1	whitenoise_No3.bmp	306	0	0	0	0	0	0	0	0	0	0	0	0	0	0	0	0	0	0	0	0	0	0	0	0	0	0	0	0	0	0	0	0	0	0	0	0	0	0	0
022119	10:15:31	10:33:33	1081327	5.0.10.0	4_exp_AMP_EVA_AWA_CON	132	Rpleas_acq	Same	Rpleas	Amasked	CS_A	1pleas	distractor2	EVAbeforeCON	AMP_CSunple	AMP23	7	9	0	0	300	300	0	0	273	46	0	1	0	0	0	1	blank2r.bmp	0	1	DHJF	0	1	blank2r.bmp	79	137	pic137.bmp	199	1	whitenoise_No3.bmp	306	0	0	0	0	0	0	0	0	0	0	0	0	0	0	0	0	0	0	0	0	0	0	0	0	0	0	0	0	0	0	0	0	0	0	0	0	0	0	0
022119	10:15:31	10:33:35	1082606	5.0.10.0	4_exp_AMP_EVA_AWA_CON	132	Rpleas_acq	Same	Rpleas	Amasked	CS_A	1pleas	distractor2	EVAbeforeCON	AMP_CSunple	AMP23	7	10	0	0	300	300	0	0	354	50	0	0	0	0	0	1	blank2r.bmp	0	1	DHJF	0	1	blank2r.bmp	79	101	pic101.bmp	199	1	whitenoise_No3.bmp	306	0	0	0	0	0	0	0	0	0	0	0	0	0	0	0	0	0	0	0	0	0	0	0	0	0	0	0	0	0	0	0	0	0	0	0	0	0	0	0
022119	10:15:31	10:33:36	1083792	5.0.10.0	4_exp_AMP_EVA_AWA_CON	132	Rpleas_acq	Same	Rpleas	Amasked	CS_A	1pleas	distractor2	EVAbeforeCON	AMP_CSpleas	AMP23	7	11	0	0	300	300	0	0	255	46	0	0	0	0	0	1	blank2r.bmp	0	1	CPLW	0	1	blank2r.bmp	79	95	pic95.bmp	199	1	whitenoise_No3.bmp	306	0	0	0	0	0	0	0	0	0	0	0	0	0	0	0	0	0	0	0	0	0	0	0	0	0	0	0	0	0	0	0	0	0	0	0	0	0	0	0
022119	10:15:31	10:33:37	1085152	5.0.10.0	4_exp_AMP_EVA_AWA_CON	132	Rpleas_acq	Same	Rpleas	Amasked	CS_A	1pleas	distractor2	EVAbeforeCON	AMP_distractor	AMP23	7	12	0	0	300	300	0	0	447	50	0	0	0	0	0	1	blank2r.bmp	0	1	QYSB	0	1	blank2r.bmp	79	102	pic102.bmp	199	1	whitenoise_No3.bmp	306	0	0	0	0	0	0	0	0	0	0	0	0	0	0	0	0	0	0	0	0	0	0	0	0	0	0	0	0	0	0	0	0	0	0	0	0	0	0	0
022119	10:15:31	10:33:39	1086471	5.0.10.0	4_exp_AMP_EVA_AWA_CON	132	Rpleas_acq	Same	Rpleas	Amasked	CS_A	1pleas	distractor2	EVAbeforeCON	AMP_CSpleas	AMP23	7	13	0	0	300	300	0	0	389	50	0	1	0	0	0	1	blank2r.bmp	0	1	CPLW	0	1	blank2r.bmp	79	99	pic99.bmp	199	1	whitenoise_No3.bmp	306	0	0	0	0	0	0	0	0	0	0	0	0	0	0	0	0	0	0	0	0	0	0	0	0	0	0	0	0	0	0	0	0	0	0	0	0	0	0	0
022119	10:15:31	10:33:40	1087777	5.0.10.0	4_exp_AMP_EVA_AWA_CON	132	Rpleas_acq	Same	Rpleas	Amasked	CS_A	1pleas	distractor2	EVAbeforeCON	AMP_CSpleas	AMP23	7	14	0	0	300	300	0	0	394	46	0	0	0	0	0	1	blank2r.bmp	0	1	CPLW	0	1	blank2r.bmp	79	144	pic144.bmp	199	1	whitenoise_No3.bmp	306	0	0	0	0	0	0	0	0	0	0	0	0	0	0	0	0	0	0	0	0	0	0	0	0	0	0	0	0	0	0	0	0	0	0	0	0	0	0	0
022119	10:15:31	10:33:41	1089217	5.0.10.0	4_exp_AMP_EVA_AWA_CON	132	Rpleas_acq	Same	Rpleas	Amasked	CS_A	1pleas	distractor2	EVAbeforeCON	AMP_CSunple	AMP23	7	15	0	0	300	300	0	0	510	46	0	1	0	0	0	1	blank2r.bmp	0	1	DHJF	0	1	blank2r.bmp	79	48	pic48.bmp	199	1	whitenoise_No3.bmp	306	0	0	0	0	0	0	0	0	0	0	0	0	0	0	0	0	0	0	0	0	0	0	0	0	0	0	0	0	0	0	0	0	0	0	0	0	0	0	0
022119	10:15:31	10:33:43	1090510	5.0.10.0	4_exp_AMP_EVA_AWA_CON	132	Rpleas_acq	Same	Rpleas	Amasked	CS_A	1pleas	distractor2	EVAbeforeCON	AMP_distractor	AMP23	7	16	0	0	300	300	0	0	379	46	0	0	0	0	0	1	blank2r.bmp	0	1	QYSB	0	1	blank2r.bmp	79	15	pic15.bmp	199	1	whitenoise_No3.bmp	306	0	0	0	0	0	0	0	0	0	0	0	0	0	0	0	0	0	0	0	0	0	0	0	0	0	0	0	0	0	0	0	0	0	0	0	0	0	0	0
022119	10:15:31	10:33:44	1091802	5.0.10.0	4_exp_AMP_EVA_AWA_CON	132	Rpleas_acq	Same	Rpleas	Amasked	CS_A	1pleas	distractor2	EVAbeforeCON	AMP_CSunple	AMP23	7	17	0	0	300	300	0	0	372	50	0	0	0	0	0	1	blank2r.bmp	0	1	DHJF	0	1	blank2r.bmp	79	123	pic123.bmp	199	1	whitenoise_No3.bmp	306	0	0	0	0	0	0	0	0	0	0	0	0	0	0	0	0	0	0	0	0	0	0	0	0	0	0	0	0	0	0	0	0	0	0	0	0	0	0	0
022119	10:15:31	10:33:45	1093175	5.0.10.0	4_exp_AMP_EVA_AWA_CON	132	Rpleas_acq	Same	Rpleas	Amasked	CS_A	1pleas	distractor2	EVAbeforeCON	AMP_distractor	AMP23	7	18	0	0	300	300	0	0	451	46	0	0	0	0	0	1	blank2r.bmp	0	1	QYSB	0	1	blank2r.bmp	79	78	pic78.bmp	199	1	whitenoise_No3.bmp	306	0	0	0	0	0	0	0	0	0	0	0	0	0	0	0	0	0	0	0	0	0	0	0	0	0	0	0	0	0	0	0	0	0	0	0	0	0	0	0
022119	10:15:31	10:33:47	1094694	5.0.10.0	4_exp_AMP_EVA_AWA_CON	132	Rpleas_acq	Same	Rpleas	Amasked	CS_A	1pleas	distractor2	EVAbeforeCON	AMP_CSunple	AMP23	7	19	0	0	300	300	0	0	593	46	0	1	0	0	0	1	blank2r.bmp	0	1	DHJF	0	1	blank2r.bmp	79	21	pic21.bmp	199	1	whitenoise_No3.bmp	306	0	0	0	0	0	0	0	0	0	0	0	0	0	0	0	0	0	0	0	0	0	0	0	0	0	0	0	0	0	0	0	0	0	0	0	0	0	0	0
022119	10:15:31	10:33:48	1096121	5.0.10.0	4_exp_AMP_EVA_AWA_CON	132	Rpleas_acq	Same	Rpleas	Amasked	CS_A	1pleas	distractor2	EVAbeforeCON	AMP_CSunple	AMP23	7	20	0	0	300	300	0	0	503	46	0	1	0	0	0	1	blank2r.bmp	0	1	DHJF	0	1	blank2r.bmp	79	124	pic124.bmp	199	1	whitenoise_No3.bmp	306	0	0	0	0	0	0	0	0	0	0	0	0	0	0	0	0	0	0	0	0	0	0	0	0	0	0	0	0	0	0	0	0	0	0	0	0	0	0	0
022119	10:15:31	10:33:50	1097560	5.0.10.0	4_exp_AMP_EVA_AWA_CON	132	Rpleas_acq	Same	Rpleas	Amasked	CS_A	1pleas	distractor2	EVAbeforeCON	AMP_CSpleas	AMP23	7	21	0	0	300	300	0	0	507	46	0	0	0	0	0	1	blank2r.bmp	0	1	CPLW	0	1	blank2r.bmp	79	66	pic66.bmp	199	1	whitenoise_No3.bmp	306	0	0	0	0	0	0	0	0	0	0	0	0	0	0	0	0	0	0	0	0	0	0	0	0	0	0	0	0	0	0	0	0	0	0	0	0	0	0	0
022119	10:15:31	10:33:51	1098853	5.0.10.0	4_exp_AMP_EVA_AWA_CON	132	Rpleas_acq	Same	Rpleas	Amasked	CS_A	1pleas	distractor2	EVAbeforeCON	AMP_CSpleas	AMP23	7	22	0	0	300	300	0	0	378	50	0	1	0	0	0	1	blank2r.bmp	0	1	CPLW	0	1	blank2r.bmp	79	120	pic120.bmp	199	1	whitenoise_No3.bmp	306	0	0	0	0	0	0	0	0	0	0	0	0	0	0	0	0	0	0	0	0	0	0	0	0	0	0	0	0	0	0	0	0	0	0	0	0	0	0	0
022119	10:15:31	10:33:52	1100279	5.0.10.0	4_exp_AMP_EVA_AWA_CON	132	Rpleas_acq	Same	Rpleas	Amasked	CS_A	1pleas	distractor2	EVAbeforeCON	AMP_distractor	AMP23	7	23	0	0	300	300	0	0	497	50	0	0	0	0	0	1	blank2r.bmp	0	1	QYSB	0	1	blank2r.bmp	79	141	pic141.bmp	199	1	whitenoise_No3.bmp	306	0	0	0	0	0	0	0	0	0	0	0	0	0	0	0	0	0	0	0	0	0	0	0	0	0	0	0	0	0	0	0	0	0	0	0	0	0	0	0
022119	10:15:31	10:33:54	1101572	5.0.10.0	4_exp_AMP_EVA_AWA_CON	132	Rpleas_acq	Same	Rpleas	Amasked	CS_A	1pleas	distractor2	EVAbeforeCON	AMP_CSunple	AMP23	7	24	0	0	300	300	0	0	372	46	0	1	0	0	0	1	blank2r.bmp	0	1	DHJF	0	1	blank2r.bmp	79	1	pic1.bmp	199	1	whitenoise_No3.bmp	306	0	0	0	0	0	0	0	0	0	0	0	0	0	0	0	0	0	0	0	0	0	0	0	0	0	0	0	0	0	0	0	0	0	0	0	0	0	0	0
022119	10:15:31	10:33:55	1102758	5.0.10.0	4_exp_AMP_EVA_AWA_CON	132	Rpleas_acq	Same	Rpleas	Amasked	CS_A	1pleas	distractor2	EVAbeforeCON	AMP_CSunple	AMP23	7	25	0	0	300	300	0	0	278	50	0	0	0	0	0	1	blank2r.bmp	0	1	DHJF	0	1	blank2r.bmp	79	41	pic41.bmp	199	1	whitenoise_No3.bmp	306	0	0	0	0	0	0	0	0	0	0	0	0	0	0	0	0	0	0	0	0	0	0	0	0	0	0	0	0	0	0	0	0	0	0	0	0	0	0	0
022119	10:15:31	10:33:56	1103917	5.0.10.0	4_exp_AMP_EVA_AWA_CON	132	Rpleas_acq	Same	Rpleas	Amasked	CS_A	1pleas	distractor2	EVAbeforeCON	AMP_distractor	AMP23	7	26	0	0	300	300	0	0	230	46	0	0	0	0	0	1	blank2r.bmp	0	1	QYSB	0	1	blank2r.bmp	79	108	pic108.bmp	199	1	whitenoise_No3.bmp	306	0	0	0	0	0	0	0	0	0	0	0	0	0	0	0	0	0	0	0	0	0	0	0	0	0	0	0	0	0	0	0	0	0	0	0	0	0	0	0
022119	10:15:31	10:33:57	1105037	5.0.10.0	4_exp_AMP_EVA_AWA_CON	132	Rpleas_acq	Same	Rpleas	Amasked	CS_A	1pleas	distractor2	EVAbeforeCON	AMP_CSpleas	AMP23	7	27	0	0	300	300	0	0	194	50	0	1	0	0	0	1	blank2r.bmp	0	1	CPLW	0	1	blank2r.bmp	79	30	pic30.bmp	199	1	whitenoise_No3.bmp	306	0	0	0	0	0	0	0	0	0	0	0	0	0	0	0	0	0	0	0	0	0	0	0	0	0	0	0	0	0	0	0	0	0	0	0	0	0	0	0
022119	10:15:31	10:33:58	1106263	5.0.10.0	4_exp_AMP_EVA_AWA_CON	132	Rpleas_acq	Same	Rpleas	Amasked	CS_A	1pleas	distractor2	EVAbeforeCON	AMP_CSpleas	AMP23	7	28	0	0	300	300	0	0	301	50	0	1	0	0	0	1	blank2r.bmp	0	1	CPLW	0	1	blank2r.bmp	79	97	pic97.bmp	199	1	whitenoise_No3.bmp	306	0	0	0	0	0	0	0	0	0	0	0	0	0	0	0	0	0	0	0	0	0	0	0	0	0	0	0	0	0	0	0	0	0	0	0	0	0	0	0
022119	10:15:31	10:34:00	1107582	5.0.10.0	4_exp_AMP_EVA_AWA_CON	132	Rpleas_acq	Same	Rpleas	Amasked	CS_A	1pleas	distractor2	EVAbeforeCON	AMP_CSpleas	AMP23	7	29	0	0	300	300	0	0	389	50	0	1	0	0	0	1	blank2r.bmp	0	1	CPLW	0	1	blank2r.bmp	79	20	pic20.bmp	199	1	whitenoise_No3.bmp	306	0	0	0	0	0	0	0	0	0	0	0	0	0	0	0	0	0	0	0	0	0	0	0	0	0	0	0	0	0	0	0	0	0	0	0	0	0	0	0
022119	10:15:31	10:34:01	1108915	5.0.10.0	4_exp_AMP_EVA_AWA_CON	132	Rpleas_acq	Same	Rpleas	Amasked	CS_A	1pleas	distractor2	EVAbeforeCON	AMP_CSunple	AMP23	7	30	0	0	300	300	0	0	413	46	0	1	0	0	0	1	blank2r.bmp	0	1	DHJF	0	1	blank2r.bmp	79	42	pic42.bmp	199	1	whitenoise_No3.bmp	306	0	0	0	0	0	0	0	0	0	0	0	0	0	0	0	0	0	0	0	0	0	0	0	0	0	0	0	0	0	0	0	0	0	0	0	0	0	0	0
022119	10:15:31	10:34:02	1110021	5.0.10.0	4_exp_AMP_EVA_AWA_CON	132	Rpleas_acq	Same	Rpleas	Amasked	CS_A	1pleas	distractor2	EVAbeforeCON	AMP_CSpleas	AMP23	7	31	0	0	300	300	0	0	184	46	0	0	0	0	0	1	blank2r.bmp	0	1	CPLW	0	1	blank2r.bmp	79	35	pic35.bmp	199	1	whitenoise_No3.bmp	306	0	0	0	0	0	0	0	0	0	0	0	0	0	0	0	0	0	0	0	0	0	0	0	0	0	0	0	0	0	0	0	0	0	0	0	0	0	0	0
022119	10:15:31	10:34:03	1111261	5.0.10.0	4_exp_AMP_EVA_AWA_CON	132	Rpleas_acq	Same	Rpleas	Amasked	CS_A	1pleas	distractor2	EVAbeforeCON	AMP_CSunple	AMP23	7	32	0	0	300	300	0	0	308	46	0	1	0	0	0	1	blank2r.bmp	0	1	DHJF	0	1	blank2r.bmp	79	10	pic10.bmp	199	1	whitenoise_No3.bmp	306	0	0	0	0	0	0	0	0	0	0	0	0	0	0	0	0	0	0	0	0	0	0	0	0	0	0	0	0	0	0	0	0	0	0	0	0	0	0	0
022119	10:15:31	10:34:05	1112527	5.0.10.0	4_exp_AMP_EVA_AWA_CON	132	Rpleas_acq	Same	Rpleas	Amasked	CS_A	1pleas	distractor2	EVAbeforeCON	AMP_CSunple	AMP23	7	33	0	0	300	300	0	0	345	46	0	1	0	0	0	1	blank2r.bmp	0	1	DHJF	0	1	blank2r.bmp	79	119	pic119.bmp	199	1	whitenoise_No3.bmp	306	0	0	0	0	0	0	0	0	0	0	0	0	0	0	0	0	0	0	0	0	0	0	0	0	0	0	0	0	0	0	0	0	0	0	0	0	0	0	0
022119	10:15:31	10:34:06	1113793	5.0.10.0	4_exp_AMP_EVA_AWA_CON	132	Rpleas_acq	Same	Rpleas	Amasked	CS_A	1pleas	distractor2	EVAbeforeCON	AMP_distractor	AMP23	7	34	0	0	300	300	0	0	352	46	0	0	0	0	0	1	blank2r.bmp	0	1	QYSB	0	1	blank2r.bmp	79	51	pic51.bmp	199	1	whitenoise_No3.bmp	306	0	0	0	0	0	0	0	0	0	0	0	0	0	0	0	0	0	0	0	0	0	0	0	0	0	0	0	0	0	0	0	0	0	0	0	0	0	0	0
022119	10:15:31	10:34:07	1115313	5.0.10.0	4_exp_AMP_EVA_AWA_CON	132	Rpleas_acq	Same	Rpleas	Amasked	CS_A	1pleas	distractor2	EVAbeforeCON	AMP_distractor	AMP23	7	35	0	0	300	300	0	0	592	50	0	0	0	0	0	1	blank2r.bmp	0	1	QYSB	0	1	blank2r.bmp	79	40	pic40.bmp	199	1	whitenoise_No3.bmp	306	0	0	0	0	0	0	0	0	0	0	0	0	0	0	0	0	0	0	0	0	0	0	0	0	0	0	0	0	0	0	0	0	0	0	0	0	0	0	0
