date	time	script.currenttime	script.elapsedtime	build	script.currentexpt	subject	expressions.LRpleas_acq	expressions.SameOppo	expressions.condition_Lpleas	expressions.ABmasked	expressions.conditionCS_A	expressions.condition_1pleas	expressions.condition_distractor_AMP	expressions.AWACON_AMPEVA_first	trialcode	blockcode	blocknum	trialnum	windowcenter	inwindow	pretrialpause	posttrialpause	trialduration	trialtimeout	latency	response	expressions.correctedscore	correct	values.vis_performance	values.vis_rating_sum	values.vis_rating_mean	stimulusnumber1	stimulusitem1	stimulusonset1	stimulusnumber2	stimulusitem2	stimulusonset2	stimulusnumber3	stimulusitem3	stimulusonset3	stimulusnumber4	stimulusitem4	stimulusonset4	stimulusnumber5	stimulusitem5	stimulusonset5	stimulusnumber6	stimulusitem6	stimulusonset6	stimulusnumber7	stimulusitem7	stimulusonset7	stimulusnumber8	stimulusitem8	stimulusonset8	stimulusnumber9	stimulusitem9	stimulusonset9	stimulusnumber10	stimulusitem10	stimulusonset10	stimulusnumber11	stimulusitem11	stimulusonset11	stimulusnumber12	stimulusitem12	stimulusonset12	stimulusnumber13	stimulusitem13	stimulusonset13	stimulusnumber14	stimulusitem14	stimulusonset14	stimulusnumber15	stimulusitem15	stimulusonset15	stimulusnumber16	stimulusitem16	stimulusonset16	stimulusnumber17	stimulusitem17	stimulusonset17	stimulusnumber18	stimulusitem18	stimulusonset18
121918	10:20:06	10:21:40	93333	5.0.10.0	4_exp_EVA_AMP_AWA_CON	29	Rpleas_acq	Oppo	Rpleas	Amasked	CS_A	1pleas	distractor2	EVAbeforeCON	acq_new_unple_masked	acq1_masked	1	1	0	0	300	300	0	0	1024	46	0	1	0	0	0	1	blank2r.bmp	0	1	+	0	5	C1r.bmp	492	1	blank2r.bmp	786	7	C3r.bmp	786	1	blank2r.bmp	866	5	sterben	866	0	0	0	0	0	0	0	0	0	0	0	0	0	0	0	0	0	0	0	0	0	0	0	0	0	0	0	0	0	0	0	0	0
121918	10:20:06	10:21:42	95532	5.0.10.0	4_exp_EVA_AMP_AWA_CON	29	Rpleas_acq	Oppo	Rpleas	Amasked	CS_A	1pleas	distractor2	EVAbeforeCON	acq_new_pleas_masked	acq1_masked	1	2	0	0	300	300	0	0	692	50	0	1	0	0	0	1	blank2r.bmp	0	1	+	0	1	B1r.bmp	492	1	blank2r.bmp	786	5	C1r.bmp	786	1	blank2r.bmp	866	1	engagiert	866	0	0	0	0	0	0	0	0	0	0	0	0	0	0	0	0	0	0	0	0	0	0	0	0	0	0	0	0	0	0	0	0	0
121918	10:20:06	10:21:44	97718	5.0.10.0	4_exp_EVA_AMP_AWA_CON	29	Rpleas_acq	Oppo	Rpleas	Amasked	CS_A	2pleas	distractor2	EVAbeforeCON	acq_US_unple_masked	acq1_masked	1	3	0	0	300	300	0	0	706	46	0	1	0	0	0	1	blank2r.bmp	0	1	+	0	2	B2r.bmp	492	1	blank2r.bmp	786	1	CPLW	786	1	blank2r.bmp	866	5	verbissen	866	0	0	0	0	0	0	0	0	0	0	0	0	0	0	0	0	0	0	0	0	0	0	0	0	0	0	0	0	0	0	0	0	0
121918	10:20:06	10:21:46	99891	5.0.10.0	4_exp_EVA_AMP_AWA_CON	29	Rpleas_acq	Oppo	Rpleas	Amasked	CS_A	2pleas	distractor2	EVAbeforeCON	acq_US_pleas_masked	acq1_masked	1	4	0	0	300	300	0	0	701	50	0	1	0	0	0	1	blank2r.bmp	0	1	+	0	3	B3r.bmp	492	1	blank2r.bmp	786	1	DHJF	786	1	blank2r.bmp	866	3	gütig	866	0	0	0	0	0	0	0	0	0	0	0	0	0	0	0	0	0	0	0	0	0	0	0	0	0	0	0	0	0	0	0	0	0
121918	10:20:06	10:21:49	102330	5.0.10.0	4_exp_EVA_AMP_AWA_CON	29	Rpleas_acq	Oppo	Rpleas	Amasked	CS_A	2pleas	distractor2	EVAbeforeCON	acq_new_unple_masked	acq1_masked	1	5	0	0	300	300	0	0	947	46	0	1	0	0	0	1	blank2r.bmp	0	1	+	0	7	C3r.bmp	492	1	blank2r.bmp	786	4	B4r.bmp	786	1	blank2r.bmp	866	2	bange	866	0	0	0	0	0	0	0	0	0	0	0	0	0	0	0	0	0	0	0	0	0	0	0	0	0	0	0	0	0	0	0	0	0
121918	10:20:06	10:21:52	105288	5.0.10.0	4_exp_EVA_AMP_AWA_CON	29	Rpleas_acq	Oppo	Rpleas	Amasked	CS_A	2pleas	distractor2	EVAbeforeCON	acq_US_unple_masked	acq1_masked	1	6	0	0	300	300	0	0	1468	46	0	1	0	0	0	1	blank2r.bmp	0	1	+	0	4	B4r.bmp	492	1	blank2r.bmp	786	1	CPLW	786	1	blank2r.bmp	866	6	krise	866	0	0	0	0	0	0	0	0	0	0	0	0	0	0	0	0	0	0	0	0	0	0	0	0	0	0	0	0	0	0	0	0	0
121918	10:20:06	10:21:54	107327	5.0.10.0	4_exp_EVA_AMP_AWA_CON	29	Rpleas_acq	Oppo	Rpleas	Amasked	CS_A	2pleas	distractor2	EVAbeforeCON	acq_US_pleas_masked	acq1_masked	1	7	0	0	300	300	0	0	560	50	0	1	0	0	0	1	blank2r.bmp	0	1	+	0	8	C4r.bmp	492	1	blank2r.bmp	786	1	DHJF	786	1	blank2r.bmp	866	1	vertrauen	866	0	0	0	0	0	0	0	0	0	0	0	0	0	0	0	0	0	0	0	0	0	0	0	0	0	0	0	0	0	0	0	0	0
121918	10:20:06	10:21:56	109860	5.0.10.0	4_exp_EVA_AMP_AWA_CON	29	Rpleas_acq	Oppo	Rpleas	Amasked	CS_A	2pleas	distractor2	EVAbeforeCON	acq_new_pleas_masked	acq1_masked	1	8	0	0	300	300	0	0	1059	50	0	1	0	0	0	1	blank2r.bmp	0	1	+	0	6	C2r.bmp	492	1	blank2r.bmp	786	2	B2r.bmp	786	1	blank2r.bmp	866	3	anregung	866	0	0	0	0	0	0	0	0	0	0	0	0	0	0	0	0	0	0	0	0	0	0	0	0	0	0	0	0	0	0	0	0	0
121918	10:20:06	10:21:59	112099	5.0.10.0	4_exp_EVA_AMP_AWA_CON	29	Rpleas_acq	Oppo	Rpleas	Amasked	CS_A	2pleas	distractor2	EVAbeforeCON	acq_new_unple_masked	acq1_masked	1	9	0	0	300	300	0	0	749	46	0	1	0	0	0	1	blank2r.bmp	0	1	+	0	5	C1r.bmp	492	1	blank2r.bmp	786	8	C4r.bmp	786	1	blank2r.bmp	866	6	geizig	866	0	0	0	0	0	0	0	0	0	0	0	0	0	0	0	0	0	0	0	0	0	0	0	0	0	0	0	0	0	0	0	0	0
121918	10:20:06	10:22:01	114285	5.0.10.0	4_exp_EVA_AMP_AWA_CON	29	Rpleas_acq	Oppo	Rpleas	Amasked	CS_A	2pleas	distractor2	EVAbeforeCON	acq_US_pleas_masked	acq1_masked	1	10	0	0	300	300	0	0	691	50	0	1	0	0	0	1	blank2r.bmp	0	1	+	0	4	B4r.bmp	492	1	blank2r.bmp	786	1	DHJF	786	1	blank2r.bmp	866	4	genießen	866	0	0	0	0	0	0	0	0	0	0	0	0	0	0	0	0	0	0	0	0	0	0	0	0	0	0	0	0	0	0	0	0	0
121918	10:20:06	10:22:03	116337	5.0.10.0	4_exp_EVA_AMP_AWA_CON	29	Rpleas_acq	Oppo	Rpleas	Amasked	CS_A	2pleas	distractor2	EVAbeforeCON	acq_US_unple_masked	acq1_masked	1	11	0	0	300	300	0	0	582	46	0	1	0	0	0	1	blank2r.bmp	0	1	+	0	2	B2r.bmp	492	1	blank2r.bmp	786	1	CPLW	786	1	blank2r.bmp	866	2	töten	866	0	0	0	0	0	0	0	0	0	0	0	0	0	0	0	0	0	0	0	0	0	0	0	0	0	0	0	0	0	0	0	0	0
121918	10:20:06	10:22:05	118749	5.0.10.0	4_exp_EVA_AMP_AWA_CON	29	Rpleas_acq	Oppo	Rpleas	Amasked	CS_A	2pleas	distractor2	EVAbeforeCON	acq_new_pleas_masked	acq1_masked	1	12	0	0	300	300	0	0	929	50	0	1	0	0	0	1	blank2r.bmp	0	1	+	0	8	C4r.bmp	492	1	blank2r.bmp	786	1	B1r.bmp	786	1	blank2r.bmp	866	6	gesittet	866	0	0	0	0	0	0	0	0	0	0	0	0	0	0	0	0	0	0	0	0	0	0	0	0	0	0	0	0	0	0	0	0	0
121918	10:20:06	10:22:07	120855	5.0.10.0	4_exp_EVA_AMP_AWA_CON	29	Rpleas_acq	Oppo	Rpleas	Amasked	CS_A	2pleas	distractor2	EVAbeforeCON	acq_US_pleas_masked	acq1_masked	1	13	0	0	300	300	0	0	614	50	0	1	0	0	0	1	blank2r.bmp	0	1	+	0	6	C2r.bmp	492	1	blank2r.bmp	786	1	DHJF	786	1	blank2r.bmp	866	6	kuss	866	0	0	0	0	0	0	0	0	0	0	0	0	0	0	0	0	0	0	0	0	0	0	0	0	0	0	0	0	0	0	0	0	0
121918	10:20:06	10:22:10	123281	5.0.10.0	4_exp_EVA_AMP_AWA_CON	29	Rpleas_acq	Oppo	Rpleas	Amasked	CS_A	2pleas	distractor2	EVAbeforeCON	acq_new_unple_masked	acq1_masked	1	14	0	0	300	300	0	0	956	46	0	1	0	0	0	1	blank2r.bmp	0	1	+	0	3	B3r.bmp	492	1	blank2r.bmp	786	6	C2r.bmp	786	1	blank2r.bmp	866	1	engstirnig	866	0	0	0	0	0	0	0	0	0	0	0	0	0	0	0	0	0	0	0	0	0	0	0	0	0	0	0	0	0	0	0	0	0
121918	10:20:06	10:22:12	125347	5.0.10.0	4_exp_EVA_AMP_AWA_CON	29	Rpleas_acq	Oppo	Rpleas	Amasked	CS_A	2pleas	distractor2	EVAbeforeCON	acq_US_unple_masked	acq1_masked	1	15	0	0	300	300	0	0	583	46	0	1	0	0	0	1	blank2r.bmp	0	1	+	0	7	C3r.bmp	492	1	blank2r.bmp	786	1	CPLW	786	1	blank2r.bmp	866	1	versagen	866	0	0	0	0	0	0	0	0	0	0	0	0	0	0	0	0	0	0	0	0	0	0	0	0	0	0	0	0	0	0	0	0	0
121918	10:20:06	10:22:14	127519	5.0.10.0	4_exp_EVA_AMP_AWA_CON	29	Rpleas_acq	Oppo	Rpleas	Amasked	CS_A	2pleas	distractor2	EVAbeforeCON	acq_US_unple_masked	acq1_masked	1	16	0	0	300	300	0	0	691	46	0	1	0	0	0	1	blank2r.bmp	0	1	+	0	1	B1r.bmp	492	1	blank2r.bmp	786	1	CPLW	786	1	blank2r.bmp	866	4	gemein	866	0	0	0	0	0	0	0	0	0	0	0	0	0	0	0	0	0	0	0	0	0	0	0	0	0	0	0	0	0	0	0	0	0
121918	10:20:06	10:22:17	130171	5.0.10.0	4_exp_EVA_AMP_AWA_CON	29	Rpleas_acq	Oppo	Rpleas	Amasked	CS_A	2pleas	distractor2	EVAbeforeCON	acq_US_unple_masked	acq1_masked	1	17	0	0	300	300	0	0	1169	46	0	1	0	0	0	1	blank2r.bmp	0	1	+	0	4	B4r.bmp	492	1	blank2r.bmp	786	1	CPLW	786	1	blank2r.bmp	866	3	gierig	866	0	0	0	0	0	0	0	0	0	0	0	0	0	0	0	0	0	0	0	0	0	0	0	0	0	0	0	0	0	0	0	0	0
121918	10:20:06	10:22:19	132224	5.0.10.0	4_exp_EVA_AMP_AWA_CON	29	Rpleas_acq	Oppo	Rpleas	Amasked	CS_A	2pleas	distractor2	EVAbeforeCON	acq_US_pleas_masked	acq1_masked	1	18	0	0	300	300	0	0	566	50	0	1	0	0	0	1	blank2r.bmp	0	1	+	0	6	C2r.bmp	492	1	blank2r.bmp	786	1	DHJF	786	1	blank2r.bmp	866	2	träumen	866	0	0	0	0	0	0	0	0	0	0	0	0	0	0	0	0	0	0	0	0	0	0	0	0	0	0	0	0	0	0	0	0	0
121918	10:20:06	10:22:21	134423	5.0.10.0	4_exp_EVA_AMP_AWA_CON	29	Rpleas_acq	Oppo	Rpleas	Amasked	CS_A	2pleas	distractor2	EVAbeforeCON	acq_US_pleas_masked	acq1_masked	1	19	0	0	300	300	0	0	722	50	0	1	0	0	0	1	blank2r.bmp	0	1	+	0	2	B2r.bmp	492	1	blank2r.bmp	786	1	DHJF	786	1	blank2r.bmp	866	5	vergnügt	866	0	0	0	0	0	0	0	0	0	0	0	0	0	0	0	0	0	0	0	0	0	0	0	0	0	0	0	0	0	0	0	0	0
121918	10:20:06	10:22:23	136529	5.0.10.0	4_exp_EVA_AMP_AWA_CON	29	Rpleas_acq	Oppo	Rpleas	Amasked	CS_A	2pleas	distractor2	EVAbeforeCON	acq_new_unple_masked	acq1_masked	1	20	0	0	300	300	0	0	636	46	0	1	0	0	0	1	blank2r.bmp	0	1	+	0	7	C3r.bmp	492	1	blank2r.bmp	786	3	B3r.bmp	786	1	blank2r.bmp	866	3	ausrottung	866	0	0	0	0	0	0	0	0	0	0	0	0	0	0	0	0	0	0	0	0	0	0	0	0	0	0	0	0	0	0	0	0	0
121918	10:20:06	10:22:25	138554	5.0.10.0	4_exp_EVA_AMP_AWA_CON	29	Rpleas_acq	Oppo	Rpleas	Amasked	CS_A	2pleas	distractor2	EVAbeforeCON	acq_new_pleas_masked	acq1_masked	1	21	0	0	300	300	0	0	546	50	0	1	0	0	0	1	blank2r.bmp	0	1	+	0	1	B1r.bmp	492	1	blank2r.bmp	786	4	B4r.bmp	786	1	blank2r.bmp	866	4	kreativ	866	0	0	0	0	0	0	0	0	0	0	0	0	0	0	0	0	0	0	0	0	0	0	0	0	0	0	0	0	0	0	0	0	0
121918	10:20:06	10:22:27	140527	5.0.10.0	4_exp_EVA_AMP_AWA_CON	29	Rpleas_acq	Oppo	Rpleas	Amasked	CS_A	2pleas	distractor2	EVAbeforeCON	acq_new_pleas_masked	acq1_masked	1	22	0	0	300	300	0	0	489	50	0	1	0	0	0	1	blank2r.bmp	0	1	+	0	8	C4r.bmp	492	1	blank2r.bmp	786	1	B1r.bmp	786	1	blank2r.bmp	866	5	sonnig	866	0	0	0	0	0	0	0	0	0	0	0	0	0	0	0	0	0	0	0	0	0	0	0	0	0	0	0	0	0	0	0	0	0
121918	10:20:06	10:22:29	142566	5.0.10.0	4_exp_EVA_AMP_AWA_CON	29	Rpleas_acq	Oppo	Rpleas	Amasked	CS_A	2pleas	distractor2	EVAbeforeCON	acq_new_pleas_masked	acq1_masked	1	23	0	0	300	300	0	0	548	50	0	1	0	0	0	1	blank2r.bmp	0	1	+	0	3	B3r.bmp	492	1	blank2r.bmp	786	2	B2r.bmp	786	1	blank2r.bmp	866	2	besonnen	866	0	0	0	0	0	0	0	0	0	0	0	0	0	0	0	0	0	0	0	0	0	0	0	0	0	0	0	0	0	0	0	0	0
121918	10:20:06	10:22:31	144579	5.0.10.0	4_exp_EVA_AMP_AWA_CON	29	Rpleas_acq	Oppo	Rpleas	Amasked	CS_A	2pleas	distractor2	EVAbeforeCON	acq_new_unple_masked	acq1_masked	1	24	0	0	300	300	0	0	541	46	0	1	0	0	0	1	blank2r.bmp	0	1	+	0	5	C1r.bmp	492	1	blank2r.bmp	786	7	C3r.bmp	786	1	blank2r.bmp	866	4	krank	866	0	0	0	0	0	0	0	0	0	0	0	0	0	0	0	0	0	0	0	0	0	0	0	0	0	0	0	0	0	0	0	0	0
121918	10:20:06	10:22:33	146671	5.0.10.0	4_exp_EVA_AMP_AWA_CON	29	Rpleas_acq	Oppo	Rpleas	Amasked	CS_A	2pleas	distractor2	EVAbeforeCON	acq_US_unple_masked	acq1_masked	1	25	0	0	300	300	0	0	613	46	0	1	0	0	0	1	blank2r.bmp	0	1	+	0	3	B3r.bmp	492	1	blank2r.bmp	786	1	CPLW	786	1	blank2r.bmp	866	4	gemein	866	0	0	0	0	0	0	0	0	0	0	0	0	0	0	0	0	0	0	0	0	0	0	0	0	0	0	0	0	0	0	0	0	0
121918	10:20:06	10:22:36	148990	5.0.10.0	4_exp_EVA_AMP_AWA_CON	29	Rpleas_acq	Oppo	Rpleas	Amasked	CS_A	2pleas	distractor2	EVAbeforeCON	acq_US_unple_masked	acq1_masked	1	26	0	0	300	300	0	0	849	46	0	1	0	0	0	1	blank2r.bmp	0	1	+	0	7	C3r.bmp	492	1	blank2r.bmp	786	1	CPLW	786	1	blank2r.bmp	866	6	krise	866	0	0	0	0	0	0	0	0	0	0	0	0	0	0	0	0	0	0	0	0	0	0	0	0	0	0	0	0	0	0	0	0	0
121918	10:20:06	10:22:38	151149	5.0.10.0	4_exp_EVA_AMP_AWA_CON	29	Rpleas_acq	Oppo	Rpleas	Amasked	CS_A	2pleas	distractor2	EVAbeforeCON	acq_new_pleas_masked	acq1_masked	1	27	0	0	300	300	0	0	673	50	0	1	0	0	0	1	blank2r.bmp	0	1	+	0	1	B1r.bmp	492	1	blank2r.bmp	786	8	C4r.bmp	786	1	blank2r.bmp	866	6	gesittet	866	0	0	0	0	0	0	0	0	0	0	0	0	0	0	0	0	0	0	0	0	0	0	0	0	0	0	0	0	0	0	0	0	0
121918	10:20:06	10:22:40	153175	5.0.10.0	4_exp_EVA_AMP_AWA_CON	29	Rpleas_acq	Oppo	Rpleas	Amasked	CS_A	2pleas	distractor2	EVAbeforeCON	acq_new_pleas_masked	acq1_masked	1	28	0	0	300	300	0	0	557	50	0	1	0	0	0	1	blank2r.bmp	0	1	+	0	8	C4r.bmp	492	1	blank2r.bmp	786	3	B3r.bmp	786	1	blank2r.bmp	866	4	kreativ	866	0	0	0	0	0	0	0	0	0	0	0	0	0	0	0	0	0	0	0	0	0	0	0	0	0	0	0	0	0	0	0	0	0
121918	10:20:06	10:22:42	155267	5.0.10.0	4_exp_EVA_AMP_AWA_CON	29	Rpleas_acq	Oppo	Rpleas	Amasked	CS_A	2pleas	distractor2	EVAbeforeCON	acq_new_unple_masked	acq1_masked	1	29	0	0	300	300	0	0	593	46	0	1	0	0	0	1	blank2r.bmp	0	1	+	0	5	C1r.bmp	492	1	blank2r.bmp	786	6	C2r.bmp	786	1	blank2r.bmp	866	6	geizig	866	0	0	0	0	0	0	0	0	0	0	0	0	0	0	0	0	0	0	0	0	0	0	0	0	0	0	0	0	0	0	0	0	0
121918	10:20:06	10:22:44	157413	5.0.10.0	4_exp_EVA_AMP_AWA_CON	29	Rpleas_acq	Oppo	Rpleas	Amasked	CS_A	2pleas	distractor2	EVAbeforeCON	acq_US_pleas_masked	acq1_masked	1	30	0	0	300	300	0	0	673	50	0	1	0	0	0	1	blank2r.bmp	0	1	+	0	4	B4r.bmp	492	1	blank2r.bmp	786	1	DHJF	786	1	blank2r.bmp	866	2	träumen	866	0	0	0	0	0	0	0	0	0	0	0	0	0	0	0	0	0	0	0	0	0	0	0	0	0	0	0	0	0	0	0	0	0
121918	10:20:06	10:22:46	159399	5.0.10.0	4_exp_EVA_AMP_AWA_CON	29	Rpleas_acq	Oppo	Rpleas	Amasked	CS_A	2pleas	distractor2	EVAbeforeCON	acq_new_unple_masked	acq1_masked	1	31	0	0	300	300	0	0	503	46	0	1	0	0	0	1	blank2r.bmp	0	1	+	0	2	B2r.bmp	492	1	blank2r.bmp	786	5	C1r.bmp	786	1	blank2r.bmp	866	3	ausrottung	866	0	0	0	0	0	0	0	0	0	0	0	0	0	0	0	0	0	0	0	0	0	0	0	0	0	0	0	0	0	0	0	0	0
121918	10:20:06	10:22:48	161465	5.0.10.0	4_exp_EVA_AMP_AWA_CON	29	Rpleas_acq	Oppo	Rpleas	Amasked	CS_A	2pleas	distractor2	EVAbeforeCON	acq_new_unple_masked	acq1_masked	1	32	0	0	300	300	0	0	594	46	0	1	0	0	0	1	blank2r.bmp	0	1	+	0	6	C2r.bmp	492	1	blank2r.bmp	786	5	C1r.bmp	786	1	blank2r.bmp	866	2	bange	866	0	0	0	0	0	0	0	0	0	0	0	0	0	0	0	0	0	0	0	0	0	0	0	0	0	0	0	0	0	0	0	0	0
121918	10:20:06	10:22:50	163517	5.0.10.0	4_exp_EVA_AMP_AWA_CON	29	Rpleas_acq	Oppo	Rpleas	Amasked	CS_A	2pleas	distractor2	EVAbeforeCON	acq_US_pleas_masked	acq1_masked	1	33	0	0	300	300	0	0	566	50	0	1	0	0	0	1	blank2r.bmp	0	1	+	0	4	B4r.bmp	492	1	blank2r.bmp	786	1	DHJF	786	1	blank2r.bmp	866	5	vergnügt	866	0	0	0	0	0	0	0	0	0	0	0	0	0	0	0	0	0	0	0	0	0	0	0	0	0	0	0	0	0	0	0	0	0
121918	10:20:06	10:22:52	165676	5.0.10.0	4_exp_EVA_AMP_AWA_CON	29	Rpleas_acq	Oppo	Rpleas	Amasked	CS_A	2pleas	distractor2	EVAbeforeCON	acq_US_pleas_masked	acq1_masked	1	34	0	0	300	300	0	0	691	50	0	1	0	0	0	1	blank2r.bmp	0	1	+	0	7	C3r.bmp	492	1	blank2r.bmp	786	1	DHJF	786	1	blank2r.bmp	866	4	genießen	866	0	0	0	0	0	0	0	0	0	0	0	0	0	0	0	0	0	0	0	0	0	0	0	0	0	0	0	0	0	0	0	0	0
121918	10:20:06	10:22:54	167675	5.0.10.0	4_exp_EVA_AMP_AWA_CON	29	Rpleas_acq	Oppo	Rpleas	Amasked	CS_A	2pleas	distractor2	EVAbeforeCON	acq_new_pleas_masked	acq1_masked	1	35	0	0	300	300	0	0	507	50	0	1	0	0	0	1	blank2r.bmp	0	1	+	0	2	B2r.bmp	492	1	blank2r.bmp	786	6	C2r.bmp	786	1	blank2r.bmp	866	5	sonnig	866	0	0	0	0	0	0	0	0	0	0	0	0	0	0	0	0	0	0	0	0	0	0	0	0	0	0	0	0	0	0	0	0	0
121918	10:20:06	10:22:56	169781	5.0.10.0	4_exp_EVA_AMP_AWA_CON	29	Rpleas_acq	Oppo	Rpleas	Amasked	CS_A	2pleas	distractor2	EVAbeforeCON	acq_US_unple_masked	acq1_masked	1	36	0	0	300	300	0	0	629	46	0	1	0	0	0	1	blank2r.bmp	0	1	+	0	6	C2r.bmp	492	1	blank2r.bmp	786	1	CPLW	786	1	blank2r.bmp	866	3	gierig	866	0	0	0	0	0	0	0	0	0	0	0	0	0	0	0	0	0	0	0	0	0	0	0	0	0	0	0	0	0	0	0	0	0
121918	10:20:06	10:23:33	206419	5.0.10.0	4_exp_EVA_AMP_AWA_CON	29	Rpleas_acq	Oppo	Rpleas	Amasked	CS_A	2pleas	distractor2	EVAbeforeCON	acq_new_pleas_masked	acq2_masked	2	1	480	0	300	300	0	0	1098	50	0	1	0	0	0	1	blank2r.bmp	0	1	+	0	5	C1r.bmp	492	1	blank2r.bmp	786	1	B1r.bmp	786	1	blank2r.bmp	866	2	besonnen	866	1	!	1319	1	!	-1	0	0	0	0	0	0	0	0	0	0	0	0	0	0	0	0	0	0	0	0	0	0	0	0	0	0	0
121918	10:20:06	10:23:35	208778	5.0.10.0	4_exp_EVA_AMP_AWA_CON	29	Rpleas_acq	Oppo	Rpleas	Amasked	CS_A	2pleas	distractor2	EVAbeforeCON	acq_US_unple_masked	acq2_masked	2	2	480	0	300	300	0	0	579	46	0	1	0	0	0	1	blank2r.bmp	0	1	+	0	8	C4r.bmp	492	1	blank2r.bmp	786	1	CPLW	786	1	blank2r.bmp	866	1	versagen	866	1	!	1319	1	!	-1	0	0	0	0	0	0	0	0	0	0	0	0	0	0	0	0	0	0	0	0	0	0	0	0	0	0	0
121918	10:20:06	10:23:38	211164	5.0.10.0	4_exp_EVA_AMP_AWA_CON	29	Rpleas_acq	Oppo	Rpleas	Amasked	CS_A	2pleas	distractor2	EVAbeforeCON	acq_US_pleas_masked	acq2_masked	2	3	480	0	300	300	0	0	602	50	0	1	0	0	0	1	blank2r.bmp	0	1	+	0	3	B3r.bmp	492	1	blank2r.bmp	786	1	DHJF	786	1	blank2r.bmp	866	3	gütig	866	1	!	1319	1	!	-1	0	0	0	0	0	0	0	0	0	0	0	0	0	0	0	0	0	0	0	0	0	0	0	0	0	0	0
121918	10:20:06	10:23:40	213656	5.0.10.0	4_exp_EVA_AMP_AWA_CON	29	Rpleas_acq	Oppo	Rpleas	Amasked	CS_A	2pleas	distractor2	EVAbeforeCON	acq_US_pleas_masked	acq2_masked	2	4	480	0	300	300	0	0	705	50	0	1	0	0	0	1	blank2r.bmp	0	1	+	0	1	B1r.bmp	492	1	blank2r.bmp	786	1	DHJF	786	1	blank2r.bmp	866	1	vertrauen	866	1	!	1319	1	!	-1	0	0	0	0	0	0	0	0	0	0	0	0	0	0	0	0	0	0	0	0	0	0	0	0	0	0	0
121918	10:20:06	10:23:42	215935	5.0.10.0	4_exp_EVA_AMP_AWA_CON	29	Rpleas_acq	Oppo	Rpleas	Amasked	CS_A	2pleas	distractor2	EVAbeforeCON	acq_US_pleas_masked	acq2_masked	2	5	480	1	300	300	0	0	463	50	0	1	0	0	0	1	blank2r.bmp	0	1	+	0	4	B4r.bmp	492	1	blank2r.bmp	786	1	DHJF	786	1	blank2r.bmp	866	6	kuss	866	1	!	1319	1	!	1359	0	0	0	0	0	0	0	0	0	0	0	0	0	0	0	0	0	0	0	0	0	0	0	0	0	0	0
121918	10:20:06	10:23:45	218108	5.0.10.0	4_exp_EVA_AMP_AWA_CON	29	Rpleas_acq	Oppo	Rpleas	Amasked	CS_A	2pleas	distractor2	EVAbeforeCON	acq_US_unple_masked	acq2_masked	2	6	480	0	300	300	0	0	404	46	0	1	0	0	0	1	blank2r.bmp	0	1	+	0	6	C2r.bmp	492	1	blank2r.bmp	786	1	CPLW	786	1	blank2r.bmp	866	2	töten	866	1	!	-1	1	!	-1	0	0	0	0	0	0	0	0	0	0	0	0	0	0	0	0	0	0	0	0	0	0	0	0	0	0	0
121918	10:20:06	10:23:47	220680	5.0.10.0	4_exp_EVA_AMP_AWA_CON	29	Rpleas_acq	Oppo	Rpleas	Amasked	CS_A	2pleas	distractor2	EVAbeforeCON	acq_new_pleas_masked	acq2_masked	2	7	480	0	300	300	0	0	796	50	0	1	0	0	0	1	blank2r.bmp	0	1	+	0	2	B2r.bmp	492	1	blank2r.bmp	786	7	C3r.bmp	786	1	blank2r.bmp	866	1	engagiert	866	1	!	1319	1	!	-1	0	0	0	0	0	0	0	0	0	0	0	0	0	0	0	0	0	0	0	0	0	0	0	0	0	0	0
121918	10:20:06	10:23:50	223066	5.0.10.0	4_exp_EVA_AMP_AWA_CON	29	Rpleas_acq	Oppo	Rpleas	Amasked	CS_A	2pleas	distractor2	EVAbeforeCON	acq_new_unple_masked	acq2_masked	2	8	480	0	300	300	0	0	599	46	0	1	0	0	0	1	blank2r.bmp	0	1	+	0	1	B1r.bmp	492	1	blank2r.bmp	786	2	B2r.bmp	786	1	blank2r.bmp	866	5	sterben	866	1	!	1319	1	!	-1	0	0	0	0	0	0	0	0	0	0	0	0	0	0	0	0	0	0	0	0	0	0	0	0	0	0	0
121918	10:20:06	10:23:52	225425	5.0.10.0	4_exp_EVA_AMP_AWA_CON	29	Rpleas_acq	Oppo	Rpleas	Amasked	CS_A	2pleas	distractor2	EVAbeforeCON	acq_new_pleas_masked	acq2_masked	2	9	480	0	300	300	0	0	582	50	0	1	0	0	0	1	blank2r.bmp	0	1	+	0	7	C3r.bmp	492	1	blank2r.bmp	786	4	B4r.bmp	786	1	blank2r.bmp	866	3	anregung	866	1	!	1319	1	!	-1	0	0	0	0	0	0	0	0	0	0	0	0	0	0	0	0	0	0	0	0	0	0	0	0	0	0	0
121918	10:20:06	10:23:54	227744	5.0.10.0	4_exp_EVA_AMP_AWA_CON	29	Rpleas_acq	Oppo	Rpleas	Amasked	CS_A	2pleas	distractor2	EVAbeforeCON	acq_US_unple_masked	acq2_masked	2	10	480	1	300	300	0	0	510	46	0	1	0	0	0	1	blank2r.bmp	0	1	+	0	8	C4r.bmp	492	1	blank2r.bmp	786	1	CPLW	786	1	blank2r.bmp	866	5	verbissen	866	1	!	1319	1	!	1412	0	0	0	0	0	0	0	0	0	0	0	0	0	0	0	0	0	0	0	0	0	0	0	0	0	0	0
121918	10:20:06	10:23:57	230036	5.0.10.0	4_exp_EVA_AMP_AWA_CON	29	Rpleas_acq	Oppo	Rpleas	Amasked	CS_A	2pleas	distractor2	EVAbeforeCON	acq_new_unple_masked	acq2_masked	2	11	480	1	300	300	0	0	500	46	0	1	0	0	0	1	blank2r.bmp	0	1	+	0	5	C1r.bmp	492	1	blank2r.bmp	786	8	C4r.bmp	786	1	blank2r.bmp	866	1	engstirnig	866	1	!	1319	1	!	1399	0	0	0	0	0	0	0	0	0	0	0	0	0	0	0	0	0	0	0	0	0	0	0	0	0	0	0
121918	10:20:06	10:23:59	232488	5.0.10.0	4_exp_EVA_AMP_AWA_CON	29	Rpleas_acq	Oppo	Rpleas	Amasked	CS_A	2pleas	distractor2	EVAbeforeCON	acq_new_unple_masked	acq2_masked	2	12	480	1	300	300	0	0	443	50	0	0	0	0	0	1	blank2r.bmp	0	1	+	0	3	B3r.bmp	492	1	blank2r.bmp	786	3	B3r.bmp	786	1	blank2r.bmp	866	4	krank	866	1	FEHLER	1665	1	!	1319	1	!	1346	0	0	0	0	0	0	0	0	0	0	0	0	0	0	0	0	0	0	0	0	0	0	0	0
121918	10:20:06	10:24:01	234647	5.0.10.0	4_exp_EVA_AMP_AWA_CON	29	Rpleas_acq	Oppo	Rpleas	Amasked	CS_A	2pleas	distractor2	EVAbeforeCON	acq_new_unple_masked	acq2_masked	2	13	480	0	300	300	0	0	608	46	0	1	0	0	0	1	blank2r.bmp	0	1	+	0	5	C1r.bmp	492	1	blank2r.bmp	786	7	C3r.bmp	786	1	blank2r.bmp	866	1	engstirnig	866	1	!	1319	1	!	-1	0	0	0	0	0	0	0	0	0	0	0	0	0	0	0	0	0	0	0	0	0	0	0	0	0	0	0
121918	10:20:06	10:24:03	236966	5.0.10.0	4_exp_EVA_AMP_AWA_CON	29	Rpleas_acq	Oppo	Rpleas	Amasked	CS_A	2pleas	distractor2	EVAbeforeCON	acq_US_unple_masked	acq2_masked	2	14	480	0	300	300	0	0	314	50	0	0	0	0	0	1	blank2r.bmp	0	1	+	0	2	B2r.bmp	492	1	blank2r.bmp	786	1	CPLW	786	1	blank2r.bmp	866	2	töten	866	1	FEHLER	1519	1	!	-1	1	!	-1	0	0	0	0	0	0	0	0	0	0	0	0	0	0	0	0	0	0	0	0	0	0	0	0
121918	10:20:06	10:24:06	239032	5.0.10.0	4_exp_EVA_AMP_AWA_CON	29	Rpleas_acq	Oppo	Rpleas	Amasked	CS_A	2pleas	distractor2	EVAbeforeCON	acq_new_pleas_masked	acq2_masked	2	15	480	1	300	300	0	0	483	50	0	1	0	0	0	1	blank2r.bmp	0	1	+	0	8	C4r.bmp	492	1	blank2r.bmp	786	1	B1r.bmp	786	1	blank2r.bmp	866	3	anregung	866	1	!	1319	1	!	1386	0	0	0	0	0	0	0	0	0	0	0	0	0	0	0	0	0	0	0	0	0	0	0	0	0	0	0
121918	10:20:06	10:24:08	241338	5.0.10.0	4_exp_EVA_AMP_AWA_CON	29	Rpleas_acq	Oppo	Rpleas	Amasked	CS_A	2pleas	distractor2	EVAbeforeCON	acq_US_pleas_masked	acq2_masked	2	16	480	1	300	300	0	0	504	50	0	1	0	0	0	1	blank2r.bmp	0	1	+	0	1	B1r.bmp	492	1	blank2r.bmp	786	1	DHJF	786	1	blank2r.bmp	866	5	vergnügt	866	1	!	1319	1	!	1399	0	0	0	0	0	0	0	0	0	0	0	0	0	0	0	0	0	0	0	0	0	0	0	0	0	0	0
121918	10:20:06	10:24:10	243497	5.0.10.0	4_exp_EVA_AMP_AWA_CON	29	Rpleas_acq	Oppo	Rpleas	Amasked	CS_A	2pleas	distractor2	EVAbeforeCON	acq_US_pleas_masked	acq2_masked	2	17	480	0	300	300	0	0	391	50	0	1	0	0	0	1	blank2r.bmp	0	1	+	0	7	C3r.bmp	492	1	blank2r.bmp	786	1	DHJF	786	1	blank2r.bmp	866	3	gütig	866	1	!	-1	1	!	-1	0	0	0	0	0	0	0	0	0	0	0	0	0	0	0	0	0	0	0	0	0	0	0	0	0	0	0
121918	10:20:06	10:24:12	245949	5.0.10.0	4_exp_EVA_AMP_AWA_CON	29	Rpleas_acq	Oppo	Rpleas	Amasked	CS_A	2pleas	distractor2	EVAbeforeCON	acq_new_unple_masked	acq2_masked	2	18	480	0	300	300	0	0	655	46	0	1	0	0	0	1	blank2r.bmp	0	1	+	0	6	C2r.bmp	492	1	blank2r.bmp	786	8	C4r.bmp	786	1	blank2r.bmp	866	4	krank	866	1	!	1319	1	!	-1	0	0	0	0	0	0	0	0	0	0	0	0	0	0	0	0	0	0	0	0	0	0	0	0	0	0	0
121918	10:20:06	10:24:15	248068	5.0.10.0	4_exp_EVA_AMP_AWA_CON	29	Rpleas_acq	Oppo	Rpleas	Amasked	CS_A	2pleas	distractor2	EVAbeforeCON	acq_new_pleas_masked	acq2_masked	2	19	480	0	300	300	0	0	333	50	0	1	0	0	0	1	blank2r.bmp	0	1	+	0	4	B4r.bmp	492	1	blank2r.bmp	786	3	B3r.bmp	786	1	blank2r.bmp	866	5	sonnig	866	1	!	-1	1	!	-1	0	0	0	0	0	0	0	0	0	0	0	0	0	0	0	0	0	0	0	0	0	0	0	0	0	0	0
121918	10:20:06	10:24:17	250321	5.0.10.0	4_exp_EVA_AMP_AWA_CON	29	Rpleas_acq	Oppo	Rpleas	Amasked	CS_A	2pleas	distractor2	EVAbeforeCON	acq_US_pleas_masked	acq2_masked	2	20	480	1	300	300	0	0	426	50	0	1	0	0	0	1	blank2r.bmp	0	1	+	0	3	B3r.bmp	492	1	blank2r.bmp	786	1	DHJF	786	1	blank2r.bmp	866	6	kuss	866	1	!	1319	1	!	1332	0	0	0	0	0	0	0	0	0	0	0	0	0	0	0	0	0	0	0	0	0	0	0	0	0	0	0
121918	10:20:06	10:24:19	252653	5.0.10.0	4_exp_EVA_AMP_AWA_CON	29	Rpleas_acq	Oppo	Rpleas	Amasked	CS_A	2pleas	distractor2	EVAbeforeCON	acq_new_unple_masked	acq2_masked	2	21	480	0	300	300	0	0	564	46	0	1	0	0	0	1	blank2r.bmp	0	1	+	0	5	C1r.bmp	492	1	blank2r.bmp	786	4	B4r.bmp	786	1	blank2r.bmp	866	5	sterben	866	1	!	1319	1	!	-1	0	0	0	0	0	0	0	0	0	0	0	0	0	0	0	0	0	0	0	0	0	0	0	0	0	0	0
121918	10:20:06	10:24:21	254905	5.0.10.0	4_exp_EVA_AMP_AWA_CON	29	Rpleas_acq	Oppo	Rpleas	Amasked	CS_A	2pleas	distractor2	EVAbeforeCON	acq_US_unple_masked	acq2_masked	2	22	480	1	300	300	0	0	451	46	0	1	0	0	0	1	blank2r.bmp	0	1	+	0	7	C3r.bmp	492	1	blank2r.bmp	786	1	CPLW	786	1	blank2r.bmp	866	4	gemein	866	1	!	1319	1	!	1346	0	0	0	0	0	0	0	0	0	0	0	0	0	0	0	0	0	0	0	0	0	0	0	0	0	0	0
121918	10:20:06	10:24:24	257224	5.0.10.0	4_exp_EVA_AMP_AWA_CON	29	Rpleas_acq	Oppo	Rpleas	Amasked	CS_A	2pleas	distractor2	EVAbeforeCON	acq_new_pleas_masked	acq2_masked	2	23	480	1	300	300	0	0	529	50	0	1	0	0	0	1	blank2r.bmp	0	1	+	0	8	C4r.bmp	492	1	blank2r.bmp	786	5	C1r.bmp	786	1	blank2r.bmp	866	4	kreativ	866	1	!	1319	1	!	1426	0	0	0	0	0	0	0	0	0	0	0	0	0	0	0	0	0	0	0	0	0	0	0	0	0	0	0
121918	10:20:06	10:24:26	259464	5.0.10.0	4_exp_EVA_AMP_AWA_CON	29	Rpleas_acq	Oppo	Rpleas	Amasked	CS_A	2pleas	distractor2	EVAbeforeCON	acq_US_unple_masked	acq2_masked	2	24	480	1	300	300	0	0	428	46	0	1	0	0	0	1	blank2r.bmp	0	1	+	0	3	B3r.bmp	492	1	blank2r.bmp	786	1	CPLW	786	1	blank2r.bmp	866	6	krise	866	1	!	1319	1	!	1332	0	0	0	0	0	0	0	0	0	0	0	0	0	0	0	0	0	0	0	0	0	0	0	0	0	0	0
121918	10:20:06	10:24:28	261703	5.0.10.0	4_exp_EVA_AMP_AWA_CON	29	Rpleas_acq	Oppo	Rpleas	Amasked	CS_A	2pleas	distractor2	EVAbeforeCON	acq_US_unple_masked	acq2_masked	2	25	480	1	300	300	0	0	444	46	0	1	0	0	0	1	blank2r.bmp	0	1	+	0	4	B4r.bmp	492	1	blank2r.bmp	786	1	CPLW	786	1	blank2r.bmp	866	5	verbissen	866	1	!	1319	1	!	1346	0	0	0	0	0	0	0	0	0	0	0	0	0	0	0	0	0	0	0	0	0	0	0	0	0	0	0
121918	10:20:06	10:24:30	263862	5.0.10.0	4_exp_EVA_AMP_AWA_CON	29	Rpleas_acq	Oppo	Rpleas	Amasked	CS_A	2pleas	distractor2	EVAbeforeCON	acq_new_pleas_masked	acq2_masked	2	26	480	0	300	300	0	0	397	50	0	1	0	0	0	1	blank2r.bmp	0	1	+	0	1	B1r.bmp	492	1	blank2r.bmp	786	6	C2r.bmp	786	1	blank2r.bmp	866	2	besonnen	866	1	!	-1	1	!	-1	0	0	0	0	0	0	0	0	0	0	0	0	0	0	0	0	0	0	0	0	0	0	0	0	0	0	0
121918	10:20:06	10:24:33	266207	5.0.10.0	4_exp_EVA_AMP_AWA_CON	29	Rpleas_acq	Oppo	Rpleas	Amasked	CS_A	2pleas	distractor2	EVAbeforeCON	acq_US_unple_masked	acq2_masked	2	27	480	0	300	300	0	0	569	46	0	1	0	0	0	1	blank2r.bmp	0	1	+	0	2	B2r.bmp	492	1	blank2r.bmp	786	1	CPLW	786	1	blank2r.bmp	866	1	versagen	866	1	!	1319	1	!	-1	0	0	0	0	0	0	0	0	0	0	0	0	0	0	0	0	0	0	0	0	0	0	0	0	0	0	0
121918	10:20:06	10:24:35	268380	5.0.10.0	4_exp_EVA_AMP_AWA_CON	29	Rpleas_acq	Oppo	Rpleas	Amasked	CS_A	2pleas	distractor2	EVAbeforeCON	acq_new_unple_masked	acq2_masked	2	28	480	0	300	300	0	0	386	46	0	1	0	0	0	1	blank2r.bmp	0	1	+	0	6	C2r.bmp	492	1	blank2r.bmp	786	2	B2r.bmp	786	1	blank2r.bmp	866	6	geizig	866	1	!	-1	1	!	-1	0	0	0	0	0	0	0	0	0	0	0	0	0	0	0	0	0	0	0	0	0	0	0	0	0	0	0
121918	10:20:06	10:24:37	270739	5.0.10.0	4_exp_EVA_AMP_AWA_CON	29	Rpleas_acq	Oppo	Rpleas	Amasked	CS_A	2pleas	distractor2	EVAbeforeCON	acq_new_pleas_masked	acq2_masked	2	29	480	0	300	300	0	0	566	50	0	1	0	0	0	1	blank2r.bmp	0	1	+	0	1	B1r.bmp	492	1	blank2r.bmp	786	7	C3r.bmp	786	1	blank2r.bmp	866	1	engagiert	866	1	!	1319	1	!	-1	0	0	0	0	0	0	0	0	0	0	0	0	0	0	0	0	0	0	0	0	0	0	0	0	0	0	0
121918	10:20:06	10:24:40	273084	5.0.10.0	4_exp_EVA_AMP_AWA_CON	29	Rpleas_acq	Oppo	Rpleas	Amasked	CS_A	2pleas	distractor2	EVAbeforeCON	acq_US_pleas_masked	acq2_masked	2	30	480	0	300	300	0	0	335	46	0	0	0	0	0	1	blank2r.bmp	0	1	+	0	8	C4r.bmp	492	1	blank2r.bmp	786	1	DHJF	786	1	blank2r.bmp	866	2	träumen	866	1	FEHLER	1546	1	!	-1	1	!	-1	0	0	0	0	0	0	0	0	0	0	0	0	0	0	0	0	0	0	0	0	0	0	0	0
121918	10:20:06	10:24:42	275217	5.0.10.0	4_exp_EVA_AMP_AWA_CON	29	Rpleas_acq	Oppo	Rpleas	Amasked	CS_A	2pleas	distractor2	EVAbeforeCON	acq_new_pleas_masked	acq2_masked	2	31	480	1	300	300	0	0	537	50	0	1	0	0	0	1	blank2r.bmp	0	1	+	0	7	C3r.bmp	492	1	blank2r.bmp	786	3	B3r.bmp	786	1	blank2r.bmp	866	6	gesittet	866	1	!	1319	1	!	1439	0	0	0	0	0	0	0	0	0	0	0	0	0	0	0	0	0	0	0	0	0	0	0	0	0	0	0
121918	10:20:06	10:24:44	277469	5.0.10.0	4_exp_EVA_AMP_AWA_CON	29	Rpleas_acq	Oppo	Rpleas	Amasked	CS_A	2pleas	distractor2	EVAbeforeCON	acq_new_unple_masked	acq2_masked	2	32	480	1	300	300	0	0	452	46	0	1	0	0	0	1	blank2r.bmp	0	1	+	0	5	C1r.bmp	492	1	blank2r.bmp	786	1	B1r.bmp	786	1	blank2r.bmp	866	2	bange	866	1	!	1319	1	!	1359	0	0	0	0	0	0	0	0	0	0	0	0	0	0	0	0	0	0	0	0	0	0	0	0	0	0	0
121918	10:20:06	10:24:46	279708	5.0.10.0	4_exp_EVA_AMP_AWA_CON	29	Rpleas_acq	Oppo	Rpleas	Amasked	CS_A	2pleas	distractor2	EVAbeforeCON	acq_US_pleas_masked	acq2_masked	2	33	480	1	300	300	0	0	451	50	0	1	0	0	0	1	blank2r.bmp	0	1	+	0	6	C2r.bmp	492	1	blank2r.bmp	786	1	DHJF	786	1	blank2r.bmp	866	1	vertrauen	866	1	!	1319	1	!	1346	0	0	0	0	0	0	0	0	0	0	0	0	0	0	0	0	0	0	0	0	0	0	0	0	0	0	0
121918	10:20:06	10:24:48	281867	5.0.10.0	4_exp_EVA_AMP_AWA_CON	29	Rpleas_acq	Oppo	Rpleas	Amasked	CS_A	2pleas	distractor2	EVAbeforeCON	acq_new_unple_masked	acq2_masked	2	34	480	0	300	300	0	0	398	46	0	1	0	0	0	1	blank2r.bmp	0	1	+	0	4	B4r.bmp	492	1	blank2r.bmp	786	2	B2r.bmp	786	1	blank2r.bmp	866	3	ausrottung	866	1	!	-1	1	!	-1	0	0	0	0	0	0	0	0	0	0	0	0	0	0	0	0	0	0	0	0	0	0	0	0	0	0	0
121918	10:20:06	10:24:51	284280	5.0.10.0	4_exp_EVA_AMP_AWA_CON	29	Rpleas_acq	Oppo	Rpleas	Amasked	CS_A	2pleas	distractor2	EVAbeforeCON	acq_US_pleas_masked	acq2_masked	2	35	480	0	300	300	0	0	636	50	0	1	0	0	0	1	blank2r.bmp	0	1	+	0	3	B3r.bmp	492	1	blank2r.bmp	786	1	DHJF	786	1	blank2r.bmp	866	4	genießen	866	1	!	1319	1	!	-1	0	0	0	0	0	0	0	0	0	0	0	0	0	0	0	0	0	0	0	0	0	0	0	0	0	0	0
121918	10:20:06	10:24:53	286519	5.0.10.0	4_exp_EVA_AMP_AWA_CON	29	Rpleas_acq	Oppo	Rpleas	Amasked	CS_A	2pleas	distractor2	EVAbeforeCON	acq_US_unple_masked	acq2_masked	2	36	480	1	300	300	0	0	429	46	0	1	0	0	0	1	blank2r.bmp	0	1	+	0	2	B2r.bmp	492	1	blank2r.bmp	786	1	CPLW	786	1	blank2r.bmp	866	3	gierig	866	1	!	1319	1	!	1332	0	0	0	0	0	0	0	0	0	0	0	0	0	0	0	0	0	0	0	0	0	0	0	0	0	0	0
121918	10:20:06	10:25:10	303139	5.0.10.0	4_exp_EVA_AMP_AWA_CON	29	Rpleas_acq	Oppo	Rpleas	Amasked	CS_A	2pleas	distractor2	EVAbeforeCON	acq_US_pleas_masked	acq3_masked	3	1	453	0	300	300	0	0	544	50	0	1	0	0	0	1	blank2r.bmp	0	1	+	0	8	C4r.bmp	492	1	blank2r.bmp	786	1	DHJF	786	1	blank2r.bmp	866	3	gütig	866	1	!	1292	1	!	-1	0	0	0	0	0	0	0	0	0	0	0	0	0	0	0	0	0	0	0	0	0	0	0	0	0	0	0
121918	10:20:06	10:25:12	305391	5.0.10.0	4_exp_EVA_AMP_AWA_CON	29	Rpleas_acq	Oppo	Rpleas	Amasked	CS_A	2pleas	distractor2	EVAbeforeCON	acq_US_unple_masked	acq3_masked	3	2	453	1	300	300	0	0	443	46	0	1	0	0	0	1	blank2r.bmp	0	1	+	0	5	C1r.bmp	492	1	blank2r.bmp	786	1	CPLW	786	1	blank2r.bmp	866	2	töten	866	1	!	1292	1	!	1346	0	0	0	0	0	0	0	0	0	0	0	0	0	0	0	0	0	0	0	0	0	0	0	0	0	0	0
121918	10:20:06	10:25:14	307923	5.0.10.0	4_exp_EVA_AMP_AWA_CON	29	Rpleas_acq	Oppo	Rpleas	Amasked	CS_A	2pleas	distractor2	EVAbeforeCON	acq_US_unple_masked	acq3_masked	3	3	453	0	300	300	0	0	532	50	0	0	0	0	0	1	blank2r.bmp	0	1	+	0	3	B3r.bmp	492	1	blank2r.bmp	786	1	CPLW	786	1	blank2r.bmp	866	6	krise	866	1	FEHLER	1745	1	!	1292	1	!	-1	0	0	0	0	0	0	0	0	0	0	0	0	0	0	0	0	0	0	0	0	0	0	0	0
121918	10:20:06	10:25:16	309962	5.0.10.0	4_exp_EVA_AMP_AWA_CON	29	Rpleas_acq	Oppo	Rpleas	Amasked	CS_A	2pleas	distractor2	EVAbeforeCON	acq_US_pleas_masked	acq3_masked	3	4	453	1	300	300	0	0	463	50	0	1	0	0	0	1	blank2r.bmp	0	1	+	0	1	B1r.bmp	492	1	blank2r.bmp	786	1	DHJF	786	1	blank2r.bmp	866	2	träumen	866	1	!	1292	1	!	1359	0	0	0	0	0	0	0	0	0	0	0	0	0	0	0	0	0	0	0	0	0	0	0	0	0	0	0
121918	10:20:06	10:25:19	312548	5.0.10.0	4_exp_EVA_AMP_AWA_CON	29	Rpleas_acq	Oppo	Rpleas	Amasked	CS_A	2pleas	distractor2	EVAbeforeCON	acq_US_pleas_masked	acq3_masked	3	5	453	0	300	300	0	0	586	46	0	0	0	0	0	1	blank2r.bmp	0	1	+	0	6	C2r.bmp	492	1	blank2r.bmp	786	1	DHJF	786	1	blank2r.bmp	866	5	vergnügt	866	1	FEHLER	1799	1	!	1292	1	!	-1	0	0	0	0	0	0	0	0	0	0	0	0	0	0	0	0	0	0	0	0	0	0	0	0
121918	10:20:06	10:25:21	314627	5.0.10.0	4_exp_EVA_AMP_AWA_CON	29	Rpleas_acq	Oppo	Rpleas	Amasked	CS_A	2pleas	distractor2	EVAbeforeCON	acq_US_unple_masked	acq3_masked	3	6	453	1	300	300	0	0	501	46	0	1	0	0	0	1	blank2r.bmp	0	1	+	0	2	B2r.bmp	492	1	blank2r.bmp	786	1	CPLW	786	1	blank2r.bmp	866	4	gemein	866	1	!	1292	1	!	1399	0	0	0	0	0	0	0	0	0	0	0	0	0	0	0	0	0	0	0	0	0	0	0	0	0	0	0
121918	10:20:06	10:25:24	317026	5.0.10.0	4_exp_EVA_AMP_AWA_CON	29	Rpleas_acq	Oppo	Rpleas	Amasked	CS_A	2pleas	distractor2	EVAbeforeCON	acq_US_unple_masked	acq3_masked	3	7	453	0	300	300	0	0	633	46	0	1	0	0	0	1	blank2r.bmp	0	1	+	0	7	C3r.bmp	492	1	blank2r.bmp	786	1	CPLW	786	1	blank2r.bmp	866	1	versagen	866	1	!	1292	1	!	-1	0	0	0	0	0	0	0	0	0	0	0	0	0	0	0	0	0	0	0	0	0	0	0	0	0	0	0
121918	10:20:06	10:25:26	319452	5.0.10.0	4_exp_EVA_AMP_AWA_CON	29	Rpleas_acq	Oppo	Rpleas	Amasked	CS_A	2pleas	distractor2	EVAbeforeCON	acq_US_pleas_masked	acq3_masked	3	8	453	1	300	300	0	0	403	46	0	0	0	0	0	1	blank2r.bmp	0	1	+	0	4	B4r.bmp	492	1	blank2r.bmp	786	1	DHJF	786	1	blank2r.bmp	866	1	vertrauen	866	1	FEHLER	1625	1	!	1292	1	!	1306	0	0	0	0	0	0	0	0	0	0	0	0	0	0	0	0	0	0	0	0	0	0	0	0
121918	10:20:06	10:25:28	321544	5.0.10.0	4_exp_EVA_AMP_AWA_CON	29	Rpleas_acq	Oppo	Rpleas	Amasked	CS_A	2pleas	distractor2	EVAbeforeCON	acq_US_unple_masked	acq3_masked	3	9	453	1	300	300	0	0	517	46	0	1	0	0	0	1	blank2r.bmp	0	1	+	0	2	B2r.bmp	492	1	blank2r.bmp	786	1	CPLW	786	1	blank2r.bmp	866	3	gierig	866	1	!	1292	1	!	1412	0	0	0	0	0	0	0	0	0	0	0	0	0	0	0	0	0	0	0	0	0	0	0	0	0	0	0
121918	10:20:06	10:25:30	323836	5.0.10.0	4_exp_EVA_AMP_AWA_CON	29	Rpleas_acq	Oppo	Rpleas	Amasked	CS_A	2pleas	distractor2	EVAbeforeCON	acq_US_unple_masked	acq3_masked	3	10	453	1	300	300	0	0	501	46	0	1	0	0	0	1	blank2r.bmp	0	1	+	0	6	C2r.bmp	492	1	blank2r.bmp	786	1	CPLW	786	1	blank2r.bmp	866	5	verbissen	866	1	!	1292	1	!	1399	0	0	0	0	0	0	0	0	0	0	0	0	0	0	0	0	0	0	0	0	0	0	0	0	0	0	0
121918	10:20:06	10:25:33	326102	5.0.10.0	4_exp_EVA_AMP_AWA_CON	29	Rpleas_acq	Oppo	Rpleas	Amasked	CS_A	2pleas	distractor2	EVAbeforeCON	acq_US_pleas_masked	acq3_masked	3	11	453	1	300	300	0	0	468	50	0	1	0	0	0	1	blank2r.bmp	0	1	+	0	5	C1r.bmp	492	1	blank2r.bmp	786	1	DHJF	786	1	blank2r.bmp	866	6	kuss	866	1	!	1292	1	!	1372	0	0	0	0	0	0	0	0	0	0	0	0	0	0	0	0	0	0	0	0	0	0	0	0	0	0	0
121918	10:20:06	10:25:35	328408	5.0.10.0	4_exp_EVA_AMP_AWA_CON	29	Rpleas_acq	Oppo	Rpleas	Amasked	CS_A	2pleas	distractor2	EVAbeforeCON	acq_US_pleas_masked	acq3_masked	3	12	453	0	300	300	0	0	532	50	0	1	0	0	0	1	blank2r.bmp	0	1	+	0	3	B3r.bmp	492	1	blank2r.bmp	786	1	DHJF	786	1	blank2r.bmp	866	4	genießen	866	1	!	1292	1	!	-1	0	0	0	0	0	0	0	0	0	0	0	0	0	0	0	0	0	0	0	0	0	0	0	0	0	0	0
121918	10:20:06	10:25:37	330674	5.0.10.0	4_exp_EVA_AMP_AWA_CON	29	Rpleas_acq	Oppo	Rpleas	Amasked	CS_A	2pleas	distractor2	EVAbeforeCON	acq_US_unple_masked	acq3_masked	3	13	453	1	300	300	0	0	440	46	0	1	0	0	0	1	blank2r.bmp	0	1	+	0	7	C3r.bmp	492	1	blank2r.bmp	786	1	CPLW	786	1	blank2r.bmp	866	6	krise	866	1	!	1292	1	!	1346	0	0	0	0	0	0	0	0	0	0	0	0	0	0	0	0	0	0	0	0	0	0	0	0	0	0	0
121918	10:20:06	10:25:40	333019	5.0.10.0	4_exp_EVA_AMP_AWA_CON	29	Rpleas_acq	Oppo	Rpleas	Amasked	CS_A	2pleas	distractor2	EVAbeforeCON	acq_US_unple_masked	acq3_masked	3	14	453	0	300	300	0	0	357	50	0	0	0	0	0	1	blank2r.bmp	0	1	+	0	4	B4r.bmp	492	1	blank2r.bmp	786	1	CPLW	786	1	blank2r.bmp	866	1	versagen	866	1	FEHLER	1559	1	!	-1	1	!	-1	0	0	0	0	0	0	0	0	0	0	0	0	0	0	0	0	0	0	0	0	0	0	0	0
121918	10:20:06	10:25:42	335258	5.0.10.0	4_exp_EVA_AMP_AWA_CON	29	Rpleas_acq	Oppo	Rpleas	Amasked	CS_A	2pleas	distractor2	EVAbeforeCON	acq_US_pleas_masked	acq3_masked	3	15	453	1	300	300	0	0	442	46	0	0	0	0	0	1	blank2r.bmp	0	1	+	0	1	B1r.bmp	492	1	blank2r.bmp	786	1	DHJF	786	1	blank2r.bmp	866	1	vertrauen	866	1	FEHLER	1665	1	!	1292	1	!	1346	0	0	0	0	0	0	0	0	0	0	0	0	0	0	0	0	0	0	0	0	0	0	0	0
121918	10:20:06	10:25:44	337351	5.0.10.0	4_exp_EVA_AMP_AWA_CON	29	Rpleas_acq	Oppo	Rpleas	Amasked	CS_A	2pleas	distractor2	EVAbeforeCON	acq_US_unple_masked	acq3_masked	3	16	453	1	300	300	0	0	499	46	0	1	0	0	0	1	blank2r.bmp	0	1	+	0	8	C4r.bmp	492	1	blank2r.bmp	786	1	CPLW	786	1	blank2r.bmp	866	4	gemein	866	1	!	1292	1	!	1399	0	0	0	0	0	0	0	0	0	0	0	0	0	0	0	0	0	0	0	0	0	0	0	0	0	0	0
121918	10:20:06	10:25:46	339430	5.0.10.0	4_exp_EVA_AMP_AWA_CON	29	Rpleas_acq	Oppo	Rpleas	Amasked	CS_A	2pleas	distractor2	EVAbeforeCON	acq_US_pleas_masked	acq3_masked	3	17	453	0	300	300	0	0	308	50	0	1	0	0	0	1	blank2r.bmp	0	1	+	0	6	C2r.bmp	492	1	blank2r.bmp	786	1	DHJF	786	1	blank2r.bmp	866	2	träumen	866	1	!	-1	1	!	-1	0	0	0	0	0	0	0	0	0	0	0	0	0	0	0	0	0	0	0	0	0	0	0	0	0	0	0
121918	10:20:06	10:25:48	341776	5.0.10.0	4_exp_EVA_AMP_AWA_CON	29	Rpleas_acq	Oppo	Rpleas	Amasked	CS_A	2pleas	distractor2	EVAbeforeCON	acq_US_unple_masked	acq3_masked	3	18	453	0	300	300	0	0	559	46	0	1	0	0	0	1	blank2r.bmp	0	1	+	0	7	C3r.bmp	492	1	blank2r.bmp	786	1	CPLW	786	1	blank2r.bmp	866	3	gierig	866	1	!	1292	1	!	-1	0	0	0	0	0	0	0	0	0	0	0	0	0	0	0	0	0	0	0	0	0	0	0	0	0	0	0
121918	10:20:06	10:25:51	344041	5.0.10.0	4_exp_EVA_AMP_AWA_CON	29	Rpleas_acq	Oppo	Rpleas	Amasked	CS_A	2pleas	distractor2	EVAbeforeCON	acq_US_pleas_masked	acq3_masked	3	19	453	1	300	300	0	0	465	50	0	1	0	0	0	1	blank2r.bmp	0	1	+	0	4	B4r.bmp	492	1	blank2r.bmp	786	1	DHJF	786	1	blank2r.bmp	866	4	genießen	866	1	!	1292	1	!	1359	0	0	0	0	0	0	0	0	0	0	0	0	0	0	0	0	0	0	0	0	0	0	0	0	0	0	0
121918	10:20:06	10:25:53	346280	5.0.10.0	4_exp_EVA_AMP_AWA_CON	29	Rpleas_acq	Oppo	Rpleas	Amasked	CS_A	2pleas	distractor2	EVAbeforeCON	acq_US_unple_masked	acq3_masked	3	20	453	1	300	300	0	0	441	46	0	1	0	0	0	1	blank2r.bmp	0	1	+	0	8	C4r.bmp	492	1	blank2r.bmp	786	1	CPLW	786	1	blank2r.bmp	866	2	töten	866	1	!	1292	1	!	1346	0	0	0	0	0	0	0	0	0	0	0	0	0	0	0	0	0	0	0	0	0	0	0	0	0	0	0
121918	10:20:06	10:25:55	348719	5.0.10.0	4_exp_EVA_AMP_AWA_CON	29	Rpleas_acq	Oppo	Rpleas	Amasked	CS_A	2pleas	distractor2	EVAbeforeCON	acq_US_unple_masked	acq3_masked	3	21	453	1	300	300	0	0	427	50	0	0	0	0	0	1	blank2r.bmp	0	1	+	0	2	B2r.bmp	492	1	blank2r.bmp	786	1	CPLW	786	1	blank2r.bmp	866	5	verbissen	866	1	FEHLER	1652	1	!	1292	1	!	1332	0	0	0	0	0	0	0	0	0	0	0	0	0	0	0	0	0	0	0	0	0	0	0	0
121918	10:20:06	10:25:57	350732	5.0.10.0	4_exp_EVA_AMP_AWA_CON	29	Rpleas_acq	Oppo	Rpleas	Amasked	CS_A	2pleas	distractor2	EVAbeforeCON	acq_US_pleas_masked	acq3_masked	3	22	453	1	300	300	0	0	427	50	0	1	0	0	0	1	blank2r.bmp	0	1	+	0	5	C1r.bmp	492	1	blank2r.bmp	786	1	DHJF	786	1	blank2r.bmp	866	6	kuss	866	1	!	1292	1	!	1332	0	0	0	0	0	0	0	0	0	0	0	0	0	0	0	0	0	0	0	0	0	0	0	0	0	0	0
121918	10:20:06	10:26:00	353024	5.0.10.0	4_exp_EVA_AMP_AWA_CON	29	Rpleas_acq	Oppo	Rpleas	Amasked	CS_A	2pleas	distractor2	EVAbeforeCON	acq_US_pleas_masked	acq3_masked	3	23	453	1	300	300	0	0	492	50	0	1	0	0	0	1	blank2r.bmp	0	1	+	0	3	B3r.bmp	492	1	blank2r.bmp	786	1	DHJF	786	1	blank2r.bmp	866	3	gütig	866	1	!	1292	1	!	1399	0	0	0	0	0	0	0	0	0	0	0	0	0	0	0	0	0	0	0	0	0	0	0	0	0	0	0
121918	10:20:06	10:26:02	355397	5.0.10.0	4_exp_EVA_AMP_AWA_CON	29	Rpleas_acq	Oppo	Rpleas	Amasked	CS_A	2pleas	distractor2	EVAbeforeCON	acq_US_pleas_masked	acq3_masked	3	24	453	0	300	300	0	0	377	46	0	0	0	0	0	1	blank2r.bmp	0	1	+	0	1	B1r.bmp	492	1	blank2r.bmp	786	1	DHJF	786	1	blank2r.bmp	866	5	vergnügt	866	1	FEHLER	1585	1	!	-1	1	!	-1	0	0	0	0	0	0	0	0	0	0	0	0	0	0	0	0	0	0	0	0	0	0	0	0
121918	10:20:06	10:26:04	357342	5.0.10.0	4_exp_EVA_AMP_AWA_CON	29	Rpleas_acq	Oppo	Rpleas	Amasked	CS_A	2pleas	distractor2	EVAbeforeCON	acq_US_pleas_masked	acq3_masked	3	25	453	0	300	300	0	0	386	50	0	1	0	0	0	1	blank2r.bmp	0	1	+	0	1	B1r.bmp	492	1	blank2r.bmp	786	1	DHJF	786	1	blank2r.bmp	866	6	kuss	866	1	!	-1	1	!	-1	0	0	0	0	0	0	0	0	0	0	0	0	0	0	0	0	0	0	0	0	0	0	0	0	0	0	0
121918	10:20:06	10:26:06	359661	5.0.10.0	4_exp_EVA_AMP_AWA_CON	29	Rpleas_acq	Oppo	Rpleas	Amasked	CS_A	2pleas	distractor2	EVAbeforeCON	acq_US_unple_masked	acq3_masked	3	26	453	0	300	300	0	0	532	46	0	1	0	0	0	1	blank2r.bmp	0	1	+	0	2	B2r.bmp	492	1	blank2r.bmp	786	1	CPLW	786	1	blank2r.bmp	866	6	krise	866	1	!	1292	1	!	-1	0	0	0	0	0	0	0	0	0	0	0	0	0	0	0	0	0	0	0	0	0	0	0	0	0	0	0
121918	10:20:06	10:26:09	362087	5.0.10.0	4_exp_EVA_AMP_AWA_CON	29	Rpleas_acq	Oppo	Rpleas	Amasked	CS_A	2pleas	distractor2	EVAbeforeCON	acq_US_unple_masked	acq3_masked	3	27	453	0	300	300	0	0	643	46	0	1	0	0	0	1	blank2r.bmp	0	1	+	0	8	C4r.bmp	492	1	blank2r.bmp	786	1	CPLW	786	1	blank2r.bmp	866	1	versagen	866	1	!	1292	1	!	-1	0	0	0	0	0	0	0	0	0	0	0	0	0	0	0	0	0	0	0	0	0	0	0	0	0	0	0
121918	10:20:06	10:26:11	364246	5.0.10.0	4_exp_EVA_AMP_AWA_CON	29	Rpleas_acq	Oppo	Rpleas	Amasked	CS_A	2pleas	distractor2	EVAbeforeCON	acq_US_pleas_masked	acq3_masked	3	28	453	0	300	300	0	0	362	50	0	1	0	0	0	1	blank2r.bmp	0	1	+	0	5	C1r.bmp	492	1	blank2r.bmp	786	1	DHJF	786	1	blank2r.bmp	866	4	genießen	866	1	!	-1	1	!	-1	0	0	0	0	0	0	0	0	0	0	0	0	0	0	0	0	0	0	0	0	0	0	0	0	0	0	0
121918	10:20:06	10:26:13	366512	5.0.10.0	4_exp_EVA_AMP_AWA_CON	29	Rpleas_acq	Oppo	Rpleas	Amasked	CS_A	2pleas	distractor2	EVAbeforeCON	acq_US_unple_masked	acq3_masked	3	29	453	1	300	300	0	0	462	46	0	1	0	0	0	1	blank2r.bmp	0	1	+	0	4	B4r.bmp	492	1	blank2r.bmp	786	1	CPLW	786	1	blank2r.bmp	866	2	töten	866	1	!	1292	1	!	1359	0	0	0	0	0	0	0	0	0	0	0	0	0	0	0	0	0	0	0	0	0	0	0	0	0	0	0
121918	10:20:06	10:26:15	368764	5.0.10.0	4_exp_EVA_AMP_AWA_CON	29	Rpleas_acq	Oppo	Rpleas	Amasked	CS_A	2pleas	distractor2	EVAbeforeCON	acq_US_pleas_masked	acq3_masked	3	30	453	1	300	300	0	0	452	50	0	1	0	0	0	1	blank2r.bmp	0	1	+	0	7	C3r.bmp	492	1	blank2r.bmp	786	1	DHJF	786	1	blank2r.bmp	866	2	träumen	866	1	!	1292	1	!	1359	0	0	0	0	0	0	0	0	0	0	0	0	0	0	0	0	0	0	0	0	0	0	0	0	0	0	0
121918	10:20:06	10:26:18	371070	5.0.10.0	4_exp_EVA_AMP_AWA_CON	29	Rpleas_acq	Oppo	Rpleas	Amasked	CS_A	2pleas	distractor2	EVAbeforeCON	acq_US_pleas_masked	acq3_masked	3	31	453	1	300	300	0	0	507	50	0	1	0	0	0	1	blank2r.bmp	0	1	+	0	6	C2r.bmp	492	1	blank2r.bmp	786	1	DHJF	786	1	blank2r.bmp	866	5	vergnügt	866	1	!	1292	1	!	1412	0	0	0	0	0	0	0	0	0	0	0	0	0	0	0	0	0	0	0	0	0	0	0	0	0	0	0
121918	10:20:06	10:26:20	373376	5.0.10.0	4_exp_EVA_AMP_AWA_CON	29	Rpleas_acq	Oppo	Rpleas	Amasked	CS_A	2pleas	distractor2	EVAbeforeCON	acq_US_unple_masked	acq3_masked	3	32	453	1	300	300	0	0	497	46	0	1	0	0	0	1	blank2r.bmp	0	1	+	0	3	B3r.bmp	492	1	blank2r.bmp	786	1	CPLW	786	1	blank2r.bmp	866	3	gierig	866	1	!	1292	1	!	1399	0	0	0	0	0	0	0	0	0	0	0	0	0	0	0	0	0	0	0	0	0	0	0	0	0	0	0
121918	10:20:06	10:26:22	375868	5.0.10.0	4_exp_EVA_AMP_AWA_CON	29	Rpleas_acq	Oppo	Rpleas	Amasked	CS_A	2pleas	distractor2	EVAbeforeCON	acq_US_pleas_masked	acq3_masked	3	33	453	0	300	300	0	0	719	50	0	1	0	0	0	1	blank2r.bmp	0	1	+	0	3	B3r.bmp	492	1	blank2r.bmp	786	1	DHJF	786	1	blank2r.bmp	866	3	gütig	866	1	!	1292	1	!	-1	0	0	0	0	0	0	0	0	0	0	0	0	0	0	0	0	0	0	0	0	0	0	0	0	0	0	0
121918	10:20:06	10:26:25	378200	5.0.10.0	4_exp_EVA_AMP_AWA_CON	29	Rpleas_acq	Oppo	Rpleas	Amasked	CS_A	2pleas	distractor2	EVAbeforeCON	acq_US_unple_masked	acq3_masked	3	34	453	1	300	300	0	0	519	46	0	1	0	0	0	1	blank2r.bmp	0	1	+	0	8	C4r.bmp	492	1	blank2r.bmp	786	1	CPLW	786	1	blank2r.bmp	866	5	verbissen	866	1	!	1292	1	!	1426	0	0	0	0	0	0	0	0	0	0	0	0	0	0	0	0	0	0	0	0	0	0	0	0	0	0	0
121918	10:20:06	10:26:27	380519	5.0.10.0	4_exp_EVA_AMP_AWA_CON	29	Rpleas_acq	Oppo	Rpleas	Amasked	CS_A	2pleas	distractor2	EVAbeforeCON	acq_US_unple_masked	acq3_masked	3	35	453	0	300	300	0	0	536	46	0	1	0	0	0	1	blank2r.bmp	0	1	+	0	6	C2r.bmp	492	1	blank2r.bmp	786	1	CPLW	786	1	blank2r.bmp	866	4	gemein	866	1	!	1292	1	!	-1	0	0	0	0	0	0	0	0	0	0	0	0	0	0	0	0	0	0	0	0	0	0	0	0	0	0	0
121918	10:20:06	10:26:29	382732	5.0.10.0	4_exp_EVA_AMP_AWA_CON	29	Rpleas_acq	Oppo	Rpleas	Amasked	CS_A	2pleas	distractor2	EVAbeforeCON	acq_US_pleas_masked	acq3_masked	3	36	453	1	300	300	0	0	408	50	0	1	0	0	0	1	blank2r.bmp	0	1	+	0	4	B4r.bmp	492	1	blank2r.bmp	786	1	DHJF	786	1	blank2r.bmp	866	1	vertrauen	866	1	!	1292	1	!	1306	0	0	0	0	0	0	0	0	0	0	0	0	0	0	0	0	0	0	0	0	0	0	0	0	0	0	0
121918	10:20:06	10:26:45	398259	5.0.10.0	4_exp_EVA_AMP_AWA_CON	29	Rpleas_acq	Oppo	Rpleas	Amasked	CS_A	2pleas	distractor2	EVAbeforeCON	acq_US_pleas_masked	acq45_masked	4	1	400	0	300	300	0	0	479	50	0	1	0	0	0	1	blank2r.bmp	0	1	+	0	1	B1r.bmp	492	1	blank2r.bmp	786	1	DHJF	786	1	blank2r.bmp	866	3	gütig	866	1	!	1239	1	!	-1	0	0	0	0	0	0	0	0	0	0	0	0	0	0	0	0	0	0	0	0	0	0	0	0	0	0	0
121918	10:20:06	10:26:47	400538	5.0.10.0	4_exp_EVA_AMP_AWA_CON	29	Rpleas_acq	Oppo	Rpleas	Amasked	CS_A	2pleas	distractor2	EVAbeforeCON	acq_US_pleas_masked	acq45_masked	4	2	400	0	300	300	0	0	497	50	0	1	0	0	0	1	blank2r.bmp	0	1	+	0	5	C1r.bmp	492	1	blank2r.bmp	786	1	DHJF	786	1	blank2r.bmp	866	4	genießen	866	1	!	1239	1	!	-1	0	0	0	0	0	0	0	0	0	0	0	0	0	0	0	0	0	0	0	0	0	0	0	0	0	0	0
121918	10:20:06	10:26:49	402777	5.0.10.0	4_exp_EVA_AMP_AWA_CON	29	Rpleas_acq	Oppo	Rpleas	Amasked	CS_A	2pleas	distractor2	EVAbeforeCON	acq_US_pleas_masked	acq45_masked	4	3	400	1	300	300	0	0	427	50	0	1	0	0	0	1	blank2r.bmp	0	1	+	0	2	B2r.bmp	492	1	blank2r.bmp	786	1	DHJF	786	1	blank2r.bmp	866	6	kuss	866	1	!	1239	1	!	1332	0	0	0	0	0	0	0	0	0	0	0	0	0	0	0	0	0	0	0	0	0	0	0	0	0	0	0
121918	10:20:06	10:26:51	404976	5.0.10.0	4_exp_EVA_AMP_AWA_CON	29	Rpleas_acq	Oppo	Rpleas	Amasked	CS_A	2pleas	distractor2	EVAbeforeCON	acq_US_unple_masked	acq45_masked	4	4	400	1	300	300	0	0	407	46	0	1	0	0	0	1	blank2r.bmp	0	1	+	0	7	C3r.bmp	492	1	blank2r.bmp	786	1	CPLW	786	1	blank2r.bmp	866	4	gemein	866	1	!	1239	1	!	1306	0	0	0	0	0	0	0	0	0	0	0	0	0	0	0	0	0	0	0	0	0	0	0	0	0	0	0
121918	10:20:06	10:26:54	407161	5.0.10.0	4_exp_EVA_AMP_AWA_CON	29	Rpleas_acq	Oppo	Rpleas	Amasked	CS_A	2pleas	distractor2	EVAbeforeCON	acq_US_unple_masked	acq45_masked	4	5	400	1	300	300	0	0	397	50	0	0	0	0	0	1	blank2r.bmp	0	1	+	0	6	C2r.bmp	492	1	blank2r.bmp	786	1	CPLW	786	1	blank2r.bmp	866	6	krise	866	1	!	1239	1	!	1292	0	0	0	0	0	0	0	0	0	0	0	0	0	0	0	0	0	0	0	0	0	0	0	0	0	0	0
121918	10:20:06	10:26:56	409427	5.0.10.0	4_exp_EVA_AMP_AWA_CON	29	Rpleas_acq	Oppo	Rpleas	Amasked	CS_A	2pleas	distractor2	EVAbeforeCON	acq_US_unple_masked	acq45_masked	4	6	400	1	300	300	0	0	466	50	0	0	0	0	0	1	blank2r.bmp	0	1	+	0	7	C3r.bmp	492	1	blank2r.bmp	786	1	CPLW	786	1	blank2r.bmp	866	3	gierig	866	1	!	1239	1	!	1372	0	0	0	0	0	0	0	0	0	0	0	0	0	0	0	0	0	0	0	0	0	0	0	0	0	0	0
121918	10:20:06	10:26:58	411693	5.0.10.0	4_exp_EVA_AMP_AWA_CON	29	Rpleas_acq	Oppo	Rpleas	Amasked	CS_A	2pleas	distractor2	EVAbeforeCON	acq_US_pleas_masked	acq45_masked	4	7	400	0	300	300	0	0	494	50	0	1	0	0	0	1	blank2r.bmp	0	1	+	0	8	C4r.bmp	492	1	blank2r.bmp	786	1	DHJF	786	1	blank2r.bmp	866	5	vergnügt	866	1	!	1239	1	!	-1	0	0	0	0	0	0	0	0	0	0	0	0	0	0	0	0	0	0	0	0	0	0	0	0	0	0	0
121918	10:20:06	10:27:00	413919	5.0.10.0	4_exp_EVA_AMP_AWA_CON	29	Rpleas_acq	Oppo	Rpleas	Amasked	CS_A	2pleas	distractor2	EVAbeforeCON	acq_US_pleas_masked	acq45_masked	4	8	400	1	300	300	0	0	424	50	0	1	0	0	0	1	blank2r.bmp	0	1	+	0	3	B3r.bmp	492	1	blank2r.bmp	786	1	DHJF	786	1	blank2r.bmp	866	1	vertrauen	866	1	!	1239	1	!	1319	0	0	0	0	0	0	0	0	0	0	0	0	0	0	0	0	0	0	0	0	0	0	0	0	0	0	0
121918	10:20:06	10:27:03	416198	5.0.10.0	4_exp_EVA_AMP_AWA_CON	29	Rpleas_acq	Oppo	Rpleas	Amasked	CS_A	2pleas	distractor2	EVAbeforeCON	acq_US_unple_masked	acq45_masked	4	9	400	0	300	300	0	0	506	46	0	1	0	0	0	1	blank2r.bmp	0	1	+	0	5	C1r.bmp	492	1	blank2r.bmp	786	1	CPLW	786	1	blank2r.bmp	866	1	versagen	866	1	!	1239	1	!	-1	0	0	0	0	0	0	0	0	0	0	0	0	0	0	0	0	0	0	0	0	0	0	0	0	0	0	0
121918	10:20:06	10:27:05	418650	5.0.10.0	4_exp_EVA_AMP_AWA_CON	29	Rpleas_acq	Oppo	Rpleas	Amasked	CS_A	2pleas	distractor2	EVAbeforeCON	acq_US_unple_masked	acq45_masked	4	10	400	0	300	300	0	0	668	50	0	0	0	0	0	1	blank2r.bmp	0	1	+	0	1	B1r.bmp	492	1	blank2r.bmp	786	1	CPLW	786	1	blank2r.bmp	866	2	töten	866	1	!	1239	1	!	-1	0	0	0	0	0	0	0	0	0	0	0	0	0	0	0	0	0	0	0	0	0	0	0	0	0	0	0
121918	10:20:06	10:27:07	420929	5.0.10.0	4_exp_EVA_AMP_AWA_CON	29	Rpleas_acq	Oppo	Rpleas	Amasked	CS_A	2pleas	distractor2	EVAbeforeCON	acq_US_unple_masked	acq45_masked	4	11	400	0	300	300	0	0	495	46	0	1	0	0	0	1	blank2r.bmp	0	1	+	0	2	B2r.bmp	492	1	blank2r.bmp	786	1	CPLW	786	1	blank2r.bmp	866	5	verbissen	866	1	!	1239	1	!	-1	0	0	0	0	0	0	0	0	0	0	0	0	0	0	0	0	0	0	0	0	0	0	0	0	0	0	0
121918	10:20:06	10:27:10	423181	5.0.10.0	4_exp_EVA_AMP_AWA_CON	29	Rpleas_acq	Oppo	Rpleas	Amasked	CS_A	2pleas	distractor2	EVAbeforeCON	acq_US_pleas_masked	acq45_masked	4	12	400	1	300	300	0	0	439	50	0	1	0	0	0	1	blank2r.bmp	0	1	+	0	4	B4r.bmp	492	1	blank2r.bmp	786	1	DHJF	786	1	blank2r.bmp	866	2	träumen	866	1	!	1239	1	!	1346	0	0	0	0	0	0	0	0	0	0	0	0	0	0	0	0	0	0	0	0	0	0	0	0	0	0	0
121918	10:20:06	10:27:12	425474	5.0.10.0	4_exp_EVA_AMP_AWA_CON	29	Rpleas_acq	Oppo	Rpleas	Amasked	CS_A	2pleas	distractor2	EVAbeforeCON	acq_US_unple_masked	acq45_masked	4	13	400	0	300	300	0	0	522	46	0	1	0	0	0	1	blank2r.bmp	0	1	+	0	4	B4r.bmp	492	1	blank2r.bmp	786	1	CPLW	786	1	blank2r.bmp	866	3	gierig	866	1	!	1239	1	!	-1	0	0	0	0	0	0	0	0	0	0	0	0	0	0	0	0	0	0	0	0	0	0	0	0	0	0	0
121918	10:20:06	10:27:14	427819	5.0.10.0	4_exp_EVA_AMP_AWA_CON	29	Rpleas_acq	Oppo	Rpleas	Amasked	CS_A	2pleas	distractor2	EVAbeforeCON	acq_US_pleas_masked	acq45_masked	4	14	400	0	300	300	0	0	572	50	0	1	0	0	0	1	blank2r.bmp	0	1	+	0	5	C1r.bmp	492	1	blank2r.bmp	786	1	DHJF	786	1	blank2r.bmp	866	4	genießen	866	1	!	1239	1	!	-1	0	0	0	0	0	0	0	0	0	0	0	0	0	0	0	0	0	0	0	0	0	0	0	0	0	0	0
121918	10:20:06	10:27:17	430112	5.0.10.0	4_exp_EVA_AMP_AWA_CON	29	Rpleas_acq	Oppo	Rpleas	Amasked	CS_A	2pleas	distractor2	EVAbeforeCON	acq_US_pleas_masked	acq45_masked	4	15	400	0	300	300	0	0	509	50	0	1	0	0	0	1	blank2r.bmp	0	1	+	0	7	C3r.bmp	492	1	blank2r.bmp	786	1	DHJF	786	1	blank2r.bmp	866	6	kuss	866	1	!	1239	1	!	-1	0	0	0	0	0	0	0	0	0	0	0	0	0	0	0	0	0	0	0	0	0	0	0	0	0	0	0
121918	10:20:06	10:27:19	432284	5.0.10.0	4_exp_EVA_AMP_AWA_CON	29	Rpleas_acq	Oppo	Rpleas	Amasked	CS_A	2pleas	distractor2	EVAbeforeCON	acq_US_unple_masked	acq45_masked	4	16	400	1	300	300	0	0	366	50	0	0	0	0	0	1	blank2r.bmp	0	1	+	0	8	C4r.bmp	492	1	blank2r.bmp	786	1	CPLW	786	1	blank2r.bmp	866	2	töten	866	1	!	1239	1	!	1266	0	0	0	0	0	0	0	0	0	0	0	0	0	0	0	0	0	0	0	0	0	0	0	0	0	0	0
121918	10:20:06	10:27:21	434537	5.0.10.0	4_exp_EVA_AMP_AWA_CON	29	Rpleas_acq	Oppo	Rpleas	Amasked	CS_A	2pleas	distractor2	EVAbeforeCON	acq_US_pleas_masked	acq45_masked	4	17	400	1	300	300	0	0	449	50	0	1	0	0	0	1	blank2r.bmp	0	1	+	0	6	C2r.bmp	492	1	blank2r.bmp	786	1	DHJF	786	1	blank2r.bmp	866	3	gütig	866	1	!	1239	1	!	1346	0	0	0	0	0	0	0	0	0	0	0	0	0	0	0	0	0	0	0	0	0	0	0	0	0	0	0
121918	10:20:06	10:27:23	436762	5.0.10.0	4_exp_EVA_AMP_AWA_CON	29	Rpleas_acq	Oppo	Rpleas	Amasked	CS_A	2pleas	distractor2	EVAbeforeCON	acq_US_unple_masked	acq45_masked	4	18	400	1	300	300	0	0	425	46	0	1	0	0	0	1	blank2r.bmp	0	1	+	0	1	B1r.bmp	492	1	blank2r.bmp	786	1	CPLW	786	1	blank2r.bmp	866	6	krise	866	1	!	1239	1	!	1332	0	0	0	0	0	0	0	0	0	0	0	0	0	0	0	0	0	0	0	0	0	0	0	0	0	0	0
121918	10:20:06	10:27:26	439055	5.0.10.0	4_exp_EVA_AMP_AWA_CON	29	Rpleas_acq	Oppo	Rpleas	Amasked	CS_A	2pleas	distractor2	EVAbeforeCON	acq_US_unple_masked	acq45_masked	4	19	400	0	300	300	0	0	511	46	0	1	0	0	0	1	blank2r.bmp	0	1	+	0	2	B2r.bmp	492	1	blank2r.bmp	786	1	CPLW	786	1	blank2r.bmp	866	1	versagen	866	1	!	1239	1	!	-1	0	0	0	0	0	0	0	0	0	0	0	0	0	0	0	0	0	0	0	0	0	0	0	0	0	0	0
121918	10:20:06	10:27:28	441254	5.0.10.0	4_exp_EVA_AMP_AWA_CON	29	Rpleas_acq	Oppo	Rpleas	Amasked	CS_A	2pleas	distractor2	EVAbeforeCON	acq_US_pleas_masked	acq45_masked	4	20	400	1	300	300	0	0	396	50	0	1	0	0	0	1	blank2r.bmp	0	1	+	0	3	B3r.bmp	492	1	blank2r.bmp	786	1	DHJF	786	1	blank2r.bmp	866	2	träumen	866	1	!	1239	1	!	1292	0	0	0	0	0	0	0	0	0	0	0	0	0	0	0	0	0	0	0	0	0	0	0	0	0	0	0
121918	10:20:06	10:27:30	443466	5.0.10.0	4_exp_EVA_AMP_AWA_CON	29	Rpleas_acq	Oppo	Rpleas	Amasked	CS_A	2pleas	distractor2	EVAbeforeCON	acq_US_unple_masked	acq45_masked	4	21	400	1	300	300	0	0	417	46	0	1	0	0	0	1	blank2r.bmp	0	1	+	0	4	B4r.bmp	492	1	blank2r.bmp	786	1	CPLW	786	1	blank2r.bmp	866	4	gemein	866	1	!	1239	1	!	1319	0	0	0	0	0	0	0	0	0	0	0	0	0	0	0	0	0	0	0	0	0	0	0	0	0	0	0
121918	10:20:06	10:27:32	445745	5.0.10.0	4_exp_EVA_AMP_AWA_CON	29	Rpleas_acq	Oppo	Rpleas	Amasked	CS_A	2pleas	distractor2	EVAbeforeCON	acq_US_pleas_masked	acq45_masked	4	22	400	0	300	300	0	0	508	50	0	1	0	0	0	1	blank2r.bmp	0	1	+	0	3	B3r.bmp	492	1	blank2r.bmp	786	1	DHJF	786	1	blank2r.bmp	866	1	vertrauen	866	1	!	1239	1	!	-1	0	0	0	0	0	0	0	0	0	0	0	0	0	0	0	0	0	0	0	0	0	0	0	0	0	0	0
121918	10:20:06	10:27:35	448011	5.0.10.0	4_exp_EVA_AMP_AWA_CON	29	Rpleas_acq	Oppo	Rpleas	Amasked	CS_A	2pleas	distractor2	EVAbeforeCON	acq_US_unple_masked	acq45_masked	4	23	400	1	300	300	0	0	461	46	0	1	0	0	0	1	blank2r.bmp	0	1	+	0	7	C3r.bmp	492	1	blank2r.bmp	786	1	CPLW	786	1	blank2r.bmp	866	5	verbissen	866	1	!	1239	1	!	1359	0	0	0	0	0	0	0	0	0	0	0	0	0	0	0	0	0	0	0	0	0	0	0	0	0	0	0
121918	10:20:06	10:27:37	450263	5.0.10.0	4_exp_EVA_AMP_AWA_CON	29	Rpleas_acq	Oppo	Rpleas	Amasked	CS_A	2pleas	distractor2	EVAbeforeCON	acq_US_unple_masked	acq45_masked	4	24	400	1	300	300	0	0	445	46	0	1	0	0	0	1	blank2r.bmp	0	1	+	0	1	B1r.bmp	492	1	blank2r.bmp	786	1	CPLW	786	1	blank2r.bmp	866	6	krise	866	1	!	1239	1	!	1346	0	0	0	0	0	0	0	0	0	0	0	0	0	0	0	0	0	0	0	0	0	0	0	0	0	0	0
121918	10:20:06	10:27:39	452529	5.0.10.0	4_exp_EVA_AMP_AWA_CON	29	Rpleas_acq	Oppo	Rpleas	Amasked	CS_A	2pleas	distractor2	EVAbeforeCON	acq_US_unple_masked	acq45_masked	4	25	400	0	300	300	0	0	496	46	0	1	0	0	0	1	blank2r.bmp	0	1	+	0	8	C4r.bmp	492	1	blank2r.bmp	786	1	CPLW	786	1	blank2r.bmp	866	3	gierig	866	1	!	1239	1	!	-1	0	0	0	0	0	0	0	0	0	0	0	0	0	0	0	0	0	0	0	0	0	0	0	0	0	0	0
121918	10:20:06	10:27:41	454795	5.0.10.0	4_exp_EVA_AMP_AWA_CON	29	Rpleas_acq	Oppo	Rpleas	Amasked	CS_A	2pleas	distractor2	EVAbeforeCON	acq_US_pleas_masked	acq45_masked	4	26	400	0	300	300	0	0	491	50	0	1	0	0	0	1	blank2r.bmp	0	1	+	0	6	C2r.bmp	492	1	blank2r.bmp	786	1	DHJF	786	1	blank2r.bmp	866	5	vergnügt	866	1	!	1239	1	!	-1	0	0	0	0	0	0	0	0	0	0	0	0	0	0	0	0	0	0	0	0	0	0	0	0	0	0	0
121918	10:20:06	10:27:44	457007	5.0.10.0	4_exp_EVA_AMP_AWA_CON	29	Rpleas_acq	Oppo	Rpleas	Amasked	CS_A	2pleas	distractor2	EVAbeforeCON	acq_US_unple_masked	acq45_masked	4	27	400	1	300	300	0	0	399	46	0	1	0	0	0	1	blank2r.bmp	0	1	+	0	2	B2r.bmp	492	1	blank2r.bmp	786	1	CPLW	786	1	blank2r.bmp	866	2	töten	866	1	!	1239	1	!	1306	0	0	0	0	0	0	0	0	0	0	0	0	0	0	0	0	0	0	0	0	0	0	0	0	0	0	0
121918	10:20:06	10:27:46	459260	5.0.10.0	4_exp_EVA_AMP_AWA_CON	29	Rpleas_acq	Oppo	Rpleas	Amasked	CS_A	2pleas	distractor2	EVAbeforeCON	acq_US_pleas_masked	acq45_masked	4	28	400	1	300	300	0	0	460	50	0	1	0	0	0	1	blank2r.bmp	0	1	+	0	5	C1r.bmp	492	1	blank2r.bmp	786	1	DHJF	786	1	blank2r.bmp	866	3	gütig	866	1	!	1239	1	!	1359	0	0	0	0	0	0	0	0	0	0	0	0	0	0	0	0	0	0	0	0	0	0	0	0	0	0	0
121918	10:20:06	10:27:48	461659	5.0.10.0	4_exp_EVA_AMP_AWA_CON	29	Rpleas_acq	Oppo	Rpleas	Amasked	CS_A	2pleas	distractor2	EVAbeforeCON	acq_US_pleas_masked	acq45_masked	4	29	400	0	300	300	0	0	632	50	0	1	0	0	0	1	blank2r.bmp	0	1	+	0	7	C3r.bmp	492	1	blank2r.bmp	786	1	DHJF	786	1	blank2r.bmp	866	1	vertrauen	866	1	!	1239	1	!	-1	0	0	0	0	0	0	0	0	0	0	0	0	0	0	0	0	0	0	0	0	0	0	0	0	0	0	0
121918	10:20:06	10:27:50	463924	5.0.10.0	4_exp_EVA_AMP_AWA_CON	29	Rpleas_acq	Oppo	Rpleas	Amasked	CS_A	2pleas	distractor2	EVAbeforeCON	acq_US_unple_masked	acq45_masked	4	30	400	0	300	300	0	0	479	46	0	1	0	0	0	1	blank2r.bmp	0	1	+	0	3	B3r.bmp	492	1	blank2r.bmp	786	1	CPLW	786	1	blank2r.bmp	866	1	versagen	866	1	!	1239	1	!	-1	0	0	0	0	0	0	0	0	0	0	0	0	0	0	0	0	0	0	0	0	0	0	0	0	0	0	0
121918	10:20:06	10:27:53	466110	5.0.10.0	4_exp_EVA_AMP_AWA_CON	29	Rpleas_acq	Oppo	Rpleas	Amasked	CS_A	2pleas	distractor2	EVAbeforeCON	acq_US_unple_masked	acq45_masked	4	31	400	1	300	300	0	0	370	46	0	1	0	0	0	1	blank2r.bmp	0	1	+	0	2	B2r.bmp	492	1	blank2r.bmp	786	1	CPLW	786	1	blank2r.bmp	866	4	gemein	866	1	!	1239	1	!	1266	0	0	0	0	0	0	0	0	0	0	0	0	0	0	0	0	0	0	0	0	0	0	0	0	0	0	0
121918	10:20:06	10:27:55	468402	5.0.10.0	4_exp_EVA_AMP_AWA_CON	29	Rpleas_acq	Oppo	Rpleas	Amasked	CS_A	2pleas	distractor2	EVAbeforeCON	acq_US_pleas_masked	acq45_masked	4	32	400	0	300	300	0	0	522	50	0	1	0	0	0	1	blank2r.bmp	0	1	+	0	1	B1r.bmp	492	1	blank2r.bmp	786	1	DHJF	786	1	blank2r.bmp	866	4	genießen	866	1	!	1239	1	!	-1	0	0	0	0	0	0	0	0	0	0	0	0	0	0	0	0	0	0	0	0	0	0	0	0	0	0	0
121918	10:20:06	10:27:57	470641	5.0.10.0	4_exp_EVA_AMP_AWA_CON	29	Rpleas_acq	Oppo	Rpleas	Amasked	CS_A	2pleas	distractor2	EVAbeforeCON	acq_US_pleas_masked	acq45_masked	4	33	400	1	300	300	0	0	415	50	0	1	0	0	0	1	blank2r.bmp	0	1	+	0	5	C1r.bmp	492	1	blank2r.bmp	786	1	DHJF	786	1	blank2r.bmp	866	6	kuss	866	1	!	1239	1	!	1319	0	0	0	0	0	0	0	0	0	0	0	0	0	0	0	0	0	0	0	0	0	0	0	0	0	0	0
121918	10:20:06	10:27:59	472827	5.0.10.0	4_exp_EVA_AMP_AWA_CON	29	Rpleas_acq	Oppo	Rpleas	Amasked	CS_A	2pleas	distractor2	EVAbeforeCON	acq_US_pleas_masked	acq45_masked	4	34	400	1	300	300	0	0	388	50	0	1	0	0	0	1	blank2r.bmp	0	1	+	0	8	C4r.bmp	492	1	blank2r.bmp	786	1	DHJF	786	1	blank2r.bmp	866	2	träumen	866	1	!	1239	1	!	1292	0	0	0	0	0	0	0	0	0	0	0	0	0	0	0	0	0	0	0	0	0	0	0	0	0	0	0
121918	10:20:06	10:28:01	474986	5.0.10.0	4_exp_EVA_AMP_AWA_CON	29	Rpleas_acq	Oppo	Rpleas	Amasked	CS_A	2pleas	distractor2	EVAbeforeCON	acq_US_pleas_masked	acq45_masked	4	35	400	1	300	300	0	0	370	50	0	1	0	0	0	1	blank2r.bmp	0	1	+	0	4	B4r.bmp	492	1	blank2r.bmp	786	1	DHJF	786	1	blank2r.bmp	866	5	vergnügt	866	1	!	1239	1	!	1266	0	0	0	0	0	0	0	0	0	0	0	0	0	0	0	0	0	0	0	0	0	0	0	0	0	0	0
121918	10:20:06	10:28:04	477159	5.0.10.0	4_exp_EVA_AMP_AWA_CON	29	Rpleas_acq	Oppo	Rpleas	Amasked	CS_A	2pleas	distractor2	EVAbeforeCON	acq_US_unple_masked	acq45_masked	4	36	400	1	300	300	0	0	378	46	0	1	0	0	0	1	blank2r.bmp	0	1	+	0	6	C2r.bmp	492	1	blank2r.bmp	786	1	CPLW	786	1	blank2r.bmp	866	5	verbissen	866	1	!	1239	1	!	1279	0	0	0	0	0	0	0	0	0	0	0	0	0	0	0	0	0	0	0	0	0	0	0	0	0	0	0
121918	10:20:06	10:28:21	494365	5.0.10.0	4_exp_EVA_AMP_AWA_CON	29	Rpleas_acq	Oppo	Rpleas	Amasked	CS_A	2pleas	distractor2	EVAbeforeCON	acq_US_unple_masked	acq45_masked	5	1	400	1	300	300	0	0	379	46	0	1	0	0	0	1	blank2r.bmp	0	1	+	0	3	B3r.bmp	492	1	blank2r.bmp	786	1	CPLW	786	1	blank2r.bmp	866	1	versagen	866	1	!	1239	1	!	1279	0	0	0	0	0	0	0	0	0	0	0	0	0	0	0	0	0	0	0	0	0	0	0	0	0	0	0
121918	10:20:06	10:28:23	496617	5.0.10.0	4_exp_EVA_AMP_AWA_CON	29	Rpleas_acq	Oppo	Rpleas	Amasked	CS_A	2pleas	distractor2	EVAbeforeCON	acq_US_unple_masked	acq45_masked	5	2	400	0	300	300	0	0	482	46	0	1	0	0	0	1	blank2r.bmp	0	1	+	0	6	C2r.bmp	492	1	blank2r.bmp	786	1	CPLW	786	1	blank2r.bmp	866	6	krise	866	1	!	1239	1	!	-1	0	0	0	0	0	0	0	0	0	0	0	0	0	0	0	0	0	0	0	0	0	0	0	0	0	0	0
121918	10:20:06	10:28:25	498870	5.0.10.0	4_exp_EVA_AMP_AWA_CON	29	Rpleas_acq	Oppo	Rpleas	Amasked	CS_A	2pleas	distractor2	EVAbeforeCON	acq_US_unple_masked	acq45_masked	5	3	400	1	300	300	0	0	442	46	0	1	0	0	0	1	blank2r.bmp	0	1	+	0	7	C3r.bmp	492	1	blank2r.bmp	786	1	CPLW	786	1	blank2r.bmp	866	4	gemein	866	1	!	1239	1	!	1346	0	0	0	0	0	0	0	0	0	0	0	0	0	0	0	0	0	0	0	0	0	0	0	0	0	0	0
121918	10:20:06	10:28:28	501055	5.0.10.0	4_exp_EVA_AMP_AWA_CON	29	Rpleas_acq	Oppo	Rpleas	Amasked	CS_A	2pleas	distractor2	EVAbeforeCON	acq_US_pleas_masked	acq45_masked	5	4	400	1	300	300	0	0	397	46	0	0	0	0	0	1	blank2r.bmp	0	1	+	0	8	C4r.bmp	492	1	blank2r.bmp	786	1	DHJF	786	1	blank2r.bmp	866	5	vergnügt	866	1	!	1239	1	!	1292	0	0	0	0	0	0	0	0	0	0	0	0	0	0	0	0	0	0	0	0	0	0	0	0	0	0	0
121918	10:20:06	10:28:30	503201	5.0.10.0	4_exp_EVA_AMP_AWA_CON	29	Rpleas_acq	Oppo	Rpleas	Amasked	CS_A	2pleas	distractor2	EVAbeforeCON	acq_US_pleas_masked	acq45_masked	5	5	400	1	300	300	0	0	346	50	0	1	0	0	0	1	blank2r.bmp	0	1	+	0	2	B2r.bmp	492	1	blank2r.bmp	786	1	DHJF	786	1	blank2r.bmp	866	6	kuss	866	1	!	1239	1	!	1252	0	0	0	0	0	0	0	0	0	0	0	0	0	0	0	0	0	0	0	0	0	0	0	0	0	0	0
121918	10:20:06	10:28:32	505400	5.0.10.0	4_exp_EVA_AMP_AWA_CON	29	Rpleas_acq	Oppo	Rpleas	Amasked	CS_A	2pleas	distractor2	EVAbeforeCON	acq_US_pleas_masked	acq45_masked	5	6	400	1	300	300	0	0	393	46	0	0	0	0	0	1	blank2r.bmp	0	1	+	0	1	B1r.bmp	492	1	blank2r.bmp	786	1	DHJF	786	1	blank2r.bmp	866	4	genießen	866	1	!	1239	1	!	1292	0	0	0	0	0	0	0	0	0	0	0	0	0	0	0	0	0	0	0	0	0	0	0	0	0	0	0
121918	10:20:06	10:28:34	507546	5.0.10.0	4_exp_EVA_AMP_AWA_CON	29	Rpleas_acq	Oppo	Rpleas	Amasked	CS_A	2pleas	distractor2	EVAbeforeCON	acq_US_pleas_masked	acq45_masked	5	7	400	1	300	300	0	0	355	50	0	1	0	0	0	1	blank2r.bmp	0	1	+	0	4	B4r.bmp	492	1	blank2r.bmp	786	1	DHJF	786	1	blank2r.bmp	866	2	träumen	866	1	!	1239	1	!	1252	0	0	0	0	0	0	0	0	0	0	0	0	0	0	0	0	0	0	0	0	0	0	0	0	0	0	0
121918	10:20:06	10:28:36	509625	5.0.10.0	4_exp_EVA_AMP_AWA_CON	29	Rpleas_acq	Oppo	Rpleas	Amasked	CS_A	2pleas	distractor2	EVAbeforeCON	acq_US_pleas_masked	acq45_masked	5	8	400	0	300	300	0	0	316	50	0	1	0	0	0	1	blank2r.bmp	0	1	+	0	5	C1r.bmp	492	1	blank2r.bmp	786	1	DHJF	786	1	blank2r.bmp	866	3	gütig	866	1	!	-1	1	!	-1	0	0	0	0	0	0	0	0	0	0	0	0	0	0	0	0	0	0	0	0	0	0	0	0	0	0	0
121918	10:20:06	10:28:38	511864	5.0.10.0	4_exp_EVA_AMP_AWA_CON	29	Rpleas_acq	Oppo	Rpleas	Amasked	CS_A	2pleas	distractor2	EVAbeforeCON	acq_US_unple_masked	acq45_masked	5	9	400	1	300	300	0	0	437	46	0	1	0	0	0	1	blank2r.bmp	0	1	+	0	4	B4r.bmp	492	1	blank2r.bmp	786	1	CPLW	786	1	blank2r.bmp	866	5	verbissen	866	1	!	1239	1	!	1332	0	0	0	0	0	0	0	0	0	0	0	0	0	0	0	0	0	0	0	0	0	0	0	0	0	0	0
121918	10:20:06	10:28:41	514050	5.0.10.0	4_exp_EVA_AMP_AWA_CON	29	Rpleas_acq	Oppo	Rpleas	Amasked	CS_A	2pleas	distractor2	EVAbeforeCON	acq_US_unple_masked	acq45_masked	5	10	400	1	300	300	0	0	390	46	0	1	0	0	0	1	blank2r.bmp	0	1	+	0	5	C1r.bmp	492	1	blank2r.bmp	786	1	CPLW	786	1	blank2r.bmp	866	3	gierig	866	1	!	1239	1	!	1292	0	0	0	0	0	0	0	0	0	0	0	0	0	0	0	0	0	0	0	0	0	0	0	0	0	0	0
121918	10:20:06	10:28:43	516116	5.0.10.0	4_exp_EVA_AMP_AWA_CON	29	Rpleas_acq	Oppo	Rpleas	Amasked	CS_A	2pleas	distractor2	EVAbeforeCON	acq_US_pleas_masked	acq45_masked	5	11	400	0	300	300	0	0	301	50	0	1	0	0	0	1	blank2r.bmp	0	1	+	0	8	C4r.bmp	492	1	blank2r.bmp	786	1	DHJF	786	1	blank2r.bmp	866	1	vertrauen	866	1	!	-1	1	!	-1	0	0	0	0	0	0	0	0	0	0	0	0	0	0	0	0	0	0	0	0	0	0	0	0	0	0	0
121918	10:20:06	10:28:45	518221	5.0.10.0	4_exp_EVA_AMP_AWA_CON	29	Rpleas_acq	Oppo	Rpleas	Amasked	CS_A	2pleas	distractor2	EVAbeforeCON	acq_US_pleas_masked	acq45_masked	5	12	400	0	300	300	0	0	323	46	0	0	0	0	0	1	blank2r.bmp	0	1	+	0	7	C3r.bmp	492	1	blank2r.bmp	786	1	DHJF	786	1	blank2r.bmp	866	1	vertrauen	866	1	!	-1	1	!	-1	0	0	0	0	0	0	0	0	0	0	0	0	0	0	0	0	0	0	0	0	0	0	0	0	0	0	0
121918	10:20:06	10:28:47	520474	5.0.10.0	4_exp_EVA_AMP_AWA_CON	29	Rpleas_acq	Oppo	Rpleas	Amasked	CS_A	2pleas	distractor2	EVAbeforeCON	acq_US_unple_masked	acq45_masked	5	13	400	1	300	300	0	0	439	46	0	1	0	0	0	1	blank2r.bmp	0	1	+	0	2	B2r.bmp	492	1	blank2r.bmp	786	1	CPLW	786	1	blank2r.bmp	866	2	töten	866	1	!	1239	1	!	1346	0	0	0	0	0	0	0	0	0	0	0	0	0	0	0	0	0	0	0	0	0	0	0	0	0	0	0
121918	10:20:06	10:28:49	522620	5.0.10.0	4_exp_EVA_AMP_AWA_CON	29	Rpleas_acq	Oppo	Rpleas	Amasked	CS_A	2pleas	distractor2	EVAbeforeCON	acq_US_unple_masked	acq45_masked	5	14	400	1	300	300	0	0	346	50	0	0	0	0	0	1	blank2r.bmp	0	1	+	0	3	B3r.bmp	492	1	blank2r.bmp	786	1	CPLW	786	1	blank2r.bmp	866	5	verbissen	866	1	!	1239	1	!	1252	0	0	0	0	0	0	0	0	0	0	0	0	0	0	0	0	0	0	0	0	0	0	0	0	0	0	0
121918	10:20:06	10:28:51	524832	5.0.10.0	4_exp_EVA_AMP_AWA_CON	29	Rpleas_acq	Oppo	Rpleas	Amasked	CS_A	2pleas	distractor2	EVAbeforeCON	acq_US_pleas_masked	acq45_masked	5	15	400	1	300	300	0	0	423	50	0	1	0	0	0	1	blank2r.bmp	0	1	+	0	1	B1r.bmp	492	1	blank2r.bmp	786	1	DHJF	786	1	blank2r.bmp	866	2	träumen	866	1	!	1239	1	!	1319	0	0	0	0	0	0	0	0	0	0	0	0	0	0	0	0	0	0	0	0	0	0	0	0	0	0	0
121918	10:20:06	10:28:54	527071	5.0.10.0	4_exp_EVA_AMP_AWA_CON	29	Rpleas_acq	Oppo	Rpleas	Amasked	CS_A	2pleas	distractor2	EVAbeforeCON	acq_US_pleas_masked	acq45_masked	5	16	400	1	300	300	0	0	446	50	0	1	0	0	0	1	blank2r.bmp	0	1	+	0	6	C2r.bmp	492	1	blank2r.bmp	786	1	DHJF	786	1	blank2r.bmp	866	6	kuss	866	1	!	1239	1	!	1346	0	0	0	0	0	0	0	0	0	0	0	0	0	0	0	0	0	0	0	0	0	0	0	0	0	0	0
121918	10:20:06	10:28:56	529124	5.0.10.0	4_exp_EVA_AMP_AWA_CON	29	Rpleas_acq	Oppo	Rpleas	Amasked	CS_A	2pleas	distractor2	EVAbeforeCON	acq_US_unple_masked	acq45_masked	5	17	400	0	300	300	0	0	269	50	0	0	0	0	0	1	blank2r.bmp	0	1	+	0	3	B3r.bmp	492	1	blank2r.bmp	786	1	CPLW	786	1	blank2r.bmp	866	3	gierig	866	1	!	-1	1	!	-1	0	0	0	0	0	0	0	0	0	0	0	0	0	0	0	0	0	0	0	0	0	0	0	0	0	0	0
121918	10:20:06	10:28:58	531229	5.0.10.0	4_exp_EVA_AMP_AWA_CON	29	Rpleas_acq	Oppo	Rpleas	Amasked	CS_A	2pleas	distractor2	EVAbeforeCON	acq_US_unple_masked	acq45_masked	5	18	400	0	300	300	0	0	328	50	0	0	0	0	0	1	blank2r.bmp	0	1	+	0	4	B4r.bmp	492	1	blank2r.bmp	786	1	CPLW	786	1	blank2r.bmp	866	4	gemein	866	1	!	-1	1	!	-1	0	0	0	0	0	0	0	0	0	0	0	0	0	0	0	0	0	0	0	0	0	0	0	0	0	0	0
121918	10:20:06	10:29:00	533495	5.0.10.0	4_exp_EVA_AMP_AWA_CON	29	Rpleas_acq	Oppo	Rpleas	Amasked	CS_A	2pleas	distractor2	EVAbeforeCON	acq_US_unple_masked	acq45_masked	5	19	400	0	300	300	0	0	479	46	0	1	0	0	0	1	blank2r.bmp	0	1	+	0	8	C4r.bmp	492	1	blank2r.bmp	786	1	CPLW	786	1	blank2r.bmp	866	6	krise	866	1	!	1239	1	!	-1	0	0	0	0	0	0	0	0	0	0	0	0	0	0	0	0	0	0	0	0	0	0	0	0	0	0	0
121918	10:20:06	10:29:02	535734	5.0.10.0	4_exp_EVA_AMP_AWA_CON	29	Rpleas_acq	Oppo	Rpleas	Amasked	CS_A	2pleas	distractor2	EVAbeforeCON	acq_US_pleas_masked	acq45_masked	5	20	400	1	300	300	0	0	433	46	0	0	0	0	0	1	blank2r.bmp	0	1	+	0	2	B2r.bmp	492	1	blank2r.bmp	786	1	DHJF	786	1	blank2r.bmp	866	3	gütig	866	1	!	1239	1	!	1332	0	0	0	0	0	0	0	0	0	0	0	0	0	0	0	0	0	0	0	0	0	0	0	0	0	0	0
121918	10:20:06	10:29:04	537987	5.0.10.0	4_exp_EVA_AMP_AWA_CON	29	Rpleas_acq	Oppo	Rpleas	Amasked	CS_A	2pleas	distractor2	EVAbeforeCON	acq_US_unple_masked	acq45_masked	5	21	400	1	300	300	0	0	458	46	0	1	0	0	0	1	blank2r.bmp	0	1	+	0	6	C2r.bmp	492	1	blank2r.bmp	786	1	CPLW	786	1	blank2r.bmp	866	1	versagen	866	1	!	1239	1	!	1359	0	0	0	0	0	0	0	0	0	0	0	0	0	0	0	0	0	0	0	0	0	0	0	0	0	0	0
121918	10:20:06	10:29:07	540239	5.0.10.0	4_exp_EVA_AMP_AWA_CON	29	Rpleas_acq	Oppo	Rpleas	Amasked	CS_A	2pleas	distractor2	EVAbeforeCON	acq_US_pleas_masked	acq45_masked	5	22	400	0	300	300	0	0	479	46	0	0	0	0	0	1	blank2r.bmp	0	1	+	0	1	B1r.bmp	492	1	blank2r.bmp	786	1	DHJF	786	1	blank2r.bmp	866	4	genießen	866	1	!	1239	1	!	-1	0	0	0	0	0	0	0	0	0	0	0	0	0	0	0	0	0	0	0	0	0	0	0	0	0	0	0
121918	10:20:06	10:29:09	542585	5.0.10.0	4_exp_EVA_AMP_AWA_CON	29	Rpleas_acq	Oppo	Rpleas	Amasked	CS_A	2pleas	distractor2	EVAbeforeCON	acq_US_unple_masked	acq45_masked	5	23	400	0	300	300	0	0	558	46	0	1	0	0	0	1	blank2r.bmp	0	1	+	0	7	C3r.bmp	492	1	blank2r.bmp	786	1	CPLW	786	1	blank2r.bmp	866	2	töten	866	1	!	1239	1	!	-1	0	0	0	0	0	0	0	0	0	0	0	0	0	0	0	0	0	0	0	0	0	0	0	0	0	0	0
121918	10:20:06	10:29:11	544850	5.0.10.0	4_exp_EVA_AMP_AWA_CON	29	Rpleas_acq	Oppo	Rpleas	Amasked	CS_A	2pleas	distractor2	EVAbeforeCON	acq_US_pleas_masked	acq45_masked	5	24	400	0	300	300	0	0	479	50	0	1	0	0	0	1	blank2r.bmp	0	1	+	0	5	C1r.bmp	492	1	blank2r.bmp	786	1	DHJF	786	1	blank2r.bmp	866	5	vergnügt	866	1	!	1239	1	!	-1	0	0	0	0	0	0	0	0	0	0	0	0	0	0	0	0	0	0	0	0	0	0	0	0	0	0	0
121918	10:20:06	10:29:14	547183	5.0.10.0	4_exp_EVA_AMP_AWA_CON	29	Rpleas_acq	Oppo	Rpleas	Amasked	CS_A	2pleas	distractor2	EVAbeforeCON	acq_US_unple_masked	acq45_masked	5	25	400	0	300	300	0	0	548	46	0	1	0	0	0	1	blank2r.bmp	0	1	+	0	4	B4r.bmp	492	1	blank2r.bmp	786	1	CPLW	786	1	blank2r.bmp	866	4	gemein	866	1	!	1239	1	!	-1	0	0	0	0	0	0	0	0	0	0	0	0	0	0	0	0	0	0	0	0	0	0	0	0	0	0	0
121918	10:20:06	10:29:16	549408	5.0.10.0	4_exp_EVA_AMP_AWA_CON	29	Rpleas_acq	Oppo	Rpleas	Amasked	CS_A	2pleas	distractor2	EVAbeforeCON	acq_US_pleas_masked	acq45_masked	5	26	400	1	300	300	0	0	413	50	0	1	0	0	0	1	blank2r.bmp	0	1	+	0	6	C2r.bmp	492	1	blank2r.bmp	786	1	DHJF	786	1	blank2r.bmp	866	6	kuss	866	1	!	1239	1	!	1319	0	0	0	0	0	0	0	0	0	0	0	0	0	0	0	0	0	0	0	0	0	0	0	0	0	0	0
121918	10:20:06	10:29:18	551714	5.0.10.0	4_exp_EVA_AMP_AWA_CON	29	Rpleas_acq	Oppo	Rpleas	Amasked	CS_A	2pleas	distractor2	EVAbeforeCON	acq_US_pleas_masked	acq45_masked	5	27	400	0	300	300	0	0	530	50	0	1	0	0	0	1	blank2r.bmp	0	1	+	0	2	B2r.bmp	492	1	blank2r.bmp	786	1	DHJF	786	1	blank2r.bmp	866	3	gütig	866	1	!	1239	1	!	-1	0	0	0	0	0	0	0	0	0	0	0	0	0	0	0	0	0	0	0	0	0	0	0	0	0	0	0
121918	10:20:06	10:29:20	553926	5.0.10.0	4_exp_EVA_AMP_AWA_CON	29	Rpleas_acq	Oppo	Rpleas	Amasked	CS_A	2pleas	distractor2	EVAbeforeCON	acq_US_unple_masked	acq45_masked	5	28	400	1	300	300	0	0	402	46	0	1	0	0	0	1	blank2r.bmp	0	1	+	0	1	B1r.bmp	492	1	blank2r.bmp	786	1	CPLW	786	1	blank2r.bmp	866	6	krise	866	1	!	1239	1	!	1306	0	0	0	0	0	0	0	0	0	0	0	0	0	0	0	0	0	0	0	0	0	0	0	0	0	0	0
121918	10:20:06	10:29:23	556139	5.0.10.0	4_exp_EVA_AMP_AWA_CON	29	Rpleas_acq	Oppo	Rpleas	Amasked	CS_A	2pleas	distractor2	EVAbeforeCON	acq_US_pleas_masked	acq45_masked	5	29	400	1	300	300	0	0	424	50	0	1	0	0	0	1	blank2r.bmp	0	1	+	0	8	C4r.bmp	492	1	blank2r.bmp	786	1	DHJF	786	1	blank2r.bmp	866	2	träumen	866	1	!	1239	1	!	1319	0	0	0	0	0	0	0	0	0	0	0	0	0	0	0	0	0	0	0	0	0	0	0	0	0	0	0
121918	10:20:06	10:29:25	558365	5.0.10.0	4_exp_EVA_AMP_AWA_CON	29	Rpleas_acq	Oppo	Rpleas	Amasked	CS_A	2pleas	distractor2	EVAbeforeCON	acq_US_unple_masked	acq45_masked	5	30	400	1	300	300	0	0	427	46	0	1	0	0	0	1	blank2r.bmp	0	1	+	0	5	C1r.bmp	492	1	blank2r.bmp	786	1	CPLW	786	1	blank2r.bmp	866	5	verbissen	866	1	!	1239	1	!	1332	0	0	0	0	0	0	0	0	0	0	0	0	0	0	0	0	0	0	0	0	0	0	0	0	0	0	0
121918	10:20:06	10:29:27	560617	5.0.10.0	4_exp_EVA_AMP_AWA_CON	29	Rpleas_acq	Oppo	Rpleas	Amasked	CS_A	2pleas	distractor2	EVAbeforeCON	acq_US_unple_masked	acq45_masked	5	31	400	1	300	300	0	0	451	46	0	1	0	0	0	1	blank2r.bmp	0	1	+	0	3	B3r.bmp	492	1	blank2r.bmp	786	1	CPLW	786	1	blank2r.bmp	866	1	versagen	866	1	!	1239	1	!	1346	0	0	0	0	0	0	0	0	0	0	0	0	0	0	0	0	0	0	0	0	0	0	0	0	0	0	0
121918	10:20:06	10:29:29	562763	5.0.10.0	4_exp_EVA_AMP_AWA_CON	29	Rpleas_acq	Oppo	Rpleas	Amasked	CS_A	2pleas	distractor2	EVAbeforeCON	acq_US_unple_masked	acq45_masked	5	32	400	1	300	300	0	0	351	50	0	0	0	0	0	1	blank2r.bmp	0	1	+	0	7	C3r.bmp	492	1	blank2r.bmp	786	1	CPLW	786	1	blank2r.bmp	866	3	gierig	866	1	!	1239	1	!	1252	0	0	0	0	0	0	0	0	0	0	0	0	0	0	0	0	0	0	0	0	0	0	0	0	0	0	0
121918	10:20:06	10:29:31	564869	5.0.10.0	4_exp_EVA_AMP_AWA_CON	29	Rpleas_acq	Oppo	Rpleas	Amasked	CS_A	2pleas	distractor2	EVAbeforeCON	acq_US_unple_masked	acq45_masked	5	33	400	0	300	300	0	0	321	46	0	1	0	0	0	1	blank2r.bmp	0	1	+	0	4	B4r.bmp	492	1	blank2r.bmp	786	1	CPLW	786	1	blank2r.bmp	866	2	töten	866	1	!	-1	1	!	-1	0	0	0	0	0	0	0	0	0	0	0	0	0	0	0	0	0	0	0	0	0	0	0	0	0	0	0
121918	10:20:06	10:29:34	567121	5.0.10.0	4_exp_EVA_AMP_AWA_CON	29	Rpleas_acq	Oppo	Rpleas	Amasked	CS_A	2pleas	distractor2	EVAbeforeCON	acq_US_pleas_masked	acq45_masked	5	34	400	1	300	300	0	0	446	50	0	1	0	0	0	1	blank2r.bmp	0	1	+	0	5	C1r.bmp	492	1	blank2r.bmp	786	1	DHJF	786	1	blank2r.bmp	866	1	vertrauen	866	1	!	1239	1	!	1346	0	0	0	0	0	0	0	0	0	0	0	0	0	0	0	0	0	0	0	0	0	0	0	0	0	0	0
121918	10:20:06	10:29:36	569280	5.0.10.0	4_exp_EVA_AMP_AWA_CON	29	Rpleas_acq	Oppo	Rpleas	Amasked	CS_A	2pleas	distractor2	EVAbeforeCON	acq_US_pleas_masked	acq45_masked	5	35	400	1	300	300	0	0	368	46	0	0	0	0	0	1	blank2r.bmp	0	1	+	0	8	C4r.bmp	492	1	blank2r.bmp	786	1	DHJF	786	1	blank2r.bmp	866	5	vergnügt	866	1	!	1239	1	!	1266	0	0	0	0	0	0	0	0	0	0	0	0	0	0	0	0	0	0	0	0	0	0	0	0	0	0	0
121918	10:20:06	10:29:38	571532	5.0.10.0	4_exp_EVA_AMP_AWA_CON	29	Rpleas_acq	Oppo	Rpleas	Amasked	CS_A	2pleas	distractor2	EVAbeforeCON	acq_US_pleas_masked	acq45_masked	5	36	400	0	300	300	0	0	488	46	0	0	0	0	0	1	blank2r.bmp	0	1	+	0	1	B1r.bmp	492	1	blank2r.bmp	786	1	DHJF	786	1	blank2r.bmp	866	4	genießen	866	1	!	1239	1	!	-1	0	0	0	0	0	0	0	0	0	0	0	0	0	0	0	0	0	0	0	0	0	0	0	0	0	0	0
121918	10:20:06	10:30:08	601307	5.0.10.0	4_exp_EVA_AMP_AWA_CON	29	Rpleas_acq	Oppo	Lpleas	Amasked	CS_A	2pleas	distractor2	EVAbeforeCON	EvalRating_firsttwo	EvalRating_firsttwo	6	1	0	0	300	300	0	0	11159	line	-47,8515624999999928946	0	0	0	0	1	eraser	0	1	Wie angenehm oder unangenehm finden Sie die  Buchstabenkette ZGXT?	0	1	leftborder	0	1	rightborder	0	1	line	0	1	Unangenehm	0	1	Angenehm	0	0	0	0	0	0	0	0	0	0	0	0	0	0	0	0	0	0	0	0	0	0	0	0	0	0	0	0	0	0	0	0	0	0
121918	10:20:06	10:30:15	608717	5.0.10.0	4_exp_EVA_AMP_AWA_CON	29	Rpleas_acq	Oppo	Lpleas	Amasked	CS_A	2pleas	distractor2	EVAbeforeCON	EvalRating_lastfour	EvalRating_lastfour	7	1	0	0	300	300	0	0	4968	line	-29,052734375	0	0	0	0	1	eraser	0	3	Wie angenehm oder unangenehm finden Sie die  Buchstabenkette QYSB?	0	1	leftborder	0	1	rightborder	0	1	line	0	1	Unangenehm	0	1	Angenehm	0	0	0	0	0	0	0	0	0	0	0	0	0	0	0	0	0	0	0	0	0	0	0	0	0	0	0	0	0	0	0	0	0	0
121918	10:20:06	10:30:18	611102	5.0.10.0	4_exp_EVA_AMP_AWA_CON	29	Rpleas_acq	Oppo	Lpleas	Amasked	CS_A	2pleas	distractor2	EVAbeforeCON	blank_screen	EvalRating_lastfour	7	3	0	0	300	300	0	0	0	0	-29,052734375	0	0	0	0	1	eraser	0	0	0	0	0	0	0	0	0	0	0	0	0	0	0	0	0	0	0	0	0	0	0	0	0	0	0	0	0	0	0	0	0	0	0	0	0	0	0	0	0	0	0	0	0	0	0	0	0	0	0	0
121918	10:20:06	10:30:20	613182	5.0.10.0	4_exp_EVA_AMP_AWA_CON	29	Rpleas_acq	Oppo	Lpleas	Amasked	CS_A	2pleas	distractor2	EVAbeforeCON	EvalRating_lastfour	EvalRating_lastfour	7	4	0	0	300	300	0	0	1502	line	44,189453125	0	0	0	0	1	eraser	0	2	Wie angenehm oder unangenehm finden Sie die  Buchstabenkette DHJF?	0	1	leftborder	0	1	rightborder	0	1	line	0	1	Unangenehm	0	1	Angenehm	0	0	0	0	0	0	0	0	0	0	0	0	0	0	0	0	0	0	0	0	0	0	0	0	0	0	0	0	0	0	0	0	0	0
121918	10:20:06	10:30:22	615567	5.0.10.0	4_exp_EVA_AMP_AWA_CON	29	Rpleas_acq	Oppo	Lpleas	Amasked	CS_A	2pleas	distractor2	EVAbeforeCON	blank_screen	EvalRating_lastfour	7	6	0	0	300	300	0	0	0	0	44,189453125	0	0	0	0	1	eraser	0	0	0	0	0	0	0	0	0	0	0	0	0	0	0	0	0	0	0	0	0	0	0	0	0	0	0	0	0	0	0	0	0	0	0	0	0	0	0	0	0	0	0	0	0	0	0	0	0	0	0	0
121918	10:20:06	10:30:25	618793	5.0.10.0	4_exp_EVA_AMP_AWA_CON	29	Rpleas_acq	Oppo	Lpleas	Amasked	CS_A	2pleas	distractor2	EVAbeforeCON	EvalRating_lastfour	EvalRating_lastfour	7	7	0	0	300	300	0	0	2631	line	-16,6015625	0	0	0	0	1	eraser	1	1	Wie angenehm oder unangenehm finden Sie die  Buchstabenkette CPLW?	1	1	leftborder	1	1	rightborder	1	1	line	1	1	Unangenehm	1	1	Angenehm	1	0	0	0	0	0	0	0	0	0	0	0	0	0	0	0	0	0	0	0	0	0	0	0	0	0	0	0	0	0	0	0	0	0
121918	10:20:06	10:31:17	670184	5.0.10.0	4_exp_EVA_AMP_AWA_CON	29	Rpleas_acq	Oppo	Lpleas	Amasked	CS_A	2pleas	distractor2	EVAbeforeCON	AMP_distractor	AMP1_masked	8	1	0	0	300	300	0	0	9841	46	-16,6015625	0	0	0	0	1	blank2r.bmp	0	1	QYSB	0	1	blank2r.bmp	79	104	pic104.bmp	199	1	whitenoise_No3.bmp	306	0	0	0	0	0	0	0	0	0	0	0	0	0	0	0	0	0	0	0	0	0	0	0	0	0	0	0	0	0	0	0	0	0	0	0	0	0	0	0
121918	10:20:06	10:31:20	673956	5.0.10.0	4_exp_EVA_AMP_AWA_CON	29	Rpleas_acq	Oppo	Lpleas	Amasked	CS_A	2pleas	distractor2	EVAbeforeCON	AMP_distractor	AMP1_masked	8	2	0	0	300	300	0	0	2841	46	-16,6015625	0	0	0	0	1	blank2r.bmp	0	1	QYSB	0	1	blank2r.bmp	79	84	pic84.bmp	199	1	whitenoise_No3.bmp	306	0	0	0	0	0	0	0	0	0	0	0	0	0	0	0	0	0	0	0	0	0	0	0	0	0	0	0	0	0	0	0	0	0	0	0	0	0	0	0
121918	10:20:06	10:31:23	676715	5.0.10.0	4_exp_EVA_AMP_AWA_CON	29	Rpleas_acq	Oppo	Lpleas	Amasked	CS_A	2pleas	distractor2	EVAbeforeCON	AMP_CSpleas	AMP1_masked	8	3	0	0	300	300	0	0	1829	46	-16,6015625	1	0	0	0	1	blank2r.bmp	0	1	DHJF	0	1	blank2r.bmp	79	94	pic94.bmp	199	1	whitenoise_No3.bmp	306	0	0	0	0	0	0	0	0	0	0	0	0	0	0	0	0	0	0	0	0	0	0	0	0	0	0	0	0	0	0	0	0	0	0	0	0	0	0	0
121918	10:20:06	10:31:25	678474	5.0.10.0	4_exp_EVA_AMP_AWA_CON	29	Rpleas_acq	Oppo	Lpleas	Amasked	CS_A	2pleas	distractor2	EVAbeforeCON	AMP_CSunple	AMP1_masked	8	4	0	0	300	300	0	0	829	46	-16,6015625	0	0	0	0	1	blank2r.bmp	0	1	CPLW	0	1	blank2r.bmp	79	32	pic32.bmp	199	1	whitenoise_No3.bmp	306	0	0	0	0	0	0	0	0	0	0	0	0	0	0	0	0	0	0	0	0	0	0	0	0	0	0	0	0	0	0	0	0	0	0	0	0	0	0	0
121918	10:20:06	10:31:27	680753	5.0.10.0	4_exp_EVA_AMP_AWA_CON	29	Rpleas_acq	Oppo	Lpleas	Amasked	CS_A	2pleas	distractor2	EVAbeforeCON	AMP_CSpleas	AMP1_masked	8	5	0	0	300	300	0	0	1360	46	-16,6015625	1	0	0	0	1	blank2r.bmp	0	1	DHJF	0	1	blank2r.bmp	79	143	pic143.bmp	199	1	whitenoise_No3.bmp	306	0	0	0	0	0	0	0	0	0	0	0	0	0	0	0	0	0	0	0	0	0	0	0	0	0	0	0	0	0	0	0	0	0	0	0	0	0	0	0
121918	10:20:06	10:31:29	682259	5.0.10.0	4_exp_EVA_AMP_AWA_CON	29	Rpleas_acq	Oppo	Lpleas	Amasked	CS_A	2pleas	distractor2	EVAbeforeCON	AMP_CSpleas	AMP1_masked	8	6	0	0	300	300	0	0	588	46	-16,6015625	1	0	0	0	1	blank2r.bmp	0	1	DHJF	0	1	blank2r.bmp	79	141	pic141.bmp	199	1	whitenoise_No3.bmp	306	0	0	0	0	0	0	0	0	0	0	0	0	0	0	0	0	0	0	0	0	0	0	0	0	0	0	0	0	0	0	0	0	0	0	0	0	0	0	0
121918	10:20:06	10:31:30	683872	5.0.10.0	4_exp_EVA_AMP_AWA_CON	29	Rpleas_acq	Oppo	Lpleas	Amasked	CS_A	2pleas	distractor2	EVAbeforeCON	AMP_CSpleas	AMP1_masked	8	7	0	0	300	300	0	0	692	50	-16,6015625	0	0	0	0	1	blank2r.bmp	0	1	DHJF	0	1	blank2r.bmp	79	138	pic138.bmp	199	1	whitenoise_No3.bmp	306	0	0	0	0	0	0	0	0	0	0	0	0	0	0	0	0	0	0	0	0	0	0	0	0	0	0	0	0	0	0	0	0	0	0	0	0	0	0	0
121918	10:20:06	10:31:32	685618	5.0.10.0	4_exp_EVA_AMP_AWA_CON	29	Rpleas_acq	Oppo	Lpleas	Amasked	CS_A	2pleas	distractor2	EVAbeforeCON	AMP_distractor	AMP1_masked	8	8	0	0	300	300	0	0	837	46	-16,6015625	0	0	0	0	1	blank2r.bmp	0	1	QYSB	0	1	blank2r.bmp	79	36	pic36.bmp	199	1	whitenoise_No3.bmp	306	0	0	0	0	0	0	0	0	0	0	0	0	0	0	0	0	0	0	0	0	0	0	0	0	0	0	0	0	0	0	0	0	0	0	0	0	0	0	0
121918	10:20:06	10:31:34	687297	5.0.10.0	4_exp_EVA_AMP_AWA_CON	29	Rpleas_acq	Oppo	Lpleas	Amasked	CS_A	2pleas	distractor2	EVAbeforeCON	AMP_distractor	AMP1_masked	8	9	0	0	300	300	0	0	753	50	-16,6015625	0	0	0	0	1	blank2r.bmp	0	1	QYSB	0	1	blank2r.bmp	79	122	pic122.bmp	199	1	whitenoise_No3.bmp	306	0	0	0	0	0	0	0	0	0	0	0	0	0	0	0	0	0	0	0	0	0	0	0	0	0	0	0	0	0	0	0	0	0	0	0	0	0	0	0
121918	10:20:06	10:31:36	689310	5.0.10.0	4_exp_EVA_AMP_AWA_CON	29	Rpleas_acq	Oppo	Lpleas	Amasked	CS_A	2pleas	distractor2	EVAbeforeCON	AMP_distractor	AMP1_masked	8	10	0	0	300	300	0	0	1084	46	-16,6015625	0	0	0	0	1	blank2r.bmp	0	1	QYSB	0	1	blank2r.bmp	79	86	pic86.bmp	199	1	whitenoise_No3.bmp	306	0	0	0	0	0	0	0	0	0	0	0	0	0	0	0	0	0	0	0	0	0	0	0	0	0	0	0	0	0	0	0	0	0	0	0	0	0	0	0
121918	10:20:06	10:31:38	691082	5.0.10.0	4_exp_EVA_AMP_AWA_CON	29	Rpleas_acq	Oppo	Lpleas	Amasked	CS_A	2pleas	distractor2	EVAbeforeCON	AMP_distractor	AMP1_masked	8	11	0	0	300	300	0	0	845	46	-16,6015625	0	0	0	0	1	blank2r.bmp	0	1	QYSB	0	1	blank2r.bmp	79	53	pic53.bmp	199	1	whitenoise_No3.bmp	306	0	0	0	0	0	0	0	0	0	0	0	0	0	0	0	0	0	0	0	0	0	0	0	0	0	0	0	0	0	0	0	0	0	0	0	0	0	0	0
121918	10:20:06	10:31:39	692721	5.0.10.0	4_exp_EVA_AMP_AWA_CON	29	Rpleas_acq	Oppo	Lpleas	Amasked	CS_A	2pleas	distractor2	EVAbeforeCON	AMP_CSunple	AMP1_masked	8	12	0	0	300	300	0	0	708	46	-16,6015625	0	0	0	0	1	blank2r.bmp	0	1	CPLW	0	1	blank2r.bmp	79	16	pic16.bmp	199	1	whitenoise_No3.bmp	306	0	0	0	0	0	0	0	0	0	0	0	0	0	0	0	0	0	0	0	0	0	0	0	0	0	0	0	0	0	0	0	0	0	0	0	0	0	0	0
121918	10:20:06	10:31:41	694534	5.0.10.0	4_exp_EVA_AMP_AWA_CON	29	Rpleas_acq	Oppo	Lpleas	Amasked	CS_A	2pleas	distractor2	EVAbeforeCON	AMP_distractor	AMP1_masked	8	13	0	0	300	300	0	0	892	46	-16,6015625	0	0	0	0	1	blank2r.bmp	0	1	QYSB	0	1	blank2r.bmp	79	40	pic40.bmp	199	1	whitenoise_No3.bmp	306	0	0	0	0	0	0	0	0	0	0	0	0	0	0	0	0	0	0	0	0	0	0	0	0	0	0	0	0	0	0	0	0	0	0	0	0	0	0	0
121918	10:20:06	10:31:43	696573	5.0.10.0	4_exp_EVA_AMP_AWA_CON	29	Rpleas_acq	Oppo	Lpleas	Amasked	CS_A	2pleas	distractor2	EVAbeforeCON	AMP_CSunple	AMP1_masked	8	14	0	0	300	300	0	0	1142	46	-16,6015625	0	0	0	0	1	blank2r.bmp	0	1	CPLW	0	1	blank2r.bmp	79	31	pic31.bmp	199	1	whitenoise_No3.bmp	306	0	0	0	0	0	0	0	0	0	0	0	0	0	0	0	0	0	0	0	0	0	0	0	0	0	0	0	0	0	0	0	0	0	0	0	0	0	0	0
121918	10:20:06	10:31:45	698532	5.0.10.0	4_exp_EVA_AMP_AWA_CON	29	Rpleas_acq	Oppo	Lpleas	Amasked	CS_A	2pleas	distractor2	EVAbeforeCON	AMP_CSunple	AMP1_masked	8	15	0	0	300	300	0	0	1030	46	-16,6015625	0	0	0	0	1	blank2r.bmp	0	1	CPLW	0	1	blank2r.bmp	79	117	pic117.bmp	199	1	whitenoise_No3.bmp	306	0	0	0	0	0	0	0	0	0	0	0	0	0	0	0	0	0	0	0	0	0	0	0	0	0	0	0	0	0	0	0	0	0	0	0	0	0	0	0
121918	10:20:06	10:31:47	700612	5.0.10.0	4_exp_EVA_AMP_AWA_CON	29	Rpleas_acq	Oppo	Lpleas	Amasked	CS_A	2pleas	distractor2	EVAbeforeCON	AMP_distractor	AMP1_masked	8	16	0	0	300	300	0	0	1159	50	-16,6015625	0	0	0	0	1	blank2r.bmp	0	1	QYSB	0	1	blank2r.bmp	79	37	pic37.bmp	199	1	whitenoise_No3.bmp	306	0	0	0	0	0	0	0	0	0	0	0	0	0	0	0	0	0	0	0	0	0	0	0	0	0	0	0	0	0	0	0	0	0	0	0	0	0	0	0
121918	10:20:06	10:31:49	702251	5.0.10.0	4_exp_EVA_AMP_AWA_CON	29	Rpleas_acq	Oppo	Lpleas	Amasked	CS_A	2pleas	distractor2	EVAbeforeCON	AMP_CSpleas	AMP1_masked	8	17	0	0	300	300	0	0	724	46	-16,6015625	1	0	0	0	1	blank2r.bmp	0	1	DHJF	0	1	blank2r.bmp	79	89	pic89.bmp	199	1	whitenoise_No3.bmp	306	0	0	0	0	0	0	0	0	0	0	0	0	0	0	0	0	0	0	0	0	0	0	0	0	0	0	0	0	0	0	0	0	0	0	0	0	0	0	0
121918	10:20:06	10:31:51	704437	5.0.10.0	4_exp_EVA_AMP_AWA_CON	29	Rpleas_acq	Oppo	Lpleas	Amasked	CS_A	2pleas	distractor2	EVAbeforeCON	AMP_distractor	AMP1_masked	8	18	0	0	300	300	0	0	1252	46	-16,6015625	0	0	0	0	1	blank2r.bmp	0	1	QYSB	0	1	blank2r.bmp	79	133	pic133.bmp	199	1	whitenoise_No3.bmp	306	0	0	0	0	0	0	0	0	0	0	0	0	0	0	0	0	0	0	0	0	0	0	0	0	0	0	0	0	0	0	0	0	0	0	0	0	0	0	0
121918	10:20:06	10:31:53	706289	5.0.10.0	4_exp_EVA_AMP_AWA_CON	29	Rpleas_acq	Oppo	Lpleas	Amasked	CS_A	2pleas	distractor2	EVAbeforeCON	AMP_CSpleas	AMP1_masked	8	19	0	0	300	300	0	0	942	46	-16,6015625	1	0	0	0	1	blank2r.bmp	0	1	DHJF	0	1	blank2r.bmp	79	15	pic15.bmp	199	1	whitenoise_No3.bmp	306	0	0	0	0	0	0	0	0	0	0	0	0	0	0	0	0	0	0	0	0	0	0	0	0	0	0	0	0	0	0	0	0	0	0	0	0	0	0	0
121918	10:20:06	10:31:54	707968	5.0.10.0	4_exp_EVA_AMP_AWA_CON	29	Rpleas_acq	Oppo	Lpleas	Amasked	CS_A	2pleas	distractor2	EVAbeforeCON	AMP_CSpleas	AMP1_masked	8	20	0	0	300	300	0	0	753	46	-16,6015625	1	0	0	0	1	blank2r.bmp	0	1	DHJF	0	1	blank2r.bmp	79	35	pic35.bmp	199	1	whitenoise_No3.bmp	306	0	0	0	0	0	0	0	0	0	0	0	0	0	0	0	0	0	0	0	0	0	0	0	0	0	0	0	0	0	0	0	0	0	0	0	0	0	0	0
121918	10:20:06	10:31:56	709648	5.0.10.0	4_exp_EVA_AMP_AWA_CON	29	Rpleas_acq	Oppo	Lpleas	Amasked	CS_A	2pleas	distractor2	EVAbeforeCON	AMP_CSunple	AMP1_masked	8	21	0	0	300	300	0	0	762	46	-16,6015625	0	0	0	0	1	blank2r.bmp	0	1	CPLW	0	1	blank2r.bmp	79	126	pic126.bmp	199	1	whitenoise_No3.bmp	306	0	0	0	0	0	0	0	0	0	0	0	0	0	0	0	0	0	0	0	0	0	0	0	0	0	0	0	0	0	0	0	0	0	0	0	0	0	0	0
121918	10:20:06	10:31:58	711820	5.0.10.0	4_exp_EVA_AMP_AWA_CON	29	Rpleas_acq	Oppo	Lpleas	Amasked	CS_A	2pleas	distractor2	EVAbeforeCON	AMP_distractor	AMP1_masked	8	22	0	0	300	300	0	0	1249	46	-16,6015625	0	0	0	0	1	blank2r.bmp	0	1	QYSB	0	1	blank2r.bmp	79	92	pic92.bmp	199	1	whitenoise_No3.bmp	306	0	0	0	0	0	0	0	0	0	0	0	0	0	0	0	0	0	0	0	0	0	0	0	0	0	0	0	0	0	0	0	0	0	0	0	0	0	0	0
121918	10:20:06	10:32:00	713899	5.0.10.0	4_exp_EVA_AMP_AWA_CON	29	Rpleas_acq	Oppo	Lpleas	Amasked	CS_A	2pleas	distractor2	EVAbeforeCON	AMP_CSunple	AMP1_masked	8	23	0	0	300	300	0	0	1153	46	-16,6015625	0	0	0	0	1	blank2r.bmp	0	1	CPLW	0	1	blank2r.bmp	79	107	pic107.bmp	199	1	whitenoise_No3.bmp	306	0	0	0	0	0	0	0	0	0	0	0	0	0	0	0	0	0	0	0	0	0	0	0	0	0	0	0	0	0	0	0	0	0	0	0	0	0	0	0
121918	10:20:06	10:32:02	715592	5.0.10.0	4_exp_EVA_AMP_AWA_CON	29	Rpleas_acq	Oppo	Lpleas	Amasked	CS_A	2pleas	distractor2	EVAbeforeCON	AMP_CSunple	AMP1_masked	8	24	0	0	300	300	0	0	783	50	-16,6015625	1	0	0	0	1	blank2r.bmp	0	1	CPLW	0	1	blank2r.bmp	79	151	pic151.bmp	199	1	whitenoise_No3.bmp	306	0	0	0	0	0	0	0	0	0	0	0	0	0	0	0	0	0	0	0	0	0	0	0	0	0	0	0	0	0	0	0	0	0	0	0	0	0	0	0
121918	10:20:06	10:32:04	717205	5.0.10.0	4_exp_EVA_AMP_AWA_CON	29	Rpleas_acq	Oppo	Lpleas	Amasked	CS_A	2pleas	distractor2	EVAbeforeCON	AMP_distractor	AMP1_masked	8	25	0	0	300	300	0	0	679	46	-16,6015625	0	0	0	0	1	blank2r.bmp	0	1	QYSB	0	1	blank2r.bmp	79	132	pic132.bmp	199	1	whitenoise_No3.bmp	306	0	0	0	0	0	0	0	0	0	0	0	0	0	0	0	0	0	0	0	0	0	0	0	0	0	0	0	0	0	0	0	0	0	0	0	0	0	0	0
121918	10:20:06	10:32:06	719190	5.0.10.0	4_exp_EVA_AMP_AWA_CON	29	Rpleas_acq	Oppo	Lpleas	Amasked	CS_A	2pleas	distractor2	EVAbeforeCON	AMP_distractor	AMP1_masked	8	26	0	0	300	300	0	0	1070	50	-16,6015625	0	0	0	0	1	blank2r.bmp	0	1	QYSB	0	1	blank2r.bmp	79	73	pic73.bmp	199	1	whitenoise_No3.bmp	306	0	0	0	0	0	0	0	0	0	0	0	0	0	0	0	0	0	0	0	0	0	0	0	0	0	0	0	0	0	0	0	0	0	0	0	0	0	0	0
121918	10:20:06	10:32:08	721043	5.0.10.0	4_exp_EVA_AMP_AWA_CON	29	Rpleas_acq	Oppo	Lpleas	Amasked	CS_A	2pleas	distractor2	EVAbeforeCON	AMP_CSunple	AMP1_masked	8	27	0	0	300	300	0	0	940	50	-16,6015625	1	0	0	0	1	blank2r.bmp	0	1	CPLW	0	1	blank2r.bmp	79	75	pic75.bmp	199	1	whitenoise_No3.bmp	306	0	0	0	0	0	0	0	0	0	0	0	0	0	0	0	0	0	0	0	0	0	0	0	0	0	0	0	0	0	0	0	0	0	0	0	0	0	0	0
121918	10:20:06	10:32:10	723962	5.0.10.0	4_exp_EVA_AMP_AWA_CON	29	Rpleas_acq	Oppo	Lpleas	Amasked	CS_A	2pleas	distractor2	EVAbeforeCON	AMP_distractor	AMP1_masked	8	28	0	0	300	300	0	0	2002	50	-16,6015625	0	0	0	0	1	blank2r.bmp	0	1	QYSB	0	1	blank2r.bmp	79	19	pic19.bmp	199	1	whitenoise_No3.bmp	306	0	0	0	0	0	0	0	0	0	0	0	0	0	0	0	0	0	0	0	0	0	0	0	0	0	0	0	0	0	0	0	0	0	0	0	0	0	0	0
121918	10:20:06	10:32:12	725348	5.0.10.0	4_exp_EVA_AMP_AWA_CON	29	Rpleas_acq	Oppo	Lpleas	Amasked	CS_A	2pleas	distractor2	EVAbeforeCON	AMP_CSunple	AMP1_masked	8	29	0	0	300	300	0	0	470	46	-16,6015625	0	0	0	0	1	blank2r.bmp	0	1	CPLW	0	1	blank2r.bmp	79	44	pic44.bmp	199	1	whitenoise_No3.bmp	306	0	0	0	0	0	0	0	0	0	0	0	0	0	0	0	0	0	0	0	0	0	0	0	0	0	0	0	0	0	0	0	0	0	0	0	0	0	0	0
121918	10:20:06	10:32:13	726867	5.0.10.0	4_exp_EVA_AMP_AWA_CON	29	Rpleas_acq	Oppo	Lpleas	Amasked	CS_A	2pleas	distractor2	EVAbeforeCON	AMP_CSpleas	AMP1_masked	8	30	0	0	300	300	0	0	606	46	-16,6015625	1	0	0	0	1	blank2r.bmp	0	1	DHJF	0	1	blank2r.bmp	79	111	pic111.bmp	199	1	whitenoise_No3.bmp	306	0	0	0	0	0	0	0	0	0	0	0	0	0	0	0	0	0	0	0	0	0	0	0	0	0	0	0	0	0	0	0	0	0	0	0	0	0	0	0
121918	10:20:06	10:32:16	729320	5.0.10.0	4_exp_EVA_AMP_AWA_CON	29	Rpleas_acq	Oppo	Lpleas	Amasked	CS_A	2pleas	distractor2	EVAbeforeCON	AMP_CSunple	AMP1_masked	8	31	0	0	300	300	0	0	1525	46	-16,6015625	0	0	0	0	1	blank2r.bmp	0	1	CPLW	0	1	blank2r.bmp	79	118	pic118.bmp	199	1	whitenoise_No3.bmp	306	0	0	0	0	0	0	0	0	0	0	0	0	0	0	0	0	0	0	0	0	0	0	0	0	0	0	0	0	0	0	0	0	0	0	0	0	0	0	0
121918	10:20:06	10:32:17	730972	5.0.10.0	4_exp_EVA_AMP_AWA_CON	29	Rpleas_acq	Oppo	Lpleas	Amasked	CS_A	2pleas	distractor2	EVAbeforeCON	AMP_CSpleas	AMP1_masked	8	32	0	0	300	300	0	0	719	50	-16,6015625	0	0	0	0	1	blank2r.bmp	0	1	DHJF	0	1	blank2r.bmp	79	58	pic58.bmp	199	1	whitenoise_No3.bmp	306	0	0	0	0	0	0	0	0	0	0	0	0	0	0	0	0	0	0	0	0	0	0	0	0	0	0	0	0	0	0	0	0	0	0	0	0	0	0	0
121918	10:20:06	10:32:19	732678	5.0.10.0	4_exp_EVA_AMP_AWA_CON	29	Rpleas_acq	Oppo	Lpleas	Amasked	CS_A	2pleas	distractor2	EVAbeforeCON	AMP_CSpleas	AMP1_masked	8	33	0	0	300	300	0	0	785	46	-16,6015625	1	0	0	0	1	blank2r.bmp	0	1	DHJF	0	1	blank2r.bmp	79	139	pic139.bmp	199	1	whitenoise_No3.bmp	306	0	0	0	0	0	0	0	0	0	0	0	0	0	0	0	0	0	0	0	0	0	0	0	0	0	0	0	0	0	0	0	0	0	0	0	0	0	0	0
121918	10:20:06	10:32:21	734371	5.0.10.0	4_exp_EVA_AMP_AWA_CON	29	Rpleas_acq	Oppo	Lpleas	Amasked	CS_A	2pleas	distractor2	EVAbeforeCON	AMP_CSunple	AMP1_masked	8	34	0	0	300	300	0	0	775	50	-16,6015625	1	0	0	0	1	blank2r.bmp	0	1	CPLW	0	1	blank2r.bmp	79	61	pic61.bmp	199	1	whitenoise_No3.bmp	306	0	0	0	0	0	0	0	0	0	0	0	0	0	0	0	0	0	0	0	0	0	0	0	0	0	0	0	0	0	0	0	0	0	0	0	0	0	0	0
121918	10:20:06	10:32:22	735663	5.0.10.0	4_exp_EVA_AMP_AWA_CON	29	Rpleas_acq	Oppo	Lpleas	Amasked	CS_A	2pleas	distractor2	EVAbeforeCON	AMP_distractor	AMP1_masked	8	35	0	0	300	300	0	0	376	46	-16,6015625	0	0	0	0	1	blank2r.bmp	0	1	QYSB	0	1	blank2r.bmp	79	115	pic115.bmp	199	1	whitenoise_No3.bmp	306	0	0	0	0	0	0	0	0	0	0	0	0	0	0	0	0	0	0	0	0	0	0	0	0	0	0	0	0	0	0	0	0	0	0	0	0	0	0	0
121918	10:20:06	10:32:23	736943	5.0.10.0	4_exp_EVA_AMP_AWA_CON	29	Rpleas_acq	Oppo	Lpleas	Amasked	CS_A	2pleas	distractor2	EVAbeforeCON	AMP_CSunple	AMP1_masked	8	36	0	0	300	300	0	0	367	50	-16,6015625	1	0	0	0	1	blank2r.bmp	0	1	CPLW	0	1	blank2r.bmp	79	85	pic85.bmp	199	1	whitenoise_No3.bmp	306	0	0	0	0	0	0	0	0	0	0	0	0	0	0	0	0	0	0	0	0	0	0	0	0	0	0	0	0	0	0	0	0	0	0	0	0	0	0	0
121918	10:20:06	10:32:25	738169	5.0.10.0	4_exp_EVA_AMP_AWA_CON	29	Rpleas_acq	Oppo	Lpleas	Amasked	CS_A	2pleas	distractor2	EVAbeforeCON	AMP_CSpleas	AMP1_masked	8	37	0	0	300	300	0	0	299	46	-16,6015625	1	0	0	0	1	blank2r.bmp	0	1	DHJF	0	1	blank2r.bmp	79	140	pic140.bmp	199	1	whitenoise_No3.bmp	306	0	0	0	0	0	0	0	0	0	0	0	0	0	0	0	0	0	0	0	0	0	0	0	0	0	0	0	0	0	0	0	0	0	0	0	0	0	0	0
121918	10:20:06	10:32:26	739502	5.0.10.0	4_exp_EVA_AMP_AWA_CON	29	Rpleas_acq	Oppo	Lpleas	Amasked	CS_A	2pleas	distractor2	EVAbeforeCON	AMP_CSunple	AMP1_masked	8	38	0	0	300	300	0	0	403	46	-16,6015625	0	0	0	0	1	blank2r.bmp	0	1	CPLW	0	1	blank2r.bmp	79	51	pic51.bmp	199	1	whitenoise_No3.bmp	306	0	0	0	0	0	0	0	0	0	0	0	0	0	0	0	0	0	0	0	0	0	0	0	0	0	0	0	0	0	0	0	0	0	0	0	0	0	0	0
121918	10:20:06	10:32:28	741088	5.0.10.0	4_exp_EVA_AMP_AWA_CON	29	Rpleas_acq	Oppo	Lpleas	Amasked	CS_A	2pleas	distractor2	EVAbeforeCON	AMP_distractor	AMP1_masked	8	39	0	0	300	300	0	0	677	50	-16,6015625	0	0	0	0	1	blank2r.bmp	0	1	QYSB	0	1	blank2r.bmp	79	55	pic55.bmp	199	1	whitenoise_No3.bmp	306	0	0	0	0	0	0	0	0	0	0	0	0	0	0	0	0	0	0	0	0	0	0	0	0	0	0	0	0	0	0	0	0	0	0	0	0	0	0	0
121918	10:20:06	10:32:29	742581	5.0.10.0	4_exp_EVA_AMP_AWA_CON	29	Rpleas_acq	Oppo	Lpleas	Amasked	CS_A	2pleas	distractor2	EVAbeforeCON	AMP_CSpleas	AMP1_masked	8	40	0	0	300	300	0	0	553	46	-16,6015625	1	0	0	0	1	blank2r.bmp	0	1	DHJF	0	1	blank2r.bmp	79	79	pic79.bmp	199	1	whitenoise_No3.bmp	306	0	0	0	0	0	0	0	0	0	0	0	0	0	0	0	0	0	0	0	0	0	0	0	0	0	0	0	0	0	0	0	0	0	0	0	0	0	0	0
121918	10:20:06	10:32:31	744233	5.0.10.0	4_exp_EVA_AMP_AWA_CON	29	Rpleas_acq	Oppo	Lpleas	Amasked	CS_A	2pleas	distractor2	EVAbeforeCON	AMP_CSunple	AMP1_masked	8	41	0	0	300	300	0	0	719	46	-16,6015625	0	0	0	0	1	blank2r.bmp	0	1	CPLW	0	1	blank2r.bmp	79	80	pic80.bmp	199	1	whitenoise_No3.bmp	306	0	0	0	0	0	0	0	0	0	0	0	0	0	0	0	0	0	0	0	0	0	0	0	0	0	0	0	0	0	0	0	0	0	0	0	0	0	0	0
121918	10:20:06	10:32:32	745819	5.0.10.0	4_exp_EVA_AMP_AWA_CON	29	Rpleas_acq	Oppo	Lpleas	Amasked	CS_A	2pleas	distractor2	EVAbeforeCON	AMP_distractor	AMP1_masked	8	42	0	0	300	300	0	0	669	46	-16,6015625	0	0	0	0	1	blank2r.bmp	0	1	QYSB	0	1	blank2r.bmp	79	65	pic65.bmp	199	1	whitenoise_No3.bmp	306	0	0	0	0	0	0	0	0	0	0	0	0	0	0	0	0	0	0	0	0	0	0	0	0	0	0	0	0	0	0	0	0	0	0	0	0	0	0	0
121918	10:20:06	10:32:34	747299	5.0.10.0	4_exp_EVA_AMP_AWA_CON	29	Rpleas_acq	Oppo	Lpleas	Amasked	CS_A	2pleas	distractor2	EVAbeforeCON	AMP_CSpleas	AMP1_masked	8	43	0	0	300	300	0	0	571	46	-16,6015625	1	0	0	0	1	blank2r.bmp	0	1	DHJF	0	1	blank2r.bmp	79	50	pic50.bmp	199	1	whitenoise_No3.bmp	306	0	0	0	0	0	0	0	0	0	0	0	0	0	0	0	0	0	0	0	0	0	0	0	0	0	0	0	0	0	0	0	0	0	0	0	0	0	0	0
121918	10:20:06	10:32:36	749258	5.0.10.0	4_exp_EVA_AMP_AWA_CON	29	Rpleas_acq	Oppo	Lpleas	Amasked	CS_A	2pleas	distractor2	EVAbeforeCON	AMP_distractor	AMP1_masked	8	44	0	0	300	300	0	0	1036	50	-16,6015625	0	0	0	0	1	blank2r.bmp	0	1	QYSB	0	1	blank2r.bmp	79	83	pic83.bmp	199	1	whitenoise_No3.bmp	306	0	0	0	0	0	0	0	0	0	0	0	0	0	0	0	0	0	0	0	0	0	0	0	0	0	0	0	0	0	0	0	0	0	0	0	0	0	0	0
121918	10:20:06	10:32:37	750577	5.0.10.0	4_exp_EVA_AMP_AWA_CON	29	Rpleas_acq	Oppo	Lpleas	Amasked	CS_A	2pleas	distractor2	EVAbeforeCON	AMP_CSpleas	AMP1_masked	8	45	0	0	300	300	0	0	385	46	-16,6015625	1	0	0	0	1	blank2r.bmp	0	1	DHJF	0	1	blank2r.bmp	79	110	pic110.bmp	199	1	whitenoise_No3.bmp	306	0	0	0	0	0	0	0	0	0	0	0	0	0	0	0	0	0	0	0	0	0	0	0	0	0	0	0	0	0	0	0	0	0	0	0	0	0	0	0
121918	10:20:06	10:32:38	751683	5.0.10.0	4_exp_EVA_AMP_AWA_CON	29	Rpleas_acq	Oppo	Lpleas	Amasked	CS_A	2pleas	distractor2	EVAbeforeCON	AMP_CSpleas	AMP1_masked	8	46	0	0	300	300	0	0	196	46	-16,6015625	1	0	0	0	1	blank2r.bmp	0	1	DHJF	0	1	blank2r.bmp	79	41	pic41.bmp	199	1	whitenoise_No3.bmp	306	0	0	0	0	0	0	0	0	0	0	0	0	0	0	0	0	0	0	0	0	0	0	0	0	0	0	0	0	0	0	0	0	0	0	0	0	0	0	0
121918	10:20:06	10:32:40	753243	5.0.10.0	4_exp_EVA_AMP_AWA_CON	29	Rpleas_acq	Oppo	Lpleas	Amasked	CS_A	2pleas	distractor2	EVAbeforeCON	AMP_CSunple	AMP1_masked	8	47	0	0	300	300	0	0	630	46	-16,6015625	0	0	0	0	1	blank2r.bmp	0	1	CPLW	0	1	blank2r.bmp	79	48	pic48.bmp	199	1	whitenoise_No3.bmp	306	0	0	0	0	0	0	0	0	0	0	0	0	0	0	0	0	0	0	0	0	0	0	0	0	0	0	0	0	0	0	0	0	0	0	0	0	0	0	0
121918	10:20:06	10:32:41	754442	5.0.10.0	4_exp_EVA_AMP_AWA_CON	29	Rpleas_acq	Oppo	Lpleas	Amasked	CS_A	2pleas	distractor2	EVAbeforeCON	AMP_CSpleas	AMP1_masked	8	48	0	0	300	300	0	0	284	46	-16,6015625	1	0	0	0	1	blank2r.bmp	0	1	DHJF	0	1	blank2r.bmp	79	21	pic21.bmp	199	1	whitenoise_No3.bmp	306	0	0	0	0	0	0	0	0	0	0	0	0	0	0	0	0	0	0	0	0	0	0	0	0	0	0	0	0	0	0	0	0	0	0	0	0	0	0	0
121918	10:20:06	10:32:43	756135	5.0.10.0	4_exp_EVA_AMP_AWA_CON	29	Rpleas_acq	Oppo	Lpleas	Amasked	CS_A	2pleas	distractor2	EVAbeforeCON	AMP_CSunple	AMP1_masked	8	49	0	0	300	300	0	0	783	46	-16,6015625	0	0	0	0	1	blank2r.bmp	0	1	CPLW	0	1	blank2r.bmp	79	63	pic63.bmp	199	1	whitenoise_No3.bmp	306	0	0	0	0	0	0	0	0	0	0	0	0	0	0	0	0	0	0	0	0	0	0	0	0	0	0	0	0	0	0	0	0	0	0	0	0	0	0	0
121918	10:20:06	10:32:44	757748	5.0.10.0	4_exp_EVA_AMP_AWA_CON	29	Rpleas_acq	Oppo	Lpleas	Amasked	CS_A	2pleas	distractor2	EVAbeforeCON	AMP_CSpleas	AMP1_masked	8	50	0	0	300	300	0	0	687	50	-16,6015625	0	0	0	0	1	blank2r.bmp	0	1	DHJF	0	1	blank2r.bmp	79	101	pic101.bmp	199	1	whitenoise_No3.bmp	306	0	0	0	0	0	0	0	0	0	0	0	0	0	0	0	0	0	0	0	0	0	0	0	0	0	0	0	0	0	0	0	0	0	0	0	0	0	0	0
121918	10:20:06	10:32:46	759067	5.0.10.0	4_exp_EVA_AMP_AWA_CON	29	Rpleas_acq	Oppo	Lpleas	Amasked	CS_A	2pleas	distractor2	EVAbeforeCON	AMP_CSunple	AMP1_masked	8	51	0	0	300	300	0	0	403	46	-16,6015625	0	0	0	0	1	blank2r.bmp	0	1	CPLW	0	1	blank2r.bmp	79	142	pic142.bmp	199	1	whitenoise_No3.bmp	306	0	0	0	0	0	0	0	0	0	0	0	0	0	0	0	0	0	0	0	0	0	0	0	0	0	0	0	0	0	0	0	0	0	0	0	0	0	0	0
121918	10:20:06	10:32:58	771155	5.0.10.0	4_exp_EVA_AMP_AWA_CON	29	Rpleas_acq	Oppo	Lpleas	Amasked	CS_A	2pleas	distractor2	EVAbeforeCON	AMP_CSpleas	AMP23	9	1	0	0	300	300	0	0	3177	46	-16,6015625	1	0	0	0	1	blank2r.bmp	0	1	DHJF	0	1	blank2r.bmp	79	76	pic76.bmp	199	1	whitenoise_No3.bmp	306	0	0	0	0	0	0	0	0	0	0	0	0	0	0	0	0	0	0	0	0	0	0	0	0	0	0	0	0	0	0	0	0	0	0	0	0	0	0	0
121918	10:20:06	10:33:01	774221	5.0.10.0	4_exp_EVA_AMP_AWA_CON	29	Rpleas_acq	Oppo	Lpleas	Amasked	CS_A	2pleas	distractor2	EVAbeforeCON	AMP_CSpleas	AMP23	9	2	0	0	300	300	0	0	2143	46	-16,6015625	1	0	0	0	1	blank2r.bmp	0	1	DHJF	0	1	blank2r.bmp	79	137	pic137.bmp	199	1	whitenoise_No3.bmp	306	0	0	0	0	0	0	0	0	0	0	0	0	0	0	0	0	0	0	0	0	0	0	0	0	0	0	0	0	0	0	0	0	0	0	0	0	0	0	0
121918	10:20:06	10:33:02	775820	5.0.10.0	4_exp_EVA_AMP_AWA_CON	29	Rpleas_acq	Oppo	Lpleas	Amasked	CS_A	2pleas	distractor2	EVAbeforeCON	AMP_distractor	AMP23	9	3	0	0	300	300	0	0	683	46	-16,6015625	0	0	0	0	1	blank2r.bmp	0	1	QYSB	0	1	blank2r.bmp	79	18	pic18.bmp	199	1	whitenoise_No3.bmp	306	0	0	0	0	0	0	0	0	0	0	0	0	0	0	0	0	0	0	0	0	0	0	0	0	0	0	0	0	0	0	0	0	0	0	0	0	0	0	0
121918	10:20:06	10:33:04	777433	5.0.10.0	4_exp_EVA_AMP_AWA_CON	29	Rpleas_acq	Oppo	Lpleas	Amasked	CS_A	2pleas	distractor2	EVAbeforeCON	AMP_CSpleas	AMP23	9	4	0	0	300	300	0	0	699	46	-16,6015625	1	0	0	0	1	blank2r.bmp	0	1	DHJF	0	1	blank2r.bmp	79	136	pic136.bmp	199	1	whitenoise_No3.bmp	306	0	0	0	0	0	0	0	0	0	0	0	0	0	0	0	0	0	0	0	0	0	0	0	0	0	0	0	0	0	0	0	0	0	0	0	0	0	0	0
121918	10:20:06	10:33:05	778739	5.0.10.0	4_exp_EVA_AMP_AWA_CON	29	Rpleas_acq	Oppo	Lpleas	Amasked	CS_A	2pleas	distractor2	EVAbeforeCON	AMP_CSunple	AMP23	9	5	0	0	300	300	0	0	374	50	-16,6015625	1	0	0	0	1	blank2r.bmp	0	1	CPLW	0	1	blank2r.bmp	79	34	pic34.bmp	199	1	whitenoise_No3.bmp	306	0	0	0	0	0	0	0	0	0	0	0	0	0	0	0	0	0	0	0	0	0	0	0	0	0	0	0	0	0	0	0	0	0	0	0	0	0	0	0
121918	10:20:06	10:33:07	780391	5.0.10.0	4_exp_EVA_AMP_AWA_CON	29	Rpleas_acq	Oppo	Lpleas	Amasked	CS_A	2pleas	distractor2	EVAbeforeCON	AMP_CSunple	AMP23	9	6	0	0	300	300	0	0	736	46	-16,6015625	0	0	0	0	1	blank2r.bmp	0	1	CPLW	0	1	blank2r.bmp	79	146	pic146.bmp	199	1	whitenoise_No3.bmp	306	0	0	0	0	0	0	0	0	0	0	0	0	0	0	0	0	0	0	0	0	0	0	0	0	0	0	0	0	0	0	0	0	0	0	0	0	0	0	0
121918	10:20:06	10:33:08	781817	5.0.10.0	4_exp_EVA_AMP_AWA_CON	29	Rpleas_acq	Oppo	Lpleas	Amasked	CS_A	2pleas	distractor2	EVAbeforeCON	AMP_CSunple	AMP23	9	7	0	0	300	300	0	0	517	50	-16,6015625	1	0	0	0	1	blank2r.bmp	0	1	CPLW	0	1	blank2r.bmp	79	33	pic33.bmp	199	1	whitenoise_No3.bmp	306	0	0	0	0	0	0	0	0	0	0	0	0	0	0	0	0	0	0	0	0	0	0	0	0	0	0	0	0	0	0	0	0	0	0	0	0	0	0	0
121918	10:20:06	10:33:10	783190	5.0.10.0	4_exp_EVA_AMP_AWA_CON	29	Rpleas_acq	Oppo	Lpleas	Amasked	CS_A	2pleas	distractor2	EVAbeforeCON	AMP_CSpleas	AMP23	9	8	0	0	300	300	0	0	441	46	-16,6015625	1	0	0	0	1	blank2r.bmp	0	1	DHJF	0	1	blank2r.bmp	79	66	pic66.bmp	199	1	whitenoise_No3.bmp	306	0	0	0	0	0	0	0	0	0	0	0	0	0	0	0	0	0	0	0	0	0	0	0	0	0	0	0	0	0	0	0	0	0	0	0	0	0	0	0
121918	10:20:06	10:33:11	784936	5.0.10.0	4_exp_EVA_AMP_AWA_CON	29	Rpleas_acq	Oppo	Lpleas	Amasked	CS_A	2pleas	distractor2	EVAbeforeCON	AMP_CSunple	AMP23	9	9	0	0	300	300	0	0	813	50	-16,6015625	1	0	0	0	1	blank2r.bmp	0	1	CPLW	0	1	blank2r.bmp	79	68	pic68.bmp	199	1	whitenoise_No3.bmp	306	0	0	0	0	0	0	0	0	0	0	0	0	0	0	0	0	0	0	0	0	0	0	0	0	0	0	0	0	0	0	0	0	0	0	0	0	0	0	0
121918	10:20:06	10:33:13	786349	5.0.10.0	4_exp_EVA_AMP_AWA_CON	29	Rpleas_acq	Oppo	Lpleas	Amasked	CS_A	2pleas	distractor2	EVAbeforeCON	AMP_distractor	AMP23	9	10	0	0	300	300	0	0	481	46	-16,6015625	0	0	0	0	1	blank2r.bmp	0	1	QYSB	0	1	blank2r.bmp	79	90	pic90.bmp	199	1	whitenoise_No3.bmp	306	0	0	0	0	0	0	0	0	0	0	0	0	0	0	0	0	0	0	0	0	0	0	0	0	0	0	0	0	0	0	0	0	0	0	0	0	0	0	0
121918	10:20:06	10:33:14	787988	5.0.10.0	4_exp_EVA_AMP_AWA_CON	29	Rpleas_acq	Oppo	Lpleas	Amasked	CS_A	2pleas	distractor2	EVAbeforeCON	AMP_distractor	AMP23	9	11	0	0	300	300	0	0	718	46	-16,6015625	0	0	0	0	1	blank2r.bmp	0	1	QYSB	0	1	blank2r.bmp	79	10	pic10.bmp	199	1	whitenoise_No3.bmp	306	0	0	0	0	0	0	0	0	0	0	0	0	0	0	0	0	0	0	0	0	0	0	0	0	0	0	0	0	0	0	0	0	0	0	0	0	0	0	0
121918	10:20:06	10:33:16	789414	5.0.10.0	4_exp_EVA_AMP_AWA_CON	29	Rpleas_acq	Oppo	Lpleas	Amasked	CS_A	2pleas	distractor2	EVAbeforeCON	AMP_distractor	AMP23	9	12	0	0	300	300	0	0	516	46	-16,6015625	0	0	0	0	1	blank2r.bmp	0	1	QYSB	0	1	blank2r.bmp	79	3	pic3.bmp	199	1	whitenoise_No3.bmp	306	0	0	0	0	0	0	0	0	0	0	0	0	0	0	0	0	0	0	0	0	0	0	0	0	0	0	0	0	0	0	0	0	0	0	0	0	0	0	0
121918	10:20:06	10:33:18	791240	5.0.10.0	4_exp_EVA_AMP_AWA_CON	29	Rpleas_acq	Oppo	Lpleas	Amasked	CS_A	2pleas	distractor2	EVAbeforeCON	AMP_CSunple	AMP23	9	13	0	0	300	300	0	0	904	46	-16,6015625	0	0	0	0	1	blank2r.bmp	0	1	CPLW	0	1	blank2r.bmp	79	95	pic95.bmp	199	1	whitenoise_No3.bmp	306	0	0	0	0	0	0	0	0	0	0	0	0	0	0	0	0	0	0	0	0	0	0	0	0	0	0	0	0	0	0	0	0	0	0	0	0	0	0	0
121918	10:20:06	10:33:19	792493	5.0.10.0	4_exp_EVA_AMP_AWA_CON	29	Rpleas_acq	Oppo	Lpleas	Amasked	CS_A	2pleas	distractor2	EVAbeforeCON	AMP_distractor	AMP23	9	14	0	0	300	300	0	0	340	50	-16,6015625	0	0	0	0	1	blank2r.bmp	0	1	QYSB	0	1	blank2r.bmp	79	12	pic12.bmp	199	1	whitenoise_No3.bmp	306	0	0	0	0	0	0	0	0	0	0	0	0	0	0	0	0	0	0	0	0	0	0	0	0	0	0	0	0	0	0	0	0	0	0	0	0	0	0	0
121918	10:20:06	10:33:20	793732	5.0.10.0	4_exp_EVA_AMP_AWA_CON	29	Rpleas_acq	Oppo	Lpleas	Amasked	CS_A	2pleas	distractor2	EVAbeforeCON	AMP_CSpleas	AMP23	9	15	0	0	300	300	0	0	323	46	-16,6015625	1	0	0	0	1	blank2r.bmp	0	1	DHJF	0	1	blank2r.bmp	79	74	pic74.bmp	199	1	whitenoise_No3.bmp	306	0	0	0	0	0	0	0	0	0	0	0	0	0	0	0	0	0	0	0	0	0	0	0	0	0	0	0	0	0	0	0	0	0	0	0	0	0	0	0
121918	10:20:06	10:33:22	795318	5.0.10.0	4_exp_EVA_AMP_AWA_CON	29	Rpleas_acq	Oppo	Lpleas	Amasked	CS_A	2pleas	distractor2	EVAbeforeCON	AMP_CSpleas	AMP23	9	16	0	0	300	300	0	0	661	46	-16,6015625	1	0	0	0	1	blank2r.bmp	0	1	DHJF	0	1	blank2r.bmp	79	4	pic4.bmp	199	1	whitenoise_No3.bmp	306	0	0	0	0	0	0	0	0	0	0	0	0	0	0	0	0	0	0	0	0	0	0	0	0	0	0	0	0	0	0	0	0	0	0	0	0	0	0	0
121918	10:20:06	10:33:24	797331	5.0.10.0	4_exp_EVA_AMP_AWA_CON	29	Rpleas_acq	Oppo	Lpleas	Amasked	CS_A	2pleas	distractor2	EVAbeforeCON	AMP_CSunple	AMP23	9	17	0	0	300	300	0	0	1084	50	-16,6015625	1	0	0	0	1	blank2r.bmp	0	1	CPLW	0	1	blank2r.bmp	79	54	pic54.bmp	199	1	whitenoise_No3.bmp	306	0	0	0	0	0	0	0	0	0	0	0	0	0	0	0	0	0	0	0	0	0	0	0	0	0	0	0	0	0	0	0	0	0	0	0	0	0	0	0
121918	10:20:06	10:33:25	798717	5.0.10.0	4_exp_EVA_AMP_AWA_CON	29	Rpleas_acq	Oppo	Lpleas	Amasked	CS_A	2pleas	distractor2	EVAbeforeCON	AMP_CSpleas	AMP23	9	18	0	0	300	300	0	0	476	46	-16,6015625	1	0	0	0	1	blank2r.bmp	0	1	DHJF	0	1	blank2r.bmp	79	17	pic17.bmp	199	1	whitenoise_No3.bmp	306	0	0	0	0	0	0	0	0	0	0	0	0	0	0	0	0	0	0	0	0	0	0	0	0	0	0	0	0	0	0	0	0	0	0	0	0	0	0	0
121918	10:20:06	10:33:27	800103	5.0.10.0	4_exp_EVA_AMP_AWA_CON	29	Rpleas_acq	Oppo	Lpleas	Amasked	CS_A	2pleas	distractor2	EVAbeforeCON	AMP_distractor	AMP23	9	19	0	0	300	300	0	0	456	46	-16,6015625	0	0	0	0	1	blank2r.bmp	0	1	QYSB	0	1	blank2r.bmp	79	135	pic135.bmp	199	1	whitenoise_No3.bmp	306	0	0	0	0	0	0	0	0	0	0	0	0	0	0	0	0	0	0	0	0	0	0	0	0	0	0	0	0	0	0	0	0	0	0	0	0	0	0	0
121918	10:20:06	10:33:28	801489	5.0.10.0	4_exp_EVA_AMP_AWA_CON	29	Rpleas_acq	Oppo	Lpleas	Amasked	CS_A	2pleas	distractor2	EVAbeforeCON	AMP_CSunple	AMP23	9	20	0	0	300	300	0	0	477	50	-16,6015625	1	0	0	0	1	blank2r.bmp	0	1	CPLW	0	1	blank2r.bmp	79	130	pic130.bmp	199	1	whitenoise_No3.bmp	306	0	0	0	0	0	0	0	0	0	0	0	0	0	0	0	0	0	0	0	0	0	0	0	0	0	0	0	0	0	0	0	0	0	0	0	0	0	0	0
121918	10:20:06	10:33:29	802875	5.0.10.0	4_exp_EVA_AMP_AWA_CON	29	Rpleas_acq	Oppo	Lpleas	Amasked	CS_A	2pleas	distractor2	EVAbeforeCON	AMP_CSpleas	AMP23	9	21	0	0	300	300	0	0	469	46	-16,6015625	1	0	0	0	1	blank2r.bmp	0	1	DHJF	0	1	blank2r.bmp	79	60	pic60.bmp	199	1	whitenoise_No3.bmp	306	0	0	0	0	0	0	0	0	0	0	0	0	0	0	0	0	0	0	0	0	0	0	0	0	0	0	0	0	0	0	0	0	0	0	0	0	0	0	0
121918	10:20:06	10:33:31	804275	5.0.10.0	4_exp_EVA_AMP_AWA_CON	29	Rpleas_acq	Oppo	Lpleas	Amasked	CS_A	2pleas	distractor2	EVAbeforeCON	AMP_CSunple	AMP23	9	22	0	0	300	300	0	0	471	46	-16,6015625	0	0	0	0	1	blank2r.bmp	0	1	CPLW	0	1	blank2r.bmp	79	109	pic109.bmp	199	1	whitenoise_No3.bmp	306	0	0	0	0	0	0	0	0	0	0	0	0	0	0	0	0	0	0	0	0	0	0	0	0	0	0	0	0	0	0	0	0	0	0	0	0	0	0	0
121918	10:20:06	10:33:32	805861	5.0.10.0	4_exp_EVA_AMP_AWA_CON	29	Rpleas_acq	Oppo	Lpleas	Amasked	CS_A	2pleas	distractor2	EVAbeforeCON	AMP_distractor	AMP23	9	23	0	0	300	300	0	0	658	50	-16,6015625	0	0	0	0	1	blank2r.bmp	0	1	QYSB	0	1	blank2r.bmp	79	93	pic93.bmp	199	1	whitenoise_No3.bmp	306	0	0	0	0	0	0	0	0	0	0	0	0	0	0	0	0	0	0	0	0	0	0	0	0	0	0	0	0	0	0	0	0	0	0	0	0	0	0	0
121918	10:20:06	10:33:34	807633	5.0.10.0	4_exp_EVA_AMP_AWA_CON	29	Rpleas_acq	Oppo	Lpleas	Amasked	CS_A	2pleas	distractor2	EVAbeforeCON	AMP_CSunple	AMP23	9	24	0	0	300	300	0	0	856	46	-16,6015625	0	0	0	0	1	blank2r.bmp	0	1	CPLW	0	1	blank2r.bmp	79	6	pic6.bmp	199	1	whitenoise_No3.bmp	306	0	0	0	0	0	0	0	0	0	0	0	0	0	0	0	0	0	0	0	0	0	0	0	0	0	0	0	0	0	0	0	0	0	0	0	0	0	0	0
121918	10:20:06	10:33:36	809086	5.0.10.0	4_exp_EVA_AMP_AWA_CON	29	Rpleas_acq	Oppo	Lpleas	Amasked	CS_A	2pleas	distractor2	EVAbeforeCON	AMP_distractor	AMP23	9	25	0	0	300	300	0	0	530	50	-16,6015625	0	0	0	0	1	blank2r.bmp	0	1	QYSB	0	1	blank2r.bmp	79	14	pic14.bmp	199	1	whitenoise_No3.bmp	306	0	0	0	0	0	0	0	0	0	0	0	0	0	0	0	0	0	0	0	0	0	0	0	0	0	0	0	0	0	0	0	0	0	0	0	0	0	0	0
121918	10:20:06	10:33:37	810259	5.0.10.0	4_exp_EVA_AMP_AWA_CON	29	Rpleas_acq	Oppo	Lpleas	Amasked	CS_A	2pleas	distractor2	EVAbeforeCON	AMP_CSpleas	AMP23	9	26	0	0	300	300	0	0	242	46	-16,6015625	1	0	0	0	1	blank2r.bmp	0	1	DHJF	0	1	blank2r.bmp	79	152	pic152.bmp	199	1	whitenoise_No3.bmp	306	0	0	0	0	0	0	0	0	0	0	0	0	0	0	0	0	0	0	0	0	0	0	0	0	0	0	0	0	0	0	0	0	0	0	0	0	0	0	0
121918	10:20:06	10:33:38	811405	5.0.10.0	4_exp_EVA_AMP_AWA_CON	29	Rpleas_acq	Oppo	Lpleas	Amasked	CS_A	2pleas	distractor2	EVAbeforeCON	AMP_CSpleas	AMP23	9	27	0	0	300	300	0	0	232	46	-16,6015625	1	0	0	0	1	blank2r.bmp	0	1	DHJF	0	1	blank2r.bmp	79	150	pic150.bmp	199	1	whitenoise_No3.bmp	306	0	0	0	0	0	0	0	0	0	0	0	0	0	0	0	0	0	0	0	0	0	0	0	0	0	0	0	0	0	0	0	0	0	0	0	0	0	0	0
