date	time	script.currenttime	script.elapsedtime	build	script.currentexpt	subject	expressions.LRpleas_acq	expressions.SameOppo	expressions.condition_Lpleas	expressions.ABmasked	expressions.conditionCS_A	expressions.condition_1pleas	expressions.condition_distractor_AMP	expressions.AWACON_AMPEVA_first	trialcode	blockcode	blocknum	trialnum	windowcenter	inwindow	pretrialpause	posttrialpause	trialduration	trialtimeout	latency	response	expressions.correctedscore	correct	values.vis_performance	values.vis_rating_sum	values.vis_rating_mean	stimulusnumber1	stimulusitem1	stimulusonset1	stimulusnumber2	stimulusitem2	stimulusonset2	stimulusnumber3	stimulusitem3	stimulusonset3	stimulusnumber4	stimulusitem4	stimulusonset4	stimulusnumber5	stimulusitem5	stimulusonset5	stimulusnumber6	stimulusitem6	stimulusonset6	stimulusnumber7	stimulusitem7	stimulusonset7	stimulusnumber8	stimulusitem8	stimulusonset8	stimulusnumber9	stimulusitem9	stimulusonset9	stimulusnumber10	stimulusitem10	stimulusonset10	stimulusnumber11	stimulusitem11	stimulusonset11	stimulusnumber12	stimulusitem12	stimulusonset12	stimulusnumber13	stimulusitem13	stimulusonset13	stimulusnumber14	stimulusitem14	stimulusonset14	stimulusnumber15	stimulusitem15	stimulusonset15	stimulusnumber16	stimulusitem16	stimulusonset16	stimulusnumber17	stimulusitem17	stimulusonset17	stimulusnumber18	stimulusitem18	stimulusonset18
032619	10:23:25	10:25:25	119417	5.0.10.0	4_exp_EVA_AMP_AWA_CON	178	Rpleas_acq	Same	Rpleas	Bmasked	CS_B	1pleas	distractor1	EVAbeforeCON	acq_new_unple_masked	acq1_masked	1	1	0	0	300	300	0	0	1406	46	0	1	0	0	0	1	blank2r.bmp	0	1	+	0	4	B4r.bmp	492	1	blank2r.bmp	786	2	B2r.bmp	786	1	blank2r.bmp	866	5	schroff	866	0	0	0	0	0	0	0	0	0	0	0	0	0	0	0	0	0	0	0	0	0	0	0	0	0	0	0	0	0	0	0	0	0
032619	10:23:25	10:25:27	121882	5.0.10.0	4_exp_EVA_AMP_AWA_CON	178	Rpleas_acq	Same	Rpleas	Bmasked	CS_B	1pleas	distractor1	EVAbeforeCON	acq_new_pleas_masked	acq1_masked	1	2	0	0	300	300	0	0	994	50	0	1	0	0	0	1	blank2r.bmp	0	1	+	0	6	C2r.bmp	492	1	blank2r.bmp	786	5	C1r.bmp	786	1	blank2r.bmp	866	2	fair	866	0	0	0	0	0	0	0	0	0	0	0	0	0	0	0	0	0	0	0	0	0	0	0	0	0	0	0	0	0	0	0	0	0
032619	10:23:25	10:25:30	124028	5.0.10.0	4_exp_EVA_AMP_AWA_CON	178	Rpleas_acq	Same	Rpleas	Bmasked	CS_B	1pleas	distractor1	EVAbeforeCON	acq_new_pleas_masked	acq1_masked	1	3	0	0	300	300	0	0	661	50	0	1	0	0	0	1	blank2r.bmp	0	1	+	0	3	B3r.bmp	492	1	blank2r.bmp	786	7	C3r.bmp	786	1	blank2r.bmp	866	1	lachen	866	0	0	0	0	0	0	0	0	0	0	0	0	0	0	0	0	0	0	0	0	0	0	0	0	0	0	0	0	0	0	0	0	0
032619	10:23:25	10:25:32	126121	5.0.10.0	4_exp_EVA_AMP_AWA_CON	178	Rpleas_acq	Same	Rpleas	Bmasked	CS_B	2pleas	distractor1	EVAbeforeCON	acq_US_unple_masked	acq1_masked	1	4	0	0	300	300	0	0	604	46	0	1	0	0	0	1	blank2r.bmp	0	1	+	0	5	C1r.bmp	492	1	blank2r.bmp	786	1	BMVZ	786	1	blank2r.bmp	866	1	tyrannisch	866	0	0	0	0	0	0	0	0	0	0	0	0	0	0	0	0	0	0	0	0	0	0	0	0	0	0	0	0	0	0	0	0	0
032619	10:23:25	10:25:34	128426	5.0.10.0	4_exp_EVA_AMP_AWA_CON	178	Rpleas_acq	Same	Rpleas	Bmasked	CS_B	2pleas	distractor1	EVAbeforeCON	acq_new_pleas_masked	acq1_masked	1	5	0	0	300	300	0	0	833	50	0	1	0	0	0	1	blank2r.bmp	0	1	+	0	8	C4r.bmp	492	1	blank2r.bmp	786	1	B1r.bmp	786	1	blank2r.bmp	866	4	helfen	866	0	0	0	0	0	0	0	0	0	0	0	0	0	0	0	0	0	0	0	0	0	0	0	0	0	0	0	0	0	0	0	0	0
032619	10:23:25	10:25:37	131039	5.0.10.0	4_exp_EVA_AMP_AWA_CON	178	Rpleas_acq	Same	Rpleas	Bmasked	CS_B	2pleas	distractor1	EVAbeforeCON	acq_new_unple_masked	acq1_masked	1	6	0	0	300	300	0	0	912	50	0	0	0	0	0	1	blank2r.bmp	0	1	+	0	1	B1r.bmp	492	1	blank2r.bmp	786	6	C2r.bmp	786	1	blank2r.bmp	866	6	eitel	866	1	FEHLER	1812	0	0	0	0	0	0	0	0	0	0	0	0	0	0	0	0	0	0	0	0	0	0	0	0	0	0	0	0	0	0
032619	10:23:25	10:25:38	132945	5.0.10.0	4_exp_EVA_AMP_AWA_CON	178	Rpleas_acq	Same	Rpleas	Bmasked	CS_B	2pleas	distractor1	EVAbeforeCON	acq_US_pleas_masked	acq1_masked	1	7	0	0	300	300	0	0	626	50	0	1	0	0	0	1	blank2r.bmp	0	1	+	0	2	B2r.bmp	492	1	blank2r.bmp	786	1	GKQX	786	1	blank2r.bmp	866	2	schön	866	0	0	0	0	0	0	0	0	0	0	0	0	0	0	0	0	0	0	0	0	0	0	0	0	0	0	0	0	0	0	0	0	0
032619	10:23:25	10:25:41	135344	5.0.10.0	4_exp_EVA_AMP_AWA_CON	178	Rpleas_acq	Same	Rpleas	Bmasked	CS_B	2pleas	distractor1	EVAbeforeCON	acq_US_pleas_masked	acq1_masked	1	8	0	0	300	300	0	0	922	50	0	1	0	0	0	1	blank2r.bmp	0	1	+	0	7	C3r.bmp	492	1	blank2r.bmp	786	1	GKQX	786	1	blank2r.bmp	866	6	treu	866	0	0	0	0	0	0	0	0	0	0	0	0	0	0	0	0	0	0	0	0	0	0	0	0	0	0	0	0	0	0	0	0	0
032619	10:23:25	10:25:43	137423	5.0.10.0	4_exp_EVA_AMP_AWA_CON	178	Rpleas_acq	Same	Rpleas	Bmasked	CS_B	2pleas	distractor1	EVAbeforeCON	acq_US_unple_masked	acq1_masked	1	9	0	0	300	300	0	0	610	46	0	1	0	0	0	1	blank2r.bmp	0	1	+	0	7	C3r.bmp	492	1	blank2r.bmp	786	1	BMVZ	786	1	blank2r.bmp	866	4	lasch	866	0	0	0	0	0	0	0	0	0	0	0	0	0	0	0	0	0	0	0	0	0	0	0	0	0	0	0	0	0	0	0	0	0
032619	10:23:25	10:25:45	139542	5.0.10.0	4_exp_EVA_AMP_AWA_CON	178	Rpleas_acq	Same	Rpleas	Bmasked	CS_B	2pleas	distractor1	EVAbeforeCON	acq_US_unple_masked	acq1_masked	1	10	0	0	300	300	0	0	627	46	0	1	0	0	0	1	blank2r.bmp	0	1	+	0	2	B2r.bmp	492	1	blank2r.bmp	786	1	BMVZ	786	1	blank2r.bmp	866	3	strafen	866	0	0	0	0	0	0	0	0	0	0	0	0	0	0	0	0	0	0	0	0	0	0	0	0	0	0	0	0	0	0	0	0	0
032619	10:23:25	10:25:47	141754	5.0.10.0	4_exp_EVA_AMP_AWA_CON	178	Rpleas_acq	Same	Rpleas	Bmasked	CS_B	2pleas	distractor1	EVAbeforeCON	acq_new_unple_masked	acq1_masked	1	11	0	0	300	300	0	0	733	46	0	1	0	0	0	1	blank2r.bmp	0	1	+	0	5	C1r.bmp	492	1	blank2r.bmp	786	8	C4r.bmp	786	1	blank2r.bmp	866	1	leiden	866	0	0	0	0	0	0	0	0	0	0	0	0	0	0	0	0	0	0	0	0	0	0	0	0	0	0	0	0	0	0	0	0	0
032619	10:23:25	10:25:49	143953	5.0.10.0	4_exp_EVA_AMP_AWA_CON	178	Rpleas_acq	Same	Rpleas	Bmasked	CS_B	2pleas	distractor1	EVAbeforeCON	acq_US_pleas_masked	acq1_masked	1	12	0	0	300	300	0	0	723	50	0	1	0	0	0	1	blank2r.bmp	0	1	+	0	4	B4r.bmp	492	1	blank2r.bmp	786	1	GKQX	786	1	blank2r.bmp	866	3	spielen	866	0	0	0	0	0	0	0	0	0	0	0	0	0	0	0	0	0	0	0	0	0	0	0	0	0	0	0	0	0	0	0	0	0
032619	10:23:25	10:25:52	146046	5.0.10.0	4_exp_EVA_AMP_AWA_CON	178	Rpleas_acq	Same	Rpleas	Bmasked	CS_B	2pleas	distractor1	EVAbeforeCON	acq_new_unple_masked	acq1_masked	1	13	0	0	300	300	0	0	615	46	0	1	0	0	0	1	blank2r.bmp	0	1	+	0	8	C4r.bmp	492	1	blank2r.bmp	786	4	B4r.bmp	786	1	blank2r.bmp	866	4	hindern	866	0	0	0	0	0	0	0	0	0	0	0	0	0	0	0	0	0	0	0	0	0	0	0	0	0	0	0	0	0	0	0	0	0
032619	10:23:25	10:25:54	148072	5.0.10.0	4_exp_EVA_AMP_AWA_CON	178	Rpleas_acq	Same	Rpleas	Bmasked	CS_B	2pleas	distractor1	EVAbeforeCON	acq_US_unple_masked	acq1_masked	1	14	0	0	300	300	0	0	556	46	0	1	0	0	0	1	blank2r.bmp	0	1	+	0	3	B3r.bmp	492	1	blank2r.bmp	786	1	BMVZ	786	1	blank2r.bmp	866	5	rächen	866	0	0	0	0	0	0	0	0	0	0	0	0	0	0	0	0	0	0	0	0	0	0	0	0	0	0	0	0	0	0	0	0	0
032619	10:23:25	10:25:56	150204	5.0.10.0	4_exp_EVA_AMP_AWA_CON	178	Rpleas_acq	Same	Rpleas	Bmasked	CS_B	2pleas	distractor1	EVAbeforeCON	acq_new_pleas_masked	acq1_masked	1	15	0	0	300	300	0	0	629	50	0	1	0	0	0	1	blank2r.bmp	0	1	+	0	1	B1r.bmp	492	1	blank2r.bmp	786	3	B3r.bmp	786	1	blank2r.bmp	866	3	freundlich	866	0	0	0	0	0	0	0	0	0	0	0	0	0	0	0	0	0	0	0	0	0	0	0	0	0	0	0	0	0	0	0	0	0
032619	10:23:25	10:25:58	152323	5.0.10.0	4_exp_EVA_AMP_AWA_CON	178	Rpleas_acq	Same	Rpleas	Bmasked	CS_B	2pleas	distractor1	EVAbeforeCON	acq_US_unple_masked	acq1_masked	1	16	0	0	300	300	0	0	636	46	0	1	0	0	0	1	blank2r.bmp	0	1	+	0	6	C2r.bmp	492	1	blank2r.bmp	786	1	BMVZ	786	1	blank2r.bmp	866	2	schlecht	866	0	0	0	0	0	0	0	0	0	0	0	0	0	0	0	0	0	0	0	0	0	0	0	0	0	0	0	0	0	0	0	0	0
032619	10:23:25	10:26:00	154536	5.0.10.0	4_exp_EVA_AMP_AWA_CON	178	Rpleas_acq	Same	Rpleas	Bmasked	CS_B	2pleas	distractor1	EVAbeforeCON	acq_US_pleas_masked	acq1_masked	1	17	0	0	300	300	0	0	725	50	0	1	0	0	0	1	blank2r.bmp	0	1	+	0	5	C1r.bmp	492	1	blank2r.bmp	786	1	GKQX	786	1	blank2r.bmp	866	4	loyal	866	0	0	0	0	0	0	0	0	0	0	0	0	0	0	0	0	0	0	0	0	0	0	0	0	0	0	0	0	0	0	0	0	0
032619	10:23:25	10:26:02	156708	5.0.10.0	4_exp_EVA_AMP_AWA_CON	178	Rpleas_acq	Same	Rpleas	Bmasked	CS_B	2pleas	distractor1	EVAbeforeCON	acq_US_pleas_masked	acq1_masked	1	18	0	0	300	300	0	0	681	50	0	1	0	0	0	1	blank2r.bmp	0	1	+	0	1	B1r.bmp	492	1	blank2r.bmp	786	1	GKQX	786	1	blank2r.bmp	866	1	tolerant	866	0	0	0	0	0	0	0	0	0	0	0	0	0	0	0	0	0	0	0	0	0	0	0	0	0	0	0	0	0	0	0	0	0
032619	10:23:25	10:26:04	158827	5.0.10.0	4_exp_EVA_AMP_AWA_CON	178	Rpleas_acq	Same	Rpleas	Bmasked	CS_B	2pleas	distractor1	EVAbeforeCON	acq_US_unple_masked	acq1_masked	1	19	0	0	300	300	0	0	630	46	0	1	0	0	0	1	blank2r.bmp	0	1	+	0	4	B4r.bmp	492	1	blank2r.bmp	786	1	BMVZ	786	1	blank2r.bmp	866	6	tot	866	0	0	0	0	0	0	0	0	0	0	0	0	0	0	0	0	0	0	0	0	0	0	0	0	0	0	0	0	0	0	0	0	0
032619	10:23:25	10:26:06	160920	5.0.10.0	4_exp_EVA_AMP_AWA_CON	178	Rpleas_acq	Same	Rpleas	Bmasked	CS_B	2pleas	distractor1	EVAbeforeCON	acq_new_pleas_masked	acq1_masked	1	20	0	0	300	300	0	0	604	50	0	1	0	0	0	1	blank2r.bmp	0	1	+	0	8	C4r.bmp	492	1	blank2r.bmp	786	4	B4r.bmp	786	1	blank2r.bmp	866	5	schlau	866	0	0	0	0	0	0	0	0	0	0	0	0	0	0	0	0	0	0	0	0	0	0	0	0	0	0	0	0	0	0	0	0	0
032619	10:23:25	10:26:09	163052	5.0.10.0	4_exp_EVA_AMP_AWA_CON	178	Rpleas_acq	Same	Rpleas	Bmasked	CS_B	2pleas	distractor1	EVAbeforeCON	acq_US_pleas_masked	acq1_masked	1	21	0	0	300	300	0	0	643	50	0	1	0	0	0	1	blank2r.bmp	0	1	+	0	2	B2r.bmp	492	1	blank2r.bmp	786	1	GKQX	786	1	blank2r.bmp	866	5	retten	866	0	0	0	0	0	0	0	0	0	0	0	0	0	0	0	0	0	0	0	0	0	0	0	0	0	0	0	0	0	0	0	0	0
032619	10:23:25	10:26:11	165451	5.0.10.0	4_exp_EVA_AMP_AWA_CON	178	Rpleas_acq	Same	Rpleas	Bmasked	CS_B	2pleas	distractor1	EVAbeforeCON	acq_new_unple_masked	acq1_masked	1	22	0	0	300	300	0	0	927	46	0	1	0	0	0	1	blank2r.bmp	0	1	+	0	6	C2r.bmp	492	1	blank2r.bmp	786	3	B3r.bmp	786	1	blank2r.bmp	866	3	fanatisch	866	0	0	0	0	0	0	0	0	0	0	0	0	0	0	0	0	0	0	0	0	0	0	0	0	0	0	0	0	0	0	0	0	0
032619	10:23:25	10:26:13	167517	5.0.10.0	4_exp_EVA_AMP_AWA_CON	178	Rpleas_acq	Same	Rpleas	Bmasked	CS_B	2pleas	distractor1	EVAbeforeCON	acq_new_unple_masked	acq1_masked	1	23	0	0	300	300	0	0	592	46	0	1	0	0	0	1	blank2r.bmp	0	1	+	0	3	B3r.bmp	492	1	blank2r.bmp	786	5	C1r.bmp	786	1	blank2r.bmp	866	2	faul	866	0	0	0	0	0	0	0	0	0	0	0	0	0	0	0	0	0	0	0	0	0	0	0	0	0	0	0	0	0	0	0	0	0
032619	10:23:25	10:26:15	169569	5.0.10.0	4_exp_EVA_AMP_AWA_CON	178	Rpleas_acq	Same	Rpleas	Bmasked	CS_B	2pleas	distractor1	EVAbeforeCON	acq_new_pleas_masked	acq1_masked	1	24	0	0	300	300	0	0	565	50	0	1	0	0	0	1	blank2r.bmp	0	1	+	0	7	C3r.bmp	492	1	blank2r.bmp	786	1	B1r.bmp	786	1	blank2r.bmp	866	6	ehrlich	866	0	0	0	0	0	0	0	0	0	0	0	0	0	0	0	0	0	0	0	0	0	0	0	0	0	0	0	0	0	0	0	0	0
032619	10:23:25	10:26:17	171595	5.0.10.0	4_exp_EVA_AMP_AWA_CON	178	Rpleas_acq	Same	Rpleas	Bmasked	CS_B	2pleas	distractor1	EVAbeforeCON	acq_US_unple_masked	acq1_masked	1	25	0	0	300	300	0	0	557	46	0	1	0	0	0	1	blank2r.bmp	0	1	+	0	1	B1r.bmp	492	1	blank2r.bmp	786	1	BMVZ	786	1	blank2r.bmp	866	4	lasch	866	0	0	0	0	0	0	0	0	0	0	0	0	0	0	0	0	0	0	0	0	0	0	0	0	0	0	0	0	0	0	0	0	0
032619	10:23:25	10:26:19	173781	5.0.10.0	4_exp_EVA_AMP_AWA_CON	178	Rpleas_acq	Same	Rpleas	Bmasked	CS_B	2pleas	distractor1	EVAbeforeCON	acq_US_pleas_masked	acq1_masked	1	26	0	0	300	300	0	0	718	50	0	1	0	0	0	1	blank2r.bmp	0	1	+	0	7	C3r.bmp	492	1	blank2r.bmp	786	1	GKQX	786	1	blank2r.bmp	866	1	tolerant	866	0	0	0	0	0	0	0	0	0	0	0	0	0	0	0	0	0	0	0	0	0	0	0	0	0	0	0	0	0	0	0	0	0
032619	10:23:25	10:26:21	175794	5.0.10.0	4_exp_EVA_AMP_AWA_CON	178	Rpleas_acq	Same	Rpleas	Bmasked	CS_B	2pleas	distractor1	EVAbeforeCON	acq_new_unple_masked	acq1_masked	1	27	0	0	300	300	0	0	525	46	0	1	0	0	0	1	blank2r.bmp	0	1	+	0	3	B3r.bmp	492	1	blank2r.bmp	786	7	C3r.bmp	786	1	blank2r.bmp	866	6	eitel	866	0	0	0	0	0	0	0	0	0	0	0	0	0	0	0	0	0	0	0	0	0	0	0	0	0	0	0	0	0	0	0	0	0
032619	10:23:25	10:26:23	177873	5.0.10.0	4_exp_EVA_AMP_AWA_CON	178	Rpleas_acq	Same	Rpleas	Bmasked	CS_B	2pleas	distractor1	EVAbeforeCON	acq_US_unple_masked	acq1_masked	1	28	0	0	300	300	0	0	611	46	0	1	0	0	0	1	blank2r.bmp	0	1	+	0	2	B2r.bmp	492	1	blank2r.bmp	786	1	BMVZ	786	1	blank2r.bmp	866	6	tot	866	0	0	0	0	0	0	0	0	0	0	0	0	0	0	0	0	0	0	0	0	0	0	0	0	0	0	0	0	0	0	0	0	0
032619	10:23:25	10:26:25	179912	5.0.10.0	4_exp_EVA_AMP_AWA_CON	178	Rpleas_acq	Same	Rpleas	Bmasked	CS_B	2pleas	distractor1	EVAbeforeCON	acq_new_pleas_masked	acq1_masked	1	29	0	0	300	300	0	0	555	50	0	1	0	0	0	1	blank2r.bmp	0	1	+	0	8	C4r.bmp	492	1	blank2r.bmp	786	6	C2r.bmp	786	1	blank2r.bmp	866	4	helfen	866	0	0	0	0	0	0	0	0	0	0	0	0	0	0	0	0	0	0	0	0	0	0	0	0	0	0	0	0	0	0	0	0	0
032619	10:23:25	10:26:28	182044	5.0.10.0	4_exp_EVA_AMP_AWA_CON	178	Rpleas_acq	Same	Rpleas	Bmasked	CS_B	2pleas	distractor1	EVAbeforeCON	acq_new_pleas_masked	acq1_masked	1	30	0	0	300	300	0	0	662	50	0	1	0	0	0	1	blank2r.bmp	0	1	+	0	5	C1r.bmp	492	1	blank2r.bmp	786	8	C4r.bmp	786	1	blank2r.bmp	866	2	fair	866	0	0	0	0	0	0	0	0	0	0	0	0	0	0	0	0	0	0	0	0	0	0	0	0	0	0	0	0	0	0	0	0	0
032619	10:23:25	10:26:30	184097	5.0.10.0	4_exp_EVA_AMP_AWA_CON	178	Rpleas_acq	Same	Rpleas	Bmasked	CS_B	2pleas	distractor1	EVAbeforeCON	acq_US_pleas_masked	acq1_masked	1	31	0	0	300	300	0	0	563	50	0	1	0	0	0	1	blank2r.bmp	0	1	+	0	6	C2r.bmp	492	1	blank2r.bmp	786	1	GKQX	786	1	blank2r.bmp	866	4	loyal	866	0	0	0	0	0	0	0	0	0	0	0	0	0	0	0	0	0	0	0	0	0	0	0	0	0	0	0	0	0	0	0	0	0
032619	10:23:25	10:26:32	186109	5.0.10.0	4_exp_EVA_AMP_AWA_CON	178	Rpleas_acq	Same	Rpleas	Bmasked	CS_B	2pleas	distractor1	EVAbeforeCON	acq_new_pleas_masked	acq1_masked	1	32	0	0	300	300	0	0	543	50	0	1	0	0	0	1	blank2r.bmp	0	1	+	0	4	B4r.bmp	492	1	blank2r.bmp	786	2	B2r.bmp	786	1	blank2r.bmp	866	6	ehrlich	866	0	0	0	0	0	0	0	0	0	0	0	0	0	0	0	0	0	0	0	0	0	0	0	0	0	0	0	0	0	0	0	0	0
032619	10:23:25	10:26:34	188042	5.0.10.0	4_exp_EVA_AMP_AWA_CON	178	Rpleas_acq	Same	Rpleas	Bmasked	CS_B	2pleas	distractor1	EVAbeforeCON	acq_new_unple_masked	acq1_masked	1	33	0	0	300	300	0	0	446	46	0	1	0	0	0	1	blank2r.bmp	0	1	+	0	8	C4r.bmp	492	1	blank2r.bmp	786	5	C1r.bmp	786	1	blank2r.bmp	866	4	hindern	866	0	0	0	0	0	0	0	0	0	0	0	0	0	0	0	0	0	0	0	0	0	0	0	0	0	0	0	0	0	0	0	0	0
032619	10:23:25	10:26:36	190041	5.0.10.0	4_exp_EVA_AMP_AWA_CON	178	Rpleas_acq	Same	Rpleas	Bmasked	CS_B	2pleas	distractor1	EVAbeforeCON	acq_new_unple_masked	acq1_masked	1	34	0	0	300	300	0	0	523	46	0	1	0	0	0	1	blank2r.bmp	0	1	+	0	4	B4r.bmp	492	1	blank2r.bmp	786	3	B3r.bmp	786	1	blank2r.bmp	866	1	leiden	866	0	0	0	0	0	0	0	0	0	0	0	0	0	0	0	0	0	0	0	0	0	0	0	0	0	0	0	0	0	0	0	0	0
032619	10:23:25	10:26:38	192014	5.0.10.0	4_exp_EVA_AMP_AWA_CON	178	Rpleas_acq	Same	Rpleas	Bmasked	CS_B	2pleas	distractor1	EVAbeforeCON	acq_US_unple_masked	acq1_masked	1	35	0	0	300	300	0	0	497	46	0	1	0	0	0	1	blank2r.bmp	0	1	+	0	5	C1r.bmp	492	1	blank2r.bmp	786	1	BMVZ	786	1	blank2r.bmp	866	2	schlecht	866	0	0	0	0	0	0	0	0	0	0	0	0	0	0	0	0	0	0	0	0	0	0	0	0	0	0	0	0	0	0	0	0	0
032619	10:23:25	10:26:40	194253	5.0.10.0	4_exp_EVA_AMP_AWA_CON	178	Rpleas_acq	Same	Rpleas	Bmasked	CS_B	2pleas	distractor1	EVAbeforeCON	acq_US_pleas_masked	acq1_masked	1	36	0	0	300	300	0	0	754	50	0	1	0	0	0	1	blank2r.bmp	0	1	+	0	7	C3r.bmp	492	1	blank2r.bmp	786	1	GKQX	786	1	blank2r.bmp	866	3	spielen	866	0	0	0	0	0	0	0	0	0	0	0	0	0	0	0	0	0	0	0	0	0	0	0	0	0	0	0	0	0	0	0	0	0
032619	10:23:25	10:27:34	248177	5.0.10.0	4_exp_EVA_AMP_AWA_CON	178	Rpleas_acq	Same	Rpleas	Bmasked	CS_B	2pleas	distractor1	EVAbeforeCON	acq_new_pleas_masked	acq2_masked	2	1	480	0	300	300	0	0	574	50	0	1	0	0	0	1	blank2r.bmp	0	1	+	0	2	B2r.bmp	492	1	blank2r.bmp	786	6	C2r.bmp	786	1	blank2r.bmp	866	5	schlau	866	1	!	1319	1	!	-1	0	0	0	0	0	0	0	0	0	0	0	0	0	0	0	0	0	0	0	0	0	0	0	0	0	0	0
032619	10:23:25	10:27:36	250483	5.0.10.0	4_exp_EVA_AMP_AWA_CON	178	Rpleas_acq	Same	Rpleas	Bmasked	CS_B	2pleas	distractor1	EVAbeforeCON	acq_US_pleas_masked	acq2_masked	2	2	480	1	300	300	0	0	497	50	0	1	0	0	0	1	blank2r.bmp	0	1	+	0	6	C2r.bmp	492	1	blank2r.bmp	786	1	GKQX	786	1	blank2r.bmp	866	2	schön	866	1	!	1319	1	!	1399	0	0	0	0	0	0	0	0	0	0	0	0	0	0	0	0	0	0	0	0	0	0	0	0	0	0	0
032619	10:23:25	10:27:38	252815	5.0.10.0	4_exp_EVA_AMP_AWA_CON	178	Rpleas_acq	Same	Rpleas	Bmasked	CS_B	2pleas	distractor1	EVAbeforeCON	acq_US_pleas_masked	acq2_masked	2	3	480	0	300	300	0	0	568	50	0	1	0	0	0	1	blank2r.bmp	0	1	+	0	1	B1r.bmp	492	1	blank2r.bmp	786	1	GKQX	786	1	blank2r.bmp	866	6	treu	866	1	!	1319	1	!	-1	0	0	0	0	0	0	0	0	0	0	0	0	0	0	0	0	0	0	0	0	0	0	0	0	0	0	0
032619	10:23:25	10:27:41	255401	5.0.10.0	4_exp_EVA_AMP_AWA_CON	178	Rpleas_acq	Same	Rpleas	Bmasked	CS_B	2pleas	distractor1	EVAbeforeCON	acq_US_unple_masked	acq2_masked	2	4	480	0	300	300	0	0	810	46	0	1	0	0	0	1	blank2r.bmp	0	1	+	0	3	B3r.bmp	492	1	blank2r.bmp	786	1	BMVZ	786	1	blank2r.bmp	866	3	strafen	866	1	!	1319	1	!	-1	0	0	0	0	0	0	0	0	0	0	0	0	0	0	0	0	0	0	0	0	0	0	0	0	0	0	0
032619	10:23:25	10:27:43	257733	5.0.10.0	4_exp_EVA_AMP_AWA_CON	178	Rpleas_acq	Same	Rpleas	Bmasked	CS_B	2pleas	distractor1	EVAbeforeCON	acq_new_pleas_masked	acq2_masked	2	5	480	1	300	300	0	0	529	50	0	1	0	0	0	1	blank2r.bmp	0	1	+	0	3	B3r.bmp	492	1	blank2r.bmp	786	4	B4r.bmp	786	1	blank2r.bmp	866	1	lachen	866	1	!	1319	1	!	1426	0	0	0	0	0	0	0	0	0	0	0	0	0	0	0	0	0	0	0	0	0	0	0	0	0	0	0
032619	10:23:25	10:27:46	259972	5.0.10.0	4_exp_EVA_AMP_AWA_CON	178	Rpleas_acq	Same	Rpleas	Bmasked	CS_B	2pleas	distractor1	EVAbeforeCON	acq_US_unple_masked	acq2_masked	2	6	480	1	300	300	0	0	439	46	0	1	0	0	0	1	blank2r.bmp	0	1	+	0	4	B4r.bmp	492	1	blank2r.bmp	786	1	BMVZ	786	1	blank2r.bmp	866	5	rächen	866	1	!	1319	1	!	1346	0	0	0	0	0	0	0	0	0	0	0	0	0	0	0	0	0	0	0	0	0	0	0	0	0	0	0
032619	10:23:25	10:27:48	262811	5.0.10.0	4_exp_EVA_AMP_AWA_CON	178	Rpleas_acq	Same	Rpleas	Bmasked	CS_B	2pleas	distractor1	EVAbeforeCON	acq_new_unple_masked	acq2_masked	2	7	480	0	300	300	0	0	841	50	0	0	0	0	0	1	blank2r.bmp	0	1	+	0	7	C3r.bmp	492	1	blank2r.bmp	786	1	B1r.bmp	786	1	blank2r.bmp	866	3	fanatisch	866	1	FEHLER	2052	1	!	1319	1	!	-1	0	0	0	0	0	0	0	0	0	0	0	0	0	0	0	0	0	0	0	0	0	0	0	0
032619	10:23:25	10:27:50	264944	5.0.10.0	4_exp_EVA_AMP_AWA_CON	178	Rpleas_acq	Same	Rpleas	Bmasked	CS_B	2pleas	distractor1	EVAbeforeCON	acq_US_pleas_masked	acq2_masked	2	8	480	1	300	300	0	0	546	50	0	1	0	0	0	1	blank2r.bmp	0	1	+	0	1	B1r.bmp	492	1	blank2r.bmp	786	1	GKQX	786	1	blank2r.bmp	866	5	retten	866	1	!	1319	1	!	1452	0	0	0	0	0	0	0	0	0	0	0	0	0	0	0	0	0	0	0	0	0	0	0	0	0	0	0
032619	10:23:25	10:27:53	267209	5.0.10.0	4_exp_EVA_AMP_AWA_CON	178	Rpleas_acq	Same	Rpleas	Bmasked	CS_B	2pleas	distractor1	EVAbeforeCON	acq_US_unple_masked	acq2_masked	2	9	480	1	300	300	0	0	462	46	0	1	0	0	0	1	blank2r.bmp	0	1	+	0	2	B2r.bmp	492	1	blank2r.bmp	786	1	BMVZ	786	1	blank2r.bmp	866	1	tyrannisch	866	1	!	1319	1	!	1359	0	0	0	0	0	0	0	0	0	0	0	0	0	0	0	0	0	0	0	0	0	0	0	0	0	0	0
032619	10:23:25	10:27:55	269462	5.0.10.0	4_exp_EVA_AMP_AWA_CON	178	Rpleas_acq	Same	Rpleas	Bmasked	CS_B	2pleas	distractor1	EVAbeforeCON	acq_new_pleas_masked	acq2_masked	2	10	480	1	300	300	0	0	461	50	0	1	0	0	0	1	blank2r.bmp	0	1	+	0	6	C2r.bmp	492	1	blank2r.bmp	786	2	B2r.bmp	786	1	blank2r.bmp	866	3	freundlich	866	1	!	1319	1	!	1359	0	0	0	0	0	0	0	0	0	0	0	0	0	0	0	0	0	0	0	0	0	0	0	0	0	0	0
032619	10:23:25	10:27:57	271794	5.0.10.0	4_exp_EVA_AMP_AWA_CON	178	Rpleas_acq	Same	Rpleas	Bmasked	CS_B	2pleas	distractor1	EVAbeforeCON	acq_new_unple_masked	acq2_masked	2	11	480	0	300	300	0	0	568	46	0	1	0	0	0	1	blank2r.bmp	0	1	+	0	8	C4r.bmp	492	1	blank2r.bmp	786	7	C3r.bmp	786	1	blank2r.bmp	866	2	faul	866	1	!	1319	1	!	-1	0	0	0	0	0	0	0	0	0	0	0	0	0	0	0	0	0	0	0	0	0	0	0	0	0	0	0
032619	10:23:25	10:28:01	275912	5.0.10.0	4_exp_EVA_AMP_AWA_CON	178	Rpleas_acq	Same	Rpleas	Bmasked	CS_B	2pleas	distractor1	EVAbeforeCON	acq_new_unple_masked	acq2_masked	2	12	480	0	300	300	0	0	2325	46	0	1	0	0	0	1	blank2r.bmp	0	1	+	0	5	C1r.bmp	492	1	blank2r.bmp	786	8	C4r.bmp	786	1	blank2r.bmp	866	5	schroff	866	1	!	1319	1	!	-1	0	0	0	0	0	0	0	0	0	0	0	0	0	0	0	0	0	0	0	0	0	0	0	0	0	0	0
032619	10:23:25	10:28:04	278218	5.0.10.0	4_exp_EVA_AMP_AWA_CON	178	Rpleas_acq	Same	Rpleas	Bmasked	CS_B	2pleas	distractor1	EVAbeforeCON	acq_new_pleas_masked	acq2_masked	2	13	480	1	300	300	0	0	488	50	0	1	0	0	0	1	blank2r.bmp	0	1	+	0	6	C2r.bmp	492	1	blank2r.bmp	786	3	B3r.bmp	786	1	blank2r.bmp	866	5	schlau	866	1	!	1319	1	!	1386	0	0	0	0	0	0	0	0	0	0	0	0	0	0	0	0	0	0	0	0	0	0	0	0	0	0	0
032619	10:23:25	10:28:06	280617	5.0.10.0	4_exp_EVA_AMP_AWA_CON	178	Rpleas_acq	Same	Rpleas	Bmasked	CS_B	2pleas	distractor1	EVAbeforeCON	acq_new_unple_masked	acq2_masked	2	14	480	0	300	300	0	0	617	46	0	1	0	0	0	1	blank2r.bmp	0	1	+	0	2	B2r.bmp	492	1	blank2r.bmp	786	5	C1r.bmp	786	1	blank2r.bmp	866	4	hindern	866	1	!	1319	1	!	-1	0	0	0	0	0	0	0	0	0	0	0	0	0	0	0	0	0	0	0	0	0	0	0	0	0	0	0
032619	10:23:25	10:28:08	282750	5.0.10.0	4_exp_EVA_AMP_AWA_CON	178	Rpleas_acq	Same	Rpleas	Bmasked	CS_B	2pleas	distractor1	EVAbeforeCON	acq_US_pleas_masked	acq2_masked	2	15	480	0	300	300	0	0	354	50	0	1	0	0	0	1	blank2r.bmp	0	1	+	0	3	B3r.bmp	492	1	blank2r.bmp	786	1	GKQX	786	1	blank2r.bmp	866	2	schön	866	1	!	-1	1	!	-1	0	0	0	0	0	0	0	0	0	0	0	0	0	0	0	0	0	0	0	0	0	0	0	0	0	0	0
032619	10:23:25	10:28:11	285015	5.0.10.0	4_exp_EVA_AMP_AWA_CON	178	Rpleas_acq	Same	Rpleas	Bmasked	CS_B	2pleas	distractor1	EVAbeforeCON	acq_US_unple_masked	acq2_masked	2	16	480	1	300	300	0	0	457	46	0	1	0	0	0	1	blank2r.bmp	0	1	+	0	5	C1r.bmp	492	1	blank2r.bmp	786	1	BMVZ	786	1	blank2r.bmp	866	2	schlecht	866	1	!	1319	1	!	1359	0	0	0	0	0	0	0	0	0	0	0	0	0	0	0	0	0	0	0	0	0	0	0	0	0	0	0
032619	10:23:25	10:28:13	287348	5.0.10.0	4_exp_EVA_AMP_AWA_CON	178	Rpleas_acq	Same	Rpleas	Bmasked	CS_B	2pleas	distractor1	EVAbeforeCON	acq_US_pleas_masked	acq2_masked	2	17	480	0	300	300	0	0	566	50	0	1	0	0	0	1	blank2r.bmp	0	1	+	0	7	C3r.bmp	492	1	blank2r.bmp	786	1	GKQX	786	1	blank2r.bmp	866	6	treu	866	1	!	1319	1	!	-1	0	0	0	0	0	0	0	0	0	0	0	0	0	0	0	0	0	0	0	0	0	0	0	0	0	0	0
032619	10:23:25	10:28:15	289653	5.0.10.0	4_exp_EVA_AMP_AWA_CON	178	Rpleas_acq	Same	Rpleas	Bmasked	CS_B	2pleas	distractor1	EVAbeforeCON	acq_new_pleas_masked	acq2_masked	2	18	480	0	300	300	0	0	292	46	0	0	0	0	0	1	blank2r.bmp	0	1	+	0	1	B1r.bmp	492	1	blank2r.bmp	786	2	B2r.bmp	786	1	blank2r.bmp	866	6	ehrlich	866	1	FEHLER	1506	1	!	-1	1	!	-1	0	0	0	0	0	0	0	0	0	0	0	0	0	0	0	0	0	0	0	0	0	0	0	0
032619	10:23:25	10:28:17	291919	5.0.10.0	4_exp_EVA_AMP_AWA_CON	178	Rpleas_acq	Same	Rpleas	Bmasked	CS_B	2pleas	distractor1	EVAbeforeCON	acq_new_unple_masked	acq2_masked	2	19	480	1	300	300	0	0	474	50	0	0	0	0	0	1	blank2r.bmp	0	1	+	0	4	B4r.bmp	492	1	blank2r.bmp	786	6	C2r.bmp	786	1	blank2r.bmp	866	5	schroff	866	1	FEHLER	1692	1	!	1319	1	!	1372	0	0	0	0	0	0	0	0	0	0	0	0	0	0	0	0	0	0	0	0	0	0	0	0
032619	10:23:25	10:28:21	294971	5.0.10.0	4_exp_EVA_AMP_AWA_CON	178	Rpleas_acq	Same	Rpleas	Bmasked	CS_B	2pleas	distractor1	EVAbeforeCON	acq_US_unple_masked	acq2_masked	2	20	480	0	300	300	0	0	1497	46	0	1	0	0	0	1	blank2r.bmp	0	1	+	0	8	C4r.bmp	492	1	blank2r.bmp	786	1	BMVZ	786	1	blank2r.bmp	866	3	strafen	866	1	!	1319	1	!	-1	0	0	0	0	0	0	0	0	0	0	0	0	0	0	0	0	0	0	0	0	0	0	0	0	0	0	0
032619	10:23:25	10:28:23	297277	5.0.10.0	4_exp_EVA_AMP_AWA_CON	178	Rpleas_acq	Same	Rpleas	Bmasked	CS_B	2pleas	distractor1	EVAbeforeCON	acq_new_pleas_masked	acq2_masked	2	21	480	1	300	300	0	0	505	50	0	1	0	0	0	1	blank2r.bmp	0	1	+	0	3	B3r.bmp	492	1	blank2r.bmp	786	4	B4r.bmp	786	1	blank2r.bmp	866	2	fair	866	1	!	1319	1	!	1399	0	0	0	0	0	0	0	0	0	0	0	0	0	0	0	0	0	0	0	0	0	0	0	0	0	0	0
032619	10:23:25	10:28:25	299449	5.0.10.0	4_exp_EVA_AMP_AWA_CON	178	Rpleas_acq	Same	Rpleas	Bmasked	CS_B	2pleas	distractor1	EVAbeforeCON	acq_US_unple_masked	acq2_masked	2	22	480	0	300	300	0	0	411	46	0	1	0	0	0	1	blank2r.bmp	0	1	+	0	2	B2r.bmp	492	1	blank2r.bmp	786	1	BMVZ	786	1	blank2r.bmp	866	6	tot	866	1	!	-1	1	!	-1	0	0	0	0	0	0	0	0	0	0	0	0	0	0	0	0	0	0	0	0	0	0	0	0	0	0	0
032619	10:23:25	10:28:27	301795	5.0.10.0	4_exp_EVA_AMP_AWA_CON	178	Rpleas_acq	Same	Rpleas	Bmasked	CS_B	2pleas	distractor1	EVAbeforeCON	acq_US_pleas_masked	acq2_masked	2	23	480	0	300	300	0	0	571	50	0	1	0	0	0	1	blank2r.bmp	0	1	+	0	8	C4r.bmp	492	1	blank2r.bmp	786	1	GKQX	786	1	blank2r.bmp	866	1	tolerant	866	1	!	1319	1	!	-1	0	0	0	0	0	0	0	0	0	0	0	0	0	0	0	0	0	0	0	0	0	0	0	0	0	0	0
032619	10:23:25	10:28:30	304141	5.0.10.0	4_exp_EVA_AMP_AWA_CON	178	Rpleas_acq	Same	Rpleas	Bmasked	CS_B	2pleas	distractor1	EVAbeforeCON	acq_new_unple_masked	acq2_masked	2	24	480	0	300	300	0	0	564	46	0	1	0	0	0	1	blank2r.bmp	0	1	+	0	1	B1r.bmp	492	1	blank2r.bmp	786	7	C3r.bmp	786	1	blank2r.bmp	866	3	fanatisch	866	1	!	1319	1	!	-1	0	0	0	0	0	0	0	0	0	0	0	0	0	0	0	0	0	0	0	0	0	0	0	0	0	0	0
032619	10:23:25	10:28:32	306473	5.0.10.0	4_exp_EVA_AMP_AWA_CON	178	Rpleas_acq	Same	Rpleas	Bmasked	CS_B	2pleas	distractor1	EVAbeforeCON	acq_US_unple_masked	acq2_masked	2	25	480	1	300	300	0	0	521	46	0	1	0	0	0	1	blank2r.bmp	0	1	+	0	6	C2r.bmp	492	1	blank2r.bmp	786	1	BMVZ	786	1	blank2r.bmp	866	5	rächen	866	1	!	1319	1	!	1426	0	0	0	0	0	0	0	0	0	0	0	0	0	0	0	0	0	0	0	0	0	0	0	0	0	0	0
032619	10:23:25	10:28:34	308952	5.0.10.0	4_exp_EVA_AMP_AWA_CON	178	Rpleas_acq	Same	Rpleas	Bmasked	CS_B	2pleas	distractor1	EVAbeforeCON	acq_US_pleas_masked	acq2_masked	2	26	480	1	300	300	0	0	473	46	0	0	0	0	0	1	blank2r.bmp	0	1	+	0	7	C3r.bmp	492	1	blank2r.bmp	786	1	GKQX	786	1	blank2r.bmp	866	5	retten	866	1	FEHLER	1692	1	!	1319	1	!	1372	0	0	0	0	0	0	0	0	0	0	0	0	0	0	0	0	0	0	0	0	0	0	0	0
032619	10:23:25	10:28:37	311071	5.0.10.0	4_exp_EVA_AMP_AWA_CON	178	Rpleas_acq	Same	Rpleas	Bmasked	CS_B	2pleas	distractor1	EVAbeforeCON	acq_US_pleas_masked	acq2_masked	2	27	480	0	300	300	0	0	567	50	0	1	0	0	0	1	blank2r.bmp	0	1	+	0	5	C1r.bmp	492	1	blank2r.bmp	786	1	GKQX	786	1	blank2r.bmp	866	4	loyal	866	1	!	1319	1	!	-1	0	0	0	0	0	0	0	0	0	0	0	0	0	0	0	0	0	0	0	0	0	0	0	0	0	0	0
032619	10:23:25	10:28:39	313390	5.0.10.0	4_exp_EVA_AMP_AWA_CON	178	Rpleas_acq	Same	Rpleas	Bmasked	CS_B	2pleas	distractor1	EVAbeforeCON	acq_new_unple_masked	acq2_masked	2	28	480	1	300	300	0	0	510	46	0	1	0	0	0	1	blank2r.bmp	0	1	+	0	4	B4r.bmp	492	1	blank2r.bmp	786	8	C4r.bmp	786	1	blank2r.bmp	866	2	faul	866	1	!	1319	1	!	1412	0	0	0	0	0	0	0	0	0	0	0	0	0	0	0	0	0	0	0	0	0	0	0	0	0	0	0
032619	10:23:25	10:28:41	315616	5.0.10.0	4_exp_EVA_AMP_AWA_CON	178	Rpleas_acq	Same	Rpleas	Bmasked	CS_B	2pleas	distractor1	EVAbeforeCON	acq_US_pleas_masked	acq2_masked	2	29	480	1	300	300	0	0	426	50	0	1	0	0	0	1	blank2r.bmp	0	1	+	0	1	B1r.bmp	492	1	blank2r.bmp	786	1	GKQX	786	1	blank2r.bmp	866	3	spielen	866	1	!	1319	1	!	1332	0	0	0	0	0	0	0	0	0	0	0	0	0	0	0	0	0	0	0	0	0	0	0	0	0	0	0
032619	10:23:25	10:28:43	317855	5.0.10.0	4_exp_EVA_AMP_AWA_CON	178	Rpleas_acq	Same	Rpleas	Bmasked	CS_B	2pleas	distractor1	EVAbeforeCON	acq_new_unple_masked	acq2_masked	2	30	480	1	300	300	0	0	443	46	0	1	0	0	0	1	blank2r.bmp	0	1	+	0	7	C3r.bmp	492	1	blank2r.bmp	786	1	B1r.bmp	786	1	blank2r.bmp	866	6	eitel	866	1	!	1319	1	!	1346	0	0	0	0	0	0	0	0	0	0	0	0	0	0	0	0	0	0	0	0	0	0	0	0	0	0	0
032619	10:23:25	10:28:46	320294	5.0.10.0	4_exp_EVA_AMP_AWA_CON	178	Rpleas_acq	Same	Rpleas	Bmasked	CS_B	2pleas	distractor1	EVAbeforeCON	acq_US_unple_masked	acq2_masked	2	31	480	1	300	300	0	0	428	50	0	0	0	0	0	1	blank2r.bmp	0	1	+	0	2	B2r.bmp	492	1	blank2r.bmp	786	1	BMVZ	786	1	blank2r.bmp	866	4	lasch	866	1	FEHLER	1652	1	!	1319	1	!	1332	0	0	0	0	0	0	0	0	0	0	0	0	0	0	0	0	0	0	0	0	0	0	0	0
032619	10:23:25	10:28:48	322413	5.0.10.0	4_exp_EVA_AMP_AWA_CON	178	Rpleas_acq	Same	Rpleas	Bmasked	CS_B	2pleas	distractor1	EVAbeforeCON	acq_new_pleas_masked	acq2_masked	2	32	480	0	300	300	0	0	559	50	0	1	0	0	0	1	blank2r.bmp	0	1	+	0	5	C1r.bmp	492	1	blank2r.bmp	786	2	B2r.bmp	786	1	blank2r.bmp	866	1	lachen	866	1	!	1319	1	!	-1	0	0	0	0	0	0	0	0	0	0	0	0	0	0	0	0	0	0	0	0	0	0	0	0	0	0	0
032619	10:23:25	10:28:50	324759	5.0.10.0	4_exp_EVA_AMP_AWA_CON	178	Rpleas_acq	Same	Rpleas	Bmasked	CS_B	2pleas	distractor1	EVAbeforeCON	acq_new_pleas_masked	acq2_masked	2	33	480	0	300	300	0	0	559	50	0	1	0	0	0	1	blank2r.bmp	0	1	+	0	4	B4r.bmp	492	1	blank2r.bmp	786	8	C4r.bmp	786	1	blank2r.bmp	866	4	helfen	866	1	!	1319	1	!	-1	0	0	0	0	0	0	0	0	0	0	0	0	0	0	0	0	0	0	0	0	0	0	0	0	0	0	0
032619	10:23:25	10:28:53	327065	5.0.10.0	4_exp_EVA_AMP_AWA_CON	178	Rpleas_acq	Same	Rpleas	Bmasked	CS_B	2pleas	distractor1	EVAbeforeCON	acq_new_unple_masked	acq2_masked	2	34	480	1	300	300	0	0	500	46	0	1	0	0	0	1	blank2r.bmp	0	1	+	0	6	C2r.bmp	492	1	blank2r.bmp	786	7	C3r.bmp	786	1	blank2r.bmp	866	1	leiden	866	1	!	1319	1	!	1399	0	0	0	0	0	0	0	0	0	0	0	0	0	0	0	0	0	0	0	0	0	0	0	0	0	0	0
032619	10:23:25	10:28:55	329397	5.0.10.0	4_exp_EVA_AMP_AWA_CON	178	Rpleas_acq	Same	Rpleas	Bmasked	CS_B	2pleas	distractor1	EVAbeforeCON	acq_new_pleas_masked	acq2_masked	2	35	480	0	300	300	0	0	559	50	0	1	0	0	0	1	blank2r.bmp	0	1	+	0	8	C4r.bmp	492	1	blank2r.bmp	786	4	B4r.bmp	786	1	blank2r.bmp	866	3	freundlich	866	1	!	1319	1	!	-1	0	0	0	0	0	0	0	0	0	0	0	0	0	0	0	0	0	0	0	0	0	0	0	0	0	0	0
032619	10:23:25	10:28:57	331649	5.0.10.0	4_exp_EVA_AMP_AWA_CON	178	Rpleas_acq	Same	Rpleas	Bmasked	CS_B	2pleas	distractor1	EVAbeforeCON	acq_US_unple_masked	acq2_masked	2	36	480	1	300	300	0	0	442	46	0	1	0	0	0	1	blank2r.bmp	0	1	+	0	3	B3r.bmp	492	1	blank2r.bmp	786	1	BMVZ	786	1	blank2r.bmp	866	1	tyrannisch	866	1	!	1319	1	!	1346	0	0	0	0	0	0	0	0	0	0	0	0	0	0	0	0	0	0	0	0	0	0	0	0	0	0	0
032619	10:23:25	10:29:16	350215	5.0.10.0	4_exp_EVA_AMP_AWA_CON	178	Rpleas_acq	Same	Rpleas	Bmasked	CS_B	2pleas	distractor1	EVAbeforeCON	acq_US_pleas_masked	acq3_masked	3	1	453	0	300	300	0	0	620	50	0	1	0	0	0	1	blank2r.bmp	0	1	+	0	7	C3r.bmp	492	1	blank2r.bmp	786	1	GKQX	786	1	blank2r.bmp	866	1	tolerant	866	1	!	1292	1	!	-1	0	0	0	0	0	0	0	0	0	0	0	0	0	0	0	0	0	0	0	0	0	0	0	0	0	0	0
032619	10:23:25	10:29:18	352574	5.0.10.0	4_exp_EVA_AMP_AWA_CON	178	Rpleas_acq	Same	Rpleas	Bmasked	CS_B	2pleas	distractor1	EVAbeforeCON	acq_US_pleas_masked	acq3_masked	3	2	453	0	300	300	0	0	345	46	0	0	0	0	0	1	blank2r.bmp	0	1	+	0	4	B4r.bmp	492	1	blank2r.bmp	786	1	GKQX	786	1	blank2r.bmp	866	5	retten	866	1	FEHLER	1559	1	!	-1	1	!	-1	0	0	0	0	0	0	0	0	0	0	0	0	0	0	0	0	0	0	0	0	0	0	0	0
032619	10:23:25	10:29:20	354600	5.0.10.0	4_exp_EVA_AMP_AWA_CON	178	Rpleas_acq	Same	Rpleas	Bmasked	CS_B	2pleas	distractor1	EVAbeforeCON	acq_US_pleas_masked	acq3_masked	3	3	453	1	300	300	0	0	439	50	0	1	0	0	0	1	blank2r.bmp	0	1	+	0	5	C1r.bmp	492	1	blank2r.bmp	786	1	GKQX	786	1	blank2r.bmp	866	2	schön	866	1	!	1292	1	!	1346	0	0	0	0	0	0	0	0	0	0	0	0	0	0	0	0	0	0	0	0	0	0	0	0	0	0	0
032619	10:23:25	10:29:22	356866	5.0.10.0	4_exp_EVA_AMP_AWA_CON	178	Rpleas_acq	Same	Rpleas	Bmasked	CS_B	2pleas	distractor1	EVAbeforeCON	acq_US_unple_masked	acq3_masked	3	4	453	1	300	300	0	0	474	46	0	1	0	0	0	1	blank2r.bmp	0	1	+	0	8	C4r.bmp	492	1	blank2r.bmp	786	1	BMVZ	786	1	blank2r.bmp	866	2	schlecht	866	1	!	1292	1	!	1372	0	0	0	0	0	0	0	0	0	0	0	0	0	0	0	0	0	0	0	0	0	0	0	0	0	0	0
032619	10:23:25	10:29:25	359118	5.0.10.0	4_exp_EVA_AMP_AWA_CON	178	Rpleas_acq	Same	Rpleas	Bmasked	CS_B	2pleas	distractor1	EVAbeforeCON	acq_US_unple_masked	acq3_masked	3	5	453	1	300	300	0	0	462	46	0	1	0	0	0	1	blank2r.bmp	0	1	+	0	2	B2r.bmp	492	1	blank2r.bmp	786	1	BMVZ	786	1	blank2r.bmp	866	1	tyrannisch	866	1	!	1292	1	!	1359	0	0	0	0	0	0	0	0	0	0	0	0	0	0	0	0	0	0	0	0	0	0	0	0	0	0	0
032619	10:23:25	10:29:27	361437	5.0.10.0	4_exp_EVA_AMP_AWA_CON	178	Rpleas_acq	Same	Rpleas	Bmasked	CS_B	2pleas	distractor1	EVAbeforeCON	acq_US_unple_masked	acq3_masked	3	6	453	1	300	300	0	0	516	46	0	1	0	0	0	1	blank2r.bmp	0	1	+	0	1	B1r.bmp	492	1	blank2r.bmp	786	1	BMVZ	786	1	blank2r.bmp	866	5	rächen	866	1	!	1292	1	!	1412	0	0	0	0	0	0	0	0	0	0	0	0	0	0	0	0	0	0	0	0	0	0	0	0	0	0	0
032619	10:23:25	10:29:29	363636	5.0.10.0	4_exp_EVA_AMP_AWA_CON	178	Rpleas_acq	Same	Rpleas	Bmasked	CS_B	2pleas	distractor1	EVAbeforeCON	acq_US_pleas_masked	acq3_masked	3	7	453	1	300	300	0	0	408	50	0	1	0	0	0	1	blank2r.bmp	0	1	+	0	6	C2r.bmp	492	1	blank2r.bmp	786	1	GKQX	786	1	blank2r.bmp	866	3	spielen	866	1	!	1292	1	!	1306	0	0	0	0	0	0	0	0	0	0	0	0	0	0	0	0	0	0	0	0	0	0	0	0	0	0	0
032619	10:23:25	10:29:31	365835	5.0.10.0	4_exp_EVA_AMP_AWA_CON	178	Rpleas_acq	Same	Rpleas	Bmasked	CS_B	2pleas	distractor1	EVAbeforeCON	acq_US_unple_masked	acq3_masked	3	8	453	1	300	300	0	0	411	46	0	1	0	0	0	1	blank2r.bmp	0	1	+	0	3	B3r.bmp	492	1	blank2r.bmp	786	1	BMVZ	786	1	blank2r.bmp	866	6	tot	866	1	!	1292	1	!	1306	0	0	0	0	0	0	0	0	0	0	0	0	0	0	0	0	0	0	0	0	0	0	0	0	0	0	0
032619	10:23:25	10:29:34	368248	5.0.10.0	4_exp_EVA_AMP_AWA_CON	178	Rpleas_acq	Same	Rpleas	Bmasked	CS_B	2pleas	distractor1	EVAbeforeCON	acq_US_pleas_masked	acq3_masked	3	9	453	1	300	300	0	0	399	46	0	0	0	0	0	1	blank2r.bmp	0	1	+	0	7	C3r.bmp	492	1	blank2r.bmp	786	1	GKQX	786	1	blank2r.bmp	866	6	treu	866	1	FEHLER	1625	1	!	1292	1	!	1306	0	0	0	0	0	0	0	0	0	0	0	0	0	0	0	0	0	0	0	0	0	0	0	0
032619	10:23:25	10:29:36	370340	5.0.10.0	4_exp_EVA_AMP_AWA_CON	178	Rpleas_acq	Same	Rpleas	Bmasked	CS_B	2pleas	distractor1	EVAbeforeCON	acq_US_unple_masked	acq3_masked	3	10	453	1	300	300	0	0	509	46	0	1	0	0	0	1	blank2r.bmp	0	1	+	0	6	C2r.bmp	492	1	blank2r.bmp	786	1	BMVZ	786	1	blank2r.bmp	866	4	lasch	866	1	!	1292	1	!	1412	0	0	0	0	0	0	0	0	0	0	0	0	0	0	0	0	0	0	0	0	0	0	0	0	0	0	0
032619	10:23:25	10:29:38	372659	5.0.10.0	4_exp_EVA_AMP_AWA_CON	178	Rpleas_acq	Same	Rpleas	Bmasked	CS_B	2pleas	distractor1	EVAbeforeCON	acq_US_unple_masked	acq3_masked	3	11	453	0	300	300	0	0	552	46	0	1	0	0	0	1	blank2r.bmp	0	1	+	0	3	B3r.bmp	492	1	blank2r.bmp	786	1	BMVZ	786	1	blank2r.bmp	866	3	strafen	866	1	!	1292	1	!	-1	0	0	0	0	0	0	0	0	0	0	0	0	0	0	0	0	0	0	0	0	0	0	0	0	0	0	0
032619	10:23:25	10:29:40	374938	5.0.10.0	4_exp_EVA_AMP_AWA_CON	178	Rpleas_acq	Same	Rpleas	Bmasked	CS_B	2pleas	distractor1	EVAbeforeCON	acq_US_pleas_masked	acq3_masked	3	12	453	1	300	300	0	0	477	50	0	1	0	0	0	1	blank2r.bmp	0	1	+	0	5	C1r.bmp	492	1	blank2r.bmp	786	1	GKQX	786	1	blank2r.bmp	866	4	loyal	866	1	!	1292	1	!	1372	0	0	0	0	0	0	0	0	0	0	0	0	0	0	0	0	0	0	0	0	0	0	0	0	0	0	0
032619	10:23:25	10:29:43	377377	5.0.10.0	4_exp_EVA_AMP_AWA_CON	178	Rpleas_acq	Same	Rpleas	Bmasked	CS_B	2pleas	distractor1	EVAbeforeCON	acq_US_pleas_masked	acq3_masked	3	13	453	1	300	300	0	0	417	46	0	0	0	0	0	1	blank2r.bmp	0	1	+	0	1	B1r.bmp	492	1	blank2r.bmp	786	1	GKQX	786	1	blank2r.bmp	866	6	treu	866	1	FEHLER	1639	1	!	1292	1	!	1319	0	0	0	0	0	0	0	0	0	0	0	0	0	0	0	0	0	0	0	0	0	0	0	0
032619	10:23:25	10:29:45	379483	5.0.10.0	4_exp_EVA_AMP_AWA_CON	178	Rpleas_acq	Same	Rpleas	Bmasked	CS_B	2pleas	distractor1	EVAbeforeCON	acq_US_unple_masked	acq3_masked	3	14	453	0	300	300	0	0	551	46	0	1	0	0	0	1	blank2r.bmp	0	1	+	0	8	C4r.bmp	492	1	blank2r.bmp	786	1	BMVZ	786	1	blank2r.bmp	866	3	strafen	866	1	!	1292	1	!	-1	0	0	0	0	0	0	0	0	0	0	0	0	0	0	0	0	0	0	0	0	0	0	0	0	0	0	0
032619	10:23:25	10:29:47	381789	5.0.10.0	4_exp_EVA_AMP_AWA_CON	178	Rpleas_acq	Same	Rpleas	Bmasked	CS_B	2pleas	distractor1	EVAbeforeCON	acq_US_unple_masked	acq3_masked	3	15	453	1	300	300	0	0	504	46	0	1	0	0	0	1	blank2r.bmp	0	1	+	0	4	B4r.bmp	492	1	blank2r.bmp	786	1	BMVZ	786	1	blank2r.bmp	866	2	schlecht	866	1	!	1292	1	!	1399	0	0	0	0	0	0	0	0	0	0	0	0	0	0	0	0	0	0	0	0	0	0	0	0	0	0	0
032619	10:23:25	10:29:50	384054	5.0.10.0	4_exp_EVA_AMP_AWA_CON	178	Rpleas_acq	Same	Rpleas	Bmasked	CS_B	2pleas	distractor1	EVAbeforeCON	acq_US_pleas_masked	acq3_masked	3	16	453	1	300	300	0	0	474	50	0	1	0	0	0	1	blank2r.bmp	0	1	+	0	2	B2r.bmp	492	1	blank2r.bmp	786	1	GKQX	786	1	blank2r.bmp	866	3	spielen	866	1	!	1292	1	!	1372	0	0	0	0	0	0	0	0	0	0	0	0	0	0	0	0	0	0	0	0	0	0	0	0	0	0	0
032619	10:23:25	10:29:52	386427	5.0.10.0	4_exp_EVA_AMP_AWA_CON	178	Rpleas_acq	Same	Rpleas	Bmasked	CS_B	2pleas	distractor1	EVAbeforeCON	acq_US_pleas_masked	acq3_masked	3	17	453	0	300	300	0	0	379	46	0	0	0	0	0	1	blank2r.bmp	0	1	+	0	8	C4r.bmp	492	1	blank2r.bmp	786	1	GKQX	786	1	blank2r.bmp	866	1	tolerant	866	1	FEHLER	1586	1	!	-1	1	!	-1	0	0	0	0	0	0	0	0	0	0	0	0	0	0	0	0	0	0	0	0	0	0	0	0
032619	10:23:25	10:29:54	388506	5.0.10.0	4_exp_EVA_AMP_AWA_CON	178	Rpleas_acq	Same	Rpleas	Bmasked	CS_B	2pleas	distractor1	EVAbeforeCON	acq_US_unple_masked	acq3_masked	3	18	453	1	300	300	0	0	501	46	0	1	0	0	0	1	blank2r.bmp	0	1	+	0	3	B3r.bmp	492	1	blank2r.bmp	786	1	BMVZ	786	1	blank2r.bmp	866	1	tyrannisch	866	1	!	1292	1	!	1399	0	0	0	0	0	0	0	0	0	0	0	0	0	0	0	0	0	0	0	0	0	0	0	0	0	0	0
032619	10:23:25	10:29:56	390745	5.0.10.0	4_exp_EVA_AMP_AWA_CON	178	Rpleas_acq	Same	Rpleas	Bmasked	CS_B	2pleas	distractor1	EVAbeforeCON	acq_US_unple_masked	acq3_masked	3	19	453	1	300	300	0	0	449	46	0	1	0	0	0	1	blank2r.bmp	0	1	+	0	4	B4r.bmp	492	1	blank2r.bmp	786	1	BMVZ	786	1	blank2r.bmp	866	6	tot	866	1	!	1292	1	!	1346	0	0	0	0	0	0	0	0	0	0	0	0	0	0	0	0	0	0	0	0	0	0	0	0	0	0	0
032619	10:23:25	10:29:59	393051	5.0.10.0	4_exp_EVA_AMP_AWA_CON	178	Rpleas_acq	Same	Rpleas	Bmasked	CS_B	2pleas	distractor1	EVAbeforeCON	acq_US_unple_masked	acq3_masked	3	20	453	0	300	300	0	0	540	46	0	1	0	0	0	1	blank2r.bmp	0	1	+	0	5	C1r.bmp	492	1	blank2r.bmp	786	1	BMVZ	786	1	blank2r.bmp	866	5	rächen	866	1	!	1292	1	!	-1	0	0	0	0	0	0	0	0	0	0	0	0	0	0	0	0	0	0	0	0	0	0	0	0	0	0	0
032619	10:23:25	10:30:01	395383	5.0.10.0	4_exp_EVA_AMP_AWA_CON	178	Rpleas_acq	Same	Rpleas	Bmasked	CS_B	2pleas	distractor1	EVAbeforeCON	acq_US_unple_masked	acq3_masked	3	21	453	0	300	300	0	0	532	46	0	1	0	0	0	1	blank2r.bmp	0	1	+	0	6	C2r.bmp	492	1	blank2r.bmp	786	1	BMVZ	786	1	blank2r.bmp	866	4	lasch	866	1	!	1292	1	!	-1	0	0	0	0	0	0	0	0	0	0	0	0	0	0	0	0	0	0	0	0	0	0	0	0	0	0	0
032619	10:23:25	10:30:03	397689	5.0.10.0	4_exp_EVA_AMP_AWA_CON	178	Rpleas_acq	Same	Rpleas	Bmasked	CS_B	2pleas	distractor1	EVAbeforeCON	acq_US_pleas_masked	acq3_masked	3	22	453	1	300	300	0	0	504	50	0	1	0	0	0	1	blank2r.bmp	0	1	+	0	7	C3r.bmp	492	1	blank2r.bmp	786	1	GKQX	786	1	blank2r.bmp	866	4	loyal	866	1	!	1292	1	!	1399	0	0	0	0	0	0	0	0	0	0	0	0	0	0	0	0	0	0	0	0	0	0	0	0	0	0	0
032619	10:23:25	10:30:05	399795	5.0.10.0	4_exp_EVA_AMP_AWA_CON	178	Rpleas_acq	Same	Rpleas	Bmasked	CS_B	2pleas	distractor1	EVAbeforeCON	acq_US_pleas_masked	acq3_masked	3	23	453	0	300	300	0	0	339	50	0	1	0	0	0	1	blank2r.bmp	0	1	+	0	2	B2r.bmp	492	1	blank2r.bmp	786	1	GKQX	786	1	blank2r.bmp	866	2	schön	866	1	!	-1	1	!	-1	0	0	0	0	0	0	0	0	0	0	0	0	0	0	0	0	0	0	0	0	0	0	0	0	0	0	0
032619	10:23:25	10:30:08	402287	5.0.10.0	4_exp_EVA_AMP_AWA_CON	178	Rpleas_acq	Same	Rpleas	Bmasked	CS_B	2pleas	distractor1	EVAbeforeCON	acq_US_pleas_masked	acq3_masked	3	24	453	1	300	300	0	0	476	46	0	0	0	0	0	1	blank2r.bmp	0	1	+	0	1	B1r.bmp	492	1	blank2r.bmp	786	1	GKQX	786	1	blank2r.bmp	866	5	retten	866	1	FEHLER	1692	1	!	1292	1	!	1372	0	0	0	0	0	0	0	0	0	0	0	0	0	0	0	0	0	0	0	0	0	0	0	0
032619	10:23:25	10:30:10	404299	5.0.10.0	4_exp_EVA_AMP_AWA_CON	178	Rpleas_acq	Same	Rpleas	Bmasked	CS_B	2pleas	distractor1	EVAbeforeCON	acq_US_unple_masked	acq3_masked	3	25	453	1	300	300	0	0	438	46	0	1	0	0	0	1	blank2r.bmp	0	1	+	0	2	B2r.bmp	492	1	blank2r.bmp	786	1	BMVZ	786	1	blank2r.bmp	866	4	lasch	866	1	!	1292	1	!	1332	0	0	0	0	0	0	0	0	0	0	0	0	0	0	0	0	0	0	0	0	0	0	0	0	0	0	0
032619	10:23:25	10:30:12	406539	5.0.10.0	4_exp_EVA_AMP_AWA_CON	178	Rpleas_acq	Same	Rpleas	Bmasked	CS_B	2pleas	distractor1	EVAbeforeCON	acq_US_pleas_masked	acq3_masked	3	26	453	1	300	300	0	0	439	50	0	1	0	0	0	1	blank2r.bmp	0	1	+	0	6	C2r.bmp	492	1	blank2r.bmp	786	1	GKQX	786	1	blank2r.bmp	866	6	treu	866	1	!	1292	1	!	1346	0	0	0	0	0	0	0	0	0	0	0	0	0	0	0	0	0	0	0	0	0	0	0	0	0	0	0
032619	10:23:25	10:30:14	408818	5.0.10.0	4_exp_EVA_AMP_AWA_CON	178	Rpleas_acq	Same	Rpleas	Bmasked	CS_B	2pleas	distractor1	EVAbeforeCON	acq_US_unple_masked	acq3_masked	3	27	453	1	300	300	0	0	482	46	0	1	0	0	0	1	blank2r.bmp	0	1	+	0	3	B3r.bmp	492	1	blank2r.bmp	786	1	BMVZ	786	1	blank2r.bmp	866	3	strafen	866	1	!	1292	1	!	1386	0	0	0	0	0	0	0	0	0	0	0	0	0	0	0	0	0	0	0	0	0	0	0	0	0	0	0
032619	10:23:25	10:30:17	411057	5.0.10.0	4_exp_EVA_AMP_AWA_CON	178	Rpleas_acq	Same	Rpleas	Bmasked	CS_B	2pleas	distractor1	EVAbeforeCON	acq_US_pleas_masked	acq3_masked	3	28	453	1	300	300	0	0	446	50	0	1	0	0	0	1	blank2r.bmp	0	1	+	0	1	B1r.bmp	492	1	blank2r.bmp	786	1	GKQX	786	1	blank2r.bmp	866	3	spielen	866	1	!	1292	1	!	1346	0	0	0	0	0	0	0	0	0	0	0	0	0	0	0	0	0	0	0	0	0	0	0	0	0	0	0
032619	10:23:25	10:30:19	413309	5.0.10.0	4_exp_EVA_AMP_AWA_CON	178	Rpleas_acq	Same	Rpleas	Bmasked	CS_B	2pleas	distractor1	EVAbeforeCON	acq_US_pleas_masked	acq3_masked	3	29	453	1	300	300	0	0	454	50	0	1	0	0	0	1	blank2r.bmp	0	1	+	0	7	C3r.bmp	492	1	blank2r.bmp	786	1	GKQX	786	1	blank2r.bmp	866	4	loyal	866	1	!	1292	1	!	1359	0	0	0	0	0	0	0	0	0	0	0	0	0	0	0	0	0	0	0	0	0	0	0	0	0	0	0
032619	10:23:25	10:30:21	415508	5.0.10.0	4_exp_EVA_AMP_AWA_CON	178	Rpleas_acq	Same	Rpleas	Bmasked	CS_B	2pleas	distractor1	EVAbeforeCON	acq_US_unple_masked	acq3_masked	3	30	453	1	300	300	0	0	399	46	0	1	0	0	0	1	blank2r.bmp	0	1	+	0	8	C4r.bmp	492	1	blank2r.bmp	786	1	BMVZ	786	1	blank2r.bmp	866	5	rächen	866	1	!	1292	1	!	1306	0	0	0	0	0	0	0	0	0	0	0	0	0	0	0	0	0	0	0	0	0	0	0	0	0	0	0
032619	10:23:25	10:30:23	417867	5.0.10.0	4_exp_EVA_AMP_AWA_CON	178	Rpleas_acq	Same	Rpleas	Bmasked	CS_B	2pleas	distractor1	EVAbeforeCON	acq_US_pleas_masked	acq3_masked	3	31	453	0	300	300	0	0	595	50	0	1	0	0	0	1	blank2r.bmp	0	1	+	0	4	B4r.bmp	492	1	blank2r.bmp	786	1	GKQX	786	1	blank2r.bmp	866	5	retten	866	1	!	1292	1	!	-1	0	0	0	0	0	0	0	0	0	0	0	0	0	0	0	0	0	0	0	0	0	0	0	0	0	0	0
032619	10:23:25	10:30:26	420240	5.0.10.0	4_exp_EVA_AMP_AWA_CON	178	Rpleas_acq	Same	Rpleas	Bmasked	CS_B	2pleas	distractor1	EVAbeforeCON	acq_US_pleas_masked	acq3_masked	3	32	453	0	300	300	0	0	586	50	0	1	0	0	0	1	blank2r.bmp	0	1	+	0	5	C1r.bmp	492	1	blank2r.bmp	786	1	GKQX	786	1	blank2r.bmp	866	1	tolerant	866	1	!	1292	1	!	-1	0	0	0	0	0	0	0	0	0	0	0	0	0	0	0	0	0	0	0	0	0	0	0	0	0	0	0
032619	10:23:25	10:30:28	422399	5.0.10.0	4_exp_EVA_AMP_AWA_CON	178	Rpleas_acq	Same	Rpleas	Bmasked	CS_B	2pleas	distractor1	EVAbeforeCON	acq_US_pleas_masked	acq3_masked	3	33	453	0	300	300	0	0	381	50	0	1	0	0	0	1	blank2r.bmp	0	1	+	0	8	C4r.bmp	492	1	blank2r.bmp	786	1	GKQX	786	1	blank2r.bmp	866	2	schön	866	1	!	-1	1	!	-1	0	0	0	0	0	0	0	0	0	0	0	0	0	0	0	0	0	0	0	0	0	0	0	0	0	0	0
032619	10:23:25	10:30:30	424704	5.0.10.0	4_exp_EVA_AMP_AWA_CON	178	Rpleas_acq	Same	Rpleas	Bmasked	CS_B	2pleas	distractor1	EVAbeforeCON	acq_US_unple_masked	acq3_masked	3	34	453	1	300	300	0	0	494	46	0	1	0	0	0	1	blank2r.bmp	0	1	+	0	4	B4r.bmp	492	1	blank2r.bmp	786	1	BMVZ	786	1	blank2r.bmp	866	1	tyrannisch	866	1	!	1292	1	!	1399	0	0	0	0	0	0	0	0	0	0	0	0	0	0	0	0	0	0	0	0	0	0	0	0	0	0	0
032619	10:23:25	10:30:33	427010	5.0.10.0	4_exp_EVA_AMP_AWA_CON	178	Rpleas_acq	Same	Rpleas	Bmasked	CS_B	2pleas	distractor1	EVAbeforeCON	acq_US_unple_masked	acq3_masked	3	35	453	0	300	300	0	0	534	46	0	1	0	0	0	1	blank2r.bmp	0	1	+	0	6	C2r.bmp	492	1	blank2r.bmp	786	1	BMVZ	786	1	blank2r.bmp	866	2	schlecht	866	1	!	1292	1	!	-1	0	0	0	0	0	0	0	0	0	0	0	0	0	0	0	0	0	0	0	0	0	0	0	0	0	0	0
032619	10:23:25	10:30:35	429169	5.0.10.0	4_exp_EVA_AMP_AWA_CON	178	Rpleas_acq	Same	Rpleas	Bmasked	CS_B	2pleas	distractor1	EVAbeforeCON	acq_US_unple_masked	acq3_masked	3	36	453	0	300	300	0	0	383	46	0	1	0	0	0	1	blank2r.bmp	0	1	+	0	3	B3r.bmp	492	1	blank2r.bmp	786	1	BMVZ	786	1	blank2r.bmp	866	6	tot	866	1	!	-1	1	!	-1	0	0	0	0	0	0	0	0	0	0	0	0	0	0	0	0	0	0	0	0	0	0	0	0	0	0	0
032619	10:23:25	10:30:53	447575	5.0.10.0	4_exp_EVA_AMP_AWA_CON	178	Rpleas_acq	Same	Rpleas	Bmasked	CS_B	2pleas	distractor1	EVAbeforeCON	acq_US_unple_masked	acq45_masked	4	1	400	1	300	300	0	0	430	46	0	1	0	0	0	1	blank2r.bmp	0	1	+	0	5	C1r.bmp	492	1	blank2r.bmp	786	1	BMVZ	786	1	blank2r.bmp	866	6	tot	866	1	!	1239	1	!	1332	0	0	0	0	0	0	0	0	0	0	0	0	0	0	0	0	0	0	0	0	0	0	0	0	0	0	0
032619	10:23:25	10:30:55	449814	5.0.10.0	4_exp_EVA_AMP_AWA_CON	178	Rpleas_acq	Same	Rpleas	Bmasked	CS_B	2pleas	distractor1	EVAbeforeCON	acq_US_unple_masked	acq45_masked	4	2	400	1	300	300	0	0	445	46	0	1	0	0	0	1	blank2r.bmp	0	1	+	0	7	C3r.bmp	492	1	blank2r.bmp	786	1	BMVZ	786	1	blank2r.bmp	866	2	schlecht	866	1	!	1239	1	!	1346	0	0	0	0	0	0	0	0	0	0	0	0	0	0	0	0	0	0	0	0	0	0	0	0	0	0	0
032619	10:23:25	10:30:57	451920	5.0.10.0	4_exp_EVA_AMP_AWA_CON	178	Rpleas_acq	Same	Rpleas	Bmasked	CS_B	2pleas	distractor1	EVAbeforeCON	acq_US_unple_masked	acq45_masked	4	3	400	0	300	300	0	0	331	46	0	1	0	0	0	1	blank2r.bmp	0	1	+	0	1	B1r.bmp	492	1	blank2r.bmp	786	1	BMVZ	786	1	blank2r.bmp	866	3	strafen	866	1	!	-1	1	!	-1	0	0	0	0	0	0	0	0	0	0	0	0	0	0	0	0	0	0	0	0	0	0	0	0	0	0	0
032619	10:23:25	10:31:00	454212	5.0.10.0	4_exp_EVA_AMP_AWA_CON	178	Rpleas_acq	Same	Rpleas	Bmasked	CS_B	2pleas	distractor1	EVAbeforeCON	acq_US_pleas_masked	acq45_masked	4	4	400	0	300	300	0	0	506	46	0	0	0	0	0	1	blank2r.bmp	0	1	+	0	2	B2r.bmp	492	1	blank2r.bmp	786	1	GKQX	786	1	blank2r.bmp	866	1	tolerant	866	1	!	1239	1	!	-1	0	0	0	0	0	0	0	0	0	0	0	0	0	0	0	0	0	0	0	0	0	0	0	0	0	0	0
032619	10:23:25	10:31:03	457318	5.0.10.0	4_exp_EVA_AMP_AWA_CON	178	Rpleas_acq	Same	Rpleas	Bmasked	CS_B	2pleas	distractor1	EVAbeforeCON	acq_US_pleas_masked	acq45_masked	4	5	400	0	300	300	0	0	1326	50	0	1	0	0	0	1	blank2r.bmp	0	1	+	0	3	B3r.bmp	492	1	blank2r.bmp	786	1	GKQX	786	1	blank2r.bmp	866	3	spielen	866	1	!	1239	1	!	-1	0	0	0	0	0	0	0	0	0	0	0	0	0	0	0	0	0	0	0	0	0	0	0	0	0	0	0
032619	10:23:25	10:31:05	459690	5.0.10.0	4_exp_EVA_AMP_AWA_CON	178	Rpleas_acq	Same	Rpleas	Bmasked	CS_B	2pleas	distractor1	EVAbeforeCON	acq_US_pleas_masked	acq45_masked	4	6	400	0	300	300	0	0	590	50	0	1	0	0	0	1	blank2r.bmp	0	1	+	0	6	C2r.bmp	492	1	blank2r.bmp	786	1	GKQX	786	1	blank2r.bmp	866	6	treu	866	1	!	1239	1	!	-1	0	0	0	0	0	0	0	0	0	0	0	0	0	0	0	0	0	0	0	0	0	0	0	0	0	0	0
032619	10:23:25	10:31:07	461916	5.0.10.0	4_exp_EVA_AMP_AWA_CON	178	Rpleas_acq	Same	Rpleas	Bmasked	CS_B	2pleas	distractor1	EVAbeforeCON	acq_US_pleas_masked	acq45_masked	4	7	400	1	300	300	0	0	415	46	0	0	0	0	0	1	blank2r.bmp	0	1	+	0	2	B2r.bmp	492	1	blank2r.bmp	786	1	GKQX	786	1	blank2r.bmp	866	4	loyal	866	1	!	1239	1	!	1319	0	0	0	0	0	0	0	0	0	0	0	0	0	0	0	0	0	0	0	0	0	0	0	0	0	0	0
032619	10:23:25	10:31:10	464155	5.0.10.0	4_exp_EVA_AMP_AWA_CON	178	Rpleas_acq	Same	Rpleas	Bmasked	CS_B	2pleas	distractor1	EVAbeforeCON	acq_US_pleas_masked	acq45_masked	4	8	400	1	300	300	0	0	449	50	0	1	0	0	0	1	blank2r.bmp	0	1	+	0	8	C4r.bmp	492	1	blank2r.bmp	786	1	GKQX	786	1	blank2r.bmp	866	2	schön	866	1	!	1239	1	!	1346	0	0	0	0	0	0	0	0	0	0	0	0	0	0	0	0	0	0	0	0	0	0	0	0	0	0	0
032619	10:23:25	10:31:12	466407	5.0.10.0	4_exp_EVA_AMP_AWA_CON	178	Rpleas_acq	Same	Rpleas	Bmasked	CS_B	2pleas	distractor1	EVAbeforeCON	acq_US_pleas_masked	acq45_masked	4	9	400	0	300	300	0	0	482	50	0	1	0	0	0	1	blank2r.bmp	0	1	+	0	7	C3r.bmp	492	1	blank2r.bmp	786	1	GKQX	786	1	blank2r.bmp	866	5	retten	866	1	!	1239	1	!	-1	0	0	0	0	0	0	0	0	0	0	0	0	0	0	0	0	0	0	0	0	0	0	0	0	0	0	0
032619	10:23:25	10:31:14	468806	5.0.10.0	4_exp_EVA_AMP_AWA_CON	178	Rpleas_acq	Same	Rpleas	Bmasked	CS_B	2pleas	distractor1	EVAbeforeCON	acq_US_pleas_masked	acq45_masked	4	10	400	0	300	300	0	0	624	50	0	1	0	0	0	1	blank2r.bmp	0	1	+	0	1	B1r.bmp	492	1	blank2r.bmp	786	1	GKQX	786	1	blank2r.bmp	866	3	spielen	866	1	!	1239	1	!	-1	0	0	0	0	0	0	0	0	0	0	0	0	0	0	0	0	0	0	0	0	0	0	0	0	0	0	0
032619	10:23:25	10:31:17	471072	5.0.10.0	4_exp_EVA_AMP_AWA_CON	178	Rpleas_acq	Same	Rpleas	Bmasked	CS_B	2pleas	distractor1	EVAbeforeCON	acq_US_pleas_masked	acq45_masked	4	11	400	0	300	300	0	0	479	50	0	1	0	0	0	1	blank2r.bmp	0	1	+	0	4	B4r.bmp	492	1	blank2r.bmp	786	1	GKQX	786	1	blank2r.bmp	866	5	retten	866	1	!	1239	1	!	-1	0	0	0	0	0	0	0	0	0	0	0	0	0	0	0	0	0	0	0	0	0	0	0	0	0	0	0
032619	10:23:25	10:31:19	473178	5.0.10.0	4_exp_EVA_AMP_AWA_CON	178	Rpleas_acq	Same	Rpleas	Bmasked	CS_B	2pleas	distractor1	EVAbeforeCON	acq_US_unple_masked	acq45_masked	4	12	400	0	300	300	0	0	323	50	0	0	0	0	0	1	blank2r.bmp	0	1	+	0	5	C1r.bmp	492	1	blank2r.bmp	786	1	BMVZ	786	1	blank2r.bmp	866	1	tyrannisch	866	1	!	-1	1	!	-1	0	0	0	0	0	0	0	0	0	0	0	0	0	0	0	0	0	0	0	0	0	0	0	0	0	0	0
032619	10:23:25	10:31:21	475497	5.0.10.0	4_exp_EVA_AMP_AWA_CON	178	Rpleas_acq	Same	Rpleas	Bmasked	CS_B	2pleas	distractor1	EVAbeforeCON	acq_US_unple_masked	acq45_masked	4	13	400	0	300	300	0	0	543	46	0	1	0	0	0	1	blank2r.bmp	0	1	+	0	4	B4r.bmp	492	1	blank2r.bmp	786	1	BMVZ	786	1	blank2r.bmp	866	4	lasch	866	1	!	1239	1	!	-1	0	0	0	0	0	0	0	0	0	0	0	0	0	0	0	0	0	0	0	0	0	0	0	0	0	0	0
032619	10:23:25	10:31:23	477723	5.0.10.0	4_exp_EVA_AMP_AWA_CON	178	Rpleas_acq	Same	Rpleas	Bmasked	CS_B	2pleas	distractor1	EVAbeforeCON	acq_US_unple_masked	acq45_masked	4	14	400	1	300	300	0	0	405	50	0	0	0	0	0	1	blank2r.bmp	0	1	+	0	5	C1r.bmp	492	1	blank2r.bmp	786	1	BMVZ	786	1	blank2r.bmp	866	5	rächen	866	1	!	1239	1	!	1306	0	0	0	0	0	0	0	0	0	0	0	0	0	0	0	0	0	0	0	0	0	0	0	0	0	0	0
032619	10:23:25	10:31:25	479868	5.0.10.0	4_exp_EVA_AMP_AWA_CON	178	Rpleas_acq	Same	Rpleas	Bmasked	CS_B	2pleas	distractor1	EVAbeforeCON	acq_US_unple_masked	acq45_masked	4	15	400	1	300	300	0	0	347	46	0	1	0	0	0	1	blank2r.bmp	0	1	+	0	1	B1r.bmp	492	1	blank2r.bmp	786	1	BMVZ	786	1	blank2r.bmp	866	6	tot	866	1	!	1239	1	!	1252	0	0	0	0	0	0	0	0	0	0	0	0	0	0	0	0	0	0	0	0	0	0	0	0	0	0	0
032619	10:23:25	10:31:28	482121	5.0.10.0	4_exp_EVA_AMP_AWA_CON	178	Rpleas_acq	Same	Rpleas	Bmasked	CS_B	2pleas	distractor1	EVAbeforeCON	acq_US_pleas_masked	acq45_masked	4	16	400	0	300	300	0	0	479	50	0	1	0	0	0	1	blank2r.bmp	0	1	+	0	6	C2r.bmp	492	1	blank2r.bmp	786	1	GKQX	786	1	blank2r.bmp	866	6	treu	866	1	!	1239	1	!	-1	0	0	0	0	0	0	0	0	0	0	0	0	0	0	0	0	0	0	0	0	0	0	0	0	0	0	0
032619	10:23:25	10:31:30	484387	5.0.10.0	4_exp_EVA_AMP_AWA_CON	178	Rpleas_acq	Same	Rpleas	Bmasked	CS_B	2pleas	distractor1	EVAbeforeCON	acq_US_unple_masked	acq45_masked	4	17	400	0	300	300	0	0	486	46	0	1	0	0	0	1	blank2r.bmp	0	1	+	0	8	C4r.bmp	492	1	blank2r.bmp	786	1	BMVZ	786	1	blank2r.bmp	866	1	tyrannisch	866	1	!	1239	1	!	-1	0	0	0	0	0	0	0	0	0	0	0	0	0	0	0	0	0	0	0	0	0	0	0	0	0	0	0
032619	10:23:25	10:31:32	486586	5.0.10.0	4_exp_EVA_AMP_AWA_CON	178	Rpleas_acq	Same	Rpleas	Bmasked	CS_B	2pleas	distractor1	EVAbeforeCON	acq_US_unple_masked	acq45_masked	4	18	400	1	300	300	0	0	394	50	0	0	0	0	0	1	blank2r.bmp	0	1	+	0	3	B3r.bmp	492	1	blank2r.bmp	786	1	BMVZ	786	1	blank2r.bmp	866	3	strafen	866	1	!	1239	1	!	1292	0	0	0	0	0	0	0	0	0	0	0	0	0	0	0	0	0	0	0	0	0	0	0	0	0	0	0
032619	10:23:25	10:31:34	488878	5.0.10.0	4_exp_EVA_AMP_AWA_CON	178	Rpleas_acq	Same	Rpleas	Bmasked	CS_B	2pleas	distractor1	EVAbeforeCON	acq_US_unple_masked	acq45_masked	4	19	400	0	300	300	0	0	516	46	0	1	0	0	0	1	blank2r.bmp	0	1	+	0	7	C3r.bmp	492	1	blank2r.bmp	786	1	BMVZ	786	1	blank2r.bmp	866	2	schlecht	866	1	!	1239	1	!	-1	0	0	0	0	0	0	0	0	0	0	0	0	0	0	0	0	0	0	0	0	0	0	0	0	0	0	0
032619	10:23:25	10:31:37	491037	5.0.10.0	4_exp_EVA_AMP_AWA_CON	178	Rpleas_acq	Same	Rpleas	Bmasked	CS_B	2pleas	distractor1	EVAbeforeCON	acq_US_pleas_masked	acq45_masked	4	20	400	1	300	300	0	0	346	46	0	0	0	0	0	1	blank2r.bmp	0	1	+	0	2	B2r.bmp	492	1	blank2r.bmp	786	1	GKQX	786	1	blank2r.bmp	866	4	loyal	866	1	!	1239	1	!	1252	0	0	0	0	0	0	0	0	0	0	0	0	0	0	0	0	0	0	0	0	0	0	0	0	0	0	0
032619	10:23:25	10:31:39	493303	5.0.10.0	4_exp_EVA_AMP_AWA_CON	178	Rpleas_acq	Same	Rpleas	Bmasked	CS_B	2pleas	distractor1	EVAbeforeCON	acq_US_unple_masked	acq45_masked	4	21	400	0	300	300	0	0	494	46	0	1	0	0	0	1	blank2r.bmp	0	1	+	0	8	C4r.bmp	492	1	blank2r.bmp	786	1	BMVZ	786	1	blank2r.bmp	866	5	rächen	866	1	!	1239	1	!	-1	0	0	0	0	0	0	0	0	0	0	0	0	0	0	0	0	0	0	0	0	0	0	0	0	0	0	0
032619	10:23:25	10:31:41	495529	5.0.10.0	4_exp_EVA_AMP_AWA_CON	178	Rpleas_acq	Same	Rpleas	Bmasked	CS_B	2pleas	distractor1	EVAbeforeCON	acq_US_unple_masked	acq45_masked	4	22	400	1	300	300	0	0	421	50	0	0	0	0	0	1	blank2r.bmp	0	1	+	0	1	B1r.bmp	492	1	blank2r.bmp	786	1	BMVZ	786	1	blank2r.bmp	866	4	lasch	866	1	!	1239	1	!	1319	0	0	0	0	0	0	0	0	0	0	0	0	0	0	0	0	0	0	0	0	0	0	0	0	0	0	0
032619	10:23:25	10:31:43	497688	5.0.10.0	4_exp_EVA_AMP_AWA_CON	178	Rpleas_acq	Same	Rpleas	Bmasked	CS_B	2pleas	distractor1	EVAbeforeCON	acq_US_unple_masked	acq45_masked	4	23	400	1	300	300	0	0	363	46	0	1	0	0	0	1	blank2r.bmp	0	1	+	0	6	C2r.bmp	492	1	blank2r.bmp	786	1	BMVZ	786	1	blank2r.bmp	866	4	lasch	866	1	!	1239	1	!	1266	0	0	0	0	0	0	0	0	0	0	0	0	0	0	0	0	0	0	0	0	0	0	0	0	0	0	0
032619	10:23:25	10:31:46	500113	5.0.10.0	4_exp_EVA_AMP_AWA_CON	178	Rpleas_acq	Same	Rpleas	Bmasked	CS_B	2pleas	distractor1	EVAbeforeCON	acq_US_pleas_masked	acq45_masked	4	24	400	0	300	300	0	0	658	50	0	1	0	0	0	1	blank2r.bmp	0	1	+	0	3	B3r.bmp	492	1	blank2r.bmp	786	1	GKQX	786	1	blank2r.bmp	866	1	tolerant	866	1	!	1239	1	!	-1	0	0	0	0	0	0	0	0	0	0	0	0	0	0	0	0	0	0	0	0	0	0	0	0	0	0	0
032619	10:23:25	10:31:49	503285	5.0.10.0	4_exp_EVA_AMP_AWA_CON	178	Rpleas_acq	Same	Rpleas	Bmasked	CS_B	2pleas	distractor1	EVAbeforeCON	acq_US_pleas_masked	acq45_masked	4	25	400	0	300	300	0	0	1379	50	0	1	0	0	0	1	blank2r.bmp	0	1	+	0	7	C3r.bmp	492	1	blank2r.bmp	786	1	GKQX	786	1	blank2r.bmp	866	2	schön	866	1	!	1239	1	!	-1	0	0	0	0	0	0	0	0	0	0	0	0	0	0	0	0	0	0	0	0	0	0	0	0	0	0	0
032619	10:23:25	10:31:51	505551	5.0.10.0	4_exp_EVA_AMP_AWA_CON	178	Rpleas_acq	Same	Rpleas	Bmasked	CS_B	2pleas	distractor1	EVAbeforeCON	acq_US_unple_masked	acq45_masked	4	26	400	0	300	300	0	0	479	46	0	1	0	0	0	1	blank2r.bmp	0	1	+	0	5	C1r.bmp	492	1	blank2r.bmp	786	1	BMVZ	786	1	blank2r.bmp	866	3	strafen	866	1	!	1239	1	!	-1	0	0	0	0	0	0	0	0	0	0	0	0	0	0	0	0	0	0	0	0	0	0	0	0	0	0	0
032619	10:23:25	10:31:53	507764	5.0.10.0	4_exp_EVA_AMP_AWA_CON	178	Rpleas_acq	Same	Rpleas	Bmasked	CS_B	2pleas	distractor1	EVAbeforeCON	acq_US_unple_masked	acq45_masked	4	27	400	1	300	300	0	0	400	46	0	1	0	0	0	1	blank2r.bmp	0	1	+	0	2	B2r.bmp	492	1	blank2r.bmp	786	1	BMVZ	786	1	blank2r.bmp	866	2	schlecht	866	1	!	1239	1	!	1306	0	0	0	0	0	0	0	0	0	0	0	0	0	0	0	0	0	0	0	0	0	0	0	0	0	0	0
032619	10:23:25	10:31:56	510016	5.0.10.0	4_exp_EVA_AMP_AWA_CON	178	Rpleas_acq	Same	Rpleas	Bmasked	CS_B	2pleas	distractor1	EVAbeforeCON	acq_US_unple_masked	acq45_masked	4	28	400	1	300	300	0	0	455	46	0	1	0	0	0	1	blank2r.bmp	0	1	+	0	4	B4r.bmp	492	1	blank2r.bmp	786	1	BMVZ	786	1	blank2r.bmp	866	5	rächen	866	1	!	1239	1	!	1359	0	0	0	0	0	0	0	0	0	0	0	0	0	0	0	0	0	0	0	0	0	0	0	0	0	0	0
032619	10:23:25	10:31:58	512122	5.0.10.0	4_exp_EVA_AMP_AWA_CON	178	Rpleas_acq	Same	Rpleas	Bmasked	CS_B	2pleas	distractor1	EVAbeforeCON	acq_US_unple_masked	acq45_masked	4	29	400	0	300	300	0	0	330	46	0	1	0	0	0	1	blank2r.bmp	0	1	+	0	2	B2r.bmp	492	1	blank2r.bmp	786	1	BMVZ	786	1	blank2r.bmp	866	6	tot	866	1	!	-1	1	!	-1	0	0	0	0	0	0	0	0	0	0	0	0	0	0	0	0	0	0	0	0	0	0	0	0	0	0	0
032619	10:23:25	10:32:00	514361	5.0.10.0	4_exp_EVA_AMP_AWA_CON	178	Rpleas_acq	Same	Rpleas	Bmasked	CS_B	2pleas	distractor1	EVAbeforeCON	acq_US_pleas_masked	acq45_masked	4	30	400	1	300	300	0	0	432	46	0	0	0	0	0	1	blank2r.bmp	0	1	+	0	5	C1r.bmp	492	1	blank2r.bmp	786	1	GKQX	786	1	blank2r.bmp	866	3	spielen	866	1	!	1239	1	!	1332	0	0	0	0	0	0	0	0	0	0	0	0	0	0	0	0	0	0	0	0	0	0	0	0	0	0	0
032619	10:23:25	10:32:02	516507	5.0.10.0	4_exp_EVA_AMP_AWA_CON	178	Rpleas_acq	Same	Rpleas	Bmasked	CS_B	2pleas	distractor1	EVAbeforeCON	acq_US_pleas_masked	acq45_masked	4	31	400	1	300	300	0	0	358	46	0	0	0	0	0	1	blank2r.bmp	0	1	+	0	7	C3r.bmp	492	1	blank2r.bmp	786	1	GKQX	786	1	blank2r.bmp	866	6	treu	866	1	!	1239	1	!	1252	0	0	0	0	0	0	0	0	0	0	0	0	0	0	0	0	0	0	0	0	0	0	0	0	0	0	0
032619	10:23:25	10:32:04	518719	5.0.10.0	4_exp_EVA_AMP_AWA_CON	178	Rpleas_acq	Same	Rpleas	Bmasked	CS_B	2pleas	distractor1	EVAbeforeCON	acq_US_pleas_masked	acq45_masked	4	32	400	1	300	300	0	0	400	50	0	1	0	0	0	1	blank2r.bmp	0	1	+	0	3	B3r.bmp	492	1	blank2r.bmp	786	1	GKQX	786	1	blank2r.bmp	866	1	tolerant	866	1	!	1239	1	!	1306	0	0	0	0	0	0	0	0	0	0	0	0	0	0	0	0	0	0	0	0	0	0	0	0	0	0	0
032619	10:23:25	10:32:06	520812	5.0.10.0	4_exp_EVA_AMP_AWA_CON	178	Rpleas_acq	Same	Rpleas	Bmasked	CS_B	2pleas	distractor1	EVAbeforeCON	acq_US_pleas_masked	acq45_masked	4	33	400	0	300	300	0	0	319	50	0	1	0	0	0	1	blank2r.bmp	0	1	+	0	1	B1r.bmp	492	1	blank2r.bmp	786	1	GKQX	786	1	blank2r.bmp	866	2	schön	866	1	!	-1	1	!	-1	0	0	0	0	0	0	0	0	0	0	0	0	0	0	0	0	0	0	0	0	0	0	0	0	0	0	0
032619	10:23:25	10:32:09	523237	5.0.10.0	4_exp_EVA_AMP_AWA_CON	178	Rpleas_acq	Same	Rpleas	Bmasked	CS_B	2pleas	distractor1	EVAbeforeCON	acq_US_pleas_masked	acq45_masked	4	34	400	0	300	300	0	0	649	50	0	1	0	0	0	1	blank2r.bmp	0	1	+	0	4	B4r.bmp	492	1	blank2r.bmp	786	1	GKQX	786	1	blank2r.bmp	866	4	loyal	866	1	!	1239	1	!	-1	0	0	0	0	0	0	0	0	0	0	0	0	0	0	0	0	0	0	0	0	0	0	0	0	0	0	0
032619	10:23:25	10:32:11	525410	5.0.10.0	4_exp_EVA_AMP_AWA_CON	178	Rpleas_acq	Same	Rpleas	Bmasked	CS_B	2pleas	distractor1	EVAbeforeCON	acq_US_unple_masked	acq45_masked	4	35	400	1	300	300	0	0	364	46	0	1	0	0	0	1	blank2r.bmp	0	1	+	0	6	C2r.bmp	492	1	blank2r.bmp	786	1	BMVZ	786	1	blank2r.bmp	866	1	tyrannisch	866	1	!	1239	1	!	1266	0	0	0	0	0	0	0	0	0	0	0	0	0	0	0	0	0	0	0	0	0	0	0	0	0	0	0
032619	10:23:25	10:32:13	527582	5.0.10.0	4_exp_EVA_AMP_AWA_CON	178	Rpleas_acq	Same	Rpleas	Bmasked	CS_B	2pleas	distractor1	EVAbeforeCON	acq_US_pleas_masked	acq45_masked	4	36	400	1	300	300	0	0	373	46	0	0	0	0	0	1	blank2r.bmp	0	1	+	0	8	C4r.bmp	492	1	blank2r.bmp	786	1	GKQX	786	1	blank2r.bmp	866	5	retten	866	1	!	1239	1	!	1279	0	0	0	0	0	0	0	0	0	0	0	0	0	0	0	0	0	0	0	0	0	0	0	0	0	0	0
032619	10:23:25	10:32:23	537671	5.0.10.0	4_exp_EVA_AMP_AWA_CON	178	Rpleas_acq	Same	Rpleas	Bmasked	CS_B	2pleas	distractor1	EVAbeforeCON	acq_US_unple_masked	acq45_masked	5	1	400	0	300	300	0	0	479	46	0	1	0	0	0	1	blank2r.bmp	0	1	+	0	5	C1r.bmp	492	1	blank2r.bmp	786	1	BMVZ	786	1	blank2r.bmp	866	3	strafen	866	1	!	1239	1	!	-1	0	0	0	0	0	0	0	0	0	0	0	0	0	0	0	0	0	0	0	0	0	0	0	0	0	0	0
032619	10:23:25	10:32:25	539830	5.0.10.0	4_exp_EVA_AMP_AWA_CON	178	Rpleas_acq	Same	Rpleas	Bmasked	CS_B	2pleas	distractor1	EVAbeforeCON	acq_US_pleas_masked	acq45_masked	5	2	400	1	300	300	0	0	346	46	0	0	0	0	0	1	blank2r.bmp	0	1	+	0	4	B4r.bmp	492	1	blank2r.bmp	786	1	GKQX	786	1	blank2r.bmp	866	6	treu	866	1	!	1239	1	!	1252	0	0	0	0	0	0	0	0	0	0	0	0	0	0	0	0	0	0	0	0	0	0	0	0	0	0	0
032619	10:23:25	10:32:28	542056	5.0.10.0	4_exp_EVA_AMP_AWA_CON	178	Rpleas_acq	Same	Rpleas	Bmasked	CS_B	2pleas	distractor1	EVAbeforeCON	acq_US_unple_masked	acq45_masked	5	3	400	1	300	300	0	0	435	46	0	1	0	0	0	1	blank2r.bmp	0	1	+	0	3	B3r.bmp	492	1	blank2r.bmp	786	1	BMVZ	786	1	blank2r.bmp	866	6	tot	866	1	!	1239	1	!	1332	0	0	0	0	0	0	0	0	0	0	0	0	0	0	0	0	0	0	0	0	0	0	0	0	0	0	0
032619	10:23:25	10:32:30	544295	5.0.10.0	4_exp_EVA_AMP_AWA_CON	178	Rpleas_acq	Same	Rpleas	Bmasked	CS_B	2pleas	distractor1	EVAbeforeCON	acq_US_pleas_masked	acq45_masked	5	4	400	1	300	300	0	0	441	50	0	1	0	0	0	1	blank2r.bmp	0	1	+	0	1	B1r.bmp	492	1	blank2r.bmp	786	1	GKQX	786	1	blank2r.bmp	866	2	schön	866	1	!	1239	1	!	1346	0	0	0	0	0	0	0	0	0	0	0	0	0	0	0	0	0	0	0	0	0	0	0	0	0	0	0
032619	10:23:25	10:32:32	546508	5.0.10.0	4_exp_EVA_AMP_AWA_CON	178	Rpleas_acq	Same	Rpleas	Bmasked	CS_B	2pleas	distractor1	EVAbeforeCON	acq_US_unple_masked	acq45_masked	5	5	400	1	300	300	0	0	418	46	0	1	0	0	0	1	blank2r.bmp	0	1	+	0	7	C3r.bmp	492	1	blank2r.bmp	786	1	BMVZ	786	1	blank2r.bmp	866	5	rächen	866	1	!	1239	1	!	1319	0	0	0	0	0	0	0	0	0	0	0	0	0	0	0	0	0	0	0	0	0	0	0	0	0	0	0
032619	10:23:25	10:32:34	548800	5.0.10.0	4_exp_EVA_AMP_AWA_CON	178	Rpleas_acq	Same	Rpleas	Bmasked	CS_B	2pleas	distractor1	EVAbeforeCON	acq_US_unple_masked	acq45_masked	5	6	400	0	300	300	0	0	531	46	0	1	0	0	0	1	blank2r.bmp	0	1	+	0	2	B2r.bmp	492	1	blank2r.bmp	786	1	BMVZ	786	1	blank2r.bmp	866	2	schlecht	866	1	!	1239	1	!	-1	0	0	0	0	0	0	0	0	0	0	0	0	0	0	0	0	0	0	0	0	0	0	0	0	0	0	0
032619	10:23:25	10:32:37	551079	5.0.10.0	4_exp_EVA_AMP_AWA_CON	178	Rpleas_acq	Same	Rpleas	Bmasked	CS_B	2pleas	distractor1	EVAbeforeCON	acq_US_pleas_masked	acq45_masked	5	7	400	0	300	300	0	0	479	50	0	1	0	0	0	1	blank2r.bmp	0	1	+	0	8	C4r.bmp	492	1	blank2r.bmp	786	1	GKQX	786	1	blank2r.bmp	866	4	loyal	866	1	!	1239	1	!	-1	0	0	0	0	0	0	0	0	0	0	0	0	0	0	0	0	0	0	0	0	0	0	0	0	0	0	0
032619	10:23:25	10:32:39	553345	5.0.10.0	4_exp_EVA_AMP_AWA_CON	178	Rpleas_acq	Same	Rpleas	Bmasked	CS_B	2pleas	distractor1	EVAbeforeCON	acq_US_pleas_masked	acq45_masked	5	8	400	1	300	300	0	0	447	46	0	0	0	0	0	1	blank2r.bmp	0	1	+	0	6	C2r.bmp	492	1	blank2r.bmp	786	1	GKQX	786	1	blank2r.bmp	866	1	tolerant	866	1	!	1239	1	!	1346	0	0	0	0	0	0	0	0	0	0	0	0	0	0	0	0	0	0	0	0	0	0	0	0	0	0	0
032619	10:23:25	10:32:41	555504	5.0.10.0	4_exp_EVA_AMP_AWA_CON	178	Rpleas_acq	Same	Rpleas	Bmasked	CS_B	2pleas	distractor1	EVAbeforeCON	acq_US_unple_masked	acq45_masked	5	9	400	1	300	300	0	0	359	46	0	1	0	0	0	1	blank2r.bmp	0	1	+	0	7	C3r.bmp	492	1	blank2r.bmp	786	1	BMVZ	786	1	blank2r.bmp	866	4	lasch	866	1	!	1239	1	!	1266	0	0	0	0	0	0	0	0	0	0	0	0	0	0	0	0	0	0	0	0	0	0	0	0	0	0	0
032619	10:23:25	10:32:43	557756	5.0.10.0	4_exp_EVA_AMP_AWA_CON	178	Rpleas_acq	Same	Rpleas	Bmasked	CS_B	2pleas	distractor1	EVAbeforeCON	acq_US_unple_masked	acq45_masked	5	10	400	0	300	300	0	0	479	46	0	1	0	0	0	1	blank2r.bmp	0	1	+	0	5	C1r.bmp	492	1	blank2r.bmp	786	1	BMVZ	786	1	blank2r.bmp	866	1	tyrannisch	866	1	!	1239	1	!	-1	0	0	0	0	0	0	0	0	0	0	0	0	0	0	0	0	0	0	0	0	0	0	0	0	0	0	0
032619	10:23:25	10:32:46	559969	5.0.10.0	4_exp_EVA_AMP_AWA_CON	178	Rpleas_acq	Same	Rpleas	Bmasked	CS_B	2pleas	distractor1	EVAbeforeCON	acq_US_unple_masked	acq45_masked	5	11	400	1	300	300	0	0	407	50	0	0	0	0	0	1	blank2r.bmp	0	1	+	0	2	B2r.bmp	492	1	blank2r.bmp	786	1	BMVZ	786	1	blank2r.bmp	866	3	strafen	866	1	!	1239	1	!	1306	0	0	0	0	0	0	0	0	0	0	0	0	0	0	0	0	0	0	0	0	0	0	0	0	0	0	0
032619	10:23:25	10:32:48	562194	5.0.10.0	4_exp_EVA_AMP_AWA_CON	178	Rpleas_acq	Same	Rpleas	Bmasked	CS_B	2pleas	distractor1	EVAbeforeCON	acq_US_pleas_masked	acq45_masked	5	12	400	1	300	300	0	0	424	50	0	1	0	0	0	1	blank2r.bmp	0	1	+	0	3	B3r.bmp	492	1	blank2r.bmp	786	1	GKQX	786	1	blank2r.bmp	866	5	retten	866	1	!	1239	1	!	1319	0	0	0	0	0	0	0	0	0	0	0	0	0	0	0	0	0	0	0	0	0	0	0	0	0	0	0
032619	10:23:25	10:32:50	564434	5.0.10.0	4_exp_EVA_AMP_AWA_CON	178	Rpleas_acq	Same	Rpleas	Bmasked	CS_B	2pleas	distractor1	EVAbeforeCON	acq_US_pleas_masked	acq45_masked	5	13	400	1	300	300	0	0	443	50	0	1	0	0	0	1	blank2r.bmp	0	1	+	0	1	B1r.bmp	492	1	blank2r.bmp	786	1	GKQX	786	1	blank2r.bmp	866	3	spielen	866	1	!	1239	1	!	1346	0	0	0	0	0	0	0	0	0	0	0	0	0	0	0	0	0	0	0	0	0	0	0	0	0	0	0
032619	10:23:25	10:32:52	566593	5.0.10.0	4_exp_EVA_AMP_AWA_CON	178	Rpleas_acq	Same	Rpleas	Bmasked	CS_B	2pleas	distractor1	EVAbeforeCON	acq_US_pleas_masked	acq45_masked	5	14	400	1	300	300	0	0	368	50	0	1	0	0	0	1	blank2r.bmp	0	1	+	0	6	C2r.bmp	492	1	blank2r.bmp	786	1	GKQX	786	1	blank2r.bmp	866	2	schön	866	1	!	1239	1	!	1266	0	0	0	0	0	0	0	0	0	0	0	0	0	0	0	0	0	0	0	0	0	0	0	0	0	0	0
032619	10:23:25	10:32:54	568898	5.0.10.0	4_exp_EVA_AMP_AWA_CON	178	Rpleas_acq	Same	Rpleas	Bmasked	CS_B	2pleas	distractor1	EVAbeforeCON	acq_US_pleas_masked	acq45_masked	5	15	400	0	300	300	0	0	534	50	0	1	0	0	0	1	blank2r.bmp	0	1	+	0	8	C4r.bmp	492	1	blank2r.bmp	786	1	GKQX	786	1	blank2r.bmp	866	5	retten	866	1	!	1239	1	!	-1	0	0	0	0	0	0	0	0	0	0	0	0	0	0	0	0	0	0	0	0	0	0	0	0	0	0	0
032619	10:23:25	10:32:57	571004	5.0.10.0	4_exp_EVA_AMP_AWA_CON	178	Rpleas_acq	Same	Rpleas	Bmasked	CS_B	2pleas	distractor1	EVAbeforeCON	acq_US_unple_masked	acq45_masked	5	16	400	0	300	300	0	0	331	46	0	1	0	0	0	1	blank2r.bmp	0	1	+	0	4	B4r.bmp	492	1	blank2r.bmp	786	1	BMVZ	786	1	blank2r.bmp	866	5	rächen	866	1	!	-1	1	!	-1	0	0	0	0	0	0	0	0	0	0	0	0	0	0	0	0	0	0	0	0	0	0	0	0	0	0	0
032619	10:23:25	10:32:59	573163	5.0.10.0	4_exp_EVA_AMP_AWA_CON	178	Rpleas_acq	Same	Rpleas	Bmasked	CS_B	2pleas	distractor1	EVAbeforeCON	acq_US_unple_masked	acq45_masked	5	17	400	1	300	300	0	0	346	46	0	1	0	0	0	1	blank2r.bmp	0	1	+	0	7	C3r.bmp	492	1	blank2r.bmp	786	1	BMVZ	786	1	blank2r.bmp	866	6	tot	866	1	!	1239	1	!	1252	0	0	0	0	0	0	0	0	0	0	0	0	0	0	0	0	0	0	0	0	0	0	0	0	0	0	0
032619	10:23:25	10:33:01	575629	5.0.10.0	4_exp_EVA_AMP_AWA_CON	178	Rpleas_acq	Same	Rpleas	Bmasked	CS_B	2pleas	distractor1	EVAbeforeCON	acq_US_pleas_masked	acq45_masked	5	18	400	0	300	300	0	0	703	50	0	1	0	0	0	1	blank2r.bmp	0	1	+	0	6	C2r.bmp	492	1	blank2r.bmp	786	1	GKQX	786	1	blank2r.bmp	866	1	tolerant	866	1	!	1239	1	!	-1	0	0	0	0	0	0	0	0	0	0	0	0	0	0	0	0	0	0	0	0	0	0	0	0	0	0	0
032619	10:23:25	10:33:04	577988	5.0.10.0	4_exp_EVA_AMP_AWA_CON	178	Rpleas_acq	Same	Rpleas	Bmasked	CS_B	2pleas	distractor1	EVAbeforeCON	acq_US_unple_masked	acq45_masked	5	19	400	0	300	300	0	0	577	46	0	1	0	0	0	1	blank2r.bmp	0	1	+	0	2	B2r.bmp	492	1	blank2r.bmp	786	1	BMVZ	786	1	blank2r.bmp	866	2	schlecht	866	1	!	1239	1	!	-1	0	0	0	0	0	0	0	0	0	0	0	0	0	0	0	0	0	0	0	0	0	0	0	0	0	0	0
032619	10:23:25	10:33:06	580227	5.0.10.0	4_exp_EVA_AMP_AWA_CON	178	Rpleas_acq	Same	Rpleas	Bmasked	CS_B	2pleas	distractor1	EVAbeforeCON	acq_US_unple_masked	acq45_masked	5	20	400	1	300	300	0	0	422	46	0	1	0	0	0	1	blank2r.bmp	0	1	+	0	3	B3r.bmp	492	1	blank2r.bmp	786	1	BMVZ	786	1	blank2r.bmp	866	1	tyrannisch	866	1	!	1239	1	!	1319	0	0	0	0	0	0	0	0	0	0	0	0	0	0	0	0	0	0	0	0	0	0	0	0	0	0	0
032619	10:23:25	10:33:08	582479	5.0.10.0	4_exp_EVA_AMP_AWA_CON	178	Rpleas_acq	Same	Rpleas	Bmasked	CS_B	2pleas	distractor1	EVAbeforeCON	acq_US_pleas_masked	acq45_masked	5	21	400	0	300	300	0	0	479	50	0	1	0	0	0	1	blank2r.bmp	0	1	+	0	5	C1r.bmp	492	1	blank2r.bmp	786	1	GKQX	786	1	blank2r.bmp	866	6	treu	866	1	!	1239	1	!	-1	0	0	0	0	0	0	0	0	0	0	0	0	0	0	0	0	0	0	0	0	0	0	0	0	0	0	0
032619	10:23:25	10:33:10	584825	5.0.10.0	4_exp_EVA_AMP_AWA_CON	178	Rpleas_acq	Same	Rpleas	Bmasked	CS_B	2pleas	distractor1	EVAbeforeCON	acq_US_pleas_masked	acq45_masked	5	22	400	0	300	300	0	0	550	50	0	1	0	0	0	1	blank2r.bmp	0	1	+	0	4	B4r.bmp	492	1	blank2r.bmp	786	1	GKQX	786	1	blank2r.bmp	866	3	spielen	866	1	!	1239	1	!	-1	0	0	0	0	0	0	0	0	0	0	0	0	0	0	0	0	0	0	0	0	0	0	0	0	0	0	0
032619	10:23:25	10:33:13	586984	5.0.10.0	4_exp_EVA_AMP_AWA_CON	178	Rpleas_acq	Same	Rpleas	Bmasked	CS_B	2pleas	distractor1	EVAbeforeCON	acq_US_unple_masked	acq45_masked	5	23	400	1	300	300	0	0	349	46	0	1	0	0	0	1	blank2r.bmp	0	1	+	0	8	C4r.bmp	492	1	blank2r.bmp	786	1	BMVZ	786	1	blank2r.bmp	866	4	lasch	866	1	!	1239	1	!	1252	0	0	0	0	0	0	0	0	0	0	0	0	0	0	0	0	0	0	0	0	0	0	0	0	0	0	0
032619	10:23:25	10:33:15	589237	5.0.10.0	4_exp_EVA_AMP_AWA_CON	178	Rpleas_acq	Same	Rpleas	Bmasked	CS_B	2pleas	distractor1	EVAbeforeCON	acq_US_unple_masked	acq45_masked	5	24	400	0	300	300	0	0	479	46	0	1	0	0	0	1	blank2r.bmp	0	1	+	0	1	B1r.bmp	492	1	blank2r.bmp	786	1	BMVZ	786	1	blank2r.bmp	866	2	schlecht	866	1	!	1239	1	!	-1	0	0	0	0	0	0	0	0	0	0	0	0	0	0	0	0	0	0	0	0	0	0	0	0	0	0	0
032619	10:23:25	10:33:17	591489	5.0.10.0	4_exp_EVA_AMP_AWA_CON	178	Rpleas_acq	Same	Rpleas	Bmasked	CS_B	2pleas	distractor1	EVAbeforeCON	acq_US_pleas_masked	acq45_masked	5	25	400	1	300	300	0	0	441	50	0	1	0	0	0	1	blank2r.bmp	0	1	+	0	5	C1r.bmp	492	1	blank2r.bmp	786	1	GKQX	786	1	blank2r.bmp	866	4	loyal	866	1	!	1239	1	!	1346	0	0	0	0	0	0	0	0	0	0	0	0	0	0	0	0	0	0	0	0	0	0	0	0	0	0	0
032619	10:23:25	10:33:19	593542	5.0.10.0	4_exp_EVA_AMP_AWA_CON	178	Rpleas_acq	Same	Rpleas	Bmasked	CS_B	2pleas	distractor1	EVAbeforeCON	acq_US_pleas_masked	acq45_masked	5	26	400	0	300	300	0	0	291	46	0	0	0	0	0	1	blank2r.bmp	0	1	+	0	1	B1r.bmp	492	1	blank2r.bmp	786	1	GKQX	786	1	blank2r.bmp	866	2	schön	866	1	!	-1	1	!	-1	0	0	0	0	0	0	0	0	0	0	0	0	0	0	0	0	0	0	0	0	0	0	0	0	0	0	0
032619	10:23:25	10:33:21	595714	5.0.10.0	4_exp_EVA_AMP_AWA_CON	178	Rpleas_acq	Same	Rpleas	Bmasked	CS_B	2pleas	distractor1	EVAbeforeCON	acq_US_unple_masked	acq45_masked	5	27	400	1	300	300	0	0	346	46	0	1	0	0	0	1	blank2r.bmp	0	1	+	0	4	B4r.bmp	492	1	blank2r.bmp	786	1	BMVZ	786	1	blank2r.bmp	866	3	strafen	866	1	!	1239	1	!	1252	0	0	0	0	0	0	0	0	0	0	0	0	0	0	0	0	0	0	0	0	0	0	0	0	0	0	0
032619	10:23:25	10:33:24	597966	5.0.10.0	4_exp_EVA_AMP_AWA_CON	178	Rpleas_acq	Same	Rpleas	Bmasked	CS_B	2pleas	distractor1	EVAbeforeCON	acq_US_unple_masked	acq45_masked	5	28	400	1	300	300	0	0	461	46	0	1	0	0	0	1	blank2r.bmp	0	1	+	0	3	B3r.bmp	492	1	blank2r.bmp	786	1	BMVZ	786	1	blank2r.bmp	866	4	lasch	866	1	!	1239	1	!	1359	0	0	0	0	0	0	0	0	0	0	0	0	0	0	0	0	0	0	0	0	0	0	0	0	0	0	0
032619	10:23:25	10:33:26	600059	5.0.10.0	4_exp_EVA_AMP_AWA_CON	178	Rpleas_acq	Same	Rpleas	Bmasked	CS_B	2pleas	distractor1	EVAbeforeCON	acq_US_unple_masked	acq45_masked	5	29	400	0	300	300	0	0	330	46	0	1	0	0	0	1	blank2r.bmp	0	1	+	0	6	C2r.bmp	492	1	blank2r.bmp	786	1	BMVZ	786	1	blank2r.bmp	866	5	rächen	866	1	!	-1	1	!	-1	0	0	0	0	0	0	0	0	0	0	0	0	0	0	0	0	0	0	0	0	0	0	0	0	0	0	0
032619	10:23:25	10:33:28	602151	5.0.10.0	4_exp_EVA_AMP_AWA_CON	178	Rpleas_acq	Same	Rpleas	Bmasked	CS_B	2pleas	distractor1	EVAbeforeCON	acq_US_unple_masked	acq45_masked	5	30	400	0	300	300	0	0	312	46	0	1	0	0	0	1	blank2r.bmp	0	1	+	0	2	B2r.bmp	492	1	blank2r.bmp	786	1	BMVZ	786	1	blank2r.bmp	866	6	tot	866	1	!	-1	1	!	-1	0	0	0	0	0	0	0	0	0	0	0	0	0	0	0	0	0	0	0	0	0	0	0	0	0	0	0
032619	10:23:25	10:33:30	604644	5.0.10.0	4_exp_EVA_AMP_AWA_CON	178	Rpleas_acq	Same	Rpleas	Bmasked	CS_B	2pleas	distractor1	EVAbeforeCON	acq_US_pleas_masked	acq45_masked	5	31	400	0	300	300	0	0	700	46	0	0	0	0	0	1	blank2r.bmp	0	1	+	0	7	C3r.bmp	492	1	blank2r.bmp	786	1	GKQX	786	1	blank2r.bmp	866	3	spielen	866	1	!	1239	1	!	-1	0	0	0	0	0	0	0	0	0	0	0	0	0	0	0	0	0	0	0	0	0	0	0	0	0	0	0
032619	10:23:25	10:33:32	606909	5.0.10.0	4_exp_EVA_AMP_AWA_CON	178	Rpleas_acq	Same	Rpleas	Bmasked	CS_B	2pleas	distractor1	EVAbeforeCON	acq_US_unple_masked	acq45_masked	5	32	400	0	300	300	0	0	488	46	0	1	0	0	0	1	blank2r.bmp	0	1	+	0	8	C4r.bmp	492	1	blank2r.bmp	786	1	BMVZ	786	1	blank2r.bmp	866	1	tyrannisch	866	1	!	1239	1	!	-1	0	0	0	0	0	0	0	0	0	0	0	0	0	0	0	0	0	0	0	0	0	0	0	0	0	0	0
032619	10:23:25	10:33:35	609295	5.0.10.0	4_exp_EVA_AMP_AWA_CON	178	Rpleas_acq	Same	Rpleas	Bmasked	CS_B	2pleas	distractor1	EVAbeforeCON	acq_US_pleas_masked	acq45_masked	5	33	400	0	300	300	0	0	589	46	0	0	0	0	0	1	blank2r.bmp	0	1	+	0	6	C2r.bmp	492	1	blank2r.bmp	786	1	GKQX	786	1	blank2r.bmp	866	1	tolerant	866	1	!	1239	1	!	-1	0	0	0	0	0	0	0	0	0	0	0	0	0	0	0	0	0	0	0	0	0	0	0	0	0	0	0
032619	10:23:25	10:33:37	611521	5.0.10.0	4_exp_EVA_AMP_AWA_CON	178	Rpleas_acq	Same	Rpleas	Bmasked	CS_B	2pleas	distractor1	EVAbeforeCON	acq_US_pleas_masked	acq45_masked	5	34	400	1	300	300	0	0	413	50	0	1	0	0	0	1	blank2r.bmp	0	1	+	0	1	B1r.bmp	492	1	blank2r.bmp	786	1	GKQX	786	1	blank2r.bmp	866	4	loyal	866	1	!	1239	1	!	1319	0	0	0	0	0	0	0	0	0	0	0	0	0	0	0	0	0	0	0	0	0	0	0	0	0	0	0
032619	10:23:25	10:33:39	613707	5.0.10.0	4_exp_EVA_AMP_AWA_CON	178	Rpleas_acq	Same	Rpleas	Bmasked	CS_B	2pleas	distractor1	EVAbeforeCON	acq_US_pleas_masked	acq45_masked	5	35	400	1	300	300	0	0	397	50	0	1	0	0	0	1	blank2r.bmp	0	1	+	0	8	C4r.bmp	492	1	blank2r.bmp	786	1	GKQX	786	1	blank2r.bmp	866	6	treu	866	1	!	1239	1	!	1292	0	0	0	0	0	0	0	0	0	0	0	0	0	0	0	0	0	0	0	0	0	0	0	0	0	0	0
032619	10:23:25	10:33:42	616012	5.0.10.0	4_exp_EVA_AMP_AWA_CON	178	Rpleas_acq	Same	Rpleas	Bmasked	CS_B	2pleas	distractor1	EVAbeforeCON	acq_US_pleas_masked	acq45_masked	5	36	400	0	300	300	0	0	543	50	0	1	0	0	0	1	blank2r.bmp	0	1	+	0	4	B4r.bmp	492	1	blank2r.bmp	786	1	GKQX	786	1	blank2r.bmp	866	5	retten	866	1	!	1239	1	!	-1	0	0	0	0	0	0	0	0	0	0	0	0	0	0	0	0	0	0	0	0	0	0	0	0	0	0	0
032619	10:23:25	10:34:05	639363	5.0.10.0	4_exp_EVA_AMP_AWA_CON	178	Rpleas_acq	Same	Rpleas	Bmasked	CS_B	2pleas	distractor1	EVAbeforeCON	EvalRating_firsttwo	EvalRating_firsttwo	6	1	0	0	300	300	0	0	5556	line	-37,1093749999999928946	0	0	0	0	1	eraser	0	1	Wie angenehm oder unangenehm finden Sie die  Buchstabenkette WFPH?	0	1	leftborder	0	1	rightborder	0	1	line	0	1	Unangenehm	0	1	Angenehm	0	0	0	0	0	0	0	0	0	0	0	0	0	0	0	0	0	0	0	0	0	0	0	0	0	0	0	0	0	0	0	0	0	0
032619	10:23:25	10:34:12	646546	5.0.10.0	4_exp_EVA_AMP_AWA_CON	178	Rpleas_acq	Same	Rpleas	Bmasked	CS_B	2pleas	distractor1	EVAbeforeCON	EvalRating_lastfour	EvalRating_lastfour	7	1	0	0	300	300	0	0	4737	line	22,216796875	0	0	0	0	1	eraser	0	1	Wie angenehm oder unangenehm finden Sie die  Buchstabenkette BMVZ?	0	1	leftborder	0	1	rightborder	0	1	line	0	1	Unangenehm	0	1	Angenehm	0	0	0	0	0	0	0	0	0	0	0	0	0	0	0	0	0	0	0	0	0	0	0	0	0	0	0	0	0	0	0	0	0	0
032619	10:23:25	10:34:14	648932	5.0.10.0	4_exp_EVA_AMP_AWA_CON	178	Rpleas_acq	Same	Rpleas	Bmasked	CS_B	2pleas	distractor1	EVAbeforeCON	blank_screen	EvalRating_lastfour	7	3	0	0	300	300	0	0	0	0	22,216796875	0	0	0	0	1	eraser	0	0	0	0	0	0	0	0	0	0	0	0	0	0	0	0	0	0	0	0	0	0	0	0	0	0	0	0	0	0	0	0	0	0	0	0	0	0	0	0	0	0	0	0	0	0	0	0	0	0	0	0
032619	10:23:25	10:34:23	657382	5.0.10.0	4_exp_EVA_AMP_AWA_CON	178	Rpleas_acq	Same	Rpleas	Bmasked	CS_B	2pleas	distractor1	EVAbeforeCON	EvalRating_lastfour	EvalRating_lastfour	7	4	0	0	300	300	0	0	7854	line	-24,169921875	0	0	0	0	1	eraser	0	3	Wie angenehm oder unangenehm finden Sie die  Buchstabenkette JCRD?	0	1	leftborder	0	1	rightborder	0	1	line	0	1	Unangenehm	0	1	Angenehm	0	0	0	0	0	0	0	0	0	0	0	0	0	0	0	0	0	0	0	0	0	0	0	0	0	0	0	0	0	0	0	0	0	0
032619	10:23:25	10:34:25	659768	5.0.10.0	4_exp_EVA_AMP_AWA_CON	178	Rpleas_acq	Same	Rpleas	Bmasked	CS_B	2pleas	distractor1	EVAbeforeCON	blank_screen	EvalRating_lastfour	7	6	0	0	300	300	0	0	0	0	-24,169921875	0	0	0	0	1	eraser	0	0	0	0	0	0	0	0	0	0	0	0	0	0	0	0	0	0	0	0	0	0	0	0	0	0	0	0	0	0	0	0	0	0	0	0	0	0	0	0	0	0	0	0	0	0	0	0	0	0	0	0
032619	10:23:25	10:34:29	663366	5.0.10.0	4_exp_EVA_AMP_AWA_CON	178	Rpleas_acq	Same	Rpleas	Bmasked	CS_B	2pleas	distractor1	EVAbeforeCON	EvalRating_lastfour	EvalRating_lastfour	7	7	0	0	300	300	0	0	3020	line	-63,9648437499999928946	0	0	0	0	1	eraser	0	2	Wie angenehm oder unangenehm finden Sie die  Buchstabenkette GKQX?	0	1	leftborder	0	1	rightborder	0	1	line	0	1	Unangenehm	0	1	Angenehm	0	0	0	0	0	0	0	0	0	0	0	0	0	0	0	0	0	0	0	0	0	0	0	0	0	0	0	0	0	0	0	0	0	0
032619	10:23:25	10:35:09	703456	5.0.10.0	4_exp_EVA_AMP_AWA_CON	178	Rpleas_acq	Same	Rpleas	Bmasked	CS_B	2pleas	distractor1	EVAbeforeCON	AMP_CSpleas	AMP1_masked	8	1	0	0	300	300	0	0	3085	46	-63,9648437499999928946	0	0	0	0	1	blank2r.bmp	0	1	GKQX	0	1	blank2r.bmp	79	103	pic103.bmp	199	1	whitenoise_No3.bmp	306	0	0	0	0	0	0	0	0	0	0	0	0	0	0	0	0	0	0	0	0	0	0	0	0	0	0	0	0	0	0	0	0	0	0	0	0	0	0	0
032619	10:23:25	10:35:11	705855	5.0.10.0	4_exp_EVA_AMP_AWA_CON	178	Rpleas_acq	Same	Rpleas	Bmasked	CS_B	2pleas	distractor1	EVAbeforeCON	AMP_CSunple	AMP1_masked	8	2	0	0	300	300	0	0	1474	50	-63,9648437499999928946	0	0	0	0	1	blank2r.bmp	0	1	BMVZ	0	1	blank2r.bmp	79	139	pic139.bmp	199	1	whitenoise_No3.bmp	306	0	0	0	0	0	0	0	0	0	0	0	0	0	0	0	0	0	0	0	0	0	0	0	0	0	0	0	0	0	0	0	0	0	0	0	0	0	0	0
032619	10:23:25	10:35:14	708468	5.0.10.0	4_exp_EVA_AMP_AWA_CON	178	Rpleas_acq	Same	Rpleas	Bmasked	CS_B	2pleas	distractor1	EVAbeforeCON	AMP_CSpleas	AMP1_masked	8	3	0	0	300	300	0	0	1687	46	-63,9648437499999928946	0	0	0	0	1	blank2r.bmp	0	1	GKQX	0	1	blank2r.bmp	79	121	pic121.bmp	199	1	whitenoise_No3.bmp	306	0	0	0	0	0	0	0	0	0	0	0	0	0	0	0	0	0	0	0	0	0	0	0	0	0	0	0	0	0	0	0	0	0	0	0	0	0	0	0
032619	10:23:25	10:35:17	711573	5.0.10.0	4_exp_EVA_AMP_AWA_CON	178	Rpleas_acq	Same	Rpleas	Bmasked	CS_B	2pleas	distractor1	EVAbeforeCON	AMP_CSunple	AMP1_masked	8	4	0	0	300	300	0	0	2187	50	-63,9648437499999928946	0	0	0	0	1	blank2r.bmp	0	1	BMVZ	0	1	blank2r.bmp	79	73	pic73.bmp	199	1	whitenoise_No3.bmp	306	0	0	0	0	0	0	0	0	0	0	0	0	0	0	0	0	0	0	0	0	0	0	0	0	0	0	0	0	0	0	0	0	0	0	0	0	0	0	0
032619	10:23:25	10:35:19	713172	5.0.10.0	4_exp_EVA_AMP_AWA_CON	178	Rpleas_acq	Same	Rpleas	Bmasked	CS_B	2pleas	distractor1	EVAbeforeCON	AMP_CSpleas	AMP1_masked	8	5	0	0	300	300	0	0	688	46	-63,9648437499999928946	0	0	0	0	1	blank2r.bmp	0	1	GKQX	0	1	blank2r.bmp	79	133	pic133.bmp	199	1	whitenoise_No3.bmp	306	0	0	0	0	0	0	0	0	0	0	0	0	0	0	0	0	0	0	0	0	0	0	0	0	0	0	0	0	0	0	0	0	0	0	0	0	0	0	0
032619	10:23:25	10:35:20	714585	5.0.10.0	4_exp_EVA_AMP_AWA_CON	178	Rpleas_acq	Same	Rpleas	Bmasked	CS_B	2pleas	distractor1	EVAbeforeCON	AMP_CSunple	AMP1_masked	8	6	0	0	300	300	0	0	486	50	-63,9648437499999928946	0	0	0	0	1	blank2r.bmp	0	1	BMVZ	0	1	blank2r.bmp	79	18	pic18.bmp	199	1	whitenoise_No3.bmp	306	0	0	0	0	0	0	0	0	0	0	0	0	0	0	0	0	0	0	0	0	0	0	0	0	0	0	0	0	0	0	0	0	0	0	0	0	0	0	0
032619	10:23:25	10:35:23	717810	5.0.10.0	4_exp_EVA_AMP_AWA_CON	178	Rpleas_acq	Same	Rpleas	Bmasked	CS_B	2pleas	distractor1	EVAbeforeCON	AMP_CSpleas	AMP1_masked	8	7	0	0	300	300	0	0	2314	50	-63,9648437499999928946	1	0	0	0	1	blank2r.bmp	0	1	GKQX	0	1	blank2r.bmp	79	107	pic107.bmp	199	1	whitenoise_No3.bmp	306	0	0	0	0	0	0	0	0	0	0	0	0	0	0	0	0	0	0	0	0	0	0	0	0	0	0	0	0	0	0	0	0	0	0	0	0	0	0	0
032619	10:23:25	10:35:26	719996	5.0.10.0	4_exp_EVA_AMP_AWA_CON	178	Rpleas_acq	Same	Rpleas	Bmasked	CS_B	2pleas	distractor1	EVAbeforeCON	AMP_CSpleas	AMP1_masked	8	8	0	0	300	300	0	0	1272	50	-63,9648437499999928946	1	0	0	0	1	blank2r.bmp	0	1	GKQX	0	1	blank2r.bmp	79	140	pic140.bmp	199	1	whitenoise_No3.bmp	306	0	0	0	0	0	0	0	0	0	0	0	0	0	0	0	0	0	0	0	0	0	0	0	0	0	0	0	0	0	0	0	0	0	0	0	0	0	0	0
032619	10:23:25	10:35:27	721755	5.0.10.0	4_exp_EVA_AMP_AWA_CON	178	Rpleas_acq	Same	Rpleas	Bmasked	CS_B	2pleas	distractor1	EVAbeforeCON	AMP_CSpleas	AMP1_masked	8	9	0	0	300	300	0	0	842	46	-63,9648437499999928946	0	0	0	0	1	blank2r.bmp	0	1	GKQX	0	1	blank2r.bmp	79	56	pic56.bmp	199	1	whitenoise_No3.bmp	306	0	0	0	0	0	0	0	0	0	0	0	0	0	0	0	0	0	0	0	0	0	0	0	0	0	0	0	0	0	0	0	0	0	0	0	0	0	0	0
032619	10:23:25	10:35:29	723501	5.0.10.0	4_exp_EVA_AMP_AWA_CON	178	Rpleas_acq	Same	Rpleas	Bmasked	CS_B	2pleas	distractor1	EVAbeforeCON	AMP_distractor	AMP1_masked	8	10	0	0	300	300	0	0	828	50	-63,9648437499999928946	0	0	0	0	1	blank2r.bmp	0	1	WFPH	0	1	blank2r.bmp	79	39	pic39.bmp	199	1	whitenoise_No3.bmp	306	0	0	0	0	0	0	0	0	0	0	0	0	0	0	0	0	0	0	0	0	0	0	0	0	0	0	0	0	0	0	0	0	0	0	0	0	0	0	0
032619	10:23:25	10:35:32	726260	5.0.10.0	4_exp_EVA_AMP_AWA_CON	178	Rpleas_acq	Same	Rpleas	Bmasked	CS_B	2pleas	distractor1	EVAbeforeCON	AMP_distractor	AMP1_masked	8	11	0	0	300	300	0	0	1828	50	-63,9648437499999928946	0	0	0	0	1	blank2r.bmp	0	1	WFPH	0	1	blank2r.bmp	79	57	pic57.bmp	199	1	whitenoise_No3.bmp	306	0	0	0	0	0	0	0	0	0	0	0	0	0	0	0	0	0	0	0	0	0	0	0	0	0	0	0	0	0	0	0	0	0	0	0	0	0	0	0
032619	10:23:25	10:35:34	728113	5.0.10.0	4_exp_EVA_AMP_AWA_CON	178	Rpleas_acq	Same	Rpleas	Bmasked	CS_B	2pleas	distractor1	EVAbeforeCON	AMP_CSunple	AMP1_masked	8	12	0	0	300	300	0	0	921	50	-63,9648437499999928946	0	0	0	0	1	blank2r.bmp	0	1	BMVZ	0	1	blank2r.bmp	79	111	pic111.bmp	199	1	whitenoise_No3.bmp	306	0	0	0	0	0	0	0	0	0	0	0	0	0	0	0	0	0	0	0	0	0	0	0	0	0	0	0	0	0	0	0	0	0	0	0	0	0	0	0
032619	10:23:25	10:35:36	730019	5.0.10.0	4_exp_EVA_AMP_AWA_CON	178	Rpleas_acq	Same	Rpleas	Bmasked	CS_B	2pleas	distractor1	EVAbeforeCON	AMP_distractor	AMP1_masked	8	13	0	0	300	300	0	0	989	50	-63,9648437499999928946	0	0	0	0	1	blank2r.bmp	0	1	WFPH	0	1	blank2r.bmp	79	122	pic122.bmp	199	1	whitenoise_No3.bmp	306	0	0	0	0	0	0	0	0	0	0	0	0	0	0	0	0	0	0	0	0	0	0	0	0	0	0	0	0	0	0	0	0	0	0	0	0	0	0	0
032619	10:23:25	10:35:37	731658	5.0.10.0	4_exp_EVA_AMP_AWA_CON	178	Rpleas_acq	Same	Rpleas	Bmasked	CS_B	2pleas	distractor1	EVAbeforeCON	AMP_CSpleas	AMP1_masked	8	14	0	0	300	300	0	0	712	50	-63,9648437499999928946	1	0	0	0	1	blank2r.bmp	0	1	GKQX	0	1	blank2r.bmp	79	124	pic124.bmp	199	1	whitenoise_No3.bmp	306	0	0	0	0	0	0	0	0	0	0	0	0	0	0	0	0	0	0	0	0	0	0	0	0	0	0	0	0	0	0	0	0	0	0	0	0	0	0	0
032619	10:23:25	10:35:39	733071	5.0.10.0	4_exp_EVA_AMP_AWA_CON	178	Rpleas_acq	Same	Rpleas	Bmasked	CS_B	2pleas	distractor1	EVAbeforeCON	AMP_distractor	AMP1_masked	8	15	0	0	300	300	0	0	485	46	-63,9648437499999928946	0	0	0	0	1	blank2r.bmp	0	1	WFPH	0	1	blank2r.bmp	79	76	pic76.bmp	199	1	whitenoise_No3.bmp	306	0	0	0	0	0	0	0	0	0	0	0	0	0	0	0	0	0	0	0	0	0	0	0	0	0	0	0	0	0	0	0	0	0	0	0	0	0	0	0
032619	10:23:25	10:35:40	734670	5.0.10.0	4_exp_EVA_AMP_AWA_CON	178	Rpleas_acq	Same	Rpleas	Bmasked	CS_B	2pleas	distractor1	EVAbeforeCON	AMP_distractor	AMP1_masked	8	16	0	0	300	300	0	0	690	46	-63,9648437499999928946	0	0	0	0	1	blank2r.bmp	0	1	WFPH	0	1	blank2r.bmp	79	61	pic61.bmp	199	1	whitenoise_No3.bmp	306	0	0	0	0	0	0	0	0	0	0	0	0	0	0	0	0	0	0	0	0	0	0	0	0	0	0	0	0	0	0	0	0	0	0	0	0	0	0	0
032619	10:23:25	10:35:42	736763	5.0.10.0	4_exp_EVA_AMP_AWA_CON	178	Rpleas_acq	Same	Rpleas	Bmasked	CS_B	2pleas	distractor1	EVAbeforeCON	AMP_CSpleas	AMP1_masked	8	17	0	0	300	300	0	0	1161	50	-63,9648437499999928946	1	0	0	0	1	blank2r.bmp	0	1	GKQX	0	1	blank2r.bmp	79	92	pic92.bmp	199	1	whitenoise_No3.bmp	306	0	0	0	0	0	0	0	0	0	0	0	0	0	0	0	0	0	0	0	0	0	0	0	0	0	0	0	0	0	0	0	0	0	0	0	0	0	0	0
032619	10:23:25	10:35:44	738642	5.0.10.0	4_exp_EVA_AMP_AWA_CON	178	Rpleas_acq	Same	Rpleas	Bmasked	CS_B	2pleas	distractor1	EVAbeforeCON	AMP_CSunple	AMP1_masked	8	18	0	0	300	300	0	0	965	50	-63,9648437499999928946	0	0	0	0	1	blank2r.bmp	0	1	BMVZ	0	1	blank2r.bmp	79	19	pic19.bmp	199	1	whitenoise_No3.bmp	306	0	0	0	0	0	0	0	0	0	0	0	0	0	0	0	0	0	0	0	0	0	0	0	0	0	0	0	0	0	0	0	0	0	0	0	0	0	0	0
032619	10:23:25	10:35:47	740988	5.0.10.0	4_exp_EVA_AMP_AWA_CON	178	Rpleas_acq	Same	Rpleas	Bmasked	CS_B	2pleas	distractor1	EVAbeforeCON	AMP_CSpleas	AMP1_masked	8	19	0	0	300	300	0	0	1411	50	-63,9648437499999928946	1	0	0	0	1	blank2r.bmp	0	1	GKQX	0	1	blank2r.bmp	79	90	pic90.bmp	199	1	whitenoise_No3.bmp	306	0	0	0	0	0	0	0	0	0	0	0	0	0	0	0	0	0	0	0	0	0	0	0	0	0	0	0	0	0	0	0	0	0	0	0	0	0	0	0
032619	10:23:25	10:35:48	742547	5.0.10.0	4_exp_EVA_AMP_AWA_CON	178	Rpleas_acq	Same	Rpleas	Bmasked	CS_B	2pleas	distractor1	EVAbeforeCON	AMP_CSunple	AMP1_masked	8	20	0	0	300	300	0	0	644	46	-63,9648437499999928946	1	0	0	0	1	blank2r.bmp	0	1	BMVZ	0	1	blank2r.bmp	79	88	pic88.bmp	199	1	whitenoise_No3.bmp	306	0	0	0	0	0	0	0	0	0	0	0	0	0	0	0	0	0	0	0	0	0	0	0	0	0	0	0	0	0	0	0	0	0	0	0	0	0	0	0
032619	10:23:25	10:35:50	744173	5.0.10.0	4_exp_EVA_AMP_AWA_CON	178	Rpleas_acq	Same	Rpleas	Bmasked	CS_B	2pleas	distractor1	EVAbeforeCON	AMP_distractor	AMP1_masked	8	21	0	0	300	300	0	0	701	46	-63,9648437499999928946	0	0	0	0	1	blank2r.bmp	0	1	WFPH	0	1	blank2r.bmp	79	6	pic6.bmp	199	1	whitenoise_No3.bmp	306	0	0	0	0	0	0	0	0	0	0	0	0	0	0	0	0	0	0	0	0	0	0	0	0	0	0	0	0	0	0	0	0	0	0	0	0	0	0	0
032619	10:23:25	10:35:51	745732	5.0.10.0	4_exp_EVA_AMP_AWA_CON	178	Rpleas_acq	Same	Rpleas	Bmasked	CS_B	2pleas	distractor1	EVAbeforeCON	AMP_distractor	AMP1_masked	8	22	0	0	300	300	0	0	640	50	-63,9648437499999928946	0	0	0	0	1	blank2r.bmp	0	1	WFPH	0	1	blank2r.bmp	79	114	pic114.bmp	199	1	whitenoise_No3.bmp	306	0	0	0	0	0	0	0	0	0	0	0	0	0	0	0	0	0	0	0	0	0	0	0	0	0	0	0	0	0	0	0	0	0	0	0	0	0	0	0
032619	10:23:25	10:35:53	747318	5.0.10.0	4_exp_EVA_AMP_AWA_CON	178	Rpleas_acq	Same	Rpleas	Bmasked	CS_B	2pleas	distractor1	EVAbeforeCON	AMP_CSunple	AMP1_masked	8	23	0	0	300	300	0	0	672	46	-63,9648437499999928946	1	0	0	0	1	blank2r.bmp	0	1	BMVZ	0	1	blank2r.bmp	79	106	pic106.bmp	199	1	whitenoise_No3.bmp	306	0	0	0	0	0	0	0	0	0	0	0	0	0	0	0	0	0	0	0	0	0	0	0	0	0	0	0	0	0	0	0	0	0	0	0	0	0	0	0
032619	10:23:25	10:35:54	748891	5.0.10.0	4_exp_EVA_AMP_AWA_CON	178	Rpleas_acq	Same	Rpleas	Bmasked	CS_B	2pleas	distractor1	EVAbeforeCON	AMP_CSunple	AMP1_masked	8	24	0	0	300	300	0	0	650	46	-63,9648437499999928946	1	0	0	0	1	blank2r.bmp	0	1	BMVZ	0	1	blank2r.bmp	79	36	pic36.bmp	199	1	whitenoise_No3.bmp	306	0	0	0	0	0	0	0	0	0	0	0	0	0	0	0	0	0	0	0	0	0	0	0	0	0	0	0	0	0	0	0	0	0	0	0	0	0	0	0
032619	10:23:25	10:35:56	750690	5.0.10.0	4_exp_EVA_AMP_AWA_CON	178	Rpleas_acq	Same	Rpleas	Bmasked	CS_B	2pleas	distractor1	EVAbeforeCON	AMP_distractor	AMP1_masked	8	25	0	0	300	300	0	0	872	46	-63,9648437499999928946	0	0	0	0	1	blank2r.bmp	0	1	WFPH	0	1	blank2r.bmp	79	71	pic71.bmp	199	1	whitenoise_No3.bmp	306	0	0	0	0	0	0	0	0	0	0	0	0	0	0	0	0	0	0	0	0	0	0	0	0	0	0	0	0	0	0	0	0	0	0	0	0	0	0	0
032619	10:23:25	10:35:58	752156	5.0.10.0	4_exp_EVA_AMP_AWA_CON	178	Rpleas_acq	Same	Rpleas	Bmasked	CS_B	2pleas	distractor1	EVAbeforeCON	AMP_CSunple	AMP1_masked	8	26	0	0	300	300	0	0	534	50	-63,9648437499999928946	0	0	0	0	1	blank2r.bmp	0	1	BMVZ	0	1	blank2r.bmp	79	112	pic112.bmp	199	1	whitenoise_No3.bmp	306	0	0	0	0	0	0	0	0	0	0	0	0	0	0	0	0	0	0	0	0	0	0	0	0	0	0	0	0	0	0	0	0	0	0	0	0	0	0	0
032619	10:23:25	10:35:59	753929	5.0.10.0	4_exp_EVA_AMP_AWA_CON	178	Rpleas_acq	Same	Rpleas	Bmasked	CS_B	2pleas	distractor1	EVAbeforeCON	AMP_CSunple	AMP1_masked	8	27	0	0	300	300	0	0	842	50	-63,9648437499999928946	0	0	0	0	1	blank2r.bmp	0	1	BMVZ	0	1	blank2r.bmp	79	143	pic143.bmp	199	1	whitenoise_No3.bmp	306	0	0	0	0	0	0	0	0	0	0	0	0	0	0	0	0	0	0	0	0	0	0	0	0	0	0	0	0	0	0	0	0	0	0	0	0	0	0	0
032619	10:23:25	10:36:01	755528	5.0.10.0	4_exp_EVA_AMP_AWA_CON	178	Rpleas_acq	Same	Rpleas	Bmasked	CS_B	2pleas	distractor1	EVAbeforeCON	AMP_distractor	AMP1_masked	8	28	0	0	300	300	0	0	681	50	-63,9648437499999928946	0	0	0	0	1	blank2r.bmp	0	1	WFPH	0	1	blank2r.bmp	79	94	pic94.bmp	199	1	whitenoise_No3.bmp	306	0	0	0	0	0	0	0	0	0	0	0	0	0	0	0	0	0	0	0	0	0	0	0	0	0	0	0	0	0	0	0	0	0	0	0	0	0	0	0
032619	10:23:25	10:36:03	757034	5.0.10.0	4_exp_EVA_AMP_AWA_CON	178	Rpleas_acq	Same	Rpleas	Bmasked	CS_B	2pleas	distractor1	EVAbeforeCON	AMP_CSpleas	AMP1_masked	8	29	0	0	300	300	0	0	580	46	-63,9648437499999928946	0	0	0	0	1	blank2r.bmp	0	1	GKQX	0	1	blank2r.bmp	79	46	pic46.bmp	199	1	whitenoise_No3.bmp	306	0	0	0	0	0	0	0	0	0	0	0	0	0	0	0	0	0	0	0	0	0	0	0	0	0	0	0	0	0	0	0	0	0	0	0	0	0	0	0
032619	10:23:25	10:36:05	759287	5.0.10.0	4_exp_EVA_AMP_AWA_CON	178	Rpleas_acq	Same	Rpleas	Bmasked	CS_B	2pleas	distractor1	EVAbeforeCON	AMP_CSunple	AMP1_masked	8	30	0	0	300	300	0	0	1318	50	-63,9648437499999928946	0	0	0	0	1	blank2r.bmp	0	1	BMVZ	0	1	blank2r.bmp	79	34	pic34.bmp	199	1	whitenoise_No3.bmp	306	0	0	0	0	0	0	0	0	0	0	0	0	0	0	0	0	0	0	0	0	0	0	0	0	0	0	0	0	0	0	0	0	0	0	0	0	0	0	0
032619	10:23:25	10:36:07	761219	5.0.10.0	4_exp_EVA_AMP_AWA_CON	178	Rpleas_acq	Same	Rpleas	Bmasked	CS_B	2pleas	distractor1	EVAbeforeCON	AMP_distractor	AMP1_masked	8	31	0	0	300	300	0	0	999	50	-63,9648437499999928946	0	0	0	0	1	blank2r.bmp	0	1	WFPH	0	1	blank2r.bmp	79	147	pic147.bmp	199	1	whitenoise_No3.bmp	306	0	0	0	0	0	0	0	0	0	0	0	0	0	0	0	0	0	0	0	0	0	0	0	0	0	0	0	0	0	0	0	0	0	0	0	0	0	0	0
032619	10:23:25	10:36:09	763032	5.0.10.0	4_exp_EVA_AMP_AWA_CON	178	Rpleas_acq	Same	Rpleas	Bmasked	CS_B	2pleas	distractor1	EVAbeforeCON	AMP_distractor	AMP1_masked	8	32	0	0	300	300	0	0	896	50	-63,9648437499999928946	0	0	0	0	1	blank2r.bmp	0	1	WFPH	0	1	blank2r.bmp	79	134	pic134.bmp	199	1	whitenoise_No3.bmp	306	0	0	0	0	0	0	0	0	0	0	0	0	0	0	0	0	0	0	0	0	0	0	0	0	0	0	0	0	0	0	0	0	0	0	0	0	0	0	0
032619	10:23:25	10:36:10	764818	5.0.10.0	4_exp_EVA_AMP_AWA_CON	178	Rpleas_acq	Same	Rpleas	Bmasked	CS_B	2pleas	distractor1	EVAbeforeCON	AMP_CSunple	AMP1_masked	8	33	0	0	300	300	0	0	857	50	-63,9648437499999928946	0	0	0	0	1	blank2r.bmp	0	1	BMVZ	0	1	blank2r.bmp	79	142	pic142.bmp	199	1	whitenoise_No3.bmp	306	0	0	0	0	0	0	0	0	0	0	0	0	0	0	0	0	0	0	0	0	0	0	0	0	0	0	0	0	0	0	0	0	0	0	0	0	0	0	0
032619	10:23:25	10:36:12	766617	5.0.10.0	4_exp_EVA_AMP_AWA_CON	178	Rpleas_acq	Same	Rpleas	Bmasked	CS_B	2pleas	distractor1	EVAbeforeCON	AMP_distractor	AMP1_masked	8	34	0	0	300	300	0	0	882	50	-63,9648437499999928946	0	0	0	0	1	blank2r.bmp	0	1	WFPH	0	1	blank2r.bmp	79	130	pic130.bmp	199	1	whitenoise_No3.bmp	306	0	0	0	0	0	0	0	0	0	0	0	0	0	0	0	0	0	0	0	0	0	0	0	0	0	0	0	0	0	0	0	0	0	0	0	0	0	0	0
032619	10:23:25	10:36:14	768123	5.0.10.0	4_exp_EVA_AMP_AWA_CON	178	Rpleas_acq	Same	Rpleas	Bmasked	CS_B	2pleas	distractor1	EVAbeforeCON	AMP_distractor	AMP1_masked	8	35	0	0	300	300	0	0	580	46	-63,9648437499999928946	0	0	0	0	1	blank2r.bmp	0	1	WFPH	0	1	blank2r.bmp	79	5	pic5.bmp	199	1	whitenoise_No3.bmp	306	0	0	0	0	0	0	0	0	0	0	0	0	0	0	0	0	0	0	0	0	0	0	0	0	0	0	0	0	0	0	0	0	0	0	0	0	0	0	0
032619	10:23:25	10:36:15	769522	5.0.10.0	4_exp_EVA_AMP_AWA_CON	178	Rpleas_acq	Same	Rpleas	Bmasked	CS_B	2pleas	distractor1	EVAbeforeCON	AMP_CSpleas	AMP1_masked	8	36	0	0	300	300	0	0	480	46	-63,9648437499999928946	0	0	0	0	1	blank2r.bmp	0	1	GKQX	0	1	blank2r.bmp	79	31	pic31.bmp	199	1	whitenoise_No3.bmp	306	0	0	0	0	0	0	0	0	0	0	0	0	0	0	0	0	0	0	0	0	0	0	0	0	0	0	0	0	0	0	0	0	0	0	0	0	0	0	0
032619	10:23:25	10:36:17	771082	5.0.10.0	4_exp_EVA_AMP_AWA_CON	178	Rpleas_acq	Same	Rpleas	Bmasked	CS_B	2pleas	distractor1	EVAbeforeCON	AMP_CSpleas	AMP1_masked	8	37	0	0	300	300	0	0	644	46	-63,9648437499999928946	0	0	0	0	1	blank2r.bmp	0	1	GKQX	0	1	blank2r.bmp	79	28	pic28.bmp	199	1	whitenoise_No3.bmp	306	0	0	0	0	0	0	0	0	0	0	0	0	0	0	0	0	0	0	0	0	0	0	0	0	0	0	0	0	0	0	0	0	0	0	0	0	0	0	0
032619	10:23:25	10:36:18	772655	5.0.10.0	4_exp_EVA_AMP_AWA_CON	178	Rpleas_acq	Same	Rpleas	Bmasked	CS_B	2pleas	distractor1	EVAbeforeCON	AMP_distractor	AMP1_masked	8	38	0	0	300	300	0	0	645	46	-63,9648437499999928946	0	0	0	0	1	blank2r.bmp	0	1	WFPH	0	1	blank2r.bmp	79	80	pic80.bmp	199	1	whitenoise_No3.bmp	306	0	0	0	0	0	0	0	0	0	0	0	0	0	0	0	0	0	0	0	0	0	0	0	0	0	0	0	0	0	0	0	0	0	0	0	0	0	0	0
032619	10:23:25	10:36:20	774067	5.0.10.0	4_exp_EVA_AMP_AWA_CON	178	Rpleas_acq	Same	Rpleas	Bmasked	CS_B	2pleas	distractor1	EVAbeforeCON	AMP_CSpleas	AMP1_masked	8	39	0	0	300	300	0	0	479	50	-63,9648437499999928946	1	0	0	0	1	blank2r.bmp	0	1	GKQX	0	1	blank2r.bmp	79	105	pic105.bmp	199	1	whitenoise_No3.bmp	306	0	0	0	0	0	0	0	0	0	0	0	0	0	0	0	0	0	0	0	0	0	0	0	0	0	0	0	0	0	0	0	0	0	0	0	0	0	0	0
032619	10:23:25	10:36:21	775480	5.0.10.0	4_exp_EVA_AMP_AWA_CON	178	Rpleas_acq	Same	Rpleas	Bmasked	CS_B	2pleas	distractor1	EVAbeforeCON	AMP_CSunple	AMP1_masked	8	40	0	0	300	300	0	0	502	46	-63,9648437499999928946	1	0	0	0	1	blank2r.bmp	0	1	BMVZ	0	1	blank2r.bmp	79	81	pic81.bmp	199	1	whitenoise_No3.bmp	306	0	0	0	0	0	0	0	0	0	0	0	0	0	0	0	0	0	0	0	0	0	0	0	0	0	0	0	0	0	0	0	0	0	0	0	0	0	0	0
032619	10:23:25	10:36:23	777226	5.0.10.0	4_exp_EVA_AMP_AWA_CON	178	Rpleas_acq	Same	Rpleas	Bmasked	CS_B	2pleas	distractor1	EVAbeforeCON	AMP_CSpleas	AMP1_masked	8	41	0	0	300	300	0	0	822	50	-63,9648437499999928946	1	0	0	0	1	blank2r.bmp	0	1	GKQX	0	1	blank2r.bmp	79	128	pic128.bmp	199	1	whitenoise_No3.bmp	306	0	0	0	0	0	0	0	0	0	0	0	0	0	0	0	0	0	0	0	0	0	0	0	0	0	0	0	0	0	0	0	0	0	0	0	0	0	0	0
032619	10:23:25	10:36:24	778892	5.0.10.0	4_exp_EVA_AMP_AWA_CON	178	Rpleas_acq	Same	Rpleas	Bmasked	CS_B	2pleas	distractor1	EVAbeforeCON	AMP_CSpleas	AMP1_masked	8	42	0	0	300	300	0	0	734	50	-63,9648437499999928946	1	0	0	0	1	blank2r.bmp	0	1	GKQX	0	1	blank2r.bmp	79	84	pic84.bmp	199	1	whitenoise_No3.bmp	306	0	0	0	0	0	0	0	0	0	0	0	0	0	0	0	0	0	0	0	0	0	0	0	0	0	0	0	0	0	0	0	0	0	0	0	0	0	0	0
032619	10:23:25	10:36:26	780425	5.0.10.0	4_exp_EVA_AMP_AWA_CON	178	Rpleas_acq	Same	Rpleas	Bmasked	CS_B	2pleas	distractor1	EVAbeforeCON	AMP_CSunple	AMP1_masked	8	43	0	0	300	300	0	0	620	50	-63,9648437499999928946	0	0	0	0	1	blank2r.bmp	0	1	BMVZ	0	1	blank2r.bmp	79	4	pic4.bmp	199	1	whitenoise_No3.bmp	306	0	0	0	0	0	0	0	0	0	0	0	0	0	0	0	0	0	0	0	0	0	0	0	0	0	0	0	0	0	0	0	0	0	0	0	0	0	0	0
032619	10:23:25	10:36:27	781824	5.0.10.0	4_exp_EVA_AMP_AWA_CON	178	Rpleas_acq	Same	Rpleas	Bmasked	CS_B	2pleas	distractor1	EVAbeforeCON	AMP_CSpleas	AMP1_masked	8	44	0	0	300	300	0	0	468	46	-63,9648437499999928946	0	0	0	0	1	blank2r.bmp	0	1	GKQX	0	1	blank2r.bmp	79	44	pic44.bmp	199	1	whitenoise_No3.bmp	306	0	0	0	0	0	0	0	0	0	0	0	0	0	0	0	0	0	0	0	0	0	0	0	0	0	0	0	0	0	0	0	0	0	0	0	0	0	0	0
032619	10:23:25	10:36:29	783290	5.0.10.0	4_exp_EVA_AMP_AWA_CON	178	Rpleas_acq	Same	Rpleas	Bmasked	CS_B	2pleas	distractor1	EVAbeforeCON	AMP_distractor	AMP1_masked	8	45	0	0	300	300	0	0	546	50	-63,9648437499999928946	0	0	0	0	1	blank2r.bmp	0	1	WFPH	0	1	blank2r.bmp	79	100	pic100.bmp	199	1	whitenoise_No3.bmp	306	0	0	0	0	0	0	0	0	0	0	0	0	0	0	0	0	0	0	0	0	0	0	0	0	0	0	0	0	0	0	0	0	0	0	0	0	0	0	0
032619	10:23:25	10:36:30	784743	5.0.10.0	4_exp_EVA_AMP_AWA_CON	178	Rpleas_acq	Same	Rpleas	Bmasked	CS_B	2pleas	distractor1	EVAbeforeCON	AMP_CSunple	AMP1_masked	8	46	0	0	300	300	0	0	542	50	-63,9648437499999928946	0	0	0	0	1	blank2r.bmp	0	1	BMVZ	0	1	blank2r.bmp	79	33	pic33.bmp	199	1	whitenoise_No3.bmp	306	0	0	0	0	0	0	0	0	0	0	0	0	0	0	0	0	0	0	0	0	0	0	0	0	0	0	0	0	0	0	0	0	0	0	0	0	0	0	0
032619	10:23:25	10:36:32	786396	5.0.10.0	4_exp_EVA_AMP_AWA_CON	178	Rpleas_acq	Same	Rpleas	Bmasked	CS_B	2pleas	distractor1	EVAbeforeCON	AMP_CSpleas	AMP1_masked	8	47	0	0	300	300	0	0	726	50	-63,9648437499999928946	1	0	0	0	1	blank2r.bmp	0	1	GKQX	0	1	blank2r.bmp	79	99	pic99.bmp	199	1	whitenoise_No3.bmp	306	0	0	0	0	0	0	0	0	0	0	0	0	0	0	0	0	0	0	0	0	0	0	0	0	0	0	0	0	0	0	0	0	0	0	0	0	0	0	0
032619	10:23:25	10:36:33	787848	5.0.10.0	4_exp_EVA_AMP_AWA_CON	178	Rpleas_acq	Same	Rpleas	Bmasked	CS_B	2pleas	distractor1	EVAbeforeCON	AMP_distractor	AMP1_masked	8	48	0	0	300	300	0	0	530	50	-63,9648437499999928946	0	0	0	0	1	blank2r.bmp	0	1	WFPH	0	1	blank2r.bmp	79	37	pic37.bmp	199	1	whitenoise_No3.bmp	306	0	0	0	0	0	0	0	0	0	0	0	0	0	0	0	0	0	0	0	0	0	0	0	0	0	0	0	0	0	0	0	0	0	0	0	0	0	0	0
032619	10:23:25	10:36:35	789341	5.0.10.0	4_exp_EVA_AMP_AWA_CON	178	Rpleas_acq	Same	Rpleas	Bmasked	CS_B	2pleas	distractor1	EVAbeforeCON	AMP_distractor	AMP1_masked	8	49	0	0	300	300	0	0	571	46	-63,9648437499999928946	0	0	0	0	1	blank2r.bmp	0	1	WFPH	0	1	blank2r.bmp	79	52	pic52.bmp	199	1	whitenoise_No3.bmp	306	0	0	0	0	0	0	0	0	0	0	0	0	0	0	0	0	0	0	0	0	0	0	0	0	0	0	0	0	0	0	0	0	0	0	0	0	0	0	0
032619	10:23:25	10:36:36	790847	5.0.10.0	4_exp_EVA_AMP_AWA_CON	178	Rpleas_acq	Same	Rpleas	Bmasked	CS_B	2pleas	distractor1	EVAbeforeCON	AMP_CSunple	AMP1_masked	8	50	0	0	300	300	0	0	582	50	-63,9648437499999928946	0	0	0	0	1	blank2r.bmp	0	1	BMVZ	0	1	blank2r.bmp	79	82	pic82.bmp	199	1	whitenoise_No3.bmp	306	0	0	0	0	0	0	0	0	0	0	0	0	0	0	0	0	0	0	0	0	0	0	0	0	0	0	0	0	0	0	0	0	0	0	0	0	0	0	0
032619	10:23:25	10:36:38	792526	5.0.10.0	4_exp_EVA_AMP_AWA_CON	178	Rpleas_acq	Same	Rpleas	Bmasked	CS_B	2pleas	distractor1	EVAbeforeCON	AMP_CSunple	AMP1_masked	8	51	0	0	300	300	0	0	747	50	-63,9648437499999928946	0	0	0	0	1	blank2r.bmp	0	1	BMVZ	0	1	blank2r.bmp	79	79	pic79.bmp	199	1	whitenoise_No3.bmp	306	0	0	0	0	0	0	0	0	0	0	0	0	0	0	0	0	0	0	0	0	0	0	0	0	0	0	0	0	0	0	0	0	0	0	0	0	0	0	0
032619	10:23:25	10:36:48	802336	5.0.10.0	4_exp_EVA_AMP_AWA_CON	178	Rpleas_acq	Same	Rpleas	Bmasked	CS_B	2pleas	distractor1	EVAbeforeCON	AMP_distractor	AMP23	9	1	0	0	300	300	0	0	913	50	-63,9648437499999928946	0	0	0	0	1	blank2r.bmp	0	1	WFPH	0	1	blank2r.bmp	79	29	pic29.bmp	199	1	whitenoise_No3.bmp	306	0	0	0	0	0	0	0	0	0	0	0	0	0	0	0	0	0	0	0	0	0	0	0	0	0	0	0	0	0	0	0	0	0	0	0	0	0	0	0
032619	10:23:25	10:36:49	803935	5.0.10.0	4_exp_EVA_AMP_AWA_CON	178	Rpleas_acq	Same	Rpleas	Bmasked	CS_B	2pleas	distractor1	EVAbeforeCON	AMP_distractor	AMP23	9	2	0	0	300	300	0	0	669	50	-63,9648437499999928946	0	0	0	0	1	blank2r.bmp	0	1	WFPH	0	1	blank2r.bmp	79	21	pic21.bmp	199	1	whitenoise_No3.bmp	306	0	0	0	0	0	0	0	0	0	0	0	0	0	0	0	0	0	0	0	0	0	0	0	0	0	0	0	0	0	0	0	0	0	0	0	0	0	0	0
032619	10:23:25	10:36:51	805588	5.0.10.0	4_exp_EVA_AMP_AWA_CON	178	Rpleas_acq	Same	Rpleas	Bmasked	CS_B	2pleas	distractor1	EVAbeforeCON	AMP_CSunple	AMP23	9	3	0	0	300	300	0	0	728	50	-63,9648437499999928946	0	0	0	0	1	blank2r.bmp	0	1	BMVZ	0	1	blank2r.bmp	79	87	pic87.bmp	199	1	whitenoise_No3.bmp	306	0	0	0	0	0	0	0	0	0	0	0	0	0	0	0	0	0	0	0	0	0	0	0	0	0	0	0	0	0	0	0	0	0	0	0	0	0	0	0
032619	10:23:25	10:36:53	807054	5.0.10.0	4_exp_EVA_AMP_AWA_CON	178	Rpleas_acq	Same	Rpleas	Bmasked	CS_B	2pleas	distractor1	EVAbeforeCON	AMP_distractor	AMP23	9	4	0	0	300	300	0	0	541	50	-63,9648437499999928946	0	0	0	0	1	blank2r.bmp	0	1	WFPH	0	1	blank2r.bmp	79	117	pic117.bmp	199	1	whitenoise_No3.bmp	306	0	0	0	0	0	0	0	0	0	0	0	0	0	0	0	0	0	0	0	0	0	0	0	0	0	0	0	0	0	0	0	0	0	0	0	0	0	0	0
032619	10:23:25	10:36:54	808320	5.0.10.0	4_exp_EVA_AMP_AWA_CON	178	Rpleas_acq	Same	Rpleas	Bmasked	CS_B	2pleas	distractor1	EVAbeforeCON	AMP_CSunple	AMP23	9	5	0	0	300	300	0	0	335	46	-63,9648437499999928946	1	0	0	0	1	blank2r.bmp	0	1	BMVZ	0	1	blank2r.bmp	79	78	pic78.bmp	199	1	whitenoise_No3.bmp	306	0	0	0	0	0	0	0	0	0	0	0	0	0	0	0	0	0	0	0	0	0	0	0	0	0	0	0	0	0	0	0	0	0	0	0	0	0	0	0
032619	10:23:25	10:36:55	809813	5.0.10.0	4_exp_EVA_AMP_AWA_CON	178	Rpleas_acq	Same	Rpleas	Bmasked	CS_B	2pleas	distractor1	EVAbeforeCON	AMP_CSpleas	AMP23	9	6	0	0	300	300	0	0	575	50	-63,9648437499999928946	1	0	0	0	1	blank2r.bmp	0	1	GKQX	0	1	blank2r.bmp	79	101	pic101.bmp	199	1	whitenoise_No3.bmp	306	0	0	0	0	0	0	0	0	0	0	0	0	0	0	0	0	0	0	0	0	0	0	0	0	0	0	0	0	0	0	0	0	0	0	0	0	0	0	0
032619	10:23:25	10:36:57	811279	5.0.10.0	4_exp_EVA_AMP_AWA_CON	178	Rpleas_acq	Same	Rpleas	Bmasked	CS_B	2pleas	distractor1	EVAbeforeCON	AMP_CSpleas	AMP23	9	7	0	0	300	300	0	0	541	50	-63,9648437499999928946	1	0	0	0	1	blank2r.bmp	0	1	GKQX	0	1	blank2r.bmp	79	104	pic104.bmp	199	1	whitenoise_No3.bmp	306	0	0	0	0	0	0	0	0	0	0	0	0	0	0	0	0	0	0	0	0	0	0	0	0	0	0	0	0	0	0	0	0	0	0	0	0	0	0	0
032619	10:23:25	10:36:58	812585	5.0.10.0	4_exp_EVA_AMP_AWA_CON	178	Rpleas_acq	Same	Rpleas	Bmasked	CS_B	2pleas	distractor1	EVAbeforeCON	AMP_CSunple	AMP23	9	8	0	0	300	300	0	0	374	46	-63,9648437499999928946	1	0	0	0	1	blank2r.bmp	0	1	BMVZ	0	1	blank2r.bmp	79	43	pic43.bmp	199	1	whitenoise_No3.bmp	306	0	0	0	0	0	0	0	0	0	0	0	0	0	0	0	0	0	0	0	0	0	0	0	0	0	0	0	0	0	0	0	0	0	0	0	0	0	0	0
032619	10:23:25	10:36:59	813904	5.0.10.0	4_exp_EVA_AMP_AWA_CON	178	Rpleas_acq	Same	Rpleas	Bmasked	CS_B	2pleas	distractor1	EVAbeforeCON	AMP_CSpleas	AMP23	9	9	0	0	300	300	0	0	401	46	-63,9648437499999928946	0	0	0	0	1	blank2r.bmp	0	1	GKQX	0	1	blank2r.bmp	79	15	pic15.bmp	199	1	whitenoise_No3.bmp	306	0	0	0	0	0	0	0	0	0	0	0	0	0	0	0	0	0	0	0	0	0	0	0	0	0	0	0	0	0	0	0	0	0	0	0	0	0	0	0
032619	10:23:25	10:37:01	815477	5.0.10.0	4_exp_EVA_AMP_AWA_CON	178	Rpleas_acq	Same	Rpleas	Bmasked	CS_B	2pleas	distractor1	EVAbeforeCON	AMP_CSpleas	AMP23	9	10	0	0	300	300	0	0	662	46	-63,9648437499999928946	0	0	0	0	1	blank2r.bmp	0	1	GKQX	0	1	blank2r.bmp	79	54	pic54.bmp	199	1	whitenoise_No3.bmp	306	0	0	0	0	0	0	0	0	0	0	0	0	0	0	0	0	0	0	0	0	0	0	0	0	0	0	0	0	0	0	0	0	0	0	0	0	0	0	0
032619	10:23:25	10:37:03	817329	5.0.10.0	4_exp_EVA_AMP_AWA_CON	178	Rpleas_acq	Same	Rpleas	Bmasked	CS_B	2pleas	distractor1	EVAbeforeCON	AMP_CSunple	AMP23	9	11	0	0	300	300	0	0	918	50	-63,9648437499999928946	0	0	0	0	1	blank2r.bmp	0	1	BMVZ	0	1	blank2r.bmp	79	16	pic16.bmp	199	1	whitenoise_No3.bmp	306	0	0	0	0	0	0	0	0	0	0	0	0	0	0	0	0	0	0	0	0	0	0	0	0	0	0	0	0	0	0	0	0	0	0	0	0	0	0	0
032619	10:23:25	10:37:04	818836	5.0.10.0	4_exp_EVA_AMP_AWA_CON	178	Rpleas_acq	Same	Rpleas	Bmasked	CS_B	2pleas	distractor1	EVAbeforeCON	AMP_distractor	AMP23	9	12	0	0	300	300	0	0	592	50	-63,9648437499999928946	0	0	0	0	1	blank2r.bmp	0	1	WFPH	0	1	blank2r.bmp	79	129	pic129.bmp	199	1	whitenoise_No3.bmp	306	0	0	0	0	0	0	0	0	0	0	0	0	0	0	0	0	0	0	0	0	0	0	0	0	0	0	0	0	0	0	0	0	0	0	0	0	0	0	0
032619	10:23:25	10:37:06	820448	5.0.10.0	4_exp_EVA_AMP_AWA_CON	178	Rpleas_acq	Same	Rpleas	Bmasked	CS_B	2pleas	distractor1	EVAbeforeCON	AMP_CSunple	AMP23	9	13	0	0	300	300	0	0	695	46	-63,9648437499999928946	1	0	0	0	1	blank2r.bmp	0	1	BMVZ	0	1	blank2r.bmp	79	22	pic22.bmp	199	1	whitenoise_No3.bmp	306	0	0	0	0	0	0	0	0	0	0	0	0	0	0	0	0	0	0	0	0	0	0	0	0	0	0	0	0	0	0	0	0	0	0	0	0	0	0	0
032619	10:23:25	10:37:07	821888	5.0.10.0	4_exp_EVA_AMP_AWA_CON	178	Rpleas_acq	Same	Rpleas	Bmasked	CS_B	2pleas	distractor1	EVAbeforeCON	AMP_distractor	AMP23	9	14	0	0	300	300	0	0	527	46	-63,9648437499999928946	0	0	0	0	1	blank2r.bmp	0	1	WFPH	0	1	blank2r.bmp	79	2	pic2.bmp	199	1	whitenoise_No3.bmp	306	0	0	0	0	0	0	0	0	0	0	0	0	0	0	0	0	0	0	0	0	0	0	0	0	0	0	0	0	0	0	0	0	0	0	0	0	0	0	0
032619	10:23:25	10:37:09	823367	5.0.10.0	4_exp_EVA_AMP_AWA_CON	178	Rpleas_acq	Same	Rpleas	Bmasked	CS_B	2pleas	distractor1	EVAbeforeCON	AMP_distractor	AMP23	9	15	0	0	300	300	0	0	548	46	-63,9648437499999928946	0	0	0	0	1	blank2r.bmp	0	1	WFPH	0	1	blank2r.bmp	79	132	pic132.bmp	199	1	whitenoise_No3.bmp	306	0	0	0	0	0	0	0	0	0	0	0	0	0	0	0	0	0	0	0	0	0	0	0	0	0	0	0	0	0	0	0	0	0	0	0	0	0	0	0
032619	10:23:25	10:37:10	824820	5.0.10.0	4_exp_EVA_AMP_AWA_CON	178	Rpleas_acq	Same	Rpleas	Bmasked	CS_B	2pleas	distractor1	EVAbeforeCON	AMP_CSpleas	AMP23	9	16	0	0	300	300	0	0	543	50	-63,9648437499999928946	1	0	0	0	1	blank2r.bmp	0	1	GKQX	0	1	blank2r.bmp	79	148	pic148.bmp	199	1	whitenoise_No3.bmp	306	0	0	0	0	0	0	0	0	0	0	0	0	0	0	0	0	0	0	0	0	0	0	0	0	0	0	0	0	0	0	0	0	0	0	0	0	0	0	0
032619	10:23:25	10:37:12	826446	5.0.10.0	4_exp_EVA_AMP_AWA_CON	178	Rpleas_acq	Same	Rpleas	Bmasked	CS_B	2pleas	distractor1	EVAbeforeCON	AMP_CSunple	AMP23	9	17	0	0	300	300	0	0	695	50	-63,9648437499999928946	0	0	0	0	1	blank2r.bmp	0	1	BMVZ	0	1	blank2r.bmp	79	63	pic63.bmp	199	1	whitenoise_No3.bmp	306	0	0	0	0	0	0	0	0	0	0	0	0	0	0	0	0	0	0	0	0	0	0	0	0	0	0	0	0	0	0	0	0	0	0	0	0	0	0	0
032619	10:23:25	10:37:14	828032	5.0.10.0	4_exp_EVA_AMP_AWA_CON	178	Rpleas_acq	Same	Rpleas	Bmasked	CS_B	2pleas	distractor1	EVAbeforeCON	AMP_distractor	AMP23	9	18	0	0	300	300	0	0	655	50	-63,9648437499999928946	0	0	0	0	1	blank2r.bmp	0	1	WFPH	0	1	blank2r.bmp	79	116	pic116.bmp	199	1	whitenoise_No3.bmp	306	0	0	0	0	0	0	0	0	0	0	0	0	0	0	0	0	0	0	0	0	0	0	0	0	0	0	0	0	0	0	0	0	0	0	0	0	0	0	0
032619	10:23:25	10:37:15	829498	5.0.10.0	4_exp_EVA_AMP_AWA_CON	178	Rpleas_acq	Same	Rpleas	Bmasked	CS_B	2pleas	distractor1	EVAbeforeCON	AMP_CSunple	AMP23	9	19	0	0	300	300	0	0	558	50	-63,9648437499999928946	0	0	0	0	1	blank2r.bmp	0	1	BMVZ	0	1	blank2r.bmp	79	115	pic115.bmp	199	1	whitenoise_No3.bmp	306	0	0	0	0	0	0	0	0	0	0	0	0	0	0	0	0	0	0	0	0	0	0	0	0	0	0	0	0	0	0	0	0	0	0	0	0	0	0	0
032619	10:23:25	10:37:17	831044	5.0.10.0	4_exp_EVA_AMP_AWA_CON	178	Rpleas_acq	Same	Rpleas	Bmasked	CS_B	2pleas	distractor1	EVAbeforeCON	AMP_distractor	AMP23	9	20	0	0	300	300	0	0	621	50	-63,9648437499999928946	0	0	0	0	1	blank2r.bmp	0	1	WFPH	0	1	blank2r.bmp	79	125	pic125.bmp	199	1	whitenoise_No3.bmp	306	0	0	0	0	0	0	0	0	0	0	0	0	0	0	0	0	0	0	0	0	0	0	0	0	0	0	0	0	0	0	0	0	0	0	0	0	0	0	0
032619	10:23:25	10:37:18	832736	5.0.10.0	4_exp_EVA_AMP_AWA_CON	178	Rpleas_acq	Same	Rpleas	Bmasked	CS_B	2pleas	distractor1	EVAbeforeCON	AMP_CSunple	AMP23	9	21	0	0	300	300	0	0	762	46	-63,9648437499999928946	1	0	0	0	1	blank2r.bmp	0	1	BMVZ	0	1	blank2r.bmp	79	7	pic7.bmp	199	1	whitenoise_No3.bmp	306	0	0	0	0	0	0	0	0	0	0	0	0	0	0	0	0	0	0	0	0	0	0	0	0	0	0	0	0	0	0	0	0	0	0	0	0	0	0	0
032619	10:23:25	10:37:20	834256	5.0.10.0	4_exp_EVA_AMP_AWA_CON	178	Rpleas_acq	Same	Rpleas	Bmasked	CS_B	2pleas	distractor1	EVAbeforeCON	AMP_CSunple	AMP23	9	22	0	0	300	300	0	0	604	46	-63,9648437499999928946	1	0	0	0	1	blank2r.bmp	0	1	BMVZ	0	1	blank2r.bmp	79	131	pic131.bmp	199	1	whitenoise_No3.bmp	306	0	0	0	0	0	0	0	0	0	0	0	0	0	0	0	0	0	0	0	0	0	0	0	0	0	0	0	0	0	0	0	0	0	0	0	0	0	0	0
032619	10:23:25	10:37:21	835735	5.0.10.0	4_exp_EVA_AMP_AWA_CON	178	Rpleas_acq	Same	Rpleas	Bmasked	CS_B	2pleas	distractor1	EVAbeforeCON	AMP_CSpleas	AMP23	9	23	0	0	300	300	0	0	553	46	-63,9648437499999928946	0	0	0	0	1	blank2r.bmp	0	1	GKQX	0	1	blank2r.bmp	79	26	pic26.bmp	199	1	whitenoise_No3.bmp	306	0	0	0	0	0	0	0	0	0	0	0	0	0	0	0	0	0	0	0	0	0	0	0	0	0	0	0	0	0	0	0	0	0	0	0	0	0	0	0
032619	10:23:25	10:37:23	837175	5.0.10.0	4_exp_EVA_AMP_AWA_CON	178	Rpleas_acq	Same	Rpleas	Bmasked	CS_B	2pleas	distractor1	EVAbeforeCON	AMP_CSpleas	AMP23	9	24	0	0	300	300	0	0	517	50	-63,9648437499999928946	1	0	0	0	1	blank2r.bmp	0	1	GKQX	0	1	blank2r.bmp	79	70	pic70.bmp	199	1	whitenoise_No3.bmp	306	0	0	0	0	0	0	0	0	0	0	0	0	0	0	0	0	0	0	0	0	0	0	0	0	0	0	0	0	0	0	0	0	0	0	0	0	0	0	0
