date	time	script.currenttime	script.elapsedtime	build	script.currentexpt	subject	expressions.LRpleas_acq	expressions.SameOppo	expressions.condition_Lpleas	expressions.ABmasked	expressions.conditionCS_A	expressions.condition_1pleas	expressions.condition_distractor_AMP	trialcode	blockcode	blocknum	trialnum	windowcenter	inwindow	pretrialpause	posttrialpause	trialduration	trialtimeout	latency	response	expressions.correctedscore	correct	values.vis_performance	values.vis_rating_sum	values.vis_rating_mean	stimulusnumber1	stimulusitem1	stimulusonset1	stimulusnumber2	stimulusitem2	stimulusonset2	stimulusnumber3	stimulusitem3	stimulusonset3	stimulusnumber4	stimulusitem4	stimulusonset4	stimulusnumber5	stimulusitem5	stimulusonset5	stimulusnumber6	stimulusitem6	stimulusonset6	stimulusnumber7	stimulusitem7	stimulusonset7	stimulusnumber8	stimulusitem8	stimulusonset8	stimulusnumber9	stimulusitem9	stimulusonset9	stimulusnumber10	stimulusitem10	stimulusonset10	stimulusnumber11	stimulusitem11	stimulusonset11	stimulusnumber12	stimulusitem12	stimulusonset12	stimulusnumber13	stimulusitem13	stimulusonset13	stimulusnumber14	stimulusitem14	stimulusonset14	stimulusnumber15	stimulusitem15	stimulusonset15	stimulusnumber16	stimulusitem16	stimulusonset16	stimulusnumber17	stimulusitem17	stimulusonset17	stimulusnumber18	stimulusitem18	stimulusonset18
120518	16:08:36	16:11:06	147392	5.0.10.0	4_exp_AWA_CON_EVA_AMP	998	Rpleas_acq	Same	Rpleas	Bmasked	CS_B	2pleas	distractor1	acq_US_unple_masked	acq1_masked	1	1	0	0	300	300	0	0	556	46	0	1	0	0	0	1	blank2r.bmp	0	1	+	0	5	C1r.bmp	492	1	blank2r.bmp	786	1	BMVZ	786	1	blank2r.bmp	866	5	lasch	866	0	0	0	0	0	0	0	0	0	0	0	0	0	0	0	0	0	0	0	0	0	0	0	0	0	0	0	0	0	0	0	0	0
120518	16:08:36	16:11:07	149311	5.0.10.0	4_exp_AWA_CON_EVA_AMP	998	Rpleas_acq	Same	Rpleas	Bmasked	CS_B	2pleas	distractor1	acq_new_pleas_masked	acq1_masked	1	2	0	0	300	300	0	0	437	50	0	1	0	0	0	1	blank2r.bmp	0	1	+	0	2	B2r.bmp	492	1	blank2r.bmp	786	5	C1r.bmp	786	1	blank2r.bmp	866	1	fair	866	0	0	0	0	0	0	0	0	0	0	0	0	0	0	0	0	0	0	0	0	0	0	0	0	0	0	0	0	0	0	0	0	0
120518	16:08:36	16:11:09	151310	5.0.10.0	4_exp_AWA_CON_EVA_AMP	998	Rpleas_acq	Same	Rpleas	Bmasked	CS_B	2pleas	distractor1	acq_US_pleas_masked	acq1_masked	1	3	0	0	300	300	0	0	515	50	0	1	0	0	0	1	blank2r.bmp	0	1	+	0	3	B3r.bmp	492	1	blank2r.bmp	786	1	GKQX	786	1	blank2r.bmp	866	5	loyal	866	0	0	0	0	0	0	0	0	0	0	0	0	0	0	0	0	0	0	0	0	0	0	0	0	0	0	0	0	0	0	0	0	0
120518	16:08:36	16:11:11	153269	5.0.10.0	4_exp_AWA_CON_EVA_AMP	998	Rpleas_acq	Same	Rpleas	Bmasked	CS_B	2pleas	distractor1	acq_US_pleas_masked	acq1_masked	1	4	0	0	300	300	0	0	467	50	0	1	0	0	0	1	blank2r.bmp	0	1	+	0	1	B1r.bmp	492	1	blank2r.bmp	786	1	GKQX	786	1	blank2r.bmp	866	1	ehrlich	866	0	0	0	0	0	0	0	0	0	0	0	0	0	0	0	0	0	0	0	0	0	0	0	0	0	0	0	0	0	0	0	0	0
120518	16:08:36	16:11:13	155215	5.0.10.0	4_exp_AWA_CON_EVA_AMP	998	Rpleas_acq	Same	Rpleas	Bmasked	CS_B	2pleas	distractor1	acq_new_unple_masked	acq1_masked	1	5	0	0	300	300	0	0	457	46	0	1	0	0	0	1	blank2r.bmp	0	1	+	0	7	C3r.bmp	492	1	blank2r.bmp	786	2	B2r.bmp	786	1	blank2r.bmp	866	3	hindern	866	0	0	0	0	0	0	0	0	0	0	0	0	0	0	0	0	0	0	0	0	0	0	0	0	0	0	0	0	0	0	0	0	0
120518	16:08:36	16:11:15	157295	5.0.10.0	4_exp_AWA_CON_EVA_AMP	998	Rpleas_acq	Same	Rpleas	Bmasked	CS_B	2pleas	distractor1	acq_US_unple_masked	acq1_masked	1	6	0	0	300	300	0	0	597	46	0	1	0	0	0	1	blank2r.bmp	0	1	+	0	4	B4r.bmp	492	1	blank2r.bmp	786	1	BMVZ	786	1	blank2r.bmp	866	4	strafen	866	0	0	0	0	0	0	0	0	0	0	0	0	0	0	0	0	0	0	0	0	0	0	0	0	0	0	0	0	0	0	0	0	0
120518	16:08:36	16:11:17	159280	5.0.10.0	4_exp_AWA_CON_EVA_AMP	998	Rpleas_acq	Same	Rpleas	Bmasked	CS_B	2pleas	distractor1	acq_US_unple_masked	acq1_masked	1	7	0	0	300	300	0	0	495	46	0	1	0	0	0	1	blank2r.bmp	0	1	+	0	8	C4r.bmp	492	1	blank2r.bmp	786	1	BMVZ	786	1	blank2r.bmp	866	6	tyrannisch	866	0	0	0	0	0	0	0	0	0	0	0	0	0	0	0	0	0	0	0	0	0	0	0	0	0	0	0	0	0	0	0	0	0
120518	16:08:36	16:11:20	161439	5.0.10.0	4_exp_AWA_CON_EVA_AMP	998	Rpleas_acq	Same	Rpleas	Bmasked	CS_B	2pleas	distractor1	acq_US_pleas_masked	acq1_masked	1	8	0	0	300	300	0	0	471	46	0	0	0	0	0	1	blank2r.bmp	0	1	+	0	6	C2r.bmp	492	1	blank2r.bmp	786	1	GKQX	786	1	blank2r.bmp	866	3	freundlich	866	1	FEHLER	1372	0	0	0	0	0	0	0	0	0	0	0	0	0	0	0	0	0	0	0	0	0	0	0	0	0	0	0	0	0	0
120518	16:08:36	16:11:21	163239	5.0.10.0	4_exp_AWA_CON_EVA_AMP	998	Rpleas_acq	Same	Rpleas	Bmasked	CS_B	2pleas	distractor1	acq_new_unple_masked	acq1_masked	1	9	0	0	300	300	0	0	532	46	0	1	0	0	0	1	blank2r.bmp	0	1	+	0	1	B1r.bmp	492	1	blank2r.bmp	786	6	C2r.bmp	786	1	blank2r.bmp	866	1	faul	866	0	0	0	0	0	0	0	0	0	0	0	0	0	0	0	0	0	0	0	0	0	0	0	0	0	0	0	0	0	0	0	0	0
120518	16:08:36	16:11:23	165118	5.0.10.0	4_exp_AWA_CON_EVA_AMP	998	Rpleas_acq	Same	Rpleas	Bmasked	CS_B	2pleas	distractor1	acq_new_unple_masked	acq1_masked	1	10	0	0	300	300	0	0	411	46	0	1	0	0	0	1	blank2r.bmp	0	1	+	0	6	C2r.bmp	492	1	blank2r.bmp	786	8	C4r.bmp	786	1	blank2r.bmp	866	5	leiden	866	0	0	0	0	0	0	0	0	0	0	0	0	0	0	0	0	0	0	0	0	0	0	0	0	0	0	0	0	0	0	0	0	0
120518	16:08:36	16:11:25	167090	5.0.10.0	4_exp_AWA_CON_EVA_AMP	998	Rpleas_acq	Same	Rpleas	Bmasked	CS_B	2pleas	distractor1	acq_new_pleas_masked	acq1_masked	1	11	0	0	300	300	0	0	478	50	0	1	0	0	0	1	blank2r.bmp	0	1	+	0	8	C4r.bmp	492	1	blank2r.bmp	786	1	B1r.bmp	786	1	blank2r.bmp	866	3	helfen	866	0	0	0	0	0	0	0	0	0	0	0	0	0	0	0	0	0	0	0	0	0	0	0	0	0	0	0	0	0	0	0	0	0
120518	16:08:36	16:11:27	169036	5.0.10.0	4_exp_AWA_CON_EVA_AMP	998	Rpleas_acq	Same	Rpleas	Bmasked	CS_B	2pleas	distractor1	acq_new_pleas_masked	acq1_masked	1	12	0	0	300	300	0	0	454	50	0	1	0	0	0	1	blank2r.bmp	0	1	+	0	3	B3r.bmp	492	1	blank2r.bmp	786	4	B4r.bmp	786	1	blank2r.bmp	866	5	lachen	866	0	0	0	0	0	0	0	0	0	0	0	0	0	0	0	0	0	0	0	0	0	0	0	0	0	0	0	0	0	0	0	0	0
120518	16:08:36	16:11:30	171355	5.0.10.0	4_exp_AWA_CON_EVA_AMP	998	Rpleas_acq	Same	Rpleas	Bmasked	CS_B	2pleas	distractor1	acq_US_unple_masked	acq1_masked	1	13	0	0	300	300	0	0	628	50	0	0	0	0	0	1	blank2r.bmp	0	1	+	0	5	C1r.bmp	492	1	blank2r.bmp	786	1	BMVZ	786	1	blank2r.bmp	866	3	fanatisch	866	1	FEHLER	1532	0	0	0	0	0	0	0	0	0	0	0	0	0	0	0	0	0	0	0	0	0	0	0	0	0	0	0	0	0	0
120518	16:08:36	16:11:32	173528	5.0.10.0	4_exp_AWA_CON_EVA_AMP	998	Rpleas_acq	Same	Rpleas	Bmasked	CS_B	2pleas	distractor1	acq_new_pleas_masked	acq1_masked	1	14	0	0	300	300	0	0	680	46	0	0	0	0	0	1	blank2r.bmp	0	1	+	0	2	B2r.bmp	492	1	blank2r.bmp	786	7	C3r.bmp	786	1	blank2r.bmp	866	6	retten	866	1	FEHLER	1585	0	0	0	0	0	0	0	0	0	0	0	0	0	0	0	0	0	0	0	0	0	0	0	0	0	0	0	0	0	0
120518	16:08:36	16:11:34	175340	5.0.10.0	4_exp_AWA_CON_EVA_AMP	998	Rpleas_acq	Same	Rpleas	Bmasked	CS_B	2pleas	distractor1	acq_US_pleas_masked	acq1_masked	1	15	0	0	300	300	0	0	541	50	0	1	0	0	0	1	blank2r.bmp	0	1	+	0	7	C3r.bmp	492	1	blank2r.bmp	786	1	GKQX	786	1	blank2r.bmp	866	6	tolerant	866	0	0	0	0	0	0	0	0	0	0	0	0	0	0	0	0	0	0	0	0	0	0	0	0	0	0	0	0	0	0	0	0	0
120518	16:08:36	16:11:35	177273	5.0.10.0	4_exp_AWA_CON_EVA_AMP	998	Rpleas_acq	Same	Rpleas	Bmasked	CS_B	2pleas	distractor1	acq_US_pleas_masked	acq1_masked	1	16	0	0	300	300	0	0	446	50	0	1	0	0	0	1	blank2r.bmp	0	1	+	0	4	B4r.bmp	492	1	blank2r.bmp	786	1	GKQX	786	1	blank2r.bmp	866	4	spielen	866	0	0	0	0	0	0	0	0	0	0	0	0	0	0	0	0	0	0	0	0	0	0	0	0	0	0	0	0	0	0	0	0	0
120518	16:08:36	16:11:38	179552	5.0.10.0	4_exp_AWA_CON_EVA_AMP	998	Rpleas_acq	Same	Rpleas	Bmasked	CS_B	2pleas	distractor1	acq_US_unple_masked	acq1_masked	1	17	0	0	300	300	0	0	582	50	0	0	0	0	0	1	blank2r.bmp	0	1	+	0	5	C1r.bmp	492	1	blank2r.bmp	786	1	BMVZ	786	1	blank2r.bmp	866	1	eitel	866	1	FEHLER	1479	0	0	0	0	0	0	0	0	0	0	0	0	0	0	0	0	0	0	0	0	0	0	0	0	0	0	0	0	0	0
120518	16:08:36	16:11:39	181298	5.0.10.0	4_exp_AWA_CON_EVA_AMP	998	Rpleas_acq	Same	Rpleas	Bmasked	CS_B	2pleas	distractor1	acq_US_unple_masked	acq1_masked	1	18	0	0	300	300	0	0	483	46	0	1	0	0	0	1	blank2r.bmp	0	1	+	0	6	C2r.bmp	492	1	blank2r.bmp	786	1	BMVZ	786	1	blank2r.bmp	866	2	schlecht	866	0	0	0	0	0	0	0	0	0	0	0	0	0	0	0	0	0	0	0	0	0	0	0	0	0	0	0	0	0	0	0	0	0
120518	16:08:36	16:11:41	183310	5.0.10.0	4_exp_AWA_CON_EVA_AMP	998	Rpleas_acq	Same	Rpleas	Bmasked	CS_B	2pleas	distractor1	acq_new_unple_masked	acq1_masked	1	19	0	0	300	300	0	0	531	46	0	1	0	0	0	1	blank2r.bmp	0	1	+	0	1	B1r.bmp	492	1	blank2r.bmp	786	3	B3r.bmp	786	1	blank2r.bmp	866	4	tot	866	0	0	0	0	0	0	0	0	0	0	0	0	0	0	0	0	0	0	0	0	0	0	0	0	0	0	0	0	0	0	0	0	0
120518	16:08:36	16:11:43	185270	5.0.10.0	4_exp_AWA_CON_EVA_AMP	998	Rpleas_acq	Same	Rpleas	Bmasked	CS_B	2pleas	distractor1	acq_new_unple_masked	acq1_masked	1	20	0	0	300	300	0	0	467	46	0	1	0	0	0	1	blank2r.bmp	0	1	+	0	8	C4r.bmp	492	1	blank2r.bmp	786	4	B4r.bmp	786	1	blank2r.bmp	866	2	schroff	866	0	0	0	0	0	0	0	0	0	0	0	0	0	0	0	0	0	0	0	0	0	0	0	0	0	0	0	0	0	0	0	0	0
120518	16:08:36	16:11:45	187189	5.0.10.0	4_exp_AWA_CON_EVA_AMP	998	Rpleas_acq	Same	Rpleas	Bmasked	CS_B	2pleas	distractor1	acq_US_pleas_masked	acq1_masked	1	21	0	0	300	300	0	0	450	50	0	1	0	0	0	1	blank2r.bmp	0	1	+	0	3	B3r.bmp	492	1	blank2r.bmp	786	1	GKQX	786	1	blank2r.bmp	866	2	schön	866	0	0	0	0	0	0	0	0	0	0	0	0	0	0	0	0	0	0	0	0	0	0	0	0	0	0	0	0	0	0	0	0	0
120518	16:08:36	16:11:48	189428	5.0.10.0	4_exp_AWA_CON_EVA_AMP	998	Rpleas_acq	Same	Rpleas	Bmasked	CS_B	2pleas	distractor1	acq_new_pleas_masked	acq1_masked	1	22	0	0	300	300	0	0	535	46	0	0	0	0	0	1	blank2r.bmp	0	1	+	0	4	B4r.bmp	492	1	blank2r.bmp	786	8	C4r.bmp	786	1	blank2r.bmp	866	2	schlau	866	1	FEHLER	1439	0	0	0	0	0	0	0	0	0	0	0	0	0	0	0	0	0	0	0	0	0	0	0	0	0	0	0	0	0	0
120518	16:08:36	16:11:49	191267	5.0.10.0	4_exp_AWA_CON_EVA_AMP	998	Rpleas_acq	Same	Rpleas	Bmasked	CS_B	2pleas	distractor1	acq_new_unple_masked	acq1_masked	1	23	0	0	300	300	0	0	580	46	0	1	0	0	0	1	blank2r.bmp	0	1	+	0	7	C3r.bmp	492	1	blank2r.bmp	786	6	C2r.bmp	786	1	blank2r.bmp	866	6	rächen	866	0	0	0	0	0	0	0	0	0	0	0	0	0	0	0	0	0	0	0	0	0	0	0	0	0	0	0	0	0	0	0	0	0
120518	16:08:36	16:11:52	193400	5.0.10.0	4_exp_AWA_CON_EVA_AMP	998	Rpleas_acq	Same	Rpleas	Bmasked	CS_B	2pleas	distractor1	acq_new_pleas_masked	acq1_masked	1	24	0	0	300	300	0	0	433	46	0	0	0	0	0	1	blank2r.bmp	0	1	+	0	2	B2r.bmp	492	1	blank2r.bmp	786	3	B3r.bmp	786	1	blank2r.bmp	866	4	treu	866	1	FEHLER	1332	0	0	0	0	0	0	0	0	0	0	0	0	0	0	0	0	0	0	0	0	0	0	0	0	0	0	0	0	0	0
120518	16:08:36	16:11:54	195359	5.0.10.0	4_exp_AWA_CON_EVA_AMP	998	Rpleas_acq	Same	Rpleas	Bmasked	CS_B	2pleas	distractor1	acq_new_unple_masked	acq1_masked	1	25	0	0	300	300	0	0	687	46	0	1	0	0	0	1	blank2r.bmp	0	1	+	0	5	C1r.bmp	492	1	blank2r.bmp	786	2	B2r.bmp	786	1	blank2r.bmp	866	3	hindern	866	0	0	0	0	0	0	0	0	0	0	0	0	0	0	0	0	0	0	0	0	0	0	0	0	0	0	0	0	0	0	0	0	0
120518	16:08:36	16:11:55	197278	5.0.10.0	4_exp_AWA_CON_EVA_AMP	998	Rpleas_acq	Same	Rpleas	Bmasked	CS_B	2pleas	distractor1	acq_new_pleas_masked	acq1_masked	1	26	0	0	300	300	0	0	451	50	0	1	0	0	0	1	blank2r.bmp	0	1	+	0	3	B3r.bmp	492	1	blank2r.bmp	786	5	C1r.bmp	786	1	blank2r.bmp	866	6	retten	866	0	0	0	0	0	0	0	0	0	0	0	0	0	0	0	0	0	0	0	0	0	0	0	0	0	0	0	0	0	0	0	0	0
120518	16:08:36	16:11:58	199371	5.0.10.0	4_exp_AWA_CON_EVA_AMP	998	Rpleas_acq	Same	Rpleas	Bmasked	CS_B	2pleas	distractor1	acq_new_pleas_masked	acq1_masked	1	27	0	0	300	300	0	0	591	50	0	1	0	0	0	1	blank2r.bmp	0	1	+	0	8	C4r.bmp	492	1	blank2r.bmp	786	1	B1r.bmp	786	1	blank2r.bmp	866	4	treu	866	0	0	0	0	0	0	0	0	0	0	0	0	0	0	0	0	0	0	0	0	0	0	0	0	0	0	0	0	0	0	0	0	0
120518	16:08:36	16:12:00	201356	5.0.10.0	4_exp_AWA_CON_EVA_AMP	998	Rpleas_acq	Same	Rpleas	Bmasked	CS_B	2pleas	distractor1	acq_new_unple_masked	acq1_masked	1	28	0	0	300	300	0	0	508	46	0	1	0	0	0	1	blank2r.bmp	0	1	+	0	2	B2r.bmp	492	1	blank2r.bmp	786	7	C3r.bmp	786	1	blank2r.bmp	866	2	schroff	866	0	0	0	0	0	0	0	0	0	0	0	0	0	0	0	0	0	0	0	0	0	0	0	0	0	0	0	0	0	0	0	0	0
120518	16:08:36	16:12:02	203396	5.0.10.0	4_exp_AWA_CON_EVA_AMP	998	Rpleas_acq	Same	Rpleas	Bmasked	CS_B	2pleas	distractor1	acq_new_unple_masked	acq1_masked	1	29	0	0	300	300	0	0	569	46	0	1	0	0	0	1	blank2r.bmp	0	1	+	0	1	B1r.bmp	492	1	blank2r.bmp	786	5	C1r.bmp	786	1	blank2r.bmp	866	6	rächen	866	0	0	0	0	0	0	0	0	0	0	0	0	0	0	0	0	0	0	0	0	0	0	0	0	0	0	0	0	0	0	0	0	0
120518	16:08:36	16:12:04	205448	5.0.10.0	4_exp_AWA_CON_EVA_AMP	998	Rpleas_acq	Same	Rpleas	Bmasked	CS_B	2pleas	distractor1	acq_new_pleas_masked	acq1_masked	1	30	0	0	300	300	0	0	563	50	0	1	0	0	0	1	blank2r.bmp	0	1	+	0	4	B4r.bmp	492	1	blank2r.bmp	786	8	C4r.bmp	786	1	blank2r.bmp	866	5	lachen	866	0	0	0	0	0	0	0	0	0	0	0	0	0	0	0	0	0	0	0	0	0	0	0	0	0	0	0	0	0	0	0	0	0
120518	16:08:36	16:12:06	207620	5.0.10.0	4_exp_AWA_CON_EVA_AMP	998	Rpleas_acq	Same	Rpleas	Bmasked	CS_B	2pleas	distractor1	acq_US_unple_masked	acq1_masked	1	31	0	0	300	300	0	0	473	50	0	0	0	0	0	1	blank2r.bmp	0	1	+	0	7	C3r.bmp	492	1	blank2r.bmp	786	1	BMVZ	786	1	blank2r.bmp	866	1	eitel	866	1	FEHLER	1372	0	0	0	0	0	0	0	0	0	0	0	0	0	0	0	0	0	0	0	0	0	0	0	0	0	0	0	0	0	0
120518	16:08:36	16:12:08	209846	5.0.10.0	4_exp_AWA_CON_EVA_AMP	998	Rpleas_acq	Same	Rpleas	Bmasked	CS_B	2pleas	distractor1	acq_US_pleas_masked	acq1_masked	1	32	0	0	300	300	0	0	741	46	0	0	0	0	0	1	blank2r.bmp	0	1	+	0	6	C2r.bmp	492	1	blank2r.bmp	786	1	GKQX	786	1	blank2r.bmp	866	5	loyal	866	1	FEHLER	1639	0	0	0	0	0	0	0	0	0	0	0	0	0	0	0	0	0	0	0	0	0	0	0	0	0	0	0	0	0	0
120518	16:08:36	16:12:10	211645	5.0.10.0	4_exp_AWA_CON_EVA_AMP	998	Rpleas_acq	Same	Rpleas	Bmasked	CS_B	2pleas	distractor1	acq_US_unple_masked	acq1_masked	1	33	0	0	300	300	0	0	538	46	0	1	0	0	0	1	blank2r.bmp	0	1	+	0	1	B1r.bmp	492	1	blank2r.bmp	786	1	BMVZ	786	1	blank2r.bmp	866	4	strafen	866	0	0	0	0	0	0	0	0	0	0	0	0	0	0	0	0	0	0	0	0	0	0	0	0	0	0	0	0	0	0	0	0	0
120518	16:08:36	16:12:12	213631	5.0.10.0	4_exp_AWA_CON_EVA_AMP	998	Rpleas_acq	Same	Rpleas	Bmasked	CS_B	2pleas	distractor1	acq_US_unple_masked	acq1_masked	1	34	0	0	300	300	0	0	506	46	0	1	0	0	0	1	blank2r.bmp	0	1	+	0	6	C2r.bmp	492	1	blank2r.bmp	786	1	BMVZ	786	1	blank2r.bmp	866	5	lasch	866	0	0	0	0	0	0	0	0	0	0	0	0	0	0	0	0	0	0	0	0	0	0	0	0	0	0	0	0	0	0	0	0	0
120518	16:08:36	16:12:14	215750	5.0.10.0	4_exp_AWA_CON_EVA_AMP	998	Rpleas_acq	Same	Rpleas	Bmasked	CS_B	2pleas	distractor1	acq_US_pleas_masked	acq1_masked	1	35	0	0	300	300	0	0	649	50	0	1	0	0	0	1	blank2r.bmp	0	1	+	0	4	B4r.bmp	492	1	blank2r.bmp	786	1	GKQX	786	1	blank2r.bmp	866	1	ehrlich	866	0	0	0	0	0	0	0	0	0	0	0	0	0	0	0	0	0	0	0	0	0	0	0	0	0	0	0	0	0	0	0	0	0
120518	16:08:36	16:12:16	217670	5.0.10.0	4_exp_AWA_CON_EVA_AMP	998	Rpleas_acq	Same	Rpleas	Bmasked	CS_B	2pleas	distractor1	acq_US_pleas_masked	acq1_masked	1	36	0	0	300	300	0	0	434	50	0	1	0	0	0	1	blank2r.bmp	0	1	+	0	2	B2r.bmp	492	1	blank2r.bmp	786	1	GKQX	786	1	blank2r.bmp	866	2	schön	866	0	0	0	0	0	0	0	0	0	0	0	0	0	0	0	0	0	0	0	0	0	0	0	0	0	0	0	0	0	0	0	0	0
120518	16:08:36	16:12:41	242593	5.0.10.0	4_exp_AWA_CON_EVA_AMP	998	Rpleas_acq	Same	Rpleas	Bmasked	CS_B	2pleas	distractor1	acq_new_pleas_masked	acq2_masked	2	1	480	0	300	300	0	0	608	50	0	1	0	0	0	1	blank2r.bmp	0	1	+	0	7	C3r.bmp	492	1	blank2r.bmp	786	4	B4r.bmp	786	1	blank2r.bmp	866	3	helfen	866	1	!	1319	1	!	-1	0	0	0	0	0	0	0	0	0	0	0	0	0	0	0	0	0	0	0	0	0	0	0	0	0	0	0
120518	16:08:36	16:12:43	244778	5.0.10.0	4_exp_AWA_CON_EVA_AMP	998	Rpleas_acq	Same	Rpleas	Bmasked	CS_B	2pleas	distractor1	acq_new_unple_masked	acq2_masked	2	2	480	0	300	300	0	0	409	46	0	1	0	0	0	1	blank2r.bmp	0	1	+	0	3	B3r.bmp	492	1	blank2r.bmp	786	1	B1r.bmp	786	1	blank2r.bmp	866	4	tot	866	1	!	-1	1	!	-1	0	0	0	0	0	0	0	0	0	0	0	0	0	0	0	0	0	0	0	0	0	0	0	0	0	0	0
120518	16:08:36	16:12:45	247284	5.0.10.0	4_exp_AWA_CON_EVA_AMP	998	Rpleas_acq	Same	Rpleas	Bmasked	CS_B	2pleas	distractor1	acq_new_unple_masked	acq2_masked	2	3	480	1	300	300	0	0	485	50	0	0	0	0	0	1	blank2r.bmp	0	1	+	0	5	C1r.bmp	492	1	blank2r.bmp	786	6	C2r.bmp	786	1	blank2r.bmp	866	5	leiden	866	1	FEHLER	1705	1	!	1319	1	!	1386	0	0	0	0	0	0	0	0	0	0	0	0	0	0	0	0	0	0	0	0	0	0	0	0
120518	16:08:36	16:12:48	249443	5.0.10.0	4_exp_AWA_CON_EVA_AMP	998	Rpleas_acq	Same	Rpleas	Bmasked	CS_B	2pleas	distractor1	acq_new_pleas_masked	acq2_masked	2	4	480	0	300	300	0	0	594	50	0	1	0	0	0	1	blank2r.bmp	0	1	+	0	8	C4r.bmp	492	1	blank2r.bmp	786	3	B3r.bmp	786	1	blank2r.bmp	866	1	fair	866	1	!	1319	1	!	-1	0	0	0	0	0	0	0	0	0	0	0	0	0	0	0	0	0	0	0	0	0	0	0	0	0	0	0
120518	16:08:36	16:12:50	251802	5.0.10.0	4_exp_AWA_CON_EVA_AMP	998	Rpleas_acq	Same	Rpleas	Bmasked	CS_B	2pleas	distractor1	acq_US_pleas_masked	acq2_masked	2	5	480	0	300	300	0	0	559	50	0	1	0	0	0	1	blank2r.bmp	0	1	+	0	6	C2r.bmp	492	1	blank2r.bmp	786	1	GKQX	786	1	blank2r.bmp	866	6	tolerant	866	1	!	1319	1	!	-1	0	0	0	0	0	0	0	0	0	0	0	0	0	0	0	0	0	0	0	0	0	0	0	0	0	0	0
120518	16:08:36	16:12:52	254081	5.0.10.0	4_exp_AWA_CON_EVA_AMP	998	Rpleas_acq	Same	Rpleas	Bmasked	CS_B	2pleas	distractor1	acq_US_pleas_masked	acq2_masked	2	6	480	1	300	300	0	0	475	50	0	1	0	0	0	1	blank2r.bmp	0	1	+	0	3	B3r.bmp	492	1	blank2r.bmp	786	1	GKQX	786	1	blank2r.bmp	866	3	freundlich	866	1	!	1319	1	!	1372	0	0	0	0	0	0	0	0	0	0	0	0	0	0	0	0	0	0	0	0	0	0	0	0	0	0	0
120518	16:08:36	16:12:55	256587	5.0.10.0	4_exp_AWA_CON_EVA_AMP	998	Rpleas_acq	Same	Rpleas	Bmasked	CS_B	2pleas	distractor1	acq_US_pleas_masked	acq2_masked	2	7	480	1	300	300	0	0	492	46	0	0	0	0	0	1	blank2r.bmp	0	1	+	0	1	B1r.bmp	492	1	blank2r.bmp	786	1	GKQX	786	1	blank2r.bmp	866	4	spielen	866	1	FEHLER	1719	1	!	1319	1	!	1399	0	0	0	0	0	0	0	0	0	0	0	0	0	0	0	0	0	0	0	0	0	0	0	0
120518	16:08:36	16:12:57	258813	5.0.10.0	4_exp_AWA_CON_EVA_AMP	998	Rpleas_acq	Same	Rpleas	Bmasked	CS_B	2pleas	distractor1	acq_US_unple_masked	acq2_masked	2	8	480	0	300	300	0	0	671	46	0	1	0	0	0	1	blank2r.bmp	0	1	+	0	8	C4r.bmp	492	1	blank2r.bmp	786	1	BMVZ	786	1	blank2r.bmp	866	3	fanatisch	866	1	!	1319	1	!	-1	0	0	0	0	0	0	0	0	0	0	0	0	0	0	0	0	0	0	0	0	0	0	0	0	0	0	0
120518	16:08:36	16:12:59	261132	5.0.10.0	4_exp_AWA_CON_EVA_AMP	998	Rpleas_acq	Same	Rpleas	Bmasked	CS_B	2pleas	distractor1	acq_US_unple_masked	acq2_masked	2	9	480	1	300	300	0	0	517	46	0	1	0	0	0	1	blank2r.bmp	0	1	+	0	4	B4r.bmp	492	1	blank2r.bmp	786	1	BMVZ	786	1	blank2r.bmp	866	2	schlecht	866	1	!	1319	1	!	1412	0	0	0	0	0	0	0	0	0	0	0	0	0	0	0	0	0	0	0	0	0	0	0	0	0	0	0
120518	16:08:36	16:13:02	263411	5.0.10.0	4_exp_AWA_CON_EVA_AMP	998	Rpleas_acq	Same	Rpleas	Bmasked	CS_B	2pleas	distractor1	acq_new_pleas_masked	acq2_masked	2	10	480	1	300	300	0	0	480	50	0	1	0	0	0	1	blank2r.bmp	0	1	+	0	5	C1r.bmp	492	1	blank2r.bmp	786	2	B2r.bmp	786	1	blank2r.bmp	866	2	schlau	866	1	!	1319	1	!	1386	0	0	0	0	0	0	0	0	0	0	0	0	0	0	0	0	0	0	0	0	0	0	0	0	0	0	0
120518	16:08:36	16:13:04	265743	5.0.10.0	4_exp_AWA_CON_EVA_AMP	998	Rpleas_acq	Same	Rpleas	Bmasked	CS_B	2pleas	distractor1	acq_US_unple_masked	acq2_masked	2	11	480	1	300	300	0	0	534	46	0	1	0	0	0	1	blank2r.bmp	0	1	+	0	2	B2r.bmp	492	1	blank2r.bmp	786	1	BMVZ	786	1	blank2r.bmp	866	6	tyrannisch	866	1	!	1319	1	!	1439	0	0	0	0	0	0	0	0	0	0	0	0	0	0	0	0	0	0	0	0	0	0	0	0	0	0	0
120518	16:08:36	16:13:06	268102	5.0.10.0	4_exp_AWA_CON_EVA_AMP	998	Rpleas_acq	Same	Rpleas	Bmasked	CS_B	2pleas	distractor1	acq_new_unple_masked	acq2_masked	2	12	480	0	300	300	0	0	583	46	0	1	0	0	0	1	blank2r.bmp	0	1	+	0	7	C3r.bmp	492	1	blank2r.bmp	786	7	C3r.bmp	786	1	blank2r.bmp	866	1	faul	866	1	!	1319	1	!	-1	0	0	0	0	0	0	0	0	0	0	0	0	0	0	0	0	0	0	0	0	0	0	0	0	0	0	0
120518	16:08:36	16:13:09	270381	5.0.10.0	4_exp_AWA_CON_EVA_AMP	998	Rpleas_acq	Same	Rpleas	Bmasked	CS_B	2pleas	distractor1	acq_US_pleas_masked	acq2_masked	2	13	480	1	300	300	0	0	461	50	0	1	0	0	0	1	blank2r.bmp	0	1	+	0	6	C2r.bmp	492	1	blank2r.bmp	786	1	GKQX	786	1	blank2r.bmp	866	1	ehrlich	866	1	!	1319	1	!	1359	0	0	0	0	0	0	0	0	0	0	0	0	0	0	0	0	0	0	0	0	0	0	0	0	0	0	0
120518	16:08:36	16:13:11	272727	5.0.10.0	4_exp_AWA_CON_EVA_AMP	998	Rpleas_acq	Same	Rpleas	Bmasked	CS_B	2pleas	distractor1	acq_new_pleas_masked	acq2_masked	2	14	480	0	300	300	0	0	573	50	0	1	0	0	0	1	blank2r.bmp	0	1	+	0	2	B2r.bmp	492	1	blank2r.bmp	786	4	B4r.bmp	786	1	blank2r.bmp	866	2	schlau	866	1	!	1319	1	!	-1	0	0	0	0	0	0	0	0	0	0	0	0	0	0	0	0	0	0	0	0	0	0	0	0	0	0	0
120518	16:08:36	16:13:13	275233	5.0.10.0	4_exp_AWA_CON_EVA_AMP	998	Rpleas_acq	Same	Rpleas	Bmasked	CS_B	2pleas	distractor1	acq_US_pleas_masked	acq2_masked	2	15	480	1	300	300	0	0	485	46	0	0	0	0	0	1	blank2r.bmp	0	1	+	0	3	B3r.bmp	492	1	blank2r.bmp	786	1	GKQX	786	1	blank2r.bmp	866	5	loyal	866	1	FEHLER	1705	1	!	1319	1	!	1386	0	0	0	0	0	0	0	0	0	0	0	0	0	0	0	0	0	0	0	0	0	0	0	0
120518	16:08:36	16:13:16	277432	5.0.10.0	4_exp_AWA_CON_EVA_AMP	998	Rpleas_acq	Same	Rpleas	Bmasked	CS_B	2pleas	distractor1	acq_new_pleas_masked	acq2_masked	2	16	480	0	300	300	0	0	639	50	0	1	0	0	0	1	blank2r.bmp	0	1	+	0	5	C1r.bmp	492	1	blank2r.bmp	786	3	B3r.bmp	786	1	blank2r.bmp	866	1	fair	866	1	!	1319	1	!	-1	0	0	0	0	0	0	0	0	0	0	0	0	0	0	0	0	0	0	0	0	0	0	0	0	0	0	0
120518	16:08:36	16:13:18	279791	5.0.10.0	4_exp_AWA_CON_EVA_AMP	998	Rpleas_acq	Same	Rpleas	Bmasked	CS_B	2pleas	distractor1	acq_US_unple_masked	acq2_masked	2	17	480	0	300	300	0	0	559	46	0	1	0	0	0	1	blank2r.bmp	0	1	+	0	4	B4r.bmp	492	1	blank2r.bmp	786	1	BMVZ	786	1	blank2r.bmp	866	5	lasch	866	1	!	1319	1	!	-1	0	0	0	0	0	0	0	0	0	0	0	0	0	0	0	0	0	0	0	0	0	0	0	0	0	0	0
120518	16:08:36	16:13:20	282096	5.0.10.0	4_exp_AWA_CON_EVA_AMP	998	Rpleas_acq	Same	Rpleas	Bmasked	CS_B	2pleas	distractor1	acq_new_unple_masked	acq2_masked	2	18	480	1	300	300	0	0	500	46	0	1	0	0	0	1	blank2r.bmp	0	1	+	0	1	B1r.bmp	492	1	blank2r.bmp	786	2	B2r.bmp	786	1	blank2r.bmp	866	5	leiden	866	1	!	1319	1	!	1399	0	0	0	0	0	0	0	0	0	0	0	0	0	0	0	0	0	0	0	0	0	0	0	0	0	0	0
120518	16:08:36	16:13:23	284522	5.0.10.0	4_exp_AWA_CON_EVA_AMP	998	Rpleas_acq	Same	Rpleas	Bmasked	CS_B	2pleas	distractor1	acq_US_unple_masked	acq2_masked	2	19	480	0	300	300	0	0	652	46	0	1	0	0	0	1	blank2r.bmp	0	1	+	0	8	C4r.bmp	492	1	blank2r.bmp	786	1	BMVZ	786	1	blank2r.bmp	866	3	fanatisch	866	1	!	1319	1	!	-1	0	0	0	0	0	0	0	0	0	0	0	0	0	0	0	0	0	0	0	0	0	0	0	0	0	0	0
120518	16:08:36	16:13:25	286868	5.0.10.0	4_exp_AWA_CON_EVA_AMP	998	Rpleas_acq	Same	Rpleas	Bmasked	CS_B	2pleas	distractor1	acq_new_pleas_masked	acq2_masked	2	20	480	0	300	300	0	0	559	50	0	1	0	0	0	1	blank2r.bmp	0	1	+	0	7	C3r.bmp	492	1	blank2r.bmp	786	6	C2r.bmp	786	1	blank2r.bmp	866	4	treu	866	1	!	1319	1	!	-1	0	0	0	0	0	0	0	0	0	0	0	0	0	0	0	0	0	0	0	0	0	0	0	0	0	0	0
120518	16:08:36	16:13:27	289214	5.0.10.0	4_exp_AWA_CON_EVA_AMP	998	Rpleas_acq	Same	Rpleas	Bmasked	CS_B	2pleas	distractor1	acq_US_pleas_masked	acq2_masked	2	21	480	1	300	300	0	0	531	50	0	1	0	0	0	1	blank2r.bmp	0	1	+	0	2	B2r.bmp	492	1	blank2r.bmp	786	1	GKQX	786	1	blank2r.bmp	866	2	schön	866	1	!	1319	1	!	1426	0	0	0	0	0	0	0	0	0	0	0	0	0	0	0	0	0	0	0	0	0	0	0	0	0	0	0
120518	16:08:36	16:13:30	291546	5.0.10.0	4_exp_AWA_CON_EVA_AMP	998	Rpleas_acq	Same	Rpleas	Bmasked	CS_B	2pleas	distractor1	acq_new_unple_masked	acq2_masked	2	22	480	0	300	300	0	0	559	46	0	1	0	0	0	1	blank2r.bmp	0	1	+	0	8	C4r.bmp	492	1	blank2r.bmp	786	7	C3r.bmp	786	1	blank2r.bmp	866	6	rächen	866	1	!	1319	1	!	-1	0	0	0	0	0	0	0	0	0	0	0	0	0	0	0	0	0	0	0	0	0	0	0	0	0	0	0
120518	16:08:36	16:13:32	293852	5.0.10.0	4_exp_AWA_CON_EVA_AMP	998	Rpleas_acq	Same	Rpleas	Bmasked	CS_B	2pleas	distractor1	acq_US_unple_masked	acq2_masked	2	23	480	1	300	300	0	0	494	46	0	1	0	0	0	1	blank2r.bmp	0	1	+	0	3	B3r.bmp	492	1	blank2r.bmp	786	1	BMVZ	786	1	blank2r.bmp	866	1	eitel	866	1	!	1319	1	!	1399	0	0	0	0	0	0	0	0	0	0	0	0	0	0	0	0	0	0	0	0	0	0	0	0	0	0	0
120518	16:08:36	16:13:34	296157	5.0.10.0	4_exp_AWA_CON_EVA_AMP	998	Rpleas_acq	Same	Rpleas	Bmasked	CS_B	2pleas	distractor1	acq_new_unple_masked	acq2_masked	2	24	480	1	300	300	0	0	505	46	0	1	0	0	0	1	blank2r.bmp	0	1	+	0	4	B4r.bmp	492	1	blank2r.bmp	786	8	C4r.bmp	786	1	blank2r.bmp	866	3	hindern	866	1	!	1319	1	!	1412	0	0	0	0	0	0	0	0	0	0	0	0	0	0	0	0	0	0	0	0	0	0	0	0	0	0	0
120518	16:08:36	16:13:37	298716	5.0.10.0	4_exp_AWA_CON_EVA_AMP	998	Rpleas_acq	Same	Rpleas	Bmasked	CS_B	2pleas	distractor1	acq_US_pleas_masked	acq2_masked	2	25	480	0	300	300	0	0	571	46	0	0	0	0	0	1	blank2r.bmp	0	1	+	0	6	C2r.bmp	492	1	blank2r.bmp	786	1	GKQX	786	1	blank2r.bmp	866	6	tolerant	866	1	FEHLER	1772	1	!	1319	1	!	-1	0	0	0	0	0	0	0	0	0	0	0	0	0	0	0	0	0	0	0	0	0	0	0	0
120518	16:08:36	16:13:39	300822	5.0.10.0	4_exp_AWA_CON_EVA_AMP	998	Rpleas_acq	Same	Rpleas	Bmasked	CS_B	2pleas	distractor1	acq_new_unple_masked	acq2_masked	2	26	480	1	300	300	0	0	507	46	0	1	0	0	0	1	blank2r.bmp	0	1	+	0	7	C3r.bmp	492	1	blank2r.bmp	786	5	C1r.bmp	786	1	blank2r.bmp	866	1	faul	866	1	!	1319	1	!	1412	0	0	0	0	0	0	0	0	0	0	0	0	0	0	0	0	0	0	0	0	0	0	0	0	0	0	0
120518	16:08:36	16:13:41	303088	5.0.10.0	4_exp_AWA_CON_EVA_AMP	998	Rpleas_acq	Same	Rpleas	Bmasked	CS_B	2pleas	distractor1	acq_new_pleas_masked	acq2_masked	2	27	480	1	300	300	0	0	475	50	0	1	0	0	0	1	blank2r.bmp	0	1	+	0	5	C1r.bmp	492	1	blank2r.bmp	786	1	B1r.bmp	786	1	blank2r.bmp	866	3	helfen	866	1	!	1319	1	!	1372	0	0	0	0	0	0	0	0	0	0	0	0	0	0	0	0	0	0	0	0	0	0	0	0	0	0	0
120518	16:08:36	16:13:44	305420	5.0.10.0	4_exp_AWA_CON_EVA_AMP	998	Rpleas_acq	Same	Rpleas	Bmasked	CS_B	2pleas	distractor1	acq_new_pleas_masked	acq2_masked	2	28	480	1	300	300	0	0	543	50	0	1	0	0	0	1	blank2r.bmp	0	1	+	0	1	B1r.bmp	492	1	blank2r.bmp	786	6	C2r.bmp	786	1	blank2r.bmp	866	5	lachen	866	1	!	1319	1	!	1439	0	0	0	0	0	0	0	0	0	0	0	0	0	0	0	0	0	0	0	0	0	0	0	0	0	0	0
120518	16:08:36	16:13:46	307726	5.0.10.0	4_exp_AWA_CON_EVA_AMP	998	Rpleas_acq	Same	Rpleas	Bmasked	CS_B	2pleas	distractor1	acq_new_pleas_masked	acq2_masked	2	29	480	1	300	300	0	0	509	50	0	1	0	0	0	1	blank2r.bmp	0	1	+	0	4	B4r.bmp	492	1	blank2r.bmp	786	3	B3r.bmp	786	1	blank2r.bmp	866	6	retten	866	1	!	1319	1	!	1412	0	0	0	0	0	0	0	0	0	0	0	0	0	0	0	0	0	0	0	0	0	0	0	0	0	0	0
120518	16:08:36	16:13:48	310112	5.0.10.0	4_exp_AWA_CON_EVA_AMP	998	Rpleas_acq	Same	Rpleas	Bmasked	CS_B	2pleas	distractor1	acq_US_pleas_masked	acq2_masked	2	30	480	0	300	300	0	0	617	50	0	1	0	0	0	1	blank2r.bmp	0	1	+	0	3	B3r.bmp	492	1	blank2r.bmp	786	1	GKQX	786	1	blank2r.bmp	866	4	spielen	866	1	!	1319	1	!	-1	0	0	0	0	0	0	0	0	0	0	0	0	0	0	0	0	0	0	0	0	0	0	0	0	0	0	0
120518	16:08:36	16:13:51	312657	5.0.10.0	4_exp_AWA_CON_EVA_AMP	998	Rpleas_acq	Same	Rpleas	Bmasked	CS_B	2pleas	distractor1	acq_US_unple_masked	acq2_masked	2	31	480	1	300	300	0	0	518	50	0	0	0	0	0	1	blank2r.bmp	0	1	+	0	7	C3r.bmp	492	1	blank2r.bmp	786	1	BMVZ	786	1	blank2r.bmp	866	4	strafen	866	1	FEHLER	1732	1	!	1319	1	!	1412	0	0	0	0	0	0	0	0	0	0	0	0	0	0	0	0	0	0	0	0	0	0	0	0
120518	16:08:36	16:13:53	314750	5.0.10.0	4_exp_AWA_CON_EVA_AMP	998	Rpleas_acq	Same	Rpleas	Bmasked	CS_B	2pleas	distractor1	acq_US_pleas_masked	acq2_masked	2	32	480	1	300	300	0	0	505	50	0	1	0	0	0	1	blank2r.bmp	0	1	+	0	2	B2r.bmp	492	1	blank2r.bmp	786	1	GKQX	786	1	blank2r.bmp	866	3	freundlich	866	1	!	1319	1	!	1412	0	0	0	0	0	0	0	0	0	0	0	0	0	0	0	0	0	0	0	0	0	0	0	0	0	0	0
120518	16:08:36	16:13:55	317015	5.0.10.0	4_exp_AWA_CON_EVA_AMP	998	Rpleas_acq	Same	Rpleas	Bmasked	CS_B	2pleas	distractor1	acq_US_unple_masked	acq2_masked	2	33	480	1	300	300	0	0	466	46	0	1	0	0	0	1	blank2r.bmp	0	1	+	0	1	B1r.bmp	492	1	blank2r.bmp	786	1	BMVZ	786	1	blank2r.bmp	866	2	schlecht	866	1	!	1319	1	!	1372	0	0	0	0	0	0	0	0	0	0	0	0	0	0	0	0	0	0	0	0	0	0	0	0	0	0	0
120518	16:08:36	16:13:57	319254	5.0.10.0	4_exp_AWA_CON_EVA_AMP	998	Rpleas_acq	Same	Rpleas	Bmasked	CS_B	2pleas	distractor1	acq_US_unple_masked	acq2_masked	2	34	480	1	300	300	0	0	442	46	0	1	0	0	0	1	blank2r.bmp	0	1	+	0	6	C2r.bmp	492	1	blank2r.bmp	786	1	BMVZ	786	1	blank2r.bmp	866	6	tyrannisch	866	1	!	1319	1	!	1346	0	0	0	0	0	0	0	0	0	0	0	0	0	0	0	0	0	0	0	0	0	0	0	0	0	0	0
120518	16:08:36	16:14:00	321534	5.0.10.0	4_exp_AWA_CON_EVA_AMP	998	Rpleas_acq	Same	Rpleas	Bmasked	CS_B	2pleas	distractor1	acq_new_unple_masked	acq2_masked	2	35	480	1	300	300	0	0	491	46	0	1	0	0	0	1	blank2r.bmp	0	1	+	0	8	C4r.bmp	492	1	blank2r.bmp	786	7	C3r.bmp	786	1	blank2r.bmp	866	2	schroff	866	1	!	1319	1	!	1386	0	0	0	0	0	0	0	0	0	0	0	0	0	0	0	0	0	0	0	0	0	0	0	0	0	0	0
120518	16:08:36	16:14:02	323826	5.0.10.0	4_exp_AWA_CON_EVA_AMP	998	Rpleas_acq	Same	Rpleas	Bmasked	CS_B	2pleas	distractor1	acq_new_unple_masked	acq2_masked	2	36	480	1	300	300	0	0	492	46	0	1	0	0	0	1	blank2r.bmp	0	1	+	0	5	C1r.bmp	492	1	blank2r.bmp	786	4	B4r.bmp	786	1	blank2r.bmp	866	4	tot	866	1	!	1319	1	!	1399	0	0	0	0	0	0	0	0	0	0	0	0	0	0	0	0	0	0	0	0	0	0	0	0	0	0	0
120518	16:08:36	16:14:09	330477	5.0.10.0	4_exp_AWA_CON_EVA_AMP	998	Rpleas_acq	Same	Rpleas	Bmasked	CS_B	2pleas	distractor1	acq_US_unple_masked	acq3_masked	3	1	453	0	300	300	0	0	582	46	0	1	0	0	0	1	blank2r.bmp	0	1	+	0	6	C2r.bmp	492	1	blank2r.bmp	786	1	BMVZ	786	1	blank2r.bmp	866	2	schlecht	866	1	!	1292	1	!	-1	0	0	0	0	0	0	0	0	0	0	0	0	0	0	0	0	0	0	0	0	0	0	0	0	0	0	0
120518	16:08:36	16:14:11	332729	5.0.10.0	4_exp_AWA_CON_EVA_AMP	998	Rpleas_acq	Same	Rpleas	Bmasked	CS_B	2pleas	distractor1	acq_US_pleas_masked	acq3_masked	3	2	453	1	300	300	0	0	449	50	0	1	0	0	0	1	blank2r.bmp	0	1	+	0	7	C3r.bmp	492	1	blank2r.bmp	786	1	GKQX	786	1	blank2r.bmp	866	1	ehrlich	866	1	!	1292	1	!	1346	0	0	0	0	0	0	0	0	0	0	0	0	0	0	0	0	0	0	0	0	0	0	0	0	0	0	0
120518	16:08:36	16:14:13	334995	5.0.10.0	4_exp_AWA_CON_EVA_AMP	998	Rpleas_acq	Same	Rpleas	Bmasked	CS_B	2pleas	distractor1	acq_US_unple_masked	acq3_masked	3	3	453	1	300	300	0	0	458	46	0	1	0	0	0	1	blank2r.bmp	0	1	+	0	2	B2r.bmp	492	1	blank2r.bmp	786	1	BMVZ	786	1	blank2r.bmp	866	6	tyrannisch	866	1	!	1292	1	!	1359	0	0	0	0	0	0	0	0	0	0	0	0	0	0	0	0	0	0	0	0	0	0	0	0	0	0	0
120518	16:08:36	16:14:16	337434	5.0.10.0	4_exp_AWA_CON_EVA_AMP	998	Rpleas_acq	Same	Rpleas	Bmasked	CS_B	2pleas	distractor1	acq_US_unple_masked	acq3_masked	3	4	453	0	300	300	0	0	670	46	0	1	0	0	0	1	blank2r.bmp	0	1	+	0	4	B4r.bmp	492	1	blank2r.bmp	786	1	BMVZ	786	1	blank2r.bmp	866	1	eitel	866	1	!	1292	1	!	-1	0	0	0	0	0	0	0	0	0	0	0	0	0	0	0	0	0	0	0	0	0	0	0	0	0	0	0
120518	16:08:36	16:14:18	339766	5.0.10.0	4_exp_AWA_CON_EVA_AMP	998	Rpleas_acq	Same	Rpleas	Bmasked	CS_B	2pleas	distractor1	acq_US_pleas_masked	acq3_masked	3	5	453	1	300	300	0	0	519	50	0	1	0	0	0	1	blank2r.bmp	0	1	+	0	5	C1r.bmp	492	1	blank2r.bmp	786	1	GKQX	786	1	blank2r.bmp	866	2	schön	866	1	!	1292	1	!	1426	0	0	0	0	0	0	0	0	0	0	0	0	0	0	0	0	0	0	0	0	0	0	0	0	0	0	0
120518	16:08:36	16:14:20	342085	5.0.10.0	4_exp_AWA_CON_EVA_AMP	998	Rpleas_acq	Same	Rpleas	Bmasked	CS_B	2pleas	distractor1	acq_US_pleas_masked	acq3_masked	3	6	453	1	300	300	0	0	518	50	0	1	0	0	0	1	blank2r.bmp	0	1	+	0	1	B1r.bmp	492	1	blank2r.bmp	786	1	GKQX	786	1	blank2r.bmp	866	3	freundlich	866	1	!	1292	1	!	1412	0	0	0	0	0	0	0	0	0	0	0	0	0	0	0	0	0	0	0	0	0	0	0	0	0	0	0
120518	16:08:36	16:14:23	344377	5.0.10.0	4_exp_AWA_CON_EVA_AMP	998	Rpleas_acq	Same	Rpleas	Bmasked	CS_B	2pleas	distractor1	acq_US_unple_masked	acq3_masked	3	7	453	1	300	300	0	0	492	46	0	1	0	0	0	1	blank2r.bmp	0	1	+	0	3	B3r.bmp	492	1	blank2r.bmp	786	1	BMVZ	786	1	blank2r.bmp	866	5	lasch	866	1	!	1292	1	!	1399	0	0	0	0	0	0	0	0	0	0	0	0	0	0	0	0	0	0	0	0	0	0	0	0	0	0	0
120518	16:08:36	16:14:25	346843	5.0.10.0	4_exp_AWA_CON_EVA_AMP	998	Rpleas_acq	Same	Rpleas	Bmasked	CS_B	2pleas	distractor1	acq_US_pleas_masked	acq3_masked	3	8	453	1	300	300	0	0	459	46	0	0	0	0	0	1	blank2r.bmp	0	1	+	0	8	C4r.bmp	492	1	blank2r.bmp	786	1	GKQX	786	1	blank2r.bmp	866	6	tolerant	866	1	FEHLER	1679	1	!	1292	1	!	1359	0	0	0	0	0	0	0	0	0	0	0	0	0	0	0	0	0	0	0	0	0	0	0	0
120518	16:08:36	16:14:27	348896	5.0.10.0	4_exp_AWA_CON_EVA_AMP	998	Rpleas_acq	Same	Rpleas	Bmasked	CS_B	2pleas	distractor1	acq_US_unple_masked	acq3_masked	3	9	453	1	300	300	0	0	462	46	0	1	0	0	0	1	blank2r.bmp	0	1	+	0	5	C1r.bmp	492	1	blank2r.bmp	786	1	BMVZ	786	1	blank2r.bmp	866	3	fanatisch	866	1	!	1292	1	!	1359	0	0	0	0	0	0	0	0	0	0	0	0	0	0	0	0	0	0	0	0	0	0	0	0	0	0	0
120518	16:08:36	16:14:29	351108	5.0.10.0	4_exp_AWA_CON_EVA_AMP	998	Rpleas_acq	Same	Rpleas	Bmasked	CS_B	2pleas	distractor1	acq_US_pleas_masked	acq3_masked	3	10	453	1	300	300	0	0	413	50	0	1	0	0	0	1	blank2r.bmp	0	1	+	0	4	B4r.bmp	492	1	blank2r.bmp	786	1	GKQX	786	1	blank2r.bmp	866	4	spielen	866	1	!	1292	1	!	1319	0	0	0	0	0	0	0	0	0	0	0	0	0	0	0	0	0	0	0	0	0	0	0	0	0	0	0
120518	16:08:36	16:14:32	353614	5.0.10.0	4_exp_AWA_CON_EVA_AMP	998	Rpleas_acq	Same	Rpleas	Bmasked	CS_B	2pleas	distractor1	acq_US_pleas_masked	acq3_masked	3	11	453	1	300	300	0	0	497	46	0	0	0	0	0	1	blank2r.bmp	0	1	+	0	8	C4r.bmp	492	1	blank2r.bmp	786	1	GKQX	786	1	blank2r.bmp	866	5	loyal	866	1	FEHLER	1719	1	!	1292	1	!	1399	0	0	0	0	0	0	0	0	0	0	0	0	0	0	0	0	0	0	0	0	0	0	0	0
120518	16:08:36	16:14:34	355746	5.0.10.0	4_exp_AWA_CON_EVA_AMP	998	Rpleas_acq	Same	Rpleas	Bmasked	CS_B	2pleas	distractor1	acq_US_unple_masked	acq3_masked	3	12	453	0	300	300	0	0	560	46	0	1	0	0	0	1	blank2r.bmp	0	1	+	0	3	B3r.bmp	492	1	blank2r.bmp	786	1	BMVZ	786	1	blank2r.bmp	866	4	strafen	866	1	!	1292	1	!	-1	0	0	0	0	0	0	0	0	0	0	0	0	0	0	0	0	0	0	0	0	0	0	0	0	0	0	0
120518	16:08:36	16:14:36	358052	5.0.10.0	4_exp_AWA_CON_EVA_AMP	998	Rpleas_acq	Same	Rpleas	Bmasked	CS_B	2pleas	distractor1	acq_US_unple_masked	acq3_masked	3	13	453	1	300	300	0	0	493	46	0	1	0	0	0	1	blank2r.bmp	0	1	+	0	6	C2r.bmp	492	1	blank2r.bmp	786	1	BMVZ	786	1	blank2r.bmp	866	6	tyrannisch	866	1	!	1292	1	!	1399	0	0	0	0	0	0	0	0	0	0	0	0	0	0	0	0	0	0	0	0	0	0	0	0	0	0	0
120518	16:08:36	16:14:39	360358	5.0.10.0	4_exp_AWA_CON_EVA_AMP	998	Rpleas_acq	Same	Rpleas	Bmasked	CS_B	2pleas	distractor1	acq_US_unple_masked	acq3_masked	3	14	453	1	300	300	0	0	518	46	0	1	0	0	0	1	blank2r.bmp	0	1	+	0	1	B1r.bmp	492	1	blank2r.bmp	786	1	BMVZ	786	1	blank2r.bmp	866	5	lasch	866	1	!	1292	1	!	1412	0	0	0	0	0	0	0	0	0	0	0	0	0	0	0	0	0	0	0	0	0	0	0	0	0	0	0
120518	16:08:36	16:14:41	362743	5.0.10.0	4_exp_AWA_CON_EVA_AMP	998	Rpleas_acq	Same	Rpleas	Bmasked	CS_B	2pleas	distractor1	acq_US_pleas_masked	acq3_masked	3	15	453	0	300	300	0	0	383	46	0	0	0	0	0	1	blank2r.bmp	0	1	+	0	2	B2r.bmp	492	1	blank2r.bmp	786	1	GKQX	786	1	blank2r.bmp	866	1	ehrlich	866	1	FEHLER	1586	1	!	-1	1	!	-1	0	0	0	0	0	0	0	0	0	0	0	0	0	0	0	0	0	0	0	0	0	0	0	0
120518	16:08:36	16:14:43	364996	5.0.10.0	4_exp_AWA_CON_EVA_AMP	998	Rpleas_acq	Same	Rpleas	Bmasked	CS_B	2pleas	distractor1	acq_US_unple_masked	acq3_masked	3	16	453	1	300	300	0	0	461	50	0	0	0	0	0	1	blank2r.bmp	0	1	+	0	7	C3r.bmp	492	1	blank2r.bmp	786	1	BMVZ	786	1	blank2r.bmp	866	1	eitel	866	1	FEHLER	1679	1	!	1292	1	!	1359	0	0	0	0	0	0	0	0	0	0	0	0	0	0	0	0	0	0	0	0	0	0	0	0
120518	16:08:36	16:14:45	367035	5.0.10.0	4_exp_AWA_CON_EVA_AMP	998	Rpleas_acq	Same	Rpleas	Bmasked	CS_B	2pleas	distractor1	acq_US_pleas_masked	acq3_masked	3	17	453	1	300	300	0	0	463	50	0	1	0	0	0	1	blank2r.bmp	0	1	+	0	8	C4r.bmp	492	1	blank2r.bmp	786	1	GKQX	786	1	blank2r.bmp	866	2	schön	866	1	!	1292	1	!	1359	0	0	0	0	0	0	0	0	0	0	0	0	0	0	0	0	0	0	0	0	0	0	0	0	0	0	0
120518	16:08:36	16:14:48	369354	5.0.10.0	4_exp_AWA_CON_EVA_AMP	998	Rpleas_acq	Same	Rpleas	Bmasked	CS_B	2pleas	distractor1	acq_US_unple_masked	acq3_masked	3	18	453	1	300	300	0	0	513	46	0	1	0	0	0	1	blank2r.bmp	0	1	+	0	3	B3r.bmp	492	1	blank2r.bmp	786	1	BMVZ	786	1	blank2r.bmp	866	4	strafen	866	1	!	1292	1	!	1412	0	0	0	0	0	0	0	0	0	0	0	0	0	0	0	0	0	0	0	0	0	0	0	0	0	0	0
120518	16:08:36	16:14:50	371580	5.0.10.0	4_exp_AWA_CON_EVA_AMP	998	Rpleas_acq	Same	Rpleas	Bmasked	CS_B	2pleas	distractor1	acq_US_pleas_masked	acq3_masked	3	19	453	1	300	300	0	0	430	50	0	1	0	0	0	1	blank2r.bmp	0	1	+	0	7	C3r.bmp	492	1	blank2r.bmp	786	1	GKQX	786	1	blank2r.bmp	866	4	spielen	866	1	!	1292	1	!	1332	0	0	0	0	0	0	0	0	0	0	0	0	0	0	0	0	0	0	0	0	0	0	0	0	0	0	0
120518	16:08:36	16:14:52	373899	5.0.10.0	4_exp_AWA_CON_EVA_AMP	998	Rpleas_acq	Same	Rpleas	Bmasked	CS_B	2pleas	distractor1	acq_US_pleas_masked	acq3_masked	3	20	453	0	300	300	0	0	548	50	0	1	0	0	0	1	blank2r.bmp	0	1	+	0	5	C1r.bmp	492	1	blank2r.bmp	786	1	GKQX	786	1	blank2r.bmp	866	5	loyal	866	1	!	1292	1	!	-1	0	0	0	0	0	0	0	0	0	0	0	0	0	0	0	0	0	0	0	0	0	0	0	0	0	0	0
120518	16:08:36	16:14:54	376111	5.0.10.0	4_exp_AWA_CON_EVA_AMP	998	Rpleas_acq	Same	Rpleas	Bmasked	CS_B	2pleas	distractor1	acq_US_unple_masked	acq3_masked	3	21	453	1	300	300	0	0	400	46	0	1	0	0	0	1	blank2r.bmp	0	1	+	0	6	C2r.bmp	492	1	blank2r.bmp	786	1	BMVZ	786	1	blank2r.bmp	866	2	schlecht	866	1	!	1292	1	!	1306	0	0	0	0	0	0	0	0	0	0	0	0	0	0	0	0	0	0	0	0	0	0	0	0	0	0	0
120518	16:08:36	16:14:57	378443	5.0.10.0	4_exp_AWA_CON_EVA_AMP	998	Rpleas_acq	Same	Rpleas	Bmasked	CS_B	2pleas	distractor1	acq_US_unple_masked	acq3_masked	3	22	453	0	300	300	0	0	571	46	0	1	0	0	0	1	blank2r.bmp	0	1	+	0	1	B1r.bmp	492	1	blank2r.bmp	786	1	BMVZ	786	1	blank2r.bmp	866	3	fanatisch	866	1	!	1292	1	!	-1	0	0	0	0	0	0	0	0	0	0	0	0	0	0	0	0	0	0	0	0	0	0	0	0	0	0	0
120518	16:08:36	16:14:59	380816	5.0.10.0	4_exp_AWA_CON_EVA_AMP	998	Rpleas_acq	Same	Rpleas	Bmasked	CS_B	2pleas	distractor1	acq_US_pleas_masked	acq3_masked	3	23	453	0	300	300	0	0	590	50	0	1	0	0	0	1	blank2r.bmp	0	1	+	0	2	B2r.bmp	492	1	blank2r.bmp	786	1	GKQX	786	1	blank2r.bmp	866	6	tolerant	866	1	!	1292	1	!	-1	0	0	0	0	0	0	0	0	0	0	0	0	0	0	0	0	0	0	0	0	0	0	0	0	0	0	0
120518	16:08:36	16:15:01	383082	5.0.10.0	4_exp_AWA_CON_EVA_AMP	998	Rpleas_acq	Same	Rpleas	Bmasked	CS_B	2pleas	distractor1	acq_US_pleas_masked	acq3_masked	3	24	453	1	300	300	0	0	465	50	0	1	0	0	0	1	blank2r.bmp	0	1	+	0	4	B4r.bmp	492	1	blank2r.bmp	786	1	GKQX	786	1	blank2r.bmp	866	3	freundlich	866	1	!	1292	1	!	1359	0	0	0	0	0	0	0	0	0	0	0	0	0	0	0	0	0	0	0	0	0	0	0	0	0	0	0
120518	16:08:36	16:15:04	385401	5.0.10.0	4_exp_AWA_CON_EVA_AMP	998	Rpleas_acq	Same	Rpleas	Bmasked	CS_B	2pleas	distractor1	acq_US_pleas_masked	acq3_masked	3	25	453	0	300	300	0	0	546	50	0	1	0	0	0	1	blank2r.bmp	0	1	+	0	2	B2r.bmp	492	1	blank2r.bmp	786	1	GKQX	786	1	blank2r.bmp	866	5	loyal	866	1	!	1292	1	!	-1	0	0	0	0	0	0	0	0	0	0	0	0	0	0	0	0	0	0	0	0	0	0	0	0	0	0	0
120518	16:08:36	16:15:06	387720	5.0.10.0	4_exp_AWA_CON_EVA_AMP	998	Rpleas_acq	Same	Rpleas	Bmasked	CS_B	2pleas	distractor1	acq_US_pleas_masked	acq3_masked	3	26	453	1	300	300	0	0	507	50	0	1	0	0	0	1	blank2r.bmp	0	1	+	0	8	C4r.bmp	492	1	blank2r.bmp	786	1	GKQX	786	1	blank2r.bmp	866	3	freundlich	866	1	!	1292	1	!	1412	0	0	0	0	0	0	0	0	0	0	0	0	0	0	0	0	0	0	0	0	0	0	0	0	0	0	0
120518	16:08:36	16:15:08	389999	5.0.10.0	4_exp_AWA_CON_EVA_AMP	998	Rpleas_acq	Same	Rpleas	Bmasked	CS_B	2pleas	distractor1	acq_US_unple_masked	acq3_masked	3	27	453	1	300	300	0	0	470	46	0	1	0	0	0	1	blank2r.bmp	0	1	+	0	6	C2r.bmp	492	1	blank2r.bmp	786	1	BMVZ	786	1	blank2r.bmp	866	3	fanatisch	866	1	!	1292	1	!	1372	0	0	0	0	0	0	0	0	0	0	0	0	0	0	0	0	0	0	0	0	0	0	0	0	0	0	0
120518	16:08:36	16:15:10	392238	5.0.10.0	4_exp_AWA_CON_EVA_AMP	998	Rpleas_acq	Same	Rpleas	Bmasked	CS_B	2pleas	distractor1	acq_US_pleas_masked	acq3_masked	3	28	453	1	300	300	0	0	444	50	0	1	0	0	0	1	blank2r.bmp	0	1	+	0	3	B3r.bmp	492	1	blank2r.bmp	786	1	GKQX	786	1	blank2r.bmp	866	1	ehrlich	866	1	!	1292	1	!	1346	0	0	0	0	0	0	0	0	0	0	0	0	0	0	0	0	0	0	0	0	0	0	0	0	0	0	0
120518	16:08:36	16:15:13	394477	5.0.10.0	4_exp_AWA_CON_EVA_AMP	998	Rpleas_acq	Same	Rpleas	Bmasked	CS_B	2pleas	distractor1	acq_US_pleas_masked	acq3_masked	3	29	453	1	300	300	0	0	445	50	0	1	0	0	0	1	blank2r.bmp	0	1	+	0	7	C3r.bmp	492	1	blank2r.bmp	786	1	GKQX	786	1	blank2r.bmp	866	4	spielen	866	1	!	1292	1	!	1346	0	0	0	0	0	0	0	0	0	0	0	0	0	0	0	0	0	0	0	0	0	0	0	0	0	0	0
120518	16:08:36	16:15:15	396703	5.0.10.0	4_exp_AWA_CON_EVA_AMP	998	Rpleas_acq	Same	Rpleas	Bmasked	CS_B	2pleas	distractor1	acq_US_unple_masked	acq3_masked	3	30	453	1	300	300	0	0	430	46	0	1	0	0	0	1	blank2r.bmp	0	1	+	0	1	B1r.bmp	492	1	blank2r.bmp	786	1	BMVZ	786	1	blank2r.bmp	866	5	lasch	866	1	!	1292	1	!	1332	0	0	0	0	0	0	0	0	0	0	0	0	0	0	0	0	0	0	0	0	0	0	0	0	0	0	0
120518	16:08:36	16:15:17	399008	5.0.10.0	4_exp_AWA_CON_EVA_AMP	998	Rpleas_acq	Same	Rpleas	Bmasked	CS_B	2pleas	distractor1	acq_US_unple_masked	acq3_masked	3	31	453	0	300	300	0	0	537	46	0	1	0	0	0	1	blank2r.bmp	0	1	+	0	5	C1r.bmp	492	1	blank2r.bmp	786	1	BMVZ	786	1	blank2r.bmp	866	4	strafen	866	1	!	1292	1	!	-1	0	0	0	0	0	0	0	0	0	0	0	0	0	0	0	0	0	0	0	0	0	0	0	0	0	0	0
120518	16:08:36	16:15:19	401301	5.0.10.0	4_exp_AWA_CON_EVA_AMP	998	Rpleas_acq	Same	Rpleas	Bmasked	CS_B	2pleas	distractor1	acq_US_unple_masked	acq3_masked	3	32	453	1	300	300	0	0	490	46	0	1	0	0	0	1	blank2r.bmp	0	1	+	0	4	B4r.bmp	492	1	blank2r.bmp	786	1	BMVZ	786	1	blank2r.bmp	866	2	schlecht	866	1	!	1292	1	!	1386	0	0	0	0	0	0	0	0	0	0	0	0	0	0	0	0	0	0	0	0	0	0	0	0	0	0	0
120518	16:08:36	16:15:22	403606	5.0.10.0	4_exp_AWA_CON_EVA_AMP	998	Rpleas_acq	Same	Rpleas	Bmasked	CS_B	2pleas	distractor1	acq_US_pleas_masked	acq3_masked	3	33	453	0	300	300	0	0	532	50	0	1	0	0	0	1	blank2r.bmp	0	1	+	0	8	C4r.bmp	492	1	blank2r.bmp	786	1	GKQX	786	1	blank2r.bmp	866	6	tolerant	866	1	!	1292	1	!	-1	0	0	0	0	0	0	0	0	0	0	0	0	0	0	0	0	0	0	0	0	0	0	0	0	0	0	0
120518	16:08:36	16:15:24	405845	5.0.10.0	4_exp_AWA_CON_EVA_AMP	998	Rpleas_acq	Same	Rpleas	Bmasked	CS_B	2pleas	distractor1	acq_US_pleas_masked	acq3_masked	3	34	453	1	300	300	0	0	429	50	0	1	0	0	0	1	blank2r.bmp	0	1	+	0	6	C2r.bmp	492	1	blank2r.bmp	786	1	GKQX	786	1	blank2r.bmp	866	2	schön	866	1	!	1292	1	!	1332	0	0	0	0	0	0	0	0	0	0	0	0	0	0	0	0	0	0	0	0	0	0	0	0	0	0	0
120518	16:08:36	16:15:26	408005	5.0.10.0	4_exp_AWA_CON_EVA_AMP	998	Rpleas_acq	Same	Rpleas	Bmasked	CS_B	2pleas	distractor1	acq_US_unple_masked	acq3_masked	3	35	453	0	300	300	0	0	383	46	0	1	0	0	0	1	blank2r.bmp	0	1	+	0	5	C1r.bmp	492	1	blank2r.bmp	786	1	BMVZ	786	1	blank2r.bmp	866	1	eitel	866	1	!	-1	1	!	-1	0	0	0	0	0	0	0	0	0	0	0	0	0	0	0	0	0	0	0	0	0	0	0	0	0	0	0
120518	16:08:36	16:15:28	410297	5.0.10.0	4_exp_AWA_CON_EVA_AMP	998	Rpleas_acq	Same	Rpleas	Bmasked	CS_B	2pleas	distractor1	acq_US_unple_masked	acq3_masked	3	36	453	1	300	300	0	0	483	46	0	1	0	0	0	1	blank2r.bmp	0	1	+	0	4	B4r.bmp	492	1	blank2r.bmp	786	1	BMVZ	786	1	blank2r.bmp	866	6	tyrannisch	866	1	!	1292	1	!	1386	0	0	0	0	0	0	0	0	0	0	0	0	0	0	0	0	0	0	0	0	0	0	0	0	0	0	0
120518	16:08:36	16:15:37	419227	5.0.10.0	4_exp_AWA_CON_EVA_AMP	998	Rpleas_acq	Same	Rpleas	Bmasked	CS_B	2pleas	distractor1	acq_US_pleas_masked	acq45_masked	4	1	400	0	300	300	0	0	535	50	0	1	0	0	0	1	blank2r.bmp	0	1	+	0	1	B1r.bmp	492	1	blank2r.bmp	786	1	GKQX	786	1	blank2r.bmp	866	6	tolerant	866	1	!	1239	1	!	-1	0	0	0	0	0	0	0	0	0	0	0	0	0	0	0	0	0	0	0	0	0	0	0	0	0	0	0
120518	16:08:36	16:15:40	421759	5.0.10.0	4_exp_AWA_CON_EVA_AMP	998	Rpleas_acq	Same	Rpleas	Bmasked	CS_B	2pleas	distractor1	acq_US_unple_masked	acq45_masked	4	2	400	0	300	300	0	0	747	46	0	1	0	0	0	1	blank2r.bmp	0	1	+	0	7	C3r.bmp	492	1	blank2r.bmp	786	1	BMVZ	786	1	blank2r.bmp	866	1	eitel	866	1	!	1239	1	!	-1	0	0	0	0	0	0	0	0	0	0	0	0	0	0	0	0	0	0	0	0	0	0	0	0	0	0	0
120518	16:08:36	16:15:42	424051	5.0.10.0	4_exp_AWA_CON_EVA_AMP	998	Rpleas_acq	Same	Rpleas	Bmasked	CS_B	2pleas	distractor1	acq_US_unple_masked	acq45_masked	4	3	400	0	300	300	0	0	512	50	0	0	0	0	0	1	blank2r.bmp	0	1	+	0	2	B2r.bmp	492	1	blank2r.bmp	786	1	BMVZ	786	1	blank2r.bmp	866	2	schlecht	866	1	!	1239	1	!	-1	0	0	0	0	0	0	0	0	0	0	0	0	0	0	0	0	0	0	0	0	0	0	0	0	0	0	0
120518	16:08:36	16:15:45	426610	5.0.10.0	4_exp_AWA_CON_EVA_AMP	998	Rpleas_acq	Same	Rpleas	Bmasked	CS_B	2pleas	distractor1	acq_US_pleas_masked	acq45_masked	4	4	400	0	300	300	0	0	776	46	0	0	0	0	0	1	blank2r.bmp	0	1	+	0	3	B3r.bmp	492	1	blank2r.bmp	786	1	GKQX	786	1	blank2r.bmp	866	1	ehrlich	866	1	!	1239	1	!	-1	0	0	0	0	0	0	0	0	0	0	0	0	0	0	0	0	0	0	0	0	0	0	0	0	0	0	0
120518	16:08:36	16:15:49	430715	5.0.10.0	4_exp_AWA_CON_EVA_AMP	998	Rpleas_acq	Same	Rpleas	Bmasked	CS_B	2pleas	distractor1	acq_US_unple_masked	acq45_masked	4	5	400	0	300	300	0	0	2327	50	0	0	0	0	0	1	blank2r.bmp	0	1	+	0	2	B2r.bmp	492	1	blank2r.bmp	786	1	BMVZ	786	1	blank2r.bmp	866	4	strafen	866	1	!	1239	1	!	-1	0	0	0	0	0	0	0	0	0	0	0	0	0	0	0	0	0	0	0	0	0	0	0	0	0	0	0
120518	16:08:36	16:15:51	433061	5.0.10.0	4_exp_AWA_CON_EVA_AMP	998	Rpleas_acq	Same	Rpleas	Bmasked	CS_B	2pleas	distractor1	acq_US_unple_masked	acq45_masked	4	6	400	0	300	300	0	0	548	46	0	1	0	0	0	1	blank2r.bmp	0	1	+	0	6	C2r.bmp	492	1	blank2r.bmp	786	1	BMVZ	786	1	blank2r.bmp	866	5	lasch	866	1	!	1239	1	!	-1	0	0	0	0	0	0	0	0	0	0	0	0	0	0	0	0	0	0	0	0	0	0	0	0	0	0	0
120518	16:08:36	16:15:54	435487	5.0.10.0	4_exp_AWA_CON_EVA_AMP	998	Rpleas_acq	Same	Rpleas	Bmasked	CS_B	2pleas	distractor1	acq_US_pleas_masked	acq45_masked	4	7	400	0	300	300	0	0	639	50	0	1	0	0	0	1	blank2r.bmp	0	1	+	0	4	B4r.bmp	492	1	blank2r.bmp	786	1	GKQX	786	1	blank2r.bmp	866	3	freundlich	866	1	!	1239	1	!	-1	0	0	0	0	0	0	0	0	0	0	0	0	0	0	0	0	0	0	0	0	0	0	0	0	0	0	0
120518	16:08:36	16:15:56	438086	5.0.10.0	4_exp_AWA_CON_EVA_AMP	998	Rpleas_acq	Same	Rpleas	Bmasked	CS_B	2pleas	distractor1	acq_US_pleas_masked	acq45_masked	4	8	400	0	300	300	0	0	820	50	0	1	0	0	0	1	blank2r.bmp	0	1	+	0	1	B1r.bmp	492	1	blank2r.bmp	786	1	GKQX	786	1	blank2r.bmp	866	4	spielen	866	1	!	1239	1	!	-1	0	0	0	0	0	0	0	0	0	0	0	0	0	0	0	0	0	0	0	0	0	0	0	0	0	0	0
120518	16:08:36	16:15:59	440351	5.0.10.0	4_exp_AWA_CON_EVA_AMP	998	Rpleas_acq	Same	Rpleas	Bmasked	CS_B	2pleas	distractor1	acq_US_unple_masked	acq45_masked	4	9	400	0	300	300	0	0	481	46	0	1	0	0	0	1	blank2r.bmp	0	1	+	0	8	C4r.bmp	492	1	blank2r.bmp	786	1	BMVZ	786	1	blank2r.bmp	866	6	tyrannisch	866	1	!	1239	1	!	-1	0	0	0	0	0	0	0	0	0	0	0	0	0	0	0	0	0	0	0	0	0	0	0	0	0	0	0
120518	16:08:36	16:16:01	442617	5.0.10.0	4_exp_AWA_CON_EVA_AMP	998	Rpleas_acq	Same	Rpleas	Bmasked	CS_B	2pleas	distractor1	acq_US_pleas_masked	acq45_masked	4	10	400	0	300	300	0	0	489	50	0	1	0	0	0	1	blank2r.bmp	0	1	+	0	3	B3r.bmp	492	1	blank2r.bmp	786	1	GKQX	786	1	blank2r.bmp	866	2	schön	866	1	!	1239	1	!	-1	0	0	0	0	0	0	0	0	0	0	0	0	0	0	0	0	0	0	0	0	0	0	0	0	0	0	0
120518	16:08:36	16:16:03	444896	5.0.10.0	4_exp_AWA_CON_EVA_AMP	998	Rpleas_acq	Same	Rpleas	Bmasked	CS_B	2pleas	distractor1	acq_US_pleas_masked	acq45_masked	4	11	400	0	300	300	0	0	489	46	0	0	0	0	0	1	blank2r.bmp	0	1	+	0	7	C3r.bmp	492	1	blank2r.bmp	786	1	GKQX	786	1	blank2r.bmp	866	5	loyal	866	1	!	1239	1	!	-1	0	0	0	0	0	0	0	0	0	0	0	0	0	0	0	0	0	0	0	0	0	0	0	0	0	0	0
120518	16:08:36	16:16:05	447202	5.0.10.0	4_exp_AWA_CON_EVA_AMP	998	Rpleas_acq	Same	Rpleas	Bmasked	CS_B	2pleas	distractor1	acq_US_unple_masked	acq45_masked	4	12	400	0	300	300	0	0	515	46	0	1	0	0	0	1	blank2r.bmp	0	1	+	0	5	C1r.bmp	492	1	blank2r.bmp	786	1	BMVZ	786	1	blank2r.bmp	866	3	fanatisch	866	1	!	1239	1	!	-1	0	0	0	0	0	0	0	0	0	0	0	0	0	0	0	0	0	0	0	0	0	0	0	0	0	0	0
120518	16:08:36	16:16:08	449414	5.0.10.0	4_exp_AWA_CON_EVA_AMP	998	Rpleas_acq	Same	Rpleas	Bmasked	CS_B	2pleas	distractor1	acq_US_unple_masked	acq45_masked	4	13	400	1	300	300	0	0	399	50	0	0	0	0	0	1	blank2r.bmp	0	1	+	0	2	B2r.bmp	492	1	blank2r.bmp	786	1	BMVZ	786	1	blank2r.bmp	866	4	strafen	866	1	!	1239	1	!	1306	0	0	0	0	0	0	0	0	0	0	0	0	0	0	0	0	0	0	0	0	0	0	0	0	0	0	0
120518	16:08:36	16:16:10	451667	5.0.10.0	4_exp_AWA_CON_EVA_AMP	998	Rpleas_acq	Same	Rpleas	Bmasked	CS_B	2pleas	distractor1	acq_US_pleas_masked	acq45_masked	4	14	400	1	300	300	0	0	458	50	0	1	0	0	0	1	blank2r.bmp	0	1	+	0	8	C4r.bmp	492	1	blank2r.bmp	786	1	GKQX	786	1	blank2r.bmp	866	1	ehrlich	866	1	!	1239	1	!	1359	0	0	0	0	0	0	0	0	0	0	0	0	0	0	0	0	0	0	0	0	0	0	0	0	0	0	0
120518	16:08:36	16:16:12	453839	5.0.10.0	4_exp_AWA_CON_EVA_AMP	998	Rpleas_acq	Same	Rpleas	Bmasked	CS_B	2pleas	distractor1	acq_US_unple_masked	acq45_masked	4	15	400	1	300	300	0	0	384	46	0	1	0	0	0	1	blank2r.bmp	0	1	+	0	3	B3r.bmp	492	1	blank2r.bmp	786	1	BMVZ	786	1	blank2r.bmp	866	5	lasch	866	1	!	1239	1	!	1279	0	0	0	0	0	0	0	0	0	0	0	0	0	0	0	0	0	0	0	0	0	0	0	0	0	0	0
120518	16:08:36	16:16:14	456025	5.0.10.0	4_exp_AWA_CON_EVA_AMP	998	Rpleas_acq	Same	Rpleas	Bmasked	CS_B	2pleas	distractor1	acq_US_pleas_masked	acq45_masked	4	16	400	1	300	300	0	0	396	50	0	1	0	0	0	1	blank2r.bmp	0	1	+	0	7	C3r.bmp	492	1	blank2r.bmp	786	1	GKQX	786	1	blank2r.bmp	866	2	schön	866	1	!	1239	1	!	1292	0	0	0	0	0	0	0	0	0	0	0	0	0	0	0	0	0	0	0	0	0	0	0	0	0	0	0
120518	16:08:36	16:16:16	458264	5.0.10.0	4_exp_AWA_CON_EVA_AMP	998	Rpleas_acq	Same	Rpleas	Bmasked	CS_B	2pleas	distractor1	acq_US_unple_masked	acq45_masked	4	17	400	1	300	300	0	0	440	46	0	1	0	0	0	1	blank2r.bmp	0	1	+	0	6	C2r.bmp	492	1	blank2r.bmp	786	1	BMVZ	786	1	blank2r.bmp	866	6	tyrannisch	866	1	!	1239	1	!	1346	0	0	0	0	0	0	0	0	0	0	0	0	0	0	0	0	0	0	0	0	0	0	0	0	0	0	0
120518	16:08:36	16:16:19	460463	5.0.10.0	4_exp_AWA_CON_EVA_AMP	998	Rpleas_acq	Same	Rpleas	Bmasked	CS_B	2pleas	distractor1	acq_US_pleas_masked	acq45_masked	4	18	400	1	300	300	0	0	404	50	0	1	0	0	0	1	blank2r.bmp	0	1	+	0	1	B1r.bmp	492	1	blank2r.bmp	786	1	GKQX	786	1	blank2r.bmp	866	5	loyal	866	1	!	1239	1	!	1306	0	0	0	0	0	0	0	0	0	0	0	0	0	0	0	0	0	0	0	0	0	0	0	0	0	0	0
120518	16:08:36	16:16:21	462729	5.0.10.0	4_exp_AWA_CON_EVA_AMP	998	Rpleas_acq	Same	Rpleas	Bmasked	CS_B	2pleas	distractor1	acq_US_pleas_masked	acq45_masked	4	19	400	0	300	300	0	0	479	50	0	1	0	0	0	1	blank2r.bmp	0	1	+	0	5	C1r.bmp	492	1	blank2r.bmp	786	1	GKQX	786	1	blank2r.bmp	866	3	freundlich	866	1	!	1239	1	!	-1	0	0	0	0	0	0	0	0	0	0	0	0	0	0	0	0	0	0	0	0	0	0	0	0	0	0	0
120518	16:08:36	16:16:23	465008	5.0.10.0	4_exp_AWA_CON_EVA_AMP	998	Rpleas_acq	Same	Rpleas	Bmasked	CS_B	2pleas	distractor1	acq_US_unple_masked	acq45_masked	4	20	400	0	300	300	0	0	496	46	0	1	0	0	0	1	blank2r.bmp	0	1	+	0	4	B4r.bmp	492	1	blank2r.bmp	786	1	BMVZ	786	1	blank2r.bmp	866	3	fanatisch	866	1	!	1239	1	!	-1	0	0	0	0	0	0	0	0	0	0	0	0	0	0	0	0	0	0	0	0	0	0	0	0	0	0	0
120518	16:08:36	16:16:25	467260	5.0.10.0	4_exp_AWA_CON_EVA_AMP	998	Rpleas_acq	Same	Rpleas	Bmasked	CS_B	2pleas	distractor1	acq_US_unple_masked	acq45_masked	4	21	400	1	300	300	0	0	440	50	0	0	0	0	0	1	blank2r.bmp	0	1	+	0	3	B3r.bmp	492	1	blank2r.bmp	786	1	BMVZ	786	1	blank2r.bmp	866	1	eitel	866	1	!	1239	1	!	1346	0	0	0	0	0	0	0	0	0	0	0	0	0	0	0	0	0	0	0	0	0	0	0	0	0	0	0
120518	16:08:36	16:16:28	469513	5.0.10.0	4_exp_AWA_CON_EVA_AMP	998	Rpleas_acq	Same	Rpleas	Bmasked	CS_B	2pleas	distractor1	acq_US_pleas_masked	acq45_masked	4	22	400	1	300	300	0	0	460	46	0	0	0	0	0	1	blank2r.bmp	0	1	+	0	5	C1r.bmp	492	1	blank2r.bmp	786	1	GKQX	786	1	blank2r.bmp	866	4	spielen	866	1	!	1239	1	!	1359	0	0	0	0	0	0	0	0	0	0	0	0	0	0	0	0	0	0	0	0	0	0	0	0	0	0	0
120518	16:08:36	16:16:30	471685	5.0.10.0	4_exp_AWA_CON_EVA_AMP	998	Rpleas_acq	Same	Rpleas	Bmasked	CS_B	2pleas	distractor1	acq_US_pleas_masked	acq45_masked	4	23	400	1	300	300	0	0	378	46	0	0	0	0	0	1	blank2r.bmp	0	1	+	0	6	C2r.bmp	492	1	blank2r.bmp	786	1	GKQX	786	1	blank2r.bmp	866	6	tolerant	866	1	!	1239	1	!	1279	0	0	0	0	0	0	0	0	0	0	0	0	0	0	0	0	0	0	0	0	0	0	0	0	0	0	0
120518	16:08:36	16:16:32	473778	5.0.10.0	4_exp_AWA_CON_EVA_AMP	998	Rpleas_acq	Same	Rpleas	Bmasked	CS_B	2pleas	distractor1	acq_US_pleas_masked	acq45_masked	4	24	400	0	300	300	0	0	331	50	0	1	0	0	0	1	blank2r.bmp	0	1	+	0	7	C3r.bmp	492	1	blank2r.bmp	786	1	GKQX	786	1	blank2r.bmp	866	6	tolerant	866	1	!	-1	1	!	-1	0	0	0	0	0	0	0	0	0	0	0	0	0	0	0	0	0	0	0	0	0	0	0	0	0	0	0
120518	16:08:36	16:16:34	476003	5.0.10.0	4_exp_AWA_CON_EVA_AMP	998	Rpleas_acq	Same	Rpleas	Bmasked	CS_B	2pleas	distractor1	acq_US_unple_masked	acq45_masked	4	25	400	1	300	300	0	0	418	50	0	0	0	0	0	1	blank2r.bmp	0	1	+	0	4	B4r.bmp	492	1	blank2r.bmp	786	1	BMVZ	786	1	blank2r.bmp	866	2	schlecht	866	1	!	1239	1	!	1319	0	0	0	0	0	0	0	0	0	0	0	0	0	0	0	0	0	0	0	0	0	0	0	0	0	0	0
120518	16:08:36	16:16:36	478256	5.0.10.0	4_exp_AWA_CON_EVA_AMP	998	Rpleas_acq	Same	Rpleas	Bmasked	CS_B	2pleas	distractor1	acq_US_pleas_masked	acq45_masked	4	26	400	0	300	300	0	0	479	50	0	1	0	0	0	1	blank2r.bmp	0	1	+	0	1	B1r.bmp	492	1	blank2r.bmp	786	1	GKQX	786	1	blank2r.bmp	866	5	loyal	866	1	!	1239	1	!	-1	0	0	0	0	0	0	0	0	0	0	0	0	0	0	0	0	0	0	0	0	0	0	0	0	0	0	0
120518	16:08:36	16:16:39	480535	5.0.10.0	4_exp_AWA_CON_EVA_AMP	998	Rpleas_acq	Same	Rpleas	Bmasked	CS_B	2pleas	distractor1	acq_US_pleas_masked	acq45_masked	4	27	400	0	300	300	0	0	503	50	0	1	0	0	0	1	blank2r.bmp	0	1	+	0	8	C4r.bmp	492	1	blank2r.bmp	786	1	GKQX	786	1	blank2r.bmp	866	3	freundlich	866	1	!	1239	1	!	-1	0	0	0	0	0	0	0	0	0	0	0	0	0	0	0	0	0	0	0	0	0	0	0	0	0	0	0
120518	16:08:36	16:16:41	482800	5.0.10.0	4_exp_AWA_CON_EVA_AMP	998	Rpleas_acq	Same	Rpleas	Bmasked	CS_B	2pleas	distractor1	acq_US_unple_masked	acq45_masked	4	28	400	0	300	300	0	0	483	46	0	1	0	0	0	1	blank2r.bmp	0	1	+	0	2	B2r.bmp	492	1	blank2r.bmp	786	1	BMVZ	786	1	blank2r.bmp	866	6	tyrannisch	866	1	!	1239	1	!	-1	0	0	0	0	0	0	0	0	0	0	0	0	0	0	0	0	0	0	0	0	0	0	0	0	0	0	0
120518	16:08:36	16:16:43	485000	5.0.10.0	4_exp_AWA_CON_EVA_AMP	998	Rpleas_acq	Same	Rpleas	Bmasked	CS_B	2pleas	distractor1	acq_US_pleas_masked	acq45_masked	4	29	400	1	300	300	0	0	397	50	0	1	0	0	0	1	blank2r.bmp	0	1	+	0	5	C1r.bmp	492	1	blank2r.bmp	786	1	GKQX	786	1	blank2r.bmp	866	1	ehrlich	866	1	!	1239	1	!	1292	0	0	0	0	0	0	0	0	0	0	0	0	0	0	0	0	0	0	0	0	0	0	0	0	0	0	0
120518	16:08:36	16:16:45	487065	5.0.10.0	4_exp_AWA_CON_EVA_AMP	998	Rpleas_acq	Same	Rpleas	Bmasked	CS_B	2pleas	distractor1	acq_US_unple_masked	acq45_masked	4	30	400	0	300	300	0	0	282	50	0	0	0	0	0	1	blank2r.bmp	0	1	+	0	2	B2r.bmp	492	1	blank2r.bmp	786	1	BMVZ	786	1	blank2r.bmp	866	4	strafen	866	1	!	-1	1	!	-1	0	0	0	0	0	0	0	0	0	0	0	0	0	0	0	0	0	0	0	0	0	0	0	0	0	0	0
120518	16:08:36	16:16:48	489691	5.0.10.0	4_exp_AWA_CON_EVA_AMP	998	Rpleas_acq	Same	Rpleas	Bmasked	CS_B	2pleas	distractor1	acq_US_pleas_masked	acq45_masked	4	31	400	0	300	300	0	0	846	46	0	0	0	0	0	1	blank2r.bmp	0	1	+	0	4	B4r.bmp	492	1	blank2r.bmp	786	1	GKQX	786	1	blank2r.bmp	866	2	schön	866	1	!	1239	1	!	-1	0	0	0	0	0	0	0	0	0	0	0	0	0	0	0	0	0	0	0	0	0	0	0	0	0	0	0
120518	16:08:36	16:16:50	491730	5.0.10.0	4_exp_AWA_CON_EVA_AMP	998	Rpleas_acq	Same	Rpleas	Bmasked	CS_B	2pleas	distractor1	acq_US_unple_masked	acq45_masked	4	32	400	0	300	300	0	0	259	46	0	1	0	0	0	1	blank2r.bmp	0	1	+	0	8	C4r.bmp	492	1	blank2r.bmp	786	1	BMVZ	786	1	blank2r.bmp	866	3	fanatisch	866	1	!	-1	1	!	-1	0	0	0	0	0	0	0	0	0	0	0	0	0	0	0	0	0	0	0	0	0	0	0	0	0	0	0
120518	16:08:36	16:16:52	494142	5.0.10.0	4_exp_AWA_CON_EVA_AMP	998	Rpleas_acq	Same	Rpleas	Bmasked	CS_B	2pleas	distractor1	acq_US_pleas_masked	acq45_masked	4	33	400	0	300	300	0	0	627	46	0	0	0	0	0	1	blank2r.bmp	0	1	+	0	7	C3r.bmp	492	1	blank2r.bmp	786	1	GKQX	786	1	blank2r.bmp	866	4	spielen	866	1	!	1239	1	!	-1	0	0	0	0	0	0	0	0	0	0	0	0	0	0	0	0	0	0	0	0	0	0	0	0	0	0	0
120518	16:08:36	16:16:55	496475	5.0.10.0	4_exp_AWA_CON_EVA_AMP	998	Rpleas_acq	Same	Rpleas	Bmasked	CS_B	2pleas	distractor1	acq_US_unple_masked	acq45_masked	4	34	400	0	300	300	0	0	548	46	0	1	0	0	0	1	blank2r.bmp	0	1	+	0	6	C2r.bmp	492	1	blank2r.bmp	786	1	BMVZ	786	1	blank2r.bmp	866	1	eitel	866	1	!	1239	1	!	-1	0	0	0	0	0	0	0	0	0	0	0	0	0	0	0	0	0	0	0	0	0	0	0	0	0	0	0
120518	16:08:36	16:16:57	498781	5.0.10.0	4_exp_AWA_CON_EVA_AMP	998	Rpleas_acq	Same	Rpleas	Bmasked	CS_B	2pleas	distractor1	acq_US_unple_masked	acq45_masked	4	35	400	0	300	300	0	0	525	50	0	0	0	0	0	1	blank2r.bmp	0	1	+	0	3	B3r.bmp	492	1	blank2r.bmp	786	1	BMVZ	786	1	blank2r.bmp	866	2	schlecht	866	1	!	1239	1	!	-1	0	0	0	0	0	0	0	0	0	0	0	0	0	0	0	0	0	0	0	0	0	0	0	0	0	0	0
120518	16:08:36	16:16:59	501140	5.0.10.0	4_exp_AWA_CON_EVA_AMP	998	Rpleas_acq	Same	Rpleas	Bmasked	CS_B	2pleas	distractor1	acq_US_unple_masked	acq45_masked	4	36	400	0	300	300	0	0	577	50	0	0	0	0	0	1	blank2r.bmp	0	1	+	0	1	B1r.bmp	492	1	blank2r.bmp	786	1	BMVZ	786	1	blank2r.bmp	866	5	lasch	866	1	!	1239	1	!	-1	0	0	0	0	0	0	0	0	0	0	0	0	0	0	0	0	0	0	0	0	0	0	0	0	0	0	0
120518	16:08:36	16:17:20	521706	5.0.10.0	4_exp_AWA_CON_EVA_AMP	998	Rpleas_acq	Same	Rpleas	Bmasked	CS_B	2pleas	distractor1	EvalRating_lastfour	EvalRating_lastfour	14	1	0	0	300	300	0	0	933	Ctrl+'B'	-12,939453125	1	0	0	0	1	eraser	0	2	Wie angenehm oder unangenehm finden Sie die  Buchstabenkette GKQX?	0	1	leftborder	0	1	rightborder	0	1	line	0	1	Unangenehm	0	1	Angenehm	0	0	0	0	0	0	0	0	0	0	0	0	0	0	0	0	0	0	0	0	0	0	0	0	0	0	0	0	0	0	0	0	0	0
120518	16:08:36	16:17:49	550693	5.0.10.0	4_exp_AWA_CON_EVA_AMP	998	Rpleas_acq	Same	Rpleas	Bmasked	CS_A	2pleas	distractor1	acq_US_pleas_nomask	acq1_nomask	18	1	0	0	300	300	0	0	510	50	-12,939453125	1	0	0	0	1	blank2r.bmp	0	1	+	0	1	blank2r.bmp	492	1	DHJF	492	1	blank2r.bmp	572	6	engagiert	866	0	0	0	0	0	0	0	0	0	0	0	0	0	0	0	0	0	0	0	0	0	0	0	0	0	0	0	0	0	0	0	0	0	0	0	0
120518	16:08:36	16:17:51	552532	5.0.10.0	4_exp_AWA_CON_EVA_AMP	998	Rpleas_acq	Same	Rpleas	Bmasked	CS_A	2pleas	distractor1	acq_US_pleas_nomask	acq1_nomask	18	2	0	0	300	300	0	0	358	50	-12,939453125	1	0	0	0	1	blank2r.bmp	0	1	+	0	1	blank2r.bmp	492	1	DHJF	492	1	blank2r.bmp	572	1	kreativ	866	0	0	0	0	0	0	0	0	0	0	0	0	0	0	0	0	0	0	0	0	0	0	0	0	0	0	0	0	0	0	0	0	0	0	0	0
120518	16:08:36	16:17:53	554638	5.0.10.0	4_exp_AWA_CON_EVA_AMP	998	Rpleas_acq	Same	Rpleas	Bmasked	CS_A	2pleas	distractor1	acq_US_unple_nomask	acq1_nomask	18	3	0	0	300	300	0	0	404	50	-12,939453125	0	0	0	0	1	blank2r.bmp	0	1	+	0	1	blank2r.bmp	492	1	CPLW	492	1	blank2r.bmp	572	4	geizig	866	1	FEHLER	1306	0	0	0	0	0	0	0	0	0	0	0	0	0	0	0	0	0	0	0	0	0	0	0	0	0	0	0	0	0	0	0	0	0
120518	16:08:36	16:17:55	556370	5.0.10.0	4_exp_AWA_CON_EVA_AMP	998	Rpleas_acq	Same	Rpleas	Bmasked	CS_A	2pleas	distractor1	acq_new_unple_nomask	acq1_nomask	18	4	0	0	300	300	0	0	470	46	-12,939453125	1	0	0	0	1	blank2r.bmp	0	1	+	0	1	blank2r.bmp	492	5	C1r.bmp	492	1	blank2r.bmp	572	1	krise	866	0	0	0	0	0	0	0	0	0	0	0	0	0	0	0	0	0	0	0	0	0	0	0	0	0	0	0	0	0	0	0	0	0	0	0	0
120518	16:08:36	16:17:57	558583	5.0.10.0	4_exp_AWA_CON_EVA_AMP	998	Rpleas_acq	Same	Rpleas	Bmasked	CS_A	2pleas	distractor1	acq_US_unple_nomask	acq1_nomask	18	5	0	0	300	300	0	0	507	50	-12,939453125	0	0	0	0	1	blank2r.bmp	0	1	+	0	1	blank2r.bmp	492	1	CPLW	492	1	blank2r.bmp	572	6	engstirnig	866	1	FEHLER	1412	0	0	0	0	0	0	0	0	0	0	0	0	0	0	0	0	0	0	0	0	0	0	0	0	0	0	0	0	0	0	0	0	0
120518	16:08:36	16:17:58	560302	5.0.10.0	4_exp_AWA_CON_EVA_AMP	998	Rpleas_acq	Same	Rpleas	Bmasked	CS_A	2pleas	distractor1	acq_new_unple_nomask	acq1_nomask	18	6	0	0	300	300	0	0	461	46	-12,939453125	1	0	0	0	1	blank2r.bmp	0	1	+	0	1	blank2r.bmp	492	8	C4r.bmp	492	1	blank2r.bmp	572	6	bange	866	0	0	0	0	0	0	0	0	0	0	0	0	0	0	0	0	0	0	0	0	0	0	0	0	0	0	0	0	0	0	0	0	0	0	0	0
120518	16:08:36	16:18:00	562168	5.0.10.0	4_exp_AWA_CON_EVA_AMP	998	Rpleas_acq	Same	Rpleas	Bmasked	CS_A	2pleas	distractor1	acq_US_unple_nomask	acq1_nomask	18	7	0	0	300	300	0	0	379	46	-12,939453125	1	0	0	0	1	blank2r.bmp	0	1	+	0	1	blank2r.bmp	492	1	CPLW	492	1	blank2r.bmp	572	2	töten	866	0	0	0	0	0	0	0	0	0	0	0	0	0	0	0	0	0	0	0	0	0	0	0	0	0	0	0	0	0	0	0	0	0	0	0	0
120518	16:08:36	16:18:02	564100	5.0.10.0	4_exp_AWA_CON_EVA_AMP	998	Rpleas_acq	Same	Rpleas	Bmasked	CS_A	2pleas	distractor1	acq_new_pleas_nomask	acq1_nomask	18	8	0	0	300	300	0	0	444	50	-12,939453125	1	0	0	0	1	blank2r.bmp	0	1	+	0	1	blank2r.bmp	492	2	B2r.bmp	492	1	blank2r.bmp	572	4	sonnig	866	0	0	0	0	0	0	0	0	0	0	0	0	0	0	0	0	0	0	0	0	0	0	0	0	0	0	0	0	0	0	0	0	0	0	0	0
120518	16:08:36	16:18:04	566099	5.0.10.0	4_exp_AWA_CON_EVA_AMP	998	Rpleas_acq	Same	Rpleas	Bmasked	CS_A	2pleas	distractor1	acq_new_pleas_nomask	acq1_nomask	18	9	0	0	300	300	0	0	530	50	-12,939453125	1	0	0	0	1	blank2r.bmp	0	1	+	0	1	blank2r.bmp	492	1	B1r.bmp	492	1	blank2r.bmp	572	5	anregung	866	0	0	0	0	0	0	0	0	0	0	0	0	0	0	0	0	0	0	0	0	0	0	0	0	0	0	0	0	0	0	0	0	0	0	0	0
120518	16:08:36	16:18:06	567992	5.0.10.0	4_exp_AWA_CON_EVA_AMP	998	Rpleas_acq	Same	Rpleas	Bmasked	CS_A	2pleas	distractor1	acq_new_unple_nomask	acq1_nomask	18	10	0	0	300	300	0	0	399	46	-12,939453125	1	0	0	0	1	blank2r.bmp	0	1	+	0	1	blank2r.bmp	492	8	C4r.bmp	492	1	blank2r.bmp	572	4	sterben	866	0	0	0	0	0	0	0	0	0	0	0	0	0	0	0	0	0	0	0	0	0	0	0	0	0	0	0	0	0	0	0	0	0	0	0	0
120518	16:08:36	16:18:08	569938	5.0.10.0	4_exp_AWA_CON_EVA_AMP	998	Rpleas_acq	Same	Rpleas	Bmasked	CS_A	2pleas	distractor1	acq_new_pleas_nomask	acq1_nomask	18	11	0	0	300	300	0	0	458	50	-12,939453125	1	0	0	0	1	blank2r.bmp	0	1	+	0	1	blank2r.bmp	492	4	B4r.bmp	492	1	blank2r.bmp	572	3	genießen	866	0	0	0	0	0	0	0	0	0	0	0	0	0	0	0	0	0	0	0	0	0	0	0	0	0	0	0	0	0	0	0	0	0	0	0	0
120518	16:08:36	16:18:10	572057	5.0.10.0	4_exp_AWA_CON_EVA_AMP	998	Rpleas_acq	Same	Rpleas	Bmasked	CS_A	2pleas	distractor1	acq_US_pleas_nomask	acq1_nomask	18	12	0	0	300	300	0	0	418	46	-12,939453125	0	0	0	0	1	blank2r.bmp	0	1	+	0	1	blank2r.bmp	492	1	DHJF	492	1	blank2r.bmp	572	2	träumen	866	1	FEHLER	1319	0	0	0	0	0	0	0	0	0	0	0	0	0	0	0	0	0	0	0	0	0	0	0	0	0	0	0	0	0	0	0	0	0
120518	16:08:36	16:18:12	574030	5.0.10.0	4_exp_AWA_CON_EVA_AMP	998	Rpleas_acq	Same	Rpleas	Bmasked	CS_A	2pleas	distractor1	acq_US_pleas_nomask	acq1_nomask	18	13	0	0	300	300	0	0	480	46	-12,939453125	0	0	0	0	1	blank2r.bmp	0	1	+	0	1	blank2r.bmp	492	1	DHJF	492	1	blank2r.bmp	572	4	gesittet	866	1	FEHLER	1386	0	0	0	0	0	0	0	0	0	0	0	0	0	0	0	0	0	0	0	0	0	0	0	0	0	0	0	0	0	0	0	0	0
120518	16:08:36	16:18:14	575802	5.0.10.0	4_exp_AWA_CON_EVA_AMP	998	Rpleas_acq	Same	Rpleas	Bmasked	CS_A	2pleas	distractor1	acq_new_unple_nomask	acq1_nomask	18	14	0	0	300	300	0	0	510	46	-12,939453125	1	0	0	0	1	blank2r.bmp	0	1	+	0	1	blank2r.bmp	492	2	B2r.bmp	492	1	blank2r.bmp	572	3	gemein	866	0	0	0	0	0	0	0	0	0	0	0	0	0	0	0	0	0	0	0	0	0	0	0	0	0	0	0	0	0	0	0	0	0	0	0	0
120518	16:08:36	16:18:16	577708	5.0.10.0	4_exp_AWA_CON_EVA_AMP	998	Rpleas_acq	Same	Rpleas	Bmasked	CS_A	2pleas	distractor1	acq_new_pleas_nomask	acq1_nomask	18	15	0	0	300	300	0	0	420	50	-12,939453125	1	0	0	0	1	blank2r.bmp	0	1	+	0	1	blank2r.bmp	492	5	C1r.bmp	492	1	blank2r.bmp	572	2	gütig	866	0	0	0	0	0	0	0	0	0	0	0	0	0	0	0	0	0	0	0	0	0	0	0	0	0	0	0	0	0	0	0	0	0	0	0	0
120518	16:08:36	16:18:18	579761	5.0.10.0	4_exp_AWA_CON_EVA_AMP	998	Rpleas_acq	Same	Rpleas	Bmasked	CS_A	2pleas	distractor1	acq_new_pleas_nomask	acq1_nomask	18	16	0	0	300	300	0	0	560	50	-12,939453125	1	0	0	0	1	blank2r.bmp	0	1	+	0	1	blank2r.bmp	492	6	C2r.bmp	492	1	blank2r.bmp	572	1	kuss	866	0	0	0	0	0	0	0	0	0	0	0	0	0	0	0	0	0	0	0	0	0	0	0	0	0	0	0	0	0	0	0	0	0	0	0	0
120518	16:08:36	16:18:20	581746	5.0.10.0	4_exp_AWA_CON_EVA_AMP	998	Rpleas_acq	Same	Rpleas	Bmasked	CS_A	2pleas	distractor1	acq_US_pleas_nomask	acq1_nomask	18	17	0	0	300	300	0	0	509	50	-12,939453125	1	0	0	0	1	blank2r.bmp	0	1	+	0	1	blank2r.bmp	492	1	DHJF	492	1	blank2r.bmp	572	3	vergnügt	866	0	0	0	0	0	0	0	0	0	0	0	0	0	0	0	0	0	0	0	0	0	0	0	0	0	0	0	0	0	0	0	0	0	0	0	0
120518	16:08:36	16:18:22	583892	5.0.10.0	4_exp_AWA_CON_EVA_AMP	998	Rpleas_acq	Same	Rpleas	Bmasked	CS_A	2pleas	distractor1	acq_US_pleas_nomask	acq1_nomask	18	18	0	0	300	300	0	0	677	50	-12,939453125	1	0	0	0	1	blank2r.bmp	0	1	+	0	1	blank2r.bmp	492	1	DHJF	492	1	blank2r.bmp	572	5	vertrauen	866	0	0	0	0	0	0	0	0	0	0	0	0	0	0	0	0	0	0	0	0	0	0	0	0	0	0	0	0	0	0	0	0	0	0	0	0
120518	16:08:36	16:18:25	586531	5.0.10.0	4_exp_AWA_CON_EVA_AMP	998	Rpleas_acq	Same	Rpleas	Bmasked	CS_A	2pleas	distractor1	acq_new_unple_nomask	acq1_nomask	18	19	0	0	300	300	0	0	1147	46	-12,939453125	1	0	0	0	1	blank2r.bmp	0	1	+	0	1	blank2r.bmp	492	7	C3r.bmp	492	1	blank2r.bmp	572	5	ausrottung	866	0	0	0	0	0	0	0	0	0	0	0	0	0	0	0	0	0	0	0	0	0	0	0	0	0	0	0	0	0	0	0	0	0	0	0	0
120518	16:08:36	16:18:27	589023	5.0.10.0	4_exp_AWA_CON_EVA_AMP	998	Rpleas_acq	Same	Rpleas	Bmasked	CS_A	2pleas	distractor1	acq_new_pleas_nomask	acq1_nomask	18	20	0	0	300	300	0	0	1016	50	-12,939453125	1	0	0	0	1	blank2r.bmp	0	1	+	0	1	blank2r.bmp	492	3	B3r.bmp	492	1	blank2r.bmp	572	6	besonnen	866	0	0	0	0	0	0	0	0	0	0	0	0	0	0	0	0	0	0	0	0	0	0	0	0	0	0	0	0	0	0	0	0	0	0	0	0
120518	16:08:36	16:18:30	591382	5.0.10.0	4_exp_AWA_CON_EVA_AMP	998	Rpleas_acq	Same	Rpleas	Bmasked	CS_A	2pleas	distractor1	acq_US_unple_nomask	acq1_nomask	18	21	0	0	300	300	0	0	882	46	-12,939453125	1	0	0	0	1	blank2r.bmp	0	1	+	0	1	blank2r.bmp	492	1	CPLW	492	1	blank2r.bmp	572	5	versagen	866	0	0	0	0	0	0	0	0	0	0	0	0	0	0	0	0	0	0	0	0	0	0	0	0	0	0	0	0	0	0	0	0	0	0	0	0
120518	16:08:36	16:18:32	593608	5.0.10.0	4_exp_AWA_CON_EVA_AMP	998	Rpleas_acq	Same	Rpleas	Bmasked	CS_A	2pleas	distractor1	acq_new_unple_nomask	acq1_nomask	18	22	0	0	300	300	0	0	751	46	-12,939453125	1	0	0	0	1	blank2r.bmp	0	1	+	0	1	blank2r.bmp	492	1	B1r.bmp	492	1	blank2r.bmp	572	2	gierig	866	0	0	0	0	0	0	0	0	0	0	0	0	0	0	0	0	0	0	0	0	0	0	0	0	0	0	0	0	0	0	0	0	0	0	0	0
120518	16:08:36	16:18:34	595821	5.0.10.0	4_exp_AWA_CON_EVA_AMP	998	Rpleas_acq	Same	Rpleas	Bmasked	CS_A	2pleas	distractor1	acq_US_unple_nomask	acq1_nomask	18	23	0	0	300	300	0	0	505	50	-12,939453125	0	0	0	0	1	blank2r.bmp	0	1	+	0	1	blank2r.bmp	492	1	CPLW	492	1	blank2r.bmp	572	1	krank	866	1	FEHLER	1412	0	0	0	0	0	0	0	0	0	0	0	0	0	0	0	0	0	0	0	0	0	0	0	0	0	0	0	0	0	0	0	0	0
120518	16:08:36	16:18:36	597607	5.0.10.0	4_exp_AWA_CON_EVA_AMP	998	Rpleas_acq	Same	Rpleas	Bmasked	CS_A	2pleas	distractor1	acq_US_unple_nomask	acq1_nomask	18	24	0	0	300	300	0	0	530	46	-12,939453125	1	0	0	0	1	blank2r.bmp	0	1	+	0	1	blank2r.bmp	492	1	CPLW	492	1	blank2r.bmp	572	3	verbissen	866	0	0	0	0	0	0	0	0	0	0	0	0	0	0	0	0	0	0	0	0	0	0	0	0	0	0	0	0	0	0	0	0	0	0	0	0
120518	16:08:36	16:18:38	599819	5.0.10.0	4_exp_AWA_CON_EVA_AMP	998	Rpleas_acq	Same	Rpleas	Bmasked	CS_A	2pleas	distractor1	acq_new_pleas_nomask	acq1_nomask	18	25	0	0	300	300	0	0	720	50	-12,939453125	1	0	0	0	1	blank2r.bmp	0	1	+	0	1	blank2r.bmp	492	6	C2r.bmp	492	1	blank2r.bmp	572	1	kuss	866	0	0	0	0	0	0	0	0	0	0	0	0	0	0	0	0	0	0	0	0	0	0	0	0	0	0	0	0	0	0	0	0	0	0	0	0
120518	16:08:36	16:18:40	601765	5.0.10.0	4_exp_AWA_CON_EVA_AMP	998	Rpleas_acq	Same	Rpleas	Bmasked	CS_A	2pleas	distractor1	acq_US_pleas_nomask	acq1_nomask	18	26	0	0	300	300	0	0	477	50	-12,939453125	1	0	0	0	1	blank2r.bmp	0	1	+	0	1	blank2r.bmp	492	1	DHJF	492	1	blank2r.bmp	572	2	träumen	866	0	0	0	0	0	0	0	0	0	0	0	0	0	0	0	0	0	0	0	0	0	0	0	0	0	0	0	0	0	0	0	0	0	0	0	0
120518	16:08:36	16:18:42	603924	5.0.10.0	4_exp_AWA_CON_EVA_AMP	998	Rpleas_acq	Same	Rpleas	Bmasked	CS_A	2pleas	distractor1	acq_new_unple_nomask	acq1_nomask	18	27	0	0	300	300	0	0	458	50	-12,939453125	0	0	0	0	1	blank2r.bmp	0	1	+	0	1	blank2r.bmp	492	2	B2r.bmp	492	1	blank2r.bmp	572	1	krise	866	1	FEHLER	1359	0	0	0	0	0	0	0	0	0	0	0	0	0	0	0	0	0	0	0	0	0	0	0	0	0	0	0	0	0	0	0	0	0
120518	16:08:36	16:18:44	605976	5.0.10.0	4_exp_AWA_CON_EVA_AMP	998	Rpleas_acq	Same	Rpleas	Bmasked	CS_A	2pleas	distractor1	acq_US_pleas_nomask	acq1_nomask	18	28	0	0	300	300	0	0	561	46	-12,939453125	0	0	0	0	1	blank2r.bmp	0	1	+	0	1	blank2r.bmp	492	1	DHJF	492	1	blank2r.bmp	572	6	engagiert	866	1	FEHLER	1466	0	0	0	0	0	0	0	0	0	0	0	0	0	0	0	0	0	0	0	0	0	0	0	0	0	0	0	0	0	0	0	0	0
120518	16:08:36	16:18:46	607696	5.0.10.0	4_exp_AWA_CON_EVA_AMP	998	Rpleas_acq	Same	Rpleas	Bmasked	CS_A	2pleas	distractor1	acq_new_unple_nomask	acq1_nomask	18	29	0	0	300	300	0	0	454	46	-12,939453125	1	0	0	0	1	blank2r.bmp	0	1	+	0	1	blank2r.bmp	492	7	C3r.bmp	492	1	blank2r.bmp	572	4	sterben	866	0	0	0	0	0	0	0	0	0	0	0	0	0	0	0	0	0	0	0	0	0	0	0	0	0	0	0	0	0	0	0	0	0	0	0	0
120518	16:08:36	16:18:49	610428	5.0.10.0	4_exp_AWA_CON_EVA_AMP	998	Rpleas_acq	Same	Rpleas	Bmasked	CS_A	2pleas	distractor1	acq_US_unple_nomask	acq1_nomask	18	30	0	0	300	300	0	0	1050	50	-12,939453125	0	0	0	0	1	blank2r.bmp	0	1	+	0	1	blank2r.bmp	492	1	CPLW	492	1	blank2r.bmp	572	2	töten	866	1	FEHLER	1945	0	0	0	0	0	0	0	0	0	0	0	0	0	0	0	0	0	0	0	0	0	0	0	0	0	0	0	0	0	0	0	0	0
120518	16:08:36	16:18:50	612280	5.0.10.0	4_exp_AWA_CON_EVA_AMP	998	Rpleas_acq	Same	Rpleas	Bmasked	CS_A	2pleas	distractor1	acq_US_unple_nomask	acq1_nomask	18	31	0	0	300	300	0	0	575	46	-12,939453125	1	0	0	0	1	blank2r.bmp	0	1	+	0	1	blank2r.bmp	492	1	CPLW	492	1	blank2r.bmp	572	3	verbissen	866	0	0	0	0	0	0	0	0	0	0	0	0	0	0	0	0	0	0	0	0	0	0	0	0	0	0	0	0	0	0	0	0	0	0	0	0
120518	16:08:36	16:18:53	614360	5.0.10.0	4_exp_AWA_CON_EVA_AMP	998	Rpleas_acq	Same	Rpleas	Bmasked	CS_A	2pleas	distractor1	acq_new_pleas_nomask	acq1_nomask	18	32	0	0	300	300	0	0	590	50	-12,939453125	1	0	0	0	1	blank2r.bmp	0	1	+	0	1	blank2r.bmp	492	3	B3r.bmp	492	1	blank2r.bmp	572	5	anregung	866	0	0	0	0	0	0	0	0	0	0	0	0	0	0	0	0	0	0	0	0	0	0	0	0	0	0	0	0	0	0	0	0	0	0	0	0
120518	16:08:36	16:18:54	616319	5.0.10.0	4_exp_AWA_CON_EVA_AMP	998	Rpleas_acq	Same	Rpleas	Bmasked	CS_A	2pleas	distractor1	acq_new_unple_nomask	acq1_nomask	18	33	0	0	300	300	0	0	484	46	-12,939453125	1	0	0	0	1	blank2r.bmp	0	1	+	0	1	blank2r.bmp	492	4	B4r.bmp	492	1	blank2r.bmp	572	6	bange	866	0	0	0	0	0	0	0	0	0	0	0	0	0	0	0	0	0	0	0	0	0	0	0	0	0	0	0	0	0	0	0	0	0	0	0	0
120518	16:08:36	16:18:56	618265	5.0.10.0	4_exp_AWA_CON_EVA_AMP	998	Rpleas_acq	Same	Rpleas	Bmasked	CS_A	2pleas	distractor1	acq_US_pleas_nomask	acq1_nomask	18	34	0	0	300	300	0	0	453	50	-12,939453125	1	0	0	0	1	blank2r.bmp	0	1	+	0	1	blank2r.bmp	492	1	DHJF	492	1	blank2r.bmp	572	1	kreativ	866	0	0	0	0	0	0	0	0	0	0	0	0	0	0	0	0	0	0	0	0	0	0	0	0	0	0	0	0	0	0	0	0	0	0	0	0
120518	16:08:36	16:18:58	620184	5.0.10.0	4_exp_AWA_CON_EVA_AMP	998	Rpleas_acq	Same	Rpleas	Bmasked	CS_A	2pleas	distractor1	acq_new_pleas_nomask	acq1_nomask	18	35	0	0	300	300	0	0	445	50	-12,939453125	1	0	0	0	1	blank2r.bmp	0	1	+	0	1	blank2r.bmp	492	8	C4r.bmp	492	1	blank2r.bmp	572	4	sonnig	866	0	0	0	0	0	0	0	0	0	0	0	0	0	0	0	0	0	0	0	0	0	0	0	0	0	0	0	0	0	0	0	0	0	0	0	0
120518	16:08:36	16:19:01	622330	5.0.10.0	4_exp_AWA_CON_EVA_AMP	998	Rpleas_acq	Same	Rpleas	Bmasked	CS_A	2pleas	distractor1	acq_US_unple_nomask	acq1_nomask	18	36	0	0	300	300	0	0	662	46	-12,939453125	1	0	0	0	1	blank2r.bmp	0	1	+	0	1	blank2r.bmp	492	1	CPLW	492	1	blank2r.bmp	572	1	krank	866	0	0	0	0	0	0	0	0	0	0	0	0	0	0	0	0	0	0	0	0	0	0	0	0	0	0	0	0	0	0	0	0	0	0	0	0
120518	16:08:36	16:19:09	631099	5.0.10.0	4_exp_AWA_CON_EVA_AMP	998	Rpleas_acq	Same	Rpleas	Bmasked	CS_A	2pleas	distractor1	acq_US_unple_nomask	acq2_nomask	19	1	480	0	300	300	0	0	630	46	-12,939453125	1	0	0	0	1	blank2r.bmp	0	1	+	0	1	blank2r.bmp	492	1	CPLW	492	1	blank2r.bmp	572	6	engstirnig	866	1	!	1319	1	!	-1	0	0	0	0	0	0	0	0	0	0	0	0	0	0	0	0	0	0	0	0	0	0	0	0	0	0	0	0	0	0
120518	16:08:36	16:19:12	633458	5.0.10.0	4_exp_AWA_CON_EVA_AMP	998	Rpleas_acq	Same	Rpleas	Bmasked	CS_A	2pleas	distractor1	acq_US_unple_nomask	acq2_nomask	19	2	480	0	300	300	0	0	581	46	-12,939453125	1	0	0	0	1	blank2r.bmp	0	1	+	0	1	blank2r.bmp	492	1	CPLW	492	1	blank2r.bmp	572	5	versagen	866	1	!	1319	1	!	-1	0	0	0	0	0	0	0	0	0	0	0	0	0	0	0	0	0	0	0	0	0	0	0	0	0	0	0	0	0	0
120518	16:08:36	16:19:14	635964	5.0.10.0	4_exp_AWA_CON_EVA_AMP	998	Rpleas_acq	Same	Rpleas	Bmasked	CS_A	2pleas	distractor1	acq_new_unple_nomask	acq2_nomask	19	3	480	1	300	300	0	0	489	50	-12,939453125	0	0	0	0	1	blank2r.bmp	0	1	+	0	1	blank2r.bmp	492	5	C1r.bmp	492	1	blank2r.bmp	572	3	gemein	866	1	FEHLER	1705	1	!	1319	1	!	1386	0	0	0	0	0	0	0	0	0	0	0	0	0	0	0	0	0	0	0	0	0	0	0	0	0	0	0
120518	16:08:36	16:19:16	638030	5.0.10.0	4_exp_AWA_CON_EVA_AMP	998	Rpleas_acq	Same	Rpleas	Bmasked	CS_A	2pleas	distractor1	acq_new_pleas_nomask	acq2_nomask	19	4	480	1	300	300	0	0	485	50	-12,939453125	1	0	0	0	1	blank2r.bmp	0	1	+	0	1	blank2r.bmp	492	1	B1r.bmp	492	1	blank2r.bmp	572	3	genießen	866	1	!	1319	1	!	1386	0	0	0	0	0	0	0	0	0	0	0	0	0	0	0	0	0	0	0	0	0	0	0	0	0	0	0	0	0	0
120518	16:08:36	16:19:18	640322	5.0.10.0	4_exp_AWA_CON_EVA_AMP	998	Rpleas_acq	Same	Rpleas	Bmasked	CS_A	2pleas	distractor1	acq_new_pleas_nomask	acq2_nomask	19	5	480	1	300	300	0	0	495	50	-12,939453125	1	0	0	0	1	blank2r.bmp	0	1	+	0	1	blank2r.bmp	492	5	C1r.bmp	492	1	blank2r.bmp	572	2	gütig	866	1	!	1319	1	!	1399	0	0	0	0	0	0	0	0	0	0	0	0	0	0	0	0	0	0	0	0	0	0	0	0	0	0	0	0	0	0
120518	16:08:36	16:19:21	642721	5.0.10.0	4_exp_AWA_CON_EVA_AMP	998	Rpleas_acq	Same	Rpleas	Bmasked	CS_A	2pleas	distractor1	acq_US_unple_nomask	acq2_nomask	19	6	480	0	300	300	0	0	402	50	-12,939453125	0	0	0	0	1	blank2r.bmp	0	1	+	0	1	blank2r.bmp	492	1	CPLW	492	1	blank2r.bmp	572	4	geizig	866	1	FEHLER	1612	1	!	-1	1	!	-1	0	0	0	0	0	0	0	0	0	0	0	0	0	0	0	0	0	0	0	0	0	0	0	0	0	0	0
120518	16:08:36	16:19:23	644800	5.0.10.0	4_exp_AWA_CON_EVA_AMP	998	Rpleas_acq	Same	Rpleas	Bmasked	CS_A	2pleas	distractor1	acq_US_pleas_nomask	acq2_nomask	19	7	480	0	300	300	0	0	297	46	-12,939453125	0	0	0	0	1	blank2r.bmp	0	1	+	0	1	blank2r.bmp	492	1	DHJF	492	1	blank2r.bmp	572	4	gesittet	866	1	FEHLER	1506	1	!	-1	1	!	-1	0	0	0	0	0	0	0	0	0	0	0	0	0	0	0	0	0	0	0	0	0	0	0	0	0	0	0
120518	16:08:36	16:19:25	647159	5.0.10.0	4_exp_AWA_CON_EVA_AMP	998	Rpleas_acq	Same	Rpleas	Bmasked	CS_A	2pleas	distractor1	acq_new_unple_nomask	acq2_nomask	19	8	480	0	300	300	0	0	580	50	-12,939453125	0	0	0	0	1	blank2r.bmp	0	1	+	0	1	blank2r.bmp	492	7	C3r.bmp	492	1	blank2r.bmp	572	2	gierig	866	1	FEHLER	1785	1	!	1319	1	!	-1	0	0	0	0	0	0	0	0	0	0	0	0	0	0	0	0	0	0	0	0	0	0	0	0	0	0	0
120518	16:08:36	16:19:28	649518	5.0.10.0	4_exp_AWA_CON_EVA_AMP	998	Rpleas_acq	Same	Rpleas	Bmasked	CS_A	2pleas	distractor1	acq_new_pleas_nomask	acq2_nomask	19	9	480	1	300	300	0	0	534	46	-12,939453125	0	0	0	0	1	blank2r.bmp	0	1	+	0	1	blank2r.bmp	492	2	B2r.bmp	492	1	blank2r.bmp	572	6	besonnen	866	1	FEHLER	1759	1	!	1319	1	!	1439	0	0	0	0	0	0	0	0	0	0	0	0	0	0	0	0	0	0	0	0	0	0	0	0	0	0	0
120518	16:08:36	16:19:30	651638	5.0.10.0	4_exp_AWA_CON_EVA_AMP	998	Rpleas_acq	Same	Rpleas	Bmasked	CS_A	2pleas	distractor1	acq_new_unple_nomask	acq2_nomask	19	10	480	1	300	300	0	0	539	46	-12,939453125	1	0	0	0	1	blank2r.bmp	0	1	+	0	1	blank2r.bmp	492	3	B3r.bmp	492	1	blank2r.bmp	572	5	ausrottung	866	1	!	1319	1	!	1439	0	0	0	0	0	0	0	0	0	0	0	0	0	0	0	0	0	0	0	0	0	0	0	0	0	0	0	0	0	0
120518	16:08:36	16:19:32	653983	5.0.10.0	4_exp_AWA_CON_EVA_AMP	998	Rpleas_acq	Same	Rpleas	Bmasked	CS_A	2pleas	distractor1	acq_US_pleas_nomask	acq2_nomask	19	11	480	1	300	300	0	0	533	50	-12,939453125	1	0	0	0	1	blank2r.bmp	0	1	+	0	1	blank2r.bmp	492	1	DHJF	492	1	blank2r.bmp	572	3	vergnügt	866	1	!	1319	1	!	1439	0	0	0	0	0	0	0	0	0	0	0	0	0	0	0	0	0	0	0	0	0	0	0	0	0	0	0	0	0	0
120518	16:08:36	16:19:34	656249	5.0.10.0	4_exp_AWA_CON_EVA_AMP	998	Rpleas_acq	Same	Rpleas	Bmasked	CS_A	2pleas	distractor1	acq_US_pleas_nomask	acq2_nomask	19	12	480	1	300	300	0	0	474	50	-12,939453125	1	0	0	0	1	blank2r.bmp	0	1	+	0	1	blank2r.bmp	492	1	DHJF	492	1	blank2r.bmp	572	5	vertrauen	866	1	!	1319	1	!	1372	0	0	0	0	0	0	0	0	0	0	0	0	0	0	0	0	0	0	0	0	0	0	0	0	0	0	0	0	0	0
120518	16:08:36	16:19:37	658595	5.0.10.0	4_exp_AWA_CON_EVA_AMP	998	Rpleas_acq	Same	Rpleas	Bmasked	CS_A	2pleas	distractor1	acq_US_unple_nomask	acq2_nomask	19	13	480	0	300	300	0	0	579	46	-12,939453125	1	0	0	0	1	blank2r.bmp	0	1	+	0	1	blank2r.bmp	492	1	CPLW	492	1	blank2r.bmp	572	2	töten	866	1	!	1319	1	!	-1	0	0	0	0	0	0	0	0	0	0	0	0	0	0	0	0	0	0	0	0	0	0	0	0	0	0	0	0	0	0
120518	16:08:36	16:19:39	660940	5.0.10.0	4_exp_AWA_CON_EVA_AMP	998	Rpleas_acq	Same	Rpleas	Bmasked	CS_A	2pleas	distractor1	acq_US_unple_nomask	acq2_nomask	19	14	480	0	300	300	0	0	332	50	-12,939453125	0	0	0	0	1	blank2r.bmp	0	1	+	0	1	blank2r.bmp	492	1	CPLW	492	1	blank2r.bmp	572	4	geizig	866	1	FEHLER	1546	1	!	-1	1	!	-1	0	0	0	0	0	0	0	0	0	0	0	0	0	0	0	0	0	0	0	0	0	0	0	0	0	0	0
120518	16:08:36	16:19:41	663180	5.0.10.0	4_exp_AWA_CON_EVA_AMP	998	Rpleas_acq	Same	Rpleas	Bmasked	CS_A	2pleas	distractor1	acq_US_pleas_nomask	acq2_nomask	19	15	480	0	300	300	0	0	681	50	-12,939453125	1	0	0	0	1	blank2r.bmp	0	1	+	0	1	blank2r.bmp	492	1	DHJF	492	1	blank2r.bmp	572	1	kreativ	866	1	!	1319	1	!	-1	0	0	0	0	0	0	0	0	0	0	0	0	0	0	0	0	0	0	0	0	0	0	0	0	0	0	0	0	0	0
120518	16:08:36	16:19:44	665499	5.0.10.0	4_exp_AWA_CON_EVA_AMP	998	Rpleas_acq	Same	Rpleas	Bmasked	CS_A	2pleas	distractor1	acq_new_unple_nomask	acq2_nomask	19	16	480	1	300	300	0	0	515	46	-12,939453125	1	0	0	0	1	blank2r.bmp	0	1	+	0	1	blank2r.bmp	492	4	B4r.bmp	492	1	blank2r.bmp	572	5	ausrottung	866	1	!	1319	1	!	1412	0	0	0	0	0	0	0	0	0	0	0	0	0	0	0	0	0	0	0	0	0	0	0	0	0	0	0	0	0	0
120518	16:08:36	16:19:46	667804	5.0.10.0	4_exp_AWA_CON_EVA_AMP	998	Rpleas_acq	Same	Rpleas	Bmasked	CS_A	2pleas	distractor1	acq_new_pleas_nomask	acq2_nomask	19	17	480	1	300	300	0	0	517	50	-12,939453125	1	0	0	0	1	blank2r.bmp	0	1	+	0	1	blank2r.bmp	492	6	C2r.bmp	492	1	blank2r.bmp	572	5	anregung	866	1	!	1319	1	!	1412	0	0	0	0	0	0	0	0	0	0	0	0	0	0	0	0	0	0	0	0	0	0	0	0	0	0	0	0	0	0
120518	16:08:36	16:19:48	670030	5.0.10.0	4_exp_AWA_CON_EVA_AMP	998	Rpleas_acq	Same	Rpleas	Bmasked	CS_A	2pleas	distractor1	acq_US_unple_nomask	acq2_nomask	19	18	480	1	300	300	0	0	426	46	-12,939453125	1	0	0	0	1	blank2r.bmp	0	1	+	0	1	blank2r.bmp	492	1	CPLW	492	1	blank2r.bmp	572	1	krank	866	1	!	1319	1	!	1332	0	0	0	0	0	0	0	0	0	0	0	0	0	0	0	0	0	0	0	0	0	0	0	0	0	0	0	0	0	0
120518	16:08:36	16:19:50	672309	5.0.10.0	4_exp_AWA_CON_EVA_AMP	998	Rpleas_acq	Same	Rpleas	Bmasked	CS_A	2pleas	distractor1	acq_new_pleas_nomask	acq2_nomask	19	19	480	1	300	300	0	0	473	50	-12,939453125	1	0	0	0	1	blank2r.bmp	0	1	+	0	1	blank2r.bmp	492	8	C4r.bmp	492	1	blank2r.bmp	572	3	genießen	866	1	!	1319	1	!	1372	0	0	0	0	0	0	0	0	0	0	0	0	0	0	0	0	0	0	0	0	0	0	0	0	0	0	0	0	0	0
120518	16:08:36	16:19:53	674775	5.0.10.0	4_exp_AWA_CON_EVA_AMP	998	Rpleas_acq	Same	Rpleas	Bmasked	CS_A	2pleas	distractor1	acq_new_unple_nomask	acq2_nomask	19	20	480	1	300	300	0	0	443	50	-12,939453125	0	0	0	0	1	blank2r.bmp	0	1	+	0	1	blank2r.bmp	492	1	B1r.bmp	492	1	blank2r.bmp	572	2	gierig	866	1	FEHLER	1665	1	!	1319	1	!	1346	0	0	0	0	0	0	0	0	0	0	0	0	0	0	0	0	0	0	0	0	0	0	0	0	0	0	0
120518	16:08:36	16:19:55	676960	5.0.10.0	4_exp_AWA_CON_EVA_AMP	998	Rpleas_acq	Same	Rpleas	Bmasked	CS_A	2pleas	distractor1	acq_US_pleas_nomask	acq2_nomask	19	21	480	0	300	300	0	0	635	50	-12,939453125	1	0	0	0	1	blank2r.bmp	0	1	+	0	1	blank2r.bmp	492	1	DHJF	492	1	blank2r.bmp	572	3	vergnügt	866	1	!	1319	1	!	-1	0	0	0	0	0	0	0	0	0	0	0	0	0	0	0	0	0	0	0	0	0	0	0	0	0	0	0	0	0	0
120518	16:08:36	16:19:57	679253	5.0.10.0	4_exp_AWA_CON_EVA_AMP	998	Rpleas_acq	Same	Rpleas	Bmasked	CS_A	2pleas	distractor1	acq_US_pleas_nomask	acq2_nomask	19	22	480	0	300	300	0	0	273	46	-12,939453125	0	0	0	0	1	blank2r.bmp	0	1	+	0	1	blank2r.bmp	492	1	DHJF	492	1	blank2r.bmp	572	5	vertrauen	866	1	FEHLER	1479	1	!	-1	1	!	-1	0	0	0	0	0	0	0	0	0	0	0	0	0	0	0	0	0	0	0	0	0	0	0	0	0	0	0
120518	16:08:36	16:19:59	681332	5.0.10.0	4_exp_AWA_CON_EVA_AMP	998	Rpleas_acq	Same	Rpleas	Bmasked	CS_A	2pleas	distractor1	acq_new_unple_nomask	acq2_nomask	19	23	480	1	300	300	0	0	503	46	-12,939453125	1	0	0	0	1	blank2r.bmp	0	1	+	0	1	blank2r.bmp	492	6	C2r.bmp	492	1	blank2r.bmp	572	6	bange	866	1	!	1319	1	!	1399	0	0	0	0	0	0	0	0	0	0	0	0	0	0	0	0	0	0	0	0	0	0	0	0	0	0	0	0	0	0
120518	16:08:36	16:20:02	683571	5.0.10.0	4_exp_AWA_CON_EVA_AMP	998	Rpleas_acq	Same	Rpleas	Bmasked	CS_A	2pleas	distractor1	acq_new_pleas_nomask	acq2_nomask	19	24	480	0	300	300	0	0	250	46	-12,939453125	0	0	0	0	1	blank2r.bmp	0	1	+	0	1	blank2r.bmp	492	3	B3r.bmp	492	1	blank2r.bmp	572	6	besonnen	866	1	FEHLER	1452	1	!	-1	1	!	-1	0	0	0	0	0	0	0	0	0	0	0	0	0	0	0	0	0	0	0	0	0	0	0	0	0	0	0
120518	16:08:36	16:20:04	685477	5.0.10.0	4_exp_AWA_CON_EVA_AMP	998	Rpleas_acq	Same	Rpleas	Bmasked	CS_A	2pleas	distractor1	acq_new_unple_nomask	acq2_nomask	19	25	480	0	300	300	0	0	350	46	-12,939453125	1	0	0	0	1	blank2r.bmp	0	1	+	0	1	blank2r.bmp	492	7	C3r.bmp	492	1	blank2r.bmp	572	4	sterben	866	1	!	-1	1	!	-1	0	0	0	0	0	0	0	0	0	0	0	0	0	0	0	0	0	0	0	0	0	0	0	0	0	0	0	0	0	0
120518	16:08:36	16:20:06	688063	5.0.10.0	4_exp_AWA_CON_EVA_AMP	998	Rpleas_acq	Same	Rpleas	Bmasked	CS_A	2pleas	distractor1	acq_US_unple_nomask	acq2_nomask	19	26	480	0	300	300	0	0	559	50	-12,939453125	0	0	0	0	1	blank2r.bmp	0	1	+	0	1	blank2r.bmp	492	1	CPLW	492	1	blank2r.bmp	572	6	engstirnig	866	1	FEHLER	1772	1	!	1319	1	!	-1	0	0	0	0	0	0	0	0	0	0	0	0	0	0	0	0	0	0	0	0	0	0	0	0	0	0	0
120518	16:08:36	16:20:08	690208	5.0.10.0	4_exp_AWA_CON_EVA_AMP	998	Rpleas_acq	Same	Rpleas	Bmasked	CS_A	2pleas	distractor1	acq_new_pleas_nomask	acq2_nomask	19	27	480	0	300	300	0	0	380	46	-12,939453125	0	0	0	0	1	blank2r.bmp	0	1	+	0	1	blank2r.bmp	492	8	C4r.bmp	492	1	blank2r.bmp	572	1	kuss	866	1	FEHLER	1586	1	!	-1	1	!	-1	0	0	0	0	0	0	0	0	0	0	0	0	0	0	0	0	0	0	0	0	0	0	0	0	0	0	0
120518	16:08:36	16:20:10	692194	5.0.10.0	4_exp_AWA_CON_EVA_AMP	998	Rpleas_acq	Same	Rpleas	Bmasked	CS_A	2pleas	distractor1	acq_new_pleas_nomask	acq2_nomask	19	28	480	0	300	300	0	0	412	50	-12,939453125	1	0	0	0	1	blank2r.bmp	0	1	+	0	1	blank2r.bmp	492	5	C1r.bmp	492	1	blank2r.bmp	572	4	sonnig	866	1	!	-1	1	!	-1	0	0	0	0	0	0	0	0	0	0	0	0	0	0	0	0	0	0	0	0	0	0	0	0	0	0	0	0	0	0
120518	16:08:36	16:20:13	694540	5.0.10.0	4_exp_AWA_CON_EVA_AMP	998	Rpleas_acq	Same	Rpleas	Bmasked	CS_A	2pleas	distractor1	acq_US_pleas_nomask	acq2_nomask	19	29	480	1	300	300	0	0	539	50	-12,939453125	1	0	0	0	1	blank2r.bmp	0	1	+	0	1	blank2r.bmp	492	1	DHJF	492	1	blank2r.bmp	572	2	träumen	866	1	!	1319	1	!	1439	0	0	0	0	0	0	0	0	0	0	0	0	0	0	0	0	0	0	0	0	0	0	0	0	0	0	0	0	0	0
120518	16:08:36	16:20:15	696872	5.0.10.0	4_exp_AWA_CON_EVA_AMP	998	Rpleas_acq	Same	Rpleas	Bmasked	CS_A	2pleas	distractor1	acq_US_pleas_nomask	acq2_nomask	19	30	480	0	300	300	0	0	333	46	-12,939453125	0	0	0	0	1	blank2r.bmp	0	1	+	0	1	blank2r.bmp	492	1	DHJF	492	1	blank2r.bmp	572	6	engagiert	866	1	FEHLER	1546	1	!	-1	1	!	-1	0	0	0	0	0	0	0	0	0	0	0	0	0	0	0	0	0	0	0	0	0	0	0	0	0	0	0
120518	16:08:36	16:20:17	698991	5.0.10.0	4_exp_AWA_CON_EVA_AMP	998	Rpleas_acq	Same	Rpleas	Bmasked	CS_A	2pleas	distractor1	acq_US_unple_nomask	acq2_nomask	19	31	480	1	300	300	0	0	522	46	-12,939453125	1	0	0	0	1	blank2r.bmp	0	1	+	0	1	blank2r.bmp	492	1	CPLW	492	1	blank2r.bmp	572	3	verbissen	866	1	!	1319	1	!	1426	0	0	0	0	0	0	0	0	0	0	0	0	0	0	0	0	0	0	0	0	0	0	0	0	0	0	0	0	0	0
120518	16:08:36	16:20:19	701137	5.0.10.0	4_exp_AWA_CON_EVA_AMP	998	Rpleas_acq	Same	Rpleas	Bmasked	CS_A	2pleas	distractor1	acq_US_unple_nomask	acq2_nomask	19	32	480	0	300	300	0	0	381	46	-12,939453125	1	0	0	0	1	blank2r.bmp	0	1	+	0	1	blank2r.bmp	492	1	CPLW	492	1	blank2r.bmp	572	5	versagen	866	1	!	-1	1	!	-1	0	0	0	0	0	0	0	0	0	0	0	0	0	0	0	0	0	0	0	0	0	0	0	0	0	0	0	0	0	0
120518	16:08:36	16:20:22	703709	5.0.10.0	4_exp_AWA_CON_EVA_AMP	998	Rpleas_acq	Same	Rpleas	Bmasked	CS_A	2pleas	distractor1	acq_US_pleas_nomask	acq2_nomask	19	33	480	0	300	300	0	0	580	46	-12,939453125	0	0	0	0	1	blank2r.bmp	0	1	+	0	1	blank2r.bmp	492	1	DHJF	492	1	blank2r.bmp	572	4	gesittet	866	1	FEHLER	1785	1	!	1319	1	!	-1	0	0	0	0	0	0	0	0	0	0	0	0	0	0	0	0	0	0	0	0	0	0	0	0	0	0	0
120518	16:08:36	16:20:24	705655	5.0.10.0	4_exp_AWA_CON_EVA_AMP	998	Rpleas_acq	Same	Rpleas	Bmasked	CS_A	2pleas	distractor1	acq_new_pleas_nomask	acq2_nomask	19	34	480	0	300	300	0	0	379	50	-12,939453125	1	0	0	0	1	blank2r.bmp	0	1	+	0	1	blank2r.bmp	492	4	B4r.bmp	492	1	blank2r.bmp	572	2	gütig	866	1	!	-1	1	!	-1	0	0	0	0	0	0	0	0	0	0	0	0	0	0	0	0	0	0	0	0	0	0	0	0	0	0	0	0	0	0
120518	16:08:36	16:20:26	707841	5.0.10.0	4_exp_AWA_CON_EVA_AMP	998	Rpleas_acq	Same	Rpleas	Bmasked	CS_A	2pleas	distractor1	acq_new_unple_nomask	acq2_nomask	19	35	480	0	300	300	0	0	400	46	-12,939453125	1	0	0	0	1	blank2r.bmp	0	1	+	0	1	blank2r.bmp	492	2	B2r.bmp	492	1	blank2r.bmp	572	1	krise	866	1	!	-1	1	!	-1	0	0	0	0	0	0	0	0	0	0	0	0	0	0	0	0	0	0	0	0	0	0	0	0	0	0	0	0	0	0
120518	16:08:36	16:20:28	710133	5.0.10.0	4_exp_AWA_CON_EVA_AMP	998	Rpleas_acq	Same	Rpleas	Bmasked	CS_A	2pleas	distractor1	acq_new_unple_nomask	acq2_nomask	19	36	480	0	300	300	0	0	287	50	-12,939453125	0	0	0	0	1	blank2r.bmp	0	1	+	0	1	blank2r.bmp	492	1	B1r.bmp	492	1	blank2r.bmp	572	3	gemein	866	1	FEHLER	1492	1	!	-1	1	!	-1	0	0	0	0	0	0	0	0	0	0	0	0	0	0	0	0	0	0	0	0	0	0	0	0	0	0	0
120518	16:08:36	16:20:43	724701	5.0.10.0	4_exp_AWA_CON_EVA_AMP	998	Rpleas_acq	Same	Rpleas	Bmasked	CS_A	2pleas	distractor1	acq_US_pleas_nomask	acq3_nomask	20	1	453	0	300	300	0	0	638	50	-12,939453125	1	0	0	0	1	blank2r.bmp	0	1	+	0	1	blank2r.bmp	492	1	DHJF	492	1	blank2r.bmp	572	5	vertrauen	866	1	!	1292	1	!	-1	0	0	0	0	0	0	0	0	0	0	0	0	0	0	0	0	0	0	0	0	0	0	0	0	0	0	0	0	0	0
120518	16:08:36	16:20:45	727020	5.0.10.0	4_exp_AWA_CON_EVA_AMP	998	Rpleas_acq	Same	Rpleas	Bmasked	CS_A	2pleas	distractor1	acq_US_pleas_nomask	acq3_nomask	20	2	453	1	300	300	0	0	506	50	-12,939453125	1	0	0	0	1	blank2r.bmp	0	1	+	0	1	blank2r.bmp	492	1	DHJF	492	1	blank2r.bmp	572	1	kreativ	866	1	!	1292	1	!	1412	0	0	0	0	0	0	0	0	0	0	0	0	0	0	0	0	0	0	0	0	0	0	0	0	0	0	0	0	0	0
120518	16:08:36	16:20:47	729259	5.0.10.0	4_exp_AWA_CON_EVA_AMP	998	Rpleas_acq	Same	Rpleas	Bmasked	CS_A	2pleas	distractor1	acq_US_unple_nomask	acq3_nomask	20	3	453	1	300	300	0	0	452	46	-12,939453125	1	0	0	0	1	blank2r.bmp	0	1	+	0	1	blank2r.bmp	492	1	CPLW	492	1	blank2r.bmp	572	3	verbissen	866	1	!	1292	1	!	1346	0	0	0	0	0	0	0	0	0	0	0	0	0	0	0	0	0	0	0	0	0	0	0	0	0	0	0	0	0	0
120518	16:08:36	16:20:50	731498	5.0.10.0	4_exp_AWA_CON_EVA_AMP	998	Rpleas_acq	Same	Rpleas	Bmasked	CS_A	2pleas	distractor1	acq_US_unple_nomask	acq3_nomask	20	4	453	1	300	300	0	0	447	46	-12,939453125	1	0	0	0	1	blank2r.bmp	0	1	+	0	1	blank2r.bmp	492	1	CPLW	492	1	blank2r.bmp	572	6	engstirnig	866	1	!	1292	1	!	1346	0	0	0	0	0	0	0	0	0	0	0	0	0	0	0	0	0	0	0	0	0	0	0	0	0	0	0	0	0	0
120518	16:08:36	16:20:52	733924	5.0.10.0	4_exp_AWA_CON_EVA_AMP	998	Rpleas_acq	Same	Rpleas	Bmasked	CS_A	2pleas	distractor1	acq_US_unple_nomask	acq3_nomask	20	5	453	1	300	300	0	0	422	50	-12,939453125	0	0	0	0	1	blank2r.bmp	0	1	+	0	1	blank2r.bmp	492	1	CPLW	492	1	blank2r.bmp	572	2	töten	866	1	FEHLER	1639	1	!	1292	1	!	1319	0	0	0	0	0	0	0	0	0	0	0	0	0	0	0	0	0	0	0	0	0	0	0	0	0	0	0
120518	16:08:36	16:20:54	736269	5.0.10.0	4_exp_AWA_CON_EVA_AMP	998	Rpleas_acq	Same	Rpleas	Bmasked	CS_A	2pleas	distractor1	acq_US_pleas_nomask	acq3_nomask	20	6	453	0	300	300	0	0	568	46	-12,939453125	0	0	0	0	1	blank2r.bmp	0	1	+	0	1	blank2r.bmp	492	1	DHJF	492	1	blank2r.bmp	572	2	träumen	866	1	FEHLER	1772	1	!	1292	1	!	-1	0	0	0	0	0	0	0	0	0	0	0	0	0	0	0	0	0	0	0	0	0	0	0	0	0	0	0
120518	16:08:36	16:20:57	738375	5.0.10.0	4_exp_AWA_CON_EVA_AMP	998	Rpleas_acq	Same	Rpleas	Bmasked	CS_A	2pleas	distractor1	acq_US_unple_nomask	acq3_nomask	20	7	453	1	300	300	0	0	518	46	-12,939453125	1	0	0	0	1	blank2r.bmp	0	1	+	0	1	blank2r.bmp	492	1	CPLW	492	1	blank2r.bmp	572	5	versagen	866	1	!	1292	1	!	1412	0	0	0	0	0	0	0	0	0	0	0	0	0	0	0	0	0	0	0	0	0	0	0	0	0	0	0	0	0	0
120518	16:08:36	16:20:59	740748	5.0.10.0	4_exp_AWA_CON_EVA_AMP	998	Rpleas_acq	Same	Rpleas	Bmasked	CS_A	2pleas	distractor1	acq_US_pleas_nomask	acq3_nomask	20	8	453	0	300	300	0	0	604	50	-12,939453125	1	0	0	0	1	blank2r.bmp	0	1	+	0	1	blank2r.bmp	492	1	DHJF	492	1	blank2r.bmp	572	6	engagiert	866	1	!	1292	1	!	-1	0	0	0	0	0	0	0	0	0	0	0	0	0	0	0	0	0	0	0	0	0	0	0	0	0	0	0	0	0	0
120518	16:08:36	16:21:01	743067	5.0.10.0	4_exp_AWA_CON_EVA_AMP	998	Rpleas_acq	Same	Rpleas	Bmasked	CS_A	2pleas	distractor1	acq_US_unple_nomask	acq3_nomask	20	9	453	1	300	300	0	0	503	46	-12,939453125	1	0	0	0	1	blank2r.bmp	0	1	+	0	1	blank2r.bmp	492	1	CPLW	492	1	blank2r.bmp	572	4	geizig	866	1	!	1292	1	!	1399	0	0	0	0	0	0	0	0	0	0	0	0	0	0	0	0	0	0	0	0	0	0	0	0	0	0	0	0	0	0
120518	16:08:36	16:21:03	745279	5.0.10.0	4_exp_AWA_CON_EVA_AMP	998	Rpleas_acq	Same	Rpleas	Bmasked	CS_A	2pleas	distractor1	acq_US_pleas_nomask	acq3_nomask	20	10	453	1	300	300	0	0	417	50	-12,939453125	1	0	0	0	1	blank2r.bmp	0	1	+	0	1	blank2r.bmp	492	1	DHJF	492	1	blank2r.bmp	572	4	gesittet	866	1	!	1292	1	!	1319	0	0	0	0	0	0	0	0	0	0	0	0	0	0	0	0	0	0	0	0	0	0	0	0	0	0	0	0	0	0
120518	16:08:36	16:21:06	747758	5.0.10.0	4_exp_AWA_CON_EVA_AMP	998	Rpleas_acq	Same	Rpleas	Bmasked	CS_A	2pleas	distractor1	acq_US_unple_nomask	acq3_nomask	20	11	453	0	300	300	0	0	712	46	-12,939453125	1	0	0	0	1	blank2r.bmp	0	1	+	0	1	blank2r.bmp	492	1	CPLW	492	1	blank2r.bmp	572	1	krank	866	1	!	1292	1	!	-1	0	0	0	0	0	0	0	0	0	0	0	0	0	0	0	0	0	0	0	0	0	0	0	0	0	0	0	0	0	0
120518	16:08:36	16:21:08	749864	5.0.10.0	4_exp_AWA_CON_EVA_AMP	998	Rpleas_acq	Same	Rpleas	Bmasked	CS_A	2pleas	distractor1	acq_US_pleas_nomask	acq3_nomask	20	12	453	0	300	300	0	0	325	50	-12,939453125	1	0	0	0	1	blank2r.bmp	0	1	+	0	1	blank2r.bmp	492	1	DHJF	492	1	blank2r.bmp	572	3	vergnügt	866	1	!	-1	1	!	-1	0	0	0	0	0	0	0	0	0	0	0	0	0	0	0	0	0	0	0	0	0	0	0	0	0	0	0	0	0	0
120518	16:08:36	16:21:10	752130	5.0.10.0	4_exp_AWA_CON_EVA_AMP	998	Rpleas_acq	Same	Rpleas	Bmasked	CS_A	2pleas	distractor1	acq_US_pleas_nomask	acq3_nomask	20	13	453	0	300	300	0	0	256	46	-12,939453125	0	0	0	0	1	blank2r.bmp	0	1	+	0	1	blank2r.bmp	492	1	DHJF	492	1	blank2r.bmp	572	3	vergnügt	866	1	FEHLER	1466	1	!	-1	1	!	-1	0	0	0	0	0	0	0	0	0	0	0	0	0	0	0	0	0	0	0	0	0	0	0	0	0	0	0
120518	16:08:36	16:21:12	754249	5.0.10.0	4_exp_AWA_CON_EVA_AMP	998	Rpleas_acq	Same	Rpleas	Bmasked	CS_A	2pleas	distractor1	acq_US_pleas_nomask	acq3_nomask	20	14	453	0	300	300	0	0	560	50	-12,939453125	1	0	0	0	1	blank2r.bmp	0	1	+	0	1	blank2r.bmp	492	1	DHJF	492	1	blank2r.bmp	572	4	gesittet	866	1	!	1292	1	!	-1	0	0	0	0	0	0	0	0	0	0	0	0	0	0	0	0	0	0	0	0	0	0	0	0	0	0	0	0	0	0
120518	16:08:36	16:21:15	756528	5.0.10.0	4_exp_AWA_CON_EVA_AMP	998	Rpleas_acq	Same	Rpleas	Bmasked	CS_A	2pleas	distractor1	acq_US_unple_nomask	acq3_nomask	20	15	453	1	300	300	0	0	476	46	-12,939453125	1	0	0	0	1	blank2r.bmp	0	1	+	0	1	blank2r.bmp	492	1	CPLW	492	1	blank2r.bmp	572	4	geizig	866	1	!	1292	1	!	1372	0	0	0	0	0	0	0	0	0	0	0	0	0	0	0	0	0	0	0	0	0	0	0	0	0	0	0	0	0	0
120518	16:08:36	16:21:17	758647	5.0.10.0	4_exp_AWA_CON_EVA_AMP	998	Rpleas_acq	Same	Rpleas	Bmasked	CS_A	2pleas	distractor1	acq_US_pleas_nomask	acq3_nomask	20	16	453	0	300	300	0	0	351	50	-12,939453125	1	0	0	0	1	blank2r.bmp	0	1	+	0	1	blank2r.bmp	492	1	DHJF	492	1	blank2r.bmp	572	6	engagiert	866	1	!	-1	1	!	-1	0	0	0	0	0	0	0	0	0	0	0	0	0	0	0	0	0	0	0	0	0	0	0	0	0	0	0	0	0	0
120518	16:08:36	16:21:19	760846	5.0.10.0	4_exp_AWA_CON_EVA_AMP	998	Rpleas_acq	Same	Rpleas	Bmasked	CS_A	2pleas	distractor1	acq_US_unple_nomask	acq3_nomask	20	17	453	0	300	300	0	0	193	50	-12,939453125	0	0	0	0	1	blank2r.bmp	0	1	+	0	1	blank2r.bmp	492	1	CPLW	492	1	blank2r.bmp	572	5	versagen	866	1	FEHLER	1399	1	!	-1	1	!	-1	0	0	0	0	0	0	0	0	0	0	0	0	0	0	0	0	0	0	0	0	0	0	0	0	0	0	0
120518	16:08:36	16:21:21	762738	5.0.10.0	4_exp_AWA_CON_EVA_AMP	998	Rpleas_acq	Same	Rpleas	Bmasked	CS_A	2pleas	distractor1	acq_US_pleas_nomask	acq3_nomask	20	18	453	0	300	300	0	0	125	46	-12,939453125	0	0	0	0	1	blank2r.bmp	0	1	+	0	1	blank2r.bmp	492	1	DHJF	492	1	blank2r.bmp	572	2	träumen	866	1	FEHLER	1332	1	!	-1	1	!	-1	0	0	0	0	0	0	0	0	0	0	0	0	0	0	0	0	0	0	0	0	0	0	0	0	0	0	0
120518	16:08:36	16:21:23	764858	5.0.10.0	4_exp_AWA_CON_EVA_AMP	998	Rpleas_acq	Same	Rpleas	Bmasked	CS_A	2pleas	distractor1	acq_US_pleas_nomask	acq3_nomask	20	19	453	0	300	300	0	0	306	46	-12,939453125	0	0	0	0	1	blank2r.bmp	0	1	+	0	1	blank2r.bmp	492	1	DHJF	492	1	blank2r.bmp	572	5	vertrauen	866	1	FEHLER	1519	1	!	-1	1	!	-1	0	0	0	0	0	0	0	0	0	0	0	0	0	0	0	0	0	0	0	0	0	0	0	0	0	0	0
120518	16:08:36	16:21:25	767230	5.0.10.0	4_exp_AWA_CON_EVA_AMP	998	Rpleas_acq	Same	Rpleas	Bmasked	CS_A	2pleas	distractor1	acq_US_unple_nomask	acq3_nomask	20	20	453	0	300	300	0	0	574	50	-12,939453125	0	0	0	0	1	blank2r.bmp	0	1	+	0	1	blank2r.bmp	492	1	CPLW	492	1	blank2r.bmp	572	1	krank	866	1	FEHLER	1785	1	!	1292	1	!	-1	0	0	0	0	0	0	0	0	0	0	0	0	0	0	0	0	0	0	0	0	0	0	0	0	0	0	0
120518	16:08:36	16:21:27	769269	5.0.10.0	4_exp_AWA_CON_EVA_AMP	998	Rpleas_acq	Same	Rpleas	Bmasked	CS_A	2pleas	distractor1	acq_US_unple_nomask	acq3_nomask	20	21	453	1	300	300	0	0	455	46	-12,939453125	1	0	0	0	1	blank2r.bmp	0	1	+	0	1	blank2r.bmp	492	1	CPLW	492	1	blank2r.bmp	572	6	engstirnig	866	1	!	1292	1	!	1359	0	0	0	0	0	0	0	0	0	0	0	0	0	0	0	0	0	0	0	0	0	0	0	0	0	0	0	0	0	0
120518	16:08:36	16:21:30	771508	5.0.10.0	4_exp_AWA_CON_EVA_AMP	998	Rpleas_acq	Same	Rpleas	Bmasked	CS_A	2pleas	distractor1	acq_US_unple_nomask	acq3_nomask	20	22	453	1	300	300	0	0	439	46	-12,939453125	1	0	0	0	1	blank2r.bmp	0	1	+	0	1	blank2r.bmp	492	1	CPLW	492	1	blank2r.bmp	572	3	verbissen	866	1	!	1292	1	!	1346	0	0	0	0	0	0	0	0	0	0	0	0	0	0	0	0	0	0	0	0	0	0	0	0	0	0	0	0	0	0
120518	16:08:36	16:21:32	773761	5.0.10.0	4_exp_AWA_CON_EVA_AMP	998	Rpleas_acq	Same	Rpleas	Bmasked	CS_A	2pleas	distractor1	acq_US_unple_nomask	acq3_nomask	20	23	453	1	300	300	0	0	443	46	-12,939453125	1	0	0	0	1	blank2r.bmp	0	1	+	0	1	blank2r.bmp	492	1	CPLW	492	1	blank2r.bmp	572	2	töten	866	1	!	1292	1	!	1346	0	0	0	0	0	0	0	0	0	0	0	0	0	0	0	0	0	0	0	0	0	0	0	0	0	0	0	0	0	0
120518	16:08:36	16:21:34	775880	5.0.10.0	4_exp_AWA_CON_EVA_AMP	998	Rpleas_acq	Same	Rpleas	Bmasked	CS_A	2pleas	distractor1	acq_US_pleas_nomask	acq3_nomask	20	24	453	0	300	300	0	0	347	50	-12,939453125	1	0	0	0	1	blank2r.bmp	0	1	+	0	1	blank2r.bmp	492	1	DHJF	492	1	blank2r.bmp	572	1	kreativ	866	1	!	-1	1	!	-1	0	0	0	0	0	0	0	0	0	0	0	0	0	0	0	0	0	0	0	0	0	0	0	0	0	0	0	0	0	0
120518	16:08:36	16:21:36	778185	5.0.10.0	4_exp_AWA_CON_EVA_AMP	998	Rpleas_acq	Same	Rpleas	Bmasked	CS_A	2pleas	distractor1	acq_US_pleas_nomask	acq3_nomask	20	25	453	0	300	300	0	0	297	46	-12,939453125	0	0	0	0	1	blank2r.bmp	0	1	+	0	1	blank2r.bmp	492	1	DHJF	492	1	blank2r.bmp	572	4	gesittet	866	1	FEHLER	1506	1	!	-1	1	!	-1	0	0	0	0	0	0	0	0	0	0	0	0	0	0	0	0	0	0	0	0	0	0	0	0	0	0	0
120518	16:08:36	16:21:38	780225	5.0.10.0	4_exp_AWA_CON_EVA_AMP	998	Rpleas_acq	Same	Rpleas	Bmasked	CS_A	2pleas	distractor1	acq_US_pleas_nomask	acq3_nomask	20	26	453	1	300	300	0	0	455	50	-12,939453125	1	0	0	0	1	blank2r.bmp	0	1	+	0	1	blank2r.bmp	492	1	DHJF	492	1	blank2r.bmp	572	1	kreativ	866	1	!	1292	1	!	1359	0	0	0	0	0	0	0	0	0	0	0	0	0	0	0	0	0	0	0	0	0	0	0	0	0	0	0	0	0	0
120518	16:08:36	16:21:41	782450	5.0.10.0	4_exp_AWA_CON_EVA_AMP	998	Rpleas_acq	Same	Rpleas	Bmasked	CS_A	2pleas	distractor1	acq_US_pleas_nomask	acq3_nomask	20	27	453	1	300	300	0	0	426	50	-12,939453125	1	0	0	0	1	blank2r.bmp	0	1	+	0	1	blank2r.bmp	492	1	DHJF	492	1	blank2r.bmp	572	2	träumen	866	1	!	1292	1	!	1332	0	0	0	0	0	0	0	0	0	0	0	0	0	0	0	0	0	0	0	0	0	0	0	0	0	0	0	0	0	0
120518	16:08:36	16:21:43	784689	5.0.10.0	4_exp_AWA_CON_EVA_AMP	998	Rpleas_acq	Same	Rpleas	Bmasked	CS_A	2pleas	distractor1	acq_US_unple_nomask	acq3_nomask	20	28	453	1	300	300	0	0	447	46	-12,939453125	1	0	0	0	1	blank2r.bmp	0	1	+	0	1	blank2r.bmp	492	1	CPLW	492	1	blank2r.bmp	572	5	versagen	866	1	!	1292	1	!	1346	0	0	0	0	0	0	0	0	0	0	0	0	0	0	0	0	0	0	0	0	0	0	0	0	0	0	0	0	0	0
120518	16:08:36	16:21:45	786782	5.0.10.0	4_exp_AWA_CON_EVA_AMP	998	Rpleas_acq	Same	Rpleas	Bmasked	CS_A	2pleas	distractor1	acq_US_pleas_nomask	acq3_nomask	20	29	453	0	300	300	0	0	306	50	-12,939453125	1	0	0	0	1	blank2r.bmp	0	1	+	0	1	blank2r.bmp	492	1	DHJF	492	1	blank2r.bmp	572	5	vertrauen	866	1	!	-1	1	!	-1	0	0	0	0	0	0	0	0	0	0	0	0	0	0	0	0	0	0	0	0	0	0	0	0	0	0	0	0	0	0
120518	16:08:36	16:21:48	789408	5.0.10.0	4_exp_AWA_CON_EVA_AMP	998	Rpleas_acq	Same	Rpleas	Bmasked	CS_A	2pleas	distractor1	acq_US_unple_nomask	acq3_nomask	20	30	453	0	300	300	0	0	616	50	-12,939453125	0	0	0	0	1	blank2r.bmp	0	1	+	0	1	blank2r.bmp	492	1	CPLW	492	1	blank2r.bmp	572	1	krank	866	1	FEHLER	1825	1	!	1292	1	!	-1	0	0	0	0	0	0	0	0	0	0	0	0	0	0	0	0	0	0	0	0	0	0	0	0	0	0	0
120518	16:08:36	16:21:50	791567	5.0.10.0	4_exp_AWA_CON_EVA_AMP	998	Rpleas_acq	Same	Rpleas	Bmasked	CS_A	2pleas	distractor1	acq_US_unple_nomask	acq3_nomask	20	31	453	0	300	300	0	0	589	46	-12,939453125	1	0	0	0	1	blank2r.bmp	0	1	+	0	1	blank2r.bmp	492	1	CPLW	492	1	blank2r.bmp	572	4	geizig	866	1	!	1292	1	!	-1	0	0	0	0	0	0	0	0	0	0	0	0	0	0	0	0	0	0	0	0	0	0	0	0	0	0	0	0	0	0
120518	16:08:36	16:21:52	793819	5.0.10.0	4_exp_AWA_CON_EVA_AMP	998	Rpleas_acq	Same	Rpleas	Bmasked	CS_A	2pleas	distractor1	acq_US_pleas_nomask	acq3_nomask	20	32	453	1	300	300	0	0	440	50	-12,939453125	1	0	0	0	1	blank2r.bmp	0	1	+	0	1	blank2r.bmp	492	1	DHJF	492	1	blank2r.bmp	572	3	vergnügt	866	1	!	1292	1	!	1346	0	0	0	0	0	0	0	0	0	0	0	0	0	0	0	0	0	0	0	0	0	0	0	0	0	0	0	0	0	0
120518	16:08:36	16:21:54	796031	5.0.10.0	4_exp_AWA_CON_EVA_AMP	998	Rpleas_acq	Same	Rpleas	Bmasked	CS_A	2pleas	distractor1	acq_US_pleas_nomask	acq3_nomask	20	33	453	1	300	300	0	0	417	50	-12,939453125	1	0	0	0	1	blank2r.bmp	0	1	+	0	1	blank2r.bmp	492	1	DHJF	492	1	blank2r.bmp	572	6	engagiert	866	1	!	1292	1	!	1319	0	0	0	0	0	0	0	0	0	0	0	0	0	0	0	0	0	0	0	0	0	0	0	0	0	0	0	0	0	0
120518	16:08:36	16:21:57	798417	5.0.10.0	4_exp_AWA_CON_EVA_AMP	998	Rpleas_acq	Same	Rpleas	Bmasked	CS_A	2pleas	distractor1	acq_US_unple_nomask	acq3_nomask	20	34	453	0	300	300	0	0	377	50	-12,939453125	0	0	0	0	1	blank2r.bmp	0	1	+	0	1	blank2r.bmp	492	1	CPLW	492	1	blank2r.bmp	572	6	engstirnig	866	1	FEHLER	1586	1	!	-1	1	!	-1	0	0	0	0	0	0	0	0	0	0	0	0	0	0	0	0	0	0	0	0	0	0	0	0	0	0	0
120518	16:08:36	16:21:59	800403	5.0.10.0	4_exp_AWA_CON_EVA_AMP	998	Rpleas_acq	Same	Rpleas	Bmasked	CS_A	2pleas	distractor1	acq_US_unple_nomask	acq3_nomask	20	35	453	1	300	300	0	0	411	46	-12,939453125	1	0	0	0	1	blank2r.bmp	0	1	+	0	1	blank2r.bmp	492	1	CPLW	492	1	blank2r.bmp	572	3	verbissen	866	1	!	1292	1	!	1306	0	0	0	0	0	0	0	0	0	0	0	0	0	0	0	0	0	0	0	0	0	0	0	0	0	0	0	0	0	0
120518	16:08:36	16:22:01	802495	5.0.10.0	4_exp_AWA_CON_EVA_AMP	998	Rpleas_acq	Same	Rpleas	Bmasked	CS_A	2pleas	distractor1	acq_US_unple_nomask	acq3_nomask	20	36	453	0	300	300	0	0	331	46	-12,939453125	1	0	0	0	1	blank2r.bmp	0	1	+	0	1	blank2r.bmp	492	1	CPLW	492	1	blank2r.bmp	572	2	töten	866	1	!	-1	1	!	-1	0	0	0	0	0	0	0	0	0	0	0	0	0	0	0	0	0	0	0	0	0	0	0	0	0	0	0	0	0	0
