date	time	script.currenttime	script.elapsedtime	build	script.currentexpt	subject	expressions.LRpleas_acq	expressions.SameOppo	expressions.condition_Lpleas	expressions.ABmasked	expressions.conditionCS_A	expressions.condition_1pleas	expressions.condition_distractor_AMP	expressions.AWACON_AMPEVA_first	trialcode	blockcode	blocknum	trialnum	windowcenter	inwindow	pretrialpause	posttrialpause	trialduration	trialtimeout	latency	response	expressions.correctedscore	correct	values.vis_performance	values.vis_rating_sum	values.vis_rating_mean	stimulusnumber1	stimulusitem1	stimulusonset1	stimulusnumber2	stimulusitem2	stimulusonset2	stimulusnumber3	stimulusitem3	stimulusonset3	stimulusnumber4	stimulusitem4	stimulusonset4	stimulusnumber5	stimulusitem5	stimulusonset5	stimulusnumber6	stimulusitem6	stimulusonset6	stimulusnumber7	stimulusitem7	stimulusonset7	stimulusnumber8	stimulusitem8	stimulusonset8	stimulusnumber9	stimulusitem9	stimulusonset9	stimulusnumber10	stimulusitem10	stimulusonset10	stimulusnumber11	stimulusitem11	stimulusonset11	stimulusnumber12	stimulusitem12	stimulusonset12	stimulusnumber13	stimulusitem13	stimulusonset13	stimulusnumber14	stimulusitem14	stimulusonset14	stimulusnumber15	stimulusitem15	stimulusonset15	stimulusnumber16	stimulusitem16	stimulusonset16	stimulusnumber17	stimulusitem17	stimulusonset17	stimulusnumber18	stimulusitem18	stimulusonset18
121118	10:31:03	10:32:43	100144	5.0.10.0	4_exp_EVA_AMP_AWA_CON	2	Rpleas_acq	Same	Rpleas	Bmasked	CS_B	1pleas	distractor2	EVAbeforeCON	acq_new_unple_masked	acq1_masked	1	1	0	0	300	300	0	0	1146	50	0	0	0	0	0	1	blank2r.bmp	0	1	+	0	3	B3r.bmp	492	1	blank2r.bmp	786	2	B2r.bmp	786	1	blank2r.bmp	866	5	schroff	866	1	FEHLER	2052	0	0	0	0	0	0	0	0	0	0	0	0	0	0	0	0	0	0	0	0	0	0	0	0	0	0	0	0	0	0
121118	10:31:03	10:32:46	102636	5.0.10.0	4_exp_EVA_AMP_AWA_CON	2	Rpleas_acq	Same	Rpleas	Bmasked	CS_B	1pleas	distractor2	EVAbeforeCON	acq_US_unple_masked	acq1_masked	1	2	0	0	300	300	0	0	1016	50	0	0	0	0	0	1	blank2r.bmp	0	1	+	0	2	B2r.bmp	492	1	blank2r.bmp	786	1	GKQX	786	1	blank2r.bmp	866	4	fanatisch	866	1	FEHLER	1919	0	0	0	0	0	0	0	0	0	0	0	0	0	0	0	0	0	0	0	0	0	0	0	0	0	0	0	0	0	0
121118	10:31:03	10:32:48	104915	5.0.10.0	4_exp_EVA_AMP_AWA_CON	2	Rpleas_acq	Same	Rpleas	Bmasked	CS_B	1pleas	distractor2	EVAbeforeCON	acq_new_pleas_masked	acq1_masked	1	3	0	0	300	300	0	0	1013	50	0	1	0	0	0	1	blank2r.bmp	0	1	+	0	8	C4r.bmp	492	1	blank2r.bmp	786	7	C3r.bmp	786	1	blank2r.bmp	866	6	helfen	866	0	0	0	0	0	0	0	0	0	0	0	0	0	0	0	0	0	0	0	0	0	0	0	0	0	0	0	0	0	0	0	0	0
121118	10:31:03	10:32:51	107541	5.0.10.0	4_exp_EVA_AMP_AWA_CON	2	Rpleas_acq	Same	Rpleas	Bmasked	CS_B	1pleas	distractor2	EVAbeforeCON	acq_new_unple_masked	acq1_masked	1	4	0	0	300	300	0	0	1139	46	0	1	0	0	0	1	blank2r.bmp	0	1	+	0	7	C3r.bmp	492	1	blank2r.bmp	786	3	B3r.bmp	786	1	blank2r.bmp	866	2	eitel	866	0	0	0	0	0	0	0	0	0	0	0	0	0	0	0	0	0	0	0	0	0	0	0	0	0	0	0	0	0	0	0	0	0
121118	10:31:03	10:32:53	109766	5.0.10.0	4_exp_EVA_AMP_AWA_CON	2	Rpleas_acq	Same	Rpleas	Bmasked	CS_B	1pleas	distractor2	EVAbeforeCON	acq_US_unple_masked	acq1_masked	1	5	0	0	300	300	0	0	538	50	0	0	0	0	0	1	blank2r.bmp	0	1	+	0	4	B4r.bmp	492	1	blank2r.bmp	786	1	GKQX	786	1	blank2r.bmp	866	1	schlecht	866	1	FEHLER	1439	0	0	0	0	0	0	0	0	0	0	0	0	0	0	0	0	0	0	0	0	0	0	0	0	0	0	0	0	0	0
121118	10:31:03	10:32:56	112499	5.0.10.0	4_exp_EVA_AMP_AWA_CON	2	Rpleas_acq	Same	Rpleas	Bmasked	CS_B	1pleas	distractor2	EVAbeforeCON	acq_new_pleas_masked	acq1_masked	1	6	0	0	300	300	0	0	1470	50	0	1	0	0	0	1	blank2r.bmp	0	1	+	0	6	C2r.bmp	492	1	blank2r.bmp	786	5	C1r.bmp	786	1	blank2r.bmp	866	4	spielen	866	0	0	0	0	0	0	0	0	0	0	0	0	0	0	0	0	0	0	0	0	0	0	0	0	0	0	0	0	0	0	0	0	0
121118	10:31:03	10:32:58	114858	5.0.10.0	4_exp_EVA_AMP_AWA_CON	2	Rpleas_acq	Same	Rpleas	Bmasked	CS_B	1pleas	distractor2	EVAbeforeCON	acq_new_unple_masked	acq1_masked	1	7	0	0	300	300	0	0	874	46	0	1	0	0	0	1	blank2r.bmp	0	1	+	0	1	B1r.bmp	492	1	blank2r.bmp	786	4	B4r.bmp	786	1	blank2r.bmp	866	4	strafen	866	0	0	0	0	0	0	0	0	0	0	0	0	0	0	0	0	0	0	0	0	0	0	0	0	0	0	0	0	0	0	0	0	0
121118	10:31:03	10:33:01	117203	5.0.10.0	4_exp_EVA_AMP_AWA_CON	2	Rpleas_acq	Same	Rpleas	Bmasked	CS_B	1pleas	distractor2	EVAbeforeCON	acq_new_pleas_masked	acq1_masked	1	8	0	0	300	300	0	0	867	50	0	1	0	0	0	1	blank2r.bmp	0	1	+	0	5	C1r.bmp	492	1	blank2r.bmp	786	6	C2r.bmp	786	1	blank2r.bmp	866	2	ehrlich	866	0	0	0	0	0	0	0	0	0	0	0	0	0	0	0	0	0	0	0	0	0	0	0	0	0	0	0	0	0	0	0	0	0
121118	10:31:03	10:33:03	119456	5.0.10.0	4_exp_EVA_AMP_AWA_CON	2	Rpleas_acq	Same	Rpleas	Bmasked	CS_B	1pleas	distractor2	EVAbeforeCON	acq_US_pleas_masked	acq1_masked	1	9	0	0	300	300	0	0	782	50	0	1	0	0	0	1	blank2r.bmp	0	1	+	0	2	B2r.bmp	492	1	blank2r.bmp	786	1	BMVZ	786	1	blank2r.bmp	866	6	fair	866	0	0	0	0	0	0	0	0	0	0	0	0	0	0	0	0	0	0	0	0	0	0	0	0	0	0	0	0	0	0	0	0	0
121118	10:31:03	10:33:05	121468	5.0.10.0	4_exp_EVA_AMP_AWA_CON	2	Rpleas_acq	Same	Rpleas	Bmasked	CS_B	1pleas	distractor2	EVAbeforeCON	acq_US_pleas_masked	acq1_masked	1	10	0	0	300	300	0	0	529	50	0	1	0	0	0	1	blank2r.bmp	0	1	+	0	7	C3r.bmp	492	1	blank2r.bmp	786	1	BMVZ	786	1	blank2r.bmp	866	1	schön	866	0	0	0	0	0	0	0	0	0	0	0	0	0	0	0	0	0	0	0	0	0	0	0	0	0	0	0	0	0	0	0	0	0
121118	10:31:03	10:33:07	123841	5.0.10.0	4_exp_EVA_AMP_AWA_CON	2	Rpleas_acq	Same	Rpleas	Bmasked	CS_B	1pleas	distractor2	EVAbeforeCON	acq_US_unple_masked	acq1_masked	1	11	0	0	300	300	0	0	890	46	0	1	0	0	0	1	blank2r.bmp	0	1	+	0	4	B4r.bmp	492	1	blank2r.bmp	786	1	GKQX	786	1	blank2r.bmp	866	2	tot	866	0	0	0	0	0	0	0	0	0	0	0	0	0	0	0	0	0	0	0	0	0	0	0	0	0	0	0	0	0	0	0	0	0
121118	10:31:03	10:33:09	126000	5.0.10.0	4_exp_EVA_AMP_AWA_CON	2	Rpleas_acq	Same	Rpleas	Bmasked	CS_B	1pleas	distractor2	EVAbeforeCON	acq_US_pleas_masked	acq1_masked	1	12	0	0	300	300	0	0	682	50	0	1	0	0	0	1	blank2r.bmp	0	1	+	0	5	C1r.bmp	492	1	blank2r.bmp	786	1	BMVZ	786	1	blank2r.bmp	866	2	treu	866	0	0	0	0	0	0	0	0	0	0	0	0	0	0	0	0	0	0	0	0	0	0	0	0	0	0	0	0	0	0	0	0	0
121118	10:31:03	10:33:12	128385	5.0.10.0	4_exp_EVA_AMP_AWA_CON	2	Rpleas_acq	Same	Rpleas	Bmasked	CS_B	1pleas	distractor2	EVAbeforeCON	acq_new_unple_masked	acq1_masked	1	13	0	0	300	300	0	0	913	46	0	1	0	0	0	1	blank2r.bmp	0	1	+	0	6	C2r.bmp	492	1	blank2r.bmp	786	1	B1r.bmp	786	1	blank2r.bmp	866	6	hindern	866	0	0	0	0	0	0	0	0	0	0	0	0	0	0	0	0	0	0	0	0	0	0	0	0	0	0	0	0	0	0	0	0	0
121118	10:31:03	10:33:14	130611	5.0.10.0	4_exp_EVA_AMP_AWA_CON	2	Rpleas_acq	Same	Rpleas	Bmasked	CS_B	1pleas	distractor2	EVAbeforeCON	acq_US_pleas_masked	acq1_masked	1	14	0	0	300	300	0	0	743	50	0	1	0	0	0	1	blank2r.bmp	0	1	+	0	1	B1r.bmp	492	1	blank2r.bmp	786	1	BMVZ	786	1	blank2r.bmp	866	5	retten	866	0	0	0	0	0	0	0	0	0	0	0	0	0	0	0	0	0	0	0	0	0	0	0	0	0	0	0	0	0	0	0	0	0
121118	10:31:03	10:33:16	132983	5.0.10.0	4_exp_EVA_AMP_AWA_CON	2	Rpleas_acq	Same	Rpleas	Bmasked	CS_B	1pleas	distractor2	EVAbeforeCON	acq_new_pleas_masked	acq1_masked	1	15	0	0	300	300	0	0	898	50	0	1	0	0	0	1	blank2r.bmp	0	1	+	0	8	C4r.bmp	492	1	blank2r.bmp	786	8	C4r.bmp	786	1	blank2r.bmp	866	1	tolerant	866	0	0	0	0	0	0	0	0	0	0	0	0	0	0	0	0	0	0	0	0	0	0	0	0	0	0	0	0	0	0	0	0	0
121118	10:31:03	10:33:18	135116	5.0.10.0	4_exp_EVA_AMP_AWA_CON	2	Rpleas_acq	Same	Rpleas	Bmasked	CS_B	1pleas	distractor2	EVAbeforeCON	acq_new_pleas_masked	acq1_masked	1	16	0	0	300	300	0	0	658	50	0	1	0	0	0	1	blank2r.bmp	0	1	+	0	3	B3r.bmp	492	1	blank2r.bmp	786	1	B1r.bmp	786	1	blank2r.bmp	866	3	lachen	866	0	0	0	0	0	0	0	0	0	0	0	0	0	0	0	0	0	0	0	0	0	0	0	0	0	0	0	0	0	0	0	0	0
121118	10:31:03	10:33:21	137328	5.0.10.0	4_exp_EVA_AMP_AWA_CON	2	Rpleas_acq	Same	Rpleas	Bmasked	CS_B	1pleas	distractor2	EVAbeforeCON	acq_US_unple_masked	acq1_masked	1	17	0	0	300	300	0	0	728	46	0	1	0	0	0	1	blank2r.bmp	0	1	+	0	4	B4r.bmp	492	1	blank2r.bmp	786	1	GKQX	786	1	blank2r.bmp	866	6	faul	866	0	0	0	0	0	0	0	0	0	0	0	0	0	0	0	0	0	0	0	0	0	0	0	0	0	0	0	0	0	0	0	0	0
121118	10:31:03	10:33:23	139554	5.0.10.0	4_exp_EVA_AMP_AWA_CON	2	Rpleas_acq	Same	Rpleas	Bmasked	CS_B	1pleas	distractor2	EVAbeforeCON	acq_new_pleas_masked	acq1_masked	1	18	0	0	300	300	0	0	739	50	0	1	0	0	0	1	blank2r.bmp	0	1	+	0	7	C3r.bmp	492	1	blank2r.bmp	786	5	C1r.bmp	786	1	blank2r.bmp	866	5	schlau	866	0	0	0	0	0	0	0	0	0	0	0	0	0	0	0	0	0	0	0	0	0	0	0	0	0	0	0	0	0	0	0	0	0
121118	10:31:03	10:33:25	141740	5.0.10.0	4_exp_EVA_AMP_AWA_CON	2	Rpleas_acq	Same	Rpleas	Bmasked	CS_B	1pleas	distractor2	EVAbeforeCON	acq_US_unple_masked	acq1_masked	1	19	0	0	300	300	0	0	717	46	0	1	0	0	0	1	blank2r.bmp	0	1	+	0	3	B3r.bmp	492	1	blank2r.bmp	786	1	GKQX	786	1	blank2r.bmp	866	5	rächen	866	0	0	0	0	0	0	0	0	0	0	0	0	0	0	0	0	0	0	0	0	0	0	0	0	0	0	0	0	0	0	0	0	0
121118	10:31:03	10:33:27	143939	5.0.10.0	4_exp_EVA_AMP_AWA_CON	2	Rpleas_acq	Same	Rpleas	Bmasked	CS_B	1pleas	distractor2	EVAbeforeCON	acq_new_unple_masked	acq1_masked	1	20	0	0	300	300	0	0	709	46	0	1	0	0	0	1	blank2r.bmp	0	1	+	0	6	C2r.bmp	492	1	blank2r.bmp	786	4	B4r.bmp	786	1	blank2r.bmp	866	1	tyrannisch	866	0	0	0	0	0	0	0	0	0	0	0	0	0	0	0	0	0	0	0	0	0	0	0	0	0	0	0	0	0	0	0	0	0
121118	10:31:03	10:33:30	146324	5.0.10.0	4_exp_EVA_AMP_AWA_CON	2	Rpleas_acq	Same	Rpleas	Bmasked	CS_B	1pleas	distractor2	EVAbeforeCON	acq_US_unple_masked	acq1_masked	1	21	0	0	300	300	0	0	906	46	0	1	0	0	0	1	blank2r.bmp	0	1	+	0	8	C4r.bmp	492	1	blank2r.bmp	786	1	GKQX	786	1	blank2r.bmp	866	3	lasch	866	0	0	0	0	0	0	0	0	0	0	0	0	0	0	0	0	0	0	0	0	0	0	0	0	0	0	0	0	0	0	0	0	0
121118	10:31:03	10:33:32	148603	5.0.10.0	4_exp_EVA_AMP_AWA_CON	2	Rpleas_acq	Same	Rpleas	Bmasked	CS_B	1pleas	distractor2	EVAbeforeCON	acq_new_unple_masked	acq1_masked	1	22	0	0	300	300	0	0	804	46	0	1	0	0	0	1	blank2r.bmp	0	1	+	0	2	B2r.bmp	492	1	blank2r.bmp	786	6	C2r.bmp	786	1	blank2r.bmp	866	3	leiden	866	0	0	0	0	0	0	0	0	0	0	0	0	0	0	0	0	0	0	0	0	0	0	0	0	0	0	0	0	0	0	0	0	0
121118	10:31:03	10:33:34	151176	5.0.10.0	4_exp_EVA_AMP_AWA_CON	2	Rpleas_acq	Same	Rpleas	Bmasked	CS_B	1pleas	distractor2	EVAbeforeCON	acq_US_pleas_masked	acq1_masked	1	23	0	0	300	300	0	0	1095	50	0	1	0	0	0	1	blank2r.bmp	0	1	+	0	1	B1r.bmp	492	1	blank2r.bmp	786	1	BMVZ	786	1	blank2r.bmp	866	4	freundlich	866	0	0	0	0	0	0	0	0	0	0	0	0	0	0	0	0	0	0	0	0	0	0	0	0	0	0	0	0	0	0	0	0	0
121118	10:31:03	10:33:37	153202	5.0.10.0	4_exp_EVA_AMP_AWA_CON	2	Rpleas_acq	Same	Rpleas	Bmasked	CS_B	1pleas	distractor2	EVAbeforeCON	acq_US_pleas_masked	acq1_masked	1	24	0	0	300	300	0	0	556	50	0	1	0	0	0	1	blank2r.bmp	0	1	+	0	5	C1r.bmp	492	1	blank2r.bmp	786	1	BMVZ	786	1	blank2r.bmp	866	3	loyal	866	0	0	0	0	0	0	0	0	0	0	0	0	0	0	0	0	0	0	0	0	0	0	0	0	0	0	0	0	0	0	0	0	0
121118	10:31:03	10:33:39	155201	5.0.10.0	4_exp_EVA_AMP_AWA_CON	2	Rpleas_acq	Same	Rpleas	Bmasked	CS_B	1pleas	distractor2	EVAbeforeCON	acq_new_pleas_masked	acq1_masked	1	25	0	0	300	300	0	0	517	50	0	1	0	0	0	1	blank2r.bmp	0	1	+	0	7	C3r.bmp	492	1	blank2r.bmp	786	2	B2r.bmp	786	1	blank2r.bmp	866	3	lachen	866	0	0	0	0	0	0	0	0	0	0	0	0	0	0	0	0	0	0	0	0	0	0	0	0	0	0	0	0	0	0	0	0	0
121118	10:31:03	10:33:41	157520	5.0.10.0	4_exp_EVA_AMP_AWA_CON	2	Rpleas_acq	Same	Rpleas	Bmasked	CS_B	1pleas	distractor2	EVAbeforeCON	acq_new_unple_masked	acq1_masked	1	26	0	0	300	300	0	0	832	46	0	1	0	0	0	1	blank2r.bmp	0	1	+	0	5	C1r.bmp	492	1	blank2r.bmp	786	3	B3r.bmp	786	1	blank2r.bmp	866	2	eitel	866	0	0	0	0	0	0	0	0	0	0	0	0	0	0	0	0	0	0	0	0	0	0	0	0	0	0	0	0	0	0	0	0	0
121118	10:31:03	10:33:43	159692	5.0.10.0	4_exp_EVA_AMP_AWA_CON	2	Rpleas_acq	Same	Rpleas	Bmasked	CS_B	1pleas	distractor2	EVAbeforeCON	acq_US_pleas_masked	acq1_masked	1	27	0	0	300	300	0	0	690	50	0	1	0	0	0	1	blank2r.bmp	0	1	+	0	8	C4r.bmp	492	1	blank2r.bmp	786	1	BMVZ	786	1	blank2r.bmp	866	1	schön	866	0	0	0	0	0	0	0	0	0	0	0	0	0	0	0	0	0	0	0	0	0	0	0	0	0	0	0	0	0	0	0	0	0
121118	10:31:03	10:33:45	161785	5.0.10.0	4_exp_EVA_AMP_AWA_CON	2	Rpleas_acq	Same	Rpleas	Bmasked	CS_B	1pleas	distractor2	EVAbeforeCON	acq_US_pleas_masked	acq1_masked	1	28	0	0	300	300	0	0	607	50	0	1	0	0	0	1	blank2r.bmp	0	1	+	0	4	B4r.bmp	492	1	blank2r.bmp	786	1	BMVZ	786	1	blank2r.bmp	866	6	fair	866	0	0	0	0	0	0	0	0	0	0	0	0	0	0	0	0	0	0	0	0	0	0	0	0	0	0	0	0	0	0	0	0	0
121118	10:31:03	10:33:48	164317	5.0.10.0	4_exp_EVA_AMP_AWA_CON	2	Rpleas_acq	Same	Rpleas	Bmasked	CS_B	1pleas	distractor2	EVAbeforeCON	acq_new_unple_masked	acq1_masked	1	29	0	0	300	300	0	0	1039	46	0	1	0	0	0	1	blank2r.bmp	0	1	+	0	6	C2r.bmp	492	1	blank2r.bmp	786	8	C4r.bmp	786	1	blank2r.bmp	866	3	leiden	866	0	0	0	0	0	0	0	0	0	0	0	0	0	0	0	0	0	0	0	0	0	0	0	0	0	0	0	0	0	0	0	0	0
121118	10:31:03	10:33:50	166556	5.0.10.0	4_exp_EVA_AMP_AWA_CON	2	Rpleas_acq	Same	Rpleas	Bmasked	CS_B	1pleas	distractor2	EVAbeforeCON	acq_US_unple_masked	acq1_masked	1	30	0	0	300	300	0	0	769	46	0	1	0	0	0	1	blank2r.bmp	0	1	+	0	2	B2r.bmp	492	1	blank2r.bmp	786	1	GKQX	786	1	blank2r.bmp	866	2	tot	866	0	0	0	0	0	0	0	0	0	0	0	0	0	0	0	0	0	0	0	0	0	0	0	0	0	0	0	0	0	0	0	0	0
121118	10:31:03	10:33:52	168702	5.0.10.0	4_exp_EVA_AMP_AWA_CON	2	Rpleas_acq	Same	Rpleas	Bmasked	CS_B	1pleas	distractor2	EVAbeforeCON	acq_US_pleas_masked	acq1_masked	1	31	0	0	300	300	0	0	651	50	0	1	0	0	0	1	blank2r.bmp	0	1	+	0	3	B3r.bmp	492	1	blank2r.bmp	786	1	BMVZ	786	1	blank2r.bmp	866	5	retten	866	0	0	0	0	0	0	0	0	0	0	0	0	0	0	0	0	0	0	0	0	0	0	0	0	0	0	0	0	0	0	0	0	0
121118	10:31:03	10:33:54	170768	5.0.10.0	4_exp_EVA_AMP_AWA_CON	2	Rpleas_acq	Same	Rpleas	Bmasked	CS_B	1pleas	distractor2	EVAbeforeCON	acq_US_unple_masked	acq1_masked	1	32	0	0	300	300	0	0	593	46	0	1	0	0	0	1	blank2r.bmp	0	1	+	0	1	B1r.bmp	492	1	blank2r.bmp	786	1	GKQX	786	1	blank2r.bmp	866	6	faul	866	0	0	0	0	0	0	0	0	0	0	0	0	0	0	0	0	0	0	0	0	0	0	0	0	0	0	0	0	0	0	0	0	0
121118	10:31:03	10:33:56	173033	5.0.10.0	4_exp_EVA_AMP_AWA_CON	2	Rpleas_acq	Same	Rpleas	Bmasked	CS_B	1pleas	distractor2	EVAbeforeCON	acq_new_pleas_masked	acq1_masked	1	33	0	0	300	300	0	0	790	50	0	1	0	0	0	1	blank2r.bmp	0	1	+	0	6	C2r.bmp	492	1	blank2r.bmp	786	7	C3r.bmp	786	1	blank2r.bmp	866	6	helfen	866	0	0	0	0	0	0	0	0	0	0	0	0	0	0	0	0	0	0	0	0	0	0	0	0	0	0	0	0	0	0	0	0	0
121118	10:31:03	10:33:58	175139	5.0.10.0	4_exp_EVA_AMP_AWA_CON	2	Rpleas_acq	Same	Rpleas	Bmasked	CS_B	1pleas	distractor2	EVAbeforeCON	acq_new_pleas_masked	acq1_masked	1	34	0	0	300	300	0	0	626	50	0	1	0	0	0	1	blank2r.bmp	0	1	+	0	1	B1r.bmp	492	1	blank2r.bmp	786	7	C3r.bmp	786	1	blank2r.bmp	866	4	spielen	866	0	0	0	0	0	0	0	0	0	0	0	0	0	0	0	0	0	0	0	0	0	0	0	0	0	0	0	0	0	0	0	0	0
121118	10:31:03	10:34:00	177178	5.0.10.0	4_exp_EVA_AMP_AWA_CON	2	Rpleas_acq	Same	Rpleas	Bmasked	CS_B	1pleas	distractor2	EVAbeforeCON	acq_new_unple_masked	acq1_masked	1	35	0	0	300	300	0	0	567	46	0	1	0	0	0	1	blank2r.bmp	0	1	+	0	3	B3r.bmp	492	1	blank2r.bmp	786	6	C2r.bmp	786	1	blank2r.bmp	866	6	hindern	866	0	0	0	0	0	0	0	0	0	0	0	0	0	0	0	0	0	0	0	0	0	0	0	0	0	0	0	0	0	0	0	0	0
121118	10:31:03	10:34:03	179271	5.0.10.0	4_exp_EVA_AMP_AWA_CON	2	Rpleas_acq	Same	Rpleas	Bmasked	CS_B	1pleas	distractor2	EVAbeforeCON	acq_US_unple_masked	acq1_masked	1	36	0	0	300	300	0	0	615	46	0	1	0	0	0	1	blank2r.bmp	0	1	+	0	4	B4r.bmp	492	1	blank2r.bmp	786	1	GKQX	786	1	blank2r.bmp	866	3	lasch	866	0	0	0	0	0	0	0	0	0	0	0	0	0	0	0	0	0	0	0	0	0	0	0	0	0	0	0	0	0	0	0	0	0
121118	10:31:03	10:34:39	215549	5.0.10.0	4_exp_EVA_AMP_AWA_CON	2	Rpleas_acq	Same	Rpleas	Bmasked	CS_B	1pleas	distractor2	EVAbeforeCON	acq_US_pleas_masked	acq2_masked	2	1	480	0	300	300	0	0	9830	50	0	1	0	0	0	1	blank2r.bmp	0	1	+	0	2	B2r.bmp	492	1	blank2r.bmp	786	1	BMVZ	786	1	blank2r.bmp	866	3	loyal	866	1	!	1319	1	!	-1	0	0	0	0	0	0	0	0	0	0	0	0	0	0	0	0	0	0	0	0	0	0	0	0	0	0	0
121118	10:31:03	10:34:42	218241	5.0.10.0	4_exp_EVA_AMP_AWA_CON	2	Rpleas_acq	Same	Rpleas	Bmasked	CS_B	1pleas	distractor2	EVAbeforeCON	acq_new_unple_masked	acq2_masked	2	2	480	0	300	300	0	0	912	46	0	1	0	0	0	1	blank2r.bmp	0	1	+	0	7	C3r.bmp	492	1	blank2r.bmp	786	2	B2r.bmp	786	1	blank2r.bmp	866	5	schroff	866	1	!	1319	1	!	-1	0	0	0	0	0	0	0	0	0	0	0	0	0	0	0	0	0	0	0	0	0	0	0	0	0	0	0
121118	10:31:03	10:34:44	220893	5.0.10.0	4_exp_EVA_AMP_AWA_CON	2	Rpleas_acq	Same	Rpleas	Bmasked	CS_B	1pleas	distractor2	EVAbeforeCON	acq_new_pleas_masked	acq2_masked	2	3	480	0	300	300	0	0	877	50	0	1	0	0	0	1	blank2r.bmp	0	1	+	0	5	C1r.bmp	492	1	blank2r.bmp	786	1	B1r.bmp	786	1	blank2r.bmp	866	5	schlau	866	1	!	1319	1	!	-1	0	0	0	0	0	0	0	0	0	0	0	0	0	0	0	0	0	0	0	0	0	0	0	0	0	0	0
121118	10:31:03	10:34:47	223359	5.0.10.0	4_exp_EVA_AMP_AWA_CON	2	Rpleas_acq	Same	Rpleas	Bmasked	CS_B	1pleas	distractor2	EVAbeforeCON	acq_new_unple_masked	acq2_masked	2	4	480	0	300	300	0	0	690	46	0	1	0	0	0	1	blank2r.bmp	0	1	+	0	8	C4r.bmp	492	1	blank2r.bmp	786	3	B3r.bmp	786	1	blank2r.bmp	866	1	tyrannisch	866	1	!	1319	1	!	-1	0	0	0	0	0	0	0	0	0	0	0	0	0	0	0	0	0	0	0	0	0	0	0	0	0	0	0
121118	10:31:03	10:34:49	225824	5.0.10.0	4_exp_EVA_AMP_AWA_CON	2	Rpleas_acq	Same	Rpleas	Bmasked	CS_B	1pleas	distractor2	EVAbeforeCON	acq_US_unple_masked	acq2_masked	2	5	480	0	300	300	0	0	689	46	0	1	0	0	0	1	blank2r.bmp	0	1	+	0	5	C1r.bmp	492	1	blank2r.bmp	786	1	GKQX	786	1	blank2r.bmp	866	4	fanatisch	866	1	!	1319	1	!	-1	0	0	0	0	0	0	0	0	0	0	0	0	0	0	0	0	0	0	0	0	0	0	0	0	0	0	0
121118	10:31:03	10:34:51	228170	5.0.10.0	4_exp_EVA_AMP_AWA_CON	2	Rpleas_acq	Same	Rpleas	Bmasked	CS_B	1pleas	distractor2	EVAbeforeCON	acq_US_unple_masked	acq2_masked	2	6	480	0	300	300	0	0	565	46	0	1	0	0	0	1	blank2r.bmp	0	1	+	0	1	B1r.bmp	492	1	blank2r.bmp	786	1	GKQX	786	1	blank2r.bmp	866	5	rächen	866	1	!	1319	1	!	-1	0	0	0	0	0	0	0	0	0	0	0	0	0	0	0	0	0	0	0	0	0	0	0	0	0	0	0
121118	10:31:03	10:34:54	230436	5.0.10.0	4_exp_EVA_AMP_AWA_CON	2	Rpleas_acq	Same	Rpleas	Bmasked	CS_B	1pleas	distractor2	EVAbeforeCON	acq_new_pleas_masked	acq2_masked	2	7	480	1	300	300	0	0	453	50	0	1	0	0	0	1	blank2r.bmp	0	1	+	0	6	C2r.bmp	492	1	blank2r.bmp	786	8	C4r.bmp	786	1	blank2r.bmp	866	2	ehrlich	866	1	!	1319	1	!	1359	0	0	0	0	0	0	0	0	0	0	0	0	0	0	0	0	0	0	0	0	0	0	0	0	0	0	0
121118	10:31:03	10:34:56	232768	5.0.10.0	4_exp_EVA_AMP_AWA_CON	2	Rpleas_acq	Same	Rpleas	Bmasked	CS_B	1pleas	distractor2	EVAbeforeCON	acq_US_pleas_masked	acq2_masked	2	8	480	1	300	300	0	0	538	50	0	1	0	0	0	1	blank2r.bmp	0	1	+	0	4	B4r.bmp	492	1	blank2r.bmp	786	1	BMVZ	786	1	blank2r.bmp	866	2	treu	866	1	!	1319	1	!	1439	0	0	0	0	0	0	0	0	0	0	0	0	0	0	0	0	0	0	0	0	0	0	0	0	0	0	0
121118	10:31:03	10:34:59	235220	5.0.10.0	4_exp_EVA_AMP_AWA_CON	2	Rpleas_acq	Same	Rpleas	Bmasked	CS_B	1pleas	distractor2	EVAbeforeCON	acq_new_pleas_masked	acq2_masked	2	9	480	1	300	300	0	0	450	46	0	0	0	0	0	1	blank2r.bmp	0	1	+	0	7	C3r.bmp	492	1	blank2r.bmp	786	5	C1r.bmp	786	1	blank2r.bmp	866	1	tolerant	866	1	FEHLER	1665	1	!	1319	1	!	1346	0	0	0	0	0	0	0	0	0	0	0	0	0	0	0	0	0	0	0	0	0	0	0	0
121118	10:31:03	10:35:01	237273	5.0.10.0	4_exp_EVA_AMP_AWA_CON	2	Rpleas_acq	Same	Rpleas	Bmasked	CS_B	1pleas	distractor2	EVAbeforeCON	acq_US_unple_masked	acq2_masked	2	10	480	1	300	300	0	0	468	46	0	1	0	0	0	1	blank2r.bmp	0	1	+	0	8	C4r.bmp	492	1	blank2r.bmp	786	1	GKQX	786	1	blank2r.bmp	866	1	schlecht	866	1	!	1319	1	!	1372	0	0	0	0	0	0	0	0	0	0	0	0	0	0	0	0	0	0	0	0	0	0	0	0	0	0	0
121118	10:31:03	10:35:03	239672	5.0.10.0	4_exp_EVA_AMP_AWA_CON	2	Rpleas_acq	Same	Rpleas	Bmasked	CS_B	1pleas	distractor2	EVAbeforeCON	acq_US_pleas_masked	acq2_masked	2	11	480	0	300	300	0	0	410	46	0	0	0	0	0	1	blank2r.bmp	0	1	+	0	2	B2r.bmp	492	1	blank2r.bmp	786	1	BMVZ	786	1	blank2r.bmp	866	4	freundlich	866	1	FEHLER	1612	1	!	-1	1	!	-1	0	0	0	0	0	0	0	0	0	0	0	0	0	0	0	0	0	0	0	0	0	0	0	0
121118	10:31:03	10:35:05	242124	5.0.10.0	4_exp_EVA_AMP_AWA_CON	2	Rpleas_acq	Same	Rpleas	Bmasked	CS_B	1pleas	distractor2	EVAbeforeCON	acq_new_unple_masked	acq2_masked	2	12	480	0	300	300	0	0	666	50	0	0	0	0	0	1	blank2r.bmp	0	1	+	0	3	B3r.bmp	492	1	blank2r.bmp	786	4	B4r.bmp	786	1	blank2r.bmp	866	4	strafen	866	1	FEHLER	1879	1	!	1319	1	!	-1	0	0	0	0	0	0	0	0	0	0	0	0	0	0	0	0	0	0	0	0	0	0	0	0
121118	10:31:03	10:35:08	244390	5.0.10.0	4_exp_EVA_AMP_AWA_CON	2	Rpleas_acq	Same	Rpleas	Bmasked	CS_B	1pleas	distractor2	EVAbeforeCON	acq_US_pleas_masked	acq2_masked	2	13	480	1	300	300	0	0	477	46	0	0	0	0	0	1	blank2r.bmp	0	1	+	0	4	B4r.bmp	492	1	blank2r.bmp	786	1	BMVZ	786	1	blank2r.bmp	866	4	freundlich	866	1	FEHLER	1692	1	!	1319	1	!	1372	0	0	0	0	0	0	0	0	0	0	0	0	0	0	0	0	0	0	0	0	0	0	0	0
121118	10:31:03	10:35:10	246709	5.0.10.0	4_exp_EVA_AMP_AWA_CON	2	Rpleas_acq	Same	Rpleas	Bmasked	CS_B	1pleas	distractor2	EVAbeforeCON	acq_US_pleas_masked	acq2_masked	2	14	480	1	300	300	0	0	518	46	0	0	0	0	0	1	blank2r.bmp	0	1	+	0	1	B1r.bmp	492	1	blank2r.bmp	786	1	BMVZ	786	1	blank2r.bmp	866	3	loyal	866	1	FEHLER	1732	1	!	1319	1	!	1412	0	0	0	0	0	0	0	0	0	0	0	0	0	0	0	0	0	0	0	0	0	0	0	0
121118	10:31:03	10:35:12	248855	5.0.10.0	4_exp_EVA_AMP_AWA_CON	2	Rpleas_acq	Same	Rpleas	Bmasked	CS_B	1pleas	distractor2	EVAbeforeCON	acq_US_unple_masked	acq2_masked	2	15	480	0	300	300	0	0	360	50	0	0	0	0	0	1	blank2r.bmp	0	1	+	0	7	C3r.bmp	492	1	blank2r.bmp	786	1	GKQX	786	1	blank2r.bmp	866	1	schlecht	866	1	FEHLER	1572	1	!	-1	1	!	-1	0	0	0	0	0	0	0	0	0	0	0	0	0	0	0	0	0	0	0	0	0	0	0	0
121118	10:31:03	10:35:14	250934	5.0.10.0	4_exp_EVA_AMP_AWA_CON	2	Rpleas_acq	Same	Rpleas	Bmasked	CS_B	1pleas	distractor2	EVAbeforeCON	acq_US_unple_masked	acq2_masked	2	16	480	1	300	300	0	0	504	46	0	1	0	0	0	1	blank2r.bmp	0	1	+	0	6	C2r.bmp	492	1	blank2r.bmp	786	1	GKQX	786	1	blank2r.bmp	866	5	rächen	866	1	!	1319	1	!	1399	0	0	0	0	0	0	0	0	0	0	0	0	0	0	0	0	0	0	0	0	0	0	0	0	0	0	0
121118	10:31:03	10:35:16	253120	5.0.10.0	4_exp_EVA_AMP_AWA_CON	2	Rpleas_acq	Same	Rpleas	Bmasked	CS_B	1pleas	distractor2	EVAbeforeCON	acq_new_pleas_masked	acq2_masked	2	17	480	0	300	300	0	0	413	50	0	1	0	0	0	1	blank2r.bmp	0	1	+	0	8	C4r.bmp	492	1	blank2r.bmp	786	6	C2r.bmp	786	1	blank2r.bmp	866	3	lachen	866	1	!	-1	1	!	-1	0	0	0	0	0	0	0	0	0	0	0	0	0	0	0	0	0	0	0	0	0	0	0	0	0	0	0
121118	10:31:03	10:35:19	255412	5.0.10.0	4_exp_EVA_AMP_AWA_CON	2	Rpleas_acq	Same	Rpleas	Bmasked	CS_B	1pleas	distractor2	EVAbeforeCON	acq_new_pleas_masked	acq2_masked	2	18	480	1	300	300	0	0	485	50	0	1	0	0	0	1	blank2r.bmp	0	1	+	0	3	B3r.bmp	492	1	blank2r.bmp	786	5	C1r.bmp	786	1	blank2r.bmp	866	4	spielen	866	1	!	1319	1	!	1386	0	0	0	0	0	0	0	0	0	0	0	0	0	0	0	0	0	0	0	0	0	0	0	0	0	0	0
121118	10:31:03	10:35:21	257771	5.0.10.0	4_exp_EVA_AMP_AWA_CON	2	Rpleas_acq	Same	Rpleas	Bmasked	CS_B	1pleas	distractor2	EVAbeforeCON	acq_new_unple_masked	acq2_masked	2	19	480	0	300	300	0	0	587	46	0	1	0	0	0	1	blank2r.bmp	0	1	+	0	2	B2r.bmp	492	1	blank2r.bmp	786	4	B4r.bmp	786	1	blank2r.bmp	866	6	hindern	866	1	!	1319	1	!	-1	0	0	0	0	0	0	0	0	0	0	0	0	0	0	0	0	0	0	0	0	0	0	0	0	0	0	0
121118	10:31:03	10:35:24	260317	5.0.10.0	4_exp_EVA_AMP_AWA_CON	2	Rpleas_acq	Same	Rpleas	Bmasked	CS_B	1pleas	distractor2	EVAbeforeCON	acq_new_unple_masked	acq2_masked	2	20	480	0	300	300	0	0	763	46	0	1	0	0	0	1	blank2r.bmp	0	1	+	0	5	C1r.bmp	492	1	blank2r.bmp	786	2	B2r.bmp	786	1	blank2r.bmp	866	2	eitel	866	1	!	1319	1	!	-1	0	0	0	0	0	0	0	0	0	0	0	0	0	0	0	0	0	0	0	0	0	0	0	0	0	0	0
121118	10:31:03	10:35:26	262636	5.0.10.0	4_exp_EVA_AMP_AWA_CON	2	Rpleas_acq	Same	Rpleas	Bmasked	CS_B	1pleas	distractor2	EVAbeforeCON	acq_new_unple_masked	acq2_masked	2	21	480	1	300	300	0	0	509	46	0	1	0	0	0	1	blank2r.bmp	0	1	+	0	5	C1r.bmp	492	1	blank2r.bmp	786	3	B3r.bmp	786	1	blank2r.bmp	866	3	leiden	866	1	!	1319	1	!	1412	0	0	0	0	0	0	0	0	0	0	0	0	0	0	0	0	0	0	0	0	0	0	0	0	0	0	0
121118	10:31:03	10:35:28	264995	5.0.10.0	4_exp_EVA_AMP_AWA_CON	2	Rpleas_acq	Same	Rpleas	Bmasked	CS_B	1pleas	distractor2	EVAbeforeCON	acq_US_pleas_masked	acq2_masked	2	22	480	0	300	300	0	0	589	50	0	1	0	0	0	1	blank2r.bmp	0	1	+	0	6	C2r.bmp	492	1	blank2r.bmp	786	1	BMVZ	786	1	blank2r.bmp	866	1	schön	866	1	!	1319	1	!	-1	0	0	0	0	0	0	0	0	0	0	0	0	0	0	0	0	0	0	0	0	0	0	0	0	0	0	0
121118	10:31:03	10:35:31	267340	5.0.10.0	4_exp_EVA_AMP_AWA_CON	2	Rpleas_acq	Same	Rpleas	Bmasked	CS_B	1pleas	distractor2	EVAbeforeCON	acq_US_unple_masked	acq2_masked	2	23	480	1	300	300	0	0	545	46	0	1	0	0	0	1	blank2r.bmp	0	1	+	0	1	B1r.bmp	492	1	blank2r.bmp	786	1	GKQX	786	1	blank2r.bmp	866	4	fanatisch	866	1	!	1319	1	!	1439	0	0	0	0	0	0	0	0	0	0	0	0	0	0	0	0	0	0	0	0	0	0	0	0	0	0	0
121118	10:31:03	10:35:33	269726	5.0.10.0	4_exp_EVA_AMP_AWA_CON	2	Rpleas_acq	Same	Rpleas	Bmasked	CS_B	1pleas	distractor2	EVAbeforeCON	acq_new_pleas_masked	acq2_masked	2	24	480	0	300	300	0	0	610	50	0	1	0	0	0	1	blank2r.bmp	0	1	+	0	2	B2r.bmp	492	1	blank2r.bmp	786	1	B1r.bmp	786	1	blank2r.bmp	866	6	helfen	866	1	!	1319	1	!	-1	0	0	0	0	0	0	0	0	0	0	0	0	0	0	0	0	0	0	0	0	0	0	0	0	0	0	0
121118	10:31:03	10:35:35	272125	5.0.10.0	4_exp_EVA_AMP_AWA_CON	2	Rpleas_acq	Same	Rpleas	Bmasked	CS_B	1pleas	distractor2	EVAbeforeCON	acq_new_pleas_masked	acq2_masked	2	25	480	0	300	300	0	0	386	46	0	0	0	0	0	1	blank2r.bmp	0	1	+	0	8	C4r.bmp	492	1	blank2r.bmp	786	7	C3r.bmp	786	1	blank2r.bmp	866	1	tolerant	866	1	FEHLER	1599	1	!	-1	1	!	-1	0	0	0	0	0	0	0	0	0	0	0	0	0	0	0	0	0	0	0	0	0	0	0	0
121118	10:31:03	10:35:38	274511	5.0.10.0	4_exp_EVA_AMP_AWA_CON	2	Rpleas_acq	Same	Rpleas	Bmasked	CS_B	1pleas	distractor2	EVAbeforeCON	acq_new_unple_masked	acq2_masked	2	26	480	0	300	300	0	0	822	46	0	1	0	0	0	1	blank2r.bmp	0	1	+	0	3	B3r.bmp	492	1	blank2r.bmp	786	8	C4r.bmp	786	1	blank2r.bmp	866	4	strafen	866	1	!	1319	1	!	-1	0	0	0	0	0	0	0	0	0	0	0	0	0	0	0	0	0	0	0	0	0	0	0	0	0	0	0
121118	10:31:03	10:35:40	276790	5.0.10.0	4_exp_EVA_AMP_AWA_CON	2	Rpleas_acq	Same	Rpleas	Bmasked	CS_B	1pleas	distractor2	EVAbeforeCON	acq_US_pleas_masked	acq2_masked	2	27	480	1	300	300	0	0	466	50	0	1	0	0	0	1	blank2r.bmp	0	1	+	0	4	B4r.bmp	492	1	blank2r.bmp	786	1	BMVZ	786	1	blank2r.bmp	866	2	treu	866	1	!	1319	1	!	1372	0	0	0	0	0	0	0	0	0	0	0	0	0	0	0	0	0	0	0	0	0	0	0	0	0	0	0
121118	10:31:03	10:35:42	279162	5.0.10.0	4_exp_EVA_AMP_AWA_CON	2	Rpleas_acq	Same	Rpleas	Bmasked	CS_B	1pleas	distractor2	EVAbeforeCON	acq_US_pleas_masked	acq2_masked	2	28	480	0	300	300	0	0	604	50	0	1	0	0	0	1	blank2r.bmp	0	1	+	0	7	C3r.bmp	492	1	blank2r.bmp	786	1	BMVZ	786	1	blank2r.bmp	866	6	fair	866	1	!	1319	1	!	-1	0	0	0	0	0	0	0	0	0	0	0	0	0	0	0	0	0	0	0	0	0	0	0	0	0	0	0
121118	10:31:03	10:35:45	281428	5.0.10.0	4_exp_EVA_AMP_AWA_CON	2	Rpleas_acq	Same	Rpleas	Bmasked	CS_B	1pleas	distractor2	EVAbeforeCON	acq_new_unple_masked	acq2_masked	2	29	480	1	300	300	0	0	453	46	0	1	0	0	0	1	blank2r.bmp	0	1	+	0	1	B1r.bmp	492	1	blank2r.bmp	786	7	C3r.bmp	786	1	blank2r.bmp	866	5	schroff	866	1	!	1319	1	!	1359	0	0	0	0	0	0	0	0	0	0	0	0	0	0	0	0	0	0	0	0	0	0	0	0	0	0	0
121118	10:31:03	10:35:47	283693	5.0.10.0	4_exp_EVA_AMP_AWA_CON	2	Rpleas_acq	Same	Rpleas	Bmasked	CS_B	1pleas	distractor2	EVAbeforeCON	acq_US_unple_masked	acq2_masked	2	30	480	1	300	300	0	0	464	46	0	1	0	0	0	1	blank2r.bmp	0	1	+	0	5	C1r.bmp	492	1	blank2r.bmp	786	1	GKQX	786	1	blank2r.bmp	866	3	lasch	866	1	!	1319	1	!	1359	0	0	0	0	0	0	0	0	0	0	0	0	0	0	0	0	0	0	0	0	0	0	0	0	0	0	0
121118	10:31:03	10:35:49	286079	5.0.10.0	4_exp_EVA_AMP_AWA_CON	2	Rpleas_acq	Same	Rpleas	Bmasked	CS_B	1pleas	distractor2	EVAbeforeCON	acq_US_pleas_masked	acq2_masked	2	31	480	0	300	300	0	0	395	46	0	0	0	0	0	1	blank2r.bmp	0	1	+	0	8	C4r.bmp	492	1	blank2r.bmp	786	1	BMVZ	786	1	blank2r.bmp	866	5	retten	866	1	FEHLER	1599	1	!	-1	1	!	-1	0	0	0	0	0	0	0	0	0	0	0	0	0	0	0	0	0	0	0	0	0	0	0	0
121118	10:31:03	10:35:51	288172	5.0.10.0	4_exp_EVA_AMP_AWA_CON	2	Rpleas_acq	Same	Rpleas	Bmasked	CS_B	1pleas	distractor2	EVAbeforeCON	acq_new_pleas_masked	acq2_masked	2	32	480	1	300	300	0	0	509	50	0	1	0	0	0	1	blank2r.bmp	0	1	+	0	4	B4r.bmp	492	1	blank2r.bmp	786	1	B1r.bmp	786	1	blank2r.bmp	866	5	schlau	866	1	!	1319	1	!	1412	0	0	0	0	0	0	0	0	0	0	0	0	0	0	0	0	0	0	0	0	0	0	0	0	0	0	0
121118	10:31:03	10:35:54	290850	5.0.10.0	4_exp_EVA_AMP_AWA_CON	2	Rpleas_acq	Same	Rpleas	Bmasked	CS_B	1pleas	distractor2	EVAbeforeCON	acq_new_unple_masked	acq2_masked	2	33	480	0	300	300	0	0	690	50	0	0	0	0	0	1	blank2r.bmp	0	1	+	0	6	C2r.bmp	492	1	blank2r.bmp	786	5	C1r.bmp	786	1	blank2r.bmp	866	1	tyrannisch	866	1	FEHLER	1892	1	!	1319	1	!	-1	0	0	0	0	0	0	0	0	0	0	0	0	0	0	0	0	0	0	0	0	0	0	0	0
121118	10:31:03	10:35:57	293236	5.0.10.0	4_exp_EVA_AMP_AWA_CON	2	Rpleas_acq	Same	Rpleas	Bmasked	CS_B	1pleas	distractor2	EVAbeforeCON	acq_US_unple_masked	acq2_masked	2	34	480	0	300	300	0	0	604	50	0	0	0	0	0	1	blank2r.bmp	0	1	+	0	3	B3r.bmp	492	1	blank2r.bmp	786	1	GKQX	786	1	blank2r.bmp	866	2	tot	866	1	FEHLER	1812	1	!	1319	1	!	-1	0	0	0	0	0	0	0	0	0	0	0	0	0	0	0	0	0	0	0	0	0	0	0	0
121118	10:31:03	10:35:59	295382	5.0.10.0	4_exp_EVA_AMP_AWA_CON	2	Rpleas_acq	Same	Rpleas	Bmasked	CS_B	1pleas	distractor2	EVAbeforeCON	acq_new_pleas_masked	acq2_masked	2	35	480	0	300	300	0	0	366	46	0	0	0	0	0	1	blank2r.bmp	0	1	+	0	7	C3r.bmp	492	1	blank2r.bmp	786	4	B4r.bmp	786	1	blank2r.bmp	866	2	ehrlich	866	1	FEHLER	1572	1	!	-1	1	!	-1	0	0	0	0	0	0	0	0	0	0	0	0	0	0	0	0	0	0	0	0	0	0	0	0
121118	10:31:03	10:36:01	297461	5.0.10.0	4_exp_EVA_AMP_AWA_CON	2	Rpleas_acq	Same	Rpleas	Bmasked	CS_B	1pleas	distractor2	EVAbeforeCON	acq_US_unple_masked	acq2_masked	2	36	480	1	300	300	0	0	504	46	0	1	0	0	0	1	blank2r.bmp	0	1	+	0	2	B2r.bmp	492	1	blank2r.bmp	786	1	GKQX	786	1	blank2r.bmp	866	6	faul	866	1	!	1319	1	!	1399	0	0	0	0	0	0	0	0	0	0	0	0	0	0	0	0	0	0	0	0	0	0	0	0	0	0	0
121118	10:31:03	10:36:20	316586	5.0.10.0	4_exp_EVA_AMP_AWA_CON	2	Rpleas_acq	Same	Rpleas	Bmasked	CS_B	1pleas	distractor2	EVAbeforeCON	acq_US_pleas_masked	acq3_masked	3	1	453	0	300	300	0	0	575	50	0	1	0	0	0	1	blank2r.bmp	0	1	+	0	4	B4r.bmp	492	1	blank2r.bmp	786	1	BMVZ	786	1	blank2r.bmp	866	3	loyal	866	1	!	1292	1	!	-1	0	0	0	0	0	0	0	0	0	0	0	0	0	0	0	0	0	0	0	0	0	0	0	0	0	0	0
121118	10:31:03	10:36:22	318905	5.0.10.0	4_exp_EVA_AMP_AWA_CON	2	Rpleas_acq	Same	Rpleas	Bmasked	CS_B	1pleas	distractor2	EVAbeforeCON	acq_US_unple_masked	acq3_masked	3	2	453	0	300	300	0	0	540	46	0	1	0	0	0	1	blank2r.bmp	0	1	+	0	5	C1r.bmp	492	1	blank2r.bmp	786	1	GKQX	786	1	blank2r.bmp	866	2	tot	866	1	!	1292	1	!	-1	0	0	0	0	0	0	0	0	0	0	0	0	0	0	0	0	0	0	0	0	0	0	0	0	0	0	0
121118	10:31:03	10:36:24	321158	5.0.10.0	4_exp_EVA_AMP_AWA_CON	2	Rpleas_acq	Same	Rpleas	Bmasked	CS_B	1pleas	distractor2	EVAbeforeCON	acq_US_pleas_masked	acq3_masked	3	3	453	1	300	300	0	0	441	50	0	1	0	0	0	1	blank2r.bmp	0	1	+	0	1	B1r.bmp	492	1	blank2r.bmp	786	1	BMVZ	786	1	blank2r.bmp	866	4	freundlich	866	1	!	1292	1	!	1346	0	0	0	0	0	0	0	0	0	0	0	0	0	0	0	0	0	0	0	0	0	0	0	0	0	0	0
121118	10:31:03	10:36:27	323290	5.0.10.0	4_exp_EVA_AMP_AWA_CON	2	Rpleas_acq	Same	Rpleas	Bmasked	CS_B	1pleas	distractor2	EVAbeforeCON	acq_US_unple_masked	acq3_masked	3	4	453	0	300	300	0	0	364	46	0	1	0	0	0	1	blank2r.bmp	0	1	+	0	3	B3r.bmp	492	1	blank2r.bmp	786	1	GKQX	786	1	blank2r.bmp	866	1	schlecht	866	1	!	-1	1	!	-1	0	0	0	0	0	0	0	0	0	0	0	0	0	0	0	0	0	0	0	0	0	0	0	0	0	0	0
121118	10:31:03	10:36:29	325582	5.0.10.0	4_exp_EVA_AMP_AWA_CON	2	Rpleas_acq	Same	Rpleas	Bmasked	CS_B	1pleas	distractor2	EVAbeforeCON	acq_US_pleas_masked	acq3_masked	3	5	453	1	300	300	0	0	482	50	0	1	0	0	0	1	blank2r.bmp	0	1	+	0	6	C2r.bmp	492	1	blank2r.bmp	786	1	BMVZ	786	1	blank2r.bmp	866	1	schön	866	1	!	1292	1	!	1386	0	0	0	0	0	0	0	0	0	0	0	0	0	0	0	0	0	0	0	0	0	0	0	0	0	0	0
121118	10:31:03	10:36:31	327822	5.0.10.0	4_exp_EVA_AMP_AWA_CON	2	Rpleas_acq	Same	Rpleas	Bmasked	CS_B	1pleas	distractor2	EVAbeforeCON	acq_US_unple_masked	acq3_masked	3	6	453	1	300	300	0	0	450	46	0	1	0	0	0	1	blank2r.bmp	0	1	+	0	7	C3r.bmp	492	1	blank2r.bmp	786	1	GKQX	786	1	blank2r.bmp	866	6	faul	866	1	!	1292	1	!	1346	0	0	0	0	0	0	0	0	0	0	0	0	0	0	0	0	0	0	0	0	0	0	0	0	0	0	0
121118	10:31:03	10:36:34	330301	5.0.10.0	4_exp_EVA_AMP_AWA_CON	2	Rpleas_acq	Same	Rpleas	Bmasked	CS_B	1pleas	distractor2	EVAbeforeCON	acq_US_unple_masked	acq3_masked	3	7	453	1	300	300	0	0	463	50	0	0	0	0	0	1	blank2r.bmp	0	1	+	0	8	C4r.bmp	492	1	blank2r.bmp	786	1	GKQX	786	1	blank2r.bmp	866	5	rächen	866	1	FEHLER	1679	1	!	1292	1	!	1359	0	0	0	0	0	0	0	0	0	0	0	0	0	0	0	0	0	0	0	0	0	0	0	0
121118	10:31:03	10:36:36	332393	5.0.10.0	4_exp_EVA_AMP_AWA_CON	2	Rpleas_acq	Same	Rpleas	Bmasked	CS_B	1pleas	distractor2	EVAbeforeCON	acq_US_unple_masked	acq3_masked	3	8	453	0	300	300	0	0	536	46	0	1	0	0	0	1	blank2r.bmp	0	1	+	0	2	B2r.bmp	492	1	blank2r.bmp	786	1	GKQX	786	1	blank2r.bmp	866	3	lasch	866	1	!	1292	1	!	-1	0	0	0	0	0	0	0	0	0	0	0	0	0	0	0	0	0	0	0	0	0	0	0	0	0	0	0
121118	10:31:03	10:36:38	334699	5.0.10.0	4_exp_EVA_AMP_AWA_CON	2	Rpleas_acq	Same	Rpleas	Bmasked	CS_B	1pleas	distractor2	EVAbeforeCON	acq_US_unple_masked	acq3_masked	3	9	453	1	300	300	0	0	494	46	0	1	0	0	0	1	blank2r.bmp	0	1	+	0	4	B4r.bmp	492	1	blank2r.bmp	786	1	GKQX	786	1	blank2r.bmp	866	4	fanatisch	866	1	!	1292	1	!	1399	0	0	0	0	0	0	0	0	0	0	0	0	0	0	0	0	0	0	0	0	0	0	0	0	0	0	0
121118	10:31:03	10:36:40	336898	5.0.10.0	4_exp_EVA_AMP_AWA_CON	2	Rpleas_acq	Same	Rpleas	Bmasked	CS_B	1pleas	distractor2	EVAbeforeCON	acq_US_pleas_masked	acq3_masked	3	10	453	1	300	300	0	0	399	50	0	1	0	0	0	1	blank2r.bmp	0	1	+	0	2	B2r.bmp	492	1	blank2r.bmp	786	1	BMVZ	786	1	blank2r.bmp	866	6	fair	866	1	!	1292	1	!	1306	0	0	0	0	0	0	0	0	0	0	0	0	0	0	0	0	0	0	0	0	0	0	0	0	0	0	0
121118	10:31:03	10:36:42	339097	5.0.10.0	4_exp_EVA_AMP_AWA_CON	2	Rpleas_acq	Same	Rpleas	Bmasked	CS_B	1pleas	distractor2	EVAbeforeCON	acq_US_pleas_masked	acq3_masked	3	11	453	1	300	300	0	0	400	50	0	1	0	0	0	1	blank2r.bmp	0	1	+	0	6	C2r.bmp	492	1	blank2r.bmp	786	1	BMVZ	786	1	blank2r.bmp	866	2	treu	866	1	!	1292	1	!	1306	0	0	0	0	0	0	0	0	0	0	0	0	0	0	0	0	0	0	0	0	0	0	0	0	0	0	0
121118	10:31:03	10:36:45	341323	5.0.10.0	4_exp_EVA_AMP_AWA_CON	2	Rpleas_acq	Same	Rpleas	Bmasked	CS_B	1pleas	distractor2	EVAbeforeCON	acq_US_pleas_masked	acq3_masked	3	12	453	1	300	300	0	0	434	50	0	1	0	0	0	1	blank2r.bmp	0	1	+	0	1	B1r.bmp	492	1	blank2r.bmp	786	1	BMVZ	786	1	blank2r.bmp	866	5	retten	866	1	!	1292	1	!	1332	0	0	0	0	0	0	0	0	0	0	0	0	0	0	0	0	0	0	0	0	0	0	0	0	0	0	0
121118	10:31:03	10:36:47	343375	5.0.10.0	4_exp_EVA_AMP_AWA_CON	2	Rpleas_acq	Same	Rpleas	Bmasked	CS_B	1pleas	distractor2	EVAbeforeCON	acq_US_pleas_masked	acq3_masked	3	13	453	0	300	300	0	0	282	50	0	1	0	0	0	1	blank2r.bmp	0	1	+	0	8	C4r.bmp	492	1	blank2r.bmp	786	1	BMVZ	786	1	blank2r.bmp	866	5	retten	866	1	!	-1	1	!	-1	0	0	0	0	0	0	0	0	0	0	0	0	0	0	0	0	0	0	0	0	0	0	0	0	0	0	0
121118	10:31:03	10:36:49	345507	5.0.10.0	4_exp_EVA_AMP_AWA_CON	2	Rpleas_acq	Same	Rpleas	Bmasked	CS_B	1pleas	distractor2	EVAbeforeCON	acq_US_unple_masked	acq3_masked	3	14	453	0	300	300	0	0	354	46	0	1	0	0	0	1	blank2r.bmp	0	1	+	0	7	C3r.bmp	492	1	blank2r.bmp	786	1	GKQX	786	1	blank2r.bmp	866	6	faul	866	1	!	-1	1	!	-1	0	0	0	0	0	0	0	0	0	0	0	0	0	0	0	0	0	0	0	0	0	0	0	0	0	0	0
121118	10:31:03	10:36:51	347733	5.0.10.0	4_exp_EVA_AMP_AWA_CON	2	Rpleas_acq	Same	Rpleas	Bmasked	CS_B	1pleas	distractor2	EVAbeforeCON	acq_US_pleas_masked	acq3_masked	3	15	453	1	300	300	0	0	418	50	0	1	0	0	0	1	blank2r.bmp	0	1	+	0	3	B3r.bmp	492	1	blank2r.bmp	786	1	BMVZ	786	1	blank2r.bmp	866	2	treu	866	1	!	1292	1	!	1319	0	0	0	0	0	0	0	0	0	0	0	0	0	0	0	0	0	0	0	0	0	0	0	0	0	0	0
121118	10:31:03	10:36:53	350039	5.0.10.0	4_exp_EVA_AMP_AWA_CON	2	Rpleas_acq	Same	Rpleas	Bmasked	CS_B	1pleas	distractor2	EVAbeforeCON	acq_US_pleas_masked	acq3_masked	3	16	453	0	300	300	0	0	532	50	0	1	0	0	0	1	blank2r.bmp	0	1	+	0	5	C1r.bmp	492	1	blank2r.bmp	786	1	BMVZ	786	1	blank2r.bmp	866	3	loyal	866	1	!	1292	1	!	-1	0	0	0	0	0	0	0	0	0	0	0	0	0	0	0	0	0	0	0	0	0	0	0	0	0	0	0
121118	10:31:03	10:36:55	352171	5.0.10.0	4_exp_EVA_AMP_AWA_CON	2	Rpleas_acq	Same	Rpleas	Bmasked	CS_B	1pleas	distractor2	EVAbeforeCON	acq_US_pleas_masked	acq3_masked	3	17	453	0	300	300	0	0	334	50	0	1	0	0	0	1	blank2r.bmp	0	1	+	0	6	C2r.bmp	492	1	blank2r.bmp	786	1	BMVZ	786	1	blank2r.bmp	866	6	fair	866	1	!	-1	1	!	-1	0	0	0	0	0	0	0	0	0	0	0	0	0	0	0	0	0	0	0	0	0	0	0	0	0	0	0
121118	10:31:03	10:36:58	354237	5.0.10.0	4_exp_EVA_AMP_AWA_CON	2	Rpleas_acq	Same	Rpleas	Bmasked	CS_B	1pleas	distractor2	EVAbeforeCON	acq_US_unple_masked	acq3_masked	3	18	453	0	300	300	0	0	290	46	0	1	0	0	0	1	blank2r.bmp	0	1	+	0	2	B2r.bmp	492	1	blank2r.bmp	786	1	GKQX	786	1	blank2r.bmp	866	2	tot	866	1	!	-1	1	!	-1	0	0	0	0	0	0	0	0	0	0	0	0	0	0	0	0	0	0	0	0	0	0	0	0	0	0	0
121118	10:31:03	10:37:00	356450	5.0.10.0	4_exp_EVA_AMP_AWA_CON	2	Rpleas_acq	Same	Rpleas	Bmasked	CS_B	1pleas	distractor2	EVAbeforeCON	acq_US_unple_masked	acq3_masked	3	19	453	1	300	300	0	0	399	46	0	1	0	0	0	1	blank2r.bmp	0	1	+	0	8	C4r.bmp	492	1	blank2r.bmp	786	1	GKQX	786	1	blank2r.bmp	866	3	lasch	866	1	!	1292	1	!	1306	0	0	0	0	0	0	0	0	0	0	0	0	0	0	0	0	0	0	0	0	0	0	0	0	0	0	0
121118	10:31:03	10:37:02	358702	5.0.10.0	4_exp_EVA_AMP_AWA_CON	2	Rpleas_acq	Same	Rpleas	Bmasked	CS_B	1pleas	distractor2	EVAbeforeCON	acq_US_unple_masked	acq3_masked	3	20	453	1	300	300	0	0	442	46	0	1	0	0	0	1	blank2r.bmp	0	1	+	0	7	C3r.bmp	492	1	blank2r.bmp	786	1	GKQX	786	1	blank2r.bmp	866	4	fanatisch	866	1	!	1292	1	!	1346	0	0	0	0	0	0	0	0	0	0	0	0	0	0	0	0	0	0	0	0	0	0	0	0	0	0	0
121118	10:31:03	10:37:04	360981	5.0.10.0	4_exp_EVA_AMP_AWA_CON	2	Rpleas_acq	Same	Rpleas	Bmasked	CS_B	1pleas	distractor2	EVAbeforeCON	acq_US_pleas_masked	acq3_masked	3	21	453	1	300	300	0	0	482	50	0	1	0	0	0	1	blank2r.bmp	0	1	+	0	1	B1r.bmp	492	1	blank2r.bmp	786	1	BMVZ	786	1	blank2r.bmp	866	4	freundlich	866	1	!	1292	1	!	1386	0	0	0	0	0	0	0	0	0	0	0	0	0	0	0	0	0	0	0	0	0	0	0	0	0	0	0
121118	10:31:03	10:37:07	363273	5.0.10.0	4_exp_EVA_AMP_AWA_CON	2	Rpleas_acq	Same	Rpleas	Bmasked	CS_B	1pleas	distractor2	EVAbeforeCON	acq_US_unple_masked	acq3_masked	3	22	453	1	300	300	0	0	492	46	0	1	0	0	0	1	blank2r.bmp	0	1	+	0	4	B4r.bmp	492	1	blank2r.bmp	786	1	GKQX	786	1	blank2r.bmp	866	5	rächen	866	1	!	1292	1	!	1399	0	0	0	0	0	0	0	0	0	0	0	0	0	0	0	0	0	0	0	0	0	0	0	0	0	0	0
121118	10:31:03	10:37:09	365472	5.0.10.0	4_exp_EVA_AMP_AWA_CON	2	Rpleas_acq	Same	Rpleas	Bmasked	CS_B	1pleas	distractor2	EVAbeforeCON	acq_US_pleas_masked	acq3_masked	3	23	453	1	300	300	0	0	399	50	0	1	0	0	0	1	blank2r.bmp	0	1	+	0	5	C1r.bmp	492	1	blank2r.bmp	786	1	BMVZ	786	1	blank2r.bmp	866	1	schön	866	1	!	1292	1	!	1306	0	0	0	0	0	0	0	0	0	0	0	0	0	0	0	0	0	0	0	0	0	0	0	0	0	0	0
121118	10:31:03	10:37:11	367685	5.0.10.0	4_exp_EVA_AMP_AWA_CON	2	Rpleas_acq	Same	Rpleas	Bmasked	CS_B	1pleas	distractor2	EVAbeforeCON	acq_US_unple_masked	acq3_masked	3	24	453	1	300	300	0	0	417	46	0	1	0	0	0	1	blank2r.bmp	0	1	+	0	3	B3r.bmp	492	1	blank2r.bmp	786	1	GKQX	786	1	blank2r.bmp	866	1	schlecht	866	1	!	1292	1	!	1319	0	0	0	0	0	0	0	0	0	0	0	0	0	0	0	0	0	0	0	0	0	0	0	0	0	0	0
121118	10:31:03	10:37:13	370031	5.0.10.0	4_exp_EVA_AMP_AWA_CON	2	Rpleas_acq	Same	Rpleas	Bmasked	CS_B	1pleas	distractor2	EVAbeforeCON	acq_US_unple_masked	acq3_masked	3	25	453	0	300	300	0	0	585	46	0	1	0	0	0	1	blank2r.bmp	0	1	+	0	5	C1r.bmp	492	1	blank2r.bmp	786	1	GKQX	786	1	blank2r.bmp	866	5	rächen	866	1	!	1292	1	!	-1	0	0	0	0	0	0	0	0	0	0	0	0	0	0	0	0	0	0	0	0	0	0	0	0	0	0	0
121118	10:31:03	10:37:16	372270	5.0.10.0	4_exp_EVA_AMP_AWA_CON	2	Rpleas_acq	Same	Rpleas	Bmasked	CS_B	1pleas	distractor2	EVAbeforeCON	acq_US_pleas_masked	acq3_masked	3	26	453	1	300	300	0	0	435	50	0	1	0	0	0	1	blank2r.bmp	0	1	+	0	6	C2r.bmp	492	1	blank2r.bmp	786	1	BMVZ	786	1	blank2r.bmp	866	2	treu	866	1	!	1292	1	!	1332	0	0	0	0	0	0	0	0	0	0	0	0	0	0	0	0	0	0	0	0	0	0	0	0	0	0	0
121118	10:31:03	10:37:18	374549	5.0.10.0	4_exp_EVA_AMP_AWA_CON	2	Rpleas_acq	Same	Rpleas	Bmasked	CS_B	1pleas	distractor2	EVAbeforeCON	acq_US_pleas_masked	acq3_masked	3	27	453	1	300	300	0	0	486	50	0	1	0	0	0	1	blank2r.bmp	0	1	+	0	8	C4r.bmp	492	1	blank2r.bmp	786	1	BMVZ	786	1	blank2r.bmp	866	1	schön	866	1	!	1292	1	!	1386	0	0	0	0	0	0	0	0	0	0	0	0	0	0	0	0	0	0	0	0	0	0	0	0	0	0	0
121118	10:31:03	10:37:20	376801	5.0.10.0	4_exp_EVA_AMP_AWA_CON	2	Rpleas_acq	Same	Rpleas	Bmasked	CS_B	1pleas	distractor2	EVAbeforeCON	acq_US_unple_masked	acq3_masked	3	28	453	1	300	300	0	0	459	46	0	1	0	0	0	1	blank2r.bmp	0	1	+	0	4	B4r.bmp	492	1	blank2r.bmp	786	1	GKQX	786	1	blank2r.bmp	866	1	schlecht	866	1	!	1292	1	!	1359	0	0	0	0	0	0	0	0	0	0	0	0	0	0	0	0	0	0	0	0	0	0	0	0	0	0	0
121118	10:31:03	10:37:23	379227	5.0.10.0	4_exp_EVA_AMP_AWA_CON	2	Rpleas_acq	Same	Rpleas	Bmasked	CS_B	1pleas	distractor2	EVAbeforeCON	acq_US_pleas_masked	acq3_masked	3	29	453	1	300	300	0	0	413	46	0	0	0	0	0	1	blank2r.bmp	0	1	+	0	1	B1r.bmp	492	1	blank2r.bmp	786	1	BMVZ	786	1	blank2r.bmp	866	3	loyal	866	1	FEHLER	1639	1	!	1292	1	!	1319	0	0	0	0	0	0	0	0	0	0	0	0	0	0	0	0	0	0	0	0	0	0	0	0
121118	10:31:03	10:37:25	381252	5.0.10.0	4_exp_EVA_AMP_AWA_CON	2	Rpleas_acq	Same	Rpleas	Bmasked	CS_B	1pleas	distractor2	EVAbeforeCON	acq_US_pleas_masked	acq3_masked	3	30	453	1	300	300	0	0	449	50	0	1	0	0	0	1	blank2r.bmp	0	1	+	0	7	C3r.bmp	492	1	blank2r.bmp	786	1	BMVZ	786	1	blank2r.bmp	866	5	retten	866	1	!	1292	1	!	1346	0	0	0	0	0	0	0	0	0	0	0	0	0	0	0	0	0	0	0	0	0	0	0	0	0	0	0
121118	10:31:03	10:37:27	383571	5.0.10.0	4_exp_EVA_AMP_AWA_CON	2	Rpleas_acq	Same	Rpleas	Bmasked	CS_B	1pleas	distractor2	EVAbeforeCON	acq_US_unple_masked	acq3_masked	3	31	453	0	300	300	0	0	537	46	0	1	0	0	0	1	blank2r.bmp	0	1	+	0	2	B2r.bmp	492	1	blank2r.bmp	786	1	GKQX	786	1	blank2r.bmp	866	4	fanatisch	866	1	!	1292	1	!	-1	0	0	0	0	0	0	0	0	0	0	0	0	0	0	0	0	0	0	0	0	0	0	0	0	0	0	0
121118	10:31:03	10:37:29	385811	5.0.10.0	4_exp_EVA_AMP_AWA_CON	2	Rpleas_acq	Same	Rpleas	Bmasked	CS_B	1pleas	distractor2	EVAbeforeCON	acq_US_unple_masked	acq3_masked	3	32	453	1	300	300	0	0	437	46	0	1	0	0	0	1	blank2r.bmp	0	1	+	0	3	B3r.bmp	492	1	blank2r.bmp	786	1	GKQX	786	1	blank2r.bmp	866	3	lasch	866	1	!	1292	1	!	1332	0	0	0	0	0	0	0	0	0	0	0	0	0	0	0	0	0	0	0	0	0	0	0	0	0	0	0
121118	10:31:03	10:37:31	388036	5.0.10.0	4_exp_EVA_AMP_AWA_CON	2	Rpleas_acq	Same	Rpleas	Bmasked	CS_B	1pleas	distractor2	EVAbeforeCON	acq_US_unple_masked	acq3_masked	3	33	453	1	300	300	0	0	434	46	0	1	0	0	0	1	blank2r.bmp	0	1	+	0	3	B3r.bmp	492	1	blank2r.bmp	786	1	GKQX	786	1	blank2r.bmp	866	2	tot	866	1	!	1292	1	!	1332	0	0	0	0	0	0	0	0	0	0	0	0	0	0	0	0	0	0	0	0	0	0	0	0	0	0	0
121118	10:31:03	10:37:34	390369	5.0.10.0	4_exp_EVA_AMP_AWA_CON	2	Rpleas_acq	Same	Rpleas	Bmasked	CS_B	1pleas	distractor2	EVAbeforeCON	acq_US_unple_masked	acq3_masked	3	34	453	0	300	300	0	0	565	46	0	1	0	0	0	1	blank2r.bmp	0	1	+	0	5	C1r.bmp	492	1	blank2r.bmp	786	1	GKQX	786	1	blank2r.bmp	866	6	faul	866	1	!	1292	1	!	-1	0	0	0	0	0	0	0	0	0	0	0	0	0	0	0	0	0	0	0	0	0	0	0	0	0	0	0
121118	10:31:03	10:37:36	392488	5.0.10.0	4_exp_EVA_AMP_AWA_CON	2	Rpleas_acq	Same	Rpleas	Bmasked	CS_B	1pleas	distractor2	EVAbeforeCON	acq_US_pleas_masked	acq3_masked	3	35	453	0	300	300	0	0	337	50	0	1	0	0	0	1	blank2r.bmp	0	1	+	0	2	B2r.bmp	492	1	blank2r.bmp	786	1	BMVZ	786	1	blank2r.bmp	866	6	fair	866	1	!	-1	1	!	-1	0	0	0	0	0	0	0	0	0	0	0	0	0	0	0	0	0	0	0	0	0	0	0	0	0	0	0
121118	10:31:03	10:37:38	394620	5.0.10.0	4_exp_EVA_AMP_AWA_CON	2	Rpleas_acq	Same	Rpleas	Bmasked	CS_B	1pleas	distractor2	EVAbeforeCON	acq_US_pleas_masked	acq3_masked	3	36	453	0	300	300	0	0	348	50	0	1	0	0	0	1	blank2r.bmp	0	1	+	0	1	B1r.bmp	492	1	blank2r.bmp	786	1	BMVZ	786	1	blank2r.bmp	866	4	freundlich	866	1	!	-1	1	!	-1	0	0	0	0	0	0	0	0	0	0	0	0	0	0	0	0	0	0	0	0	0	0	0	0	0	0	0
121118	10:31:03	10:37:55	411426	5.0.10.0	4_exp_EVA_AMP_AWA_CON	2	Rpleas_acq	Same	Rpleas	Bmasked	CS_B	1pleas	distractor2	EVAbeforeCON	acq_US_unple_masked	acq45_masked	4	1	400	0	300	300	0	0	693	46	0	1	0	0	0	1	blank2r.bmp	0	1	+	0	8	C4r.bmp	492	1	blank2r.bmp	786	1	GKQX	786	1	blank2r.bmp	866	4	fanatisch	866	1	!	1239	1	!	-1	0	0	0	0	0	0	0	0	0	0	0	0	0	0	0	0	0	0	0	0	0	0	0	0	0	0	0
121118	10:31:03	10:37:57	413626	5.0.10.0	4_exp_EVA_AMP_AWA_CON	2	Rpleas_acq	Same	Rpleas	Bmasked	CS_B	1pleas	distractor2	EVAbeforeCON	acq_US_unple_masked	acq45_masked	4	2	400	1	300	300	0	0	395	46	0	1	0	0	0	1	blank2r.bmp	0	1	+	0	4	B4r.bmp	492	1	blank2r.bmp	786	1	GKQX	786	1	blank2r.bmp	866	2	tot	866	1	!	1239	1	!	1292	0	0	0	0	0	0	0	0	0	0	0	0	0	0	0	0	0	0	0	0	0	0	0	0	0	0	0
121118	10:31:03	10:37:59	415905	5.0.10.0	4_exp_EVA_AMP_AWA_CON	2	Rpleas_acq	Same	Rpleas	Bmasked	CS_B	1pleas	distractor2	EVAbeforeCON	acq_US_pleas_masked	acq45_masked	4	3	400	0	300	300	0	0	514	50	0	1	0	0	0	1	blank2r.bmp	0	1	+	0	7	C3r.bmp	492	1	blank2r.bmp	786	1	BMVZ	786	1	blank2r.bmp	866	2	treu	866	1	!	1239	1	!	-1	0	0	0	0	0	0	0	0	0	0	0	0	0	0	0	0	0	0	0	0	0	0	0	0	0	0	0
121118	10:31:03	10:38:01	418170	5.0.10.0	4_exp_EVA_AMP_AWA_CON	2	Rpleas_acq	Same	Rpleas	Bmasked	CS_B	1pleas	distractor2	EVAbeforeCON	acq_US_unple_masked	acq45_masked	4	4	400	1	300	300	0	0	463	46	0	1	0	0	0	1	blank2r.bmp	0	1	+	0	6	C2r.bmp	492	1	blank2r.bmp	786	1	GKQX	786	1	blank2r.bmp	866	5	rächen	866	1	!	1239	1	!	1359	0	0	0	0	0	0	0	0	0	0	0	0	0	0	0	0	0	0	0	0	0	0	0	0	0	0	0
121118	10:31:03	10:38:04	420409	5.0.10.0	4_exp_EVA_AMP_AWA_CON	2	Rpleas_acq	Same	Rpleas	Bmasked	CS_B	1pleas	distractor2	EVAbeforeCON	acq_US_pleas_masked	acq45_masked	4	5	400	1	300	300	0	0	447	50	0	1	0	0	0	1	blank2r.bmp	0	1	+	0	7	C3r.bmp	492	1	blank2r.bmp	786	1	BMVZ	786	1	blank2r.bmp	866	6	fair	866	1	!	1239	1	!	1346	0	0	0	0	0	0	0	0	0	0	0	0	0	0	0	0	0	0	0	0	0	0	0	0	0	0	0
121118	10:31:03	10:38:06	422648	5.0.10.0	4_exp_EVA_AMP_AWA_CON	2	Rpleas_acq	Same	Rpleas	Bmasked	CS_B	1pleas	distractor2	EVAbeforeCON	acq_US_unple_masked	acq45_masked	4	6	400	1	300	300	0	0	451	46	0	1	0	0	0	1	blank2r.bmp	0	1	+	0	2	B2r.bmp	492	1	blank2r.bmp	786	1	GKQX	786	1	blank2r.bmp	866	6	faul	866	1	!	1239	1	!	1346	0	0	0	0	0	0	0	0	0	0	0	0	0	0	0	0	0	0	0	0	0	0	0	0	0	0	0
121118	10:31:03	10:38:08	424754	5.0.10.0	4_exp_EVA_AMP_AWA_CON	2	Rpleas_acq	Same	Rpleas	Bmasked	CS_B	1pleas	distractor2	EVAbeforeCON	acq_US_unple_masked	acq45_masked	4	7	400	0	300	300	0	0	333	46	0	1	0	0	0	1	blank2r.bmp	0	1	+	0	1	B1r.bmp	492	1	blank2r.bmp	786	1	GKQX	786	1	blank2r.bmp	866	3	lasch	866	1	!	-1	1	!	-1	0	0	0	0	0	0	0	0	0	0	0	0	0	0	0	0	0	0	0	0	0	0	0	0	0	0	0
121118	10:31:03	10:38:10	427033	5.0.10.0	4_exp_EVA_AMP_AWA_CON	2	Rpleas_acq	Same	Rpleas	Bmasked	CS_B	1pleas	distractor2	EVAbeforeCON	acq_US_pleas_masked	acq45_masked	4	8	400	0	300	300	0	0	496	50	0	1	0	0	0	1	blank2r.bmp	0	1	+	0	6	C2r.bmp	492	1	blank2r.bmp	786	1	BMVZ	786	1	blank2r.bmp	866	4	freundlich	866	1	!	1239	1	!	-1	0	0	0	0	0	0	0	0	0	0	0	0	0	0	0	0	0	0	0	0	0	0	0	0	0	0	0
121118	10:31:03	10:38:12	429112	5.0.10.0	4_exp_EVA_AMP_AWA_CON	2	Rpleas_acq	Same	Rpleas	Bmasked	CS_B	1pleas	distractor2	EVAbeforeCON	acq_US_unple_masked	acq45_masked	4	9	400	0	300	300	0	0	305	46	0	1	0	0	0	1	blank2r.bmp	0	1	+	0	5	C1r.bmp	492	1	blank2r.bmp	786	1	GKQX	786	1	blank2r.bmp	866	1	schlecht	866	1	!	-1	1	!	-1	0	0	0	0	0	0	0	0	0	0	0	0	0	0	0	0	0	0	0	0	0	0	0	0	0	0	0
121118	10:31:03	10:38:15	431365	5.0.10.0	4_exp_EVA_AMP_AWA_CON	2	Rpleas_acq	Same	Rpleas	Bmasked	CS_B	1pleas	distractor2	EVAbeforeCON	acq_US_pleas_masked	acq45_masked	4	10	400	1	300	300	0	0	447	50	0	1	0	0	0	1	blank2r.bmp	0	1	+	0	4	B4r.bmp	492	1	blank2r.bmp	786	1	BMVZ	786	1	blank2r.bmp	866	1	schön	866	1	!	1239	1	!	1346	0	0	0	0	0	0	0	0	0	0	0	0	0	0	0	0	0	0	0	0	0	0	0	0	0	0	0
121118	10:31:03	10:38:17	433617	5.0.10.0	4_exp_EVA_AMP_AWA_CON	2	Rpleas_acq	Same	Rpleas	Bmasked	CS_B	1pleas	distractor2	EVAbeforeCON	acq_US_pleas_masked	acq45_masked	4	11	400	0	300	300	0	0	479	50	0	1	0	0	0	1	blank2r.bmp	0	1	+	0	8	C4r.bmp	492	1	blank2r.bmp	786	1	BMVZ	786	1	blank2r.bmp	866	3	loyal	866	1	!	1239	1	!	-1	0	0	0	0	0	0	0	0	0	0	0	0	0	0	0	0	0	0	0	0	0	0	0	0	0	0	0
121118	10:31:03	10:38:19	435883	5.0.10.0	4_exp_EVA_AMP_AWA_CON	2	Rpleas_acq	Same	Rpleas	Bmasked	CS_B	1pleas	distractor2	EVAbeforeCON	acq_US_pleas_masked	acq45_masked	4	12	400	1	300	300	0	0	461	50	0	1	0	0	0	1	blank2r.bmp	0	1	+	0	3	B3r.bmp	492	1	blank2r.bmp	786	1	BMVZ	786	1	blank2r.bmp	866	5	retten	866	1	!	1239	1	!	1359	0	0	0	0	0	0	0	0	0	0	0	0	0	0	0	0	0	0	0	0	0	0	0	0	0	0	0
121118	10:31:03	10:38:25	441734	5.0.10.0	4_exp_EVA_AMP_AWA_CON	2	Rpleas_acq	Same	Rpleas	Bmasked	CS_B	1pleas	distractor2	EVAbeforeCON	acq_US_unple_masked	acq45_masked	4	13	400	0	300	300	0	0	4069	50	0	0	0	0	0	1	blank2r.bmp	0	1	+	0	2	B2r.bmp	492	1	blank2r.bmp	786	1	GKQX	786	1	blank2r.bmp	866	2	tot	866	1	!	1239	1	!	-1	0	0	0	0	0	0	0	0	0	0	0	0	0	0	0	0	0	0	0	0	0	0	0	0	0	0	0
121118	10:31:03	10:38:27	443919	5.0.10.0	4_exp_EVA_AMP_AWA_CON	2	Rpleas_acq	Same	Rpleas	Bmasked	CS_B	1pleas	distractor2	EVAbeforeCON	acq_US_unple_masked	acq45_masked	4	14	400	1	300	300	0	0	373	46	0	1	0	0	0	1	blank2r.bmp	0	1	+	0	1	B1r.bmp	492	1	blank2r.bmp	786	1	GKQX	786	1	blank2r.bmp	866	6	faul	866	1	!	1239	1	!	1279	0	0	0	0	0	0	0	0	0	0	0	0	0	0	0	0	0	0	0	0	0	0	0	0	0	0	0
121118	10:31:03	10:38:29	446132	5.0.10.0	4_exp_EVA_AMP_AWA_CON	2	Rpleas_acq	Same	Rpleas	Bmasked	CS_B	1pleas	distractor2	EVAbeforeCON	acq_US_pleas_masked	acq45_masked	4	15	400	1	300	300	0	0	412	46	0	0	0	0	0	1	blank2r.bmp	0	1	+	0	7	C3r.bmp	492	1	blank2r.bmp	786	1	BMVZ	786	1	blank2r.bmp	866	6	fair	866	1	!	1239	1	!	1319	0	0	0	0	0	0	0	0	0	0	0	0	0	0	0	0	0	0	0	0	0	0	0	0	0	0	0
121118	10:31:03	10:38:32	448358	5.0.10.0	4_exp_EVA_AMP_AWA_CON	2	Rpleas_acq	Same	Rpleas	Bmasked	CS_B	1pleas	distractor2	EVAbeforeCON	acq_US_pleas_masked	acq45_masked	4	16	400	1	300	300	0	0	420	46	0	0	0	0	0	1	blank2r.bmp	0	1	+	0	3	B3r.bmp	492	1	blank2r.bmp	786	1	BMVZ	786	1	blank2r.bmp	866	3	loyal	866	1	!	1239	1	!	1319	0	0	0	0	0	0	0	0	0	0	0	0	0	0	0	0	0	0	0	0	0	0	0	0	0	0	0
121118	10:31:03	10:38:34	450610	5.0.10.0	4_exp_EVA_AMP_AWA_CON	2	Rpleas_acq	Same	Rpleas	Bmasked	CS_B	1pleas	distractor2	EVAbeforeCON	acq_US_unple_masked	acq45_masked	4	17	400	1	300	300	0	0	463	46	0	1	0	0	0	1	blank2r.bmp	0	1	+	0	5	C1r.bmp	492	1	blank2r.bmp	786	1	GKQX	786	1	blank2r.bmp	866	3	lasch	866	1	!	1239	1	!	1359	0	0	0	0	0	0	0	0	0	0	0	0	0	0	0	0	0	0	0	0	0	0	0	0	0	0	0
121118	10:31:03	10:38:36	452822	5.0.10.0	4_exp_EVA_AMP_AWA_CON	2	Rpleas_acq	Same	Rpleas	Bmasked	CS_B	1pleas	distractor2	EVAbeforeCON	acq_US_pleas_masked	acq45_masked	4	18	400	1	300	300	0	0	408	46	0	0	0	0	0	1	blank2r.bmp	0	1	+	0	8	C4r.bmp	492	1	blank2r.bmp	786	1	BMVZ	786	1	blank2r.bmp	866	5	retten	866	1	!	1239	1	!	1306	0	0	0	0	0	0	0	0	0	0	0	0	0	0	0	0	0	0	0	0	0	0	0	0	0	0	0
121118	10:31:03	10:38:38	455168	5.0.10.0	4_exp_EVA_AMP_AWA_CON	2	Rpleas_acq	Same	Rpleas	Bmasked	CS_B	1pleas	distractor2	EVAbeforeCON	acq_US_pleas_masked	acq45_masked	4	19	400	0	300	300	0	0	577	50	0	1	0	0	0	1	blank2r.bmp	0	1	+	0	6	C2r.bmp	492	1	blank2r.bmp	786	1	BMVZ	786	1	blank2r.bmp	866	4	freundlich	866	1	!	1239	1	!	-1	0	0	0	0	0	0	0	0	0	0	0	0	0	0	0	0	0	0	0	0	0	0	0	0	0	0	0
121118	10:31:03	10:38:41	457367	5.0.10.0	4_exp_EVA_AMP_AWA_CON	2	Rpleas_acq	Same	Rpleas	Bmasked	CS_B	1pleas	distractor2	EVAbeforeCON	acq_US_unple_masked	acq45_masked	4	20	400	1	300	300	0	0	393	46	0	1	0	0	0	1	blank2r.bmp	0	1	+	0	4	B4r.bmp	492	1	blank2r.bmp	786	1	GKQX	786	1	blank2r.bmp	866	1	schlecht	866	1	!	1239	1	!	1292	0	0	0	0	0	0	0	0	0	0	0	0	0	0	0	0	0	0	0	0	0	0	0	0	0	0	0
121118	10:31:03	10:38:43	459566	5.0.10.0	4_exp_EVA_AMP_AWA_CON	2	Rpleas_acq	Same	Rpleas	Bmasked	CS_B	1pleas	distractor2	EVAbeforeCON	acq_US_pleas_masked	acq45_masked	4	21	400	1	300	300	0	0	410	46	0	0	0	0	0	1	blank2r.bmp	0	1	+	0	8	C4r.bmp	492	1	blank2r.bmp	786	1	BMVZ	786	1	blank2r.bmp	866	2	treu	866	1	!	1239	1	!	1306	0	0	0	0	0	0	0	0	0	0	0	0	0	0	0	0	0	0	0	0	0	0	0	0	0	0	0
121118	10:31:03	10:38:45	461805	5.0.10.0	4_exp_EVA_AMP_AWA_CON	2	Rpleas_acq	Same	Rpleas	Bmasked	CS_B	1pleas	distractor2	EVAbeforeCON	acq_US_unple_masked	acq45_masked	4	22	400	1	300	300	0	0	448	46	0	1	0	0	0	1	blank2r.bmp	0	1	+	0	4	B4r.bmp	492	1	blank2r.bmp	786	1	GKQX	786	1	blank2r.bmp	866	5	rächen	866	1	!	1239	1	!	1346	0	0	0	0	0	0	0	0	0	0	0	0	0	0	0	0	0	0	0	0	0	0	0	0	0	0	0
121118	10:31:03	10:38:47	463884	5.0.10.0	4_exp_EVA_AMP_AWA_CON	2	Rpleas_acq	Same	Rpleas	Bmasked	CS_B	1pleas	distractor2	EVAbeforeCON	acq_US_pleas_masked	acq45_masked	4	23	400	0	300	300	0	0	317	50	0	1	0	0	0	1	blank2r.bmp	0	1	+	0	3	B3r.bmp	492	1	blank2r.bmp	786	1	BMVZ	786	1	blank2r.bmp	866	1	schön	866	1	!	-1	1	!	-1	0	0	0	0	0	0	0	0	0	0	0	0	0	0	0	0	0	0	0	0	0	0	0	0	0	0	0
121118	10:31:03	10:38:49	466044	5.0.10.0	4_exp_EVA_AMP_AWA_CON	2	Rpleas_acq	Same	Rpleas	Bmasked	CS_B	1pleas	distractor2	EVAbeforeCON	acq_US_pleas_masked	acq45_masked	4	24	400	1	300	300	0	0	346	50	0	1	0	0	0	1	blank2r.bmp	0	1	+	0	5	C1r.bmp	492	1	blank2r.bmp	786	1	BMVZ	786	1	blank2r.bmp	866	2	treu	866	1	!	1239	1	!	1252	0	0	0	0	0	0	0	0	0	0	0	0	0	0	0	0	0	0	0	0	0	0	0	0	0	0	0
121118	10:31:03	10:38:51	468123	5.0.10.0	4_exp_EVA_AMP_AWA_CON	2	Rpleas_acq	Same	Rpleas	Bmasked	CS_B	1pleas	distractor2	EVAbeforeCON	acq_US_pleas_masked	acq45_masked	4	25	400	0	300	300	0	0	305	50	0	1	0	0	0	1	blank2r.bmp	0	1	+	0	7	C3r.bmp	492	1	blank2r.bmp	786	1	BMVZ	786	1	blank2r.bmp	866	6	fair	866	1	!	-1	1	!	-1	0	0	0	0	0	0	0	0	0	0	0	0	0	0	0	0	0	0	0	0	0	0	0	0	0	0	0
121118	10:31:03	10:38:54	470375	5.0.10.0	4_exp_EVA_AMP_AWA_CON	2	Rpleas_acq	Same	Rpleas	Bmasked	CS_B	1pleas	distractor2	EVAbeforeCON	acq_US_unple_masked	acq45_masked	4	26	400	1	300	300	0	0	440	46	0	1	0	0	0	1	blank2r.bmp	0	1	+	0	1	B1r.bmp	492	1	blank2r.bmp	786	1	GKQX	786	1	blank2r.bmp	866	4	fanatisch	866	1	!	1239	1	!	1346	0	0	0	0	0	0	0	0	0	0	0	0	0	0	0	0	0	0	0	0	0	0	0	0	0	0	0
121118	10:31:03	10:38:56	472654	5.0.10.0	4_exp_EVA_AMP_AWA_CON	2	Rpleas_acq	Same	Rpleas	Bmasked	CS_B	1pleas	distractor2	EVAbeforeCON	acq_US_unple_masked	acq45_masked	4	27	400	0	300	300	0	0	496	46	0	1	0	0	0	1	blank2r.bmp	0	1	+	0	6	C2r.bmp	492	1	blank2r.bmp	786	1	GKQX	786	1	blank2r.bmp	866	1	schlecht	866	1	!	1239	1	!	-1	0	0	0	0	0	0	0	0	0	0	0	0	0	0	0	0	0	0	0	0	0	0	0	0	0	0	0
121118	10:31:03	10:38:58	474787	5.0.10.0	4_exp_EVA_AMP_AWA_CON	2	Rpleas_acq	Same	Rpleas	Bmasked	CS_B	1pleas	distractor2	EVAbeforeCON	acq_US_pleas_masked	acq45_masked	4	28	400	0	300	300	0	0	332	50	0	1	0	0	0	1	blank2r.bmp	0	1	+	0	2	B2r.bmp	492	1	blank2r.bmp	786	1	BMVZ	786	1	blank2r.bmp	866	1	schön	866	1	!	-1	1	!	-1	0	0	0	0	0	0	0	0	0	0	0	0	0	0	0	0	0	0	0	0	0	0	0	0	0	0	0
121118	10:31:03	10:39:00	476972	5.0.10.0	4_exp_EVA_AMP_AWA_CON	2	Rpleas_acq	Same	Rpleas	Bmasked	CS_B	1pleas	distractor2	EVAbeforeCON	acq_US_unple_masked	acq45_masked	4	29	400	1	300	300	0	0	381	46	0	1	0	0	0	1	blank2r.bmp	0	1	+	0	3	B3r.bmp	492	1	blank2r.bmp	786	1	GKQX	786	1	blank2r.bmp	866	2	tot	866	1	!	1239	1	!	1279	0	0	0	0	0	0	0	0	0	0	0	0	0	0	0	0	0	0	0	0	0	0	0	0	0	0	0
121118	10:31:03	10:39:03	479318	5.0.10.0	4_exp_EVA_AMP_AWA_CON	2	Rpleas_acq	Same	Rpleas	Bmasked	CS_B	1pleas	distractor2	EVAbeforeCON	acq_US_unple_masked	acq45_masked	4	30	400	0	300	300	0	0	558	46	0	1	0	0	0	1	blank2r.bmp	0	1	+	0	5	C1r.bmp	492	1	blank2r.bmp	786	1	GKQX	786	1	blank2r.bmp	866	3	lasch	866	1	!	1239	1	!	-1	0	0	0	0	0	0	0	0	0	0	0	0	0	0	0	0	0	0	0	0	0	0	0	0	0	0	0
121118	10:31:03	10:39:05	481570	5.0.10.0	4_exp_EVA_AMP_AWA_CON	2	Rpleas_acq	Same	Rpleas	Bmasked	CS_B	1pleas	distractor2	EVAbeforeCON	acq_US_pleas_masked	acq45_masked	4	31	400	1	300	300	0	0	447	50	0	1	0	0	0	1	blank2r.bmp	0	1	+	0	2	B2r.bmp	492	1	blank2r.bmp	786	1	BMVZ	786	1	blank2r.bmp	866	5	retten	866	1	!	1239	1	!	1346	0	0	0	0	0	0	0	0	0	0	0	0	0	0	0	0	0	0	0	0	0	0	0	0	0	0	0
121118	10:31:03	10:39:07	483823	5.0.10.0	4_exp_EVA_AMP_AWA_CON	2	Rpleas_acq	Same	Rpleas	Bmasked	CS_B	1pleas	distractor2	EVAbeforeCON	acq_US_unple_masked	acq45_masked	4	32	400	1	300	300	0	0	462	46	0	1	0	0	0	1	blank2r.bmp	0	1	+	0	1	B1r.bmp	492	1	blank2r.bmp	786	1	GKQX	786	1	blank2r.bmp	866	4	fanatisch	866	1	!	1239	1	!	1359	0	0	0	0	0	0	0	0	0	0	0	0	0	0	0	0	0	0	0	0	0	0	0	0	0	0	0
121118	10:31:03	10:39:09	485982	5.0.10.0	4_exp_EVA_AMP_AWA_CON	2	Rpleas_acq	Same	Rpleas	Bmasked	CS_B	1pleas	distractor2	EVAbeforeCON	acq_US_pleas_masked	acq45_masked	4	33	400	1	300	300	0	0	346	50	0	1	0	0	0	1	blank2r.bmp	0	1	+	0	8	C4r.bmp	492	1	blank2r.bmp	786	1	BMVZ	786	1	blank2r.bmp	866	4	freundlich	866	1	!	1239	1	!	1252	0	0	0	0	0	0	0	0	0	0	0	0	0	0	0	0	0	0	0	0	0	0	0	0	0	0	0
121118	10:31:03	10:39:11	488128	5.0.10.0	4_exp_EVA_AMP_AWA_CON	2	Rpleas_acq	Same	Rpleas	Bmasked	CS_B	1pleas	distractor2	EVAbeforeCON	acq_US_unple_masked	acq45_masked	4	34	400	1	300	300	0	0	346	46	0	1	0	0	0	1	blank2r.bmp	0	1	+	0	6	C2r.bmp	492	1	blank2r.bmp	786	1	GKQX	786	1	blank2r.bmp	866	5	rächen	866	1	!	1239	1	!	1252	0	0	0	0	0	0	0	0	0	0	0	0	0	0	0	0	0	0	0	0	0	0	0	0	0	0	0
121118	10:31:03	10:39:14	490287	5.0.10.0	4_exp_EVA_AMP_AWA_CON	2	Rpleas_acq	Same	Rpleas	Bmasked	CS_B	1pleas	distractor2	EVAbeforeCON	acq_US_pleas_masked	acq45_masked	4	35	400	1	300	300	0	0	346	50	0	1	0	0	0	1	blank2r.bmp	0	1	+	0	4	B4r.bmp	492	1	blank2r.bmp	786	1	BMVZ	786	1	blank2r.bmp	866	3	loyal	866	1	!	1239	1	!	1252	0	0	0	0	0	0	0	0	0	0	0	0	0	0	0	0	0	0	0	0	0	0	0	0	0	0	0
121118	10:31:03	10:39:16	492446	5.0.10.0	4_exp_EVA_AMP_AWA_CON	2	Rpleas_acq	Same	Rpleas	Bmasked	CS_B	1pleas	distractor2	EVAbeforeCON	acq_US_unple_masked	acq45_masked	4	36	400	1	300	300	0	0	360	46	0	1	0	0	0	1	blank2r.bmp	0	1	+	0	7	C3r.bmp	492	1	blank2r.bmp	786	1	GKQX	786	1	blank2r.bmp	866	6	faul	866	1	!	1239	1	!	1266	0	0	0	0	0	0	0	0	0	0	0	0	0	0	0	0	0	0	0	0	0	0	0	0	0	0	0
121118	10:31:03	10:39:29	505280	5.0.10.0	4_exp_EVA_AMP_AWA_CON	2	Rpleas_acq	Same	Rpleas	Bmasked	CS_B	1pleas	distractor2	EVAbeforeCON	acq_US_unple_masked	acq45_masked	5	1	400	1	300	300	0	0	426	46	0	1	0	0	0	1	blank2r.bmp	0	1	+	0	5	C1r.bmp	492	1	blank2r.bmp	786	1	GKQX	786	1	blank2r.bmp	866	3	lasch	866	1	!	1239	1	!	1332	0	0	0	0	0	0	0	0	0	0	0	0	0	0	0	0	0	0	0	0	0	0	0	0	0	0	0
121118	10:31:03	10:39:31	507346	5.0.10.0	4_exp_EVA_AMP_AWA_CON	2	Rpleas_acq	Same	Rpleas	Bmasked	CS_B	1pleas	distractor2	EVAbeforeCON	acq_US_unple_masked	acq45_masked	5	2	400	0	300	300	0	0	296	50	0	0	0	0	0	1	blank2r.bmp	0	1	+	0	4	B4r.bmp	492	1	blank2r.bmp	786	1	GKQX	786	1	blank2r.bmp	866	1	schlecht	866	1	!	-1	1	!	-1	0	0	0	0	0	0	0	0	0	0	0	0	0	0	0	0	0	0	0	0	0	0	0	0	0	0	0
121118	10:31:03	10:39:33	509572	5.0.10.0	4_exp_EVA_AMP_AWA_CON	2	Rpleas_acq	Same	Rpleas	Bmasked	CS_B	1pleas	distractor2	EVAbeforeCON	acq_US_pleas_masked	acq45_masked	5	3	400	1	300	300	0	0	420	50	0	1	0	0	0	1	blank2r.bmp	0	1	+	0	2	B2r.bmp	492	1	blank2r.bmp	786	1	BMVZ	786	1	blank2r.bmp	866	5	retten	866	1	!	1239	1	!	1319	0	0	0	0	0	0	0	0	0	0	0	0	0	0	0	0	0	0	0	0	0	0	0	0	0	0	0
121118	10:31:03	10:39:35	511744	5.0.10.0	4_exp_EVA_AMP_AWA_CON	2	Rpleas_acq	Same	Rpleas	Bmasked	CS_B	1pleas	distractor2	EVAbeforeCON	acq_US_pleas_masked	acq45_masked	5	4	400	1	300	300	0	0	375	46	0	0	0	0	0	1	blank2r.bmp	0	1	+	0	7	C3r.bmp	492	1	blank2r.bmp	786	1	BMVZ	786	1	blank2r.bmp	866	4	freundlich	866	1	!	1239	1	!	1279	0	0	0	0	0	0	0	0	0	0	0	0	0	0	0	0	0	0	0	0	0	0	0	0	0	0	0
121118	10:31:03	10:39:37	513903	5.0.10.0	4_exp_EVA_AMP_AWA_CON	2	Rpleas_acq	Same	Rpleas	Bmasked	CS_B	1pleas	distractor2	EVAbeforeCON	acq_US_pleas_masked	acq45_masked	5	5	400	1	300	300	0	0	358	46	0	0	0	0	0	1	blank2r.bmp	0	1	+	0	6	C2r.bmp	492	1	blank2r.bmp	786	1	BMVZ	786	1	blank2r.bmp	866	2	treu	866	1	!	1239	1	!	1252	0	0	0	0	0	0	0	0	0	0	0	0	0	0	0	0	0	0	0	0	0	0	0	0	0	0	0
121118	10:31:03	10:39:39	515983	5.0.10.0	4_exp_EVA_AMP_AWA_CON	2	Rpleas_acq	Same	Rpleas	Bmasked	CS_B	1pleas	distractor2	EVAbeforeCON	acq_US_pleas_masked	acq45_masked	5	6	400	0	300	300	0	0	315	50	0	1	0	0	0	1	blank2r.bmp	0	1	+	0	3	B3r.bmp	492	1	blank2r.bmp	786	1	BMVZ	786	1	blank2r.bmp	866	1	schön	866	1	!	-1	1	!	-1	0	0	0	0	0	0	0	0	0	0	0	0	0	0	0	0	0	0	0	0	0	0	0	0	0	0	0
121118	10:31:03	10:39:41	518075	5.0.10.0	4_exp_EVA_AMP_AWA_CON	2	Rpleas_acq	Same	Rpleas	Bmasked	CS_B	1pleas	distractor2	EVAbeforeCON	acq_US_unple_masked	acq45_masked	5	7	400	0	300	300	0	0	310	46	0	1	0	0	0	1	blank2r.bmp	0	1	+	0	8	C4r.bmp	492	1	blank2r.bmp	786	1	GKQX	786	1	blank2r.bmp	866	6	faul	866	1	!	-1	1	!	-1	0	0	0	0	0	0	0	0	0	0	0	0	0	0	0	0	0	0	0	0	0	0	0	0	0	0	0
121118	10:31:03	10:39:44	520367	5.0.10.0	4_exp_EVA_AMP_AWA_CON	2	Rpleas_acq	Same	Rpleas	Bmasked	CS_B	1pleas	distractor2	EVAbeforeCON	acq_US_pleas_masked	acq45_masked	5	8	400	0	300	300	0	0	496	50	0	1	0	0	0	1	blank2r.bmp	0	1	+	0	1	B1r.bmp	492	1	blank2r.bmp	786	1	BMVZ	786	1	blank2r.bmp	866	3	loyal	866	1	!	1239	1	!	-1	0	0	0	0	0	0	0	0	0	0	0	0	0	0	0	0	0	0	0	0	0	0	0	0	0	0	0
121118	10:31:03	10:39:46	522513	5.0.10.0	4_exp_EVA_AMP_AWA_CON	2	Rpleas_acq	Same	Rpleas	Bmasked	CS_B	1pleas	distractor2	EVAbeforeCON	acq_US_unple_masked	acq45_masked	5	9	400	1	300	300	0	0	352	46	0	1	0	0	0	1	blank2r.bmp	0	1	+	0	4	B4r.bmp	492	1	blank2r.bmp	786	1	GKQX	786	1	blank2r.bmp	866	4	fanatisch	866	1	!	1239	1	!	1252	0	0	0	0	0	0	0	0	0	0	0	0	0	0	0	0	0	0	0	0	0	0	0	0	0	0	0
121118	10:31:03	10:39:48	524819	5.0.10.0	4_exp_EVA_AMP_AWA_CON	2	Rpleas_acq	Same	Rpleas	Bmasked	CS_B	1pleas	distractor2	EVAbeforeCON	acq_US_unple_masked	acq45_masked	5	10	400	0	300	300	0	0	537	46	0	1	0	0	0	1	blank2r.bmp	0	1	+	0	5	C1r.bmp	492	1	blank2r.bmp	786	1	GKQX	786	1	blank2r.bmp	866	5	rächen	866	1	!	1239	1	!	-1	0	0	0	0	0	0	0	0	0	0	0	0	0	0	0	0	0	0	0	0	0	0	0	0	0	0	0
121118	10:31:03	10:39:50	526951	5.0.10.0	4_exp_EVA_AMP_AWA_CON	2	Rpleas_acq	Same	Rpleas	Bmasked	CS_B	1pleas	distractor2	EVAbeforeCON	acq_US_unple_masked	acq45_masked	5	11	400	0	300	300	0	0	333	50	0	0	0	0	0	1	blank2r.bmp	0	1	+	0	7	C3r.bmp	492	1	blank2r.bmp	786	1	GKQX	786	1	blank2r.bmp	866	2	tot	866	1	!	-1	1	!	-1	0	0	0	0	0	0	0	0	0	0	0	0	0	0	0	0	0	0	0	0	0	0	0	0	0	0	0
121118	10:31:03	10:39:53	529190	5.0.10.0	4_exp_EVA_AMP_AWA_CON	2	Rpleas_acq	Same	Rpleas	Bmasked	CS_B	1pleas	distractor2	EVAbeforeCON	acq_US_unple_masked	acq45_masked	5	12	400	1	300	300	0	0	431	46	0	1	0	0	0	1	blank2r.bmp	0	1	+	0	6	C2r.bmp	492	1	blank2r.bmp	786	1	GKQX	786	1	blank2r.bmp	866	6	faul	866	1	!	1239	1	!	1332	0	0	0	0	0	0	0	0	0	0	0	0	0	0	0	0	0	0	0	0	0	0	0	0	0	0	0
121118	10:31:03	10:39:55	531403	5.0.10.0	4_exp_EVA_AMP_AWA_CON	2	Rpleas_acq	Same	Rpleas	Bmasked	CS_B	1pleas	distractor2	EVAbeforeCON	acq_US_unple_masked	acq45_masked	5	13	400	1	300	300	0	0	424	46	0	1	0	0	0	1	blank2r.bmp	0	1	+	0	3	B3r.bmp	492	1	blank2r.bmp	786	1	GKQX	786	1	blank2r.bmp	866	2	tot	866	1	!	1239	1	!	1319	0	0	0	0	0	0	0	0	0	0	0	0	0	0	0	0	0	0	0	0	0	0	0	0	0	0	0
121118	10:31:03	10:39:57	533575	5.0.10.0	4_exp_EVA_AMP_AWA_CON	2	Rpleas_acq	Same	Rpleas	Bmasked	CS_B	1pleas	distractor2	EVAbeforeCON	acq_US_pleas_masked	acq45_masked	5	14	400	1	300	300	0	0	377	50	0	1	0	0	0	1	blank2r.bmp	0	1	+	0	8	C4r.bmp	492	1	blank2r.bmp	786	1	BMVZ	786	1	blank2r.bmp	866	6	fair	866	1	!	1239	1	!	1279	0	0	0	0	0	0	0	0	0	0	0	0	0	0	0	0	0	0	0	0	0	0	0	0	0	0	0
121118	10:31:03	10:39:59	535721	5.0.10.0	4_exp_EVA_AMP_AWA_CON	2	Rpleas_acq	Same	Rpleas	Bmasked	CS_B	1pleas	distractor2	EVAbeforeCON	acq_US_pleas_masked	acq45_masked	5	15	400	1	300	300	0	0	350	50	0	1	0	0	0	1	blank2r.bmp	0	1	+	0	2	B2r.bmp	492	1	blank2r.bmp	786	1	BMVZ	786	1	blank2r.bmp	866	2	treu	866	1	!	1239	1	!	1252	0	0	0	0	0	0	0	0	0	0	0	0	0	0	0	0	0	0	0	0	0	0	0	0	0	0	0
121118	10:31:03	10:40:01	537867	5.0.10.0	4_exp_EVA_AMP_AWA_CON	2	Rpleas_acq	Same	Rpleas	Bmasked	CS_B	1pleas	distractor2	EVAbeforeCON	acq_US_pleas_masked	acq45_masked	5	16	400	1	300	300	0	0	354	46	0	0	0	0	0	1	blank2r.bmp	0	1	+	0	1	B1r.bmp	492	1	blank2r.bmp	786	1	BMVZ	786	1	blank2r.bmp	866	3	loyal	866	1	!	1239	1	!	1252	0	0	0	0	0	0	0	0	0	0	0	0	0	0	0	0	0	0	0	0	0	0	0	0	0	0	0
121118	10:31:03	10:40:03	540079	5.0.10.0	4_exp_EVA_AMP_AWA_CON	2	Rpleas_acq	Same	Rpleas	Bmasked	CS_B	1pleas	distractor2	EVAbeforeCON	acq_US_unple_masked	acq45_masked	5	17	400	1	300	300	0	0	419	46	0	1	0	0	0	1	blank2r.bmp	0	1	+	0	4	B4r.bmp	492	1	blank2r.bmp	786	1	GKQX	786	1	blank2r.bmp	866	5	rächen	866	1	!	1239	1	!	1319	0	0	0	0	0	0	0	0	0	0	0	0	0	0	0	0	0	0	0	0	0	0	0	0	0	0	0
121118	10:31:03	10:40:06	542265	5.0.10.0	4_exp_EVA_AMP_AWA_CON	2	Rpleas_acq	Same	Rpleas	Bmasked	CS_B	1pleas	distractor2	EVAbeforeCON	acq_US_pleas_masked	acq45_masked	5	18	400	1	300	300	0	0	392	50	0	1	0	0	0	1	blank2r.bmp	0	1	+	0	5	C1r.bmp	492	1	blank2r.bmp	786	1	BMVZ	786	1	blank2r.bmp	866	4	freundlich	866	1	!	1239	1	!	1292	0	0	0	0	0	0	0	0	0	0	0	0	0	0	0	0	0	0	0	0	0	0	0	0	0	0	0
121118	10:31:03	10:40:08	544411	5.0.10.0	4_exp_EVA_AMP_AWA_CON	2	Rpleas_acq	Same	Rpleas	Bmasked	CS_B	1pleas	distractor2	EVAbeforeCON	acq_US_pleas_masked	acq45_masked	5	19	400	1	300	300	0	0	351	50	0	1	0	0	0	1	blank2r.bmp	0	1	+	0	3	B3r.bmp	492	1	blank2r.bmp	786	1	BMVZ	786	1	blank2r.bmp	866	1	schön	866	1	!	1239	1	!	1252	0	0	0	0	0	0	0	0	0	0	0	0	0	0	0	0	0	0	0	0	0	0	0	0	0	0	0
121118	10:31:03	10:40:10	546583	5.0.10.0	4_exp_EVA_AMP_AWA_CON	2	Rpleas_acq	Same	Rpleas	Bmasked	CS_B	1pleas	distractor2	EVAbeforeCON	acq_US_pleas_masked	acq45_masked	5	20	400	1	300	300	0	0	371	50	0	1	0	0	0	1	blank2r.bmp	0	1	+	0	8	C4r.bmp	492	1	blank2r.bmp	786	1	BMVZ	786	1	blank2r.bmp	866	6	fair	866	1	!	1239	1	!	1266	0	0	0	0	0	0	0	0	0	0	0	0	0	0	0	0	0	0	0	0	0	0	0	0	0	0	0
121118	10:31:03	10:40:12	548849	5.0.10.0	4_exp_EVA_AMP_AWA_CON	2	Rpleas_acq	Same	Rpleas	Bmasked	CS_B	1pleas	distractor2	EVAbeforeCON	acq_US_unple_masked	acq45_masked	5	21	400	0	300	300	0	0	503	46	0	1	0	0	0	1	blank2r.bmp	0	1	+	0	2	B2r.bmp	492	1	blank2r.bmp	786	1	GKQX	786	1	blank2r.bmp	866	3	lasch	866	1	!	1239	1	!	-1	0	0	0	0	0	0	0	0	0	0	0	0	0	0	0	0	0	0	0	0	0	0	0	0	0	0	0
121118	10:31:03	10:40:14	551114	5.0.10.0	4_exp_EVA_AMP_AWA_CON	2	Rpleas_acq	Same	Rpleas	Bmasked	CS_B	1pleas	distractor2	EVAbeforeCON	acq_US_unple_masked	acq45_masked	5	22	400	0	300	300	0	0	479	46	0	1	0	0	0	1	blank2r.bmp	0	1	+	0	1	B1r.bmp	492	1	blank2r.bmp	786	1	GKQX	786	1	blank2r.bmp	866	1	schlecht	866	1	!	1239	1	!	-1	0	0	0	0	0	0	0	0	0	0	0	0	0	0	0	0	0	0	0	0	0	0	0	0	0	0	0
121118	10:31:03	10:40:17	553314	5.0.10.0	4_exp_EVA_AMP_AWA_CON	2	Rpleas_acq	Same	Rpleas	Bmasked	CS_B	1pleas	distractor2	EVAbeforeCON	acq_US_unple_masked	acq45_masked	5	23	400	1	300	300	0	0	395	46	0	1	0	0	0	1	blank2r.bmp	0	1	+	0	6	C2r.bmp	492	1	blank2r.bmp	786	1	GKQX	786	1	blank2r.bmp	866	4	fanatisch	866	1	!	1239	1	!	1292	0	0	0	0	0	0	0	0	0	0	0	0	0	0	0	0	0	0	0	0	0	0	0	0	0	0	0
121118	10:31:03	10:40:19	555499	5.0.10.0	4_exp_EVA_AMP_AWA_CON	2	Rpleas_acq	Same	Rpleas	Bmasked	CS_B	1pleas	distractor2	EVAbeforeCON	acq_US_unple_masked	acq45_masked	5	24	400	1	300	300	0	0	397	46	0	1	0	0	0	1	blank2r.bmp	0	1	+	0	7	C3r.bmp	492	1	blank2r.bmp	786	1	GKQX	786	1	blank2r.bmp	866	1	schlecht	866	1	!	1239	1	!	1292	0	0	0	0	0	0	0	0	0	0	0	0	0	0	0	0	0	0	0	0	0	0	0	0	0	0	0
121118	10:31:03	10:40:21	557792	5.0.10.0	4_exp_EVA_AMP_AWA_CON	2	Rpleas_acq	Same	Rpleas	Bmasked	CS_B	1pleas	distractor2	EVAbeforeCON	acq_US_pleas_masked	acq45_masked	5	25	400	0	300	300	0	0	519	50	0	1	0	0	0	1	blank2r.bmp	0	1	+	0	4	B4r.bmp	492	1	blank2r.bmp	786	1	BMVZ	786	1	blank2r.bmp	866	5	retten	866	1	!	1239	1	!	-1	0	0	0	0	0	0	0	0	0	0	0	0	0	0	0	0	0	0	0	0	0	0	0	0	0	0	0
121118	10:31:03	10:40:23	559951	5.0.10.0	4_exp_EVA_AMP_AWA_CON	2	Rpleas_acq	Same	Rpleas	Bmasked	CS_B	1pleas	distractor2	EVAbeforeCON	acq_US_pleas_masked	acq45_masked	5	26	400	1	300	300	0	0	346	50	0	1	0	0	0	1	blank2r.bmp	0	1	+	0	8	C4r.bmp	492	1	blank2r.bmp	786	1	BMVZ	786	1	blank2r.bmp	866	1	schön	866	1	!	1239	1	!	1252	0	0	0	0	0	0	0	0	0	0	0	0	0	0	0	0	0	0	0	0	0	0	0	0	0	0	0
121118	10:31:03	10:40:26	562216	5.0.10.0	4_exp_EVA_AMP_AWA_CON	2	Rpleas_acq	Same	Rpleas	Bmasked	CS_B	1pleas	distractor2	EVAbeforeCON	acq_US_unple_masked	acq45_masked	5	27	400	1	300	300	0	0	465	46	0	1	0	0	0	1	blank2r.bmp	0	1	+	0	3	B3r.bmp	492	1	blank2r.bmp	786	1	GKQX	786	1	blank2r.bmp	866	6	faul	866	1	!	1239	1	!	1372	0	0	0	0	0	0	0	0	0	0	0	0	0	0	0	0	0	0	0	0	0	0	0	0	0	0	0
121118	10:31:03	10:40:28	564429	5.0.10.0	4_exp_EVA_AMP_AWA_CON	2	Rpleas_acq	Same	Rpleas	Bmasked	CS_B	1pleas	distractor2	EVAbeforeCON	acq_US_pleas_masked	acq45_masked	5	28	400	1	300	300	0	0	420	46	0	0	0	0	0	1	blank2r.bmp	0	1	+	0	1	B1r.bmp	492	1	blank2r.bmp	786	1	BMVZ	786	1	blank2r.bmp	866	3	loyal	866	1	!	1239	1	!	1319	0	0	0	0	0	0	0	0	0	0	0	0	0	0	0	0	0	0	0	0	0	0	0	0	0	0	0
121118	10:31:03	10:40:30	566681	5.0.10.0	4_exp_EVA_AMP_AWA_CON	2	Rpleas_acq	Same	Rpleas	Bmasked	CS_B	1pleas	distractor2	EVAbeforeCON	acq_US_pleas_masked	acq45_masked	5	29	400	1	300	300	0	0	463	50	0	1	0	0	0	1	blank2r.bmp	0	1	+	0	7	C3r.bmp	492	1	blank2r.bmp	786	1	BMVZ	786	1	blank2r.bmp	866	2	treu	866	1	!	1239	1	!	1359	0	0	0	0	0	0	0	0	0	0	0	0	0	0	0	0	0	0	0	0	0	0	0	0	0	0	0
121118	10:31:03	10:40:32	568894	5.0.10.0	4_exp_EVA_AMP_AWA_CON	2	Rpleas_acq	Same	Rpleas	Bmasked	CS_B	1pleas	distractor2	EVAbeforeCON	acq_US_pleas_masked	acq45_masked	5	30	400	1	300	300	0	0	421	50	0	1	0	0	0	1	blank2r.bmp	0	1	+	0	6	C2r.bmp	492	1	blank2r.bmp	786	1	BMVZ	786	1	blank2r.bmp	866	6	fair	866	1	!	1239	1	!	1319	0	0	0	0	0	0	0	0	0	0	0	0	0	0	0	0	0	0	0	0	0	0	0	0	0	0	0
121118	10:31:03	10:40:34	571173	5.0.10.0	4_exp_EVA_AMP_AWA_CON	2	Rpleas_acq	Same	Rpleas	Bmasked	CS_B	1pleas	distractor2	EVAbeforeCON	acq_US_unple_masked	acq45_masked	5	31	400	0	300	300	0	0	507	46	0	1	0	0	0	1	blank2r.bmp	0	1	+	0	2	B2r.bmp	492	1	blank2r.bmp	786	1	GKQX	786	1	blank2r.bmp	866	3	lasch	866	1	!	1239	1	!	-1	0	0	0	0	0	0	0	0	0	0	0	0	0	0	0	0	0	0	0	0	0	0	0	0	0	0	0
121118	10:31:03	10:40:37	573412	5.0.10.0	4_exp_EVA_AMP_AWA_CON	2	Rpleas_acq	Same	Rpleas	Bmasked	CS_B	1pleas	distractor2	EVAbeforeCON	acq_US_unple_masked	acq45_masked	5	32	400	1	300	300	0	0	425	46	0	1	0	0	0	1	blank2r.bmp	0	1	+	0	5	C1r.bmp	492	1	blank2r.bmp	786	1	GKQX	786	1	blank2r.bmp	866	2	tot	866	1	!	1239	1	!	1332	0	0	0	0	0	0	0	0	0	0	0	0	0	0	0	0	0	0	0	0	0	0	0	0	0	0	0
121118	10:31:03	10:40:39	575637	5.0.10.0	4_exp_EVA_AMP_AWA_CON	2	Rpleas_acq	Same	Rpleas	Bmasked	CS_B	1pleas	distractor2	EVAbeforeCON	acq_US_pleas_masked	acq45_masked	5	33	400	1	300	300	0	0	424	50	0	1	0	0	0	1	blank2r.bmp	0	1	+	0	8	C4r.bmp	492	1	blank2r.bmp	786	1	BMVZ	786	1	blank2r.bmp	866	5	retten	866	1	!	1239	1	!	1319	0	0	0	0	0	0	0	0	0	0	0	0	0	0	0	0	0	0	0	0	0	0	0	0	0	0	0
121118	10:31:03	10:40:41	577957	5.0.10.0	4_exp_EVA_AMP_AWA_CON	2	Rpleas_acq	Same	Rpleas	Bmasked	CS_B	1pleas	distractor2	EVAbeforeCON	acq_US_unple_masked	acq45_masked	5	34	400	0	300	300	0	0	548	46	0	1	0	0	0	1	blank2r.bmp	0	1	+	0	6	C2r.bmp	492	1	blank2r.bmp	786	1	GKQX	786	1	blank2r.bmp	866	4	fanatisch	866	1	!	1239	1	!	-1	0	0	0	0	0	0	0	0	0	0	0	0	0	0	0	0	0	0	0	0	0	0	0	0	0	0	0
121118	10:31:03	10:40:43	580116	5.0.10.0	4_exp_EVA_AMP_AWA_CON	2	Rpleas_acq	Same	Rpleas	Bmasked	CS_B	1pleas	distractor2	EVAbeforeCON	acq_US_pleas_masked	acq45_masked	5	35	400	1	300	300	0	0	351	46	0	0	0	0	0	1	blank2r.bmp	0	1	+	0	3	B3r.bmp	492	1	blank2r.bmp	786	1	BMVZ	786	1	blank2r.bmp	866	4	freundlich	866	1	!	1239	1	!	1252	0	0	0	0	0	0	0	0	0	0	0	0	0	0	0	0	0	0	0	0	0	0	0	0	0	0	0
121118	10:31:03	10:40:46	582381	5.0.10.0	4_exp_EVA_AMP_AWA_CON	2	Rpleas_acq	Same	Rpleas	Bmasked	CS_B	1pleas	distractor2	EVAbeforeCON	acq_US_unple_masked	acq45_masked	5	36	400	0	300	300	0	0	502	46	0	1	0	0	0	1	blank2r.bmp	0	1	+	0	1	B1r.bmp	492	1	blank2r.bmp	786	1	GKQX	786	1	blank2r.bmp	866	5	rächen	866	1	!	1239	1	!	-1	0	0	0	0	0	0	0	0	0	0	0	0	0	0	0	0	0	0	0	0	0	0	0	0	0	0	0
121118	10:31:03	10:41:06	602786	5.0.10.0	4_exp_EVA_AMP_AWA_CON	2	Rpleas_acq	Same	Rpleas	Bmasked	CS_B	1pleas	distractor2	EVAbeforeCON	EvalRating_firsttwo	EvalRating_firsttwo	6	1	0	0	300	300	0	0	7431	line	-20,99609375	0	0	0	0	1	eraser	1	1	Wie angenehm oder unangenehm finden Sie die  Buchstabenkette WFPH?	1	1	leftborder	1	1	rightborder	1	1	line	1	1	Unangenehm	1	1	Angenehm	1	0	0	0	0	0	0	0	0	0	0	0	0	0	0	0	0	0	0	0	0	0	0	0	0	0	0	0	0	0	0	0	0	0
121118	10:31:03	10:41:12	608917	5.0.10.0	4_exp_EVA_AMP_AWA_CON	2	Rpleas_acq	Same	Rpleas	Bmasked	CS_B	1pleas	distractor2	EVAbeforeCON	EvalRating_lastfour	EvalRating_lastfour	7	1	0	0	300	300	0	0	3670	line	-29,296875	0	0	0	0	1	eraser	0	3	Wie angenehm oder unangenehm finden Sie die  Buchstabenkette JCRD?	0	1	leftborder	0	1	rightborder	0	1	line	0	1	Unangenehm	0	1	Angenehm	0	0	0	0	0	0	0	0	0	0	0	0	0	0	0	0	0	0	0	0	0	0	0	0	0	0	0	0	0	0	0	0	0	0
121118	10:31:03	10:41:15	611302	5.0.10.0	4_exp_EVA_AMP_AWA_CON	2	Rpleas_acq	Same	Rpleas	Bmasked	CS_B	1pleas	distractor2	EVAbeforeCON	blank_screen	EvalRating_lastfour	7	3	0	0	300	300	0	0	0	0	-29,296875	0	0	0	0	1	eraser	0	0	0	0	0	0	0	0	0	0	0	0	0	0	0	0	0	0	0	0	0	0	0	0	0	0	0	0	0	0	0	0	0	0	0	0	0	0	0	0	0	0	0	0	0	0	0	0	0	0	0	0
121118	10:31:03	10:41:18	614341	5.0.10.0	4_exp_EVA_AMP_AWA_CON	2	Rpleas_acq	Same	Rpleas	Bmasked	CS_B	1pleas	distractor2	EVAbeforeCON	EvalRating_lastfour	EvalRating_lastfour	7	4	0	0	300	300	0	0	2443	line	22,4609375	0	0	0	0	1	eraser	0	1	Wie angenehm oder unangenehm finden Sie die  Buchstabenkette BMVZ?	0	1	leftborder	0	1	rightborder	0	1	line	0	1	Unangenehm	0	1	Angenehm	0	0	0	0	0	0	0	0	0	0	0	0	0	0	0	0	0	0	0	0	0	0	0	0	0	0	0	0	0	0	0	0	0	0
121118	10:31:03	10:41:20	616740	5.0.10.0	4_exp_EVA_AMP_AWA_CON	2	Rpleas_acq	Same	Rpleas	Bmasked	CS_B	1pleas	distractor2	EVAbeforeCON	blank_screen	EvalRating_lastfour	7	6	0	0	300	300	0	0	0	0	22,4609375	0	0	0	0	1	eraser	0	0	0	0	0	0	0	0	0	0	0	0	0	0	0	0	0	0	0	0	0	0	0	0	0	0	0	0	0	0	0	0	0	0	0	0	0	0	0	0	0	0	0	0	0	0	0	0	0	0	0	0
121118	10:31:03	10:41:23	619726	5.0.10.0	4_exp_EVA_AMP_AWA_CON	2	Rpleas_acq	Same	Rpleas	Bmasked	CS_B	1pleas	distractor2	EVAbeforeCON	EvalRating_lastfour	EvalRating_lastfour	7	7	0	0	300	300	0	0	2403	line	-65,4296875	0	0	0	0	1	eraser	1	2	Wie angenehm oder unangenehm finden Sie die  Buchstabenkette GKQX?	1	1	leftborder	1	1	rightborder	1	1	line	1	1	Unangenehm	1	1	Angenehm	1	0	0	0	0	0	0	0	0	0	0	0	0	0	0	0	0	0	0	0	0	0	0	0	0	0	0	0	0	0	0	0	0	0
121118	10:31:03	10:42:03	659882	5.0.10.0	4_exp_EVA_AMP_AWA_CON	2	Rpleas_acq	Same	Rpleas	Bmasked	CS_B	1pleas	distractor2	EVAbeforeCON	AMP_distractor	AMP1_masked	8	1	0	0	300	300	0	0	6860	46	-65,4296875	0	0	0	0	1	blank2r.bmp	0	1	JCRD	0	1	blank2r.bmp	79	58	pic58.bmp	199	1	whitenoise_No3.bmp	306	0	0	0	0	0	0	0	0	0	0	0	0	0	0	0	0	0	0	0	0	0	0	0	0	0	0	0	0	0	0	0	0	0	0	0	0	0	0	0
121118	10:31:03	10:42:06	662761	5.0.10.0	4_exp_EVA_AMP_AWA_CON	2	Rpleas_acq	Same	Rpleas	Bmasked	CS_B	1pleas	distractor2	EVAbeforeCON	AMP_CSpleas	AMP1_masked	8	2	0	0	300	300	0	0	1946	46	-65,4296875	0	0	0	0	1	blank2r.bmp	0	1	BMVZ	0	1	blank2r.bmp	79	20	pic20.bmp	199	1	whitenoise_No3.bmp	306	0	0	0	0	0	0	0	0	0	0	0	0	0	0	0	0	0	0	0	0	0	0	0	0	0	0	0	0	0	0	0	0	0	0	0	0	0	0	0
121118	10:31:03	10:42:09	665373	5.0.10.0	4_exp_EVA_AMP_AWA_CON	2	Rpleas_acq	Same	Rpleas	Bmasked	CS_B	1pleas	distractor2	EVAbeforeCON	AMP_CSpleas	AMP1_masked	8	3	0	0	300	300	0	0	1692	50	-65,4296875	1	0	0	0	1	blank2r.bmp	0	1	BMVZ	0	1	blank2r.bmp	79	74	pic74.bmp	199	1	whitenoise_No3.bmp	306	0	0	0	0	0	0	0	0	0	0	0	0	0	0	0	0	0	0	0	0	0	0	0	0	0	0	0	0	0	0	0	0	0	0	0	0	0	0	0
121118	10:31:03	10:42:10	667119	5.0.10.0	4_exp_EVA_AMP_AWA_CON	2	Rpleas_acq	Same	Rpleas	Bmasked	CS_B	1pleas	distractor2	EVAbeforeCON	AMP_CSpleas	AMP1_masked	8	4	0	0	300	300	0	0	825	46	-65,4296875	0	0	0	0	1	blank2r.bmp	0	1	BMVZ	0	1	blank2r.bmp	79	16	pic16.bmp	199	1	whitenoise_No3.bmp	306	0	0	0	0	0	0	0	0	0	0	0	0	0	0	0	0	0	0	0	0	0	0	0	0	0	0	0	0	0	0	0	0	0	0	0	0	0	0	0
121118	10:31:03	10:42:14	670451	5.0.10.0	4_exp_EVA_AMP_AWA_CON	2	Rpleas_acq	Same	Rpleas	Bmasked	CS_B	1pleas	distractor2	EVAbeforeCON	AMP_distractor	AMP1_masked	8	5	0	0	300	300	0	0	2405	50	-65,4296875	0	0	0	0	1	blank2r.bmp	0	1	JCRD	0	1	blank2r.bmp	79	87	pic87.bmp	199	1	whitenoise_No3.bmp	306	0	0	0	0	0	0	0	0	0	0	0	0	0	0	0	0	0	0	0	0	0	0	0	0	0	0	0	0	0	0	0	0	0	0	0	0	0	0	0
121118	10:31:03	10:42:16	672343	5.0.10.0	4_exp_EVA_AMP_AWA_CON	2	Rpleas_acq	Same	Rpleas	Bmasked	CS_B	1pleas	distractor2	EVAbeforeCON	AMP_CSunple	AMP1_masked	8	6	0	0	300	300	0	0	967	46	-65,4296875	1	0	0	0	1	blank2r.bmp	0	1	GKQX	0	1	blank2r.bmp	79	101	pic101.bmp	199	1	whitenoise_No3.bmp	306	0	0	0	0	0	0	0	0	0	0	0	0	0	0	0	0	0	0	0	0	0	0	0	0	0	0	0	0	0	0	0	0	0	0	0	0	0	0	0
121118	10:31:03	10:42:17	674076	5.0.10.0	4_exp_EVA_AMP_AWA_CON	2	Rpleas_acq	Same	Rpleas	Bmasked	CS_B	1pleas	distractor2	EVAbeforeCON	AMP_CSunple	AMP1_masked	8	7	0	0	300	300	0	0	811	46	-65,4296875	1	0	0	0	1	blank2r.bmp	0	1	GKQX	0	1	blank2r.bmp	79	138	pic138.bmp	199	1	whitenoise_No3.bmp	306	0	0	0	0	0	0	0	0	0	0	0	0	0	0	0	0	0	0	0	0	0	0	0	0	0	0	0	0	0	0	0	0	0	0	0	0	0	0	0
121118	10:31:03	10:42:19	675809	5.0.10.0	4_exp_EVA_AMP_AWA_CON	2	Rpleas_acq	Same	Rpleas	Bmasked	CS_B	1pleas	distractor2	EVAbeforeCON	AMP_CSpleas	AMP1_masked	8	8	0	0	300	300	0	0	808	50	-65,4296875	1	0	0	0	1	blank2r.bmp	0	1	BMVZ	0	1	blank2r.bmp	79	104	pic104.bmp	199	1	whitenoise_No3.bmp	306	0	0	0	0	0	0	0	0	0	0	0	0	0	0	0	0	0	0	0	0	0	0	0	0	0	0	0	0	0	0	0	0	0	0	0	0	0	0	0
121118	10:31:03	10:42:21	677421	5.0.10.0	4_exp_EVA_AMP_AWA_CON	2	Rpleas_acq	Same	Rpleas	Bmasked	CS_B	1pleas	distractor2	EVAbeforeCON	AMP_distractor	AMP1_masked	8	9	0	0	300	300	0	0	689	50	-65,4296875	0	0	0	0	1	blank2r.bmp	0	1	JCRD	0	1	blank2r.bmp	79	129	pic129.bmp	199	1	whitenoise_No3.bmp	306	0	0	0	0	0	0	0	0	0	0	0	0	0	0	0	0	0	0	0	0	0	0	0	0	0	0	0	0	0	0	0	0	0	0	0	0	0	0	0
121118	10:31:03	10:42:22	679034	5.0.10.0	4_exp_EVA_AMP_AWA_CON	2	Rpleas_acq	Same	Rpleas	Bmasked	CS_B	1pleas	distractor2	EVAbeforeCON	AMP_distractor	AMP1_masked	8	10	0	0	300	300	0	0	689	50	-65,4296875	0	0	0	0	1	blank2r.bmp	0	1	JCRD	0	1	blank2r.bmp	79	98	pic98.bmp	199	1	whitenoise_No3.bmp	306	0	0	0	0	0	0	0	0	0	0	0	0	0	0	0	0	0	0	0	0	0	0	0	0	0	0	0	0	0	0	0	0	0	0	0	0	0	0	0
121118	10:31:03	10:42:24	680807	5.0.10.0	4_exp_EVA_AMP_AWA_CON	2	Rpleas_acq	Same	Rpleas	Bmasked	CS_B	1pleas	distractor2	EVAbeforeCON	AMP_CSpleas	AMP1_masked	8	11	0	0	300	300	0	0	846	50	-65,4296875	1	0	0	0	1	blank2r.bmp	0	1	BMVZ	0	1	blank2r.bmp	79	63	pic63.bmp	199	1	whitenoise_No3.bmp	306	0	0	0	0	0	0	0	0	0	0	0	0	0	0	0	0	0	0	0	0	0	0	0	0	0	0	0	0	0	0	0	0	0	0	0	0	0	0	0
121118	10:31:03	10:42:26	682446	5.0.10.0	4_exp_EVA_AMP_AWA_CON	2	Rpleas_acq	Same	Rpleas	Bmasked	CS_B	1pleas	distractor2	EVAbeforeCON	AMP_distractor	AMP1_masked	8	12	0	0	300	300	0	0	718	50	-65,4296875	0	0	0	0	1	blank2r.bmp	0	1	JCRD	0	1	blank2r.bmp	79	31	pic31.bmp	199	1	whitenoise_No3.bmp	306	0	0	0	0	0	0	0	0	0	0	0	0	0	0	0	0	0	0	0	0	0	0	0	0	0	0	0	0	0	0	0	0	0	0	0	0	0	0	0
121118	10:31:03	10:42:27	684045	5.0.10.0	4_exp_EVA_AMP_AWA_CON	2	Rpleas_acq	Same	Rpleas	Bmasked	CS_B	1pleas	distractor2	EVAbeforeCON	AMP_CSunple	AMP1_masked	8	13	0	0	300	300	0	0	691	50	-65,4296875	0	0	0	0	1	blank2r.bmp	0	1	GKQX	0	1	blank2r.bmp	79	36	pic36.bmp	199	1	whitenoise_No3.bmp	306	0	0	0	0	0	0	0	0	0	0	0	0	0	0	0	0	0	0	0	0	0	0	0	0	0	0	0	0	0	0	0	0	0	0	0	0	0	0	0
121118	10:31:03	10:42:29	685658	5.0.10.0	4_exp_EVA_AMP_AWA_CON	2	Rpleas_acq	Same	Rpleas	Bmasked	CS_B	1pleas	distractor2	EVAbeforeCON	AMP_CSunple	AMP1_masked	8	14	0	0	300	300	0	0	682	46	-65,4296875	1	0	0	0	1	blank2r.bmp	0	1	GKQX	0	1	blank2r.bmp	79	37	pic37.bmp	199	1	whitenoise_No3.bmp	306	0	0	0	0	0	0	0	0	0	0	0	0	0	0	0	0	0	0	0	0	0	0	0	0	0	0	0	0	0	0	0	0	0	0	0	0	0	0	0
121118	10:31:03	10:42:31	687324	5.0.10.0	4_exp_EVA_AMP_AWA_CON	2	Rpleas_acq	Same	Rpleas	Bmasked	CS_B	1pleas	distractor2	EVAbeforeCON	AMP_distractor	AMP1_masked	8	15	0	0	300	300	0	0	750	46	-65,4296875	0	0	0	0	1	blank2r.bmp	0	1	JCRD	0	1	blank2r.bmp	79	56	pic56.bmp	199	1	whitenoise_No3.bmp	306	0	0	0	0	0	0	0	0	0	0	0	0	0	0	0	0	0	0	0	0	0	0	0	0	0	0	0	0	0	0	0	0	0	0	0	0	0	0	0
121118	10:31:03	10:42:32	689163	5.0.10.0	4_exp_EVA_AMP_AWA_CON	2	Rpleas_acq	Same	Rpleas	Bmasked	CS_B	1pleas	distractor2	EVAbeforeCON	AMP_CSpleas	AMP1_masked	8	16	0	0	300	300	0	0	921	46	-65,4296875	0	0	0	0	1	blank2r.bmp	0	1	BMVZ	0	1	blank2r.bmp	79	124	pic124.bmp	199	1	whitenoise_No3.bmp	306	0	0	0	0	0	0	0	0	0	0	0	0	0	0	0	0	0	0	0	0	0	0	0	0	0	0	0	0	0	0	0	0	0	0	0	0	0	0	0
121118	10:31:03	10:42:34	690802	5.0.10.0	4_exp_EVA_AMP_AWA_CON	2	Rpleas_acq	Same	Rpleas	Bmasked	CS_B	1pleas	distractor2	EVAbeforeCON	AMP_distractor	AMP1_masked	8	17	0	0	300	300	0	0	715	46	-65,4296875	0	0	0	0	1	blank2r.bmp	0	1	JCRD	0	1	blank2r.bmp	79	133	pic133.bmp	199	1	whitenoise_No3.bmp	306	0	0	0	0	0	0	0	0	0	0	0	0	0	0	0	0	0	0	0	0	0	0	0	0	0	0	0	0	0	0	0	0	0	0	0	0	0	0	0
121118	10:31:03	10:42:36	692468	5.0.10.0	4_exp_EVA_AMP_AWA_CON	2	Rpleas_acq	Same	Rpleas	Bmasked	CS_B	1pleas	distractor2	EVAbeforeCON	AMP_distractor	AMP1_masked	8	18	0	0	300	300	0	0	754	50	-65,4296875	0	0	0	0	1	blank2r.bmp	0	1	JCRD	0	1	blank2r.bmp	79	7	pic7.bmp	199	1	whitenoise_No3.bmp	306	0	0	0	0	0	0	0	0	0	0	0	0	0	0	0	0	0	0	0	0	0	0	0	0	0	0	0	0	0	0	0	0	0	0	0	0	0	0	0
121118	10:31:03	10:42:38	694214	5.0.10.0	4_exp_EVA_AMP_AWA_CON	2	Rpleas_acq	Same	Rpleas	Bmasked	CS_B	1pleas	distractor2	EVAbeforeCON	AMP_CSpleas	AMP1_masked	8	19	0	0	300	300	0	0	824	46	-65,4296875	0	0	0	0	1	blank2r.bmp	0	1	BMVZ	0	1	blank2r.bmp	79	81	pic81.bmp	199	1	whitenoise_No3.bmp	306	0	0	0	0	0	0	0	0	0	0	0	0	0	0	0	0	0	0	0	0	0	0	0	0	0	0	0	0	0	0	0	0	0	0	0	0	0	0	0
121118	10:31:03	10:42:39	695747	5.0.10.0	4_exp_EVA_AMP_AWA_CON	2	Rpleas_acq	Same	Rpleas	Bmasked	CS_B	1pleas	distractor2	EVAbeforeCON	AMP_CSpleas	AMP1_masked	8	20	0	0	300	300	0	0	601	46	-65,4296875	0	0	0	0	1	blank2r.bmp	0	1	BMVZ	0	1	blank2r.bmp	79	52	pic52.bmp	199	1	whitenoise_No3.bmp	306	0	0	0	0	0	0	0	0	0	0	0	0	0	0	0	0	0	0	0	0	0	0	0	0	0	0	0	0	0	0	0	0	0	0	0	0	0	0	0
121118	10:31:03	10:42:40	697173	5.0.10.0	4_exp_EVA_AMP_AWA_CON	2	Rpleas_acq	Same	Rpleas	Bmasked	CS_B	1pleas	distractor2	EVAbeforeCON	AMP_CSunple	AMP1_masked	8	21	0	0	300	300	0	0	498	50	-65,4296875	0	0	0	0	1	blank2r.bmp	0	1	GKQX	0	1	blank2r.bmp	79	90	pic90.bmp	199	1	whitenoise_No3.bmp	306	0	0	0	0	0	0	0	0	0	0	0	0	0	0	0	0	0	0	0	0	0	0	0	0	0	0	0	0	0	0	0	0	0	0	0	0	0	0	0
121118	10:31:03	10:42:42	698639	5.0.10.0	4_exp_EVA_AMP_AWA_CON	2	Rpleas_acq	Same	Rpleas	Bmasked	CS_B	1pleas	distractor2	EVAbeforeCON	AMP_distractor	AMP1_masked	8	22	0	0	300	300	0	0	547	50	-65,4296875	0	0	0	0	1	blank2r.bmp	0	1	JCRD	0	1	blank2r.bmp	79	108	pic108.bmp	199	1	whitenoise_No3.bmp	306	0	0	0	0	0	0	0	0	0	0	0	0	0	0	0	0	0	0	0	0	0	0	0	0	0	0	0	0	0	0	0	0	0	0	0	0	0	0	0
121118	10:31:03	10:42:43	700105	5.0.10.0	4_exp_EVA_AMP_AWA_CON	2	Rpleas_acq	Same	Rpleas	Bmasked	CS_B	1pleas	distractor2	EVAbeforeCON	AMP_distractor	AMP1_masked	8	23	0	0	300	300	0	0	556	46	-65,4296875	0	0	0	0	1	blank2r.bmp	0	1	JCRD	0	1	blank2r.bmp	79	45	pic45.bmp	199	1	whitenoise_No3.bmp	306	0	0	0	0	0	0	0	0	0	0	0	0	0	0	0	0	0	0	0	0	0	0	0	0	0	0	0	0	0	0	0	0	0	0	0	0	0	0	0
121118	10:31:03	10:42:45	701851	5.0.10.0	4_exp_EVA_AMP_AWA_CON	2	Rpleas_acq	Same	Rpleas	Bmasked	CS_B	1pleas	distractor2	EVAbeforeCON	AMP_CSunple	AMP1_masked	8	24	0	0	300	300	0	0	817	50	-65,4296875	0	0	0	0	1	blank2r.bmp	0	1	GKQX	0	1	blank2r.bmp	79	132	pic132.bmp	199	1	whitenoise_No3.bmp	306	0	0	0	0	0	0	0	0	0	0	0	0	0	0	0	0	0	0	0	0	0	0	0	0	0	0	0	0	0	0	0	0	0	0	0	0	0	0	0
121118	10:31:03	10:42:47	703770	5.0.10.0	4_exp_EVA_AMP_AWA_CON	2	Rpleas_acq	Same	Rpleas	Bmasked	CS_B	1pleas	distractor2	EVAbeforeCON	AMP_CSpleas	AMP1_masked	8	25	0	0	300	300	0	0	1005	46	-65,4296875	0	0	0	0	1	blank2r.bmp	0	1	BMVZ	0	1	blank2r.bmp	79	64	pic64.bmp	199	1	whitenoise_No3.bmp	306	0	0	0	0	0	0	0	0	0	0	0	0	0	0	0	0	0	0	0	0	0	0	0	0	0	0	0	0	0	0	0	0	0	0	0	0	0	0	0
121118	10:31:03	10:42:49	705316	5.0.10.0	4_exp_EVA_AMP_AWA_CON	2	Rpleas_acq	Same	Rpleas	Bmasked	CS_B	1pleas	distractor2	EVAbeforeCON	AMP_CSpleas	AMP1_masked	8	26	0	0	300	300	0	0	638	50	-65,4296875	1	0	0	0	1	blank2r.bmp	0	1	BMVZ	0	1	blank2r.bmp	79	91	pic91.bmp	199	1	whitenoise_No3.bmp	306	0	0	0	0	0	0	0	0	0	0	0	0	0	0	0	0	0	0	0	0	0	0	0	0	0	0	0	0	0	0	0	0	0	0	0	0	0	0	0
121118	10:31:03	10:42:50	707049	5.0.10.0	4_exp_EVA_AMP_AWA_CON	2	Rpleas_acq	Same	Rpleas	Bmasked	CS_B	1pleas	distractor2	EVAbeforeCON	AMP_distractor	AMP1_masked	8	27	0	0	300	300	0	0	809	50	-65,4296875	0	0	0	0	1	blank2r.bmp	0	1	JCRD	0	1	blank2r.bmp	79	55	pic55.bmp	199	1	whitenoise_No3.bmp	306	0	0	0	0	0	0	0	0	0	0	0	0	0	0	0	0	0	0	0	0	0	0	0	0	0	0	0	0	0	0	0	0	0	0	0	0	0	0	0
121118	10:31:03	10:42:52	708302	5.0.10.0	4_exp_EVA_AMP_AWA_CON	2	Rpleas_acq	Same	Rpleas	Bmasked	CS_B	1pleas	distractor2	EVAbeforeCON	AMP_distractor	AMP1_masked	8	28	0	0	300	300	0	0	328	50	-65,4296875	0	0	0	0	1	blank2r.bmp	0	1	JCRD	0	1	blank2r.bmp	79	35	pic35.bmp	199	1	whitenoise_No3.bmp	306	0	0	0	0	0	0	0	0	0	0	0	0	0	0	0	0	0	0	0	0	0	0	0	0	0	0	0	0	0	0	0	0	0	0	0	0	0	0	0
121118	10:31:03	10:42:53	709555	5.0.10.0	4_exp_EVA_AMP_AWA_CON	2	Rpleas_acq	Same	Rpleas	Bmasked	CS_B	1pleas	distractor2	EVAbeforeCON	AMP_distractor	AMP1_masked	8	29	0	0	300	300	0	0	319	50	-65,4296875	0	0	0	0	1	blank2r.bmp	0	1	JCRD	0	1	blank2r.bmp	79	93	pic93.bmp	199	1	whitenoise_No3.bmp	306	0	0	0	0	0	0	0	0	0	0	0	0	0	0	0	0	0	0	0	0	0	0	0	0	0	0	0	0	0	0	0	0	0	0	0	0	0	0	0
121118	10:31:03	10:42:54	711181	5.0.10.0	4_exp_EVA_AMP_AWA_CON	2	Rpleas_acq	Same	Rpleas	Bmasked	CS_B	1pleas	distractor2	EVAbeforeCON	AMP_CSunple	AMP1_masked	8	30	0	0	300	300	0	0	705	50	-65,4296875	0	0	0	0	1	blank2r.bmp	0	1	GKQX	0	1	blank2r.bmp	79	62	pic62.bmp	199	1	whitenoise_No3.bmp	306	0	0	0	0	0	0	0	0	0	0	0	0	0	0	0	0	0	0	0	0	0	0	0	0	0	0	0	0	0	0	0	0	0	0	0	0	0	0	0
121118	10:31:03	10:42:56	712607	5.0.10.0	4_exp_EVA_AMP_AWA_CON	2	Rpleas_acq	Same	Rpleas	Bmasked	CS_B	1pleas	distractor2	EVAbeforeCON	AMP_CSpleas	AMP1_masked	8	31	0	0	300	300	0	0	513	46	-65,4296875	0	0	0	0	1	blank2r.bmp	0	1	BMVZ	0	1	blank2r.bmp	79	1	pic1.bmp	199	1	whitenoise_No3.bmp	306	0	0	0	0	0	0	0	0	0	0	0	0	0	0	0	0	0	0	0	0	0	0	0	0	0	0	0	0	0	0	0	0	0	0	0	0	0	0	0
121118	10:31:03	10:42:58	714219	5.0.10.0	4_exp_EVA_AMP_AWA_CON	2	Rpleas_acq	Same	Rpleas	Bmasked	CS_B	1pleas	distractor2	EVAbeforeCON	AMP_CSpleas	AMP1_masked	8	32	0	0	300	300	0	0	684	50	-65,4296875	1	0	0	0	1	blank2r.bmp	0	1	BMVZ	0	1	blank2r.bmp	79	100	pic100.bmp	199	1	whitenoise_No3.bmp	306	0	0	0	0	0	0	0	0	0	0	0	0	0	0	0	0	0	0	0	0	0	0	0	0	0	0	0	0	0	0	0	0	0	0	0	0	0	0	0
121118	10:31:03	10:42:59	715672	5.0.10.0	4_exp_EVA_AMP_AWA_CON	2	Rpleas_acq	Same	Rpleas	Bmasked	CS_B	1pleas	distractor2	EVAbeforeCON	AMP_distractor	AMP1_masked	8	33	0	0	300	300	0	0	537	50	-65,4296875	0	0	0	0	1	blank2r.bmp	0	1	JCRD	0	1	blank2r.bmp	79	22	pic22.bmp	199	1	whitenoise_No3.bmp	306	0	0	0	0	0	0	0	0	0	0	0	0	0	0	0	0	0	0	0	0	0	0	0	0	0	0	0	0	0	0	0	0	0	0	0	0	0	0	0
121118	10:31:03	10:43:01	717591	5.0.10.0	4_exp_EVA_AMP_AWA_CON	2	Rpleas_acq	Same	Rpleas	Bmasked	CS_B	1pleas	distractor2	EVAbeforeCON	AMP_CSunple	AMP1_masked	8	34	0	0	300	300	0	0	1000	46	-65,4296875	1	0	0	0	1	blank2r.bmp	0	1	GKQX	0	1	blank2r.bmp	79	23	pic23.bmp	199	1	whitenoise_No3.bmp	306	0	0	0	0	0	0	0	0	0	0	0	0	0	0	0	0	0	0	0	0	0	0	0	0	0	0	0	0	0	0	0	0	0	0	0	0	0	0	0
121118	10:31:03	10:43:03	719257	5.0.10.0	4_exp_EVA_AMP_AWA_CON	2	Rpleas_acq	Same	Rpleas	Bmasked	CS_B	1pleas	distractor2	EVAbeforeCON	AMP_distractor	AMP1_masked	8	35	0	0	300	300	0	0	746	46	-65,4296875	0	0	0	0	1	blank2r.bmp	0	1	JCRD	0	1	blank2r.bmp	79	50	pic50.bmp	199	1	whitenoise_No3.bmp	306	0	0	0	0	0	0	0	0	0	0	0	0	0	0	0	0	0	0	0	0	0	0	0	0	0	0	0	0	0	0	0	0	0	0	0	0	0	0	0
121118	10:31:03	10:43:04	721110	5.0.10.0	4_exp_EVA_AMP_AWA_CON	2	Rpleas_acq	Same	Rpleas	Bmasked	CS_B	1pleas	distractor2	EVAbeforeCON	AMP_CSpleas	AMP1_masked	8	36	0	0	300	300	0	0	940	46	-65,4296875	0	0	0	0	1	blank2r.bmp	0	1	BMVZ	0	1	blank2r.bmp	79	67	pic67.bmp	199	1	whitenoise_No3.bmp	306	0	0	0	0	0	0	0	0	0	0	0	0	0	0	0	0	0	0	0	0	0	0	0	0	0	0	0	0	0	0	0	0	0	0	0	0	0	0	0
121118	10:31:03	10:43:06	722616	5.0.10.0	4_exp_EVA_AMP_AWA_CON	2	Rpleas_acq	Same	Rpleas	Bmasked	CS_B	1pleas	distractor2	EVAbeforeCON	AMP_CSpleas	AMP1_masked	8	37	0	0	300	300	0	0	579	46	-65,4296875	0	0	0	0	1	blank2r.bmp	0	1	BMVZ	0	1	blank2r.bmp	79	82	pic82.bmp	199	1	whitenoise_No3.bmp	306	0	0	0	0	0	0	0	0	0	0	0	0	0	0	0	0	0	0	0	0	0	0	0	0	0	0	0	0	0	0	0	0	0	0	0	0	0	0	0
121118	10:31:03	10:43:07	723975	5.0.10.0	4_exp_EVA_AMP_AWA_CON	2	Rpleas_acq	Same	Rpleas	Bmasked	CS_B	1pleas	distractor2	EVAbeforeCON	AMP_CSunple	AMP1_masked	8	38	0	0	300	300	0	0	442	50	-65,4296875	0	0	0	0	1	blank2r.bmp	0	1	GKQX	0	1	blank2r.bmp	79	150	pic150.bmp	199	1	whitenoise_No3.bmp	306	0	0	0	0	0	0	0	0	0	0	0	0	0	0	0	0	0	0	0	0	0	0	0	0	0	0	0	0	0	0	0	0	0	0	0	0	0	0	0
121118	10:31:03	10:43:09	725308	5.0.10.0	4_exp_EVA_AMP_AWA_CON	2	Rpleas_acq	Same	Rpleas	Bmasked	CS_B	1pleas	distractor2	EVAbeforeCON	AMP_CSpleas	AMP1_masked	8	39	0	0	300	300	0	0	412	50	-65,4296875	1	0	0	0	1	blank2r.bmp	0	1	BMVZ	0	1	blank2r.bmp	79	2	pic2.bmp	199	1	whitenoise_No3.bmp	306	0	0	0	0	0	0	0	0	0	0	0	0	0	0	0	0	0	0	0	0	0	0	0	0	0	0	0	0	0	0	0	0	0	0	0	0	0	0	0
121118	10:31:03	10:43:10	726734	5.0.10.0	4_exp_EVA_AMP_AWA_CON	2	Rpleas_acq	Same	Rpleas	Bmasked	CS_B	1pleas	distractor2	EVAbeforeCON	AMP_CSunple	AMP1_masked	8	40	0	0	300	300	0	0	498	50	-65,4296875	0	0	0	0	1	blank2r.bmp	0	1	GKQX	0	1	blank2r.bmp	79	30	pic30.bmp	199	1	whitenoise_No3.bmp	306	0	0	0	0	0	0	0	0	0	0	0	0	0	0	0	0	0	0	0	0	0	0	0	0	0	0	0	0	0	0	0	0	0	0	0	0	0	0	0
121118	10:31:03	10:43:12	728267	5.0.10.0	4_exp_EVA_AMP_AWA_CON	2	Rpleas_acq	Same	Rpleas	Bmasked	CS_B	1pleas	distractor2	EVAbeforeCON	AMP_CSunple	AMP1_masked	8	41	0	0	300	300	0	0	616	50	-65,4296875	0	0	0	0	1	blank2r.bmp	0	1	GKQX	0	1	blank2r.bmp	79	80	pic80.bmp	199	1	whitenoise_No3.bmp	306	0	0	0	0	0	0	0	0	0	0	0	0	0	0	0	0	0	0	0	0	0	0	0	0	0	0	0	0	0	0	0	0	0	0	0	0	0	0	0
121118	10:31:03	10:43:13	729799	5.0.10.0	4_exp_EVA_AMP_AWA_CON	2	Rpleas_acq	Same	Rpleas	Bmasked	CS_B	1pleas	distractor2	EVAbeforeCON	AMP_CSunple	AMP1_masked	8	42	0	0	300	300	0	0	608	50	-65,4296875	0	0	0	0	1	blank2r.bmp	0	1	GKQX	0	1	blank2r.bmp	79	143	pic143.bmp	199	1	whitenoise_No3.bmp	306	0	0	0	0	0	0	0	0	0	0	0	0	0	0	0	0	0	0	0	0	0	0	0	0	0	0	0	0	0	0	0	0	0	0	0	0	0	0	0
121118	10:31:03	10:43:15	731252	5.0.10.0	4_exp_EVA_AMP_AWA_CON	2	Rpleas_acq	Same	Rpleas	Bmasked	CS_B	1pleas	distractor2	EVAbeforeCON	AMP_distractor	AMP1_masked	8	43	0	0	300	300	0	0	526	46	-65,4296875	0	0	0	0	1	blank2r.bmp	0	1	JCRD	0	1	blank2r.bmp	79	88	pic88.bmp	199	1	whitenoise_No3.bmp	306	0	0	0	0	0	0	0	0	0	0	0	0	0	0	0	0	0	0	0	0	0	0	0	0	0	0	0	0	0	0	0	0	0	0	0	0	0	0	0
121118	10:31:03	10:43:16	733091	5.0.10.0	4_exp_EVA_AMP_AWA_CON	2	Rpleas_acq	Same	Rpleas	Bmasked	CS_B	1pleas	distractor2	EVAbeforeCON	AMP_CSunple	AMP1_masked	8	44	0	0	300	300	0	0	915	50	-65,4296875	0	0	0	0	1	blank2r.bmp	0	1	GKQX	0	1	blank2r.bmp	79	145	pic145.bmp	199	1	whitenoise_No3.bmp	306	0	0	0	0	0	0	0	0	0	0	0	0	0	0	0	0	0	0	0	0	0	0	0	0	0	0	0	0	0	0	0	0	0	0	0	0	0	0	0
121118	10:31:03	10:43:18	734651	5.0.10.0	4_exp_EVA_AMP_AWA_CON	2	Rpleas_acq	Same	Rpleas	Bmasked	CS_B	1pleas	distractor2	EVAbeforeCON	AMP_CSpleas	AMP1_masked	8	45	0	0	300	300	0	0	637	46	-65,4296875	0	0	0	0	1	blank2r.bmp	0	1	BMVZ	0	1	blank2r.bmp	79	5	pic5.bmp	199	1	whitenoise_No3.bmp	306	0	0	0	0	0	0	0	0	0	0	0	0	0	0	0	0	0	0	0	0	0	0	0	0	0	0	0	0	0	0	0	0	0	0	0	0	0	0	0
121118	10:31:03	10:43:20	736836	5.0.10.0	4_exp_EVA_AMP_AWA_CON	2	Rpleas_acq	Same	Rpleas	Bmasked	CS_B	1pleas	distractor2	EVAbeforeCON	AMP_CSunple	AMP1_masked	8	46	0	0	300	300	0	0	1260	46	-65,4296875	1	0	0	0	1	blank2r.bmp	0	1	GKQX	0	1	blank2r.bmp	79	85	pic85.bmp	199	1	whitenoise_No3.bmp	306	0	0	0	0	0	0	0	0	0	0	0	0	0	0	0	0	0	0	0	0	0	0	0	0	0	0	0	0	0	0	0	0	0	0	0	0	0	0	0
121118	10:31:03	10:43:22	738236	5.0.10.0	4_exp_EVA_AMP_AWA_CON	2	Rpleas_acq	Same	Rpleas	Bmasked	CS_B	1pleas	distractor2	EVAbeforeCON	AMP_CSunple	AMP1_masked	8	47	0	0	300	300	0	0	465	50	-65,4296875	0	0	0	0	1	blank2r.bmp	0	1	GKQX	0	1	blank2r.bmp	79	114	pic114.bmp	199	1	whitenoise_No3.bmp	306	0	0	0	0	0	0	0	0	0	0	0	0	0	0	0	0	0	0	0	0	0	0	0	0	0	0	0	0	0	0	0	0	0	0	0	0	0	0	0
121118	10:31:03	10:43:23	740048	5.0.10.0	4_exp_EVA_AMP_AWA_CON	2	Rpleas_acq	Same	Rpleas	Bmasked	CS_B	1pleas	distractor2	EVAbeforeCON	AMP_distractor	AMP1_masked	8	48	0	0	300	300	0	0	892	46	-65,4296875	0	0	0	0	1	blank2r.bmp	0	1	JCRD	0	1	blank2r.bmp	79	4	pic4.bmp	199	1	whitenoise_No3.bmp	306	0	0	0	0	0	0	0	0	0	0	0	0	0	0	0	0	0	0	0	0	0	0	0	0	0	0	0	0	0	0	0	0	0	0	0	0	0	0	0
121118	10:31:03	10:43:25	741768	5.0.10.0	4_exp_EVA_AMP_AWA_CON	2	Rpleas_acq	Same	Rpleas	Bmasked	CS_B	1pleas	distractor2	EVAbeforeCON	AMP_CSpleas	AMP1_masked	8	49	0	0	300	300	0	0	799	50	-65,4296875	1	0	0	0	1	blank2r.bmp	0	1	BMVZ	0	1	blank2r.bmp	79	10	pic10.bmp	199	1	whitenoise_No3.bmp	306	0	0	0	0	0	0	0	0	0	0	0	0	0	0	0	0	0	0	0	0	0	0	0	0	0	0	0	0	0	0	0	0	0	0	0	0	0	0	0
121118	10:31:03	10:43:26	743087	5.0.10.0	4_exp_EVA_AMP_AWA_CON	2	Rpleas_acq	Same	Rpleas	Bmasked	CS_B	1pleas	distractor2	EVAbeforeCON	AMP_CSunple	AMP1_masked	8	50	0	0	300	300	0	0	410	50	-65,4296875	0	0	0	0	1	blank2r.bmp	0	1	GKQX	0	1	blank2r.bmp	79	121	pic121.bmp	199	1	whitenoise_No3.bmp	306	0	0	0	0	0	0	0	0	0	0	0	0	0	0	0	0	0	0	0	0	0	0	0	0	0	0	0	0	0	0	0	0	0	0	0	0	0	0	0
121118	10:31:03	10:43:28	744487	5.0.10.0	4_exp_EVA_AMP_AWA_CON	2	Rpleas_acq	Same	Rpleas	Bmasked	CS_B	1pleas	distractor2	EVAbeforeCON	AMP_CSunple	AMP1_masked	8	51	0	0	300	300	0	0	468	50	-65,4296875	0	0	0	0	1	blank2r.bmp	0	1	GKQX	0	1	blank2r.bmp	79	51	pic51.bmp	199	1	whitenoise_No3.bmp	306	0	0	0	0	0	0	0	0	0	0	0	0	0	0	0	0	0	0	0	0	0	0	0	0	0	0	0	0	0	0	0	0	0	0	0	0	0	0	0
121118	10:31:03	10:43:33	749738	5.0.10.0	4_exp_EVA_AMP_AWA_CON	2	Rpleas_acq	Same	Rpleas	Bmasked	CS_B	1pleas	distractor2	EVAbeforeCON	AMP_CSunple	AMP23	9	1	0	0	300	300	0	0	607	50	-65,4296875	0	0	0	0	1	blank2r.bmp	0	1	GKQX	0	1	blank2r.bmp	79	128	pic128.bmp	199	1	whitenoise_No3.bmp	306	0	0	0	0	0	0	0	0	0	0	0	0	0	0	0	0	0	0	0	0	0	0	0	0	0	0	0	0	0	0	0	0	0	0	0	0	0	0	0
121118	10:31:03	10:43:34	751137	5.0.10.0	4_exp_EVA_AMP_AWA_CON	2	Rpleas_acq	Same	Rpleas	Bmasked	CS_B	1pleas	distractor2	EVAbeforeCON	AMP_CSunple	AMP23	9	2	0	0	300	300	0	0	478	50	-65,4296875	0	0	0	0	1	blank2r.bmp	0	1	GKQX	0	1	blank2r.bmp	79	136	pic136.bmp	199	1	whitenoise_No3.bmp	306	0	0	0	0	0	0	0	0	0	0	0	0	0	0	0	0	0	0	0	0	0	0	0	0	0	0	0	0	0	0	0	0	0	0	0	0	0	0	0
121118	10:31:03	10:43:36	752390	5.0.10.0	4_exp_EVA_AMP_AWA_CON	2	Rpleas_acq	Same	Rpleas	Bmasked	CS_B	1pleas	distractor2	EVAbeforeCON	AMP_CSpleas	AMP23	9	3	0	0	300	300	0	0	328	50	-65,4296875	1	0	0	0	1	blank2r.bmp	0	1	BMVZ	0	1	blank2r.bmp	79	96	pic96.bmp	199	1	whitenoise_No3.bmp	306	0	0	0	0	0	0	0	0	0	0	0	0	0	0	0	0	0	0	0	0	0	0	0	0	0	0	0	0	0	0	0	0	0	0	0	0	0	0	0
121118	10:31:03	10:43:37	753603	5.0.10.0	4_exp_EVA_AMP_AWA_CON	2	Rpleas_acq	Same	Rpleas	Bmasked	CS_B	1pleas	distractor2	EVAbeforeCON	AMP_CSpleas	AMP23	9	4	0	0	300	300	0	0	281	50	-65,4296875	1	0	0	0	1	blank2r.bmp	0	1	BMVZ	0	1	blank2r.bmp	79	29	pic29.bmp	199	1	whitenoise_No3.bmp	306	0	0	0	0	0	0	0	0	0	0	0	0	0	0	0	0	0	0	0	0	0	0	0	0	0	0	0	0	0	0	0	0	0	0	0	0	0	0	0
121118	10:31:03	10:43:38	754816	5.0.10.0	4_exp_EVA_AMP_AWA_CON	2	Rpleas_acq	Same	Rpleas	Bmasked	CS_B	1pleas	distractor2	EVAbeforeCON	AMP_CSunple	AMP23	9	5	0	0	300	300	0	0	299	50	-65,4296875	0	0	0	0	1	blank2r.bmp	0	1	GKQX	0	1	blank2r.bmp	79	137	pic137.bmp	199	1	whitenoise_No3.bmp	306	0	0	0	0	0	0	0	0	0	0	0	0	0	0	0	0	0	0	0	0	0	0	0	0	0	0	0	0	0	0	0	0	0	0	0	0	0	0	0
121118	10:31:03	10:43:40	756215	5.0.10.0	4_exp_EVA_AMP_AWA_CON	2	Rpleas_acq	Same	Rpleas	Bmasked	CS_B	1pleas	distractor2	EVAbeforeCON	AMP_CSunple	AMP23	9	6	0	0	300	300	0	0	468	50	-65,4296875	0	0	0	0	1	blank2r.bmp	0	1	GKQX	0	1	blank2r.bmp	79	113	pic113.bmp	199	1	whitenoise_No3.bmp	306	0	0	0	0	0	0	0	0	0	0	0	0	0	0	0	0	0	0	0	0	0	0	0	0	0	0	0	0	0	0	0	0	0	0	0	0	0	0	0
121118	10:31:03	10:43:41	757508	5.0.10.0	4_exp_EVA_AMP_AWA_CON	2	Rpleas_acq	Same	Rpleas	Bmasked	CS_B	1pleas	distractor2	EVAbeforeCON	AMP_CSunple	AMP23	9	7	0	0	300	300	0	0	380	50	-65,4296875	0	0	0	0	1	blank2r.bmp	0	1	GKQX	0	1	blank2r.bmp	79	141	pic141.bmp	199	1	whitenoise_No3.bmp	306	0	0	0	0	0	0	0	0	0	0	0	0	0	0	0	0	0	0	0	0	0	0	0	0	0	0	0	0	0	0	0	0	0	0	0	0	0	0	0
121118	10:31:03	10:43:42	758667	5.0.10.0	4_exp_EVA_AMP_AWA_CON	2	Rpleas_acq	Same	Rpleas	Bmasked	CS_B	1pleas	distractor2	EVAbeforeCON	AMP_CSpleas	AMP23	9	8	0	0	300	300	0	0	240	50	-65,4296875	1	0	0	0	1	blank2r.bmp	0	1	BMVZ	0	1	blank2r.bmp	79	135	pic135.bmp	199	1	whitenoise_No3.bmp	306	0	0	0	0	0	0	0	0	0	0	0	0	0	0	0	0	0	0	0	0	0	0	0	0	0	0	0	0	0	0	0	0	0	0	0	0	0	0	0
121118	10:31:03	10:43:44	760333	5.0.10.0	4_exp_EVA_AMP_AWA_CON	2	Rpleas_acq	Same	Rpleas	Bmasked	CS_B	1pleas	distractor2	EVAbeforeCON	AMP_CSunple	AMP23	9	9	0	0	300	300	0	0	757	50	-65,4296875	0	0	0	0	1	blank2r.bmp	0	1	GKQX	0	1	blank2r.bmp	79	24	pic24.bmp	199	1	whitenoise_No3.bmp	306	0	0	0	0	0	0	0	0	0	0	0	0	0	0	0	0	0	0	0	0	0	0	0	0	0	0	0	0	0	0	0	0	0	0	0	0	0	0	0
121118	10:31:03	10:43:46	762452	5.0.10.0	4_exp_EVA_AMP_AWA_CON	2	Rpleas_acq	Same	Rpleas	Bmasked	CS_B	1pleas	distractor2	EVAbeforeCON	AMP_CSpleas	AMP23	9	10	0	0	300	300	0	0	1192	46	-65,4296875	0	0	0	0	1	blank2r.bmp	0	1	BMVZ	0	1	blank2r.bmp	79	43	pic43.bmp	199	1	whitenoise_No3.bmp	306	0	0	0	0	0	0	0	0	0	0	0	0	0	0	0	0	0	0	0	0	0	0	0	0	0	0	0	0	0	0	0	0	0	0	0	0	0	0	0
121118	10:31:03	10:43:47	763958	5.0.10.0	4_exp_EVA_AMP_AWA_CON	2	Rpleas_acq	Same	Rpleas	Bmasked	CS_B	1pleas	distractor2	EVAbeforeCON	AMP_CSpleas	AMP23	9	11	0	0	300	300	0	0	579	50	-65,4296875	1	0	0	0	1	blank2r.bmp	0	1	BMVZ	0	1	blank2r.bmp	79	123	pic123.bmp	199	1	whitenoise_No3.bmp	306	0	0	0	0	0	0	0	0	0	0	0	0	0	0	0	0	0	0	0	0	0	0	0	0	0	0	0	0	0	0	0	0	0	0	0	0	0	0	0
121118	10:31:03	10:43:49	765451	5.0.10.0	4_exp_EVA_AMP_AWA_CON	2	Rpleas_acq	Same	Rpleas	Bmasked	CS_B	1pleas	distractor2	EVAbeforeCON	AMP_CSunple	AMP23	9	12	0	0	300	300	0	0	571	50	-65,4296875	0	0	0	0	1	blank2r.bmp	0	1	GKQX	0	1	blank2r.bmp	79	66	pic66.bmp	199	1	whitenoise_No3.bmp	306	0	0	0	0	0	0	0	0	0	0	0	0	0	0	0	0	0	0	0	0	0	0	0	0	0	0	0	0	0	0	0	0	0	0	0	0	0	0	0
121118	10:31:03	10:43:50	767064	5.0.10.0	4_exp_EVA_AMP_AWA_CON	2	Rpleas_acq	Same	Rpleas	Bmasked	CS_B	1pleas	distractor2	EVAbeforeCON	AMP_distractor	AMP23	9	13	0	0	300	300	0	0	680	50	-65,4296875	0	0	0	0	1	blank2r.bmp	0	1	JCRD	0	1	blank2r.bmp	79	127	pic127.bmp	199	1	whitenoise_No3.bmp	306	0	0	0	0	0	0	0	0	0	0	0	0	0	0	0	0	0	0	0	0	0	0	0	0	0	0	0	0	0	0	0	0	0	0	0	0	0	0	0
121118	10:31:03	10:43:52	768343	5.0.10.0	4_exp_EVA_AMP_AWA_CON	2	Rpleas_acq	Same	Rpleas	Bmasked	CS_B	1pleas	distractor2	EVAbeforeCON	AMP_CSunple	AMP23	9	14	0	0	300	300	0	0	363	46	-65,4296875	1	0	0	0	1	blank2r.bmp	0	1	GKQX	0	1	blank2r.bmp	79	17	pic17.bmp	199	1	whitenoise_No3.bmp	306	0	0	0	0	0	0	0	0	0	0	0	0	0	0	0	0	0	0	0	0	0	0	0	0	0	0	0	0	0	0	0	0	0	0	0	0	0	0	0
121118	10:31:03	10:43:54	770476	5.0.10.0	4_exp_EVA_AMP_AWA_CON	2	Rpleas_acq	Same	Rpleas	Bmasked	CS_B	1pleas	distractor2	EVAbeforeCON	AMP_distractor	AMP23	9	15	0	0	300	300	0	0	1207	50	-65,4296875	0	0	0	0	1	blank2r.bmp	0	1	JCRD	0	1	blank2r.bmp	79	32	pic32.bmp	199	1	whitenoise_No3.bmp	306	0	0	0	0	0	0	0	0	0	0	0	0	0	0	0	0	0	0	0	0	0	0	0	0	0	0	0	0	0	0	0	0	0	0	0	0	0	0	0
121118	10:31:03	10:43:56	772568	5.0.10.0	4_exp_EVA_AMP_AWA_CON	2	Rpleas_acq	Same	Rpleas	Bmasked	CS_B	1pleas	distractor2	EVAbeforeCON	AMP_CSunple	AMP23	9	16	0	0	300	300	0	0	1162	46	-65,4296875	1	0	0	0	1	blank2r.bmp	0	1	GKQX	0	1	blank2r.bmp	79	70	pic70.bmp	199	1	whitenoise_No3.bmp	306	0	0	0	0	0	0	0	0	0	0	0	0	0	0	0	0	0	0	0	0	0	0	0	0	0	0	0	0	0	0	0	0	0	0	0	0	0	0	0
121118	10:31:03	10:43:58	774487	5.0.10.0	4_exp_EVA_AMP_AWA_CON	2	Rpleas_acq	Same	Rpleas	Bmasked	CS_B	1pleas	distractor2	EVAbeforeCON	AMP_CSpleas	AMP23	9	17	0	0	300	300	0	0	1005	46	-65,4296875	0	0	0	0	1	blank2r.bmp	0	1	BMVZ	0	1	blank2r.bmp	79	53	pic53.bmp	199	1	whitenoise_No3.bmp	306	0	0	0	0	0	0	0	0	0	0	0	0	0	0	0	0	0	0	0	0	0	0	0	0	0	0	0	0	0	0	0	0	0	0	0	0	0	0	0
121118	10:31:03	10:43:59	775953	5.0.10.0	4_exp_EVA_AMP_AWA_CON	2	Rpleas_acq	Same	Rpleas	Bmasked	CS_B	1pleas	distractor2	EVAbeforeCON	AMP_distractor	AMP23	9	18	0	0	300	300	0	0	537	50	-65,4296875	0	0	0	0	1	blank2r.bmp	0	1	JCRD	0	1	blank2r.bmp	79	79	pic79.bmp	199	1	whitenoise_No3.bmp	306	0	0	0	0	0	0	0	0	0	0	0	0	0	0	0	0	0	0	0	0	0	0	0	0	0	0	0	0	0	0	0	0	0	0	0	0	0	0	0
121118	10:31:03	10:44:01	777286	5.0.10.0	4_exp_EVA_AMP_AWA_CON	2	Rpleas_acq	Same	Rpleas	Bmasked	CS_B	1pleas	distractor2	EVAbeforeCON	AMP_CSunple	AMP23	9	19	0	0	300	300	0	0	421	50	-65,4296875	0	0	0	0	1	blank2r.bmp	0	1	GKQX	0	1	blank2r.bmp	79	89	pic89.bmp	199	1	whitenoise_No3.bmp	306	0	0	0	0	0	0	0	0	0	0	0	0	0	0	0	0	0	0	0	0	0	0	0	0	0	0	0	0	0	0	0	0	0	0	0	0	0	0	0
121118	10:31:03	10:44:02	778712	5.0.10.0	4_exp_EVA_AMP_AWA_CON	2	Rpleas_acq	Same	Rpleas	Bmasked	CS_B	1pleas	distractor2	EVAbeforeCON	AMP_CSunple	AMP23	9	20	0	0	300	300	0	0	502	50	-65,4296875	0	0	0	0	1	blank2r.bmp	0	1	GKQX	0	1	blank2r.bmp	79	72	pic72.bmp	199	1	whitenoise_No3.bmp	306	0	0	0	0	0	0	0	0	0	0	0	0	0	0	0	0	0	0	0	0	0	0	0	0	0	0	0	0	0	0	0	0	0	0	0	0	0	0	0
121118	10:31:03	10:44:03	780045	5.0.10.0	4_exp_EVA_AMP_AWA_CON	2	Rpleas_acq	Same	Rpleas	Bmasked	CS_B	1pleas	distractor2	EVAbeforeCON	AMP_distractor	AMP23	9	21	0	0	300	300	0	0	401	50	-65,4296875	0	0	0	0	1	blank2r.bmp	0	1	JCRD	0	1	blank2r.bmp	79	139	pic139.bmp	199	1	whitenoise_No3.bmp	306	0	0	0	0	0	0	0	0	0	0	0	0	0	0	0	0	0	0	0	0	0	0	0	0	0	0	0	0	0	0	0	0	0	0	0	0	0	0	0
121118	10:31:03	10:44:05	781578	5.0.10.0	4_exp_EVA_AMP_AWA_CON	2	Rpleas_acq	Same	Rpleas	Bmasked	CS_B	1pleas	distractor2	EVAbeforeCON	AMP_CSunple	AMP23	9	22	0	0	300	300	0	0	610	46	-65,4296875	1	0	0	0	1	blank2r.bmp	0	1	GKQX	0	1	blank2r.bmp	79	76	pic76.bmp	199	1	whitenoise_No3.bmp	306	0	0	0	0	0	0	0	0	0	0	0	0	0	0	0	0	0	0	0	0	0	0	0	0	0	0	0	0	0	0	0	0	0	0	0	0	0	0	0
121118	10:31:03	10:44:06	782897	5.0.10.0	4_exp_EVA_AMP_AWA_CON	2	Rpleas_acq	Same	Rpleas	Bmasked	CS_B	1pleas	distractor2	EVAbeforeCON	AMP_CSpleas	AMP23	9	23	0	0	300	300	0	0	388	50	-65,4296875	1	0	0	0	1	blank2r.bmp	0	1	BMVZ	0	1	blank2r.bmp	79	134	pic134.bmp	199	1	whitenoise_No3.bmp	306	0	0	0	0	0	0	0	0	0	0	0	0	0	0	0	0	0	0	0	0	0	0	0	0	0	0	0	0	0	0	0	0	0	0	0	0	0	0	0
121118	10:31:03	10:44:07	784163	5.0.10.0	4_exp_EVA_AMP_AWA_CON	2	Rpleas_acq	Same	Rpleas	Bmasked	CS_B	1pleas	distractor2	EVAbeforeCON	AMP_CSunple	AMP23	9	24	0	0	300	300	0	0	350	50	-65,4296875	0	0	0	0	1	blank2r.bmp	0	1	GKQX	0	1	blank2r.bmp	79	68	pic68.bmp	199	1	whitenoise_No3.bmp	306	0	0	0	0	0	0	0	0	0	0	0	0	0	0	0	0	0	0	0	0	0	0	0	0	0	0	0	0	0	0	0	0	0	0	0	0	0	0	0
121118	10:31:03	10:44:09	785629	5.0.10.0	4_exp_EVA_AMP_AWA_CON	2	Rpleas_acq	Same	Rpleas	Bmasked	CS_B	1pleas	distractor2	EVAbeforeCON	AMP_CSpleas	AMP23	9	25	0	0	300	300	0	0	543	50	-65,4296875	1	0	0	0	1	blank2r.bmp	0	1	BMVZ	0	1	blank2r.bmp	79	84	pic84.bmp	199	1	whitenoise_No3.bmp	306	0	0	0	0	0	0	0	0	0	0	0	0	0	0	0	0	0	0	0	0	0	0	0	0	0	0	0	0	0	0	0	0	0	0	0	0	0	0	0
121118	10:31:03	10:44:10	787055	5.0.10.0	4_exp_EVA_AMP_AWA_CON	2	Rpleas_acq	Same	Rpleas	Bmasked	CS_B	1pleas	distractor2	EVAbeforeCON	AMP_distractor	AMP23	9	26	0	0	300	300	0	0	498	50	-65,4296875	0	0	0	0	1	blank2r.bmp	0	1	JCRD	0	1	blank2r.bmp	79	71	pic71.bmp	199	1	whitenoise_No3.bmp	306	0	0	0	0	0	0	0	0	0	0	0	0	0	0	0	0	0	0	0	0	0	0	0	0	0	0	0	0	0	0	0	0	0	0	0	0	0	0	0
121118	10:31:03	10:44:12	788348	5.0.10.0	4_exp_EVA_AMP_AWA_CON	2	Rpleas_acq	Same	Rpleas	Bmasked	CS_B	1pleas	distractor2	EVAbeforeCON	AMP_CSpleas	AMP23	9	27	0	0	300	300	0	0	385	50	-65,4296875	1	0	0	0	1	blank2r.bmp	0	1	BMVZ	0	1	blank2r.bmp	79	44	pic44.bmp	199	1	whitenoise_No3.bmp	306	0	0	0	0	0	0	0	0	0	0	0	0	0	0	0	0	0	0	0	0	0	0	0	0	0	0	0	0	0	0	0	0	0	0	0	0	0	0	0
121118	10:31:03	10:44:13	789628	5.0.10.0	4_exp_EVA_AMP_AWA_CON	2	Rpleas_acq	Same	Rpleas	Bmasked	CS_B	1pleas	distractor2	EVAbeforeCON	AMP_CSpleas	AMP23	9	28	0	0	300	300	0	0	346	50	-65,4296875	1	0	0	0	1	blank2r.bmp	0	1	BMVZ	0	1	blank2r.bmp	79	111	pic111.bmp	199	1	whitenoise_No3.bmp	306	0	0	0	0	0	0	0	0	0	0	0	0	0	0	0	0	0	0	0	0	0	0	0	0	0	0	0	0	0	0	0	0	0	0	0	0	0	0	0
