date	time	script.currenttime	script.elapsedtime	build	script.currentexpt	subject	expressions.LRpleas_acq	expressions.SameOppo	expressions.condition_Lpleas	expressions.ABmasked	expressions.conditionCS_A	expressions.condition_1pleas	expressions.condition_distractor_AMP	expressions.AWACON_AMPEVA_first	trialcode	blockcode	blocknum	trialnum	windowcenter	inwindow	pretrialpause	posttrialpause	trialduration	trialtimeout	latency	response	expressions.correctedscore	correct	values.vis_performance	values.vis_rating_sum	values.vis_rating_mean	stimulusnumber1	stimulusitem1	stimulusonset1	stimulusnumber2	stimulusitem2	stimulusonset2	stimulusnumber3	stimulusitem3	stimulusonset3	stimulusnumber4	stimulusitem4	stimulusonset4	stimulusnumber5	stimulusitem5	stimulusonset5	stimulusnumber6	stimulusitem6	stimulusonset6	stimulusnumber7	stimulusitem7	stimulusonset7	stimulusnumber8	stimulusitem8	stimulusonset8	stimulusnumber9	stimulusitem9	stimulusonset9	stimulusnumber10	stimulusitem10	stimulusonset10	stimulusnumber11	stimulusitem11	stimulusonset11	stimulusnumber12	stimulusitem12	stimulusonset12	stimulusnumber13	stimulusitem13	stimulusonset13	stimulusnumber14	stimulusitem14	stimulusonset14	stimulusnumber15	stimulusitem15	stimulusonset15	stimulusnumber16	stimulusitem16	stimulusonset16	stimulusnumber17	stimulusitem17	stimulusonset17	stimulusnumber18	stimulusitem18	stimulusonset18
010819	13:51:25	13:53:53	148150	5.0.10.0	4_exp_AMP_EVA_AWA_CON	48	Rpleas_acq	Oppo	Rpleas	Bmasked	CS_B	2pleas	distractor2	EVAbeforeCON	acq_US_pleas_masked	acq1_masked	1	1	0	0	300	300	0	0	3523	50	0	1	0	0	0	1	blank2r.bmp	0	1	+	0	4	B4r.bmp	492	1	blank2r.bmp	786	1	GKQX	786	1	blank2r.bmp	866	1	fair	866	0	0	0	0	0	0	0	0	0	0	0	0	0	0	0	0	0	0	0	0	0	0	0	0	0	0	0	0	0	0	0	0	0
010819	13:51:25	13:53:55	150269	5.0.10.0	4_exp_AMP_EVA_AWA_CON	48	Rpleas_acq	Oppo	Rpleas	Bmasked	CS_B	2pleas	distractor2	EVAbeforeCON	acq_new_pleas_masked	acq1_masked	1	2	0	0	300	300	0	0	629	50	0	1	0	0	0	1	blank2r.bmp	0	1	+	0	3	B3r.bmp	492	1	blank2r.bmp	786	6	C2r.bmp	786	1	blank2r.bmp	866	3	lachen	866	0	0	0	0	0	0	0	0	0	0	0	0	0	0	0	0	0	0	0	0	0	0	0	0	0	0	0	0	0	0	0	0	0
010819	13:51:25	13:53:58	152309	5.0.10.0	4_exp_AMP_EVA_AWA_CON	48	Rpleas_acq	Oppo	Rpleas	Bmasked	CS_B	2pleas	distractor2	EVAbeforeCON	acq_US_unple_masked	acq1_masked	1	3	0	0	300	300	0	0	563	46	0	1	0	0	0	1	blank2r.bmp	0	1	+	0	2	B2r.bmp	492	1	blank2r.bmp	786	1	BMVZ	786	1	blank2r.bmp	866	3	schlecht	866	0	0	0	0	0	0	0	0	0	0	0	0	0	0	0	0	0	0	0	0	0	0	0	0	0	0	0	0	0	0	0	0	0
010819	13:51:25	13:54:00	154481	5.0.10.0	4_exp_AMP_EVA_AWA_CON	48	Rpleas_acq	Oppo	Rpleas	Bmasked	CS_B	2pleas	distractor2	EVAbeforeCON	acq_new_unple_masked	acq1_masked	1	4	0	0	300	300	0	0	702	46	0	1	0	0	0	1	blank2r.bmp	0	1	+	0	1	B1r.bmp	492	1	blank2r.bmp	786	7	C3r.bmp	786	1	blank2r.bmp	866	6	rächen	866	0	0	0	0	0	0	0	0	0	0	0	0	0	0	0	0	0	0	0	0	0	0	0	0	0	0	0	0	0	0	0	0	0
010819	13:51:25	13:54:02	156453	5.0.10.0	4_exp_AMP_EVA_AWA_CON	48	Rpleas_acq	Oppo	Rpleas	Bmasked	CS_B	2pleas	distractor2	EVAbeforeCON	acq_US_pleas_masked	acq1_masked	1	5	0	0	300	300	0	0	479	50	0	1	0	0	0	1	blank2r.bmp	0	1	+	0	7	C3r.bmp	492	1	blank2r.bmp	786	1	GKQX	786	1	blank2r.bmp	866	3	schön	866	0	0	0	0	0	0	0	0	0	0	0	0	0	0	0	0	0	0	0	0	0	0	0	0	0	0	0	0	0	0	0	0	0
010819	13:51:25	13:54:04	158546	5.0.10.0	4_exp_AMP_EVA_AWA_CON	48	Rpleas_acq	Oppo	Rpleas	Bmasked	CS_B	2pleas	distractor2	EVAbeforeCON	acq_new_pleas_masked	acq1_masked	1	6	0	0	300	300	0	0	600	50	0	1	0	0	0	1	blank2r.bmp	0	1	+	0	6	C2r.bmp	492	1	blank2r.bmp	786	5	C1r.bmp	786	1	blank2r.bmp	866	4	freundlich	866	0	0	0	0	0	0	0	0	0	0	0	0	0	0	0	0	0	0	0	0	0	0	0	0	0	0	0	0	0	0	0	0	0
010819	13:51:25	13:54:06	160625	5.0.10.0	4_exp_AMP_EVA_AWA_CON	48	Rpleas_acq	Oppo	Rpleas	Bmasked	CS_B	2pleas	distractor2	EVAbeforeCON	acq_US_pleas_masked	acq1_masked	1	7	0	0	300	300	0	0	599	50	0	1	0	0	0	1	blank2r.bmp	0	1	+	0	5	C1r.bmp	492	1	blank2r.bmp	786	1	GKQX	786	1	blank2r.bmp	866	4	tolerant	866	0	0	0	0	0	0	0	0	0	0	0	0	0	0	0	0	0	0	0	0	0	0	0	0	0	0	0	0	0	0	0	0	0
010819	13:51:25	13:54:08	162797	5.0.10.0	4_exp_AMP_EVA_AWA_CON	48	Rpleas_acq	Oppo	Rpleas	Bmasked	CS_B	2pleas	distractor2	EVAbeforeCON	acq_new_unple_masked	acq1_masked	1	8	0	0	300	300	0	0	702	46	0	1	0	0	0	1	blank2r.bmp	0	1	+	0	8	C4r.bmp	492	1	blank2r.bmp	786	3	B3r.bmp	786	1	blank2r.bmp	866	3	leiden	866	0	0	0	0	0	0	0	0	0	0	0	0	0	0	0	0	0	0	0	0	0	0	0	0	0	0	0	0	0	0	0	0	0
010819	13:51:25	13:54:10	164850	5.0.10.0	4_exp_AMP_EVA_AWA_CON	48	Rpleas_acq	Oppo	Rpleas	Bmasked	CS_B	2pleas	distractor2	EVAbeforeCON	acq_US_unple_masked	acq1_masked	1	9	0	0	300	300	0	0	568	46	0	1	0	0	0	1	blank2r.bmp	0	1	+	0	8	C4r.bmp	492	1	blank2r.bmp	786	1	BMVZ	786	1	blank2r.bmp	866	1	faul	866	0	0	0	0	0	0	0	0	0	0	0	0	0	0	0	0	0	0	0	0	0	0	0	0	0	0	0	0	0	0	0	0	0
010819	13:51:25	13:54:12	166996	5.0.10.0	4_exp_AMP_EVA_AWA_CON	48	Rpleas_acq	Oppo	Rpleas	Bmasked	CS_B	2pleas	distractor2	EVAbeforeCON	acq_US_unple_masked	acq1_masked	1	10	0	0	300	300	0	0	657	46	0	1	0	0	0	1	blank2r.bmp	0	1	+	0	2	B2r.bmp	492	1	blank2r.bmp	786	1	BMVZ	786	1	blank2r.bmp	866	6	schroff	866	0	0	0	0	0	0	0	0	0	0	0	0	0	0	0	0	0	0	0	0	0	0	0	0	0	0	0	0	0	0	0	0	0
010819	13:51:25	13:54:16	171261	5.0.10.0	4_exp_AMP_EVA_AWA_CON	48	Rpleas_acq	Oppo	Rpleas	Bmasked	CS_B	2pleas	distractor2	EVAbeforeCON	acq_new_pleas_masked	acq1_masked	1	11	0	0	300	300	0	0	2777	50	0	1	0	0	0	1	blank2r.bmp	0	1	+	0	3	B3r.bmp	492	1	blank2r.bmp	786	1	B1r.bmp	786	1	blank2r.bmp	866	6	retten	866	0	0	0	0	0	0	0	0	0	0	0	0	0	0	0	0	0	0	0	0	0	0	0	0	0	0	0	0	0	0	0	0	0
010819	13:51:25	13:54:19	173580	5.0.10.0	4_exp_AMP_EVA_AWA_CON	48	Rpleas_acq	Oppo	Rpleas	Bmasked	CS_B	2pleas	distractor2	EVAbeforeCON	acq_new_unple_masked	acq1_masked	1	12	0	0	300	300	0	0	844	46	0	1	0	0	0	1	blank2r.bmp	0	1	+	0	5	C1r.bmp	492	1	blank2r.bmp	786	4	B4r.bmp	786	1	blank2r.bmp	866	2	lasch	866	0	0	0	0	0	0	0	0	0	0	0	0	0	0	0	0	0	0	0	0	0	0	0	0	0	0	0	0	0	0	0	0	0
010819	13:51:25	13:54:22	176805	5.0.10.0	4_exp_AMP_EVA_AWA_CON	48	Rpleas_acq	Oppo	Rpleas	Bmasked	CS_B	2pleas	distractor2	EVAbeforeCON	acq_new_unple_masked	acq1_masked	1	13	0	0	300	300	0	0	1741	46	0	1	0	0	0	1	blank2r.bmp	0	1	+	0	1	B1r.bmp	492	1	blank2r.bmp	786	8	C4r.bmp	786	1	blank2r.bmp	866	4	fanatisch	866	0	0	0	0	0	0	0	0	0	0	0	0	0	0	0	0	0	0	0	0	0	0	0	0	0	0	0	0	0	0	0	0	0
010819	13:51:25	13:54:24	179231	5.0.10.0	4_exp_AMP_EVA_AWA_CON	48	Rpleas_acq	Oppo	Rpleas	Bmasked	CS_B	2pleas	distractor2	EVAbeforeCON	acq_US_pleas_masked	acq1_masked	1	14	0	0	300	300	0	0	939	50	0	1	0	0	0	1	blank2r.bmp	0	1	+	0	4	B4r.bmp	492	1	blank2r.bmp	786	1	GKQX	786	1	blank2r.bmp	866	6	schlau	866	0	0	0	0	0	0	0	0	0	0	0	0	0	0	0	0	0	0	0	0	0	0	0	0	0	0	0	0	0	0	0	0	0
010819	13:51:25	13:54:27	181616	5.0.10.0	4_exp_AMP_EVA_AWA_CON	48	Rpleas_acq	Oppo	Rpleas	Bmasked	CS_B	2pleas	distractor2	EVAbeforeCON	acq_new_unple_masked	acq1_masked	1	15	0	0	300	300	0	0	915	46	0	1	0	0	0	1	blank2r.bmp	0	1	+	0	7	C3r.bmp	492	1	blank2r.bmp	786	2	B2r.bmp	786	1	blank2r.bmp	866	1	eitel	866	0	0	0	0	0	0	0	0	0	0	0	0	0	0	0	0	0	0	0	0	0	0	0	0	0	0	0	0	0	0	0	0	0
010819	13:51:25	13:54:29	183695	5.0.10.0	4_exp_AMP_EVA_AWA_CON	48	Rpleas_acq	Oppo	Rpleas	Bmasked	CS_B	2pleas	distractor2	EVAbeforeCON	acq_new_pleas_masked	acq1_masked	1	16	0	0	300	300	0	0	599	50	0	1	0	0	0	1	blank2r.bmp	0	1	+	0	6	C2r.bmp	492	1	blank2r.bmp	786	2	B2r.bmp	786	1	blank2r.bmp	866	1	ehrlich	866	0	0	0	0	0	0	0	0	0	0	0	0	0	0	0	0	0	0	0	0	0	0	0	0	0	0	0	0	0	0	0	0	0
010819	13:51:25	13:54:31	185748	5.0.10.0	4_exp_AMP_EVA_AWA_CON	48	Rpleas_acq	Oppo	Rpleas	Bmasked	CS_B	2pleas	distractor2	EVAbeforeCON	acq_new_pleas_masked	acq1_masked	1	17	0	0	300	300	0	0	580	50	0	1	0	0	0	1	blank2r.bmp	0	1	+	0	1	B1r.bmp	492	1	blank2r.bmp	786	3	B3r.bmp	786	1	blank2r.bmp	866	5	treu	866	0	0	0	0	0	0	0	0	0	0	0	0	0	0	0	0	0	0	0	0	0	0	0	0	0	0	0	0	0	0	0	0	0
010819	13:51:25	13:54:33	187800	5.0.10.0	4_exp_AMP_EVA_AWA_CON	48	Rpleas_acq	Oppo	Rpleas	Bmasked	CS_B	2pleas	distractor2	EVAbeforeCON	acq_new_pleas_masked	acq1_masked	1	18	0	0	300	300	0	0	563	50	0	1	0	0	0	1	blank2r.bmp	0	1	+	0	3	B3r.bmp	492	1	blank2r.bmp	786	1	B1r.bmp	786	1	blank2r.bmp	866	2	loyal	866	0	0	0	0	0	0	0	0	0	0	0	0	0	0	0	0	0	0	0	0	0	0	0	0	0	0	0	0	0	0	0	0	0
010819	13:51:25	13:54:35	189839	5.0.10.0	4_exp_AMP_EVA_AWA_CON	48	Rpleas_acq	Oppo	Rpleas	Bmasked	CS_B	2pleas	distractor2	EVAbeforeCON	acq_new_unple_masked	acq1_masked	1	19	0	0	300	300	0	0	565	46	0	1	0	0	0	1	blank2r.bmp	0	1	+	0	4	B4r.bmp	492	1	blank2r.bmp	786	8	C4r.bmp	786	1	blank2r.bmp	866	5	tot	866	0	0	0	0	0	0	0	0	0	0	0	0	0	0	0	0	0	0	0	0	0	0	0	0	0	0	0	0	0	0	0	0	0
010819	13:51:25	13:54:37	191879	5.0.10.0	4_exp_AMP_EVA_AWA_CON	48	Rpleas_acq	Oppo	Rpleas	Bmasked	CS_B	2pleas	distractor2	EVAbeforeCON	acq_US_unple_masked	acq1_masked	1	20	0	0	300	300	0	0	570	46	0	1	0	0	0	1	blank2r.bmp	0	1	+	0	8	C4r.bmp	492	1	blank2r.bmp	786	1	BMVZ	786	1	blank2r.bmp	866	5	hindern	866	0	0	0	0	0	0	0	0	0	0	0	0	0	0	0	0	0	0	0	0	0	0	0	0	0	0	0	0	0	0	0	0	0
010819	13:51:25	13:54:39	194051	5.0.10.0	4_exp_AMP_EVA_AWA_CON	48	Rpleas_acq	Oppo	Rpleas	Bmasked	CS_B	2pleas	distractor2	EVAbeforeCON	acq_US_pleas_masked	acq1_masked	1	21	0	0	300	300	0	0	679	50	0	1	0	0	0	1	blank2r.bmp	0	1	+	0	2	B2r.bmp	492	1	blank2r.bmp	786	1	GKQX	786	1	blank2r.bmp	866	5	helfen	866	0	0	0	0	0	0	0	0	0	0	0	0	0	0	0	0	0	0	0	0	0	0	0	0	0	0	0	0	0	0	0	0	0
010819	13:51:25	13:54:41	196103	5.0.10.0	4_exp_AMP_EVA_AWA_CON	48	Rpleas_acq	Oppo	Rpleas	Bmasked	CS_B	2pleas	distractor2	EVAbeforeCON	acq_US_unple_masked	acq1_masked	1	22	0	0	300	300	0	0	575	46	0	1	0	0	0	1	blank2r.bmp	0	1	+	0	7	C3r.bmp	492	1	blank2r.bmp	786	1	BMVZ	786	1	blank2r.bmp	866	4	tyrannisch	866	0	0	0	0	0	0	0	0	0	0	0	0	0	0	0	0	0	0	0	0	0	0	0	0	0	0	0	0	0	0	0	0	0
010819	13:51:25	13:54:43	197996	5.0.10.0	4_exp_AMP_EVA_AWA_CON	48	Rpleas_acq	Oppo	Rpleas	Bmasked	CS_B	2pleas	distractor2	EVAbeforeCON	acq_US_pleas_masked	acq1_masked	1	23	0	0	300	300	0	0	408	50	0	1	0	0	0	1	blank2r.bmp	0	1	+	0	5	C1r.bmp	492	1	blank2r.bmp	786	1	GKQX	786	1	blank2r.bmp	866	2	spielen	866	0	0	0	0	0	0	0	0	0	0	0	0	0	0	0	0	0	0	0	0	0	0	0	0	0	0	0	0	0	0	0	0	0
010819	13:51:25	13:54:45	199955	5.0.10.0	4_exp_AMP_EVA_AWA_CON	48	Rpleas_acq	Oppo	Rpleas	Bmasked	CS_B	2pleas	distractor2	EVAbeforeCON	acq_US_unple_masked	acq1_masked	1	24	0	0	300	300	0	0	476	46	0	1	0	0	0	1	blank2r.bmp	0	1	+	0	6	C2r.bmp	492	1	blank2r.bmp	786	1	BMVZ	786	1	blank2r.bmp	866	2	strafen	866	0	0	0	0	0	0	0	0	0	0	0	0	0	0	0	0	0	0	0	0	0	0	0	0	0	0	0	0	0	0	0	0	0
010819	13:51:25	13:54:47	202181	5.0.10.0	4_exp_AMP_EVA_AWA_CON	48	Rpleas_acq	Oppo	Rpleas	Bmasked	CS_B	2pleas	distractor2	EVAbeforeCON	acq_new_unple_masked	acq1_masked	1	25	0	0	300	300	0	0	743	46	0	1	0	0	0	1	blank2r.bmp	0	1	+	0	4	B4r.bmp	492	1	blank2r.bmp	786	7	C3r.bmp	786	1	blank2r.bmp	866	4	fanatisch	866	0	0	0	0	0	0	0	0	0	0	0	0	0	0	0	0	0	0	0	0	0	0	0	0	0	0	0	0	0	0	0	0	0
010819	13:51:25	13:54:49	204247	5.0.10.0	4_exp_AMP_EVA_AWA_CON	48	Rpleas_acq	Oppo	Rpleas	Bmasked	CS_B	2pleas	distractor2	EVAbeforeCON	acq_new_pleas_masked	acq1_masked	1	26	0	0	300	300	0	0	576	50	0	1	0	0	0	1	blank2r.bmp	0	1	+	0	1	B1r.bmp	492	1	blank2r.bmp	786	5	C1r.bmp	786	1	blank2r.bmp	866	1	ehrlich	866	0	0	0	0	0	0	0	0	0	0	0	0	0	0	0	0	0	0	0	0	0	0	0	0	0	0	0	0	0	0	0	0	0
010819	13:51:25	13:54:51	206219	5.0.10.0	4_exp_AMP_EVA_AWA_CON	48	Rpleas_acq	Oppo	Rpleas	Bmasked	CS_B	2pleas	distractor2	EVAbeforeCON	acq_US_unple_masked	acq1_masked	1	27	0	0	300	300	0	0	479	46	0	1	0	0	0	1	blank2r.bmp	0	1	+	0	8	C4r.bmp	492	1	blank2r.bmp	786	1	BMVZ	786	1	blank2r.bmp	866	3	schlecht	866	0	0	0	0	0	0	0	0	0	0	0	0	0	0	0	0	0	0	0	0	0	0	0	0	0	0	0	0	0	0	0	0	0
010819	13:51:25	13:54:54	208285	5.0.10.0	4_exp_AMP_EVA_AWA_CON	48	Rpleas_acq	Oppo	Rpleas	Bmasked	CS_B	2pleas	distractor2	EVAbeforeCON	acq_new_unple_masked	acq1_masked	1	28	0	0	300	300	0	0	588	46	0	1	0	0	0	1	blank2r.bmp	0	1	+	0	7	C3r.bmp	492	1	blank2r.bmp	786	6	C2r.bmp	786	1	blank2r.bmp	866	6	rächen	866	0	0	0	0	0	0	0	0	0	0	0	0	0	0	0	0	0	0	0	0	0	0	0	0	0	0	0	0	0	0	0	0	0
010819	13:51:25	13:54:56	210431	5.0.10.0	4_exp_AMP_EVA_AWA_CON	48	Rpleas_acq	Oppo	Rpleas	Bmasked	CS_B	2pleas	distractor2	EVAbeforeCON	acq_new_unple_masked	acq1_masked	1	29	0	0	300	300	0	0	665	46	0	1	0	0	0	1	blank2r.bmp	0	1	+	0	6	C2r.bmp	492	1	blank2r.bmp	786	4	B4r.bmp	786	1	blank2r.bmp	866	1	eitel	866	0	0	0	0	0	0	0	0	0	0	0	0	0	0	0	0	0	0	0	0	0	0	0	0	0	0	0	0	0	0	0	0	0
010819	13:51:25	13:54:58	212390	5.0.10.0	4_exp_AMP_EVA_AWA_CON	48	Rpleas_acq	Oppo	Rpleas	Bmasked	CS_B	2pleas	distractor2	EVAbeforeCON	acq_US_pleas_masked	acq1_masked	1	30	0	0	300	300	0	0	491	50	0	1	0	0	0	1	blank2r.bmp	0	1	+	0	5	C1r.bmp	492	1	blank2r.bmp	786	1	GKQX	786	1	blank2r.bmp	866	2	spielen	866	0	0	0	0	0	0	0	0	0	0	0	0	0	0	0	0	0	0	0	0	0	0	0	0	0	0	0	0	0	0	0	0	0
010819	13:51:25	13:55:00	214429	5.0.10.0	4_exp_AMP_EVA_AWA_CON	48	Rpleas_acq	Oppo	Rpleas	Bmasked	CS_B	2pleas	distractor2	EVAbeforeCON	acq_US_unple_masked	acq1_masked	1	31	0	0	300	300	0	0	555	46	0	1	0	0	0	1	blank2r.bmp	0	1	+	0	3	B3r.bmp	492	1	blank2r.bmp	786	1	BMVZ	786	1	blank2r.bmp	866	5	hindern	866	0	0	0	0	0	0	0	0	0	0	0	0	0	0	0	0	0	0	0	0	0	0	0	0	0	0	0	0	0	0	0	0	0
010819	13:51:25	13:55:02	216428	5.0.10.0	4_exp_AMP_EVA_AWA_CON	48	Rpleas_acq	Oppo	Rpleas	Bmasked	CS_B	2pleas	distractor2	EVAbeforeCON	acq_new_pleas_masked	acq1_masked	1	32	0	0	300	300	0	0	513	50	0	1	0	0	0	1	blank2r.bmp	0	1	+	0	2	B2r.bmp	492	1	blank2r.bmp	786	3	B3r.bmp	786	1	blank2r.bmp	866	5	treu	866	0	0	0	0	0	0	0	0	0	0	0	0	0	0	0	0	0	0	0	0	0	0	0	0	0	0	0	0	0	0	0	0	0
010819	13:51:25	13:55:04	218321	5.0.10.0	4_exp_AMP_EVA_AWA_CON	48	Rpleas_acq	Oppo	Rpleas	Bmasked	CS_B	2pleas	distractor2	EVAbeforeCON	acq_US_unple_masked	acq1_masked	1	33	0	0	300	300	0	0	410	46	0	1	0	0	0	1	blank2r.bmp	0	1	+	0	4	B4r.bmp	492	1	blank2r.bmp	786	1	BMVZ	786	1	blank2r.bmp	866	2	strafen	866	0	0	0	0	0	0	0	0	0	0	0	0	0	0	0	0	0	0	0	0	0	0	0	0	0	0	0	0	0	0	0	0	0
010819	13:51:25	13:55:06	220573	5.0.10.0	4_exp_AMP_EVA_AWA_CON	48	Rpleas_acq	Oppo	Rpleas	Bmasked	CS_B	2pleas	distractor2	EVAbeforeCON	acq_new_pleas_masked	acq1_masked	1	34	0	0	300	300	0	0	549	46	0	0	0	0	0	1	blank2r.bmp	0	1	+	0	5	C1r.bmp	492	1	blank2r.bmp	786	2	B2r.bmp	786	1	blank2r.bmp	866	6	retten	866	1	FEHLER	1452	0	0	0	0	0	0	0	0	0	0	0	0	0	0	0	0	0	0	0	0	0	0	0	0	0	0	0	0	0	0
010819	13:51:25	13:55:08	222346	5.0.10.0	4_exp_AMP_EVA_AWA_CON	48	Rpleas_acq	Oppo	Rpleas	Bmasked	CS_B	2pleas	distractor2	EVAbeforeCON	acq_US_pleas_masked	acq1_masked	1	35	0	0	300	300	0	0	507	50	0	1	0	0	0	1	blank2r.bmp	0	1	+	0	8	C4r.bmp	492	1	blank2r.bmp	786	1	GKQX	786	1	blank2r.bmp	866	6	schlau	866	0	0	0	0	0	0	0	0	0	0	0	0	0	0	0	0	0	0	0	0	0	0	0	0	0	0	0	0	0	0	0	0	0
010819	13:51:25	13:55:09	224265	5.0.10.0	4_exp_AMP_EVA_AWA_CON	48	Rpleas_acq	Oppo	Rpleas	Bmasked	CS_B	2pleas	distractor2	EVAbeforeCON	acq_US_pleas_masked	acq1_masked	1	36	0	0	300	300	0	0	435	50	0	1	0	0	0	1	blank2r.bmp	0	1	+	0	3	B3r.bmp	492	1	blank2r.bmp	786	1	GKQX	786	1	blank2r.bmp	866	4	tolerant	866	0	0	0	0	0	0	0	0	0	0	0	0	0	0	0	0	0	0	0	0	0	0	0	0	0	0	0	0	0	0	0	0	0
010819	13:51:25	13:55:43	258251	5.0.10.0	4_exp_AMP_EVA_AWA_CON	48	Rpleas_acq	Oppo	Rpleas	Bmasked	CS_B	2pleas	distractor2	EVAbeforeCON	acq_US_unple_masked	acq2_masked	2	1	480	0	300	300	0	0	687	46	0	1	0	0	0	1	blank2r.bmp	0	1	+	0	6	C2r.bmp	492	1	blank2r.bmp	786	1	BMVZ	786	1	blank2r.bmp	866	4	tyrannisch	866	1	!	1319	1	!	-1	0	0	0	0	0	0	0	0	0	0	0	0	0	0	0	0	0	0	0	0	0	0	0	0	0	0	0
010819	13:51:25	13:55:46	260490	5.0.10.0	4_exp_AMP_EVA_AWA_CON	48	Rpleas_acq	Oppo	Rpleas	Bmasked	CS_B	2pleas	distractor2	EVAbeforeCON	acq_US_pleas_masked	acq2_masked	2	2	480	1	300	300	0	0	431	50	0	1	0	0	0	1	blank2r.bmp	0	1	+	0	7	C3r.bmp	492	1	blank2r.bmp	786	1	GKQX	786	1	blank2r.bmp	866	5	helfen	866	1	!	1319	1	!	1332	0	0	0	0	0	0	0	0	0	0	0	0	0	0	0	0	0	0	0	0	0	0	0	0	0	0	0
010819	13:51:25	13:55:48	262715	5.0.10.0	4_exp_AMP_EVA_AWA_CON	48	Rpleas_acq	Oppo	Rpleas	Bmasked	CS_B	2pleas	distractor2	EVAbeforeCON	acq_US_unple_masked	acq2_masked	2	3	480	1	300	300	0	0	432	46	0	1	0	0	0	1	blank2r.bmp	0	1	+	0	1	B1r.bmp	492	1	blank2r.bmp	786	1	BMVZ	786	1	blank2r.bmp	866	1	faul	866	1	!	1319	1	!	1332	0	0	0	0	0	0	0	0	0	0	0	0	0	0	0	0	0	0	0	0	0	0	0	0	0	0	0
010819	13:51:25	13:55:50	264941	5.0.10.0	4_exp_AMP_EVA_AWA_CON	48	Rpleas_acq	Oppo	Rpleas	Bmasked	CS_B	2pleas	distractor2	EVAbeforeCON	acq_US_pleas_masked	acq2_masked	2	4	480	1	300	300	0	0	426	50	0	1	0	0	0	1	blank2r.bmp	0	1	+	0	2	B2r.bmp	492	1	blank2r.bmp	786	1	GKQX	786	1	blank2r.bmp	866	1	fair	866	1	!	1319	1	!	1332	0	0	0	0	0	0	0	0	0	0	0	0	0	0	0	0	0	0	0	0	0	0	0	0	0	0	0
010819	13:51:25	13:55:52	267060	5.0.10.0	4_exp_AMP_EVA_AWA_CON	48	Rpleas_acq	Oppo	Rpleas	Bmasked	CS_B	2pleas	distractor2	EVAbeforeCON	acq_US_pleas_masked	acq2_masked	2	5	480	0	300	300	0	0	353	50	0	1	0	0	0	1	blank2r.bmp	0	1	+	0	1	B1r.bmp	492	1	blank2r.bmp	786	1	GKQX	786	1	blank2r.bmp	866	3	schön	866	1	!	-1	1	!	-1	0	0	0	0	0	0	0	0	0	0	0	0	0	0	0	0	0	0	0	0	0	0	0	0	0	0	0
010819	13:51:25	13:55:54	269246	5.0.10.0	4_exp_AMP_EVA_AWA_CON	48	Rpleas_acq	Oppo	Rpleas	Bmasked	CS_B	2pleas	distractor2	EVAbeforeCON	acq_US_unple_masked	acq2_masked	2	6	480	0	300	300	0	0	405	46	0	1	0	0	0	1	blank2r.bmp	0	1	+	0	2	B2r.bmp	492	1	blank2r.bmp	786	1	BMVZ	786	1	blank2r.bmp	866	6	schroff	866	1	!	-1	1	!	-1	0	0	0	0	0	0	0	0	0	0	0	0	0	0	0	0	0	0	0	0	0	0	0	0	0	0	0
010819	13:51:25	13:55:57	272018	5.0.10.0	4_exp_AMP_EVA_AWA_CON	48	Rpleas_acq	Oppo	Rpleas	Bmasked	CS_B	2pleas	distractor2	EVAbeforeCON	acq_new_unple_masked	acq2_masked	2	7	480	0	300	300	0	0	995	46	0	1	0	0	0	1	blank2r.bmp	0	1	+	0	8	C4r.bmp	492	1	blank2r.bmp	786	1	B1r.bmp	786	1	blank2r.bmp	866	2	lasch	866	1	!	1319	1	!	-1	0	0	0	0	0	0	0	0	0	0	0	0	0	0	0	0	0	0	0	0	0	0	0	0	0	0	0
010819	13:51:25	13:56:00	274391	5.0.10.0	4_exp_AMP_EVA_AWA_CON	48	Rpleas_acq	Oppo	Rpleas	Bmasked	CS_B	2pleas	distractor2	EVAbeforeCON	acq_new_pleas_masked	acq2_masked	2	8	480	0	300	300	0	0	581	50	0	1	0	0	0	1	blank2r.bmp	0	1	+	0	7	C3r.bmp	492	1	blank2r.bmp	786	8	C4r.bmp	786	1	blank2r.bmp	866	4	freundlich	866	1	!	1319	1	!	-1	0	0	0	0	0	0	0	0	0	0	0	0	0	0	0	0	0	0	0	0	0	0	0	0	0	0	0
010819	13:51:25	13:56:02	276696	5.0.10.0	4_exp_AMP_EVA_AWA_CON	48	Rpleas_acq	Oppo	Rpleas	Bmasked	CS_B	2pleas	distractor2	EVAbeforeCON	acq_new_pleas_masked	acq2_masked	2	9	480	1	300	300	0	0	484	50	0	1	0	0	0	1	blank2r.bmp	0	1	+	0	3	B3r.bmp	492	1	blank2r.bmp	786	4	B4r.bmp	786	1	blank2r.bmp	866	3	lachen	866	1	!	1319	1	!	1386	0	0	0	0	0	0	0	0	0	0	0	0	0	0	0	0	0	0	0	0	0	0	0	0	0	0	0
010819	13:51:25	13:56:04	278842	5.0.10.0	4_exp_AMP_EVA_AWA_CON	48	Rpleas_acq	Oppo	Rpleas	Bmasked	CS_B	2pleas	distractor2	EVAbeforeCON	acq_new_pleas_masked	acq2_masked	2	10	480	0	300	300	0	0	367	50	0	1	0	0	0	1	blank2r.bmp	0	1	+	0	5	C1r.bmp	492	1	blank2r.bmp	786	7	C3r.bmp	786	1	blank2r.bmp	866	2	loyal	866	1	!	-1	1	!	-1	0	0	0	0	0	0	0	0	0	0	0	0	0	0	0	0	0	0	0	0	0	0	0	0	0	0	0
010819	13:51:25	13:56:06	281174	5.0.10.0	4_exp_AMP_EVA_AWA_CON	48	Rpleas_acq	Oppo	Rpleas	Bmasked	CS_B	2pleas	distractor2	EVAbeforeCON	acq_new_unple_masked	acq2_masked	2	11	480	1	300	300	0	0	531	46	0	1	0	0	0	1	blank2r.bmp	0	1	+	0	4	B4r.bmp	492	1	blank2r.bmp	786	5	C1r.bmp	786	1	blank2r.bmp	866	5	tot	866	1	!	1319	1	!	1426	0	0	0	0	0	0	0	0	0	0	0	0	0	0	0	0	0	0	0	0	0	0	0	0	0	0	0
010819	13:51:25	13:56:09	283627	5.0.10.0	4_exp_AMP_EVA_AWA_CON	48	Rpleas_acq	Oppo	Rpleas	Bmasked	CS_B	2pleas	distractor2	EVAbeforeCON	acq_new_unple_masked	acq2_masked	2	12	480	0	300	300	0	0	677	46	0	1	0	0	0	1	blank2r.bmp	0	1	+	0	6	C2r.bmp	492	1	blank2r.bmp	786	6	C2r.bmp	786	1	blank2r.bmp	866	3	leiden	866	1	!	1319	1	!	-1	0	0	0	0	0	0	0	0	0	0	0	0	0	0	0	0	0	0	0	0	0	0	0	0	0	0	0
010819	13:51:25	13:56:11	285986	5.0.10.0	4_exp_AMP_EVA_AWA_CON	48	Rpleas_acq	Oppo	Rpleas	Bmasked	CS_B	2pleas	distractor2	EVAbeforeCON	acq_new_unple_masked	acq2_masked	2	13	480	0	300	300	0	0	584	46	0	1	0	0	0	1	blank2r.bmp	0	1	+	0	2	B2r.bmp	492	1	blank2r.bmp	786	1	B1r.bmp	786	1	blank2r.bmp	866	5	tot	866	1	!	1319	1	!	-1	0	0	0	0	0	0	0	0	0	0	0	0	0	0	0	0	0	0	0	0	0	0	0	0	0	0	0
010819	13:51:25	13:56:13	288105	5.0.10.0	4_exp_AMP_EVA_AWA_CON	48	Rpleas_acq	Oppo	Rpleas	Bmasked	CS_B	2pleas	distractor2	EVAbeforeCON	acq_US_pleas_masked	acq2_masked	2	14	480	0	300	300	0	0	344	50	0	1	0	0	0	1	blank2r.bmp	0	1	+	0	5	C1r.bmp	492	1	blank2r.bmp	786	1	GKQX	786	1	blank2r.bmp	866	2	spielen	866	1	!	-1	1	!	-1	0	0	0	0	0	0	0	0	0	0	0	0	0	0	0	0	0	0	0	0	0	0	0	0	0	0	0
010819	13:51:25	13:56:16	290450	5.0.10.0	4_exp_AMP_EVA_AWA_CON	48	Rpleas_acq	Oppo	Rpleas	Bmasked	CS_B	2pleas	distractor2	EVAbeforeCON	acq_US_unple_masked	acq2_masked	2	15	480	0	300	300	0	0	559	46	0	1	0	0	0	1	blank2r.bmp	0	1	+	0	8	C4r.bmp	492	1	blank2r.bmp	786	1	BMVZ	786	1	blank2r.bmp	866	5	hindern	866	1	!	1319	1	!	-1	0	0	0	0	0	0	0	0	0	0	0	0	0	0	0	0	0	0	0	0	0	0	0	0	0	0	0
010819	13:51:25	13:56:18	292610	5.0.10.0	4_exp_AMP_EVA_AWA_CON	48	Rpleas_acq	Oppo	Rpleas	Bmasked	CS_B	2pleas	distractor2	EVAbeforeCON	acq_US_unple_masked	acq2_masked	2	16	480	0	300	300	0	0	380	46	0	1	0	0	0	1	blank2r.bmp	0	1	+	0	3	B3r.bmp	492	1	blank2r.bmp	786	1	BMVZ	786	1	blank2r.bmp	866	3	schlecht	866	1	!	-1	1	!	-1	0	0	0	0	0	0	0	0	0	0	0	0	0	0	0	0	0	0	0	0	0	0	0	0	0	0	0
010819	13:51:25	13:56:20	295035	5.0.10.0	4_exp_AMP_EVA_AWA_CON	48	Rpleas_acq	Oppo	Rpleas	Bmasked	CS_B	2pleas	distractor2	EVAbeforeCON	acq_new_pleas_masked	acq2_masked	2	17	480	0	300	300	0	0	634	50	0	1	0	0	0	1	blank2r.bmp	0	1	+	0	4	B4r.bmp	492	1	blank2r.bmp	786	8	C4r.bmp	786	1	blank2r.bmp	866	3	lachen	866	1	!	1319	1	!	-1	0	0	0	0	0	0	0	0	0	0	0	0	0	0	0	0	0	0	0	0	0	0	0	0	0	0	0
010819	13:51:25	13:56:23	297448	5.0.10.0	4_exp_AMP_EVA_AWA_CON	48	Rpleas_acq	Oppo	Rpleas	Bmasked	CS_B	2pleas	distractor2	EVAbeforeCON	acq_US_pleas_masked	acq2_masked	2	18	480	0	300	300	0	0	399	46	0	0	0	0	0	1	blank2r.bmp	0	1	+	0	1	B1r.bmp	492	1	blank2r.bmp	786	1	GKQX	786	1	blank2r.bmp	866	5	helfen	866	1	FEHLER	1612	1	!	-1	1	!	-1	0	0	0	0	0	0	0	0	0	0	0	0	0	0	0	0	0	0	0	0	0	0	0	0
010819	13:51:25	13:56:25	299620	5.0.10.0	4_exp_AMP_EVA_AWA_CON	48	Rpleas_acq	Oppo	Rpleas	Bmasked	CS_B	2pleas	distractor2	EVAbeforeCON	acq_new_unple_masked	acq2_masked	2	19	480	0	300	300	0	0	617	46	0	1	0	0	0	1	blank2r.bmp	0	1	+	0	6	C2r.bmp	492	1	blank2r.bmp	786	2	B2r.bmp	786	1	blank2r.bmp	866	4	fanatisch	866	1	!	1319	1	!	-1	0	0	0	0	0	0	0	0	0	0	0	0	0	0	0	0	0	0	0	0	0	0	0	0	0	0	0
010819	13:51:25	13:56:27	301939	5.0.10.0	4_exp_AMP_EVA_AWA_CON	48	Rpleas_acq	Oppo	Rpleas	Bmasked	CS_B	2pleas	distractor2	EVAbeforeCON	acq_new_unple_masked	acq2_masked	2	20	480	0	300	300	0	0	310	50	0	0	0	0	0	1	blank2r.bmp	0	1	+	0	7	C3r.bmp	492	1	blank2r.bmp	786	3	B3r.bmp	786	1	blank2r.bmp	866	2	lasch	866	1	FEHLER	1519	1	!	-1	1	!	-1	0	0	0	0	0	0	0	0	0	0	0	0	0	0	0	0	0	0	0	0	0	0	0	0
010819	13:51:25	13:56:30	304285	5.0.10.0	4_exp_AMP_EVA_AWA_CON	48	Rpleas_acq	Oppo	Rpleas	Bmasked	CS_B	2pleas	distractor2	EVAbeforeCON	acq_US_unple_masked	acq2_masked	2	21	480	0	300	300	0	0	789	46	0	1	0	0	0	1	blank2r.bmp	0	1	+	0	8	C4r.bmp	492	1	blank2r.bmp	786	1	BMVZ	786	1	blank2r.bmp	866	4	tyrannisch	866	1	!	1319	1	!	-1	0	0	0	0	0	0	0	0	0	0	0	0	0	0	0	0	0	0	0	0	0	0	0	0	0	0	0
010819	13:51:25	13:56:32	306684	5.0.10.0	4_exp_AMP_EVA_AWA_CON	48	Rpleas_acq	Oppo	Rpleas	Bmasked	CS_B	2pleas	distractor2	EVAbeforeCON	acq_US_pleas_masked	acq2_masked	2	22	480	0	300	300	0	0	623	50	0	1	0	0	0	1	blank2r.bmp	0	1	+	0	2	B2r.bmp	492	1	blank2r.bmp	786	1	GKQX	786	1	blank2r.bmp	866	6	schlau	866	1	!	1319	1	!	-1	0	0	0	0	0	0	0	0	0	0	0	0	0	0	0	0	0	0	0	0	0	0	0	0	0	0	0
010819	13:51:25	13:56:38	312921	5.0.10.0	4_exp_AMP_EVA_AWA_CON	48	Rpleas_acq	Oppo	Rpleas	Bmasked	CS_B	2pleas	distractor2	EVAbeforeCON	acq_new_pleas_masked	acq2_masked	2	23	480	0	300	300	0	0	4463	50	0	1	0	0	0	1	blank2r.bmp	0	1	+	0	7	C3r.bmp	492	1	blank2r.bmp	786	4	B4r.bmp	786	1	blank2r.bmp	866	6	retten	866	1	!	1319	1	!	-1	0	0	0	0	0	0	0	0	0	0	0	0	0	0	0	0	0	0	0	0	0	0	0	0	0	0	0
010819	13:51:25	13:56:40	315200	5.0.10.0	4_exp_AMP_EVA_AWA_CON	48	Rpleas_acq	Oppo	Rpleas	Bmasked	CS_B	2pleas	distractor2	EVAbeforeCON	acq_new_pleas_masked	acq2_masked	2	24	480	1	300	300	0	0	456	50	0	1	0	0	0	1	blank2r.bmp	0	1	+	0	3	B3r.bmp	492	1	blank2r.bmp	786	5	C1r.bmp	786	1	blank2r.bmp	866	4	freundlich	866	1	!	1319	1	!	1359	0	0	0	0	0	0	0	0	0	0	0	0	0	0	0	0	0	0	0	0	0	0	0	0	0	0	0
010819	13:51:25	13:56:43	317372	5.0.10.0	4_exp_AMP_EVA_AWA_CON	48	Rpleas_acq	Oppo	Rpleas	Bmasked	CS_B	2pleas	distractor2	EVAbeforeCON	acq_US_unple_masked	acq2_masked	2	25	480	0	300	300	0	0	400	46	0	1	0	0	0	1	blank2r.bmp	0	1	+	0	5	C1r.bmp	492	1	blank2r.bmp	786	1	BMVZ	786	1	blank2r.bmp	866	6	schroff	866	1	!	-1	1	!	-1	0	0	0	0	0	0	0	0	0	0	0	0	0	0	0	0	0	0	0	0	0	0	0	0	0	0	0
010819	13:51:25	13:56:45	319785	5.0.10.0	4_exp_AMP_EVA_AWA_CON	48	Rpleas_acq	Oppo	Rpleas	Bmasked	CS_B	2pleas	distractor2	EVAbeforeCON	acq_new_pleas_masked	acq2_masked	2	26	480	0	300	300	0	0	632	50	0	1	0	0	0	1	blank2r.bmp	0	1	+	0	1	B1r.bmp	492	1	blank2r.bmp	786	6	C2r.bmp	786	1	blank2r.bmp	866	2	loyal	866	1	!	1319	1	!	-1	0	0	0	0	0	0	0	0	0	0	0	0	0	0	0	0	0	0	0	0	0	0	0	0	0	0	0
010819	13:51:25	13:56:47	322197	5.0.10.0	4_exp_AMP_EVA_AWA_CON	48	Rpleas_acq	Oppo	Rpleas	Bmasked	CS_B	2pleas	distractor2	EVAbeforeCON	acq_new_pleas_masked	acq2_masked	2	27	480	0	300	300	0	0	621	50	0	1	0	0	0	1	blank2r.bmp	0	1	+	0	6	C2r.bmp	492	1	blank2r.bmp	786	7	C3r.bmp	786	1	blank2r.bmp	866	5	treu	866	1	!	1319	1	!	-1	0	0	0	0	0	0	0	0	0	0	0	0	0	0	0	0	0	0	0	0	0	0	0	0	0	0	0
010819	13:51:25	13:56:50	324303	5.0.10.0	4_exp_AMP_EVA_AWA_CON	48	Rpleas_acq	Oppo	Rpleas	Bmasked	CS_B	2pleas	distractor2	EVAbeforeCON	acq_new_unple_masked	acq2_masked	2	28	480	0	300	300	0	0	323	46	0	1	0	0	0	1	blank2r.bmp	0	1	+	0	4	B4r.bmp	492	1	blank2r.bmp	786	8	C4r.bmp	786	1	blank2r.bmp	866	6	rächen	866	1	!	-1	1	!	-1	0	0	0	0	0	0	0	0	0	0	0	0	0	0	0	0	0	0	0	0	0	0	0	0	0	0	0
010819	13:51:25	13:56:52	326782	5.0.10.0	4_exp_AMP_EVA_AWA_CON	48	Rpleas_acq	Oppo	Rpleas	Bmasked	CS_B	2pleas	distractor2	EVAbeforeCON	acq_new_unple_masked	acq2_masked	2	29	480	0	300	300	0	0	696	46	0	1	0	0	0	1	blank2r.bmp	0	1	+	0	6	C2r.bmp	492	1	blank2r.bmp	786	4	B4r.bmp	786	1	blank2r.bmp	866	3	leiden	866	1	!	1319	1	!	-1	0	0	0	0	0	0	0	0	0	0	0	0	0	0	0	0	0	0	0	0	0	0	0	0	0	0	0
010819	13:51:25	13:56:54	329128	5.0.10.0	4_exp_AMP_EVA_AWA_CON	48	Rpleas_acq	Oppo	Rpleas	Bmasked	CS_B	2pleas	distractor2	EVAbeforeCON	acq_US_unple_masked	acq2_masked	2	30	480	0	300	300	0	0	563	46	0	1	0	0	0	1	blank2r.bmp	0	1	+	0	8	C4r.bmp	492	1	blank2r.bmp	786	1	BMVZ	786	1	blank2r.bmp	866	2	strafen	866	1	!	1319	1	!	-1	0	0	0	0	0	0	0	0	0	0	0	0	0	0	0	0	0	0	0	0	0	0	0	0	0	0	0
010819	13:51:25	13:56:57	331380	5.0.10.0	4_exp_AMP_EVA_AWA_CON	48	Rpleas_acq	Oppo	Rpleas	Bmasked	CS_B	2pleas	distractor2	EVAbeforeCON	acq_US_pleas_masked	acq2_masked	2	31	480	1	300	300	0	0	448	50	0	1	0	0	0	1	blank2r.bmp	0	1	+	0	2	B2r.bmp	492	1	blank2r.bmp	786	1	GKQX	786	1	blank2r.bmp	866	1	fair	866	1	!	1319	1	!	1346	0	0	0	0	0	0	0	0	0	0	0	0	0	0	0	0	0	0	0	0	0	0	0	0	0	0	0
010819	13:51:25	13:56:59	333726	5.0.10.0	4_exp_AMP_EVA_AWA_CON	48	Rpleas_acq	Oppo	Rpleas	Bmasked	CS_B	2pleas	distractor2	EVAbeforeCON	acq_US_pleas_masked	acq2_masked	2	32	480	0	300	300	0	0	579	50	0	1	0	0	0	1	blank2r.bmp	0	1	+	0	3	B3r.bmp	492	1	blank2r.bmp	786	1	GKQX	786	1	blank2r.bmp	866	4	tolerant	866	1	!	1319	1	!	-1	0	0	0	0	0	0	0	0	0	0	0	0	0	0	0	0	0	0	0	0	0	0	0	0	0	0	0
010819	13:51:25	13:57:01	336031	5.0.10.0	4_exp_AMP_EVA_AWA_CON	48	Rpleas_acq	Oppo	Rpleas	Bmasked	CS_B	2pleas	distractor2	EVAbeforeCON	acq_US_unple_masked	acq2_masked	2	33	480	1	300	300	0	0	493	46	0	1	0	0	0	1	blank2r.bmp	0	1	+	0	1	B1r.bmp	492	1	blank2r.bmp	786	1	BMVZ	786	1	blank2r.bmp	866	1	faul	866	1	!	1319	1	!	1399	0	0	0	0	0	0	0	0	0	0	0	0	0	0	0	0	0	0	0	0	0	0	0	0	0	0	0
010819	13:51:25	13:57:04	338617	5.0.10.0	4_exp_AMP_EVA_AWA_CON	48	Rpleas_acq	Oppo	Rpleas	Bmasked	CS_B	2pleas	distractor2	EVAbeforeCON	acq_new_unple_masked	acq2_masked	2	34	480	0	300	300	0	0	596	50	0	0	0	0	0	1	blank2r.bmp	0	1	+	0	4	B4r.bmp	492	1	blank2r.bmp	786	3	B3r.bmp	786	1	blank2r.bmp	866	1	eitel	866	1	FEHLER	1799	1	!	1319	1	!	-1	0	0	0	0	0	0	0	0	0	0	0	0	0	0	0	0	0	0	0	0	0	0	0	0
010819	13:51:25	13:57:06	340563	5.0.10.0	4_exp_AMP_EVA_AWA_CON	48	Rpleas_acq	Oppo	Rpleas	Bmasked	CS_B	2pleas	distractor2	EVAbeforeCON	acq_new_pleas_masked	acq2_masked	2	35	480	0	300	300	0	0	395	50	0	1	0	0	0	1	blank2r.bmp	0	1	+	0	7	C3r.bmp	492	1	blank2r.bmp	786	2	B2r.bmp	786	1	blank2r.bmp	866	1	ehrlich	866	1	!	-1	1	!	-1	0	0	0	0	0	0	0	0	0	0	0	0	0	0	0	0	0	0	0	0	0	0	0	0	0	0	0
010819	13:51:25	13:57:08	342895	5.0.10.0	4_exp_AMP_EVA_AWA_CON	48	Rpleas_acq	Oppo	Rpleas	Bmasked	CS_B	2pleas	distractor2	EVAbeforeCON	acq_US_pleas_masked	acq2_masked	2	36	480	1	300	300	0	0	522	50	0	1	0	0	0	1	blank2r.bmp	0	1	+	0	5	C1r.bmp	492	1	blank2r.bmp	786	1	GKQX	786	1	blank2r.bmp	866	3	schön	866	1	!	1319	1	!	1426	0	0	0	0	0	0	0	0	0	0	0	0	0	0	0	0	0	0	0	0	0	0	0	0	0	0	0
010819	13:51:25	13:57:24	358475	5.0.10.0	4_exp_AMP_EVA_AWA_CON	48	Rpleas_acq	Oppo	Rpleas	Bmasked	CS_B	2pleas	distractor2	EVAbeforeCON	acq_US_pleas_masked	acq3_masked	3	1	453	0	300	300	0	0	4868	50	0	1	0	0	0	1	blank2r.bmp	0	1	+	0	7	C3r.bmp	492	1	blank2r.bmp	786	1	GKQX	786	1	blank2r.bmp	866	6	schlau	866	1	!	1292	1	!	-1	0	0	0	0	0	0	0	0	0	0	0	0	0	0	0	0	0	0	0	0	0	0	0	0	0	0	0
010819	13:51:25	13:57:26	360634	5.0.10.0	4_exp_AMP_EVA_AWA_CON	48	Rpleas_acq	Oppo	Rpleas	Bmasked	CS_B	2pleas	distractor2	EVAbeforeCON	acq_US_pleas_masked	acq3_masked	3	2	453	0	300	300	0	0	383	50	0	1	0	0	0	1	blank2r.bmp	0	1	+	0	5	C1r.bmp	492	1	blank2r.bmp	786	1	GKQX	786	1	blank2r.bmp	866	3	schön	866	1	!	-1	1	!	-1	0	0	0	0	0	0	0	0	0	0	0	0	0	0	0	0	0	0	0	0	0	0	0	0	0	0	0
010819	13:51:25	13:57:30	365006	5.0.10.0	4_exp_AMP_EVA_AWA_CON	48	Rpleas_acq	Oppo	Rpleas	Bmasked	CS_B	2pleas	distractor2	EVAbeforeCON	acq_US_unple_masked	acq3_masked	3	3	453	0	300	300	0	0	2366	50	0	0	0	0	0	1	blank2r.bmp	0	1	+	0	1	B1r.bmp	492	1	blank2r.bmp	786	1	BMVZ	786	1	blank2r.bmp	866	1	faul	866	1	FEHLER	3571	1	!	1292	1	!	-1	0	0	0	0	0	0	0	0	0	0	0	0	0	0	0	0	0	0	0	0	0	0	0	0
010819	13:51:25	13:57:32	367072	5.0.10.0	4_exp_AMP_EVA_AWA_CON	48	Rpleas_acq	Oppo	Rpleas	Bmasked	CS_B	2pleas	distractor2	EVAbeforeCON	acq_US_unple_masked	acq3_masked	3	4	453	1	300	300	0	0	490	46	0	1	0	0	0	1	blank2r.bmp	0	1	+	0	6	C2r.bmp	492	1	blank2r.bmp	786	1	BMVZ	786	1	blank2r.bmp	866	5	hindern	866	1	!	1292	1	!	1386	0	0	0	0	0	0	0	0	0	0	0	0	0	0	0	0	0	0	0	0	0	0	0	0	0	0	0
010819	13:51:25	13:57:35	369377	5.0.10.0	4_exp_AMP_EVA_AWA_CON	48	Rpleas_acq	Oppo	Rpleas	Bmasked	CS_B	2pleas	distractor2	EVAbeforeCON	acq_US_pleas_masked	acq3_masked	3	5	453	1	300	300	0	0	517	50	0	1	0	0	0	1	blank2r.bmp	0	1	+	0	8	C4r.bmp	492	1	blank2r.bmp	786	1	GKQX	786	1	blank2r.bmp	866	1	fair	866	1	!	1292	1	!	1412	0	0	0	0	0	0	0	0	0	0	0	0	0	0	0	0	0	0	0	0	0	0	0	0	0	0	0
010819	13:51:25	13:57:37	371603	5.0.10.0	4_exp_AMP_EVA_AWA_CON	48	Rpleas_acq	Oppo	Rpleas	Bmasked	CS_B	2pleas	distractor2	EVAbeforeCON	acq_US_unple_masked	acq3_masked	3	6	453	1	300	300	0	0	428	46	0	1	0	0	0	1	blank2r.bmp	0	1	+	0	4	B4r.bmp	492	1	blank2r.bmp	786	1	BMVZ	786	1	blank2r.bmp	866	3	schlecht	866	1	!	1292	1	!	1332	0	0	0	0	0	0	0	0	0	0	0	0	0	0	0	0	0	0	0	0	0	0	0	0	0	0	0
010819	13:51:25	13:57:39	373882	5.0.10.0	4_exp_AMP_EVA_AWA_CON	48	Rpleas_acq	Oppo	Rpleas	Bmasked	CS_B	2pleas	distractor2	EVAbeforeCON	acq_US_unple_masked	acq3_masked	3	7	453	1	300	300	0	0	490	46	0	1	0	0	0	1	blank2r.bmp	0	1	+	0	2	B2r.bmp	492	1	blank2r.bmp	786	1	BMVZ	786	1	blank2r.bmp	866	6	schroff	866	1	!	1292	1	!	1386	0	0	0	0	0	0	0	0	0	0	0	0	0	0	0	0	0	0	0	0	0	0	0	0	0	0	0
010819	13:51:25	13:57:41	376188	5.0.10.0	4_exp_AMP_EVA_AWA_CON	48	Rpleas_acq	Oppo	Rpleas	Bmasked	CS_B	2pleas	distractor2	EVAbeforeCON	acq_US_pleas_masked	acq3_masked	3	8	453	1	300	300	0	0	500	50	0	1	0	0	0	1	blank2r.bmp	0	1	+	0	3	B3r.bmp	492	1	blank2r.bmp	786	1	GKQX	786	1	blank2r.bmp	866	4	tolerant	866	1	!	1292	1	!	1399	0	0	0	0	0	0	0	0	0	0	0	0	0	0	0	0	0	0	0	0	0	0	0	0	0	0	0
010819	13:51:25	13:57:44	378387	5.0.10.0	4_exp_AMP_EVA_AWA_CON	48	Rpleas_acq	Oppo	Rpleas	Bmasked	CS_B	2pleas	distractor2	EVAbeforeCON	acq_US_unple_masked	acq3_masked	3	9	453	1	300	300	0	0	401	46	0	1	0	0	0	1	blank2r.bmp	0	1	+	0	2	B2r.bmp	492	1	blank2r.bmp	786	1	BMVZ	786	1	blank2r.bmp	866	2	strafen	866	1	!	1292	1	!	1306	0	0	0	0	0	0	0	0	0	0	0	0	0	0	0	0	0	0	0	0	0	0	0	0	0	0	0
010819	13:51:25	13:57:46	380626	5.0.10.0	4_exp_AMP_EVA_AWA_CON	48	Rpleas_acq	Oppo	Rpleas	Bmasked	CS_B	2pleas	distractor2	EVAbeforeCON	acq_US_pleas_masked	acq3_masked	3	10	453	1	300	300	0	0	448	50	0	1	0	0	0	1	blank2r.bmp	0	1	+	0	1	B1r.bmp	492	1	blank2r.bmp	786	1	GKQX	786	1	blank2r.bmp	866	5	helfen	866	1	!	1292	1	!	1346	0	0	0	0	0	0	0	0	0	0	0	0	0	0	0	0	0	0	0	0	0	0	0	0	0	0	0
010819	13:51:25	13:57:48	382865	5.0.10.0	4_exp_AMP_EVA_AWA_CON	48	Rpleas_acq	Oppo	Rpleas	Bmasked	CS_B	2pleas	distractor2	EVAbeforeCON	acq_US_unple_masked	acq3_masked	3	11	453	1	300	300	0	0	445	46	0	1	0	0	0	1	blank2r.bmp	0	1	+	0	7	C3r.bmp	492	1	blank2r.bmp	786	1	BMVZ	786	1	blank2r.bmp	866	4	tyrannisch	866	1	!	1292	1	!	1346	0	0	0	0	0	0	0	0	0	0	0	0	0	0	0	0	0	0	0	0	0	0	0	0	0	0	0
010819	13:51:25	13:57:50	385211	5.0.10.0	4_exp_AMP_EVA_AWA_CON	48	Rpleas_acq	Oppo	Rpleas	Bmasked	CS_B	2pleas	distractor2	EVAbeforeCON	acq_US_pleas_masked	acq3_masked	3	12	453	0	300	300	0	0	573	50	0	1	0	0	0	1	blank2r.bmp	0	1	+	0	6	C2r.bmp	492	1	blank2r.bmp	786	1	GKQX	786	1	blank2r.bmp	866	2	spielen	866	1	!	1292	1	!	-1	0	0	0	0	0	0	0	0	0	0	0	0	0	0	0	0	0	0	0	0	0	0	0	0	0	0	0
010819	13:51:25	13:57:53	387556	5.0.10.0	4_exp_AMP_EVA_AWA_CON	48	Rpleas_acq	Oppo	Rpleas	Bmasked	CS_B	2pleas	distractor2	EVAbeforeCON	acq_US_unple_masked	acq3_masked	3	13	453	0	300	300	0	0	554	46	0	1	0	0	0	1	blank2r.bmp	0	1	+	0	8	C4r.bmp	492	1	blank2r.bmp	786	1	BMVZ	786	1	blank2r.bmp	866	5	hindern	866	1	!	1292	1	!	-1	0	0	0	0	0	0	0	0	0	0	0	0	0	0	0	0	0	0	0	0	0	0	0	0	0	0	0
010819	13:51:25	13:57:55	389782	5.0.10.0	4_exp_AMP_EVA_AWA_CON	48	Rpleas_acq	Oppo	Rpleas	Bmasked	CS_B	2pleas	distractor2	EVAbeforeCON	acq_US_pleas_masked	acq3_masked	3	14	453	1	300	300	0	0	423	50	0	1	0	0	0	1	blank2r.bmp	0	1	+	0	3	B3r.bmp	492	1	blank2r.bmp	786	1	GKQX	786	1	blank2r.bmp	866	1	fair	866	1	!	1292	1	!	1319	0	0	0	0	0	0	0	0	0	0	0	0	0	0	0	0	0	0	0	0	0	0	0	0	0	0	0
010819	13:51:25	13:57:57	392141	5.0.10.0	4_exp_AMP_EVA_AWA_CON	48	Rpleas_acq	Oppo	Rpleas	Bmasked	CS_B	2pleas	distractor2	EVAbeforeCON	acq_US_pleas_masked	acq3_masked	3	15	453	0	300	300	0	0	368	46	0	0	0	0	0	1	blank2r.bmp	0	1	+	0	5	C1r.bmp	492	1	blank2r.bmp	786	1	GKQX	786	1	blank2r.bmp	866	2	spielen	866	1	FEHLER	1572	1	!	-1	1	!	-1	0	0	0	0	0	0	0	0	0	0	0	0	0	0	0	0	0	0	0	0	0	0	0	0
010819	13:51:25	13:57:59	394074	5.0.10.0	4_exp_AMP_EVA_AWA_CON	48	Rpleas_acq	Oppo	Rpleas	Bmasked	CS_B	2pleas	distractor2	EVAbeforeCON	acq_US_unple_masked	acq3_masked	3	16	453	0	300	300	0	0	381	46	0	1	0	0	0	1	blank2r.bmp	0	1	+	0	4	B4r.bmp	492	1	blank2r.bmp	786	1	BMVZ	786	1	blank2r.bmp	866	4	tyrannisch	866	1	!	-1	1	!	-1	0	0	0	0	0	0	0	0	0	0	0	0	0	0	0	0	0	0	0	0	0	0	0	0	0	0	0
010819	13:51:25	13:58:02	396393	5.0.10.0	4_exp_AMP_EVA_AWA_CON	48	Rpleas_acq	Oppo	Rpleas	Bmasked	CS_B	2pleas	distractor2	EVAbeforeCON	acq_US_unple_masked	acq3_masked	3	17	453	0	300	300	0	0	537	46	0	1	0	0	0	1	blank2r.bmp	0	1	+	0	4	B4r.bmp	492	1	blank2r.bmp	786	1	BMVZ	786	1	blank2r.bmp	866	3	schlecht	866	1	!	1292	1	!	-1	0	0	0	0	0	0	0	0	0	0	0	0	0	0	0	0	0	0	0	0	0	0	0	0	0	0	0
010819	13:51:25	13:58:04	398818	5.0.10.0	4_exp_AMP_EVA_AWA_CON	48	Rpleas_acq	Oppo	Rpleas	Bmasked	CS_B	2pleas	distractor2	EVAbeforeCON	acq_US_pleas_masked	acq3_masked	3	18	453	1	300	300	0	0	411	46	0	0	0	0	0	1	blank2r.bmp	0	1	+	0	2	B2r.bmp	492	1	blank2r.bmp	786	1	GKQX	786	1	blank2r.bmp	866	4	tolerant	866	1	FEHLER	1625	1	!	1292	1	!	1306	0	0	0	0	0	0	0	0	0	0	0	0	0	0	0	0	0	0	0	0	0	0	0	0
010819	13:51:25	13:58:06	400804	5.0.10.0	4_exp_AMP_EVA_AWA_CON	48	Rpleas_acq	Oppo	Rpleas	Bmasked	CS_B	2pleas	distractor2	EVAbeforeCON	acq_US_pleas_masked	acq3_masked	3	19	453	1	300	300	0	0	399	50	0	1	0	0	0	1	blank2r.bmp	0	1	+	0	3	B3r.bmp	492	1	blank2r.bmp	786	1	GKQX	786	1	blank2r.bmp	866	5	helfen	866	1	!	1292	1	!	1306	0	0	0	0	0	0	0	0	0	0	0	0	0	0	0	0	0	0	0	0	0	0	0	0	0	0	0
010819	13:51:25	13:58:08	403110	5.0.10.0	4_exp_AMP_EVA_AWA_CON	48	Rpleas_acq	Oppo	Rpleas	Bmasked	CS_B	2pleas	distractor2	EVAbeforeCON	acq_US_pleas_masked	acq3_masked	3	20	453	1	300	300	0	0	506	50	0	1	0	0	0	1	blank2r.bmp	0	1	+	0	6	C2r.bmp	492	1	blank2r.bmp	786	1	GKQX	786	1	blank2r.bmp	866	6	schlau	866	1	!	1292	1	!	1412	0	0	0	0	0	0	0	0	0	0	0	0	0	0	0	0	0	0	0	0	0	0	0	0	0	0	0
010819	13:51:25	13:58:10	405202	5.0.10.0	4_exp_AMP_EVA_AWA_CON	48	Rpleas_acq	Oppo	Rpleas	Bmasked	CS_B	2pleas	distractor2	EVAbeforeCON	acq_US_pleas_masked	acq3_masked	3	21	453	0	300	300	0	0	320	50	0	1	0	0	0	1	blank2r.bmp	0	1	+	0	1	B1r.bmp	492	1	blank2r.bmp	786	1	GKQX	786	1	blank2r.bmp	866	3	schön	866	1	!	-1	1	!	-1	0	0	0	0	0	0	0	0	0	0	0	0	0	0	0	0	0	0	0	0	0	0	0	0	0	0	0
010819	13:51:25	13:58:13	407481	5.0.10.0	4_exp_AMP_EVA_AWA_CON	48	Rpleas_acq	Oppo	Rpleas	Bmasked	CS_B	2pleas	distractor2	EVAbeforeCON	acq_US_unple_masked	acq3_masked	3	22	453	1	300	300	0	0	465	46	0	1	0	0	0	1	blank2r.bmp	0	1	+	0	5	C1r.bmp	492	1	blank2r.bmp	786	1	BMVZ	786	1	blank2r.bmp	866	2	strafen	866	1	!	1292	1	!	1372	0	0	0	0	0	0	0	0	0	0	0	0	0	0	0	0	0	0	0	0	0	0	0	0	0	0	0
010819	13:51:25	13:58:15	409760	5.0.10.0	4_exp_AMP_EVA_AWA_CON	48	Rpleas_acq	Oppo	Rpleas	Bmasked	CS_B	2pleas	distractor2	EVAbeforeCON	acq_US_unple_masked	acq3_masked	3	23	453	1	300	300	0	0	480	46	0	1	0	0	0	1	blank2r.bmp	0	1	+	0	7	C3r.bmp	492	1	blank2r.bmp	786	1	BMVZ	786	1	blank2r.bmp	866	1	faul	866	1	!	1292	1	!	1386	0	0	0	0	0	0	0	0	0	0	0	0	0	0	0	0	0	0	0	0	0	0	0	0	0	0	0
010819	13:51:25	13:58:17	411973	5.0.10.0	4_exp_AMP_EVA_AWA_CON	48	Rpleas_acq	Oppo	Rpleas	Bmasked	CS_B	2pleas	distractor2	EVAbeforeCON	acq_US_unple_masked	acq3_masked	3	24	453	1	300	300	0	0	418	46	0	1	0	0	0	1	blank2r.bmp	0	1	+	0	8	C4r.bmp	492	1	blank2r.bmp	786	1	BMVZ	786	1	blank2r.bmp	866	6	schroff	866	1	!	1292	1	!	1319	0	0	0	0	0	0	0	0	0	0	0	0	0	0	0	0	0	0	0	0	0	0	0	0	0	0	0
010819	13:51:25	13:58:19	414172	5.0.10.0	4_exp_AMP_EVA_AWA_CON	48	Rpleas_acq	Oppo	Rpleas	Bmasked	CS_B	2pleas	distractor2	EVAbeforeCON	acq_US_pleas_masked	acq3_masked	3	25	453	1	300	300	0	0	399	50	0	1	0	0	0	1	blank2r.bmp	0	1	+	0	7	C3r.bmp	492	1	blank2r.bmp	786	1	GKQX	786	1	blank2r.bmp	866	6	schlau	866	1	!	1292	1	!	1306	0	0	0	0	0	0	0	0	0	0	0	0	0	0	0	0	0	0	0	0	0	0	0	0	0	0	0
010819	13:51:25	13:58:22	416371	5.0.10.0	4_exp_AMP_EVA_AWA_CON	48	Rpleas_acq	Oppo	Rpleas	Bmasked	CS_B	2pleas	distractor2	EVAbeforeCON	acq_US_unple_masked	acq3_masked	3	26	453	1	300	300	0	0	406	46	0	1	0	0	0	1	blank2r.bmp	0	1	+	0	5	C1r.bmp	492	1	blank2r.bmp	786	1	BMVZ	786	1	blank2r.bmp	866	6	schroff	866	1	!	1292	1	!	1306	0	0	0	0	0	0	0	0	0	0	0	0	0	0	0	0	0	0	0	0	0	0	0	0	0	0	0
010819	13:51:25	13:58:24	418570	5.0.10.0	4_exp_AMP_EVA_AWA_CON	48	Rpleas_acq	Oppo	Rpleas	Bmasked	CS_B	2pleas	distractor2	EVAbeforeCON	acq_US_unple_masked	acq3_masked	3	27	453	1	300	300	0	0	399	46	0	1	0	0	0	1	blank2r.bmp	0	1	+	0	8	C4r.bmp	492	1	blank2r.bmp	786	1	BMVZ	786	1	blank2r.bmp	866	1	faul	866	1	!	1292	1	!	1306	0	0	0	0	0	0	0	0	0	0	0	0	0	0	0	0	0	0	0	0	0	0	0	0	0	0	0
010819	13:51:25	13:58:26	420769	5.0.10.0	4_exp_AMP_EVA_AWA_CON	48	Rpleas_acq	Oppo	Rpleas	Bmasked	CS_B	2pleas	distractor2	EVAbeforeCON	acq_US_pleas_masked	acq3_masked	3	28	453	1	300	300	0	0	400	50	0	1	0	0	0	1	blank2r.bmp	0	1	+	0	1	B1r.bmp	492	1	blank2r.bmp	786	1	GKQX	786	1	blank2r.bmp	866	2	spielen	866	1	!	1292	1	!	1306	0	0	0	0	0	0	0	0	0	0	0	0	0	0	0	0	0	0	0	0	0	0	0	0	0	0	0
010819	13:51:25	13:58:28	423181	5.0.10.0	4_exp_AMP_EVA_AWA_CON	48	Rpleas_acq	Oppo	Rpleas	Bmasked	CS_B	2pleas	distractor2	EVAbeforeCON	acq_US_pleas_masked	acq3_masked	3	29	453	1	300	300	0	0	404	46	0	0	0	0	0	1	blank2r.bmp	0	1	+	0	3	B3r.bmp	492	1	blank2r.bmp	786	1	GKQX	786	1	blank2r.bmp	866	1	fair	866	1	FEHLER	1625	1	!	1292	1	!	1306	0	0	0	0	0	0	0	0	0	0	0	0	0	0	0	0	0	0	0	0	0	0	0	0
010819	13:51:25	13:58:31	425340	5.0.10.0	4_exp_AMP_EVA_AWA_CON	48	Rpleas_acq	Oppo	Rpleas	Bmasked	CS_B	2pleas	distractor2	EVAbeforeCON	acq_US_pleas_masked	acq3_masked	3	30	453	0	300	300	0	0	378	46	0	0	0	0	0	1	blank2r.bmp	0	1	+	0	6	C2r.bmp	492	1	blank2r.bmp	786	1	GKQX	786	1	blank2r.bmp	866	5	helfen	866	1	FEHLER	1585	1	!	-1	1	!	-1	0	0	0	0	0	0	0	0	0	0	0	0	0	0	0	0	0	0	0	0	0	0	0	0
010819	13:51:25	13:58:33	427366	5.0.10.0	4_exp_AMP_EVA_AWA_CON	48	Rpleas_acq	Oppo	Rpleas	Bmasked	CS_B	2pleas	distractor2	EVAbeforeCON	acq_US_unple_masked	acq3_masked	3	31	453	1	300	300	0	0	450	46	0	1	0	0	0	1	blank2r.bmp	0	1	+	0	4	B4r.bmp	492	1	blank2r.bmp	786	1	BMVZ	786	1	blank2r.bmp	866	2	strafen	866	1	!	1292	1	!	1346	0	0	0	0	0	0	0	0	0	0	0	0	0	0	0	0	0	0	0	0	0	0	0	0	0	0	0
010819	13:51:25	13:58:35	429579	5.0.10.0	4_exp_AMP_EVA_AWA_CON	48	Rpleas_acq	Oppo	Rpleas	Bmasked	CS_B	2pleas	distractor2	EVAbeforeCON	acq_US_unple_masked	acq3_masked	3	32	453	1	300	300	0	0	423	46	0	1	0	0	0	1	blank2r.bmp	0	1	+	0	2	B2r.bmp	492	1	blank2r.bmp	786	1	BMVZ	786	1	blank2r.bmp	866	3	schlecht	866	1	!	1292	1	!	1319	0	0	0	0	0	0	0	0	0	0	0	0	0	0	0	0	0	0	0	0	0	0	0	0	0	0	0
010819	13:51:25	13:58:37	431884	5.0.10.0	4_exp_AMP_EVA_AWA_CON	48	Rpleas_acq	Oppo	Rpleas	Bmasked	CS_B	2pleas	distractor2	EVAbeforeCON	acq_US_unple_masked	acq3_masked	3	33	453	1	300	300	0	0	517	46	0	1	0	0	0	1	blank2r.bmp	0	1	+	0	5	C1r.bmp	492	1	blank2r.bmp	786	1	BMVZ	786	1	blank2r.bmp	866	4	tyrannisch	866	1	!	1292	1	!	1412	0	0	0	0	0	0	0	0	0	0	0	0	0	0	0	0	0	0	0	0	0	0	0	0	0	0	0
010819	13:51:25	13:58:39	434217	5.0.10.0	4_exp_AMP_EVA_AWA_CON	48	Rpleas_acq	Oppo	Rpleas	Bmasked	CS_B	2pleas	distractor2	EVAbeforeCON	acq_US_pleas_masked	acq3_masked	3	34	453	0	300	300	0	0	548	50	0	1	0	0	0	1	blank2r.bmp	0	1	+	0	7	C3r.bmp	492	1	blank2r.bmp	786	1	GKQX	786	1	blank2r.bmp	866	4	tolerant	866	1	!	1292	1	!	-1	0	0	0	0	0	0	0	0	0	0	0	0	0	0	0	0	0	0	0	0	0	0	0	0	0	0	0
010819	13:51:25	13:58:42	436536	5.0.10.0	4_exp_AMP_EVA_AWA_CON	48	Rpleas_acq	Oppo	Rpleas	Bmasked	CS_B	2pleas	distractor2	EVAbeforeCON	acq_US_pleas_masked	acq3_masked	3	35	453	0	300	300	0	0	532	50	0	1	0	0	0	1	blank2r.bmp	0	1	+	0	3	B3r.bmp	492	1	blank2r.bmp	786	1	GKQX	786	1	blank2r.bmp	866	3	schön	866	1	!	1292	1	!	-1	0	0	0	0	0	0	0	0	0	0	0	0	0	0	0	0	0	0	0	0	0	0	0	0	0	0	0
010819	13:51:25	13:58:44	438841	5.0.10.0	4_exp_AMP_EVA_AWA_CON	48	Rpleas_acq	Oppo	Rpleas	Bmasked	CS_B	2pleas	distractor2	EVAbeforeCON	acq_US_unple_masked	acq3_masked	3	36	453	1	300	300	0	0	485	46	0	1	0	0	0	1	blank2r.bmp	0	1	+	0	4	B4r.bmp	492	1	blank2r.bmp	786	1	BMVZ	786	1	blank2r.bmp	866	5	hindern	866	1	!	1292	1	!	1386	0	0	0	0	0	0	0	0	0	0	0	0	0	0	0	0	0	0	0	0	0	0	0	0	0	0	0
010819	13:51:25	13:58:58	452915	5.0.10.0	4_exp_AMP_EVA_AWA_CON	48	Rpleas_acq	Oppo	Rpleas	Bmasked	CS_B	2pleas	distractor2	EVAbeforeCON	acq_US_unple_masked	acq45_masked	4	1	400	1	300	300	0	0	409	46	0	1	0	0	0	1	blank2r.bmp	0	1	+	0	2	B2r.bmp	492	1	blank2r.bmp	786	1	BMVZ	786	1	blank2r.bmp	866	2	strafen	866	1	!	1239	1	!	1306	0	0	0	0	0	0	0	0	0	0	0	0	0	0	0	0	0	0	0	0	0	0	0	0	0	0	0
010819	13:51:25	13:59:00	455168	5.0.10.0	4_exp_AMP_EVA_AWA_CON	48	Rpleas_acq	Oppo	Rpleas	Bmasked	CS_B	2pleas	distractor2	EVAbeforeCON	acq_US_unple_masked	acq45_masked	4	2	400	0	300	300	0	0	479	46	0	1	0	0	0	1	blank2r.bmp	0	1	+	0	8	C4r.bmp	492	1	blank2r.bmp	786	1	BMVZ	786	1	blank2r.bmp	866	1	faul	866	1	!	1239	1	!	-1	0	0	0	0	0	0	0	0	0	0	0	0	0	0	0	0	0	0	0	0	0	0	0	0	0	0	0
010819	13:51:25	13:59:03	457327	5.0.10.0	4_exp_AMP_EVA_AWA_CON	48	Rpleas_acq	Oppo	Rpleas	Bmasked	CS_B	2pleas	distractor2	EVAbeforeCON	acq_US_pleas_masked	acq45_masked	4	3	400	1	300	300	0	0	349	50	0	1	0	0	0	1	blank2r.bmp	0	1	+	0	1	B1r.bmp	492	1	blank2r.bmp	786	1	GKQX	786	1	blank2r.bmp	866	6	schlau	866	1	!	1239	1	!	1252	0	0	0	0	0	0	0	0	0	0	0	0	0	0	0	0	0	0	0	0	0	0	0	0	0	0	0
010819	13:51:25	13:59:05	459553	5.0.10.0	4_exp_AMP_EVA_AWA_CON	48	Rpleas_acq	Oppo	Rpleas	Bmasked	CS_B	2pleas	distractor2	EVAbeforeCON	acq_US_unple_masked	acq45_masked	4	4	400	1	300	300	0	0	423	46	0	1	0	0	0	1	blank2r.bmp	0	1	+	0	6	C2r.bmp	492	1	blank2r.bmp	786	1	BMVZ	786	1	blank2r.bmp	866	5	hindern	866	1	!	1239	1	!	1319	0	0	0	0	0	0	0	0	0	0	0	0	0	0	0	0	0	0	0	0	0	0	0	0	0	0	0
010819	13:51:25	13:59:07	461778	5.0.10.0	4_exp_AMP_EVA_AWA_CON	48	Rpleas_acq	Oppo	Rpleas	Bmasked	CS_B	2pleas	distractor2	EVAbeforeCON	acq_US_pleas_masked	acq45_masked	4	5	400	1	300	300	0	0	438	50	0	1	0	0	0	1	blank2r.bmp	0	1	+	0	2	B2r.bmp	492	1	blank2r.bmp	786	1	GKQX	786	1	blank2r.bmp	866	5	helfen	866	1	!	1239	1	!	1332	0	0	0	0	0	0	0	0	0	0	0	0	0	0	0	0	0	0	0	0	0	0	0	0	0	0	0
010819	13:51:25	13:59:09	463937	5.0.10.0	4_exp_AMP_EVA_AWA_CON	48	Rpleas_acq	Oppo	Rpleas	Bmasked	CS_B	2pleas	distractor2	EVAbeforeCON	acq_US_unple_masked	acq45_masked	4	6	400	1	300	300	0	0	360	46	0	1	0	0	0	1	blank2r.bmp	0	1	+	0	5	C1r.bmp	492	1	blank2r.bmp	786	1	BMVZ	786	1	blank2r.bmp	866	4	tyrannisch	866	1	!	1239	1	!	1266	0	0	0	0	0	0	0	0	0	0	0	0	0	0	0	0	0	0	0	0	0	0	0	0	0	0	0
010819	13:51:25	13:59:11	466137	5.0.10.0	4_exp_AMP_EVA_AWA_CON	48	Rpleas_acq	Oppo	Rpleas	Bmasked	CS_B	2pleas	distractor2	EVAbeforeCON	acq_US_pleas_masked	acq45_masked	4	7	400	1	300	300	0	0	403	50	0	1	0	0	0	1	blank2r.bmp	0	1	+	0	7	C3r.bmp	492	1	blank2r.bmp	786	1	GKQX	786	1	blank2r.bmp	866	1	fair	866	1	!	1239	1	!	1306	0	0	0	0	0	0	0	0	0	0	0	0	0	0	0	0	0	0	0	0	0	0	0	0	0	0	0
010819	13:51:25	13:59:14	468322	5.0.10.0	4_exp_AMP_EVA_AWA_CON	48	Rpleas_acq	Oppo	Rpleas	Bmasked	CS_B	2pleas	distractor2	EVAbeforeCON	acq_US_pleas_masked	acq45_masked	4	8	400	1	300	300	0	0	391	50	0	1	0	0	0	1	blank2r.bmp	0	1	+	0	4	B4r.bmp	492	1	blank2r.bmp	786	1	GKQX	786	1	blank2r.bmp	866	3	schön	866	1	!	1239	1	!	1292	0	0	0	0	0	0	0	0	0	0	0	0	0	0	0	0	0	0	0	0	0	0	0	0	0	0	0
010819	13:51:25	13:59:16	470481	5.0.10.0	4_exp_AMP_EVA_AWA_CON	48	Rpleas_acq	Oppo	Rpleas	Bmasked	CS_B	2pleas	distractor2	EVAbeforeCON	acq_US_pleas_masked	acq45_masked	4	9	400	1	300	300	0	0	363	50	0	1	0	0	0	1	blank2r.bmp	0	1	+	0	1	B1r.bmp	492	1	blank2r.bmp	786	1	GKQX	786	1	blank2r.bmp	866	2	spielen	866	1	!	1239	1	!	1266	0	0	0	0	0	0	0	0	0	0	0	0	0	0	0	0	0	0	0	0	0	0	0	0	0	0	0
010819	13:51:25	13:59:18	472640	5.0.10.0	4_exp_AMP_EVA_AWA_CON	48	Rpleas_acq	Oppo	Rpleas	Bmasked	CS_B	2pleas	distractor2	EVAbeforeCON	acq_US_unple_masked	acq45_masked	4	10	400	1	300	300	0	0	368	46	0	1	0	0	0	1	blank2r.bmp	0	1	+	0	6	C2r.bmp	492	1	blank2r.bmp	786	1	BMVZ	786	1	blank2r.bmp	866	3	schlecht	866	1	!	1239	1	!	1266	0	0	0	0	0	0	0	0	0	0	0	0	0	0	0	0	0	0	0	0	0	0	0	0	0	0	0
010819	13:51:25	13:59:20	474853	5.0.10.0	4_exp_AMP_EVA_AWA_CON	48	Rpleas_acq	Oppo	Rpleas	Bmasked	CS_B	2pleas	distractor2	EVAbeforeCON	acq_US_pleas_masked	acq45_masked	4	11	400	1	300	300	0	0	415	46	0	0	0	0	0	1	blank2r.bmp	0	1	+	0	8	C4r.bmp	492	1	blank2r.bmp	786	1	GKQX	786	1	blank2r.bmp	866	4	tolerant	866	1	!	1239	1	!	1319	0	0	0	0	0	0	0	0	0	0	0	0	0	0	0	0	0	0	0	0	0	0	0	0	0	0	0
010819	13:51:25	13:59:22	477119	5.0.10.0	4_exp_AMP_EVA_AWA_CON	48	Rpleas_acq	Oppo	Rpleas	Bmasked	CS_B	2pleas	distractor2	EVAbeforeCON	acq_US_unple_masked	acq45_masked	4	12	400	0	300	300	0	0	494	46	0	1	0	0	0	1	blank2r.bmp	0	1	+	0	3	B3r.bmp	492	1	blank2r.bmp	786	1	BMVZ	786	1	blank2r.bmp	866	6	schroff	866	1	!	1239	1	!	-1	0	0	0	0	0	0	0	0	0	0	0	0	0	0	0	0	0	0	0	0	0	0	0	0	0	0	0
010819	13:51:25	13:59:25	479304	5.0.10.0	4_exp_AMP_EVA_AWA_CON	48	Rpleas_acq	Oppo	Rpleas	Bmasked	CS_B	2pleas	distractor2	EVAbeforeCON	acq_US_pleas_masked	acq45_masked	4	13	400	1	300	300	0	0	376	50	0	1	0	0	0	1	blank2r.bmp	0	1	+	0	8	C4r.bmp	492	1	blank2r.bmp	786	1	GKQX	786	1	blank2r.bmp	866	4	tolerant	866	1	!	1239	1	!	1279	0	0	0	0	0	0	0	0	0	0	0	0	0	0	0	0	0	0	0	0	0	0	0	0	0	0	0
010819	13:51:25	13:59:27	481557	5.0.10.0	4_exp_AMP_EVA_AWA_CON	48	Rpleas_acq	Oppo	Rpleas	Bmasked	CS_B	2pleas	distractor2	EVAbeforeCON	acq_US_unple_masked	acq45_masked	4	14	400	0	300	300	0	0	482	46	0	1	0	0	0	1	blank2r.bmp	0	1	+	0	5	C1r.bmp	492	1	blank2r.bmp	786	1	BMVZ	786	1	blank2r.bmp	866	5	hindern	866	1	!	1239	1	!	-1	0	0	0	0	0	0	0	0	0	0	0	0	0	0	0	0	0	0	0	0	0	0	0	0	0	0	0
010819	13:51:25	13:59:29	483742	5.0.10.0	4_exp_AMP_EVA_AWA_CON	48	Rpleas_acq	Oppo	Rpleas	Bmasked	CS_B	2pleas	distractor2	EVAbeforeCON	acq_US_pleas_masked	acq45_masked	4	15	400	1	300	300	0	0	366	50	0	1	0	0	0	1	blank2r.bmp	0	1	+	0	2	B2r.bmp	492	1	blank2r.bmp	786	1	GKQX	786	1	blank2r.bmp	866	3	schön	866	1	!	1239	1	!	1266	0	0	0	0	0	0	0	0	0	0	0	0	0	0	0	0	0	0	0	0	0	0	0	0	0	0	0
010819	13:51:25	13:59:31	486022	5.0.10.0	4_exp_AMP_EVA_AWA_CON	48	Rpleas_acq	Oppo	Rpleas	Bmasked	CS_B	2pleas	distractor2	EVAbeforeCON	acq_US_pleas_masked	acq45_masked	4	16	400	0	300	300	0	0	517	50	0	1	0	0	0	1	blank2r.bmp	0	1	+	0	4	B4r.bmp	492	1	blank2r.bmp	786	1	GKQX	786	1	blank2r.bmp	866	2	spielen	866	1	!	1239	1	!	-1	0	0	0	0	0	0	0	0	0	0	0	0	0	0	0	0	0	0	0	0	0	0	0	0	0	0	0
010819	13:51:25	13:59:33	488207	5.0.10.0	4_exp_AMP_EVA_AWA_CON	48	Rpleas_acq	Oppo	Rpleas	Bmasked	CS_B	2pleas	distractor2	EVAbeforeCON	acq_US_unple_masked	acq45_masked	4	17	400	1	300	300	0	0	376	46	0	1	0	0	0	1	blank2r.bmp	0	1	+	0	7	C3r.bmp	492	1	blank2r.bmp	786	1	BMVZ	786	1	blank2r.bmp	866	1	faul	866	1	!	1239	1	!	1279	0	0	0	0	0	0	0	0	0	0	0	0	0	0	0	0	0	0	0	0	0	0	0	0	0	0	0
010819	13:51:25	13:59:36	490446	5.0.10.0	4_exp_AMP_EVA_AWA_CON	48	Rpleas_acq	Oppo	Rpleas	Bmasked	CS_B	2pleas	distractor2	EVAbeforeCON	acq_US_unple_masked	acq45_masked	4	18	400	1	300	300	0	0	447	46	0	1	0	0	0	1	blank2r.bmp	0	1	+	0	6	C2r.bmp	492	1	blank2r.bmp	786	1	BMVZ	786	1	blank2r.bmp	866	6	schroff	866	1	!	1239	1	!	1346	0	0	0	0	0	0	0	0	0	0	0	0	0	0	0	0	0	0	0	0	0	0	0	0	0	0	0
010819	13:51:25	13:59:38	492752	5.0.10.0	4_exp_AMP_EVA_AWA_CON	48	Rpleas_acq	Oppo	Rpleas	Bmasked	CS_B	2pleas	distractor2	EVAbeforeCON	acq_US_pleas_masked	acq45_masked	4	19	400	0	300	300	0	0	519	50	0	1	0	0	0	1	blank2r.bmp	0	1	+	0	1	B1r.bmp	492	1	blank2r.bmp	786	1	GKQX	786	1	blank2r.bmp	866	6	schlau	866	1	!	1239	1	!	-1	0	0	0	0	0	0	0	0	0	0	0	0	0	0	0	0	0	0	0	0	0	0	0	0	0	0	0
010819	13:51:25	13:59:40	494911	5.0.10.0	4_exp_AMP_EVA_AWA_CON	48	Rpleas_acq	Oppo	Rpleas	Bmasked	CS_B	2pleas	distractor2	EVAbeforeCON	acq_US_pleas_masked	acq45_masked	4	20	400	1	300	300	0	0	346	46	0	0	0	0	0	1	blank2r.bmp	0	1	+	0	3	B3r.bmp	492	1	blank2r.bmp	786	1	GKQX	786	1	blank2r.bmp	866	5	helfen	866	1	!	1239	1	!	1252	0	0	0	0	0	0	0	0	0	0	0	0	0	0	0	0	0	0	0	0	0	0	0	0	0	0	0
010819	13:51:25	13:59:42	497163	5.0.10.0	4_exp_AMP_EVA_AWA_CON	48	Rpleas_acq	Oppo	Rpleas	Bmasked	CS_B	2pleas	distractor2	EVAbeforeCON	acq_US_unple_masked	acq45_masked	4	21	400	1	300	300	0	0	452	46	0	1	0	0	0	1	blank2r.bmp	0	1	+	0	4	B4r.bmp	492	1	blank2r.bmp	786	1	BMVZ	786	1	blank2r.bmp	866	3	schlecht	866	1	!	1239	1	!	1359	0	0	0	0	0	0	0	0	0	0	0	0	0	0	0	0	0	0	0	0	0	0	0	0	0	0	0
010819	13:51:25	13:59:45	499416	5.0.10.0	4_exp_AMP_EVA_AWA_CON	48	Rpleas_acq	Oppo	Rpleas	Bmasked	CS_B	2pleas	distractor2	EVAbeforeCON	acq_US_unple_masked	acq45_masked	4	22	400	0	300	300	0	0	479	46	0	1	0	0	0	1	blank2r.bmp	0	1	+	0	1	B1r.bmp	492	1	blank2r.bmp	786	1	BMVZ	786	1	blank2r.bmp	866	4	tyrannisch	866	1	!	1239	1	!	-1	0	0	0	0	0	0	0	0	0	0	0	0	0	0	0	0	0	0	0	0	0	0	0	0	0	0	0
010819	13:51:25	13:59:47	501575	5.0.10.0	4_exp_AMP_EVA_AWA_CON	48	Rpleas_acq	Oppo	Rpleas	Bmasked	CS_B	2pleas	distractor2	EVAbeforeCON	acq_US_pleas_masked	acq45_masked	4	23	400	1	300	300	0	0	346	46	0	0	0	0	0	1	blank2r.bmp	0	1	+	0	5	C1r.bmp	492	1	blank2r.bmp	786	1	GKQX	786	1	blank2r.bmp	866	1	fair	866	1	!	1239	1	!	1252	0	0	0	0	0	0	0	0	0	0	0	0	0	0	0	0	0	0	0	0	0	0	0	0	0	0	0
010819	13:51:25	13:59:49	503801	5.0.10.0	4_exp_AMP_EVA_AWA_CON	48	Rpleas_acq	Oppo	Rpleas	Bmasked	CS_B	2pleas	distractor2	EVAbeforeCON	acq_US_pleas_masked	acq45_masked	4	24	400	1	300	300	0	0	431	50	0	1	0	0	0	1	blank2r.bmp	0	1	+	0	3	B3r.bmp	492	1	blank2r.bmp	786	1	GKQX	786	1	blank2r.bmp	866	2	spielen	866	1	!	1239	1	!	1332	0	0	0	0	0	0	0	0	0	0	0	0	0	0	0	0	0	0	0	0	0	0	0	0	0	0	0
010819	13:51:25	13:59:51	505986	5.0.10.0	4_exp_AMP_EVA_AWA_CON	48	Rpleas_acq	Oppo	Rpleas	Bmasked	CS_B	2pleas	distractor2	EVAbeforeCON	acq_US_pleas_masked	acq45_masked	4	25	400	1	300	300	0	0	392	50	0	1	0	0	0	1	blank2r.bmp	0	1	+	0	6	C2r.bmp	492	1	blank2r.bmp	786	1	GKQX	786	1	blank2r.bmp	866	6	schlau	866	1	!	1239	1	!	1292	0	0	0	0	0	0	0	0	0	0	0	0	0	0	0	0	0	0	0	0	0	0	0	0	0	0	0
010819	13:51:25	13:59:56	511238	5.0.10.0	4_exp_AMP_EVA_AWA_CON	48	Rpleas_acq	Oppo	Rpleas	Bmasked	CS_B	2pleas	distractor2	EVAbeforeCON	acq_US_unple_masked	acq45_masked	4	26	400	0	300	300	0	0	3489	50	0	0	0	0	0	1	blank2r.bmp	0	1	+	0	8	C4r.bmp	492	1	blank2r.bmp	786	1	BMVZ	786	1	blank2r.bmp	866	2	strafen	866	1	!	1239	1	!	-1	0	0	0	0	0	0	0	0	0	0	0	0	0	0	0	0	0	0	0	0	0	0	0	0	0	0	0
010819	13:51:25	13:59:59	513397	5.0.10.0	4_exp_AMP_EVA_AWA_CON	48	Rpleas_acq	Oppo	Rpleas	Bmasked	CS_B	2pleas	distractor2	EVAbeforeCON	acq_US_pleas_masked	acq45_masked	4	27	400	1	300	300	0	0	346	50	0	1	0	0	0	1	blank2r.bmp	0	1	+	0	2	B2r.bmp	492	1	blank2r.bmp	786	1	GKQX	786	1	blank2r.bmp	866	4	tolerant	866	1	!	1239	1	!	1252	0	0	0	0	0	0	0	0	0	0	0	0	0	0	0	0	0	0	0	0	0	0	0	0	0	0	0
010819	13:51:25	14:00:01	515556	5.0.10.0	4_exp_AMP_EVA_AWA_CON	48	Rpleas_acq	Oppo	Rpleas	Bmasked	CS_B	2pleas	distractor2	EVAbeforeCON	acq_US_unple_masked	acq45_masked	4	28	400	1	300	300	0	0	361	50	0	0	0	0	0	1	blank2r.bmp	0	1	+	0	7	C3r.bmp	492	1	blank2r.bmp	786	1	BMVZ	786	1	blank2r.bmp	866	5	hindern	866	1	!	1239	1	!	1266	0	0	0	0	0	0	0	0	0	0	0	0	0	0	0	0	0	0	0	0	0	0	0	0	0	0	0
010819	13:51:25	14:00:03	517808	5.0.10.0	4_exp_AMP_EVA_AWA_CON	48	Rpleas_acq	Oppo	Rpleas	Bmasked	CS_B	2pleas	distractor2	EVAbeforeCON	acq_US_unple_masked	acq45_masked	4	29	400	0	300	300	0	0	479	46	0	1	0	0	0	1	blank2r.bmp	0	1	+	0	6	C2r.bmp	492	1	blank2r.bmp	786	1	BMVZ	786	1	blank2r.bmp	866	6	schroff	866	1	!	1239	1	!	-1	0	0	0	0	0	0	0	0	0	0	0	0	0	0	0	0	0	0	0	0	0	0	0	0	0	0	0
010819	13:51:25	14:00:05	520061	5.0.10.0	4_exp_AMP_EVA_AWA_CON	48	Rpleas_acq	Oppo	Rpleas	Bmasked	CS_B	2pleas	distractor2	EVAbeforeCON	acq_US_unple_masked	acq45_masked	4	30	400	1	300	300	0	0	451	46	0	1	0	0	0	1	blank2r.bmp	0	1	+	0	5	C1r.bmp	492	1	blank2r.bmp	786	1	BMVZ	786	1	blank2r.bmp	866	3	schlecht	866	1	!	1239	1	!	1346	0	0	0	0	0	0	0	0	0	0	0	0	0	0	0	0	0	0	0	0	0	0	0	0	0	0	0
010819	13:51:25	14:00:07	522233	5.0.10.0	4_exp_AMP_EVA_AWA_CON	48	Rpleas_acq	Oppo	Rpleas	Bmasked	CS_B	2pleas	distractor2	EVAbeforeCON	acq_US_pleas_masked	acq45_masked	4	31	400	1	300	300	0	0	375	50	0	1	0	0	0	1	blank2r.bmp	0	1	+	0	4	B4r.bmp	492	1	blank2r.bmp	786	1	GKQX	786	1	blank2r.bmp	866	3	schön	866	1	!	1239	1	!	1279	0	0	0	0	0	0	0	0	0	0	0	0	0	0	0	0	0	0	0	0	0	0	0	0	0	0	0
010819	13:51:25	14:00:10	524419	5.0.10.0	4_exp_AMP_EVA_AWA_CON	48	Rpleas_acq	Oppo	Rpleas	Bmasked	CS_B	2pleas	distractor2	EVAbeforeCON	acq_US_pleas_masked	acq45_masked	4	32	400	1	300	300	0	0	390	50	0	1	0	0	0	1	blank2r.bmp	0	1	+	0	3	B3r.bmp	492	1	blank2r.bmp	786	1	GKQX	786	1	blank2r.bmp	866	5	helfen	866	1	!	1239	1	!	1292	0	0	0	0	0	0	0	0	0	0	0	0	0	0	0	0	0	0	0	0	0	0	0	0	0	0	0
010819	13:51:25	14:00:12	526604	5.0.10.0	4_exp_AMP_EVA_AWA_CON	48	Rpleas_acq	Oppo	Rpleas	Bmasked	CS_B	2pleas	distractor2	EVAbeforeCON	acq_US_unple_masked	acq45_masked	4	33	400	1	300	300	0	0	388	46	0	1	0	0	0	1	blank2r.bmp	0	1	+	0	8	C4r.bmp	492	1	blank2r.bmp	786	1	BMVZ	786	1	blank2r.bmp	866	1	faul	866	1	!	1239	1	!	1292	0	0	0	0	0	0	0	0	0	0	0	0	0	0	0	0	0	0	0	0	0	0	0	0	0	0	0
010819	13:51:25	14:00:14	528790	5.0.10.0	4_exp_AMP_EVA_AWA_CON	48	Rpleas_acq	Oppo	Rpleas	Bmasked	CS_B	2pleas	distractor2	EVAbeforeCON	acq_US_pleas_masked	acq45_masked	4	34	400	1	300	300	0	0	398	50	0	1	0	0	0	1	blank2r.bmp	0	1	+	0	7	C3r.bmp	492	1	blank2r.bmp	786	1	GKQX	786	1	blank2r.bmp	866	1	fair	866	1	!	1239	1	!	1292	0	0	0	0	0	0	0	0	0	0	0	0	0	0	0	0	0	0	0	0	0	0	0	0	0	0	0
010819	13:51:25	14:00:16	531003	5.0.10.0	4_exp_AMP_EVA_AWA_CON	48	Rpleas_acq	Oppo	Rpleas	Bmasked	CS_B	2pleas	distractor2	EVAbeforeCON	acq_US_unple_masked	acq45_masked	4	35	400	1	300	300	0	0	400	46	0	1	0	0	0	1	blank2r.bmp	0	1	+	0	2	B2r.bmp	492	1	blank2r.bmp	786	1	BMVZ	786	1	blank2r.bmp	866	2	strafen	866	1	!	1239	1	!	1306	0	0	0	0	0	0	0	0	0	0	0	0	0	0	0	0	0	0	0	0	0	0	0	0	0	0	0
010819	13:51:25	14:00:18	533255	5.0.10.0	4_exp_AMP_EVA_AWA_CON	48	Rpleas_acq	Oppo	Rpleas	Bmasked	CS_B	2pleas	distractor2	EVAbeforeCON	acq_US_unple_masked	acq45_masked	4	36	400	1	300	300	0	0	463	46	0	1	0	0	0	1	blank2r.bmp	0	1	+	0	1	B1r.bmp	492	1	blank2r.bmp	786	1	BMVZ	786	1	blank2r.bmp	866	4	tyrannisch	866	1	!	1239	1	!	1359	0	0	0	0	0	0	0	0	0	0	0	0	0	0	0	0	0	0	0	0	0	0	0	0	0	0	0
010819	13:51:25	14:00:29	544237	5.0.10.0	4_exp_AMP_EVA_AWA_CON	48	Rpleas_acq	Oppo	Rpleas	Bmasked	CS_B	2pleas	distractor2	EVAbeforeCON	acq_US_unple_masked	acq45_masked	5	1	400	1	300	300	0	0	378	46	0	1	0	0	0	1	blank2r.bmp	0	1	+	0	3	B3r.bmp	492	1	blank2r.bmp	786	1	BMVZ	786	1	blank2r.bmp	866	1	faul	866	1	!	1239	1	!	1279	0	0	0	0	0	0	0	0	0	0	0	0	0	0	0	0	0	0	0	0	0	0	0	0	0	0	0
010819	13:51:25	14:00:32	546329	5.0.10.0	4_exp_AMP_EVA_AWA_CON	48	Rpleas_acq	Oppo	Rpleas	Bmasked	CS_B	2pleas	distractor2	EVAbeforeCON	acq_US_pleas_masked	acq45_masked	5	2	400	0	300	300	0	0	321	50	0	1	0	0	0	1	blank2r.bmp	0	1	+	0	1	B1r.bmp	492	1	blank2r.bmp	786	1	GKQX	786	1	blank2r.bmp	866	4	tolerant	866	1	!	-1	1	!	-1	0	0	0	0	0	0	0	0	0	0	0	0	0	0	0	0	0	0	0	0	0	0	0	0	0	0	0
010819	13:51:25	14:00:34	548515	5.0.10.0	4_exp_AMP_EVA_AWA_CON	48	Rpleas_acq	Oppo	Rpleas	Bmasked	CS_B	2pleas	distractor2	EVAbeforeCON	acq_US_pleas_masked	acq45_masked	5	3	400	1	300	300	0	0	374	50	0	1	0	0	0	1	blank2r.bmp	0	1	+	0	4	B4r.bmp	492	1	blank2r.bmp	786	1	GKQX	786	1	blank2r.bmp	866	2	spielen	866	1	!	1239	1	!	1279	0	0	0	0	0	0	0	0	0	0	0	0	0	0	0	0	0	0	0	0	0	0	0	0	0	0	0
010819	13:51:25	14:00:36	550568	5.0.10.0	4_exp_AMP_EVA_AWA_CON	48	Rpleas_acq	Oppo	Rpleas	Bmasked	CS_B	2pleas	distractor2	EVAbeforeCON	acq_US_pleas_masked	acq45_masked	5	4	400	0	300	300	0	0	280	46	0	0	0	0	0	1	blank2r.bmp	0	1	+	0	7	C3r.bmp	492	1	blank2r.bmp	786	1	GKQX	786	1	blank2r.bmp	866	5	helfen	866	1	!	-1	1	!	-1	0	0	0	0	0	0	0	0	0	0	0	0	0	0	0	0	0	0	0	0	0	0	0	0	0	0	0
010819	13:51:25	14:00:38	552633	5.0.10.0	4_exp_AMP_EVA_AWA_CON	48	Rpleas_acq	Oppo	Rpleas	Bmasked	CS_B	2pleas	distractor2	EVAbeforeCON	acq_US_pleas_masked	acq45_masked	5	5	400	0	300	300	0	0	286	50	0	1	0	0	0	1	blank2r.bmp	0	1	+	0	5	C1r.bmp	492	1	blank2r.bmp	786	1	GKQX	786	1	blank2r.bmp	866	6	schlau	866	1	!	-1	1	!	-1	0	0	0	0	0	0	0	0	0	0	0	0	0	0	0	0	0	0	0	0	0	0	0	0	0	0	0
010819	13:51:25	14:00:40	554873	5.0.10.0	4_exp_AMP_EVA_AWA_CON	48	Rpleas_acq	Oppo	Rpleas	Bmasked	CS_B	2pleas	distractor2	EVAbeforeCON	acq_US_unple_masked	acq45_masked	5	6	400	1	300	300	0	0	435	46	0	1	0	0	0	1	blank2r.bmp	0	1	+	0	6	C2r.bmp	492	1	blank2r.bmp	786	1	BMVZ	786	1	blank2r.bmp	866	6	schroff	866	1	!	1239	1	!	1332	0	0	0	0	0	0	0	0	0	0	0	0	0	0	0	0	0	0	0	0	0	0	0	0	0	0	0
010819	13:51:25	14:00:42	557165	5.0.10.0	4_exp_AMP_EVA_AWA_CON	48	Rpleas_acq	Oppo	Rpleas	Bmasked	CS_B	2pleas	distractor2	EVAbeforeCON	acq_US_pleas_masked	acq45_masked	5	7	400	0	300	300	0	0	510	50	0	1	0	0	0	1	blank2r.bmp	0	1	+	0	8	C4r.bmp	492	1	blank2r.bmp	786	1	GKQX	786	1	blank2r.bmp	866	3	schön	866	1	!	1239	1	!	-1	0	0	0	0	0	0	0	0	0	0	0	0	0	0	0	0	0	0	0	0	0	0	0	0	0	0	0
010819	13:51:25	14:00:45	559364	5.0.10.0	4_exp_AMP_EVA_AWA_CON	48	Rpleas_acq	Oppo	Rpleas	Bmasked	CS_B	2pleas	distractor2	EVAbeforeCON	acq_US_unple_masked	acq45_masked	5	8	400	1	300	300	0	0	387	46	0	1	0	0	0	1	blank2r.bmp	0	1	+	0	2	B2r.bmp	492	1	blank2r.bmp	786	1	BMVZ	786	1	blank2r.bmp	866	4	tyrannisch	866	1	!	1239	1	!	1292	0	0	0	0	0	0	0	0	0	0	0	0	0	0	0	0	0	0	0	0	0	0	0	0	0	0	0
010819	13:51:25	14:00:47	561630	5.0.10.0	4_exp_AMP_EVA_AWA_CON	48	Rpleas_acq	Oppo	Rpleas	Bmasked	CS_B	2pleas	distractor2	EVAbeforeCON	acq_US_unple_masked	acq45_masked	5	9	400	0	300	300	0	0	501	46	0	1	0	0	0	1	blank2r.bmp	0	1	+	0	3	B3r.bmp	492	1	blank2r.bmp	786	1	BMVZ	786	1	blank2r.bmp	866	3	schlecht	866	1	!	1239	1	!	-1	0	0	0	0	0	0	0	0	0	0	0	0	0	0	0	0	0	0	0	0	0	0	0	0	0	0	0
010819	13:51:25	14:00:49	563815	5.0.10.0	4_exp_AMP_EVA_AWA_CON	48	Rpleas_acq	Oppo	Rpleas	Bmasked	CS_B	2pleas	distractor2	EVAbeforeCON	acq_US_unple_masked	acq45_masked	5	10	400	1	300	300	0	0	364	46	0	1	0	0	0	1	blank2r.bmp	0	1	+	0	8	C4r.bmp	492	1	blank2r.bmp	786	1	BMVZ	786	1	blank2r.bmp	866	2	strafen	866	1	!	1239	1	!	1266	0	0	0	0	0	0	0	0	0	0	0	0	0	0	0	0	0	0	0	0	0	0	0	0	0	0	0
010819	13:51:25	14:00:51	566015	5.0.10.0	4_exp_AMP_EVA_AWA_CON	48	Rpleas_acq	Oppo	Rpleas	Bmasked	CS_B	2pleas	distractor2	EVAbeforeCON	acq_US_pleas_masked	acq45_masked	5	11	400	1	300	300	0	0	408	50	0	1	0	0	0	1	blank2r.bmp	0	1	+	0	6	C2r.bmp	492	1	blank2r.bmp	786	1	GKQX	786	1	blank2r.bmp	866	1	fair	866	1	!	1239	1	!	1306	0	0	0	0	0	0	0	0	0	0	0	0	0	0	0	0	0	0	0	0	0	0	0	0	0	0	0
010819	13:51:25	14:00:54	568400	5.0.10.0	4_exp_AMP_EVA_AWA_CON	48	Rpleas_acq	Oppo	Rpleas	Bmasked	CS_B	2pleas	distractor2	EVAbeforeCON	acq_US_pleas_masked	acq45_masked	5	12	400	0	300	300	0	0	619	50	0	1	0	0	0	1	blank2r.bmp	0	1	+	0	7	C3r.bmp	492	1	blank2r.bmp	786	1	GKQX	786	1	blank2r.bmp	866	6	schlau	866	1	!	1239	1	!	-1	0	0	0	0	0	0	0	0	0	0	0	0	0	0	0	0	0	0	0	0	0	0	0	0	0	0	0
010819	13:51:25	14:00:56	570573	5.0.10.0	4_exp_AMP_EVA_AWA_CON	48	Rpleas_acq	Oppo	Rpleas	Bmasked	CS_B	2pleas	distractor2	EVAbeforeCON	acq_US_unple_masked	acq45_masked	5	13	400	1	300	300	0	0	352	46	0	1	0	0	0	1	blank2r.bmp	0	1	+	0	4	B4r.bmp	492	1	blank2r.bmp	786	1	BMVZ	786	1	blank2r.bmp	866	5	hindern	866	1	!	1239	1	!	1252	0	0	0	0	0	0	0	0	0	0	0	0	0	0	0	0	0	0	0	0	0	0	0	0	0	0	0
010819	13:51:25	14:00:58	572772	5.0.10.0	4_exp_AMP_EVA_AWA_CON	48	Rpleas_acq	Oppo	Rpleas	Bmasked	CS_B	2pleas	distractor2	EVAbeforeCON	acq_US_pleas_masked	acq45_masked	5	14	400	1	300	300	0	0	408	50	0	1	0	0	0	1	blank2r.bmp	0	1	+	0	5	C1r.bmp	492	1	blank2r.bmp	786	1	GKQX	786	1	blank2r.bmp	866	5	helfen	866	1	!	1239	1	!	1306	0	0	0	0	0	0	0	0	0	0	0	0	0	0	0	0	0	0	0	0	0	0	0	0	0	0	0
010819	13:51:25	14:01:00	574971	5.0.10.0	4_exp_AMP_EVA_AWA_CON	48	Rpleas_acq	Oppo	Rpleas	Bmasked	CS_B	2pleas	distractor2	EVAbeforeCON	acq_US_pleas_masked	acq45_masked	5	15	400	1	300	300	0	0	410	50	0	1	0	0	0	1	blank2r.bmp	0	1	+	0	2	B2r.bmp	492	1	blank2r.bmp	786	1	GKQX	786	1	blank2r.bmp	866	2	spielen	866	1	!	1239	1	!	1306	0	0	0	0	0	0	0	0	0	0	0	0	0	0	0	0	0	0	0	0	0	0	0	0	0	0	0
010819	13:51:25	14:01:02	577223	5.0.10.0	4_exp_AMP_EVA_AWA_CON	48	Rpleas_acq	Oppo	Rpleas	Bmasked	CS_B	2pleas	distractor2	EVAbeforeCON	acq_US_unple_masked	acq45_masked	5	16	400	1	300	300	0	0	455	46	0	1	0	0	0	1	blank2r.bmp	0	1	+	0	1	B1r.bmp	492	1	blank2r.bmp	786	1	BMVZ	786	1	blank2r.bmp	866	1	faul	866	1	!	1239	1	!	1359	0	0	0	0	0	0	0	0	0	0	0	0	0	0	0	0	0	0	0	0	0	0	0	0	0	0	0
010819	13:51:25	14:01:05	579449	5.0.10.0	4_exp_AMP_EVA_AWA_CON	48	Rpleas_acq	Oppo	Rpleas	Bmasked	CS_B	2pleas	distractor2	EVAbeforeCON	acq_US_unple_masked	acq45_masked	5	17	400	1	300	300	0	0	436	46	0	1	0	0	0	1	blank2r.bmp	0	1	+	0	3	B3r.bmp	492	1	blank2r.bmp	786	1	BMVZ	786	1	blank2r.bmp	866	4	tyrannisch	866	1	!	1239	1	!	1332	0	0	0	0	0	0	0	0	0	0	0	0	0	0	0	0	0	0	0	0	0	0	0	0	0	0	0
010819	13:51:25	14:01:07	581635	5.0.10.0	4_exp_AMP_EVA_AWA_CON	48	Rpleas_acq	Oppo	Rpleas	Bmasked	CS_B	2pleas	distractor2	EVAbeforeCON	acq_US_unple_masked	acq45_masked	5	18	400	1	300	300	0	0	393	46	0	1	0	0	0	1	blank2r.bmp	0	1	+	0	4	B4r.bmp	492	1	blank2r.bmp	786	1	BMVZ	786	1	blank2r.bmp	866	5	hindern	866	1	!	1239	1	!	1292	0	0	0	0	0	0	0	0	0	0	0	0	0	0	0	0	0	0	0	0	0	0	0	0	0	0	0
010819	13:51:25	14:01:09	583780	5.0.10.0	4_exp_AMP_EVA_AWA_CON	48	Rpleas_acq	Oppo	Rpleas	Bmasked	CS_B	2pleas	distractor2	EVAbeforeCON	acq_US_unple_masked	acq45_masked	5	19	400	1	300	300	0	0	346	46	0	1	0	0	0	1	blank2r.bmp	0	1	+	0	5	C1r.bmp	492	1	blank2r.bmp	786	1	BMVZ	786	1	blank2r.bmp	866	3	schlecht	866	1	!	1239	1	!	1252	0	0	0	0	0	0	0	0	0	0	0	0	0	0	0	0	0	0	0	0	0	0	0	0	0	0	0
010819	13:51:25	14:01:11	586033	5.0.10.0	4_exp_AMP_EVA_AWA_CON	48	Rpleas_acq	Oppo	Rpleas	Bmasked	CS_B	2pleas	distractor2	EVAbeforeCON	acq_US_unple_masked	acq45_masked	5	20	400	1	300	300	0	0	446	46	0	1	0	0	0	1	blank2r.bmp	0	1	+	0	2	B2r.bmp	492	1	blank2r.bmp	786	1	BMVZ	786	1	blank2r.bmp	866	2	strafen	866	1	!	1239	1	!	1346	0	0	0	0	0	0	0	0	0	0	0	0	0	0	0	0	0	0	0	0	0	0	0	0	0	0	0
010819	13:51:25	14:01:15	590151	5.0.10.0	4_exp_AMP_EVA_AWA_CON	48	Rpleas_acq	Oppo	Rpleas	Bmasked	CS_B	2pleas	distractor2	EVAbeforeCON	acq_US_unple_masked	acq45_masked	5	21	400	0	300	300	0	0	2357	46	0	1	0	0	0	1	blank2r.bmp	0	1	+	0	1	B1r.bmp	492	1	blank2r.bmp	786	1	BMVZ	786	1	blank2r.bmp	866	6	schroff	866	1	!	1239	1	!	-1	0	0	0	0	0	0	0	0	0	0	0	0	0	0	0	0	0	0	0	0	0	0	0	0	0	0	0
010819	13:51:25	14:01:18	592443	5.0.10.0	4_exp_AMP_EVA_AWA_CON	48	Rpleas_acq	Oppo	Rpleas	Bmasked	CS_B	2pleas	distractor2	EVAbeforeCON	acq_US_pleas_masked	acq45_masked	5	22	400	0	300	300	0	0	512	50	0	1	0	0	0	1	blank2r.bmp	0	1	+	0	6	C2r.bmp	492	1	blank2r.bmp	786	1	GKQX	786	1	blank2r.bmp	866	1	fair	866	1	!	1239	1	!	-1	0	0	0	0	0	0	0	0	0	0	0	0	0	0	0	0	0	0	0	0	0	0	0	0	0	0	0
010819	13:51:25	14:01:20	594602	5.0.10.0	4_exp_AMP_EVA_AWA_CON	48	Rpleas_acq	Oppo	Rpleas	Bmasked	CS_B	2pleas	distractor2	EVAbeforeCON	acq_US_unple_masked	acq45_masked	5	23	400	1	300	300	0	0	348	46	0	1	0	0	0	1	blank2r.bmp	0	1	+	0	8	C4r.bmp	492	1	blank2r.bmp	786	1	BMVZ	786	1	blank2r.bmp	866	1	faul	866	1	!	1239	1	!	1252	0	0	0	0	0	0	0	0	0	0	0	0	0	0	0	0	0	0	0	0	0	0	0	0	0	0	0
010819	13:51:25	14:01:22	596762	5.0.10.0	4_exp_AMP_EVA_AWA_CON	48	Rpleas_acq	Oppo	Rpleas	Bmasked	CS_B	2pleas	distractor2	EVAbeforeCON	acq_US_unple_masked	acq45_masked	5	24	400	1	300	300	0	0	370	46	0	1	0	0	0	1	blank2r.bmp	0	1	+	0	7	C3r.bmp	492	1	blank2r.bmp	786	1	BMVZ	786	1	blank2r.bmp	866	4	tyrannisch	866	1	!	1239	1	!	1266	0	0	0	0	0	0	0	0	0	0	0	0	0	0	0	0	0	0	0	0	0	0	0	0	0	0	0
010819	13:51:25	14:01:24	598987	5.0.10.0	4_exp_AMP_EVA_AWA_CON	48	Rpleas_acq	Oppo	Rpleas	Bmasked	CS_B	2pleas	distractor2	EVAbeforeCON	acq_US_pleas_masked	acq45_masked	5	25	400	1	300	300	0	0	429	50	0	1	0	0	0	1	blank2r.bmp	0	1	+	0	2	B2r.bmp	492	1	blank2r.bmp	786	1	GKQX	786	1	blank2r.bmp	866	4	tolerant	866	1	!	1239	1	!	1332	0	0	0	0	0	0	0	0	0	0	0	0	0	0	0	0	0	0	0	0	0	0	0	0	0	0	0
010819	13:51:25	14:01:26	601160	5.0.10.0	4_exp_AMP_EVA_AWA_CON	48	Rpleas_acq	Oppo	Rpleas	Bmasked	CS_B	2pleas	distractor2	EVAbeforeCON	acq_US_pleas_masked	acq45_masked	5	26	400	1	300	300	0	0	376	50	0	1	0	0	0	1	blank2r.bmp	0	1	+	0	8	C4r.bmp	492	1	blank2r.bmp	786	1	GKQX	786	1	blank2r.bmp	866	3	schön	866	1	!	1239	1	!	1279	0	0	0	0	0	0	0	0	0	0	0	0	0	0	0	0	0	0	0	0	0	0	0	0	0	0	0
010819	13:51:25	14:01:29	603505	5.0.10.0	4_exp_AMP_EVA_AWA_CON	48	Rpleas_acq	Oppo	Rpleas	Bmasked	CS_B	2pleas	distractor2	EVAbeforeCON	acq_US_pleas_masked	acq45_masked	5	27	400	0	300	300	0	0	573	50	0	1	0	0	0	1	blank2r.bmp	0	1	+	0	4	B4r.bmp	492	1	blank2r.bmp	786	1	GKQX	786	1	blank2r.bmp	866	2	spielen	866	1	!	1239	1	!	-1	0	0	0	0	0	0	0	0	0	0	0	0	0	0	0	0	0	0	0	0	0	0	0	0	0	0	0
010819	13:51:25	14:01:31	605691	5.0.10.0	4_exp_AMP_EVA_AWA_CON	48	Rpleas_acq	Oppo	Rpleas	Bmasked	CS_B	2pleas	distractor2	EVAbeforeCON	acq_US_unple_masked	acq45_masked	5	28	400	1	300	300	0	0	383	46	0	1	0	0	0	1	blank2r.bmp	0	1	+	0	3	B3r.bmp	492	1	blank2r.bmp	786	1	BMVZ	786	1	blank2r.bmp	866	2	strafen	866	1	!	1239	1	!	1279	0	0	0	0	0	0	0	0	0	0	0	0	0	0	0	0	0	0	0	0	0	0	0	0	0	0	0
010819	13:51:25	14:01:33	607890	5.0.10.0	4_exp_AMP_EVA_AWA_CON	48	Rpleas_acq	Oppo	Rpleas	Bmasked	CS_B	2pleas	distractor2	EVAbeforeCON	acq_US_pleas_masked	acq45_masked	5	29	400	1	300	300	0	0	409	46	0	0	0	0	0	1	blank2r.bmp	0	1	+	0	5	C1r.bmp	492	1	blank2r.bmp	786	1	GKQX	786	1	blank2r.bmp	866	5	helfen	866	1	!	1239	1	!	1306	0	0	0	0	0	0	0	0	0	0	0	0	0	0	0	0	0	0	0	0	0	0	0	0	0	0	0
010819	13:51:25	14:01:35	610209	5.0.10.0	4_exp_AMP_EVA_AWA_CON	48	Rpleas_acq	Oppo	Rpleas	Bmasked	CS_B	2pleas	distractor2	EVAbeforeCON	acq_US_unple_masked	acq45_masked	5	30	400	0	300	300	0	0	557	46	0	1	0	0	0	1	blank2r.bmp	0	1	+	0	1	B1r.bmp	492	1	blank2r.bmp	786	1	BMVZ	786	1	blank2r.bmp	866	6	schroff	866	1	!	1239	1	!	-1	0	0	0	0	0	0	0	0	0	0	0	0	0	0	0	0	0	0	0	0	0	0	0	0	0	0	0
010819	13:51:25	14:01:38	612475	5.0.10.0	4_exp_AMP_EVA_AWA_CON	48	Rpleas_acq	Oppo	Rpleas	Bmasked	CS_B	2pleas	distractor2	EVAbeforeCON	acq_US_pleas_masked	acq45_masked	5	31	400	1	300	300	0	0	439	50	0	1	0	0	0	1	blank2r.bmp	0	1	+	0	6	C2r.bmp	492	1	blank2r.bmp	786	1	GKQX	786	1	blank2r.bmp	866	4	tolerant	866	1	!	1239	1	!	1346	0	0	0	0	0	0	0	0	0	0	0	0	0	0	0	0	0	0	0	0	0	0	0	0	0	0	0
010819	13:51:25	14:01:40	614661	5.0.10.0	4_exp_AMP_EVA_AWA_CON	48	Rpleas_acq	Oppo	Rpleas	Bmasked	CS_B	2pleas	distractor2	EVAbeforeCON	acq_US_unple_masked	acq45_masked	5	32	400	1	300	300	0	0	396	46	0	1	0	0	0	1	blank2r.bmp	0	1	+	0	7	C3r.bmp	492	1	blank2r.bmp	786	1	BMVZ	786	1	blank2r.bmp	866	3	schlecht	866	1	!	1239	1	!	1292	0	0	0	0	0	0	0	0	0	0	0	0	0	0	0	0	0	0	0	0	0	0	0	0	0	0	0
010819	13:51:25	14:01:42	616886	5.0.10.0	4_exp_AMP_EVA_AWA_CON	48	Rpleas_acq	Oppo	Rpleas	Bmasked	CS_B	2pleas	distractor2	EVAbeforeCON	acq_US_pleas_masked	acq45_masked	5	33	400	1	300	300	0	0	433	50	0	1	0	0	0	1	blank2r.bmp	0	1	+	0	4	B4r.bmp	492	1	blank2r.bmp	786	1	GKQX	786	1	blank2r.bmp	866	6	schlau	866	1	!	1239	1	!	1332	0	0	0	0	0	0	0	0	0	0	0	0	0	0	0	0	0	0	0	0	0	0	0	0	0	0	0
010819	13:51:25	14:01:44	619059	5.0.10.0	4_exp_AMP_EVA_AWA_CON	48	Rpleas_acq	Oppo	Rpleas	Bmasked	CS_B	2pleas	distractor2	EVAbeforeCON	acq_US_pleas_masked	acq45_masked	5	34	400	1	300	300	0	0	384	50	0	1	0	0	0	1	blank2r.bmp	0	1	+	0	5	C1r.bmp	492	1	blank2r.bmp	786	1	GKQX	786	1	blank2r.bmp	866	3	schön	866	1	!	1239	1	!	1279	0	0	0	0	0	0	0	0	0	0	0	0	0	0	0	0	0	0	0	0	0	0	0	0	0	0	0
010819	13:51:25	14:01:47	621311	5.0.10.0	4_exp_AMP_EVA_AWA_CON	48	Rpleas_acq	Oppo	Rpleas	Bmasked	CS_B	2pleas	distractor2	EVAbeforeCON	acq_US_pleas_masked	acq45_masked	5	35	400	0	300	300	0	0	479	50	0	1	0	0	0	1	blank2r.bmp	0	1	+	0	1	B1r.bmp	492	1	blank2r.bmp	786	1	GKQX	786	1	blank2r.bmp	866	1	fair	866	1	!	1239	1	!	-1	0	0	0	0	0	0	0	0	0	0	0	0	0	0	0	0	0	0	0	0	0	0	0	0	0	0	0
010819	13:51:25	14:01:49	623510	5.0.10.0	4_exp_AMP_EVA_AWA_CON	48	Rpleas_acq	Oppo	Rpleas	Bmasked	CS_B	2pleas	distractor2	EVAbeforeCON	acq_US_unple_masked	acq45_masked	5	36	400	1	300	300	0	0	391	46	0	1	0	0	0	1	blank2r.bmp	0	1	+	0	8	C4r.bmp	492	1	blank2r.bmp	786	1	BMVZ	786	1	blank2r.bmp	866	5	hindern	866	1	!	1239	1	!	1292	0	0	0	0	0	0	0	0	0	0	0	0	0	0	0	0	0	0	0	0	0	0	0	0	0	0	0
010819	13:51:25	14:02:45	679993	5.0.10.0	4_exp_AMP_EVA_AWA_CON	48	Rpleas_acq	Oppo	Lpleas	Bmasked	CS_B	2pleas	distractor2	EVAbeforeCON	AMP_CSunple	AMP1_masked	6	1	0	0	300	300	0	0	1072	46	0	0	0	0	0	1	blank2r.bmp	0	1	BMVZ	0	1	blank2r.bmp	79	69	pic69.bmp	199	1	whitenoise_No3.bmp	306	0	0	0	0	0	0	0	0	0	0	0	0	0	0	0	0	0	0	0	0	0	0	0	0	0	0	0	0	0	0	0	0	0	0	0	0	0	0	0
010819	13:51:25	14:02:47	681912	5.0.10.0	4_exp_AMP_EVA_AWA_CON	48	Rpleas_acq	Oppo	Lpleas	Bmasked	CS_B	2pleas	distractor2	EVAbeforeCON	AMP_CSunple	AMP1_masked	6	2	0	0	300	300	0	0	991	50	0	1	0	0	0	1	blank2r.bmp	0	1	BMVZ	0	1	blank2r.bmp	79	125	pic125.bmp	199	1	whitenoise_No3.bmp	306	0	0	0	0	0	0	0	0	0	0	0	0	0	0	0	0	0	0	0	0	0	0	0	0	0	0	0	0	0	0	0	0	0	0	0	0	0	0	0
010819	13:51:25	14:02:52	686630	5.0.10.0	4_exp_AMP_EVA_AWA_CON	48	Rpleas_acq	Oppo	Lpleas	Bmasked	CS_B	2pleas	distractor2	EVAbeforeCON	AMP_CSunple	AMP1_masked	6	3	0	0	300	300	0	0	3790	50	0	1	0	0	0	1	blank2r.bmp	0	1	BMVZ	0	1	blank2r.bmp	79	49	pic49.bmp	199	1	whitenoise_No3.bmp	306	0	0	0	0	0	0	0	0	0	0	0	0	0	0	0	0	0	0	0	0	0	0	0	0	0	0	0	0	0	0	0	0	0	0	0	0	0	0	0
010819	13:51:25	14:02:54	688456	5.0.10.0	4_exp_AMP_EVA_AWA_CON	48	Rpleas_acq	Oppo	Lpleas	Bmasked	CS_B	2pleas	distractor2	EVAbeforeCON	AMP_CSunple	AMP1_masked	6	4	0	0	300	300	0	0	899	50	0	1	0	0	0	1	blank2r.bmp	0	1	BMVZ	0	1	blank2r.bmp	79	74	pic74.bmp	199	1	whitenoise_No3.bmp	306	0	0	0	0	0	0	0	0	0	0	0	0	0	0	0	0	0	0	0	0	0	0	0	0	0	0	0	0	0	0	0	0	0	0	0	0	0	0	0
010819	13:51:25	14:02:55	690056	5.0.10.0	4_exp_AMP_EVA_AWA_CON	48	Rpleas_acq	Oppo	Lpleas	Bmasked	CS_B	2pleas	distractor2	EVAbeforeCON	AMP_distractor	AMP1_masked	6	5	0	0	300	300	0	0	676	46	0	0	0	0	0	1	blank2r.bmp	0	1	JCRD	0	1	blank2r.bmp	79	26	pic26.bmp	199	1	whitenoise_No3.bmp	306	0	0	0	0	0	0	0	0	0	0	0	0	0	0	0	0	0	0	0	0	0	0	0	0	0	0	0	0	0	0	0	0	0	0	0	0	0	0	0
010819	13:51:25	14:02:57	691668	5.0.10.0	4_exp_AMP_EVA_AWA_CON	48	Rpleas_acq	Oppo	Lpleas	Bmasked	CS_B	2pleas	distractor2	EVAbeforeCON	AMP_CSpleas	AMP1_masked	6	6	0	0	300	300	0	0	690	50	0	0	0	0	0	1	blank2r.bmp	0	1	GKQX	0	1	blank2r.bmp	79	126	pic126.bmp	199	1	whitenoise_No3.bmp	306	0	0	0	0	0	0	0	0	0	0	0	0	0	0	0	0	0	0	0	0	0	0	0	0	0	0	0	0	0	0	0	0	0	0	0	0	0	0	0
010819	13:51:25	14:02:58	693161	5.0.10.0	4_exp_AMP_EVA_AWA_CON	48	Rpleas_acq	Oppo	Lpleas	Bmasked	CS_B	2pleas	distractor2	EVAbeforeCON	AMP_CSpleas	AMP1_masked	6	7	0	0	300	300	0	0	568	46	0	1	0	0	0	1	blank2r.bmp	0	1	GKQX	0	1	blank2r.bmp	79	50	pic50.bmp	199	1	whitenoise_No3.bmp	306	0	0	0	0	0	0	0	0	0	0	0	0	0	0	0	0	0	0	0	0	0	0	0	0	0	0	0	0	0	0	0	0	0	0	0	0	0	0	0
010819	13:51:25	14:03:00	694614	5.0.10.0	4_exp_AMP_EVA_AWA_CON	48	Rpleas_acq	Oppo	Lpleas	Bmasked	CS_B	2pleas	distractor2	EVAbeforeCON	AMP_CSpleas	AMP1_masked	6	8	0	0	300	300	0	0	529	50	0	0	0	0	0	1	blank2r.bmp	0	1	GKQX	0	1	blank2r.bmp	79	124	pic124.bmp	199	1	whitenoise_No3.bmp	306	0	0	0	0	0	0	0	0	0	0	0	0	0	0	0	0	0	0	0	0	0	0	0	0	0	0	0	0	0	0	0	0	0	0	0	0	0	0	0
010819	13:51:25	14:03:01	696226	5.0.10.0	4_exp_AMP_EVA_AWA_CON	48	Rpleas_acq	Oppo	Lpleas	Bmasked	CS_B	2pleas	distractor2	EVAbeforeCON	AMP_distractor	AMP1_masked	6	9	0	0	300	300	0	0	680	46	0	0	0	0	0	1	blank2r.bmp	0	1	JCRD	0	1	blank2r.bmp	79	141	pic141.bmp	199	1	whitenoise_No3.bmp	306	0	0	0	0	0	0	0	0	0	0	0	0	0	0	0	0	0	0	0	0	0	0	0	0	0	0	0	0	0	0	0	0	0	0	0	0	0	0	0
010819	13:51:25	14:03:03	697652	5.0.10.0	4_exp_AMP_EVA_AWA_CON	48	Rpleas_acq	Oppo	Lpleas	Bmasked	CS_B	2pleas	distractor2	EVAbeforeCON	AMP_CSpleas	AMP1_masked	6	10	0	0	300	300	0	0	507	50	0	0	0	0	0	1	blank2r.bmp	0	1	GKQX	0	1	blank2r.bmp	79	130	pic130.bmp	199	1	whitenoise_No3.bmp	306	0	0	0	0	0	0	0	0	0	0	0	0	0	0	0	0	0	0	0	0	0	0	0	0	0	0	0	0	0	0	0	0	0	0	0	0	0	0	0
010819	13:51:25	14:03:04	698945	5.0.10.0	4_exp_AMP_EVA_AWA_CON	48	Rpleas_acq	Oppo	Lpleas	Bmasked	CS_B	2pleas	distractor2	EVAbeforeCON	AMP_distractor	AMP1_masked	6	11	0	0	300	300	0	0	379	46	0	0	0	0	0	1	blank2r.bmp	0	1	JCRD	0	1	blank2r.bmp	79	54	pic54.bmp	199	1	whitenoise_No3.bmp	306	0	0	0	0	0	0	0	0	0	0	0	0	0	0	0	0	0	0	0	0	0	0	0	0	0	0	0	0	0	0	0	0	0	0	0	0	0	0	0
010819	13:51:25	14:03:05	700185	5.0.10.0	4_exp_AMP_EVA_AWA_CON	48	Rpleas_acq	Oppo	Lpleas	Bmasked	CS_B	2pleas	distractor2	EVAbeforeCON	AMP_distractor	AMP1_masked	6	12	0	0	300	300	0	0	331	50	0	0	0	0	0	1	blank2r.bmp	0	1	JCRD	0	1	blank2r.bmp	79	22	pic22.bmp	199	1	whitenoise_No3.bmp	306	0	0	0	0	0	0	0	0	0	0	0	0	0	0	0	0	0	0	0	0	0	0	0	0	0	0	0	0	0	0	0	0	0	0	0	0	0	0	0
010819	13:51:25	14:03:07	701651	5.0.10.0	4_exp_AMP_EVA_AWA_CON	48	Rpleas_acq	Oppo	Lpleas	Bmasked	CS_B	2pleas	distractor2	EVAbeforeCON	AMP_CSpleas	AMP1_masked	6	13	0	0	300	300	0	0	539	46	0	1	0	0	0	1	blank2r.bmp	0	1	GKQX	0	1	blank2r.bmp	79	105	pic105.bmp	199	1	whitenoise_No3.bmp	306	0	0	0	0	0	0	0	0	0	0	0	0	0	0	0	0	0	0	0	0	0	0	0	0	0	0	0	0	0	0	0	0	0	0	0	0	0	0	0
010819	13:51:25	14:03:08	703157	5.0.10.0	4_exp_AMP_EVA_AWA_CON	48	Rpleas_acq	Oppo	Lpleas	Bmasked	CS_B	2pleas	distractor2	EVAbeforeCON	AMP_distractor	AMP1_masked	6	14	0	0	300	300	0	0	583	50	0	0	0	0	0	1	blank2r.bmp	0	1	JCRD	0	1	blank2r.bmp	79	149	pic149.bmp	199	1	whitenoise_No3.bmp	306	0	0	0	0	0	0	0	0	0	0	0	0	0	0	0	0	0	0	0	0	0	0	0	0	0	0	0	0	0	0	0	0	0	0	0	0	0	0	0
010819	13:51:25	14:03:10	704476	5.0.10.0	4_exp_AMP_EVA_AWA_CON	48	Rpleas_acq	Oppo	Lpleas	Bmasked	CS_B	2pleas	distractor2	EVAbeforeCON	AMP_distractor	AMP1_masked	6	15	0	0	300	300	0	0	386	46	0	0	0	0	0	1	blank2r.bmp	0	1	JCRD	0	1	blank2r.bmp	79	41	pic41.bmp	199	1	whitenoise_No3.bmp	306	0	0	0	0	0	0	0	0	0	0	0	0	0	0	0	0	0	0	0	0	0	0	0	0	0	0	0	0	0	0	0	0	0	0	0	0	0	0	0
010819	13:51:25	14:03:11	705916	5.0.10.0	4_exp_AMP_EVA_AWA_CON	48	Rpleas_acq	Oppo	Lpleas	Bmasked	CS_B	2pleas	distractor2	EVAbeforeCON	AMP_distractor	AMP1_masked	6	16	0	0	300	300	0	0	509	50	0	0	0	0	0	1	blank2r.bmp	0	1	JCRD	0	1	blank2r.bmp	79	38	pic38.bmp	199	1	whitenoise_No3.bmp	306	0	0	0	0	0	0	0	0	0	0	0	0	0	0	0	0	0	0	0	0	0	0	0	0	0	0	0	0	0	0	0	0	0	0	0	0	0	0	0
010819	13:51:25	14:03:12	707222	5.0.10.0	4_exp_AMP_EVA_AWA_CON	48	Rpleas_acq	Oppo	Lpleas	Bmasked	CS_B	2pleas	distractor2	EVAbeforeCON	AMP_CSpleas	AMP1_masked	6	17	0	0	300	300	0	0	396	46	0	1	0	0	0	1	blank2r.bmp	0	1	GKQX	0	1	blank2r.bmp	79	127	pic127.bmp	199	1	whitenoise_No3.bmp	306	0	0	0	0	0	0	0	0	0	0	0	0	0	0	0	0	0	0	0	0	0	0	0	0	0	0	0	0	0	0	0	0	0	0	0	0	0	0	0
010819	13:51:25	14:03:14	708675	5.0.10.0	4_exp_AMP_EVA_AWA_CON	48	Rpleas_acq	Oppo	Lpleas	Bmasked	CS_B	2pleas	distractor2	EVAbeforeCON	AMP_CSunple	AMP1_masked	6	18	0	0	300	300	0	0	526	46	0	0	0	0	0	1	blank2r.bmp	0	1	BMVZ	0	1	blank2r.bmp	79	18	pic18.bmp	199	1	whitenoise_No3.bmp	306	0	0	0	0	0	0	0	0	0	0	0	0	0	0	0	0	0	0	0	0	0	0	0	0	0	0	0	0	0	0	0	0	0	0	0	0	0	0	0
010819	13:51:25	14:03:15	709994	5.0.10.0	4_exp_AMP_EVA_AWA_CON	48	Rpleas_acq	Oppo	Lpleas	Bmasked	CS_B	2pleas	distractor2	EVAbeforeCON	AMP_distractor	AMP1_masked	6	19	0	0	300	300	0	0	408	46	0	0	0	0	0	1	blank2r.bmp	0	1	JCRD	0	1	blank2r.bmp	79	42	pic42.bmp	199	1	whitenoise_No3.bmp	306	0	0	0	0	0	0	0	0	0	0	0	0	0	0	0	0	0	0	0	0	0	0	0	0	0	0	0	0	0	0	0	0	0	0	0	0	0	0	0
010819	13:51:25	14:03:16	711220	5.0.10.0	4_exp_AMP_EVA_AWA_CON	48	Rpleas_acq	Oppo	Lpleas	Bmasked	CS_B	2pleas	distractor2	EVAbeforeCON	AMP_CSunple	AMP1_masked	6	20	0	0	300	300	0	0	292	46	0	0	0	0	0	1	blank2r.bmp	0	1	BMVZ	0	1	blank2r.bmp	79	140	pic140.bmp	199	1	whitenoise_No3.bmp	306	0	0	0	0	0	0	0	0	0	0	0	0	0	0	0	0	0	0	0	0	0	0	0	0	0	0	0	0	0	0	0	0	0	0	0	0	0	0	0
010819	13:51:25	14:03:18	712699	5.0.10.0	4_exp_AMP_EVA_AWA_CON	48	Rpleas_acq	Oppo	Lpleas	Bmasked	CS_B	2pleas	distractor2	EVAbeforeCON	AMP_CSunple	AMP1_masked	6	21	0	0	300	300	0	0	562	46	0	0	0	0	0	1	blank2r.bmp	0	1	BMVZ	0	1	blank2r.bmp	79	30	pic30.bmp	199	1	whitenoise_No3.bmp	306	0	0	0	0	0	0	0	0	0	0	0	0	0	0	0	0	0	0	0	0	0	0	0	0	0	0	0	0	0	0	0	0	0	0	0	0	0	0	0
010819	13:51:25	14:03:19	714099	5.0.10.0	4_exp_AMP_EVA_AWA_CON	48	Rpleas_acq	Oppo	Lpleas	Bmasked	CS_B	2pleas	distractor2	EVAbeforeCON	AMP_CSpleas	AMP1_masked	6	22	0	0	300	300	0	0	485	50	0	0	0	0	0	1	blank2r.bmp	0	1	GKQX	0	1	blank2r.bmp	79	19	pic19.bmp	199	1	whitenoise_No3.bmp	306	0	0	0	0	0	0	0	0	0	0	0	0	0	0	0	0	0	0	0	0	0	0	0	0	0	0	0	0	0	0	0	0	0	0	0	0	0	0	0
010819	13:51:25	14:03:21	715498	5.0.10.0	4_exp_AMP_EVA_AWA_CON	48	Rpleas_acq	Oppo	Lpleas	Bmasked	CS_B	2pleas	distractor2	EVAbeforeCON	AMP_CSunple	AMP1_masked	6	23	0	0	300	300	0	0	476	50	0	1	0	0	0	1	blank2r.bmp	0	1	BMVZ	0	1	blank2r.bmp	79	138	pic138.bmp	199	1	whitenoise_No3.bmp	306	0	0	0	0	0	0	0	0	0	0	0	0	0	0	0	0	0	0	0	0	0	0	0	0	0	0	0	0	0	0	0	0	0	0	0	0	0	0	0
010819	13:51:25	14:03:22	716724	5.0.10.0	4_exp_AMP_EVA_AWA_CON	48	Rpleas_acq	Oppo	Lpleas	Bmasked	CS_B	2pleas	distractor2	EVAbeforeCON	AMP_distractor	AMP1_masked	6	24	0	0	300	300	0	0	297	46	0	0	0	0	0	1	blank2r.bmp	0	1	JCRD	0	1	blank2r.bmp	79	58	pic58.bmp	199	1	whitenoise_No3.bmp	306	0	0	0	0	0	0	0	0	0	0	0	0	0	0	0	0	0	0	0	0	0	0	0	0	0	0	0	0	0	0	0	0	0	0	0	0	0	0	0
010819	13:51:25	14:03:23	718111	5.0.10.0	4_exp_AMP_EVA_AWA_CON	48	Rpleas_acq	Oppo	Lpleas	Bmasked	CS_B	2pleas	distractor2	EVAbeforeCON	AMP_distractor	AMP1_masked	6	25	0	0	300	300	0	0	471	46	0	0	0	0	0	1	blank2r.bmp	0	1	JCRD	0	1	blank2r.bmp	79	2	pic2.bmp	199	1	whitenoise_No3.bmp	306	0	0	0	0	0	0	0	0	0	0	0	0	0	0	0	0	0	0	0	0	0	0	0	0	0	0	0	0	0	0	0	0	0	0	0	0	0	0	0
010819	13:51:25	14:03:25	719390	5.0.10.0	4_exp_AMP_EVA_AWA_CON	48	Rpleas_acq	Oppo	Lpleas	Bmasked	CS_B	2pleas	distractor2	EVAbeforeCON	AMP_CSunple	AMP1_masked	6	26	0	0	300	300	0	0	356	50	0	1	0	0	0	1	blank2r.bmp	0	1	BMVZ	0	1	blank2r.bmp	79	71	pic71.bmp	199	1	whitenoise_No3.bmp	306	0	0	0	0	0	0	0	0	0	0	0	0	0	0	0	0	0	0	0	0	0	0	0	0	0	0	0	0	0	0	0	0	0	0	0	0	0	0	0
010819	13:51:25	14:03:26	720629	5.0.10.0	4_exp_AMP_EVA_AWA_CON	48	Rpleas_acq	Oppo	Lpleas	Bmasked	CS_B	2pleas	distractor2	EVAbeforeCON	AMP_CSpleas	AMP1_masked	6	27	0	0	300	300	0	0	306	46	0	1	0	0	0	1	blank2r.bmp	0	1	GKQX	0	1	blank2r.bmp	79	83	pic83.bmp	199	1	whitenoise_No3.bmp	306	0	0	0	0	0	0	0	0	0	0	0	0	0	0	0	0	0	0	0	0	0	0	0	0	0	0	0	0	0	0	0	0	0	0	0	0	0	0	0
010819	13:51:25	14:03:27	722109	5.0.10.0	4_exp_AMP_EVA_AWA_CON	48	Rpleas_acq	Oppo	Lpleas	Bmasked	CS_B	2pleas	distractor2	EVAbeforeCON	AMP_distractor	AMP1_masked	6	28	0	0	300	300	0	0	564	50	0	0	0	0	0	1	blank2r.bmp	0	1	JCRD	0	1	blank2r.bmp	79	107	pic107.bmp	199	1	whitenoise_No3.bmp	306	0	0	0	0	0	0	0	0	0	0	0	0	0	0	0	0	0	0	0	0	0	0	0	0	0	0	0	0	0	0	0	0	0	0	0	0	0	0	0
010819	13:51:25	14:03:29	723442	5.0.10.0	4_exp_AMP_EVA_AWA_CON	48	Rpleas_acq	Oppo	Lpleas	Bmasked	CS_B	2pleas	distractor2	EVAbeforeCON	AMP_CSunple	AMP1_masked	6	29	0	0	300	300	0	0	424	50	0	1	0	0	0	1	blank2r.bmp	0	1	BMVZ	0	1	blank2r.bmp	79	152	pic152.bmp	199	1	whitenoise_No3.bmp	306	0	0	0	0	0	0	0	0	0	0	0	0	0	0	0	0	0	0	0	0	0	0	0	0	0	0	0	0	0	0	0	0	0	0	0	0	0	0	0
010819	13:51:25	14:03:30	724721	5.0.10.0	4_exp_AMP_EVA_AWA_CON	48	Rpleas_acq	Oppo	Lpleas	Bmasked	CS_B	2pleas	distractor2	EVAbeforeCON	AMP_CSpleas	AMP1_masked	6	30	0	0	300	300	0	0	351	46	0	1	0	0	0	1	blank2r.bmp	0	1	GKQX	0	1	blank2r.bmp	79	87	pic87.bmp	199	1	whitenoise_No3.bmp	306	0	0	0	0	0	0	0	0	0	0	0	0	0	0	0	0	0	0	0	0	0	0	0	0	0	0	0	0	0	0	0	0	0	0	0	0	0	0	0
010819	13:51:25	14:03:31	726134	5.0.10.0	4_exp_AMP_EVA_AWA_CON	48	Rpleas_acq	Oppo	Lpleas	Bmasked	CS_B	2pleas	distractor2	EVAbeforeCON	AMP_CSunple	AMP1_masked	6	31	0	0	300	300	0	0	489	50	0	1	0	0	0	1	blank2r.bmp	0	1	BMVZ	0	1	blank2r.bmp	79	33	pic33.bmp	199	1	whitenoise_No3.bmp	306	0	0	0	0	0	0	0	0	0	0	0	0	0	0	0	0	0	0	0	0	0	0	0	0	0	0	0	0	0	0	0	0	0	0	0	0	0	0	0
010819	13:51:25	14:03:33	727413	5.0.10.0	4_exp_AMP_EVA_AWA_CON	48	Rpleas_acq	Oppo	Lpleas	Bmasked	CS_B	2pleas	distractor2	EVAbeforeCON	AMP_CSunple	AMP1_masked	6	32	0	0	300	300	0	0	357	46	0	0	0	0	0	1	blank2r.bmp	0	1	BMVZ	0	1	blank2r.bmp	79	57	pic57.bmp	199	1	whitenoise_No3.bmp	306	0	0	0	0	0	0	0	0	0	0	0	0	0	0	0	0	0	0	0	0	0	0	0	0	0	0	0	0	0	0	0	0	0	0	0	0	0	0	0
010819	13:51:25	14:03:34	728799	5.0.10.0	4_exp_AMP_EVA_AWA_CON	48	Rpleas_acq	Oppo	Lpleas	Bmasked	CS_B	2pleas	distractor2	EVAbeforeCON	AMP_CSunple	AMP1_masked	6	33	0	0	300	300	0	0	455	46	0	0	0	0	0	1	blank2r.bmp	0	1	BMVZ	0	1	blank2r.bmp	79	81	pic81.bmp	199	1	whitenoise_No3.bmp	306	0	0	0	0	0	0	0	0	0	0	0	0	0	0	0	0	0	0	0	0	0	0	0	0	0	0	0	0	0	0	0	0	0	0	0	0	0	0	0
010819	13:51:25	14:03:35	729986	5.0.10.0	4_exp_AMP_EVA_AWA_CON	48	Rpleas_acq	Oppo	Lpleas	Bmasked	CS_B	2pleas	distractor2	EVAbeforeCON	AMP_CSpleas	AMP1_masked	6	34	0	0	300	300	0	0	270	46	0	1	0	0	0	1	blank2r.bmp	0	1	GKQX	0	1	blank2r.bmp	79	4	pic4.bmp	199	1	whitenoise_No3.bmp	306	0	0	0	0	0	0	0	0	0	0	0	0	0	0	0	0	0	0	0	0	0	0	0	0	0	0	0	0	0	0	0	0	0	0	0	0	0	0	0
010819	13:51:25	14:03:36	731158	5.0.10.0	4_exp_AMP_EVA_AWA_CON	48	Rpleas_acq	Oppo	Lpleas	Bmasked	CS_B	2pleas	distractor2	EVAbeforeCON	AMP_CSunple	AMP1_masked	6	35	0	0	300	300	0	0	263	46	0	0	0	0	0	1	blank2r.bmp	0	1	BMVZ	0	1	blank2r.bmp	79	28	pic28.bmp	199	1	whitenoise_No3.bmp	306	0	0	0	0	0	0	0	0	0	0	0	0	0	0	0	0	0	0	0	0	0	0	0	0	0	0	0	0	0	0	0	0	0	0	0	0	0	0	0
010819	13:51:25	14:03:38	732424	5.0.10.0	4_exp_AMP_EVA_AWA_CON	48	Rpleas_acq	Oppo	Lpleas	Bmasked	CS_B	2pleas	distractor2	EVAbeforeCON	AMP_CSpleas	AMP1_masked	6	36	0	0	300	300	0	0	333	46	0	1	0	0	0	1	blank2r.bmp	0	1	GKQX	0	1	blank2r.bmp	79	100	pic100.bmp	199	1	whitenoise_No3.bmp	306	0	0	0	0	0	0	0	0	0	0	0	0	0	0	0	0	0	0	0	0	0	0	0	0	0	0	0	0	0	0	0	0	0	0	0	0	0	0	0
010819	13:51:25	14:03:39	734184	5.0.10.0	4_exp_AMP_EVA_AWA_CON	48	Rpleas_acq	Oppo	Lpleas	Bmasked	CS_B	2pleas	distractor2	EVAbeforeCON	AMP_CSpleas	AMP1_masked	6	37	0	0	300	300	0	0	838	50	0	0	0	0	0	1	blank2r.bmp	0	1	GKQX	0	1	blank2r.bmp	79	135	pic135.bmp	199	1	whitenoise_No3.bmp	306	0	0	0	0	0	0	0	0	0	0	0	0	0	0	0	0	0	0	0	0	0	0	0	0	0	0	0	0	0	0	0	0	0	0	0	0	0	0	0
010819	13:51:25	14:03:41	735490	5.0.10.0	4_exp_AMP_EVA_AWA_CON	48	Rpleas_acq	Oppo	Lpleas	Bmasked	CS_B	2pleas	distractor2	EVAbeforeCON	AMP_distractor	AMP1_masked	6	38	0	0	300	300	0	0	395	46	0	0	0	0	0	1	blank2r.bmp	0	1	JCRD	0	1	blank2r.bmp	79	52	pic52.bmp	199	1	whitenoise_No3.bmp	306	0	0	0	0	0	0	0	0	0	0	0	0	0	0	0	0	0	0	0	0	0	0	0	0	0	0	0	0	0	0	0	0	0	0	0	0	0	0	0
010819	13:51:25	14:03:42	736823	5.0.10.0	4_exp_AMP_EVA_AWA_CON	48	Rpleas_acq	Oppo	Lpleas	Bmasked	CS_B	2pleas	distractor2	EVAbeforeCON	AMP_CSunple	AMP1_masked	6	39	0	0	300	300	0	0	404	46	0	0	0	0	0	1	blank2r.bmp	0	1	BMVZ	0	1	blank2r.bmp	79	15	pic15.bmp	199	1	whitenoise_No3.bmp	306	0	0	0	0	0	0	0	0	0	0	0	0	0	0	0	0	0	0	0	0	0	0	0	0	0	0	0	0	0	0	0	0	0	0	0	0	0	0	0
010819	13:51:25	14:03:43	738142	5.0.10.0	4_exp_AMP_EVA_AWA_CON	48	Rpleas_acq	Oppo	Lpleas	Bmasked	CS_B	2pleas	distractor2	EVAbeforeCON	AMP_distractor	AMP1_masked	6	40	0	0	300	300	0	0	404	50	0	0	0	0	0	1	blank2r.bmp	0	1	JCRD	0	1	blank2r.bmp	79	119	pic119.bmp	199	1	whitenoise_No3.bmp	306	0	0	0	0	0	0	0	0	0	0	0	0	0	0	0	0	0	0	0	0	0	0	0	0	0	0	0	0	0	0	0	0	0	0	0	0	0	0	0
010819	13:51:25	14:03:45	739368	5.0.10.0	4_exp_AMP_EVA_AWA_CON	48	Rpleas_acq	Oppo	Lpleas	Bmasked	CS_B	2pleas	distractor2	EVAbeforeCON	AMP_CSunple	AMP1_masked	6	41	0	0	300	300	0	0	293	50	0	1	0	0	0	1	blank2r.bmp	0	1	BMVZ	0	1	blank2r.bmp	79	96	pic96.bmp	199	1	whitenoise_No3.bmp	306	0	0	0	0	0	0	0	0	0	0	0	0	0	0	0	0	0	0	0	0	0	0	0	0	0	0	0	0	0	0	0	0	0	0	0	0	0	0	0
010819	13:51:25	14:03:46	740608	5.0.10.0	4_exp_AMP_EVA_AWA_CON	48	Rpleas_acq	Oppo	Lpleas	Bmasked	CS_B	2pleas	distractor2	EVAbeforeCON	AMP_CSpleas	AMP1_masked	6	42	0	0	300	300	0	0	322	50	0	0	0	0	0	1	blank2r.bmp	0	1	GKQX	0	1	blank2r.bmp	79	112	pic112.bmp	199	1	whitenoise_No3.bmp	306	0	0	0	0	0	0	0	0	0	0	0	0	0	0	0	0	0	0	0	0	0	0	0	0	0	0	0	0	0	0	0	0	0	0	0	0	0	0	0
010819	13:51:25	14:03:47	742020	5.0.10.0	4_exp_AMP_EVA_AWA_CON	48	Rpleas_acq	Oppo	Lpleas	Bmasked	CS_B	2pleas	distractor2	EVAbeforeCON	AMP_CSpleas	AMP1_masked	6	43	0	0	300	300	0	0	498	46	0	1	0	0	0	1	blank2r.bmp	0	1	GKQX	0	1	blank2r.bmp	79	20	pic20.bmp	199	1	whitenoise_No3.bmp	306	0	0	0	0	0	0	0	0	0	0	0	0	0	0	0	0	0	0	0	0	0	0	0	0	0	0	0	0	0	0	0	0	0	0	0	0	0	0	0
010819	13:51:25	14:03:49	744073	5.0.10.0	4_exp_AMP_EVA_AWA_CON	48	Rpleas_acq	Oppo	Lpleas	Bmasked	CS_B	2pleas	distractor2	EVAbeforeCON	AMP_CSpleas	AMP1_masked	6	44	0	0	300	300	0	0	1123	46	0	1	0	0	0	1	blank2r.bmp	0	1	GKQX	0	1	blank2r.bmp	79	6	pic6.bmp	199	1	whitenoise_No3.bmp	306	0	0	0	0	0	0	0	0	0	0	0	0	0	0	0	0	0	0	0	0	0	0	0	0	0	0	0	0	0	0	0	0	0	0	0	0	0	0	0
010819	13:51:25	14:03:51	745459	5.0.10.0	4_exp_AMP_EVA_AWA_CON	48	Rpleas_acq	Oppo	Lpleas	Bmasked	CS_B	2pleas	distractor2	EVAbeforeCON	AMP_CSunple	AMP1_masked	6	45	0	0	300	300	0	0	466	46	0	0	0	0	0	1	blank2r.bmp	0	1	BMVZ	0	1	blank2r.bmp	79	111	pic111.bmp	199	1	whitenoise_No3.bmp	306	0	0	0	0	0	0	0	0	0	0	0	0	0	0	0	0	0	0	0	0	0	0	0	0	0	0	0	0	0	0	0	0	0	0	0	0	0	0	0
010819	13:51:25	14:03:52	746738	5.0.10.0	4_exp_AMP_EVA_AWA_CON	48	Rpleas_acq	Oppo	Lpleas	Bmasked	CS_B	2pleas	distractor2	EVAbeforeCON	AMP_distractor	AMP1_masked	6	46	0	0	300	300	0	0	371	50	0	0	0	0	0	1	blank2r.bmp	0	1	JCRD	0	1	blank2r.bmp	79	17	pic17.bmp	199	1	whitenoise_No3.bmp	306	0	0	0	0	0	0	0	0	0	0	0	0	0	0	0	0	0	0	0	0	0	0	0	0	0	0	0	0	0	0	0	0	0	0	0	0	0	0	0
010819	13:51:25	14:03:53	748005	5.0.10.0	4_exp_AMP_EVA_AWA_CON	48	Rpleas_acq	Oppo	Lpleas	Bmasked	CS_B	2pleas	distractor2	EVAbeforeCON	AMP_distractor	AMP1_masked	6	47	0	0	300	300	0	0	353	46	0	0	0	0	0	1	blank2r.bmp	0	1	JCRD	0	1	blank2r.bmp	79	121	pic121.bmp	199	1	whitenoise_No3.bmp	306	0	0	0	0	0	0	0	0	0	0	0	0	0	0	0	0	0	0	0	0	0	0	0	0	0	0	0	0	0	0	0	0	0	0	0	0	0	0	0
010819	13:51:25	14:03:55	749497	5.0.10.0	4_exp_AMP_EVA_AWA_CON	48	Rpleas_acq	Oppo	Lpleas	Bmasked	CS_B	2pleas	distractor2	EVAbeforeCON	AMP_CSpleas	AMP1_masked	6	48	0	0	300	300	0	0	576	50	0	0	0	0	0	1	blank2r.bmp	0	1	GKQX	0	1	blank2r.bmp	79	45	pic45.bmp	199	1	whitenoise_No3.bmp	306	0	0	0	0	0	0	0	0	0	0	0	0	0	0	0	0	0	0	0	0	0	0	0	0	0	0	0	0	0	0	0	0	0	0	0	0	0	0	0
010819	13:51:25	14:03:56	750977	5.0.10.0	4_exp_AMP_EVA_AWA_CON	48	Rpleas_acq	Oppo	Lpleas	Bmasked	CS_B	2pleas	distractor2	EVAbeforeCON	AMP_CSpleas	AMP1_masked	6	49	0	0	300	300	0	0	556	46	0	1	0	0	0	1	blank2r.bmp	0	1	GKQX	0	1	blank2r.bmp	79	102	pic102.bmp	199	1	whitenoise_No3.bmp	306	0	0	0	0	0	0	0	0	0	0	0	0	0	0	0	0	0	0	0	0	0	0	0	0	0	0	0	0	0	0	0	0	0	0	0	0	0	0	0
010819	13:51:25	14:03:57	752216	5.0.10.0	4_exp_AMP_EVA_AWA_CON	48	Rpleas_acq	Oppo	Lpleas	Bmasked	CS_B	2pleas	distractor2	EVAbeforeCON	AMP_distractor	AMP1_masked	6	50	0	0	300	300	0	0	315	50	0	0	0	0	0	1	blank2r.bmp	0	1	JCRD	0	1	blank2r.bmp	79	150	pic150.bmp	199	1	whitenoise_No3.bmp	306	0	0	0	0	0	0	0	0	0	0	0	0	0	0	0	0	0	0	0	0	0	0	0	0	0	0	0	0	0	0	0	0	0	0	0	0	0	0	0
010819	13:51:25	14:03:59	753722	5.0.10.0	4_exp_AMP_EVA_AWA_CON	48	Rpleas_acq	Oppo	Lpleas	Bmasked	CS_B	2pleas	distractor2	EVAbeforeCON	AMP_distractor	AMP1_masked	6	51	0	0	300	300	0	0	589	46	0	0	0	0	0	1	blank2r.bmp	0	1	JCRD	0	1	blank2r.bmp	79	94	pic94.bmp	199	1	whitenoise_No3.bmp	306	0	0	0	0	0	0	0	0	0	0	0	0	0	0	0	0	0	0	0	0	0	0	0	0	0	0	0	0	0	0	0	0	0	0	0	0	0	0	0
010819	13:51:25	14:04:09	763811	5.0.10.0	4_exp_AMP_EVA_AWA_CON	48	Rpleas_acq	Oppo	Lpleas	Bmasked	CS_B	2pleas	distractor2	EVAbeforeCON	AMP_CSunple	AMP23	7	1	0	0	300	300	0	0	1721	46	0	0	0	0	0	1	blank2r.bmp	0	1	BMVZ	0	1	blank2r.bmp	79	153	pic153.bmp	199	1	whitenoise_No3.bmp	306	0	0	0	0	0	0	0	0	0	0	0	0	0	0	0	0	0	0	0	0	0	0	0	0	0	0	0	0	0	0	0	0	0	0	0	0	0	0	0
010819	13:51:25	14:04:10	765251	5.0.10.0	4_exp_AMP_EVA_AWA_CON	48	Rpleas_acq	Oppo	Lpleas	Bmasked	CS_B	2pleas	distractor2	EVAbeforeCON	AMP_distractor	AMP23	7	2	0	0	300	300	0	0	518	46	0	0	0	0	0	1	blank2r.bmp	0	1	JCRD	0	1	blank2r.bmp	79	89	pic89.bmp	199	1	whitenoise_No3.bmp	306	0	0	0	0	0	0	0	0	0	0	0	0	0	0	0	0	0	0	0	0	0	0	0	0	0	0	0	0	0	0	0	0	0	0	0	0	0	0	0
010819	13:51:25	14:04:12	766570	5.0.10.0	4_exp_AMP_EVA_AWA_CON	48	Rpleas_acq	Oppo	Lpleas	Bmasked	CS_B	2pleas	distractor2	EVAbeforeCON	AMP_distractor	AMP23	7	3	0	0	300	300	0	0	406	46	0	0	0	0	0	1	blank2r.bmp	0	1	JCRD	0	1	blank2r.bmp	79	39	pic39.bmp	199	1	whitenoise_No3.bmp	306	0	0	0	0	0	0	0	0	0	0	0	0	0	0	0	0	0	0	0	0	0	0	0	0	0	0	0	0	0	0	0	0	0	0	0	0	0	0	0
010819	13:51:25	14:04:13	768156	5.0.10.0	4_exp_AMP_EVA_AWA_CON	48	Rpleas_acq	Oppo	Lpleas	Bmasked	CS_B	2pleas	distractor2	EVAbeforeCON	AMP_distractor	AMP23	7	4	0	0	300	300	0	0	676	46	0	0	0	0	0	1	blank2r.bmp	0	1	JCRD	0	1	blank2r.bmp	79	11	pic11.bmp	199	1	whitenoise_No3.bmp	306	0	0	0	0	0	0	0	0	0	0	0	0	0	0	0	0	0	0	0	0	0	0	0	0	0	0	0	0	0	0	0	0	0	0	0	0	0	0	0
010819	13:51:25	14:04:15	769569	5.0.10.0	4_exp_AMP_EVA_AWA_CON	48	Rpleas_acq	Oppo	Lpleas	Bmasked	CS_B	2pleas	distractor2	EVAbeforeCON	AMP_distractor	AMP23	7	5	0	0	300	300	0	0	479	50	0	0	0	0	0	1	blank2r.bmp	0	1	JCRD	0	1	blank2r.bmp	79	142	pic142.bmp	199	1	whitenoise_No3.bmp	306	0	0	0	0	0	0	0	0	0	0	0	0	0	0	0	0	0	0	0	0	0	0	0	0	0	0	0	0	0	0	0	0	0	0	0	0	0	0	0
010819	13:51:25	14:04:16	770835	5.0.10.0	4_exp_AMP_EVA_AWA_CON	48	Rpleas_acq	Oppo	Lpleas	Bmasked	CS_B	2pleas	distractor2	EVAbeforeCON	AMP_CSpleas	AMP23	7	6	0	0	300	300	0	0	351	46	0	1	0	0	0	1	blank2r.bmp	0	1	GKQX	0	1	blank2r.bmp	79	148	pic148.bmp	199	1	whitenoise_No3.bmp	306	0	0	0	0	0	0	0	0	0	0	0	0	0	0	0	0	0	0	0	0	0	0	0	0	0	0	0	0	0	0	0	0	0	0	0	0	0	0	0
010819	13:51:25	14:04:18	772301	5.0.10.0	4_exp_AMP_EVA_AWA_CON	48	Rpleas_acq	Oppo	Lpleas	Bmasked	CS_B	2pleas	distractor2	EVAbeforeCON	AMP_distractor	AMP23	7	7	0	0	300	300	0	0	544	50	0	0	0	0	0	1	blank2r.bmp	0	1	JCRD	0	1	blank2r.bmp	79	27	pic27.bmp	199	1	whitenoise_No3.bmp	306	0	0	0	0	0	0	0	0	0	0	0	0	0	0	0	0	0	0	0	0	0	0	0	0	0	0	0	0	0	0	0	0	0	0	0	0	0	0	0
010819	13:51:25	14:04:19	773740	5.0.10.0	4_exp_AMP_EVA_AWA_CON	48	Rpleas_acq	Oppo	Lpleas	Bmasked	CS_B	2pleas	distractor2	EVAbeforeCON	AMP_CSpleas	AMP23	7	8	0	0	300	300	0	0	507	46	0	1	0	0	0	1	blank2r.bmp	0	1	GKQX	0	1	blank2r.bmp	79	65	pic65.bmp	199	1	whitenoise_No3.bmp	306	0	0	0	0	0	0	0	0	0	0	0	0	0	0	0	0	0	0	0	0	0	0	0	0	0	0	0	0	0	0	0	0	0	0	0	0	0	0	0
010819	13:51:25	14:04:20	774940	5.0.10.0	4_exp_AMP_EVA_AWA_CON	48	Rpleas_acq	Oppo	Lpleas	Bmasked	CS_B	2pleas	distractor2	EVAbeforeCON	AMP_CSunple	AMP23	7	9	0	0	300	300	0	0	275	46	0	0	0	0	0	1	blank2r.bmp	0	1	BMVZ	0	1	blank2r.bmp	79	117	pic117.bmp	199	1	whitenoise_No3.bmp	306	0	0	0	0	0	0	0	0	0	0	0	0	0	0	0	0	0	0	0	0	0	0	0	0	0	0	0	0	0	0	0	0	0	0	0	0	0	0	0
010819	13:51:25	14:04:21	776273	5.0.10.0	4_exp_AMP_EVA_AWA_CON	48	Rpleas_acq	Oppo	Lpleas	Bmasked	CS_B	2pleas	distractor2	EVAbeforeCON	AMP_CSunple	AMP23	7	10	0	0	300	300	0	0	405	46	0	0	0	0	0	1	blank2r.bmp	0	1	BMVZ	0	1	blank2r.bmp	79	106	pic106.bmp	199	1	whitenoise_No3.bmp	306	0	0	0	0	0	0	0	0	0	0	0	0	0	0	0	0	0	0	0	0	0	0	0	0	0	0	0	0	0	0	0	0	0	0	0	0	0	0	0
010819	13:51:25	14:04:23	777566	5.0.10.0	4_exp_AMP_EVA_AWA_CON	48	Rpleas_acq	Oppo	Lpleas	Bmasked	CS_B	2pleas	distractor2	EVAbeforeCON	AMP_CSunple	AMP23	7	11	0	0	300	300	0	0	381	46	0	0	0	0	0	1	blank2r.bmp	0	1	BMVZ	0	1	blank2r.bmp	79	35	pic35.bmp	199	1	whitenoise_No3.bmp	306	0	0	0	0	0	0	0	0	0	0	0	0	0	0	0	0	0	0	0	0	0	0	0	0	0	0	0	0	0	0	0	0	0	0	0	0	0	0	0
010819	13:51:25	14:04:24	779165	5.0.10.0	4_exp_AMP_EVA_AWA_CON	48	Rpleas_acq	Oppo	Lpleas	Bmasked	CS_B	2pleas	distractor2	EVAbeforeCON	AMP_CSunple	AMP23	7	12	0	0	300	300	0	0	688	46	0	0	0	0	0	1	blank2r.bmp	0	1	BMVZ	0	1	blank2r.bmp	79	12	pic12.bmp	199	1	whitenoise_No3.bmp	306	0	0	0	0	0	0	0	0	0	0	0	0	0	0	0	0	0	0	0	0	0	0	0	0	0	0	0	0	0	0	0	0	0	0	0	0	0	0	0
010819	13:51:25	14:04:26	780391	5.0.10.0	4_exp_AMP_EVA_AWA_CON	48	Rpleas_acq	Oppo	Lpleas	Bmasked	CS_B	2pleas	distractor2	EVAbeforeCON	AMP_CSunple	AMP23	7	13	0	0	300	300	0	0	299	46	0	0	0	0	0	1	blank2r.bmp	0	1	BMVZ	0	1	blank2r.bmp	79	1	pic1.bmp	199	1	whitenoise_No3.bmp	306	0	0	0	0	0	0	0	0	0	0	0	0	0	0	0	0	0	0	0	0	0	0	0	0	0	0	0	0	0	0	0	0	0	0	0	0	0	0	0
010819	13:51:25	14:04:27	781804	5.0.10.0	4_exp_AMP_EVA_AWA_CON	48	Rpleas_acq	Oppo	Lpleas	Bmasked	CS_B	2pleas	distractor2	EVAbeforeCON	AMP_CSpleas	AMP23	7	14	0	0	300	300	0	0	504	50	0	0	0	0	0	1	blank2r.bmp	0	1	GKQX	0	1	blank2r.bmp	79	134	pic134.bmp	199	1	whitenoise_No3.bmp	306	0	0	0	0	0	0	0	0	0	0	0	0	0	0	0	0	0	0	0	0	0	0	0	0	0	0	0	0	0	0	0	0	0	0	0	0	0	0	0
010819	13:51:25	14:04:28	783043	5.0.10.0	4_exp_AMP_EVA_AWA_CON	48	Rpleas_acq	Oppo	Lpleas	Bmasked	CS_B	2pleas	distractor2	EVAbeforeCON	AMP_distractor	AMP23	7	15	0	0	300	300	0	0	314	46	0	0	0	0	0	1	blank2r.bmp	0	1	JCRD	0	1	blank2r.bmp	79	116	pic116.bmp	199	1	whitenoise_No3.bmp	306	0	0	0	0	0	0	0	0	0	0	0	0	0	0	0	0	0	0	0	0	0	0	0	0	0	0	0	0	0	0	0	0	0	0	0	0	0	0	0
010819	13:51:25	14:04:30	784416	5.0.10.0	4_exp_AMP_EVA_AWA_CON	48	Rpleas_acq	Oppo	Lpleas	Bmasked	CS_B	2pleas	distractor2	EVAbeforeCON	AMP_distractor	AMP23	7	16	0	0	300	300	0	0	458	46	0	0	0	0	0	1	blank2r.bmp	0	1	JCRD	0	1	blank2r.bmp	79	95	pic95.bmp	199	1	whitenoise_No3.bmp	306	0	0	0	0	0	0	0	0	0	0	0	0	0	0	0	0	0	0	0	0	0	0	0	0	0	0	0	0	0	0	0	0	0	0	0	0	0	0	0
010819	13:51:25	14:04:31	785709	5.0.10.0	4_exp_AMP_EVA_AWA_CON	48	Rpleas_acq	Oppo	Lpleas	Bmasked	CS_B	2pleas	distractor2	EVAbeforeCON	AMP_CSpleas	AMP23	7	17	0	0	300	300	0	0	373	50	0	0	0	0	0	1	blank2r.bmp	0	1	GKQX	0	1	blank2r.bmp	79	85	pic85.bmp	199	1	whitenoise_No3.bmp	306	0	0	0	0	0	0	0	0	0	0	0	0	0	0	0	0	0	0	0	0	0	0	0	0	0	0	0	0	0	0	0	0	0	0	0	0	0	0	0
010819	13:51:25	14:04:33	787335	5.0.10.0	4_exp_AMP_EVA_AWA_CON	48	Rpleas_acq	Oppo	Lpleas	Bmasked	CS_B	2pleas	distractor2	EVAbeforeCON	AMP_CSpleas	AMP23	7	18	0	0	300	300	0	0	705	46	0	1	0	0	0	1	blank2r.bmp	0	1	GKQX	0	1	blank2r.bmp	79	98	pic98.bmp	199	1	whitenoise_No3.bmp	306	0	0	0	0	0	0	0	0	0	0	0	0	0	0	0	0	0	0	0	0	0	0	0	0	0	0	0	0	0	0	0	0	0	0	0	0	0	0	0
010819	13:51:25	14:04:34	788574	5.0.10.0	4_exp_AMP_EVA_AWA_CON	48	Rpleas_acq	Oppo	Lpleas	Bmasked	CS_B	2pleas	distractor2	EVAbeforeCON	AMP_CSunple	AMP23	7	19	0	0	300	300	0	0	319	46	0	0	0	0	0	1	blank2r.bmp	0	1	BMVZ	0	1	blank2r.bmp	79	128	pic128.bmp	199	1	whitenoise_No3.bmp	306	0	0	0	0	0	0	0	0	0	0	0	0	0	0	0	0	0	0	0	0	0	0	0	0	0	0	0	0	0	0	0	0	0	0	0	0	0	0	0
010819	13:51:25	14:04:35	789867	5.0.10.0	4_exp_AMP_EVA_AWA_CON	48	Rpleas_acq	Oppo	Lpleas	Bmasked	CS_B	2pleas	distractor2	EVAbeforeCON	AMP_CSunple	AMP23	7	20	0	0	300	300	0	0	368	46	0	0	0	0	0	1	blank2r.bmp	0	1	BMVZ	0	1	blank2r.bmp	79	31	pic31.bmp	199	1	whitenoise_No3.bmp	306	0	0	0	0	0	0	0	0	0	0	0	0	0	0	0	0	0	0	0	0	0	0	0	0	0	0	0	0	0	0	0	0	0	0	0	0	0	0	0
010819	13:51:25	14:04:36	791027	5.0.10.0	4_exp_AMP_EVA_AWA_CON	48	Rpleas_acq	Oppo	Lpleas	Bmasked	CS_B	2pleas	distractor2	EVAbeforeCON	AMP_distractor	AMP23	7	21	0	0	300	300	0	0	232	46	0	0	0	0	0	1	blank2r.bmp	0	1	JCRD	0	1	blank2r.bmp	79	24	pic24.bmp	199	1	whitenoise_No3.bmp	306	0	0	0	0	0	0	0	0	0	0	0	0	0	0	0	0	0	0	0	0	0	0	0	0	0	0	0	0	0	0	0	0	0	0	0	0	0	0	0
010819	13:51:25	14:04:37	792213	5.0.10.0	4_exp_AMP_EVA_AWA_CON	48	Rpleas_acq	Oppo	Lpleas	Bmasked	CS_B	2pleas	distractor2	EVAbeforeCON	AMP_CSunple	AMP23	7	22	0	0	300	300	0	0	265	46	0	0	0	0	0	1	blank2r.bmp	0	1	BMVZ	0	1	blank2r.bmp	79	68	pic68.bmp	199	1	whitenoise_No3.bmp	306	0	0	0	0	0	0	0	0	0	0	0	0	0	0	0	0	0	0	0	0	0	0	0	0	0	0	0	0	0	0	0	0	0	0	0	0	0	0	0
010819	13:51:25	14:04:39	793479	5.0.10.0	4_exp_AMP_EVA_AWA_CON	48	Rpleas_acq	Oppo	Lpleas	Bmasked	CS_B	2pleas	distractor2	EVAbeforeCON	AMP_distractor	AMP23	7	23	0	0	300	300	0	0	345	46	0	0	0	0	0	1	blank2r.bmp	0	1	JCRD	0	1	blank2r.bmp	79	120	pic120.bmp	199	1	whitenoise_No3.bmp	306	0	0	0	0	0	0	0	0	0	0	0	0	0	0	0	0	0	0	0	0	0	0	0	0	0	0	0	0	0	0	0	0	0	0	0	0	0	0	0
010819	13:51:25	14:04:40	794798	5.0.10.0	4_exp_AMP_EVA_AWA_CON	48	Rpleas_acq	Oppo	Lpleas	Bmasked	CS_B	2pleas	distractor2	EVAbeforeCON	AMP_CSunple	AMP23	7	24	0	0	300	300	0	0	401	46	0	0	0	0	0	1	blank2r.bmp	0	1	BMVZ	0	1	blank2r.bmp	79	13	pic13.bmp	199	1	whitenoise_No3.bmp	306	0	0	0	0	0	0	0	0	0	0	0	0	0	0	0	0	0	0	0	0	0	0	0	0	0	0	0	0	0	0	0	0	0	0	0	0	0	0	0
010819	13:51:25	14:04:41	796024	5.0.10.0	4_exp_AMP_EVA_AWA_CON	48	Rpleas_acq	Oppo	Lpleas	Bmasked	CS_B	2pleas	distractor2	EVAbeforeCON	AMP_CSpleas	AMP23	7	25	0	0	300	300	0	0	304	46	0	1	0	0	0	1	blank2r.bmp	0	1	GKQX	0	1	blank2r.bmp	79	63	pic63.bmp	199	1	whitenoise_No3.bmp	306	0	0	0	0	0	0	0	0	0	0	0	0	0	0	0	0	0	0	0	0	0	0	0	0	0	0	0	0	0	0	0	0	0	0	0	0	0	0	0
010819	13:51:25	14:04:42	797251	5.0.10.0	4_exp_AMP_EVA_AWA_CON	48	Rpleas_acq	Oppo	Lpleas	Bmasked	CS_B	2pleas	distractor2	EVAbeforeCON	AMP_CSunple	AMP23	7	26	0	0	300	300	0	0	297	46	0	0	0	0	0	1	blank2r.bmp	0	1	BMVZ	0	1	blank2r.bmp	79	43	pic43.bmp	199	1	whitenoise_No3.bmp	306	0	0	0	0	0	0	0	0	0	0	0	0	0	0	0	0	0	0	0	0	0	0	0	0	0	0	0	0	0	0	0	0	0	0	0	0	0	0	0
010819	13:51:25	14:04:44	798730	5.0.10.0	4_exp_AMP_EVA_AWA_CON	48	Rpleas_acq	Oppo	Lpleas	Bmasked	CS_B	2pleas	distractor2	EVAbeforeCON	AMP_CSpleas	AMP23	7	27	0	0	300	300	0	0	563	50	0	0	0	0	0	1	blank2r.bmp	0	1	GKQX	0	1	blank2r.bmp	79	34	pic34.bmp	199	1	whitenoise_No3.bmp	306	0	0	0	0	0	0	0	0	0	0	0	0	0	0	0	0	0	0	0	0	0	0	0	0	0	0	0	0	0	0	0	0	0	0	0	0	0	0	0
010819	13:51:25	14:04:45	800076	5.0.10.0	4_exp_AMP_EVA_AWA_CON	48	Rpleas_acq	Oppo	Lpleas	Bmasked	CS_B	2pleas	distractor2	EVAbeforeCON	AMP_distractor	AMP23	7	28	0	0	300	300	0	0	424	46	0	0	0	0	0	1	blank2r.bmp	0	1	JCRD	0	1	blank2r.bmp	79	104	pic104.bmp	199	1	whitenoise_No3.bmp	306	0	0	0	0	0	0	0	0	0	0	0	0	0	0	0	0	0	0	0	0	0	0	0	0	0	0	0	0	0	0	0	0	0	0	0	0	0	0	0
010819	13:51:25	14:04:47	801329	5.0.10.0	4_exp_AMP_EVA_AWA_CON	48	Rpleas_acq	Oppo	Lpleas	Bmasked	CS_B	2pleas	distractor2	EVAbeforeCON	AMP_distractor	AMP23	7	29	0	0	300	300	0	0	322	50	0	0	0	0	0	1	blank2r.bmp	0	1	JCRD	0	1	blank2r.bmp	79	88	pic88.bmp	199	1	whitenoise_No3.bmp	306	0	0	0	0	0	0	0	0	0	0	0	0	0	0	0	0	0	0	0	0	0	0	0	0	0	0	0	0	0	0	0	0	0	0	0	0	0	0	0
010819	13:51:25	14:04:48	802702	5.0.10.0	4_exp_AMP_EVA_AWA_CON	48	Rpleas_acq	Oppo	Lpleas	Bmasked	CS_B	2pleas	distractor2	EVAbeforeCON	AMP_CSpleas	AMP23	7	30	0	0	300	300	0	0	454	50	0	0	0	0	0	1	blank2r.bmp	0	1	GKQX	0	1	blank2r.bmp	79	86	pic86.bmp	199	1	whitenoise_No3.bmp	306	0	0	0	0	0	0	0	0	0	0	0	0	0	0	0	0	0	0	0	0	0	0	0	0	0	0	0	0	0	0	0	0	0	0	0	0	0	0	0
010819	13:51:25	14:04:49	804261	5.0.10.0	4_exp_AMP_EVA_AWA_CON	48	Rpleas_acq	Oppo	Lpleas	Bmasked	CS_B	2pleas	distractor2	EVAbeforeCON	AMP_CSpleas	AMP23	7	31	0	0	300	300	0	0	649	46	0	1	0	0	0	1	blank2r.bmp	0	1	GKQX	0	1	blank2r.bmp	79	62	pic62.bmp	199	1	whitenoise_No3.bmp	306	0	0	0	0	0	0	0	0	0	0	0	0	0	0	0	0	0	0	0	0	0	0	0	0	0	0	0	0	0	0	0	0	0	0	0	0	0	0	0
010819	13:51:25	14:04:51	805740	5.0.10.0	4_exp_AMP_EVA_AWA_CON	48	Rpleas_acq	Oppo	Lpleas	Bmasked	CS_B	2pleas	distractor2	EVAbeforeCON	AMP_CSunple	AMP23	7	32	0	0	300	300	0	0	547	50	0	1	0	0	0	1	blank2r.bmp	0	1	BMVZ	0	1	blank2r.bmp	79	5	pic5.bmp	199	1	whitenoise_No3.bmp	306	0	0	0	0	0	0	0	0	0	0	0	0	0	0	0	0	0	0	0	0	0	0	0	0	0	0	0	0	0	0	0	0	0	0	0	0	0	0	0
010819	13:51:25	14:04:52	806993	5.0.10.0	4_exp_AMP_EVA_AWA_CON	48	Rpleas_acq	Oppo	Lpleas	Bmasked	CS_B	2pleas	distractor2	EVAbeforeCON	AMP_CSpleas	AMP23	7	33	0	0	300	300	0	0	336	46	0	1	0	0	0	1	blank2r.bmp	0	1	GKQX	0	1	blank2r.bmp	79	136	pic136.bmp	199	1	whitenoise_No3.bmp	306	0	0	0	0	0	0	0	0	0	0	0	0	0	0	0	0	0	0	0	0	0	0	0	0	0	0	0	0	0	0	0	0	0	0	0	0	0	0	0
010819	13:51:25	14:04:54	808566	5.0.10.0	4_exp_AMP_EVA_AWA_CON	48	Rpleas_acq	Oppo	Lpleas	Bmasked	CS_B	2pleas	distractor2	EVAbeforeCON	AMP_CSunple	AMP23	7	34	0	0	300	300	0	0	649	50	0	1	0	0	0	1	blank2r.bmp	0	1	BMVZ	0	1	blank2r.bmp	79	97	pic97.bmp	199	1	whitenoise_No3.bmp	306	0	0	0	0	0	0	0	0	0	0	0	0	0	0	0	0	0	0	0	0	0	0	0	0	0	0	0	0	0	0	0	0	0	0	0	0	0	0	0
010819	13:51:25	14:04:55	809872	5.0.10.0	4_exp_AMP_EVA_AWA_CON	48	Rpleas_acq	Oppo	Lpleas	Bmasked	CS_B	2pleas	distractor2	EVAbeforeCON	AMP_CSunple	AMP23	7	35	0	0	300	300	0	0	372	46	0	0	0	0	0	1	blank2r.bmp	0	1	BMVZ	0	1	blank2r.bmp	79	99	pic99.bmp	199	1	whitenoise_No3.bmp	306	0	0	0	0	0	0	0	0	0	0	0	0	0	0	0	0	0	0	0	0	0	0	0	0	0	0	0	0	0	0	0	0	0	0	0	0	0	0	0
010819	13:51:25	14:04:56	811111	5.0.10.0	4_exp_AMP_EVA_AWA_CON	48	Rpleas_acq	Oppo	Lpleas	Bmasked	CS_B	2pleas	distractor2	EVAbeforeCON	AMP_CSpleas	AMP23	7	36	0	0	300	300	0	0	322	50	0	0	0	0	0	1	blank2r.bmp	0	1	GKQX	0	1	blank2r.bmp	79	115	pic115.bmp	199	1	whitenoise_No3.bmp	306	0	0	0	0	0	0	0	0	0	0	0	0	0	0	0	0	0	0	0	0	0	0	0	0	0	0	0	0	0	0	0	0	0	0	0	0	0	0	0
