date	time	script.currenttime	script.elapsedtime	build	script.currentexpt	subject	expressions.LRpleas_acq	expressions.SameOppo	expressions.condition_Lpleas	expressions.ABmasked	expressions.conditionCS_A	expressions.condition_1pleas	expressions.condition_distractor_AMP	expressions.AWACON_AMPEVA_first	trialcode	blockcode	blocknum	trialnum	windowcenter	inwindow	pretrialpause	posttrialpause	trialduration	trialtimeout	latency	response	expressions.correctedscore	correct	values.vis_performance	values.vis_rating_sum	values.vis_rating_mean	stimulusnumber1	stimulusitem1	stimulusonset1	stimulusnumber2	stimulusitem2	stimulusonset2	stimulusnumber3	stimulusitem3	stimulusonset3	stimulusnumber4	stimulusitem4	stimulusonset4	stimulusnumber5	stimulusitem5	stimulusonset5	stimulusnumber6	stimulusitem6	stimulusonset6	stimulusnumber7	stimulusitem7	stimulusonset7	stimulusnumber8	stimulusitem8	stimulusonset8	stimulusnumber9	stimulusitem9	stimulusonset9	stimulusnumber10	stimulusitem10	stimulusonset10	stimulusnumber11	stimulusitem11	stimulusonset11	stimulusnumber12	stimulusitem12	stimulusonset12	stimulusnumber13	stimulusitem13	stimulusonset13	stimulusnumber14	stimulusitem14	stimulusonset14	stimulusnumber15	stimulusitem15	stimulusonset15	stimulusnumber16	stimulusitem16	stimulusonset16	stimulusnumber17	stimulusitem17	stimulusonset17	stimulusnumber18	stimulusitem18	stimulusonset18
040419	12:05:29	12:07:19	107447	5.0.10.0	4_exp_AMP_EVA_AWA_CON	192	Rpleas_acq	Oppo	Rpleas	Amasked	CS_A	1pleas	distractor1	EVAbeforeCON	acq_new_pleas_masked	acq1_masked	1	1	0	0	300	300	0	0	1119	50	0	1	0	0	0	1	blank2r.bmp	0	1	+	0	5	C1r.bmp	492	1	blank2r.bmp	786	6	C2r.bmp	786	1	blank2r.bmp	866	1	träumen	866	0	0	0	0	0	0	0	0	0	0	0	0	0	0	0	0	0	0	0	0	0	0	0	0	0	0	0	0	0	0	0	0	0
040419	12:05:29	12:07:21	109433	5.0.10.0	4_exp_AMP_EVA_AWA_CON	192	Rpleas_acq	Oppo	Rpleas	Amasked	CS_A	1pleas	distractor1	EVAbeforeCON	acq_US_unple_masked	acq1_masked	1	2	0	0	300	300	0	0	511	46	0	1	0	0	0	1	blank2r.bmp	0	1	+	0	4	B4r.bmp	492	1	blank2r.bmp	786	1	DHJF	786	1	blank2r.bmp	866	1	krank	866	0	0	0	0	0	0	0	0	0	0	0	0	0	0	0	0	0	0	0	0	0	0	0	0	0	0	0	0	0	0	0	0	0
040419	12:05:29	12:07:24	112325	5.0.10.0	4_exp_AMP_EVA_AWA_CON	192	Rpleas_acq	Oppo	Rpleas	Amasked	CS_A	1pleas	distractor1	EVAbeforeCON	acq_US_pleas_masked	acq1_masked	1	3	0	0	300	300	0	0	1207	46	0	0	0	0	0	1	blank2r.bmp	0	1	+	0	1	B1r.bmp	492	1	blank2r.bmp	786	1	CPLW	786	1	blank2r.bmp	866	6	anregung	866	1	FEHLER	2105	0	0	0	0	0	0	0	0	0	0	0	0	0	0	0	0	0	0	0	0	0	0	0	0	0	0	0	0	0	0
040419	12:05:29	12:07:26	114231	5.0.10.0	4_exp_AMP_EVA_AWA_CON	192	Rpleas_acq	Oppo	Rpleas	Amasked	CS_A	1pleas	distractor1	EVAbeforeCON	acq_new_unple_masked	acq1_masked	1	4	0	0	300	300	0	0	650	46	0	1	0	0	0	1	blank2r.bmp	0	1	+	0	3	B3r.bmp	492	1	blank2r.bmp	786	1	B1r.bmp	786	1	blank2r.bmp	866	5	verbissen	866	0	0	0	0	0	0	0	0	0	0	0	0	0	0	0	0	0	0	0	0	0	0	0	0	0	0	0	0	0	0	0	0	0
040419	12:05:29	12:07:28	116204	5.0.10.0	4_exp_AMP_EVA_AWA_CON	192	Rpleas_acq	Oppo	Rpleas	Amasked	CS_A	1pleas	distractor1	EVAbeforeCON	acq_new_pleas_masked	acq1_masked	1	5	0	0	300	300	0	0	482	50	0	1	0	0	0	1	blank2r.bmp	0	1	+	0	2	B2r.bmp	492	1	blank2r.bmp	786	5	C1r.bmp	786	1	blank2r.bmp	866	3	sonnig	866	0	0	0	0	0	0	0	0	0	0	0	0	0	0	0	0	0	0	0	0	0	0	0	0	0	0	0	0	0	0	0	0	0
040419	12:05:29	12:07:30	118163	5.0.10.0	4_exp_AMP_EVA_AWA_CON	192	Rpleas_acq	Oppo	Rpleas	Amasked	CS_A	1pleas	distractor1	EVAbeforeCON	acq_new_pleas_masked	acq1_masked	1	6	0	0	300	300	0	0	486	50	0	1	0	0	0	1	blank2r.bmp	0	1	+	0	6	C2r.bmp	492	1	blank2r.bmp	786	8	C4r.bmp	786	1	blank2r.bmp	866	6	kuss	866	0	0	0	0	0	0	0	0	0	0	0	0	0	0	0	0	0	0	0	0	0	0	0	0	0	0	0	0	0	0	0	0	0
040419	12:05:29	12:07:32	120229	5.0.10.0	4_exp_AMP_EVA_AWA_CON	192	Rpleas_acq	Oppo	Rpleas	Amasked	CS_A	1pleas	distractor1	EVAbeforeCON	acq_US_unple_masked	acq1_masked	1	7	0	0	300	300	0	0	572	46	0	1	0	0	0	1	blank2r.bmp	0	1	+	0	8	C4r.bmp	492	1	blank2r.bmp	786	1	DHJF	786	1	blank2r.bmp	866	4	geizig	866	0	0	0	0	0	0	0	0	0	0	0	0	0	0	0	0	0	0	0	0	0	0	0	0	0	0	0	0	0	0	0	0	0
040419	12:05:29	12:07:34	122081	5.0.10.0	4_exp_AMP_EVA_AWA_CON	192	Rpleas_acq	Oppo	Rpleas	Amasked	CS_A	1pleas	distractor1	EVAbeforeCON	acq_new_unple_masked	acq1_masked	1	8	0	0	300	300	0	0	374	46	0	1	0	0	0	1	blank2r.bmp	0	1	+	0	7	C3r.bmp	492	1	blank2r.bmp	786	3	B3r.bmp	786	1	blank2r.bmp	866	2	gemein	866	0	0	0	0	0	0	0	0	0	0	0	0	0	0	0	0	0	0	0	0	0	0	0	0	0	0	0	0	0	0	0	0	0
040419	12:05:29	12:07:36	124080	5.0.10.0	4_exp_AMP_EVA_AWA_CON	192	Rpleas_acq	Oppo	Rpleas	Amasked	CS_A	1pleas	distractor1	EVAbeforeCON	acq_US_pleas_masked	acq1_masked	1	9	0	0	300	300	0	0	319	46	0	0	0	0	0	1	blank2r.bmp	0	1	+	0	7	C3r.bmp	492	1	blank2r.bmp	786	1	CPLW	786	1	blank2r.bmp	866	1	kreativ	866	1	FEHLER	1226	0	0	0	0	0	0	0	0	0	0	0	0	0	0	0	0	0	0	0	0	0	0	0	0	0	0	0	0	0	0
040419	12:05:29	12:07:37	125826	5.0.10.0	4_exp_AMP_EVA_AWA_CON	192	Rpleas_acq	Oppo	Rpleas	Amasked	CS_A	1pleas	distractor1	EVAbeforeCON	acq_new_unple_masked	acq1_masked	1	10	0	0	300	300	0	0	466	46	0	1	0	0	0	1	blank2r.bmp	0	1	+	0	8	C4r.bmp	492	1	blank2r.bmp	786	7	C3r.bmp	786	1	blank2r.bmp	866	1	töten	866	0	0	0	0	0	0	0	0	0	0	0	0	0	0	0	0	0	0	0	0	0	0	0	0	0	0	0	0	0	0	0	0	0
040419	12:05:29	12:07:39	127772	5.0.10.0	4_exp_AMP_EVA_AWA_CON	192	Rpleas_acq	Oppo	Rpleas	Amasked	CS_A	1pleas	distractor1	EVAbeforeCON	acq_US_pleas_masked	acq1_masked	1	11	0	0	300	300	0	0	466	50	0	1	0	0	0	1	blank2r.bmp	0	1	+	0	2	B2r.bmp	492	1	blank2r.bmp	786	1	CPLW	786	1	blank2r.bmp	866	5	vertrauen	866	0	0	0	0	0	0	0	0	0	0	0	0	0	0	0	0	0	0	0	0	0	0	0	0	0	0	0	0	0	0	0	0	0
040419	12:05:29	12:07:41	129731	5.0.10.0	4_exp_AMP_EVA_AWA_CON	192	Rpleas_acq	Oppo	Rpleas	Amasked	CS_A	1pleas	distractor1	EVAbeforeCON	acq_US_unple_masked	acq1_masked	1	12	0	0	300	300	0	0	468	46	0	1	0	0	0	1	blank2r.bmp	0	1	+	0	4	B4r.bmp	492	1	blank2r.bmp	786	1	DHJF	786	1	blank2r.bmp	866	5	versagen	866	0	0	0	0	0	0	0	0	0	0	0	0	0	0	0	0	0	0	0	0	0	0	0	0	0	0	0	0	0	0	0	0	0
040419	12:05:29	12:07:43	131851	5.0.10.0	4_exp_AMP_EVA_AWA_CON	192	Rpleas_acq	Oppo	Rpleas	Amasked	CS_A	1pleas	distractor1	EVAbeforeCON	acq_US_unple_masked	acq1_masked	1	13	0	0	300	300	0	0	638	46	0	1	0	0	0	1	blank2r.bmp	0	1	+	0	6	C2r.bmp	492	1	blank2r.bmp	786	1	DHJF	786	1	blank2r.bmp	866	6	ausrottung	866	0	0	0	0	0	0	0	0	0	0	0	0	0	0	0	0	0	0	0	0	0	0	0	0	0	0	0	0	0	0	0	0	0
040419	12:05:29	12:07:45	133836	5.0.10.0	4_exp_AMP_EVA_AWA_CON	192	Rpleas_acq	Oppo	Rpleas	Amasked	CS_A	1pleas	distractor1	EVAbeforeCON	acq_new_unple_masked	acq1_masked	1	14	0	0	300	300	0	0	512	46	0	1	0	0	0	1	blank2r.bmp	0	1	+	0	5	C1r.bmp	492	1	blank2r.bmp	786	4	B4r.bmp	786	1	blank2r.bmp	866	6	krise	866	0	0	0	0	0	0	0	0	0	0	0	0	0	0	0	0	0	0	0	0	0	0	0	0	0	0	0	0	0	0	0	0	0
040419	12:05:29	12:07:47	135875	5.0.10.0	4_exp_AMP_EVA_AWA_CON	192	Rpleas_acq	Oppo	Rpleas	Amasked	CS_A	1pleas	distractor1	EVAbeforeCON	acq_US_pleas_masked	acq1_masked	1	15	0	0	300	300	0	0	552	50	0	1	0	0	0	1	blank2r.bmp	0	1	+	0	1	B1r.bmp	492	1	blank2r.bmp	786	1	CPLW	786	1	blank2r.bmp	866	3	engagiert	866	0	0	0	0	0	0	0	0	0	0	0	0	0	0	0	0	0	0	0	0	0	0	0	0	0	0	0	0	0	0	0	0	0
040419	12:05:29	12:07:49	137901	5.0.10.0	4_exp_AMP_EVA_AWA_CON	192	Rpleas_acq	Oppo	Rpleas	Amasked	CS_A	1pleas	distractor1	EVAbeforeCON	acq_new_pleas_masked	acq1_masked	1	16	0	0	300	300	0	0	538	50	0	1	0	0	0	1	blank2r.bmp	0	1	+	0	3	B3r.bmp	492	1	blank2r.bmp	786	2	B2r.bmp	786	1	blank2r.bmp	866	4	besonnen	866	0	0	0	0	0	0	0	0	0	0	0	0	0	0	0	0	0	0	0	0	0	0	0	0	0	0	0	0	0	0	0	0	0
040419	12:05:29	12:07:51	139900	5.0.10.0	4_exp_AMP_EVA_AWA_CON	192	Rpleas_acq	Oppo	Rpleas	Amasked	CS_A	1pleas	distractor1	EVAbeforeCON	acq_new_unple_masked	acq1_masked	1	17	0	0	300	300	0	0	523	46	0	1	0	0	0	1	blank2r.bmp	0	1	+	0	3	B3r.bmp	492	1	blank2r.bmp	786	2	B2r.bmp	786	1	blank2r.bmp	866	3	sterben	866	0	0	0	0	0	0	0	0	0	0	0	0	0	0	0	0	0	0	0	0	0	0	0	0	0	0	0	0	0	0	0	0	0
040419	12:05:29	12:07:54	142180	5.0.10.0	4_exp_AMP_EVA_AWA_CON	192	Rpleas_acq	Oppo	Rpleas	Amasked	CS_A	1pleas	distractor1	EVAbeforeCON	acq_US_unple_masked	acq1_masked	1	18	0	0	300	300	0	0	811	46	0	1	0	0	0	1	blank2r.bmp	0	1	+	0	1	B1r.bmp	492	1	blank2r.bmp	786	1	DHJF	786	1	blank2r.bmp	866	3	engstirnig	866	0	0	0	0	0	0	0	0	0	0	0	0	0	0	0	0	0	0	0	0	0	0	0	0	0	0	0	0	0	0	0	0	0
040419	12:05:29	12:07:56	144165	5.0.10.0	4_exp_AMP_EVA_AWA_CON	192	Rpleas_acq	Oppo	Rpleas	Amasked	CS_A	1pleas	distractor1	EVAbeforeCON	acq_new_unple_masked	acq1_masked	1	19	0	0	300	300	0	0	493	46	0	1	0	0	0	1	blank2r.bmp	0	1	+	0	5	C1r.bmp	492	1	blank2r.bmp	786	4	B4r.bmp	786	1	blank2r.bmp	866	4	bange	866	0	0	0	0	0	0	0	0	0	0	0	0	0	0	0	0	0	0	0	0	0	0	0	0	0	0	0	0	0	0	0	0	0
040419	12:05:29	12:07:58	146085	5.0.10.0	4_exp_AMP_EVA_AWA_CON	192	Rpleas_acq	Oppo	Rpleas	Amasked	CS_A	1pleas	distractor1	EVAbeforeCON	acq_US_unple_masked	acq1_masked	1	20	0	0	300	300	0	0	440	46	0	1	0	0	0	1	blank2r.bmp	0	1	+	0	2	B2r.bmp	492	1	blank2r.bmp	786	1	DHJF	786	1	blank2r.bmp	866	2	gierig	866	0	0	0	0	0	0	0	0	0	0	0	0	0	0	0	0	0	0	0	0	0	0	0	0	0	0	0	0	0	0	0	0	0
040419	12:05:29	12:08:00	148124	5.0.10.0	4_exp_AMP_EVA_AWA_CON	192	Rpleas_acq	Oppo	Rpleas	Amasked	CS_A	1pleas	distractor1	EVAbeforeCON	acq_new_pleas_masked	acq1_masked	1	21	0	0	300	300	0	0	553	50	0	1	0	0	0	1	blank2r.bmp	0	1	+	0	7	C3r.bmp	492	1	blank2r.bmp	786	6	C2r.bmp	786	1	blank2r.bmp	866	5	vergnügt	866	0	0	0	0	0	0	0	0	0	0	0	0	0	0	0	0	0	0	0	0	0	0	0	0	0	0	0	0	0	0	0	0	0
040419	12:05:29	12:08:02	150576	5.0.10.0	4_exp_AMP_EVA_AWA_CON	192	Rpleas_acq	Oppo	Rpleas	Amasked	CS_A	1pleas	distractor1	EVAbeforeCON	acq_US_pleas_masked	acq1_masked	1	22	0	0	300	300	0	0	746	46	0	0	0	0	0	1	blank2r.bmp	0	1	+	0	6	C2r.bmp	492	1	blank2r.bmp	786	1	CPLW	786	1	blank2r.bmp	866	4	gesittet	866	1	FEHLER	1652	0	0	0	0	0	0	0	0	0	0	0	0	0	0	0	0	0	0	0	0	0	0	0	0	0	0	0	0	0	0
040419	12:05:29	12:08:04	152309	5.0.10.0	4_exp_AMP_EVA_AWA_CON	192	Rpleas_acq	Oppo	Rpleas	Amasked	CS_A	1pleas	distractor1	EVAbeforeCON	acq_new_pleas_masked	acq1_masked	1	23	0	0	300	300	0	0	474	50	0	1	0	0	0	1	blank2r.bmp	0	1	+	0	8	C4r.bmp	492	1	blank2r.bmp	786	7	C3r.bmp	786	1	blank2r.bmp	866	2	genießen	866	0	0	0	0	0	0	0	0	0	0	0	0	0	0	0	0	0	0	0	0	0	0	0	0	0	0	0	0	0	0	0	0	0
040419	12:05:29	12:08:06	154534	5.0.10.0	4_exp_AMP_EVA_AWA_CON	192	Rpleas_acq	Oppo	Rpleas	Amasked	CS_A	1pleas	distractor1	EVAbeforeCON	acq_US_pleas_masked	acq1_masked	1	24	0	0	300	300	0	0	739	50	0	1	0	0	0	1	blank2r.bmp	0	1	+	0	4	B4r.bmp	492	1	blank2r.bmp	786	1	CPLW	786	1	blank2r.bmp	866	2	gütig	866	0	0	0	0	0	0	0	0	0	0	0	0	0	0	0	0	0	0	0	0	0	0	0	0	0	0	0	0	0	0	0	0	0
040419	12:05:29	12:08:08	156560	5.0.10.0	4_exp_AMP_EVA_AWA_CON	192	Rpleas_acq	Oppo	Rpleas	Amasked	CS_A	1pleas	distractor1	EVAbeforeCON	acq_US_pleas_masked	acq1_masked	1	25	0	0	300	300	0	0	544	50	0	1	0	0	0	1	blank2r.bmp	0	1	+	0	1	B1r.bmp	492	1	blank2r.bmp	786	1	CPLW	786	1	blank2r.bmp	866	4	gesittet	866	0	0	0	0	0	0	0	0	0	0	0	0	0	0	0	0	0	0	0	0	0	0	0	0	0	0	0	0	0	0	0	0	0
040419	12:05:29	12:08:10	158546	5.0.10.0	4_exp_AMP_EVA_AWA_CON	192	Rpleas_acq	Oppo	Rpleas	Amasked	CS_A	1pleas	distractor1	EVAbeforeCON	acq_US_unple_masked	acq1_masked	1	26	0	0	300	300	0	0	499	46	0	1	0	0	0	1	blank2r.bmp	0	1	+	0	5	C1r.bmp	492	1	blank2r.bmp	786	1	DHJF	786	1	blank2r.bmp	866	5	versagen	866	0	0	0	0	0	0	0	0	0	0	0	0	0	0	0	0	0	0	0	0	0	0	0	0	0	0	0	0	0	0	0	0	0
040419	12:05:29	12:08:12	160572	5.0.10.0	4_exp_AMP_EVA_AWA_CON	192	Rpleas_acq	Oppo	Rpleas	Amasked	CS_A	1pleas	distractor1	EVAbeforeCON	acq_US_pleas_masked	acq1_masked	1	27	0	0	300	300	0	0	539	50	0	1	0	0	0	1	blank2r.bmp	0	1	+	0	4	B4r.bmp	492	1	blank2r.bmp	786	1	CPLW	786	1	blank2r.bmp	866	3	engagiert	866	0	0	0	0	0	0	0	0	0	0	0	0	0	0	0	0	0	0	0	0	0	0	0	0	0	0	0	0	0	0	0	0	0
040419	12:05:29	12:08:14	162464	5.0.10.0	4_exp_AMP_EVA_AWA_CON	192	Rpleas_acq	Oppo	Rpleas	Amasked	CS_A	1pleas	distractor1	EVAbeforeCON	acq_new_pleas_masked	acq1_masked	1	28	0	0	300	300	0	0	403	50	0	1	0	0	0	1	blank2r.bmp	0	1	+	0	3	B3r.bmp	492	1	blank2r.bmp	786	8	C4r.bmp	786	1	blank2r.bmp	866	3	sonnig	866	0	0	0	0	0	0	0	0	0	0	0	0	0	0	0	0	0	0	0	0	0	0	0	0	0	0	0	0	0	0	0	0	0
040419	12:05:29	12:08:16	164450	5.0.10.0	4_exp_AMP_EVA_AWA_CON	192	Rpleas_acq	Oppo	Rpleas	Amasked	CS_A	1pleas	distractor1	EVAbeforeCON	acq_US_unple_masked	acq1_masked	1	29	0	0	300	300	0	0	502	46	0	1	0	0	0	1	blank2r.bmp	0	1	+	0	6	C2r.bmp	492	1	blank2r.bmp	786	1	DHJF	786	1	blank2r.bmp	866	1	krank	866	0	0	0	0	0	0	0	0	0	0	0	0	0	0	0	0	0	0	0	0	0	0	0	0	0	0	0	0	0	0	0	0	0
040419	12:05:29	12:08:18	166303	5.0.10.0	4_exp_AMP_EVA_AWA_CON	192	Rpleas_acq	Oppo	Rpleas	Amasked	CS_A	1pleas	distractor1	EVAbeforeCON	acq_new_pleas_masked	acq1_masked	1	30	0	0	300	300	0	0	379	50	0	1	0	0	0	1	blank2r.bmp	0	1	+	0	2	B2r.bmp	492	1	blank2r.bmp	786	5	C1r.bmp	786	1	blank2r.bmp	866	6	kuss	866	0	0	0	0	0	0	0	0	0	0	0	0	0	0	0	0	0	0	0	0	0	0	0	0	0	0	0	0	0	0	0	0	0
040419	12:05:29	12:08:20	168902	5.0.10.0	4_exp_AMP_EVA_AWA_CON	192	Rpleas_acq	Oppo	Rpleas	Amasked	CS_A	1pleas	distractor1	EVAbeforeCON	acq_new_unple_masked	acq1_masked	1	31	0	0	300	300	0	0	892	50	0	0	0	0	0	1	blank2r.bmp	0	1	+	0	7	C3r.bmp	492	1	blank2r.bmp	786	1	B1r.bmp	786	1	blank2r.bmp	866	4	bange	866	1	FEHLER	1799	0	0	0	0	0	0	0	0	0	0	0	0	0	0	0	0	0	0	0	0	0	0	0	0	0	0	0	0	0	0
040419	12:05:29	12:08:22	170661	5.0.10.0	4_exp_AMP_EVA_AWA_CON	192	Rpleas_acq	Oppo	Rpleas	Amasked	CS_A	1pleas	distractor1	EVAbeforeCON	acq_new_unple_masked	acq1_masked	1	32	0	0	300	300	0	0	500	46	0	1	0	0	0	1	blank2r.bmp	0	1	+	0	8	C4r.bmp	492	1	blank2r.bmp	786	3	B3r.bmp	786	1	blank2r.bmp	866	6	krise	866	0	0	0	0	0	0	0	0	0	0	0	0	0	0	0	0	0	0	0	0	0	0	0	0	0	0	0	0	0	0	0	0	0
040419	12:05:29	12:08:24	172753	5.0.10.0	4_exp_AMP_EVA_AWA_CON	192	Rpleas_acq	Oppo	Rpleas	Amasked	CS_A	1pleas	distractor1	EVAbeforeCON	acq_US_pleas_masked	acq1_masked	1	33	0	0	300	300	0	0	614	50	0	1	0	0	0	1	blank2r.bmp	0	1	+	0	1	B1r.bmp	492	1	blank2r.bmp	786	1	CPLW	786	1	blank2r.bmp	866	5	vertrauen	866	0	0	0	0	0	0	0	0	0	0	0	0	0	0	0	0	0	0	0	0	0	0	0	0	0	0	0	0	0	0	0	0	0
040419	12:05:29	12:08:27	175139	5.0.10.0	4_exp_AMP_EVA_AWA_CON	192	Rpleas_acq	Oppo	Rpleas	Amasked	CS_A	1pleas	distractor1	EVAbeforeCON	acq_new_pleas_masked	acq1_masked	1	34	0	0	300	300	0	0	916	50	0	1	0	0	0	1	blank2r.bmp	0	1	+	0	4	B4r.bmp	492	1	blank2r.bmp	786	8	C4r.bmp	786	1	blank2r.bmp	866	5	vergnügt	866	0	0	0	0	0	0	0	0	0	0	0	0	0	0	0	0	0	0	0	0	0	0	0	0	0	0	0	0	0	0	0	0	0
040419	12:05:29	12:08:29	177138	5.0.10.0	4_exp_AMP_EVA_AWA_CON	192	Rpleas_acq	Oppo	Rpleas	Amasked	CS_A	1pleas	distractor1	EVAbeforeCON	acq_new_unple_masked	acq1_masked	1	35	0	0	300	300	0	0	513	46	0	1	0	0	0	1	blank2r.bmp	0	1	+	0	3	B3r.bmp	492	1	blank2r.bmp	786	5	C1r.bmp	786	1	blank2r.bmp	866	3	sterben	866	0	0	0	0	0	0	0	0	0	0	0	0	0	0	0	0	0	0	0	0	0	0	0	0	0	0	0	0	0	0	0	0	0
040419	12:05:29	12:08:31	179297	5.0.10.0	4_exp_AMP_EVA_AWA_CON	192	Rpleas_acq	Oppo	Rpleas	Amasked	CS_A	1pleas	distractor1	EVAbeforeCON	acq_US_unple_masked	acq1_masked	1	36	0	0	300	300	0	0	674	46	0	1	0	0	0	1	blank2r.bmp	0	1	+	0	2	B2r.bmp	492	1	blank2r.bmp	786	1	DHJF	786	1	blank2r.bmp	866	3	engstirnig	866	0	0	0	0	0	0	0	0	0	0	0	0	0	0	0	0	0	0	0	0	0	0	0	0	0	0	0	0	0	0	0	0	0
040419	12:05:29	12:09:09	217721	5.0.10.0	4_exp_AMP_EVA_AWA_CON	192	Rpleas_acq	Oppo	Rpleas	Amasked	CS_A	1pleas	distractor1	EVAbeforeCON	acq_US_unple_masked	acq2_masked	2	1	480	0	300	300	0	0	1408	46	0	1	0	0	0	1	blank2r.bmp	0	1	+	0	5	C1r.bmp	492	1	blank2r.bmp	786	1	DHJF	786	1	blank2r.bmp	866	2	gierig	866	1	!	1319	1	!	-1	0	0	0	0	0	0	0	0	0	0	0	0	0	0	0	0	0	0	0	0	0	0	0	0	0	0	0
040419	12:05:29	12:09:12	220173	5.0.10.0	4_exp_AMP_EVA_AWA_CON	192	Rpleas_acq	Oppo	Rpleas	Amasked	CS_A	1pleas	distractor1	EVAbeforeCON	acq_new_pleas_masked	acq2_masked	2	2	480	0	300	300	0	0	677	50	0	1	0	0	0	1	blank2r.bmp	0	1	+	0	8	C4r.bmp	492	1	blank2r.bmp	786	4	B4r.bmp	786	1	blank2r.bmp	866	4	besonnen	866	1	!	1319	1	!	-1	0	0	0	0	0	0	0	0	0	0	0	0	0	0	0	0	0	0	0	0	0	0	0	0	0	0	0
040419	12:05:29	12:09:14	222572	5.0.10.0	4_exp_AMP_EVA_AWA_CON	192	Rpleas_acq	Oppo	Rpleas	Amasked	CS_A	1pleas	distractor1	EVAbeforeCON	acq_new_unple_masked	acq2_masked	2	3	480	0	300	300	0	0	623	46	0	1	0	0	0	1	blank2r.bmp	0	1	+	0	7	C3r.bmp	492	1	blank2r.bmp	786	3	B3r.bmp	786	1	blank2r.bmp	866	5	verbissen	866	1	!	1319	1	!	-1	0	0	0	0	0	0	0	0	0	0	0	0	0	0	0	0	0	0	0	0	0	0	0	0	0	0	0
040419	12:05:29	12:09:16	224891	5.0.10.0	4_exp_AMP_EVA_AWA_CON	192	Rpleas_acq	Oppo	Rpleas	Amasked	CS_A	1pleas	distractor1	EVAbeforeCON	acq_US_unple_masked	acq2_masked	2	4	480	1	300	300	0	0	506	46	0	1	0	0	0	1	blank2r.bmp	0	1	+	0	6	C2r.bmp	492	1	blank2r.bmp	786	1	DHJF	786	1	blank2r.bmp	866	6	ausrottung	866	1	!	1319	1	!	1412	0	0	0	0	0	0	0	0	0	0	0	0	0	0	0	0	0	0	0	0	0	0	0	0	0	0	0
040419	12:05:29	12:09:19	227370	5.0.10.0	4_exp_AMP_EVA_AWA_CON	192	Rpleas_acq	Oppo	Rpleas	Amasked	CS_A	1pleas	distractor1	EVAbeforeCON	acq_new_pleas_masked	acq2_masked	2	5	480	0	300	300	0	0	710	50	0	1	0	0	0	1	blank2r.bmp	0	1	+	0	3	B3r.bmp	492	1	blank2r.bmp	786	1	B1r.bmp	786	1	blank2r.bmp	866	2	genießen	866	1	!	1319	1	!	-1	0	0	0	0	0	0	0	0	0	0	0	0	0	0	0	0	0	0	0	0	0	0	0	0	0	0	0
040419	12:05:29	12:09:21	229649	5.0.10.0	4_exp_AMP_EVA_AWA_CON	192	Rpleas_acq	Oppo	Rpleas	Amasked	CS_A	1pleas	distractor1	EVAbeforeCON	acq_US_pleas_masked	acq2_masked	2	6	480	1	300	300	0	0	475	50	0	1	0	0	0	1	blank2r.bmp	0	1	+	0	8	C4r.bmp	492	1	blank2r.bmp	786	1	CPLW	786	1	blank2r.bmp	866	2	gütig	866	1	!	1319	1	!	1372	0	0	0	0	0	0	0	0	0	0	0	0	0	0	0	0	0	0	0	0	0	0	0	0	0	0	0
040419	12:05:29	12:09:23	231968	5.0.10.0	4_exp_AMP_EVA_AWA_CON	192	Rpleas_acq	Oppo	Rpleas	Amasked	CS_A	1pleas	distractor1	EVAbeforeCON	acq_US_pleas_masked	acq2_masked	2	7	480	1	300	300	0	0	525	50	0	1	0	0	0	1	blank2r.bmp	0	1	+	0	7	C3r.bmp	492	1	blank2r.bmp	786	1	CPLW	786	1	blank2r.bmp	866	1	kreativ	866	1	!	1319	1	!	1426	0	0	0	0	0	0	0	0	0	0	0	0	0	0	0	0	0	0	0	0	0	0	0	0	0	0	0
040419	12:05:29	12:09:26	234154	5.0.10.0	4_exp_AMP_EVA_AWA_CON	192	Rpleas_acq	Oppo	Rpleas	Amasked	CS_A	1pleas	distractor1	EVAbeforeCON	acq_new_unple_masked	acq2_masked	2	8	480	0	300	300	0	0	412	46	0	1	0	0	0	1	blank2r.bmp	0	1	+	0	2	B2r.bmp	492	1	blank2r.bmp	786	6	C2r.bmp	786	1	blank2r.bmp	866	1	töten	866	1	!	-1	1	!	-1	0	0	0	0	0	0	0	0	0	0	0	0	0	0	0	0	0	0	0	0	0	0	0	0	0	0	0
040419	12:05:29	12:09:28	236647	5.0.10.0	4_exp_AMP_EVA_AWA_CON	192	Rpleas_acq	Oppo	Rpleas	Amasked	CS_A	1pleas	distractor1	EVAbeforeCON	acq_new_unple_masked	acq2_masked	2	9	480	0	300	300	0	0	712	46	0	1	0	0	0	1	blank2r.bmp	0	1	+	0	1	B1r.bmp	492	1	blank2r.bmp	786	2	B2r.bmp	786	1	blank2r.bmp	866	2	gemein	866	1	!	1319	1	!	-1	0	0	0	0	0	0	0	0	0	0	0	0	0	0	0	0	0	0	0	0	0	0	0	0	0	0	0
040419	12:05:29	12:09:30	238979	5.0.10.0	4_exp_AMP_EVA_AWA_CON	192	Rpleas_acq	Oppo	Rpleas	Amasked	CS_A	1pleas	distractor1	EVAbeforeCON	acq_US_pleas_masked	acq2_masked	2	10	480	1	300	300	0	0	513	50	0	1	0	0	0	1	blank2r.bmp	0	1	+	0	5	C1r.bmp	492	1	blank2r.bmp	786	1	CPLW	786	1	blank2r.bmp	866	6	anregung	866	1	!	1319	1	!	1412	0	0	0	0	0	0	0	0	0	0	0	0	0	0	0	0	0	0	0	0	0	0	0	0	0	0	0
040419	12:05:29	12:09:33	241378	5.0.10.0	4_exp_AMP_EVA_AWA_CON	192	Rpleas_acq	Oppo	Rpleas	Amasked	CS_A	1pleas	distractor1	EVAbeforeCON	acq_new_pleas_masked	acq2_masked	2	11	480	0	300	300	0	0	625	50	0	1	0	0	0	1	blank2r.bmp	0	1	+	0	6	C2r.bmp	492	1	blank2r.bmp	786	7	C3r.bmp	786	1	blank2r.bmp	866	1	träumen	866	1	!	1319	1	!	-1	0	0	0	0	0	0	0	0	0	0	0	0	0	0	0	0	0	0	0	0	0	0	0	0	0	0	0
040419	12:05:29	12:09:35	243710	5.0.10.0	4_exp_AMP_EVA_AWA_CON	192	Rpleas_acq	Oppo	Rpleas	Amasked	CS_A	1pleas	distractor1	EVAbeforeCON	acq_US_unple_masked	acq2_masked	2	12	480	1	300	300	0	0	529	46	0	1	0	0	0	1	blank2r.bmp	0	1	+	0	4	B4r.bmp	492	1	blank2r.bmp	786	1	DHJF	786	1	blank2r.bmp	866	4	geizig	866	1	!	1319	1	!	1426	0	0	0	0	0	0	0	0	0	0	0	0	0	0	0	0	0	0	0	0	0	0	0	0	0	0	0
040419	12:05:29	12:09:38	246149	5.0.10.0	4_exp_AMP_EVA_AWA_CON	192	Rpleas_acq	Oppo	Rpleas	Amasked	CS_A	1pleas	distractor1	EVAbeforeCON	acq_new_pleas_masked	acq2_masked	2	13	480	0	300	300	0	0	655	50	0	1	0	0	0	1	blank2r.bmp	0	1	+	0	3	B3r.bmp	492	1	blank2r.bmp	786	1	B1r.bmp	786	1	blank2r.bmp	866	5	vergnügt	866	1	!	1319	1	!	-1	0	0	0	0	0	0	0	0	0	0	0	0	0	0	0	0	0	0	0	0	0	0	0	0	0	0	0
040419	12:05:29	12:09:40	248255	5.0.10.0	4_exp_AMP_EVA_AWA_CON	192	Rpleas_acq	Oppo	Rpleas	Amasked	CS_A	1pleas	distractor1	EVAbeforeCON	acq_new_unple_masked	acq2_masked	2	14	480	0	300	300	0	0	331	46	0	1	0	0	0	1	blank2r.bmp	0	1	+	0	5	C1r.bmp	492	1	blank2r.bmp	786	3	B3r.bmp	786	1	blank2r.bmp	866	3	sterben	866	1	!	-1	1	!	-1	0	0	0	0	0	0	0	0	0	0	0	0	0	0	0	0	0	0	0	0	0	0	0	0	0	0	0
040419	12:05:29	12:09:42	250734	5.0.10.0	4_exp_AMP_EVA_AWA_CON	192	Rpleas_acq	Oppo	Rpleas	Amasked	CS_A	1pleas	distractor1	EVAbeforeCON	acq_US_pleas_masked	acq2_masked	2	15	480	0	300	300	0	0	701	50	0	1	0	0	0	1	blank2r.bmp	0	1	+	0	4	B4r.bmp	492	1	blank2r.bmp	786	1	CPLW	786	1	blank2r.bmp	866	2	gütig	866	1	!	1319	1	!	-1	0	0	0	0	0	0	0	0	0	0	0	0	0	0	0	0	0	0	0	0	0	0	0	0	0	0	0
040419	12:05:29	12:09:44	252986	5.0.10.0	4_exp_AMP_EVA_AWA_CON	192	Rpleas_acq	Oppo	Rpleas	Amasked	CS_A	1pleas	distractor1	EVAbeforeCON	acq_new_unple_masked	acq2_masked	2	16	480	1	300	300	0	0	451	46	0	1	0	0	0	1	blank2r.bmp	0	1	+	0	8	C4r.bmp	492	1	blank2r.bmp	786	2	B2r.bmp	786	1	blank2r.bmp	866	4	bange	866	1	!	1319	1	!	1346	0	0	0	0	0	0	0	0	0	0	0	0	0	0	0	0	0	0	0	0	0	0	0	0	0	0	0
040419	12:05:29	12:09:47	255372	5.0.10.0	4_exp_AMP_EVA_AWA_CON	192	Rpleas_acq	Oppo	Rpleas	Amasked	CS_A	1pleas	distractor1	EVAbeforeCON	acq_new_pleas_masked	acq2_masked	2	17	480	0	300	300	0	0	624	50	0	1	0	0	0	1	blank2r.bmp	0	1	+	0	7	C3r.bmp	492	1	blank2r.bmp	786	5	C1r.bmp	786	1	blank2r.bmp	866	3	sonnig	866	1	!	1319	1	!	-1	0	0	0	0	0	0	0	0	0	0	0	0	0	0	0	0	0	0	0	0	0	0	0	0	0	0	0
040419	12:05:29	12:09:49	257451	5.0.10.0	4_exp_AMP_EVA_AWA_CON	192	Rpleas_acq	Oppo	Rpleas	Amasked	CS_A	1pleas	distractor1	EVAbeforeCON	acq_US_unple_masked	acq2_masked	2	18	480	0	300	300	0	0	295	46	0	1	0	0	0	1	blank2r.bmp	0	1	+	0	1	B1r.bmp	492	1	blank2r.bmp	786	1	DHJF	786	1	blank2r.bmp	866	4	geizig	866	1	!	-1	1	!	-1	0	0	0	0	0	0	0	0	0	0	0	0	0	0	0	0	0	0	0	0	0	0	0	0	0	0	0
040419	12:05:29	12:09:51	259823	5.0.10.0	4_exp_AMP_EVA_AWA_CON	192	Rpleas_acq	Oppo	Rpleas	Amasked	CS_A	1pleas	distractor1	EVAbeforeCON	acq_US_unple_masked	acq2_masked	2	19	480	0	300	300	0	0	596	46	0	1	0	0	0	1	blank2r.bmp	0	1	+	0	6	C2r.bmp	492	1	blank2r.bmp	786	1	DHJF	786	1	blank2r.bmp	866	1	krank	866	1	!	1319	1	!	-1	0	0	0	0	0	0	0	0	0	0	0	0	0	0	0	0	0	0	0	0	0	0	0	0	0	0	0
040419	12:05:29	12:09:54	262129	5.0.10.0	4_exp_AMP_EVA_AWA_CON	192	Rpleas_acq	Oppo	Rpleas	Amasked	CS_A	1pleas	distractor1	EVAbeforeCON	acq_US_pleas_masked	acq2_masked	2	20	480	0	300	300	0	0	301	46	0	0	0	0	0	1	blank2r.bmp	0	1	+	0	2	B2r.bmp	492	1	blank2r.bmp	786	1	CPLW	786	1	blank2r.bmp	866	6	anregung	866	1	FEHLER	1506	1	!	-1	1	!	-1	0	0	0	0	0	0	0	0	0	0	0	0	0	0	0	0	0	0	0	0	0	0	0	0
040419	12:05:29	12:09:56	264262	5.0.10.0	4_exp_AMP_EVA_AWA_CON	192	Rpleas_acq	Oppo	Rpleas	Amasked	CS_A	1pleas	distractor1	EVAbeforeCON	acq_new_unple_masked	acq2_masked	2	21	480	0	300	300	0	0	559	46	0	1	0	0	0	1	blank2r.bmp	0	1	+	0	2	B2r.bmp	492	1	blank2r.bmp	786	7	C3r.bmp	786	1	blank2r.bmp	866	6	krise	866	1	!	1319	1	!	-1	0	0	0	0	0	0	0	0	0	0	0	0	0	0	0	0	0	0	0	0	0	0	0	0	0	0	0
040419	12:05:29	12:10:07	276043	5.0.10.0	4_exp_AMP_EVA_AWA_CON	192	Rpleas_acq	Oppo	Rpleas	Amasked	CS_A	1pleas	distractor1	EVAbeforeCON	acq_US_pleas_masked	acq2_masked	2	22	480	0	300	300	0	0	10006	50	0	1	0	0	0	1	blank2r.bmp	0	1	+	0	1	B1r.bmp	492	1	blank2r.bmp	786	1	CPLW	786	1	blank2r.bmp	866	5	vertrauen	866	1	!	1319	1	!	-1	0	0	0	0	0	0	0	0	0	0	0	0	0	0	0	0	0	0	0	0	0	0	0	0	0	0	0
040419	12:05:29	12:10:10	278389	5.0.10.0	4_exp_AMP_EVA_AWA_CON	192	Rpleas_acq	Oppo	Rpleas	Amasked	CS_A	1pleas	distractor1	EVAbeforeCON	acq_new_pleas_masked	acq2_masked	2	23	480	0	300	300	0	0	566	50	0	1	0	0	0	1	blank2r.bmp	0	1	+	0	8	C4r.bmp	492	1	blank2r.bmp	786	4	B4r.bmp	786	1	blank2r.bmp	866	1	träumen	866	1	!	1319	1	!	-1	0	0	0	0	0	0	0	0	0	0	0	0	0	0	0	0	0	0	0	0	0	0	0	0	0	0	0
040419	12:05:29	12:10:12	280468	5.0.10.0	4_exp_AMP_EVA_AWA_CON	192	Rpleas_acq	Oppo	Rpleas	Amasked	CS_A	1pleas	distractor1	EVAbeforeCON	acq_US_unple_masked	acq2_masked	2	24	480	0	300	300	0	0	304	46	0	1	0	0	0	1	blank2r.bmp	0	1	+	0	7	C3r.bmp	492	1	blank2r.bmp	786	1	DHJF	786	1	blank2r.bmp	866	2	gierig	866	1	!	-1	1	!	-1	0	0	0	0	0	0	0	0	0	0	0	0	0	0	0	0	0	0	0	0	0	0	0	0	0	0	0
040419	12:05:29	12:10:14	282920	5.0.10.0	4_exp_AMP_EVA_AWA_CON	192	Rpleas_acq	Oppo	Rpleas	Amasked	CS_A	1pleas	distractor1	EVAbeforeCON	acq_new_unple_masked	acq2_masked	2	25	480	0	300	300	0	0	672	46	0	1	0	0	0	1	blank2r.bmp	0	1	+	0	4	B4r.bmp	492	1	blank2r.bmp	786	8	C4r.bmp	786	1	blank2r.bmp	866	5	verbissen	866	1	!	1319	1	!	-1	0	0	0	0	0	0	0	0	0	0	0	0	0	0	0	0	0	0	0	0	0	0	0	0	0	0	0
040419	12:05:29	12:10:17	285359	5.0.10.0	4_exp_AMP_EVA_AWA_CON	192	Rpleas_acq	Oppo	Rpleas	Amasked	CS_A	1pleas	distractor1	EVAbeforeCON	acq_US_pleas_masked	acq2_masked	2	26	480	0	300	300	0	0	652	50	0	1	0	0	0	1	blank2r.bmp	0	1	+	0	5	C1r.bmp	492	1	blank2r.bmp	786	1	CPLW	786	1	blank2r.bmp	866	4	gesittet	866	1	!	1319	1	!	-1	0	0	0	0	0	0	0	0	0	0	0	0	0	0	0	0	0	0	0	0	0	0	0	0	0	0	0
040419	12:05:29	12:10:19	287758	5.0.10.0	4_exp_AMP_EVA_AWA_CON	192	Rpleas_acq	Oppo	Rpleas	Amasked	CS_A	1pleas	distractor1	EVAbeforeCON	acq_US_pleas_masked	acq2_masked	2	27	480	0	300	300	0	0	396	46	0	0	0	0	0	1	blank2r.bmp	0	1	+	0	6	C2r.bmp	492	1	blank2r.bmp	786	1	CPLW	786	1	blank2r.bmp	866	3	engagiert	866	1	FEHLER	1599	1	!	-1	1	!	-1	0	0	0	0	0	0	0	0	0	0	0	0	0	0	0	0	0	0	0	0	0	0	0	0
040419	12:05:29	12:10:21	289891	5.0.10.0	4_exp_AMP_EVA_AWA_CON	192	Rpleas_acq	Oppo	Rpleas	Amasked	CS_A	1pleas	distractor1	EVAbeforeCON	acq_US_unple_masked	acq2_masked	2	28	480	1	300	300	0	0	536	46	0	1	0	0	0	1	blank2r.bmp	0	1	+	0	3	B3r.bmp	492	1	blank2r.bmp	786	1	DHJF	786	1	blank2r.bmp	866	6	ausrottung	866	1	!	1319	1	!	1439	0	0	0	0	0	0	0	0	0	0	0	0	0	0	0	0	0	0	0	0	0	0	0	0	0	0	0
040419	12:05:29	12:10:24	292303	5.0.10.0	4_exp_AMP_EVA_AWA_CON	192	Rpleas_acq	Oppo	Rpleas	Amasked	CS_A	1pleas	distractor1	EVAbeforeCON	acq_US_unple_masked	acq2_masked	2	29	480	0	300	300	0	0	647	46	0	1	0	0	0	1	blank2r.bmp	0	1	+	0	4	B4r.bmp	492	1	blank2r.bmp	786	1	DHJF	786	1	blank2r.bmp	866	3	engstirnig	866	1	!	1319	1	!	-1	0	0	0	0	0	0	0	0	0	0	0	0	0	0	0	0	0	0	0	0	0	0	0	0	0	0	0
040419	12:05:29	12:10:26	294609	5.0.10.0	4_exp_AMP_EVA_AWA_CON	192	Rpleas_acq	Oppo	Rpleas	Amasked	CS_A	1pleas	distractor1	EVAbeforeCON	acq_US_pleas_masked	acq2_masked	2	30	480	1	300	300	0	0	494	50	0	1	0	0	0	1	blank2r.bmp	0	1	+	0	5	C1r.bmp	492	1	blank2r.bmp	786	1	CPLW	786	1	blank2r.bmp	866	1	kreativ	866	1	!	1319	1	!	1399	0	0	0	0	0	0	0	0	0	0	0	0	0	0	0	0	0	0	0	0	0	0	0	0	0	0	0
040419	12:05:29	12:10:28	296715	5.0.10.0	4_exp_AMP_EVA_AWA_CON	192	Rpleas_acq	Oppo	Rpleas	Amasked	CS_A	1pleas	distractor1	EVAbeforeCON	acq_new_unple_masked	acq2_masked	2	31	480	0	300	300	0	0	344	46	0	1	0	0	0	1	blank2r.bmp	0	1	+	0	7	C3r.bmp	492	1	blank2r.bmp	786	6	C2r.bmp	786	1	blank2r.bmp	866	1	töten	866	1	!	-1	1	!	-1	0	0	0	0	0	0	0	0	0	0	0	0	0	0	0	0	0	0	0	0	0	0	0	0	0	0	0
040419	12:05:29	12:10:31	299074	5.0.10.0	4_exp_AMP_EVA_AWA_CON	192	Rpleas_acq	Oppo	Rpleas	Amasked	CS_A	1pleas	distractor1	EVAbeforeCON	acq_new_pleas_masked	acq2_masked	2	32	480	0	300	300	0	0	574	50	0	1	0	0	0	1	blank2r.bmp	0	1	+	0	3	B3r.bmp	492	1	blank2r.bmp	786	8	C4r.bmp	786	1	blank2r.bmp	866	6	kuss	866	1	!	1319	1	!	-1	0	0	0	0	0	0	0	0	0	0	0	0	0	0	0	0	0	0	0	0	0	0	0	0	0	0	0
040419	12:05:29	12:10:33	301433	5.0.10.0	4_exp_AMP_EVA_AWA_CON	192	Rpleas_acq	Oppo	Rpleas	Amasked	CS_A	1pleas	distractor1	EVAbeforeCON	acq_new_pleas_masked	acq2_masked	2	33	480	0	300	300	0	0	578	50	0	1	0	0	0	1	blank2r.bmp	0	1	+	0	1	B1r.bmp	492	1	blank2r.bmp	786	4	B4r.bmp	786	1	blank2r.bmp	866	2	genießen	866	1	!	1319	1	!	-1	0	0	0	0	0	0	0	0	0	0	0	0	0	0	0	0	0	0	0	0	0	0	0	0	0	0	0
040419	12:05:29	12:10:35	303738	5.0.10.0	4_exp_AMP_EVA_AWA_CON	192	Rpleas_acq	Oppo	Rpleas	Amasked	CS_A	1pleas	distractor1	EVAbeforeCON	acq_new_unple_masked	acq2_masked	2	34	480	1	300	300	0	0	481	46	0	1	0	0	0	1	blank2r.bmp	0	1	+	0	2	B2r.bmp	492	1	blank2r.bmp	786	5	C1r.bmp	786	1	blank2r.bmp	866	2	gemein	866	1	!	1319	1	!	1386	0	0	0	0	0	0	0	0	0	0	0	0	0	0	0	0	0	0	0	0	0	0	0	0	0	0	0
040419	12:05:29	12:10:38	306084	5.0.10.0	4_exp_AMP_EVA_AWA_CON	192	Rpleas_acq	Oppo	Rpleas	Amasked	CS_A	1pleas	distractor1	EVAbeforeCON	acq_US_unple_masked	acq2_masked	2	35	480	0	300	300	0	0	559	46	0	1	0	0	0	1	blank2r.bmp	0	1	+	0	6	C2r.bmp	492	1	blank2r.bmp	786	1	DHJF	786	1	blank2r.bmp	866	5	versagen	866	1	!	1319	1	!	-1	0	0	0	0	0	0	0	0	0	0	0	0	0	0	0	0	0	0	0	0	0	0	0	0	0	0	0
040419	12:05:29	12:10:40	308416	5.0.10.0	4_exp_AMP_EVA_AWA_CON	192	Rpleas_acq	Oppo	Rpleas	Amasked	CS_A	1pleas	distractor1	EVAbeforeCON	acq_new_pleas_masked	acq2_masked	2	36	480	1	300	300	0	0	527	50	0	1	0	0	0	1	blank2r.bmp	0	1	+	0	8	C4r.bmp	492	1	blank2r.bmp	786	3	B3r.bmp	786	1	blank2r.bmp	866	4	besonnen	866	1	!	1319	1	!	1426	0	0	0	0	0	0	0	0	0	0	0	0	0	0	0	0	0	0	0	0	0	0	0	0	0	0	0
040419	12:05:29	12:10:59	327715	5.0.10.0	4_exp_AMP_EVA_AWA_CON	192	Rpleas_acq	Oppo	Rpleas	Amasked	CS_A	1pleas	distractor1	EVAbeforeCON	acq_US_unple_masked	acq3_masked	3	1	453	1	300	300	0	0	413	46	0	1	0	0	0	1	blank2r.bmp	0	1	+	0	1	B1r.bmp	492	1	blank2r.bmp	786	1	DHJF	786	1	blank2r.bmp	866	3	engstirnig	866	1	!	1292	1	!	1319	0	0	0	0	0	0	0	0	0	0	0	0	0	0	0	0	0	0	0	0	0	0	0	0	0	0	0
040419	12:05:29	12:11:01	330007	5.0.10.0	4_exp_AMP_EVA_AWA_CON	192	Rpleas_acq	Oppo	Rpleas	Amasked	CS_A	1pleas	distractor1	EVAbeforeCON	acq_US_pleas_masked	acq3_masked	3	2	453	1	300	300	0	0	486	50	0	1	0	0	0	1	blank2r.bmp	0	1	+	0	3	B3r.bmp	492	1	blank2r.bmp	786	1	CPLW	786	1	blank2r.bmp	866	3	engagiert	866	1	!	1292	1	!	1386	0	0	0	0	0	0	0	0	0	0	0	0	0	0	0	0	0	0	0	0	0	0	0	0	0	0	0
040419	12:05:29	12:11:04	332286	5.0.10.0	4_exp_AMP_EVA_AWA_CON	192	Rpleas_acq	Oppo	Rpleas	Amasked	CS_A	1pleas	distractor1	EVAbeforeCON	acq_US_unple_masked	acq3_masked	3	3	453	1	300	300	0	0	468	46	0	1	0	0	0	1	blank2r.bmp	0	1	+	0	6	C2r.bmp	492	1	blank2r.bmp	786	1	DHJF	786	1	blank2r.bmp	866	2	gierig	866	1	!	1292	1	!	1372	0	0	0	0	0	0	0	0	0	0	0	0	0	0	0	0	0	0	0	0	0	0	0	0	0	0	0
040419	12:05:29	12:11:06	334552	5.0.10.0	4_exp_AMP_EVA_AWA_CON	192	Rpleas_acq	Oppo	Rpleas	Amasked	CS_A	1pleas	distractor1	EVAbeforeCON	acq_US_unple_masked	acq3_masked	3	4	453	1	300	300	0	0	454	46	0	1	0	0	0	1	blank2r.bmp	0	1	+	0	2	B2r.bmp	492	1	blank2r.bmp	786	1	DHJF	786	1	blank2r.bmp	866	6	ausrottung	866	1	!	1292	1	!	1359	0	0	0	0	0	0	0	0	0	0	0	0	0	0	0	0	0	0	0	0	0	0	0	0	0	0	0
040419	12:05:29	12:11:08	336858	5.0.10.0	4_exp_AMP_EVA_AWA_CON	192	Rpleas_acq	Oppo	Rpleas	Amasked	CS_A	1pleas	distractor1	EVAbeforeCON	acq_US_pleas_masked	acq3_masked	3	5	453	0	300	300	0	0	532	50	0	1	0	0	0	1	blank2r.bmp	0	1	+	0	8	C4r.bmp	492	1	blank2r.bmp	786	1	CPLW	786	1	blank2r.bmp	866	5	vertrauen	866	1	!	1292	1	!	-1	0	0	0	0	0	0	0	0	0	0	0	0	0	0	0	0	0	0	0	0	0	0	0	0	0	0	0
040419	12:05:29	12:11:11	339310	5.0.10.0	4_exp_AMP_EVA_AWA_CON	192	Rpleas_acq	Oppo	Rpleas	Amasked	CS_A	1pleas	distractor1	EVAbeforeCON	acq_US_pleas_masked	acq3_masked	3	6	453	1	300	300	0	0	414	46	0	0	0	0	0	1	blank2r.bmp	0	1	+	0	4	B4r.bmp	492	1	blank2r.bmp	786	1	CPLW	786	1	blank2r.bmp	866	4	gesittet	866	1	FEHLER	1639	1	!	1292	1	!	1319	0	0	0	0	0	0	0	0	0	0	0	0	0	0	0	0	0	0	0	0	0	0	0	0
040419	12:05:29	12:11:13	341216	5.0.10.0	4_exp_AMP_EVA_AWA_CON	192	Rpleas_acq	Oppo	Rpleas	Amasked	CS_A	1pleas	distractor1	EVAbeforeCON	acq_US_unple_masked	acq3_masked	3	7	453	0	300	300	0	0	346	46	0	1	0	0	0	1	blank2r.bmp	0	1	+	0	5	C1r.bmp	492	1	blank2r.bmp	786	1	DHJF	786	1	blank2r.bmp	866	4	geizig	866	1	!	-1	1	!	-1	0	0	0	0	0	0	0	0	0	0	0	0	0	0	0	0	0	0	0	0	0	0	0	0	0	0	0
040419	12:05:29	12:11:15	343588	5.0.10.0	4_exp_AMP_EVA_AWA_CON	192	Rpleas_acq	Oppo	Rpleas	Amasked	CS_A	1pleas	distractor1	EVAbeforeCON	acq_US_pleas_masked	acq3_masked	3	8	453	0	300	300	0	0	593	50	0	1	0	0	0	1	blank2r.bmp	0	1	+	0	7	C3r.bmp	492	1	blank2r.bmp	786	1	CPLW	786	1	blank2r.bmp	866	6	anregung	866	1	!	1292	1	!	-1	0	0	0	0	0	0	0	0	0	0	0	0	0	0	0	0	0	0	0	0	0	0	0	0	0	0	0
040419	12:05:29	12:11:17	345814	5.0.10.0	4_exp_AMP_EVA_AWA_CON	192	Rpleas_acq	Oppo	Rpleas	Amasked	CS_A	1pleas	distractor1	EVAbeforeCON	acq_US_pleas_masked	acq3_masked	3	9	453	1	300	300	0	0	414	50	0	1	0	0	0	1	blank2r.bmp	0	1	+	0	3	B3r.bmp	492	1	blank2r.bmp	786	1	CPLW	786	1	blank2r.bmp	866	1	kreativ	866	1	!	1292	1	!	1319	0	0	0	0	0	0	0	0	0	0	0	0	0	0	0	0	0	0	0	0	0	0	0	0	0	0	0
040419	12:05:29	12:11:20	348133	5.0.10.0	4_exp_AMP_EVA_AWA_CON	192	Rpleas_acq	Oppo	Rpleas	Amasked	CS_A	1pleas	distractor1	EVAbeforeCON	acq_US_pleas_masked	acq3_masked	3	10	453	0	300	300	0	0	323	46	0	0	0	0	0	1	blank2r.bmp	0	1	+	0	1	B1r.bmp	492	1	blank2r.bmp	786	1	CPLW	786	1	blank2r.bmp	866	2	gütig	866	1	FEHLER	1532	1	!	-1	1	!	-1	0	0	0	0	0	0	0	0	0	0	0	0	0	0	0	0	0	0	0	0	0	0	0	0
040419	12:05:29	12:11:22	350186	5.0.10.0	4_exp_AMP_EVA_AWA_CON	192	Rpleas_acq	Oppo	Rpleas	Amasked	CS_A	1pleas	distractor1	EVAbeforeCON	acq_US_unple_masked	acq3_masked	3	11	453	1	300	300	0	0	473	46	0	1	0	0	0	1	blank2r.bmp	0	1	+	0	8	C4r.bmp	492	1	blank2r.bmp	786	1	DHJF	786	1	blank2r.bmp	866	5	versagen	866	1	!	1292	1	!	1372	0	0	0	0	0	0	0	0	0	0	0	0	0	0	0	0	0	0	0	0	0	0	0	0	0	0	0
040419	12:05:29	12:11:24	352398	5.0.10.0	4_exp_AMP_EVA_AWA_CON	192	Rpleas_acq	Oppo	Rpleas	Amasked	CS_A	1pleas	distractor1	EVAbeforeCON	acq_US_unple_masked	acq3_masked	3	12	453	1	300	300	0	0	415	46	0	1	0	0	0	1	blank2r.bmp	0	1	+	0	2	B2r.bmp	492	1	blank2r.bmp	786	1	DHJF	786	1	blank2r.bmp	866	1	krank	866	1	!	1292	1	!	1319	0	0	0	0	0	0	0	0	0	0	0	0	0	0	0	0	0	0	0	0	0	0	0	0	0	0	0
040419	12:05:29	12:11:26	354597	5.0.10.0	4_exp_AMP_EVA_AWA_CON	192	Rpleas_acq	Oppo	Rpleas	Amasked	CS_A	1pleas	distractor1	EVAbeforeCON	acq_US_unple_masked	acq3_masked	3	13	453	1	300	300	0	0	399	46	0	1	0	0	0	1	blank2r.bmp	0	1	+	0	7	C3r.bmp	492	1	blank2r.bmp	786	1	DHJF	786	1	blank2r.bmp	866	5	versagen	866	1	!	1292	1	!	1306	0	0	0	0	0	0	0	0	0	0	0	0	0	0	0	0	0	0	0	0	0	0	0	0	0	0	0
040419	12:05:29	12:11:28	356703	5.0.10.0	4_exp_AMP_EVA_AWA_CON	192	Rpleas_acq	Oppo	Rpleas	Amasked	CS_A	1pleas	distractor1	EVAbeforeCON	acq_US_unple_masked	acq3_masked	3	14	453	0	300	300	0	0	341	46	0	1	0	0	0	1	blank2r.bmp	0	1	+	0	4	B4r.bmp	492	1	blank2r.bmp	786	1	DHJF	786	1	blank2r.bmp	866	6	ausrottung	866	1	!	-1	1	!	-1	0	0	0	0	0	0	0	0	0	0	0	0	0	0	0	0	0	0	0	0	0	0	0	0	0	0	0
040419	12:05:29	12:11:30	359048	5.0.10.0	4_exp_AMP_EVA_AWA_CON	192	Rpleas_acq	Oppo	Rpleas	Amasked	CS_A	1pleas	distractor1	EVAbeforeCON	acq_US_unple_masked	acq3_masked	3	15	453	0	300	300	0	0	341	50	0	0	0	0	0	1	blank2r.bmp	0	1	+	0	6	C2r.bmp	492	1	blank2r.bmp	786	1	DHJF	786	1	blank2r.bmp	866	2	gierig	866	1	FEHLER	1546	1	!	-1	1	!	-1	0	0	0	0	0	0	0	0	0	0	0	0	0	0	0	0	0	0	0	0	0	0	0	0
040419	12:05:29	12:11:33	361301	5.0.10.0	4_exp_AMP_EVA_AWA_CON	192	Rpleas_acq	Oppo	Rpleas	Amasked	CS_A	1pleas	distractor1	EVAbeforeCON	acq_US_pleas_masked	acq3_masked	3	16	453	1	300	300	0	0	444	46	0	0	0	0	0	1	blank2r.bmp	0	1	+	0	5	C1r.bmp	492	1	blank2r.bmp	786	1	CPLW	786	1	blank2r.bmp	866	5	vertrauen	866	1	FEHLER	1665	1	!	1292	1	!	1346	0	0	0	0	0	0	0	0	0	0	0	0	0	0	0	0	0	0	0	0	0	0	0	0
040419	12:05:29	12:12:05	393167	5.0.10.0	4_exp_AMP_EVA_AWA_CON	192	Rpleas_acq	Oppo	Rpleas	Amasked	CS_A	1pleas	distractor1	EVAbeforeCON	acq_US_pleas_masked	acq3_masked	3	17	453	0	300	300	0	0	30313	50	0	1	0	0	0	1	blank2r.bmp	0	1	+	0	2	B2r.bmp	492	1	blank2r.bmp	786	1	CPLW	786	1	blank2r.bmp	866	6	anregung	866	1	!	1292	1	!	-1	0	0	0	0	0	0	0	0	0	0	0	0	0	0	0	0	0	0	0	0	0	0	0	0	0	0	0
040419	12:05:29	12:12:07	395447	5.0.10.0	4_exp_AMP_EVA_AWA_CON	192	Rpleas_acq	Oppo	Rpleas	Amasked	CS_A	1pleas	distractor1	EVAbeforeCON	acq_US_unple_masked	acq3_masked	3	18	453	1	300	300	0	0	467	46	0	1	0	0	0	1	blank2r.bmp	0	1	+	0	6	C2r.bmp	492	1	blank2r.bmp	786	1	DHJF	786	1	blank2r.bmp	866	4	geizig	866	1	!	1292	1	!	1372	0	0	0	0	0	0	0	0	0	0	0	0	0	0	0	0	0	0	0	0	0	0	0	0	0	0	0
040419	12:05:29	12:12:09	397592	5.0.10.0	4_exp_AMP_EVA_AWA_CON	192	Rpleas_acq	Oppo	Rpleas	Amasked	CS_A	1pleas	distractor1	EVAbeforeCON	acq_US_pleas_masked	acq3_masked	3	19	453	0	300	300	0	0	374	50	0	1	0	0	0	1	blank2r.bmp	0	1	+	0	4	B4r.bmp	492	1	blank2r.bmp	786	1	CPLW	786	1	blank2r.bmp	866	3	engagiert	866	1	!	-1	1	!	-1	0	0	0	0	0	0	0	0	0	0	0	0	0	0	0	0	0	0	0	0	0	0	0	0	0	0	0
040419	12:05:29	12:12:11	399751	5.0.10.0	4_exp_AMP_EVA_AWA_CON	192	Rpleas_acq	Oppo	Rpleas	Amasked	CS_A	1pleas	distractor1	EVAbeforeCON	acq_US_unple_masked	acq3_masked	3	20	453	0	300	300	0	0	384	46	0	1	0	0	0	1	blank2r.bmp	0	1	+	0	1	B1r.bmp	492	1	blank2r.bmp	786	1	DHJF	786	1	blank2r.bmp	866	1	krank	866	1	!	-1	1	!	-1	0	0	0	0	0	0	0	0	0	0	0	0	0	0	0	0	0	0	0	0	0	0	0	0	0	0	0
040419	12:05:29	12:12:13	401977	5.0.10.0	4_exp_AMP_EVA_AWA_CON	192	Rpleas_acq	Oppo	Rpleas	Amasked	CS_A	1pleas	distractor1	EVAbeforeCON	acq_US_pleas_masked	acq3_masked	3	21	453	1	300	300	0	0	415	50	0	1	0	0	0	1	blank2r.bmp	0	1	+	0	7	C3r.bmp	492	1	blank2r.bmp	786	1	CPLW	786	1	blank2r.bmp	866	1	kreativ	866	1	!	1292	1	!	1319	0	0	0	0	0	0	0	0	0	0	0	0	0	0	0	0	0	0	0	0	0	0	0	0	0	0	0
040419	12:05:29	12:12:16	404283	5.0.10.0	4_exp_AMP_EVA_AWA_CON	192	Rpleas_acq	Oppo	Rpleas	Amasked	CS_A	1pleas	distractor1	EVAbeforeCON	acq_US_unple_masked	acq3_masked	3	22	453	0	300	300	0	0	532	46	0	1	0	0	0	1	blank2r.bmp	0	1	+	0	8	C4r.bmp	492	1	blank2r.bmp	786	1	DHJF	786	1	blank2r.bmp	866	3	engstirnig	866	1	!	1292	1	!	-1	0	0	0	0	0	0	0	0	0	0	0	0	0	0	0	0	0	0	0	0	0	0	0	0	0	0	0
040419	12:05:29	12:12:18	406522	5.0.10.0	4_exp_AMP_EVA_AWA_CON	192	Rpleas_acq	Oppo	Rpleas	Amasked	CS_A	1pleas	distractor1	EVAbeforeCON	acq_US_pleas_masked	acq3_masked	3	23	453	1	300	300	0	0	413	50	0	1	0	0	0	1	blank2r.bmp	0	1	+	0	3	B3r.bmp	492	1	blank2r.bmp	786	1	CPLW	786	1	blank2r.bmp	866	4	gesittet	866	1	!	1292	1	!	1319	0	0	0	0	0	0	0	0	0	0	0	0	0	0	0	0	0	0	0	0	0	0	0	0	0	0	0
040419	12:05:29	12:12:20	408774	5.0.10.0	4_exp_AMP_EVA_AWA_CON	192	Rpleas_acq	Oppo	Rpleas	Amasked	CS_A	1pleas	distractor1	EVAbeforeCON	acq_US_pleas_masked	acq3_masked	3	24	453	0	300	300	0	0	253	46	0	0	0	0	0	1	blank2r.bmp	0	1	+	0	5	C1r.bmp	492	1	blank2r.bmp	786	1	CPLW	786	1	blank2r.bmp	866	2	gütig	866	1	FEHLER	1466	1	!	-1	1	!	-1	0	0	0	0	0	0	0	0	0	0	0	0	0	0	0	0	0	0	0	0	0	0	0	0
040419	12:05:29	12:12:22	410867	5.0.10.0	4_exp_AMP_EVA_AWA_CON	192	Rpleas_acq	Oppo	Rpleas	Amasked	CS_A	1pleas	distractor1	EVAbeforeCON	acq_US_unple_masked	acq3_masked	3	25	453	1	300	300	0	0	512	46	0	1	0	0	0	1	blank2r.bmp	0	1	+	0	6	C2r.bmp	492	1	blank2r.bmp	786	1	DHJF	786	1	blank2r.bmp	866	6	ausrottung	866	1	!	1292	1	!	1412	0	0	0	0	0	0	0	0	0	0	0	0	0	0	0	0	0	0	0	0	0	0	0	0	0	0	0
040419	12:05:29	12:12:25	413066	5.0.10.0	4_exp_AMP_EVA_AWA_CON	192	Rpleas_acq	Oppo	Rpleas	Amasked	CS_A	1pleas	distractor1	EVAbeforeCON	acq_US_pleas_masked	acq3_masked	3	26	453	1	300	300	0	0	399	50	0	1	0	0	0	1	blank2r.bmp	0	1	+	0	4	B4r.bmp	492	1	blank2r.bmp	786	1	CPLW	786	1	blank2r.bmp	866	1	kreativ	866	1	!	1292	1	!	1306	0	0	0	0	0	0	0	0	0	0	0	0	0	0	0	0	0	0	0	0	0	0	0	0	0	0	0
040419	12:05:29	12:12:27	415198	5.0.10.0	4_exp_AMP_EVA_AWA_CON	192	Rpleas_acq	Oppo	Rpleas	Amasked	CS_A	1pleas	distractor1	EVAbeforeCON	acq_US_unple_masked	acq3_masked	3	27	453	0	300	300	0	0	369	46	0	1	0	0	0	1	blank2r.bmp	0	1	+	0	7	C3r.bmp	492	1	blank2r.bmp	786	1	DHJF	786	1	blank2r.bmp	866	4	geizig	866	1	!	-1	1	!	-1	0	0	0	0	0	0	0	0	0	0	0	0	0	0	0	0	0	0	0	0	0	0	0	0	0	0	0
040419	12:05:29	12:12:29	417424	5.0.10.0	4_exp_AMP_EVA_AWA_CON	192	Rpleas_acq	Oppo	Rpleas	Amasked	CS_A	1pleas	distractor1	EVAbeforeCON	acq_US_unple_masked	acq3_masked	3	28	453	1	300	300	0	0	423	46	0	1	0	0	0	1	blank2r.bmp	0	1	+	0	8	C4r.bmp	492	1	blank2r.bmp	786	1	DHJF	786	1	blank2r.bmp	866	5	versagen	866	1	!	1292	1	!	1319	0	0	0	0	0	0	0	0	0	0	0	0	0	0	0	0	0	0	0	0	0	0	0	0	0	0	0
040419	12:05:29	12:12:31	419450	5.0.10.0	4_exp_AMP_EVA_AWA_CON	192	Rpleas_acq	Oppo	Rpleas	Amasked	CS_A	1pleas	distractor1	EVAbeforeCON	acq_US_unple_masked	acq3_masked	3	29	453	0	300	300	0	0	258	46	0	1	0	0	0	1	blank2r.bmp	0	1	+	0	2	B2r.bmp	492	1	blank2r.bmp	786	1	DHJF	786	1	blank2r.bmp	866	1	krank	866	1	!	-1	1	!	-1	0	0	0	0	0	0	0	0	0	0	0	0	0	0	0	0	0	0	0	0	0	0	0	0	0	0	0
040419	12:05:29	12:12:33	421835	5.0.10.0	4_exp_AMP_EVA_AWA_CON	192	Rpleas_acq	Oppo	Rpleas	Amasked	CS_A	1pleas	distractor1	EVAbeforeCON	acq_US_pleas_masked	acq3_masked	3	30	453	0	300	300	0	0	386	46	0	0	0	0	0	1	blank2r.bmp	0	1	+	0	5	C1r.bmp	492	1	blank2r.bmp	786	1	CPLW	786	1	blank2r.bmp	866	3	engagiert	866	1	FEHLER	1599	1	!	-1	1	!	-1	0	0	0	0	0	0	0	0	0	0	0	0	0	0	0	0	0	0	0	0	0	0	0	0
040419	12:05:29	12:12:35	423888	5.0.10.0	4_exp_AMP_EVA_AWA_CON	192	Rpleas_acq	Oppo	Rpleas	Amasked	CS_A	1pleas	distractor1	EVAbeforeCON	acq_US_pleas_masked	acq3_masked	3	31	453	1	300	300	0	0	461	50	0	1	0	0	0	1	blank2r.bmp	0	1	+	0	3	B3r.bmp	492	1	blank2r.bmp	786	1	CPLW	786	1	blank2r.bmp	866	2	gütig	866	1	!	1292	1	!	1359	0	0	0	0	0	0	0	0	0	0	0	0	0	0	0	0	0	0	0	0	0	0	0	0	0	0	0
040419	12:05:29	12:12:38	426194	5.0.10.0	4_exp_AMP_EVA_AWA_CON	192	Rpleas_acq	Oppo	Rpleas	Amasked	CS_A	1pleas	distractor1	EVAbeforeCON	acq_US_unple_masked	acq3_masked	3	32	453	1	300	300	0	0	498	46	0	1	0	0	0	1	blank2r.bmp	0	1	+	0	1	B1r.bmp	492	1	blank2r.bmp	786	1	DHJF	786	1	blank2r.bmp	866	3	engstirnig	866	1	!	1292	1	!	1399	0	0	0	0	0	0	0	0	0	0	0	0	0	0	0	0	0	0	0	0	0	0	0	0	0	0	0
040419	12:05:29	12:12:40	428326	5.0.10.0	4_exp_AMP_EVA_AWA_CON	192	Rpleas_acq	Oppo	Rpleas	Amasked	CS_A	1pleas	distractor1	EVAbeforeCON	acq_US_pleas_masked	acq3_masked	3	33	453	0	300	300	0	0	364	50	0	1	0	0	0	1	blank2r.bmp	0	1	+	0	2	B2r.bmp	492	1	blank2r.bmp	786	1	CPLW	786	1	blank2r.bmp	866	4	gesittet	866	1	!	-1	1	!	-1	0	0	0	0	0	0	0	0	0	0	0	0	0	0	0	0	0	0	0	0	0	0	0	0	0	0	0
040419	12:05:29	12:12:42	430618	5.0.10.0	4_exp_AMP_EVA_AWA_CON	192	Rpleas_acq	Oppo	Rpleas	Amasked	CS_A	1pleas	distractor1	EVAbeforeCON	acq_US_pleas_masked	acq3_masked	3	34	453	1	300	300	0	0	487	50	0	1	0	0	0	1	blank2r.bmp	0	1	+	0	7	C3r.bmp	492	1	blank2r.bmp	786	1	CPLW	786	1	blank2r.bmp	866	6	anregung	866	1	!	1292	1	!	1386	0	0	0	0	0	0	0	0	0	0	0	0	0	0	0	0	0	0	0	0	0	0	0	0	0	0	0
040419	12:05:29	12:12:44	432738	5.0.10.0	4_exp_AMP_EVA_AWA_CON	192	Rpleas_acq	Oppo	Rpleas	Amasked	CS_A	1pleas	distractor1	EVAbeforeCON	acq_US_pleas_masked	acq3_masked	3	35	453	0	300	300	0	0	349	50	0	1	0	0	0	1	blank2r.bmp	0	1	+	0	8	C4r.bmp	492	1	blank2r.bmp	786	1	CPLW	786	1	blank2r.bmp	866	5	vertrauen	866	1	!	-1	1	!	-1	0	0	0	0	0	0	0	0	0	0	0	0	0	0	0	0	0	0	0	0	0	0	0	0	0	0	0
040419	12:05:29	12:12:47	435296	5.0.10.0	4_exp_AMP_EVA_AWA_CON	192	Rpleas_acq	Oppo	Rpleas	Amasked	CS_A	1pleas	distractor1	EVAbeforeCON	acq_US_unple_masked	acq3_masked	3	36	453	0	300	300	0	0	554	50	0	0	0	0	0	1	blank2r.bmp	0	1	+	0	5	C1r.bmp	492	1	blank2r.bmp	786	1	DHJF	786	1	blank2r.bmp	866	2	gierig	866	1	FEHLER	1759	1	!	1292	1	!	-1	0	0	0	0	0	0	0	0	0	0	0	0	0	0	0	0	0	0	0	0	0	0	0	0
040419	12:05:29	12:13:03	451063	5.0.10.0	4_exp_AMP_EVA_AWA_CON	192	Rpleas_acq	Oppo	Rpleas	Amasked	CS_A	1pleas	distractor1	EVAbeforeCON	acq_US_pleas_masked	acq45_masked	4	1	400	1	300	300	0	0	351	50	0	1	0	0	0	1	blank2r.bmp	0	1	+	0	3	B3r.bmp	492	1	blank2r.bmp	786	1	CPLW	786	1	blank2r.bmp	866	1	kreativ	866	1	!	1239	1	!	1252	0	0	0	0	0	0	0	0	0	0	0	0	0	0	0	0	0	0	0	0	0	0	0	0	0	0	0
040419	12:05:29	12:13:05	453329	5.0.10.0	4_exp_AMP_EVA_AWA_CON	192	Rpleas_acq	Oppo	Rpleas	Amasked	CS_A	1pleas	distractor1	EVAbeforeCON	acq_US_unple_masked	acq45_masked	4	2	400	0	300	300	0	0	487	50	0	0	0	0	0	1	blank2r.bmp	0	1	+	0	1	B1r.bmp	492	1	blank2r.bmp	786	1	DHJF	786	1	blank2r.bmp	866	3	engstirnig	866	1	!	1239	1	!	-1	0	0	0	0	0	0	0	0	0	0	0	0	0	0	0	0	0	0	0	0	0	0	0	0	0	0	0
040419	12:05:29	12:13:07	455541	5.0.10.0	4_exp_AMP_EVA_AWA_CON	192	Rpleas_acq	Oppo	Rpleas	Amasked	CS_A	1pleas	distractor1	EVAbeforeCON	acq_US_pleas_masked	acq45_masked	4	3	400	1	300	300	0	0	392	50	0	1	0	0	0	1	blank2r.bmp	0	1	+	0	4	B4r.bmp	492	1	blank2r.bmp	786	1	CPLW	786	1	blank2r.bmp	866	4	gesittet	866	1	!	1239	1	!	1292	0	0	0	0	0	0	0	0	0	0	0	0	0	0	0	0	0	0	0	0	0	0	0	0	0	0	0
040419	12:05:29	12:13:09	457647	5.0.10.0	4_exp_AMP_EVA_AWA_CON	192	Rpleas_acq	Oppo	Rpleas	Amasked	CS_A	1pleas	distractor1	EVAbeforeCON	acq_US_unple_masked	acq45_masked	4	4	400	0	300	300	0	0	324	46	0	1	0	0	0	1	blank2r.bmp	0	1	+	0	6	C2r.bmp	492	1	blank2r.bmp	786	1	DHJF	786	1	blank2r.bmp	866	4	geizig	866	1	!	-1	1	!	-1	0	0	0	0	0	0	0	0	0	0	0	0	0	0	0	0	0	0	0	0	0	0	0	0	0	0	0
040419	12:05:29	12:13:11	459886	5.0.10.0	4_exp_AMP_EVA_AWA_CON	192	Rpleas_acq	Oppo	Rpleas	Amasked	CS_A	1pleas	distractor1	EVAbeforeCON	acq_US_unple_masked	acq45_masked	4	5	400	1	300	300	0	0	427	46	0	1	0	0	0	1	blank2r.bmp	0	1	+	0	5	C1r.bmp	492	1	blank2r.bmp	786	1	DHJF	786	1	blank2r.bmp	866	1	krank	866	1	!	1239	1	!	1332	0	0	0	0	0	0	0	0	0	0	0	0	0	0	0	0	0	0	0	0	0	0	0	0	0	0	0
040419	12:05:29	12:13:14	462099	5.0.10.0	4_exp_AMP_EVA_AWA_CON	192	Rpleas_acq	Oppo	Rpleas	Amasked	CS_A	1pleas	distractor1	EVAbeforeCON	acq_US_pleas_masked	acq45_masked	4	6	400	1	300	300	0	0	418	50	0	1	0	0	0	1	blank2r.bmp	0	1	+	0	8	C4r.bmp	492	1	blank2r.bmp	786	1	CPLW	786	1	blank2r.bmp	866	3	engagiert	866	1	!	1239	1	!	1319	0	0	0	0	0	0	0	0	0	0	0	0	0	0	0	0	0	0	0	0	0	0	0	0	0	0	0
040419	12:05:29	12:13:16	464258	5.0.10.0	4_exp_AMP_EVA_AWA_CON	192	Rpleas_acq	Oppo	Rpleas	Amasked	CS_A	1pleas	distractor1	EVAbeforeCON	acq_US_unple_masked	acq45_masked	4	7	400	1	300	300	0	0	366	46	0	1	0	0	0	1	blank2r.bmp	0	1	+	0	1	B1r.bmp	492	1	blank2r.bmp	786	1	DHJF	786	1	blank2r.bmp	866	5	versagen	866	1	!	1239	1	!	1266	0	0	0	0	0	0	0	0	0	0	0	0	0	0	0	0	0	0	0	0	0	0	0	0	0	0	0
040419	12:05:29	12:13:18	466470	5.0.10.0	4_exp_AMP_EVA_AWA_CON	192	Rpleas_acq	Oppo	Rpleas	Amasked	CS_A	1pleas	distractor1	EVAbeforeCON	acq_US_unple_masked	acq45_masked	4	8	400	1	300	300	0	0	423	46	0	1	0	0	0	1	blank2r.bmp	0	1	+	0	3	B3r.bmp	492	1	blank2r.bmp	786	1	DHJF	786	1	blank2r.bmp	866	2	gierig	866	1	!	1239	1	!	1319	0	0	0	0	0	0	0	0	0	0	0	0	0	0	0	0	0	0	0	0	0	0	0	0	0	0	0
040419	12:05:29	12:13:20	468656	5.0.10.0	4_exp_AMP_EVA_AWA_CON	192	Rpleas_acq	Oppo	Rpleas	Amasked	CS_A	1pleas	distractor1	EVAbeforeCON	acq_US_pleas_masked	acq45_masked	4	9	400	1	300	300	0	0	392	50	0	1	0	0	0	1	blank2r.bmp	0	1	+	0	7	C3r.bmp	492	1	blank2r.bmp	786	1	CPLW	786	1	blank2r.bmp	866	6	anregung	866	1	!	1239	1	!	1292	0	0	0	0	0	0	0	0	0	0	0	0	0	0	0	0	0	0	0	0	0	0	0	0	0	0	0
040419	12:05:29	12:13:22	470855	5.0.10.0	4_exp_AMP_EVA_AWA_CON	192	Rpleas_acq	Oppo	Rpleas	Amasked	CS_A	1pleas	distractor1	EVAbeforeCON	acq_US_pleas_masked	acq45_masked	4	10	400	1	300	300	0	0	405	50	0	1	0	0	0	1	blank2r.bmp	0	1	+	0	6	C2r.bmp	492	1	blank2r.bmp	786	1	CPLW	786	1	blank2r.bmp	866	5	vertrauen	866	1	!	1239	1	!	1306	0	0	0	0	0	0	0	0	0	0	0	0	0	0	0	0	0	0	0	0	0	0	0	0	0	0	0
040419	12:05:29	12:13:24	472907	5.0.10.0	4_exp_AMP_EVA_AWA_CON	192	Rpleas_acq	Oppo	Rpleas	Amasked	CS_A	1pleas	distractor1	EVAbeforeCON	acq_US_pleas_masked	acq45_masked	4	11	400	0	300	300	0	0	290	50	0	1	0	0	0	1	blank2r.bmp	0	1	+	0	4	B4r.bmp	492	1	blank2r.bmp	786	1	CPLW	786	1	blank2r.bmp	866	2	gütig	866	1	!	-1	1	!	-1	0	0	0	0	0	0	0	0	0	0	0	0	0	0	0	0	0	0	0	0	0	0	0	0	0	0	0
040419	12:05:29	12:13:27	475160	5.0.10.0	4_exp_AMP_EVA_AWA_CON	192	Rpleas_acq	Oppo	Rpleas	Amasked	CS_A	1pleas	distractor1	EVAbeforeCON	acq_US_pleas_masked	acq45_masked	4	12	400	1	300	300	0	0	441	50	0	1	0	0	0	1	blank2r.bmp	0	1	+	0	2	B2r.bmp	492	1	blank2r.bmp	786	1	CPLW	786	1	blank2r.bmp	866	4	gesittet	866	1	!	1239	1	!	1346	0	0	0	0	0	0	0	0	0	0	0	0	0	0	0	0	0	0	0	0	0	0	0	0	0	0	0
040419	12:05:29	12:13:29	477385	5.0.10.0	4_exp_AMP_EVA_AWA_CON	192	Rpleas_acq	Oppo	Rpleas	Amasked	CS_A	1pleas	distractor1	EVAbeforeCON	acq_US_unple_masked	acq45_masked	4	13	400	1	300	300	0	0	427	46	0	1	0	0	0	1	blank2r.bmp	0	1	+	0	6	C2r.bmp	492	1	blank2r.bmp	786	1	DHJF	786	1	blank2r.bmp	866	6	ausrottung	866	1	!	1239	1	!	1332	0	0	0	0	0	0	0	0	0	0	0	0	0	0	0	0	0	0	0	0	0	0	0	0	0	0	0
040419	12:05:29	12:13:31	479705	5.0.10.0	4_exp_AMP_EVA_AWA_CON	192	Rpleas_acq	Oppo	Rpleas	Amasked	CS_A	1pleas	distractor1	EVAbeforeCON	acq_US_unple_masked	acq45_masked	4	14	400	0	300	300	0	0	547	46	0	1	0	0	0	1	blank2r.bmp	0	1	+	0	4	B4r.bmp	492	1	blank2r.bmp	786	1	DHJF	786	1	blank2r.bmp	866	2	gierig	866	1	!	1239	1	!	-1	0	0	0	0	0	0	0	0	0	0	0	0	0	0	0	0	0	0	0	0	0	0	0	0	0	0	0
040419	12:05:29	12:13:33	481877	5.0.10.0	4_exp_AMP_EVA_AWA_CON	192	Rpleas_acq	Oppo	Rpleas	Amasked	CS_A	1pleas	distractor1	EVAbeforeCON	acq_US_unple_masked	acq45_masked	4	15	400	1	300	300	0	0	365	46	0	1	0	0	0	1	blank2r.bmp	0	1	+	0	5	C1r.bmp	492	1	blank2r.bmp	786	1	DHJF	786	1	blank2r.bmp	866	4	geizig	866	1	!	1239	1	!	1266	0	0	0	0	0	0	0	0	0	0	0	0	0	0	0	0	0	0	0	0	0	0	0	0	0	0	0
040419	12:05:29	12:13:35	484049	5.0.10.0	4_exp_AMP_EVA_AWA_CON	192	Rpleas_acq	Oppo	Rpleas	Amasked	CS_A	1pleas	distractor1	EVAbeforeCON	acq_US_pleas_masked	acq45_masked	4	16	400	1	300	300	0	0	375	50	0	1	0	0	0	1	blank2r.bmp	0	1	+	0	7	C3r.bmp	492	1	blank2r.bmp	786	1	CPLW	786	1	blank2r.bmp	866	3	engagiert	866	1	!	1239	1	!	1279	0	0	0	0	0	0	0	0	0	0	0	0	0	0	0	0	0	0	0	0	0	0	0	0	0	0	0
040419	12:05:29	12:13:38	486195	5.0.10.0	4_exp_AMP_EVA_AWA_CON	192	Rpleas_acq	Oppo	Rpleas	Amasked	CS_A	1pleas	distractor1	EVAbeforeCON	acq_US_unple_masked	acq45_masked	4	17	400	1	300	300	0	0	358	46	0	1	0	0	0	1	blank2r.bmp	0	1	+	0	3	B3r.bmp	492	1	blank2r.bmp	786	1	DHJF	786	1	blank2r.bmp	866	6	ausrottung	866	1	!	1239	1	!	1252	0	0	0	0	0	0	0	0	0	0	0	0	0	0	0	0	0	0	0	0	0	0	0	0	0	0	0
040419	12:05:29	12:13:40	488474	5.0.10.0	4_exp_AMP_EVA_AWA_CON	192	Rpleas_acq	Oppo	Rpleas	Amasked	CS_A	1pleas	distractor1	EVAbeforeCON	acq_US_pleas_masked	acq45_masked	4	18	400	0	300	300	0	0	494	50	0	1	0	0	0	1	blank2r.bmp	0	1	+	0	2	B2r.bmp	492	1	blank2r.bmp	786	1	CPLW	786	1	blank2r.bmp	866	6	anregung	866	1	!	1239	1	!	-1	0	0	0	0	0	0	0	0	0	0	0	0	0	0	0	0	0	0	0	0	0	0	0	0	0	0	0
040419	12:05:29	12:13:42	490793	5.0.10.0	4_exp_AMP_EVA_AWA_CON	192	Rpleas_acq	Oppo	Rpleas	Amasked	CS_A	1pleas	distractor1	EVAbeforeCON	acq_US_pleas_masked	acq45_masked	4	19	400	0	300	300	0	0	520	50	0	1	0	0	0	1	blank2r.bmp	0	1	+	0	1	B1r.bmp	492	1	blank2r.bmp	786	1	CPLW	786	1	blank2r.bmp	866	5	vertrauen	866	1	!	1239	1	!	-1	0	0	0	0	0	0	0	0	0	0	0	0	0	0	0	0	0	0	0	0	0	0	0	0	0	0	0
040419	12:05:29	12:13:44	493019	5.0.10.0	4_exp_AMP_EVA_AWA_CON	192	Rpleas_acq	Oppo	Rpleas	Amasked	CS_A	1pleas	distractor1	EVAbeforeCON	acq_US_unple_masked	acq45_masked	4	20	400	1	300	300	0	0	412	46	0	1	0	0	0	1	blank2r.bmp	0	1	+	0	8	C4r.bmp	492	1	blank2r.bmp	786	1	DHJF	786	1	blank2r.bmp	866	1	krank	866	1	!	1239	1	!	1319	0	0	0	0	0	0	0	0	0	0	0	0	0	0	0	0	0	0	0	0	0	0	0	0	0	0	0
040419	12:05:29	12:13:47	495098	5.0.10.0	4_exp_AMP_EVA_AWA_CON	192	Rpleas_acq	Oppo	Rpleas	Amasked	CS_A	1pleas	distractor1	EVAbeforeCON	acq_US_pleas_masked	acq45_masked	4	21	400	0	300	300	0	0	317	50	0	1	0	0	0	1	blank2r.bmp	0	1	+	0	2	B2r.bmp	492	1	blank2r.bmp	786	1	CPLW	786	1	blank2r.bmp	866	2	gütig	866	1	!	-1	1	!	-1	0	0	0	0	0	0	0	0	0	0	0	0	0	0	0	0	0	0	0	0	0	0	0	0	0	0	0
040419	12:05:29	12:13:49	497284	5.0.10.0	4_exp_AMP_EVA_AWA_CON	192	Rpleas_acq	Oppo	Rpleas	Amasked	CS_A	1pleas	distractor1	EVAbeforeCON	acq_US_unple_masked	acq45_masked	4	22	400	1	300	300	0	0	383	46	0	1	0	0	0	1	blank2r.bmp	0	1	+	0	1	B1r.bmp	492	1	blank2r.bmp	786	1	DHJF	786	1	blank2r.bmp	866	5	versagen	866	1	!	1239	1	!	1279	0	0	0	0	0	0	0	0	0	0	0	0	0	0	0	0	0	0	0	0	0	0	0	0	0	0	0
040419	12:05:29	12:13:51	499550	5.0.10.0	4_exp_AMP_EVA_AWA_CON	192	Rpleas_acq	Oppo	Rpleas	Amasked	CS_A	1pleas	distractor1	EVAbeforeCON	acq_US_unple_masked	acq45_masked	4	23	400	0	300	300	0	0	500	50	0	0	0	0	0	1	blank2r.bmp	0	1	+	0	7	C3r.bmp	492	1	blank2r.bmp	786	1	DHJF	786	1	blank2r.bmp	866	3	engstirnig	866	1	!	1239	1	!	-1	0	0	0	0	0	0	0	0	0	0	0	0	0	0	0	0	0	0	0	0	0	0	0	0	0	0	0
040419	12:05:29	12:13:53	501735	5.0.10.0	4_exp_AMP_EVA_AWA_CON	192	Rpleas_acq	Oppo	Rpleas	Amasked	CS_A	1pleas	distractor1	EVAbeforeCON	acq_US_pleas_masked	acq45_masked	4	24	400	1	300	300	0	0	361	50	0	1	0	0	0	1	blank2r.bmp	0	1	+	0	4	B4r.bmp	492	1	blank2r.bmp	786	1	CPLW	786	1	blank2r.bmp	866	1	kreativ	866	1	!	1239	1	!	1266	0	0	0	0	0	0	0	0	0	0	0	0	0	0	0	0	0	0	0	0	0	0	0	0	0	0	0
040419	12:05:29	12:13:55	503908	5.0.10.0	4_exp_AMP_EVA_AWA_CON	192	Rpleas_acq	Oppo	Rpleas	Amasked	CS_A	1pleas	distractor1	EVAbeforeCON	acq_US_unple_masked	acq45_masked	4	25	400	1	300	300	0	0	384	46	0	1	0	0	0	1	blank2r.bmp	0	1	+	0	5	C1r.bmp	492	1	blank2r.bmp	786	1	DHJF	786	1	blank2r.bmp	866	6	ausrottung	866	1	!	1239	1	!	1279	0	0	0	0	0	0	0	0	0	0	0	0	0	0	0	0	0	0	0	0	0	0	0	0	0	0	0
040419	12:05:29	12:13:58	506080	5.0.10.0	4_exp_AMP_EVA_AWA_CON	192	Rpleas_acq	Oppo	Rpleas	Amasked	CS_A	1pleas	distractor1	EVAbeforeCON	acq_US_unple_masked	acq45_masked	4	26	400	1	300	300	0	0	383	46	0	1	0	0	0	1	blank2r.bmp	0	1	+	0	6	C2r.bmp	492	1	blank2r.bmp	786	1	DHJF	786	1	blank2r.bmp	866	5	versagen	866	1	!	1239	1	!	1279	0	0	0	0	0	0	0	0	0	0	0	0	0	0	0	0	0	0	0	0	0	0	0	0	0	0	0
040419	12:05:29	12:14:00	508332	5.0.10.0	4_exp_AMP_EVA_AWA_CON	192	Rpleas_acq	Oppo	Rpleas	Amasked	CS_A	1pleas	distractor1	EVAbeforeCON	acq_US_pleas_masked	acq45_masked	4	27	400	1	300	300	0	0	463	50	0	1	0	0	0	1	blank2r.bmp	0	1	+	0	3	B3r.bmp	492	1	blank2r.bmp	786	1	CPLW	786	1	blank2r.bmp	866	6	anregung	866	1	!	1239	1	!	1359	0	0	0	0	0	0	0	0	0	0	0	0	0	0	0	0	0	0	0	0	0	0	0	0	0	0	0
040419	12:05:29	12:14:02	510558	5.0.10.0	4_exp_AMP_EVA_AWA_CON	192	Rpleas_acq	Oppo	Rpleas	Amasked	CS_A	1pleas	distractor1	EVAbeforeCON	acq_US_unple_masked	acq45_masked	4	28	400	1	300	300	0	0	435	46	0	1	0	0	0	1	blank2r.bmp	0	1	+	0	8	C4r.bmp	492	1	blank2r.bmp	786	1	DHJF	786	1	blank2r.bmp	866	4	geizig	866	1	!	1239	1	!	1332	0	0	0	0	0	0	0	0	0	0	0	0	0	0	0	0	0	0	0	0	0	0	0	0	0	0	0
040419	12:05:29	12:14:04	512784	5.0.10.0	4_exp_AMP_EVA_AWA_CON	192	Rpleas_acq	Oppo	Rpleas	Amasked	CS_A	1pleas	distractor1	EVAbeforeCON	acq_US_pleas_masked	acq45_masked	4	29	400	1	300	300	0	0	427	50	0	1	0	0	0	1	blank2r.bmp	0	1	+	0	4	B4r.bmp	492	1	blank2r.bmp	786	1	CPLW	786	1	blank2r.bmp	866	5	vertrauen	866	1	!	1239	1	!	1332	0	0	0	0	0	0	0	0	0	0	0	0	0	0	0	0	0	0	0	0	0	0	0	0	0	0	0
040419	12:05:29	12:14:06	514956	5.0.10.0	4_exp_AMP_EVA_AWA_CON	192	Rpleas_acq	Oppo	Rpleas	Amasked	CS_A	1pleas	distractor1	EVAbeforeCON	acq_US_unple_masked	acq45_masked	4	30	400	1	300	300	0	0	375	46	0	1	0	0	0	1	blank2r.bmp	0	1	+	0	7	C3r.bmp	492	1	blank2r.bmp	786	1	DHJF	786	1	blank2r.bmp	866	3	engstirnig	866	1	!	1239	1	!	1279	0	0	0	0	0	0	0	0	0	0	0	0	0	0	0	0	0	0	0	0	0	0	0	0	0	0	0
040419	12:05:29	12:14:09	517182	5.0.10.0	4_exp_AMP_EVA_AWA_CON	192	Rpleas_acq	Oppo	Rpleas	Amasked	CS_A	1pleas	distractor1	EVAbeforeCON	acq_US_unple_masked	acq45_masked	4	31	400	1	300	300	0	0	438	50	0	0	0	0	0	1	blank2r.bmp	0	1	+	0	6	C2r.bmp	492	1	blank2r.bmp	786	1	DHJF	786	1	blank2r.bmp	866	2	gierig	866	1	!	1239	1	!	1332	0	0	0	0	0	0	0	0	0	0	0	0	0	0	0	0	0	0	0	0	0	0	0	0	0	0	0
040419	12:05:29	12:14:11	519435	5.0.10.0	4_exp_AMP_EVA_AWA_CON	192	Rpleas_acq	Oppo	Rpleas	Amasked	CS_A	1pleas	distractor1	EVAbeforeCON	acq_US_pleas_masked	acq45_masked	4	32	400	0	300	300	0	0	479	50	0	1	0	0	0	1	blank2r.bmp	0	1	+	0	3	B3r.bmp	492	1	blank2r.bmp	786	1	CPLW	786	1	blank2r.bmp	866	3	engagiert	866	1	!	1239	1	!	-1	0	0	0	0	0	0	0	0	0	0	0	0	0	0	0	0	0	0	0	0	0	0	0	0	0	0	0
040419	12:05:29	12:14:13	521700	5.0.10.0	4_exp_AMP_EVA_AWA_CON	192	Rpleas_acq	Oppo	Rpleas	Amasked	CS_A	1pleas	distractor1	EVAbeforeCON	acq_US_pleas_masked	acq45_masked	4	33	400	1	300	300	0	0	458	50	0	1	0	0	0	1	blank2r.bmp	0	1	+	0	2	B2r.bmp	492	1	blank2r.bmp	786	1	CPLW	786	1	blank2r.bmp	866	4	gesittet	866	1	!	1239	1	!	1359	0	0	0	0	0	0	0	0	0	0	0	0	0	0	0	0	0	0	0	0	0	0	0	0	0	0	0
040419	12:05:29	12:14:15	523899	5.0.10.0	4_exp_AMP_EVA_AWA_CON	192	Rpleas_acq	Oppo	Rpleas	Amasked	CS_A	1pleas	distractor1	EVAbeforeCON	acq_US_pleas_masked	acq45_masked	4	34	400	1	300	300	0	0	389	50	0	1	0	0	0	1	blank2r.bmp	0	1	+	0	8	C4r.bmp	492	1	blank2r.bmp	786	1	CPLW	786	1	blank2r.bmp	866	1	kreativ	866	1	!	1239	1	!	1292	0	0	0	0	0	0	0	0	0	0	0	0	0	0	0	0	0	0	0	0	0	0	0	0	0	0	0
040419	12:05:29	12:14:17	526005	5.0.10.0	4_exp_AMP_EVA_AWA_CON	192	Rpleas_acq	Oppo	Rpleas	Amasked	CS_A	1pleas	distractor1	EVAbeforeCON	acq_US_pleas_masked	acq45_masked	4	35	400	0	300	300	0	0	318	50	0	1	0	0	0	1	blank2r.bmp	0	1	+	0	1	B1r.bmp	492	1	blank2r.bmp	786	1	CPLW	786	1	blank2r.bmp	866	2	gütig	866	1	!	-1	1	!	-1	0	0	0	0	0	0	0	0	0	0	0	0	0	0	0	0	0	0	0	0	0	0	0	0	0	0	0
040419	12:05:29	12:14:20	528284	5.0.10.0	4_exp_AMP_EVA_AWA_CON	192	Rpleas_acq	Oppo	Rpleas	Amasked	CS_A	1pleas	distractor1	EVAbeforeCON	acq_US_unple_masked	acq45_masked	4	36	400	0	300	300	0	0	497	46	0	1	0	0	0	1	blank2r.bmp	0	1	+	0	5	C1r.bmp	492	1	blank2r.bmp	786	1	DHJF	786	1	blank2r.bmp	866	1	krank	866	1	!	1239	1	!	-1	0	0	0	0	0	0	0	0	0	0	0	0	0	0	0	0	0	0	0	0	0	0	0	0	0	0	0
040419	12:05:29	12:14:30	538960	5.0.10.0	4_exp_AMP_EVA_AWA_CON	192	Rpleas_acq	Oppo	Rpleas	Amasked	CS_A	1pleas	distractor1	EVAbeforeCON	acq_US_unple_masked	acq45_masked	5	1	400	1	300	300	0	0	420	46	0	1	0	0	0	1	blank2r.bmp	0	1	+	0	4	B4r.bmp	492	1	blank2r.bmp	786	1	DHJF	786	1	blank2r.bmp	866	6	ausrottung	866	1	!	1239	1	!	1319	0	0	0	0	0	0	0	0	0	0	0	0	0	0	0	0	0	0	0	0	0	0	0	0	0	0	0
040419	12:05:29	12:14:33	541145	5.0.10.0	4_exp_AMP_EVA_AWA_CON	192	Rpleas_acq	Oppo	Rpleas	Amasked	CS_A	1pleas	distractor1	EVAbeforeCON	acq_US_pleas_masked	acq45_masked	5	2	400	1	300	300	0	0	390	50	0	1	0	0	0	1	blank2r.bmp	0	1	+	0	2	B2r.bmp	492	1	blank2r.bmp	786	1	CPLW	786	1	blank2r.bmp	866	3	engagiert	866	1	!	1239	1	!	1292	0	0	0	0	0	0	0	0	0	0	0	0	0	0	0	0	0	0	0	0	0	0	0	0	0	0	0
040419	12:05:29	12:14:35	543331	5.0.10.0	4_exp_AMP_EVA_AWA_CON	192	Rpleas_acq	Oppo	Rpleas	Amasked	CS_A	1pleas	distractor1	EVAbeforeCON	acq_US_pleas_masked	acq45_masked	5	3	400	1	300	300	0	0	388	46	0	0	0	0	0	1	blank2r.bmp	0	1	+	0	3	B3r.bmp	492	1	blank2r.bmp	786	1	CPLW	786	1	blank2r.bmp	866	5	vertrauen	866	1	!	1239	1	!	1292	0	0	0	0	0	0	0	0	0	0	0	0	0	0	0	0	0	0	0	0	0	0	0	0	0	0	0
040419	12:05:29	12:14:37	545597	5.0.10.0	4_exp_AMP_EVA_AWA_CON	192	Rpleas_acq	Oppo	Rpleas	Amasked	CS_A	1pleas	distractor1	EVAbeforeCON	acq_US_unple_masked	acq45_masked	5	4	400	0	300	300	0	0	502	46	0	1	0	0	0	1	blank2r.bmp	0	1	+	0	6	C2r.bmp	492	1	blank2r.bmp	786	1	DHJF	786	1	blank2r.bmp	866	3	engstirnig	866	1	!	1239	1	!	-1	0	0	0	0	0	0	0	0	0	0	0	0	0	0	0	0	0	0	0	0	0	0	0	0	0	0	0
040419	12:05:29	12:14:39	547649	5.0.10.0	4_exp_AMP_EVA_AWA_CON	192	Rpleas_acq	Oppo	Rpleas	Amasked	CS_A	1pleas	distractor1	EVAbeforeCON	acq_US_pleas_masked	acq45_masked	5	5	400	0	300	300	0	0	267	50	0	1	0	0	0	1	blank2r.bmp	0	1	+	0	5	C1r.bmp	492	1	blank2r.bmp	786	1	CPLW	786	1	blank2r.bmp	866	1	kreativ	866	1	!	-1	1	!	-1	0	0	0	0	0	0	0	0	0	0	0	0	0	0	0	0	0	0	0	0	0	0	0	0	0	0	0
040419	12:05:29	12:14:41	549822	5.0.10.0	4_exp_AMP_EVA_AWA_CON	192	Rpleas_acq	Oppo	Rpleas	Amasked	CS_A	1pleas	distractor1	EVAbeforeCON	acq_US_pleas_masked	acq45_masked	5	6	400	1	300	300	0	0	359	50	0	1	0	0	0	1	blank2r.bmp	0	1	+	0	8	C4r.bmp	492	1	blank2r.bmp	786	1	CPLW	786	1	blank2r.bmp	866	2	gütig	866	1	!	1239	1	!	1266	0	0	0	0	0	0	0	0	0	0	0	0	0	0	0	0	0	0	0	0	0	0	0	0	0	0	0
040419	12:05:29	12:14:44	552074	5.0.10.0	4_exp_AMP_EVA_AWA_CON	192	Rpleas_acq	Oppo	Rpleas	Amasked	CS_A	1pleas	distractor1	EVAbeforeCON	acq_US_unple_masked	acq45_masked	5	7	400	0	300	300	0	0	490	46	0	1	0	0	0	1	blank2r.bmp	0	1	+	0	1	B1r.bmp	492	1	blank2r.bmp	786	1	DHJF	786	1	blank2r.bmp	866	2	gierig	866	1	!	1239	1	!	-1	0	0	0	0	0	0	0	0	0	0	0	0	0	0	0	0	0	0	0	0	0	0	0	0	0	0	0
040419	12:05:29	12:14:46	554273	5.0.10.0	4_exp_AMP_EVA_AWA_CON	192	Rpleas_acq	Oppo	Rpleas	Amasked	CS_A	1pleas	distractor1	EVAbeforeCON	acq_US_unple_masked	acq45_masked	5	8	400	1	300	300	0	0	373	46	0	1	0	0	0	1	blank2r.bmp	0	1	+	0	7	C3r.bmp	492	1	blank2r.bmp	786	1	DHJF	786	1	blank2r.bmp	866	5	versagen	866	1	!	1239	1	!	1279	0	0	0	0	0	0	0	0	0	0	0	0	0	0	0	0	0	0	0	0	0	0	0	0	0	0	0
040419	12:05:29	12:14:48	556366	5.0.10.0	4_exp_AMP_EVA_AWA_CON	192	Rpleas_acq	Oppo	Rpleas	Amasked	CS_A	1pleas	distractor1	EVAbeforeCON	acq_US_unple_masked	acq45_masked	5	9	400	0	300	300	0	0	309	46	0	1	0	0	0	1	blank2r.bmp	0	1	+	0	5	C1r.bmp	492	1	blank2r.bmp	786	1	DHJF	786	1	blank2r.bmp	866	4	geizig	866	1	!	-1	1	!	-1	0	0	0	0	0	0	0	0	0	0	0	0	0	0	0	0	0	0	0	0	0	0	0	0	0	0	0
040419	12:05:29	12:14:50	558618	5.0.10.0	4_exp_AMP_EVA_AWA_CON	192	Rpleas_acq	Oppo	Rpleas	Amasked	CS_A	1pleas	distractor1	EVAbeforeCON	acq_US_pleas_masked	acq45_masked	5	10	400	1	300	300	0	0	428	50	0	1	0	0	0	1	blank2r.bmp	0	1	+	0	1	B1r.bmp	492	1	blank2r.bmp	786	1	CPLW	786	1	blank2r.bmp	866	6	anregung	866	1	!	1239	1	!	1332	0	0	0	0	0	0	0	0	0	0	0	0	0	0	0	0	0	0	0	0	0	0	0	0	0	0	0
040419	12:05:29	12:14:52	560884	5.0.10.0	4_exp_AMP_EVA_AWA_CON	192	Rpleas_acq	Oppo	Rpleas	Amasked	CS_A	1pleas	distractor1	EVAbeforeCON	acq_US_pleas_masked	acq45_masked	5	11	400	0	300	300	0	0	497	50	0	1	0	0	0	1	blank2r.bmp	0	1	+	0	7	C3r.bmp	492	1	blank2r.bmp	786	1	CPLW	786	1	blank2r.bmp	866	4	gesittet	866	1	!	1239	1	!	-1	0	0	0	0	0	0	0	0	0	0	0	0	0	0	0	0	0	0	0	0	0	0	0	0	0	0	0
040419	12:05:29	12:14:55	563136	5.0.10.0	4_exp_AMP_EVA_AWA_CON	192	Rpleas_acq	Oppo	Rpleas	Amasked	CS_A	1pleas	distractor1	EVAbeforeCON	acq_US_unple_masked	acq45_masked	5	12	400	1	300	300	0	0	443	46	0	1	0	0	0	1	blank2r.bmp	0	1	+	0	6	C2r.bmp	492	1	blank2r.bmp	786	1	DHJF	786	1	blank2r.bmp	866	1	krank	866	1	!	1239	1	!	1346	0	0	0	0	0	0	0	0	0	0	0	0	0	0	0	0	0	0	0	0	0	0	0	0	0	0	0
040419	12:05:29	12:14:57	565322	5.0.10.0	4_exp_AMP_EVA_AWA_CON	192	Rpleas_acq	Oppo	Rpleas	Amasked	CS_A	1pleas	distractor1	EVAbeforeCON	acq_US_unple_masked	acq45_masked	5	13	400	1	300	300	0	0	388	50	0	0	0	0	0	1	blank2r.bmp	0	1	+	0	4	B4r.bmp	492	1	blank2r.bmp	786	1	DHJF	786	1	blank2r.bmp	866	1	krank	866	1	!	1239	1	!	1292	0	0	0	0	0	0	0	0	0	0	0	0	0	0	0	0	0	0	0	0	0	0	0	0	0	0	0
040419	12:05:29	12:14:59	567588	5.0.10.0	4_exp_AMP_EVA_AWA_CON	192	Rpleas_acq	Oppo	Rpleas	Amasked	CS_A	1pleas	distractor1	EVAbeforeCON	acq_US_unple_masked	acq45_masked	5	14	400	0	300	300	0	0	498	46	0	1	0	0	0	1	blank2r.bmp	0	1	+	0	2	B2r.bmp	492	1	blank2r.bmp	786	1	DHJF	786	1	blank2r.bmp	866	3	engstirnig	866	1	!	1239	1	!	-1	0	0	0	0	0	0	0	0	0	0	0	0	0	0	0	0	0	0	0	0	0	0	0	0	0	0	0
040419	12:05:29	12:15:01	569840	5.0.10.0	4_exp_AMP_EVA_AWA_CON	192	Rpleas_acq	Oppo	Rpleas	Amasked	CS_A	1pleas	distractor1	EVAbeforeCON	acq_US_pleas_masked	acq45_masked	5	15	400	1	300	300	0	0	447	50	0	1	0	0	0	1	blank2r.bmp	0	1	+	0	3	B3r.bmp	492	1	blank2r.bmp	786	1	CPLW	786	1	blank2r.bmp	866	4	gesittet	866	1	!	1239	1	!	1346	0	0	0	0	0	0	0	0	0	0	0	0	0	0	0	0	0	0	0	0	0	0	0	0	0	0	0
040419	12:05:29	12:15:03	572039	5.0.10.0	4_exp_AMP_EVA_AWA_CON	192	Rpleas_acq	Oppo	Rpleas	Amasked	CS_A	1pleas	distractor1	EVAbeforeCON	acq_US_unple_masked	acq45_masked	5	16	400	1	300	300	0	0	391	46	0	1	0	0	0	1	blank2r.bmp	0	1	+	0	8	C4r.bmp	492	1	blank2r.bmp	786	1	DHJF	786	1	blank2r.bmp	866	5	versagen	866	1	!	1239	1	!	1292	0	0	0	0	0	0	0	0	0	0	0	0	0	0	0	0	0	0	0	0	0	0	0	0	0	0	0
040419	12:05:29	12:15:06	574251	5.0.10.0	4_exp_AMP_EVA_AWA_CON	192	Rpleas_acq	Oppo	Rpleas	Amasked	CS_A	1pleas	distractor1	EVAbeforeCON	acq_US_pleas_masked	acq45_masked	5	17	400	1	300	300	0	0	405	50	0	1	0	0	0	1	blank2r.bmp	0	1	+	0	4	B4r.bmp	492	1	blank2r.bmp	786	1	CPLW	786	1	blank2r.bmp	866	2	gütig	866	1	!	1239	1	!	1306	0	0	0	0	0	0	0	0	0	0	0	0	0	0	0	0	0	0	0	0	0	0	0	0	0	0	0
040419	12:05:29	12:15:08	576477	5.0.10.0	4_exp_AMP_EVA_AWA_CON	192	Rpleas_acq	Oppo	Rpleas	Amasked	CS_A	1pleas	distractor1	EVAbeforeCON	acq_US_pleas_masked	acq45_masked	5	18	400	1	300	300	0	0	435	46	0	0	0	0	0	1	blank2r.bmp	0	1	+	0	8	C4r.bmp	492	1	blank2r.bmp	786	1	CPLW	786	1	blank2r.bmp	866	6	anregung	866	1	!	1239	1	!	1332	0	0	0	0	0	0	0	0	0	0	0	0	0	0	0	0	0	0	0	0	0	0	0	0	0	0	0
040419	12:05:29	12:15:10	578716	5.0.10.0	4_exp_AMP_EVA_AWA_CON	192	Rpleas_acq	Oppo	Rpleas	Amasked	CS_A	1pleas	distractor1	EVAbeforeCON	acq_US_unple_masked	acq45_masked	5	19	400	1	300	300	0	0	450	46	0	1	0	0	0	1	blank2r.bmp	0	1	+	0	2	B2r.bmp	492	1	blank2r.bmp	786	1	DHJF	786	1	blank2r.bmp	866	6	ausrottung	866	1	!	1239	1	!	1346	0	0	0	0	0	0	0	0	0	0	0	0	0	0	0	0	0	0	0	0	0	0	0	0	0	0	0
040419	12:05:29	12:15:12	580875	5.0.10.0	4_exp_AMP_EVA_AWA_CON	192	Rpleas_acq	Oppo	Rpleas	Amasked	CS_A	1pleas	distractor1	EVAbeforeCON	acq_US_pleas_masked	acq45_masked	5	20	400	1	300	300	0	0	346	50	0	1	0	0	0	1	blank2r.bmp	0	1	+	0	1	B1r.bmp	492	1	blank2r.bmp	786	1	CPLW	786	1	blank2r.bmp	866	1	kreativ	866	1	!	1239	1	!	1252	0	0	0	0	0	0	0	0	0	0	0	0	0	0	0	0	0	0	0	0	0	0	0	0	0	0	0
040419	12:05:29	12:15:15	583248	5.0.10.0	4_exp_AMP_EVA_AWA_CON	192	Rpleas_acq	Oppo	Rpleas	Amasked	CS_A	1pleas	distractor1	EVAbeforeCON	acq_US_unple_masked	acq45_masked	5	21	400	0	300	300	0	0	607	46	0	1	0	0	0	1	blank2r.bmp	0	1	+	0	6	C2r.bmp	492	1	blank2r.bmp	786	1	DHJF	786	1	blank2r.bmp	866	4	geizig	866	1	!	1239	1	!	-1	0	0	0	0	0	0	0	0	0	0	0	0	0	0	0	0	0	0	0	0	0	0	0	0	0	0	0
040419	12:05:29	12:15:17	585500	5.0.10.0	4_exp_AMP_EVA_AWA_CON	192	Rpleas_acq	Oppo	Rpleas	Amasked	CS_A	1pleas	distractor1	EVAbeforeCON	acq_US_pleas_masked	acq45_masked	5	22	400	1	300	300	0	0	449	50	0	1	0	0	0	1	blank2r.bmp	0	1	+	0	3	B3r.bmp	492	1	blank2r.bmp	786	1	CPLW	786	1	blank2r.bmp	866	3	engagiert	866	1	!	1239	1	!	1346	0	0	0	0	0	0	0	0	0	0	0	0	0	0	0	0	0	0	0	0	0	0	0	0	0	0	0
040419	12:05:29	12:15:19	587712	5.0.10.0	4_exp_AMP_EVA_AWA_CON	192	Rpleas_acq	Oppo	Rpleas	Amasked	CS_A	1pleas	distractor1	EVAbeforeCON	acq_US_unple_masked	acq45_masked	5	23	400	1	300	300	0	0	416	46	0	1	0	0	0	1	blank2r.bmp	0	1	+	0	5	C1r.bmp	492	1	blank2r.bmp	786	1	DHJF	786	1	blank2r.bmp	866	2	gierig	866	1	!	1239	1	!	1319	0	0	0	0	0	0	0	0	0	0	0	0	0	0	0	0	0	0	0	0	0	0	0	0	0	0	0
040419	12:05:29	12:15:21	589938	5.0.10.0	4_exp_AMP_EVA_AWA_CON	192	Rpleas_acq	Oppo	Rpleas	Amasked	CS_A	1pleas	distractor1	EVAbeforeCON	acq_US_unple_masked	acq45_masked	5	24	400	1	300	300	0	0	429	46	0	1	0	0	0	1	blank2r.bmp	0	1	+	0	7	C3r.bmp	492	1	blank2r.bmp	786	1	DHJF	786	1	blank2r.bmp	866	1	krank	866	1	!	1239	1	!	1332	0	0	0	0	0	0	0	0	0	0	0	0	0	0	0	0	0	0	0	0	0	0	0	0	0	0	0
040419	12:05:29	12:15:23	592004	5.0.10.0	4_exp_AMP_EVA_AWA_CON	192	Rpleas_acq	Oppo	Rpleas	Amasked	CS_A	1pleas	distractor1	EVAbeforeCON	acq_US_pleas_masked	acq45_masked	5	25	400	0	300	300	0	0	293	46	0	0	0	0	0	1	blank2r.bmp	0	1	+	0	2	B2r.bmp	492	1	blank2r.bmp	786	1	CPLW	786	1	blank2r.bmp	866	5	vertrauen	866	1	!	-1	1	!	-1	0	0	0	0	0	0	0	0	0	0	0	0	0	0	0	0	0	0	0	0	0	0	0	0	0	0	0
040419	12:05:29	12:15:26	594243	5.0.10.0	4_exp_AMP_EVA_AWA_CON	192	Rpleas_acq	Oppo	Rpleas	Amasked	CS_A	1pleas	distractor1	EVAbeforeCON	acq_US_unple_masked	acq45_masked	5	26	400	1	300	300	0	0	430	46	0	1	0	0	0	1	blank2r.bmp	0	1	+	0	5	C1r.bmp	492	1	blank2r.bmp	786	1	DHJF	786	1	blank2r.bmp	866	4	geizig	866	1	!	1239	1	!	1332	0	0	0	0	0	0	0	0	0	0	0	0	0	0	0	0	0	0	0	0	0	0	0	0	0	0	0
040419	12:05:29	12:15:28	596442	5.0.10.0	4_exp_AMP_EVA_AWA_CON	192	Rpleas_acq	Oppo	Rpleas	Amasked	CS_A	1pleas	distractor1	EVAbeforeCON	acq_US_pleas_masked	acq45_masked	5	27	400	1	300	300	0	0	400	50	0	1	0	0	0	1	blank2r.bmp	0	1	+	0	4	B4r.bmp	492	1	blank2r.bmp	786	1	CPLW	786	1	blank2r.bmp	866	6	anregung	866	1	!	1239	1	!	1306	0	0	0	0	0	0	0	0	0	0	0	0	0	0	0	0	0	0	0	0	0	0	0	0	0	0	0
040419	12:05:29	12:15:30	598588	5.0.10.0	4_exp_AMP_EVA_AWA_CON	192	Rpleas_acq	Oppo	Rpleas	Amasked	CS_A	1pleas	distractor1	EVAbeforeCON	acq_US_unple_masked	acq45_masked	5	28	400	1	300	300	0	0	346	46	0	1	0	0	0	1	blank2r.bmp	0	1	+	0	1	B1r.bmp	492	1	blank2r.bmp	786	1	DHJF	786	1	blank2r.bmp	866	2	gierig	866	1	!	1239	1	!	1252	0	0	0	0	0	0	0	0	0	0	0	0	0	0	0	0	0	0	0	0	0	0	0	0	0	0	0
040419	12:05:29	12:15:32	600867	5.0.10.0	4_exp_AMP_EVA_AWA_CON	192	Rpleas_acq	Oppo	Rpleas	Amasked	CS_A	1pleas	distractor1	EVAbeforeCON	acq_US_unple_masked	acq45_masked	5	29	400	0	300	300	0	0	512	46	0	1	0	0	0	1	blank2r.bmp	0	1	+	0	6	C2r.bmp	492	1	blank2r.bmp	786	1	DHJF	786	1	blank2r.bmp	866	6	ausrottung	866	1	!	1239	1	!	-1	0	0	0	0	0	0	0	0	0	0	0	0	0	0	0	0	0	0	0	0	0	0	0	0	0	0	0
040419	12:05:29	12:15:42	610796	5.0.10.0	4_exp_AMP_EVA_AWA_CON	192	Rpleas_acq	Oppo	Rpleas	Amasked	CS_A	1pleas	distractor1	EVAbeforeCON	acq_US_unple_masked	acq45_masked	5	30	400	0	300	300	0	0	8143	50	0	0	0	0	0	1	blank2r.bmp	0	1	+	0	3	B3r.bmp	492	1	blank2r.bmp	786	1	DHJF	786	1	blank2r.bmp	866	3	engstirnig	866	1	!	1239	1	!	-1	0	0	0	0	0	0	0	0	0	0	0	0	0	0	0	0	0	0	0	0	0	0	0	0	0	0	0
040419	12:05:29	12:15:45	613075	5.0.10.0	4_exp_AMP_EVA_AWA_CON	192	Rpleas_acq	Oppo	Rpleas	Amasked	CS_A	1pleas	distractor1	EVAbeforeCON	acq_US_pleas_masked	acq45_masked	5	31	400	0	300	300	0	0	495	50	0	1	0	0	0	1	blank2r.bmp	0	1	+	0	8	C4r.bmp	492	1	blank2r.bmp	786	1	CPLW	786	1	blank2r.bmp	866	4	gesittet	866	1	!	1239	1	!	-1	0	0	0	0	0	0	0	0	0	0	0	0	0	0	0	0	0	0	0	0	0	0	0	0	0	0	0
040419	12:05:29	12:15:47	615288	5.0.10.0	4_exp_AMP_EVA_AWA_CON	192	Rpleas_acq	Oppo	Rpleas	Amasked	CS_A	1pleas	distractor1	EVAbeforeCON	acq_US_pleas_masked	acq45_masked	5	32	400	1	300	300	0	0	408	46	0	0	0	0	0	1	blank2r.bmp	0	1	+	0	7	C3r.bmp	492	1	blank2r.bmp	786	1	CPLW	786	1	blank2r.bmp	866	1	kreativ	866	1	!	1239	1	!	1306	0	0	0	0	0	0	0	0	0	0	0	0	0	0	0	0	0	0	0	0	0	0	0	0	0	0	0
040419	12:05:29	12:15:49	617473	5.0.10.0	4_exp_AMP_EVA_AWA_CON	192	Rpleas_acq	Oppo	Rpleas	Amasked	CS_A	1pleas	distractor1	EVAbeforeCON	acq_US_pleas_masked	acq45_masked	5	33	400	1	300	300	0	0	393	50	0	1	0	0	0	1	blank2r.bmp	0	1	+	0	1	B1r.bmp	492	1	blank2r.bmp	786	1	CPLW	786	1	blank2r.bmp	866	2	gütig	866	1	!	1239	1	!	1292	0	0	0	0	0	0	0	0	0	0	0	0	0	0	0	0	0	0	0	0	0	0	0	0	0	0	0
040419	12:05:29	12:15:51	619712	5.0.10.0	4_exp_AMP_EVA_AWA_CON	192	Rpleas_acq	Oppo	Rpleas	Amasked	CS_A	1pleas	distractor1	EVAbeforeCON	acq_US_pleas_masked	acq45_masked	5	34	400	1	300	300	0	0	447	50	0	1	0	0	0	1	blank2r.bmp	0	1	+	0	6	C2r.bmp	492	1	blank2r.bmp	786	1	CPLW	786	1	blank2r.bmp	866	3	engagiert	866	1	!	1239	1	!	1346	0	0	0	0	0	0	0	0	0	0	0	0	0	0	0	0	0	0	0	0	0	0	0	0	0	0	0
040419	12:05:29	12:15:53	621911	5.0.10.0	4_exp_AMP_EVA_AWA_CON	192	Rpleas_acq	Oppo	Rpleas	Amasked	CS_A	1pleas	distractor1	EVAbeforeCON	acq_US_pleas_masked	acq45_masked	5	35	400	1	300	300	0	0	405	50	0	1	0	0	0	1	blank2r.bmp	0	1	+	0	8	C4r.bmp	492	1	blank2r.bmp	786	1	CPLW	786	1	blank2r.bmp	866	5	vertrauen	866	1	!	1239	1	!	1306	0	0	0	0	0	0	0	0	0	0	0	0	0	0	0	0	0	0	0	0	0	0	0	0	0	0	0
040419	12:05:29	12:15:55	624057	5.0.10.0	4_exp_AMP_EVA_AWA_CON	192	Rpleas_acq	Oppo	Rpleas	Amasked	CS_A	1pleas	distractor1	EVAbeforeCON	acq_US_unple_masked	acq45_masked	5	36	400	1	300	300	0	0	346	50	0	0	0	0	0	1	blank2r.bmp	0	1	+	0	7	C3r.bmp	492	1	blank2r.bmp	786	1	DHJF	786	1	blank2r.bmp	866	5	versagen	866	1	!	1239	1	!	1252	0	0	0	0	0	0	0	0	0	0	0	0	0	0	0	0	0	0	0	0	0	0	0	0	0	0	0
040419	12:05:29	12:16:38	666853	5.0.10.0	4_exp_AMP_EVA_AWA_CON	192	Rpleas_acq	Oppo	Lpleas	Amasked	CS_A	1pleas	distractor1	EVAbeforeCON	AMP_CSunple	AMP1_masked	6	1	0	0	300	300	0	0	7015	46	0	0	0	0	0	1	blank2r.bmp	0	1	DHJF	0	1	blank2r.bmp	79	144	pic144.bmp	199	1	whitenoise_No3.bmp	306	0	0	0	0	0	0	0	0	0	0	0	0	0	0	0	0	0	0	0	0	0	0	0	0	0	0	0	0	0	0	0	0	0	0	0	0	0	0	0
040419	12:05:29	12:16:40	668838	5.0.10.0	4_exp_AMP_EVA_AWA_CON	192	Rpleas_acq	Oppo	Lpleas	Amasked	CS_A	1pleas	distractor1	EVAbeforeCON	AMP_CSunple	AMP1_masked	6	2	0	0	300	300	0	0	1054	50	0	1	0	0	0	1	blank2r.bmp	0	1	DHJF	0	1	blank2r.bmp	79	74	pic74.bmp	199	1	whitenoise_No3.bmp	306	0	0	0	0	0	0	0	0	0	0	0	0	0	0	0	0	0	0	0	0	0	0	0	0	0	0	0	0	0	0	0	0	0	0	0	0	0	0	0
040419	12:05:29	12:16:42	670624	5.0.10.0	4_exp_AMP_EVA_AWA_CON	192	Rpleas_acq	Oppo	Lpleas	Amasked	CS_A	1pleas	distractor1	EVAbeforeCON	AMP_CSpleas	AMP1_masked	6	3	0	0	300	300	0	0	857	46	0	1	0	0	0	1	blank2r.bmp	0	1	CPLW	0	1	blank2r.bmp	79	137	pic137.bmp	199	1	whitenoise_No3.bmp	306	0	0	0	0	0	0	0	0	0	0	0	0	0	0	0	0	0	0	0	0	0	0	0	0	0	0	0	0	0	0	0	0	0	0	0	0	0	0	0
040419	12:05:29	12:16:45	673290	5.0.10.0	4_exp_AMP_EVA_AWA_CON	192	Rpleas_acq	Oppo	Lpleas	Amasked	CS_A	1pleas	distractor1	EVAbeforeCON	AMP_distractor	AMP1_masked	6	4	0	0	300	300	0	0	1752	50	0	0	0	0	0	1	blank2r.bmp	0	1	ZGXT	0	1	blank2r.bmp	79	138	pic138.bmp	199	1	whitenoise_No3.bmp	306	0	0	0	0	0	0	0	0	0	0	0	0	0	0	0	0	0	0	0	0	0	0	0	0	0	0	0	0	0	0	0	0	0	0	0	0	0	0	0
040419	12:05:29	12:16:46	674303	5.0.10.0	4_exp_AMP_EVA_AWA_CON	192	Rpleas_acq	Oppo	Lpleas	Amasked	CS_A	1pleas	distractor1	EVAbeforeCON	AMP_distractor	AMP1_masked	6	5	0	0	300	300	0	0	104	46	0	0	0	0	0	1	blank2r.bmp	0	1	ZGXT	0	1	blank2r.bmp	79	118	pic118.bmp	199	1	whitenoise_No3.bmp	306	0	0	0	0	0	0	0	0	0	0	0	0	0	0	0	0	0	0	0	0	0	0	0	0	0	0	0	0	0	0	0	0	0	0	0	0	0	0	0
040419	12:05:29	12:16:48	676955	5.0.10.0	4_exp_AMP_EVA_AWA_CON	192	Rpleas_acq	Oppo	Lpleas	Amasked	CS_A	1pleas	distractor1	EVAbeforeCON	AMP_CSpleas	AMP1_masked	6	6	0	0	300	300	0	0	1730	50	0	0	0	0	0	1	blank2r.bmp	0	1	CPLW	0	1	blank2r.bmp	79	40	pic40.bmp	199	1	whitenoise_No3.bmp	306	0	0	0	0	0	0	0	0	0	0	0	0	0	0	0	0	0	0	0	0	0	0	0	0	0	0	0	0	0	0	0	0	0	0	0	0	0	0	0
040419	12:05:29	12:16:50	678341	5.0.10.0	4_exp_AMP_EVA_AWA_CON	192	Rpleas_acq	Oppo	Lpleas	Amasked	CS_A	1pleas	distractor1	EVAbeforeCON	AMP_distractor	AMP1_masked	6	7	0	0	300	300	0	0	465	46	0	0	0	0	0	1	blank2r.bmp	0	1	ZGXT	0	1	blank2r.bmp	79	61	pic61.bmp	199	1	whitenoise_No3.bmp	306	0	0	0	0	0	0	0	0	0	0	0	0	0	0	0	0	0	0	0	0	0	0	0	0	0	0	0	0	0	0	0	0	0	0	0	0	0	0	0
040419	12:05:29	12:16:51	679927	5.0.10.0	4_exp_AMP_EVA_AWA_CON	192	Rpleas_acq	Oppo	Lpleas	Amasked	CS_A	1pleas	distractor1	EVAbeforeCON	AMP_CSunple	AMP1_masked	6	8	0	0	300	300	0	0	644	46	0	0	0	0	0	1	blank2r.bmp	0	1	DHJF	0	1	blank2r.bmp	79	39	pic39.bmp	199	1	whitenoise_No3.bmp	306	0	0	0	0	0	0	0	0	0	0	0	0	0	0	0	0	0	0	0	0	0	0	0	0	0	0	0	0	0	0	0	0	0	0	0	0	0	0	0
040419	12:05:29	12:16:53	681686	5.0.10.0	4_exp_AMP_EVA_AWA_CON	192	Rpleas_acq	Oppo	Lpleas	Amasked	CS_A	1pleas	distractor1	EVAbeforeCON	AMP_CSunple	AMP1_masked	6	9	0	0	300	300	0	0	828	50	0	1	0	0	0	1	blank2r.bmp	0	1	DHJF	0	1	blank2r.bmp	79	113	pic113.bmp	199	1	whitenoise_No3.bmp	306	0	0	0	0	0	0	0	0	0	0	0	0	0	0	0	0	0	0	0	0	0	0	0	0	0	0	0	0	0	0	0	0	0	0	0	0	0	0	0
040419	12:05:29	12:16:54	683059	5.0.10.0	4_exp_AMP_EVA_AWA_CON	192	Rpleas_acq	Oppo	Lpleas	Amasked	CS_A	1pleas	distractor1	EVAbeforeCON	AMP_CSpleas	AMP1_masked	6	10	0	0	300	300	0	0	452	46	0	1	0	0	0	1	blank2r.bmp	0	1	CPLW	0	1	blank2r.bmp	79	56	pic56.bmp	199	1	whitenoise_No3.bmp	306	0	0	0	0	0	0	0	0	0	0	0	0	0	0	0	0	0	0	0	0	0	0	0	0	0	0	0	0	0	0	0	0	0	0	0	0	0	0	0
040419	12:05:29	12:16:56	684645	5.0.10.0	4_exp_AMP_EVA_AWA_CON	192	Rpleas_acq	Oppo	Lpleas	Amasked	CS_A	1pleas	distractor1	EVAbeforeCON	AMP_CSpleas	AMP1_masked	6	11	0	0	300	300	0	0	666	50	0	0	0	0	0	1	blank2r.bmp	0	1	CPLW	0	1	blank2r.bmp	79	10	pic10.bmp	199	1	whitenoise_No3.bmp	306	0	0	0	0	0	0	0	0	0	0	0	0	0	0	0	0	0	0	0	0	0	0	0	0	0	0	0	0	0	0	0	0	0	0	0	0	0	0	0
040419	12:05:29	12:16:57	685778	5.0.10.0	4_exp_AMP_EVA_AWA_CON	192	Rpleas_acq	Oppo	Lpleas	Amasked	CS_A	1pleas	distractor1	EVAbeforeCON	AMP_CSunple	AMP1_masked	6	12	0	0	300	300	0	0	224	46	0	0	0	0	0	1	blank2r.bmp	0	1	DHJF	0	1	blank2r.bmp	79	19	pic19.bmp	199	1	whitenoise_No3.bmp	306	0	0	0	0	0	0	0	0	0	0	0	0	0	0	0	0	0	0	0	0	0	0	0	0	0	0	0	0	0	0	0	0	0	0	0	0	0	0	0
040419	12:05:29	12:16:59	687657	5.0.10.0	4_exp_AMP_EVA_AWA_CON	192	Rpleas_acq	Oppo	Lpleas	Amasked	CS_A	1pleas	distractor1	EVAbeforeCON	AMP_distractor	AMP1_masked	6	13	0	0	300	300	0	0	946	50	0	0	0	0	0	1	blank2r.bmp	0	1	ZGXT	0	1	blank2r.bmp	79	75	pic75.bmp	199	1	whitenoise_No3.bmp	306	0	0	0	0	0	0	0	0	0	0	0	0	0	0	0	0	0	0	0	0	0	0	0	0	0	0	0	0	0	0	0	0	0	0	0	0	0	0	0
040419	12:05:29	12:17:00	689043	5.0.10.0	4_exp_AMP_EVA_AWA_CON	192	Rpleas_acq	Oppo	Lpleas	Amasked	CS_A	1pleas	distractor1	EVAbeforeCON	AMP_CSpleas	AMP1_masked	6	14	0	0	300	300	0	0	473	46	0	1	0	0	0	1	blank2r.bmp	0	1	CPLW	0	1	blank2r.bmp	79	104	pic104.bmp	199	1	whitenoise_No3.bmp	306	0	0	0	0	0	0	0	0	0	0	0	0	0	0	0	0	0	0	0	0	0	0	0	0	0	0	0	0	0	0	0	0	0	0	0	0	0	0	0
040419	12:05:29	12:17:02	690549	5.0.10.0	4_exp_AMP_EVA_AWA_CON	192	Rpleas_acq	Oppo	Lpleas	Amasked	CS_A	1pleas	distractor1	EVAbeforeCON	AMP_CSunple	AMP1_masked	6	15	0	0	300	300	0	0	590	50	0	1	0	0	0	1	blank2r.bmp	0	1	DHJF	0	1	blank2r.bmp	79	20	pic20.bmp	199	1	whitenoise_No3.bmp	306	0	0	0	0	0	0	0	0	0	0	0	0	0	0	0	0	0	0	0	0	0	0	0	0	0	0	0	0	0	0	0	0	0	0	0	0	0	0	0
040419	12:05:29	12:17:03	691802	5.0.10.0	4_exp_AMP_EVA_AWA_CON	192	Rpleas_acq	Oppo	Lpleas	Amasked	CS_A	1pleas	distractor1	EVAbeforeCON	AMP_CSpleas	AMP1_masked	6	16	0	0	300	300	0	0	331	50	0	0	0	0	0	1	blank2r.bmp	0	1	CPLW	0	1	blank2r.bmp	79	76	pic76.bmp	199	1	whitenoise_No3.bmp	306	0	0	0	0	0	0	0	0	0	0	0	0	0	0	0	0	0	0	0	0	0	0	0	0	0	0	0	0	0	0	0	0	0	0	0	0	0	0	0
040419	12:05:29	12:17:05	693201	5.0.10.0	4_exp_AMP_EVA_AWA_CON	192	Rpleas_acq	Oppo	Lpleas	Amasked	CS_A	1pleas	distractor1	EVAbeforeCON	AMP_CSunple	AMP1_masked	6	17	0	0	300	300	0	0	472	46	0	0	0	0	0	1	blank2r.bmp	0	1	DHJF	0	1	blank2r.bmp	79	103	pic103.bmp	199	1	whitenoise_No3.bmp	306	0	0	0	0	0	0	0	0	0	0	0	0	0	0	0	0	0	0	0	0	0	0	0	0	0	0	0	0	0	0	0	0	0	0	0	0	0	0	0
040419	12:05:29	12:17:06	694454	5.0.10.0	4_exp_AMP_EVA_AWA_CON	192	Rpleas_acq	Oppo	Lpleas	Amasked	CS_A	1pleas	distractor1	EVAbeforeCON	AMP_CSunple	AMP1_masked	6	18	0	0	300	300	0	0	330	50	0	1	0	0	0	1	blank2r.bmp	0	1	DHJF	0	1	blank2r.bmp	79	70	pic70.bmp	199	1	whitenoise_No3.bmp	306	0	0	0	0	0	0	0	0	0	0	0	0	0	0	0	0	0	0	0	0	0	0	0	0	0	0	0	0	0	0	0	0	0	0	0	0	0	0	0
040419	12:05:29	12:17:07	695787	5.0.10.0	4_exp_AMP_EVA_AWA_CON	192	Rpleas_acq	Oppo	Lpleas	Amasked	CS_A	1pleas	distractor1	EVAbeforeCON	AMP_distractor	AMP1_masked	6	19	0	0	300	300	0	0	423	46	0	0	0	0	0	1	blank2r.bmp	0	1	ZGXT	0	1	blank2r.bmp	79	14	pic14.bmp	199	1	whitenoise_No3.bmp	306	0	0	0	0	0	0	0	0	0	0	0	0	0	0	0	0	0	0	0	0	0	0	0	0	0	0	0	0	0	0	0	0	0	0	0	0	0	0	0
040419	12:05:29	12:17:09	697586	5.0.10.0	4_exp_AMP_EVA_AWA_CON	192	Rpleas_acq	Oppo	Lpleas	Amasked	CS_A	1pleas	distractor1	EVAbeforeCON	AMP_distractor	AMP1_masked	6	20	0	0	300	300	0	0	878	46	0	0	0	0	0	1	blank2r.bmp	0	1	ZGXT	0	1	blank2r.bmp	79	130	pic130.bmp	199	1	whitenoise_No3.bmp	306	0	0	0	0	0	0	0	0	0	0	0	0	0	0	0	0	0	0	0	0	0	0	0	0	0	0	0	0	0	0	0	0	0	0	0	0	0	0	0
040419	12:05:29	12:17:11	699585	5.0.10.0	4_exp_AMP_EVA_AWA_CON	192	Rpleas_acq	Oppo	Lpleas	Amasked	CS_A	1pleas	distractor1	EVAbeforeCON	AMP_CSpleas	AMP1_masked	6	21	0	0	300	300	0	0	1077	50	0	0	0	0	0	1	blank2r.bmp	0	1	CPLW	0	1	blank2r.bmp	79	80	pic80.bmp	199	1	whitenoise_No3.bmp	306	0	0	0	0	0	0	0	0	0	0	0	0	0	0	0	0	0	0	0	0	0	0	0	0	0	0	0	0	0	0	0	0	0	0	0	0	0	0	0
040419	12:05:29	12:17:13	701265	5.0.10.0	4_exp_AMP_EVA_AWA_CON	192	Rpleas_acq	Oppo	Lpleas	Amasked	CS_A	1pleas	distractor1	EVAbeforeCON	AMP_distractor	AMP1_masked	6	22	0	0	300	300	0	0	747	50	0	0	0	0	0	1	blank2r.bmp	0	1	ZGXT	0	1	blank2r.bmp	79	21	pic21.bmp	199	1	whitenoise_No3.bmp	306	0	0	0	0	0	0	0	0	0	0	0	0	0	0	0	0	0	0	0	0	0	0	0	0	0	0	0	0	0	0	0	0	0	0	0	0	0	0	0
040419	12:05:29	12:17:14	702638	5.0.10.0	4_exp_AMP_EVA_AWA_CON	192	Rpleas_acq	Oppo	Lpleas	Amasked	CS_A	1pleas	distractor1	EVAbeforeCON	AMP_distractor	AMP1_masked	6	23	0	0	300	300	0	0	454	46	0	0	0	0	0	1	blank2r.bmp	0	1	ZGXT	0	1	blank2r.bmp	79	6	pic6.bmp	199	1	whitenoise_No3.bmp	306	0	0	0	0	0	0	0	0	0	0	0	0	0	0	0	0	0	0	0	0	0	0	0	0	0	0	0	0	0	0	0	0	0	0	0	0	0	0	0
040419	12:05:29	12:17:16	704130	5.0.10.0	4_exp_AMP_EVA_AWA_CON	192	Rpleas_acq	Oppo	Lpleas	Amasked	CS_A	1pleas	distractor1	EVAbeforeCON	AMP_CSpleas	AMP1_masked	6	24	0	0	300	300	0	0	576	46	0	1	0	0	0	1	blank2r.bmp	0	1	CPLW	0	1	blank2r.bmp	79	136	pic136.bmp	199	1	whitenoise_No3.bmp	306	0	0	0	0	0	0	0	0	0	0	0	0	0	0	0	0	0	0	0	0	0	0	0	0	0	0	0	0	0	0	0	0	0	0	0	0	0	0	0
040419	12:05:29	12:17:17	705676	5.0.10.0	4_exp_AMP_EVA_AWA_CON	192	Rpleas_acq	Oppo	Lpleas	Amasked	CS_A	1pleas	distractor1	EVAbeforeCON	AMP_CSunple	AMP1_masked	6	25	0	0	300	300	0	0	634	46	0	0	0	0	0	1	blank2r.bmp	0	1	DHJF	0	1	blank2r.bmp	79	4	pic4.bmp	199	1	whitenoise_No3.bmp	306	0	0	0	0	0	0	0	0	0	0	0	0	0	0	0	0	0	0	0	0	0	0	0	0	0	0	0	0	0	0	0	0	0	0	0	0	0	0	0
040419	12:05:29	12:17:19	707196	5.0.10.0	4_exp_AMP_EVA_AWA_CON	192	Rpleas_acq	Oppo	Lpleas	Amasked	CS_A	1pleas	distractor1	EVAbeforeCON	AMP_CSpleas	AMP1_masked	6	26	0	0	300	300	0	0	598	50	0	0	0	0	0	1	blank2r.bmp	0	1	CPLW	0	1	blank2r.bmp	79	26	pic26.bmp	199	1	whitenoise_No3.bmp	306	0	0	0	0	0	0	0	0	0	0	0	0	0	0	0	0	0	0	0	0	0	0	0	0	0	0	0	0	0	0	0	0	0	0	0	0	0	0	0
040419	12:05:29	12:17:20	708675	5.0.10.0	4_exp_AMP_EVA_AWA_CON	192	Rpleas_acq	Oppo	Lpleas	Amasked	CS_A	1pleas	distractor1	EVAbeforeCON	AMP_distractor	AMP1_masked	6	27	0	0	300	300	0	0	556	46	0	0	0	0	0	1	blank2r.bmp	0	1	ZGXT	0	1	blank2r.bmp	79	3	pic3.bmp	199	1	whitenoise_No3.bmp	306	0	0	0	0	0	0	0	0	0	0	0	0	0	0	0	0	0	0	0	0	0	0	0	0	0	0	0	0	0	0	0	0	0	0	0	0	0	0	0
040419	12:05:29	12:17:22	710141	5.0.10.0	4_exp_AMP_EVA_AWA_CON	192	Rpleas_acq	Oppo	Lpleas	Amasked	CS_A	1pleas	distractor1	EVAbeforeCON	AMP_distractor	AMP1_masked	6	28	0	0	300	300	0	0	532	50	0	0	0	0	0	1	blank2r.bmp	0	1	ZGXT	0	1	blank2r.bmp	79	153	pic153.bmp	199	1	whitenoise_No3.bmp	306	0	0	0	0	0	0	0	0	0	0	0	0	0	0	0	0	0	0	0	0	0	0	0	0	0	0	0	0	0	0	0	0	0	0	0	0	0	0	0
040419	12:05:29	12:17:23	711740	5.0.10.0	4_exp_AMP_EVA_AWA_CON	192	Rpleas_acq	Oppo	Lpleas	Amasked	CS_A	1pleas	distractor1	EVAbeforeCON	AMP_CSpleas	AMP1_masked	6	29	0	0	300	300	0	0	689	50	0	0	0	0	0	1	blank2r.bmp	0	1	CPLW	0	1	blank2r.bmp	79	58	pic58.bmp	199	1	whitenoise_No3.bmp	306	0	0	0	0	0	0	0	0	0	0	0	0	0	0	0	0	0	0	0	0	0	0	0	0	0	0	0	0	0	0	0	0	0	0	0	0	0	0	0
040419	12:05:29	12:17:24	713033	5.0.10.0	4_exp_AMP_EVA_AWA_CON	192	Rpleas_acq	Oppo	Lpleas	Amasked	CS_A	1pleas	distractor1	EVAbeforeCON	AMP_CSunple	AMP1_masked	6	30	0	0	300	300	0	0	380	46	0	0	0	0	0	1	blank2r.bmp	0	1	DHJF	0	1	blank2r.bmp	79	89	pic89.bmp	199	1	whitenoise_No3.bmp	306	0	0	0	0	0	0	0	0	0	0	0	0	0	0	0	0	0	0	0	0	0	0	0	0	0	0	0	0	0	0	0	0	0	0	0	0	0	0	0
040419	12:05:29	12:17:26	714473	5.0.10.0	4_exp_AMP_EVA_AWA_CON	192	Rpleas_acq	Oppo	Lpleas	Amasked	CS_A	1pleas	distractor1	EVAbeforeCON	AMP_distractor	AMP1_masked	6	31	0	0	300	300	0	0	512	46	0	0	0	0	0	1	blank2r.bmp	0	1	ZGXT	0	1	blank2r.bmp	79	68	pic68.bmp	199	1	whitenoise_No3.bmp	306	0	0	0	0	0	0	0	0	0	0	0	0	0	0	0	0	0	0	0	0	0	0	0	0	0	0	0	0	0	0	0	0	0	0	0	0	0	0	0
040419	12:05:29	12:17:27	716005	5.0.10.0	4_exp_AMP_EVA_AWA_CON	192	Rpleas_acq	Oppo	Lpleas	Amasked	CS_A	1pleas	distractor1	EVAbeforeCON	AMP_CSunple	AMP1_masked	6	32	0	0	300	300	0	0	614	46	0	0	0	0	0	1	blank2r.bmp	0	1	DHJF	0	1	blank2r.bmp	79	122	pic122.bmp	199	1	whitenoise_No3.bmp	306	0	0	0	0	0	0	0	0	0	0	0	0	0	0	0	0	0	0	0	0	0	0	0	0	0	0	0	0	0	0	0	0	0	0	0	0	0	0	0
040419	12:05:29	12:17:29	717365	5.0.10.0	4_exp_AMP_EVA_AWA_CON	192	Rpleas_acq	Oppo	Lpleas	Amasked	CS_A	1pleas	distractor1	EVAbeforeCON	AMP_distractor	AMP1_masked	6	33	0	0	300	300	0	0	445	46	0	0	0	0	0	1	blank2r.bmp	0	1	ZGXT	0	1	blank2r.bmp	79	17	pic17.bmp	199	1	whitenoise_No3.bmp	306	0	0	0	0	0	0	0	0	0	0	0	0	0	0	0	0	0	0	0	0	0	0	0	0	0	0	0	0	0	0	0	0	0	0	0	0	0	0	0
040419	12:05:29	12:17:30	718897	5.0.10.0	4_exp_AMP_EVA_AWA_CON	192	Rpleas_acq	Oppo	Lpleas	Amasked	CS_A	1pleas	distractor1	EVAbeforeCON	AMP_distractor	AMP1_masked	6	34	0	0	300	300	0	0	601	50	0	0	0	0	0	1	blank2r.bmp	0	1	ZGXT	0	1	blank2r.bmp	79	5	pic5.bmp	199	1	whitenoise_No3.bmp	306	0	0	0	0	0	0	0	0	0	0	0	0	0	0	0	0	0	0	0	0	0	0	0	0	0	0	0	0	0	0	0	0	0	0	0	0	0	0	0
040419	12:05:29	12:17:32	720470	5.0.10.0	4_exp_AMP_EVA_AWA_CON	192	Rpleas_acq	Oppo	Lpleas	Amasked	CS_A	1pleas	distractor1	EVAbeforeCON	AMP_CSpleas	AMP1_masked	6	35	0	0	300	300	0	0	644	46	0	1	0	0	0	1	blank2r.bmp	0	1	CPLW	0	1	blank2r.bmp	79	31	pic31.bmp	199	1	whitenoise_No3.bmp	306	0	0	0	0	0	0	0	0	0	0	0	0	0	0	0	0	0	0	0	0	0	0	0	0	0	0	0	0	0	0	0	0	0	0	0	0	0	0	0
040419	12:05:29	12:17:34	722136	5.0.10.0	4_exp_AMP_EVA_AWA_CON	192	Rpleas_acq	Oppo	Lpleas	Amasked	CS_A	1pleas	distractor1	EVAbeforeCON	AMP_CSpleas	AMP1_masked	6	36	0	0	300	300	0	0	744	46	0	1	0	0	0	1	blank2r.bmp	0	1	CPLW	0	1	blank2r.bmp	79	146	pic146.bmp	199	1	whitenoise_No3.bmp	306	0	0	0	0	0	0	0	0	0	0	0	0	0	0	0	0	0	0	0	0	0	0	0	0	0	0	0	0	0	0	0	0	0	0	0	0	0	0	0
040419	12:05:29	12:17:35	723429	5.0.10.0	4_exp_AMP_EVA_AWA_CON	192	Rpleas_acq	Oppo	Lpleas	Amasked	CS_A	1pleas	distractor1	EVAbeforeCON	AMP_CSunple	AMP1_masked	6	37	0	0	300	300	0	0	370	46	0	0	0	0	0	1	blank2r.bmp	0	1	DHJF	0	1	blank2r.bmp	79	128	pic128.bmp	199	1	whitenoise_No3.bmp	306	0	0	0	0	0	0	0	0	0	0	0	0	0	0	0	0	0	0	0	0	0	0	0	0	0	0	0	0	0	0	0	0	0	0	0	0	0	0	0
040419	12:05:29	12:17:37	725081	5.0.10.0	4_exp_AMP_EVA_AWA_CON	192	Rpleas_acq	Oppo	Lpleas	Amasked	CS_A	1pleas	distractor1	EVAbeforeCON	AMP_distractor	AMP1_masked	6	38	0	0	300	300	0	0	721	46	0	0	0	0	0	1	blank2r.bmp	0	1	ZGXT	0	1	blank2r.bmp	79	65	pic65.bmp	199	1	whitenoise_No3.bmp	306	0	0	0	0	0	0	0	0	0	0	0	0	0	0	0	0	0	0	0	0	0	0	0	0	0	0	0	0	0	0	0	0	0	0	0	0	0	0	0
040419	12:05:29	12:17:38	726881	5.0.10.0	4_exp_AMP_EVA_AWA_CON	192	Rpleas_acq	Oppo	Lpleas	Amasked	CS_A	1pleas	distractor1	EVAbeforeCON	AMP_distractor	AMP1_masked	6	39	0	0	300	300	0	0	887	46	0	0	0	0	0	1	blank2r.bmp	0	1	ZGXT	0	1	blank2r.bmp	79	84	pic84.bmp	199	1	whitenoise_No3.bmp	306	0	0	0	0	0	0	0	0	0	0	0	0	0	0	0	0	0	0	0	0	0	0	0	0	0	0	0	0	0	0	0	0	0	0	0	0	0	0	0
040419	12:05:29	12:17:39	728067	5.0.10.0	4_exp_AMP_EVA_AWA_CON	192	Rpleas_acq	Oppo	Lpleas	Amasked	CS_A	1pleas	distractor1	EVAbeforeCON	AMP_CSpleas	AMP1_masked	6	40	0	0	300	300	0	0	260	50	0	0	0	0	0	1	blank2r.bmp	0	1	CPLW	0	1	blank2r.bmp	79	87	pic87.bmp	199	1	whitenoise_No3.bmp	306	0	0	0	0	0	0	0	0	0	0	0	0	0	0	0	0	0	0	0	0	0	0	0	0	0	0	0	0	0	0	0	0	0	0	0	0	0	0	0
040419	12:05:29	12:17:41	729693	5.0.10.0	4_exp_AMP_EVA_AWA_CON	192	Rpleas_acq	Oppo	Lpleas	Amasked	CS_A	1pleas	distractor1	EVAbeforeCON	AMP_CSunple	AMP1_masked	6	41	0	0	300	300	0	0	701	46	0	0	0	0	0	1	blank2r.bmp	0	1	DHJF	0	1	blank2r.bmp	79	8	pic8.bmp	199	1	whitenoise_No3.bmp	306	0	0	0	0	0	0	0	0	0	0	0	0	0	0	0	0	0	0	0	0	0	0	0	0	0	0	0	0	0	0	0	0	0	0	0	0	0	0	0
040419	12:05:29	12:17:43	731372	5.0.10.0	4_exp_AMP_EVA_AWA_CON	192	Rpleas_acq	Oppo	Lpleas	Amasked	CS_A	1pleas	distractor1	EVAbeforeCON	AMP_CSunple	AMP1_masked	6	42	0	0	300	300	0	0	748	46	0	0	0	0	0	1	blank2r.bmp	0	1	DHJF	0	1	blank2r.bmp	79	88	pic88.bmp	199	1	whitenoise_No3.bmp	306	0	0	0	0	0	0	0	0	0	0	0	0	0	0	0	0	0	0	0	0	0	0	0	0	0	0	0	0	0	0	0	0	0	0	0	0	0	0	0
040419	12:05:29	12:17:44	732891	5.0.10.0	4_exp_AMP_EVA_AWA_CON	192	Rpleas_acq	Oppo	Lpleas	Amasked	CS_A	1pleas	distractor1	EVAbeforeCON	AMP_distractor	AMP1_masked	6	43	0	0	300	300	0	0	601	46	0	0	0	0	0	1	blank2r.bmp	0	1	ZGXT	0	1	blank2r.bmp	79	27	pic27.bmp	199	1	whitenoise_No3.bmp	306	0	0	0	0	0	0	0	0	0	0	0	0	0	0	0	0	0	0	0	0	0	0	0	0	0	0	0	0	0	0	0	0	0	0	0	0	0	0	0
040419	12:05:29	12:17:46	734398	5.0.10.0	4_exp_AMP_EVA_AWA_CON	192	Rpleas_acq	Oppo	Lpleas	Amasked	CS_A	1pleas	distractor1	EVAbeforeCON	AMP_distractor	AMP1_masked	6	44	0	0	300	300	0	0	574	46	0	0	0	0	0	1	blank2r.bmp	0	1	ZGXT	0	1	blank2r.bmp	79	96	pic96.bmp	199	1	whitenoise_No3.bmp	306	0	0	0	0	0	0	0	0	0	0	0	0	0	0	0	0	0	0	0	0	0	0	0	0	0	0	0	0	0	0	0	0	0	0	0	0	0	0	0
040419	12:05:29	12:17:47	735837	5.0.10.0	4_exp_AMP_EVA_AWA_CON	192	Rpleas_acq	Oppo	Lpleas	Amasked	CS_A	1pleas	distractor1	EVAbeforeCON	AMP_CSpleas	AMP1_masked	6	45	0	0	300	300	0	0	530	50	0	0	0	0	0	1	blank2r.bmp	0	1	CPLW	0	1	blank2r.bmp	79	132	pic132.bmp	199	1	whitenoise_No3.bmp	306	0	0	0	0	0	0	0	0	0	0	0	0	0	0	0	0	0	0	0	0	0	0	0	0	0	0	0	0	0	0	0	0	0	0	0	0	0	0	0
040419	12:05:29	12:17:49	737436	5.0.10.0	4_exp_AMP_EVA_AWA_CON	192	Rpleas_acq	Oppo	Lpleas	Amasked	CS_A	1pleas	distractor1	EVAbeforeCON	AMP_CSunple	AMP1_masked	6	46	0	0	300	300	0	0	670	46	0	0	0	0	0	1	blank2r.bmp	0	1	DHJF	0	1	blank2r.bmp	79	140	pic140.bmp	199	1	whitenoise_No3.bmp	306	0	0	0	0	0	0	0	0	0	0	0	0	0	0	0	0	0	0	0	0	0	0	0	0	0	0	0	0	0	0	0	0	0	0	0	0	0	0	0
040419	12:05:29	12:17:50	738889	5.0.10.0	4_exp_AMP_EVA_AWA_CON	192	Rpleas_acq	Oppo	Lpleas	Amasked	CS_A	1pleas	distractor1	EVAbeforeCON	AMP_CSpleas	AMP1_masked	6	47	0	0	300	300	0	0	541	50	0	0	0	0	0	1	blank2r.bmp	0	1	CPLW	0	1	blank2r.bmp	79	11	pic11.bmp	199	1	whitenoise_No3.bmp	306	0	0	0	0	0	0	0	0	0	0	0	0	0	0	0	0	0	0	0	0	0	0	0	0	0	0	0	0	0	0	0	0	0	0	0	0	0	0	0
040419	12:05:29	12:17:52	740515	5.0.10.0	4_exp_AMP_EVA_AWA_CON	192	Rpleas_acq	Oppo	Lpleas	Amasked	CS_A	1pleas	distractor1	EVAbeforeCON	AMP_CSpleas	AMP1_masked	6	48	0	0	300	300	0	0	702	50	0	0	0	0	0	1	blank2r.bmp	0	1	CPLW	0	1	blank2r.bmp	79	42	pic42.bmp	199	1	whitenoise_No3.bmp	306	0	0	0	0	0	0	0	0	0	0	0	0	0	0	0	0	0	0	0	0	0	0	0	0	0	0	0	0	0	0	0	0	0	0	0	0	0	0	0
040419	12:05:29	12:17:54	742514	5.0.10.0	4_exp_AMP_EVA_AWA_CON	192	Rpleas_acq	Oppo	Lpleas	Amasked	CS_A	1pleas	distractor1	EVAbeforeCON	AMP_CSunple	AMP1_masked	6	49	0	0	300	300	0	0	1065	46	0	0	0	0	0	1	blank2r.bmp	0	1	DHJF	0	1	blank2r.bmp	79	72	pic72.bmp	199	1	whitenoise_No3.bmp	306	0	0	0	0	0	0	0	0	0	0	0	0	0	0	0	0	0	0	0	0	0	0	0	0	0	0	0	0	0	0	0	0	0	0	0	0	0	0	0
040419	12:05:29	12:17:55	743980	5.0.10.0	4_exp_AMP_EVA_AWA_CON	192	Rpleas_acq	Oppo	Lpleas	Amasked	CS_A	1pleas	distractor1	EVAbeforeCON	AMP_CSunple	AMP1_masked	6	50	0	0	300	300	0	0	547	46	0	0	0	0	0	1	blank2r.bmp	0	1	DHJF	0	1	blank2r.bmp	79	115	pic115.bmp	199	1	whitenoise_No3.bmp	306	0	0	0	0	0	0	0	0	0	0	0	0	0	0	0	0	0	0	0	0	0	0	0	0	0	0	0	0	0	0	0	0	0	0	0	0	0	0	0
040419	12:05:29	12:17:57	745566	5.0.10.0	4_exp_AMP_EVA_AWA_CON	192	Rpleas_acq	Oppo	Lpleas	Amasked	CS_A	1pleas	distractor1	EVAbeforeCON	AMP_CSpleas	AMP1_masked	6	51	0	0	300	300	0	0	664	50	0	0	0	0	0	1	blank2r.bmp	0	1	CPLW	0	1	blank2r.bmp	79	83	pic83.bmp	199	1	whitenoise_No3.bmp	306	0	0	0	0	0	0	0	0	0	0	0	0	0	0	0	0	0	0	0	0	0	0	0	0	0	0	0	0	0	0	0	0	0	0	0	0	0	0	0
040419	12:05:29	12:18:06	754416	5.0.10.0	4_exp_AMP_EVA_AWA_CON	192	Rpleas_acq	Oppo	Lpleas	Amasked	CS_A	1pleas	distractor1	EVAbeforeCON	AMP_CSunple	AMP23	7	1	0	0	300	300	0	0	716	46	0	0	0	0	0	1	blank2r.bmp	0	1	DHJF	0	1	blank2r.bmp	79	142	pic142.bmp	199	1	whitenoise_No3.bmp	306	0	0	0	0	0	0	0	0	0	0	0	0	0	0	0	0	0	0	0	0	0	0	0	0	0	0	0	0	0	0	0	0	0	0	0	0	0	0	0
040419	12:05:29	12:18:07	756015	5.0.10.0	4_exp_AMP_EVA_AWA_CON	192	Rpleas_acq	Oppo	Lpleas	Amasked	CS_A	1pleas	distractor1	EVAbeforeCON	AMP_CSunple	AMP23	7	2	0	0	300	300	0	0	673	46	0	0	0	0	0	1	blank2r.bmp	0	1	DHJF	0	1	blank2r.bmp	79	82	pic82.bmp	199	1	whitenoise_No3.bmp	306	0	0	0	0	0	0	0	0	0	0	0	0	0	0	0	0	0	0	0	0	0	0	0	0	0	0	0	0	0	0	0	0	0	0	0	0	0	0	0
040419	12:05:29	12:18:09	757441	5.0.10.0	4_exp_AMP_EVA_AWA_CON	192	Rpleas_acq	Oppo	Lpleas	Amasked	CS_A	1pleas	distractor1	EVAbeforeCON	AMP_distractor	AMP23	7	3	0	0	300	300	0	0	507	46	0	0	0	0	0	1	blank2r.bmp	0	1	ZGXT	0	1	blank2r.bmp	79	35	pic35.bmp	199	1	whitenoise_No3.bmp	306	0	0	0	0	0	0	0	0	0	0	0	0	0	0	0	0	0	0	0	0	0	0	0	0	0	0	0	0	0	0	0	0	0	0	0	0	0	0	0
040419	12:05:29	12:18:10	759027	5.0.10.0	4_exp_AMP_EVA_AWA_CON	192	Rpleas_acq	Oppo	Lpleas	Amasked	CS_A	1pleas	distractor1	EVAbeforeCON	AMP_distractor	AMP23	7	4	0	0	300	300	0	0	675	46	0	0	0	0	0	1	blank2r.bmp	0	1	ZGXT	0	1	blank2r.bmp	79	100	pic100.bmp	199	1	whitenoise_No3.bmp	306	0	0	0	0	0	0	0	0	0	0	0	0	0	0	0	0	0	0	0	0	0	0	0	0	0	0	0	0	0	0	0	0	0	0	0	0	0	0	0
040419	12:05:29	12:18:12	760560	5.0.10.0	4_exp_AMP_EVA_AWA_CON	192	Rpleas_acq	Oppo	Lpleas	Amasked	CS_A	1pleas	distractor1	EVAbeforeCON	AMP_distractor	AMP23	7	5	0	0	300	300	0	0	599	46	0	0	0	0	0	1	blank2r.bmp	0	1	ZGXT	0	1	blank2r.bmp	79	101	pic101.bmp	199	1	whitenoise_No3.bmp	306	0	0	0	0	0	0	0	0	0	0	0	0	0	0	0	0	0	0	0	0	0	0	0	0	0	0	0	0	0	0	0	0	0	0	0	0	0	0	0
040419	12:05:29	12:18:14	762226	5.0.10.0	4_exp_AMP_EVA_AWA_CON	192	Rpleas_acq	Oppo	Lpleas	Amasked	CS_A	1pleas	distractor1	EVAbeforeCON	AMP_distractor	AMP23	7	6	0	0	300	300	0	0	747	46	0	0	0	0	0	1	blank2r.bmp	0	1	ZGXT	0	1	blank2r.bmp	79	105	pic105.bmp	199	1	whitenoise_No3.bmp	306	0	0	0	0	0	0	0	0	0	0	0	0	0	0	0	0	0	0	0	0	0	0	0	0	0	0	0	0	0	0	0	0	0	0	0	0	0	0	0
040419	12:05:29	12:18:15	764012	5.0.10.0	4_exp_AMP_EVA_AWA_CON	192	Rpleas_acq	Oppo	Lpleas	Amasked	CS_A	1pleas	distractor1	EVAbeforeCON	AMP_CSpleas	AMP23	7	7	0	0	300	300	0	0	872	46	0	1	0	0	0	1	blank2r.bmp	0	1	CPLW	0	1	blank2r.bmp	79	150	pic150.bmp	199	1	whitenoise_No3.bmp	306	0	0	0	0	0	0	0	0	0	0	0	0	0	0	0	0	0	0	0	0	0	0	0	0	0	0	0	0	0	0	0	0	0	0	0	0	0	0	0
040419	12:05:29	12:18:17	765398	5.0.10.0	4_exp_AMP_EVA_AWA_CON	192	Rpleas_acq	Oppo	Lpleas	Amasked	CS_A	1pleas	distractor1	EVAbeforeCON	AMP_distractor	AMP23	7	8	0	0	300	300	0	0	454	50	0	0	0	0	0	1	blank2r.bmp	0	1	ZGXT	0	1	blank2r.bmp	79	50	pic50.bmp	199	1	whitenoise_No3.bmp	306	0	0	0	0	0	0	0	0	0	0	0	0	0	0	0	0	0	0	0	0	0	0	0	0	0	0	0	0	0	0	0	0	0	0	0	0	0	0	0
040419	12:05:29	12:18:18	766877	5.0.10.0	4_exp_AMP_EVA_AWA_CON	192	Rpleas_acq	Oppo	Lpleas	Amasked	CS_A	1pleas	distractor1	EVAbeforeCON	AMP_distractor	AMP23	7	9	0	0	300	300	0	0	562	50	0	0	0	0	0	1	blank2r.bmp	0	1	ZGXT	0	1	blank2r.bmp	79	34	pic34.bmp	199	1	whitenoise_No3.bmp	306	0	0	0	0	0	0	0	0	0	0	0	0	0	0	0	0	0	0	0	0	0	0	0	0	0	0	0	0	0	0	0	0	0	0	0	0	0	0	0
040419	12:05:29	12:18:20	768397	5.0.10.0	4_exp_AMP_EVA_AWA_CON	192	Rpleas_acq	Oppo	Lpleas	Amasked	CS_A	1pleas	distractor1	EVAbeforeCON	AMP_CSpleas	AMP23	7	10	0	0	300	300	0	0	600	50	0	0	0	0	0	1	blank2r.bmp	0	1	CPLW	0	1	blank2r.bmp	79	62	pic62.bmp	199	1	whitenoise_No3.bmp	306	0	0	0	0	0	0	0	0	0	0	0	0	0	0	0	0	0	0	0	0	0	0	0	0	0	0	0	0	0	0	0	0	0	0	0	0	0	0	0
040419	12:05:29	12:18:21	769903	5.0.10.0	4_exp_AMP_EVA_AWA_CON	192	Rpleas_acq	Oppo	Lpleas	Amasked	CS_A	1pleas	distractor1	EVAbeforeCON	AMP_CSunple	AMP23	7	11	0	0	300	300	0	0	581	46	0	0	0	0	0	1	blank2r.bmp	0	1	DHJF	0	1	blank2r.bmp	79	109	pic109.bmp	199	1	whitenoise_No3.bmp	306	0	0	0	0	0	0	0	0	0	0	0	0	0	0	0	0	0	0	0	0	0	0	0	0	0	0	0	0	0	0	0	0	0	0	0	0	0	0	0
040419	12:05:29	12:18:23	771715	5.0.10.0	4_exp_AMP_EVA_AWA_CON	192	Rpleas_acq	Oppo	Lpleas	Amasked	CS_A	1pleas	distractor1	EVAbeforeCON	AMP_distractor	AMP23	7	12	0	0	300	300	0	0	879	50	0	0	0	0	0	1	blank2r.bmp	0	1	ZGXT	0	1	blank2r.bmp	79	78	pic78.bmp	199	1	whitenoise_No3.bmp	306	0	0	0	0	0	0	0	0	0	0	0	0	0	0	0	0	0	0	0	0	0	0	0	0	0	0	0	0	0	0	0	0	0	0	0	0	0	0	0
040419	12:05:29	12:18:25	773115	5.0.10.0	4_exp_AMP_EVA_AWA_CON	192	Rpleas_acq	Oppo	Lpleas	Amasked	CS_A	1pleas	distractor1	EVAbeforeCON	AMP_CSpleas	AMP23	7	13	0	0	300	300	0	0	490	46	0	1	0	0	0	1	blank2r.bmp	0	1	CPLW	0	1	blank2r.bmp	79	127	pic127.bmp	199	1	whitenoise_No3.bmp	306	0	0	0	0	0	0	0	0	0	0	0	0	0	0	0	0	0	0	0	0	0	0	0	0	0	0	0	0	0	0	0	0	0	0	0	0	0	0	0
040419	12:05:29	12:18:26	774781	5.0.10.0	4_exp_AMP_EVA_AWA_CON	192	Rpleas_acq	Oppo	Lpleas	Amasked	CS_A	1pleas	distractor1	EVAbeforeCON	AMP_CSpleas	AMP23	7	14	0	0	300	300	0	0	734	46	0	1	0	0	0	1	blank2r.bmp	0	1	CPLW	0	1	blank2r.bmp	79	145	pic145.bmp	199	1	whitenoise_No3.bmp	306	0	0	0	0	0	0	0	0	0	0	0	0	0	0	0	0	0	0	0	0	0	0	0	0	0	0	0	0	0	0	0	0	0	0	0	0	0	0	0
040419	12:05:29	12:18:28	776353	5.0.10.0	4_exp_AMP_EVA_AWA_CON	192	Rpleas_acq	Oppo	Lpleas	Amasked	CS_A	1pleas	distractor1	EVAbeforeCON	AMP_CSunple	AMP23	7	15	0	0	300	300	0	0	657	46	0	0	0	0	0	1	blank2r.bmp	0	1	DHJF	0	1	blank2r.bmp	79	24	pic24.bmp	199	1	whitenoise_No3.bmp	306	0	0	0	0	0	0	0	0	0	0	0	0	0	0	0	0	0	0	0	0	0	0	0	0	0	0	0	0	0	0	0	0	0	0	0	0	0	0	0
040419	12:05:29	12:18:29	778046	5.0.10.0	4_exp_AMP_EVA_AWA_CON	192	Rpleas_acq	Oppo	Lpleas	Amasked	CS_A	1pleas	distractor1	EVAbeforeCON	AMP_distractor	AMP23	7	16	0	0	300	300	0	0	771	46	0	0	0	0	0	1	blank2r.bmp	0	1	ZGXT	0	1	blank2r.bmp	79	149	pic149.bmp	199	1	whitenoise_No3.bmp	306	0	0	0	0	0	0	0	0	0	0	0	0	0	0	0	0	0	0	0	0	0	0	0	0	0	0	0	0	0	0	0	0	0	0	0	0	0	0	0
040419	12:05:29	12:18:31	779525	5.0.10.0	4_exp_AMP_EVA_AWA_CON	192	Rpleas_acq	Oppo	Lpleas	Amasked	CS_A	1pleas	distractor1	EVAbeforeCON	AMP_CSunple	AMP23	7	17	0	0	300	300	0	0	551	50	0	1	0	0	0	1	blank2r.bmp	0	1	DHJF	0	1	blank2r.bmp	79	59	pic59.bmp	199	1	whitenoise_No3.bmp	306	0	0	0	0	0	0	0	0	0	0	0	0	0	0	0	0	0	0	0	0	0	0	0	0	0	0	0	0	0	0	0	0	0	0	0	0	0	0	0
040419	12:05:29	12:18:32	780791	5.0.10.0	4_exp_AMP_EVA_AWA_CON	192	Rpleas_acq	Oppo	Lpleas	Amasked	CS_A	1pleas	distractor1	EVAbeforeCON	AMP_CSpleas	AMP23	7	18	0	0	300	300	0	0	348	46	0	1	0	0	0	1	blank2r.bmp	0	1	CPLW	0	1	blank2r.bmp	79	111	pic111.bmp	199	1	whitenoise_No3.bmp	306	0	0	0	0	0	0	0	0	0	0	0	0	0	0	0	0	0	0	0	0	0	0	0	0	0	0	0	0	0	0	0	0	0	0	0	0	0	0	0
040419	12:05:29	12:18:34	782444	5.0.10.0	4_exp_AMP_EVA_AWA_CON	192	Rpleas_acq	Oppo	Lpleas	Amasked	CS_A	1pleas	distractor1	EVAbeforeCON	AMP_CSunple	AMP23	7	19	0	0	300	300	0	0	740	46	0	0	0	0	0	1	blank2r.bmp	0	1	DHJF	0	1	blank2r.bmp	79	126	pic126.bmp	199	1	whitenoise_No3.bmp	306	0	0	0	0	0	0	0	0	0	0	0	0	0	0	0	0	0	0	0	0	0	0	0	0	0	0	0	0	0	0	0	0	0	0	0	0	0	0	0
040419	12:05:29	12:18:35	783923	5.0.10.0	4_exp_AMP_EVA_AWA_CON	192	Rpleas_acq	Oppo	Lpleas	Amasked	CS_A	1pleas	distractor1	EVAbeforeCON	AMP_CSunple	AMP23	7	20	0	0	300	300	0	0	548	50	0	1	0	0	0	1	blank2r.bmp	0	1	DHJF	0	1	blank2r.bmp	79	64	pic64.bmp	199	1	whitenoise_No3.bmp	306	0	0	0	0	0	0	0	0	0	0	0	0	0	0	0	0	0	0	0	0	0	0	0	0	0	0	0	0	0	0	0	0	0	0	0	0	0	0	0
040419	12:05:29	12:18:37	785549	5.0.10.0	4_exp_AMP_EVA_AWA_CON	192	Rpleas_acq	Oppo	Lpleas	Amasked	CS_A	1pleas	distractor1	EVAbeforeCON	AMP_distractor	AMP23	7	21	0	0	300	300	0	0	713	50	0	0	0	0	0	1	blank2r.bmp	0	1	ZGXT	0	1	blank2r.bmp	79	51	pic51.bmp	199	1	whitenoise_No3.bmp	306	0	0	0	0	0	0	0	0	0	0	0	0	0	0	0	0	0	0	0	0	0	0	0	0	0	0	0	0	0	0	0	0	0	0	0	0	0	0	0
040419	12:05:29	12:18:38	787002	5.0.10.0	4_exp_AMP_EVA_AWA_CON	192	Rpleas_acq	Oppo	Lpleas	Amasked	CS_A	1pleas	distractor1	EVAbeforeCON	AMP_distractor	AMP23	7	22	0	0	300	300	0	0	520	46	0	0	0	0	0	1	blank2r.bmp	0	1	ZGXT	0	1	blank2r.bmp	79	112	pic112.bmp	199	1	whitenoise_No3.bmp	306	0	0	0	0	0	0	0	0	0	0	0	0	0	0	0	0	0	0	0	0	0	0	0	0	0	0	0	0	0	0	0	0	0	0	0	0	0	0	0
040419	12:05:29	12:18:40	788535	5.0.10.0	4_exp_AMP_EVA_AWA_CON	192	Rpleas_acq	Oppo	Lpleas	Amasked	CS_A	1pleas	distractor1	EVAbeforeCON	AMP_distractor	AMP23	7	23	0	0	300	300	0	0	621	50	0	0	0	0	0	1	blank2r.bmp	0	1	ZGXT	0	1	blank2r.bmp	79	55	pic55.bmp	199	1	whitenoise_No3.bmp	306	0	0	0	0	0	0	0	0	0	0	0	0	0	0	0	0	0	0	0	0	0	0	0	0	0	0	0	0	0	0	0	0	0	0	0	0	0	0	0
040419	12:05:29	12:18:41	789988	5.0.10.0	4_exp_AMP_EVA_AWA_CON	192	Rpleas_acq	Oppo	Lpleas	Amasked	CS_A	1pleas	distractor1	EVAbeforeCON	AMP_CSpleas	AMP23	7	24	0	0	300	300	0	0	522	46	0	1	0	0	0	1	blank2r.bmp	0	1	CPLW	0	1	blank2r.bmp	79	9	pic9.bmp	199	1	whitenoise_No3.bmp	306	0	0	0	0	0	0	0	0	0	0	0	0	0	0	0	0	0	0	0	0	0	0	0	0	0	0	0	0	0	0	0	0	0	0	0	0	0	0	0
040419	12:05:29	12:18:43	791254	5.0.10.0	4_exp_AMP_EVA_AWA_CON	192	Rpleas_acq	Oppo	Lpleas	Amasked	CS_A	1pleas	distractor1	EVAbeforeCON	AMP_CSpleas	AMP23	7	25	0	0	300	300	0	0	339	46	0	1	0	0	0	1	blank2r.bmp	0	1	CPLW	0	1	blank2r.bmp	79	134	pic134.bmp	199	1	whitenoise_No3.bmp	306	0	0	0	0	0	0	0	0	0	0	0	0	0	0	0	0	0	0	0	0	0	0	0	0	0	0	0	0	0	0	0	0	0	0	0	0	0	0	0
040419	12:05:29	12:18:44	792920	5.0.10.0	4_exp_AMP_EVA_AWA_CON	192	Rpleas_acq	Oppo	Lpleas	Amasked	CS_A	1pleas	distractor1	EVAbeforeCON	AMP_CSpleas	AMP23	7	26	0	0	300	300	0	0	745	46	0	1	0	0	0	1	blank2r.bmp	0	1	CPLW	0	1	blank2r.bmp	79	36	pic36.bmp	199	1	whitenoise_No3.bmp	306	0	0	0	0	0	0	0	0	0	0	0	0	0	0	0	0	0	0	0	0	0	0	0	0	0	0	0	0	0	0	0	0	0	0	0	0	0	0	0
040419	12:05:29	12:18:46	794466	5.0.10.0	4_exp_AMP_EVA_AWA_CON	192	Rpleas_acq	Oppo	Lpleas	Amasked	CS_A	1pleas	distractor1	EVAbeforeCON	AMP_distractor	AMP23	7	27	0	0	300	300	0	0	617	46	0	0	0	0	0	1	blank2r.bmp	0	1	ZGXT	0	1	blank2r.bmp	79	92	pic92.bmp	199	1	whitenoise_No3.bmp	306	0	0	0	0	0	0	0	0	0	0	0	0	0	0	0	0	0	0	0	0	0	0	0	0	0	0	0	0	0	0	0	0	0	0	0	0	0	0	0
040419	12:05:29	12:18:47	795892	5.0.10.0	4_exp_AMP_EVA_AWA_CON	192	Rpleas_acq	Oppo	Lpleas	Amasked	CS_A	1pleas	distractor1	EVAbeforeCON	AMP_CSpleas	AMP23	7	28	0	0	300	300	0	0	506	50	0	0	0	0	0	1	blank2r.bmp	0	1	CPLW	0	1	blank2r.bmp	79	13	pic13.bmp	199	1	whitenoise_No3.bmp	306	0	0	0	0	0	0	0	0	0	0	0	0	0	0	0	0	0	0	0	0	0	0	0	0	0	0	0	0	0	0	0	0	0	0	0	0	0	0	0
040419	12:05:29	12:18:49	797571	5.0.10.0	4_exp_AMP_EVA_AWA_CON	192	Rpleas_acq	Oppo	Lpleas	Amasked	CS_A	1pleas	distractor1	EVAbeforeCON	AMP_CSunple	AMP23	7	29	0	0	300	300	0	0	770	50	0	1	0	0	0	1	blank2r.bmp	0	1	DHJF	0	1	blank2r.bmp	79	49	pic49.bmp	199	1	whitenoise_No3.bmp	306	0	0	0	0	0	0	0	0	0	0	0	0	0	0	0	0	0	0	0	0	0	0	0	0	0	0	0	0	0	0	0	0	0	0	0	0	0	0	0
040419	12:05:29	12:18:51	799757	5.0.10.0	4_exp_AMP_EVA_AWA_CON	192	Rpleas_acq	Oppo	Lpleas	Amasked	CS_A	1pleas	distractor1	EVAbeforeCON	AMP_CSpleas	AMP23	7	30	0	0	300	300	0	0	1272	50	0	0	0	0	0	1	blank2r.bmp	0	1	CPLW	0	1	blank2r.bmp	79	85	pic85.bmp	199	1	whitenoise_No3.bmp	306	0	0	0	0	0	0	0	0	0	0	0	0	0	0	0	0	0	0	0	0	0	0	0	0	0	0	0	0	0	0	0	0	0	0	0	0	0	0	0
040419	12:05:29	12:18:53	801209	5.0.10.0	4_exp_AMP_EVA_AWA_CON	192	Rpleas_acq	Oppo	Lpleas	Amasked	CS_A	1pleas	distractor1	EVAbeforeCON	AMP_distractor	AMP23	7	31	0	0	300	300	0	0	533	46	0	0	0	0	0	1	blank2r.bmp	0	1	ZGXT	0	1	blank2r.bmp	79	79	pic79.bmp	199	1	whitenoise_No3.bmp	306	0	0	0	0	0	0	0	0	0	0	0	0	0	0	0	0	0	0	0	0	0	0	0	0	0	0	0	0	0	0	0	0	0	0	0	0	0	0	0
040419	12:05:29	12:18:54	802756	5.0.10.0	4_exp_AMP_EVA_AWA_CON	192	Rpleas_acq	Oppo	Lpleas	Amasked	CS_A	1pleas	distractor1	EVAbeforeCON	AMP_CSunple	AMP23	7	32	0	0	300	300	0	0	633	46	0	0	0	0	0	1	blank2r.bmp	0	1	DHJF	0	1	blank2r.bmp	79	77	pic77.bmp	199	1	whitenoise_No3.bmp	306	0	0	0	0	0	0	0	0	0	0	0	0	0	0	0	0	0	0	0	0	0	0	0	0	0	0	0	0	0	0	0	0	0	0	0	0	0	0	0
040419	12:05:29	12:18:56	804435	5.0.10.0	4_exp_AMP_EVA_AWA_CON	192	Rpleas_acq	Oppo	Lpleas	Amasked	CS_A	1pleas	distractor1	EVAbeforeCON	AMP_distractor	AMP23	7	33	0	0	300	300	0	0	748	50	0	0	0	0	0	1	blank2r.bmp	0	1	ZGXT	0	1	blank2r.bmp	79	73	pic73.bmp	199	1	whitenoise_No3.bmp	306	0	0	0	0	0	0	0	0	0	0	0	0	0	0	0	0	0	0	0	0	0	0	0	0	0	0	0	0	0	0	0	0	0	0	0	0	0	0	0
040419	12:05:29	12:18:57	805834	5.0.10.0	4_exp_AMP_EVA_AWA_CON	192	Rpleas_acq	Oppo	Lpleas	Amasked	CS_A	1pleas	distractor1	EVAbeforeCON	AMP_CSunple	AMP23	7	34	0	0	300	300	0	0	491	46	0	0	0	0	0	1	blank2r.bmp	0	1	DHJF	0	1	blank2r.bmp	79	114	pic114.bmp	199	1	whitenoise_No3.bmp	306	0	0	0	0	0	0	0	0	0	0	0	0	0	0	0	0	0	0	0	0	0	0	0	0	0	0	0	0	0	0	0	0	0	0	0	0	0	0	0
040419	12:05:29	12:18:59	807474	5.0.10.0	4_exp_AMP_EVA_AWA_CON	192	Rpleas_acq	Oppo	Lpleas	Amasked	CS_A	1pleas	distractor1	EVAbeforeCON	AMP_CSunple	AMP23	7	35	0	0	300	300	0	0	714	50	0	1	0	0	0	1	blank2r.bmp	0	1	DHJF	0	1	blank2r.bmp	79	66	pic66.bmp	199	1	whitenoise_No3.bmp	306	0	0	0	0	0	0	0	0	0	0	0	0	0	0	0	0	0	0	0	0	0	0	0	0	0	0	0	0	0	0	0	0	0	0	0	0	0	0	0
