date	time	script.currenttime	script.elapsedtime	build	script.currentexpt	subject	expressions.LRpleas_acq	expressions.SameOppo	expressions.condition_Lpleas	expressions.ABmasked	expressions.conditionCS_A	expressions.condition_1pleas	expressions.condition_distractor_AMP	expressions.AWACON_AMPEVA_first	trialcode	blockcode	blocknum	trialnum	windowcenter	inwindow	pretrialpause	posttrialpause	trialduration	trialtimeout	latency	response	expressions.correctedscore	correct	values.vis_performance	values.vis_rating_sum	values.vis_rating_mean	stimulusnumber1	stimulusitem1	stimulusonset1	stimulusnumber2	stimulusitem2	stimulusonset2	stimulusnumber3	stimulusitem3	stimulusonset3	stimulusnumber4	stimulusitem4	stimulusonset4	stimulusnumber5	stimulusitem5	stimulusonset5	stimulusnumber6	stimulusitem6	stimulusonset6	stimulusnumber7	stimulusitem7	stimulusonset7	stimulusnumber8	stimulusitem8	stimulusonset8	stimulusnumber9	stimulusitem9	stimulusonset9	stimulusnumber10	stimulusitem10	stimulusonset10	stimulusnumber11	stimulusitem11	stimulusonset11	stimulusnumber12	stimulusitem12	stimulusonset12	stimulusnumber13	stimulusitem13	stimulusonset13	stimulusnumber14	stimulusitem14	stimulusonset14	stimulusnumber15	stimulusitem15	stimulusonset15	stimulusnumber16	stimulusitem16	stimulusonset16	stimulusnumber17	stimulusitem17	stimulusonset17	stimulusnumber18	stimulusitem18	stimulusonset18
121318	14:50:46	14:51:41	54284	5.0.10.0	4_exp_AWA_CON_EVA_AMP	14	Rpleas_acq	Same	Rpleas	Amasked	CS_A	1pleas	distractor2	CONbeforeEVA	acq_US_pleas_masked	acq1_masked	1	1	0	0	300	300	0	0	972	50	0	1	0	0	0	1	blank2r.bmp	0	1	+	0	2	B2r.bmp	492	1	blank2r.bmp	786	1	CPLW	786	1	blank2r.bmp	866	4	kreativ	866	0	0	0	0	0	0	0	0	0	0	0	0	0	0	0	0	0	0	0	0	0	0	0	0	0	0	0	0	0	0	0	0	0
121318	14:50:46	14:51:43	56869	5.0.10.0	4_exp_AWA_CON_EVA_AMP	14	Rpleas_acq	Same	Rpleas	Amasked	CS_A	1pleas	distractor2	CONbeforeEVA	acq_US_unple_masked	acq1_masked	1	2	0	0	300	300	0	0	1098	46	0	1	0	0	0	1	blank2r.bmp	0	1	+	0	7	C3r.bmp	492	1	blank2r.bmp	786	1	DHJF	786	1	blank2r.bmp	866	5	verbissen	866	0	0	0	0	0	0	0	0	0	0	0	0	0	0	0	0	0	0	0	0	0	0	0	0	0	0	0	0	0	0	0	0	0
121318	14:50:46	14:51:46	59162	5.0.10.0	4_exp_AWA_CON_EVA_AMP	14	Rpleas_acq	Same	Rpleas	Amasked	CS_A	1pleas	distractor2	CONbeforeEVA	acq_US_unple_masked	acq1_masked	1	3	0	0	300	300	0	0	799	46	0	1	0	0	0	1	blank2r.bmp	0	1	+	0	4	B4r.bmp	492	1	blank2r.bmp	786	1	DHJF	786	1	blank2r.bmp	866	3	bange	866	0	0	0	0	0	0	0	0	0	0	0	0	0	0	0	0	0	0	0	0	0	0	0	0	0	0	0	0	0	0	0	0	0
121318	14:50:46	14:51:48	61147	5.0.10.0	4_exp_AWA_CON_EVA_AMP	14	Rpleas_acq	Same	Rpleas	Amasked	CS_A	1pleas	distractor2	CONbeforeEVA	acq_US_pleas_masked	acq1_masked	1	4	0	0	300	300	0	0	509	50	0	1	0	0	0	1	blank2r.bmp	0	1	+	0	5	C1r.bmp	492	1	blank2r.bmp	786	1	CPLW	786	1	blank2r.bmp	866	3	besonnen	866	0	0	0	0	0	0	0	0	0	0	0	0	0	0	0	0	0	0	0	0	0	0	0	0	0	0	0	0	0	0	0	0	0
121318	14:50:46	14:51:50	63293	5.0.10.0	4_exp_AWA_CON_EVA_AMP	14	Rpleas_acq	Same	Rpleas	Amasked	CS_A	1pleas	distractor2	CONbeforeEVA	acq_new_unple_masked	acq1_masked	1	5	0	0	300	300	0	0	653	46	0	1	0	0	0	1	blank2r.bmp	0	1	+	0	3	B3r.bmp	492	1	blank2r.bmp	786	2	B2r.bmp	786	1	blank2r.bmp	866	2	gemein	866	0	0	0	0	0	0	0	0	0	0	0	0	0	0	0	0	0	0	0	0	0	0	0	0	0	0	0	0	0	0	0	0	0
121318	14:50:46	14:51:52	65332	5.0.10.0	4_exp_AWA_CON_EVA_AMP	14	Rpleas_acq	Same	Rpleas	Amasked	CS_A	1pleas	distractor2	CONbeforeEVA	acq_new_pleas_masked	acq1_masked	1	6	0	0	300	300	0	0	560	50	0	1	0	0	0	1	blank2r.bmp	0	1	+	0	1	B1r.bmp	492	1	blank2r.bmp	786	7	C3r.bmp	786	1	blank2r.bmp	866	2	genießen	866	0	0	0	0	0	0	0	0	0	0	0	0	0	0	0	0	0	0	0	0	0	0	0	0	0	0	0	0	0	0	0	0	0
121318	14:50:46	14:51:54	67745	5.0.10.0	4_exp_AWA_CON_EVA_AMP	14	Rpleas_acq	Same	Rpleas	Amasked	CS_A	1pleas	distractor2	CONbeforeEVA	acq_new_pleas_masked	acq1_masked	1	7	0	0	300	300	0	0	931	50	0	1	0	0	0	1	blank2r.bmp	0	1	+	0	6	C2r.bmp	492	1	blank2r.bmp	786	3	B3r.bmp	786	1	blank2r.bmp	866	1	träumen	866	0	0	0	0	0	0	0	0	0	0	0	0	0	0	0	0	0	0	0	0	0	0	0	0	0	0	0	0	0	0	0	0	0
121318	14:50:46	14:51:56	69731	5.0.10.0	4_exp_AWA_CON_EVA_AMP	14	Rpleas_acq	Same	Rpleas	Amasked	CS_A	1pleas	distractor2	CONbeforeEVA	acq_US_unple_masked	acq1_masked	1	8	0	0	300	300	0	0	529	46	0	1	0	0	0	1	blank2r.bmp	0	1	+	0	8	C4r.bmp	492	1	blank2r.bmp	786	1	DHJF	786	1	blank2r.bmp	866	2	versagen	866	0	0	0	0	0	0	0	0	0	0	0	0	0	0	0	0	0	0	0	0	0	0	0	0	0	0	0	0	0	0	0	0	0
121318	14:50:46	14:51:58	71970	5.0.10.0	4_exp_AWA_CON_EVA_AMP	14	Rpleas_acq	Same	Rpleas	Amasked	CS_A	1pleas	distractor2	CONbeforeEVA	acq_new_unple_masked	acq1_masked	1	9	0	0	300	300	0	0	765	46	0	1	0	0	0	1	blank2r.bmp	0	1	+	0	8	C4r.bmp	492	1	blank2r.bmp	786	6	C2r.bmp	786	1	blank2r.bmp	866	1	töten	866	0	0	0	0	0	0	0	0	0	0	0	0	0	0	0	0	0	0	0	0	0	0	0	0	0	0	0	0	0	0	0	0	0
121318	14:50:46	14:52:00	73955	5.0.10.0	4_exp_AWA_CON_EVA_AMP	14	Rpleas_acq	Same	Rpleas	Amasked	CS_A	1pleas	distractor2	CONbeforeEVA	acq_US_pleas_masked	acq1_masked	1	10	0	0	300	300	0	0	492	50	0	1	0	0	0	1	blank2r.bmp	0	1	+	0	5	C1r.bmp	492	1	blank2r.bmp	786	1	CPLW	786	1	blank2r.bmp	866	1	gütig	866	0	0	0	0	0	0	0	0	0	0	0	0	0	0	0	0	0	0	0	0	0	0	0	0	0	0	0	0	0	0	0	0	0
121318	14:50:46	14:52:02	75901	5.0.10.0	4_exp_AWA_CON_EVA_AMP	14	Rpleas_acq	Same	Rpleas	Amasked	CS_A	1pleas	distractor2	CONbeforeEVA	acq_new_pleas_masked	acq1_masked	1	11	0	0	300	300	0	0	466	50	0	1	0	0	0	1	blank2r.bmp	0	1	+	0	3	B3r.bmp	492	1	blank2r.bmp	786	5	C1r.bmp	786	1	blank2r.bmp	866	5	kuss	866	0	0	0	0	0	0	0	0	0	0	0	0	0	0	0	0	0	0	0	0	0	0	0	0	0	0	0	0	0	0	0	0	0
121318	14:50:46	14:52:04	77927	5.0.10.0	4_exp_AWA_CON_EVA_AMP	14	Rpleas_acq	Same	Rpleas	Amasked	CS_A	1pleas	distractor2	CONbeforeEVA	acq_new_unple_masked	acq1_masked	1	12	0	0	300	300	0	0	536	46	0	1	0	0	0	1	blank2r.bmp	0	1	+	0	1	B1r.bmp	492	1	blank2r.bmp	786	4	B4r.bmp	786	1	blank2r.bmp	866	4	sterben	866	0	0	0	0	0	0	0	0	0	0	0	0	0	0	0	0	0	0	0	0	0	0	0	0	0	0	0	0	0	0	0	0	0
121318	14:50:46	14:52:07	80006	5.0.10.0	4_exp_AWA_CON_EVA_AMP	14	Rpleas_acq	Same	Rpleas	Amasked	CS_A	1pleas	distractor2	CONbeforeEVA	acq_new_unple_masked	acq1_masked	1	13	0	0	300	300	0	0	586	46	0	1	0	0	0	1	blank2r.bmp	0	1	+	0	4	B4r.bmp	492	1	blank2r.bmp	786	8	C4r.bmp	786	1	blank2r.bmp	866	6	ausrottung	866	0	0	0	0	0	0	0	0	0	0	0	0	0	0	0	0	0	0	0	0	0	0	0	0	0	0	0	0	0	0	0	0	0
121318	14:50:46	14:52:09	82325	5.0.10.0	4_exp_AWA_CON_EVA_AMP	14	Rpleas_acq	Same	Rpleas	Amasked	CS_A	1pleas	distractor2	CONbeforeEVA	acq_US_unple_masked	acq1_masked	1	14	0	0	300	300	0	0	623	50	0	0	0	0	0	1	blank2r.bmp	0	1	+	0	6	C2r.bmp	492	1	blank2r.bmp	786	1	DHJF	786	1	blank2r.bmp	866	6	geizig	866	1	FEHLER	1519	0	0	0	0	0	0	0	0	0	0	0	0	0	0	0	0	0	0	0	0	0	0	0	0	0	0	0	0	0	0
121318	14:50:46	14:52:11	84351	5.0.10.0	4_exp_AWA_CON_EVA_AMP	14	Rpleas_acq	Same	Rpleas	Amasked	CS_A	1pleas	distractor2	CONbeforeEVA	acq_US_unple_masked	acq1_masked	1	15	0	0	300	300	0	0	754	46	0	1	0	0	0	1	blank2r.bmp	0	1	+	0	7	C3r.bmp	492	1	blank2r.bmp	786	1	DHJF	786	1	blank2r.bmp	866	1	gierig	866	0	0	0	0	0	0	0	0	0	0	0	0	0	0	0	0	0	0	0	0	0	0	0	0	0	0	0	0	0	0	0	0	0
121318	14:50:46	14:52:13	86390	5.0.10.0	4_exp_AWA_CON_EVA_AMP	14	Rpleas_acq	Same	Rpleas	Amasked	CS_A	1pleas	distractor2	CONbeforeEVA	acq_US_pleas_masked	acq1_masked	1	16	0	0	300	300	0	0	549	50	0	1	0	0	0	1	blank2r.bmp	0	1	+	0	2	B2r.bmp	492	1	blank2r.bmp	786	1	CPLW	786	1	blank2r.bmp	866	2	vertrauen	866	0	0	0	0	0	0	0	0	0	0	0	0	0	0	0	0	0	0	0	0	0	0	0	0	0	0	0	0	0	0	0	0	0
121318	14:50:46	14:52:15	88589	5.0.10.0	4_exp_AWA_CON_EVA_AMP	14	Rpleas_acq	Same	Rpleas	Amasked	CS_A	1pleas	distractor2	CONbeforeEVA	acq_new_pleas_masked	acq1_masked	1	17	0	0	300	300	0	0	725	50	0	1	0	0	0	1	blank2r.bmp	0	1	+	0	6	C2r.bmp	492	1	blank2r.bmp	786	1	B1r.bmp	786	1	blank2r.bmp	866	4	sonnig	866	0	0	0	0	0	0	0	0	0	0	0	0	0	0	0	0	0	0	0	0	0	0	0	0	0	0	0	0	0	0	0	0	0
121318	14:50:46	14:52:17	90735	5.0.10.0	4_exp_AWA_CON_EVA_AMP	14	Rpleas_acq	Same	Rpleas	Amasked	CS_A	1pleas	distractor2	CONbeforeEVA	acq_new_pleas_masked	acq1_masked	1	18	0	0	300	300	0	0	665	50	0	1	0	0	0	1	blank2r.bmp	0	1	+	0	4	B4r.bmp	492	1	blank2r.bmp	786	7	C3r.bmp	786	1	blank2r.bmp	866	3	engagiert	866	0	0	0	0	0	0	0	0	0	0	0	0	0	0	0	0	0	0	0	0	0	0	0	0	0	0	0	0	0	0	0	0	0
121318	14:50:46	14:52:19	92894	5.0.10.0	4_exp_AWA_CON_EVA_AMP	14	Rpleas_acq	Same	Rpleas	Amasked	CS_A	1pleas	distractor2	CONbeforeEVA	acq_US_unple_masked	acq1_masked	1	19	0	0	300	300	0	0	680	46	0	1	0	0	0	1	blank2r.bmp	0	1	+	0	2	B2r.bmp	492	1	blank2r.bmp	786	1	DHJF	786	1	blank2r.bmp	866	4	krank	866	0	0	0	0	0	0	0	0	0	0	0	0	0	0	0	0	0	0	0	0	0	0	0	0	0	0	0	0	0	0	0	0	0
121318	14:50:46	14:52:22	95200	5.0.10.0	4_exp_AWA_CON_EVA_AMP	14	Rpleas_acq	Same	Rpleas	Amasked	CS_A	1pleas	distractor2	CONbeforeEVA	acq_new_unple_masked	acq1_masked	1	20	0	0	300	300	0	0	827	46	0	1	0	0	0	1	blank2r.bmp	0	1	+	0	1	B1r.bmp	492	1	blank2r.bmp	786	8	C4r.bmp	786	1	blank2r.bmp	866	3	engstirnig	866	0	0	0	0	0	0	0	0	0	0	0	0	0	0	0	0	0	0	0	0	0	0	0	0	0	0	0	0	0	0	0	0	0
121318	14:50:46	14:52:24	97199	5.0.10.0	4_exp_AWA_CON_EVA_AMP	14	Rpleas_acq	Same	Rpleas	Amasked	CS_A	1pleas	distractor2	CONbeforeEVA	acq_US_pleas_masked	acq1_masked	1	21	0	0	300	300	0	0	506	50	0	1	0	0	0	1	blank2r.bmp	0	1	+	0	5	C1r.bmp	492	1	blank2r.bmp	786	1	CPLW	786	1	blank2r.bmp	866	5	vergnügt	866	0	0	0	0	0	0	0	0	0	0	0	0	0	0	0	0	0	0	0	0	0	0	0	0	0	0	0	0	0	0	0	0	0
121318	14:50:46	14:52:26	99265	5.0.10.0	4_exp_AWA_CON_EVA_AMP	14	Rpleas_acq	Same	Rpleas	Amasked	CS_A	1pleas	distractor2	CONbeforeEVA	acq_new_unple_masked	acq1_masked	1	22	0	0	300	300	0	0	588	46	0	1	0	0	0	1	blank2r.bmp	0	1	+	0	8	C4r.bmp	492	1	blank2r.bmp	786	1	B1r.bmp	786	1	blank2r.bmp	866	5	krise	866	0	0	0	0	0	0	0	0	0	0	0	0	0	0	0	0	0	0	0	0	0	0	0	0	0	0	0	0	0	0	0	0	0
121318	14:50:46	14:52:28	101757	5.0.10.0	4_exp_AWA_CON_EVA_AMP	14	Rpleas_acq	Same	Rpleas	Amasked	CS_A	1pleas	distractor2	CONbeforeEVA	acq_new_pleas_masked	acq1_masked	1	23	0	0	300	300	0	0	802	46	0	0	0	0	0	1	blank2r.bmp	0	1	+	0	7	C3r.bmp	492	1	blank2r.bmp	786	4	B4r.bmp	786	1	blank2r.bmp	866	6	anregung	866	1	FEHLER	1705	0	0	0	0	0	0	0	0	0	0	0	0	0	0	0	0	0	0	0	0	0	0	0	0	0	0	0	0	0	0
121318	14:50:46	14:52:32	105289	5.0.10.0	4_exp_AWA_CON_EVA_AMP	14	Rpleas_acq	Same	Rpleas	Amasked	CS_A	1pleas	distractor2	CONbeforeEVA	acq_US_pleas_masked	acq1_masked	1	24	0	0	300	300	0	0	2277	50	0	1	0	0	0	1	blank2r.bmp	0	1	+	0	3	B3r.bmp	492	1	blank2r.bmp	786	1	CPLW	786	1	blank2r.bmp	866	6	gesittet	866	0	0	0	0	0	0	0	0	0	0	0	0	0	0	0	0	0	0	0	0	0	0	0	0	0	0	0	0	0	0	0	0	0
121318	14:50:46	14:52:34	107528	5.0.10.0	4_exp_AWA_CON_EVA_AMP	14	Rpleas_acq	Same	Rpleas	Amasked	CS_A	1pleas	distractor2	CONbeforeEVA	acq_new_unple_masked	acq1_masked	1	25	0	0	300	300	0	0	749	46	0	1	0	0	0	1	blank2r.bmp	0	1	+	0	7	C3r.bmp	492	1	blank2r.bmp	786	6	C2r.bmp	786	1	blank2r.bmp	866	4	sterben	866	0	0	0	0	0	0	0	0	0	0	0	0	0	0	0	0	0	0	0	0	0	0	0	0	0	0	0	0	0	0	0	0	0
121318	14:50:46	14:52:36	109501	5.0.10.0	4_exp_AWA_CON_EVA_AMP	14	Rpleas_acq	Same	Rpleas	Amasked	CS_A	1pleas	distractor2	CONbeforeEVA	acq_new_pleas_masked	acq1_masked	1	26	0	0	300	300	0	0	501	50	0	1	0	0	0	1	blank2r.bmp	0	1	+	0	1	B1r.bmp	492	1	blank2r.bmp	786	2	B2r.bmp	786	1	blank2r.bmp	866	5	kuss	866	0	0	0	0	0	0	0	0	0	0	0	0	0	0	0	0	0	0	0	0	0	0	0	0	0	0	0	0	0	0	0	0	0
121318	14:50:46	14:52:38	111593	5.0.10.0	4_exp_AWA_CON_EVA_AMP	14	Rpleas_acq	Same	Rpleas	Amasked	CS_A	1pleas	distractor2	CONbeforeEVA	acq_US_pleas_masked	acq1_masked	1	27	0	0	300	300	0	0	611	50	0	1	0	0	0	1	blank2r.bmp	0	1	+	0	5	C1r.bmp	492	1	blank2r.bmp	786	1	CPLW	786	1	blank2r.bmp	866	6	gesittet	866	0	0	0	0	0	0	0	0	0	0	0	0	0	0	0	0	0	0	0	0	0	0	0	0	0	0	0	0	0	0	0	0	0
121318	14:50:46	14:52:40	113646	5.0.10.0	4_exp_AWA_CON_EVA_AMP	14	Rpleas_acq	Same	Rpleas	Amasked	CS_A	1pleas	distractor2	CONbeforeEVA	acq_new_unple_masked	acq1_masked	1	28	0	0	300	300	0	0	564	46	0	1	0	0	0	1	blank2r.bmp	0	1	+	0	2	B2r.bmp	492	1	blank2r.bmp	786	3	B3r.bmp	786	1	blank2r.bmp	866	6	ausrottung	866	0	0	0	0	0	0	0	0	0	0	0	0	0	0	0	0	0	0	0	0	0	0	0	0	0	0	0	0	0	0	0	0	0
121318	14:50:46	14:52:42	115618	5.0.10.0	4_exp_AWA_CON_EVA_AMP	14	Rpleas_acq	Same	Rpleas	Amasked	CS_A	1pleas	distractor2	CONbeforeEVA	acq_new_unple_masked	acq1_masked	1	29	0	0	300	300	0	0	498	46	0	1	0	0	0	1	blank2r.bmp	0	1	+	0	8	C4r.bmp	492	1	blank2r.bmp	786	5	C1r.bmp	786	1	blank2r.bmp	866	1	töten	866	0	0	0	0	0	0	0	0	0	0	0	0	0	0	0	0	0	0	0	0	0	0	0	0	0	0	0	0	0	0	0	0	0
121318	14:50:46	14:52:44	117578	5.0.10.0	4_exp_AWA_CON_EVA_AMP	14	Rpleas_acq	Same	Rpleas	Amasked	CS_A	1pleas	distractor2	CONbeforeEVA	acq_US_unple_masked	acq1_masked	1	30	0	0	300	300	0	0	478	46	0	1	0	0	0	1	blank2r.bmp	0	1	+	0	6	C2r.bmp	492	1	blank2r.bmp	786	1	DHJF	786	1	blank2r.bmp	866	5	verbissen	866	0	0	0	0	0	0	0	0	0	0	0	0	0	0	0	0	0	0	0	0	0	0	0	0	0	0	0	0	0	0	0	0	0
121318	14:50:46	14:52:46	119577	5.0.10.0	4_exp_AWA_CON_EVA_AMP	14	Rpleas_acq	Same	Rpleas	Amasked	CS_A	1pleas	distractor2	CONbeforeEVA	acq_US_pleas_masked	acq1_masked	1	31	0	0	300	300	0	0	508	50	0	1	0	0	0	1	blank2r.bmp	0	1	+	0	3	B3r.bmp	492	1	blank2r.bmp	786	1	CPLW	786	1	blank2r.bmp	866	3	besonnen	866	0	0	0	0	0	0	0	0	0	0	0	0	0	0	0	0	0	0	0	0	0	0	0	0	0	0	0	0	0	0	0	0	0
121318	14:50:46	14:52:48	121576	5.0.10.0	4_exp_AWA_CON_EVA_AMP	14	Rpleas_acq	Same	Rpleas	Amasked	CS_A	1pleas	distractor2	CONbeforeEVA	acq_US_unple_masked	acq1_masked	1	32	0	0	300	300	0	0	529	46	0	1	0	0	0	1	blank2r.bmp	0	1	+	0	4	B4r.bmp	492	1	blank2r.bmp	786	1	DHJF	786	1	blank2r.bmp	866	1	gierig	866	0	0	0	0	0	0	0	0	0	0	0	0	0	0	0	0	0	0	0	0	0	0	0	0	0	0	0	0	0	0	0	0	0
121318	14:50:46	14:52:50	123548	5.0.10.0	4_exp_AWA_CON_EVA_AMP	14	Rpleas_acq	Same	Rpleas	Amasked	CS_A	1pleas	distractor2	CONbeforeEVA	acq_new_pleas_masked	acq1_masked	1	33	0	0	300	300	0	0	489	50	0	1	0	0	0	1	blank2r.bmp	0	1	+	0	8	C4r.bmp	492	1	blank2r.bmp	786	7	C3r.bmp	786	1	blank2r.bmp	866	4	sonnig	866	0	0	0	0	0	0	0	0	0	0	0	0	0	0	0	0	0	0	0	0	0	0	0	0	0	0	0	0	0	0	0	0	0
121318	14:50:46	14:52:52	125561	5.0.10.0	4_exp_AWA_CON_EVA_AMP	14	Rpleas_acq	Same	Rpleas	Amasked	CS_A	1pleas	distractor2	CONbeforeEVA	acq_US_unple_masked	acq1_masked	1	34	0	0	300	300	0	0	540	46	0	1	0	0	0	1	blank2r.bmp	0	1	+	0	4	B4r.bmp	492	1	blank2r.bmp	786	1	DHJF	786	1	blank2r.bmp	866	2	versagen	866	0	0	0	0	0	0	0	0	0	0	0	0	0	0	0	0	0	0	0	0	0	0	0	0	0	0	0	0	0	0	0	0	0
121318	14:50:46	14:52:54	127627	5.0.10.0	4_exp_AWA_CON_EVA_AMP	14	Rpleas_acq	Same	Rpleas	Amasked	CS_A	1pleas	distractor2	CONbeforeEVA	acq_US_pleas_masked	acq1_masked	1	35	0	0	300	300	0	0	593	50	0	1	0	0	0	1	blank2r.bmp	0	1	+	0	2	B2r.bmp	492	1	blank2r.bmp	786	1	CPLW	786	1	blank2r.bmp	866	5	vergnügt	866	0	0	0	0	0	0	0	0	0	0	0	0	0	0	0	0	0	0	0	0	0	0	0	0	0	0	0	0	0	0	0	0	0
121318	14:50:46	14:52:56	129653	5.0.10.0	4_exp_AWA_CON_EVA_AMP	14	Rpleas_acq	Same	Rpleas	Amasked	CS_A	1pleas	distractor2	CONbeforeEVA	acq_new_pleas_masked	acq1_masked	1	36	0	0	300	300	0	0	539	50	0	1	0	0	0	1	blank2r.bmp	0	1	+	0	7	C3r.bmp	492	1	blank2r.bmp	786	4	B4r.bmp	786	1	blank2r.bmp	866	3	engagiert	866	0	0	0	0	0	0	0	0	0	0	0	0	0	0	0	0	0	0	0	0	0	0	0	0	0	0	0	0	0	0	0	0	0
121318	14:50:46	14:53:22	155882	5.0.10.0	4_exp_AWA_CON_EVA_AMP	14	Rpleas_acq	Same	Rpleas	Amasked	CS_A	1pleas	distractor2	CONbeforeEVA	acq_US_unple_masked	acq2_masked	2	1	480	0	300	300	0	0	5258	46	0	1	0	0	0	1	blank2r.bmp	0	1	+	0	6	C2r.bmp	492	1	blank2r.bmp	786	1	DHJF	786	1	blank2r.bmp	866	3	bange	866	1	!	1319	1	!	-1	0	0	0	0	0	0	0	0	0	0	0	0	0	0	0	0	0	0	0	0	0	0	0	0	0	0	0
121318	14:50:46	14:53:25	158334	5.0.10.0	4_exp_AWA_CON_EVA_AMP	14	Rpleas_acq	Same	Rpleas	Amasked	CS_A	1pleas	distractor2	CONbeforeEVA	acq_US_unple_masked	acq2_masked	2	2	480	0	300	300	0	0	678	46	0	1	0	0	0	1	blank2r.bmp	0	1	+	0	1	B1r.bmp	492	1	blank2r.bmp	786	1	DHJF	786	1	blank2r.bmp	866	6	geizig	866	1	!	1319	1	!	-1	0	0	0	0	0	0	0	0	0	0	0	0	0	0	0	0	0	0	0	0	0	0	0	0	0	0	0
121318	14:50:46	14:53:27	160840	5.0.10.0	4_exp_AWA_CON_EVA_AMP	14	Rpleas_acq	Same	Rpleas	Amasked	CS_A	1pleas	distractor2	CONbeforeEVA	acq_new_unple_masked	acq2_masked	2	3	480	1	300	300	0	0	479	50	0	0	0	0	0	1	blank2r.bmp	0	1	+	0	5	C1r.bmp	492	1	blank2r.bmp	786	3	B3r.bmp	786	1	blank2r.bmp	866	3	engstirnig	866	1	FEHLER	1705	1	!	1319	1	!	1386	0	0	0	0	0	0	0	0	0	0	0	0	0	0	0	0	0	0	0	0	0	0	0	0
121318	14:50:46	14:53:29	162866	5.0.10.0	4_exp_AWA_CON_EVA_AMP	14	Rpleas_acq	Same	Rpleas	Amasked	CS_A	1pleas	distractor2	CONbeforeEVA	acq_new_pleas_masked	acq2_masked	2	4	480	1	300	300	0	0	433	50	0	1	0	0	0	1	blank2r.bmp	0	1	+	0	3	B3r.bmp	492	1	blank2r.bmp	786	8	C4r.bmp	786	1	blank2r.bmp	866	6	anregung	866	1	!	1319	1	!	1332	0	0	0	0	0	0	0	0	0	0	0	0	0	0	0	0	0	0	0	0	0	0	0	0	0	0	0
121318	14:50:46	14:53:32	164998	5.0.10.0	4_exp_AWA_CON_EVA_AMP	14	Rpleas_acq	Same	Rpleas	Amasked	CS_A	1pleas	distractor2	CONbeforeEVA	acq_US_pleas_masked	acq2_masked	2	5	480	0	300	300	0	0	365	50	0	1	0	0	0	1	blank2r.bmp	0	1	+	0	7	C3r.bmp	492	1	blank2r.bmp	786	1	CPLW	786	1	blank2r.bmp	866	4	kreativ	866	1	!	-1	1	!	-1	0	0	0	0	0	0	0	0	0	0	0	0	0	0	0	0	0	0	0	0	0	0	0	0	0	0	0
121318	14:50:46	14:53:34	167424	5.0.10.0	4_exp_AWA_CON_EVA_AMP	14	Rpleas_acq	Same	Rpleas	Amasked	CS_A	1pleas	distractor2	CONbeforeEVA	acq_US_pleas_masked	acq2_masked	2	6	480	0	300	300	0	0	638	50	0	1	0	0	0	1	blank2r.bmp	0	1	+	0	6	C2r.bmp	492	1	blank2r.bmp	786	1	CPLW	786	1	blank2r.bmp	866	1	gütig	866	1	!	1319	1	!	-1	0	0	0	0	0	0	0	0	0	0	0	0	0	0	0	0	0	0	0	0	0	0	0	0	0	0	0
121318	14:50:46	14:53:36	169676	5.0.10.0	4_exp_AWA_CON_EVA_AMP	14	Rpleas_acq	Same	Rpleas	Amasked	CS_A	1pleas	distractor2	CONbeforeEVA	acq_US_unple_masked	acq2_masked	2	7	480	1	300	300	0	0	451	46	0	1	0	0	0	1	blank2r.bmp	0	1	+	0	3	B3r.bmp	492	1	blank2r.bmp	786	1	DHJF	786	1	blank2r.bmp	866	4	krank	866	1	!	1319	1	!	1346	0	0	0	0	0	0	0	0	0	0	0	0	0	0	0	0	0	0	0	0	0	0	0	0	0	0	0
121318	14:50:46	14:53:38	171809	5.0.10.0	4_exp_AWA_CON_EVA_AMP	14	Rpleas_acq	Same	Rpleas	Amasked	CS_A	1pleas	distractor2	CONbeforeEVA	acq_new_pleas_masked	acq2_masked	2	8	480	0	300	300	0	0	357	50	0	1	0	0	0	1	blank2r.bmp	0	1	+	0	8	C4r.bmp	492	1	blank2r.bmp	786	1	B1r.bmp	786	1	blank2r.bmp	866	1	träumen	866	1	!	-1	1	!	-1	0	0	0	0	0	0	0	0	0	0	0	0	0	0	0	0	0	0	0	0	0	0	0	0	0	0	0
121318	14:50:46	14:53:41	174314	5.0.10.0	4_exp_AWA_CON_EVA_AMP	14	Rpleas_acq	Same	Rpleas	Amasked	CS_A	1pleas	distractor2	CONbeforeEVA	acq_US_pleas_masked	acq2_masked	2	9	480	1	300	300	0	0	481	46	0	0	0	0	0	1	blank2r.bmp	0	1	+	0	5	C1r.bmp	492	1	blank2r.bmp	786	1	CPLW	786	1	blank2r.bmp	866	2	vertrauen	866	1	FEHLER	1705	1	!	1319	1	!	1386	0	0	0	0	0	0	0	0	0	0	0	0	0	0	0	0	0	0	0	0	0	0	0	0
121318	14:50:46	14:53:43	176607	5.0.10.0	4_exp_AWA_CON_EVA_AMP	14	Rpleas_acq	Same	Rpleas	Amasked	CS_A	1pleas	distractor2	CONbeforeEVA	acq_new_unple_masked	acq2_masked	2	10	480	1	300	300	0	0	504	50	0	0	0	0	0	1	blank2r.bmp	0	1	+	0	1	B1r.bmp	492	1	blank2r.bmp	786	5	C1r.bmp	786	1	blank2r.bmp	866	5	krise	866	1	FEHLER	1719	1	!	1319	1	!	1399	0	0	0	0	0	0	0	0	0	0	0	0	0	0	0	0	0	0	0	0	0	0	0	0
121318	14:50:46	14:53:45	178832	5.0.10.0	4_exp_AWA_CON_EVA_AMP	14	Rpleas_acq	Same	Rpleas	Amasked	CS_A	1pleas	distractor2	CONbeforeEVA	acq_new_unple_masked	acq2_masked	2	11	480	1	300	300	0	0	435	50	0	0	0	0	0	1	blank2r.bmp	0	1	+	0	2	B2r.bmp	492	1	blank2r.bmp	786	6	C2r.bmp	786	1	blank2r.bmp	866	2	gemein	866	1	FEHLER	1652	1	!	1319	1	!	1332	0	0	0	0	0	0	0	0	0	0	0	0	0	0	0	0	0	0	0	0	0	0	0	0
121318	14:50:46	14:53:47	180951	5.0.10.0	4_exp_AWA_CON_EVA_AMP	14	Rpleas_acq	Same	Rpleas	Amasked	CS_A	1pleas	distractor2	CONbeforeEVA	acq_new_pleas_masked	acq2_masked	2	12	480	1	300	300	0	0	536	50	0	1	0	0	0	1	blank2r.bmp	0	1	+	0	4	B4r.bmp	492	1	blank2r.bmp	786	2	B2r.bmp	786	1	blank2r.bmp	866	2	genießen	866	1	!	1319	1	!	1439	0	0	0	0	0	0	0	0	0	0	0	0	0	0	0	0	0	0	0	0	0	0	0	0	0	0	0
121318	14:50:46	14:53:50	183204	5.0.10.0	4_exp_AWA_CON_EVA_AMP	14	Rpleas_acq	Same	Rpleas	Amasked	CS_A	1pleas	distractor2	CONbeforeEVA	acq_US_unple_masked	acq2_masked	2	13	480	1	300	300	0	0	456	46	0	1	0	0	0	1	blank2r.bmp	0	1	+	0	1	B1r.bmp	492	1	blank2r.bmp	786	1	DHJF	786	1	blank2r.bmp	866	6	geizig	866	1	!	1319	1	!	1359	0	0	0	0	0	0	0	0	0	0	0	0	0	0	0	0	0	0	0	0	0	0	0	0	0	0	0
121318	14:50:46	14:53:52	185363	5.0.10.0	4_exp_AWA_CON_EVA_AMP	14	Rpleas_acq	Same	Rpleas	Amasked	CS_A	1pleas	distractor2	CONbeforeEVA	acq_new_pleas_masked	acq2_masked	2	14	480	0	300	300	0	0	397	50	0	1	0	0	0	1	blank2r.bmp	0	1	+	0	4	B4r.bmp	492	1	blank2r.bmp	786	8	C4r.bmp	786	1	blank2r.bmp	866	5	kuss	866	1	!	-1	1	!	-1	0	0	0	0	0	0	0	0	0	0	0	0	0	0	0	0	0	0	0	0	0	0	0	0	0	0	0
121318	14:50:46	14:53:54	187642	5.0.10.0	4_exp_AWA_CON_EVA_AMP	14	Rpleas_acq	Same	Rpleas	Amasked	CS_A	1pleas	distractor2	CONbeforeEVA	acq_new_pleas_masked	acq2_masked	2	15	480	1	300	300	0	0	475	50	0	1	0	0	0	1	blank2r.bmp	0	1	+	0	6	C2r.bmp	492	1	blank2r.bmp	786	2	B2r.bmp	786	1	blank2r.bmp	866	4	sonnig	866	1	!	1319	1	!	1372	0	0	0	0	0	0	0	0	0	0	0	0	0	0	0	0	0	0	0	0	0	0	0	0	0	0	0
121318	14:50:46	14:53:56	189801	5.0.10.0	4_exp_AWA_CON_EVA_AMP	14	Rpleas_acq	Same	Rpleas	Amasked	CS_A	1pleas	distractor2	CONbeforeEVA	acq_US_unple_masked	acq2_masked	2	16	480	0	300	300	0	0	387	46	0	1	0	0	0	1	blank2r.bmp	0	1	+	0	7	C3r.bmp	492	1	blank2r.bmp	786	1	DHJF	786	1	blank2r.bmp	866	5	verbissen	866	1	!	-1	1	!	-1	0	0	0	0	0	0	0	0	0	0	0	0	0	0	0	0	0	0	0	0	0	0	0	0	0	0	0
121318	14:50:46	14:53:59	192000	5.0.10.0	4_exp_AWA_CON_EVA_AMP	14	Rpleas_acq	Same	Rpleas	Amasked	CS_A	1pleas	distractor2	CONbeforeEVA	acq_new_unple_masked	acq2_masked	2	17	480	0	300	300	0	0	408	46	0	1	0	0	0	1	blank2r.bmp	0	1	+	0	5	C1r.bmp	492	1	blank2r.bmp	786	4	B4r.bmp	786	1	blank2r.bmp	866	2	gemein	866	1	!	-1	1	!	-1	0	0	0	0	0	0	0	0	0	0	0	0	0	0	0	0	0	0	0	0	0	0	0	0	0	0	0
121318	14:50:46	14:54:01	194359	5.0.10.0	4_exp_AWA_CON_EVA_AMP	14	Rpleas_acq	Same	Rpleas	Amasked	CS_A	1pleas	distractor2	CONbeforeEVA	acq_US_unple_masked	acq2_masked	2	18	480	0	300	300	0	0	336	50	0	0	0	0	0	1	blank2r.bmp	0	1	+	0	2	B2r.bmp	492	1	blank2r.bmp	786	1	DHJF	786	1	blank2r.bmp	866	1	gierig	866	1	FEHLER	1546	1	!	-1	1	!	-1	0	0	0	0	0	0	0	0	0	0	0	0	0	0	0	0	0	0	0	0	0	0	0	0
121318	14:50:46	14:54:03	196598	5.0.10.0	4_exp_AWA_CON_EVA_AMP	14	Rpleas_acq	Same	Rpleas	Amasked	CS_A	1pleas	distractor2	CONbeforeEVA	acq_new_unple_masked	acq2_masked	2	19	480	1	300	300	0	0	440	50	0	0	0	0	0	1	blank2r.bmp	0	1	+	0	8	C4r.bmp	492	1	blank2r.bmp	786	5	C1r.bmp	786	1	blank2r.bmp	866	6	ausrottung	866	1	FEHLER	1665	1	!	1319	1	!	1346	0	0	0	0	0	0	0	0	0	0	0	0	0	0	0	0	0	0	0	0	0	0	0	0
121318	14:50:46	14:54:05	198624	5.0.10.0	4_exp_AWA_CON_EVA_AMP	14	Rpleas_acq	Same	Rpleas	Amasked	CS_A	1pleas	distractor2	CONbeforeEVA	acq_US_pleas_masked	acq2_masked	2	20	480	1	300	300	0	0	440	50	0	1	0	0	0	1	blank2r.bmp	0	1	+	0	3	B3r.bmp	492	1	blank2r.bmp	786	1	CPLW	786	1	blank2r.bmp	866	4	kreativ	866	1	!	1319	1	!	1346	0	0	0	0	0	0	0	0	0	0	0	0	0	0	0	0	0	0	0	0	0	0	0	0	0	0	0
121318	14:50:46	14:54:07	200797	5.0.10.0	4_exp_AWA_CON_EVA_AMP	14	Rpleas_acq	Same	Rpleas	Amasked	CS_A	1pleas	distractor2	CONbeforeEVA	acq_US_pleas_masked	acq2_masked	2	21	480	0	300	300	0	0	401	50	0	1	0	0	0	1	blank2r.bmp	0	1	+	0	8	C4r.bmp	492	1	blank2r.bmp	786	1	CPLW	786	1	blank2r.bmp	866	5	vergnügt	866	1	!	-1	1	!	-1	0	0	0	0	0	0	0	0	0	0	0	0	0	0	0	0	0	0	0	0	0	0	0	0	0	0	0
121318	14:50:46	14:54:09	202969	5.0.10.0	4_exp_AWA_CON_EVA_AMP	14	Rpleas_acq	Same	Rpleas	Amasked	CS_A	1pleas	distractor2	CONbeforeEVA	acq_new_unple_masked	acq2_masked	2	22	480	0	300	300	0	0	394	46	0	1	0	0	0	1	blank2r.bmp	0	1	+	0	3	B3r.bmp	492	1	blank2r.bmp	786	7	C3r.bmp	786	1	blank2r.bmp	866	5	krise	866	1	!	-1	1	!	-1	0	0	0	0	0	0	0	0	0	0	0	0	0	0	0	0	0	0	0	0	0	0	0	0	0	0	0
121318	14:50:46	14:54:12	205275	5.0.10.0	4_exp_AWA_CON_EVA_AMP	14	Rpleas_acq	Same	Rpleas	Amasked	CS_A	1pleas	distractor2	CONbeforeEVA	acq_new_pleas_masked	acq2_masked	2	23	480	1	300	300	0	0	496	50	0	1	0	0	0	1	blank2r.bmp	0	1	+	0	2	B2r.bmp	492	1	blank2r.bmp	786	3	B3r.bmp	786	1	blank2r.bmp	866	6	anregung	866	1	!	1319	1	!	1399	0	0	0	0	0	0	0	0	0	0	0	0	0	0	0	0	0	0	0	0	0	0	0	0	0	0	0
121318	14:50:46	14:54:14	207620	5.0.10.0	4_exp_AWA_CON_EVA_AMP	14	Rpleas_acq	Same	Rpleas	Amasked	CS_A	1pleas	distractor2	CONbeforeEVA	acq_US_pleas_masked	acq2_masked	2	24	480	0	300	300	0	0	559	50	0	1	0	0	0	1	blank2r.bmp	0	1	+	0	5	C1r.bmp	492	1	blank2r.bmp	786	1	CPLW	786	1	blank2r.bmp	866	6	gesittet	866	1	!	1319	1	!	-1	0	0	0	0	0	0	0	0	0	0	0	0	0	0	0	0	0	0	0	0	0	0	0	0	0	0	0
121318	14:50:46	14:54:16	209886	5.0.10.0	4_exp_AWA_CON_EVA_AMP	14	Rpleas_acq	Same	Rpleas	Amasked	CS_A	1pleas	distractor2	CONbeforeEVA	acq_new_pleas_masked	acq2_masked	2	25	480	1	300	300	0	0	455	50	0	1	0	0	0	1	blank2r.bmp	0	1	+	0	4	B4r.bmp	492	1	blank2r.bmp	786	1	B1r.bmp	786	1	blank2r.bmp	866	2	genießen	866	1	!	1319	1	!	1359	0	0	0	0	0	0	0	0	0	0	0	0	0	0	0	0	0	0	0	0	0	0	0	0	0	0	0
121318	14:50:46	14:54:18	211992	5.0.10.0	4_exp_AWA_CON_EVA_AMP	14	Rpleas_acq	Same	Rpleas	Amasked	CS_A	1pleas	distractor2	CONbeforeEVA	acq_US_pleas_masked	acq2_masked	2	26	480	0	300	300	0	0	343	50	0	1	0	0	0	1	blank2r.bmp	0	1	+	0	1	B1r.bmp	492	1	blank2r.bmp	786	1	CPLW	786	1	blank2r.bmp	866	3	besonnen	866	1	!	-1	1	!	-1	0	0	0	0	0	0	0	0	0	0	0	0	0	0	0	0	0	0	0	0	0	0	0	0	0	0	0
121318	14:50:46	14:54:21	214284	5.0.10.0	4_exp_AWA_CON_EVA_AMP	14	Rpleas_acq	Same	Rpleas	Amasked	CS_A	1pleas	distractor2	CONbeforeEVA	acq_new_unple_masked	acq2_masked	2	27	480	1	300	300	0	0	482	46	0	1	0	0	0	1	blank2r.bmp	0	1	+	0	7	C3r.bmp	492	1	blank2r.bmp	786	6	C2r.bmp	786	1	blank2r.bmp	866	1	töten	866	1	!	1319	1	!	1386	0	0	0	0	0	0	0	0	0	0	0	0	0	0	0	0	0	0	0	0	0	0	0	0	0	0	0
121318	14:50:46	14:54:23	216590	5.0.10.0	4_exp_AWA_CON_EVA_AMP	14	Rpleas_acq	Same	Rpleas	Amasked	CS_A	1pleas	distractor2	CONbeforeEVA	acq_US_pleas_masked	acq2_masked	2	28	480	0	300	300	0	0	316	46	0	0	0	0	0	1	blank2r.bmp	0	1	+	0	6	C2r.bmp	492	1	blank2r.bmp	786	1	CPLW	786	1	blank2r.bmp	866	1	gütig	866	1	FEHLER	1519	1	!	-1	1	!	-1	0	0	0	0	0	0	0	0	0	0	0	0	0	0	0	0	0	0	0	0	0	0	0	0
121318	14:50:46	14:54:25	218523	5.0.10.0	4_exp_AWA_CON_EVA_AMP	14	Rpleas_acq	Same	Rpleas	Amasked	CS_A	1pleas	distractor2	CONbeforeEVA	acq_US_pleas_masked	acq2_masked	2	29	480	0	300	300	0	0	383	50	0	1	0	0	0	1	blank2r.bmp	0	1	+	0	2	B2r.bmp	492	1	blank2r.bmp	786	1	CPLW	786	1	blank2r.bmp	866	2	vertrauen	866	1	!	-1	1	!	-1	0	0	0	0	0	0	0	0	0	0	0	0	0	0	0	0	0	0	0	0	0	0	0	0	0	0	0
121318	14:50:46	14:54:27	220775	5.0.10.0	4_exp_AWA_CON_EVA_AMP	14	Rpleas_acq	Same	Rpleas	Amasked	CS_A	1pleas	distractor2	CONbeforeEVA	acq_US_unple_masked	acq2_masked	2	30	480	1	300	300	0	0	444	46	0	1	0	0	0	1	blank2r.bmp	0	1	+	0	7	C3r.bmp	492	1	blank2r.bmp	786	1	DHJF	786	1	blank2r.bmp	866	4	krank	866	1	!	1319	1	!	1346	0	0	0	0	0	0	0	0	0	0	0	0	0	0	0	0	0	0	0	0	0	0	0	0	0	0	0
121318	14:50:46	14:54:30	223014	5.0.10.0	4_exp_AWA_CON_EVA_AMP	14	Rpleas_acq	Same	Rpleas	Amasked	CS_A	1pleas	distractor2	CONbeforeEVA	acq_new_unple_masked	acq2_masked	2	31	480	1	300	300	0	0	445	46	0	1	0	0	0	1	blank2r.bmp	0	1	+	0	5	C1r.bmp	492	1	blank2r.bmp	786	3	B3r.bmp	786	1	blank2r.bmp	866	4	sterben	866	1	!	1319	1	!	1346	0	0	0	0	0	0	0	0	0	0	0	0	0	0	0	0	0	0	0	0	0	0	0	0	0	0	0
121318	14:50:46	14:54:32	225187	5.0.10.0	4_exp_AWA_CON_EVA_AMP	14	Rpleas_acq	Same	Rpleas	Amasked	CS_A	1pleas	distractor2	CONbeforeEVA	acq_new_unple_masked	acq2_masked	2	32	480	0	300	300	0	0	401	46	0	1	0	0	0	1	blank2r.bmp	0	1	+	0	8	C4r.bmp	492	1	blank2r.bmp	786	1	B1r.bmp	786	1	blank2r.bmp	866	3	engstirnig	866	1	!	-1	1	!	-1	0	0	0	0	0	0	0	0	0	0	0	0	0	0	0	0	0	0	0	0	0	0	0	0	0	0	0
121318	14:50:46	14:54:34	227386	5.0.10.0	4_exp_AWA_CON_EVA_AMP	14	Rpleas_acq	Same	Rpleas	Amasked	CS_A	1pleas	distractor2	CONbeforeEVA	acq_US_unple_masked	acq2_masked	2	33	480	0	300	300	0	0	411	46	0	1	0	0	0	1	blank2r.bmp	0	1	+	0	1	B1r.bmp	492	1	blank2r.bmp	786	1	DHJF	786	1	blank2r.bmp	866	3	bange	866	1	!	-1	1	!	-1	0	0	0	0	0	0	0	0	0	0	0	0	0	0	0	0	0	0	0	0	0	0	0	0	0	0	0
121318	14:50:46	14:54:36	229545	5.0.10.0	4_exp_AWA_CON_EVA_AMP	14	Rpleas_acq	Same	Rpleas	Amasked	CS_A	1pleas	distractor2	CONbeforeEVA	acq_new_pleas_masked	acq2_masked	2	34	480	0	300	300	0	0	375	50	0	1	0	0	0	1	blank2r.bmp	0	1	+	0	6	C2r.bmp	492	1	blank2r.bmp	786	2	B2r.bmp	786	1	blank2r.bmp	866	1	träumen	866	1	!	-1	1	!	-1	0	0	0	0	0	0	0	0	0	0	0	0	0	0	0	0	0	0	0	0	0	0	0	0	0	0	0
121318	14:50:46	14:54:38	231797	5.0.10.0	4_exp_AWA_CON_EVA_AMP	14	Rpleas_acq	Same	Rpleas	Amasked	CS_A	1pleas	distractor2	CONbeforeEVA	acq_US_unple_masked	acq2_masked	2	35	480	1	300	300	0	0	447	46	0	1	0	0	0	1	blank2r.bmp	0	1	+	0	4	B4r.bmp	492	1	blank2r.bmp	786	1	DHJF	786	1	blank2r.bmp	866	2	versagen	866	1	!	1319	1	!	1346	0	0	0	0	0	0	0	0	0	0	0	0	0	0	0	0	0	0	0	0	0	0	0	0	0	0	0
121318	14:50:46	14:54:41	234143	5.0.10.0	4_exp_AWA_CON_EVA_AMP	14	Rpleas_acq	Same	Rpleas	Amasked	CS_A	1pleas	distractor2	CONbeforeEVA	acq_new_pleas_masked	acq2_masked	2	36	480	0	300	300	0	0	348	46	0	0	0	0	0	1	blank2r.bmp	0	1	+	0	3	B3r.bmp	492	1	blank2r.bmp	786	7	C3r.bmp	786	1	blank2r.bmp	866	3	engagiert	866	1	FEHLER	1559	1	!	-1	1	!	-1	0	0	0	0	0	0	0	0	0	0	0	0	0	0	0	0	0	0	0	0	0	0	0	0
121318	14:50:46	14:55:06	259093	5.0.10.0	4_exp_AWA_CON_EVA_AMP	14	Rpleas_acq	Same	Rpleas	Amasked	CS_A	1pleas	distractor2	CONbeforeEVA	acq_US_pleas_masked	acq3_masked	3	1	453	1	300	300	0	0	399	46	0	0	0	0	0	1	blank2r.bmp	0	1	+	0	5	C1r.bmp	492	1	blank2r.bmp	786	1	CPLW	786	1	blank2r.bmp	866	5	vergnügt	866	1	FEHLER	1625	1	!	1292	1	!	1306	0	0	0	0	0	0	0	0	0	0	0	0	0	0	0	0	0	0	0	0	0	0	0	0
121318	14:50:46	14:55:08	261305	5.0.10.0	4_exp_AWA_CON_EVA_AMP	14	Rpleas_acq	Same	Rpleas	Amasked	CS_A	1pleas	distractor2	CONbeforeEVA	acq_US_pleas_masked	acq3_masked	3	2	453	1	300	300	0	0	413	46	0	0	0	0	0	1	blank2r.bmp	0	1	+	0	7	C3r.bmp	492	1	blank2r.bmp	786	1	CPLW	786	1	blank2r.bmp	866	4	kreativ	866	1	FEHLER	1639	1	!	1292	1	!	1319	0	0	0	0	0	0	0	0	0	0	0	0	0	0	0	0	0	0	0	0	0	0	0	0
121318	14:50:46	14:55:10	263224	5.0.10.0	4_exp_AWA_CON_EVA_AMP	14	Rpleas_acq	Same	Rpleas	Amasked	CS_A	1pleas	distractor2	CONbeforeEVA	acq_US_unple_masked	acq3_masked	3	3	453	0	300	300	0	0	370	46	0	1	0	0	0	1	blank2r.bmp	0	1	+	0	1	B1r.bmp	492	1	blank2r.bmp	786	1	DHJF	786	1	blank2r.bmp	866	4	krank	866	1	!	-1	1	!	-1	0	0	0	0	0	0	0	0	0	0	0	0	0	0	0	0	0	0	0	0	0	0	0	0	0	0	0
121318	14:50:46	14:55:12	265437	5.0.10.0	4_exp_AWA_CON_EVA_AMP	14	Rpleas_acq	Same	Rpleas	Amasked	CS_A	1pleas	distractor2	CONbeforeEVA	acq_US_unple_masked	acq3_masked	3	4	453	1	300	300	0	0	402	46	0	1	0	0	0	1	blank2r.bmp	0	1	+	0	6	C2r.bmp	492	1	blank2r.bmp	786	1	DHJF	786	1	blank2r.bmp	866	6	geizig	866	1	!	1292	1	!	1306	0	0	0	0	0	0	0	0	0	0	0	0	0	0	0	0	0	0	0	0	0	0	0	0	0	0	0
121318	14:50:46	14:55:14	267862	5.0.10.0	4_exp_AWA_CON_EVA_AMP	14	Rpleas_acq	Same	Rpleas	Amasked	CS_A	1pleas	distractor2	CONbeforeEVA	acq_US_unple_masked	acq3_masked	3	5	453	1	300	300	0	0	412	50	0	0	0	0	0	1	blank2r.bmp	0	1	+	0	4	B4r.bmp	492	1	blank2r.bmp	786	1	DHJF	786	1	blank2r.bmp	866	1	gierig	866	1	FEHLER	1639	1	!	1292	1	!	1319	0	0	0	0	0	0	0	0	0	0	0	0	0	0	0	0	0	0	0	0	0	0	0	0
121318	14:50:46	14:55:16	269795	5.0.10.0	4_exp_AWA_CON_EVA_AMP	14	Rpleas_acq	Same	Rpleas	Amasked	CS_A	1pleas	distractor2	CONbeforeEVA	acq_US_unple_masked	acq3_masked	3	6	453	0	300	300	0	0	381	46	0	1	0	0	0	1	blank2r.bmp	0	1	+	0	2	B2r.bmp	492	1	blank2r.bmp	786	1	DHJF	786	1	blank2r.bmp	866	2	versagen	866	1	!	-1	1	!	-1	0	0	0	0	0	0	0	0	0	0	0	0	0	0	0	0	0	0	0	0	0	0	0	0	0	0	0
121318	14:50:46	14:55:19	272021	5.0.10.0	4_exp_AWA_CON_EVA_AMP	14	Rpleas_acq	Same	Rpleas	Amasked	CS_A	1pleas	distractor2	CONbeforeEVA	acq_US_pleas_masked	acq3_masked	3	7	453	1	300	300	0	0	416	50	0	1	0	0	0	1	blank2r.bmp	0	1	+	0	3	B3r.bmp	492	1	blank2r.bmp	786	1	CPLW	786	1	blank2r.bmp	866	1	gütig	866	1	!	1292	1	!	1319	0	0	0	0	0	0	0	0	0	0	0	0	0	0	0	0	0	0	0	0	0	0	0	0	0	0	0
121318	14:50:46	14:55:21	274246	5.0.10.0	4_exp_AWA_CON_EVA_AMP	14	Rpleas_acq	Same	Rpleas	Amasked	CS_A	1pleas	distractor2	CONbeforeEVA	acq_US_unple_masked	acq3_masked	3	8	453	1	300	300	0	0	436	46	0	1	0	0	0	1	blank2r.bmp	0	1	+	0	8	C4r.bmp	492	1	blank2r.bmp	786	1	DHJF	786	1	blank2r.bmp	866	3	bange	866	1	!	1292	1	!	1332	0	0	0	0	0	0	0	0	0	0	0	0	0	0	0	0	0	0	0	0	0	0	0	0	0	0	0
121318	14:50:46	14:55:23	276459	5.0.10.0	4_exp_AWA_CON_EVA_AMP	14	Rpleas_acq	Same	Rpleas	Amasked	CS_A	1pleas	distractor2	CONbeforeEVA	acq_US_pleas_masked	acq3_masked	3	9	453	1	300	300	0	0	419	50	0	1	0	0	0	1	blank2r.bmp	0	1	+	0	6	C2r.bmp	492	1	blank2r.bmp	786	1	CPLW	786	1	blank2r.bmp	866	2	vertrauen	866	1	!	1292	1	!	1319	0	0	0	0	0	0	0	0	0	0	0	0	0	0	0	0	0	0	0	0	0	0	0	0	0	0	0
121318	14:50:46	14:55:25	278871	5.0.10.0	4_exp_AWA_CON_EVA_AMP	14	Rpleas_acq	Same	Rpleas	Amasked	CS_A	1pleas	distractor2	CONbeforeEVA	acq_US_pleas_masked	acq3_masked	3	10	453	1	300	300	0	0	399	46	0	0	0	0	0	1	blank2r.bmp	0	1	+	0	5	C1r.bmp	492	1	blank2r.bmp	786	1	CPLW	786	1	blank2r.bmp	866	3	besonnen	866	1	FEHLER	1625	1	!	1292	1	!	1306	0	0	0	0	0	0	0	0	0	0	0	0	0	0	0	0	0	0	0	0	0	0	0	0
121318	14:50:46	14:55:27	280964	5.0.10.0	4_exp_AWA_CON_EVA_AMP	14	Rpleas_acq	Same	Rpleas	Amasked	CS_A	1pleas	distractor2	CONbeforeEVA	acq_US_unple_masked	acq3_masked	3	11	453	1	300	300	0	0	514	46	0	1	0	0	0	1	blank2r.bmp	0	1	+	0	8	C4r.bmp	492	1	blank2r.bmp	786	1	DHJF	786	1	blank2r.bmp	866	5	verbissen	866	1	!	1292	1	!	1412	0	0	0	0	0	0	0	0	0	0	0	0	0	0	0	0	0	0	0	0	0	0	0	0	0	0	0
121318	14:50:46	14:55:30	283083	5.0.10.0	4_exp_AWA_CON_EVA_AMP	14	Rpleas_acq	Same	Rpleas	Amasked	CS_A	1pleas	distractor2	CONbeforeEVA	acq_US_pleas_masked	acq3_masked	3	12	453	0	300	300	0	0	337	50	0	1	0	0	0	1	blank2r.bmp	0	1	+	0	7	C3r.bmp	492	1	blank2r.bmp	786	1	CPLW	786	1	blank2r.bmp	866	6	gesittet	866	1	!	-1	1	!	-1	0	0	0	0	0	0	0	0	0	0	0	0	0	0	0	0	0	0	0	0	0	0	0	0	0	0	0
121318	14:50:46	14:55:32	285295	5.0.10.0	4_exp_AWA_CON_EVA_AMP	14	Rpleas_acq	Same	Rpleas	Amasked	CS_A	1pleas	distractor2	CONbeforeEVA	acq_US_unple_masked	acq3_masked	3	13	453	1	300	300	0	0	402	46	0	1	0	0	0	1	blank2r.bmp	0	1	+	0	4	B4r.bmp	492	1	blank2r.bmp	786	1	DHJF	786	1	blank2r.bmp	866	6	geizig	866	1	!	1292	1	!	1306	0	0	0	0	0	0	0	0	0	0	0	0	0	0	0	0	0	0	0	0	0	0	0	0	0	0	0
121318	14:50:46	14:55:34	287454	5.0.10.0	4_exp_AWA_CON_EVA_AMP	14	Rpleas_acq	Same	Rpleas	Amasked	CS_A	1pleas	distractor2	CONbeforeEVA	acq_US_pleas_masked	acq3_masked	3	14	453	0	300	300	0	0	385	50	0	1	0	0	0	1	blank2r.bmp	0	1	+	0	1	B1r.bmp	492	1	blank2r.bmp	786	1	CPLW	786	1	blank2r.bmp	866	1	gütig	866	1	!	-1	1	!	-1	0	0	0	0	0	0	0	0	0	0	0	0	0	0	0	0	0	0	0	0	0	0	0	0	0	0	0
121318	14:50:46	14:55:36	289600	5.0.10.0	4_exp_AWA_CON_EVA_AMP	14	Rpleas_acq	Same	Rpleas	Amasked	CS_A	1pleas	distractor2	CONbeforeEVA	acq_US_unple_masked	acq3_masked	3	15	453	0	300	300	0	0	363	46	0	1	0	0	0	1	blank2r.bmp	0	1	+	0	2	B2r.bmp	492	1	blank2r.bmp	786	1	DHJF	786	1	blank2r.bmp	866	5	verbissen	866	1	!	-1	1	!	-1	0	0	0	0	0	0	0	0	0	0	0	0	0	0	0	0	0	0	0	0	0	0	0	0	0	0	0
121318	14:50:46	14:55:38	291879	5.0.10.0	4_exp_AWA_CON_EVA_AMP	14	Rpleas_acq	Same	Rpleas	Amasked	CS_A	1pleas	distractor2	CONbeforeEVA	acq_US_unple_masked	acq3_masked	3	16	453	1	300	300	0	0	471	46	0	1	0	0	0	1	blank2r.bmp	0	1	+	0	3	B3r.bmp	492	1	blank2r.bmp	786	1	DHJF	786	1	blank2r.bmp	866	4	krank	866	1	!	1292	1	!	1372	0	0	0	0	0	0	0	0	0	0	0	0	0	0	0	0	0	0	0	0	0	0	0	0	0	0	0
121318	14:50:46	14:55:41	294092	5.0.10.0	4_exp_AWA_CON_EVA_AMP	14	Rpleas_acq	Same	Rpleas	Amasked	CS_A	1pleas	distractor2	CONbeforeEVA	acq_US_unple_masked	acq3_masked	3	17	453	1	300	300	0	0	418	46	0	1	0	0	0	1	blank2r.bmp	0	1	+	0	3	B3r.bmp	492	1	blank2r.bmp	786	1	DHJF	786	1	blank2r.bmp	866	2	versagen	866	1	!	1292	1	!	1319	0	0	0	0	0	0	0	0	0	0	0	0	0	0	0	0	0	0	0	0	0	0	0	0	0	0	0
121318	14:50:46	14:55:43	296304	5.0.10.0	4_exp_AWA_CON_EVA_AMP	14	Rpleas_acq	Same	Rpleas	Amasked	CS_A	1pleas	distractor2	CONbeforeEVA	acq_US_unple_masked	acq3_masked	3	18	453	1	300	300	0	0	413	46	0	1	0	0	0	1	blank2r.bmp	0	1	+	0	6	C2r.bmp	492	1	blank2r.bmp	786	1	DHJF	786	1	blank2r.bmp	866	3	bange	866	1	!	1292	1	!	1319	0	0	0	0	0	0	0	0	0	0	0	0	0	0	0	0	0	0	0	0	0	0	0	0	0	0	0
121318	14:50:46	14:55:45	298503	5.0.10.0	4_exp_AWA_CON_EVA_AMP	14	Rpleas_acq	Same	Rpleas	Amasked	CS_A	1pleas	distractor2	CONbeforeEVA	acq_US_pleas_masked	acq3_masked	3	19	453	1	300	300	0	0	407	50	0	1	0	0	0	1	blank2r.bmp	0	1	+	0	4	B4r.bmp	492	1	blank2r.bmp	786	1	CPLW	786	1	blank2r.bmp	866	2	vertrauen	866	1	!	1292	1	!	1306	0	0	0	0	0	0	0	0	0	0	0	0	0	0	0	0	0	0	0	0	0	0	0	0	0	0	0
121318	14:50:46	14:55:47	300636	5.0.10.0	4_exp_AWA_CON_EVA_AMP	14	Rpleas_acq	Same	Rpleas	Amasked	CS_A	1pleas	distractor2	CONbeforeEVA	acq_US_pleas_masked	acq3_masked	3	20	453	0	300	300	0	0	359	50	0	1	0	0	0	1	blank2r.bmp	0	1	+	0	1	B1r.bmp	492	1	blank2r.bmp	786	1	CPLW	786	1	blank2r.bmp	866	3	besonnen	866	1	!	-1	1	!	-1	0	0	0	0	0	0	0	0	0	0	0	0	0	0	0	0	0	0	0	0	0	0	0	0	0	0	0
121318	14:50:46	14:55:49	302781	5.0.10.0	4_exp_AWA_CON_EVA_AMP	14	Rpleas_acq	Same	Rpleas	Amasked	CS_A	1pleas	distractor2	CONbeforeEVA	acq_US_pleas_masked	acq3_masked	3	21	453	0	300	300	0	0	363	50	0	1	0	0	0	1	blank2r.bmp	0	1	+	0	7	C3r.bmp	492	1	blank2r.bmp	786	1	CPLW	786	1	blank2r.bmp	866	5	vergnügt	866	1	!	-1	1	!	-1	0	0	0	0	0	0	0	0	0	0	0	0	0	0	0	0	0	0	0	0	0	0	0	0	0	0	0
121318	14:50:46	14:55:52	305007	5.0.10.0	4_exp_AWA_CON_EVA_AMP	14	Rpleas_acq	Same	Rpleas	Amasked	CS_A	1pleas	distractor2	CONbeforeEVA	acq_US_unple_masked	acq3_masked	3	22	453	1	300	300	0	0	415	46	0	1	0	0	0	1	blank2r.bmp	0	1	+	0	2	B2r.bmp	492	1	blank2r.bmp	786	1	DHJF	786	1	blank2r.bmp	866	1	gierig	866	1	!	1292	1	!	1319	0	0	0	0	0	0	0	0	0	0	0	0	0	0	0	0	0	0	0	0	0	0	0	0	0	0	0
121318	14:50:46	14:55:54	307206	5.0.10.0	4_exp_AWA_CON_EVA_AMP	14	Rpleas_acq	Same	Rpleas	Amasked	CS_A	1pleas	distractor2	CONbeforeEVA	acq_US_pleas_masked	acq3_masked	3	23	453	1	300	300	0	0	404	50	0	1	0	0	0	1	blank2r.bmp	0	1	+	0	8	C4r.bmp	492	1	blank2r.bmp	786	1	CPLW	786	1	blank2r.bmp	866	4	kreativ	866	1	!	1292	1	!	1306	0	0	0	0	0	0	0	0	0	0	0	0	0	0	0	0	0	0	0	0	0	0	0	0	0	0	0
121318	14:50:46	14:55:56	309552	5.0.10.0	4_exp_AWA_CON_EVA_AMP	14	Rpleas_acq	Same	Rpleas	Amasked	CS_A	1pleas	distractor2	CONbeforeEVA	acq_US_pleas_masked	acq3_masked	3	24	453	0	300	300	0	0	348	46	0	0	0	0	0	1	blank2r.bmp	0	1	+	0	5	C1r.bmp	492	1	blank2r.bmp	786	1	CPLW	786	1	blank2r.bmp	866	6	gesittet	866	1	FEHLER	1559	1	!	-1	1	!	-1	0	0	0	0	0	0	0	0	0	0	0	0	0	0	0	0	0	0	0	0	0	0	0	0
121318	14:50:46	14:55:58	311551	5.0.10.0	4_exp_AWA_CON_EVA_AMP	14	Rpleas_acq	Same	Rpleas	Amasked	CS_A	1pleas	distractor2	CONbeforeEVA	acq_US_unple_masked	acq3_masked	3	25	453	1	300	300	0	0	425	46	0	1	0	0	0	1	blank2r.bmp	0	1	+	0	4	B4r.bmp	492	1	blank2r.bmp	786	1	DHJF	786	1	blank2r.bmp	866	6	geizig	866	1	!	1292	1	!	1319	0	0	0	0	0	0	0	0	0	0	0	0	0	0	0	0	0	0	0	0	0	0	0	0	0	0	0
121318	14:50:46	14:56:00	313963	5.0.10.0	4_exp_AWA_CON_EVA_AMP	14	Rpleas_acq	Same	Rpleas	Amasked	CS_A	1pleas	distractor2	CONbeforeEVA	acq_US_pleas_masked	acq3_masked	3	26	453	1	300	300	0	0	417	46	0	0	0	0	0	1	blank2r.bmp	0	1	+	0	3	B3r.bmp	492	1	blank2r.bmp	786	1	CPLW	786	1	blank2r.bmp	866	5	vergnügt	866	1	FEHLER	1639	1	!	1292	1	!	1319	0	0	0	0	0	0	0	0	0	0	0	0	0	0	0	0	0	0	0	0	0	0	0	0
121318	14:50:46	14:56:03	316016	5.0.10.0	4_exp_AWA_CON_EVA_AMP	14	Rpleas_acq	Same	Rpleas	Amasked	CS_A	1pleas	distractor2	CONbeforeEVA	acq_US_pleas_masked	acq3_masked	3	27	453	1	300	300	0	0	463	50	0	1	0	0	0	1	blank2r.bmp	0	1	+	0	7	C3r.bmp	492	1	blank2r.bmp	786	1	CPLW	786	1	blank2r.bmp	866	4	kreativ	866	1	!	1292	1	!	1359	0	0	0	0	0	0	0	0	0	0	0	0	0	0	0	0	0	0	0	0	0	0	0	0	0	0	0
121318	14:50:46	14:56:05	318228	5.0.10.0	4_exp_AWA_CON_EVA_AMP	14	Rpleas_acq	Same	Rpleas	Amasked	CS_A	1pleas	distractor2	CONbeforeEVA	acq_US_unple_masked	acq3_masked	3	28	453	1	300	300	0	0	399	46	0	1	0	0	0	1	blank2r.bmp	0	1	+	0	5	C1r.bmp	492	1	blank2r.bmp	786	1	DHJF	786	1	blank2r.bmp	866	2	versagen	866	1	!	1292	1	!	1306	0	0	0	0	0	0	0	0	0	0	0	0	0	0	0	0	0	0	0	0	0	0	0	0	0	0	0
121318	14:50:46	14:56:10	323000	5.0.10.0	4_exp_AWA_CON_EVA_AMP	14	Rpleas_acq	Same	Rpleas	Amasked	CS_A	1pleas	distractor2	CONbeforeEVA	acq_US_unple_masked	acq3_masked	3	29	453	0	300	300	0	0	2999	46	0	1	0	0	0	1	blank2r.bmp	0	1	+	0	2	B2r.bmp	492	1	blank2r.bmp	786	1	DHJF	786	1	blank2r.bmp	866	1	gierig	866	1	!	1292	1	!	-1	0	0	0	0	0	0	0	0	0	0	0	0	0	0	0	0	0	0	0	0	0	0	0	0	0	0	0
121318	14:50:46	14:56:12	325225	5.0.10.0	4_exp_AWA_CON_EVA_AMP	14	Rpleas_acq	Same	Rpleas	Amasked	CS_A	1pleas	distractor2	CONbeforeEVA	acq_US_pleas_masked	acq3_masked	3	30	453	1	300	300	0	0	421	50	0	1	0	0	0	1	blank2r.bmp	0	1	+	0	1	B1r.bmp	492	1	blank2r.bmp	786	1	CPLW	786	1	blank2r.bmp	866	1	gütig	866	1	!	1292	1	!	1319	0	0	0	0	0	0	0	0	0	0	0	0	0	0	0	0	0	0	0	0	0	0	0	0	0	0	0
121318	14:50:46	14:56:14	327438	5.0.10.0	4_exp_AWA_CON_EVA_AMP	14	Rpleas_acq	Same	Rpleas	Amasked	CS_A	1pleas	distractor2	CONbeforeEVA	acq_US_unple_masked	acq3_masked	3	31	453	1	300	300	0	0	425	46	0	1	0	0	0	1	blank2r.bmp	0	1	+	0	6	C2r.bmp	492	1	blank2r.bmp	786	1	DHJF	786	1	blank2r.bmp	866	3	bange	866	1	!	1292	1	!	1319	0	0	0	0	0	0	0	0	0	0	0	0	0	0	0	0	0	0	0	0	0	0	0	0	0	0	0
121318	14:50:46	14:56:16	329637	5.0.10.0	4_exp_AWA_CON_EVA_AMP	14	Rpleas_acq	Same	Rpleas	Amasked	CS_A	1pleas	distractor2	CONbeforeEVA	acq_US_pleas_masked	acq3_masked	3	32	453	1	300	300	0	0	399	50	0	1	0	0	0	1	blank2r.bmp	0	1	+	0	8	C4r.bmp	492	1	blank2r.bmp	786	1	CPLW	786	1	blank2r.bmp	866	6	gesittet	866	1	!	1292	1	!	1306	0	0	0	0	0	0	0	0	0	0	0	0	0	0	0	0	0	0	0	0	0	0	0	0	0	0	0
121318	14:50:46	14:56:18	331783	5.0.10.0	4_exp_AWA_CON_EVA_AMP	14	Rpleas_acq	Same	Rpleas	Amasked	CS_A	1pleas	distractor2	CONbeforeEVA	acq_US_pleas_masked	acq3_masked	3	33	453	0	300	300	0	0	368	50	0	1	0	0	0	1	blank2r.bmp	0	1	+	0	6	C2r.bmp	492	1	blank2r.bmp	786	1	CPLW	786	1	blank2r.bmp	866	3	besonnen	866	1	!	-1	1	!	-1	0	0	0	0	0	0	0	0	0	0	0	0	0	0	0	0	0	0	0	0	0	0	0	0	0	0	0
121318	14:50:46	14:56:21	334142	5.0.10.0	4_exp_AWA_CON_EVA_AMP	14	Rpleas_acq	Same	Rpleas	Amasked	CS_A	1pleas	distractor2	CONbeforeEVA	acq_US_unple_masked	acq3_masked	3	34	453	0	300	300	0	0	579	46	0	1	0	0	0	1	blank2r.bmp	0	1	+	0	8	C4r.bmp	492	1	blank2r.bmp	786	1	DHJF	786	1	blank2r.bmp	866	5	verbissen	866	1	!	1292	1	!	-1	0	0	0	0	0	0	0	0	0	0	0	0	0	0	0	0	0	0	0	0	0	0	0	0	0	0	0
121318	14:50:46	14:56:23	336474	5.0.10.0	4_exp_AWA_CON_EVA_AMP	14	Rpleas_acq	Same	Rpleas	Amasked	CS_A	1pleas	distractor2	CONbeforeEVA	acq_US_unple_masked	acq3_masked	3	35	453	0	300	300	0	0	550	46	0	1	0	0	0	1	blank2r.bmp	0	1	+	0	7	C3r.bmp	492	1	blank2r.bmp	786	1	DHJF	786	1	blank2r.bmp	866	4	krank	866	1	!	1292	1	!	-1	0	0	0	0	0	0	0	0	0	0	0	0	0	0	0	0	0	0	0	0	0	0	0	0	0	0	0
121318	14:50:46	14:56:25	338620	5.0.10.0	4_exp_AWA_CON_EVA_AMP	14	Rpleas_acq	Same	Rpleas	Amasked	CS_A	1pleas	distractor2	CONbeforeEVA	acq_US_pleas_masked	acq3_masked	3	36	453	0	300	300	0	0	360	50	0	1	0	0	0	1	blank2r.bmp	0	1	+	0	1	B1r.bmp	492	1	blank2r.bmp	786	1	CPLW	786	1	blank2r.bmp	866	2	vertrauen	866	1	!	-1	1	!	-1	0	0	0	0	0	0	0	0	0	0	0	0	0	0	0	0	0	0	0	0	0	0	0	0	0	0	0
121318	14:50:46	14:56:38	351575	5.0.10.0	4_exp_AWA_CON_EVA_AMP	14	Rpleas_acq	Same	Rpleas	Amasked	CS_A	1pleas	distractor2	CONbeforeEVA	acq_US_pleas_masked	acq45_masked	4	1	400	1	300	300	0	0	435	50	0	1	0	0	0	1	blank2r.bmp	0	1	+	0	4	B4r.bmp	492	1	blank2r.bmp	786	1	CPLW	786	1	blank2r.bmp	866	1	gütig	866	1	!	1239	1	!	1332	0	0	0	0	0	0	0	0	0	0	0	0	0	0	0	0	0	0	0	0	0	0	0	0	0	0	0
121318	14:50:46	14:56:40	353814	5.0.10.0	4_exp_AWA_CON_EVA_AMP	14	Rpleas_acq	Same	Rpleas	Amasked	CS_A	1pleas	distractor2	CONbeforeEVA	acq_US_pleas_masked	acq45_masked	4	2	400	1	300	300	0	0	441	46	0	0	0	0	0	1	blank2r.bmp	0	1	+	0	3	B3r.bmp	492	1	blank2r.bmp	786	1	CPLW	786	1	blank2r.bmp	866	2	vertrauen	866	1	!	1239	1	!	1346	0	0	0	0	0	0	0	0	0	0	0	0	0	0	0	0	0	0	0	0	0	0	0	0	0	0	0
121318	14:50:46	14:56:42	355986	5.0.10.0	4_exp_AWA_CON_EVA_AMP	14	Rpleas_acq	Same	Rpleas	Amasked	CS_A	1pleas	distractor2	CONbeforeEVA	acq_US_unple_masked	acq45_masked	4	3	400	1	300	300	0	0	381	46	0	1	0	0	0	1	blank2r.bmp	0	1	+	0	5	C1r.bmp	492	1	blank2r.bmp	786	1	DHJF	786	1	blank2r.bmp	866	2	versagen	866	1	!	1239	1	!	1279	0	0	0	0	0	0	0	0	0	0	0	0	0	0	0	0	0	0	0	0	0	0	0	0	0	0	0
121318	14:50:46	14:56:45	358132	5.0.10.0	4_exp_AWA_CON_EVA_AMP	14	Rpleas_acq	Same	Rpleas	Amasked	CS_A	1pleas	distractor2	CONbeforeEVA	acq_US_pleas_masked	acq45_masked	4	4	400	1	300	300	0	0	351	50	0	1	0	0	0	1	blank2r.bmp	0	1	+	0	2	B2r.bmp	492	1	blank2r.bmp	786	1	CPLW	786	1	blank2r.bmp	866	4	kreativ	866	1	!	1239	1	!	1252	0	0	0	0	0	0	0	0	0	0	0	0	0	0	0	0	0	0	0	0	0	0	0	0	0	0	0
121318	14:50:46	14:56:47	360344	5.0.10.0	4_exp_AWA_CON_EVA_AMP	14	Rpleas_acq	Same	Rpleas	Amasked	CS_A	1pleas	distractor2	CONbeforeEVA	acq_US_unple_masked	acq45_masked	4	5	400	1	300	300	0	0	421	46	0	1	0	0	0	1	blank2r.bmp	0	1	+	0	2	B2r.bmp	492	1	blank2r.bmp	786	1	DHJF	786	1	blank2r.bmp	866	3	bange	866	1	!	1239	1	!	1319	0	0	0	0	0	0	0	0	0	0	0	0	0	0	0	0	0	0	0	0	0	0	0	0	0	0	0
121318	14:50:46	14:56:49	362557	5.0.10.0	4_exp_AWA_CON_EVA_AMP	14	Rpleas_acq	Same	Rpleas	Amasked	CS_A	1pleas	distractor2	CONbeforeEVA	acq_US_pleas_masked	acq45_masked	4	6	400	1	300	300	0	0	417	50	0	1	0	0	0	1	blank2r.bmp	0	1	+	0	6	C2r.bmp	492	1	blank2r.bmp	786	1	CPLW	786	1	blank2r.bmp	866	5	vergnügt	866	1	!	1239	1	!	1319	0	0	0	0	0	0	0	0	0	0	0	0	0	0	0	0	0	0	0	0	0	0	0	0	0	0	0
121318	14:50:46	14:56:51	364769	5.0.10.0	4_exp_AWA_CON_EVA_AMP	14	Rpleas_acq	Same	Rpleas	Amasked	CS_A	1pleas	distractor2	CONbeforeEVA	acq_US_unple_masked	acq45_masked	4	7	400	1	300	300	0	0	412	46	0	1	0	0	0	1	blank2r.bmp	0	1	+	0	5	C1r.bmp	492	1	blank2r.bmp	786	1	DHJF	786	1	blank2r.bmp	866	6	geizig	866	1	!	1239	1	!	1319	0	0	0	0	0	0	0	0	0	0	0	0	0	0	0	0	0	0	0	0	0	0	0	0	0	0	0
121318	14:50:46	14:56:53	366942	5.0.10.0	4_exp_AWA_CON_EVA_AMP	14	Rpleas_acq	Same	Rpleas	Amasked	CS_A	1pleas	distractor2	CONbeforeEVA	acq_US_pleas_masked	acq45_masked	4	8	400	1	300	300	0	0	379	50	0	1	0	0	0	1	blank2r.bmp	0	1	+	0	8	C4r.bmp	492	1	blank2r.bmp	786	1	CPLW	786	1	blank2r.bmp	866	6	gesittet	866	1	!	1239	1	!	1279	0	0	0	0	0	0	0	0	0	0	0	0	0	0	0	0	0	0	0	0	0	0	0	0	0	0	0
121318	14:50:46	14:56:56	369141	5.0.10.0	4_exp_AWA_CON_EVA_AMP	14	Rpleas_acq	Same	Rpleas	Amasked	CS_A	1pleas	distractor2	CONbeforeEVA	acq_US_unple_masked	acq45_masked	4	9	400	1	300	300	0	0	400	50	0	0	0	0	0	1	blank2r.bmp	0	1	+	0	1	B1r.bmp	492	1	blank2r.bmp	786	1	DHJF	786	1	blank2r.bmp	866	1	gierig	866	1	!	1239	1	!	1306	0	0	0	0	0	0	0	0	0	0	0	0	0	0	0	0	0	0	0	0	0	0	0	0	0	0	0
121318	14:50:46	14:56:58	371300	5.0.10.0	4_exp_AWA_CON_EVA_AMP	14	Rpleas_acq	Same	Rpleas	Amasked	CS_A	1pleas	distractor2	CONbeforeEVA	acq_US_pleas_masked	acq45_masked	4	10	400	1	300	300	0	0	366	50	0	1	0	0	0	1	blank2r.bmp	0	1	+	0	7	C3r.bmp	492	1	blank2r.bmp	786	1	CPLW	786	1	blank2r.bmp	866	3	besonnen	866	1	!	1239	1	!	1266	0	0	0	0	0	0	0	0	0	0	0	0	0	0	0	0	0	0	0	0	0	0	0	0	0	0	0
121318	14:50:46	14:57:00	373459	5.0.10.0	4_exp_AWA_CON_EVA_AMP	14	Rpleas_acq	Same	Rpleas	Amasked	CS_A	1pleas	distractor2	CONbeforeEVA	acq_US_pleas_masked	acq45_masked	4	11	400	1	300	300	0	0	370	50	0	1	0	0	0	1	blank2r.bmp	0	1	+	0	3	B3r.bmp	492	1	blank2r.bmp	786	1	CPLW	786	1	blank2r.bmp	866	5	vergnügt	866	1	!	1239	1	!	1266	0	0	0	0	0	0	0	0	0	0	0	0	0	0	0	0	0	0	0	0	0	0	0	0	0	0	0
121318	14:50:46	14:57:02	375631	5.0.10.0	4_exp_AWA_CON_EVA_AMP	14	Rpleas_acq	Same	Rpleas	Amasked	CS_A	1pleas	distractor2	CONbeforeEVA	acq_US_unple_masked	acq45_masked	4	12	400	1	300	300	0	0	376	46	0	1	0	0	0	1	blank2r.bmp	0	1	+	0	4	B4r.bmp	492	1	blank2r.bmp	786	1	DHJF	786	1	blank2r.bmp	866	4	krank	866	1	!	1239	1	!	1279	0	0	0	0	0	0	0	0	0	0	0	0	0	0	0	0	0	0	0	0	0	0	0	0	0	0	0
121318	14:50:46	14:57:04	377830	5.0.10.0	4_exp_AWA_CON_EVA_AMP	14	Rpleas_acq	Same	Rpleas	Amasked	CS_A	1pleas	distractor2	CONbeforeEVA	acq_US_unple_masked	acq45_masked	4	13	400	1	300	300	0	0	411	46	0	1	0	0	0	1	blank2r.bmp	0	1	+	0	6	C2r.bmp	492	1	blank2r.bmp	786	1	DHJF	786	1	blank2r.bmp	866	5	verbissen	866	1	!	1239	1	!	1306	0	0	0	0	0	0	0	0	0	0	0	0	0	0	0	0	0	0	0	0	0	0	0	0	0	0	0
121318	14:50:46	14:57:07	380056	5.0.10.0	4_exp_AWA_CON_EVA_AMP	14	Rpleas_acq	Same	Rpleas	Amasked	CS_A	1pleas	distractor2	CONbeforeEVA	acq_US_unple_masked	acq45_masked	4	14	400	1	300	300	0	0	432	46	0	1	0	0	0	1	blank2r.bmp	0	1	+	0	3	B3r.bmp	492	1	blank2r.bmp	786	1	DHJF	786	1	blank2r.bmp	866	3	bange	866	1	!	1239	1	!	1332	0	0	0	0	0	0	0	0	0	0	0	0	0	0	0	0	0	0	0	0	0	0	0	0	0	0	0
121318	14:50:46	14:57:09	382255	5.0.10.0	4_exp_AWA_CON_EVA_AMP	14	Rpleas_acq	Same	Rpleas	Amasked	CS_A	1pleas	distractor2	CONbeforeEVA	acq_US_unple_masked	acq45_masked	4	15	400	1	300	300	0	0	403	50	0	0	0	0	0	1	blank2r.bmp	0	1	+	0	2	B2r.bmp	492	1	blank2r.bmp	786	1	DHJF	786	1	blank2r.bmp	866	6	geizig	866	1	!	1239	1	!	1306	0	0	0	0	0	0	0	0	0	0	0	0	0	0	0	0	0	0	0	0	0	0	0	0	0	0	0
121318	14:50:46	14:57:11	384308	5.0.10.0	4_exp_AWA_CON_EVA_AMP	14	Rpleas_acq	Same	Rpleas	Amasked	CS_A	1pleas	distractor2	CONbeforeEVA	acq_US_pleas_masked	acq45_masked	4	16	400	0	300	300	0	0	276	46	0	0	0	0	0	1	blank2r.bmp	0	1	+	0	8	C4r.bmp	492	1	blank2r.bmp	786	1	CPLW	786	1	blank2r.bmp	866	4	kreativ	866	1	!	-1	1	!	-1	0	0	0	0	0	0	0	0	0	0	0	0	0	0	0	0	0	0	0	0	0	0	0	0	0	0	0
121318	14:50:46	14:57:15	388773	5.0.10.0	4_exp_AWA_CON_EVA_AMP	14	Rpleas_acq	Same	Rpleas	Amasked	CS_A	1pleas	distractor2	CONbeforeEVA	acq_US_unple_masked	acq45_masked	4	17	400	0	300	300	0	0	2684	46	0	1	0	0	0	1	blank2r.bmp	0	1	+	0	7	C3r.bmp	492	1	blank2r.bmp	786	1	DHJF	786	1	blank2r.bmp	866	4	krank	866	1	!	1239	1	!	-1	0	0	0	0	0	0	0	0	0	0	0	0	0	0	0	0	0	0	0	0	0	0	0	0	0	0	0
121318	14:50:46	14:57:18	391038	5.0.10.0	4_exp_AWA_CON_EVA_AMP	14	Rpleas_acq	Same	Rpleas	Amasked	CS_A	1pleas	distractor2	CONbeforeEVA	acq_US_pleas_masked	acq45_masked	4	18	400	1	300	300	0	0	455	50	0	1	0	0	0	1	blank2r.bmp	0	1	+	0	5	C1r.bmp	492	1	blank2r.bmp	786	1	CPLW	786	1	blank2r.bmp	866	2	vertrauen	866	1	!	1239	1	!	1359	0	0	0	0	0	0	0	0	0	0	0	0	0	0	0	0	0	0	0	0	0	0	0	0	0	0	0
121318	14:50:46	14:57:20	393237	5.0.10.0	4_exp_AWA_CON_EVA_AMP	14	Rpleas_acq	Same	Rpleas	Amasked	CS_A	1pleas	distractor2	CONbeforeEVA	acq_US_unple_masked	acq45_masked	4	19	400	1	300	300	0	0	388	46	0	1	0	0	0	1	blank2r.bmp	0	1	+	0	4	B4r.bmp	492	1	blank2r.bmp	786	1	DHJF	786	1	blank2r.bmp	866	1	gierig	866	1	!	1239	1	!	1292	0	0	0	0	0	0	0	0	0	0	0	0	0	0	0	0	0	0	0	0	0	0	0	0	0	0	0
121318	14:50:46	14:57:22	395503	5.0.10.0	4_exp_AWA_CON_EVA_AMP	14	Rpleas_acq	Same	Rpleas	Amasked	CS_A	1pleas	distractor2	CONbeforeEVA	acq_US_unple_masked	acq45_masked	4	20	400	0	300	300	0	0	479	46	0	1	0	0	0	1	blank2r.bmp	0	1	+	0	1	B1r.bmp	492	1	blank2r.bmp	786	1	DHJF	786	1	blank2r.bmp	866	2	versagen	866	1	!	1239	1	!	-1	0	0	0	0	0	0	0	0	0	0	0	0	0	0	0	0	0	0	0	0	0	0	0	0	0	0	0
121318	14:50:46	14:57:24	397742	5.0.10.0	4_exp_AWA_CON_EVA_AMP	14	Rpleas_acq	Same	Rpleas	Amasked	CS_A	1pleas	distractor2	CONbeforeEVA	acq_US_unple_masked	acq45_masked	4	21	400	1	300	300	0	0	427	46	0	1	0	0	0	1	blank2r.bmp	0	1	+	0	1	B1r.bmp	492	1	blank2r.bmp	786	1	DHJF	786	1	blank2r.bmp	866	5	verbissen	866	1	!	1239	1	!	1332	0	0	0	0	0	0	0	0	0	0	0	0	0	0	0	0	0	0	0	0	0	0	0	0	0	0	0
121318	14:50:46	14:57:26	399955	5.0.10.0	4_exp_AWA_CON_EVA_AMP	14	Rpleas_acq	Same	Rpleas	Amasked	CS_A	1pleas	distractor2	CONbeforeEVA	acq_US_unple_masked	acq45_masked	4	22	400	1	300	300	0	0	419	46	0	1	0	0	0	1	blank2r.bmp	0	1	+	0	2	B2r.bmp	492	1	blank2r.bmp	786	1	DHJF	786	1	blank2r.bmp	866	2	versagen	866	1	!	1239	1	!	1319	0	0	0	0	0	0	0	0	0	0	0	0	0	0	0	0	0	0	0	0	0	0	0	0	0	0	0
121318	14:50:46	14:57:29	402180	5.0.10.0	4_exp_AWA_CON_EVA_AMP	14	Rpleas_acq	Same	Rpleas	Amasked	CS_A	1pleas	distractor2	CONbeforeEVA	acq_US_unple_masked	acq45_masked	4	23	400	1	300	300	0	0	429	46	0	1	0	0	0	1	blank2r.bmp	0	1	+	0	7	C3r.bmp	492	1	blank2r.bmp	786	1	DHJF	786	1	blank2r.bmp	866	4	krank	866	1	!	1239	1	!	1332	0	0	0	0	0	0	0	0	0	0	0	0	0	0	0	0	0	0	0	0	0	0	0	0	0	0	0
121318	14:50:46	14:57:31	404446	5.0.10.0	4_exp_AWA_CON_EVA_AMP	14	Rpleas_acq	Same	Rpleas	Amasked	CS_A	1pleas	distractor2	CONbeforeEVA	acq_US_pleas_masked	acq45_masked	4	24	400	0	300	300	0	0	493	50	0	1	0	0	0	1	blank2r.bmp	0	1	+	0	8	C4r.bmp	492	1	blank2r.bmp	786	1	CPLW	786	1	blank2r.bmp	866	6	gesittet	866	1	!	1239	1	!	-1	0	0	0	0	0	0	0	0	0	0	0	0	0	0	0	0	0	0	0	0	0	0	0	0	0	0	0
121318	14:50:46	14:57:33	406672	5.0.10.0	4_exp_AWA_CON_EVA_AMP	14	Rpleas_acq	Same	Rpleas	Amasked	CS_A	1pleas	distractor2	CONbeforeEVA	acq_US_pleas_masked	acq45_masked	4	25	400	1	300	300	0	0	425	50	0	1	0	0	0	1	blank2r.bmp	0	1	+	0	5	C1r.bmp	492	1	blank2r.bmp	786	1	CPLW	786	1	blank2r.bmp	866	3	besonnen	866	1	!	1239	1	!	1319	0	0	0	0	0	0	0	0	0	0	0	0	0	0	0	0	0	0	0	0	0	0	0	0	0	0	0
121318	14:50:46	14:57:35	408951	5.0.10.0	4_exp_AWA_CON_EVA_AMP	14	Rpleas_acq	Same	Rpleas	Amasked	CS_A	1pleas	distractor2	CONbeforeEVA	acq_US_pleas_masked	acq45_masked	4	26	400	0	300	300	0	0	516	50	0	1	0	0	0	1	blank2r.bmp	0	1	+	0	4	B4r.bmp	492	1	blank2r.bmp	786	1	CPLW	786	1	blank2r.bmp	866	1	gütig	866	1	!	1239	1	!	-1	0	0	0	0	0	0	0	0	0	0	0	0	0	0	0	0	0	0	0	0	0	0	0	0	0	0	0
121318	14:50:46	14:57:38	411163	5.0.10.0	4_exp_AWA_CON_EVA_AMP	14	Rpleas_acq	Same	Rpleas	Amasked	CS_A	1pleas	distractor2	CONbeforeEVA	acq_US_unple_masked	acq45_masked	4	27	400	1	300	300	0	0	403	46	0	1	0	0	0	1	blank2r.bmp	0	1	+	0	6	C2r.bmp	492	1	blank2r.bmp	786	1	DHJF	786	1	blank2r.bmp	866	3	bange	866	1	!	1239	1	!	1306	0	0	0	0	0	0	0	0	0	0	0	0	0	0	0	0	0	0	0	0	0	0	0	0	0	0	0
121318	14:50:46	14:57:40	413416	5.0.10.0	4_exp_AWA_CON_EVA_AMP	14	Rpleas_acq	Same	Rpleas	Amasked	CS_A	1pleas	distractor2	CONbeforeEVA	acq_US_pleas_masked	acq45_masked	4	28	400	0	300	300	0	0	479	50	0	1	0	0	0	1	blank2r.bmp	0	1	+	0	3	B3r.bmp	492	1	blank2r.bmp	786	1	CPLW	786	1	blank2r.bmp	866	3	besonnen	866	1	!	1239	1	!	-1	0	0	0	0	0	0	0	0	0	0	0	0	0	0	0	0	0	0	0	0	0	0	0	0	0	0	0
121318	14:50:46	14:57:42	415628	5.0.10.0	4_exp_AWA_CON_EVA_AMP	14	Rpleas_acq	Same	Rpleas	Amasked	CS_A	1pleas	distractor2	CONbeforeEVA	acq_US_pleas_masked	acq45_masked	4	29	400	1	300	300	0	0	409	50	0	1	0	0	0	1	blank2r.bmp	0	1	+	0	8	C4r.bmp	492	1	blank2r.bmp	786	1	CPLW	786	1	blank2r.bmp	866	2	vertrauen	866	1	!	1239	1	!	1306	0	0	0	0	0	0	0	0	0	0	0	0	0	0	0	0	0	0	0	0	0	0	0	0	0	0	0
121318	14:50:46	14:57:44	417814	5.0.10.0	4_exp_AWA_CON_EVA_AMP	14	Rpleas_acq	Same	Rpleas	Amasked	CS_A	1pleas	distractor2	CONbeforeEVA	acq_US_pleas_masked	acq45_masked	4	30	400	1	300	300	0	0	395	50	0	1	0	0	0	1	blank2r.bmp	0	1	+	0	4	B4r.bmp	492	1	blank2r.bmp	786	1	CPLW	786	1	blank2r.bmp	866	6	gesittet	866	1	!	1239	1	!	1292	0	0	0	0	0	0	0	0	0	0	0	0	0	0	0	0	0	0	0	0	0	0	0	0	0	0	0
121318	14:50:46	14:57:47	420066	5.0.10.0	4_exp_AWA_CON_EVA_AMP	14	Rpleas_acq	Same	Rpleas	Amasked	CS_A	1pleas	distractor2	CONbeforeEVA	acq_US_unple_masked	acq45_masked	4	31	400	1	300	300	0	0	461	46	0	1	0	0	0	1	blank2r.bmp	0	1	+	0	7	C3r.bmp	492	1	blank2r.bmp	786	1	DHJF	786	1	blank2r.bmp	866	6	geizig	866	1	!	1239	1	!	1359	0	0	0	0	0	0	0	0	0	0	0	0	0	0	0	0	0	0	0	0	0	0	0	0	0	0	0
121318	14:50:46	14:57:49	422652	5.0.10.0	4_exp_AWA_CON_EVA_AMP	14	Rpleas_acq	Same	Rpleas	Amasked	CS_A	1pleas	distractor2	CONbeforeEVA	acq_US_unple_masked	acq45_masked	4	32	400	0	300	300	0	0	824	46	0	1	0	0	0	1	blank2r.bmp	0	1	+	0	5	C1r.bmp	492	1	blank2r.bmp	786	1	DHJF	786	1	blank2r.bmp	866	1	gierig	866	1	!	1239	1	!	-1	0	0	0	0	0	0	0	0	0	0	0	0	0	0	0	0	0	0	0	0	0	0	0	0	0	0	0
121318	14:50:46	14:57:51	424838	5.0.10.0	4_exp_AWA_CON_EVA_AMP	14	Rpleas_acq	Same	Rpleas	Amasked	CS_A	1pleas	distractor2	CONbeforeEVA	acq_US_pleas_masked	acq45_masked	4	33	400	1	300	300	0	0	381	50	0	1	0	0	0	1	blank2r.bmp	0	1	+	0	1	B1r.bmp	492	1	blank2r.bmp	786	1	CPLW	786	1	blank2r.bmp	866	5	vergnügt	866	1	!	1239	1	!	1279	0	0	0	0	0	0	0	0	0	0	0	0	0	0	0	0	0	0	0	0	0	0	0	0	0	0	0
121318	14:50:46	14:57:54	426997	5.0.10.0	4_exp_AWA_CON_EVA_AMP	14	Rpleas_acq	Same	Rpleas	Amasked	CS_A	1pleas	distractor2	CONbeforeEVA	acq_US_pleas_masked	acq45_masked	4	34	400	1	300	300	0	0	361	50	0	1	0	0	0	1	blank2r.bmp	0	1	+	0	2	B2r.bmp	492	1	blank2r.bmp	786	1	CPLW	786	1	blank2r.bmp	866	4	kreativ	866	1	!	1239	1	!	1266	0	0	0	0	0	0	0	0	0	0	0	0	0	0	0	0	0	0	0	0	0	0	0	0	0	0	0
121318	14:50:46	14:57:56	429169	5.0.10.0	4_exp_AWA_CON_EVA_AMP	14	Rpleas_acq	Same	Rpleas	Amasked	CS_A	1pleas	distractor2	CONbeforeEVA	acq_US_unple_masked	acq45_masked	4	35	400	1	300	300	0	0	384	46	0	1	0	0	0	1	blank2r.bmp	0	1	+	0	6	C2r.bmp	492	1	blank2r.bmp	786	1	DHJF	786	1	blank2r.bmp	866	5	verbissen	866	1	!	1239	1	!	1279	0	0	0	0	0	0	0	0	0	0	0	0	0	0	0	0	0	0	0	0	0	0	0	0	0	0	0
121318	14:50:46	14:57:58	431368	5.0.10.0	4_exp_AWA_CON_EVA_AMP	14	Rpleas_acq	Same	Rpleas	Amasked	CS_A	1pleas	distractor2	CONbeforeEVA	acq_US_pleas_masked	acq45_masked	4	36	400	1	300	300	0	0	400	50	0	1	0	0	0	1	blank2r.bmp	0	1	+	0	3	B3r.bmp	492	1	blank2r.bmp	786	1	CPLW	786	1	blank2r.bmp	866	1	gütig	866	1	!	1239	1	!	1306	0	0	0	0	0	0	0	0	0	0	0	0	0	0	0	0	0	0	0	0	0	0	0	0	0	0	0
121318	14:50:46	14:58:31	464301	5.0.10.0	4_exp_AWA_CON_EVA_AMP	14	Rpleas_acq	Same	Rpleas	Amasked	CS_A	1pleas	distractor2	CONbeforeEVA	acq_US_unple_masked	acq45_masked	5	1	400	1	300	300	0	0	399	50	0	0	0	0	0	1	blank2r.bmp	0	1	+	0	6	C2r.bmp	492	1	blank2r.bmp	786	1	DHJF	786	1	blank2r.bmp	866	2	versagen	866	1	!	1239	1	!	1306	0	0	0	0	0	0	0	0	0	0	0	0	0	0	0	0	0	0	0	0	0	0	0	0	0	0	0
121318	14:50:46	14:58:33	466527	5.0.10.0	4_exp_AWA_CON_EVA_AMP	14	Rpleas_acq	Same	Rpleas	Amasked	CS_A	1pleas	distractor2	CONbeforeEVA	acq_US_pleas_masked	acq45_masked	5	2	400	1	300	300	0	0	427	50	0	1	0	0	0	1	blank2r.bmp	0	1	+	0	1	B1r.bmp	492	1	blank2r.bmp	786	1	CPLW	786	1	blank2r.bmp	866	6	gesittet	866	1	!	1239	1	!	1332	0	0	0	0	0	0	0	0	0	0	0	0	0	0	0	0	0	0	0	0	0	0	0	0	0	0	0
121318	14:50:46	14:58:35	468713	5.0.10.0	4_exp_AWA_CON_EVA_AMP	14	Rpleas_acq	Same	Rpleas	Amasked	CS_A	1pleas	distractor2	CONbeforeEVA	acq_US_pleas_masked	acq45_masked	5	3	400	1	300	300	0	0	393	50	0	1	0	0	0	1	blank2r.bmp	0	1	+	0	7	C3r.bmp	492	1	blank2r.bmp	786	1	CPLW	786	1	blank2r.bmp	866	5	vergnügt	866	1	!	1239	1	!	1292	0	0	0	0	0	0	0	0	0	0	0	0	0	0	0	0	0	0	0	0	0	0	0	0	0	0	0
121318	14:50:46	14:58:37	470885	5.0.10.0	4_exp_AWA_CON_EVA_AMP	14	Rpleas_acq	Same	Rpleas	Amasked	CS_A	1pleas	distractor2	CONbeforeEVA	acq_US_unple_masked	acq45_masked	5	4	400	1	300	300	0	0	383	46	0	1	0	0	0	1	blank2r.bmp	0	1	+	0	4	B4r.bmp	492	1	blank2r.bmp	786	1	DHJF	786	1	blank2r.bmp	866	3	bange	866	1	!	1239	1	!	1279	0	0	0	0	0	0	0	0	0	0	0	0	0	0	0	0	0	0	0	0	0	0	0	0	0	0	0
121318	14:50:46	14:58:40	473111	5.0.10.0	4_exp_AWA_CON_EVA_AMP	14	Rpleas_acq	Same	Rpleas	Amasked	CS_A	1pleas	distractor2	CONbeforeEVA	acq_US_pleas_masked	acq45_masked	5	5	400	1	300	300	0	0	433	50	0	1	0	0	0	1	blank2r.bmp	0	1	+	0	8	C4r.bmp	492	1	blank2r.bmp	786	1	CPLW	786	1	blank2r.bmp	866	1	gütig	866	1	!	1239	1	!	1332	0	0	0	0	0	0	0	0	0	0	0	0	0	0	0	0	0	0	0	0	0	0	0	0	0	0	0
121318	14:50:46	14:58:42	475217	5.0.10.0	4_exp_AWA_CON_EVA_AMP	14	Rpleas_acq	Same	Rpleas	Amasked	CS_A	1pleas	distractor2	CONbeforeEVA	acq_US_unple_masked	acq45_masked	5	6	400	0	300	300	0	0	333	46	0	1	0	0	0	1	blank2r.bmp	0	1	+	0	5	C1r.bmp	492	1	blank2r.bmp	786	1	DHJF	786	1	blank2r.bmp	866	1	gierig	866	1	!	-1	1	!	-1	0	0	0	0	0	0	0	0	0	0	0	0	0	0	0	0	0	0	0	0	0	0	0	0	0	0	0
121318	14:50:46	14:58:44	477389	5.0.10.0	4_exp_AWA_CON_EVA_AMP	14	Rpleas_acq	Same	Rpleas	Amasked	CS_A	1pleas	distractor2	CONbeforeEVA	acq_US_pleas_masked	acq45_masked	5	7	400	1	300	300	0	0	346	46	0	0	0	0	0	1	blank2r.bmp	0	1	+	0	2	B2r.bmp	492	1	blank2r.bmp	786	1	CPLW	786	1	blank2r.bmp	866	4	kreativ	866	1	!	1239	1	!	1252	0	0	0	0	0	0	0	0	0	0	0	0	0	0	0	0	0	0	0	0	0	0	0	0	0	0	0
121318	14:50:46	14:58:46	479562	5.0.10.0	4_exp_AWA_CON_EVA_AMP	14	Rpleas_acq	Same	Rpleas	Amasked	CS_A	1pleas	distractor2	CONbeforeEVA	acq_US_unple_masked	acq45_masked	5	8	400	1	300	300	0	0	382	50	0	0	0	0	0	1	blank2r.bmp	0	1	+	0	3	B3r.bmp	492	1	blank2r.bmp	786	1	DHJF	786	1	blank2r.bmp	866	4	krank	866	1	!	1239	1	!	1279	0	0	0	0	0	0	0	0	0	0	0	0	0	0	0	0	0	0	0	0	0	0	0	0	0	0	0
121318	14:50:46	14:58:48	481801	5.0.10.0	4_exp_AWA_CON_EVA_AMP	14	Rpleas_acq	Same	Rpleas	Amasked	CS_A	1pleas	distractor2	CONbeforeEVA	acq_US_pleas_masked	acq45_masked	5	9	400	1	300	300	0	0	445	50	0	1	0	0	0	1	blank2r.bmp	0	1	+	0	4	B4r.bmp	492	1	blank2r.bmp	786	1	CPLW	786	1	blank2r.bmp	866	3	besonnen	866	1	!	1239	1	!	1346	0	0	0	0	0	0	0	0	0	0	0	0	0	0	0	0	0	0	0	0	0	0	0	0	0	0	0
121318	14:50:46	14:58:50	483947	5.0.10.0	4_exp_AWA_CON_EVA_AMP	14	Rpleas_acq	Same	Rpleas	Amasked	CS_A	1pleas	distractor2	CONbeforeEVA	acq_US_pleas_masked	acq45_masked	5	10	400	1	300	300	0	0	358	50	0	1	0	0	0	1	blank2r.bmp	0	1	+	0	6	C2r.bmp	492	1	blank2r.bmp	786	1	CPLW	786	1	blank2r.bmp	866	2	vertrauen	866	1	!	1239	1	!	1252	0	0	0	0	0	0	0	0	0	0	0	0	0	0	0	0	0	0	0	0	0	0	0	0	0	0	0
121318	14:50:46	14:58:53	486146	5.0.10.0	4_exp_AWA_CON_EVA_AMP	14	Rpleas_acq	Same	Rpleas	Amasked	CS_A	1pleas	distractor2	CONbeforeEVA	acq_US_unple_masked	acq45_masked	5	11	400	1	300	300	0	0	411	46	0	1	0	0	0	1	blank2r.bmp	0	1	+	0	3	B3r.bmp	492	1	blank2r.bmp	786	1	DHJF	786	1	blank2r.bmp	866	6	geizig	866	1	!	1239	1	!	1306	0	0	0	0	0	0	0	0	0	0	0	0	0	0	0	0	0	0	0	0	0	0	0	0	0	0	0
121318	14:50:46	14:58:55	488398	5.0.10.0	4_exp_AWA_CON_EVA_AMP	14	Rpleas_acq	Same	Rpleas	Amasked	CS_A	1pleas	distractor2	CONbeforeEVA	acq_US_unple_masked	acq45_masked	5	12	400	1	300	300	0	0	465	46	0	1	0	0	0	1	blank2r.bmp	0	1	+	0	7	C3r.bmp	492	1	blank2r.bmp	786	1	DHJF	786	1	blank2r.bmp	866	5	verbissen	866	1	!	1239	1	!	1359	0	0	0	0	0	0	0	0	0	0	0	0	0	0	0	0	0	0	0	0	0	0	0	0	0	0	0
121318	14:50:46	14:58:57	490651	5.0.10.0	4_exp_AWA_CON_EVA_AMP	14	Rpleas_acq	Same	Rpleas	Amasked	CS_A	1pleas	distractor2	CONbeforeEVA	acq_US_unple_masked	acq45_masked	5	13	400	0	300	300	0	0	479	46	0	1	0	0	0	1	blank2r.bmp	0	1	+	0	2	B2r.bmp	492	1	blank2r.bmp	786	1	DHJF	786	1	blank2r.bmp	866	5	verbissen	866	1	!	1239	1	!	-1	0	0	0	0	0	0	0	0	0	0	0	0	0	0	0	0	0	0	0	0	0	0	0	0	0	0	0
121318	14:50:46	14:58:59	492850	5.0.10.0	4_exp_AWA_CON_EVA_AMP	14	Rpleas_acq	Same	Rpleas	Amasked	CS_A	1pleas	distractor2	CONbeforeEVA	acq_US_unple_masked	acq45_masked	5	14	400	1	300	300	0	0	394	46	0	1	0	0	0	1	blank2r.bmp	0	1	+	0	8	C4r.bmp	492	1	blank2r.bmp	786	1	DHJF	786	1	blank2r.bmp	866	4	krank	866	1	!	1239	1	!	1292	0	0	0	0	0	0	0	0	0	0	0	0	0	0	0	0	0	0	0	0	0	0	0	0	0	0	0
121318	14:50:46	14:59:01	494929	5.0.10.0	4_exp_AWA_CON_EVA_AMP	14	Rpleas_acq	Same	Rpleas	Amasked	CS_A	1pleas	distractor2	CONbeforeEVA	acq_US_unple_masked	acq45_masked	5	15	400	0	300	300	0	0	306	46	0	1	0	0	0	1	blank2r.bmp	0	1	+	0	5	C1r.bmp	492	1	blank2r.bmp	786	1	DHJF	786	1	blank2r.bmp	866	3	bange	866	1	!	-1	1	!	-1	0	0	0	0	0	0	0	0	0	0	0	0	0	0	0	0	0	0	0	0	0	0	0	0	0	0	0
121318	14:50:46	14:59:04	496995	5.0.10.0	4_exp_AWA_CON_EVA_AMP	14	Rpleas_acq	Same	Rpleas	Amasked	CS_A	1pleas	distractor2	CONbeforeEVA	acq_US_pleas_masked	acq45_masked	5	16	400	0	300	300	0	0	285	50	0	1	0	0	0	1	blank2r.bmp	0	1	+	0	1	B1r.bmp	492	1	blank2r.bmp	786	1	CPLW	786	1	blank2r.bmp	866	3	besonnen	866	1	!	-1	1	!	-1	0	0	0	0	0	0	0	0	0	0	0	0	0	0	0	0	0	0	0	0	0	0	0	0	0	0	0
121318	14:50:46	14:59:06	499180	5.0.10.0	4_exp_AWA_CON_EVA_AMP	14	Rpleas_acq	Same	Rpleas	Amasked	CS_A	1pleas	distractor2	CONbeforeEVA	acq_US_pleas_masked	acq45_masked	5	17	400	1	300	300	0	0	365	50	0	1	0	0	0	1	blank2r.bmp	0	1	+	0	1	B1r.bmp	492	1	blank2r.bmp	786	1	CPLW	786	1	blank2r.bmp	866	2	vertrauen	866	1	!	1239	1	!	1266	0	0	0	0	0	0	0	0	0	0	0	0	0	0	0	0	0	0	0	0	0	0	0	0	0	0	0
121318	14:50:46	14:59:08	501326	5.0.10.0	4_exp_AWA_CON_EVA_AMP	14	Rpleas_acq	Same	Rpleas	Amasked	CS_A	1pleas	distractor2	CONbeforeEVA	acq_US_pleas_masked	acq45_masked	5	18	400	1	300	300	0	0	346	50	0	1	0	0	0	1	blank2r.bmp	0	1	+	0	4	B4r.bmp	492	1	blank2r.bmp	786	1	CPLW	786	1	blank2r.bmp	866	5	vergnügt	866	1	!	1239	1	!	1252	0	0	0	0	0	0	0	0	0	0	0	0	0	0	0	0	0	0	0	0	0	0	0	0	0	0	0
121318	14:50:46	14:59:10	503539	5.0.10.0	4_exp_AWA_CON_EVA_AMP	14	Rpleas_acq	Same	Rpleas	Amasked	CS_A	1pleas	distractor2	CONbeforeEVA	acq_US_unple_masked	acq45_masked	5	19	400	1	300	300	0	0	414	46	0	1	0	0	0	1	blank2r.bmp	0	1	+	0	3	B3r.bmp	492	1	blank2r.bmp	786	1	DHJF	786	1	blank2r.bmp	866	2	versagen	866	1	!	1239	1	!	1319	0	0	0	0	0	0	0	0	0	0	0	0	0	0	0	0	0	0	0	0	0	0	0	0	0	0	0
121318	14:50:46	14:59:12	505684	5.0.10.0	4_exp_AWA_CON_EVA_AMP	14	Rpleas_acq	Same	Rpleas	Amasked	CS_A	1pleas	distractor2	CONbeforeEVA	acq_US_unple_masked	acq45_masked	5	20	400	1	300	300	0	0	346	46	0	1	0	0	0	1	blank2r.bmp	0	1	+	0	7	C3r.bmp	492	1	blank2r.bmp	786	1	DHJF	786	1	blank2r.bmp	866	6	geizig	866	1	!	1239	1	!	1252	0	0	0	0	0	0	0	0	0	0	0	0	0	0	0	0	0	0	0	0	0	0	0	0	0	0	0
121318	14:50:46	14:59:14	507764	5.0.10.0	4_exp_AWA_CON_EVA_AMP	14	Rpleas_acq	Same	Rpleas	Amasked	CS_A	1pleas	distractor2	CONbeforeEVA	acq_US_unple_masked	acq45_masked	5	21	400	0	300	300	0	0	306	46	0	1	0	0	0	1	blank2r.bmp	0	1	+	0	8	C4r.bmp	492	1	blank2r.bmp	786	1	DHJF	786	1	blank2r.bmp	866	1	gierig	866	1	!	-1	1	!	-1	0	0	0	0	0	0	0	0	0	0	0	0	0	0	0	0	0	0	0	0	0	0	0	0	0	0	0
121318	14:50:46	14:59:16	509869	5.0.10.0	4_exp_AWA_CON_EVA_AMP	14	Rpleas_acq	Same	Rpleas	Amasked	CS_A	1pleas	distractor2	CONbeforeEVA	acq_US_pleas_masked	acq45_masked	5	22	400	0	300	300	0	0	325	46	0	0	0	0	0	1	blank2r.bmp	0	1	+	0	6	C2r.bmp	492	1	blank2r.bmp	786	1	CPLW	786	1	blank2r.bmp	866	1	gütig	866	1	!	-1	1	!	-1	0	0	0	0	0	0	0	0	0	0	0	0	0	0	0	0	0	0	0	0	0	0	0	0	0	0	0
121318	14:50:46	14:59:19	512095	5.0.10.0	4_exp_AWA_CON_EVA_AMP	14	Rpleas_acq	Same	Rpleas	Amasked	CS_A	1pleas	distractor2	CONbeforeEVA	acq_US_unple_masked	acq45_masked	5	23	400	1	300	300	0	0	414	46	0	1	0	0	0	1	blank2r.bmp	0	1	+	0	5	C1r.bmp	492	1	blank2r.bmp	786	1	DHJF	786	1	blank2r.bmp	866	2	versagen	866	1	!	1239	1	!	1319	0	0	0	0	0	0	0	0	0	0	0	0	0	0	0	0	0	0	0	0	0	0	0	0	0	0	0
121318	14:50:46	14:59:21	514374	5.0.10.0	4_exp_AWA_CON_EVA_AMP	14	Rpleas_acq	Same	Rpleas	Amasked	CS_A	1pleas	distractor2	CONbeforeEVA	acq_US_pleas_masked	acq45_masked	5	24	400	0	300	300	0	0	505	50	0	1	0	0	0	1	blank2r.bmp	0	1	+	0	2	B2r.bmp	492	1	blank2r.bmp	786	1	CPLW	786	1	blank2r.bmp	866	6	gesittet	866	1	!	1239	1	!	-1	0	0	0	0	0	0	0	0	0	0	0	0	0	0	0	0	0	0	0	0	0	0	0	0	0	0	0
121318	14:50:46	14:59:23	516600	5.0.10.0	4_exp_AWA_CON_EVA_AMP	14	Rpleas_acq	Same	Rpleas	Amasked	CS_A	1pleas	distractor2	CONbeforeEVA	acq_US_pleas_masked	acq45_masked	5	25	400	1	300	300	0	0	424	50	0	1	0	0	0	1	blank2r.bmp	0	1	+	0	8	C4r.bmp	492	1	blank2r.bmp	786	1	CPLW	786	1	blank2r.bmp	866	4	kreativ	866	1	!	1239	1	!	1319	0	0	0	0	0	0	0	0	0	0	0	0	0	0	0	0	0	0	0	0	0	0	0	0	0	0	0
121318	14:50:46	14:59:25	518786	5.0.10.0	4_exp_AWA_CON_EVA_AMP	14	Rpleas_acq	Same	Rpleas	Amasked	CS_A	1pleas	distractor2	CONbeforeEVA	acq_US_pleas_masked	acq45_masked	5	26	400	1	300	300	0	0	385	50	0	1	0	0	0	1	blank2r.bmp	0	1	+	0	5	C1r.bmp	492	1	blank2r.bmp	786	1	CPLW	786	1	blank2r.bmp	866	5	vergnügt	866	1	!	1239	1	!	1279	0	0	0	0	0	0	0	0	0	0	0	0	0	0	0	0	0	0	0	0	0	0	0	0	0	0	0
121318	14:50:46	14:59:27	520945	5.0.10.0	4_exp_AWA_CON_EVA_AMP	14	Rpleas_acq	Same	Rpleas	Amasked	CS_A	1pleas	distractor2	CONbeforeEVA	acq_US_unple_masked	acq45_masked	5	27	400	1	300	300	0	0	353	46	0	1	0	0	0	1	blank2r.bmp	0	1	+	0	1	B1r.bmp	492	1	blank2r.bmp	786	1	DHJF	786	1	blank2r.bmp	866	4	krank	866	1	!	1239	1	!	1252	0	0	0	0	0	0	0	0	0	0	0	0	0	0	0	0	0	0	0	0	0	0	0	0	0	0	0
121318	14:50:46	14:59:30	523091	5.0.10.0	4_exp_AWA_CON_EVA_AMP	14	Rpleas_acq	Same	Rpleas	Amasked	CS_A	1pleas	distractor2	CONbeforeEVA	acq_US_unple_masked	acq45_masked	5	28	400	1	300	300	0	0	346	46	0	1	0	0	0	1	blank2r.bmp	0	1	+	0	4	B4r.bmp	492	1	blank2r.bmp	786	1	DHJF	786	1	blank2r.bmp	866	3	bange	866	1	!	1239	1	!	1252	0	0	0	0	0	0	0	0	0	0	0	0	0	0	0	0	0	0	0	0	0	0	0	0	0	0	0
121318	14:50:46	14:59:32	525196	5.0.10.0	4_exp_AWA_CON_EVA_AMP	14	Rpleas_acq	Same	Rpleas	Amasked	CS_A	1pleas	distractor2	CONbeforeEVA	acq_US_unple_masked	acq45_masked	5	29	400	0	300	300	0	0	319	46	0	1	0	0	0	1	blank2r.bmp	0	1	+	0	6	C2r.bmp	492	1	blank2r.bmp	786	1	DHJF	786	1	blank2r.bmp	866	6	geizig	866	1	!	-1	1	!	-1	0	0	0	0	0	0	0	0	0	0	0	0	0	0	0	0	0	0	0	0	0	0	0	0	0	0	0
121318	14:50:46	14:59:34	527302	5.0.10.0	4_exp_AWA_CON_EVA_AMP	14	Rpleas_acq	Same	Rpleas	Amasked	CS_A	1pleas	distractor2	CONbeforeEVA	acq_US_unple_masked	acq45_masked	5	30	400	0	300	300	0	0	327	46	0	1	0	0	0	1	blank2r.bmp	0	1	+	0	7	C3r.bmp	492	1	blank2r.bmp	786	1	DHJF	786	1	blank2r.bmp	866	1	gierig	866	1	!	-1	1	!	-1	0	0	0	0	0	0	0	0	0	0	0	0	0	0	0	0	0	0	0	0	0	0	0	0	0	0	0
121318	14:50:46	14:59:36	529475	5.0.10.0	4_exp_AWA_CON_EVA_AMP	14	Rpleas_acq	Same	Rpleas	Amasked	CS_A	1pleas	distractor2	CONbeforeEVA	acq_US_pleas_masked	acq45_masked	5	31	400	1	300	300	0	0	370	50	0	1	0	0	0	1	blank2r.bmp	0	1	+	0	3	B3r.bmp	492	1	blank2r.bmp	786	1	CPLW	786	1	blank2r.bmp	866	4	kreativ	866	1	!	1239	1	!	1266	0	0	0	0	0	0	0	0	0	0	0	0	0	0	0	0	0	0	0	0	0	0	0	0	0	0	0
121318	14:50:46	14:59:38	531620	5.0.10.0	4_exp_AWA_CON_EVA_AMP	14	Rpleas_acq	Same	Rpleas	Amasked	CS_A	1pleas	distractor2	CONbeforeEVA	acq_US_pleas_masked	acq45_masked	5	32	400	1	300	300	0	0	346	50	0	1	0	0	0	1	blank2r.bmp	0	1	+	0	2	B2r.bmp	492	1	blank2r.bmp	786	1	CPLW	786	1	blank2r.bmp	866	3	besonnen	866	1	!	1239	1	!	1252	0	0	0	0	0	0	0	0	0	0	0	0	0	0	0	0	0	0	0	0	0	0	0	0	0	0	0
121318	14:50:46	14:59:40	533686	5.0.10.0	4_exp_AWA_CON_EVA_AMP	14	Rpleas_acq	Same	Rpleas	Amasked	CS_A	1pleas	distractor2	CONbeforeEVA	acq_US_pleas_masked	acq45_masked	5	33	400	0	300	300	0	0	298	50	0	1	0	0	0	1	blank2r.bmp	0	1	+	0	4	B4r.bmp	492	1	blank2r.bmp	786	1	CPLW	786	1	blank2r.bmp	866	2	vertrauen	866	1	!	-1	1	!	-1	0	0	0	0	0	0	0	0	0	0	0	0	0	0	0	0	0	0	0	0	0	0	0	0	0	0	0
121318	14:50:46	14:59:42	535845	5.0.10.0	4_exp_AWA_CON_EVA_AMP	14	Rpleas_acq	Same	Rpleas	Amasked	CS_A	1pleas	distractor2	CONbeforeEVA	acq_US_pleas_masked	acq45_masked	5	34	400	1	300	300	0	0	346	50	0	1	0	0	0	1	blank2r.bmp	0	1	+	0	1	B1r.bmp	492	1	blank2r.bmp	786	1	CPLW	786	1	blank2r.bmp	866	1	gütig	866	1	!	1239	1	!	1252	0	0	0	0	0	0	0	0	0	0	0	0	0	0	0	0	0	0	0	0	0	0	0	0	0	0	0
121318	14:50:46	14:59:44	537938	5.0.10.0	4_exp_AWA_CON_EVA_AMP	14	Rpleas_acq	Same	Rpleas	Amasked	CS_A	1pleas	distractor2	CONbeforeEVA	acq_US_unple_masked	acq45_masked	5	35	400	0	300	300	0	0	330	46	0	1	0	0	0	1	blank2r.bmp	0	1	+	0	7	C3r.bmp	492	1	blank2r.bmp	786	1	DHJF	786	1	blank2r.bmp	866	5	verbissen	866	1	!	-1	1	!	-1	0	0	0	0	0	0	0	0	0	0	0	0	0	0	0	0	0	0	0	0	0	0	0	0	0	0	0
121318	14:50:46	14:59:47	540177	5.0.10.0	4_exp_AWA_CON_EVA_AMP	14	Rpleas_acq	Same	Rpleas	Amasked	CS_A	1pleas	distractor2	CONbeforeEVA	acq_US_pleas_masked	acq45_masked	5	36	400	1	300	300	0	0	427	50	0	1	0	0	0	1	blank2r.bmp	0	1	+	0	2	B2r.bmp	492	1	blank2r.bmp	786	1	CPLW	786	1	blank2r.bmp	866	6	gesittet	866	1	!	1239	1	!	1332	0	0	0	0	0	0	0	0	0	0	0	0	0	0	0	0	0	0	0	0	0	0	0	0	0	0	0
121318	14:50:46	15:01:28	641242	5.0.10.0	4_exp_AWA_CON_EVA_AMP	14	Rpleas_acq	Same	Rpleas	Amasked	CS_A	1pleas	distractor2	CONbeforeEVA	cond_US_unple_123_masked_CS1	condtest_masked_1	8	1	400	1	300	300	0	0	428	46	0	1	0	0	0	1	blank2r.bmp	0	1	+	0	3	B3r.bmp	492	1	blank2r.bmp	786	1	CPLW	786	1	blank2r.bmp	866	3	bange	866	1	!	1239	1	!	1332	0	0	0	0	0	0	0	0	0	0	0	0	0	0	0	0	0	0	0	0	0	0	0	0	0	0	0
121318	14:50:46	15:01:30	643428	5.0.10.0	4_exp_AWA_CON_EVA_AMP	14	Rpleas_acq	Same	Rpleas	Amasked	CS_A	1pleas	distractor2	CONbeforeEVA	cond_new_unple_456_masked_CS2	condtest_masked_1	8	2	400	1	300	300	0	0	374	46	0	1	0	0	0	1	blank2r.bmp	0	1	+	0	5	C1r.bmp	492	1	blank2r.bmp	786	1	DHJF	786	1	blank2r.bmp	866	2	krise	866	1	!	1239	1	!	1279	0	0	0	0	0	0	0	0	0	0	0	0	0	0	0	0	0	0	0	0	0	0	0	0	0	0	0
121318	14:50:46	15:01:32	645520	5.0.10.0	4_exp_AWA_CON_EVA_AMP	14	Rpleas_acq	Same	Rpleas	Amasked	CS_A	1pleas	distractor2	CONbeforeEVA	cond_US_unple_123_masked_CS2	condtest_masked_1	8	3	400	0	300	300	0	0	306	46	0	1	0	0	0	1	blank2r.bmp	0	1	+	0	8	C4r.bmp	492	1	blank2r.bmp	786	1	DHJF	786	1	blank2r.bmp	866	2	versagen	866	1	!	-1	1	!	-1	0	0	0	0	0	0	0	0	0	0	0	0	0	0	0	0	0	0	0	0	0	0	0	0	0	0	0
121318	14:50:46	15:01:34	647759	5.0.10.0	4_exp_AWA_CON_EVA_AMP	14	Rpleas_acq	Same	Rpleas	Amasked	CS_A	1pleas	distractor2	CONbeforeEVA	cond_new_unple_456_masked_CS1	condtest_masked_1	8	4	400	1	300	300	0	0	424	46	0	1	0	0	0	1	blank2r.bmp	0	1	+	0	6	C2r.bmp	492	1	blank2r.bmp	786	1	CPLW	786	1	blank2r.bmp	866	1	sterben	866	1	!	1239	1	!	1319	0	0	0	0	0	0	0	0	0	0	0	0	0	0	0	0	0	0	0	0	0	0	0	0	0	0	0
121318	14:50:46	15:01:36	649905	5.0.10.0	4_exp_AWA_CON_EVA_AMP	14	Rpleas_acq	Same	Rpleas	Amasked	CS_A	1pleas	distractor2	CONbeforeEVA	cond_US_pleas_123_masked_CS1	condtest_masked_1	8	5	400	1	300	300	0	0	355	46	0	0	0	0	0	1	blank2r.bmp	0	1	+	0	5	C1r.bmp	492	1	blank2r.bmp	786	1	CPLW	786	1	blank2r.bmp	866	3	besonnen	866	1	!	1239	1	!	1252	0	0	0	0	0	0	0	0	0	0	0	0	0	0	0	0	0	0	0	0	0	0	0	0	0	0	0
121318	14:50:46	15:01:39	652078	5.0.10.0	4_exp_AWA_CON_EVA_AMP	14	Rpleas_acq	Same	Rpleas	Amasked	CS_A	1pleas	distractor2	CONbeforeEVA	cond_new_pleas_456_masked_CS1	condtest_masked_1	8	6	400	1	300	300	0	0	374	50	0	1	0	0	0	1	blank2r.bmp	0	1	+	0	1	B1r.bmp	492	1	blank2r.bmp	786	1	CPLW	786	1	blank2r.bmp	866	2	kuss	866	1	!	1239	1	!	1279	0	0	0	0	0	0	0	0	0	0	0	0	0	0	0	0	0	0	0	0	0	0	0	0	0	0	0
121318	14:50:46	15:01:41	654263	5.0.10.0	4_exp_AWA_CON_EVA_AMP	14	Rpleas_acq	Same	Rpleas	Amasked	CS_A	1pleas	distractor2	CONbeforeEVA	cond_new_pleas_456_masked_CS2	condtest_masked_1	8	7	400	1	300	300	0	0	389	46	0	0	0	0	0	1	blank2r.bmp	0	1	+	0	3	B3r.bmp	492	1	blank2r.bmp	786	1	DHJF	786	1	blank2r.bmp	866	3	anregung	866	1	!	1239	1	!	1292	0	0	0	0	0	0	0	0	0	0	0	0	0	0	0	0	0	0	0	0	0	0	0	0	0	0	0
121318	14:50:46	15:01:43	656449	5.0.10.0	4_exp_AWA_CON_EVA_AMP	14	Rpleas_acq	Same	Rpleas	Amasked	CS_A	1pleas	distractor2	CONbeforeEVA	cond_US_pleas_123_masked_CS2	condtest_masked_1	8	8	400	1	300	300	0	0	390	46	0	0	0	0	0	1	blank2r.bmp	0	1	+	0	6	C2r.bmp	492	1	blank2r.bmp	786	1	DHJF	786	1	blank2r.bmp	866	2	vertrauen	866	1	!	1239	1	!	1292	0	0	0	0	0	0	0	0	0	0	0	0	0	0	0	0	0	0	0	0	0	0	0	0	0	0	0
121318	14:50:46	15:01:56	669230	5.0.10.0	4_exp_AWA_CON_EVA_AMP	14	Rpleas_acq	Same	Rpleas	Amasked	CS_A	1pleas	distractor2	CONbeforeEVA	cond_new_unple_456_masked_CS1	condtest_masked_2	9	1	400	0	300	300	0	0	479	46	0	1	0	0	0	1	blank2r.bmp	0	1	+	0	8	C4r.bmp	492	1	blank2r.bmp	786	1	CPLW	786	1	blank2r.bmp	866	3	ausrottung	866	1	!	1239	1	!	-1	0	0	0	0	0	0	0	0	0	0	0	0	0	0	0	0	0	0	0	0	0	0	0	0	0	0	0
121318	14:50:46	15:01:58	671403	5.0.10.0	4_exp_AWA_CON_EVA_AMP	14	Rpleas_acq	Same	Rpleas	Amasked	CS_A	1pleas	distractor2	CONbeforeEVA	cond_new_pleas_456_masked_CS2	condtest_masked_2	9	2	400	1	300	300	0	0	368	46	0	0	0	0	0	1	blank2r.bmp	0	1	+	0	2	B2r.bmp	492	1	blank2r.bmp	786	1	DHJF	786	1	blank2r.bmp	866	1	sonnig	866	1	!	1239	1	!	1266	0	0	0	0	0	0	0	0	0	0	0	0	0	0	0	0	0	0	0	0	0	0	0	0	0	0	0
121318	14:50:46	15:02:00	673615	5.0.10.0	4_exp_AWA_CON_EVA_AMP	14	Rpleas_acq	Same	Rpleas	Amasked	CS_A	1pleas	distractor2	CONbeforeEVA	cond_US_unple_123_masked_CS2	condtest_masked_2	9	3	400	1	300	300	0	0	419	46	0	1	0	0	0	1	blank2r.bmp	0	1	+	0	7	C3r.bmp	492	1	blank2r.bmp	786	1	DHJF	786	1	blank2r.bmp	866	1	gierig	866	1	!	1239	1	!	1319	0	0	0	0	0	0	0	0	0	0	0	0	0	0	0	0	0	0	0	0	0	0	0	0	0	0	0
121318	14:50:46	15:02:04	677814	5.0.10.0	4_exp_AWA_CON_EVA_AMP	14	Rpleas_acq	Same	Rpleas	Amasked	CS_A	1pleas	distractor2	CONbeforeEVA	cond_US_unple_123_masked_CS2	condtest_masked_2	9	4	400	0	300	300	0	0	2426	46	0	1	0	0	0	1	blank2r.bmp	0	1	+	0	4	B4r.bmp	492	1	blank2r.bmp	786	1	DHJF	786	1	blank2r.bmp	866	3	bange	866	1	!	1239	1	!	-1	0	0	0	0	0	0	0	0	0	0	0	0	0	0	0	0	0	0	0	0	0	0	0	0	0	0	0
121318	14:50:46	15:02:06	679986	5.0.10.0	4_exp_AWA_CON_EVA_AMP	14	Rpleas_acq	Same	Rpleas	Amasked	CS_A	1pleas	distractor2	CONbeforeEVA	cond_new_pleas_456_masked_CS1	condtest_masked_2	9	5	400	1	300	300	0	0	369	50	0	1	0	0	0	1	blank2r.bmp	0	1	+	0	8	C4r.bmp	492	1	blank2r.bmp	786	1	CPLW	786	1	blank2r.bmp	866	2	kuss	866	1	!	1239	1	!	1266	0	0	0	0	0	0	0	0	0	0	0	0	0	0	0	0	0	0	0	0	0	0	0	0	0	0	0
121318	14:50:46	15:02:09	682198	5.0.10.0	4_exp_AWA_CON_EVA_AMP	14	Rpleas_acq	Same	Rpleas	Amasked	CS_A	1pleas	distractor2	CONbeforeEVA	cond_new_unple_456_masked_CS1	condtest_masked_2	9	6	400	1	300	300	0	0	422	50	0	0	0	0	0	1	blank2r.bmp	0	1	+	0	5	C1r.bmp	492	1	blank2r.bmp	786	1	CPLW	786	1	blank2r.bmp	866	3	ausrottung	866	1	!	1239	1	!	1319	0	0	0	0	0	0	0	0	0	0	0	0	0	0	0	0	0	0	0	0	0	0	0	0	0	0	0
121318	14:50:46	15:02:11	684424	5.0.10.0	4_exp_AWA_CON_EVA_AMP	14	Rpleas_acq	Same	Rpleas	Amasked	CS_A	1pleas	distractor2	CONbeforeEVA	cond_US_unple_123_masked_CS1	condtest_masked_2	9	7	400	1	300	300	0	0	429	46	0	1	0	0	0	1	blank2r.bmp	0	1	+	0	3	B3r.bmp	492	1	blank2r.bmp	786	1	CPLW	786	1	blank2r.bmp	866	2	versagen	866	1	!	1239	1	!	1332	0	0	0	0	0	0	0	0	0	0	0	0	0	0	0	0	0	0	0	0	0	0	0	0	0	0	0
121318	14:50:46	15:02:13	686623	5.0.10.0	4_exp_AWA_CON_EVA_AMP	14	Rpleas_acq	Same	Rpleas	Amasked	CS_A	1pleas	distractor2	CONbeforeEVA	cond_new_unple_456_masked_CS1	condtest_masked_2	9	8	400	1	300	300	0	0	387	46	0	1	0	0	0	1	blank2r.bmp	0	1	+	0	2	B2r.bmp	492	1	blank2r.bmp	786	1	CPLW	786	1	blank2r.bmp	866	1	sterben	866	1	!	1239	1	!	1292	0	0	0	0	0	0	0	0	0	0	0	0	0	0	0	0	0	0	0	0	0	0	0	0	0	0	0
121318	14:50:46	15:02:15	688836	5.0.10.0	4_exp_AWA_CON_EVA_AMP	14	Rpleas_acq	Same	Rpleas	Amasked	CS_A	1pleas	distractor2	CONbeforeEVA	cond_US_unple_123_masked_CS1	condtest_masked_2	9	9	400	1	300	300	0	0	399	46	0	1	0	0	0	1	blank2r.bmp	0	1	+	0	1	B1r.bmp	492	1	blank2r.bmp	786	1	CPLW	786	1	blank2r.bmp	866	1	gierig	866	1	!	1239	1	!	1306	0	0	0	0	0	0	0	0	0	0	0	0	0	0	0	0	0	0	0	0	0	0	0	0	0	0	0
121318	14:50:46	15:02:18	691061	5.0.10.0	4_exp_AWA_CON_EVA_AMP	14	Rpleas_acq	Same	Rpleas	Amasked	CS_A	1pleas	distractor2	CONbeforeEVA	cond_new_pleas_456_masked_CS1	condtest_masked_2	9	10	400	1	300	300	0	0	431	50	0	1	0	0	0	1	blank2r.bmp	0	1	+	0	6	C2r.bmp	492	1	blank2r.bmp	786	1	CPLW	786	1	blank2r.bmp	866	1	sonnig	866	1	!	1239	1	!	1332	0	0	0	0	0	0	0	0	0	0	0	0	0	0	0	0	0	0	0	0	0	0	0	0	0	0	0
121318	14:50:46	15:02:20	693287	5.0.10.0	4_exp_AWA_CON_EVA_AMP	14	Rpleas_acq	Same	Rpleas	Amasked	CS_A	1pleas	distractor2	CONbeforeEVA	cond_US_pleas_123_masked_CS2	condtest_masked_2	9	11	400	1	300	300	0	0	427	46	0	0	0	0	0	1	blank2r.bmp	0	1	+	0	7	C3r.bmp	492	1	blank2r.bmp	786	1	DHJF	786	1	blank2r.bmp	866	1	gütig	866	1	!	1239	1	!	1332	0	0	0	0	0	0	0	0	0	0	0	0	0	0	0	0	0	0	0	0	0	0	0	0	0	0	0
121318	14:50:46	15:02:22	695526	5.0.10.0	4_exp_AWA_CON_EVA_AMP	14	Rpleas_acq	Same	Rpleas	Amasked	CS_A	1pleas	distractor2	CONbeforeEVA	cond_new_pleas_456_masked_CS1	condtest_masked_2	9	12	400	1	300	300	0	0	449	46	0	0	0	0	0	1	blank2r.bmp	0	1	+	0	4	B4r.bmp	492	1	blank2r.bmp	786	1	CPLW	786	1	blank2r.bmp	866	3	anregung	866	1	!	1239	1	!	1346	0	0	0	0	0	0	0	0	0	0	0	0	0	0	0	0	0	0	0	0	0	0	0	0	0	0	0
121318	14:50:46	15:02:24	697779	5.0.10.0	4_exp_AWA_CON_EVA_AMP	14	Rpleas_acq	Same	Rpleas	Amasked	CS_A	1pleas	distractor2	CONbeforeEVA	cond_new_unple_456_masked_CS2	condtest_masked_2	9	13	400	0	300	300	0	0	485	46	0	1	0	0	0	1	blank2r.bmp	0	1	+	0	2	B2r.bmp	492	1	blank2r.bmp	786	1	DHJF	786	1	blank2r.bmp	866	2	krise	866	1	!	1239	1	!	-1	0	0	0	0	0	0	0	0	0	0	0	0	0	0	0	0	0	0	0	0	0	0	0	0	0	0	0
121318	14:50:46	15:02:27	700018	5.0.10.0	4_exp_AWA_CON_EVA_AMP	14	Rpleas_acq	Same	Rpleas	Amasked	CS_A	1pleas	distractor2	CONbeforeEVA	cond_US_pleas_123_masked_CS2	condtest_masked_2	9	14	400	1	300	300	0	0	437	50	0	1	0	0	0	1	blank2r.bmp	0	1	+	0	1	B1r.bmp	492	1	blank2r.bmp	786	1	DHJF	786	1	blank2r.bmp	866	2	vertrauen	866	1	!	1239	1	!	1332	0	0	0	0	0	0	0	0	0	0	0	0	0	0	0	0	0	0	0	0	0	0	0	0	0	0	0
121318	14:50:46	15:02:29	702164	5.0.10.0	4_exp_AWA_CON_EVA_AMP	14	Rpleas_acq	Same	Rpleas	Amasked	CS_A	1pleas	distractor2	CONbeforeEVA	cond_US_pleas_123_masked_CS2	condtest_masked_2	9	15	400	1	300	300	0	0	346	50	0	1	0	0	0	1	blank2r.bmp	0	1	+	0	5	C1r.bmp	492	1	blank2r.bmp	786	1	DHJF	786	1	blank2r.bmp	866	1	gütig	866	1	!	1239	1	!	1252	0	0	0	0	0	0	0	0	0	0	0	0	0	0	0	0	0	0	0	0	0	0	0	0	0	0	0
121318	14:50:46	15:02:31	704389	5.0.10.0	4_exp_AWA_CON_EVA_AMP	14	Rpleas_acq	Same	Rpleas	Amasked	CS_A	1pleas	distractor2	CONbeforeEVA	cond_US_unple_123_masked_CS2	condtest_masked_2	9	16	400	1	300	300	0	0	430	46	0	1	0	0	0	1	blank2r.bmp	0	1	+	0	4	B4r.bmp	492	1	blank2r.bmp	786	1	DHJF	786	1	blank2r.bmp	866	3	bange	866	1	!	1239	1	!	1332	0	0	0	0	0	0	0	0	0	0	0	0	0	0	0	0	0	0	0	0	0	0	0	0	0	0	0
121318	14:50:46	15:02:33	706615	5.0.10.0	4_exp_AWA_CON_EVA_AMP	14	Rpleas_acq	Same	Rpleas	Amasked	CS_A	1pleas	distractor2	CONbeforeEVA	cond_new_unple_456_masked_CS2	condtest_masked_2	9	17	400	1	300	300	0	0	429	50	0	0	0	0	0	1	blank2r.bmp	0	1	+	0	3	B3r.bmp	492	1	blank2r.bmp	786	1	DHJF	786	1	blank2r.bmp	866	3	ausrottung	866	1	!	1239	1	!	1332	0	0	0	0	0	0	0	0	0	0	0	0	0	0	0	0	0	0	0	0	0	0	0	0	0	0	0
121318	14:50:46	15:02:35	708987	5.0.10.0	4_exp_AWA_CON_EVA_AMP	14	Rpleas_acq	Same	Rpleas	Amasked	CS_A	1pleas	distractor2	CONbeforeEVA	cond_US_unple_123_masked_CS2	condtest_masked_2	9	18	400	0	300	300	0	0	607	46	0	1	0	0	0	1	blank2r.bmp	0	1	+	0	6	C2r.bmp	492	1	blank2r.bmp	786	1	DHJF	786	1	blank2r.bmp	866	2	versagen	866	1	!	1239	1	!	-1	0	0	0	0	0	0	0	0	0	0	0	0	0	0	0	0	0	0	0	0	0	0	0	0	0	0	0
121318	14:50:46	15:02:38	711213	5.0.10.0	4_exp_AWA_CON_EVA_AMP	14	Rpleas_acq	Same	Rpleas	Amasked	CS_A	1pleas	distractor2	CONbeforeEVA	cond_US_pleas_123_masked_CS1	condtest_masked_2	9	19	400	1	300	300	0	0	422	50	0	1	0	0	0	1	blank2r.bmp	0	1	+	0	7	C3r.bmp	492	1	blank2r.bmp	786	1	CPLW	786	1	blank2r.bmp	866	3	besonnen	866	1	!	1239	1	!	1319	0	0	0	0	0	0	0	0	0	0	0	0	0	0	0	0	0	0	0	0	0	0	0	0	0	0	0
121318	14:50:46	15:02:40	713479	5.0.10.0	4_exp_AWA_CON_EVA_AMP	14	Rpleas_acq	Same	Rpleas	Amasked	CS_A	1pleas	distractor2	CONbeforeEVA	cond_US_unple_123_masked_CS1	condtest_masked_2	9	20	400	0	300	300	0	0	501	46	0	1	0	0	0	1	blank2r.bmp	0	1	+	0	8	C4r.bmp	492	1	blank2r.bmp	786	1	CPLW	786	1	blank2r.bmp	866	1	gierig	866	1	!	1239	1	!	-1	0	0	0	0	0	0	0	0	0	0	0	0	0	0	0	0	0	0	0	0	0	0	0	0	0	0	0
121318	14:50:46	15:02:42	715745	5.0.10.0	4_exp_AWA_CON_EVA_AMP	14	Rpleas_acq	Same	Rpleas	Amasked	CS_A	1pleas	distractor2	CONbeforeEVA	cond_US_pleas_123_masked_CS2	condtest_masked_2	9	21	400	0	300	300	0	0	489	50	0	1	0	0	0	1	blank2r.bmp	0	1	+	0	7	C3r.bmp	492	1	blank2r.bmp	786	1	DHJF	786	1	blank2r.bmp	866	1	gütig	866	1	!	1239	1	!	-1	0	0	0	0	0	0	0	0	0	0	0	0	0	0	0	0	0	0	0	0	0	0	0	0	0	0	0
121318	14:50:46	15:02:44	717810	5.0.10.0	4_exp_AWA_CON_EVA_AMP	14	Rpleas_acq	Same	Rpleas	Amasked	CS_A	1pleas	distractor2	CONbeforeEVA	cond_new_unple_456_masked_CS1	condtest_masked_2	9	22	400	0	300	300	0	0	291	50	0	0	0	0	0	1	blank2r.bmp	0	1	+	0	3	B3r.bmp	492	1	blank2r.bmp	786	1	CPLW	786	1	blank2r.bmp	866	1	sterben	866	1	!	-1	1	!	-1	0	0	0	0	0	0	0	0	0	0	0	0	0	0	0	0	0	0	0	0	0	0	0	0	0	0	0
121318	14:50:46	15:02:47	720010	5.0.10.0	4_exp_AWA_CON_EVA_AMP	14	Rpleas_acq	Same	Rpleas	Amasked	CS_A	1pleas	distractor2	CONbeforeEVA	cond_new_pleas_456_masked_CS2	condtest_masked_2	9	23	400	1	300	300	0	0	378	50	0	1	0	0	0	1	blank2r.bmp	0	1	+	0	2	B2r.bmp	492	1	blank2r.bmp	786	1	DHJF	786	1	blank2r.bmp	866	2	kuss	866	1	!	1239	1	!	1279	0	0	0	0	0	0	0	0	0	0	0	0	0	0	0	0	0	0	0	0	0	0	0	0	0	0	0
121318	14:50:46	15:02:50	723115	5.0.10.0	4_exp_AWA_CON_EVA_AMP	14	Rpleas_acq	Same	Rpleas	Amasked	CS_A	1pleas	distractor2	CONbeforeEVA	cond_new_unple_456_masked_CS2	condtest_masked_2	9	24	400	0	300	300	0	0	1342	46	0	1	0	0	0	1	blank2r.bmp	0	1	+	0	5	C1r.bmp	492	1	blank2r.bmp	786	1	DHJF	786	1	blank2r.bmp	866	2	krise	866	1	!	1239	1	!	-1	0	0	0	0	0	0	0	0	0	0	0	0	0	0	0	0	0	0	0	0	0	0	0	0	0	0	0
121318	14:50:46	15:02:52	725287	5.0.10.0	4_exp_AWA_CON_EVA_AMP	14	Rpleas_acq	Same	Rpleas	Amasked	CS_A	1pleas	distractor2	CONbeforeEVA	cond_US_pleas_123_masked_CS1	condtest_masked_2	9	25	400	1	300	300	0	0	346	50	0	1	0	0	0	1	blank2r.bmp	0	1	+	0	1	B1r.bmp	492	1	blank2r.bmp	786	1	CPLW	786	1	blank2r.bmp	866	2	vertrauen	866	1	!	1239	1	!	1252	0	0	0	0	0	0	0	0	0	0	0	0	0	0	0	0	0	0	0	0	0	0	0	0	0	0	0
121318	14:50:46	15:02:54	727473	5.0.10.0	4_exp_AWA_CON_EVA_AMP	14	Rpleas_acq	Same	Rpleas	Amasked	CS_A	1pleas	distractor2	CONbeforeEVA	cond_new_pleas_456_masked_CS2	condtest_masked_2	9	26	400	1	300	300	0	0	393	50	0	1	0	0	0	1	blank2r.bmp	0	1	+	0	8	C4r.bmp	492	1	blank2r.bmp	786	1	DHJF	786	1	blank2r.bmp	866	1	sonnig	866	1	!	1239	1	!	1292	0	0	0	0	0	0	0	0	0	0	0	0	0	0	0	0	0	0	0	0	0	0	0	0	0	0	0
121318	14:50:46	15:02:56	729752	5.0.10.0	4_exp_AWA_CON_EVA_AMP	14	Rpleas_acq	Same	Rpleas	Amasked	CS_A	1pleas	distractor2	CONbeforeEVA	cond_new_pleas_456_masked_CS2	condtest_masked_2	9	27	400	0	300	300	0	0	507	50	0	1	0	0	0	1	blank2r.bmp	0	1	+	0	4	B4r.bmp	492	1	blank2r.bmp	786	1	DHJF	786	1	blank2r.bmp	866	3	anregung	866	1	!	1239	1	!	-1	0	0	0	0	0	0	0	0	0	0	0	0	0	0	0	0	0	0	0	0	0	0	0	0	0	0	0
121318	14:50:46	15:02:58	731911	5.0.10.0	4_exp_AWA_CON_EVA_AMP	14	Rpleas_acq	Same	Rpleas	Amasked	CS_A	1pleas	distractor2	CONbeforeEVA	cond_new_pleas_456_masked_CS2	condtest_masked_2	9	28	400	1	300	300	0	0	353	50	0	1	0	0	0	1	blank2r.bmp	0	1	+	0	6	C2r.bmp	492	1	blank2r.bmp	786	1	DHJF	786	1	blank2r.bmp	866	1	sonnig	866	1	!	1239	1	!	1252	0	0	0	0	0	0	0	0	0	0	0	0	0	0	0	0	0	0	0	0	0	0	0	0	0	0	0
121318	14:50:46	15:03:01	734084	5.0.10.0	4_exp_AWA_CON_EVA_AMP	14	Rpleas_acq	Same	Rpleas	Amasked	CS_A	1pleas	distractor2	CONbeforeEVA	cond_US_pleas_123_masked_CS1	condtest_masked_2	9	29	400	1	300	300	0	0	359	50	0	1	0	0	0	1	blank2r.bmp	0	1	+	0	7	C3r.bmp	492	1	blank2r.bmp	786	1	CPLW	786	1	blank2r.bmp	866	3	besonnen	866	1	!	1239	1	!	1266	0	0	0	0	0	0	0	0	0	0	0	0	0	0	0	0	0	0	0	0	0	0	0	0	0	0	0
121318	14:50:46	15:03:03	736323	5.0.10.0	4_exp_AWA_CON_EVA_AMP	14	Rpleas_acq	Same	Rpleas	Amasked	CS_A	1pleas	distractor2	CONbeforeEVA	cond_US_unple_123_masked_CS1	condtest_masked_2	9	30	400	1	300	300	0	0	451	46	0	1	0	0	0	1	blank2r.bmp	0	1	+	0	1	B1r.bmp	492	1	blank2r.bmp	786	1	CPLW	786	1	blank2r.bmp	866	3	bange	866	1	!	1239	1	!	1346	0	0	0	0	0	0	0	0	0	0	0	0	0	0	0	0	0	0	0	0	0	0	0	0	0	0	0
121318	14:50:46	15:03:05	738469	5.0.10.0	4_exp_AWA_CON_EVA_AMP	14	Rpleas_acq	Same	Rpleas	Amasked	CS_A	1pleas	distractor2	CONbeforeEVA	cond_new_unple_456_masked_CS2	condtest_masked_2	9	31	400	1	300	300	0	0	358	50	0	0	0	0	0	1	blank2r.bmp	0	1	+	0	5	C1r.bmp	492	1	blank2r.bmp	786	1	DHJF	786	1	blank2r.bmp	866	2	krise	866	1	!	1239	1	!	1252	0	0	0	0	0	0	0	0	0	0	0	0	0	0	0	0	0	0	0	0	0	0	0	0	0	0	0
121318	14:50:46	15:03:07	740668	5.0.10.0	4_exp_AWA_CON_EVA_AMP	14	Rpleas_acq	Same	Rpleas	Amasked	CS_A	1pleas	distractor2	CONbeforeEVA	cond_US_pleas_123_masked_CS1	condtest_masked_2	9	32	400	1	300	300	0	0	411	50	0	1	0	0	0	1	blank2r.bmp	0	1	+	0	4	B4r.bmp	492	1	blank2r.bmp	786	1	CPLW	786	1	blank2r.bmp	866	2	vertrauen	866	1	!	1239	1	!	1306	0	0	0	0	0	0	0	0	0	0	0	0	0	0	0	0	0	0	0	0	0	0	0	0	0	0	0
121318	14:50:46	15:03:09	742973	5.0.10.0	4_exp_AWA_CON_EVA_AMP	14	Rpleas_acq	Same	Rpleas	Amasked	CS_A	1pleas	distractor2	CONbeforeEVA	cond_US_pleas_123_masked_CS2	condtest_masked_2	9	33	400	0	300	300	0	0	538	50	0	1	0	0	0	1	blank2r.bmp	0	1	+	0	3	B3r.bmp	492	1	blank2r.bmp	786	1	DHJF	786	1	blank2r.bmp	866	1	gütig	866	1	!	1239	1	!	-1	0	0	0	0	0	0	0	0	0	0	0	0	0	0	0	0	0	0	0	0	0	0	0	0	0	0	0
121318	14:50:46	15:03:12	745719	5.0.10.0	4_exp_AWA_CON_EVA_AMP	14	Rpleas_acq	Same	Rpleas	Amasked	CS_A	1pleas	distractor2	CONbeforeEVA	cond_new_pleas_456_masked_CS1	condtest_masked_2	9	34	400	0	300	300	0	0	955	50	0	1	0	0	0	1	blank2r.bmp	0	1	+	0	2	B2r.bmp	492	1	blank2r.bmp	786	1	CPLW	786	1	blank2r.bmp	866	3	anregung	866	1	!	1239	1	!	-1	0	0	0	0	0	0	0	0	0	0	0	0	0	0	0	0	0	0	0	0	0	0	0	0	0	0	0
121318	14:50:46	15:03:14	747958	5.0.10.0	4_exp_AWA_CON_EVA_AMP	14	Rpleas_acq	Same	Rpleas	Amasked	CS_A	1pleas	distractor2	CONbeforeEVA	cond_US_unple_123_masked_CS1	condtest_masked_2	9	35	400	1	300	300	0	0	424	46	0	1	0	0	0	1	blank2r.bmp	0	1	+	0	8	C4r.bmp	492	1	blank2r.bmp	786	1	CPLW	786	1	blank2r.bmp	866	1	gierig	866	1	!	1239	1	!	1319	0	0	0	0	0	0	0	0	0	0	0	0	0	0	0	0	0	0	0	0	0	0	0	0	0	0	0
121318	14:50:46	15:03:17	750131	5.0.10.0	4_exp_AWA_CON_EVA_AMP	14	Rpleas_acq	Same	Rpleas	Amasked	CS_A	1pleas	distractor2	CONbeforeEVA	cond_new_pleas_456_masked_CS1	condtest_masked_2	9	36	400	1	300	300	0	0	382	50	0	1	0	0	0	1	blank2r.bmp	0	1	+	0	6	C2r.bmp	492	1	blank2r.bmp	786	1	CPLW	786	1	blank2r.bmp	866	2	kuss	866	1	!	1239	1	!	1279	0	0	0	0	0	0	0	0	0	0	0	0	0	0	0	0	0	0	0	0	0	0	0	0	0	0	0
121318	14:50:46	15:03:19	752370	5.0.10.0	4_exp_AWA_CON_EVA_AMP	14	Rpleas_acq	Same	Rpleas	Amasked	CS_A	1pleas	distractor2	CONbeforeEVA	cond_new_unple_456_masked_CS1	condtest_masked_2	9	37	400	1	300	300	0	0	427	46	0	1	0	0	0	1	blank2r.bmp	0	1	+	0	3	B3r.bmp	492	1	blank2r.bmp	786	1	CPLW	786	1	blank2r.bmp	866	3	ausrottung	866	1	!	1239	1	!	1332	0	0	0	0	0	0	0	0	0	0	0	0	0	0	0	0	0	0	0	0	0	0	0	0	0	0	0
121318	14:50:46	15:03:21	754569	5.0.10.0	4_exp_AWA_CON_EVA_AMP	14	Rpleas_acq	Same	Rpleas	Amasked	CS_A	1pleas	distractor2	CONbeforeEVA	cond_new_unple_456_masked_CS2	condtest_masked_2	9	38	400	1	300	300	0	0	409	46	0	1	0	0	0	1	blank2r.bmp	0	1	+	0	2	B2r.bmp	492	1	blank2r.bmp	786	1	DHJF	786	1	blank2r.bmp	866	1	sterben	866	1	!	1239	1	!	1306	0	0	0	0	0	0	0	0	0	0	0	0	0	0	0	0	0	0	0	0	0	0	0	0	0	0	0
121318	14:50:46	15:03:23	756914	5.0.10.0	4_exp_AWA_CON_EVA_AMP	14	Rpleas_acq	Same	Rpleas	Amasked	CS_A	1pleas	distractor2	CONbeforeEVA	cond_US_pleas_123_masked_CS1	condtest_masked_2	9	39	400	0	300	300	0	0	574	50	0	1	0	0	0	1	blank2r.bmp	0	1	+	0	1	B1r.bmp	492	1	blank2r.bmp	786	1	CPLW	786	1	blank2r.bmp	866	3	besonnen	866	1	!	1239	1	!	-1	0	0	0	0	0	0	0	0	0	0	0	0	0	0	0	0	0	0	0	0	0	0	0	0	0	0	0
121318	14:50:46	15:03:26	759113	5.0.10.0	4_exp_AWA_CON_EVA_AMP	14	Rpleas_acq	Same	Rpleas	Amasked	CS_A	1pleas	distractor2	CONbeforeEVA	cond_US_unple_123_masked_CS2	condtest_masked_2	9	40	400	1	300	300	0	0	396	46	0	1	0	0	0	1	blank2r.bmp	0	1	+	0	5	C1r.bmp	492	1	blank2r.bmp	786	1	DHJF	786	1	blank2r.bmp	866	2	versagen	866	1	!	1239	1	!	1292	0	0	0	0	0	0	0	0	0	0	0	0	0	0	0	0	0	0	0	0	0	0	0	0	0	0	0
121318	14:50:46	15:03:37	770775	5.0.10.0	4_exp_AWA_CON_EVA_AMP	14	Rpleas_acq	Same	Rpleas	Amasked	CS_A	1pleas	distractor2	CONbeforeEVA	cond_US_pleas_456_masked_CS1	condtest_masked_3	10	1	400	1	300	300	0	0	406	50	0	1	0	0	0	1	blank2r.bmp	0	1	+	0	6	C2r.bmp	492	1	blank2r.bmp	786	1	CPLW	786	1	blank2r.bmp	866	1	kreativ	866	1	!	1239	1	!	1306	0	0	0	0	0	0	0	0	0	0	0	0	0	0	0	0	0	0	0	0	0	0	0	0	0	0	0
121318	14:50:46	15:03:40	773001	5.0.10.0	4_exp_AWA_CON_EVA_AMP	14	Rpleas_acq	Same	Rpleas	Amasked	CS_A	1pleas	distractor2	CONbeforeEVA	cond_new_unple_123_masked_CS2	condtest_masked_3	10	2	400	1	300	300	0	0	438	46	0	1	0	0	0	1	blank2r.bmp	0	1	+	0	8	C4r.bmp	492	1	blank2r.bmp	786	1	DHJF	786	1	blank2r.bmp	866	2	gemein	866	1	!	1239	1	!	1332	0	0	0	0	0	0	0	0	0	0	0	0	0	0	0	0	0	0	0	0	0	0	0	0	0	0	0
121318	14:50:46	15:03:42	775174	5.0.10.0	4_exp_AWA_CON_EVA_AMP	14	Rpleas_acq	Same	Rpleas	Amasked	CS_A	1pleas	distractor2	CONbeforeEVA	cond_US_pleas_456_masked_CS2	condtest_masked_3	10	3	400	1	300	300	0	0	359	46	0	0	0	0	0	1	blank2r.bmp	0	1	+	0	4	B4r.bmp	492	1	blank2r.bmp	786	1	DHJF	786	1	blank2r.bmp	866	2	vergnügt	866	1	!	1239	1	!	1266	0	0	0	0	0	0	0	0	0	0	0	0	0	0	0	0	0	0	0	0	0	0	0	0	0	0	0
121318	14:50:46	15:03:44	777346	5.0.10.0	4_exp_AWA_CON_EVA_AMP	14	Rpleas_acq	Same	Rpleas	Amasked	CS_A	1pleas	distractor2	CONbeforeEVA	cond_US_unple_456_masked_CS2	condtest_masked_3	10	4	400	1	300	300	0	0	378	46	0	1	0	0	0	1	blank2r.bmp	0	1	+	0	7	C3r.bmp	492	1	blank2r.bmp	786	1	DHJF	786	1	blank2r.bmp	866	1	krank	866	1	!	1239	1	!	1279	0	0	0	0	0	0	0	0	0	0	0	0	0	0	0	0	0	0	0	0	0	0	0	0	0	0	0
121318	14:50:46	15:03:46	779612	5.0.10.0	4_exp_AWA_CON_EVA_AMP	14	Rpleas_acq	Same	Rpleas	Amasked	CS_A	1pleas	distractor2	CONbeforeEVA	cond_new_unple_123_masked_CS1	condtest_masked_3	10	5	400	0	300	300	0	0	492	46	0	1	0	0	0	1	blank2r.bmp	0	1	+	0	6	C2r.bmp	492	1	blank2r.bmp	786	1	CPLW	786	1	blank2r.bmp	866	1	töten	866	1	!	1239	1	!	-1	0	0	0	0	0	0	0	0	0	0	0	0	0	0	0	0	0	0	0	0	0	0	0	0	0	0	0
121318	14:50:46	15:03:48	781837	5.0.10.0	4_exp_AWA_CON_EVA_AMP	14	Rpleas_acq	Same	Rpleas	Amasked	CS_A	1pleas	distractor2	CONbeforeEVA	cond_new_pleas_123_masked_CS1	condtest_masked_3	10	6	400	1	300	300	0	0	421	46	0	0	0	0	0	1	blank2r.bmp	0	1	+	0	1	B1r.bmp	492	1	blank2r.bmp	786	1	CPLW	786	1	blank2r.bmp	866	3	engagiert	866	1	!	1239	1	!	1319	0	0	0	0	0	0	0	0	0	0	0	0	0	0	0	0	0	0	0	0	0	0	0	0	0	0	0
121318	14:50:46	15:03:51	784037	5.0.10.0	4_exp_AWA_CON_EVA_AMP	14	Rpleas_acq	Same	Rpleas	Amasked	CS_A	1pleas	distractor2	CONbeforeEVA	cond_new_unple_123_masked_CS1	condtest_masked_3	10	7	400	1	300	300	0	0	407	50	0	0	0	0	0	1	blank2r.bmp	0	1	+	0	3	B3r.bmp	492	1	blank2r.bmp	786	1	CPLW	786	1	blank2r.bmp	866	3	engstirnig	866	1	!	1239	1	!	1306	0	0	0	0	0	0	0	0	0	0	0	0	0	0	0	0	0	0	0	0	0	0	0	0	0	0	0
121318	14:50:46	15:03:53	786289	5.0.10.0	4_exp_AWA_CON_EVA_AMP	14	Rpleas_acq	Same	Rpleas	Amasked	CS_A	1pleas	distractor2	CONbeforeEVA	cond_US_pleas_456_masked_CS1	condtest_masked_3	10	8	400	0	300	300	0	0	487	50	0	1	0	0	0	1	blank2r.bmp	0	1	+	0	7	C3r.bmp	492	1	blank2r.bmp	786	1	CPLW	786	1	blank2r.bmp	866	3	gesittet	866	1	!	1239	1	!	-1	0	0	0	0	0	0	0	0	0	0	0	0	0	0	0	0	0	0	0	0	0	0	0	0	0	0	0
121318	14:50:46	15:03:55	788448	5.0.10.0	4_exp_AWA_CON_EVA_AMP	14	Rpleas_acq	Same	Rpleas	Amasked	CS_A	1pleas	distractor2	CONbeforeEVA	cond_US_unple_456_masked_CS2	condtest_masked_3	10	9	400	1	300	300	0	0	346	46	0	1	0	0	0	1	blank2r.bmp	0	1	+	0	2	B2r.bmp	492	1	blank2r.bmp	786	1	DHJF	786	1	blank2r.bmp	866	3	geizig	866	1	!	1239	1	!	1252	0	0	0	0	0	0	0	0	0	0	0	0	0	0	0	0	0	0	0	0	0	0	0	0	0	0	0
121318	14:50:46	15:03:57	790780	5.0.10.0	4_exp_AWA_CON_EVA_AMP	14	Rpleas_acq	Same	Rpleas	Amasked	CS_A	1pleas	distractor2	CONbeforeEVA	cond_US_pleas_456_masked_CS1	condtest_masked_3	10	10	400	0	300	300	0	0	567	50	0	1	0	0	0	1	blank2r.bmp	0	1	+	0	5	C1r.bmp	492	1	blank2r.bmp	786	1	CPLW	786	1	blank2r.bmp	866	3	gesittet	866	1	!	1239	1	!	-1	0	0	0	0	0	0	0	0	0	0	0	0	0	0	0	0	0	0	0	0	0	0	0	0	0	0	0
121318	14:50:46	15:03:59	792966	5.0.10.0	4_exp_AWA_CON_EVA_AMP	14	Rpleas_acq	Same	Rpleas	Amasked	CS_A	1pleas	distractor2	CONbeforeEVA	cond_US_pleas_456_masked_CS1	condtest_masked_3	10	11	400	1	300	300	0	0	383	50	0	1	0	0	0	1	blank2r.bmp	0	1	+	0	8	C4r.bmp	492	1	blank2r.bmp	786	1	CPLW	786	1	blank2r.bmp	866	1	kreativ	866	1	!	1239	1	!	1279	0	0	0	0	0	0	0	0	0	0	0	0	0	0	0	0	0	0	0	0	0	0	0	0	0	0	0
121318	14:50:46	15:04:02	795139	5.0.10.0	4_exp_AWA_CON_EVA_AMP	14	Rpleas_acq	Same	Rpleas	Amasked	CS_A	1pleas	distractor2	CONbeforeEVA	cond_US_pleas_456_masked_CS2	condtest_masked_3	10	12	400	1	300	300	0	0	382	46	0	0	0	0	0	1	blank2r.bmp	0	1	+	0	4	B4r.bmp	492	1	blank2r.bmp	786	1	DHJF	786	1	blank2r.bmp	866	2	vergnügt	866	1	!	1239	1	!	1279	0	0	0	0	0	0	0	0	0	0	0	0	0	0	0	0	0	0	0	0	0	0	0	0	0	0	0
121318	14:50:46	15:04:04	797458	5.0.10.0	4_exp_AWA_CON_EVA_AMP	14	Rpleas_acq	Same	Rpleas	Amasked	CS_A	1pleas	distractor2	CONbeforeEVA	cond_new_unple_123_masked_CS2	condtest_masked_3	10	13	400	0	300	300	0	0	553	46	0	1	0	0	0	1	blank2r.bmp	0	1	+	0	4	B4r.bmp	492	1	blank2r.bmp	786	1	DHJF	786	1	blank2r.bmp	866	2	gemein	866	1	!	1239	1	!	-1	0	0	0	0	0	0	0	0	0	0	0	0	0	0	0	0	0	0	0	0	0	0	0	0	0	0	0
121318	14:50:46	15:04:06	799630	5.0.10.0	4_exp_AWA_CON_EVA_AMP	14	Rpleas_acq	Same	Rpleas	Amasked	CS_A	1pleas	distractor2	CONbeforeEVA	cond_new_unple_123_masked_CS2	condtest_masked_3	10	14	400	1	300	300	0	0	370	50	0	0	0	0	0	1	blank2r.bmp	0	1	+	0	6	C2r.bmp	492	1	blank2r.bmp	786	1	DHJF	786	1	blank2r.bmp	866	3	engstirnig	866	1	!	1239	1	!	1266	0	0	0	0	0	0	0	0	0	0	0	0	0	0	0	0	0	0	0	0	0	0	0	0	0	0	0
121318	14:50:46	15:04:08	801789	5.0.10.0	4_exp_AWA_CON_EVA_AMP	14	Rpleas_acq	Same	Rpleas	Amasked	CS_A	1pleas	distractor2	CONbeforeEVA	cond_US_pleas_456_masked_CS1	condtest_masked_3	10	15	400	1	300	300	0	0	347	50	0	1	0	0	0	1	blank2r.bmp	0	1	+	0	3	B3r.bmp	492	1	blank2r.bmp	786	1	CPLW	786	1	blank2r.bmp	866	3	gesittet	866	1	!	1239	1	!	1252	0	0	0	0	0	0	0	0	0	0	0	0	0	0	0	0	0	0	0	0	0	0	0	0	0	0	0
121318	14:50:46	15:04:11	804015	5.0.10.0	4_exp_AWA_CON_EVA_AMP	14	Rpleas_acq	Same	Rpleas	Amasked	CS_A	1pleas	distractor2	CONbeforeEVA	cond_new_unple_123_masked_CS2	condtest_masked_3	10	16	400	1	300	300	0	0	425	46	0	1	0	0	0	1	blank2r.bmp	0	1	+	0	8	C4r.bmp	492	1	blank2r.bmp	786	1	DHJF	786	1	blank2r.bmp	866	1	töten	866	1	!	1239	1	!	1332	0	0	0	0	0	0	0	0	0	0	0	0	0	0	0	0	0	0	0	0	0	0	0	0	0	0	0
121318	14:50:46	15:04:13	806107	5.0.10.0	4_exp_AWA_CON_EVA_AMP	14	Rpleas_acq	Same	Rpleas	Amasked	CS_A	1pleas	distractor2	CONbeforeEVA	cond_US_unple_456_masked_CS2	condtest_masked_3	10	17	400	0	300	300	0	0	328	46	0	1	0	0	0	1	blank2r.bmp	0	1	+	0	5	C1r.bmp	492	1	blank2r.bmp	786	1	DHJF	786	1	blank2r.bmp	866	2	verbissen	866	1	!	-1	1	!	-1	0	0	0	0	0	0	0	0	0	0	0	0	0	0	0	0	0	0	0	0	0	0	0	0	0	0	0
121318	14:50:46	15:04:15	808373	5.0.10.0	4_exp_AWA_CON_EVA_AMP	14	Rpleas_acq	Same	Rpleas	Amasked	CS_A	1pleas	distractor2	CONbeforeEVA	cond_new_pleas_123_masked_CS1	condtest_masked_3	10	18	400	1	300	300	0	0	455	50	0	1	0	0	0	1	blank2r.bmp	0	1	+	0	2	B2r.bmp	492	1	blank2r.bmp	786	1	CPLW	786	1	blank2r.bmp	866	1	träumen	866	1	!	1239	1	!	1359	0	0	0	0	0	0	0	0	0	0	0	0	0	0	0	0	0	0	0	0	0	0	0	0	0	0	0
121318	14:50:46	15:04:17	810892	5.0.10.0	4_exp_AWA_CON_EVA_AMP	14	Rpleas_acq	Same	Rpleas	Amasked	CS_A	1pleas	distractor2	CONbeforeEVA	cond_new_unple_123_masked_CS2	condtest_masked_3	10	19	400	0	300	300	0	0	747	46	0	1	0	0	0	1	blank2r.bmp	0	1	+	0	1	B1r.bmp	492	1	blank2r.bmp	786	1	DHJF	786	1	blank2r.bmp	866	2	gemein	866	1	!	1239	1	!	-1	0	0	0	0	0	0	0	0	0	0	0	0	0	0	0	0	0	0	0	0	0	0	0	0	0	0	0
121318	14:50:46	15:04:20	813118	5.0.10.0	4_exp_AWA_CON_EVA_AMP	14	Rpleas_acq	Same	Rpleas	Amasked	CS_A	1pleas	distractor2	CONbeforeEVA	cond_US_unple_456_masked_CS1	condtest_masked_3	10	20	400	1	300	300	0	0	421	46	0	1	0	0	0	1	blank2r.bmp	0	1	+	0	7	C3r.bmp	492	1	blank2r.bmp	786	1	CPLW	786	1	blank2r.bmp	866	2	verbissen	866	1	!	1239	1	!	1319	0	0	0	0	0	0	0	0	0	0	0	0	0	0	0	0	0	0	0	0	0	0	0	0	0	0	0
121318	14:50:46	15:04:22	815197	5.0.10.0	4_exp_AWA_CON_EVA_AMP	14	Rpleas_acq	Same	Rpleas	Amasked	CS_A	1pleas	distractor2	CONbeforeEVA	cond_US_unple_456_masked_CS2	condtest_masked_3	10	21	400	0	300	300	0	0	312	46	0	1	0	0	0	1	blank2r.bmp	0	1	+	0	6	C2r.bmp	492	1	blank2r.bmp	786	1	DHJF	786	1	blank2r.bmp	866	1	krank	866	1	!	-1	1	!	-1	0	0	0	0	0	0	0	0	0	0	0	0	0	0	0	0	0	0	0	0	0	0	0	0	0	0	0
121318	14:50:46	15:04:24	817263	5.0.10.0	4_exp_AWA_CON_EVA_AMP	14	Rpleas_acq	Same	Rpleas	Amasked	CS_A	1pleas	distractor2	CONbeforeEVA	cond_new_pleas_123_masked_CS2	condtest_masked_3	10	22	400	0	300	300	0	0	287	46	0	0	0	0	0	1	blank2r.bmp	0	1	+	0	8	C4r.bmp	492	1	blank2r.bmp	786	1	DHJF	786	1	blank2r.bmp	866	2	genießen	866	1	!	-1	1	!	-1	0	0	0	0	0	0	0	0	0	0	0	0	0	0	0	0	0	0	0	0	0	0	0	0	0	0	0
121318	14:50:46	15:04:26	819369	5.0.10.0	4_exp_AWA_CON_EVA_AMP	14	Rpleas_acq	Same	Rpleas	Amasked	CS_A	1pleas	distractor2	CONbeforeEVA	cond_US_pleas_456_masked_CS2	condtest_masked_3	10	23	400	0	300	300	0	0	330	46	0	0	0	0	0	1	blank2r.bmp	0	1	+	0	4	B4r.bmp	492	1	blank2r.bmp	786	1	DHJF	786	1	blank2r.bmp	866	1	kreativ	866	1	!	-1	1	!	-1	0	0	0	0	0	0	0	0	0	0	0	0	0	0	0	0	0	0	0	0	0	0	0	0	0	0	0
121318	14:50:46	15:04:28	821554	5.0.10.0	4_exp_AWA_CON_EVA_AMP	14	Rpleas_acq	Same	Rpleas	Amasked	CS_A	1pleas	distractor2	CONbeforeEVA	cond_new_unple_123_masked_CS2	condtest_masked_3	10	24	400	1	300	300	0	0	382	50	0	0	0	0	0	1	blank2r.bmp	0	1	+	0	3	B3r.bmp	492	1	blank2r.bmp	786	1	DHJF	786	1	blank2r.bmp	866	1	töten	866	1	!	1239	1	!	1279	0	0	0	0	0	0	0	0	0	0	0	0	0	0	0	0	0	0	0	0	0	0	0	0	0	0	0
121318	14:50:46	15:04:30	823700	5.0.10.0	4_exp_AWA_CON_EVA_AMP	14	Rpleas_acq	Same	Rpleas	Amasked	CS_A	1pleas	distractor2	CONbeforeEVA	cond_new_unple_123_masked_CS1	condtest_masked_3	10	25	400	1	300	300	0	0	351	46	0	1	0	0	0	1	blank2r.bmp	0	1	+	0	2	B2r.bmp	492	1	blank2r.bmp	786	1	CPLW	786	1	blank2r.bmp	866	3	engstirnig	866	1	!	1239	1	!	1252	0	0	0	0	0	0	0	0	0	0	0	0	0	0	0	0	0	0	0	0	0	0	0	0	0	0	0
121318	14:50:46	15:04:32	825859	5.0.10.0	4_exp_AWA_CON_EVA_AMP	14	Rpleas_acq	Same	Rpleas	Amasked	CS_A	1pleas	distractor2	CONbeforeEVA	cond_US_unple_456_masked_CS2	condtest_masked_3	10	26	400	1	300	300	0	0	346	46	0	1	0	0	0	1	blank2r.bmp	0	1	+	0	5	C1r.bmp	492	1	blank2r.bmp	786	1	DHJF	786	1	blank2r.bmp	866	3	geizig	866	1	!	1239	1	!	1252	0	0	0	0	0	0	0	0	0	0	0	0	0	0	0	0	0	0	0	0	0	0	0	0	0	0	0
121318	14:50:46	15:04:35	828005	5.0.10.0	4_exp_AWA_CON_EVA_AMP	14	Rpleas_acq	Same	Rpleas	Amasked	CS_A	1pleas	distractor2	CONbeforeEVA	cond_new_unple_123_masked_CS1	condtest_masked_3	10	27	400	1	300	300	0	0	357	46	0	1	0	0	0	1	blank2r.bmp	0	1	+	0	7	C3r.bmp	492	1	blank2r.bmp	786	1	CPLW	786	1	blank2r.bmp	866	1	töten	866	1	!	1239	1	!	1252	0	0	0	0	0	0	0	0	0	0	0	0	0	0	0	0	0	0	0	0	0	0	0	0	0	0	0
121318	14:50:46	15:04:37	830204	5.0.10.0	4_exp_AWA_CON_EVA_AMP	14	Rpleas_acq	Same	Rpleas	Amasked	CS_A	1pleas	distractor2	CONbeforeEVA	cond_US_unple_456_masked_CS2	condtest_masked_3	10	28	400	1	300	300	0	0	387	46	0	1	0	0	0	1	blank2r.bmp	0	1	+	0	1	B1r.bmp	492	1	blank2r.bmp	786	1	DHJF	786	1	blank2r.bmp	866	1	krank	866	1	!	1239	1	!	1292	0	0	0	0	0	0	0	0	0	0	0	0	0	0	0	0	0	0	0	0	0	0	0	0	0	0	0
121318	14:50:46	15:04:39	832577	5.0.10.0	4_exp_AWA_CON_EVA_AMP	14	Rpleas_acq	Same	Rpleas	Amasked	CS_A	1pleas	distractor2	CONbeforeEVA	cond_US_pleas_456_masked_CS2	condtest_masked_3	10	29	400	0	300	300	0	0	598	50	0	1	0	0	0	1	blank2r.bmp	0	1	+	0	3	B3r.bmp	492	1	blank2r.bmp	786	1	DHJF	786	1	blank2r.bmp	866	2	vergnügt	866	1	!	1239	1	!	-1	0	0	0	0	0	0	0	0	0	0	0	0	0	0	0	0	0	0	0	0	0	0	0	0	0	0	0
121318	14:50:46	15:04:41	834842	5.0.10.0	4_exp_AWA_CON_EVA_AMP	14	Rpleas_acq	Same	Rpleas	Amasked	CS_A	1pleas	distractor2	CONbeforeEVA	cond_US_unple_456_masked_CS1	condtest_masked_3	10	30	400	1	300	300	0	0	457	50	0	0	0	0	0	1	blank2r.bmp	0	1	+	0	8	C4r.bmp	492	1	blank2r.bmp	786	1	CPLW	786	1	blank2r.bmp	866	3	geizig	866	1	!	1239	1	!	1359	0	0	0	0	0	0	0	0	0	0	0	0	0	0	0	0	0	0	0	0	0	0	0	0	0	0	0
121318	14:50:46	15:04:44	837055	5.0.10.0	4_exp_AWA_CON_EVA_AMP	14	Rpleas_acq	Same	Rpleas	Amasked	CS_A	1pleas	distractor2	CONbeforeEVA	cond_new_pleas_123_masked_CS2	condtest_masked_3	10	31	400	1	300	300	0	0	420	46	0	0	0	0	0	1	blank2r.bmp	0	1	+	0	1	B1r.bmp	492	1	blank2r.bmp	786	1	DHJF	786	1	blank2r.bmp	866	2	genießen	866	1	!	1239	1	!	1319	0	0	0	0	0	0	0	0	0	0	0	0	0	0	0	0	0	0	0	0	0	0	0	0	0	0	0
