date	time	script.currenttime	script.elapsedtime	build	script.currentexpt	subject	expressions.LRpleas_acq	expressions.SameOppo	expressions.condition_Lpleas	expressions.ABmasked	expressions.conditionCS_A	expressions.condition_1pleas	expressions.condition_distractor_AMP	expressions.AWACON_AMPEVA_first	trialcode	blockcode	blocknum	trialnum	windowcenter	inwindow	pretrialpause	posttrialpause	trialduration	trialtimeout	latency	response	expressions.correctedscore	correct	values.vis_performance	values.vis_rating_sum	values.vis_rating_mean	stimulusnumber1	stimulusitem1	stimulusonset1	stimulusnumber2	stimulusitem2	stimulusonset2	stimulusnumber3	stimulusitem3	stimulusonset3	stimulusnumber4	stimulusitem4	stimulusonset4	stimulusnumber5	stimulusitem5	stimulusonset5	stimulusnumber6	stimulusitem6	stimulusonset6	stimulusnumber7	stimulusitem7	stimulusonset7	stimulusnumber8	stimulusitem8	stimulusonset8	stimulusnumber9	stimulusitem9	stimulusonset9	stimulusnumber10	stimulusitem10	stimulusonset10	stimulusnumber11	stimulusitem11	stimulusonset11	stimulusnumber12	stimulusitem12	stimulusonset12	stimulusnumber13	stimulusitem13	stimulusonset13	stimulusnumber14	stimulusitem14	stimulusonset14	stimulusnumber15	stimulusitem15	stimulusonset15	stimulusnumber16	stimulusitem16	stimulusonset16	stimulusnumber17	stimulusitem17	stimulusonset17	stimulusnumber18	stimulusitem18	stimulusonset18
021319	09:06:14	09:09:13	178036	5.0.10.0	4_exp_AWA_CON_EVA_AMP	119	Rpleas_acq	Oppo	Rpleas	Amasked	CS_A	1pleas	distractor1	CONbeforeEVA	acq_new_pleas_masked	acq1_masked	1	1	0	0	300	300	0	0	3219	50	0	1	0	0	0	1	blank2r.bmp	0	1	+	0	5	C1r.bmp	492	1	blank2r.bmp	786	6	C2r.bmp	786	1	blank2r.bmp	866	6	besonnen	866	0	0	0	0	0	0	0	0	0	0	0	0	0	0	0	0	0	0	0	0	0	0	0	0	0	0	0	0	0	0	0	0	0
021319	09:06:14	09:09:16	180395	5.0.10.0	4_exp_AWA_CON_EVA_AMP	119	Rpleas_acq	Oppo	Rpleas	Amasked	CS_A	2pleas	distractor1	CONbeforeEVA	acq_US_pleas_masked	acq1_masked	1	2	0	0	300	300	0	0	879	50	0	1	0	0	0	1	blank2r.bmp	0	1	+	0	2	B2r.bmp	492	1	blank2r.bmp	786	1	DHJF	786	1	blank2r.bmp	866	4	gütig	866	0	0	0	0	0	0	0	0	0	0	0	0	0	0	0	0	0	0	0	0	0	0	0	0	0	0	0	0	0	0	0	0	0
021319	09:06:14	09:09:18	182714	5.0.10.0	4_exp_AWA_CON_EVA_AMP	119	Rpleas_acq	Oppo	Rpleas	Amasked	CS_A	2pleas	distractor1	CONbeforeEVA	acq_new_unple_masked	acq1_masked	1	3	0	0	300	300	0	0	841	46	0	1	0	0	0	1	blank2r.bmp	0	1	+	0	3	B3r.bmp	492	1	blank2r.bmp	786	1	B1r.bmp	786	1	blank2r.bmp	866	5	töten	866	0	0	0	0	0	0	0	0	0	0	0	0	0	0	0	0	0	0	0	0	0	0	0	0	0	0	0	0	0	0	0	0	0
021319	09:06:14	09:09:21	185500	5.0.10.0	4_exp_AWA_CON_EVA_AMP	119	Rpleas_acq	Oppo	Rpleas	Amasked	CS_A	2pleas	distractor1	CONbeforeEVA	acq_US_unple_masked	acq1_masked	1	4	0	0	300	300	0	0	1311	46	0	1	0	0	0	1	blank2r.bmp	0	1	+	0	8	C4r.bmp	492	1	blank2r.bmp	786	1	CPLW	786	1	blank2r.bmp	866	6	engstirnig	866	0	0	0	0	0	0	0	0	0	0	0	0	0	0	0	0	0	0	0	0	0	0	0	0	0	0	0	0	0	0	0	0	0
021319	09:06:14	09:09:23	187579	5.0.10.0	4_exp_AWA_CON_EVA_AMP	119	Rpleas_acq	Oppo	Rpleas	Amasked	CS_A	2pleas	distractor1	CONbeforeEVA	acq_US_pleas_masked	acq1_masked	1	5	0	0	300	300	0	0	590	50	0	1	0	0	0	1	blank2r.bmp	0	1	+	0	6	C2r.bmp	492	1	blank2r.bmp	786	1	DHJF	786	1	blank2r.bmp	866	6	engagiert	866	0	0	0	0	0	0	0	0	0	0	0	0	0	0	0	0	0	0	0	0	0	0	0	0	0	0	0	0	0	0	0	0	0
021319	09:06:14	09:09:25	190018	5.0.10.0	4_exp_AWA_CON_EVA_AMP	119	Rpleas_acq	Oppo	Rpleas	Amasked	CS_A	2pleas	distractor1	CONbeforeEVA	acq_new_unple_masked	acq1_masked	1	6	0	0	300	300	0	0	951	46	0	1	0	0	0	1	blank2r.bmp	0	1	+	0	1	B1r.bmp	492	1	blank2r.bmp	786	7	C3r.bmp	786	1	blank2r.bmp	866	6	bange	866	0	0	0	0	0	0	0	0	0	0	0	0	0	0	0	0	0	0	0	0	0	0	0	0	0	0	0	0	0	0	0	0	0
021319	09:06:14	09:09:28	192257	5.0.10.0	4_exp_AWA_CON_EVA_AMP	119	Rpleas_acq	Oppo	Rpleas	Amasked	CS_A	2pleas	distractor1	CONbeforeEVA	acq_US_unple_masked	acq1_masked	1	7	0	0	300	300	0	0	762	46	0	1	0	0	0	1	blank2r.bmp	0	1	+	0	7	C3r.bmp	492	1	blank2r.bmp	786	1	CPLW	786	1	blank2r.bmp	866	2	sterben	866	0	0	0	0	0	0	0	0	0	0	0	0	0	0	0	0	0	0	0	0	0	0	0	0	0	0	0	0	0	0	0	0	0
021319	09:06:14	09:09:30	194403	5.0.10.0	4_exp_AWA_CON_EVA_AMP	119	Rpleas_acq	Oppo	Rpleas	Amasked	CS_A	2pleas	distractor1	CONbeforeEVA	acq_new_pleas_masked	acq1_masked	1	8	0	0	300	300	0	0	662	50	0	1	0	0	0	1	blank2r.bmp	0	1	+	0	4	B4r.bmp	492	1	blank2r.bmp	786	2	B2r.bmp	786	1	blank2r.bmp	866	1	vergnügt	866	0	0	0	0	0	0	0	0	0	0	0	0	0	0	0	0	0	0	0	0	0	0	0	0	0	0	0	0	0	0	0	0	0
021319	09:06:14	09:09:33	197215	5.0.10.0	4_exp_AWA_CON_EVA_AMP	119	Rpleas_acq	Oppo	Rpleas	Amasked	CS_A	2pleas	distractor1	CONbeforeEVA	acq_new_unple_masked	acq1_masked	1	9	0	0	300	300	0	0	1117	50	0	0	0	0	0	1	blank2r.bmp	0	1	+	0	2	B2r.bmp	492	1	blank2r.bmp	786	3	B3r.bmp	786	1	blank2r.bmp	866	4	versagen	866	1	FEHLER	2012	0	0	0	0	0	0	0	0	0	0	0	0	0	0	0	0	0	0	0	0	0	0	0	0	0	0	0	0	0	0
021319	09:06:14	09:09:36	200627	5.0.10.0	4_exp_AWA_CON_EVA_AMP	119	Rpleas_acq	Oppo	Rpleas	Amasked	CS_A	2pleas	distractor1	CONbeforeEVA	acq_US_unple_masked	acq1_masked	1	10	0	0	300	300	0	0	2140	46	0	1	0	0	0	1	blank2r.bmp	0	1	+	0	8	C4r.bmp	492	1	blank2r.bmp	786	1	CPLW	786	1	blank2r.bmp	866	3	geizig	866	0	0	0	0	0	0	0	0	0	0	0	0	0	0	0	0	0	0	0	0	0	0	0	0	0	0	0	0	0	0	0	0	0
021319	09:06:14	09:09:38	203133	5.0.10.0	4_exp_AWA_CON_EVA_AMP	119	Rpleas_acq	Oppo	Rpleas	Amasked	CS_A	2pleas	distractor1	CONbeforeEVA	acq_new_pleas_masked	acq1_masked	1	11	0	0	300	300	0	0	1024	50	0	1	0	0	0	1	blank2r.bmp	0	1	+	0	3	B3r.bmp	492	1	blank2r.bmp	786	8	C4r.bmp	786	1	blank2r.bmp	866	2	kreativ	866	0	0	0	0	0	0	0	0	0	0	0	0	0	0	0	0	0	0	0	0	0	0	0	0	0	0	0	0	0	0	0	0	0
021319	09:06:14	09:09:41	205212	5.0.10.0	4_exp_AWA_CON_EVA_AMP	119	Rpleas_acq	Oppo	Rpleas	Amasked	CS_A	2pleas	distractor1	CONbeforeEVA	acq_US_pleas_masked	acq1_masked	1	12	0	0	300	300	0	0	586	50	0	1	0	0	0	1	blank2r.bmp	0	1	+	0	4	B4r.bmp	492	1	blank2r.bmp	786	1	DHJF	786	1	blank2r.bmp	866	2	sonnig	866	0	0	0	0	0	0	0	0	0	0	0	0	0	0	0	0	0	0	0	0	0	0	0	0	0	0	0	0	0	0	0	0	0
021319	09:06:14	09:09:43	207371	5.0.10.0	4_exp_AWA_CON_EVA_AMP	119	Rpleas_acq	Oppo	Rpleas	Amasked	CS_A	2pleas	distractor1	CONbeforeEVA	acq_US_pleas_masked	acq1_masked	1	13	0	0	300	300	0	0	685	50	0	1	0	0	0	1	blank2r.bmp	0	1	+	0	5	C1r.bmp	492	1	blank2r.bmp	786	1	DHJF	786	1	blank2r.bmp	866	1	genießen	866	0	0	0	0	0	0	0	0	0	0	0	0	0	0	0	0	0	0	0	0	0	0	0	0	0	0	0	0	0	0	0	0	0
021319	09:06:14	09:09:45	209837	5.0.10.0	4_exp_AWA_CON_EVA_AMP	119	Rpleas_acq	Oppo	Rpleas	Amasked	CS_A	2pleas	distractor1	CONbeforeEVA	acq_US_pleas_masked	acq1_masked	1	14	0	0	300	300	0	0	976	50	0	1	0	0	0	1	blank2r.bmp	0	1	+	0	1	B1r.bmp	492	1	blank2r.bmp	786	1	DHJF	786	1	blank2r.bmp	866	5	anregung	866	0	0	0	0	0	0	0	0	0	0	0	0	0	0	0	0	0	0	0	0	0	0	0	0	0	0	0	0	0	0	0	0	0
021319	09:06:14	09:09:47	211862	5.0.10.0	4_exp_AWA_CON_EVA_AMP	119	Rpleas_acq	Oppo	Rpleas	Amasked	CS_A	2pleas	distractor1	CONbeforeEVA	acq_new_unple_masked	acq1_masked	1	15	0	0	300	300	0	0	542	46	0	1	0	0	0	1	blank2r.bmp	0	1	+	0	7	C3r.bmp	492	1	blank2r.bmp	786	5	C1r.bmp	786	1	blank2r.bmp	866	3	krise	866	0	0	0	0	0	0	0	0	0	0	0	0	0	0	0	0	0	0	0	0	0	0	0	0	0	0	0	0	0	0	0	0	0
021319	09:06:14	09:09:49	213862	5.0.10.0	4_exp_AWA_CON_EVA_AMP	119	Rpleas_acq	Oppo	Rpleas	Amasked	CS_A	2pleas	distractor1	CONbeforeEVA	acq_US_unple_masked	acq1_masked	1	16	0	0	300	300	0	0	518	46	0	1	0	0	0	1	blank2r.bmp	0	1	+	0	6	C2r.bmp	492	1	blank2r.bmp	786	1	CPLW	786	1	blank2r.bmp	866	1	gemein	866	0	0	0	0	0	0	0	0	0	0	0	0	0	0	0	0	0	0	0	0	0	0	0	0	0	0	0	0	0	0	0	0	0
021319	09:06:14	09:09:51	215847	5.0.10.0	4_exp_AWA_CON_EVA_AMP	119	Rpleas_acq	Oppo	Rpleas	Amasked	CS_A	2pleas	distractor1	CONbeforeEVA	acq_US_unple_masked	acq1_masked	1	17	0	0	300	300	0	0	499	46	0	1	0	0	0	1	blank2r.bmp	0	1	+	0	4	B4r.bmp	492	1	blank2r.bmp	786	1	CPLW	786	1	blank2r.bmp	866	5	ausrottung	866	0	0	0	0	0	0	0	0	0	0	0	0	0	0	0	0	0	0	0	0	0	0	0	0	0	0	0	0	0	0	0	0	0
021319	09:06:14	09:09:53	217833	5.0.10.0	4_exp_AWA_CON_EVA_AMP	119	Rpleas_acq	Oppo	Rpleas	Amasked	CS_A	2pleas	distractor1	CONbeforeEVA	acq_US_unple_masked	acq1_masked	1	18	0	0	300	300	0	0	502	46	0	1	0	0	0	1	blank2r.bmp	0	1	+	0	3	B3r.bmp	492	1	blank2r.bmp	786	1	CPLW	786	1	blank2r.bmp	866	4	gierig	866	0	0	0	0	0	0	0	0	0	0	0	0	0	0	0	0	0	0	0	0	0	0	0	0	0	0	0	0	0	0	0	0	0
021319	09:06:14	09:09:55	219966	5.0.10.0	4_exp_AWA_CON_EVA_AMP	119	Rpleas_acq	Oppo	Rpleas	Amasked	CS_A	2pleas	distractor1	CONbeforeEVA	acq_new_pleas_masked	acq1_masked	1	19	0	0	300	300	0	0	648	50	0	1	0	0	0	1	blank2r.bmp	0	1	+	0	7	C3r.bmp	492	1	blank2r.bmp	786	4	B4r.bmp	786	1	blank2r.bmp	866	4	vertrauen	866	0	0	0	0	0	0	0	0	0	0	0	0	0	0	0	0	0	0	0	0	0	0	0	0	0	0	0	0	0	0	0	0	0
021319	09:06:14	09:09:57	222071	5.0.10.0	4_exp_AWA_CON_EVA_AMP	119	Rpleas_acq	Oppo	Rpleas	Amasked	CS_A	2pleas	distractor1	CONbeforeEVA	acq_new_unple_masked	acq1_masked	1	20	0	0	300	300	0	0	612	46	0	1	0	0	0	1	blank2r.bmp	0	1	+	0	5	C1r.bmp	492	1	blank2r.bmp	786	4	B4r.bmp	786	1	blank2r.bmp	866	2	krank	866	0	0	0	0	0	0	0	0	0	0	0	0	0	0	0	0	0	0	0	0	0	0	0	0	0	0	0	0	0	0	0	0	0
021319	09:06:14	09:10:00	224977	5.0.10.0	4_exp_AWA_CON_EVA_AMP	119	Rpleas_acq	Oppo	Rpleas	Amasked	CS_A	2pleas	distractor1	CONbeforeEVA	acq_US_pleas_masked	acq1_masked	1	21	0	0	300	300	0	0	1418	50	0	1	0	0	0	1	blank2r.bmp	0	1	+	0	8	C4r.bmp	492	1	blank2r.bmp	786	1	DHJF	786	1	blank2r.bmp	866	3	gesittet	866	0	0	0	0	0	0	0	0	0	0	0	0	0	0	0	0	0	0	0	0	0	0	0	0	0	0	0	0	0	0	0	0	0
021319	09:06:14	09:10:02	227043	5.0.10.0	4_exp_AWA_CON_EVA_AMP	119	Rpleas_acq	Oppo	Rpleas	Amasked	CS_A	2pleas	distractor1	CONbeforeEVA	acq_new_unple_masked	acq1_masked	1	22	0	0	300	300	0	0	585	46	0	1	0	0	0	1	blank2r.bmp	0	1	+	0	6	C2r.bmp	492	1	blank2r.bmp	786	3	B3r.bmp	786	1	blank2r.bmp	866	1	verbissen	866	0	0	0	0	0	0	0	0	0	0	0	0	0	0	0	0	0	0	0	0	0	0	0	0	0	0	0	0	0	0	0	0	0
021319	09:06:14	09:10:04	229109	5.0.10.0	4_exp_AWA_CON_EVA_AMP	119	Rpleas_acq	Oppo	Rpleas	Amasked	CS_A	2pleas	distractor1	CONbeforeEVA	acq_new_pleas_masked	acq1_masked	1	23	0	0	300	300	0	0	595	50	0	1	0	0	0	1	blank2r.bmp	0	1	+	0	1	B1r.bmp	492	1	blank2r.bmp	786	7	C3r.bmp	786	1	blank2r.bmp	866	3	kuss	866	0	0	0	0	0	0	0	0	0	0	0	0	0	0	0	0	0	0	0	0	0	0	0	0	0	0	0	0	0	0	0	0	0
021319	09:06:14	09:10:07	231321	5.0.10.0	4_exp_AWA_CON_EVA_AMP	119	Rpleas_acq	Oppo	Rpleas	Amasked	CS_A	2pleas	distractor1	CONbeforeEVA	acq_new_pleas_masked	acq1_masked	1	24	0	0	300	300	0	0	524	46	0	0	0	0	0	1	blank2r.bmp	0	1	+	0	2	B2r.bmp	492	1	blank2r.bmp	786	5	C1r.bmp	786	1	blank2r.bmp	866	5	träumen	866	1	FEHLER	1426	0	0	0	0	0	0	0	0	0	0	0	0	0	0	0	0	0	0	0	0	0	0	0	0	0	0	0	0	0	0
021319	09:06:14	09:10:08	233160	5.0.10.0	4_exp_AWA_CON_EVA_AMP	119	Rpleas_acq	Oppo	Rpleas	Amasked	CS_A	2pleas	distractor1	CONbeforeEVA	acq_new_pleas_masked	acq1_masked	1	25	0	0	300	300	0	0	576	50	0	1	0	0	0	1	blank2r.bmp	0	1	+	0	1	B1r.bmp	492	1	blank2r.bmp	786	2	B2r.bmp	786	1	blank2r.bmp	866	3	kuss	866	0	0	0	0	0	0	0	0	0	0	0	0	0	0	0	0	0	0	0	0	0	0	0	0	0	0	0	0	0	0	0	0	0
021319	09:06:14	09:10:11	235413	5.0.10.0	4_exp_AWA_CON_EVA_AMP	119	Rpleas_acq	Oppo	Rpleas	Amasked	CS_A	2pleas	distractor1	CONbeforeEVA	acq_US_pleas_masked	acq1_masked	1	26	0	0	300	300	0	0	552	46	0	0	0	0	0	1	blank2r.bmp	0	1	+	0	8	C4r.bmp	492	1	blank2r.bmp	786	1	DHJF	786	1	blank2r.bmp	866	3	gesittet	866	1	FEHLER	1452	0	0	0	0	0	0	0	0	0	0	0	0	0	0	0	0	0	0	0	0	0	0	0	0	0	0	0	0	0	0
021319	09:06:14	09:10:13	237265	5.0.10.0	4_exp_AWA_CON_EVA_AMP	119	Rpleas_acq	Oppo	Rpleas	Amasked	CS_A	2pleas	distractor1	CONbeforeEVA	acq_US_pleas_masked	acq1_masked	1	27	0	0	300	300	0	0	572	50	0	1	0	0	0	1	blank2r.bmp	0	1	+	0	4	B4r.bmp	492	1	blank2r.bmp	786	1	DHJF	786	1	blank2r.bmp	866	5	anregung	866	0	0	0	0	0	0	0	0	0	0	0	0	0	0	0	0	0	0	0	0	0	0	0	0	0	0	0	0	0	0	0	0	0
021319	09:06:14	09:10:15	239424	5.0.10.0	4_exp_AWA_CON_EVA_AMP	119	Rpleas_acq	Oppo	Rpleas	Amasked	CS_A	2pleas	distractor1	CONbeforeEVA	acq_new_unple_masked	acq1_masked	1	28	0	0	300	300	0	0	672	46	0	1	0	0	0	1	blank2r.bmp	0	1	+	0	3	B3r.bmp	492	1	blank2r.bmp	786	1	B1r.bmp	786	1	blank2r.bmp	866	4	versagen	866	0	0	0	0	0	0	0	0	0	0	0	0	0	0	0	0	0	0	0	0	0	0	0	0	0	0	0	0	0	0	0	0	0
021319	09:06:14	09:10:17	241437	5.0.10.0	4_exp_AWA_CON_EVA_AMP	119	Rpleas_acq	Oppo	Rpleas	Amasked	CS_A	2pleas	distractor1	CONbeforeEVA	acq_new_unple_masked	acq1_masked	1	29	0	0	300	300	0	0	543	46	0	1	0	0	0	1	blank2r.bmp	0	1	+	0	6	C2r.bmp	492	1	blank2r.bmp	786	8	C4r.bmp	786	1	blank2r.bmp	866	2	krank	866	0	0	0	0	0	0	0	0	0	0	0	0	0	0	0	0	0	0	0	0	0	0	0	0	0	0	0	0	0	0	0	0	0
021319	09:06:14	09:10:19	243649	5.0.10.0	4_exp_AWA_CON_EVA_AMP	119	Rpleas_acq	Oppo	Rpleas	Amasked	CS_A	2pleas	distractor1	CONbeforeEVA	acq_US_unple_masked	acq1_masked	1	30	0	0	300	300	0	0	719	46	0	1	0	0	0	1	blank2r.bmp	0	1	+	0	5	C1r.bmp	492	1	blank2r.bmp	786	1	CPLW	786	1	blank2r.bmp	866	4	gierig	866	0	0	0	0	0	0	0	0	0	0	0	0	0	0	0	0	0	0	0	0	0	0	0	0	0	0	0	0	0	0	0	0	0
021319	09:06:14	09:10:21	245635	5.0.10.0	4_exp_AWA_CON_EVA_AMP	119	Rpleas_acq	Oppo	Rpleas	Amasked	CS_A	2pleas	distractor1	CONbeforeEVA	acq_new_pleas_masked	acq1_masked	1	31	0	0	300	300	0	0	516	50	0	1	0	0	0	1	blank2r.bmp	0	1	+	0	7	C3r.bmp	492	1	blank2r.bmp	786	6	C2r.bmp	786	1	blank2r.bmp	866	2	kreativ	866	0	0	0	0	0	0	0	0	0	0	0	0	0	0	0	0	0	0	0	0	0	0	0	0	0	0	0	0	0	0	0	0	0
021319	09:06:14	09:10:23	247808	5.0.10.0	4_exp_AWA_CON_EVA_AMP	119	Rpleas_acq	Oppo	Rpleas	Amasked	CS_A	2pleas	distractor1	CONbeforeEVA	acq_US_unple_masked	acq1_masked	1	32	0	0	300	300	0	0	681	46	0	1	0	0	0	1	blank2r.bmp	0	1	+	0	2	B2r.bmp	492	1	blank2r.bmp	786	1	CPLW	786	1	blank2r.bmp	866	1	gemein	866	0	0	0	0	0	0	0	0	0	0	0	0	0	0	0	0	0	0	0	0	0	0	0	0	0	0	0	0	0	0	0	0	0
021319	09:06:14	09:10:25	250007	5.0.10.0	4_exp_AWA_CON_EVA_AMP	119	Rpleas_acq	Oppo	Rpleas	Amasked	CS_A	2pleas	distractor1	CONbeforeEVA	acq_US_unple_masked	acq1_masked	1	33	0	0	300	300	0	0	723	46	0	1	0	0	0	1	blank2r.bmp	0	1	+	0	3	B3r.bmp	492	1	blank2r.bmp	786	1	CPLW	786	1	blank2r.bmp	866	6	engstirnig	866	0	0	0	0	0	0	0	0	0	0	0	0	0	0	0	0	0	0	0	0	0	0	0	0	0	0	0	0	0	0	0	0	0
021319	09:06:14	09:10:29	253645	5.0.10.0	4_exp_AWA_CON_EVA_AMP	119	Rpleas_acq	Oppo	Rpleas	Amasked	CS_A	2pleas	distractor1	CONbeforeEVA	acq_new_unple_masked	acq1_masked	1	34	0	0	300	300	0	0	2153	46	0	1	0	0	0	1	blank2r.bmp	0	1	+	0	2	B2r.bmp	492	1	blank2r.bmp	786	6	C2r.bmp	786	1	blank2r.bmp	866	6	bange	866	0	0	0	0	0	0	0	0	0	0	0	0	0	0	0	0	0	0	0	0	0	0	0	0	0	0	0	0	0	0	0	0	0
021319	09:06:14	09:10:31	255591	5.0.10.0	4_exp_AWA_CON_EVA_AMP	119	Rpleas_acq	Oppo	Rpleas	Amasked	CS_A	2pleas	distractor1	CONbeforeEVA	acq_US_pleas_masked	acq1_masked	1	35	0	0	300	300	0	0	455	50	0	1	0	0	0	1	blank2r.bmp	0	1	+	0	6	C2r.bmp	492	1	blank2r.bmp	786	1	DHJF	786	1	blank2r.bmp	866	2	sonnig	866	0	0	0	0	0	0	0	0	0	0	0	0	0	0	0	0	0	0	0	0	0	0	0	0	0	0	0	0	0	0	0	0	0
021319	09:06:14	09:10:33	258003	5.0.10.0	4_exp_AWA_CON_EVA_AMP	119	Rpleas_acq	Oppo	Rpleas	Amasked	CS_A	2pleas	distractor1	CONbeforeEVA	acq_new_pleas_masked	acq1_masked	1	36	0	0	300	300	0	0	718	46	0	0	0	0	0	1	blank2r.bmp	0	1	+	0	7	C3r.bmp	492	1	blank2r.bmp	786	1	B1r.bmp	786	1	blank2r.bmp	866	5	träumen	866	1	FEHLER	1626	0	0	0	0	0	0	0	0	0	0	0	0	0	0	0	0	0	0	0	0	0	0	0	0	0	0	0	0	0	0
021319	09:06:14	09:11:06	290830	5.0.10.0	4_exp_AWA_CON_EVA_AMP	119	Rpleas_acq	Oppo	Rpleas	Amasked	CS_A	2pleas	distractor1	CONbeforeEVA	acq_new_unple_masked	acq2_masked	2	1	480	0	300	300	0	0	5286	50	0	0	0	0	0	1	blank2r.bmp	0	1	+	0	1	B1r.bmp	492	1	blank2r.bmp	786	3	B3r.bmp	786	1	blank2r.bmp	866	1	verbissen	866	1	FEHLER	6490	1	!	1319	1	!	-1	0	0	0	0	0	0	0	0	0	0	0	0	0	0	0	0	0	0	0	0	0	0	0	0
021319	09:06:14	09:11:09	293429	5.0.10.0	4_exp_AWA_CON_EVA_AMP	119	Rpleas_acq	Oppo	Rpleas	Amasked	CS_A	2pleas	distractor1	CONbeforeEVA	acq_new_pleas_masked	acq2_masked	2	2	480	0	300	300	0	0	1031	50	0	1	0	0	0	1	blank2r.bmp	0	1	+	0	4	B4r.bmp	492	1	blank2r.bmp	786	2	B2r.bmp	786	1	blank2r.bmp	866	1	vergnügt	866	1	!	1319	1	!	-1	0	0	0	0	0	0	0	0	0	0	0	0	0	0	0	0	0	0	0	0	0	0	0	0	0	0	0
021319	09:06:14	09:11:11	295894	5.0.10.0	4_exp_AWA_CON_EVA_AMP	119	Rpleas_acq	Oppo	Rpleas	Amasked	CS_A	2pleas	distractor1	CONbeforeEVA	acq_new_pleas_masked	acq2_masked	2	3	480	0	300	300	0	0	681	50	0	1	0	0	0	1	blank2r.bmp	0	1	+	0	8	C4r.bmp	492	1	blank2r.bmp	786	7	C3r.bmp	786	1	blank2r.bmp	866	4	vertrauen	866	1	!	1319	1	!	-1	0	0	0	0	0	0	0	0	0	0	0	0	0	0	0	0	0	0	0	0	0	0	0	0	0	0	0
021319	09:06:14	09:11:14	298240	5.0.10.0	4_exp_AWA_CON_EVA_AMP	119	Rpleas_acq	Oppo	Rpleas	Amasked	CS_A	2pleas	distractor1	CONbeforeEVA	acq_new_unple_masked	acq2_masked	2	4	480	1	300	300	0	0	540	46	0	1	0	0	0	1	blank2r.bmp	0	1	+	0	5	C1r.bmp	492	1	blank2r.bmp	786	8	C4r.bmp	786	1	blank2r.bmp	866	3	krise	866	1	!	1319	1	!	1439	0	0	0	0	0	0	0	0	0	0	0	0	0	0	0	0	0	0	0	0	0	0	0	0	0	0	0
021319	09:06:14	09:11:16	300519	5.0.10.0	4_exp_AWA_CON_EVA_AMP	119	Rpleas_acq	Oppo	Rpleas	Amasked	CS_A	2pleas	distractor1	CONbeforeEVA	acq_US_pleas_masked	acq2_masked	2	5	480	1	300	300	0	0	482	50	0	1	0	0	0	1	blank2r.bmp	0	1	+	0	6	C2r.bmp	492	1	blank2r.bmp	786	1	DHJF	786	1	blank2r.bmp	866	6	engagiert	866	1	!	1319	1	!	1386	0	0	0	0	0	0	0	0	0	0	0	0	0	0	0	0	0	0	0	0	0	0	0	0	0	0	0
021319	09:06:14	09:11:18	302745	5.0.10.0	4_exp_AWA_CON_EVA_AMP	119	Rpleas_acq	Oppo	Rpleas	Amasked	CS_A	2pleas	distractor1	CONbeforeEVA	acq_new_unple_masked	acq2_masked	2	6	480	1	300	300	0	0	430	46	0	1	0	0	0	1	blank2r.bmp	0	1	+	0	4	B4r.bmp	492	1	blank2r.bmp	786	5	C1r.bmp	786	1	blank2r.bmp	866	5	töten	866	1	!	1319	1	!	1332	0	0	0	0	0	0	0	0	0	0	0	0	0	0	0	0	0	0	0	0	0	0	0	0	0	0	0
021319	09:06:14	09:11:20	305077	5.0.10.0	4_exp_AWA_CON_EVA_AMP	119	Rpleas_acq	Oppo	Rpleas	Amasked	CS_A	2pleas	distractor1	CONbeforeEVA	acq_new_pleas_masked	acq2_masked	2	7	480	0	300	300	0	0	559	50	0	1	0	0	0	1	blank2r.bmp	0	1	+	0	3	B3r.bmp	492	1	blank2r.bmp	786	4	B4r.bmp	786	1	blank2r.bmp	866	6	besonnen	866	1	!	1319	1	!	-1	0	0	0	0	0	0	0	0	0	0	0	0	0	0	0	0	0	0	0	0	0	0	0	0	0	0	0
021319	09:06:14	09:11:23	307436	5.0.10.0	4_exp_AWA_CON_EVA_AMP	119	Rpleas_acq	Oppo	Rpleas	Amasked	CS_A	2pleas	distractor1	CONbeforeEVA	acq_US_unple_masked	acq2_masked	2	8	480	0	300	300	0	0	580	46	0	1	0	0	0	1	blank2r.bmp	0	1	+	0	1	B1r.bmp	492	1	blank2r.bmp	786	1	CPLW	786	1	blank2r.bmp	866	2	sterben	866	1	!	1319	1	!	-1	0	0	0	0	0	0	0	0	0	0	0	0	0	0	0	0	0	0	0	0	0	0	0	0	0	0	0
021319	09:06:14	09:11:25	309729	5.0.10.0	4_exp_AWA_CON_EVA_AMP	119	Rpleas_acq	Oppo	Rpleas	Amasked	CS_A	2pleas	distractor1	CONbeforeEVA	acq_US_pleas_masked	acq2_masked	2	9	480	1	300	300	0	0	471	50	0	1	0	0	0	1	blank2r.bmp	0	1	+	0	7	C3r.bmp	492	1	blank2r.bmp	786	1	DHJF	786	1	blank2r.bmp	866	4	gütig	866	1	!	1319	1	!	1372	0	0	0	0	0	0	0	0	0	0	0	0	0	0	0	0	0	0	0	0	0	0	0	0	0	0	0
021319	09:06:14	09:11:28	312248	5.0.10.0	4_exp_AWA_CON_EVA_AMP	119	Rpleas_acq	Oppo	Rpleas	Amasked	CS_A	2pleas	distractor1	CONbeforeEVA	acq_US_pleas_masked	acq2_masked	2	10	480	1	300	300	0	0	518	46	0	0	0	0	0	1	blank2r.bmp	0	1	+	0	2	B2r.bmp	492	1	blank2r.bmp	786	1	DHJF	786	1	blank2r.bmp	866	1	genießen	866	1	FEHLER	1732	1	!	1319	1	!	1413	0	0	0	0	0	0	0	0	0	0	0	0	0	0	0	0	0	0	0	0	0	0	0	0
021319	09:06:14	09:11:30	314353	5.0.10.0	4_exp_AWA_CON_EVA_AMP	119	Rpleas_acq	Oppo	Rpleas	Amasked	CS_A	2pleas	distractor1	CONbeforeEVA	acq_US_unple_masked	acq2_masked	2	11	480	1	300	300	0	0	513	46	0	1	0	0	0	1	blank2r.bmp	0	1	+	0	8	C4r.bmp	492	1	blank2r.bmp	786	1	CPLW	786	1	blank2r.bmp	866	3	geizig	866	1	!	1319	1	!	1412	0	0	0	0	0	0	0	0	0	0	0	0	0	0	0	0	0	0	0	0	0	0	0	0	0	0	0
021319	09:06:14	09:11:32	316726	5.0.10.0	4_exp_AWA_CON_EVA_AMP	119	Rpleas_acq	Oppo	Rpleas	Amasked	CS_A	2pleas	distractor1	CONbeforeEVA	acq_US_unple_masked	acq2_masked	2	12	480	0	300	300	0	0	611	46	0	1	0	0	0	1	blank2r.bmp	0	1	+	0	5	C1r.bmp	492	1	blank2r.bmp	786	1	CPLW	786	1	blank2r.bmp	866	5	ausrottung	866	1	!	1319	1	!	-1	0	0	0	0	0	0	0	0	0	0	0	0	0	0	0	0	0	0	0	0	0	0	0	0	0	0	0
021319	09:06:14	09:11:34	318978	5.0.10.0	4_exp_AWA_CON_EVA_AMP	119	Rpleas_acq	Oppo	Rpleas	Amasked	CS_A	2pleas	distractor1	CONbeforeEVA	acq_new_pleas_masked	acq2_masked	2	13	480	1	300	300	0	0	441	50	0	1	0	0	0	1	blank2r.bmp	0	1	+	0	6	C2r.bmp	492	1	blank2r.bmp	786	5	C1r.bmp	786	1	blank2r.bmp	866	2	kreativ	866	1	!	1319	1	!	1346	0	0	0	0	0	0	0	0	0	0	0	0	0	0	0	0	0	0	0	0	0	0	0	0	0	0	0
021319	09:06:14	09:11:37	321231	5.0.10.0	4_exp_AWA_CON_EVA_AMP	119	Rpleas_acq	Oppo	Rpleas	Amasked	CS_A	2pleas	distractor1	CONbeforeEVA	acq_new_pleas_masked	acq2_masked	2	14	480	1	300	300	0	0	444	50	0	1	0	0	0	1	blank2r.bmp	0	1	+	0	7	C3r.bmp	492	1	blank2r.bmp	786	6	C2r.bmp	786	1	blank2r.bmp	866	3	kuss	866	1	!	1319	1	!	1346	0	0	0	0	0	0	0	0	0	0	0	0	0	0	0	0	0	0	0	0	0	0	0	0	0	0	0
021319	09:06:14	09:11:39	323603	5.0.10.0	4_exp_AWA_CON_EVA_AMP	119	Rpleas_acq	Oppo	Rpleas	Amasked	CS_A	2pleas	distractor1	CONbeforeEVA	acq_new_unple_masked	acq2_masked	2	15	480	0	300	300	0	0	379	50	0	0	0	0	0	1	blank2r.bmp	0	1	+	0	2	B2r.bmp	492	1	blank2r.bmp	786	7	C3r.bmp	786	1	blank2r.bmp	866	6	bange	866	1	FEHLER	1586	1	!	-1	1	!	-1	0	0	0	0	0	0	0	0	0	0	0	0	0	0	0	0	0	0	0	0	0	0	0	0
021319	09:06:14	09:11:41	326149	5.0.10.0	4_exp_AWA_CON_EVA_AMP	119	Rpleas_acq	Oppo	Rpleas	Amasked	CS_A	2pleas	distractor1	CONbeforeEVA	acq_US_unple_masked	acq2_masked	2	16	480	0	300	300	0	0	763	50	0	0	0	0	0	1	blank2r.bmp	0	1	+	0	4	B4r.bmp	492	1	blank2r.bmp	786	1	CPLW	786	1	blank2r.bmp	866	1	gemein	866	1	FEHLER	1972	1	!	1319	1	!	-1	0	0	0	0	0	0	0	0	0	0	0	0	0	0	0	0	0	0	0	0	0	0	0	0
021319	09:06:14	09:11:44	328254	5.0.10.0	4_exp_AWA_CON_EVA_AMP	119	Rpleas_acq	Oppo	Rpleas	Amasked	CS_A	2pleas	distractor1	CONbeforeEVA	acq_US_pleas_masked	acq2_masked	2	17	480	1	300	300	0	0	509	50	0	1	0	0	0	1	blank2r.bmp	0	1	+	0	3	B3r.bmp	492	1	blank2r.bmp	786	1	DHJF	786	1	blank2r.bmp	866	1	genießen	866	1	!	1319	1	!	1412	0	0	0	0	0	0	0	0	0	0	0	0	0	0	0	0	0	0	0	0	0	0	0	0	0	0	0
021319	09:06:14	09:11:46	330493	5.0.10.0	4_exp_AWA_CON_EVA_AMP	119	Rpleas_acq	Oppo	Rpleas	Amasked	CS_A	2pleas	distractor1	CONbeforeEVA	acq_new_unple_masked	acq2_masked	2	18	480	1	300	300	0	0	451	46	0	1	0	0	0	1	blank2r.bmp	0	1	+	0	1	B1r.bmp	492	1	blank2r.bmp	786	2	B2r.bmp	786	1	blank2r.bmp	866	5	töten	866	1	!	1319	1	!	1346	0	0	0	0	0	0	0	0	0	0	0	0	0	0	0	0	0	0	0	0	0	0	0	0	0	0	0
021319	09:06:14	09:11:48	332853	5.0.10.0	4_exp_AWA_CON_EVA_AMP	119	Rpleas_acq	Oppo	Rpleas	Amasked	CS_A	2pleas	distractor1	CONbeforeEVA	acq_new_pleas_masked	acq2_masked	2	19	480	0	300	300	0	0	596	50	0	1	0	0	0	1	blank2r.bmp	0	1	+	0	5	C1r.bmp	492	1	blank2r.bmp	786	1	B1r.bmp	786	1	blank2r.bmp	866	1	vergnügt	866	1	!	1319	1	!	-1	0	0	0	0	0	0	0	0	0	0	0	0	0	0	0	0	0	0	0	0	0	0	0	0	0	0	0
021319	09:06:14	09:11:50	335158	5.0.10.0	4_exp_AWA_CON_EVA_AMP	119	Rpleas_acq	Oppo	Rpleas	Amasked	CS_A	2pleas	distractor1	CONbeforeEVA	acq_US_pleas_masked	acq2_masked	2	20	480	0	300	300	0	0	298	46	0	0	0	0	0	1	blank2r.bmp	0	1	+	0	8	C4r.bmp	492	1	blank2r.bmp	786	1	DHJF	786	1	blank2r.bmp	866	3	gesittet	866	1	FEHLER	1506	1	!	-1	1	!	-1	0	0	0	0	0	0	0	0	0	0	0	0	0	0	0	0	0	0	0	0	0	0	0	0
021319	09:06:14	09:11:53	337384	5.0.10.0	4_exp_AWA_CON_EVA_AMP	119	Rpleas_acq	Oppo	Rpleas	Amasked	CS_A	2pleas	distractor1	CONbeforeEVA	acq_US_unple_masked	acq2_masked	2	21	480	1	300	300	0	0	433	50	0	0	0	0	0	1	blank2r.bmp	0	1	+	0	1	B1r.bmp	492	1	blank2r.bmp	786	1	CPLW	786	1	blank2r.bmp	866	6	engstirnig	866	1	FEHLER	1652	1	!	1319	1	!	1332	0	0	0	0	0	0	0	0	0	0	0	0	0	0	0	0	0	0	0	0	0	0	0	0
021319	09:06:14	09:11:55	339490	5.0.10.0	4_exp_AWA_CON_EVA_AMP	119	Rpleas_acq	Oppo	Rpleas	Amasked	CS_A	2pleas	distractor1	CONbeforeEVA	acq_US_unple_masked	acq2_masked	2	22	480	1	300	300	0	0	531	46	0	1	0	0	0	1	blank2r.bmp	0	1	+	0	4	B4r.bmp	492	1	blank2r.bmp	786	1	CPLW	786	1	blank2r.bmp	866	3	geizig	866	1	!	1319	1	!	1426	0	0	0	0	0	0	0	0	0	0	0	0	0	0	0	0	0	0	0	0	0	0	0	0	0	0	0
021319	09:06:14	09:11:57	341795	5.0.10.0	4_exp_AWA_CON_EVA_AMP	119	Rpleas_acq	Oppo	Rpleas	Amasked	CS_A	2pleas	distractor1	CONbeforeEVA	acq_US_pleas_masked	acq2_masked	2	23	480	1	300	300	0	0	515	50	0	1	0	0	0	1	blank2r.bmp	0	1	+	0	2	B2r.bmp	492	1	blank2r.bmp	786	1	DHJF	786	1	blank2r.bmp	866	5	anregung	866	1	!	1319	1	!	1412	0	0	0	0	0	0	0	0	0	0	0	0	0	0	0	0	0	0	0	0	0	0	0	0	0	0	0
021319	09:06:14	09:11:59	344128	5.0.10.0	4_exp_AWA_CON_EVA_AMP	119	Rpleas_acq	Oppo	Rpleas	Amasked	CS_A	2pleas	distractor1	CONbeforeEVA	acq_new_unple_masked	acq2_masked	2	24	480	0	300	300	0	0	561	46	0	1	0	0	0	1	blank2r.bmp	0	1	+	0	6	C2r.bmp	492	1	blank2r.bmp	786	8	C4r.bmp	786	1	blank2r.bmp	866	1	verbissen	866	1	!	1319	1	!	-1	0	0	0	0	0	0	0	0	0	0	0	0	0	0	0	0	0	0	0	0	0	0	0	0	0	0	0
021319	09:06:14	09:12:02	346474	5.0.10.0	4_exp_AWA_CON_EVA_AMP	119	Rpleas_acq	Oppo	Rpleas	Amasked	CS_A	2pleas	distractor1	CONbeforeEVA	acq_new_pleas_masked	acq2_masked	2	25	480	1	300	300	0	0	531	50	0	1	0	0	0	1	blank2r.bmp	0	1	+	0	3	B3r.bmp	492	1	blank2r.bmp	786	4	B4r.bmp	786	1	blank2r.bmp	866	5	träumen	866	1	!	1319	1	!	1426	0	0	0	0	0	0	0	0	0	0	0	0	0	0	0	0	0	0	0	0	0	0	0	0	0	0	0
021319	09:06:14	09:12:04	348739	5.0.10.0	4_exp_AWA_CON_EVA_AMP	119	Rpleas_acq	Oppo	Rpleas	Amasked	CS_A	2pleas	distractor1	CONbeforeEVA	acq_US_pleas_masked	acq2_masked	2	26	480	1	300	300	0	0	472	50	0	1	0	0	0	1	blank2r.bmp	0	1	+	0	7	C3r.bmp	492	1	blank2r.bmp	786	1	DHJF	786	1	blank2r.bmp	866	2	sonnig	866	1	!	1319	1	!	1372	0	0	0	0	0	0	0	0	0	0	0	0	0	0	0	0	0	0	0	0	0	0	0	0	0	0	0
021319	09:06:14	09:12:06	351045	5.0.10.0	4_exp_AWA_CON_EVA_AMP	119	Rpleas_acq	Oppo	Rpleas	Amasked	CS_A	2pleas	distractor1	CONbeforeEVA	acq_new_pleas_masked	acq2_masked	2	27	480	1	300	300	0	0	510	50	0	1	0	0	0	1	blank2r.bmp	0	1	+	0	8	C4r.bmp	492	1	blank2r.bmp	786	3	B3r.bmp	786	1	blank2r.bmp	866	4	vertrauen	866	1	!	1319	1	!	1412	0	0	0	0	0	0	0	0	0	0	0	0	0	0	0	0	0	0	0	0	0	0	0	0	0	0	0
021319	09:06:14	09:12:09	353417	5.0.10.0	4_exp_AWA_CON_EVA_AMP	119	Rpleas_acq	Oppo	Rpleas	Amasked	CS_A	2pleas	distractor1	CONbeforeEVA	acq_US_pleas_masked	acq2_masked	2	28	480	0	300	300	0	0	374	46	0	0	0	0	0	1	blank2r.bmp	0	1	+	0	5	C1r.bmp	492	1	blank2r.bmp	786	1	DHJF	786	1	blank2r.bmp	866	6	engagiert	866	1	FEHLER	1586	1	!	-1	1	!	-1	0	0	0	0	0	0	0	0	0	0	0	0	0	0	0	0	0	0	0	0	0	0	0	0
021319	09:06:14	09:12:11	355550	5.0.10.0	4_exp_AWA_CON_EVA_AMP	119	Rpleas_acq	Oppo	Rpleas	Amasked	CS_A	2pleas	distractor1	CONbeforeEVA	acq_US_unple_masked	acq2_masked	2	29	480	1	300	300	0	0	538	46	0	1	0	0	0	1	blank2r.bmp	0	1	+	0	5	C1r.bmp	492	1	blank2r.bmp	786	1	CPLW	786	1	blank2r.bmp	866	4	gierig	866	1	!	1319	1	!	1439	0	0	0	0	0	0	0	0	0	0	0	0	0	0	0	0	0	0	0	0	0	0	0	0	0	0	0
021319	09:06:14	09:12:13	358015	5.0.10.0	4_exp_AWA_CON_EVA_AMP	119	Rpleas_acq	Oppo	Rpleas	Amasked	CS_A	2pleas	distractor1	CONbeforeEVA	acq_new_unple_masked	acq2_masked	2	30	480	1	300	300	0	0	468	50	0	0	0	0	0	1	blank2r.bmp	0	1	+	0	2	B2r.bmp	492	1	blank2r.bmp	786	4	B4r.bmp	786	1	blank2r.bmp	866	2	krank	866	1	FEHLER	1692	1	!	1319	1	!	1372	0	0	0	0	0	0	0	0	0	0	0	0	0	0	0	0	0	0	0	0	0	0	0	0
021319	09:06:14	09:12:15	360135	5.0.10.0	4_exp_AWA_CON_EVA_AMP	119	Rpleas_acq	Oppo	Rpleas	Amasked	CS_A	2pleas	distractor1	CONbeforeEVA	acq_US_pleas_masked	acq2_masked	2	31	480	1	300	300	0	0	519	50	0	1	0	0	0	1	blank2r.bmp	0	1	+	0	3	B3r.bmp	492	1	blank2r.bmp	786	1	DHJF	786	1	blank2r.bmp	866	4	gütig	866	1	!	1319	1	!	1426	0	0	0	0	0	0	0	0	0	0	0	0	0	0	0	0	0	0	0	0	0	0	0	0	0	0	0
021319	09:06:14	09:12:18	362467	5.0.10.0	4_exp_AWA_CON_EVA_AMP	119	Rpleas_acq	Oppo	Rpleas	Amasked	CS_A	2pleas	distractor1	CONbeforeEVA	acq_new_unple_masked	acq2_masked	2	32	480	0	300	300	0	0	559	46	0	1	0	0	0	1	blank2r.bmp	0	1	+	0	6	C2r.bmp	492	1	blank2r.bmp	786	5	C1r.bmp	786	1	blank2r.bmp	866	4	versagen	866	1	!	1319	1	!	-1	0	0	0	0	0	0	0	0	0	0	0	0	0	0	0	0	0	0	0	0	0	0	0	0	0	0	0
021319	09:06:14	09:12:20	364719	5.0.10.0	4_exp_AWA_CON_EVA_AMP	119	Rpleas_acq	Oppo	Rpleas	Amasked	CS_A	2pleas	distractor1	CONbeforeEVA	acq_US_unple_masked	acq2_masked	2	33	480	1	300	300	0	0	449	46	0	1	0	0	0	1	blank2r.bmp	0	1	+	0	1	B1r.bmp	492	1	blank2r.bmp	786	1	CPLW	786	1	blank2r.bmp	866	2	sterben	866	1	!	1319	1	!	1346	0	0	0	0	0	0	0	0	0	0	0	0	0	0	0	0	0	0	0	0	0	0	0	0	0	0	0
021319	09:06:14	09:12:22	366865	5.0.10.0	4_exp_AWA_CON_EVA_AMP	119	Rpleas_acq	Oppo	Rpleas	Amasked	CS_A	2pleas	distractor1	CONbeforeEVA	acq_new_unple_masked	acq2_masked	2	34	480	0	300	300	0	0	381	46	0	1	0	0	0	1	blank2r.bmp	0	1	+	0	7	C3r.bmp	492	1	blank2r.bmp	786	6	C2r.bmp	786	1	blank2r.bmp	866	3	krise	866	1	!	-1	1	!	-1	0	0	0	0	0	0	0	0	0	0	0	0	0	0	0	0	0	0	0	0	0	0	0	0	0	0	0
021319	09:06:14	09:12:24	369171	5.0.10.0	4_exp_AWA_CON_EVA_AMP	119	Rpleas_acq	Oppo	Rpleas	Amasked	CS_A	2pleas	distractor1	CONbeforeEVA	acq_new_pleas_masked	acq2_masked	2	35	480	1	300	300	0	0	498	50	0	1	0	0	0	1	blank2r.bmp	0	1	+	0	8	C4r.bmp	492	1	blank2r.bmp	786	1	B1r.bmp	786	1	blank2r.bmp	866	6	besonnen	866	1	!	1319	1	!	1399	0	0	0	0	0	0	0	0	0	0	0	0	0	0	0	0	0	0	0	0	0	0	0	0	0	0	0
021319	09:06:14	09:12:27	371490	5.0.10.0	4_exp_AWA_CON_EVA_AMP	119	Rpleas_acq	Oppo	Rpleas	Amasked	CS_A	2pleas	distractor1	CONbeforeEVA	acq_US_unple_masked	acq2_masked	2	36	480	1	300	300	0	0	531	46	0	1	0	0	0	1	blank2r.bmp	0	1	+	0	4	B4r.bmp	492	1	blank2r.bmp	786	1	CPLW	786	1	blank2r.bmp	866	5	ausrottung	866	1	!	1319	1	!	1426	0	0	0	0	0	0	0	0	0	0	0	0	0	0	0	0	0	0	0	0	0	0	0	0	0	0	0
021319	09:06:14	09:12:46	390242	5.0.10.0	4_exp_AWA_CON_EVA_AMP	119	Rpleas_acq	Oppo	Rpleas	Amasked	CS_A	2pleas	distractor1	CONbeforeEVA	acq_US_pleas_masked	acq3_masked	3	1	453	1	300	300	0	0	446	50	0	1	0	0	0	1	blank2r.bmp	0	1	+	0	5	C1r.bmp	492	1	blank2r.bmp	786	1	DHJF	786	1	blank2r.bmp	866	4	gütig	866	1	!	1292	1	!	1346	0	0	0	0	0	0	0	0	0	0	0	0	0	0	0	0	0	0	0	0	0	0	0	0	0	0	0
021319	09:06:14	09:12:48	392548	5.0.10.0	4_exp_AWA_CON_EVA_AMP	119	Rpleas_acq	Oppo	Rpleas	Amasked	CS_A	2pleas	distractor1	CONbeforeEVA	acq_US_unple_masked	acq3_masked	3	2	453	1	300	300	0	0	518	46	0	1	0	0	0	1	blank2r.bmp	0	1	+	0	3	B3r.bmp	492	1	blank2r.bmp	786	1	CPLW	786	1	blank2r.bmp	866	4	gierig	866	1	!	1292	1	!	1412	0	0	0	0	0	0	0	0	0	0	0	0	0	0	0	0	0	0	0	0	0	0	0	0	0	0	0
021319	09:06:14	09:12:50	395027	5.0.10.0	4_exp_AWA_CON_EVA_AMP	119	Rpleas_acq	Oppo	Rpleas	Amasked	CS_A	2pleas	distractor1	CONbeforeEVA	acq_US_unple_masked	acq3_masked	3	3	453	1	300	300	0	0	458	50	0	0	0	0	0	1	blank2r.bmp	0	1	+	0	4	B4r.bmp	492	1	blank2r.bmp	786	1	CPLW	786	1	blank2r.bmp	866	1	gemein	866	1	FEHLER	1679	1	!	1292	1	!	1359	0	0	0	0	0	0	0	0	0	0	0	0	0	0	0	0	0	0	0	0	0	0	0	0
021319	09:06:14	09:12:53	397306	5.0.10.0	4_exp_AWA_CON_EVA_AMP	119	Rpleas_acq	Oppo	Rpleas	Amasked	CS_A	2pleas	distractor1	CONbeforeEVA	acq_US_pleas_masked	acq3_masked	3	4	453	1	300	300	0	0	480	46	0	0	0	0	0	1	blank2r.bmp	0	1	+	0	7	C3r.bmp	492	1	blank2r.bmp	786	1	DHJF	786	1	blank2r.bmp	866	3	gesittet	866	1	FEHLER	1705	1	!	1292	1	!	1386	0	0	0	0	0	0	0	0	0	0	0	0	0	0	0	0	0	0	0	0	0	0	0	0
021319	09:06:14	09:12:55	399398	5.0.10.0	4_exp_AWA_CON_EVA_AMP	119	Rpleas_acq	Oppo	Rpleas	Amasked	CS_A	2pleas	distractor1	CONbeforeEVA	acq_US_unple_masked	acq3_masked	3	5	453	1	300	300	0	0	509	46	0	1	0	0	0	1	blank2r.bmp	0	1	+	0	1	B1r.bmp	492	1	blank2r.bmp	786	1	CPLW	786	1	blank2r.bmp	866	3	geizig	866	1	!	1292	1	!	1412	0	0	0	0	0	0	0	0	0	0	0	0	0	0	0	0	0	0	0	0	0	0	0	0	0	0	0
021319	09:06:14	09:12:57	401691	5.0.10.0	4_exp_AWA_CON_EVA_AMP	119	Rpleas_acq	Oppo	Rpleas	Amasked	CS_A	2pleas	distractor1	CONbeforeEVA	acq_US_unple_masked	acq3_masked	3	6	453	1	300	300	0	0	497	46	0	1	0	0	0	1	blank2r.bmp	0	1	+	0	8	C4r.bmp	492	1	blank2r.bmp	786	1	CPLW	786	1	blank2r.bmp	866	2	sterben	866	1	!	1292	1	!	1399	0	0	0	0	0	0	0	0	0	0	0	0	0	0	0	0	0	0	0	0	0	0	0	0	0	0	0
021319	09:06:14	09:12:59	404103	5.0.10.0	4_exp_AWA_CON_EVA_AMP	119	Rpleas_acq	Oppo	Rpleas	Amasked	CS_A	2pleas	distractor1	CONbeforeEVA	acq_US_unple_masked	acq3_masked	3	7	453	1	300	300	0	0	411	50	0	0	0	0	0	1	blank2r.bmp	0	1	+	0	2	B2r.bmp	492	1	blank2r.bmp	786	1	CPLW	786	1	blank2r.bmp	866	5	ausrottung	866	1	FEHLER	1625	1	!	1292	1	!	1306	0	0	0	0	0	0	0	0	0	0	0	0	0	0	0	0	0	0	0	0	0	0	0	0
021319	09:06:14	09:13:02	406316	5.0.10.0	4_exp_AWA_CON_EVA_AMP	119	Rpleas_acq	Oppo	Rpleas	Amasked	CS_A	2pleas	distractor1	CONbeforeEVA	acq_US_unple_masked	acq3_masked	3	8	453	0	300	300	0	0	663	46	0	1	0	0	0	1	blank2r.bmp	0	1	+	0	6	C2r.bmp	492	1	blank2r.bmp	786	1	CPLW	786	1	blank2r.bmp	866	6	engstirnig	866	1	!	1292	1	!	-1	0	0	0	0	0	0	0	0	0	0	0	0	0	0	0	0	0	0	0	0	0	0	0	0	0	0	0
021319	09:06:14	09:13:04	408568	5.0.10.0	4_exp_AWA_CON_EVA_AMP	119	Rpleas_acq	Oppo	Rpleas	Amasked	CS_A	2pleas	distractor1	CONbeforeEVA	acq_US_pleas_masked	acq3_masked	3	9	453	1	300	300	0	0	451	50	0	1	0	0	0	1	blank2r.bmp	0	1	+	0	4	B4r.bmp	492	1	blank2r.bmp	786	1	DHJF	786	1	blank2r.bmp	866	5	anregung	866	1	!	1292	1	!	1346	0	0	0	0	0	0	0	0	0	0	0	0	0	0	0	0	0	0	0	0	0	0	0	0	0	0	0
021319	09:06:14	09:13:06	410820	5.0.10.0	4_exp_AWA_CON_EVA_AMP	119	Rpleas_acq	Oppo	Rpleas	Amasked	CS_A	2pleas	distractor1	CONbeforeEVA	acq_US_pleas_masked	acq3_masked	3	10	453	1	300	300	0	0	450	50	0	1	0	0	0	1	blank2r.bmp	0	1	+	0	2	B2r.bmp	492	1	blank2r.bmp	786	1	DHJF	786	1	blank2r.bmp	866	2	sonnig	866	1	!	1292	1	!	1346	0	0	0	0	0	0	0	0	0	0	0	0	0	0	0	0	0	0	0	0	0	0	0	0	0	0	0
021319	09:06:14	09:13:08	413073	5.0.10.0	4_exp_AWA_CON_EVA_AMP	119	Rpleas_acq	Oppo	Rpleas	Amasked	CS_A	2pleas	distractor1	CONbeforeEVA	acq_US_pleas_masked	acq3_masked	3	11	453	1	300	300	0	0	463	50	0	1	0	0	0	1	blank2r.bmp	0	1	+	0	5	C1r.bmp	492	1	blank2r.bmp	786	1	DHJF	786	1	blank2r.bmp	866	1	genießen	866	1	!	1292	1	!	1359	0	0	0	0	0	0	0	0	0	0	0	0	0	0	0	0	0	0	0	0	0	0	0	0	0	0	0
021319	09:06:14	09:13:11	415392	5.0.10.0	4_exp_AWA_CON_EVA_AMP	119	Rpleas_acq	Oppo	Rpleas	Amasked	CS_A	2pleas	distractor1	CONbeforeEVA	acq_US_pleas_masked	acq3_masked	3	12	453	0	300	300	0	0	549	50	0	1	0	0	0	1	blank2r.bmp	0	1	+	0	6	C2r.bmp	492	1	blank2r.bmp	786	1	DHJF	786	1	blank2r.bmp	866	6	engagiert	866	1	!	1292	1	!	-1	0	0	0	0	0	0	0	0	0	0	0	0	0	0	0	0	0	0	0	0	0	0	0	0	0	0	0
021319	09:06:14	09:13:13	417644	5.0.10.0	4_exp_AWA_CON_EVA_AMP	119	Rpleas_acq	Oppo	Rpleas	Amasked	CS_A	2pleas	distractor1	CONbeforeEVA	acq_US_pleas_masked	acq3_masked	3	13	453	1	300	300	0	0	452	50	0	1	0	0	0	1	blank2r.bmp	0	1	+	0	3	B3r.bmp	492	1	blank2r.bmp	786	1	DHJF	786	1	blank2r.bmp	866	1	genießen	866	1	!	1292	1	!	1346	0	0	0	0	0	0	0	0	0	0	0	0	0	0	0	0	0	0	0	0	0	0	0	0	0	0	0
021319	09:06:14	09:13:15	420083	5.0.10.0	4_exp_AWA_CON_EVA_AMP	119	Rpleas_acq	Oppo	Rpleas	Amasked	CS_A	2pleas	distractor1	CONbeforeEVA	acq_US_pleas_masked	acq3_masked	3	14	453	1	300	300	0	0	437	46	0	0	0	0	0	1	blank2r.bmp	0	1	+	0	7	C3r.bmp	492	1	blank2r.bmp	786	1	DHJF	786	1	blank2r.bmp	866	4	gütig	866	1	FEHLER	1652	1	!	1292	1	!	1332	0	0	0	0	0	0	0	0	0	0	0	0	0	0	0	0	0	0	0	0	0	0	0	0
021319	09:06:14	09:13:18	422336	5.0.10.0	4_exp_AWA_CON_EVA_AMP	119	Rpleas_acq	Oppo	Rpleas	Amasked	CS_A	2pleas	distractor1	CONbeforeEVA	acq_US_unple_masked	acq3_masked	3	15	453	1	300	300	0	0	464	50	0	0	0	0	0	1	blank2r.bmp	0	1	+	0	1	B1r.bmp	492	1	blank2r.bmp	786	1	CPLW	786	1	blank2r.bmp	866	4	gierig	866	1	FEHLER	1679	1	!	1292	1	!	1359	0	0	0	0	0	0	0	0	0	0	0	0	0	0	0	0	0	0	0	0	0	0	0	0
021319	09:06:14	09:13:20	424441	5.0.10.0	4_exp_AWA_CON_EVA_AMP	119	Rpleas_acq	Oppo	Rpleas	Amasked	CS_A	2pleas	distractor1	CONbeforeEVA	acq_US_pleas_masked	acq3_masked	3	16	453	0	300	300	0	0	546	50	0	1	0	0	0	1	blank2r.bmp	0	1	+	0	8	C4r.bmp	492	1	blank2r.bmp	786	1	DHJF	786	1	blank2r.bmp	866	2	sonnig	866	1	!	1292	1	!	-1	0	0	0	0	0	0	0	0	0	0	0	0	0	0	0	0	0	0	0	0	0	0	0	0	0	0	0
021319	09:06:14	09:13:22	426561	5.0.10.0	4_exp_AWA_CON_EVA_AMP	119	Rpleas_acq	Oppo	Rpleas	Amasked	CS_A	2pleas	distractor1	CONbeforeEVA	acq_US_pleas_masked	acq3_masked	3	17	453	0	300	300	0	0	340	50	0	1	0	0	0	1	blank2r.bmp	0	1	+	0	5	C1r.bmp	492	1	blank2r.bmp	786	1	DHJF	786	1	blank2r.bmp	866	3	gesittet	866	1	!	-1	1	!	-1	0	0	0	0	0	0	0	0	0	0	0	0	0	0	0	0	0	0	0	0	0	0	0	0	0	0	0
021319	09:06:14	09:13:24	428826	5.0.10.0	4_exp_AWA_CON_EVA_AMP	119	Rpleas_acq	Oppo	Rpleas	Amasked	CS_A	2pleas	distractor1	CONbeforeEVA	acq_US_unple_masked	acq3_masked	3	18	453	1	300	300	0	0	456	46	0	1	0	0	0	1	blank2r.bmp	0	1	+	0	4	B4r.bmp	492	1	blank2r.bmp	786	1	CPLW	786	1	blank2r.bmp	866	5	ausrottung	866	1	!	1292	1	!	1359	0	0	0	0	0	0	0	0	0	0	0	0	0	0	0	0	0	0	0	0	0	0	0	0	0	0	0
021319	09:06:14	09:13:26	431092	5.0.10.0	4_exp_AWA_CON_EVA_AMP	119	Rpleas_acq	Oppo	Rpleas	Amasked	CS_A	2pleas	distractor1	CONbeforeEVA	acq_US_pleas_masked	acq3_masked	3	19	453	1	300	300	0	0	470	50	0	1	0	0	0	1	blank2r.bmp	0	1	+	0	3	B3r.bmp	492	1	blank2r.bmp	786	1	DHJF	786	1	blank2r.bmp	866	6	engagiert	866	1	!	1292	1	!	1372	0	0	0	0	0	0	0	0	0	0	0	0	0	0	0	0	0	0	0	0	0	0	0	0	0	0	0
021319	09:06:14	09:13:29	433238	5.0.10.0	4_exp_AWA_CON_EVA_AMP	119	Rpleas_acq	Oppo	Rpleas	Amasked	CS_A	2pleas	distractor1	CONbeforeEVA	acq_US_unple_masked	acq3_masked	3	20	453	0	300	300	0	0	378	46	0	1	0	0	0	1	blank2r.bmp	0	1	+	0	7	C3r.bmp	492	1	blank2r.bmp	786	1	CPLW	786	1	blank2r.bmp	866	3	geizig	866	1	!	-1	1	!	-1	0	0	0	0	0	0	0	0	0	0	0	0	0	0	0	0	0	0	0	0	0	0	0	0	0	0	0
021319	09:06:14	09:13:31	435557	5.0.10.0	4_exp_AWA_CON_EVA_AMP	119	Rpleas_acq	Oppo	Rpleas	Amasked	CS_A	2pleas	distractor1	CONbeforeEVA	acq_US_pleas_masked	acq3_masked	3	21	453	0	300	300	0	0	540	50	0	1	0	0	0	1	blank2r.bmp	0	1	+	0	8	C4r.bmp	492	1	blank2r.bmp	786	1	DHJF	786	1	blank2r.bmp	866	5	anregung	866	1	!	1292	1	!	-1	0	0	0	0	0	0	0	0	0	0	0	0	0	0	0	0	0	0	0	0	0	0	0	0	0	0	0
021319	09:06:14	09:13:33	437809	5.0.10.0	4_exp_AWA_CON_EVA_AMP	119	Rpleas_acq	Oppo	Rpleas	Amasked	CS_A	2pleas	distractor1	CONbeforeEVA	acq_US_unple_masked	acq3_masked	3	22	453	1	300	300	0	0	426	46	0	1	0	0	0	1	blank2r.bmp	0	1	+	0	6	C2r.bmp	492	1	blank2r.bmp	786	1	CPLW	786	1	blank2r.bmp	866	2	sterben	866	1	!	1292	1	!	1332	0	0	0	0	0	0	0	0	0	0	0	0	0	0	0	0	0	0	0	0	0	0	0	0	0	0	0
021319	09:06:14	09:13:36	440302	5.0.10.0	4_exp_AWA_CON_EVA_AMP	119	Rpleas_acq	Oppo	Rpleas	Amasked	CS_A	2pleas	distractor1	CONbeforeEVA	acq_US_unple_masked	acq3_masked	3	23	453	1	300	300	0	0	482	50	0	0	0	0	0	1	blank2r.bmp	0	1	+	0	1	B1r.bmp	492	1	blank2r.bmp	786	1	CPLW	786	1	blank2r.bmp	866	1	gemein	866	1	FEHLER	1705	1	!	1292	1	!	1386	0	0	0	0	0	0	0	0	0	0	0	0	0	0	0	0	0	0	0	0	0	0	0	0
021319	09:06:14	09:13:38	442394	5.0.10.0	4_exp_AWA_CON_EVA_AMP	119	Rpleas_acq	Oppo	Rpleas	Amasked	CS_A	2pleas	distractor1	CONbeforeEVA	acq_US_unple_masked	acq3_masked	3	24	453	1	300	300	0	0	518	46	0	1	0	0	0	1	blank2r.bmp	0	1	+	0	2	B2r.bmp	492	1	blank2r.bmp	786	1	CPLW	786	1	blank2r.bmp	866	6	engstirnig	866	1	!	1292	1	!	1412	0	0	0	0	0	0	0	0	0	0	0	0	0	0	0	0	0	0	0	0	0	0	0	0	0	0	0
021319	09:06:14	09:13:40	444686	5.0.10.0	4_exp_AWA_CON_EVA_AMP	119	Rpleas_acq	Oppo	Rpleas	Amasked	CS_A	2pleas	distractor1	CONbeforeEVA	acq_US_pleas_masked	acq3_masked	3	25	453	1	300	300	0	0	501	50	0	1	0	0	0	1	blank2r.bmp	0	1	+	0	8	C4r.bmp	492	1	blank2r.bmp	786	1	DHJF	786	1	blank2r.bmp	866	1	genießen	866	1	!	1292	1	!	1399	0	0	0	0	0	0	0	0	0	0	0	0	0	0	0	0	0	0	0	0	0	0	0	0	0	0	0
021319	09:06:14	09:13:42	447165	5.0.10.0	4_exp_AWA_CON_EVA_AMP	119	Rpleas_acq	Oppo	Rpleas	Amasked	CS_A	2pleas	distractor1	CONbeforeEVA	acq_US_pleas_masked	acq3_masked	3	26	453	1	300	300	0	0	469	46	0	0	0	0	0	1	blank2r.bmp	0	1	+	0	4	B4r.bmp	492	1	blank2r.bmp	786	1	DHJF	786	1	blank2r.bmp	866	2	sonnig	866	1	FEHLER	1692	1	!	1292	1	!	1372	0	0	0	0	0	0	0	0	0	0	0	0	0	0	0	0	0	0	0	0	0	0	0	0
021319	09:06:14	09:13:45	449484	5.0.10.0	4_exp_AWA_CON_EVA_AMP	119	Rpleas_acq	Oppo	Rpleas	Amasked	CS_A	2pleas	distractor1	CONbeforeEVA	acq_US_unple_masked	acq3_masked	3	27	453	0	300	300	0	0	532	50	0	0	0	0	0	1	blank2r.bmp	0	1	+	0	7	C3r.bmp	492	1	blank2r.bmp	786	1	CPLW	786	1	blank2r.bmp	866	3	geizig	866	1	FEHLER	1745	1	!	1292	1	!	-1	0	0	0	0	0	0	0	0	0	0	0	0	0	0	0	0	0	0	0	0	0	0	0	0
021319	09:06:14	09:13:47	451617	5.0.10.0	4_exp_AWA_CON_EVA_AMP	119	Rpleas_acq	Oppo	Rpleas	Amasked	CS_A	2pleas	distractor1	CONbeforeEVA	acq_US_pleas_masked	acq3_masked	3	28	453	0	300	300	0	0	346	46	0	0	0	0	0	1	blank2r.bmp	0	1	+	0	5	C1r.bmp	492	1	blank2r.bmp	786	1	DHJF	786	1	blank2r.bmp	866	4	gütig	866	1	FEHLER	1559	1	!	-1	1	!	-1	0	0	0	0	0	0	0	0	0	0	0	0	0	0	0	0	0	0	0	0	0	0	0	0
021319	09:06:14	09:13:49	453883	5.0.10.0	4_exp_AWA_CON_EVA_AMP	119	Rpleas_acq	Oppo	Rpleas	Amasked	CS_A	2pleas	distractor1	CONbeforeEVA	acq_US_pleas_masked	acq3_masked	3	29	453	1	300	300	0	0	473	46	0	0	0	0	0	1	blank2r.bmp	0	1	+	0	1	B1r.bmp	492	1	blank2r.bmp	786	1	DHJF	786	1	blank2r.bmp	866	5	anregung	866	1	FEHLER	1692	1	!	1292	1	!	1372	0	0	0	0	0	0	0	0	0	0	0	0	0	0	0	0	0	0	0	0	0	0	0	0
021319	09:06:14	09:13:51	456082	5.0.10.0	4_exp_AWA_CON_EVA_AMP	119	Rpleas_acq	Oppo	Rpleas	Amasked	CS_A	2pleas	distractor1	CONbeforeEVA	acq_US_pleas_masked	acq3_masked	3	30	453	0	300	300	0	0	639	50	0	1	0	0	0	1	blank2r.bmp	0	1	+	0	6	C2r.bmp	492	1	blank2r.bmp	786	1	DHJF	786	1	blank2r.bmp	866	3	gesittet	866	1	!	1292	1	!	-1	0	0	0	0	0	0	0	0	0	0	0	0	0	0	0	0	0	0	0	0	0	0	0	0	0	0	0
021319	09:06:14	09:13:54	458401	5.0.10.0	4_exp_AWA_CON_EVA_AMP	119	Rpleas_acq	Oppo	Rpleas	Amasked	CS_A	2pleas	distractor1	CONbeforeEVA	acq_US_unple_masked	acq3_masked	3	31	453	0	300	300	0	0	533	46	0	1	0	0	0	1	blank2r.bmp	0	1	+	0	3	B3r.bmp	492	1	blank2r.bmp	786	1	CPLW	786	1	blank2r.bmp	866	6	engstirnig	866	1	!	1292	1	!	-1	0	0	0	0	0	0	0	0	0	0	0	0	0	0	0	0	0	0	0	0	0	0	0	0	0	0	0
021319	09:06:14	09:13:56	460733	5.0.10.0	4_exp_AWA_CON_EVA_AMP	119	Rpleas_acq	Oppo	Rpleas	Amasked	CS_A	2pleas	distractor1	CONbeforeEVA	acq_US_unple_masked	acq3_masked	3	32	453	0	300	300	0	0	557	46	0	1	0	0	0	1	blank2r.bmp	0	1	+	0	2	B2r.bmp	492	1	blank2r.bmp	786	1	CPLW	786	1	blank2r.bmp	866	1	gemein	866	1	!	1292	1	!	-1	0	0	0	0	0	0	0	0	0	0	0	0	0	0	0	0	0	0	0	0	0	0	0	0	0	0	0
021319	09:06:14	09:13:58	462946	5.0.10.0	4_exp_AWA_CON_EVA_AMP	119	Rpleas_acq	Oppo	Rpleas	Amasked	CS_A	2pleas	distractor1	CONbeforeEVA	acq_US_unple_masked	acq3_masked	3	33	453	1	300	300	0	0	408	46	0	1	0	0	0	1	blank2r.bmp	0	1	+	0	8	C4r.bmp	492	1	blank2r.bmp	786	1	CPLW	786	1	blank2r.bmp	866	2	sterben	866	1	!	1292	1	!	1306	0	0	0	0	0	0	0	0	0	0	0	0	0	0	0	0	0	0	0	0	0	0	0	0	0	0	0
021319	09:06:14	09:14:03	467584	5.0.10.0	4_exp_AWA_CON_EVA_AMP	119	Rpleas_acq	Oppo	Rpleas	Amasked	CS_A	2pleas	distractor1	CONbeforeEVA	acq_US_pleas_masked	acq3_masked	3	34	453	0	300	300	0	0	2873	50	0	1	0	0	0	1	blank2r.bmp	0	1	+	0	4	B4r.bmp	492	1	blank2r.bmp	786	1	DHJF	786	1	blank2r.bmp	866	6	engagiert	866	1	!	1292	1	!	-1	0	0	0	0	0	0	0	0	0	0	0	0	0	0	0	0	0	0	0	0	0	0	0	0	0	0	0
021319	09:06:14	09:14:05	469849	5.0.10.0	4_exp_AWA_CON_EVA_AMP	119	Rpleas_acq	Oppo	Rpleas	Amasked	CS_A	2pleas	distractor1	CONbeforeEVA	acq_US_unple_masked	acq3_masked	3	35	453	1	300	300	0	0	442	46	0	1	0	0	0	1	blank2r.bmp	0	1	+	0	6	C2r.bmp	492	1	blank2r.bmp	786	1	CPLW	786	1	blank2r.bmp	866	4	gierig	866	1	!	1292	1	!	1346	0	0	0	0	0	0	0	0	0	0	0	0	0	0	0	0	0	0	0	0	0	0	0	0	0	0	0
021319	09:06:14	09:14:07	472115	5.0.10.0	4_exp_AWA_CON_EVA_AMP	119	Rpleas_acq	Oppo	Rpleas	Amasked	CS_A	2pleas	distractor1	CONbeforeEVA	acq_US_unple_masked	acq3_masked	3	36	453	1	300	300	0	0	472	46	0	1	0	0	0	1	blank2r.bmp	0	1	+	0	5	C1r.bmp	492	1	blank2r.bmp	786	1	CPLW	786	1	blank2r.bmp	866	5	ausrottung	866	1	!	1292	1	!	1372	0	0	0	0	0	0	0	0	0	0	0	0	0	0	0	0	0	0	0	0	0	0	0	0	0	0	0
021319	09:06:14	09:14:24	489095	5.0.10.0	4_exp_AWA_CON_EVA_AMP	119	Rpleas_acq	Oppo	Rpleas	Amasked	CS_A	2pleas	distractor1	CONbeforeEVA	acq_US_pleas_masked	acq45_masked	4	1	400	0	300	300	0	0	494	50	0	1	0	0	0	1	blank2r.bmp	0	1	+	0	3	B3r.bmp	492	1	blank2r.bmp	786	1	DHJF	786	1	blank2r.bmp	866	1	genießen	866	1	!	1239	1	!	-1	0	0	0	0	0	0	0	0	0	0	0	0	0	0	0	0	0	0	0	0	0	0	0	0	0	0	0
021319	09:06:14	09:14:27	491307	5.0.10.0	4_exp_AWA_CON_EVA_AMP	119	Rpleas_acq	Oppo	Rpleas	Amasked	CS_A	2pleas	distractor1	CONbeforeEVA	acq_US_unple_masked	acq45_masked	4	2	400	1	300	300	0	0	408	46	0	1	0	0	0	1	blank2r.bmp	0	1	+	0	1	B1r.bmp	492	1	blank2r.bmp	786	1	CPLW	786	1	blank2r.bmp	866	4	gierig	866	1	!	1239	1	!	1306	0	0	0	0	0	0	0	0	0	0	0	0	0	0	0	0	0	0	0	0	0	0	0	0	0	0	0
021319	09:06:14	09:14:29	493533	5.0.10.0	4_exp_AWA_CON_EVA_AMP	119	Rpleas_acq	Oppo	Rpleas	Amasked	CS_A	2pleas	distractor1	CONbeforeEVA	acq_US_pleas_masked	acq45_masked	4	3	400	1	300	300	0	0	436	50	0	1	0	0	0	1	blank2r.bmp	0	1	+	0	2	B2r.bmp	492	1	blank2r.bmp	786	1	DHJF	786	1	blank2r.bmp	866	6	engagiert	866	1	!	1239	1	!	1332	0	0	0	0	0	0	0	0	0	0	0	0	0	0	0	0	0	0	0	0	0	0	0	0	0	0	0
021319	09:06:14	09:14:31	495772	5.0.10.0	4_exp_AWA_CON_EVA_AMP	119	Rpleas_acq	Oppo	Rpleas	Amasked	CS_A	2pleas	distractor1	CONbeforeEVA	acq_US_pleas_masked	acq45_masked	4	4	400	1	300	300	0	0	444	46	0	0	0	0	0	1	blank2r.bmp	0	1	+	0	7	C3r.bmp	492	1	blank2r.bmp	786	1	DHJF	786	1	blank2r.bmp	866	3	gesittet	866	1	!	1239	1	!	1346	0	0	0	0	0	0	0	0	0	0	0	0	0	0	0	0	0	0	0	0	0	0	0	0	0	0	0
021319	09:06:14	09:14:35	499810	5.0.10.0	4_exp_AWA_CON_EVA_AMP	119	Rpleas_acq	Oppo	Rpleas	Amasked	CS_A	2pleas	distractor1	CONbeforeEVA	acq_US_pleas_masked	acq45_masked	4	5	400	0	300	300	0	0	2256	50	0	1	0	0	0	1	blank2r.bmp	0	1	+	0	8	C4r.bmp	492	1	blank2r.bmp	786	1	DHJF	786	1	blank2r.bmp	866	5	anregung	866	1	!	1239	1	!	-1	0	0	0	0	0	0	0	0	0	0	0	0	0	0	0	0	0	0	0	0	0	0	0	0	0	0	0
021319	09:06:14	09:14:37	502076	5.0.10.0	4_exp_AWA_CON_EVA_AMP	119	Rpleas_acq	Oppo	Rpleas	Amasked	CS_A	2pleas	distractor1	CONbeforeEVA	acq_US_unple_masked	acq45_masked	4	6	400	0	300	300	0	0	482	46	0	1	0	0	0	1	blank2r.bmp	0	1	+	0	3	B3r.bmp	492	1	blank2r.bmp	786	1	CPLW	786	1	blank2r.bmp	866	3	geizig	866	1	!	1239	1	!	-1	0	0	0	0	0	0	0	0	0	0	0	0	0	0	0	0	0	0	0	0	0	0	0	0	0	0	0
021319	09:06:14	09:14:40	504342	5.0.10.0	4_exp_AWA_CON_EVA_AMP	119	Rpleas_acq	Oppo	Rpleas	Amasked	CS_A	2pleas	distractor1	CONbeforeEVA	acq_US_pleas_masked	acq45_masked	4	7	400	1	300	300	0	0	441	50	0	1	0	0	0	1	blank2r.bmp	0	1	+	0	5	C1r.bmp	492	1	blank2r.bmp	786	1	DHJF	786	1	blank2r.bmp	866	2	sonnig	866	1	!	1239	1	!	1346	0	0	0	0	0	0	0	0	0	0	0	0	0	0	0	0	0	0	0	0	0	0	0	0	0	0	0
021319	09:06:14	09:14:42	506594	5.0.10.0	4_exp_AWA_CON_EVA_AMP	119	Rpleas_acq	Oppo	Rpleas	Amasked	CS_A	2pleas	distractor1	CONbeforeEVA	acq_US_unple_masked	acq45_masked	4	8	400	1	300	300	0	0	456	46	0	1	0	0	0	1	blank2r.bmp	0	1	+	0	4	B4r.bmp	492	1	blank2r.bmp	786	1	CPLW	786	1	blank2r.bmp	866	5	ausrottung	866	1	!	1239	1	!	1359	0	0	0	0	0	0	0	0	0	0	0	0	0	0	0	0	0	0	0	0	0	0	0	0	0	0	0
021319	09:06:14	09:14:44	508887	5.0.10.0	4_exp_AWA_CON_EVA_AMP	119	Rpleas_acq	Oppo	Rpleas	Amasked	CS_A	2pleas	distractor1	CONbeforeEVA	acq_US_unple_masked	acq45_masked	4	9	400	0	300	300	0	0	530	46	0	1	0	0	0	1	blank2r.bmp	0	1	+	0	2	B2r.bmp	492	1	blank2r.bmp	786	1	CPLW	786	1	blank2r.bmp	866	6	engstirnig	866	1	!	1239	1	!	-1	0	0	0	0	0	0	0	0	0	0	0	0	0	0	0	0	0	0	0	0	0	0	0	0	0	0	0
021319	09:06:14	09:14:46	511166	5.0.10.0	4_exp_AWA_CON_EVA_AMP	119	Rpleas_acq	Oppo	Rpleas	Amasked	CS_A	2pleas	distractor1	CONbeforeEVA	acq_US_pleas_masked	acq45_masked	4	10	400	0	300	300	0	0	503	50	0	1	0	0	0	1	blank2r.bmp	0	1	+	0	1	B1r.bmp	492	1	blank2r.bmp	786	1	DHJF	786	1	blank2r.bmp	866	4	gütig	866	1	!	1239	1	!	-1	0	0	0	0	0	0	0	0	0	0	0	0	0	0	0	0	0	0	0	0	0	0	0	0	0	0	0
021319	09:06:14	09:14:49	513991	5.0.10.0	4_exp_AWA_CON_EVA_AMP	119	Rpleas_acq	Oppo	Rpleas	Amasked	CS_A	2pleas	distractor1	CONbeforeEVA	acq_US_unple_masked	acq45_masked	4	11	400	0	300	300	0	0	1042	46	0	1	0	0	0	1	blank2r.bmp	0	1	+	0	7	C3r.bmp	492	1	blank2r.bmp	786	1	CPLW	786	1	blank2r.bmp	866	2	sterben	866	1	!	1239	1	!	-1	0	0	0	0	0	0	0	0	0	0	0	0	0	0	0	0	0	0	0	0	0	0	0	0	0	0	0
021319	09:06:14	09:14:52	516257	5.0.10.0	4_exp_AWA_CON_EVA_AMP	119	Rpleas_acq	Oppo	Rpleas	Amasked	CS_A	2pleas	distractor1	CONbeforeEVA	acq_US_pleas_masked	acq45_masked	4	12	400	0	300	300	0	0	479	50	0	1	0	0	0	1	blank2r.bmp	0	1	+	0	6	C2r.bmp	492	1	blank2r.bmp	786	1	DHJF	786	1	blank2r.bmp	866	5	anregung	866	1	!	1239	1	!	-1	0	0	0	0	0	0	0	0	0	0	0	0	0	0	0	0	0	0	0	0	0	0	0	0	0	0	0
021319	09:06:14	09:14:54	518536	5.0.10.0	4_exp_AWA_CON_EVA_AMP	119	Rpleas_acq	Oppo	Rpleas	Amasked	CS_A	2pleas	distractor1	CONbeforeEVA	acq_US_pleas_masked	acq45_masked	4	13	400	1	300	300	0	0	462	46	0	0	0	0	0	1	blank2r.bmp	0	1	+	0	5	C1r.bmp	492	1	blank2r.bmp	786	1	DHJF	786	1	blank2r.bmp	866	1	genießen	866	1	!	1239	1	!	1359	0	0	0	0	0	0	0	0	0	0	0	0	0	0	0	0	0	0	0	0	0	0	0	0	0	0	0
021319	09:06:14	09:14:56	520775	5.0.10.0	4_exp_AWA_CON_EVA_AMP	119	Rpleas_acq	Oppo	Rpleas	Amasked	CS_A	2pleas	distractor1	CONbeforeEVA	acq_US_unple_masked	acq45_masked	4	14	400	1	300	300	0	0	439	50	0	0	0	0	0	1	blank2r.bmp	0	1	+	0	4	B4r.bmp	492	1	blank2r.bmp	786	1	CPLW	786	1	blank2r.bmp	866	1	gemein	866	1	!	1239	1	!	1346	0	0	0	0	0	0	0	0	0	0	0	0	0	0	0	0	0	0	0	0	0	0	0	0	0	0	0
021319	09:06:14	09:14:58	523014	5.0.10.0	4_exp_AWA_CON_EVA_AMP	119	Rpleas_acq	Oppo	Rpleas	Amasked	CS_A	2pleas	distractor1	CONbeforeEVA	acq_US_unple_masked	acq45_masked	4	15	400	1	300	300	0	0	443	46	0	1	0	0	0	1	blank2r.bmp	0	1	+	0	6	C2r.bmp	492	1	blank2r.bmp	786	1	CPLW	786	1	blank2r.bmp	866	5	ausrottung	866	1	!	1239	1	!	1346	0	0	0	0	0	0	0	0	0	0	0	0	0	0	0	0	0	0	0	0	0	0	0	0	0	0	0
021319	09:06:14	09:15:01	525280	5.0.10.0	4_exp_AWA_CON_EVA_AMP	119	Rpleas_acq	Oppo	Rpleas	Amasked	CS_A	2pleas	distractor1	CONbeforeEVA	acq_US_unple_masked	acq45_masked	4	16	400	0	300	300	0	0	499	46	0	1	0	0	0	1	blank2r.bmp	0	1	+	0	7	C3r.bmp	492	1	blank2r.bmp	786	1	CPLW	786	1	blank2r.bmp	866	4	gierig	866	1	!	1239	1	!	-1	0	0	0	0	0	0	0	0	0	0	0	0	0	0	0	0	0	0	0	0	0	0	0	0	0	0	0
021319	09:06:14	09:15:03	527386	5.0.10.0	4_exp_AWA_CON_EVA_AMP	119	Rpleas_acq	Oppo	Rpleas	Amasked	CS_A	2pleas	distractor1	CONbeforeEVA	acq_US_unple_masked	acq45_masked	4	17	400	0	300	300	0	0	326	46	0	1	0	0	0	1	blank2r.bmp	0	1	+	0	2	B2r.bmp	492	1	blank2r.bmp	786	1	CPLW	786	1	blank2r.bmp	866	6	engstirnig	866	1	!	-1	1	!	-1	0	0	0	0	0	0	0	0	0	0	0	0	0	0	0	0	0	0	0	0	0	0	0	0	0	0	0
021319	09:06:14	09:15:05	529558	5.0.10.0	4_exp_AWA_CON_EVA_AMP	119	Rpleas_acq	Oppo	Rpleas	Amasked	CS_A	2pleas	distractor1	CONbeforeEVA	acq_US_pleas_masked	acq45_masked	4	18	400	1	300	300	0	0	362	50	0	1	0	0	0	1	blank2r.bmp	0	1	+	0	3	B3r.bmp	492	1	blank2r.bmp	786	1	DHJF	786	1	blank2r.bmp	866	4	gütig	866	1	!	1239	1	!	1266	0	0	0	0	0	0	0	0	0	0	0	0	0	0	0	0	0	0	0	0	0	0	0	0	0	0	0
021319	09:06:14	09:15:08	532210	5.0.10.0	4_exp_AWA_CON_EVA_AMP	119	Rpleas_acq	Oppo	Rpleas	Amasked	CS_A	2pleas	distractor1	CONbeforeEVA	acq_US_unple_masked	acq45_masked	4	19	400	0	300	300	0	0	882	46	0	1	0	0	0	1	blank2r.bmp	0	1	+	0	8	C4r.bmp	492	1	blank2r.bmp	786	1	CPLW	786	1	blank2r.bmp	866	3	geizig	866	1	!	1239	1	!	-1	0	0	0	0	0	0	0	0	0	0	0	0	0	0	0	0	0	0	0	0	0	0	0	0	0	0	0
021319	09:06:14	09:15:10	534476	5.0.10.0	4_exp_AWA_CON_EVA_AMP	119	Rpleas_acq	Oppo	Rpleas	Amasked	CS_A	2pleas	distractor1	CONbeforeEVA	acq_US_unple_masked	acq45_masked	4	20	400	0	300	300	0	0	480	46	0	1	0	0	0	1	blank2r.bmp	0	1	+	0	1	B1r.bmp	492	1	blank2r.bmp	786	1	CPLW	786	1	blank2r.bmp	866	1	gemein	866	1	!	1239	1	!	-1	0	0	0	0	0	0	0	0	0	0	0	0	0	0	0	0	0	0	0	0	0	0	0	0	0	0	0
021319	09:06:14	09:15:12	536875	5.0.10.0	4_exp_AWA_CON_EVA_AMP	119	Rpleas_acq	Oppo	Rpleas	Amasked	CS_A	2pleas	distractor1	CONbeforeEVA	acq_US_pleas_masked	acq45_masked	4	21	400	0	300	300	0	0	600	50	0	1	0	0	0	1	blank2r.bmp	0	1	+	0	6	C2r.bmp	492	1	blank2r.bmp	786	1	DHJF	786	1	blank2r.bmp	866	6	engagiert	866	1	!	1239	1	!	-1	0	0	0	0	0	0	0	0	0	0	0	0	0	0	0	0	0	0	0	0	0	0	0	0	0	0	0
021319	09:06:14	09:15:14	539101	5.0.10.0	4_exp_AWA_CON_EVA_AMP	119	Rpleas_acq	Oppo	Rpleas	Amasked	CS_A	2pleas	distractor1	CONbeforeEVA	acq_US_unple_masked	acq45_masked	4	22	400	1	300	300	0	0	424	46	0	1	0	0	0	1	blank2r.bmp	0	1	+	0	2	B2r.bmp	492	1	blank2r.bmp	786	1	CPLW	786	1	blank2r.bmp	866	2	sterben	866	1	!	1239	1	!	1319	0	0	0	0	0	0	0	0	0	0	0	0	0	0	0	0	0	0	0	0	0	0	0	0	0	0	0
021319	09:06:14	09:15:17	541353	5.0.10.0	4_exp_AWA_CON_EVA_AMP	119	Rpleas_acq	Oppo	Rpleas	Amasked	CS_A	2pleas	distractor1	CONbeforeEVA	acq_US_pleas_masked	acq45_masked	4	23	400	1	300	300	0	0	463	46	0	0	0	0	0	1	blank2r.bmp	0	1	+	0	7	C3r.bmp	492	1	blank2r.bmp	786	1	DHJF	786	1	blank2r.bmp	866	2	sonnig	866	1	!	1239	1	!	1359	0	0	0	0	0	0	0	0	0	0	0	0	0	0	0	0	0	0	0	0	0	0	0	0	0	0	0
021319	09:06:14	09:15:19	543526	5.0.10.0	4_exp_AWA_CON_EVA_AMP	119	Rpleas_acq	Oppo	Rpleas	Amasked	CS_A	2pleas	distractor1	CONbeforeEVA	acq_US_unple_masked	acq45_masked	4	24	400	1	300	300	0	0	362	46	0	1	0	0	0	1	blank2r.bmp	0	1	+	0	1	B1r.bmp	492	1	blank2r.bmp	786	1	CPLW	786	1	blank2r.bmp	866	1	gemein	866	1	!	1239	1	!	1266	0	0	0	0	0	0	0	0	0	0	0	0	0	0	0	0	0	0	0	0	0	0	0	0	0	0	0
021319	09:06:14	09:15:21	545592	5.0.10.0	4_exp_AWA_CON_EVA_AMP	119	Rpleas_acq	Oppo	Rpleas	Amasked	CS_A	2pleas	distractor1	CONbeforeEVA	acq_US_pleas_masked	acq45_masked	4	25	400	0	300	300	0	0	295	50	0	1	0	0	0	1	blank2r.bmp	0	1	+	0	5	C1r.bmp	492	1	blank2r.bmp	786	1	DHJF	786	1	blank2r.bmp	866	3	gesittet	866	1	!	-1	1	!	-1	0	0	0	0	0	0	0	0	0	0	0	0	0	0	0	0	0	0	0	0	0	0	0	0	0	0	0
021319	09:06:14	09:15:23	547817	5.0.10.0	4_exp_AWA_CON_EVA_AMP	119	Rpleas_acq	Oppo	Rpleas	Amasked	CS_A	2pleas	distractor1	CONbeforeEVA	acq_US_pleas_masked	acq45_masked	4	26	400	1	300	300	0	0	422	50	0	1	0	0	0	1	blank2r.bmp	0	1	+	0	3	B3r.bmp	492	1	blank2r.bmp	786	1	DHJF	786	1	blank2r.bmp	866	6	engagiert	866	1	!	1239	1	!	1319	0	0	0	0	0	0	0	0	0	0	0	0	0	0	0	0	0	0	0	0	0	0	0	0	0	0	0
021319	09:06:14	09:15:25	550030	5.0.10.0	4_exp_AWA_CON_EVA_AMP	119	Rpleas_acq	Oppo	Rpleas	Amasked	CS_A	2pleas	distractor1	CONbeforeEVA	acq_US_unple_masked	acq45_masked	4	27	400	1	300	300	0	0	415	46	0	1	0	0	0	1	blank2r.bmp	0	1	+	0	8	C4r.bmp	492	1	blank2r.bmp	786	1	CPLW	786	1	blank2r.bmp	866	3	geizig	866	1	!	1239	1	!	1319	0	0	0	0	0	0	0	0	0	0	0	0	0	0	0	0	0	0	0	0	0	0	0	0	0	0	0
021319	09:06:14	09:15:28	552282	5.0.10.0	4_exp_AWA_CON_EVA_AMP	119	Rpleas_acq	Oppo	Rpleas	Amasked	CS_A	2pleas	distractor1	CONbeforeEVA	acq_US_pleas_masked	acq45_masked	4	28	400	0	300	300	0	0	479	50	0	1	0	0	0	1	blank2r.bmp	0	1	+	0	4	B4r.bmp	492	1	blank2r.bmp	786	1	DHJF	786	1	blank2r.bmp	866	5	anregung	866	1	!	1239	1	!	-1	0	0	0	0	0	0	0	0	0	0	0	0	0	0	0	0	0	0	0	0	0	0	0	0	0	0	0
021319	09:06:14	09:15:30	554508	5.0.10.0	4_exp_AWA_CON_EVA_AMP	119	Rpleas_acq	Oppo	Rpleas	Amasked	CS_A	2pleas	distractor1	CONbeforeEVA	acq_US_pleas_masked	acq45_masked	4	29	400	1	300	300	0	0	417	46	0	0	0	0	0	1	blank2r.bmp	0	1	+	0	6	C2r.bmp	492	1	blank2r.bmp	786	1	DHJF	786	1	blank2r.bmp	866	3	gesittet	866	1	!	1239	1	!	1319	0	0	0	0	0	0	0	0	0	0	0	0	0	0	0	0	0	0	0	0	0	0	0	0	0	0	0
021319	09:06:14	09:15:32	556747	5.0.10.0	4_exp_AWA_CON_EVA_AMP	119	Rpleas_acq	Oppo	Rpleas	Amasked	CS_A	2pleas	distractor1	CONbeforeEVA	acq_US_unple_masked	acq45_masked	4	30	400	1	300	300	0	0	441	50	0	0	0	0	0	1	blank2r.bmp	0	1	+	0	7	C3r.bmp	492	1	blank2r.bmp	786	1	CPLW	786	1	blank2r.bmp	866	6	engstirnig	866	1	!	1239	1	!	1346	0	0	0	0	0	0	0	0	0	0	0	0	0	0	0	0	0	0	0	0	0	0	0	0	0	0	0
021319	09:06:14	09:15:34	558973	5.0.10.0	4_exp_AWA_CON_EVA_AMP	119	Rpleas_acq	Oppo	Rpleas	Amasked	CS_A	2pleas	distractor1	CONbeforeEVA	acq_US_unple_masked	acq45_masked	4	31	400	1	300	300	0	0	438	46	0	1	0	0	0	1	blank2r.bmp	0	1	+	0	3	B3r.bmp	492	1	blank2r.bmp	786	1	CPLW	786	1	blank2r.bmp	866	2	sterben	866	1	!	1239	1	!	1332	0	0	0	0	0	0	0	0	0	0	0	0	0	0	0	0	0	0	0	0	0	0	0	0	0	0	0
021319	09:06:14	09:15:37	561225	5.0.10.0	4_exp_AWA_CON_EVA_AMP	119	Rpleas_acq	Oppo	Rpleas	Amasked	CS_A	2pleas	distractor1	CONbeforeEVA	acq_US_pleas_masked	acq45_masked	4	32	400	1	300	300	0	0	459	50	0	1	0	0	0	1	blank2r.bmp	0	1	+	0	2	B2r.bmp	492	1	blank2r.bmp	786	1	DHJF	786	1	blank2r.bmp	866	2	sonnig	866	1	!	1239	1	!	1359	0	0	0	0	0	0	0	0	0	0	0	0	0	0	0	0	0	0	0	0	0	0	0	0	0	0	0
021319	09:06:14	09:15:39	563478	5.0.10.0	4_exp_AWA_CON_EVA_AMP	119	Rpleas_acq	Oppo	Rpleas	Amasked	CS_A	2pleas	distractor1	CONbeforeEVA	acq_US_unple_masked	acq45_masked	4	33	400	0	300	300	0	0	488	46	0	1	0	0	0	1	blank2r.bmp	0	1	+	0	8	C4r.bmp	492	1	blank2r.bmp	786	1	CPLW	786	1	blank2r.bmp	866	5	ausrottung	866	1	!	1239	1	!	-1	0	0	0	0	0	0	0	0	0	0	0	0	0	0	0	0	0	0	0	0	0	0	0	0	0	0	0
021319	09:06:14	09:15:41	565690	5.0.10.0	4_exp_AWA_CON_EVA_AMP	119	Rpleas_acq	Oppo	Rpleas	Amasked	CS_A	2pleas	distractor1	CONbeforeEVA	acq_US_pleas_masked	acq45_masked	4	34	400	1	300	300	0	0	392	50	0	1	0	0	0	1	blank2r.bmp	0	1	+	0	4	B4r.bmp	492	1	blank2r.bmp	786	1	DHJF	786	1	blank2r.bmp	866	1	genießen	866	1	!	1239	1	!	1292	0	0	0	0	0	0	0	0	0	0	0	0	0	0	0	0	0	0	0	0	0	0	0	0	0	0	0
021319	09:06:14	09:15:43	567849	5.0.10.0	4_exp_AWA_CON_EVA_AMP	119	Rpleas_acq	Oppo	Rpleas	Amasked	CS_A	2pleas	distractor1	CONbeforeEVA	acq_US_pleas_masked	acq45_masked	4	35	400	1	300	300	0	0	355	50	0	1	0	0	0	1	blank2r.bmp	0	1	+	0	5	C1r.bmp	492	1	blank2r.bmp	786	1	DHJF	786	1	blank2r.bmp	866	4	gütig	866	1	!	1239	1	!	1252	0	0	0	0	0	0	0	0	0	0	0	0	0	0	0	0	0	0	0	0	0	0	0	0	0	0	0
021319	09:06:14	09:15:45	570088	5.0.10.0	4_exp_AWA_CON_EVA_AMP	119	Rpleas_acq	Oppo	Rpleas	Amasked	CS_A	2pleas	distractor1	CONbeforeEVA	acq_US_unple_masked	acq45_masked	4	36	400	1	300	300	0	0	443	46	0	1	0	0	0	1	blank2r.bmp	0	1	+	0	1	B1r.bmp	492	1	blank2r.bmp	786	1	CPLW	786	1	blank2r.bmp	866	4	gierig	866	1	!	1239	1	!	1346	0	0	0	0	0	0	0	0	0	0	0	0	0	0	0	0	0	0	0	0	0	0	0	0	0	0	0
021319	09:06:14	09:15:57	581363	5.0.10.0	4_exp_AWA_CON_EVA_AMP	119	Rpleas_acq	Oppo	Rpleas	Amasked	CS_A	2pleas	distractor1	CONbeforeEVA	acq_US_unple_masked	acq45_masked	5	1	400	1	300	300	0	0	452	46	0	1	0	0	0	1	blank2r.bmp	0	1	+	0	5	C1r.bmp	492	1	blank2r.bmp	786	1	CPLW	786	1	blank2r.bmp	866	1	gemein	866	1	!	1239	1	!	1359	0	0	0	0	0	0	0	0	0	0	0	0	0	0	0	0	0	0	0	0	0	0	0	0	0	0	0
021319	09:06:14	09:15:59	583576	5.0.10.0	4_exp_AWA_CON_EVA_AMP	119	Rpleas_acq	Oppo	Rpleas	Amasked	CS_A	2pleas	distractor1	CONbeforeEVA	acq_US_pleas_masked	acq45_masked	5	2	400	1	300	300	0	0	415	50	0	1	0	0	0	1	blank2r.bmp	0	1	+	0	3	B3r.bmp	492	1	blank2r.bmp	786	1	DHJF	786	1	blank2r.bmp	866	4	gütig	866	1	!	1239	1	!	1319	0	0	0	0	0	0	0	0	0	0	0	0	0	0	0	0	0	0	0	0	0	0	0	0	0	0	0
021319	09:06:14	09:16:01	585855	5.0.10.0	4_exp_AWA_CON_EVA_AMP	119	Rpleas_acq	Oppo	Rpleas	Amasked	CS_A	2pleas	distractor1	CONbeforeEVA	acq_US_unple_masked	acq45_masked	5	3	400	0	300	300	0	0	517	46	0	1	0	0	0	1	blank2r.bmp	0	1	+	0	4	B4r.bmp	492	1	blank2r.bmp	786	1	CPLW	786	1	blank2r.bmp	866	4	gierig	866	1	!	1239	1	!	-1	0	0	0	0	0	0	0	0	0	0	0	0	0	0	0	0	0	0	0	0	0	0	0	0	0	0	0
021319	09:06:14	09:16:03	588121	5.0.10.0	4_exp_AWA_CON_EVA_AMP	119	Rpleas_acq	Oppo	Rpleas	Amasked	CS_A	2pleas	distractor1	CONbeforeEVA	acq_US_unple_masked	acq45_masked	5	4	400	0	300	300	0	0	479	46	0	1	0	0	0	1	blank2r.bmp	0	1	+	0	8	C4r.bmp	492	1	blank2r.bmp	786	1	CPLW	786	1	blank2r.bmp	866	5	ausrottung	866	1	!	1239	1	!	-1	0	0	0	0	0	0	0	0	0	0	0	0	0	0	0	0	0	0	0	0	0	0	0	0	0	0	0
021319	09:06:14	09:16:06	590306	5.0.10.0	4_exp_AWA_CON_EVA_AMP	119	Rpleas_acq	Oppo	Rpleas	Amasked	CS_A	2pleas	distractor1	CONbeforeEVA	acq_US_unple_masked	acq45_masked	5	5	400	1	300	300	0	0	373	46	0	1	0	0	0	1	blank2r.bmp	0	1	+	0	1	B1r.bmp	492	1	blank2r.bmp	786	1	CPLW	786	1	blank2r.bmp	866	2	sterben	866	1	!	1239	1	!	1279	0	0	0	0	0	0	0	0	0	0	0	0	0	0	0	0	0	0	0	0	0	0	0	0	0	0	0
021319	09:06:14	09:16:08	592479	5.0.10.0	4_exp_AWA_CON_EVA_AMP	119	Rpleas_acq	Oppo	Rpleas	Amasked	CS_A	2pleas	distractor1	CONbeforeEVA	acq_US_pleas_masked	acq45_masked	5	6	400	1	300	300	0	0	364	50	0	1	0	0	0	1	blank2r.bmp	0	1	+	0	6	C2r.bmp	492	1	blank2r.bmp	786	1	DHJF	786	1	blank2r.bmp	866	3	gesittet	866	1	!	1239	1	!	1266	0	0	0	0	0	0	0	0	0	0	0	0	0	0	0	0	0	0	0	0	0	0	0	0	0	0	0
021319	09:06:14	09:16:10	594731	5.0.10.0	4_exp_AWA_CON_EVA_AMP	119	Rpleas_acq	Oppo	Rpleas	Amasked	CS_A	2pleas	distractor1	CONbeforeEVA	acq_US_pleas_masked	acq45_masked	5	7	400	0	300	300	0	0	479	50	0	1	0	0	0	1	blank2r.bmp	0	1	+	0	2	B2r.bmp	492	1	blank2r.bmp	786	1	DHJF	786	1	blank2r.bmp	866	6	engagiert	866	1	!	1239	1	!	-1	0	0	0	0	0	0	0	0	0	0	0	0	0	0	0	0	0	0	0	0	0	0	0	0	0	0	0
021319	09:06:14	09:16:12	596997	5.0.10.0	4_exp_AWA_CON_EVA_AMP	119	Rpleas_acq	Oppo	Rpleas	Amasked	CS_A	2pleas	distractor1	CONbeforeEVA	acq_US_pleas_masked	acq45_masked	5	8	400	0	300	300	0	0	479	46	0	0	0	0	0	1	blank2r.bmp	0	1	+	0	7	C3r.bmp	492	1	blank2r.bmp	786	1	DHJF	786	1	blank2r.bmp	866	5	anregung	866	1	!	1239	1	!	-1	0	0	0	0	0	0	0	0	0	0	0	0	0	0	0	0	0	0	0	0	0	0	0	0	0	0	0
021319	09:06:14	09:16:15	599263	5.0.10.0	4_exp_AWA_CON_EVA_AMP	119	Rpleas_acq	Oppo	Rpleas	Amasked	CS_A	2pleas	distractor1	CONbeforeEVA	acq_US_pleas_masked	acq45_masked	5	9	400	1	300	300	0	0	463	50	0	1	0	0	0	1	blank2r.bmp	0	1	+	0	7	C3r.bmp	492	1	blank2r.bmp	786	1	DHJF	786	1	blank2r.bmp	866	2	sonnig	866	1	!	1239	1	!	1359	0	0	0	0	0	0	0	0	0	0	0	0	0	0	0	0	0	0	0	0	0	0	0	0	0	0	0
021319	09:06:14	09:16:17	601449	5.0.10.0	4_exp_AWA_CON_EVA_AMP	119	Rpleas_acq	Oppo	Rpleas	Amasked	CS_A	2pleas	distractor1	CONbeforeEVA	acq_US_unple_masked	acq45_masked	5	10	400	1	300	300	0	0	388	46	0	1	0	0	0	1	blank2r.bmp	0	1	+	0	4	B4r.bmp	492	1	blank2r.bmp	786	1	CPLW	786	1	blank2r.bmp	866	3	geizig	866	1	!	1239	1	!	1292	0	0	0	0	0	0	0	0	0	0	0	0	0	0	0	0	0	0	0	0	0	0	0	0	0	0	0
021319	09:06:14	09:16:19	603648	5.0.10.0	4_exp_AWA_CON_EVA_AMP	119	Rpleas_acq	Oppo	Rpleas	Amasked	CS_A	2pleas	distractor1	CONbeforeEVA	acq_US_unple_masked	acq45_masked	5	11	400	1	300	300	0	0	409	50	0	0	0	0	0	1	blank2r.bmp	0	1	+	0	1	B1r.bmp	492	1	blank2r.bmp	786	1	CPLW	786	1	blank2r.bmp	866	6	engstirnig	866	1	!	1239	1	!	1306	0	0	0	0	0	0	0	0	0	0	0	0	0	0	0	0	0	0	0	0	0	0	0	0	0	0	0
021319	09:06:14	09:16:21	605713	5.0.10.0	4_exp_AWA_CON_EVA_AMP	119	Rpleas_acq	Oppo	Rpleas	Amasked	CS_A	2pleas	distractor1	CONbeforeEVA	acq_US_pleas_masked	acq45_masked	5	12	400	0	300	300	0	0	302	50	0	1	0	0	0	1	blank2r.bmp	0	1	+	0	8	C4r.bmp	492	1	blank2r.bmp	786	1	DHJF	786	1	blank2r.bmp	866	1	genießen	866	1	!	-1	1	!	-1	0	0	0	0	0	0	0	0	0	0	0	0	0	0	0	0	0	0	0	0	0	0	0	0	0	0	0
021319	09:06:14	09:16:23	607952	5.0.10.0	4_exp_AWA_CON_EVA_AMP	119	Rpleas_acq	Oppo	Rpleas	Amasked	CS_A	2pleas	distractor1	CONbeforeEVA	acq_US_unple_masked	acq45_masked	5	13	400	1	300	300	0	0	429	46	0	1	0	0	0	1	blank2r.bmp	0	1	+	0	2	B2r.bmp	492	1	blank2r.bmp	786	1	CPLW	786	1	blank2r.bmp	866	6	engstirnig	866	1	!	1239	1	!	1332	0	0	0	0	0	0	0	0	0	0	0	0	0	0	0	0	0	0	0	0	0	0	0	0	0	0	0
021319	09:06:14	09:16:26	610205	5.0.10.0	4_exp_AWA_CON_EVA_AMP	119	Rpleas_acq	Oppo	Rpleas	Amasked	CS_A	2pleas	distractor1	CONbeforeEVA	acq_US_pleas_masked	acq45_masked	5	14	400	1	300	300	0	0	461	50	0	1	0	0	0	1	blank2r.bmp	0	1	+	0	6	C2r.bmp	492	1	blank2r.bmp	786	1	DHJF	786	1	blank2r.bmp	866	6	engagiert	866	1	!	1239	1	!	1359	0	0	0	0	0	0	0	0	0	0	0	0	0	0	0	0	0	0	0	0	0	0	0	0	0	0	0
021319	09:06:14	09:16:28	612404	5.0.10.0	4_exp_AWA_CON_EVA_AMP	119	Rpleas_acq	Oppo	Rpleas	Amasked	CS_A	2pleas	distractor1	CONbeforeEVA	acq_US_unple_masked	acq45_masked	5	15	400	1	300	300	0	0	404	46	0	1	0	0	0	1	blank2r.bmp	0	1	+	0	5	C1r.bmp	492	1	blank2r.bmp	786	1	CPLW	786	1	blank2r.bmp	866	1	gemein	866	1	!	1239	1	!	1306	0	0	0	0	0	0	0	0	0	0	0	0	0	0	0	0	0	0	0	0	0	0	0	0	0	0	0
021319	09:06:14	09:16:30	614643	5.0.10.0	4_exp_AWA_CON_EVA_AMP	119	Rpleas_acq	Oppo	Rpleas	Amasked	CS_A	2pleas	distractor1	CONbeforeEVA	acq_US_unple_masked	acq45_masked	5	16	400	1	300	300	0	0	448	46	0	1	0	0	0	1	blank2r.bmp	0	1	+	0	3	B3r.bmp	492	1	blank2r.bmp	786	1	CPLW	786	1	blank2r.bmp	866	2	sterben	866	1	!	1239	1	!	1346	0	0	0	0	0	0	0	0	0	0	0	0	0	0	0	0	0	0	0	0	0	0	0	0	0	0	0
021319	09:06:14	09:16:32	616936	5.0.10.0	4_exp_AWA_CON_EVA_AMP	119	Rpleas_acq	Oppo	Rpleas	Amasked	CS_A	2pleas	distractor1	CONbeforeEVA	acq_US_pleas_masked	acq45_masked	5	17	400	0	300	300	0	0	506	50	0	1	0	0	0	1	blank2r.bmp	0	1	+	0	8	C4r.bmp	492	1	blank2r.bmp	786	1	DHJF	786	1	blank2r.bmp	866	1	genießen	866	1	!	1239	1	!	-1	0	0	0	0	0	0	0	0	0	0	0	0	0	0	0	0	0	0	0	0	0	0	0	0	0	0	0
021319	09:06:14	09:16:35	619228	5.0.10.0	4_exp_AWA_CON_EVA_AMP	119	Rpleas_acq	Oppo	Rpleas	Amasked	CS_A	2pleas	distractor1	CONbeforeEVA	acq_US_pleas_masked	acq45_masked	5	18	400	0	300	300	0	0	509	50	0	1	0	0	0	1	blank2r.bmp	0	1	+	0	3	B3r.bmp	492	1	blank2r.bmp	786	1	DHJF	786	1	blank2r.bmp	866	4	gütig	866	1	!	1239	1	!	-1	0	0	0	0	0	0	0	0	0	0	0	0	0	0	0	0	0	0	0	0	0	0	0	0	0	0	0
021319	09:06:14	09:16:37	621414	5.0.10.0	4_exp_AWA_CON_EVA_AMP	119	Rpleas_acq	Oppo	Rpleas	Amasked	CS_A	2pleas	distractor1	CONbeforeEVA	acq_US_pleas_masked	acq45_masked	5	19	400	1	300	300	0	0	378	46	0	0	0	0	0	1	blank2r.bmp	0	1	+	0	7	C3r.bmp	492	1	blank2r.bmp	786	1	DHJF	786	1	blank2r.bmp	866	2	sonnig	866	1	!	1239	1	!	1279	0	0	0	0	0	0	0	0	0	0	0	0	0	0	0	0	0	0	0	0	0	0	0	0	0	0	0
021319	09:06:14	09:16:39	623626	5.0.10.0	4_exp_AWA_CON_EVA_AMP	119	Rpleas_acq	Oppo	Rpleas	Amasked	CS_A	2pleas	distractor1	CONbeforeEVA	acq_US_pleas_masked	acq45_masked	5	20	400	1	300	300	0	0	407	46	0	0	0	0	0	1	blank2r.bmp	0	1	+	0	4	B4r.bmp	492	1	blank2r.bmp	786	1	DHJF	786	1	blank2r.bmp	866	3	gesittet	866	1	!	1239	1	!	1306	0	0	0	0	0	0	0	0	0	0	0	0	0	0	0	0	0	0	0	0	0	0	0	0	0	0	0
021319	09:06:14	09:16:41	625692	5.0.10.0	4_exp_AWA_CON_EVA_AMP	119	Rpleas_acq	Oppo	Rpleas	Amasked	CS_A	2pleas	distractor1	CONbeforeEVA	acq_US_unple_masked	acq45_masked	5	21	400	0	300	300	0	0	283	50	0	0	0	0	0	1	blank2r.bmp	0	1	+	0	5	C1r.bmp	492	1	blank2r.bmp	786	1	CPLW	786	1	blank2r.bmp	866	4	gierig	866	1	!	-1	1	!	-1	0	0	0	0	0	0	0	0	0	0	0	0	0	0	0	0	0	0	0	0	0	0	0	0	0	0	0
021319	09:06:14	09:16:44	628491	5.0.10.0	4_exp_AWA_CON_EVA_AMP	119	Rpleas_acq	Oppo	Rpleas	Amasked	CS_A	2pleas	distractor1	CONbeforeEVA	acq_US_unple_masked	acq45_masked	5	22	400	0	300	300	0	0	1023	46	0	1	0	0	0	1	blank2r.bmp	0	1	+	0	1	B1r.bmp	492	1	blank2r.bmp	786	1	CPLW	786	1	blank2r.bmp	866	5	ausrottung	866	1	!	1239	1	!	-1	0	0	0	0	0	0	0	0	0	0	0	0	0	0	0	0	0	0	0	0	0	0	0	0	0	0	0
021319	09:06:14	09:16:46	630730	5.0.10.0	4_exp_AWA_CON_EVA_AMP	119	Rpleas_acq	Oppo	Rpleas	Amasked	CS_A	2pleas	distractor1	CONbeforeEVA	acq_US_pleas_masked	acq45_masked	5	23	400	1	300	300	0	0	432	50	0	1	0	0	0	1	blank2r.bmp	0	1	+	0	2	B2r.bmp	492	1	blank2r.bmp	786	1	DHJF	786	1	blank2r.bmp	866	5	anregung	866	1	!	1239	1	!	1332	0	0	0	0	0	0	0	0	0	0	0	0	0	0	0	0	0	0	0	0	0	0	0	0	0	0	0
021319	09:06:14	09:16:48	633022	5.0.10.0	4_exp_AWA_CON_EVA_AMP	119	Rpleas_acq	Oppo	Rpleas	Amasked	CS_A	2pleas	distractor1	CONbeforeEVA	acq_US_pleas_masked	acq45_masked	5	24	400	0	300	300	0	0	531	50	0	1	0	0	0	1	blank2r.bmp	0	1	+	0	6	C2r.bmp	492	1	blank2r.bmp	786	1	DHJF	786	1	blank2r.bmp	866	3	gesittet	866	1	!	1239	1	!	-1	0	0	0	0	0	0	0	0	0	0	0	0	0	0	0	0	0	0	0	0	0	0	0	0	0	0	0
021319	09:06:14	09:16:50	635128	5.0.10.0	4_exp_AWA_CON_EVA_AMP	119	Rpleas_acq	Oppo	Rpleas	Amasked	CS_A	2pleas	distractor1	CONbeforeEVA	acq_US_pleas_masked	acq45_masked	5	25	400	0	300	300	0	0	313	50	0	1	0	0	0	1	blank2r.bmp	0	1	+	0	2	B2r.bmp	492	1	blank2r.bmp	786	1	DHJF	786	1	blank2r.bmp	866	1	genießen	866	1	!	-1	1	!	-1	0	0	0	0	0	0	0	0	0	0	0	0	0	0	0	0	0	0	0	0	0	0	0	0	0	0	0
021319	09:06:14	09:16:53	637300	5.0.10.0	4_exp_AWA_CON_EVA_AMP	119	Rpleas_acq	Oppo	Rpleas	Amasked	CS_A	2pleas	distractor1	CONbeforeEVA	acq_US_pleas_masked	acq45_masked	5	26	400	1	300	300	0	0	346	50	0	1	0	0	0	1	blank2r.bmp	0	1	+	0	6	C2r.bmp	492	1	blank2r.bmp	786	1	DHJF	786	1	blank2r.bmp	866	5	anregung	866	1	!	1239	1	!	1252	0	0	0	0	0	0	0	0	0	0	0	0	0	0	0	0	0	0	0	0	0	0	0	0	0	0	0
021319	09:06:14	09:16:55	639633	5.0.10.0	4_exp_AWA_CON_EVA_AMP	119	Rpleas_acq	Oppo	Rpleas	Amasked	CS_A	2pleas	distractor1	CONbeforeEVA	acq_US_unple_masked	acq45_masked	5	27	400	0	300	300	0	0	570	46	0	1	0	0	0	1	blank2r.bmp	0	1	+	0	5	C1r.bmp	492	1	blank2r.bmp	786	1	CPLW	786	1	blank2r.bmp	866	3	geizig	866	1	!	1239	1	!	-1	0	0	0	0	0	0	0	0	0	0	0	0	0	0	0	0	0	0	0	0	0	0	0	0	0	0	0
021319	09:06:14	09:16:57	641805	5.0.10.0	4_exp_AWA_CON_EVA_AMP	119	Rpleas_acq	Oppo	Rpleas	Amasked	CS_A	2pleas	distractor1	CONbeforeEVA	acq_US_unple_masked	acq45_masked	5	28	400	1	300	300	0	0	361	50	0	0	0	0	0	1	blank2r.bmp	0	1	+	0	4	B4r.bmp	492	1	blank2r.bmp	786	1	CPLW	786	1	blank2r.bmp	866	2	sterben	866	1	!	1239	1	!	1266	0	0	0	0	0	0	0	0	0	0	0	0	0	0	0	0	0	0	0	0	0	0	0	0	0	0	0
021319	09:06:14	09:16:59	643978	5.0.10.0	4_exp_AWA_CON_EVA_AMP	119	Rpleas_acq	Oppo	Rpleas	Amasked	CS_A	2pleas	distractor1	CONbeforeEVA	acq_US_unple_masked	acq45_masked	5	29	400	1	300	300	0	0	372	46	0	1	0	0	0	1	blank2r.bmp	0	1	+	0	1	B1r.bmp	492	1	blank2r.bmp	786	1	CPLW	786	1	blank2r.bmp	866	5	ausrottung	866	1	!	1239	1	!	1279	0	0	0	0	0	0	0	0	0	0	0	0	0	0	0	0	0	0	0	0	0	0	0	0	0	0	0
021319	09:06:14	09:17:02	646323	5.0.10.0	4_exp_AWA_CON_EVA_AMP	119	Rpleas_acq	Oppo	Rpleas	Amasked	CS_A	2pleas	distractor1	CONbeforeEVA	acq_US_unple_masked	acq45_masked	5	30	400	0	300	300	0	0	581	46	0	1	0	0	0	1	blank2r.bmp	0	1	+	0	8	C4r.bmp	492	1	blank2r.bmp	786	1	CPLW	786	1	blank2r.bmp	866	6	engstirnig	866	1	!	1239	1	!	-1	0	0	0	0	0	0	0	0	0	0	0	0	0	0	0	0	0	0	0	0	0	0	0	0	0	0	0
021319	09:06:14	09:17:04	648562	5.0.10.0	4_exp_AWA_CON_EVA_AMP	119	Rpleas_acq	Oppo	Rpleas	Amasked	CS_A	2pleas	distractor1	CONbeforeEVA	acq_US_unple_masked	acq45_masked	5	31	400	1	300	300	0	0	428	50	0	0	0	0	0	1	blank2r.bmp	0	1	+	0	7	C3r.bmp	492	1	blank2r.bmp	786	1	CPLW	786	1	blank2r.bmp	866	4	gierig	866	1	!	1239	1	!	1332	0	0	0	0	0	0	0	0	0	0	0	0	0	0	0	0	0	0	0	0	0	0	0	0	0	0	0
021319	09:06:14	09:17:06	650708	5.0.10.0	4_exp_AWA_CON_EVA_AMP	119	Rpleas_acq	Oppo	Rpleas	Amasked	CS_A	2pleas	distractor1	CONbeforeEVA	acq_US_pleas_masked	acq45_masked	5	32	400	1	300	300	0	0	346	50	0	1	0	0	0	1	blank2r.bmp	0	1	+	0	3	B3r.bmp	492	1	blank2r.bmp	786	1	DHJF	786	1	blank2r.bmp	866	4	gütig	866	1	!	1239	1	!	1252	0	0	0	0	0	0	0	0	0	0	0	0	0	0	0	0	0	0	0	0	0	0	0	0	0	0	0
021319	09:06:14	09:17:08	652921	5.0.10.0	4_exp_AWA_CON_EVA_AMP	119	Rpleas_acq	Oppo	Rpleas	Amasked	CS_A	2pleas	distractor1	CONbeforeEVA	acq_US_pleas_masked	acq45_masked	5	33	400	1	300	300	0	0	405	46	0	0	0	0	0	1	blank2r.bmp	0	1	+	0	2	B2r.bmp	492	1	blank2r.bmp	786	1	DHJF	786	1	blank2r.bmp	866	6	engagiert	866	1	!	1239	1	!	1306	0	0	0	0	0	0	0	0	0	0	0	0	0	0	0	0	0	0	0	0	0	0	0	0	0	0	0
021319	09:06:14	09:17:11	655826	5.0.10.0	4_exp_AWA_CON_EVA_AMP	119	Rpleas_acq	Oppo	Rpleas	Amasked	CS_A	2pleas	distractor1	CONbeforeEVA	acq_US_pleas_masked	acq45_masked	5	34	400	0	300	300	0	0	1134	50	0	1	0	0	0	1	blank2r.bmp	0	1	+	0	7	C3r.bmp	492	1	blank2r.bmp	786	1	DHJF	786	1	blank2r.bmp	866	2	sonnig	866	1	!	1239	1	!	-1	0	0	0	0	0	0	0	0	0	0	0	0	0	0	0	0	0	0	0	0	0	0	0	0	0	0	0
021319	09:06:14	09:17:13	658092	5.0.10.0	4_exp_AWA_CON_EVA_AMP	119	Rpleas_acq	Oppo	Rpleas	Amasked	CS_A	2pleas	distractor1	CONbeforeEVA	acq_US_unple_masked	acq45_masked	5	35	400	1	300	300	0	0	459	46	0	1	0	0	0	1	blank2r.bmp	0	1	+	0	4	B4r.bmp	492	1	blank2r.bmp	786	1	CPLW	786	1	blank2r.bmp	866	3	geizig	866	1	!	1239	1	!	1359	0	0	0	0	0	0	0	0	0	0	0	0	0	0	0	0	0	0	0	0	0	0	0	0	0	0	0
021319	09:06:14	09:17:16	660411	5.0.10.0	4_exp_AWA_CON_EVA_AMP	119	Rpleas_acq	Oppo	Rpleas	Amasked	CS_A	2pleas	distractor1	CONbeforeEVA	acq_US_unple_masked	acq45_masked	5	36	400	0	300	300	0	0	552	46	0	1	0	0	0	1	blank2r.bmp	0	1	+	0	6	C2r.bmp	492	1	blank2r.bmp	786	1	CPLW	786	1	blank2r.bmp	866	1	gemein	866	1	!	1239	1	!	-1	0	0	0	0	0	0	0	0	0	0	0	0	0	0	0	0	0	0	0	0	0	0	0	0	0	0	0
021319	09:06:14	09:18:50	754545	5.0.10.0	4_exp_AWA_CON_EVA_AMP	119	Rpleas_acq	Oppo	Lpleas	Amasked	CS_A	2pleas	distractor1	CONbeforeEVA	cond_new_pleas_456_masked_CS1	condtest_masked_1	8	1	400	0	300	300	0	0	653	46	0	1	0	0	0	1	blank2r.bmp	0	1	+	0	3	B3r.bmp	492	1	blank2r.bmp	786	1	CPLW	786	1	blank2r.bmp	866	3	besonnen	866	1	!	1239	1	!	-1	0	0	0	0	0	0	0	0	0	0	0	0	0	0	0	0	0	0	0	0	0	0	0	0	0	0	0
021319	09:06:14	09:18:52	756731	5.0.10.0	4_exp_AWA_CON_EVA_AMP	119	Rpleas_acq	Oppo	Lpleas	Amasked	CS_A	2pleas	distractor1	CONbeforeEVA	cond_US_unple_123_masked_CS1	condtest_masked_1	8	2	400	1	300	300	0	0	364	50	0	1	0	0	0	1	blank2r.bmp	0	1	+	0	5	C1r.bmp	492	1	blank2r.bmp	786	1	CPLW	786	1	blank2r.bmp	866	3	geizig	866	1	!	1239	1	!	1266	0	0	0	0	0	0	0	0	0	0	0	0	0	0	0	0	0	0	0	0	0	0	0	0	0	0	0
021319	09:06:14	09:18:54	758957	5.0.10.0	4_exp_AWA_CON_EVA_AMP	119	Rpleas_acq	Oppo	Lpleas	Amasked	CS_A	2pleas	distractor1	CONbeforeEVA	cond_US_pleas_123_masked_CS2	condtest_masked_1	8	3	400	1	300	300	0	0	437	46	0	1	0	0	0	1	blank2r.bmp	0	1	+	0	8	C4r.bmp	492	1	blank2r.bmp	786	1	DHJF	786	1	blank2r.bmp	866	3	gesittet	866	1	!	1239	1	!	1332	0	0	0	0	0	0	0	0	0	0	0	0	0	0	0	0	0	0	0	0	0	0	0	0	0	0	0
021319	09:06:14	09:18:57	761276	5.0.10.0	4_exp_AWA_CON_EVA_AMP	119	Rpleas_acq	Oppo	Lpleas	Amasked	CS_A	2pleas	distractor1	CONbeforeEVA	cond_US_pleas_123_masked_CS1	condtest_masked_1	8	4	400	0	300	300	0	0	541	46	0	1	0	0	0	1	blank2r.bmp	0	1	+	0	1	B1r.bmp	492	1	blank2r.bmp	786	1	CPLW	786	1	blank2r.bmp	866	1	genießen	866	1	!	1239	1	!	-1	0	0	0	0	0	0	0	0	0	0	0	0	0	0	0	0	0	0	0	0	0	0	0	0	0	0	0
021319	09:06:14	09:18:59	763502	5.0.10.0	4_exp_AWA_CON_EVA_AMP	119	Rpleas_acq	Oppo	Lpleas	Amasked	CS_A	2pleas	distractor1	CONbeforeEVA	cond_new_unple_456_masked_CS1	condtest_masked_1	8	5	400	1	300	300	0	0	416	46	0	0	0	0	0	1	blank2r.bmp	0	1	+	0	5	C1r.bmp	492	1	blank2r.bmp	786	1	CPLW	786	1	blank2r.bmp	866	1	versagen	866	1	!	1239	1	!	1319	0	0	0	0	0	0	0	0	0	0	0	0	0	0	0	0	0	0	0	0	0	0	0	0	0	0	0
021319	09:06:14	09:19:01	765847	5.0.10.0	4_exp_AWA_CON_EVA_AMP	119	Rpleas_acq	Oppo	Lpleas	Amasked	CS_A	2pleas	distractor1	CONbeforeEVA	cond_new_pleas_456_masked_CS2	condtest_masked_1	8	6	400	0	300	300	0	0	584	46	0	1	0	0	0	1	blank2r.bmp	0	1	+	0	7	C3r.bmp	492	1	blank2r.bmp	786	1	DHJF	786	1	blank2r.bmp	866	1	vertrauen	866	1	!	1239	1	!	-1	0	0	0	0	0	0	0	0	0	0	0	0	0	0	0	0	0	0	0	0	0	0	0	0	0	0	0
021319	09:06:14	09:19:03	768140	5.0.10.0	4_exp_AWA_CON_EVA_AMP	119	Rpleas_acq	Oppo	Lpleas	Amasked	CS_A	2pleas	distractor1	CONbeforeEVA	cond_new_unple_456_masked_CS2	condtest_masked_1	8	7	400	0	300	300	0	0	506	50	0	1	0	0	0	1	blank2r.bmp	0	1	+	0	4	B4r.bmp	492	1	blank2r.bmp	786	1	DHJF	786	1	blank2r.bmp	866	3	bange	866	1	!	1239	1	!	-1	0	0	0	0	0	0	0	0	0	0	0	0	0	0	0	0	0	0	0	0	0	0	0	0	0	0	0
021319	09:06:14	09:19:06	770565	5.0.10.0	4_exp_AWA_CON_EVA_AMP	119	Rpleas_acq	Oppo	Lpleas	Amasked	CS_A	2pleas	distractor1	CONbeforeEVA	cond_US_unple_123_masked_CS2	condtest_masked_1	8	8	400	0	300	300	0	0	645	46	0	0	0	0	0	1	blank2r.bmp	0	1	+	0	3	B3r.bmp	492	1	blank2r.bmp	786	1	DHJF	786	1	blank2r.bmp	866	1	gemein	866	1	!	1239	1	!	-1	0	0	0	0	0	0	0	0	0	0	0	0	0	0	0	0	0	0	0	0	0	0	0	0	0	0	0
021319	09:06:14	09:19:16	780948	5.0.10.0	4_exp_AWA_CON_EVA_AMP	119	Rpleas_acq	Oppo	Lpleas	Amasked	CS_A	2pleas	distractor1	CONbeforeEVA	cond_US_unple_123_masked_CS2	condtest_masked_2	9	1	400	0	300	300	0	0	483	46	0	0	0	0	0	1	blank2r.bmp	0	1	+	0	1	B1r.bmp	492	1	blank2r.bmp	786	1	DHJF	786	1	blank2r.bmp	866	2	sterben	866	1	!	1239	1	!	-1	0	0	0	0	0	0	0	0	0	0	0	0	0	0	0	0	0	0	0	0	0	0	0	0	0	0	0
021319	09:06:14	09:19:19	783214	5.0.10.0	4_exp_AWA_CON_EVA_AMP	119	Rpleas_acq	Oppo	Lpleas	Amasked	CS_A	2pleas	distractor1	CONbeforeEVA	cond_US_pleas_123_masked_CS1	condtest_masked_2	9	2	400	0	300	300	0	0	488	50	0	0	0	0	0	1	blank2r.bmp	0	1	+	0	8	C4r.bmp	492	1	blank2r.bmp	786	1	CPLW	786	1	blank2r.bmp	866	2	sonnig	866	1	!	1239	1	!	-1	0	0	0	0	0	0	0	0	0	0	0	0	0	0	0	0	0	0	0	0	0	0	0	0	0	0	0
021319	09:06:14	09:19:21	785613	5.0.10.0	4_exp_AWA_CON_EVA_AMP	119	Rpleas_acq	Oppo	Lpleas	Amasked	CS_A	2pleas	distractor1	CONbeforeEVA	cond_new_pleas_456_masked_CS1	condtest_masked_2	9	3	400	0	300	300	0	0	621	46	0	1	0	0	0	1	blank2r.bmp	0	1	+	0	6	C2r.bmp	492	1	blank2r.bmp	786	1	CPLW	786	1	blank2r.bmp	866	2	träumen	866	1	!	1239	1	!	-1	0	0	0	0	0	0	0	0	0	0	0	0	0	0	0	0	0	0	0	0	0	0	0	0	0	0	0
021319	09:06:14	09:19:23	787838	5.0.10.0	4_exp_AWA_CON_EVA_AMP	119	Rpleas_acq	Oppo	Lpleas	Amasked	CS_A	2pleas	distractor1	CONbeforeEVA	cond_US_pleas_123_masked_CS2	condtest_masked_2	9	4	400	1	300	300	0	0	423	46	0	1	0	0	0	1	blank2r.bmp	0	1	+	0	2	B2r.bmp	492	1	blank2r.bmp	786	1	DHJF	786	1	blank2r.bmp	866	2	sonnig	866	1	!	1239	1	!	1319	0	0	0	0	0	0	0	0	0	0	0	0	0	0	0	0	0	0	0	0	0	0	0	0	0	0	0
021319	09:06:14	09:19:25	790051	5.0.10.0	4_exp_AWA_CON_EVA_AMP	119	Rpleas_acq	Oppo	Lpleas	Amasked	CS_A	2pleas	distractor1	CONbeforeEVA	cond_US_unple_123_masked_CS2	condtest_masked_2	9	5	400	1	300	300	0	0	420	50	0	1	0	0	0	1	blank2r.bmp	0	1	+	0	7	C3r.bmp	492	1	blank2r.bmp	786	1	DHJF	786	1	blank2r.bmp	866	2	sterben	866	1	!	1239	1	!	1319	0	0	0	0	0	0	0	0	0	0	0	0	0	0	0	0	0	0	0	0	0	0	0	0	0	0	0
021319	09:06:14	09:19:28	792290	5.0.10.0	4_exp_AWA_CON_EVA_AMP	119	Rpleas_acq	Oppo	Lpleas	Amasked	CS_A	2pleas	distractor1	CONbeforeEVA	cond_new_unple_456_masked_CS2	condtest_masked_2	9	6	400	1	300	300	0	0	441	50	0	1	0	0	0	1	blank2r.bmp	0	1	+	0	5	C1r.bmp	492	1	blank2r.bmp	786	1	DHJF	786	1	blank2r.bmp	866	2	töten	866	1	!	1239	1	!	1346	0	0	0	0	0	0	0	0	0	0	0	0	0	0	0	0	0	0	0	0	0	0	0	0	0	0	0
021319	09:06:14	09:19:30	794462	5.0.10.0	4_exp_AWA_CON_EVA_AMP	119	Rpleas_acq	Oppo	Lpleas	Amasked	CS_A	2pleas	distractor1	CONbeforeEVA	cond_new_pleas_456_masked_CS1	condtest_masked_2	9	7	400	1	300	300	0	0	376	46	0	1	0	0	0	1	blank2r.bmp	0	1	+	0	1	B1r.bmp	492	1	blank2r.bmp	786	1	CPLW	786	1	blank2r.bmp	866	1	vertrauen	866	1	!	1239	1	!	1279	0	0	0	0	0	0	0	0	0	0	0	0	0	0	0	0	0	0	0	0	0	0	0	0	0	0	0
021319	09:06:14	09:19:32	796675	5.0.10.0	4_exp_AWA_CON_EVA_AMP	119	Rpleas_acq	Oppo	Lpleas	Amasked	CS_A	2pleas	distractor1	CONbeforeEVA	cond_new_unple_456_masked_CS1	condtest_masked_2	9	8	400	1	300	300	0	0	402	46	0	0	0	0	0	1	blank2r.bmp	0	1	+	0	3	B3r.bmp	492	1	blank2r.bmp	786	1	CPLW	786	1	blank2r.bmp	866	2	töten	866	1	!	1239	1	!	1306	0	0	0	0	0	0	0	0	0	0	0	0	0	0	0	0	0	0	0	0	0	0	0	0	0	0	0
021319	09:06:14	09:19:34	799047	5.0.10.0	4_exp_AWA_CON_EVA_AMP	119	Rpleas_acq	Oppo	Lpleas	Amasked	CS_A	2pleas	distractor1	CONbeforeEVA	cond_US_pleas_123_masked_CS2	condtest_masked_2	9	9	400	0	300	300	0	0	610	46	0	1	0	0	0	1	blank2r.bmp	0	1	+	0	4	B4r.bmp	492	1	blank2r.bmp	786	1	DHJF	786	1	blank2r.bmp	866	3	gesittet	866	1	!	1239	1	!	-1	0	0	0	0	0	0	0	0	0	0	0	0	0	0	0	0	0	0	0	0	0	0	0	0	0	0	0
021319	09:06:14	09:19:37	801299	5.0.10.0	4_exp_AWA_CON_EVA_AMP	119	Rpleas_acq	Oppo	Lpleas	Amasked	CS_A	2pleas	distractor1	CONbeforeEVA	cond_US_unple_123_masked_CS1	condtest_masked_2	9	10	400	1	300	300	0	0	442	50	0	1	0	0	0	1	blank2r.bmp	0	1	+	0	2	B2r.bmp	492	1	blank2r.bmp	786	1	CPLW	786	1	blank2r.bmp	866	3	geizig	866	1	!	1239	1	!	1346	0	0	0	0	0	0	0	0	0	0	0	0	0	0	0	0	0	0	0	0	0	0	0	0	0	0	0
021319	09:06:14	09:19:39	803592	5.0.10.0	4_exp_AWA_CON_EVA_AMP	119	Rpleas_acq	Oppo	Lpleas	Amasked	CS_A	2pleas	distractor1	CONbeforeEVA	cond_new_pleas_456_masked_CS1	condtest_masked_2	9	11	400	0	300	300	0	0	524	46	0	1	0	0	0	1	blank2r.bmp	0	1	+	0	6	C2r.bmp	492	1	blank2r.bmp	786	1	CPLW	786	1	blank2r.bmp	866	2	träumen	866	1	!	1239	1	!	-1	0	0	0	0	0	0	0	0	0	0	0	0	0	0	0	0	0	0	0	0	0	0	0	0	0	0	0
021319	09:06:14	09:19:41	805884	5.0.10.0	4_exp_AWA_CON_EVA_AMP	119	Rpleas_acq	Oppo	Lpleas	Amasked	CS_A	2pleas	distractor1	CONbeforeEVA	cond_new_unple_456_masked_CS2	condtest_masked_2	9	12	400	0	300	300	0	0	514	50	0	1	0	0	0	1	blank2r.bmp	0	1	+	0	8	C4r.bmp	492	1	blank2r.bmp	786	1	DHJF	786	1	blank2r.bmp	866	3	bange	866	1	!	1239	1	!	-1	0	0	0	0	0	0	0	0	0	0	0	0	0	0	0	0	0	0	0	0	0	0	0	0	0	0	0
021319	09:06:14	09:19:43	808163	5.0.10.0	4_exp_AWA_CON_EVA_AMP	119	Rpleas_acq	Oppo	Lpleas	Amasked	CS_A	2pleas	distractor1	CONbeforeEVA	cond_new_unple_456_masked_CS1	condtest_masked_2	9	13	400	0	300	300	0	0	479	50	0	1	0	0	0	1	blank2r.bmp	0	1	+	0	1	B1r.bmp	492	1	blank2r.bmp	786	1	CPLW	786	1	blank2r.bmp	866	1	versagen	866	1	!	1239	1	!	-1	0	0	0	0	0	0	0	0	0	0	0	0	0	0	0	0	0	0	0	0	0	0	0	0	0	0	0
021319	09:06:14	09:19:46	810322	5.0.10.0	4_exp_AWA_CON_EVA_AMP	119	Rpleas_acq	Oppo	Lpleas	Amasked	CS_A	2pleas	distractor1	CONbeforeEVA	cond_new_unple_456_masked_CS1	condtest_masked_2	9	14	400	1	300	300	0	0	346	46	0	0	0	0	0	1	blank2r.bmp	0	1	+	0	6	C2r.bmp	492	1	blank2r.bmp	786	1	CPLW	786	1	blank2r.bmp	866	1	versagen	866	1	!	1239	1	!	1252	0	0	0	0	0	0	0	0	0	0	0	0	0	0	0	0	0	0	0	0	0	0	0	0	0	0	0
021319	09:06:14	09:19:48	812575	5.0.10.0	4_exp_AWA_CON_EVA_AMP	119	Rpleas_acq	Oppo	Lpleas	Amasked	CS_A	2pleas	distractor1	CONbeforeEVA	cond_US_pleas_123_masked_CS1	condtest_masked_2	9	15	400	1	300	300	0	0	464	46	0	1	0	0	0	1	blank2r.bmp	0	1	+	0	5	C1r.bmp	492	1	blank2r.bmp	786	1	CPLW	786	1	blank2r.bmp	866	1	genießen	866	1	!	1239	1	!	1359	0	0	0	0	0	0	0	0	0	0	0	0	0	0	0	0	0	0	0	0	0	0	0	0	0	0	0
021319	09:06:14	09:19:50	815014	5.0.10.0	4_exp_AWA_CON_EVA_AMP	119	Rpleas_acq	Oppo	Lpleas	Amasked	CS_A	2pleas	distractor1	CONbeforeEVA	cond_US_unple_123_masked_CS2	condtest_masked_2	9	16	400	0	300	300	0	0	654	50	0	1	0	0	0	1	blank2r.bmp	0	1	+	0	8	C4r.bmp	492	1	blank2r.bmp	786	1	DHJF	786	1	blank2r.bmp	866	1	gemein	866	1	!	1239	1	!	-1	0	0	0	0	0	0	0	0	0	0	0	0	0	0	0	0	0	0	0	0	0	0	0	0	0	0	0
021319	09:06:14	09:19:53	817173	5.0.10.0	4_exp_AWA_CON_EVA_AMP	119	Rpleas_acq	Oppo	Lpleas	Amasked	CS_A	2pleas	distractor1	CONbeforeEVA	cond_US_unple_123_masked_CS1	condtest_masked_2	9	17	400	1	300	300	0	0	346	50	0	1	0	0	0	1	blank2r.bmp	0	1	+	0	4	B4r.bmp	492	1	blank2r.bmp	786	1	CPLW	786	1	blank2r.bmp	866	1	gemein	866	1	!	1239	1	!	1252	0	0	0	0	0	0	0	0	0	0	0	0	0	0	0	0	0	0	0	0	0	0	0	0	0	0	0
021319	09:06:14	09:19:55	819372	5.0.10.0	4_exp_AWA_CON_EVA_AMP	119	Rpleas_acq	Oppo	Lpleas	Amasked	CS_A	2pleas	distractor1	CONbeforeEVA	cond_new_unple_456_masked_CS1	condtest_masked_2	9	18	400	1	300	300	0	0	410	50	0	1	0	0	0	1	blank2r.bmp	0	1	+	0	2	B2r.bmp	492	1	blank2r.bmp	786	1	CPLW	786	1	blank2r.bmp	866	2	töten	866	1	!	1239	1	!	1306	0	0	0	0	0	0	0	0	0	0	0	0	0	0	0	0	0	0	0	0	0	0	0	0	0	0	0
021319	09:06:14	09:19:57	821584	5.0.10.0	4_exp_AWA_CON_EVA_AMP	119	Rpleas_acq	Oppo	Lpleas	Amasked	CS_A	2pleas	distractor1	CONbeforeEVA	cond_US_pleas_123_masked_CS2	condtest_masked_2	9	19	400	1	300	300	0	0	421	46	0	1	0	0	0	1	blank2r.bmp	0	1	+	0	7	C3r.bmp	492	1	blank2r.bmp	786	1	DHJF	786	1	blank2r.bmp	866	1	genießen	866	1	!	1239	1	!	1319	0	0	0	0	0	0	0	0	0	0	0	0	0	0	0	0	0	0	0	0	0	0	0	0	0	0	0
021319	09:06:14	09:19:59	823770	5.0.10.0	4_exp_AWA_CON_EVA_AMP	119	Rpleas_acq	Oppo	Lpleas	Amasked	CS_A	2pleas	distractor1	CONbeforeEVA	cond_US_pleas_123_masked_CS1	condtest_masked_2	9	20	400	1	300	300	0	0	392	46	0	1	0	0	0	1	blank2r.bmp	0	1	+	0	3	B3r.bmp	492	1	blank2r.bmp	786	1	CPLW	786	1	blank2r.bmp	866	2	sonnig	866	1	!	1239	1	!	1292	0	0	0	0	0	0	0	0	0	0	0	0	0	0	0	0	0	0	0	0	0	0	0	0	0	0	0
021319	09:06:14	09:20:01	826009	5.0.10.0	4_exp_AWA_CON_EVA_AMP	119	Rpleas_acq	Oppo	Lpleas	Amasked	CS_A	2pleas	distractor1	CONbeforeEVA	cond_US_unple_123_masked_CS1	condtest_masked_2	9	21	400	1	300	300	0	0	451	50	0	1	0	0	0	1	blank2r.bmp	0	1	+	0	2	B2r.bmp	492	1	blank2r.bmp	786	1	CPLW	786	1	blank2r.bmp	866	3	geizig	866	1	!	1239	1	!	1346	0	0	0	0	0	0	0	0	0	0	0	0	0	0	0	0	0	0	0	0	0	0	0	0	0	0	0
021319	09:06:14	09:20:04	828275	5.0.10.0	4_exp_AWA_CON_EVA_AMP	119	Rpleas_acq	Oppo	Lpleas	Amasked	CS_A	2pleas	distractor1	CONbeforeEVA	cond_US_pleas_123_masked_CS2	condtest_masked_2	9	22	400	1	300	300	0	0	466	46	0	1	0	0	0	1	blank2r.bmp	0	1	+	0	3	B3r.bmp	492	1	blank2r.bmp	786	1	DHJF	786	1	blank2r.bmp	866	3	gesittet	866	1	!	1239	1	!	1372	0	0	0	0	0	0	0	0	0	0	0	0	0	0	0	0	0	0	0	0	0	0	0	0	0	0	0
021319	09:06:14	09:20:06	830527	5.0.10.0	4_exp_AWA_CON_EVA_AMP	119	Rpleas_acq	Oppo	Lpleas	Amasked	CS_A	2pleas	distractor1	CONbeforeEVA	cond_new_pleas_456_masked_CS1	condtest_masked_2	9	23	400	0	300	300	0	0	486	46	0	1	0	0	0	1	blank2r.bmp	0	1	+	0	1	B1r.bmp	492	1	blank2r.bmp	786	1	CPLW	786	1	blank2r.bmp	866	3	besonnen	866	1	!	1239	1	!	-1	0	0	0	0	0	0	0	0	0	0	0	0	0	0	0	0	0	0	0	0	0	0	0	0	0	0	0
021319	09:06:14	09:20:08	832687	5.0.10.0	4_exp_AWA_CON_EVA_AMP	119	Rpleas_acq	Oppo	Lpleas	Amasked	CS_A	2pleas	distractor1	CONbeforeEVA	cond_US_pleas_123_masked_CS2	condtest_masked_2	9	24	400	1	300	300	0	0	348	46	0	1	0	0	0	1	blank2r.bmp	0	1	+	0	5	C1r.bmp	492	1	blank2r.bmp	786	1	DHJF	786	1	blank2r.bmp	866	2	sonnig	866	1	!	1239	1	!	1252	0	0	0	0	0	0	0	0	0	0	0	0	0	0	0	0	0	0	0	0	0	0	0	0	0	0	0
021319	09:06:14	09:20:13	837911	5.0.10.0	4_exp_AWA_CON_EVA_AMP	119	Rpleas_acq	Oppo	Lpleas	Amasked	CS_A	2pleas	distractor1	CONbeforeEVA	cond_new_pleas_456_masked_CS2	condtest_masked_2	9	25	400	0	300	300	0	0	3454	46	0	1	0	0	0	1	blank2r.bmp	0	1	+	0	6	C2r.bmp	492	1	blank2r.bmp	786	1	DHJF	786	1	blank2r.bmp	866	1	vertrauen	866	1	!	1239	1	!	-1	0	0	0	0	0	0	0	0	0	0	0	0	0	0	0	0	0	0	0	0	0	0	0	0	0	0	0
021319	09:06:14	09:20:16	840190	5.0.10.0	4_exp_AWA_CON_EVA_AMP	119	Rpleas_acq	Oppo	Lpleas	Amasked	CS_A	2pleas	distractor1	CONbeforeEVA	cond_US_unple_123_masked_CS2	condtest_masked_2	9	26	400	0	300	300	0	0	479	50	0	1	0	0	0	1	blank2r.bmp	0	1	+	0	4	B4r.bmp	492	1	blank2r.bmp	786	1	DHJF	786	1	blank2r.bmp	866	2	sterben	866	1	!	1239	1	!	-1	0	0	0	0	0	0	0	0	0	0	0	0	0	0	0	0	0	0	0	0	0	0	0	0	0	0	0
021319	09:06:14	09:20:18	842296	5.0.10.0	4_exp_AWA_CON_EVA_AMP	119	Rpleas_acq	Oppo	Lpleas	Amasked	CS_A	2pleas	distractor1	CONbeforeEVA	cond_new_unple_456_masked_CS2	condtest_masked_2	9	27	400	0	300	300	0	0	327	46	0	0	0	0	0	1	blank2r.bmp	0	1	+	0	8	C4r.bmp	492	1	blank2r.bmp	786	1	DHJF	786	1	blank2r.bmp	866	3	bange	866	1	!	-1	1	!	-1	0	0	0	0	0	0	0	0	0	0	0	0	0	0	0	0	0	0	0	0	0	0	0	0	0	0	0
021319	09:06:14	09:20:20	844468	5.0.10.0	4_exp_AWA_CON_EVA_AMP	119	Rpleas_acq	Oppo	Lpleas	Amasked	CS_A	2pleas	distractor1	CONbeforeEVA	cond_new_unple_456_masked_CS1	condtest_masked_2	9	28	400	1	300	300	0	0	364	50	0	1	0	0	0	1	blank2r.bmp	0	1	+	0	7	C3r.bmp	492	1	blank2r.bmp	786	1	CPLW	786	1	blank2r.bmp	866	2	töten	866	1	!	1239	1	!	1266	0	0	0	0	0	0	0	0	0	0	0	0	0	0	0	0	0	0	0	0	0	0	0	0	0	0	0
021319	09:06:14	09:20:22	846614	5.0.10.0	4_exp_AWA_CON_EVA_AMP	119	Rpleas_acq	Oppo	Lpleas	Amasked	CS_A	2pleas	distractor1	CONbeforeEVA	cond_new_pleas_456_masked_CS2	condtest_masked_2	9	29	400	1	300	300	0	0	354	46	0	1	0	0	0	1	blank2r.bmp	0	1	+	0	5	C1r.bmp	492	1	blank2r.bmp	786	1	DHJF	786	1	blank2r.bmp	866	3	besonnen	866	1	!	1239	1	!	1252	0	0	0	0	0	0	0	0	0	0	0	0	0	0	0	0	0	0	0	0	0	0	0	0	0	0	0
021319	09:06:14	09:20:24	848800	5.0.10.0	4_exp_AWA_CON_EVA_AMP	119	Rpleas_acq	Oppo	Lpleas	Amasked	CS_A	2pleas	distractor1	CONbeforeEVA	cond_US_pleas_123_masked_CS1	condtest_masked_2	9	30	400	1	300	300	0	0	398	46	0	1	0	0	0	1	blank2r.bmp	0	1	+	0	6	C2r.bmp	492	1	blank2r.bmp	786	1	CPLW	786	1	blank2r.bmp	866	1	genießen	866	1	!	1239	1	!	1292	0	0	0	0	0	0	0	0	0	0	0	0	0	0	0	0	0	0	0	0	0	0	0	0	0	0	0
021319	09:06:14	09:20:26	851159	5.0.10.0	4_exp_AWA_CON_EVA_AMP	119	Rpleas_acq	Oppo	Lpleas	Amasked	CS_A	2pleas	distractor1	CONbeforeEVA	cond_US_pleas_123_masked_CS1	condtest_masked_2	9	31	400	0	300	300	0	0	593	46	0	1	0	0	0	1	blank2r.bmp	0	1	+	0	2	B2r.bmp	492	1	blank2r.bmp	786	1	CPLW	786	1	blank2r.bmp	866	3	gesittet	866	1	!	1239	1	!	-1	0	0	0	0	0	0	0	0	0	0	0	0	0	0	0	0	0	0	0	0	0	0	0	0	0	0	0
021319	09:06:14	09:20:29	853518	5.0.10.0	4_exp_AWA_CON_EVA_AMP	119	Rpleas_acq	Oppo	Lpleas	Amasked	CS_A	2pleas	distractor1	CONbeforeEVA	cond_new_pleas_456_masked_CS2	condtest_masked_2	9	32	400	0	300	300	0	0	574	46	0	1	0	0	0	1	blank2r.bmp	0	1	+	0	8	C4r.bmp	492	1	blank2r.bmp	786	1	DHJF	786	1	blank2r.bmp	866	2	träumen	866	1	!	1239	1	!	-1	0	0	0	0	0	0	0	0	0	0	0	0	0	0	0	0	0	0	0	0	0	0	0	0	0	0	0
021319	09:06:14	09:20:31	855810	5.0.10.0	4_exp_AWA_CON_EVA_AMP	119	Rpleas_acq	Oppo	Lpleas	Amasked	CS_A	2pleas	distractor1	CONbeforeEVA	cond_new_unple_456_masked_CS2	condtest_masked_2	9	33	400	0	300	300	0	0	505	50	0	1	0	0	0	1	blank2r.bmp	0	1	+	0	7	C3r.bmp	492	1	blank2r.bmp	786	1	DHJF	786	1	blank2r.bmp	866	1	versagen	866	1	!	1239	1	!	-1	0	0	0	0	0	0	0	0	0	0	0	0	0	0	0	0	0	0	0	0	0	0	0	0	0	0	0
021319	09:06:14	09:20:34	858289	5.0.10.0	4_exp_AWA_CON_EVA_AMP	119	Rpleas_acq	Oppo	Lpleas	Amasked	CS_A	2pleas	distractor1	CONbeforeEVA	cond_new_unple_456_masked_CS2	condtest_masked_2	9	34	400	0	300	300	0	0	701	50	0	1	0	0	0	1	blank2r.bmp	0	1	+	0	1	B1r.bmp	492	1	blank2r.bmp	786	1	DHJF	786	1	blank2r.bmp	866	3	bange	866	1	!	1239	1	!	-1	0	0	0	0	0	0	0	0	0	0	0	0	0	0	0	0	0	0	0	0	0	0	0	0	0	0	0
021319	09:06:14	09:20:36	860475	5.0.10.0	4_exp_AWA_CON_EVA_AMP	119	Rpleas_acq	Oppo	Lpleas	Amasked	CS_A	2pleas	distractor1	CONbeforeEVA	cond_US_unple_123_masked_CS1	condtest_masked_2	9	35	400	1	300	300	0	0	379	50	0	1	0	0	0	1	blank2r.bmp	0	1	+	0	4	B4r.bmp	492	1	blank2r.bmp	786	1	CPLW	786	1	blank2r.bmp	866	1	gemein	866	1	!	1239	1	!	1279	0	0	0	0	0	0	0	0	0	0	0	0	0	0	0	0	0	0	0	0	0	0	0	0	0	0	0
021319	09:06:14	09:20:38	862688	5.0.10.0	4_exp_AWA_CON_EVA_AMP	119	Rpleas_acq	Oppo	Lpleas	Amasked	CS_A	2pleas	distractor1	CONbeforeEVA	cond_new_pleas_456_masked_CS1	condtest_masked_2	9	36	400	1	300	300	0	0	417	46	0	1	0	0	0	1	blank2r.bmp	0	1	+	0	3	B3r.bmp	492	1	blank2r.bmp	786	1	CPLW	786	1	blank2r.bmp	866	1	vertrauen	866	1	!	1239	1	!	1319	0	0	0	0	0	0	0	0	0	0	0	0	0	0	0	0	0	0	0	0	0	0	0	0	0	0	0
021319	09:06:14	09:20:40	864873	5.0.10.0	4_exp_AWA_CON_EVA_AMP	119	Rpleas_acq	Oppo	Lpleas	Amasked	CS_A	2pleas	distractor1	CONbeforeEVA	cond_US_unple_123_masked_CS1	condtest_masked_2	9	37	400	1	300	300	0	0	388	50	0	1	0	0	0	1	blank2r.bmp	0	1	+	0	6	C2r.bmp	492	1	blank2r.bmp	786	1	CPLW	786	1	blank2r.bmp	866	3	geizig	866	1	!	1239	1	!	1292	0	0	0	0	0	0	0	0	0	0	0	0	0	0	0	0	0	0	0	0	0	0	0	0	0	0	0
021319	09:06:14	09:20:42	867126	5.0.10.0	4_exp_AWA_CON_EVA_AMP	119	Rpleas_acq	Oppo	Lpleas	Amasked	CS_A	2pleas	distractor1	CONbeforeEVA	cond_new_pleas_456_masked_CS2	condtest_masked_2	9	38	400	1	300	300	0	0	458	46	0	1	0	0	0	1	blank2r.bmp	0	1	+	0	8	C4r.bmp	492	1	blank2r.bmp	786	1	DHJF	786	1	blank2r.bmp	866	3	besonnen	866	1	!	1239	1	!	1359	0	0	0	0	0	0	0	0	0	0	0	0	0	0	0	0	0	0	0	0	0	0	0	0	0	0	0
021319	09:06:14	09:20:45	869338	5.0.10.0	4_exp_AWA_CON_EVA_AMP	119	Rpleas_acq	Oppo	Lpleas	Amasked	CS_A	2pleas	distractor1	CONbeforeEVA	cond_new_pleas_456_masked_CS2	condtest_masked_2	9	39	400	1	300	300	0	0	402	46	0	1	0	0	0	1	blank2r.bmp	0	1	+	0	1	B1r.bmp	492	1	blank2r.bmp	786	1	DHJF	786	1	blank2r.bmp	866	2	träumen	866	1	!	1239	1	!	1306	0	0	0	0	0	0	0	0	0	0	0	0	0	0	0	0	0	0	0	0	0	0	0	0	0	0	0
021319	09:06:14	09:20:47	871537	5.0.10.0	4_exp_AWA_CON_EVA_AMP	119	Rpleas_acq	Oppo	Lpleas	Amasked	CS_A	2pleas	distractor1	CONbeforeEVA	cond_US_unple_123_masked_CS2	condtest_masked_2	9	40	400	1	300	300	0	0	411	50	0	1	0	0	0	1	blank2r.bmp	0	1	+	0	5	C1r.bmp	492	1	blank2r.bmp	786	1	DHJF	786	1	blank2r.bmp	866	2	sterben	866	1	!	1239	1	!	1306	0	0	0	0	0	0	0	0	0	0	0	0	0	0	0	0	0	0	0	0	0	0	0	0	0	0	0
021319	09:06:14	09:20:57	882146	5.0.10.0	4_exp_AWA_CON_EVA_AMP	119	Rpleas_acq	Oppo	Lpleas	Amasked	CS_A	2pleas	distractor1	CONbeforeEVA	cond_US_unple_456_masked_CS1	condtest_masked_3	10	1	400	0	300	300	0	0	504	50	0	1	0	0	0	1	blank2r.bmp	0	1	+	0	7	C3r.bmp	492	1	blank2r.bmp	786	1	CPLW	786	1	blank2r.bmp	866	2	ausrottung	866	1	!	1239	1	!	-1	0	0	0	0	0	0	0	0	0	0	0	0	0	0	0	0	0	0	0	0	0	0	0	0	0	0	0
021319	09:06:14	09:21:00	884265	5.0.10.0	4_exp_AWA_CON_EVA_AMP	119	Rpleas_acq	Oppo	Lpleas	Amasked	CS_A	2pleas	distractor1	CONbeforeEVA	cond_US_unple_456_masked_CS1	condtest_masked_3	10	2	400	0	300	300	0	0	333	50	0	1	0	0	0	1	blank2r.bmp	0	1	+	0	2	B2r.bmp	492	1	blank2r.bmp	786	1	CPLW	786	1	blank2r.bmp	866	1	gierig	866	1	!	-1	1	!	-1	0	0	0	0	0	0	0	0	0	0	0	0	0	0	0	0	0	0	0	0	0	0	0	0	0	0	0
021319	09:06:14	09:21:02	886571	5.0.10.0	4_exp_AWA_CON_EVA_AMP	119	Rpleas_acq	Oppo	Lpleas	Amasked	CS_A	2pleas	distractor1	CONbeforeEVA	cond_US_pleas_456_masked_CS1	condtest_masked_3	10	3	400	0	300	300	0	0	524	46	0	1	0	0	0	1	blank2r.bmp	0	1	+	0	3	B3r.bmp	492	1	blank2r.bmp	786	1	CPLW	786	1	blank2r.bmp	866	2	anregung	866	1	!	1239	1	!	-1	0	0	0	0	0	0	0	0	0	0	0	0	0	0	0	0	0	0	0	0	0	0	0	0	0	0	0
021319	09:06:14	09:21:04	888783	5.0.10.0	4_exp_AWA_CON_EVA_AMP	119	Rpleas_acq	Oppo	Lpleas	Amasked	CS_A	2pleas	distractor1	CONbeforeEVA	cond_new_pleas_123_masked_CS2	condtest_masked_3	10	4	400	1	300	300	0	0	411	46	0	1	0	0	0	1	blank2r.bmp	0	1	+	0	4	B4r.bmp	492	1	blank2r.bmp	786	1	DHJF	786	1	blank2r.bmp	866	2	kreativ	866	1	!	1239	1	!	1306	0	0	0	0	0	0	0	0	0	0	0	0	0	0	0	0	0	0	0	0	0	0	0	0	0	0	0
021319	09:06:14	09:21:06	891036	5.0.10.0	4_exp_AWA_CON_EVA_AMP	119	Rpleas_acq	Oppo	Lpleas	Amasked	CS_A	2pleas	distractor1	CONbeforeEVA	cond_US_pleas_456_masked_CS1	condtest_masked_3	10	5	400	0	300	300	0	0	479	46	0	1	0	0	0	1	blank2r.bmp	0	1	+	0	1	B1r.bmp	492	1	blank2r.bmp	786	1	CPLW	786	1	blank2r.bmp	866	3	engagiert	866	1	!	1239	1	!	-1	0	0	0	0	0	0	0	0	0	0	0	0	0	0	0	0	0	0	0	0	0	0	0	0	0	0	0
021319	09:06:14	09:21:08	893142	5.0.10.0	4_exp_AWA_CON_EVA_AMP	119	Rpleas_acq	Oppo	Lpleas	Amasked	CS_A	2pleas	distractor1	CONbeforeEVA	cond_US_pleas_456_masked_CS1	condtest_masked_3	10	6	400	0	300	300	0	0	321	46	0	1	0	0	0	1	blank2r.bmp	0	1	+	0	2	B2r.bmp	492	1	blank2r.bmp	786	1	CPLW	786	1	blank2r.bmp	866	1	gütig	866	1	!	-1	1	!	-1	0	0	0	0	0	0	0	0	0	0	0	0	0	0	0	0	0	0	0	0	0	0	0	0	0	0	0
021319	09:06:14	09:21:11	895447	5.0.10.0	4_exp_AWA_CON_EVA_AMP	119	Rpleas_acq	Oppo	Lpleas	Amasked	CS_A	2pleas	distractor1	CONbeforeEVA	cond_new_unple_123_masked_CS2	condtest_masked_3	10	7	400	0	300	300	0	0	528	50	0	1	0	0	0	1	blank2r.bmp	0	1	+	0	5	C1r.bmp	492	1	blank2r.bmp	786	1	DHJF	786	1	blank2r.bmp	866	2	krank	866	1	!	1239	1	!	-1	0	0	0	0	0	0	0	0	0	0	0	0	0	0	0	0	0	0	0	0	0	0	0	0	0	0	0
021319	09:06:14	09:21:13	897726	5.0.10.0	4_exp_AWA_CON_EVA_AMP	119	Rpleas_acq	Oppo	Lpleas	Amasked	CS_A	2pleas	distractor1	CONbeforeEVA	cond_US_unple_456_masked_CS1	condtest_masked_3	10	8	400	0	300	300	0	0	496	50	0	1	0	0	0	1	blank2r.bmp	0	1	+	0	3	B3r.bmp	492	1	blank2r.bmp	786	1	CPLW	786	1	blank2r.bmp	866	3	engstirnig	866	1	!	1239	1	!	-1	0	0	0	0	0	0	0	0	0	0	0	0	0	0	0	0	0	0	0	0	0	0	0	0	0	0	0
021319	09:06:14	09:21:15	899965	5.0.10.0	4_exp_AWA_CON_EVA_AMP	119	Rpleas_acq	Oppo	Lpleas	Amasked	CS_A	2pleas	distractor1	CONbeforeEVA	cond_new_unple_123_masked_CS2	condtest_masked_3	10	9	400	1	300	300	0	0	433	46	0	0	0	0	0	1	blank2r.bmp	0	1	+	0	4	B4r.bmp	492	1	blank2r.bmp	786	1	DHJF	786	1	blank2r.bmp	866	3	krise	866	1	!	1239	1	!	1332	0	0	0	0	0	0	0	0	0	0	0	0	0	0	0	0	0	0	0	0	0	0	0	0	0	0	0
021319	09:06:14	09:21:18	902298	5.0.10.0	4_exp_AWA_CON_EVA_AMP	119	Rpleas_acq	Oppo	Lpleas	Amasked	CS_A	2pleas	distractor1	CONbeforeEVA	cond_new_unple_123_masked_CS1	condtest_masked_3	10	10	400	0	300	300	0	0	546	50	0	1	0	0	0	1	blank2r.bmp	0	1	+	0	6	C2r.bmp	492	1	blank2r.bmp	786	1	CPLW	786	1	blank2r.bmp	866	1	verbissen	866	1	!	1239	1	!	-1	0	0	0	0	0	0	0	0	0	0	0	0	0	0	0	0	0	0	0	0	0	0	0	0	0	0	0
021319	09:06:14	09:21:20	904497	5.0.10.0	4_exp_AWA_CON_EVA_AMP	119	Rpleas_acq	Oppo	Lpleas	Amasked	CS_A	2pleas	distractor1	CONbeforeEVA	cond_US_pleas_456_masked_CS1	condtest_masked_3	10	11	400	1	300	300	0	0	391	46	0	1	0	0	0	1	blank2r.bmp	0	1	+	0	7	C3r.bmp	492	1	blank2r.bmp	786	1	CPLW	786	1	blank2r.bmp	866	3	engagiert	866	1	!	1239	1	!	1292	0	0	0	0	0	0	0	0	0	0	0	0	0	0	0	0	0	0	0	0	0	0	0	0	0	0	0
021319	09:06:14	09:21:22	906749	5.0.10.0	4_exp_AWA_CON_EVA_AMP	119	Rpleas_acq	Oppo	Lpleas	Amasked	CS_A	2pleas	distractor1	CONbeforeEVA	cond_new_unple_123_masked_CS1	condtest_masked_3	10	12	400	0	300	300	0	0	483	50	0	1	0	0	0	1	blank2r.bmp	0	1	+	0	8	C4r.bmp	492	1	blank2r.bmp	786	1	CPLW	786	1	blank2r.bmp	866	3	krise	866	1	!	1239	1	!	-1	0	0	0	0	0	0	0	0	0	0	0	0	0	0	0	0	0	0	0	0	0	0	0	0	0	0	0
021319	09:06:14	09:21:24	908975	5.0.10.0	4_exp_AWA_CON_EVA_AMP	119	Rpleas_acq	Oppo	Lpleas	Amasked	CS_A	2pleas	distractor1	CONbeforeEVA	cond_US_pleas_456_masked_CS2	condtest_masked_3	10	13	400	1	300	300	0	0	425	46	0	1	0	0	0	1	blank2r.bmp	0	1	+	0	1	B1r.bmp	492	1	blank2r.bmp	786	1	DHJF	786	1	blank2r.bmp	866	1	gütig	866	1	!	1239	1	!	1319	0	0	0	0	0	0	0	0	0	0	0	0	0	0	0	0	0	0	0	0	0	0	0	0	0	0	0
021319	09:06:14	09:21:27	911214	5.0.10.0	4_exp_AWA_CON_EVA_AMP	119	Rpleas_acq	Oppo	Lpleas	Amasked	CS_A	2pleas	distractor1	CONbeforeEVA	cond_new_pleas_123_masked_CS1	condtest_masked_3	10	14	400	1	300	300	0	0	446	46	0	1	0	0	0	1	blank2r.bmp	0	1	+	0	5	C1r.bmp	492	1	blank2r.bmp	786	1	CPLW	786	1	blank2r.bmp	866	3	kuss	866	1	!	1239	1	!	1346	0	0	0	0	0	0	0	0	0	0	0	0	0	0	0	0	0	0	0	0	0	0	0	0	0	0	0
021319	09:06:14	09:21:29	913520	5.0.10.0	4_exp_AWA_CON_EVA_AMP	119	Rpleas_acq	Oppo	Lpleas	Amasked	CS_A	2pleas	distractor1	CONbeforeEVA	cond_US_pleas_456_masked_CS2	condtest_masked_3	10	15	400	0	300	300	0	0	537	46	0	1	0	0	0	1	blank2r.bmp	0	1	+	0	2	B2r.bmp	492	1	blank2r.bmp	786	1	DHJF	786	1	blank2r.bmp	866	2	anregung	866	1	!	1239	1	!	-1	0	0	0	0	0	0	0	0	0	0	0	0	0	0	0	0	0	0	0	0	0	0	0	0	0	0	0
021319	09:06:14	09:21:31	915772	5.0.10.0	4_exp_AWA_CON_EVA_AMP	119	Rpleas_acq	Oppo	Lpleas	Amasked	CS_A	2pleas	distractor1	CONbeforeEVA	cond_new_unple_123_masked_CS1	condtest_masked_3	10	16	400	1	300	300	0	0	444	50	0	1	0	0	0	1	blank2r.bmp	0	1	+	0	7	C3r.bmp	492	1	blank2r.bmp	786	1	CPLW	786	1	blank2r.bmp	866	2	krank	866	1	!	1239	1	!	1346	0	0	0	0	0	0	0	0	0	0	0	0	0	0	0	0	0	0	0	0	0	0	0	0	0	0	0
021319	09:06:14	09:21:33	917971	5.0.10.0	4_exp_AWA_CON_EVA_AMP	119	Rpleas_acq	Oppo	Lpleas	Amasked	CS_A	2pleas	distractor1	CONbeforeEVA	cond_new_pleas_123_masked_CS2	condtest_masked_3	10	17	400	1	300	300	0	0	407	46	0	1	0	0	0	1	blank2r.bmp	0	1	+	0	8	C4r.bmp	492	1	blank2r.bmp	786	1	DHJF	786	1	blank2r.bmp	866	1	vergnügt	866	1	!	1239	1	!	1306	0	0	0	0	0	0	0	0	0	0	0	0	0	0	0	0	0	0	0	0	0	0	0	0	0	0	0
021319	09:06:14	09:21:35	920144	5.0.10.0	4_exp_AWA_CON_EVA_AMP	119	Rpleas_acq	Oppo	Lpleas	Amasked	CS_A	2pleas	distractor1	CONbeforeEVA	cond_US_unple_456_masked_CS2	condtest_masked_3	10	18	400	1	300	300	0	0	378	46	0	0	0	0	0	1	blank2r.bmp	0	1	+	0	3	B3r.bmp	492	1	blank2r.bmp	786	1	DHJF	786	1	blank2r.bmp	866	1	gierig	866	1	!	1239	1	!	1279	0	0	0	0	0	0	0	0	0	0	0	0	0	0	0	0	0	0	0	0	0	0	0	0	0	0	0
021319	09:06:14	09:21:38	922356	5.0.10.0	4_exp_AWA_CON_EVA_AMP	119	Rpleas_acq	Oppo	Lpleas	Amasked	CS_A	2pleas	distractor1	CONbeforeEVA	cond_US_unple_456_masked_CS2	condtest_masked_3	10	19	400	1	300	300	0	0	414	50	0	1	0	0	0	1	blank2r.bmp	0	1	+	0	4	B4r.bmp	492	1	blank2r.bmp	786	1	DHJF	786	1	blank2r.bmp	866	2	ausrottung	866	1	!	1239	1	!	1319	0	0	0	0	0	0	0	0	0	0	0	0	0	0	0	0	0	0	0	0	0	0	0	0	0	0	0
021319	09:06:14	09:21:40	924689	5.0.10.0	4_exp_AWA_CON_EVA_AMP	119	Rpleas_acq	Oppo	Lpleas	Amasked	CS_A	2pleas	distractor1	CONbeforeEVA	cond_US_pleas_456_masked_CS1	condtest_masked_3	10	20	400	0	300	300	0	0	559	46	0	1	0	0	0	1	blank2r.bmp	0	1	+	0	6	C2r.bmp	492	1	blank2r.bmp	786	1	CPLW	786	1	blank2r.bmp	866	2	anregung	866	1	!	1239	1	!	-1	0	0	0	0	0	0	0	0	0	0	0	0	0	0	0	0	0	0	0	0	0	0	0	0	0	0	0
021319	09:06:14	09:21:42	926928	5.0.10.0	4_exp_AWA_CON_EVA_AMP	119	Rpleas_acq	Oppo	Lpleas	Amasked	CS_A	2pleas	distractor1	CONbeforeEVA	cond_US_unple_456_masked_CS2	condtest_masked_3	10	21	400	1	300	300	0	0	430	50	0	1	0	0	0	1	blank2r.bmp	0	1	+	0	7	C3r.bmp	492	1	blank2r.bmp	786	1	DHJF	786	1	blank2r.bmp	866	3	engstirnig	866	1	!	1239	1	!	1332	0	0	0	0	0	0	0	0	0	0	0	0	0	0	0	0	0	0	0	0	0	0	0	0	0	0	0
021319	09:06:14	09:21:45	929167	5.0.10.0	4_exp_AWA_CON_EVA_AMP	119	Rpleas_acq	Oppo	Lpleas	Amasked	CS_A	2pleas	distractor1	CONbeforeEVA	cond_US_unple_456_masked_CS1	condtest_masked_3	10	22	400	1	300	300	0	0	448	50	0	1	0	0	0	1	blank2r.bmp	0	1	+	0	4	B4r.bmp	492	1	blank2r.bmp	786	1	CPLW	786	1	blank2r.bmp	866	2	ausrottung	866	1	!	1239	1	!	1346	0	0	0	0	0	0	0	0	0	0	0	0	0	0	0	0	0	0	0	0	0	0	0	0	0	0	0
021319	09:06:14	09:21:47	931473	5.0.10.0	4_exp_AWA_CON_EVA_AMP	119	Rpleas_acq	Oppo	Lpleas	Amasked	CS_A	2pleas	distractor1	CONbeforeEVA	cond_new_pleas_123_masked_CS2	condtest_masked_3	10	23	400	0	300	300	0	0	525	46	0	1	0	0	0	1	blank2r.bmp	0	1	+	0	1	B1r.bmp	492	1	blank2r.bmp	786	1	DHJF	786	1	blank2r.bmp	866	1	vergnügt	866	1	!	1239	1	!	-1	0	0	0	0	0	0	0	0	0	0	0	0	0	0	0	0	0	0	0	0	0	0	0	0	0	0	0
021319	09:06:14	09:21:49	933632	5.0.10.0	4_exp_AWA_CON_EVA_AMP	119	Rpleas_acq	Oppo	Lpleas	Amasked	CS_A	2pleas	distractor1	CONbeforeEVA	cond_US_unple_456_masked_CS2	condtest_masked_3	10	24	400	1	300	300	0	0	346	50	0	1	0	0	0	1	blank2r.bmp	0	1	+	0	8	C4r.bmp	492	1	blank2r.bmp	786	1	DHJF	786	1	blank2r.bmp	866	1	gierig	866	1	!	1239	1	!	1252	0	0	0	0	0	0	0	0	0	0	0	0	0	0	0	0	0	0	0	0	0	0	0	0	0	0	0
021319	09:06:14	09:21:51	935737	5.0.10.0	4_exp_AWA_CON_EVA_AMP	119	Rpleas_acq	Oppo	Lpleas	Amasked	CS_A	2pleas	distractor1	CONbeforeEVA	cond_new_pleas_123_masked_CS1	condtest_masked_3	10	25	400	0	300	300	0	0	332	46	0	1	0	0	0	1	blank2r.bmp	0	1	+	0	3	B3r.bmp	492	1	blank2r.bmp	786	1	CPLW	786	1	blank2r.bmp	866	3	kuss	866	1	!	-1	1	!	-1	0	0	0	0	0	0	0	0	0	0	0	0	0	0	0	0	0	0	0	0	0	0	0	0	0	0	0
021319	09:06:14	09:21:53	937923	5.0.10.0	4_exp_AWA_CON_EVA_AMP	119	Rpleas_acq	Oppo	Lpleas	Amasked	CS_A	2pleas	distractor1	CONbeforeEVA	cond_new_unple_123_masked_CS2	condtest_masked_3	10	26	400	1	300	300	0	0	361	50	0	1	0	0	0	1	blank2r.bmp	0	1	+	0	2	B2r.bmp	492	1	blank2r.bmp	786	1	DHJF	786	1	blank2r.bmp	866	1	verbissen	866	1	!	1239	1	!	1266	0	0	0	0	0	0	0	0	0	0	0	0	0	0	0	0	0	0	0	0	0	0	0	0	0	0	0
021319	09:06:14	09:21:55	940082	5.0.10.0	4_exp_AWA_CON_EVA_AMP	119	Rpleas_acq	Oppo	Lpleas	Amasked	CS_A	2pleas	distractor1	CONbeforeEVA	cond_US_pleas_456_masked_CS2	condtest_masked_3	10	27	400	1	300	300	0	0	365	46	0	1	0	0	0	1	blank2r.bmp	0	1	+	0	6	C2r.bmp	492	1	blank2r.bmp	786	1	DHJF	786	1	blank2r.bmp	866	1	gütig	866	1	!	1239	1	!	1266	0	0	0	0	0	0	0	0	0	0	0	0	0	0	0	0	0	0	0	0	0	0	0	0	0	0	0
021319	09:06:14	09:21:58	942308	5.0.10.0	4_exp_AWA_CON_EVA_AMP	119	Rpleas_acq	Oppo	Lpleas	Amasked	CS_A	2pleas	distractor1	CONbeforeEVA	cond_US_unple_456_masked_CS1	condtest_masked_3	10	28	400	1	300	300	0	0	438	50	0	1	0	0	0	1	blank2r.bmp	0	1	+	0	5	C1r.bmp	492	1	blank2r.bmp	786	1	CPLW	786	1	blank2r.bmp	866	3	engstirnig	866	1	!	1239	1	!	1332	0	0	0	0	0	0	0	0	0	0	0	0	0	0	0	0	0	0	0	0	0	0	0	0	0	0	0
021319	09:06:14	09:22:00	945160	5.0.10.0	4_exp_AWA_CON_EVA_AMP	119	Rpleas_acq	Oppo	Lpleas	Amasked	CS_A	2pleas	distractor1	CONbeforeEVA	cond_US_unple_456_masked_CS2	condtest_masked_3	10	29	400	0	300	300	0	0	1079	50	0	1	0	0	0	1	blank2r.bmp	0	1	+	0	8	C4r.bmp	492	1	blank2r.bmp	786	1	DHJF	786	1	blank2r.bmp	866	3	engstirnig	866	1	!	1239	1	!	-1	0	0	0	0	0	0	0	0	0	0	0	0	0	0	0	0	0	0	0	0	0	0	0	0	0	0	0
021319	09:06:14	09:22:03	947413	5.0.10.0	4_exp_AWA_CON_EVA_AMP	119	Rpleas_acq	Oppo	Lpleas	Amasked	CS_A	2pleas	distractor1	CONbeforeEVA	cond_US_pleas_456_masked_CS2	condtest_masked_3	10	30	400	1	300	300	0	0	438	46	0	1	0	0	0	1	blank2r.bmp	0	1	+	0	1	B1r.bmp	492	1	blank2r.bmp	786	1	DHJF	786	1	blank2r.bmp	866	3	engagiert	866	1	!	1239	1	!	1332	0	0	0	0	0	0	0	0	0	0	0	0	0	0	0	0	0	0	0	0	0	0	0	0	0	0	0
