date	time	script.currenttime	script.elapsedtime	build	script.currentexpt	subject	expressions.LRpleas_acq	expressions.SameOppo	expressions.condition_Lpleas	expressions.ABmasked	expressions.conditionCS_A	expressions.condition_1pleas	expressions.condition_distractor_AMP	expressions.AWACON_AMPEVA_first	trialcode	blockcode	blocknum	trialnum	windowcenter	inwindow	pretrialpause	posttrialpause	trialduration	trialtimeout	latency	response	expressions.correctedscore	correct	values.vis_performance	values.vis_rating_sum	values.vis_rating_mean	stimulusnumber1	stimulusitem1	stimulusonset1	stimulusnumber2	stimulusitem2	stimulusonset2	stimulusnumber3	stimulusitem3	stimulusonset3	stimulusnumber4	stimulusitem4	stimulusonset4	stimulusnumber5	stimulusitem5	stimulusonset5	stimulusnumber6	stimulusitem6	stimulusonset6	stimulusnumber7	stimulusitem7	stimulusonset7	stimulusnumber8	stimulusitem8	stimulusonset8	stimulusnumber9	stimulusitem9	stimulusonset9	stimulusnumber10	stimulusitem10	stimulusonset10	stimulusnumber11	stimulusitem11	stimulusonset11	stimulusnumber12	stimulusitem12	stimulusonset12	stimulusnumber13	stimulusitem13	stimulusonset13	stimulusnumber14	stimulusitem14	stimulusonset14	stimulusnumber15	stimulusitem15	stimulusonset15	stimulusnumber16	stimulusitem16	stimulusonset16	stimulusnumber17	stimulusitem17	stimulusonset17	stimulusnumber18	stimulusitem18	stimulusonset18
121318	15:54:31	15:55:54	82858	5.0.10.0	4_exp_AMP_EVA_AWA_CON	16	Rpleas_acq	Oppo	Rpleas	Amasked	CS_A	1pleas	distractor1	EVAbeforeCON	acq_US_pleas_masked	acq1_masked	1	1	0	0	300	300	0	0	1405	50	0	1	0	0	0	1	blank2r.bmp	0	1	+	0	5	C1r.bmp	492	1	blank2r.bmp	786	1	CPLW	786	1	blank2r.bmp	866	1	gütig	866	0	0	0	0	0	0	0	0	0	0	0	0	0	0	0	0	0	0	0	0	0	0	0	0	0	0	0	0	0	0	0	0	0
121318	15:54:31	15:55:56	84778	5.0.10.0	4_exp_AMP_EVA_AWA_CON	16	Rpleas_acq	Oppo	Rpleas	Amasked	CS_A	1pleas	distractor1	EVAbeforeCON	acq_new_unple_masked	acq1_masked	1	2	0	0	300	300	0	0	439	46	0	1	0	0	0	1	blank2r.bmp	0	1	+	0	2	B2r.bmp	492	1	blank2r.bmp	786	3	B3r.bmp	786	1	blank2r.bmp	866	2	sterben	866	0	0	0	0	0	0	0	0	0	0	0	0	0	0	0	0	0	0	0	0	0	0	0	0	0	0	0	0	0	0	0	0	0
121318	15:54:31	15:55:58	86724	5.0.10.0	4_exp_AMP_EVA_AWA_CON	16	Rpleas_acq	Oppo	Rpleas	Amasked	CS_A	1pleas	distractor1	EVAbeforeCON	acq_US_pleas_masked	acq1_masked	1	3	0	0	300	300	0	0	474	50	0	1	0	0	0	1	blank2r.bmp	0	1	+	0	4	B4r.bmp	492	1	blank2r.bmp	786	1	CPLW	786	1	blank2r.bmp	866	6	genießen	866	0	0	0	0	0	0	0	0	0	0	0	0	0	0	0	0	0	0	0	0	0	0	0	0	0	0	0	0	0	0	0	0	0
121318	15:54:31	15:56:00	88763	5.0.10.0	4_exp_AMP_EVA_AWA_CON	16	Rpleas_acq	Oppo	Rpleas	Amasked	CS_A	1pleas	distractor1	EVAbeforeCON	acq_new_pleas_masked	acq1_masked	1	4	0	0	300	300	0	0	548	50	0	1	0	0	0	1	blank2r.bmp	0	1	+	0	3	B3r.bmp	492	1	blank2r.bmp	786	6	C2r.bmp	786	1	blank2r.bmp	866	4	vergnügt	866	0	0	0	0	0	0	0	0	0	0	0	0	0	0	0	0	0	0	0	0	0	0	0	0	0	0	0	0	0	0	0	0	0
121318	15:54:31	15:56:02	90789	5.0.10.0	4_exp_AMP_EVA_AWA_CON	16	Rpleas_acq	Oppo	Rpleas	Amasked	CS_A	1pleas	distractor1	EVAbeforeCON	acq_new_unple_masked	acq1_masked	1	5	0	0	300	300	0	0	536	46	0	1	0	0	0	1	blank2r.bmp	0	1	+	0	7	C3r.bmp	492	1	blank2r.bmp	786	5	C1r.bmp	786	1	blank2r.bmp	866	4	verbissen	866	0	0	0	0	0	0	0	0	0	0	0	0	0	0	0	0	0	0	0	0	0	0	0	0	0	0	0	0	0	0	0	0	0
121318	15:54:31	15:56:04	92841	5.0.10.0	4_exp_AMP_EVA_AWA_CON	16	Rpleas_acq	Oppo	Rpleas	Amasked	CS_A	1pleas	distractor1	EVAbeforeCON	acq_US_pleas_masked	acq1_masked	1	6	0	0	300	300	0	0	369	46	0	0	0	0	0	1	blank2r.bmp	0	1	+	0	8	C4r.bmp	492	1	blank2r.bmp	786	1	CPLW	786	1	blank2r.bmp	866	3	gesittet	866	1	FEHLER	1266	0	0	0	0	0	0	0	0	0	0	0	0	0	0	0	0	0	0	0	0	0	0	0	0	0	0	0	0	0	0
121318	15:54:31	15:56:06	94680	5.0.10.0	4_exp_AMP_EVA_AWA_CON	16	Rpleas_acq	Oppo	Rpleas	Amasked	CS_A	1pleas	distractor1	EVAbeforeCON	acq_US_unple_masked	acq1_masked	1	7	0	0	300	300	0	0	561	46	0	1	0	0	0	1	blank2r.bmp	0	1	+	0	1	B1r.bmp	492	1	blank2r.bmp	786	1	DHJF	786	1	blank2r.bmp	866	6	gemein	866	0	0	0	0	0	0	0	0	0	0	0	0	0	0	0	0	0	0	0	0	0	0	0	0	0	0	0	0	0	0	0	0	0
121318	15:54:31	15:56:08	96666	5.0.10.0	4_exp_AMP_EVA_AWA_CON	16	Rpleas_acq	Oppo	Rpleas	Amasked	CS_A	1pleas	distractor1	EVAbeforeCON	acq_US_unple_masked	acq1_masked	1	8	0	0	300	300	0	0	509	46	0	1	0	0	0	1	blank2r.bmp	0	1	+	0	6	C2r.bmp	492	1	blank2r.bmp	786	1	DHJF	786	1	blank2r.bmp	866	1	gierig	866	0	0	0	0	0	0	0	0	0	0	0	0	0	0	0	0	0	0	0	0	0	0	0	0	0	0	0	0	0	0	0	0	0
121318	15:54:31	15:56:10	98679	5.0.10.0	4_exp_AMP_EVA_AWA_CON	16	Rpleas_acq	Oppo	Rpleas	Amasked	CS_A	1pleas	distractor1	EVAbeforeCON	acq_new_unple_masked	acq1_masked	1	9	0	0	300	300	0	0	533	46	0	1	0	0	0	1	blank2r.bmp	0	1	+	0	3	B3r.bmp	492	1	blank2r.bmp	786	2	B2r.bmp	786	1	blank2r.bmp	866	5	engstirnig	866	0	0	0	0	0	0	0	0	0	0	0	0	0	0	0	0	0	0	0	0	0	0	0	0	0	0	0	0	0	0	0	0	0
121318	15:54:31	15:56:12	100784	5.0.10.0	4_exp_AMP_EVA_AWA_CON	16	Rpleas_acq	Oppo	Rpleas	Amasked	CS_A	1pleas	distractor1	EVAbeforeCON	acq_US_unple_masked	acq1_masked	1	10	0	0	300	300	0	0	433	50	0	0	0	0	0	1	blank2r.bmp	0	1	+	0	6	C2r.bmp	492	1	blank2r.bmp	786	1	DHJF	786	1	blank2r.bmp	866	3	geizig	866	1	FEHLER	1332	0	0	0	0	0	0	0	0	0	0	0	0	0	0	0	0	0	0	0	0	0	0	0	0	0	0	0	0	0	0
121318	15:54:31	15:56:14	102730	5.0.10.0	4_exp_AMP_EVA_AWA_CON	16	Rpleas_acq	Oppo	Rpleas	Amasked	CS_A	1pleas	distractor1	EVAbeforeCON	acq_new_pleas_masked	acq1_masked	1	11	0	0	300	300	0	0	653	50	0	1	0	0	0	1	blank2r.bmp	0	1	+	0	8	C4r.bmp	492	1	blank2r.bmp	786	7	C3r.bmp	786	1	blank2r.bmp	866	6	besonnen	866	0	0	0	0	0	0	0	0	0	0	0	0	0	0	0	0	0	0	0	0	0	0	0	0	0	0	0	0	0	0	0	0	0
121318	15:54:31	15:56:16	104716	5.0.10.0	4_exp_AMP_EVA_AWA_CON	16	Rpleas_acq	Oppo	Rpleas	Amasked	CS_A	1pleas	distractor1	EVAbeforeCON	acq_new_pleas_masked	acq1_masked	1	12	0	0	300	300	0	0	517	50	0	1	0	0	0	1	blank2r.bmp	0	1	+	0	1	B1r.bmp	492	1	blank2r.bmp	786	4	B4r.bmp	786	1	blank2r.bmp	866	2	sonnig	866	0	0	0	0	0	0	0	0	0	0	0	0	0	0	0	0	0	0	0	0	0	0	0	0	0	0	0	0	0	0	0	0	0
121318	15:54:31	15:56:18	106662	5.0.10.0	4_exp_AMP_EVA_AWA_CON	16	Rpleas_acq	Oppo	Rpleas	Amasked	CS_A	1pleas	distractor1	EVAbeforeCON	acq_new_unple_masked	acq1_masked	1	13	0	0	300	300	0	0	460	46	0	1	0	0	0	1	blank2r.bmp	0	1	+	0	5	C1r.bmp	492	1	blank2r.bmp	786	1	B1r.bmp	786	1	blank2r.bmp	866	1	töten	866	0	0	0	0	0	0	0	0	0	0	0	0	0	0	0	0	0	0	0	0	0	0	0	0	0	0	0	0	0	0	0	0	0
121318	15:54:31	15:56:20	108635	5.0.10.0	4_exp_AMP_EVA_AWA_CON	16	Rpleas_acq	Oppo	Rpleas	Amasked	CS_A	1pleas	distractor1	EVAbeforeCON	acq_US_pleas_masked	acq1_masked	1	14	0	0	300	300	0	0	501	50	0	1	0	0	0	1	blank2r.bmp	0	1	+	0	2	B2r.bmp	492	1	blank2r.bmp	786	1	CPLW	786	1	blank2r.bmp	866	5	kreativ	866	0	0	0	0	0	0	0	0	0	0	0	0	0	0	0	0	0	0	0	0	0	0	0	0	0	0	0	0	0	0	0	0	0
121318	15:54:31	15:56:22	110554	5.0.10.0	4_exp_AMP_EVA_AWA_CON	16	Rpleas_acq	Oppo	Rpleas	Amasked	CS_A	1pleas	distractor1	EVAbeforeCON	acq_US_unple_masked	acq1_masked	1	15	0	0	300	300	0	0	429	46	0	1	0	0	0	1	blank2r.bmp	0	1	+	0	4	B4r.bmp	492	1	blank2r.bmp	786	1	DHJF	786	1	blank2r.bmp	866	5	krank	866	0	0	0	0	0	0	0	0	0	0	0	0	0	0	0	0	0	0	0	0	0	0	0	0	0	0	0	0	0	0	0	0	0
121318	15:54:31	15:56:24	112486	5.0.10.0	4_exp_AMP_EVA_AWA_CON	16	Rpleas_acq	Oppo	Rpleas	Amasked	CS_A	1pleas	distractor1	EVAbeforeCON	acq_new_unple_masked	acq1_masked	1	16	0	0	300	300	0	0	452	46	0	1	0	0	0	1	blank2r.bmp	0	1	+	0	7	C3r.bmp	492	1	blank2r.bmp	786	8	C4r.bmp	786	1	blank2r.bmp	866	3	ausrottung	866	0	0	0	0	0	0	0	0	0	0	0	0	0	0	0	0	0	0	0	0	0	0	0	0	0	0	0	0	0	0	0	0	0
121318	15:54:31	15:56:26	114485	5.0.10.0	4_exp_AMP_EVA_AWA_CON	16	Rpleas_acq	Oppo	Rpleas	Amasked	CS_A	1pleas	distractor1	EVAbeforeCON	acq_US_pleas_masked	acq1_masked	1	17	0	0	300	300	0	0	526	50	0	1	0	0	0	1	blank2r.bmp	0	1	+	0	1	B1r.bmp	492	1	blank2r.bmp	786	1	CPLW	786	1	blank2r.bmp	866	4	vertrauen	866	0	0	0	0	0	0	0	0	0	0	0	0	0	0	0	0	0	0	0	0	0	0	0	0	0	0	0	0	0	0	0	0	0
121318	15:54:31	15:56:28	116565	5.0.10.0	4_exp_AMP_EVA_AWA_CON	16	Rpleas_acq	Oppo	Rpleas	Amasked	CS_A	1pleas	distractor1	EVAbeforeCON	acq_US_pleas_masked	acq1_masked	1	18	0	0	300	300	0	0	586	50	0	1	0	0	0	1	blank2r.bmp	0	1	+	0	6	C2r.bmp	492	1	blank2r.bmp	786	1	CPLW	786	1	blank2r.bmp	866	2	kuss	866	0	0	0	0	0	0	0	0	0	0	0	0	0	0	0	0	0	0	0	0	0	0	0	0	0	0	0	0	0	0	0	0	0
121318	15:54:31	15:56:30	118457	5.0.10.0	4_exp_AMP_EVA_AWA_CON	16	Rpleas_acq	Oppo	Rpleas	Amasked	CS_A	1pleas	distractor1	EVAbeforeCON	acq_US_unple_masked	acq1_masked	1	19	0	0	300	300	0	0	408	46	0	1	0	0	0	1	blank2r.bmp	0	1	+	0	3	B3r.bmp	492	1	blank2r.bmp	786	1	DHJF	786	1	blank2r.bmp	866	4	versagen	866	0	0	0	0	0	0	0	0	0	0	0	0	0	0	0	0	0	0	0	0	0	0	0	0	0	0	0	0	0	0	0	0	0
121318	15:54:31	15:56:32	120430	5.0.10.0	4_exp_AMP_EVA_AWA_CON	16	Rpleas_acq	Oppo	Rpleas	Amasked	CS_A	1pleas	distractor1	EVAbeforeCON	acq_new_pleas_masked	acq1_masked	1	20	0	0	300	300	0	0	502	50	0	1	0	0	0	1	blank2r.bmp	0	1	+	0	4	B4r.bmp	492	1	blank2r.bmp	786	5	C1r.bmp	786	1	blank2r.bmp	866	3	anregung	866	0	0	0	0	0	0	0	0	0	0	0	0	0	0	0	0	0	0	0	0	0	0	0	0	0	0	0	0	0	0	0	0	0
121318	15:54:31	15:56:34	122442	5.0.10.0	4_exp_AMP_EVA_AWA_CON	16	Rpleas_acq	Oppo	Rpleas	Amasked	CS_A	1pleas	distractor1	EVAbeforeCON	acq_new_pleas_masked	acq1_masked	1	21	0	0	300	300	0	0	526	50	0	1	0	0	0	1	blank2r.bmp	0	1	+	0	7	C3r.bmp	492	1	blank2r.bmp	786	4	B4r.bmp	786	1	blank2r.bmp	866	5	engagiert	866	0	0	0	0	0	0	0	0	0	0	0	0	0	0	0	0	0	0	0	0	0	0	0	0	0	0	0	0	0	0	0	0	0
121318	15:54:31	15:56:36	124388	5.0.10.0	4_exp_AMP_EVA_AWA_CON	16	Rpleas_acq	Oppo	Rpleas	Amasked	CS_A	1pleas	distractor1	EVAbeforeCON	acq_new_pleas_masked	acq1_masked	1	22	0	0	300	300	0	0	464	50	0	1	0	0	0	1	blank2r.bmp	0	1	+	0	8	C4r.bmp	492	1	blank2r.bmp	786	6	C2r.bmp	786	1	blank2r.bmp	866	1	träumen	866	0	0	0	0	0	0	0	0	0	0	0	0	0	0	0	0	0	0	0	0	0	0	0	0	0	0	0	0	0	0	0	0	0
121318	15:54:31	15:56:38	126281	5.0.10.0	4_exp_AMP_EVA_AWA_CON	16	Rpleas_acq	Oppo	Rpleas	Amasked	CS_A	1pleas	distractor1	EVAbeforeCON	acq_US_unple_masked	acq1_masked	1	23	0	0	300	300	0	0	407	46	0	1	0	0	0	1	blank2r.bmp	0	1	+	0	5	C1r.bmp	492	1	blank2r.bmp	786	1	DHJF	786	1	blank2r.bmp	866	2	krise	866	0	0	0	0	0	0	0	0	0	0	0	0	0	0	0	0	0	0	0	0	0	0	0	0	0	0	0	0	0	0	0	0	0
121318	15:54:31	15:56:40	128333	5.0.10.0	4_exp_AMP_EVA_AWA_CON	16	Rpleas_acq	Oppo	Rpleas	Amasked	CS_A	1pleas	distractor1	EVAbeforeCON	acq_new_unple_masked	acq1_masked	1	24	0	0	300	300	0	0	559	46	0	1	0	0	0	1	blank2r.bmp	0	1	+	0	2	B2r.bmp	492	1	blank2r.bmp	786	7	C3r.bmp	786	1	blank2r.bmp	866	6	bange	866	0	0	0	0	0	0	0	0	0	0	0	0	0	0	0	0	0	0	0	0	0	0	0	0	0	0	0	0	0	0	0	0	0
121318	15:54:31	15:56:42	130346	5.0.10.0	4_exp_AMP_EVA_AWA_CON	16	Rpleas_acq	Oppo	Rpleas	Amasked	CS_A	1pleas	distractor1	EVAbeforeCON	acq_new_pleas_masked	acq1_masked	1	25	0	0	300	300	0	0	543	50	0	1	0	0	0	1	blank2r.bmp	0	1	+	0	5	C1r.bmp	492	1	blank2r.bmp	786	8	C4r.bmp	786	1	blank2r.bmp	866	1	träumen	866	0	0	0	0	0	0	0	0	0	0	0	0	0	0	0	0	0	0	0	0	0	0	0	0	0	0	0	0	0	0	0	0	0
121318	15:54:31	15:56:44	132505	5.0.10.0	4_exp_AMP_EVA_AWA_CON	16	Rpleas_acq	Oppo	Rpleas	Amasked	CS_A	1pleas	distractor1	EVAbeforeCON	acq_US_pleas_masked	acq1_masked	1	26	0	0	300	300	0	0	669	50	0	1	0	0	0	1	blank2r.bmp	0	1	+	0	4	B4r.bmp	492	1	blank2r.bmp	786	1	CPLW	786	1	blank2r.bmp	866	3	gesittet	866	0	0	0	0	0	0	0	0	0	0	0	0	0	0	0	0	0	0	0	0	0	0	0	0	0	0	0	0	0	0	0	0	0
121318	15:54:31	15:56:46	134397	5.0.10.0	4_exp_AMP_EVA_AWA_CON	16	Rpleas_acq	Oppo	Rpleas	Amasked	CS_A	1pleas	distractor1	EVAbeforeCON	acq_new_unple_masked	acq1_masked	1	27	0	0	300	300	0	0	399	46	0	1	0	0	0	1	blank2r.bmp	0	1	+	0	1	B1r.bmp	492	1	blank2r.bmp	786	2	B2r.bmp	786	1	blank2r.bmp	866	1	töten	866	0	0	0	0	0	0	0	0	0	0	0	0	0	0	0	0	0	0	0	0	0	0	0	0	0	0	0	0	0	0	0	0	0
121318	15:54:31	15:56:48	136383	5.0.10.0	4_exp_AMP_EVA_AWA_CON	16	Rpleas_acq	Oppo	Rpleas	Amasked	CS_A	1pleas	distractor1	EVAbeforeCON	acq_US_unple_masked	acq1_masked	1	28	0	0	300	300	0	0	504	46	0	1	0	0	0	1	blank2r.bmp	0	1	+	0	7	C3r.bmp	492	1	blank2r.bmp	786	1	DHJF	786	1	blank2r.bmp	866	1	gierig	866	0	0	0	0	0	0	0	0	0	0	0	0	0	0	0	0	0	0	0	0	0	0	0	0	0	0	0	0	0	0	0	0	0
121318	15:54:31	15:56:50	138356	5.0.10.0	4_exp_AMP_EVA_AWA_CON	16	Rpleas_acq	Oppo	Rpleas	Amasked	CS_A	1pleas	distractor1	EVAbeforeCON	acq_new_pleas_masked	acq1_masked	1	29	0	0	300	300	0	0	486	50	0	1	0	0	0	1	blank2r.bmp	0	1	+	0	8	C4r.bmp	492	1	blank2r.bmp	786	3	B3r.bmp	786	1	blank2r.bmp	866	6	besonnen	866	0	0	0	0	0	0	0	0	0	0	0	0	0	0	0	0	0	0	0	0	0	0	0	0	0	0	0	0	0	0	0	0	0
121318	15:54:31	15:56:52	140341	5.0.10.0	4_exp_AMP_EVA_AWA_CON	16	Rpleas_acq	Oppo	Rpleas	Amasked	CS_A	1pleas	distractor1	EVAbeforeCON	acq_US_pleas_masked	acq1_masked	1	30	0	0	300	300	0	0	495	50	0	1	0	0	0	1	blank2r.bmp	0	1	+	0	6	C2r.bmp	492	1	blank2r.bmp	786	1	CPLW	786	1	blank2r.bmp	866	5	kreativ	866	0	0	0	0	0	0	0	0	0	0	0	0	0	0	0	0	0	0	0	0	0	0	0	0	0	0	0	0	0	0	0	0	0
121318	15:54:31	15:56:54	142234	5.0.10.0	4_exp_AMP_EVA_AWA_CON	16	Rpleas_acq	Oppo	Rpleas	Amasked	CS_A	1pleas	distractor1	EVAbeforeCON	acq_new_unple_masked	acq1_masked	1	31	0	0	300	300	0	0	423	46	0	1	0	0	0	1	blank2r.bmp	0	1	+	0	2	B2r.bmp	492	1	blank2r.bmp	786	1	B1r.bmp	786	1	blank2r.bmp	866	6	bange	866	0	0	0	0	0	0	0	0	0	0	0	0	0	0	0	0	0	0	0	0	0	0	0	0	0	0	0	0	0	0	0	0	0
121318	15:54:31	15:56:56	144300	5.0.10.0	4_exp_AMP_EVA_AWA_CON	16	Rpleas_acq	Oppo	Rpleas	Amasked	CS_A	1pleas	distractor1	EVAbeforeCON	acq_US_unple_masked	acq1_masked	1	32	0	0	300	300	0	0	572	46	0	1	0	0	0	1	blank2r.bmp	0	1	+	0	3	B3r.bmp	492	1	blank2r.bmp	786	1	DHJF	786	1	blank2r.bmp	866	5	krank	866	0	0	0	0	0	0	0	0	0	0	0	0	0	0	0	0	0	0	0	0	0	0	0	0	0	0	0	0	0	0	0	0	0
121318	15:54:31	15:56:58	146219	5.0.10.0	4_exp_AMP_EVA_AWA_CON	16	Rpleas_acq	Oppo	Rpleas	Amasked	CS_A	1pleas	distractor1	EVAbeforeCON	acq_US_pleas_masked	acq1_masked	1	33	0	0	300	300	0	0	442	50	0	1	0	0	0	1	blank2r.bmp	0	1	+	0	8	C4r.bmp	492	1	blank2r.bmp	786	1	CPLW	786	1	blank2r.bmp	866	1	gütig	866	0	0	0	0	0	0	0	0	0	0	0	0	0	0	0	0	0	0	0	0	0	0	0	0	0	0	0	0	0	0	0	0	0
121318	15:54:31	15:57:00	148405	5.0.10.0	4_exp_AMP_EVA_AWA_CON	16	Rpleas_acq	Oppo	Rpleas	Amasked	CS_A	1pleas	distractor1	EVAbeforeCON	acq_US_unple_masked	acq1_masked	1	34	0	0	300	300	0	0	695	46	0	1	0	0	0	1	blank2r.bmp	0	1	+	0	3	B3r.bmp	492	1	blank2r.bmp	786	1	DHJF	786	1	blank2r.bmp	866	6	gemein	866	0	0	0	0	0	0	0	0	0	0	0	0	0	0	0	0	0	0	0	0	0	0	0	0	0	0	0	0	0	0	0	0	0
121318	15:54:31	15:57:02	150431	5.0.10.0	4_exp_AMP_EVA_AWA_CON	16	Rpleas_acq	Oppo	Rpleas	Amasked	CS_A	1pleas	distractor1	EVAbeforeCON	acq_new_pleas_masked	acq1_masked	1	35	0	0	300	300	0	0	531	50	0	1	0	0	0	1	blank2r.bmp	0	1	+	0	7	C3r.bmp	492	1	blank2r.bmp	786	4	B4r.bmp	786	1	blank2r.bmp	866	4	vergnügt	866	0	0	0	0	0	0	0	0	0	0	0	0	0	0	0	0	0	0	0	0	0	0	0	0	0	0	0	0	0	0	0	0	0
121318	15:54:31	15:57:04	152403	5.0.10.0	4_exp_AMP_EVA_AWA_CON	16	Rpleas_acq	Oppo	Rpleas	Amasked	CS_A	1pleas	distractor1	EVAbeforeCON	acq_new_unple_masked	acq1_masked	1	36	0	0	300	300	0	0	501	46	0	1	0	0	0	1	blank2r.bmp	0	1	+	0	5	C1r.bmp	492	1	blank2r.bmp	786	8	C4r.bmp	786	1	blank2r.bmp	866	2	sterben	866	0	0	0	0	0	0	0	0	0	0	0	0	0	0	0	0	0	0	0	0	0	0	0	0	0	0	0	0	0	0	0	0	0
121318	15:54:31	15:57:36	184523	5.0.10.0	4_exp_AMP_EVA_AWA_CON	16	Rpleas_acq	Oppo	Rpleas	Amasked	CS_A	1pleas	distractor1	EVAbeforeCON	acq_new_unple_masked	acq2_masked	2	1	480	0	300	300	0	0	3270	46	0	1	0	0	0	1	blank2r.bmp	0	1	+	0	6	C2r.bmp	492	1	blank2r.bmp	786	3	B3r.bmp	786	1	blank2r.bmp	866	5	engstirnig	866	1	!	1319	1	!	-1	0	0	0	0	0	0	0	0	0	0	0	0	0	0	0	0	0	0	0	0	0	0	0	0	0	0	0
121318	15:54:31	15:57:38	186682	5.0.10.0	4_exp_AMP_EVA_AWA_CON	16	Rpleas_acq	Oppo	Rpleas	Amasked	CS_A	1pleas	distractor1	EVAbeforeCON	acq_new_pleas_masked	acq2_masked	2	2	480	0	300	300	0	0	384	50	0	1	0	0	0	1	blank2r.bmp	0	1	+	0	1	B1r.bmp	492	1	blank2r.bmp	786	6	C2r.bmp	786	1	blank2r.bmp	866	3	anregung	866	1	!	-1	1	!	-1	0	0	0	0	0	0	0	0	0	0	0	0	0	0	0	0	0	0	0	0	0	0	0	0	0	0	0
121318	15:54:31	15:57:41	189188	5.0.10.0	4_exp_AMP_EVA_AWA_CON	16	Rpleas_acq	Oppo	Rpleas	Amasked	CS_A	1pleas	distractor1	EVAbeforeCON	acq_US_pleas_masked	acq2_masked	2	3	480	0	300	300	0	0	729	50	0	1	0	0	0	1	blank2r.bmp	0	1	+	0	2	B2r.bmp	492	1	blank2r.bmp	786	1	CPLW	786	1	blank2r.bmp	866	6	genießen	866	1	!	1319	1	!	-1	0	0	0	0	0	0	0	0	0	0	0	0	0	0	0	0	0	0	0	0	0	0	0	0	0	0	0
121318	15:54:31	15:57:43	191600	5.0.10.0	4_exp_AMP_EVA_AWA_CON	16	Rpleas_acq	Oppo	Rpleas	Amasked	CS_A	1pleas	distractor1	EVAbeforeCON	acq_US_pleas_masked	acq2_masked	2	4	480	0	300	300	0	0	401	46	0	0	0	0	0	1	blank2r.bmp	0	1	+	0	4	B4r.bmp	492	1	blank2r.bmp	786	1	CPLW	786	1	blank2r.bmp	866	4	vertrauen	866	1	FEHLER	1612	1	!	-1	1	!	-1	0	0	0	0	0	0	0	0	0	0	0	0	0	0	0	0	0	0	0	0	0	0	0	0
121318	15:54:31	15:57:45	193720	5.0.10.0	4_exp_AMP_EVA_AWA_CON	16	Rpleas_acq	Oppo	Rpleas	Amasked	CS_A	1pleas	distractor1	EVAbeforeCON	acq_new_unple_masked	acq2_masked	2	5	480	0	300	300	0	0	562	46	0	1	0	0	0	1	blank2r.bmp	0	1	+	0	1	B1r.bmp	492	1	blank2r.bmp	786	5	C1r.bmp	786	1	blank2r.bmp	866	3	ausrottung	866	1	!	1319	1	!	-1	0	0	0	0	0	0	0	0	0	0	0	0	0	0	0	0	0	0	0	0	0	0	0	0	0	0	0
121318	15:54:31	15:57:47	195892	5.0.10.0	4_exp_AMP_EVA_AWA_CON	16	Rpleas_acq	Oppo	Rpleas	Amasked	CS_A	1pleas	distractor1	EVAbeforeCON	acq_US_unple_masked	acq2_masked	2	6	480	0	300	300	0	0	386	46	0	1	0	0	0	1	blank2r.bmp	0	1	+	0	4	B4r.bmp	492	1	blank2r.bmp	786	1	DHJF	786	1	blank2r.bmp	866	3	geizig	866	1	!	-1	1	!	-1	0	0	0	0	0	0	0	0	0	0	0	0	0	0	0	0	0	0	0	0	0	0	0	0	0	0	0
121318	15:54:31	15:57:50	198358	5.0.10.0	4_exp_AMP_EVA_AWA_CON	16	Rpleas_acq	Oppo	Rpleas	Amasked	CS_A	1pleas	distractor1	EVAbeforeCON	acq_new_pleas_masked	acq2_masked	2	7	480	0	300	300	0	0	673	50	0	1	0	0	0	1	blank2r.bmp	0	1	+	0	7	C3r.bmp	492	1	blank2r.bmp	786	2	B2r.bmp	786	1	blank2r.bmp	866	5	engagiert	866	1	!	1319	1	!	-1	0	0	0	0	0	0	0	0	0	0	0	0	0	0	0	0	0	0	0	0	0	0	0	0	0	0	0
121318	15:54:31	15:57:52	200717	5.0.10.0	4_exp_AMP_EVA_AWA_CON	16	Rpleas_acq	Oppo	Rpleas	Amasked	CS_A	1pleas	distractor1	EVAbeforeCON	acq_US_pleas_masked	acq2_masked	2	8	480	0	300	300	0	0	567	50	0	1	0	0	0	1	blank2r.bmp	0	1	+	0	5	C1r.bmp	492	1	blank2r.bmp	786	1	CPLW	786	1	blank2r.bmp	866	2	kuss	866	1	!	1319	1	!	-1	0	0	0	0	0	0	0	0	0	0	0	0	0	0	0	0	0	0	0	0	0	0	0	0	0	0	0
121318	15:54:31	15:57:54	202889	5.0.10.0	4_exp_AMP_EVA_AWA_CON	16	Rpleas_acq	Oppo	Rpleas	Amasked	CS_A	1pleas	distractor1	EVAbeforeCON	acq_new_unple_masked	acq2_masked	2	9	480	0	300	300	0	0	387	46	0	1	0	0	0	1	blank2r.bmp	0	1	+	0	2	B2r.bmp	492	1	blank2r.bmp	786	7	C3r.bmp	786	1	blank2r.bmp	866	4	verbissen	866	1	!	-1	1	!	-1	0	0	0	0	0	0	0	0	0	0	0	0	0	0	0	0	0	0	0	0	0	0	0	0	0	0	0
121318	15:54:31	15:57:57	205328	5.0.10.0	4_exp_AMP_EVA_AWA_CON	16	Rpleas_acq	Oppo	Rpleas	Amasked	CS_A	1pleas	distractor1	EVAbeforeCON	acq_US_unple_masked	acq2_masked	2	10	480	0	300	300	0	0	657	46	0	1	0	0	0	1	blank2r.bmp	0	1	+	0	3	B3r.bmp	492	1	blank2r.bmp	786	1	DHJF	786	1	blank2r.bmp	866	2	krise	866	1	!	1319	1	!	-1	0	0	0	0	0	0	0	0	0	0	0	0	0	0	0	0	0	0	0	0	0	0	0	0	0	0	0
121318	15:54:31	15:57:59	207567	5.0.10.0	4_exp_AMP_EVA_AWA_CON	16	Rpleas_acq	Oppo	Rpleas	Amasked	CS_A	1pleas	distractor1	EVAbeforeCON	acq_new_pleas_masked	acq2_masked	2	11	480	1	300	300	0	0	426	50	0	1	0	0	0	1	blank2r.bmp	0	1	+	0	8	C4r.bmp	492	1	blank2r.bmp	786	1	B1r.bmp	786	1	blank2r.bmp	866	2	sonnig	866	1	!	1319	1	!	1332	0	0	0	0	0	0	0	0	0	0	0	0	0	0	0	0	0	0	0	0	0	0	0	0	0	0	0
121318	15:54:31	15:58:01	209900	5.0.10.0	4_exp_AMP_EVA_AWA_CON	16	Rpleas_acq	Oppo	Rpleas	Amasked	CS_A	1pleas	distractor1	EVAbeforeCON	acq_US_unple_masked	acq2_masked	2	12	480	1	300	300	0	0	542	46	0	1	0	0	0	1	blank2r.bmp	0	1	+	0	6	C2r.bmp	492	1	blank2r.bmp	786	1	DHJF	786	1	blank2r.bmp	866	4	versagen	866	1	!	1319	1	!	1439	0	0	0	0	0	0	0	0	0	0	0	0	0	0	0	0	0	0	0	0	0	0	0	0	0	0	0
121318	15:54:31	15:58:04	212245	5.0.10.0	4_exp_AMP_EVA_AWA_CON	16	Rpleas_acq	Oppo	Rpleas	Amasked	CS_A	1pleas	distractor1	EVAbeforeCON	acq_new_unple_masked	acq2_masked	2	13	480	0	300	300	0	0	567	46	0	1	0	0	0	1	blank2r.bmp	0	1	+	0	1	B1r.bmp	492	1	blank2r.bmp	786	8	C4r.bmp	786	1	blank2r.bmp	866	5	engstirnig	866	1	!	1319	1	!	-1	0	0	0	0	0	0	0	0	0	0	0	0	0	0	0	0	0	0	0	0	0	0	0	0	0	0	0
121318	15:54:31	15:58:06	214591	5.0.10.0	4_exp_AMP_EVA_AWA_CON	16	Rpleas_acq	Oppo	Rpleas	Amasked	CS_A	1pleas	distractor1	EVAbeforeCON	acq_US_pleas_masked	acq2_masked	2	14	480	0	300	300	0	0	559	50	0	1	0	0	0	1	blank2r.bmp	0	1	+	0	6	C2r.bmp	492	1	blank2r.bmp	786	1	CPLW	786	1	blank2r.bmp	866	2	kuss	866	1	!	1319	1	!	-1	0	0	0	0	0	0	0	0	0	0	0	0	0	0	0	0	0	0	0	0	0	0	0	0	0	0	0
121318	15:54:31	15:58:08	216950	5.0.10.0	4_exp_AMP_EVA_AWA_CON	16	Rpleas_acq	Oppo	Rpleas	Amasked	CS_A	1pleas	distractor1	EVAbeforeCON	acq_new_pleas_masked	acq2_masked	2	15	480	0	300	300	0	0	356	46	0	0	0	0	0	1	blank2r.bmp	0	1	+	0	3	B3r.bmp	492	1	blank2r.bmp	786	2	B2r.bmp	786	1	blank2r.bmp	866	1	träumen	866	1	FEHLER	1559	1	!	-1	1	!	-1	0	0	0	0	0	0	0	0	0	0	0	0	0	0	0	0	0	0	0	0	0	0	0	0
121318	15:54:31	15:58:11	219109	5.0.10.0	4_exp_AMP_EVA_AWA_CON	16	Rpleas_acq	Oppo	Rpleas	Amasked	CS_A	1pleas	distractor1	EVAbeforeCON	acq_US_pleas_masked	acq2_masked	2	16	480	0	300	300	0	0	599	50	0	1	0	0	0	1	blank2r.bmp	0	1	+	0	5	C1r.bmp	492	1	blank2r.bmp	786	1	CPLW	786	1	blank2r.bmp	866	5	kreativ	866	1	!	1319	1	!	-1	0	0	0	0	0	0	0	0	0	0	0	0	0	0	0	0	0	0	0	0	0	0	0	0	0	0	0
121318	15:54:31	15:58:13	221455	5.0.10.0	4_exp_AMP_EVA_AWA_CON	16	Rpleas_acq	Oppo	Rpleas	Amasked	CS_A	1pleas	distractor1	EVAbeforeCON	acq_US_unple_masked	acq2_masked	2	17	480	1	300	300	0	0	536	46	0	1	0	0	0	1	blank2r.bmp	0	1	+	0	7	C3r.bmp	492	1	blank2r.bmp	786	1	DHJF	786	1	blank2r.bmp	866	2	krise	866	1	!	1319	1	!	1439	0	0	0	0	0	0	0	0	0	0	0	0	0	0	0	0	0	0	0	0	0	0	0	0	0	0	0
121318	15:54:31	15:58:15	223787	5.0.10.0	4_exp_AMP_EVA_AWA_CON	16	Rpleas_acq	Oppo	Rpleas	Amasked	CS_A	1pleas	distractor1	EVAbeforeCON	acq_US_unple_masked	acq2_masked	2	18	480	1	300	300	0	0	540	46	0	1	0	0	0	1	blank2r.bmp	0	1	+	0	8	C4r.bmp	492	1	blank2r.bmp	786	1	DHJF	786	1	blank2r.bmp	866	1	gierig	866	1	!	1319	1	!	1439	0	0	0	0	0	0	0	0	0	0	0	0	0	0	0	0	0	0	0	0	0	0	0	0	0	0	0
121318	15:54:31	15:58:18	226173	5.0.10.0	4_exp_AMP_EVA_AWA_CON	16	Rpleas_acq	Oppo	Rpleas	Amasked	CS_A	1pleas	distractor1	EVAbeforeCON	acq_new_unple_masked	acq2_masked	2	19	480	0	300	300	0	0	619	46	0	1	0	0	0	1	blank2r.bmp	0	1	+	0	2	B2r.bmp	492	1	blank2r.bmp	786	3	B3r.bmp	786	1	blank2r.bmp	866	4	verbissen	866	1	!	1319	1	!	-1	0	0	0	0	0	0	0	0	0	0	0	0	0	0	0	0	0	0	0	0	0	0	0	0	0	0	0
121318	15:54:31	15:58:20	228519	5.0.10.0	4_exp_AMP_EVA_AWA_CON	16	Rpleas_acq	Oppo	Rpleas	Amasked	CS_A	1pleas	distractor1	EVAbeforeCON	acq_US_unple_masked	acq2_masked	2	20	480	1	300	300	0	0	520	46	0	1	0	0	0	1	blank2r.bmp	0	1	+	0	4	B4r.bmp	492	1	blank2r.bmp	786	1	DHJF	786	1	blank2r.bmp	866	3	geizig	866	1	!	1319	1	!	1426	0	0	0	0	0	0	0	0	0	0	0	0	0	0	0	0	0	0	0	0	0	0	0	0	0	0	0
121318	15:54:31	15:58:22	230744	5.0.10.0	4_exp_AMP_EVA_AWA_CON	16	Rpleas_acq	Oppo	Rpleas	Amasked	CS_A	1pleas	distractor1	EVAbeforeCON	acq_new_pleas_masked	acq2_masked	2	21	480	1	300	300	0	0	431	50	0	1	0	0	0	1	blank2r.bmp	0	1	+	0	4	B4r.bmp	492	1	blank2r.bmp	786	6	C2r.bmp	786	1	blank2r.bmp	866	4	vergnügt	866	1	!	1319	1	!	1332	0	0	0	0	0	0	0	0	0	0	0	0	0	0	0	0	0	0	0	0	0	0	0	0	0	0	0
121318	15:54:31	15:58:25	233077	5.0.10.0	4_exp_AMP_EVA_AWA_CON	16	Rpleas_acq	Oppo	Rpleas	Amasked	CS_A	1pleas	distractor1	EVAbeforeCON	acq_new_pleas_masked	acq2_masked	2	22	480	0	300	300	0	0	559	50	0	1	0	0	0	1	blank2r.bmp	0	1	+	0	3	B3r.bmp	492	1	blank2r.bmp	786	7	C3r.bmp	786	1	blank2r.bmp	866	6	besonnen	866	1	!	1319	1	!	-1	0	0	0	0	0	0	0	0	0	0	0	0	0	0	0	0	0	0	0	0	0	0	0	0	0	0	0
121318	15:54:31	15:58:27	235529	5.0.10.0	4_exp_AMP_EVA_AWA_CON	16	Rpleas_acq	Oppo	Rpleas	Amasked	CS_A	1pleas	distractor1	EVAbeforeCON	acq_US_pleas_masked	acq2_masked	2	23	480	1	300	300	0	0	426	46	0	0	0	0	0	1	blank2r.bmp	0	1	+	0	6	C2r.bmp	492	1	blank2r.bmp	786	1	CPLW	786	1	blank2r.bmp	866	1	gütig	866	1	FEHLER	1652	1	!	1319	1	!	1332	0	0	0	0	0	0	0	0	0	0	0	0	0	0	0	0	0	0	0	0	0	0	0	0
121318	15:54:31	15:58:29	237755	5.0.10.0	4_exp_AMP_EVA_AWA_CON	16	Rpleas_acq	Oppo	Rpleas	Amasked	CS_A	1pleas	distractor1	EVAbeforeCON	acq_new_unple_masked	acq2_masked	2	24	480	1	300	300	0	0	427	50	0	0	0	0	0	1	blank2r.bmp	0	1	+	0	2	B2r.bmp	492	1	blank2r.bmp	786	5	C1r.bmp	786	1	blank2r.bmp	866	1	töten	866	1	FEHLER	1652	1	!	1319	1	!	1332	0	0	0	0	0	0	0	0	0	0	0	0	0	0	0	0	0	0	0	0	0	0	0	0
121318	15:54:31	15:58:32	240100	5.0.10.0	4_exp_AMP_EVA_AWA_CON	16	Rpleas_acq	Oppo	Rpleas	Amasked	CS_A	1pleas	distractor1	EVAbeforeCON	acq_US_unple_masked	acq2_masked	2	25	480	1	300	300	0	0	534	50	0	0	0	0	0	1	blank2r.bmp	0	1	+	0	5	C1r.bmp	492	1	blank2r.bmp	786	1	DHJF	786	1	blank2r.bmp	866	6	gemein	866	1	FEHLER	1759	1	!	1319	1	!	1439	0	0	0	0	0	0	0	0	0	0	0	0	0	0	0	0	0	0	0	0	0	0	0	0
121318	15:54:31	15:58:34	242419	5.0.10.0	4_exp_AMP_EVA_AWA_CON	16	Rpleas_acq	Oppo	Rpleas	Amasked	CS_A	1pleas	distractor1	EVAbeforeCON	acq_new_pleas_masked	acq2_masked	2	26	480	1	300	300	0	0	526	46	0	0	0	0	0	1	blank2r.bmp	0	1	+	0	1	B1r.bmp	492	1	blank2r.bmp	786	4	B4r.bmp	786	1	blank2r.bmp	866	3	anregung	866	1	FEHLER	1745	1	!	1319	1	!	1426	0	0	0	0	0	0	0	0	0	0	0	0	0	0	0	0	0	0	0	0	0	0	0	0
121318	15:54:31	15:58:36	244632	5.0.10.0	4_exp_AMP_EVA_AWA_CON	16	Rpleas_acq	Oppo	Rpleas	Amasked	CS_A	1pleas	distractor1	EVAbeforeCON	acq_US_unple_masked	acq2_masked	2	27	480	0	300	300	0	0	644	46	0	1	0	0	0	1	blank2r.bmp	0	1	+	0	7	C3r.bmp	492	1	blank2r.bmp	786	1	DHJF	786	1	blank2r.bmp	866	5	krank	866	1	!	1319	1	!	-1	0	0	0	0	0	0	0	0	0	0	0	0	0	0	0	0	0	0	0	0	0	0	0	0	0	0	0
121318	15:54:31	15:58:38	246884	5.0.10.0	4_exp_AMP_EVA_AWA_CON	16	Rpleas_acq	Oppo	Rpleas	Amasked	CS_A	1pleas	distractor1	EVAbeforeCON	acq_new_unple_masked	acq2_masked	2	28	480	1	300	300	0	0	444	46	0	1	0	0	0	1	blank2r.bmp	0	1	+	0	8	C4r.bmp	492	1	blank2r.bmp	786	1	B1r.bmp	786	1	blank2r.bmp	866	2	sterben	866	1	!	1319	1	!	1346	0	0	0	0	0	0	0	0	0	0	0	0	0	0	0	0	0	0	0	0	0	0	0	0	0	0	0
121318	15:54:31	15:58:41	249230	5.0.10.0	4_exp_AMP_EVA_AWA_CON	16	Rpleas_acq	Oppo	Rpleas	Amasked	CS_A	1pleas	distractor1	EVAbeforeCON	acq_US_pleas_masked	acq2_masked	2	29	480	0	300	300	0	0	580	50	0	1	0	0	0	1	blank2r.bmp	0	1	+	0	8	C4r.bmp	492	1	blank2r.bmp	786	1	CPLW	786	1	blank2r.bmp	866	6	genießen	866	1	!	1319	1	!	-1	0	0	0	0	0	0	0	0	0	0	0	0	0	0	0	0	0	0	0	0	0	0	0	0	0	0	0
121318	15:54:31	15:58:43	251549	5.0.10.0	4_exp_AMP_EVA_AWA_CON	16	Rpleas_acq	Oppo	Rpleas	Amasked	CS_A	1pleas	distractor1	EVAbeforeCON	acq_new_unple_masked	acq2_masked	2	30	480	1	300	300	0	0	492	46	0	1	0	0	0	1	blank2r.bmp	0	1	+	0	6	C2r.bmp	492	1	blank2r.bmp	786	7	C3r.bmp	786	1	blank2r.bmp	866	3	ausrottung	866	1	!	1319	1	!	1399	0	0	0	0	0	0	0	0	0	0	0	0	0	0	0	0	0	0	0	0	0	0	0	0	0	0	0
121318	15:54:31	15:58:45	253841	5.0.10.0	4_exp_AMP_EVA_AWA_CON	16	Rpleas_acq	Oppo	Rpleas	Amasked	CS_A	1pleas	distractor1	EVAbeforeCON	acq_US_pleas_masked	acq2_masked	2	31	480	1	300	300	0	0	503	50	0	1	0	0	0	1	blank2r.bmp	0	1	+	0	2	B2r.bmp	492	1	blank2r.bmp	786	1	CPLW	786	1	blank2r.bmp	866	4	vertrauen	866	1	!	1319	1	!	1399	0	0	0	0	0	0	0	0	0	0	0	0	0	0	0	0	0	0	0	0	0	0	0	0	0	0	0
121318	15:54:31	15:58:48	256267	5.0.10.0	4_exp_AMP_EVA_AWA_CON	16	Rpleas_acq	Oppo	Rpleas	Amasked	CS_A	1pleas	distractor1	EVAbeforeCON	acq_US_pleas_masked	acq2_masked	2	32	480	0	300	300	0	0	653	50	0	1	0	0	0	1	blank2r.bmp	0	1	+	0	3	B3r.bmp	492	1	blank2r.bmp	786	1	CPLW	786	1	blank2r.bmp	866	3	gesittet	866	1	!	1319	1	!	-1	0	0	0	0	0	0	0	0	0	0	0	0	0	0	0	0	0	0	0	0	0	0	0	0	0	0	0
121318	15:54:31	15:58:50	258639	5.0.10.0	4_exp_AMP_EVA_AWA_CON	16	Rpleas_acq	Oppo	Rpleas	Amasked	CS_A	1pleas	distractor1	EVAbeforeCON	acq_US_unple_masked	acq2_masked	2	33	480	0	300	300	0	0	586	46	0	1	0	0	0	1	blank2r.bmp	0	1	+	0	7	C3r.bmp	492	1	blank2r.bmp	786	1	DHJF	786	1	blank2r.bmp	866	4	versagen	866	1	!	1319	1	!	-1	0	0	0	0	0	0	0	0	0	0	0	0	0	0	0	0	0	0	0	0	0	0	0	0	0	0	0
121318	15:54:31	15:58:52	260892	5.0.10.0	4_exp_AMP_EVA_AWA_CON	16	Rpleas_acq	Oppo	Rpleas	Amasked	CS_A	1pleas	distractor1	EVAbeforeCON	acq_new_unple_masked	acq2_masked	2	34	480	1	300	300	0	0	447	46	0	1	0	0	0	1	blank2r.bmp	0	1	+	0	5	C1r.bmp	492	1	blank2r.bmp	786	4	B4r.bmp	786	1	blank2r.bmp	866	6	bange	866	1	!	1319	1	!	1346	0	0	0	0	0	0	0	0	0	0	0	0	0	0	0	0	0	0	0	0	0	0	0	0	0	0	0
121318	15:54:31	15:58:55	263158	5.0.10.0	4_exp_AMP_EVA_AWA_CON	16	Rpleas_acq	Oppo	Rpleas	Amasked	CS_A	1pleas	distractor1	EVAbeforeCON	acq_new_pleas_masked	acq2_masked	2	35	480	1	300	300	0	0	466	50	0	1	0	0	0	1	blank2r.bmp	0	1	+	0	1	B1r.bmp	492	1	blank2r.bmp	786	5	C1r.bmp	786	1	blank2r.bmp	866	5	engagiert	866	1	!	1319	1	!	1372	0	0	0	0	0	0	0	0	0	0	0	0	0	0	0	0	0	0	0	0	0	0	0	0	0	0	0
121318	15:54:31	15:58:57	265490	5.0.10.0	4_exp_AMP_EVA_AWA_CON	16	Rpleas_acq	Oppo	Rpleas	Amasked	CS_A	1pleas	distractor1	EVAbeforeCON	acq_new_pleas_masked	acq2_masked	2	36	480	1	300	300	0	0	527	50	0	1	0	0	0	1	blank2r.bmp	0	1	+	0	4	B4r.bmp	492	1	blank2r.bmp	786	8	C4r.bmp	786	1	blank2r.bmp	866	2	sonnig	866	1	!	1319	1	!	1426	0	0	0	0	0	0	0	0	0	0	0	0	0	0	0	0	0	0	0	0	0	0	0	0	0	0	0
121318	15:54:31	15:59:11	279484	5.0.10.0	4_exp_AMP_EVA_AWA_CON	16	Rpleas_acq	Oppo	Rpleas	Amasked	CS_A	1pleas	distractor1	EVAbeforeCON	acq_US_pleas_masked	acq3_masked	3	1	453	0	300	300	0	0	532	50	0	1	0	0	0	1	blank2r.bmp	0	1	+	0	6	C2r.bmp	492	1	blank2r.bmp	786	1	CPLW	786	1	blank2r.bmp	866	5	kreativ	866	1	!	1292	1	!	-1	0	0	0	0	0	0	0	0	0	0	0	0	0	0	0	0	0	0	0	0	0	0	0	0	0	0	0
121318	15:54:31	15:59:13	281630	5.0.10.0	4_exp_AMP_EVA_AWA_CON	16	Rpleas_acq	Oppo	Rpleas	Amasked	CS_A	1pleas	distractor1	EVAbeforeCON	acq_US_unple_masked	acq3_masked	3	2	453	0	300	300	0	0	367	46	0	1	0	0	0	1	blank2r.bmp	0	1	+	0	7	C3r.bmp	492	1	blank2r.bmp	786	1	DHJF	786	1	blank2r.bmp	866	4	versagen	866	1	!	-1	1	!	-1	0	0	0	0	0	0	0	0	0	0	0	0	0	0	0	0	0	0	0	0	0	0	0	0	0	0	0
121318	15:54:31	15:59:15	283976	5.0.10.0	4_exp_AMP_EVA_AWA_CON	16	Rpleas_acq	Oppo	Rpleas	Amasked	CS_A	1pleas	distractor1	EVAbeforeCON	acq_US_unple_masked	acq3_masked	3	3	453	0	300	300	0	0	557	46	0	1	0	0	0	1	blank2r.bmp	0	1	+	0	8	C4r.bmp	492	1	blank2r.bmp	786	1	DHJF	786	1	blank2r.bmp	866	6	gemein	866	1	!	1292	1	!	-1	0	0	0	0	0	0	0	0	0	0	0	0	0	0	0	0	0	0	0	0	0	0	0	0	0	0	0
121318	15:54:31	15:59:18	286401	5.0.10.0	4_exp_AMP_EVA_AWA_CON	16	Rpleas_acq	Oppo	Rpleas	Amasked	CS_A	1pleas	distractor1	EVAbeforeCON	acq_US_unple_masked	acq3_masked	3	4	453	1	300	300	0	0	400	50	0	0	0	0	0	1	blank2r.bmp	0	1	+	0	2	B2r.bmp	492	1	blank2r.bmp	786	1	DHJF	786	1	blank2r.bmp	866	2	krise	866	1	FEHLER	1626	1	!	1292	1	!	1306	0	0	0	0	0	0	0	0	0	0	0	0	0	0	0	0	0	0	0	0	0	0	0	0
121318	15:54:31	15:59:20	288307	5.0.10.0	4_exp_AMP_EVA_AWA_CON	16	Rpleas_acq	Oppo	Rpleas	Amasked	CS_A	1pleas	distractor1	EVAbeforeCON	acq_US_pleas_masked	acq3_masked	3	5	453	0	300	300	0	0	354	50	0	1	0	0	0	1	blank2r.bmp	0	1	+	0	3	B3r.bmp	492	1	blank2r.bmp	786	1	CPLW	786	1	blank2r.bmp	866	2	kuss	866	1	!	-1	1	!	-1	0	0	0	0	0	0	0	0	0	0	0	0	0	0	0	0	0	0	0	0	0	0	0	0	0	0	0
121318	15:54:31	15:59:22	290666	5.0.10.0	4_exp_AMP_EVA_AWA_CON	16	Rpleas_acq	Oppo	Rpleas	Amasked	CS_A	1pleas	distractor1	EVAbeforeCON	acq_US_unple_masked	acq3_masked	3	6	453	0	300	300	0	0	563	46	0	1	0	0	0	1	blank2r.bmp	0	1	+	0	5	C1r.bmp	492	1	blank2r.bmp	786	1	DHJF	786	1	blank2r.bmp	866	5	krank	866	1	!	1292	1	!	-1	0	0	0	0	0	0	0	0	0	0	0	0	0	0	0	0	0	0	0	0	0	0	0	0	0	0	0
121318	15:54:31	15:59:24	292785	5.0.10.0	4_exp_AMP_EVA_AWA_CON	16	Rpleas_acq	Oppo	Rpleas	Amasked	CS_A	1pleas	distractor1	EVAbeforeCON	acq_US_unple_masked	acq3_masked	3	7	453	0	300	300	0	0	344	46	0	1	0	0	0	1	blank2r.bmp	0	1	+	0	1	B1r.bmp	492	1	blank2r.bmp	786	1	DHJF	786	1	blank2r.bmp	866	1	gierig	866	1	!	-1	1	!	-1	0	0	0	0	0	0	0	0	0	0	0	0	0	0	0	0	0	0	0	0	0	0	0	0	0	0	0
121318	15:54:31	15:59:27	295171	5.0.10.0	4_exp_AMP_EVA_AWA_CON	16	Rpleas_acq	Oppo	Rpleas	Amasked	CS_A	1pleas	distractor1	EVAbeforeCON	acq_US_pleas_masked	acq3_masked	3	8	453	0	300	300	0	0	604	50	0	1	0	0	0	1	blank2r.bmp	0	1	+	0	4	B4r.bmp	492	1	blank2r.bmp	786	1	CPLW	786	1	blank2r.bmp	866	4	vertrauen	866	1	!	1292	1	!	-1	0	0	0	0	0	0	0	0	0	0	0	0	0	0	0	0	0	0	0	0	0	0	0	0	0	0	0
121318	15:54:31	15:59:29	297450	5.0.10.0	4_exp_AMP_EVA_AWA_CON	16	Rpleas_acq	Oppo	Rpleas	Amasked	CS_A	1pleas	distractor1	EVAbeforeCON	acq_US_pleas_masked	acq3_masked	3	9	453	1	300	300	0	0	457	50	0	1	0	0	0	1	blank2r.bmp	0	1	+	0	4	B4r.bmp	492	1	blank2r.bmp	786	1	CPLW	786	1	blank2r.bmp	866	3	gesittet	866	1	!	1292	1	!	1359	0	0	0	0	0	0	0	0	0	0	0	0	0	0	0	0	0	0	0	0	0	0	0	0	0	0	0
121318	15:54:31	15:59:31	299796	5.0.10.0	4_exp_AMP_EVA_AWA_CON	16	Rpleas_acq	Oppo	Rpleas	Amasked	CS_A	1pleas	distractor1	EVAbeforeCON	acq_US_pleas_masked	acq3_masked	3	10	453	0	300	300	0	0	575	50	0	1	0	0	0	1	blank2r.bmp	0	1	+	0	2	B2r.bmp	492	1	blank2r.bmp	786	1	CPLW	786	1	blank2r.bmp	866	1	gütig	866	1	!	1292	1	!	-1	0	0	0	0	0	0	0	0	0	0	0	0	0	0	0	0	0	0	0	0	0	0	0	0	0	0	0
121318	15:54:31	15:59:34	302262	5.0.10.0	4_exp_AMP_EVA_AWA_CON	16	Rpleas_acq	Oppo	Rpleas	Amasked	CS_A	1pleas	distractor1	EVAbeforeCON	acq_US_unple_masked	acq3_masked	3	11	453	0	300	300	0	0	686	46	0	1	0	0	0	1	blank2r.bmp	0	1	+	0	6	C2r.bmp	492	1	blank2r.bmp	786	1	DHJF	786	1	blank2r.bmp	866	3	geizig	866	1	!	1292	1	!	-1	0	0	0	0	0	0	0	0	0	0	0	0	0	0	0	0	0	0	0	0	0	0	0	0	0	0	0
121318	15:54:31	15:59:36	304474	5.0.10.0	4_exp_AMP_EVA_AWA_CON	16	Rpleas_acq	Oppo	Rpleas	Amasked	CS_A	1pleas	distractor1	EVAbeforeCON	acq_US_pleas_masked	acq3_masked	3	12	453	1	300	300	0	0	402	50	0	1	0	0	0	1	blank2r.bmp	0	1	+	0	8	C4r.bmp	492	1	blank2r.bmp	786	1	CPLW	786	1	blank2r.bmp	866	6	genießen	866	1	!	1292	1	!	1306	0	0	0	0	0	0	0	0	0	0	0	0	0	0	0	0	0	0	0	0	0	0	0	0	0	0	0
121318	15:54:31	15:59:38	306753	5.0.10.0	4_exp_AMP_EVA_AWA_CON	16	Rpleas_acq	Oppo	Rpleas	Amasked	CS_A	1pleas	distractor1	EVAbeforeCON	acq_US_pleas_masked	acq3_masked	3	13	453	1	300	300	0	0	482	50	0	1	0	0	0	1	blank2r.bmp	0	1	+	0	5	C1r.bmp	492	1	blank2r.bmp	786	1	CPLW	786	1	blank2r.bmp	866	6	genießen	866	1	!	1292	1	!	1386	0	0	0	0	0	0	0	0	0	0	0	0	0	0	0	0	0	0	0	0	0	0	0	0	0	0	0
121318	15:54:31	15:59:40	308899	5.0.10.0	4_exp_AMP_EVA_AWA_CON	16	Rpleas_acq	Oppo	Rpleas	Amasked	CS_A	1pleas	distractor1	EVAbeforeCON	acq_US_pleas_masked	acq3_masked	3	14	453	0	300	300	0	0	376	50	0	1	0	0	0	1	blank2r.bmp	0	1	+	0	1	B1r.bmp	492	1	blank2r.bmp	786	1	CPLW	786	1	blank2r.bmp	866	3	gesittet	866	1	!	-1	1	!	-1	0	0	0	0	0	0	0	0	0	0	0	0	0	0	0	0	0	0	0	0	0	0	0	0	0	0	0
121318	15:54:31	15:59:43	311311	5.0.10.0	4_exp_AMP_EVA_AWA_CON	16	Rpleas_acq	Oppo	Rpleas	Amasked	CS_A	1pleas	distractor1	EVAbeforeCON	acq_US_unple_masked	acq3_masked	3	15	453	0	300	300	0	0	619	46	0	1	0	0	0	1	blank2r.bmp	0	1	+	0	3	B3r.bmp	492	1	blank2r.bmp	786	1	DHJF	786	1	blank2r.bmp	866	5	krank	866	1	!	1292	1	!	-1	0	0	0	0	0	0	0	0	0	0	0	0	0	0	0	0	0	0	0	0	0	0	0	0	0	0	0
121318	15:54:31	15:59:45	313577	5.0.10.0	4_exp_AMP_EVA_AWA_CON	16	Rpleas_acq	Oppo	Rpleas	Amasked	CS_A	1pleas	distractor1	EVAbeforeCON	acq_US_pleas_masked	acq3_masked	3	16	453	1	300	300	0	0	453	50	0	1	0	0	0	1	blank2r.bmp	0	1	+	0	7	C3r.bmp	492	1	blank2r.bmp	786	1	CPLW	786	1	blank2r.bmp	866	5	kreativ	866	1	!	1292	1	!	1359	0	0	0	0	0	0	0	0	0	0	0	0	0	0	0	0	0	0	0	0	0	0	0	0	0	0	0
121318	15:54:31	15:59:47	315896	5.0.10.0	4_exp_AMP_EVA_AWA_CON	16	Rpleas_acq	Oppo	Rpleas	Amasked	CS_A	1pleas	distractor1	EVAbeforeCON	acq_US_pleas_masked	acq3_masked	3	17	453	1	300	300	0	0	506	50	0	1	0	0	0	1	blank2r.bmp	0	1	+	0	1	B1r.bmp	492	1	blank2r.bmp	786	1	CPLW	786	1	blank2r.bmp	866	4	vertrauen	866	1	!	1292	1	!	1412	0	0	0	0	0	0	0	0	0	0	0	0	0	0	0	0	0	0	0	0	0	0	0	0	0	0	0
121318	15:54:31	15:59:50	318108	5.0.10.0	4_exp_AMP_EVA_AWA_CON	16	Rpleas_acq	Oppo	Rpleas	Amasked	CS_A	1pleas	distractor1	EVAbeforeCON	acq_US_unple_masked	acq3_masked	3	18	453	1	300	300	0	0	423	46	0	1	0	0	0	1	blank2r.bmp	0	1	+	0	8	C4r.bmp	492	1	blank2r.bmp	786	1	DHJF	786	1	blank2r.bmp	866	1	gierig	866	1	!	1292	1	!	1319	0	0	0	0	0	0	0	0	0	0	0	0	0	0	0	0	0	0	0	0	0	0	0	0	0	0	0
121318	15:54:31	15:59:52	320307	5.0.10.0	4_exp_AMP_EVA_AWA_CON	16	Rpleas_acq	Oppo	Rpleas	Amasked	CS_A	1pleas	distractor1	EVAbeforeCON	acq_US_pleas_masked	acq3_masked	3	19	453	1	300	300	0	0	408	50	0	1	0	0	0	1	blank2r.bmp	0	1	+	0	2	B2r.bmp	492	1	blank2r.bmp	786	1	CPLW	786	1	blank2r.bmp	866	2	kuss	866	1	!	1292	1	!	1306	0	0	0	0	0	0	0	0	0	0	0	0	0	0	0	0	0	0	0	0	0	0	0	0	0	0	0
121318	15:54:31	15:59:54	322573	5.0.10.0	4_exp_AMP_EVA_AWA_CON	16	Rpleas_acq	Oppo	Rpleas	Amasked	CS_A	1pleas	distractor1	EVAbeforeCON	acq_US_unple_masked	acq3_masked	3	20	453	1	300	300	0	0	471	46	0	1	0	0	0	1	blank2r.bmp	0	1	+	0	3	B3r.bmp	492	1	blank2r.bmp	786	1	DHJF	786	1	blank2r.bmp	866	6	gemein	866	1	!	1292	1	!	1372	0	0	0	0	0	0	0	0	0	0	0	0	0	0	0	0	0	0	0	0	0	0	0	0	0	0	0
121318	15:54:31	15:59:56	324972	5.0.10.0	4_exp_AMP_EVA_AWA_CON	16	Rpleas_acq	Oppo	Rpleas	Amasked	CS_A	1pleas	distractor1	EVAbeforeCON	acq_US_unple_masked	acq3_masked	3	21	453	0	300	300	0	0	630	46	0	1	0	0	0	1	blank2r.bmp	0	1	+	0	4	B4r.bmp	492	1	blank2r.bmp	786	1	DHJF	786	1	blank2r.bmp	866	3	geizig	866	1	!	1292	1	!	-1	0	0	0	0	0	0	0	0	0	0	0	0	0	0	0	0	0	0	0	0	0	0	0	0	0	0	0
121318	15:54:31	15:59:59	327438	5.0.10.0	4_exp_AMP_EVA_AWA_CON	16	Rpleas_acq	Oppo	Rpleas	Amasked	CS_A	1pleas	distractor1	EVAbeforeCON	acq_US_pleas_masked	acq3_masked	3	22	453	0	300	300	0	0	683	50	0	1	0	0	0	1	blank2r.bmp	0	1	+	0	7	C3r.bmp	492	1	blank2r.bmp	786	1	CPLW	786	1	blank2r.bmp	866	1	gütig	866	1	!	1292	1	!	-1	0	0	0	0	0	0	0	0	0	0	0	0	0	0	0	0	0	0	0	0	0	0	0	0	0	0	0
121318	15:54:31	16:00:01	329863	5.0.10.0	4_exp_AMP_EVA_AWA_CON	16	Rpleas_acq	Oppo	Rpleas	Amasked	CS_A	1pleas	distractor1	EVAbeforeCON	acq_US_unple_masked	acq3_masked	3	23	453	1	300	300	0	0	422	50	0	0	0	0	0	1	blank2r.bmp	0	1	+	0	5	C1r.bmp	492	1	blank2r.bmp	786	1	DHJF	786	1	blank2r.bmp	866	4	versagen	866	1	FEHLER	1639	1	!	1292	1	!	1319	0	0	0	0	0	0	0	0	0	0	0	0	0	0	0	0	0	0	0	0	0	0	0	0
121318	15:54:31	16:00:03	331956	5.0.10.0	4_exp_AMP_EVA_AWA_CON	16	Rpleas_acq	Oppo	Rpleas	Amasked	CS_A	1pleas	distractor1	EVAbeforeCON	acq_US_unple_masked	acq3_masked	3	24	453	1	300	300	0	0	504	46	0	1	0	0	0	1	blank2r.bmp	0	1	+	0	6	C2r.bmp	492	1	blank2r.bmp	786	1	DHJF	786	1	blank2r.bmp	866	2	krise	866	1	!	1292	1	!	1399	0	0	0	0	0	0	0	0	0	0	0	0	0	0	0	0	0	0	0	0	0	0	0	0	0	0	0
121318	15:54:31	16:00:06	334342	5.0.10.0	4_exp_AMP_EVA_AWA_CON	16	Rpleas_acq	Oppo	Rpleas	Amasked	CS_A	1pleas	distractor1	EVAbeforeCON	acq_US_unple_masked	acq3_masked	3	25	453	0	300	300	0	0	616	46	0	1	0	0	0	1	blank2r.bmp	0	1	+	0	8	C4r.bmp	492	1	blank2r.bmp	786	1	DHJF	786	1	blank2r.bmp	866	4	versagen	866	1	!	1292	1	!	-1	0	0	0	0	0	0	0	0	0	0	0	0	0	0	0	0	0	0	0	0	0	0	0	0	0	0	0
121318	15:54:31	16:00:08	336607	5.0.10.0	4_exp_AMP_EVA_AWA_CON	16	Rpleas_acq	Oppo	Rpleas	Amasked	CS_A	1pleas	distractor1	EVAbeforeCON	acq_US_pleas_masked	acq3_masked	3	26	453	1	300	300	0	0	441	50	0	1	0	0	0	1	blank2r.bmp	0	1	+	0	1	B1r.bmp	492	1	blank2r.bmp	786	1	CPLW	786	1	blank2r.bmp	866	1	gütig	866	1	!	1292	1	!	1346	0	0	0	0	0	0	0	0	0	0	0	0	0	0	0	0	0	0	0	0	0	0	0	0	0	0	0
121318	15:54:31	16:00:11	339006	5.0.10.0	4_exp_AMP_EVA_AWA_CON	16	Rpleas_acq	Oppo	Rpleas	Amasked	CS_A	1pleas	distractor1	EVAbeforeCON	acq_US_pleas_masked	acq3_masked	3	27	453	1	300	300	0	0	399	46	0	0	0	0	0	1	blank2r.bmp	0	1	+	0	4	B4r.bmp	492	1	blank2r.bmp	786	1	CPLW	786	1	blank2r.bmp	866	3	gesittet	866	1	FEHLER	1625	1	!	1292	1	!	1306	0	0	0	0	0	0	0	0	0	0	0	0	0	0	0	0	0	0	0	0	0	0	0	0
121318	15:54:31	16:00:13	341245	5.0.10.0	4_exp_AMP_EVA_AWA_CON	16	Rpleas_acq	Oppo	Rpleas	Amasked	CS_A	1pleas	distractor1	EVAbeforeCON	acq_US_unple_masked	acq3_masked	3	28	453	0	300	300	0	0	667	46	0	1	0	0	0	1	blank2r.bmp	0	1	+	0	2	B2r.bmp	492	1	blank2r.bmp	786	1	DHJF	786	1	blank2r.bmp	866	1	gierig	866	1	!	1292	1	!	-1	0	0	0	0	0	0	0	0	0	0	0	0	0	0	0	0	0	0	0	0	0	0	0	0	0	0	0
121318	15:54:31	16:00:15	343591	5.0.10.0	4_exp_AMP_EVA_AWA_CON	16	Rpleas_acq	Oppo	Rpleas	Amasked	CS_A	1pleas	distractor1	EVAbeforeCON	acq_US_pleas_masked	acq3_masked	3	29	453	0	300	300	0	0	571	50	0	1	0	0	0	1	blank2r.bmp	0	1	+	0	3	B3r.bmp	492	1	blank2r.bmp	786	1	CPLW	786	1	blank2r.bmp	866	6	genießen	866	1	!	1292	1	!	-1	0	0	0	0	0	0	0	0	0	0	0	0	0	0	0	0	0	0	0	0	0	0	0	0	0	0	0
121318	15:54:31	16:00:17	345804	5.0.10.0	4_exp_AMP_EVA_AWA_CON	16	Rpleas_acq	Oppo	Rpleas	Amasked	CS_A	1pleas	distractor1	EVAbeforeCON	acq_US_pleas_masked	acq3_masked	3	30	453	1	300	300	0	0	406	50	0	1	0	0	0	1	blank2r.bmp	0	1	+	0	6	C2r.bmp	492	1	blank2r.bmp	786	1	CPLW	786	1	blank2r.bmp	866	2	kuss	866	1	!	1292	1	!	1306	0	0	0	0	0	0	0	0	0	0	0	0	0	0	0	0	0	0	0	0	0	0	0	0	0	0	0
121318	15:54:31	16:00:20	348016	5.0.10.0	4_exp_AMP_EVA_AWA_CON	16	Rpleas_acq	Oppo	Rpleas	Amasked	CS_A	1pleas	distractor1	EVAbeforeCON	acq_US_unple_masked	acq3_masked	3	31	453	1	300	300	0	0	414	46	0	1	0	0	0	1	blank2r.bmp	0	1	+	0	7	C3r.bmp	492	1	blank2r.bmp	786	1	DHJF	786	1	blank2r.bmp	866	5	krank	866	1	!	1292	1	!	1319	0	0	0	0	0	0	0	0	0	0	0	0	0	0	0	0	0	0	0	0	0	0	0	0	0	0	0
121318	15:54:31	16:00:22	350322	5.0.10.0	4_exp_AMP_EVA_AWA_CON	16	Rpleas_acq	Oppo	Rpleas	Amasked	CS_A	1pleas	distractor1	EVAbeforeCON	acq_US_unple_masked	acq3_masked	3	32	453	0	300	300	0	0	538	46	0	1	0	0	0	1	blank2r.bmp	0	1	+	0	5	C1r.bmp	492	1	blank2r.bmp	786	1	DHJF	786	1	blank2r.bmp	866	6	gemein	866	1	!	1292	1	!	-1	0	0	0	0	0	0	0	0	0	0	0	0	0	0	0	0	0	0	0	0	0	0	0	0	0	0	0
121318	15:54:31	16:00:24	352574	5.0.10.0	4_exp_AMP_EVA_AWA_CON	16	Rpleas_acq	Oppo	Rpleas	Amasked	CS_A	1pleas	distractor1	EVAbeforeCON	acq_US_pleas_masked	acq3_masked	3	33	453	1	300	300	0	0	446	50	0	1	0	0	0	1	blank2r.bmp	0	1	+	0	8	C4r.bmp	492	1	blank2r.bmp	786	1	CPLW	786	1	blank2r.bmp	866	4	vertrauen	866	1	!	1292	1	!	1346	0	0	0	0	0	0	0	0	0	0	0	0	0	0	0	0	0	0	0	0	0	0	0	0	0	0	0
121318	15:54:31	16:00:26	354720	5.0.10.0	4_exp_AMP_EVA_AWA_CON	16	Rpleas_acq	Oppo	Rpleas	Amasked	CS_A	1pleas	distractor1	EVAbeforeCON	acq_US_pleas_masked	acq3_masked	3	34	453	0	300	300	0	0	385	50	0	1	0	0	0	1	blank2r.bmp	0	1	+	0	6	C2r.bmp	492	1	blank2r.bmp	786	1	CPLW	786	1	blank2r.bmp	866	5	kreativ	866	1	!	-1	1	!	-1	0	0	0	0	0	0	0	0	0	0	0	0	0	0	0	0	0	0	0	0	0	0	0	0	0	0	0
121318	15:54:31	16:00:29	357092	5.0.10.0	4_exp_AMP_EVA_AWA_CON	16	Rpleas_acq	Oppo	Rpleas	Amasked	CS_A	1pleas	distractor1	EVAbeforeCON	acq_US_unple_masked	acq3_masked	3	35	453	0	300	300	0	0	592	46	0	1	0	0	0	1	blank2r.bmp	0	1	+	0	7	C3r.bmp	492	1	blank2r.bmp	786	1	DHJF	786	1	blank2r.bmp	866	2	krise	866	1	!	1292	1	!	-1	0	0	0	0	0	0	0	0	0	0	0	0	0	0	0	0	0	0	0	0	0	0	0	0	0	0	0
121318	15:54:31	16:00:31	359691	5.0.10.0	4_exp_AMP_EVA_AWA_CON	16	Rpleas_acq	Oppo	Rpleas	Amasked	CS_A	1pleas	distractor1	EVAbeforeCON	acq_US_unple_masked	acq3_masked	3	36	453	0	300	300	0	0	598	50	0	0	0	0	0	1	blank2r.bmp	0	1	+	0	4	B4r.bmp	492	1	blank2r.bmp	786	1	DHJF	786	1	blank2r.bmp	866	3	geizig	866	1	FEHLER	1799	1	!	1292	1	!	-1	0	0	0	0	0	0	0	0	0	0	0	0	0	0	0	0	0	0	0	0	0	0	0	0
121318	15:54:31	16:00:45	373339	5.0.10.0	4_exp_AMP_EVA_AWA_CON	16	Rpleas_acq	Oppo	Rpleas	Amasked	CS_A	1pleas	distractor1	EVAbeforeCON	acq_US_unple_masked	acq45_masked	4	1	400	0	300	300	0	0	485	46	0	1	0	0	0	1	blank2r.bmp	0	1	+	0	3	B3r.bmp	492	1	blank2r.bmp	786	1	DHJF	786	1	blank2r.bmp	866	1	gierig	866	1	!	1239	1	!	-1	0	0	0	0	0	0	0	0	0	0	0	0	0	0	0	0	0	0	0	0	0	0	0	0	0	0	0
121318	15:54:31	16:00:47	375538	5.0.10.0	4_exp_AMP_EVA_AWA_CON	16	Rpleas_acq	Oppo	Rpleas	Amasked	CS_A	1pleas	distractor1	EVAbeforeCON	acq_US_pleas_masked	acq45_masked	4	2	400	1	300	300	0	0	386	50	0	1	0	0	0	1	blank2r.bmp	0	1	+	0	5	C1r.bmp	492	1	blank2r.bmp	786	1	CPLW	786	1	blank2r.bmp	866	2	kuss	866	1	!	1239	1	!	1292	0	0	0	0	0	0	0	0	0	0	0	0	0	0	0	0	0	0	0	0	0	0	0	0	0	0	0
121318	15:54:31	16:00:49	377790	5.0.10.0	4_exp_AMP_EVA_AWA_CON	16	Rpleas_acq	Oppo	Rpleas	Amasked	CS_A	1pleas	distractor1	EVAbeforeCON	acq_US_pleas_masked	acq45_masked	4	3	400	1	300	300	0	0	443	50	0	1	0	0	0	1	blank2r.bmp	0	1	+	0	1	B1r.bmp	492	1	blank2r.bmp	786	1	CPLW	786	1	blank2r.bmp	866	6	genießen	866	1	!	1239	1	!	1346	0	0	0	0	0	0	0	0	0	0	0	0	0	0	0	0	0	0	0	0	0	0	0	0	0	0	0
121318	15:54:31	16:00:52	380016	5.0.10.0	4_exp_AMP_EVA_AWA_CON	16	Rpleas_acq	Oppo	Rpleas	Amasked	CS_A	1pleas	distractor1	EVAbeforeCON	acq_US_unple_masked	acq45_masked	4	4	400	1	300	300	0	0	429	46	0	1	0	0	0	1	blank2r.bmp	0	1	+	0	2	B2r.bmp	492	1	blank2r.bmp	786	1	DHJF	786	1	blank2r.bmp	866	4	versagen	866	1	!	1239	1	!	1332	0	0	0	0	0	0	0	0	0	0	0	0	0	0	0	0	0	0	0	0	0	0	0	0	0	0	0
121318	15:54:31	16:00:54	382229	5.0.10.0	4_exp_AMP_EVA_AWA_CON	16	Rpleas_acq	Oppo	Rpleas	Amasked	CS_A	1pleas	distractor1	EVAbeforeCON	acq_US_unple_masked	acq45_masked	4	5	400	1	300	300	0	0	408	46	0	1	0	0	0	1	blank2r.bmp	0	1	+	0	2	B2r.bmp	492	1	blank2r.bmp	786	1	DHJF	786	1	blank2r.bmp	866	3	geizig	866	1	!	1239	1	!	1306	0	0	0	0	0	0	0	0	0	0	0	0	0	0	0	0	0	0	0	0	0	0	0	0	0	0	0
121318	15:54:31	16:00:56	384481	5.0.10.0	4_exp_AMP_EVA_AWA_CON	16	Rpleas_acq	Oppo	Rpleas	Amasked	CS_A	1pleas	distractor1	EVAbeforeCON	acq_US_unple_masked	acq45_masked	4	6	400	1	300	300	0	0	452	46	0	1	0	0	0	1	blank2r.bmp	0	1	+	0	6	C2r.bmp	492	1	blank2r.bmp	786	1	DHJF	786	1	blank2r.bmp	866	5	krank	866	1	!	1239	1	!	1359	0	0	0	0	0	0	0	0	0	0	0	0	0	0	0	0	0	0	0	0	0	0	0	0	0	0	0
121318	15:54:31	16:00:58	386787	5.0.10.0	4_exp_AMP_EVA_AWA_CON	16	Rpleas_acq	Oppo	Rpleas	Amasked	CS_A	1pleas	distractor1	EVAbeforeCON	acq_US_pleas_masked	acq45_masked	4	7	400	0	300	300	0	0	539	50	0	1	0	0	0	1	blank2r.bmp	0	1	+	0	4	B4r.bmp	492	1	blank2r.bmp	786	1	CPLW	786	1	blank2r.bmp	866	5	kreativ	866	1	!	1239	1	!	-1	0	0	0	0	0	0	0	0	0	0	0	0	0	0	0	0	0	0	0	0	0	0	0	0	0	0	0
121318	15:54:31	16:01:00	388986	5.0.10.0	4_exp_AMP_EVA_AWA_CON	16	Rpleas_acq	Oppo	Rpleas	Amasked	CS_A	1pleas	distractor1	EVAbeforeCON	acq_US_pleas_masked	acq45_masked	4	8	400	1	300	300	0	0	398	50	0	1	0	0	0	1	blank2r.bmp	0	1	+	0	1	B1r.bmp	492	1	blank2r.bmp	786	1	CPLW	786	1	blank2r.bmp	866	3	gesittet	866	1	!	1239	1	!	1292	0	0	0	0	0	0	0	0	0	0	0	0	0	0	0	0	0	0	0	0	0	0	0	0	0	0	0
121318	15:54:31	16:01:03	391212	5.0.10.0	4_exp_AMP_EVA_AWA_CON	16	Rpleas_acq	Oppo	Rpleas	Amasked	CS_A	1pleas	distractor1	EVAbeforeCON	acq_US_unple_masked	acq45_masked	4	9	400	1	300	300	0	0	419	46	0	1	0	0	0	1	blank2r.bmp	0	1	+	0	8	C4r.bmp	492	1	blank2r.bmp	786	1	DHJF	786	1	blank2r.bmp	866	6	gemein	866	1	!	1239	1	!	1319	0	0	0	0	0	0	0	0	0	0	0	0	0	0	0	0	0	0	0	0	0	0	0	0	0	0	0
121318	15:54:31	16:01:05	393464	5.0.10.0	4_exp_AMP_EVA_AWA_CON	16	Rpleas_acq	Oppo	Rpleas	Amasked	CS_A	1pleas	distractor1	EVAbeforeCON	acq_US_pleas_masked	acq45_masked	4	10	400	1	300	300	0	0	458	50	0	1	0	0	0	1	blank2r.bmp	0	1	+	0	3	B3r.bmp	492	1	blank2r.bmp	786	1	CPLW	786	1	blank2r.bmp	866	1	gütig	866	1	!	1239	1	!	1359	0	0	0	0	0	0	0	0	0	0	0	0	0	0	0	0	0	0	0	0	0	0	0	0	0	0	0
121318	15:54:31	16:01:07	395570	5.0.10.0	4_exp_AMP_EVA_AWA_CON	16	Rpleas_acq	Oppo	Rpleas	Amasked	CS_A	1pleas	distractor1	EVAbeforeCON	acq_US_pleas_masked	acq45_masked	4	11	400	0	300	300	0	0	318	46	0	0	0	0	0	1	blank2r.bmp	0	1	+	0	5	C1r.bmp	492	1	blank2r.bmp	786	1	CPLW	786	1	blank2r.bmp	866	4	vertrauen	866	1	!	-1	1	!	-1	0	0	0	0	0	0	0	0	0	0	0	0	0	0	0	0	0	0	0	0	0	0	0	0	0	0	0
121318	15:54:31	16:01:09	397742	5.0.10.0	4_exp_AMP_EVA_AWA_CON	16	Rpleas_acq	Oppo	Rpleas	Amasked	CS_A	1pleas	distractor1	EVAbeforeCON	acq_US_pleas_masked	acq45_masked	4	12	400	1	300	300	0	0	361	50	0	1	0	0	0	1	blank2r.bmp	0	1	+	0	7	C3r.bmp	492	1	blank2r.bmp	786	1	CPLW	786	1	blank2r.bmp	866	5	kreativ	866	1	!	1239	1	!	1266	0	0	0	0	0	0	0	0	0	0	0	0	0	0	0	0	0	0	0	0	0	0	0	0	0	0	0
121318	15:54:31	16:01:11	399981	5.0.10.0	4_exp_AMP_EVA_AWA_CON	16	Rpleas_acq	Oppo	Rpleas	Amasked	CS_A	1pleas	distractor1	EVAbeforeCON	acq_US_unple_masked	acq45_masked	4	13	400	1	300	300	0	0	448	46	0	1	0	0	0	1	blank2r.bmp	0	1	+	0	6	C2r.bmp	492	1	blank2r.bmp	786	1	DHJF	786	1	blank2r.bmp	866	2	krise	866	1	!	1239	1	!	1346	0	0	0	0	0	0	0	0	0	0	0	0	0	0	0	0	0	0	0	0	0	0	0	0	0	0	0
121318	15:54:31	16:01:14	402234	5.0.10.0	4_exp_AMP_EVA_AWA_CON	16	Rpleas_acq	Oppo	Rpleas	Amasked	CS_A	1pleas	distractor1	EVAbeforeCON	acq_US_pleas_masked	acq45_masked	4	14	400	0	300	300	0	0	479	50	0	1	0	0	0	1	blank2r.bmp	0	1	+	0	5	C1r.bmp	492	1	blank2r.bmp	786	1	CPLW	786	1	blank2r.bmp	866	1	gütig	866	1	!	1239	1	!	-1	0	0	0	0	0	0	0	0	0	0	0	0	0	0	0	0	0	0	0	0	0	0	0	0	0	0	0
121318	15:54:31	16:01:16	404406	5.0.10.0	4_exp_AMP_EVA_AWA_CON	16	Rpleas_acq	Oppo	Rpleas	Amasked	CS_A	1pleas	distractor1	EVAbeforeCON	acq_US_unple_masked	acq45_masked	4	15	400	1	300	300	0	0	346	46	0	1	0	0	0	1	blank2r.bmp	0	1	+	0	8	C4r.bmp	492	1	blank2r.bmp	786	1	DHJF	786	1	blank2r.bmp	866	6	gemein	866	1	!	1239	1	!	1252	0	0	0	0	0	0	0	0	0	0	0	0	0	0	0	0	0	0	0	0	0	0	0	0	0	0	0
121318	15:54:31	16:01:18	406592	5.0.10.0	4_exp_AMP_EVA_AWA_CON	16	Rpleas_acq	Oppo	Rpleas	Amasked	CS_A	1pleas	distractor1	EVAbeforeCON	acq_US_pleas_masked	acq45_masked	4	16	400	1	300	300	0	0	396	50	0	1	0	0	0	1	blank2r.bmp	0	1	+	0	2	B2r.bmp	492	1	blank2r.bmp	786	1	CPLW	786	1	blank2r.bmp	866	4	vertrauen	866	1	!	1239	1	!	1292	0	0	0	0	0	0	0	0	0	0	0	0	0	0	0	0	0	0	0	0	0	0	0	0	0	0	0
121318	15:54:31	16:01:20	408804	5.0.10.0	4_exp_AMP_EVA_AWA_CON	16	Rpleas_acq	Oppo	Rpleas	Amasked	CS_A	1pleas	distractor1	EVAbeforeCON	acq_US_unple_masked	acq45_masked	4	17	400	1	300	300	0	0	419	46	0	1	0	0	0	1	blank2r.bmp	0	1	+	0	7	C3r.bmp	492	1	blank2r.bmp	786	1	DHJF	786	1	blank2r.bmp	866	3	geizig	866	1	!	1239	1	!	1319	0	0	0	0	0	0	0	0	0	0	0	0	0	0	0	0	0	0	0	0	0	0	0	0	0	0	0
121318	15:54:31	16:01:23	411163	5.0.10.0	4_exp_AMP_EVA_AWA_CON	16	Rpleas_acq	Oppo	Rpleas	Amasked	CS_A	1pleas	distractor1	EVAbeforeCON	acq_US_unple_masked	acq45_masked	4	18	400	0	300	300	0	0	594	46	0	1	0	0	0	1	blank2r.bmp	0	1	+	0	4	B4r.bmp	492	1	blank2r.bmp	786	1	DHJF	786	1	blank2r.bmp	866	2	krise	866	1	!	1239	1	!	-1	0	0	0	0	0	0	0	0	0	0	0	0	0	0	0	0	0	0	0	0	0	0	0	0	0	0	0
121318	15:54:31	16:01:25	413482	5.0.10.0	4_exp_AMP_EVA_AWA_CON	16	Rpleas_acq	Oppo	Rpleas	Amasked	CS_A	1pleas	distractor1	EVAbeforeCON	acq_US_unple_masked	acq45_masked	4	19	400	0	300	300	0	0	543	46	0	1	0	0	0	1	blank2r.bmp	0	1	+	0	1	B1r.bmp	492	1	blank2r.bmp	786	1	DHJF	786	1	blank2r.bmp	866	1	gierig	866	1	!	1239	1	!	-1	0	0	0	0	0	0	0	0	0	0	0	0	0	0	0	0	0	0	0	0	0	0	0	0	0	0	0
121318	15:54:31	16:01:27	415708	5.0.10.0	4_exp_AMP_EVA_AWA_CON	16	Rpleas_acq	Oppo	Rpleas	Amasked	CS_A	1pleas	distractor1	EVAbeforeCON	acq_US_pleas_masked	acq45_masked	4	20	400	1	300	300	0	0	422	50	0	1	0	0	0	1	blank2r.bmp	0	1	+	0	3	B3r.bmp	492	1	blank2r.bmp	786	1	CPLW	786	1	blank2r.bmp	866	3	gesittet	866	1	!	1239	1	!	1319	0	0	0	0	0	0	0	0	0	0	0	0	0	0	0	0	0	0	0	0	0	0	0	0	0	0	0
121318	15:54:31	16:01:29	417921	5.0.10.0	4_exp_AMP_EVA_AWA_CON	16	Rpleas_acq	Oppo	Rpleas	Amasked	CS_A	1pleas	distractor1	EVAbeforeCON	acq_US_unple_masked	acq45_masked	4	21	400	1	300	300	0	0	401	46	0	1	0	0	0	1	blank2r.bmp	0	1	+	0	6	C2r.bmp	492	1	blank2r.bmp	786	1	DHJF	786	1	blank2r.bmp	866	4	versagen	866	1	!	1239	1	!	1306	0	0	0	0	0	0	0	0	0	0	0	0	0	0	0	0	0	0	0	0	0	0	0	0	0	0	0
121318	15:54:31	16:01:32	420120	5.0.10.0	4_exp_AMP_EVA_AWA_CON	16	Rpleas_acq	Oppo	Rpleas	Amasked	CS_A	1pleas	distractor1	EVAbeforeCON	acq_US_unple_masked	acq45_masked	4	22	400	1	300	300	0	0	402	46	0	1	0	0	0	1	blank2r.bmp	0	1	+	0	8	C4r.bmp	492	1	blank2r.bmp	786	1	DHJF	786	1	blank2r.bmp	866	5	krank	866	1	!	1239	1	!	1306	0	0	0	0	0	0	0	0	0	0	0	0	0	0	0	0	0	0	0	0	0	0	0	0	0	0	0
121318	15:54:31	16:01:34	422465	5.0.10.0	4_exp_AMP_EVA_AWA_CON	16	Rpleas_acq	Oppo	Rpleas	Amasked	CS_A	1pleas	distractor1	EVAbeforeCON	acq_US_pleas_masked	acq45_masked	4	23	400	0	300	300	0	0	581	50	0	1	0	0	0	1	blank2r.bmp	0	1	+	0	5	C1r.bmp	492	1	blank2r.bmp	786	1	CPLW	786	1	blank2r.bmp	866	2	kuss	866	1	!	1239	1	!	-1	0	0	0	0	0	0	0	0	0	0	0	0	0	0	0	0	0	0	0	0	0	0	0	0	0	0	0
121318	15:54:31	16:01:36	424691	5.0.10.0	4_exp_AMP_EVA_AWA_CON	16	Rpleas_acq	Oppo	Rpleas	Amasked	CS_A	1pleas	distractor1	EVAbeforeCON	acq_US_pleas_masked	acq45_masked	4	24	400	1	300	300	0	0	402	50	0	1	0	0	0	1	blank2r.bmp	0	1	+	0	7	C3r.bmp	492	1	blank2r.bmp	786	1	CPLW	786	1	blank2r.bmp	866	6	genießen	866	1	!	1239	1	!	1306	0	0	0	0	0	0	0	0	0	0	0	0	0	0	0	0	0	0	0	0	0	0	0	0	0	0	0
121318	15:54:31	16:01:38	426770	5.0.10.0	4_exp_AMP_EVA_AWA_CON	16	Rpleas_acq	Oppo	Rpleas	Amasked	CS_A	1pleas	distractor1	EVAbeforeCON	acq_US_pleas_masked	acq45_masked	4	25	400	0	300	300	0	0	312	50	0	1	0	0	0	1	blank2r.bmp	0	1	+	0	2	B2r.bmp	492	1	blank2r.bmp	786	1	CPLW	786	1	blank2r.bmp	866	2	kuss	866	1	!	-1	1	!	-1	0	0	0	0	0	0	0	0	0	0	0	0	0	0	0	0	0	0	0	0	0	0	0	0	0	0	0
121318	15:54:31	16:01:41	429009	5.0.10.0	4_exp_AMP_EVA_AWA_CON	16	Rpleas_acq	Oppo	Rpleas	Amasked	CS_A	1pleas	distractor1	EVAbeforeCON	acq_US_unple_masked	acq45_masked	4	26	400	1	300	300	0	0	416	46	0	1	0	0	0	1	blank2r.bmp	0	1	+	0	3	B3r.bmp	492	1	blank2r.bmp	786	1	DHJF	786	1	blank2r.bmp	866	1	gierig	866	1	!	1239	1	!	1319	0	0	0	0	0	0	0	0	0	0	0	0	0	0	0	0	0	0	0	0	0	0	0	0	0	0	0
121318	15:54:31	16:01:43	431155	5.0.10.0	4_exp_AMP_EVA_AWA_CON	16	Rpleas_acq	Oppo	Rpleas	Amasked	CS_A	1pleas	distractor1	EVAbeforeCON	acq_US_pleas_masked	acq45_masked	4	27	400	1	300	300	0	0	349	50	0	1	0	0	0	1	blank2r.bmp	0	1	+	0	1	B1r.bmp	492	1	blank2r.bmp	786	1	CPLW	786	1	blank2r.bmp	866	3	gesittet	866	1	!	1239	1	!	1252	0	0	0	0	0	0	0	0	0	0	0	0	0	0	0	0	0	0	0	0	0	0	0	0	0	0	0
121318	15:54:31	16:01:45	433408	5.0.10.0	4_exp_AMP_EVA_AWA_CON	16	Rpleas_acq	Oppo	Rpleas	Amasked	CS_A	1pleas	distractor1	EVAbeforeCON	acq_US_unple_masked	acq45_masked	4	28	400	1	300	300	0	0	461	46	0	1	0	0	0	1	blank2r.bmp	0	1	+	0	4	B4r.bmp	492	1	blank2r.bmp	786	1	DHJF	786	1	blank2r.bmp	866	6	gemein	866	1	!	1239	1	!	1359	0	0	0	0	0	0	0	0	0	0	0	0	0	0	0	0	0	0	0	0	0	0	0	0	0	0	0
121318	15:54:31	16:01:47	435607	5.0.10.0	4_exp_AMP_EVA_AWA_CON	16	Rpleas_acq	Oppo	Rpleas	Amasked	CS_A	1pleas	distractor1	EVAbeforeCON	acq_US_unple_masked	acq45_masked	4	29	400	1	300	300	0	0	399	46	0	1	0	0	0	1	blank2r.bmp	0	1	+	0	1	B1r.bmp	492	1	blank2r.bmp	786	1	DHJF	786	1	blank2r.bmp	866	4	versagen	866	1	!	1239	1	!	1306	0	0	0	0	0	0	0	0	0	0	0	0	0	0	0	0	0	0	0	0	0	0	0	0	0	0	0
121318	15:54:31	16:01:49	437859	5.0.10.0	4_exp_AMP_EVA_AWA_CON	16	Rpleas_acq	Oppo	Rpleas	Amasked	CS_A	1pleas	distractor1	EVAbeforeCON	acq_US_pleas_masked	acq45_masked	4	30	400	1	300	300	0	0	454	50	0	1	0	0	0	1	blank2r.bmp	0	1	+	0	7	C3r.bmp	492	1	blank2r.bmp	786	1	CPLW	786	1	blank2r.bmp	866	4	vertrauen	866	1	!	1239	1	!	1359	0	0	0	0	0	0	0	0	0	0	0	0	0	0	0	0	0	0	0	0	0	0	0	0	0	0	0
121318	15:54:31	16:01:52	440125	5.0.10.0	4_exp_AMP_EVA_AWA_CON	16	Rpleas_acq	Oppo	Rpleas	Amasked	CS_A	1pleas	distractor1	EVAbeforeCON	acq_US_unple_masked	acq45_masked	4	31	400	1	300	300	0	0	452	46	0	1	0	0	0	1	blank2r.bmp	0	1	+	0	8	C4r.bmp	492	1	blank2r.bmp	786	1	DHJF	786	1	blank2r.bmp	866	5	krank	866	1	!	1239	1	!	1359	0	0	0	0	0	0	0	0	0	0	0	0	0	0	0	0	0	0	0	0	0	0	0	0	0	0	0
121318	15:54:31	16:01:54	442311	5.0.10.0	4_exp_AMP_EVA_AWA_CON	16	Rpleas_acq	Oppo	Rpleas	Amasked	CS_A	1pleas	distractor1	EVAbeforeCON	acq_US_unple_masked	acq45_masked	4	32	400	1	300	300	0	0	389	50	0	0	0	0	0	1	blank2r.bmp	0	1	+	0	3	B3r.bmp	492	1	blank2r.bmp	786	1	DHJF	786	1	blank2r.bmp	866	3	geizig	866	1	!	1239	1	!	1292	0	0	0	0	0	0	0	0	0	0	0	0	0	0	0	0	0	0	0	0	0	0	0	0	0	0	0
121318	15:54:31	16:01:56	444603	5.0.10.0	4_exp_AMP_EVA_AWA_CON	16	Rpleas_acq	Oppo	Rpleas	Amasked	CS_A	1pleas	distractor1	EVAbeforeCON	acq_US_pleas_masked	acq45_masked	4	33	400	0	300	300	0	0	527	50	0	1	0	0	0	1	blank2r.bmp	0	1	+	0	6	C2r.bmp	492	1	blank2r.bmp	786	1	CPLW	786	1	blank2r.bmp	866	1	gütig	866	1	!	1239	1	!	-1	0	0	0	0	0	0	0	0	0	0	0	0	0	0	0	0	0	0	0	0	0	0	0	0	0	0	0
121318	15:54:31	16:01:58	446815	5.0.10.0	4_exp_AMP_EVA_AWA_CON	16	Rpleas_acq	Oppo	Rpleas	Amasked	CS_A	1pleas	distractor1	EVAbeforeCON	acq_US_unple_masked	acq45_masked	4	34	400	1	300	300	0	0	396	46	0	1	0	0	0	1	blank2r.bmp	0	1	+	0	5	C1r.bmp	492	1	blank2r.bmp	786	1	DHJF	786	1	blank2r.bmp	866	2	krise	866	1	!	1239	1	!	1292	0	0	0	0	0	0	0	0	0	0	0	0	0	0	0	0	0	0	0	0	0	0	0	0	0	0	0
121318	15:54:31	16:02:01	449068	5.0.10.0	4_exp_AMP_EVA_AWA_CON	16	Rpleas_acq	Oppo	Rpleas	Amasked	CS_A	1pleas	distractor1	EVAbeforeCON	acq_US_pleas_masked	acq45_masked	4	35	400	1	300	300	0	0	440	50	0	1	0	0	0	1	blank2r.bmp	0	1	+	0	4	B4r.bmp	492	1	blank2r.bmp	786	1	CPLW	786	1	blank2r.bmp	866	5	kreativ	866	1	!	1239	1	!	1346	0	0	0	0	0	0	0	0	0	0	0	0	0	0	0	0	0	0	0	0	0	0	0	0	0	0	0
121318	15:54:31	16:02:03	451320	5.0.10.0	4_exp_AMP_EVA_AWA_CON	16	Rpleas_acq	Oppo	Rpleas	Amasked	CS_A	1pleas	distractor1	EVAbeforeCON	acq_US_pleas_masked	acq45_masked	4	36	400	1	300	300	0	0	456	46	0	0	0	0	0	1	blank2r.bmp	0	1	+	0	2	B2r.bmp	492	1	blank2r.bmp	786	1	CPLW	786	1	blank2r.bmp	866	6	genießen	866	1	!	1239	1	!	1359	0	0	0	0	0	0	0	0	0	0	0	0	0	0	0	0	0	0	0	0	0	0	0	0	0	0	0
121318	15:54:31	16:02:13	461023	5.0.10.0	4_exp_AMP_EVA_AWA_CON	16	Rpleas_acq	Oppo	Rpleas	Amasked	CS_A	1pleas	distractor1	EVAbeforeCON	acq_US_unple_masked	acq45_masked	5	1	400	0	300	300	0	0	489	46	0	1	0	0	0	1	blank2r.bmp	0	1	+	0	2	B2r.bmp	492	1	blank2r.bmp	786	1	DHJF	786	1	blank2r.bmp	866	6	gemein	866	1	!	1239	1	!	-1	0	0	0	0	0	0	0	0	0	0	0	0	0	0	0	0	0	0	0	0	0	0	0	0	0	0	0
121318	15:54:31	16:02:15	463182	5.0.10.0	4_exp_AMP_EVA_AWA_CON	16	Rpleas_acq	Oppo	Rpleas	Amasked	CS_A	1pleas	distractor1	EVAbeforeCON	acq_US_unple_masked	acq45_masked	5	2	400	1	300	300	0	0	346	50	0	0	0	0	0	1	blank2r.bmp	0	1	+	0	7	C3r.bmp	492	1	blank2r.bmp	786	1	DHJF	786	1	blank2r.bmp	866	1	gierig	866	1	!	1239	1	!	1252	0	0	0	0	0	0	0	0	0	0	0	0	0	0	0	0	0	0	0	0	0	0	0	0	0	0	0
121318	15:54:31	16:02:17	465341	5.0.10.0	4_exp_AMP_EVA_AWA_CON	16	Rpleas_acq	Oppo	Rpleas	Amasked	CS_A	1pleas	distractor1	EVAbeforeCON	acq_US_unple_masked	acq45_masked	5	3	400	1	300	300	0	0	370	46	0	1	0	0	0	1	blank2r.bmp	0	1	+	0	6	C2r.bmp	492	1	blank2r.bmp	786	1	DHJF	786	1	blank2r.bmp	866	5	krank	866	1	!	1239	1	!	1266	0	0	0	0	0	0	0	0	0	0	0	0	0	0	0	0	0	0	0	0	0	0	0	0	0	0	0
121318	15:54:31	16:02:19	467514	5.0.10.0	4_exp_AMP_EVA_AWA_CON	16	Rpleas_acq	Oppo	Rpleas	Amasked	CS_A	1pleas	distractor1	EVAbeforeCON	acq_US_unple_masked	acq45_masked	5	4	400	1	300	300	0	0	372	46	0	1	0	0	0	1	blank2r.bmp	0	1	+	0	8	C4r.bmp	492	1	blank2r.bmp	786	1	DHJF	786	1	blank2r.bmp	866	2	krise	866	1	!	1239	1	!	1279	0	0	0	0	0	0	0	0	0	0	0	0	0	0	0	0	0	0	0	0	0	0	0	0	0	0	0
121318	15:54:31	16:02:21	469699	5.0.10.0	4_exp_AMP_EVA_AWA_CON	16	Rpleas_acq	Oppo	Rpleas	Amasked	CS_A	1pleas	distractor1	EVAbeforeCON	acq_US_pleas_masked	acq45_masked	5	5	400	1	300	300	0	0	389	50	0	1	0	0	0	1	blank2r.bmp	0	1	+	0	4	B4r.bmp	492	1	blank2r.bmp	786	1	CPLW	786	1	blank2r.bmp	866	6	genießen	866	1	!	1239	1	!	1292	0	0	0	0	0	0	0	0	0	0	0	0	0	0	0	0	0	0	0	0	0	0	0	0	0	0	0
121318	15:54:31	16:02:23	471805	5.0.10.0	4_exp_AMP_EVA_AWA_CON	16	Rpleas_acq	Oppo	Rpleas	Amasked	CS_A	1pleas	distractor1	EVAbeforeCON	acq_US_pleas_masked	acq45_masked	5	6	400	0	300	300	0	0	330	50	0	1	0	0	0	1	blank2r.bmp	0	1	+	0	3	B3r.bmp	492	1	blank2r.bmp	786	1	CPLW	786	1	blank2r.bmp	866	4	vertrauen	866	1	!	-1	1	!	-1	0	0	0	0	0	0	0	0	0	0	0	0	0	0	0	0	0	0	0	0	0	0	0	0	0	0	0
121318	15:54:31	16:02:26	474071	5.0.10.0	4_exp_AMP_EVA_AWA_CON	16	Rpleas_acq	Oppo	Rpleas	Amasked	CS_A	1pleas	distractor1	EVAbeforeCON	acq_US_pleas_masked	acq45_masked	5	7	400	0	300	300	0	0	482	50	0	1	0	0	0	1	blank2r.bmp	0	1	+	0	1	B1r.bmp	492	1	blank2r.bmp	786	1	CPLW	786	1	blank2r.bmp	866	3	gesittet	866	1	!	1239	1	!	-1	0	0	0	0	0	0	0	0	0	0	0	0	0	0	0	0	0	0	0	0	0	0	0	0	0	0	0
121318	15:54:31	16:02:28	476297	5.0.10.0	4_exp_AMP_EVA_AWA_CON	16	Rpleas_acq	Oppo	Rpleas	Amasked	CS_A	1pleas	distractor1	EVAbeforeCON	acq_US_unple_masked	acq45_masked	5	8	400	1	300	300	0	0	409	46	0	1	0	0	0	1	blank2r.bmp	0	1	+	0	5	C1r.bmp	492	1	blank2r.bmp	786	1	DHJF	786	1	blank2r.bmp	866	4	versagen	866	1	!	1239	1	!	1306	0	0	0	0	0	0	0	0	0	0	0	0	0	0	0	0	0	0	0	0	0	0	0	0	0	0	0
121318	15:54:31	16:02:30	478456	5.0.10.0	4_exp_AMP_EVA_AWA_CON	16	Rpleas_acq	Oppo	Rpleas	Amasked	CS_A	1pleas	distractor1	EVAbeforeCON	acq_US_pleas_masked	acq45_masked	5	9	400	1	300	300	0	0	362	50	0	1	0	0	0	1	blank2r.bmp	0	1	+	0	5	C1r.bmp	492	1	blank2r.bmp	786	1	CPLW	786	1	blank2r.bmp	866	5	kreativ	866	1	!	1239	1	!	1266	0	0	0	0	0	0	0	0	0	0	0	0	0	0	0	0	0	0	0	0	0	0	0	0	0	0	0
121318	15:54:31	16:02:32	480708	5.0.10.0	4_exp_AMP_EVA_AWA_CON	16	Rpleas_acq	Oppo	Rpleas	Amasked	CS_A	1pleas	distractor1	EVAbeforeCON	acq_US_pleas_masked	acq45_masked	5	10	400	1	300	300	0	0	463	50	0	1	0	0	0	1	blank2r.bmp	0	1	+	0	8	C4r.bmp	492	1	blank2r.bmp	786	1	CPLW	786	1	blank2r.bmp	866	1	gütig	866	1	!	1239	1	!	1359	0	0	0	0	0	0	0	0	0	0	0	0	0	0	0	0	0	0	0	0	0	0	0	0	0	0	0
121318	15:54:31	16:02:34	482747	5.0.10.0	4_exp_AMP_EVA_AWA_CON	16	Rpleas_acq	Oppo	Rpleas	Amasked	CS_A	1pleas	distractor1	EVAbeforeCON	acq_US_pleas_masked	acq45_masked	5	11	400	0	300	300	0	0	270	50	0	1	0	0	0	1	blank2r.bmp	0	1	+	0	7	C3r.bmp	492	1	blank2r.bmp	786	1	CPLW	786	1	blank2r.bmp	866	2	kuss	866	1	!	-1	1	!	-1	0	0	0	0	0	0	0	0	0	0	0	0	0	0	0	0	0	0	0	0	0	0	0	0	0	0	0
121318	15:54:31	16:02:36	484906	5.0.10.0	4_exp_AMP_EVA_AWA_CON	16	Rpleas_acq	Oppo	Rpleas	Amasked	CS_A	1pleas	distractor1	EVAbeforeCON	acq_US_pleas_masked	acq45_masked	5	12	400	1	300	300	0	0	346	46	0	0	0	0	0	1	blank2r.bmp	0	1	+	0	2	B2r.bmp	492	1	blank2r.bmp	786	1	CPLW	786	1	blank2r.bmp	866	6	genießen	866	1	!	1239	1	!	1252	0	0	0	0	0	0	0	0	0	0	0	0	0	0	0	0	0	0	0	0	0	0	0	0	0	0	0
121318	15:54:31	16:02:39	487185	5.0.10.0	4_exp_AMP_EVA_AWA_CON	16	Rpleas_acq	Oppo	Rpleas	Amasked	CS_A	1pleas	distractor1	EVAbeforeCON	acq_US_unple_masked	acq45_masked	5	13	400	0	300	300	0	0	506	46	0	1	0	0	0	1	blank2r.bmp	0	1	+	0	4	B4r.bmp	492	1	blank2r.bmp	786	1	DHJF	786	1	blank2r.bmp	866	3	geizig	866	1	!	1239	1	!	-1	0	0	0	0	0	0	0	0	0	0	0	0	0	0	0	0	0	0	0	0	0	0	0	0	0	0	0
121318	15:54:31	16:02:41	489358	5.0.10.0	4_exp_AMP_EVA_AWA_CON	16	Rpleas_acq	Oppo	Rpleas	Amasked	CS_A	1pleas	distractor1	EVAbeforeCON	acq_US_unple_masked	acq45_masked	5	14	400	1	300	300	0	0	359	46	0	1	0	0	0	1	blank2r.bmp	0	1	+	0	1	B1r.bmp	492	1	blank2r.bmp	786	1	DHJF	786	1	blank2r.bmp	866	6	gemein	866	1	!	1239	1	!	1266	0	0	0	0	0	0	0	0	0	0	0	0	0	0	0	0	0	0	0	0	0	0	0	0	0	0	0
121318	15:54:31	16:02:43	491610	5.0.10.0	4_exp_AMP_EVA_AWA_CON	16	Rpleas_acq	Oppo	Rpleas	Amasked	CS_A	1pleas	distractor1	EVAbeforeCON	acq_US_unple_masked	acq45_masked	5	15	400	1	300	300	0	0	459	46	0	1	0	0	0	1	blank2r.bmp	0	1	+	0	3	B3r.bmp	492	1	blank2r.bmp	786	1	DHJF	786	1	blank2r.bmp	866	2	krise	866	1	!	1239	1	!	1359	0	0	0	0	0	0	0	0	0	0	0	0	0	0	0	0	0	0	0	0	0	0	0	0	0	0	0
121318	15:54:31	16:02:45	493823	5.0.10.0	4_exp_AMP_EVA_AWA_CON	16	Rpleas_acq	Oppo	Rpleas	Amasked	CS_A	1pleas	distractor1	EVAbeforeCON	acq_US_pleas_masked	acq45_masked	5	16	400	1	300	300	0	0	413	50	0	1	0	0	0	1	blank2r.bmp	0	1	+	0	6	C2r.bmp	492	1	blank2r.bmp	786	1	CPLW	786	1	blank2r.bmp	866	1	gütig	866	1	!	1239	1	!	1319	0	0	0	0	0	0	0	0	0	0	0	0	0	0	0	0	0	0	0	0	0	0	0	0	0	0	0
121318	15:54:31	16:02:48	496048	5.0.10.0	4_exp_AMP_EVA_AWA_CON	16	Rpleas_acq	Oppo	Rpleas	Amasked	CS_A	1pleas	distractor1	EVAbeforeCON	acq_US_unple_masked	acq45_masked	5	17	400	1	300	300	0	0	432	46	0	1	0	0	0	1	blank2r.bmp	0	1	+	0	4	B4r.bmp	492	1	blank2r.bmp	786	1	DHJF	786	1	blank2r.bmp	866	5	krank	866	1	!	1239	1	!	1332	0	0	0	0	0	0	0	0	0	0	0	0	0	0	0	0	0	0	0	0	0	0	0	0	0	0	0
121318	15:54:31	16:02:50	498234	5.0.10.0	4_exp_AMP_EVA_AWA_CON	16	Rpleas_acq	Oppo	Rpleas	Amasked	CS_A	1pleas	distractor1	EVAbeforeCON	acq_US_pleas_masked	acq45_masked	5	18	400	1	300	300	0	0	379	50	0	1	0	0	0	1	blank2r.bmp	0	1	+	0	5	C1r.bmp	492	1	blank2r.bmp	786	1	CPLW	786	1	blank2r.bmp	866	4	vertrauen	866	1	!	1239	1	!	1279	0	0	0	0	0	0	0	0	0	0	0	0	0	0	0	0	0	0	0	0	0	0	0	0	0	0	0
121318	15:54:31	16:02:52	500393	5.0.10.0	4_exp_AMP_EVA_AWA_CON	16	Rpleas_acq	Oppo	Rpleas	Amasked	CS_A	1pleas	distractor1	EVAbeforeCON	acq_US_unple_masked	acq45_masked	5	19	400	1	300	300	0	0	367	46	0	1	0	0	0	1	blank2r.bmp	0	1	+	0	2	B2r.bmp	492	1	blank2r.bmp	786	1	DHJF	786	1	blank2r.bmp	866	4	versagen	866	1	!	1239	1	!	1266	0	0	0	0	0	0	0	0	0	0	0	0	0	0	0	0	0	0	0	0	0	0	0	0	0	0	0
121318	15:54:31	16:02:54	502539	5.0.10.0	4_exp_AMP_EVA_AWA_CON	16	Rpleas_acq	Oppo	Rpleas	Amasked	CS_A	1pleas	distractor1	EVAbeforeCON	acq_US_pleas_masked	acq45_masked	5	20	400	1	300	300	0	0	346	50	0	1	0	0	0	1	blank2r.bmp	0	1	+	0	8	C4r.bmp	492	1	blank2r.bmp	786	1	CPLW	786	1	blank2r.bmp	866	2	kuss	866	1	!	1239	1	!	1252	0	0	0	0	0	0	0	0	0	0	0	0	0	0	0	0	0	0	0	0	0	0	0	0	0	0	0
121318	15:54:31	16:02:56	504831	5.0.10.0	4_exp_AMP_EVA_AWA_CON	16	Rpleas_acq	Oppo	Rpleas	Amasked	CS_A	1pleas	distractor1	EVAbeforeCON	acq_US_unple_masked	acq45_masked	5	21	400	0	300	300	0	0	518	46	0	1	0	0	0	1	blank2r.bmp	0	1	+	0	6	C2r.bmp	492	1	blank2r.bmp	786	1	DHJF	786	1	blank2r.bmp	866	1	gierig	866	1	!	1239	1	!	-1	0	0	0	0	0	0	0	0	0	0	0	0	0	0	0	0	0	0	0	0	0	0	0	0	0	0	0
121318	15:54:31	16:02:59	507031	5.0.10.0	4_exp_AMP_EVA_AWA_CON	16	Rpleas_acq	Oppo	Rpleas	Amasked	CS_A	1pleas	distractor1	EVAbeforeCON	acq_US_unple_masked	acq45_masked	5	22	400	1	300	300	0	0	396	46	0	1	0	0	0	1	blank2r.bmp	0	1	+	0	7	C3r.bmp	492	1	blank2r.bmp	786	1	DHJF	786	1	blank2r.bmp	866	3	geizig	866	1	!	1239	1	!	1292	0	0	0	0	0	0	0	0	0	0	0	0	0	0	0	0	0	0	0	0	0	0	0	0	0	0	0
121318	15:54:31	16:03:01	509376	5.0.10.0	4_exp_AMP_EVA_AWA_CON	16	Rpleas_acq	Oppo	Rpleas	Amasked	CS_A	1pleas	distractor1	EVAbeforeCON	acq_US_unple_masked	acq45_masked	5	23	400	0	300	300	0	0	560	46	0	1	0	0	0	1	blank2r.bmp	0	1	+	0	3	B3r.bmp	492	1	blank2r.bmp	786	1	DHJF	786	1	blank2r.bmp	866	4	versagen	866	1	!	1239	1	!	-1	0	0	0	0	0	0	0	0	0	0	0	0	0	0	0	0	0	0	0	0	0	0	0	0	0	0	0
121318	15:54:31	16:03:03	511709	5.0.10.0	4_exp_AMP_EVA_AWA_CON	16	Rpleas_acq	Oppo	Rpleas	Amasked	CS_A	1pleas	distractor1	EVAbeforeCON	acq_US_pleas_masked	acq45_masked	5	24	400	0	300	300	0	0	557	50	0	1	0	0	0	1	blank2r.bmp	0	1	+	0	1	B1r.bmp	492	1	blank2r.bmp	786	1	CPLW	786	1	blank2r.bmp	866	3	gesittet	866	1	!	1239	1	!	-1	0	0	0	0	0	0	0	0	0	0	0	0	0	0	0	0	0	0	0	0	0	0	0	0	0	0	0
121318	15:54:31	16:03:05	513974	5.0.10.0	4_exp_AMP_EVA_AWA_CON	16	Rpleas_acq	Oppo	Rpleas	Amasked	CS_A	1pleas	distractor1	EVAbeforeCON	acq_US_pleas_masked	acq45_masked	5	25	400	0	300	300	0	0	488	50	0	1	0	0	0	1	blank2r.bmp	0	1	+	0	5	C1r.bmp	492	1	blank2r.bmp	786	1	CPLW	786	1	blank2r.bmp	866	5	kreativ	866	1	!	1239	1	!	-1	0	0	0	0	0	0	0	0	0	0	0	0	0	0	0	0	0	0	0	0	0	0	0	0	0	0	0
121318	15:54:31	16:03:08	516253	5.0.10.0	4_exp_AMP_EVA_AWA_CON	16	Rpleas_acq	Oppo	Rpleas	Amasked	CS_A	1pleas	distractor1	EVAbeforeCON	acq_US_unple_masked	acq45_masked	5	26	400	1	300	300	0	0	464	46	0	1	0	0	0	1	blank2r.bmp	0	1	+	0	3	B3r.bmp	492	1	blank2r.bmp	786	1	DHJF	786	1	blank2r.bmp	866	3	geizig	866	1	!	1239	1	!	1359	0	0	0	0	0	0	0	0	0	0	0	0	0	0	0	0	0	0	0	0	0	0	0	0	0	0	0
121318	15:54:31	16:03:10	518466	5.0.10.0	4_exp_AMP_EVA_AWA_CON	16	Rpleas_acq	Oppo	Rpleas	Amasked	CS_A	1pleas	distractor1	EVAbeforeCON	acq_US_unple_masked	acq45_masked	5	27	400	1	300	300	0	0	421	46	0	1	0	0	0	1	blank2r.bmp	0	1	+	0	7	C3r.bmp	492	1	blank2r.bmp	786	1	DHJF	786	1	blank2r.bmp	866	5	krank	866	1	!	1239	1	!	1319	0	0	0	0	0	0	0	0	0	0	0	0	0	0	0	0	0	0	0	0	0	0	0	0	0	0	0
121318	15:54:31	16:03:12	520785	5.0.10.0	4_exp_AMP_EVA_AWA_CON	16	Rpleas_acq	Oppo	Rpleas	Amasked	CS_A	1pleas	distractor1	EVAbeforeCON	acq_US_pleas_masked	acq45_masked	5	28	400	0	300	300	0	0	534	50	0	1	0	0	0	1	blank2r.bmp	0	1	+	0	6	C2r.bmp	492	1	blank2r.bmp	786	1	CPLW	786	1	blank2r.bmp	866	3	gesittet	866	1	!	1239	1	!	-1	0	0	0	0	0	0	0	0	0	0	0	0	0	0	0	0	0	0	0	0	0	0	0	0	0	0	0
121318	15:54:31	16:03:14	522877	5.0.10.0	4_exp_AMP_EVA_AWA_CON	16	Rpleas_acq	Oppo	Rpleas	Amasked	CS_A	1pleas	distractor1	EVAbeforeCON	acq_US_pleas_masked	acq45_masked	5	29	400	0	300	300	0	0	313	50	0	1	0	0	0	1	blank2r.bmp	0	1	+	0	4	B4r.bmp	492	1	blank2r.bmp	786	1	CPLW	786	1	blank2r.bmp	866	1	gütig	866	1	!	-1	1	!	-1	0	0	0	0	0	0	0	0	0	0	0	0	0	0	0	0	0	0	0	0	0	0	0	0	0	0	0
121318	15:54:31	16:03:17	525143	5.0.10.0	4_exp_AMP_EVA_AWA_CON	16	Rpleas_acq	Oppo	Rpleas	Amasked	CS_A	1pleas	distractor1	EVAbeforeCON	acq_US_pleas_masked	acq45_masked	5	30	400	0	300	300	0	0	479	50	0	1	0	0	0	1	blank2r.bmp	0	1	+	0	1	B1r.bmp	492	1	blank2r.bmp	786	1	CPLW	786	1	blank2r.bmp	866	5	kreativ	866	1	!	1239	1	!	-1	0	0	0	0	0	0	0	0	0	0	0	0	0	0	0	0	0	0	0	0	0	0	0	0	0	0	0
121318	15:54:31	16:03:19	527449	5.0.10.0	4_exp_AMP_EVA_AWA_CON	16	Rpleas_acq	Oppo	Rpleas	Amasked	CS_A	1pleas	distractor1	EVAbeforeCON	acq_US_unple_masked	acq45_masked	5	31	400	0	300	300	0	0	516	46	0	1	0	0	0	1	blank2r.bmp	0	1	+	0	8	C4r.bmp	492	1	blank2r.bmp	786	1	DHJF	786	1	blank2r.bmp	866	6	gemein	866	1	!	1239	1	!	-1	0	0	0	0	0	0	0	0	0	0	0	0	0	0	0	0	0	0	0	0	0	0	0	0	0	0	0
121318	15:54:31	16:03:21	529648	5.0.10.0	4_exp_AMP_EVA_AWA_CON	16	Rpleas_acq	Oppo	Rpleas	Amasked	CS_A	1pleas	distractor1	EVAbeforeCON	acq_US_pleas_masked	acq45_masked	5	32	400	1	300	300	0	0	390	46	0	0	0	0	0	1	blank2r.bmp	0	1	+	0	2	B2r.bmp	492	1	blank2r.bmp	786	1	CPLW	786	1	blank2r.bmp	866	4	vertrauen	866	1	!	1239	1	!	1292	0	0	0	0	0	0	0	0	0	0	0	0	0	0	0	0	0	0	0	0	0	0	0	0	0	0	0
121318	15:54:31	16:03:23	531860	5.0.10.0	4_exp_AMP_EVA_AWA_CON	16	Rpleas_acq	Oppo	Rpleas	Amasked	CS_A	1pleas	distractor1	EVAbeforeCON	acq_US_unple_masked	acq45_masked	5	33	400	1	300	300	0	0	420	46	0	1	0	0	0	1	blank2r.bmp	0	1	+	0	1	B1r.bmp	492	1	blank2r.bmp	786	1	DHJF	786	1	blank2r.bmp	866	2	krise	866	1	!	1239	1	!	1319	0	0	0	0	0	0	0	0	0	0	0	0	0	0	0	0	0	0	0	0	0	0	0	0	0	0	0
121318	15:54:31	16:03:26	534059	5.0.10.0	4_exp_AMP_EVA_AWA_CON	16	Rpleas_acq	Oppo	Rpleas	Amasked	CS_A	1pleas	distractor1	EVAbeforeCON	acq_US_unple_masked	acq45_masked	5	34	400	1	300	300	0	0	408	46	0	1	0	0	0	1	blank2r.bmp	0	1	+	0	7	C3r.bmp	492	1	blank2r.bmp	786	1	DHJF	786	1	blank2r.bmp	866	1	gierig	866	1	!	1239	1	!	1306	0	0	0	0	0	0	0	0	0	0	0	0	0	0	0	0	0	0	0	0	0	0	0	0	0	0	0
121318	15:54:31	16:03:28	536419	5.0.10.0	4_exp_AMP_EVA_AWA_CON	16	Rpleas_acq	Oppo	Rpleas	Amasked	CS_A	1pleas	distractor1	EVAbeforeCON	acq_US_pleas_masked	acq45_masked	5	35	400	0	300	300	0	0	592	50	0	1	0	0	0	1	blank2r.bmp	0	1	+	0	5	C1r.bmp	492	1	blank2r.bmp	786	1	CPLW	786	1	blank2r.bmp	866	6	genießen	866	1	!	1239	1	!	-1	0	0	0	0	0	0	0	0	0	0	0	0	0	0	0	0	0	0	0	0	0	0	0	0	0	0	0
121318	15:54:31	16:03:30	538524	5.0.10.0	4_exp_AMP_EVA_AWA_CON	16	Rpleas_acq	Oppo	Rpleas	Amasked	CS_A	1pleas	distractor1	EVAbeforeCON	acq_US_pleas_masked	acq45_masked	5	36	400	0	300	300	0	0	322	50	0	1	0	0	0	1	blank2r.bmp	0	1	+	0	6	C2r.bmp	492	1	blank2r.bmp	786	1	CPLW	786	1	blank2r.bmp	866	2	kuss	866	1	!	-1	1	!	-1	0	0	0	0	0	0	0	0	0	0	0	0	0	0	0	0	0	0	0	0	0	0	0	0	0	0	0
121318	15:54:31	16:03:58	566446	5.0.10.0	4_exp_AMP_EVA_AWA_CON	16	Rpleas_acq	Oppo	Lpleas	Amasked	CS_A	1pleas	distractor1	EVAbeforeCON	AMP_distractor	AMP1_masked	6	1	0	0	300	300	0	0	1284	46	0	0	0	0	0	1	blank2r.bmp	0	1	ZGXT	0	1	blank2r.bmp	79	94	pic94.bmp	199	1	whitenoise_No3.bmp	306	0	0	0	0	0	0	0	0	0	0	0	0	0	0	0	0	0	0	0	0	0	0	0	0	0	0	0	0	0	0	0	0	0	0	0	0	0	0	0
121318	15:54:31	16:04:00	568632	5.0.10.0	4_exp_AMP_EVA_AWA_CON	16	Rpleas_acq	Oppo	Lpleas	Amasked	CS_A	1pleas	distractor1	EVAbeforeCON	AMP_CSpleas	AMP1_masked	6	2	0	0	300	300	0	0	1257	46	0	1	0	0	0	1	blank2r.bmp	0	1	CPLW	0	1	blank2r.bmp	79	18	pic18.bmp	199	1	whitenoise_No3.bmp	306	0	0	0	0	0	0	0	0	0	0	0	0	0	0	0	0	0	0	0	0	0	0	0	0	0	0	0	0	0	0	0	0	0	0	0	0	0	0	0
121318	15:54:31	16:04:02	570298	5.0.10.0	4_exp_AMP_EVA_AWA_CON	16	Rpleas_acq	Oppo	Lpleas	Amasked	CS_A	1pleas	distractor1	EVAbeforeCON	AMP_CSpleas	AMP1_masked	6	3	0	0	300	300	0	0	741	46	0	1	0	0	0	1	blank2r.bmp	0	1	CPLW	0	1	blank2r.bmp	79	134	pic134.bmp	199	1	whitenoise_No3.bmp	306	0	0	0	0	0	0	0	0	0	0	0	0	0	0	0	0	0	0	0	0	0	0	0	0	0	0	0	0	0	0	0	0	0	0	0	0	0	0	0
121318	15:54:31	16:04:03	571684	5.0.10.0	4_exp_AMP_EVA_AWA_CON	16	Rpleas_acq	Oppo	Lpleas	Amasked	CS_A	1pleas	distractor1	EVAbeforeCON	AMP_distractor	AMP1_masked	6	4	0	0	300	300	0	0	454	50	0	0	0	0	0	1	blank2r.bmp	0	1	ZGXT	0	1	blank2r.bmp	79	120	pic120.bmp	199	1	whitenoise_No3.bmp	306	0	0	0	0	0	0	0	0	0	0	0	0	0	0	0	0	0	0	0	0	0	0	0	0	0	0	0	0	0	0	0	0	0	0	0	0	0	0	0
121318	15:54:31	16:04:05	573270	5.0.10.0	4_exp_AMP_EVA_AWA_CON	16	Rpleas_acq	Oppo	Lpleas	Amasked	CS_A	1pleas	distractor1	EVAbeforeCON	AMP_distractor	AMP1_masked	6	5	0	0	300	300	0	0	671	50	0	0	0	0	0	1	blank2r.bmp	0	1	ZGXT	0	1	blank2r.bmp	79	62	pic62.bmp	199	1	whitenoise_No3.bmp	306	0	0	0	0	0	0	0	0	0	0	0	0	0	0	0	0	0	0	0	0	0	0	0	0	0	0	0	0	0	0	0	0	0	0	0	0	0	0	0
121318	15:54:31	16:04:06	574683	5.0.10.0	4_exp_AMP_EVA_AWA_CON	16	Rpleas_acq	Oppo	Lpleas	Amasked	CS_A	1pleas	distractor1	EVAbeforeCON	AMP_CSpleas	AMP1_masked	6	6	0	0	300	300	0	0	496	46	0	1	0	0	0	1	blank2r.bmp	0	1	CPLW	0	1	blank2r.bmp	79	54	pic54.bmp	199	1	whitenoise_No3.bmp	306	0	0	0	0	0	0	0	0	0	0	0	0	0	0	0	0	0	0	0	0	0	0	0	0	0	0	0	0	0	0	0	0	0	0	0	0	0	0	0
121318	15:54:31	16:04:08	576096	5.0.10.0	4_exp_AMP_EVA_AWA_CON	16	Rpleas_acq	Oppo	Lpleas	Amasked	CS_A	1pleas	distractor1	EVAbeforeCON	AMP_CSunple	AMP1_masked	6	7	0	0	300	300	0	0	490	50	0	1	0	0	0	1	blank2r.bmp	0	1	DHJF	0	1	blank2r.bmp	79	75	pic75.bmp	199	1	whitenoise_No3.bmp	306	0	0	0	0	0	0	0	0	0	0	0	0	0	0	0	0	0	0	0	0	0	0	0	0	0	0	0	0	0	0	0	0	0	0	0	0	0	0	0
121318	15:54:31	16:04:09	577642	5.0.10.0	4_exp_AMP_EVA_AWA_CON	16	Rpleas_acq	Oppo	Lpleas	Amasked	CS_A	1pleas	distractor1	EVAbeforeCON	AMP_CSpleas	AMP1_masked	6	8	0	0	300	300	0	0	616	46	0	1	0	0	0	1	blank2r.bmp	0	1	CPLW	0	1	blank2r.bmp	79	12	pic12.bmp	199	1	whitenoise_No3.bmp	306	0	0	0	0	0	0	0	0	0	0	0	0	0	0	0	0	0	0	0	0	0	0	0	0	0	0	0	0	0	0	0	0	0	0	0	0	0	0	0
121318	15:54:31	16:04:11	579174	5.0.10.0	4_exp_AMP_EVA_AWA_CON	16	Rpleas_acq	Oppo	Lpleas	Amasked	CS_A	1pleas	distractor1	EVAbeforeCON	AMP_distractor	AMP1_masked	6	9	0	0	300	300	0	0	624	50	0	0	0	0	0	1	blank2r.bmp	0	1	ZGXT	0	1	blank2r.bmp	79	119	pic119.bmp	199	1	whitenoise_No3.bmp	306	0	0	0	0	0	0	0	0	0	0	0	0	0	0	0	0	0	0	0	0	0	0	0	0	0	0	0	0	0	0	0	0	0	0	0	0	0	0	0
121318	15:54:31	16:04:12	580640	5.0.10.0	4_exp_AMP_EVA_AWA_CON	16	Rpleas_acq	Oppo	Lpleas	Amasked	CS_A	1pleas	distractor1	EVAbeforeCON	AMP_CSunple	AMP1_masked	6	10	0	0	300	300	0	0	536	50	0	1	0	0	0	1	blank2r.bmp	0	1	DHJF	0	1	blank2r.bmp	79	57	pic57.bmp	199	1	whitenoise_No3.bmp	306	0	0	0	0	0	0	0	0	0	0	0	0	0	0	0	0	0	0	0	0	0	0	0	0	0	0	0	0	0	0	0	0	0	0	0	0	0	0	0
121318	15:54:31	16:04:14	582333	5.0.10.0	4_exp_AMP_EVA_AWA_CON	16	Rpleas_acq	Oppo	Lpleas	Amasked	CS_A	1pleas	distractor1	EVAbeforeCON	AMP_CSpleas	AMP1_masked	6	11	0	0	300	300	0	0	775	46	0	1	0	0	0	1	blank2r.bmp	0	1	CPLW	0	1	blank2r.bmp	79	108	pic108.bmp	199	1	whitenoise_No3.bmp	306	0	0	0	0	0	0	0	0	0	0	0	0	0	0	0	0	0	0	0	0	0	0	0	0	0	0	0	0	0	0	0	0	0	0	0	0	0	0	0
121318	15:54:31	16:04:16	584705	5.0.10.0	4_exp_AMP_EVA_AWA_CON	16	Rpleas_acq	Oppo	Lpleas	Amasked	CS_A	1pleas	distractor1	EVAbeforeCON	AMP_CSpleas	AMP1_masked	6	12	0	0	300	300	0	0	1451	50	0	0	0	0	0	1	blank2r.bmp	0	1	CPLW	0	1	blank2r.bmp	79	132	pic132.bmp	199	1	whitenoise_No3.bmp	306	0	0	0	0	0	0	0	0	0	0	0	0	0	0	0	0	0	0	0	0	0	0	0	0	0	0	0	0	0	0	0	0	0	0	0	0	0	0	0
121318	15:54:31	16:04:18	586278	5.0.10.0	4_exp_AMP_EVA_AWA_CON	16	Rpleas_acq	Oppo	Lpleas	Amasked	CS_A	1pleas	distractor1	EVAbeforeCON	AMP_CSunple	AMP1_masked	6	13	0	0	300	300	0	0	651	46	0	0	0	0	0	1	blank2r.bmp	0	1	DHJF	0	1	blank2r.bmp	79	104	pic104.bmp	199	1	whitenoise_No3.bmp	306	0	0	0	0	0	0	0	0	0	0	0	0	0	0	0	0	0	0	0	0	0	0	0	0	0	0	0	0	0	0	0	0	0	0	0	0	0	0	0
121318	15:54:31	16:04:20	588144	5.0.10.0	4_exp_AMP_EVA_AWA_CON	16	Rpleas_acq	Oppo	Lpleas	Amasked	CS_A	1pleas	distractor1	EVAbeforeCON	AMP_CSunple	AMP1_masked	6	14	0	0	300	300	0	0	945	50	0	1	0	0	0	1	blank2r.bmp	0	1	DHJF	0	1	blank2r.bmp	79	11	pic11.bmp	199	1	whitenoise_No3.bmp	306	0	0	0	0	0	0	0	0	0	0	0	0	0	0	0	0	0	0	0	0	0	0	0	0	0	0	0	0	0	0	0	0	0	0	0	0	0	0	0
121318	15:54:31	16:04:21	589543	5.0.10.0	4_exp_AMP_EVA_AWA_CON	16	Rpleas_acq	Oppo	Lpleas	Amasked	CS_A	1pleas	distractor1	EVAbeforeCON	AMP_distractor	AMP1_masked	6	15	0	0	300	300	0	0	472	46	0	0	0	0	0	1	blank2r.bmp	0	1	ZGXT	0	1	blank2r.bmp	79	145	pic145.bmp	199	1	whitenoise_No3.bmp	306	0	0	0	0	0	0	0	0	0	0	0	0	0	0	0	0	0	0	0	0	0	0	0	0	0	0	0	0	0	0	0	0	0	0	0	0	0	0	0
121318	15:54:31	16:04:23	591023	5.0.10.0	4_exp_AMP_EVA_AWA_CON	16	Rpleas_acq	Oppo	Lpleas	Amasked	CS_A	1pleas	distractor1	EVAbeforeCON	AMP_CSunple	AMP1_masked	6	16	0	0	300	300	0	0	560	46	0	0	0	0	0	1	blank2r.bmp	0	1	DHJF	0	1	blank2r.bmp	79	51	pic51.bmp	199	1	whitenoise_No3.bmp	306	0	0	0	0	0	0	0	0	0	0	0	0	0	0	0	0	0	0	0	0	0	0	0	0	0	0	0	0	0	0	0	0	0	0	0	0	0	0	0
121318	15:54:31	16:04:24	592489	5.0.10.0	4_exp_AMP_EVA_AWA_CON	16	Rpleas_acq	Oppo	Lpleas	Amasked	CS_A	1pleas	distractor1	EVAbeforeCON	AMP_distractor	AMP1_masked	6	17	0	0	300	300	0	0	551	50	0	0	0	0	0	1	blank2r.bmp	0	1	ZGXT	0	1	blank2r.bmp	79	115	pic115.bmp	199	1	whitenoise_No3.bmp	306	0	0	0	0	0	0	0	0	0	0	0	0	0	0	0	0	0	0	0	0	0	0	0	0	0	0	0	0	0	0	0	0	0	0	0	0	0	0	0
121318	15:54:31	16:04:25	593875	5.0.10.0	4_exp_AMP_EVA_AWA_CON	16	Rpleas_acq	Oppo	Lpleas	Amasked	CS_A	1pleas	distractor1	EVAbeforeCON	AMP_CSunple	AMP1_masked	6	18	0	0	300	300	0	0	473	50	0	1	0	0	0	1	blank2r.bmp	0	1	DHJF	0	1	blank2r.bmp	79	124	pic124.bmp	199	1	whitenoise_No3.bmp	306	0	0	0	0	0	0	0	0	0	0	0	0	0	0	0	0	0	0	0	0	0	0	0	0	0	0	0	0	0	0	0	0	0	0	0	0	0	0	0
121318	15:54:31	16:04:27	595501	5.0.10.0	4_exp_AMP_EVA_AWA_CON	16	Rpleas_acq	Oppo	Lpleas	Amasked	CS_A	1pleas	distractor1	EVAbeforeCON	AMP_distractor	AMP1_masked	6	19	0	0	300	300	0	0	692	50	0	0	0	0	0	1	blank2r.bmp	0	1	ZGXT	0	1	blank2r.bmp	79	67	pic67.bmp	199	1	whitenoise_No3.bmp	306	0	0	0	0	0	0	0	0	0	0	0	0	0	0	0	0	0	0	0	0	0	0	0	0	0	0	0	0	0	0	0	0	0	0	0	0	0	0	0
121318	15:54:31	16:04:29	597100	5.0.10.0	4_exp_AMP_EVA_AWA_CON	16	Rpleas_acq	Oppo	Lpleas	Amasked	CS_A	1pleas	distractor1	EVAbeforeCON	AMP_CSunple	AMP1_masked	6	20	0	0	300	300	0	0	691	46	0	0	0	0	0	1	blank2r.bmp	0	1	DHJF	0	1	blank2r.bmp	79	53	pic53.bmp	199	1	whitenoise_No3.bmp	306	0	0	0	0	0	0	0	0	0	0	0	0	0	0	0	0	0	0	0	0	0	0	0	0	0	0	0	0	0	0	0	0	0	0	0	0	0	0	0
121318	15:54:31	16:04:30	598620	5.0.10.0	4_exp_AMP_EVA_AWA_CON	16	Rpleas_acq	Oppo	Lpleas	Amasked	CS_A	1pleas	distractor1	EVAbeforeCON	AMP_distractor	AMP1_masked	6	21	0	0	300	300	0	0	595	46	0	0	0	0	0	1	blank2r.bmp	0	1	ZGXT	0	1	blank2r.bmp	79	116	pic116.bmp	199	1	whitenoise_No3.bmp	306	0	0	0	0	0	0	0	0	0	0	0	0	0	0	0	0	0	0	0	0	0	0	0	0	0	0	0	0	0	0	0	0	0	0	0	0	0	0	0
121318	15:54:31	16:04:32	600152	5.0.10.0	4_exp_AMP_EVA_AWA_CON	16	Rpleas_acq	Oppo	Lpleas	Amasked	CS_A	1pleas	distractor1	EVAbeforeCON	AMP_CSunple	AMP1_masked	6	22	0	0	300	300	0	0	618	46	0	0	0	0	0	1	blank2r.bmp	0	1	DHJF	0	1	blank2r.bmp	79	45	pic45.bmp	199	1	whitenoise_No3.bmp	306	0	0	0	0	0	0	0	0	0	0	0	0	0	0	0	0	0	0	0	0	0	0	0	0	0	0	0	0	0	0	0	0	0	0	0	0	0	0	0
121318	15:54:31	16:04:33	601605	5.0.10.0	4_exp_AMP_EVA_AWA_CON	16	Rpleas_acq	Oppo	Lpleas	Amasked	CS_A	1pleas	distractor1	EVAbeforeCON	AMP_CSpleas	AMP1_masked	6	23	0	0	300	300	0	0	536	50	0	0	0	0	0	1	blank2r.bmp	0	1	CPLW	0	1	blank2r.bmp	79	64	pic64.bmp	199	1	whitenoise_No3.bmp	306	0	0	0	0	0	0	0	0	0	0	0	0	0	0	0	0	0	0	0	0	0	0	0	0	0	0	0	0	0	0	0	0	0	0	0	0	0	0	0
121318	15:54:31	16:04:35	603191	5.0.10.0	4_exp_AMP_EVA_AWA_CON	16	Rpleas_acq	Oppo	Lpleas	Amasked	CS_A	1pleas	distractor1	EVAbeforeCON	AMP_CSunple	AMP1_masked	6	24	0	0	300	300	0	0	674	46	0	0	0	0	0	1	blank2r.bmp	0	1	DHJF	0	1	blank2r.bmp	79	50	pic50.bmp	199	1	whitenoise_No3.bmp	306	0	0	0	0	0	0	0	0	0	0	0	0	0	0	0	0	0	0	0	0	0	0	0	0	0	0	0	0	0	0	0	0	0	0	0	0	0	0	0
121318	15:54:31	16:04:36	604790	5.0.10.0	4_exp_AMP_EVA_AWA_CON	16	Rpleas_acq	Oppo	Lpleas	Amasked	CS_A	1pleas	distractor1	EVAbeforeCON	AMP_CSunple	AMP1_masked	6	25	0	0	300	300	0	0	687	46	0	0	0	0	0	1	blank2r.bmp	0	1	DHJF	0	1	blank2r.bmp	79	2	pic2.bmp	199	1	whitenoise_No3.bmp	306	0	0	0	0	0	0	0	0	0	0	0	0	0	0	0	0	0	0	0	0	0	0	0	0	0	0	0	0	0	0	0	0	0	0	0	0	0	0	0
121318	15:54:31	16:04:38	606190	5.0.10.0	4_exp_AMP_EVA_AWA_CON	16	Rpleas_acq	Oppo	Lpleas	Amasked	CS_A	1pleas	distractor1	EVAbeforeCON	AMP_CSpleas	AMP1_masked	6	26	0	0	300	300	0	0	475	50	0	0	0	0	0	1	blank2r.bmp	0	1	CPLW	0	1	blank2r.bmp	79	142	pic142.bmp	199	1	whitenoise_No3.bmp	306	0	0	0	0	0	0	0	0	0	0	0	0	0	0	0	0	0	0	0	0	0	0	0	0	0	0	0	0	0	0	0	0	0	0	0	0	0	0	0
121318	15:54:31	16:04:39	607563	5.0.10.0	4_exp_AMP_EVA_AWA_CON	16	Rpleas_acq	Oppo	Lpleas	Amasked	CS_A	1pleas	distractor1	EVAbeforeCON	AMP_distractor	AMP1_masked	6	27	0	0	300	300	0	0	446	50	0	0	0	0	0	1	blank2r.bmp	0	1	ZGXT	0	1	blank2r.bmp	79	72	pic72.bmp	199	1	whitenoise_No3.bmp	306	0	0	0	0	0	0	0	0	0	0	0	0	0	0	0	0	0	0	0	0	0	0	0	0	0	0	0	0	0	0	0	0	0	0	0	0	0	0	0
121318	15:54:31	16:04:40	608962	5.0.10.0	4_exp_AMP_EVA_AWA_CON	16	Rpleas_acq	Oppo	Lpleas	Amasked	CS_A	1pleas	distractor1	EVAbeforeCON	AMP_CSpleas	AMP1_masked	6	28	0	0	300	300	0	0	487	46	0	1	0	0	0	1	blank2r.bmp	0	1	CPLW	0	1	blank2r.bmp	79	6	pic6.bmp	199	1	whitenoise_No3.bmp	306	0	0	0	0	0	0	0	0	0	0	0	0	0	0	0	0	0	0	0	0	0	0	0	0	0	0	0	0	0	0	0	0	0	0	0	0	0	0	0
121318	15:54:31	16:04:42	610481	5.0.10.0	4_exp_AMP_EVA_AWA_CON	16	Rpleas_acq	Oppo	Lpleas	Amasked	CS_A	1pleas	distractor1	EVAbeforeCON	AMP_CSunple	AMP1_masked	6	29	0	0	300	300	0	0	604	46	0	0	0	0	0	1	blank2r.bmp	0	1	DHJF	0	1	blank2r.bmp	79	81	pic81.bmp	199	1	whitenoise_No3.bmp	306	0	0	0	0	0	0	0	0	0	0	0	0	0	0	0	0	0	0	0	0	0	0	0	0	0	0	0	0	0	0	0	0	0	0	0	0	0	0	0
121318	15:54:31	16:04:43	611854	5.0.10.0	4_exp_AMP_EVA_AWA_CON	16	Rpleas_acq	Oppo	Lpleas	Amasked	CS_A	1pleas	distractor1	EVAbeforeCON	AMP_distractor	AMP1_masked	6	30	0	0	300	300	0	0	465	50	0	0	0	0	0	1	blank2r.bmp	0	1	ZGXT	0	1	blank2r.bmp	79	97	pic97.bmp	199	1	whitenoise_No3.bmp	306	0	0	0	0	0	0	0	0	0	0	0	0	0	0	0	0	0	0	0	0	0	0	0	0	0	0	0	0	0	0	0	0	0	0	0	0	0	0	0
121318	15:54:31	16:04:45	613427	5.0.10.0	4_exp_AMP_EVA_AWA_CON	16	Rpleas_acq	Oppo	Lpleas	Amasked	CS_A	1pleas	distractor1	EVAbeforeCON	AMP_CSpleas	AMP1_masked	6	31	0	0	300	300	0	0	648	46	0	1	0	0	0	1	blank2r.bmp	0	1	CPLW	0	1	blank2r.bmp	79	43	pic43.bmp	199	1	whitenoise_No3.bmp	306	0	0	0	0	0	0	0	0	0	0	0	0	0	0	0	0	0	0	0	0	0	0	0	0	0	0	0	0	0	0	0	0	0	0	0	0	0	0	0
121318	15:54:31	16:04:46	614933	5.0.10.0	4_exp_AMP_EVA_AWA_CON	16	Rpleas_acq	Oppo	Lpleas	Amasked	CS_A	1pleas	distractor1	EVAbeforeCON	AMP_CSunple	AMP1_masked	6	32	0	0	300	300	0	0	576	50	0	1	0	0	0	1	blank2r.bmp	0	1	DHJF	0	1	blank2r.bmp	79	13	pic13.bmp	199	1	whitenoise_No3.bmp	306	0	0	0	0	0	0	0	0	0	0	0	0	0	0	0	0	0	0	0	0	0	0	0	0	0	0	0	0	0	0	0	0	0	0	0	0	0	0	0
121318	15:54:31	16:04:48	616239	5.0.10.0	4_exp_AMP_EVA_AWA_CON	16	Rpleas_acq	Oppo	Lpleas	Amasked	CS_A	1pleas	distractor1	EVAbeforeCON	AMP_CSpleas	AMP1_masked	6	33	0	0	300	300	0	0	385	50	0	0	0	0	0	1	blank2r.bmp	0	1	CPLW	0	1	blank2r.bmp	79	55	pic55.bmp	199	1	whitenoise_No3.bmp	306	0	0	0	0	0	0	0	0	0	0	0	0	0	0	0	0	0	0	0	0	0	0	0	0	0	0	0	0	0	0	0	0	0	0	0	0	0	0	0
121318	15:54:31	16:04:49	617665	5.0.10.0	4_exp_AMP_EVA_AWA_CON	16	Rpleas_acq	Oppo	Lpleas	Amasked	CS_A	1pleas	distractor1	EVAbeforeCON	AMP_distractor	AMP1_masked	6	34	0	0	300	300	0	0	497	46	0	0	0	0	0	1	blank2r.bmp	0	1	ZGXT	0	1	blank2r.bmp	79	86	pic86.bmp	199	1	whitenoise_No3.bmp	306	0	0	0	0	0	0	0	0	0	0	0	0	0	0	0	0	0	0	0	0	0	0	0	0	0	0	0	0	0	0	0	0	0	0	0	0	0	0	0
121318	15:54:31	16:04:51	619158	5.0.10.0	4_exp_AMP_EVA_AWA_CON	16	Rpleas_acq	Oppo	Lpleas	Amasked	CS_A	1pleas	distractor1	EVAbeforeCON	AMP_CSpleas	AMP1_masked	6	35	0	0	300	300	0	0	559	46	0	1	0	0	0	1	blank2r.bmp	0	1	CPLW	0	1	blank2r.bmp	79	68	pic68.bmp	199	1	whitenoise_No3.bmp	306	0	0	0	0	0	0	0	0	0	0	0	0	0	0	0	0	0	0	0	0	0	0	0	0	0	0	0	0	0	0	0	0	0	0	0	0	0	0	0
121318	15:54:31	16:04:52	620557	5.0.10.0	4_exp_AMP_EVA_AWA_CON	16	Rpleas_acq	Oppo	Lpleas	Amasked	CS_A	1pleas	distractor1	EVAbeforeCON	AMP_CSpleas	AMP1_masked	6	36	0	0	300	300	0	0	490	46	0	1	0	0	0	1	blank2r.bmp	0	1	CPLW	0	1	blank2r.bmp	79	98	pic98.bmp	199	1	whitenoise_No3.bmp	306	0	0	0	0	0	0	0	0	0	0	0	0	0	0	0	0	0	0	0	0	0	0	0	0	0	0	0	0	0	0	0	0	0	0	0	0	0	0	0
121318	15:54:31	16:04:53	621957	5.0.10.0	4_exp_AMP_EVA_AWA_CON	16	Rpleas_acq	Oppo	Lpleas	Amasked	CS_A	1pleas	distractor1	EVAbeforeCON	AMP_distractor	AMP1_masked	6	37	0	0	300	300	0	0	473	50	0	0	0	0	0	1	blank2r.bmp	0	1	ZGXT	0	1	blank2r.bmp	79	65	pic65.bmp	199	1	whitenoise_No3.bmp	306	0	0	0	0	0	0	0	0	0	0	0	0	0	0	0	0	0	0	0	0	0	0	0	0	0	0	0	0	0	0	0	0	0	0	0	0	0	0	0
121318	15:54:31	16:04:55	623383	5.0.10.0	4_exp_AMP_EVA_AWA_CON	16	Rpleas_acq	Oppo	Lpleas	Amasked	CS_A	1pleas	distractor1	EVAbeforeCON	AMP_CSpleas	AMP1_masked	6	38	0	0	300	300	0	0	505	50	0	0	0	0	0	1	blank2r.bmp	0	1	CPLW	0	1	blank2r.bmp	79	99	pic99.bmp	199	1	whitenoise_No3.bmp	306	0	0	0	0	0	0	0	0	0	0	0	0	0	0	0	0	0	0	0	0	0	0	0	0	0	0	0	0	0	0	0	0	0	0	0	0	0	0	0
121318	15:54:31	16:04:56	624729	5.0.10.0	4_exp_AMP_EVA_AWA_CON	16	Rpleas_acq	Oppo	Lpleas	Amasked	CS_A	1pleas	distractor1	EVAbeforeCON	AMP_CSpleas	AMP1_masked	6	39	0	0	300	300	0	0	426	46	0	1	0	0	0	1	blank2r.bmp	0	1	CPLW	0	1	blank2r.bmp	79	139	pic139.bmp	199	1	whitenoise_No3.bmp	306	0	0	0	0	0	0	0	0	0	0	0	0	0	0	0	0	0	0	0	0	0	0	0	0	0	0	0	0	0	0	0	0	0	0	0	0	0	0	0
121318	15:54:31	16:04:58	626035	5.0.10.0	4_exp_AMP_EVA_AWA_CON	16	Rpleas_acq	Oppo	Lpleas	Amasked	CS_A	1pleas	distractor1	EVAbeforeCON	AMP_distractor	AMP1_masked	6	40	0	0	300	300	0	0	389	46	0	0	0	0	0	1	blank2r.bmp	0	1	ZGXT	0	1	blank2r.bmp	79	49	pic49.bmp	199	1	whitenoise_No3.bmp	306	0	0	0	0	0	0	0	0	0	0	0	0	0	0	0	0	0	0	0	0	0	0	0	0	0	0	0	0	0	0	0	0	0	0	0	0	0	0	0
121318	15:54:31	16:04:59	627461	5.0.10.0	4_exp_AMP_EVA_AWA_CON	16	Rpleas_acq	Oppo	Lpleas	Amasked	CS_A	1pleas	distractor1	EVAbeforeCON	AMP_CSunple	AMP1_masked	6	41	0	0	300	300	0	0	510	50	0	1	0	0	0	1	blank2r.bmp	0	1	DHJF	0	1	blank2r.bmp	79	42	pic42.bmp	199	1	whitenoise_No3.bmp	306	0	0	0	0	0	0	0	0	0	0	0	0	0	0	0	0	0	0	0	0	0	0	0	0	0	0	0	0	0	0	0	0	0	0	0	0	0	0	0
121318	15:54:31	16:05:00	628767	5.0.10.0	4_exp_AMP_EVA_AWA_CON	16	Rpleas_acq	Oppo	Lpleas	Amasked	CS_A	1pleas	distractor1	EVAbeforeCON	AMP_CSunple	AMP1_masked	6	42	0	0	300	300	0	0	384	46	0	0	0	0	0	1	blank2r.bmp	0	1	DHJF	0	1	blank2r.bmp	79	113	pic113.bmp	199	1	whitenoise_No3.bmp	306	0	0	0	0	0	0	0	0	0	0	0	0	0	0	0	0	0	0	0	0	0	0	0	0	0	0	0	0	0	0	0	0	0	0	0	0	0	0	0
121318	15:54:31	16:05:02	630300	5.0.10.0	4_exp_AMP_EVA_AWA_CON	16	Rpleas_acq	Oppo	Lpleas	Amasked	CS_A	1pleas	distractor1	EVAbeforeCON	AMP_CSunple	AMP1_masked	6	43	0	0	300	300	0	0	600	46	0	0	0	0	0	1	blank2r.bmp	0	1	DHJF	0	1	blank2r.bmp	79	84	pic84.bmp	199	1	whitenoise_No3.bmp	306	0	0	0	0	0	0	0	0	0	0	0	0	0	0	0	0	0	0	0	0	0	0	0	0	0	0	0	0	0	0	0	0	0	0	0	0	0	0	0
121318	15:54:31	16:05:03	631713	5.0.10.0	4_exp_AMP_EVA_AWA_CON	16	Rpleas_acq	Oppo	Lpleas	Amasked	CS_A	1pleas	distractor1	EVAbeforeCON	AMP_CSunple	AMP1_masked	6	44	0	0	300	300	0	0	488	50	0	1	0	0	0	1	blank2r.bmp	0	1	DHJF	0	1	blank2r.bmp	79	52	pic52.bmp	199	1	whitenoise_No3.bmp	306	0	0	0	0	0	0	0	0	0	0	0	0	0	0	0	0	0	0	0	0	0	0	0	0	0	0	0	0	0	0	0	0	0	0	0	0	0	0	0
121318	15:54:31	16:05:05	633072	5.0.10.0	4_exp_AMP_EVA_AWA_CON	16	Rpleas_acq	Oppo	Lpleas	Amasked	CS_A	1pleas	distractor1	EVAbeforeCON	AMP_distractor	AMP1_masked	6	45	0	0	300	300	0	0	435	46	0	0	0	0	0	1	blank2r.bmp	0	1	ZGXT	0	1	blank2r.bmp	79	36	pic36.bmp	199	1	whitenoise_No3.bmp	306	0	0	0	0	0	0	0	0	0	0	0	0	0	0	0	0	0	0	0	0	0	0	0	0	0	0	0	0	0	0	0	0	0	0	0	0	0	0	0
121318	15:54:31	16:05:06	634511	5.0.10.0	4_exp_AMP_EVA_AWA_CON	16	Rpleas_acq	Oppo	Lpleas	Amasked	CS_A	1pleas	distractor1	EVAbeforeCON	AMP_distractor	AMP1_masked	6	46	0	0	300	300	0	0	513	50	0	0	0	0	0	1	blank2r.bmp	0	1	ZGXT	0	1	blank2r.bmp	79	110	pic110.bmp	199	1	whitenoise_No3.bmp	306	0	0	0	0	0	0	0	0	0	0	0	0	0	0	0	0	0	0	0	0	0	0	0	0	0	0	0	0	0	0	0	0	0	0	0	0	0	0	0
121318	15:54:31	16:05:07	635844	5.0.10.0	4_exp_AMP_EVA_AWA_CON	16	Rpleas_acq	Oppo	Lpleas	Amasked	CS_A	1pleas	distractor1	EVAbeforeCON	AMP_distractor	AMP1_masked	6	47	0	0	300	300	0	0	409	50	0	0	0	0	0	1	blank2r.bmp	0	1	ZGXT	0	1	blank2r.bmp	79	20	pic20.bmp	199	1	whitenoise_No3.bmp	306	0	0	0	0	0	0	0	0	0	0	0	0	0	0	0	0	0	0	0	0	0	0	0	0	0	0	0	0	0	0	0	0	0	0	0	0	0	0	0
121318	15:54:31	16:05:09	637257	5.0.10.0	4_exp_AMP_EVA_AWA_CON	16	Rpleas_acq	Oppo	Lpleas	Amasked	CS_A	1pleas	distractor1	EVAbeforeCON	AMP_CSpleas	AMP1_masked	6	48	0	0	300	300	0	0	488	46	0	1	0	0	0	1	blank2r.bmp	0	1	CPLW	0	1	blank2r.bmp	79	117	pic117.bmp	199	1	whitenoise_No3.bmp	306	0	0	0	0	0	0	0	0	0	0	0	0	0	0	0	0	0	0	0	0	0	0	0	0	0	0	0	0	0	0	0	0	0	0	0	0	0	0	0
121318	15:54:31	16:05:10	638630	5.0.10.0	4_exp_AMP_EVA_AWA_CON	16	Rpleas_acq	Oppo	Lpleas	Amasked	CS_A	1pleas	distractor1	EVAbeforeCON	AMP_CSpleas	AMP1_masked	6	49	0	0	300	300	0	0	451	50	0	0	0	0	0	1	blank2r.bmp	0	1	CPLW	0	1	blank2r.bmp	79	60	pic60.bmp	199	1	whitenoise_No3.bmp	306	0	0	0	0	0	0	0	0	0	0	0	0	0	0	0	0	0	0	0	0	0	0	0	0	0	0	0	0	0	0	0	0	0	0	0	0	0	0	0
121318	15:54:31	16:05:12	640043	5.0.10.0	4_exp_AMP_EVA_AWA_CON	16	Rpleas_acq	Oppo	Lpleas	Amasked	CS_A	1pleas	distractor1	EVAbeforeCON	AMP_distractor	AMP1_masked	6	50	0	0	300	300	0	0	478	46	0	0	0	0	0	1	blank2r.bmp	0	1	ZGXT	0	1	blank2r.bmp	79	131	pic131.bmp	199	1	whitenoise_No3.bmp	306	0	0	0	0	0	0	0	0	0	0	0	0	0	0	0	0	0	0	0	0	0	0	0	0	0	0	0	0	0	0	0	0	0	0	0	0	0	0	0
121318	15:54:31	16:05:13	641349	5.0.10.0	4_exp_AMP_EVA_AWA_CON	16	Rpleas_acq	Oppo	Lpleas	Amasked	CS_A	1pleas	distractor1	EVAbeforeCON	AMP_CSunple	AMP1_masked	6	51	0	0	300	300	0	0	398	50	0	1	0	0	0	1	blank2r.bmp	0	1	DHJF	0	1	blank2r.bmp	79	125	pic125.bmp	199	1	whitenoise_No3.bmp	306	0	0	0	0	0	0	0	0	0	0	0	0	0	0	0	0	0	0	0	0	0	0	0	0	0	0	0	0	0	0	0	0	0	0	0	0	0	0	0
121318	15:54:31	16:05:18	646893	5.0.10.0	4_exp_AMP_EVA_AWA_CON	16	Rpleas_acq	Oppo	Lpleas	Amasked	CS_A	1pleas	distractor1	EVAbeforeCON	AMP_distractor	AMP23	7	1	0	0	300	300	0	0	637	50	0	0	0	0	0	1	blank2r.bmp	0	1	ZGXT	0	1	blank2r.bmp	79	126	pic126.bmp	199	1	whitenoise_No3.bmp	306	0	0	0	0	0	0	0	0	0	0	0	0	0	0	0	0	0	0	0	0	0	0	0	0	0	0	0	0	0	0	0	0	0	0	0	0	0	0	0
121318	15:54:31	16:05:20	648199	5.0.10.0	4_exp_AMP_EVA_AWA_CON	16	Rpleas_acq	Oppo	Lpleas	Amasked	CS_A	1pleas	distractor1	EVAbeforeCON	AMP_CSunple	AMP23	7	2	0	0	300	300	0	0	379	46	0	0	0	0	0	1	blank2r.bmp	0	1	DHJF	0	1	blank2r.bmp	79	66	pic66.bmp	199	1	whitenoise_No3.bmp	306	0	0	0	0	0	0	0	0	0	0	0	0	0	0	0	0	0	0	0	0	0	0	0	0	0	0	0	0	0	0	0	0	0	0	0	0	0	0	0
121318	15:54:31	16:05:21	649599	5.0.10.0	4_exp_AMP_EVA_AWA_CON	16	Rpleas_acq	Oppo	Lpleas	Amasked	CS_A	1pleas	distractor1	EVAbeforeCON	AMP_distractor	AMP23	7	3	0	0	300	300	0	0	486	50	0	0	0	0	0	1	blank2r.bmp	0	1	ZGXT	0	1	blank2r.bmp	79	38	pic38.bmp	199	1	whitenoise_No3.bmp	306	0	0	0	0	0	0	0	0	0	0	0	0	0	0	0	0	0	0	0	0	0	0	0	0	0	0	0	0	0	0	0	0	0	0	0	0	0	0	0
121318	15:54:31	16:05:22	650971	5.0.10.0	4_exp_AMP_EVA_AWA_CON	16	Rpleas_acq	Oppo	Lpleas	Amasked	CS_A	1pleas	distractor1	EVAbeforeCON	AMP_distractor	AMP23	7	4	0	0	300	300	0	0	451	50	0	0	0	0	0	1	blank2r.bmp	0	1	ZGXT	0	1	blank2r.bmp	79	44	pic44.bmp	199	1	whitenoise_No3.bmp	306	0	0	0	0	0	0	0	0	0	0	0	0	0	0	0	0	0	0	0	0	0	0	0	0	0	0	0	0	0	0	0	0	0	0	0	0	0	0	0
121318	15:54:31	16:05:24	652304	5.0.10.0	4_exp_AMP_EVA_AWA_CON	16	Rpleas_acq	Oppo	Lpleas	Amasked	CS_A	1pleas	distractor1	EVAbeforeCON	AMP_CSunple	AMP23	7	5	0	0	300	300	0	0	407	50	0	1	0	0	0	1	blank2r.bmp	0	1	DHJF	0	1	blank2r.bmp	79	23	pic23.bmp	199	1	whitenoise_No3.bmp	306	0	0	0	0	0	0	0	0	0	0	0	0	0	0	0	0	0	0	0	0	0	0	0	0	0	0	0	0	0	0	0	0	0	0	0	0	0	0	0
121318	15:54:31	16:05:25	653610	5.0.10.0	4_exp_AMP_EVA_AWA_CON	16	Rpleas_acq	Oppo	Lpleas	Amasked	CS_A	1pleas	distractor1	EVAbeforeCON	AMP_distractor	AMP23	7	6	0	0	300	300	0	0	384	50	0	0	0	0	0	1	blank2r.bmp	0	1	ZGXT	0	1	blank2r.bmp	79	33	pic33.bmp	199	1	whitenoise_No3.bmp	306	0	0	0	0	0	0	0	0	0	0	0	0	0	0	0	0	0	0	0	0	0	0	0	0	0	0	0	0	0	0	0	0	0	0	0	0	0	0	0
121318	15:54:31	16:05:27	655529	5.0.10.0	4_exp_AMP_EVA_AWA_CON	16	Rpleas_acq	Oppo	Lpleas	Amasked	CS_A	1pleas	distractor1	EVAbeforeCON	AMP_CSunple	AMP23	7	7	0	0	300	300	0	0	980	46	0	0	0	0	0	1	blank2r.bmp	0	1	DHJF	0	1	blank2r.bmp	79	89	pic89.bmp	199	1	whitenoise_No3.bmp	306	0	0	0	0	0	0	0	0	0	0	0	0	0	0	0	0	0	0	0	0	0	0	0	0	0	0	0	0	0	0	0	0	0	0	0	0	0	0	0
121318	15:54:31	16:05:28	656969	5.0.10.0	4_exp_AMP_EVA_AWA_CON	16	Rpleas_acq	Oppo	Lpleas	Amasked	CS_A	1pleas	distractor1	EVAbeforeCON	AMP_CSunple	AMP23	7	8	0	0	300	300	0	0	519	50	0	1	0	0	0	1	blank2r.bmp	0	1	DHJF	0	1	blank2r.bmp	79	77	pic77.bmp	199	1	whitenoise_No3.bmp	306	0	0	0	0	0	0	0	0	0	0	0	0	0	0	0	0	0	0	0	0	0	0	0	0	0	0	0	0	0	0	0	0	0	0	0	0	0	0	0
121318	15:54:31	16:05:30	658422	5.0.10.0	4_exp_AMP_EVA_AWA_CON	16	Rpleas_acq	Oppo	Lpleas	Amasked	CS_A	1pleas	distractor1	EVAbeforeCON	AMP_CSpleas	AMP23	7	9	0	0	300	300	0	0	532	50	0	0	0	0	0	1	blank2r.bmp	0	1	CPLW	0	1	blank2r.bmp	79	103	pic103.bmp	199	1	whitenoise_No3.bmp	306	0	0	0	0	0	0	0	0	0	0	0	0	0	0	0	0	0	0	0	0	0	0	0	0	0	0	0	0	0	0	0	0	0	0	0	0	0	0	0
121318	15:54:31	16:05:31	659728	5.0.10.0	4_exp_AMP_EVA_AWA_CON	16	Rpleas_acq	Oppo	Lpleas	Amasked	CS_A	1pleas	distractor1	EVAbeforeCON	AMP_distractor	AMP23	7	10	0	0	300	300	0	0	393	46	0	0	0	0	0	1	blank2r.bmp	0	1	ZGXT	0	1	blank2r.bmp	79	21	pic21.bmp	199	1	whitenoise_No3.bmp	306	0	0	0	0	0	0	0	0	0	0	0	0	0	0	0	0	0	0	0	0	0	0	0	0	0	0	0	0	0	0	0	0	0	0	0	0	0	0	0
121318	15:54:31	16:05:33	661074	5.0.10.0	4_exp_AMP_EVA_AWA_CON	16	Rpleas_acq	Oppo	Lpleas	Amasked	CS_A	1pleas	distractor1	EVAbeforeCON	AMP_CSpleas	AMP23	7	11	0	0	300	300	0	0	438	50	0	0	0	0	0	1	blank2r.bmp	0	1	CPLW	0	1	blank2r.bmp	79	101	pic101.bmp	199	1	whitenoise_No3.bmp	306	0	0	0	0	0	0	0	0	0	0	0	0	0	0	0	0	0	0	0	0	0	0	0	0	0	0	0	0	0	0	0	0	0	0	0	0	0	0	0
121318	15:54:31	16:05:34	662513	5.0.10.0	4_exp_AMP_EVA_AWA_CON	16	Rpleas_acq	Oppo	Lpleas	Amasked	CS_A	1pleas	distractor1	EVAbeforeCON	AMP_CSpleas	AMP23	7	12	0	0	300	300	0	0	516	50	0	0	0	0	0	1	blank2r.bmp	0	1	CPLW	0	1	blank2r.bmp	79	83	pic83.bmp	199	1	whitenoise_No3.bmp	306	0	0	0	0	0	0	0	0	0	0	0	0	0	0	0	0	0	0	0	0	0	0	0	0	0	0	0	0	0	0	0	0	0	0	0	0	0	0	0
121318	15:54:31	16:05:36	664099	5.0.10.0	4_exp_AMP_EVA_AWA_CON	16	Rpleas_acq	Oppo	Lpleas	Amasked	CS_A	1pleas	distractor1	EVAbeforeCON	AMP_CSunple	AMP23	7	13	0	0	300	300	0	0	661	50	0	1	0	0	0	1	blank2r.bmp	0	1	DHJF	0	1	blank2r.bmp	79	133	pic133.bmp	199	1	whitenoise_No3.bmp	306	0	0	0	0	0	0	0	0	0	0	0	0	0	0	0	0	0	0	0	0	0	0	0	0	0	0	0	0	0	0	0	0	0	0	0	0	0	0	0
121318	15:54:31	16:05:37	665485	5.0.10.0	4_exp_AMP_EVA_AWA_CON	16	Rpleas_acq	Oppo	Lpleas	Amasked	CS_A	1pleas	distractor1	EVAbeforeCON	AMP_CSpleas	AMP23	7	14	0	0	300	300	0	0	452	50	0	0	0	0	0	1	blank2r.bmp	0	1	CPLW	0	1	blank2r.bmp	79	93	pic93.bmp	199	1	whitenoise_No3.bmp	306	0	0	0	0	0	0	0	0	0	0	0	0	0	0	0	0	0	0	0	0	0	0	0	0	0	0	0	0	0	0	0	0	0	0	0	0	0	0	0
121318	15:54:31	16:05:38	666738	5.0.10.0	4_exp_AMP_EVA_AWA_CON	16	Rpleas_acq	Oppo	Lpleas	Amasked	CS_A	1pleas	distractor1	EVAbeforeCON	AMP_CSunple	AMP23	7	15	0	0	300	300	0	0	338	46	0	0	0	0	0	1	blank2r.bmp	0	1	DHJF	0	1	blank2r.bmp	79	10	pic10.bmp	199	1	whitenoise_No3.bmp	306	0	0	0	0	0	0	0	0	0	0	0	0	0	0	0	0	0	0	0	0	0	0	0	0	0	0	0	0	0	0	0	0	0	0	0	0	0	0	0
121318	15:54:31	16:05:40	668098	5.0.10.0	4_exp_AMP_EVA_AWA_CON	16	Rpleas_acq	Oppo	Lpleas	Amasked	CS_A	1pleas	distractor1	EVAbeforeCON	AMP_CSpleas	AMP23	7	16	0	0	300	300	0	0	425	50	0	0	0	0	0	1	blank2r.bmp	0	1	CPLW	0	1	blank2r.bmp	79	22	pic22.bmp	199	1	whitenoise_No3.bmp	306	0	0	0	0	0	0	0	0	0	0	0	0	0	0	0	0	0	0	0	0	0	0	0	0	0	0	0	0	0	0	0	0	0	0	0	0	0	0	0
121318	15:54:31	16:05:41	669337	5.0.10.0	4_exp_AMP_EVA_AWA_CON	16	Rpleas_acq	Oppo	Lpleas	Amasked	CS_A	1pleas	distractor1	EVAbeforeCON	AMP_CSunple	AMP23	7	17	0	0	300	300	0	0	331	46	0	0	0	0	0	1	blank2r.bmp	0	1	DHJF	0	1	blank2r.bmp	79	14	pic14.bmp	199	1	whitenoise_No3.bmp	306	0	0	0	0	0	0	0	0	0	0	0	0	0	0	0	0	0	0	0	0	0	0	0	0	0	0	0	0	0	0	0	0	0	0	0	0	0	0	0
121318	15:54:31	16:05:42	670710	5.0.10.0	4_exp_AMP_EVA_AWA_CON	16	Rpleas_acq	Oppo	Lpleas	Amasked	CS_A	1pleas	distractor1	EVAbeforeCON	AMP_distractor	AMP23	7	18	0	0	300	300	0	0	439	50	0	0	0	0	0	1	blank2r.bmp	0	1	ZGXT	0	1	blank2r.bmp	79	16	pic16.bmp	199	1	whitenoise_No3.bmp	306	0	0	0	0	0	0	0	0	0	0	0	0	0	0	0	0	0	0	0	0	0	0	0	0	0	0	0	0	0	0	0	0	0	0	0	0	0	0	0
121318	15:54:31	16:05:44	672109	5.0.10.0	4_exp_AMP_EVA_AWA_CON	16	Rpleas_acq	Oppo	Lpleas	Amasked	CS_A	1pleas	distractor1	EVAbeforeCON	AMP_CSpleas	AMP23	7	19	0	0	300	300	0	0	487	46	0	1	0	0	0	1	blank2r.bmp	0	1	CPLW	0	1	blank2r.bmp	79	61	pic61.bmp	199	1	whitenoise_No3.bmp	306	0	0	0	0	0	0	0	0	0	0	0	0	0	0	0	0	0	0	0	0	0	0	0	0	0	0	0	0	0	0	0	0	0	0	0	0	0	0	0
121318	15:54:31	16:05:45	673455	5.0.10.0	4_exp_AMP_EVA_AWA_CON	16	Rpleas_acq	Oppo	Lpleas	Amasked	CS_A	1pleas	distractor1	EVAbeforeCON	AMP_CSunple	AMP23	7	20	0	0	300	300	0	0	421	50	0	1	0	0	0	1	blank2r.bmp	0	1	DHJF	0	1	blank2r.bmp	79	123	pic123.bmp	199	1	whitenoise_No3.bmp	306	0	0	0	0	0	0	0	0	0	0	0	0	0	0	0	0	0	0	0	0	0	0	0	0	0	0	0	0	0	0	0	0	0	0	0	0	0	0	0
121318	15:54:31	16:05:46	674815	5.0.10.0	4_exp_AMP_EVA_AWA_CON	16	Rpleas_acq	Oppo	Lpleas	Amasked	CS_A	1pleas	distractor1	EVAbeforeCON	AMP_CSpleas	AMP23	7	21	0	0	300	300	0	0	439	46	0	1	0	0	0	1	blank2r.bmp	0	1	CPLW	0	1	blank2r.bmp	79	29	pic29.bmp	199	1	whitenoise_No3.bmp	306	0	0	0	0	0	0	0	0	0	0	0	0	0	0	0	0	0	0	0	0	0	0	0	0	0	0	0	0	0	0	0	0	0	0	0	0	0	0	0
121318	15:54:31	16:05:48	676321	5.0.10.0	4_exp_AMP_EVA_AWA_CON	16	Rpleas_acq	Oppo	Lpleas	Amasked	CS_A	1pleas	distractor1	EVAbeforeCON	AMP_CSpleas	AMP23	7	22	0	0	300	300	0	0	592	46	0	1	0	0	0	1	blank2r.bmp	0	1	CPLW	0	1	blank2r.bmp	79	128	pic128.bmp	199	1	whitenoise_No3.bmp	306	0	0	0	0	0	0	0	0	0	0	0	0	0	0	0	0	0	0	0	0	0	0	0	0	0	0	0	0	0	0	0	0	0	0	0	0	0	0	0
121318	15:54:31	16:05:49	677694	5.0.10.0	4_exp_AMP_EVA_AWA_CON	16	Rpleas_acq	Oppo	Lpleas	Amasked	CS_A	1pleas	distractor1	EVAbeforeCON	AMP_CSunple	AMP23	7	23	0	0	300	300	0	0	445	50	0	1	0	0	0	1	blank2r.bmp	0	1	DHJF	0	1	blank2r.bmp	79	40	pic40.bmp	199	1	whitenoise_No3.bmp	306	0	0	0	0	0	0	0	0	0	0	0	0	0	0	0	0	0	0	0	0	0	0	0	0	0	0	0	0	0	0	0	0	0	0	0	0	0	0	0
121318	15:54:31	16:05:51	679200	5.0.10.0	4_exp_AMP_EVA_AWA_CON	16	Rpleas_acq	Oppo	Lpleas	Amasked	CS_A	1pleas	distractor1	EVAbeforeCON	AMP_distractor	AMP23	7	24	0	0	300	300	0	0	571	46	0	0	0	0	0	1	blank2r.bmp	0	1	ZGXT	0	1	blank2r.bmp	79	106	pic106.bmp	199	1	whitenoise_No3.bmp	306	0	0	0	0	0	0	0	0	0	0	0	0	0	0	0	0	0	0	0	0	0	0	0	0	0	0	0	0	0	0	0	0	0	0	0	0	0	0	0
121318	15:54:31	16:05:52	680639	5.0.10.0	4_exp_AMP_EVA_AWA_CON	16	Rpleas_acq	Oppo	Lpleas	Amasked	CS_A	1pleas	distractor1	EVAbeforeCON	AMP_CSunple	AMP23	7	25	0	0	300	300	0	0	522	46	0	0	0	0	0	1	blank2r.bmp	0	1	DHJF	0	1	blank2r.bmp	79	17	pic17.bmp	199	1	whitenoise_No3.bmp	306	0	0	0	0	0	0	0	0	0	0	0	0	0	0	0	0	0	0	0	0	0	0	0	0	0	0	0	0	0	0	0	0	0	0	0	0	0	0	0
121318	15:54:31	16:05:54	682065	5.0.10.0	4_exp_AMP_EVA_AWA_CON	16	Rpleas_acq	Oppo	Lpleas	Amasked	CS_A	1pleas	distractor1	EVAbeforeCON	AMP_distractor	AMP23	7	26	0	0	300	300	0	0	499	46	0	0	0	0	0	1	blank2r.bmp	0	1	ZGXT	0	1	blank2r.bmp	79	143	pic143.bmp	199	1	whitenoise_No3.bmp	306	0	0	0	0	0	0	0	0	0	0	0	0	0	0	0	0	0	0	0	0	0	0	0	0	0	0	0	0	0	0	0	0	0	0	0	0	0	0	0
121318	15:54:31	16:05:55	683358	5.0.10.0	4_exp_AMP_EVA_AWA_CON	16	Rpleas_acq	Oppo	Lpleas	Amasked	CS_A	1pleas	distractor1	EVAbeforeCON	AMP_CSpleas	AMP23	7	27	0	0	300	300	0	0	376	50	0	0	0	0	0	1	blank2r.bmp	0	1	CPLW	0	1	blank2r.bmp	79	79	pic79.bmp	199	1	whitenoise_No3.bmp	306	0	0	0	0	0	0	0	0	0	0	0	0	0	0	0	0	0	0	0	0	0	0	0	0	0	0	0	0	0	0	0	0	0	0	0	0	0	0	0
121318	15:54:31	16:05:56	684717	5.0.10.0	4_exp_AMP_EVA_AWA_CON	16	Rpleas_acq	Oppo	Lpleas	Amasked	CS_A	1pleas	distractor1	EVAbeforeCON	AMP_CSunple	AMP23	7	28	0	0	300	300	0	0	448	50	0	1	0	0	0	1	blank2r.bmp	0	1	DHJF	0	1	blank2r.bmp	79	91	pic91.bmp	199	1	whitenoise_No3.bmp	306	0	0	0	0	0	0	0	0	0	0	0	0	0	0	0	0	0	0	0	0	0	0	0	0	0	0	0	0	0	0	0	0	0	0	0	0	0	0	0
121318	15:54:31	16:05:58	686090	5.0.10.0	4_exp_AMP_EVA_AWA_CON	16	Rpleas_acq	Oppo	Lpleas	Amasked	CS_A	1pleas	distractor1	EVAbeforeCON	AMP_CSunple	AMP23	7	29	0	0	300	300	0	0	459	50	0	1	0	0	0	1	blank2r.bmp	0	1	DHJF	0	1	blank2r.bmp	79	121	pic121.bmp	199	1	whitenoise_No3.bmp	306	0	0	0	0	0	0	0	0	0	0	0	0	0	0	0	0	0	0	0	0	0	0	0	0	0	0	0	0	0	0	0	0	0	0	0	0	0	0	0
121318	15:54:31	16:05:59	687410	5.0.10.0	4_exp_AMP_EVA_AWA_CON	16	Rpleas_acq	Oppo	Lpleas	Amasked	CS_A	1pleas	distractor1	EVAbeforeCON	AMP_CSunple	AMP23	7	30	0	0	300	300	0	0	407	46	0	0	0	0	0	1	blank2r.bmp	0	1	DHJF	0	1	blank2r.bmp	79	48	pic48.bmp	199	1	whitenoise_No3.bmp	306	0	0	0	0	0	0	0	0	0	0	0	0	0	0	0	0	0	0	0	0	0	0	0	0	0	0	0	0	0	0	0	0	0	0	0	0	0	0	0
121318	15:54:31	16:06:00	688916	5.0.10.0	4_exp_AMP_EVA_AWA_CON	16	Rpleas_acq	Oppo	Lpleas	Amasked	CS_A	1pleas	distractor1	EVAbeforeCON	AMP_distractor	AMP23	7	31	0	0	300	300	0	0	576	50	0	0	0	0	0	1	blank2r.bmp	0	1	ZGXT	0	1	blank2r.bmp	79	78	pic78.bmp	199	1	whitenoise_No3.bmp	306	0	0	0	0	0	0	0	0	0	0	0	0	0	0	0	0	0	0	0	0	0	0	0	0	0	0	0	0	0	0	0	0	0	0	0	0	0	0	0
121318	15:54:31	16:06:02	690222	5.0.10.0	4_exp_AMP_EVA_AWA_CON	16	Rpleas_acq	Oppo	Lpleas	Amasked	CS_A	1pleas	distractor1	EVAbeforeCON	AMP_distractor	AMP23	7	32	0	0	300	300	0	0	394	46	0	0	0	0	0	1	blank2r.bmp	0	1	ZGXT	0	1	blank2r.bmp	79	90	pic90.bmp	199	1	whitenoise_No3.bmp	306	0	0	0	0	0	0	0	0	0	0	0	0	0	0	0	0	0	0	0	0	0	0	0	0	0	0	0	0	0	0	0	0	0	0	0	0	0	0	0
121318	15:54:31	16:06:03	691661	5.0.10.0	4_exp_AMP_EVA_AWA_CON	16	Rpleas_acq	Oppo	Lpleas	Amasked	CS_A	1pleas	distractor1	EVAbeforeCON	AMP_CSpleas	AMP23	7	33	0	0	300	300	0	0	527	50	0	0	0	0	0	1	blank2r.bmp	0	1	CPLW	0	1	blank2r.bmp	79	122	pic122.bmp	199	1	whitenoise_No3.bmp	306	0	0	0	0	0	0	0	0	0	0	0	0	0	0	0	0	0	0	0	0	0	0	0	0	0	0	0	0	0	0	0	0	0	0	0	0	0	0	0
121318	15:54:31	16:06:05	693074	5.0.10.0	4_exp_AMP_EVA_AWA_CON	16	Rpleas_acq	Oppo	Lpleas	Amasked	CS_A	1pleas	distractor1	EVAbeforeCON	AMP_distractor	AMP23	7	34	0	0	300	300	0	0	485	50	0	0	0	0	0	1	blank2r.bmp	0	1	ZGXT	0	1	blank2r.bmp	79	71	pic71.bmp	199	1	whitenoise_No3.bmp	306	0	0	0	0	0	0	0	0	0	0	0	0	0	0	0	0	0	0	0	0	0	0	0	0	0	0	0	0	0	0	0	0	0	0	0	0	0	0	0
121318	15:54:31	16:06:06	694447	5.0.10.0	4_exp_AMP_EVA_AWA_CON	16	Rpleas_acq	Oppo	Lpleas	Amasked	CS_A	1pleas	distractor1	EVAbeforeCON	AMP_distractor	AMP23	7	35	0	0	300	300	0	0	440	46	0	0	0	0	0	1	blank2r.bmp	0	1	ZGXT	0	1	blank2r.bmp	79	136	pic136.bmp	199	1	whitenoise_No3.bmp	306	0	0	0	0	0	0	0	0	0	0	0	0	0	0	0	0	0	0	0	0	0	0	0	0	0	0	0	0	0	0	0	0	0	0	0	0	0	0	0
121318	15:54:31	16:06:07	695913	5.0.10.0	4_exp_AMP_EVA_AWA_CON	16	Rpleas_acq	Oppo	Lpleas	Amasked	CS_A	1pleas	distractor1	EVAbeforeCON	AMP_CSpleas	AMP23	7	36	0	0	300	300	0	0	539	46	0	1	0	0	0	1	blank2r.bmp	0	1	CPLW	0	1	blank2r.bmp	79	105	pic105.bmp	199	1	whitenoise_No3.bmp	306	0	0	0	0	0	0	0	0	0	0	0	0	0	0	0	0	0	0	0	0	0	0	0	0	0	0	0	0	0	0	0	0	0	0	0	0	0	0	0
