date	time	script.currenttime	script.elapsedtime	build	script.currentexpt	subject	expressions.LRpleas_acq	expressions.SameOppo	expressions.condition_Lpleas	expressions.ABmasked	expressions.conditionCS_A	expressions.condition_1pleas	expressions.condition_distractor_AMP	trialcode	blockcode	blocknum	trialnum	windowcenter	inwindow	pretrialpause	posttrialpause	trialduration	trialtimeout	latency	response	expressions.correctedscore	correct	values.vis_performance	values.vis_rating_sum	values.vis_rating_mean	stimulusnumber1	stimulusitem1	stimulusonset1	stimulusnumber2	stimulusitem2	stimulusonset2	stimulusnumber3	stimulusitem3	stimulusonset3	stimulusnumber4	stimulusitem4	stimulusonset4	stimulusnumber5	stimulusitem5	stimulusonset5	stimulusnumber6	stimulusitem6	stimulusonset6	stimulusnumber7	stimulusitem7	stimulusonset7	stimulusnumber8	stimulusitem8	stimulusonset8	stimulusnumber9	stimulusitem9	stimulusonset9	stimulusnumber10	stimulusitem10	stimulusonset10	stimulusnumber11	stimulusitem11	stimulusonset11	stimulusnumber12	stimulusitem12	stimulusonset12	stimulusnumber13	stimulusitem13	stimulusonset13	stimulusnumber14	stimulusitem14	stimulusonset14	stimulusnumber15	stimulusitem15	stimulusonset15	stimulusnumber16	stimulusitem16	stimulusonset16	stimulusnumber17	stimulusitem17	stimulusonset17	stimulusnumber18	stimulusitem18	stimulusonset18
120418	09:57:03	09:57:09	3398	5.0.10.0	4_exp_AMP_EVA_AWA_CON	996	Rpleas_acq	Same	Rpleas	Amasked	CS_A	1pleas	distractor1	acq_US_pleas_masked	acq1_masked	1	1	0	0	300	300	0	0	20	50	0	1	0	0	0	1	blank2r.bmp	0	1	+	0	3	B3r.bmp	492	1	blank2r.bmp	786	1	CPLW	786	1	blank2r.bmp	866	3	gesittet	866	0	0	0	0	0	0	0	0	0	0	0	0	0	0	0	0	0	0	0	0	0	0	0	0	0	0	0	0	0	0	0	0	0
120418	09:57:03	09:57:11	4904	5.0.10.0	4_exp_AMP_EVA_AWA_CON	996	Rpleas_acq	Same	Rpleas	Amasked	CS_A	1pleas	distractor1	acq_new_pleas_masked	acq1_masked	1	2	0	0	300	300	0	0	26	50	0	1	0	0	0	1	blank2r.bmp	0	1	+	0	7	C3r.bmp	492	1	blank2r.bmp	786	1	vertrauen	866	0	0	0	0	0	0	0	0	0	0	0	0	0	0	0	0	0	0	0	0	0	0	0	0	0	0	0	0	0	0	0	0	0	0	0	0	0	0	0
120418	09:57:03	09:57:13	6623	5.0.10.0	4_exp_AMP_EVA_AWA_CON	996	Rpleas_acq	Same	Rpleas	Amasked	CS_A	1pleas	distractor1	acq_new_unple_masked	acq1_masked	1	3	0	0	300	300	0	0	32	50	0	0	0	0	0	1	blank2r.bmp	0	1	+	0	4	B4r.bmp	492	1	blank2r.bmp	786	1	geizig	866	1	FEHLER	932	0	0	0	0	0	0	0	0	0	0	0	0	0	0	0	0	0	0	0	0	0	0	0	0	0	0	0	0	0	0	0	0	0	0	0	0
120418	09:57:03	09:57:14	7929	5.0.10.0	4_exp_AMP_EVA_AWA_CON	996	Rpleas_acq	Same	Rpleas	Amasked	CS_A	1pleas	distractor1	acq_US_unple_masked	acq1_masked	1	4	0	0	300	300	0	0	39	46	0	1	0	0	0	1	blank2r.bmp	0	1	+	0	1	B1r.bmp	492	1	blank2r.bmp	786	1	DHJF	786	1	blank2r.bmp	866	4	versagen	866	0	0	0	0	0	0	0	0	0	0	0	0	0	0	0	0	0	0	0	0	0	0	0	0	0	0	0	0	0	0	0	0	0
120418	09:57:03	09:57:16	9649	5.0.10.0	4_exp_AMP_EVA_AWA_CON	996	Rpleas_acq	Same	Rpleas	Amasked	CS_A	1pleas	distractor1	acq_US_pleas_masked	acq1_masked	1	5	0	0	300	300	0	0	33	46	0	0	0	0	0	1	blank2r.bmp	0	1	+	0	8	C4r.bmp	492	1	blank2r.bmp	786	1	CPLW	786	1	blank2r.bmp	866	2	gütig	866	1	FEHLER	932	0	0	0	0	0	0	0	0	0	0	0	0	0	0	0	0	0	0	0	0	0	0	0	0	0	0	0	0	0	0
120418	09:57:03	09:57:17	11181	5.0.10.0	4_exp_AMP_EVA_AWA_CON	996	Rpleas_acq	Same	Rpleas	Amasked	CS_A	1pleas	distractor1	acq_US_unple_masked	acq1_masked	1	6	0	0	300	300	0	0	56	50	0	0	0	0	0	1	blank2r.bmp	0	1	+	0	5	C1r.bmp	492	1	blank2r.bmp	786	1	DHJF	786	1	blank2r.bmp	866	5	engstirnig	866	1	FEHLER	959	0	0	0	0	0	0	0	0	0	0	0	0	0	0	0	0	0	0	0	0	0	0	0	0	0	0	0	0	0	0
120418	09:57:03	09:57:19	12687	5.0.10.0	4_exp_AMP_EVA_AWA_CON	996	Rpleas_acq	Same	Rpleas	Amasked	CS_A	1pleas	distractor1	acq_US_pleas_masked	acq1_masked	1	7	0	0	300	300	0	0	36	46	0	0	0	0	0	1	blank2r.bmp	0	1	+	0	2	B2r.bmp	492	1	blank2r.bmp	786	1	CPLW	786	1	blank2r.bmp	866	4	kreativ	866	1	FEHLER	932	0	0	0	0	0	0	0	0	0	0	0	0	0	0	0	0	0	0	0	0	0	0	0	0	0	0	0	0	0	0
120418	09:57:03	09:57:20	14020	5.0.10.0	4_exp_AMP_EVA_AWA_CON	996	Rpleas_acq	Same	Rpleas	Amasked	CS_A	1pleas	distractor1	acq_new_unple_masked	acq1_masked	1	8	0	0	300	300	0	0	61	46	0	1	0	0	0	1	blank2r.bmp	0	1	+	0	6	C2r.bmp	492	1	blank2r.bmp	786	4	töten	866	0	0	0	0	0	0	0	0	0	0	0	0	0	0	0	0	0	0	0	0	0	0	0	0	0	0	0	0	0	0	0	0	0	0	0	0	0	0	0
120418	09:57:03	09:57:22	15766	5.0.10.0	4_exp_AMP_EVA_AWA_CON	996	Rpleas_acq	Same	Rpleas	Amasked	CS_A	1pleas	distractor1	acq_new_pleas_masked	acq1_masked	1	9	0	0	300	300	0	0	57	46	0	0	0	0	0	1	blank2r.bmp	0	1	+	0	8	C4r.bmp	492	1	blank2r.bmp	786	4	sonnig	866	1	FEHLER	959	0	0	0	0	0	0	0	0	0	0	0	0	0	0	0	0	0	0	0	0	0	0	0	0	0	0	0	0	0	0	0	0	0	0	0	0
120418	09:57:03	09:57:23	17259	5.0.10.0	4_exp_AMP_EVA_AWA_CON	996	Rpleas_acq	Same	Rpleas	Amasked	CS_A	1pleas	distractor1	acq_new_unple_masked	acq1_masked	1	10	0	0	300	300	0	0	22	50	0	0	0	0	0	1	blank2r.bmp	0	1	+	0	5	C1r.bmp	492	1	blank2r.bmp	786	3	gemein	866	1	FEHLER	919	0	0	0	0	0	0	0	0	0	0	0	0	0	0	0	0	0	0	0	0	0	0	0	0	0	0	0	0	0	0	0	0	0	0	0	0
120418	09:57:03	09:57:25	18792	5.0.10.0	4_exp_AMP_EVA_AWA_CON	996	Rpleas_acq	Same	Rpleas	Amasked	CS_A	1pleas	distractor1	acq_new_unple_masked	acq1_masked	1	11	0	0	300	300	0	0	45	50	0	0	0	0	0	1	blank2r.bmp	0	1	+	0	7	C3r.bmp	492	1	blank2r.bmp	786	5	bange	866	1	FEHLER	946	0	0	0	0	0	0	0	0	0	0	0	0	0	0	0	0	0	0	0	0	0	0	0	0	0	0	0	0	0	0	0	0	0	0	0	0
120418	09:57:03	09:57:26	20098	5.0.10.0	4_exp_AMP_EVA_AWA_CON	996	Rpleas_acq	Same	Rpleas	Amasked	CS_A	1pleas	distractor1	acq_US_unple_masked	acq1_masked	1	12	0	0	300	300	0	0	39	46	0	1	0	0	0	1	blank2r.bmp	0	1	+	0	2	B2r.bmp	492	1	blank2r.bmp	786	1	DHJF	786	1	blank2r.bmp	866	6	gierig	866	0	0	0	0	0	0	0	0	0	0	0	0	0	0	0	0	0	0	0	0	0	0	0	0	0	0	0	0	0	0	0	0	0
120418	09:57:03	09:57:28	21617	5.0.10.0	4_exp_AMP_EVA_AWA_CON	996	Rpleas_acq	Same	Rpleas	Amasked	CS_A	1pleas	distractor1	acq_new_pleas_masked	acq1_masked	1	13	0	0	300	300	0	0	48	50	0	1	0	0	0	1	blank2r.bmp	0	1	+	0	6	C2r.bmp	492	1	blank2r.bmp	786	3	engagiert	866	0	0	0	0	0	0	0	0	0	0	0	0	0	0	0	0	0	0	0	0	0	0	0	0	0	0	0	0	0	0	0	0	0	0	0	0	0	0	0
120418	09:57:03	09:57:29	23350	5.0.10.0	4_exp_AMP_EVA_AWA_CON	996	Rpleas_acq	Same	Rpleas	Amasked	CS_A	1pleas	distractor1	acq_US_pleas_masked	acq1_masked	1	14	0	0	300	300	0	0	42	46	0	0	0	0	0	1	blank2r.bmp	0	1	+	0	3	B3r.bmp	492	1	blank2r.bmp	786	1	CPLW	786	1	blank2r.bmp	866	5	vergnügt	866	1	FEHLER	946	0	0	0	0	0	0	0	0	0	0	0	0	0	0	0	0	0	0	0	0	0	0	0	0	0	0	0	0	0	0
120418	09:57:03	09:57:31	24629	5.0.10.0	4_exp_AMP_EVA_AWA_CON	996	Rpleas_acq	Same	Rpleas	Amasked	CS_A	1pleas	distractor1	acq_new_pleas_masked	acq1_masked	1	15	0	0	300	300	0	0	20	50	0	1	0	0	0	1	blank2r.bmp	0	1	+	0	4	B4r.bmp	492	1	blank2r.bmp	786	6	kuss	866	0	0	0	0	0	0	0	0	0	0	0	0	0	0	0	0	0	0	0	0	0	0	0	0	0	0	0	0	0	0	0	0	0	0	0	0	0	0	0
120418	09:57:03	09:57:32	26335	5.0.10.0	4_exp_AMP_EVA_AWA_CON	996	Rpleas_acq	Same	Rpleas	Amasked	CS_A	1pleas	distractor1	acq_new_pleas_masked	acq1_masked	1	16	0	0	300	300	0	0	25	46	0	0	0	0	0	1	blank2r.bmp	0	1	+	0	1	B1r.bmp	492	1	blank2r.bmp	786	5	träumen	866	1	FEHLER	919	0	0	0	0	0	0	0	0	0	0	0	0	0	0	0	0	0	0	0	0	0	0	0	0	0	0	0	0	0	0	0	0	0	0	0	0
120418	09:57:03	09:57:34	27854	5.0.10.0	4_exp_AMP_EVA_AWA_CON	996	Rpleas_acq	Same	Rpleas	Amasked	CS_A	1pleas	distractor1	acq_US_pleas_masked	acq1_masked	1	17	0	0	300	300	0	0	32	46	0	0	0	0	0	1	blank2r.bmp	0	1	+	0	8	C4r.bmp	492	1	blank2r.bmp	786	1	CPLW	786	1	blank2r.bmp	866	1	anregung	866	1	FEHLER	932	0	0	0	0	0	0	0	0	0	0	0	0	0	0	0	0	0	0	0	0	0	0	0	0	0	0	0	0	0	0
120418	09:57:03	09:57:35	29174	5.0.10.0	4_exp_AMP_EVA_AWA_CON	996	Rpleas_acq	Same	Rpleas	Amasked	CS_A	1pleas	distractor1	acq_new_unple_masked	acq1_masked	1	18	0	0	300	300	0	0	55	46	0	1	0	0	0	1	blank2r.bmp	0	1	+	0	4	B4r.bmp	492	1	blank2r.bmp	786	2	krise	866	0	0	0	0	0	0	0	0	0	0	0	0	0	0	0	0	0	0	0	0	0	0	0	0	0	0	0	0	0	0	0	0	0	0	0	0	0	0	0
120418	09:57:03	09:57:37	30680	5.0.10.0	4_exp_AMP_EVA_AWA_CON	996	Rpleas_acq	Same	Rpleas	Amasked	CS_A	1pleas	distractor1	acq_US_unple_masked	acq1_masked	1	19	0	0	300	300	0	0	36	46	0	1	0	0	0	1	blank2r.bmp	0	1	+	0	5	C1r.bmp	492	1	blank2r.bmp	786	1	DHJF	786	1	blank2r.bmp	866	1	sterben	866	0	0	0	0	0	0	0	0	0	0	0	0	0	0	0	0	0	0	0	0	0	0	0	0	0	0	0	0	0	0	0	0	0
120418	09:57:03	09:57:39	32426	5.0.10.0	4_exp_AMP_EVA_AWA_CON	996	Rpleas_acq	Same	Rpleas	Amasked	CS_A	1pleas	distractor1	acq_new_unple_masked	acq1_masked	1	20	0	0	300	300	0	0	45	50	0	0	0	0	0	1	blank2r.bmp	0	1	+	0	1	B1r.bmp	492	1	blank2r.bmp	786	6	krank	866	1	FEHLER	946	0	0	0	0	0	0	0	0	0	0	0	0	0	0	0	0	0	0	0	0	0	0	0	0	0	0	0	0	0	0	0	0	0	0	0	0
120418	09:57:03	09:57:40	33732	5.0.10.0	4_exp_AMP_EVA_AWA_CON	996	Rpleas_acq	Same	Rpleas	Amasked	CS_A	1pleas	distractor1	acq_US_pleas_masked	acq1_masked	1	21	0	0	300	300	0	0	39	50	0	1	0	0	0	1	blank2r.bmp	0	1	+	0	2	B2r.bmp	492	1	blank2r.bmp	786	1	CPLW	786	1	blank2r.bmp	866	6	besonnen	866	0	0	0	0	0	0	0	0	0	0	0	0	0	0	0	0	0	0	0	0	0	0	0	0	0	0	0	0	0	0	0	0	0
120418	09:57:03	09:57:42	35451	5.0.10.0	4_exp_AMP_EVA_AWA_CON	996	Rpleas_acq	Same	Rpleas	Amasked	CS_A	1pleas	distractor1	acq_US_pleas_masked	acq1_masked	1	22	0	0	300	300	0	0	33	46	0	0	0	0	0	1	blank2r.bmp	0	1	+	0	7	C3r.bmp	492	1	blank2r.bmp	786	1	CPLW	786	1	blank2r.bmp	866	2	gütig	866	1	FEHLER	932	0	0	0	0	0	0	0	0	0	0	0	0	0	0	0	0	0	0	0	0	0	0	0	0	0	0	0	0	0	0
120418	09:57:03	09:57:43	36731	5.0.10.0	4_exp_AMP_EVA_AWA_CON	996	Rpleas_acq	Same	Rpleas	Amasked	CS_A	1pleas	distractor1	acq_US_unple_masked	acq1_masked	1	23	0	0	300	300	0	0	24	46	0	1	0	0	0	1	blank2r.bmp	0	1	+	0	3	B3r.bmp	492	1	blank2r.bmp	786	1	DHJF	786	1	blank2r.bmp	866	2	ausrottung	866	0	0	0	0	0	0	0	0	0	0	0	0	0	0	0	0	0	0	0	0	0	0	0	0	0	0	0	0	0	0	0	0	0
120418	09:57:03	09:57:45	38477	5.0.10.0	4_exp_AMP_EVA_AWA_CON	996	Rpleas_acq	Same	Rpleas	Amasked	CS_A	1pleas	distractor1	acq_new_unple_masked	acq1_masked	1	24	0	0	300	300	0	0	47	50	0	0	0	0	0	1	blank2r.bmp	0	1	+	0	6	C2r.bmp	492	1	blank2r.bmp	786	2	krise	866	1	FEHLER	946	0	0	0	0	0	0	0	0	0	0	0	0	0	0	0	0	0	0	0	0	0	0	0	0	0	0	0	0	0	0	0	0	0	0	0	0
120418	09:57:03	09:57:46	40009	5.0.10.0	4_exp_AMP_EVA_AWA_CON	996	Rpleas_acq	Same	Rpleas	Amasked	CS_A	1pleas	distractor1	acq_US_pleas_masked	acq1_masked	1	25	0	0	300	300	0	0	56	46	0	0	0	0	0	1	blank2r.bmp	0	1	+	0	2	B2r.bmp	492	1	blank2r.bmp	786	1	CPLW	786	1	blank2r.bmp	866	4	kreativ	866	1	FEHLER	959	0	0	0	0	0	0	0	0	0	0	0	0	0	0	0	0	0	0	0	0	0	0	0	0	0	0	0	0	0	0
120418	09:57:03	09:57:47	41329	5.0.10.0	4_exp_AMP_EVA_AWA_CON	996	Rpleas_acq	Same	Rpleas	Amasked	CS_A	1pleas	distractor1	acq_new_pleas_masked	acq1_masked	1	26	0	0	300	300	0	0	52	50	0	1	0	0	0	1	blank2r.bmp	0	1	+	0	3	B3r.bmp	492	1	blank2r.bmp	786	2	genießen	866	0	0	0	0	0	0	0	0	0	0	0	0	0	0	0	0	0	0	0	0	0	0	0	0	0	0	0	0	0	0	0	0	0	0	0	0	0	0	0
120418	09:57:03	09:57:49	42848	5.0.10.0	4_exp_AMP_EVA_AWA_CON	996	Rpleas_acq	Same	Rpleas	Amasked	CS_A	1pleas	distractor1	acq_new_unple_masked	acq1_masked	1	27	0	0	300	300	0	0	48	46	0	1	0	0	0	1	blank2r.bmp	0	1	+	0	7	C3r.bmp	492	1	blank2r.bmp	786	4	töten	866	0	0	0	0	0	0	0	0	0	0	0	0	0	0	0	0	0	0	0	0	0	0	0	0	0	0	0	0	0	0	0	0	0	0	0	0	0	0	0
120418	09:57:03	09:57:50	44394	5.0.10.0	4_exp_AMP_EVA_AWA_CON	996	Rpleas_acq	Same	Rpleas	Amasked	CS_A	1pleas	distractor1	acq_US_pleas_masked	acq1_masked	1	28	0	0	300	300	0	0	60	50	0	1	0	0	0	1	blank2r.bmp	0	1	+	0	4	B4r.bmp	492	1	blank2r.bmp	786	1	CPLW	786	1	blank2r.bmp	866	5	vergnügt	866	0	0	0	0	0	0	0	0	0	0	0	0	0	0	0	0	0	0	0	0	0	0	0	0	0	0	0	0	0	0	0	0	0
120418	09:57:03	09:57:52	46127	5.0.10.0	4_exp_AMP_EVA_AWA_CON	996	Rpleas_acq	Same	Rpleas	Amasked	CS_A	1pleas	distractor1	acq_new_pleas_masked	acq1_masked	1	29	0	0	300	300	0	0	41	46	0	0	0	0	0	1	blank2r.bmp	0	1	+	0	8	C4r.bmp	492	1	blank2r.bmp	786	5	träumen	866	1	FEHLER	946	0	0	0	0	0	0	0	0	0	0	0	0	0	0	0	0	0	0	0	0	0	0	0	0	0	0	0	0	0	0	0	0	0	0	0	0
120418	09:57:03	09:57:53	47406	5.0.10.0	4_exp_AMP_EVA_AWA_CON	996	Rpleas_acq	Same	Rpleas	Amasked	CS_A	1pleas	distractor1	acq_new_unple_masked	acq1_masked	1	30	0	0	300	300	0	0	19	46	0	1	0	0	0	1	blank2r.bmp	0	1	+	0	6	C2r.bmp	492	1	blank2r.bmp	786	3	gemein	866	0	0	0	0	0	0	0	0	0	0	0	0	0	0	0	0	0	0	0	0	0	0	0	0	0	0	0	0	0	0	0	0	0	0	0	0	0	0	0
120418	09:57:03	09:57:55	48926	5.0.10.0	4_exp_AMP_EVA_AWA_CON	996	Rpleas_acq	Same	Rpleas	Amasked	CS_A	1pleas	distractor1	acq_US_unple_masked	acq1_masked	1	31	0	0	300	300	0	0	39	46	0	1	0	0	0	1	blank2r.bmp	0	1	+	0	1	B1r.bmp	492	1	blank2r.bmp	786	1	DHJF	786	1	blank2r.bmp	866	3	verbissen	866	0	0	0	0	0	0	0	0	0	0	0	0	0	0	0	0	0	0	0	0	0	0	0	0	0	0	0	0	0	0	0	0	0
120418	09:57:03	09:57:57	50432	5.0.10.0	4_exp_AMP_EVA_AWA_CON	996	Rpleas_acq	Same	Rpleas	Amasked	CS_A	1pleas	distractor1	acq_new_unple_masked	acq1_masked	1	32	0	0	300	300	0	0	33	46	0	1	0	0	0	1	blank2r.bmp	0	1	+	0	5	C1r.bmp	492	1	blank2r.bmp	786	6	krank	866	0	0	0	0	0	0	0	0	0	0	0	0	0	0	0	0	0	0	0	0	0	0	0	0	0	0	0	0	0	0	0	0	0	0	0	0	0	0	0
120418	09:57:03	09:57:58	52138	5.0.10.0	4_exp_AMP_EVA_AWA_CON	996	Rpleas_acq	Same	Rpleas	Amasked	CS_A	1pleas	distractor1	acq_new_pleas_masked	acq1_masked	1	33	0	0	300	300	0	0	25	46	0	0	0	0	0	1	blank2r.bmp	0	1	+	0	4	B4r.bmp	492	1	blank2r.bmp	786	2	genießen	866	1	FEHLER	919	0	0	0	0	0	0	0	0	0	0	0	0	0	0	0	0	0	0	0	0	0	0	0	0	0	0	0	0	0	0	0	0	0	0	0	0
120418	09:57:03	09:58:00	53657	5.0.10.0	4_exp_AMP_EVA_AWA_CON	996	Rpleas_acq	Same	Rpleas	Amasked	CS_A	1pleas	distractor1	acq_US_unple_masked	acq1_masked	1	34	0	0	300	300	0	0	32	50	0	0	0	0	0	1	blank2r.bmp	0	1	+	0	6	C2r.bmp	492	1	blank2r.bmp	786	1	DHJF	786	1	blank2r.bmp	866	1	sterben	866	1	FEHLER	932	0	0	0	0	0	0	0	0	0	0	0	0	0	0	0	0	0	0	0	0	0	0	0	0	0	0	0	0	0	0
120418	09:57:03	09:58:01	55150	5.0.10.0	4_exp_AMP_EVA_AWA_CON	996	Rpleas_acq	Same	Rpleas	Amasked	CS_A	1pleas	distractor1	acq_US_pleas_masked	acq1_masked	1	35	0	0	300	300	0	0	23	46	0	0	0	0	0	1	blank2r.bmp	0	1	+	0	8	C4r.bmp	492	1	blank2r.bmp	786	1	CPLW	786	1	blank2r.bmp	866	3	gesittet	866	1	FEHLER	919	0	0	0	0	0	0	0	0	0	0	0	0	0	0	0	0	0	0	0	0	0	0	0	0	0	0	0	0	0	0
120418	09:57:03	09:58:03	56469	5.0.10.0	4_exp_AMP_EVA_AWA_CON	996	Rpleas_acq	Same	Rpleas	Amasked	CS_A	1pleas	distractor1	acq_US_pleas_masked	acq1_masked	1	36	0	0	300	300	0	0	46	50	0	1	0	0	0	1	blank2r.bmp	0	1	+	0	3	B3r.bmp	492	1	blank2r.bmp	786	1	CPLW	786	1	blank2r.bmp	866	1	anregung	866	0	0	0	0	0	0	0	0	0	0	0	0	0	0	0	0	0	0	0	0	0	0	0	0	0	0	0	0	0	0	0	0	0
120418	09:57:03	09:58:07	60628	5.0.10.0	4_exp_AMP_EVA_AWA_CON	996	Rpleas_acq	Same	Rpleas	Amasked	CS_A	1pleas	distractor1	acq_US_pleas_masked	acq2_masked	2	1	480	1	300	300	0	0	485	50	0	1	0	0	0	1	blank2r.bmp	0	1	+	0	7	C3r.bmp	492	1	blank2r.bmp	786	1	CPLW	786	1	blank2r.bmp	866	6	besonnen	866	1	!	1319	1	!	1386	0	0	0	0	0	0	0	0	0	0	0	0	0	0	0	0	0	0	0	0	0	0	0	0	0	0	0
120418	09:57:03	09:58:09	63120	5.0.10.0	4_exp_AMP_EVA_AWA_CON	996	Rpleas_acq	Same	Rpleas	Amasked	CS_A	1pleas	distractor1	acq_new_unple_masked	acq2_masked	2	2	480	1	300	300	0	0	484	50	0	0	0	0	0	1	blank2r.bmp	0	1	+	0	5	C1r.bmp	492	1	blank2r.bmp	786	1	geizig	866	1	FEHLER	1705	1	!	1319	1	!	1386	0	0	0	0	0	0	0	0	0	0	0	0	0	0	0	0	0	0	0	0	0	0	0	0	0	0	0	0	0	0
120418	09:57:03	09:58:11	65279	5.0.10.0	4_exp_AMP_EVA_AWA_CON	996	Rpleas_acq	Same	Rpleas	Amasked	CS_A	1pleas	distractor1	acq_US_pleas_masked	acq2_masked	2	3	480	0	300	300	0	0	594	50	0	1	0	0	0	1	blank2r.bmp	0	1	+	0	1	B1r.bmp	492	1	blank2r.bmp	786	1	CPLW	786	1	blank2r.bmp	866	2	gütig	866	1	!	1319	1	!	-1	0	0	0	0	0	0	0	0	0	0	0	0	0	0	0	0	0	0	0	0	0	0	0	0	0	0	0
120418	09:57:03	09:58:14	67518	5.0.10.0	4_exp_AMP_EVA_AWA_CON	996	Rpleas_acq	Same	Rpleas	Amasked	CS_A	1pleas	distractor1	acq_new_unple_masked	acq2_masked	2	4	480	1	300	300	0	0	436	46	0	1	0	0	0	1	blank2r.bmp	0	1	+	0	2	B2r.bmp	492	1	blank2r.bmp	786	5	bange	866	1	!	1319	1	!	1332	0	0	0	0	0	0	0	0	0	0	0	0	0	0	0	0	0	0	0	0	0	0	0	0	0	0	0	0	0	0	0	0	0
120418	09:57:03	09:58:16	69677	5.0.10.0	4_exp_AMP_EVA_AWA_CON	996	Rpleas_acq	Same	Rpleas	Amasked	CS_A	1pleas	distractor1	acq_US_unple_masked	acq2_masked	2	5	480	0	300	300	0	0	395	46	0	1	0	0	0	1	blank2r.bmp	0	1	+	0	2	B2r.bmp	492	1	blank2r.bmp	786	1	DHJF	786	1	blank2r.bmp	866	5	engstirnig	866	1	!	-1	1	!	-1	0	0	0	0	0	0	0	0	0	0	0	0	0	0	0	0	0	0	0	0	0	0	0	0	0	0	0
120418	09:57:03	09:58:18	71796	5.0.10.0	4_exp_AMP_EVA_AWA_CON	996	Rpleas_acq	Same	Rpleas	Amasked	CS_A	1pleas	distractor1	acq_new_pleas_masked	acq2_masked	2	6	480	0	300	300	0	0	344	50	0	1	0	0	0	1	blank2r.bmp	0	1	+	0	1	B1r.bmp	492	1	blank2r.bmp	786	3	engagiert	866	1	!	-1	1	!	-1	0	0	0	0	0	0	0	0	0	0	0	0	0	0	0	0	0	0	0	0	0	0	0	0	0	0	0	0	0	0	0	0	0
120418	09:57:03	09:58:20	74369	5.0.10.0	4_exp_AMP_EVA_AWA_CON	996	Rpleas_acq	Same	Rpleas	Amasked	CS_A	1pleas	distractor1	acq_US_unple_masked	acq2_masked	2	7	480	0	300	300	0	0	559	50	0	0	0	0	0	1	blank2r.bmp	0	1	+	0	8	C4r.bmp	492	1	blank2r.bmp	786	1	DHJF	786	1	blank2r.bmp	866	3	verbissen	866	1	FEHLER	1772	1	!	1319	1	!	-1	0	0	0	0	0	0	0	0	0	0	0	0	0	0	0	0	0	0	0	0	0	0	0	0
120418	09:57:03	09:58:23	76634	5.0.10.0	4_exp_AMP_EVA_AWA_CON	996	Rpleas_acq	Same	Rpleas	Amasked	CS_A	1pleas	distractor1	acq_US_unple_masked	acq2_masked	2	8	480	1	300	300	0	0	468	50	0	0	0	0	0	1	blank2r.bmp	0	1	+	0	3	B3r.bmp	492	1	blank2r.bmp	786	1	DHJF	786	1	blank2r.bmp	866	2	ausrottung	866	1	FEHLER	1692	1	!	1319	1	!	1372	0	0	0	0	0	0	0	0	0	0	0	0	0	0	0	0	0	0	0	0	0	0	0	0
120418	09:57:03	09:58:25	78953	5.0.10.0	4_exp_AMP_EVA_AWA_CON	996	Rpleas_acq	Same	Rpleas	Amasked	CS_A	1pleas	distractor1	acq_new_pleas_masked	acq2_masked	2	9	480	1	300	300	0	0	497	46	0	0	0	0	0	1	blank2r.bmp	0	1	+	0	7	C3r.bmp	492	1	blank2r.bmp	786	1	vertrauen	866	1	FEHLER	1719	1	!	1319	1	!	1399	0	0	0	0	0	0	0	0	0	0	0	0	0	0	0	0	0	0	0	0	0	0	0	0	0	0	0	0	0	0
120418	09:57:03	09:58:27	81286	5.0.10.0	4_exp_AMP_EVA_AWA_CON	996	Rpleas_acq	Same	Rpleas	Amasked	CS_A	1pleas	distractor1	acq_new_unple_masked	acq2_masked	2	10	480	1	300	300	0	0	532	50	0	0	0	0	0	1	blank2r.bmp	0	1	+	0	4	B4r.bmp	492	1	blank2r.bmp	786	2	krise	866	1	FEHLER	1745	1	!	1319	1	!	1426	0	0	0	0	0	0	0	0	0	0	0	0	0	0	0	0	0	0	0	0	0	0	0	0	0	0	0	0	0	0
120418	09:57:03	09:58:30	83525	5.0.10.0	4_exp_AMP_EVA_AWA_CON	996	Rpleas_acq	Same	Rpleas	Amasked	CS_A	1pleas	distractor1	acq_new_pleas_masked	acq2_masked	2	11	480	1	300	300	0	0	443	46	0	0	0	0	0	1	blank2r.bmp	0	1	+	0	5	C1r.bmp	492	1	blank2r.bmp	786	4	sonnig	866	1	FEHLER	1665	1	!	1319	1	!	1346	0	0	0	0	0	0	0	0	0	0	0	0	0	0	0	0	0	0	0	0	0	0	0	0	0	0	0	0	0	0
120418	09:57:03	09:58:32	85551	5.0.10.0	4_exp_AMP_EVA_AWA_CON	996	Rpleas_acq	Same	Rpleas	Amasked	CS_A	1pleas	distractor1	acq_US_unple_masked	acq2_masked	2	12	480	1	300	300	0	0	451	46	0	1	0	0	0	1	blank2r.bmp	0	1	+	0	6	C2r.bmp	492	1	blank2r.bmp	786	1	DHJF	786	1	blank2r.bmp	866	6	gierig	866	1	!	1319	1	!	1346	0	0	0	0	0	0	0	0	0	0	0	0	0	0	0	0	0	0	0	0	0	0	0	0	0	0	0
120418	09:57:03	09:58:34	88003	5.0.10.0	4_exp_AMP_EVA_AWA_CON	996	Rpleas_acq	Same	Rpleas	Amasked	CS_A	1pleas	distractor1	acq_new_pleas_masked	acq2_masked	2	13	480	1	300	300	0	0	442	46	0	0	0	0	0	1	blank2r.bmp	0	1	+	0	6	C2r.bmp	492	1	blank2r.bmp	786	6	kuss	866	1	FEHLER	1665	1	!	1319	1	!	1346	0	0	0	0	0	0	0	0	0	0	0	0	0	0	0	0	0	0	0	0	0	0	0	0	0	0	0	0	0	0
120418	09:57:03	09:58:36	90255	5.0.10.0	4_exp_AMP_EVA_AWA_CON	996	Rpleas_acq	Same	Rpleas	Amasked	CS_A	1pleas	distractor1	acq_US_pleas_masked	acq2_masked	2	14	480	1	300	300	0	0	452	46	0	0	0	0	0	1	blank2r.bmp	0	1	+	0	5	C1r.bmp	492	1	blank2r.bmp	786	1	CPLW	786	1	blank2r.bmp	866	3	gesittet	866	1	FEHLER	1679	1	!	1319	1	!	1359	0	0	0	0	0	0	0	0	0	0	0	0	0	0	0	0	0	0	0	0	0	0	0	0
120418	09:57:03	09:58:38	92388	5.0.10.0	4_exp_AMP_EVA_AWA_CON	996	Rpleas_acq	Same	Rpleas	Amasked	CS_A	1pleas	distractor1	acq_US_pleas_masked	acq2_masked	2	15	480	1	300	300	0	0	539	50	0	1	0	0	0	1	blank2r.bmp	0	1	+	0	2	B2r.bmp	492	1	blank2r.bmp	786	1	CPLW	786	1	blank2r.bmp	866	4	kreativ	866	1	!	1319	1	!	1439	0	0	0	0	0	0	0	0	0	0	0	0	0	0	0	0	0	0	0	0	0	0	0	0	0	0	0
120418	09:57:03	09:58:41	94894	5.0.10.0	4_exp_AMP_EVA_AWA_CON	996	Rpleas_acq	Same	Rpleas	Amasked	CS_A	1pleas	distractor1	acq_new_pleas_masked	acq2_masked	2	16	480	1	300	300	0	0	500	46	0	0	0	0	0	1	blank2r.bmp	0	1	+	0	8	C4r.bmp	492	1	blank2r.bmp	786	1	vertrauen	866	1	FEHLER	1719	1	!	1319	1	!	1399	0	0	0	0	0	0	0	0	0	0	0	0	0	0	0	0	0	0	0	0	0	0	0	0	0	0	0	0	0	0
120418	09:57:03	09:58:43	96906	5.0.10.0	4_exp_AMP_EVA_AWA_CON	996	Rpleas_acq	Same	Rpleas	Amasked	CS_A	1pleas	distractor1	acq_US_pleas_masked	acq2_masked	2	17	480	1	300	300	0	0	426	50	0	1	0	0	0	1	blank2r.bmp	0	1	+	0	7	C3r.bmp	492	1	blank2r.bmp	786	1	CPLW	786	1	blank2r.bmp	866	1	anregung	866	1	!	1319	1	!	1332	0	0	0	0	0	0	0	0	0	0	0	0	0	0	0	0	0	0	0	0	0	0	0	0	0	0	0
120418	09:57:03	09:58:45	99398	5.0.10.0	4_exp_AMP_EVA_AWA_CON	996	Rpleas_acq	Same	Rpleas	Amasked	CS_A	1pleas	distractor1	acq_new_unple_masked	acq2_masked	2	18	480	1	300	300	0	0	490	50	0	0	0	0	0	1	blank2r.bmp	0	1	+	0	1	B1r.bmp	492	1	blank2r.bmp	786	6	krank	866	1	FEHLER	1705	1	!	1319	1	!	1386	0	0	0	0	0	0	0	0	0	0	0	0	0	0	0	0	0	0	0	0	0	0	0	0	0	0	0	0	0	0
120418	09:57:03	09:58:48	101451	5.0.10.0	4_exp_AMP_EVA_AWA_CON	996	Rpleas_acq	Same	Rpleas	Amasked	CS_A	1pleas	distractor1	acq_US_pleas_masked	acq2_masked	2	19	480	1	300	300	0	0	473	50	0	1	0	0	0	1	blank2r.bmp	0	1	+	0	4	B4r.bmp	492	1	blank2r.bmp	786	1	CPLW	786	1	blank2r.bmp	866	5	vergnügt	866	1	!	1319	1	!	1372	0	0	0	0	0	0	0	0	0	0	0	0	0	0	0	0	0	0	0	0	0	0	0	0	0	0	0
120418	09:57:03	09:58:50	103730	5.0.10.0	4_exp_AMP_EVA_AWA_CON	996	Rpleas_acq	Same	Rpleas	Amasked	CS_A	1pleas	distractor1	acq_US_unple_masked	acq2_masked	2	20	480	1	300	300	0	0	485	46	0	1	0	0	0	1	blank2r.bmp	0	1	+	0	3	B3r.bmp	492	1	blank2r.bmp	786	1	DHJF	786	1	blank2r.bmp	866	4	versagen	866	1	!	1319	1	!	1386	0	0	0	0	0	0	0	0	0	0	0	0	0	0	0	0	0	0	0	0	0	0	0	0	0	0	0
120418	09:57:03	09:58:52	106062	5.0.10.0	4_exp_AMP_EVA_AWA_CON	996	Rpleas_acq	Same	Rpleas	Amasked	CS_A	1pleas	distractor1	acq_new_unple_masked	acq2_masked	2	21	480	0	300	300	0	0	562	46	0	1	0	0	0	1	blank2r.bmp	0	1	+	0	5	C1r.bmp	492	1	blank2r.bmp	786	5	bange	866	1	!	1319	1	!	-1	0	0	0	0	0	0	0	0	0	0	0	0	0	0	0	0	0	0	0	0	0	0	0	0	0	0	0	0	0	0	0	0	0
120418	09:57:03	09:58:54	108395	5.0.10.0	4_exp_AMP_EVA_AWA_CON	996	Rpleas_acq	Same	Rpleas	Amasked	CS_A	1pleas	distractor1	acq_new_pleas_masked	acq2_masked	2	22	480	1	300	300	0	0	525	50	0	1	0	0	0	1	blank2r.bmp	0	1	+	0	1	B1r.bmp	492	1	blank2r.bmp	786	2	genießen	866	1	!	1319	1	!	1426	0	0	0	0	0	0	0	0	0	0	0	0	0	0	0	0	0	0	0	0	0	0	0	0	0	0	0	0	0	0	0	0	0
120418	09:57:03	09:58:57	110740	5.0.10.0	4_exp_AMP_EVA_AWA_CON	996	Rpleas_acq	Same	Rpleas	Amasked	CS_A	1pleas	distractor1	acq_new_unple_masked	acq2_masked	2	23	480	0	300	300	0	0	577	46	0	1	0	0	0	1	blank2r.bmp	0	1	+	0	8	C4r.bmp	492	1	blank2r.bmp	786	4	töten	866	1	!	1319	1	!	-1	0	0	0	0	0	0	0	0	0	0	0	0	0	0	0	0	0	0	0	0	0	0	0	0	0	0	0	0	0	0	0	0	0
120418	09:57:03	09:58:59	113059	5.0.10.0	4_exp_AMP_EVA_AWA_CON	996	Rpleas_acq	Same	Rpleas	Amasked	CS_A	1pleas	distractor1	acq_US_pleas_masked	acq2_masked	2	24	480	1	300	300	0	0	498	50	0	1	0	0	0	1	blank2r.bmp	0	1	+	0	6	C2r.bmp	492	1	blank2r.bmp	786	1	CPLW	786	1	blank2r.bmp	866	6	besonnen	866	1	!	1319	1	!	1399	0	0	0	0	0	0	0	0	0	0	0	0	0	0	0	0	0	0	0	0	0	0	0	0	0	0	0
120418	09:57:03	09:59:01	115192	5.0.10.0	4_exp_AMP_EVA_AWA_CON	996	Rpleas_acq	Same	Rpleas	Amasked	CS_A	1pleas	distractor1	acq_new_pleas_masked	acq2_masked	2	25	480	0	300	300	0	0	358	50	0	1	0	0	0	1	blank2r.bmp	0	1	+	0	2	B2r.bmp	492	1	blank2r.bmp	786	5	träumen	866	1	!	-1	1	!	-1	0	0	0	0	0	0	0	0	0	0	0	0	0	0	0	0	0	0	0	0	0	0	0	0	0	0	0	0	0	0	0	0	0
120418	09:57:03	09:59:04	117484	5.0.10.0	4_exp_AMP_EVA_AWA_CON	996	Rpleas_acq	Same	Rpleas	Amasked	CS_A	1pleas	distractor1	acq_new_unple_masked	acq2_masked	2	26	480	1	300	300	0	0	491	46	0	1	0	0	0	1	blank2r.bmp	0	1	+	0	3	B3r.bmp	492	1	blank2r.bmp	786	1	geizig	866	1	!	1319	1	!	1386	0	0	0	0	0	0	0	0	0	0	0	0	0	0	0	0	0	0	0	0	0	0	0	0	0	0	0	0	0	0	0	0	0
120418	09:57:03	09:59:06	119723	5.0.10.0	4_exp_AMP_EVA_AWA_CON	996	Rpleas_acq	Same	Rpleas	Amasked	CS_A	1pleas	distractor1	acq_US_unple_masked	acq2_masked	2	27	480	1	300	300	0	0	442	46	0	1	0	0	0	1	blank2r.bmp	0	1	+	0	7	C3r.bmp	492	1	blank2r.bmp	786	1	DHJF	786	1	blank2r.bmp	866	6	gierig	866	1	!	1319	1	!	1346	0	0	0	0	0	0	0	0	0	0	0	0	0	0	0	0	0	0	0	0	0	0	0	0	0	0	0
120418	09:57:03	09:59:08	122069	5.0.10.0	4_exp_AMP_EVA_AWA_CON	996	Rpleas_acq	Same	Rpleas	Amasked	CS_A	1pleas	distractor1	acq_new_pleas_masked	acq2_masked	2	28	480	0	300	300	0	0	560	50	0	1	0	0	0	1	blank2r.bmp	0	1	+	0	4	B4r.bmp	492	1	blank2r.bmp	786	6	kuss	866	1	!	1319	1	!	-1	0	0	0	0	0	0	0	0	0	0	0	0	0	0	0	0	0	0	0	0	0	0	0	0	0	0	0	0	0	0	0	0	0
120418	09:57:03	09:59:11	124521	5.0.10.0	4_exp_AMP_EVA_AWA_CON	996	Rpleas_acq	Same	Rpleas	Amasked	CS_A	1pleas	distractor1	acq_US_unple_masked	acq2_masked	2	29	480	1	300	300	0	0	430	50	0	0	0	0	0	1	blank2r.bmp	0	1	+	0	8	C4r.bmp	492	1	blank2r.bmp	786	1	DHJF	786	1	blank2r.bmp	866	1	sterben	866	1	FEHLER	1652	1	!	1319	1	!	1332	0	0	0	0	0	0	0	0	0	0	0	0	0	0	0	0	0	0	0	0	0	0	0	0
120418	09:57:03	09:59:13	126494	5.0.10.0	4_exp_AMP_EVA_AWA_CON	996	Rpleas_acq	Same	Rpleas	Amasked	CS_A	1pleas	distractor1	acq_new_pleas_masked	acq2_masked	2	30	480	0	300	300	0	0	406	50	0	1	0	0	0	1	blank2r.bmp	0	1	+	0	1	B1r.bmp	492	1	blank2r.bmp	786	3	engagiert	866	1	!	-1	1	!	-1	0	0	0	0	0	0	0	0	0	0	0	0	0	0	0	0	0	0	0	0	0	0	0	0	0	0	0	0	0	0	0	0	0
120418	09:57:03	09:59:15	129053	5.0.10.0	4_exp_AMP_EVA_AWA_CON	996	Rpleas_acq	Same	Rpleas	Amasked	CS_A	1pleas	distractor1	acq_new_unple_masked	acq2_masked	2	31	480	1	300	300	0	0	531	50	0	0	0	0	0	1	blank2r.bmp	0	1	+	0	4	B4r.bmp	492	1	blank2r.bmp	786	3	gemein	866	1	FEHLER	1745	1	!	1319	1	!	1426	0	0	0	0	0	0	0	0	0	0	0	0	0	0	0	0	0	0	0	0	0	0	0	0	0	0	0	0	0	0
120418	09:57:03	09:59:17	131385	5.0.10.0	4_exp_AMP_EVA_AWA_CON	996	Rpleas_acq	Same	Rpleas	Amasked	CS_A	1pleas	distractor1	acq_new_unple_masked	acq2_masked	2	32	480	1	300	300	0	0	537	50	0	0	0	0	0	1	blank2r.bmp	0	1	+	0	6	C2r.bmp	492	1	blank2r.bmp	786	5	bange	866	1	FEHLER	1759	1	!	1319	1	!	1439	0	0	0	0	0	0	0	0	0	0	0	0	0	0	0	0	0	0	0	0	0	0	0	0	0	0	0	0	0	0
120418	09:57:03	09:59:20	133451	5.0.10.0	4_exp_AMP_EVA_AWA_CON	996	Rpleas_acq	Same	Rpleas	Amasked	CS_A	1pleas	distractor1	acq_US_pleas_masked	acq2_masked	2	33	480	1	300	300	0	0	469	50	0	1	0	0	0	1	blank2r.bmp	0	1	+	0	7	C3r.bmp	492	1	blank2r.bmp	786	1	CPLW	786	1	blank2r.bmp	866	2	gütig	866	1	!	1319	1	!	1372	0	0	0	0	0	0	0	0	0	0	0	0	0	0	0	0	0	0	0	0	0	0	0	0	0	0	0
120418	09:57:03	09:59:22	135690	5.0.10.0	4_exp_AMP_EVA_AWA_CON	996	Rpleas_acq	Same	Rpleas	Amasked	CS_A	1pleas	distractor1	acq_new_unple_masked	acq2_masked	2	34	480	1	300	300	0	0	436	46	0	1	0	0	0	1	blank2r.bmp	0	1	+	0	3	B3r.bmp	492	1	blank2r.bmp	786	4	töten	866	1	!	1319	1	!	1332	0	0	0	0	0	0	0	0	0	0	0	0	0	0	0	0	0	0	0	0	0	0	0	0	0	0	0	0	0	0	0	0	0
120418	09:57:03	09:59:24	138063	5.0.10.0	4_exp_AMP_EVA_AWA_CON	996	Rpleas_acq	Same	Rpleas	Amasked	CS_A	1pleas	distractor1	acq_US_unple_masked	acq2_masked	2	35	480	0	300	300	0	0	379	50	0	0	0	0	0	1	blank2r.bmp	0	1	+	0	2	B2r.bmp	492	1	blank2r.bmp	786	1	DHJF	786	1	blank2r.bmp	866	4	versagen	866	1	FEHLER	1586	1	!	-1	1	!	-1	0	0	0	0	0	0	0	0	0	0	0	0	0	0	0	0	0	0	0	0	0	0	0	0
120418	09:57:03	09:59:26	140022	5.0.10.0	4_exp_AMP_EVA_AWA_CON	996	Rpleas_acq	Same	Rpleas	Amasked	CS_A	1pleas	distractor1	acq_new_pleas_masked	acq2_masked	2	36	480	0	300	300	0	0	390	50	0	1	0	0	0	1	blank2r.bmp	0	1	+	0	5	C1r.bmp	492	1	blank2r.bmp	786	4	sonnig	866	1	!	-1	1	!	-1	0	0	0	0	0	0	0	0	0	0	0	0	0	0	0	0	0	0	0	0	0	0	0	0	0	0	0	0	0	0	0	0	0
120418	09:57:03	09:59:30	144367	5.0.10.0	4_exp_AMP_EVA_AWA_CON	996	Rpleas_acq	Same	Rpleas	Amasked	CS_A	1pleas	distractor1	acq_US_pleas_masked	acq3_masked	3	1	453	1	300	300	0	0	455	46	0	0	0	0	0	1	blank2r.bmp	0	1	+	0	7	C3r.bmp	492	1	blank2r.bmp	786	1	CPLW	786	1	blank2r.bmp	866	6	besonnen	866	1	FEHLER	1679	1	!	1292	1	!	1359	0	0	0	0	0	0	0	0	0	0	0	0	0	0	0	0	0	0	0	0	0	0	0	0
120418	09:57:03	09:59:33	146432	5.0.10.0	4_exp_AMP_EVA_AWA_CON	996	Rpleas_acq	Same	Rpleas	Amasked	CS_A	1pleas	distractor1	acq_US_unple_masked	acq3_masked	3	2	453	1	300	300	0	0	466	46	0	1	0	0	0	1	blank2r.bmp	0	1	+	0	3	B3r.bmp	492	1	blank2r.bmp	786	1	DHJF	786	1	blank2r.bmp	866	2	ausrottung	866	1	!	1292	1	!	1372	0	0	0	0	0	0	0	0	0	0	0	0	0	0	0	0	0	0	0	0	0	0	0	0	0	0	0
120418	09:57:03	09:59:35	148871	5.0.10.0	4_exp_AMP_EVA_AWA_CON	996	Rpleas_acq	Same	Rpleas	Amasked	CS_A	1pleas	distractor1	acq_US_unple_masked	acq3_masked	3	3	453	1	300	300	0	0	431	50	0	0	0	0	0	1	blank2r.bmp	0	1	+	0	6	C2r.bmp	492	1	blank2r.bmp	786	1	DHJF	786	1	blank2r.bmp	866	3	verbissen	866	1	FEHLER	1652	1	!	1292	1	!	1332	0	0	0	0	0	0	0	0	0	0	0	0	0	0	0	0	0	0	0	0	0	0	0	0
120418	09:57:03	09:59:37	150951	5.0.10.0	4_exp_AMP_EVA_AWA_CON	996	Rpleas_acq	Same	Rpleas	Amasked	CS_A	1pleas	distractor1	acq_US_pleas_masked	acq3_masked	3	4	453	1	300	300	0	0	499	50	0	1	0	0	0	1	blank2r.bmp	0	1	+	0	1	B1r.bmp	492	1	blank2r.bmp	786	1	CPLW	786	1	blank2r.bmp	866	3	gesittet	866	1	!	1292	1	!	1399	0	0	0	0	0	0	0	0	0	0	0	0	0	0	0	0	0	0	0	0	0	0	0	0	0	0	0
120418	09:57:03	09:59:39	153150	5.0.10.0	4_exp_AMP_EVA_AWA_CON	996	Rpleas_acq	Same	Rpleas	Amasked	CS_A	1pleas	distractor1	acq_US_pleas_masked	acq3_masked	3	5	453	1	300	300	0	0	406	50	0	1	0	0	0	1	blank2r.bmp	0	1	+	0	2	B2r.bmp	492	1	blank2r.bmp	786	1	CPLW	786	1	blank2r.bmp	866	1	anregung	866	1	!	1292	1	!	1306	0	0	0	0	0	0	0	0	0	0	0	0	0	0	0	0	0	0	0	0	0	0	0	0	0	0	0
120418	09:57:03	09:59:42	155575	5.0.10.0	4_exp_AMP_EVA_AWA_CON	996	Rpleas_acq	Same	Rpleas	Amasked	CS_A	1pleas	distractor1	acq_US_unple_masked	acq3_masked	3	6	453	1	300	300	0	0	422	50	0	0	0	0	0	1	blank2r.bmp	0	1	+	0	8	C4r.bmp	492	1	blank2r.bmp	786	1	DHJF	786	1	blank2r.bmp	866	5	engstirnig	866	1	FEHLER	1639	1	!	1292	1	!	1319	0	0	0	0	0	0	0	0	0	0	0	0	0	0	0	0	0	0	0	0	0	0	0	0
120418	09:57:03	09:59:44	157668	5.0.10.0	4_exp_AMP_EVA_AWA_CON	996	Rpleas_acq	Same	Rpleas	Amasked	CS_A	1pleas	distractor1	acq_US_pleas_masked	acq3_masked	3	7	453	0	300	300	0	0	534	50	0	1	0	0	0	1	blank2r.bmp	0	1	+	0	5	C1r.bmp	492	1	blank2r.bmp	786	1	CPLW	786	1	blank2r.bmp	866	4	kreativ	866	1	!	1292	1	!	-1	0	0	0	0	0	0	0	0	0	0	0	0	0	0	0	0	0	0	0	0	0	0	0	0	0	0	0
120418	09:57:03	09:59:46	160093	5.0.10.0	4_exp_AMP_EVA_AWA_CON	996	Rpleas_acq	Same	Rpleas	Amasked	CS_A	1pleas	distractor1	acq_US_pleas_masked	acq3_masked	3	8	453	1	300	300	0	0	399	46	0	0	0	0	0	1	blank2r.bmp	0	1	+	0	4	B4r.bmp	492	1	blank2r.bmp	786	1	CPLW	786	1	blank2r.bmp	866	5	vergnügt	866	1	FEHLER	1625	1	!	1292	1	!	1306	0	0	0	0	0	0	0	0	0	0	0	0	0	0	0	0	0	0	0	0	0	0	0	0
120418	09:57:03	09:59:48	162026	5.0.10.0	4_exp_AMP_EVA_AWA_CON	996	Rpleas_acq	Same	Rpleas	Amasked	CS_A	1pleas	distractor1	acq_US_unple_masked	acq3_masked	3	9	453	0	300	300	0	0	384	46	0	1	0	0	0	1	blank2r.bmp	0	1	+	0	4	B4r.bmp	492	1	blank2r.bmp	786	1	DHJF	786	1	blank2r.bmp	866	6	gierig	866	1	!	-1	1	!	-1	0	0	0	0	0	0	0	0	0	0	0	0	0	0	0	0	0	0	0	0	0	0	0	0	0	0	0
120418	09:57:03	09:59:51	164492	5.0.10.0	4_exp_AMP_EVA_AWA_CON	996	Rpleas_acq	Same	Rpleas	Amasked	CS_A	1pleas	distractor1	acq_US_unple_masked	acq3_masked	3	10	453	1	300	300	0	0	440	50	0	0	0	0	0	1	blank2r.bmp	0	1	+	0	7	C3r.bmp	492	1	blank2r.bmp	786	1	DHJF	786	1	blank2r.bmp	866	4	versagen	866	1	FEHLER	1665	1	!	1292	1	!	1346	0	0	0	0	0	0	0	0	0	0	0	0	0	0	0	0	0	0	0	0	0	0	0	0
120418	09:57:03	09:59:53	166877	5.0.10.0	4_exp_AMP_EVA_AWA_CON	996	Rpleas_acq	Same	Rpleas	Amasked	CS_A	1pleas	distractor1	acq_US_unple_masked	acq3_masked	3	11	453	0	300	300	0	0	603	50	0	0	0	0	0	1	blank2r.bmp	0	1	+	0	6	C2r.bmp	492	1	blank2r.bmp	786	1	DHJF	786	1	blank2r.bmp	866	5	engstirnig	866	1	FEHLER	1812	1	!	1292	1	!	-1	0	0	0	0	0	0	0	0	0	0	0	0	0	0	0	0	0	0	0	0	0	0	0	0
120418	09:57:03	09:59:55	169116	5.0.10.0	4_exp_AMP_EVA_AWA_CON	996	Rpleas_acq	Same	Rpleas	Amasked	CS_A	1pleas	distractor1	acq_US_pleas_masked	acq3_masked	3	12	453	1	300	300	0	0	435	46	0	0	0	0	0	1	blank2r.bmp	0	1	+	0	8	C4r.bmp	492	1	blank2r.bmp	786	1	CPLW	786	1	blank2r.bmp	866	1	anregung	866	1	FEHLER	1652	1	!	1292	1	!	1332	0	0	0	0	0	0	0	0	0	0	0	0	0	0	0	0	0	0	0	0	0	0	0	0
120418	09:57:03	09:59:57	171316	5.0.10.0	4_exp_AMP_EVA_AWA_CON	996	Rpleas_acq	Same	Rpleas	Amasked	CS_A	1pleas	distractor1	acq_US_unple_masked	acq3_masked	3	13	453	1	300	300	0	0	409	50	0	0	0	0	0	1	blank2r.bmp	0	1	+	0	1	B1r.bmp	492	1	blank2r.bmp	786	1	DHJF	786	1	blank2r.bmp	866	2	ausrottung	866	1	FEHLER	1625	1	!	1292	1	!	1306	0	0	0	0	0	0	0	0	0	0	0	0	0	0	0	0	0	0	0	0	0	0	0	0
120418	09:57:03	09:59:59	173368	5.0.10.0	4_exp_AMP_EVA_AWA_CON	996	Rpleas_acq	Same	Rpleas	Amasked	CS_A	1pleas	distractor1	acq_US_pleas_masked	acq3_masked	3	14	453	1	300	300	0	0	472	50	0	1	0	0	0	1	blank2r.bmp	0	1	+	0	2	B2r.bmp	492	1	blank2r.bmp	786	1	CPLW	786	1	blank2r.bmp	866	3	gesittet	866	1	!	1292	1	!	1372	0	0	0	0	0	0	0	0	0	0	0	0	0	0	0	0	0	0	0	0	0	0	0	0	0	0	0
120418	09:57:03	10:00:02	175834	5.0.10.0	4_exp_AMP_EVA_AWA_CON	996	Rpleas_acq	Same	Rpleas	Amasked	CS_A	1pleas	distractor1	acq_US_pleas_masked	acq3_masked	3	15	453	1	300	300	0	0	453	46	0	0	0	0	0	1	blank2r.bmp	0	1	+	0	5	C1r.bmp	492	1	blank2r.bmp	786	1	CPLW	786	1	blank2r.bmp	866	2	gütig	866	1	FEHLER	1679	1	!	1292	1	!	1359	0	0	0	0	0	0	0	0	0	0	0	0	0	0	0	0	0	0	0	0	0	0	0	0
120418	09:57:03	10:00:04	178059	5.0.10.0	4_exp_AMP_EVA_AWA_CON	996	Rpleas_acq	Same	Rpleas	Amasked	CS_A	1pleas	distractor1	acq_US_unple_masked	acq3_masked	3	16	453	1	300	300	0	0	431	50	0	0	0	0	0	1	blank2r.bmp	0	1	+	0	3	B3r.bmp	492	1	blank2r.bmp	786	1	DHJF	786	1	blank2r.bmp	866	1	sterben	866	1	FEHLER	1652	1	!	1292	1	!	1332	0	0	0	0	0	0	0	0	0	0	0	0	0	0	0	0	0	0	0	0	0	0	0	0
120418	09:57:03	10:00:06	180272	5.0.10.0	4_exp_AMP_EVA_AWA_CON	996	Rpleas_acq	Same	Rpleas	Amasked	CS_A	1pleas	distractor1	acq_US_unple_masked	acq3_masked	3	17	453	0	300	300	0	0	652	46	0	1	0	0	0	1	blank2r.bmp	0	1	+	0	6	C2r.bmp	492	1	blank2r.bmp	786	1	DHJF	786	1	blank2r.bmp	866	3	verbissen	866	1	!	1292	1	!	-1	0	0	0	0	0	0	0	0	0	0	0	0	0	0	0	0	0	0	0	0	0	0	0	0	0	0	0
120418	09:57:03	10:00:09	182777	5.0.10.0	4_exp_AMP_EVA_AWA_CON	996	Rpleas_acq	Same	Rpleas	Amasked	CS_A	1pleas	distractor1	acq_US_pleas_masked	acq3_masked	3	18	453	1	300	300	0	0	493	46	0	0	0	0	0	1	blank2r.bmp	0	1	+	0	1	B1r.bmp	492	1	blank2r.bmp	786	1	CPLW	786	1	blank2r.bmp	866	4	kreativ	866	1	FEHLER	1719	1	!	1292	1	!	1399	0	0	0	0	0	0	0	0	0	0	0	0	0	0	0	0	0	0	0	0	0	0	0	0
120418	09:57:03	10:00:11	185030	5.0.10.0	4_exp_AMP_EVA_AWA_CON	996	Rpleas_acq	Same	Rpleas	Amasked	CS_A	1pleas	distractor1	acq_US_pleas_masked	acq3_masked	3	19	453	1	300	300	0	0	447	46	0	0	0	0	0	1	blank2r.bmp	0	1	+	0	3	B3r.bmp	492	1	blank2r.bmp	786	1	CPLW	786	1	blank2r.bmp	866	6	besonnen	866	1	FEHLER	1665	1	!	1292	1	!	1346	0	0	0	0	0	0	0	0	0	0	0	0	0	0	0	0	0	0	0	0	0	0	0	0
120418	09:57:03	10:00:13	187336	5.0.10.0	4_exp_AMP_EVA_AWA_CON	996	Rpleas_acq	Same	Rpleas	Amasked	CS_A	1pleas	distractor1	acq_US_pleas_masked	acq3_masked	3	20	453	1	300	300	0	0	516	46	0	0	0	0	0	1	blank2r.bmp	0	1	+	0	8	C4r.bmp	492	1	blank2r.bmp	786	1	CPLW	786	1	blank2r.bmp	866	5	vergnügt	866	1	FEHLER	1732	1	!	1292	1	!	1412	0	0	0	0	0	0	0	0	0	0	0	0	0	0	0	0	0	0	0	0	0	0	0	0
120418	09:57:03	10:00:15	189348	5.0.10.0	4_exp_AMP_EVA_AWA_CON	996	Rpleas_acq	Same	Rpleas	Amasked	CS_A	1pleas	distractor1	acq_US_pleas_masked	acq3_masked	3	21	453	1	300	300	0	0	426	50	0	1	0	0	0	1	blank2r.bmp	0	1	+	0	2	B2r.bmp	492	1	blank2r.bmp	786	1	CPLW	786	1	blank2r.bmp	866	4	kreativ	866	1	!	1292	1	!	1332	0	0	0	0	0	0	0	0	0	0	0	0	0	0	0	0	0	0	0	0	0	0	0	0	0	0	0
120418	09:57:03	10:00:18	191454	5.0.10.0	4_exp_AMP_EVA_AWA_CON	996	Rpleas_acq	Same	Rpleas	Amasked	CS_A	1pleas	distractor1	acq_US_pleas_masked	acq3_masked	3	22	453	0	300	300	0	0	337	50	0	1	0	0	0	1	blank2r.bmp	0	1	+	0	7	C3r.bmp	492	1	blank2r.bmp	786	1	CPLW	786	1	blank2r.bmp	866	6	besonnen	866	1	!	-1	1	!	-1	0	0	0	0	0	0	0	0	0	0	0	0	0	0	0	0	0	0	0	0	0	0	0	0	0	0	0
120418	09:57:03	10:00:20	193960	5.0.10.0	4_exp_AMP_EVA_AWA_CON	996	Rpleas_acq	Same	Rpleas	Amasked	CS_A	1pleas	distractor1	acq_US_pleas_masked	acq3_masked	3	23	453	1	300	300	0	0	467	46	0	0	0	0	0	1	blank2r.bmp	0	1	+	0	5	C1r.bmp	492	1	blank2r.bmp	786	1	CPLW	786	1	blank2r.bmp	866	1	anregung	866	1	FEHLER	1692	1	!	1292	1	!	1372	0	0	0	0	0	0	0	0	0	0	0	0	0	0	0	0	0	0	0	0	0	0	0	0
120418	09:57:03	10:00:22	195999	5.0.10.0	4_exp_AMP_EVA_AWA_CON	996	Rpleas_acq	Same	Rpleas	Amasked	CS_A	1pleas	distractor1	acq_US_unple_masked	acq3_masked	3	24	453	1	300	300	0	0	464	46	0	1	0	0	0	1	blank2r.bmp	0	1	+	0	4	B4r.bmp	492	1	blank2r.bmp	786	1	DHJF	786	1	blank2r.bmp	866	3	verbissen	866	1	!	1292	1	!	1359	0	0	0	0	0	0	0	0	0	0	0	0	0	0	0	0	0	0	0	0	0	0	0	0	0	0	0
120418	09:57:03	10:00:24	198198	5.0.10.0	4_exp_AMP_EVA_AWA_CON	996	Rpleas_acq	Same	Rpleas	Amasked	CS_A	1pleas	distractor1	acq_US_unple_masked	acq3_masked	3	25	453	1	300	300	0	0	410	46	0	1	0	0	0	1	blank2r.bmp	0	1	+	0	4	B4r.bmp	492	1	blank2r.bmp	786	1	DHJF	786	1	blank2r.bmp	866	1	sterben	866	1	!	1292	1	!	1306	0	0	0	0	0	0	0	0	0	0	0	0	0	0	0	0	0	0	0	0	0	0	0	0	0	0	0
120418	09:57:03	10:00:26	200397	5.0.10.0	4_exp_AMP_EVA_AWA_CON	996	Rpleas_acq	Same	Rpleas	Amasked	CS_A	1pleas	distractor1	acq_US_unple_masked	acq3_masked	3	26	453	1	300	300	0	0	399	46	0	1	0	0	0	1	blank2r.bmp	0	1	+	0	2	B2r.bmp	492	1	blank2r.bmp	786	1	DHJF	786	1	blank2r.bmp	866	4	versagen	866	1	!	1292	1	!	1306	0	0	0	0	0	0	0	0	0	0	0	0	0	0	0	0	0	0	0	0	0	0	0	0	0	0	0
120418	09:57:03	10:00:29	202503	5.0.10.0	4_exp_AMP_EVA_AWA_CON	996	Rpleas_acq	Same	Rpleas	Amasked	CS_A	1pleas	distractor1	acq_US_unple_masked	acq3_masked	3	27	453	0	300	300	0	0	333	46	0	1	0	0	0	1	blank2r.bmp	0	1	+	0	8	C4r.bmp	492	1	blank2r.bmp	786	1	DHJF	786	1	blank2r.bmp	866	6	gierig	866	1	!	-1	1	!	-1	0	0	0	0	0	0	0	0	0	0	0	0	0	0	0	0	0	0	0	0	0	0	0	0	0	0	0
120418	09:57:03	10:00:31	204755	5.0.10.0	4_exp_AMP_EVA_AWA_CON	996	Rpleas_acq	Same	Rpleas	Amasked	CS_A	1pleas	distractor1	acq_US_unple_masked	acq3_masked	3	28	453	1	300	300	0	0	445	46	0	1	0	0	0	1	blank2r.bmp	0	1	+	0	1	B1r.bmp	492	1	blank2r.bmp	786	1	DHJF	786	1	blank2r.bmp	866	2	ausrottung	866	1	!	1292	1	!	1346	0	0	0	0	0	0	0	0	0	0	0	0	0	0	0	0	0	0	0	0	0	0	0	0	0	0	0
120418	09:57:03	10:00:33	207127	5.0.10.0	4_exp_AMP_EVA_AWA_CON	996	Rpleas_acq	Same	Rpleas	Amasked	CS_A	1pleas	distractor1	acq_US_pleas_masked	acq3_masked	3	29	453	0	300	300	0	0	374	46	0	0	0	0	0	1	blank2r.bmp	0	1	+	0	3	B3r.bmp	492	1	blank2r.bmp	786	1	CPLW	786	1	blank2r.bmp	866	3	gesittet	866	1	FEHLER	1586	1	!	-1	1	!	-1	0	0	0	0	0	0	0	0	0	0	0	0	0	0	0	0	0	0	0	0	0	0	0	0
120418	09:57:03	10:00:36	209447	5.0.10.0	4_exp_AMP_EVA_AWA_CON	996	Rpleas_acq	Same	Rpleas	Amasked	CS_A	1pleas	distractor1	acq_US_unple_masked	acq3_masked	3	30	453	0	300	300	0	0	555	50	0	0	0	0	0	1	blank2r.bmp	0	1	+	0	7	C3r.bmp	492	1	blank2r.bmp	786	1	DHJF	786	1	blank2r.bmp	866	5	engstirnig	866	1	FEHLER	1759	1	!	1292	1	!	-1	0	0	0	0	0	0	0	0	0	0	0	0	0	0	0	0	0	0	0	0	0	0	0	0
120418	09:57:03	10:00:38	211659	5.0.10.0	4_exp_AMP_EVA_AWA_CON	996	Rpleas_acq	Same	Rpleas	Amasked	CS_A	1pleas	distractor1	acq_US_unple_masked	acq3_masked	3	31	453	1	300	300	0	0	407	50	0	0	0	0	0	1	blank2r.bmp	0	1	+	0	6	C2r.bmp	492	1	blank2r.bmp	786	1	DHJF	786	1	blank2r.bmp	866	2	ausrottung	866	1	FEHLER	1625	1	!	1292	1	!	1306	0	0	0	0	0	0	0	0	0	0	0	0	0	0	0	0	0	0	0	0	0	0	0	0
120418	09:57:03	10:00:40	213738	5.0.10.0	4_exp_AMP_EVA_AWA_CON	996	Rpleas_acq	Same	Rpleas	Amasked	CS_A	1pleas	distractor1	acq_US_pleas_masked	acq3_masked	3	32	453	0	300	300	0	0	298	46	0	0	0	0	0	1	blank2r.bmp	0	1	+	0	5	C1r.bmp	492	1	blank2r.bmp	786	1	CPLW	786	1	blank2r.bmp	866	2	gütig	866	1	FEHLER	1506	1	!	-1	1	!	-1	0	0	0	0	0	0	0	0	0	0	0	0	0	0	0	0	0	0	0	0	0	0	0	0
120418	09:57:03	10:00:42	215617	5.0.10.0	4_exp_AMP_EVA_AWA_CON	996	Rpleas_acq	Same	Rpleas	Amasked	CS_A	1pleas	distractor1	acq_US_unple_masked	acq3_masked	3	33	453	0	300	300	0	0	312	46	0	1	0	0	0	1	blank2r.bmp	0	1	+	0	2	B2r.bmp	492	1	blank2r.bmp	786	1	DHJF	786	1	blank2r.bmp	866	4	versagen	866	1	!	-1	1	!	-1	0	0	0	0	0	0	0	0	0	0	0	0	0	0	0	0	0	0	0	0	0	0	0	0	0	0	0
120418	09:57:03	10:00:44	217843	5.0.10.0	4_exp_AMP_EVA_AWA_CON	996	Rpleas_acq	Same	Rpleas	Amasked	CS_A	1pleas	distractor1	acq_US_pleas_masked	acq3_masked	3	34	453	1	300	300	0	0	399	50	0	1	0	0	0	1	blank2r.bmp	0	1	+	0	3	B3r.bmp	492	1	blank2r.bmp	786	1	CPLW	786	1	blank2r.bmp	866	5	vergnügt	866	1	!	1292	1	!	1306	0	0	0	0	0	0	0	0	0	0	0	0	0	0	0	0	0	0	0	0	0	0	0	0	0	0	0
120418	09:57:03	10:00:46	220269	5.0.10.0	4_exp_AMP_EVA_AWA_CON	996	Rpleas_acq	Same	Rpleas	Amasked	CS_A	1pleas	distractor1	acq_US_unple_masked	acq3_masked	3	35	453	1	300	300	0	0	421	50	0	0	0	0	0	1	blank2r.bmp	0	1	+	0	5	C1r.bmp	492	1	blank2r.bmp	786	1	DHJF	786	1	blank2r.bmp	866	6	gierig	866	1	FEHLER	1639	1	!	1292	1	!	1319	0	0	0	0	0	0	0	0	0	0	0	0	0	0	0	0	0	0	0	0	0	0	0	0
120418	09:57:03	10:00:48	222295	5.0.10.0	4_exp_AMP_EVA_AWA_CON	996	Rpleas_acq	Same	Rpleas	Amasked	CS_A	1pleas	distractor1	acq_US_pleas_masked	acq3_masked	3	36	453	1	300	300	0	0	440	50	0	1	0	0	0	1	blank2r.bmp	0	1	+	0	1	B1r.bmp	492	1	blank2r.bmp	786	1	CPLW	786	1	blank2r.bmp	866	3	gesittet	866	1	!	1292	1	!	1346	0	0	0	0	0	0	0	0	0	0	0	0	0	0	0	0	0	0	0	0	0	0	0	0	0	0	0
120418	09:57:03	10:00:52	226360	5.0.10.0	4_exp_AMP_EVA_AWA_CON	996	Rpleas_acq	Same	Rpleas	Amasked	CS_A	1pleas	distractor1	acq_US_pleas_masked	acq45_masked	4	1	400	1	300	300	0	0	380	50	0	1	0	0	0	1	blank2r.bmp	0	1	+	0	7	C3r.bmp	492	1	blank2r.bmp	786	1	CPLW	786	1	blank2r.bmp	866	5	vergnügt	866	1	!	1239	1	!	1279	0	0	0	0	0	0	0	0	0	0	0	0	0	0	0	0	0	0	0	0	0	0	0	0	0	0	0
120418	09:57:03	10:00:55	228439	5.0.10.0	4_exp_AMP_EVA_AWA_CON	996	Rpleas_acq	Same	Rpleas	Amasked	CS_A	1pleas	distractor1	acq_US_unple_masked	acq45_masked	4	2	400	0	300	300	0	0	313	50	0	0	0	0	0	1	blank2r.bmp	0	1	+	0	8	C4r.bmp	492	1	blank2r.bmp	786	1	DHJF	786	1	blank2r.bmp	866	1	sterben	866	1	!	-1	1	!	-1	0	0	0	0	0	0	0	0	0	0	0	0	0	0	0	0	0	0	0	0	0	0	0	0	0	0	0
120418	09:57:03	10:00:57	230598	5.0.10.0	4_exp_AMP_EVA_AWA_CON	996	Rpleas_acq	Same	Rpleas	Amasked	CS_A	1pleas	distractor1	acq_US_pleas_masked	acq45_masked	4	3	400	1	300	300	0	0	346	50	0	1	0	0	0	1	blank2r.bmp	0	1	+	0	6	C2r.bmp	492	1	blank2r.bmp	786	1	CPLW	786	1	blank2r.bmp	866	6	besonnen	866	1	!	1239	1	!	1252	0	0	0	0	0	0	0	0	0	0	0	0	0	0	0	0	0	0	0	0	0	0	0	0	0	0	0
120418	09:57:03	10:00:59	232850	5.0.10.0	4_exp_AMP_EVA_AWA_CON	996	Rpleas_acq	Same	Rpleas	Amasked	CS_A	1pleas	distractor1	acq_US_pleas_masked	acq45_masked	4	4	400	1	300	300	0	0	459	50	0	1	0	0	0	1	blank2r.bmp	0	1	+	0	4	B4r.bmp	492	1	blank2r.bmp	786	1	CPLW	786	1	blank2r.bmp	866	2	gütig	866	1	!	1239	1	!	1359	0	0	0	0	0	0	0	0	0	0	0	0	0	0	0	0	0	0	0	0	0	0	0	0	0	0	0
120418	09:57:03	10:01:01	235103	5.0.10.0	4_exp_AMP_EVA_AWA_CON	996	Rpleas_acq	Same	Rpleas	Amasked	CS_A	1pleas	distractor1	acq_US_unple_masked	acq45_masked	4	5	400	0	300	300	0	0	484	46	0	1	0	0	0	1	blank2r.bmp	0	1	+	0	1	B1r.bmp	492	1	blank2r.bmp	786	1	DHJF	786	1	blank2r.bmp	866	3	verbissen	866	1	!	1239	1	!	-1	0	0	0	0	0	0	0	0	0	0	0	0	0	0	0	0	0	0	0	0	0	0	0	0	0	0	0
120418	09:57:03	10:01:03	237382	5.0.10.0	4_exp_AMP_EVA_AWA_CON	996	Rpleas_acq	Same	Rpleas	Amasked	CS_A	1pleas	distractor1	acq_US_unple_masked	acq45_masked	4	6	400	0	300	300	0	0	479	50	0	0	0	0	0	1	blank2r.bmp	0	1	+	0	8	C4r.bmp	492	1	blank2r.bmp	786	1	DHJF	786	1	blank2r.bmp	866	5	engstirnig	866	1	!	1239	1	!	-1	0	0	0	0	0	0	0	0	0	0	0	0	0	0	0	0	0	0	0	0	0	0	0	0	0	0	0
120418	09:57:03	10:01:06	239647	5.0.10.0	4_exp_AMP_EVA_AWA_CON	996	Rpleas_acq	Same	Rpleas	Amasked	CS_A	1pleas	distractor1	acq_US_unple_masked	acq45_masked	4	7	400	1	300	300	0	0	463	50	0	0	0	0	0	1	blank2r.bmp	0	1	+	0	4	B4r.bmp	492	1	blank2r.bmp	786	1	DHJF	786	1	blank2r.bmp	866	6	gierig	866	1	!	1239	1	!	1359	0	0	0	0	0	0	0	0	0	0	0	0	0	0	0	0	0	0	0	0	0	0	0	0	0	0	0
120418	09:57:03	10:01:08	241753	5.0.10.0	4_exp_AMP_EVA_AWA_CON	996	Rpleas_acq	Same	Rpleas	Amasked	CS_A	1pleas	distractor1	acq_US_unple_masked	acq45_masked	4	8	400	0	300	300	0	0	332	46	0	1	0	0	0	1	blank2r.bmp	0	1	+	0	7	C3r.bmp	492	1	blank2r.bmp	786	1	DHJF	786	1	blank2r.bmp	866	4	versagen	866	1	!	-1	1	!	-1	0	0	0	0	0	0	0	0	0	0	0	0	0	0	0	0	0	0	0	0	0	0	0	0	0	0	0
120418	09:57:03	10:01:10	243952	5.0.10.0	4_exp_AMP_EVA_AWA_CON	996	Rpleas_acq	Same	Rpleas	Amasked	CS_A	1pleas	distractor1	acq_US_pleas_masked	acq45_masked	4	9	400	1	300	300	0	0	397	50	0	1	0	0	0	1	blank2r.bmp	0	1	+	0	5	C1r.bmp	492	1	blank2r.bmp	786	1	CPLW	786	1	blank2r.bmp	866	4	kreativ	866	1	!	1239	1	!	1292	0	0	0	0	0	0	0	0	0	0	0	0	0	0	0	0	0	0	0	0	0	0	0	0	0	0	0
120418	09:57:03	10:01:12	246245	5.0.10.0	4_exp_AMP_EVA_AWA_CON	996	Rpleas_acq	Same	Rpleas	Amasked	CS_A	1pleas	distractor1	acq_US_unple_masked	acq45_masked	4	10	400	0	300	300	0	0	520	50	0	0	0	0	0	1	blank2r.bmp	0	1	+	0	3	B3r.bmp	492	1	blank2r.bmp	786	1	DHJF	786	1	blank2r.bmp	866	2	ausrottung	866	1	!	1239	1	!	-1	0	0	0	0	0	0	0	0	0	0	0	0	0	0	0	0	0	0	0	0	0	0	0	0	0	0	0
120418	09:57:03	10:01:15	248444	5.0.10.0	4_exp_AMP_EVA_AWA_CON	996	Rpleas_acq	Same	Rpleas	Amasked	CS_A	1pleas	distractor1	acq_US_pleas_masked	acq45_masked	4	11	400	1	300	300	0	0	398	50	0	1	0	0	0	1	blank2r.bmp	0	1	+	0	6	C2r.bmp	492	1	blank2r.bmp	786	1	CPLW	786	1	blank2r.bmp	866	1	anregung	866	1	!	1239	1	!	1292	0	0	0	0	0	0	0	0	0	0	0	0	0	0	0	0	0	0	0	0	0	0	0	0	0	0	0
120418	09:57:03	10:01:17	250683	5.0.10.0	4_exp_AMP_EVA_AWA_CON	996	Rpleas_acq	Same	Rpleas	Amasked	CS_A	1pleas	distractor1	acq_US_unple_masked	acq45_masked	4	12	400	1	300	300	0	0	443	46	0	1	0	0	0	1	blank2r.bmp	0	1	+	0	2	B2r.bmp	492	1	blank2r.bmp	786	1	DHJF	786	1	blank2r.bmp	866	1	sterben	866	1	!	1239	1	!	1346	0	0	0	0	0	0	0	0	0	0	0	0	0	0	0	0	0	0	0	0	0	0	0	0	0	0	0
120418	09:57:03	10:01:19	252869	5.0.10.0	4_exp_AMP_EVA_AWA_CON	996	Rpleas_acq	Same	Rpleas	Amasked	CS_A	1pleas	distractor1	acq_US_pleas_masked	acq45_masked	4	13	400	1	300	300	0	0	388	50	0	1	0	0	0	1	blank2r.bmp	0	1	+	0	3	B3r.bmp	492	1	blank2r.bmp	786	1	CPLW	786	1	blank2r.bmp	866	2	gütig	866	1	!	1239	1	!	1292	0	0	0	0	0	0	0	0	0	0	0	0	0	0	0	0	0	0	0	0	0	0	0	0	0	0	0
120418	09:57:03	10:01:21	255134	5.0.10.0	4_exp_AMP_EVA_AWA_CON	996	Rpleas_acq	Same	Rpleas	Amasked	CS_A	1pleas	distractor1	acq_US_pleas_masked	acq45_masked	4	14	400	0	300	300	0	0	482	50	0	1	0	0	0	1	blank2r.bmp	0	1	+	0	8	C4r.bmp	492	1	blank2r.bmp	786	1	CPLW	786	1	blank2r.bmp	866	4	kreativ	866	1	!	1239	1	!	-1	0	0	0	0	0	0	0	0	0	0	0	0	0	0	0	0	0	0	0	0	0	0	0	0	0	0	0
120418	09:57:03	10:01:23	257413	5.0.10.0	4_exp_AMP_EVA_AWA_CON	996	Rpleas_acq	Same	Rpleas	Amasked	CS_A	1pleas	distractor1	acq_US_unple_masked	acq45_masked	4	15	400	0	300	300	0	0	494	50	0	0	0	0	0	1	blank2r.bmp	0	1	+	0	4	B4r.bmp	492	1	blank2r.bmp	786	1	DHJF	786	1	blank2r.bmp	866	3	verbissen	866	1	!	1239	1	!	-1	0	0	0	0	0	0	0	0	0	0	0	0	0	0	0	0	0	0	0	0	0	0	0	0	0	0	0
120418	09:57:03	10:01:26	259692	5.0.10.0	4_exp_AMP_EVA_AWA_CON	996	Rpleas_acq	Same	Rpleas	Amasked	CS_A	1pleas	distractor1	acq_US_pleas_masked	acq45_masked	4	16	400	1	300	300	0	0	466	50	0	1	0	0	0	1	blank2r.bmp	0	1	+	0	5	C1r.bmp	492	1	blank2r.bmp	786	1	CPLW	786	1	blank2r.bmp	866	3	gesittet	866	1	!	1239	1	!	1372	0	0	0	0	0	0	0	0	0	0	0	0	0	0	0	0	0	0	0	0	0	0	0	0	0	0	0
120418	09:57:03	10:01:28	261932	5.0.10.0	4_exp_AMP_EVA_AWA_CON	996	Rpleas_acq	Same	Rpleas	Amasked	CS_A	1pleas	distractor1	acq_US_unple_masked	acq45_masked	4	17	400	1	300	300	0	0	442	46	0	1	0	0	0	1	blank2r.bmp	0	1	+	0	2	B2r.bmp	492	1	blank2r.bmp	786	1	DHJF	786	1	blank2r.bmp	866	5	engstirnig	866	1	!	1239	1	!	1346	0	0	0	0	0	0	0	0	0	0	0	0	0	0	0	0	0	0	0	0	0	0	0	0	0	0	0
120418	09:57:03	10:01:30	264157	5.0.10.0	4_exp_AMP_EVA_AWA_CON	996	Rpleas_acq	Same	Rpleas	Amasked	CS_A	1pleas	distractor1	acq_US_pleas_masked	acq45_masked	4	18	400	1	300	300	0	0	420	50	0	1	0	0	0	1	blank2r.bmp	0	1	+	0	1	B1r.bmp	492	1	blank2r.bmp	786	1	CPLW	786	1	blank2r.bmp	866	5	vergnügt	866	1	!	1239	1	!	1319	0	0	0	0	0	0	0	0	0	0	0	0	0	0	0	0	0	0	0	0	0	0	0	0	0	0	0
120418	09:57:03	10:01:33	266436	5.0.10.0	4_exp_AMP_EVA_AWA_CON	996	Rpleas_acq	Same	Rpleas	Amasked	CS_A	1pleas	distractor1	acq_US_unple_masked	acq45_masked	4	19	400	0	300	300	0	0	517	46	0	1	0	0	0	1	blank2r.bmp	0	1	+	0	7	C3r.bmp	492	1	blank2r.bmp	786	1	DHJF	786	1	blank2r.bmp	866	6	gierig	866	1	!	1239	1	!	-1	0	0	0	0	0	0	0	0	0	0	0	0	0	0	0	0	0	0	0	0	0	0	0	0	0	0	0
120418	09:57:03	10:01:35	268609	5.0.10.0	4_exp_AMP_EVA_AWA_CON	996	Rpleas_acq	Same	Rpleas	Amasked	CS_A	1pleas	distractor1	acq_US_pleas_masked	acq45_masked	4	20	400	1	300	300	0	0	362	50	0	1	0	0	0	1	blank2r.bmp	0	1	+	0	6	C2r.bmp	492	1	blank2r.bmp	786	1	CPLW	786	1	blank2r.bmp	866	1	anregung	866	1	!	1239	1	!	1266	0	0	0	0	0	0	0	0	0	0	0	0	0	0	0	0	0	0	0	0	0	0	0	0	0	0	0
120418	09:57:03	10:01:37	270835	5.0.10.0	4_exp_AMP_EVA_AWA_CON	996	Rpleas_acq	Same	Rpleas	Amasked	CS_A	1pleas	distractor1	acq_US_pleas_masked	acq45_masked	4	21	400	1	300	300	0	0	420	46	0	0	0	0	0	1	blank2r.bmp	0	1	+	0	2	B2r.bmp	492	1	blank2r.bmp	786	1	CPLW	786	1	blank2r.bmp	866	6	besonnen	866	1	!	1239	1	!	1319	0	0	0	0	0	0	0	0	0	0	0	0	0	0	0	0	0	0	0	0	0	0	0	0	0	0	0
120418	09:57:03	10:01:39	273087	5.0.10.0	4_exp_AMP_EVA_AWA_CON	996	Rpleas_acq	Same	Rpleas	Amasked	CS_A	1pleas	distractor1	acq_US_unple_masked	acq45_masked	4	22	400	0	300	300	0	0	479	46	0	1	0	0	0	1	blank2r.bmp	0	1	+	0	7	C3r.bmp	492	1	blank2r.bmp	786	1	DHJF	786	1	blank2r.bmp	866	4	versagen	866	1	!	1239	1	!	-1	0	0	0	0	0	0	0	0	0	0	0	0	0	0	0	0	0	0	0	0	0	0	0	0	0	0	0
120418	09:57:03	10:01:41	275406	5.0.10.0	4_exp_AMP_EVA_AWA_CON	996	Rpleas_acq	Same	Rpleas	Amasked	CS_A	1pleas	distractor1	acq_US_pleas_masked	acq45_masked	4	23	400	0	300	300	0	0	530	46	0	0	0	0	0	1	blank2r.bmp	0	1	+	0	5	C1r.bmp	492	1	blank2r.bmp	786	1	CPLW	786	1	blank2r.bmp	866	4	kreativ	866	1	!	1239	1	!	-1	0	0	0	0	0	0	0	0	0	0	0	0	0	0	0	0	0	0	0	0	0	0	0	0	0	0	0
120418	09:57:03	10:01:44	277472	5.0.10.0	4_exp_AMP_EVA_AWA_CON	996	Rpleas_acq	Same	Rpleas	Amasked	CS_A	1pleas	distractor1	acq_US_unple_masked	acq45_masked	4	24	400	0	300	300	0	0	284	50	0	0	0	0	0	1	blank2r.bmp	0	1	+	0	6	C2r.bmp	492	1	blank2r.bmp	786	1	DHJF	786	1	blank2r.bmp	866	1	sterben	866	1	!	-1	1	!	-1	0	0	0	0	0	0	0	0	0	0	0	0	0	0	0	0	0	0	0	0	0	0	0	0	0	0	0
120418	09:57:03	10:01:46	279778	5.0.10.0	4_exp_AMP_EVA_AWA_CON	996	Rpleas_acq	Same	Rpleas	Amasked	CS_A	1pleas	distractor1	acq_US_unple_masked	acq45_masked	4	25	400	0	300	300	0	0	514	46	0	1	0	0	0	1	blank2r.bmp	0	1	+	0	4	B4r.bmp	492	1	blank2r.bmp	786	1	DHJF	786	1	blank2r.bmp	866	2	ausrottung	866	1	!	1239	1	!	-1	0	0	0	0	0	0	0	0	0	0	0	0	0	0	0	0	0	0	0	0	0	0	0	0	0	0	0
120418	09:57:03	10:01:48	281857	5.0.10.0	4_exp_AMP_EVA_AWA_CON	996	Rpleas_acq	Same	Rpleas	Amasked	CS_A	1pleas	distractor1	acq_US_unple_masked	acq45_masked	4	26	400	0	300	300	0	0	296	50	0	0	0	0	0	1	blank2r.bmp	0	1	+	0	3	B3r.bmp	492	1	blank2r.bmp	786	1	DHJF	786	1	blank2r.bmp	866	5	engstirnig	866	1	!	-1	1	!	-1	0	0	0	0	0	0	0	0	0	0	0	0	0	0	0	0	0	0	0	0	0	0	0	0	0	0	0
120418	09:57:03	10:01:50	284096	5.0.10.0	4_exp_AMP_EVA_AWA_CON	996	Rpleas_acq	Same	Rpleas	Amasked	CS_A	1pleas	distractor1	acq_US_pleas_masked	acq45_masked	4	27	400	1	300	300	0	0	432	50	0	1	0	0	0	1	blank2r.bmp	0	1	+	0	1	B1r.bmp	492	1	blank2r.bmp	786	1	CPLW	786	1	blank2r.bmp	866	6	besonnen	866	1	!	1239	1	!	1332	0	0	0	0	0	0	0	0	0	0	0	0	0	0	0	0	0	0	0	0	0	0	0	0	0	0	0
120418	09:57:03	10:01:52	286322	5.0.10.0	4_exp_AMP_EVA_AWA_CON	996	Rpleas_acq	Same	Rpleas	Amasked	CS_A	1pleas	distractor1	acq_US_unple_masked	acq45_masked	4	28	400	1	300	300	0	0	437	50	0	0	0	0	0	1	blank2r.bmp	0	1	+	0	8	C4r.bmp	492	1	blank2r.bmp	786	1	DHJF	786	1	blank2r.bmp	866	3	verbissen	866	1	!	1239	1	!	1332	0	0	0	0	0	0	0	0	0	0	0	0	0	0	0	0	0	0	0	0	0	0	0	0	0	0	0
120418	09:57:03	10:01:55	288481	5.0.10.0	4_exp_AMP_EVA_AWA_CON	996	Rpleas_acq	Same	Rpleas	Amasked	CS_A	1pleas	distractor1	acq_US_unple_masked	acq45_masked	4	29	400	1	300	300	0	0	364	50	0	0	0	0	0	1	blank2r.bmp	0	1	+	0	8	C4r.bmp	492	1	blank2r.bmp	786	1	DHJF	786	1	blank2r.bmp	866	2	ausrottung	866	1	!	1239	1	!	1266	0	0	0	0	0	0	0	0	0	0	0	0	0	0	0	0	0	0	0	0	0	0	0	0	0	0	0
120418	09:57:03	10:01:57	290733	5.0.10.0	4_exp_AMP_EVA_AWA_CON	996	Rpleas_acq	Same	Rpleas	Amasked	CS_A	1pleas	distractor1	acq_US_unple_masked	acq45_masked	4	30	400	0	300	300	0	0	479	50	0	0	0	0	0	1	blank2r.bmp	0	1	+	0	7	C3r.bmp	492	1	blank2r.bmp	786	1	DHJF	786	1	blank2r.bmp	866	3	verbissen	866	1	!	1239	1	!	-1	0	0	0	0	0	0	0	0	0	0	0	0	0	0	0	0	0	0	0	0	0	0	0	0	0	0	0
120418	09:57:03	10:01:59	293065	5.0.10.0	4_exp_AMP_EVA_AWA_CON	996	Rpleas_acq	Same	Rpleas	Amasked	CS_A	1pleas	distractor1	acq_US_unple_masked	acq45_masked	4	31	400	0	300	300	0	0	557	50	0	0	0	0	0	1	blank2r.bmp	0	1	+	0	3	B3r.bmp	492	1	blank2r.bmp	786	1	DHJF	786	1	blank2r.bmp	866	4	versagen	866	1	!	1239	1	!	-1	0	0	0	0	0	0	0	0	0	0	0	0	0	0	0	0	0	0	0	0	0	0	0	0	0	0	0
120418	09:57:03	10:02:01	295278	5.0.10.0	4_exp_AMP_EVA_AWA_CON	996	Rpleas_acq	Same	Rpleas	Amasked	CS_A	1pleas	distractor1	acq_US_pleas_masked	acq45_masked	4	32	400	1	300	300	0	0	408	46	0	0	0	0	0	1	blank2r.bmp	0	1	+	0	4	B4r.bmp	492	1	blank2r.bmp	786	1	CPLW	786	1	blank2r.bmp	866	1	anregung	866	1	!	1239	1	!	1306	0	0	0	0	0	0	0	0	0	0	0	0	0	0	0	0	0	0	0	0	0	0	0	0	0	0	0
120418	09:57:03	10:02:04	297530	5.0.10.0	4_exp_AMP_EVA_AWA_CON	996	Rpleas_acq	Same	Rpleas	Amasked	CS_A	1pleas	distractor1	acq_US_pleas_masked	acq45_masked	4	33	400	1	300	300	0	0	456	46	0	0	0	0	0	1	blank2r.bmp	0	1	+	0	6	C2r.bmp	492	1	blank2r.bmp	786	1	CPLW	786	1	blank2r.bmp	866	3	gesittet	866	1	!	1239	1	!	1359	0	0	0	0	0	0	0	0	0	0	0	0	0	0	0	0	0	0	0	0	0	0	0	0	0	0	0
120418	09:57:03	10:02:06	299689	5.0.10.0	4_exp_AMP_EVA_AWA_CON	996	Rpleas_acq	Same	Rpleas	Amasked	CS_A	1pleas	distractor1	acq_US_pleas_masked	acq45_masked	4	34	400	1	300	300	0	0	346	46	0	0	0	0	0	1	blank2r.bmp	0	1	+	0	2	B2r.bmp	492	1	blank2r.bmp	786	1	CPLW	786	1	blank2r.bmp	866	5	vergnügt	866	1	!	1239	1	!	1252	0	0	0	0	0	0	0	0	0	0	0	0	0	0	0	0	0	0	0	0	0	0	0	0	0	0	0
120418	09:57:03	10:02:08	301942	5.0.10.0	4_exp_AMP_EVA_AWA_CON	996	Rpleas_acq	Same	Rpleas	Amasked	CS_A	1pleas	distractor1	acq_US_pleas_masked	acq45_masked	4	35	400	0	300	300	0	0	479	46	0	0	0	0	0	1	blank2r.bmp	0	1	+	0	1	B1r.bmp	492	1	blank2r.bmp	786	1	CPLW	786	1	blank2r.bmp	866	2	gütig	866	1	!	1239	1	!	-1	0	0	0	0	0	0	0	0	0	0	0	0	0	0	0	0	0	0	0	0	0	0	0	0	0	0	0
120418	09:57:03	10:02:10	304208	5.0.10.0	4_exp_AMP_EVA_AWA_CON	996	Rpleas_acq	Same	Rpleas	Amasked	CS_A	1pleas	distractor1	acq_US_pleas_masked	acq45_masked	4	36	400	0	300	300	0	0	479	50	0	1	0	0	0	1	blank2r.bmp	0	1	+	0	5	C1r.bmp	492	1	blank2r.bmp	786	1	CPLW	786	1	blank2r.bmp	866	2	gütig	866	1	!	1239	1	!	-1	0	0	0	0	0	0	0	0	0	0	0	0	0	0	0	0	0	0	0	0	0	0	0	0	0	0	0
120418	09:57:03	10:02:14	308259	5.0.10.0	4_exp_AMP_EVA_AWA_CON	996	Rpleas_acq	Same	Rpleas	Amasked	CS_A	1pleas	distractor1	acq_US_unple_masked	acq45_masked	5	1	400	1	300	300	0	0	366	46	0	1	0	0	0	1	blank2r.bmp	0	1	+	0	3	B3r.bmp	492	1	blank2r.bmp	786	1	DHJF	786	1	blank2r.bmp	866	1	sterben	866	1	!	1239	1	!	1266	0	0	0	0	0	0	0	0	0	0	0	0	0	0	0	0	0	0	0	0	0	0	0	0	0	0	0
120418	09:57:03	10:02:17	310512	5.0.10.0	4_exp_AMP_EVA_AWA_CON	996	Rpleas_acq	Same	Rpleas	Amasked	CS_A	1pleas	distractor1	acq_US_pleas_masked	acq45_masked	5	2	400	1	300	300	0	0	453	50	0	1	0	0	0	1	blank2r.bmp	0	1	+	0	1	B1r.bmp	492	1	blank2r.bmp	786	1	CPLW	786	1	blank2r.bmp	866	6	besonnen	866	1	!	1239	1	!	1359	0	0	0	0	0	0	0	0	0	0	0	0	0	0	0	0	0	0	0	0	0	0	0	0	0	0	0
120418	09:57:03	10:02:19	312684	5.0.10.0	4_exp_AMP_EVA_AWA_CON	996	Rpleas_acq	Same	Rpleas	Amasked	CS_A	1pleas	distractor1	acq_US_unple_masked	acq45_masked	5	3	400	1	300	300	0	0	385	46	0	1	0	0	0	1	blank2r.bmp	0	1	+	0	8	C4r.bmp	492	1	blank2r.bmp	786	1	DHJF	786	1	blank2r.bmp	866	5	engstirnig	866	1	!	1239	1	!	1279	0	0	0	0	0	0	0	0	0	0	0	0	0	0	0	0	0	0	0	0	0	0	0	0	0	0	0
120418	09:57:03	10:02:21	314896	5.0.10.0	4_exp_AMP_EVA_AWA_CON	996	Rpleas_acq	Same	Rpleas	Amasked	CS_A	1pleas	distractor1	acq_US_pleas_masked	acq45_masked	5	4	400	1	300	300	0	0	412	50	0	1	0	0	0	1	blank2r.bmp	0	1	+	0	4	B4r.bmp	492	1	blank2r.bmp	786	1	CPLW	786	1	blank2r.bmp	866	1	anregung	866	1	!	1239	1	!	1319	0	0	0	0	0	0	0	0	0	0	0	0	0	0	0	0	0	0	0	0	0	0	0	0	0	0	0
120418	09:57:03	10:02:23	317096	5.0.10.0	4_exp_AMP_EVA_AWA_CON	996	Rpleas_acq	Same	Rpleas	Amasked	CS_A	1pleas	distractor1	acq_US_unple_masked	acq45_masked	5	5	400	1	300	300	0	0	399	50	0	0	0	0	0	1	blank2r.bmp	0	1	+	0	5	C1r.bmp	492	1	blank2r.bmp	786	1	DHJF	786	1	blank2r.bmp	866	6	gierig	866	1	!	1239	1	!	1306	0	0	0	0	0	0	0	0	0	0	0	0	0	0	0	0	0	0	0	0	0	0	0	0	0	0	0
120418	09:57:03	10:02:25	319255	5.0.10.0	4_exp_AMP_EVA_AWA_CON	996	Rpleas_acq	Same	Rpleas	Amasked	CS_A	1pleas	distractor1	acq_US_unple_masked	acq45_masked	5	6	400	1	300	300	0	0	369	50	0	0	0	0	0	1	blank2r.bmp	0	1	+	0	7	C3r.bmp	492	1	blank2r.bmp	786	1	DHJF	786	1	blank2r.bmp	866	5	engstirnig	866	1	!	1239	1	!	1266	0	0	0	0	0	0	0	0	0	0	0	0	0	0	0	0	0	0	0	0	0	0	0	0	0	0	0
120418	09:57:03	10:02:27	321414	5.0.10.0	4_exp_AMP_EVA_AWA_CON	996	Rpleas_acq	Same	Rpleas	Amasked	CS_A	1pleas	distractor1	acq_US_unple_masked	acq45_masked	5	7	400	1	300	300	0	0	362	46	0	1	0	0	0	1	blank2r.bmp	0	1	+	0	2	B2r.bmp	492	1	blank2r.bmp	786	1	DHJF	786	1	blank2r.bmp	866	1	sterben	866	1	!	1239	1	!	1266	0	0	0	0	0	0	0	0	0	0	0	0	0	0	0	0	0	0	0	0	0	0	0	0	0	0	0
120418	09:57:03	10:02:30	323653	5.0.10.0	4_exp_AMP_EVA_AWA_CON	996	Rpleas_acq	Same	Rpleas	Amasked	CS_A	1pleas	distractor1	acq_US_pleas_masked	acq45_masked	5	8	400	1	300	300	0	0	436	46	0	0	0	0	0	1	blank2r.bmp	0	1	+	0	6	C2r.bmp	492	1	blank2r.bmp	786	1	CPLW	786	1	blank2r.bmp	866	3	gesittet	866	1	!	1239	1	!	1332	0	0	0	0	0	0	0	0	0	0	0	0	0	0	0	0	0	0	0	0	0	0	0	0	0	0	0
120418	09:57:03	10:02:32	325839	5.0.10.0	4_exp_AMP_EVA_AWA_CON	996	Rpleas_acq	Same	Rpleas	Amasked	CS_A	1pleas	distractor1	acq_US_unple_masked	acq45_masked	5	9	400	1	300	300	0	0	395	50	0	0	0	0	0	1	blank2r.bmp	0	1	+	0	3	B3r.bmp	492	1	blank2r.bmp	786	1	DHJF	786	1	blank2r.bmp	866	2	ausrottung	866	1	!	1239	1	!	1292	0	0	0	0	0	0	0	0	0	0	0	0	0	0	0	0	0	0	0	0	0	0	0	0	0	0	0
120418	09:57:03	10:02:34	327984	5.0.10.0	4_exp_AMP_EVA_AWA_CON	996	Rpleas_acq	Same	Rpleas	Amasked	CS_A	1pleas	distractor1	acq_US_unple_masked	acq45_masked	5	10	400	1	300	300	0	0	346	50	0	0	0	0	0	1	blank2r.bmp	0	1	+	0	1	B1r.bmp	492	1	blank2r.bmp	786	1	DHJF	786	1	blank2r.bmp	866	6	gierig	866	1	!	1239	1	!	1252	0	0	0	0	0	0	0	0	0	0	0	0	0	0	0	0	0	0	0	0	0	0	0	0	0	0	0
120418	09:57:03	10:02:36	330250	5.0.10.0	4_exp_AMP_EVA_AWA_CON	996	Rpleas_acq	Same	Rpleas	Amasked	CS_A	1pleas	distractor1	acq_US_unple_masked	acq45_masked	5	11	400	0	300	300	0	0	493	50	0	0	0	0	0	1	blank2r.bmp	0	1	+	0	8	C4r.bmp	492	1	blank2r.bmp	786	1	DHJF	786	1	blank2r.bmp	866	3	verbissen	866	1	!	1239	1	!	-1	0	0	0	0	0	0	0	0	0	0	0	0	0	0	0	0	0	0	0	0	0	0	0	0	0	0	0
120418	09:57:03	10:02:39	332436	5.0.10.0	4_exp_AMP_EVA_AWA_CON	996	Rpleas_acq	Same	Rpleas	Amasked	CS_A	1pleas	distractor1	acq_US_pleas_masked	acq45_masked	5	12	400	1	300	300	0	0	383	46	0	0	0	0	0	1	blank2r.bmp	0	1	+	0	2	B2r.bmp	492	1	blank2r.bmp	786	1	CPLW	786	1	blank2r.bmp	866	4	kreativ	866	1	!	1239	1	!	1279	0	0	0	0	0	0	0	0	0	0	0	0	0	0	0	0	0	0	0	0	0	0	0	0	0	0	0
120418	09:57:03	10:02:41	334448	5.0.10.0	4_exp_AMP_EVA_AWA_CON	996	Rpleas_acq	Same	Rpleas	Amasked	CS_A	1pleas	distractor1	acq_US_pleas_masked	acq45_masked	5	13	400	0	300	300	0	0	238	50	0	1	0	0	0	1	blank2r.bmp	0	1	+	0	7	C3r.bmp	492	1	blank2r.bmp	786	1	CPLW	786	1	blank2r.bmp	866	5	vergnügt	866	1	!	-1	1	!	-1	0	0	0	0	0	0	0	0	0	0	0	0	0	0	0	0	0	0	0	0	0	0	0	0	0	0	0
120418	09:57:03	10:02:43	336608	5.0.10.0	4_exp_AMP_EVA_AWA_CON	996	Rpleas_acq	Same	Rpleas	Amasked	CS_A	1pleas	distractor1	acq_US_pleas_masked	acq45_masked	5	14	400	1	300	300	0	0	346	50	0	1	0	0	0	1	blank2r.bmp	0	1	+	0	6	C2r.bmp	492	1	blank2r.bmp	786	1	CPLW	786	1	blank2r.bmp	866	5	vergnügt	866	1	!	1239	1	!	1252	0	0	0	0	0	0	0	0	0	0	0	0	0	0	0	0	0	0	0	0	0	0	0	0	0	0	0
120418	09:57:03	10:02:45	338873	5.0.10.0	4_exp_AMP_EVA_AWA_CON	996	Rpleas_acq	Same	Rpleas	Amasked	CS_A	1pleas	distractor1	acq_US_unple_masked	acq45_masked	5	15	400	0	300	300	0	0	479	46	0	1	0	0	0	1	blank2r.bmp	0	1	+	0	4	B4r.bmp	492	1	blank2r.bmp	786	1	DHJF	786	1	blank2r.bmp	866	4	versagen	866	1	!	1239	1	!	-1	0	0	0	0	0	0	0	0	0	0	0	0	0	0	0	0	0	0	0	0	0	0	0	0	0	0	0
120418	09:57:03	10:02:47	341112	5.0.10.0	4_exp_AMP_EVA_AWA_CON	996	Rpleas_acq	Same	Rpleas	Amasked	CS_A	1pleas	distractor1	acq_US_pleas_masked	acq45_masked	5	16	400	1	300	300	0	0	420	46	0	0	0	0	0	1	blank2r.bmp	0	1	+	0	5	C1r.bmp	492	1	blank2r.bmp	786	1	CPLW	786	1	blank2r.bmp	866	4	kreativ	866	1	!	1239	1	!	1319	0	0	0	0	0	0	0	0	0	0	0	0	0	0	0	0	0	0	0	0	0	0	0	0	0	0	0
120418	09:57:03	10:02:49	343258	5.0.10.0	4_exp_AMP_EVA_AWA_CON	996	Rpleas_acq	Same	Rpleas	Amasked	CS_A	1pleas	distractor1	acq_US_pleas_masked	acq45_masked	5	17	400	1	300	300	0	0	346	50	0	1	0	0	0	1	blank2r.bmp	0	1	+	0	2	B2r.bmp	492	1	blank2r.bmp	786	1	CPLW	786	1	blank2r.bmp	866	1	anregung	866	1	!	1239	1	!	1252	0	0	0	0	0	0	0	0	0	0	0	0	0	0	0	0	0	0	0	0	0	0	0	0	0	0	0
120418	09:57:03	10:02:52	345537	5.0.10.0	4_exp_AMP_EVA_AWA_CON	996	Rpleas_acq	Same	Rpleas	Amasked	CS_A	1pleas	distractor1	acq_US_pleas_masked	acq45_masked	5	18	400	0	300	300	0	0	507	46	0	0	0	0	0	1	blank2r.bmp	0	1	+	0	1	B1r.bmp	492	1	blank2r.bmp	786	1	CPLW	786	1	blank2r.bmp	866	2	gütig	866	1	!	1239	1	!	-1	0	0	0	0	0	0	0	0	0	0	0	0	0	0	0	0	0	0	0	0	0	0	0	0	0	0	0
120418	09:57:03	10:02:54	347603	5.0.10.0	4_exp_AMP_EVA_AWA_CON	996	Rpleas_acq	Same	Rpleas	Amasked	CS_A	1pleas	distractor1	acq_US_unple_masked	acq45_masked	5	19	400	0	300	300	0	0	290	50	0	0	0	0	0	1	blank2r.bmp	0	1	+	0	8	C4r.bmp	492	1	blank2r.bmp	786	1	DHJF	786	1	blank2r.bmp	866	2	ausrottung	866	1	!	-1	1	!	-1	0	0	0	0	0	0	0	0	0	0	0	0	0	0	0	0	0	0	0	0	0	0	0	0	0	0	0
120418	09:57:03	10:02:56	349815	5.0.10.0	4_exp_AMP_EVA_AWA_CON	996	Rpleas_acq	Same	Rpleas	Amasked	CS_A	1pleas	distractor1	acq_US_pleas_masked	acq45_masked	5	20	400	1	300	300	0	0	408	46	0	0	0	0	0	1	blank2r.bmp	0	1	+	0	3	B3r.bmp	492	1	blank2r.bmp	786	1	CPLW	786	1	blank2r.bmp	866	3	gesittet	866	1	!	1239	1	!	1306	0	0	0	0	0	0	0	0	0	0	0	0	0	0	0	0	0	0	0	0	0	0	0	0	0	0	0
120418	09:57:03	10:02:58	351988	5.0.10.0	4_exp_AMP_EVA_AWA_CON	996	Rpleas_acq	Same	Rpleas	Amasked	CS_A	1pleas	distractor1	acq_US_unple_masked	acq45_masked	5	21	400	1	300	300	0	0	377	46	0	1	0	0	0	1	blank2r.bmp	0	1	+	0	6	C2r.bmp	492	1	blank2r.bmp	786	1	DHJF	786	1	blank2r.bmp	866	5	engstirnig	866	1	!	1239	1	!	1279	0	0	0	0	0	0	0	0	0	0	0	0	0	0	0	0	0	0	0	0	0	0	0	0	0	0	0
120418	09:57:03	10:03:00	354240	5.0.10.0	4_exp_AMP_EVA_AWA_CON	996	Rpleas_acq	Same	Rpleas	Amasked	CS_A	1pleas	distractor1	acq_US_pleas_masked	acq45_masked	5	22	400	0	300	300	0	0	479	50	0	1	0	0	0	1	blank2r.bmp	0	1	+	0	4	B4r.bmp	492	1	blank2r.bmp	786	1	CPLW	786	1	blank2r.bmp	866	6	besonnen	866	1	!	1239	1	!	-1	0	0	0	0	0	0	0	0	0	0	0	0	0	0	0	0	0	0	0	0	0	0	0	0	0	0	0
120418	09:57:03	10:03:02	356399	5.0.10.0	4_exp_AMP_EVA_AWA_CON	996	Rpleas_acq	Same	Rpleas	Amasked	CS_A	1pleas	distractor1	acq_US_pleas_masked	acq45_masked	5	23	400	1	300	300	0	0	354	50	0	1	0	0	0	1	blank2r.bmp	0	1	+	0	7	C3r.bmp	492	1	blank2r.bmp	786	1	CPLW	786	1	blank2r.bmp	866	4	kreativ	866	1	!	1239	1	!	1252	0	0	0	0	0	0	0	0	0	0	0	0	0	0	0	0	0	0	0	0	0	0	0	0	0	0	0
120418	09:57:03	10:03:05	358572	5.0.10.0	4_exp_AMP_EVA_AWA_CON	996	Rpleas_acq	Same	Rpleas	Amasked	CS_A	1pleas	distractor1	acq_US_unple_masked	acq45_masked	5	24	400	1	300	300	0	0	377	50	0	0	0	0	0	1	blank2r.bmp	0	1	+	0	5	C1r.bmp	492	1	blank2r.bmp	786	1	DHJF	786	1	blank2r.bmp	866	6	gierig	866	1	!	1239	1	!	1279	0	0	0	0	0	0	0	0	0	0	0	0	0	0	0	0	0	0	0	0	0	0	0	0	0	0	0
120418	09:57:03	10:03:07	360824	5.0.10.0	4_exp_AMP_EVA_AWA_CON	996	Rpleas_acq	Same	Rpleas	Amasked	CS_A	1pleas	distractor1	acq_US_unple_masked	acq45_masked	5	25	400	0	300	300	0	0	482	50	0	0	0	0	0	1	blank2r.bmp	0	1	+	0	2	B2r.bmp	492	1	blank2r.bmp	786	1	DHJF	786	1	blank2r.bmp	866	3	verbissen	866	1	!	1239	1	!	-1	0	0	0	0	0	0	0	0	0	0	0	0	0	0	0	0	0	0	0	0	0	0	0	0	0	0	0
120418	09:57:03	10:03:09	363090	5.0.10.0	4_exp_AMP_EVA_AWA_CON	996	Rpleas_acq	Same	Rpleas	Amasked	CS_A	1pleas	distractor1	acq_US_pleas_masked	acq45_masked	5	26	400	1	300	300	0	0	462	46	0	0	0	0	0	1	blank2r.bmp	0	1	+	0	5	C1r.bmp	492	1	blank2r.bmp	786	1	CPLW	786	1	blank2r.bmp	866	3	gesittet	866	1	!	1239	1	!	1359	0	0	0	0	0	0	0	0	0	0	0	0	0	0	0	0	0	0	0	0	0	0	0	0	0	0	0
120418	09:57:03	10:03:11	365142	5.0.10.0	4_exp_AMP_EVA_AWA_CON	996	Rpleas_acq	Same	Rpleas	Amasked	CS_A	1pleas	distractor1	acq_US_pleas_masked	acq45_masked	5	27	400	0	300	300	0	0	285	50	0	1	0	0	0	1	blank2r.bmp	0	1	+	0	6	C2r.bmp	492	1	blank2r.bmp	786	1	CPLW	786	1	blank2r.bmp	866	6	besonnen	866	1	!	-1	1	!	-1	0	0	0	0	0	0	0	0	0	0	0	0	0	0	0	0	0	0	0	0	0	0	0	0	0	0	0
120418	09:57:03	10:03:13	367422	5.0.10.0	4_exp_AMP_EVA_AWA_CON	996	Rpleas_acq	Same	Rpleas	Amasked	CS_A	1pleas	distractor1	acq_US_unple_masked	acq45_masked	5	28	400	1	300	300	0	0	452	46	0	1	0	0	0	1	blank2r.bmp	0	1	+	0	4	B4r.bmp	492	1	blank2r.bmp	786	1	DHJF	786	1	blank2r.bmp	866	1	sterben	866	1	!	1239	1	!	1359	0	0	0	0	0	0	0	0	0	0	0	0	0	0	0	0	0	0	0	0	0	0	0	0	0	0	0
120418	09:57:03	10:03:16	369727	5.0.10.0	4_exp_AMP_EVA_AWA_CON	996	Rpleas_acq	Same	Rpleas	Amasked	CS_A	1pleas	distractor1	acq_US_unple_masked	acq45_masked	5	29	400	0	300	300	0	0	540	50	0	0	0	0	0	1	blank2r.bmp	0	1	+	0	1	B1r.bmp	492	1	blank2r.bmp	786	1	DHJF	786	1	blank2r.bmp	866	4	versagen	866	1	!	1239	1	!	-1	0	0	0	0	0	0	0	0	0	0	0	0	0	0	0	0	0	0	0	0	0	0	0	0	0	0	0
120418	09:57:03	10:03:18	371886	5.0.10.0	4_exp_AMP_EVA_AWA_CON	996	Rpleas_acq	Same	Rpleas	Amasked	CS_A	1pleas	distractor1	acq_US_unple_masked	acq45_masked	5	30	400	1	300	300	0	0	346	46	0	1	0	0	0	1	blank2r.bmp	0	1	+	0	8	C4r.bmp	492	1	blank2r.bmp	786	1	DHJF	786	1	blank2r.bmp	866	3	verbissen	866	1	!	1239	1	!	1252	0	0	0	0	0	0	0	0	0	0	0	0	0	0	0	0	0	0	0	0	0	0	0	0	0	0	0
120418	09:57:03	10:03:20	374032	5.0.10.0	4_exp_AMP_EVA_AWA_CON	996	Rpleas_acq	Same	Rpleas	Amasked	CS_A	1pleas	distractor1	acq_US_pleas_masked	acq45_masked	5	31	400	1	300	300	0	0	349	46	0	0	0	0	0	1	blank2r.bmp	0	1	+	0	3	B3r.bmp	492	1	blank2r.bmp	786	1	CPLW	786	1	blank2r.bmp	866	5	vergnügt	866	1	!	1239	1	!	1252	0	0	0	0	0	0	0	0	0	0	0	0	0	0	0	0	0	0	0	0	0	0	0	0	0	0	0
120418	09:57:03	10:03:22	376258	5.0.10.0	4_exp_AMP_EVA_AWA_CON	996	Rpleas_acq	Same	Rpleas	Amasked	CS_A	1pleas	distractor1	acq_US_unple_masked	acq45_masked	5	32	400	1	300	300	0	0	421	50	0	0	0	0	0	1	blank2r.bmp	0	1	+	0	7	C3r.bmp	492	1	blank2r.bmp	786	1	DHJF	786	1	blank2r.bmp	866	1	sterben	866	1	!	1239	1	!	1319	0	0	0	0	0	0	0	0	0	0	0	0	0	0	0	0	0	0	0	0	0	0	0	0	0	0	0
120418	09:57:03	10:03:25	378510	5.0.10.0	4_exp_AMP_EVA_AWA_CON	996	Rpleas_acq	Same	Rpleas	Amasked	CS_A	1pleas	distractor1	acq_US_pleas_masked	acq45_masked	5	33	400	1	300	300	0	0	455	46	0	0	0	0	0	1	blank2r.bmp	0	1	+	0	5	C1r.bmp	492	1	blank2r.bmp	786	1	CPLW	786	1	blank2r.bmp	866	2	gütig	866	1	!	1239	1	!	1359	0	0	0	0	0	0	0	0	0	0	0	0	0	0	0	0	0	0	0	0	0	0	0	0	0	0	0
120418	09:57:03	10:03:27	380763	5.0.10.0	4_exp_AMP_EVA_AWA_CON	996	Rpleas_acq	Same	Rpleas	Amasked	CS_A	1pleas	distractor1	acq_US_pleas_masked	acq45_masked	5	34	400	1	300	300	0	0	451	50	0	1	0	0	0	1	blank2r.bmp	0	1	+	0	7	C3r.bmp	492	1	blank2r.bmp	786	1	CPLW	786	1	blank2r.bmp	866	1	anregung	866	1	!	1239	1	!	1346	0	0	0	0	0	0	0	0	0	0	0	0	0	0	0	0	0	0	0	0	0	0	0	0	0	0	0
120418	09:57:03	10:03:29	382988	5.0.10.0	4_exp_AMP_EVA_AWA_CON	996	Rpleas_acq	Same	Rpleas	Amasked	CS_A	1pleas	distractor1	acq_US_pleas_masked	acq45_masked	5	35	400	1	300	300	0	0	427	46	0	0	0	0	0	1	blank2r.bmp	0	1	+	0	8	C4r.bmp	492	1	blank2r.bmp	786	1	CPLW	786	1	blank2r.bmp	866	5	vergnügt	866	1	!	1239	1	!	1332	0	0	0	0	0	0	0	0	0	0	0	0	0	0	0	0	0	0	0	0	0	0	0	0	0	0	0
120418	09:57:03	10:03:31	385254	5.0.10.0	4_exp_AMP_EVA_AWA_CON	996	Rpleas_acq	Same	Rpleas	Amasked	CS_A	1pleas	distractor1	acq_US_unple_masked	acq45_masked	5	36	400	0	300	300	0	0	494	46	0	1	0	0	0	1	blank2r.bmp	0	1	+	0	3	B3r.bmp	492	1	blank2r.bmp	786	1	DHJF	786	1	blank2r.bmp	866	2	ausrottung	866	1	!	1239	1	!	-1	0	0	0	0	0	0	0	0	0	0	0	0	0	0	0	0	0	0	0	0	0	0	0	0	0	0	0
120418	09:57:03	10:03:35	388453	5.0.10.0	4_exp_AMP_EVA_AWA_CON	996	Rpleas_acq	Same	Rpleas	Amasked	CS_A	1pleas	distractor1	AMP_distractor	AMP1_masked	6	1	0	0	300	300	0	0	44	50	0	0	0	0	0	1	blank2r.bmp	0	1	HWDL	0	1	blank2r.bmp	79	113	pic113.bmp	199	1	whitenoise_No3.bmp	306	0	0	0	0	0	0	0	0	0	0	0	0	0	0	0	0	0	0	0	0	0	0	0	0	0	0	0	0	0	0	0	0	0	0	0	0	0	0	0
120418	09:57:03	10:03:35	389399	5.0.10.0	4_exp_AMP_EVA_AWA_CON	996	Rpleas_acq	Same	Rpleas	Amasked	CS_A	1pleas	distractor1	AMP_distractor	AMP1_masked	6	2	0	0	300	300	0	0	36	46	0	0	0	0	0	1	blank2r.bmp	0	1	HWDL	0	1	blank2r.bmp	79	51	pic51.bmp	199	1	whitenoise_No3.bmp	306	0	0	0	0	0	0	0	0	0	0	0	0	0	0	0	0	0	0	0	0	0	0	0	0	0	0	0	0	0	0	0	0	0	0	0	0	0	0	0
120418	09:57:03	10:03:36	390385	5.0.10.0	4_exp_AMP_EVA_AWA_CON	996	Rpleas_acq	Same	Rpleas	Amasked	CS_A	1pleas	distractor1	AMP_distractor	AMP1_masked	6	3	0	0	300	300	0	0	59	50	0	0	0	0	0	1	blank2r.bmp	0	1	HWDL	0	1	blank2r.bmp	79	23	pic23.bmp	199	1	whitenoise_No3.bmp	306	0	0	0	0	0	0	0	0	0	0	0	0	0	0	0	0	0	0	0	0	0	0	0	0	0	0	0	0	0	0	0	0	0	0	0	0	0	0	0
120418	09:57:03	10:03:37	391332	5.0.10.0	4_exp_AMP_EVA_AWA_CON	996	Rpleas_acq	Same	Rpleas	Amasked	CS_A	1pleas	distractor1	AMP_distractor	AMP1_masked	6	4	0	0	300	300	0	0	38	50	0	0	0	0	0	1	blank2r.bmp	0	1	HWDL	0	1	blank2r.bmp	79	137	pic137.bmp	199	1	whitenoise_No3.bmp	306	0	0	0	0	0	0	0	0	0	0	0	0	0	0	0	0	0	0	0	0	0	0	0	0	0	0	0	0	0	0	0	0	0	0	0	0	0	0	0
120418	09:57:03	10:03:38	392305	5.0.10.0	4_exp_AMP_EVA_AWA_CON	996	Rpleas_acq	Same	Rpleas	Amasked	CS_A	1pleas	distractor1	AMP_CSpleas	AMP1_masked	6	5	0	0	300	300	0	0	45	50	0	1	0	0	0	1	blank2r.bmp	0	1	CPLW	0	1	blank2r.bmp	79	112	pic112.bmp	199	1	whitenoise_No3.bmp	306	0	0	0	0	0	0	0	0	0	0	0	0	0	0	0	0	0	0	0	0	0	0	0	0	0	0	0	0	0	0	0	0	0	0	0	0	0	0	0
120418	09:57:03	10:03:39	393251	5.0.10.0	4_exp_AMP_EVA_AWA_CON	996	Rpleas_acq	Same	Rpleas	Amasked	CS_A	1pleas	distractor1	AMP_CSpleas	AMP1_masked	6	6	0	0	300	300	0	0	37	46	0	0	0	0	0	1	blank2r.bmp	0	1	CPLW	0	1	blank2r.bmp	79	45	pic45.bmp	199	1	whitenoise_No3.bmp	306	0	0	0	0	0	0	0	0	0	0	0	0	0	0	0	0	0	0	0	0	0	0	0	0	0	0	0	0	0	0	0	0	0	0	0	0	0	0	0
120418	09:57:03	10:03:40	394224	5.0.10.0	4_exp_AMP_EVA_AWA_CON	996	Rpleas_acq	Same	Rpleas	Amasked	CS_A	1pleas	distractor1	AMP_CSunple	AMP1_masked	6	7	0	0	300	300	0	0	45	50	0	0	0	0	0	1	blank2r.bmp	0	1	DHJF	0	1	blank2r.bmp	79	6	pic6.bmp	199	1	whitenoise_No3.bmp	306	0	0	0	0	0	0	0	0	0	0	0	0	0	0	0	0	0	0	0	0	0	0	0	0	0	0	0	0	0	0	0	0	0	0	0	0	0	0	0
120418	09:57:03	10:03:41	395170	5.0.10.0	4_exp_AMP_EVA_AWA_CON	996	Rpleas_acq	Same	Rpleas	Amasked	CS_A	1pleas	distractor1	AMP_CSpleas	AMP1_masked	6	8	0	0	300	300	0	0	37	50	0	1	0	0	0	1	blank2r.bmp	0	1	CPLW	0	1	blank2r.bmp	79	79	pic79.bmp	199	1	whitenoise_No3.bmp	306	0	0	0	0	0	0	0	0	0	0	0	0	0	0	0	0	0	0	0	0	0	0	0	0	0	0	0	0	0	0	0	0	0	0	0	0	0	0	0
120418	09:57:03	10:03:42	396143	5.0.10.0	4_exp_AMP_EVA_AWA_CON	996	Rpleas_acq	Same	Rpleas	Amasked	CS_A	1pleas	distractor1	AMP_distractor	AMP1_masked	6	9	0	0	300	300	0	0	45	50	0	0	0	0	0	1	blank2r.bmp	0	1	HWDL	0	1	blank2r.bmp	79	147	pic147.bmp	199	1	whitenoise_No3.bmp	306	0	0	0	0	0	0	0	0	0	0	0	0	0	0	0	0	0	0	0	0	0	0	0	0	0	0	0	0	0	0	0	0	0	0	0	0	0	0	0
120418	09:57:03	10:03:43	397089	5.0.10.0	4_exp_AMP_EVA_AWA_CON	996	Rpleas_acq	Same	Rpleas	Amasked	CS_A	1pleas	distractor1	AMP_distractor	AMP1_masked	6	10	0	0	300	300	0	0	37	46	0	0	0	0	0	1	blank2r.bmp	0	1	HWDL	0	1	blank2r.bmp	79	40	pic40.bmp	199	1	whitenoise_No3.bmp	306	0	0	0	0	0	0	0	0	0	0	0	0	0	0	0	0	0	0	0	0	0	0	0	0	0	0	0	0	0	0	0	0	0	0	0	0	0	0	0
120418	09:57:03	10:03:44	398062	5.0.10.0	4_exp_AMP_EVA_AWA_CON	996	Rpleas_acq	Same	Rpleas	Amasked	CS_A	1pleas	distractor1	AMP_CSpleas	AMP1_masked	6	11	0	0	300	300	0	0	44	46	0	0	0	0	0	1	blank2r.bmp	0	1	CPLW	0	1	blank2r.bmp	79	54	pic54.bmp	199	1	whitenoise_No3.bmp	306	0	0	0	0	0	0	0	0	0	0	0	0	0	0	0	0	0	0	0	0	0	0	0	0	0	0	0	0	0	0	0	0	0	0	0	0	0	0	0
120418	09:57:03	10:03:45	399009	5.0.10.0	4_exp_AMP_EVA_AWA_CON	996	Rpleas_acq	Same	Rpleas	Amasked	CS_A	1pleas	distractor1	AMP_distractor	AMP1_masked	6	12	0	0	300	300	0	0	36	46	0	0	0	0	0	1	blank2r.bmp	0	1	HWDL	0	1	blank2r.bmp	79	68	pic68.bmp	199	1	whitenoise_No3.bmp	306	0	0	0	0	0	0	0	0	0	0	0	0	0	0	0	0	0	0	0	0	0	0	0	0	0	0	0	0	0	0	0	0	0	0	0	0	0	0	0
120418	09:57:03	10:03:46	399981	5.0.10.0	4_exp_AMP_EVA_AWA_CON	996	Rpleas_acq	Same	Rpleas	Amasked	CS_A	1pleas	distractor1	AMP_distractor	AMP1_masked	6	13	0	0	300	300	0	0	44	50	0	0	0	0	0	1	blank2r.bmp	0	1	HWDL	0	1	blank2r.bmp	79	53	pic53.bmp	199	1	whitenoise_No3.bmp	306	0	0	0	0	0	0	0	0	0	0	0	0	0	0	0	0	0	0	0	0	0	0	0	0	0	0	0	0	0	0	0	0	0	0	0	0	0	0	0
120418	09:57:03	10:03:47	400941	5.0.10.0	4_exp_AMP_EVA_AWA_CON	996	Rpleas_acq	Same	Rpleas	Amasked	CS_A	1pleas	distractor1	AMP_CSpleas	AMP1_masked	6	14	0	0	300	300	0	0	51	50	0	1	0	0	0	1	blank2r.bmp	0	1	CPLW	0	1	blank2r.bmp	79	87	pic87.bmp	199	1	whitenoise_No3.bmp	306	0	0	0	0	0	0	0	0	0	0	0	0	0	0	0	0	0	0	0	0	0	0	0	0	0	0	0	0	0	0	0	0	0	0	0	0	0	0	0
120418	09:57:03	10:03:48	401901	5.0.10.0	4_exp_AMP_EVA_AWA_CON	996	Rpleas_acq	Same	Rpleas	Amasked	CS_A	1pleas	distractor1	AMP_CSpleas	AMP1_masked	6	15	0	0	300	300	0	0	30	46	0	0	0	0	0	1	blank2r.bmp	0	1	CPLW	0	1	blank2r.bmp	79	16	pic16.bmp	199	1	whitenoise_No3.bmp	306	0	0	0	0	0	0	0	0	0	0	0	0	0	0	0	0	0	0	0	0	0	0	0	0	0	0	0	0	0	0	0	0	0	0	0	0	0	0	0
120418	09:57:03	10:03:49	402847	5.0.10.0	4_exp_AMP_EVA_AWA_CON	996	Rpleas_acq	Same	Rpleas	Amasked	CS_A	1pleas	distractor1	AMP_CSunple	AMP1_masked	6	16	0	0	300	300	0	0	35	46	0	1	0	0	0	1	blank2r.bmp	0	1	DHJF	0	1	blank2r.bmp	79	105	pic105.bmp	199	1	whitenoise_No3.bmp	306	0	0	0	0	0	0	0	0	0	0	0	0	0	0	0	0	0	0	0	0	0	0	0	0	0	0	0	0	0	0	0	0	0	0	0	0	0	0	0
120418	09:57:03	10:03:50	403807	5.0.10.0	4_exp_AMP_EVA_AWA_CON	996	Rpleas_acq	Same	Rpleas	Amasked	CS_A	1pleas	distractor1	AMP_distractor	AMP1_masked	6	17	0	0	300	300	0	0	41	50	0	0	0	0	0	1	blank2r.bmp	0	1	HWDL	0	1	blank2r.bmp	79	92	pic92.bmp	199	1	whitenoise_No3.bmp	306	0	0	0	0	0	0	0	0	0	0	0	0	0	0	0	0	0	0	0	0	0	0	0	0	0	0	0	0	0	0	0	0	0	0	0	0	0	0	0
120418	09:57:03	10:03:51	404753	5.0.10.0	4_exp_AMP_EVA_AWA_CON	996	Rpleas_acq	Same	Rpleas	Amasked	CS_A	1pleas	distractor1	AMP_CSpleas	AMP1_masked	6	18	0	0	300	300	0	0	33	46	0	0	0	0	0	1	blank2r.bmp	0	1	CPLW	0	1	blank2r.bmp	79	91	pic91.bmp	199	1	whitenoise_No3.bmp	306	0	0	0	0	0	0	0	0	0	0	0	0	0	0	0	0	0	0	0	0	0	0	0	0	0	0	0	0	0	0	0	0	0	0	0	0	0	0	0
120418	09:57:03	10:03:52	405699	5.0.10.0	4_exp_AMP_EVA_AWA_CON	996	Rpleas_acq	Same	Rpleas	Amasked	CS_A	1pleas	distractor1	AMP_CSpleas	AMP1_masked	6	19	0	0	300	300	0	0	38	46	0	0	0	0	0	1	blank2r.bmp	0	1	CPLW	0	1	blank2r.bmp	79	66	pic66.bmp	199	1	whitenoise_No3.bmp	306	0	0	0	0	0	0	0	0	0	0	0	0	0	0	0	0	0	0	0	0	0	0	0	0	0	0	0	0	0	0	0	0	0	0	0	0	0	0	0
120418	09:57:03	10:03:53	406659	5.0.10.0	4_exp_AMP_EVA_AWA_CON	996	Rpleas_acq	Same	Rpleas	Amasked	CS_A	1pleas	distractor1	AMP_distractor	AMP1_masked	6	20	0	0	300	300	0	0	30	50	0	0	0	0	0	1	blank2r.bmp	0	1	HWDL	0	1	blank2r.bmp	79	3	pic3.bmp	199	1	whitenoise_No3.bmp	306	0	0	0	0	0	0	0	0	0	0	0	0	0	0	0	0	0	0	0	0	0	0	0	0	0	0	0	0	0	0	0	0	0	0	0	0	0	0	0
120418	09:57:03	10:03:54	407592	5.0.10.0	4_exp_AMP_EVA_AWA_CON	996	Rpleas_acq	Same	Rpleas	Amasked	CS_A	1pleas	distractor1	AMP_CSpleas	AMP1_masked	6	21	0	0	300	300	0	0	20	46	0	0	0	0	0	1	blank2r.bmp	0	1	CPLW	0	1	blank2r.bmp	79	70	pic70.bmp	199	1	whitenoise_No3.bmp	306	0	0	0	0	0	0	0	0	0	0	0	0	0	0	0	0	0	0	0	0	0	0	0	0	0	0	0	0	0	0	0	0	0	0	0	0	0	0	0
120418	09:57:03	10:03:55	408538	5.0.10.0	4_exp_AMP_EVA_AWA_CON	996	Rpleas_acq	Same	Rpleas	Amasked	CS_A	1pleas	distractor1	AMP_CSunple	AMP1_masked	6	22	0	0	300	300	0	0	38	50	0	0	0	0	0	1	blank2r.bmp	0	1	DHJF	0	1	blank2r.bmp	79	138	pic138.bmp	199	1	whitenoise_No3.bmp	306	0	0	0	0	0	0	0	0	0	0	0	0	0	0	0	0	0	0	0	0	0	0	0	0	0	0	0	0	0	0	0	0	0	0	0	0	0	0	0
120418	09:57:03	10:03:56	409511	5.0.10.0	4_exp_AMP_EVA_AWA_CON	996	Rpleas_acq	Same	Rpleas	Amasked	CS_A	1pleas	distractor1	AMP_distractor	AMP1_masked	6	23	0	0	300	300	0	0	46	50	0	0	0	0	0	1	blank2r.bmp	0	1	HWDL	0	1	blank2r.bmp	79	1	pic1.bmp	199	1	whitenoise_No3.bmp	306	0	0	0	0	0	0	0	0	0	0	0	0	0	0	0	0	0	0	0	0	0	0	0	0	0	0	0	0	0	0	0	0	0	0	0	0	0	0	0
120418	09:57:03	10:03:57	410444	5.0.10.0	4_exp_AMP_EVA_AWA_CON	996	Rpleas_acq	Same	Rpleas	Amasked	CS_A	1pleas	distractor1	AMP_CSunple	AMP1_masked	6	24	0	0	300	300	0	0	22	46	0	1	0	0	0	1	blank2r.bmp	0	1	DHJF	0	1	blank2r.bmp	79	72	pic72.bmp	199	1	whitenoise_No3.bmp	306	0	0	0	0	0	0	0	0	0	0	0	0	0	0	0	0	0	0	0	0	0	0	0	0	0	0	0	0	0	0	0	0	0	0	0	0	0	0	0
120418	09:57:03	10:03:57	411417	5.0.10.0	4_exp_AMP_EVA_AWA_CON	996	Rpleas_acq	Same	Rpleas	Amasked	CS_A	1pleas	distractor1	AMP_CSunple	AMP1_masked	6	25	0	0	300	300	0	0	43	46	0	1	0	0	0	1	blank2r.bmp	0	1	DHJF	0	1	blank2r.bmp	79	62	pic62.bmp	199	1	whitenoise_No3.bmp	306	0	0	0	0	0	0	0	0	0	0	0	0	0	0	0	0	0	0	0	0	0	0	0	0	0	0	0	0	0	0	0	0	0	0	0	0	0	0	0
120418	09:57:03	10:03:58	412376	5.0.10.0	4_exp_AMP_EVA_AWA_CON	996	Rpleas_acq	Same	Rpleas	Amasked	CS_A	1pleas	distractor1	AMP_distractor	AMP1_masked	6	26	0	0	300	300	0	0	51	50	0	0	0	0	0	1	blank2r.bmp	0	1	HWDL	0	1	blank2r.bmp	79	94	pic94.bmp	199	1	whitenoise_No3.bmp	306	0	0	0	0	0	0	0	0	0	0	0	0	0	0	0	0	0	0	0	0	0	0	0	0	0	0	0	0	0	0	0	0	0	0	0	0	0	0	0
120418	09:57:03	10:03:59	413363	5.0.10.0	4_exp_AMP_EVA_AWA_CON	996	Rpleas_acq	Same	Rpleas	Amasked	CS_A	1pleas	distractor1	AMP_CSpleas	AMP1_masked	6	27	0	0	300	300	0	0	61	46	0	0	0	0	0	1	blank2r.bmp	0	1	CPLW	0	1	blank2r.bmp	79	59	pic59.bmp	199	1	whitenoise_No3.bmp	306	0	0	0	0	0	0	0	0	0	0	0	0	0	0	0	0	0	0	0	0	0	0	0	0	0	0	0	0	0	0	0	0	0	0	0	0	0	0	0
120418	09:57:03	10:04:00	414322	5.0.10.0	4_exp_AMP_EVA_AWA_CON	996	Rpleas_acq	Same	Rpleas	Amasked	CS_A	1pleas	distractor1	AMP_CSunple	AMP1_masked	6	28	0	0	300	300	0	0	39	46	0	1	0	0	0	1	blank2r.bmp	0	1	DHJF	0	1	blank2r.bmp	79	125	pic125.bmp	199	1	whitenoise_No3.bmp	306	0	0	0	0	0	0	0	0	0	0	0	0	0	0	0	0	0	0	0	0	0	0	0	0	0	0	0	0	0	0	0	0	0	0	0	0	0	0	0
120418	09:57:03	10:04:01	415268	5.0.10.0	4_exp_AMP_EVA_AWA_CON	996	Rpleas_acq	Same	Rpleas	Amasked	CS_A	1pleas	distractor1	AMP_CSpleas	AMP1_masked	6	29	0	0	300	300	0	0	31	46	0	0	0	0	0	1	blank2r.bmp	0	1	CPLW	0	1	blank2r.bmp	79	106	pic106.bmp	199	1	whitenoise_No3.bmp	306	0	0	0	0	0	0	0	0	0	0	0	0	0	0	0	0	0	0	0	0	0	0	0	0	0	0	0	0	0	0	0	0	0	0	0	0	0	0	0
120418	09:57:03	10:04:02	416241	5.0.10.0	4_exp_AMP_EVA_AWA_CON	996	Rpleas_acq	Same	Rpleas	Amasked	CS_A	1pleas	distractor1	AMP_CSunple	AMP1_masked	6	30	0	0	300	300	0	0	52	50	0	0	0	0	0	1	blank2r.bmp	0	1	DHJF	0	1	blank2r.bmp	79	11	pic11.bmp	199	1	whitenoise_No3.bmp	306	0	0	0	0	0	0	0	0	0	0	0	0	0	0	0	0	0	0	0	0	0	0	0	0	0	0	0	0	0	0	0	0	0	0	0	0	0	0	0
120418	09:57:03	10:04:03	417201	5.0.10.0	4_exp_AMP_EVA_AWA_CON	996	Rpleas_acq	Same	Rpleas	Amasked	CS_A	1pleas	distractor1	AMP_CSunple	AMP1_masked	6	31	0	0	300	300	0	0	46	46	0	1	0	0	0	1	blank2r.bmp	0	1	DHJF	0	1	blank2r.bmp	79	55	pic55.bmp	199	1	whitenoise_No3.bmp	306	0	0	0	0	0	0	0	0	0	0	0	0	0	0	0	0	0	0	0	0	0	0	0	0	0	0	0	0	0	0	0	0	0	0	0	0	0	0	0
120418	09:57:03	10:04:04	418147	5.0.10.0	4_exp_AMP_EVA_AWA_CON	996	Rpleas_acq	Same	Rpleas	Amasked	CS_A	1pleas	distractor1	AMP_distractor	AMP1_masked	6	32	0	0	300	300	0	0	38	46	0	0	0	0	0	1	blank2r.bmp	0	1	HWDL	0	1	blank2r.bmp	79	47	pic47.bmp	199	1	whitenoise_No3.bmp	306	0	0	0	0	0	0	0	0	0	0	0	0	0	0	0	0	0	0	0	0	0	0	0	0	0	0	0	0	0	0	0	0	0	0	0	0	0	0	0
120418	09:57:03	10:04:05	419120	5.0.10.0	4_exp_AMP_EVA_AWA_CON	996	Rpleas_acq	Same	Rpleas	Amasked	CS_A	1pleas	distractor1	AMP_distractor	AMP1_masked	6	33	0	0	300	300	0	0	46	46	0	0	0	0	0	1	blank2r.bmp	0	1	HWDL	0	1	blank2r.bmp	79	71	pic71.bmp	199	1	whitenoise_No3.bmp	306	0	0	0	0	0	0	0	0	0	0	0	0	0	0	0	0	0	0	0	0	0	0	0	0	0	0	0	0	0	0	0	0	0	0	0	0	0	0	0
120418	09:57:03	10:04:06	420067	5.0.10.0	4_exp_AMP_EVA_AWA_CON	996	Rpleas_acq	Same	Rpleas	Amasked	CS_A	1pleas	distractor1	AMP_CSpleas	AMP1_masked	6	34	0	0	300	300	0	0	38	50	0	1	0	0	0	1	blank2r.bmp	0	1	CPLW	0	1	blank2r.bmp	79	13	pic13.bmp	199	1	whitenoise_No3.bmp	306	0	0	0	0	0	0	0	0	0	0	0	0	0	0	0	0	0	0	0	0	0	0	0	0	0	0	0	0	0	0	0	0	0	0	0	0	0	0	0
120418	09:57:03	10:04:07	421039	5.0.10.0	4_exp_AMP_EVA_AWA_CON	996	Rpleas_acq	Same	Rpleas	Amasked	CS_A	1pleas	distractor1	AMP_CSpleas	AMP1_masked	6	35	0	0	300	300	0	0	46	50	0	1	0	0	0	1	blank2r.bmp	0	1	CPLW	0	1	blank2r.bmp	79	103	pic103.bmp	199	1	whitenoise_No3.bmp	306	0	0	0	0	0	0	0	0	0	0	0	0	0	0	0	0	0	0	0	0	0	0	0	0	0	0	0	0	0	0	0	0	0	0	0	0	0	0	0
120418	09:57:03	10:04:08	421986	5.0.10.0	4_exp_AMP_EVA_AWA_CON	996	Rpleas_acq	Same	Rpleas	Amasked	CS_A	1pleas	distractor1	AMP_distractor	AMP1_masked	6	36	0	0	300	300	0	0	38	46	0	0	0	0	0	1	blank2r.bmp	0	1	HWDL	0	1	blank2r.bmp	79	119	pic119.bmp	199	1	whitenoise_No3.bmp	306	0	0	0	0	0	0	0	0	0	0	0	0	0	0	0	0	0	0	0	0	0	0	0	0	0	0	0	0	0	0	0	0	0	0	0	0	0	0	0
120418	09:57:03	10:04:09	422945	5.0.10.0	4_exp_AMP_EVA_AWA_CON	996	Rpleas_acq	Same	Rpleas	Amasked	CS_A	1pleas	distractor1	AMP_distractor	AMP1_masked	6	37	0	0	300	300	0	0	29	46	0	0	0	0	0	1	blank2r.bmp	0	1	HWDL	0	1	blank2r.bmp	79	61	pic61.bmp	199	1	whitenoise_No3.bmp	306	0	0	0	0	0	0	0	0	0	0	0	0	0	0	0	0	0	0	0	0	0	0	0	0	0	0	0	0	0	0	0	0	0	0	0	0	0	0	0
120418	09:57:03	10:04:10	423892	5.0.10.0	4_exp_AMP_EVA_AWA_CON	996	Rpleas_acq	Same	Rpleas	Amasked	CS_A	1pleas	distractor1	AMP_CSunple	AMP1_masked	6	38	0	0	300	300	0	0	35	46	0	1	0	0	0	1	blank2r.bmp	0	1	DHJF	0	1	blank2r.bmp	79	32	pic32.bmp	199	1	whitenoise_No3.bmp	306	0	0	0	0	0	0	0	0	0	0	0	0	0	0	0	0	0	0	0	0	0	0	0	0	0	0	0	0	0	0	0	0	0	0	0	0	0	0	0
120418	09:57:03	10:04:11	424851	5.0.10.0	4_exp_AMP_EVA_AWA_CON	996	Rpleas_acq	Same	Rpleas	Amasked	CS_A	1pleas	distractor1	AMP_CSunple	AMP1_masked	6	39	0	0	300	300	0	0	40	50	0	0	0	0	0	1	blank2r.bmp	0	1	DHJF	0	1	blank2r.bmp	79	83	pic83.bmp	199	1	whitenoise_No3.bmp	306	0	0	0	0	0	0	0	0	0	0	0	0	0	0	0	0	0	0	0	0	0	0	0	0	0	0	0	0	0	0	0	0	0	0	0	0	0	0	0
120418	09:57:03	10:04:12	425797	5.0.10.0	4_exp_AMP_EVA_AWA_CON	996	Rpleas_acq	Same	Rpleas	Amasked	CS_A	1pleas	distractor1	AMP_CSunple	AMP1_masked	6	40	0	0	300	300	0	0	32	46	0	1	0	0	0	1	blank2r.bmp	0	1	DHJF	0	1	blank2r.bmp	79	20	pic20.bmp	199	1	whitenoise_No3.bmp	306	0	0	0	0	0	0	0	0	0	0	0	0	0	0	0	0	0	0	0	0	0	0	0	0	0	0	0	0	0	0	0	0	0	0	0	0	0	0	0
120418	09:57:03	10:04:13	426744	5.0.10.0	4_exp_AMP_EVA_AWA_CON	996	Rpleas_acq	Same	Rpleas	Amasked	CS_A	1pleas	distractor1	AMP_CSunple	AMP1_masked	6	41	0	0	300	300	0	0	37	50	0	0	0	0	0	1	blank2r.bmp	0	1	DHJF	0	1	blank2r.bmp	79	122	pic122.bmp	199	1	whitenoise_No3.bmp	306	0	0	0	0	0	0	0	0	0	0	0	0	0	0	0	0	0	0	0	0	0	0	0	0	0	0	0	0	0	0	0	0	0	0	0	0	0	0	0
120418	09:57:03	10:04:14	427717	5.0.10.0	4_exp_AMP_EVA_AWA_CON	996	Rpleas_acq	Same	Rpleas	Amasked	CS_A	1pleas	distractor1	AMP_CSunple	AMP1_masked	6	42	0	0	300	300	0	0	45	50	0	0	0	0	0	1	blank2r.bmp	0	1	DHJF	0	1	blank2r.bmp	79	29	pic29.bmp	199	1	whitenoise_No3.bmp	306	0	0	0	0	0	0	0	0	0	0	0	0	0	0	0	0	0	0	0	0	0	0	0	0	0	0	0	0	0	0	0	0	0	0	0	0	0	0	0
120418	09:57:03	10:04:15	428663	5.0.10.0	4_exp_AMP_EVA_AWA_CON	996	Rpleas_acq	Same	Rpleas	Amasked	CS_A	1pleas	distractor1	AMP_CSunple	AMP1_masked	6	43	0	0	300	300	0	0	37	46	0	1	0	0	0	1	blank2r.bmp	0	1	DHJF	0	1	blank2r.bmp	79	80	pic80.bmp	199	1	whitenoise_No3.bmp	306	0	0	0	0	0	0	0	0	0	0	0	0	0	0	0	0	0	0	0	0	0	0	0	0	0	0	0	0	0	0	0	0	0	0	0	0	0	0	0
120418	09:57:03	10:04:16	429649	5.0.10.0	4_exp_AMP_EVA_AWA_CON	996	Rpleas_acq	Same	Rpleas	Amasked	CS_A	1pleas	distractor1	AMP_CSunple	AMP1_masked	6	44	0	0	300	300	0	0	60	50	0	0	0	0	0	1	blank2r.bmp	0	1	DHJF	0	1	blank2r.bmp	79	133	pic133.bmp	199	1	whitenoise_No3.bmp	306	0	0	0	0	0	0	0	0	0	0	0	0	0	0	0	0	0	0	0	0	0	0	0	0	0	0	0	0	0	0	0	0	0	0	0	0	0	0	0
120418	09:57:03	10:04:17	430622	5.0.10.0	4_exp_AMP_EVA_AWA_CON	996	Rpleas_acq	Same	Rpleas	Amasked	CS_A	1pleas	distractor1	AMP_CSpleas	AMP1_masked	6	45	0	0	300	300	0	0	54	46	0	0	0	0	0	1	blank2r.bmp	0	1	CPLW	0	1	blank2r.bmp	79	127	pic127.bmp	199	1	whitenoise_No3.bmp	306	0	0	0	0	0	0	0	0	0	0	0	0	0	0	0	0	0	0	0	0	0	0	0	0	0	0	0	0	0	0	0	0	0	0	0	0	0	0	0
120418	09:57:03	10:04:18	431582	5.0.10.0	4_exp_AMP_EVA_AWA_CON	996	Rpleas_acq	Same	Rpleas	Amasked	CS_A	1pleas	distractor1	AMP_CSunple	AMP1_masked	6	46	0	0	300	300	0	0	49	50	0	0	0	0	0	1	blank2r.bmp	0	1	DHJF	0	1	blank2r.bmp	79	9	pic9.bmp	199	1	whitenoise_No3.bmp	306	0	0	0	0	0	0	0	0	0	0	0	0	0	0	0	0	0	0	0	0	0	0	0	0	0	0	0	0	0	0	0	0	0	0	0	0	0	0	0
120418	09:57:03	10:04:19	432568	5.0.10.0	4_exp_AMP_EVA_AWA_CON	996	Rpleas_acq	Same	Rpleas	Amasked	CS_A	1pleas	distractor1	AMP_CSpleas	AMP1_masked	6	47	0	0	300	300	0	0	59	50	0	1	0	0	0	1	blank2r.bmp	0	1	CPLW	0	1	blank2r.bmp	79	75	pic75.bmp	199	1	whitenoise_No3.bmp	306	0	0	0	0	0	0	0	0	0	0	0	0	0	0	0	0	0	0	0	0	0	0	0	0	0	0	0	0	0	0	0	0	0	0	0	0	0	0	0
120418	09:57:03	10:04:20	433514	5.0.10.0	4_exp_AMP_EVA_AWA_CON	996	Rpleas_acq	Same	Rpleas	Amasked	CS_A	1pleas	distractor1	AMP_CSunple	AMP1_masked	6	48	0	0	300	300	0	0	37	50	0	0	0	0	0	1	blank2r.bmp	0	1	DHJF	0	1	blank2r.bmp	79	36	pic36.bmp	199	1	whitenoise_No3.bmp	306	0	0	0	0	0	0	0	0	0	0	0	0	0	0	0	0	0	0	0	0	0	0	0	0	0	0	0	0	0	0	0	0	0	0	0	0	0	0	0
120418	09:57:03	10:04:21	434487	5.0.10.0	4_exp_AMP_EVA_AWA_CON	996	Rpleas_acq	Same	Rpleas	Amasked	CS_A	1pleas	distractor1	AMP_distractor	AMP1_masked	6	49	0	0	300	300	0	0	45	46	0	0	0	0	0	1	blank2r.bmp	0	1	HWDL	0	1	blank2r.bmp	79	27	pic27.bmp	199	1	whitenoise_No3.bmp	306	0	0	0	0	0	0	0	0	0	0	0	0	0	0	0	0	0	0	0	0	0	0	0	0	0	0	0	0	0	0	0	0	0	0	0	0	0	0	0
120418	09:57:03	10:04:22	435434	5.0.10.0	4_exp_AMP_EVA_AWA_CON	996	Rpleas_acq	Same	Rpleas	Amasked	CS_A	1pleas	distractor1	AMP_CSpleas	AMP1_masked	6	50	0	0	300	300	0	0	37	50	0	1	0	0	0	1	blank2r.bmp	0	1	CPLW	0	1	blank2r.bmp	79	34	pic34.bmp	199	1	whitenoise_No3.bmp	306	0	0	0	0	0	0	0	0	0	0	0	0	0	0	0	0	0	0	0	0	0	0	0	0	0	0	0	0	0	0	0	0	0	0	0	0	0	0	0
120418	09:57:03	10:04:23	437366	5.0.10.0	4_exp_AMP_EVA_AWA_CON	996	Rpleas_acq	Same	Rpleas	Amasked	CS_A	1pleas	distractor1	AMP_CSunple	AMP23	7	1	0	0	300	300	0	0	39	50	0	0	0	0	0	1	blank2r.bmp	0	1	DHJF	0	1	blank2r.bmp	79	65	pic65.bmp	199	1	whitenoise_No3.bmp	306	0	0	0	0	0	0	0	0	0	0	0	0	0	0	0	0	0	0	0	0	0	0	0	0	0	0	0	0	0	0	0	0	0	0	0	0	0	0	0
120418	09:57:03	10:04:24	438326	5.0.10.0	4_exp_AMP_EVA_AWA_CON	996	Rpleas_acq	Same	Rpleas	Amasked	CS_A	1pleas	distractor1	AMP_CSpleas	AMP23	7	2	0	0	300	300	0	0	31	50	0	1	0	0	0	1	blank2r.bmp	0	1	CPLW	0	1	blank2r.bmp	79	26	pic26.bmp	199	1	whitenoise_No3.bmp	306	0	0	0	0	0	0	0	0	0	0	0	0	0	0	0	0	0	0	0	0	0	0	0	0	0	0	0	0	0	0	0	0	0	0	0	0	0	0	0
120418	09:57:03	10:04:25	439272	5.0.10.0	4_exp_AMP_EVA_AWA_CON	996	Rpleas_acq	Same	Rpleas	Amasked	CS_A	1pleas	distractor1	AMP_CSpleas	AMP23	7	3	0	0	300	300	0	0	36	50	0	1	0	0	0	1	blank2r.bmp	0	1	CPLW	0	1	blank2r.bmp	79	136	pic136.bmp	199	1	whitenoise_No3.bmp	306	0	0	0	0	0	0	0	0	0	0	0	0	0	0	0	0	0	0	0	0	0	0	0	0	0	0	0	0	0	0	0	0	0	0	0	0	0	0	0
120418	09:57:03	10:04:26	440245	5.0.10.0	4_exp_AMP_EVA_AWA_CON	996	Rpleas_acq	Same	Rpleas	Amasked	CS_A	1pleas	distractor1	AMP_distractor	AMP23	7	4	0	0	300	300	0	0	44	50	0	0	0	0	0	1	blank2r.bmp	0	1	HWDL	0	1	blank2r.bmp	79	141	pic141.bmp	199	1	whitenoise_No3.bmp	306	0	0	0	0	0	0	0	0	0	0	0	0	0	0	0	0	0	0	0	0	0	0	0	0	0	0	0	0	0	0	0	0	0	0	0	0	0	0	0
120418	09:57:03	10:04:27	441191	5.0.10.0	4_exp_AMP_EVA_AWA_CON	996	Rpleas_acq	Same	Rpleas	Amasked	CS_A	1pleas	distractor1	AMP_distractor	AMP23	7	5	0	0	300	300	0	0	36	50	0	0	0	0	0	1	blank2r.bmp	0	1	HWDL	0	1	blank2r.bmp	79	69	pic69.bmp	199	1	whitenoise_No3.bmp	306	0	0	0	0	0	0	0	0	0	0	0	0	0	0	0	0	0	0	0	0	0	0	0	0	0	0	0	0	0	0	0	0	0	0	0	0	0	0	0
120418	09:57:03	10:04:28	442177	5.0.10.0	4_exp_AMP_EVA_AWA_CON	996	Rpleas_acq	Same	Rpleas	Amasked	CS_A	1pleas	distractor1	AMP_CSpleas	AMP23	7	6	0	0	300	300	0	0	59	46	0	0	0	0	0	1	blank2r.bmp	0	1	CPLW	0	1	blank2r.bmp	79	98	pic98.bmp	199	1	whitenoise_No3.bmp	306	0	0	0	0	0	0	0	0	0	0	0	0	0	0	0	0	0	0	0	0	0	0	0	0	0	0	0	0	0	0	0	0	0	0	0	0	0	0	0
120418	09:57:03	10:04:29	443150	5.0.10.0	4_exp_AMP_EVA_AWA_CON	996	Rpleas_acq	Same	Rpleas	Amasked	CS_A	1pleas	distractor1	AMP_CSpleas	AMP23	7	7	0	0	300	300	0	0	53	46	0	0	0	0	0	1	blank2r.bmp	0	1	CPLW	0	1	blank2r.bmp	79	95	pic95.bmp	199	1	whitenoise_No3.bmp	306	0	0	0	0	0	0	0	0	0	0	0	0	0	0	0	0	0	0	0	0	0	0	0	0	0	0	0	0	0	0	0	0	0	0	0	0	0	0	0
120418	09:57:03	10:04:30	444110	5.0.10.0	4_exp_AMP_EVA_AWA_CON	996	Rpleas_acq	Same	Rpleas	Amasked	CS_A	1pleas	distractor1	AMP_distractor	AMP23	7	8	0	0	300	300	0	0	47	46	0	0	0	0	0	1	blank2r.bmp	0	1	HWDL	0	1	blank2r.bmp	79	12	pic12.bmp	199	1	whitenoise_No3.bmp	306	0	0	0	0	0	0	0	0	0	0	0	0	0	0	0	0	0	0	0	0	0	0	0	0	0	0	0	0	0	0	0	0	0	0	0	0	0	0	0
120418	09:57:03	10:04:31	445070	5.0.10.0	4_exp_AMP_EVA_AWA_CON	996	Rpleas_acq	Same	Rpleas	Amasked	CS_A	1pleas	distractor1	AMP_distractor	AMP23	7	9	0	0	300	300	0	0	39	46	0	0	0	0	0	1	blank2r.bmp	0	1	HWDL	0	1	blank2r.bmp	79	143	pic143.bmp	199	1	whitenoise_No3.bmp	306	0	0	0	0	0	0	0	0	0	0	0	0	0	0	0	0	0	0	0	0	0	0	0	0	0	0	0	0	0	0	0	0	0	0	0	0	0	0	0
120418	09:57:03	10:04:32	446029	5.0.10.0	4_exp_AMP_EVA_AWA_CON	996	Rpleas_acq	Same	Rpleas	Amasked	CS_A	1pleas	distractor1	AMP_CSpleas	AMP23	7	10	0	0	300	300	0	0	47	50	0	1	0	0	0	1	blank2r.bmp	0	1	CPLW	0	1	blank2r.bmp	79	56	pic56.bmp	199	1	whitenoise_No3.bmp	306	0	0	0	0	0	0	0	0	0	0	0	0	0	0	0	0	0	0	0	0	0	0	0	0	0	0	0	0	0	0	0	0	0	0	0	0	0	0	0
120418	09:57:03	10:04:33	446989	5.0.10.0	4_exp_AMP_EVA_AWA_CON	996	Rpleas_acq	Same	Rpleas	Amasked	CS_A	1pleas	distractor1	AMP_distractor	AMP23	7	11	0	0	300	300	0	0	39	50	0	0	0	0	0	1	blank2r.bmp	0	1	HWDL	0	1	blank2r.bmp	79	150	pic150.bmp	199	1	whitenoise_No3.bmp	306	0	0	0	0	0	0	0	0	0	0	0	0	0	0	0	0	0	0	0	0	0	0	0	0	0	0	0	0	0	0	0	0	0	0	0	0	0	0	0
120418	09:57:03	10:04:34	447935	5.0.10.0	4_exp_AMP_EVA_AWA_CON	996	Rpleas_acq	Same	Rpleas	Amasked	CS_A	1pleas	distractor1	AMP_CSunple	AMP23	7	12	0	0	300	300	0	0	31	50	0	0	0	0	0	1	blank2r.bmp	0	1	DHJF	0	1	blank2r.bmp	79	78	pic78.bmp	199	1	whitenoise_No3.bmp	306	0	0	0	0	0	0	0	0	0	0	0	0	0	0	0	0	0	0	0	0	0	0	0	0	0	0	0	0	0	0	0	0	0	0	0	0	0	0	0
120418	09:57:03	10:04:35	448868	5.0.10.0	4_exp_AMP_EVA_AWA_CON	996	Rpleas_acq	Same	Rpleas	Amasked	CS_A	1pleas	distractor1	AMP_distractor	AMP23	7	13	0	0	300	300	0	0	21	46	0	0	0	0	0	1	blank2r.bmp	0	1	HWDL	0	1	blank2r.bmp	79	89	pic89.bmp	199	1	whitenoise_No3.bmp	306	0	0	0	0	0	0	0	0	0	0	0	0	0	0	0	0	0	0	0	0	0	0	0	0	0	0	0	0	0	0	0	0	0	0	0	0	0	0	0
120418	09:57:03	10:04:36	449828	5.0.10.0	4_exp_AMP_EVA_AWA_CON	996	Rpleas_acq	Same	Rpleas	Amasked	CS_A	1pleas	distractor1	AMP_CSunple	AMP23	7	14	0	0	300	300	0	0	39	50	0	0	0	0	0	1	blank2r.bmp	0	1	DHJF	0	1	blank2r.bmp	79	85	pic85.bmp	199	1	whitenoise_No3.bmp	306	0	0	0	0	0	0	0	0	0	0	0	0	0	0	0	0	0	0	0	0	0	0	0	0	0	0	0	0	0	0	0	0	0	0	0	0	0	0	0
120418	09:57:03	10:04:37	450774	5.0.10.0	4_exp_AMP_EVA_AWA_CON	996	Rpleas_acq	Same	Rpleas	Amasked	CS_A	1pleas	distractor1	AMP_CSunple	AMP23	7	15	0	0	300	300	0	0	31	46	0	1	0	0	0	1	blank2r.bmp	0	1	DHJF	0	1	blank2r.bmp	79	67	pic67.bmp	199	1	whitenoise_No3.bmp	306	0	0	0	0	0	0	0	0	0	0	0	0	0	0	0	0	0	0	0	0	0	0	0	0	0	0	0	0	0	0	0	0	0	0	0	0	0	0	0
120418	09:57:03	10:04:38	451707	5.0.10.0	4_exp_AMP_EVA_AWA_CON	996	Rpleas_acq	Same	Rpleas	Amasked	CS_A	1pleas	distractor1	AMP_CSunple	AMP23	7	16	0	0	300	300	0	0	21	46	0	1	0	0	0	1	blank2r.bmp	0	1	DHJF	0	1	blank2r.bmp	79	102	pic102.bmp	199	1	whitenoise_No3.bmp	306	0	0	0	0	0	0	0	0	0	0	0	0	0	0	0	0	0	0	0	0	0	0	0	0	0	0	0	0	0	0	0	0	0	0	0	0	0	0	0
120418	09:57:03	10:04:39	452640	5.0.10.0	4_exp_AMP_EVA_AWA_CON	996	Rpleas_acq	Same	Rpleas	Amasked	CS_A	1pleas	distractor1	AMP_CSpleas	AMP23	7	17	0	0	300	300	0	0	24	50	0	1	0	0	0	1	blank2r.bmp	0	1	CPLW	0	1	blank2r.bmp	79	135	pic135.bmp	199	1	whitenoise_No3.bmp	306	0	0	0	0	0	0	0	0	0	0	0	0	0	0	0	0	0	0	0	0	0	0	0	0	0	0	0	0	0	0	0	0	0	0	0	0	0	0	0
120418	09:57:03	10:04:40	453613	5.0.10.0	4_exp_AMP_EVA_AWA_CON	996	Rpleas_acq	Same	Rpleas	Amasked	CS_A	1pleas	distractor1	AMP_CSunple	AMP23	7	18	0	0	300	300	0	0	45	46	0	1	0	0	0	1	blank2r.bmp	0	1	DHJF	0	1	blank2r.bmp	79	57	pic57.bmp	199	1	whitenoise_No3.bmp	306	0	0	0	0	0	0	0	0	0	0	0	0	0	0	0	0	0	0	0	0	0	0	0	0	0	0	0	0	0	0	0	0	0	0	0	0	0	0	0
120418	09:57:03	10:04:41	454559	5.0.10.0	4_exp_AMP_EVA_AWA_CON	996	Rpleas_acq	Same	Rpleas	Amasked	CS_A	1pleas	distractor1	AMP_CSunple	AMP23	7	19	0	0	300	300	0	0	37	46	0	1	0	0	0	1	blank2r.bmp	0	1	DHJF	0	1	blank2r.bmp	79	146	pic146.bmp	199	1	whitenoise_No3.bmp	306	0	0	0	0	0	0	0	0	0	0	0	0	0	0	0	0	0	0	0	0	0	0	0	0	0	0	0	0	0	0	0	0	0	0	0	0	0	0	0
120418	09:57:03	10:04:42	455532	5.0.10.0	4_exp_AMP_EVA_AWA_CON	996	Rpleas_acq	Same	Rpleas	Amasked	CS_A	1pleas	distractor1	AMP_CSpleas	AMP23	7	20	0	0	300	300	0	0	44	50	0	1	0	0	0	1	blank2r.bmp	0	1	CPLW	0	1	blank2r.bmp	79	97	pic97.bmp	199	1	whitenoise_No3.bmp	306	0	0	0	0	0	0	0	0	0	0	0	0	0	0	0	0	0	0	0	0	0	0	0	0	0	0	0	0	0	0	0	0	0	0	0	0	0	0	0
120418	09:57:03	10:04:43	456478	5.0.10.0	4_exp_AMP_EVA_AWA_CON	996	Rpleas_acq	Same	Rpleas	Amasked	CS_A	1pleas	distractor1	AMP_CSpleas	AMP23	7	21	0	0	300	300	0	0	36	50	0	1	0	0	0	1	blank2r.bmp	0	1	CPLW	0	1	blank2r.bmp	79	118	pic118.bmp	199	1	whitenoise_No3.bmp	306	0	0	0	0	0	0	0	0	0	0	0	0	0	0	0	0	0	0	0	0	0	0	0	0	0	0	0	0	0	0	0	0	0	0	0	0	0	0	0
120418	09:57:03	10:04:44	457451	5.0.10.0	4_exp_AMP_EVA_AWA_CON	996	Rpleas_acq	Same	Rpleas	Amasked	CS_A	1pleas	distractor1	AMP_CSpleas	AMP23	7	22	0	0	300	300	0	0	44	50	0	1	0	0	0	1	blank2r.bmp	0	1	CPLW	0	1	blank2r.bmp	79	15	pic15.bmp	199	1	whitenoise_No3.bmp	306	0	0	0	0	0	0	0	0	0	0	0	0	0	0	0	0	0	0	0	0	0	0	0	0	0	0	0	0	0	0	0	0	0	0	0	0	0	0	0
120418	09:57:03	10:04:44	458411	5.0.10.0	4_exp_AMP_EVA_AWA_CON	996	Rpleas_acq	Same	Rpleas	Amasked	CS_A	1pleas	distractor1	AMP_CSpleas	AMP23	7	23	0	0	300	300	0	0	52	46	0	0	0	0	0	1	blank2r.bmp	0	1	CPLW	0	1	blank2r.bmp	79	121	pic121.bmp	199	1	whitenoise_No3.bmp	306	0	0	0	0	0	0	0	0	0	0	0	0	0	0	0	0	0	0	0	0	0	0	0	0	0	0	0	0	0	0	0	0	0	0	0	0	0	0	0
120418	09:57:03	10:04:45	459384	5.0.10.0	4_exp_AMP_EVA_AWA_CON	996	Rpleas_acq	Same	Rpleas	Amasked	CS_A	1pleas	distractor1	AMP_distractor	AMP23	7	24	0	0	300	300	0	0	46	50	0	0	0	0	0	1	blank2r.bmp	0	1	HWDL	0	1	blank2r.bmp	79	99	pic99.bmp	199	1	whitenoise_No3.bmp	306	0	0	0	0	0	0	0	0	0	0	0	0	0	0	0	0	0	0	0	0	0	0	0	0	0	0	0	0	0	0	0	0	0	0	0	0	0	0	0
120418	09:57:03	10:04:46	460317	5.0.10.0	4_exp_AMP_EVA_AWA_CON	996	Rpleas_acq	Same	Rpleas	Amasked	CS_A	1pleas	distractor1	AMP_CSunple	AMP23	7	25	0	0	300	300	0	0	22	50	0	0	0	0	0	1	blank2r.bmp	0	1	DHJF	0	1	blank2r.bmp	79	30	pic30.bmp	199	1	whitenoise_No3.bmp	306	0	0	0	0	0	0	0	0	0	0	0	0	0	0	0	0	0	0	0	0	0	0	0	0	0	0	0	0	0	0	0	0	0	0	0	0	0	0	0
120418	09:57:03	10:04:47	461290	5.0.10.0	4_exp_AMP_EVA_AWA_CON	996	Rpleas_acq	Same	Rpleas	Amasked	CS_A	1pleas	distractor1	AMP_CSunple	AMP23	7	26	0	0	300	300	0	0	44	46	0	1	0	0	0	1	blank2r.bmp	0	1	DHJF	0	1	blank2r.bmp	79	76	pic76.bmp	199	1	whitenoise_No3.bmp	306	0	0	0	0	0	0	0	0	0	0	0	0	0	0	0	0	0	0	0	0	0	0	0	0	0	0	0	0	0	0	0	0	0	0	0	0	0	0	0
120418	09:57:03	10:04:48	462276	5.0.10.0	4_exp_AMP_EVA_AWA_CON	996	Rpleas_acq	Same	Rpleas	Amasked	CS_A	1pleas	distractor1	AMP_distractor	AMP23	7	27	0	0	300	300	0	0	66	46	0	0	0	0	0	1	blank2r.bmp	0	1	HWDL	0	1	blank2r.bmp	79	44	pic44.bmp	199	1	whitenoise_No3.bmp	306	0	0	0	0	0	0	0	0	0	0	0	0	0	0	0	0	0	0	0	0	0	0	0	0	0	0	0	0	0	0	0	0	0	0	0	0	0	0	0
120418	09:57:03	10:04:49	463222	5.0.10.0	4_exp_AMP_EVA_AWA_CON	996	Rpleas_acq	Same	Rpleas	Amasked	CS_A	1pleas	distractor1	AMP_distractor	AMP23	7	28	0	0	300	300	0	0	32	50	0	0	0	0	0	1	blank2r.bmp	0	1	HWDL	0	1	blank2r.bmp	79	144	pic144.bmp	199	1	whitenoise_No3.bmp	306	0	0	0	0	0	0	0	0	0	0	0	0	0	0	0	0	0	0	0	0	0	0	0	0	0	0	0	0	0	0	0	0	0	0	0	0	0	0	0
120418	09:57:03	10:04:50	464168	5.0.10.0	4_exp_AMP_EVA_AWA_CON	996	Rpleas_acq	Same	Rpleas	Amasked	CS_A	1pleas	distractor1	AMP_CSpleas	AMP23	7	29	0	0	300	300	0	0	37	46	0	0	0	0	0	1	blank2r.bmp	0	1	CPLW	0	1	blank2r.bmp	79	131	pic131.bmp	199	1	whitenoise_No3.bmp	306	0	0	0	0	0	0	0	0	0	0	0	0	0	0	0	0	0	0	0	0	0	0	0	0	0	0	0	0	0	0	0	0	0	0	0	0	0	0	0
120418	09:57:03	10:04:51	465141	5.0.10.0	4_exp_AMP_EVA_AWA_CON	996	Rpleas_acq	Same	Rpleas	Amasked	CS_A	1pleas	distractor1	AMP_CSunple	AMP23	7	30	0	0	300	300	0	0	45	46	0	1	0	0	0	1	blank2r.bmp	0	1	DHJF	0	1	blank2r.bmp	79	93	pic93.bmp	199	1	whitenoise_No3.bmp	306	0	0	0	0	0	0	0	0	0	0	0	0	0	0	0	0	0	0	0	0	0	0	0	0	0	0	0	0	0	0	0	0	0	0	0	0	0	0	0
120418	09:57:03	10:04:52	466088	5.0.10.0	4_exp_AMP_EVA_AWA_CON	996	Rpleas_acq	Same	Rpleas	Amasked	CS_A	1pleas	distractor1	AMP_CSunple	AMP23	7	31	0	0	300	300	0	0	37	50	0	0	0	0	0	1	blank2r.bmp	0	1	DHJF	0	1	blank2r.bmp	79	48	pic48.bmp	199	1	whitenoise_No3.bmp	306	0	0	0	0	0	0	0	0	0	0	0	0	0	0	0	0	0	0	0	0	0	0	0	0	0	0	0	0	0	0	0	0	0	0	0	0	0	0	0
120418	09:57:03	10:04:53	467074	5.0.10.0	4_exp_AMP_EVA_AWA_CON	996	Rpleas_acq	Same	Rpleas	Amasked	CS_A	1pleas	distractor1	AMP_CSpleas	AMP23	7	32	0	0	300	300	0	0	60	46	0	0	0	0	0	1	blank2r.bmp	0	1	CPLW	0	1	blank2r.bmp	79	28	pic28.bmp	199	1	whitenoise_No3.bmp	306	0	0	0	0	0	0	0	0	0	0	0	0	0	0	0	0	0	0	0	0	0	0	0	0	0	0	0	0	0	0	0	0	0	0	0	0	0	0	0
120418	09:57:03	10:04:54	468047	5.0.10.0	4_exp_AMP_EVA_AWA_CON	996	Rpleas_acq	Same	Rpleas	Amasked	CS_A	1pleas	distractor1	AMP_CSunple	AMP23	7	33	0	0	300	300	0	0	54	50	0	0	0	0	0	1	blank2r.bmp	0	1	DHJF	0	1	blank2r.bmp	79	139	pic139.bmp	199	1	whitenoise_No3.bmp	306	0	0	0	0	0	0	0	0	0	0	0	0	0	0	0	0	0	0	0	0	0	0	0	0	0	0	0	0	0	0	0	0	0	0	0	0	0	0	0
120418	09:57:03	10:04:55	469006	5.0.10.0	4_exp_AMP_EVA_AWA_CON	996	Rpleas_acq	Same	Rpleas	Amasked	CS_A	1pleas	distractor1	AMP_CSpleas	AMP23	7	34	0	0	300	300	0	0	48	46	0	0	0	0	0	1	blank2r.bmp	0	1	CPLW	0	1	blank2r.bmp	79	35	pic35.bmp	199	1	whitenoise_No3.bmp	306	0	0	0	0	0	0	0	0	0	0	0	0	0	0	0	0	0	0	0	0	0	0	0	0	0	0	0	0	0	0	0	0	0	0	0	0	0	0	0
120418	09:57:03	10:04:56	469979	5.0.10.0	4_exp_AMP_EVA_AWA_CON	996	Rpleas_acq	Same	Rpleas	Amasked	CS_A	1pleas	distractor1	AMP_CSunple	AMP23	7	35	0	0	300	300	0	0	56	50	0	0	0	0	0	1	blank2r.bmp	0	1	DHJF	0	1	blank2r.bmp	79	42	pic42.bmp	199	1	whitenoise_No3.bmp	306	0	0	0	0	0	0	0	0	0	0	0	0	0	0	0	0	0	0	0	0	0	0	0	0	0	0	0	0	0	0	0	0	0	0	0	0	0	0	0
120418	09:57:03	10:04:57	470939	5.0.10.0	4_exp_AMP_EVA_AWA_CON	996	Rpleas_acq	Same	Rpleas	Amasked	CS_A	1pleas	distractor1	AMP_distractor	AMP23	7	36	0	0	300	300	0	0	50	50	0	0	0	0	0	1	blank2r.bmp	0	1	HWDL	0	1	blank2r.bmp	79	49	pic49.bmp	199	1	whitenoise_No3.bmp	306	0	0	0	0	0	0	0	0	0	0	0	0	0	0	0	0	0	0	0	0	0	0	0	0	0	0	0	0	0	0	0	0	0	0	0	0	0	0	0
120418	09:57:03	10:04:58	471912	5.0.10.0	4_exp_AMP_EVA_AWA_CON	996	Rpleas_acq	Same	Rpleas	Amasked	CS_A	1pleas	distractor1	AMP_CSunple	AMP23	7	37	0	0	300	300	0	0	44	50	0	0	0	0	0	1	blank2r.bmp	0	1	DHJF	0	1	blank2r.bmp	79	7	pic7.bmp	199	1	whitenoise_No3.bmp	306	0	0	0	0	0	0	0	0	0	0	0	0	0	0	0	0	0	0	0	0	0	0	0	0	0	0	0	0	0	0	0	0	0	0	0	0	0	0	0
120418	09:57:03	10:04:59	472872	5.0.10.0	4_exp_AMP_EVA_AWA_CON	996	Rpleas_acq	Same	Rpleas	Amasked	CS_A	1pleas	distractor1	AMP_CSunple	AMP23	7	38	0	0	300	300	0	0	52	46	0	1	0	0	0	1	blank2r.bmp	0	1	DHJF	0	1	blank2r.bmp	79	39	pic39.bmp	199	1	whitenoise_No3.bmp	306	0	0	0	0	0	0	0	0	0	0	0	0	0	0	0	0	0	0	0	0	0	0	0	0	0	0	0	0	0	0	0	0	0	0	0	0	0	0	0
120418	09:57:03	10:05:00	473844	5.0.10.0	4_exp_AMP_EVA_AWA_CON	996	Rpleas_acq	Same	Rpleas	Amasked	CS_A	1pleas	distractor1	AMP_distractor	AMP23	7	39	0	0	300	300	0	0	46	50	0	0	0	0	0	1	blank2r.bmp	0	1	HWDL	0	1	blank2r.bmp	79	52	pic52.bmp	199	1	whitenoise_No3.bmp	306	0	0	0	0	0	0	0	0	0	0	0	0	0	0	0	0	0	0	0	0	0	0	0	0	0	0	0	0	0	0	0	0	0	0	0	0	0	0	0
120418	09:57:03	10:05:01	474817	5.0.10.0	4_exp_AMP_EVA_AWA_CON	996	Rpleas_acq	Same	Rpleas	Amasked	CS_A	1pleas	distractor1	AMP_CSpleas	AMP23	7	40	0	0	300	300	0	0	54	46	0	0	0	0	0	1	blank2r.bmp	0	1	CPLW	0	1	blank2r.bmp	79	73	pic73.bmp	199	1	whitenoise_No3.bmp	306	0	0	0	0	0	0	0	0	0	0	0	0	0	0	0	0	0	0	0	0	0	0	0	0	0	0	0	0	0	0	0	0	0	0	0	0	0	0	0
120418	09:57:03	10:05:02	475750	5.0.10.0	4_exp_AMP_EVA_AWA_CON	996	Rpleas_acq	Same	Rpleas	Amasked	CS_A	1pleas	distractor1	AMP_CSunple	AMP23	7	41	0	0	300	300	0	0	17	50	0	0	0	0	0	1	blank2r.bmp	0	1	DHJF	0	1	blank2r.bmp	79	101	pic101.bmp	199	1	whitenoise_No3.bmp	306	0	0	0	0	0	0	0	0	0	0	0	0	0	0	0	0	0	0	0	0	0	0	0	0	0	0	0	0	0	0	0	0	0	0	0	0	0	0	0
120418	09:57:03	10:05:03	476710	5.0.10.0	4_exp_AMP_EVA_AWA_CON	996	Rpleas_acq	Same	Rpleas	Amasked	CS_A	1pleas	distractor1	AMP_distractor	AMP23	7	42	0	0	300	300	0	0	51	50	0	0	0	0	0	1	blank2r.bmp	0	1	HWDL	0	1	blank2r.bmp	79	124	pic124.bmp	199	1	whitenoise_No3.bmp	306	0	0	0	0	0	0	0	0	0	0	0	0	0	0	0	0	0	0	0	0	0	0	0	0	0	0	0	0	0	0	0	0	0	0	0	0	0	0	0
120418	09:57:03	10:05:04	477696	5.0.10.0	4_exp_AMP_EVA_AWA_CON	996	Rpleas_acq	Same	Rpleas	Amasked	CS_A	1pleas	distractor1	AMP_CSpleas	AMP23	7	43	0	0	300	300	0	0	61	46	0	0	0	0	0	1	blank2r.bmp	0	1	CPLW	0	1	blank2r.bmp	79	148	pic148.bmp	199	1	whitenoise_No3.bmp	306	0	0	0	0	0	0	0	0	0	0	0	0	0	0	0	0	0	0	0	0	0	0	0	0	0	0	0	0	0	0	0	0	0	0	0	0	0	0	0
120418	09:57:03	10:05:05	478682	5.0.10.0	4_exp_AMP_EVA_AWA_CON	996	Rpleas_acq	Same	Rpleas	Amasked	CS_A	1pleas	distractor1	AMP_distractor	AMP23	7	44	0	0	300	300	0	0	71	46	0	0	0	0	0	1	blank2r.bmp	0	1	HWDL	0	1	blank2r.bmp	79	38	pic38.bmp	199	1	whitenoise_No3.bmp	306	0	0	0	0	0	0	0	0	0	0	0	0	0	0	0	0	0	0	0	0	0	0	0	0	0	0	0	0	0	0	0	0	0	0	0	0	0	0	0
120418	09:57:03	10:05:06	479642	5.0.10.0	4_exp_AMP_EVA_AWA_CON	996	Rpleas_acq	Same	Rpleas	Amasked	CS_A	1pleas	distractor1	AMP_distractor	AMP23	7	45	0	0	300	300	0	0	52	46	0	0	0	0	0	1	blank2r.bmp	0	1	HWDL	0	1	blank2r.bmp	79	123	pic123.bmp	199	1	whitenoise_No3.bmp	306	0	0	0	0	0	0	0	0	0	0	0	0	0	0	0	0	0	0	0	0	0	0	0	0	0	0	0	0	0	0	0	0	0	0	0	0	0	0	0
120418	09:57:03	10:05:07	480602	5.0.10.0	4_exp_AMP_EVA_AWA_CON	996	Rpleas_acq	Same	Rpleas	Amasked	CS_A	1pleas	distractor1	AMP_distractor	AMP23	7	46	0	0	300	300	0	0	30	50	0	0	0	0	0	1	blank2r.bmp	0	1	HWDL	0	1	blank2r.bmp	79	46	pic46.bmp	199	1	whitenoise_No3.bmp	306	0	0	0	0	0	0	0	0	0	0	0	0	0	0	0	0	0	0	0	0	0	0	0	0	0	0	0	0	0	0	0	0	0	0	0	0	0	0	0
120418	09:57:03	10:05:08	481561	5.0.10.0	4_exp_AMP_EVA_AWA_CON	996	Rpleas_acq	Same	Rpleas	Amasked	CS_A	1pleas	distractor1	AMP_CSpleas	AMP23	7	47	0	0	300	300	0	0	51	46	0	0	0	0	0	1	blank2r.bmp	0	1	CPLW	0	1	blank2r.bmp	79	5	pic5.bmp	199	1	whitenoise_No3.bmp	306	0	0	0	0	0	0	0	0	0	0	0	0	0	0	0	0	0	0	0	0	0	0	0	0	0	0	0	0	0	0	0	0	0	0	0	0	0	0	0
120418	09:57:03	10:05:09	482547	5.0.10.0	4_exp_AMP_EVA_AWA_CON	996	Rpleas_acq	Same	Rpleas	Amasked	CS_A	1pleas	distractor1	AMP_distractor	AMP23	7	48	0	0	300	300	0	0	61	50	0	0	0	0	0	1	blank2r.bmp	0	1	HWDL	0	1	blank2r.bmp	79	63	pic63.bmp	199	1	whitenoise_No3.bmp	306	0	0	0	0	0	0	0	0	0	0	0	0	0	0	0	0	0	0	0	0	0	0	0	0	0	0	0	0	0	0	0	0	0	0	0	0	0	0	0
