date	time	script.currenttime	script.elapsedtime	build	subject	expressions.LRpleas_acq	expressions.SameOppo	expressions.condition_Lpleas	expressions.ABmasked	expressions.conditionCS_A	expressions.condition_1pleas	expressions.condition_distractor_AMP	trialcode	blockcode	blocknum	trialnum	windowcenter	inwindow	pretrialpause	posttrialpause	trialduration	trialtimeout	latency	response	expressions.correctedscore	correct	values.vis_performance	values.vis_rating_sum	values.vis_rating_mean	stimulusnumber1	stimulusitem1	stimulusonset1	stimulusnumber2	stimulusitem2	stimulusonset2	stimulusnumber3	stimulusitem3	stimulusonset3	stimulusnumber4	stimulusitem4	stimulusonset4	stimulusnumber5	stimulusitem5	stimulusonset5	stimulusnumber6	stimulusitem6	stimulusonset6	stimulusnumber7	stimulusitem7	stimulusonset7	stimulusnumber8	stimulusitem8	stimulusonset8	stimulusnumber9	stimulusitem9	stimulusonset9	stimulusnumber10	stimulusitem10	stimulusonset10	stimulusnumber11	stimulusitem11	stimulusonset11	stimulusnumber12	stimulusitem12	stimulusonset12	stimulusnumber13	stimulusitem13	stimulusonset13	stimulusnumber14	stimulusitem14	stimulusonset14	stimulusnumber15	stimulusitem15	stimulusonset15	stimulusnumber16	stimulusitem16	stimulusonset16	stimulusnumber17	stimulusitem17	stimulusonset17	stimulusnumber18	stimulusitem18	stimulusonset18
112918	11:51:59	11:53:17	75235	5.0.10.0	995	Rpleas_acq	Oppo	Rpleas	Amasked	CS_A	1pleas	distractor1	acq_US_pleas_masked	acq1_masked	1	1	0	0	300	300	0	0	428	50	0	1	0	0	0	1	blank2r.bmp	0	1	+	0	3	B3r.bmp	492	1	blank2r.bmp	786	1	CPLW	786	1	blank2r.bmp	866	5	kreativ	866	0	0	0	0	0	0	0	0	0	0	0	0	0	0	0	0	0	0	0	0	0	0	0	0	0	0	0	0	0	0	0	0	0
112918	11:51:59	11:53:19	77381	5.0.10.0	995	Rpleas_acq	Oppo	Rpleas	Amasked	CS_A	1pleas	distractor1	acq_US_unple_masked	acq1_masked	1	2	0	0	300	300	0	0	449	50	0	0	0	0	0	1	blank2r.bmp	0	1	+	0	1	B1r.bmp	492	1	blank2r.bmp	786	1	DHJF	786	1	blank2r.bmp	866	4	krank	866	1	FEHLER	1346	0	0	0	0	0	0	0	0	0	0	0	0	0	0	0	0	0	0	0	0	0	0	0	0	0	0	0	0	0	0
112918	11:51:59	11:53:21	79207	5.0.10.0	995	Rpleas_acq	Oppo	Rpleas	Amasked	CS_A	1pleas	distractor1	acq_US_unple_masked	acq1_masked	1	3	0	0	300	300	0	0	548	46	0	1	0	0	0	1	blank2r.bmp	0	1	+	0	7	C3r.bmp	493	1	blank2r.bmp	786	1	DHJF	786	1	blank2r.bmp	866	1	engstirnig	866	0	0	0	0	0	0	0	0	0	0	0	0	0	0	0	0	0	0	0	0	0	0	0	0	0	0	0	0	0	0	0	0	0
112918	11:51:59	11:53:23	81086	5.0.10.0	995	Rpleas_acq	Oppo	Rpleas	Amasked	CS_A	1pleas	distractor1	acq_US_unple_masked	acq1_masked	1	4	0	0	300	300	0	0	410	46	0	1	0	0	0	1	blank2r.bmp	0	1	+	0	4	B4r.bmp	492	1	blank2r.bmp	786	1	DHJF	786	1	blank2r.bmp	866	6	versagen	866	0	0	0	0	0	0	0	0	0	0	0	0	0	0	0	0	0	0	0	0	0	0	0	0	0	0	0	0	0	0	0	0	0
112918	11:51:59	11:53:25	83138	5.0.10.0	995	Rpleas_acq	Oppo	Rpleas	Amasked	CS_A	1pleas	distractor1	acq_new_pleas_masked	acq1_masked	1	5	0	0	300	300	0	0	347	46	0	0	0	0	0	1	blank2r.bmp	0	1	+	0	2	B2r.bmp	492	1	blank2r.bmp	786	1	träumen	866	1	FEHLER	1252	0	0	0	0	0	0	0	0	0	0	0	0	0	0	0	0	0	0	0	0	0	0	0	0	0	0	0	0	0	0	0	0	0	0	0	0
112918	11:51:59	11:53:26	85031	5.0.10.0	995	Rpleas_acq	Oppo	Rpleas	Amasked	CS_A	1pleas	distractor1	acq_US_pleas_masked	acq1_masked	1	6	0	0	300	300	0	0	407	46	0	0	0	0	0	1	blank2r.bmp	0	1	+	0	8	C4r.bmp	492	1	blank2r.bmp	786	1	CPLW	786	1	blank2r.bmp	866	4	vertrauen	866	1	FEHLER	1306	0	0	0	0	0	0	0	0	0	0	0	0	0	0	0	0	0	0	0	0	0	0	0	0	0	0	0	0	0	0
112918	11:51:59	11:53:28	86764	5.0.10.0	995	Rpleas_acq	Oppo	Rpleas	Amasked	CS_A	1pleas	distractor1	acq_US_pleas_masked	acq1_masked	1	7	0	0	300	300	0	0	468	50	0	1	0	0	0	1	blank2r.bmp	0	1	+	0	6	C2r.bmp	492	1	blank2r.bmp	786	1	CPLW	786	1	blank2r.bmp	866	6	kuss	866	0	0	0	0	0	0	0	0	0	0	0	0	0	0	0	0	0	0	0	0	0	0	0	0	0	0	0	0	0	0	0	0	0
112918	11:51:59	11:53:30	88789	5.0.10.0	995	Rpleas_acq	Oppo	Rpleas	Amasked	CS_A	1pleas	distractor1	acq_US_unple_masked	acq1_masked	1	8	0	0	300	300	0	0	540	46	0	1	0	0	0	1	blank2r.bmp	0	1	+	0	5	C1r.bmp	492	1	blank2r.bmp	786	1	DHJF	786	1	blank2r.bmp	866	3	verbissen	866	0	0	0	0	0	0	0	0	0	0	0	0	0	0	0	0	0	0	0	0	0	0	0	0	0	0	0	0	0	0	0	0	0
112918	11:51:59	11:53:32	90709	5.0.10.0	995	Rpleas_acq	Oppo	Rpleas	Amasked	CS_A	1pleas	distractor1	acq_US_unple_masked	acq1_masked	1	9	0	0	300	300	0	0	438	46	0	1	0	0	0	1	blank2r.bmp	0	1	+	0	2	B2r.bmp	492	1	blank2r.bmp	786	1	DHJF	786	1	blank2r.bmp	866	2	geizig	866	0	0	0	0	0	0	0	0	0	0	0	0	0	0	0	0	0	0	0	0	0	0	0	0	0	0	0	0	0	0	0	0	0
112918	11:51:59	11:53:34	92588	5.0.10.0	995	Rpleas_acq	Oppo	Rpleas	Amasked	CS_A	1pleas	distractor1	acq_new_unple_masked	acq1_masked	1	10	0	0	300	300	0	0	385	46	0	1	0	0	0	1	blank2r.bmp	0	1	+	0	1	B1r.bmp	492	1	blank2r.bmp	786	2	gemein	866	0	0	0	0	0	0	0	0	0	0	0	0	0	0	0	0	0	0	0	0	0	0	0	0	0	0	0	0	0	0	0	0	0	0	0	0	0	0	0
112918	11:51:59	11:53:36	94747	5.0.10.0	995	Rpleas_acq	Oppo	Rpleas	Amasked	CS_A	1pleas	distractor1	acq_US_pleas_masked	acq1_masked	1	11	0	0	300	300	0	0	467	46	0	0	0	0	0	1	blank2r.bmp	0	1	+	0	8	C4r.bmp	492	1	blank2r.bmp	786	1	CPLW	786	1	blank2r.bmp	866	3	gütig	866	1	FEHLER	1372	0	0	0	0	0	0	0	0	0	0	0	0	0	0	0	0	0	0	0	0	0	0	0	0	0	0	0	0	0	0
112918	11:51:59	11:53:38	96560	5.0.10.0	995	Rpleas_acq	Oppo	Rpleas	Amasked	CS_A	1pleas	distractor1	acq_US_unple_masked	acq1_masked	1	12	0	0	300	300	0	0	539	46	0	1	0	0	0	1	blank2r.bmp	0	1	+	0	4	B4r.bmp	492	1	blank2r.bmp	786	1	DHJF	786	1	blank2r.bmp	866	5	sterben	866	0	0	0	0	0	0	0	0	0	0	0	0	0	0	0	0	0	0	0	0	0	0	0	0	0	0	0	0	0	0	0	0	0
112918	11:51:59	11:53:40	98479	5.0.10.0	995	Rpleas_acq	Oppo	Rpleas	Amasked	CS_A	1pleas	distractor1	acq_US_unple_masked	acq1_masked	1	13	0	0	300	300	0	0	426	46	0	1	0	0	0	1	blank2r.bmp	0	1	+	0	3	B3r.bmp	492	1	blank2r.bmp	786	1	DHJF	786	1	blank2r.bmp	866	3	verbissen	866	0	0	0	0	0	0	0	0	0	0	0	0	0	0	0	0	0	0	0	0	0	0	0	0	0	0	0	0	0	0	0	0	0
112918	11:51:59	11:53:42	100491	5.0.10.0	995	Rpleas_acq	Oppo	Rpleas	Amasked	CS_A	1pleas	distractor1	acq_US_pleas_masked	acq1_masked	1	14	0	0	300	300	0	0	530	50	0	1	0	0	0	1	blank2r.bmp	0	1	+	0	7	C3r.bmp	492	1	blank2r.bmp	786	1	CPLW	786	1	blank2r.bmp	866	2	anregung	866	0	0	0	0	0	0	0	0	0	0	0	0	0	0	0	0	0	0	0	0	0	0	0	0	0	0	0	0	0	0	0	0	0
112918	11:51:59	11:53:44	102384	5.0.10.0	995	Rpleas_acq	Oppo	Rpleas	Amasked	CS_A	1pleas	distractor1	acq_US_unple_masked	acq1_masked	1	15	0	0	300	300	0	0	405	46	0	1	0	0	0	1	blank2r.bmp	0	1	+	0	6	C2r.bmp	492	1	blank2r.bmp	786	1	DHJF	786	1	blank2r.bmp	866	5	sterben	866	0	0	0	0	0	0	0	0	0	0	0	0	0	0	0	0	0	0	0	0	0	0	0	0	0	0	0	0	0	0	0	0	0
112918	11:51:59	11:53:46	104250	5.0.10.0	995	Rpleas_acq	Oppo	Rpleas	Amasked	CS_A	1pleas	distractor1	acq_new_unple_masked	acq1_masked	1	16	0	0	300	300	0	0	388	46	0	1	0	0	0	1	blank2r.bmp	0	1	+	0	5	C1r.bmp	492	1	blank2r.bmp	786	6	töten	866	0	0	0	0	0	0	0	0	0	0	0	0	0	0	0	0	0	0	0	0	0	0	0	0	0	0	0	0	0	0	0	0	0	0	0	0	0	0	0
112918	11:51:59	11:53:48	106209	5.0.10.0	995	Rpleas_acq	Oppo	Rpleas	Amasked	CS_A	1pleas	distractor1	acq_US_pleas_masked	acq1_masked	1	17	0	0	300	300	0	0	470	50	0	1	0	0	0	1	blank2r.bmp	0	1	+	0	5	C1r.bmp	492	1	blank2r.bmp	786	1	CPLW	786	1	blank2r.bmp	866	1	vergnügt	866	0	0	0	0	0	0	0	0	0	0	0	0	0	0	0	0	0	0	0	0	0	0	0	0	0	0	0	0	0	0	0	0	0
112918	11:51:59	11:53:50	108141	5.0.10.0	995	Rpleas_acq	Oppo	Rpleas	Amasked	CS_A	1pleas	distractor1	acq_US_pleas_masked	acq1_masked	1	18	0	0	300	300	0	0	453	50	0	1	0	0	0	1	blank2r.bmp	0	1	+	0	8	C4r.bmp	492	1	blank2r.bmp	786	1	CPLW	786	1	blank2r.bmp	866	1	vergnügt	866	0	0	0	0	0	0	0	0	0	0	0	0	0	0	0	0	0	0	0	0	0	0	0	0	0	0	0	0	0	0	0	0	0
112918	11:51:59	11:53:52	110221	5.0.10.0	995	Rpleas_acq	Oppo	Rpleas	Amasked	CS_A	1pleas	distractor1	acq_new_unple_masked	acq1_masked	1	19	0	0	300	300	0	0	395	50	0	0	0	0	0	1	blank2r.bmp	0	1	+	0	4	B4r.bmp	492	1	blank2r.bmp	786	3	gierig	866	1	FEHLER	1292	0	0	0	0	0	0	0	0	0	0	0	0	0	0	0	0	0	0	0	0	0	0	0	0	0	0	0	0	0	0	0	0	0	0	0	0
112918	11:51:59	11:53:53	111953	5.0.10.0	995	Rpleas_acq	Oppo	Rpleas	Amasked	CS_A	1pleas	distractor1	acq_US_pleas_masked	acq1_masked	1	20	0	0	300	300	0	0	455	50	0	1	0	0	0	1	blank2r.bmp	0	1	+	0	3	B3r.bmp	492	1	blank2r.bmp	786	1	CPLW	786	1	blank2r.bmp	866	5	kreativ	866	0	0	0	0	0	0	0	0	0	0	0	0	0	0	0	0	0	0	0	0	0	0	0	0	0	0	0	0	0	0	0	0	0
112918	11:51:59	11:53:55	113966	5.0.10.0	995	Rpleas_acq	Oppo	Rpleas	Amasked	CS_A	1pleas	distractor1	acq_US_unple_masked	acq1_masked	1	21	0	0	300	300	0	0	541	46	0	1	0	0	0	1	blank2r.bmp	0	1	+	0	1	B1r.bmp	492	1	blank2r.bmp	786	1	DHJF	786	1	blank2r.bmp	866	2	geizig	866	0	0	0	0	0	0	0	0	0	0	0	0	0	0	0	0	0	0	0	0	0	0	0	0	0	0	0	0	0	0	0	0	0
112918	11:51:59	11:53:57	115885	5.0.10.0	995	Rpleas_acq	Oppo	Rpleas	Amasked	CS_A	1pleas	distractor1	acq_US_unple_masked	acq1_masked	1	22	0	0	300	300	0	0	432	46	0	1	0	0	0	1	blank2r.bmp	0	1	+	0	2	B2r.bmp	492	1	blank2r.bmp	786	1	DHJF	786	1	blank2r.bmp	866	6	versagen	866	0	0	0	0	0	0	0	0	0	0	0	0	0	0	0	0	0	0	0	0	0	0	0	0	0	0	0	0	0	0	0	0	0
112918	11:51:59	11:53:59	117791	5.0.10.0	995	Rpleas_acq	Oppo	Rpleas	Amasked	CS_A	1pleas	distractor1	acq_new_pleas_masked	acq1_masked	1	23	0	0	300	300	0	0	423	50	0	1	0	0	0	1	blank2r.bmp	0	1	+	0	7	C3r.bmp	492	1	blank2r.bmp	786	5	besonnen	866	0	0	0	0	0	0	0	0	0	0	0	0	0	0	0	0	0	0	0	0	0	0	0	0	0	0	0	0	0	0	0	0	0	0	0	0	0	0	0
112918	11:51:59	11:54:01	119737	5.0.10.0	995	Rpleas_acq	Oppo	Rpleas	Amasked	CS_A	1pleas	distractor1	acq_US_unple_masked	acq1_masked	1	24	0	0	300	300	0	0	459	46	0	1	0	0	0	1	blank2r.bmp	0	1	+	0	6	C2r.bmp	492	1	blank2r.bmp	786	1	DHJF	786	1	blank2r.bmp	866	4	krank	866	0	0	0	0	0	0	0	0	0	0	0	0	0	0	0	0	0	0	0	0	0	0	0	0	0	0	0	0	0	0	0	0	0
112918	11:51:59	11:54:03	121603	5.0.10.0	995	Rpleas_acq	Oppo	Rpleas	Amasked	CS_A	1pleas	distractor1	acq_US_pleas_masked	acq1_masked	1	25	0	0	300	300	0	0	376	50	0	1	0	0	0	1	blank2r.bmp	0	1	+	0	8	C4r.bmp	492	1	blank2r.bmp	786	1	CPLW	786	1	blank2r.bmp	866	3	gütig	866	0	0	0	0	0	0	0	0	0	0	0	0	0	0	0	0	0	0	0	0	0	0	0	0	0	0	0	0	0	0	0	0	0
112918	11:51:59	11:54:05	123468	5.0.10.0	995	Rpleas_acq	Oppo	Rpleas	Amasked	CS_A	1pleas	distractor1	acq_US_pleas_masked	acq1_masked	1	26	0	0	300	300	0	0	387	50	0	1	0	0	0	1	blank2r.bmp	0	1	+	0	5	C1r.bmp	492	1	blank2r.bmp	786	1	CPLW	786	1	blank2r.bmp	866	6	kuss	866	0	0	0	0	0	0	0	0	0	0	0	0	0	0	0	0	0	0	0	0	0	0	0	0	0	0	0	0	0	0	0	0	0
112918	11:51:59	11:54:07	125414	5.0.10.0	995	Rpleas_acq	Oppo	Rpleas	Amasked	CS_A	1pleas	distractor1	acq_new_unple_masked	acq1_masked	1	27	0	0	300	300	0	0	452	46	0	1	0	0	0	1	blank2r.bmp	0	1	+	0	2	B2r.bmp	492	1	blank2r.bmp	786	4	krise	866	0	0	0	0	0	0	0	0	0	0	0	0	0	0	0	0	0	0	0	0	0	0	0	0	0	0	0	0	0	0	0	0	0	0	0	0	0	0	0
112918	11:51:59	11:54:09	127307	5.0.10.0	995	Rpleas_acq	Oppo	Rpleas	Amasked	CS_A	1pleas	distractor1	acq_new_unple_masked	acq1_masked	1	28	0	0	300	300	0	0	418	46	0	1	0	0	0	1	blank2r.bmp	0	1	+	0	6	C2r.bmp	492	1	blank2r.bmp	786	5	bange	866	0	0	0	0	0	0	0	0	0	0	0	0	0	0	0	0	0	0	0	0	0	0	0	0	0	0	0	0	0	0	0	0	0	0	0	0	0	0	0
112918	11:51:59	11:54:11	129266	5.0.10.0	995	Rpleas_acq	Oppo	Rpleas	Amasked	CS_A	1pleas	distractor1	acq_US_unple_masked	acq1_masked	1	29	0	0	300	300	0	0	468	46	0	1	0	0	0	1	blank2r.bmp	0	1	+	0	7	C3r.bmp	492	1	blank2r.bmp	786	1	DHJF	786	1	blank2r.bmp	866	1	engstirnig	866	0	0	0	0	0	0	0	0	0	0	0	0	0	0	0	0	0	0	0	0	0	0	0	0	0	0	0	0	0	0	0	0	0
112918	11:51:59	11:54:13	131119	5.0.10.0	995	Rpleas_acq	Oppo	Rpleas	Amasked	CS_A	1pleas	distractor1	acq_US_unple_masked	acq1_masked	1	30	0	0	300	300	0	0	371	46	0	1	0	0	0	1	blank2r.bmp	0	1	+	0	4	B4r.bmp	492	1	blank2r.bmp	786	1	DHJF	786	1	blank2r.bmp	866	3	verbissen	866	0	0	0	0	0	0	0	0	0	0	0	0	0	0	0	0	0	0	0	0	0	0	0	0	0	0	0	0	0	0	0	0	0
112918	11:51:59	11:54:15	133091	5.0.10.0	995	Rpleas_acq	Oppo	Rpleas	Amasked	CS_A	1pleas	distractor1	acq_US_pleas_masked	acq1_masked	1	31	0	0	300	300	0	0	497	50	0	1	0	0	0	1	blank2r.bmp	0	1	+	0	3	B3r.bmp	492	1	blank2r.bmp	786	1	CPLW	786	1	blank2r.bmp	866	4	vertrauen	866	0	0	0	0	0	0	0	0	0	0	0	0	0	0	0	0	0	0	0	0	0	0	0	0	0	0	0	0	0	0	0	0	0
112918	11:51:59	11:54:16	134917	5.0.10.0	995	Rpleas_acq	Oppo	Rpleas	Amasked	CS_A	1pleas	distractor1	acq_US_unple_masked	acq1_masked	1	32	0	0	300	300	0	0	340	46	0	1	0	0	0	1	blank2r.bmp	0	1	+	0	1	B1r.bmp	492	1	blank2r.bmp	786	1	DHJF	786	1	blank2r.bmp	866	6	versagen	866	0	0	0	0	0	0	0	0	0	0	0	0	0	0	0	0	0	0	0	0	0	0	0	0	0	0	0	0	0	0	0	0	0
112918	11:51:59	11:54:18	136796	5.0.10.0	995	Rpleas_acq	Oppo	Rpleas	Amasked	CS_A	1pleas	distractor1	acq_US_unple_masked	acq1_masked	1	33	0	0	300	300	0	0	397	46	0	1	0	0	0	1	blank2r.bmp	0	1	+	0	8	C4r.bmp	492	1	blank2r.bmp	786	1	DHJF	786	1	blank2r.bmp	866	1	engstirnig	866	0	0	0	0	0	0	0	0	0	0	0	0	0	0	0	0	0	0	0	0	0	0	0	0	0	0	0	0	0	0	0	0	0
112918	11:51:59	11:54:20	138915	5.0.10.0	995	Rpleas_acq	Oppo	Rpleas	Amasked	CS_A	1pleas	distractor1	acq_new_pleas_masked	acq1_masked	1	34	0	0	300	300	0	0	399	46	0	0	0	0	0	1	blank2r.bmp	0	1	+	0	3	B3r.bmp	492	1	blank2r.bmp	786	4	gesittet	866	1	FEHLER	1306	0	0	0	0	0	0	0	0	0	0	0	0	0	0	0	0	0	0	0	0	0	0	0	0	0	0	0	0	0	0	0	0	0	0	0	0
112918	11:51:59	11:54:22	140875	5.0.10.0	995	Rpleas_acq	Oppo	Rpleas	Amasked	CS_A	1pleas	distractor1	acq_US_pleas_masked	acq1_masked	1	35	0	0	300	300	0	0	489	46	0	0	0	0	0	1	blank2r.bmp	0	1	+	0	7	C3r.bmp	492	1	blank2r.bmp	786	1	CPLW	786	1	blank2r.bmp	866	2	anregung	866	1	FEHLER	1386	0	0	0	0	0	0	0	0	0	0	0	0	0	0	0	0	0	0	0	0	0	0	0	0	0	0	0	0	0	0
112918	11:51:59	11:54:24	142634	5.0.10.0	995	Rpleas_acq	Oppo	Rpleas	Amasked	CS_A	1pleas	distractor1	acq_new_pleas_masked	acq1_masked	1	36	0	0	300	300	0	0	489	50	0	1	0	0	0	1	blank2r.bmp	0	1	+	0	5	C1r.bmp	492	1	blank2r.bmp	786	6	genießen	866	0	0	0	0	0	0	0	0	0	0	0	0	0	0	0	0	0	0	0	0	0	0	0	0	0	0	0	0	0	0	0	0	0	0	0	0	0	0	0
112918	11:51:59	11:54:38	157001	5.0.10.0	995	Rpleas_acq	Oppo	Rpleas	Amasked	CS_A	1pleas	distractor1	acq_US_unple_masked	acq2_masked	2	1	480	1	300	300	0	0	442	46	0	1	0	0	0	1	blank2r.bmp	0	1	+	0	2	B2r.bmp	492	1	blank2r.bmp	786	1	DHJF	786	1	blank2r.bmp	866	5	sterben	866	1	!	1319	1	!	1346	0	0	0	0	0	0	0	0	0	0	0	0	0	0	0	0	0	0	0	0	0	0	0	0	0	0	0
112918	11:51:59	11:54:41	159360	5.0.10.0	995	Rpleas_acq	Oppo	Rpleas	Amasked	CS_A	1pleas	distractor1	acq_new_pleas_masked	acq2_masked	2	2	480	0	300	300	0	0	587	50	0	1	0	0	0	1	blank2r.bmp	0	1	+	0	4	B4r.bmp	492	1	blank2r.bmp	786	2	engagiert	866	1	!	1319	1	!	-1	0	0	0	0	0	0	0	0	0	0	0	0	0	0	0	0	0	0	0	0	0	0	0	0	0	0	0	0	0	0	0	0	0
112918	11:51:59	11:54:43	161639	5.0.10.0	995	Rpleas_acq	Oppo	Rpleas	Amasked	CS_A	1pleas	distractor1	acq_new_unple_masked	acq2_masked	2	3	480	1	300	300	0	0	476	46	0	1	0	0	0	1	blank2r.bmp	0	1	+	0	6	C2r.bmp	492	1	blank2r.bmp	786	1	ausrottung	866	1	!	1319	1	!	1372	0	0	0	0	0	0	0	0	0	0	0	0	0	0	0	0	0	0	0	0	0	0	0	0	0	0	0	0	0	0	0	0	0
112918	11:51:59	11:54:45	163918	5.0.10.0	995	Rpleas_acq	Oppo	Rpleas	Amasked	CS_A	1pleas	distractor1	acq_US_unple_masked	acq2_masked	2	4	480	1	300	300	0	0	484	46	0	1	0	0	0	1	blank2r.bmp	0	1	+	0	1	B1r.bmp	492	1	blank2r.bmp	786	1	DHJF	786	1	blank2r.bmp	866	2	geizig	866	1	!	1319	1	!	1386	0	0	0	0	0	0	0	0	0	0	0	0	0	0	0	0	0	0	0	0	0	0	0	0	0	0	0
112918	11:51:59	11:54:47	166051	5.0.10.0	995	Rpleas_acq	Oppo	Rpleas	Amasked	CS_A	1pleas	distractor1	acq_US_pleas_masked	acq2_masked	2	5	480	0	300	300	0	0	368	50	0	1	0	0	0	1	blank2r.bmp	0	1	+	0	5	C1r.bmp	492	1	blank2r.bmp	786	1	CPLW	786	1	blank2r.bmp	866	1	vergnügt	866	1	!	-1	1	!	-1	0	0	0	0	0	0	0	0	0	0	0	0	0	0	0	0	0	0	0	0	0	0	0	0	0	0	0
112918	11:51:59	11:54:50	168237	5.0.10.0	995	Rpleas_acq	Oppo	Rpleas	Amasked	CS_A	1pleas	distractor1	acq_US_pleas_masked	acq2_masked	2	6	480	0	300	300	0	0	399	50	0	1	0	0	0	1	blank2r.bmp	0	1	+	0	8	C4r.bmp	492	1	blank2r.bmp	786	1	CPLW	786	1	blank2r.bmp	866	5	kreativ	866	1	!	-1	1	!	-1	0	0	0	0	0	0	0	0	0	0	0	0	0	0	0	0	0	0	0	0	0	0	0	0	0	0	0
112918	11:51:59	11:54:52	170556	5.0.10.0	995	Rpleas_acq	Oppo	Rpleas	Amasked	CS_A	1pleas	distractor1	acq_new_unple_masked	acq2_masked	2	7	480	1	300	300	0	0	515	46	0	1	0	0	0	1	blank2r.bmp	0	1	+	0	3	B3r.bmp	492	1	blank2r.bmp	786	3	gierig	866	1	!	1319	1	!	1412	0	0	0	0	0	0	0	0	0	0	0	0	0	0	0	0	0	0	0	0	0	0	0	0	0	0	0	0	0	0	0	0	0
112918	11:51:59	11:54:55	173261	5.0.10.0	995	Rpleas_acq	Oppo	Rpleas	Amasked	CS_A	1pleas	distractor1	acq_US_pleas_masked	acq2_masked	2	8	480	0	300	300	0	0	712	46	0	0	0	0	0	1	blank2r.bmp	0	1	+	0	1	B1r.bmp	492	1	blank2r.bmp	786	1	CPLW	786	1	blank2r.bmp	866	3	gütig	866	1	FEHLER	1919	1	!	1319	1	!	-1	0	0	0	0	0	0	0	0	0	0	0	0	0	0	0	0	0	0	0	0	0	0	0	0
112918	11:51:59	11:54:57	175354	5.0.10.0	995	Rpleas_acq	Oppo	Rpleas	Amasked	CS_A	1pleas	distractor1	acq_US_unple_masked	acq2_masked	2	9	480	1	300	300	0	0	502	46	0	1	0	0	0	1	blank2r.bmp	0	1	+	0	2	B2r.bmp	492	1	blank2r.bmp	786	1	DHJF	786	1	blank2r.bmp	866	4	krank	866	1	!	1319	1	!	1399	0	0	0	0	0	0	0	0	0	0	0	0	0	0	0	0	0	0	0	0	0	0	0	0	0	0	0
112918	11:51:59	11:54:59	177659	5.0.10.0	995	Rpleas_acq	Oppo	Rpleas	Amasked	CS_A	1pleas	distractor1	acq_new_pleas_masked	acq2_masked	2	10	480	1	300	300	0	0	507	50	0	1	0	0	0	1	blank2r.bmp	0	1	+	0	4	B4r.bmp	492	1	blank2r.bmp	786	3	sonnig	866	1	!	1319	1	!	1412	0	0	0	0	0	0	0	0	0	0	0	0	0	0	0	0	0	0	0	0	0	0	0	0	0	0	0	0	0	0	0	0	0
112918	11:51:59	11:55:01	179925	5.0.10.0	995	Rpleas_acq	Oppo	Rpleas	Amasked	CS_A	1pleas	distractor1	acq_new_unple_masked	acq2_masked	2	11	480	1	300	300	0	0	477	46	0	1	0	0	0	1	blank2r.bmp	0	1	+	0	7	C3r.bmp	492	1	blank2r.bmp	786	5	bange	866	1	!	1319	1	!	1372	0	0	0	0	0	0	0	0	0	0	0	0	0	0	0	0	0	0	0	0	0	0	0	0	0	0	0	0	0	0	0	0	0
112918	11:51:59	11:55:04	182178	5.0.10.0	995	Rpleas_acq	Oppo	Rpleas	Amasked	CS_A	1pleas	distractor1	acq_US_pleas_masked	acq2_masked	2	12	480	1	300	300	0	0	447	50	0	1	0	0	0	1	blank2r.bmp	0	1	+	0	6	C2r.bmp	492	1	blank2r.bmp	786	1	CPLW	786	1	blank2r.bmp	866	6	kuss	866	1	!	1319	1	!	1346	0	0	0	0	0	0	0	0	0	0	0	0	0	0	0	0	0	0	0	0	0	0	0	0	0	0	0
112918	11:51:59	11:55:06	184497	5.0.10.0	995	Rpleas_acq	Oppo	Rpleas	Amasked	CS_A	1pleas	distractor1	acq_US_pleas_masked	acq2_masked	2	13	480	1	300	300	0	0	527	50	0	1	0	0	0	1	blank2r.bmp	0	1	+	0	7	C3r.bmp	492	1	blank2r.bmp	786	1	CPLW	786	1	blank2r.bmp	866	4	vertrauen	866	1	!	1319	1	!	1426	0	0	0	0	0	0	0	0	0	0	0	0	0	0	0	0	0	0	0	0	0	0	0	0	0	0	0
112918	11:51:59	11:55:08	186642	5.0.10.0	995	Rpleas_acq	Oppo	Rpleas	Amasked	CS_A	1pleas	distractor1	acq_new_unple_masked	acq2_masked	2	14	480	0	300	300	0	0	367	46	0	1	0	0	0	1	blank2r.bmp	0	1	+	0	1	B1r.bmp	492	1	blank2r.bmp	786	6	töten	866	1	!	-1	1	!	-1	0	0	0	0	0	0	0	0	0	0	0	0	0	0	0	0	0	0	0	0	0	0	0	0	0	0	0	0	0	0	0	0	0
112918	11:51:59	11:55:10	188828	5.0.10.0	995	Rpleas_acq	Oppo	Rpleas	Amasked	CS_A	1pleas	distractor1	acq_US_pleas_masked	acq2_masked	2	15	480	0	300	300	0	0	411	50	0	1	0	0	0	1	blank2r.bmp	0	1	+	0	8	C4r.bmp	492	1	blank2r.bmp	786	1	CPLW	786	1	blank2r.bmp	866	2	anregung	866	1	!	-1	1	!	-1	0	0	0	0	0	0	0	0	0	0	0	0	0	0	0	0	0	0	0	0	0	0	0	0	0	0	0
112918	11:51:59	11:55:13	191094	5.0.10.0	995	Rpleas_acq	Oppo	Rpleas	Amasked	CS_A	1pleas	distractor1	acq_US_unple_masked	acq2_masked	2	16	480	1	300	300	0	0	455	46	0	1	0	0	0	1	blank2r.bmp	0	1	+	0	5	C1r.bmp	492	1	blank2r.bmp	786	1	DHJF	786	1	blank2r.bmp	866	6	versagen	866	1	!	1319	1	!	1359	0	0	0	0	0	0	0	0	0	0	0	0	0	0	0	0	0	0	0	0	0	0	0	0	0	0	0
112918	11:51:59	11:55:15	193426	5.0.10.0	995	Rpleas_acq	Oppo	Rpleas	Amasked	CS_A	1pleas	distractor1	acq_US_pleas_masked	acq2_masked	2	17	480	0	300	300	0	0	570	50	0	1	0	0	0	1	blank2r.bmp	0	1	+	0	2	B2r.bmp	492	1	blank2r.bmp	786	1	CPLW	786	1	blank2r.bmp	866	4	vertrauen	866	1	!	1319	1	!	-1	0	0	0	0	0	0	0	0	0	0	0	0	0	0	0	0	0	0	0	0	0	0	0	0	0	0	0
112918	11:51:59	11:55:17	195665	5.0.10.0	995	Rpleas_acq	Oppo	Rpleas	Amasked	CS_A	1pleas	distractor1	acq_new_pleas_masked	acq2_masked	2	18	480	1	300	300	0	0	426	50	0	1	0	0	0	1	blank2r.bmp	0	1	+	0	6	C2r.bmp	492	1	blank2r.bmp	786	6	genießen	866	1	!	1319	1	!	1332	0	0	0	0	0	0	0	0	0	0	0	0	0	0	0	0	0	0	0	0	0	0	0	0	0	0	0	0	0	0	0	0	0
112918	11:51:59	11:55:20	198078	5.0.10.0	995	Rpleas_acq	Oppo	Rpleas	Amasked	CS_A	1pleas	distractor1	acq_US_pleas_masked	acq2_masked	2	19	480	0	300	300	0	0	626	50	0	1	0	0	0	1	blank2r.bmp	0	1	+	0	3	B3r.bmp	492	1	blank2r.bmp	786	1	CPLW	786	1	blank2r.bmp	866	3	gütig	866	1	!	1319	1	!	-1	0	0	0	0	0	0	0	0	0	0	0	0	0	0	0	0	0	0	0	0	0	0	0	0	0	0	0
112918	11:51:59	11:55:22	200264	5.0.10.0	995	Rpleas_acq	Oppo	Rpleas	Amasked	CS_A	1pleas	distractor1	acq_new_pleas_masked	acq2_masked	2	20	480	0	300	300	0	0	398	50	0	1	0	0	0	1	blank2r.bmp	0	1	+	0	4	B4r.bmp	492	1	blank2r.bmp	786	1	träumen	866	1	!	-1	1	!	-1	0	0	0	0	0	0	0	0	0	0	0	0	0	0	0	0	0	0	0	0	0	0	0	0	0	0	0	0	0	0	0	0	0
112918	11:51:59	11:55:24	202636	5.0.10.0	995	Rpleas_acq	Oppo	Rpleas	Amasked	CS_A	1pleas	distractor1	acq_US_unple_masked	acq2_masked	2	21	480	0	300	300	0	0	589	46	0	1	0	0	0	1	blank2r.bmp	0	1	+	0	5	C1r.bmp	492	1	blank2r.bmp	786	1	DHJF	786	1	blank2r.bmp	866	2	geizig	866	1	!	1319	1	!	-1	0	0	0	0	0	0	0	0	0	0	0	0	0	0	0	0	0	0	0	0	0	0	0	0	0	0	0
112918	11:51:59	11:55:26	204995	5.0.10.0	995	Rpleas_acq	Oppo	Rpleas	Amasked	CS_A	1pleas	distractor1	acq_US_unple_masked	acq2_masked	2	22	480	0	300	300	0	0	352	50	0	0	0	0	0	1	blank2r.bmp	0	1	+	0	2	B2r.bmp	492	1	blank2r.bmp	786	1	DHJF	786	1	blank2r.bmp	866	4	krank	866	1	FEHLER	1559	1	!	-1	1	!	-1	0	0	0	0	0	0	0	0	0	0	0	0	0	0	0	0	0	0	0	0	0	0	0	0
112918	11:51:59	11:55:28	206954	5.0.10.0	995	Rpleas_acq	Oppo	Rpleas	Amasked	CS_A	1pleas	distractor1	acq_US_pleas_masked	acq2_masked	2	23	480	0	300	300	0	0	399	50	0	1	0	0	0	1	blank2r.bmp	0	1	+	0	4	B4r.bmp	492	1	blank2r.bmp	786	1	CPLW	786	1	blank2r.bmp	866	5	kreativ	866	1	!	-1	1	!	-1	0	0	0	0	0	0	0	0	0	0	0	0	0	0	0	0	0	0	0	0	0	0	0	0	0	0	0
112918	11:51:59	11:55:31	209366	5.0.10.0	995	Rpleas_acq	Oppo	Rpleas	Amasked	CS_A	1pleas	distractor1	acq_US_pleas_masked	acq2_masked	2	24	480	0	300	300	0	0	409	46	0	0	0	0	0	1	blank2r.bmp	0	1	+	0	8	C4r.bmp	492	1	blank2r.bmp	786	1	CPLW	786	1	blank2r.bmp	866	6	kuss	866	1	FEHLER	1612	1	!	-1	1	!	-1	0	0	0	0	0	0	0	0	0	0	0	0	0	0	0	0	0	0	0	0	0	0	0	0
112918	11:51:59	11:55:33	211392	5.0.10.0	995	Rpleas_acq	Oppo	Rpleas	Amasked	CS_A	1pleas	distractor1	acq_new_unple_masked	acq2_masked	2	25	480	1	300	300	0	0	451	46	0	1	0	0	0	1	blank2r.bmp	0	1	+	0	6	C2r.bmp	492	1	blank2r.bmp	786	4	krise	866	1	!	1319	1	!	1346	0	0	0	0	0	0	0	0	0	0	0	0	0	0	0	0	0	0	0	0	0	0	0	0	0	0	0	0	0	0	0	0	0
112918	11:51:59	11:55:35	213645	5.0.10.0	995	Rpleas_acq	Oppo	Rpleas	Amasked	CS_A	1pleas	distractor1	acq_US_pleas_masked	acq2_masked	2	26	480	1	300	300	0	0	442	50	0	1	0	0	0	1	blank2r.bmp	0	1	+	0	7	C3r.bmp	492	1	blank2r.bmp	786	1	CPLW	786	1	blank2r.bmp	866	1	vergnügt	866	1	!	1319	1	!	1346	0	0	0	0	0	0	0	0	0	0	0	0	0	0	0	0	0	0	0	0	0	0	0	0	0	0	0
112918	11:51:59	11:55:37	215884	5.0.10.0	995	Rpleas_acq	Oppo	Rpleas	Amasked	CS_A	1pleas	distractor1	acq_US_unple_masked	acq2_masked	2	27	480	1	300	300	0	0	443	46	0	1	0	0	0	1	blank2r.bmp	0	1	+	0	3	B3r.bmp	492	1	blank2r.bmp	786	1	DHJF	786	1	blank2r.bmp	866	1	engstirnig	866	1	!	1319	1	!	1346	0	0	0	0	0	0	0	0	0	0	0	0	0	0	0	0	0	0	0	0	0	0	0	0	0	0	0
112918	11:51:59	11:55:39	218069	5.0.10.0	995	Rpleas_acq	Oppo	Rpleas	Amasked	CS_A	1pleas	distractor1	acq_US_pleas_masked	acq2_masked	2	28	480	0	300	300	0	0	411	50	0	1	0	0	0	1	blank2r.bmp	0	1	+	0	1	B1r.bmp	492	1	blank2r.bmp	786	1	CPLW	786	1	blank2r.bmp	866	2	anregung	866	1	!	-1	1	!	-1	0	0	0	0	0	0	0	0	0	0	0	0	0	0	0	0	0	0	0	0	0	0	0	0	0	0	0
112918	11:51:59	11:55:42	220322	5.0.10.0	995	Rpleas_acq	Oppo	Rpleas	Amasked	CS_A	1pleas	distractor1	acq_US_pleas_masked	acq2_masked	2	29	480	1	300	300	0	0	427	50	0	1	0	0	0	1	blank2r.bmp	0	1	+	0	7	C3r.bmp	492	1	blank2r.bmp	786	1	CPLW	786	1	blank2r.bmp	866	1	vergnügt	866	1	!	1319	1	!	1332	0	0	0	0	0	0	0	0	0	0	0	0	0	0	0	0	0	0	0	0	0	0	0	0	0	0	0
112918	11:51:59	11:55:44	222588	5.0.10.0	995	Rpleas_acq	Oppo	Rpleas	Amasked	CS_A	1pleas	distractor1	acq_new_unple_masked	acq2_masked	2	30	480	1	300	300	0	0	469	46	0	1	0	0	0	1	blank2r.bmp	0	1	+	0	4	B4r.bmp	492	1	blank2r.bmp	786	1	ausrottung	866	1	!	1319	1	!	1372	0	0	0	0	0	0	0	0	0	0	0	0	0	0	0	0	0	0	0	0	0	0	0	0	0	0	0	0	0	0	0	0	0
112918	11:51:59	11:55:46	224853	5.0.10.0	995	Rpleas_acq	Oppo	Rpleas	Amasked	CS_A	1pleas	distractor1	acq_US_unple_masked	acq2_masked	2	31	480	1	300	300	0	0	476	46	0	1	0	0	0	1	blank2r.bmp	0	1	+	0	1	B1r.bmp	492	1	blank2r.bmp	786	1	DHJF	786	1	blank2r.bmp	866	3	verbissen	866	1	!	1319	1	!	1372	0	0	0	0	0	0	0	0	0	0	0	0	0	0	0	0	0	0	0	0	0	0	0	0	0	0	0
112918	11:51:59	11:55:48	227039	5.0.10.0	995	Rpleas_acq	Oppo	Rpleas	Amasked	CS_A	1pleas	distractor1	acq_new_pleas_masked	acq2_masked	2	32	480	0	300	300	0	0	400	50	0	1	0	0	0	1	blank2r.bmp	0	1	+	0	5	C1r.bmp	492	1	blank2r.bmp	786	3	sonnig	866	1	!	-1	1	!	-1	0	0	0	0	0	0	0	0	0	0	0	0	0	0	0	0	0	0	0	0	0	0	0	0	0	0	0	0	0	0	0	0	0
112918	11:51:59	11:55:51	229398	5.0.10.0	995	Rpleas_acq	Oppo	Rpleas	Amasked	CS_A	1pleas	distractor1	acq_new_pleas_masked	acq2_masked	2	33	480	1	300	300	0	0	539	50	0	1	0	0	0	1	blank2r.bmp	0	1	+	0	3	B3r.bmp	492	1	blank2r.bmp	786	5	besonnen	866	1	!	1319	1	!	1439	0	0	0	0	0	0	0	0	0	0	0	0	0	0	0	0	0	0	0	0	0	0	0	0	0	0	0	0	0	0	0	0	0
112918	11:51:59	11:55:53	231691	5.0.10.0	995	Rpleas_acq	Oppo	Rpleas	Amasked	CS_A	1pleas	distractor1	acq_US_unple_masked	acq2_masked	2	34	480	1	300	300	0	0	495	46	0	1	0	0	0	1	blank2r.bmp	0	1	+	0	2	B2r.bmp	492	1	blank2r.bmp	786	1	DHJF	786	1	blank2r.bmp	866	5	sterben	866	1	!	1319	1	!	1399	0	0	0	0	0	0	0	0	0	0	0	0	0	0	0	0	0	0	0	0	0	0	0	0	0	0	0
112918	11:51:59	11:55:55	233916	5.0.10.0	995	Rpleas_acq	Oppo	Rpleas	Amasked	CS_A	1pleas	distractor1	acq_US_unple_masked	acq2_masked	2	35	480	1	300	300	0	0	432	46	0	1	0	0	0	1	blank2r.bmp	0	1	+	0	8	C4r.bmp	492	1	blank2r.bmp	786	1	DHJF	786	1	blank2r.bmp	866	5	sterben	866	1	!	1319	1	!	1332	0	0	0	0	0	0	0	0	0	0	0	0	0	0	0	0	0	0	0	0	0	0	0	0	0	0	0
112918	11:51:59	11:55:58	236102	5.0.10.0	995	Rpleas_acq	Oppo	Rpleas	Amasked	CS_A	1pleas	distractor1	acq_US_pleas_masked	acq2_masked	2	36	480	0	300	300	0	0	409	50	0	1	0	0	0	1	blank2r.bmp	0	1	+	0	6	C2r.bmp	492	1	blank2r.bmp	786	1	CPLW	786	1	blank2r.bmp	866	6	kuss	866	1	!	-1	1	!	-1	0	0	0	0	0	0	0	0	0	0	0	0	0	0	0	0	0	0	0	0	0	0	0	0	0	0	0
112918	11:51:59	11:56:09	247284	5.0.10.0	995	Rpleas_acq	Oppo	Rpleas	Amasked	CS_A	1pleas	distractor1	acq_new_pleas_masked	acq3_masked	3	1	453	0	300	300	0	0	386	50	0	1	0	0	0	1	blank2r.bmp	0	1	+	0	1	B1r.bmp	492	1	blank2r.bmp	786	4	gesittet	866	1	!	-1	1	!	-1	0	0	0	0	0	0	0	0	0	0	0	0	0	0	0	0	0	0	0	0	0	0	0	0	0	0	0	0	0	0	0	0	0
112918	11:51:59	11:56:11	249550	5.0.10.0	995	Rpleas_acq	Oppo	Rpleas	Amasked	CS_A	1pleas	distractor1	acq_US_unple_masked	acq3_masked	3	2	453	1	300	300	0	0	456	46	0	1	0	0	0	1	blank2r.bmp	0	1	+	0	3	B3r.bmp	492	1	blank2r.bmp	786	1	DHJF	786	1	blank2r.bmp	866	3	verbissen	866	1	!	1292	1	!	1359	0	0	0	0	0	0	0	0	0	0	0	0	0	0	0	0	0	0	0	0	0	0	0	0	0	0	0
112918	11:51:59	11:56:14	252095	5.0.10.0	995	Rpleas_acq	Oppo	Rpleas	Amasked	CS_A	1pleas	distractor1	acq_US_pleas_masked	acq3_masked	3	3	453	1	300	300	0	0	519	46	0	0	0	0	0	1	blank2r.bmp	0	1	+	0	2	B2r.bmp	492	1	blank2r.bmp	786	1	CPLW	786	1	blank2r.bmp	866	2	anregung	866	1	FEHLER	1745	1	!	1292	1	!	1426	0	0	0	0	0	0	0	0	0	0	0	0	0	0	0	0	0	0	0	0	0	0	0	0
112918	11:51:59	11:56:16	254161	5.0.10.0	995	Rpleas_acq	Oppo	Rpleas	Amasked	CS_A	1pleas	distractor1	acq_new_pleas_masked	acq3_masked	3	4	453	1	300	300	0	0	484	50	0	1	0	0	0	1	blank2r.bmp	0	1	+	0	7	C3r.bmp	492	1	blank2r.bmp	786	2	engagiert	866	1	!	1292	1	!	1386	0	0	0	0	0	0	0	0	0	0	0	0	0	0	0	0	0	0	0	0	0	0	0	0	0	0	0	0	0	0	0	0	0
112918	11:51:59	11:56:18	256480	5.0.10.0	995	Rpleas_acq	Oppo	Rpleas	Amasked	CS_A	1pleas	distractor1	acq_US_unple_masked	acq3_masked	3	5	453	0	300	300	0	0	545	46	0	1	0	0	0	1	blank2r.bmp	0	1	+	0	6	C2r.bmp	492	1	blank2r.bmp	786	1	DHJF	786	1	blank2r.bmp	866	4	krank	866	1	!	1292	1	!	-1	0	0	0	0	0	0	0	0	0	0	0	0	0	0	0	0	0	0	0	0	0	0	0	0	0	0	0
112918	11:51:59	11:56:20	258773	5.0.10.0	995	Rpleas_acq	Oppo	Rpleas	Amasked	CS_A	1pleas	distractor1	acq_US_pleas_masked	acq3_masked	3	6	453	1	300	300	0	0	484	50	0	1	0	0	0	1	blank2r.bmp	0	1	+	0	4	B4r.bmp	492	1	blank2r.bmp	786	1	CPLW	786	1	blank2r.bmp	866	4	vertrauen	866	1	!	1292	1	!	1386	0	0	0	0	0	0	0	0	0	0	0	0	0	0	0	0	0	0	0	0	0	0	0	0	0	0	0
112918	11:51:59	11:56:22	260972	5.0.10.0	995	Rpleas_acq	Oppo	Rpleas	Amasked	CS_A	1pleas	distractor1	acq_US_pleas_masked	acq3_masked	3	7	453	1	300	300	0	0	399	50	0	1	0	0	0	1	blank2r.bmp	0	1	+	0	5	C1r.bmp	492	1	blank2r.bmp	786	1	CPLW	786	1	blank2r.bmp	866	5	kreativ	866	1	!	1292	1	!	1306	0	0	0	0	0	0	0	0	0	0	0	0	0	0	0	0	0	0	0	0	0	0	0	0	0	0	0
112918	11:51:59	11:56:25	263291	5.0.10.0	995	Rpleas_acq	Oppo	Rpleas	Amasked	CS_A	1pleas	distractor1	acq_US_pleas_masked	acq3_masked	3	8	453	0	300	300	0	0	331	46	0	0	0	0	0	1	blank2r.bmp	0	1	+	0	8	C4r.bmp	492	1	blank2r.bmp	786	1	CPLW	786	1	blank2r.bmp	866	3	gütig	866	1	FEHLER	1532	1	!	-1	1	!	-1	0	0	0	0	0	0	0	0	0	0	0	0	0	0	0	0	0	0	0	0	0	0	0	0
112918	11:51:59	11:56:27	265277	5.0.10.0	995	Rpleas_acq	Oppo	Rpleas	Amasked	CS_A	1pleas	distractor1	acq_new_pleas_masked	acq3_masked	3	9	453	1	300	300	0	0	408	50	0	1	0	0	0	1	blank2r.bmp	0	1	+	0	4	B4r.bmp	492	1	blank2r.bmp	786	2	engagiert	866	1	!	1292	1	!	1306	0	0	0	0	0	0	0	0	0	0	0	0	0	0	0	0	0	0	0	0	0	0	0	0	0	0	0	0	0	0	0	0	0
112918	11:51:59	11:56:29	267569	5.0.10.0	995	Rpleas_acq	Oppo	Rpleas	Amasked	CS_A	1pleas	distractor1	acq_new_unple_masked	acq3_masked	3	10	453	1	300	300	0	0	496	46	0	1	0	0	0	1	blank2r.bmp	0	1	+	0	3	B3r.bmp	492	1	blank2r.bmp	786	2	gemein	866	1	!	1292	1	!	1399	0	0	0	0	0	0	0	0	0	0	0	0	0	0	0	0	0	0	0	0	0	0	0	0	0	0	0	0	0	0	0	0	0
112918	11:51:59	11:56:31	269928	5.0.10.0	995	Rpleas_acq	Oppo	Rpleas	Amasked	CS_A	1pleas	distractor1	acq_US_pleas_masked	acq3_masked	3	11	453	0	300	300	0	0	366	46	0	0	0	0	0	1	blank2r.bmp	0	1	+	0	7	C3r.bmp	492	1	blank2r.bmp	786	1	CPLW	786	1	blank2r.bmp	866	3	gütig	866	1	FEHLER	1572	1	!	-1	1	!	-1	0	0	0	0	0	0	0	0	0	0	0	0	0	0	0	0	0	0	0	0	0	0	0	0
112918	11:51:59	11:56:33	272021	5.0.10.0	995	Rpleas_acq	Oppo	Rpleas	Amasked	CS_A	1pleas	distractor1	acq_US_pleas_masked	acq3_masked	3	12	453	1	300	300	0	0	517	50	0	1	0	0	0	1	blank2r.bmp	0	1	+	0	5	C1r.bmp	492	1	blank2r.bmp	786	1	CPLW	786	1	blank2r.bmp	866	1	vergnügt	866	1	!	1292	1	!	1412	0	0	0	0	0	0	0	0	0	0	0	0	0	0	0	0	0	0	0	0	0	0	0	0	0	0	0
112918	11:51:59	11:56:36	274220	5.0.10.0	995	Rpleas_acq	Oppo	Rpleas	Amasked	CS_A	1pleas	distractor1	acq_new_pleas_masked	acq3_masked	3	13	453	1	300	300	0	0	410	50	0	1	0	0	0	1	blank2r.bmp	0	1	+	0	1	B1r.bmp	492	1	blank2r.bmp	786	3	sonnig	866	1	!	1292	1	!	1306	0	0	0	0	0	0	0	0	0	0	0	0	0	0	0	0	0	0	0	0	0	0	0	0	0	0	0	0	0	0	0	0	0
112918	11:51:59	11:56:38	276432	5.0.10.0	995	Rpleas_acq	Oppo	Rpleas	Amasked	CS_A	1pleas	distractor1	acq_new_unple_masked	acq3_masked	3	14	453	1	300	300	0	0	415	46	0	1	0	0	0	1	blank2r.bmp	0	1	+	0	6	C2r.bmp	492	1	blank2r.bmp	786	1	ausrottung	866	1	!	1292	1	!	1319	0	0	0	0	0	0	0	0	0	0	0	0	0	0	0	0	0	0	0	0	0	0	0	0	0	0	0	0	0	0	0	0	0
112918	11:51:59	11:56:40	278631	5.0.10.0	995	Rpleas_acq	Oppo	Rpleas	Amasked	CS_A	1pleas	distractor1	acq_US_pleas_masked	acq3_masked	3	15	453	1	300	300	0	0	399	50	0	1	0	0	0	1	blank2r.bmp	0	1	+	0	2	B2r.bmp	492	1	blank2r.bmp	786	1	CPLW	786	1	blank2r.bmp	866	2	anregung	866	1	!	1292	1	!	1306	0	0	0	0	0	0	0	0	0	0	0	0	0	0	0	0	0	0	0	0	0	0	0	0	0	0	0
112918	11:51:59	11:56:42	280937	5.0.10.0	995	Rpleas_acq	Oppo	Rpleas	Amasked	CS_A	1pleas	distractor1	acq_US_pleas_masked	acq3_masked	3	16	453	0	300	300	0	0	532	50	0	1	0	0	0	1	blank2r.bmp	0	1	+	0	8	C4r.bmp	492	1	blank2r.bmp	786	1	CPLW	786	1	blank2r.bmp	866	4	vertrauen	866	1	!	1292	1	!	-1	0	0	0	0	0	0	0	0	0	0	0	0	0	0	0	0	0	0	0	0	0	0	0	0	0	0	0
112918	11:51:59	11:56:45	283189	5.0.10.0	995	Rpleas_acq	Oppo	Rpleas	Amasked	CS_A	1pleas	distractor1	acq_new_pleas_masked	acq3_masked	3	17	453	1	300	300	0	0	434	50	0	1	0	0	0	1	blank2r.bmp	0	1	+	0	4	B4r.bmp	492	1	blank2r.bmp	786	4	gesittet	866	1	!	1292	1	!	1332	0	0	0	0	0	0	0	0	0	0	0	0	0	0	0	0	0	0	0	0	0	0	0	0	0	0	0	0	0	0	0	0	0
112918	11:51:59	11:56:47	285388	5.0.10.0	995	Rpleas_acq	Oppo	Rpleas	Amasked	CS_A	1pleas	distractor1	acq_US_pleas_masked	acq3_masked	3	18	453	1	300	300	0	0	409	50	0	1	0	0	0	1	blank2r.bmp	0	1	+	0	3	B3r.bmp	492	1	blank2r.bmp	786	1	CPLW	786	1	blank2r.bmp	866	5	kreativ	866	1	!	1292	1	!	1306	0	0	0	0	0	0	0	0	0	0	0	0	0	0	0	0	0	0	0	0	0	0	0	0	0	0	0
112918	11:51:59	11:56:49	287628	5.0.10.0	995	Rpleas_acq	Oppo	Rpleas	Amasked	CS_A	1pleas	distractor1	acq_new_unple_masked	acq3_masked	3	19	453	1	300	300	0	0	439	46	0	1	0	0	0	1	blank2r.bmp	0	1	+	0	1	B1r.bmp	492	1	blank2r.bmp	786	2	gemein	866	1	!	1292	1	!	1346	0	0	0	0	0	0	0	0	0	0	0	0	0	0	0	0	0	0	0	0	0	0	0	0	0	0	0	0	0	0	0	0	0
112918	11:51:59	11:56:51	289920	5.0.10.0	995	Rpleas_acq	Oppo	Rpleas	Amasked	CS_A	1pleas	distractor1	acq_US_unple_masked	acq3_masked	3	20	453	1	300	300	0	0	490	46	0	1	0	0	0	1	blank2r.bmp	0	1	+	0	7	C3r.bmp	492	1	blank2r.bmp	786	1	DHJF	786	1	blank2r.bmp	866	6	versagen	866	1	!	1292	1	!	1386	0	0	0	0	0	0	0	0	0	0	0	0	0	0	0	0	0	0	0	0	0	0	0	0	0	0	0
112918	11:51:59	11:56:54	292239	5.0.10.0	995	Rpleas_acq	Oppo	Rpleas	Amasked	CS_A	1pleas	distractor1	acq_US_unple_masked	acq3_masked	3	21	453	1	300	300	0	0	506	46	0	1	0	0	0	1	blank2r.bmp	0	1	+	0	8	C4r.bmp	492	1	blank2r.bmp	786	1	DHJF	786	1	blank2r.bmp	866	1	engstirnig	866	1	!	1292	1	!	1412	0	0	0	0	0	0	0	0	0	0	0	0	0	0	0	0	0	0	0	0	0	0	0	0	0	0	0
112918	11:51:59	11:56:56	294438	5.0.10.0	995	Rpleas_acq	Oppo	Rpleas	Amasked	CS_A	1pleas	distractor1	acq_US_pleas_masked	acq3_masked	3	22	453	1	300	300	0	0	406	50	0	1	0	0	0	1	blank2r.bmp	0	1	+	0	6	C2r.bmp	492	1	blank2r.bmp	786	1	CPLW	786	1	blank2r.bmp	866	6	kuss	866	1	!	1292	1	!	1306	0	0	0	0	0	0	0	0	0	0	0	0	0	0	0	0	0	0	0	0	0	0	0	0	0	0	0
112918	11:51:59	11:56:58	296904	5.0.10.0	995	Rpleas_acq	Oppo	Rpleas	Amasked	CS_A	1pleas	distractor1	acq_US_unple_masked	acq3_masked	3	23	453	0	300	300	0	0	692	46	0	1	0	0	0	1	blank2r.bmp	0	1	+	0	2	B2r.bmp	492	1	blank2r.bmp	786	1	DHJF	786	1	blank2r.bmp	866	2	geizig	866	1	!	1292	1	!	-1	0	0	0	0	0	0	0	0	0	0	0	0	0	0	0	0	0	0	0	0	0	0	0	0	0	0	0
112918	11:51:59	11:57:01	299183	5.0.10.0	995	Rpleas_acq	Oppo	Rpleas	Amasked	CS_A	1pleas	distractor1	acq_US_pleas_masked	acq3_masked	3	24	453	1	300	300	0	0	473	50	0	1	0	0	0	1	blank2r.bmp	0	1	+	0	5	C1r.bmp	492	1	blank2r.bmp	786	1	CPLW	786	1	blank2r.bmp	866	2	anregung	866	1	!	1292	1	!	1372	0	0	0	0	0	0	0	0	0	0	0	0	0	0	0	0	0	0	0	0	0	0	0	0	0	0	0
112918	11:51:59	11:57:03	301555	5.0.10.0	995	Rpleas_acq	Oppo	Rpleas	Amasked	CS_A	1pleas	distractor1	acq_US_pleas_masked	acq3_masked	3	25	453	0	300	300	0	0	381	46	0	0	0	0	0	1	blank2r.bmp	0	1	+	0	2	B2r.bmp	492	1	blank2r.bmp	786	1	CPLW	786	1	blank2r.bmp	866	3	gütig	866	1	FEHLER	1586	1	!	-1	1	!	-1	0	0	0	0	0	0	0	0	0	0	0	0	0	0	0	0	0	0	0	0	0	0	0	0
112918	11:51:59	11:57:05	303541	5.0.10.0	995	Rpleas_acq	Oppo	Rpleas	Amasked	CS_A	1pleas	distractor1	acq_US_unple_masked	acq3_masked	3	26	453	1	300	300	0	0	412	46	0	1	0	0	0	1	blank2r.bmp	0	1	+	0	3	B3r.bmp	492	1	blank2r.bmp	786	1	DHJF	786	1	blank2r.bmp	866	4	krank	866	1	!	1292	1	!	1306	0	0	0	0	0	0	0	0	0	0	0	0	0	0	0	0	0	0	0	0	0	0	0	0	0	0	0
112918	11:51:59	11:57:07	305980	5.0.10.0	995	Rpleas_acq	Oppo	Rpleas	Amasked	CS_A	1pleas	distractor1	acq_US_unple_masked	acq3_masked	3	27	453	1	300	300	0	0	425	50	0	0	0	0	0	1	blank2r.bmp	0	1	+	0	7	C3r.bmp	492	1	blank2r.bmp	786	1	DHJF	786	1	blank2r.bmp	866	1	engstirnig	866	1	FEHLER	1639	1	!	1292	1	!	1319	0	0	0	0	0	0	0	0	0	0	0	0	0	0	0	0	0	0	0	0	0	0	0	0
112918	11:51:59	11:57:09	307992	5.0.10.0	995	Rpleas_acq	Oppo	Rpleas	Amasked	CS_A	1pleas	distractor1	acq_new_unple_masked	acq3_masked	3	28	453	1	300	300	0	0	435	46	0	1	0	0	0	1	blank2r.bmp	0	1	+	0	1	B1r.bmp	492	1	blank2r.bmp	786	6	töten	866	1	!	1292	1	!	1332	0	0	0	0	0	0	0	0	0	0	0	0	0	0	0	0	0	0	0	0	0	0	0	0	0	0	0	0	0	0	0	0	0
112918	11:51:59	11:57:12	310245	5.0.10.0	995	Rpleas_acq	Oppo	Rpleas	Amasked	CS_A	1pleas	distractor1	acq_US_pleas_masked	acq3_masked	3	29	453	1	300	300	0	0	453	50	0	1	0	0	0	1	blank2r.bmp	0	1	+	0	5	C1r.bmp	492	1	blank2r.bmp	786	1	CPLW	786	1	blank2r.bmp	866	5	kreativ	866	1	!	1292	1	!	1359	0	0	0	0	0	0	0	0	0	0	0	0	0	0	0	0	0	0	0	0	0	0	0	0	0	0	0
112918	11:51:59	11:57:14	312471	5.0.10.0	995	Rpleas_acq	Oppo	Rpleas	Amasked	CS_A	1pleas	distractor1	acq_new_unple_masked	acq3_masked	3	30	453	1	300	300	0	0	437	46	0	1	0	0	0	1	blank2r.bmp	0	1	+	0	4	B4r.bmp	492	1	blank2r.bmp	786	4	krise	866	1	!	1292	1	!	1332	0	0	0	0	0	0	0	0	0	0	0	0	0	0	0	0	0	0	0	0	0	0	0	0	0	0	0	0	0	0	0	0	0
112918	11:51:59	11:57:16	314990	5.0.10.0	995	Rpleas_acq	Oppo	Rpleas	Amasked	CS_A	1pleas	distractor1	acq_US_unple_masked	acq3_masked	3	31	453	1	300	300	0	0	512	50	0	0	0	0	0	1	blank2r.bmp	0	1	+	0	8	C4r.bmp	492	1	blank2r.bmp	786	1	DHJF	786	1	blank2r.bmp	866	6	versagen	866	1	FEHLER	1732	1	!	1292	1	!	1412	0	0	0	0	0	0	0	0	0	0	0	0	0	0	0	0	0	0	0	0	0	0	0	0
112918	11:51:59	11:57:18	316909	5.0.10.0	995	Rpleas_acq	Oppo	Rpleas	Amasked	CS_A	1pleas	distractor1	acq_new_pleas_masked	acq3_masked	3	32	453	0	300	300	0	0	363	50	0	1	0	0	0	1	blank2r.bmp	0	1	+	0	6	C2r.bmp	492	1	blank2r.bmp	786	6	genießen	866	1	!	-1	1	!	-1	0	0	0	0	0	0	0	0	0	0	0	0	0	0	0	0	0	0	0	0	0	0	0	0	0	0	0	0	0	0	0	0	0
112918	11:51:59	11:57:21	319255	5.0.10.0	995	Rpleas_acq	Oppo	Rpleas	Amasked	CS_A	1pleas	distractor1	acq_US_pleas_masked	acq3_masked	3	33	453	0	300	300	0	0	569	50	0	1	0	0	0	1	blank2r.bmp	0	1	+	0	1	B1r.bmp	492	1	blank2r.bmp	786	1	CPLW	786	1	blank2r.bmp	866	4	vertrauen	866	1	!	1292	1	!	-1	0	0	0	0	0	0	0	0	0	0	0	0	0	0	0	0	0	0	0	0	0	0	0	0	0	0	0
112918	11:51:59	11:57:23	321534	5.0.10.0	995	Rpleas_acq	Oppo	Rpleas	Amasked	CS_A	1pleas	distractor1	acq_new_pleas_masked	acq3_masked	3	34	453	1	300	300	0	0	472	50	0	1	0	0	0	1	blank2r.bmp	0	1	+	0	4	B4r.bmp	492	1	blank2r.bmp	786	1	träumen	866	1	!	1292	1	!	1372	0	0	0	0	0	0	0	0	0	0	0	0	0	0	0	0	0	0	0	0	0	0	0	0	0	0	0	0	0	0	0	0	0
112918	11:51:59	11:57:25	323733	5.0.10.0	995	Rpleas_acq	Oppo	Rpleas	Amasked	CS_A	1pleas	distractor1	acq_US_pleas_masked	acq3_masked	3	35	453	1	300	300	0	0	400	50	0	1	0	0	0	1	blank2r.bmp	0	1	+	0	2	B2r.bmp	492	1	blank2r.bmp	786	1	CPLW	786	1	blank2r.bmp	866	6	kuss	866	1	!	1292	1	!	1306	0	0	0	0	0	0	0	0	0	0	0	0	0	0	0	0	0	0	0	0	0	0	0	0	0	0	0
112918	11:51:59	11:57:27	326078	5.0.10.0	995	Rpleas_acq	Oppo	Rpleas	Amasked	CS_A	1pleas	distractor1	acq_US_unple_masked	acq3_masked	3	36	453	0	300	300	0	0	354	50	0	0	0	0	0	1	blank2r.bmp	0	1	+	0	7	C3r.bmp	492	1	blank2r.bmp	786	1	DHJF	786	1	blank2r.bmp	866	2	geizig	866	1	FEHLER	1559	1	!	-1	1	!	-1	0	0	0	0	0	0	0	0	0	0	0	0	0	0	0	0	0	0	0	0	0	0	0	0
112918	11:51:59	11:57:35	333635	5.0.10.0	995	Rpleas_acq	Oppo	Rpleas	Amasked	CS_A	1pleas	distractor1	acq_US_unple_masked	acq45_masked	4	1	400	1	300	300	0	0	423	46	0	1	0	0	0	1	blank2r.bmp	0	1	+	0	6	C2r.bmp	492	1	blank2r.bmp	786	1	DHJF	786	1	blank2r.bmp	866	3	verbissen	866	1	!	1239	1	!	1319	0	0	0	0	0	0	0	0	0	0	0	0	0	0	0	0	0	0	0	0	0	0	0	0	0	0	0
112918	11:51:59	11:57:37	335901	5.0.10.0	995	Rpleas_acq	Oppo	Rpleas	Amasked	CS_A	1pleas	distractor1	acq_US_pleas_masked	acq45_masked	4	2	400	0	300	300	0	0	493	50	0	1	0	0	0	1	blank2r.bmp	0	1	+	0	5	C1r.bmp	492	1	blank2r.bmp	786	1	CPLW	786	1	blank2r.bmp	866	1	vergnügt	866	1	!	1239	1	!	-1	0	0	0	0	0	0	0	0	0	0	0	0	0	0	0	0	0	0	0	0	0	0	0	0	0	0	0
112918	11:51:59	11:57:40	338167	5.0.10.0	995	Rpleas_acq	Oppo	Rpleas	Amasked	CS_A	1pleas	distractor1	acq_US_unple_masked	acq45_masked	4	3	400	1	300	300	0	0	465	46	0	1	0	0	0	1	blank2r.bmp	0	1	+	0	8	C4r.bmp	492	1	blank2r.bmp	786	1	DHJF	786	1	blank2r.bmp	866	5	sterben	866	1	!	1239	1	!	1359	0	0	0	0	0	0	0	0	0	0	0	0	0	0	0	0	0	0	0	0	0	0	0	0	0	0	0
112918	11:51:59	11:57:42	340366	5.0.10.0	995	Rpleas_acq	Oppo	Rpleas	Amasked	CS_A	1pleas	distractor1	acq_US_pleas_masked	acq45_masked	4	4	400	1	300	300	0	0	402	50	0	1	0	0	0	1	blank2r.bmp	0	1	+	0	3	B3r.bmp	492	1	blank2r.bmp	786	1	CPLW	786	1	blank2r.bmp	866	5	kreativ	866	1	!	1239	1	!	1306	0	0	0	0	0	0	0	0	0	0	0	0	0	0	0	0	0	0	0	0	0	0	0	0	0	0	0
112918	11:51:59	11:57:44	342592	5.0.10.0	995	Rpleas_acq	Oppo	Rpleas	Amasked	CS_A	1pleas	distractor1	acq_US_unple_masked	acq45_masked	4	5	400	1	300	300	0	0	427	46	0	1	0	0	0	1	blank2r.bmp	0	1	+	0	2	B2r.bmp	492	1	blank2r.bmp	786	1	DHJF	786	1	blank2r.bmp	866	6	versagen	866	1	!	1239	1	!	1332	0	0	0	0	0	0	0	0	0	0	0	0	0	0	0	0	0	0	0	0	0	0	0	0	0	0	0
112918	11:51:59	11:57:46	344764	5.0.10.0	995	Rpleas_acq	Oppo	Rpleas	Amasked	CS_A	1pleas	distractor1	acq_US_unple_masked	acq45_masked	4	6	400	1	300	300	0	0	377	50	0	0	0	0	0	1	blank2r.bmp	0	1	+	0	4	B4r.bmp	492	1	blank2r.bmp	786	1	DHJF	786	1	blank2r.bmp	866	1	engstirnig	866	1	!	1239	1	!	1279	0	0	0	0	0	0	0	0	0	0	0	0	0	0	0	0	0	0	0	0	0	0	0	0	0	0	0
112918	11:51:59	11:57:48	347070	5.0.10.0	995	Rpleas_acq	Oppo	Rpleas	Amasked	CS_A	1pleas	distractor1	acq_US_pleas_masked	acq45_masked	4	7	400	0	300	300	0	0	540	46	0	0	0	0	0	1	blank2r.bmp	0	1	+	0	3	B3r.bmp	492	1	blank2r.bmp	786	1	CPLW	786	1	blank2r.bmp	866	2	anregung	866	1	!	1239	1	!	-1	0	0	0	0	0	0	0	0	0	0	0	0	0	0	0	0	0	0	0	0	0	0	0	0	0	0	0
112918	11:51:59	11:57:51	349269	5.0.10.0	995	Rpleas_acq	Oppo	Rpleas	Amasked	CS_A	1pleas	distractor1	acq_US_unple_masked	acq45_masked	4	8	400	1	300	300	0	0	389	46	0	1	0	0	0	1	blank2r.bmp	0	1	+	0	5	C1r.bmp	492	1	blank2r.bmp	786	1	DHJF	786	1	blank2r.bmp	866	4	krank	866	1	!	1239	1	!	1292	0	0	0	0	0	0	0	0	0	0	0	0	0	0	0	0	0	0	0	0	0	0	0	0	0	0	0
112918	11:51:59	11:57:53	351468	5.0.10.0	995	Rpleas_acq	Oppo	Rpleas	Amasked	CS_A	1pleas	distractor1	acq_US_unple_masked	acq45_masked	4	9	400	1	300	300	0	0	401	50	0	0	0	0	0	1	blank2r.bmp	0	1	+	0	8	C4r.bmp	492	1	blank2r.bmp	786	1	DHJF	786	1	blank2r.bmp	866	5	sterben	866	1	!	1239	1	!	1306	0	0	0	0	0	0	0	0	0	0	0	0	0	0	0	0	0	0	0	0	0	0	0	0	0	0	0
112918	11:51:59	11:57:55	353720	5.0.10.0	995	Rpleas_acq	Oppo	Rpleas	Amasked	CS_A	1pleas	distractor1	acq_US_unple_masked	acq45_masked	4	10	400	0	300	300	0	0	479	46	0	1	0	0	0	1	blank2r.bmp	0	1	+	0	7	C3r.bmp	492	1	blank2r.bmp	786	1	DHJF	786	1	blank2r.bmp	866	2	geizig	866	1	!	1239	1	!	-1	0	0	0	0	0	0	0	0	0	0	0	0	0	0	0	0	0	0	0	0	0	0	0	0	0	0	0
112918	11:51:59	11:57:57	355946	5.0.10.0	995	Rpleas_acq	Oppo	Rpleas	Amasked	CS_A	1pleas	distractor1	acq_US_unple_masked	acq45_masked	4	11	400	1	300	300	0	0	415	46	0	1	0	0	0	1	blank2r.bmp	0	1	+	0	1	B1r.bmp	492	1	blank2r.bmp	786	1	DHJF	786	1	blank2r.bmp	866	3	verbissen	866	1	!	1239	1	!	1319	0	0	0	0	0	0	0	0	0	0	0	0	0	0	0	0	0	0	0	0	0	0	0	0	0	0	0
112918	11:51:59	11:58:00	358185	5.0.10.0	995	Rpleas_acq	Oppo	Rpleas	Amasked	CS_A	1pleas	distractor1	acq_US_pleas_masked	acq45_masked	4	12	400	1	300	300	0	0	444	50	0	1	0	0	0	1	blank2r.bmp	0	1	+	0	6	C2r.bmp	492	1	blank2r.bmp	786	1	CPLW	786	1	blank2r.bmp	866	3	gütig	866	1	!	1239	1	!	1346	0	0	0	0	0	0	0	0	0	0	0	0	0	0	0	0	0	0	0	0	0	0	0	0	0	0	0
112918	11:51:59	11:58:02	360411	5.0.10.0	995	Rpleas_acq	Oppo	Rpleas	Amasked	CS_A	1pleas	distractor1	acq_US_pleas_masked	acq45_masked	4	13	400	1	300	300	0	0	422	50	0	1	0	0	0	1	blank2r.bmp	0	1	+	0	5	C1r.bmp	492	1	blank2r.bmp	786	1	CPLW	786	1	blank2r.bmp	866	1	vergnügt	866	1	!	1239	1	!	1319	0	0	0	0	0	0	0	0	0	0	0	0	0	0	0	0	0	0	0	0	0	0	0	0	0	0	0
112918	11:51:59	11:58:04	362663	5.0.10.0	995	Rpleas_acq	Oppo	Rpleas	Amasked	CS_A	1pleas	distractor1	acq_US_unple_masked	acq45_masked	4	14	400	1	300	300	0	0	455	46	0	1	0	0	0	1	blank2r.bmp	0	1	+	0	6	C2r.bmp	492	1	blank2r.bmp	786	1	DHJF	786	1	blank2r.bmp	866	1	engstirnig	866	1	!	1239	1	!	1359	0	0	0	0	0	0	0	0	0	0	0	0	0	0	0	0	0	0	0	0	0	0	0	0	0	0	0
112918	11:51:59	11:58:06	364916	5.0.10.0	995	Rpleas_acq	Oppo	Rpleas	Amasked	CS_A	1pleas	distractor1	acq_US_pleas_masked	acq45_masked	4	15	400	1	300	300	0	0	441	50	0	1	0	0	0	1	blank2r.bmp	0	1	+	0	1	B1r.bmp	492	1	blank2r.bmp	786	1	CPLW	786	1	blank2r.bmp	866	4	vertrauen	866	1	!	1239	1	!	1346	0	0	0	0	0	0	0	0	0	0	0	0	0	0	0	0	0	0	0	0	0	0	0	0	0	0	0
112918	11:51:59	11:58:09	367101	5.0.10.0	995	Rpleas_acq	Oppo	Rpleas	Amasked	CS_A	1pleas	distractor1	acq_US_pleas_masked	acq45_masked	4	16	400	1	300	300	0	0	396	50	0	1	0	0	0	1	blank2r.bmp	0	1	+	0	3	B3r.bmp	492	1	blank2r.bmp	786	1	CPLW	786	1	blank2r.bmp	866	6	kuss	866	1	!	1239	1	!	1292	0	0	0	0	0	0	0	0	0	0	0	0	0	0	0	0	0	0	0	0	0	0	0	0	0	0	0
112918	11:51:59	11:58:11	369341	5.0.10.0	995	Rpleas_acq	Oppo	Rpleas	Amasked	CS_A	1pleas	distractor1	acq_US_pleas_masked	acq45_masked	4	17	400	1	300	300	0	0	441	50	0	1	0	0	0	1	blank2r.bmp	0	1	+	0	8	C4r.bmp	492	1	blank2r.bmp	786	1	CPLW	786	1	blank2r.bmp	866	2	anregung	866	1	!	1239	1	!	1346	0	0	0	0	0	0	0	0	0	0	0	0	0	0	0	0	0	0	0	0	0	0	0	0	0	0	0
112918	11:51:59	11:58:13	371446	5.0.10.0	995	Rpleas_acq	Oppo	Rpleas	Amasked	CS_A	1pleas	distractor1	acq_US_pleas_masked	acq45_masked	4	18	400	0	300	300	0	0	325	46	0	0	0	0	0	1	blank2r.bmp	0	1	+	0	4	B4r.bmp	492	1	blank2r.bmp	786	1	CPLW	786	1	blank2r.bmp	866	3	gütig	866	1	!	-1	1	!	-1	0	0	0	0	0	0	0	0	0	0	0	0	0	0	0	0	0	0	0	0	0	0	0	0	0	0	0
112918	11:51:59	11:58:15	373672	5.0.10.0	995	Rpleas_acq	Oppo	Rpleas	Amasked	CS_A	1pleas	distractor1	acq_US_unple_masked	acq45_masked	4	19	400	1	300	300	0	0	423	50	0	0	0	0	0	1	blank2r.bmp	0	1	+	0	7	C3r.bmp	492	1	blank2r.bmp	786	1	DHJF	786	1	blank2r.bmp	866	5	sterben	866	1	!	1239	1	!	1319	0	0	0	0	0	0	0	0	0	0	0	0	0	0	0	0	0	0	0	0	0	0	0	0	0	0	0
112918	11:51:59	11:58:17	375978	5.0.10.0	995	Rpleas_acq	Oppo	Rpleas	Amasked	CS_A	1pleas	distractor1	acq_US_pleas_masked	acq45_masked	4	20	400	0	300	300	0	0	542	50	0	1	0	0	0	1	blank2r.bmp	0	1	+	0	2	B2r.bmp	492	1	blank2r.bmp	786	1	CPLW	786	1	blank2r.bmp	866	4	vertrauen	866	1	!	1239	1	!	-1	0	0	0	0	0	0	0	0	0	0	0	0	0	0	0	0	0	0	0	0	0	0	0	0	0	0	0
112918	11:51:59	11:58:20	378190	5.0.10.0	995	Rpleas_acq	Oppo	Rpleas	Amasked	CS_A	1pleas	distractor1	acq_US_pleas_masked	acq45_masked	4	21	400	1	300	300	0	0	402	50	0	1	0	0	0	1	blank2r.bmp	0	1	+	0	5	C1r.bmp	492	1	blank2r.bmp	786	1	CPLW	786	1	blank2r.bmp	866	1	vergnügt	866	1	!	1239	1	!	1306	0	0	0	0	0	0	0	0	0	0	0	0	0	0	0	0	0	0	0	0	0	0	0	0	0	0	0
112918	11:51:59	11:58:22	380389	5.0.10.0	995	Rpleas_acq	Oppo	Rpleas	Amasked	CS_A	1pleas	distractor1	acq_US_pleas_masked	acq45_masked	4	22	400	1	300	300	0	0	409	50	0	1	0	0	0	1	blank2r.bmp	0	1	+	0	4	B4r.bmp	492	1	blank2r.bmp	786	1	CPLW	786	1	blank2r.bmp	866	5	kreativ	866	1	!	1239	1	!	1306	0	0	0	0	0	0	0	0	0	0	0	0	0	0	0	0	0	0	0	0	0	0	0	0	0	0	0
112918	11:51:59	11:58:24	382562	5.0.10.0	995	Rpleas_acq	Oppo	Rpleas	Amasked	CS_A	1pleas	distractor1	acq_US_unple_masked	acq45_masked	4	23	400	1	300	300	0	0	383	46	0	1	0	0	0	1	blank2r.bmp	0	1	+	0	2	B2r.bmp	492	1	blank2r.bmp	786	1	DHJF	786	1	blank2r.bmp	866	2	geizig	866	1	!	1239	1	!	1279	0	0	0	0	0	0	0	0	0	0	0	0	0	0	0	0	0	0	0	0	0	0	0	0	0	0	0
112918	11:51:59	11:58:26	384761	5.0.10.0	995	Rpleas_acq	Oppo	Rpleas	Amasked	CS_A	1pleas	distractor1	acq_US_unple_masked	acq45_masked	4	24	400	1	300	300	0	0	402	46	0	1	0	0	0	1	blank2r.bmp	0	1	+	0	6	C2r.bmp	492	1	blank2r.bmp	786	1	DHJF	786	1	blank2r.bmp	866	6	versagen	866	1	!	1239	1	!	1306	0	0	0	0	0	0	0	0	0	0	0	0	0	0	0	0	0	0	0	0	0	0	0	0	0	0	0
112918	11:51:59	11:58:28	386933	5.0.10.0	995	Rpleas_acq	Oppo	Rpleas	Amasked	CS_A	1pleas	distractor1	acq_US_unple_masked	acq45_masked	4	25	400	1	300	300	0	0	383	46	0	1	0	0	0	1	blank2r.bmp	0	1	+	0	7	C3r.bmp	492	1	blank2r.bmp	786	1	DHJF	786	1	blank2r.bmp	866	3	verbissen	866	1	!	1239	1	!	1279	0	0	0	0	0	0	0	0	0	0	0	0	0	0	0	0	0	0	0	0	0	0	0	0	0	0	0
112918	11:51:59	11:58:31	389159	5.0.10.0	995	Rpleas_acq	Oppo	Rpleas	Amasked	CS_A	1pleas	distractor1	acq_US_pleas_masked	acq45_masked	4	26	400	1	300	300	0	0	431	50	0	1	0	0	0	1	blank2r.bmp	0	1	+	0	3	B3r.bmp	492	1	blank2r.bmp	786	1	CPLW	786	1	blank2r.bmp	866	6	kuss	866	1	!	1239	1	!	1332	0	0	0	0	0	0	0	0	0	0	0	0	0	0	0	0	0	0	0	0	0	0	0	0	0	0	0
112918	11:51:59	11:58:33	391305	5.0.10.0	995	Rpleas_acq	Oppo	Rpleas	Amasked	CS_A	1pleas	distractor1	acq_US_pleas_masked	acq45_masked	4	27	400	1	300	300	0	0	353	50	0	1	0	0	0	1	blank2r.bmp	0	1	+	0	1	B1r.bmp	492	1	blank2r.bmp	786	1	CPLW	786	1	blank2r.bmp	866	6	kuss	866	1	!	1239	1	!	1252	0	0	0	0	0	0	0	0	0	0	0	0	0	0	0	0	0	0	0	0	0	0	0	0	0	0	0
112918	11:51:59	11:58:35	393464	5.0.10.0	995	Rpleas_acq	Oppo	Rpleas	Amasked	CS_A	1pleas	distractor1	acq_US_pleas_masked	acq45_masked	4	28	400	1	300	300	0	0	346	46	0	0	0	0	0	1	blank2r.bmp	0	1	+	0	8	C4r.bmp	492	1	blank2r.bmp	786	1	CPLW	786	1	blank2r.bmp	866	4	vertrauen	866	1	!	1239	1	!	1252	0	0	0	0	0	0	0	0	0	0	0	0	0	0	0	0	0	0	0	0	0	0	0	0	0	0	0
112918	11:51:59	11:58:37	395716	5.0.10.0	995	Rpleas_acq	Oppo	Rpleas	Amasked	CS_A	1pleas	distractor1	acq_US_unple_masked	acq45_masked	4	29	400	1	300	300	0	0	456	46	0	1	0	0	0	1	blank2r.bmp	0	1	+	0	7	C3r.bmp	492	1	blank2r.bmp	786	1	DHJF	786	1	blank2r.bmp	866	4	krank	866	1	!	1239	1	!	1359	0	0	0	0	0	0	0	0	0	0	0	0	0	0	0	0	0	0	0	0	0	0	0	0	0	0	0
112918	11:51:59	11:58:39	397929	5.0.10.0	995	Rpleas_acq	Oppo	Rpleas	Amasked	CS_A	1pleas	distractor1	acq_US_unple_masked	acq45_masked	4	30	400	1	300	300	0	0	422	46	0	1	0	0	0	1	blank2r.bmp	0	1	+	0	5	C1r.bmp	492	1	blank2r.bmp	786	1	DHJF	786	1	blank2r.bmp	866	1	engstirnig	866	1	!	1239	1	!	1319	0	0	0	0	0	0	0	0	0	0	0	0	0	0	0	0	0	0	0	0	0	0	0	0	0	0	0
112918	11:51:59	11:58:42	400101	5.0.10.0	995	Rpleas_acq	Oppo	Rpleas	Amasked	CS_A	1pleas	distractor1	acq_US_pleas_masked	acq45_masked	4	31	400	1	300	300	0	0	377	50	0	1	0	0	0	1	blank2r.bmp	0	1	+	0	6	C2r.bmp	492	1	blank2r.bmp	786	1	CPLW	786	1	blank2r.bmp	866	1	vergnügt	866	1	!	1239	1	!	1279	0	0	0	0	0	0	0	0	0	0	0	0	0	0	0	0	0	0	0	0	0	0	0	0	0	0	0
112918	11:51:59	11:58:44	402287	5.0.10.0	995	Rpleas_acq	Oppo	Rpleas	Amasked	CS_A	1pleas	distractor1	acq_US_unple_masked	acq45_masked	4	32	400	1	300	300	0	0	388	50	0	0	0	0	0	1	blank2r.bmp	0	1	+	0	2	B2r.bmp	492	1	blank2r.bmp	786	1	DHJF	786	1	blank2r.bmp	866	5	sterben	866	1	!	1239	1	!	1292	0	0	0	0	0	0	0	0	0	0	0	0	0	0	0	0	0	0	0	0	0	0	0	0	0	0	0
112918	11:51:59	11:58:46	404459	5.0.10.0	995	Rpleas_acq	Oppo	Rpleas	Amasked	CS_A	1pleas	distractor1	acq_US_unple_masked	acq45_masked	4	33	400	1	300	300	0	0	368	50	0	0	0	0	0	1	blank2r.bmp	0	1	+	0	8	C4r.bmp	492	1	blank2r.bmp	786	1	DHJF	786	1	blank2r.bmp	866	2	geizig	866	1	!	1239	1	!	1266	0	0	0	0	0	0	0	0	0	0	0	0	0	0	0	0	0	0	0	0	0	0	0	0	0	0	0
112918	11:51:59	11:58:48	406712	5.0.10.0	995	Rpleas_acq	Oppo	Rpleas	Amasked	CS_A	1pleas	distractor1	acq_US_pleas_masked	acq45_masked	4	34	400	0	300	300	0	0	479	50	0	1	0	0	0	1	blank2r.bmp	0	1	+	0	1	B1r.bmp	492	1	blank2r.bmp	786	1	CPLW	786	1	blank2r.bmp	866	2	anregung	866	1	!	1239	1	!	-1	0	0	0	0	0	0	0	0	0	0	0	0	0	0	0	0	0	0	0	0	0	0	0	0	0	0	0
112918	11:51:59	11:58:50	408898	5.0.10.0	995	Rpleas_acq	Oppo	Rpleas	Amasked	CS_A	1pleas	distractor1	acq_US_pleas_masked	acq45_masked	4	35	400	1	300	300	0	0	385	50	0	1	0	0	0	1	blank2r.bmp	0	1	+	0	3	B3r.bmp	492	1	blank2r.bmp	786	1	CPLW	786	1	blank2r.bmp	866	3	gütig	866	1	!	1239	1	!	1279	0	0	0	0	0	0	0	0	0	0	0	0	0	0	0	0	0	0	0	0	0	0	0	0	0	0	0
112918	11:51:59	11:58:53	411123	5.0.10.0	995	Rpleas_acq	Oppo	Rpleas	Amasked	CS_A	1pleas	distractor1	acq_US_unple_masked	acq45_masked	4	36	400	1	300	300	0	0	434	46	0	1	0	0	0	1	blank2r.bmp	0	1	+	0	4	B4r.bmp	492	1	blank2r.bmp	786	1	DHJF	786	1	blank2r.bmp	866	3	verbissen	866	1	!	1239	1	!	1332	0	0	0	0	0	0	0	0	0	0	0	0	0	0	0	0	0	0	0	0	0	0	0	0	0	0	0
112918	11:51:59	11:58:59	417787	5.0.10.0	995	Rpleas_acq	Oppo	Rpleas	Amasked	CS_A	1pleas	distractor1	acq_US_pleas_masked	acq45_masked	5	1	400	1	300	300	0	0	383	50	0	1	0	0	0	1	blank2r.bmp	0	1	+	0	6	C2r.bmp	492	1	blank2r.bmp	786	1	CPLW	786	1	blank2r.bmp	866	5	kreativ	866	1	!	1239	1	!	1279	0	0	0	0	0	0	0	0	0	0	0	0	0	0	0	0	0	0	0	0	0	0	0	0	0	0	0
112918	11:51:59	11:59:01	420040	5.0.10.0	995	Rpleas_acq	Oppo	Rpleas	Amasked	CS_A	1pleas	distractor1	acq_US_unple_masked	acq45_masked	5	2	400	1	300	300	0	0	456	46	0	1	0	0	0	1	blank2r.bmp	0	1	+	0	8	C4r.bmp	492	1	blank2r.bmp	786	1	DHJF	786	1	blank2r.bmp	866	4	krank	866	1	!	1239	1	!	1359	0	0	0	0	0	0	0	0	0	0	0	0	0	0	0	0	0	0	0	0	0	0	0	0	0	0	0
112918	11:51:59	11:59:04	422252	5.0.10.0	995	Rpleas_acq	Oppo	Rpleas	Amasked	CS_A	1pleas	distractor1	acq_US_unple_masked	acq45_masked	5	3	400	1	300	300	0	0	402	46	0	1	0	0	0	1	blank2r.bmp	0	1	+	0	2	B2r.bmp	492	1	blank2r.bmp	786	1	DHJF	786	1	blank2r.bmp	866	6	versagen	866	1	!	1239	1	!	1306	0	0	0	0	0	0	0	0	0	0	0	0	0	0	0	0	0	0	0	0	0	0	0	0	0	0	0
112918	11:51:59	11:59:06	424451	5.0.10.0	995	Rpleas_acq	Oppo	Rpleas	Amasked	CS_A	1pleas	distractor1	acq_US_pleas_masked	acq45_masked	5	4	400	1	300	300	0	0	407	50	0	1	0	0	0	1	blank2r.bmp	0	1	+	0	1	B1r.bmp	492	1	blank2r.bmp	786	1	CPLW	786	1	blank2r.bmp	866	6	kuss	866	1	!	1239	1	!	1306	0	0	0	0	0	0	0	0	0	0	0	0	0	0	0	0	0	0	0	0	0	0	0	0	0	0	0
112918	11:51:59	11:59:08	426664	5.0.10.0	995	Rpleas_acq	Oppo	Rpleas	Amasked	CS_A	1pleas	distractor1	acq_US_pleas_masked	acq45_masked	5	5	400	1	300	300	0	0	415	50	0	1	0	0	0	1	blank2r.bmp	0	1	+	0	3	B3r.bmp	492	1	blank2r.bmp	786	1	CPLW	786	1	blank2r.bmp	866	5	kreativ	866	1	!	1239	1	!	1319	0	0	0	0	0	0	0	0	0	0	0	0	0	0	0	0	0	0	0	0	0	0	0	0	0	0	0
112918	11:51:59	11:59:10	428756	5.0.10.0	995	Rpleas_acq	Oppo	Rpleas	Amasked	CS_A	1pleas	distractor1	acq_US_pleas_masked	acq45_masked	5	6	400	0	300	300	0	0	324	46	0	0	0	0	0	1	blank2r.bmp	0	1	+	0	5	C1r.bmp	492	1	blank2r.bmp	786	1	CPLW	786	1	blank2r.bmp	866	4	vertrauen	866	1	!	-1	1	!	-1	0	0	0	0	0	0	0	0	0	0	0	0	0	0	0	0	0	0	0	0	0	0	0	0	0	0	0
112918	11:51:59	11:59:12	430942	5.0.10.0	995	Rpleas_acq	Oppo	Rpleas	Amasked	CS_A	1pleas	distractor1	acq_US_pleas_masked	acq45_masked	5	7	400	1	300	300	0	0	383	50	0	1	0	0	0	1	blank2r.bmp	0	1	+	0	4	B4r.bmp	492	1	blank2r.bmp	786	1	CPLW	786	1	blank2r.bmp	866	3	gütig	866	1	!	1239	1	!	1279	0	0	0	0	0	0	0	0	0	0	0	0	0	0	0	0	0	0	0	0	0	0	0	0	0	0	0
112918	11:51:59	11:59:15	433154	5.0.10.0	995	Rpleas_acq	Oppo	Rpleas	Amasked	CS_A	1pleas	distractor1	acq_US_unple_masked	acq45_masked	5	8	400	1	300	300	0	0	424	46	0	1	0	0	0	1	blank2r.bmp	0	1	+	0	7	C3r.bmp	492	1	blank2r.bmp	786	1	DHJF	786	1	blank2r.bmp	866	4	krank	866	1	!	1239	1	!	1319	0	0	0	0	0	0	0	0	0	0	0	0	0	0	0	0	0	0	0	0	0	0	0	0	0	0	0
112918	11:51:59	11:59:17	435407	5.0.10.0	995	Rpleas_acq	Oppo	Rpleas	Amasked	CS_A	1pleas	distractor1	acq_US_unple_masked	acq45_masked	5	9	400	1	300	300	0	0	464	46	0	1	0	0	0	1	blank2r.bmp	0	1	+	0	6	C2r.bmp	492	1	blank2r.bmp	786	1	DHJF	786	1	blank2r.bmp	866	2	geizig	866	1	!	1239	1	!	1359	0	0	0	0	0	0	0	0	0	0	0	0	0	0	0	0	0	0	0	0	0	0	0	0	0	0	0
112918	11:51:59	11:59:19	437619	5.0.10.0	995	Rpleas_acq	Oppo	Rpleas	Amasked	CS_A	1pleas	distractor1	acq_US_unple_masked	acq45_masked	5	10	400	1	300	300	0	0	399	46	0	1	0	0	0	1	blank2r.bmp	0	1	+	0	8	C4r.bmp	492	1	blank2r.bmp	786	1	DHJF	786	1	blank2r.bmp	866	6	versagen	866	1	!	1239	1	!	1306	0	0	0	0	0	0	0	0	0	0	0	0	0	0	0	0	0	0	0	0	0	0	0	0	0	0	0
112918	11:51:59	11:59:21	439872	5.0.10.0	995	Rpleas_acq	Oppo	Rpleas	Amasked	CS_A	1pleas	distractor1	acq_US_pleas_masked	acq45_masked	5	11	400	0	300	300	0	0	479	50	0	1	0	0	0	1	blank2r.bmp	0	1	+	0	7	C3r.bmp	492	1	blank2r.bmp	786	1	CPLW	786	1	blank2r.bmp	866	2	anregung	866	1	!	1239	1	!	-1	0	0	0	0	0	0	0	0	0	0	0	0	0	0	0	0	0	0	0	0	0	0	0	0	0	0	0
112918	11:51:59	11:59:24	442071	5.0.10.0	995	Rpleas_acq	Oppo	Rpleas	Amasked	CS_A	1pleas	distractor1	acq_US_unple_masked	acq45_masked	5	12	400	1	300	300	0	0	391	46	0	1	0	0	0	1	blank2r.bmp	0	1	+	0	2	B2r.bmp	492	1	blank2r.bmp	786	1	DHJF	786	1	blank2r.bmp	866	3	verbissen	866	1	!	1239	1	!	1292	0	0	0	0	0	0	0	0	0	0	0	0	0	0	0	0	0	0	0	0	0	0	0	0	0	0	0
112918	11:51:59	11:59:26	444283	5.0.10.0	995	Rpleas_acq	Oppo	Rpleas	Amasked	CS_A	1pleas	distractor1	acq_US_unple_masked	acq45_masked	5	13	400	1	300	300	0	0	422	50	0	0	0	0	0	1	blank2r.bmp	0	1	+	0	3	B3r.bmp	492	1	blank2r.bmp	786	1	DHJF	786	1	blank2r.bmp	866	1	engstirnig	866	1	!	1239	1	!	1319	0	0	0	0	0	0	0	0	0	0	0	0	0	0	0	0	0	0	0	0	0	0	0	0	0	0	0
112918	11:51:59	11:59:28	446522	5.0.10.0	995	Rpleas_acq	Oppo	Rpleas	Amasked	CS_A	1pleas	distractor1	acq_US_unple_masked	acq45_masked	5	14	400	1	300	300	0	0	430	46	0	1	0	0	0	1	blank2r.bmp	0	1	+	0	4	B4r.bmp	492	1	blank2r.bmp	786	1	DHJF	786	1	blank2r.bmp	866	5	sterben	866	1	!	1239	1	!	1332	0	0	0	0	0	0	0	0	0	0	0	0	0	0	0	0	0	0	0	0	0	0	0	0	0	0	0
112918	11:51:59	11:59:30	448775	5.0.10.0	995	Rpleas_acq	Oppo	Rpleas	Amasked	CS_A	1pleas	distractor1	acq_US_pleas_masked	acq45_masked	5	15	400	0	300	300	0	0	486	46	0	0	0	0	0	1	blank2r.bmp	0	1	+	0	5	C1r.bmp	492	1	blank2r.bmp	786	1	CPLW	786	1	blank2r.bmp	866	1	vergnügt	866	1	!	1239	1	!	-1	0	0	0	0	0	0	0	0	0	0	0	0	0	0	0	0	0	0	0	0	0	0	0	0	0	0	0
112918	11:51:59	11:59:32	450987	5.0.10.0	995	Rpleas_acq	Oppo	Rpleas	Amasked	CS_A	1pleas	distractor1	acq_US_unple_masked	acq45_masked	5	16	400	1	300	300	0	0	399	46	0	1	0	0	0	1	blank2r.bmp	0	1	+	0	1	B1r.bmp	492	1	blank2r.bmp	786	1	DHJF	786	1	blank2r.bmp	866	3	verbissen	866	1	!	1239	1	!	1306	0	0	0	0	0	0	0	0	0	0	0	0	0	0	0	0	0	0	0	0	0	0	0	0	0	0	0
112918	11:51:59	11:59:35	453239	5.0.10.0	995	Rpleas_acq	Oppo	Rpleas	Amasked	CS_A	1pleas	distractor1	acq_US_pleas_masked	acq45_masked	5	17	400	0	300	300	0	0	479	50	0	1	0	0	0	1	blank2r.bmp	0	1	+	0	6	C2r.bmp	492	1	blank2r.bmp	786	1	CPLW	786	1	blank2r.bmp	866	6	kuss	866	1	!	1239	1	!	-1	0	0	0	0	0	0	0	0	0	0	0	0	0	0	0	0	0	0	0	0	0	0	0	0	0	0	0
112918	11:51:59	11:59:37	455505	5.0.10.0	995	Rpleas_acq	Oppo	Rpleas	Amasked	CS_A	1pleas	distractor1	acq_US_pleas_masked	acq45_masked	5	18	400	1	300	300	0	0	445	50	0	1	0	0	0	1	blank2r.bmp	0	1	+	0	8	C4r.bmp	492	1	blank2r.bmp	786	1	CPLW	786	1	blank2r.bmp	866	2	anregung	866	1	!	1239	1	!	1346	0	0	0	0	0	0	0	0	0	0	0	0	0	0	0	0	0	0	0	0	0	0	0	0	0	0	0
112918	11:51:59	11:59:39	457824	5.0.10.0	995	Rpleas_acq	Oppo	Rpleas	Amasked	CS_A	1pleas	distractor1	acq_US_pleas_masked	acq45_masked	5	19	400	0	300	300	0	0	553	46	0	0	0	0	0	1	blank2r.bmp	0	1	+	0	7	C3r.bmp	492	1	blank2r.bmp	786	1	CPLW	786	1	blank2r.bmp	866	3	gütig	866	1	!	1239	1	!	-1	0	0	0	0	0	0	0	0	0	0	0	0	0	0	0	0	0	0	0	0	0	0	0	0	0	0	0
112918	11:51:59	11:59:41	459997	5.0.10.0	995	Rpleas_acq	Oppo	Rpleas	Amasked	CS_A	1pleas	distractor1	acq_US_unple_masked	acq45_masked	5	20	400	1	300	300	0	0	346	50	0	0	0	0	0	1	blank2r.bmp	0	1	+	0	2	B2r.bmp	492	1	blank2r.bmp	786	1	DHJF	786	1	blank2r.bmp	866	2	geizig	866	1	!	1239	1	!	1252	0	0	0	0	0	0	0	0	0	0	0	0	0	0	0	0	0	0	0	0	0	0	0	0	0	0	0
112918	11:51:59	11:59:44	462302	5.0.10.0	995	Rpleas_acq	Oppo	Rpleas	Amasked	CS_A	1pleas	distractor1	acq_US_unple_masked	acq45_masked	5	21	400	0	300	300	0	0	533	50	0	0	0	0	0	1	blank2r.bmp	0	1	+	0	1	B1r.bmp	492	1	blank2r.bmp	786	1	DHJF	786	1	blank2r.bmp	866	6	versagen	866	1	!	1239	1	!	-1	0	0	0	0	0	0	0	0	0	0	0	0	0	0	0	0	0	0	0	0	0	0	0	0	0	0	0
112918	11:51:59	11:59:46	464581	5.0.10.0	995	Rpleas_acq	Oppo	Rpleas	Amasked	CS_A	1pleas	distractor1	acq_US_pleas_masked	acq45_masked	5	22	400	1	300	300	0	0	462	50	0	1	0	0	0	1	blank2r.bmp	0	1	+	0	4	B4r.bmp	492	1	blank2r.bmp	786	1	CPLW	786	1	blank2r.bmp	866	5	kreativ	866	1	!	1239	1	!	1359	0	0	0	0	0	0	0	0	0	0	0	0	0	0	0	0	0	0	0	0	0	0	0	0	0	0	0
112918	11:51:59	11:59:48	466900	5.0.10.0	995	Rpleas_acq	Oppo	Rpleas	Amasked	CS_A	1pleas	distractor1	acq_US_pleas_masked	acq45_masked	5	23	400	0	300	300	0	0	555	50	0	1	0	0	0	1	blank2r.bmp	0	1	+	0	5	C1r.bmp	492	1	blank2r.bmp	786	1	CPLW	786	1	blank2r.bmp	866	1	vergnügt	866	1	!	1239	1	!	-1	0	0	0	0	0	0	0	0	0	0	0	0	0	0	0	0	0	0	0	0	0	0	0	0	0	0	0
112918	11:51:59	11:59:51	469179	5.0.10.0	995	Rpleas_acq	Oppo	Rpleas	Amasked	CS_A	1pleas	distractor1	acq_US_unple_masked	acq45_masked	5	24	400	0	300	300	0	0	499	46	0	1	0	0	0	1	blank2r.bmp	0	1	+	0	3	B3r.bmp	492	1	blank2r.bmp	786	1	DHJF	786	1	blank2r.bmp	866	4	krank	866	1	!	1239	1	!	-1	0	0	0	0	0	0	0	0	0	0	0	0	0	0	0	0	0	0	0	0	0	0	0	0	0	0	0
112918	11:51:59	11:59:53	471432	5.0.10.0	995	Rpleas_acq	Oppo	Rpleas	Amasked	CS_A	1pleas	distractor1	acq_US_unple_masked	acq45_masked	5	25	400	1	300	300	0	0	440	46	0	1	0	0	0	1	blank2r.bmp	0	1	+	0	2	B2r.bmp	492	1	blank2r.bmp	786	1	DHJF	786	1	blank2r.bmp	866	5	sterben	866	1	!	1239	1	!	1346	0	0	0	0	0	0	0	0	0	0	0	0	0	0	0	0	0	0	0	0	0	0	0	0	0	0	0
112918	11:51:59	11:59:55	473658	5.0.10.0	995	Rpleas_acq	Oppo	Rpleas	Amasked	CS_A	1pleas	distractor1	acq_US_pleas_masked	acq45_masked	5	26	400	1	300	300	0	0	427	50	0	1	0	0	0	1	blank2r.bmp	0	1	+	0	6	C2r.bmp	492	1	blank2r.bmp	786	1	CPLW	786	1	blank2r.bmp	866	4	vertrauen	866	1	!	1239	1	!	1332	0	0	0	0	0	0	0	0	0	0	0	0	0	0	0	0	0	0	0	0	0	0	0	0	0	0	0
112918	11:51:59	11:59:57	475923	5.0.10.0	995	Rpleas_acq	Oppo	Rpleas	Amasked	CS_A	1pleas	distractor1	acq_US_pleas_masked	acq45_masked	5	27	400	0	300	300	0	0	489	50	0	1	0	0	0	1	blank2r.bmp	0	1	+	0	5	C1r.bmp	492	1	blank2r.bmp	786	1	CPLW	786	1	blank2r.bmp	866	2	anregung	866	1	!	1239	1	!	-1	0	0	0	0	0	0	0	0	0	0	0	0	0	0	0	0	0	0	0	0	0	0	0	0	0	0	0
112918	11:51:59	12:00:00	478096	5.0.10.0	995	Rpleas_acq	Oppo	Rpleas	Amasked	CS_A	1pleas	distractor1	acq_US_unple_masked	acq45_masked	5	28	400	1	300	300	0	0	364	46	0	1	0	0	0	1	blank2r.bmp	0	1	+	0	3	B3r.bmp	492	1	blank2r.bmp	786	1	DHJF	786	1	blank2r.bmp	866	1	engstirnig	866	1	!	1239	1	!	1266	0	0	0	0	0	0	0	0	0	0	0	0	0	0	0	0	0	0	0	0	0	0	0	0	0	0	0
112918	11:51:59	12:00:02	480308	5.0.10.0	995	Rpleas_acq	Oppo	Rpleas	Amasked	CS_A	1pleas	distractor1	acq_US_unple_masked	acq45_masked	5	29	400	1	300	300	0	0	422	46	0	1	0	0	0	1	blank2r.bmp	0	1	+	0	8	C4r.bmp	492	1	blank2r.bmp	786	1	DHJF	786	1	blank2r.bmp	866	3	verbissen	866	1	!	1239	1	!	1319	0	0	0	0	0	0	0	0	0	0	0	0	0	0	0	0	0	0	0	0	0	0	0	0	0	0	0
112918	11:51:59	12:00:04	482481	5.0.10.0	995	Rpleas_acq	Oppo	Rpleas	Amasked	CS_A	1pleas	distractor1	acq_US_unple_masked	acq45_masked	5	30	400	1	300	300	0	0	379	46	0	1	0	0	0	1	blank2r.bmp	0	1	+	0	7	C3r.bmp	492	1	blank2r.bmp	786	1	DHJF	786	1	blank2r.bmp	866	5	sterben	866	1	!	1239	1	!	1279	0	0	0	0	0	0	0	0	0	0	0	0	0	0	0	0	0	0	0	0	0	0	0	0	0	0	0
112918	11:51:59	12:00:06	484653	5.0.10.0	995	Rpleas_acq	Oppo	Rpleas	Amasked	CS_A	1pleas	distractor1	acq_US_unple_masked	acq45_masked	5	31	400	1	300	300	0	0	384	46	0	1	0	0	0	1	blank2r.bmp	0	1	+	0	1	B1r.bmp	492	1	blank2r.bmp	786	1	DHJF	786	1	blank2r.bmp	866	6	versagen	866	1	!	1239	1	!	1279	0	0	0	0	0	0	0	0	0	0	0	0	0	0	0	0	0	0	0	0	0	0	0	0	0	0	0
112918	11:51:59	12:00:08	486892	5.0.10.0	995	Rpleas_acq	Oppo	Rpleas	Amasked	CS_A	1pleas	distractor1	acq_US_pleas_masked	acq45_masked	5	32	400	1	300	300	0	0	431	50	0	1	0	0	0	1	blank2r.bmp	0	1	+	0	4	B4r.bmp	492	1	blank2r.bmp	786	1	CPLW	786	1	blank2r.bmp	866	3	gütig	866	1	!	1239	1	!	1332	0	0	0	0	0	0	0	0	0	0	0	0	0	0	0	0	0	0	0	0	0	0	0	0	0	0	0
112918	11:51:59	12:00:11	489091	5.0.10.0	995	Rpleas_acq	Oppo	Rpleas	Amasked	CS_A	1pleas	distractor1	acq_US_unple_masked	acq45_masked	5	33	400	1	300	300	0	0	399	50	0	0	0	0	0	1	blank2r.bmp	0	1	+	0	6	C2r.bmp	492	1	blank2r.bmp	786	1	DHJF	786	1	blank2r.bmp	866	2	geizig	866	1	!	1239	1	!	1306	0	0	0	0	0	0	0	0	0	0	0	0	0	0	0	0	0	0	0	0	0	0	0	0	0	0	0
112918	11:51:59	12:00:13	491250	5.0.10.0	995	Rpleas_acq	Oppo	Rpleas	Amasked	CS_A	1pleas	distractor1	acq_US_pleas_masked	acq45_masked	5	34	400	1	300	300	0	0	363	46	0	0	0	0	0	1	blank2r.bmp	0	1	+	0	3	B3r.bmp	492	1	blank2r.bmp	786	1	CPLW	786	1	blank2r.bmp	866	5	kreativ	866	1	!	1239	1	!	1266	0	0	0	0	0	0	0	0	0	0	0	0	0	0	0	0	0	0	0	0	0	0	0	0	0	0	0
112918	11:51:59	12:00:15	493503	5.0.10.0	995	Rpleas_acq	Oppo	Rpleas	Amasked	CS_A	1pleas	distractor1	acq_US_pleas_masked	acq45_masked	5	35	400	0	300	300	0	0	480	46	0	0	0	0	0	1	blank2r.bmp	0	1	+	0	5	C1r.bmp	492	1	blank2r.bmp	786	1	CPLW	786	1	blank2r.bmp	866	4	vertrauen	866	1	!	1239	1	!	-1	0	0	0	0	0	0	0	0	0	0	0	0	0	0	0	0	0	0	0	0	0	0	0	0	0	0	0
112918	11:51:59	12:00:17	495769	5.0.10.0	995	Rpleas_acq	Oppo	Rpleas	Amasked	CS_A	1pleas	distractor1	acq_US_pleas_masked	acq45_masked	5	36	400	1	300	300	0	0	442	50	0	1	0	0	0	1	blank2r.bmp	0	1	+	0	4	B4r.bmp	492	1	blank2r.bmp	786	1	CPLW	786	1	blank2r.bmp	866	6	kuss	866	1	!	1239	1	!	1346	0	0	0	0	0	0	0	0	0	0	0	0	0	0	0	0	0	0	0	0	0	0	0	0	0	0	0
112918	11:51:59	12:01:25	563860	5.0.10.0	995	Rpleas_acq	Oppo	Lpleas	Amasked	CS_A	1pleas	distractor1	cond_new_unple_456_masked_CS2	condtest_masked_1	8	1	400	1	300	300	0	0	408	50	0	1	0	0	0	1	blank2r.bmp	0	1	+	0	2	B2r.bmp	492	1	blank2r.bmp	786	1	DHJF	786	1	blank2r.bmp	866	1	krise	866	1	!	1239	1	!	1306	0	0	0	0	0	0	0	0	0	0	0	0	0	0	0	0	0	0	0	0	0	0	0	0	0	0	0
112918	11:51:59	12:01:28	566113	5.0.10.0	995	Rpleas_acq	Oppo	Lpleas	Amasked	CS_A	1pleas	distractor1	cond_US_unple_123_masked_CS2	condtest_masked_1	8	2	400	0	300	300	0	0	480	50	0	1	0	0	0	1	blank2r.bmp	0	1	+	0	7	C3r.bmp	492	1	blank2r.bmp	786	1	DHJF	786	1	blank2r.bmp	866	2	geizig	866	1	!	1239	1	!	-1	0	0	0	0	0	0	0	0	0	0	0	0	0	0	0	0	0	0	0	0	0	0	0	0	0	0	0
112918	11:51:59	12:01:30	568299	5.0.10.0	995	Rpleas_acq	Oppo	Lpleas	Amasked	CS_A	1pleas	distractor1	cond_new_unple_456_masked_CS1	condtest_masked_1	8	3	400	1	300	300	0	0	379	50	0	1	0	0	0	1	blank2r.bmp	0	1	+	0	8	C4r.bmp	492	1	blank2r.bmp	786	1	CPLW	786	1	blank2r.bmp	866	3	töten	866	1	!	1239	1	!	1279	0	0	0	0	0	0	0	0	0	0	0	0	0	0	0	0	0	0	0	0	0	0	0	0	0	0	0
112918	11:51:59	12:01:32	570444	5.0.10.0	995	Rpleas_acq	Oppo	Lpleas	Amasked	CS_A	1pleas	distractor1	cond_new_pleas_456_masked_CS1	condtest_masked_1	8	4	400	1	300	300	0	0	351	46	0	1	0	0	0	1	blank2r.bmp	0	1	+	0	1	B1r.bmp	492	1	blank2r.bmp	786	1	CPLW	786	1	blank2r.bmp	866	3	genießen	866	1	!	1239	1	!	1252	0	0	0	0	0	0	0	0	0	0	0	0	0	0	0	0	0	0	0	0	0	0	0	0	0	0	0
112918	11:51:59	12:01:34	572644	5.0.10.0	995	Rpleas_acq	Oppo	Lpleas	Amasked	CS_A	1pleas	distractor1	cond_US_unple_123_masked_CS1	condtest_masked_1	8	5	400	1	300	300	0	0	404	50	0	1	0	0	0	1	blank2r.bmp	0	1	+	0	2	B2r.bmp	492	1	blank2r.bmp	786	1	CPLW	786	1	blank2r.bmp	866	1	engstirnig	866	1	!	1239	1	!	1306	0	0	0	0	0	0	0	0	0	0	0	0	0	0	0	0	0	0	0	0	0	0	0	0	0	0	0
112918	11:51:59	12:01:36	574869	5.0.10.0	995	Rpleas_acq	Oppo	Lpleas	Amasked	CS_A	1pleas	distractor1	cond_US_pleas_123_masked_CS2	condtest_masked_1	8	6	400	1	300	300	0	0	434	50	0	0	0	0	0	1	blank2r.bmp	0	1	+	0	1	B1r.bmp	492	1	blank2r.bmp	786	1	DHJF	786	1	blank2r.bmp	866	1	vergnügt	866	1	!	1239	1	!	1332	0	0	0	0	0	0	0	0	0	0	0	0	0	0	0	0	0	0	0	0	0	0	0	0	0	0	0
112918	11:51:59	12:01:39	577095	5.0.10.0	995	Rpleas_acq	Oppo	Lpleas	Amasked	CS_A	1pleas	distractor1	cond_new_pleas_456_masked_CS2	condtest_masked_1	8	7	400	1	300	300	0	0	420	50	0	0	0	0	0	1	blank2r.bmp	0	1	+	0	6	C2r.bmp	492	1	blank2r.bmp	786	1	DHJF	786	1	blank2r.bmp	866	2	besonnen	866	1	!	1239	1	!	1319	0	0	0	0	0	0	0	0	0	0	0	0	0	0	0	0	0	0	0	0	0	0	0	0	0	0	0
112918	11:51:59	12:01:41	579321	5.0.10.0	995	Rpleas_acq	Oppo	Lpleas	Amasked	CS_A	1pleas	distractor1	cond_US_pleas_123_masked_CS1	condtest_masked_1	8	8	400	1	300	300	0	0	434	46	0	1	0	0	0	1	blank2r.bmp	0	1	+	0	5	C1r.bmp	492	1	blank2r.bmp	786	1	CPLW	786	1	blank2r.bmp	866	2	anregung	866	1	!	1239	1	!	1332	0	0	0	0	0	0	0	0	0	0	0	0	0	0	0	0	0	0	0	0	0	0	0	0	0	0	0
112918	11:51:59	12:01:52	590943	5.0.10.0	995	Rpleas_acq	Oppo	Lpleas	Amasked	CS_A	1pleas	distractor1	cond_US_unple_123_masked_CS1	condtest_masked_2	9	1	400	1	300	300	0	0	450	50	0	1	0	0	0	1	blank2r.bmp	0	1	+	0	8	C4r.bmp	492	1	blank2r.bmp	786	1	CPLW	786	1	blank2r.bmp	866	3	verbissen	866	1	!	1239	1	!	1346	0	0	0	0	0	0	0	0	0	0	0	0	0	0	0	0	0	0	0	0	0	0	0	0	0	0	0
112918	11:51:59	12:01:55	593195	5.0.10.0	995	Rpleas_acq	Oppo	Lpleas	Amasked	CS_A	1pleas	distractor1	cond_US_pleas_123_masked_CS1	condtest_masked_2	9	2	400	1	300	300	0	0	461	46	0	1	0	0	0	1	blank2r.bmp	0	1	+	0	3	B3r.bmp	492	1	blank2r.bmp	786	1	CPLW	786	1	blank2r.bmp	866	3	gütig	866	1	!	1239	1	!	1359	0	0	0	0	0	0	0	0	0	0	0	0	0	0	0	0	0	0	0	0	0	0	0	0	0	0	0
112918	11:51:59	12:01:57	595447	5.0.10.0	995	Rpleas_acq	Oppo	Lpleas	Amasked	CS_A	1pleas	distractor1	cond_US_unple_123_masked_CS2	condtest_masked_2	9	3	400	0	300	300	0	0	479	50	0	1	0	0	0	1	blank2r.bmp	0	1	+	0	4	B4r.bmp	492	1	blank2r.bmp	786	1	DHJF	786	1	blank2r.bmp	866	1	engstirnig	866	1	!	1239	1	!	-1	0	0	0	0	0	0	0	0	0	0	0	0	0	0	0	0	0	0	0	0	0	0	0	0	0	0	0
112918	11:51:59	12:01:59	597687	5.0.10.0	995	Rpleas_acq	Oppo	Lpleas	Amasked	CS_A	1pleas	distractor1	cond_new_unple_456_masked_CS2	condtest_masked_2	9	4	400	1	300	300	0	0	424	50	0	1	0	0	0	1	blank2r.bmp	0	1	+	0	7	C3r.bmp	492	1	blank2r.bmp	786	1	DHJF	786	1	blank2r.bmp	866	2	bange	866	1	!	1239	1	!	1319	0	0	0	0	0	0	0	0	0	0	0	0	0	0	0	0	0	0	0	0	0	0	0	0	0	0	0
112918	11:51:59	12:02:01	599886	5.0.10.0	995	Rpleas_acq	Oppo	Lpleas	Amasked	CS_A	1pleas	distractor1	cond_US_pleas_123_masked_CS1	condtest_masked_2	9	5	400	1	300	300	0	0	405	46	0	1	0	0	0	1	blank2r.bmp	0	1	+	0	4	B4r.bmp	492	1	blank2r.bmp	786	1	CPLW	786	1	blank2r.bmp	866	1	vergnügt	866	1	!	1239	1	!	1306	0	0	0	0	0	0	0	0	0	0	0	0	0	0	0	0	0	0	0	0	0	0	0	0	0	0	0
112918	11:51:59	12:02:03	602071	5.0.10.0	995	Rpleas_acq	Oppo	Lpleas	Amasked	CS_A	1pleas	distractor1	cond_US_unple_123_masked_CS1	condtest_masked_2	9	6	400	1	300	300	0	0	393	50	0	1	0	0	0	1	blank2r.bmp	0	1	+	0	2	B2r.bmp	492	1	blank2r.bmp	786	1	CPLW	786	1	blank2r.bmp	866	3	verbissen	866	1	!	1239	1	!	1292	0	0	0	0	0	0	0	0	0	0	0	0	0	0	0	0	0	0	0	0	0	0	0	0	0	0	0
112918	11:51:59	12:02:06	604297	5.0.10.0	995	Rpleas_acq	Oppo	Lpleas	Amasked	CS_A	1pleas	distractor1	cond_new_unple_456_masked_CS1	condtest_masked_2	9	7	400	1	300	300	0	0	431	50	0	1	0	0	0	1	blank2r.bmp	0	1	+	0	1	B1r.bmp	492	1	blank2r.bmp	786	1	CPLW	786	1	blank2r.bmp	866	2	bange	866	1	!	1239	1	!	1332	0	0	0	0	0	0	0	0	0	0	0	0	0	0	0	0	0	0	0	0	0	0	0	0	0	0	0
112918	11:51:59	12:02:08	606536	5.0.10.0	995	Rpleas_acq	Oppo	Lpleas	Amasked	CS_A	1pleas	distractor1	cond_US_pleas_123_masked_CS2	condtest_masked_2	9	8	400	1	300	300	0	0	444	46	0	1	0	0	0	1	blank2r.bmp	0	1	+	0	6	C2r.bmp	492	1	blank2r.bmp	786	1	DHJF	786	1	blank2r.bmp	866	3	gütig	866	1	!	1239	1	!	1346	0	0	0	0	0	0	0	0	0	0	0	0	0	0	0	0	0	0	0	0	0	0	0	0	0	0	0
112918	11:51:59	12:02:10	608802	5.0.10.0	995	Rpleas_acq	Oppo	Lpleas	Amasked	CS_A	1pleas	distractor1	cond_new_unple_456_masked_CS2	condtest_masked_2	9	9	400	1	300	300	0	0	456	50	0	1	0	0	0	1	blank2r.bmp	0	1	+	0	3	B3r.bmp	492	1	blank2r.bmp	786	1	DHJF	786	1	blank2r.bmp	866	3	töten	866	1	!	1239	1	!	1359	0	0	0	0	0	0	0	0	0	0	0	0	0	0	0	0	0	0	0	0	0	0	0	0	0	0	0
112918	11:51:59	12:02:12	611054	5.0.10.0	995	Rpleas_acq	Oppo	Lpleas	Amasked	CS_A	1pleas	distractor1	cond_new_pleas_456_masked_CS1	condtest_masked_2	9	10	400	0	300	300	0	0	486	50	0	0	0	0	0	1	blank2r.bmp	0	1	+	0	5	C1r.bmp	492	1	blank2r.bmp	786	1	CPLW	786	1	blank2r.bmp	866	1	gesittet	866	1	!	1239	1	!	-1	0	0	0	0	0	0	0	0	0	0	0	0	0	0	0	0	0	0	0	0	0	0	0	0	0	0	0
112918	11:51:59	12:02:15	613267	5.0.10.0	995	Rpleas_acq	Oppo	Lpleas	Amasked	CS_A	1pleas	distractor1	cond_US_pleas_123_masked_CS2	condtest_masked_2	9	11	400	1	300	300	0	0	401	46	0	1	0	0	0	1	blank2r.bmp	0	1	+	0	7	C3r.bmp	492	1	blank2r.bmp	786	1	DHJF	786	1	blank2r.bmp	866	2	anregung	866	1	!	1239	1	!	1306	0	0	0	0	0	0	0	0	0	0	0	0	0	0	0	0	0	0	0	0	0	0	0	0	0	0	0
112918	11:51:59	12:02:17	615479	5.0.10.0	995	Rpleas_acq	Oppo	Lpleas	Amasked	CS_A	1pleas	distractor1	cond_US_pleas_123_masked_CS2	condtest_masked_2	9	12	400	1	300	300	0	0	419	46	0	1	0	0	0	1	blank2r.bmp	0	1	+	0	8	C4r.bmp	492	1	blank2r.bmp	786	1	DHJF	786	1	blank2r.bmp	866	2	anregung	866	1	!	1239	1	!	1319	0	0	0	0	0	0	0	0	0	0	0	0	0	0	0	0	0	0	0	0	0	0	0	0	0	0	0
112918	11:51:59	12:02:19	617665	5.0.10.0	995	Rpleas_acq	Oppo	Lpleas	Amasked	CS_A	1pleas	distractor1	cond_new_pleas_456_masked_CS2	condtest_masked_2	9	13	400	1	300	300	0	0	398	46	0	1	0	0	0	1	blank2r.bmp	0	1	+	0	8	C4r.bmp	492	1	blank2r.bmp	786	1	DHJF	786	1	blank2r.bmp	866	3	genießen	866	1	!	1239	1	!	1292	0	0	0	0	0	0	0	0	0	0	0	0	0	0	0	0	0	0	0	0	0	0	0	0	0	0	0
112918	11:51:59	12:02:21	619824	5.0.10.0	995	Rpleas_acq	Oppo	Lpleas	Amasked	CS_A	1pleas	distractor1	cond_new_unple_456_masked_CS1	condtest_masked_2	9	14	400	1	300	300	0	0	365	50	0	1	0	0	0	1	blank2r.bmp	0	1	+	0	6	C2r.bmp	492	1	blank2r.bmp	786	1	CPLW	786	1	blank2r.bmp	866	1	krise	866	1	!	1239	1	!	1266	0	0	0	0	0	0	0	0	0	0	0	0	0	0	0	0	0	0	0	0	0	0	0	0	0	0	0
112918	11:51:59	12:02:24	622077	5.0.10.0	995	Rpleas_acq	Oppo	Lpleas	Amasked	CS_A	1pleas	distractor1	cond_US_pleas_123_masked_CS2	condtest_masked_2	9	15	400	0	300	300	0	0	484	46	0	1	0	0	0	1	blank2r.bmp	0	1	+	0	3	B3r.bmp	492	1	blank2r.bmp	786	1	DHJF	786	1	blank2r.bmp	866	1	vergnügt	866	1	!	1239	1	!	-1	0	0	0	0	0	0	0	0	0	0	0	0	0	0	0	0	0	0	0	0	0	0	0	0	0	0	0
112918	11:51:59	12:02:26	624249	5.0.10.0	995	Rpleas_acq	Oppo	Lpleas	Amasked	CS_A	1pleas	distractor1	cond_new_unple_456_masked_CS2	condtest_masked_2	9	16	400	1	300	300	0	0	346	50	0	1	0	0	0	1	blank2r.bmp	0	1	+	0	7	C3r.bmp	492	1	blank2r.bmp	786	1	DHJF	786	1	blank2r.bmp	866	3	töten	866	1	!	1239	1	!	1252	0	0	0	0	0	0	0	0	0	0	0	0	0	0	0	0	0	0	0	0	0	0	0	0	0	0	0
112918	11:51:59	12:02:28	626435	5.0.10.0	995	Rpleas_acq	Oppo	Lpleas	Amasked	CS_A	1pleas	distractor1	cond_US_unple_123_masked_CS1	condtest_masked_2	9	17	400	1	300	300	0	0	391	46	0	0	0	0	0	1	blank2r.bmp	0	1	+	0	2	B2r.bmp	492	1	blank2r.bmp	786	1	CPLW	786	1	blank2r.bmp	866	2	geizig	866	1	!	1239	1	!	1292	0	0	0	0	0	0	0	0	0	0	0	0	0	0	0	0	0	0	0	0	0	0	0	0	0	0	0
112918	11:51:59	12:02:30	628647	5.0.10.0	995	Rpleas_acq	Oppo	Lpleas	Amasked	CS_A	1pleas	distractor1	cond_new_pleas_456_masked_CS1	condtest_masked_2	9	18	400	1	300	300	0	0	420	50	0	0	0	0	0	1	blank2r.bmp	0	1	+	0	1	B1r.bmp	492	1	blank2r.bmp	786	1	CPLW	786	1	blank2r.bmp	866	1	gesittet	866	1	!	1239	1	!	1319	0	0	0	0	0	0	0	0	0	0	0	0	0	0	0	0	0	0	0	0	0	0	0	0	0	0	0
112918	11:51:59	12:02:32	630860	5.0.10.0	995	Rpleas_acq	Oppo	Lpleas	Amasked	CS_A	1pleas	distractor1	cond_US_pleas_123_masked_CS1	condtest_masked_2	9	19	400	1	300	300	0	0	423	46	0	1	0	0	0	1	blank2r.bmp	0	1	+	0	5	C1r.bmp	492	1	blank2r.bmp	786	1	CPLW	786	1	blank2r.bmp	866	3	gütig	866	1	!	1239	1	!	1319	0	0	0	0	0	0	0	0	0	0	0	0	0	0	0	0	0	0	0	0	0	0	0	0	0	0	0
112918	11:51:59	12:02:35	633112	5.0.10.0	995	Rpleas_acq	Oppo	Lpleas	Amasked	CS_A	1pleas	distractor1	cond_new_pleas_456_masked_CS1	condtest_masked_2	9	20	400	0	300	300	0	0	479	50	0	0	0	0	0	1	blank2r.bmp	0	1	+	0	4	B4r.bmp	492	1	blank2r.bmp	786	1	CPLW	786	1	blank2r.bmp	866	2	besonnen	866	1	!	1239	1	!	-1	0	0	0	0	0	0	0	0	0	0	0	0	0	0	0	0	0	0	0	0	0	0	0	0	0	0	0
112918	11:51:59	12:02:37	635284	5.0.10.0	995	Rpleas_acq	Oppo	Lpleas	Amasked	CS_A	1pleas	distractor1	cond_US_unple_123_masked_CS2	condtest_masked_2	9	21	400	1	300	300	0	0	359	46	0	0	0	0	0	1	blank2r.bmp	0	1	+	0	8	C4r.bmp	492	1	blank2r.bmp	786	1	DHJF	786	1	blank2r.bmp	866	2	geizig	866	1	!	1239	1	!	1266	0	0	0	0	0	0	0	0	0	0	0	0	0	0	0	0	0	0	0	0	0	0	0	0	0	0	0
112918	11:51:59	12:02:39	637577	5.0.10.0	995	Rpleas_acq	Oppo	Lpleas	Amasked	CS_A	1pleas	distractor1	cond_new_pleas_456_masked_CS2	condtest_masked_2	9	22	400	0	300	300	0	0	525	46	0	1	0	0	0	1	blank2r.bmp	0	1	+	0	7	C3r.bmp	492	1	blank2r.bmp	786	1	DHJF	786	1	blank2r.bmp	866	1	gesittet	866	1	!	1239	1	!	-1	0	0	0	0	0	0	0	0	0	0	0	0	0	0	0	0	0	0	0	0	0	0	0	0	0	0	0
112918	11:51:59	12:02:41	639736	5.0.10.0	995	Rpleas_acq	Oppo	Lpleas	Amasked	CS_A	1pleas	distractor1	cond_US_unple_123_masked_CS2	condtest_masked_2	9	23	400	1	300	300	0	0	346	50	0	1	0	0	0	1	blank2r.bmp	0	1	+	0	6	C2r.bmp	492	1	blank2r.bmp	786	1	DHJF	786	1	blank2r.bmp	866	3	verbissen	866	1	!	1239	1	!	1252	0	0	0	0	0	0	0	0	0	0	0	0	0	0	0	0	0	0	0	0	0	0	0	0	0	0	0
112918	11:51:59	12:02:43	641908	5.0.10.0	995	Rpleas_acq	Oppo	Lpleas	Amasked	CS_A	1pleas	distractor1	cond_US_unple_123_masked_CS1	condtest_masked_2	9	24	400	1	300	300	0	0	385	50	0	1	0	0	0	1	blank2r.bmp	0	1	+	0	5	C1r.bmp	492	1	blank2r.bmp	786	1	CPLW	786	1	blank2r.bmp	866	1	engstirnig	866	1	!	1239	1	!	1279	0	0	0	0	0	0	0	0	0	0	0	0	0	0	0	0	0	0	0	0	0	0	0	0	0	0	0
112918	11:51:59	12:02:46	644067	5.0.10.0	995	Rpleas_acq	Oppo	Lpleas	Amasked	CS_A	1pleas	distractor1	cond_new_unple_456_masked_CS1	condtest_masked_2	9	25	400	1	300	300	0	0	366	50	0	1	0	0	0	1	blank2r.bmp	0	1	+	0	2	B2r.bmp	492	1	blank2r.bmp	786	1	CPLW	786	1	blank2r.bmp	866	2	bange	866	1	!	1239	1	!	1266	0	0	0	0	0	0	0	0	0	0	0	0	0	0	0	0	0	0	0	0	0	0	0	0	0	0	0
112918	11:51:59	12:02:48	646240	5.0.10.0	995	Rpleas_acq	Oppo	Lpleas	Amasked	CS_A	1pleas	distractor1	cond_US_unple_123_masked_CS1	condtest_masked_2	9	26	400	1	300	300	0	0	372	46	0	0	0	0	0	1	blank2r.bmp	0	1	+	0	4	B4r.bmp	492	1	blank2r.bmp	786	1	CPLW	786	1	blank2r.bmp	866	2	geizig	866	1	!	1239	1	!	1279	0	0	0	0	0	0	0	0	0	0	0	0	0	0	0	0	0	0	0	0	0	0	0	0	0	0	0
112918	11:51:59	12:02:50	648479	5.0.10.0	995	Rpleas_acq	Oppo	Lpleas	Amasked	CS_A	1pleas	distractor1	cond_new_pleas_456_masked_CS2	condtest_masked_2	9	27	400	1	300	300	0	0	448	46	0	1	0	0	0	1	blank2r.bmp	0	1	+	0	3	B3r.bmp	492	1	blank2r.bmp	786	1	DHJF	786	1	blank2r.bmp	866	2	besonnen	866	1	!	1239	1	!	1346	0	0	0	0	0	0	0	0	0	0	0	0	0	0	0	0	0	0	0	0	0	0	0	0	0	0	0
112918	11:51:59	12:02:52	650571	5.0.10.0	995	Rpleas_acq	Oppo	Lpleas	Amasked	CS_A	1pleas	distractor1	cond_US_unple_123_masked_CS2	condtest_masked_2	9	28	400	0	300	300	0	0	321	50	0	1	0	0	0	1	blank2r.bmp	0	1	+	0	1	B1r.bmp	492	1	blank2r.bmp	786	1	DHJF	786	1	blank2r.bmp	866	1	engstirnig	866	1	!	-1	1	!	-1	0	0	0	0	0	0	0	0	0	0	0	0	0	0	0	0	0	0	0	0	0	0	0	0	0	0	0
112918	11:51:59	12:02:54	652811	5.0.10.0	995	Rpleas_acq	Oppo	Lpleas	Amasked	CS_A	1pleas	distractor1	cond_new_pleas_456_masked_CS2	condtest_masked_2	9	29	400	1	300	300	0	0	433	50	0	0	0	0	0	1	blank2r.bmp	0	1	+	0	7	C3r.bmp	492	1	blank2r.bmp	786	1	DHJF	786	1	blank2r.bmp	866	3	genießen	866	1	!	1239	1	!	1332	0	0	0	0	0	0	0	0	0	0	0	0	0	0	0	0	0	0	0	0	0	0	0	0	0	0	0
112918	11:51:59	12:02:56	655050	5.0.10.0	995	Rpleas_acq	Oppo	Lpleas	Amasked	CS_A	1pleas	distractor1	cond_US_pleas_123_masked_CS1	condtest_masked_2	9	30	400	1	300	300	0	0	444	46	0	1	0	0	0	1	blank2r.bmp	0	1	+	0	4	B4r.bmp	492	1	blank2r.bmp	786	1	CPLW	786	1	blank2r.bmp	866	3	gütig	866	1	!	1239	1	!	1346	0	0	0	0	0	0	0	0	0	0	0	0	0	0	0	0	0	0	0	0	0	0	0	0	0	0	0
112918	11:51:59	12:02:59	657302	5.0.10.0	995	Rpleas_acq	Oppo	Lpleas	Amasked	CS_A	1pleas	distractor1	cond_new_unple_456_masked_CS1	condtest_masked_2	9	31	400	1	300	300	0	0	459	50	0	1	0	0	0	1	blank2r.bmp	0	1	+	0	3	B3r.bmp	492	1	blank2r.bmp	786	1	CPLW	786	1	blank2r.bmp	866	1	krise	866	1	!	1239	1	!	1359	0	0	0	0	0	0	0	0	0	0	0	0	0	0	0	0	0	0	0	0	0	0	0	0	0	0	0
112918	11:51:59	12:03:01	659528	5.0.10.0	995	Rpleas_acq	Oppo	Lpleas	Amasked	CS_A	1pleas	distractor1	cond_new_unple_456_masked_CS1	condtest_masked_2	9	32	400	1	300	300	0	0	433	46	0	0	0	0	0	1	blank2r.bmp	0	1	+	0	8	C4r.bmp	492	1	blank2r.bmp	786	1	CPLW	786	1	blank2r.bmp	866	1	krise	866	1	!	1239	1	!	1332	0	0	0	0	0	0	0	0	0	0	0	0	0	0	0	0	0	0	0	0	0	0	0	0	0	0	0
112918	11:51:59	12:03:03	661700	5.0.10.0	995	Rpleas_acq	Oppo	Lpleas	Amasked	CS_A	1pleas	distractor1	cond_US_unple_123_masked_CS2	condtest_masked_2	9	33	400	1	300	300	0	0	373	50	0	1	0	0	0	1	blank2r.bmp	0	1	+	0	2	B2r.bmp	492	1	blank2r.bmp	786	1	DHJF	786	1	blank2r.bmp	866	3	verbissen	866	1	!	1239	1	!	1279	0	0	0	0	0	0	0	0	0	0	0	0	0	0	0	0	0	0	0	0	0	0	0	0	0	0	0
112918	11:51:59	12:03:05	663966	5.0.10.0	995	Rpleas_acq	Oppo	Lpleas	Amasked	CS_A	1pleas	distractor1	cond_US_pleas_123_masked_CS2	condtest_masked_2	9	34	400	0	300	300	0	0	499	46	0	1	0	0	0	1	blank2r.bmp	0	1	+	0	1	B1r.bmp	492	1	blank2r.bmp	786	1	DHJF	786	1	blank2r.bmp	866	2	anregung	866	1	!	1239	1	!	-1	0	0	0	0	0	0	0	0	0	0	0	0	0	0	0	0	0	0	0	0	0	0	0	0	0	0	0
112918	11:51:59	12:03:08	666152	5.0.10.0	995	Rpleas_acq	Oppo	Lpleas	Amasked	CS_A	1pleas	distractor1	cond_new_pleas_456_masked_CS1	condtest_masked_2	9	35	400	1	300	300	0	0	374	50	0	0	0	0	0	1	blank2r.bmp	0	1	+	0	6	C2r.bmp	492	1	blank2r.bmp	786	1	CPLW	786	1	blank2r.bmp	866	1	gesittet	866	1	!	1239	1	!	1279	0	0	0	0	0	0	0	0	0	0	0	0	0	0	0	0	0	0	0	0	0	0	0	0	0	0	0
112918	11:51:59	12:03:10	668417	5.0.10.0	995	Rpleas_acq	Oppo	Lpleas	Amasked	CS_A	1pleas	distractor1	cond_new_pleas_456_masked_CS2	condtest_masked_2	9	36	400	0	300	300	0	0	504	46	0	1	0	0	0	1	blank2r.bmp	0	1	+	0	5	C1r.bmp	492	1	blank2r.bmp	786	1	DHJF	786	1	blank2r.bmp	866	2	besonnen	866	1	!	1239	1	!	-1	0	0	0	0	0	0	0	0	0	0	0	0	0	0	0	0	0	0	0	0	0	0	0	0	0	0	0
112918	11:51:59	12:03:12	670590	5.0.10.0	995	Rpleas_acq	Oppo	Lpleas	Amasked	CS_A	1pleas	distractor1	cond_new_unple_456_masked_CS2	condtest_masked_2	9	37	400	1	300	300	0	0	366	46	0	0	0	0	0	1	blank2r.bmp	0	1	+	0	1	B1r.bmp	492	1	blank2r.bmp	786	1	DHJF	786	1	blank2r.bmp	866	2	bange	866	1	!	1239	1	!	1266	0	0	0	0	0	0	0	0	0	0	0	0	0	0	0	0	0	0	0	0	0	0	0	0	0	0	0
112918	11:51:59	12:03:14	672842	5.0.10.0	995	Rpleas_acq	Oppo	Lpleas	Amasked	CS_A	1pleas	distractor1	cond_US_pleas_123_masked_CS1	condtest_masked_2	9	38	400	1	300	300	0	0	441	46	0	1	0	0	0	1	blank2r.bmp	0	1	+	0	2	B2r.bmp	492	1	blank2r.bmp	786	1	CPLW	786	1	blank2r.bmp	866	1	vergnügt	866	1	!	1239	1	!	1346	0	0	0	0	0	0	0	0	0	0	0	0	0	0	0	0	0	0	0	0	0	0	0	0	0	0	0
112918	11:51:59	12:03:16	674988	5.0.10.0	995	Rpleas_acq	Oppo	Lpleas	Amasked	CS_A	1pleas	distractor1	cond_new_unple_456_masked_CS2	condtest_masked_2	9	39	400	1	300	300	0	0	346	50	0	1	0	0	0	1	blank2r.bmp	0	1	+	0	6	C2r.bmp	492	1	blank2r.bmp	786	1	DHJF	786	1	blank2r.bmp	866	3	töten	866	1	!	1239	1	!	1252	0	0	0	0	0	0	0	0	0	0	0	0	0	0	0	0	0	0	0	0	0	0	0	0	0	0	0
112918	11:51:59	12:03:19	677160	5.0.10.0	995	Rpleas_acq	Oppo	Lpleas	Amasked	CS_A	1pleas	distractor1	cond_new_pleas_456_masked_CS1	condtest_masked_2	9	40	400	1	300	300	0	0	368	46	0	1	0	0	0	1	blank2r.bmp	0	1	+	0	5	C1r.bmp	492	1	blank2r.bmp	786	1	CPLW	786	1	blank2r.bmp	866	3	genießen	866	1	!	1239	1	!	1266	0	0	0	0	0	0	0	0	0	0	0	0	0	0	0	0	0	0	0	0	0	0	0	0	0	0	0
112918	11:51:59	12:03:26	684677	5.0.10.0	995	Rpleas_acq	Oppo	Lpleas	Amasked	CS_A	1pleas	distractor1	cond_US_pleas_456_masked_CS2	condtest_masked_3	10	1	400	0	300	300	0	0	537	46	0	1	0	0	0	1	blank2r.bmp	0	1	+	0	8	C4r.bmp	492	1	blank2r.bmp	786	1	DHJF	786	1	blank2r.bmp	866	3	kuss	866	1	!	1239	1	!	-1	0	0	0	0	0	0	0	0	0	0	0	0	0	0	0	0	0	0	0	0	0	0	0	0	0	0	0
112918	11:51:59	12:03:28	686783	5.0.10.0	995	Rpleas_acq	Oppo	Lpleas	Amasked	CS_A	1pleas	distractor1	cond_US_unple_456_masked_CS1	condtest_masked_3	10	2	400	0	300	300	0	0	325	50	0	1	0	0	0	1	blank2r.bmp	0	1	+	0	3	B3r.bmp	492	1	blank2r.bmp	786	1	CPLW	786	1	blank2r.bmp	866	3	versagen	866	1	!	-1	1	!	-1	0	0	0	0	0	0	0	0	0	0	0	0	0	0	0	0	0	0	0	0	0	0	0	0	0	0	0
112918	11:51:59	12:03:30	688996	5.0.10.0	995	Rpleas_acq	Oppo	Lpleas	Amasked	CS_A	1pleas	distractor1	cond_US_pleas_456_masked_CS2	condtest_masked_3	10	3	400	1	300	300	0	0	400	46	0	1	0	0	0	1	blank2r.bmp	0	1	+	0	4	B4r.bmp	492	1	blank2r.bmp	786	1	DHJF	786	1	blank2r.bmp	866	2	kreativ	866	1	!	1239	1	!	1306	0	0	0	0	0	0	0	0	0	0	0	0	0	0	0	0	0	0	0	0	0	0	0	0	0	0	0
112918	11:51:59	12:03:33	691181	5.0.10.0	995	Rpleas_acq	Oppo	Lpleas	Amasked	CS_A	1pleas	distractor1	cond_US_pleas_456_masked_CS2	condtest_masked_3	10	4	400	1	300	300	0	0	398	46	0	1	0	0	0	1	blank2r.bmp	0	1	+	0	7	C3r.bmp	492	1	blank2r.bmp	786	1	DHJF	786	1	blank2r.bmp	866	1	vertrauen	866	1	!	1239	1	!	1292	0	0	0	0	0	0	0	0	0	0	0	0	0	0	0	0	0	0	0	0	0	0	0	0	0	0	0
112918	11:51:59	12:03:35	693420	5.0.10.0	995	Rpleas_acq	Oppo	Lpleas	Amasked	CS_A	1pleas	distractor1	cond_US_unple_456_masked_CS1	condtest_masked_3	10	5	400	1	300	300	0	0	432	50	0	1	0	0	0	1	blank2r.bmp	0	1	+	0	3	B3r.bmp	492	1	blank2r.bmp	786	1	CPLW	786	1	blank2r.bmp	866	1	krank	866	1	!	1239	1	!	1332	0	0	0	0	0	0	0	0	0	0	0	0	0	0	0	0	0	0	0	0	0	0	0	0	0	0	0
112918	11:51:59	12:03:37	695593	5.0.10.0	995	Rpleas_acq	Oppo	Lpleas	Amasked	CS_A	1pleas	distractor1	cond_US_pleas_456_masked_CS1	condtest_masked_3	10	6	400	1	300	300	0	0	385	46	0	1	0	0	0	1	blank2r.bmp	0	1	+	0	5	C1r.bmp	492	1	blank2r.bmp	786	1	CPLW	786	1	blank2r.bmp	866	1	vertrauen	866	1	!	1239	1	!	1279	0	0	0	0	0	0	0	0	0	0	0	0	0	0	0	0	0	0	0	0	0	0	0	0	0	0	0
112918	11:51:59	12:03:39	697765	5.0.10.0	995	Rpleas_acq	Oppo	Lpleas	Amasked	CS_A	1pleas	distractor1	cond_new_pleas_123_masked_CS1	condtest_masked_3	10	7	400	1	300	300	0	0	384	46	0	1	0	0	0	1	blank2r.bmp	0	1	+	0	2	B2r.bmp	492	1	blank2r.bmp	786	1	CPLW	786	1	blank2r.bmp	866	3	sonnig	866	1	!	1239	1	!	1279	0	0	0	0	0	0	0	0	0	0	0	0	0	0	0	0	0	0	0	0	0	0	0	0	0	0	0
112918	11:51:59	12:03:41	699964	5.0.10.0	995	Rpleas_acq	Oppo	Lpleas	Amasked	CS_A	1pleas	distractor1	cond_US_pleas_456_masked_CS1	condtest_masked_3	10	8	400	1	300	300	0	0	393	50	0	0	0	0	0	1	blank2r.bmp	0	1	+	0	7	C3r.bmp	492	1	blank2r.bmp	786	1	CPLW	786	1	blank2r.bmp	866	2	kreativ	866	1	!	1239	1	!	1292	0	0	0	0	0	0	0	0	0	0	0	0	0	0	0	0	0	0	0	0	0	0	0	0	0	0	0
112918	11:51:59	12:03:44	702150	5.0.10.0	995	Rpleas_acq	Oppo	Lpleas	Amasked	CS_A	1pleas	distractor1	cond_US_unple_456_masked_CS2	condtest_masked_3	10	9	400	1	300	300	0	0	374	50	0	1	0	0	0	1	blank2r.bmp	0	1	+	0	8	C4r.bmp	492	1	blank2r.bmp	786	1	DHJF	786	1	blank2r.bmp	866	2	sterben	866	1	!	1239	1	!	1279	0	0	0	0	0	0	0	0	0	0	0	0	0	0	0	0	0	0	0	0	0	0	0	0	0	0	0
112918	11:51:59	12:03:46	704349	5.0.10.0	995	Rpleas_acq	Oppo	Lpleas	Amasked	CS_A	1pleas	distractor1	cond_new_pleas_123_masked_CS2	condtest_masked_3	10	10	400	1	300	300	0	0	403	46	0	1	0	0	0	1	blank2r.bmp	0	1	+	0	1	B1r.bmp	492	1	blank2r.bmp	786	1	DHJF	786	1	blank2r.bmp	866	1	träumen	866	1	!	1239	1	!	1306	0	0	0	0	0	0	0	0	0	0	0	0	0	0	0	0	0	0	0	0	0	0	0	0	0	0	0
112918	11:51:59	12:03:48	706602	5.0.10.0	995	Rpleas_acq	Oppo	Lpleas	Amasked	CS_A	1pleas	distractor1	cond_new_unple_123_masked_CS2	condtest_masked_3	10	11	400	0	300	300	0	0	483	46	0	0	0	0	0	1	blank2r.bmp	0	1	+	0	6	C2r.bmp	492	1	blank2r.bmp	786	1	DHJF	786	1	blank2r.bmp	866	3	gierig	866	1	!	1239	1	!	-1	0	0	0	0	0	0	0	0	0	0	0	0	0	0	0	0	0	0	0	0	0	0	0	0	0	0	0
112918	11:51:59	12:03:50	708774	5.0.10.0	995	Rpleas_acq	Oppo	Lpleas	Amasked	CS_A	1pleas	distractor1	cond_new_unple_123_masked_CS1	condtest_masked_3	10	12	400	1	300	300	0	0	368	50	0	1	0	0	0	1	blank2r.bmp	0	1	+	0	4	B4r.bmp	492	1	blank2r.bmp	786	1	CPLW	786	1	blank2r.bmp	866	2	gemein	866	1	!	1239	1	!	1266	0	0	0	0	0	0	0	0	0	0	0	0	0	0	0	0	0	0	0	0	0	0	0	0	0	0	0
112918	11:51:59	12:03:52	710933	5.0.10.0	995	Rpleas_acq	Oppo	Lpleas	Amasked	CS_A	1pleas	distractor1	cond_US_unple_456_masked_CS1	condtest_masked_3	10	13	400	1	300	300	0	0	371	50	0	1	0	0	0	1	blank2r.bmp	0	1	+	0	6	C2r.bmp	492	1	blank2r.bmp	786	1	CPLW	786	1	blank2r.bmp	866	2	sterben	866	1	!	1239	1	!	1266	0	0	0	0	0	0	0	0	0	0	0	0	0	0	0	0	0	0	0	0	0	0	0	0	0	0	0
112918	11:51:59	12:03:55	713186	5.0.10.0	995	Rpleas_acq	Oppo	Lpleas	Amasked	CS_A	1pleas	distractor1	cond_new_pleas_123_masked_CS2	condtest_masked_3	10	14	400	0	300	300	0	0	479	46	0	1	0	0	0	1	blank2r.bmp	0	1	+	0	3	B3r.bmp	492	1	blank2r.bmp	786	1	DHJF	786	1	blank2r.bmp	866	2	engagiert	866	1	!	1239	1	!	-1	0	0	0	0	0	0	0	0	0	0	0	0	0	0	0	0	0	0	0	0	0	0	0	0	0	0	0
112918	11:51:59	12:03:57	715411	5.0.10.0	995	Rpleas_acq	Oppo	Lpleas	Amasked	CS_A	1pleas	distractor1	cond_new_unple_123_masked_CS2	condtest_masked_3	10	15	400	1	300	300	0	0	418	50	0	1	0	0	0	1	blank2r.bmp	0	1	+	0	4	B4r.bmp	492	1	blank2r.bmp	786	1	DHJF	786	1	blank2r.bmp	866	1	ausrottung	866	1	!	1239	1	!	1319	0	0	0	0	0	0	0	0	0	0	0	0	0	0	0	0	0	0	0	0	0	0	0	0	0	0	0
112918	11:51:59	12:03:59	717677	5.0.10.0	995	Rpleas_acq	Oppo	Lpleas	Amasked	CS_A	1pleas	distractor1	cond_new_pleas_123_masked_CS2	condtest_masked_3	10	16	400	0	300	300	0	0	500	46	0	1	0	0	0	1	blank2r.bmp	0	1	+	0	7	C3r.bmp	492	1	blank2r.bmp	786	1	DHJF	786	1	blank2r.bmp	866	3	sonnig	866	1	!	1239	1	!	-1	0	0	0	0	0	0	0	0	0	0	0	0	0	0	0	0	0	0	0	0	0	0	0	0	0	0	0
112918	11:51:59	12:04:02	720076	5.0.10.0	995	Rpleas_acq	Oppo	Lpleas	Amasked	CS_A	1pleas	distractor1	cond_US_unple_456_masked_CS1	condtest_masked_3	10	17	400	0	300	300	0	0	612	46	0	0	0	0	0	1	blank2r.bmp	0	1	+	0	5	C1r.bmp	492	1	blank2r.bmp	786	1	CPLW	786	1	blank2r.bmp	866	3	versagen	866	1	!	1239	1	!	-1	0	0	0	0	0	0	0	0	0	0	0	0	0	0	0	0	0	0	0	0	0	0	0	0	0	0	0
112918	11:51:59	12:04:04	722355	5.0.10.0	995	Rpleas_acq	Oppo	Lpleas	Amasked	CS_A	1pleas	distractor1	cond_new_pleas_123_masked_CS2	condtest_masked_3	10	18	400	0	300	300	0	0	502	46	0	1	0	0	0	1	blank2r.bmp	0	1	+	0	1	B1r.bmp	492	1	blank2r.bmp	786	1	DHJF	786	1	blank2r.bmp	866	1	träumen	866	1	!	1239	1	!	-1	0	0	0	0	0	0	0	0	0	0	0	0	0	0	0	0	0	0	0	0	0	0	0	0	0	0	0
112918	11:51:59	12:04:06	724568	5.0.10.0	995	Rpleas_acq	Oppo	Lpleas	Amasked	CS_A	1pleas	distractor1	cond_new_pleas_123_masked_CS2	condtest_masked_3	10	19	400	1	300	300	0	0	408	50	0	0	0	0	0	1	blank2r.bmp	0	1	+	0	8	C4r.bmp	492	1	blank2r.bmp	786	1	DHJF	786	1	blank2r.bmp	866	2	engagiert	866	1	!	1239	1	!	1306	0	0	0	0	0	0	0	0	0	0	0	0	0	0	0	0	0	0	0	0	0	0	0	0	0	0	0
112918	11:51:59	12:04:08	726767	5.0.10.0	995	Rpleas_acq	Oppo	Lpleas	Amasked	CS_A	1pleas	distractor1	cond_US_unple_456_masked_CS1	condtest_masked_3	10	20	400	1	300	300	0	0	411	46	0	0	0	0	0	1	blank2r.bmp	0	1	+	0	2	B2r.bmp	492	1	blank2r.bmp	786	1	CPLW	786	1	blank2r.bmp	866	1	krank	866	1	!	1239	1	!	1306	0	0	0	0	0	0	0	0	0	0	0	0	0	0	0	0	0	0	0	0	0	0	0	0	0	0	0
112918	11:51:59	12:04:10	728979	5.0.10.0	995	Rpleas_acq	Oppo	Lpleas	Amasked	CS_A	1pleas	distractor1	cond_US_unple_456_masked_CS2	condtest_masked_3	10	21	400	1	300	300	0	0	419	50	0	1	0	0	0	1	blank2r.bmp	0	1	+	0	8	C4r.bmp	492	1	blank2r.bmp	786	1	DHJF	786	1	blank2r.bmp	866	3	versagen	866	1	!	1239	1	!	1319	0	0	0	0	0	0	0	0	0	0	0	0	0	0	0	0	0	0	0	0	0	0	0	0	0	0	0
112918	11:51:59	12:04:13	731218	5.0.10.0	995	Rpleas_acq	Oppo	Lpleas	Amasked	CS_A	1pleas	distractor1	cond_new_unple_123_masked_CS1	condtest_masked_3	10	22	400	1	300	300	0	0	438	46	0	0	0	0	0	1	blank2r.bmp	0	1	+	0	4	B4r.bmp	492	1	blank2r.bmp	786	1	CPLW	786	1	blank2r.bmp	866	3	gierig	866	1	!	1239	1	!	1332	0	0	0	0	0	0	0	0	0	0	0	0	0	0	0	0	0	0	0	0	0	0	0	0	0	0	0
112918	11:51:59	12:04:15	733404	5.0.10.0	995	Rpleas_acq	Oppo	Lpleas	Amasked	CS_A	1pleas	distractor1	cond_US_pleas_456_masked_CS2	condtest_masked_3	10	23	400	1	300	300	0	0	398	50	0	0	0	0	0	1	blank2r.bmp	0	1	+	0	7	C3r.bmp	492	1	blank2r.bmp	786	1	DHJF	786	1	blank2r.bmp	866	3	kuss	866	1	!	1239	1	!	1292	0	0	0	0	0	0	0	0	0	0	0	0	0	0	0	0	0	0	0	0	0	0	0	0	0	0	0
112918	11:51:59	12:04:17	735736	5.0.10.0	995	Rpleas_acq	Oppo	Lpleas	Amasked	CS_A	1pleas	distractor1	cond_new_unple_123_masked_CS1	condtest_masked_3	10	24	400	0	300	300	0	0	566	50	0	1	0	0	0	1	blank2r.bmp	0	1	+	0	6	C2r.bmp	492	1	blank2r.bmp	786	1	CPLW	786	1	blank2r.bmp	866	2	gemein	866	1	!	1239	1	!	-1	0	0	0	0	0	0	0	0	0	0	0	0	0	0	0	0	0	0	0	0	0	0	0	0	0	0	0
112918	11:51:59	12:04:21	739242	5.0.10.0	995	Rpleas_acq	Oppo	Lpleas	Amasked	CS_A	1pleas	distractor1	cond_US_pleas_456_masked_CS2	condtest_masked_3	10	25	400	0	300	300	0	0	1708	50	0	0	0	0	0	1	blank2r.bmp	0	1	+	0	3	B3r.bmp	492	1	blank2r.bmp	786	1	DHJF	786	1	blank2r.bmp	866	3	kuss	866	1	!	1239	1	!	-1	0	0	0	0	0	0	0	0	0	0	0	0	0	0	0	0	0	0	0	0	0	0	0	0	0	0	0
112918	11:51:59	12:04:23	741521	5.0.10.0	995	Rpleas_acq	Oppo	Lpleas	Amasked	CS_A	1pleas	distractor1	cond_new_pleas_123_masked_CS1	condtest_masked_3	10	26	400	1	300	300	0	0	465	46	0	1	0	0	0	1	blank2r.bmp	0	1	+	0	5	C1r.bmp	492	1	blank2r.bmp	786	1	CPLW	786	1	blank2r.bmp	866	1	träumen	866	1	!	1239	1	!	1372	0	0	0	0	0	0	0	0	0	0	0	0	0	0	0	0	0	0	0	0	0	0	0	0	0	0	0
112918	11:51:59	12:04:25	743746	5.0.10.0	995	Rpleas_acq	Oppo	Lpleas	Amasked	CS_A	1pleas	distractor1	cond_US_unple_456_masked_CS2	condtest_masked_3	10	27	400	1	300	300	0	0	436	50	0	1	0	0	0	1	blank2r.bmp	0	1	+	0	2	B2r.bmp	492	1	blank2r.bmp	786	1	DHJF	786	1	blank2r.bmp	866	1	krank	866	1	!	1239	1	!	1332	0	0	0	0	0	0	0	0	0	0	0	0	0	0	0	0	0	0	0	0	0	0	0	0	0	0	0
112918	11:51:59	12:04:27	745959	5.0.10.0	995	Rpleas_acq	Oppo	Lpleas	Amasked	CS_A	1pleas	distractor1	cond_new_unple_123_masked_CS2	condtest_masked_3	10	28	400	1	300	300	0	0	414	46	0	0	0	0	0	1	blank2r.bmp	0	1	+	0	1	B1r.bmp	492	1	blank2r.bmp	786	1	DHJF	786	1	blank2r.bmp	866	1	ausrottung	866	1	!	1239	1	!	1319	0	0	0	0	0	0	0	0	0	0	0	0	0	0	0	0	0	0	0	0	0	0	0	0	0	0	0
112918	11:51:59	12:04:30	748238	5.0.10.0	995	Rpleas_acq	Oppo	Lpleas	Amasked	CS_A	1pleas	distractor1	cond_US_pleas_456_masked_CS1	condtest_masked_3	10	29	400	0	300	300	0	0	505	46	0	1	0	0	0	1	blank2r.bmp	0	1	+	0	4	B4r.bmp	492	1	blank2r.bmp	786	1	CPLW	786	1	blank2r.bmp	866	2	kreativ	866	1	!	1239	1	!	-1	0	0	0	0	0	0	0	0	0	0	0	0	0	0	0	0	0	0	0	0	0	0	0	0	0	0	0
112918	11:51:59	12:04:32	750504	5.0.10.0	995	Rpleas_acq	Oppo	Lpleas	Amasked	CS_A	1pleas	distractor1	cond_new_unple_123_masked_CS2	condtest_masked_3	10	30	400	0	300	300	0	0	479	46	0	0	0	0	0	1	blank2r.bmp	0	1	+	0	5	C1r.bmp	492	1	blank2r.bmp	786	1	DHJF	786	1	blank2r.bmp	866	3	gierig	866	1	!	1239	1	!	-1	0	0	0	0	0	0	0	0	0	0	0	0	0	0	0	0	0	0	0	0	0	0	0	0	0	0	0
112918	11:51:59	12:04:34	752663	5.0.10.0	995	Rpleas_acq	Oppo	Lpleas	Amasked	CS_A	1pleas	distractor1	cond_new_pleas_123_masked_CS1	condtest_masked_3	10	31	400	1	300	300	0	0	346	46	0	1	0	0	0	1	blank2r.bmp	0	1	+	0	2	B2r.bmp	492	1	blank2r.bmp	786	1	CPLW	786	1	blank2r.bmp	866	2	engagiert	866	1	!	1239	1	!	1252	0	0	0	0	0	0	0	0	0	0	0	0	0	0	0	0	0	0	0	0	0	0	0	0	0	0	0
112918	11:51:59	12:04:36	754822	5.0.10.0	995	Rpleas_acq	Oppo	Lpleas	Amasked	CS_A	1pleas	distractor1	cond_US_unple_456_masked_CS1	condtest_masked_3	10	32	400	1	300	300	0	0	372	50	0	1	0	0	0	1	blank2r.bmp	0	1	+	0	3	B3r.bmp	492	1	blank2r.bmp	786	1	CPLW	786	1	blank2r.bmp	866	2	sterben	866	1	!	1239	1	!	1266	0	0	0	0	0	0	0	0	0	0	0	0	0	0	0	0	0	0	0	0	0	0	0	0	0	0	0
112918	11:51:59	12:04:38	757021	5.0.10.0	995	Rpleas_acq	Oppo	Lpleas	Amasked	CS_A	1pleas	distractor1	cond_new_unple_123_masked_CS2	condtest_masked_3	10	33	400	1	300	300	0	0	405	50	0	1	0	0	0	1	blank2r.bmp	0	1	+	0	6	C2r.bmp	492	1	blank2r.bmp	786	1	DHJF	786	1	blank2r.bmp	866	2	gemein	866	1	!	1239	1	!	1306	0	0	0	0	0	0	0	0	0	0	0	0	0	0	0	0	0	0	0	0	0	0	0	0	0	0	0
112918	11:51:59	12:04:41	759260	5.0.10.0	995	Rpleas_acq	Oppo	Lpleas	Amasked	CS_A	1pleas	distractor1	cond_new_unple_123_masked_CS1	condtest_masked_3	10	34	400	1	300	300	0	0	446	50	0	1	0	0	0	1	blank2r.bmp	0	1	+	0	7	C3r.bmp	492	1	blank2r.bmp	786	1	CPLW	786	1	blank2r.bmp	866	1	ausrottung	866	1	!	1239	1	!	1346	0	0	0	0	0	0	0	0	0	0	0	0	0	0	0	0	0	0	0	0	0	0	0	0	0	0	0
112918	11:51:59	12:04:43	761459	5.0.10.0	995	Rpleas_acq	Oppo	Lpleas	Amasked	CS_A	1pleas	distractor1	cond_new_pleas_123_masked_CS2	condtest_masked_3	10	35	400	1	300	300	0	0	386	46	0	1	0	0	0	1	blank2r.bmp	0	1	+	0	8	C4r.bmp	492	1	blank2r.bmp	786	1	DHJF	786	1	blank2r.bmp	866	3	sonnig	866	1	!	1239	1	!	1292	0	0	0	0	0	0	0	0	0	0	0	0	0	0	0	0	0	0	0	0	0	0	0	0	0	0	0
112918	11:51:59	12:04:45	763725	5.0.10.0	995	Rpleas_acq	Oppo	Lpleas	Amasked	CS_A	1pleas	distractor1	cond_new_pleas_123_masked_CS1	condtest_masked_3	10	36	400	1	300	300	0	0	453	46	0	1	0	0	0	1	blank2r.bmp	0	1	+	0	1	B1r.bmp	492	1	blank2r.bmp	786	1	CPLW	786	1	blank2r.bmp	866	1	träumen	866	1	!	1239	1	!	1359	0	0	0	0	0	0	0	0	0	0	0	0	0	0	0	0	0	0	0	0	0	0	0	0	0	0	0
112918	11:51:59	12:04:47	765977	5.0.10.0	995	Rpleas_acq	Oppo	Lpleas	Amasked	CS_A	1pleas	distractor1	cond_US_pleas_456_masked_CS1	condtest_masked_3	10	37	400	0	300	300	0	0	479	46	0	1	0	0	0	1	blank2r.bmp	0	1	+	0	6	C2r.bmp	492	1	blank2r.bmp	786	1	CPLW	786	1	blank2r.bmp	866	1	vertrauen	866	1	!	1239	1	!	-1	0	0	0	0	0	0	0	0	0	0	0	0	0	0	0	0	0	0	0	0	0	0	0	0	0	0	0
112918	11:51:59	12:04:50	768136	5.0.10.0	995	Rpleas_acq	Oppo	Lpleas	Amasked	CS_A	1pleas	distractor1	cond_new_unple_123_masked_CS1	condtest_masked_3	10	38	400	1	300	300	0	0	355	46	0	0	0	0	0	1	blank2r.bmp	0	1	+	0	7	C3r.bmp	492	1	blank2r.bmp	786	1	CPLW	786	1	blank2r.bmp	866	3	gierig	866	1	!	1239	1	!	1252	0	0	0	0	0	0	0	0	0	0	0	0	0	0	0	0	0	0	0	0	0	0	0	0	0	0	0
112918	11:51:59	12:04:52	770295	5.0.10.0	995	Rpleas_acq	Oppo	Lpleas	Amasked	CS_A	1pleas	distractor1	cond_new_pleas_123_masked_CS1	condtest_masked_3	10	39	400	1	300	300	0	0	354	50	0	0	0	0	0	1	blank2r.bmp	0	1	+	0	2	B2r.bmp	492	1	blank2r.bmp	786	1	CPLW	786	1	blank2r.bmp	866	2	engagiert	866	1	!	1239	1	!	1252	0	0	0	0	0	0	0	0	0	0	0	0	0	0	0	0	0	0	0	0	0	0	0	0	0	0	0
112918	11:51:59	12:04:54	772548	5.0.10.0	995	Rpleas_acq	Oppo	Lpleas	Amasked	CS_A	1pleas	distractor1	cond_US_unple_456_masked_CS2	condtest_masked_3	10	40	400	1	300	300	0	0	461	50	0	1	0	0	0	1	blank2r.bmp	0	1	+	0	3	B3r.bmp	492	1	blank2r.bmp	786	1	DHJF	786	1	blank2r.bmp	866	1	krank	866	1	!	1239	1	!	1359	0	0	0	0	0	0	0	0	0	0	0	0	0	0	0	0	0	0	0	0	0	0	0	0	0	0	0
112918	11:51:59	12:04:56	774800	5.0.10.0	995	Rpleas_acq	Oppo	Lpleas	Amasked	CS_A	1pleas	distractor1	cond_US_pleas_456_masked_CS2	condtest_masked_3	10	41	400	0	300	300	0	0	479	50	0	0	0	0	0	1	blank2r.bmp	0	1	+	0	4	B4r.bmp	492	1	blank2r.bmp	786	1	DHJF	786	1	blank2r.bmp	866	3	kuss	866	1	!	1239	1	!	-1	0	0	0	0	0	0	0	0	0	0	0	0	0	0	0	0	0	0	0	0	0	0	0	0	0	0	0
112918	11:51:59	12:04:58	776999	5.0.10.0	995	Rpleas_acq	Oppo	Lpleas	Amasked	CS_A	1pleas	distractor1	cond_new_unple_123_masked_CS1	condtest_masked_3	10	42	400	1	300	300	0	0	376	46	0	0	0	0	0	1	blank2r.bmp	0	1	+	0	5	C1r.bmp	492	1	blank2r.bmp	786	1	CPLW	786	1	blank2r.bmp	866	2	gemein	866	1	!	1239	1	!	1279	0	0	0	0	0	0	0	0	0	0	0	0	0	0	0	0	0	0	0	0	0	0	0	0	0	0	0
112918	11:51:59	12:05:01	779265	5.0.10.0	995	Rpleas_acq	Oppo	Lpleas	Amasked	CS_A	1pleas	distractor1	cond_US_pleas_456_masked_CS1	condtest_masked_3	10	43	400	0	300	300	0	0	494	46	0	1	0	0	0	1	blank2r.bmp	0	1	+	0	1	B1r.bmp	492	1	blank2r.bmp	786	1	CPLW	786	1	blank2r.bmp	866	2	kreativ	866	1	!	1239	1	!	-1	0	0	0	0	0	0	0	0	0	0	0	0	0	0	0	0	0	0	0	0	0	0	0	0	0	0	0
112918	11:51:59	12:05:03	781518	5.0.10.0	995	Rpleas_acq	Oppo	Lpleas	Amasked	CS_A	1pleas	distractor1	cond_new_pleas_123_masked_CS1	condtest_masked_3	10	44	400	1	300	300	0	0	441	46	0	1	0	0	0	1	blank2r.bmp	0	1	+	0	8	C4r.bmp	492	1	blank2r.bmp	786	1	CPLW	786	1	blank2r.bmp	866	3	sonnig	866	1	!	1239	1	!	1346	0	0	0	0	0	0	0	0	0	0	0	0	0	0	0	0	0	0	0	0	0	0	0	0	0	0	0
112918	11:51:59	12:05:05	783703	5.0.10.0	995	Rpleas_acq	Oppo	Lpleas	Amasked	CS_A	1pleas	distractor1	cond_new_unple_123_masked_CS2	condtest_masked_3	10	45	400	1	300	300	0	0	387	50	0	1	0	0	0	1	blank2r.bmp	0	1	+	0	1	B1r.bmp	492	1	blank2r.bmp	786	1	DHJF	786	1	blank2r.bmp	866	1	ausrottung	866	1	!	1239	1	!	1292	0	0	0	0	0	0	0	0	0	0	0	0	0	0	0	0	0	0	0	0	0	0	0	0	0	0	0
112918	11:51:59	12:05:07	785929	5.0.10.0	995	Rpleas_acq	Oppo	Lpleas	Amasked	CS_A	1pleas	distractor1	cond_US_unple_456_masked_CS2	condtest_masked_3	10	46	400	1	300	300	0	0	413	50	0	1	0	0	0	1	blank2r.bmp	0	1	+	0	4	B4r.bmp	492	1	blank2r.bmp	786	1	DHJF	786	1	blank2r.bmp	866	3	versagen	866	1	!	1239	1	!	1319	0	0	0	0	0	0	0	0	0	0	0	0	0	0	0	0	0	0	0	0	0	0	0	0	0	0	0
112918	11:51:59	12:05:10	788141	5.0.10.0	995	Rpleas_acq	Oppo	Lpleas	Amasked	CS_A	1pleas	distractor1	cond_US_pleas_456_masked_CS1	condtest_masked_3	10	47	400	1	300	300	0	0	419	50	0	0	0	0	0	1	blank2r.bmp	0	1	+	0	6	C2r.bmp	492	1	blank2r.bmp	786	1	CPLW	786	1	blank2r.bmp	866	1	vertrauen	866	1	!	1239	1	!	1319	0	0	0	0	0	0	0	0	0	0	0	0	0	0	0	0	0	0	0	0	0	0	0	0	0	0	0
112918	11:51:59	12:05:12	790381	5.0.10.0	995	Rpleas_acq	Oppo	Lpleas	Amasked	CS_A	1pleas	distractor1	cond_US_unple_456_masked_CS2	condtest_masked_3	10	48	400	1	300	300	0	0	447	46	0	0	0	0	0	1	blank2r.bmp	0	1	+	0	3	B3r.bmp	492	1	blank2r.bmp	786	1	DHJF	786	1	blank2r.bmp	866	2	sterben	866	1	!	1239	1	!	1346	0	0	0	0	0	0	0	0	0	0	0	0	0	0	0	0	0	0	0	0	0	0	0	0	0	0	0
112918	11:51:59	12:05:18	796685	5.0.10.0	995	Rpleas_acq	Oppo	Lpleas	Amasked	CS_A	1pleas	distractor1	cond_new_pleas_456_masked_CS1	condtest_masked_4	11	1	400	1	300	300	0	0	425	50	0	0	0	0	0	1	blank2r.bmp	0	1	+	0	8	C4r.bmp	492	1	blank2r.bmp	786	1	CPLW	786	1	blank2r.bmp	866	1	gesittet	866	1	!	1239	1	!	1319	0	0	0	0	0	0	0	0	0	0	0	0	0	0	0	0	0	0	0	0	0	0	0	0	0	0	0
112918	11:51:59	12:05:20	798950	5.0.10.0	995	Rpleas_acq	Oppo	Lpleas	Amasked	CS_A	1pleas	distractor1	cond_US_pleas_123_masked_CS2	condtest_masked_4	11	2	400	1	300	300	0	0	461	46	0	1	0	0	0	1	blank2r.bmp	0	1	+	0	5	C1r.bmp	492	1	blank2r.bmp	786	1	DHJF	786	1	blank2r.bmp	866	3	gütig	866	1	!	1239	1	!	1359	0	0	0	0	0	0	0	0	0	0	0	0	0	0	0	0	0	0	0	0	0	0	0	0	0	0	0
112918	11:51:59	12:05:23	801149	5.0.10.0	995	Rpleas_acq	Oppo	Lpleas	Amasked	CS_A	1pleas	distractor1	cond_new_pleas_456_masked_CS2	condtest_masked_4	11	3	400	1	300	300	0	0	408	46	0	1	0	0	0	1	blank2r.bmp	0	1	+	0	2	B2r.bmp	492	1	blank2r.bmp	786	1	DHJF	786	1	blank2r.bmp	866	2	besonnen	866	1	!	1239	1	!	1306	0	0	0	0	0	0	0	0	0	0	0	0	0	0	0	0	0	0	0	0	0	0	0	0	0	0	0
112918	11:51:59	12:05:25	803429	5.0.10.0	995	Rpleas_acq	Oppo	Lpleas	Amasked	CS_A	1pleas	distractor1	cond_new_pleas_456_masked_CS2	condtest_masked_4	11	4	400	0	300	300	0	0	513	46	0	1	0	0	0	1	blank2r.bmp	0	1	+	0	7	C3r.bmp	492	1	blank2r.bmp	786	1	DHJF	786	1	blank2r.bmp	866	3	genießen	866	1	!	1239	1	!	-1	0	0	0	0	0	0	0	0	0	0	0	0	0	0	0	0	0	0	0	0	0	0	0	0	0	0	0
112918	11:51:59	12:05:27	805601	5.0.10.0	995	Rpleas_acq	Oppo	Lpleas	Amasked	CS_A	1pleas	distractor1	cond_new_pleas_456_masked_CS2	condtest_masked_4	11	5	400	1	300	300	0	0	362	50	0	0	0	0	0	1	blank2r.bmp	0	1	+	0	2	B2r.bmp	492	1	blank2r.bmp	786	1	DHJF	786	1	blank2r.bmp	866	2	besonnen	866	1	!	1239	1	!	1266	0	0	0	0	0	0	0	0	0	0	0	0	0	0	0	0	0	0	0	0	0	0	0	0	0	0	0
112918	11:51:59	12:05:29	807787	5.0.10.0	995	Rpleas_acq	Oppo	Lpleas	Amasked	CS_A	1pleas	distractor1	cond_US_pleas_123_masked_CS1	condtest_masked_4	11	6	400	1	300	300	0	0	387	46	0	1	0	0	0	1	blank2r.bmp	0	1	+	0	1	B1r.bmp	492	1	blank2r.bmp	786	1	CPLW	786	1	blank2r.bmp	866	2	anregung	866	1	!	1239	1	!	1292	0	0	0	0	0	0	0	0	0	0	0	0	0	0	0	0	0	0	0	0	0	0	0	0	0	0	0
112918	11:51:59	12:05:31	810026	5.0.10.0	995	Rpleas_acq	Oppo	Lpleas	Amasked	CS_A	1pleas	distractor1	cond_new_pleas_456_masked_CS1	condtest_masked_4	11	7	400	1	300	300	0	0	448	46	0	1	0	0	0	1	blank2r.bmp	0	1	+	0	8	C4r.bmp	492	1	blank2r.bmp	786	1	CPLW	786	1	blank2r.bmp	866	3	genießen	866	1	!	1239	1	!	1346	0	0	0	0	0	0	0	0	0	0	0	0	0	0	0	0	0	0	0	0	0	0	0	0	0	0	0
112918	11:51:59	12:05:34	812278	5.0.10.0	995	Rpleas_acq	Oppo	Lpleas	Amasked	CS_A	1pleas	distractor1	cond_new_unple_456_masked_CS2	condtest_masked_4	11	8	400	1	300	300	0	0	459	46	0	0	0	0	0	1	blank2r.bmp	0	1	+	0	7	C3r.bmp	492	1	blank2r.bmp	786	1	DHJF	786	1	blank2r.bmp	866	3	töten	866	1	!	1239	1	!	1359	0	0	0	0	0	0	0	0	0	0	0	0	0	0	0	0	0	0	0	0	0	0	0	0	0	0	0
112918	11:51:59	12:05:36	814557	5.0.10.0	995	Rpleas_acq	Oppo	Lpleas	Amasked	CS_A	1pleas	distractor1	cond_new_pleas_456_masked_CS2	condtest_masked_4	11	9	400	0	300	300	0	0	513	46	0	1	0	0	0	1	blank2r.bmp	0	1	+	0	4	B4r.bmp	492	1	blank2r.bmp	786	1	DHJF	786	1	blank2r.bmp	866	1	gesittet	866	1	!	1239	1	!	-1	0	0	0	0	0	0	0	0	0	0	0	0	0	0	0	0	0	0	0	0	0	0	0	0	0	0	0
112918	11:51:59	12:05:38	816823	5.0.10.0	995	Rpleas_acq	Oppo	Lpleas	Amasked	CS_A	1pleas	distractor1	cond_US_unple_123_masked_CS2	condtest_masked_4	11	10	400	0	300	300	0	0	484	46	0	0	0	0	0	1	blank2r.bmp	0	1	+	0	3	B3r.bmp	492	1	blank2r.bmp	786	1	DHJF	786	1	blank2r.bmp	866	1	engstirnig	866	1	!	1239	1	!	-1	0	0	0	0	0	0	0	0	0	0	0	0	0	0	0	0	0	0	0	0	0	0	0	0	0	0	0
