date	time	script.currenttime	script.elapsedtime	build	script.currentexpt	subject	expressions.LRpleas_acq	expressions.SameOppo	expressions.condition_Lpleas	expressions.ABmasked	expressions.conditionCS_A	expressions.condition_1pleas	expressions.condition_distractor_AMP	expressions.AWACON_AMPEVA_first	trialcode	blockcode	blocknum	trialnum	windowcenter	inwindow	pretrialpause	posttrialpause	trialduration	trialtimeout	latency	response	expressions.correctedscore	correct	values.vis_performance	values.vis_rating_sum	values.vis_rating_mean	stimulusnumber1	stimulusitem1	stimulusonset1	stimulusnumber2	stimulusitem2	stimulusonset2	stimulusnumber3	stimulusitem3	stimulusonset3	stimulusnumber4	stimulusitem4	stimulusonset4	stimulusnumber5	stimulusitem5	stimulusonset5	stimulusnumber6	stimulusitem6	stimulusonset6	stimulusnumber7	stimulusitem7	stimulusonset7	stimulusnumber8	stimulusitem8	stimulusonset8	stimulusnumber9	stimulusitem9	stimulusonset9	stimulusnumber10	stimulusitem10	stimulusonset10	stimulusnumber11	stimulusitem11	stimulusonset11	stimulusnumber12	stimulusitem12	stimulusonset12	stimulusnumber13	stimulusitem13	stimulusonset13	stimulusnumber14	stimulusitem14	stimulusonset14	stimulusnumber15	stimulusitem15	stimulusonset15	stimulusnumber16	stimulusitem16	stimulusonset16	stimulusnumber17	stimulusitem17	stimulusonset17	stimulusnumber18	stimulusitem18	stimulusonset18
011619	13:43:06	13:45:12	124881	5.0.10.0	4_exp_EVA_AMP_AWA_CON	74	Rpleas_acq	Same	Rpleas	Bmasked	CS_B	1pleas	distractor2	EVAbeforeCON	acq_new_pleas_masked	acq1_masked	1	1	0	0	300	300	0	0	1189	50	0	1	0	0	0	1	blank2r.bmp	0	1	+	0	4	B4r.bmp	492	1	blank2r.bmp	786	3	B3r.bmp	786	1	blank2r.bmp	866	6	loyal	866	0	0	0	0	0	0	0	0	0	0	0	0	0	0	0	0	0	0	0	0	0	0	0	0	0	0	0	0	0	0	0	0	0
011619	13:43:06	13:45:14	127067	5.0.10.0	4_exp_EVA_AMP_AWA_CON	74	Rpleas_acq	Same	Rpleas	Bmasked	CS_B	1pleas	distractor2	EVAbeforeCON	acq_new_unple_masked	acq1_masked	1	2	0	0	300	300	0	0	713	46	0	1	0	0	0	1	blank2r.bmp	0	1	+	0	5	C1r.bmp	492	1	blank2r.bmp	786	4	B4r.bmp	786	1	blank2r.bmp	866	2	schroff	866	0	0	0	0	0	0	0	0	0	0	0	0	0	0	0	0	0	0	0	0	0	0	0	0	0	0	0	0	0	0	0	0	0
011619	13:43:06	13:45:16	129319	5.0.10.0	4_exp_EVA_AMP_AWA_CON	74	Rpleas_acq	Same	Rpleas	Bmasked	CS_B	2pleas	distractor2	EVAbeforeCON	acq_US_unple_masked	acq1_masked	1	3	0	0	300	300	0	0	762	46	0	1	0	0	0	1	blank2r.bmp	0	1	+	0	7	C3r.bmp	492	1	blank2r.bmp	786	1	BMVZ	786	1	blank2r.bmp	866	2	rächen	866	0	0	0	0	0	0	0	0	0	0	0	0	0	0	0	0	0	0	0	0	0	0	0	0	0	0	0	0	0	0	0	0	0
011619	13:43:06	13:45:19	131638	5.0.10.0	4_exp_EVA_AMP_AWA_CON	74	Rpleas_acq	Same	Rpleas	Bmasked	CS_B	2pleas	distractor2	EVAbeforeCON	acq_US_pleas_masked	acq1_masked	1	4	0	0	300	300	0	0	834	50	0	1	0	0	0	1	blank2r.bmp	0	1	+	0	8	C4r.bmp	492	1	blank2r.bmp	786	1	GKQX	786	1	blank2r.bmp	866	5	spielen	866	0	0	0	0	0	0	0	0	0	0	0	0	0	0	0	0	0	0	0	0	0	0	0	0	0	0	0	0	0	0	0	0	0
011619	13:43:06	13:45:21	133877	5.0.10.0	4_exp_EVA_AMP_AWA_CON	74	Rpleas_acq	Same	Rpleas	Bmasked	CS_B	2pleas	distractor2	EVAbeforeCON	acq_new_unple_masked	acq1_masked	1	5	0	0	300	300	0	0	746	46	0	1	0	0	0	1	blank2r.bmp	0	1	+	0	3	B3r.bmp	492	1	blank2r.bmp	786	5	C1r.bmp	786	1	blank2r.bmp	866	4	leiden	866	0	0	0	0	0	0	0	0	0	0	0	0	0	0	0	0	0	0	0	0	0	0	0	0	0	0	0	0	0	0	0	0	0
011619	13:43:06	13:45:24	136650	5.0.10.0	4_exp_EVA_AMP_AWA_CON	74	Rpleas_acq	Same	Rpleas	Bmasked	CS_B	2pleas	distractor2	EVAbeforeCON	acq_US_unple_masked	acq1_masked	1	6	0	0	300	300	0	0	1285	46	0	1	0	0	0	1	blank2r.bmp	0	1	+	0	1	B1r.bmp	492	1	blank2r.bmp	786	1	BMVZ	786	1	blank2r.bmp	866	6	hindern	866	0	0	0	0	0	0	0	0	0	0	0	0	0	0	0	0	0	0	0	0	0	0	0	0	0	0	0	0	0	0	0	0	0
011619	13:43:06	13:45:26	138742	5.0.10.0	4_exp_EVA_AMP_AWA_CON	74	Rpleas_acq	Same	Rpleas	Bmasked	CS_B	2pleas	distractor2	EVAbeforeCON	acq_US_pleas_masked	acq1_masked	1	7	0	0	300	300	0	0	609	50	0	1	0	0	0	1	blank2r.bmp	0	1	+	0	2	B2r.bmp	492	1	blank2r.bmp	786	1	GKQX	786	1	blank2r.bmp	866	1	fair	866	0	0	0	0	0	0	0	0	0	0	0	0	0	0	0	0	0	0	0	0	0	0	0	0	0	0	0	0	0	0	0	0	0
011619	13:43:06	13:45:28	140994	5.0.10.0	4_exp_EVA_AMP_AWA_CON	74	Rpleas_acq	Same	Rpleas	Bmasked	CS_B	2pleas	distractor2	EVAbeforeCON	acq_US_unple_masked	acq1_masked	1	8	0	0	300	300	0	0	770	46	0	1	0	0	0	1	blank2r.bmp	0	1	+	0	6	C2r.bmp	492	1	blank2r.bmp	786	1	BMVZ	786	1	blank2r.bmp	866	1	faul	866	0	0	0	0	0	0	0	0	0	0	0	0	0	0	0	0	0	0	0	0	0	0	0	0	0	0	0	0	0	0	0	0	0
011619	13:43:06	13:45:30	143127	5.0.10.0	4_exp_EVA_AMP_AWA_CON	74	Rpleas_acq	Same	Rpleas	Bmasked	CS_B	2pleas	distractor2	EVAbeforeCON	acq_new_pleas_masked	acq1_masked	1	9	0	0	300	300	0	0	633	50	0	1	0	0	0	1	blank2r.bmp	0	1	+	0	8	C4r.bmp	492	1	blank2r.bmp	786	1	B1r.bmp	786	1	blank2r.bmp	866	1	schön	866	0	0	0	0	0	0	0	0	0	0	0	0	0	0	0	0	0	0	0	0	0	0	0	0	0	0	0	0	0	0	0	0	0
011619	13:43:06	13:45:32	145299	5.0.10.0	4_exp_EVA_AMP_AWA_CON	74	Rpleas_acq	Same	Rpleas	Bmasked	CS_B	2pleas	distractor2	EVAbeforeCON	acq_new_pleas_masked	acq1_masked	1	10	0	0	300	300	0	0	680	50	0	1	0	0	0	1	blank2r.bmp	0	1	+	0	7	C3r.bmp	492	1	blank2r.bmp	786	6	C2r.bmp	786	1	blank2r.bmp	866	2	schlau	866	0	0	0	0	0	0	0	0	0	0	0	0	0	0	0	0	0	0	0	0	0	0	0	0	0	0	0	0	0	0	0	0	0
011619	13:43:06	13:45:34	147339	5.0.10.0	4_exp_EVA_AMP_AWA_CON	74	Rpleas_acq	Same	Rpleas	Bmasked	CS_B	2pleas	distractor2	EVAbeforeCON	acq_US_pleas_masked	acq1_masked	1	11	0	0	300	300	0	0	571	50	0	1	0	0	0	1	blank2r.bmp	0	1	+	0	6	C2r.bmp	492	1	blank2r.bmp	786	1	GKQX	786	1	blank2r.bmp	866	3	freundlich	866	0	0	0	0	0	0	0	0	0	0	0	0	0	0	0	0	0	0	0	0	0	0	0	0	0	0	0	0	0	0	0	0	0
011619	13:43:06	13:45:36	149458	5.0.10.0	4_exp_EVA_AMP_AWA_CON	74	Rpleas_acq	Same	Rpleas	Bmasked	CS_B	2pleas	distractor2	EVAbeforeCON	acq_new_unple_masked	acq1_masked	1	12	0	0	300	300	0	0	638	46	0	1	0	0	0	1	blank2r.bmp	0	1	+	0	5	C1r.bmp	492	1	blank2r.bmp	786	2	B2r.bmp	786	1	blank2r.bmp	866	1	schlecht	866	0	0	0	0	0	0	0	0	0	0	0	0	0	0	0	0	0	0	0	0	0	0	0	0	0	0	0	0	0	0	0	0	0
011619	13:43:06	13:45:39	151483	5.0.10.0	4_exp_EVA_AMP_AWA_CON	74	Rpleas_acq	Same	Rpleas	Bmasked	CS_B	2pleas	distractor2	EVAbeforeCON	acq_US_pleas_masked	acq1_masked	1	13	0	0	300	300	0	0	542	50	0	1	0	0	0	1	blank2r.bmp	0	1	+	0	2	B2r.bmp	492	1	blank2r.bmp	786	1	GKQX	786	1	blank2r.bmp	866	2	retten	866	0	0	0	0	0	0	0	0	0	0	0	0	0	0	0	0	0	0	0	0	0	0	0	0	0	0	0	0	0	0	0	0	0
011619	13:43:06	13:45:41	153589	5.0.10.0	4_exp_EVA_AMP_AWA_CON	74	Rpleas_acq	Same	Rpleas	Bmasked	CS_B	2pleas	distractor2	EVAbeforeCON	acq_new_pleas_masked	acq1_masked	1	14	0	0	300	300	0	0	620	50	0	1	0	0	0	1	blank2r.bmp	0	1	+	0	1	B1r.bmp	492	1	blank2r.bmp	786	7	C3r.bmp	786	1	blank2r.bmp	866	5	ehrlich	866	0	0	0	0	0	0	0	0	0	0	0	0	0	0	0	0	0	0	0	0	0	0	0	0	0	0	0	0	0	0	0	0	0
011619	13:43:06	13:45:43	155788	5.0.10.0	4_exp_EVA_AMP_AWA_CON	74	Rpleas_acq	Same	Rpleas	Bmasked	CS_B	2pleas	distractor2	EVAbeforeCON	acq_new_unple_masked	acq1_masked	1	15	0	0	300	300	0	0	711	46	0	1	0	0	0	1	blank2r.bmp	0	1	+	0	3	B3r.bmp	492	1	blank2r.bmp	786	8	C4r.bmp	786	1	blank2r.bmp	866	3	tot	866	0	0	0	0	0	0	0	0	0	0	0	0	0	0	0	0	0	0	0	0	0	0	0	0	0	0	0	0	0	0	0	0	0
011619	13:43:06	13:45:45	158161	5.0.10.0	4_exp_EVA_AMP_AWA_CON	74	Rpleas_acq	Same	Rpleas	Bmasked	CS_B	2pleas	distractor2	EVAbeforeCON	acq_US_unple_masked	acq1_masked	1	16	0	0	300	300	0	0	890	46	0	1	0	0	0	1	blank2r.bmp	0	1	+	0	4	B4r.bmp	492	1	blank2r.bmp	786	1	BMVZ	786	1	blank2r.bmp	866	3	fanatisch	866	0	0	0	0	0	0	0	0	0	0	0	0	0	0	0	0	0	0	0	0	0	0	0	0	0	0	0	0	0	0	0	0	0
011619	13:43:06	13:45:48	160613	5.0.10.0	4_exp_EVA_AMP_AWA_CON	74	Rpleas_acq	Same	Rpleas	Bmasked	CS_B	2pleas	distractor2	EVAbeforeCON	acq_new_unple_masked	acq1_masked	1	17	0	0	300	300	0	0	968	46	0	1	0	0	0	1	blank2r.bmp	0	1	+	0	3	B3r.bmp	492	1	blank2r.bmp	786	6	C2r.bmp	786	1	blank2r.bmp	866	6	lasch	866	0	0	0	0	0	0	0	0	0	0	0	0	0	0	0	0	0	0	0	0	0	0	0	0	0	0	0	0	0	0	0	0	0
011619	13:43:06	13:45:50	163012	5.0.10.0	4_exp_EVA_AMP_AWA_CON	74	Rpleas_acq	Same	Rpleas	Bmasked	CS_B	2pleas	distractor2	EVAbeforeCON	acq_US_pleas_masked	acq1_masked	1	18	0	0	300	300	0	0	912	50	0	1	0	0	0	1	blank2r.bmp	0	1	+	0	6	C2r.bmp	492	1	blank2r.bmp	786	1	GKQX	786	1	blank2r.bmp	866	4	tolerant	866	0	0	0	0	0	0	0	0	0	0	0	0	0	0	0	0	0	0	0	0	0	0	0	0	0	0	0	0	0	0	0	0	0
011619	13:43:06	13:45:52	165158	5.0.10.0	4_exp_EVA_AMP_AWA_CON	74	Rpleas_acq	Same	Rpleas	Bmasked	CS_B	2pleas	distractor2	EVAbeforeCON	acq_new_pleas_masked	acq1_masked	1	19	0	0	300	300	0	0	659	50	0	1	0	0	0	1	blank2r.bmp	0	1	+	0	5	C1r.bmp	492	1	blank2r.bmp	786	4	B4r.bmp	786	1	blank2r.bmp	866	4	lachen	866	0	0	0	0	0	0	0	0	0	0	0	0	0	0	0	0	0	0	0	0	0	0	0	0	0	0	0	0	0	0	0	0	0
011619	13:43:06	13:45:55	167544	5.0.10.0	4_exp_EVA_AMP_AWA_CON	74	Rpleas_acq	Same	Rpleas	Bmasked	CS_B	2pleas	distractor2	EVAbeforeCON	acq_new_unple_masked	acq1_masked	1	20	0	0	300	300	0	0	905	46	0	1	0	0	0	1	blank2r.bmp	0	1	+	0	8	C4r.bmp	492	1	blank2r.bmp	786	5	C1r.bmp	786	1	blank2r.bmp	866	5	eitel	866	0	0	0	0	0	0	0	0	0	0	0	0	0	0	0	0	0	0	0	0	0	0	0	0	0	0	0	0	0	0	0	0	0
011619	13:43:06	13:45:57	169729	5.0.10.0	4_exp_EVA_AMP_AWA_CON	74	Rpleas_acq	Same	Rpleas	Bmasked	CS_B	2pleas	distractor2	EVAbeforeCON	acq_US_unple_masked	acq1_masked	1	21	0	0	300	300	0	0	714	46	0	1	0	0	0	1	blank2r.bmp	0	1	+	0	1	B1r.bmp	492	1	blank2r.bmp	786	1	BMVZ	786	1	blank2r.bmp	866	4	tyrannisch	866	0	0	0	0	0	0	0	0	0	0	0	0	0	0	0	0	0	0	0	0	0	0	0	0	0	0	0	0	0	0	0	0	0
011619	13:43:06	13:45:59	171875	5.0.10.0	4_exp_EVA_AMP_AWA_CON	74	Rpleas_acq	Same	Rpleas	Bmasked	CS_B	2pleas	distractor2	EVAbeforeCON	acq_new_pleas_masked	acq1_masked	1	22	0	0	300	300	0	0	674	50	0	1	0	0	0	1	blank2r.bmp	0	1	+	0	4	B4r.bmp	492	1	blank2r.bmp	786	1	B1r.bmp	786	1	blank2r.bmp	866	3	treu	866	0	0	0	0	0	0	0	0	0	0	0	0	0	0	0	0	0	0	0	0	0	0	0	0	0	0	0	0	0	0	0	0	0
011619	13:43:06	13:46:01	174021	5.0.10.0	4_exp_EVA_AMP_AWA_CON	74	Rpleas_acq	Same	Rpleas	Bmasked	CS_B	2pleas	distractor2	EVAbeforeCON	acq_US_pleas_masked	acq1_masked	1	23	0	0	300	300	0	0	654	50	0	1	0	0	0	1	blank2r.bmp	0	1	+	0	2	B2r.bmp	492	1	blank2r.bmp	786	1	GKQX	786	1	blank2r.bmp	866	6	helfen	866	0	0	0	0	0	0	0	0	0	0	0	0	0	0	0	0	0	0	0	0	0	0	0	0	0	0	0	0	0	0	0	0	0
011619	13:43:06	13:46:03	176127	5.0.10.0	4_exp_EVA_AMP_AWA_CON	74	Rpleas_acq	Same	Rpleas	Bmasked	CS_B	2pleas	distractor2	EVAbeforeCON	acq_US_unple_masked	acq1_masked	1	24	0	0	300	300	0	0	635	46	0	1	0	0	0	1	blank2r.bmp	0	1	+	0	7	C3r.bmp	492	1	blank2r.bmp	786	1	BMVZ	786	1	blank2r.bmp	866	5	strafen	866	0	0	0	0	0	0	0	0	0	0	0	0	0	0	0	0	0	0	0	0	0	0	0	0	0	0	0	0	0	0	0	0	0
011619	13:43:06	13:46:05	178192	5.0.10.0	4_exp_EVA_AMP_AWA_CON	74	Rpleas_acq	Same	Rpleas	Bmasked	CS_B	2pleas	distractor2	EVAbeforeCON	acq_US_pleas_masked	acq1_masked	1	25	0	0	300	300	0	0	576	50	0	1	0	0	0	1	blank2r.bmp	0	1	+	0	2	B2r.bmp	492	1	blank2r.bmp	786	1	GKQX	786	1	blank2r.bmp	866	3	freundlich	866	0	0	0	0	0	0	0	0	0	0	0	0	0	0	0	0	0	0	0	0	0	0	0	0	0	0	0	0	0	0	0	0	0
011619	13:43:06	13:46:07	180232	5.0.10.0	4_exp_EVA_AMP_AWA_CON	74	Rpleas_acq	Same	Rpleas	Bmasked	CS_B	2pleas	distractor2	EVAbeforeCON	acq_US_pleas_masked	acq1_masked	1	26	0	0	300	300	0	0	552	50	0	1	0	0	0	1	blank2r.bmp	0	1	+	0	6	C2r.bmp	492	1	blank2r.bmp	786	1	GKQX	786	1	blank2r.bmp	866	1	fair	866	0	0	0	0	0	0	0	0	0	0	0	0	0	0	0	0	0	0	0	0	0	0	0	0	0	0	0	0	0	0	0	0	0
011619	13:43:06	13:46:09	182337	5.0.10.0	4_exp_EVA_AMP_AWA_CON	74	Rpleas_acq	Same	Rpleas	Bmasked	CS_B	2pleas	distractor2	EVAbeforeCON	acq_new_unple_masked	acq1_masked	1	27	0	0	300	300	0	0	637	46	0	1	0	0	0	1	blank2r.bmp	0	1	+	0	5	C1r.bmp	492	1	blank2r.bmp	786	2	B2r.bmp	786	1	blank2r.bmp	866	2	schroff	866	0	0	0	0	0	0	0	0	0	0	0	0	0	0	0	0	0	0	0	0	0	0	0	0	0	0	0	0	0	0	0	0	0
011619	13:43:06	13:46:12	184550	5.0.10.0	4_exp_EVA_AMP_AWA_CON	74	Rpleas_acq	Same	Rpleas	Bmasked	CS_B	2pleas	distractor2	EVAbeforeCON	acq_new_unple_masked	acq1_masked	1	28	0	0	300	300	0	0	729	46	0	1	0	0	0	1	blank2r.bmp	0	1	+	0	1	B1r.bmp	492	1	blank2r.bmp	786	8	C4r.bmp	786	1	blank2r.bmp	866	6	lasch	866	0	0	0	0	0	0	0	0	0	0	0	0	0	0	0	0	0	0	0	0	0	0	0	0	0	0	0	0	0	0	0	0	0
011619	13:43:06	13:46:14	186656	5.0.10.0	4_exp_EVA_AMP_AWA_CON	74	Rpleas_acq	Same	Rpleas	Bmasked	CS_B	2pleas	distractor2	EVAbeforeCON	acq_US_unple_masked	acq1_masked	1	29	0	0	300	300	0	0	636	46	0	1	0	0	0	1	blank2r.bmp	0	1	+	0	7	C3r.bmp	492	1	blank2r.bmp	786	1	BMVZ	786	1	blank2r.bmp	866	1	faul	866	0	0	0	0	0	0	0	0	0	0	0	0	0	0	0	0	0	0	0	0	0	0	0	0	0	0	0	0	0	0	0	0	0
011619	13:43:06	13:46:16	188721	5.0.10.0	4_exp_EVA_AMP_AWA_CON	74	Rpleas_acq	Same	Rpleas	Bmasked	CS_B	2pleas	distractor2	EVAbeforeCON	acq_new_pleas_masked	acq1_masked	1	30	0	0	300	300	0	0	584	50	0	1	0	0	0	1	blank2r.bmp	0	1	+	0	3	B3r.bmp	492	1	blank2r.bmp	786	7	C3r.bmp	786	1	blank2r.bmp	866	3	treu	866	0	0	0	0	0	0	0	0	0	0	0	0	0	0	0	0	0	0	0	0	0	0	0	0	0	0	0	0	0	0	0	0	0
011619	13:43:06	13:46:18	190787	5.0.10.0	4_exp_EVA_AMP_AWA_CON	74	Rpleas_acq	Same	Rpleas	Bmasked	CS_B	2pleas	distractor2	EVAbeforeCON	acq_new_pleas_masked	acq1_masked	1	31	0	0	300	300	0	0	582	50	0	1	0	0	0	1	blank2r.bmp	0	1	+	0	8	C4r.bmp	492	1	blank2r.bmp	786	3	B3r.bmp	786	1	blank2r.bmp	866	2	schlau	866	0	0	0	0	0	0	0	0	0	0	0	0	0	0	0	0	0	0	0	0	0	0	0	0	0	0	0	0	0	0	0	0	0
011619	13:43:06	13:46:20	192853	5.0.10.0	4_exp_EVA_AMP_AWA_CON	74	Rpleas_acq	Same	Rpleas	Bmasked	CS_B	2pleas	distractor2	EVAbeforeCON	acq_US_pleas_masked	acq1_masked	1	32	0	0	300	300	0	0	588	50	0	1	0	0	0	1	blank2r.bmp	0	1	+	0	4	B4r.bmp	492	1	blank2r.bmp	786	1	GKQX	786	1	blank2r.bmp	866	4	tolerant	866	0	0	0	0	0	0	0	0	0	0	0	0	0	0	0	0	0	0	0	0	0	0	0	0	0	0	0	0	0	0	0	0	0
011619	13:43:06	13:46:22	195052	5.0.10.0	4_exp_EVA_AMP_AWA_CON	74	Rpleas_acq	Same	Rpleas	Bmasked	CS_B	2pleas	distractor2	EVAbeforeCON	acq_new_unple_masked	acq1_masked	1	33	0	0	300	300	0	0	718	46	0	1	0	0	0	1	blank2r.bmp	0	1	+	0	5	C1r.bmp	492	1	blank2r.bmp	786	2	B2r.bmp	786	1	blank2r.bmp	866	5	eitel	866	0	0	0	0	0	0	0	0	0	0	0	0	0	0	0	0	0	0	0	0	0	0	0	0	0	0	0	0	0	0	0	0	0
011619	13:43:06	13:46:25	197571	5.0.10.0	4_exp_EVA_AMP_AWA_CON	74	Rpleas_acq	Same	Rpleas	Bmasked	CS_B	2pleas	distractor2	EVAbeforeCON	acq_US_unple_masked	acq1_masked	1	34	0	0	300	300	0	0	1043	46	0	1	0	0	0	1	blank2r.bmp	0	1	+	0	3	B3r.bmp	492	1	blank2r.bmp	786	1	BMVZ	786	1	blank2r.bmp	866	5	strafen	866	0	0	0	0	0	0	0	0	0	0	0	0	0	0	0	0	0	0	0	0	0	0	0	0	0	0	0	0	0	0	0	0	0
011619	13:43:06	13:46:27	199624	5.0.10.0	4_exp_EVA_AMP_AWA_CON	74	Rpleas_acq	Same	Rpleas	Bmasked	CS_B	2pleas	distractor2	EVAbeforeCON	acq_new_pleas_masked	acq1_masked	1	35	0	0	300	300	0	0	571	50	0	1	0	0	0	1	blank2r.bmp	0	1	+	0	2	B2r.bmp	492	1	blank2r.bmp	786	8	C4r.bmp	786	1	blank2r.bmp	866	6	loyal	866	0	0	0	0	0	0	0	0	0	0	0	0	0	0	0	0	0	0	0	0	0	0	0	0	0	0	0	0	0	0	0	0	0
011619	13:43:06	13:46:29	201623	5.0.10.0	4_exp_EVA_AMP_AWA_CON	74	Rpleas_acq	Same	Rpleas	Bmasked	CS_B	2pleas	distractor2	EVAbeforeCON	acq_US_unple_masked	acq1_masked	1	36	0	0	300	300	0	0	505	46	0	1	0	0	0	1	blank2r.bmp	0	1	+	0	1	B1r.bmp	492	1	blank2r.bmp	786	1	BMVZ	786	1	blank2r.bmp	866	2	rächen	866	0	0	0	0	0	0	0	0	0	0	0	0	0	0	0	0	0	0	0	0	0	0	0	0	0	0	0	0	0	0	0	0	0
011619	13:43:06	13:47:20	252948	5.0.10.0	4_exp_EVA_AMP_AWA_CON	74	Rpleas_acq	Same	Rpleas	Bmasked	CS_B	2pleas	distractor2	EVAbeforeCON	acq_new_unple_masked	acq2_masked	2	1	480	0	300	300	0	0	846	46	0	1	0	0	0	1	blank2r.bmp	0	1	+	0	7	C3r.bmp	492	1	blank2r.bmp	786	6	C2r.bmp	786	1	blank2r.bmp	866	4	leiden	866	1	!	1319	1	!	-1	0	0	0	0	0	0	0	0	0	0	0	0	0	0	0	0	0	0	0	0	0	0	0	0	0	0	0
011619	13:43:06	13:47:22	255187	5.0.10.0	4_exp_EVA_AMP_AWA_CON	74	Rpleas_acq	Same	Rpleas	Bmasked	CS_B	2pleas	distractor2	EVAbeforeCON	acq_US_pleas_masked	acq2_masked	2	2	480	1	300	300	0	0	438	50	0	1	0	0	0	1	blank2r.bmp	0	1	+	0	4	B4r.bmp	492	1	blank2r.bmp	786	1	GKQX	786	1	blank2r.bmp	866	6	helfen	866	1	!	1319	1	!	1332	0	0	0	0	0	0	0	0	0	0	0	0	0	0	0	0	0	0	0	0	0	0	0	0	0	0	0
011619	13:43:06	13:47:25	257533	5.0.10.0	4_exp_EVA_AMP_AWA_CON	74	Rpleas_acq	Same	Rpleas	Bmasked	CS_B	2pleas	distractor2	EVAbeforeCON	acq_new_unple_masked	acq2_masked	2	3	480	1	300	300	0	0	546	46	0	1	0	0	0	1	blank2r.bmp	0	1	+	0	8	C4r.bmp	492	1	blank2r.bmp	786	1	B1r.bmp	786	1	blank2r.bmp	866	1	schlecht	866	1	!	1319	1	!	1452	0	0	0	0	0	0	0	0	0	0	0	0	0	0	0	0	0	0	0	0	0	0	0	0	0	0	0
011619	13:43:06	13:47:27	259905	5.0.10.0	4_exp_EVA_AMP_AWA_CON	74	Rpleas_acq	Same	Rpleas	Bmasked	CS_B	2pleas	distractor2	EVAbeforeCON	acq_new_unple_masked	acq2_masked	2	4	480	0	300	300	0	0	605	46	0	1	0	0	0	1	blank2r.bmp	0	1	+	0	6	C2r.bmp	492	1	blank2r.bmp	786	7	C3r.bmp	786	1	blank2r.bmp	866	3	tot	866	1	!	1319	1	!	-1	0	0	0	0	0	0	0	0	0	0	0	0	0	0	0	0	0	0	0	0	0	0	0	0	0	0	0
011619	13:43:06	13:47:29	262384	5.0.10.0	4_exp_EVA_AMP_AWA_CON	74	Rpleas_acq	Same	Rpleas	Bmasked	CS_B	2pleas	distractor2	EVAbeforeCON	acq_US_unple_masked	acq2_masked	2	5	480	1	300	300	0	0	478	50	0	0	0	0	0	1	blank2r.bmp	0	1	+	0	6	C2r.bmp	492	1	blank2r.bmp	786	1	BMVZ	786	1	blank2r.bmp	866	6	hindern	866	1	FEHLER	1692	1	!	1319	1	!	1372	0	0	0	0	0	0	0	0	0	0	0	0	0	0	0	0	0	0	0	0	0	0	0	0
011619	13:43:06	13:47:32	264544	5.0.10.0	4_exp_EVA_AMP_AWA_CON	74	Rpleas_acq	Same	Rpleas	Bmasked	CS_B	2pleas	distractor2	EVAbeforeCON	acq_new_pleas_masked	acq2_masked	2	6	480	0	300	300	0	0	369	46	0	0	0	0	0	1	blank2r.bmp	0	1	+	0	4	B4r.bmp	492	1	blank2r.bmp	786	3	B3r.bmp	786	1	blank2r.bmp	866	5	ehrlich	866	1	FEHLER	1572	1	!	-1	1	!	-1	0	0	0	0	0	0	0	0	0	0	0	0	0	0	0	0	0	0	0	0	0	0	0	0
011619	13:43:06	13:47:34	266476	5.0.10.0	4_exp_EVA_AMP_AWA_CON	74	Rpleas_acq	Same	Rpleas	Bmasked	CS_B	2pleas	distractor2	EVAbeforeCON	acq_new_pleas_masked	acq2_masked	2	7	480	0	300	300	0	0	384	50	0	1	0	0	0	1	blank2r.bmp	0	1	+	0	3	B3r.bmp	492	1	blank2r.bmp	786	5	C1r.bmp	786	1	blank2r.bmp	866	1	schön	866	1	!	-1	1	!	-1	0	0	0	0	0	0	0	0	0	0	0	0	0	0	0	0	0	0	0	0	0	0	0	0	0	0	0
011619	13:43:06	13:47:36	268795	5.0.10.0	4_exp_EVA_AMP_AWA_CON	74	Rpleas_acq	Same	Rpleas	Bmasked	CS_B	2pleas	distractor2	EVAbeforeCON	acq_new_pleas_masked	acq2_masked	2	8	480	1	300	300	0	0	514	50	0	1	0	0	0	1	blank2r.bmp	0	1	+	0	1	B1r.bmp	492	1	blank2r.bmp	786	4	B4r.bmp	786	1	blank2r.bmp	866	4	lachen	866	1	!	1319	1	!	1412	0	0	0	0	0	0	0	0	0	0	0	0	0	0	0	0	0	0	0	0	0	0	0	0	0	0	0
011619	13:43:06	13:47:38	271141	5.0.10.0	4_exp_EVA_AMP_AWA_CON	74	Rpleas_acq	Same	Rpleas	Bmasked	CS_B	2pleas	distractor2	EVAbeforeCON	acq_US_pleas_masked	acq2_masked	2	9	480	0	300	300	0	0	575	50	0	1	0	0	0	1	blank2r.bmp	0	1	+	0	2	B2r.bmp	492	1	blank2r.bmp	786	1	GKQX	786	1	blank2r.bmp	866	5	spielen	866	1	!	1319	1	!	-1	0	0	0	0	0	0	0	0	0	0	0	0	0	0	0	0	0	0	0	0	0	0	0	0	0	0	0
011619	13:43:06	13:47:40	273460	5.0.10.0	4_exp_EVA_AMP_AWA_CON	74	Rpleas_acq	Same	Rpleas	Bmasked	CS_B	2pleas	distractor2	EVAbeforeCON	acq_US_pleas_masked	acq2_masked	2	10	480	1	300	300	0	0	508	50	0	1	0	0	0	1	blank2r.bmp	0	1	+	0	8	C4r.bmp	492	1	blank2r.bmp	786	1	GKQX	786	1	blank2r.bmp	866	2	retten	866	1	!	1319	1	!	1412	0	0	0	0	0	0	0	0	0	0	0	0	0	0	0	0	0	0	0	0	0	0	0	0	0	0	0
011619	13:43:06	13:47:43	275819	5.0.10.0	4_exp_EVA_AMP_AWA_CON	74	Rpleas_acq	Same	Rpleas	Bmasked	CS_B	2pleas	distractor2	EVAbeforeCON	acq_US_unple_masked	acq2_masked	2	11	480	0	300	300	0	0	585	46	0	1	0	0	0	1	blank2r.bmp	0	1	+	0	5	C1r.bmp	492	1	blank2r.bmp	786	1	BMVZ	786	1	blank2r.bmp	866	3	fanatisch	866	1	!	1319	1	!	-1	0	0	0	0	0	0	0	0	0	0	0	0	0	0	0	0	0	0	0	0	0	0	0	0	0	0	0
011619	13:43:06	13:47:45	278165	5.0.10.0	4_exp_EVA_AMP_AWA_CON	74	Rpleas_acq	Same	Rpleas	Bmasked	CS_B	2pleas	distractor2	EVAbeforeCON	acq_US_unple_masked	acq2_masked	2	12	480	1	300	300	0	0	545	46	0	1	0	0	0	1	blank2r.bmp	0	1	+	0	7	C3r.bmp	492	1	blank2r.bmp	786	1	BMVZ	786	1	blank2r.bmp	866	4	tyrannisch	866	1	!	1319	1	!	1439	0	0	0	0	0	0	0	0	0	0	0	0	0	0	0	0	0	0	0	0	0	0	0	0	0	0	0
011619	13:43:06	13:47:48	280457	5.0.10.0	4_exp_EVA_AMP_AWA_CON	74	Rpleas_acq	Same	Rpleas	Bmasked	CS_B	2pleas	distractor2	EVAbeforeCON	acq_US_unple_masked	acq2_masked	2	13	480	1	300	300	0	0	501	46	0	1	0	0	0	1	blank2r.bmp	0	1	+	0	2	B2r.bmp	492	1	blank2r.bmp	786	1	BMVZ	786	1	blank2r.bmp	866	2	rächen	866	1	!	1319	1	!	1399	0	0	0	0	0	0	0	0	0	0	0	0	0	0	0	0	0	0	0	0	0	0	0	0	0	0	0
011619	13:43:06	13:47:50	282709	5.0.10.0	4_exp_EVA_AMP_AWA_CON	74	Rpleas_acq	Same	Rpleas	Bmasked	CS_B	2pleas	distractor2	EVAbeforeCON	acq_new_unple_masked	acq2_masked	2	14	480	1	300	300	0	0	453	46	0	1	0	0	0	1	blank2r.bmp	0	1	+	0	5	C1r.bmp	492	1	blank2r.bmp	786	3	B3r.bmp	786	1	blank2r.bmp	866	3	tot	866	1	!	1319	1	!	1359	0	0	0	0	0	0	0	0	0	0	0	0	0	0	0	0	0	0	0	0	0	0	0	0	0	0	0
011619	13:43:06	13:47:52	284948	5.0.10.0	4_exp_EVA_AMP_AWA_CON	74	Rpleas_acq	Same	Rpleas	Bmasked	CS_B	2pleas	distractor2	EVAbeforeCON	acq_US_pleas_masked	acq2_masked	2	15	480	1	300	300	0	0	441	50	0	1	0	0	0	1	blank2r.bmp	0	1	+	0	3	B3r.bmp	492	1	blank2r.bmp	786	1	GKQX	786	1	blank2r.bmp	866	3	freundlich	866	1	!	1319	1	!	1346	0	0	0	0	0	0	0	0	0	0	0	0	0	0	0	0	0	0	0	0	0	0	0	0	0	0	0
011619	13:43:06	13:47:54	287174	5.0.10.0	4_exp_EVA_AMP_AWA_CON	74	Rpleas_acq	Same	Rpleas	Bmasked	CS_B	2pleas	distractor2	EVAbeforeCON	acq_US_pleas_masked	acq2_masked	2	16	480	1	300	300	0	0	426	50	0	1	0	0	0	1	blank2r.bmp	0	1	+	0	8	C4r.bmp	492	1	blank2r.bmp	786	1	GKQX	786	1	blank2r.bmp	866	2	retten	866	1	!	1319	1	!	1332	0	0	0	0	0	0	0	0	0	0	0	0	0	0	0	0	0	0	0	0	0	0	0	0	0	0	0
011619	13:43:06	13:47:56	289427	5.0.10.0	4_exp_EVA_AMP_AWA_CON	74	Rpleas_acq	Same	Rpleas	Bmasked	CS_B	2pleas	distractor2	EVAbeforeCON	acq_new_unple_masked	acq2_masked	2	17	480	1	300	300	0	0	460	46	0	1	0	0	0	1	blank2r.bmp	0	1	+	0	7	C3r.bmp	492	1	blank2r.bmp	786	6	C2r.bmp	786	1	blank2r.bmp	866	1	schlecht	866	1	!	1319	1	!	1359	0	0	0	0	0	0	0	0	0	0	0	0	0	0	0	0	0	0	0	0	0	0	0	0	0	0	0
011619	13:43:06	13:47:59	291652	5.0.10.0	4_exp_EVA_AMP_AWA_CON	74	Rpleas_acq	Same	Rpleas	Bmasked	CS_B	2pleas	distractor2	EVAbeforeCON	acq_new_pleas_masked	acq2_masked	2	18	480	1	300	300	0	0	429	50	0	1	0	0	0	1	blank2r.bmp	0	1	+	0	6	C2r.bmp	492	1	blank2r.bmp	786	7	C3r.bmp	786	1	blank2r.bmp	866	3	treu	866	1	!	1319	1	!	1332	0	0	0	0	0	0	0	0	0	0	0	0	0	0	0	0	0	0	0	0	0	0	0	0	0	0	0
011619	13:43:06	13:48:01	293891	5.0.10.0	4_exp_EVA_AMP_AWA_CON	74	Rpleas_acq	Same	Rpleas	Bmasked	CS_B	2pleas	distractor2	EVAbeforeCON	acq_US_pleas_masked	acq2_masked	2	19	480	1	300	300	0	0	441	50	0	1	0	0	0	1	blank2r.bmp	0	1	+	0	1	B1r.bmp	492	1	blank2r.bmp	786	1	GKQX	786	1	blank2r.bmp	866	6	helfen	866	1	!	1319	1	!	1346	0	0	0	0	0	0	0	0	0	0	0	0	0	0	0	0	0	0	0	0	0	0	0	0	0	0	0
011619	13:43:06	13:48:03	296157	5.0.10.0	4_exp_EVA_AMP_AWA_CON	74	Rpleas_acq	Same	Rpleas	Bmasked	CS_B	2pleas	distractor2	EVAbeforeCON	acq_US_unple_masked	acq2_masked	2	20	480	1	300	300	0	0	477	46	0	1	0	0	0	1	blank2r.bmp	0	1	+	0	4	B4r.bmp	492	1	blank2r.bmp	786	1	BMVZ	786	1	blank2r.bmp	866	5	strafen	866	1	!	1319	1	!	1372	0	0	0	0	0	0	0	0	0	0	0	0	0	0	0	0	0	0	0	0	0	0	0	0	0	0	0
011619	13:43:06	13:48:06	298490	5.0.10.0	4_exp_EVA_AMP_AWA_CON	74	Rpleas_acq	Same	Rpleas	Bmasked	CS_B	2pleas	distractor2	EVAbeforeCON	acq_new_unple_masked	acq2_masked	2	21	480	0	300	300	0	0	559	46	0	1	0	0	0	1	blank2r.bmp	0	1	+	0	1	B1r.bmp	492	1	blank2r.bmp	786	5	C1r.bmp	786	1	blank2r.bmp	866	5	eitel	866	1	!	1319	1	!	-1	0	0	0	0	0	0	0	0	0	0	0	0	0	0	0	0	0	0	0	0	0	0	0	0	0	0	0
011619	13:43:06	13:48:08	300702	5.0.10.0	4_exp_EVA_AMP_AWA_CON	74	Rpleas_acq	Same	Rpleas	Bmasked	CS_B	2pleas	distractor2	EVAbeforeCON	acq_new_pleas_masked	acq2_masked	2	22	480	0	300	300	0	0	413	50	0	1	0	0	0	1	blank2r.bmp	0	1	+	0	4	B4r.bmp	492	1	blank2r.bmp	786	1	B1r.bmp	786	1	blank2r.bmp	866	4	lachen	866	1	!	-1	1	!	-1	0	0	0	0	0	0	0	0	0	0	0	0	0	0	0	0	0	0	0	0	0	0	0	0	0	0	0
011619	13:43:06	13:48:10	302954	5.0.10.0	4_exp_EVA_AMP_AWA_CON	74	Rpleas_acq	Same	Rpleas	Bmasked	CS_B	2pleas	distractor2	EVAbeforeCON	acq_US_unple_masked	acq2_masked	2	23	480	1	300	300	0	0	443	46	0	1	0	0	0	1	blank2r.bmp	0	1	+	0	6	C2r.bmp	492	1	blank2r.bmp	786	1	BMVZ	786	1	blank2r.bmp	866	6	hindern	866	1	!	1319	1	!	1346	0	0	0	0	0	0	0	0	0	0	0	0	0	0	0	0	0	0	0	0	0	0	0	0	0	0	0
011619	13:43:06	13:48:12	305113	5.0.10.0	4_exp_EVA_AMP_AWA_CON	74	Rpleas_acq	Same	Rpleas	Bmasked	CS_B	2pleas	distractor2	EVAbeforeCON	acq_new_pleas_masked	acq2_masked	2	24	480	0	300	300	0	0	397	50	0	1	0	0	0	1	blank2r.bmp	0	1	+	0	2	B2r.bmp	492	1	blank2r.bmp	786	8	C4r.bmp	786	1	blank2r.bmp	866	5	ehrlich	866	1	!	-1	1	!	-1	0	0	0	0	0	0	0	0	0	0	0	0	0	0	0	0	0	0	0	0	0	0	0	0	0	0	0
011619	13:43:06	13:48:15	307499	5.0.10.0	4_exp_EVA_AMP_AWA_CON	74	Rpleas_acq	Same	Rpleas	Bmasked	CS_B	2pleas	distractor2	EVAbeforeCON	acq_new_pleas_masked	acq2_masked	2	25	480	0	300	300	0	0	377	46	0	0	0	0	0	1	blank2r.bmp	0	1	+	0	8	C4r.bmp	492	1	blank2r.bmp	786	4	B4r.bmp	786	1	blank2r.bmp	866	2	schlau	866	1	FEHLER	1586	1	!	-1	1	!	-1	0	0	0	0	0	0	0	0	0	0	0	0	0	0	0	0	0	0	0	0	0	0	0	0
011619	13:43:06	13:48:17	309672	5.0.10.0	4_exp_EVA_AMP_AWA_CON	74	Rpleas_acq	Same	Rpleas	Bmasked	CS_B	2pleas	distractor2	EVAbeforeCON	acq_US_unple_masked	acq2_masked	2	26	480	0	300	300	0	0	611	46	0	1	0	0	0	1	blank2r.bmp	0	1	+	0	7	C3r.bmp	492	1	blank2r.bmp	786	1	BMVZ	786	1	blank2r.bmp	866	3	fanatisch	866	1	!	1319	1	!	-1	0	0	0	0	0	0	0	0	0	0	0	0	0	0	0	0	0	0	0	0	0	0	0	0	0	0	0
011619	13:43:06	13:48:19	311964	5.0.10.0	4_exp_EVA_AMP_AWA_CON	74	Rpleas_acq	Same	Rpleas	Bmasked	CS_B	2pleas	distractor2	EVAbeforeCON	acq_US_unple_masked	acq2_masked	2	27	480	1	300	300	0	0	480	46	0	1	0	0	0	1	blank2r.bmp	0	1	+	0	3	B3r.bmp	492	1	blank2r.bmp	786	1	BMVZ	786	1	blank2r.bmp	866	1	faul	866	1	!	1319	1	!	1386	0	0	0	0	0	0	0	0	0	0	0	0	0	0	0	0	0	0	0	0	0	0	0	0	0	0	0
011619	13:43:06	13:48:21	314123	5.0.10.0	4_exp_EVA_AMP_AWA_CON	74	Rpleas_acq	Same	Rpleas	Bmasked	CS_B	2pleas	distractor2	EVAbeforeCON	acq_new_pleas_masked	acq2_masked	2	28	480	0	300	300	0	0	375	50	0	1	0	0	0	1	blank2r.bmp	0	1	+	0	5	C1r.bmp	492	1	blank2r.bmp	786	2	B2r.bmp	786	1	blank2r.bmp	866	1	schön	866	1	!	-1	1	!	-1	0	0	0	0	0	0	0	0	0	0	0	0	0	0	0	0	0	0	0	0	0	0	0	0	0	0	0
011619	13:43:06	13:48:23	316429	5.0.10.0	4_exp_EVA_AMP_AWA_CON	74	Rpleas_acq	Same	Rpleas	Bmasked	CS_B	2pleas	distractor2	EVAbeforeCON	acq_new_pleas_masked	acq2_masked	2	29	480	1	300	300	0	0	503	50	0	1	0	0	0	1	blank2r.bmp	0	1	+	0	7	C3r.bmp	492	1	blank2r.bmp	786	2	B2r.bmp	786	1	blank2r.bmp	866	6	loyal	866	1	!	1319	1	!	1399	0	0	0	0	0	0	0	0	0	0	0	0	0	0	0	0	0	0	0	0	0	0	0	0	0	0	0
011619	13:43:06	13:48:26	318681	5.0.10.0	4_exp_EVA_AMP_AWA_CON	74	Rpleas_acq	Same	Rpleas	Bmasked	CS_B	2pleas	distractor2	EVAbeforeCON	acq_new_unple_masked	acq2_masked	2	30	480	1	300	300	0	0	462	46	0	1	0	0	0	1	blank2r.bmp	0	1	+	0	5	C1r.bmp	492	1	blank2r.bmp	786	1	B1r.bmp	786	1	blank2r.bmp	866	6	lasch	866	1	!	1319	1	!	1359	0	0	0	0	0	0	0	0	0	0	0	0	0	0	0	0	0	0	0	0	0	0	0	0	0	0	0
011619	13:43:06	13:48:28	320960	5.0.10.0	4_exp_EVA_AMP_AWA_CON	74	Rpleas_acq	Same	Rpleas	Bmasked	CS_B	2pleas	distractor2	EVAbeforeCON	acq_new_unple_masked	acq2_masked	2	31	480	1	300	300	0	0	486	46	0	1	0	0	0	1	blank2r.bmp	0	1	+	0	3	B3r.bmp	492	1	blank2r.bmp	786	7	C3r.bmp	786	1	blank2r.bmp	866	2	schroff	866	1	!	1319	1	!	1386	0	0	0	0	0	0	0	0	0	0	0	0	0	0	0	0	0	0	0	0	0	0	0	0	0	0	0
011619	13:43:06	13:48:30	323226	5.0.10.0	4_exp_EVA_AMP_AWA_CON	74	Rpleas_acq	Same	Rpleas	Bmasked	CS_B	2pleas	distractor2	EVAbeforeCON	acq_US_pleas_masked	acq2_masked	2	32	480	1	300	300	0	0	474	50	0	1	0	0	0	1	blank2r.bmp	0	1	+	0	1	B1r.bmp	492	1	blank2r.bmp	786	1	GKQX	786	1	blank2r.bmp	866	5	spielen	866	1	!	1319	1	!	1372	0	0	0	0	0	0	0	0	0	0	0	0	0	0	0	0	0	0	0	0	0	0	0	0	0	0	0
011619	13:43:06	13:48:33	325612	5.0.10.0	4_exp_EVA_AMP_AWA_CON	74	Rpleas_acq	Same	Rpleas	Bmasked	CS_B	2pleas	distractor2	EVAbeforeCON	acq_US_pleas_masked	acq2_masked	2	33	480	0	300	300	0	0	617	50	0	1	0	0	0	1	blank2r.bmp	0	1	+	0	6	C2r.bmp	492	1	blank2r.bmp	786	1	GKQX	786	1	blank2r.bmp	866	1	fair	866	1	!	1319	1	!	-1	0	0	0	0	0	0	0	0	0	0	0	0	0	0	0	0	0	0	0	0	0	0	0	0	0	0	0
011619	13:43:06	13:48:35	328171	5.0.10.0	4_exp_EVA_AMP_AWA_CON	74	Rpleas_acq	Same	Rpleas	Bmasked	CS_B	2pleas	distractor2	EVAbeforeCON	acq_US_pleas_masked	acq2_masked	2	34	480	1	300	300	0	0	543	46	0	0	0	0	0	1	blank2r.bmp	0	1	+	0	2	B2r.bmp	492	1	blank2r.bmp	786	1	GKQX	786	1	blank2r.bmp	866	4	tolerant	866	1	FEHLER	1759	1	!	1319	1	!	1439	0	0	0	0	0	0	0	0	0	0	0	0	0	0	0	0	0	0	0	0	0	0	0	0
011619	13:43:06	13:48:37	330117	5.0.10.0	4_exp_EVA_AMP_AWA_CON	74	Rpleas_acq	Same	Rpleas	Bmasked	CS_B	2pleas	distractor2	EVAbeforeCON	acq_new_unple_masked	acq2_masked	2	35	480	0	300	300	0	0	397	46	0	1	0	0	0	1	blank2r.bmp	0	1	+	0	8	C4r.bmp	492	1	blank2r.bmp	786	5	C1r.bmp	786	1	blank2r.bmp	866	4	leiden	866	1	!	-1	1	!	-1	0	0	0	0	0	0	0	0	0	0	0	0	0	0	0	0	0	0	0	0	0	0	0	0	0	0	0
011619	13:43:06	13:48:40	332635	5.0.10.0	4_exp_EVA_AMP_AWA_CON	74	Rpleas_acq	Same	Rpleas	Bmasked	CS_B	2pleas	distractor2	EVAbeforeCON	acq_US_unple_masked	acq2_masked	2	36	480	1	300	300	0	0	493	50	0	0	0	0	0	1	blank2r.bmp	0	1	+	0	4	B4r.bmp	492	1	blank2r.bmp	786	1	BMVZ	786	1	blank2r.bmp	866	4	tyrannisch	866	1	FEHLER	1719	1	!	1319	1	!	1399	0	0	0	0	0	0	0	0	0	0	0	0	0	0	0	0	0	0	0	0	0	0	0	0
011619	13:43:06	13:49:00	352587	5.0.10.0	4_exp_EVA_AMP_AWA_CON	74	Rpleas_acq	Same	Rpleas	Bmasked	CS_B	2pleas	distractor2	EVAbeforeCON	acq_US_unple_masked	acq3_masked	3	1	453	1	300	300	0	0	478	46	0	1	0	0	0	1	blank2r.bmp	0	1	+	0	4	B4r.bmp	492	1	blank2r.bmp	786	1	BMVZ	786	1	blank2r.bmp	866	5	strafen	866	1	!	1292	1	!	1372	0	0	0	0	0	0	0	0	0	0	0	0	0	0	0	0	0	0	0	0	0	0	0	0	0	0	0
011619	13:43:06	13:49:02	354853	5.0.10.0	4_exp_EVA_AMP_AWA_CON	74	Rpleas_acq	Same	Rpleas	Bmasked	CS_B	2pleas	distractor2	EVAbeforeCON	acq_US_unple_masked	acq3_masked	3	2	453	1	300	300	0	0	455	46	0	1	0	0	0	1	blank2r.bmp	0	1	+	0	7	C3r.bmp	492	1	blank2r.bmp	786	1	BMVZ	786	1	blank2r.bmp	866	1	faul	866	1	!	1292	1	!	1359	0	0	0	0	0	0	0	0	0	0	0	0	0	0	0	0	0	0	0	0	0	0	0	0	0	0	0
011619	13:43:06	13:49:04	357185	5.0.10.0	4_exp_EVA_AMP_AWA_CON	74	Rpleas_acq	Same	Rpleas	Bmasked	CS_B	2pleas	distractor2	EVAbeforeCON	acq_US_pleas_masked	acq3_masked	3	3	453	0	300	300	0	0	566	50	0	1	0	0	0	1	blank2r.bmp	0	1	+	0	6	C2r.bmp	492	1	blank2r.bmp	786	1	GKQX	786	1	blank2r.bmp	866	4	tolerant	866	1	!	1292	1	!	-1	0	0	0	0	0	0	0	0	0	0	0	0	0	0	0	0	0	0	0	0	0	0	0	0	0	0	0
011619	13:43:06	13:49:07	359531	5.0.10.0	4_exp_EVA_AMP_AWA_CON	74	Rpleas_acq	Same	Rpleas	Bmasked	CS_B	2pleas	distractor2	EVAbeforeCON	acq_US_unple_masked	acq3_masked	3	4	453	0	300	300	0	0	560	46	0	1	0	0	0	1	blank2r.bmp	0	1	+	0	5	C1r.bmp	492	1	blank2r.bmp	786	1	BMVZ	786	1	blank2r.bmp	866	3	fanatisch	866	1	!	1292	1	!	-1	0	0	0	0	0	0	0	0	0	0	0	0	0	0	0	0	0	0	0	0	0	0	0	0	0	0	0
011619	13:43:06	13:49:09	361823	5.0.10.0	4_exp_EVA_AMP_AWA_CON	74	Rpleas_acq	Same	Rpleas	Bmasked	CS_B	2pleas	distractor2	EVAbeforeCON	acq_US_pleas_masked	acq3_masked	3	5	453	1	300	300	0	0	465	50	0	1	0	0	0	1	blank2r.bmp	0	1	+	0	2	B2r.bmp	492	1	blank2r.bmp	786	1	GKQX	786	1	blank2r.bmp	866	6	helfen	866	1	!	1292	1	!	1372	0	0	0	0	0	0	0	0	0	0	0	0	0	0	0	0	0	0	0	0	0	0	0	0	0	0	0
011619	13:43:06	13:49:11	364089	5.0.10.0	4_exp_EVA_AMP_AWA_CON	74	Rpleas_acq	Same	Rpleas	Bmasked	CS_B	2pleas	distractor2	EVAbeforeCON	acq_US_unple_masked	acq3_masked	3	6	453	1	300	300	0	0	462	46	0	1	0	0	0	1	blank2r.bmp	0	1	+	0	1	B1r.bmp	492	1	blank2r.bmp	786	1	BMVZ	786	1	blank2r.bmp	866	4	tyrannisch	866	1	!	1292	1	!	1359	0	0	0	0	0	0	0	0	0	0	0	0	0	0	0	0	0	0	0	0	0	0	0	0	0	0	0
011619	13:43:06	13:49:13	366222	5.0.10.0	4_exp_EVA_AMP_AWA_CON	74	Rpleas_acq	Same	Rpleas	Bmasked	CS_B	2pleas	distractor2	EVAbeforeCON	acq_US_pleas_masked	acq3_masked	3	7	453	0	300	300	0	0	360	50	0	1	0	0	0	1	blank2r.bmp	0	1	+	0	3	B3r.bmp	492	1	blank2r.bmp	786	1	GKQX	786	1	blank2r.bmp	866	2	retten	866	1	!	-1	1	!	-1	0	0	0	0	0	0	0	0	0	0	0	0	0	0	0	0	0	0	0	0	0	0	0	0	0	0	0
011619	13:43:06	13:49:16	368487	5.0.10.0	4_exp_EVA_AMP_AWA_CON	74	Rpleas_acq	Same	Rpleas	Bmasked	CS_B	2pleas	distractor2	EVAbeforeCON	acq_US_unple_masked	acq3_masked	3	8	453	1	300	300	0	0	464	46	0	1	0	0	0	1	blank2r.bmp	0	1	+	0	8	C4r.bmp	492	1	blank2r.bmp	786	1	BMVZ	786	1	blank2r.bmp	866	2	rächen	866	1	!	1292	1	!	1359	0	0	0	0	0	0	0	0	0	0	0	0	0	0	0	0	0	0	0	0	0	0	0	0	0	0	0
011619	13:43:06	13:49:18	370713	5.0.10.0	4_exp_EVA_AMP_AWA_CON	74	Rpleas_acq	Same	Rpleas	Bmasked	CS_B	2pleas	distractor2	EVAbeforeCON	acq_US_pleas_masked	acq3_masked	3	9	453	1	300	300	0	0	435	50	0	1	0	0	0	1	blank2r.bmp	0	1	+	0	8	C4r.bmp	492	1	blank2r.bmp	786	1	GKQX	786	1	blank2r.bmp	866	1	fair	866	1	!	1292	1	!	1332	0	0	0	0	0	0	0	0	0	0	0	0	0	0	0	0	0	0	0	0	0	0	0	0	0	0	0
011619	13:43:06	13:49:20	372966	5.0.10.0	4_exp_EVA_AMP_AWA_CON	74	Rpleas_acq	Same	Rpleas	Bmasked	CS_B	2pleas	distractor2	EVAbeforeCON	acq_US_pleas_masked	acq3_masked	3	10	453	1	300	300	0	0	442	50	0	1	0	0	0	1	blank2r.bmp	0	1	+	0	3	B3r.bmp	492	1	blank2r.bmp	786	1	GKQX	786	1	blank2r.bmp	866	5	spielen	866	1	!	1292	1	!	1346	0	0	0	0	0	0	0	0	0	0	0	0	0	0	0	0	0	0	0	0	0	0	0	0	0	0	0
011619	13:43:06	13:49:22	375178	5.0.10.0	4_exp_EVA_AMP_AWA_CON	74	Rpleas_acq	Same	Rpleas	Bmasked	CS_B	2pleas	distractor2	EVAbeforeCON	acq_US_unple_masked	acq3_masked	3	11	453	1	300	300	0	0	414	46	0	1	0	0	0	1	blank2r.bmp	0	1	+	0	6	C2r.bmp	492	1	blank2r.bmp	786	1	BMVZ	786	1	blank2r.bmp	866	6	hindern	866	1	!	1292	1	!	1319	0	0	0	0	0	0	0	0	0	0	0	0	0	0	0	0	0	0	0	0	0	0	0	0	0	0	0
011619	13:43:06	13:49:24	377417	5.0.10.0	4_exp_EVA_AMP_AWA_CON	74	Rpleas_acq	Same	Rpleas	Bmasked	CS_B	2pleas	distractor2	EVAbeforeCON	acq_US_pleas_masked	acq3_masked	3	12	453	1	300	300	0	0	445	50	0	1	0	0	0	1	blank2r.bmp	0	1	+	0	7	C3r.bmp	492	1	blank2r.bmp	786	1	GKQX	786	1	blank2r.bmp	866	3	freundlich	866	1	!	1292	1	!	1346	0	0	0	0	0	0	0	0	0	0	0	0	0	0	0	0	0	0	0	0	0	0	0	0	0	0	0
011619	13:43:06	13:49:27	379696	5.0.10.0	4_exp_EVA_AMP_AWA_CON	74	Rpleas_acq	Same	Rpleas	Bmasked	CS_B	2pleas	distractor2	EVAbeforeCON	acq_US_pleas_masked	acq3_masked	3	13	453	1	300	300	0	0	483	50	0	1	0	0	0	1	blank2r.bmp	0	1	+	0	1	B1r.bmp	492	1	blank2r.bmp	786	1	GKQX	786	1	blank2r.bmp	866	6	helfen	866	1	!	1292	1	!	1386	0	0	0	0	0	0	0	0	0	0	0	0	0	0	0	0	0	0	0	0	0	0	0	0	0	0	0
011619	13:43:06	13:49:29	381922	5.0.10.0	4_exp_EVA_AMP_AWA_CON	74	Rpleas_acq	Same	Rpleas	Bmasked	CS_B	2pleas	distractor2	EVAbeforeCON	acq_US_pleas_masked	acq3_masked	3	14	453	1	300	300	0	0	434	50	0	1	0	0	0	1	blank2r.bmp	0	1	+	0	2	B2r.bmp	492	1	blank2r.bmp	786	1	GKQX	786	1	blank2r.bmp	866	5	spielen	866	1	!	1292	1	!	1332	0	0	0	0	0	0	0	0	0	0	0	0	0	0	0	0	0	0	0	0	0	0	0	0	0	0	0
011619	13:43:06	13:49:31	384148	5.0.10.0	4_exp_EVA_AMP_AWA_CON	74	Rpleas_acq	Same	Rpleas	Bmasked	CS_B	2pleas	distractor2	EVAbeforeCON	acq_US_pleas_masked	acq3_masked	3	15	453	1	300	300	0	0	438	50	0	1	0	0	0	1	blank2r.bmp	0	1	+	0	5	C1r.bmp	492	1	blank2r.bmp	786	1	GKQX	786	1	blank2r.bmp	866	1	fair	866	1	!	1292	1	!	1332	0	0	0	0	0	0	0	0	0	0	0	0	0	0	0	0	0	0	0	0	0	0	0	0	0	0	0
011619	13:43:06	13:49:33	386387	5.0.10.0	4_exp_EVA_AMP_AWA_CON	74	Rpleas_acq	Same	Rpleas	Bmasked	CS_B	2pleas	distractor2	EVAbeforeCON	acq_US_pleas_masked	acq3_masked	3	16	453	1	300	300	0	0	429	50	0	1	0	0	0	1	blank2r.bmp	0	1	+	0	4	B4r.bmp	492	1	blank2r.bmp	786	1	GKQX	786	1	blank2r.bmp	866	2	retten	866	1	!	1292	1	!	1332	0	0	0	0	0	0	0	0	0	0	0	0	0	0	0	0	0	0	0	0	0	0	0	0	0	0	0
011619	13:43:06	13:49:36	388612	5.0.10.0	4_exp_EVA_AMP_AWA_CON	74	Rpleas_acq	Same	Rpleas	Bmasked	CS_B	2pleas	distractor2	EVAbeforeCON	acq_US_pleas_masked	acq3_masked	3	17	453	1	300	300	0	0	438	50	0	1	0	0	0	1	blank2r.bmp	0	1	+	0	4	B4r.bmp	492	1	blank2r.bmp	786	1	GKQX	786	1	blank2r.bmp	866	4	tolerant	866	1	!	1292	1	!	1332	0	0	0	0	0	0	0	0	0	0	0	0	0	0	0	0	0	0	0	0	0	0	0	0	0	0	0
011619	13:43:06	13:49:38	390918	5.0.10.0	4_exp_EVA_AMP_AWA_CON	74	Rpleas_acq	Same	Rpleas	Bmasked	CS_B	2pleas	distractor2	EVAbeforeCON	acq_US_unple_masked	acq3_masked	3	18	453	1	300	300	0	0	514	46	0	1	0	0	0	1	blank2r.bmp	0	1	+	0	8	C4r.bmp	492	1	blank2r.bmp	786	1	BMVZ	786	1	blank2r.bmp	866	5	strafen	866	1	!	1292	1	!	1412	0	0	0	0	0	0	0	0	0	0	0	0	0	0	0	0	0	0	0	0	0	0	0	0	0	0	0
011619	13:43:06	13:49:40	393237	5.0.10.0	4_exp_EVA_AMP_AWA_CON	74	Rpleas_acq	Same	Rpleas	Bmasked	CS_B	2pleas	distractor2	EVAbeforeCON	acq_US_unple_masked	acq3_masked	3	19	453	1	300	300	0	0	519	46	0	1	0	0	0	1	blank2r.bmp	0	1	+	0	5	C1r.bmp	492	1	blank2r.bmp	786	1	BMVZ	786	1	blank2r.bmp	866	6	hindern	866	1	!	1292	1	!	1426	0	0	0	0	0	0	0	0	0	0	0	0	0	0	0	0	0	0	0	0	0	0	0	0	0	0	0
011619	13:43:06	13:49:43	395490	5.0.10.0	4_exp_EVA_AMP_AWA_CON	74	Rpleas_acq	Same	Rpleas	Bmasked	CS_B	2pleas	distractor2	EVAbeforeCON	acq_US_unple_masked	acq3_masked	3	20	453	1	300	300	0	0	459	46	0	1	0	0	0	1	blank2r.bmp	0	1	+	0	3	B3r.bmp	492	1	blank2r.bmp	786	1	BMVZ	786	1	blank2r.bmp	866	1	faul	866	1	!	1292	1	!	1359	0	0	0	0	0	0	0	0	0	0	0	0	0	0	0	0	0	0	0	0	0	0	0	0	0	0	0
011619	13:43:06	13:49:45	397795	5.0.10.0	4_exp_EVA_AMP_AWA_CON	74	Rpleas_acq	Same	Rpleas	Bmasked	CS_B	2pleas	distractor2	EVAbeforeCON	acq_US_unple_masked	acq3_masked	3	21	453	1	300	300	0	0	513	46	0	1	0	0	0	1	blank2r.bmp	0	1	+	0	1	B1r.bmp	492	1	blank2r.bmp	786	1	BMVZ	786	1	blank2r.bmp	866	2	rächen	866	1	!	1292	1	!	1412	0	0	0	0	0	0	0	0	0	0	0	0	0	0	0	0	0	0	0	0	0	0	0	0	0	0	0
011619	13:43:06	13:49:47	400128	5.0.10.0	4_exp_EVA_AMP_AWA_CON	74	Rpleas_acq	Same	Rpleas	Bmasked	CS_B	2pleas	distractor2	EVAbeforeCON	acq_US_unple_masked	acq3_masked	3	22	453	1	300	300	0	0	520	46	0	1	0	0	0	1	blank2r.bmp	0	1	+	0	2	B2r.bmp	492	1	blank2r.bmp	786	1	BMVZ	786	1	blank2r.bmp	866	4	tyrannisch	866	1	!	1292	1	!	1426	0	0	0	0	0	0	0	0	0	0	0	0	0	0	0	0	0	0	0	0	0	0	0	0	0	0	0
011619	13:43:06	13:49:49	402353	5.0.10.0	4_exp_EVA_AMP_AWA_CON	74	Rpleas_acq	Same	Rpleas	Bmasked	CS_B	2pleas	distractor2	EVAbeforeCON	acq_US_pleas_masked	acq3_masked	3	23	453	1	300	300	0	0	433	50	0	1	0	0	0	1	blank2r.bmp	0	1	+	0	6	C2r.bmp	492	1	blank2r.bmp	786	1	GKQX	786	1	blank2r.bmp	866	3	freundlich	866	1	!	1292	1	!	1332	0	0	0	0	0	0	0	0	0	0	0	0	0	0	0	0	0	0	0	0	0	0	0	0	0	0	0
011619	13:43:06	13:49:52	404619	5.0.10.0	4_exp_EVA_AMP_AWA_CON	74	Rpleas_acq	Same	Rpleas	Bmasked	CS_B	2pleas	distractor2	EVAbeforeCON	acq_US_unple_masked	acq3_masked	3	24	453	1	300	300	0	0	475	46	0	1	0	0	0	1	blank2r.bmp	0	1	+	0	7	C3r.bmp	492	1	blank2r.bmp	786	1	BMVZ	786	1	blank2r.bmp	866	3	fanatisch	866	1	!	1292	1	!	1372	0	0	0	0	0	0	0	0	0	0	0	0	0	0	0	0	0	0	0	0	0	0	0	0	0	0	0
011619	13:43:06	13:49:54	406912	5.0.10.0	4_exp_EVA_AMP_AWA_CON	74	Rpleas_acq	Same	Rpleas	Bmasked	CS_B	2pleas	distractor2	EVAbeforeCON	acq_US_unple_masked	acq3_masked	3	25	453	1	300	300	0	0	495	46	0	1	0	0	0	1	blank2r.bmp	0	1	+	0	5	C1r.bmp	492	1	blank2r.bmp	786	1	BMVZ	786	1	blank2r.bmp	866	2	rächen	866	1	!	1292	1	!	1399	0	0	0	0	0	0	0	0	0	0	0	0	0	0	0	0	0	0	0	0	0	0	0	0	0	0	0
011619	13:43:06	13:49:56	409217	5.0.10.0	4_exp_EVA_AMP_AWA_CON	74	Rpleas_acq	Same	Rpleas	Bmasked	CS_B	2pleas	distractor2	EVAbeforeCON	acq_US_unple_masked	acq3_masked	3	26	453	0	300	300	0	0	536	46	0	1	0	0	0	1	blank2r.bmp	0	1	+	0	4	B4r.bmp	492	1	blank2r.bmp	786	1	BMVZ	786	1	blank2r.bmp	866	4	tyrannisch	866	1	!	1292	1	!	-1	0	0	0	0	0	0	0	0	0	0	0	0	0	0	0	0	0	0	0	0	0	0	0	0	0	0	0
011619	13:43:06	13:49:58	411376	5.0.10.0	4_exp_EVA_AMP_AWA_CON	74	Rpleas_acq	Same	Rpleas	Bmasked	CS_B	2pleas	distractor2	EVAbeforeCON	acq_US_pleas_masked	acq3_masked	3	27	453	0	300	300	0	0	363	50	0	1	0	0	0	1	blank2r.bmp	0	1	+	0	8	C4r.bmp	492	1	blank2r.bmp	786	1	GKQX	786	1	blank2r.bmp	866	6	helfen	866	1	!	-1	1	!	-1	0	0	0	0	0	0	0	0	0	0	0	0	0	0	0	0	0	0	0	0	0	0	0	0	0	0	0
011619	13:43:06	13:50:01	413655	5.0.10.0	4_exp_EVA_AMP_AWA_CON	74	Rpleas_acq	Same	Rpleas	Bmasked	CS_B	2pleas	distractor2	EVAbeforeCON	acq_US_unple_masked	acq3_masked	3	28	453	1	300	300	0	0	478	46	0	1	0	0	0	1	blank2r.bmp	0	1	+	0	1	B1r.bmp	492	1	blank2r.bmp	786	1	BMVZ	786	1	blank2r.bmp	866	3	fanatisch	866	1	!	1292	1	!	1372	0	0	0	0	0	0	0	0	0	0	0	0	0	0	0	0	0	0	0	0	0	0	0	0	0	0	0
011619	13:43:06	13:50:03	415908	5.0.10.0	4_exp_EVA_AMP_AWA_CON	74	Rpleas_acq	Same	Rpleas	Bmasked	CS_B	2pleas	distractor2	EVAbeforeCON	acq_US_unple_masked	acq3_masked	3	29	453	1	300	300	0	0	456	46	0	1	0	0	0	1	blank2r.bmp	0	1	+	0	2	B2r.bmp	492	1	blank2r.bmp	786	1	BMVZ	786	1	blank2r.bmp	866	5	strafen	866	1	!	1292	1	!	1359	0	0	0	0	0	0	0	0	0	0	0	0	0	0	0	0	0	0	0	0	0	0	0	0	0	0	0
011619	13:43:06	13:50:05	418160	5.0.10.0	4_exp_EVA_AMP_AWA_CON	74	Rpleas_acq	Same	Rpleas	Bmasked	CS_B	2pleas	distractor2	EVAbeforeCON	acq_US_pleas_masked	acq3_masked	3	30	453	1	300	300	0	0	439	50	0	1	0	0	0	1	blank2r.bmp	0	1	+	0	7	C3r.bmp	492	1	blank2r.bmp	786	1	GKQX	786	1	blank2r.bmp	866	3	freundlich	866	1	!	1292	1	!	1346	0	0	0	0	0	0	0	0	0	0	0	0	0	0	0	0	0	0	0	0	0	0	0	0	0	0	0
011619	13:43:06	13:50:07	420399	5.0.10.0	4_exp_EVA_AMP_AWA_CON	74	Rpleas_acq	Same	Rpleas	Bmasked	CS_B	2pleas	distractor2	EVAbeforeCON	acq_US_unple_masked	acq3_masked	3	31	453	1	300	300	0	0	447	46	0	1	0	0	0	1	blank2r.bmp	0	1	+	0	3	B3r.bmp	492	1	blank2r.bmp	786	1	BMVZ	786	1	blank2r.bmp	866	1	faul	866	1	!	1292	1	!	1346	0	0	0	0	0	0	0	0	0	0	0	0	0	0	0	0	0	0	0	0	0	0	0	0	0	0	0
011619	13:43:06	13:50:10	422678	5.0.10.0	4_exp_EVA_AMP_AWA_CON	74	Rpleas_acq	Same	Rpleas	Bmasked	CS_B	2pleas	distractor2	EVAbeforeCON	acq_US_pleas_masked	acq3_masked	3	32	453	1	300	300	0	0	467	50	0	1	0	0	0	1	blank2r.bmp	0	1	+	0	6	C2r.bmp	492	1	blank2r.bmp	786	1	GKQX	786	1	blank2r.bmp	866	5	spielen	866	1	!	1292	1	!	1372	0	0	0	0	0	0	0	0	0	0	0	0	0	0	0	0	0	0	0	0	0	0	0	0	0	0	0
011619	13:43:06	13:50:12	425104	5.0.10.0	4_exp_EVA_AMP_AWA_CON	74	Rpleas_acq	Same	Rpleas	Bmasked	CS_B	2pleas	distractor2	EVAbeforeCON	acq_US_pleas_masked	acq3_masked	3	33	453	0	300	300	0	0	640	50	0	1	0	0	0	1	blank2r.bmp	0	1	+	0	3	B3r.bmp	492	1	blank2r.bmp	786	1	GKQX	786	1	blank2r.bmp	866	4	tolerant	866	1	!	1292	1	!	-1	0	0	0	0	0	0	0	0	0	0	0	0	0	0	0	0	0	0	0	0	0	0	0	0	0	0	0
011619	13:43:06	13:50:15	427530	5.0.10.0	4_exp_EVA_AMP_AWA_CON	74	Rpleas_acq	Same	Rpleas	Bmasked	CS_B	2pleas	distractor2	EVAbeforeCON	acq_US_pleas_masked	acq3_masked	3	34	453	1	300	300	0	0	399	46	0	0	0	0	0	1	blank2r.bmp	0	1	+	0	2	B2r.bmp	492	1	blank2r.bmp	786	1	GKQX	786	1	blank2r.bmp	866	2	retten	866	1	FEHLER	1625	1	!	1292	1	!	1306	0	0	0	0	0	0	0	0	0	0	0	0	0	0	0	0	0	0	0	0	0	0	0	0
011619	13:43:06	13:50:17	429542	5.0.10.0	4_exp_EVA_AMP_AWA_CON	74	Rpleas_acq	Same	Rpleas	Bmasked	CS_B	2pleas	distractor2	EVAbeforeCON	acq_US_pleas_masked	acq3_masked	3	35	453	1	300	300	0	0	438	50	0	1	0	0	0	1	blank2r.bmp	0	1	+	0	4	B4r.bmp	492	1	blank2r.bmp	786	1	GKQX	786	1	blank2r.bmp	866	1	fair	866	1	!	1292	1	!	1332	0	0	0	0	0	0	0	0	0	0	0	0	0	0	0	0	0	0	0	0	0	0	0	0	0	0	0
011619	13:43:06	13:50:19	431835	5.0.10.0	4_exp_EVA_AMP_AWA_CON	74	Rpleas_acq	Same	Rpleas	Bmasked	CS_B	2pleas	distractor2	EVAbeforeCON	acq_US_unple_masked	acq3_masked	3	36	453	1	300	300	0	0	484	46	0	1	0	0	0	1	blank2r.bmp	0	1	+	0	5	C1r.bmp	492	1	blank2r.bmp	786	1	BMVZ	786	1	blank2r.bmp	866	6	hindern	866	1	!	1292	1	!	1386	0	0	0	0	0	0	0	0	0	0	0	0	0	0	0	0	0	0	0	0	0	0	0	0	0	0	0
011619	13:43:06	13:50:41	454079	5.0.10.0	4_exp_EVA_AMP_AWA_CON	74	Rpleas_acq	Same	Rpleas	Bmasked	CS_B	2pleas	distractor2	EVAbeforeCON	acq_US_unple_masked	acq45_masked	4	1	400	0	300	300	0	0	773	46	0	1	0	0	0	1	blank2r.bmp	0	1	+	0	8	C4r.bmp	492	1	blank2r.bmp	786	1	BMVZ	786	1	blank2r.bmp	866	1	faul	866	1	!	1239	1	!	-1	0	0	0	0	0	0	0	0	0	0	0	0	0	0	0	0	0	0	0	0	0	0	0	0	0	0	0
011619	13:43:06	13:50:43	456318	5.0.10.0	4_exp_EVA_AMP_AWA_CON	74	Rpleas_acq	Same	Rpleas	Bmasked	CS_B	2pleas	distractor2	EVAbeforeCON	acq_US_pleas_masked	acq45_masked	4	2	400	1	300	300	0	0	433	46	0	0	0	0	0	1	blank2r.bmp	0	1	+	0	7	C3r.bmp	492	1	blank2r.bmp	786	1	GKQX	786	1	blank2r.bmp	866	1	fair	866	1	!	1239	1	!	1332	0	0	0	0	0	0	0	0	0	0	0	0	0	0	0	0	0	0	0	0	0	0	0	0	0	0	0
011619	13:43:06	13:50:46	458650	5.0.10.0	4_exp_EVA_AMP_AWA_CON	74	Rpleas_acq	Same	Rpleas	Bmasked	CS_B	2pleas	distractor2	EVAbeforeCON	acq_US_unple_masked	acq45_masked	4	3	400	0	300	300	0	0	565	46	0	1	0	0	0	1	blank2r.bmp	0	1	+	0	6	C2r.bmp	492	1	blank2r.bmp	786	1	BMVZ	786	1	blank2r.bmp	866	6	hindern	866	1	!	1239	1	!	-1	0	0	0	0	0	0	0	0	0	0	0	0	0	0	0	0	0	0	0	0	0	0	0	0	0	0	0
011619	13:43:06	13:50:48	460916	5.0.10.0	4_exp_EVA_AMP_AWA_CON	74	Rpleas_acq	Same	Rpleas	Bmasked	CS_B	2pleas	distractor2	EVAbeforeCON	acq_US_pleas_masked	acq45_masked	4	4	400	1	300	300	0	0	457	50	0	1	0	0	0	1	blank2r.bmp	0	1	+	0	1	B1r.bmp	492	1	blank2r.bmp	786	1	GKQX	786	1	blank2r.bmp	866	3	freundlich	866	1	!	1239	1	!	1359	0	0	0	0	0	0	0	0	0	0	0	0	0	0	0	0	0	0	0	0	0	0	0	0	0	0	0
011619	13:43:06	13:50:50	463142	5.0.10.0	4_exp_EVA_AMP_AWA_CON	74	Rpleas_acq	Same	Rpleas	Bmasked	CS_B	2pleas	distractor2	EVAbeforeCON	acq_US_pleas_masked	acq45_masked	4	5	400	1	300	300	0	0	431	50	0	1	0	0	0	1	blank2r.bmp	0	1	+	0	4	B4r.bmp	492	1	blank2r.bmp	786	1	GKQX	786	1	blank2r.bmp	866	2	retten	866	1	!	1239	1	!	1332	0	0	0	0	0	0	0	0	0	0	0	0	0	0	0	0	0	0	0	0	0	0	0	0	0	0	0
011619	13:43:06	13:50:52	465367	5.0.10.0	4_exp_EVA_AMP_AWA_CON	74	Rpleas_acq	Same	Rpleas	Bmasked	CS_B	2pleas	distractor2	EVAbeforeCON	acq_US_unple_masked	acq45_masked	4	6	400	1	300	300	0	0	430	46	0	1	0	0	0	1	blank2r.bmp	0	1	+	0	1	B1r.bmp	492	1	blank2r.bmp	786	1	BMVZ	786	1	blank2r.bmp	866	5	strafen	866	1	!	1239	1	!	1332	0	0	0	0	0	0	0	0	0	0	0	0	0	0	0	0	0	0	0	0	0	0	0	0	0	0	0
011619	13:43:06	13:50:55	467580	5.0.10.0	4_exp_EVA_AMP_AWA_CON	74	Rpleas_acq	Same	Rpleas	Bmasked	CS_B	2pleas	distractor2	EVAbeforeCON	acq_US_pleas_masked	acq45_masked	4	7	400	1	300	300	0	0	418	50	0	1	0	0	0	1	blank2r.bmp	0	1	+	0	8	C4r.bmp	492	1	blank2r.bmp	786	1	GKQX	786	1	blank2r.bmp	866	6	helfen	866	1	!	1239	1	!	1319	0	0	0	0	0	0	0	0	0	0	0	0	0	0	0	0	0	0	0	0	0	0	0	0	0	0	0
011619	13:43:06	13:50:57	469766	5.0.10.0	4_exp_EVA_AMP_AWA_CON	74	Rpleas_acq	Same	Rpleas	Bmasked	CS_B	2pleas	distractor2	EVAbeforeCON	acq_US_unple_masked	acq45_masked	4	8	400	1	300	300	0	0	389	46	0	1	0	0	0	1	blank2r.bmp	0	1	+	0	6	C2r.bmp	492	1	blank2r.bmp	786	1	BMVZ	786	1	blank2r.bmp	866	2	rächen	866	1	!	1239	1	!	1292	0	0	0	0	0	0	0	0	0	0	0	0	0	0	0	0	0	0	0	0	0	0	0	0	0	0	0
011619	13:43:06	13:50:59	472018	5.0.10.0	4_exp_EVA_AMP_AWA_CON	74	Rpleas_acq	Same	Rpleas	Bmasked	CS_B	2pleas	distractor2	EVAbeforeCON	acq_US_pleas_masked	acq45_masked	4	9	400	0	300	300	0	0	483	50	0	1	0	0	0	1	blank2r.bmp	0	1	+	0	7	C3r.bmp	492	1	blank2r.bmp	786	1	GKQX	786	1	blank2r.bmp	866	4	tolerant	866	1	!	1239	1	!	-1	0	0	0	0	0	0	0	0	0	0	0	0	0	0	0	0	0	0	0	0	0	0	0	0	0	0	0
011619	13:43:06	13:51:01	474204	5.0.10.0	4_exp_EVA_AMP_AWA_CON	74	Rpleas_acq	Same	Rpleas	Bmasked	CS_B	2pleas	distractor2	EVAbeforeCON	acq_US_pleas_masked	acq45_masked	4	10	400	1	300	300	0	0	377	46	0	0	0	0	0	1	blank2r.bmp	0	1	+	0	3	B3r.bmp	492	1	blank2r.bmp	786	1	GKQX	786	1	blank2r.bmp	866	5	spielen	866	1	!	1239	1	!	1279	0	0	0	0	0	0	0	0	0	0	0	0	0	0	0	0	0	0	0	0	0	0	0	0	0	0	0
011619	13:43:06	13:51:03	476403	5.0.10.0	4_exp_EVA_AMP_AWA_CON	74	Rpleas_acq	Same	Rpleas	Bmasked	CS_B	2pleas	distractor2	EVAbeforeCON	acq_US_pleas_masked	acq45_masked	4	11	400	1	300	300	0	0	396	50	0	1	0	0	0	1	blank2r.bmp	0	1	+	0	2	B2r.bmp	492	1	blank2r.bmp	786	1	GKQX	786	1	blank2r.bmp	866	1	fair	866	1	!	1239	1	!	1292	0	0	0	0	0	0	0	0	0	0	0	0	0	0	0	0	0	0	0	0	0	0	0	0	0	0	0
011619	13:43:06	13:51:06	478642	5.0.10.0	4_exp_EVA_AMP_AWA_CON	74	Rpleas_acq	Same	Rpleas	Bmasked	CS_B	2pleas	distractor2	EVAbeforeCON	acq_US_unple_masked	acq45_masked	4	12	400	1	300	300	0	0	444	46	0	1	0	0	0	1	blank2r.bmp	0	1	+	0	5	C1r.bmp	492	1	blank2r.bmp	786	1	BMVZ	786	1	blank2r.bmp	866	4	tyrannisch	866	1	!	1239	1	!	1346	0	0	0	0	0	0	0	0	0	0	0	0	0	0	0	0	0	0	0	0	0	0	0	0	0	0	0
011619	13:43:06	13:51:08	481161	5.0.10.0	4_exp_EVA_AMP_AWA_CON	74	Rpleas_acq	Same	Rpleas	Bmasked	CS_B	2pleas	distractor2	EVAbeforeCON	acq_US_unple_masked	acq45_masked	4	13	400	0	300	300	0	0	747	46	0	1	0	0	0	1	blank2r.bmp	0	1	+	0	7	C3r.bmp	492	1	blank2r.bmp	786	1	BMVZ	786	1	blank2r.bmp	866	3	fanatisch	866	1	!	1239	1	!	-1	0	0	0	0	0	0	0	0	0	0	0	0	0	0	0	0	0	0	0	0	0	0	0	0	0	0	0
011619	13:43:06	13:51:10	483333	5.0.10.0	4_exp_EVA_AMP_AWA_CON	74	Rpleas_acq	Same	Rpleas	Bmasked	CS_B	2pleas	distractor2	EVAbeforeCON	acq_US_unple_masked	acq45_masked	4	14	400	1	300	300	0	0	360	50	0	0	0	0	0	1	blank2r.bmp	0	1	+	0	4	B4r.bmp	492	1	blank2r.bmp	786	1	BMVZ	786	1	blank2r.bmp	866	6	hindern	866	1	!	1239	1	!	1266	0	0	0	0	0	0	0	0	0	0	0	0	0	0	0	0	0	0	0	0	0	0	0	0	0	0	0
011619	13:43:06	13:51:15	487918	5.0.10.0	4_exp_EVA_AMP_AWA_CON	74	Rpleas_acq	Same	Rpleas	Bmasked	CS_B	2pleas	distractor2	EVAbeforeCON	acq_US_unple_masked	acq45_masked	4	15	400	0	300	300	0	0	2820	46	0	1	0	0	0	1	blank2r.bmp	0	1	+	0	5	C1r.bmp	492	1	blank2r.bmp	786	1	BMVZ	786	1	blank2r.bmp	866	1	faul	866	1	!	1239	1	!	-1	0	0	0	0	0	0	0	0	0	0	0	0	0	0	0	0	0	0	0	0	0	0	0	0	0	0	0
011619	13:43:06	13:51:17	490131	5.0.10.0	4_exp_EVA_AMP_AWA_CON	74	Rpleas_acq	Same	Rpleas	Bmasked	CS_B	2pleas	distractor2	EVAbeforeCON	acq_US_pleas_masked	acq45_masked	4	16	400	1	300	300	0	0	397	50	0	1	0	0	0	1	blank2r.bmp	0	1	+	0	2	B2r.bmp	492	1	blank2r.bmp	786	1	GKQX	786	1	blank2r.bmp	866	5	spielen	866	1	!	1239	1	!	1292	0	0	0	0	0	0	0	0	0	0	0	0	0	0	0	0	0	0	0	0	0	0	0	0	0	0	0
011619	13:43:06	13:51:19	492383	5.0.10.0	4_exp_EVA_AMP_AWA_CON	74	Rpleas_acq	Same	Rpleas	Bmasked	CS_B	2pleas	distractor2	EVAbeforeCON	acq_US_pleas_masked	acq45_masked	4	17	400	1	300	300	0	0	456	50	0	1	0	0	0	1	blank2r.bmp	0	1	+	0	3	B3r.bmp	492	1	blank2r.bmp	786	1	GKQX	786	1	blank2r.bmp	866	6	helfen	866	1	!	1239	1	!	1359	0	0	0	0	0	0	0	0	0	0	0	0	0	0	0	0	0	0	0	0	0	0	0	0	0	0	0
011619	13:43:06	13:51:22	494635	5.0.10.0	4_exp_EVA_AMP_AWA_CON	74	Rpleas_acq	Same	Rpleas	Bmasked	CS_B	2pleas	distractor2	EVAbeforeCON	acq_US_unple_masked	acq45_masked	4	18	400	1	300	300	0	0	460	46	0	1	0	0	0	1	blank2r.bmp	0	1	+	0	8	C4r.bmp	492	1	blank2r.bmp	786	1	BMVZ	786	1	blank2r.bmp	866	4	tyrannisch	866	1	!	1239	1	!	1359	0	0	0	0	0	0	0	0	0	0	0	0	0	0	0	0	0	0	0	0	0	0	0	0	0	0	0
011619	13:43:06	13:51:24	496781	5.0.10.0	4_exp_EVA_AMP_AWA_CON	74	Rpleas_acq	Same	Rpleas	Bmasked	CS_B	2pleas	distractor2	EVAbeforeCON	acq_US_pleas_masked	acq45_masked	4	19	400	1	300	300	0	0	347	50	0	1	0	0	0	1	blank2r.bmp	0	1	+	0	1	B1r.bmp	492	1	blank2r.bmp	786	1	GKQX	786	1	blank2r.bmp	866	4	tolerant	866	1	!	1239	1	!	1252	0	0	0	0	0	0	0	0	0	0	0	0	0	0	0	0	0	0	0	0	0	0	0	0	0	0	0
011619	13:43:06	13:51:26	499087	5.0.10.0	4_exp_EVA_AMP_AWA_CON	74	Rpleas_acq	Same	Rpleas	Bmasked	CS_B	2pleas	distractor2	EVAbeforeCON	acq_US_unple_masked	acq45_masked	4	20	400	0	300	300	0	0	533	46	0	1	0	0	0	1	blank2r.bmp	0	1	+	0	6	C2r.bmp	492	1	blank2r.bmp	786	1	BMVZ	786	1	blank2r.bmp	866	3	fanatisch	866	1	!	1239	1	!	-1	0	0	0	0	0	0	0	0	0	0	0	0	0	0	0	0	0	0	0	0	0	0	0	0	0	0	0
011619	13:43:06	13:51:28	501353	5.0.10.0	4_exp_EVA_AMP_AWA_CON	74	Rpleas_acq	Same	Rpleas	Bmasked	CS_B	2pleas	distractor2	EVAbeforeCON	acq_US_unple_masked	acq45_masked	4	21	400	0	300	300	0	0	479	46	0	1	0	0	0	1	blank2r.bmp	0	1	+	0	1	B1r.bmp	492	1	blank2r.bmp	786	1	BMVZ	786	1	blank2r.bmp	866	2	rächen	866	1	!	1239	1	!	-1	0	0	0	0	0	0	0	0	0	0	0	0	0	0	0	0	0	0	0	0	0	0	0	0	0	0	0
011619	13:43:06	13:51:31	503618	5.0.10.0	4_exp_EVA_AMP_AWA_CON	74	Rpleas_acq	Same	Rpleas	Bmasked	CS_B	2pleas	distractor2	EVAbeforeCON	acq_US_unple_masked	acq45_masked	4	22	400	0	300	300	0	0	485	50	0	0	0	0	0	1	blank2r.bmp	0	1	+	0	3	B3r.bmp	492	1	blank2r.bmp	786	1	BMVZ	786	1	blank2r.bmp	866	5	strafen	866	1	!	1239	1	!	-1	0	0	0	0	0	0	0	0	0	0	0	0	0	0	0	0	0	0	0	0	0	0	0	0	0	0	0
011619	13:43:06	13:51:33	505884	5.0.10.0	4_exp_EVA_AMP_AWA_CON	74	Rpleas_acq	Same	Rpleas	Bmasked	CS_B	2pleas	distractor2	EVAbeforeCON	acq_US_unple_masked	acq45_masked	4	23	400	0	300	300	0	0	479	46	0	1	0	0	0	1	blank2r.bmp	0	1	+	0	5	C1r.bmp	492	1	blank2r.bmp	786	1	BMVZ	786	1	blank2r.bmp	866	5	strafen	866	1	!	1239	1	!	-1	0	0	0	0	0	0	0	0	0	0	0	0	0	0	0	0	0	0	0	0	0	0	0	0	0	0	0
011619	13:43:06	13:51:35	508043	5.0.10.0	4_exp_EVA_AMP_AWA_CON	74	Rpleas_acq	Same	Rpleas	Bmasked	CS_B	2pleas	distractor2	EVAbeforeCON	acq_US_pleas_masked	acq45_masked	4	24	400	1	300	300	0	0	346	50	0	1	0	0	0	1	blank2r.bmp	0	1	+	0	7	C3r.bmp	492	1	blank2r.bmp	786	1	GKQX	786	1	blank2r.bmp	866	2	retten	866	1	!	1239	1	!	1252	0	0	0	0	0	0	0	0	0	0	0	0	0	0	0	0	0	0	0	0	0	0	0	0	0	0	0
011619	13:43:06	13:51:37	510269	5.0.10.0	4_exp_EVA_AMP_AWA_CON	74	Rpleas_acq	Same	Rpleas	Bmasked	CS_B	2pleas	distractor2	EVAbeforeCON	acq_US_pleas_masked	acq45_masked	4	25	400	1	300	300	0	0	429	50	0	1	0	0	0	1	blank2r.bmp	0	1	+	0	8	C4r.bmp	492	1	blank2r.bmp	786	1	GKQX	786	1	blank2r.bmp	866	3	freundlich	866	1	!	1239	1	!	1332	0	0	0	0	0	0	0	0	0	0	0	0	0	0	0	0	0	0	0	0	0	0	0	0	0	0	0
011619	13:43:06	13:51:40	512521	5.0.10.0	4_exp_EVA_AMP_AWA_CON	74	Rpleas_acq	Same	Rpleas	Bmasked	CS_B	2pleas	distractor2	EVAbeforeCON	acq_US_unple_masked	acq45_masked	4	26	400	1	300	300	0	0	458	46	0	1	0	0	0	1	blank2r.bmp	0	1	+	0	4	B4r.bmp	492	1	blank2r.bmp	786	1	BMVZ	786	1	blank2r.bmp	866	1	faul	866	1	!	1239	1	!	1359	0	0	0	0	0	0	0	0	0	0	0	0	0	0	0	0	0	0	0	0	0	0	0	0	0	0	0
011619	13:43:06	13:51:42	514787	5.0.10.0	4_exp_EVA_AMP_AWA_CON	74	Rpleas_acq	Same	Rpleas	Bmasked	CS_B	2pleas	distractor2	EVAbeforeCON	acq_US_unple_masked	acq45_masked	4	27	400	0	300	300	0	0	502	46	0	1	0	0	0	1	blank2r.bmp	0	1	+	0	2	B2r.bmp	492	1	blank2r.bmp	786	1	BMVZ	786	1	blank2r.bmp	866	3	fanatisch	866	1	!	1239	1	!	-1	0	0	0	0	0	0	0	0	0	0	0	0	0	0	0	0	0	0	0	0	0	0	0	0	0	0	0
011619	13:43:06	13:51:44	517013	5.0.10.0	4_exp_EVA_AMP_AWA_CON	74	Rpleas_acq	Same	Rpleas	Bmasked	CS_B	2pleas	distractor2	EVAbeforeCON	acq_US_pleas_masked	acq45_masked	4	28	400	1	300	300	0	0	419	50	0	1	0	0	0	1	blank2r.bmp	0	1	+	0	6	C2r.bmp	492	1	blank2r.bmp	786	1	GKQX	786	1	blank2r.bmp	866	4	tolerant	866	1	!	1239	1	!	1319	0	0	0	0	0	0	0	0	0	0	0	0	0	0	0	0	0	0	0	0	0	0	0	0	0	0	0
011619	13:43:06	13:51:46	519252	5.0.10.0	4_exp_EVA_AMP_AWA_CON	74	Rpleas_acq	Same	Rpleas	Bmasked	CS_B	2pleas	distractor2	EVAbeforeCON	acq_US_unple_masked	acq45_masked	4	29	400	1	300	300	0	0	447	46	0	1	0	0	0	1	blank2r.bmp	0	1	+	0	8	C4r.bmp	492	1	blank2r.bmp	786	1	BMVZ	786	1	blank2r.bmp	866	6	hindern	866	1	!	1239	1	!	1346	0	0	0	0	0	0	0	0	0	0	0	0	0	0	0	0	0	0	0	0	0	0	0	0	0	0	0
011619	13:43:06	13:51:49	521464	5.0.10.0	4_exp_EVA_AMP_AWA_CON	74	Rpleas_acq	Same	Rpleas	Bmasked	CS_B	2pleas	distractor2	EVAbeforeCON	acq_US_pleas_masked	acq45_masked	4	30	400	1	300	300	0	0	424	50	0	1	0	0	0	1	blank2r.bmp	0	1	+	0	3	B3r.bmp	492	1	blank2r.bmp	786	1	GKQX	786	1	blank2r.bmp	866	2	retten	866	1	!	1239	1	!	1319	0	0	0	0	0	0	0	0	0	0	0	0	0	0	0	0	0	0	0	0	0	0	0	0	0	0	0
011619	13:43:06	13:51:51	523690	5.0.10.0	4_exp_EVA_AMP_AWA_CON	74	Rpleas_acq	Same	Rpleas	Bmasked	CS_B	2pleas	distractor2	EVAbeforeCON	acq_US_unple_masked	acq45_masked	4	31	400	1	300	300	0	0	432	50	0	0	0	0	0	1	blank2r.bmp	0	1	+	0	6	C2r.bmp	492	1	blank2r.bmp	786	1	BMVZ	786	1	blank2r.bmp	866	2	rächen	866	1	!	1239	1	!	1332	0	0	0	0	0	0	0	0	0	0	0	0	0	0	0	0	0	0	0	0	0	0	0	0	0	0	0
011619	13:43:06	13:51:53	525929	5.0.10.0	4_exp_EVA_AMP_AWA_CON	74	Rpleas_acq	Same	Rpleas	Bmasked	CS_B	2pleas	distractor2	EVAbeforeCON	acq_US_pleas_masked	acq45_masked	4	32	400	1	300	300	0	0	450	50	0	1	0	0	0	1	blank2r.bmp	0	1	+	0	4	B4r.bmp	492	1	blank2r.bmp	786	1	GKQX	786	1	blank2r.bmp	866	3	freundlich	866	1	!	1239	1	!	1346	0	0	0	0	0	0	0	0	0	0	0	0	0	0	0	0	0	0	0	0	0	0	0	0	0	0	0
011619	13:43:06	13:51:55	528155	5.0.10.0	4_exp_EVA_AMP_AWA_CON	74	Rpleas_acq	Same	Rpleas	Bmasked	CS_B	2pleas	distractor2	EVAbeforeCON	acq_US_unple_masked	acq45_masked	4	33	400	1	300	300	0	0	435	46	0	1	0	0	0	1	blank2r.bmp	0	1	+	0	1	B1r.bmp	492	1	blank2r.bmp	786	1	BMVZ	786	1	blank2r.bmp	866	4	tyrannisch	866	1	!	1239	1	!	1332	0	0	0	0	0	0	0	0	0	0	0	0	0	0	0	0	0	0	0	0	0	0	0	0	0	0	0
011619	13:43:06	13:51:57	530341	5.0.10.0	4_exp_EVA_AMP_AWA_CON	74	Rpleas_acq	Same	Rpleas	Bmasked	CS_B	2pleas	distractor2	EVAbeforeCON	acq_US_pleas_masked	acq45_masked	4	34	400	1	300	300	0	0	396	50	0	1	0	0	0	1	blank2r.bmp	0	1	+	0	5	C1r.bmp	492	1	blank2r.bmp	786	1	GKQX	786	1	blank2r.bmp	866	5	spielen	866	1	!	1239	1	!	1292	0	0	0	0	0	0	0	0	0	0	0	0	0	0	0	0	0	0	0	0	0	0	0	0	0	0	0
011619	13:43:06	13:52:00	532580	5.0.10.0	4_exp_EVA_AMP_AWA_CON	74	Rpleas_acq	Same	Rpleas	Bmasked	CS_B	2pleas	distractor2	EVAbeforeCON	acq_US_pleas_masked	acq45_masked	4	35	400	1	300	300	0	0	451	50	0	1	0	0	0	1	blank2r.bmp	0	1	+	0	2	B2r.bmp	492	1	blank2r.bmp	786	1	GKQX	786	1	blank2r.bmp	866	6	helfen	866	1	!	1239	1	!	1346	0	0	0	0	0	0	0	0	0	0	0	0	0	0	0	0	0	0	0	0	0	0	0	0	0	0	0
011619	13:43:06	13:52:02	534765	5.0.10.0	4_exp_EVA_AMP_AWA_CON	74	Rpleas_acq	Same	Rpleas	Bmasked	CS_B	2pleas	distractor2	EVAbeforeCON	acq_US_pleas_masked	acq45_masked	4	36	400	1	300	300	0	0	379	50	0	1	0	0	0	1	blank2r.bmp	0	1	+	0	7	C3r.bmp	492	1	blank2r.bmp	786	1	GKQX	786	1	blank2r.bmp	866	1	fair	866	1	!	1239	1	!	1279	0	0	0	0	0	0	0	0	0	0	0	0	0	0	0	0	0	0	0	0	0	0	0	0	0	0	0
011619	13:43:06	13:52:20	553198	5.0.10.0	4_exp_EVA_AMP_AWA_CON	74	Rpleas_acq	Same	Rpleas	Bmasked	CS_B	2pleas	distractor2	EVAbeforeCON	acq_US_unple_masked	acq45_masked	5	1	400	0	300	300	0	0	615	46	0	1	0	0	0	1	blank2r.bmp	0	1	+	0	4	B4r.bmp	492	1	blank2r.bmp	786	1	BMVZ	786	1	blank2r.bmp	866	2	rächen	866	1	!	1239	1	!	-1	0	0	0	0	0	0	0	0	0	0	0	0	0	0	0	0	0	0	0	0	0	0	0	0	0	0	0
011619	13:43:06	13:52:23	555464	5.0.10.0	4_exp_EVA_AMP_AWA_CON	74	Rpleas_acq	Same	Rpleas	Bmasked	CS_B	2pleas	distractor2	EVAbeforeCON	acq_US_pleas_masked	acq45_masked	5	2	400	0	300	300	0	0	479	50	0	1	0	0	0	1	blank2r.bmp	0	1	+	0	5	C1r.bmp	492	1	blank2r.bmp	786	1	GKQX	786	1	blank2r.bmp	866	3	freundlich	866	1	!	1239	1	!	-1	0	0	0	0	0	0	0	0	0	0	0	0	0	0	0	0	0	0	0	0	0	0	0	0	0	0	0
011619	13:43:06	13:52:25	557729	5.0.10.0	4_exp_EVA_AMP_AWA_CON	74	Rpleas_acq	Same	Rpleas	Bmasked	CS_B	2pleas	distractor2	EVAbeforeCON	acq_US_pleas_masked	acq45_masked	5	3	400	0	300	300	0	0	481	50	0	1	0	0	0	1	blank2r.bmp	0	1	+	0	3	B3r.bmp	492	1	blank2r.bmp	786	1	GKQX	786	1	blank2r.bmp	866	6	helfen	866	1	!	1239	1	!	-1	0	0	0	0	0	0	0	0	0	0	0	0	0	0	0	0	0	0	0	0	0	0	0	0	0	0	0
011619	13:43:06	13:52:27	560022	5.0.10.0	4_exp_EVA_AMP_AWA_CON	74	Rpleas_acq	Same	Rpleas	Bmasked	CS_B	2pleas	distractor2	EVAbeforeCON	acq_US_pleas_masked	acq45_masked	5	4	400	0	300	300	0	0	502	50	0	1	0	0	0	1	blank2r.bmp	0	1	+	0	6	C2r.bmp	492	1	blank2r.bmp	786	1	GKQX	786	1	blank2r.bmp	866	4	tolerant	866	1	!	1239	1	!	-1	0	0	0	0	0	0	0	0	0	0	0	0	0	0	0	0	0	0	0	0	0	0	0	0	0	0	0
011619	13:43:06	13:52:29	562247	5.0.10.0	4_exp_EVA_AMP_AWA_CON	74	Rpleas_acq	Same	Rpleas	Bmasked	CS_B	2pleas	distractor2	EVAbeforeCON	acq_US_pleas_masked	acq45_masked	5	5	400	1	300	300	0	0	411	50	0	1	0	0	0	1	blank2r.bmp	0	1	+	0	7	C3r.bmp	492	1	blank2r.bmp	786	1	GKQX	786	1	blank2r.bmp	866	1	fair	866	1	!	1239	1	!	1306	0	0	0	0	0	0	0	0	0	0	0	0	0	0	0	0	0	0	0	0	0	0	0	0	0	0	0
011619	13:43:06	13:52:32	564460	5.0.10.0	4_exp_EVA_AMP_AWA_CON	74	Rpleas_acq	Same	Rpleas	Bmasked	CS_B	2pleas	distractor2	EVAbeforeCON	acq_US_pleas_masked	acq45_masked	5	6	400	1	300	300	0	0	425	46	0	0	0	0	0	1	blank2r.bmp	0	1	+	0	1	B1r.bmp	492	1	blank2r.bmp	786	1	GKQX	786	1	blank2r.bmp	866	5	spielen	866	1	!	1239	1	!	1319	0	0	0	0	0	0	0	0	0	0	0	0	0	0	0	0	0	0	0	0	0	0	0	0	0	0	0
011619	13:43:06	13:52:37	569711	5.0.10.0	4_exp_EVA_AMP_AWA_CON	74	Rpleas_acq	Same	Rpleas	Bmasked	CS_B	2pleas	distractor2	EVAbeforeCON	acq_US_unple_masked	acq45_masked	5	7	400	0	300	300	0	0	3482	46	0	1	0	0	0	1	blank2r.bmp	0	1	+	0	8	C4r.bmp	492	1	blank2r.bmp	786	1	BMVZ	786	1	blank2r.bmp	866	6	hindern	866	1	!	1239	1	!	-1	0	0	0	0	0	0	0	0	0	0	0	0	0	0	0	0	0	0	0	0	0	0	0	0	0	0	0
011619	13:43:06	13:52:39	571977	5.0.10.0	4_exp_EVA_AMP_AWA_CON	74	Rpleas_acq	Same	Rpleas	Bmasked	CS_B	2pleas	distractor2	EVAbeforeCON	acq_US_unple_masked	acq45_masked	5	8	400	0	300	300	0	0	479	46	0	1	0	0	0	1	blank2r.bmp	0	1	+	0	2	B2r.bmp	492	1	blank2r.bmp	786	1	BMVZ	786	1	blank2r.bmp	866	5	strafen	866	1	!	1239	1	!	-1	0	0	0	0	0	0	0	0	0	0	0	0	0	0	0	0	0	0	0	0	0	0	0	0	0	0	0
011619	13:43:06	13:52:43	575842	5.0.10.0	4_exp_EVA_AMP_AWA_CON	74	Rpleas_acq	Same	Rpleas	Bmasked	CS_B	2pleas	distractor2	EVAbeforeCON	acq_US_unple_masked	acq45_masked	5	9	400	0	300	300	0	0	2079	46	0	1	0	0	0	1	blank2r.bmp	0	1	+	0	4	B4r.bmp	492	1	blank2r.bmp	786	1	BMVZ	786	1	blank2r.bmp	866	4	tyrannisch	866	1	!	1239	1	!	-1	0	0	0	0	0	0	0	0	0	0	0	0	0	0	0	0	0	0	0	0	0	0	0	0	0	0	0
011619	13:43:06	13:52:45	578108	5.0.10.0	4_exp_EVA_AMP_AWA_CON	74	Rpleas_acq	Same	Rpleas	Bmasked	CS_B	2pleas	distractor2	EVAbeforeCON	acq_US_unple_masked	acq45_masked	5	10	400	0	300	300	0	0	482	50	0	0	0	0	0	1	blank2r.bmp	0	1	+	0	6	C2r.bmp	492	1	blank2r.bmp	786	1	BMVZ	786	1	blank2r.bmp	866	3	fanatisch	866	1	!	1239	1	!	-1	0	0	0	0	0	0	0	0	0	0	0	0	0	0	0	0	0	0	0	0	0	0	0	0	0	0	0
011619	13:43:06	13:52:47	580307	5.0.10.0	4_exp_EVA_AMP_AWA_CON	74	Rpleas_acq	Same	Rpleas	Bmasked	CS_B	2pleas	distractor2	EVAbeforeCON	acq_US_pleas_masked	acq45_masked	5	11	400	1	300	300	0	0	398	50	0	1	0	0	0	1	blank2r.bmp	0	1	+	0	3	B3r.bmp	492	1	blank2r.bmp	786	1	GKQX	786	1	blank2r.bmp	866	2	retten	866	1	!	1239	1	!	1292	0	0	0	0	0	0	0	0	0	0	0	0	0	0	0	0	0	0	0	0	0	0	0	0	0	0	0
011619	13:43:06	13:52:50	582572	5.0.10.0	4_exp_EVA_AMP_AWA_CON	74	Rpleas_acq	Same	Rpleas	Bmasked	CS_B	2pleas	distractor2	EVAbeforeCON	acq_US_unple_masked	acq45_masked	5	12	400	0	300	300	0	0	505	46	0	1	0	0	0	1	blank2r.bmp	0	1	+	0	2	B2r.bmp	492	1	blank2r.bmp	786	1	BMVZ	786	1	blank2r.bmp	866	1	faul	866	1	!	1239	1	!	-1	0	0	0	0	0	0	0	0	0	0	0	0	0	0	0	0	0	0	0	0	0	0	0	0	0	0	0
011619	13:43:06	13:52:52	584772	5.0.10.0	4_exp_EVA_AMP_AWA_CON	74	Rpleas_acq	Same	Rpleas	Bmasked	CS_B	2pleas	distractor2	EVAbeforeCON	acq_US_pleas_masked	acq45_masked	5	13	400	1	300	300	0	0	397	50	0	1	0	0	0	1	blank2r.bmp	0	1	+	0	7	C3r.bmp	492	1	blank2r.bmp	786	1	GKQX	786	1	blank2r.bmp	866	1	fair	866	1	!	1239	1	!	1292	0	0	0	0	0	0	0	0	0	0	0	0	0	0	0	0	0	0	0	0	0	0	0	0	0	0	0
011619	13:43:06	13:52:54	587024	5.0.10.0	4_exp_EVA_AMP_AWA_CON	74	Rpleas_acq	Same	Rpleas	Bmasked	CS_B	2pleas	distractor2	EVAbeforeCON	acq_US_pleas_masked	acq45_masked	5	14	400	0	300	300	0	0	479	50	0	1	0	0	0	1	blank2r.bmp	0	1	+	0	8	C4r.bmp	492	1	blank2r.bmp	786	1	GKQX	786	1	blank2r.bmp	866	5	spielen	866	1	!	1239	1	!	-1	0	0	0	0	0	0	0	0	0	0	0	0	0	0	0	0	0	0	0	0	0	0	0	0	0	0	0
011619	13:43:06	13:52:56	589343	5.0.10.0	4_exp_EVA_AMP_AWA_CON	74	Rpleas_acq	Same	Rpleas	Bmasked	CS_B	2pleas	distractor2	EVAbeforeCON	acq_US_pleas_masked	acq45_masked	5	15	400	0	300	300	0	0	521	50	0	1	0	0	0	1	blank2r.bmp	0	1	+	0	1	B1r.bmp	492	1	blank2r.bmp	786	1	GKQX	786	1	blank2r.bmp	866	6	helfen	866	1	!	1239	1	!	-1	0	0	0	0	0	0	0	0	0	0	0	0	0	0	0	0	0	0	0	0	0	0	0	0	0	0	0
011619	13:43:06	13:52:59	591889	5.0.10.0	4_exp_EVA_AMP_AWA_CON	74	Rpleas_acq	Same	Rpleas	Bmasked	CS_B	2pleas	distractor2	EVAbeforeCON	acq_US_unple_masked	acq45_masked	5	16	400	0	300	300	0	0	770	46	0	1	0	0	0	1	blank2r.bmp	0	1	+	0	5	C1r.bmp	492	1	blank2r.bmp	786	1	BMVZ	786	1	blank2r.bmp	866	4	tyrannisch	866	1	!	1239	1	!	-1	0	0	0	0	0	0	0	0	0	0	0	0	0	0	0	0	0	0	0	0	0	0	0	0	0	0	0
011619	13:43:06	13:53:01	594448	5.0.10.0	4_exp_EVA_AMP_AWA_CON	74	Rpleas_acq	Same	Rpleas	Bmasked	CS_B	2pleas	distractor2	EVAbeforeCON	acq_US_unple_masked	acq45_masked	5	17	400	0	300	300	0	0	772	46	0	1	0	0	0	1	blank2r.bmp	0	1	+	0	5	C1r.bmp	492	1	blank2r.bmp	786	1	BMVZ	786	1	blank2r.bmp	866	3	fanatisch	866	1	!	1239	1	!	-1	0	0	0	0	0	0	0	0	0	0	0	0	0	0	0	0	0	0	0	0	0	0	0	0	0	0	0
011619	13:43:06	13:53:04	596727	5.0.10.0	4_exp_EVA_AMP_AWA_CON	74	Rpleas_acq	Same	Rpleas	Bmasked	CS_B	2pleas	distractor2	EVAbeforeCON	acq_US_unple_masked	acq45_masked	5	18	400	0	300	300	0	0	500	46	0	1	0	0	0	1	blank2r.bmp	0	1	+	0	6	C2r.bmp	492	1	blank2r.bmp	786	1	BMVZ	786	1	blank2r.bmp	866	1	faul	866	1	!	1239	1	!	-1	0	0	0	0	0	0	0	0	0	0	0	0	0	0	0	0	0	0	0	0	0	0	0	0	0	0	0
011619	13:43:06	13:53:06	598979	5.0.10.0	4_exp_EVA_AMP_AWA_CON	74	Rpleas_acq	Same	Rpleas	Bmasked	CS_B	2pleas	distractor2	EVAbeforeCON	acq_US_pleas_masked	acq45_masked	5	19	400	1	300	300	0	0	434	50	0	1	0	0	0	1	blank2r.bmp	0	1	+	0	8	C4r.bmp	492	1	blank2r.bmp	786	1	GKQX	786	1	blank2r.bmp	866	4	tolerant	866	1	!	1239	1	!	1332	0	0	0	0	0	0	0	0	0	0	0	0	0	0	0	0	0	0	0	0	0	0	0	0	0	0	0
011619	13:43:06	13:53:08	601218	5.0.10.0	4_exp_EVA_AMP_AWA_CON	74	Rpleas_acq	Same	Rpleas	Bmasked	CS_B	2pleas	distractor2	EVAbeforeCON	acq_US_pleas_masked	acq45_masked	5	20	400	1	300	300	0	0	445	50	0	1	0	0	0	1	blank2r.bmp	0	1	+	0	1	B1r.bmp	492	1	blank2r.bmp	786	1	GKQX	786	1	blank2r.bmp	866	3	freundlich	866	1	!	1239	1	!	1346	0	0	0	0	0	0	0	0	0	0	0	0	0	0	0	0	0	0	0	0	0	0	0	0	0	0	0
011619	13:43:06	13:53:11	603484	5.0.10.0	4_exp_EVA_AMP_AWA_CON	74	Rpleas_acq	Same	Rpleas	Bmasked	CS_B	2pleas	distractor2	EVAbeforeCON	acq_US_unple_masked	acq45_masked	5	21	400	1	300	300	0	0	455	46	0	1	0	0	0	1	blank2r.bmp	0	1	+	0	7	C3r.bmp	492	1	blank2r.bmp	786	1	BMVZ	786	1	blank2r.bmp	866	5	strafen	866	1	!	1239	1	!	1359	0	0	0	0	0	0	0	0	0	0	0	0	0	0	0	0	0	0	0	0	0	0	0	0	0	0	0
011619	13:43:06	13:53:13	605883	5.0.10.0	4_exp_EVA_AMP_AWA_CON	74	Rpleas_acq	Same	Rpleas	Bmasked	CS_B	2pleas	distractor2	EVAbeforeCON	acq_US_unple_masked	acq45_masked	5	22	400	0	300	300	0	0	634	46	0	1	0	0	0	1	blank2r.bmp	0	1	+	0	4	B4r.bmp	492	1	blank2r.bmp	786	1	BMVZ	786	1	blank2r.bmp	866	6	hindern	866	1	!	1239	1	!	-1	0	0	0	0	0	0	0	0	0	0	0	0	0	0	0	0	0	0	0	0	0	0	0	0	0	0	0
011619	13:43:06	13:53:15	608149	5.0.10.0	4_exp_EVA_AMP_AWA_CON	74	Rpleas_acq	Same	Rpleas	Bmasked	CS_B	2pleas	distractor2	EVAbeforeCON	acq_US_unple_masked	acq45_masked	5	23	400	0	300	300	0	0	479	46	0	1	0	0	0	1	blank2r.bmp	0	1	+	0	3	B3r.bmp	492	1	blank2r.bmp	786	1	BMVZ	786	1	blank2r.bmp	866	2	rächen	866	1	!	1239	1	!	-1	0	0	0	0	0	0	0	0	0	0	0	0	0	0	0	0	0	0	0	0	0	0	0	0	0	0	0
011619	13:43:06	13:53:18	610468	5.0.10.0	4_exp_EVA_AMP_AWA_CON	74	Rpleas_acq	Same	Rpleas	Bmasked	CS_B	2pleas	distractor2	EVAbeforeCON	acq_US_unple_masked	acq45_masked	5	24	400	0	300	300	0	0	519	46	0	1	0	0	0	1	blank2r.bmp	0	1	+	0	2	B2r.bmp	492	1	blank2r.bmp	786	1	BMVZ	786	1	blank2r.bmp	866	2	rächen	866	1	!	1239	1	!	-1	0	0	0	0	0	0	0	0	0	0	0	0	0	0	0	0	0	0	0	0	0	0	0	0	0	0	0
011619	13:43:06	13:53:20	612627	5.0.10.0	4_exp_EVA_AMP_AWA_CON	74	Rpleas_acq	Same	Rpleas	Bmasked	CS_B	2pleas	distractor2	EVAbeforeCON	acq_US_pleas_masked	acq45_masked	5	25	400	1	300	300	0	0	346	46	0	0	0	0	0	1	blank2r.bmp	0	1	+	0	7	C3r.bmp	492	1	blank2r.bmp	786	1	GKQX	786	1	blank2r.bmp	866	2	retten	866	1	!	1239	1	!	1252	0	0	0	0	0	0	0	0	0	0	0	0	0	0	0	0	0	0	0	0	0	0	0	0	0	0	0
011619	13:43:06	13:53:24	616665	5.0.10.0	4_exp_EVA_AMP_AWA_CON	74	Rpleas_acq	Same	Rpleas	Bmasked	CS_B	2pleas	distractor2	EVAbeforeCON	acq_US_unple_masked	acq45_masked	5	26	400	0	300	300	0	0	2266	46	0	1	0	0	0	1	blank2r.bmp	0	1	+	0	1	B1r.bmp	492	1	blank2r.bmp	786	1	BMVZ	786	1	blank2r.bmp	866	3	fanatisch	866	1	!	1239	1	!	-1	0	0	0	0	0	0	0	0	0	0	0	0	0	0	0	0	0	0	0	0	0	0	0	0	0	0	0
011619	13:43:06	13:53:26	619077	5.0.10.0	4_exp_EVA_AMP_AWA_CON	74	Rpleas_acq	Same	Rpleas	Bmasked	CS_B	2pleas	distractor2	EVAbeforeCON	acq_US_pleas_masked	acq45_masked	5	27	400	0	300	300	0	0	621	50	0	1	0	0	0	1	blank2r.bmp	0	1	+	0	2	B2r.bmp	492	1	blank2r.bmp	786	1	GKQX	786	1	blank2r.bmp	866	5	spielen	866	1	!	1239	1	!	-1	0	0	0	0	0	0	0	0	0	0	0	0	0	0	0	0	0	0	0	0	0	0	0	0	0	0	0
011619	13:43:06	13:53:29	621596	5.0.10.0	4_exp_EVA_AMP_AWA_CON	74	Rpleas_acq	Same	Rpleas	Bmasked	CS_B	2pleas	distractor2	EVAbeforeCON	acq_US_unple_masked	acq45_masked	5	28	400	0	300	300	0	0	738	46	0	1	0	0	0	1	blank2r.bmp	0	1	+	0	5	C1r.bmp	492	1	blank2r.bmp	786	1	BMVZ	786	1	blank2r.bmp	866	4	tyrannisch	866	1	!	1239	1	!	-1	0	0	0	0	0	0	0	0	0	0	0	0	0	0	0	0	0	0	0	0	0	0	0	0	0	0	0
011619	13:43:06	13:53:31	623862	5.0.10.0	4_exp_EVA_AMP_AWA_CON	74	Rpleas_acq	Same	Rpleas	Bmasked	CS_B	2pleas	distractor2	EVAbeforeCON	acq_US_pleas_masked	acq45_masked	5	29	400	1	300	300	0	0	464	50	0	1	0	0	0	1	blank2r.bmp	0	1	+	0	4	B4r.bmp	492	1	blank2r.bmp	786	1	GKQX	786	1	blank2r.bmp	866	6	helfen	866	1	!	1239	1	!	1359	0	0	0	0	0	0	0	0	0	0	0	0	0	0	0	0	0	0	0	0	0	0	0	0	0	0	0
011619	13:43:06	13:53:33	626035	5.0.10.0	4_exp_EVA_AMP_AWA_CON	74	Rpleas_acq	Same	Rpleas	Bmasked	CS_B	2pleas	distractor2	EVAbeforeCON	acq_US_unple_masked	acq45_masked	5	30	400	1	300	300	0	0	374	46	0	1	0	0	0	1	blank2r.bmp	0	1	+	0	6	C2r.bmp	492	1	blank2r.bmp	786	1	BMVZ	786	1	blank2r.bmp	866	6	hindern	866	1	!	1239	1	!	1279	0	0	0	0	0	0	0	0	0	0	0	0	0	0	0	0	0	0	0	0	0	0	0	0	0	0	0
011619	13:43:06	13:53:35	628287	5.0.10.0	4_exp_EVA_AMP_AWA_CON	74	Rpleas_acq	Same	Rpleas	Bmasked	CS_B	2pleas	distractor2	EVAbeforeCON	acq_US_pleas_masked	acq45_masked	5	31	400	1	300	300	0	0	453	50	0	1	0	0	0	1	blank2r.bmp	0	1	+	0	8	C4r.bmp	492	1	blank2r.bmp	786	1	GKQX	786	1	blank2r.bmp	866	3	freundlich	866	1	!	1239	1	!	1359	0	0	0	0	0	0	0	0	0	0	0	0	0	0	0	0	0	0	0	0	0	0	0	0	0	0	0
011619	13:43:06	13:53:38	630539	5.0.10.0	4_exp_EVA_AMP_AWA_CON	74	Rpleas_acq	Same	Rpleas	Bmasked	CS_B	2pleas	distractor2	EVAbeforeCON	acq_US_unple_masked	acq45_masked	5	32	400	0	300	300	0	0	479	46	0	1	0	0	0	1	blank2r.bmp	0	1	+	0	3	B3r.bmp	492	1	blank2r.bmp	786	1	BMVZ	786	1	blank2r.bmp	866	1	faul	866	1	!	1239	1	!	-1	0	0	0	0	0	0	0	0	0	0	0	0	0	0	0	0	0	0	0	0	0	0	0	0	0	0	0
011619	13:43:06	13:53:40	632765	5.0.10.0	4_exp_EVA_AMP_AWA_CON	74	Rpleas_acq	Same	Rpleas	Bmasked	CS_B	2pleas	distractor2	EVAbeforeCON	acq_US_pleas_masked	acq45_masked	5	33	400	1	300	300	0	0	413	50	0	1	0	0	0	1	blank2r.bmp	0	1	+	0	1	B1r.bmp	492	1	blank2r.bmp	786	1	GKQX	786	1	blank2r.bmp	866	4	tolerant	866	1	!	1239	1	!	1319	0	0	0	0	0	0	0	0	0	0	0	0	0	0	0	0	0	0	0	0	0	0	0	0	0	0	0
011619	13:43:06	13:53:42	635057	5.0.10.0	4_exp_EVA_AMP_AWA_CON	74	Rpleas_acq	Same	Rpleas	Bmasked	CS_B	2pleas	distractor2	EVAbeforeCON	acq_US_pleas_masked	acq45_masked	5	34	400	0	300	300	0	0	531	50	0	1	0	0	0	1	blank2r.bmp	0	1	+	0	5	C1r.bmp	492	1	blank2r.bmp	786	1	GKQX	786	1	blank2r.bmp	866	2	retten	866	1	!	1239	1	!	-1	0	0	0	0	0	0	0	0	0	0	0	0	0	0	0	0	0	0	0	0	0	0	0	0	0	0	0
011619	13:43:06	13:53:44	637283	5.0.10.0	4_exp_EVA_AMP_AWA_CON	74	Rpleas_acq	Same	Rpleas	Bmasked	CS_B	2pleas	distractor2	EVAbeforeCON	acq_US_pleas_masked	acq45_masked	5	35	400	1	300	300	0	0	404	46	0	0	0	0	0	1	blank2r.bmp	0	1	+	0	8	C4r.bmp	492	1	blank2r.bmp	786	1	GKQX	786	1	blank2r.bmp	866	1	fair	866	1	!	1239	1	!	1306	0	0	0	0	0	0	0	0	0	0	0	0	0	0	0	0	0	0	0	0	0	0	0	0	0	0	0
011619	13:43:06	13:53:47	639509	5.0.10.0	4_exp_EVA_AMP_AWA_CON	74	Rpleas_acq	Same	Rpleas	Bmasked	CS_B	2pleas	distractor2	EVAbeforeCON	acq_US_unple_masked	acq45_masked	5	36	400	1	300	300	0	0	434	46	0	1	0	0	0	1	blank2r.bmp	0	1	+	0	2	B2r.bmp	492	1	blank2r.bmp	786	1	BMVZ	786	1	blank2r.bmp	866	5	strafen	866	1	!	1239	1	!	1332	0	0	0	0	0	0	0	0	0	0	0	0	0	0	0	0	0	0	0	0	0	0	0	0	0	0	0
011619	13:43:06	13:54:27	679613	5.0.10.0	4_exp_EVA_AMP_AWA_CON	74	Rpleas_acq	Same	Rpleas	Bmasked	CS_B	2pleas	distractor2	EVAbeforeCON	EvalRating_firsttwo	EvalRating_firsttwo	6	1	0	0	300	300	0	0	15827	line	-54,6874999999999928946	0	0	0	0	1	eraser	0	1	Wie angenehm oder unangenehm finden Sie die  Buchstabenkette WFPH?	0	1	leftborder	0	1	rightborder	0	1	line	0	1	Unangenehm	0	1	Angenehm	0	0	0	0	0	0	0	0	0	0	0	0	0	0	0	0	0	0	0	0	0	0	0	0	0	0	0	0	0	0	0	0	0	0
011619	13:43:06	13:54:33	686223	5.0.10.0	4_exp_EVA_AMP_AWA_CON	74	Rpleas_acq	Same	Rpleas	Bmasked	CS_B	2pleas	distractor2	EVAbeforeCON	EvalRating_lastfour	EvalRating_lastfour	7	1	0	0	300	300	0	0	4160	line	-37,3535156249999928946	0	0	0	0	1	eraser	0	1	Wie angenehm oder unangenehm finden Sie die  Buchstabenkette BMVZ?	0	1	leftborder	0	1	rightborder	0	1	line	0	1	Unangenehm	0	1	Angenehm	0	0	0	0	0	0	0	0	0	0	0	0	0	0	0	0	0	0	0	0	0	0	0	0	0	0	0	0	0	0	0	0	0	0
011619	13:43:06	13:54:36	688609	5.0.10.0	4_exp_EVA_AMP_AWA_CON	74	Rpleas_acq	Same	Rpleas	Bmasked	CS_B	2pleas	distractor2	EVAbeforeCON	blank_screen	EvalRating_lastfour	7	3	0	0	300	300	0	0	0	0	-37,3535156249999928946	0	0	0	0	1	eraser	0	0	0	0	0	0	0	0	0	0	0	0	0	0	0	0	0	0	0	0	0	0	0	0	0	0	0	0	0	0	0	0	0	0	0	0	0	0	0	0	0	0	0	0	0	0	0	0	0	0	0	0
011619	13:43:06	13:54:40	693220	5.0.10.0	4_exp_EVA_AMP_AWA_CON	74	Rpleas_acq	Same	Rpleas	Bmasked	CS_B	2pleas	distractor2	EVAbeforeCON	EvalRating_lastfour	EvalRating_lastfour	7	4	0	0	300	300	0	0	4018	line	-6,591796875	0	0	0	0	1	eraser	1	3	Wie angenehm oder unangenehm finden Sie die  Buchstabenkette JCRD?	1	1	leftborder	1	1	rightborder	1	1	line	1	1	Unangenehm	1	1	Angenehm	1	0	0	0	0	0	0	0	0	0	0	0	0	0	0	0	0	0	0	0	0	0	0	0	0	0	0	0	0	0	0	0	0	0
011619	13:43:06	13:54:43	695619	5.0.10.0	4_exp_EVA_AMP_AWA_CON	74	Rpleas_acq	Same	Rpleas	Bmasked	CS_B	2pleas	distractor2	EVAbeforeCON	blank_screen	EvalRating_lastfour	7	6	0	0	300	300	0	0	0	0	-6,591796875	0	0	0	0	1	eraser	0	0	0	0	0	0	0	0	0	0	0	0	0	0	0	0	0	0	0	0	0	0	0	0	0	0	0	0	0	0	0	0	0	0	0	0	0	0	0	0	0	0	0	0	0	0	0	0	0	0	0	0
011619	13:43:06	13:54:44	697339	5.0.10.0	4_exp_EVA_AMP_AWA_CON	74	Rpleas_acq	Same	Rpleas	Bmasked	CS_B	2pleas	distractor2	EVAbeforeCON	EvalRating_lastfour	EvalRating_lastfour	7	7	0	0	300	300	0	0	1133	line	-6,591796875	0	0	0	0	1	eraser	0	2	Wie angenehm oder unangenehm finden Sie die  Buchstabenkette GKQX?	0	1	leftborder	0	1	rightborder	0	1	line	0	1	Unangenehm	0	1	Angenehm	0	0	0	0	0	0	0	0	0	0	0	0	0	0	0	0	0	0	0	0	0	0	0	0	0	0	0	0	0	0	0	0	0	0
011619	13:43:06	13:55:29	742213	5.0.10.0	4_exp_EVA_AMP_AWA_CON	74	Rpleas_acq	Same	Rpleas	Bmasked	CS_B	2pleas	distractor2	EVAbeforeCON	AMP_CSunple	AMP1_masked	8	1	0	0	300	300	0	0	4236	46	-6,591796875	1	0	0	0	1	blank2r.bmp	0	1	BMVZ	0	1	blank2r.bmp	79	115	pic115.bmp	199	1	whitenoise_No3.bmp	306	0	0	0	0	0	0	0	0	0	0	0	0	0	0	0	0	0	0	0	0	0	0	0	0	0	0	0	0	0	0	0	0	0	0	0	0	0	0	0
011619	13:43:06	13:55:32	744466	5.0.10.0	4_exp_EVA_AMP_AWA_CON	74	Rpleas_acq	Same	Rpleas	Bmasked	CS_B	2pleas	distractor2	EVAbeforeCON	AMP_CSunple	AMP1_masked	8	2	0	0	300	300	0	0	1311	46	-6,591796875	1	0	0	0	1	blank2r.bmp	0	1	BMVZ	0	1	blank2r.bmp	79	101	pic101.bmp	199	1	whitenoise_No3.bmp	306	0	0	0	0	0	0	0	0	0	0	0	0	0	0	0	0	0	0	0	0	0	0	0	0	0	0	0	0	0	0	0	0	0	0	0	0	0	0	0
011619	13:43:06	13:55:34	746518	5.0.10.0	4_exp_EVA_AMP_AWA_CON	74	Rpleas_acq	Same	Rpleas	Bmasked	CS_B	2pleas	distractor2	EVAbeforeCON	AMP_CSpleas	AMP1_masked	8	3	0	0	300	300	0	0	1124	46	-6,591796875	0	0	0	0	1	blank2r.bmp	0	1	GKQX	0	1	blank2r.bmp	79	135	pic135.bmp	199	1	whitenoise_No3.bmp	306	0	0	0	0	0	0	0	0	0	0	0	0	0	0	0	0	0	0	0	0	0	0	0	0	0	0	0	0	0	0	0	0	0	0	0	0	0	0	0
011619	13:43:06	13:55:35	748184	5.0.10.0	4_exp_EVA_AMP_AWA_CON	74	Rpleas_acq	Same	Rpleas	Bmasked	CS_B	2pleas	distractor2	EVAbeforeCON	AMP_CSpleas	AMP1_masked	8	4	0	0	300	300	0	0	756	46	-6,591796875	0	0	0	0	1	blank2r.bmp	0	1	GKQX	0	1	blank2r.bmp	79	56	pic56.bmp	199	1	whitenoise_No3.bmp	306	0	0	0	0	0	0	0	0	0	0	0	0	0	0	0	0	0	0	0	0	0	0	0	0	0	0	0	0	0	0	0	0	0	0	0	0	0	0	0
011619	13:43:06	13:55:37	749823	5.0.10.0	4_exp_EVA_AMP_AWA_CON	74	Rpleas_acq	Same	Rpleas	Bmasked	CS_B	2pleas	distractor2	EVAbeforeCON	AMP_distractor	AMP1_masked	8	5	0	0	300	300	0	0	715	50	-6,591796875	0	0	0	0	1	blank2r.bmp	0	1	JCRD	0	1	blank2r.bmp	79	11	pic11.bmp	199	1	whitenoise_No3.bmp	306	0	0	0	0	0	0	0	0	0	0	0	0	0	0	0	0	0	0	0	0	0	0	0	0	0	0	0	0	0	0	0	0	0	0	0	0	0	0	0
011619	13:43:06	13:55:38	751236	5.0.10.0	4_exp_EVA_AMP_AWA_CON	74	Rpleas_acq	Same	Rpleas	Bmasked	CS_B	2pleas	distractor2	EVAbeforeCON	AMP_CSunple	AMP1_masked	8	6	0	0	300	300	0	0	486	50	-6,591796875	0	0	0	0	1	blank2r.bmp	0	1	BMVZ	0	1	blank2r.bmp	79	142	pic142.bmp	199	1	whitenoise_No3.bmp	306	0	0	0	0	0	0	0	0	0	0	0	0	0	0	0	0	0	0	0	0	0	0	0	0	0	0	0	0	0	0	0	0	0	0	0	0	0	0	0
011619	13:43:06	13:55:40	752769	5.0.10.0	4_exp_EVA_AMP_AWA_CON	74	Rpleas_acq	Same	Rpleas	Bmasked	CS_B	2pleas	distractor2	EVAbeforeCON	AMP_CSunple	AMP1_masked	8	7	0	0	300	300	0	0	600	50	-6,591796875	0	0	0	0	1	blank2r.bmp	0	1	BMVZ	0	1	blank2r.bmp	79	51	pic51.bmp	199	1	whitenoise_No3.bmp	306	0	0	0	0	0	0	0	0	0	0	0	0	0	0	0	0	0	0	0	0	0	0	0	0	0	0	0	0	0	0	0	0	0	0	0	0	0	0	0
011619	13:43:06	13:55:41	754222	5.0.10.0	4_exp_EVA_AMP_AWA_CON	74	Rpleas_acq	Same	Rpleas	Bmasked	CS_B	2pleas	distractor2	EVAbeforeCON	AMP_CSpleas	AMP1_masked	8	8	0	0	300	300	0	0	521	46	-6,591796875	0	0	0	0	1	blank2r.bmp	0	1	GKQX	0	1	blank2r.bmp	79	82	pic82.bmp	199	1	whitenoise_No3.bmp	306	0	0	0	0	0	0	0	0	0	0	0	0	0	0	0	0	0	0	0	0	0	0	0	0	0	0	0	0	0	0	0	0	0	0	0	0	0	0	0
011619	13:43:06	13:55:43	755781	5.0.10.0	4_exp_EVA_AMP_AWA_CON	74	Rpleas_acq	Same	Rpleas	Bmasked	CS_B	2pleas	distractor2	EVAbeforeCON	AMP_distractor	AMP1_masked	8	9	0	0	300	300	0	0	629	50	-6,591796875	0	0	0	0	1	blank2r.bmp	0	1	JCRD	0	1	blank2r.bmp	79	6	pic6.bmp	199	1	whitenoise_No3.bmp	306	0	0	0	0	0	0	0	0	0	0	0	0	0	0	0	0	0	0	0	0	0	0	0	0	0	0	0	0	0	0	0	0	0	0	0	0	0	0	0
011619	13:43:06	13:55:44	757127	5.0.10.0	4_exp_EVA_AMP_AWA_CON	74	Rpleas_acq	Same	Rpleas	Bmasked	CS_B	2pleas	distractor2	EVAbeforeCON	AMP_CSunple	AMP1_masked	8	10	0	0	300	300	0	0	423	50	-6,591796875	0	0	0	0	1	blank2r.bmp	0	1	BMVZ	0	1	blank2r.bmp	79	7	pic7.bmp	199	1	whitenoise_No3.bmp	306	0	0	0	0	0	0	0	0	0	0	0	0	0	0	0	0	0	0	0	0	0	0	0	0	0	0	0	0	0	0	0	0	0	0	0	0	0	0	0
011619	13:43:06	13:55:45	758433	5.0.10.0	4_exp_EVA_AMP_AWA_CON	74	Rpleas_acq	Same	Rpleas	Bmasked	CS_B	2pleas	distractor2	EVAbeforeCON	AMP_distractor	AMP1_masked	8	11	0	0	300	300	0	0	393	50	-6,591796875	0	0	0	0	1	blank2r.bmp	0	1	JCRD	0	1	blank2r.bmp	79	113	pic113.bmp	199	1	whitenoise_No3.bmp	306	0	0	0	0	0	0	0	0	0	0	0	0	0	0	0	0	0	0	0	0	0	0	0	0	0	0	0	0	0	0	0	0	0	0	0	0	0	0	0
011619	13:43:06	13:55:47	759726	5.0.10.0	4_exp_EVA_AMP_AWA_CON	74	Rpleas_acq	Same	Rpleas	Bmasked	CS_B	2pleas	distractor2	EVAbeforeCON	AMP_CSunple	AMP1_masked	8	12	0	0	300	300	0	0	366	50	-6,591796875	0	0	0	0	1	blank2r.bmp	0	1	BMVZ	0	1	blank2r.bmp	79	8	pic8.bmp	199	1	whitenoise_No3.bmp	306	0	0	0	0	0	0	0	0	0	0	0	0	0	0	0	0	0	0	0	0	0	0	0	0	0	0	0	0	0	0	0	0	0	0	0	0	0	0	0
011619	13:43:06	13:55:48	761059	5.0.10.0	4_exp_EVA_AMP_AWA_CON	74	Rpleas_acq	Same	Rpleas	Bmasked	CS_B	2pleas	distractor2	EVAbeforeCON	AMP_distractor	AMP1_masked	8	13	0	0	300	300	0	0	403	50	-6,591796875	0	0	0	0	1	blank2r.bmp	0	1	JCRD	0	1	blank2r.bmp	79	126	pic126.bmp	199	1	whitenoise_No3.bmp	306	0	0	0	0	0	0	0	0	0	0	0	0	0	0	0	0	0	0	0	0	0	0	0	0	0	0	0	0	0	0	0	0	0	0	0	0	0	0	0
011619	13:43:06	13:55:50	762525	5.0.10.0	4_exp_EVA_AMP_AWA_CON	74	Rpleas_acq	Same	Rpleas	Bmasked	CS_B	2pleas	distractor2	EVAbeforeCON	AMP_distractor	AMP1_masked	8	14	0	0	300	300	0	0	553	50	-6,591796875	0	0	0	0	1	blank2r.bmp	0	1	JCRD	0	1	blank2r.bmp	79	46	pic46.bmp	199	1	whitenoise_No3.bmp	306	0	0	0	0	0	0	0	0	0	0	0	0	0	0	0	0	0	0	0	0	0	0	0	0	0	0	0	0	0	0	0	0	0	0	0	0	0	0	0
011619	13:43:06	13:55:51	763924	5.0.10.0	4_exp_EVA_AMP_AWA_CON	74	Rpleas_acq	Same	Rpleas	Bmasked	CS_B	2pleas	distractor2	EVAbeforeCON	AMP_distractor	AMP1_masked	8	15	0	0	300	300	0	0	490	50	-6,591796875	0	0	0	0	1	blank2r.bmp	0	1	JCRD	0	1	blank2r.bmp	79	62	pic62.bmp	199	1	whitenoise_No3.bmp	306	0	0	0	0	0	0	0	0	0	0	0	0	0	0	0	0	0	0	0	0	0	0	0	0	0	0	0	0	0	0	0	0	0	0	0	0	0	0	0
011619	13:43:06	13:55:52	765284	5.0.10.0	4_exp_EVA_AMP_AWA_CON	74	Rpleas_acq	Same	Rpleas	Bmasked	CS_B	2pleas	distractor2	EVAbeforeCON	AMP_distractor	AMP1_masked	8	16	0	0	300	300	0	0	432	50	-6,591796875	0	0	0	0	1	blank2r.bmp	0	1	JCRD	0	1	blank2r.bmp	79	151	pic151.bmp	199	1	whitenoise_No3.bmp	306	0	0	0	0	0	0	0	0	0	0	0	0	0	0	0	0	0	0	0	0	0	0	0	0	0	0	0	0	0	0	0	0	0	0	0	0	0	0	0
011619	13:43:06	13:55:54	766630	5.0.10.0	4_exp_EVA_AMP_AWA_CON	74	Rpleas_acq	Same	Rpleas	Bmasked	CS_B	2pleas	distractor2	EVAbeforeCON	AMP_CSunple	AMP1_masked	8	17	0	0	300	300	0	0	422	46	-6,591796875	1	0	0	0	1	blank2r.bmp	0	1	BMVZ	0	1	blank2r.bmp	79	81	pic81.bmp	199	1	whitenoise_No3.bmp	306	0	0	0	0	0	0	0	0	0	0	0	0	0	0	0	0	0	0	0	0	0	0	0	0	0	0	0	0	0	0	0	0	0	0	0	0	0	0	0
011619	13:43:06	13:55:56	768709	5.0.10.0	4_exp_EVA_AMP_AWA_CON	74	Rpleas_acq	Same	Rpleas	Bmasked	CS_B	2pleas	distractor2	EVAbeforeCON	AMP_CSunple	AMP1_masked	8	18	0	0	300	300	0	0	1150	46	-6,591796875	1	0	0	0	1	blank2r.bmp	0	1	BMVZ	0	1	blank2r.bmp	79	21	pic21.bmp	199	1	whitenoise_No3.bmp	306	0	0	0	0	0	0	0	0	0	0	0	0	0	0	0	0	0	0	0	0	0	0	0	0	0	0	0	0	0	0	0	0	0	0	0	0	0	0	0
011619	13:43:06	13:55:57	770122	5.0.10.0	4_exp_EVA_AMP_AWA_CON	74	Rpleas_acq	Same	Rpleas	Bmasked	CS_B	2pleas	distractor2	EVAbeforeCON	AMP_CSunple	AMP1_masked	8	19	0	0	300	300	0	0	485	46	-6,591796875	1	0	0	0	1	blank2r.bmp	0	1	BMVZ	0	1	blank2r.bmp	79	111	pic111.bmp	199	1	whitenoise_No3.bmp	306	0	0	0	0	0	0	0	0	0	0	0	0	0	0	0	0	0	0	0	0	0	0	0	0	0	0	0	0	0	0	0	0	0	0	0	0	0	0	0
011619	13:43:06	13:55:59	771641	5.0.10.0	4_exp_EVA_AMP_AWA_CON	74	Rpleas_acq	Same	Rpleas	Bmasked	CS_B	2pleas	distractor2	EVAbeforeCON	AMP_CSunple	AMP1_masked	8	20	0	0	300	300	0	0	601	46	-6,591796875	1	0	0	0	1	blank2r.bmp	0	1	BMVZ	0	1	blank2r.bmp	79	99	pic99.bmp	199	1	whitenoise_No3.bmp	306	0	0	0	0	0	0	0	0	0	0	0	0	0	0	0	0	0	0	0	0	0	0	0	0	0	0	0	0	0	0	0	0	0	0	0	0	0	0	0
011619	13:43:06	13:56:00	772934	5.0.10.0	4_exp_EVA_AMP_AWA_CON	74	Rpleas_acq	Same	Rpleas	Bmasked	CS_B	2pleas	distractor2	EVAbeforeCON	AMP_distractor	AMP1_masked	8	21	0	0	300	300	0	0	380	50	-6,591796875	0	0	0	0	1	blank2r.bmp	0	1	JCRD	0	1	blank2r.bmp	79	38	pic38.bmp	199	1	whitenoise_No3.bmp	306	0	0	0	0	0	0	0	0	0	0	0	0	0	0	0	0	0	0	0	0	0	0	0	0	0	0	0	0	0	0	0	0	0	0	0	0	0	0	0
011619	13:43:06	13:56:02	774480	5.0.10.0	4_exp_EVA_AMP_AWA_CON	74	Rpleas_acq	Same	Rpleas	Bmasked	CS_B	2pleas	distractor2	EVAbeforeCON	AMP_CSpleas	AMP1_masked	8	22	0	0	300	300	0	0	623	46	-6,591796875	0	0	0	0	1	blank2r.bmp	0	1	GKQX	0	1	blank2r.bmp	79	106	pic106.bmp	199	1	whitenoise_No3.bmp	306	0	0	0	0	0	0	0	0	0	0	0	0	0	0	0	0	0	0	0	0	0	0	0	0	0	0	0	0	0	0	0	0	0	0	0	0	0	0	0
011619	13:43:06	13:56:03	775999	5.0.10.0	4_exp_EVA_AMP_AWA_CON	74	Rpleas_acq	Same	Rpleas	Bmasked	CS_B	2pleas	distractor2	EVAbeforeCON	AMP_CSpleas	AMP1_masked	8	23	0	0	300	300	0	0	589	46	-6,591796875	0	0	0	0	1	blank2r.bmp	0	1	GKQX	0	1	blank2r.bmp	79	60	pic60.bmp	199	1	whitenoise_No3.bmp	306	0	0	0	0	0	0	0	0	0	0	0	0	0	0	0	0	0	0	0	0	0	0	0	0	0	0	0	0	0	0	0	0	0	0	0	0	0	0	0
011619	13:43:06	13:56:05	777852	5.0.10.0	4_exp_EVA_AMP_AWA_CON	74	Rpleas_acq	Same	Rpleas	Bmasked	CS_B	2pleas	distractor2	EVAbeforeCON	AMP_CSpleas	AMP1_masked	8	24	0	0	300	300	0	0	928	46	-6,591796875	0	0	0	0	1	blank2r.bmp	0	1	GKQX	0	1	blank2r.bmp	79	146	pic146.bmp	199	1	whitenoise_No3.bmp	306	0	0	0	0	0	0	0	0	0	0	0	0	0	0	0	0	0	0	0	0	0	0	0	0	0	0	0	0	0	0	0	0	0	0	0	0	0	0	0
011619	13:43:06	13:56:06	779158	5.0.10.0	4_exp_EVA_AMP_AWA_CON	74	Rpleas_acq	Same	Rpleas	Bmasked	CS_B	2pleas	distractor2	EVAbeforeCON	AMP_CSpleas	AMP1_masked	8	25	0	0	300	300	0	0	372	46	-6,591796875	0	0	0	0	1	blank2r.bmp	0	1	GKQX	0	1	blank2r.bmp	79	120	pic120.bmp	199	1	whitenoise_No3.bmp	306	0	0	0	0	0	0	0	0	0	0	0	0	0	0	0	0	0	0	0	0	0	0	0	0	0	0	0	0	0	0	0	0	0	0	0	0	0	0	0
011619	13:43:06	13:56:08	780864	5.0.10.0	4_exp_EVA_AMP_AWA_CON	74	Rpleas_acq	Same	Rpleas	Bmasked	CS_B	2pleas	distractor2	EVAbeforeCON	AMP_distractor	AMP1_masked	8	26	0	0	300	300	0	0	788	46	-6,591796875	0	0	0	0	1	blank2r.bmp	0	1	JCRD	0	1	blank2r.bmp	79	138	pic138.bmp	199	1	whitenoise_No3.bmp	306	0	0	0	0	0	0	0	0	0	0	0	0	0	0	0	0	0	0	0	0	0	0	0	0	0	0	0	0	0	0	0	0	0	0	0	0	0	0	0
011619	13:43:06	13:56:09	782170	5.0.10.0	4_exp_EVA_AMP_AWA_CON	74	Rpleas_acq	Same	Rpleas	Bmasked	CS_B	2pleas	distractor2	EVAbeforeCON	AMP_CSunple	AMP1_masked	8	27	0	0	300	300	0	0	376	50	-6,591796875	0	0	0	0	1	blank2r.bmp	0	1	BMVZ	0	1	blank2r.bmp	79	77	pic77.bmp	199	1	whitenoise_No3.bmp	306	0	0	0	0	0	0	0	0	0	0	0	0	0	0	0	0	0	0	0	0	0	0	0	0	0	0	0	0	0	0	0	0	0	0	0	0	0	0	0
011619	13:43:06	13:56:11	783476	5.0.10.0	4_exp_EVA_AMP_AWA_CON	74	Rpleas_acq	Same	Rpleas	Bmasked	CS_B	2pleas	distractor2	EVAbeforeCON	AMP_CSpleas	AMP1_masked	8	28	0	0	300	300	0	0	389	50	-6,591796875	1	0	0	0	1	blank2r.bmp	0	1	GKQX	0	1	blank2r.bmp	79	98	pic98.bmp	199	1	whitenoise_No3.bmp	306	0	0	0	0	0	0	0	0	0	0	0	0	0	0	0	0	0	0	0	0	0	0	0	0	0	0	0	0	0	0	0	0	0	0	0	0	0	0	0
011619	13:43:06	13:56:12	784849	5.0.10.0	4_exp_EVA_AMP_AWA_CON	74	Rpleas_acq	Same	Rpleas	Bmasked	CS_B	2pleas	distractor2	EVAbeforeCON	AMP_CSunple	AMP1_masked	8	29	0	0	300	300	0	0	459	50	-6,591796875	0	0	0	0	1	blank2r.bmp	0	1	BMVZ	0	1	blank2r.bmp	79	125	pic125.bmp	199	1	whitenoise_No3.bmp	306	0	0	0	0	0	0	0	0	0	0	0	0	0	0	0	0	0	0	0	0	0	0	0	0	0	0	0	0	0	0	0	0	0	0	0	0	0	0	0
011619	13:43:06	13:56:13	786155	5.0.10.0	4_exp_EVA_AMP_AWA_CON	74	Rpleas_acq	Same	Rpleas	Bmasked	CS_B	2pleas	distractor2	EVAbeforeCON	AMP_CSpleas	AMP1_masked	8	30	0	0	300	300	0	0	389	50	-6,591796875	1	0	0	0	1	blank2r.bmp	0	1	GKQX	0	1	blank2r.bmp	79	28	pic28.bmp	199	1	whitenoise_No3.bmp	306	0	0	0	0	0	0	0	0	0	0	0	0	0	0	0	0	0	0	0	0	0	0	0	0	0	0	0	0	0	0	0	0	0	0	0	0	0	0	0
011619	13:43:06	13:56:15	787475	5.0.10.0	4_exp_EVA_AMP_AWA_CON	74	Rpleas_acq	Same	Rpleas	Bmasked	CS_B	2pleas	distractor2	EVAbeforeCON	AMP_CSpleas	AMP1_masked	8	31	0	0	300	300	0	0	387	46	-6,591796875	0	0	0	0	1	blank2r.bmp	0	1	GKQX	0	1	blank2r.bmp	79	95	pic95.bmp	199	1	whitenoise_No3.bmp	306	0	0	0	0	0	0	0	0	0	0	0	0	0	0	0	0	0	0	0	0	0	0	0	0	0	0	0	0	0	0	0	0	0	0	0	0	0	0	0
011619	13:43:06	13:56:16	788981	5.0.10.0	4_exp_EVA_AMP_AWA_CON	74	Rpleas_acq	Same	Rpleas	Bmasked	CS_B	2pleas	distractor2	EVAbeforeCON	AMP_CSunple	AMP1_masked	8	32	0	0	300	300	0	0	596	46	-6,591796875	1	0	0	0	1	blank2r.bmp	0	1	BMVZ	0	1	blank2r.bmp	79	4	pic4.bmp	199	1	whitenoise_No3.bmp	306	0	0	0	0	0	0	0	0	0	0	0	0	0	0	0	0	0	0	0	0	0	0	0	0	0	0	0	0	0	0	0	0	0	0	0	0	0	0	0
011619	13:43:06	13:56:18	790500	5.0.10.0	4_exp_EVA_AMP_AWA_CON	74	Rpleas_acq	Same	Rpleas	Bmasked	CS_B	2pleas	distractor2	EVAbeforeCON	AMP_CSunple	AMP1_masked	8	33	0	0	300	300	0	0	608	46	-6,591796875	1	0	0	0	1	blank2r.bmp	0	1	BMVZ	0	1	blank2r.bmp	79	50	pic50.bmp	199	1	whitenoise_No3.bmp	306	0	0	0	0	0	0	0	0	0	0	0	0	0	0	0	0	0	0	0	0	0	0	0	0	0	0	0	0	0	0	0	0	0	0	0	0	0	0	0
011619	13:43:06	13:56:19	791806	5.0.10.0	4_exp_EVA_AMP_AWA_CON	74	Rpleas_acq	Same	Rpleas	Bmasked	CS_B	2pleas	distractor2	EVAbeforeCON	AMP_distractor	AMP1_masked	8	34	0	0	300	300	0	0	384	50	-6,591796875	0	0	0	0	1	blank2r.bmp	0	1	JCRD	0	1	blank2r.bmp	79	144	pic144.bmp	199	1	whitenoise_No3.bmp	306	0	0	0	0	0	0	0	0	0	0	0	0	0	0	0	0	0	0	0	0	0	0	0	0	0	0	0	0	0	0	0	0	0	0	0	0	0	0	0
011619	13:43:06	13:56:20	793179	5.0.10.0	4_exp_EVA_AMP_AWA_CON	74	Rpleas_acq	Same	Rpleas	Bmasked	CS_B	2pleas	distractor2	EVAbeforeCON	AMP_distractor	AMP1_masked	8	35	0	0	300	300	0	0	440	50	-6,591796875	0	0	0	0	1	blank2r.bmp	0	1	JCRD	0	1	blank2r.bmp	79	102	pic102.bmp	199	1	whitenoise_No3.bmp	306	0	0	0	0	0	0	0	0	0	0	0	0	0	0	0	0	0	0	0	0	0	0	0	0	0	0	0	0	0	0	0	0	0	0	0	0	0	0	0
011619	13:43:06	13:56:22	794538	5.0.10.0	4_exp_EVA_AMP_AWA_CON	74	Rpleas_acq	Same	Rpleas	Bmasked	CS_B	2pleas	distractor2	EVAbeforeCON	AMP_distractor	AMP1_masked	8	36	0	0	300	300	0	0	444	50	-6,591796875	0	0	0	0	1	blank2r.bmp	0	1	JCRD	0	1	blank2r.bmp	79	97	pic97.bmp	199	1	whitenoise_No3.bmp	306	0	0	0	0	0	0	0	0	0	0	0	0	0	0	0	0	0	0	0	0	0	0	0	0	0	0	0	0	0	0	0	0	0	0	0	0	0	0	0
011619	13:43:06	13:56:24	796578	5.0.10.0	4_exp_EVA_AMP_AWA_CON	74	Rpleas_acq	Same	Rpleas	Bmasked	CS_B	2pleas	distractor2	EVAbeforeCON	AMP_CSpleas	AMP1_masked	8	37	0	0	300	300	0	0	1121	46	-6,591796875	0	0	0	0	1	blank2r.bmp	0	1	GKQX	0	1	blank2r.bmp	79	84	pic84.bmp	199	1	whitenoise_No3.bmp	306	0	0	0	0	0	0	0	0	0	0	0	0	0	0	0	0	0	0	0	0	0	0	0	0	0	0	0	0	0	0	0	0	0	0	0	0	0	0	0
011619	13:43:06	13:56:25	798110	5.0.10.0	4_exp_EVA_AMP_AWA_CON	74	Rpleas_acq	Same	Rpleas	Bmasked	CS_B	2pleas	distractor2	EVAbeforeCON	AMP_CSunple	AMP1_masked	8	38	0	0	300	300	0	0	622	46	-6,591796875	1	0	0	0	1	blank2r.bmp	0	1	BMVZ	0	1	blank2r.bmp	79	71	pic71.bmp	199	1	whitenoise_No3.bmp	306	0	0	0	0	0	0	0	0	0	0	0	0	0	0	0	0	0	0	0	0	0	0	0	0	0	0	0	0	0	0	0	0	0	0	0	0	0	0	0
011619	13:43:06	13:56:27	799910	5.0.10.0	4_exp_EVA_AMP_AWA_CON	74	Rpleas_acq	Same	Rpleas	Bmasked	CS_B	2pleas	distractor2	EVAbeforeCON	AMP_distractor	AMP1_masked	8	39	0	0	300	300	0	0	873	50	-6,591796875	0	0	0	0	1	blank2r.bmp	0	1	JCRD	0	1	blank2r.bmp	79	149	pic149.bmp	199	1	whitenoise_No3.bmp	306	0	0	0	0	0	0	0	0	0	0	0	0	0	0	0	0	0	0	0	0	0	0	0	0	0	0	0	0	0	0	0	0	0	0	0	0	0	0	0
011619	13:43:06	13:56:28	801242	5.0.10.0	4_exp_EVA_AMP_AWA_CON	74	Rpleas_acq	Same	Rpleas	Bmasked	CS_B	2pleas	distractor2	EVAbeforeCON	AMP_distractor	AMP1_masked	8	40	0	0	300	300	0	0	407	50	-6,591796875	0	0	0	0	1	blank2r.bmp	0	1	JCRD	0	1	blank2r.bmp	79	44	pic44.bmp	199	1	whitenoise_No3.bmp	306	0	0	0	0	0	0	0	0	0	0	0	0	0	0	0	0	0	0	0	0	0	0	0	0	0	0	0	0	0	0	0	0	0	0	0	0	0	0	0
011619	13:43:06	13:56:30	802508	5.0.10.0	4_exp_EVA_AMP_AWA_CON	74	Rpleas_acq	Same	Rpleas	Bmasked	CS_B	2pleas	distractor2	EVAbeforeCON	AMP_distractor	AMP1_masked	8	41	0	0	300	300	0	0	350	50	-6,591796875	0	0	0	0	1	blank2r.bmp	0	1	JCRD	0	1	blank2r.bmp	79	20	pic20.bmp	199	1	whitenoise_No3.bmp	306	0	0	0	0	0	0	0	0	0	0	0	0	0	0	0	0	0	0	0	0	0	0	0	0	0	0	0	0	0	0	0	0	0	0	0	0	0	0	0
011619	13:43:06	13:56:31	803908	5.0.10.0	4_exp_EVA_AMP_AWA_CON	74	Rpleas_acq	Same	Rpleas	Bmasked	CS_B	2pleas	distractor2	EVAbeforeCON	AMP_CSpleas	AMP1_masked	8	42	0	0	300	300	0	0	484	46	-6,591796875	0	0	0	0	1	blank2r.bmp	0	1	GKQX	0	1	blank2r.bmp	79	129	pic129.bmp	199	1	whitenoise_No3.bmp	306	0	0	0	0	0	0	0	0	0	0	0	0	0	0	0	0	0	0	0	0	0	0	0	0	0	0	0	0	0	0	0	0	0	0	0	0	0	0	0
011619	13:43:06	13:56:32	805201	5.0.10.0	4_exp_EVA_AMP_AWA_CON	74	Rpleas_acq	Same	Rpleas	Bmasked	CS_B	2pleas	distractor2	EVAbeforeCON	AMP_distractor	AMP1_masked	8	43	0	0	300	300	0	0	370	50	-6,591796875	0	0	0	0	1	blank2r.bmp	0	1	JCRD	0	1	blank2r.bmp	79	42	pic42.bmp	199	1	whitenoise_No3.bmp	306	0	0	0	0	0	0	0	0	0	0	0	0	0	0	0	0	0	0	0	0	0	0	0	0	0	0	0	0	0	0	0	0	0	0	0	0	0	0	0
011619	13:43:06	13:56:34	806573	5.0.10.0	4_exp_EVA_AMP_AWA_CON	74	Rpleas_acq	Same	Rpleas	Bmasked	CS_B	2pleas	distractor2	EVAbeforeCON	AMP_CSpleas	AMP1_masked	8	44	0	0	300	300	0	0	442	46	-6,591796875	0	0	0	0	1	blank2r.bmp	0	1	GKQX	0	1	blank2r.bmp	79	31	pic31.bmp	199	1	whitenoise_No3.bmp	306	0	0	0	0	0	0	0	0	0	0	0	0	0	0	0	0	0	0	0	0	0	0	0	0	0	0	0	0	0	0	0	0	0	0	0	0	0	0	0
011619	13:43:06	13:56:35	807920	5.0.10.0	4_exp_EVA_AMP_AWA_CON	74	Rpleas_acq	Same	Rpleas	Bmasked	CS_B	2pleas	distractor2	EVAbeforeCON	AMP_CSunple	AMP1_masked	8	45	0	0	300	300	0	0	417	46	-6,591796875	1	0	0	0	1	blank2r.bmp	0	1	BMVZ	0	1	blank2r.bmp	79	9	pic9.bmp	199	1	whitenoise_No3.bmp	306	0	0	0	0	0	0	0	0	0	0	0	0	0	0	0	0	0	0	0	0	0	0	0	0	0	0	0	0	0	0	0	0	0	0	0	0	0	0	0
011619	13:43:06	13:56:36	809226	5.0.10.0	4_exp_EVA_AMP_AWA_CON	74	Rpleas_acq	Same	Rpleas	Bmasked	CS_B	2pleas	distractor2	EVAbeforeCON	AMP_CSunple	AMP1_masked	8	46	0	0	300	300	0	0	395	46	-6,591796875	1	0	0	0	1	blank2r.bmp	0	1	BMVZ	0	1	blank2r.bmp	79	83	pic83.bmp	199	1	whitenoise_No3.bmp	306	0	0	0	0	0	0	0	0	0	0	0	0	0	0	0	0	0	0	0	0	0	0	0	0	0	0	0	0	0	0	0	0	0	0	0	0	0	0	0
011619	13:43:06	13:56:38	810825	5.0.10.0	4_exp_EVA_AMP_AWA_CON	74	Rpleas_acq	Same	Rpleas	Bmasked	CS_B	2pleas	distractor2	EVAbeforeCON	AMP_CSpleas	AMP1_masked	8	47	0	0	300	300	0	0	665	46	-6,591796875	0	0	0	0	1	blank2r.bmp	0	1	GKQX	0	1	blank2r.bmp	79	54	pic54.bmp	199	1	whitenoise_No3.bmp	306	0	0	0	0	0	0	0	0	0	0	0	0	0	0	0	0	0	0	0	0	0	0	0	0	0	0	0	0	0	0	0	0	0	0	0	0	0	0	0
011619	13:43:06	13:56:39	812091	5.0.10.0	4_exp_EVA_AMP_AWA_CON	74	Rpleas_acq	Same	Rpleas	Bmasked	CS_B	2pleas	distractor2	EVAbeforeCON	AMP_CSpleas	AMP1_masked	8	48	0	0	300	300	0	0	346	46	-6,591796875	0	0	0	0	1	blank2r.bmp	0	1	GKQX	0	1	blank2r.bmp	79	110	pic110.bmp	199	1	whitenoise_No3.bmp	306	0	0	0	0	0	0	0	0	0	0	0	0	0	0	0	0	0	0	0	0	0	0	0	0	0	0	0	0	0	0	0	0	0	0	0	0	0	0	0
011619	13:43:06	13:56:40	813371	5.0.10.0	4_exp_EVA_AMP_AWA_CON	74	Rpleas_acq	Same	Rpleas	Bmasked	CS_B	2pleas	distractor2	EVAbeforeCON	AMP_CSpleas	AMP1_masked	8	49	0	0	300	300	0	0	367	46	-6,591796875	0	0	0	0	1	blank2r.bmp	0	1	GKQX	0	1	blank2r.bmp	79	139	pic139.bmp	199	1	whitenoise_No3.bmp	306	0	0	0	0	0	0	0	0	0	0	0	0	0	0	0	0	0	0	0	0	0	0	0	0	0	0	0	0	0	0	0	0	0	0	0	0	0	0	0
011619	13:43:06	13:56:42	814677	5.0.10.0	4_exp_EVA_AMP_AWA_CON	74	Rpleas_acq	Same	Rpleas	Bmasked	CS_B	2pleas	distractor2	EVAbeforeCON	AMP_CSpleas	AMP1_masked	8	50	0	0	300	300	0	0	381	46	-6,591796875	0	0	0	0	1	blank2r.bmp	0	1	GKQX	0	1	blank2r.bmp	79	80	pic80.bmp	199	1	whitenoise_No3.bmp	306	0	0	0	0	0	0	0	0	0	0	0	0	0	0	0	0	0	0	0	0	0	0	0	0	0	0	0	0	0	0	0	0	0	0	0	0	0	0	0
011619	13:43:06	13:56:43	815930	5.0.10.0	4_exp_EVA_AMP_AWA_CON	74	Rpleas_acq	Same	Rpleas	Bmasked	CS_B	2pleas	distractor2	EVAbeforeCON	AMP_distractor	AMP1_masked	8	51	0	0	300	300	0	0	344	50	-6,591796875	0	0	0	0	1	blank2r.bmp	0	1	JCRD	0	1	blank2r.bmp	79	132	pic132.bmp	199	1	whitenoise_No3.bmp	306	0	0	0	0	0	0	0	0	0	0	0	0	0	0	0	0	0	0	0	0	0	0	0	0	0	0	0	0	0	0	0	0	0	0	0	0	0	0	0
011619	13:43:06	13:56:58	831270	5.0.10.0	4_exp_EVA_AMP_AWA_CON	74	Rpleas_acq	Same	Rpleas	Bmasked	CS_B	2pleas	distractor2	EVAbeforeCON	AMP_CSunple	AMP23	9	1	0	0	300	300	0	0	1022	50	-6,591796875	0	0	0	0	1	blank2r.bmp	0	1	BMVZ	0	1	blank2r.bmp	79	30	pic30.bmp	199	1	whitenoise_No3.bmp	306	0	0	0	0	0	0	0	0	0	0	0	0	0	0	0	0	0	0	0	0	0	0	0	0	0	0	0	0	0	0	0	0	0	0	0	0	0	0	0
011619	13:43:06	13:57:00	832736	5.0.10.0	4_exp_EVA_AMP_AWA_CON	74	Rpleas_acq	Same	Rpleas	Bmasked	CS_B	2pleas	distractor2	EVAbeforeCON	AMP_CSunple	AMP23	9	2	0	0	300	300	0	0	539	50	-6,591796875	0	0	0	0	1	blank2r.bmp	0	1	BMVZ	0	1	blank2r.bmp	79	140	pic140.bmp	199	1	whitenoise_No3.bmp	306	0	0	0	0	0	0	0	0	0	0	0	0	0	0	0	0	0	0	0	0	0	0	0	0	0	0	0	0	0	0	0	0	0	0	0	0	0	0	0
011619	13:43:06	13:57:01	834322	5.0.10.0	4_exp_EVA_AMP_AWA_CON	74	Rpleas_acq	Same	Rpleas	Bmasked	CS_B	2pleas	distractor2	EVAbeforeCON	AMP_distractor	AMP23	9	3	0	0	300	300	0	0	658	50	-6,591796875	0	0	0	0	1	blank2r.bmp	0	1	JCRD	0	1	blank2r.bmp	79	148	pic148.bmp	199	1	whitenoise_No3.bmp	306	0	0	0	0	0	0	0	0	0	0	0	0	0	0	0	0	0	0	0	0	0	0	0	0	0	0	0	0	0	0	0	0	0	0	0	0	0	0	0
011619	13:43:06	13:57:03	835975	5.0.10.0	4_exp_EVA_AMP_AWA_CON	74	Rpleas_acq	Same	Rpleas	Bmasked	CS_B	2pleas	distractor2	EVAbeforeCON	AMP_distractor	AMP23	9	4	0	0	300	300	0	0	724	50	-6,591796875	0	0	0	0	1	blank2r.bmp	0	1	JCRD	0	1	blank2r.bmp	79	24	pic24.bmp	199	1	whitenoise_No3.bmp	306	0	0	0	0	0	0	0	0	0	0	0	0	0	0	0	0	0	0	0	0	0	0	0	0	0	0	0	0	0	0	0	0	0	0	0	0	0	0	0
011619	13:43:06	13:57:05	837574	5.0.10.0	4_exp_EVA_AMP_AWA_CON	74	Rpleas_acq	Same	Rpleas	Bmasked	CS_B	2pleas	distractor2	EVAbeforeCON	AMP_CSunple	AMP23	9	5	0	0	300	300	0	0	690	50	-6,591796875	0	0	0	0	1	blank2r.bmp	0	1	BMVZ	0	1	blank2r.bmp	79	145	pic145.bmp	199	1	whitenoise_No3.bmp	306	0	0	0	0	0	0	0	0	0	0	0	0	0	0	0	0	0	0	0	0	0	0	0	0	0	0	0	0	0	0	0	0	0	0	0	0	0	0	0
011619	13:43:06	13:57:06	838987	5.0.10.0	4_exp_EVA_AMP_AWA_CON	74	Rpleas_acq	Same	Rpleas	Bmasked	CS_B	2pleas	distractor2	EVAbeforeCON	AMP_CSunple	AMP23	9	6	0	0	300	300	0	0	505	46	-6,591796875	1	0	0	0	1	blank2r.bmp	0	1	BMVZ	0	1	blank2r.bmp	79	43	pic43.bmp	199	1	whitenoise_No3.bmp	306	0	0	0	0	0	0	0	0	0	0	0	0	0	0	0	0	0	0	0	0	0	0	0	0	0	0	0	0	0	0	0	0	0	0	0	0	0	0	0
011619	13:43:06	13:57:08	840533	5.0.10.0	4_exp_EVA_AMP_AWA_CON	74	Rpleas_acq	Same	Rpleas	Bmasked	CS_B	2pleas	distractor2	EVAbeforeCON	AMP_CSpleas	AMP23	9	7	0	0	300	300	0	0	615	46	-6,591796875	0	0	0	0	1	blank2r.bmp	0	1	GKQX	0	1	blank2r.bmp	79	150	pic150.bmp	199	1	whitenoise_No3.bmp	306	0	0	0	0	0	0	0	0	0	0	0	0	0	0	0	0	0	0	0	0	0	0	0	0	0	0	0	0	0	0	0	0	0	0	0	0	0	0	0
011619	13:43:06	13:57:09	842292	5.0.10.0	4_exp_EVA_AMP_AWA_CON	74	Rpleas_acq	Same	Rpleas	Bmasked	CS_B	2pleas	distractor2	EVAbeforeCON	AMP_CSunple	AMP23	9	8	0	0	300	300	0	0	826	46	-6,591796875	1	0	0	0	1	blank2r.bmp	0	1	BMVZ	0	1	blank2r.bmp	79	5	pic5.bmp	199	1	whitenoise_No3.bmp	306	0	0	0	0	0	0	0	0	0	0	0	0	0	0	0	0	0	0	0	0	0	0	0	0	0	0	0	0	0	0	0	0	0	0	0	0	0	0	0
011619	13:43:06	13:57:11	844078	5.0.10.0	4_exp_EVA_AMP_AWA_CON	74	Rpleas_acq	Same	Rpleas	Bmasked	CS_B	2pleas	distractor2	EVAbeforeCON	AMP_distractor	AMP23	9	9	0	0	300	300	0	0	876	50	-6,591796875	0	0	0	0	1	blank2r.bmp	0	1	JCRD	0	1	blank2r.bmp	79	131	pic131.bmp	199	1	whitenoise_No3.bmp	306	0	0	0	0	0	0	0	0	0	0	0	0	0	0	0	0	0	0	0	0	0	0	0	0	0	0	0	0	0	0	0	0	0	0	0	0	0	0	0
011619	13:43:06	13:57:13	845757	5.0.10.0	4_exp_EVA_AMP_AWA_CON	74	Rpleas_acq	Same	Rpleas	Bmasked	CS_B	2pleas	distractor2	EVAbeforeCON	AMP_distractor	AMP23	9	10	0	0	300	300	0	0	745	46	-6,591796875	0	0	0	0	1	blank2r.bmp	0	1	JCRD	0	1	blank2r.bmp	79	76	pic76.bmp	199	1	whitenoise_No3.bmp	306	0	0	0	0	0	0	0	0	0	0	0	0	0	0	0	0	0	0	0	0	0	0	0	0	0	0	0	0	0	0	0	0	0	0	0	0	0	0	0
011619	13:43:06	13:57:14	847130	5.0.10.0	4_exp_EVA_AMP_AWA_CON	74	Rpleas_acq	Same	Rpleas	Bmasked	CS_B	2pleas	distractor2	EVAbeforeCON	AMP_distractor	AMP23	9	11	0	0	300	300	0	0	458	46	-6,591796875	0	0	0	0	1	blank2r.bmp	0	1	JCRD	0	1	blank2r.bmp	79	85	pic85.bmp	199	1	whitenoise_No3.bmp	306	0	0	0	0	0	0	0	0	0	0	0	0	0	0	0	0	0	0	0	0	0	0	0	0	0	0	0	0	0	0	0	0	0	0	0	0	0	0	0
011619	13:43:06	13:57:16	848809	5.0.10.0	4_exp_EVA_AMP_AWA_CON	74	Rpleas_acq	Same	Rpleas	Bmasked	CS_B	2pleas	distractor2	EVAbeforeCON	AMP_CSpleas	AMP23	9	12	0	0	300	300	0	0	758	46	-6,591796875	0	0	0	0	1	blank2r.bmp	0	1	GKQX	0	1	blank2r.bmp	79	118	pic118.bmp	199	1	whitenoise_No3.bmp	306	0	0	0	0	0	0	0	0	0	0	0	0	0	0	0	0	0	0	0	0	0	0	0	0	0	0	0	0	0	0	0	0	0	0	0	0	0	0	0
011619	13:43:06	13:57:17	850262	5.0.10.0	4_exp_EVA_AMP_AWA_CON	74	Rpleas_acq	Same	Rpleas	Bmasked	CS_B	2pleas	distractor2	EVAbeforeCON	AMP_CSpleas	AMP23	9	13	0	0	300	300	0	0	530	46	-6,591796875	0	0	0	0	1	blank2r.bmp	0	1	GKQX	0	1	blank2r.bmp	79	52	pic52.bmp	199	1	whitenoise_No3.bmp	306	0	0	0	0	0	0	0	0	0	0	0	0	0	0	0	0	0	0	0	0	0	0	0	0	0	0	0	0	0	0	0	0	0	0	0	0	0	0	0
011619	13:43:06	13:57:19	851715	5.0.10.0	4_exp_EVA_AMP_AWA_CON	74	Rpleas_acq	Same	Rpleas	Bmasked	CS_B	2pleas	distractor2	EVAbeforeCON	AMP_CSunple	AMP23	9	14	0	0	300	300	0	0	525	50	-6,591796875	0	0	0	0	1	blank2r.bmp	0	1	BMVZ	0	1	blank2r.bmp	79	69	pic69.bmp	199	1	whitenoise_No3.bmp	306	0	0	0	0	0	0	0	0	0	0	0	0	0	0	0	0	0	0	0	0	0	0	0	0	0	0	0	0	0	0	0	0	0	0	0	0	0	0	0
011619	13:43:06	13:57:20	853074	5.0.10.0	4_exp_EVA_AMP_AWA_CON	74	Rpleas_acq	Same	Rpleas	Bmasked	CS_B	2pleas	distractor2	EVAbeforeCON	AMP_CSpleas	AMP23	9	15	0	0	300	300	0	0	438	46	-6,591796875	0	0	0	0	1	blank2r.bmp	0	1	GKQX	0	1	blank2r.bmp	79	22	pic22.bmp	199	1	whitenoise_No3.bmp	306	0	0	0	0	0	0	0	0	0	0	0	0	0	0	0	0	0	0	0	0	0	0	0	0	0	0	0	0	0	0	0	0	0	0	0	0	0	0	0
011619	13:43:06	13:57:22	854580	5.0.10.0	4_exp_EVA_AMP_AWA_CON	74	Rpleas_acq	Same	Rpleas	Bmasked	CS_B	2pleas	distractor2	EVAbeforeCON	AMP_CSunple	AMP23	9	16	0	0	300	300	0	0	582	50	-6,591796875	0	0	0	0	1	blank2r.bmp	0	1	BMVZ	0	1	blank2r.bmp	79	79	pic79.bmp	199	1	whitenoise_No3.bmp	306	0	0	0	0	0	0	0	0	0	0	0	0	0	0	0	0	0	0	0	0	0	0	0	0	0	0	0	0	0	0	0	0	0	0	0	0	0	0	0
011619	13:43:06	13:57:23	855966	5.0.10.0	4_exp_EVA_AMP_AWA_CON	74	Rpleas_acq	Same	Rpleas	Bmasked	CS_B	2pleas	distractor2	EVAbeforeCON	AMP_CSpleas	AMP23	9	17	0	0	300	300	0	0	478	46	-6,591796875	0	0	0	0	1	blank2r.bmp	0	1	GKQX	0	1	blank2r.bmp	79	90	pic90.bmp	199	1	whitenoise_No3.bmp	306	0	0	0	0	0	0	0	0	0	0	0	0	0	0	0	0	0	0	0	0	0	0	0	0	0	0	0	0	0	0	0	0	0	0	0	0	0	0	0
011619	13:43:06	13:57:24	857299	5.0.10.0	4_exp_EVA_AMP_AWA_CON	74	Rpleas_acq	Same	Rpleas	Bmasked	CS_B	2pleas	distractor2	EVAbeforeCON	AMP_distractor	AMP23	9	18	0	0	300	300	0	0	416	50	-6,591796875	0	0	0	0	1	blank2r.bmp	0	1	JCRD	0	1	blank2r.bmp	79	108	pic108.bmp	199	1	whitenoise_No3.bmp	306	0	0	0	0	0	0	0	0	0	0	0	0	0	0	0	0	0	0	0	0	0	0	0	0	0	0	0	0	0	0	0	0	0	0	0	0	0	0	0
011619	13:43:06	13:57:26	858565	5.0.10.0	4_exp_EVA_AMP_AWA_CON	74	Rpleas_acq	Same	Rpleas	Bmasked	CS_B	2pleas	distractor2	EVAbeforeCON	AMP_distractor	AMP23	9	19	0	0	300	300	0	0	345	50	-6,591796875	0	0	0	0	1	blank2r.bmp	0	1	JCRD	0	1	blank2r.bmp	79	18	pic18.bmp	199	1	whitenoise_No3.bmp	306	0	0	0	0	0	0	0	0	0	0	0	0	0	0	0	0	0	0	0	0	0	0	0	0	0	0	0	0	0	0	0	0	0	0	0	0	0	0	0
011619	13:43:06	13:57:27	859778	5.0.10.0	4_exp_EVA_AMP_AWA_CON	74	Rpleas_acq	Same	Rpleas	Bmasked	CS_B	2pleas	distractor2	EVAbeforeCON	AMP_distractor	AMP23	9	20	0	0	300	300	0	0	293	50	-6,591796875	0	0	0	0	1	blank2r.bmp	0	1	JCRD	0	1	blank2r.bmp	79	55	pic55.bmp	199	1	whitenoise_No3.bmp	306	0	0	0	0	0	0	0	0	0	0	0	0	0	0	0	0	0	0	0	0	0	0	0	0	0	0	0	0	0	0	0	0	0	0	0	0	0	0	0
011619	13:43:06	13:57:28	861058	5.0.10.0	4_exp_EVA_AMP_AWA_CON	74	Rpleas_acq	Same	Rpleas	Bmasked	CS_B	2pleas	distractor2	EVAbeforeCON	AMP_CSunple	AMP23	9	21	0	0	300	300	0	0	361	50	-6,591796875	0	0	0	0	1	blank2r.bmp	0	1	BMVZ	0	1	blank2r.bmp	79	33	pic33.bmp	199	1	whitenoise_No3.bmp	306	0	0	0	0	0	0	0	0	0	0	0	0	0	0	0	0	0	0	0	0	0	0	0	0	0	0	0	0	0	0	0	0	0	0	0	0	0	0	0
011619	13:43:06	13:57:29	862337	5.0.10.0	4_exp_EVA_AMP_AWA_CON	74	Rpleas_acq	Same	Rpleas	Bmasked	CS_B	2pleas	distractor2	EVAbeforeCON	AMP_distractor	AMP23	9	22	0	0	300	300	0	0	371	50	-6,591796875	0	0	0	0	1	blank2r.bmp	0	1	JCRD	0	1	blank2r.bmp	79	124	pic124.bmp	199	1	whitenoise_No3.bmp	306	0	0	0	0	0	0	0	0	0	0	0	0	0	0	0	0	0	0	0	0	0	0	0	0	0	0	0	0	0	0	0	0	0	0	0	0	0	0	0
011619	13:43:06	13:57:31	863843	5.0.10.0	4_exp_EVA_AMP_AWA_CON	74	Rpleas_acq	Same	Rpleas	Bmasked	CS_B	2pleas	distractor2	EVAbeforeCON	AMP_CSpleas	AMP23	9	23	0	0	300	300	0	0	576	50	-6,591796875	1	0	0	0	1	blank2r.bmp	0	1	GKQX	0	1	blank2r.bmp	79	48	pic48.bmp	199	1	whitenoise_No3.bmp	306	0	0	0	0	0	0	0	0	0	0	0	0	0	0	0	0	0	0	0	0	0	0	0	0	0	0	0	0	0	0	0	0	0	0	0	0	0	0	0
011619	13:43:06	13:57:32	865362	5.0.10.0	4_exp_EVA_AMP_AWA_CON	74	Rpleas_acq	Same	Rpleas	Bmasked	CS_B	2pleas	distractor2	EVAbeforeCON	AMP_CSpleas	AMP23	9	24	0	0	300	300	0	0	589	50	-6,591796875	1	0	0	0	1	blank2r.bmp	0	1	GKQX	0	1	blank2r.bmp	79	121	pic121.bmp	199	1	whitenoise_No3.bmp	306	0	0	0	0	0	0	0	0	0	0	0	0	0	0	0	0	0	0	0	0	0	0	0	0	0	0	0	0	0	0	0	0	0	0	0	0	0	0	0
011619	13:43:06	13:57:34	866695	5.0.10.0	4_exp_EVA_AMP_AWA_CON	74	Rpleas_acq	Same	Rpleas	Bmasked	CS_B	2pleas	distractor2	EVAbeforeCON	AMP_CSpleas	AMP23	9	25	0	0	300	300	0	0	422	50	-6,591796875	1	0	0	0	1	blank2r.bmp	0	1	GKQX	0	1	blank2r.bmp	79	73	pic73.bmp	199	1	whitenoise_No3.bmp	306	0	0	0	0	0	0	0	0	0	0	0	0	0	0	0	0	0	0	0	0	0	0	0	0	0	0	0	0	0	0	0	0	0	0	0	0	0	0	0
011619	13:43:06	13:57:35	868041	5.0.10.0	4_exp_EVA_AMP_AWA_CON	74	Rpleas_acq	Same	Rpleas	Bmasked	CS_B	2pleas	distractor2	EVAbeforeCON	AMP_CSpleas	AMP23	9	26	0	0	300	300	0	0	417	46	-6,591796875	0	0	0	0	1	blank2r.bmp	0	1	GKQX	0	1	blank2r.bmp	79	35	pic35.bmp	199	1	whitenoise_No3.bmp	306	0	0	0	0	0	0	0	0	0	0	0	0	0	0	0	0	0	0	0	0	0	0	0	0	0	0	0	0	0	0	0	0	0	0	0	0	0	0	0
