date	time	script.currenttime	script.elapsedtime	build	script.currentexpt	subject	expressions.LRpleas_acq	expressions.conditionCS_A	expressions.CSpleas_1	expressions.CSpleas_2	expressions.CSunple_1	expressions.CSunple_2	expressions.distractor_1	expressions.distractor_2	expressions.US_pleas1	expressions.US_pleas2	expressions.US_pleas3	expressions.US_pleas4	expressions.US_pleas5	expressions.US_pleas6	expressions.US_unple1	expressions.US_unple2	expressions.US_unple3	expressions.US_unple4	expressions.US_unple5	expressions.US_unple6	counter.positions_noRW	trialcode	blockcode	blocknum	trialnum	windowcenter	inwindow	pretrialpause	posttrialpause	latency	response	expressions.correctedscore	correct	stimulusnumber1	stimulusitem1	stimulusonset1	stimulusnumber2	stimulusitem2	stimulusonset2	stimulusnumber3	stimulusitem3	stimulusonset3	stimulusnumber4	stimulusitem4	stimulusonset4	stimulusnumber5	stimulusitem5	stimulusonset5	stimulusnumber6	stimulusitem6	stimulusonset6	stimulusnumber7	stimulusitem7	stimulusonset7	stimulusnumber8	stimulusitem8	stimulusonset8	stimulusnumber9	stimulusitem9	stimulusonset9	stimulusnumber10	stimulusitem10	stimulusonset10	stimulusnumber11	stimulusitem11	stimulusonset11	stimulusnumber12	stimulusitem12	stimulusonset12	stimulusnumber13	stimulusitem13	stimulusonset13	stimulusnumber14	stimulusitem14	stimulusonset14	stimulusnumber15	stimulusitem15	stimulusonset15	stimulusnumber16	stimulusitem16	stimulusonset16	stimulusnumber17	stimulusitem17	stimulusonset17	stimulusnumber18	stimulusitem18	stimulusonset18
072319	10:51:57	10:54:03	125653	5.0.10.0	5_exp_RW	75	Rpleas_acq	CS_A	JQQJ	ZHHZ	YFFY	LWWL	CPPC	DXXD	sonnig	träumen	vertrauen	gütig	genießen	küssen	sterben	töten	versagen	gierig	gemein	krank	1	acq_USunple_CSunple2_RW	acq1_RW	1	1	0	0	300	300	1247	46	0	1	1	blank2r.bmp	0	1	+	0	1	blank2r.bmp	492	1	LWWL	492	1	blank2r.bmp	572	1	gierig	866	0	0	0	0	0	0	0	0	0	0	0	0	0	0	0	0	0	0	0	0	0	0	0	0	0	0	0	0	0	0	0	0	0	0	0	0
072319	10:51:57	10:54:06	128519	5.0.10.0	5_exp_RW	75	Rpleas_acq	CS_A	JQQJ	ZHHZ	YFFY	LWWL	CPPC	DXXD	sonnig	träumen	vertrauen	gütig	genießen	küssen	sterben	töten	versagen	gierig	gemein	krank	1	acq_USpleas_CSpleas2_RW	acq1_RW	1	2	0	0	300	300	1380	50	0	1	1	blank2r.bmp	0	1	+	0	1	blank2r.bmp	492	1	ZHHZ	492	1	blank2r.bmp	572	2	genießen	866	0	0	0	0	0	0	0	0	0	0	0	0	0	0	0	0	0	0	0	0	0	0	0	0	0	0	0	0	0	0	0	0	0	0	0	0
072319	10:51:57	10:54:08	130558	5.0.10.0	5_exp_RW	75	Rpleas_acq	CS_A	JQQJ	ZHHZ	YFFY	LWWL	CPPC	DXXD	sonnig	träumen	vertrauen	gütig	genießen	küssen	sterben	töten	versagen	gierig	gemein	krank	1	acq_USpleas_CSpleas2_RW	acq1_RW	1	3	0	0	300	300	557	50	0	1	1	blank2r.bmp	0	1	+	0	1	blank2r.bmp	492	1	ZHHZ	492	1	blank2r.bmp	572	1	gütig	866	0	0	0	0	0	0	0	0	0	0	0	0	0	0	0	0	0	0	0	0	0	0	0	0	0	0	0	0	0	0	0	0	0	0	0	0
072319	10:51:57	10:54:10	132864	5.0.10.0	5_exp_RW	75	Rpleas_acq	CS_A	JQQJ	ZHHZ	YFFY	LWWL	CPPC	DXXD	sonnig	träumen	vertrauen	gütig	genießen	küssen	sterben	töten	versagen	gierig	gemein	krank	1	acq_USunple_CSunple1_RW	acq1_RW	1	4	0	0	300	300	815	46	0	1	1	blank2r.bmp	0	1	+	0	1	blank2r.bmp	492	1	YFFY	492	1	blank2r.bmp	572	2	töten	866	0	0	0	0	0	0	0	0	0	0	0	0	0	0	0	0	0	0	0	0	0	0	0	0	0	0	0	0	0	0	0	0	0	0	0	0
072319	10:51:57	10:54:12	135129	5.0.10.0	5_exp_RW	75	Rpleas_acq	CS_A	JQQJ	ZHHZ	YFFY	LWWL	CPPC	DXXD	sonnig	träumen	vertrauen	gütig	genießen	küssen	sterben	töten	versagen	gierig	gemein	krank	1	acq_USunple_CSunple2_RW	acq1_RW	1	5	0	0	300	300	790	46	0	1	1	blank2r.bmp	0	1	+	0	1	blank2r.bmp	492	1	LWWL	492	1	blank2r.bmp	572	3	krank	866	0	0	0	0	0	0	0	0	0	0	0	0	0	0	0	0	0	0	0	0	0	0	0	0	0	0	0	0	0	0	0	0	0	0	0	0
072319	10:51:57	10:54:14	137142	5.0.10.0	5_exp_RW	75	Rpleas_acq	CS_A	JQQJ	ZHHZ	YFFY	LWWL	CPPC	DXXD	sonnig	träumen	vertrauen	gütig	genießen	küssen	sterben	töten	versagen	gierig	gemein	krank	1	acq_USpleas_CSpleas2_RW	acq1_RW	1	6	0	0	300	300	533	50	0	1	1	blank2r.bmp	0	1	+	0	1	blank2r.bmp	492	1	ZHHZ	492	1	blank2r.bmp	572	3	küssen	866	0	0	0	0	0	0	0	0	0	0	0	0	0	0	0	0	0	0	0	0	0	0	0	0	0	0	0	0	0	0	0	0	0	0	0	0
072319	10:51:57	10:54:16	139274	5.0.10.0	5_exp_RW	75	Rpleas_acq	CS_A	JQQJ	ZHHZ	YFFY	LWWL	CPPC	DXXD	sonnig	träumen	vertrauen	gütig	genießen	küssen	sterben	töten	versagen	gierig	gemein	krank	1	acq_USunple_CSunple1_RW	acq1_RW	1	7	0	0	300	300	663	46	0	1	1	blank2r.bmp	0	1	+	0	1	blank2r.bmp	492	1	YFFY	492	1	blank2r.bmp	572	3	versagen	866	0	0	0	0	0	0	0	0	0	0	0	0	0	0	0	0	0	0	0	0	0	0	0	0	0	0	0	0	0	0	0	0	0	0	0	0
072319	10:51:57	10:54:18	141220	5.0.10.0	5_exp_RW	75	Rpleas_acq	CS_A	JQQJ	ZHHZ	YFFY	LWWL	CPPC	DXXD	sonnig	träumen	vertrauen	gütig	genießen	küssen	sterben	töten	versagen	gierig	gemein	krank	1	acq_USpleas_CSpleas1_RW	acq1_RW	1	8	0	0	300	300	472	50	0	1	1	blank2r.bmp	0	1	+	0	1	blank2r.bmp	492	1	JQQJ	492	1	blank2r.bmp	572	1	sonnig	866	0	0	0	0	0	0	0	0	0	0	0	0	0	0	0	0	0	0	0	0	0	0	0	0	0	0	0	0	0	0	0	0	0	0	0	0
072319	10:51:57	10:54:21	143326	5.0.10.0	5_exp_RW	75	Rpleas_acq	CS_A	JQQJ	ZHHZ	YFFY	LWWL	CPPC	DXXD	sonnig	träumen	vertrauen	gütig	genießen	küssen	sterben	töten	versagen	gierig	gemein	krank	1	acq_USpleas_CSpleas1_RW	acq1_RW	1	9	0	0	300	300	619	50	0	1	1	blank2r.bmp	0	1	+	0	1	blank2r.bmp	492	1	JQQJ	492	1	blank2r.bmp	572	2	träumen	866	0	0	0	0	0	0	0	0	0	0	0	0	0	0	0	0	0	0	0	0	0	0	0	0	0	0	0	0	0	0	0	0	0	0	0	0
072319	10:51:57	10:54:22	145298	5.0.10.0	5_exp_RW	75	Rpleas_acq	CS_A	JQQJ	ZHHZ	YFFY	LWWL	CPPC	DXXD	sonnig	träumen	vertrauen	gütig	genießen	küssen	sterben	töten	versagen	gierig	gemein	krank	1	acq_USunple_CSunple1_RW	acq1_RW	1	10	0	0	300	300	479	46	0	1	1	blank2r.bmp	0	1	+	0	1	blank2r.bmp	492	1	YFFY	492	1	blank2r.bmp	572	1	sterben	866	0	0	0	0	0	0	0	0	0	0	0	0	0	0	0	0	0	0	0	0	0	0	0	0	0	0	0	0	0	0	0	0	0	0	0	0
072319	10:51:57	10:54:24	147164	5.0.10.0	5_exp_RW	75	Rpleas_acq	CS_A	JQQJ	ZHHZ	YFFY	LWWL	CPPC	DXXD	sonnig	träumen	vertrauen	gütig	genießen	küssen	sterben	töten	versagen	gierig	gemein	krank	1	acq_USunple_CSunple2_RW	acq1_RW	1	11	0	0	300	300	393	46	0	1	1	blank2r.bmp	0	1	+	0	1	blank2r.bmp	492	1	LWWL	492	1	blank2r.bmp	572	2	gemein	866	0	0	0	0	0	0	0	0	0	0	0	0	0	0	0	0	0	0	0	0	0	0	0	0	0	0	0	0	0	0	0	0	0	0	0	0
072319	10:51:57	10:54:26	149097	5.0.10.0	5_exp_RW	75	Rpleas_acq	CS_A	JQQJ	ZHHZ	YFFY	LWWL	CPPC	DXXD	sonnig	träumen	vertrauen	gütig	genießen	küssen	sterben	töten	versagen	gierig	gemein	krank	1	acq_USpleas_CSpleas1_RW	acq1_RW	1	12	0	0	300	300	449	50	0	1	1	blank2r.bmp	0	1	+	0	1	blank2r.bmp	492	1	JQQJ	492	1	blank2r.bmp	572	3	vertrauen	866	0	0	0	0	0	0	0	0	0	0	0	0	0	0	0	0	0	0	0	0	0	0	0	0	0	0	0	0	0	0	0	0	0	0	0	0
072319	10:51:57	10:54:28	151109	5.0.10.0	5_exp_RW	75	Rpleas_acq	CS_A	JQQJ	ZHHZ	YFFY	LWWL	CPPC	DXXD	sonnig	träumen	vertrauen	gütig	genießen	küssen	sterben	töten	versagen	gierig	gemein	krank	1	acq_USunple_CSunple1_RW	acq1_RW	1	13	0	0	300	300	522	46	0	1	1	blank2r.bmp	0	1	+	0	1	blank2r.bmp	492	1	YFFY	492	1	blank2r.bmp	572	3	versagen	866	0	0	0	0	0	0	0	0	0	0	0	0	0	0	0	0	0	0	0	0	0	0	0	0	0	0	0	0	0	0	0	0	0	0	0	0
072319	10:51:57	10:54:30	153082	5.0.10.0	5_exp_RW	75	Rpleas_acq	CS_A	JQQJ	ZHHZ	YFFY	LWWL	CPPC	DXXD	sonnig	träumen	vertrauen	gütig	genießen	küssen	sterben	töten	versagen	gierig	gemein	krank	1	acq_USunple_CSunple2_RW	acq1_RW	1	14	0	0	300	300	483	46	0	1	1	blank2r.bmp	0	1	+	0	1	blank2r.bmp	492	1	LWWL	492	1	blank2r.bmp	572	2	gemein	866	0	0	0	0	0	0	0	0	0	0	0	0	0	0	0	0	0	0	0	0	0	0	0	0	0	0	0	0	0	0	0	0	0	0	0	0
072319	10:51:57	10:54:32	154961	5.0.10.0	5_exp_RW	75	Rpleas_acq	CS_A	JQQJ	ZHHZ	YFFY	LWWL	CPPC	DXXD	sonnig	träumen	vertrauen	gütig	genießen	küssen	sterben	töten	versagen	gierig	gemein	krank	1	acq_USpleas_CSpleas1_RW	acq1_RW	1	15	0	0	300	300	401	50	0	1	1	blank2r.bmp	0	1	+	0	1	blank2r.bmp	492	1	JQQJ	492	1	blank2r.bmp	572	1	sonnig	866	0	0	0	0	0	0	0	0	0	0	0	0	0	0	0	0	0	0	0	0	0	0	0	0	0	0	0	0	0	0	0	0	0	0	0	0
072319	10:51:57	10:54:34	156934	5.0.10.0	5_exp_RW	75	Rpleas_acq	CS_A	JQQJ	ZHHZ	YFFY	LWWL	CPPC	DXXD	sonnig	träumen	vertrauen	gütig	genießen	küssen	sterben	töten	versagen	gierig	gemein	krank	1	acq_USpleas_CSpleas2_RW	acq1_RW	1	16	0	0	300	300	499	50	0	1	1	blank2r.bmp	0	1	+	0	1	blank2r.bmp	492	1	ZHHZ	492	1	blank2r.bmp	572	3	küssen	866	0	0	0	0	0	0	0	0	0	0	0	0	0	0	0	0	0	0	0	0	0	0	0	0	0	0	0	0	0	0	0	0	0	0	0	0
072319	10:51:57	10:55:12	194438	5.0.10.0	5_exp_RW	75	Rpleas_acq	CS_A	JQQJ	ZHHZ	YFFY	LWWL	CPPC	DXXD	sonnig	träumen	vertrauen	gütig	genießen	küssen	sterben	töten	versagen	gierig	gemein	krank	1	acq_USpleas_CSpleas1_RW	acq2_RW	2	1	480	0	300	300	729	50	0	1	1	blank2r.bmp	0	1	+	0	1	blank2r.bmp	492	1	JQQJ	492	1	blank2r.bmp	572	2	träumen	866	1	!	1319	1	!	-1	0	0	0	0	0	0	0	0	0	0	0	0	0	0	0	0	0	0	0	0	0	0	0	0	0	0	0	0	0	0
072319	10:51:57	10:55:14	196490	5.0.10.0	5_exp_RW	75	Rpleas_acq	CS_A	JQQJ	ZHHZ	YFFY	LWWL	CPPC	DXXD	sonnig	träumen	vertrauen	gütig	genießen	küssen	sterben	töten	versagen	gierig	gemein	krank	1	acq_USpleas_CSpleas2_RW	acq2_RW	2	2	480	0	300	300	268	50	0	1	1	blank2r.bmp	0	1	+	0	1	blank2r.bmp	492	1	ZHHZ	492	1	blank2r.bmp	572	1	gütig	866	1	!	-1	1	!	-1	0	0	0	0	0	0	0	0	0	0	0	0	0	0	0	0	0	0	0	0	0	0	0	0	0	0	0	0	0	0
072319	10:51:57	10:55:16	198769	5.0.10.0	5_exp_RW	75	Rpleas_acq	CS_A	JQQJ	ZHHZ	YFFY	LWWL	CPPC	DXXD	sonnig	träumen	vertrauen	gütig	genießen	küssen	sterben	töten	versagen	gierig	gemein	krank	1	acq_USpleas_CSpleas1_RW	acq2_RW	2	3	480	1	300	300	477	50	0	1	1	blank2r.bmp	0	1	+	0	1	blank2r.bmp	492	1	JQQJ	492	1	blank2r.bmp	572	3	vertrauen	866	1	!	1319	1	!	1372	0	0	0	0	0	0	0	0	0	0	0	0	0	0	0	0	0	0	0	0	0	0	0	0	0	0	0	0	0	0
072319	10:51:57	10:55:18	201155	5.0.10.0	5_exp_RW	75	Rpleas_acq	CS_A	JQQJ	ZHHZ	YFFY	LWWL	CPPC	DXXD	sonnig	träumen	vertrauen	gütig	genießen	küssen	sterben	töten	versagen	gierig	gemein	krank	1	acq_USpleas_CSpleas1_RW	acq2_RW	2	4	480	0	300	300	601	50	0	1	1	blank2r.bmp	0	1	+	0	1	blank2r.bmp	492	1	JQQJ	492	1	blank2r.bmp	572	2	träumen	866	1	!	1319	1	!	-1	0	0	0	0	0	0	0	0	0	0	0	0	0	0	0	0	0	0	0	0	0	0	0	0	0	0	0	0	0	0
072319	10:51:57	10:55:21	203514	5.0.10.0	5_exp_RW	75	Rpleas_acq	CS_A	JQQJ	ZHHZ	YFFY	LWWL	CPPC	DXXD	sonnig	träumen	vertrauen	gütig	genießen	küssen	sterben	töten	versagen	gierig	gemein	krank	1	acq_USunple_CSunple1_RW	acq2_RW	2	5	480	0	300	300	577	46	0	1	1	blank2r.bmp	0	1	+	0	1	blank2r.bmp	492	1	YFFY	492	1	blank2r.bmp	572	1	sterben	866	1	!	1319	1	!	-1	0	0	0	0	0	0	0	0	0	0	0	0	0	0	0	0	0	0	0	0	0	0	0	0	0	0	0	0	0	0
072319	10:51:57	10:55:23	205687	5.0.10.0	5_exp_RW	75	Rpleas_acq	CS_A	JQQJ	ZHHZ	YFFY	LWWL	CPPC	DXXD	sonnig	träumen	vertrauen	gütig	genießen	küssen	sterben	töten	versagen	gierig	gemein	krank	1	acq_USpleas_CSpleas2_RW	acq2_RW	2	6	480	0	300	300	383	50	0	1	1	blank2r.bmp	0	1	+	0	1	blank2r.bmp	492	1	ZHHZ	492	1	blank2r.bmp	572	2	genießen	866	1	!	-1	1	!	-1	0	0	0	0	0	0	0	0	0	0	0	0	0	0	0	0	0	0	0	0	0	0	0	0	0	0	0	0	0	0
072319	10:51:57	10:55:25	207792	5.0.10.0	5_exp_RW	75	Rpleas_acq	CS_A	JQQJ	ZHHZ	YFFY	LWWL	CPPC	DXXD	sonnig	träumen	vertrauen	gütig	genießen	küssen	sterben	töten	versagen	gierig	gemein	krank	1	acq_USpleas_CSpleas1_RW	acq2_RW	2	7	480	0	300	300	327	50	0	1	1	blank2r.bmp	0	1	+	0	1	blank2r.bmp	492	1	JQQJ	492	1	blank2r.bmp	572	3	vertrauen	866	1	!	-1	1	!	-1	0	0	0	0	0	0	0	0	0	0	0	0	0	0	0	0	0	0	0	0	0	0	0	0	0	0	0	0	0	0
072319	10:51:57	10:55:28	210311	5.0.10.0	5_exp_RW	75	Rpleas_acq	CS_A	JQQJ	ZHHZ	YFFY	LWWL	CPPC	DXXD	sonnig	träumen	vertrauen	gütig	genießen	küssen	sterben	töten	versagen	gierig	gemein	krank	1	acq_USunple_CSunple2_RW	acq2_RW	2	8	480	0	300	300	741	46	0	1	1	blank2r.bmp	0	1	+	0	1	blank2r.bmp	492	1	LWWL	492	1	blank2r.bmp	572	1	gierig	866	1	!	1319	1	!	-1	0	0	0	0	0	0	0	0	0	0	0	0	0	0	0	0	0	0	0	0	0	0	0	0	0	0	0	0	0	0
072319	10:51:57	10:55:30	212404	5.0.10.0	5_exp_RW	75	Rpleas_acq	CS_A	JQQJ	ZHHZ	YFFY	LWWL	CPPC	DXXD	sonnig	träumen	vertrauen	gütig	genießen	küssen	sterben	töten	versagen	gierig	gemein	krank	1	acq_USunple_CSunple1_RW	acq2_RW	2	9	480	0	300	300	311	46	0	1	1	blank2r.bmp	0	1	+	0	1	blank2r.bmp	492	1	YFFY	492	1	blank2r.bmp	572	2	töten	866	1	!	-1	1	!	-1	0	0	0	0	0	0	0	0	0	0	0	0	0	0	0	0	0	0	0	0	0	0	0	0	0	0	0	0	0	0
072319	10:51:57	10:55:32	214936	5.0.10.0	5_exp_RW	75	Rpleas_acq	CS_A	JQQJ	ZHHZ	YFFY	LWWL	CPPC	DXXD	sonnig	träumen	vertrauen	gütig	genießen	küssen	sterben	töten	versagen	gierig	gemein	krank	1	acq_USunple_CSunple1_RW	acq2_RW	2	10	480	0	300	300	752	46	0	1	1	blank2r.bmp	0	1	+	0	1	blank2r.bmp	492	1	YFFY	492	1	blank2r.bmp	572	1	sterben	866	1	!	1319	1	!	-1	0	0	0	0	0	0	0	0	0	0	0	0	0	0	0	0	0	0	0	0	0	0	0	0	0	0	0	0	0	0
072319	10:51:57	10:55:34	217175	5.0.10.0	5_exp_RW	75	Rpleas_acq	CS_A	JQQJ	ZHHZ	YFFY	LWWL	CPPC	DXXD	sonnig	träumen	vertrauen	gütig	genießen	küssen	sterben	töten	versagen	gierig	gemein	krank	1	acq_USunple_CSunple1_RW	acq2_RW	2	11	480	1	300	300	426	46	0	1	1	blank2r.bmp	0	1	+	0	1	blank2r.bmp	492	1	YFFY	492	1	blank2r.bmp	572	2	töten	866	1	!	1319	1	!	1332	0	0	0	0	0	0	0	0	0	0	0	0	0	0	0	0	0	0	0	0	0	0	0	0	0	0	0	0	0	0
072319	10:51:57	10:55:36	219241	5.0.10.0	5_exp_RW	75	Rpleas_acq	CS_A	JQQJ	ZHHZ	YFFY	LWWL	CPPC	DXXD	sonnig	träumen	vertrauen	gütig	genießen	küssen	sterben	töten	versagen	gierig	gemein	krank	1	acq_USpleas_CSpleas2_RW	acq2_RW	2	12	480	0	300	300	304	50	0	1	1	blank2r.bmp	0	1	+	0	1	blank2r.bmp	492	1	ZHHZ	492	1	blank2r.bmp	572	3	küssen	866	1	!	-1	1	!	-1	0	0	0	0	0	0	0	0	0	0	0	0	0	0	0	0	0	0	0	0	0	0	0	0	0	0	0	0	0	0
072319	10:51:57	10:55:39	221627	5.0.10.0	5_exp_RW	75	Rpleas_acq	CS_A	JQQJ	ZHHZ	YFFY	LWWL	CPPC	DXXD	sonnig	träumen	vertrauen	gütig	genießen	küssen	sterben	töten	versagen	gierig	gemein	krank	1	acq_USpleas_CSpleas1_RW	acq2_RW	2	13	480	0	300	300	593	50	0	1	1	blank2r.bmp	0	1	+	0	1	blank2r.bmp	492	1	JQQJ	492	1	blank2r.bmp	572	1	sonnig	866	1	!	1319	1	!	-1	0	0	0	0	0	0	0	0	0	0	0	0	0	0	0	0	0	0	0	0	0	0	0	0	0	0	0	0	0	0
072319	10:51:57	10:55:41	223786	5.0.10.0	5_exp_RW	75	Rpleas_acq	CS_A	JQQJ	ZHHZ	YFFY	LWWL	CPPC	DXXD	sonnig	träumen	vertrauen	gütig	genießen	küssen	sterben	töten	versagen	gierig	gemein	krank	1	acq_USpleas_CSpleas1_RW	acq2_RW	2	14	480	0	300	300	363	50	0	1	1	blank2r.bmp	0	1	+	0	1	blank2r.bmp	492	1	JQQJ	492	1	blank2r.bmp	572	1	sonnig	866	1	!	-1	1	!	-1	0	0	0	0	0	0	0	0	0	0	0	0	0	0	0	0	0	0	0	0	0	0	0	0	0	0	0	0	0	0
072319	10:51:57	10:55:43	225931	5.0.10.0	5_exp_RW	75	Rpleas_acq	CS_A	JQQJ	ZHHZ	YFFY	LWWL	CPPC	DXXD	sonnig	träumen	vertrauen	gütig	genießen	küssen	sterben	töten	versagen	gierig	gemein	krank	1	acq_USunple_CSunple1_RW	acq2_RW	2	15	480	0	300	300	366	46	0	1	1	blank2r.bmp	0	1	+	0	1	blank2r.bmp	492	1	YFFY	492	1	blank2r.bmp	572	3	versagen	866	1	!	-1	1	!	-1	0	0	0	0	0	0	0	0	0	0	0	0	0	0	0	0	0	0	0	0	0	0	0	0	0	0	0	0	0	0
072319	10:51:57	10:55:46	228370	5.0.10.0	5_exp_RW	75	Rpleas_acq	CS_A	JQQJ	ZHHZ	YFFY	LWWL	CPPC	DXXD	sonnig	träumen	vertrauen	gütig	genießen	küssen	sterben	töten	versagen	gierig	gemein	krank	1	acq_USunple_CSunple2_RW	acq2_RW	2	16	480	0	300	300	644	46	0	1	1	blank2r.bmp	0	1	+	0	1	blank2r.bmp	492	1	LWWL	492	1	blank2r.bmp	572	3	krank	866	1	!	1319	1	!	-1	0	0	0	0	0	0	0	0	0	0	0	0	0	0	0	0	0	0	0	0	0	0	0	0	0	0	0	0	0	0
072319	10:51:57	10:55:48	230676	5.0.10.0	5_exp_RW	75	Rpleas_acq	CS_A	JQQJ	ZHHZ	YFFY	LWWL	CPPC	DXXD	sonnig	träumen	vertrauen	gütig	genießen	küssen	sterben	töten	versagen	gierig	gemein	krank	1	acq_USunple_CSunple2_RW	acq2_RW	2	17	480	1	300	300	492	46	0	1	1	blank2r.bmp	0	1	+	0	1	blank2r.bmp	492	1	LWWL	492	1	blank2r.bmp	572	1	gierig	866	1	!	1319	1	!	1399	0	0	0	0	0	0	0	0	0	0	0	0	0	0	0	0	0	0	0	0	0	0	0	0	0	0	0	0	0	0
072319	10:51:57	10:55:50	233075	5.0.10.0	5_exp_RW	75	Rpleas_acq	CS_A	JQQJ	ZHHZ	YFFY	LWWL	CPPC	DXXD	sonnig	träumen	vertrauen	gütig	genießen	küssen	sterben	töten	versagen	gierig	gemein	krank	1	acq_USpleas_CSpleas2_RW	acq2_RW	2	18	480	0	300	300	628	50	0	1	1	blank2r.bmp	0	1	+	0	1	blank2r.bmp	492	1	ZHHZ	492	1	blank2r.bmp	572	1	gütig	866	1	!	1319	1	!	-1	0	0	0	0	0	0	0	0	0	0	0	0	0	0	0	0	0	0	0	0	0	0	0	0	0	0	0	0	0	0
072319	10:51:57	10:55:53	235368	5.0.10.0	5_exp_RW	75	Rpleas_acq	CS_A	JQQJ	ZHHZ	YFFY	LWWL	CPPC	DXXD	sonnig	träumen	vertrauen	gütig	genießen	küssen	sterben	töten	versagen	gierig	gemein	krank	1	acq_USunple_CSunple2_RW	acq2_RW	2	19	480	1	300	300	488	46	0	1	1	blank2r.bmp	0	1	+	0	1	blank2r.bmp	492	1	LWWL	492	1	blank2r.bmp	572	3	krank	866	1	!	1319	1	!	1386	0	0	0	0	0	0	0	0	0	0	0	0	0	0	0	0	0	0	0	0	0	0	0	0	0	0	0	0	0	0
072319	10:51:57	10:55:55	237753	5.0.10.0	5_exp_RW	75	Rpleas_acq	CS_A	JQQJ	ZHHZ	YFFY	LWWL	CPPC	DXXD	sonnig	träumen	vertrauen	gütig	genießen	küssen	sterben	töten	versagen	gierig	gemein	krank	1	acq_USpleas_CSpleas2_RW	acq2_RW	2	20	480	0	300	300	609	50	0	1	1	blank2r.bmp	0	1	+	0	1	blank2r.bmp	492	1	ZHHZ	492	1	blank2r.bmp	572	2	genießen	866	1	!	1319	1	!	-1	0	0	0	0	0	0	0	0	0	0	0	0	0	0	0	0	0	0	0	0	0	0	0	0	0	0	0	0	0	0
072319	10:51:57	10:55:57	239899	5.0.10.0	5_exp_RW	75	Rpleas_acq	CS_A	JQQJ	ZHHZ	YFFY	LWWL	CPPC	DXXD	sonnig	träumen	vertrauen	gütig	genießen	küssen	sterben	töten	versagen	gierig	gemein	krank	1	acq_USunple_CSunple2_RW	acq2_RW	2	21	480	0	300	300	366	46	0	1	1	blank2r.bmp	0	1	+	0	1	blank2r.bmp	492	1	LWWL	492	1	blank2r.bmp	572	2	gemein	866	1	!	-1	1	!	-1	0	0	0	0	0	0	0	0	0	0	0	0	0	0	0	0	0	0	0	0	0	0	0	0	0	0	0	0	0	0
072319	10:51:57	10:55:59	242178	5.0.10.0	5_exp_RW	75	Rpleas_acq	CS_A	JQQJ	ZHHZ	YFFY	LWWL	CPPC	DXXD	sonnig	träumen	vertrauen	gütig	genießen	küssen	sterben	töten	versagen	gierig	gemein	krank	1	acq_USunple_CSunple1_RW	acq2_RW	2	22	480	1	300	300	473	46	0	1	1	blank2r.bmp	0	1	+	0	1	blank2r.bmp	492	1	YFFY	492	1	blank2r.bmp	572	3	versagen	866	1	!	1319	1	!	1372	0	0	0	0	0	0	0	0	0	0	0	0	0	0	0	0	0	0	0	0	0	0	0	0	0	0	0	0	0	0
072319	10:51:57	10:56:02	244430	5.0.10.0	5_exp_RW	75	Rpleas_acq	CS_A	JQQJ	ZHHZ	YFFY	LWWL	CPPC	DXXD	sonnig	träumen	vertrauen	gütig	genießen	küssen	sterben	töten	versagen	gierig	gemein	krank	1	acq_USpleas_CSpleas2_RW	acq2_RW	2	23	480	1	300	300	454	50	0	1	1	blank2r.bmp	0	1	+	0	1	blank2r.bmp	492	1	ZHHZ	492	1	blank2r.bmp	572	3	küssen	866	1	!	1319	1	!	1359	0	0	0	0	0	0	0	0	0	0	0	0	0	0	0	0	0	0	0	0	0	0	0	0	0	0	0	0	0	0
072319	10:51:57	10:56:04	246616	5.0.10.0	5_exp_RW	75	Rpleas_acq	CS_A	JQQJ	ZHHZ	YFFY	LWWL	CPPC	DXXD	sonnig	träumen	vertrauen	gütig	genießen	küssen	sterben	töten	versagen	gierig	gemein	krank	1	acq_USunple_CSunple2_RW	acq2_RW	2	24	480	0	300	300	410	46	0	1	1	blank2r.bmp	0	1	+	0	1	blank2r.bmp	492	1	LWWL	492	1	blank2r.bmp	572	2	gemein	866	1	!	-1	1	!	-1	0	0	0	0	0	0	0	0	0	0	0	0	0	0	0	0	0	0	0	0	0	0	0	0	0	0	0	0	0	0
072319	10:51:57	10:56:18	260677	5.0.10.0	5_exp_RW	75	Rpleas_acq	CS_A	JQQJ	ZHHZ	YFFY	LWWL	CPPC	DXXD	sonnig	träumen	vertrauen	gütig	genießen	küssen	sterben	töten	versagen	gierig	gemein	krank	1	acq_USpleas_CSpleas2_RW	acq3_RW	3	1	453	0	300	300	572	50	0	1	1	blank2r.bmp	0	1	+	0	1	blank2r.bmp	492	1	ZHHZ	492	1	blank2r.bmp	572	2	genießen	866	1	!	1292	1	!	-1	0	0	0	0	0	0	0	0	0	0	0	0	0	0	0	0	0	0	0	0	0	0	0	0	0	0	0	0	0	0
072319	10:51:57	10:56:20	262743	5.0.10.0	5_exp_RW	75	Rpleas_acq	CS_A	JQQJ	ZHHZ	YFFY	LWWL	CPPC	DXXD	sonnig	träumen	vertrauen	gütig	genießen	küssen	sterben	töten	versagen	gierig	gemein	krank	1	acq_USunple_CSunple2_RW	acq3_RW	3	2	453	0	300	300	290	46	0	1	1	blank2r.bmp	0	1	+	0	1	blank2r.bmp	492	1	LWWL	492	1	blank2r.bmp	572	1	gierig	866	1	!	-1	1	!	-1	0	0	0	0	0	0	0	0	0	0	0	0	0	0	0	0	0	0	0	0	0	0	0	0	0	0	0	0	0	0
072319	10:51:57	10:56:22	265088	5.0.10.0	5_exp_RW	75	Rpleas_acq	CS_A	JQQJ	ZHHZ	YFFY	LWWL	CPPC	DXXD	sonnig	träumen	vertrauen	gütig	genießen	küssen	sterben	töten	versagen	gierig	gemein	krank	1	acq_USunple_CSunple1_RW	acq3_RW	3	3	453	0	300	300	569	46	0	1	1	blank2r.bmp	0	1	+	0	1	blank2r.bmp	492	1	YFFY	492	1	blank2r.bmp	572	1	sterben	866	1	!	1292	1	!	-1	0	0	0	0	0	0	0	0	0	0	0	0	0	0	0	0	0	0	0	0	0	0	0	0	0	0	0	0	0	0
072319	10:51:57	10:56:25	267527	5.0.10.0	5_exp_RW	75	Rpleas_acq	CS_A	JQQJ	ZHHZ	YFFY	LWWL	CPPC	DXXD	sonnig	träumen	vertrauen	gütig	genießen	küssen	sterben	töten	versagen	gierig	gemein	krank	1	acq_USunple_CSunple2_RW	acq3_RW	3	4	453	1	300	300	399	50	0	0	1	blank2r.bmp	0	1	+	0	1	blank2r.bmp	492	1	LWWL	492	1	blank2r.bmp	572	3	krank	866	1	FEHLER	1625	1	!	1292	1	!	1306	0	0	0	0	0	0	0	0	0	0	0	0	0	0	0	0	0	0	0	0	0	0	0	0	0	0	0
072319	10:51:57	10:56:27	269527	5.0.10.0	5_exp_RW	75	Rpleas_acq	CS_A	JQQJ	ZHHZ	YFFY	LWWL	CPPC	DXXD	sonnig	träumen	vertrauen	gütig	genießen	küssen	sterben	töten	versagen	gierig	gemein	krank	1	acq_USunple_CSunple1_RW	acq3_RW	3	5	453	1	300	300	422	46	0	1	1	blank2r.bmp	0	1	+	0	1	blank2r.bmp	492	1	YFFY	492	1	blank2r.bmp	572	2	töten	866	1	!	1292	1	!	1319	0	0	0	0	0	0	0	0	0	0	0	0	0	0	0	0	0	0	0	0	0	0	0	0	0	0	0	0	0	0
072319	10:51:57	10:56:29	271872	5.0.10.0	5_exp_RW	75	Rpleas_acq	CS_A	JQQJ	ZHHZ	YFFY	LWWL	CPPC	DXXD	sonnig	träumen	vertrauen	gütig	genießen	küssen	sterben	töten	versagen	gierig	gemein	krank	1	acq_USpleas_CSpleas1_RW	acq3_RW	3	6	453	0	300	300	574	50	0	1	1	blank2r.bmp	0	1	+	0	1	blank2r.bmp	492	1	JQQJ	492	1	blank2r.bmp	572	2	träumen	866	1	!	1292	1	!	-1	0	0	0	0	0	0	0	0	0	0	0	0	0	0	0	0	0	0	0	0	0	0	0	0	0	0	0	0	0	0
072319	10:51:57	10:56:32	274338	5.0.10.0	5_exp_RW	75	Rpleas_acq	CS_A	JQQJ	ZHHZ	YFFY	LWWL	CPPC	DXXD	sonnig	träumen	vertrauen	gütig	genießen	küssen	sterben	töten	versagen	gierig	gemein	krank	1	acq_USpleas_CSpleas2_RW	acq3_RW	3	7	453	1	300	300	450	46	0	0	1	blank2r.bmp	0	1	+	0	1	blank2r.bmp	492	1	ZHHZ	492	1	blank2r.bmp	572	1	gütig	866	1	FEHLER	1665	1	!	1292	1	!	1346	0	0	0	0	0	0	0	0	0	0	0	0	0	0	0	0	0	0	0	0	0	0	0	0	0	0	0
072319	10:51:57	10:56:34	276484	5.0.10.0	5_exp_RW	75	Rpleas_acq	CS_A	JQQJ	ZHHZ	YFFY	LWWL	CPPC	DXXD	sonnig	träumen	vertrauen	gütig	genießen	küssen	sterben	töten	versagen	gierig	gemein	krank	1	acq_USpleas_CSpleas2_RW	acq3_RW	3	8	453	0	300	300	367	46	0	0	1	blank2r.bmp	0	1	+	0	1	blank2r.bmp	492	1	ZHHZ	492	1	blank2r.bmp	572	1	gütig	866	1	FEHLER	1572	1	!	-1	1	!	-1	0	0	0	0	0	0	0	0	0	0	0	0	0	0	0	0	0	0	0	0	0	0	0	0	0	0	0
072319	10:51:57	10:56:36	278656	5.0.10.0	5_exp_RW	75	Rpleas_acq	CS_A	JQQJ	ZHHZ	YFFY	LWWL	CPPC	DXXD	sonnig	träumen	vertrauen	gütig	genießen	küssen	sterben	töten	versagen	gierig	gemein	krank	1	acq_USpleas_CSpleas1_RW	acq3_RW	3	9	453	0	300	300	610	50	0	1	1	blank2r.bmp	0	1	+	0	1	blank2r.bmp	492	1	JQQJ	492	1	blank2r.bmp	572	3	vertrauen	866	1	!	1292	1	!	-1	0	0	0	0	0	0	0	0	0	0	0	0	0	0	0	0	0	0	0	0	0	0	0	0	0	0	0	0	0	0
072319	10:51:57	10:56:38	280988	5.0.10.0	5_exp_RW	75	Rpleas_acq	CS_A	JQQJ	ZHHZ	YFFY	LWWL	CPPC	DXXD	sonnig	träumen	vertrauen	gütig	genießen	küssen	sterben	töten	versagen	gierig	gemein	krank	1	acq_USpleas_CSpleas2_RW	acq3_RW	3	10	453	1	300	300	518	50	0	1	1	blank2r.bmp	0	1	+	0	1	blank2r.bmp	492	1	ZHHZ	492	1	blank2r.bmp	572	2	genießen	866	1	!	1292	1	!	1426	0	0	0	0	0	0	0	0	0	0	0	0	0	0	0	0	0	0	0	0	0	0	0	0	0	0	0	0	0	0
072319	10:51:57	10:56:40	283188	5.0.10.0	5_exp_RW	75	Rpleas_acq	CS_A	JQQJ	ZHHZ	YFFY	LWWL	CPPC	DXXD	sonnig	träumen	vertrauen	gütig	genießen	küssen	sterben	töten	versagen	gierig	gemein	krank	1	acq_USpleas_CSpleas1_RW	acq3_RW	3	11	453	1	300	300	406	50	0	1	1	blank2r.bmp	0	1	+	0	1	blank2r.bmp	492	1	JQQJ	492	1	blank2r.bmp	572	3	vertrauen	866	1	!	1292	1	!	1306	0	0	0	0	0	0	0	0	0	0	0	0	0	0	0	0	0	0	0	0	0	0	0	0	0	0	0	0	0	0
072319	10:51:57	10:56:43	285467	5.0.10.0	5_exp_RW	75	Rpleas_acq	CS_A	JQQJ	ZHHZ	YFFY	LWWL	CPPC	DXXD	sonnig	träumen	vertrauen	gütig	genießen	küssen	sterben	töten	versagen	gierig	gemein	krank	1	acq_USunple_CSunple2_RW	acq3_RW	3	12	453	0	300	300	291	50	0	0	1	blank2r.bmp	0	1	+	0	1	blank2r.bmp	492	1	LWWL	492	1	blank2r.bmp	572	1	gierig	866	1	FEHLER	1492	1	!	-1	1	!	-1	0	0	0	0	0	0	0	0	0	0	0	0	0	0	0	0	0	0	0	0	0	0	0	0	0	0	0
072319	10:51:57	10:56:45	287332	5.0.10.0	5_exp_RW	75	Rpleas_acq	CS_A	JQQJ	ZHHZ	YFFY	LWWL	CPPC	DXXD	sonnig	träumen	vertrauen	gütig	genießen	küssen	sterben	töten	versagen	gierig	gemein	krank	1	acq_USunple_CSunple2_RW	acq3_RW	3	13	453	0	300	300	309	46	0	1	1	blank2r.bmp	0	1	+	0	1	blank2r.bmp	492	1	LWWL	492	1	blank2r.bmp	572	2	gemein	866	1	!	-1	1	!	-1	0	0	0	0	0	0	0	0	0	0	0	0	0	0	0	0	0	0	0	0	0	0	0	0	0	0	0	0	0	0
072319	10:51:57	10:56:47	289558	5.0.10.0	5_exp_RW	75	Rpleas_acq	CS_A	JQQJ	ZHHZ	YFFY	LWWL	CPPC	DXXD	sonnig	träumen	vertrauen	gütig	genießen	küssen	sterben	töten	versagen	gierig	gemein	krank	1	acq_USpleas_CSpleas2_RW	acq3_RW	3	14	453	1	300	300	408	50	0	1	1	blank2r.bmp	0	1	+	0	1	blank2r.bmp	492	1	ZHHZ	492	1	blank2r.bmp	572	3	küssen	866	1	!	1292	1	!	1306	0	0	0	0	0	0	0	0	0	0	0	0	0	0	0	0	0	0	0	0	0	0	0	0	0	0	0	0	0	0
072319	10:51:57	10:56:49	291797	5.0.10.0	5_exp_RW	75	Rpleas_acq	CS_A	JQQJ	ZHHZ	YFFY	LWWL	CPPC	DXXD	sonnig	träumen	vertrauen	gütig	genießen	küssen	sterben	töten	versagen	gierig	gemein	krank	1	acq_USunple_CSunple1_RW	acq3_RW	3	15	453	1	300	300	451	46	0	1	1	blank2r.bmp	0	1	+	0	1	blank2r.bmp	492	1	YFFY	492	1	blank2r.bmp	572	2	töten	866	1	!	1292	1	!	1346	0	0	0	0	0	0	0	0	0	0	0	0	0	0	0	0	0	0	0	0	0	0	0	0	0	0	0	0	0	0
072319	10:51:57	10:56:51	294130	5.0.10.0	5_exp_RW	75	Rpleas_acq	CS_A	JQQJ	ZHHZ	YFFY	LWWL	CPPC	DXXD	sonnig	träumen	vertrauen	gütig	genießen	küssen	sterben	töten	versagen	gierig	gemein	krank	1	acq_USpleas_CSpleas2_RW	acq3_RW	3	16	453	0	300	300	568	50	0	1	1	blank2r.bmp	0	1	+	0	1	blank2r.bmp	492	1	ZHHZ	492	1	blank2r.bmp	572	2	genießen	866	1	!	1292	1	!	-1	0	0	0	0	0	0	0	0	0	0	0	0	0	0	0	0	0	0	0	0	0	0	0	0	0	0	0	0	0	0
072319	10:51:57	10:56:53	296275	5.0.10.0	5_exp_RW	75	Rpleas_acq	CS_A	JQQJ	ZHHZ	YFFY	LWWL	CPPC	DXXD	sonnig	träumen	vertrauen	gütig	genießen	küssen	sterben	töten	versagen	gierig	gemein	krank	1	acq_USunple_CSunple2_RW	acq3_RW	3	17	453	0	300	300	360	46	0	1	1	blank2r.bmp	0	1	+	0	1	blank2r.bmp	492	1	LWWL	492	1	blank2r.bmp	572	3	krank	866	1	!	-1	1	!	-1	0	0	0	0	0	0	0	0	0	0	0	0	0	0	0	0	0	0	0	0	0	0	0	0	0	0	0	0	0	0
072319	10:51:57	10:56:56	298688	5.0.10.0	5_exp_RW	75	Rpleas_acq	CS_A	JQQJ	ZHHZ	YFFY	LWWL	CPPC	DXXD	sonnig	träumen	vertrauen	gütig	genießen	küssen	sterben	töten	versagen	gierig	gemein	krank	1	acq_USpleas_CSpleas1_RW	acq3_RW	3	18	453	0	300	300	633	50	0	1	1	blank2r.bmp	0	1	+	0	1	blank2r.bmp	492	1	JQQJ	492	1	blank2r.bmp	572	1	sonnig	866	1	!	1292	1	!	-1	0	0	0	0	0	0	0	0	0	0	0	0	0	0	0	0	0	0	0	0	0	0	0	0	0	0	0	0	0	0
072319	10:51:57	10:56:58	300927	5.0.10.0	5_exp_RW	75	Rpleas_acq	CS_A	JQQJ	ZHHZ	YFFY	LWWL	CPPC	DXXD	sonnig	träumen	vertrauen	gütig	genießen	küssen	sterben	töten	versagen	gierig	gemein	krank	1	acq_USpleas_CSpleas1_RW	acq3_RW	3	19	453	1	300	300	438	50	0	1	1	blank2r.bmp	0	1	+	0	1	blank2r.bmp	492	1	JQQJ	492	1	blank2r.bmp	572	2	träumen	866	1	!	1292	1	!	1332	0	0	0	0	0	0	0	0	0	0	0	0	0	0	0	0	0	0	0	0	0	0	0	0	0	0	0	0	0	0
072319	10:51:57	10:57:00	303246	5.0.10.0	5_exp_RW	75	Rpleas_acq	CS_A	JQQJ	ZHHZ	YFFY	LWWL	CPPC	DXXD	sonnig	träumen	vertrauen	gütig	genießen	küssen	sterben	töten	versagen	gierig	gemein	krank	1	acq_USunple_CSunple2_RW	acq3_RW	3	20	453	0	300	300	557	46	0	1	1	blank2r.bmp	0	1	+	0	1	blank2r.bmp	492	1	LWWL	492	1	blank2r.bmp	572	2	gemein	866	1	!	1292	1	!	-1	0	0	0	0	0	0	0	0	0	0	0	0	0	0	0	0	0	0	0	0	0	0	0	0	0	0	0	0	0	0
072319	10:51:57	10:57:03	305485	5.0.10.0	5_exp_RW	75	Rpleas_acq	CS_A	JQQJ	ZHHZ	YFFY	LWWL	CPPC	DXXD	sonnig	träumen	vertrauen	gütig	genießen	küssen	sterben	töten	versagen	gierig	gemein	krank	1	acq_USunple_CSunple1_RW	acq3_RW	3	21	453	1	300	300	415	46	0	1	1	blank2r.bmp	0	1	+	0	1	blank2r.bmp	492	1	YFFY	492	1	blank2r.bmp	572	3	versagen	866	1	!	1292	1	!	1319	0	0	0	0	0	0	0	0	0	0	0	0	0	0	0	0	0	0	0	0	0	0	0	0	0	0	0	0	0	0
072319	10:51:57	10:57:05	307617	5.0.10.0	5_exp_RW	75	Rpleas_acq	CS_A	JQQJ	ZHHZ	YFFY	LWWL	CPPC	DXXD	sonnig	träumen	vertrauen	gütig	genießen	küssen	sterben	töten	versagen	gierig	gemein	krank	1	acq_USunple_CSunple1_RW	acq3_RW	3	22	453	0	300	300	366	46	0	1	1	blank2r.bmp	0	1	+	0	1	blank2r.bmp	492	1	YFFY	492	1	blank2r.bmp	572	1	sterben	866	1	!	-1	1	!	-1	0	0	0	0	0	0	0	0	0	0	0	0	0	0	0	0	0	0	0	0	0	0	0	0	0	0	0	0	0	0
072319	10:51:57	10:57:07	309896	5.0.10.0	5_exp_RW	75	Rpleas_acq	CS_A	JQQJ	ZHHZ	YFFY	LWWL	CPPC	DXXD	sonnig	träumen	vertrauen	gütig	genießen	küssen	sterben	töten	versagen	gierig	gemein	krank	1	acq_USpleas_CSpleas1_RW	acq3_RW	3	23	453	1	300	300	466	50	0	1	1	blank2r.bmp	0	1	+	0	1	blank2r.bmp	492	1	JQQJ	492	1	blank2r.bmp	572	2	träumen	866	1	!	1292	1	!	1372	0	0	0	0	0	0	0	0	0	0	0	0	0	0	0	0	0	0	0	0	0	0	0	0	0	0	0	0	0	0
072319	10:51:57	10:57:09	312202	5.0.10.0	5_exp_RW	75	Rpleas_acq	CS_A	JQQJ	ZHHZ	YFFY	LWWL	CPPC	DXXD	sonnig	träumen	vertrauen	gütig	genießen	küssen	sterben	töten	versagen	gierig	gemein	krank	1	acq_USunple_CSunple1_RW	acq3_RW	3	24	453	0	300	300	536	46	0	1	1	blank2r.bmp	0	1	+	0	1	blank2r.bmp	492	1	YFFY	492	1	blank2r.bmp	572	3	versagen	866	1	!	1292	1	!	-1	0	0	0	0	0	0	0	0	0	0	0	0	0	0	0	0	0	0	0	0	0	0	0	0	0	0	0	0	0	0
072319	10:51:57	10:57:30	333020	5.0.10.0	5_exp_RW	75	Rpleas_acq	CS_A	JQQJ	ZHHZ	YFFY	LWWL	CPPC	DXXD	sonnig	träumen	vertrauen	gütig	genießen	küssen	sterben	töten	versagen	gierig	gemein	krank	1	acq_USpleas_CSpleas1_RW	acq4567_RW	4	1	400	0	300	300	602	50	0	1	1	blank2r.bmp	0	1	+	0	1	blank2r.bmp	492	1	JQQJ	492	1	blank2r.bmp	572	3	vertrauen	866	1	!	1239	1	!	-1	0	0	0	0	0	0	0	0	0	0	0	0	0	0	0	0	0	0	0	0	0	0	0	0	0	0	0	0	0	0
072319	10:51:57	10:57:32	335113	5.0.10.0	5_exp_RW	75	Rpleas_acq	CS_A	JQQJ	ZHHZ	YFFY	LWWL	CPPC	DXXD	sonnig	träumen	vertrauen	gütig	genießen	küssen	sterben	töten	versagen	gierig	gemein	krank	1	acq_USunple_CSunple2_RW	acq4567_RW	4	2	400	0	300	300	307	46	0	1	1	blank2r.bmp	0	1	+	0	1	blank2r.bmp	492	1	LWWL	492	1	blank2r.bmp	572	3	krank	866	1	!	-1	1	!	-1	0	0	0	0	0	0	0	0	0	0	0	0	0	0	0	0	0	0	0	0	0	0	0	0	0	0	0	0	0	0
072319	10:51:57	10:57:35	337378	5.0.10.0	5_exp_RW	75	Rpleas_acq	CS_A	JQQJ	ZHHZ	YFFY	LWWL	CPPC	DXXD	sonnig	träumen	vertrauen	gütig	genießen	küssen	sterben	töten	versagen	gierig	gemein	krank	1	acq_USunple_CSunple2_RW	acq4567_RW	4	3	400	1	300	300	460	46	0	1	1	blank2r.bmp	0	1	+	0	1	blank2r.bmp	492	1	LWWL	492	1	blank2r.bmp	572	1	gierig	866	1	!	1239	1	!	1359	0	0	0	0	0	0	0	0	0	0	0	0	0	0	0	0	0	0	0	0	0	0	0	0	0	0	0	0	0	0
072319	10:51:57	10:57:37	339564	5.0.10.0	5_exp_RW	75	Rpleas_acq	CS_A	JQQJ	ZHHZ	YFFY	LWWL	CPPC	DXXD	sonnig	träumen	vertrauen	gütig	genießen	küssen	sterben	töten	versagen	gierig	gemein	krank	1	acq_USunple_CSunple1_RW	acq4567_RW	4	4	400	1	300	300	398	46	0	1	1	blank2r.bmp	0	1	+	0	1	blank2r.bmp	492	1	YFFY	492	1	blank2r.bmp	572	2	töten	866	1	!	1239	1	!	1292	0	0	0	0	0	0	0	0	0	0	0	0	0	0	0	0	0	0	0	0	0	0	0	0	0	0	0	0	0	0
072319	10:51:57	10:57:39	341656	5.0.10.0	5_exp_RW	75	Rpleas_acq	CS_A	JQQJ	ZHHZ	YFFY	LWWL	CPPC	DXXD	sonnig	träumen	vertrauen	gütig	genießen	küssen	sterben	töten	versagen	gierig	gemein	krank	1	acq_USpleas_CSpleas2_RW	acq4567_RW	4	5	400	0	300	300	322	50	0	1	1	blank2r.bmp	0	1	+	0	1	blank2r.bmp	492	1	ZHHZ	492	1	blank2r.bmp	572	3	küssen	866	1	!	-1	1	!	-1	0	0	0	0	0	0	0	0	0	0	0	0	0	0	0	0	0	0	0	0	0	0	0	0	0	0	0	0	0	0
072319	10:51:57	10:57:41	343842	5.0.10.0	5_exp_RW	75	Rpleas_acq	CS_A	JQQJ	ZHHZ	YFFY	LWWL	CPPC	DXXD	sonnig	träumen	vertrauen	gütig	genießen	küssen	sterben	töten	versagen	gierig	gemein	krank	1	acq_USpleas_CSpleas1_RW	acq4567_RW	4	6	400	1	300	300	372	50	0	1	1	blank2r.bmp	0	1	+	0	1	blank2r.bmp	492	1	JQQJ	492	1	blank2r.bmp	572	1	sonnig	866	1	!	1239	1	!	1279	0	0	0	0	0	0	0	0	0	0	0	0	0	0	0	0	0	0	0	0	0	0	0	0	0	0	0	0	0	0
072319	10:51:57	10:57:43	346055	5.0.10.0	5_exp_RW	75	Rpleas_acq	CS_A	JQQJ	ZHHZ	YFFY	LWWL	CPPC	DXXD	sonnig	träumen	vertrauen	gütig	genießen	küssen	sterben	töten	versagen	gierig	gemein	krank	1	acq_USpleas_CSpleas2_RW	acq4567_RW	4	7	400	1	300	300	416	50	0	1	1	blank2r.bmp	0	1	+	0	1	blank2r.bmp	492	1	ZHHZ	492	1	blank2r.bmp	572	1	gütig	866	1	!	1239	1	!	1319	0	0	0	0	0	0	0	0	0	0	0	0	0	0	0	0	0	0	0	0	0	0	0	0	0	0	0	0	0	0
072319	10:51:57	10:57:45	348214	5.0.10.0	5_exp_RW	75	Rpleas_acq	CS_A	JQQJ	ZHHZ	YFFY	LWWL	CPPC	DXXD	sonnig	träumen	vertrauen	gütig	genießen	küssen	sterben	töten	versagen	gierig	gemein	krank	1	acq_USunple_CSunple1_RW	acq4567_RW	4	8	400	1	300	300	365	46	0	1	1	blank2r.bmp	0	1	+	0	1	blank2r.bmp	492	1	YFFY	492	1	blank2r.bmp	572	1	sterben	866	1	!	1239	1	!	1266	0	0	0	0	0	0	0	0	0	0	0	0	0	0	0	0	0	0	0	0	0	0	0	0	0	0	0	0	0	0
072319	10:51:57	10:57:48	350373	5.0.10.0	5_exp_RW	75	Rpleas_acq	CS_A	JQQJ	ZHHZ	YFFY	LWWL	CPPC	DXXD	sonnig	träumen	vertrauen	gütig	genießen	küssen	sterben	töten	versagen	gierig	gemein	krank	1	acq_USunple_CSunple1_RW	acq4567_RW	4	9	400	1	300	300	363	46	0	1	1	blank2r.bmp	0	1	+	0	1	blank2r.bmp	492	1	YFFY	492	1	blank2r.bmp	572	3	versagen	866	1	!	1239	1	!	1266	0	0	0	0	0	0	0	0	0	0	0	0	0	0	0	0	0	0	0	0	0	0	0	0	0	0	0	0	0	0
072319	10:51:57	10:57:50	352519	5.0.10.0	5_exp_RW	75	Rpleas_acq	CS_A	JQQJ	ZHHZ	YFFY	LWWL	CPPC	DXXD	sonnig	träumen	vertrauen	gütig	genießen	küssen	sterben	töten	versagen	gierig	gemein	krank	1	acq_USunple_CSunple2_RW	acq4567_RW	4	10	400	1	300	300	346	50	0	0	1	blank2r.bmp	0	1	+	0	1	blank2r.bmp	492	1	LWWL	492	1	blank2r.bmp	572	1	gierig	866	1	!	1239	1	!	1252	0	0	0	0	0	0	0	0	0	0	0	0	0	0	0	0	0	0	0	0	0	0	0	0	0	0	0	0	0	0
072319	10:51:57	10:57:52	354704	5.0.10.0	5_exp_RW	75	Rpleas_acq	CS_A	JQQJ	ZHHZ	YFFY	LWWL	CPPC	DXXD	sonnig	träumen	vertrauen	gütig	genießen	küssen	sterben	töten	versagen	gierig	gemein	krank	1	acq_USpleas_CSpleas2_RW	acq4567_RW	4	11	400	1	300	300	393	50	0	1	1	blank2r.bmp	0	1	+	0	1	blank2r.bmp	492	1	ZHHZ	492	1	blank2r.bmp	572	3	küssen	866	1	!	1239	1	!	1292	0	0	0	0	0	0	0	0	0	0	0	0	0	0	0	0	0	0	0	0	0	0	0	0	0	0	0	0	0	0
072319	10:51:57	10:57:54	356957	5.0.10.0	5_exp_RW	75	Rpleas_acq	CS_A	JQQJ	ZHHZ	YFFY	LWWL	CPPC	DXXD	sonnig	träumen	vertrauen	gütig	genießen	küssen	sterben	töten	versagen	gierig	gemein	krank	1	acq_USunple_CSunple2_RW	acq4567_RW	4	12	400	0	300	300	479	50	0	0	1	blank2r.bmp	0	1	+	0	1	blank2r.bmp	492	1	LWWL	492	1	blank2r.bmp	572	3	krank	866	1	!	1239	1	!	-1	0	0	0	0	0	0	0	0	0	0	0	0	0	0	0	0	0	0	0	0	0	0	0	0	0	0	0	0	0	0
072319	10:51:57	10:57:56	359142	5.0.10.0	5_exp_RW	75	Rpleas_acq	CS_A	JQQJ	ZHHZ	YFFY	LWWL	CPPC	DXXD	sonnig	träumen	vertrauen	gütig	genießen	küssen	sterben	töten	versagen	gierig	gemein	krank	1	acq_USunple_CSunple2_RW	acq4567_RW	4	13	400	1	300	300	367	46	0	1	1	blank2r.bmp	0	1	+	0	1	blank2r.bmp	492	1	LWWL	492	1	blank2r.bmp	572	2	gemein	866	1	!	1239	1	!	1266	0	0	0	0	0	0	0	0	0	0	0	0	0	0	0	0	0	0	0	0	0	0	0	0	0	0	0	0	0	0
072319	10:51:57	10:57:58	361248	5.0.10.0	5_exp_RW	75	Rpleas_acq	CS_A	JQQJ	ZHHZ	YFFY	LWWL	CPPC	DXXD	sonnig	träumen	vertrauen	gütig	genießen	küssen	sterben	töten	versagen	gierig	gemein	krank	1	acq_USunple_CSunple1_RW	acq4567_RW	4	14	400	0	300	300	332	46	0	1	1	blank2r.bmp	0	1	+	0	1	blank2r.bmp	492	1	YFFY	492	1	blank2r.bmp	572	2	töten	866	1	!	-1	1	!	-1	0	0	0	0	0	0	0	0	0	0	0	0	0	0	0	0	0	0	0	0	0	0	0	0	0	0	0	0	0	0
072319	10:51:57	10:58:01	363407	5.0.10.0	5_exp_RW	75	Rpleas_acq	CS_A	JQQJ	ZHHZ	YFFY	LWWL	CPPC	DXXD	sonnig	träumen	vertrauen	gütig	genießen	küssen	sterben	töten	versagen	gierig	gemein	krank	1	acq_USunple_CSunple1_RW	acq4567_RW	4	15	400	1	300	300	346	46	0	1	1	blank2r.bmp	0	1	+	0	1	blank2r.bmp	492	1	YFFY	492	1	blank2r.bmp	572	1	sterben	866	1	!	1239	1	!	1252	0	0	0	0	0	0	0	0	0	0	0	0	0	0	0	0	0	0	0	0	0	0	0	0	0	0	0	0	0	0
072319	10:51:57	10:58:03	365673	5.0.10.0	5_exp_RW	75	Rpleas_acq	CS_A	JQQJ	ZHHZ	YFFY	LWWL	CPPC	DXXD	sonnig	träumen	vertrauen	gütig	genießen	küssen	sterben	töten	versagen	gierig	gemein	krank	1	acq_USpleas_CSpleas2_RW	acq4567_RW	4	16	400	0	300	300	493	50	0	1	1	blank2r.bmp	0	1	+	0	1	blank2r.bmp	492	1	ZHHZ	492	1	blank2r.bmp	572	1	gütig	866	1	!	1239	1	!	-1	0	0	0	0	0	0	0	0	0	0	0	0	0	0	0	0	0	0	0	0	0	0	0	0	0	0	0	0	0	0
072319	10:51:57	10:58:05	367925	5.0.10.0	5_exp_RW	75	Rpleas_acq	CS_A	JQQJ	ZHHZ	YFFY	LWWL	CPPC	DXXD	sonnig	träumen	vertrauen	gütig	genießen	küssen	sterben	töten	versagen	gierig	gemein	krank	1	acq_USpleas_CSpleas1_RW	acq4567_RW	4	17	400	1	300	300	447	50	0	1	1	blank2r.bmp	0	1	+	0	1	blank2r.bmp	492	1	JQQJ	492	1	blank2r.bmp	572	1	sonnig	866	1	!	1239	1	!	1346	0	0	0	0	0	0	0	0	0	0	0	0	0	0	0	0	0	0	0	0	0	0	0	0	0	0	0	0	0	0
072319	10:51:57	10:58:07	370085	5.0.10.0	5_exp_RW	75	Rpleas_acq	CS_A	JQQJ	ZHHZ	YFFY	LWWL	CPPC	DXXD	sonnig	träumen	vertrauen	gütig	genießen	küssen	sterben	töten	versagen	gierig	gemein	krank	1	acq_USpleas_CSpleas1_RW	acq4567_RW	4	18	400	1	300	300	359	50	0	1	1	blank2r.bmp	0	1	+	0	1	blank2r.bmp	492	1	JQQJ	492	1	blank2r.bmp	572	3	vertrauen	866	1	!	1239	1	!	1266	0	0	0	0	0	0	0	0	0	0	0	0	0	0	0	0	0	0	0	0	0	0	0	0	0	0	0	0	0	0
072319	10:51:57	10:58:09	372297	5.0.10.0	5_exp_RW	75	Rpleas_acq	CS_A	JQQJ	ZHHZ	YFFY	LWWL	CPPC	DXXD	sonnig	träumen	vertrauen	gütig	genießen	küssen	sterben	töten	versagen	gierig	gemein	krank	1	acq_USpleas_CSpleas1_RW	acq4567_RW	4	19	400	1	300	300	419	50	0	1	1	blank2r.bmp	0	1	+	0	1	blank2r.bmp	492	1	JQQJ	492	1	blank2r.bmp	572	2	träumen	866	1	!	1239	1	!	1319	0	0	0	0	0	0	0	0	0	0	0	0	0	0	0	0	0	0	0	0	0	0	0	0	0	0	0	0	0	0
072319	10:51:57	10:58:12	374483	5.0.10.0	5_exp_RW	75	Rpleas_acq	CS_A	JQQJ	ZHHZ	YFFY	LWWL	CPPC	DXXD	sonnig	träumen	vertrauen	gütig	genießen	küssen	sterben	töten	versagen	gierig	gemein	krank	1	acq_USpleas_CSpleas2_RW	acq4567_RW	4	20	400	1	300	300	395	50	0	1	1	blank2r.bmp	0	1	+	0	1	blank2r.bmp	492	1	ZHHZ	492	1	blank2r.bmp	572	2	genießen	866	1	!	1239	1	!	1292	0	0	0	0	0	0	0	0	0	0	0	0	0	0	0	0	0	0	0	0	0	0	0	0	0	0	0	0	0	0
072319	10:51:57	10:58:14	376549	5.0.10.0	5_exp_RW	75	Rpleas_acq	CS_A	JQQJ	ZHHZ	YFFY	LWWL	CPPC	DXXD	sonnig	träumen	vertrauen	gütig	genießen	küssen	sterben	töten	versagen	gierig	gemein	krank	1	acq_USunple_CSunple1_RW	acq4567_RW	4	21	400	0	300	300	297	46	0	1	1	blank2r.bmp	0	1	+	0	1	blank2r.bmp	492	1	YFFY	492	1	blank2r.bmp	572	1	sterben	866	1	!	-1	1	!	-1	0	0	0	0	0	0	0	0	0	0	0	0	0	0	0	0	0	0	0	0	0	0	0	0	0	0	0	0	0	0
072319	10:51:57	10:58:16	378654	5.0.10.0	5_exp_RW	75	Rpleas_acq	CS_A	JQQJ	ZHHZ	YFFY	LWWL	CPPC	DXXD	sonnig	träumen	vertrauen	gütig	genießen	küssen	sterben	töten	versagen	gierig	gemein	krank	1	acq_USunple_CSunple1_RW	acq4567_RW	4	22	400	0	300	300	307	46	0	1	1	blank2r.bmp	0	1	+	0	1	blank2r.bmp	492	1	YFFY	492	1	blank2r.bmp	572	2	töten	866	1	!	-1	1	!	-1	0	0	0	0	0	0	0	0	0	0	0	0	0	0	0	0	0	0	0	0	0	0	0	0	0	0	0	0	0	0
072319	10:51:57	10:58:18	380947	5.0.10.0	5_exp_RW	75	Rpleas_acq	CS_A	JQQJ	ZHHZ	YFFY	LWWL	CPPC	DXXD	sonnig	träumen	vertrauen	gütig	genießen	küssen	sterben	töten	versagen	gierig	gemein	krank	1	acq_USunple_CSunple2_RW	acq4567_RW	4	23	400	0	300	300	501	46	0	1	1	blank2r.bmp	0	1	+	0	1	blank2r.bmp	492	1	LWWL	492	1	blank2r.bmp	572	2	gemein	866	1	!	1239	1	!	-1	0	0	0	0	0	0	0	0	0	0	0	0	0	0	0	0	0	0	0	0	0	0	0	0	0	0	0	0	0	0
072319	10:51:57	10:58:20	383039	5.0.10.0	5_exp_RW	75	Rpleas_acq	CS_A	JQQJ	ZHHZ	YFFY	LWWL	CPPC	DXXD	sonnig	träumen	vertrauen	gütig	genießen	küssen	sterben	töten	versagen	gierig	gemein	krank	1	acq_USpleas_CSpleas1_RW	acq4567_RW	4	24	400	0	300	300	312	50	0	1	1	blank2r.bmp	0	1	+	0	1	blank2r.bmp	492	1	JQQJ	492	1	blank2r.bmp	572	1	sonnig	866	1	!	-1	1	!	-1	0	0	0	0	0	0	0	0	0	0	0	0	0	0	0	0	0	0	0	0	0	0	0	0	0	0	0	0	0	0
072319	10:51:57	10:58:22	385212	5.0.10.0	5_exp_RW	75	Rpleas_acq	CS_A	JQQJ	ZHHZ	YFFY	LWWL	CPPC	DXXD	sonnig	träumen	vertrauen	gütig	genießen	küssen	sterben	töten	versagen	gierig	gemein	krank	1	acq_USpleas_CSpleas1_RW	acq4567_RW	4	25	400	1	300	300	346	50	0	1	1	blank2r.bmp	0	1	+	0	1	blank2r.bmp	492	1	JQQJ	492	1	blank2r.bmp	572	2	träumen	866	1	!	1239	1	!	1252	0	0	0	0	0	0	0	0	0	0	0	0	0	0	0	0	0	0	0	0	0	0	0	0	0	0	0	0	0	0
072319	10:51:57	10:58:25	387357	5.0.10.0	5_exp_RW	75	Rpleas_acq	CS_A	JQQJ	ZHHZ	YFFY	LWWL	CPPC	DXXD	sonnig	träumen	vertrauen	gütig	genießen	küssen	sterben	töten	versagen	gierig	gemein	krank	1	acq_USunple_CSunple2_RW	acq4567_RW	4	26	400	1	300	300	346	46	0	1	1	blank2r.bmp	0	1	+	0	1	blank2r.bmp	492	1	LWWL	492	1	blank2r.bmp	572	3	krank	866	1	!	1239	1	!	1252	0	0	0	0	0	0	0	0	0	0	0	0	0	0	0	0	0	0	0	0	0	0	0	0	0	0	0	0	0	0
072319	10:51:57	10:58:27	389516	5.0.10.0	5_exp_RW	75	Rpleas_acq	CS_A	JQQJ	ZHHZ	YFFY	LWWL	CPPC	DXXD	sonnig	träumen	vertrauen	gütig	genießen	küssen	sterben	töten	versagen	gierig	gemein	krank	1	acq_USunple_CSunple2_RW	acq4567_RW	4	27	400	1	300	300	346	46	0	1	1	blank2r.bmp	0	1	+	0	1	blank2r.bmp	492	1	LWWL	492	1	blank2r.bmp	572	1	gierig	866	1	!	1239	1	!	1252	0	0	0	0	0	0	0	0	0	0	0	0	0	0	0	0	0	0	0	0	0	0	0	0	0	0	0	0	0	0
072319	10:51:57	10:58:29	391755	5.0.10.0	5_exp_RW	75	Rpleas_acq	CS_A	JQQJ	ZHHZ	YFFY	LWWL	CPPC	DXXD	sonnig	träumen	vertrauen	gütig	genießen	küssen	sterben	töten	versagen	gierig	gemein	krank	1	acq_USpleas_CSpleas1_RW	acq4567_RW	4	28	400	1	300	300	440	50	0	1	1	blank2r.bmp	0	1	+	0	1	blank2r.bmp	492	1	JQQJ	492	1	blank2r.bmp	572	3	vertrauen	866	1	!	1239	1	!	1346	0	0	0	0	0	0	0	0	0	0	0	0	0	0	0	0	0	0	0	0	0	0	0	0	0	0	0	0	0	0
072319	10:51:57	10:58:31	393808	5.0.10.0	5_exp_RW	75	Rpleas_acq	CS_A	JQQJ	ZHHZ	YFFY	LWWL	CPPC	DXXD	sonnig	träumen	vertrauen	gütig	genießen	küssen	sterben	töten	versagen	gierig	gemein	krank	1	acq_USunple_CSunple1_RW	acq4567_RW	4	29	400	0	300	300	277	46	0	1	1	blank2r.bmp	0	1	+	0	1	blank2r.bmp	492	1	YFFY	492	1	blank2r.bmp	572	3	versagen	866	1	!	-1	1	!	-1	0	0	0	0	0	0	0	0	0	0	0	0	0	0	0	0	0	0	0	0	0	0	0	0	0	0	0	0	0	0
072319	10:51:57	10:58:33	396007	5.0.10.0	5_exp_RW	75	Rpleas_acq	CS_A	JQQJ	ZHHZ	YFFY	LWWL	CPPC	DXXD	sonnig	träumen	vertrauen	gütig	genießen	küssen	sterben	töten	versagen	gierig	gemein	krank	1	acq_USpleas_CSpleas2_RW	acq4567_RW	4	30	400	1	300	300	396	50	0	1	1	blank2r.bmp	0	1	+	0	1	blank2r.bmp	492	1	ZHHZ	492	1	blank2r.bmp	572	3	küssen	866	1	!	1239	1	!	1292	0	0	0	0	0	0	0	0	0	0	0	0	0	0	0	0	0	0	0	0	0	0	0	0	0	0	0	0	0	0
072319	10:51:57	10:58:35	398273	5.0.10.0	5_exp_RW	75	Rpleas_acq	CS_A	JQQJ	ZHHZ	YFFY	LWWL	CPPC	DXXD	sonnig	träumen	vertrauen	gütig	genießen	küssen	sterben	töten	versagen	gierig	gemein	krank	1	acq_USunple_CSunple1_RW	acq4567_RW	4	31	400	0	300	300	497	46	0	1	1	blank2r.bmp	0	1	+	0	1	blank2r.bmp	492	1	YFFY	492	1	blank2r.bmp	572	3	versagen	866	1	!	1239	1	!	-1	0	0	0	0	0	0	0	0	0	0	0	0	0	0	0	0	0	0	0	0	0	0	0	0	0	0	0	0	0	0
072319	10:51:57	10:58:38	400552	5.0.10.0	5_exp_RW	75	Rpleas_acq	CS_A	JQQJ	ZHHZ	YFFY	LWWL	CPPC	DXXD	sonnig	träumen	vertrauen	gütig	genießen	küssen	sterben	töten	versagen	gierig	gemein	krank	1	acq_USpleas_CSpleas2_RW	acq4567_RW	4	32	400	0	300	300	499	50	0	1	1	blank2r.bmp	0	1	+	0	1	blank2r.bmp	492	1	ZHHZ	492	1	blank2r.bmp	572	1	gütig	866	1	!	1239	1	!	-1	0	0	0	0	0	0	0	0	0	0	0	0	0	0	0	0	0	0	0	0	0	0	0	0	0	0	0	0	0	0
072319	10:51:57	10:58:40	402791	5.0.10.0	5_exp_RW	75	Rpleas_acq	CS_A	JQQJ	ZHHZ	YFFY	LWWL	CPPC	DXXD	sonnig	träumen	vertrauen	gütig	genießen	küssen	sterben	töten	versagen	gierig	gemein	krank	1	acq_USpleas_CSpleas2_RW	acq4567_RW	4	33	400	1	300	300	433	50	0	1	1	blank2r.bmp	0	1	+	0	1	blank2r.bmp	492	1	ZHHZ	492	1	blank2r.bmp	572	2	genießen	866	1	!	1239	1	!	1332	0	0	0	0	0	0	0	0	0	0	0	0	0	0	0	0	0	0	0	0	0	0	0	0	0	0	0	0	0	0
072319	10:51:57	10:58:42	404883	5.0.10.0	5_exp_RW	75	Rpleas_acq	CS_A	JQQJ	ZHHZ	YFFY	LWWL	CPPC	DXXD	sonnig	träumen	vertrauen	gütig	genießen	küssen	sterben	töten	versagen	gierig	gemein	krank	1	acq_USpleas_CSpleas2_RW	acq4567_RW	4	34	400	0	300	300	325	50	0	1	1	blank2r.bmp	0	1	+	0	1	blank2r.bmp	492	1	ZHHZ	492	1	blank2r.bmp	572	3	küssen	866	1	!	-1	1	!	-1	0	0	0	0	0	0	0	0	0	0	0	0	0	0	0	0	0	0	0	0	0	0	0	0	0	0	0	0	0	0
072319	10:51:57	10:58:44	407096	5.0.10.0	5_exp_RW	75	Rpleas_acq	CS_A	JQQJ	ZHHZ	YFFY	LWWL	CPPC	DXXD	sonnig	träumen	vertrauen	gütig	genießen	küssen	sterben	töten	versagen	gierig	gemein	krank	1	acq_USpleas_CSpleas2_RW	acq4567_RW	4	35	400	1	300	300	399	50	0	1	1	blank2r.bmp	0	1	+	0	1	blank2r.bmp	492	1	ZHHZ	492	1	blank2r.bmp	572	1	gütig	866	1	!	1239	1	!	1306	0	0	0	0	0	0	0	0	0	0	0	0	0	0	0	0	0	0	0	0	0	0	0	0	0	0	0	0	0	0
072319	10:51:57	10:58:47	409735	5.0.10.0	5_exp_RW	75	Rpleas_acq	CS_A	JQQJ	ZHHZ	YFFY	LWWL	CPPC	DXXD	sonnig	träumen	vertrauen	gütig	genießen	küssen	sterben	töten	versagen	gierig	gemein	krank	1	acq_USunple_CSunple2_RW	acq4567_RW	4	36	400	0	300	300	875	46	0	1	1	blank2r.bmp	0	1	+	0	1	blank2r.bmp	492	1	LWWL	492	1	blank2r.bmp	572	1	gierig	866	1	!	1239	1	!	-1	0	0	0	0	0	0	0	0	0	0	0	0	0	0	0	0	0	0	0	0	0	0	0	0	0	0	0	0	0	0
072319	10:51:57	10:58:49	412187	5.0.10.0	5_exp_RW	75	Rpleas_acq	CS_A	JQQJ	ZHHZ	YFFY	LWWL	CPPC	DXXD	sonnig	träumen	vertrauen	gütig	genießen	küssen	sterben	töten	versagen	gierig	gemein	krank	1	acq_USunple_CSunple2_RW	acq4567_RW	4	37	400	0	300	300	673	46	0	1	1	blank2r.bmp	0	1	+	0	1	blank2r.bmp	492	1	LWWL	492	1	blank2r.bmp	572	3	krank	866	1	!	1239	1	!	-1	0	0	0	0	0	0	0	0	0	0	0	0	0	0	0	0	0	0	0	0	0	0	0	0	0	0	0	0	0	0
072319	10:51:57	10:58:51	414199	5.0.10.0	5_exp_RW	75	Rpleas_acq	CS_A	JQQJ	ZHHZ	YFFY	LWWL	CPPC	DXXD	sonnig	träumen	vertrauen	gütig	genießen	küssen	sterben	töten	versagen	gierig	gemein	krank	1	acq_USunple_CSunple1_RW	acq4567_RW	4	38	400	0	300	300	233	50	0	0	1	blank2r.bmp	0	1	+	0	1	blank2r.bmp	492	1	YFFY	492	1	blank2r.bmp	572	2	töten	866	1	!	-1	1	!	-1	0	0	0	0	0	0	0	0	0	0	0	0	0	0	0	0	0	0	0	0	0	0	0	0	0	0	0	0	0	0
072319	10:51:57	10:58:54	416412	5.0.10.0	5_exp_RW	75	Rpleas_acq	CS_A	JQQJ	ZHHZ	YFFY	LWWL	CPPC	DXXD	sonnig	träumen	vertrauen	gütig	genießen	küssen	sterben	töten	versagen	gierig	gemein	krank	1	acq_USpleas_CSpleas1_RW	acq4567_RW	4	39	400	1	300	300	408	50	0	1	1	blank2r.bmp	0	1	+	0	1	blank2r.bmp	492	1	JQQJ	492	1	blank2r.bmp	572	2	träumen	866	1	!	1239	1	!	1306	0	0	0	0	0	0	0	0	0	0	0	0	0	0	0	0	0	0	0	0	0	0	0	0	0	0	0	0	0	0
072319	10:51:57	10:58:56	418638	5.0.10.0	5_exp_RW	75	Rpleas_acq	CS_A	JQQJ	ZHHZ	YFFY	LWWL	CPPC	DXXD	sonnig	träumen	vertrauen	gütig	genießen	küssen	sterben	töten	versagen	gierig	gemein	krank	1	acq_USpleas_CSpleas1_RW	acq4567_RW	4	40	400	1	300	300	437	50	0	1	1	blank2r.bmp	0	1	+	0	1	blank2r.bmp	492	1	JQQJ	492	1	blank2r.bmp	572	1	sonnig	866	1	!	1239	1	!	1332	0	0	0	0	0	0	0	0	0	0	0	0	0	0	0	0	0	0	0	0	0	0	0	0	0	0	0	0	0	0
072319	10:51:57	10:58:58	420903	5.0.10.0	5_exp_RW	75	Rpleas_acq	CS_A	JQQJ	ZHHZ	YFFY	LWWL	CPPC	DXXD	sonnig	träumen	vertrauen	gütig	genießen	küssen	sterben	töten	versagen	gierig	gemein	krank	1	acq_USunple_CSunple2_RW	acq4567_RW	4	41	400	1	300	300	466	46	0	1	1	blank2r.bmp	0	1	+	0	1	blank2r.bmp	492	1	LWWL	492	1	blank2r.bmp	572	2	gemein	866	1	!	1239	1	!	1372	0	0	0	0	0	0	0	0	0	0	0	0	0	0	0	0	0	0	0	0	0	0	0	0	0	0	0	0	0	0
072319	10:51:57	10:59:00	422982	5.0.10.0	5_exp_RW	75	Rpleas_acq	CS_A	JQQJ	ZHHZ	YFFY	LWWL	CPPC	DXXD	sonnig	träumen	vertrauen	gütig	genießen	küssen	sterben	töten	versagen	gierig	gemein	krank	1	acq_USunple_CSunple2_RW	acq4567_RW	4	42	400	0	300	300	306	46	0	1	1	blank2r.bmp	0	1	+	0	1	blank2r.bmp	492	1	LWWL	492	1	blank2r.bmp	572	2	gemein	866	1	!	-1	1	!	-1	0	0	0	0	0	0	0	0	0	0	0	0	0	0	0	0	0	0	0	0	0	0	0	0	0	0	0	0	0	0
072319	10:51:57	10:59:02	425142	5.0.10.0	5_exp_RW	75	Rpleas_acq	CS_A	JQQJ	ZHHZ	YFFY	LWWL	CPPC	DXXD	sonnig	träumen	vertrauen	gütig	genießen	küssen	sterben	töten	versagen	gierig	gemein	krank	1	acq_USpleas_CSpleas1_RW	acq4567_RW	4	43	400	1	300	300	354	46	0	0	1	blank2r.bmp	0	1	+	0	1	blank2r.bmp	492	1	JQQJ	492	1	blank2r.bmp	572	3	vertrauen	866	1	!	1239	1	!	1252	0	0	0	0	0	0	0	0	0	0	0	0	0	0	0	0	0	0	0	0	0	0	0	0	0	0	0	0	0	0
072319	10:51:57	10:59:05	427367	5.0.10.0	5_exp_RW	75	Rpleas_acq	CS_A	JQQJ	ZHHZ	YFFY	LWWL	CPPC	DXXD	sonnig	träumen	vertrauen	gütig	genießen	küssen	sterben	töten	versagen	gierig	gemein	krank	1	acq_USpleas_CSpleas2_RW	acq4567_RW	4	44	400	1	300	300	415	50	0	1	1	blank2r.bmp	0	1	+	0	1	blank2r.bmp	492	1	ZHHZ	492	1	blank2r.bmp	572	2	genießen	866	1	!	1239	1	!	1319	0	0	0	0	0	0	0	0	0	0	0	0	0	0	0	0	0	0	0	0	0	0	0	0	0	0	0	0	0	0
072319	10:51:57	10:59:07	429620	5.0.10.0	5_exp_RW	75	Rpleas_acq	CS_A	JQQJ	ZHHZ	YFFY	LWWL	CPPC	DXXD	sonnig	träumen	vertrauen	gütig	genießen	küssen	sterben	töten	versagen	gierig	gemein	krank	1	acq_USunple_CSunple2_RW	acq4567_RW	4	45	400	1	300	300	458	46	0	1	1	blank2r.bmp	0	1	+	0	1	blank2r.bmp	492	1	LWWL	492	1	blank2r.bmp	572	3	krank	866	1	!	1239	1	!	1359	0	0	0	0	0	0	0	0	0	0	0	0	0	0	0	0	0	0	0	0	0	0	0	0	0	0	0	0	0	0
072319	10:51:57	10:59:09	431859	5.0.10.0	5_exp_RW	75	Rpleas_acq	CS_A	JQQJ	ZHHZ	YFFY	LWWL	CPPC	DXXD	sonnig	träumen	vertrauen	gütig	genießen	küssen	sterben	töten	versagen	gierig	gemein	krank	1	acq_USunple_CSunple1_RW	acq4567_RW	4	46	400	1	300	300	450	46	0	1	1	blank2r.bmp	0	1	+	0	1	blank2r.bmp	492	1	YFFY	492	1	blank2r.bmp	572	1	sterben	866	1	!	1239	1	!	1346	0	0	0	0	0	0	0	0	0	0	0	0	0	0	0	0	0	0	0	0	0	0	0	0	0	0	0	0	0	0
072319	10:51:57	10:59:11	434031	5.0.10.0	5_exp_RW	75	Rpleas_acq	CS_A	JQQJ	ZHHZ	YFFY	LWWL	CPPC	DXXD	sonnig	träumen	vertrauen	gütig	genießen	küssen	sterben	töten	versagen	gierig	gemein	krank	1	acq_USunple_CSunple1_RW	acq4567_RW	4	47	400	1	300	300	376	50	0	0	1	blank2r.bmp	0	1	+	0	1	blank2r.bmp	492	1	YFFY	492	1	blank2r.bmp	572	3	versagen	866	1	!	1239	1	!	1279	0	0	0	0	0	0	0	0	0	0	0	0	0	0	0	0	0	0	0	0	0	0	0	0	0	0	0	0	0	0
072319	10:51:57	10:59:13	436270	5.0.10.0	5_exp_RW	75	Rpleas_acq	CS_A	JQQJ	ZHHZ	YFFY	LWWL	CPPC	DXXD	sonnig	träumen	vertrauen	gütig	genießen	küssen	sterben	töten	versagen	gierig	gemein	krank	1	acq_USunple_CSunple1_RW	acq4567_RW	4	48	400	1	300	300	432	46	0	1	1	blank2r.bmp	0	1	+	0	1	blank2r.bmp	492	1	YFFY	492	1	blank2r.bmp	572	1	sterben	866	1	!	1239	1	!	1332	0	0	0	0	0	0	0	0	0	0	0	0	0	0	0	0	0	0	0	0	0	0	0	0	0	0	0	0	0	0
072319	10:51:57	10:59:16	438483	5.0.10.0	5_exp_RW	75	Rpleas_acq	CS_A	JQQJ	ZHHZ	YFFY	LWWL	CPPC	DXXD	sonnig	träumen	vertrauen	gütig	genießen	küssen	sterben	töten	versagen	gierig	gemein	krank	1	acq_USpleas_CSpleas1_RW	acq4567_RW	4	49	400	1	300	300	415	50	0	1	1	blank2r.bmp	0	1	+	0	1	blank2r.bmp	492	1	JQQJ	492	1	blank2r.bmp	572	1	sonnig	866	1	!	1239	1	!	1319	0	0	0	0	0	0	0	0	0	0	0	0	0	0	0	0	0	0	0	0	0	0	0	0	0	0	0	0	0	0
072319	10:51:57	10:59:19	441735	5.0.10.0	5_exp_RW	75	Rpleas_acq	CS_A	JQQJ	ZHHZ	YFFY	LWWL	CPPC	DXXD	sonnig	träumen	vertrauen	gütig	genießen	küssen	sterben	töten	versagen	gierig	gemein	krank	1	acq_USunple_CSunple2_RW	acq4567_RW	4	50	400	0	300	300	1478	46	0	1	1	blank2r.bmp	0	1	+	0	1	blank2r.bmp	492	1	LWWL	492	1	blank2r.bmp	572	1	gierig	866	1	!	1239	1	!	-1	0	0	0	0	0	0	0	0	0	0	0	0	0	0	0	0	0	0	0	0	0	0	0	0	0	0	0	0	0	0
072319	10:51:57	10:59:21	444134	5.0.10.0	5_exp_RW	75	Rpleas_acq	CS_A	JQQJ	ZHHZ	YFFY	LWWL	CPPC	DXXD	sonnig	träumen	vertrauen	gütig	genießen	küssen	sterben	töten	versagen	gierig	gemein	krank	1	acq_USpleas_CSpleas1_RW	acq4567_RW	4	51	400	0	300	300	618	50	0	1	1	blank2r.bmp	0	1	+	0	1	blank2r.bmp	492	1	JQQJ	492	1	blank2r.bmp	572	3	vertrauen	866	1	!	1239	1	!	-1	0	0	0	0	0	0	0	0	0	0	0	0	0	0	0	0	0	0	0	0	0	0	0	0	0	0	0	0	0	0
072319	10:51:57	10:59:24	446359	5.0.10.0	5_exp_RW	75	Rpleas_acq	CS_A	JQQJ	ZHHZ	YFFY	LWWL	CPPC	DXXD	sonnig	träumen	vertrauen	gütig	genießen	küssen	sterben	töten	versagen	gierig	gemein	krank	1	acq_USpleas_CSpleas2_RW	acq4567_RW	4	52	400	1	300	300	419	50	0	1	1	blank2r.bmp	0	1	+	0	1	blank2r.bmp	492	1	ZHHZ	492	1	blank2r.bmp	572	2	genießen	866	1	!	1239	1	!	1319	0	0	0	0	0	0	0	0	0	0	0	0	0	0	0	0	0	0	0	0	0	0	0	0	0	0	0	0	0	0
072319	10:51:57	10:59:26	448612	5.0.10.0	5_exp_RW	75	Rpleas_acq	CS_A	JQQJ	ZHHZ	YFFY	LWWL	CPPC	DXXD	sonnig	träumen	vertrauen	gütig	genießen	küssen	sterben	töten	versagen	gierig	gemein	krank	1	acq_USunple_CSunple1_RW	acq4567_RW	4	53	400	1	300	300	453	46	0	1	1	blank2r.bmp	0	1	+	0	1	blank2r.bmp	492	1	YFFY	492	1	blank2r.bmp	572	2	töten	866	1	!	1239	1	!	1359	0	0	0	0	0	0	0	0	0	0	0	0	0	0	0	0	0	0	0	0	0	0	0	0	0	0	0	0	0	0
072319	10:51:57	10:59:28	450957	5.0.10.0	5_exp_RW	75	Rpleas_acq	CS_A	JQQJ	ZHHZ	YFFY	LWWL	CPPC	DXXD	sonnig	träumen	vertrauen	gütig	genießen	küssen	sterben	töten	versagen	gierig	gemein	krank	1	acq_USunple_CSunple1_RW	acq4567_RW	4	54	400	0	300	300	579	46	0	1	1	blank2r.bmp	0	1	+	0	1	blank2r.bmp	492	1	YFFY	492	1	blank2r.bmp	572	3	versagen	866	1	!	1239	1	!	-1	0	0	0	0	0	0	0	0	0	0	0	0	0	0	0	0	0	0	0	0	0	0	0	0	0	0	0	0	0	0
072319	10:51:57	10:59:30	453236	5.0.10.0	5_exp_RW	75	Rpleas_acq	CS_A	JQQJ	ZHHZ	YFFY	LWWL	CPPC	DXXD	sonnig	träumen	vertrauen	gütig	genießen	küssen	sterben	töten	versagen	gierig	gemein	krank	1	acq_USunple_CSunple2_RW	acq4567_RW	4	55	400	0	300	300	500	46	0	1	1	blank2r.bmp	0	1	+	0	1	blank2r.bmp	492	1	LWWL	492	1	blank2r.bmp	572	1	gierig	866	1	!	1239	1	!	-1	0	0	0	0	0	0	0	0	0	0	0	0	0	0	0	0	0	0	0	0	0	0	0	0	0	0	0	0	0	0
072319	10:51:57	10:59:33	455396	5.0.10.0	5_exp_RW	75	Rpleas_acq	CS_A	JQQJ	ZHHZ	YFFY	LWWL	CPPC	DXXD	sonnig	träumen	vertrauen	gütig	genießen	küssen	sterben	töten	versagen	gierig	gemein	krank	1	acq_USpleas_CSpleas2_RW	acq4567_RW	4	56	400	1	300	300	346	50	0	1	1	blank2r.bmp	0	1	+	0	1	blank2r.bmp	492	1	ZHHZ	492	1	blank2r.bmp	572	1	gütig	866	1	!	1239	1	!	1252	0	0	0	0	0	0	0	0	0	0	0	0	0	0	0	0	0	0	0	0	0	0	0	0	0	0	0	0	0	0
072319	10:51:57	10:59:35	457581	5.0.10.0	5_exp_RW	75	Rpleas_acq	CS_A	JQQJ	ZHHZ	YFFY	LWWL	CPPC	DXXD	sonnig	träumen	vertrauen	gütig	genießen	küssen	sterben	töten	versagen	gierig	gemein	krank	1	acq_USpleas_CSpleas2_RW	acq4567_RW	4	57	400	1	300	300	385	50	0	1	1	blank2r.bmp	0	1	+	0	1	blank2r.bmp	492	1	ZHHZ	492	1	blank2r.bmp	572	3	küssen	866	1	!	1239	1	!	1292	0	0	0	0	0	0	0	0	0	0	0	0	0	0	0	0	0	0	0	0	0	0	0	0	0	0	0	0	0	0
072319	10:51:57	10:59:37	459794	5.0.10.0	5_exp_RW	75	Rpleas_acq	CS_A	JQQJ	ZHHZ	YFFY	LWWL	CPPC	DXXD	sonnig	träumen	vertrauen	gütig	genießen	küssen	sterben	töten	versagen	gierig	gemein	krank	1	acq_USpleas_CSpleas1_RW	acq4567_RW	4	58	400	1	300	300	421	50	0	1	1	blank2r.bmp	0	1	+	0	1	blank2r.bmp	492	1	JQQJ	492	1	blank2r.bmp	572	2	träumen	866	1	!	1239	1	!	1319	0	0	0	0	0	0	0	0	0	0	0	0	0	0	0	0	0	0	0	0	0	0	0	0	0	0	0	0	0	0
072319	10:51:57	10:59:39	461900	5.0.10.0	5_exp_RW	75	Rpleas_acq	CS_A	JQQJ	ZHHZ	YFFY	LWWL	CPPC	DXXD	sonnig	träumen	vertrauen	gütig	genießen	küssen	sterben	töten	versagen	gierig	gemein	krank	1	acq_USpleas_CSpleas1_RW	acq4567_RW	4	59	400	0	300	300	333	50	0	1	1	blank2r.bmp	0	1	+	0	1	blank2r.bmp	492	1	JQQJ	492	1	blank2r.bmp	572	2	träumen	866	1	!	-1	1	!	-1	0	0	0	0	0	0	0	0	0	0	0	0	0	0	0	0	0	0	0	0	0	0	0	0	0	0	0	0	0	0
072319	10:51:57	10:59:41	464072	5.0.10.0	5_exp_RW	75	Rpleas_acq	CS_A	JQQJ	ZHHZ	YFFY	LWWL	CPPC	DXXD	sonnig	träumen	vertrauen	gütig	genießen	küssen	sterben	töten	versagen	gierig	gemein	krank	1	acq_USpleas_CSpleas2_RW	acq4567_RW	4	60	400	1	300	300	362	50	0	1	1	blank2r.bmp	0	1	+	0	1	blank2r.bmp	492	1	ZHHZ	492	1	blank2r.bmp	572	2	genießen	866	1	!	1239	1	!	1266	0	0	0	0	0	0	0	0	0	0	0	0	0	0	0	0	0	0	0	0	0	0	0	0	0	0	0	0	0	0
072319	10:51:57	10:59:44	466324	5.0.10.0	5_exp_RW	75	Rpleas_acq	CS_A	JQQJ	ZHHZ	YFFY	LWWL	CPPC	DXXD	sonnig	träumen	vertrauen	gütig	genießen	küssen	sterben	töten	versagen	gierig	gemein	krank	1	acq_USunple_CSunple2_RW	acq4567_RW	4	61	400	0	300	300	490	46	0	1	1	blank2r.bmp	0	1	+	0	1	blank2r.bmp	492	1	LWWL	492	1	blank2r.bmp	572	2	gemein	866	1	!	1239	1	!	-1	0	0	0	0	0	0	0	0	0	0	0	0	0	0	0	0	0	0	0	0	0	0	0	0	0	0	0	0	0	0
072319	10:51:57	10:59:46	468590	5.0.10.0	5_exp_RW	75	Rpleas_acq	CS_A	JQQJ	ZHHZ	YFFY	LWWL	CPPC	DXXD	sonnig	träumen	vertrauen	gütig	genießen	küssen	sterben	töten	versagen	gierig	gemein	krank	1	acq_USunple_CSunple1_RW	acq4567_RW	4	62	400	0	300	300	483	46	0	1	1	blank2r.bmp	0	1	+	0	1	blank2r.bmp	492	1	YFFY	492	1	blank2r.bmp	572	2	töten	866	1	!	1239	1	!	-1	0	0	0	0	0	0	0	0	0	0	0	0	0	0	0	0	0	0	0	0	0	0	0	0	0	0	0	0	0	0
072319	10:51:57	10:59:48	470762	5.0.10.0	5_exp_RW	75	Rpleas_acq	CS_A	JQQJ	ZHHZ	YFFY	LWWL	CPPC	DXXD	sonnig	träumen	vertrauen	gütig	genießen	küssen	sterben	töten	versagen	gierig	gemein	krank	1	acq_USpleas_CSpleas2_RW	acq4567_RW	4	63	400	1	300	300	363	46	0	0	1	blank2r.bmp	0	1	+	0	1	blank2r.bmp	492	1	ZHHZ	492	1	blank2r.bmp	572	1	gütig	866	1	!	1239	1	!	1266	0	0	0	0	0	0	0	0	0	0	0	0	0	0	0	0	0	0	0	0	0	0	0	0	0	0	0	0	0	0
072319	10:51:57	10:59:50	472962	5.0.10.0	5_exp_RW	75	Rpleas_acq	CS_A	JQQJ	ZHHZ	YFFY	LWWL	CPPC	DXXD	sonnig	träumen	vertrauen	gütig	genießen	küssen	sterben	töten	versagen	gierig	gemein	krank	1	acq_USunple_CSunple2_RW	acq4567_RW	4	64	400	1	300	300	406	46	0	1	1	blank2r.bmp	0	1	+	0	1	blank2r.bmp	492	1	LWWL	492	1	blank2r.bmp	572	3	krank	866	1	!	1239	1	!	1306	0	0	0	0	0	0	0	0	0	0	0	0	0	0	0	0	0	0	0	0	0	0	0	0	0	0	0	0	0	0
072319	10:51:57	10:59:52	475121	5.0.10.0	5_exp_RW	75	Rpleas_acq	CS_A	JQQJ	ZHHZ	YFFY	LWWL	CPPC	DXXD	sonnig	träumen	vertrauen	gütig	genießen	küssen	sterben	töten	versagen	gierig	gemein	krank	1	acq_USpleas_CSpleas2_RW	acq4567_RW	4	65	400	1	300	300	369	50	0	1	1	blank2r.bmp	0	1	+	0	1	blank2r.bmp	492	1	ZHHZ	492	1	blank2r.bmp	572	3	küssen	866	1	!	1239	1	!	1266	0	0	0	0	0	0	0	0	0	0	0	0	0	0	0	0	0	0	0	0	0	0	0	0	0	0	0	0	0	0
072319	10:51:57	10:59:54	477280	5.0.10.0	5_exp_RW	75	Rpleas_acq	CS_A	JQQJ	ZHHZ	YFFY	LWWL	CPPC	DXXD	sonnig	träumen	vertrauen	gütig	genießen	küssen	sterben	töten	versagen	gierig	gemein	krank	1	acq_USpleas_CSpleas2_RW	acq4567_RW	4	66	400	1	300	300	372	50	0	1	1	blank2r.bmp	0	1	+	0	1	blank2r.bmp	492	1	ZHHZ	492	1	blank2r.bmp	572	1	gütig	866	1	!	1239	1	!	1266	0	0	0	0	0	0	0	0	0	0	0	0	0	0	0	0	0	0	0	0	0	0	0	0	0	0	0	0	0	0
072319	10:51:57	10:59:57	479492	5.0.10.0	5_exp_RW	75	Rpleas_acq	CS_A	JQQJ	ZHHZ	YFFY	LWWL	CPPC	DXXD	sonnig	träumen	vertrauen	gütig	genießen	küssen	sterben	töten	versagen	gierig	gemein	krank	1	acq_USpleas_CSpleas1_RW	acq4567_RW	4	67	400	1	300	300	414	50	0	1	1	blank2r.bmp	0	1	+	0	1	blank2r.bmp	492	1	JQQJ	492	1	blank2r.bmp	572	3	vertrauen	866	1	!	1239	1	!	1319	0	0	0	0	0	0	0	0	0	0	0	0	0	0	0	0	0	0	0	0	0	0	0	0	0	0	0	0	0	0
072319	10:51:57	10:59:59	481878	5.0.10.0	5_exp_RW	75	Rpleas_acq	CS_A	JQQJ	ZHHZ	YFFY	LWWL	CPPC	DXXD	sonnig	träumen	vertrauen	gütig	genießen	küssen	sterben	töten	versagen	gierig	gemein	krank	1	acq_USpleas_CSpleas1_RW	acq4567_RW	4	68	400	0	300	300	614	50	0	1	1	blank2r.bmp	0	1	+	0	1	blank2r.bmp	492	1	JQQJ	492	1	blank2r.bmp	572	1	sonnig	866	1	!	1239	1	!	-1	0	0	0	0	0	0	0	0	0	0	0	0	0	0	0	0	0	0	0	0	0	0	0	0	0	0	0	0	0	0
072319	10:51:57	11:00:01	484117	5.0.10.0	5_exp_RW	75	Rpleas_acq	CS_A	JQQJ	ZHHZ	YFFY	LWWL	CPPC	DXXD	sonnig	träumen	vertrauen	gütig	genießen	küssen	sterben	töten	versagen	gierig	gemein	krank	1	acq_USpleas_CSpleas1_RW	acq4567_RW	4	69	400	1	300	300	414	50	0	1	1	blank2r.bmp	0	1	+	0	1	blank2r.bmp	492	1	JQQJ	492	1	blank2r.bmp	572	3	vertrauen	866	1	!	1239	1	!	1319	0	0	0	0	0	0	0	0	0	0	0	0	0	0	0	0	0	0	0	0	0	0	0	0	0	0	0	0	0	0
072319	10:51:57	11:00:03	486289	5.0.10.0	5_exp_RW	75	Rpleas_acq	CS_A	JQQJ	ZHHZ	YFFY	LWWL	CPPC	DXXD	sonnig	träumen	vertrauen	gütig	genießen	küssen	sterben	töten	versagen	gierig	gemein	krank	1	acq_USpleas_CSpleas1_RW	acq4567_RW	4	70	400	1	300	300	381	50	0	1	1	blank2r.bmp	0	1	+	0	1	blank2r.bmp	492	1	JQQJ	492	1	blank2r.bmp	572	2	träumen	866	1	!	1239	1	!	1279	0	0	0	0	0	0	0	0	0	0	0	0	0	0	0	0	0	0	0	0	0	0	0	0	0	0	0	0	0	0
072319	10:51:57	11:00:06	488608	5.0.10.0	5_exp_RW	75	Rpleas_acq	CS_A	JQQJ	ZHHZ	YFFY	LWWL	CPPC	DXXD	sonnig	träumen	vertrauen	gütig	genießen	küssen	sterben	töten	versagen	gierig	gemein	krank	1	acq_USunple_CSunple1_RW	acq4567_RW	4	71	400	0	300	300	547	46	0	1	1	blank2r.bmp	0	1	+	0	1	blank2r.bmp	492	1	YFFY	492	1	blank2r.bmp	572	1	sterben	866	1	!	1239	1	!	-1	0	0	0	0	0	0	0	0	0	0	0	0	0	0	0	0	0	0	0	0	0	0	0	0	0	0	0	0	0	0
072319	10:51:57	11:00:08	490874	5.0.10.0	5_exp_RW	75	Rpleas_acq	CS_A	JQQJ	ZHHZ	YFFY	LWWL	CPPC	DXXD	sonnig	träumen	vertrauen	gütig	genießen	küssen	sterben	töten	versagen	gierig	gemein	krank	1	acq_USunple_CSunple1_RW	acq4567_RW	4	72	400	0	300	300	479	46	0	1	1	blank2r.bmp	0	1	+	0	1	blank2r.bmp	492	1	YFFY	492	1	blank2r.bmp	572	3	versagen	866	1	!	1239	1	!	-1	0	0	0	0	0	0	0	0	0	0	0	0	0	0	0	0	0	0	0	0	0	0	0	0	0	0	0	0	0	0
072319	10:51:57	11:00:10	492980	5.0.10.0	5_exp_RW	75	Rpleas_acq	CS_A	JQQJ	ZHHZ	YFFY	LWWL	CPPC	DXXD	sonnig	träumen	vertrauen	gütig	genießen	küssen	sterben	töten	versagen	gierig	gemein	krank	1	acq_USunple_CSunple2_RW	acq4567_RW	4	73	400	0	300	300	328	46	0	1	1	blank2r.bmp	0	1	+	0	1	blank2r.bmp	492	1	LWWL	492	1	blank2r.bmp	572	3	krank	866	1	!	-1	1	!	-1	0	0	0	0	0	0	0	0	0	0	0	0	0	0	0	0	0	0	0	0	0	0	0	0	0	0	0	0	0	0
072319	10:51:57	11:00:12	495139	5.0.10.0	5_exp_RW	75	Rpleas_acq	CS_A	JQQJ	ZHHZ	YFFY	LWWL	CPPC	DXXD	sonnig	träumen	vertrauen	gütig	genießen	küssen	sterben	töten	versagen	gierig	gemein	krank	1	acq_USunple_CSunple1_RW	acq4567_RW	4	74	400	1	300	300	356	46	0	1	1	blank2r.bmp	0	1	+	0	1	blank2r.bmp	492	1	YFFY	492	1	blank2r.bmp	572	1	sterben	866	1	!	1239	1	!	1252	0	0	0	0	0	0	0	0	0	0	0	0	0	0	0	0	0	0	0	0	0	0	0	0	0	0	0	0	0	0
072319	10:51:57	11:00:15	497311	5.0.10.0	5_exp_RW	75	Rpleas_acq	CS_A	JQQJ	ZHHZ	YFFY	LWWL	CPPC	DXXD	sonnig	träumen	vertrauen	gütig	genießen	küssen	sterben	töten	versagen	gierig	gemein	krank	1	acq_USunple_CSunple2_RW	acq4567_RW	4	75	400	1	300	300	379	46	0	1	1	blank2r.bmp	0	1	+	0	1	blank2r.bmp	492	1	LWWL	492	1	blank2r.bmp	572	2	gemein	866	1	!	1239	1	!	1279	0	0	0	0	0	0	0	0	0	0	0	0	0	0	0	0	0	0	0	0	0	0	0	0	0	0	0	0	0	0
072319	10:51:57	11:00:17	499470	5.0.10.0	5_exp_RW	75	Rpleas_acq	CS_A	JQQJ	ZHHZ	YFFY	LWWL	CPPC	DXXD	sonnig	träumen	vertrauen	gütig	genießen	küssen	sterben	töten	versagen	gierig	gemein	krank	1	acq_USpleas_CSpleas2_RW	acq4567_RW	4	76	400	1	300	300	363	50	0	1	1	blank2r.bmp	0	1	+	0	1	blank2r.bmp	492	1	ZHHZ	492	1	blank2r.bmp	572	3	küssen	866	1	!	1239	1	!	1266	0	0	0	0	0	0	0	0	0	0	0	0	0	0	0	0	0	0	0	0	0	0	0	0	0	0	0	0	0	0
072319	10:51:57	11:00:19	501723	5.0.10.0	5_exp_RW	75	Rpleas_acq	CS_A	JQQJ	ZHHZ	YFFY	LWWL	CPPC	DXXD	sonnig	träumen	vertrauen	gütig	genießen	küssen	sterben	töten	versagen	gierig	gemein	krank	1	acq_USunple_CSunple2_RW	acq4567_RW	4	77	400	0	300	300	484	46	0	1	1	blank2r.bmp	0	1	+	0	1	blank2r.bmp	492	1	LWWL	492	1	blank2r.bmp	572	1	gierig	866	1	!	1239	1	!	-1	0	0	0	0	0	0	0	0	0	0	0	0	0	0	0	0	0	0	0	0	0	0	0	0	0	0	0	0	0	0
072319	10:51:57	11:00:27	509600	5.0.10.0	5_exp_RW	75	Rpleas_acq	CS_A	JQQJ	ZHHZ	YFFY	LWWL	CPPC	DXXD	sonnig	träumen	vertrauen	gütig	genießen	küssen	sterben	töten	versagen	gierig	gemein	krank	1	acq_USpleas_CSpleas1_RW	acq4567_RW	4	78	400	0	300	300	6077	50	0	1	1	blank2r.bmp	0	1	+	0	1	blank2r.bmp	492	1	JQQJ	492	1	blank2r.bmp	572	1	sonnig	866	1	!	1239	1	!	-1	0	0	0	0	0	0	0	0	0	0	0	0	0	0	0	0	0	0	0	0	0	0	0	0	0	0	0	0	0	0
072319	10:51:57	11:00:29	511945	5.0.10.0	5_exp_RW	75	Rpleas_acq	CS_A	JQQJ	ZHHZ	YFFY	LWWL	CPPC	DXXD	sonnig	träumen	vertrauen	gütig	genießen	küssen	sterben	töten	versagen	gierig	gemein	krank	1	acq_USpleas_CSpleas2_RW	acq4567_RW	4	79	400	0	300	300	547	50	0	1	1	blank2r.bmp	0	1	+	0	1	blank2r.bmp	492	1	ZHHZ	492	1	blank2r.bmp	572	2	genießen	866	1	!	1239	1	!	-1	0	0	0	0	0	0	0	0	0	0	0	0	0	0	0	0	0	0	0	0	0	0	0	0	0	0	0	0	0	0
072319	10:51:57	11:00:31	514158	5.0.10.0	5_exp_RW	75	Rpleas_acq	CS_A	JQQJ	ZHHZ	YFFY	LWWL	CPPC	DXXD	sonnig	träumen	vertrauen	gütig	genießen	küssen	sterben	töten	versagen	gierig	gemein	krank	1	acq_USunple_CSunple1_RW	acq4567_RW	4	80	400	1	300	300	404	46	0	1	1	blank2r.bmp	0	1	+	0	1	blank2r.bmp	492	1	YFFY	492	1	blank2r.bmp	572	2	töten	866	1	!	1239	1	!	1306	0	0	0	0	0	0	0	0	0	0	0	0	0	0	0	0	0	0	0	0	0	0	0	0	0	0	0	0	0	0
072319	10:51:57	11:00:52	534376	5.0.10.0	5_exp_RW	75	Rpleas_acq	CS_A	JQQJ	ZHHZ	YFFY	LWWL	CPPC	DXXD	sonnig	träumen	vertrauen	gütig	genießen	küssen	sterben	töten	versagen	gierig	gemein	krank	1	acq_USpleas_CSpleas2_RW	acq4567_RW	5	1	400	0	300	300	640	50	0	1	1	blank2r.bmp	0	1	+	0	1	blank2r.bmp	492	1	ZHHZ	492	1	blank2r.bmp	572	1	gütig	866	1	!	1239	1	!	-1	0	0	0	0	0	0	0	0	0	0	0	0	0	0	0	0	0	0	0	0	0	0	0	0	0	0	0	0	0	0
072319	10:51:57	11:00:54	536468	5.0.10.0	5_exp_RW	75	Rpleas_acq	CS_A	JQQJ	ZHHZ	YFFY	LWWL	CPPC	DXXD	sonnig	träumen	vertrauen	gütig	genießen	küssen	sterben	töten	versagen	gierig	gemein	krank	1	acq_USunple_CSunple2_RW	acq4567_RW	5	2	400	0	300	300	308	46	0	1	1	blank2r.bmp	0	1	+	0	1	blank2r.bmp	492	1	LWWL	492	1	blank2r.bmp	572	2	gemein	866	1	!	-1	1	!	-1	0	0	0	0	0	0	0	0	0	0	0	0	0	0	0	0	0	0	0	0	0	0	0	0	0	0	0	0	0	0
072319	10:51:57	11:00:56	538641	5.0.10.0	5_exp_RW	75	Rpleas_acq	CS_A	JQQJ	ZHHZ	YFFY	LWWL	CPPC	DXXD	sonnig	träumen	vertrauen	gütig	genießen	küssen	sterben	töten	versagen	gierig	gemein	krank	1	acq_USpleas_CSpleas1_RW	acq4567_RW	5	3	400	1	300	300	369	50	0	1	1	blank2r.bmp	0	1	+	0	1	blank2r.bmp	492	1	JQQJ	492	1	blank2r.bmp	572	1	sonnig	866	1	!	1239	1	!	1266	0	0	0	0	0	0	0	0	0	0	0	0	0	0	0	0	0	0	0	0	0	0	0	0	0	0	0	0	0	0
072319	10:51:57	11:00:58	540880	5.0.10.0	5_exp_RW	75	Rpleas_acq	CS_A	JQQJ	ZHHZ	YFFY	LWWL	CPPC	DXXD	sonnig	träumen	vertrauen	gütig	genießen	küssen	sterben	töten	versagen	gierig	gemein	krank	1	acq_USunple_CSunple1_RW	acq4567_RW	5	4	400	1	300	300	444	46	0	1	1	blank2r.bmp	0	1	+	0	1	blank2r.bmp	492	1	YFFY	492	1	blank2r.bmp	572	2	töten	866	1	!	1239	1	!	1346	0	0	0	0	0	0	0	0	0	0	0	0	0	0	0	0	0	0	0	0	0	0	0	0	0	0	0	0	0	0
072319	10:51:57	11:01:00	542946	5.0.10.0	5_exp_RW	75	Rpleas_acq	CS_A	JQQJ	ZHHZ	YFFY	LWWL	CPPC	DXXD	sonnig	träumen	vertrauen	gütig	genießen	küssen	sterben	töten	versagen	gierig	gemein	krank	1	acq_USpleas_CSpleas2_RW	acq4567_RW	5	5	400	0	300	300	294	46	0	0	1	blank2r.bmp	0	1	+	0	1	blank2r.bmp	492	1	ZHHZ	492	1	blank2r.bmp	572	3	küssen	866	1	!	-1	1	!	-1	0	0	0	0	0	0	0	0	0	0	0	0	0	0	0	0	0	0	0	0	0	0	0	0	0	0	0	0	0	0
072319	10:51:57	11:01:02	545131	5.0.10.0	5_exp_RW	75	Rpleas_acq	CS_A	JQQJ	ZHHZ	YFFY	LWWL	CPPC	DXXD	sonnig	träumen	vertrauen	gütig	genießen	küssen	sterben	töten	versagen	gierig	gemein	krank	1	acq_USpleas_CSpleas2_RW	acq4567_RW	5	6	400	1	300	300	383	50	0	1	1	blank2r.bmp	0	1	+	0	1	blank2r.bmp	492	1	ZHHZ	492	1	blank2r.bmp	572	2	genießen	866	1	!	1239	1	!	1279	0	0	0	0	0	0	0	0	0	0	0	0	0	0	0	0	0	0	0	0	0	0	0	0	0	0	0	0	0	0
072319	10:51:57	11:01:04	547171	5.0.10.0	5_exp_RW	75	Rpleas_acq	CS_A	JQQJ	ZHHZ	YFFY	LWWL	CPPC	DXXD	sonnig	träumen	vertrauen	gütig	genießen	küssen	sterben	töten	versagen	gierig	gemein	krank	1	acq_USpleas_CSpleas2_RW	acq4567_RW	5	7	400	0	300	300	268	46	0	0	1	blank2r.bmp	0	1	+	0	1	blank2r.bmp	492	1	ZHHZ	492	1	blank2r.bmp	572	2	genießen	866	1	!	-1	1	!	-1	0	0	0	0	0	0	0	0	0	0	0	0	0	0	0	0	0	0	0	0	0	0	0	0	0	0	0	0	0	0
072319	10:51:57	11:01:07	549330	5.0.10.0	5_exp_RW	75	Rpleas_acq	CS_A	JQQJ	ZHHZ	YFFY	LWWL	CPPC	DXXD	sonnig	träumen	vertrauen	gütig	genießen	küssen	sterben	töten	versagen	gierig	gemein	krank	1	acq_USunple_CSunple1_RW	acq4567_RW	5	8	400	1	300	300	352	50	0	0	1	blank2r.bmp	0	1	+	0	1	blank2r.bmp	492	1	YFFY	492	1	blank2r.bmp	572	1	sterben	866	1	!	1239	1	!	1252	0	0	0	0	0	0	0	0	0	0	0	0	0	0	0	0	0	0	0	0	0	0	0	0	0	0	0	0	0	0
072319	10:51:57	11:01:09	551502	5.0.10.0	5_exp_RW	75	Rpleas_acq	CS_A	JQQJ	ZHHZ	YFFY	LWWL	CPPC	DXXD	sonnig	träumen	vertrauen	gütig	genießen	küssen	sterben	töten	versagen	gierig	gemein	krank	1	acq_USunple_CSunple2_RW	acq4567_RW	5	9	400	1	300	300	383	50	0	0	1	blank2r.bmp	0	1	+	0	1	blank2r.bmp	492	1	LWWL	492	1	blank2r.bmp	572	1	gierig	866	1	!	1239	1	!	1279	0	0	0	0	0	0	0	0	0	0	0	0	0	0	0	0	0	0	0	0	0	0	0	0	0	0	0	0	0	0
072319	10:51:57	11:01:11	553754	5.0.10.0	5_exp_RW	75	Rpleas_acq	CS_A	JQQJ	ZHHZ	YFFY	LWWL	CPPC	DXXD	sonnig	träumen	vertrauen	gütig	genießen	küssen	sterben	töten	versagen	gierig	gemein	krank	1	acq_USpleas_CSpleas2_RW	acq4567_RW	5	10	400	0	300	300	479	50	0	1	1	blank2r.bmp	0	1	+	0	1	blank2r.bmp	492	1	ZHHZ	492	1	blank2r.bmp	572	1	gütig	866	1	!	1239	1	!	-1	0	0	0	0	0	0	0	0	0	0	0	0	0	0	0	0	0	0	0	0	0	0	0	0	0	0	0	0	0	0
072319	10:51:57	11:01:13	556034	5.0.10.0	5_exp_RW	75	Rpleas_acq	CS_A	JQQJ	ZHHZ	YFFY	LWWL	CPPC	DXXD	sonnig	träumen	vertrauen	gütig	genießen	küssen	sterben	töten	versagen	gierig	gemein	krank	1	acq_USunple_CSunple2_RW	acq4567_RW	5	11	400	0	300	300	493	46	0	1	1	blank2r.bmp	0	1	+	0	1	blank2r.bmp	492	1	LWWL	492	1	blank2r.bmp	572	3	krank	866	1	!	1239	1	!	-1	0	0	0	0	0	0	0	0	0	0	0	0	0	0	0	0	0	0	0	0	0	0	0	0	0	0	0	0	0	0
072319	10:51:57	11:01:16	558299	5.0.10.0	5_exp_RW	75	Rpleas_acq	CS_A	JQQJ	ZHHZ	YFFY	LWWL	CPPC	DXXD	sonnig	träumen	vertrauen	gütig	genießen	küssen	sterben	töten	versagen	gierig	gemein	krank	1	acq_USpleas_CSpleas1_RW	acq4567_RW	5	12	400	0	300	300	479	50	0	1	1	blank2r.bmp	0	1	+	0	1	blank2r.bmp	492	1	JQQJ	492	1	blank2r.bmp	572	3	vertrauen	866	1	!	1239	1	!	-1	0	0	0	0	0	0	0	0	0	0	0	0	0	0	0	0	0	0	0	0	0	0	0	0	0	0	0	0	0	0
072319	10:51:57	11:01:18	560378	5.0.10.0	5_exp_RW	75	Rpleas_acq	CS_A	JQQJ	ZHHZ	YFFY	LWWL	CPPC	DXXD	sonnig	träumen	vertrauen	gütig	genießen	küssen	sterben	töten	versagen	gierig	gemein	krank	1	acq_USpleas_CSpleas1_RW	acq4567_RW	5	13	400	0	300	300	296	46	0	0	1	blank2r.bmp	0	1	+	0	1	blank2r.bmp	492	1	JQQJ	492	1	blank2r.bmp	572	2	träumen	866	1	!	-1	1	!	-1	0	0	0	0	0	0	0	0	0	0	0	0	0	0	0	0	0	0	0	0	0	0	0	0	0	0	0	0	0	0
072319	10:51:57	11:01:20	562671	5.0.10.0	5_exp_RW	75	Rpleas_acq	CS_A	JQQJ	ZHHZ	YFFY	LWWL	CPPC	DXXD	sonnig	träumen	vertrauen	gütig	genießen	küssen	sterben	töten	versagen	gierig	gemein	krank	1	acq_USunple_CSunple2_RW	acq4567_RW	5	14	400	0	300	300	502	46	0	1	1	blank2r.bmp	0	1	+	0	1	blank2r.bmp	492	1	LWWL	492	1	blank2r.bmp	572	2	gemein	866	1	!	1239	1	!	-1	0	0	0	0	0	0	0	0	0	0	0	0	0	0	0	0	0	0	0	0	0	0	0	0	0	0	0	0	0	0
072319	10:51:57	11:01:22	564843	5.0.10.0	5_exp_RW	75	Rpleas_acq	CS_A	JQQJ	ZHHZ	YFFY	LWWL	CPPC	DXXD	sonnig	träumen	vertrauen	gütig	genießen	küssen	sterben	töten	versagen	gierig	gemein	krank	1	acq_USpleas_CSpleas1_RW	acq4567_RW	5	15	400	1	300	300	354	50	0	1	1	blank2r.bmp	0	1	+	0	1	blank2r.bmp	492	1	JQQJ	492	1	blank2r.bmp	572	1	sonnig	866	1	!	1239	1	!	1252	0	0	0	0	0	0	0	0	0	0	0	0	0	0	0	0	0	0	0	0	0	0	0	0	0	0	0	0	0	0
072319	10:51:57	11:01:24	566936	5.0.10.0	5_exp_RW	75	Rpleas_acq	CS_A	JQQJ	ZHHZ	YFFY	LWWL	CPPC	DXXD	sonnig	träumen	vertrauen	gütig	genießen	küssen	sterben	töten	versagen	gierig	gemein	krank	1	acq_USunple_CSunple2_RW	acq4567_RW	5	16	400	0	300	300	327	46	0	1	1	blank2r.bmp	0	1	+	0	1	blank2r.bmp	492	1	LWWL	492	1	blank2r.bmp	572	3	krank	866	1	!	-1	1	!	-1	0	0	0	0	0	0	0	0	0	0	0	0	0	0	0	0	0	0	0	0	0	0	0	0	0	0	0	0	0	0
072319	10:51:57	11:01:26	569121	5.0.10.0	5_exp_RW	75	Rpleas_acq	CS_A	JQQJ	ZHHZ	YFFY	LWWL	CPPC	DXXD	sonnig	träumen	vertrauen	gütig	genießen	küssen	sterben	töten	versagen	gierig	gemein	krank	1	acq_USunple_CSunple1_RW	acq4567_RW	5	17	400	1	300	300	383	46	0	1	1	blank2r.bmp	0	1	+	0	1	blank2r.bmp	492	1	YFFY	492	1	blank2r.bmp	572	3	versagen	866	1	!	1239	1	!	1279	0	0	0	0	0	0	0	0	0	0	0	0	0	0	0	0	0	0	0	0	0	0	0	0	0	0	0	0	0	0
072319	10:51:57	11:01:29	571320	5.0.10.0	5_exp_RW	75	Rpleas_acq	CS_A	JQQJ	ZHHZ	YFFY	LWWL	CPPC	DXXD	sonnig	träumen	vertrauen	gütig	genießen	küssen	sterben	töten	versagen	gierig	gemein	krank	1	acq_USpleas_CSpleas1_RW	acq4567_RW	5	18	400	1	300	300	405	50	0	1	1	blank2r.bmp	0	1	+	0	1	blank2r.bmp	492	1	JQQJ	492	1	blank2r.bmp	572	2	träumen	866	1	!	1239	1	!	1306	0	0	0	0	0	0	0	0	0	0	0	0	0	0	0	0	0	0	0	0	0	0	0	0	0	0	0	0	0	0
072319	10:51:57	11:01:31	573480	5.0.10.0	5_exp_RW	75	Rpleas_acq	CS_A	JQQJ	ZHHZ	YFFY	LWWL	CPPC	DXXD	sonnig	träumen	vertrauen	gütig	genießen	küssen	sterben	töten	versagen	gierig	gemein	krank	1	acq_USunple_CSunple1_RW	acq4567_RW	5	19	400	1	300	300	368	46	0	1	1	blank2r.bmp	0	1	+	0	1	blank2r.bmp	492	1	YFFY	492	1	blank2r.bmp	572	1	sterben	866	1	!	1239	1	!	1266	0	0	0	0	0	0	0	0	0	0	0	0	0	0	0	0	0	0	0	0	0	0	0	0	0	0	0	0	0	0
072319	10:51:57	11:01:33	575679	5.0.10.0	5_exp_RW	75	Rpleas_acq	CS_A	JQQJ	ZHHZ	YFFY	LWWL	CPPC	DXXD	sonnig	träumen	vertrauen	gütig	genießen	küssen	sterben	töten	versagen	gierig	gemein	krank	1	acq_USunple_CSunple1_RW	acq4567_RW	5	20	400	1	300	300	389	46	0	1	1	blank2r.bmp	0	1	+	0	1	blank2r.bmp	492	1	YFFY	492	1	blank2r.bmp	572	2	töten	866	1	!	1239	1	!	1292	0	0	0	0	0	0	0	0	0	0	0	0	0	0	0	0	0	0	0	0	0	0	0	0	0	0	0	0	0	0
072319	10:51:57	11:01:35	577784	5.0.10.0	5_exp_RW	75	Rpleas_acq	CS_A	JQQJ	ZHHZ	YFFY	LWWL	CPPC	DXXD	sonnig	träumen	vertrauen	gütig	genießen	küssen	sterben	töten	versagen	gierig	gemein	krank	1	acq_USpleas_CSpleas2_RW	acq4567_RW	5	21	400	0	300	300	323	50	0	1	1	blank2r.bmp	0	1	+	0	1	blank2r.bmp	492	1	ZHHZ	492	1	blank2r.bmp	572	3	küssen	866	1	!	-1	1	!	-1	0	0	0	0	0	0	0	0	0	0	0	0	0	0	0	0	0	0	0	0	0	0	0	0	0	0	0	0	0	0
072319	10:51:57	11:01:37	580010	5.0.10.0	5_exp_RW	75	Rpleas_acq	CS_A	JQQJ	ZHHZ	YFFY	LWWL	CPPC	DXXD	sonnig	träumen	vertrauen	gütig	genießen	küssen	sterben	töten	versagen	gierig	gemein	krank	1	acq_USpleas_CSpleas2_RW	acq4567_RW	5	22	400	1	300	300	418	50	0	1	1	blank2r.bmp	0	1	+	0	1	blank2r.bmp	492	1	ZHHZ	492	1	blank2r.bmp	572	2	genießen	866	1	!	1239	1	!	1319	0	0	0	0	0	0	0	0	0	0	0	0	0	0	0	0	0	0	0	0	0	0	0	0	0	0	0	0	0	0
072319	10:51:57	11:01:39	582196	5.0.10.0	5_exp_RW	75	Rpleas_acq	CS_A	JQQJ	ZHHZ	YFFY	LWWL	CPPC	DXXD	sonnig	träumen	vertrauen	gütig	genießen	küssen	sterben	töten	versagen	gierig	gemein	krank	1	acq_USunple_CSunple2_RW	acq4567_RW	5	23	400	1	300	300	386	46	0	1	1	blank2r.bmp	0	1	+	0	1	blank2r.bmp	492	1	LWWL	492	1	blank2r.bmp	572	1	gierig	866	1	!	1239	1	!	1292	0	0	0	0	0	0	0	0	0	0	0	0	0	0	0	0	0	0	0	0	0	0	0	0	0	0	0	0	0	0
072319	10:51:57	11:01:42	584422	5.0.10.0	5_exp_RW	75	Rpleas_acq	CS_A	JQQJ	ZHHZ	YFFY	LWWL	CPPC	DXXD	sonnig	träumen	vertrauen	gütig	genießen	küssen	sterben	töten	versagen	gierig	gemein	krank	1	acq_USunple_CSunple1_RW	acq4567_RW	5	24	400	1	300	300	437	46	0	1	1	blank2r.bmp	0	1	+	0	1	blank2r.bmp	492	1	YFFY	492	1	blank2r.bmp	572	3	versagen	866	1	!	1239	1	!	1332	0	0	0	0	0	0	0	0	0	0	0	0	0	0	0	0	0	0	0	0	0	0	0	0	0	0	0	0	0	0
072319	10:51:57	11:01:44	586581	5.0.10.0	5_exp_RW	75	Rpleas_acq	CS_A	JQQJ	ZHHZ	YFFY	LWWL	CPPC	DXXD	sonnig	träumen	vertrauen	gütig	genießen	küssen	sterben	töten	versagen	gierig	gemein	krank	1	acq_USunple_CSunple2_RW	acq4567_RW	5	25	400	1	300	300	361	46	0	1	1	blank2r.bmp	0	1	+	0	1	blank2r.bmp	492	1	LWWL	492	1	blank2r.bmp	572	2	gemein	866	1	!	1239	1	!	1266	0	0	0	0	0	0	0	0	0	0	0	0	0	0	0	0	0	0	0	0	0	0	0	0	0	0	0	0	0	0
072319	10:51:57	11:01:46	588966	5.0.10.0	5_exp_RW	75	Rpleas_acq	CS_A	JQQJ	ZHHZ	YFFY	LWWL	CPPC	DXXD	sonnig	träumen	vertrauen	gütig	genießen	küssen	sterben	töten	versagen	gierig	gemein	krank	1	acq_USpleas_CSpleas1_RW	acq4567_RW	5	26	400	0	300	300	623	50	0	1	1	blank2r.bmp	0	1	+	0	1	blank2r.bmp	492	1	JQQJ	492	1	blank2r.bmp	572	3	vertrauen	866	1	!	1239	1	!	-1	0	0	0	0	0	0	0	0	0	0	0	0	0	0	0	0	0	0	0	0	0	0	0	0	0	0	0	0	0	0
072319	10:51:57	11:01:48	591232	5.0.10.0	5_exp_RW	75	Rpleas_acq	CS_A	JQQJ	ZHHZ	YFFY	LWWL	CPPC	DXXD	sonnig	träumen	vertrauen	gütig	genießen	küssen	sterben	töten	versagen	gierig	gemein	krank	1	acq_USunple_CSunple2_RW	acq4567_RW	5	27	400	0	300	300	483	46	0	1	1	blank2r.bmp	0	1	+	0	1	blank2r.bmp	492	1	LWWL	492	1	blank2r.bmp	572	1	gierig	866	1	!	1239	1	!	-1	0	0	0	0	0	0	0	0	0	0	0	0	0	0	0	0	0	0	0	0	0	0	0	0	0	0	0	0	0	0
072319	10:51:57	11:01:51	593471	5.0.10.0	5_exp_RW	75	Rpleas_acq	CS_A	JQQJ	ZHHZ	YFFY	LWWL	CPPC	DXXD	sonnig	träumen	vertrauen	gütig	genießen	küssen	sterben	töten	versagen	gierig	gemein	krank	1	acq_USpleas_CSpleas1_RW	acq4567_RW	5	28	400	1	300	300	438	50	0	1	1	blank2r.bmp	0	1	+	0	1	blank2r.bmp	492	1	JQQJ	492	1	blank2r.bmp	572	2	träumen	866	1	!	1239	1	!	1332	0	0	0	0	0	0	0	0	0	0	0	0	0	0	0	0	0	0	0	0	0	0	0	0	0	0	0	0	0	0
072319	10:51:57	11:01:53	595617	5.0.10.0	5_exp_RW	75	Rpleas_acq	CS_A	JQQJ	ZHHZ	YFFY	LWWL	CPPC	DXXD	sonnig	träumen	vertrauen	gütig	genießen	küssen	sterben	töten	versagen	gierig	gemein	krank	1	acq_USpleas_CSpleas1_RW	acq4567_RW	5	29	400	1	300	300	353	50	0	1	1	blank2r.bmp	0	1	+	0	1	blank2r.bmp	492	1	JQQJ	492	1	blank2r.bmp	572	3	vertrauen	866	1	!	1239	1	!	1252	0	0	0	0	0	0	0	0	0	0	0	0	0	0	0	0	0	0	0	0	0	0	0	0	0	0	0	0	0	0
072319	10:51:57	11:01:57	599455	5.0.10.0	5_exp_RW	75	Rpleas_acq	CS_A	JQQJ	ZHHZ	YFFY	LWWL	CPPC	DXXD	sonnig	träumen	vertrauen	gütig	genießen	küssen	sterben	töten	versagen	gierig	gemein	krank	1	acq_USunple_CSunple2_RW	acq4567_RW	5	30	400	0	300	300	2052	46	0	1	1	blank2r.bmp	0	1	+	0	1	blank2r.bmp	492	1	LWWL	492	1	blank2r.bmp	572	3	krank	866	1	!	1239	1	!	-1	0	0	0	0	0	0	0	0	0	0	0	0	0	0	0	0	0	0	0	0	0	0	0	0	0	0	0	0	0	0
072319	10:51:57	11:01:59	601708	5.0.10.0	5_exp_RW	75	Rpleas_acq	CS_A	JQQJ	ZHHZ	YFFY	LWWL	CPPC	DXXD	sonnig	träumen	vertrauen	gütig	genießen	küssen	sterben	töten	versagen	gierig	gemein	krank	1	acq_USunple_CSunple1_RW	acq4567_RW	5	31	400	1	300	300	429	46	0	1	1	blank2r.bmp	0	1	+	0	1	blank2r.bmp	492	1	YFFY	492	1	blank2r.bmp	572	1	sterben	866	1	!	1239	1	!	1332	0	0	0	0	0	0	0	0	0	0	0	0	0	0	0	0	0	0	0	0	0	0	0	0	0	0	0	0	0	0
072319	10:51:57	11:02:01	603880	5.0.10.0	5_exp_RW	75	Rpleas_acq	CS_A	JQQJ	ZHHZ	YFFY	LWWL	CPPC	DXXD	sonnig	träumen	vertrauen	gütig	genießen	küssen	sterben	töten	versagen	gierig	gemein	krank	1	acq_USpleas_CSpleas1_RW	acq4567_RW	5	32	400	1	300	300	379	50	0	1	1	blank2r.bmp	0	1	+	0	1	blank2r.bmp	492	1	JQQJ	492	1	blank2r.bmp	572	1	sonnig	866	1	!	1239	1	!	1279	0	0	0	0	0	0	0	0	0	0	0	0	0	0	0	0	0	0	0	0	0	0	0	0	0	0	0	0	0	0
072319	10:51:57	11:02:03	606173	5.0.10.0	5_exp_RW	75	Rpleas_acq	CS_A	JQQJ	ZHHZ	YFFY	LWWL	CPPC	DXXD	sonnig	träumen	vertrauen	gütig	genießen	küssen	sterben	töten	versagen	gierig	gemein	krank	1	acq_USunple_CSunple1_RW	acq4567_RW	5	33	400	0	300	300	519	46	0	1	1	blank2r.bmp	0	1	+	0	1	blank2r.bmp	492	1	YFFY	492	1	blank2r.bmp	572	3	versagen	866	1	!	1239	1	!	-1	0	0	0	0	0	0	0	0	0	0	0	0	0	0	0	0	0	0	0	0	0	0	0	0	0	0	0	0	0	0
072319	10:51:57	11:02:06	608398	5.0.10.0	5_exp_RW	75	Rpleas_acq	CS_A	JQQJ	ZHHZ	YFFY	LWWL	CPPC	DXXD	sonnig	träumen	vertrauen	gütig	genießen	küssen	sterben	töten	versagen	gierig	gemein	krank	1	acq_USunple_CSunple2_RW	acq4567_RW	5	34	400	1	300	300	417	46	0	1	1	blank2r.bmp	0	1	+	0	1	blank2r.bmp	492	1	LWWL	492	1	blank2r.bmp	572	2	gemein	866	1	!	1239	1	!	1319	0	0	0	0	0	0	0	0	0	0	0	0	0	0	0	0	0	0	0	0	0	0	0	0	0	0	0	0	0	0
072319	10:51:57	11:02:08	610571	5.0.10.0	5_exp_RW	75	Rpleas_acq	CS_A	JQQJ	ZHHZ	YFFY	LWWL	CPPC	DXXD	sonnig	träumen	vertrauen	gütig	genießen	küssen	sterben	töten	versagen	gierig	gemein	krank	1	acq_USpleas_CSpleas2_RW	acq4567_RW	5	35	400	1	300	300	379	50	0	1	1	blank2r.bmp	0	1	+	0	1	blank2r.bmp	492	1	ZHHZ	492	1	blank2r.bmp	572	3	küssen	866	1	!	1239	1	!	1279	0	0	0	0	0	0	0	0	0	0	0	0	0	0	0	0	0	0	0	0	0	0	0	0	0	0	0	0	0	0
072319	10:51:57	11:02:10	612743	5.0.10.0	5_exp_RW	75	Rpleas_acq	CS_A	JQQJ	ZHHZ	YFFY	LWWL	CPPC	DXXD	sonnig	träumen	vertrauen	gütig	genießen	küssen	sterben	töten	versagen	gierig	gemein	krank	1	acq_USunple_CSunple1_RW	acq4567_RW	5	36	400	1	300	300	373	46	0	1	1	blank2r.bmp	0	1	+	0	1	blank2r.bmp	492	1	YFFY	492	1	blank2r.bmp	572	2	töten	866	1	!	1239	1	!	1279	0	0	0	0	0	0	0	0	0	0	0	0	0	0	0	0	0	0	0	0	0	0	0	0	0	0	0	0	0	0
072319	10:51:57	11:02:12	614902	5.0.10.0	5_exp_RW	75	Rpleas_acq	CS_A	JQQJ	ZHHZ	YFFY	LWWL	CPPC	DXXD	sonnig	träumen	vertrauen	gütig	genießen	küssen	sterben	töten	versagen	gierig	gemein	krank	1	acq_USpleas_CSpleas1_RW	acq4567_RW	5	37	400	1	300	300	346	50	0	1	1	blank2r.bmp	0	1	+	0	1	blank2r.bmp	492	1	JQQJ	492	1	blank2r.bmp	572	2	träumen	866	1	!	1239	1	!	1252	0	0	0	0	0	0	0	0	0	0	0	0	0	0	0	0	0	0	0	0	0	0	0	0	0	0	0	0	0	0
072319	10:51:57	11:02:14	617208	5.0.10.0	5_exp_RW	75	Rpleas_acq	CS_A	JQQJ	ZHHZ	YFFY	LWWL	CPPC	DXXD	sonnig	träumen	vertrauen	gütig	genießen	küssen	sterben	töten	versagen	gierig	gemein	krank	1	acq_USpleas_CSpleas2_RW	acq4567_RW	5	38	400	0	300	300	539	50	0	1	1	blank2r.bmp	0	1	+	0	1	blank2r.bmp	492	1	ZHHZ	492	1	blank2r.bmp	572	1	gütig	866	1	!	1239	1	!	-1	0	0	0	0	0	0	0	0	0	0	0	0	0	0	0	0	0	0	0	0	0	0	0	0	0	0	0	0	0	0
072319	10:51:57	11:02:17	619327	5.0.10.0	5_exp_RW	75	Rpleas_acq	CS_A	JQQJ	ZHHZ	YFFY	LWWL	CPPC	DXXD	sonnig	träumen	vertrauen	gütig	genießen	küssen	sterben	töten	versagen	gierig	gemein	krank	1	acq_USpleas_CSpleas2_RW	acq4567_RW	5	39	400	0	300	300	325	50	0	1	1	blank2r.bmp	0	1	+	0	1	blank2r.bmp	492	1	ZHHZ	492	1	blank2r.bmp	572	1	gütig	866	1	!	-1	1	!	-1	0	0	0	0	0	0	0	0	0	0	0	0	0	0	0	0	0	0	0	0	0	0	0	0	0	0	0	0	0	0
072319	10:51:57	11:02:19	621633	5.0.10.0	5_exp_RW	75	Rpleas_acq	CS_A	JQQJ	ZHHZ	YFFY	LWWL	CPPC	DXXD	sonnig	träumen	vertrauen	gütig	genießen	küssen	sterben	töten	versagen	gierig	gemein	krank	1	acq_USunple_CSunple1_RW	acq4567_RW	5	40	400	0	300	300	522	46	0	1	1	blank2r.bmp	0	1	+	0	1	blank2r.bmp	492	1	YFFY	492	1	blank2r.bmp	572	3	versagen	866	1	!	1239	1	!	-1	0	0	0	0	0	0	0	0	0	0	0	0	0	0	0	0	0	0	0	0	0	0	0	0	0	0	0	0	0	0
072319	10:51:57	11:02:21	623792	5.0.10.0	5_exp_RW	75	Rpleas_acq	CS_A	JQQJ	ZHHZ	YFFY	LWWL	CPPC	DXXD	sonnig	träumen	vertrauen	gütig	genießen	küssen	sterben	töten	versagen	gierig	gemein	krank	1	acq_USpleas_CSpleas1_RW	acq4567_RW	5	41	400	1	300	300	351	50	0	1	1	blank2r.bmp	0	1	+	0	1	blank2r.bmp	492	1	JQQJ	492	1	blank2r.bmp	572	1	sonnig	866	1	!	1239	1	!	1252	0	0	0	0	0	0	0	0	0	0	0	0	0	0	0	0	0	0	0	0	0	0	0	0	0	0	0	0	0	0
072319	10:51:57	11:02:23	625978	5.0.10.0	5_exp_RW	75	Rpleas_acq	CS_A	JQQJ	ZHHZ	YFFY	LWWL	CPPC	DXXD	sonnig	träumen	vertrauen	gütig	genießen	küssen	sterben	töten	versagen	gierig	gemein	krank	1	acq_USpleas_CSpleas1_RW	acq4567_RW	5	42	400	1	300	300	390	50	0	1	1	blank2r.bmp	0	1	+	0	1	blank2r.bmp	492	1	JQQJ	492	1	blank2r.bmp	572	3	vertrauen	866	1	!	1239	1	!	1292	0	0	0	0	0	0	0	0	0	0	0	0	0	0	0	0	0	0	0	0	0	0	0	0	0	0	0	0	0	0
072319	10:51:57	11:02:25	628163	5.0.10.0	5_exp_RW	75	Rpleas_acq	CS_A	JQQJ	ZHHZ	YFFY	LWWL	CPPC	DXXD	sonnig	träumen	vertrauen	gütig	genießen	küssen	sterben	töten	versagen	gierig	gemein	krank	1	acq_USunple_CSunple1_RW	acq4567_RW	5	43	400	1	300	300	386	46	0	1	1	blank2r.bmp	0	1	+	0	1	blank2r.bmp	492	1	YFFY	492	1	blank2r.bmp	572	1	sterben	866	1	!	1239	1	!	1292	0	0	0	0	0	0	0	0	0	0	0	0	0	0	0	0	0	0	0	0	0	0	0	0	0	0	0	0	0	0
072319	10:51:57	11:02:27	630256	5.0.10.0	5_exp_RW	75	Rpleas_acq	CS_A	JQQJ	ZHHZ	YFFY	LWWL	CPPC	DXXD	sonnig	träumen	vertrauen	gütig	genießen	küssen	sterben	töten	versagen	gierig	gemein	krank	1	acq_USpleas_CSpleas1_RW	acq4567_RW	5	44	400	0	300	300	323	50	0	1	1	blank2r.bmp	0	1	+	0	1	blank2r.bmp	492	1	JQQJ	492	1	blank2r.bmp	572	2	träumen	866	1	!	-1	1	!	-1	0	0	0	0	0	0	0	0	0	0	0	0	0	0	0	0	0	0	0	0	0	0	0	0	0	0	0	0	0	0
072319	10:51:57	11:02:30	632508	5.0.10.0	5_exp_RW	75	Rpleas_acq	CS_A	JQQJ	ZHHZ	YFFY	LWWL	CPPC	DXXD	sonnig	träumen	vertrauen	gütig	genießen	küssen	sterben	töten	versagen	gierig	gemein	krank	1	acq_USunple_CSunple2_RW	acq4567_RW	5	45	400	1	300	300	443	46	0	1	1	blank2r.bmp	0	1	+	0	1	blank2r.bmp	492	1	LWWL	492	1	blank2r.bmp	572	1	gierig	866	1	!	1239	1	!	1346	0	0	0	0	0	0	0	0	0	0	0	0	0	0	0	0	0	0	0	0	0	0	0	0	0	0	0	0	0	0
072319	10:51:57	11:02:32	634614	5.0.10.0	5_exp_RW	75	Rpleas_acq	CS_A	JQQJ	ZHHZ	YFFY	LWWL	CPPC	DXXD	sonnig	träumen	vertrauen	gütig	genießen	küssen	sterben	töten	versagen	gierig	gemein	krank	1	acq_USpleas_CSpleas2_RW	acq4567_RW	5	46	400	0	300	300	326	50	0	1	1	blank2r.bmp	0	1	+	0	1	blank2r.bmp	492	1	ZHHZ	492	1	blank2r.bmp	572	3	küssen	866	1	!	-1	1	!	-1	0	0	0	0	0	0	0	0	0	0	0	0	0	0	0	0	0	0	0	0	0	0	0	0	0	0	0	0	0	0
072319	10:51:57	11:02:34	636906	5.0.10.0	5_exp_RW	75	Rpleas_acq	CS_A	JQQJ	ZHHZ	YFFY	LWWL	CPPC	DXXD	sonnig	träumen	vertrauen	gütig	genießen	küssen	sterben	töten	versagen	gierig	gemein	krank	1	acq_USpleas_CSpleas2_RW	acq4567_RW	5	47	400	0	300	300	509	50	0	1	1	blank2r.bmp	0	1	+	0	1	blank2r.bmp	492	1	ZHHZ	492	1	blank2r.bmp	572	2	genießen	866	1	!	1239	1	!	-1	0	0	0	0	0	0	0	0	0	0	0	0	0	0	0	0	0	0	0	0	0	0	0	0	0	0	0	0	0	0
072319	10:51:57	11:02:36	639172	5.0.10.0	5_exp_RW	75	Rpleas_acq	CS_A	JQQJ	ZHHZ	YFFY	LWWL	CPPC	DXXD	sonnig	träumen	vertrauen	gütig	genießen	küssen	sterben	töten	versagen	gierig	gemein	krank	1	acq_USunple_CSunple1_RW	acq4567_RW	5	48	400	0	300	300	479	46	0	1	1	blank2r.bmp	0	1	+	0	1	blank2r.bmp	492	1	YFFY	492	1	blank2r.bmp	572	2	töten	866	1	!	1239	1	!	-1	0	0	0	0	0	0	0	0	0	0	0	0	0	0	0	0	0	0	0	0	0	0	0	0	0	0	0	0	0	0
072319	10:51:57	11:02:39	641371	5.0.10.0	5_exp_RW	75	Rpleas_acq	CS_A	JQQJ	ZHHZ	YFFY	LWWL	CPPC	DXXD	sonnig	träumen	vertrauen	gütig	genießen	küssen	sterben	töten	versagen	gierig	gemein	krank	1	acq_USpleas_CSpleas1_RW	acq4567_RW	5	49	400	1	300	300	379	50	0	1	1	blank2r.bmp	0	1	+	0	1	blank2r.bmp	492	1	JQQJ	492	1	blank2r.bmp	572	3	vertrauen	866	1	!	1239	1	!	1279	0	0	0	0	0	0	0	0	0	0	0	0	0	0	0	0	0	0	0	0	0	0	0	0	0	0	0	0	0	0
072319	10:51:57	11:02:41	643530	5.0.10.0	5_exp_RW	75	Rpleas_acq	CS_A	JQQJ	ZHHZ	YFFY	LWWL	CPPC	DXXD	sonnig	träumen	vertrauen	gütig	genießen	küssen	sterben	töten	versagen	gierig	gemein	krank	1	acq_USpleas_CSpleas2_RW	acq4567_RW	5	50	400	1	300	300	346	50	0	1	1	blank2r.bmp	0	1	+	0	1	blank2r.bmp	492	1	ZHHZ	492	1	blank2r.bmp	572	3	küssen	866	1	!	1239	1	!	1252	0	0	0	0	0	0	0	0	0	0	0	0	0	0	0	0	0	0	0	0	0	0	0	0	0	0	0	0	0	0
072319	10:51:57	11:02:43	645783	5.0.10.0	5_exp_RW	75	Rpleas_acq	CS_A	JQQJ	ZHHZ	YFFY	LWWL	CPPC	DXXD	sonnig	träumen	vertrauen	gütig	genießen	küssen	sterben	töten	versagen	gierig	gemein	krank	1	acq_USunple_CSunple2_RW	acq4567_RW	5	51	400	0	300	300	483	46	0	1	1	blank2r.bmp	0	1	+	0	1	blank2r.bmp	492	1	LWWL	492	1	blank2r.bmp	572	3	krank	866	1	!	1239	1	!	-1	0	0	0	0	0	0	0	0	0	0	0	0	0	0	0	0	0	0	0	0	0	0	0	0	0	0	0	0	0	0
072319	10:51:57	11:02:45	648142	5.0.10.0	5_exp_RW	75	Rpleas_acq	CS_A	JQQJ	ZHHZ	YFFY	LWWL	CPPC	DXXD	sonnig	träumen	vertrauen	gütig	genießen	küssen	sterben	töten	versagen	gierig	gemein	krank	1	acq_USunple_CSunple2_RW	acq4567_RW	5	52	400	0	300	300	573	46	0	1	1	blank2r.bmp	0	1	+	0	1	blank2r.bmp	492	1	LWWL	492	1	blank2r.bmp	572	1	gierig	866	1	!	1239	1	!	-1	0	0	0	0	0	0	0	0	0	0	0	0	0	0	0	0	0	0	0	0	0	0	0	0	0	0	0	0	0	0
072319	10:51:57	11:02:48	650354	5.0.10.0	5_exp_RW	75	Rpleas_acq	CS_A	JQQJ	ZHHZ	YFFY	LWWL	CPPC	DXXD	sonnig	träumen	vertrauen	gütig	genießen	küssen	sterben	töten	versagen	gierig	gemein	krank	1	acq_USunple_CSunple1_RW	acq4567_RW	5	53	400	1	300	300	412	50	0	0	1	blank2r.bmp	0	1	+	0	1	blank2r.bmp	492	1	YFFY	492	1	blank2r.bmp	572	1	sterben	866	1	!	1239	1	!	1306	0	0	0	0	0	0	0	0	0	0	0	0	0	0	0	0	0	0	0	0	0	0	0	0	0	0	0	0	0	0
072319	10:51:57	11:02:50	652540	5.0.10.0	5_exp_RW	75	Rpleas_acq	CS_A	JQQJ	ZHHZ	YFFY	LWWL	CPPC	DXXD	sonnig	träumen	vertrauen	gütig	genießen	küssen	sterben	töten	versagen	gierig	gemein	krank	1	acq_USunple_CSunple1_RW	acq4567_RW	5	54	400	1	300	300	376	46	0	1	1	blank2r.bmp	0	1	+	0	1	blank2r.bmp	492	1	YFFY	492	1	blank2r.bmp	572	3	versagen	866	1	!	1239	1	!	1279	0	0	0	0	0	0	0	0	0	0	0	0	0	0	0	0	0	0	0	0	0	0	0	0	0	0	0	0	0	0
072319	10:51:57	11:02:52	654832	5.0.10.0	5_exp_RW	75	Rpleas_acq	CS_A	JQQJ	ZHHZ	YFFY	LWWL	CPPC	DXXD	sonnig	träumen	vertrauen	gütig	genießen	küssen	sterben	töten	versagen	gierig	gemein	krank	1	acq_USpleas_CSpleas1_RW	acq4567_RW	5	55	400	0	300	300	515	50	0	1	1	blank2r.bmp	0	1	+	0	1	blank2r.bmp	492	1	JQQJ	492	1	blank2r.bmp	572	1	sonnig	866	1	!	1239	1	!	-1	0	0	0	0	0	0	0	0	0	0	0	0	0	0	0	0	0	0	0	0	0	0	0	0	0	0	0	0	0	0
072319	10:51:57	11:02:54	656938	5.0.10.0	5_exp_RW	75	Rpleas_acq	CS_A	JQQJ	ZHHZ	YFFY	LWWL	CPPC	DXXD	sonnig	träumen	vertrauen	gütig	genießen	küssen	sterben	töten	versagen	gierig	gemein	krank	1	acq_USunple_CSunple1_RW	acq4567_RW	5	56	400	0	300	300	324	50	0	0	1	blank2r.bmp	0	1	+	0	1	blank2r.bmp	492	1	YFFY	492	1	blank2r.bmp	572	2	töten	866	1	!	-1	1	!	-1	0	0	0	0	0	0	0	0	0	0	0	0	0	0	0	0	0	0	0	0	0	0	0	0	0	0	0	0	0	0
072319	10:51:57	11:02:56	659177	5.0.10.0	5_exp_RW	75	Rpleas_acq	CS_A	JQQJ	ZHHZ	YFFY	LWWL	CPPC	DXXD	sonnig	träumen	vertrauen	gütig	genießen	küssen	sterben	töten	versagen	gierig	gemein	krank	1	acq_USpleas_CSpleas2_RW	acq4567_RW	5	57	400	1	300	300	430	50	0	1	1	blank2r.bmp	0	1	+	0	1	blank2r.bmp	492	1	ZHHZ	492	1	blank2r.bmp	572	2	genießen	866	1	!	1239	1	!	1332	0	0	0	0	0	0	0	0	0	0	0	0	0	0	0	0	0	0	0	0	0	0	0	0	0	0	0	0	0	0
072319	10:51:57	11:02:59	661523	5.0.10.0	5_exp_RW	75	Rpleas_acq	CS_A	JQQJ	ZHHZ	YFFY	LWWL	CPPC	DXXD	sonnig	träumen	vertrauen	gütig	genießen	küssen	sterben	töten	versagen	gierig	gemein	krank	1	acq_USunple_CSunple2_RW	acq4567_RW	5	58	400	0	300	300	578	46	0	1	1	blank2r.bmp	0	1	+	0	1	blank2r.bmp	492	1	LWWL	492	1	blank2r.bmp	572	2	gemein	866	1	!	1239	1	!	-1	0	0	0	0	0	0	0	0	0	0	0	0	0	0	0	0	0	0	0	0	0	0	0	0	0	0	0	0	0	0
072319	10:51:57	11:03:01	663748	5.0.10.0	5_exp_RW	75	Rpleas_acq	CS_A	JQQJ	ZHHZ	YFFY	LWWL	CPPC	DXXD	sonnig	träumen	vertrauen	gütig	genießen	küssen	sterben	töten	versagen	gierig	gemein	krank	1	acq_USpleas_CSpleas2_RW	acq4567_RW	5	59	400	1	300	300	423	50	0	1	1	blank2r.bmp	0	1	+	0	1	blank2r.bmp	492	1	ZHHZ	492	1	blank2r.bmp	572	1	gütig	866	1	!	1239	1	!	1319	0	0	0	0	0	0	0	0	0	0	0	0	0	0	0	0	0	0	0	0	0	0	0	0	0	0	0	0	0	0
072319	10:51:57	11:03:03	665908	5.0.10.0	5_exp_RW	75	Rpleas_acq	CS_A	JQQJ	ZHHZ	YFFY	LWWL	CPPC	DXXD	sonnig	träumen	vertrauen	gütig	genießen	küssen	sterben	töten	versagen	gierig	gemein	krank	1	acq_USunple_CSunple2_RW	acq4567_RW	5	60	400	1	300	300	371	46	0	1	1	blank2r.bmp	0	1	+	0	1	blank2r.bmp	492	1	LWWL	492	1	blank2r.bmp	572	3	krank	866	1	!	1239	1	!	1266	0	0	0	0	0	0	0	0	0	0	0	0	0	0	0	0	0	0	0	0	0	0	0	0	0	0	0	0	0	0
072319	10:51:57	11:03:05	668147	5.0.10.0	5_exp_RW	75	Rpleas_acq	CS_A	JQQJ	ZHHZ	YFFY	LWWL	CPPC	DXXD	sonnig	träumen	vertrauen	gütig	genießen	küssen	sterben	töten	versagen	gierig	gemein	krank	1	acq_USpleas_CSpleas2_RW	acq4567_RW	5	61	400	1	300	300	426	50	0	1	1	blank2r.bmp	0	1	+	0	1	blank2r.bmp	492	1	ZHHZ	492	1	blank2r.bmp	572	2	genießen	866	1	!	1239	1	!	1332	0	0	0	0	0	0	0	0	0	0	0	0	0	0	0	0	0	0	0	0	0	0	0	0	0	0	0	0	0	0
072319	10:51:57	11:03:08	670346	5.0.10.0	5_exp_RW	75	Rpleas_acq	CS_A	JQQJ	ZHHZ	YFFY	LWWL	CPPC	DXXD	sonnig	träumen	vertrauen	gütig	genießen	küssen	sterben	töten	versagen	gierig	gemein	krank	1	acq_USunple_CSunple2_RW	acq4567_RW	5	62	400	1	300	300	407	46	0	1	1	blank2r.bmp	0	1	+	0	1	blank2r.bmp	492	1	LWWL	492	1	blank2r.bmp	572	2	gemein	866	1	!	1239	1	!	1306	0	0	0	0	0	0	0	0	0	0	0	0	0	0	0	0	0	0	0	0	0	0	0	0	0	0	0	0	0	0
072319	10:51:57	11:03:10	672545	5.0.10.0	5_exp_RW	75	Rpleas_acq	CS_A	JQQJ	ZHHZ	YFFY	LWWL	CPPC	DXXD	sonnig	träumen	vertrauen	gütig	genießen	küssen	sterben	töten	versagen	gierig	gemein	krank	1	acq_USunple_CSunple2_RW	acq4567_RW	5	63	400	1	300	300	406	46	0	1	1	blank2r.bmp	0	1	+	0	1	blank2r.bmp	492	1	LWWL	492	1	blank2r.bmp	572	3	krank	866	1	!	1239	1	!	1306	0	0	0	0	0	0	0	0	0	0	0	0	0	0	0	0	0	0	0	0	0	0	0	0	0	0	0	0	0	0
072319	10:51:57	11:03:12	674744	5.0.10.0	5_exp_RW	75	Rpleas_acq	CS_A	JQQJ	ZHHZ	YFFY	LWWL	CPPC	DXXD	sonnig	träumen	vertrauen	gütig	genießen	küssen	sterben	töten	versagen	gierig	gemein	krank	1	acq_USpleas_CSpleas2_RW	acq4567_RW	5	64	400	1	300	300	410	50	0	1	1	blank2r.bmp	0	1	+	0	1	blank2r.bmp	492	1	ZHHZ	492	1	blank2r.bmp	572	3	küssen	866	1	!	1239	1	!	1306	0	0	0	0	0	0	0	0	0	0	0	0	0	0	0	0	0	0	0	0	0	0	0	0	0	0	0	0	0	0
072319	10:51:57	11:03:14	676890	5.0.10.0	5_exp_RW	75	Rpleas_acq	CS_A	JQQJ	ZHHZ	YFFY	LWWL	CPPC	DXXD	sonnig	träumen	vertrauen	gütig	genießen	küssen	sterben	töten	versagen	gierig	gemein	krank	1	acq_USunple_CSunple1_RW	acq4567_RW	5	65	400	1	300	300	346	50	0	0	1	blank2r.bmp	0	1	+	0	1	blank2r.bmp	492	1	YFFY	492	1	blank2r.bmp	572	3	versagen	866	1	!	1239	1	!	1252	0	0	0	0	0	0	0	0	0	0	0	0	0	0	0	0	0	0	0	0	0	0	0	0	0	0	0	0	0	0
072319	10:51:57	11:03:16	679142	5.0.10.0	5_exp_RW	75	Rpleas_acq	CS_A	JQQJ	ZHHZ	YFFY	LWWL	CPPC	DXXD	sonnig	träumen	vertrauen	gütig	genießen	küssen	sterben	töten	versagen	gierig	gemein	krank	1	acq_USunple_CSunple1_RW	acq4567_RW	5	66	400	1	300	300	458	46	0	1	1	blank2r.bmp	0	1	+	0	1	blank2r.bmp	492	1	YFFY	492	1	blank2r.bmp	572	2	töten	866	1	!	1239	1	!	1359	0	0	0	0	0	0	0	0	0	0	0	0	0	0	0	0	0	0	0	0	0	0	0	0	0	0	0	0	0	0
072319	10:51:57	11:03:18	681288	5.0.10.0	5_exp_RW	75	Rpleas_acq	CS_A	JQQJ	ZHHZ	YFFY	LWWL	CPPC	DXXD	sonnig	träumen	vertrauen	gütig	genießen	küssen	sterben	töten	versagen	gierig	gemein	krank	1	acq_USunple_CSunple1_RW	acq4567_RW	5	67	400	1	300	300	351	46	0	1	1	blank2r.bmp	0	1	+	0	1	blank2r.bmp	492	1	YFFY	492	1	blank2r.bmp	572	1	sterben	866	1	!	1239	1	!	1252	0	0	0	0	0	0	0	0	0	0	0	0	0	0	0	0	0	0	0	0	0	0	0	0	0	0	0	0	0	0
072319	10:51:57	11:03:21	683380	5.0.10.0	5_exp_RW	75	Rpleas_acq	CS_A	JQQJ	ZHHZ	YFFY	LWWL	CPPC	DXXD	sonnig	träumen	vertrauen	gütig	genießen	küssen	sterben	töten	versagen	gierig	gemein	krank	1	acq_USpleas_CSpleas1_RW	acq4567_RW	5	68	400	0	300	300	324	50	0	1	1	blank2r.bmp	0	1	+	0	1	blank2r.bmp	492	1	JQQJ	492	1	blank2r.bmp	572	1	sonnig	866	1	!	-1	1	!	-1	0	0	0	0	0	0	0	0	0	0	0	0	0	0	0	0	0	0	0	0	0	0	0	0	0	0	0	0	0	0
072319	10:51:57	11:03:23	685539	5.0.10.0	5_exp_RW	75	Rpleas_acq	CS_A	JQQJ	ZHHZ	YFFY	LWWL	CPPC	DXXD	sonnig	träumen	vertrauen	gütig	genießen	küssen	sterben	töten	versagen	gierig	gemein	krank	1	acq_USunple_CSunple1_RW	acq4567_RW	5	69	400	1	300	300	349	46	0	1	1	blank2r.bmp	0	1	+	0	1	blank2r.bmp	492	1	YFFY	492	1	blank2r.bmp	572	1	sterben	866	1	!	1239	1	!	1252	0	0	0	0	0	0	0	0	0	0	0	0	0	0	0	0	0	0	0	0	0	0	0	0	0	0	0	0	0	0
072319	10:51:57	11:03:25	687752	5.0.10.0	5_exp_RW	75	Rpleas_acq	CS_A	JQQJ	ZHHZ	YFFY	LWWL	CPPC	DXXD	sonnig	träumen	vertrauen	gütig	genießen	küssen	sterben	töten	versagen	gierig	gemein	krank	1	acq_USpleas_CSpleas2_RW	acq4567_RW	5	70	400	1	300	300	413	50	0	1	1	blank2r.bmp	0	1	+	0	1	blank2r.bmp	492	1	ZHHZ	492	1	blank2r.bmp	572	1	gütig	866	1	!	1239	1	!	1319	0	0	0	0	0	0	0	0	0	0	0	0	0	0	0	0	0	0	0	0	0	0	0	0	0	0	0	0	0	0
072319	10:51:57	11:03:27	689951	5.0.10.0	5_exp_RW	75	Rpleas_acq	CS_A	JQQJ	ZHHZ	YFFY	LWWL	CPPC	DXXD	sonnig	träumen	vertrauen	gütig	genießen	küssen	sterben	töten	versagen	gierig	gemein	krank	1	acq_USpleas_CSpleas2_RW	acq4567_RW	5	71	400	1	300	300	409	50	0	1	1	blank2r.bmp	0	1	+	0	1	blank2r.bmp	492	1	ZHHZ	492	1	blank2r.bmp	572	1	gütig	866	1	!	1239	1	!	1306	0	0	0	0	0	0	0	0	0	0	0	0	0	0	0	0	0	0	0	0	0	0	0	0	0	0	0	0	0	0
072319	10:51:57	11:03:29	692110	5.0.10.0	5_exp_RW	75	Rpleas_acq	CS_A	JQQJ	ZHHZ	YFFY	LWWL	CPPC	DXXD	sonnig	träumen	vertrauen	gütig	genießen	küssen	sterben	töten	versagen	gierig	gemein	krank	1	acq_USpleas_CSpleas1_RW	acq4567_RW	5	72	400	1	300	300	359	50	0	1	1	blank2r.bmp	0	1	+	0	1	blank2r.bmp	492	1	JQQJ	492	1	blank2r.bmp	572	3	vertrauen	866	1	!	1239	1	!	1266	0	0	0	0	0	0	0	0	0	0	0	0	0	0	0	0	0	0	0	0	0	0	0	0	0	0	0	0	0	0
072319	10:51:57	11:03:31	694162	5.0.10.0	5_exp_RW	75	Rpleas_acq	CS_A	JQQJ	ZHHZ	YFFY	LWWL	CPPC	DXXD	sonnig	träumen	vertrauen	gütig	genießen	küssen	sterben	töten	versagen	gierig	gemein	krank	1	acq_USpleas_CSpleas1_RW	acq4567_RW	5	73	400	0	300	300	288	46	0	0	1	blank2r.bmp	0	1	+	0	1	blank2r.bmp	492	1	JQQJ	492	1	blank2r.bmp	572	2	träumen	866	1	!	-1	1	!	-1	0	0	0	0	0	0	0	0	0	0	0	0	0	0	0	0	0	0	0	0	0	0	0	0	0	0	0	0	0	0
072319	10:51:57	11:03:34	696441	5.0.10.0	5_exp_RW	75	Rpleas_acq	CS_A	JQQJ	ZHHZ	YFFY	LWWL	CPPC	DXXD	sonnig	träumen	vertrauen	gütig	genießen	küssen	sterben	töten	versagen	gierig	gemein	krank	1	acq_USunple_CSunple2_RW	acq4567_RW	5	74	400	1	300	300	454	50	0	0	1	blank2r.bmp	0	1	+	0	1	blank2r.bmp	492	1	LWWL	492	1	blank2r.bmp	572	1	gierig	866	1	!	1239	1	!	1359	0	0	0	0	0	0	0	0	0	0	0	0	0	0	0	0	0	0	0	0	0	0	0	0	0	0	0	0	0	0
072319	10:51:57	11:03:36	698614	5.0.10.0	5_exp_RW	75	Rpleas_acq	CS_A	JQQJ	ZHHZ	YFFY	LWWL	CPPC	DXXD	sonnig	träumen	vertrauen	gütig	genießen	küssen	sterben	töten	versagen	gierig	gemein	krank	1	acq_USpleas_CSpleas1_RW	acq4567_RW	5	75	400	1	300	300	376	50	0	1	1	blank2r.bmp	0	1	+	0	1	blank2r.bmp	492	1	JQQJ	492	1	blank2r.bmp	572	1	sonnig	866	1	!	1239	1	!	1279	0	0	0	0	0	0	0	0	0	0	0	0	0	0	0	0	0	0	0	0	0	0	0	0	0	0	0	0	0	0
072319	10:51:57	11:03:38	700773	5.0.10.0	5_exp_RW	75	Rpleas_acq	CS_A	JQQJ	ZHHZ	YFFY	LWWL	CPPC	DXXD	sonnig	träumen	vertrauen	gütig	genießen	küssen	sterben	töten	versagen	gierig	gemein	krank	1	acq_USunple_CSunple1_RW	acq4567_RW	5	76	400	1	300	300	359	46	0	1	1	blank2r.bmp	0	1	+	0	1	blank2r.bmp	492	1	YFFY	492	1	blank2r.bmp	572	3	versagen	866	1	!	1239	1	!	1266	0	0	0	0	0	0	0	0	0	0	0	0	0	0	0	0	0	0	0	0	0	0	0	0	0	0	0	0	0	0
072319	10:51:57	11:03:40	702999	5.0.10.0	5_exp_RW	75	Rpleas_acq	CS_A	JQQJ	ZHHZ	YFFY	LWWL	CPPC	DXXD	sonnig	träumen	vertrauen	gütig	genießen	küssen	sterben	töten	versagen	gierig	gemein	krank	1	acq_USunple_CSunple2_RW	acq4567_RW	5	77	400	1	300	300	423	46	0	1	1	blank2r.bmp	0	1	+	0	1	blank2r.bmp	492	1	LWWL	492	1	blank2r.bmp	572	3	krank	866	1	!	1239	1	!	1319	0	0	0	0	0	0	0	0	0	0	0	0	0	0	0	0	0	0	0	0	0	0	0	0	0	0	0	0	0	0
072319	10:51:57	11:03:42	705198	5.0.10.0	5_exp_RW	75	Rpleas_acq	CS_A	JQQJ	ZHHZ	YFFY	LWWL	CPPC	DXXD	sonnig	träumen	vertrauen	gütig	genießen	küssen	sterben	töten	versagen	gierig	gemein	krank	1	acq_USpleas_CSpleas1_RW	acq4567_RW	5	78	400	1	300	300	400	50	0	1	1	blank2r.bmp	0	1	+	0	1	blank2r.bmp	492	1	JQQJ	492	1	blank2r.bmp	572	3	vertrauen	866	1	!	1239	1	!	1306	0	0	0	0	0	0	0	0	0	0	0	0	0	0	0	0	0	0	0	0	0	0	0	0	0	0	0	0	0	0
072319	10:51:57	11:03:45	707384	5.0.10.0	5_exp_RW	75	Rpleas_acq	CS_A	JQQJ	ZHHZ	YFFY	LWWL	CPPC	DXXD	sonnig	träumen	vertrauen	gütig	genießen	küssen	sterben	töten	versagen	gierig	gemein	krank	1	acq_USpleas_CSpleas2_RW	acq4567_RW	5	79	400	1	300	300	396	50	0	1	1	blank2r.bmp	0	1	+	0	1	blank2r.bmp	492	1	ZHHZ	492	1	blank2r.bmp	572	3	küssen	866	1	!	1239	1	!	1292	0	0	0	0	0	0	0	0	0	0	0	0	0	0	0	0	0	0	0	0	0	0	0	0	0	0	0	0	0	0
072319	10:51:57	11:03:47	709743	5.0.10.0	5_exp_RW	75	Rpleas_acq	CS_A	JQQJ	ZHHZ	YFFY	LWWL	CPPC	DXXD	sonnig	träumen	vertrauen	gütig	genießen	küssen	sterben	töten	versagen	gierig	gemein	krank	1	acq_USunple_CSunple2_RW	acq4567_RW	5	80	400	0	300	300	594	46	0	1	1	blank2r.bmp	0	1	+	0	1	blank2r.bmp	492	1	LWWL	492	1	blank2r.bmp	572	1	gierig	866	1	!	1239	1	!	-1	0	0	0	0	0	0	0	0	0	0	0	0	0	0	0	0	0	0	0	0	0	0	0	0	0	0	0	0	0	0
072319	10:51:57	11:04:10	733279	5.0.10.0	5_exp_RW	75	Rpleas_acq	CS_A	JQQJ	ZHHZ	YFFY	LWWL	CPPC	DXXD	sonnig	träumen	vertrauen	gütig	genießen	küssen	sterben	töten	versagen	gierig	gemein	krank	1	acq_USpleas_CSpleas1_RW	acq4567_RW	6	1	400	1	300	300	383	50	0	1	1	blank2r.bmp	0	1	+	0	1	blank2r.bmp	492	1	JQQJ	492	1	blank2r.bmp	572	2	träumen	866	1	!	1239	1	!	1279	0	0	0	0	0	0	0	0	0	0	0	0	0	0	0	0	0	0	0	0	0	0	0	0	0	0	0	0	0	0
072319	10:51:57	11:04:13	735505	5.0.10.0	5_exp_RW	75	Rpleas_acq	CS_A	JQQJ	ZHHZ	YFFY	LWWL	CPPC	DXXD	sonnig	träumen	vertrauen	gütig	genießen	küssen	sterben	töten	versagen	gierig	gemein	krank	1	acq_USunple_CSunple1_RW	acq4567_RW	6	2	400	1	300	300	429	46	0	1	1	blank2r.bmp	0	1	+	0	1	blank2r.bmp	492	1	YFFY	492	1	blank2r.bmp	572	2	töten	866	1	!	1239	1	!	1332	0	0	0	0	0	0	0	0	0	0	0	0	0	0	0	0	0	0	0	0	0	0	0	0	0	0	0	0	0	0
072319	10:51:57	11:04:15	737664	5.0.10.0	5_exp_RW	75	Rpleas_acq	CS_A	JQQJ	ZHHZ	YFFY	LWWL	CPPC	DXXD	sonnig	träumen	vertrauen	gütig	genießen	küssen	sterben	töten	versagen	gierig	gemein	krank	1	acq_USpleas_CSpleas2_RW	acq4567_RW	6	3	400	1	300	300	360	50	0	1	1	blank2r.bmp	0	1	+	0	1	blank2r.bmp	492	1	ZHHZ	492	1	blank2r.bmp	572	2	genießen	866	1	!	1239	1	!	1266	0	0	0	0	0	0	0	0	0	0	0	0	0	0	0	0	0	0	0	0	0	0	0	0	0	0	0	0	0	0
072319	10:51:57	11:04:17	739810	5.0.10.0	5_exp_RW	75	Rpleas_acq	CS_A	JQQJ	ZHHZ	YFFY	LWWL	CPPC	DXXD	sonnig	träumen	vertrauen	gütig	genießen	küssen	sterben	töten	versagen	gierig	gemein	krank	1	acq_USpleas_CSpleas1_RW	acq4567_RW	6	4	400	1	300	300	347	46	0	0	1	blank2r.bmp	0	1	+	0	1	blank2r.bmp	492	1	JQQJ	492	1	blank2r.bmp	572	2	träumen	866	1	!	1239	1	!	1252	0	0	0	0	0	0	0	0	0	0	0	0	0	0	0	0	0	0	0	0	0	0	0	0	0	0	0	0	0	0
072319	10:51:57	11:04:19	741996	5.0.10.0	5_exp_RW	75	Rpleas_acq	CS_A	JQQJ	ZHHZ	YFFY	LWWL	CPPC	DXXD	sonnig	träumen	vertrauen	gütig	genießen	küssen	sterben	töten	versagen	gierig	gemein	krank	1	acq_USunple_CSunple2_RW	acq4567_RW	6	5	400	1	300	300	395	46	0	1	1	blank2r.bmp	0	1	+	0	1	blank2r.bmp	492	1	LWWL	492	1	blank2r.bmp	572	2	gemein	866	1	!	1239	1	!	1292	0	0	0	0	0	0	0	0	0	0	0	0	0	0	0	0	0	0	0	0	0	0	0	0	0	0	0	0	0	0
072319	10:51:57	11:04:21	744155	5.0.10.0	5_exp_RW	75	Rpleas_acq	CS_A	JQQJ	ZHHZ	YFFY	LWWL	CPPC	DXXD	sonnig	träumen	vertrauen	gütig	genießen	küssen	sterben	töten	versagen	gierig	gemein	krank	1	acq_USunple_CSunple1_RW	acq4567_RW	6	6	400	1	300	300	367	46	0	1	1	blank2r.bmp	0	1	+	0	1	blank2r.bmp	492	1	YFFY	492	1	blank2r.bmp	572	3	versagen	866	1	!	1239	1	!	1266	0	0	0	0	0	0	0	0	0	0	0	0	0	0	0	0	0	0	0	0	0	0	0	0	0	0	0	0	0	0
072319	10:51:57	11:04:23	746247	5.0.10.0	5_exp_RW	75	Rpleas_acq	CS_A	JQQJ	ZHHZ	YFFY	LWWL	CPPC	DXXD	sonnig	träumen	vertrauen	gütig	genießen	küssen	sterben	töten	versagen	gierig	gemein	krank	1	acq_USunple_CSunple2_RW	acq4567_RW	6	7	400	0	300	300	323	46	0	1	1	blank2r.bmp	0	1	+	0	1	blank2r.bmp	492	1	LWWL	492	1	blank2r.bmp	572	2	gemein	866	1	!	-1	1	!	-1	0	0	0	0	0	0	0	0	0	0	0	0	0	0	0	0	0	0	0	0	0	0	0	0	0	0	0	0	0	0
072319	10:51:57	11:04:26	748406	5.0.10.0	5_exp_RW	75	Rpleas_acq	CS_A	JQQJ	ZHHZ	YFFY	LWWL	CPPC	DXXD	sonnig	träumen	vertrauen	gütig	genießen	küssen	sterben	töten	versagen	gierig	gemein	krank	1	acq_USunple_CSunple1_RW	acq4567_RW	6	8	400	1	300	300	348	46	0	1	1	blank2r.bmp	0	1	+	0	1	blank2r.bmp	492	1	YFFY	492	1	blank2r.bmp	572	2	töten	866	1	!	1239	1	!	1252	0	0	0	0	0	0	0	0	0	0	0	0	0	0	0	0	0	0	0	0	0	0	0	0	0	0	0	0	0	0
072319	10:51:57	11:04:28	750472	5.0.10.0	5_exp_RW	75	Rpleas_acq	CS_A	JQQJ	ZHHZ	YFFY	LWWL	CPPC	DXXD	sonnig	träumen	vertrauen	gütig	genießen	küssen	sterben	töten	versagen	gierig	gemein	krank	1	acq_USpleas_CSpleas2_RW	acq4567_RW	6	9	400	0	300	300	304	46	0	0	1	blank2r.bmp	0	1	+	0	1	blank2r.bmp	492	1	ZHHZ	492	1	blank2r.bmp	572	2	genießen	866	1	!	-1	1	!	-1	0	0	0	0	0	0	0	0	0	0	0	0	0	0	0	0	0	0	0	0	0	0	0	0	0	0	0	0	0	0
072319	10:51:57	11:04:30	752671	5.0.10.0	5_exp_RW	75	Rpleas_acq	CS_A	JQQJ	ZHHZ	YFFY	LWWL	CPPC	DXXD	sonnig	träumen	vertrauen	gütig	genießen	küssen	sterben	töten	versagen	gierig	gemein	krank	1	acq_USpleas_CSpleas1_RW	acq4567_RW	6	10	400	1	300	300	386	50	0	1	1	blank2r.bmp	0	1	+	0	1	blank2r.bmp	492	1	JQQJ	492	1	blank2r.bmp	572	3	vertrauen	866	1	!	1239	1	!	1292	0	0	0	0	0	0	0	0	0	0	0	0	0	0	0	0	0	0	0	0	0	0	0	0	0	0	0	0	0	0
072319	10:51:57	11:04:32	754830	5.0.10.0	5_exp_RW	75	Rpleas_acq	CS_A	JQQJ	ZHHZ	YFFY	LWWL	CPPC	DXXD	sonnig	träumen	vertrauen	gütig	genießen	küssen	sterben	töten	versagen	gierig	gemein	krank	1	acq_USpleas_CSpleas1_RW	acq4567_RW	6	11	400	1	300	300	359	50	0	1	1	blank2r.bmp	0	1	+	0	1	blank2r.bmp	492	1	JQQJ	492	1	blank2r.bmp	572	1	sonnig	866	1	!	1239	1	!	1266	0	0	0	0	0	0	0	0	0	0	0	0	0	0	0	0	0	0	0	0	0	0	0	0	0	0	0	0	0	0
072319	10:51:57	11:04:34	756976	5.0.10.0	5_exp_RW	75	Rpleas_acq	CS_A	JQQJ	ZHHZ	YFFY	LWWL	CPPC	DXXD	sonnig	träumen	vertrauen	gütig	genießen	küssen	sterben	töten	versagen	gierig	gemein	krank	1	acq_USpleas_CSpleas2_RW	acq4567_RW	6	12	400	1	300	300	357	50	0	1	1	blank2r.bmp	0	1	+	0	1	blank2r.bmp	492	1	ZHHZ	492	1	blank2r.bmp	572	1	gütig	866	1	!	1239	1	!	1252	0	0	0	0	0	0	0	0	0	0	0	0	0	0	0	0	0	0	0	0	0	0	0	0	0	0	0	0	0	0
072319	10:51:57	11:04:36	759069	5.0.10.0	5_exp_RW	75	Rpleas_acq	CS_A	JQQJ	ZHHZ	YFFY	LWWL	CPPC	DXXD	sonnig	träumen	vertrauen	gütig	genießen	küssen	sterben	töten	versagen	gierig	gemein	krank	1	acq_USunple_CSunple2_RW	acq4567_RW	6	13	400	0	300	300	324	46	0	1	1	blank2r.bmp	0	1	+	0	1	blank2r.bmp	492	1	LWWL	492	1	blank2r.bmp	572	3	krank	866	1	!	-1	1	!	-1	0	0	0	0	0	0	0	0	0	0	0	0	0	0	0	0	0	0	0	0	0	0	0	0	0	0	0	0	0	0
