date	time	script.currenttime	script.elapsedtime	build	script.currentexpt	subject	expressions.LRpleas_acq	expressions.conditionCS_A	expressions.CSpleas_1	expressions.CSpleas_2	expressions.CSunple_1	expressions.CSunple_2	expressions.distractor_1	expressions.distractor_2	expressions.US_pleas1	expressions.US_pleas2	expressions.US_pleas3	expressions.US_pleas4	expressions.US_pleas5	expressions.US_pleas6	expressions.US_unple1	expressions.US_unple2	expressions.US_unple3	expressions.US_unple4	expressions.US_unple5	expressions.US_unple6	counter.positions_noRW	trialcode	blockcode	blocknum	trialnum	windowcenter	inwindow	pretrialpause	posttrialpause	latency	response	expressions.correctedscore	correct	stimulusnumber1	stimulusitem1	stimulusonset1	stimulusnumber2	stimulusitem2	stimulusonset2	stimulusnumber3	stimulusitem3	stimulusonset3	stimulusnumber4	stimulusitem4	stimulusonset4	stimulusnumber5	stimulusitem5	stimulusonset5	stimulusnumber6	stimulusitem6	stimulusonset6	stimulusnumber7	stimulusitem7	stimulusonset7	stimulusnumber8	stimulusitem8	stimulusonset8	stimulusnumber9	stimulusitem9	stimulusonset9	stimulusnumber10	stimulusitem10	stimulusonset10	stimulusnumber11	stimulusitem11	stimulusonset11	stimulusnumber12	stimulusitem12	stimulusonset12	stimulusnumber13	stimulusitem13	stimulusonset13	stimulusnumber14	stimulusitem14	stimulusonset14	stimulusnumber15	stimulusitem15	stimulusonset15	stimulusnumber16	stimulusitem16	stimulusonset16	stimulusnumber17	stimulusitem17	stimulusonset17	stimulusnumber18	stimulusitem18	stimulusonset18
081319	13:52:42	13:56:01	198944	5.0.10.0	5_exp_noRW	98	Rpleas_acq	CS_A	ZHHZ	JQQJ	DXXD	LWWL	YFFY	CPPC	träumen	genießen	küssen	vertrauen	sonnig	gütig	töten	gemein	krank	versagen	sterben	gierig	53pct	acq_USpleas_CSpleas1_noRW	acq1_noRW	1	1	0	0	300	300	2000	0	0	0	1	blank2r.bmp	0	1	+	0	1	blank2r.bmp	252	1	ZHHZ	306	1	träumen	559	1	FEHLER	2598	1	Schneller!	2598	0	0	0	0	0	0	0	0	0	0	0	0	0	0	0	0	0	0	0	0	0	0	0	0	0	0	0	0	0	0	0	0	0
081319	13:52:42	13:56:03	200757	5.0.10.0	5_exp_noRW	98	Rpleas_acq	CS_A	ZHHZ	JQQJ	DXXD	LWWL	YFFY	CPPC	träumen	genießen	küssen	vertrauen	sonnig	gütig	töten	gemein	krank	versagen	sterben	gierig	53pct	acq_USunple_CSpleas2_noRW	acq1_noRW	1	2	0	0	300	300	700	50	0	0	1	blank2r.bmp	0	1	+	0	1	blank2r.bmp	252	1	JQQJ	306	2	sterben	559	1	FEHLER	1292	0	0	0	0	0	0	0	0	0	0	0	0	0	0	0	0	0	0	0	0	0	0	0	0	0	0	0	0	0	0	0	0	0	0	0	0
081319	13:52:42	13:56:05	202663	5.0.10.0	5_exp_noRW	98	Rpleas_acq	CS_A	ZHHZ	JQQJ	DXXD	LWWL	YFFY	CPPC	träumen	genießen	küssen	vertrauen	sonnig	gütig	töten	gemein	krank	versagen	sterben	gierig	53pct	acq_USpleas_CSpleas2_noRW	acq1_noRW	1	3	0	0	300	300	728	46	0	0	1	blank2r.bmp	0	1	+	0	1	blank2r.bmp	252	1	JQQJ	306	1	vertrauen	559	1	FEHLER	1319	0	0	0	0	0	0	0	0	0	0	0	0	0	0	0	0	0	0	0	0	0	0	0	0	0	0	0	0	0	0	0	0	0	0	0	0
081319	13:52:42	13:56:07	204475	5.0.10.0	5_exp_noRW	98	Rpleas_acq	CS_A	ZHHZ	JQQJ	DXXD	LWWL	YFFY	CPPC	träumen	genießen	küssen	vertrauen	sonnig	gütig	töten	gemein	krank	versagen	sterben	gierig	47pct	acq_USunple_CSunple2_noRW	acq1_noRW	1	4	0	0	300	300	856	46	0	1	1	blank2r.bmp	0	1	+	0	1	blank2r.bmp	252	1	LWWL	306	3	gierig	559	0	0	0	0	0	0	0	0	0	0	0	0	0	0	0	0	0	0	0	0	0	0	0	0	0	0	0	0	0	0	0	0	0	0	0	0	0	0	0
081319	13:52:42	13:56:09	206501	5.0.10.0	5_exp_noRW	98	Rpleas_acq	CS_A	ZHHZ	JQQJ	DXXD	LWWL	YFFY	CPPC	träumen	genießen	küssen	vertrauen	sonnig	gütig	töten	gemein	krank	versagen	sterben	gierig	47pct	acq_USunple_CSpleas1_noRW	acq1_noRW	1	5	0	0	300	300	849	46	0	1	1	blank2r.bmp	0	1	+	0	1	blank2r.bmp	252	1	ZHHZ	306	3	krank	559	0	0	0	0	0	0	0	0	0	0	0	0	0	0	0	0	0	0	0	0	0	0	0	0	0	0	0	0	0	0	0	0	0	0	0	0	0	0	0
081319	13:52:42	13:56:11	208221	5.0.10.0	5_exp_noRW	98	Rpleas_acq	CS_A	ZHHZ	JQQJ	DXXD	LWWL	YFFY	CPPC	träumen	genießen	küssen	vertrauen	sonnig	gütig	töten	gemein	krank	versagen	sterben	gierig	47pct	acq_USunple_CSunple2_noRW	acq1_noRW	1	6	0	0	300	300	543	46	0	1	1	blank2r.bmp	0	1	+	0	1	blank2r.bmp	252	1	LWWL	306	2	sterben	559	0	0	0	0	0	0	0	0	0	0	0	0	0	0	0	0	0	0	0	0	0	0	0	0	0	0	0	0	0	0	0	0	0	0	0	0	0	0	0
081319	13:52:42	13:56:12	209847	5.0.10.0	5_exp_noRW	98	Rpleas_acq	CS_A	ZHHZ	JQQJ	DXXD	LWWL	YFFY	CPPC	träumen	genießen	küssen	vertrauen	sonnig	gütig	töten	gemein	krank	versagen	sterben	gierig	53pct	acq_USunple_CSunple1_noRW	acq1_noRW	1	7	0	0	300	300	458	46	0	1	1	blank2r.bmp	0	1	+	0	1	blank2r.bmp	252	1	DXXD	306	1	töten	559	0	0	0	0	0	0	0	0	0	0	0	0	0	0	0	0	0	0	0	0	0	0	0	0	0	0	0	0	0	0	0	0	0	0	0	0	0	0	0
081319	13:52:42	13:56:14	211632	5.0.10.0	5_exp_noRW	98	Rpleas_acq	CS_A	ZHHZ	JQQJ	DXXD	LWWL	YFFY	CPPC	träumen	genießen	küssen	vertrauen	sonnig	gütig	töten	gemein	krank	versagen	sterben	gierig	53pct	acq_USunple_CSunple2_noRW	acq1_noRW	1	8	0	0	300	300	617	46	0	1	1	blank2r.bmp	0	1	+	0	1	blank2r.bmp	252	1	LWWL	306	1	versagen	559	0	0	0	0	0	0	0	0	0	0	0	0	0	0	0	0	0	0	0	0	0	0	0	0	0	0	0	0	0	0	0	0	0	0	0	0	0	0	0
081319	13:52:42	13:56:16	213219	5.0.10.0	5_exp_noRW	98	Rpleas_acq	CS_A	ZHHZ	JQQJ	DXXD	LWWL	YFFY	CPPC	träumen	genießen	küssen	vertrauen	sonnig	gütig	töten	gemein	krank	versagen	sterben	gierig	53pct	acq_USunple_CSunple1_noRW	acq1_noRW	1	9	0	0	300	300	401	46	0	1	1	blank2r.bmp	0	1	+	0	1	blank2r.bmp	252	1	DXXD	306	3	krank	559	0	0	0	0	0	0	0	0	0	0	0	0	0	0	0	0	0	0	0	0	0	0	0	0	0	0	0	0	0	0	0	0	0	0	0	0	0	0	0
081319	13:52:42	13:56:17	214924	5.0.10.0	5_exp_noRW	98	Rpleas_acq	CS_A	ZHHZ	JQQJ	DXXD	LWWL	YFFY	CPPC	träumen	genießen	küssen	vertrauen	sonnig	gütig	töten	gemein	krank	versagen	sterben	gierig	47pct	acq_USpleas_CSpleas1_noRW	acq1_noRW	1	10	0	0	300	300	541	50	0	1	1	blank2r.bmp	0	1	+	0	1	blank2r.bmp	252	1	ZHHZ	306	3	küssen	559	0	0	0	0	0	0	0	0	0	0	0	0	0	0	0	0	0	0	0	0	0	0	0	0	0	0	0	0	0	0	0	0	0	0	0	0	0	0	0
081319	13:52:42	13:56:19	216551	5.0.10.0	5_exp_noRW	98	Rpleas_acq	CS_A	ZHHZ	JQQJ	DXXD	LWWL	YFFY	CPPC	träumen	genießen	küssen	vertrauen	sonnig	gütig	töten	gemein	krank	versagen	sterben	gierig	53pct	acq_USpleas_CSpleas1_noRW	acq1_noRW	1	11	0	0	300	300	448	50	0	1	1	blank2r.bmp	0	1	+	0	1	blank2r.bmp	252	1	ZHHZ	306	2	genießen	559	0	0	0	0	0	0	0	0	0	0	0	0	0	0	0	0	0	0	0	0	0	0	0	0	0	0	0	0	0	0	0	0	0	0	0	0	0	0	0
081319	13:52:42	13:56:21	218163	5.0.10.0	5_exp_noRW	98	Rpleas_acq	CS_A	ZHHZ	JQQJ	DXXD	LWWL	YFFY	CPPC	träumen	genießen	küssen	vertrauen	sonnig	gütig	töten	gemein	krank	versagen	sterben	gierig	53pct	acq_USpleas_CSpleas2_noRW	acq1_noRW	1	12	0	0	300	300	441	50	0	1	1	blank2r.bmp	0	1	+	0	1	blank2r.bmp	252	1	JQQJ	306	2	sonnig	559	0	0	0	0	0	0	0	0	0	0	0	0	0	0	0	0	0	0	0	0	0	0	0	0	0	0	0	0	0	0	0	0	0	0	0	0	0	0	0
081319	13:52:42	13:56:22	219949	5.0.10.0	5_exp_noRW	98	Rpleas_acq	CS_A	ZHHZ	JQQJ	DXXD	LWWL	YFFY	CPPC	träumen	genießen	küssen	vertrauen	sonnig	gütig	töten	gemein	krank	versagen	sterben	gierig	53pct	acq_USunple_CSunple2_noRW	acq1_noRW	1	13	0	0	300	300	622	46	0	1	1	blank2r.bmp	0	1	+	0	1	blank2r.bmp	252	1	LWWL	306	3	gierig	559	0	0	0	0	0	0	0	0	0	0	0	0	0	0	0	0	0	0	0	0	0	0	0	0	0	0	0	0	0	0	0	0	0	0	0	0	0	0	0
081319	13:52:42	13:56:24	221695	5.0.10.0	5_exp_noRW	98	Rpleas_acq	CS_A	ZHHZ	JQQJ	DXXD	LWWL	YFFY	CPPC	träumen	genießen	küssen	vertrauen	sonnig	gütig	töten	gemein	krank	versagen	sterben	gierig	53pct	acq_USpleas_CSpleas1_noRW	acq1_noRW	1	14	0	0	300	300	569	50	0	1	1	blank2r.bmp	0	1	+	0	1	blank2r.bmp	252	1	ZHHZ	306	2	genießen	559	0	0	0	0	0	0	0	0	0	0	0	0	0	0	0	0	0	0	0	0	0	0	0	0	0	0	0	0	0	0	0	0	0	0	0	0	0	0	0
081319	13:52:42	13:56:26	223441	5.0.10.0	5_exp_noRW	98	Rpleas_acq	CS_A	ZHHZ	JQQJ	DXXD	LWWL	YFFY	CPPC	träumen	genießen	küssen	vertrauen	sonnig	gütig	töten	gemein	krank	versagen	sterben	gierig	47pct	acq_USunple_CSunple1_noRW	acq1_noRW	1	15	0	0	300	300	559	46	0	1	1	blank2r.bmp	0	1	+	0	1	blank2r.bmp	252	1	DXXD	306	2	gemein	559	0	0	0	0	0	0	0	0	0	0	0	0	0	0	0	0	0	0	0	0	0	0	0	0	0	0	0	0	0	0	0	0	0	0	0	0	0	0	0
081319	13:52:42	13:56:27	225094	5.0.10.0	5_exp_noRW	98	Rpleas_acq	CS_A	ZHHZ	JQQJ	DXXD	LWWL	YFFY	CPPC	träumen	genießen	küssen	vertrauen	sonnig	gütig	töten	gemein	krank	versagen	sterben	gierig	47pct	acq_USpleas_CSpleas2_noRW	acq1_noRW	1	16	0	0	300	300	484	50	0	1	1	blank2r.bmp	0	1	+	0	1	blank2r.bmp	252	1	JQQJ	306	3	gütig	559	0	0	0	0	0	0	0	0	0	0	0	0	0	0	0	0	0	0	0	0	0	0	0	0	0	0	0	0	0	0	0	0	0	0	0	0	0	0	0
081319	13:52:42	13:56:29	226706	5.0.10.0	5_exp_noRW	98	Rpleas_acq	CS_A	ZHHZ	JQQJ	DXXD	LWWL	YFFY	CPPC	träumen	genießen	küssen	vertrauen	sonnig	gütig	töten	gemein	krank	versagen	sterben	gierig	53pct	acq_USunple_CSunple1_noRW	acq1_noRW	1	17	0	0	300	300	425	46	0	1	1	blank2r.bmp	0	1	+	0	1	blank2r.bmp	252	1	DXXD	306	1	töten	559	0	0	0	0	0	0	0	0	0	0	0	0	0	0	0	0	0	0	0	0	0	0	0	0	0	0	0	0	0	0	0	0	0	0	0	0	0	0	0
081319	13:52:42	13:56:31	228279	5.0.10.0	5_exp_noRW	98	Rpleas_acq	CS_A	ZHHZ	JQQJ	DXXD	LWWL	YFFY	CPPC	träumen	genießen	küssen	vertrauen	sonnig	gütig	töten	gemein	krank	versagen	sterben	gierig	47pct	acq_USpleas_CSunple2_noRW	acq1_noRW	1	18	0	0	300	300	407	50	0	1	1	blank2r.bmp	0	1	+	0	1	blank2r.bmp	252	1	LWWL	306	1	vertrauen	559	0	0	0	0	0	0	0	0	0	0	0	0	0	0	0	0	0	0	0	0	0	0	0	0	0	0	0	0	0	0	0	0	0	0	0	0	0	0	0
081319	13:52:42	13:56:32	229932	5.0.10.0	5_exp_noRW	98	Rpleas_acq	CS_A	ZHHZ	JQQJ	DXXD	LWWL	YFFY	CPPC	träumen	genießen	küssen	vertrauen	sonnig	gütig	töten	gemein	krank	versagen	sterben	gierig	47pct	acq_USpleas_CSunple1_noRW	acq1_noRW	1	19	0	0	300	300	468	50	0	1	1	blank2r.bmp	0	1	+	0	1	blank2r.bmp	252	1	DXXD	306	3	küssen	559	0	0	0	0	0	0	0	0	0	0	0	0	0	0	0	0	0	0	0	0	0	0	0	0	0	0	0	0	0	0	0	0	0	0	0	0	0	0	0
081319	13:52:42	13:56:34	231424	5.0.10.0	5_exp_noRW	98	Rpleas_acq	CS_A	ZHHZ	JQQJ	DXXD	LWWL	YFFY	CPPC	träumen	genießen	küssen	vertrauen	sonnig	gütig	töten	gemein	krank	versagen	sterben	gierig	47pct	acq_USpleas_CSpleas2_noRW	acq1_noRW	1	20	0	0	300	300	318	50	0	1	1	blank2r.bmp	0	1	+	0	1	blank2r.bmp	252	1	JQQJ	306	2	sonnig	559	0	0	0	0	0	0	0	0	0	0	0	0	0	0	0	0	0	0	0	0	0	0	0	0	0	0	0	0	0	0	0	0	0	0	0	0	0	0	0
081319	13:52:42	13:56:35	232944	5.0.10.0	5_exp_noRW	98	Rpleas_acq	CS_A	ZHHZ	JQQJ	DXXD	LWWL	YFFY	CPPC	träumen	genießen	küssen	vertrauen	sonnig	gütig	töten	gemein	krank	versagen	sterben	gierig	47pct	acq_USpleas_CSpleas2_noRW	acq1_noRW	1	21	0	0	300	300	337	50	0	1	1	blank2r.bmp	0	1	+	0	1	blank2r.bmp	252	1	JQQJ	306	1	vertrauen	559	0	0	0	0	0	0	0	0	0	0	0	0	0	0	0	0	0	0	0	0	0	0	0	0	0	0	0	0	0	0	0	0	0	0	0	0	0	0	0
081319	13:52:42	13:56:37	234596	5.0.10.0	5_exp_noRW	98	Rpleas_acq	CS_A	ZHHZ	JQQJ	DXXD	LWWL	YFFY	CPPC	träumen	genießen	küssen	vertrauen	sonnig	gütig	töten	gemein	krank	versagen	sterben	gierig	47pct	acq_USunple_CSunple2_noRW	acq1_noRW	1	22	0	0	300	300	478	46	0	1	1	blank2r.bmp	0	1	+	0	1	blank2r.bmp	252	1	LWWL	306	1	versagen	559	0	0	0	0	0	0	0	0	0	0	0	0	0	0	0	0	0	0	0	0	0	0	0	0	0	0	0	0	0	0	0	0	0	0	0	0	0	0	0
081319	13:52:42	13:56:39	236249	5.0.10.0	5_exp_noRW	98	Rpleas_acq	CS_A	ZHHZ	JQQJ	DXXD	LWWL	YFFY	CPPC	träumen	genießen	küssen	vertrauen	sonnig	gütig	töten	gemein	krank	versagen	sterben	gierig	53pct	acq_USunple_CSpleas2_noRW	acq1_noRW	1	23	0	0	300	300	473	46	0	1	1	blank2r.bmp	0	1	+	0	1	blank2r.bmp	252	1	JQQJ	306	1	versagen	559	0	0	0	0	0	0	0	0	0	0	0	0	0	0	0	0	0	0	0	0	0	0	0	0	0	0	0	0	0	0	0	0	0	0	0	0	0	0	0
081319	13:52:42	13:56:40	237795	5.0.10.0	5_exp_noRW	98	Rpleas_acq	CS_A	ZHHZ	JQQJ	DXXD	LWWL	YFFY	CPPC	träumen	genießen	küssen	vertrauen	sonnig	gütig	töten	gemein	krank	versagen	sterben	gierig	53pct	acq_USunple_CSunple1_noRW	acq1_noRW	1	24	0	0	300	300	364	46	0	1	1	blank2r.bmp	0	1	+	0	1	blank2r.bmp	252	1	DXXD	306	3	krank	559	0	0	0	0	0	0	0	0	0	0	0	0	0	0	0	0	0	0	0	0	0	0	0	0	0	0	0	0	0	0	0	0	0	0	0	0	0	0	0
081319	13:52:42	13:56:42	239354	5.0.10.0	5_exp_noRW	98	Rpleas_acq	CS_A	ZHHZ	JQQJ	DXXD	LWWL	YFFY	CPPC	träumen	genießen	küssen	vertrauen	sonnig	gütig	töten	gemein	krank	versagen	sterben	gierig	47pct	acq_USpleas_CSunple1_noRW	acq1_noRW	1	25	0	0	300	300	381	50	0	1	1	blank2r.bmp	0	1	+	0	1	blank2r.bmp	252	1	DXXD	306	2	genießen	559	0	0	0	0	0	0	0	0	0	0	0	0	0	0	0	0	0	0	0	0	0	0	0	0	0	0	0	0	0	0	0	0	0	0	0	0	0	0	0
081319	13:52:42	13:56:43	241007	5.0.10.0	5_exp_noRW	98	Rpleas_acq	CS_A	ZHHZ	JQQJ	DXXD	LWWL	YFFY	CPPC	träumen	genießen	küssen	vertrauen	sonnig	gütig	töten	gemein	krank	versagen	sterben	gierig	53pct	acq_USunple_CSunple1_noRW	acq1_noRW	1	26	0	0	300	300	471	46	0	1	1	blank2r.bmp	0	1	+	0	1	blank2r.bmp	252	1	DXXD	306	2	gemein	559	0	0	0	0	0	0	0	0	0	0	0	0	0	0	0	0	0	0	0	0	0	0	0	0	0	0	0	0	0	0	0	0	0	0	0	0	0	0	0
081319	13:52:42	13:56:45	242700	5.0.10.0	5_exp_noRW	98	Rpleas_acq	CS_A	ZHHZ	JQQJ	DXXD	LWWL	YFFY	CPPC	träumen	genießen	küssen	vertrauen	sonnig	gütig	töten	gemein	krank	versagen	sterben	gierig	53pct	acq_USpleas_CSpleas2_noRW	acq1_noRW	1	27	0	0	300	300	511	50	0	1	1	blank2r.bmp	0	1	+	0	1	blank2r.bmp	252	1	JQQJ	306	3	gütig	559	0	0	0	0	0	0	0	0	0	0	0	0	0	0	0	0	0	0	0	0	0	0	0	0	0	0	0	0	0	0	0	0	0	0	0	0	0	0	0
081319	13:52:42	13:56:47	244366	5.0.10.0	5_exp_noRW	98	Rpleas_acq	CS_A	ZHHZ	JQQJ	DXXD	LWWL	YFFY	CPPC	träumen	genießen	küssen	vertrauen	sonnig	gütig	töten	gemein	krank	versagen	sterben	gierig	53pct	acq_USunple_CSunple2_noRW	acq1_noRW	1	28	0	0	300	300	501	46	0	1	1	blank2r.bmp	0	1	+	0	1	blank2r.bmp	252	1	LWWL	306	2	sterben	559	0	0	0	0	0	0	0	0	0	0	0	0	0	0	0	0	0	0	0	0	0	0	0	0	0	0	0	0	0	0	0	0	0	0	0	0	0	0	0
081319	13:52:42	13:56:48	246045	5.0.10.0	5_exp_noRW	98	Rpleas_acq	CS_A	ZHHZ	JQQJ	DXXD	LWWL	YFFY	CPPC	träumen	genießen	küssen	vertrauen	sonnig	gütig	töten	gemein	krank	versagen	sterben	gierig	47pct	acq_USpleas_CSpleas1_noRW	acq1_noRW	1	29	0	0	300	300	506	50	0	1	1	blank2r.bmp	0	1	+	0	1	blank2r.bmp	252	1	ZHHZ	306	3	küssen	559	0	0	0	0	0	0	0	0	0	0	0	0	0	0	0	0	0	0	0	0	0	0	0	0	0	0	0	0	0	0	0	0	0	0	0	0	0	0	0
081319	13:52:42	13:56:50	247551	5.0.10.0	5_exp_noRW	98	Rpleas_acq	CS_A	ZHHZ	JQQJ	DXXD	LWWL	YFFY	CPPC	träumen	genießen	küssen	vertrauen	sonnig	gütig	töten	gemein	krank	versagen	sterben	gierig	53pct	acq_USunple_CSunple1_noRW	acq1_noRW	1	30	0	0	300	300	339	46	0	1	1	blank2r.bmp	0	1	+	0	1	blank2r.bmp	252	1	DXXD	306	3	krank	559	0	0	0	0	0	0	0	0	0	0	0	0	0	0	0	0	0	0	0	0	0	0	0	0	0	0	0	0	0	0	0	0	0	0	0	0	0	0	0
081319	13:52:42	13:56:52	249550	5.0.10.0	5_exp_noRW	98	Rpleas_acq	CS_A	ZHHZ	JQQJ	DXXD	LWWL	YFFY	CPPC	träumen	genießen	küssen	vertrauen	sonnig	gütig	töten	gemein	krank	versagen	sterben	gierig	53pct	acq_USpleas_CSpleas1_noRW	acq1_noRW	1	31	0	0	300	300	618	46	0	0	1	blank2r.bmp	0	1	+	0	1	blank2r.bmp	252	1	ZHHZ	306	1	träumen	559	1	FEHLER	1212	0	0	0	0	0	0	0	0	0	0	0	0	0	0	0	0	0	0	0	0	0	0	0	0	0	0	0	0	0	0	0	0	0	0	0	0
081319	13:52:42	13:56:53	251003	5.0.10.0	5_exp_noRW	98	Rpleas_acq	CS_A	ZHHZ	JQQJ	DXXD	LWWL	YFFY	CPPC	träumen	genießen	küssen	vertrauen	sonnig	gütig	töten	gemein	krank	versagen	sterben	gierig	47pct	acq_USunple_CSunple2_noRW	acq1_noRW	1	32	0	0	300	300	486	46	0	1	1	blank2r.bmp	0	1	+	0	1	blank2r.bmp	252	1	LWWL	306	2	sterben	559	0	0	0	0	0	0	0	0	0	0	0	0	0	0	0	0	0	0	0	0	0	0	0	0	0	0	0	0	0	0	0	0	0	0	0	0	0	0	0
081319	13:52:42	13:56:55	252536	5.0.10.0	5_exp_noRW	98	Rpleas_acq	CS_A	ZHHZ	JQQJ	DXXD	LWWL	YFFY	CPPC	träumen	genießen	küssen	vertrauen	sonnig	gütig	töten	gemein	krank	versagen	sterben	gierig	47pct	acq_USpleas_CSpleas1_noRW	acq1_noRW	1	33	0	0	300	300	347	50	0	1	1	blank2r.bmp	0	1	+	0	1	blank2r.bmp	252	1	ZHHZ	306	2	genießen	559	0	0	0	0	0	0	0	0	0	0	0	0	0	0	0	0	0	0	0	0	0	0	0	0	0	0	0	0	0	0	0	0	0	0	0	0	0	0	0
081319	13:52:42	13:56:57	254628	5.0.10.0	5_exp_noRW	98	Rpleas_acq	CS_A	ZHHZ	JQQJ	DXXD	LWWL	YFFY	CPPC	träumen	genießen	küssen	vertrauen	sonnig	gütig	töten	gemein	krank	versagen	sterben	gierig	47pct	acq_USpleas_CSpleas1_noRW	acq1_noRW	1	34	0	0	300	300	908	50	0	1	1	blank2r.bmp	0	1	+	0	1	blank2r.bmp	252	1	ZHHZ	306	3	küssen	559	0	0	0	0	0	0	0	0	0	0	0	0	0	0	0	0	0	0	0	0	0	0	0	0	0	0	0	0	0	0	0	0	0	0	0	0	0	0	0
081319	13:52:42	13:56:59	256507	5.0.10.0	5_exp_noRW	98	Rpleas_acq	CS_A	ZHHZ	JQQJ	DXXD	LWWL	YFFY	CPPC	träumen	genießen	küssen	vertrauen	sonnig	gütig	töten	gemein	krank	versagen	sterben	gierig	53pct	acq_USpleas_CSpleas2_noRW	acq1_noRW	1	35	0	0	300	300	481	46	0	0	1	blank2r.bmp	0	1	+	0	1	blank2r.bmp	252	1	JQQJ	306	3	gütig	559	1	FEHLER	1079	0	0	0	0	0	0	0	0	0	0	0	0	0	0	0	0	0	0	0	0	0	0	0	0	0	0	0	0	0	0	0	0	0	0	0	0
081319	13:52:42	13:57:00	258093	5.0.10.0	5_exp_noRW	98	Rpleas_acq	CS_A	ZHHZ	JQQJ	DXXD	LWWL	YFFY	CPPC	träumen	genießen	küssen	vertrauen	sonnig	gütig	töten	gemein	krank	versagen	sterben	gierig	53pct	acq_USunple_CSunple1_noRW	acq1_noRW	1	36	0	0	300	300	613	46	0	1	1	blank2r.bmp	0	1	+	0	1	blank2r.bmp	252	1	DXXD	306	2	gemein	559	0	0	0	0	0	0	0	0	0	0	0	0	0	0	0	0	0	0	0	0	0	0	0	0	0	0	0	0	0	0	0	0	0	0	0	0	0	0	0
081319	13:52:42	13:57:02	259813	5.0.10.0	5_exp_noRW	98	Rpleas_acq	CS_A	ZHHZ	JQQJ	DXXD	LWWL	YFFY	CPPC	träumen	genießen	küssen	vertrauen	sonnig	gütig	töten	gemein	krank	versagen	sterben	gierig	47pct	acq_USunple_CSpleas1_noRW	acq1_noRW	1	37	0	0	300	300	547	46	0	1	1	blank2r.bmp	0	1	+	0	1	blank2r.bmp	252	1	ZHHZ	306	2	gemein	559	0	0	0	0	0	0	0	0	0	0	0	0	0	0	0	0	0	0	0	0	0	0	0	0	0	0	0	0	0	0	0	0	0	0	0	0	0	0	0
081319	13:52:42	13:57:04	261399	5.0.10.0	5_exp_noRW	98	Rpleas_acq	CS_A	ZHHZ	JQQJ	DXXD	LWWL	YFFY	CPPC	träumen	genießen	küssen	vertrauen	sonnig	gütig	töten	gemein	krank	versagen	sterben	gierig	53pct	acq_USpleas_CSunple2_noRW	acq1_noRW	1	38	0	0	300	300	415	50	0	1	1	blank2r.bmp	0	1	+	0	1	blank2r.bmp	252	1	LWWL	306	2	sonnig	559	0	0	0	0	0	0	0	0	0	0	0	0	0	0	0	0	0	0	0	0	0	0	0	0	0	0	0	0	0	0	0	0	0	0	0	0	0	0	0
081319	13:52:42	13:57:06	263198	5.0.10.0	5_exp_noRW	98	Rpleas_acq	CS_A	ZHHZ	JQQJ	DXXD	LWWL	YFFY	CPPC	träumen	genießen	küssen	vertrauen	sonnig	gütig	töten	gemein	krank	versagen	sterben	gierig	53pct	acq_USunple_CSunple2_noRW	acq1_noRW	1	39	0	0	300	300	613	46	0	1	1	blank2r.bmp	0	1	+	0	1	blank2r.bmp	252	1	LWWL	306	1	versagen	559	0	0	0	0	0	0	0	0	0	0	0	0	0	0	0	0	0	0	0	0	0	0	0	0	0	0	0	0	0	0	0	0	0	0	0	0	0	0	0
081319	13:52:42	13:57:07	264864	5.0.10.0	5_exp_noRW	98	Rpleas_acq	CS_A	ZHHZ	JQQJ	DXXD	LWWL	YFFY	CPPC	träumen	genießen	küssen	vertrauen	sonnig	gütig	töten	gemein	krank	versagen	sterben	gierig	47pct	acq_USpleas_CSpleas2_noRW	acq1_noRW	1	40	0	0	300	300	495	50	0	1	1	blank2r.bmp	0	1	+	0	1	blank2r.bmp	252	1	JQQJ	306	1	vertrauen	559	0	0	0	0	0	0	0	0	0	0	0	0	0	0	0	0	0	0	0	0	0	0	0	0	0	0	0	0	0	0	0	0	0	0	0	0	0	0	0
081319	13:52:42	13:57:09	266543	5.0.10.0	5_exp_noRW	98	Rpleas_acq	CS_A	ZHHZ	JQQJ	DXXD	LWWL	YFFY	CPPC	träumen	genießen	küssen	vertrauen	sonnig	gütig	töten	gemein	krank	versagen	sterben	gierig	53pct	acq_USpleas_CSunple1_noRW	acq1_noRW	1	41	0	0	300	300	514	50	0	1	1	blank2r.bmp	0	1	+	0	1	blank2r.bmp	252	1	DXXD	306	1	träumen	559	0	0	0	0	0	0	0	0	0	0	0	0	0	0	0	0	0	0	0	0	0	0	0	0	0	0	0	0	0	0	0	0	0	0	0	0	0	0	0
081319	13:52:42	13:57:10	268063	5.0.10.0	5_exp_noRW	98	Rpleas_acq	CS_A	ZHHZ	JQQJ	DXXD	LWWL	YFFY	CPPC	träumen	genießen	küssen	vertrauen	sonnig	gütig	töten	gemein	krank	versagen	sterben	gierig	53pct	acq_USpleas_CSpleas1_noRW	acq1_noRW	1	42	0	0	300	300	338	50	0	1	1	blank2r.bmp	0	1	+	0	1	blank2r.bmp	252	1	ZHHZ	306	1	träumen	559	0	0	0	0	0	0	0	0	0	0	0	0	0	0	0	0	0	0	0	0	0	0	0	0	0	0	0	0	0	0	0	0	0	0	0	0	0	0	0
081319	13:52:42	13:57:12	269755	5.0.10.0	5_exp_noRW	98	Rpleas_acq	CS_A	ZHHZ	JQQJ	DXXD	LWWL	YFFY	CPPC	träumen	genießen	küssen	vertrauen	sonnig	gütig	töten	gemein	krank	versagen	sterben	gierig	47pct	acq_USpleas_CSpleas1_noRW	acq1_noRW	1	43	0	0	300	300	519	50	0	1	1	blank2r.bmp	0	1	+	0	1	blank2r.bmp	252	1	ZHHZ	306	2	genießen	559	0	0	0	0	0	0	0	0	0	0	0	0	0	0	0	0	0	0	0	0	0	0	0	0	0	0	0	0	0	0	0	0	0	0	0	0	0	0	0
081319	13:52:42	13:57:14	271501	5.0.10.0	5_exp_noRW	98	Rpleas_acq	CS_A	ZHHZ	JQQJ	DXXD	LWWL	YFFY	CPPC	träumen	genießen	küssen	vertrauen	sonnig	gütig	töten	gemein	krank	versagen	sterben	gierig	53pct	acq_USunple_CSunple2_noRW	acq1_noRW	1	44	0	0	300	300	579	46	0	1	1	blank2r.bmp	0	1	+	0	1	blank2r.bmp	252	1	LWWL	306	3	gierig	559	0	0	0	0	0	0	0	0	0	0	0	0	0	0	0	0	0	0	0	0	0	0	0	0	0	0	0	0	0	0	0	0	0	0	0	0	0	0	0
081319	13:52:42	13:57:16	273167	5.0.10.0	5_exp_noRW	98	Rpleas_acq	CS_A	ZHHZ	JQQJ	DXXD	LWWL	YFFY	CPPC	träumen	genießen	küssen	vertrauen	sonnig	gütig	töten	gemein	krank	versagen	sterben	gierig	53pct	acq_USunple_CSpleas1_noRW	acq1_noRW	1	45	0	0	300	300	488	46	0	1	1	blank2r.bmp	0	1	+	0	1	blank2r.bmp	252	1	ZHHZ	306	1	töten	559	0	0	0	0	0	0	0	0	0	0	0	0	0	0	0	0	0	0	0	0	0	0	0	0	0	0	0	0	0	0	0	0	0	0	0	0	0	0	0
081319	13:52:42	13:57:17	274713	5.0.10.0	5_exp_noRW	98	Rpleas_acq	CS_A	ZHHZ	JQQJ	DXXD	LWWL	YFFY	CPPC	träumen	genießen	küssen	vertrauen	sonnig	gütig	töten	gemein	krank	versagen	sterben	gierig	53pct	acq_USunple_CSunple1_noRW	acq1_noRW	1	46	0	0	300	300	366	46	0	1	1	blank2r.bmp	0	1	+	0	1	blank2r.bmp	252	1	DXXD	306	1	töten	559	0	0	0	0	0	0	0	0	0	0	0	0	0	0	0	0	0	0	0	0	0	0	0	0	0	0	0	0	0	0	0	0	0	0	0	0	0	0	0
081319	13:52:42	13:57:19	276286	5.0.10.0	5_exp_noRW	98	Rpleas_acq	CS_A	ZHHZ	JQQJ	DXXD	LWWL	YFFY	CPPC	träumen	genießen	küssen	vertrauen	sonnig	gütig	töten	gemein	krank	versagen	sterben	gierig	53pct	acq_USpleas_CSpleas2_noRW	acq1_noRW	1	47	0	0	300	300	389	50	0	1	1	blank2r.bmp	0	1	+	0	1	blank2r.bmp	252	1	JQQJ	306	2	sonnig	559	0	0	0	0	0	0	0	0	0	0	0	0	0	0	0	0	0	0	0	0	0	0	0	0	0	0	0	0	0	0	0	0	0	0	0	0	0	0	0
081319	13:52:42	13:57:20	277965	5.0.10.0	5_exp_noRW	98	Rpleas_acq	CS_A	ZHHZ	JQQJ	DXXD	LWWL	YFFY	CPPC	träumen	genießen	küssen	vertrauen	sonnig	gütig	töten	gemein	krank	versagen	sterben	gierig	47pct	acq_USunple_CSunple1_noRW	acq1_noRW	1	48	0	0	300	300	518	46	0	1	1	blank2r.bmp	0	1	+	0	1	blank2r.bmp	252	1	DXXD	306	1	töten	559	0	0	0	0	0	0	0	0	0	0	0	0	0	0	0	0	0	0	0	0	0	0	0	0	0	0	0	0	0	0	0	0	0	0	0	0	0	0	0
081319	13:52:42	13:57:22	279618	5.0.10.0	5_exp_noRW	98	Rpleas_acq	CS_A	ZHHZ	JQQJ	DXXD	LWWL	YFFY	CPPC	träumen	genießen	küssen	vertrauen	sonnig	gütig	töten	gemein	krank	versagen	sterben	gierig	53pct	acq_USpleas_CSpleas2_noRW	acq1_noRW	1	49	0	0	300	300	472	50	0	1	1	blank2r.bmp	0	1	+	0	1	blank2r.bmp	252	1	JQQJ	306	1	vertrauen	559	0	0	0	0	0	0	0	0	0	0	0	0	0	0	0	0	0	0	0	0	0	0	0	0	0	0	0	0	0	0	0	0	0	0	0	0	0	0	0
081319	13:52:42	13:57:24	281297	5.0.10.0	5_exp_noRW	98	Rpleas_acq	CS_A	ZHHZ	JQQJ	DXXD	LWWL	YFFY	CPPC	träumen	genießen	küssen	vertrauen	sonnig	gütig	töten	gemein	krank	versagen	sterben	gierig	53pct	acq_USpleas_CSpleas1_noRW	acq1_noRW	1	50	0	0	300	300	496	50	0	1	1	blank2r.bmp	0	1	+	0	1	blank2r.bmp	252	1	ZHHZ	306	3	küssen	559	0	0	0	0	0	0	0	0	0	0	0	0	0	0	0	0	0	0	0	0	0	0	0	0	0	0	0	0	0	0	0	0	0	0	0	0	0	0	0
081319	13:52:42	13:57:25	283030	5.0.10.0	5_exp_noRW	98	Rpleas_acq	CS_A	ZHHZ	JQQJ	DXXD	LWWL	YFFY	CPPC	träumen	genießen	küssen	vertrauen	sonnig	gütig	töten	gemein	krank	versagen	sterben	gierig	47pct	acq_USunple_CSpleas2_noRW	acq1_noRW	1	51	0	0	300	300	571	46	0	1	1	blank2r.bmp	0	1	+	0	1	blank2r.bmp	252	1	JQQJ	306	3	gierig	559	0	0	0	0	0	0	0	0	0	0	0	0	0	0	0	0	0	0	0	0	0	0	0	0	0	0	0	0	0	0	0	0	0	0	0	0	0	0	0
081319	13:52:42	13:57:27	284763	5.0.10.0	5_exp_noRW	98	Rpleas_acq	CS_A	ZHHZ	JQQJ	DXXD	LWWL	YFFY	CPPC	träumen	genießen	küssen	vertrauen	sonnig	gütig	töten	gemein	krank	versagen	sterben	gierig	53pct	acq_USpleas_CSpleas2_noRW	acq1_noRW	1	52	0	0	300	300	549	50	0	1	1	blank2r.bmp	0	1	+	0	1	blank2r.bmp	252	1	JQQJ	306	2	sonnig	559	0	0	0	0	0	0	0	0	0	0	0	0	0	0	0	0	0	0	0	0	0	0	0	0	0	0	0	0	0	0	0	0	0	0	0	0	0	0	0
081319	13:52:42	13:57:29	286389	5.0.10.0	5_exp_noRW	98	Rpleas_acq	CS_A	ZHHZ	JQQJ	DXXD	LWWL	YFFY	CPPC	träumen	genießen	küssen	vertrauen	sonnig	gütig	töten	gemein	krank	versagen	sterben	gierig	53pct	acq_USunple_CSunple2_noRW	acq1_noRW	1	53	0	0	300	300	451	46	0	1	1	blank2r.bmp	0	1	+	0	1	blank2r.bmp	252	1	LWWL	306	3	gierig	559	0	0	0	0	0	0	0	0	0	0	0	0	0	0	0	0	0	0	0	0	0	0	0	0	0	0	0	0	0	0	0	0	0	0	0	0	0	0	0
081319	13:52:42	13:57:31	288214	5.0.10.0	5_exp_noRW	98	Rpleas_acq	CS_A	ZHHZ	JQQJ	DXXD	LWWL	YFFY	CPPC	träumen	genießen	küssen	vertrauen	sonnig	gütig	töten	gemein	krank	versagen	sterben	gierig	47pct	acq_USpleas_CSpleas2_noRW	acq1_noRW	1	54	0	0	300	300	649	50	0	1	1	blank2r.bmp	0	1	+	0	1	blank2r.bmp	252	1	JQQJ	306	3	gütig	559	0	0	0	0	0	0	0	0	0	0	0	0	0	0	0	0	0	0	0	0	0	0	0	0	0	0	0	0	0	0	0	0	0	0	0	0	0	0	0
081319	13:52:42	13:57:32	289920	5.0.10.0	5_exp_noRW	98	Rpleas_acq	CS_A	ZHHZ	JQQJ	DXXD	LWWL	YFFY	CPPC	träumen	genießen	küssen	vertrauen	sonnig	gütig	töten	gemein	krank	versagen	sterben	gierig	53pct	acq_USunple_CSunple2_noRW	acq1_noRW	1	55	0	0	300	300	530	46	0	1	1	blank2r.bmp	0	1	+	0	1	blank2r.bmp	252	1	LWWL	306	1	versagen	559	0	0	0	0	0	0	0	0	0	0	0	0	0	0	0	0	0	0	0	0	0	0	0	0	0	0	0	0	0	0	0	0	0	0	0	0	0	0	0
081319	13:52:42	13:57:34	291973	5.0.10.0	5_exp_noRW	98	Rpleas_acq	CS_A	ZHHZ	JQQJ	DXXD	LWWL	YFFY	CPPC	träumen	genießen	küssen	vertrauen	sonnig	gütig	töten	gemein	krank	versagen	sterben	gierig	47pct	acq_USunple_CSunple2_noRW	acq1_noRW	1	56	0	0	300	300	657	50	0	0	1	blank2r.bmp	0	1	+	0	1	blank2r.bmp	252	1	LWWL	306	2	sterben	559	1	FEHLER	1252	0	0	0	0	0	0	0	0	0	0	0	0	0	0	0	0	0	0	0	0	0	0	0	0	0	0	0	0	0	0	0	0	0	0	0	0
081319	13:52:42	13:57:36	293599	5.0.10.0	5_exp_noRW	98	Rpleas_acq	CS_A	ZHHZ	JQQJ	DXXD	LWWL	YFFY	CPPC	träumen	genießen	küssen	vertrauen	sonnig	gütig	töten	gemein	krank	versagen	sterben	gierig	47pct	acq_USpleas_CSunple2_noRW	acq1_noRW	1	57	0	0	300	300	461	46	0	0	1	blank2r.bmp	0	1	+	0	1	blank2r.bmp	252	1	LWWL	306	3	gütig	559	1	FEHLER	1052	0	0	0	0	0	0	0	0	0	0	0	0	0	0	0	0	0	0	0	0	0	0	0	0	0	0	0	0	0	0	0	0	0	0	0	0
081319	13:52:42	13:57:37	295118	5.0.10.0	5_exp_noRW	98	Rpleas_acq	CS_A	ZHHZ	JQQJ	DXXD	LWWL	YFFY	CPPC	träumen	genießen	küssen	vertrauen	sonnig	gütig	töten	gemein	krank	versagen	sterben	gierig	53pct	acq_USunple_CSunple1_noRW	acq1_noRW	1	58	0	0	300	300	553	46	0	1	1	blank2r.bmp	0	1	+	0	1	blank2r.bmp	252	1	DXXD	306	3	krank	559	0	0	0	0	0	0	0	0	0	0	0	0	0	0	0	0	0	0	0	0	0	0	0	0	0	0	0	0	0	0	0	0	0	0	0	0	0	0	0
081319	13:52:42	13:57:39	296678	5.0.10.0	5_exp_noRW	98	Rpleas_acq	CS_A	ZHHZ	JQQJ	DXXD	LWWL	YFFY	CPPC	träumen	genießen	küssen	vertrauen	sonnig	gütig	töten	gemein	krank	versagen	sterben	gierig	47pct	acq_USpleas_CSpleas1_noRW	acq1_noRW	1	59	0	0	300	300	373	50	0	1	1	blank2r.bmp	0	1	+	0	1	blank2r.bmp	252	1	ZHHZ	306	1	träumen	559	0	0	0	0	0	0	0	0	0	0	0	0	0	0	0	0	0	0	0	0	0	0	0	0	0	0	0	0	0	0	0	0	0	0	0	0	0	0	0
081319	13:52:42	13:57:41	298304	5.0.10.0	5_exp_noRW	98	Rpleas_acq	CS_A	ZHHZ	JQQJ	DXXD	LWWL	YFFY	CPPC	träumen	genießen	küssen	vertrauen	sonnig	gütig	töten	gemein	krank	versagen	sterben	gierig	47pct	acq_USunple_CSunple1_noRW	acq1_noRW	1	60	0	0	300	300	458	46	0	1	1	blank2r.bmp	0	1	+	0	1	blank2r.bmp	252	1	DXXD	306	2	gemein	559	0	0	0	0	0	0	0	0	0	0	0	0	0	0	0	0	0	0	0	0	0	0	0	0	0	0	0	0	0	0	0	0	0	0	0	0	0	0	0
081319	13:52:42	13:57:42	300050	5.0.10.0	5_exp_noRW	98	Rpleas_acq	CS_A	ZHHZ	JQQJ	DXXD	LWWL	YFFY	CPPC	träumen	genießen	küssen	vertrauen	sonnig	gütig	töten	gemein	krank	versagen	sterben	gierig	53pct	acq_USpleas_CSpleas1_noRW	acq1_noRW	1	61	0	0	300	300	566	50	0	1	1	blank2r.bmp	0	1	+	0	1	blank2r.bmp	252	1	ZHHZ	306	2	genießen	559	0	0	0	0	0	0	0	0	0	0	0	0	0	0	0	0	0	0	0	0	0	0	0	0	0	0	0	0	0	0	0	0	0	0	0	0	0	0	0
081319	13:52:42	13:57:44	301849	5.0.10.0	5_exp_noRW	98	Rpleas_acq	CS_A	ZHHZ	JQQJ	DXXD	LWWL	YFFY	CPPC	träumen	genießen	küssen	vertrauen	sonnig	gütig	töten	gemein	krank	versagen	sterben	gierig	53pct	acq_USpleas_CSpleas2_noRW	acq1_noRW	1	62	0	0	300	300	615	50	0	1	1	blank2r.bmp	0	1	+	0	1	blank2r.bmp	252	1	JQQJ	306	1	vertrauen	559	0	0	0	0	0	0	0	0	0	0	0	0	0	0	0	0	0	0	0	0	0	0	0	0	0	0	0	0	0	0	0	0	0	0	0	0	0	0	0
081319	13:52:42	13:57:46	303382	5.0.10.0	5_exp_noRW	98	Rpleas_acq	CS_A	ZHHZ	JQQJ	DXXD	LWWL	YFFY	CPPC	träumen	genießen	küssen	vertrauen	sonnig	gütig	töten	gemein	krank	versagen	sterben	gierig	53pct	acq_USunple_CSpleas1_noRW	acq1_noRW	1	63	0	0	300	300	358	46	0	1	1	blank2r.bmp	0	1	+	0	1	blank2r.bmp	252	1	ZHHZ	306	3	krank	559	0	0	0	0	0	0	0	0	0	0	0	0	0	0	0	0	0	0	0	0	0	0	0	0	0	0	0	0	0	0	0	0	0	0	0	0	0	0	0
081319	13:52:42	13:57:47	305128	5.0.10.0	5_exp_noRW	98	Rpleas_acq	CS_A	ZHHZ	JQQJ	DXXD	LWWL	YFFY	CPPC	träumen	genießen	küssen	vertrauen	sonnig	gütig	töten	gemein	krank	versagen	sterben	gierig	47pct	acq_USunple_CSunple2_noRW	acq1_noRW	1	64	0	0	300	300	560	46	0	1	1	blank2r.bmp	0	1	+	0	1	blank2r.bmp	252	1	LWWL	306	1	versagen	559	0	0	0	0	0	0	0	0	0	0	0	0	0	0	0	0	0	0	0	0	0	0	0	0	0	0	0	0	0	0	0	0	0	0	0	0	0	0	0
081319	13:52:42	13:57:49	306794	5.0.10.0	5_exp_noRW	98	Rpleas_acq	CS_A	ZHHZ	JQQJ	DXXD	LWWL	YFFY	CPPC	träumen	genießen	küssen	vertrauen	sonnig	gütig	töten	gemein	krank	versagen	sterben	gierig	47pct	acq_USpleas_CSunple2_noRW	acq1_noRW	1	65	0	0	300	300	502	50	0	1	1	blank2r.bmp	0	1	+	0	1	blank2r.bmp	252	1	LWWL	306	1	vertrauen	559	0	0	0	0	0	0	0	0	0	0	0	0	0	0	0	0	0	0	0	0	0	0	0	0	0	0	0	0	0	0	0	0	0	0	0	0	0	0	0
081319	13:52:42	13:57:51	308513	5.0.10.0	5_exp_noRW	98	Rpleas_acq	CS_A	ZHHZ	JQQJ	DXXD	LWWL	YFFY	CPPC	träumen	genießen	küssen	vertrauen	sonnig	gütig	töten	gemein	krank	versagen	sterben	gierig	47pct	acq_USunple_CSunple1_noRW	acq1_noRW	1	66	0	0	300	300	541	46	0	1	1	blank2r.bmp	0	1	+	0	1	blank2r.bmp	252	1	DXXD	306	3	krank	559	0	0	0	0	0	0	0	0	0	0	0	0	0	0	0	0	0	0	0	0	0	0	0	0	0	0	0	0	0	0	0	0	0	0	0	0	0	0	0
081319	13:52:42	13:57:53	310419	5.0.10.0	5_exp_noRW	98	Rpleas_acq	CS_A	ZHHZ	JQQJ	DXXD	LWWL	YFFY	CPPC	träumen	genießen	küssen	vertrauen	sonnig	gütig	töten	gemein	krank	versagen	sterben	gierig	47pct	acq_USunple_CSunple1_noRW	acq1_noRW	1	67	0	0	300	300	742	46	0	1	1	blank2r.bmp	0	1	+	0	1	blank2r.bmp	252	1	DXXD	306	2	gemein	559	0	0	0	0	0	0	0	0	0	0	0	0	0	0	0	0	0	0	0	0	0	0	0	0	0	0	0	0	0	0	0	0	0	0	0	0	0	0	0
081319	13:52:42	13:57:54	312005	5.0.10.0	5_exp_noRW	98	Rpleas_acq	CS_A	ZHHZ	JQQJ	DXXD	LWWL	YFFY	CPPC	träumen	genießen	küssen	vertrauen	sonnig	gütig	töten	gemein	krank	versagen	sterben	gierig	47pct	acq_USunple_CSunple1_noRW	acq1_noRW	1	68	0	0	300	300	408	46	0	1	1	blank2r.bmp	0	1	+	0	1	blank2r.bmp	252	1	DXXD	306	1	töten	559	0	0	0	0	0	0	0	0	0	0	0	0	0	0	0	0	0	0	0	0	0	0	0	0	0	0	0	0	0	0	0	0	0	0	0	0	0	0	0
081319	13:52:42	13:57:56	313604	5.0.10.0	5_exp_noRW	98	Rpleas_acq	CS_A	ZHHZ	JQQJ	DXXD	LWWL	YFFY	CPPC	träumen	genießen	küssen	vertrauen	sonnig	gütig	töten	gemein	krank	versagen	sterben	gierig	47pct	acq_USunple_CSpleas2_noRW	acq1_noRW	1	69	0	0	300	300	423	46	0	1	1	blank2r.bmp	0	1	+	0	1	blank2r.bmp	252	1	JQQJ	306	2	sterben	559	0	0	0	0	0	0	0	0	0	0	0	0	0	0	0	0	0	0	0	0	0	0	0	0	0	0	0	0	0	0	0	0	0	0	0	0	0	0	0
081319	13:52:42	13:57:58	315257	5.0.10.0	5_exp_noRW	98	Rpleas_acq	CS_A	ZHHZ	JQQJ	DXXD	LWWL	YFFY	CPPC	träumen	genießen	küssen	vertrauen	sonnig	gütig	töten	gemein	krank	versagen	sterben	gierig	53pct	acq_USpleas_CSunple1_noRW	acq1_noRW	1	70	0	0	300	300	475	50	0	1	1	blank2r.bmp	0	1	+	0	1	blank2r.bmp	252	1	DXXD	306	1	träumen	559	0	0	0	0	0	0	0	0	0	0	0	0	0	0	0	0	0	0	0	0	0	0	0	0	0	0	0	0	0	0	0	0	0	0	0	0	0	0	0
081319	13:52:42	13:57:59	316843	5.0.10.0	5_exp_noRW	98	Rpleas_acq	CS_A	ZHHZ	JQQJ	DXXD	LWWL	YFFY	CPPC	träumen	genießen	küssen	vertrauen	sonnig	gütig	töten	gemein	krank	versagen	sterben	gierig	53pct	acq_USunple_CSunple1_noRW	acq1_noRW	1	71	0	0	300	300	402	46	0	1	1	blank2r.bmp	0	1	+	0	1	blank2r.bmp	252	1	DXXD	306	1	töten	559	0	0	0	0	0	0	0	0	0	0	0	0	0	0	0	0	0	0	0	0	0	0	0	0	0	0	0	0	0	0	0	0	0	0	0	0	0	0	0
081319	13:52:42	13:58:01	318442	5.0.10.0	5_exp_noRW	98	Rpleas_acq	CS_A	ZHHZ	JQQJ	DXXD	LWWL	YFFY	CPPC	träumen	genießen	küssen	vertrauen	sonnig	gütig	töten	gemein	krank	versagen	sterben	gierig	53pct	acq_USpleas_CSpleas2_noRW	acq1_noRW	1	72	0	0	300	300	432	50	0	1	1	blank2r.bmp	0	1	+	0	1	blank2r.bmp	252	1	JQQJ	306	3	gütig	559	0	0	0	0	0	0	0	0	0	0	0	0	0	0	0	0	0	0	0	0	0	0	0	0	0	0	0	0	0	0	0	0	0	0	0	0	0	0	0
081319	13:52:42	13:58:02	320135	5.0.10.0	5_exp_noRW	98	Rpleas_acq	CS_A	ZHHZ	JQQJ	DXXD	LWWL	YFFY	CPPC	träumen	genießen	küssen	vertrauen	sonnig	gütig	töten	gemein	krank	versagen	sterben	gierig	47pct	acq_USpleas_CSpleas2_noRW	acq1_noRW	1	73	0	0	300	300	510	50	0	1	1	blank2r.bmp	0	1	+	0	1	blank2r.bmp	252	1	JQQJ	306	2	sonnig	559	0	0	0	0	0	0	0	0	0	0	0	0	0	0	0	0	0	0	0	0	0	0	0	0	0	0	0	0	0	0	0	0	0	0	0	0	0	0	0
081319	13:52:42	13:58:04	321734	5.0.10.0	5_exp_noRW	98	Rpleas_acq	CS_A	ZHHZ	JQQJ	DXXD	LWWL	YFFY	CPPC	träumen	genießen	küssen	vertrauen	sonnig	gütig	töten	gemein	krank	versagen	sterben	gierig	53pct	acq_USunple_CSunple2_noRW	acq1_noRW	1	74	0	0	300	300	433	46	0	1	1	blank2r.bmp	0	1	+	0	1	blank2r.bmp	252	1	LWWL	306	3	gierig	559	0	0	0	0	0	0	0	0	0	0	0	0	0	0	0	0	0	0	0	0	0	0	0	0	0	0	0	0	0	0	0	0	0	0	0	0	0	0	0
081319	13:52:42	13:58:06	323333	5.0.10.0	5_exp_noRW	98	Rpleas_acq	CS_A	ZHHZ	JQQJ	DXXD	LWWL	YFFY	CPPC	träumen	genießen	küssen	vertrauen	sonnig	gütig	töten	gemein	krank	versagen	sterben	gierig	47pct	acq_USpleas_CSpleas2_noRW	acq1_noRW	1	75	0	0	300	300	412	50	0	1	1	blank2r.bmp	0	1	+	0	1	blank2r.bmp	252	1	JQQJ	306	3	gütig	559	0	0	0	0	0	0	0	0	0	0	0	0	0	0	0	0	0	0	0	0	0	0	0	0	0	0	0	0	0	0	0	0	0	0	0	0	0	0	0
081319	13:52:42	13:58:07	324999	5.0.10.0	5_exp_noRW	98	Rpleas_acq	CS_A	ZHHZ	JQQJ	DXXD	LWWL	YFFY	CPPC	träumen	genießen	küssen	vertrauen	sonnig	gütig	töten	gemein	krank	versagen	sterben	gierig	47pct	acq_USpleas_CSpleas1_noRW	acq1_noRW	1	76	0	0	300	300	503	50	0	1	1	blank2r.bmp	0	1	+	0	1	blank2r.bmp	252	1	ZHHZ	306	1	träumen	559	0	0	0	0	0	0	0	0	0	0	0	0	0	0	0	0	0	0	0	0	0	0	0	0	0	0	0	0	0	0	0	0	0	0	0	0	0	0	0
081319	13:52:42	13:58:09	326585	5.0.10.0	5_exp_noRW	98	Rpleas_acq	CS_A	ZHHZ	JQQJ	DXXD	LWWL	YFFY	CPPC	träumen	genießen	küssen	vertrauen	sonnig	gütig	töten	gemein	krank	versagen	sterben	gierig	47pct	acq_USpleas_CSpleas1_noRW	acq1_noRW	1	77	0	0	300	300	407	50	0	1	1	blank2r.bmp	0	1	+	0	1	blank2r.bmp	252	1	ZHHZ	306	3	küssen	559	0	0	0	0	0	0	0	0	0	0	0	0	0	0	0	0	0	0	0	0	0	0	0	0	0	0	0	0	0	0	0	0	0	0	0	0	0	0	0
081319	13:52:42	13:58:10	328105	5.0.10.0	5_exp_noRW	98	Rpleas_acq	CS_A	ZHHZ	JQQJ	DXXD	LWWL	YFFY	CPPC	träumen	genießen	küssen	vertrauen	sonnig	gütig	töten	gemein	krank	versagen	sterben	gierig	47pct	acq_USunple_CSunple2_noRW	acq1_noRW	1	78	0	0	300	300	344	46	0	1	1	blank2r.bmp	0	1	+	0	1	blank2r.bmp	252	1	LWWL	306	2	sterben	559	0	0	0	0	0	0	0	0	0	0	0	0	0	0	0	0	0	0	0	0	0	0	0	0	0	0	0	0	0	0	0	0	0	0	0	0	0	0	0
081319	13:52:42	13:58:12	329704	5.0.10.0	5_exp_noRW	98	Rpleas_acq	CS_A	ZHHZ	JQQJ	DXXD	LWWL	YFFY	CPPC	träumen	genießen	küssen	vertrauen	sonnig	gütig	töten	gemein	krank	versagen	sterben	gierig	53pct	acq_USpleas_CSpleas1_noRW	acq1_noRW	1	79	0	0	300	300	427	50	0	1	1	blank2r.bmp	0	1	+	0	1	blank2r.bmp	252	1	ZHHZ	306	3	küssen	559	0	0	0	0	0	0	0	0	0	0	0	0	0	0	0	0	0	0	0	0	0	0	0	0	0	0	0	0	0	0	0	0	0	0	0	0	0	0	0
081319	13:52:42	13:58:14	331357	5.0.10.0	5_exp_noRW	98	Rpleas_acq	CS_A	ZHHZ	JQQJ	DXXD	LWWL	YFFY	CPPC	träumen	genießen	küssen	vertrauen	sonnig	gütig	töten	gemein	krank	versagen	sterben	gierig	47pct	acq_USunple_CSunple2_noRW	acq1_noRW	1	80	0	0	300	300	481	46	0	1	1	blank2r.bmp	0	1	+	0	1	blank2r.bmp	252	1	LWWL	306	1	versagen	559	0	0	0	0	0	0	0	0	0	0	0	0	0	0	0	0	0	0	0	0	0	0	0	0	0	0	0	0	0	0	0	0	0	0	0	0	0	0	0
081319	13:52:42	13:58:28	345151	5.0.10.0	5_exp_noRW	98	Rpleas_acq	CS_A	ZHHZ	JQQJ	DXXD	LWWL	YFFY	CPPC	träumen	genießen	küssen	vertrauen	sonnig	gütig	töten	gemein	krank	versagen	sterben	gierig	47pct	acq_USunple_CSpleas2_noRW	acq23456_noRW	2	1	0	0	300	300	602	46	0	1	1	blank2r.bmp	0	1	+	0	1	blank2r.bmp	252	1	JQQJ	306	1	versagen	559	0	0	0	0	0	0	0	0	0	0	0	0	0	0	0	0	0	0	0	0	0	0	0	0	0	0	0	0	0	0	0	0	0	0	0	0	0	0	0
081319	13:52:42	13:58:29	346737	5.0.10.0	5_exp_noRW	98	Rpleas_acq	CS_A	ZHHZ	JQQJ	DXXD	LWWL	YFFY	CPPC	träumen	genießen	küssen	vertrauen	sonnig	gütig	töten	gemein	krank	versagen	sterben	gierig	47pct	acq_USpleas_CSpleas1_noRW	acq23456_noRW	2	2	0	0	300	300	399	50	0	1	1	blank2r.bmp	0	1	+	0	1	blank2r.bmp	252	1	ZHHZ	306	1	träumen	559	0	0	0	0	0	0	0	0	0	0	0	0	0	0	0	0	0	0	0	0	0	0	0	0	0	0	0	0	0	0	0	0	0	0	0	0	0	0	0
081319	13:52:42	13:58:31	348443	5.0.10.0	5_exp_noRW	98	Rpleas_acq	CS_A	ZHHZ	JQQJ	DXXD	LWWL	YFFY	CPPC	träumen	genießen	küssen	vertrauen	sonnig	gütig	töten	gemein	krank	versagen	sterben	gierig	47pct	acq_USunple_CSunple1_noRW	acq23456_noRW	2	3	0	0	300	300	544	46	0	1	1	blank2r.bmp	0	1	+	0	1	blank2r.bmp	252	1	DXXD	306	2	gemein	559	0	0	0	0	0	0	0	0	0	0	0	0	0	0	0	0	0	0	0	0	0	0	0	0	0	0	0	0	0	0	0	0	0	0	0	0	0	0	0
081319	13:52:42	13:58:33	350242	5.0.10.0	5_exp_noRW	98	Rpleas_acq	CS_A	ZHHZ	JQQJ	DXXD	LWWL	YFFY	CPPC	träumen	genießen	küssen	vertrauen	sonnig	gütig	töten	gemein	krank	versagen	sterben	gierig	47pct	acq_USpleas_CSunple2_noRW	acq23456_noRW	2	4	0	0	300	300	407	46	0	0	1	blank2r.bmp	0	1	+	0	1	blank2r.bmp	252	1	LWWL	306	3	gütig	559	1	FEHLER	999	0	0	0	0	0	0	0	0	0	0	0	0	0	0	0	0	0	0	0	0	0	0	0	0	0	0	0	0	0	0	0	0	0	0	0	0
081319	13:52:42	13:58:34	351935	5.0.10.0	5_exp_noRW	98	Rpleas_acq	CS_A	ZHHZ	JQQJ	DXXD	LWWL	YFFY	CPPC	träumen	genießen	küssen	vertrauen	sonnig	gütig	töten	gemein	krank	versagen	sterben	gierig	47pct	acq_USpleas_CSpleas1_noRW	acq23456_noRW	2	5	0	0	300	300	518	46	0	0	1	blank2r.bmp	0	1	+	0	1	blank2r.bmp	252	1	ZHHZ	306	2	genießen	559	1	FEHLER	1106	0	0	0	0	0	0	0	0	0	0	0	0	0	0	0	0	0	0	0	0	0	0	0	0	0	0	0	0	0	0	0	0	0	0	0	0
081319	13:52:42	13:58:36	353694	5.0.10.0	5_exp_noRW	98	Rpleas_acq	CS_A	ZHHZ	JQQJ	DXXD	LWWL	YFFY	CPPC	träumen	genießen	küssen	vertrauen	sonnig	gütig	töten	gemein	krank	versagen	sterben	gierig	47pct	acq_USpleas_CSpleas2_noRW	acq23456_noRW	2	6	0	0	300	300	574	46	0	0	1	blank2r.bmp	0	1	+	0	1	blank2r.bmp	252	1	JQQJ	306	2	sonnig	559	1	FEHLER	1172	0	0	0	0	0	0	0	0	0	0	0	0	0	0	0	0	0	0	0	0	0	0	0	0	0	0	0	0	0	0	0	0	0	0	0	0
081319	13:52:42	13:58:37	355134	5.0.10.0	5_exp_noRW	98	Rpleas_acq	CS_A	ZHHZ	JQQJ	DXXD	LWWL	YFFY	CPPC	träumen	genießen	küssen	vertrauen	sonnig	gütig	töten	gemein	krank	versagen	sterben	gierig	47pct	acq_USpleas_CSpleas2_noRW	acq23456_noRW	2	7	0	0	300	300	478	50	0	1	1	blank2r.bmp	0	1	+	0	1	blank2r.bmp	252	1	JQQJ	306	1	vertrauen	559	0	0	0	0	0	0	0	0	0	0	0	0	0	0	0	0	0	0	0	0	0	0	0	0	0	0	0	0	0	0	0	0	0	0	0	0	0	0	0
081319	13:52:42	13:58:39	356826	5.0.10.0	5_exp_noRW	98	Rpleas_acq	CS_A	ZHHZ	JQQJ	DXXD	LWWL	YFFY	CPPC	träumen	genießen	küssen	vertrauen	sonnig	gütig	töten	gemein	krank	versagen	sterben	gierig	47pct	acq_USpleas_CSpleas1_noRW	acq23456_noRW	2	8	0	0	300	300	515	50	0	1	1	blank2r.bmp	0	1	+	0	1	blank2r.bmp	252	1	ZHHZ	306	3	küssen	559	0	0	0	0	0	0	0	0	0	0	0	0	0	0	0	0	0	0	0	0	0	0	0	0	0	0	0	0	0	0	0	0	0	0	0	0	0	0	0
081319	13:52:42	13:58:41	358439	5.0.10.0	5_exp_noRW	98	Rpleas_acq	CS_A	ZHHZ	JQQJ	DXXD	LWWL	YFFY	CPPC	träumen	genießen	küssen	vertrauen	sonnig	gütig	töten	gemein	krank	versagen	sterben	gierig	47pct	acq_USunple_CSunple2_noRW	acq23456_noRW	2	9	0	0	300	300	444	46	0	1	1	blank2r.bmp	0	1	+	0	1	blank2r.bmp	252	1	LWWL	306	2	sterben	559	0	0	0	0	0	0	0	0	0	0	0	0	0	0	0	0	0	0	0	0	0	0	0	0	0	0	0	0	0	0	0	0	0	0	0	0	0	0	0
081319	13:52:42	13:58:43	360212	5.0.10.0	5_exp_noRW	98	Rpleas_acq	CS_A	ZHHZ	JQQJ	DXXD	LWWL	YFFY	CPPC	träumen	genießen	küssen	vertrauen	sonnig	gütig	töten	gemein	krank	versagen	sterben	gierig	47pct	acq_USunple_CSunple2_noRW	acq23456_noRW	2	10	0	0	300	300	592	46	0	1	1	blank2r.bmp	0	1	+	0	1	blank2r.bmp	252	1	LWWL	306	3	gierig	559	0	0	0	0	0	0	0	0	0	0	0	0	0	0	0	0	0	0	0	0	0	0	0	0	0	0	0	0	0	0	0	0	0	0	0	0	0	0	0
081319	13:52:42	13:58:44	361931	5.0.10.0	5_exp_noRW	98	Rpleas_acq	CS_A	ZHHZ	JQQJ	DXXD	LWWL	YFFY	CPPC	träumen	genießen	küssen	vertrauen	sonnig	gütig	töten	gemein	krank	versagen	sterben	gierig	47pct	acq_USpleas_CSpleas1_noRW	acq23456_noRW	2	11	0	0	300	300	550	50	0	1	1	blank2r.bmp	0	1	+	0	1	blank2r.bmp	252	1	ZHHZ	306	2	genießen	559	0	0	0	0	0	0	0	0	0	0	0	0	0	0	0	0	0	0	0	0	0	0	0	0	0	0	0	0	0	0	0	0	0	0	0	0	0	0	0
081319	13:52:42	13:58:46	363823	5.0.10.0	5_exp_noRW	98	Rpleas_acq	CS_A	ZHHZ	JQQJ	DXXD	LWWL	YFFY	CPPC	träumen	genießen	küssen	vertrauen	sonnig	gütig	töten	gemein	krank	versagen	sterben	gierig	53pct	acq_USpleas_CSpleas2_noRW	acq23456_noRW	2	12	0	0	300	300	730	50	0	1	1	blank2r.bmp	0	1	+	0	1	blank2r.bmp	252	1	JQQJ	306	1	vertrauen	559	0	0	0	0	0	0	0	0	0	0	0	0	0	0	0	0	0	0	0	0	0	0	0	0	0	0	0	0	0	0	0	0	0	0	0	0	0	0	0
081319	13:52:42	13:58:48	365516	5.0.10.0	5_exp_noRW	98	Rpleas_acq	CS_A	ZHHZ	JQQJ	DXXD	LWWL	YFFY	CPPC	träumen	genießen	küssen	vertrauen	sonnig	gütig	töten	gemein	krank	versagen	sterben	gierig	53pct	acq_USunple_CSunple1_noRW	acq23456_noRW	2	13	0	0	300	300	513	46	0	1	1	blank2r.bmp	0	1	+	0	1	blank2r.bmp	252	1	DXXD	306	3	krank	559	0	0	0	0	0	0	0	0	0	0	0	0	0	0	0	0	0	0	0	0	0	0	0	0	0	0	0	0	0	0	0	0	0	0	0	0	0	0	0
081319	13:52:42	13:58:49	367142	5.0.10.0	5_exp_noRW	98	Rpleas_acq	CS_A	ZHHZ	JQQJ	DXXD	LWWL	YFFY	CPPC	träumen	genießen	küssen	vertrauen	sonnig	gütig	töten	gemein	krank	versagen	sterben	gierig	53pct	acq_USpleas_CSpleas2_noRW	acq23456_noRW	2	14	0	0	300	300	463	50	0	1	1	blank2r.bmp	0	1	+	0	1	blank2r.bmp	252	1	JQQJ	306	3	gütig	559	0	0	0	0	0	0	0	0	0	0	0	0	0	0	0	0	0	0	0	0	0	0	0	0	0	0	0	0	0	0	0	0	0	0	0	0	0	0	0
081319	13:52:42	13:58:51	369021	5.0.10.0	5_exp_noRW	98	Rpleas_acq	CS_A	ZHHZ	JQQJ	DXXD	LWWL	YFFY	CPPC	träumen	genießen	küssen	vertrauen	sonnig	gütig	töten	gemein	krank	versagen	sterben	gierig	47pct	acq_USunple_CSunple2_noRW	acq23456_noRW	2	15	0	0	300	300	697	46	0	1	1	blank2r.bmp	0	1	+	0	1	blank2r.bmp	252	1	LWWL	306	3	gierig	559	0	0	0	0	0	0	0	0	0	0	0	0	0	0	0	0	0	0	0	0	0	0	0	0	0	0	0	0	0	0	0	0	0	0	0	0	0	0	0
081319	13:52:42	13:58:53	370767	5.0.10.0	5_exp_noRW	98	Rpleas_acq	CS_A	ZHHZ	JQQJ	DXXD	LWWL	YFFY	CPPC	träumen	genießen	küssen	vertrauen	sonnig	gütig	töten	gemein	krank	versagen	sterben	gierig	47pct	acq_USunple_CSunple1_noRW	acq23456_noRW	2	16	0	0	300	300	560	46	0	1	1	blank2r.bmp	0	1	+	0	1	blank2r.bmp	252	1	DXXD	306	1	töten	559	0	0	0	0	0	0	0	0	0	0	0	0	0	0	0	0	0	0	0	0	0	0	0	0	0	0	0	0	0	0	0	0	0	0	0	0	0	0	0
081319	13:52:42	13:58:55	372367	5.0.10.0	5_exp_noRW	98	Rpleas_acq	CS_A	ZHHZ	JQQJ	DXXD	LWWL	YFFY	CPPC	träumen	genießen	küssen	vertrauen	sonnig	gütig	töten	gemein	krank	versagen	sterben	gierig	47pct	acq_USunple_CSpleas1_noRW	acq23456_noRW	2	17	0	0	300	300	417	46	0	1	1	blank2r.bmp	0	1	+	0	1	blank2r.bmp	252	1	ZHHZ	306	1	töten	559	0	0	0	0	0	0	0	0	0	0	0	0	0	0	0	0	0	0	0	0	0	0	0	0	0	0	0	0	0	0	0	0	0	0	0	0	0	0	0
081319	13:52:42	13:58:56	374046	5.0.10.0	5_exp_noRW	98	Rpleas_acq	CS_A	ZHHZ	JQQJ	DXXD	LWWL	YFFY	CPPC	träumen	genießen	küssen	vertrauen	sonnig	gütig	töten	gemein	krank	versagen	sterben	gierig	47pct	acq_USunple_CSunple1_noRW	acq23456_noRW	2	18	0	0	300	300	513	46	0	1	1	blank2r.bmp	0	1	+	0	1	blank2r.bmp	252	1	DXXD	306	2	gemein	559	0	0	0	0	0	0	0	0	0	0	0	0	0	0	0	0	0	0	0	0	0	0	0	0	0	0	0	0	0	0	0	0	0	0	0	0	0	0	0
081319	13:52:42	13:58:58	375805	5.0.10.0	5_exp_noRW	98	Rpleas_acq	CS_A	ZHHZ	JQQJ	DXXD	LWWL	YFFY	CPPC	träumen	genießen	küssen	vertrauen	sonnig	gütig	töten	gemein	krank	versagen	sterben	gierig	53pct	acq_USunple_CSunple2_noRW	acq23456_noRW	2	19	0	0	300	300	358	50	0	0	1	blank2r.bmp	0	1	+	0	1	blank2r.bmp	252	1	LWWL	306	2	sterben	559	1	FEHLER	959	0	0	0	0	0	0	0	0	0	0	0	0	0	0	0	0	0	0	0	0	0	0	0	0	0	0	0	0	0	0	0	0	0	0	0	0
081319	13:52:42	13:59:00	377191	5.0.10.0	5_exp_noRW	98	Rpleas_acq	CS_A	ZHHZ	JQQJ	DXXD	LWWL	YFFY	CPPC	träumen	genießen	küssen	vertrauen	sonnig	gütig	töten	gemein	krank	versagen	sterben	gierig	53pct	acq_USpleas_CSunple1_noRW	acq23456_noRW	2	20	0	0	300	300	430	50	0	1	1	blank2r.bmp	0	1	+	0	1	blank2r.bmp	252	1	DXXD	306	3	küssen	559	0	0	0	0	0	0	0	0	0	0	0	0	0	0	0	0	0	0	0	0	0	0	0	0	0	0	0	0	0	0	0	0	0	0	0	0	0	0	0
081319	13:52:42	13:59:01	378844	5.0.10.0	5_exp_noRW	98	Rpleas_acq	CS_A	ZHHZ	JQQJ	DXXD	LWWL	YFFY	CPPC	träumen	genießen	küssen	vertrauen	sonnig	gütig	töten	gemein	krank	versagen	sterben	gierig	47pct	acq_USpleas_CSpleas2_noRW	acq23456_noRW	2	21	0	0	300	300	470	50	0	1	1	blank2r.bmp	0	1	+	0	1	blank2r.bmp	252	1	JQQJ	306	2	sonnig	559	0	0	0	0	0	0	0	0	0	0	0	0	0	0	0	0	0	0	0	0	0	0	0	0	0	0	0	0	0	0	0	0	0	0	0	0	0	0	0
081319	13:52:42	13:59:03	380550	5.0.10.0	5_exp_noRW	98	Rpleas_acq	CS_A	ZHHZ	JQQJ	DXXD	LWWL	YFFY	CPPC	träumen	genießen	küssen	vertrauen	sonnig	gütig	töten	gemein	krank	versagen	sterben	gierig	53pct	acq_USpleas_CSpleas1_noRW	acq23456_noRW	2	22	0	0	300	300	536	50	0	1	1	blank2r.bmp	0	1	+	0	1	blank2r.bmp	252	1	ZHHZ	306	1	träumen	559	0	0	0	0	0	0	0	0	0	0	0	0	0	0	0	0	0	0	0	0	0	0	0	0	0	0	0	0	0	0	0	0	0	0	0	0	0	0	0
081319	13:52:42	13:59:05	382269	5.0.10.0	5_exp_noRW	98	Rpleas_acq	CS_A	ZHHZ	JQQJ	DXXD	LWWL	YFFY	CPPC	träumen	genießen	küssen	vertrauen	sonnig	gütig	töten	gemein	krank	versagen	sterben	gierig	47pct	acq_USunple_CSunple1_noRW	acq23456_noRW	2	23	0	0	300	300	538	46	0	1	1	blank2r.bmp	0	1	+	0	1	blank2r.bmp	252	1	DXXD	306	3	krank	559	0	0	0	0	0	0	0	0	0	0	0	0	0	0	0	0	0	0	0	0	0	0	0	0	0	0	0	0	0	0	0	0	0	0	0	0	0	0	0
081319	13:52:42	13:59:06	384002	5.0.10.0	5_exp_noRW	98	Rpleas_acq	CS_A	ZHHZ	JQQJ	DXXD	LWWL	YFFY	CPPC	träumen	genießen	küssen	vertrauen	sonnig	gütig	töten	gemein	krank	versagen	sterben	gierig	53pct	acq_USunple_CSunple1_noRW	acq23456_noRW	2	24	0	0	300	300	570	46	0	1	1	blank2r.bmp	0	1	+	0	1	blank2r.bmp	252	1	DXXD	306	2	gemein	559	0	0	0	0	0	0	0	0	0	0	0	0	0	0	0	0	0	0	0	0	0	0	0	0	0	0	0	0	0	0	0	0	0	0	0	0	0	0	0
081319	13:52:42	13:59:08	385668	5.0.10.0	5_exp_noRW	98	Rpleas_acq	CS_A	ZHHZ	JQQJ	DXXD	LWWL	YFFY	CPPC	träumen	genießen	küssen	vertrauen	sonnig	gütig	töten	gemein	krank	versagen	sterben	gierig	53pct	acq_USunple_CSunple2_noRW	acq23456_noRW	2	25	0	0	300	300	480	46	0	1	1	blank2r.bmp	0	1	+	0	1	blank2r.bmp	252	1	LWWL	306	1	versagen	559	0	0	0	0	0	0	0	0	0	0	0	0	0	0	0	0	0	0	0	0	0	0	0	0	0	0	0	0	0	0	0	0	0	0	0	0	0	0	0
081319	13:52:42	13:59:10	387440	5.0.10.0	5_exp_noRW	98	Rpleas_acq	CS_A	ZHHZ	JQQJ	DXXD	LWWL	YFFY	CPPC	träumen	genießen	küssen	vertrauen	sonnig	gütig	töten	gemein	krank	versagen	sterben	gierig	53pct	acq_USpleas_CSpleas2_noRW	acq23456_noRW	2	26	0	0	300	300	586	50	0	1	1	blank2r.bmp	0	1	+	0	1	blank2r.bmp	252	1	JQQJ	306	2	sonnig	559	0	0	0	0	0	0	0	0	0	0	0	0	0	0	0	0	0	0	0	0	0	0	0	0	0	0	0	0	0	0	0	0	0	0	0	0	0	0	0
081319	13:52:42	13:59:11	389080	5.0.10.0	5_exp_noRW	98	Rpleas_acq	CS_A	ZHHZ	JQQJ	DXXD	LWWL	YFFY	CPPC	träumen	genießen	küssen	vertrauen	sonnig	gütig	töten	gemein	krank	versagen	sterben	gierig	53pct	acq_USunple_CSpleas1_noRW	acq23456_noRW	2	27	0	0	300	300	477	46	0	1	1	blank2r.bmp	0	1	+	0	1	blank2r.bmp	252	1	ZHHZ	306	2	gemein	559	0	0	0	0	0	0	0	0	0	0	0	0	0	0	0	0	0	0	0	0	0	0	0	0	0	0	0	0	0	0	0	0	0	0	0	0	0	0	0
081319	13:52:42	13:59:13	390826	5.0.10.0	5_exp_noRW	98	Rpleas_acq	CS_A	ZHHZ	JQQJ	DXXD	LWWL	YFFY	CPPC	träumen	genießen	küssen	vertrauen	sonnig	gütig	töten	gemein	krank	versagen	sterben	gierig	47pct	acq_USpleas_CSpleas1_noRW	acq23456_noRW	2	28	0	0	300	300	561	50	0	1	1	blank2r.bmp	0	1	+	0	1	blank2r.bmp	252	1	ZHHZ	306	1	träumen	559	0	0	0	0	0	0	0	0	0	0	0	0	0	0	0	0	0	0	0	0	0	0	0	0	0	0	0	0	0	0	0	0	0	0	0	0	0	0	0
081319	13:52:42	13:59:15	392438	5.0.10.0	5_exp_noRW	98	Rpleas_acq	CS_A	ZHHZ	JQQJ	DXXD	LWWL	YFFY	CPPC	träumen	genießen	küssen	vertrauen	sonnig	gütig	töten	gemein	krank	versagen	sterben	gierig	53pct	acq_USunple_CSunple1_noRW	acq23456_noRW	2	29	0	0	300	300	450	46	0	1	1	blank2r.bmp	0	1	+	0	1	blank2r.bmp	252	1	DXXD	306	3	krank	559	0	0	0	0	0	0	0	0	0	0	0	0	0	0	0	0	0	0	0	0	0	0	0	0	0	0	0	0	0	0	0	0	0	0	0	0	0	0	0
081319	13:52:42	13:59:17	394184	5.0.10.0	5_exp_noRW	98	Rpleas_acq	CS_A	ZHHZ	JQQJ	DXXD	LWWL	YFFY	CPPC	träumen	genießen	küssen	vertrauen	sonnig	gütig	töten	gemein	krank	versagen	sterben	gierig	47pct	acq_USpleas_CSpleas2_noRW	acq23456_noRW	2	30	0	0	300	300	570	50	0	1	1	blank2r.bmp	0	1	+	0	1	blank2r.bmp	252	1	JQQJ	306	3	gütig	559	0	0	0	0	0	0	0	0	0	0	0	0	0	0	0	0	0	0	0	0	0	0	0	0	0	0	0	0	0	0	0	0	0	0	0	0	0	0	0
081319	13:52:42	13:59:18	395904	5.0.10.0	5_exp_noRW	98	Rpleas_acq	CS_A	ZHHZ	JQQJ	DXXD	LWWL	YFFY	CPPC	träumen	genießen	küssen	vertrauen	sonnig	gütig	töten	gemein	krank	versagen	sterben	gierig	53pct	acq_USpleas_CSpleas2_noRW	acq23456_noRW	2	31	0	0	300	300	544	50	0	1	1	blank2r.bmp	0	1	+	0	1	blank2r.bmp	252	1	JQQJ	306	1	vertrauen	559	0	0	0	0	0	0	0	0	0	0	0	0	0	0	0	0	0	0	0	0	0	0	0	0	0	0	0	0	0	0	0	0	0	0	0	0	0	0	0
081319	13:52:42	13:59:20	397650	5.0.10.0	5_exp_noRW	98	Rpleas_acq	CS_A	ZHHZ	JQQJ	DXXD	LWWL	YFFY	CPPC	träumen	genießen	küssen	vertrauen	sonnig	gütig	töten	gemein	krank	versagen	sterben	gierig	53pct	acq_USpleas_CSunple1_noRW	acq23456_noRW	2	32	0	0	300	300	548	50	0	1	1	blank2r.bmp	0	1	+	0	1	blank2r.bmp	252	1	DXXD	306	2	genießen	559	0	0	0	0	0	0	0	0	0	0	0	0	0	0	0	0	0	0	0	0	0	0	0	0	0	0	0	0	0	0	0	0	0	0	0	0	0	0	0
081319	13:52:42	13:59:22	399276	5.0.10.0	5_exp_noRW	98	Rpleas_acq	CS_A	ZHHZ	JQQJ	DXXD	LWWL	YFFY	CPPC	träumen	genießen	küssen	vertrauen	sonnig	gütig	töten	gemein	krank	versagen	sterben	gierig	53pct	acq_USunple_CSunple2_noRW	acq23456_noRW	2	33	0	0	300	300	458	46	0	1	1	blank2r.bmp	0	1	+	0	1	blank2r.bmp	252	1	LWWL	306	2	sterben	559	0	0	0	0	0	0	0	0	0	0	0	0	0	0	0	0	0	0	0	0	0	0	0	0	0	0	0	0	0	0	0	0	0	0	0	0	0	0	0
081319	13:52:42	13:59:24	401155	5.0.10.0	5_exp_noRW	98	Rpleas_acq	CS_A	ZHHZ	JQQJ	DXXD	LWWL	YFFY	CPPC	träumen	genießen	küssen	vertrauen	sonnig	gütig	töten	gemein	krank	versagen	sterben	gierig	47pct	acq_USunple_CSunple2_noRW	acq23456_noRW	2	34	0	0	300	300	717	46	0	1	1	blank2r.bmp	0	1	+	0	1	blank2r.bmp	252	1	LWWL	306	1	versagen	559	0	0	0	0	0	0	0	0	0	0	0	0	0	0	0	0	0	0	0	0	0	0	0	0	0	0	0	0	0	0	0	0	0	0	0	0	0	0	0
081319	13:52:42	13:59:25	402821	5.0.10.0	5_exp_noRW	98	Rpleas_acq	CS_A	ZHHZ	JQQJ	DXXD	LWWL	YFFY	CPPC	träumen	genießen	küssen	vertrauen	sonnig	gütig	töten	gemein	krank	versagen	sterben	gierig	53pct	acq_USpleas_CSunple2_noRW	acq23456_noRW	2	35	0	0	300	300	481	50	0	1	1	blank2r.bmp	0	1	+	0	1	blank2r.bmp	252	1	LWWL	306	2	sonnig	559	0	0	0	0	0	0	0	0	0	0	0	0	0	0	0	0	0	0	0	0	0	0	0	0	0	0	0	0	0	0	0	0	0	0	0	0	0	0	0
081319	13:52:42	13:59:27	404473	5.0.10.0	5_exp_noRW	98	Rpleas_acq	CS_A	ZHHZ	JQQJ	DXXD	LWWL	YFFY	CPPC	träumen	genießen	küssen	vertrauen	sonnig	gütig	töten	gemein	krank	versagen	sterben	gierig	47pct	acq_USunple_CSunple2_noRW	acq23456_noRW	2	36	0	0	300	300	479	46	0	1	1	blank2r.bmp	0	1	+	0	1	blank2r.bmp	252	1	LWWL	306	3	gierig	559	0	0	0	0	0	0	0	0	0	0	0	0	0	0	0	0	0	0	0	0	0	0	0	0	0	0	0	0	0	0	0	0	0	0	0	0	0	0	0
081319	13:52:42	13:59:28	406139	5.0.10.0	5_exp_noRW	98	Rpleas_acq	CS_A	ZHHZ	JQQJ	DXXD	LWWL	YFFY	CPPC	träumen	genießen	küssen	vertrauen	sonnig	gütig	töten	gemein	krank	versagen	sterben	gierig	53pct	acq_USpleas_CSpleas1_noRW	acq23456_noRW	2	37	0	0	300	300	498	50	0	1	1	blank2r.bmp	0	1	+	0	1	blank2r.bmp	252	1	ZHHZ	306	2	genießen	559	0	0	0	0	0	0	0	0	0	0	0	0	0	0	0	0	0	0	0	0	0	0	0	0	0	0	0	0	0	0	0	0	0	0	0	0	0	0	0
081319	13:52:42	13:59:30	407885	5.0.10.0	5_exp_noRW	98	Rpleas_acq	CS_A	ZHHZ	JQQJ	DXXD	LWWL	YFFY	CPPC	träumen	genießen	küssen	vertrauen	sonnig	gütig	töten	gemein	krank	versagen	sterben	gierig	53pct	acq_USpleas_CSpleas1_noRW	acq23456_noRW	2	38	0	0	300	300	573	50	0	1	1	blank2r.bmp	0	1	+	0	1	blank2r.bmp	252	1	ZHHZ	306	3	küssen	559	0	0	0	0	0	0	0	0	0	0	0	0	0	0	0	0	0	0	0	0	0	0	0	0	0	0	0	0	0	0	0	0	0	0	0	0	0	0	0
081319	13:52:42	13:59:32	409511	5.0.10.0	5_exp_noRW	98	Rpleas_acq	CS_A	ZHHZ	JQQJ	DXXD	LWWL	YFFY	CPPC	träumen	genießen	küssen	vertrauen	sonnig	gütig	töten	gemein	krank	versagen	sterben	gierig	53pct	acq_USunple_CSpleas2_noRW	acq23456_noRW	2	39	0	0	300	300	464	46	0	1	1	blank2r.bmp	0	1	+	0	1	blank2r.bmp	252	1	JQQJ	306	3	gierig	559	0	0	0	0	0	0	0	0	0	0	0	0	0	0	0	0	0	0	0	0	0	0	0	0	0	0	0	0	0	0	0	0	0	0	0	0	0	0	0
081319	13:52:42	13:59:34	411231	5.0.10.0	5_exp_noRW	98	Rpleas_acq	CS_A	ZHHZ	JQQJ	DXXD	LWWL	YFFY	CPPC	träumen	genießen	küssen	vertrauen	sonnig	gütig	töten	gemein	krank	versagen	sterben	gierig	53pct	acq_USunple_CSunple1_noRW	acq23456_noRW	2	40	0	0	300	300	541	46	0	1	1	blank2r.bmp	0	1	+	0	1	blank2r.bmp	252	1	DXXD	306	1	töten	559	0	0	0	0	0	0	0	0	0	0	0	0	0	0	0	0	0	0	0	0	0	0	0	0	0	0	0	0	0	0	0	0	0	0	0	0	0	0	0
081319	13:52:42	13:59:35	412923	5.0.10.0	5_exp_noRW	98	Rpleas_acq	CS_A	ZHHZ	JQQJ	DXXD	LWWL	YFFY	CPPC	träumen	genießen	küssen	vertrauen	sonnig	gütig	töten	gemein	krank	versagen	sterben	gierig	47pct	acq_USunple_CSunple1_noRW	acq23456_noRW	2	41	0	0	300	300	513	46	0	1	1	blank2r.bmp	0	1	+	0	1	blank2r.bmp	252	1	DXXD	306	3	krank	559	0	0	0	0	0	0	0	0	0	0	0	0	0	0	0	0	0	0	0	0	0	0	0	0	0	0	0	0	0	0	0	0	0	0	0	0	0	0	0
081319	13:52:42	13:59:37	414616	5.0.10.0	5_exp_noRW	98	Rpleas_acq	CS_A	ZHHZ	JQQJ	DXXD	LWWL	YFFY	CPPC	träumen	genießen	küssen	vertrauen	sonnig	gütig	töten	gemein	krank	versagen	sterben	gierig	47pct	acq_USunple_CSunple2_noRW	acq23456_noRW	2	42	0	0	300	300	530	46	0	1	1	blank2r.bmp	0	1	+	0	1	blank2r.bmp	252	1	LWWL	306	1	versagen	559	0	0	0	0	0	0	0	0	0	0	0	0	0	0	0	0	0	0	0	0	0	0	0	0	0	0	0	0	0	0	0	0	0	0	0	0	0	0	0
081319	13:52:42	13:59:39	416229	5.0.10.0	5_exp_noRW	98	Rpleas_acq	CS_A	ZHHZ	JQQJ	DXXD	LWWL	YFFY	CPPC	träumen	genießen	küssen	vertrauen	sonnig	gütig	töten	gemein	krank	versagen	sterben	gierig	53pct	acq_USpleas_CSpleas1_noRW	acq23456_noRW	2	43	0	0	300	300	434	50	0	1	1	blank2r.bmp	0	1	+	0	1	blank2r.bmp	252	1	ZHHZ	306	3	küssen	559	0	0	0	0	0	0	0	0	0	0	0	0	0	0	0	0	0	0	0	0	0	0	0	0	0	0	0	0	0	0	0	0	0	0	0	0	0	0	0
081319	13:52:42	13:59:40	417988	5.0.10.0	5_exp_noRW	98	Rpleas_acq	CS_A	ZHHZ	JQQJ	DXXD	LWWL	YFFY	CPPC	träumen	genießen	küssen	vertrauen	sonnig	gütig	töten	gemein	krank	versagen	sterben	gierig	47pct	acq_USpleas_CSunple2_noRW	acq23456_noRW	2	44	0	0	300	300	384	46	0	0	1	blank2r.bmp	0	1	+	0	1	blank2r.bmp	252	1	LWWL	306	1	vertrauen	559	1	FEHLER	972	0	0	0	0	0	0	0	0	0	0	0	0	0	0	0	0	0	0	0	0	0	0	0	0	0	0	0	0	0	0	0	0	0	0	0	0
081319	13:52:42	13:59:42	419601	5.0.10.0	5_exp_noRW	98	Rpleas_acq	CS_A	ZHHZ	JQQJ	DXXD	LWWL	YFFY	CPPC	träumen	genießen	küssen	vertrauen	sonnig	gütig	töten	gemein	krank	versagen	sterben	gierig	47pct	acq_USunple_CSpleas2_noRW	acq23456_noRW	2	45	0	0	300	300	631	46	0	1	1	blank2r.bmp	0	1	+	0	1	blank2r.bmp	252	1	JQQJ	306	1	versagen	559	0	0	0	0	0	0	0	0	0	0	0	0	0	0	0	0	0	0	0	0	0	0	0	0	0	0	0	0	0	0	0	0	0	0	0	0	0	0	0
081319	13:52:42	13:59:44	421440	5.0.10.0	5_exp_noRW	98	Rpleas_acq	CS_A	ZHHZ	JQQJ	DXXD	LWWL	YFFY	CPPC	träumen	genießen	küssen	vertrauen	sonnig	gütig	töten	gemein	krank	versagen	sterben	gierig	53pct	acq_USpleas_CSunple1_noRW	acq23456_noRW	2	46	0	0	300	300	667	50	0	1	1	blank2r.bmp	0	1	+	0	1	blank2r.bmp	252	1	DXXD	306	3	küssen	559	0	0	0	0	0	0	0	0	0	0	0	0	0	0	0	0	0	0	0	0	0	0	0	0	0	0	0	0	0	0	0	0	0	0	0	0	0	0	0
081319	13:52:42	13:59:45	423133	5.0.10.0	5_exp_noRW	98	Rpleas_acq	CS_A	ZHHZ	JQQJ	DXXD	LWWL	YFFY	CPPC	träumen	genießen	küssen	vertrauen	sonnig	gütig	töten	gemein	krank	versagen	sterben	gierig	53pct	acq_USpleas_CSpleas1_noRW	acq23456_noRW	2	47	0	0	300	300	525	50	0	1	1	blank2r.bmp	0	1	+	0	1	blank2r.bmp	252	1	ZHHZ	306	1	träumen	559	0	0	0	0	0	0	0	0	0	0	0	0	0	0	0	0	0	0	0	0	0	0	0	0	0	0	0	0	0	0	0	0	0	0	0	0	0	0	0
081319	13:52:42	13:59:47	424825	5.0.10.0	5_exp_noRW	98	Rpleas_acq	CS_A	ZHHZ	JQQJ	DXXD	LWWL	YFFY	CPPC	träumen	genießen	küssen	vertrauen	sonnig	gütig	töten	gemein	krank	versagen	sterben	gierig	53pct	acq_USunple_CSunple2_noRW	acq23456_noRW	2	48	0	0	300	300	509	46	0	1	1	blank2r.bmp	0	1	+	0	1	blank2r.bmp	252	1	LWWL	306	2	sterben	559	0	0	0	0	0	0	0	0	0	0	0	0	0	0	0	0	0	0	0	0	0	0	0	0	0	0	0	0	0	0	0	0	0	0	0	0	0	0	0
081319	13:52:42	13:59:49	426531	5.0.10.0	5_exp_noRW	98	Rpleas_acq	CS_A	ZHHZ	JQQJ	DXXD	LWWL	YFFY	CPPC	träumen	genießen	küssen	vertrauen	sonnig	gütig	töten	gemein	krank	versagen	sterben	gierig	47pct	acq_USunple_CSunple2_noRW	acq23456_noRW	2	49	0	0	300	300	536	46	0	1	1	blank2r.bmp	0	1	+	0	1	blank2r.bmp	252	1	LWWL	306	3	gierig	559	0	0	0	0	0	0	0	0	0	0	0	0	0	0	0	0	0	0	0	0	0	0	0	0	0	0	0	0	0	0	0	0	0	0	0	0	0	0	0
081319	13:52:42	13:59:51	428197	5.0.10.0	5_exp_noRW	98	Rpleas_acq	CS_A	ZHHZ	JQQJ	DXXD	LWWL	YFFY	CPPC	träumen	genießen	küssen	vertrauen	sonnig	gütig	töten	gemein	krank	versagen	sterben	gierig	53pct	acq_USunple_CSunple1_noRW	acq23456_noRW	2	50	0	0	300	300	497	46	0	1	1	blank2r.bmp	0	1	+	0	1	blank2r.bmp	252	1	DXXD	306	1	töten	559	0	0	0	0	0	0	0	0	0	0	0	0	0	0	0	0	0	0	0	0	0	0	0	0	0	0	0	0	0	0	0	0	0	0	0	0	0	0	0
081319	13:52:42	13:59:52	429903	5.0.10.0	5_exp_noRW	98	Rpleas_acq	CS_A	ZHHZ	JQQJ	DXXD	LWWL	YFFY	CPPC	träumen	genießen	küssen	vertrauen	sonnig	gütig	töten	gemein	krank	versagen	sterben	gierig	47pct	acq_USunple_CSunple1_noRW	acq23456_noRW	2	51	0	0	300	300	536	46	0	1	1	blank2r.bmp	0	1	+	0	1	blank2r.bmp	252	1	DXXD	306	2	gemein	559	0	0	0	0	0	0	0	0	0	0	0	0	0	0	0	0	0	0	0	0	0	0	0	0	0	0	0	0	0	0	0	0	0	0	0	0	0	0	0
081319	13:52:42	13:59:54	431729	5.0.10.0	5_exp_noRW	98	Rpleas_acq	CS_A	ZHHZ	JQQJ	DXXD	LWWL	YFFY	CPPC	träumen	genießen	küssen	vertrauen	sonnig	gütig	töten	gemein	krank	versagen	sterben	gierig	47pct	acq_USpleas_CSpleas1_noRW	acq23456_noRW	2	52	0	0	300	300	447	46	0	0	1	blank2r.bmp	0	1	+	0	1	blank2r.bmp	252	1	ZHHZ	306	2	genießen	559	1	FEHLER	1039	0	0	0	0	0	0	0	0	0	0	0	0	0	0	0	0	0	0	0	0	0	0	0	0	0	0	0	0	0	0	0	0	0	0	0	0
081319	13:52:42	13:59:56	433275	5.0.10.0	5_exp_noRW	98	Rpleas_acq	CS_A	ZHHZ	JQQJ	DXXD	LWWL	YFFY	CPPC	träumen	genießen	küssen	vertrauen	sonnig	gütig	töten	gemein	krank	versagen	sterben	gierig	47pct	acq_USunple_CSpleas1_noRW	acq23456_noRW	2	53	0	0	300	300	581	46	0	1	1	blank2r.bmp	0	1	+	0	1	blank2r.bmp	252	1	ZHHZ	306	3	krank	559	0	0	0	0	0	0	0	0	0	0	0	0	0	0	0	0	0	0	0	0	0	0	0	0	0	0	0	0	0	0	0	0	0	0	0	0	0	0	0
081319	13:52:42	13:59:57	435008	5.0.10.0	5_exp_noRW	98	Rpleas_acq	CS_A	ZHHZ	JQQJ	DXXD	LWWL	YFFY	CPPC	träumen	genießen	küssen	vertrauen	sonnig	gütig	töten	gemein	krank	versagen	sterben	gierig	53pct	acq_USpleas_CSpleas2_noRW	acq23456_noRW	2	54	0	0	300	300	547	50	0	1	1	blank2r.bmp	0	1	+	0	1	blank2r.bmp	252	1	JQQJ	306	3	gütig	559	0	0	0	0	0	0	0	0	0	0	0	0	0	0	0	0	0	0	0	0	0	0	0	0	0	0	0	0	0	0	0	0	0	0	0	0	0	0	0
081319	13:52:42	13:59:59	436674	5.0.10.0	5_exp_noRW	98	Rpleas_acq	CS_A	ZHHZ	JQQJ	DXXD	LWWL	YFFY	CPPC	träumen	genießen	küssen	vertrauen	sonnig	gütig	töten	gemein	krank	versagen	sterben	gierig	47pct	acq_USpleas_CSpleas2_noRW	acq23456_noRW	2	55	0	0	300	300	489	50	0	1	1	blank2r.bmp	0	1	+	0	1	blank2r.bmp	252	1	JQQJ	306	2	sonnig	559	0	0	0	0	0	0	0	0	0	0	0	0	0	0	0	0	0	0	0	0	0	0	0	0	0	0	0	0	0	0	0	0	0	0	0	0	0	0	0
081319	13:52:42	14:00:01	438326	5.0.10.0	5_exp_noRW	98	Rpleas_acq	CS_A	ZHHZ	JQQJ	DXXD	LWWL	YFFY	CPPC	träumen	genießen	küssen	vertrauen	sonnig	gütig	töten	gemein	krank	versagen	sterben	gierig	53pct	acq_USunple_CSunple1_noRW	acq23456_noRW	2	56	0	0	300	300	465	46	0	1	1	blank2r.bmp	0	1	+	0	1	blank2r.bmp	252	1	DXXD	306	3	krank	559	0	0	0	0	0	0	0	0	0	0	0	0	0	0	0	0	0	0	0	0	0	0	0	0	0	0	0	0	0	0	0	0	0	0	0	0	0	0	0
081319	13:52:42	14:00:03	440232	5.0.10.0	5_exp_noRW	98	Rpleas_acq	CS_A	ZHHZ	JQQJ	DXXD	LWWL	YFFY	CPPC	träumen	genießen	küssen	vertrauen	sonnig	gütig	töten	gemein	krank	versagen	sterben	gierig	53pct	acq_USpleas_CSpleas2_noRW	acq23456_noRW	2	57	0	0	300	300	731	50	0	1	1	blank2r.bmp	0	1	+	0	1	blank2r.bmp	252	1	JQQJ	306	1	vertrauen	559	0	0	0	0	0	0	0	0	0	0	0	0	0	0	0	0	0	0	0	0	0	0	0	0	0	0	0	0	0	0	0	0	0	0	0	0	0	0	0
081319	13:52:42	14:00:04	441965	5.0.10.0	5_exp_noRW	98	Rpleas_acq	CS_A	ZHHZ	JQQJ	DXXD	LWWL	YFFY	CPPC	träumen	genießen	küssen	vertrauen	sonnig	gütig	töten	gemein	krank	versagen	sterben	gierig	53pct	acq_USpleas_CSpleas1_noRW	acq23456_noRW	2	58	0	0	300	300	561	50	0	1	1	blank2r.bmp	0	1	+	0	1	blank2r.bmp	252	1	ZHHZ	306	2	genießen	559	0	0	0	0	0	0	0	0	0	0	0	0	0	0	0	0	0	0	0	0	0	0	0	0	0	0	0	0	0	0	0	0	0	0	0	0	0	0	0
081319	13:52:42	14:00:06	443697	5.0.10.0	5_exp_noRW	98	Rpleas_acq	CS_A	ZHHZ	JQQJ	DXXD	LWWL	YFFY	CPPC	träumen	genießen	küssen	vertrauen	sonnig	gütig	töten	gemein	krank	versagen	sterben	gierig	53pct	acq_USunple_CSunple2_noRW	acq23456_noRW	2	59	0	0	300	300	558	46	0	1	1	blank2r.bmp	0	1	+	0	1	blank2r.bmp	252	1	LWWL	306	3	gierig	559	0	0	0	0	0	0	0	0	0	0	0	0	0	0	0	0	0	0	0	0	0	0	0	0	0	0	0	0	0	0	0	0	0	0	0	0	0	0	0
081319	13:52:42	14:00:08	445910	5.0.10.0	5_exp_noRW	98	Rpleas_acq	CS_A	ZHHZ	JQQJ	DXXD	LWWL	YFFY	CPPC	träumen	genießen	küssen	vertrauen	sonnig	gütig	töten	gemein	krank	versagen	sterben	gierig	53pct	acq_USpleas_CSpleas2_noRW	acq23456_noRW	2	60	0	0	300	300	1032	50	0	1	1	blank2r.bmp	0	1	+	0	1	blank2r.bmp	252	1	JQQJ	306	1	vertrauen	559	0	0	0	0	0	0	0	0	0	0	0	0	0	0	0	0	0	0	0	0	0	0	0	0	0	0	0	0	0	0	0	0	0	0	0	0	0	0	0
081319	13:52:42	14:00:10	447696	5.0.10.0	5_exp_noRW	98	Rpleas_acq	CS_A	ZHHZ	JQQJ	DXXD	LWWL	YFFY	CPPC	träumen	genießen	küssen	vertrauen	sonnig	gütig	töten	gemein	krank	versagen	sterben	gierig	53pct	acq_USunple_CSunple1_noRW	acq23456_noRW	2	61	0	0	300	300	600	46	0	1	1	blank2r.bmp	0	1	+	0	1	blank2r.bmp	252	1	DXXD	306	2	gemein	559	0	0	0	0	0	0	0	0	0	0	0	0	0	0	0	0	0	0	0	0	0	0	0	0	0	0	0	0	0	0	0	0	0	0	0	0	0	0	0
081319	13:52:42	14:00:12	449402	5.0.10.0	5_exp_noRW	98	Rpleas_acq	CS_A	ZHHZ	JQQJ	DXXD	LWWL	YFFY	CPPC	träumen	genießen	küssen	vertrauen	sonnig	gütig	töten	gemein	krank	versagen	sterben	gierig	47pct	acq_USunple_CSpleas1_noRW	acq23456_noRW	2	62	0	0	300	300	539	46	0	1	1	blank2r.bmp	0	1	+	0	1	blank2r.bmp	252	1	ZHHZ	306	2	gemein	559	0	0	0	0	0	0	0	0	0	0	0	0	0	0	0	0	0	0	0	0	0	0	0	0	0	0	0	0	0	0	0	0	0	0	0	0	0	0	0
081319	13:52:42	14:00:13	451054	5.0.10.0	5_exp_noRW	98	Rpleas_acq	CS_A	ZHHZ	JQQJ	DXXD	LWWL	YFFY	CPPC	träumen	genießen	küssen	vertrauen	sonnig	gütig	töten	gemein	krank	versagen	sterben	gierig	47pct	acq_USunple_CSpleas2_noRW	acq23456_noRW	2	63	0	0	300	300	472	46	0	1	1	blank2r.bmp	0	1	+	0	1	blank2r.bmp	252	1	JQQJ	306	2	sterben	559	0	0	0	0	0	0	0	0	0	0	0	0	0	0	0	0	0	0	0	0	0	0	0	0	0	0	0	0	0	0	0	0	0	0	0	0	0	0	0
081319	13:52:42	14:00:15	452840	5.0.10.0	5_exp_noRW	98	Rpleas_acq	CS_A	ZHHZ	JQQJ	DXXD	LWWL	YFFY	CPPC	träumen	genießen	küssen	vertrauen	sonnig	gütig	töten	gemein	krank	versagen	sterben	gierig	53pct	acq_USpleas_CSpleas1_noRW	acq23456_noRW	2	64	0	0	300	300	605	50	0	1	1	blank2r.bmp	0	1	+	0	1	blank2r.bmp	252	1	ZHHZ	306	3	küssen	559	0	0	0	0	0	0	0	0	0	0	0	0	0	0	0	0	0	0	0	0	0	0	0	0	0	0	0	0	0	0	0	0	0	0	0	0	0	0	0
081319	13:52:42	14:00:17	454493	5.0.10.0	5_exp_noRW	98	Rpleas_acq	CS_A	ZHHZ	JQQJ	DXXD	LWWL	YFFY	CPPC	träumen	genießen	küssen	vertrauen	sonnig	gütig	töten	gemein	krank	versagen	sterben	gierig	53pct	acq_USunple_CSunple1_noRW	acq23456_noRW	2	65	0	0	300	300	476	46	0	1	1	blank2r.bmp	0	1	+	0	1	blank2r.bmp	252	1	DXXD	306	1	töten	559	0	0	0	0	0	0	0	0	0	0	0	0	0	0	0	0	0	0	0	0	0	0	0	0	0	0	0	0	0	0	0	0	0	0	0	0	0	0	0
081319	13:52:42	14:00:19	456505	5.0.10.0	5_exp_noRW	98	Rpleas_acq	CS_A	ZHHZ	JQQJ	DXXD	LWWL	YFFY	CPPC	träumen	genießen	küssen	vertrauen	sonnig	gütig	töten	gemein	krank	versagen	sterben	gierig	47pct	acq_USunple_CSunple2_noRW	acq23456_noRW	2	66	0	0	300	300	827	46	0	1	1	blank2r.bmp	0	1	+	0	1	blank2r.bmp	252	1	LWWL	306	1	versagen	559	0	0	0	0	0	0	0	0	0	0	0	0	0	0	0	0	0	0	0	0	0	0	0	0	0	0	0	0	0	0	0	0	0	0	0	0	0	0	0
081319	13:52:42	14:00:21	458411	5.0.10.0	5_exp_noRW	98	Rpleas_acq	CS_A	ZHHZ	JQQJ	DXXD	LWWL	YFFY	CPPC	träumen	genießen	küssen	vertrauen	sonnig	gütig	töten	gemein	krank	versagen	sterben	gierig	53pct	acq_USpleas_CSunple2_noRW	acq23456_noRW	2	67	0	0	300	300	724	50	0	1	1	blank2r.bmp	0	1	+	0	1	blank2r.bmp	252	1	LWWL	306	3	gütig	559	0	0	0	0	0	0	0	0	0	0	0	0	0	0	0	0	0	0	0	0	0	0	0	0	0	0	0	0	0	0	0	0	0	0	0	0	0	0	0
081319	13:52:42	14:00:22	460051	5.0.10.0	5_exp_noRW	98	Rpleas_acq	CS_A	ZHHZ	JQQJ	DXXD	LWWL	YFFY	CPPC	träumen	genießen	küssen	vertrauen	sonnig	gütig	töten	gemein	krank	versagen	sterben	gierig	53pct	acq_USpleas_CSpleas2_noRW	acq23456_noRW	2	68	0	0	300	300	475	50	0	1	1	blank2r.bmp	0	1	+	0	1	blank2r.bmp	252	1	JQQJ	306	2	sonnig	559	0	0	0	0	0	0	0	0	0	0	0	0	0	0	0	0	0	0	0	0	0	0	0	0	0	0	0	0	0	0	0	0	0	0	0	0	0	0	0
081319	13:52:42	14:00:24	461770	5.0.10.0	5_exp_noRW	98	Rpleas_acq	CS_A	ZHHZ	JQQJ	DXXD	LWWL	YFFY	CPPC	träumen	genießen	küssen	vertrauen	sonnig	gütig	töten	gemein	krank	versagen	sterben	gierig	53pct	acq_USunple_CSunple2_noRW	acq23456_noRW	2	69	0	0	300	300	545	46	0	1	1	blank2r.bmp	0	1	+	0	1	blank2r.bmp	252	1	LWWL	306	2	sterben	559	0	0	0	0	0	0	0	0	0	0	0	0	0	0	0	0	0	0	0	0	0	0	0	0	0	0	0	0	0	0	0	0	0	0	0	0	0	0	0
081319	13:52:42	14:00:26	464089	5.0.10.0	5_exp_noRW	98	Rpleas_acq	CS_A	ZHHZ	JQQJ	DXXD	LWWL	YFFY	CPPC	träumen	genießen	küssen	vertrauen	sonnig	gütig	töten	gemein	krank	versagen	sterben	gierig	53pct	acq_USpleas_CSpleas2_noRW	acq23456_noRW	2	70	0	0	300	300	1151	50	0	1	1	blank2r.bmp	0	1	+	0	1	blank2r.bmp	252	1	JQQJ	306	3	gütig	559	0	0	0	0	0	0	0	0	0	0	0	0	0	0	0	0	0	0	0	0	0	0	0	0	0	0	0	0	0	0	0	0	0	0	0	0	0	0	0
081319	13:52:42	14:00:28	465875	5.0.10.0	5_exp_noRW	98	Rpleas_acq	CS_A	ZHHZ	JQQJ	DXXD	LWWL	YFFY	CPPC	träumen	genießen	küssen	vertrauen	sonnig	gütig	töten	gemein	krank	versagen	sterben	gierig	47pct	acq_USunple_CSunple2_noRW	acq23456_noRW	2	71	0	0	300	300	615	46	0	1	1	blank2r.bmp	0	1	+	0	1	blank2r.bmp	252	1	LWWL	306	1	versagen	559	0	0	0	0	0	0	0	0	0	0	0	0	0	0	0	0	0	0	0	0	0	0	0	0	0	0	0	0	0	0	0	0	0	0	0	0	0	0	0
081319	13:52:42	14:00:30	467701	5.0.10.0	5_exp_noRW	98	Rpleas_acq	CS_A	ZHHZ	JQQJ	DXXD	LWWL	YFFY	CPPC	träumen	genießen	küssen	vertrauen	sonnig	gütig	töten	gemein	krank	versagen	sterben	gierig	53pct	acq_USunple_CSunple1_noRW	acq23456_noRW	2	72	0	0	300	300	656	46	0	1	1	blank2r.bmp	0	1	+	0	1	blank2r.bmp	252	1	DXXD	306	3	krank	559	0	0	0	0	0	0	0	0	0	0	0	0	0	0	0	0	0	0	0	0	0	0	0	0	0	0	0	0	0	0	0	0	0	0	0	0	0	0	0
081319	13:52:42	14:00:32	469327	5.0.10.0	5_exp_noRW	98	Rpleas_acq	CS_A	ZHHZ	JQQJ	DXXD	LWWL	YFFY	CPPC	träumen	genießen	küssen	vertrauen	sonnig	gütig	töten	gemein	krank	versagen	sterben	gierig	53pct	acq_USpleas_CSunple1_noRW	acq23456_noRW	2	73	0	0	300	300	458	50	0	1	1	blank2r.bmp	0	1	+	0	1	blank2r.bmp	252	1	DXXD	306	1	träumen	559	0	0	0	0	0	0	0	0	0	0	0	0	0	0	0	0	0	0	0	0	0	0	0	0	0	0	0	0	0	0	0	0	0	0	0	0	0	0	0
081319	13:52:42	14:00:33	471100	5.0.10.0	5_exp_noRW	98	Rpleas_acq	CS_A	ZHHZ	JQQJ	DXXD	LWWL	YFFY	CPPC	träumen	genießen	küssen	vertrauen	sonnig	gütig	töten	gemein	krank	versagen	sterben	gierig	47pct	acq_USpleas_CSpleas2_noRW	acq23456_noRW	2	74	0	0	300	300	597	50	0	1	1	blank2r.bmp	0	1	+	0	1	blank2r.bmp	252	1	JQQJ	306	1	vertrauen	559	0	0	0	0	0	0	0	0	0	0	0	0	0	0	0	0	0	0	0	0	0	0	0	0	0	0	0	0	0	0	0	0	0	0	0	0	0	0	0
081319	13:52:42	14:00:35	472699	5.0.10.0	5_exp_noRW	98	Rpleas_acq	CS_A	ZHHZ	JQQJ	DXXD	LWWL	YFFY	CPPC	träumen	genießen	küssen	vertrauen	sonnig	gütig	töten	gemein	krank	versagen	sterben	gierig	53pct	acq_USunple_CSunple1_noRW	acq23456_noRW	2	75	0	0	300	300	413	46	0	1	1	blank2r.bmp	0	1	+	0	1	blank2r.bmp	252	1	DXXD	306	1	töten	559	0	0	0	0	0	0	0	0	0	0	0	0	0	0	0	0	0	0	0	0	0	0	0	0	0	0	0	0	0	0	0	0	0	0	0	0	0	0	0
081319	13:52:42	14:00:38	475311	5.0.10.0	5_exp_noRW	98	Rpleas_acq	CS_A	ZHHZ	JQQJ	DXXD	LWWL	YFFY	CPPC	träumen	genießen	küssen	vertrauen	sonnig	gütig	töten	gemein	krank	versagen	sterben	gierig	47pct	acq_USunple_CSunple2_noRW	acq23456_noRW	2	76	0	0	300	300	1431	46	0	1	1	blank2r.bmp	0	1	+	0	1	blank2r.bmp	252	1	LWWL	306	3	gierig	559	0	0	0	0	0	0	0	0	0	0	0	0	0	0	0	0	0	0	0	0	0	0	0	0	0	0	0	0	0	0	0	0	0	0	0	0	0	0	0
081319	13:52:42	14:00:39	477044	5.0.10.0	5_exp_noRW	98	Rpleas_acq	CS_A	ZHHZ	JQQJ	DXXD	LWWL	YFFY	CPPC	träumen	genießen	küssen	vertrauen	sonnig	gütig	töten	gemein	krank	versagen	sterben	gierig	47pct	acq_USpleas_CSpleas2_noRW	acq23456_noRW	2	77	0	0	300	300	569	50	0	1	1	blank2r.bmp	0	1	+	0	1	blank2r.bmp	252	1	JQQJ	306	3	gütig	559	0	0	0	0	0	0	0	0	0	0	0	0	0	0	0	0	0	0	0	0	0	0	0	0	0	0	0	0	0	0	0	0	0	0	0	0	0	0	0
081319	13:52:42	14:00:41	478763	5.0.10.0	5_exp_noRW	98	Rpleas_acq	CS_A	ZHHZ	JQQJ	DXXD	LWWL	YFFY	CPPC	träumen	genießen	küssen	vertrauen	sonnig	gütig	töten	gemein	krank	versagen	sterben	gierig	53pct	acq_USpleas_CSpleas1_noRW	acq23456_noRW	2	78	0	0	300	300	533	50	0	1	1	blank2r.bmp	0	1	+	0	1	blank2r.bmp	252	1	ZHHZ	306	1	träumen	559	0	0	0	0	0	0	0	0	0	0	0	0	0	0	0	0	0	0	0	0	0	0	0	0	0	0	0	0	0	0	0	0	0	0	0	0	0	0	0
081319	13:52:42	14:00:43	480469	5.0.10.0	5_exp_noRW	98	Rpleas_acq	CS_A	ZHHZ	JQQJ	DXXD	LWWL	YFFY	CPPC	träumen	genießen	küssen	vertrauen	sonnig	gütig	töten	gemein	krank	versagen	sterben	gierig	47pct	acq_USpleas_CSpleas1_noRW	acq23456_noRW	2	79	0	0	300	300	542	50	0	1	1	blank2r.bmp	0	1	+	0	1	blank2r.bmp	252	1	ZHHZ	306	2	genießen	559	0	0	0	0	0	0	0	0	0	0	0	0	0	0	0	0	0	0	0	0	0	0	0	0	0	0	0	0	0	0	0	0	0	0	0	0	0	0	0
081319	13:52:42	14:00:44	482122	5.0.10.0	5_exp_noRW	98	Rpleas_acq	CS_A	ZHHZ	JQQJ	DXXD	LWWL	YFFY	CPPC	träumen	genießen	küssen	vertrauen	sonnig	gütig	töten	gemein	krank	versagen	sterben	gierig	53pct	acq_USpleas_CSpleas1_noRW	acq23456_noRW	2	80	0	0	300	300	489	50	0	1	1	blank2r.bmp	0	1	+	0	1	blank2r.bmp	252	1	ZHHZ	306	3	küssen	559	0	0	0	0	0	0	0	0	0	0	0	0	0	0	0	0	0	0	0	0	0	0	0	0	0	0	0	0	0	0	0	0	0	0	0	0	0	0	0
081319	13:52:42	14:00:56	493557	5.0.10.0	5_exp_noRW	98	Rpleas_acq	CS_A	ZHHZ	JQQJ	DXXD	LWWL	YFFY	CPPC	träumen	genießen	küssen	vertrauen	sonnig	gütig	töten	gemein	krank	versagen	sterben	gierig	47pct	acq_USpleas_CSpleas2_noRW	acq23456_noRW	3	1	0	0	300	300	668	50	0	1	1	blank2r.bmp	0	1	+	0	1	blank2r.bmp	252	1	JQQJ	306	2	sonnig	559	0	0	0	0	0	0	0	0	0	0	0	0	0	0	0	0	0	0	0	0	0	0	0	0	0	0	0	0	0	0	0	0	0	0	0	0	0	0	0
081319	13:52:42	14:00:58	495370	5.0.10.0	5_exp_noRW	98	Rpleas_acq	CS_A	ZHHZ	JQQJ	DXXD	LWWL	YFFY	CPPC	träumen	genießen	küssen	vertrauen	sonnig	gütig	töten	gemein	krank	versagen	sterben	gierig	47pct	acq_USpleas_CSpleas2_noRW	acq23456_noRW	3	2	0	0	300	300	626	50	0	1	1	blank2r.bmp	0	1	+	0	1	blank2r.bmp	252	1	JQQJ	306	3	gütig	559	0	0	0	0	0	0	0	0	0	0	0	0	0	0	0	0	0	0	0	0	0	0	0	0	0	0	0	0	0	0	0	0	0	0	0	0	0	0	0
081319	13:52:42	14:01:00	497155	5.0.10.0	5_exp_noRW	98	Rpleas_acq	CS_A	ZHHZ	JQQJ	DXXD	LWWL	YFFY	CPPC	träumen	genießen	küssen	vertrauen	sonnig	gütig	töten	gemein	krank	versagen	sterben	gierig	47pct	acq_USunple_CSunple1_noRW	acq23456_noRW	3	3	0	0	300	300	616	46	0	1	1	blank2r.bmp	0	1	+	0	1	blank2r.bmp	252	1	DXXD	306	2	gemein	559	0	0	0	0	0	0	0	0	0	0	0	0	0	0	0	0	0	0	0	0	0	0	0	0	0	0	0	0	0	0	0	0	0	0	0	0	0	0	0
081319	13:52:42	14:01:01	498968	5.0.10.0	5_exp_noRW	98	Rpleas_acq	CS_A	ZHHZ	JQQJ	DXXD	LWWL	YFFY	CPPC	träumen	genießen	küssen	vertrauen	sonnig	gütig	töten	gemein	krank	versagen	sterben	gierig	53pct	acq_USpleas_CSpleas2_noRW	acq23456_noRW	3	4	0	0	300	300	625	50	0	1	1	blank2r.bmp	0	1	+	0	1	blank2r.bmp	252	1	JQQJ	306	1	vertrauen	559	0	0	0	0	0	0	0	0	0	0	0	0	0	0	0	0	0	0	0	0	0	0	0	0	0	0	0	0	0	0	0	0	0	0	0	0	0	0	0
081319	13:52:42	14:01:03	500674	5.0.10.0	5_exp_noRW	98	Rpleas_acq	CS_A	ZHHZ	JQQJ	DXXD	LWWL	YFFY	CPPC	träumen	genießen	küssen	vertrauen	sonnig	gütig	töten	gemein	krank	versagen	sterben	gierig	47pct	acq_USunple_CSunple2_noRW	acq23456_noRW	3	5	0	0	300	300	547	46	0	1	1	blank2r.bmp	0	1	+	0	1	blank2r.bmp	252	1	LWWL	306	2	sterben	559	0	0	0	0	0	0	0	0	0	0	0	0	0	0	0	0	0	0	0	0	0	0	0	0	0	0	0	0	0	0	0	0	0	0	0	0	0	0	0
081319	13:52:42	14:01:05	502513	5.0.10.0	5_exp_noRW	98	Rpleas_acq	CS_A	ZHHZ	JQQJ	DXXD	LWWL	YFFY	CPPC	träumen	genießen	küssen	vertrauen	sonnig	gütig	töten	gemein	krank	versagen	sterben	gierig	53pct	acq_USunple_CSunple2_noRW	acq23456_noRW	3	6	0	0	300	300	677	46	0	1	1	blank2r.bmp	0	1	+	0	1	blank2r.bmp	252	1	LWWL	306	1	versagen	559	0	0	0	0	0	0	0	0	0	0	0	0	0	0	0	0	0	0	0	0	0	0	0	0	0	0	0	0	0	0	0	0	0	0	0	0	0	0	0
081319	13:52:42	14:01:07	504193	5.0.10.0	5_exp_noRW	98	Rpleas_acq	CS_A	ZHHZ	JQQJ	DXXD	LWWL	YFFY	CPPC	träumen	genießen	küssen	vertrauen	sonnig	gütig	töten	gemein	krank	versagen	sterben	gierig	53pct	acq_USpleas_CSunple1_noRW	acq23456_noRW	3	7	0	0	300	300	491	50	0	1	1	blank2r.bmp	0	1	+	0	1	blank2r.bmp	252	1	DXXD	306	2	genießen	559	0	0	0	0	0	0	0	0	0	0	0	0	0	0	0	0	0	0	0	0	0	0	0	0	0	0	0	0	0	0	0	0	0	0	0	0	0	0	0
081319	13:52:42	14:01:08	505899	5.0.10.0	5_exp_noRW	98	Rpleas_acq	CS_A	ZHHZ	JQQJ	DXXD	LWWL	YFFY	CPPC	träumen	genießen	küssen	vertrauen	sonnig	gütig	töten	gemein	krank	versagen	sterben	gierig	47pct	acq_USpleas_CSpleas1_noRW	acq23456_noRW	3	8	0	0	300	300	523	50	0	1	1	blank2r.bmp	0	1	+	0	1	blank2r.bmp	252	1	ZHHZ	306	1	träumen	559	0	0	0	0	0	0	0	0	0	0	0	0	0	0	0	0	0	0	0	0	0	0	0	0	0	0	0	0	0	0	0	0	0	0	0	0	0	0	0
081319	13:52:42	14:01:10	507645	5.0.10.0	5_exp_noRW	98	Rpleas_acq	CS_A	ZHHZ	JQQJ	DXXD	LWWL	YFFY	CPPC	träumen	genießen	küssen	vertrauen	sonnig	gütig	töten	gemein	krank	versagen	sterben	gierig	47pct	acq_USpleas_CSpleas1_noRW	acq23456_noRW	3	9	0	0	300	300	578	50	0	1	1	blank2r.bmp	0	1	+	0	1	blank2r.bmp	252	1	ZHHZ	306	2	genießen	559	0	0	0	0	0	0	0	0	0	0	0	0	0	0	0	0	0	0	0	0	0	0	0	0	0	0	0	0	0	0	0	0	0	0	0	0	0	0	0
081319	13:52:42	14:01:12	509257	5.0.10.0	5_exp_noRW	98	Rpleas_acq	CS_A	ZHHZ	JQQJ	DXXD	LWWL	YFFY	CPPC	träumen	genießen	küssen	vertrauen	sonnig	gütig	töten	gemein	krank	versagen	sterben	gierig	53pct	acq_USunple_CSpleas1_noRW	acq23456_noRW	3	10	0	0	300	300	438	46	0	1	1	blank2r.bmp	0	1	+	0	1	blank2r.bmp	252	1	ZHHZ	306	1	töten	559	0	0	0	0	0	0	0	0	0	0	0	0	0	0	0	0	0	0	0	0	0	0	0	0	0	0	0	0	0	0	0	0	0	0	0	0	0	0	0
081319	13:52:42	14:01:13	511136	5.0.10.0	5_exp_noRW	98	Rpleas_acq	CS_A	ZHHZ	JQQJ	DXXD	LWWL	YFFY	CPPC	träumen	genießen	küssen	vertrauen	sonnig	gütig	töten	gemein	krank	versagen	sterben	gierig	53pct	acq_USunple_CSunple2_noRW	acq23456_noRW	3	11	0	0	300	300	706	46	0	1	1	blank2r.bmp	0	1	+	0	1	blank2r.bmp	252	1	LWWL	306	3	gierig	559	0	0	0	0	0	0	0	0	0	0	0	0	0	0	0	0	0	0	0	0	0	0	0	0	0	0	0	0	0	0	0	0	0	0	0	0	0	0	0
081319	13:52:42	14:01:15	512802	5.0.10.0	5_exp_noRW	98	Rpleas_acq	CS_A	ZHHZ	JQQJ	DXXD	LWWL	YFFY	CPPC	träumen	genießen	küssen	vertrauen	sonnig	gütig	töten	gemein	krank	versagen	sterben	gierig	53pct	acq_USpleas_CSpleas2_noRW	acq23456_noRW	3	12	0	0	300	300	488	50	0	1	1	blank2r.bmp	0	1	+	0	1	blank2r.bmp	252	1	JQQJ	306	2	sonnig	559	0	0	0	0	0	0	0	0	0	0	0	0	0	0	0	0	0	0	0	0	0	0	0	0	0	0	0	0	0	0	0	0	0	0	0	0	0	0	0
081319	13:52:42	14:01:17	514575	5.0.10.0	5_exp_noRW	98	Rpleas_acq	CS_A	ZHHZ	JQQJ	DXXD	LWWL	YFFY	CPPC	träumen	genießen	küssen	vertrauen	sonnig	gütig	töten	gemein	krank	versagen	sterben	gierig	47pct	acq_USpleas_CSunple2_noRW	acq23456_noRW	3	13	0	0	300	300	590	50	0	1	1	blank2r.bmp	0	1	+	0	1	blank2r.bmp	252	1	LWWL	306	2	sonnig	559	0	0	0	0	0	0	0	0	0	0	0	0	0	0	0	0	0	0	0	0	0	0	0	0	0	0	0	0	0	0	0	0	0	0	0	0	0	0	0
081319	13:52:42	14:01:19	516148	5.0.10.0	5_exp_noRW	98	Rpleas_acq	CS_A	ZHHZ	JQQJ	DXXD	LWWL	YFFY	CPPC	träumen	genießen	küssen	vertrauen	sonnig	gütig	töten	gemein	krank	versagen	sterben	gierig	53pct	acq_USunple_CSunple1_noRW	acq23456_noRW	3	14	0	0	300	300	410	46	0	1	1	blank2r.bmp	0	1	+	0	1	blank2r.bmp	252	1	DXXD	306	1	töten	559	0	0	0	0	0	0	0	0	0	0	0	0	0	0	0	0	0	0	0	0	0	0	0	0	0	0	0	0	0	0	0	0	0	0	0	0	0	0	0
081319	13:52:42	14:01:20	518080	5.0.10.0	5_exp_noRW	98	Rpleas_acq	CS_A	ZHHZ	JQQJ	DXXD	LWWL	YFFY	CPPC	träumen	genießen	küssen	vertrauen	sonnig	gütig	töten	gemein	krank	versagen	sterben	gierig	47pct	acq_USunple_CSunple1_noRW	acq23456_noRW	3	15	0	0	300	300	765	46	0	1	1	blank2r.bmp	0	1	+	0	1	blank2r.bmp	252	1	DXXD	306	2	gemein	559	0	0	0	0	0	0	0	0	0	0	0	0	0	0	0	0	0	0	0	0	0	0	0	0	0	0	0	0	0	0	0	0	0	0	0	0	0	0	0
081319	13:52:42	14:01:22	519760	5.0.10.0	5_exp_noRW	98	Rpleas_acq	CS_A	ZHHZ	JQQJ	DXXD	LWWL	YFFY	CPPC	träumen	genießen	küssen	vertrauen	sonnig	gütig	töten	gemein	krank	versagen	sterben	gierig	47pct	acq_USunple_CSpleas2_noRW	acq23456_noRW	3	16	0	0	300	300	505	46	0	1	1	blank2r.bmp	0	1	+	0	1	blank2r.bmp	252	1	JQQJ	306	3	gierig	559	0	0	0	0	0	0	0	0	0	0	0	0	0	0	0	0	0	0	0	0	0	0	0	0	0	0	0	0	0	0	0	0	0	0	0	0	0	0	0
081319	13:52:42	14:01:24	521492	5.0.10.0	5_exp_noRW	98	Rpleas_acq	CS_A	ZHHZ	JQQJ	DXXD	LWWL	YFFY	CPPC	träumen	genießen	küssen	vertrauen	sonnig	gütig	töten	gemein	krank	versagen	sterben	gierig	53pct	acq_USunple_CSunple2_noRW	acq23456_noRW	3	17	0	0	300	300	567	46	0	1	1	blank2r.bmp	0	1	+	0	1	blank2r.bmp	252	1	LWWL	306	2	sterben	559	0	0	0	0	0	0	0	0	0	0	0	0	0	0	0	0	0	0	0	0	0	0	0	0	0	0	0	0	0	0	0	0	0	0	0	0	0	0	0
081319	13:52:42	14:01:26	523665	5.0.10.0	5_exp_noRW	98	Rpleas_acq	CS_A	ZHHZ	JQQJ	DXXD	LWWL	YFFY	CPPC	träumen	genießen	küssen	vertrauen	sonnig	gütig	töten	gemein	krank	versagen	sterben	gierig	53pct	acq_USunple_CSunple1_noRW	acq23456_noRW	3	18	0	0	300	300	783	50	0	0	1	blank2r.bmp	0	1	+	0	1	blank2r.bmp	252	1	DXXD	306	3	krank	559	1	FEHLER	1372	0	0	0	0	0	0	0	0	0	0	0	0	0	0	0	0	0	0	0	0	0	0	0	0	0	0	0	0	0	0	0	0	0	0	0	0
081319	13:52:42	14:01:28	525304	5.0.10.0	5_exp_noRW	98	Rpleas_acq	CS_A	ZHHZ	JQQJ	DXXD	LWWL	YFFY	CPPC	träumen	genießen	küssen	vertrauen	sonnig	gütig	töten	gemein	krank	versagen	sterben	gierig	47pct	acq_USpleas_CSpleas1_noRW	acq23456_noRW	3	19	0	0	300	300	673	50	0	1	1	blank2r.bmp	0	1	+	0	1	blank2r.bmp	252	1	ZHHZ	306	1	träumen	559	0	0	0	0	0	0	0	0	0	0	0	0	0	0	0	0	0	0	0	0	0	0	0	0	0	0	0	0	0	0	0	0	0	0	0	0	0	0	0
081319	13:52:42	14:01:29	526970	5.0.10.0	5_exp_noRW	98	Rpleas_acq	CS_A	ZHHZ	JQQJ	DXXD	LWWL	YFFY	CPPC	träumen	genießen	küssen	vertrauen	sonnig	gütig	töten	gemein	krank	versagen	sterben	gierig	47pct	acq_USpleas_CSpleas1_noRW	acq23456_noRW	3	20	0	0	300	300	500	50	0	1	1	blank2r.bmp	0	1	+	0	1	blank2r.bmp	252	1	ZHHZ	306	3	küssen	559	0	0	0	0	0	0	0	0	0	0	0	0	0	0	0	0	0	0	0	0	0	0	0	0	0	0	0	0	0	0	0	0	0	0	0	0	0	0	0
081319	13:52:42	14:01:31	528809	5.0.10.0	5_exp_noRW	98	Rpleas_acq	CS_A	ZHHZ	JQQJ	DXXD	LWWL	YFFY	CPPC	träumen	genießen	küssen	vertrauen	sonnig	gütig	töten	gemein	krank	versagen	sterben	gierig	53pct	acq_USpleas_CSpleas1_noRW	acq23456_noRW	3	21	0	0	300	300	444	46	0	0	1	blank2r.bmp	0	1	+	0	1	blank2r.bmp	252	1	ZHHZ	306	2	genießen	559	1	FEHLER	1039	0	0	0	0	0	0	0	0	0	0	0	0	0	0	0	0	0	0	0	0	0	0	0	0	0	0	0	0	0	0	0	0	0	0	0	0
081319	13:52:42	14:01:33	530528	5.0.10.0	5_exp_noRW	98	Rpleas_acq	CS_A	ZHHZ	JQQJ	DXXD	LWWL	YFFY	CPPC	träumen	genießen	küssen	vertrauen	sonnig	gütig	töten	gemein	krank	versagen	sterben	gierig	53pct	acq_USpleas_CSpleas1_noRW	acq23456_noRW	3	22	0	0	300	300	760	50	0	1	1	blank2r.bmp	0	1	+	0	1	blank2r.bmp	252	1	ZHHZ	306	3	küssen	559	0	0	0	0	0	0	0	0	0	0	0	0	0	0	0	0	0	0	0	0	0	0	0	0	0	0	0	0	0	0	0	0	0	0	0	0	0	0	0
081319	13:52:42	14:01:35	532208	5.0.10.0	5_exp_noRW	98	Rpleas_acq	CS_A	ZHHZ	JQQJ	DXXD	LWWL	YFFY	CPPC	träumen	genießen	küssen	vertrauen	sonnig	gütig	töten	gemein	krank	versagen	sterben	gierig	47pct	acq_USunple_CSunple1_noRW	acq23456_noRW	3	23	0	0	300	300	497	46	0	1	1	blank2r.bmp	0	1	+	0	1	blank2r.bmp	252	1	DXXD	306	3	krank	559	0	0	0	0	0	0	0	0	0	0	0	0	0	0	0	0	0	0	0	0	0	0	0	0	0	0	0	0	0	0	0	0	0	0	0	0	0	0	0
081319	13:52:42	14:01:36	533887	5.0.10.0	5_exp_noRW	98	Rpleas_acq	CS_A	ZHHZ	JQQJ	DXXD	LWWL	YFFY	CPPC	träumen	genießen	küssen	vertrauen	sonnig	gütig	töten	gemein	krank	versagen	sterben	gierig	53pct	acq_USunple_CSunple2_noRW	acq23456_noRW	3	24	0	0	300	300	504	46	0	1	1	blank2r.bmp	0	1	+	0	1	blank2r.bmp	252	1	LWWL	306	1	versagen	559	0	0	0	0	0	0	0	0	0	0	0	0	0	0	0	0	0	0	0	0	0	0	0	0	0	0	0	0	0	0	0	0	0	0	0	0	0	0	0
081319	13:52:42	14:01:38	535553	5.0.10.0	5_exp_noRW	98	Rpleas_acq	CS_A	ZHHZ	JQQJ	DXXD	LWWL	YFFY	CPPC	träumen	genießen	küssen	vertrauen	sonnig	gütig	töten	gemein	krank	versagen	sterben	gierig	53pct	acq_USunple_CSpleas1_noRW	acq23456_noRW	3	25	0	0	300	300	478	46	0	1	1	blank2r.bmp	0	1	+	0	1	blank2r.bmp	252	1	ZHHZ	306	3	krank	559	0	0	0	0	0	0	0	0	0	0	0	0	0	0	0	0	0	0	0	0	0	0	0	0	0	0	0	0	0	0	0	0	0	0	0	0	0	0	0
081319	13:52:42	14:01:40	537152	5.0.10.0	5_exp_noRW	98	Rpleas_acq	CS_A	ZHHZ	JQQJ	DXXD	LWWL	YFFY	CPPC	träumen	genießen	küssen	vertrauen	sonnig	gütig	töten	gemein	krank	versagen	sterben	gierig	47pct	acq_USunple_CSunple1_noRW	acq23456_noRW	3	26	0	0	300	300	438	46	0	1	1	blank2r.bmp	0	1	+	0	1	blank2r.bmp	252	1	DXXD	306	2	gemein	559	0	0	0	0	0	0	0	0	0	0	0	0	0	0	0	0	0	0	0	0	0	0	0	0	0	0	0	0	0	0	0	0	0	0	0	0	0	0	0
081319	13:52:42	14:01:41	538912	5.0.10.0	5_exp_noRW	98	Rpleas_acq	CS_A	ZHHZ	JQQJ	DXXD	LWWL	YFFY	CPPC	träumen	genießen	küssen	vertrauen	sonnig	gütig	töten	gemein	krank	versagen	sterben	gierig	53pct	acq_USunple_CSunple2_noRW	acq23456_noRW	3	27	0	0	300	300	572	46	0	1	1	blank2r.bmp	0	1	+	0	1	blank2r.bmp	252	1	LWWL	306	3	gierig	559	0	0	0	0	0	0	0	0	0	0	0	0	0	0	0	0	0	0	0	0	0	0	0	0	0	0	0	0	0	0	0	0	0	0	0	0	0	0	0
081319	13:52:42	14:01:43	540498	5.0.10.0	5_exp_noRW	98	Rpleas_acq	CS_A	ZHHZ	JQQJ	DXXD	LWWL	YFFY	CPPC	träumen	genießen	küssen	vertrauen	sonnig	gütig	töten	gemein	krank	versagen	sterben	gierig	53pct	acq_USpleas_CSpleas2_noRW	acq23456_noRW	3	28	0	0	300	300	422	50	0	1	1	blank2r.bmp	0	1	+	0	1	blank2r.bmp	252	1	JQQJ	306	3	gütig	559	0	0	0	0	0	0	0	0	0	0	0	0	0	0	0	0	0	0	0	0	0	0	0	0	0	0	0	0	0	0	0	0	0	0	0	0	0	0	0
081319	13:52:42	14:01:45	542177	5.0.10.0	5_exp_noRW	98	Rpleas_acq	CS_A	ZHHZ	JQQJ	DXXD	LWWL	YFFY	CPPC	träumen	genießen	küssen	vertrauen	sonnig	gütig	töten	gemein	krank	versagen	sterben	gierig	53pct	acq_USpleas_CSunple1_noRW	acq23456_noRW	3	29	0	0	300	300	509	50	0	1	1	blank2r.bmp	0	1	+	0	1	blank2r.bmp	252	1	DXXD	306	3	küssen	559	0	0	0	0	0	0	0	0	0	0	0	0	0	0	0	0	0	0	0	0	0	0	0	0	0	0	0	0	0	0	0	0	0	0	0	0	0	0	0
081319	13:52:42	14:01:46	544110	5.0.10.0	5_exp_noRW	98	Rpleas_acq	CS_A	ZHHZ	JQQJ	DXXD	LWWL	YFFY	CPPC	träumen	genießen	küssen	vertrauen	sonnig	gütig	töten	gemein	krank	versagen	sterben	gierig	47pct	acq_USpleas_CSpleas1_noRW	acq23456_noRW	3	30	0	0	300	300	755	50	0	1	1	blank2r.bmp	0	1	+	0	1	blank2r.bmp	252	1	ZHHZ	306	1	träumen	559	0	0	0	0	0	0	0	0	0	0	0	0	0	0	0	0	0	0	0	0	0	0	0	0	0	0	0	0	0	0	0	0	0	0	0	0	0	0	0
081319	13:52:42	14:01:48	545869	5.0.10.0	5_exp_noRW	98	Rpleas_acq	CS_A	ZHHZ	JQQJ	DXXD	LWWL	YFFY	CPPC	träumen	genießen	küssen	vertrauen	sonnig	gütig	töten	gemein	krank	versagen	sterben	gierig	47pct	acq_USpleas_CSpleas1_noRW	acq23456_noRW	3	31	0	0	300	300	575	50	0	1	1	blank2r.bmp	0	1	+	0	1	blank2r.bmp	252	1	ZHHZ	306	2	genießen	559	0	0	0	0	0	0	0	0	0	0	0	0	0	0	0	0	0	0	0	0	0	0	0	0	0	0	0	0	0	0	0	0	0	0	0	0	0	0	0
081319	13:52:42	14:01:50	547548	5.0.10.0	5_exp_noRW	98	Rpleas_acq	CS_A	ZHHZ	JQQJ	DXXD	LWWL	YFFY	CPPC	träumen	genießen	küssen	vertrauen	sonnig	gütig	töten	gemein	krank	versagen	sterben	gierig	53pct	acq_USunple_CSunple1_noRW	acq23456_noRW	3	32	0	0	300	300	509	46	0	1	1	blank2r.bmp	0	1	+	0	1	blank2r.bmp	252	1	DXXD	306	1	töten	559	0	0	0	0	0	0	0	0	0	0	0	0	0	0	0	0	0	0	0	0	0	0	0	0	0	0	0	0	0	0	0	0	0	0	0	0	0	0	0
081319	13:52:42	14:01:52	549454	5.0.10.0	5_exp_noRW	98	Rpleas_acq	CS_A	ZHHZ	JQQJ	DXXD	LWWL	YFFY	CPPC	träumen	genießen	küssen	vertrauen	sonnig	gütig	töten	gemein	krank	versagen	sterben	gierig	53pct	acq_USunple_CSpleas2_noRW	acq23456_noRW	3	33	0	0	300	300	726	46	0	1	1	blank2r.bmp	0	1	+	0	1	blank2r.bmp	252	1	JQQJ	306	1	versagen	559	0	0	0	0	0	0	0	0	0	0	0	0	0	0	0	0	0	0	0	0	0	0	0	0	0	0	0	0	0	0	0	0	0	0	0	0	0	0	0
081319	13:52:42	14:01:54	551400	5.0.10.0	5_exp_noRW	98	Rpleas_acq	CS_A	ZHHZ	JQQJ	DXXD	LWWL	YFFY	CPPC	träumen	genießen	küssen	vertrauen	sonnig	gütig	töten	gemein	krank	versagen	sterben	gierig	47pct	acq_USpleas_CSunple2_noRW	acq23456_noRW	3	34	0	0	300	300	774	50	0	1	1	blank2r.bmp	0	1	+	0	1	blank2r.bmp	252	1	LWWL	306	3	gütig	559	0	0	0	0	0	0	0	0	0	0	0	0	0	0	0	0	0	0	0	0	0	0	0	0	0	0	0	0	0	0	0	0	0	0	0	0	0	0	0
081319	13:52:42	14:01:56	553213	5.0.10.0	5_exp_noRW	98	Rpleas_acq	CS_A	ZHHZ	JQQJ	DXXD	LWWL	YFFY	CPPC	träumen	genießen	küssen	vertrauen	sonnig	gütig	töten	gemein	krank	versagen	sterben	gierig	53pct	acq_USpleas_CSpleas2_noRW	acq23456_noRW	3	35	0	0	300	300	636	50	0	1	1	blank2r.bmp	0	1	+	0	1	blank2r.bmp	252	1	JQQJ	306	2	sonnig	559	0	0	0	0	0	0	0	0	0	0	0	0	0	0	0	0	0	0	0	0	0	0	0	0	0	0	0	0	0	0	0	0	0	0	0	0	0	0	0
081319	13:52:42	14:01:57	554892	5.0.10.0	5_exp_noRW	98	Rpleas_acq	CS_A	ZHHZ	JQQJ	DXXD	LWWL	YFFY	CPPC	träumen	genießen	küssen	vertrauen	sonnig	gütig	töten	gemein	krank	versagen	sterben	gierig	47pct	acq_USunple_CSunple2_noRW	acq23456_noRW	3	36	0	0	300	300	506	46	0	1	1	blank2r.bmp	0	1	+	0	1	blank2r.bmp	252	1	LWWL	306	2	sterben	559	0	0	0	0	0	0	0	0	0	0	0	0	0	0	0	0	0	0	0	0	0	0	0	0	0	0	0	0	0	0	0	0	0	0	0	0	0	0	0
081319	13:52:42	14:01:59	556758	5.0.10.0	5_exp_noRW	98	Rpleas_acq	CS_A	ZHHZ	JQQJ	DXXD	LWWL	YFFY	CPPC	träumen	genießen	küssen	vertrauen	sonnig	gütig	töten	gemein	krank	versagen	sterben	gierig	53pct	acq_USpleas_CSpleas2_noRW	acq23456_noRW	3	37	0	0	300	300	692	50	0	1	1	blank2r.bmp	0	1	+	0	1	blank2r.bmp	252	1	JQQJ	306	1	vertrauen	559	0	0	0	0	0	0	0	0	0	0	0	0	0	0	0	0	0	0	0	0	0	0	0	0	0	0	0	0	0	0	0	0	0	0	0	0	0	0	0
081319	13:52:42	14:02:01	558744	5.0.10.0	5_exp_noRW	98	Rpleas_acq	CS_A	ZHHZ	JQQJ	DXXD	LWWL	YFFY	CPPC	träumen	genießen	küssen	vertrauen	sonnig	gütig	töten	gemein	krank	versagen	sterben	gierig	53pct	acq_USunple_CSunple1_noRW	acq23456_noRW	3	38	0	0	300	300	814	46	0	1	1	blank2r.bmp	0	1	+	0	1	blank2r.bmp	252	1	DXXD	306	1	töten	559	0	0	0	0	0	0	0	0	0	0	0	0	0	0	0	0	0	0	0	0	0	0	0	0	0	0	0	0	0	0	0	0	0	0	0	0	0	0	0
081319	13:52:42	14:02:03	560596	5.0.10.0	5_exp_noRW	98	Rpleas_acq	CS_A	ZHHZ	JQQJ	DXXD	LWWL	YFFY	CPPC	träumen	genießen	küssen	vertrauen	sonnig	gütig	töten	gemein	krank	versagen	sterben	gierig	53pct	acq_USunple_CSunple2_noRW	acq23456_noRW	3	39	0	0	300	300	691	46	0	1	1	blank2r.bmp	0	1	+	0	1	blank2r.bmp	252	1	LWWL	306	1	versagen	559	0	0	0	0	0	0	0	0	0	0	0	0	0	0	0	0	0	0	0	0	0	0	0	0	0	0	0	0	0	0	0	0	0	0	0	0	0	0	0
081319	13:52:42	14:02:05	562529	5.0.10.0	5_exp_noRW	98	Rpleas_acq	CS_A	ZHHZ	JQQJ	DXXD	LWWL	YFFY	CPPC	träumen	genießen	küssen	vertrauen	sonnig	gütig	töten	gemein	krank	versagen	sterben	gierig	53pct	acq_USpleas_CSpleas2_noRW	acq23456_noRW	3	40	0	0	300	300	757	50	0	1	1	blank2r.bmp	0	1	+	0	1	blank2r.bmp	252	1	JQQJ	306	3	gütig	559	0	0	0	0	0	0	0	0	0	0	0	0	0	0	0	0	0	0	0	0	0	0	0	0	0	0	0	0	0	0	0	0	0	0	0	0	0	0	0
081319	13:52:42	14:02:07	564555	5.0.10.0	5_exp_noRW	98	Rpleas_acq	CS_A	ZHHZ	JQQJ	DXXD	LWWL	YFFY	CPPC	träumen	genießen	küssen	vertrauen	sonnig	gütig	töten	gemein	krank	versagen	sterben	gierig	53pct	acq_USpleas_CSunple1_noRW	acq23456_noRW	3	41	0	0	300	300	842	50	0	1	1	blank2r.bmp	0	1	+	0	1	blank2r.bmp	252	1	DXXD	306	2	genießen	559	0	0	0	0	0	0	0	0	0	0	0	0	0	0	0	0	0	0	0	0	0	0	0	0	0	0	0	0	0	0	0	0	0	0	0	0	0	0	0
081319	13:52:42	14:02:09	566314	5.0.10.0	5_exp_noRW	98	Rpleas_acq	CS_A	ZHHZ	JQQJ	DXXD	LWWL	YFFY	CPPC	träumen	genießen	küssen	vertrauen	sonnig	gütig	töten	gemein	krank	versagen	sterben	gierig	53pct	acq_USunple_CSpleas2_noRW	acq23456_noRW	3	42	0	0	300	300	594	46	0	1	1	blank2r.bmp	0	1	+	0	1	blank2r.bmp	252	1	JQQJ	306	2	sterben	559	0	0	0	0	0	0	0	0	0	0	0	0	0	0	0	0	0	0	0	0	0	0	0	0	0	0	0	0	0	0	0	0	0	0	0	0	0	0	0
081319	13:52:42	14:02:11	568140	5.0.10.0	5_exp_noRW	98	Rpleas_acq	CS_A	ZHHZ	JQQJ	DXXD	LWWL	YFFY	CPPC	träumen	genießen	küssen	vertrauen	sonnig	gütig	töten	gemein	krank	versagen	sterben	gierig	53pct	acq_USpleas_CSpleas1_noRW	acq23456_noRW	3	43	0	0	300	300	644	50	0	1	1	blank2r.bmp	0	1	+	0	1	blank2r.bmp	252	1	ZHHZ	306	1	träumen	559	0	0	0	0	0	0	0	0	0	0	0	0	0	0	0	0	0	0	0	0	0	0	0	0	0	0	0	0	0	0	0	0	0	0	0	0	0	0	0
081319	13:52:42	14:02:12	569899	5.0.10.0	5_exp_noRW	98	Rpleas_acq	CS_A	ZHHZ	JQQJ	DXXD	LWWL	YFFY	CPPC	träumen	genießen	küssen	vertrauen	sonnig	gütig	töten	gemein	krank	versagen	sterben	gierig	53pct	acq_USpleas_CSpleas2_noRW	acq23456_noRW	3	44	0	0	300	300	575	50	0	1	1	blank2r.bmp	0	1	+	0	1	blank2r.bmp	252	1	JQQJ	306	2	sonnig	559	0	0	0	0	0	0	0	0	0	0	0	0	0	0	0	0	0	0	0	0	0	0	0	0	0	0	0	0	0	0	0	0	0	0	0	0	0	0	0
081319	13:52:42	14:02:14	571912	5.0.10.0	5_exp_noRW	98	Rpleas_acq	CS_A	ZHHZ	JQQJ	DXXD	LWWL	YFFY	CPPC	träumen	genießen	küssen	vertrauen	sonnig	gütig	töten	gemein	krank	versagen	sterben	gierig	47pct	acq_USpleas_CSpleas1_noRW	acq23456_noRW	3	45	0	0	300	300	837	50	0	1	1	blank2r.bmp	0	1	+	0	1	blank2r.bmp	252	1	ZHHZ	306	3	küssen	559	0	0	0	0	0	0	0	0	0	0	0	0	0	0	0	0	0	0	0	0	0	0	0	0	0	0	0	0	0	0	0	0	0	0	0	0	0	0	0
081319	13:52:42	14:02:16	573764	5.0.10.0	5_exp_noRW	98	Rpleas_acq	CS_A	ZHHZ	JQQJ	DXXD	LWWL	YFFY	CPPC	träumen	genießen	küssen	vertrauen	sonnig	gütig	töten	gemein	krank	versagen	sterben	gierig	53pct	acq_USpleas_CSpleas1_noRW	acq23456_noRW	3	46	0	0	300	300	672	50	0	1	1	blank2r.bmp	0	1	+	0	1	blank2r.bmp	252	1	ZHHZ	306	2	genießen	559	0	0	0	0	0	0	0	0	0	0	0	0	0	0	0	0	0	0	0	0	0	0	0	0	0	0	0	0	0	0	0	0	0	0	0	0	0	0	0
081319	13:52:42	14:02:18	575590	5.0.10.0	5_exp_noRW	98	Rpleas_acq	CS_A	ZHHZ	JQQJ	DXXD	LWWL	YFFY	CPPC	träumen	genießen	küssen	vertrauen	sonnig	gütig	töten	gemein	krank	versagen	sterben	gierig	53pct	acq_USpleas_CSpleas2_noRW	acq23456_noRW	3	47	0	0	300	300	645	50	0	1	1	blank2r.bmp	0	1	+	0	1	blank2r.bmp	252	1	JQQJ	306	1	vertrauen	559	0	0	0	0	0	0	0	0	0	0	0	0	0	0	0	0	0	0	0	0	0	0	0	0	0	0	0	0	0	0	0	0	0	0	0	0	0	0	0
081319	13:52:42	14:02:20	577336	5.0.10.0	5_exp_noRW	98	Rpleas_acq	CS_A	ZHHZ	JQQJ	DXXD	LWWL	YFFY	CPPC	träumen	genießen	küssen	vertrauen	sonnig	gütig	töten	gemein	krank	versagen	sterben	gierig	47pct	acq_USpleas_CSpleas2_noRW	acq23456_noRW	3	48	0	0	300	300	563	50	0	1	1	blank2r.bmp	0	1	+	0	1	blank2r.bmp	252	1	JQQJ	306	1	vertrauen	559	0	0	0	0	0	0	0	0	0	0	0	0	0	0	0	0	0	0	0	0	0	0	0	0	0	0	0	0	0	0	0	0	0	0	0	0	0	0	0
081319	13:52:42	14:02:22	579175	5.0.10.0	5_exp_noRW	98	Rpleas_acq	CS_A	ZHHZ	JQQJ	DXXD	LWWL	YFFY	CPPC	träumen	genießen	küssen	vertrauen	sonnig	gütig	töten	gemein	krank	versagen	sterben	gierig	47pct	acq_USunple_CSunple2_noRW	acq23456_noRW	3	49	0	0	300	300	674	46	0	1	1	blank2r.bmp	0	1	+	0	1	blank2r.bmp	252	1	LWWL	306	3	gierig	559	0	0	0	0	0	0	0	0	0	0	0	0	0	0	0	0	0	0	0	0	0	0	0	0	0	0	0	0	0	0	0	0	0	0	0	0	0	0	0
081319	13:52:42	14:02:23	581068	5.0.10.0	5_exp_noRW	98	Rpleas_acq	CS_A	ZHHZ	JQQJ	DXXD	LWWL	YFFY	CPPC	träumen	genießen	küssen	vertrauen	sonnig	gütig	töten	gemein	krank	versagen	sterben	gierig	53pct	acq_USunple_CSpleas1_noRW	acq23456_noRW	3	50	0	0	300	300	717	46	0	1	1	blank2r.bmp	0	1	+	0	1	blank2r.bmp	252	1	ZHHZ	306	2	gemein	559	0	0	0	0	0	0	0	0	0	0	0	0	0	0	0	0	0	0	0	0	0	0	0	0	0	0	0	0	0	0	0	0	0	0	0	0	0	0	0
081319	13:52:42	14:02:25	582867	5.0.10.0	5_exp_noRW	98	Rpleas_acq	CS_A	ZHHZ	JQQJ	DXXD	LWWL	YFFY	CPPC	träumen	genießen	küssen	vertrauen	sonnig	gütig	töten	gemein	krank	versagen	sterben	gierig	47pct	acq_USunple_CSunple2_noRW	acq23456_noRW	3	51	0	0	300	300	616	46	0	1	1	blank2r.bmp	0	1	+	0	1	blank2r.bmp	252	1	LWWL	306	2	sterben	559	0	0	0	0	0	0	0	0	0	0	0	0	0	0	0	0	0	0	0	0	0	0	0	0	0	0	0	0	0	0	0	0	0	0	0	0	0	0	0
081319	13:52:42	14:02:27	584613	5.0.10.0	5_exp_noRW	98	Rpleas_acq	CS_A	ZHHZ	JQQJ	DXXD	LWWL	YFFY	CPPC	träumen	genießen	küssen	vertrauen	sonnig	gütig	töten	gemein	krank	versagen	sterben	gierig	53pct	acq_USunple_CSunple1_noRW	acq23456_noRW	3	52	0	0	300	300	575	46	0	1	1	blank2r.bmp	0	1	+	0	1	blank2r.bmp	252	1	DXXD	306	2	gemein	559	0	0	0	0	0	0	0	0	0	0	0	0	0	0	0	0	0	0	0	0	0	0	0	0	0	0	0	0	0	0	0	0	0	0	0	0	0	0	0
081319	13:52:42	14:02:29	586359	5.0.10.0	5_exp_noRW	98	Rpleas_acq	CS_A	ZHHZ	JQQJ	DXXD	LWWL	YFFY	CPPC	träumen	genießen	küssen	vertrauen	sonnig	gütig	töten	gemein	krank	versagen	sterben	gierig	53pct	acq_USunple_CSunple1_noRW	acq23456_noRW	3	53	0	0	300	300	563	46	0	1	1	blank2r.bmp	0	1	+	0	1	blank2r.bmp	252	1	DXXD	306	3	krank	559	0	0	0	0	0	0	0	0	0	0	0	0	0	0	0	0	0	0	0	0	0	0	0	0	0	0	0	0	0	0	0	0	0	0	0	0	0	0	0
081319	13:52:42	14:02:31	588198	5.0.10.0	5_exp_noRW	98	Rpleas_acq	CS_A	ZHHZ	JQQJ	DXXD	LWWL	YFFY	CPPC	träumen	genießen	küssen	vertrauen	sonnig	gütig	töten	gemein	krank	versagen	sterben	gierig	53pct	acq_USunple_CSunple2_noRW	acq23456_noRW	3	54	0	0	300	300	663	46	0	1	1	blank2r.bmp	0	1	+	0	1	blank2r.bmp	252	1	LWWL	306	3	gierig	559	0	0	0	0	0	0	0	0	0	0	0	0	0	0	0	0	0	0	0	0	0	0	0	0	0	0	0	0	0	0	0	0	0	0	0	0	0	0	0
081319	13:52:42	14:02:32	590011	5.0.10.0	5_exp_noRW	98	Rpleas_acq	CS_A	ZHHZ	JQQJ	DXXD	LWWL	YFFY	CPPC	träumen	genießen	küssen	vertrauen	sonnig	gütig	töten	gemein	krank	versagen	sterben	gierig	53pct	acq_USunple_CSunple1_noRW	acq23456_noRW	3	55	0	0	300	300	630	46	0	1	1	blank2r.bmp	0	1	+	0	1	blank2r.bmp	252	1	DXXD	306	2	gemein	559	0	0	0	0	0	0	0	0	0	0	0	0	0	0	0	0	0	0	0	0	0	0	0	0	0	0	0	0	0	0	0	0	0	0	0	0	0	0	0
081319	13:52:42	14:02:34	591650	5.0.10.0	5_exp_noRW	98	Rpleas_acq	CS_A	ZHHZ	JQQJ	DXXD	LWWL	YFFY	CPPC	träumen	genießen	küssen	vertrauen	sonnig	gütig	töten	gemein	krank	versagen	sterben	gierig	47pct	acq_USunple_CSunple1_noRW	acq23456_noRW	3	56	0	0	300	300	452	46	0	1	1	blank2r.bmp	0	1	+	0	1	blank2r.bmp	252	1	DXXD	306	3	krank	559	0	0	0	0	0	0	0	0	0	0	0	0	0	0	0	0	0	0	0	0	0	0	0	0	0	0	0	0	0	0	0	0	0	0	0	0	0	0	0
081319	13:52:42	14:02:36	593569	5.0.10.0	5_exp_noRW	98	Rpleas_acq	CS_A	ZHHZ	JQQJ	DXXD	LWWL	YFFY	CPPC	träumen	genießen	küssen	vertrauen	sonnig	gütig	töten	gemein	krank	versagen	sterben	gierig	53pct	acq_USpleas_CSunple2_noRW	acq23456_noRW	3	57	0	0	300	300	543	46	0	0	1	blank2r.bmp	0	1	+	0	1	blank2r.bmp	252	1	LWWL	306	2	sonnig	559	1	FEHLER	1132	0	0	0	0	0	0	0	0	0	0	0	0	0	0	0	0	0	0	0	0	0	0	0	0	0	0	0	0	0	0	0	0	0	0	0	0
081319	13:52:42	14:02:37	595062	5.0.10.0	5_exp_noRW	98	Rpleas_acq	CS_A	ZHHZ	JQQJ	DXXD	LWWL	YFFY	CPPC	träumen	genießen	küssen	vertrauen	sonnig	gütig	töten	gemein	krank	versagen	sterben	gierig	53pct	acq_USpleas_CSpleas2_noRW	acq23456_noRW	3	58	0	0	300	300	531	50	0	1	1	blank2r.bmp	0	1	+	0	1	blank2r.bmp	252	1	JQQJ	306	3	gütig	559	0	0	0	0	0	0	0	0	0	0	0	0	0	0	0	0	0	0	0	0	0	0	0	0	0	0	0	0	0	0	0	0	0	0	0	0	0	0	0
081319	13:52:42	14:02:39	596755	5.0.10.0	5_exp_noRW	98	Rpleas_acq	CS_A	ZHHZ	JQQJ	DXXD	LWWL	YFFY	CPPC	träumen	genießen	küssen	vertrauen	sonnig	gütig	töten	gemein	krank	versagen	sterben	gierig	53pct	acq_USunple_CSunple2_noRW	acq23456_noRW	3	59	0	0	300	300	509	46	0	1	1	blank2r.bmp	0	1	+	0	1	blank2r.bmp	252	1	LWWL	306	2	sterben	559	0	0	0	0	0	0	0	0	0	0	0	0	0	0	0	0	0	0	0	0	0	0	0	0	0	0	0	0	0	0	0	0	0	0	0	0	0	0	0
081319	13:52:42	14:02:41	598754	5.0.10.0	5_exp_noRW	98	Rpleas_acq	CS_A	ZHHZ	JQQJ	DXXD	LWWL	YFFY	CPPC	träumen	genießen	küssen	vertrauen	sonnig	gütig	töten	gemein	krank	versagen	sterben	gierig	47pct	acq_USpleas_CSpleas1_noRW	acq23456_noRW	3	60	0	0	300	300	833	50	0	1	1	blank2r.bmp	0	1	+	0	1	blank2r.bmp	252	1	ZHHZ	306	1	träumen	559	0	0	0	0	0	0	0	0	0	0	0	0	0	0	0	0	0	0	0	0	0	0	0	0	0	0	0	0	0	0	0	0	0	0	0	0	0	0	0
081319	13:52:42	14:02:43	600513	5.0.10.0	5_exp_noRW	98	Rpleas_acq	CS_A	ZHHZ	JQQJ	DXXD	LWWL	YFFY	CPPC	träumen	genießen	küssen	vertrauen	sonnig	gütig	töten	gemein	krank	versagen	sterben	gierig	47pct	acq_USunple_CSunple1_noRW	acq23456_noRW	3	61	0	0	300	300	577	46	0	1	1	blank2r.bmp	0	1	+	0	1	blank2r.bmp	252	1	DXXD	306	1	töten	559	0	0	0	0	0	0	0	0	0	0	0	0	0	0	0	0	0	0	0	0	0	0	0	0	0	0	0	0	0	0	0	0	0	0	0	0	0	0	0
081319	13:52:42	14:02:45	602299	5.0.10.0	5_exp_noRW	98	Rpleas_acq	CS_A	ZHHZ	JQQJ	DXXD	LWWL	YFFY	CPPC	träumen	genießen	küssen	vertrauen	sonnig	gütig	töten	gemein	krank	versagen	sterben	gierig	47pct	acq_USpleas_CSpleas1_noRW	acq23456_noRW	3	62	0	0	300	300	622	50	0	1	1	blank2r.bmp	0	1	+	0	1	blank2r.bmp	252	1	ZHHZ	306	3	küssen	559	0	0	0	0	0	0	0	0	0	0	0	0	0	0	0	0	0	0	0	0	0	0	0	0	0	0	0	0	0	0	0	0	0	0	0	0	0	0	0
081319	13:52:42	14:02:46	603938	5.0.10.0	5_exp_noRW	98	Rpleas_acq	CS_A	ZHHZ	JQQJ	DXXD	LWWL	YFFY	CPPC	träumen	genießen	küssen	vertrauen	sonnig	gütig	töten	gemein	krank	versagen	sterben	gierig	53pct	acq_USunple_CSunple1_noRW	acq23456_noRW	3	63	0	0	300	300	454	46	0	1	1	blank2r.bmp	0	1	+	0	1	blank2r.bmp	252	1	DXXD	306	1	töten	559	0	0	0	0	0	0	0	0	0	0	0	0	0	0	0	0	0	0	0	0	0	0	0	0	0	0	0	0	0	0	0	0	0	0	0	0	0	0	0
081319	13:52:42	14:02:48	605591	5.0.10.0	5_exp_noRW	98	Rpleas_acq	CS_A	ZHHZ	JQQJ	DXXD	LWWL	YFFY	CPPC	träumen	genießen	küssen	vertrauen	sonnig	gütig	töten	gemein	krank	versagen	sterben	gierig	53pct	acq_USpleas_CSpleas1_noRW	acq23456_noRW	3	64	0	0	300	300	477	50	0	1	1	blank2r.bmp	0	1	+	0	1	blank2r.bmp	252	1	ZHHZ	306	1	träumen	559	0	0	0	0	0	0	0	0	0	0	0	0	0	0	0	0	0	0	0	0	0	0	0	0	0	0	0	0	0	0	0	0	0	0	0	0	0	0	0
081319	13:52:42	14:02:50	607217	5.0.10.0	5_exp_noRW	98	Rpleas_acq	CS_A	ZHHZ	JQQJ	DXXD	LWWL	YFFY	CPPC	träumen	genießen	küssen	vertrauen	sonnig	gütig	töten	gemein	krank	versagen	sterben	gierig	53pct	acq_USpleas_CSpleas1_noRW	acq23456_noRW	3	65	0	0	300	300	443	50	0	1	1	blank2r.bmp	0	1	+	0	1	blank2r.bmp	252	1	ZHHZ	306	3	küssen	559	0	0	0	0	0	0	0	0	0	0	0	0	0	0	0	0	0	0	0	0	0	0	0	0	0	0	0	0	0	0	0	0	0	0	0	0	0	0	0
081319	13:52:42	14:02:52	609803	5.0.10.0	5_exp_noRW	98	Rpleas_acq	CS_A	ZHHZ	JQQJ	DXXD	LWWL	YFFY	CPPC	träumen	genießen	küssen	vertrauen	sonnig	gütig	töten	gemein	krank	versagen	sterben	gierig	53pct	acq_USpleas_CSpleas2_noRW	acq23456_noRW	3	66	0	0	300	300	1398	50	0	1	1	blank2r.bmp	0	1	+	0	1	blank2r.bmp	252	1	JQQJ	306	2	sonnig	559	0	0	0	0	0	0	0	0	0	0	0	0	0	0	0	0	0	0	0	0	0	0	0	0	0	0	0	0	0	0	0	0	0	0	0	0	0	0	0
081319	13:52:42	14:02:54	611669	5.0.10.0	5_exp_noRW	98	Rpleas_acq	CS_A	ZHHZ	JQQJ	DXXD	LWWL	YFFY	CPPC	träumen	genießen	küssen	vertrauen	sonnig	gütig	töten	gemein	krank	versagen	sterben	gierig	47pct	acq_USunple_CSunple2_noRW	acq23456_noRW	3	67	0	0	300	300	700	46	0	1	1	blank2r.bmp	0	1	+	0	1	blank2r.bmp	252	1	LWWL	306	1	versagen	559	0	0	0	0	0	0	0	0	0	0	0	0	0	0	0	0	0	0	0	0	0	0	0	0	0	0	0	0	0	0	0	0	0	0	0	0	0	0	0
081319	13:52:42	14:02:56	613335	5.0.10.0	5_exp_noRW	98	Rpleas_acq	CS_A	ZHHZ	JQQJ	DXXD	LWWL	YFFY	CPPC	träumen	genießen	küssen	vertrauen	sonnig	gütig	töten	gemein	krank	versagen	sterben	gierig	47pct	acq_USunple_CSpleas1_noRW	acq23456_noRW	3	68	0	0	300	300	502	46	0	1	1	blank2r.bmp	0	1	+	0	1	blank2r.bmp	252	1	ZHHZ	306	1	töten	559	0	0	0	0	0	0	0	0	0	0	0	0	0	0	0	0	0	0	0	0	0	0	0	0	0	0	0	0	0	0	0	0	0	0	0	0	0	0	0
081319	13:52:42	14:02:57	615067	5.0.10.0	5_exp_noRW	98	Rpleas_acq	CS_A	ZHHZ	JQQJ	DXXD	LWWL	YFFY	CPPC	träumen	genießen	küssen	vertrauen	sonnig	gütig	töten	gemein	krank	versagen	sterben	gierig	53pct	acq_USpleas_CSpleas2_noRW	acq23456_noRW	3	69	0	0	300	300	559	50	0	1	1	blank2r.bmp	0	1	+	0	1	blank2r.bmp	252	1	JQQJ	306	2	sonnig	559	0	0	0	0	0	0	0	0	0	0	0	0	0	0	0	0	0	0	0	0	0	0	0	0	0	0	0	0	0	0	0	0	0	0	0	0	0	0	0
081319	13:52:42	14:03:00	617160	5.0.10.0	5_exp_noRW	98	Rpleas_acq	CS_A	ZHHZ	JQQJ	DXXD	LWWL	YFFY	CPPC	träumen	genießen	küssen	vertrauen	sonnig	gütig	töten	gemein	krank	versagen	sterben	gierig	47pct	acq_USpleas_CSpleas1_noRW	acq23456_noRW	3	70	0	0	300	300	922	50	0	1	1	blank2r.bmp	0	1	+	0	1	blank2r.bmp	252	1	ZHHZ	306	2	genießen	559	0	0	0	0	0	0	0	0	0	0	0	0	0	0	0	0	0	0	0	0	0	0	0	0	0	0	0	0	0	0	0	0	0	0	0	0	0	0	0
081319	13:52:42	14:03:01	618892	5.0.10.0	5_exp_noRW	98	Rpleas_acq	CS_A	ZHHZ	JQQJ	DXXD	LWWL	YFFY	CPPC	träumen	genießen	küssen	vertrauen	sonnig	gütig	töten	gemein	krank	versagen	sterben	gierig	47pct	acq_USunple_CSpleas2_noRW	acq23456_noRW	3	71	0	0	300	300	562	46	0	1	1	blank2r.bmp	0	1	+	0	1	blank2r.bmp	252	1	JQQJ	306	3	gierig	559	0	0	0	0	0	0	0	0	0	0	0	0	0	0	0	0	0	0	0	0	0	0	0	0	0	0	0	0	0	0	0	0	0	0	0	0	0	0	0
081319	13:52:42	14:03:03	620745	5.0.10.0	5_exp_noRW	98	Rpleas_acq	CS_A	ZHHZ	JQQJ	DXXD	LWWL	YFFY	CPPC	träumen	genießen	küssen	vertrauen	sonnig	gütig	töten	gemein	krank	versagen	sterben	gierig	47pct	acq_USpleas_CSpleas2_noRW	acq23456_noRW	3	72	0	0	300	300	680	50	0	1	1	blank2r.bmp	0	1	+	0	1	blank2r.bmp	252	1	JQQJ	306	1	vertrauen	559	0	0	0	0	0	0	0	0	0	0	0	0	0	0	0	0	0	0	0	0	0	0	0	0	0	0	0	0	0	0	0	0	0	0	0	0	0	0	0
081319	13:52:42	14:03:05	622597	5.0.10.0	5_exp_noRW	98	Rpleas_acq	CS_A	ZHHZ	JQQJ	DXXD	LWWL	YFFY	CPPC	träumen	genießen	küssen	vertrauen	sonnig	gütig	töten	gemein	krank	versagen	sterben	gierig	53pct	acq_USpleas_CSpleas2_noRW	acq23456_noRW	3	73	0	0	300	300	683	50	0	1	1	blank2r.bmp	0	1	+	0	1	blank2r.bmp	252	1	JQQJ	306	3	gütig	559	0	0	0	0	0	0	0	0	0	0	0	0	0	0	0	0	0	0	0	0	0	0	0	0	0	0	0	0	0	0	0	0	0	0	0	0	0	0	0
081319	13:52:42	14:03:07	624290	5.0.10.0	5_exp_noRW	98	Rpleas_acq	CS_A	ZHHZ	JQQJ	DXXD	LWWL	YFFY	CPPC	träumen	genießen	küssen	vertrauen	sonnig	gütig	töten	gemein	krank	versagen	sterben	gierig	53pct	acq_USpleas_CSunple2_noRW	acq23456_noRW	3	74	0	0	300	300	511	50	0	1	1	blank2r.bmp	0	1	+	0	1	blank2r.bmp	252	1	LWWL	306	1	vertrauen	559	0	0	0	0	0	0	0	0	0	0	0	0	0	0	0	0	0	0	0	0	0	0	0	0	0	0	0	0	0	0	0	0	0	0	0	0	0	0	0
081319	13:52:42	14:03:08	626036	5.0.10.0	5_exp_noRW	98	Rpleas_acq	CS_A	ZHHZ	JQQJ	DXXD	LWWL	YFFY	CPPC	träumen	genießen	küssen	vertrauen	sonnig	gütig	töten	gemein	krank	versagen	sterben	gierig	47pct	acq_USunple_CSunple2_noRW	acq23456_noRW	3	75	0	0	300	300	577	46	0	1	1	blank2r.bmp	0	1	+	0	1	blank2r.bmp	252	1	LWWL	306	3	gierig	559	0	0	0	0	0	0	0	0	0	0	0	0	0	0	0	0	0	0	0	0	0	0	0	0	0	0	0	0	0	0	0	0	0	0	0	0	0	0	0
081319	13:52:42	14:03:10	627875	5.0.10.0	5_exp_noRW	98	Rpleas_acq	CS_A	ZHHZ	JQQJ	DXXD	LWWL	YFFY	CPPC	träumen	genießen	küssen	vertrauen	sonnig	gütig	töten	gemein	krank	versagen	sterben	gierig	47pct	acq_USunple_CSunple1_noRW	acq23456_noRW	3	76	0	0	300	300	667	46	0	1	1	blank2r.bmp	0	1	+	0	1	blank2r.bmp	252	1	DXXD	306	2	gemein	559	0	0	0	0	0	0	0	0	0	0	0	0	0	0	0	0	0	0	0	0	0	0	0	0	0	0	0	0	0	0	0	0	0	0	0	0	0	0	0
081319	13:52:42	14:03:12	629568	5.0.10.0	5_exp_noRW	98	Rpleas_acq	CS_A	ZHHZ	JQQJ	DXXD	LWWL	YFFY	CPPC	träumen	genießen	küssen	vertrauen	sonnig	gütig	töten	gemein	krank	versagen	sterben	gierig	53pct	acq_USpleas_CSunple1_noRW	acq23456_noRW	3	77	0	0	300	300	528	50	0	1	1	blank2r.bmp	0	1	+	0	1	blank2r.bmp	252	1	DXXD	306	1	träumen	559	0	0	0	0	0	0	0	0	0	0	0	0	0	0	0	0	0	0	0	0	0	0	0	0	0	0	0	0	0	0	0	0	0	0	0	0	0	0	0
081319	13:52:42	14:03:14	631381	5.0.10.0	5_exp_noRW	98	Rpleas_acq	CS_A	ZHHZ	JQQJ	DXXD	LWWL	YFFY	CPPC	träumen	genießen	küssen	vertrauen	sonnig	gütig	töten	gemein	krank	versagen	sterben	gierig	47pct	acq_USunple_CSunple1_noRW	acq23456_noRW	3	78	0	0	300	300	630	46	0	1	1	blank2r.bmp	0	1	+	0	1	blank2r.bmp	252	1	DXXD	306	3	krank	559	0	0	0	0	0	0	0	0	0	0	0	0	0	0	0	0	0	0	0	0	0	0	0	0	0	0	0	0	0	0	0	0	0	0	0	0	0	0	0
081319	13:52:42	14:03:16	633353	5.0.10.0	5_exp_noRW	98	Rpleas_acq	CS_A	ZHHZ	JQQJ	DXXD	LWWL	YFFY	CPPC	träumen	genießen	küssen	vertrauen	sonnig	gütig	töten	gemein	krank	versagen	sterben	gierig	53pct	acq_USunple_CSunple2_noRW	acq23456_noRW	3	79	0	0	300	300	793	46	0	1	1	blank2r.bmp	0	1	+	0	1	blank2r.bmp	252	1	LWWL	306	2	sterben	559	0	0	0	0	0	0	0	0	0	0	0	0	0	0	0	0	0	0	0	0	0	0	0	0	0	0	0	0	0	0	0	0	0	0	0	0	0	0	0
081319	13:52:42	14:03:18	635326	5.0.10.0	5_exp_noRW	98	Rpleas_acq	CS_A	ZHHZ	JQQJ	DXXD	LWWL	YFFY	CPPC	träumen	genießen	küssen	vertrauen	sonnig	gütig	töten	gemein	krank	versagen	sterben	gierig	53pct	acq_USunple_CSunple2_noRW	acq23456_noRW	3	80	0	0	300	300	585	50	0	0	1	blank2r.bmp	0	1	+	0	1	blank2r.bmp	252	1	LWWL	306	1	versagen	559	1	FEHLER	1186	0	0	0	0	0	0	0	0	0	0	0	0	0	0	0	0	0	0	0	0	0	0	0	0	0	0	0	0	0	0	0	0	0	0	0	0
081319	13:52:42	14:03:27	644748	5.0.10.0	5_exp_noRW	98	Rpleas_acq	CS_A	ZHHZ	JQQJ	DXXD	LWWL	YFFY	CPPC	träumen	genießen	küssen	vertrauen	sonnig	gütig	töten	gemein	krank	versagen	sterben	gierig	47pct	acq_USpleas_CSunple1_noRW	acq23456_noRW	4	1	0	0	300	300	596	50	0	1	1	blank2r.bmp	0	1	+	0	1	blank2r.bmp	252	1	DXXD	306	3	küssen	559	0	0	0	0	0	0	0	0	0	0	0	0	0	0	0	0	0	0	0	0	0	0	0	0	0	0	0	0	0	0	0	0	0	0	0	0	0	0	0
