date	time	script.currenttime	script.elapsedtime	build	script.currentexpt	subject	expressions.LRpleas_acq	expressions.conditionCS_A	expressions.CSpleas_1	expressions.CSpleas_2	expressions.CSunple_1	expressions.CSunple_2	expressions.distractor_1	expressions.distractor_2	expressions.US_pleas1	expressions.US_pleas2	expressions.US_pleas3	expressions.US_pleas4	expressions.US_pleas5	expressions.US_pleas6	expressions.US_unple1	expressions.US_unple2	expressions.US_unple3	expressions.US_unple4	expressions.US_unple5	expressions.US_unple6	counter.positions_noRW	trialcode	blockcode	blocknum	trialnum	windowcenter	inwindow	pretrialpause	posttrialpause	latency	response	expressions.correctedscore	correct	stimulusnumber1	stimulusitem1	stimulusonset1	stimulusnumber2	stimulusitem2	stimulusonset2	stimulusnumber3	stimulusitem3	stimulusonset3	stimulusnumber4	stimulusitem4	stimulusonset4	stimulusnumber5	stimulusitem5	stimulusonset5	stimulusnumber6	stimulusitem6	stimulusonset6	stimulusnumber7	stimulusitem7	stimulusonset7	stimulusnumber8	stimulusitem8	stimulusonset8	stimulusnumber9	stimulusitem9	stimulusonset9	stimulusnumber10	stimulusitem10	stimulusonset10	stimulusnumber11	stimulusitem11	stimulusonset11	stimulusnumber12	stimulusitem12	stimulusonset12	stimulusnumber13	stimulusitem13	stimulusonset13	stimulusnumber14	stimulusitem14	stimulusonset14	stimulusnumber15	stimulusitem15	stimulusonset15	stimulusnumber16	stimulusitem16	stimulusonset16	stimulusnumber17	stimulusitem17	stimulusonset17	stimulusnumber18	stimulusitem18	stimulusonset18
070319	14:47:52	14:49:46	112887	5.0.10.0	5_exp_noRW	14	Rpleas_acq	CS_A	YFFY	ZHHZ	LWWL	DXXD	JQQJ	CPPC	genießen	küssen	träumen	gütig	sonnig	vertrauen	gemein	krank	töten	gierig	sterben	versagen	47pct	acq_USunple_CSpleas1_noRW	acq1_noRW	1	1	0	0	300	300	2000	0	0	0	1	blank2r.bmp	0	1	+	0	1	blank2r.bmp	252	1	YFFY	306	3	töten	559	1	FEHLER	2598	1	Schneller!	2598	0	0	0	0	0	0	0	0	0	0	0	0	0	0	0	0	0	0	0	0	0	0	0	0	0	0	0	0	0	0	0	0	0
070319	14:47:52	14:49:49	115712	5.0.10.0	5_exp_noRW	14	Rpleas_acq	CS_A	YFFY	ZHHZ	LWWL	DXXD	JQQJ	CPPC	genießen	küssen	träumen	gütig	sonnig	vertrauen	gemein	krank	töten	gierig	sterben	versagen	53pct	acq_USunple_CSunple1_noRW	acq1_noRW	1	2	0	0	300	300	1930	46	0	1	1	blank2r.bmp	0	1	+	0	1	blank2r.bmp	252	1	LWWL	306	2	krank	559	0	0	0	0	0	0	0	0	0	0	0	0	0	0	0	0	0	0	0	0	0	0	0	0	0	0	0	0	0	0	0	0	0	0	0	0	0	0	0
070319	14:47:52	14:49:51	118218	5.0.10.0	5_exp_noRW	14	Rpleas_acq	CS_A	YFFY	ZHHZ	LWWL	DXXD	JQQJ	CPPC	genießen	küssen	träumen	gütig	sonnig	vertrauen	gemein	krank	töten	gierig	sterben	versagen	47pct	acq_USpleas_CSpleas1_noRW	acq1_noRW	1	3	0	0	300	300	1321	50	0	1	1	blank2r.bmp	0	1	+	0	1	blank2r.bmp	252	1	YFFY	306	1	genießen	559	0	0	0	0	0	0	0	0	0	0	0	0	0	0	0	0	0	0	0	0	0	0	0	0	0	0	0	0	0	0	0	0	0	0	0	0	0	0	0
070319	14:47:52	14:49:55	121910	5.0.10.0	5_exp_noRW	14	Rpleas_acq	CS_A	YFFY	ZHHZ	LWWL	DXXD	JQQJ	CPPC	genießen	küssen	träumen	gütig	sonnig	vertrauen	gemein	krank	töten	gierig	sterben	versagen	53pct	acq_USpleas_CSpleas1_noRW	acq1_noRW	1	4	0	0	300	300	2000	0	0	0	1	blank2r.bmp	0	1	+	0	1	blank2r.bmp	252	1	YFFY	306	3	träumen	559	1	FEHLER	2598	1	Schneller!	2598	0	0	0	0	0	0	0	0	0	0	0	0	0	0	0	0	0	0	0	0	0	0	0	0	0	0	0	0	0	0	0	0	0
070319	14:47:52	14:49:57	124122	5.0.10.0	5_exp_noRW	14	Rpleas_acq	CS_A	YFFY	ZHHZ	LWWL	DXXD	JQQJ	CPPC	genießen	küssen	träumen	gütig	sonnig	vertrauen	gemein	krank	töten	gierig	sterben	versagen	53pct	acq_USpleas_CSunple2_noRW	acq1_noRW	1	5	0	0	300	300	1316	50	0	1	1	blank2r.bmp	0	1	+	0	1	blank2r.bmp	252	1	DXXD	306	3	vertrauen	559	0	0	0	0	0	0	0	0	0	0	0	0	0	0	0	0	0	0	0	0	0	0	0	0	0	0	0	0	0	0	0	0	0	0	0	0	0	0	0
070319	14:47:52	14:50:00	127067	5.0.10.0	5_exp_noRW	14	Rpleas_acq	CS_A	YFFY	ZHHZ	LWWL	DXXD	JQQJ	CPPC	genießen	küssen	träumen	gütig	sonnig	vertrauen	gemein	krank	töten	gierig	sterben	versagen	47pct	acq_USunple_CSunple2_noRW	acq1_noRW	1	6	0	0	300	300	1768	46	0	1	1	blank2r.bmp	0	1	+	0	1	blank2r.bmp	252	1	DXXD	306	1	gierig	559	0	0	0	0	0	0	0	0	0	0	0	0	0	0	0	0	0	0	0	0	0	0	0	0	0	0	0	0	0	0	0	0	0	0	0	0	0	0	0
070319	14:47:52	14:50:02	129093	5.0.10.0	5_exp_noRW	14	Rpleas_acq	CS_A	YFFY	ZHHZ	LWWL	DXXD	JQQJ	CPPC	genießen	küssen	träumen	gütig	sonnig	vertrauen	gemein	krank	töten	gierig	sterben	versagen	47pct	acq_USunple_CSpleas2_noRW	acq1_noRW	1	7	0	0	300	300	849	46	0	1	1	blank2r.bmp	0	1	+	0	1	blank2r.bmp	252	1	ZHHZ	306	2	sterben	559	0	0	0	0	0	0	0	0	0	0	0	0	0	0	0	0	0	0	0	0	0	0	0	0	0	0	0	0	0	0	0	0	0	0	0	0	0	0	0
070319	14:47:52	14:50:04	131199	5.0.10.0	5_exp_noRW	14	Rpleas_acq	CS_A	YFFY	ZHHZ	LWWL	DXXD	JQQJ	CPPC	genießen	küssen	träumen	gütig	sonnig	vertrauen	gemein	krank	töten	gierig	sterben	versagen	47pct	acq_USpleas_CSpleas2_noRW	acq1_noRW	1	8	0	0	300	300	921	50	0	1	1	blank2r.bmp	0	1	+	0	1	blank2r.bmp	252	1	ZHHZ	306	3	vertrauen	559	0	0	0	0	0	0	0	0	0	0	0	0	0	0	0	0	0	0	0	0	0	0	0	0	0	0	0	0	0	0	0	0	0	0	0	0	0	0	0
070319	14:47:52	14:50:06	133292	5.0.10.0	5_exp_noRW	14	Rpleas_acq	CS_A	YFFY	ZHHZ	LWWL	DXXD	JQQJ	CPPC	genießen	küssen	träumen	gütig	sonnig	vertrauen	gemein	krank	töten	gierig	sterben	versagen	47pct	acq_USunple_CSunple2_noRW	acq1_noRW	1	9	0	0	300	300	929	46	0	1	1	blank2r.bmp	0	1	+	0	1	blank2r.bmp	252	1	DXXD	306	2	sterben	559	0	0	0	0	0	0	0	0	0	0	0	0	0	0	0	0	0	0	0	0	0	0	0	0	0	0	0	0	0	0	0	0	0	0	0	0	0	0	0
070319	14:47:52	14:50:09	136197	5.0.10.0	5_exp_noRW	14	Rpleas_acq	CS_A	YFFY	ZHHZ	LWWL	DXXD	JQQJ	CPPC	genießen	küssen	träumen	gütig	sonnig	vertrauen	gemein	krank	töten	gierig	sterben	versagen	47pct	acq_USpleas_CSpleas2_noRW	acq1_noRW	1	10	0	0	300	300	1512	46	0	0	1	blank2r.bmp	0	1	+	0	1	blank2r.bmp	252	1	ZHHZ	306	1	gütig	559	1	FEHLER	2105	0	0	0	0	0	0	0	0	0	0	0	0	0	0	0	0	0	0	0	0	0	0	0	0	0	0	0	0	0	0	0	0	0	0	0	0
070319	14:47:52	14:50:11	138569	5.0.10.0	5_exp_noRW	14	Rpleas_acq	CS_A	YFFY	ZHHZ	LWWL	DXXD	JQQJ	CPPC	genießen	küssen	träumen	gütig	sonnig	vertrauen	gemein	krank	töten	gierig	sterben	versagen	53pct	acq_USpleas_CSpleas2_noRW	acq1_noRW	1	11	0	0	300	300	1414	50	0	1	1	blank2r.bmp	0	1	+	0	1	blank2r.bmp	252	1	ZHHZ	306	2	sonnig	559	0	0	0	0	0	0	0	0	0	0	0	0	0	0	0	0	0	0	0	0	0	0	0	0	0	0	0	0	0	0	0	0	0	0	0	0	0	0	0
070319	14:47:52	14:50:13	140555	5.0.10.0	5_exp_noRW	14	Rpleas_acq	CS_A	YFFY	ZHHZ	LWWL	DXXD	JQQJ	CPPC	genießen	küssen	träumen	gütig	sonnig	vertrauen	gemein	krank	töten	gierig	sterben	versagen	53pct	acq_USpleas_CSpleas1_noRW	acq1_noRW	1	12	0	0	300	300	808	50	0	1	1	blank2r.bmp	0	1	+	0	1	blank2r.bmp	252	1	YFFY	306	2	küssen	559	0	0	0	0	0	0	0	0	0	0	0	0	0	0	0	0	0	0	0	0	0	0	0	0	0	0	0	0	0	0	0	0	0	0	0	0	0	0	0
070319	14:47:52	14:50:16	142808	5.0.10.0	5_exp_noRW	14	Rpleas_acq	CS_A	YFFY	ZHHZ	LWWL	DXXD	JQQJ	CPPC	genießen	küssen	träumen	gütig	sonnig	vertrauen	gemein	krank	töten	gierig	sterben	versagen	47pct	acq_USunple_CSunple2_noRW	acq1_noRW	1	13	0	0	300	300	1084	46	0	1	1	blank2r.bmp	0	1	+	0	1	blank2r.bmp	252	1	DXXD	306	3	versagen	559	0	0	0	0	0	0	0	0	0	0	0	0	0	0	0	0	0	0	0	0	0	0	0	0	0	0	0	0	0	0	0	0	0	0	0	0	0	0	0
070319	14:47:52	14:50:17	144674	5.0.10.0	5_exp_noRW	14	Rpleas_acq	CS_A	YFFY	ZHHZ	LWWL	DXXD	JQQJ	CPPC	genießen	küssen	träumen	gütig	sonnig	vertrauen	gemein	krank	töten	gierig	sterben	versagen	53pct	acq_USunple_CSunple1_noRW	acq1_noRW	1	14	0	0	300	300	678	46	0	1	1	blank2r.bmp	0	1	+	0	1	blank2r.bmp	252	1	LWWL	306	3	töten	559	0	0	0	0	0	0	0	0	0	0	0	0	0	0	0	0	0	0	0	0	0	0	0	0	0	0	0	0	0	0	0	0	0	0	0	0	0	0	0
070319	14:47:52	14:50:19	146420	5.0.10.0	5_exp_noRW	14	Rpleas_acq	CS_A	YFFY	ZHHZ	LWWL	DXXD	JQQJ	CPPC	genießen	küssen	träumen	gütig	sonnig	vertrauen	gemein	krank	töten	gierig	sterben	versagen	47pct	acq_USunple_CSunple2_noRW	acq1_noRW	1	15	0	0	300	300	574	46	0	1	1	blank2r.bmp	0	1	+	0	1	blank2r.bmp	252	1	DXXD	306	2	sterben	559	0	0	0	0	0	0	0	0	0	0	0	0	0	0	0	0	0	0	0	0	0	0	0	0	0	0	0	0	0	0	0	0	0	0	0	0	0	0	0
070319	14:47:52	14:50:21	148299	5.0.10.0	5_exp_noRW	14	Rpleas_acq	CS_A	YFFY	ZHHZ	LWWL	DXXD	JQQJ	CPPC	genießen	küssen	träumen	gütig	sonnig	vertrauen	gemein	krank	töten	gierig	sterben	versagen	47pct	acq_USpleas_CSpleas2_noRW	acq1_noRW	1	16	0	0	300	300	714	50	0	1	1	blank2r.bmp	0	1	+	0	1	blank2r.bmp	252	1	ZHHZ	306	2	sonnig	559	0	0	0	0	0	0	0	0	0	0	0	0	0	0	0	0	0	0	0	0	0	0	0	0	0	0	0	0	0	0	0	0	0	0	0	0	0	0	0
070319	14:47:52	14:50:23	150285	5.0.10.0	5_exp_noRW	14	Rpleas_acq	CS_A	YFFY	ZHHZ	LWWL	DXXD	JQQJ	CPPC	genießen	küssen	träumen	gütig	sonnig	vertrauen	gemein	krank	töten	gierig	sterben	versagen	53pct	acq_USpleas_CSpleas1_noRW	acq1_noRW	1	17	0	0	300	300	806	50	0	1	1	blank2r.bmp	0	1	+	0	1	blank2r.bmp	252	1	YFFY	306	3	träumen	559	0	0	0	0	0	0	0	0	0	0	0	0	0	0	0	0	0	0	0	0	0	0	0	0	0	0	0	0	0	0	0	0	0	0	0	0	0	0	0
070319	14:47:52	14:50:26	152777	5.0.10.0	5_exp_noRW	14	Rpleas_acq	CS_A	YFFY	ZHHZ	LWWL	DXXD	JQQJ	CPPC	genießen	küssen	träumen	gütig	sonnig	vertrauen	gemein	krank	töten	gierig	sterben	versagen	53pct	acq_USunple_CSunple1_noRW	acq1_noRW	1	18	0	0	300	300	1101	50	0	0	1	blank2r.bmp	0	1	+	0	1	blank2r.bmp	252	1	LWWL	306	1	gemein	559	1	FEHLER	1692	0	0	0	0	0	0	0	0	0	0	0	0	0	0	0	0	0	0	0	0	0	0	0	0	0	0	0	0	0	0	0	0	0	0	0	0
070319	14:47:52	14:50:27	154536	5.0.10.0	5_exp_noRW	14	Rpleas_acq	CS_A	YFFY	ZHHZ	LWWL	DXXD	JQQJ	CPPC	genießen	küssen	träumen	gütig	sonnig	vertrauen	gemein	krank	töten	gierig	sterben	versagen	53pct	acq_USpleas_CSunple1_noRW	acq1_noRW	1	19	0	0	300	300	792	50	0	1	1	blank2r.bmp	0	1	+	0	1	blank2r.bmp	252	1	LWWL	306	1	genießen	559	0	0	0	0	0	0	0	0	0	0	0	0	0	0	0	0	0	0	0	0	0	0	0	0	0	0	0	0	0	0	0	0	0	0	0	0	0	0	0
070319	14:47:52	14:50:29	156629	5.0.10.0	5_exp_noRW	14	Rpleas_acq	CS_A	YFFY	ZHHZ	LWWL	DXXD	JQQJ	CPPC	genießen	küssen	träumen	gütig	sonnig	vertrauen	gemein	krank	töten	gierig	sterben	versagen	47pct	acq_USunple_CSunple1_noRW	acq1_noRW	1	20	0	0	300	300	908	46	0	1	1	blank2r.bmp	0	1	+	0	1	blank2r.bmp	252	1	LWWL	306	2	krank	559	0	0	0	0	0	0	0	0	0	0	0	0	0	0	0	0	0	0	0	0	0	0	0	0	0	0	0	0	0	0	0	0	0	0	0	0	0	0	0
070319	14:47:52	14:50:32	158721	5.0.10.0	5_exp_noRW	14	Rpleas_acq	CS_A	YFFY	ZHHZ	LWWL	DXXD	JQQJ	CPPC	genießen	küssen	träumen	gütig	sonnig	vertrauen	gemein	krank	töten	gierig	sterben	versagen	47pct	acq_USunple_CSunple2_noRW	acq1_noRW	1	21	0	0	300	300	922	46	0	1	1	blank2r.bmp	0	1	+	0	1	blank2r.bmp	252	1	DXXD	306	3	versagen	559	0	0	0	0	0	0	0	0	0	0	0	0	0	0	0	0	0	0	0	0	0	0	0	0	0	0	0	0	0	0	0	0	0	0	0	0	0	0	0
070319	14:47:52	14:50:34	161360	5.0.10.0	5_exp_noRW	14	Rpleas_acq	CS_A	YFFY	ZHHZ	LWWL	DXXD	JQQJ	CPPC	genießen	küssen	träumen	gütig	sonnig	vertrauen	gemein	krank	töten	gierig	sterben	versagen	53pct	acq_USpleas_CSpleas2_noRW	acq1_noRW	1	22	0	0	300	300	1246	46	0	0	1	blank2r.bmp	0	1	+	0	1	blank2r.bmp	252	1	ZHHZ	306	1	gütig	559	1	FEHLER	1839	0	0	0	0	0	0	0	0	0	0	0	0	0	0	0	0	0	0	0	0	0	0	0	0	0	0	0	0	0	0	0	0	0	0	0	0
070319	14:47:52	14:50:36	163439	5.0.10.0	5_exp_noRW	14	Rpleas_acq	CS_A	YFFY	ZHHZ	LWWL	DXXD	JQQJ	CPPC	genießen	küssen	träumen	gütig	sonnig	vertrauen	gemein	krank	töten	gierig	sterben	versagen	47pct	acq_USunple_CSunple2_noRW	acq1_noRW	1	23	0	0	300	300	1125	46	0	1	1	blank2r.bmp	0	1	+	0	1	blank2r.bmp	252	1	DXXD	306	1	gierig	559	0	0	0	0	0	0	0	0	0	0	0	0	0	0	0	0	0	0	0	0	0	0	0	0	0	0	0	0	0	0	0	0	0	0	0	0	0	0	0
070319	14:47:52	14:50:39	166118	5.0.10.0	5_exp_noRW	14	Rpleas_acq	CS_A	YFFY	ZHHZ	LWWL	DXXD	JQQJ	CPPC	genießen	küssen	träumen	gütig	sonnig	vertrauen	gemein	krank	töten	gierig	sterben	versagen	53pct	acq_USpleas_CSunple2_noRW	acq1_noRW	1	24	0	0	300	300	1514	50	0	1	1	blank2r.bmp	0	1	+	0	1	blank2r.bmp	252	1	DXXD	306	1	gütig	559	0	0	0	0	0	0	0	0	0	0	0	0	0	0	0	0	0	0	0	0	0	0	0	0	0	0	0	0	0	0	0	0	0	0	0	0	0	0	0
070319	14:47:52	14:50:41	168051	5.0.10.0	5_exp_noRW	14	Rpleas_acq	CS_A	YFFY	ZHHZ	LWWL	DXXD	JQQJ	CPPC	genießen	küssen	träumen	gütig	sonnig	vertrauen	gemein	krank	töten	gierig	sterben	versagen	53pct	acq_USpleas_CSpleas1_noRW	acq1_noRW	1	25	0	0	300	300	749	50	0	1	1	blank2r.bmp	0	1	+	0	1	blank2r.bmp	252	1	YFFY	306	1	genießen	559	0	0	0	0	0	0	0	0	0	0	0	0	0	0	0	0	0	0	0	0	0	0	0	0	0	0	0	0	0	0	0	0	0	0	0	0	0	0	0
070319	14:47:52	14:50:43	169983	5.0.10.0	5_exp_noRW	14	Rpleas_acq	CS_A	YFFY	ZHHZ	LWWL	DXXD	JQQJ	CPPC	genießen	küssen	träumen	gütig	sonnig	vertrauen	gemein	krank	töten	gierig	sterben	versagen	53pct	acq_USpleas_CSpleas1_noRW	acq1_noRW	1	26	0	0	300	300	751	50	0	1	1	blank2r.bmp	0	1	+	0	1	blank2r.bmp	252	1	YFFY	306	2	küssen	559	0	0	0	0	0	0	0	0	0	0	0	0	0	0	0	0	0	0	0	0	0	0	0	0	0	0	0	0	0	0	0	0	0	0	0	0	0	0	0
070319	14:47:52	14:50:45	172209	5.0.10.0	5_exp_noRW	14	Rpleas_acq	CS_A	YFFY	ZHHZ	LWWL	DXXD	JQQJ	CPPC	genießen	küssen	träumen	gütig	sonnig	vertrauen	gemein	krank	töten	gierig	sterben	versagen	53pct	acq_USunple_CSpleas2_noRW	acq1_noRW	1	27	0	0	300	300	1038	46	0	1	1	blank2r.bmp	0	1	+	0	1	blank2r.bmp	252	1	ZHHZ	306	3	versagen	559	0	0	0	0	0	0	0	0	0	0	0	0	0	0	0	0	0	0	0	0	0	0	0	0	0	0	0	0	0	0	0	0	0	0	0	0	0	0	0
070319	14:47:52	14:50:48	174781	5.0.10.0	5_exp_noRW	14	Rpleas_acq	CS_A	YFFY	ZHHZ	LWWL	DXXD	JQQJ	CPPC	genießen	küssen	träumen	gütig	sonnig	vertrauen	gemein	krank	töten	gierig	sterben	versagen	47pct	acq_USunple_CSunple1_noRW	acq1_noRW	1	28	0	0	300	300	1406	46	0	1	1	blank2r.bmp	0	1	+	0	1	blank2r.bmp	252	1	LWWL	306	1	gemein	559	0	0	0	0	0	0	0	0	0	0	0	0	0	0	0	0	0	0	0	0	0	0	0	0	0	0	0	0	0	0	0	0	0	0	0	0	0	0	0
070319	14:47:52	14:50:50	176714	5.0.10.0	5_exp_noRW	14	Rpleas_acq	CS_A	YFFY	ZHHZ	LWWL	DXXD	JQQJ	CPPC	genießen	küssen	träumen	gütig	sonnig	vertrauen	gemein	krank	töten	gierig	sterben	versagen	47pct	acq_USpleas_CSunple1_noRW	acq1_noRW	1	29	0	0	300	300	768	50	0	1	1	blank2r.bmp	0	1	+	0	1	blank2r.bmp	252	1	LWWL	306	3	träumen	559	0	0	0	0	0	0	0	0	0	0	0	0	0	0	0	0	0	0	0	0	0	0	0	0	0	0	0	0	0	0	0	0	0	0	0	0	0	0	0
070319	14:47:52	14:50:51	178646	5.0.10.0	5_exp_noRW	14	Rpleas_acq	CS_A	YFFY	ZHHZ	LWWL	DXXD	JQQJ	CPPC	genießen	küssen	träumen	gütig	sonnig	vertrauen	gemein	krank	töten	gierig	sterben	versagen	53pct	acq_USunple_CSunple2_noRW	acq1_noRW	1	30	0	0	300	300	759	46	0	1	1	blank2r.bmp	0	1	+	0	1	blank2r.bmp	252	1	DXXD	306	2	sterben	559	0	0	0	0	0	0	0	0	0	0	0	0	0	0	0	0	0	0	0	0	0	0	0	0	0	0	0	0	0	0	0	0	0	0	0	0	0	0	0
070319	14:47:52	14:50:54	180832	5.0.10.0	5_exp_noRW	14	Rpleas_acq	CS_A	YFFY	ZHHZ	LWWL	DXXD	JQQJ	CPPC	genießen	küssen	träumen	gütig	sonnig	vertrauen	gemein	krank	töten	gierig	sterben	versagen	47pct	acq_USpleas_CSpleas1_noRW	acq1_noRW	1	31	0	0	300	300	1000	50	0	1	1	blank2r.bmp	0	1	+	0	1	blank2r.bmp	252	1	YFFY	306	3	träumen	559	0	0	0	0	0	0	0	0	0	0	0	0	0	0	0	0	0	0	0	0	0	0	0	0	0	0	0	0	0	0	0	0	0	0	0	0	0	0	0
070319	14:47:52	14:50:56	182898	5.0.10.0	5_exp_noRW	14	Rpleas_acq	CS_A	YFFY	ZHHZ	LWWL	DXXD	JQQJ	CPPC	genießen	küssen	träumen	gütig	sonnig	vertrauen	gemein	krank	töten	gierig	sterben	versagen	53pct	acq_USpleas_CSpleas2_noRW	acq1_noRW	1	32	0	0	300	300	894	50	0	1	1	blank2r.bmp	0	1	+	0	1	blank2r.bmp	252	1	ZHHZ	306	3	vertrauen	559	0	0	0	0	0	0	0	0	0	0	0	0	0	0	0	0	0	0	0	0	0	0	0	0	0	0	0	0	0	0	0	0	0	0	0	0	0	0	0
070319	14:47:52	14:50:58	185390	5.0.10.0	5_exp_noRW	14	Rpleas_acq	CS_A	YFFY	ZHHZ	LWWL	DXXD	JQQJ	CPPC	genießen	küssen	träumen	gütig	sonnig	vertrauen	gemein	krank	töten	gierig	sterben	versagen	47pct	acq_USpleas_CSpleas2_noRW	acq1_noRW	1	33	0	0	300	300	1115	46	0	0	1	blank2r.bmp	0	1	+	0	1	blank2r.bmp	252	1	ZHHZ	306	1	gütig	559	1	FEHLER	1705	0	0	0	0	0	0	0	0	0	0	0	0	0	0	0	0	0	0	0	0	0	0	0	0	0	0	0	0	0	0	0	0	0	0	0	0
070319	14:47:52	14:51:00	187323	5.0.10.0	5_exp_noRW	14	Rpleas_acq	CS_A	YFFY	ZHHZ	LWWL	DXXD	JQQJ	CPPC	genießen	küssen	träumen	gütig	sonnig	vertrauen	gemein	krank	töten	gierig	sterben	versagen	47pct	acq_USunple_CSunple1_noRW	acq1_noRW	1	34	0	0	300	300	963	46	0	1	1	blank2r.bmp	0	1	+	0	1	blank2r.bmp	252	1	LWWL	306	3	töten	559	0	0	0	0	0	0	0	0	0	0	0	0	0	0	0	0	0	0	0	0	0	0	0	0	0	0	0	0	0	0	0	0	0	0	0	0	0	0	0
070319	14:47:52	14:51:03	190028	5.0.10.0	5_exp_noRW	14	Rpleas_acq	CS_A	YFFY	ZHHZ	LWWL	DXXD	JQQJ	CPPC	genießen	küssen	träumen	gütig	sonnig	vertrauen	gemein	krank	töten	gierig	sterben	versagen	47pct	acq_USunple_CSunple2_noRW	acq1_noRW	1	35	0	0	300	300	1535	46	0	1	1	blank2r.bmp	0	1	+	0	1	blank2r.bmp	252	1	DXXD	306	3	versagen	559	0	0	0	0	0	0	0	0	0	0	0	0	0	0	0	0	0	0	0	0	0	0	0	0	0	0	0	0	0	0	0	0	0	0	0	0	0	0	0
070319	14:47:52	14:51:05	192454	5.0.10.0	5_exp_noRW	14	Rpleas_acq	CS_A	YFFY	ZHHZ	LWWL	DXXD	JQQJ	CPPC	genießen	küssen	träumen	gütig	sonnig	vertrauen	gemein	krank	töten	gierig	sterben	versagen	53pct	acq_USunple_CSpleas1_noRW	acq1_noRW	1	36	0	0	300	300	1252	46	0	1	1	blank2r.bmp	0	1	+	0	1	blank2r.bmp	252	1	YFFY	306	1	gemein	559	0	0	0	0	0	0	0	0	0	0	0	0	0	0	0	0	0	0	0	0	0	0	0	0	0	0	0	0	0	0	0	0	0	0	0	0	0	0	0
070319	14:47:52	14:51:07	194267	5.0.10.0	5_exp_noRW	14	Rpleas_acq	CS_A	YFFY	ZHHZ	LWWL	DXXD	JQQJ	CPPC	genießen	küssen	träumen	gütig	sonnig	vertrauen	gemein	krank	töten	gierig	sterben	versagen	47pct	acq_USunple_CSunple1_noRW	acq1_noRW	1	37	0	0	300	300	651	46	0	1	1	blank2r.bmp	0	1	+	0	1	blank2r.bmp	252	1	LWWL	306	2	krank	559	0	0	0	0	0	0	0	0	0	0	0	0	0	0	0	0	0	0	0	0	0	0	0	0	0	0	0	0	0	0	0	0	0	0	0	0	0	0	0
070319	14:47:52	14:51:09	196213	5.0.10.0	5_exp_noRW	14	Rpleas_acq	CS_A	YFFY	ZHHZ	LWWL	DXXD	JQQJ	CPPC	genießen	küssen	träumen	gütig	sonnig	vertrauen	gemein	krank	töten	gierig	sterben	versagen	53pct	acq_USpleas_CSpleas2_noRW	acq1_noRW	1	38	0	0	300	300	762	50	0	1	1	blank2r.bmp	0	1	+	0	1	blank2r.bmp	252	1	ZHHZ	306	2	sonnig	559	0	0	0	0	0	0	0	0	0	0	0	0	0	0	0	0	0	0	0	0	0	0	0	0	0	0	0	0	0	0	0	0	0	0	0	0	0	0	0
070319	14:47:52	14:51:11	198078	5.0.10.0	5_exp_noRW	14	Rpleas_acq	CS_A	YFFY	ZHHZ	LWWL	DXXD	JQQJ	CPPC	genießen	küssen	träumen	gütig	sonnig	vertrauen	gemein	krank	töten	gierig	sterben	versagen	47pct	acq_USunple_CSunple1_noRW	acq1_noRW	1	39	0	0	300	300	687	46	0	1	1	blank2r.bmp	0	1	+	0	1	blank2r.bmp	252	1	LWWL	306	3	töten	559	0	0	0	0	0	0	0	0	0	0	0	0	0	0	0	0	0	0	0	0	0	0	0	0	0	0	0	0	0	0	0	0	0	0	0	0	0	0	0
070319	14:47:52	14:51:13	200011	5.0.10.0	5_exp_noRW	14	Rpleas_acq	CS_A	YFFY	ZHHZ	LWWL	DXXD	JQQJ	CPPC	genießen	küssen	träumen	gütig	sonnig	vertrauen	gemein	krank	töten	gierig	sterben	versagen	53pct	acq_USpleas_CSpleas1_noRW	acq1_noRW	1	40	0	0	300	300	746	50	0	1	1	blank2r.bmp	0	1	+	0	1	blank2r.bmp	252	1	YFFY	306	2	küssen	559	0	0	0	0	0	0	0	0	0	0	0	0	0	0	0	0	0	0	0	0	0	0	0	0	0	0	0	0	0	0	0	0	0	0	0	0	0	0	0
070319	14:47:52	14:51:16	203690	5.0.10.0	5_exp_noRW	14	Rpleas_acq	CS_A	YFFY	ZHHZ	LWWL	DXXD	JQQJ	CPPC	genießen	küssen	träumen	gütig	sonnig	vertrauen	gemein	krank	töten	gierig	sterben	versagen	47pct	acq_USpleas_CSpleas1_noRW	acq1_noRW	1	41	0	0	300	300	2000	0	0	0	1	blank2r.bmp	0	1	+	0	1	blank2r.bmp	252	1	YFFY	306	1	genießen	559	1	FEHLER	2598	1	Schneller!	2598	0	0	0	0	0	0	0	0	0	0	0	0	0	0	0	0	0	0	0	0	0	0	0	0	0	0	0	0	0	0	0	0	0
070319	14:47:52	14:51:19	206035	5.0.10.0	5_exp_noRW	14	Rpleas_acq	CS_A	YFFY	ZHHZ	LWWL	DXXD	JQQJ	CPPC	genießen	küssen	träumen	gütig	sonnig	vertrauen	gemein	krank	töten	gierig	sterben	versagen	47pct	acq_USunple_CSunple1_noRW	acq1_noRW	1	42	0	0	300	300	1242	50	0	0	1	blank2r.bmp	0	1	+	0	1	blank2r.bmp	252	1	LWWL	306	1	gemein	559	1	FEHLER	1839	0	0	0	0	0	0	0	0	0	0	0	0	0	0	0	0	0	0	0	0	0	0	0	0	0	0	0	0	0	0	0	0	0	0	0	0
070319	14:47:52	14:51:21	207741	5.0.10.0	5_exp_noRW	14	Rpleas_acq	CS_A	YFFY	ZHHZ	LWWL	DXXD	JQQJ	CPPC	genießen	küssen	träumen	gütig	sonnig	vertrauen	gemein	krank	töten	gierig	sterben	versagen	53pct	acq_USunple_CSpleas2_noRW	acq1_noRW	1	43	0	0	300	300	744	46	0	1	1	blank2r.bmp	0	1	+	0	1	blank2r.bmp	252	1	ZHHZ	306	1	gierig	559	0	0	0	0	0	0	0	0	0	0	0	0	0	0	0	0	0	0	0	0	0	0	0	0	0	0	0	0	0	0	0	0	0	0	0	0	0	0	0
070319	14:47:52	14:51:22	209447	5.0.10.0	5_exp_noRW	14	Rpleas_acq	CS_A	YFFY	ZHHZ	LWWL	DXXD	JQQJ	CPPC	genießen	küssen	träumen	gütig	sonnig	vertrauen	gemein	krank	töten	gierig	sterben	versagen	47pct	acq_USunple_CSunple2_noRW	acq1_noRW	1	44	0	0	300	300	527	46	0	1	1	blank2r.bmp	0	1	+	0	1	blank2r.bmp	252	1	DXXD	306	1	gierig	559	0	0	0	0	0	0	0	0	0	0	0	0	0	0	0	0	0	0	0	0	0	0	0	0	0	0	0	0	0	0	0	0	0	0	0	0	0	0	0
070319	14:47:52	14:51:24	211313	5.0.10.0	5_exp_noRW	14	Rpleas_acq	CS_A	YFFY	ZHHZ	LWWL	DXXD	JQQJ	CPPC	genießen	küssen	träumen	gütig	sonnig	vertrauen	gemein	krank	töten	gierig	sterben	versagen	53pct	acq_USpleas_CSpleas1_noRW	acq1_noRW	1	45	0	0	300	300	678	50	0	1	1	blank2r.bmp	0	1	+	0	1	blank2r.bmp	252	1	YFFY	306	1	genießen	559	0	0	0	0	0	0	0	0	0	0	0	0	0	0	0	0	0	0	0	0	0	0	0	0	0	0	0	0	0	0	0	0	0	0	0	0	0	0	0
070319	14:47:52	14:51:26	213366	5.0.10.0	5_exp_noRW	14	Rpleas_acq	CS_A	YFFY	ZHHZ	LWWL	DXXD	JQQJ	CPPC	genießen	küssen	träumen	gütig	sonnig	vertrauen	gemein	krank	töten	gierig	sterben	versagen	47pct	acq_USunple_CSunple1_noRW	acq1_noRW	1	46	0	0	300	300	866	46	0	1	1	blank2r.bmp	0	1	+	0	1	blank2r.bmp	252	1	LWWL	306	2	krank	559	0	0	0	0	0	0	0	0	0	0	0	0	0	0	0	0	0	0	0	0	0	0	0	0	0	0	0	0	0	0	0	0	0	0	0	0	0	0	0
070319	14:47:52	14:51:28	215245	5.0.10.0	5_exp_noRW	14	Rpleas_acq	CS_A	YFFY	ZHHZ	LWWL	DXXD	JQQJ	CPPC	genießen	küssen	träumen	gütig	sonnig	vertrauen	gemein	krank	töten	gierig	sterben	versagen	53pct	acq_USunple_CSunple2_noRW	acq1_noRW	1	47	0	0	300	300	709	46	0	1	1	blank2r.bmp	0	1	+	0	1	blank2r.bmp	252	1	DXXD	306	2	sterben	559	0	0	0	0	0	0	0	0	0	0	0	0	0	0	0	0	0	0	0	0	0	0	0	0	0	0	0	0	0	0	0	0	0	0	0	0	0	0	0
070319	14:47:52	14:51:30	217457	5.0.10.0	5_exp_noRW	14	Rpleas_acq	CS_A	YFFY	ZHHZ	LWWL	DXXD	JQQJ	CPPC	genießen	küssen	träumen	gütig	sonnig	vertrauen	gemein	krank	töten	gierig	sterben	versagen	53pct	acq_USpleas_CSpleas2_noRW	acq1_noRW	1	48	0	0	300	300	1025	50	0	1	1	blank2r.bmp	0	1	+	0	1	blank2r.bmp	252	1	ZHHZ	306	3	vertrauen	559	0	0	0	0	0	0	0	0	0	0	0	0	0	0	0	0	0	0	0	0	0	0	0	0	0	0	0	0	0	0	0	0	0	0	0	0	0	0	0
070319	14:47:52	14:51:32	219296	5.0.10.0	5_exp_noRW	14	Rpleas_acq	CS_A	YFFY	ZHHZ	LWWL	DXXD	JQQJ	CPPC	genießen	küssen	träumen	gütig	sonnig	vertrauen	gemein	krank	töten	gierig	sterben	versagen	47pct	acq_USpleas_CSpleas2_noRW	acq1_noRW	1	49	0	0	300	300	656	50	0	1	1	blank2r.bmp	0	1	+	0	1	blank2r.bmp	252	1	ZHHZ	306	2	sonnig	559	0	0	0	0	0	0	0	0	0	0	0	0	0	0	0	0	0	0	0	0	0	0	0	0	0	0	0	0	0	0	0	0	0	0	0	0	0	0	0
070319	14:47:52	14:51:35	221949	5.0.10.0	5_exp_noRW	14	Rpleas_acq	CS_A	YFFY	ZHHZ	LWWL	DXXD	JQQJ	CPPC	genießen	küssen	träumen	gütig	sonnig	vertrauen	gemein	krank	töten	gierig	sterben	versagen	53pct	acq_USunple_CSunple1_noRW	acq1_noRW	1	50	0	0	300	300	1259	50	0	0	1	blank2r.bmp	0	1	+	0	1	blank2r.bmp	252	1	LWWL	306	1	gemein	559	1	FEHLER	1852	0	0	0	0	0	0	0	0	0	0	0	0	0	0	0	0	0	0	0	0	0	0	0	0	0	0	0	0	0	0	0	0	0	0	0	0
070319	14:47:52	14:51:36	223668	5.0.10.0	5_exp_noRW	14	Rpleas_acq	CS_A	YFFY	ZHHZ	LWWL	DXXD	JQQJ	CPPC	genießen	küssen	träumen	gütig	sonnig	vertrauen	gemein	krank	töten	gierig	sterben	versagen	53pct	acq_USpleas_CSunple2_noRW	acq1_noRW	1	51	0	0	300	300	766	50	0	1	1	blank2r.bmp	0	1	+	0	1	blank2r.bmp	252	1	DXXD	306	2	sonnig	559	0	0	0	0	0	0	0	0	0	0	0	0	0	0	0	0	0	0	0	0	0	0	0	0	0	0	0	0	0	0	0	0	0	0	0	0	0	0	0
070319	14:47:52	14:51:38	225507	5.0.10.0	5_exp_noRW	14	Rpleas_acq	CS_A	YFFY	ZHHZ	LWWL	DXXD	JQQJ	CPPC	genießen	küssen	träumen	gütig	sonnig	vertrauen	gemein	krank	töten	gierig	sterben	versagen	47pct	acq_USunple_CSunple1_noRW	acq1_noRW	1	52	0	0	300	300	663	46	0	1	1	blank2r.bmp	0	1	+	0	1	blank2r.bmp	252	1	LWWL	306	3	töten	559	0	0	0	0	0	0	0	0	0	0	0	0	0	0	0	0	0	0	0	0	0	0	0	0	0	0	0	0	0	0	0	0	0	0	0	0	0	0	0
070319	14:47:52	14:51:41	227853	5.0.10.0	5_exp_noRW	14	Rpleas_acq	CS_A	YFFY	ZHHZ	LWWL	DXXD	JQQJ	CPPC	genießen	küssen	träumen	gütig	sonnig	vertrauen	gemein	krank	töten	gierig	sterben	versagen	53pct	acq_USpleas_CSpleas2_noRW	acq1_noRW	1	53	0	0	300	300	956	46	0	0	1	blank2r.bmp	0	1	+	0	1	blank2r.bmp	252	1	ZHHZ	306	1	gütig	559	1	FEHLER	1546	0	0	0	0	0	0	0	0	0	0	0	0	0	0	0	0	0	0	0	0	0	0	0	0	0	0	0	0	0	0	0	0	0	0	0	0
070319	14:47:52	14:51:42	229519	5.0.10.0	5_exp_noRW	14	Rpleas_acq	CS_A	YFFY	ZHHZ	LWWL	DXXD	JQQJ	CPPC	genießen	küssen	träumen	gütig	sonnig	vertrauen	gemein	krank	töten	gierig	sterben	versagen	47pct	acq_USpleas_CSpleas1_noRW	acq1_noRW	1	54	0	0	300	300	693	50	0	1	1	blank2r.bmp	0	1	+	0	1	blank2r.bmp	252	1	YFFY	306	2	küssen	559	0	0	0	0	0	0	0	0	0	0	0	0	0	0	0	0	0	0	0	0	0	0	0	0	0	0	0	0	0	0	0	0	0	0	0	0	0	0	0
070319	14:47:52	14:51:44	231598	5.0.10.0	5_exp_noRW	14	Rpleas_acq	CS_A	YFFY	ZHHZ	LWWL	DXXD	JQQJ	CPPC	genießen	küssen	träumen	gütig	sonnig	vertrauen	gemein	krank	töten	gierig	sterben	versagen	53pct	acq_USunple_CSunple2_noRW	acq1_noRW	1	55	0	0	300	300	704	50	0	0	1	blank2r.bmp	0	1	+	0	1	blank2r.bmp	252	1	DXXD	306	1	gierig	559	1	FEHLER	1292	0	0	0	0	0	0	0	0	0	0	0	0	0	0	0	0	0	0	0	0	0	0	0	0	0	0	0	0	0	0	0	0	0	0	0	0
070319	14:47:52	14:51:46	233171	5.0.10.0	5_exp_noRW	14	Rpleas_acq	CS_A	YFFY	ZHHZ	LWWL	DXXD	JQQJ	CPPC	genießen	küssen	träumen	gütig	sonnig	vertrauen	gemein	krank	töten	gierig	sterben	versagen	47pct	acq_USpleas_CSunple1_noRW	acq1_noRW	1	56	0	0	300	300	608	50	0	1	1	blank2r.bmp	0	1	+	0	1	blank2r.bmp	252	1	LWWL	306	2	küssen	559	0	0	0	0	0	0	0	0	0	0	0	0	0	0	0	0	0	0	0	0	0	0	0	0	0	0	0	0	0	0	0	0	0	0	0	0	0	0	0
070319	14:47:52	14:51:48	235077	5.0.10.0	5_exp_noRW	14	Rpleas_acq	CS_A	YFFY	ZHHZ	LWWL	DXXD	JQQJ	CPPC	genießen	küssen	träumen	gütig	sonnig	vertrauen	gemein	krank	töten	gierig	sterben	versagen	53pct	acq_USunple_CSunple2_noRW	acq1_noRW	1	57	0	0	300	300	736	46	0	1	1	blank2r.bmp	0	1	+	0	1	blank2r.bmp	252	1	DXXD	306	3	versagen	559	0	0	0	0	0	0	0	0	0	0	0	0	0	0	0	0	0	0	0	0	0	0	0	0	0	0	0	0	0	0	0	0	0	0	0	0	0	0	0
070319	14:47:52	14:51:50	236849	5.0.10.0	5_exp_noRW	14	Rpleas_acq	CS_A	YFFY	ZHHZ	LWWL	DXXD	JQQJ	CPPC	genießen	küssen	träumen	gütig	sonnig	vertrauen	gemein	krank	töten	gierig	sterben	versagen	47pct	acq_USpleas_CSpleas1_noRW	acq1_noRW	1	58	0	0	300	300	601	50	0	1	1	blank2r.bmp	0	1	+	0	1	blank2r.bmp	252	1	YFFY	306	3	träumen	559	0	0	0	0	0	0	0	0	0	0	0	0	0	0	0	0	0	0	0	0	0	0	0	0	0	0	0	0	0	0	0	0	0	0	0	0	0	0	0
070319	14:47:52	14:51:52	238755	5.0.10.0	5_exp_noRW	14	Rpleas_acq	CS_A	YFFY	ZHHZ	LWWL	DXXD	JQQJ	CPPC	genießen	küssen	träumen	gütig	sonnig	vertrauen	gemein	krank	töten	gierig	sterben	versagen	47pct	acq_USunple_CSpleas1_noRW	acq1_noRW	1	59	0	0	300	300	731	46	0	1	1	blank2r.bmp	0	1	+	0	1	blank2r.bmp	252	1	YFFY	306	2	krank	559	0	0	0	0	0	0	0	0	0	0	0	0	0	0	0	0	0	0	0	0	0	0	0	0	0	0	0	0	0	0	0	0	0	0	0	0	0	0	0
070319	14:47:52	14:51:53	240608	5.0.10.0	5_exp_noRW	14	Rpleas_acq	CS_A	YFFY	ZHHZ	LWWL	DXXD	JQQJ	CPPC	genießen	küssen	träumen	gütig	sonnig	vertrauen	gemein	krank	töten	gierig	sterben	versagen	47pct	acq_USpleas_CSpleas2_noRW	acq1_noRW	1	60	0	0	300	300	664	50	0	1	1	blank2r.bmp	0	1	+	0	1	blank2r.bmp	252	1	ZHHZ	306	3	vertrauen	559	0	0	0	0	0	0	0	0	0	0	0	0	0	0	0	0	0	0	0	0	0	0	0	0	0	0	0	0	0	0	0	0	0	0	0	0	0	0	0
070319	14:47:52	14:51:55	242394	5.0.10.0	5_exp_noRW	14	Rpleas_acq	CS_A	YFFY	ZHHZ	LWWL	DXXD	JQQJ	CPPC	genießen	küssen	träumen	gütig	sonnig	vertrauen	gemein	krank	töten	gierig	sterben	versagen	47pct	acq_USpleas_CSpleas1_noRW	acq1_noRW	1	61	0	0	300	300	604	50	0	1	1	blank2r.bmp	0	1	+	0	1	blank2r.bmp	252	1	YFFY	306	3	träumen	559	0	0	0	0	0	0	0	0	0	0	0	0	0	0	0	0	0	0	0	0	0	0	0	0	0	0	0	0	0	0	0	0	0	0	0	0	0	0	0
070319	14:47:52	14:51:57	244380	5.0.10.0	5_exp_noRW	14	Rpleas_acq	CS_A	YFFY	ZHHZ	LWWL	DXXD	JQQJ	CPPC	genießen	küssen	träumen	gütig	sonnig	vertrauen	gemein	krank	töten	gierig	sterben	versagen	53pct	acq_USpleas_CSunple2_noRW	acq1_noRW	1	62	0	0	300	300	601	46	0	0	1	blank2r.bmp	0	1	+	0	1	blank2r.bmp	252	1	DXXD	306	1	gütig	559	1	FEHLER	1199	0	0	0	0	0	0	0	0	0	0	0	0	0	0	0	0	0	0	0	0	0	0	0	0	0	0	0	0	0	0	0	0	0	0	0	0
070319	14:47:52	14:52:00	246832	5.0.10.0	5_exp_noRW	14	Rpleas_acq	CS_A	YFFY	ZHHZ	LWWL	DXXD	JQQJ	CPPC	genießen	küssen	träumen	gütig	sonnig	vertrauen	gemein	krank	töten	gierig	sterben	versagen	47pct	acq_USunple_CSunple1_noRW	acq1_noRW	1	63	0	0	300	300	1273	50	0	0	1	blank2r.bmp	0	1	+	0	1	blank2r.bmp	252	1	LWWL	306	1	gemein	559	1	FEHLER	1865	0	0	0	0	0	0	0	0	0	0	0	0	0	0	0	0	0	0	0	0	0	0	0	0	0	0	0	0	0	0	0	0	0	0	0	0
070319	14:47:52	14:52:01	248551	5.0.10.0	5_exp_noRW	14	Rpleas_acq	CS_A	YFFY	ZHHZ	LWWL	DXXD	JQQJ	CPPC	genießen	küssen	träumen	gütig	sonnig	vertrauen	gemein	krank	töten	gierig	sterben	versagen	53pct	acq_USunple_CSunple1_noRW	acq1_noRW	1	64	0	0	300	300	770	46	0	1	1	blank2r.bmp	0	1	+	0	1	blank2r.bmp	252	1	LWWL	306	3	töten	559	0	0	0	0	0	0	0	0	0	0	0	0	0	0	0	0	0	0	0	0	0	0	0	0	0	0	0	0	0	0	0	0	0	0	0	0	0	0	0
070319	14:47:52	14:52:04	250764	5.0.10.0	5_exp_noRW	14	Rpleas_acq	CS_A	YFFY	ZHHZ	LWWL	DXXD	JQQJ	CPPC	genießen	küssen	träumen	gütig	sonnig	vertrauen	gemein	krank	töten	gierig	sterben	versagen	47pct	acq_USunple_CSunple2_noRW	acq1_noRW	1	65	0	0	300	300	834	50	0	0	1	blank2r.bmp	0	1	+	0	1	blank2r.bmp	252	1	DXXD	306	1	gierig	559	1	FEHLER	1426	0	0	0	0	0	0	0	0	0	0	0	0	0	0	0	0	0	0	0	0	0	0	0	0	0	0	0	0	0	0	0	0	0	0	0	0
070319	14:47:52	14:52:05	252443	5.0.10.0	5_exp_noRW	14	Rpleas_acq	CS_A	YFFY	ZHHZ	LWWL	DXXD	JQQJ	CPPC	genießen	küssen	träumen	gütig	sonnig	vertrauen	gemein	krank	töten	gierig	sterben	versagen	47pct	acq_USpleas_CSpleas1_noRW	acq1_noRW	1	66	0	0	300	300	512	46	0	0	1	blank2r.bmp	0	1	+	0	1	blank2r.bmp	252	1	YFFY	306	1	genießen	559	1	FEHLER	1106	0	0	0	0	0	0	0	0	0	0	0	0	0	0	0	0	0	0	0	0	0	0	0	0	0	0	0	0	0	0	0	0	0	0	0	0
070319	14:47:52	14:52:07	254256	5.0.10.0	5_exp_noRW	14	Rpleas_acq	CS_A	YFFY	ZHHZ	LWWL	DXXD	JQQJ	CPPC	genießen	küssen	träumen	gütig	sonnig	vertrauen	gemein	krank	töten	gierig	sterben	versagen	47pct	acq_USunple_CSpleas2_noRW	acq1_noRW	1	67	0	0	300	300	851	46	0	1	1	blank2r.bmp	0	1	+	0	1	blank2r.bmp	252	1	ZHHZ	306	3	versagen	559	0	0	0	0	0	0	0	0	0	0	0	0	0	0	0	0	0	0	0	0	0	0	0	0	0	0	0	0	0	0	0	0	0	0	0	0	0	0	0
070319	14:47:52	14:52:09	256068	5.0.10.0	5_exp_noRW	14	Rpleas_acq	CS_A	YFFY	ZHHZ	LWWL	DXXD	JQQJ	CPPC	genießen	küssen	träumen	gütig	sonnig	vertrauen	gemein	krank	töten	gierig	sterben	versagen	47pct	acq_USpleas_CSpleas2_noRW	acq1_noRW	1	68	0	0	300	300	634	50	0	1	1	blank2r.bmp	0	1	+	0	1	blank2r.bmp	252	1	ZHHZ	306	1	gütig	559	0	0	0	0	0	0	0	0	0	0	0	0	0	0	0	0	0	0	0	0	0	0	0	0	0	0	0	0	0	0	0	0	0	0	0	0	0	0	0
070319	14:47:52	14:52:11	258014	5.0.10.0	5_exp_noRW	14	Rpleas_acq	CS_A	YFFY	ZHHZ	LWWL	DXXD	JQQJ	CPPC	genießen	küssen	träumen	gütig	sonnig	vertrauen	gemein	krank	töten	gierig	sterben	versagen	53pct	acq_USpleas_CSunple1_noRW	acq1_noRW	1	69	0	0	300	300	760	50	0	1	1	blank2r.bmp	0	1	+	0	1	blank2r.bmp	252	1	LWWL	306	1	genießen	559	0	0	0	0	0	0	0	0	0	0	0	0	0	0	0	0	0	0	0	0	0	0	0	0	0	0	0	0	0	0	0	0	0	0	0	0	0	0	0
070319	14:47:52	14:52:13	259760	5.0.10.0	5_exp_noRW	14	Rpleas_acq	CS_A	YFFY	ZHHZ	LWWL	DXXD	JQQJ	CPPC	genießen	küssen	träumen	gütig	sonnig	vertrauen	gemein	krank	töten	gierig	sterben	versagen	47pct	acq_USpleas_CSpleas2_noRW	acq1_noRW	1	70	0	0	300	300	573	50	0	1	1	blank2r.bmp	0	1	+	0	1	blank2r.bmp	252	1	ZHHZ	306	2	sonnig	559	0	0	0	0	0	0	0	0	0	0	0	0	0	0	0	0	0	0	0	0	0	0	0	0	0	0	0	0	0	0	0	0	0	0	0	0	0	0	0
070319	14:47:52	14:52:14	261573	5.0.10.0	5_exp_noRW	14	Rpleas_acq	CS_A	YFFY	ZHHZ	LWWL	DXXD	JQQJ	CPPC	genießen	küssen	träumen	gütig	sonnig	vertrauen	gemein	krank	töten	gierig	sterben	versagen	53pct	acq_USunple_CSunple1_noRW	acq1_noRW	1	71	0	0	300	300	639	46	0	1	1	blank2r.bmp	0	1	+	0	1	blank2r.bmp	252	1	LWWL	306	2	krank	559	0	0	0	0	0	0	0	0	0	0	0	0	0	0	0	0	0	0	0	0	0	0	0	0	0	0	0	0	0	0	0	0	0	0	0	0	0	0	0
070319	14:47:52	14:52:17	263918	5.0.10.0	5_exp_noRW	14	Rpleas_acq	CS_A	YFFY	ZHHZ	LWWL	DXXD	JQQJ	CPPC	genießen	küssen	träumen	gütig	sonnig	vertrauen	gemein	krank	töten	gierig	sterben	versagen	53pct	acq_USpleas_CSpleas2_noRW	acq1_noRW	1	72	0	0	300	300	1178	50	0	1	1	blank2r.bmp	0	1	+	0	1	blank2r.bmp	252	1	ZHHZ	306	3	vertrauen	559	0	0	0	0	0	0	0	0	0	0	0	0	0	0	0	0	0	0	0	0	0	0	0	0	0	0	0	0	0	0	0	0	0	0	0	0	0	0	0
070319	14:47:52	14:52:18	265678	5.0.10.0	5_exp_noRW	14	Rpleas_acq	CS_A	YFFY	ZHHZ	LWWL	DXXD	JQQJ	CPPC	genießen	küssen	träumen	gütig	sonnig	vertrauen	gemein	krank	töten	gierig	sterben	versagen	47pct	acq_USpleas_CSpleas1_noRW	acq1_noRW	1	73	0	0	300	300	586	50	0	1	1	blank2r.bmp	0	1	+	0	1	blank2r.bmp	252	1	YFFY	306	2	küssen	559	0	0	0	0	0	0	0	0	0	0	0	0	0	0	0	0	0	0	0	0	0	0	0	0	0	0	0	0	0	0	0	0	0	0	0	0	0	0	0
070319	14:47:52	14:52:20	267397	5.0.10.0	5_exp_noRW	14	Rpleas_acq	CS_A	YFFY	ZHHZ	LWWL	DXXD	JQQJ	CPPC	genießen	küssen	träumen	gütig	sonnig	vertrauen	gemein	krank	töten	gierig	sterben	versagen	53pct	acq_USpleas_CSpleas1_noRW	acq1_noRW	1	74	0	0	300	300	537	50	0	1	1	blank2r.bmp	0	1	+	0	1	blank2r.bmp	252	1	YFFY	306	1	genießen	559	0	0	0	0	0	0	0	0	0	0	0	0	0	0	0	0	0	0	0	0	0	0	0	0	0	0	0	0	0	0	0	0	0	0	0	0	0	0	0
070319	14:47:52	14:52:22	269156	5.0.10.0	5_exp_noRW	14	Rpleas_acq	CS_A	YFFY	ZHHZ	LWWL	DXXD	JQQJ	CPPC	genießen	küssen	träumen	gütig	sonnig	vertrauen	gemein	krank	töten	gierig	sterben	versagen	47pct	acq_USunple_CSpleas1_noRW	acq1_noRW	1	75	0	0	300	300	592	46	0	1	1	blank2r.bmp	0	1	+	0	1	blank2r.bmp	252	1	YFFY	306	2	krank	559	0	0	0	0	0	0	0	0	0	0	0	0	0	0	0	0	0	0	0	0	0	0	0	0	0	0	0	0	0	0	0	0	0	0	0	0	0	0	0
070319	14:47:52	14:52:25	271942	5.0.10.0	5_exp_noRW	14	Rpleas_acq	CS_A	YFFY	ZHHZ	LWWL	DXXD	JQQJ	CPPC	genießen	küssen	träumen	gütig	sonnig	vertrauen	gemein	krank	töten	gierig	sterben	versagen	47pct	acq_USunple_CSunple2_noRW	acq1_noRW	1	76	0	0	300	300	1605	46	0	1	1	blank2r.bmp	0	1	+	0	1	blank2r.bmp	252	1	DXXD	306	3	versagen	559	0	0	0	0	0	0	0	0	0	0	0	0	0	0	0	0	0	0	0	0	0	0	0	0	0	0	0	0	0	0	0	0	0	0	0	0	0	0	0
070319	14:47:52	14:52:26	273701	5.0.10.0	5_exp_noRW	14	Rpleas_acq	CS_A	YFFY	ZHHZ	LWWL	DXXD	JQQJ	CPPC	genießen	küssen	träumen	gütig	sonnig	vertrauen	gemein	krank	töten	gierig	sterben	versagen	53pct	acq_USunple_CSunple2_noRW	acq1_noRW	1	77	0	0	300	300	581	46	0	1	1	blank2r.bmp	0	1	+	0	1	blank2r.bmp	252	1	DXXD	306	2	sterben	559	0	0	0	0	0	0	0	0	0	0	0	0	0	0	0	0	0	0	0	0	0	0	0	0	0	0	0	0	0	0	0	0	0	0	0	0	0	0	0
070319	14:47:52	14:52:28	275434	5.0.10.0	5_exp_noRW	14	Rpleas_acq	CS_A	YFFY	ZHHZ	LWWL	DXXD	JQQJ	CPPC	genießen	küssen	träumen	gütig	sonnig	vertrauen	gemein	krank	töten	gierig	sterben	versagen	53pct	acq_USunple_CSunple1_noRW	acq1_noRW	1	78	0	0	300	300	564	46	0	1	1	blank2r.bmp	0	1	+	0	1	blank2r.bmp	252	1	LWWL	306	2	krank	559	0	0	0	0	0	0	0	0	0	0	0	0	0	0	0	0	0	0	0	0	0	0	0	0	0	0	0	0	0	0	0	0	0	0	0	0	0	0	0
070319	14:47:52	14:52:30	277406	5.0.10.0	5_exp_noRW	14	Rpleas_acq	CS_A	YFFY	ZHHZ	LWWL	DXXD	JQQJ	CPPC	genießen	küssen	träumen	gütig	sonnig	vertrauen	gemein	krank	töten	gierig	sterben	versagen	47pct	acq_USpleas_CSpleas2_noRW	acq1_noRW	1	79	0	0	300	300	799	50	0	1	1	blank2r.bmp	0	1	+	0	1	blank2r.bmp	252	1	ZHHZ	306	1	gütig	559	0	0	0	0	0	0	0	0	0	0	0	0	0	0	0	0	0	0	0	0	0	0	0	0	0	0	0	0	0	0	0	0	0	0	0	0	0	0	0
070319	14:47:52	14:52:32	279125	5.0.10.0	5_exp_noRW	14	Rpleas_acq	CS_A	YFFY	ZHHZ	LWWL	DXXD	JQQJ	CPPC	genießen	küssen	träumen	gütig	sonnig	vertrauen	gemein	krank	töten	gierig	sterben	versagen	53pct	acq_USunple_CSunple2_noRW	acq1_noRW	1	80	0	0	300	300	547	46	0	1	1	blank2r.bmp	0	1	+	0	1	blank2r.bmp	252	1	DXXD	306	3	versagen	559	0	0	0	0	0	0	0	0	0	0	0	0	0	0	0	0	0	0	0	0	0	0	0	0	0	0	0	0	0	0	0	0	0	0	0	0	0	0	0
070319	14:47:52	14:52:54	300797	5.0.10.0	5_exp_noRW	14	Rpleas_acq	CS_A	YFFY	ZHHZ	LWWL	DXXD	JQQJ	CPPC	genießen	küssen	träumen	gütig	sonnig	vertrauen	gemein	krank	töten	gierig	sterben	versagen	47pct	acq_USpleas_CSpleas1_noRW	acq23456_noRW	2	1	0	0	300	300	2000	0	0	0	1	blank2r.bmp	0	1	+	0	1	blank2r.bmp	252	1	YFFY	306	3	träumen	559	1	FEHLER	2598	1	Schneller!	2598	0	0	0	0	0	0	0	0	0	0	0	0	0	0	0	0	0	0	0	0	0	0	0	0	0	0	0	0	0	0	0	0	0
070319	14:47:52	14:52:55	302303	5.0.10.0	5_exp_noRW	14	Rpleas_acq	CS_A	YFFY	ZHHZ	LWWL	DXXD	JQQJ	CPPC	genießen	küssen	träumen	gütig	sonnig	vertrauen	gemein	krank	töten	gierig	sterben	versagen	47pct	acq_USunple_CSpleas2_noRW	acq23456_noRW	2	2	0	0	300	300	611	46	0	1	1	blank2r.bmp	0	1	+	0	1	blank2r.bmp	252	1	ZHHZ	306	2	sterben	559	0	0	0	0	0	0	0	0	0	0	0	0	0	0	0	0	0	0	0	0	0	0	0	0	0	0	0	0	0	0	0	0	0	0	0	0	0	0	0
070319	14:47:52	14:52:57	304448	5.0.10.0	5_exp_noRW	14	Rpleas_acq	CS_A	YFFY	ZHHZ	LWWL	DXXD	JQQJ	CPPC	genießen	küssen	träumen	gütig	sonnig	vertrauen	gemein	krank	töten	gierig	sterben	versagen	53pct	acq_USpleas_CSunple2_noRW	acq23456_noRW	2	3	0	0	300	300	979	50	0	1	1	blank2r.bmp	0	1	+	0	1	blank2r.bmp	252	1	DXXD	306	3	vertrauen	559	0	0	0	0	0	0	0	0	0	0	0	0	0	0	0	0	0	0	0	0	0	0	0	0	0	0	0	0	0	0	0	0	0	0	0	0	0	0	0
070319	14:47:52	14:52:59	306168	5.0.10.0	5_exp_noRW	14	Rpleas_acq	CS_A	YFFY	ZHHZ	LWWL	DXXD	JQQJ	CPPC	genießen	küssen	träumen	gütig	sonnig	vertrauen	gemein	krank	töten	gierig	sterben	versagen	47pct	acq_USunple_CSunple2_noRW	acq23456_noRW	2	4	0	0	300	300	554	46	0	1	1	blank2r.bmp	0	1	+	0	1	blank2r.bmp	252	1	DXXD	306	2	sterben	559	0	0	0	0	0	0	0	0	0	0	0	0	0	0	0	0	0	0	0	0	0	0	0	0	0	0	0	0	0	0	0	0	0	0	0	0	0	0	0
070319	14:47:52	14:53:01	308647	5.0.10.0	5_exp_noRW	14	Rpleas_acq	CS_A	YFFY	ZHHZ	LWWL	DXXD	JQQJ	CPPC	genießen	küssen	träumen	gütig	sonnig	vertrauen	gemein	krank	töten	gierig	sterben	versagen	47pct	acq_USunple_CSunple2_noRW	acq23456_noRW	2	5	0	0	300	300	1089	50	0	0	1	blank2r.bmp	0	1	+	0	1	blank2r.bmp	252	1	DXXD	306	1	gierig	559	1	FEHLER	1679	0	0	0	0	0	0	0	0	0	0	0	0	0	0	0	0	0	0	0	0	0	0	0	0	0	0	0	0	0	0	0	0	0	0	0	0
070319	14:47:52	14:53:03	310233	5.0.10.0	5_exp_noRW	14	Rpleas_acq	CS_A	YFFY	ZHHZ	LWWL	DXXD	JQQJ	CPPC	genießen	küssen	träumen	gütig	sonnig	vertrauen	gemein	krank	töten	gierig	sterben	versagen	53pct	acq_USpleas_CSpleas2_noRW	acq23456_noRW	2	6	0	0	300	300	613	50	0	1	1	blank2r.bmp	0	1	+	0	1	blank2r.bmp	252	1	ZHHZ	306	2	sonnig	559	0	0	0	0	0	0	0	0	0	0	0	0	0	0	0	0	0	0	0	0	0	0	0	0	0	0	0	0	0	0	0	0	0	0	0	0	0	0	0
070319	14:47:52	14:53:05	312179	5.0.10.0	5_exp_noRW	14	Rpleas_acq	CS_A	YFFY	ZHHZ	LWWL	DXXD	JQQJ	CPPC	genießen	küssen	träumen	gütig	sonnig	vertrauen	gemein	krank	töten	gierig	sterben	versagen	53pct	acq_USunple_CSunple2_noRW	acq23456_noRW	2	7	0	0	300	300	777	46	0	1	1	blank2r.bmp	0	1	+	0	1	blank2r.bmp	252	1	DXXD	306	3	versagen	559	0	0	0	0	0	0	0	0	0	0	0	0	0	0	0	0	0	0	0	0	0	0	0	0	0	0	0	0	0	0	0	0	0	0	0	0	0	0	0
070319	14:47:52	14:53:07	314351	5.0.10.0	5_exp_noRW	14	Rpleas_acq	CS_A	YFFY	ZHHZ	LWWL	DXXD	JQQJ	CPPC	genießen	küssen	träumen	gütig	sonnig	vertrauen	gemein	krank	töten	gierig	sterben	versagen	47pct	acq_USpleas_CSpleas2_noRW	acq23456_noRW	2	8	0	0	300	300	991	50	0	1	1	blank2r.bmp	0	1	+	0	1	blank2r.bmp	252	1	ZHHZ	306	3	vertrauen	559	0	0	0	0	0	0	0	0	0	0	0	0	0	0	0	0	0	0	0	0	0	0	0	0	0	0	0	0	0	0	0	0	0	0	0	0	0	0	0
070319	14:47:52	14:53:09	316257	5.0.10.0	5_exp_noRW	14	Rpleas_acq	CS_A	YFFY	ZHHZ	LWWL	DXXD	JQQJ	CPPC	genießen	küssen	träumen	gütig	sonnig	vertrauen	gemein	krank	töten	gierig	sterben	versagen	47pct	acq_USpleas_CSpleas1_noRW	acq23456_noRW	2	9	0	0	300	300	744	50	0	1	1	blank2r.bmp	0	1	+	0	1	blank2r.bmp	252	1	YFFY	306	2	küssen	559	0	0	0	0	0	0	0	0	0	0	0	0	0	0	0	0	0	0	0	0	0	0	0	0	0	0	0	0	0	0	0	0	0	0	0	0	0	0	0
070319	14:47:52	14:53:11	317910	5.0.10.0	5_exp_noRW	14	Rpleas_acq	CS_A	YFFY	ZHHZ	LWWL	DXXD	JQQJ	CPPC	genießen	küssen	träumen	gütig	sonnig	vertrauen	gemein	krank	töten	gierig	sterben	versagen	47pct	acq_USpleas_CSunple1_noRW	acq23456_noRW	2	10	0	0	300	300	472	50	0	1	1	blank2r.bmp	0	1	+	0	1	blank2r.bmp	252	1	LWWL	306	3	träumen	559	0	0	0	0	0	0	0	0	0	0	0	0	0	0	0	0	0	0	0	0	0	0	0	0	0	0	0	0	0	0	0	0	0	0	0	0	0	0	0
070319	14:47:52	14:53:13	319909	5.0.10.0	5_exp_noRW	14	Rpleas_acq	CS_A	YFFY	ZHHZ	LWWL	DXXD	JQQJ	CPPC	genießen	küssen	träumen	gütig	sonnig	vertrauen	gemein	krank	töten	gierig	sterben	versagen	47pct	acq_USunple_CSunple1_noRW	acq23456_noRW	2	11	0	0	300	300	612	50	0	0	1	blank2r.bmp	0	1	+	0	1	blank2r.bmp	252	1	LWWL	306	1	gemein	559	1	FEHLER	1212	0	0	0	0	0	0	0	0	0	0	0	0	0	0	0	0	0	0	0	0	0	0	0	0	0	0	0	0	0	0	0	0	0	0	0	0
070319	14:47:52	14:53:14	321588	5.0.10.0	5_exp_noRW	14	Rpleas_acq	CS_A	YFFY	ZHHZ	LWWL	DXXD	JQQJ	CPPC	genießen	küssen	träumen	gütig	sonnig	vertrauen	gemein	krank	töten	gierig	sterben	versagen	47pct	acq_USpleas_CSpleas2_noRW	acq23456_noRW	2	12	0	0	300	300	726	50	0	1	1	blank2r.bmp	0	1	+	0	1	blank2r.bmp	252	1	ZHHZ	306	1	gütig	559	0	0	0	0	0	0	0	0	0	0	0	0	0	0	0	0	0	0	0	0	0	0	0	0	0	0	0	0	0	0	0	0	0	0	0	0	0	0	0
070319	14:47:52	14:53:16	323267	5.0.10.0	5_exp_noRW	14	Rpleas_acq	CS_A	YFFY	ZHHZ	LWWL	DXXD	JQQJ	CPPC	genießen	küssen	träumen	gütig	sonnig	vertrauen	gemein	krank	töten	gierig	sterben	versagen	47pct	acq_USpleas_CSpleas1_noRW	acq23456_noRW	2	13	0	0	300	300	498	50	0	1	1	blank2r.bmp	0	1	+	0	1	blank2r.bmp	252	1	YFFY	306	3	träumen	559	0	0	0	0	0	0	0	0	0	0	0	0	0	0	0	0	0	0	0	0	0	0	0	0	0	0	0	0	0	0	0	0	0	0	0	0	0	0	0
070319	14:47:52	14:53:18	325120	5.0.10.0	5_exp_noRW	14	Rpleas_acq	CS_A	YFFY	ZHHZ	LWWL	DXXD	JQQJ	CPPC	genießen	küssen	träumen	gütig	sonnig	vertrauen	gemein	krank	töten	gierig	sterben	versagen	53pct	acq_USunple_CSpleas1_noRW	acq23456_noRW	2	14	0	0	300	300	464	50	0	0	1	blank2r.bmp	0	1	+	0	1	blank2r.bmp	252	1	YFFY	306	1	gemein	559	1	FEHLER	1052	0	0	0	0	0	0	0	0	0	0	0	0	0	0	0	0	0	0	0	0	0	0	0	0	0	0	0	0	0	0	0	0	0	0	0	0
070319	14:47:52	14:53:20	326733	5.0.10.0	5_exp_noRW	14	Rpleas_acq	CS_A	YFFY	ZHHZ	LWWL	DXXD	JQQJ	CPPC	genießen	küssen	träumen	gütig	sonnig	vertrauen	gemein	krank	töten	gierig	sterben	versagen	47pct	acq_USunple_CSunple1_noRW	acq23456_noRW	2	15	0	0	300	300	436	50	0	0	1	blank2r.bmp	0	1	+	0	1	blank2r.bmp	252	1	LWWL	306	3	töten	559	1	FEHLER	1026	0	0	0	0	0	0	0	0	0	0	0	0	0	0	0	0	0	0	0	0	0	0	0	0	0	0	0	0	0	0	0	0	0	0	0	0
070319	14:47:52	14:53:21	328639	5.0.10.0	5_exp_noRW	14	Rpleas_acq	CS_A	YFFY	ZHHZ	LWWL	DXXD	JQQJ	CPPC	genießen	küssen	träumen	gütig	sonnig	vertrauen	gemein	krank	töten	gierig	sterben	versagen	47pct	acq_USpleas_CSpleas1_noRW	acq23456_noRW	2	16	0	0	300	300	957	50	0	1	1	blank2r.bmp	0	1	+	0	1	blank2r.bmp	252	1	YFFY	306	2	küssen	559	0	0	0	0	0	0	0	0	0	0	0	0	0	0	0	0	0	0	0	0	0	0	0	0	0	0	0	0	0	0	0	0	0	0	0	0	0	0	0
070319	14:47:52	14:53:23	330251	5.0.10.0	5_exp_noRW	14	Rpleas_acq	CS_A	YFFY	ZHHZ	LWWL	DXXD	JQQJ	CPPC	genießen	küssen	träumen	gütig	sonnig	vertrauen	gemein	krank	töten	gierig	sterben	versagen	47pct	acq_USunple_CSunple1_noRW	acq23456_noRW	2	17	0	0	300	300	429	46	0	1	1	blank2r.bmp	0	1	+	0	1	blank2r.bmp	252	1	LWWL	306	3	töten	559	0	0	0	0	0	0	0	0	0	0	0	0	0	0	0	0	0	0	0	0	0	0	0	0	0	0	0	0	0	0	0	0	0	0	0	0	0	0	0
070319	14:47:52	14:53:25	331984	5.0.10.0	5_exp_noRW	14	Rpleas_acq	CS_A	YFFY	ZHHZ	LWWL	DXXD	JQQJ	CPPC	genießen	küssen	träumen	gütig	sonnig	vertrauen	gemein	krank	töten	gierig	sterben	versagen	47pct	acq_USpleas_CSpleas2_noRW	acq23456_noRW	2	18	0	0	300	300	570	50	0	1	1	blank2r.bmp	0	1	+	0	1	blank2r.bmp	252	1	ZHHZ	306	2	sonnig	559	0	0	0	0	0	0	0	0	0	0	0	0	0	0	0	0	0	0	0	0	0	0	0	0	0	0	0	0	0	0	0	0	0	0	0	0	0	0	0
070319	14:47:52	14:53:27	333850	5.0.10.0	5_exp_noRW	14	Rpleas_acq	CS_A	YFFY	ZHHZ	LWWL	DXXD	JQQJ	CPPC	genießen	küssen	träumen	gütig	sonnig	vertrauen	gemein	krank	töten	gierig	sterben	versagen	47pct	acq_USunple_CSunple1_noRW	acq23456_noRW	2	19	0	0	300	300	688	46	0	1	1	blank2r.bmp	0	1	+	0	1	blank2r.bmp	252	1	LWWL	306	1	gemein	559	0	0	0	0	0	0	0	0	0	0	0	0	0	0	0	0	0	0	0	0	0	0	0	0	0	0	0	0	0	0	0	0	0	0	0	0	0	0	0
070319	14:47:52	14:53:29	335716	5.0.10.0	5_exp_noRW	14	Rpleas_acq	CS_A	YFFY	ZHHZ	LWWL	DXXD	JQQJ	CPPC	genießen	küssen	träumen	gütig	sonnig	vertrauen	gemein	krank	töten	gierig	sterben	versagen	47pct	acq_USunple_CSunple2_noRW	acq23456_noRW	2	20	0	0	300	300	689	46	0	1	1	blank2r.bmp	0	1	+	0	1	blank2r.bmp	252	1	DXXD	306	2	sterben	559	0	0	0	0	0	0	0	0	0	0	0	0	0	0	0	0	0	0	0	0	0	0	0	0	0	0	0	0	0	0	0	0	0	0	0	0	0	0	0
070319	14:47:52	14:53:30	337648	5.0.10.0	5_exp_noRW	14	Rpleas_acq	CS_A	YFFY	ZHHZ	LWWL	DXXD	JQQJ	CPPC	genießen	küssen	träumen	gütig	sonnig	vertrauen	gemein	krank	töten	gierig	sterben	versagen	53pct	acq_USpleas_CSunple2_noRW	acq23456_noRW	2	21	0	0	300	300	753	50	0	1	1	blank2r.bmp	0	1	+	0	1	blank2r.bmp	252	1	DXXD	306	2	sonnig	559	0	0	0	0	0	0	0	0	0	0	0	0	0	0	0	0	0	0	0	0	0	0	0	0	0	0	0	0	0	0	0	0	0	0	0	0	0	0	0
070319	14:47:52	14:53:32	339674	5.0.10.0	5_exp_noRW	14	Rpleas_acq	CS_A	YFFY	ZHHZ	LWWL	DXXD	JQQJ	CPPC	genießen	küssen	träumen	gütig	sonnig	vertrauen	gemein	krank	töten	gierig	sterben	versagen	53pct	acq_USunple_CSunple2_noRW	acq23456_noRW	2	22	0	0	300	300	842	46	0	1	1	blank2r.bmp	0	1	+	0	1	blank2r.bmp	252	1	DXXD	306	1	gierig	559	0	0	0	0	0	0	0	0	0	0	0	0	0	0	0	0	0	0	0	0	0	0	0	0	0	0	0	0	0	0	0	0	0	0	0	0	0	0	0
070319	14:47:52	14:53:35	341780	5.0.10.0	5_exp_noRW	14	Rpleas_acq	CS_A	YFFY	ZHHZ	LWWL	DXXD	JQQJ	CPPC	genießen	küssen	träumen	gütig	sonnig	vertrauen	gemein	krank	töten	gierig	sterben	versagen	53pct	acq_USpleas_CSpleas2_noRW	acq23456_noRW	2	23	0	0	300	300	933	50	0	1	1	blank2r.bmp	0	1	+	0	1	blank2r.bmp	252	1	ZHHZ	306	3	vertrauen	559	0	0	0	0	0	0	0	0	0	0	0	0	0	0	0	0	0	0	0	0	0	0	0	0	0	0	0	0	0	0	0	0	0	0	0	0	0	0	0
070319	14:47:52	14:53:37	343926	5.0.10.0	5_exp_noRW	14	Rpleas_acq	CS_A	YFFY	ZHHZ	LWWL	DXXD	JQQJ	CPPC	genießen	küssen	träumen	gütig	sonnig	vertrauen	gemein	krank	töten	gierig	sterben	versagen	53pct	acq_USunple_CSunple1_noRW	acq23456_noRW	2	24	0	0	300	300	763	50	0	0	1	blank2r.bmp	0	1	+	0	1	blank2r.bmp	252	1	LWWL	306	2	krank	559	1	FEHLER	1359	0	0	0	0	0	0	0	0	0	0	0	0	0	0	0	0	0	0	0	0	0	0	0	0	0	0	0	0	0	0	0	0	0	0	0	0
070319	14:47:52	14:53:39	345818	5.0.10.0	5_exp_noRW	14	Rpleas_acq	CS_A	YFFY	ZHHZ	LWWL	DXXD	JQQJ	CPPC	genießen	küssen	träumen	gütig	sonnig	vertrauen	gemein	krank	töten	gierig	sterben	versagen	47pct	acq_USunple_CSunple2_noRW	acq23456_noRW	2	25	0	0	300	300	936	46	0	1	1	blank2r.bmp	0	1	+	0	1	blank2r.bmp	252	1	DXXD	306	3	versagen	559	0	0	0	0	0	0	0	0	0	0	0	0	0	0	0	0	0	0	0	0	0	0	0	0	0	0	0	0	0	0	0	0	0	0	0	0	0	0	0
070319	14:47:52	14:53:40	347604	5.0.10.0	5_exp_noRW	14	Rpleas_acq	CS_A	YFFY	ZHHZ	LWWL	DXXD	JQQJ	CPPC	genießen	küssen	träumen	gütig	sonnig	vertrauen	gemein	krank	töten	gierig	sterben	versagen	47pct	acq_USunple_CSunple1_noRW	acq23456_noRW	2	26	0	0	300	300	619	46	0	1	1	blank2r.bmp	0	1	+	0	1	blank2r.bmp	252	1	LWWL	306	3	töten	559	0	0	0	0	0	0	0	0	0	0	0	0	0	0	0	0	0	0	0	0	0	0	0	0	0	0	0	0	0	0	0	0	0	0	0	0	0	0	0
070319	14:47:52	14:53:42	349497	5.0.10.0	5_exp_noRW	14	Rpleas_acq	CS_A	YFFY	ZHHZ	LWWL	DXXD	JQQJ	CPPC	genießen	küssen	träumen	gütig	sonnig	vertrauen	gemein	krank	töten	gierig	sterben	versagen	47pct	acq_USpleas_CSpleas1_noRW	acq23456_noRW	2	27	0	0	300	300	717	50	0	1	1	blank2r.bmp	0	1	+	0	1	blank2r.bmp	252	1	YFFY	306	1	genießen	559	0	0	0	0	0	0	0	0	0	0	0	0	0	0	0	0	0	0	0	0	0	0	0	0	0	0	0	0	0	0	0	0	0	0	0	0	0	0	0
070319	14:47:52	14:53:44	351336	5.0.10.0	5_exp_noRW	14	Rpleas_acq	CS_A	YFFY	ZHHZ	LWWL	DXXD	JQQJ	CPPC	genießen	küssen	träumen	gütig	sonnig	vertrauen	gemein	krank	töten	gierig	sterben	versagen	47pct	acq_USpleas_CSunple1_noRW	acq23456_noRW	2	28	0	0	300	300	660	50	0	1	1	blank2r.bmp	0	1	+	0	1	blank2r.bmp	252	1	LWWL	306	2	küssen	559	0	0	0	0	0	0	0	0	0	0	0	0	0	0	0	0	0	0	0	0	0	0	0	0	0	0	0	0	0	0	0	0	0	0	0	0	0	0	0
070319	14:47:52	14:53:46	353269	5.0.10.0	5_exp_noRW	14	Rpleas_acq	CS_A	YFFY	ZHHZ	LWWL	DXXD	JQQJ	CPPC	genießen	küssen	träumen	gütig	sonnig	vertrauen	gemein	krank	töten	gierig	sterben	versagen	53pct	acq_USunple_CSunple2_noRW	acq23456_noRW	2	29	0	0	300	300	537	50	0	0	1	blank2r.bmp	0	1	+	0	1	blank2r.bmp	252	1	DXXD	306	1	gierig	559	1	FEHLER	1132	0	0	0	0	0	0	0	0	0	0	0	0	0	0	0	0	0	0	0	0	0	0	0	0	0	0	0	0	0	0	0	0	0	0	0	0
070319	14:47:52	14:53:48	355174	5.0.10.0	5_exp_noRW	14	Rpleas_acq	CS_A	YFFY	ZHHZ	LWWL	DXXD	JQQJ	CPPC	genießen	küssen	träumen	gütig	sonnig	vertrauen	gemein	krank	töten	gierig	sterben	versagen	53pct	acq_USunple_CSunple1_noRW	acq23456_noRW	2	30	0	0	300	300	743	50	0	0	1	blank2r.bmp	0	1	+	0	1	blank2r.bmp	252	1	LWWL	306	1	gemein	559	1	FEHLER	1332	0	0	0	0	0	0	0	0	0	0	0	0	0	0	0	0	0	0	0	0	0	0	0	0	0	0	0	0	0	0	0	0	0	0	0	0
070319	14:47:52	14:53:50	357094	5.0.10.0	5_exp_noRW	14	Rpleas_acq	CS_A	YFFY	ZHHZ	LWWL	DXXD	JQQJ	CPPC	genießen	küssen	träumen	gütig	sonnig	vertrauen	gemein	krank	töten	gierig	sterben	versagen	47pct	acq_USpleas_CSpleas2_noRW	acq23456_noRW	2	31	0	0	300	300	951	50	0	1	1	blank2r.bmp	0	1	+	0	1	blank2r.bmp	252	1	ZHHZ	306	1	gütig	559	0	0	0	0	0	0	0	0	0	0	0	0	0	0	0	0	0	0	0	0	0	0	0	0	0	0	0	0	0	0	0	0	0	0	0	0	0	0	0
070319	14:47:52	14:53:52	358960	5.0.10.0	5_exp_noRW	14	Rpleas_acq	CS_A	YFFY	ZHHZ	LWWL	DXXD	JQQJ	CPPC	genießen	küssen	träumen	gütig	sonnig	vertrauen	gemein	krank	töten	gierig	sterben	versagen	47pct	acq_USpleas_CSpleas2_noRW	acq23456_noRW	2	32	0	0	300	300	684	50	0	1	1	blank2r.bmp	0	1	+	0	1	blank2r.bmp	252	1	ZHHZ	306	3	vertrauen	559	0	0	0	0	0	0	0	0	0	0	0	0	0	0	0	0	0	0	0	0	0	0	0	0	0	0	0	0	0	0	0	0	0	0	0	0	0	0	0
070319	14:47:52	14:53:54	360919	5.0.10.0	5_exp_noRW	14	Rpleas_acq	CS_A	YFFY	ZHHZ	LWWL	DXXD	JQQJ	CPPC	genießen	küssen	träumen	gütig	sonnig	vertrauen	gemein	krank	töten	gierig	sterben	versagen	47pct	acq_USunple_CSunple2_noRW	acq23456_noRW	2	33	0	0	300	300	773	46	0	1	1	blank2r.bmp	0	1	+	0	1	blank2r.bmp	252	1	DXXD	306	2	sterben	559	0	0	0	0	0	0	0	0	0	0	0	0	0	0	0	0	0	0	0	0	0	0	0	0	0	0	0	0	0	0	0	0	0	0	0	0	0	0	0
070319	14:47:52	14:53:55	362651	5.0.10.0	5_exp_noRW	14	Rpleas_acq	CS_A	YFFY	ZHHZ	LWWL	DXXD	JQQJ	CPPC	genießen	küssen	träumen	gütig	sonnig	vertrauen	gemein	krank	töten	gierig	sterben	versagen	47pct	acq_USpleas_CSpleas2_noRW	acq23456_noRW	2	34	0	0	300	300	558	50	0	1	1	blank2r.bmp	0	1	+	0	1	blank2r.bmp	252	1	ZHHZ	306	2	sonnig	559	0	0	0	0	0	0	0	0	0	0	0	0	0	0	0	0	0	0	0	0	0	0	0	0	0	0	0	0	0	0	0	0	0	0	0	0	0	0	0
070319	14:47:52	14:53:57	364464	5.0.10.0	5_exp_noRW	14	Rpleas_acq	CS_A	YFFY	ZHHZ	LWWL	DXXD	JQQJ	CPPC	genießen	küssen	träumen	gütig	sonnig	vertrauen	gemein	krank	töten	gierig	sterben	versagen	53pct	acq_USpleas_CSpleas1_noRW	acq23456_noRW	2	35	0	0	300	300	650	50	0	1	1	blank2r.bmp	0	1	+	0	1	blank2r.bmp	252	1	YFFY	306	1	genießen	559	0	0	0	0	0	0	0	0	0	0	0	0	0	0	0	0	0	0	0	0	0	0	0	0	0	0	0	0	0	0	0	0	0	0	0	0	0	0	0
070319	14:47:52	14:53:59	366303	5.0.10.0	5_exp_noRW	14	Rpleas_acq	CS_A	YFFY	ZHHZ	LWWL	DXXD	JQQJ	CPPC	genießen	küssen	träumen	gütig	sonnig	vertrauen	gemein	krank	töten	gierig	sterben	versagen	47pct	acq_USunple_CSpleas1_noRW	acq23456_noRW	2	36	0	0	300	300	660	46	0	1	1	blank2r.bmp	0	1	+	0	1	blank2r.bmp	252	1	YFFY	306	3	töten	559	0	0	0	0	0	0	0	0	0	0	0	0	0	0	0	0	0	0	0	0	0	0	0	0	0	0	0	0	0	0	0	0	0	0	0	0	0	0	0
070319	14:47:52	14:54:01	368182	5.0.10.0	5_exp_noRW	14	Rpleas_acq	CS_A	YFFY	ZHHZ	LWWL	DXXD	JQQJ	CPPC	genießen	küssen	träumen	gütig	sonnig	vertrauen	gemein	krank	töten	gierig	sterben	versagen	53pct	acq_USunple_CSpleas2_noRW	acq23456_noRW	2	37	0	0	300	300	711	46	0	1	1	blank2r.bmp	0	1	+	0	1	blank2r.bmp	252	1	ZHHZ	306	1	gierig	559	0	0	0	0	0	0	0	0	0	0	0	0	0	0	0	0	0	0	0	0	0	0	0	0	0	0	0	0	0	0	0	0	0	0	0	0	0	0	0
070319	14:47:52	14:54:03	370328	5.0.10.0	5_exp_noRW	14	Rpleas_acq	CS_A	YFFY	ZHHZ	LWWL	DXXD	JQQJ	CPPC	genießen	küssen	träumen	gütig	sonnig	vertrauen	gemein	krank	töten	gierig	sterben	versagen	53pct	acq_USpleas_CSpleas1_noRW	acq23456_noRW	2	38	0	0	300	300	958	50	0	1	1	blank2r.bmp	0	1	+	0	1	blank2r.bmp	252	1	YFFY	306	3	träumen	559	0	0	0	0	0	0	0	0	0	0	0	0	0	0	0	0	0	0	0	0	0	0	0	0	0	0	0	0	0	0	0	0	0	0	0	0	0	0	0
070319	14:47:52	14:54:05	372101	5.0.10.0	5_exp_noRW	14	Rpleas_acq	CS_A	YFFY	ZHHZ	LWWL	DXXD	JQQJ	CPPC	genießen	küssen	träumen	gütig	sonnig	vertrauen	gemein	krank	töten	gierig	sterben	versagen	53pct	acq_USpleas_CSpleas1_noRW	acq23456_noRW	2	39	0	0	300	300	604	50	0	1	1	blank2r.bmp	0	1	+	0	1	blank2r.bmp	252	1	YFFY	306	2	küssen	559	0	0	0	0	0	0	0	0	0	0	0	0	0	0	0	0	0	0	0	0	0	0	0	0	0	0	0	0	0	0	0	0	0	0	0	0	0	0	0
070319	14:47:52	14:54:07	373967	5.0.10.0	5_exp_noRW	14	Rpleas_acq	CS_A	YFFY	ZHHZ	LWWL	DXXD	JQQJ	CPPC	genießen	küssen	träumen	gütig	sonnig	vertrauen	gemein	krank	töten	gierig	sterben	versagen	53pct	acq_USunple_CSunple1_noRW	acq23456_noRW	2	40	0	0	300	300	680	46	0	1	1	blank2r.bmp	0	1	+	0	1	blank2r.bmp	252	1	LWWL	306	2	krank	559	0	0	0	0	0	0	0	0	0	0	0	0	0	0	0	0	0	0	0	0	0	0	0	0	0	0	0	0	0	0	0	0	0	0	0	0	0	0	0
070319	14:47:52	14:54:09	375859	5.0.10.0	5_exp_noRW	14	Rpleas_acq	CS_A	YFFY	ZHHZ	LWWL	DXXD	JQQJ	CPPC	genießen	küssen	träumen	gütig	sonnig	vertrauen	gemein	krank	töten	gierig	sterben	versagen	53pct	acq_USunple_CSunple2_noRW	acq23456_noRW	2	41	0	0	300	300	730	46	0	1	1	blank2r.bmp	0	1	+	0	1	blank2r.bmp	252	1	DXXD	306	1	gierig	559	0	0	0	0	0	0	0	0	0	0	0	0	0	0	0	0	0	0	0	0	0	0	0	0	0	0	0	0	0	0	0	0	0	0	0	0	0	0	0
070319	14:47:52	14:54:10	377645	5.0.10.0	5_exp_noRW	14	Rpleas_acq	CS_A	YFFY	ZHHZ	LWWL	DXXD	JQQJ	CPPC	genießen	küssen	träumen	gütig	sonnig	vertrauen	gemein	krank	töten	gierig	sterben	versagen	53pct	acq_USpleas_CSunple1_noRW	acq23456_noRW	2	42	0	0	300	300	605	50	0	1	1	blank2r.bmp	0	1	+	0	1	blank2r.bmp	252	1	LWWL	306	3	träumen	559	0	0	0	0	0	0	0	0	0	0	0	0	0	0	0	0	0	0	0	0	0	0	0	0	0	0	0	0	0	0	0	0	0	0	0	0	0	0	0
070319	14:47:52	14:54:13	379804	5.0.10.0	5_exp_noRW	14	Rpleas_acq	CS_A	YFFY	ZHHZ	LWWL	DXXD	JQQJ	CPPC	genießen	küssen	träumen	gütig	sonnig	vertrauen	gemein	krank	töten	gierig	sterben	versagen	53pct	acq_USpleas_CSpleas2_noRW	acq23456_noRW	2	43	0	0	300	300	998	50	0	1	1	blank2r.bmp	0	1	+	0	1	blank2r.bmp	252	1	ZHHZ	306	1	gütig	559	0	0	0	0	0	0	0	0	0	0	0	0	0	0	0	0	0	0	0	0	0	0	0	0	0	0	0	0	0	0	0	0	0	0	0	0	0	0	0
070319	14:47:52	14:54:14	381550	5.0.10.0	5_exp_noRW	14	Rpleas_acq	CS_A	YFFY	ZHHZ	LWWL	DXXD	JQQJ	CPPC	genießen	küssen	träumen	gütig	sonnig	vertrauen	gemein	krank	töten	gierig	sterben	versagen	47pct	acq_USunple_CSunple1_noRW	acq23456_noRW	2	44	0	0	300	300	570	46	0	1	1	blank2r.bmp	0	1	+	0	1	blank2r.bmp	252	1	LWWL	306	2	krank	559	0	0	0	0	0	0	0	0	0	0	0	0	0	0	0	0	0	0	0	0	0	0	0	0	0	0	0	0	0	0	0	0	0	0	0	0	0	0	0
070319	14:47:52	14:54:17	384269	5.0.10.0	5_exp_noRW	14	Rpleas_acq	CS_A	YFFY	ZHHZ	LWWL	DXXD	JQQJ	CPPC	genießen	küssen	träumen	gütig	sonnig	vertrauen	gemein	krank	töten	gierig	sterben	versagen	47pct	acq_USunple_CSpleas2_noRW	acq23456_noRW	2	45	0	0	300	300	1325	50	0	0	1	blank2r.bmp	0	1	+	0	1	blank2r.bmp	252	1	ZHHZ	306	1	gierig	559	1	FEHLER	1919	0	0	0	0	0	0	0	0	0	0	0	0	0	0	0	0	0	0	0	0	0	0	0	0	0	0	0	0	0	0	0	0	0	0	0	0
070319	14:47:52	14:54:19	386548	5.0.10.0	5_exp_noRW	14	Rpleas_acq	CS_A	YFFY	ZHHZ	LWWL	DXXD	JQQJ	CPPC	genießen	küssen	träumen	gütig	sonnig	vertrauen	gemein	krank	töten	gierig	sterben	versagen	53pct	acq_USunple_CSunple1_noRW	acq23456_noRW	2	46	0	0	300	300	1108	50	0	0	1	blank2r.bmp	0	1	+	0	1	blank2r.bmp	252	1	LWWL	306	1	gemein	559	1	FEHLER	1705	0	0	0	0	0	0	0	0	0	0	0	0	0	0	0	0	0	0	0	0	0	0	0	0	0	0	0	0	0	0	0	0	0	0	0	0
070319	14:47:52	14:54:21	388228	5.0.10.0	5_exp_noRW	14	Rpleas_acq	CS_A	YFFY	ZHHZ	LWWL	DXXD	JQQJ	CPPC	genießen	küssen	träumen	gütig	sonnig	vertrauen	gemein	krank	töten	gierig	sterben	versagen	53pct	acq_USpleas_CSpleas2_noRW	acq23456_noRW	2	47	0	0	300	300	725	50	0	1	1	blank2r.bmp	0	1	+	0	1	blank2r.bmp	252	1	ZHHZ	306	2	sonnig	559	0	0	0	0	0	0	0	0	0	0	0	0	0	0	0	0	0	0	0	0	0	0	0	0	0	0	0	0	0	0	0	0	0	0	0	0	0	0	0
070319	14:47:52	14:54:23	390147	5.0.10.0	5_exp_noRW	14	Rpleas_acq	CS_A	YFFY	ZHHZ	LWWL	DXXD	JQQJ	CPPC	genießen	küssen	träumen	gütig	sonnig	vertrauen	gemein	krank	töten	gierig	sterben	versagen	53pct	acq_USunple_CSunple1_noRW	acq23456_noRW	2	48	0	0	300	300	529	50	0	0	1	blank2r.bmp	0	1	+	0	1	blank2r.bmp	252	1	LWWL	306	3	töten	559	1	FEHLER	1119	0	0	0	0	0	0	0	0	0	0	0	0	0	0	0	0	0	0	0	0	0	0	0	0	0	0	0	0	0	0	0	0	0	0	0	0
070319	14:47:52	14:54:25	392426	5.0.10.0	5_exp_noRW	14	Rpleas_acq	CS_A	YFFY	ZHHZ	LWWL	DXXD	JQQJ	CPPC	genießen	küssen	träumen	gütig	sonnig	vertrauen	gemein	krank	töten	gierig	sterben	versagen	53pct	acq_USpleas_CSunple2_noRW	acq23456_noRW	2	49	0	0	300	300	1113	46	0	0	1	blank2r.bmp	0	1	+	0	1	blank2r.bmp	252	1	DXXD	306	1	gütig	559	1	FEHLER	1705	0	0	0	0	0	0	0	0	0	0	0	0	0	0	0	0	0	0	0	0	0	0	0	0	0	0	0	0	0	0	0	0	0	0	0	0
070319	14:47:52	14:54:27	394052	5.0.10.0	5_exp_noRW	14	Rpleas_acq	CS_A	YFFY	ZHHZ	LWWL	DXXD	JQQJ	CPPC	genießen	küssen	träumen	gütig	sonnig	vertrauen	gemein	krank	töten	gierig	sterben	versagen	53pct	acq_USpleas_CSpleas1_noRW	acq23456_noRW	2	50	0	0	300	300	665	50	0	1	1	blank2r.bmp	0	1	+	0	1	blank2r.bmp	252	1	YFFY	306	2	küssen	559	0	0	0	0	0	0	0	0	0	0	0	0	0	0	0	0	0	0	0	0	0	0	0	0	0	0	0	0	0	0	0	0	0	0	0	0	0	0	0
070319	14:47:52	14:54:29	395878	5.0.10.0	5_exp_noRW	14	Rpleas_acq	CS_A	YFFY	ZHHZ	LWWL	DXXD	JQQJ	CPPC	genießen	küssen	träumen	gütig	sonnig	vertrauen	gemein	krank	töten	gierig	sterben	versagen	53pct	acq_USpleas_CSpleas1_noRW	acq23456_noRW	2	51	0	0	300	300	664	50	0	1	1	blank2r.bmp	0	1	+	0	1	blank2r.bmp	252	1	YFFY	306	1	genießen	559	0	0	0	0	0	0	0	0	0	0	0	0	0	0	0	0	0	0	0	0	0	0	0	0	0	0	0	0	0	0	0	0	0	0	0	0	0	0	0
070319	14:47:52	14:54:31	397797	5.0.10.0	5_exp_noRW	14	Rpleas_acq	CS_A	YFFY	ZHHZ	LWWL	DXXD	JQQJ	CPPC	genießen	küssen	träumen	gütig	sonnig	vertrauen	gemein	krank	töten	gierig	sterben	versagen	53pct	acq_USpleas_CSpleas2_noRW	acq23456_noRW	2	52	0	0	300	300	722	50	0	1	1	blank2r.bmp	0	1	+	0	1	blank2r.bmp	252	1	ZHHZ	306	3	vertrauen	559	0	0	0	0	0	0	0	0	0	0	0	0	0	0	0	0	0	0	0	0	0	0	0	0	0	0	0	0	0	0	0	0	0	0	0	0	0	0	0
070319	14:47:52	14:54:32	399543	5.0.10.0	5_exp_noRW	14	Rpleas_acq	CS_A	YFFY	ZHHZ	LWWL	DXXD	JQQJ	CPPC	genießen	küssen	träumen	gütig	sonnig	vertrauen	gemein	krank	töten	gierig	sterben	versagen	53pct	acq_USunple_CSpleas1_noRW	acq23456_noRW	2	53	0	0	300	300	582	46	0	1	1	blank2r.bmp	0	1	+	0	1	blank2r.bmp	252	1	YFFY	306	2	krank	559	0	0	0	0	0	0	0	0	0	0	0	0	0	0	0	0	0	0	0	0	0	0	0	0	0	0	0	0	0	0	0	0	0	0	0	0	0	0	0
070319	14:47:52	14:54:35	401795	5.0.10.0	5_exp_noRW	14	Rpleas_acq	CS_A	YFFY	ZHHZ	LWWL	DXXD	JQQJ	CPPC	genießen	küssen	träumen	gütig	sonnig	vertrauen	gemein	krank	töten	gierig	sterben	versagen	47pct	acq_USpleas_CSpleas2_noRW	acq23456_noRW	2	54	0	0	300	300	1086	50	0	1	1	blank2r.bmp	0	1	+	0	1	blank2r.bmp	252	1	ZHHZ	306	1	gütig	559	0	0	0	0	0	0	0	0	0	0	0	0	0	0	0	0	0	0	0	0	0	0	0	0	0	0	0	0	0	0	0	0	0	0	0	0	0	0	0
070319	14:47:52	14:54:36	403621	5.0.10.0	5_exp_noRW	14	Rpleas_acq	CS_A	YFFY	ZHHZ	LWWL	DXXD	JQQJ	CPPC	genießen	küssen	träumen	gütig	sonnig	vertrauen	gemein	krank	töten	gierig	sterben	versagen	47pct	acq_USunple_CSunple1_noRW	acq23456_noRW	2	55	0	0	300	300	648	46	0	1	1	blank2r.bmp	0	1	+	0	1	blank2r.bmp	252	1	LWWL	306	1	gemein	559	0	0	0	0	0	0	0	0	0	0	0	0	0	0	0	0	0	0	0	0	0	0	0	0	0	0	0	0	0	0	0	0	0	0	0	0	0	0	0
070319	14:47:52	14:54:38	405367	5.0.10.0	5_exp_noRW	14	Rpleas_acq	CS_A	YFFY	ZHHZ	LWWL	DXXD	JQQJ	CPPC	genießen	küssen	träumen	gütig	sonnig	vertrauen	gemein	krank	töten	gierig	sterben	versagen	47pct	acq_USunple_CSunple2_noRW	acq23456_noRW	2	56	0	0	300	300	561	46	0	1	1	blank2r.bmp	0	1	+	0	1	blank2r.bmp	252	1	DXXD	306	3	versagen	559	0	0	0	0	0	0	0	0	0	0	0	0	0	0	0	0	0	0	0	0	0	0	0	0	0	0	0	0	0	0	0	0	0	0	0	0	0	0	0
070319	14:47:52	14:54:40	407047	5.0.10.0	5_exp_noRW	14	Rpleas_acq	CS_A	YFFY	ZHHZ	LWWL	DXXD	JQQJ	CPPC	genießen	küssen	träumen	gütig	sonnig	vertrauen	gemein	krank	töten	gierig	sterben	versagen	53pct	acq_USunple_CSunple2_noRW	acq23456_noRW	2	57	0	0	300	300	517	46	0	1	1	blank2r.bmp	0	1	+	0	1	blank2r.bmp	252	1	DXXD	306	2	sterben	559	0	0	0	0	0	0	0	0	0	0	0	0	0	0	0	0	0	0	0	0	0	0	0	0	0	0	0	0	0	0	0	0	0	0	0	0	0	0	0
070319	14:47:52	14:54:42	408912	5.0.10.0	5_exp_noRW	14	Rpleas_acq	CS_A	YFFY	ZHHZ	LWWL	DXXD	JQQJ	CPPC	genießen	küssen	träumen	gütig	sonnig	vertrauen	gemein	krank	töten	gierig	sterben	versagen	53pct	acq_USpleas_CSpleas1_noRW	acq23456_noRW	2	58	0	0	300	300	668	50	0	1	1	blank2r.bmp	0	1	+	0	1	blank2r.bmp	252	1	YFFY	306	3	träumen	559	0	0	0	0	0	0	0	0	0	0	0	0	0	0	0	0	0	0	0	0	0	0	0	0	0	0	0	0	0	0	0	0	0	0	0	0	0	0	0
070319	14:47:52	14:54:44	410885	5.0.10.0	5_exp_noRW	14	Rpleas_acq	CS_A	YFFY	ZHHZ	LWWL	DXXD	JQQJ	CPPC	genießen	küssen	träumen	gütig	sonnig	vertrauen	gemein	krank	töten	gierig	sterben	versagen	47pct	acq_USpleas_CSpleas1_noRW	acq23456_noRW	2	59	0	0	300	300	791	50	0	1	1	blank2r.bmp	0	1	+	0	1	blank2r.bmp	252	1	YFFY	306	1	genießen	559	0	0	0	0	0	0	0	0	0	0	0	0	0	0	0	0	0	0	0	0	0	0	0	0	0	0	0	0	0	0	0	0	0	0	0	0	0	0	0
070319	14:47:52	14:54:45	412698	5.0.10.0	5_exp_noRW	14	Rpleas_acq	CS_A	YFFY	ZHHZ	LWWL	DXXD	JQQJ	CPPC	genießen	küssen	träumen	gütig	sonnig	vertrauen	gemein	krank	töten	gierig	sterben	versagen	53pct	acq_USunple_CSunple2_noRW	acq23456_noRW	2	60	0	0	300	300	638	46	0	1	1	blank2r.bmp	0	1	+	0	1	blank2r.bmp	252	1	DXXD	306	1	gierig	559	0	0	0	0	0	0	0	0	0	0	0	0	0	0	0	0	0	0	0	0	0	0	0	0	0	0	0	0	0	0	0	0	0	0	0	0	0	0	0
070319	14:47:52	14:54:47	414457	5.0.10.0	5_exp_noRW	14	Rpleas_acq	CS_A	YFFY	ZHHZ	LWWL	DXXD	JQQJ	CPPC	genießen	küssen	träumen	gütig	sonnig	vertrauen	gemein	krank	töten	gierig	sterben	versagen	47pct	acq_USpleas_CSpleas1_noRW	acq23456_noRW	2	61	0	0	300	300	595	50	0	1	1	blank2r.bmp	0	1	+	0	1	blank2r.bmp	252	1	YFFY	306	2	küssen	559	0	0	0	0	0	0	0	0	0	0	0	0	0	0	0	0	0	0	0	0	0	0	0	0	0	0	0	0	0	0	0	0	0	0	0	0	0	0	0
070319	14:47:52	14:54:49	416389	5.0.10.0	5_exp_noRW	14	Rpleas_acq	CS_A	YFFY	ZHHZ	LWWL	DXXD	JQQJ	CPPC	genießen	küssen	träumen	gütig	sonnig	vertrauen	gemein	krank	töten	gierig	sterben	versagen	47pct	acq_USpleas_CSpleas1_noRW	acq23456_noRW	2	62	0	0	300	300	766	50	0	1	1	blank2r.bmp	0	1	+	0	1	blank2r.bmp	252	1	YFFY	306	3	träumen	559	0	0	0	0	0	0	0	0	0	0	0	0	0	0	0	0	0	0	0	0	0	0	0	0	0	0	0	0	0	0	0	0	0	0	0	0	0	0	0
070319	14:47:52	14:54:51	418535	5.0.10.0	5_exp_noRW	14	Rpleas_acq	CS_A	YFFY	ZHHZ	LWWL	DXXD	JQQJ	CPPC	genießen	küssen	träumen	gütig	sonnig	vertrauen	gemein	krank	töten	gierig	sterben	versagen	47pct	acq_USunple_CSunple1_noRW	acq23456_noRW	2	63	0	0	300	300	748	50	0	0	1	blank2r.bmp	0	1	+	0	1	blank2r.bmp	252	1	LWWL	306	2	krank	559	1	FEHLER	1346	0	0	0	0	0	0	0	0	0	0	0	0	0	0	0	0	0	0	0	0	0	0	0	0	0	0	0	0	0	0	0	0	0	0	0	0
070319	14:47:52	14:54:53	420228	5.0.10.0	5_exp_noRW	14	Rpleas_acq	CS_A	YFFY	ZHHZ	LWWL	DXXD	JQQJ	CPPC	genießen	küssen	träumen	gütig	sonnig	vertrauen	gemein	krank	töten	gierig	sterben	versagen	47pct	acq_USpleas_CSunple2_noRW	acq23456_noRW	2	64	0	0	300	300	730	50	0	1	1	blank2r.bmp	0	1	+	0	1	blank2r.bmp	252	1	DXXD	306	2	sonnig	559	0	0	0	0	0	0	0	0	0	0	0	0	0	0	0	0	0	0	0	0	0	0	0	0	0	0	0	0	0	0	0	0	0	0	0	0	0	0	0
070319	14:47:52	14:54:55	422120	5.0.10.0	5_exp_noRW	14	Rpleas_acq	CS_A	YFFY	ZHHZ	LWWL	DXXD	JQQJ	CPPC	genießen	küssen	träumen	gütig	sonnig	vertrauen	gemein	krank	töten	gierig	sterben	versagen	47pct	acq_USpleas_CSpleas2_noRW	acq23456_noRW	2	65	0	0	300	300	723	50	0	1	1	blank2r.bmp	0	1	+	0	1	blank2r.bmp	252	1	ZHHZ	306	3	vertrauen	559	0	0	0	0	0	0	0	0	0	0	0	0	0	0	0	0	0	0	0	0	0	0	0	0	0	0	0	0	0	0	0	0	0	0	0	0	0	0	0
070319	14:47:52	14:54:57	423880	5.0.10.0	5_exp_noRW	14	Rpleas_acq	CS_A	YFFY	ZHHZ	LWWL	DXXD	JQQJ	CPPC	genießen	küssen	träumen	gütig	sonnig	vertrauen	gemein	krank	töten	gierig	sterben	versagen	47pct	acq_USunple_CSunple2_noRW	acq23456_noRW	2	66	0	0	300	300	593	46	0	1	1	blank2r.bmp	0	1	+	0	1	blank2r.bmp	252	1	DXXD	306	2	sterben	559	0	0	0	0	0	0	0	0	0	0	0	0	0	0	0	0	0	0	0	0	0	0	0	0	0	0	0	0	0	0	0	0	0	0	0	0	0	0	0
070319	14:47:52	14:54:58	425666	5.0.10.0	5_exp_noRW	14	Rpleas_acq	CS_A	YFFY	ZHHZ	LWWL	DXXD	JQQJ	CPPC	genießen	küssen	träumen	gütig	sonnig	vertrauen	gemein	krank	töten	gierig	sterben	versagen	47pct	acq_USunple_CSpleas1_noRW	acq23456_noRW	2	67	0	0	300	300	622	46	0	1	1	blank2r.bmp	0	1	+	0	1	blank2r.bmp	252	1	YFFY	306	3	töten	559	0	0	0	0	0	0	0	0	0	0	0	0	0	0	0	0	0	0	0	0	0	0	0	0	0	0	0	0	0	0	0	0	0	0	0	0	0	0	0
070319	14:47:52	14:55:01	428091	5.0.10.0	5_exp_noRW	14	Rpleas_acq	CS_A	YFFY	ZHHZ	LWWL	DXXD	JQQJ	CPPC	genießen	küssen	träumen	gütig	sonnig	vertrauen	gemein	krank	töten	gierig	sterben	versagen	53pct	acq_USunple_CSunple2_noRW	acq23456_noRW	2	68	0	0	300	300	1242	46	0	1	1	blank2r.bmp	0	1	+	0	1	blank2r.bmp	252	1	DXXD	306	3	versagen	559	0	0	0	0	0	0	0	0	0	0	0	0	0	0	0	0	0	0	0	0	0	0	0	0	0	0	0	0	0	0	0	0	0	0	0	0	0	0	0
070319	14:47:52	14:55:03	430344	5.0.10.0	5_exp_noRW	14	Rpleas_acq	CS_A	YFFY	ZHHZ	LWWL	DXXD	JQQJ	CPPC	genießen	küssen	träumen	gütig	sonnig	vertrauen	gemein	krank	töten	gierig	sterben	versagen	53pct	acq_USunple_CSunple2_noRW	acq23456_noRW	2	69	0	0	300	300	1090	46	0	1	1	blank2r.bmp	0	1	+	0	1	blank2r.bmp	252	1	DXXD	306	1	gierig	559	0	0	0	0	0	0	0	0	0	0	0	0	0	0	0	0	0	0	0	0	0	0	0	0	0	0	0	0	0	0	0	0	0	0	0	0	0	0	0
070319	14:47:52	14:55:05	432143	5.0.10.0	5_exp_noRW	14	Rpleas_acq	CS_A	YFFY	ZHHZ	LWWL	DXXD	JQQJ	CPPC	genießen	küssen	träumen	gütig	sonnig	vertrauen	gemein	krank	töten	gierig	sterben	versagen	47pct	acq_USpleas_CSunple1_noRW	acq23456_noRW	2	70	0	0	300	300	617	50	0	1	1	blank2r.bmp	0	1	+	0	1	blank2r.bmp	252	1	LWWL	306	1	genießen	559	0	0	0	0	0	0	0	0	0	0	0	0	0	0	0	0	0	0	0	0	0	0	0	0	0	0	0	0	0	0	0	0	0	0	0	0	0	0	0
070319	14:47:52	14:55:07	434222	5.0.10.0	5_exp_noRW	14	Rpleas_acq	CS_A	YFFY	ZHHZ	LWWL	DXXD	JQQJ	CPPC	genießen	küssen	träumen	gütig	sonnig	vertrauen	gemein	krank	töten	gierig	sterben	versagen	47pct	acq_USunple_CSunple2_noRW	acq23456_noRW	2	71	0	0	300	300	896	46	0	1	1	blank2r.bmp	0	1	+	0	1	blank2r.bmp	252	1	DXXD	306	2	sterben	559	0	0	0	0	0	0	0	0	0	0	0	0	0	0	0	0	0	0	0	0	0	0	0	0	0	0	0	0	0	0	0	0	0	0	0	0	0	0	0
070319	14:47:52	14:55:09	435955	5.0.10.0	5_exp_noRW	14	Rpleas_acq	CS_A	YFFY	ZHHZ	LWWL	DXXD	JQQJ	CPPC	genießen	küssen	träumen	gütig	sonnig	vertrauen	gemein	krank	töten	gierig	sterben	versagen	47pct	acq_USpleas_CSpleas2_noRW	acq23456_noRW	2	72	0	0	300	300	563	50	0	1	1	blank2r.bmp	0	1	+	0	1	blank2r.bmp	252	1	ZHHZ	306	2	sonnig	559	0	0	0	0	0	0	0	0	0	0	0	0	0	0	0	0	0	0	0	0	0	0	0	0	0	0	0	0	0	0	0	0	0	0	0	0	0	0	0
070319	14:47:52	14:55:11	437714	5.0.10.0	5_exp_noRW	14	Rpleas_acq	CS_A	YFFY	ZHHZ	LWWL	DXXD	JQQJ	CPPC	genießen	küssen	träumen	gütig	sonnig	vertrauen	gemein	krank	töten	gierig	sterben	versagen	47pct	acq_USunple_CSunple1_noRW	acq23456_noRW	2	73	0	0	300	300	590	46	0	1	1	blank2r.bmp	0	1	+	0	1	blank2r.bmp	252	1	LWWL	306	3	töten	559	0	0	0	0	0	0	0	0	0	0	0	0	0	0	0	0	0	0	0	0	0	0	0	0	0	0	0	0	0	0	0	0	0	0	0	0	0	0	0
070319	14:47:52	14:55:12	439460	5.0.10.0	5_exp_noRW	14	Rpleas_acq	CS_A	YFFY	ZHHZ	LWWL	DXXD	JQQJ	CPPC	genießen	küssen	träumen	gütig	sonnig	vertrauen	gemein	krank	töten	gierig	sterben	versagen	47pct	acq_USunple_CSpleas2_noRW	acq23456_noRW	2	74	0	0	300	300	567	46	0	1	1	blank2r.bmp	0	1	+	0	1	blank2r.bmp	252	1	ZHHZ	306	2	sterben	559	0	0	0	0	0	0	0	0	0	0	0	0	0	0	0	0	0	0	0	0	0	0	0	0	0	0	0	0	0	0	0	0	0	0	0	0	0	0	0
070319	14:47:52	14:55:14	441659	5.0.10.0	5_exp_noRW	14	Rpleas_acq	CS_A	YFFY	ZHHZ	LWWL	DXXD	JQQJ	CPPC	genießen	küssen	träumen	gütig	sonnig	vertrauen	gemein	krank	töten	gierig	sterben	versagen	53pct	acq_USpleas_CSpleas2_noRW	acq23456_noRW	2	75	0	0	300	300	1016	50	0	1	1	blank2r.bmp	0	1	+	0	1	blank2r.bmp	252	1	ZHHZ	306	3	vertrauen	559	0	0	0	0	0	0	0	0	0	0	0	0	0	0	0	0	0	0	0	0	0	0	0	0	0	0	0	0	0	0	0	0	0	0	0	0	0	0	0
070319	14:47:52	14:55:17	444338	5.0.10.0	5_exp_noRW	14	Rpleas_acq	CS_A	YFFY	ZHHZ	LWWL	DXXD	JQQJ	CPPC	genießen	küssen	träumen	gütig	sonnig	vertrauen	gemein	krank	töten	gierig	sterben	versagen	47pct	acq_USunple_CSunple1_noRW	acq23456_noRW	2	76	0	0	300	300	1284	50	0	0	1	blank2r.bmp	0	1	+	0	1	blank2r.bmp	252	1	LWWL	306	3	töten	559	1	FEHLER	1879	0	0	0	0	0	0	0	0	0	0	0	0	0	0	0	0	0	0	0	0	0	0	0	0	0	0	0	0	0	0	0	0	0	0	0	0
070319	14:47:52	14:55:21	447817	5.0.10.0	5_exp_noRW	14	Rpleas_acq	CS_A	YFFY	ZHHZ	LWWL	DXXD	JQQJ	CPPC	genießen	küssen	träumen	gütig	sonnig	vertrauen	gemein	krank	töten	gierig	sterben	versagen	47pct	acq_USpleas_CSpleas1_noRW	acq23456_noRW	2	77	0	0	300	300	2000	0	0	0	1	blank2r.bmp	0	1	+	0	1	blank2r.bmp	252	1	YFFY	306	1	genießen	559	1	FEHLER	2598	1	Schneller!	2598	0	0	0	0	0	0	0	0	0	0	0	0	0	0	0	0	0	0	0	0	0	0	0	0	0	0	0	0	0	0	0	0	0
070319	14:47:52	14:55:22	449336	5.0.10.0	5_exp_noRW	14	Rpleas_acq	CS_A	YFFY	ZHHZ	LWWL	DXXD	JQQJ	CPPC	genießen	küssen	träumen	gütig	sonnig	vertrauen	gemein	krank	töten	gierig	sterben	versagen	47pct	acq_USpleas_CSpleas1_noRW	acq23456_noRW	2	78	0	0	300	300	615	50	0	1	1	blank2r.bmp	0	1	+	0	1	blank2r.bmp	252	1	YFFY	306	3	träumen	559	0	0	0	0	0	0	0	0	0	0	0	0	0	0	0	0	0	0	0	0	0	0	0	0	0	0	0	0	0	0	0	0	0	0	0	0	0	0	0
070319	14:47:52	14:55:24	451695	5.0.10.0	5_exp_noRW	14	Rpleas_acq	CS_A	YFFY	ZHHZ	LWWL	DXXD	JQQJ	CPPC	genießen	küssen	träumen	gütig	sonnig	vertrauen	gemein	krank	töten	gierig	sterben	versagen	47pct	acq_USpleas_CSpleas2_noRW	acq23456_noRW	2	79	0	0	300	300	1183	50	0	1	1	blank2r.bmp	0	1	+	0	1	blank2r.bmp	252	1	ZHHZ	306	1	gütig	559	0	0	0	0	0	0	0	0	0	0	0	0	0	0	0	0	0	0	0	0	0	0	0	0	0	0	0	0	0	0	0	0	0	0	0	0	0	0	0
070319	14:47:52	14:55:26	453468	5.0.10.0	5_exp_noRW	14	Rpleas_acq	CS_A	YFFY	ZHHZ	LWWL	DXXD	JQQJ	CPPC	genießen	küssen	träumen	gütig	sonnig	vertrauen	gemein	krank	töten	gierig	sterben	versagen	53pct	acq_USunple_CSunple1_noRW	acq23456_noRW	2	80	0	0	300	300	589	46	0	1	1	blank2r.bmp	0	1	+	0	1	blank2r.bmp	252	1	LWWL	306	2	krank	559	0	0	0	0	0	0	0	0	0	0	0	0	0	0	0	0	0	0	0	0	0	0	0	0	0	0	0	0	0	0	0	0	0	0	0	0	0	0	0
070319	14:47:52	14:55:44	471647	5.0.10.0	5_exp_noRW	14	Rpleas_acq	CS_A	YFFY	ZHHZ	LWWL	DXXD	JQQJ	CPPC	genießen	küssen	träumen	gütig	sonnig	vertrauen	gemein	krank	töten	gierig	sterben	versagen	47pct	acq_USpleas_CSpleas2_noRW	acq23456_noRW	3	1	0	0	300	300	1431	50	0	1	1	blank2r.bmp	0	1	+	0	1	blank2r.bmp	252	1	ZHHZ	306	2	sonnig	559	0	0	0	0	0	0	0	0	0	0	0	0	0	0	0	0	0	0	0	0	0	0	0	0	0	0	0	0	0	0	0	0	0	0	0	0	0	0	0
070319	14:47:52	14:55:47	473726	5.0.10.0	5_exp_noRW	14	Rpleas_acq	CS_A	YFFY	ZHHZ	LWWL	DXXD	JQQJ	CPPC	genießen	küssen	träumen	gütig	sonnig	vertrauen	gemein	krank	töten	gierig	sterben	versagen	53pct	acq_USpleas_CSpleas2_noRW	acq23456_noRW	3	2	0	0	300	300	910	50	0	1	1	blank2r.bmp	0	1	+	0	1	blank2r.bmp	252	1	ZHHZ	306	3	vertrauen	559	0	0	0	0	0	0	0	0	0	0	0	0	0	0	0	0	0	0	0	0	0	0	0	0	0	0	0	0	0	0	0	0	0	0	0	0	0	0	0
070319	14:47:52	14:55:48	475659	5.0.10.0	5_exp_noRW	14	Rpleas_acq	CS_A	YFFY	ZHHZ	LWWL	DXXD	JQQJ	CPPC	genießen	küssen	träumen	gütig	sonnig	vertrauen	gemein	krank	töten	gierig	sterben	versagen	53pct	acq_USpleas_CSunple1_noRW	acq23456_noRW	3	3	0	0	300	300	771	50	0	1	1	blank2r.bmp	0	1	+	0	1	blank2r.bmp	252	1	LWWL	306	2	küssen	559	0	0	0	0	0	0	0	0	0	0	0	0	0	0	0	0	0	0	0	0	0	0	0	0	0	0	0	0	0	0	0	0	0	0	0	0	0	0	0
070319	14:47:52	14:55:51	478058	5.0.10.0	5_exp_noRW	14	Rpleas_acq	CS_A	YFFY	ZHHZ	LWWL	DXXD	JQQJ	CPPC	genießen	küssen	träumen	gütig	sonnig	vertrauen	gemein	krank	töten	gierig	sterben	versagen	47pct	acq_USunple_CSunple1_noRW	acq23456_noRW	3	4	0	0	300	300	1001	50	0	0	1	blank2r.bmp	0	1	+	0	1	blank2r.bmp	252	1	LWWL	306	1	gemein	559	1	FEHLER	1599	0	0	0	0	0	0	0	0	0	0	0	0	0	0	0	0	0	0	0	0	0	0	0	0	0	0	0	0	0	0	0	0	0	0	0	0
070319	14:47:52	14:55:53	479777	5.0.10.0	5_exp_noRW	14	Rpleas_acq	CS_A	YFFY	ZHHZ	LWWL	DXXD	JQQJ	CPPC	genießen	küssen	träumen	gütig	sonnig	vertrauen	gemein	krank	töten	gierig	sterben	versagen	53pct	acq_USunple_CSunple1_noRW	acq23456_noRW	3	5	0	0	300	300	762	46	0	1	1	blank2r.bmp	0	1	+	0	1	blank2r.bmp	252	1	LWWL	306	1	gemein	559	0	0	0	0	0	0	0	0	0	0	0	0	0	0	0	0	0	0	0	0	0	0	0	0	0	0	0	0	0	0	0	0	0	0	0	0	0	0	0
070319	14:47:52	14:55:54	481590	5.0.10.0	5_exp_noRW	14	Rpleas_acq	CS_A	YFFY	ZHHZ	LWWL	DXXD	JQQJ	CPPC	genießen	küssen	träumen	gütig	sonnig	vertrauen	gemein	krank	töten	gierig	sterben	versagen	47pct	acq_USunple_CSpleas1_noRW	acq23456_noRW	3	6	0	0	300	300	649	46	0	1	1	blank2r.bmp	0	1	+	0	1	blank2r.bmp	252	1	YFFY	306	1	gemein	559	0	0	0	0	0	0	0	0	0	0	0	0	0	0	0	0	0	0	0	0	0	0	0	0	0	0	0	0	0	0	0	0	0	0	0	0	0	0	0
070319	14:47:52	14:55:56	483322	5.0.10.0	5_exp_noRW	14	Rpleas_acq	CS_A	YFFY	ZHHZ	LWWL	DXXD	JQQJ	CPPC	genießen	küssen	träumen	gütig	sonnig	vertrauen	gemein	krank	töten	gierig	sterben	versagen	47pct	acq_USpleas_CSpleas1_noRW	acq23456_noRW	3	7	0	0	300	300	555	50	0	1	1	blank2r.bmp	0	1	+	0	1	blank2r.bmp	252	1	YFFY	306	2	küssen	559	0	0	0	0	0	0	0	0	0	0	0	0	0	0	0	0	0	0	0	0	0	0	0	0	0	0	0	0	0	0	0	0	0	0	0	0	0	0	0
070319	14:47:52	14:55:58	485428	5.0.10.0	5_exp_noRW	14	Rpleas_acq	CS_A	YFFY	ZHHZ	LWWL	DXXD	JQQJ	CPPC	genießen	küssen	träumen	gütig	sonnig	vertrauen	gemein	krank	töten	gierig	sterben	versagen	47pct	acq_USunple_CSunple2_noRW	acq23456_noRW	3	8	0	0	300	300	930	46	0	1	1	blank2r.bmp	0	1	+	0	1	blank2r.bmp	252	1	DXXD	306	3	versagen	559	0	0	0	0	0	0	0	0	0	0	0	0	0	0	0	0	0	0	0	0	0	0	0	0	0	0	0	0	0	0	0	0	0	0	0	0	0	0	0
070319	14:47:52	14:56:00	487254	5.0.10.0	5_exp_noRW	14	Rpleas_acq	CS_A	YFFY	ZHHZ	LWWL	DXXD	JQQJ	CPPC	genießen	küssen	träumen	gütig	sonnig	vertrauen	gemein	krank	töten	gierig	sterben	versagen	47pct	acq_USunple_CSunple2_noRW	acq23456_noRW	3	9	0	0	300	300	648	46	0	1	1	blank2r.bmp	0	1	+	0	1	blank2r.bmp	252	1	DXXD	306	3	versagen	559	0	0	0	0	0	0	0	0	0	0	0	0	0	0	0	0	0	0	0	0	0	0	0	0	0	0	0	0	0	0	0	0	0	0	0	0	0	0	0
070319	14:47:52	14:56:02	488986	5.0.10.0	5_exp_noRW	14	Rpleas_acq	CS_A	YFFY	ZHHZ	LWWL	DXXD	JQQJ	CPPC	genießen	küssen	träumen	gütig	sonnig	vertrauen	gemein	krank	töten	gierig	sterben	versagen	47pct	acq_USpleas_CSpleas2_noRW	acq23456_noRW	3	10	0	0	300	300	558	50	0	1	1	blank2r.bmp	0	1	+	0	1	blank2r.bmp	252	1	ZHHZ	306	2	sonnig	559	0	0	0	0	0	0	0	0	0	0	0	0	0	0	0	0	0	0	0	0	0	0	0	0	0	0	0	0	0	0	0	0	0	0	0	0	0	0	0
070319	14:47:52	14:56:04	490826	5.0.10.0	5_exp_noRW	14	Rpleas_acq	CS_A	YFFY	ZHHZ	LWWL	DXXD	JQQJ	CPPC	genießen	küssen	träumen	gütig	sonnig	vertrauen	gemein	krank	töten	gierig	sterben	versagen	53pct	acq_USunple_CSunple1_noRW	acq23456_noRW	3	11	0	0	300	300	657	46	0	1	1	blank2r.bmp	0	1	+	0	1	blank2r.bmp	252	1	LWWL	306	2	krank	559	0	0	0	0	0	0	0	0	0	0	0	0	0	0	0	0	0	0	0	0	0	0	0	0	0	0	0	0	0	0	0	0	0	0	0	0	0	0	0
070319	14:47:52	14:56:05	492652	5.0.10.0	5_exp_noRW	14	Rpleas_acq	CS_A	YFFY	ZHHZ	LWWL	DXXD	JQQJ	CPPC	genießen	küssen	träumen	gütig	sonnig	vertrauen	gemein	krank	töten	gierig	sterben	versagen	47pct	acq_USpleas_CSpleas1_noRW	acq23456_noRW	3	12	0	0	300	300	643	50	0	1	1	blank2r.bmp	0	1	+	0	1	blank2r.bmp	252	1	YFFY	306	3	träumen	559	0	0	0	0	0	0	0	0	0	0	0	0	0	0	0	0	0	0	0	0	0	0	0	0	0	0	0	0	0	0	0	0	0	0	0	0	0	0	0
070319	14:47:52	14:56:07	494491	5.0.10.0	5_exp_noRW	14	Rpleas_acq	CS_A	YFFY	ZHHZ	LWWL	DXXD	JQQJ	CPPC	genießen	küssen	träumen	gütig	sonnig	vertrauen	gemein	krank	töten	gierig	sterben	versagen	53pct	acq_USpleas_CSpleas1_noRW	acq23456_noRW	3	13	0	0	300	300	656	50	0	1	1	blank2r.bmp	0	1	+	0	1	blank2r.bmp	252	1	YFFY	306	1	genießen	559	0	0	0	0	0	0	0	0	0	0	0	0	0	0	0	0	0	0	0	0	0	0	0	0	0	0	0	0	0	0	0	0	0	0	0	0	0	0	0
070319	14:47:52	14:56:09	496250	5.0.10.0	5_exp_noRW	14	Rpleas_acq	CS_A	YFFY	ZHHZ	LWWL	DXXD	JQQJ	CPPC	genießen	küssen	träumen	gütig	sonnig	vertrauen	gemein	krank	töten	gierig	sterben	versagen	47pct	acq_USunple_CSunple2_noRW	acq23456_noRW	3	14	0	0	300	300	595	46	0	1	1	blank2r.bmp	0	1	+	0	1	blank2r.bmp	252	1	DXXD	306	2	sterben	559	0	0	0	0	0	0	0	0	0	0	0	0	0	0	0	0	0	0	0	0	0	0	0	0	0	0	0	0	0	0	0	0	0	0	0	0	0	0	0
070319	14:47:52	14:56:11	498236	5.0.10.0	5_exp_noRW	14	Rpleas_acq	CS_A	YFFY	ZHHZ	LWWL	DXXD	JQQJ	CPPC	genießen	küssen	träumen	gütig	sonnig	vertrauen	gemein	krank	töten	gierig	sterben	versagen	53pct	acq_USunple_CSpleas2_noRW	acq23456_noRW	3	15	0	0	300	300	803	46	0	1	1	blank2r.bmp	0	1	+	0	1	blank2r.bmp	252	1	ZHHZ	306	3	versagen	559	0	0	0	0	0	0	0	0	0	0	0	0	0	0	0	0	0	0	0	0	0	0	0	0	0	0	0	0	0	0	0	0	0	0	0	0	0	0	0
070319	14:47:52	14:56:13	500462	5.0.10.0	5_exp_noRW	14	Rpleas_acq	CS_A	YFFY	ZHHZ	LWWL	DXXD	JQQJ	CPPC	genießen	küssen	träumen	gütig	sonnig	vertrauen	gemein	krank	töten	gierig	sterben	versagen	47pct	acq_USpleas_CSpleas2_noRW	acq23456_noRW	3	16	0	0	300	300	1045	50	0	1	1	blank2r.bmp	0	1	+	0	1	blank2r.bmp	252	1	ZHHZ	306	1	gütig	559	0	0	0	0	0	0	0	0	0	0	0	0	0	0	0	0	0	0	0	0	0	0	0	0	0	0	0	0	0	0	0	0	0	0	0	0	0	0	0
070319	14:47:52	14:56:15	502208	5.0.10.0	5_exp_noRW	14	Rpleas_acq	CS_A	YFFY	ZHHZ	LWWL	DXXD	JQQJ	CPPC	genießen	küssen	träumen	gütig	sonnig	vertrauen	gemein	krank	töten	gierig	sterben	versagen	53pct	acq_USunple_CSunple2_noRW	acq23456_noRW	3	17	0	0	300	300	579	46	0	1	1	blank2r.bmp	0	1	+	0	1	blank2r.bmp	252	1	DXXD	306	1	gierig	559	0	0	0	0	0	0	0	0	0	0	0	0	0	0	0	0	0	0	0	0	0	0	0	0	0	0	0	0	0	0	0	0	0	0	0	0	0	0	0
070319	14:47:52	14:56:17	504140	5.0.10.0	5_exp_noRW	14	Rpleas_acq	CS_A	YFFY	ZHHZ	LWWL	DXXD	JQQJ	CPPC	genießen	küssen	träumen	gütig	sonnig	vertrauen	gemein	krank	töten	gierig	sterben	versagen	47pct	acq_USpleas_CSunple2_noRW	acq23456_noRW	3	18	0	0	300	300	770	50	0	1	1	blank2r.bmp	0	1	+	0	1	blank2r.bmp	252	1	DXXD	306	3	vertrauen	559	0	0	0	0	0	0	0	0	0	0	0	0	0	0	0	0	0	0	0	0	0	0	0	0	0	0	0	0	0	0	0	0	0	0	0	0	0	0	0
070319	14:47:52	14:56:19	505993	5.0.10.0	5_exp_noRW	14	Rpleas_acq	CS_A	YFFY	ZHHZ	LWWL	DXXD	JQQJ	CPPC	genießen	küssen	träumen	gütig	sonnig	vertrauen	gemein	krank	töten	gierig	sterben	versagen	47pct	acq_USunple_CSunple1_noRW	acq23456_noRW	3	19	0	0	300	300	680	46	0	1	1	blank2r.bmp	0	1	+	0	1	blank2r.bmp	252	1	LWWL	306	3	töten	559	0	0	0	0	0	0	0	0	0	0	0	0	0	0	0	0	0	0	0	0	0	0	0	0	0	0	0	0	0	0	0	0	0	0	0	0	0	0	0
070319	14:47:52	14:56:21	508112	5.0.10.0	5_exp_noRW	14	Rpleas_acq	CS_A	YFFY	ZHHZ	LWWL	DXXD	JQQJ	CPPC	genießen	küssen	träumen	gütig	sonnig	vertrauen	gemein	krank	töten	gierig	sterben	versagen	53pct	acq_USpleas_CSpleas1_noRW	acq23456_noRW	3	20	0	0	300	300	939	50	0	1	1	blank2r.bmp	0	1	+	0	1	blank2r.bmp	252	1	YFFY	306	2	küssen	559	0	0	0	0	0	0	0	0	0	0	0	0	0	0	0	0	0	0	0	0	0	0	0	0	0	0	0	0	0	0	0	0	0	0	0	0	0	0	0
070319	14:47:52	14:56:23	509845	5.0.10.0	5_exp_noRW	14	Rpleas_acq	CS_A	YFFY	ZHHZ	LWWL	DXXD	JQQJ	CPPC	genießen	küssen	träumen	gütig	sonnig	vertrauen	gemein	krank	töten	gierig	sterben	versagen	53pct	acq_USpleas_CSpleas1_noRW	acq23456_noRW	3	21	0	0	300	300	553	50	0	1	1	blank2r.bmp	0	1	+	0	1	blank2r.bmp	252	1	YFFY	306	2	küssen	559	0	0	0	0	0	0	0	0	0	0	0	0	0	0	0	0	0	0	0	0	0	0	0	0	0	0	0	0	0	0	0	0	0	0	0	0	0	0	0
070319	14:47:52	14:56:24	511657	5.0.10.0	5_exp_noRW	14	Rpleas_acq	CS_A	YFFY	ZHHZ	LWWL	DXXD	JQQJ	CPPC	genießen	küssen	träumen	gütig	sonnig	vertrauen	gemein	krank	töten	gierig	sterben	versagen	53pct	acq_USunple_CSunple2_noRW	acq23456_noRW	3	22	0	0	300	300	637	46	0	1	1	blank2r.bmp	0	1	+	0	1	blank2r.bmp	252	1	DXXD	306	3	versagen	559	0	0	0	0	0	0	0	0	0	0	0	0	0	0	0	0	0	0	0	0	0	0	0	0	0	0	0	0	0	0	0	0	0	0	0	0	0	0	0
070319	14:47:52	14:56:26	513443	5.0.10.0	5_exp_noRW	14	Rpleas_acq	CS_A	YFFY	ZHHZ	LWWL	DXXD	JQQJ	CPPC	genießen	küssen	träumen	gütig	sonnig	vertrauen	gemein	krank	töten	gierig	sterben	versagen	47pct	acq_USpleas_CSpleas2_noRW	acq23456_noRW	3	23	0	0	300	300	601	50	0	1	1	blank2r.bmp	0	1	+	0	1	blank2r.bmp	252	1	ZHHZ	306	2	sonnig	559	0	0	0	0	0	0	0	0	0	0	0	0	0	0	0	0	0	0	0	0	0	0	0	0	0	0	0	0	0	0	0	0	0	0	0	0	0	0	0
070319	14:47:52	14:56:28	515469	5.0.10.0	5_exp_noRW	14	Rpleas_acq	CS_A	YFFY	ZHHZ	LWWL	DXXD	JQQJ	CPPC	genießen	küssen	träumen	gütig	sonnig	vertrauen	gemein	krank	töten	gierig	sterben	versagen	53pct	acq_USpleas_CSunple1_noRW	acq23456_noRW	3	24	0	0	300	300	861	50	0	1	1	blank2r.bmp	0	1	+	0	1	blank2r.bmp	252	1	LWWL	306	3	träumen	559	0	0	0	0	0	0	0	0	0	0	0	0	0	0	0	0	0	0	0	0	0	0	0	0	0	0	0	0	0	0	0	0	0	0	0	0	0	0	0
070319	14:47:52	14:56:30	517068	5.0.10.0	5_exp_noRW	14	Rpleas_acq	CS_A	YFFY	ZHHZ	LWWL	DXXD	JQQJ	CPPC	genießen	küssen	träumen	gütig	sonnig	vertrauen	gemein	krank	töten	gierig	sterben	versagen	53pct	acq_USpleas_CSpleas1_noRW	acq23456_noRW	3	25	0	0	300	300	421	50	0	1	1	blank2r.bmp	0	1	+	0	1	blank2r.bmp	252	1	YFFY	306	3	träumen	559	0	0	0	0	0	0	0	0	0	0	0	0	0	0	0	0	0	0	0	0	0	0	0	0	0	0	0	0	0	0	0	0	0	0	0	0	0	0	0
070319	14:47:52	14:56:32	519347	5.0.10.0	5_exp_noRW	14	Rpleas_acq	CS_A	YFFY	ZHHZ	LWWL	DXXD	JQQJ	CPPC	genießen	küssen	träumen	gütig	sonnig	vertrauen	gemein	krank	töten	gierig	sterben	versagen	53pct	acq_USpleas_CSunple2_noRW	acq23456_noRW	3	26	0	0	300	300	1103	50	0	1	1	blank2r.bmp	0	1	+	0	1	blank2r.bmp	252	1	DXXD	306	1	gütig	559	0	0	0	0	0	0	0	0	0	0	0	0	0	0	0	0	0	0	0	0	0	0	0	0	0	0	0	0	0	0	0	0	0	0	0	0	0	0	0
070319	14:47:52	14:56:34	521040	5.0.10.0	5_exp_noRW	14	Rpleas_acq	CS_A	YFFY	ZHHZ	LWWL	DXXD	JQQJ	CPPC	genießen	küssen	träumen	gütig	sonnig	vertrauen	gemein	krank	töten	gierig	sterben	versagen	53pct	acq_USpleas_CSpleas1_noRW	acq23456_noRW	3	27	0	0	300	300	513	50	0	1	1	blank2r.bmp	0	1	+	0	1	blank2r.bmp	252	1	YFFY	306	1	genießen	559	0	0	0	0	0	0	0	0	0	0	0	0	0	0	0	0	0	0	0	0	0	0	0	0	0	0	0	0	0	0	0	0	0	0	0	0	0	0	0
070319	14:47:52	14:56:36	522799	5.0.10.0	5_exp_noRW	14	Rpleas_acq	CS_A	YFFY	ZHHZ	LWWL	DXXD	JQQJ	CPPC	genießen	küssen	träumen	gütig	sonnig	vertrauen	gemein	krank	töten	gierig	sterben	versagen	53pct	acq_USunple_CSpleas2_noRW	acq23456_noRW	3	28	0	0	300	300	572	46	0	1	1	blank2r.bmp	0	1	+	0	1	blank2r.bmp	252	1	ZHHZ	306	1	gierig	559	0	0	0	0	0	0	0	0	0	0	0	0	0	0	0	0	0	0	0	0	0	0	0	0	0	0	0	0	0	0	0	0	0	0	0	0	0	0	0
070319	14:47:52	14:56:37	524679	5.0.10.0	5_exp_noRW	14	Rpleas_acq	CS_A	YFFY	ZHHZ	LWWL	DXXD	JQQJ	CPPC	genießen	küssen	träumen	gütig	sonnig	vertrauen	gemein	krank	töten	gierig	sterben	versagen	53pct	acq_USunple_CSunple2_noRW	acq23456_noRW	3	29	0	0	300	300	715	46	0	1	1	blank2r.bmp	0	1	+	0	1	blank2r.bmp	252	1	DXXD	306	2	sterben	559	0	0	0	0	0	0	0	0	0	0	0	0	0	0	0	0	0	0	0	0	0	0	0	0	0	0	0	0	0	0	0	0	0	0	0	0	0	0	0
070319	14:47:52	14:56:39	526385	5.0.10.0	5_exp_noRW	14	Rpleas_acq	CS_A	YFFY	ZHHZ	LWWL	DXXD	JQQJ	CPPC	genießen	küssen	träumen	gütig	sonnig	vertrauen	gemein	krank	töten	gierig	sterben	versagen	53pct	acq_USunple_CSpleas1_noRW	acq23456_noRW	3	30	0	0	300	300	530	46	0	1	1	blank2r.bmp	0	1	+	0	1	blank2r.bmp	252	1	YFFY	306	2	krank	559	0	0	0	0	0	0	0	0	0	0	0	0	0	0	0	0	0	0	0	0	0	0	0	0	0	0	0	0	0	0	0	0	0	0	0	0	0	0	0
070319	14:47:52	14:56:41	528624	5.0.10.0	5_exp_noRW	14	Rpleas_acq	CS_A	YFFY	ZHHZ	LWWL	DXXD	JQQJ	CPPC	genießen	küssen	träumen	gütig	sonnig	vertrauen	gemein	krank	töten	gierig	sterben	versagen	53pct	acq_USpleas_CSpleas2_noRW	acq23456_noRW	3	31	0	0	300	300	1057	50	0	1	1	blank2r.bmp	0	1	+	0	1	blank2r.bmp	252	1	ZHHZ	306	3	vertrauen	559	0	0	0	0	0	0	0	0	0	0	0	0	0	0	0	0	0	0	0	0	0	0	0	0	0	0	0	0	0	0	0	0	0	0	0	0	0	0	0
070319	14:47:52	14:56:43	530343	5.0.10.0	5_exp_noRW	14	Rpleas_acq	CS_A	YFFY	ZHHZ	LWWL	DXXD	JQQJ	CPPC	genießen	küssen	träumen	gütig	sonnig	vertrauen	gemein	krank	töten	gierig	sterben	versagen	53pct	acq_USunple_CSunple1_noRW	acq23456_noRW	3	32	0	0	300	300	538	46	0	1	1	blank2r.bmp	0	1	+	0	1	blank2r.bmp	252	1	LWWL	306	2	krank	559	0	0	0	0	0	0	0	0	0	0	0	0	0	0	0	0	0	0	0	0	0	0	0	0	0	0	0	0	0	0	0	0	0	0	0	0	0	0	0
070319	14:47:52	14:56:46	532822	5.0.10.0	5_exp_noRW	14	Rpleas_acq	CS_A	YFFY	ZHHZ	LWWL	DXXD	JQQJ	CPPC	genießen	küssen	träumen	gütig	sonnig	vertrauen	gemein	krank	töten	gierig	sterben	versagen	53pct	acq_USunple_CSunple2_noRW	acq23456_noRW	3	33	0	0	300	300	1293	46	0	1	1	blank2r.bmp	0	1	+	0	1	blank2r.bmp	252	1	DXXD	306	1	gierig	559	0	0	0	0	0	0	0	0	0	0	0	0	0	0	0	0	0	0	0	0	0	0	0	0	0	0	0	0	0	0	0	0	0	0	0	0	0	0	0
070319	14:47:52	14:56:48	534848	5.0.10.0	5_exp_noRW	14	Rpleas_acq	CS_A	YFFY	ZHHZ	LWWL	DXXD	JQQJ	CPPC	genießen	küssen	träumen	gütig	sonnig	vertrauen	gemein	krank	töten	gierig	sterben	versagen	53pct	acq_USpleas_CSpleas2_noRW	acq23456_noRW	3	34	0	0	300	300	862	50	0	1	1	blank2r.bmp	0	1	+	0	1	blank2r.bmp	252	1	ZHHZ	306	1	gütig	559	0	0	0	0	0	0	0	0	0	0	0	0	0	0	0	0	0	0	0	0	0	0	0	0	0	0	0	0	0	0	0	0	0	0	0	0	0	0	0
070319	14:47:52	14:56:49	536620	5.0.10.0	5_exp_noRW	14	Rpleas_acq	CS_A	YFFY	ZHHZ	LWWL	DXXD	JQQJ	CPPC	genießen	küssen	träumen	gütig	sonnig	vertrauen	gemein	krank	töten	gierig	sterben	versagen	53pct	acq_USunple_CSunple1_noRW	acq23456_noRW	3	35	0	0	300	300	588	46	0	1	1	blank2r.bmp	0	1	+	0	1	blank2r.bmp	252	1	LWWL	306	3	töten	559	0	0	0	0	0	0	0	0	0	0	0	0	0	0	0	0	0	0	0	0	0	0	0	0	0	0	0	0	0	0	0	0	0	0	0	0	0	0	0
070319	14:47:52	14:56:51	538553	5.0.10.0	5_exp_noRW	14	Rpleas_acq	CS_A	YFFY	ZHHZ	LWWL	DXXD	JQQJ	CPPC	genießen	küssen	träumen	gütig	sonnig	vertrauen	gemein	krank	töten	gierig	sterben	versagen	47pct	acq_USunple_CSunple2_noRW	acq23456_noRW	3	36	0	0	300	300	764	46	0	1	1	blank2r.bmp	0	1	+	0	1	blank2r.bmp	252	1	DXXD	306	2	sterben	559	0	0	0	0	0	0	0	0	0	0	0	0	0	0	0	0	0	0	0	0	0	0	0	0	0	0	0	0	0	0	0	0	0	0	0	0	0	0	0
070319	14:47:52	14:56:54	541019	5.0.10.0	5_exp_noRW	14	Rpleas_acq	CS_A	YFFY	ZHHZ	LWWL	DXXD	JQQJ	CPPC	genießen	küssen	träumen	gütig	sonnig	vertrauen	gemein	krank	töten	gierig	sterben	versagen	47pct	acq_USunple_CSunple1_noRW	acq23456_noRW	3	37	0	0	300	300	1294	46	0	1	1	blank2r.bmp	0	1	+	0	1	blank2r.bmp	252	1	LWWL	306	1	gemein	559	0	0	0	0	0	0	0	0	0	0	0	0	0	0	0	0	0	0	0	0	0	0	0	0	0	0	0	0	0	0	0	0	0	0	0	0	0	0	0
070319	14:47:52	14:56:56	542778	5.0.10.0	5_exp_noRW	14	Rpleas_acq	CS_A	YFFY	ZHHZ	LWWL	DXXD	JQQJ	CPPC	genießen	küssen	träumen	gütig	sonnig	vertrauen	gemein	krank	töten	gierig	sterben	versagen	47pct	acq_USunple_CSunple1_noRW	acq23456_noRW	3	38	0	0	300	300	596	46	0	1	1	blank2r.bmp	0	1	+	0	1	blank2r.bmp	252	1	LWWL	306	2	krank	559	0	0	0	0	0	0	0	0	0	0	0	0	0	0	0	0	0	0	0	0	0	0	0	0	0	0	0	0	0	0	0	0	0	0	0	0	0	0	0
070319	14:47:52	14:56:57	544644	5.0.10.0	5_exp_noRW	14	Rpleas_acq	CS_A	YFFY	ZHHZ	LWWL	DXXD	JQQJ	CPPC	genießen	küssen	träumen	gütig	sonnig	vertrauen	gemein	krank	töten	gierig	sterben	versagen	53pct	acq_USpleas_CSpleas2_noRW	acq23456_noRW	3	39	0	0	300	300	691	50	0	1	1	blank2r.bmp	0	1	+	0	1	blank2r.bmp	252	1	ZHHZ	306	3	vertrauen	559	0	0	0	0	0	0	0	0	0	0	0	0	0	0	0	0	0	0	0	0	0	0	0	0	0	0	0	0	0	0	0	0	0	0	0	0	0	0	0
070319	14:47:52	14:56:59	546630	5.0.10.0	5_exp_noRW	14	Rpleas_acq	CS_A	YFFY	ZHHZ	LWWL	DXXD	JQQJ	CPPC	genießen	küssen	träumen	gütig	sonnig	vertrauen	gemein	krank	töten	gierig	sterben	versagen	47pct	acq_USpleas_CSpleas1_noRW	acq23456_noRW	3	40	0	0	300	300	799	50	0	1	1	blank2r.bmp	0	1	+	0	1	blank2r.bmp	252	1	YFFY	306	1	genießen	559	0	0	0	0	0	0	0	0	0	0	0	0	0	0	0	0	0	0	0	0	0	0	0	0	0	0	0	0	0	0	0	0	0	0	0	0	0	0	0
070319	14:47:52	14:57:01	548629	5.0.10.0	5_exp_noRW	14	Rpleas_acq	CS_A	YFFY	ZHHZ	LWWL	DXXD	JQQJ	CPPC	genießen	küssen	träumen	gütig	sonnig	vertrauen	gemein	krank	töten	gierig	sterben	versagen	53pct	acq_USunple_CSunple2_noRW	acq23456_noRW	3	41	0	0	300	300	828	46	0	1	1	blank2r.bmp	0	1	+	0	1	blank2r.bmp	252	1	DXXD	306	1	gierig	559	0	0	0	0	0	0	0	0	0	0	0	0	0	0	0	0	0	0	0	0	0	0	0	0	0	0	0	0	0	0	0	0	0	0	0	0	0	0	0
070319	14:47:52	14:57:03	550455	5.0.10.0	5_exp_noRW	14	Rpleas_acq	CS_A	YFFY	ZHHZ	LWWL	DXXD	JQQJ	CPPC	genießen	küssen	träumen	gütig	sonnig	vertrauen	gemein	krank	töten	gierig	sterben	versagen	53pct	acq_USpleas_CSunple2_noRW	acq23456_noRW	3	42	0	0	300	300	640	50	0	1	1	blank2r.bmp	0	1	+	0	1	blank2r.bmp	252	1	DXXD	306	3	vertrauen	559	0	0	0	0	0	0	0	0	0	0	0	0	0	0	0	0	0	0	0	0	0	0	0	0	0	0	0	0	0	0	0	0	0	0	0	0	0	0	0
070319	14:47:52	14:57:05	552334	5.0.10.0	5_exp_noRW	14	Rpleas_acq	CS_A	YFFY	ZHHZ	LWWL	DXXD	JQQJ	CPPC	genießen	küssen	träumen	gütig	sonnig	vertrauen	gemein	krank	töten	gierig	sterben	versagen	53pct	acq_USpleas_CSpleas1_noRW	acq23456_noRW	3	43	0	0	300	300	697	50	0	1	1	blank2r.bmp	0	1	+	0	1	blank2r.bmp	252	1	YFFY	306	3	träumen	559	0	0	0	0	0	0	0	0	0	0	0	0	0	0	0	0	0	0	0	0	0	0	0	0	0	0	0	0	0	0	0	0	0	0	0	0	0	0	0
070319	14:47:52	14:57:07	554200	5.0.10.0	5_exp_noRW	14	Rpleas_acq	CS_A	YFFY	ZHHZ	LWWL	DXXD	JQQJ	CPPC	genießen	küssen	träumen	gütig	sonnig	vertrauen	gemein	krank	töten	gierig	sterben	versagen	47pct	acq_USunple_CSpleas2_noRW	acq23456_noRW	3	44	0	0	300	300	696	46	0	1	1	blank2r.bmp	0	1	+	0	1	blank2r.bmp	252	1	ZHHZ	306	2	sterben	559	0	0	0	0	0	0	0	0	0	0	0	0	0	0	0	0	0	0	0	0	0	0	0	0	0	0	0	0	0	0	0	0	0	0	0	0	0	0	0
070319	14:47:52	14:57:09	556412	5.0.10.0	5_exp_noRW	14	Rpleas_acq	CS_A	YFFY	ZHHZ	LWWL	DXXD	JQQJ	CPPC	genießen	küssen	träumen	gütig	sonnig	vertrauen	gemein	krank	töten	gierig	sterben	versagen	47pct	acq_USunple_CSunple2_noRW	acq23456_noRW	3	45	0	0	300	300	1049	46	0	1	1	blank2r.bmp	0	1	+	0	1	blank2r.bmp	252	1	DXXD	306	3	versagen	559	0	0	0	0	0	0	0	0	0	0	0	0	0	0	0	0	0	0	0	0	0	0	0	0	0	0	0	0	0	0	0	0	0	0	0	0	0	0	0
070319	14:47:52	14:57:11	558238	5.0.10.0	5_exp_noRW	14	Rpleas_acq	CS_A	YFFY	ZHHZ	LWWL	DXXD	JQQJ	CPPC	genießen	küssen	träumen	gütig	sonnig	vertrauen	gemein	krank	töten	gierig	sterben	versagen	47pct	acq_USunple_CSunple2_noRW	acq23456_noRW	3	46	0	0	300	300	647	46	0	1	1	blank2r.bmp	0	1	+	0	1	blank2r.bmp	252	1	DXXD	306	2	sterben	559	0	0	0	0	0	0	0	0	0	0	0	0	0	0	0	0	0	0	0	0	0	0	0	0	0	0	0	0	0	0	0	0	0	0	0	0	0	0	0
070319	14:47:52	14:57:14	560771	5.0.10.0	5_exp_noRW	14	Rpleas_acq	CS_A	YFFY	ZHHZ	LWWL	DXXD	JQQJ	CPPC	genießen	küssen	träumen	gütig	sonnig	vertrauen	gemein	krank	töten	gierig	sterben	versagen	47pct	acq_USunple_CSunple1_noRW	acq23456_noRW	3	47	0	0	300	300	1356	46	0	1	1	blank2r.bmp	0	1	+	0	1	blank2r.bmp	252	1	LWWL	306	1	gemein	559	0	0	0	0	0	0	0	0	0	0	0	0	0	0	0	0	0	0	0	0	0	0	0	0	0	0	0	0	0	0	0	0	0	0	0	0	0	0	0
070319	14:47:52	14:57:15	562463	5.0.10.0	5_exp_noRW	14	Rpleas_acq	CS_A	YFFY	ZHHZ	LWWL	DXXD	JQQJ	CPPC	genießen	küssen	träumen	gütig	sonnig	vertrauen	gemein	krank	töten	gierig	sterben	versagen	53pct	acq_USunple_CSunple1_noRW	acq23456_noRW	3	48	0	0	300	300	511	46	0	1	1	blank2r.bmp	0	1	+	0	1	blank2r.bmp	252	1	LWWL	306	3	töten	559	0	0	0	0	0	0	0	0	0	0	0	0	0	0	0	0	0	0	0	0	0	0	0	0	0	0	0	0	0	0	0	0	0	0	0	0	0	0	0
070319	14:47:52	14:57:17	564249	5.0.10.0	5_exp_noRW	14	Rpleas_acq	CS_A	YFFY	ZHHZ	LWWL	DXXD	JQQJ	CPPC	genießen	küssen	träumen	gütig	sonnig	vertrauen	gemein	krank	töten	gierig	sterben	versagen	53pct	acq_USpleas_CSunple1_noRW	acq23456_noRW	3	49	0	0	300	300	602	50	0	1	1	blank2r.bmp	0	1	+	0	1	blank2r.bmp	252	1	LWWL	306	1	genießen	559	0	0	0	0	0	0	0	0	0	0	0	0	0	0	0	0	0	0	0	0	0	0	0	0	0	0	0	0	0	0	0	0	0	0	0	0	0	0	0
070319	14:47:52	14:57:19	566155	5.0.10.0	5_exp_noRW	14	Rpleas_acq	CS_A	YFFY	ZHHZ	LWWL	DXXD	JQQJ	CPPC	genießen	küssen	träumen	gütig	sonnig	vertrauen	gemein	krank	töten	gierig	sterben	versagen	47pct	acq_USpleas_CSpleas1_noRW	acq23456_noRW	3	50	0	0	300	300	743	50	0	1	1	blank2r.bmp	0	1	+	0	1	blank2r.bmp	252	1	YFFY	306	2	küssen	559	0	0	0	0	0	0	0	0	0	0	0	0	0	0	0	0	0	0	0	0	0	0	0	0	0	0	0	0	0	0	0	0	0	0	0	0	0	0	0
070319	14:47:52	14:57:21	567994	5.0.10.0	5_exp_noRW	14	Rpleas_acq	CS_A	YFFY	ZHHZ	LWWL	DXXD	JQQJ	CPPC	genießen	küssen	träumen	gütig	sonnig	vertrauen	gemein	krank	töten	gierig	sterben	versagen	53pct	acq_USpleas_CSpleas1_noRW	acq23456_noRW	3	51	0	0	300	300	652	50	0	1	1	blank2r.bmp	0	1	+	0	1	blank2r.bmp	252	1	YFFY	306	1	genießen	559	0	0	0	0	0	0	0	0	0	0	0	0	0	0	0	0	0	0	0	0	0	0	0	0	0	0	0	0	0	0	0	0	0	0	0	0	0	0	0
070319	14:47:52	14:57:23	569767	5.0.10.0	5_exp_noRW	14	Rpleas_acq	CS_A	YFFY	ZHHZ	LWWL	DXXD	JQQJ	CPPC	genießen	küssen	träumen	gütig	sonnig	vertrauen	gemein	krank	töten	gierig	sterben	versagen	47pct	acq_USunple_CSpleas1_noRW	acq23456_noRW	3	52	0	0	300	300	609	46	0	1	1	blank2r.bmp	0	1	+	0	1	blank2r.bmp	252	1	YFFY	306	3	töten	559	0	0	0	0	0	0	0	0	0	0	0	0	0	0	0	0	0	0	0	0	0	0	0	0	0	0	0	0	0	0	0	0	0	0	0	0	0	0	0
070319	14:47:52	14:57:25	571766	5.0.10.0	5_exp_noRW	14	Rpleas_acq	CS_A	YFFY	ZHHZ	LWWL	DXXD	JQQJ	CPPC	genießen	küssen	träumen	gütig	sonnig	vertrauen	gemein	krank	töten	gierig	sterben	versagen	47pct	acq_USpleas_CSpleas1_noRW	acq23456_noRW	3	53	0	0	300	300	816	50	0	1	1	blank2r.bmp	0	1	+	0	1	blank2r.bmp	252	1	YFFY	306	3	träumen	559	0	0	0	0	0	0	0	0	0	0	0	0	0	0	0	0	0	0	0	0	0	0	0	0	0	0	0	0	0	0	0	0	0	0	0	0	0	0	0
070319	14:47:52	14:57:26	573645	5.0.10.0	5_exp_noRW	14	Rpleas_acq	CS_A	YFFY	ZHHZ	LWWL	DXXD	JQQJ	CPPC	genießen	küssen	träumen	gütig	sonnig	vertrauen	gemein	krank	töten	gierig	sterben	versagen	53pct	acq_USunple_CSunple1_noRW	acq23456_noRW	3	54	0	0	300	300	712	46	0	1	1	blank2r.bmp	0	1	+	0	1	blank2r.bmp	252	1	LWWL	306	2	krank	559	0	0	0	0	0	0	0	0	0	0	0	0	0	0	0	0	0	0	0	0	0	0	0	0	0	0	0	0	0	0	0	0	0	0	0	0	0	0	0
070319	14:47:52	14:57:29	576111	5.0.10.0	5_exp_noRW	14	Rpleas_acq	CS_A	YFFY	ZHHZ	LWWL	DXXD	JQQJ	CPPC	genießen	küssen	träumen	gütig	sonnig	vertrauen	gemein	krank	töten	gierig	sterben	versagen	47pct	acq_USpleas_CSpleas2_noRW	acq23456_noRW	3	55	0	0	300	300	1280	50	0	1	1	blank2r.bmp	0	1	+	0	1	blank2r.bmp	252	1	ZHHZ	306	2	sonnig	559	0	0	0	0	0	0	0	0	0	0	0	0	0	0	0	0	0	0	0	0	0	0	0	0	0	0	0	0	0	0	0	0	0	0	0	0	0	0	0
070319	14:47:52	14:57:31	578283	5.0.10.0	5_exp_noRW	14	Rpleas_acq	CS_A	YFFY	ZHHZ	LWWL	DXXD	JQQJ	CPPC	genießen	küssen	träumen	gütig	sonnig	vertrauen	gemein	krank	töten	gierig	sterben	versagen	47pct	acq_USpleas_CSpleas2_noRW	acq23456_noRW	3	56	0	0	300	300	1007	50	0	1	1	blank2r.bmp	0	1	+	0	1	blank2r.bmp	252	1	ZHHZ	306	1	gütig	559	0	0	0	0	0	0	0	0	0	0	0	0	0	0	0	0	0	0	0	0	0	0	0	0	0	0	0	0	0	0	0	0	0	0	0	0	0	0	0
070319	14:47:52	14:57:33	580216	5.0.10.0	5_exp_noRW	14	Rpleas_acq	CS_A	YFFY	ZHHZ	LWWL	DXXD	JQQJ	CPPC	genießen	küssen	träumen	gütig	sonnig	vertrauen	gemein	krank	töten	gierig	sterben	versagen	53pct	acq_USunple_CSunple2_noRW	acq23456_noRW	3	57	0	0	300	300	751	46	0	1	1	blank2r.bmp	0	1	+	0	1	blank2r.bmp	252	1	DXXD	306	1	gierig	559	0	0	0	0	0	0	0	0	0	0	0	0	0	0	0	0	0	0	0	0	0	0	0	0	0	0	0	0	0	0	0	0	0	0	0	0	0	0	0
070319	14:47:52	14:57:35	582628	5.0.10.0	5_exp_noRW	14	Rpleas_acq	CS_A	YFFY	ZHHZ	LWWL	DXXD	JQQJ	CPPC	genießen	küssen	träumen	gütig	sonnig	vertrauen	gemein	krank	töten	gierig	sterben	versagen	47pct	acq_USpleas_CSpleas2_noRW	acq23456_noRW	3	58	0	0	300	300	1226	50	0	1	1	blank2r.bmp	0	1	+	0	1	blank2r.bmp	252	1	ZHHZ	306	1	gütig	559	0	0	0	0	0	0	0	0	0	0	0	0	0	0	0	0	0	0	0	0	0	0	0	0	0	0	0	0	0	0	0	0	0	0	0	0	0	0	0
070319	14:47:52	14:57:37	584294	5.0.10.0	5_exp_noRW	14	Rpleas_acq	CS_A	YFFY	ZHHZ	LWWL	DXXD	JQQJ	CPPC	genießen	küssen	träumen	gütig	sonnig	vertrauen	gemein	krank	töten	gierig	sterben	versagen	47pct	acq_USpleas_CSpleas2_noRW	acq23456_noRW	3	59	0	0	300	300	500	50	0	1	1	blank2r.bmp	0	1	+	0	1	blank2r.bmp	252	1	ZHHZ	306	2	sonnig	559	0	0	0	0	0	0	0	0	0	0	0	0	0	0	0	0	0	0	0	0	0	0	0	0	0	0	0	0	0	0	0	0	0	0	0	0	0	0	0
070319	14:47:52	14:57:39	586014	5.0.10.0	5_exp_noRW	14	Rpleas_acq	CS_A	YFFY	ZHHZ	LWWL	DXXD	JQQJ	CPPC	genießen	küssen	träumen	gütig	sonnig	vertrauen	gemein	krank	töten	gierig	sterben	versagen	47pct	acq_USunple_CSunple1_noRW	acq23456_noRW	3	60	0	0	300	300	557	46	0	1	1	blank2r.bmp	0	1	+	0	1	blank2r.bmp	252	1	LWWL	306	3	töten	559	0	0	0	0	0	0	0	0	0	0	0	0	0	0	0	0	0	0	0	0	0	0	0	0	0	0	0	0	0	0	0	0	0	0	0	0	0	0	0
070319	14:47:52	14:57:41	587866	5.0.10.0	5_exp_noRW	14	Rpleas_acq	CS_A	YFFY	ZHHZ	LWWL	DXXD	JQQJ	CPPC	genießen	küssen	träumen	gütig	sonnig	vertrauen	gemein	krank	töten	gierig	sterben	versagen	53pct	acq_USpleas_CSpleas1_noRW	acq23456_noRW	3	61	0	0	300	300	673	50	0	1	1	blank2r.bmp	0	1	+	0	1	blank2r.bmp	252	1	YFFY	306	2	küssen	559	0	0	0	0	0	0	0	0	0	0	0	0	0	0	0	0	0	0	0	0	0	0	0	0	0	0	0	0	0	0	0	0	0	0	0	0	0	0	0
070319	14:47:52	14:57:43	589865	5.0.10.0	5_exp_noRW	14	Rpleas_acq	CS_A	YFFY	ZHHZ	LWWL	DXXD	JQQJ	CPPC	genießen	küssen	träumen	gütig	sonnig	vertrauen	gemein	krank	töten	gierig	sterben	versagen	47pct	acq_USpleas_CSpleas2_noRW	acq23456_noRW	3	62	0	0	300	300	828	50	0	1	1	blank2r.bmp	0	1	+	0	1	blank2r.bmp	252	1	ZHHZ	306	3	vertrauen	559	0	0	0	0	0	0	0	0	0	0	0	0	0	0	0	0	0	0	0	0	0	0	0	0	0	0	0	0	0	0	0	0	0	0	0	0	0	0	0
070319	14:47:52	14:57:44	591585	5.0.10.0	5_exp_noRW	14	Rpleas_acq	CS_A	YFFY	ZHHZ	LWWL	DXXD	JQQJ	CPPC	genießen	küssen	träumen	gütig	sonnig	vertrauen	gemein	krank	töten	gierig	sterben	versagen	53pct	acq_USpleas_CSpleas2_noRW	acq23456_noRW	3	63	0	0	300	300	554	50	0	1	1	blank2r.bmp	0	1	+	0	1	blank2r.bmp	252	1	ZHHZ	306	3	vertrauen	559	0	0	0	0	0	0	0	0	0	0	0	0	0	0	0	0	0	0	0	0	0	0	0	0	0	0	0	0	0	0	0	0	0	0	0	0	0	0	0
070319	14:47:52	14:57:46	593650	5.0.10.0	5_exp_noRW	14	Rpleas_acq	CS_A	YFFY	ZHHZ	LWWL	DXXD	JQQJ	CPPC	genießen	küssen	träumen	gütig	sonnig	vertrauen	gemein	krank	töten	gierig	sterben	versagen	47pct	acq_USunple_CSunple2_noRW	acq23456_noRW	3	64	0	0	300	300	887	46	0	1	1	blank2r.bmp	0	1	+	0	1	blank2r.bmp	252	1	DXXD	306	3	versagen	559	0	0	0	0	0	0	0	0	0	0	0	0	0	0	0	0	0	0	0	0	0	0	0	0	0	0	0	0	0	0	0	0	0	0	0	0	0	0	0
070319	14:47:52	14:57:49	595863	5.0.10.0	5_exp_noRW	14	Rpleas_acq	CS_A	YFFY	ZHHZ	LWWL	DXXD	JQQJ	CPPC	genießen	küssen	träumen	gütig	sonnig	vertrauen	gemein	krank	töten	gierig	sterben	versagen	47pct	acq_USunple_CSpleas1_noRW	acq23456_noRW	3	65	0	0	300	300	1029	46	0	1	1	blank2r.bmp	0	1	+	0	1	blank2r.bmp	252	1	YFFY	306	1	gemein	559	0	0	0	0	0	0	0	0	0	0	0	0	0	0	0	0	0	0	0	0	0	0	0	0	0	0	0	0	0	0	0	0	0	0	0	0	0	0	0
070319	14:47:52	14:57:51	598395	5.0.10.0	5_exp_noRW	14	Rpleas_acq	CS_A	YFFY	ZHHZ	LWWL	DXXD	JQQJ	CPPC	genießen	küssen	träumen	gütig	sonnig	vertrauen	gemein	krank	töten	gierig	sterben	versagen	53pct	acq_USunple_CSunple1_noRW	acq23456_noRW	3	66	0	0	300	300	1350	46	0	1	1	blank2r.bmp	0	1	+	0	1	blank2r.bmp	252	1	LWWL	306	1	gemein	559	0	0	0	0	0	0	0	0	0	0	0	0	0	0	0	0	0	0	0	0	0	0	0	0	0	0	0	0	0	0	0	0	0	0	0	0	0	0	0
070319	14:47:52	14:57:53	600168	5.0.10.0	5_exp_noRW	14	Rpleas_acq	CS_A	YFFY	ZHHZ	LWWL	DXXD	JQQJ	CPPC	genießen	küssen	träumen	gütig	sonnig	vertrauen	gemein	krank	töten	gierig	sterben	versagen	53pct	acq_USpleas_CSpleas1_noRW	acq23456_noRW	3	67	0	0	300	300	608	50	0	1	1	blank2r.bmp	0	1	+	0	1	blank2r.bmp	252	1	YFFY	306	1	genießen	559	0	0	0	0	0	0	0	0	0	0	0	0	0	0	0	0	0	0	0	0	0	0	0	0	0	0	0	0	0	0	0	0	0	0	0	0	0	0	0
070319	14:47:52	14:57:55	602194	5.0.10.0	5_exp_noRW	14	Rpleas_acq	CS_A	YFFY	ZHHZ	LWWL	DXXD	JQQJ	CPPC	genießen	küssen	träumen	gütig	sonnig	vertrauen	gemein	krank	töten	gierig	sterben	versagen	47pct	acq_USunple_CSpleas2_noRW	acq23456_noRW	3	68	0	0	300	300	849	46	0	1	1	blank2r.bmp	0	1	+	0	1	blank2r.bmp	252	1	ZHHZ	306	3	versagen	559	0	0	0	0	0	0	0	0	0	0	0	0	0	0	0	0	0	0	0	0	0	0	0	0	0	0	0	0	0	0	0	0	0	0	0	0	0	0	0
070319	14:47:52	14:57:57	604020	5.0.10.0	5_exp_noRW	14	Rpleas_acq	CS_A	YFFY	ZHHZ	LWWL	DXXD	JQQJ	CPPC	genießen	küssen	träumen	gütig	sonnig	vertrauen	gemein	krank	töten	gierig	sterben	versagen	53pct	acq_USpleas_CSunple1_noRW	acq23456_noRW	3	69	0	0	300	300	647	50	0	1	1	blank2r.bmp	0	1	+	0	1	blank2r.bmp	252	1	LWWL	306	2	küssen	559	0	0	0	0	0	0	0	0	0	0	0	0	0	0	0	0	0	0	0	0	0	0	0	0	0	0	0	0	0	0	0	0	0	0	0	0	0	0	0
070319	14:47:52	14:57:59	606085	5.0.10.0	5_exp_noRW	14	Rpleas_acq	CS_A	YFFY	ZHHZ	LWWL	DXXD	JQQJ	CPPC	genießen	küssen	träumen	gütig	sonnig	vertrauen	gemein	krank	töten	gierig	sterben	versagen	47pct	acq_USunple_CSunple1_noRW	acq23456_noRW	3	70	0	0	300	300	889	46	0	1	1	blank2r.bmp	0	1	+	0	1	blank2r.bmp	252	1	LWWL	306	1	gemein	559	0	0	0	0	0	0	0	0	0	0	0	0	0	0	0	0	0	0	0	0	0	0	0	0	0	0	0	0	0	0	0	0	0	0	0	0	0	0	0
070319	14:47:52	14:58:01	608005	5.0.10.0	5_exp_noRW	14	Rpleas_acq	CS_A	YFFY	ZHHZ	LWWL	DXXD	JQQJ	CPPC	genießen	küssen	träumen	gütig	sonnig	vertrauen	gemein	krank	töten	gierig	sterben	versagen	47pct	acq_USunple_CSunple2_noRW	acq23456_noRW	3	71	0	0	300	300	753	46	0	1	1	blank2r.bmp	0	1	+	0	1	blank2r.bmp	252	1	DXXD	306	1	gierig	559	0	0	0	0	0	0	0	0	0	0	0	0	0	0	0	0	0	0	0	0	0	0	0	0	0	0	0	0	0	0	0	0	0	0	0	0	0	0	0
070319	14:47:52	14:58:03	609977	5.0.10.0	5_exp_noRW	14	Rpleas_acq	CS_A	YFFY	ZHHZ	LWWL	DXXD	JQQJ	CPPC	genießen	küssen	träumen	gütig	sonnig	vertrauen	gemein	krank	töten	gierig	sterben	versagen	53pct	acq_USunple_CSunple1_noRW	acq23456_noRW	3	72	0	0	300	300	802	46	0	1	1	blank2r.bmp	0	1	+	0	1	blank2r.bmp	252	1	LWWL	306	3	töten	559	0	0	0	0	0	0	0	0	0	0	0	0	0	0	0	0	0	0	0	0	0	0	0	0	0	0	0	0	0	0	0	0	0	0	0	0	0	0	0
070319	14:47:52	14:58:05	611830	5.0.10.0	5_exp_noRW	14	Rpleas_acq	CS_A	YFFY	ZHHZ	LWWL	DXXD	JQQJ	CPPC	genießen	küssen	träumen	gütig	sonnig	vertrauen	gemein	krank	töten	gierig	sterben	versagen	53pct	acq_USpleas_CSpleas1_noRW	acq23456_noRW	3	73	0	0	300	300	685	50	0	1	1	blank2r.bmp	0	1	+	0	1	blank2r.bmp	252	1	YFFY	306	3	träumen	559	0	0	0	0	0	0	0	0	0	0	0	0	0	0	0	0	0	0	0	0	0	0	0	0	0	0	0	0	0	0	0	0	0	0	0	0	0	0	0
070319	14:47:52	14:58:06	613496	5.0.10.0	5_exp_noRW	14	Rpleas_acq	CS_A	YFFY	ZHHZ	LWWL	DXXD	JQQJ	CPPC	genießen	küssen	träumen	gütig	sonnig	vertrauen	gemein	krank	töten	gierig	sterben	versagen	47pct	acq_USpleas_CSunple2_noRW	acq23456_noRW	3	74	0	0	300	300	504	50	0	1	1	blank2r.bmp	0	1	+	0	1	blank2r.bmp	252	1	DXXD	306	2	sonnig	559	0	0	0	0	0	0	0	0	0	0	0	0	0	0	0	0	0	0	0	0	0	0	0	0	0	0	0	0	0	0	0	0	0	0	0	0	0	0	0
070319	14:47:52	14:58:08	615255	5.0.10.0	5_exp_noRW	14	Rpleas_acq	CS_A	YFFY	ZHHZ	LWWL	DXXD	JQQJ	CPPC	genießen	küssen	träumen	gütig	sonnig	vertrauen	gemein	krank	töten	gierig	sterben	versagen	53pct	acq_USunple_CSunple1_noRW	acq23456_noRW	3	75	0	0	300	300	560	46	0	1	1	blank2r.bmp	0	1	+	0	1	blank2r.bmp	252	1	LWWL	306	2	krank	559	0	0	0	0	0	0	0	0	0	0	0	0	0	0	0	0	0	0	0	0	0	0	0	0	0	0	0	0	0	0	0	0	0	0	0	0	0	0	0
070319	14:47:52	14:58:10	617014	5.0.10.0	5_exp_noRW	14	Rpleas_acq	CS_A	YFFY	ZHHZ	LWWL	DXXD	JQQJ	CPPC	genießen	küssen	träumen	gütig	sonnig	vertrauen	gemein	krank	töten	gierig	sterben	versagen	47pct	acq_USunple_CSunple2_noRW	acq23456_noRW	3	76	0	0	300	300	572	46	0	1	1	blank2r.bmp	0	1	+	0	1	blank2r.bmp	252	1	DXXD	306	2	sterben	559	0	0	0	0	0	0	0	0	0	0	0	0	0	0	0	0	0	0	0	0	0	0	0	0	0	0	0	0	0	0	0	0	0	0	0	0	0	0	0
070319	14:47:52	14:58:12	618880	5.0.10.0	5_exp_noRW	14	Rpleas_acq	CS_A	YFFY	ZHHZ	LWWL	DXXD	JQQJ	CPPC	genießen	küssen	träumen	gütig	sonnig	vertrauen	gemein	krank	töten	gierig	sterben	versagen	47pct	acq_USpleas_CSpleas1_noRW	acq23456_noRW	3	77	0	0	300	300	694	50	0	1	1	blank2r.bmp	0	1	+	0	1	blank2r.bmp	252	1	YFFY	306	2	küssen	559	0	0	0	0	0	0	0	0	0	0	0	0	0	0	0	0	0	0	0	0	0	0	0	0	0	0	0	0	0	0	0	0	0	0	0	0	0	0	0
070319	14:47:52	14:58:14	621159	5.0.10.0	5_exp_noRW	14	Rpleas_acq	CS_A	YFFY	ZHHZ	LWWL	DXXD	JQQJ	CPPC	genießen	küssen	träumen	gütig	sonnig	vertrauen	gemein	krank	töten	gierig	sterben	versagen	47pct	acq_USunple_CSunple2_noRW	acq23456_noRW	3	78	0	0	300	300	1106	46	0	1	1	blank2r.bmp	0	1	+	0	1	blank2r.bmp	252	1	DXXD	306	3	versagen	559	0	0	0	0	0	0	0	0	0	0	0	0	0	0	0	0	0	0	0	0	0	0	0	0	0	0	0	0	0	0	0	0	0	0	0	0	0	0	0
070319	14:47:52	14:58:16	623265	5.0.10.0	5_exp_noRW	14	Rpleas_acq	CS_A	YFFY	ZHHZ	LWWL	DXXD	JQQJ	CPPC	genießen	küssen	träumen	gütig	sonnig	vertrauen	gemein	krank	töten	gierig	sterben	versagen	47pct	acq_USpleas_CSpleas2_noRW	acq23456_noRW	3	79	0	0	300	300	935	50	0	1	1	blank2r.bmp	0	1	+	0	1	blank2r.bmp	252	1	ZHHZ	306	1	gütig	559	0	0	0	0	0	0	0	0	0	0	0	0	0	0	0	0	0	0	0	0	0	0	0	0	0	0	0	0	0	0	0	0	0	0	0	0	0	0	0
070319	14:47:52	14:58:18	624998	5.0.10.0	5_exp_noRW	14	Rpleas_acq	CS_A	YFFY	ZHHZ	LWWL	DXXD	JQQJ	CPPC	genießen	küssen	träumen	gütig	sonnig	vertrauen	gemein	krank	töten	gierig	sterben	versagen	47pct	acq_USpleas_CSpleas2_noRW	acq23456_noRW	3	80	0	0	300	300	558	50	0	1	1	blank2r.bmp	0	1	+	0	1	blank2r.bmp	252	1	ZHHZ	306	2	sonnig	559	0	0	0	0	0	0	0	0	0	0	0	0	0	0	0	0	0	0	0	0	0	0	0	0	0	0	0	0	0	0	0	0	0	0	0	0	0	0	0
070319	14:47:52	14:58:32	638792	5.0.10.0	5_exp_noRW	14	Rpleas_acq	CS_A	YFFY	ZHHZ	LWWL	DXXD	JQQJ	CPPC	genießen	küssen	träumen	gütig	sonnig	vertrauen	gemein	krank	töten	gierig	sterben	versagen	53pct	acq_USpleas_CSpleas2_noRW	acq23456_noRW	4	1	0	0	300	300	849	50	0	1	1	blank2r.bmp	0	1	+	0	1	blank2r.bmp	252	1	ZHHZ	306	3	vertrauen	559	0	0	0	0	0	0	0	0	0	0	0	0	0	0	0	0	0	0	0	0	0	0	0	0	0	0	0	0	0	0	0	0	0	0	0	0	0	0	0
