date	time	script.currenttime	script.elapsedtime	build	script.currentexpt	subject	expressions.LRpleas_acq	expressions.conditionCS_A	expressions.CSpleas_1	expressions.CSpleas_2	expressions.CSunple_1	expressions.CSunple_2	expressions.distractor_1	expressions.distractor_2	expressions.US_pleas1	expressions.US_pleas2	expressions.US_pleas3	expressions.US_pleas4	expressions.US_pleas5	expressions.US_pleas6	expressions.US_unple1	expressions.US_unple2	expressions.US_unple3	expressions.US_unple4	expressions.US_unple5	expressions.US_unple6	counter.positions_noRW	trialcode	blockcode	blocknum	trialnum	windowcenter	inwindow	pretrialpause	posttrialpause	latency	response	expressions.correctedscore	correct	stimulusnumber1	stimulusitem1	stimulusonset1	stimulusnumber2	stimulusitem2	stimulusonset2	stimulusnumber3	stimulusitem3	stimulusonset3	stimulusnumber4	stimulusitem4	stimulusonset4	stimulusnumber5	stimulusitem5	stimulusonset5	stimulusnumber6	stimulusitem6	stimulusonset6	stimulusnumber7	stimulusitem7	stimulusonset7	stimulusnumber8	stimulusitem8	stimulusonset8	stimulusnumber9	stimulusitem9	stimulusonset9	stimulusnumber10	stimulusitem10	stimulusonset10	stimulusnumber11	stimulusitem11	stimulusonset11	stimulusnumber12	stimulusitem12	stimulusonset12	stimulusnumber13	stimulusitem13	stimulusonset13	stimulusnumber14	stimulusitem14	stimulusonset14	stimulusnumber15	stimulusitem15	stimulusonset15	stimulusnumber16	stimulusitem16	stimulusonset16	stimulusnumber17	stimulusitem17	stimulusonset17	stimulusnumber18	stimulusitem18	stimulusonset18
072319	16:47:59	16:50:41	161265	5.0.10.0	5_exp_noRW	80	Rpleas_acq	CS_A	ZHHZ	YFFY	CPPC	DXXD	JQQJ	LWWL	sonnig	gütig	vertrauen	küssen	genießen	träumen	sterben	gierig	versagen	krank	gemein	töten	47pct	acq_USunple_CSpleas1_noRW	acq1_noRW	1	1	0	0	300	300	1388	50	0	0	1	blank2r.bmp	0	1	+	0	1	blank2r.bmp	252	1	ZHHZ	306	3	versagen	559	1	FEHLER	1985	0	0	0	0	0	0	0	0	0	0	0	0	0	0	0	0	0	0	0	0	0	0	0	0	0	0	0	0	0	0	0	0	0	0	0	0
072319	16:47:59	16:50:44	164184	5.0.10.0	5_exp_noRW	80	Rpleas_acq	CS_A	ZHHZ	YFFY	CPPC	DXXD	JQQJ	LWWL	sonnig	gütig	vertrauen	küssen	genießen	träumen	sterben	gierig	versagen	krank	gemein	töten	53pct	acq_USpleas_CSpleas1_noRW	acq1_noRW	1	2	0	0	300	300	1966	50	0	1	1	blank2r.bmp	0	1	+	0	1	blank2r.bmp	252	1	ZHHZ	306	1	sonnig	559	0	0	0	0	0	0	0	0	0	0	0	0	0	0	0	0	0	0	0	0	0	0	0	0	0	0	0	0	0	0	0	0	0	0	0	0	0	0	0
072319	16:47:59	16:50:46	166503	5.0.10.0	5_exp_noRW	80	Rpleas_acq	CS_A	ZHHZ	YFFY	CPPC	DXXD	JQQJ	LWWL	sonnig	gütig	vertrauen	küssen	genießen	träumen	sterben	gierig	versagen	krank	gemein	töten	53pct	acq_USpleas_CSunple2_noRW	acq1_noRW	1	3	0	0	300	300	1152	50	0	1	1	blank2r.bmp	0	1	+	0	1	blank2r.bmp	252	1	DXXD	306	3	träumen	559	0	0	0	0	0	0	0	0	0	0	0	0	0	0	0	0	0	0	0	0	0	0	0	0	0	0	0	0	0	0	0	0	0	0	0	0	0	0	0
072319	16:47:59	16:50:48	168436	5.0.10.0	5_exp_noRW	80	Rpleas_acq	CS_A	ZHHZ	YFFY	CPPC	DXXD	JQQJ	LWWL	sonnig	gütig	vertrauen	küssen	genießen	träumen	sterben	gierig	versagen	krank	gemein	töten	47pct	acq_USpleas_CSpleas2_noRW	acq1_noRW	1	4	0	0	300	300	749	50	0	1	1	blank2r.bmp	0	1	+	0	1	blank2r.bmp	252	1	YFFY	306	1	küssen	559	0	0	0	0	0	0	0	0	0	0	0	0	0	0	0	0	0	0	0	0	0	0	0	0	0	0	0	0	0	0	0	0	0	0	0	0	0	0	0
072319	16:47:59	16:50:50	170195	5.0.10.0	5_exp_noRW	80	Rpleas_acq	CS_A	ZHHZ	YFFY	CPPC	DXXD	JQQJ	LWWL	sonnig	gütig	vertrauen	küssen	genießen	träumen	sterben	gierig	versagen	krank	gemein	töten	47pct	acq_USunple_CSunple2_noRW	acq1_noRW	1	5	0	0	300	300	598	46	0	1	1	blank2r.bmp	0	1	+	0	1	blank2r.bmp	252	1	DXXD	306	3	töten	559	0	0	0	0	0	0	0	0	0	0	0	0	0	0	0	0	0	0	0	0	0	0	0	0	0	0	0	0	0	0	0	0	0	0	0	0	0	0	0
072319	16:47:59	16:50:52	172274	5.0.10.0	5_exp_noRW	80	Rpleas_acq	CS_A	ZHHZ	YFFY	CPPC	DXXD	JQQJ	LWWL	sonnig	gütig	vertrauen	küssen	genießen	träumen	sterben	gierig	versagen	krank	gemein	töten	47pct	acq_USpleas_CSpleas1_noRW	acq1_noRW	1	6	0	0	300	300	901	50	0	1	1	blank2r.bmp	0	1	+	0	1	blank2r.bmp	252	1	ZHHZ	306	3	vertrauen	559	0	0	0	0	0	0	0	0	0	0	0	0	0	0	0	0	0	0	0	0	0	0	0	0	0	0	0	0	0	0	0	0	0	0	0	0	0	0	0
072319	16:47:59	16:50:54	174140	5.0.10.0	5_exp_noRW	80	Rpleas_acq	CS_A	ZHHZ	YFFY	CPPC	DXXD	JQQJ	LWWL	sonnig	gütig	vertrauen	küssen	genießen	träumen	sterben	gierig	versagen	krank	gemein	töten	53pct	acq_USpleas_CSpleas2_noRW	acq1_noRW	1	7	0	0	300	300	688	50	0	1	1	blank2r.bmp	0	1	+	0	1	blank2r.bmp	252	1	YFFY	306	2	genießen	559	0	0	0	0	0	0	0	0	0	0	0	0	0	0	0	0	0	0	0	0	0	0	0	0	0	0	0	0	0	0	0	0	0	0	0	0	0	0	0
072319	16:47:59	16:50:56	176046	5.0.10.0	5_exp_noRW	80	Rpleas_acq	CS_A	ZHHZ	YFFY	CPPC	DXXD	JQQJ	LWWL	sonnig	gütig	vertrauen	küssen	genießen	träumen	sterben	gierig	versagen	krank	gemein	töten	47pct	acq_USpleas_CSpleas1_noRW	acq1_noRW	1	8	0	0	300	300	732	50	0	1	1	blank2r.bmp	0	1	+	0	1	blank2r.bmp	252	1	ZHHZ	306	2	gütig	559	0	0	0	0	0	0	0	0	0	0	0	0	0	0	0	0	0	0	0	0	0	0	0	0	0	0	0	0	0	0	0	0	0	0	0	0	0	0	0
072319	16:47:59	16:50:57	177778	5.0.10.0	5_exp_noRW	80	Rpleas_acq	CS_A	ZHHZ	YFFY	CPPC	DXXD	JQQJ	LWWL	sonnig	gütig	vertrauen	küssen	genießen	träumen	sterben	gierig	versagen	krank	gemein	töten	47pct	acq_USpleas_CSpleas2_noRW	acq1_noRW	1	9	0	0	300	300	559	50	0	1	1	blank2r.bmp	0	1	+	0	1	blank2r.bmp	252	1	YFFY	306	3	träumen	559	0	0	0	0	0	0	0	0	0	0	0	0	0	0	0	0	0	0	0	0	0	0	0	0	0	0	0	0	0	0	0	0	0	0	0	0	0	0	0
072319	16:47:59	16:50:59	179644	5.0.10.0	5_exp_noRW	80	Rpleas_acq	CS_A	ZHHZ	YFFY	CPPC	DXXD	JQQJ	LWWL	sonnig	gütig	vertrauen	küssen	genießen	träumen	sterben	gierig	versagen	krank	gemein	töten	47pct	acq_USunple_CSunple2_noRW	acq1_noRW	1	10	0	0	300	300	692	46	0	1	1	blank2r.bmp	0	1	+	0	1	blank2r.bmp	252	1	DXXD	306	2	gemein	559	0	0	0	0	0	0	0	0	0	0	0	0	0	0	0	0	0	0	0	0	0	0	0	0	0	0	0	0	0	0	0	0	0	0	0	0	0	0	0
072319	16:47:59	16:51:01	181363	5.0.10.0	5_exp_noRW	80	Rpleas_acq	CS_A	ZHHZ	YFFY	CPPC	DXXD	JQQJ	LWWL	sonnig	gütig	vertrauen	küssen	genießen	träumen	sterben	gierig	versagen	krank	gemein	töten	53pct	acq_USunple_CSunple2_noRW	acq1_noRW	1	11	0	0	300	300	555	46	0	1	1	blank2r.bmp	0	1	+	0	1	blank2r.bmp	252	1	DXXD	306	1	krank	559	0	0	0	0	0	0	0	0	0	0	0	0	0	0	0	0	0	0	0	0	0	0	0	0	0	0	0	0	0	0	0	0	0	0	0	0	0	0	0
072319	16:47:59	16:51:02	183003	5.0.10.0	5_exp_noRW	80	Rpleas_acq	CS_A	ZHHZ	YFFY	CPPC	DXXD	JQQJ	LWWL	sonnig	gütig	vertrauen	küssen	genießen	träumen	sterben	gierig	versagen	krank	gemein	töten	47pct	acq_USunple_CSpleas2_noRW	acq1_noRW	1	12	0	0	300	300	463	46	0	1	1	blank2r.bmp	0	1	+	0	1	blank2r.bmp	252	1	YFFY	306	3	töten	559	0	0	0	0	0	0	0	0	0	0	0	0	0	0	0	0	0	0	0	0	0	0	0	0	0	0	0	0	0	0	0	0	0	0	0	0	0	0	0
072319	16:47:59	16:51:04	184722	5.0.10.0	5_exp_noRW	80	Rpleas_acq	CS_A	ZHHZ	YFFY	CPPC	DXXD	JQQJ	LWWL	sonnig	gütig	vertrauen	küssen	genießen	träumen	sterben	gierig	versagen	krank	gemein	töten	53pct	acq_USunple_CSunple1_noRW	acq1_noRW	1	13	0	0	300	300	540	46	0	1	1	blank2r.bmp	0	1	+	0	1	blank2r.bmp	252	1	CPPC	306	2	gierig	559	0	0	0	0	0	0	0	0	0	0	0	0	0	0	0	0	0	0	0	0	0	0	0	0	0	0	0	0	0	0	0	0	0	0	0	0	0	0	0
072319	16:47:59	16:51:06	186348	5.0.10.0	5_exp_noRW	80	Rpleas_acq	CS_A	ZHHZ	YFFY	CPPC	DXXD	JQQJ	LWWL	sonnig	gütig	vertrauen	küssen	genießen	träumen	sterben	gierig	versagen	krank	gemein	töten	47pct	acq_USunple_CSunple2_noRW	acq1_noRW	1	14	0	0	300	300	446	46	0	1	1	blank2r.bmp	0	1	+	0	1	blank2r.bmp	252	1	DXXD	306	3	töten	559	0	0	0	0	0	0	0	0	0	0	0	0	0	0	0	0	0	0	0	0	0	0	0	0	0	0	0	0	0	0	0	0	0	0	0	0	0	0	0
072319	16:47:59	16:51:08	188174	5.0.10.0	5_exp_noRW	80	Rpleas_acq	CS_A	ZHHZ	YFFY	CPPC	DXXD	JQQJ	LWWL	sonnig	gütig	vertrauen	küssen	genießen	träumen	sterben	gierig	versagen	krank	gemein	töten	47pct	acq_USpleas_CSunple1_noRW	acq1_noRW	1	15	0	0	300	300	650	50	0	1	1	blank2r.bmp	0	1	+	0	1	blank2r.bmp	252	1	CPPC	306	3	vertrauen	559	0	0	0	0	0	0	0	0	0	0	0	0	0	0	0	0	0	0	0	0	0	0	0	0	0	0	0	0	0	0	0	0	0	0	0	0	0	0	0
072319	16:47:59	16:51:09	189880	5.0.10.0	5_exp_noRW	80	Rpleas_acq	CS_A	ZHHZ	YFFY	CPPC	DXXD	JQQJ	LWWL	sonnig	gütig	vertrauen	küssen	genießen	träumen	sterben	gierig	versagen	krank	gemein	töten	53pct	acq_USpleas_CSpleas1_noRW	acq1_noRW	1	16	0	0	300	300	522	50	0	1	1	blank2r.bmp	0	1	+	0	1	blank2r.bmp	252	1	ZHHZ	306	1	sonnig	559	0	0	0	0	0	0	0	0	0	0	0	0	0	0	0	0	0	0	0	0	0	0	0	0	0	0	0	0	0	0	0	0	0	0	0	0	0	0	0
072319	16:47:59	16:51:11	191533	5.0.10.0	5_exp_noRW	80	Rpleas_acq	CS_A	ZHHZ	YFFY	CPPC	DXXD	JQQJ	LWWL	sonnig	gütig	vertrauen	küssen	genießen	träumen	sterben	gierig	versagen	krank	gemein	töten	53pct	acq_USunple_CSunple1_noRW	acq1_noRW	1	17	0	0	300	300	486	46	0	1	1	blank2r.bmp	0	1	+	0	1	blank2r.bmp	252	1	CPPC	306	1	sterben	559	0	0	0	0	0	0	0	0	0	0	0	0	0	0	0	0	0	0	0	0	0	0	0	0	0	0	0	0	0	0	0	0	0	0	0	0	0	0	0
072319	16:47:59	16:51:13	193398	5.0.10.0	5_exp_noRW	80	Rpleas_acq	CS_A	ZHHZ	YFFY	CPPC	DXXD	JQQJ	LWWL	sonnig	gütig	vertrauen	küssen	genießen	träumen	sterben	gierig	versagen	krank	gemein	töten	53pct	acq_USpleas_CSpleas2_noRW	acq1_noRW	1	18	0	0	300	300	703	50	0	1	1	blank2r.bmp	0	1	+	0	1	blank2r.bmp	252	1	YFFY	306	2	genießen	559	0	0	0	0	0	0	0	0	0	0	0	0	0	0	0	0	0	0	0	0	0	0	0	0	0	0	0	0	0	0	0	0	0	0	0	0	0	0	0
072319	16:47:59	16:51:15	195344	5.0.10.0	5_exp_noRW	80	Rpleas_acq	CS_A	ZHHZ	YFFY	CPPC	DXXD	JQQJ	LWWL	sonnig	gütig	vertrauen	küssen	genießen	träumen	sterben	gierig	versagen	krank	gemein	töten	53pct	acq_USunple_CSunple1_noRW	acq1_noRW	1	19	0	0	300	300	555	50	0	0	1	blank2r.bmp	0	1	+	0	1	blank2r.bmp	252	1	CPPC	306	3	versagen	559	1	FEHLER	1146	0	0	0	0	0	0	0	0	0	0	0	0	0	0	0	0	0	0	0	0	0	0	0	0	0	0	0	0	0	0	0	0	0	0	0	0
072319	16:47:59	16:51:16	196957	5.0.10.0	5_exp_noRW	80	Rpleas_acq	CS_A	ZHHZ	YFFY	CPPC	DXXD	JQQJ	LWWL	sonnig	gütig	vertrauen	küssen	genießen	träumen	sterben	gierig	versagen	krank	gemein	töten	53pct	acq_USunple_CSunple1_noRW	acq1_noRW	1	20	0	0	300	300	639	46	0	1	1	blank2r.bmp	0	1	+	0	1	blank2r.bmp	252	1	CPPC	306	3	versagen	559	0	0	0	0	0	0	0	0	0	0	0	0	0	0	0	0	0	0	0	0	0	0	0	0	0	0	0	0	0	0	0	0	0	0	0	0	0	0	0
072319	16:47:59	16:51:18	198730	5.0.10.0	5_exp_noRW	80	Rpleas_acq	CS_A	ZHHZ	YFFY	CPPC	DXXD	JQQJ	LWWL	sonnig	gütig	vertrauen	küssen	genießen	träumen	sterben	gierig	versagen	krank	gemein	töten	47pct	acq_USpleas_CSunple1_noRW	acq1_noRW	1	21	0	0	300	300	591	50	0	1	1	blank2r.bmp	0	1	+	0	1	blank2r.bmp	252	1	CPPC	306	2	gütig	559	0	0	0	0	0	0	0	0	0	0	0	0	0	0	0	0	0	0	0	0	0	0	0	0	0	0	0	0	0	0	0	0	0	0	0	0	0	0	0
072319	16:47:59	16:51:20	200875	5.0.10.0	5_exp_noRW	80	Rpleas_acq	CS_A	ZHHZ	YFFY	CPPC	DXXD	JQQJ	LWWL	sonnig	gütig	vertrauen	küssen	genießen	träumen	sterben	gierig	versagen	krank	gemein	töten	53pct	acq_USpleas_CSpleas1_noRW	acq1_noRW	1	22	0	0	300	300	970	50	0	1	1	blank2r.bmp	0	1	+	0	1	blank2r.bmp	252	1	ZHHZ	306	2	gütig	559	0	0	0	0	0	0	0	0	0	0	0	0	0	0	0	0	0	0	0	0	0	0	0	0	0	0	0	0	0	0	0	0	0	0	0	0	0	0	0
072319	16:47:59	16:51:22	202755	5.0.10.0	5_exp_noRW	80	Rpleas_acq	CS_A	ZHHZ	YFFY	CPPC	DXXD	JQQJ	LWWL	sonnig	gütig	vertrauen	küssen	genießen	träumen	sterben	gierig	versagen	krank	gemein	töten	53pct	acq_USpleas_CSpleas1_noRW	acq1_noRW	1	23	0	0	300	300	715	50	0	1	1	blank2r.bmp	0	1	+	0	1	blank2r.bmp	252	1	ZHHZ	306	3	vertrauen	559	0	0	0	0	0	0	0	0	0	0	0	0	0	0	0	0	0	0	0	0	0	0	0	0	0	0	0	0	0	0	0	0	0	0	0	0	0	0	0
072319	16:47:59	16:51:24	204460	5.0.10.0	5_exp_noRW	80	Rpleas_acq	CS_A	ZHHZ	YFFY	CPPC	DXXD	JQQJ	LWWL	sonnig	gütig	vertrauen	küssen	genießen	träumen	sterben	gierig	versagen	krank	gemein	töten	47pct	acq_USunple_CSpleas1_noRW	acq1_noRW	1	24	0	0	300	300	518	46	0	1	1	blank2r.bmp	0	1	+	0	1	blank2r.bmp	252	1	ZHHZ	306	1	sterben	559	0	0	0	0	0	0	0	0	0	0	0	0	0	0	0	0	0	0	0	0	0	0	0	0	0	0	0	0	0	0	0	0	0	0	0	0	0	0	0
072319	16:47:59	16:51:26	206313	5.0.10.0	5_exp_noRW	80	Rpleas_acq	CS_A	ZHHZ	YFFY	CPPC	DXXD	JQQJ	LWWL	sonnig	gütig	vertrauen	küssen	genießen	träumen	sterben	gierig	versagen	krank	gemein	töten	47pct	acq_USunple_CSunple2_noRW	acq1_noRW	1	25	0	0	300	300	677	46	0	1	1	blank2r.bmp	0	1	+	0	1	blank2r.bmp	252	1	DXXD	306	2	gemein	559	0	0	0	0	0	0	0	0	0	0	0	0	0	0	0	0	0	0	0	0	0	0	0	0	0	0	0	0	0	0	0	0	0	0	0	0	0	0	0
072319	16:47:59	16:51:28	208179	5.0.10.0	5_exp_noRW	80	Rpleas_acq	CS_A	ZHHZ	YFFY	CPPC	DXXD	JQQJ	LWWL	sonnig	gütig	vertrauen	küssen	genießen	träumen	sterben	gierig	versagen	krank	gemein	töten	53pct	acq_USunple_CSunple1_noRW	acq1_noRW	1	26	0	0	300	300	690	46	0	1	1	blank2r.bmp	0	1	+	0	1	blank2r.bmp	252	1	CPPC	306	2	gierig	559	0	0	0	0	0	0	0	0	0	0	0	0	0	0	0	0	0	0	0	0	0	0	0	0	0	0	0	0	0	0	0	0	0	0	0	0	0	0	0
072319	16:47:59	16:51:29	209952	5.0.10.0	5_exp_noRW	80	Rpleas_acq	CS_A	ZHHZ	YFFY	CPPC	DXXD	JQQJ	LWWL	sonnig	gütig	vertrauen	küssen	genießen	träumen	sterben	gierig	versagen	krank	gemein	töten	53pct	acq_USpleas_CSpleas2_noRW	acq1_noRW	1	27	0	0	300	300	596	50	0	1	1	blank2r.bmp	0	1	+	0	1	blank2r.bmp	252	1	YFFY	306	3	träumen	559	0	0	0	0	0	0	0	0	0	0	0	0	0	0	0	0	0	0	0	0	0	0	0	0	0	0	0	0	0	0	0	0	0	0	0	0	0	0	0
072319	16:47:59	16:51:31	211657	5.0.10.0	5_exp_noRW	80	Rpleas_acq	CS_A	ZHHZ	YFFY	CPPC	DXXD	JQQJ	LWWL	sonnig	gütig	vertrauen	küssen	genießen	träumen	sterben	gierig	versagen	krank	gemein	töten	53pct	acq_USpleas_CSunple2_noRW	acq1_noRW	1	28	0	0	300	300	525	50	0	1	1	blank2r.bmp	0	1	+	0	1	blank2r.bmp	252	1	DXXD	306	1	küssen	559	0	0	0	0	0	0	0	0	0	0	0	0	0	0	0	0	0	0	0	0	0	0	0	0	0	0	0	0	0	0	0	0	0	0	0	0	0	0	0
072319	16:47:59	16:51:33	213377	5.0.10.0	5_exp_noRW	80	Rpleas_acq	CS_A	ZHHZ	YFFY	CPPC	DXXD	JQQJ	LWWL	sonnig	gütig	vertrauen	küssen	genießen	träumen	sterben	gierig	versagen	krank	gemein	töten	53pct	acq_USunple_CSunple2_noRW	acq1_noRW	1	29	0	0	300	300	556	46	0	1	1	blank2r.bmp	0	1	+	0	1	blank2r.bmp	252	1	DXXD	306	1	krank	559	0	0	0	0	0	0	0	0	0	0	0	0	0	0	0	0	0	0	0	0	0	0	0	0	0	0	0	0	0	0	0	0	0	0	0	0	0	0	0
072319	16:47:59	16:51:35	215163	5.0.10.0	5_exp_noRW	80	Rpleas_acq	CS_A	ZHHZ	YFFY	CPPC	DXXD	JQQJ	LWWL	sonnig	gütig	vertrauen	küssen	genießen	träumen	sterben	gierig	versagen	krank	gemein	töten	53pct	acq_USpleas_CSpleas1_noRW	acq1_noRW	1	30	0	0	300	300	603	50	0	1	1	blank2r.bmp	0	1	+	0	1	blank2r.bmp	252	1	ZHHZ	306	3	vertrauen	559	0	0	0	0	0	0	0	0	0	0	0	0	0	0	0	0	0	0	0	0	0	0	0	0	0	0	0	0	0	0	0	0	0	0	0	0	0	0	0
072319	16:47:59	16:51:36	216962	5.0.10.0	5_exp_noRW	80	Rpleas_acq	CS_A	ZHHZ	YFFY	CPPC	DXXD	JQQJ	LWWL	sonnig	gütig	vertrauen	küssen	genießen	träumen	sterben	gierig	versagen	krank	gemein	töten	47pct	acq_USpleas_CSpleas1_noRW	acq1_noRW	1	31	0	0	300	300	617	50	0	1	1	blank2r.bmp	0	1	+	0	1	blank2r.bmp	252	1	ZHHZ	306	1	sonnig	559	0	0	0	0	0	0	0	0	0	0	0	0	0	0	0	0	0	0	0	0	0	0	0	0	0	0	0	0	0	0	0	0	0	0	0	0	0	0	0
072319	16:47:59	16:51:38	218615	5.0.10.0	5_exp_noRW	80	Rpleas_acq	CS_A	ZHHZ	YFFY	CPPC	DXXD	JQQJ	LWWL	sonnig	gütig	vertrauen	küssen	genießen	träumen	sterben	gierig	versagen	krank	gemein	töten	53pct	acq_USunple_CSunple2_noRW	acq1_noRW	1	32	0	0	300	300	486	46	0	1	1	blank2r.bmp	0	1	+	0	1	blank2r.bmp	252	1	DXXD	306	1	krank	559	0	0	0	0	0	0	0	0	0	0	0	0	0	0	0	0	0	0	0	0	0	0	0	0	0	0	0	0	0	0	0	0	0	0	0	0	0	0	0
072319	16:47:59	16:51:40	220294	5.0.10.0	5_exp_noRW	80	Rpleas_acq	CS_A	ZHHZ	YFFY	CPPC	DXXD	JQQJ	LWWL	sonnig	gütig	vertrauen	küssen	genießen	träumen	sterben	gierig	versagen	krank	gemein	töten	47pct	acq_USunple_CSunple1_noRW	acq1_noRW	1	33	0	0	300	300	508	46	0	1	1	blank2r.bmp	0	1	+	0	1	blank2r.bmp	252	1	CPPC	306	1	sterben	559	0	0	0	0	0	0	0	0	0	0	0	0	0	0	0	0	0	0	0	0	0	0	0	0	0	0	0	0	0	0	0	0	0	0	0	0	0	0	0
072319	16:47:59	16:51:41	222013	5.0.10.0	5_exp_noRW	80	Rpleas_acq	CS_A	ZHHZ	YFFY	CPPC	DXXD	JQQJ	LWWL	sonnig	gütig	vertrauen	küssen	genießen	träumen	sterben	gierig	versagen	krank	gemein	töten	53pct	acq_USunple_CSpleas2_noRW	acq1_noRW	1	34	0	0	300	300	537	46	0	1	1	blank2r.bmp	0	1	+	0	1	blank2r.bmp	252	1	YFFY	306	2	gemein	559	0	0	0	0	0	0	0	0	0	0	0	0	0	0	0	0	0	0	0	0	0	0	0	0	0	0	0	0	0	0	0	0	0	0	0	0	0	0	0
072319	16:47:59	16:51:43	223652	5.0.10.0	5_exp_noRW	80	Rpleas_acq	CS_A	ZHHZ	YFFY	CPPC	DXXD	JQQJ	LWWL	sonnig	gütig	vertrauen	küssen	genießen	träumen	sterben	gierig	versagen	krank	gemein	töten	53pct	acq_USpleas_CSpleas2_noRW	acq1_noRW	1	35	0	0	300	300	474	50	0	1	1	blank2r.bmp	0	1	+	0	1	blank2r.bmp	252	1	YFFY	306	1	küssen	559	0	0	0	0	0	0	0	0	0	0	0	0	0	0	0	0	0	0	0	0	0	0	0	0	0	0	0	0	0	0	0	0	0	0	0	0	0	0	0
072319	16:47:59	16:51:45	225265	5.0.10.0	5_exp_noRW	80	Rpleas_acq	CS_A	ZHHZ	YFFY	CPPC	DXXD	JQQJ	LWWL	sonnig	gütig	vertrauen	küssen	genießen	träumen	sterben	gierig	versagen	krank	gemein	töten	53pct	acq_USunple_CSunple1_noRW	acq1_noRW	1	36	0	0	300	300	446	46	0	1	1	blank2r.bmp	0	1	+	0	1	blank2r.bmp	252	1	CPPC	306	1	sterben	559	0	0	0	0	0	0	0	0	0	0	0	0	0	0	0	0	0	0	0	0	0	0	0	0	0	0	0	0	0	0	0	0	0	0	0	0	0	0	0
072319	16:47:59	16:51:46	226918	5.0.10.0	5_exp_noRW	80	Rpleas_acq	CS_A	ZHHZ	YFFY	CPPC	DXXD	JQQJ	LWWL	sonnig	gütig	vertrauen	küssen	genießen	träumen	sterben	gierig	versagen	krank	gemein	töten	47pct	acq_USunple_CSunple2_noRW	acq1_noRW	1	37	0	0	300	300	476	46	0	1	1	blank2r.bmp	0	1	+	0	1	blank2r.bmp	252	1	DXXD	306	3	töten	559	0	0	0	0	0	0	0	0	0	0	0	0	0	0	0	0	0	0	0	0	0	0	0	0	0	0	0	0	0	0	0	0	0	0	0	0	0	0	0
072319	16:47:59	16:51:48	228677	5.0.10.0	5_exp_noRW	80	Rpleas_acq	CS_A	ZHHZ	YFFY	CPPC	DXXD	JQQJ	LWWL	sonnig	gütig	vertrauen	küssen	genießen	träumen	sterben	gierig	versagen	krank	gemein	töten	53pct	acq_USpleas_CSpleas2_noRW	acq1_noRW	1	38	0	0	300	300	578	50	0	1	1	blank2r.bmp	0	1	+	0	1	blank2r.bmp	252	1	YFFY	306	1	küssen	559	0	0	0	0	0	0	0	0	0	0	0	0	0	0	0	0	0	0	0	0	0	0	0	0	0	0	0	0	0	0	0	0	0	0	0	0	0	0	0
072319	16:47:59	16:51:50	230423	5.0.10.0	5_exp_noRW	80	Rpleas_acq	CS_A	ZHHZ	YFFY	CPPC	DXXD	JQQJ	LWWL	sonnig	gütig	vertrauen	küssen	genießen	träumen	sterben	gierig	versagen	krank	gemein	töten	47pct	acq_USunple_CSunple1_noRW	acq1_noRW	1	39	0	0	300	300	584	46	0	1	1	blank2r.bmp	0	1	+	0	1	blank2r.bmp	252	1	CPPC	306	3	versagen	559	0	0	0	0	0	0	0	0	0	0	0	0	0	0	0	0	0	0	0	0	0	0	0	0	0	0	0	0	0	0	0	0	0	0	0	0	0	0	0
072319	16:47:59	16:51:52	232182	5.0.10.0	5_exp_noRW	80	Rpleas_acq	CS_A	ZHHZ	YFFY	CPPC	DXXD	JQQJ	LWWL	sonnig	gütig	vertrauen	küssen	genießen	träumen	sterben	gierig	versagen	krank	gemein	töten	47pct	acq_USpleas_CSpleas2_noRW	acq1_noRW	1	40	0	0	300	300	574	50	0	1	1	blank2r.bmp	0	1	+	0	1	blank2r.bmp	252	1	YFFY	306	2	genießen	559	0	0	0	0	0	0	0	0	0	0	0	0	0	0	0	0	0	0	0	0	0	0	0	0	0	0	0	0	0	0	0	0	0	0	0	0	0	0	0
072319	16:47:59	16:51:53	233901	5.0.10.0	5_exp_noRW	80	Rpleas_acq	CS_A	ZHHZ	YFFY	CPPC	DXXD	JQQJ	LWWL	sonnig	gütig	vertrauen	küssen	genießen	träumen	sterben	gierig	versagen	krank	gemein	töten	47pct	acq_USunple_CSunple1_noRW	acq1_noRW	1	41	0	0	300	300	542	46	0	1	1	blank2r.bmp	0	1	+	0	1	blank2r.bmp	252	1	CPPC	306	2	gierig	559	0	0	0	0	0	0	0	0	0	0	0	0	0	0	0	0	0	0	0	0	0	0	0	0	0	0	0	0	0	0	0	0	0	0	0	0	0	0	0
072319	16:47:59	16:51:55	235634	5.0.10.0	5_exp_noRW	80	Rpleas_acq	CS_A	ZHHZ	YFFY	CPPC	DXXD	JQQJ	LWWL	sonnig	gütig	vertrauen	küssen	genießen	träumen	sterben	gierig	versagen	krank	gemein	töten	47pct	acq_USpleas_CSpleas2_noRW	acq1_noRW	1	42	0	0	300	300	559	50	0	1	1	blank2r.bmp	0	1	+	0	1	blank2r.bmp	252	1	YFFY	306	3	träumen	559	0	0	0	0	0	0	0	0	0	0	0	0	0	0	0	0	0	0	0	0	0	0	0	0	0	0	0	0	0	0	0	0	0	0	0	0	0	0	0
072319	16:47:59	16:51:57	237207	5.0.10.0	5_exp_noRW	80	Rpleas_acq	CS_A	ZHHZ	YFFY	CPPC	DXXD	JQQJ	LWWL	sonnig	gütig	vertrauen	küssen	genießen	träumen	sterben	gierig	versagen	krank	gemein	töten	53pct	acq_USunple_CSunple1_noRW	acq1_noRW	1	43	0	0	300	300	408	46	0	1	1	blank2r.bmp	0	1	+	0	1	blank2r.bmp	252	1	CPPC	306	1	sterben	559	0	0	0	0	0	0	0	0	0	0	0	0	0	0	0	0	0	0	0	0	0	0	0	0	0	0	0	0	0	0	0	0	0	0	0	0	0	0	0
072319	16:47:59	16:51:58	238886	5.0.10.0	5_exp_noRW	80	Rpleas_acq	CS_A	ZHHZ	YFFY	CPPC	DXXD	JQQJ	LWWL	sonnig	gütig	vertrauen	küssen	genießen	träumen	sterben	gierig	versagen	krank	gemein	töten	47pct	acq_USpleas_CSunple2_noRW	acq1_noRW	1	44	0	0	300	300	509	50	0	1	1	blank2r.bmp	0	1	+	0	1	blank2r.bmp	252	1	DXXD	306	2	genießen	559	0	0	0	0	0	0	0	0	0	0	0	0	0	0	0	0	0	0	0	0	0	0	0	0	0	0	0	0	0	0	0	0	0	0	0	0	0	0	0
072319	16:47:59	16:52:00	240805	5.0.10.0	5_exp_noRW	80	Rpleas_acq	CS_A	ZHHZ	YFFY	CPPC	DXXD	JQQJ	LWWL	sonnig	gütig	vertrauen	küssen	genießen	träumen	sterben	gierig	versagen	krank	gemein	töten	53pct	acq_USpleas_CSpleas1_noRW	acq1_noRW	1	45	0	0	300	300	734	50	0	1	1	blank2r.bmp	0	1	+	0	1	blank2r.bmp	252	1	ZHHZ	306	2	gütig	559	0	0	0	0	0	0	0	0	0	0	0	0	0	0	0	0	0	0	0	0	0	0	0	0	0	0	0	0	0	0	0	0	0	0	0	0	0	0	0
072319	16:47:59	16:52:02	242538	5.0.10.0	5_exp_noRW	80	Rpleas_acq	CS_A	ZHHZ	YFFY	CPPC	DXXD	JQQJ	LWWL	sonnig	gütig	vertrauen	küssen	genießen	träumen	sterben	gierig	versagen	krank	gemein	töten	47pct	acq_USunple_CSunple2_noRW	acq1_noRW	1	46	0	0	300	300	549	46	0	1	1	blank2r.bmp	0	1	+	0	1	blank2r.bmp	252	1	DXXD	306	2	gemein	559	0	0	0	0	0	0	0	0	0	0	0	0	0	0	0	0	0	0	0	0	0	0	0	0	0	0	0	0	0	0	0	0	0	0	0	0	0	0	0
072319	16:47:59	16:52:04	244350	5.0.10.0	5_exp_noRW	80	Rpleas_acq	CS_A	ZHHZ	YFFY	CPPC	DXXD	JQQJ	LWWL	sonnig	gütig	vertrauen	küssen	genießen	träumen	sterben	gierig	versagen	krank	gemein	töten	47pct	acq_USpleas_CSpleas2_noRW	acq1_noRW	1	47	0	0	300	300	634	50	0	1	1	blank2r.bmp	0	1	+	0	1	blank2r.bmp	252	1	YFFY	306	2	genießen	559	0	0	0	0	0	0	0	0	0	0	0	0	0	0	0	0	0	0	0	0	0	0	0	0	0	0	0	0	0	0	0	0	0	0	0	0	0	0	0
072319	16:47:59	16:52:06	246443	5.0.10.0	5_exp_noRW	80	Rpleas_acq	CS_A	ZHHZ	YFFY	CPPC	DXXD	JQQJ	LWWL	sonnig	gütig	vertrauen	küssen	genießen	träumen	sterben	gierig	versagen	krank	gemein	töten	53pct	acq_USunple_CSunple1_noRW	acq1_noRW	1	48	0	0	300	300	917	46	0	1	1	blank2r.bmp	0	1	+	0	1	blank2r.bmp	252	1	CPPC	306	3	versagen	559	0	0	0	0	0	0	0	0	0	0	0	0	0	0	0	0	0	0	0	0	0	0	0	0	0	0	0	0	0	0	0	0	0	0	0	0	0	0	0
072319	16:47:59	16:52:08	248189	5.0.10.0	5_exp_noRW	80	Rpleas_acq	CS_A	ZHHZ	YFFY	CPPC	DXXD	JQQJ	LWWL	sonnig	gütig	vertrauen	küssen	genießen	träumen	sterben	gierig	versagen	krank	gemein	töten	53pct	acq_USunple_CSunple2_noRW	acq1_noRW	1	49	0	0	300	300	549	46	0	1	1	blank2r.bmp	0	1	+	0	1	blank2r.bmp	252	1	DXXD	306	1	krank	559	0	0	0	0	0	0	0	0	0	0	0	0	0	0	0	0	0	0	0	0	0	0	0	0	0	0	0	0	0	0	0	0	0	0	0	0	0	0	0
072319	16:47:59	16:52:10	250361	5.0.10.0	5_exp_noRW	80	Rpleas_acq	CS_A	ZHHZ	YFFY	CPPC	DXXD	JQQJ	LWWL	sonnig	gütig	vertrauen	küssen	genießen	träumen	sterben	gierig	versagen	krank	gemein	töten	47pct	acq_USpleas_CSpleas1_noRW	acq1_noRW	1	50	0	0	300	300	1007	50	0	1	1	blank2r.bmp	0	1	+	0	1	blank2r.bmp	252	1	ZHHZ	306	2	gütig	559	0	0	0	0	0	0	0	0	0	0	0	0	0	0	0	0	0	0	0	0	0	0	0	0	0	0	0	0	0	0	0	0	0	0	0	0	0	0	0
072319	16:47:59	16:52:12	252094	5.0.10.0	5_exp_noRW	80	Rpleas_acq	CS_A	ZHHZ	YFFY	CPPC	DXXD	JQQJ	LWWL	sonnig	gütig	vertrauen	küssen	genießen	träumen	sterben	gierig	versagen	krank	gemein	töten	53pct	acq_USunple_CSunple1_noRW	acq1_noRW	1	51	0	0	300	300	563	46	0	1	1	blank2r.bmp	0	1	+	0	1	blank2r.bmp	252	1	CPPC	306	2	gierig	559	0	0	0	0	0	0	0	0	0	0	0	0	0	0	0	0	0	0	0	0	0	0	0	0	0	0	0	0	0	0	0	0	0	0	0	0	0	0	0
072319	16:47:59	16:52:13	253826	5.0.10.0	5_exp_noRW	80	Rpleas_acq	CS_A	ZHHZ	YFFY	CPPC	DXXD	JQQJ	LWWL	sonnig	gütig	vertrauen	küssen	genießen	träumen	sterben	gierig	versagen	krank	gemein	töten	47pct	acq_USunple_CSunple2_noRW	acq1_noRW	1	52	0	0	300	300	564	46	0	1	1	blank2r.bmp	0	1	+	0	1	blank2r.bmp	252	1	DXXD	306	2	gemein	559	0	0	0	0	0	0	0	0	0	0	0	0	0	0	0	0	0	0	0	0	0	0	0	0	0	0	0	0	0	0	0	0	0	0	0	0	0	0	0
072319	16:47:59	16:52:15	255586	5.0.10.0	5_exp_noRW	80	Rpleas_acq	CS_A	ZHHZ	YFFY	CPPC	DXXD	JQQJ	LWWL	sonnig	gütig	vertrauen	küssen	genießen	träumen	sterben	gierig	versagen	krank	gemein	töten	53pct	acq_USunple_CSpleas1_noRW	acq1_noRW	1	53	0	0	300	300	588	46	0	1	1	blank2r.bmp	0	1	+	0	1	blank2r.bmp	252	1	ZHHZ	306	2	gierig	559	0	0	0	0	0	0	0	0	0	0	0	0	0	0	0	0	0	0	0	0	0	0	0	0	0	0	0	0	0	0	0	0	0	0	0	0	0	0	0
072319	16:47:59	16:52:17	257318	5.0.10.0	5_exp_noRW	80	Rpleas_acq	CS_A	ZHHZ	YFFY	CPPC	DXXD	JQQJ	LWWL	sonnig	gütig	vertrauen	küssen	genießen	träumen	sterben	gierig	versagen	krank	gemein	töten	47pct	acq_USpleas_CSpleas2_noRW	acq1_noRW	1	54	0	0	300	300	559	50	0	1	1	blank2r.bmp	0	1	+	0	1	blank2r.bmp	252	1	YFFY	306	3	träumen	559	0	0	0	0	0	0	0	0	0	0	0	0	0	0	0	0	0	0	0	0	0	0	0	0	0	0	0	0	0	0	0	0	0	0	0	0	0	0	0
072319	16:47:59	16:52:18	258971	5.0.10.0	5_exp_noRW	80	Rpleas_acq	CS_A	ZHHZ	YFFY	CPPC	DXXD	JQQJ	LWWL	sonnig	gütig	vertrauen	küssen	genießen	träumen	sterben	gierig	versagen	krank	gemein	töten	53pct	acq_USpleas_CSunple1_noRW	acq1_noRW	1	55	0	0	300	300	490	50	0	1	1	blank2r.bmp	0	1	+	0	1	blank2r.bmp	252	1	CPPC	306	1	sonnig	559	0	0	0	0	0	0	0	0	0	0	0	0	0	0	0	0	0	0	0	0	0	0	0	0	0	0	0	0	0	0	0	0	0	0	0	0	0	0	0
072319	16:47:59	16:52:20	260704	5.0.10.0	5_exp_noRW	80	Rpleas_acq	CS_A	ZHHZ	YFFY	CPPC	DXXD	JQQJ	LWWL	sonnig	gütig	vertrauen	küssen	genießen	träumen	sterben	gierig	versagen	krank	gemein	töten	47pct	acq_USunple_CSunple2_noRW	acq1_noRW	1	56	0	0	300	300	336	50	0	0	1	blank2r.bmp	0	1	+	0	1	blank2r.bmp	252	1	DXXD	306	3	töten	559	1	FEHLER	932	0	0	0	0	0	0	0	0	0	0	0	0	0	0	0	0	0	0	0	0	0	0	0	0	0	0	0	0	0	0	0	0	0	0	0	0
072319	16:47:59	16:52:22	262303	5.0.10.0	5_exp_noRW	80	Rpleas_acq	CS_A	ZHHZ	YFFY	CPPC	DXXD	JQQJ	LWWL	sonnig	gütig	vertrauen	küssen	genießen	träumen	sterben	gierig	versagen	krank	gemein	töten	47pct	acq_USpleas_CSpleas1_noRW	acq1_noRW	1	57	0	0	300	300	630	50	0	1	1	blank2r.bmp	0	1	+	0	1	blank2r.bmp	252	1	ZHHZ	306	3	vertrauen	559	0	0	0	0	0	0	0	0	0	0	0	0	0	0	0	0	0	0	0	0	0	0	0	0	0	0	0	0	0	0	0	0	0	0	0	0	0	0	0
072319	16:47:59	16:52:23	263969	5.0.10.0	5_exp_noRW	80	Rpleas_acq	CS_A	ZHHZ	YFFY	CPPC	DXXD	JQQJ	LWWL	sonnig	gütig	vertrauen	küssen	genießen	träumen	sterben	gierig	versagen	krank	gemein	töten	53pct	acq_USpleas_CSpleas1_noRW	acq1_noRW	1	58	0	0	300	300	488	50	0	1	1	blank2r.bmp	0	1	+	0	1	blank2r.bmp	252	1	ZHHZ	306	1	sonnig	559	0	0	0	0	0	0	0	0	0	0	0	0	0	0	0	0	0	0	0	0	0	0	0	0	0	0	0	0	0	0	0	0	0	0	0	0	0	0	0
072319	16:47:59	16:52:25	265635	5.0.10.0	5_exp_noRW	80	Rpleas_acq	CS_A	ZHHZ	YFFY	CPPC	DXXD	JQQJ	LWWL	sonnig	gütig	vertrauen	küssen	genießen	träumen	sterben	gierig	versagen	krank	gemein	töten	53pct	acq_USunple_CSpleas2_noRW	acq1_noRW	1	59	0	0	300	300	482	46	0	1	1	blank2r.bmp	0	1	+	0	1	blank2r.bmp	252	1	YFFY	306	1	krank	559	0	0	0	0	0	0	0	0	0	0	0	0	0	0	0	0	0	0	0	0	0	0	0	0	0	0	0	0	0	0	0	0	0	0	0	0	0	0	0
072319	16:47:59	16:52:27	267301	5.0.10.0	5_exp_noRW	80	Rpleas_acq	CS_A	ZHHZ	YFFY	CPPC	DXXD	JQQJ	LWWL	sonnig	gütig	vertrauen	küssen	genießen	träumen	sterben	gierig	versagen	krank	gemein	töten	53pct	acq_USpleas_CSpleas2_noRW	acq1_noRW	1	60	0	0	300	300	502	50	0	1	1	blank2r.bmp	0	1	+	0	1	blank2r.bmp	252	1	YFFY	306	1	küssen	559	0	0	0	0	0	0	0	0	0	0	0	0	0	0	0	0	0	0	0	0	0	0	0	0	0	0	0	0	0	0	0	0	0	0	0	0	0	0	0
072319	16:47:59	16:52:28	268993	5.0.10.0	5_exp_noRW	80	Rpleas_acq	CS_A	ZHHZ	YFFY	CPPC	DXXD	JQQJ	LWWL	sonnig	gütig	vertrauen	küssen	genießen	träumen	sterben	gierig	versagen	krank	gemein	töten	47pct	acq_USunple_CSunple2_noRW	acq1_noRW	1	61	0	0	300	300	510	46	0	1	1	blank2r.bmp	0	1	+	0	1	blank2r.bmp	252	1	DXXD	306	3	töten	559	0	0	0	0	0	0	0	0	0	0	0	0	0	0	0	0	0	0	0	0	0	0	0	0	0	0	0	0	0	0	0	0	0	0	0	0	0	0	0
072319	16:47:59	16:52:30	270726	5.0.10.0	5_exp_noRW	80	Rpleas_acq	CS_A	ZHHZ	YFFY	CPPC	DXXD	JQQJ	LWWL	sonnig	gütig	vertrauen	küssen	genießen	träumen	sterben	gierig	versagen	krank	gemein	töten	47pct	acq_USunple_CSpleas1_noRW	acq1_noRW	1	62	0	0	300	300	545	46	0	1	1	blank2r.bmp	0	1	+	0	1	blank2r.bmp	252	1	ZHHZ	306	3	versagen	559	0	0	0	0	0	0	0	0	0	0	0	0	0	0	0	0	0	0	0	0	0	0	0	0	0	0	0	0	0	0	0	0	0	0	0	0	0	0	0
072319	16:47:59	16:52:32	272405	5.0.10.0	5_exp_noRW	80	Rpleas_acq	CS_A	ZHHZ	YFFY	CPPC	DXXD	JQQJ	LWWL	sonnig	gütig	vertrauen	küssen	genießen	träumen	sterben	gierig	versagen	krank	gemein	töten	53pct	acq_USpleas_CSpleas2_noRW	acq1_noRW	1	63	0	0	300	300	514	50	0	1	1	blank2r.bmp	0	1	+	0	1	blank2r.bmp	252	1	YFFY	306	2	genießen	559	0	0	0	0	0	0	0	0	0	0	0	0	0	0	0	0	0	0	0	0	0	0	0	0	0	0	0	0	0	0	0	0	0	0	0	0	0	0	0
072319	16:47:59	16:52:34	274085	5.0.10.0	5_exp_noRW	80	Rpleas_acq	CS_A	ZHHZ	YFFY	CPPC	DXXD	JQQJ	LWWL	sonnig	gütig	vertrauen	küssen	genießen	träumen	sterben	gierig	versagen	krank	gemein	töten	47pct	acq_USunple_CSunple2_noRW	acq1_noRW	1	64	0	0	300	300	503	46	0	1	1	blank2r.bmp	0	1	+	0	1	blank2r.bmp	252	1	DXXD	306	2	gemein	559	0	0	0	0	0	0	0	0	0	0	0	0	0	0	0	0	0	0	0	0	0	0	0	0	0	0	0	0	0	0	0	0	0	0	0	0	0	0	0
072319	16:47:59	16:52:36	276564	5.0.10.0	5_exp_noRW	80	Rpleas_acq	CS_A	ZHHZ	YFFY	CPPC	DXXD	JQQJ	LWWL	sonnig	gütig	vertrauen	küssen	genießen	träumen	sterben	gierig	versagen	krank	gemein	töten	47pct	acq_USunple_CSunple2_noRW	acq1_noRW	1	65	0	0	300	300	1308	46	0	1	1	blank2r.bmp	0	1	+	0	1	blank2r.bmp	252	1	DXXD	306	1	krank	559	0	0	0	0	0	0	0	0	0	0	0	0	0	0	0	0	0	0	0	0	0	0	0	0	0	0	0	0	0	0	0	0	0	0	0	0	0	0	0
072319	16:47:59	16:52:38	278230	5.0.10.0	5_exp_noRW	80	Rpleas_acq	CS_A	ZHHZ	YFFY	CPPC	DXXD	JQQJ	LWWL	sonnig	gütig	vertrauen	küssen	genießen	träumen	sterben	gierig	versagen	krank	gemein	töten	53pct	acq_USunple_CSunple1_noRW	acq1_noRW	1	66	0	0	300	300	491	46	0	1	1	blank2r.bmp	0	1	+	0	1	blank2r.bmp	252	1	CPPC	306	1	sterben	559	0	0	0	0	0	0	0	0	0	0	0	0	0	0	0	0	0	0	0	0	0	0	0	0	0	0	0	0	0	0	0	0	0	0	0	0	0	0	0
072319	16:47:59	16:52:39	279949	5.0.10.0	5_exp_noRW	80	Rpleas_acq	CS_A	ZHHZ	YFFY	CPPC	DXXD	JQQJ	LWWL	sonnig	gütig	vertrauen	küssen	genießen	träumen	sterben	gierig	versagen	krank	gemein	töten	53pct	acq_USunple_CSunple1_noRW	acq1_noRW	1	67	0	0	300	300	537	46	0	1	1	blank2r.bmp	0	1	+	0	1	blank2r.bmp	252	1	CPPC	306	3	versagen	559	0	0	0	0	0	0	0	0	0	0	0	0	0	0	0	0	0	0	0	0	0	0	0	0	0	0	0	0	0	0	0	0	0	0	0	0	0	0	0
072319	16:47:59	16:52:42	282188	5.0.10.0	5_exp_noRW	80	Rpleas_acq	CS_A	ZHHZ	YFFY	CPPC	DXXD	JQQJ	LWWL	sonnig	gütig	vertrauen	küssen	genießen	träumen	sterben	gierig	versagen	krank	gemein	töten	47pct	acq_USpleas_CSpleas1_noRW	acq1_noRW	1	68	0	0	300	300	1051	50	0	1	1	blank2r.bmp	0	1	+	0	1	blank2r.bmp	252	1	ZHHZ	306	1	sonnig	559	0	0	0	0	0	0	0	0	0	0	0	0	0	0	0	0	0	0	0	0	0	0	0	0	0	0	0	0	0	0	0	0	0	0	0	0	0	0	0
072319	16:47:59	16:52:43	283894	5.0.10.0	5_exp_noRW	80	Rpleas_acq	CS_A	ZHHZ	YFFY	CPPC	DXXD	JQQJ	LWWL	sonnig	gütig	vertrauen	küssen	genießen	träumen	sterben	gierig	versagen	krank	gemein	töten	53pct	acq_USunple_CSunple1_noRW	acq1_noRW	1	69	0	0	300	300	538	46	0	1	1	blank2r.bmp	0	1	+	0	1	blank2r.bmp	252	1	CPPC	306	2	gierig	559	0	0	0	0	0	0	0	0	0	0	0	0	0	0	0	0	0	0	0	0	0	0	0	0	0	0	0	0	0	0	0	0	0	0	0	0	0	0	0
072319	16:47:59	16:52:45	285573	5.0.10.0	5_exp_noRW	80	Rpleas_acq	CS_A	ZHHZ	YFFY	CPPC	DXXD	JQQJ	LWWL	sonnig	gütig	vertrauen	küssen	genießen	träumen	sterben	gierig	versagen	krank	gemein	töten	53pct	acq_USunple_CSunple2_noRW	acq1_noRW	1	70	0	0	300	300	497	46	0	1	1	blank2r.bmp	0	1	+	0	1	blank2r.bmp	252	1	DXXD	306	1	krank	559	0	0	0	0	0	0	0	0	0	0	0	0	0	0	0	0	0	0	0	0	0	0	0	0	0	0	0	0	0	0	0	0	0	0	0	0	0	0	0
072319	16:47:59	16:52:47	287546	5.0.10.0	5_exp_noRW	80	Rpleas_acq	CS_A	ZHHZ	YFFY	CPPC	DXXD	JQQJ	LWWL	sonnig	gütig	vertrauen	küssen	genießen	träumen	sterben	gierig	versagen	krank	gemein	töten	53pct	acq_USpleas_CSunple1_noRW	acq1_noRW	1	71	0	0	300	300	805	50	0	1	1	blank2r.bmp	0	1	+	0	1	blank2r.bmp	252	1	CPPC	306	2	gütig	559	0	0	0	0	0	0	0	0	0	0	0	0	0	0	0	0	0	0	0	0	0	0	0	0	0	0	0	0	0	0	0	0	0	0	0	0	0	0	0
072319	16:47:59	16:52:49	289185	5.0.10.0	5_exp_noRW	80	Rpleas_acq	CS_A	ZHHZ	YFFY	CPPC	DXXD	JQQJ	LWWL	sonnig	gütig	vertrauen	küssen	genießen	träumen	sterben	gierig	versagen	krank	gemein	töten	53pct	acq_USunple_CSpleas2_noRW	acq1_noRW	1	72	0	0	300	300	461	46	0	1	1	blank2r.bmp	0	1	+	0	1	blank2r.bmp	252	1	YFFY	306	2	gemein	559	0	0	0	0	0	0	0	0	0	0	0	0	0	0	0	0	0	0	0	0	0	0	0	0	0	0	0	0	0	0	0	0	0	0	0	0	0	0	0
072319	16:47:59	16:52:50	290891	5.0.10.0	5_exp_noRW	80	Rpleas_acq	CS_A	ZHHZ	YFFY	CPPC	DXXD	JQQJ	LWWL	sonnig	gütig	vertrauen	küssen	genießen	träumen	sterben	gierig	versagen	krank	gemein	töten	53pct	acq_USpleas_CSpleas2_noRW	acq1_noRW	1	73	0	0	300	300	529	50	0	1	1	blank2r.bmp	0	1	+	0	1	blank2r.bmp	252	1	YFFY	306	3	träumen	559	0	0	0	0	0	0	0	0	0	0	0	0	0	0	0	0	0	0	0	0	0	0	0	0	0	0	0	0	0	0	0	0	0	0	0	0	0	0	0
072319	16:47:59	16:52:52	292664	5.0.10.0	5_exp_noRW	80	Rpleas_acq	CS_A	ZHHZ	YFFY	CPPC	DXXD	JQQJ	LWWL	sonnig	gütig	vertrauen	küssen	genießen	träumen	sterben	gierig	versagen	krank	gemein	töten	53pct	acq_USpleas_CSpleas2_noRW	acq1_noRW	1	74	0	0	300	300	594	50	0	1	1	blank2r.bmp	0	1	+	0	1	blank2r.bmp	252	1	YFFY	306	1	küssen	559	0	0	0	0	0	0	0	0	0	0	0	0	0	0	0	0	0	0	0	0	0	0	0	0	0	0	0	0	0	0	0	0	0	0	0	0	0	0	0
072319	16:47:59	16:52:54	294463	5.0.10.0	5_exp_noRW	80	Rpleas_acq	CS_A	ZHHZ	YFFY	CPPC	DXXD	JQQJ	LWWL	sonnig	gütig	vertrauen	küssen	genießen	träumen	sterben	gierig	versagen	krank	gemein	töten	53pct	acq_USpleas_CSpleas1_noRW	acq1_noRW	1	75	0	0	300	300	624	50	0	1	1	blank2r.bmp	0	1	+	0	1	blank2r.bmp	252	1	ZHHZ	306	3	vertrauen	559	0	0	0	0	0	0	0	0	0	0	0	0	0	0	0	0	0	0	0	0	0	0	0	0	0	0	0	0	0	0	0	0	0	0	0	0	0	0	0
072319	16:47:59	16:52:56	296169	5.0.10.0	5_exp_noRW	80	Rpleas_acq	CS_A	ZHHZ	YFFY	CPPC	DXXD	JQQJ	LWWL	sonnig	gütig	vertrauen	küssen	genießen	träumen	sterben	gierig	versagen	krank	gemein	töten	53pct	acq_USpleas_CSunple2_noRW	acq1_noRW	1	76	0	0	300	300	528	50	0	1	1	blank2r.bmp	0	1	+	0	1	blank2r.bmp	252	1	DXXD	306	3	träumen	559	0	0	0	0	0	0	0	0	0	0	0	0	0	0	0	0	0	0	0	0	0	0	0	0	0	0	0	0	0	0	0	0	0	0	0	0	0	0	0
072319	16:47:59	16:52:58	298141	5.0.10.0	5_exp_noRW	80	Rpleas_acq	CS_A	ZHHZ	YFFY	CPPC	DXXD	JQQJ	LWWL	sonnig	gütig	vertrauen	küssen	genießen	träumen	sterben	gierig	versagen	krank	gemein	töten	53pct	acq_USpleas_CSpleas1_noRW	acq1_noRW	1	77	0	0	300	300	797	50	0	1	1	blank2r.bmp	0	1	+	0	1	blank2r.bmp	252	1	ZHHZ	306	2	gütig	559	0	0	0	0	0	0	0	0	0	0	0	0	0	0	0	0	0	0	0	0	0	0	0	0	0	0	0	0	0	0	0	0	0	0	0	0	0	0	0
072319	16:47:59	16:53:00	300447	5.0.10.0	5_exp_noRW	80	Rpleas_acq	CS_A	ZHHZ	YFFY	CPPC	DXXD	JQQJ	LWWL	sonnig	gütig	vertrauen	küssen	genießen	träumen	sterben	gierig	versagen	krank	gemein	töten	47pct	acq_USpleas_CSpleas2_noRW	acq1_noRW	1	78	0	0	300	300	1114	50	0	1	1	blank2r.bmp	0	1	+	0	1	blank2r.bmp	252	1	YFFY	306	1	küssen	559	0	0	0	0	0	0	0	0	0	0	0	0	0	0	0	0	0	0	0	0	0	0	0	0	0	0	0	0	0	0	0	0	0	0	0	0	0	0	0
072319	16:47:59	16:53:02	302100	5.0.10.0	5_exp_noRW	80	Rpleas_acq	CS_A	ZHHZ	YFFY	CPPC	DXXD	JQQJ	LWWL	sonnig	gütig	vertrauen	küssen	genießen	träumen	sterben	gierig	versagen	krank	gemein	töten	53pct	acq_USpleas_CSpleas1_noRW	acq1_noRW	1	79	0	0	300	300	467	50	0	1	1	blank2r.bmp	0	1	+	0	1	blank2r.bmp	252	1	ZHHZ	306	1	sonnig	559	0	0	0	0	0	0	0	0	0	0	0	0	0	0	0	0	0	0	0	0	0	0	0	0	0	0	0	0	0	0	0	0	0	0	0	0	0	0	0
072319	16:47:59	16:53:04	304539	5.0.10.0	5_exp_noRW	80	Rpleas_acq	CS_A	ZHHZ	YFFY	CPPC	DXXD	JQQJ	LWWL	sonnig	gütig	vertrauen	küssen	genießen	träumen	sterben	gierig	versagen	krank	gemein	töten	53pct	acq_USunple_CSunple1_noRW	acq1_noRW	1	80	0	0	300	300	1262	46	0	1	1	blank2r.bmp	0	1	+	0	1	blank2r.bmp	252	1	CPPC	306	1	sterben	559	0	0	0	0	0	0	0	0	0	0	0	0	0	0	0	0	0	0	0	0	0	0	0	0	0	0	0	0	0	0	0	0	0	0	0	0	0	0	0
072319	16:47:59	16:53:17	317866	5.0.10.0	5_exp_noRW	80	Rpleas_acq	CS_A	ZHHZ	YFFY	CPPC	DXXD	JQQJ	LWWL	sonnig	gütig	vertrauen	küssen	genießen	träumen	sterben	gierig	versagen	krank	gemein	töten	53pct	acq_USpleas_CSpleas1_noRW	acq23456_noRW	2	1	0	0	300	300	1220	50	0	1	1	blank2r.bmp	0	1	+	0	1	blank2r.bmp	252	1	ZHHZ	306	2	gütig	559	0	0	0	0	0	0	0	0	0	0	0	0	0	0	0	0	0	0	0	0	0	0	0	0	0	0	0	0	0	0	0	0	0	0	0	0	0	0	0
072319	16:47:59	16:53:19	319559	5.0.10.0	5_exp_noRW	80	Rpleas_acq	CS_A	ZHHZ	YFFY	CPPC	DXXD	JQQJ	LWWL	sonnig	gütig	vertrauen	küssen	genießen	träumen	sterben	gierig	versagen	krank	gemein	töten	47pct	acq_USunple_CSunple2_noRW	acq23456_noRW	2	2	0	0	300	300	507	46	0	1	1	blank2r.bmp	0	1	+	0	1	blank2r.bmp	252	1	DXXD	306	3	töten	559	0	0	0	0	0	0	0	0	0	0	0	0	0	0	0	0	0	0	0	0	0	0	0	0	0	0	0	0	0	0	0	0	0	0	0	0	0	0	0
072319	16:47:59	16:53:21	321931	5.0.10.0	5_exp_noRW	80	Rpleas_acq	CS_A	ZHHZ	YFFY	CPPC	DXXD	JQQJ	LWWL	sonnig	gütig	vertrauen	küssen	genießen	träumen	sterben	gierig	versagen	krank	gemein	töten	47pct	acq_USunple_CSunple1_noRW	acq23456_noRW	2	3	0	0	300	300	1199	46	0	1	1	blank2r.bmp	0	1	+	0	1	blank2r.bmp	252	1	CPPC	306	2	gierig	559	0	0	0	0	0	0	0	0	0	0	0	0	0	0	0	0	0	0	0	0	0	0	0	0	0	0	0	0	0	0	0	0	0	0	0	0	0	0	0
072319	16:47:59	16:53:23	323744	5.0.10.0	5_exp_noRW	80	Rpleas_acq	CS_A	ZHHZ	YFFY	CPPC	DXXD	JQQJ	LWWL	sonnig	gütig	vertrauen	küssen	genießen	träumen	sterben	gierig	versagen	krank	gemein	töten	47pct	acq_USpleas_CSpleas2_noRW	acq23456_noRW	2	4	0	0	300	300	644	50	0	1	1	blank2r.bmp	0	1	+	0	1	blank2r.bmp	252	1	YFFY	306	2	genießen	559	0	0	0	0	0	0	0	0	0	0	0	0	0	0	0	0	0	0	0	0	0	0	0	0	0	0	0	0	0	0	0	0	0	0	0	0	0	0	0
072319	16:47:59	16:53:25	325996	5.0.10.0	5_exp_noRW	80	Rpleas_acq	CS_A	ZHHZ	YFFY	CPPC	DXXD	JQQJ	LWWL	sonnig	gütig	vertrauen	küssen	genießen	träumen	sterben	gierig	versagen	krank	gemein	töten	53pct	acq_USpleas_CSunple1_noRW	acq23456_noRW	2	5	0	0	300	300	1089	50	0	1	1	blank2r.bmp	0	1	+	0	1	blank2r.bmp	252	1	CPPC	306	3	vertrauen	559	0	0	0	0	0	0	0	0	0	0	0	0	0	0	0	0	0	0	0	0	0	0	0	0	0	0	0	0	0	0	0	0	0	0	0	0	0	0	0
072319	16:47:59	16:53:27	327889	5.0.10.0	5_exp_noRW	80	Rpleas_acq	CS_A	ZHHZ	YFFY	CPPC	DXXD	JQQJ	LWWL	sonnig	gütig	vertrauen	küssen	genießen	träumen	sterben	gierig	versagen	krank	gemein	töten	53pct	acq_USpleas_CSpleas1_noRW	acq23456_noRW	2	6	0	0	300	300	709	50	0	1	1	blank2r.bmp	0	1	+	0	1	blank2r.bmp	252	1	ZHHZ	306	3	vertrauen	559	0	0	0	0	0	0	0	0	0	0	0	0	0	0	0	0	0	0	0	0	0	0	0	0	0	0	0	0	0	0	0	0	0	0	0	0	0	0	0
072319	16:47:59	16:53:29	329542	5.0.10.0	5_exp_noRW	80	Rpleas_acq	CS_A	ZHHZ	YFFY	CPPC	DXXD	JQQJ	LWWL	sonnig	gütig	vertrauen	küssen	genießen	träumen	sterben	gierig	versagen	krank	gemein	töten	47pct	acq_USpleas_CSpleas2_noRW	acq23456_noRW	2	7	0	0	300	300	489	50	0	1	1	blank2r.bmp	0	1	+	0	1	blank2r.bmp	252	1	YFFY	306	3	träumen	559	0	0	0	0	0	0	0	0	0	0	0	0	0	0	0	0	0	0	0	0	0	0	0	0	0	0	0	0	0	0	0	0	0	0	0	0	0	0	0
072319	16:47:59	16:53:31	331221	5.0.10.0	5_exp_noRW	80	Rpleas_acq	CS_A	ZHHZ	YFFY	CPPC	DXXD	JQQJ	LWWL	sonnig	gütig	vertrauen	küssen	genießen	träumen	sterben	gierig	versagen	krank	gemein	töten	47pct	acq_USunple_CSpleas2_noRW	acq23456_noRW	2	8	0	0	300	300	502	46	0	1	1	blank2r.bmp	0	1	+	0	1	blank2r.bmp	252	1	YFFY	306	1	krank	559	0	0	0	0	0	0	0	0	0	0	0	0	0	0	0	0	0	0	0	0	0	0	0	0	0	0	0	0	0	0	0	0	0	0	0	0	0	0	0
072319	16:47:59	16:53:32	332860	5.0.10.0	5_exp_noRW	80	Rpleas_acq	CS_A	ZHHZ	YFFY	CPPC	DXXD	JQQJ	LWWL	sonnig	gütig	vertrauen	küssen	genießen	träumen	sterben	gierig	versagen	krank	gemein	töten	47pct	acq_USpleas_CSpleas2_noRW	acq23456_noRW	2	9	0	0	300	300	459	50	0	1	1	blank2r.bmp	0	1	+	0	1	blank2r.bmp	252	1	YFFY	306	1	küssen	559	0	0	0	0	0	0	0	0	0	0	0	0	0	0	0	0	0	0	0	0	0	0	0	0	0	0	0	0	0	0	0	0	0	0	0	0	0	0	0
072319	16:47:59	16:53:34	334939	5.0.10.0	5_exp_noRW	80	Rpleas_acq	CS_A	ZHHZ	YFFY	CPPC	DXXD	JQQJ	LWWL	sonnig	gütig	vertrauen	küssen	genießen	träumen	sterben	gierig	versagen	krank	gemein	töten	47pct	acq_USunple_CSunple2_noRW	acq23456_noRW	2	10	0	0	300	300	903	46	0	1	1	blank2r.bmp	0	1	+	0	1	blank2r.bmp	252	1	DXXD	306	2	gemein	559	0	0	0	0	0	0	0	0	0	0	0	0	0	0	0	0	0	0	0	0	0	0	0	0	0	0	0	0	0	0	0	0	0	0	0	0	0	0	0
072319	16:47:59	16:53:36	336925	5.0.10.0	5_exp_noRW	80	Rpleas_acq	CS_A	ZHHZ	YFFY	CPPC	DXXD	JQQJ	LWWL	sonnig	gütig	vertrauen	küssen	genießen	träumen	sterben	gierig	versagen	krank	gemein	töten	53pct	acq_USunple_CSunple1_noRW	acq23456_noRW	2	11	0	0	300	300	809	46	0	1	1	blank2r.bmp	0	1	+	0	1	blank2r.bmp	252	1	CPPC	306	3	versagen	559	0	0	0	0	0	0	0	0	0	0	0	0	0	0	0	0	0	0	0	0	0	0	0	0	0	0	0	0	0	0	0	0	0	0	0	0	0	0	0
072319	16:47:59	16:53:38	338591	5.0.10.0	5_exp_noRW	80	Rpleas_acq	CS_A	ZHHZ	YFFY	CPPC	DXXD	JQQJ	LWWL	sonnig	gütig	vertrauen	küssen	genießen	träumen	sterben	gierig	versagen	krank	gemein	töten	53pct	acq_USunple_CSunple1_noRW	acq23456_noRW	2	12	0	0	300	300	483	46	0	1	1	blank2r.bmp	0	1	+	0	1	blank2r.bmp	252	1	CPPC	306	2	gierig	559	0	0	0	0	0	0	0	0	0	0	0	0	0	0	0	0	0	0	0	0	0	0	0	0	0	0	0	0	0	0	0	0	0	0	0	0	0	0	0
072319	16:47:59	16:53:40	340257	5.0.10.0	5_exp_noRW	80	Rpleas_acq	CS_A	ZHHZ	YFFY	CPPC	DXXD	JQQJ	LWWL	sonnig	gütig	vertrauen	küssen	genießen	träumen	sterben	gierig	versagen	krank	gemein	töten	53pct	acq_USunple_CSpleas1_noRW	acq23456_noRW	2	13	0	0	300	300	498	46	0	1	1	blank2r.bmp	0	1	+	0	1	blank2r.bmp	252	1	ZHHZ	306	1	sterben	559	0	0	0	0	0	0	0	0	0	0	0	0	0	0	0	0	0	0	0	0	0	0	0	0	0	0	0	0	0	0	0	0	0	0	0	0	0	0	0
072319	16:47:59	16:53:41	341950	5.0.10.0	5_exp_noRW	80	Rpleas_acq	CS_A	ZHHZ	YFFY	CPPC	DXXD	JQQJ	LWWL	sonnig	gütig	vertrauen	küssen	genießen	träumen	sterben	gierig	versagen	krank	gemein	töten	53pct	acq_USunple_CSunple2_noRW	acq23456_noRW	2	14	0	0	300	300	506	46	0	1	1	blank2r.bmp	0	1	+	0	1	blank2r.bmp	252	1	DXXD	306	1	krank	559	0	0	0	0	0	0	0	0	0	0	0	0	0	0	0	0	0	0	0	0	0	0	0	0	0	0	0	0	0	0	0	0	0	0	0	0	0	0	0
072319	16:47:59	16:53:43	343576	5.0.10.0	5_exp_noRW	80	Rpleas_acq	CS_A	ZHHZ	YFFY	CPPC	DXXD	JQQJ	LWWL	sonnig	gütig	vertrauen	küssen	genießen	träumen	sterben	gierig	versagen	krank	gemein	töten	53pct	acq_USpleas_CSpleas1_noRW	acq23456_noRW	2	15	0	0	300	300	457	50	0	1	1	blank2r.bmp	0	1	+	0	1	blank2r.bmp	252	1	ZHHZ	306	3	vertrauen	559	0	0	0	0	0	0	0	0	0	0	0	0	0	0	0	0	0	0	0	0	0	0	0	0	0	0	0	0	0	0	0	0	0	0	0	0	0	0	0
072319	16:47:59	16:53:45	345442	5.0.10.0	5_exp_noRW	80	Rpleas_acq	CS_A	ZHHZ	YFFY	CPPC	DXXD	JQQJ	LWWL	sonnig	gütig	vertrauen	küssen	genießen	träumen	sterben	gierig	versagen	krank	gemein	töten	47pct	acq_USpleas_CSunple2_noRW	acq23456_noRW	2	16	0	0	300	300	465	46	0	0	1	blank2r.bmp	0	1	+	0	1	blank2r.bmp	252	1	DXXD	306	2	genießen	559	1	FEHLER	1066	0	0	0	0	0	0	0	0	0	0	0	0	0	0	0	0	0	0	0	0	0	0	0	0	0	0	0	0	0	0	0	0	0	0	0	0
072319	16:47:59	16:53:46	346921	5.0.10.0	5_exp_noRW	80	Rpleas_acq	CS_A	ZHHZ	YFFY	CPPC	DXXD	JQQJ	LWWL	sonnig	gütig	vertrauen	küssen	genießen	träumen	sterben	gierig	versagen	krank	gemein	töten	53pct	acq_USunple_CSunple1_noRW	acq23456_noRW	2	17	0	0	300	300	521	46	0	1	1	blank2r.bmp	0	1	+	0	1	blank2r.bmp	252	1	CPPC	306	1	sterben	559	0	0	0	0	0	0	0	0	0	0	0	0	0	0	0	0	0	0	0	0	0	0	0	0	0	0	0	0	0	0	0	0	0	0	0	0	0	0	0
072319	16:47:59	16:53:48	348734	5.0.10.0	5_exp_noRW	80	Rpleas_acq	CS_A	ZHHZ	YFFY	CPPC	DXXD	JQQJ	LWWL	sonnig	gütig	vertrauen	küssen	genießen	träumen	sterben	gierig	versagen	krank	gemein	töten	47pct	acq_USunple_CSunple2_noRW	acq23456_noRW	2	18	0	0	300	300	640	46	0	1	1	blank2r.bmp	0	1	+	0	1	blank2r.bmp	252	1	DXXD	306	3	töten	559	0	0	0	0	0	0	0	0	0	0	0	0	0	0	0	0	0	0	0	0	0	0	0	0	0	0	0	0	0	0	0	0	0	0	0	0	0	0	0
072319	16:47:59	16:53:50	350759	5.0.10.0	5_exp_noRW	80	Rpleas_acq	CS_A	ZHHZ	YFFY	CPPC	DXXD	JQQJ	LWWL	sonnig	gütig	vertrauen	küssen	genießen	träumen	sterben	gierig	versagen	krank	gemein	töten	53pct	acq_USpleas_CSpleas2_noRW	acq23456_noRW	2	19	0	0	300	300	862	50	0	1	1	blank2r.bmp	0	1	+	0	1	blank2r.bmp	252	1	YFFY	306	3	träumen	559	0	0	0	0	0	0	0	0	0	0	0	0	0	0	0	0	0	0	0	0	0	0	0	0	0	0	0	0	0	0	0	0	0	0	0	0	0	0	0
072319	16:47:59	16:53:52	352465	5.0.10.0	5_exp_noRW	80	Rpleas_acq	CS_A	ZHHZ	YFFY	CPPC	DXXD	JQQJ	LWWL	sonnig	gütig	vertrauen	küssen	genießen	träumen	sterben	gierig	versagen	krank	gemein	töten	53pct	acq_USpleas_CSpleas1_noRW	acq23456_noRW	2	20	0	0	300	300	533	50	0	1	1	blank2r.bmp	0	1	+	0	1	blank2r.bmp	252	1	ZHHZ	306	1	sonnig	559	0	0	0	0	0	0	0	0	0	0	0	0	0	0	0	0	0	0	0	0	0	0	0	0	0	0	0	0	0	0	0	0	0	0	0	0	0	0	0
072319	16:47:59	16:53:54	354158	5.0.10.0	5_exp_noRW	80	Rpleas_acq	CS_A	ZHHZ	YFFY	CPPC	DXXD	JQQJ	LWWL	sonnig	gütig	vertrauen	küssen	genießen	träumen	sterben	gierig	versagen	krank	gemein	töten	53pct	acq_USpleas_CSpleas1_noRW	acq23456_noRW	2	21	0	0	300	300	530	50	0	1	1	blank2r.bmp	0	1	+	0	1	blank2r.bmp	252	1	ZHHZ	306	2	gütig	559	0	0	0	0	0	0	0	0	0	0	0	0	0	0	0	0	0	0	0	0	0	0	0	0	0	0	0	0	0	0	0	0	0	0	0	0	0	0	0
072319	16:47:59	16:53:55	355757	5.0.10.0	5_exp_noRW	80	Rpleas_acq	CS_A	ZHHZ	YFFY	CPPC	DXXD	JQQJ	LWWL	sonnig	gütig	vertrauen	küssen	genießen	träumen	sterben	gierig	versagen	krank	gemein	töten	47pct	acq_USpleas_CSpleas1_noRW	acq23456_noRW	2	22	0	0	300	300	418	50	0	1	1	blank2r.bmp	0	1	+	0	1	blank2r.bmp	252	1	ZHHZ	306	1	sonnig	559	0	0	0	0	0	0	0	0	0	0	0	0	0	0	0	0	0	0	0	0	0	0	0	0	0	0	0	0	0	0	0	0	0	0	0	0	0	0	0
072319	16:47:59	16:53:57	357663	5.0.10.0	5_exp_noRW	80	Rpleas_acq	CS_A	ZHHZ	YFFY	CPPC	DXXD	JQQJ	LWWL	sonnig	gütig	vertrauen	küssen	genießen	träumen	sterben	gierig	versagen	krank	gemein	töten	47pct	acq_USunple_CSunple2_noRW	acq23456_noRW	2	23	0	0	300	300	742	46	0	1	1	blank2r.bmp	0	1	+	0	1	blank2r.bmp	252	1	DXXD	306	2	gemein	559	0	0	0	0	0	0	0	0	0	0	0	0	0	0	0	0	0	0	0	0	0	0	0	0	0	0	0	0	0	0	0	0	0	0	0	0	0	0	0
072319	16:47:59	16:53:59	359342	5.0.10.0	5_exp_noRW	80	Rpleas_acq	CS_A	ZHHZ	YFFY	CPPC	DXXD	JQQJ	LWWL	sonnig	gütig	vertrauen	küssen	genießen	träumen	sterben	gierig	versagen	krank	gemein	töten	47pct	acq_USpleas_CSpleas2_noRW	acq23456_noRW	2	24	0	0	300	300	501	50	0	1	1	blank2r.bmp	0	1	+	0	1	blank2r.bmp	252	1	YFFY	306	2	genießen	559	0	0	0	0	0	0	0	0	0	0	0	0	0	0	0	0	0	0	0	0	0	0	0	0	0	0	0	0	0	0	0	0	0	0	0	0	0	0	0
072319	16:47:59	16:54:01	361195	5.0.10.0	5_exp_noRW	80	Rpleas_acq	CS_A	ZHHZ	YFFY	CPPC	DXXD	JQQJ	LWWL	sonnig	gütig	vertrauen	küssen	genießen	träumen	sterben	gierig	versagen	krank	gemein	töten	53pct	acq_USunple_CSunple1_noRW	acq23456_noRW	2	25	0	0	300	300	673	46	0	1	1	blank2r.bmp	0	1	+	0	1	blank2r.bmp	252	1	CPPC	306	3	versagen	559	0	0	0	0	0	0	0	0	0	0	0	0	0	0	0	0	0	0	0	0	0	0	0	0	0	0	0	0	0	0	0	0	0	0	0	0	0	0	0
072319	16:47:59	16:54:02	362954	5.0.10.0	5_exp_noRW	80	Rpleas_acq	CS_A	ZHHZ	YFFY	CPPC	DXXD	JQQJ	LWWL	sonnig	gütig	vertrauen	küssen	genießen	träumen	sterben	gierig	versagen	krank	gemein	töten	47pct	acq_USunple_CSunple1_noRW	acq23456_noRW	2	26	0	0	300	300	597	46	0	1	1	blank2r.bmp	0	1	+	0	1	blank2r.bmp	252	1	CPPC	306	1	sterben	559	0	0	0	0	0	0	0	0	0	0	0	0	0	0	0	0	0	0	0	0	0	0	0	0	0	0	0	0	0	0	0	0	0	0	0	0	0	0	0
072319	16:47:59	16:54:04	364940	5.0.10.0	5_exp_noRW	80	Rpleas_acq	CS_A	ZHHZ	YFFY	CPPC	DXXD	JQQJ	LWWL	sonnig	gütig	vertrauen	küssen	genießen	träumen	sterben	gierig	versagen	krank	gemein	töten	53pct	acq_USunple_CSunple2_noRW	acq23456_noRW	2	27	0	0	300	300	809	46	0	1	1	blank2r.bmp	0	1	+	0	1	blank2r.bmp	252	1	DXXD	306	3	töten	559	0	0	0	0	0	0	0	0	0	0	0	0	0	0	0	0	0	0	0	0	0	0	0	0	0	0	0	0	0	0	0	0	0	0	0	0	0	0	0
072319	16:47:59	16:54:06	366659	5.0.10.0	5_exp_noRW	80	Rpleas_acq	CS_A	ZHHZ	YFFY	CPPC	DXXD	JQQJ	LWWL	sonnig	gütig	vertrauen	küssen	genießen	träumen	sterben	gierig	versagen	krank	gemein	töten	47pct	acq_USunple_CSpleas2_noRW	acq23456_noRW	2	28	0	0	300	300	547	46	0	1	1	blank2r.bmp	0	1	+	0	1	blank2r.bmp	252	1	YFFY	306	3	töten	559	0	0	0	0	0	0	0	0	0	0	0	0	0	0	0	0	0	0	0	0	0	0	0	0	0	0	0	0	0	0	0	0	0	0	0	0	0	0	0
072319	16:47:59	16:54:08	368499	5.0.10.0	5_exp_noRW	80	Rpleas_acq	CS_A	ZHHZ	YFFY	CPPC	DXXD	JQQJ	LWWL	sonnig	gütig	vertrauen	küssen	genießen	träumen	sterben	gierig	versagen	krank	gemein	töten	47pct	acq_USpleas_CSunple2_noRW	acq23456_noRW	2	29	0	0	300	300	672	50	0	1	1	blank2r.bmp	0	1	+	0	1	blank2r.bmp	252	1	DXXD	306	1	küssen	559	0	0	0	0	0	0	0	0	0	0	0	0	0	0	0	0	0	0	0	0	0	0	0	0	0	0	0	0	0	0	0	0	0	0	0	0	0	0	0
072319	16:47:59	16:54:10	370484	5.0.10.0	5_exp_noRW	80	Rpleas_acq	CS_A	ZHHZ	YFFY	CPPC	DXXD	JQQJ	LWWL	sonnig	gütig	vertrauen	küssen	genießen	träumen	sterben	gierig	versagen	krank	gemein	töten	47pct	acq_USpleas_CSpleas2_noRW	acq23456_noRW	2	30	0	0	300	300	818	50	0	1	1	blank2r.bmp	0	1	+	0	1	blank2r.bmp	252	1	YFFY	306	3	träumen	559	0	0	0	0	0	0	0	0	0	0	0	0	0	0	0	0	0	0	0	0	0	0	0	0	0	0	0	0	0	0	0	0	0	0	0	0	0	0	0
072319	16:47:59	16:54:12	372257	5.0.10.0	5_exp_noRW	80	Rpleas_acq	CS_A	ZHHZ	YFFY	CPPC	DXXD	JQQJ	LWWL	sonnig	gütig	vertrauen	küssen	genießen	träumen	sterben	gierig	versagen	krank	gemein	töten	53pct	acq_USunple_CSpleas1_noRW	acq23456_noRW	2	31	0	0	300	300	597	46	0	1	1	blank2r.bmp	0	1	+	0	1	blank2r.bmp	252	1	ZHHZ	306	2	gierig	559	0	0	0	0	0	0	0	0	0	0	0	0	0	0	0	0	0	0	0	0	0	0	0	0	0	0	0	0	0	0	0	0	0	0	0	0	0	0	0
072319	16:47:59	16:54:13	373923	5.0.10.0	5_exp_noRW	80	Rpleas_acq	CS_A	ZHHZ	YFFY	CPPC	DXXD	JQQJ	LWWL	sonnig	gütig	vertrauen	küssen	genießen	träumen	sterben	gierig	versagen	krank	gemein	töten	53pct	acq_USpleas_CSpleas2_noRW	acq23456_noRW	2	32	0	0	300	300	480	50	0	1	1	blank2r.bmp	0	1	+	0	1	blank2r.bmp	252	1	YFFY	306	1	küssen	559	0	0	0	0	0	0	0	0	0	0	0	0	0	0	0	0	0	0	0	0	0	0	0	0	0	0	0	0	0	0	0	0	0	0	0	0	0	0	0
072319	16:47:59	16:54:15	375736	5.0.10.0	5_exp_noRW	80	Rpleas_acq	CS_A	ZHHZ	YFFY	CPPC	DXXD	JQQJ	LWWL	sonnig	gütig	vertrauen	küssen	genießen	träumen	sterben	gierig	versagen	krank	gemein	töten	47pct	acq_USpleas_CSpleas1_noRW	acq23456_noRW	2	33	0	0	300	300	633	50	0	1	1	blank2r.bmp	0	1	+	0	1	blank2r.bmp	252	1	ZHHZ	306	3	vertrauen	559	0	0	0	0	0	0	0	0	0	0	0	0	0	0	0	0	0	0	0	0	0	0	0	0	0	0	0	0	0	0	0	0	0	0	0	0	0	0	0
072319	16:47:59	16:54:17	377455	5.0.10.0	5_exp_noRW	80	Rpleas_acq	CS_A	ZHHZ	YFFY	CPPC	DXXD	JQQJ	LWWL	sonnig	gütig	vertrauen	küssen	genießen	träumen	sterben	gierig	versagen	krank	gemein	töten	47pct	acq_USunple_CSunple2_noRW	acq23456_noRW	2	34	0	0	300	300	550	46	0	1	1	blank2r.bmp	0	1	+	0	1	blank2r.bmp	252	1	DXXD	306	1	krank	559	0	0	0	0	0	0	0	0	0	0	0	0	0	0	0	0	0	0	0	0	0	0	0	0	0	0	0	0	0	0	0	0	0	0	0	0	0	0	0
072319	16:47:59	16:54:19	379187	5.0.10.0	5_exp_noRW	80	Rpleas_acq	CS_A	ZHHZ	YFFY	CPPC	DXXD	JQQJ	LWWL	sonnig	gütig	vertrauen	küssen	genießen	träumen	sterben	gierig	versagen	krank	gemein	töten	53pct	acq_USunple_CSunple1_noRW	acq23456_noRW	2	35	0	0	300	300	558	46	0	1	1	blank2r.bmp	0	1	+	0	1	blank2r.bmp	252	1	CPPC	306	2	gierig	559	0	0	0	0	0	0	0	0	0	0	0	0	0	0	0	0	0	0	0	0	0	0	0	0	0	0	0	0	0	0	0	0	0	0	0	0	0	0	0
072319	16:47:59	16:54:20	380827	5.0.10.0	5_exp_noRW	80	Rpleas_acq	CS_A	ZHHZ	YFFY	CPPC	DXXD	JQQJ	LWWL	sonnig	gütig	vertrauen	küssen	genießen	träumen	sterben	gierig	versagen	krank	gemein	töten	47pct	acq_USunple_CSunple1_noRW	acq23456_noRW	2	36	0	0	300	300	472	46	0	1	1	blank2r.bmp	0	1	+	0	1	blank2r.bmp	252	1	CPPC	306	3	versagen	559	0	0	0	0	0	0	0	0	0	0	0	0	0	0	0	0	0	0	0	0	0	0	0	0	0	0	0	0	0	0	0	0	0	0	0	0	0	0	0
072319	16:47:59	16:54:22	382559	5.0.10.0	5_exp_noRW	80	Rpleas_acq	CS_A	ZHHZ	YFFY	CPPC	DXXD	JQQJ	LWWL	sonnig	gütig	vertrauen	küssen	genießen	träumen	sterben	gierig	versagen	krank	gemein	töten	47pct	acq_USpleas_CSpleas2_noRW	acq23456_noRW	2	37	0	0	300	300	553	50	0	1	1	blank2r.bmp	0	1	+	0	1	blank2r.bmp	252	1	YFFY	306	2	genießen	559	0	0	0	0	0	0	0	0	0	0	0	0	0	0	0	0	0	0	0	0	0	0	0	0	0	0	0	0	0	0	0	0	0	0	0	0	0	0	0
072319	16:47:59	16:54:24	384372	5.0.10.0	5_exp_noRW	80	Rpleas_acq	CS_A	ZHHZ	YFFY	CPPC	DXXD	JQQJ	LWWL	sonnig	gütig	vertrauen	küssen	genießen	träumen	sterben	gierig	versagen	krank	gemein	töten	53pct	acq_USpleas_CSpleas1_noRW	acq23456_noRW	2	38	0	0	300	300	628	50	0	1	1	blank2r.bmp	0	1	+	0	1	blank2r.bmp	252	1	ZHHZ	306	2	gütig	559	0	0	0	0	0	0	0	0	0	0	0	0	0	0	0	0	0	0	0	0	0	0	0	0	0	0	0	0	0	0	0	0	0	0	0	0	0	0	0
072319	16:47:59	16:54:26	386491	5.0.10.0	5_exp_noRW	80	Rpleas_acq	CS_A	ZHHZ	YFFY	CPPC	DXXD	JQQJ	LWWL	sonnig	gütig	vertrauen	küssen	genießen	träumen	sterben	gierig	versagen	krank	gemein	töten	53pct	acq_USpleas_CSunple1_noRW	acq23456_noRW	2	39	0	0	300	300	937	50	0	1	1	blank2r.bmp	0	1	+	0	1	blank2r.bmp	252	1	CPPC	306	1	sonnig	559	0	0	0	0	0	0	0	0	0	0	0	0	0	0	0	0	0	0	0	0	0	0	0	0	0	0	0	0	0	0	0	0	0	0	0	0	0	0	0
072319	16:47:59	16:54:28	388530	5.0.10.0	5_exp_noRW	80	Rpleas_acq	CS_A	ZHHZ	YFFY	CPPC	DXXD	JQQJ	LWWL	sonnig	gütig	vertrauen	küssen	genießen	träumen	sterben	gierig	versagen	krank	gemein	töten	47pct	acq_USunple_CSunple2_noRW	acq23456_noRW	2	40	0	0	300	300	858	46	0	1	1	blank2r.bmp	0	1	+	0	1	blank2r.bmp	252	1	DXXD	306	2	gemein	559	0	0	0	0	0	0	0	0	0	0	0	0	0	0	0	0	0	0	0	0	0	0	0	0	0	0	0	0	0	0	0	0	0	0	0	0	0	0	0
072319	16:47:59	16:54:30	390289	5.0.10.0	5_exp_noRW	80	Rpleas_acq	CS_A	ZHHZ	YFFY	CPPC	DXXD	JQQJ	LWWL	sonnig	gütig	vertrauen	küssen	genießen	träumen	sterben	gierig	versagen	krank	gemein	töten	53pct	acq_USunple_CSunple2_noRW	acq23456_noRW	2	41	0	0	300	300	587	46	0	1	1	blank2r.bmp	0	1	+	0	1	blank2r.bmp	252	1	DXXD	306	2	gemein	559	0	0	0	0	0	0	0	0	0	0	0	0	0	0	0	0	0	0	0	0	0	0	0	0	0	0	0	0	0	0	0	0	0	0	0	0	0	0	0
072319	16:47:59	16:54:32	392209	5.0.10.0	5_exp_noRW	80	Rpleas_acq	CS_A	ZHHZ	YFFY	CPPC	DXXD	JQQJ	LWWL	sonnig	gütig	vertrauen	küssen	genießen	träumen	sterben	gierig	versagen	krank	gemein	töten	53pct	acq_USpleas_CSunple2_noRW	acq23456_noRW	2	42	0	0	300	300	752	50	0	1	1	blank2r.bmp	0	1	+	0	1	blank2r.bmp	252	1	DXXD	306	2	genießen	559	0	0	0	0	0	0	0	0	0	0	0	0	0	0	0	0	0	0	0	0	0	0	0	0	0	0	0	0	0	0	0	0	0	0	0	0	0	0	0
072319	16:47:59	16:54:33	393928	5.0.10.0	5_exp_noRW	80	Rpleas_acq	CS_A	ZHHZ	YFFY	CPPC	DXXD	JQQJ	LWWL	sonnig	gütig	vertrauen	küssen	genießen	träumen	sterben	gierig	versagen	krank	gemein	töten	47pct	acq_USpleas_CSpleas2_noRW	acq23456_noRW	2	43	0	0	300	300	554	50	0	1	1	blank2r.bmp	0	1	+	0	1	blank2r.bmp	252	1	YFFY	306	1	küssen	559	0	0	0	0	0	0	0	0	0	0	0	0	0	0	0	0	0	0	0	0	0	0	0	0	0	0	0	0	0	0	0	0	0	0	0	0	0	0	0
072319	16:47:59	16:54:35	395661	5.0.10.0	5_exp_noRW	80	Rpleas_acq	CS_A	ZHHZ	YFFY	CPPC	DXXD	JQQJ	LWWL	sonnig	gütig	vertrauen	küssen	genießen	träumen	sterben	gierig	versagen	krank	gemein	töten	47pct	acq_USpleas_CSpleas1_noRW	acq23456_noRW	2	44	0	0	300	300	551	50	0	1	1	blank2r.bmp	0	1	+	0	1	blank2r.bmp	252	1	ZHHZ	306	2	gütig	559	0	0	0	0	0	0	0	0	0	0	0	0	0	0	0	0	0	0	0	0	0	0	0	0	0	0	0	0	0	0	0	0	0	0	0	0	0	0	0
072319	16:47:59	16:54:37	397393	5.0.10.0	5_exp_noRW	80	Rpleas_acq	CS_A	ZHHZ	YFFY	CPPC	DXXD	JQQJ	LWWL	sonnig	gütig	vertrauen	küssen	genießen	träumen	sterben	gierig	versagen	krank	gemein	töten	53pct	acq_USunple_CSunple2_noRW	acq23456_noRW	2	45	0	0	300	300	559	46	0	1	1	blank2r.bmp	0	1	+	0	1	blank2r.bmp	252	1	DXXD	306	1	krank	559	0	0	0	0	0	0	0	0	0	0	0	0	0	0	0	0	0	0	0	0	0	0	0	0	0	0	0	0	0	0	0	0	0	0	0	0	0	0	0
072319	16:47:59	16:54:39	399126	5.0.10.0	5_exp_noRW	80	Rpleas_acq	CS_A	ZHHZ	YFFY	CPPC	DXXD	JQQJ	LWWL	sonnig	gütig	vertrauen	küssen	genießen	träumen	sterben	gierig	versagen	krank	gemein	töten	53pct	acq_USpleas_CSpleas1_noRW	acq23456_noRW	2	46	0	0	300	300	568	50	0	1	1	blank2r.bmp	0	1	+	0	1	blank2r.bmp	252	1	ZHHZ	306	3	vertrauen	559	0	0	0	0	0	0	0	0	0	0	0	0	0	0	0	0	0	0	0	0	0	0	0	0	0	0	0	0	0	0	0	0	0	0	0	0	0	0	0
072319	16:47:59	16:54:40	400978	5.0.10.0	5_exp_noRW	80	Rpleas_acq	CS_A	ZHHZ	YFFY	CPPC	DXXD	JQQJ	LWWL	sonnig	gütig	vertrauen	küssen	genießen	träumen	sterben	gierig	versagen	krank	gemein	töten	47pct	acq_USunple_CSpleas2_noRW	acq23456_noRW	2	47	0	0	300	300	671	46	0	1	1	blank2r.bmp	0	1	+	0	1	blank2r.bmp	252	1	YFFY	306	1	krank	559	0	0	0	0	0	0	0	0	0	0	0	0	0	0	0	0	0	0	0	0	0	0	0	0	0	0	0	0	0	0	0	0	0	0	0	0	0	0	0
072319	16:47:59	16:54:42	402724	5.0.10.0	5_exp_noRW	80	Rpleas_acq	CS_A	ZHHZ	YFFY	CPPC	DXXD	JQQJ	LWWL	sonnig	gütig	vertrauen	küssen	genießen	träumen	sterben	gierig	versagen	krank	gemein	töten	53pct	acq_USpleas_CSpleas2_noRW	acq23456_noRW	2	48	0	0	300	300	582	50	0	1	1	blank2r.bmp	0	1	+	0	1	blank2r.bmp	252	1	YFFY	306	3	träumen	559	0	0	0	0	0	0	0	0	0	0	0	0	0	0	0	0	0	0	0	0	0	0	0	0	0	0	0	0	0	0	0	0	0	0	0	0	0	0	0
072319	16:47:59	16:54:44	404390	5.0.10.0	5_exp_noRW	80	Rpleas_acq	CS_A	ZHHZ	YFFY	CPPC	DXXD	JQQJ	LWWL	sonnig	gütig	vertrauen	küssen	genießen	träumen	sterben	gierig	versagen	krank	gemein	töten	53pct	acq_USunple_CSunple1_noRW	acq23456_noRW	2	49	0	0	300	300	488	46	0	1	1	blank2r.bmp	0	1	+	0	1	blank2r.bmp	252	1	CPPC	306	1	sterben	559	0	0	0	0	0	0	0	0	0	0	0	0	0	0	0	0	0	0	0	0	0	0	0	0	0	0	0	0	0	0	0	0	0	0	0	0	0	0	0
072319	16:47:59	16:54:46	406110	5.0.10.0	5_exp_noRW	80	Rpleas_acq	CS_A	ZHHZ	YFFY	CPPC	DXXD	JQQJ	LWWL	sonnig	gütig	vertrauen	küssen	genießen	träumen	sterben	gierig	versagen	krank	gemein	töten	53pct	acq_USpleas_CSpleas1_noRW	acq23456_noRW	2	50	0	0	300	300	537	50	0	1	1	blank2r.bmp	0	1	+	0	1	blank2r.bmp	252	1	ZHHZ	306	1	sonnig	559	0	0	0	0	0	0	0	0	0	0	0	0	0	0	0	0	0	0	0	0	0	0	0	0	0	0	0	0	0	0	0	0	0	0	0	0	0	0	0
072319	16:47:59	16:54:47	407802	5.0.10.0	5_exp_noRW	80	Rpleas_acq	CS_A	ZHHZ	YFFY	CPPC	DXXD	JQQJ	LWWL	sonnig	gütig	vertrauen	küssen	genießen	träumen	sterben	gierig	versagen	krank	gemein	töten	47pct	acq_USunple_CSunple1_noRW	acq23456_noRW	2	51	0	0	300	300	523	46	0	1	1	blank2r.bmp	0	1	+	0	1	blank2r.bmp	252	1	CPPC	306	2	gierig	559	0	0	0	0	0	0	0	0	0	0	0	0	0	0	0	0	0	0	0	0	0	0	0	0	0	0	0	0	0	0	0	0	0	0	0	0	0	0	0
072319	16:47:59	16:54:49	409828	5.0.10.0	5_exp_noRW	80	Rpleas_acq	CS_A	ZHHZ	YFFY	CPPC	DXXD	JQQJ	LWWL	sonnig	gütig	vertrauen	küssen	genießen	träumen	sterben	gierig	versagen	krank	gemein	töten	47pct	acq_USunple_CSunple1_noRW	acq23456_noRW	2	52	0	0	300	300	846	46	0	1	1	blank2r.bmp	0	1	+	0	1	blank2r.bmp	252	1	CPPC	306	3	versagen	559	0	0	0	0	0	0	0	0	0	0	0	0	0	0	0	0	0	0	0	0	0	0	0	0	0	0	0	0	0	0	0	0	0	0	0	0	0	0	0
072319	16:47:59	16:54:51	411721	5.0.10.0	5_exp_noRW	80	Rpleas_acq	CS_A	ZHHZ	YFFY	CPPC	DXXD	JQQJ	LWWL	sonnig	gütig	vertrauen	küssen	genießen	träumen	sterben	gierig	versagen	krank	gemein	töten	47pct	acq_USpleas_CSunple1_noRW	acq23456_noRW	2	53	0	0	300	300	709	50	0	1	1	blank2r.bmp	0	1	+	0	1	blank2r.bmp	252	1	CPPC	306	3	vertrauen	559	0	0	0	0	0	0	0	0	0	0	0	0	0	0	0	0	0	0	0	0	0	0	0	0	0	0	0	0	0	0	0	0	0	0	0	0	0	0	0
072319	16:47:59	16:54:53	413560	5.0.10.0	5_exp_noRW	80	Rpleas_acq	CS_A	ZHHZ	YFFY	CPPC	DXXD	JQQJ	LWWL	sonnig	gütig	vertrauen	küssen	genießen	träumen	sterben	gierig	versagen	krank	gemein	töten	53pct	acq_USpleas_CSpleas2_noRW	acq23456_noRW	2	54	0	0	300	300	653	50	0	1	1	blank2r.bmp	0	1	+	0	1	blank2r.bmp	252	1	YFFY	306	2	genießen	559	0	0	0	0	0	0	0	0	0	0	0	0	0	0	0	0	0	0	0	0	0	0	0	0	0	0	0	0	0	0	0	0	0	0	0	0	0	0	0
072319	16:47:59	16:54:55	415186	5.0.10.0	5_exp_noRW	80	Rpleas_acq	CS_A	ZHHZ	YFFY	CPPC	DXXD	JQQJ	LWWL	sonnig	gütig	vertrauen	küssen	genießen	träumen	sterben	gierig	versagen	krank	gemein	töten	47pct	acq_USunple_CSunple1_noRW	acq23456_noRW	2	55	0	0	300	300	445	46	0	1	1	blank2r.bmp	0	1	+	0	1	blank2r.bmp	252	1	CPPC	306	1	sterben	559	0	0	0	0	0	0	0	0	0	0	0	0	0	0	0	0	0	0	0	0	0	0	0	0	0	0	0	0	0	0	0	0	0	0	0	0	0	0	0
072319	16:47:59	16:54:56	416812	5.0.10.0	5_exp_noRW	80	Rpleas_acq	CS_A	ZHHZ	YFFY	CPPC	DXXD	JQQJ	LWWL	sonnig	gütig	vertrauen	küssen	genießen	träumen	sterben	gierig	versagen	krank	gemein	töten	47pct	acq_USunple_CSunple2_noRW	acq23456_noRW	2	56	0	0	300	300	454	46	0	1	1	blank2r.bmp	0	1	+	0	1	blank2r.bmp	252	1	DXXD	306	3	töten	559	0	0	0	0	0	0	0	0	0	0	0	0	0	0	0	0	0	0	0	0	0	0	0	0	0	0	0	0	0	0	0	0	0	0	0	0	0	0	0
072319	16:47:59	16:54:58	418464	5.0.10.0	5_exp_noRW	80	Rpleas_acq	CS_A	ZHHZ	YFFY	CPPC	DXXD	JQQJ	LWWL	sonnig	gütig	vertrauen	küssen	genießen	träumen	sterben	gierig	versagen	krank	gemein	töten	47pct	acq_USunple_CSpleas1_noRW	acq23456_noRW	2	57	0	0	300	300	490	46	0	1	1	blank2r.bmp	0	1	+	0	1	blank2r.bmp	252	1	ZHHZ	306	2	gierig	559	0	0	0	0	0	0	0	0	0	0	0	0	0	0	0	0	0	0	0	0	0	0	0	0	0	0	0	0	0	0	0	0	0	0	0	0	0	0	0
072319	16:47:59	16:55:00	420197	5.0.10.0	5_exp_noRW	80	Rpleas_acq	CS_A	ZHHZ	YFFY	CPPC	DXXD	JQQJ	LWWL	sonnig	gütig	vertrauen	küssen	genießen	träumen	sterben	gierig	versagen	krank	gemein	töten	53pct	acq_USunple_CSunple2_noRW	acq23456_noRW	2	58	0	0	300	300	554	46	0	1	1	blank2r.bmp	0	1	+	0	1	blank2r.bmp	252	1	DXXD	306	1	krank	559	0	0	0	0	0	0	0	0	0	0	0	0	0	0	0	0	0	0	0	0	0	0	0	0	0	0	0	0	0	0	0	0	0	0	0	0	0	0	0
072319	16:47:59	16:55:01	421943	5.0.10.0	5_exp_noRW	80	Rpleas_acq	CS_A	ZHHZ	YFFY	CPPC	DXXD	JQQJ	LWWL	sonnig	gütig	vertrauen	küssen	genießen	träumen	sterben	gierig	versagen	krank	gemein	töten	47pct	acq_USpleas_CSpleas1_noRW	acq23456_noRW	2	59	0	0	300	300	571	50	0	1	1	blank2r.bmp	0	1	+	0	1	blank2r.bmp	252	1	ZHHZ	306	2	gütig	559	0	0	0	0	0	0	0	0	0	0	0	0	0	0	0	0	0	0	0	0	0	0	0	0	0	0	0	0	0	0	0	0	0	0	0	0	0	0	0
072319	16:47:59	16:55:03	423582	5.0.10.0	5_exp_noRW	80	Rpleas_acq	CS_A	ZHHZ	YFFY	CPPC	DXXD	JQQJ	LWWL	sonnig	gütig	vertrauen	küssen	genießen	träumen	sterben	gierig	versagen	krank	gemein	töten	53pct	acq_USpleas_CSpleas2_noRW	acq23456_noRW	2	60	0	0	300	300	470	50	0	1	1	blank2r.bmp	0	1	+	0	1	blank2r.bmp	252	1	YFFY	306	3	träumen	559	0	0	0	0	0	0	0	0	0	0	0	0	0	0	0	0	0	0	0	0	0	0	0	0	0	0	0	0	0	0	0	0	0	0	0	0	0	0	0
072319	16:47:59	16:55:05	425248	5.0.10.0	5_exp_noRW	80	Rpleas_acq	CS_A	ZHHZ	YFFY	CPPC	DXXD	JQQJ	LWWL	sonnig	gütig	vertrauen	küssen	genießen	träumen	sterben	gierig	versagen	krank	gemein	töten	53pct	acq_USpleas_CSpleas2_noRW	acq23456_noRW	2	61	0	0	300	300	492	50	0	1	1	blank2r.bmp	0	1	+	0	1	blank2r.bmp	252	1	YFFY	306	2	genießen	559	0	0	0	0	0	0	0	0	0	0	0	0	0	0	0	0	0	0	0	0	0	0	0	0	0	0	0	0	0	0	0	0	0	0	0	0	0	0	0
072319	16:47:59	16:55:06	426967	5.0.10.0	5_exp_noRW	80	Rpleas_acq	CS_A	ZHHZ	YFFY	CPPC	DXXD	JQQJ	LWWL	sonnig	gütig	vertrauen	küssen	genießen	träumen	sterben	gierig	versagen	krank	gemein	töten	47pct	acq_USpleas_CSpleas1_noRW	acq23456_noRW	2	62	0	0	300	300	558	50	0	1	1	blank2r.bmp	0	1	+	0	1	blank2r.bmp	252	1	ZHHZ	306	3	vertrauen	559	0	0	0	0	0	0	0	0	0	0	0	0	0	0	0	0	0	0	0	0	0	0	0	0	0	0	0	0	0	0	0	0	0	0	0	0	0	0	0
072319	16:47:59	16:55:08	428567	5.0.10.0	5_exp_noRW	80	Rpleas_acq	CS_A	ZHHZ	YFFY	CPPC	DXXD	JQQJ	LWWL	sonnig	gütig	vertrauen	küssen	genießen	träumen	sterben	gierig	versagen	krank	gemein	töten	53pct	acq_USunple_CSunple1_noRW	acq23456_noRW	2	63	0	0	300	300	414	46	0	1	1	blank2r.bmp	0	1	+	0	1	blank2r.bmp	252	1	CPPC	306	2	gierig	559	0	0	0	0	0	0	0	0	0	0	0	0	0	0	0	0	0	0	0	0	0	0	0	0	0	0	0	0	0	0	0	0	0	0	0	0	0	0	0
072319	16:47:59	16:55:10	430206	5.0.10.0	5_exp_noRW	80	Rpleas_acq	CS_A	ZHHZ	YFFY	CPPC	DXXD	JQQJ	LWWL	sonnig	gütig	vertrauen	küssen	genießen	träumen	sterben	gierig	versagen	krank	gemein	töten	53pct	acq_USunple_CSpleas1_noRW	acq23456_noRW	2	64	0	0	300	300	459	46	0	1	1	blank2r.bmp	0	1	+	0	1	blank2r.bmp	252	1	ZHHZ	306	1	sterben	559	0	0	0	0	0	0	0	0	0	0	0	0	0	0	0	0	0	0	0	0	0	0	0	0	0	0	0	0	0	0	0	0	0	0	0	0	0	0	0
072319	16:47:59	16:55:11	431885	5.0.10.0	5_exp_noRW	80	Rpleas_acq	CS_A	ZHHZ	YFFY	CPPC	DXXD	JQQJ	LWWL	sonnig	gütig	vertrauen	küssen	genießen	träumen	sterben	gierig	versagen	krank	gemein	töten	53pct	acq_USpleas_CSpleas1_noRW	acq23456_noRW	2	65	0	0	300	300	498	50	0	1	1	blank2r.bmp	0	1	+	0	1	blank2r.bmp	252	1	ZHHZ	306	1	sonnig	559	0	0	0	0	0	0	0	0	0	0	0	0	0	0	0	0	0	0	0	0	0	0	0	0	0	0	0	0	0	0	0	0	0	0	0	0	0	0	0
072319	16:47:59	16:55:13	433671	5.0.10.0	5_exp_noRW	80	Rpleas_acq	CS_A	ZHHZ	YFFY	CPPC	DXXD	JQQJ	LWWL	sonnig	gütig	vertrauen	küssen	genießen	träumen	sterben	gierig	versagen	krank	gemein	töten	47pct	acq_USunple_CSunple2_noRW	acq23456_noRW	2	66	0	0	300	300	603	46	0	1	1	blank2r.bmp	0	1	+	0	1	blank2r.bmp	252	1	DXXD	306	3	töten	559	0	0	0	0	0	0	0	0	0	0	0	0	0	0	0	0	0	0	0	0	0	0	0	0	0	0	0	0	0	0	0	0	0	0	0	0	0	0	0
072319	16:47:59	16:55:15	435364	5.0.10.0	5_exp_noRW	80	Rpleas_acq	CS_A	ZHHZ	YFFY	CPPC	DXXD	JQQJ	LWWL	sonnig	gütig	vertrauen	küssen	genießen	träumen	sterben	gierig	versagen	krank	gemein	töten	53pct	acq_USunple_CSunple2_noRW	acq23456_noRW	2	67	0	0	300	300	526	46	0	1	1	blank2r.bmp	0	1	+	0	1	blank2r.bmp	252	1	DXXD	306	2	gemein	559	0	0	0	0	0	0	0	0	0	0	0	0	0	0	0	0	0	0	0	0	0	0	0	0	0	0	0	0	0	0	0	0	0	0	0	0	0	0	0
072319	16:47:59	16:55:17	437083	5.0.10.0	5_exp_noRW	80	Rpleas_acq	CS_A	ZHHZ	YFFY	CPPC	DXXD	JQQJ	LWWL	sonnig	gütig	vertrauen	küssen	genießen	träumen	sterben	gierig	versagen	krank	gemein	töten	53pct	acq_USunple_CSunple1_noRW	acq23456_noRW	2	68	0	0	300	300	533	46	0	1	1	blank2r.bmp	0	1	+	0	1	blank2r.bmp	252	1	CPPC	306	3	versagen	559	0	0	0	0	0	0	0	0	0	0	0	0	0	0	0	0	0	0	0	0	0	0	0	0	0	0	0	0	0	0	0	0	0	0	0	0	0	0	0
072319	16:47:59	16:55:18	438789	5.0.10.0	5_exp_noRW	80	Rpleas_acq	CS_A	ZHHZ	YFFY	CPPC	DXXD	JQQJ	LWWL	sonnig	gütig	vertrauen	küssen	genießen	träumen	sterben	gierig	versagen	krank	gemein	töten	47pct	acq_USpleas_CSunple2_noRW	acq23456_noRW	2	69	0	0	300	300	536	50	0	1	1	blank2r.bmp	0	1	+	0	1	blank2r.bmp	252	1	DXXD	306	1	küssen	559	0	0	0	0	0	0	0	0	0	0	0	0	0	0	0	0	0	0	0	0	0	0	0	0	0	0	0	0	0	0	0	0	0	0	0	0	0	0	0
072319	16:47:59	16:55:20	440495	5.0.10.0	5_exp_noRW	80	Rpleas_acq	CS_A	ZHHZ	YFFY	CPPC	DXXD	JQQJ	LWWL	sonnig	gütig	vertrauen	küssen	genießen	träumen	sterben	gierig	versagen	krank	gemein	töten	47pct	acq_USunple_CSpleas2_noRW	acq23456_noRW	2	70	0	0	300	300	542	46	0	1	1	blank2r.bmp	0	1	+	0	1	blank2r.bmp	252	1	YFFY	306	3	töten	559	0	0	0	0	0	0	0	0	0	0	0	0	0	0	0	0	0	0	0	0	0	0	0	0	0	0	0	0	0	0	0	0	0	0	0	0	0	0	0
072319	16:47:59	16:55:22	442268	5.0.10.0	5_exp_noRW	80	Rpleas_acq	CS_A	ZHHZ	YFFY	CPPC	DXXD	JQQJ	LWWL	sonnig	gütig	vertrauen	küssen	genießen	träumen	sterben	gierig	versagen	krank	gemein	töten	47pct	acq_USunple_CSunple1_noRW	acq23456_noRW	2	71	0	0	300	300	595	46	0	1	1	blank2r.bmp	0	1	+	0	1	blank2r.bmp	252	1	CPPC	306	3	versagen	559	0	0	0	0	0	0	0	0	0	0	0	0	0	0	0	0	0	0	0	0	0	0	0	0	0	0	0	0	0	0	0	0	0	0	0	0	0	0	0
072319	16:47:59	16:55:23	443867	5.0.10.0	5_exp_noRW	80	Rpleas_acq	CS_A	ZHHZ	YFFY	CPPC	DXXD	JQQJ	LWWL	sonnig	gütig	vertrauen	küssen	genießen	träumen	sterben	gierig	versagen	krank	gemein	töten	47pct	acq_USpleas_CSpleas2_noRW	acq23456_noRW	2	72	0	0	300	300	433	50	0	1	1	blank2r.bmp	0	1	+	0	1	blank2r.bmp	252	1	YFFY	306	1	küssen	559	0	0	0	0	0	0	0	0	0	0	0	0	0	0	0	0	0	0	0	0	0	0	0	0	0	0	0	0	0	0	0	0	0	0	0	0	0	0	0
072319	16:47:59	16:55:25	445546	5.0.10.0	5_exp_noRW	80	Rpleas_acq	CS_A	ZHHZ	YFFY	CPPC	DXXD	JQQJ	LWWL	sonnig	gütig	vertrauen	küssen	genießen	träumen	sterben	gierig	versagen	krank	gemein	töten	47pct	acq_USunple_CSunple2_noRW	acq23456_noRW	2	73	0	0	300	300	505	46	0	1	1	blank2r.bmp	0	1	+	0	1	blank2r.bmp	252	1	DXXD	306	2	gemein	559	0	0	0	0	0	0	0	0	0	0	0	0	0	0	0	0	0	0	0	0	0	0	0	0	0	0	0	0	0	0	0	0	0	0	0	0	0	0	0
072319	16:47:59	16:55:27	447506	5.0.10.0	5_exp_noRW	80	Rpleas_acq	CS_A	ZHHZ	YFFY	CPPC	DXXD	JQQJ	LWWL	sonnig	gütig	vertrauen	küssen	genießen	träumen	sterben	gierig	versagen	krank	gemein	töten	47pct	acq_USpleas_CSpleas2_noRW	acq23456_noRW	2	74	0	0	300	300	773	50	0	1	1	blank2r.bmp	0	1	+	0	1	blank2r.bmp	252	1	YFFY	306	2	genießen	559	0	0	0	0	0	0	0	0	0	0	0	0	0	0	0	0	0	0	0	0	0	0	0	0	0	0	0	0	0	0	0	0	0	0	0	0	0	0	0
072319	16:47:59	16:55:29	449438	5.0.10.0	5_exp_noRW	80	Rpleas_acq	CS_A	ZHHZ	YFFY	CPPC	DXXD	JQQJ	LWWL	sonnig	gütig	vertrauen	küssen	genießen	träumen	sterben	gierig	versagen	krank	gemein	töten	53pct	acq_USpleas_CSpleas1_noRW	acq23456_noRW	2	75	0	0	300	300	748	50	0	1	1	blank2r.bmp	0	1	+	0	1	blank2r.bmp	252	1	ZHHZ	306	3	vertrauen	559	0	0	0	0	0	0	0	0	0	0	0	0	0	0	0	0	0	0	0	0	0	0	0	0	0	0	0	0	0	0	0	0	0	0	0	0	0	0	0
072319	16:47:59	16:55:31	451117	5.0.10.0	5_exp_noRW	80	Rpleas_acq	CS_A	ZHHZ	YFFY	CPPC	DXXD	JQQJ	LWWL	sonnig	gütig	vertrauen	küssen	genießen	träumen	sterben	gierig	versagen	krank	gemein	töten	47pct	acq_USunple_CSunple2_noRW	acq23456_noRW	2	76	0	0	300	300	498	46	0	1	1	blank2r.bmp	0	1	+	0	1	blank2r.bmp	252	1	DXXD	306	1	krank	559	0	0	0	0	0	0	0	0	0	0	0	0	0	0	0	0	0	0	0	0	0	0	0	0	0	0	0	0	0	0	0	0	0	0	0	0	0	0	0
072319	16:47:59	16:55:32	452797	5.0.10.0	5_exp_noRW	80	Rpleas_acq	CS_A	ZHHZ	YFFY	CPPC	DXXD	JQQJ	LWWL	sonnig	gütig	vertrauen	küssen	genießen	träumen	sterben	gierig	versagen	krank	gemein	töten	53pct	acq_USpleas_CSpleas2_noRW	acq23456_noRW	2	77	0	0	300	300	506	50	0	1	1	blank2r.bmp	0	1	+	0	1	blank2r.bmp	252	1	YFFY	306	3	träumen	559	0	0	0	0	0	0	0	0	0	0	0	0	0	0	0	0	0	0	0	0	0	0	0	0	0	0	0	0	0	0	0	0	0	0	0	0	0	0	0
072319	16:47:59	16:55:34	454543	5.0.10.0	5_exp_noRW	80	Rpleas_acq	CS_A	ZHHZ	YFFY	CPPC	DXXD	JQQJ	LWWL	sonnig	gütig	vertrauen	küssen	genießen	träumen	sterben	gierig	versagen	krank	gemein	töten	47pct	acq_USpleas_CSunple1_noRW	acq23456_noRW	2	78	0	0	300	300	569	50	0	1	1	blank2r.bmp	0	1	+	0	1	blank2r.bmp	252	1	CPPC	306	1	sonnig	559	0	0	0	0	0	0	0	0	0	0	0	0	0	0	0	0	0	0	0	0	0	0	0	0	0	0	0	0	0	0	0	0	0	0	0	0	0	0	0
072319	16:47:59	16:55:36	456302	5.0.10.0	5_exp_noRW	80	Rpleas_acq	CS_A	ZHHZ	YFFY	CPPC	DXXD	JQQJ	LWWL	sonnig	gütig	vertrauen	küssen	genießen	träumen	sterben	gierig	versagen	krank	gemein	töten	47pct	acq_USpleas_CSpleas1_noRW	acq23456_noRW	2	79	0	0	300	300	583	50	0	1	1	blank2r.bmp	0	1	+	0	1	blank2r.bmp	252	1	ZHHZ	306	2	gütig	559	0	0	0	0	0	0	0	0	0	0	0	0	0	0	0	0	0	0	0	0	0	0	0	0	0	0	0	0	0	0	0	0	0	0	0	0	0	0	0
072319	16:47:59	16:55:38	458181	5.0.10.0	5_exp_noRW	80	Rpleas_acq	CS_A	ZHHZ	YFFY	CPPC	DXXD	JQQJ	LWWL	sonnig	gütig	vertrauen	küssen	genießen	träumen	sterben	gierig	versagen	krank	gemein	töten	53pct	acq_USunple_CSunple1_noRW	acq23456_noRW	2	80	0	0	300	300	486	50	0	0	1	blank2r.bmp	0	1	+	0	1	blank2r.bmp	252	1	CPPC	306	2	gierig	559	1	FEHLER	1079	0	0	0	0	0	0	0	0	0	0	0	0	0	0	0	0	0	0	0	0	0	0	0	0	0	0	0	0	0	0	0	0	0	0	0	0
072319	16:47:59	16:55:57	477133	5.0.10.0	5_exp_noRW	80	Rpleas_acq	CS_A	ZHHZ	YFFY	CPPC	DXXD	JQQJ	LWWL	sonnig	gütig	vertrauen	küssen	genießen	träumen	sterben	gierig	versagen	krank	gemein	töten	47pct	acq_USpleas_CSpleas1_noRW	acq23456_noRW	3	1	0	0	300	300	523	50	0	1	1	blank2r.bmp	0	1	+	0	1	blank2r.bmp	252	1	ZHHZ	306	1	sonnig	559	0	0	0	0	0	0	0	0	0	0	0	0	0	0	0	0	0	0	0	0	0	0	0	0	0	0	0	0	0	0	0	0	0	0	0	0	0	0	0
072319	16:47:59	16:55:58	478719	5.0.10.0	5_exp_noRW	80	Rpleas_acq	CS_A	ZHHZ	YFFY	CPPC	DXXD	JQQJ	LWWL	sonnig	gütig	vertrauen	küssen	genießen	träumen	sterben	gierig	versagen	krank	gemein	töten	47pct	acq_USpleas_CSpleas1_noRW	acq23456_noRW	3	2	0	0	300	300	424	50	0	1	1	blank2r.bmp	0	1	+	0	1	blank2r.bmp	252	1	ZHHZ	306	1	sonnig	559	0	0	0	0	0	0	0	0	0	0	0	0	0	0	0	0	0	0	0	0	0	0	0	0	0	0	0	0	0	0	0	0	0	0	0	0	0	0	0
072319	16:47:59	16:56:00	480425	5.0.10.0	5_exp_noRW	80	Rpleas_acq	CS_A	ZHHZ	YFFY	CPPC	DXXD	JQQJ	LWWL	sonnig	gütig	vertrauen	küssen	genießen	träumen	sterben	gierig	versagen	krank	gemein	töten	47pct	acq_USpleas_CSunple2_noRW	acq23456_noRW	3	3	0	0	300	300	519	50	0	1	1	blank2r.bmp	0	1	+	0	1	blank2r.bmp	252	1	DXXD	306	3	träumen	559	0	0	0	0	0	0	0	0	0	0	0	0	0	0	0	0	0	0	0	0	0	0	0	0	0	0	0	0	0	0	0	0	0	0	0	0	0	0	0
072319	16:47:59	16:56:02	482064	5.0.10.0	5_exp_noRW	80	Rpleas_acq	CS_A	ZHHZ	YFFY	CPPC	DXXD	JQQJ	LWWL	sonnig	gütig	vertrauen	küssen	genießen	träumen	sterben	gierig	versagen	krank	gemein	töten	53pct	acq_USpleas_CSpleas2_noRW	acq23456_noRW	3	4	0	0	300	300	467	50	0	1	1	blank2r.bmp	0	1	+	0	1	blank2r.bmp	252	1	YFFY	306	1	küssen	559	0	0	0	0	0	0	0	0	0	0	0	0	0	0	0	0	0	0	0	0	0	0	0	0	0	0	0	0	0	0	0	0	0	0	0	0	0	0	0
072319	16:47:59	16:56:03	483784	5.0.10.0	5_exp_noRW	80	Rpleas_acq	CS_A	ZHHZ	YFFY	CPPC	DXXD	JQQJ	LWWL	sonnig	gütig	vertrauen	küssen	genießen	träumen	sterben	gierig	versagen	krank	gemein	töten	47pct	acq_USpleas_CSpleas1_noRW	acq23456_noRW	3	5	0	0	300	300	556	50	0	1	1	blank2r.bmp	0	1	+	0	1	blank2r.bmp	252	1	ZHHZ	306	3	vertrauen	559	0	0	0	0	0	0	0	0	0	0	0	0	0	0	0	0	0	0	0	0	0	0	0	0	0	0	0	0	0	0	0	0	0	0	0	0	0	0	0
072319	16:47:59	16:56:05	485410	5.0.10.0	5_exp_noRW	80	Rpleas_acq	CS_A	ZHHZ	YFFY	CPPC	DXXD	JQQJ	LWWL	sonnig	gütig	vertrauen	küssen	genießen	träumen	sterben	gierig	versagen	krank	gemein	töten	53pct	acq_USpleas_CSunple1_noRW	acq23456_noRW	3	6	0	0	300	300	440	50	0	1	1	blank2r.bmp	0	1	+	0	1	blank2r.bmp	252	1	CPPC	306	2	gütig	559	0	0	0	0	0	0	0	0	0	0	0	0	0	0	0	0	0	0	0	0	0	0	0	0	0	0	0	0	0	0	0	0	0	0	0	0	0	0	0
072319	16:47:59	16:56:07	487036	5.0.10.0	5_exp_noRW	80	Rpleas_acq	CS_A	ZHHZ	YFFY	CPPC	DXXD	JQQJ	LWWL	sonnig	gütig	vertrauen	küssen	genießen	träumen	sterben	gierig	versagen	krank	gemein	töten	53pct	acq_USunple_CSunple1_noRW	acq23456_noRW	3	7	0	0	300	300	463	46	0	1	1	blank2r.bmp	0	1	+	0	1	blank2r.bmp	252	1	CPPC	306	1	sterben	559	0	0	0	0	0	0	0	0	0	0	0	0	0	0	0	0	0	0	0	0	0	0	0	0	0	0	0	0	0	0	0	0	0	0	0	0	0	0	0
072319	16:47:59	16:56:08	488915	5.0.10.0	5_exp_noRW	80	Rpleas_acq	CS_A	ZHHZ	YFFY	CPPC	DXXD	JQQJ	LWWL	sonnig	gütig	vertrauen	küssen	genießen	träumen	sterben	gierig	versagen	krank	gemein	töten	53pct	acq_USpleas_CSpleas2_noRW	acq23456_noRW	3	8	0	0	300	300	700	50	0	1	1	blank2r.bmp	0	1	+	0	1	blank2r.bmp	252	1	YFFY	306	3	träumen	559	0	0	0	0	0	0	0	0	0	0	0	0	0	0	0	0	0	0	0	0	0	0	0	0	0	0	0	0	0	0	0	0	0	0	0	0	0	0	0
072319	16:47:59	16:56:10	490541	5.0.10.0	5_exp_noRW	80	Rpleas_acq	CS_A	ZHHZ	YFFY	CPPC	DXXD	JQQJ	LWWL	sonnig	gütig	vertrauen	küssen	genießen	träumen	sterben	gierig	versagen	krank	gemein	töten	53pct	acq_USunple_CSunple2_noRW	acq23456_noRW	3	9	0	0	300	300	460	46	0	1	1	blank2r.bmp	0	1	+	0	1	blank2r.bmp	252	1	DXXD	306	3	töten	559	0	0	0	0	0	0	0	0	0	0	0	0	0	0	0	0	0	0	0	0	0	0	0	0	0	0	0	0	0	0	0	0	0	0	0	0	0	0	0
072319	16:47:59	16:56:12	492433	5.0.10.0	5_exp_noRW	80	Rpleas_acq	CS_A	ZHHZ	YFFY	CPPC	DXXD	JQQJ	LWWL	sonnig	gütig	vertrauen	küssen	genießen	träumen	sterben	gierig	versagen	krank	gemein	töten	53pct	acq_USpleas_CSpleas1_noRW	acq23456_noRW	3	10	0	0	300	300	710	50	0	1	1	blank2r.bmp	0	1	+	0	1	blank2r.bmp	252	1	ZHHZ	306	2	gütig	559	0	0	0	0	0	0	0	0	0	0	0	0	0	0	0	0	0	0	0	0	0	0	0	0	0	0	0	0	0	0	0	0	0	0	0	0	0	0	0
072319	16:47:59	16:56:14	494113	5.0.10.0	5_exp_noRW	80	Rpleas_acq	CS_A	ZHHZ	YFFY	CPPC	DXXD	JQQJ	LWWL	sonnig	gütig	vertrauen	küssen	genießen	träumen	sterben	gierig	versagen	krank	gemein	töten	53pct	acq_USpleas_CSpleas2_noRW	acq23456_noRW	3	11	0	0	300	300	501	50	0	1	1	blank2r.bmp	0	1	+	0	1	blank2r.bmp	252	1	YFFY	306	2	genießen	559	0	0	0	0	0	0	0	0	0	0	0	0	0	0	0	0	0	0	0	0	0	0	0	0	0	0	0	0	0	0	0	0	0	0	0	0	0	0	0
072319	16:47:59	16:56:15	495765	5.0.10.0	5_exp_noRW	80	Rpleas_acq	CS_A	ZHHZ	YFFY	CPPC	DXXD	JQQJ	LWWL	sonnig	gütig	vertrauen	küssen	genießen	träumen	sterben	gierig	versagen	krank	gemein	töten	53pct	acq_USpleas_CSpleas2_noRW	acq23456_noRW	3	12	0	0	300	300	468	50	0	1	1	blank2r.bmp	0	1	+	0	1	blank2r.bmp	252	1	YFFY	306	1	küssen	559	0	0	0	0	0	0	0	0	0	0	0	0	0	0	0	0	0	0	0	0	0	0	0	0	0	0	0	0	0	0	0	0	0	0	0	0	0	0	0
072319	16:47:59	16:56:17	497405	5.0.10.0	5_exp_noRW	80	Rpleas_acq	CS_A	ZHHZ	YFFY	CPPC	DXXD	JQQJ	LWWL	sonnig	gütig	vertrauen	küssen	genießen	träumen	sterben	gierig	versagen	krank	gemein	töten	53pct	acq_USunple_CSunple2_noRW	acq23456_noRW	3	13	0	0	300	300	478	46	0	1	1	blank2r.bmp	0	1	+	0	1	blank2r.bmp	252	1	DXXD	306	1	krank	559	0	0	0	0	0	0	0	0	0	0	0	0	0	0	0	0	0	0	0	0	0	0	0	0	0	0	0	0	0	0	0	0	0	0	0	0	0	0	0
072319	16:47:59	16:56:19	499071	5.0.10.0	5_exp_noRW	80	Rpleas_acq	CS_A	ZHHZ	YFFY	CPPC	DXXD	JQQJ	LWWL	sonnig	gütig	vertrauen	küssen	genießen	träumen	sterben	gierig	versagen	krank	gemein	töten	53pct	acq_USunple_CSunple1_noRW	acq23456_noRW	3	14	0	0	300	300	487	46	0	1	1	blank2r.bmp	0	1	+	0	1	blank2r.bmp	252	1	CPPC	306	1	sterben	559	0	0	0	0	0	0	0	0	0	0	0	0	0	0	0	0	0	0	0	0	0	0	0	0	0	0	0	0	0	0	0	0	0	0	0	0	0	0	0
072319	16:47:59	16:56:20	500803	5.0.10.0	5_exp_noRW	80	Rpleas_acq	CS_A	ZHHZ	YFFY	CPPC	DXXD	JQQJ	LWWL	sonnig	gütig	vertrauen	küssen	genießen	träumen	sterben	gierig	versagen	krank	gemein	töten	47pct	acq_USunple_CSunple1_noRW	acq23456_noRW	3	15	0	0	300	300	551	46	0	1	1	blank2r.bmp	0	1	+	0	1	blank2r.bmp	252	1	CPPC	306	2	gierig	559	0	0	0	0	0	0	0	0	0	0	0	0	0	0	0	0	0	0	0	0	0	0	0	0	0	0	0	0	0	0	0	0	0	0	0	0	0	0	0
072319	16:47:59	16:56:22	502523	5.0.10.0	5_exp_noRW	80	Rpleas_acq	CS_A	ZHHZ	YFFY	CPPC	DXXD	JQQJ	LWWL	sonnig	gütig	vertrauen	küssen	genießen	träumen	sterben	gierig	versagen	krank	gemein	töten	53pct	acq_USunple_CSpleas1_noRW	acq23456_noRW	3	16	0	0	300	300	553	46	0	1	1	blank2r.bmp	0	1	+	0	1	blank2r.bmp	252	1	ZHHZ	306	3	versagen	559	0	0	0	0	0	0	0	0	0	0	0	0	0	0	0	0	0	0	0	0	0	0	0	0	0	0	0	0	0	0	0	0	0	0	0	0	0	0	0
072319	16:47:59	16:56:24	504242	5.0.10.0	5_exp_noRW	80	Rpleas_acq	CS_A	ZHHZ	YFFY	CPPC	DXXD	JQQJ	LWWL	sonnig	gütig	vertrauen	küssen	genießen	träumen	sterben	gierig	versagen	krank	gemein	töten	53pct	acq_USunple_CSunple2_noRW	acq23456_noRW	3	17	0	0	300	300	537	46	0	1	1	blank2r.bmp	0	1	+	0	1	blank2r.bmp	252	1	DXXD	306	2	gemein	559	0	0	0	0	0	0	0	0	0	0	0	0	0	0	0	0	0	0	0	0	0	0	0	0	0	0	0	0	0	0	0	0	0	0	0	0	0	0	0
072319	16:47:59	16:56:25	505921	5.0.10.0	5_exp_noRW	80	Rpleas_acq	CS_A	ZHHZ	YFFY	CPPC	DXXD	JQQJ	LWWL	sonnig	gütig	vertrauen	küssen	genießen	träumen	sterben	gierig	versagen	krank	gemein	töten	47pct	acq_USunple_CSunple1_noRW	acq23456_noRW	3	18	0	0	300	300	495	46	0	1	1	blank2r.bmp	0	1	+	0	1	blank2r.bmp	252	1	CPPC	306	3	versagen	559	0	0	0	0	0	0	0	0	0	0	0	0	0	0	0	0	0	0	0	0	0	0	0	0	0	0	0	0	0	0	0	0	0	0	0	0	0	0	0
072319	16:47:59	16:56:27	507587	5.0.10.0	5_exp_noRW	80	Rpleas_acq	CS_A	ZHHZ	YFFY	CPPC	DXXD	JQQJ	LWWL	sonnig	gütig	vertrauen	küssen	genießen	träumen	sterben	gierig	versagen	krank	gemein	töten	47pct	acq_USunple_CSpleas2_noRW	acq23456_noRW	3	19	0	0	300	300	496	46	0	1	1	blank2r.bmp	0	1	+	0	1	blank2r.bmp	252	1	YFFY	306	2	gemein	559	0	0	0	0	0	0	0	0	0	0	0	0	0	0	0	0	0	0	0	0	0	0	0	0	0	0	0	0	0	0	0	0	0	0	0	0	0	0	0
072319	16:47:59	16:56:29	509266	5.0.10.0	5_exp_noRW	80	Rpleas_acq	CS_A	ZHHZ	YFFY	CPPC	DXXD	JQQJ	LWWL	sonnig	gütig	vertrauen	küssen	genießen	träumen	sterben	gierig	versagen	krank	gemein	töten	53pct	acq_USunple_CSunple2_noRW	acq23456_noRW	3	20	0	0	300	300	507	46	0	1	1	blank2r.bmp	0	1	+	0	1	blank2r.bmp	252	1	DXXD	306	3	töten	559	0	0	0	0	0	0	0	0	0	0	0	0	0	0	0	0	0	0	0	0	0	0	0	0	0	0	0	0	0	0	0	0	0	0	0	0	0	0	0
072319	16:47:59	16:56:31	511132	5.0.10.0	5_exp_noRW	80	Rpleas_acq	CS_A	ZHHZ	YFFY	CPPC	DXXD	JQQJ	LWWL	sonnig	gütig	vertrauen	küssen	genießen	träumen	sterben	gierig	versagen	krank	gemein	töten	47pct	acq_USpleas_CSpleas1_noRW	acq23456_noRW	3	21	0	0	300	300	682	50	0	1	1	blank2r.bmp	0	1	+	0	1	blank2r.bmp	252	1	ZHHZ	306	2	gütig	559	0	0	0	0	0	0	0	0	0	0	0	0	0	0	0	0	0	0	0	0	0	0	0	0	0	0	0	0	0	0	0	0	0	0	0	0	0	0	0
072319	16:47:59	16:56:32	512772	5.0.10.0	5_exp_noRW	80	Rpleas_acq	CS_A	ZHHZ	YFFY	CPPC	DXXD	JQQJ	LWWL	sonnig	gütig	vertrauen	küssen	genießen	träumen	sterben	gierig	versagen	krank	gemein	töten	53pct	acq_USunple_CSpleas1_noRW	acq23456_noRW	3	22	0	0	300	300	468	46	0	1	1	blank2r.bmp	0	1	+	0	1	blank2r.bmp	252	1	ZHHZ	306	1	sterben	559	0	0	0	0	0	0	0	0	0	0	0	0	0	0	0	0	0	0	0	0	0	0	0	0	0	0	0	0	0	0	0	0	0	0	0	0	0	0	0
072319	16:47:59	16:56:34	514571	5.0.10.0	5_exp_noRW	80	Rpleas_acq	CS_A	ZHHZ	YFFY	CPPC	DXXD	JQQJ	LWWL	sonnig	gütig	vertrauen	küssen	genießen	träumen	sterben	gierig	versagen	krank	gemein	töten	53pct	acq_USunple_CSunple2_noRW	acq23456_noRW	3	23	0	0	300	300	625	46	0	1	1	blank2r.bmp	0	1	+	0	1	blank2r.bmp	252	1	DXXD	306	1	krank	559	0	0	0	0	0	0	0	0	0	0	0	0	0	0	0	0	0	0	0	0	0	0	0	0	0	0	0	0	0	0	0	0	0	0	0	0	0	0	0
072319	16:47:59	16:56:36	516303	5.0.10.0	5_exp_noRW	80	Rpleas_acq	CS_A	ZHHZ	YFFY	CPPC	DXXD	JQQJ	LWWL	sonnig	gütig	vertrauen	küssen	genießen	träumen	sterben	gierig	versagen	krank	gemein	töten	53pct	acq_USunple_CSunple2_noRW	acq23456_noRW	3	24	0	0	300	300	551	46	0	1	1	blank2r.bmp	0	1	+	0	1	blank2r.bmp	252	1	DXXD	306	2	gemein	559	0	0	0	0	0	0	0	0	0	0	0	0	0	0	0	0	0	0	0	0	0	0	0	0	0	0	0	0	0	0	0	0	0	0	0	0	0	0	0
072319	16:47:59	16:56:38	518289	5.0.10.0	5_exp_noRW	80	Rpleas_acq	CS_A	ZHHZ	YFFY	CPPC	DXXD	JQQJ	LWWL	sonnig	gütig	vertrauen	küssen	genießen	träumen	sterben	gierig	versagen	krank	gemein	töten	53pct	acq_USpleas_CSpleas1_noRW	acq23456_noRW	3	25	0	0	300	300	811	50	0	1	1	blank2r.bmp	0	1	+	0	1	blank2r.bmp	252	1	ZHHZ	306	3	vertrauen	559	0	0	0	0	0	0	0	0	0	0	0	0	0	0	0	0	0	0	0	0	0	0	0	0	0	0	0	0	0	0	0	0	0	0	0	0	0	0	0
072319	16:47:59	16:56:40	520368	5.0.10.0	5_exp_noRW	80	Rpleas_acq	CS_A	ZHHZ	YFFY	CPPC	DXXD	JQQJ	LWWL	sonnig	gütig	vertrauen	küssen	genießen	träumen	sterben	gierig	versagen	krank	gemein	töten	47pct	acq_USunple_CSunple1_noRW	acq23456_noRW	3	26	0	0	300	300	894	46	0	1	1	blank2r.bmp	0	1	+	0	1	blank2r.bmp	252	1	CPPC	306	2	gierig	559	0	0	0	0	0	0	0	0	0	0	0	0	0	0	0	0	0	0	0	0	0	0	0	0	0	0	0	0	0	0	0	0	0	0	0	0	0	0	0
072319	16:47:59	16:56:42	522034	5.0.10.0	5_exp_noRW	80	Rpleas_acq	CS_A	ZHHZ	YFFY	CPPC	DXXD	JQQJ	LWWL	sonnig	gütig	vertrauen	küssen	genießen	träumen	sterben	gierig	versagen	krank	gemein	töten	53pct	acq_USpleas_CSpleas1_noRW	acq23456_noRW	3	27	0	0	300	300	499	50	0	1	1	blank2r.bmp	0	1	+	0	1	blank2r.bmp	252	1	ZHHZ	306	1	sonnig	559	0	0	0	0	0	0	0	0	0	0	0	0	0	0	0	0	0	0	0	0	0	0	0	0	0	0	0	0	0	0	0	0	0	0	0	0	0	0	0
072319	16:47:59	16:56:43	523687	5.0.10.0	5_exp_noRW	80	Rpleas_acq	CS_A	ZHHZ	YFFY	CPPC	DXXD	JQQJ	LWWL	sonnig	gütig	vertrauen	küssen	genießen	träumen	sterben	gierig	versagen	krank	gemein	töten	47pct	acq_USpleas_CSpleas1_noRW	acq23456_noRW	3	28	0	0	300	300	487	50	0	1	1	blank2r.bmp	0	1	+	0	1	blank2r.bmp	252	1	ZHHZ	306	1	sonnig	559	0	0	0	0	0	0	0	0	0	0	0	0	0	0	0	0	0	0	0	0	0	0	0	0	0	0	0	0	0	0	0	0	0	0	0	0	0	0	0
072319	16:47:59	16:56:45	525420	5.0.10.0	5_exp_noRW	80	Rpleas_acq	CS_A	ZHHZ	YFFY	CPPC	DXXD	JQQJ	LWWL	sonnig	gütig	vertrauen	küssen	genießen	träumen	sterben	gierig	versagen	krank	gemein	töten	47pct	acq_USpleas_CSunple1_noRW	acq23456_noRW	3	29	0	0	300	300	569	50	0	1	1	blank2r.bmp	0	1	+	0	1	blank2r.bmp	252	1	CPPC	306	3	vertrauen	559	0	0	0	0	0	0	0	0	0	0	0	0	0	0	0	0	0	0	0	0	0	0	0	0	0	0	0	0	0	0	0	0	0	0	0	0	0	0	0
072319	16:47:59	16:56:47	527485	5.0.10.0	5_exp_noRW	80	Rpleas_acq	CS_A	ZHHZ	YFFY	CPPC	DXXD	JQQJ	LWWL	sonnig	gütig	vertrauen	küssen	genießen	träumen	sterben	gierig	versagen	krank	gemein	töten	47pct	acq_USpleas_CSunple2_noRW	acq23456_noRW	3	30	0	0	300	300	885	50	0	1	1	blank2r.bmp	0	1	+	0	1	blank2r.bmp	252	1	DXXD	306	2	genießen	559	0	0	0	0	0	0	0	0	0	0	0	0	0	0	0	0	0	0	0	0	0	0	0	0	0	0	0	0	0	0	0	0	0	0	0	0	0	0	0
072319	16:47:59	16:56:49	529191	5.0.10.0	5_exp_noRW	80	Rpleas_acq	CS_A	ZHHZ	YFFY	CPPC	DXXD	JQQJ	LWWL	sonnig	gütig	vertrauen	küssen	genießen	träumen	sterben	gierig	versagen	krank	gemein	töten	47pct	acq_USunple_CSunple2_noRW	acq23456_noRW	3	31	0	0	300	300	518	46	0	1	1	blank2r.bmp	0	1	+	0	1	blank2r.bmp	252	1	DXXD	306	3	töten	559	0	0	0	0	0	0	0	0	0	0	0	0	0	0	0	0	0	0	0	0	0	0	0	0	0	0	0	0	0	0	0	0	0	0	0	0	0	0	0
072319	16:47:59	16:56:50	530844	5.0.10.0	5_exp_noRW	80	Rpleas_acq	CS_A	ZHHZ	YFFY	CPPC	DXXD	JQQJ	LWWL	sonnig	gütig	vertrauen	küssen	genießen	träumen	sterben	gierig	versagen	krank	gemein	töten	47pct	acq_USunple_CSpleas2_noRW	acq23456_noRW	3	32	0	0	300	300	487	46	0	1	1	blank2r.bmp	0	1	+	0	1	blank2r.bmp	252	1	YFFY	306	2	gemein	559	0	0	0	0	0	0	0	0	0	0	0	0	0	0	0	0	0	0	0	0	0	0	0	0	0	0	0	0	0	0	0	0	0	0	0	0	0	0	0
072319	16:47:59	16:56:52	532590	5.0.10.0	5_exp_noRW	80	Rpleas_acq	CS_A	ZHHZ	YFFY	CPPC	DXXD	JQQJ	LWWL	sonnig	gütig	vertrauen	küssen	genießen	träumen	sterben	gierig	versagen	krank	gemein	töten	47pct	acq_USpleas_CSpleas2_noRW	acq23456_noRW	3	33	0	0	300	300	580	50	0	1	1	blank2r.bmp	0	1	+	0	1	blank2r.bmp	252	1	YFFY	306	1	küssen	559	0	0	0	0	0	0	0	0	0	0	0	0	0	0	0	0	0	0	0	0	0	0	0	0	0	0	0	0	0	0	0	0	0	0	0	0	0	0	0
072319	16:47:59	16:56:54	534309	5.0.10.0	5_exp_noRW	80	Rpleas_acq	CS_A	ZHHZ	YFFY	CPPC	DXXD	JQQJ	LWWL	sonnig	gütig	vertrauen	küssen	genießen	träumen	sterben	gierig	versagen	krank	gemein	töten	47pct	acq_USunple_CSunple1_noRW	acq23456_noRW	3	34	0	0	300	300	532	46	0	1	1	blank2r.bmp	0	1	+	0	1	blank2r.bmp	252	1	CPPC	306	1	sterben	559	0	0	0	0	0	0	0	0	0	0	0	0	0	0	0	0	0	0	0	0	0	0	0	0	0	0	0	0	0	0	0	0	0	0	0	0	0	0	0
072319	16:47:59	16:56:56	536522	5.0.10.0	5_exp_noRW	80	Rpleas_acq	CS_A	ZHHZ	YFFY	CPPC	DXXD	JQQJ	LWWL	sonnig	gütig	vertrauen	küssen	genießen	träumen	sterben	gierig	versagen	krank	gemein	töten	53pct	acq_USunple_CSunple2_noRW	acq23456_noRW	3	35	0	0	300	300	825	50	0	0	1	blank2r.bmp	0	1	+	0	1	blank2r.bmp	252	1	DXXD	306	2	gemein	559	1	FEHLER	1426	0	0	0	0	0	0	0	0	0	0	0	0	0	0	0	0	0	0	0	0	0	0	0	0	0	0	0	0	0	0	0	0	0	0	0	0
072319	16:47:59	16:56:57	537974	5.0.10.0	5_exp_noRW	80	Rpleas_acq	CS_A	ZHHZ	YFFY	CPPC	DXXD	JQQJ	LWWL	sonnig	gütig	vertrauen	küssen	genießen	träumen	sterben	gierig	versagen	krank	gemein	töten	47pct	acq_USpleas_CSpleas2_noRW	acq23456_noRW	3	36	0	0	300	300	500	50	0	1	1	blank2r.bmp	0	1	+	0	1	blank2r.bmp	252	1	YFFY	306	3	träumen	559	0	0	0	0	0	0	0	0	0	0	0	0	0	0	0	0	0	0	0	0	0	0	0	0	0	0	0	0	0	0	0	0	0	0	0	0	0	0	0
072319	16:47:59	16:56:59	539787	5.0.10.0	5_exp_noRW	80	Rpleas_acq	CS_A	ZHHZ	YFFY	CPPC	DXXD	JQQJ	LWWL	sonnig	gütig	vertrauen	küssen	genießen	träumen	sterben	gierig	versagen	krank	gemein	töten	47pct	acq_USunple_CSunple1_noRW	acq23456_noRW	3	37	0	0	300	300	640	46	0	1	1	blank2r.bmp	0	1	+	0	1	blank2r.bmp	252	1	CPPC	306	3	versagen	559	0	0	0	0	0	0	0	0	0	0	0	0	0	0	0	0	0	0	0	0	0	0	0	0	0	0	0	0	0	0	0	0	0	0	0	0	0	0	0
072319	16:47:59	16:57:01	541480	5.0.10.0	5_exp_noRW	80	Rpleas_acq	CS_A	ZHHZ	YFFY	CPPC	DXXD	JQQJ	LWWL	sonnig	gütig	vertrauen	küssen	genießen	träumen	sterben	gierig	versagen	krank	gemein	töten	47pct	acq_USunple_CSunple1_noRW	acq23456_noRW	3	38	0	0	300	300	525	46	0	1	1	blank2r.bmp	0	1	+	0	1	blank2r.bmp	252	1	CPPC	306	1	sterben	559	0	0	0	0	0	0	0	0	0	0	0	0	0	0	0	0	0	0	0	0	0	0	0	0	0	0	0	0	0	0	0	0	0	0	0	0	0	0	0
072319	16:47:59	16:57:03	543346	5.0.10.0	5_exp_noRW	80	Rpleas_acq	CS_A	ZHHZ	YFFY	CPPC	DXXD	JQQJ	LWWL	sonnig	gütig	vertrauen	küssen	genießen	träumen	sterben	gierig	versagen	krank	gemein	töten	47pct	acq_USpleas_CSpleas2_noRW	acq23456_noRW	3	39	0	0	300	300	689	50	0	1	1	blank2r.bmp	0	1	+	0	1	blank2r.bmp	252	1	YFFY	306	2	genießen	559	0	0	0	0	0	0	0	0	0	0	0	0	0	0	0	0	0	0	0	0	0	0	0	0	0	0	0	0	0	0	0	0	0	0	0	0	0	0	0
072319	16:47:59	16:57:05	545038	5.0.10.0	5_exp_noRW	80	Rpleas_acq	CS_A	ZHHZ	YFFY	CPPC	DXXD	JQQJ	LWWL	sonnig	gütig	vertrauen	küssen	genießen	träumen	sterben	gierig	versagen	krank	gemein	töten	53pct	acq_USpleas_CSpleas2_noRW	acq23456_noRW	3	40	0	0	300	300	517	50	0	1	1	blank2r.bmp	0	1	+	0	1	blank2r.bmp	252	1	YFFY	306	1	küssen	559	0	0	0	0	0	0	0	0	0	0	0	0	0	0	0	0	0	0	0	0	0	0	0	0	0	0	0	0	0	0	0	0	0	0	0	0	0	0	0
072319	16:47:59	16:57:06	546651	5.0.10.0	5_exp_noRW	80	Rpleas_acq	CS_A	ZHHZ	YFFY	CPPC	DXXD	JQQJ	LWWL	sonnig	gütig	vertrauen	küssen	genießen	träumen	sterben	gierig	versagen	krank	gemein	töten	47pct	acq_USunple_CSunple2_noRW	acq23456_noRW	3	41	0	0	300	300	438	46	0	1	1	blank2r.bmp	0	1	+	0	1	blank2r.bmp	252	1	DXXD	306	3	töten	559	0	0	0	0	0	0	0	0	0	0	0	0	0	0	0	0	0	0	0	0	0	0	0	0	0	0	0	0	0	0	0	0	0	0	0	0	0	0	0
072319	16:47:59	16:57:08	548370	5.0.10.0	5_exp_noRW	80	Rpleas_acq	CS_A	ZHHZ	YFFY	CPPC	DXXD	JQQJ	LWWL	sonnig	gütig	vertrauen	küssen	genießen	träumen	sterben	gierig	versagen	krank	gemein	töten	53pct	acq_USunple_CSunple1_noRW	acq23456_noRW	3	42	0	0	300	300	541	46	0	1	1	blank2r.bmp	0	1	+	0	1	blank2r.bmp	252	1	CPPC	306	3	versagen	559	0	0	0	0	0	0	0	0	0	0	0	0	0	0	0	0	0	0	0	0	0	0	0	0	0	0	0	0	0	0	0	0	0	0	0	0	0	0	0
072319	16:47:59	16:57:10	550049	5.0.10.0	5_exp_noRW	80	Rpleas_acq	CS_A	ZHHZ	YFFY	CPPC	DXXD	JQQJ	LWWL	sonnig	gütig	vertrauen	küssen	genießen	träumen	sterben	gierig	versagen	krank	gemein	töten	53pct	acq_USpleas_CSpleas2_noRW	acq23456_noRW	3	43	0	0	300	300	502	50	0	1	1	blank2r.bmp	0	1	+	0	1	blank2r.bmp	252	1	YFFY	306	3	träumen	559	0	0	0	0	0	0	0	0	0	0	0	0	0	0	0	0	0	0	0	0	0	0	0	0	0	0	0	0	0	0	0	0	0	0	0	0	0	0	0
072319	16:47:59	16:57:12	552062	5.0.10.0	5_exp_noRW	80	Rpleas_acq	CS_A	ZHHZ	YFFY	CPPC	DXXD	JQQJ	LWWL	sonnig	gütig	vertrauen	küssen	genießen	träumen	sterben	gierig	versagen	krank	gemein	töten	53pct	acq_USunple_CSunple1_noRW	acq23456_noRW	3	44	0	0	300	300	827	46	0	1	1	blank2r.bmp	0	1	+	0	1	blank2r.bmp	252	1	CPPC	306	2	gierig	559	0	0	0	0	0	0	0	0	0	0	0	0	0	0	0	0	0	0	0	0	0	0	0	0	0	0	0	0	0	0	0	0	0	0	0	0	0	0	0
072319	16:47:59	16:57:13	553901	5.0.10.0	5_exp_noRW	80	Rpleas_acq	CS_A	ZHHZ	YFFY	CPPC	DXXD	JQQJ	LWWL	sonnig	gütig	vertrauen	küssen	genießen	träumen	sterben	gierig	versagen	krank	gemein	töten	47pct	acq_USpleas_CSpleas1_noRW	acq23456_noRW	3	45	0	0	300	300	675	50	0	1	1	blank2r.bmp	0	1	+	0	1	blank2r.bmp	252	1	ZHHZ	306	2	gütig	559	0	0	0	0	0	0	0	0	0	0	0	0	0	0	0	0	0	0	0	0	0	0	0	0	0	0	0	0	0	0	0	0	0	0	0	0	0	0	0
072319	16:47:59	16:57:15	555580	5.0.10.0	5_exp_noRW	80	Rpleas_acq	CS_A	ZHHZ	YFFY	CPPC	DXXD	JQQJ	LWWL	sonnig	gütig	vertrauen	küssen	genießen	träumen	sterben	gierig	versagen	krank	gemein	töten	47pct	acq_USunple_CSunple2_noRW	acq23456_noRW	3	46	0	0	300	300	507	46	0	1	1	blank2r.bmp	0	1	+	0	1	blank2r.bmp	252	1	DXXD	306	1	krank	559	0	0	0	0	0	0	0	0	0	0	0	0	0	0	0	0	0	0	0	0	0	0	0	0	0	0	0	0	0	0	0	0	0	0	0	0	0	0	0
072319	16:47:59	16:57:17	557380	5.0.10.0	5_exp_noRW	80	Rpleas_acq	CS_A	ZHHZ	YFFY	CPPC	DXXD	JQQJ	LWWL	sonnig	gütig	vertrauen	küssen	genießen	träumen	sterben	gierig	versagen	krank	gemein	töten	53pct	acq_USunple_CSunple2_noRW	acq23456_noRW	3	47	0	0	300	300	633	46	0	1	1	blank2r.bmp	0	1	+	0	1	blank2r.bmp	252	1	DXXD	306	2	gemein	559	0	0	0	0	0	0	0	0	0	0	0	0	0	0	0	0	0	0	0	0	0	0	0	0	0	0	0	0	0	0	0	0	0	0	0	0	0	0	0
072319	16:47:59	16:57:19	559126	5.0.10.0	5_exp_noRW	80	Rpleas_acq	CS_A	ZHHZ	YFFY	CPPC	DXXD	JQQJ	LWWL	sonnig	gütig	vertrauen	küssen	genießen	träumen	sterben	gierig	versagen	krank	gemein	töten	53pct	acq_USpleas_CSpleas1_noRW	acq23456_noRW	3	48	0	0	300	300	582	50	0	1	1	blank2r.bmp	0	1	+	0	1	blank2r.bmp	252	1	ZHHZ	306	3	vertrauen	559	0	0	0	0	0	0	0	0	0	0	0	0	0	0	0	0	0	0	0	0	0	0	0	0	0	0	0	0	0	0	0	0	0	0	0	0	0	0	0
072319	16:47:59	16:57:20	560885	5.0.10.0	5_exp_noRW	80	Rpleas_acq	CS_A	ZHHZ	YFFY	CPPC	DXXD	JQQJ	LWWL	sonnig	gütig	vertrauen	küssen	genießen	träumen	sterben	gierig	versagen	krank	gemein	töten	47pct	acq_USunple_CSunple1_noRW	acq23456_noRW	3	49	0	0	300	300	582	46	0	1	1	blank2r.bmp	0	1	+	0	1	blank2r.bmp	252	1	CPPC	306	2	gierig	559	0	0	0	0	0	0	0	0	0	0	0	0	0	0	0	0	0	0	0	0	0	0	0	0	0	0	0	0	0	0	0	0	0	0	0	0	0	0	0
072319	16:47:59	16:57:22	562817	5.0.10.0	5_exp_noRW	80	Rpleas_acq	CS_A	ZHHZ	YFFY	CPPC	DXXD	JQQJ	LWWL	sonnig	gütig	vertrauen	küssen	genießen	träumen	sterben	gierig	versagen	krank	gemein	töten	53pct	acq_USpleas_CSpleas2_noRW	acq23456_noRW	3	50	0	0	300	300	750	50	0	1	1	blank2r.bmp	0	1	+	0	1	blank2r.bmp	252	1	YFFY	306	2	genießen	559	0	0	0	0	0	0	0	0	0	0	0	0	0	0	0	0	0	0	0	0	0	0	0	0	0	0	0	0	0	0	0	0	0	0	0	0	0	0	0
072319	16:47:59	16:57:24	564443	5.0.10.0	5_exp_noRW	80	Rpleas_acq	CS_A	ZHHZ	YFFY	CPPC	DXXD	JQQJ	LWWL	sonnig	gütig	vertrauen	küssen	genießen	träumen	sterben	gierig	versagen	krank	gemein	töten	53pct	acq_USpleas_CSunple2_noRW	acq23456_noRW	3	51	0	0	300	300	443	50	0	1	1	blank2r.bmp	0	1	+	0	1	blank2r.bmp	252	1	DXXD	306	3	träumen	559	0	0	0	0	0	0	0	0	0	0	0	0	0	0	0	0	0	0	0	0	0	0	0	0	0	0	0	0	0	0	0	0	0	0	0	0	0	0	0
072319	16:47:59	16:57:26	566136	5.0.10.0	5_exp_noRW	80	Rpleas_acq	CS_A	ZHHZ	YFFY	CPPC	DXXD	JQQJ	LWWL	sonnig	gütig	vertrauen	küssen	genießen	träumen	sterben	gierig	versagen	krank	gemein	töten	53pct	acq_USpleas_CSpleas2_noRW	acq23456_noRW	3	52	0	0	300	300	506	50	0	1	1	blank2r.bmp	0	1	+	0	1	blank2r.bmp	252	1	YFFY	306	3	träumen	559	0	0	0	0	0	0	0	0	0	0	0	0	0	0	0	0	0	0	0	0	0	0	0	0	0	0	0	0	0	0	0	0	0	0	0	0	0	0	0
072319	16:47:59	16:57:27	568015	5.0.10.0	5_exp_noRW	80	Rpleas_acq	CS_A	ZHHZ	YFFY	CPPC	DXXD	JQQJ	LWWL	sonnig	gütig	vertrauen	küssen	genießen	träumen	sterben	gierig	versagen	krank	gemein	töten	53pct	acq_USunple_CSpleas1_noRW	acq23456_noRW	3	53	0	0	300	300	710	46	0	1	1	blank2r.bmp	0	1	+	0	1	blank2r.bmp	252	1	ZHHZ	306	3	versagen	559	0	0	0	0	0	0	0	0	0	0	0	0	0	0	0	0	0	0	0	0	0	0	0	0	0	0	0	0	0	0	0	0	0	0	0	0	0	0	0
072319	16:47:59	16:57:29	569748	5.0.10.0	5_exp_noRW	80	Rpleas_acq	CS_A	ZHHZ	YFFY	CPPC	DXXD	JQQJ	LWWL	sonnig	gütig	vertrauen	küssen	genießen	träumen	sterben	gierig	versagen	krank	gemein	töten	47pct	acq_USpleas_CSpleas1_noRW	acq23456_noRW	3	54	0	0	300	300	557	50	0	1	1	blank2r.bmp	0	1	+	0	1	blank2r.bmp	252	1	ZHHZ	306	1	sonnig	559	0	0	0	0	0	0	0	0	0	0	0	0	0	0	0	0	0	0	0	0	0	0	0	0	0	0	0	0	0	0	0	0	0	0	0	0	0	0	0
072319	16:47:59	16:57:31	571587	5.0.10.0	5_exp_noRW	80	Rpleas_acq	CS_A	ZHHZ	YFFY	CPPC	DXXD	JQQJ	LWWL	sonnig	gütig	vertrauen	küssen	genießen	träumen	sterben	gierig	versagen	krank	gemein	töten	47pct	acq_USunple_CSunple2_noRW	acq23456_noRW	3	55	0	0	300	300	444	50	0	0	1	blank2r.bmp	0	1	+	0	1	blank2r.bmp	252	1	DXXD	306	3	töten	559	1	FEHLER	1039	0	0	0	0	0	0	0	0	0	0	0	0	0	0	0	0	0	0	0	0	0	0	0	0	0	0	0	0	0	0	0	0	0	0	0	0
072319	16:47:59	16:57:33	573106	5.0.10.0	5_exp_noRW	80	Rpleas_acq	CS_A	ZHHZ	YFFY	CPPC	DXXD	JQQJ	LWWL	sonnig	gütig	vertrauen	küssen	genießen	träumen	sterben	gierig	versagen	krank	gemein	töten	53pct	acq_USunple_CSunple1_noRW	acq23456_noRW	3	56	0	0	300	300	567	46	0	1	1	blank2r.bmp	0	1	+	0	1	blank2r.bmp	252	1	CPPC	306	3	versagen	559	0	0	0	0	0	0	0	0	0	0	0	0	0	0	0	0	0	0	0	0	0	0	0	0	0	0	0	0	0	0	0	0	0	0	0	0	0	0	0
072319	16:47:59	16:57:34	574812	5.0.10.0	5_exp_noRW	80	Rpleas_acq	CS_A	ZHHZ	YFFY	CPPC	DXXD	JQQJ	LWWL	sonnig	gütig	vertrauen	küssen	genießen	träumen	sterben	gierig	versagen	krank	gemein	töten	53pct	acq_USpleas_CSpleas2_noRW	acq23456_noRW	3	57	0	0	300	300	536	50	0	1	1	blank2r.bmp	0	1	+	0	1	blank2r.bmp	252	1	YFFY	306	1	küssen	559	0	0	0	0	0	0	0	0	0	0	0	0	0	0	0	0	0	0	0	0	0	0	0	0	0	0	0	0	0	0	0	0	0	0	0	0	0	0	0
072319	16:47:59	16:57:36	576438	5.0.10.0	5_exp_noRW	80	Rpleas_acq	CS_A	ZHHZ	YFFY	CPPC	DXXD	JQQJ	LWWL	sonnig	gütig	vertrauen	küssen	genießen	träumen	sterben	gierig	versagen	krank	gemein	töten	53pct	acq_USunple_CSpleas2_noRW	acq23456_noRW	3	58	0	0	300	300	456	46	0	1	1	blank2r.bmp	0	1	+	0	1	blank2r.bmp	252	1	YFFY	306	1	krank	559	0	0	0	0	0	0	0	0	0	0	0	0	0	0	0	0	0	0	0	0	0	0	0	0	0	0	0	0	0	0	0	0	0	0	0	0	0	0	0
072319	16:47:59	16:57:38	578078	5.0.10.0	5_exp_noRW	80	Rpleas_acq	CS_A	ZHHZ	YFFY	CPPC	DXXD	JQQJ	LWWL	sonnig	gütig	vertrauen	küssen	genießen	träumen	sterben	gierig	versagen	krank	gemein	töten	47pct	acq_USpleas_CSpleas1_noRW	acq23456_noRW	3	59	0	0	300	300	464	50	0	1	1	blank2r.bmp	0	1	+	0	1	blank2r.bmp	252	1	ZHHZ	306	2	gütig	559	0	0	0	0	0	0	0	0	0	0	0	0	0	0	0	0	0	0	0	0	0	0	0	0	0	0	0	0	0	0	0	0	0	0	0	0	0	0	0
072319	16:47:59	16:57:39	579744	5.0.10.0	5_exp_noRW	80	Rpleas_acq	CS_A	ZHHZ	YFFY	CPPC	DXXD	JQQJ	LWWL	sonnig	gütig	vertrauen	küssen	genießen	träumen	sterben	gierig	versagen	krank	gemein	töten	47pct	acq_USpleas_CSunple1_noRW	acq23456_noRW	3	60	0	0	300	300	487	50	0	1	1	blank2r.bmp	0	1	+	0	1	blank2r.bmp	252	1	CPPC	306	1	sonnig	559	0	0	0	0	0	0	0	0	0	0	0	0	0	0	0	0	0	0	0	0	0	0	0	0	0	0	0	0	0	0	0	0	0	0	0	0	0	0	0
072319	16:47:59	16:57:41	581396	5.0.10.0	5_exp_noRW	80	Rpleas_acq	CS_A	ZHHZ	YFFY	CPPC	DXXD	JQQJ	LWWL	sonnig	gütig	vertrauen	küssen	genießen	träumen	sterben	gierig	versagen	krank	gemein	töten	53pct	acq_USpleas_CSunple2_noRW	acq23456_noRW	3	61	0	0	300	300	475	50	0	1	1	blank2r.bmp	0	1	+	0	1	blank2r.bmp	252	1	DXXD	306	1	küssen	559	0	0	0	0	0	0	0	0	0	0	0	0	0	0	0	0	0	0	0	0	0	0	0	0	0	0	0	0	0	0	0	0	0	0	0	0	0	0	0
072319	16:47:59	16:57:43	583422	5.0.10.0	5_exp_noRW	80	Rpleas_acq	CS_A	ZHHZ	YFFY	CPPC	DXXD	JQQJ	LWWL	sonnig	gütig	vertrauen	küssen	genießen	träumen	sterben	gierig	versagen	krank	gemein	töten	53pct	acq_USpleas_CSpleas2_noRW	acq23456_noRW	3	62	0	0	300	300	842	50	0	1	1	blank2r.bmp	0	1	+	0	1	blank2r.bmp	252	1	YFFY	306	2	genießen	559	0	0	0	0	0	0	0	0	0	0	0	0	0	0	0	0	0	0	0	0	0	0	0	0	0	0	0	0	0	0	0	0	0	0	0	0	0	0	0
072319	16:47:59	16:57:45	585195	5.0.10.0	5_exp_noRW	80	Rpleas_acq	CS_A	ZHHZ	YFFY	CPPC	DXXD	JQQJ	LWWL	sonnig	gütig	vertrauen	küssen	genießen	träumen	sterben	gierig	versagen	krank	gemein	töten	53pct	acq_USunple_CSunple2_noRW	acq23456_noRW	3	63	0	0	300	300	609	46	0	1	1	blank2r.bmp	0	1	+	0	1	blank2r.bmp	252	1	DXXD	306	1	krank	559	0	0	0	0	0	0	0	0	0	0	0	0	0	0	0	0	0	0	0	0	0	0	0	0	0	0	0	0	0	0	0	0	0	0	0	0	0	0	0
072319	16:47:59	16:57:47	587047	5.0.10.0	5_exp_noRW	80	Rpleas_acq	CS_A	ZHHZ	YFFY	CPPC	DXXD	JQQJ	LWWL	sonnig	gütig	vertrauen	küssen	genießen	träumen	sterben	gierig	versagen	krank	gemein	töten	53pct	acq_USpleas_CSpleas1_noRW	acq23456_noRW	3	64	0	0	300	300	690	50	0	1	1	blank2r.bmp	0	1	+	0	1	blank2r.bmp	252	1	ZHHZ	306	3	vertrauen	559	0	0	0	0	0	0	0	0	0	0	0	0	0	0	0	0	0	0	0	0	0	0	0	0	0	0	0	0	0	0	0	0	0	0	0	0	0	0	0
072319	16:47:59	16:57:49	589100	5.0.10.0	5_exp_noRW	80	Rpleas_acq	CS_A	ZHHZ	YFFY	CPPC	DXXD	JQQJ	LWWL	sonnig	gütig	vertrauen	küssen	genießen	träumen	sterben	gierig	versagen	krank	gemein	töten	47pct	acq_USunple_CSpleas1_noRW	acq23456_noRW	3	65	0	0	300	300	660	50	0	0	1	blank2r.bmp	0	1	+	0	1	blank2r.bmp	252	1	ZHHZ	306	2	gierig	559	1	FEHLER	1252	0	0	0	0	0	0	0	0	0	0	0	0	0	0	0	0	0	0	0	0	0	0	0	0	0	0	0	0	0	0	0	0	0	0	0	0
072319	16:47:59	16:57:50	590739	5.0.10.0	5_exp_noRW	80	Rpleas_acq	CS_A	ZHHZ	YFFY	CPPC	DXXD	JQQJ	LWWL	sonnig	gütig	vertrauen	küssen	genießen	träumen	sterben	gierig	versagen	krank	gemein	töten	47pct	acq_USpleas_CSunple1_noRW	acq23456_noRW	3	66	0	0	300	300	665	50	0	1	1	blank2r.bmp	0	1	+	0	1	blank2r.bmp	252	1	CPPC	306	2	gütig	559	0	0	0	0	0	0	0	0	0	0	0	0	0	0	0	0	0	0	0	0	0	0	0	0	0	0	0	0	0	0	0	0	0	0	0	0	0	0	0
072319	16:47:59	16:57:52	592991	5.0.10.0	5_exp_noRW	80	Rpleas_acq	CS_A	ZHHZ	YFFY	CPPC	DXXD	JQQJ	LWWL	sonnig	gütig	vertrauen	küssen	genießen	träumen	sterben	gierig	versagen	krank	gemein	töten	53pct	acq_USunple_CSunple1_noRW	acq23456_noRW	3	67	0	0	300	300	1079	46	0	1	1	blank2r.bmp	0	1	+	0	1	blank2r.bmp	252	1	CPPC	306	1	sterben	559	0	0	0	0	0	0	0	0	0	0	0	0	0	0	0	0	0	0	0	0	0	0	0	0	0	0	0	0	0	0	0	0	0	0	0	0	0	0	0
072319	16:47:59	16:57:54	594684	5.0.10.0	5_exp_noRW	80	Rpleas_acq	CS_A	ZHHZ	YFFY	CPPC	DXXD	JQQJ	LWWL	sonnig	gütig	vertrauen	küssen	genießen	träumen	sterben	gierig	versagen	krank	gemein	töten	47pct	acq_USpleas_CSpleas2_noRW	acq23456_noRW	3	68	0	0	300	300	514	50	0	1	1	blank2r.bmp	0	1	+	0	1	blank2r.bmp	252	1	YFFY	306	3	träumen	559	0	0	0	0	0	0	0	0	0	0	0	0	0	0	0	0	0	0	0	0	0	0	0	0	0	0	0	0	0	0	0	0	0	0	0	0	0	0	0
072319	16:47:59	16:57:56	596790	5.0.10.0	5_exp_noRW	80	Rpleas_acq	CS_A	ZHHZ	YFFY	CPPC	DXXD	JQQJ	LWWL	sonnig	gütig	vertrauen	küssen	genießen	träumen	sterben	gierig	versagen	krank	gemein	töten	53pct	acq_USpleas_CSpleas1_noRW	acq23456_noRW	3	69	0	0	300	300	923	50	0	1	1	blank2r.bmp	0	1	+	0	1	blank2r.bmp	252	1	ZHHZ	306	3	vertrauen	559	0	0	0	0	0	0	0	0	0	0	0	0	0	0	0	0	0	0	0	0	0	0	0	0	0	0	0	0	0	0	0	0	0	0	0	0	0	0	0
072319	16:47:59	16:57:58	598442	5.0.10.0	5_exp_noRW	80	Rpleas_acq	CS_A	ZHHZ	YFFY	CPPC	DXXD	JQQJ	LWWL	sonnig	gütig	vertrauen	küssen	genießen	träumen	sterben	gierig	versagen	krank	gemein	töten	53pct	acq_USunple_CSunple2_noRW	acq23456_noRW	3	70	0	0	300	300	488	46	0	1	1	blank2r.bmp	0	1	+	0	1	blank2r.bmp	252	1	DXXD	306	1	krank	559	0	0	0	0	0	0	0	0	0	0	0	0	0	0	0	0	0	0	0	0	0	0	0	0	0	0	0	0	0	0	0	0	0	0	0	0	0	0	0
072319	16:47:59	16:58:00	600082	5.0.10.0	5_exp_noRW	80	Rpleas_acq	CS_A	ZHHZ	YFFY	CPPC	DXXD	JQQJ	LWWL	sonnig	gütig	vertrauen	küssen	genießen	träumen	sterben	gierig	versagen	krank	gemein	töten	47pct	acq_USunple_CSunple2_noRW	acq23456_noRW	3	71	0	0	300	300	453	46	0	1	1	blank2r.bmp	0	1	+	0	1	blank2r.bmp	252	1	DXXD	306	3	töten	559	0	0	0	0	0	0	0	0	0	0	0	0	0	0	0	0	0	0	0	0	0	0	0	0	0	0	0	0	0	0	0	0	0	0	0	0	0	0	0
072319	16:47:59	16:58:01	601841	5.0.10.0	5_exp_noRW	80	Rpleas_acq	CS_A	ZHHZ	YFFY	CPPC	DXXD	JQQJ	LWWL	sonnig	gütig	vertrauen	küssen	genießen	träumen	sterben	gierig	versagen	krank	gemein	töten	53pct	acq_USunple_CSunple2_noRW	acq23456_noRW	3	72	0	0	300	300	594	46	0	1	1	blank2r.bmp	0	1	+	0	1	blank2r.bmp	252	1	DXXD	306	2	gemein	559	0	0	0	0	0	0	0	0	0	0	0	0	0	0	0	0	0	0	0	0	0	0	0	0	0	0	0	0	0	0	0	0	0	0	0	0	0	0	0
072319	16:47:59	16:58:03	603720	5.0.10.0	5_exp_noRW	80	Rpleas_acq	CS_A	ZHHZ	YFFY	CPPC	DXXD	JQQJ	LWWL	sonnig	gütig	vertrauen	küssen	genießen	träumen	sterben	gierig	versagen	krank	gemein	töten	53pct	acq_USunple_CSunple1_noRW	acq23456_noRW	3	73	0	0	300	300	716	46	0	1	1	blank2r.bmp	0	1	+	0	1	blank2r.bmp	252	1	CPPC	306	3	versagen	559	0	0	0	0	0	0	0	0	0	0	0	0	0	0	0	0	0	0	0	0	0	0	0	0	0	0	0	0	0	0	0	0	0	0	0	0	0	0	0
072319	16:47:59	16:58:05	605493	5.0.10.0	5_exp_noRW	80	Rpleas_acq	CS_A	ZHHZ	YFFY	CPPC	DXXD	JQQJ	LWWL	sonnig	gütig	vertrauen	küssen	genießen	träumen	sterben	gierig	versagen	krank	gemein	töten	47pct	acq_USpleas_CSpleas1_noRW	acq23456_noRW	3	74	0	0	300	300	585	50	0	1	1	blank2r.bmp	0	1	+	0	1	blank2r.bmp	252	1	ZHHZ	306	1	sonnig	559	0	0	0	0	0	0	0	0	0	0	0	0	0	0	0	0	0	0	0	0	0	0	0	0	0	0	0	0	0	0	0	0	0	0	0	0	0	0	0
072319	16:47:59	16:58:07	607225	5.0.10.0	5_exp_noRW	80	Rpleas_acq	CS_A	ZHHZ	YFFY	CPPC	DXXD	JQQJ	LWWL	sonnig	gütig	vertrauen	küssen	genießen	träumen	sterben	gierig	versagen	krank	gemein	töten	53pct	acq_USunple_CSunple1_noRW	acq23456_noRW	3	75	0	0	300	300	559	46	0	1	1	blank2r.bmp	0	1	+	0	1	blank2r.bmp	252	1	CPPC	306	1	sterben	559	0	0	0	0	0	0	0	0	0	0	0	0	0	0	0	0	0	0	0	0	0	0	0	0	0	0	0	0	0	0	0	0	0	0	0	0	0	0	0
072319	16:47:59	16:58:08	608918	5.0.10.0	5_exp_noRW	80	Rpleas_acq	CS_A	ZHHZ	YFFY	CPPC	DXXD	JQQJ	LWWL	sonnig	gütig	vertrauen	küssen	genießen	träumen	sterben	gierig	versagen	krank	gemein	töten	47pct	acq_USpleas_CSpleas2_noRW	acq23456_noRW	3	76	0	0	300	300	528	50	0	1	1	blank2r.bmp	0	1	+	0	1	blank2r.bmp	252	1	YFFY	306	1	küssen	559	0	0	0	0	0	0	0	0	0	0	0	0	0	0	0	0	0	0	0	0	0	0	0	0	0	0	0	0	0	0	0	0	0	0	0	0	0	0	0
072319	16:47:59	16:58:11	611077	5.0.10.0	5_exp_noRW	80	Rpleas_acq	CS_A	ZHHZ	YFFY	CPPC	DXXD	JQQJ	LWWL	sonnig	gütig	vertrauen	küssen	genießen	träumen	sterben	gierig	versagen	krank	gemein	töten	53pct	acq_USpleas_CSpleas1_noRW	acq23456_noRW	3	77	0	0	300	300	977	50	0	1	1	blank2r.bmp	0	1	+	0	1	blank2r.bmp	252	1	ZHHZ	306	2	gütig	559	0	0	0	0	0	0	0	0	0	0	0	0	0	0	0	0	0	0	0	0	0	0	0	0	0	0	0	0	0	0	0	0	0	0	0	0	0	0	0
072319	16:47:59	16:58:12	612783	5.0.10.0	5_exp_noRW	80	Rpleas_acq	CS_A	ZHHZ	YFFY	CPPC	DXXD	JQQJ	LWWL	sonnig	gütig	vertrauen	küssen	genießen	träumen	sterben	gierig	versagen	krank	gemein	töten	47pct	acq_USpleas_CSpleas2_noRW	acq23456_noRW	3	78	0	0	300	300	536	50	0	1	1	blank2r.bmp	0	1	+	0	1	blank2r.bmp	252	1	YFFY	306	2	genießen	559	0	0	0	0	0	0	0	0	0	0	0	0	0	0	0	0	0	0	0	0	0	0	0	0	0	0	0	0	0	0	0	0	0	0	0	0	0	0	0
072319	16:47:59	16:58:14	614569	5.0.10.0	5_exp_noRW	80	Rpleas_acq	CS_A	ZHHZ	YFFY	CPPC	DXXD	JQQJ	LWWL	sonnig	gütig	vertrauen	küssen	genießen	träumen	sterben	gierig	versagen	krank	gemein	töten	47pct	acq_USunple_CSpleas2_noRW	acq23456_noRW	3	79	0	0	300	300	609	46	0	1	1	blank2r.bmp	0	1	+	0	1	blank2r.bmp	252	1	YFFY	306	3	töten	559	0	0	0	0	0	0	0	0	0	0	0	0	0	0	0	0	0	0	0	0	0	0	0	0	0	0	0	0	0	0	0	0	0	0	0	0	0	0	0
072319	16:47:59	16:58:16	616635	5.0.10.0	5_exp_noRW	80	Rpleas_acq	CS_A	ZHHZ	YFFY	CPPC	DXXD	JQQJ	LWWL	sonnig	gütig	vertrauen	küssen	genießen	träumen	sterben	gierig	versagen	krank	gemein	töten	47pct	acq_USunple_CSunple1_noRW	acq23456_noRW	3	80	0	0	300	300	892	46	0	1	1	blank2r.bmp	0	1	+	0	1	blank2r.bmp	252	1	CPPC	306	2	gierig	559	0	0	0	0	0	0	0	0	0	0	0	0	0	0	0	0	0	0	0	0	0	0	0	0	0	0	0	0	0	0	0	0	0	0	0	0	0	0	0
072319	16:47:59	16:58:35	635240	5.0.10.0	5_exp_noRW	80	Rpleas_acq	CS_A	ZHHZ	YFFY	CPPC	DXXD	JQQJ	LWWL	sonnig	gütig	vertrauen	küssen	genießen	träumen	sterben	gierig	versagen	krank	gemein	töten	53pct	acq_USpleas_CSpleas2_noRW	acq23456_noRW	4	1	0	0	300	300	615	50	0	1	1	blank2r.bmp	0	1	+	0	1	blank2r.bmp	252	1	YFFY	306	1	küssen	559	0	0	0	0	0	0	0	0	0	0	0	0	0	0	0	0	0	0	0	0	0	0	0	0	0	0	0	0	0	0	0	0	0	0	0	0	0	0	0
