date	time	script.currenttime	script.elapsedtime	build	script.currentexpt	subject	expressions.LRpleas_acq	expressions.conditionCS_A	expressions.CSpleas_1	expressions.CSpleas_2	expressions.CSunple_1	expressions.CSunple_2	expressions.distractor_1	expressions.distractor_2	expressions.US_pleas1	expressions.US_pleas2	expressions.US_pleas3	expressions.US_pleas4	expressions.US_pleas5	expressions.US_pleas6	expressions.US_unple1	expressions.US_unple2	expressions.US_unple3	expressions.US_unple4	expressions.US_unple5	expressions.US_unple6	counter.positions_noRW	trialcode	blockcode	blocknum	trialnum	windowcenter	inwindow	pretrialpause	posttrialpause	latency	response	expressions.correctedscore	correct	stimulusnumber1	stimulusitem1	stimulusonset1	stimulusnumber2	stimulusitem2	stimulusonset2	stimulusnumber3	stimulusitem3	stimulusonset3	stimulusnumber4	stimulusitem4	stimulusonset4	stimulusnumber5	stimulusitem5	stimulusonset5	stimulusnumber6	stimulusitem6	stimulusonset6	stimulusnumber7	stimulusitem7	stimulusonset7	stimulusnumber8	stimulusitem8	stimulusonset8	stimulusnumber9	stimulusitem9	stimulusonset9	stimulusnumber10	stimulusitem10	stimulusonset10	stimulusnumber11	stimulusitem11	stimulusonset11	stimulusnumber12	stimulusitem12	stimulusonset12	stimulusnumber13	stimulusitem13	stimulusonset13	stimulusnumber14	stimulusitem14	stimulusonset14	stimulusnumber15	stimulusitem15	stimulusonset15	stimulusnumber16	stimulusitem16	stimulusonset16	stimulusnumber17	stimulusitem17	stimulusonset17	stimulusnumber18	stimulusitem18	stimulusonset18
070919	12:14:42	12:16:18	95307	5.0.10.0	5_exp_RW	29	Rpleas_acq	CS_B	GWWG	VKKV	MQQM	BZZB	YDDY	JXXJ	treu	fair	ehrlich	spielen	schön	retten	tot	faul	eitel	strafen	schlecht	rächen	1	acq_USunple_CSunple2_RW	acq1_RW	1	1	0	0	300	300	9373	46	0	1	1	blank2r.bmp	0	1	+	0	1	blank2r.bmp	492	1	BZZB	492	1	blank2r.bmp	572	2	schlecht	866	0	0	0	0	0	0	0	0	0	0	0	0	0	0	0	0	0	0	0	0	0	0	0	0	0	0	0	0	0	0	0	0	0	0	0	0
070919	12:14:42	12:16:20	97506	5.0.10.0	5_exp_RW	29	Rpleas_acq	CS_B	GWWG	VKKV	MQQM	BZZB	YDDY	JXXJ	treu	fair	ehrlich	spielen	schön	retten	tot	faul	eitel	strafen	schlecht	rächen	1	acq_USunple_CSunple2_RW	acq1_RW	1	2	0	0	300	300	709	46	0	1	1	blank2r.bmp	0	1	+	0	1	blank2r.bmp	492	1	BZZB	492	1	blank2r.bmp	572	1	strafen	866	0	0	0	0	0	0	0	0	0	0	0	0	0	0	0	0	0	0	0	0	0	0	0	0	0	0	0	0	0	0	0	0	0	0	0	0
070919	12:14:42	12:16:22	99452	5.0.10.0	5_exp_RW	29	Rpleas_acq	CS_B	GWWG	VKKV	MQQM	BZZB	YDDY	JXXJ	treu	fair	ehrlich	spielen	schön	retten	tot	faul	eitel	strafen	schlecht	rächen	1	acq_USunple_CSunple1_RW	acq1_RW	1	3	0	0	300	300	476	46	0	1	1	blank2r.bmp	0	1	+	0	1	blank2r.bmp	492	1	MQQM	492	1	blank2r.bmp	572	1	tot	866	0	0	0	0	0	0	0	0	0	0	0	0	0	0	0	0	0	0	0	0	0	0	0	0	0	0	0	0	0	0	0	0	0	0	0	0
070919	12:14:42	12:16:24	101384	5.0.10.0	5_exp_RW	29	Rpleas_acq	CS_B	GWWG	VKKV	MQQM	BZZB	YDDY	JXXJ	treu	fair	ehrlich	spielen	schön	retten	tot	faul	eitel	strafen	schlecht	rächen	1	acq_USunple_CSunple1_RW	acq1_RW	1	4	0	0	300	300	446	46	0	1	1	blank2r.bmp	0	1	+	0	1	blank2r.bmp	492	1	MQQM	492	1	blank2r.bmp	572	2	faul	866	0	0	0	0	0	0	0	0	0	0	0	0	0	0	0	0	0	0	0	0	0	0	0	0	0	0	0	0	0	0	0	0	0	0	0	0
070919	12:14:42	12:16:26	103357	5.0.10.0	5_exp_RW	29	Rpleas_acq	CS_B	GWWG	VKKV	MQQM	BZZB	YDDY	JXXJ	treu	fair	ehrlich	spielen	schön	retten	tot	faul	eitel	strafen	schlecht	rächen	1	acq_USpleas_CSpleas2_RW	acq1_RW	1	5	0	0	300	300	498	50	0	1	1	blank2r.bmp	0	1	+	0	1	blank2r.bmp	492	1	VKKV	492	1	blank2r.bmp	572	2	schön	866	0	0	0	0	0	0	0	0	0	0	0	0	0	0	0	0	0	0	0	0	0	0	0	0	0	0	0	0	0	0	0	0	0	0	0	0
070919	12:14:42	12:16:28	105396	5.0.10.0	5_exp_RW	29	Rpleas_acq	CS_B	GWWG	VKKV	MQQM	BZZB	YDDY	JXXJ	treu	fair	ehrlich	spielen	schön	retten	tot	faul	eitel	strafen	schlecht	rächen	1	acq_USunple_CSunple2_RW	acq1_RW	1	6	0	0	300	300	548	46	0	1	1	blank2r.bmp	0	1	+	0	1	blank2r.bmp	492	1	BZZB	492	1	blank2r.bmp	572	3	rächen	866	0	0	0	0	0	0	0	0	0	0	0	0	0	0	0	0	0	0	0	0	0	0	0	0	0	0	0	0	0	0	0	0	0	0	0	0
070919	12:14:42	12:16:30	107235	5.0.10.0	5_exp_RW	29	Rpleas_acq	CS_B	GWWG	VKKV	MQQM	BZZB	YDDY	JXXJ	treu	fair	ehrlich	spielen	schön	retten	tot	faul	eitel	strafen	schlecht	rächen	1	acq_USpleas_CSpleas1_RW	acq1_RW	1	7	0	0	300	300	369	50	0	1	1	blank2r.bmp	0	1	+	0	1	blank2r.bmp	492	1	GWWG	492	1	blank2r.bmp	572	3	ehrlich	866	0	0	0	0	0	0	0	0	0	0	0	0	0	0	0	0	0	0	0	0	0	0	0	0	0	0	0	0	0	0	0	0	0	0	0	0
070919	12:14:42	12:16:32	109381	5.0.10.0	5_exp_RW	29	Rpleas_acq	CS_B	GWWG	VKKV	MQQM	BZZB	YDDY	JXXJ	treu	fair	ehrlich	spielen	schön	retten	tot	faul	eitel	strafen	schlecht	rächen	1	acq_USpleas_CSpleas1_RW	acq1_RW	1	8	0	0	300	300	443	46	0	0	1	blank2r.bmp	0	1	+	0	1	blank2r.bmp	492	1	GWWG	492	1	blank2r.bmp	572	2	fair	866	1	FEHLER	1346	0	0	0	0	0	0	0	0	0	0	0	0	0	0	0	0	0	0	0	0	0	0	0	0	0	0	0	0	0	0	0	0	0
070919	12:14:42	12:16:34	111194	5.0.10.0	5_exp_RW	29	Rpleas_acq	CS_B	GWWG	VKKV	MQQM	BZZB	YDDY	JXXJ	treu	fair	ehrlich	spielen	schön	retten	tot	faul	eitel	strafen	schlecht	rächen	1	acq_USpleas_CSpleas1_RW	acq1_RW	1	9	0	0	300	300	545	50	0	1	1	blank2r.bmp	0	1	+	0	1	blank2r.bmp	492	1	GWWG	492	1	blank2r.bmp	572	1	treu	866	0	0	0	0	0	0	0	0	0	0	0	0	0	0	0	0	0	0	0	0	0	0	0	0	0	0	0	0	0	0	0	0	0	0	0	0
070919	12:14:42	12:16:36	113153	5.0.10.0	5_exp_RW	29	Rpleas_acq	CS_B	GWWG	VKKV	MQQM	BZZB	YDDY	JXXJ	treu	fair	ehrlich	spielen	schön	retten	tot	faul	eitel	strafen	schlecht	rächen	1	acq_USunple_CSunple1_RW	acq1_RW	1	10	0	0	300	300	474	46	0	1	1	blank2r.bmp	0	1	+	0	1	blank2r.bmp	492	1	MQQM	492	1	blank2r.bmp	572	3	eitel	866	0	0	0	0	0	0	0	0	0	0	0	0	0	0	0	0	0	0	0	0	0	0	0	0	0	0	0	0	0	0	0	0	0	0	0	0
070919	12:14:42	12:16:38	115099	5.0.10.0	5_exp_RW	29	Rpleas_acq	CS_B	GWWG	VKKV	MQQM	BZZB	YDDY	JXXJ	treu	fair	ehrlich	spielen	schön	retten	tot	faul	eitel	strafen	schlecht	rächen	1	acq_USpleas_CSpleas2_RW	acq1_RW	1	11	0	0	300	300	459	50	0	1	1	blank2r.bmp	0	1	+	0	1	blank2r.bmp	492	1	VKKV	492	1	blank2r.bmp	572	1	spielen	866	0	0	0	0	0	0	0	0	0	0	0	0	0	0	0	0	0	0	0	0	0	0	0	0	0	0	0	0	0	0	0	0	0	0	0	0
070919	12:14:42	12:16:40	117031	5.0.10.0	5_exp_RW	29	Rpleas_acq	CS_B	GWWG	VKKV	MQQM	BZZB	YDDY	JXXJ	treu	fair	ehrlich	spielen	schön	retten	tot	faul	eitel	strafen	schlecht	rächen	1	acq_USpleas_CSpleas2_RW	acq1_RW	1	12	0	0	300	300	453	50	0	1	1	blank2r.bmp	0	1	+	0	1	blank2r.bmp	492	1	VKKV	492	1	blank2r.bmp	572	3	retten	866	0	0	0	0	0	0	0	0	0	0	0	0	0	0	0	0	0	0	0	0	0	0	0	0	0	0	0	0	0	0	0	0	0	0	0	0
070919	12:14:42	12:16:42	118937	5.0.10.0	5_exp_RW	29	Rpleas_acq	CS_B	GWWG	VKKV	MQQM	BZZB	YDDY	JXXJ	treu	fair	ehrlich	spielen	schön	retten	tot	faul	eitel	strafen	schlecht	rächen	1	acq_USpleas_CSpleas1_RW	acq1_RW	1	13	0	0	300	300	429	50	0	1	1	blank2r.bmp	0	1	+	0	1	blank2r.bmp	492	1	GWWG	492	1	blank2r.bmp	572	1	treu	866	0	0	0	0	0	0	0	0	0	0	0	0	0	0	0	0	0	0	0	0	0	0	0	0	0	0	0	0	0	0	0	0	0	0	0	0
070919	12:14:42	12:16:44	120816	5.0.10.0	5_exp_RW	29	Rpleas_acq	CS_B	GWWG	VKKV	MQQM	BZZB	YDDY	JXXJ	treu	fair	ehrlich	spielen	schön	retten	tot	faul	eitel	strafen	schlecht	rächen	1	acq_USpleas_CSpleas2_RW	acq1_RW	1	14	0	0	300	300	400	50	0	1	1	blank2r.bmp	0	1	+	0	1	blank2r.bmp	492	1	VKKV	492	1	blank2r.bmp	572	2	schön	866	0	0	0	0	0	0	0	0	0	0	0	0	0	0	0	0	0	0	0	0	0	0	0	0	0	0	0	0	0	0	0	0	0	0	0	0
070919	12:14:42	12:16:45	122696	5.0.10.0	5_exp_RW	29	Rpleas_acq	CS_B	GWWG	VKKV	MQQM	BZZB	YDDY	JXXJ	treu	fair	ehrlich	spielen	schön	retten	tot	faul	eitel	strafen	schlecht	rächen	1	acq_USunple_CSunple2_RW	acq1_RW	1	15	0	0	300	300	387	46	0	1	1	blank2r.bmp	0	1	+	0	1	blank2r.bmp	492	1	BZZB	492	1	blank2r.bmp	572	2	schlecht	866	0	0	0	0	0	0	0	0	0	0	0	0	0	0	0	0	0	0	0	0	0	0	0	0	0	0	0	0	0	0	0	0	0	0	0	0
070919	12:14:42	12:16:47	124695	5.0.10.0	5_exp_RW	29	Rpleas_acq	CS_B	GWWG	VKKV	MQQM	BZZB	YDDY	JXXJ	treu	fair	ehrlich	spielen	schön	retten	tot	faul	eitel	strafen	schlecht	rächen	1	acq_USunple_CSunple1_RW	acq1_RW	1	16	0	0	300	300	528	46	0	1	1	blank2r.bmp	0	1	+	0	1	blank2r.bmp	492	1	MQQM	492	1	blank2r.bmp	572	1	tot	866	0	0	0	0	0	0	0	0	0	0	0	0	0	0	0	0	0	0	0	0	0	0	0	0	0	0	0	0	0	0	0	0	0	0	0	0
070919	12:14:42	12:17:30	167264	5.0.10.0	5_exp_RW	29	Rpleas_acq	CS_B	GWWG	VKKV	MQQM	BZZB	YDDY	JXXJ	treu	fair	ehrlich	spielen	schön	retten	tot	faul	eitel	strafen	schlecht	rächen	1	acq_USpleas_CSpleas2_RW	acq2_RW	2	1	480	0	300	300	839	50	0	1	1	blank2r.bmp	0	1	+	0	1	blank2r.bmp	492	1	VKKV	492	1	blank2r.bmp	572	3	retten	866	1	!	1319	1	!	-1	0	0	0	0	0	0	0	0	0	0	0	0	0	0	0	0	0	0	0	0	0	0	0	0	0	0	0	0	0	0
070919	12:14:42	12:17:32	169610	5.0.10.0	5_exp_RW	29	Rpleas_acq	CS_B	GWWG	VKKV	MQQM	BZZB	YDDY	JXXJ	treu	fair	ehrlich	spielen	schön	retten	tot	faul	eitel	strafen	schlecht	rächen	1	acq_USpleas_CSpleas2_RW	acq2_RW	2	2	480	0	300	300	563	50	0	1	1	blank2r.bmp	0	1	+	0	1	blank2r.bmp	492	1	VKKV	492	1	blank2r.bmp	572	1	spielen	866	1	!	1319	1	!	-1	0	0	0	0	0	0	0	0	0	0	0	0	0	0	0	0	0	0	0	0	0	0	0	0	0	0	0	0	0	0
070919	12:14:42	12:17:35	172155	5.0.10.0	5_exp_RW	29	Rpleas_acq	CS_B	GWWG	VKKV	MQQM	BZZB	YDDY	JXXJ	treu	fair	ehrlich	spielen	schön	retten	tot	faul	eitel	strafen	schlecht	rächen	1	acq_USunple_CSunple1_RW	acq2_RW	2	3	480	0	300	300	768	46	0	1	1	blank2r.bmp	0	1	+	0	1	blank2r.bmp	492	1	MQQM	492	1	blank2r.bmp	572	2	faul	866	1	!	1319	1	!	-1	0	0	0	0	0	0	0	0	0	0	0	0	0	0	0	0	0	0	0	0	0	0	0	0	0	0	0	0	0	0
070919	12:14:42	12:17:37	174261	5.0.10.0	5_exp_RW	29	Rpleas_acq	CS_B	GWWG	VKKV	MQQM	BZZB	YDDY	JXXJ	treu	fair	ehrlich	spielen	schön	retten	tot	faul	eitel	strafen	schlecht	rächen	1	acq_USpleas_CSpleas1_RW	acq2_RW	2	4	480	0	300	300	328	50	0	1	1	blank2r.bmp	0	1	+	0	1	blank2r.bmp	492	1	GWWG	492	1	blank2r.bmp	572	3	ehrlich	866	1	!	-1	1	!	-1	0	0	0	0	0	0	0	0	0	0	0	0	0	0	0	0	0	0	0	0	0	0	0	0	0	0	0	0	0	0
070919	12:14:42	12:17:39	176327	5.0.10.0	5_exp_RW	29	Rpleas_acq	CS_B	GWWG	VKKV	MQQM	BZZB	YDDY	JXXJ	treu	fair	ehrlich	spielen	schön	retten	tot	faul	eitel	strafen	schlecht	rächen	1	acq_USpleas_CSpleas2_RW	acq2_RW	2	5	480	0	300	300	281	50	0	1	1	blank2r.bmp	0	1	+	0	1	blank2r.bmp	492	1	VKKV	492	1	blank2r.bmp	572	3	retten	866	1	!	-1	1	!	-1	0	0	0	0	0	0	0	0	0	0	0	0	0	0	0	0	0	0	0	0	0	0	0	0	0	0	0	0	0	0
070919	12:14:42	12:17:41	178686	5.0.10.0	5_exp_RW	29	Rpleas_acq	CS_B	GWWG	VKKV	MQQM	BZZB	YDDY	JXXJ	treu	fair	ehrlich	spielen	schön	retten	tot	faul	eitel	strafen	schlecht	rächen	1	acq_USunple_CSunple2_RW	acq2_RW	2	6	480	0	300	300	577	46	0	1	1	blank2r.bmp	0	1	+	0	1	blank2r.bmp	492	1	BZZB	492	1	blank2r.bmp	572	1	strafen	866	1	!	1319	1	!	-1	0	0	0	0	0	0	0	0	0	0	0	0	0	0	0	0	0	0	0	0	0	0	0	0	0	0	0	0	0	0
070919	12:14:42	12:17:44	181232	5.0.10.0	5_exp_RW	29	Rpleas_acq	CS_B	GWWG	VKKV	MQQM	BZZB	YDDY	JXXJ	treu	fair	ehrlich	spielen	schön	retten	tot	faul	eitel	strafen	schlecht	rächen	1	acq_USpleas_CSpleas2_RW	acq2_RW	2	7	480	0	300	300	763	50	0	1	1	blank2r.bmp	0	1	+	0	1	blank2r.bmp	492	1	VKKV	492	1	blank2r.bmp	572	1	spielen	866	1	!	1319	1	!	-1	0	0	0	0	0	0	0	0	0	0	0	0	0	0	0	0	0	0	0	0	0	0	0	0	0	0	0	0	0	0
070919	12:14:42	12:17:46	183311	5.0.10.0	5_exp_RW	29	Rpleas_acq	CS_B	GWWG	VKKV	MQQM	BZZB	YDDY	JXXJ	treu	fair	ehrlich	spielen	schön	retten	tot	faul	eitel	strafen	schlecht	rächen	1	acq_USpleas_CSpleas2_RW	acq2_RW	2	8	480	0	300	300	295	50	0	1	1	blank2r.bmp	0	1	+	0	1	blank2r.bmp	492	1	VKKV	492	1	blank2r.bmp	572	2	schön	866	1	!	-1	1	!	-1	0	0	0	0	0	0	0	0	0	0	0	0	0	0	0	0	0	0	0	0	0	0	0	0	0	0	0	0	0	0
070919	12:14:42	12:17:48	185776	5.0.10.0	5_exp_RW	29	Rpleas_acq	CS_B	GWWG	VKKV	MQQM	BZZB	YDDY	JXXJ	treu	fair	ehrlich	spielen	schön	retten	tot	faul	eitel	strafen	schlecht	rächen	1	acq_USpleas_CSpleas1_RW	acq2_RW	2	9	480	0	300	300	688	50	0	1	1	blank2r.bmp	0	1	+	0	1	blank2r.bmp	492	1	GWWG	492	1	blank2r.bmp	572	2	fair	866	1	!	1319	1	!	-1	0	0	0	0	0	0	0	0	0	0	0	0	0	0	0	0	0	0	0	0	0	0	0	0	0	0	0	0	0	0
070919	12:14:42	12:17:51	188189	5.0.10.0	5_exp_RW	29	Rpleas_acq	CS_B	GWWG	VKKV	MQQM	BZZB	YDDY	JXXJ	treu	fair	ehrlich	spielen	schön	retten	tot	faul	eitel	strafen	schlecht	rächen	1	acq_USunple_CSunple2_RW	acq2_RW	2	10	480	0	300	300	626	46	0	1	1	blank2r.bmp	0	1	+	0	1	blank2r.bmp	492	1	BZZB	492	1	blank2r.bmp	572	3	rächen	866	1	!	1319	1	!	-1	0	0	0	0	0	0	0	0	0	0	0	0	0	0	0	0	0	0	0	0	0	0	0	0	0	0	0	0	0	0
070919	12:14:42	12:17:53	190748	5.0.10.0	5_exp_RW	29	Rpleas_acq	CS_B	GWWG	VKKV	MQQM	BZZB	YDDY	JXXJ	treu	fair	ehrlich	spielen	schön	retten	tot	faul	eitel	strafen	schlecht	rächen	1	acq_USpleas_CSpleas1_RW	acq2_RW	2	11	480	0	300	300	771	50	0	1	1	blank2r.bmp	0	1	+	0	1	blank2r.bmp	492	1	GWWG	492	1	blank2r.bmp	572	3	ehrlich	866	1	!	1319	1	!	-1	0	0	0	0	0	0	0	0	0	0	0	0	0	0	0	0	0	0	0	0	0	0	0	0	0	0	0	0	0	0
070919	12:14:42	12:17:56	192840	5.0.10.0	5_exp_RW	29	Rpleas_acq	CS_B	GWWG	VKKV	MQQM	BZZB	YDDY	JXXJ	treu	fair	ehrlich	spielen	schön	retten	tot	faul	eitel	strafen	schlecht	rächen	1	acq_USpleas_CSpleas2_RW	acq2_RW	2	12	480	0	300	300	314	50	0	1	1	blank2r.bmp	0	1	+	0	1	blank2r.bmp	492	1	VKKV	492	1	blank2r.bmp	572	2	schön	866	1	!	-1	1	!	-1	0	0	0	0	0	0	0	0	0	0	0	0	0	0	0	0	0	0	0	0	0	0	0	0	0	0	0	0	0	0
070919	12:14:42	12:17:58	195346	5.0.10.0	5_exp_RW	29	Rpleas_acq	CS_B	GWWG	VKKV	MQQM	BZZB	YDDY	JXXJ	treu	fair	ehrlich	spielen	schön	retten	tot	faul	eitel	strafen	schlecht	rächen	1	acq_USunple_CSunple1_RW	acq2_RW	2	13	480	0	300	300	727	46	0	1	1	blank2r.bmp	0	1	+	0	1	blank2r.bmp	492	1	MQQM	492	1	blank2r.bmp	572	3	eitel	866	1	!	1319	1	!	-1	0	0	0	0	0	0	0	0	0	0	0	0	0	0	0	0	0	0	0	0	0	0	0	0	0	0	0	0	0	0
070919	12:14:42	12:18:00	197785	5.0.10.0	5_exp_RW	29	Rpleas_acq	CS_B	GWWG	VKKV	MQQM	BZZB	YDDY	JXXJ	treu	fair	ehrlich	spielen	schön	retten	tot	faul	eitel	strafen	schlecht	rächen	1	acq_USunple_CSunple2_RW	acq2_RW	2	14	480	0	300	300	656	46	0	1	1	blank2r.bmp	0	1	+	0	1	blank2r.bmp	492	1	BZZB	492	1	blank2r.bmp	572	1	strafen	866	1	!	1319	1	!	-1	0	0	0	0	0	0	0	0	0	0	0	0	0	0	0	0	0	0	0	0	0	0	0	0	0	0	0	0	0	0
070919	12:14:42	12:18:03	200344	5.0.10.0	5_exp_RW	29	Rpleas_acq	CS_B	GWWG	VKKV	MQQM	BZZB	YDDY	JXXJ	treu	fair	ehrlich	spielen	schön	retten	tot	faul	eitel	strafen	schlecht	rächen	1	acq_USunple_CSunple1_RW	acq2_RW	2	15	480	0	300	300	779	46	0	1	1	blank2r.bmp	0	1	+	0	1	blank2r.bmp	492	1	MQQM	492	1	blank2r.bmp	572	3	eitel	866	1	!	1319	1	!	-1	0	0	0	0	0	0	0	0	0	0	0	0	0	0	0	0	0	0	0	0	0	0	0	0	0	0	0	0	0	0
070919	12:14:42	12:18:06	202876	5.0.10.0	5_exp_RW	29	Rpleas_acq	CS_B	GWWG	VKKV	MQQM	BZZB	YDDY	JXXJ	treu	fair	ehrlich	spielen	schön	retten	tot	faul	eitel	strafen	schlecht	rächen	1	acq_USunple_CSunple2_RW	acq2_RW	2	16	480	0	300	300	745	46	0	1	1	blank2r.bmp	0	1	+	0	1	blank2r.bmp	492	1	BZZB	492	1	blank2r.bmp	572	2	schlecht	866	1	!	1319	1	!	-1	0	0	0	0	0	0	0	0	0	0	0	0	0	0	0	0	0	0	0	0	0	0	0	0	0	0	0	0	0	0
070919	12:14:42	12:18:08	205435	5.0.10.0	5_exp_RW	29	Rpleas_acq	CS_B	GWWG	VKKV	MQQM	BZZB	YDDY	JXXJ	treu	fair	ehrlich	spielen	schön	retten	tot	faul	eitel	strafen	schlecht	rächen	1	acq_USunple_CSunple2_RW	acq2_RW	2	17	480	0	300	300	759	46	0	1	1	blank2r.bmp	0	1	+	0	1	blank2r.bmp	492	1	BZZB	492	1	blank2r.bmp	572	3	rächen	866	1	!	1319	1	!	-1	0	0	0	0	0	0	0	0	0	0	0	0	0	0	0	0	0	0	0	0	0	0	0	0	0	0	0	0	0	0
070919	12:14:42	12:18:11	207901	5.0.10.0	5_exp_RW	29	Rpleas_acq	CS_B	GWWG	VKKV	MQQM	BZZB	YDDY	JXXJ	treu	fair	ehrlich	spielen	schön	retten	tot	faul	eitel	strafen	schlecht	rächen	1	acq_USunple_CSunple1_RW	acq2_RW	2	18	480	0	300	300	670	46	0	1	1	blank2r.bmp	0	1	+	0	1	blank2r.bmp	492	1	MQQM	492	1	blank2r.bmp	572	2	faul	866	1	!	1319	1	!	-1	0	0	0	0	0	0	0	0	0	0	0	0	0	0	0	0	0	0	0	0	0	0	0	0	0	0	0	0	0	0
070919	12:14:42	12:18:13	210433	5.0.10.0	5_exp_RW	29	Rpleas_acq	CS_B	GWWG	VKKV	MQQM	BZZB	YDDY	JXXJ	treu	fair	ehrlich	spielen	schön	retten	tot	faul	eitel	strafen	schlecht	rächen	1	acq_USpleas_CSpleas1_RW	acq2_RW	2	19	480	0	300	300	745	50	0	1	1	blank2r.bmp	0	1	+	0	1	blank2r.bmp	492	1	GWWG	492	1	blank2r.bmp	572	2	fair	866	1	!	1319	1	!	-1	0	0	0	0	0	0	0	0	0	0	0	0	0	0	0	0	0	0	0	0	0	0	0	0	0	0	0	0	0	0
070919	12:14:42	12:18:16	212859	5.0.10.0	5_exp_RW	29	Rpleas_acq	CS_B	GWWG	VKKV	MQQM	BZZB	YDDY	JXXJ	treu	fair	ehrlich	spielen	schön	retten	tot	faul	eitel	strafen	schlecht	rächen	1	acq_USpleas_CSpleas1_RW	acq2_RW	2	20	480	0	300	300	644	50	0	1	1	blank2r.bmp	0	1	+	0	1	blank2r.bmp	492	1	GWWG	492	1	blank2r.bmp	572	1	treu	866	1	!	1319	1	!	-1	0	0	0	0	0	0	0	0	0	0	0	0	0	0	0	0	0	0	0	0	0	0	0	0	0	0	0	0	0	0
070919	12:14:42	12:18:18	215298	5.0.10.0	5_exp_RW	29	Rpleas_acq	CS_B	GWWG	VKKV	MQQM	BZZB	YDDY	JXXJ	treu	fair	ehrlich	spielen	schön	retten	tot	faul	eitel	strafen	schlecht	rächen	1	acq_USpleas_CSpleas1_RW	acq2_RW	2	21	480	0	300	300	661	50	0	1	1	blank2r.bmp	0	1	+	0	1	blank2r.bmp	492	1	GWWG	492	1	blank2r.bmp	572	3	ehrlich	866	1	!	1319	1	!	-1	0	0	0	0	0	0	0	0	0	0	0	0	0	0	0	0	0	0	0	0	0	0	0	0	0	0	0	0	0	0
070919	12:14:42	12:18:20	217657	5.0.10.0	5_exp_RW	29	Rpleas_acq	CS_B	GWWG	VKKV	MQQM	BZZB	YDDY	JXXJ	treu	fair	ehrlich	spielen	schön	retten	tot	faul	eitel	strafen	schlecht	rächen	1	acq_USunple_CSunple2_RW	acq2_RW	2	22	480	0	300	300	572	46	0	1	1	blank2r.bmp	0	1	+	0	1	blank2r.bmp	492	1	BZZB	492	1	blank2r.bmp	572	2	schlecht	866	1	!	1319	1	!	-1	0	0	0	0	0	0	0	0	0	0	0	0	0	0	0	0	0	0	0	0	0	0	0	0	0	0	0	0	0	0
070919	12:14:42	12:18:23	220176	5.0.10.0	5_exp_RW	29	Rpleas_acq	CS_B	GWWG	VKKV	MQQM	BZZB	YDDY	JXXJ	treu	fair	ehrlich	spielen	schön	retten	tot	faul	eitel	strafen	schlecht	rächen	1	acq_USunple_CSunple1_RW	acq2_RW	2	23	480	0	300	300	733	46	0	1	1	blank2r.bmp	0	1	+	0	1	blank2r.bmp	492	1	MQQM	492	1	blank2r.bmp	572	1	tot	866	1	!	1319	1	!	-1	0	0	0	0	0	0	0	0	0	0	0	0	0	0	0	0	0	0	0	0	0	0	0	0	0	0	0	0	0	0
070919	12:14:42	12:18:25	222535	5.0.10.0	5_exp_RW	29	Rpleas_acq	CS_B	GWWG	VKKV	MQQM	BZZB	YDDY	JXXJ	treu	fair	ehrlich	spielen	schön	retten	tot	faul	eitel	strafen	schlecht	rächen	1	acq_USunple_CSunple1_RW	acq2_RW	2	24	480	0	300	300	572	46	0	1	1	blank2r.bmp	0	1	+	0	1	blank2r.bmp	492	1	MQQM	492	1	blank2r.bmp	572	1	tot	866	1	!	1319	1	!	-1	0	0	0	0	0	0	0	0	0	0	0	0	0	0	0	0	0	0	0	0	0	0	0	0	0	0	0	0	0	0
070919	12:14:42	12:18:43	239834	5.0.10.0	5_exp_RW	29	Rpleas_acq	CS_B	GWWG	VKKV	MQQM	BZZB	YDDY	JXXJ	treu	fair	ehrlich	spielen	schön	retten	tot	faul	eitel	strafen	schlecht	rächen	1	acq_USunple_CSunple1_RW	acq3_RW	3	1	453	0	300	300	557	46	0	1	1	blank2r.bmp	0	1	+	0	1	blank2r.bmp	492	1	MQQM	492	1	blank2r.bmp	572	2	faul	866	1	!	1292	1	!	-1	0	0	0	0	0	0	0	0	0	0	0	0	0	0	0	0	0	0	0	0	0	0	0	0	0	0	0	0	0	0
070919	12:14:42	12:18:45	242207	5.0.10.0	5_exp_RW	29	Rpleas_acq	CS_B	GWWG	VKKV	MQQM	BZZB	YDDY	JXXJ	treu	fair	ehrlich	spielen	schön	retten	tot	faul	eitel	strafen	schlecht	rächen	1	acq_USunple_CSunple2_RW	acq3_RW	3	2	453	0	300	300	592	46	0	1	1	blank2r.bmp	0	1	+	0	1	blank2r.bmp	492	1	BZZB	492	1	blank2r.bmp	572	3	rächen	866	1	!	1292	1	!	-1	0	0	0	0	0	0	0	0	0	0	0	0	0	0	0	0	0	0	0	0	0	0	0	0	0	0	0	0	0	0
070919	12:14:42	12:18:47	244619	5.0.10.0	5_exp_RW	29	Rpleas_acq	CS_B	GWWG	VKKV	MQQM	BZZB	YDDY	JXXJ	treu	fair	ehrlich	spielen	schön	retten	tot	faul	eitel	strafen	schlecht	rächen	1	acq_USpleas_CSpleas2_RW	acq3_RW	3	3	453	0	300	300	630	50	0	1	1	blank2r.bmp	0	1	+	0	1	blank2r.bmp	492	1	VKKV	492	1	blank2r.bmp	572	1	spielen	866	1	!	1292	1	!	-1	0	0	0	0	0	0	0	0	0	0	0	0	0	0	0	0	0	0	0	0	0	0	0	0	0	0	0	0	0	0
070919	12:14:42	12:18:50	246978	5.0.10.0	5_exp_RW	29	Rpleas_acq	CS_B	GWWG	VKKV	MQQM	BZZB	YDDY	JXXJ	treu	fair	ehrlich	spielen	schön	retten	tot	faul	eitel	strafen	schlecht	rächen	1	acq_USunple_CSunple2_RW	acq3_RW	3	4	453	0	300	300	585	46	0	1	1	blank2r.bmp	0	1	+	0	1	blank2r.bmp	492	1	BZZB	492	1	blank2r.bmp	572	1	strafen	866	1	!	1292	1	!	-1	0	0	0	0	0	0	0	0	0	0	0	0	0	0	0	0	0	0	0	0	0	0	0	0	0	0	0	0	0	0
070919	12:14:42	12:18:52	249644	5.0.10.0	5_exp_RW	29	Rpleas_acq	CS_B	GWWG	VKKV	MQQM	BZZB	YDDY	JXXJ	treu	fair	ehrlich	spielen	schön	retten	tot	faul	eitel	strafen	schlecht	rächen	1	acq_USunple_CSunple2_RW	acq3_RW	3	5	453	0	300	300	888	46	0	1	1	blank2r.bmp	0	1	+	0	1	blank2r.bmp	492	1	BZZB	492	1	blank2r.bmp	572	3	rächen	866	1	!	1292	1	!	-1	0	0	0	0	0	0	0	0	0	0	0	0	0	0	0	0	0	0	0	0	0	0	0	0	0	0	0	0	0	0
070919	12:14:42	12:18:55	252029	5.0.10.0	5_exp_RW	29	Rpleas_acq	CS_B	GWWG	VKKV	MQQM	BZZB	YDDY	JXXJ	treu	fair	ehrlich	spielen	schön	retten	tot	faul	eitel	strafen	schlecht	rächen	1	acq_USpleas_CSpleas1_RW	acq3_RW	3	6	453	0	300	300	587	50	0	1	1	blank2r.bmp	0	1	+	0	1	blank2r.bmp	492	1	GWWG	492	1	blank2r.bmp	572	2	fair	866	1	!	1292	1	!	-1	0	0	0	0	0	0	0	0	0	0	0	0	0	0	0	0	0	0	0	0	0	0	0	0	0	0	0	0	0	0
070919	12:14:42	12:18:57	254468	5.0.10.0	5_exp_RW	29	Rpleas_acq	CS_B	GWWG	VKKV	MQQM	BZZB	YDDY	JXXJ	treu	fair	ehrlich	spielen	schön	retten	tot	faul	eitel	strafen	schlecht	rächen	1	acq_USpleas_CSpleas1_RW	acq3_RW	3	7	453	0	300	300	656	50	0	1	1	blank2r.bmp	0	1	+	0	1	blank2r.bmp	492	1	GWWG	492	1	blank2r.bmp	572	1	treu	866	1	!	1292	1	!	-1	0	0	0	0	0	0	0	0	0	0	0	0	0	0	0	0	0	0	0	0	0	0	0	0	0	0	0	0	0	0
070919	12:14:42	12:19:00	256947	5.0.10.0	5_exp_RW	29	Rpleas_acq	CS_B	GWWG	VKKV	MQQM	BZZB	YDDY	JXXJ	treu	fair	ehrlich	spielen	schön	retten	tot	faul	eitel	strafen	schlecht	rächen	1	acq_USpleas_CSpleas2_RW	acq3_RW	3	8	453	0	300	300	698	50	0	1	1	blank2r.bmp	0	1	+	0	1	blank2r.bmp	492	1	VKKV	492	1	blank2r.bmp	572	3	retten	866	1	!	1292	1	!	-1	0	0	0	0	0	0	0	0	0	0	0	0	0	0	0	0	0	0	0	0	0	0	0	0	0	0	0	0	0	0
070919	12:14:42	12:19:02	259293	5.0.10.0	5_exp_RW	29	Rpleas_acq	CS_B	GWWG	VKKV	MQQM	BZZB	YDDY	JXXJ	treu	fair	ehrlich	spielen	schön	retten	tot	faul	eitel	strafen	schlecht	rächen	1	acq_USunple_CSunple1_RW	acq3_RW	3	9	453	0	300	300	571	46	0	1	1	blank2r.bmp	0	1	+	0	1	blank2r.bmp	492	1	MQQM	492	1	blank2r.bmp	572	3	eitel	866	1	!	1292	1	!	-1	0	0	0	0	0	0	0	0	0	0	0	0	0	0	0	0	0	0	0	0	0	0	0	0	0	0	0	0	0	0
070919	12:14:42	12:19:04	261545	5.0.10.0	5_exp_RW	29	Rpleas_acq	CS_B	GWWG	VKKV	MQQM	BZZB	YDDY	JXXJ	treu	fair	ehrlich	spielen	schön	retten	tot	faul	eitel	strafen	schlecht	rächen	1	acq_USunple_CSunple1_RW	acq3_RW	3	10	453	1	300	300	442	46	0	1	1	blank2r.bmp	0	1	+	0	1	blank2r.bmp	492	1	MQQM	492	1	blank2r.bmp	572	1	tot	866	1	!	1292	1	!	1346	0	0	0	0	0	0	0	0	0	0	0	0	0	0	0	0	0	0	0	0	0	0	0	0	0	0	0	0	0	0
070919	12:14:42	12:19:07	263891	5.0.10.0	5_exp_RW	29	Rpleas_acq	CS_B	GWWG	VKKV	MQQM	BZZB	YDDY	JXXJ	treu	fair	ehrlich	spielen	schön	retten	tot	faul	eitel	strafen	schlecht	rächen	1	acq_USunple_CSunple1_RW	acq3_RW	3	11	453	0	300	300	559	46	0	1	1	blank2r.bmp	0	1	+	0	1	blank2r.bmp	492	1	MQQM	492	1	blank2r.bmp	572	3	eitel	866	1	!	1292	1	!	-1	0	0	0	0	0	0	0	0	0	0	0	0	0	0	0	0	0	0	0	0	0	0	0	0	0	0	0	0	0	0
070919	12:14:42	12:19:09	266250	5.0.10.0	5_exp_RW	29	Rpleas_acq	CS_B	GWWG	VKKV	MQQM	BZZB	YDDY	JXXJ	treu	fair	ehrlich	spielen	schön	retten	tot	faul	eitel	strafen	schlecht	rächen	1	acq_USpleas_CSpleas2_RW	acq3_RW	3	12	453	0	300	300	574	50	0	1	1	blank2r.bmp	0	1	+	0	1	blank2r.bmp	492	1	VKKV	492	1	blank2r.bmp	572	1	spielen	866	1	!	1292	1	!	-1	0	0	0	0	0	0	0	0	0	0	0	0	0	0	0	0	0	0	0	0	0	0	0	0	0	0	0	0	0	0
070919	12:14:42	12:19:11	268649	5.0.10.0	5_exp_RW	29	Rpleas_acq	CS_B	GWWG	VKKV	MQQM	BZZB	YDDY	JXXJ	treu	fair	ehrlich	spielen	schön	retten	tot	faul	eitel	strafen	schlecht	rächen	1	acq_USpleas_CSpleas2_RW	acq3_RW	3	13	453	0	300	300	619	50	0	1	1	blank2r.bmp	0	1	+	0	1	blank2r.bmp	492	1	VKKV	492	1	blank2r.bmp	572	2	schön	866	1	!	1292	1	!	-1	0	0	0	0	0	0	0	0	0	0	0	0	0	0	0	0	0	0	0	0	0	0	0	0	0	0	0	0	0	0
070919	12:14:42	12:19:14	270915	5.0.10.0	5_exp_RW	29	Rpleas_acq	CS_B	GWWG	VKKV	MQQM	BZZB	YDDY	JXXJ	treu	fair	ehrlich	spielen	schön	retten	tot	faul	eitel	strafen	schlecht	rächen	1	acq_USunple_CSunple1_RW	acq3_RW	3	14	453	1	300	300	464	46	0	1	1	blank2r.bmp	0	1	+	0	1	blank2r.bmp	492	1	MQQM	492	1	blank2r.bmp	572	2	faul	866	1	!	1292	1	!	1359	0	0	0	0	0	0	0	0	0	0	0	0	0	0	0	0	0	0	0	0	0	0	0	0	0	0	0	0	0	0
070919	12:14:42	12:19:16	273021	5.0.10.0	5_exp_RW	29	Rpleas_acq	CS_B	GWWG	VKKV	MQQM	BZZB	YDDY	JXXJ	treu	fair	ehrlich	spielen	schön	retten	tot	faul	eitel	strafen	schlecht	rächen	1	acq_USpleas_CSpleas1_RW	acq3_RW	3	15	453	0	300	300	333	50	0	1	1	blank2r.bmp	0	1	+	0	1	blank2r.bmp	492	1	GWWG	492	1	blank2r.bmp	572	2	fair	866	1	!	-1	1	!	-1	0	0	0	0	0	0	0	0	0	0	0	0	0	0	0	0	0	0	0	0	0	0	0	0	0	0	0	0	0	0
070919	12:14:42	12:19:18	275406	5.0.10.0	5_exp_RW	29	Rpleas_acq	CS_B	GWWG	VKKV	MQQM	BZZB	YDDY	JXXJ	treu	fair	ehrlich	spielen	schön	retten	tot	faul	eitel	strafen	schlecht	rächen	1	acq_USunple_CSunple2_RW	acq3_RW	3	16	453	0	300	300	608	46	0	1	1	blank2r.bmp	0	1	+	0	1	blank2r.bmp	492	1	BZZB	492	1	blank2r.bmp	572	1	strafen	866	1	!	1292	1	!	-1	0	0	0	0	0	0	0	0	0	0	0	0	0	0	0	0	0	0	0	0	0	0	0	0	0	0	0	0	0	0
070919	12:14:42	12:19:20	277725	5.0.10.0	5_exp_RW	29	Rpleas_acq	CS_B	GWWG	VKKV	MQQM	BZZB	YDDY	JXXJ	treu	fair	ehrlich	spielen	schön	retten	tot	faul	eitel	strafen	schlecht	rächen	1	acq_USunple_CSunple1_RW	acq3_RW	3	17	453	1	300	300	511	46	0	1	1	blank2r.bmp	0	1	+	0	1	blank2r.bmp	492	1	MQQM	492	1	blank2r.bmp	572	2	faul	866	1	!	1292	1	!	1412	0	0	0	0	0	0	0	0	0	0	0	0	0	0	0	0	0	0	0	0	0	0	0	0	0	0	0	0	0	0
070919	12:14:42	12:19:23	280044	5.0.10.0	5_exp_RW	29	Rpleas_acq	CS_B	GWWG	VKKV	MQQM	BZZB	YDDY	JXXJ	treu	fair	ehrlich	spielen	schön	retten	tot	faul	eitel	strafen	schlecht	rächen	1	acq_USpleas_CSpleas1_RW	acq3_RW	3	18	453	0	300	300	546	50	0	1	1	blank2r.bmp	0	1	+	0	1	blank2r.bmp	492	1	GWWG	492	1	blank2r.bmp	572	1	treu	866	1	!	1292	1	!	-1	0	0	0	0	0	0	0	0	0	0	0	0	0	0	0	0	0	0	0	0	0	0	0	0	0	0	0	0	0	0
070919	12:14:42	12:19:25	282310	5.0.10.0	5_exp_RW	29	Rpleas_acq	CS_B	GWWG	VKKV	MQQM	BZZB	YDDY	JXXJ	treu	fair	ehrlich	spielen	schön	retten	tot	faul	eitel	strafen	schlecht	rächen	1	acq_USpleas_CSpleas1_RW	acq3_RW	3	19	453	1	300	300	458	50	0	1	1	blank2r.bmp	0	1	+	0	1	blank2r.bmp	492	1	GWWG	492	1	blank2r.bmp	572	3	ehrlich	866	1	!	1292	1	!	1359	0	0	0	0	0	0	0	0	0	0	0	0	0	0	0	0	0	0	0	0	0	0	0	0	0	0	0	0	0	0
070919	12:14:42	12:19:27	284603	5.0.10.0	5_exp_RW	29	Rpleas_acq	CS_B	GWWG	VKKV	MQQM	BZZB	YDDY	JXXJ	treu	fair	ehrlich	spielen	schön	retten	tot	faul	eitel	strafen	schlecht	rächen	1	acq_USunple_CSunple2_RW	acq3_RW	3	20	453	1	300	300	502	46	0	1	1	blank2r.bmp	0	1	+	0	1	blank2r.bmp	492	1	BZZB	492	1	blank2r.bmp	572	2	schlecht	866	1	!	1292	1	!	1399	0	0	0	0	0	0	0	0	0	0	0	0	0	0	0	0	0	0	0	0	0	0	0	0	0	0	0	0	0	0
070919	12:14:42	12:19:30	286962	5.0.10.0	5_exp_RW	29	Rpleas_acq	CS_B	GWWG	VKKV	MQQM	BZZB	YDDY	JXXJ	treu	fair	ehrlich	spielen	schön	retten	tot	faul	eitel	strafen	schlecht	rächen	1	acq_USpleas_CSpleas2_RW	acq3_RW	3	21	453	0	300	300	583	50	0	1	1	blank2r.bmp	0	1	+	0	1	blank2r.bmp	492	1	VKKV	492	1	blank2r.bmp	572	3	retten	866	1	!	1292	1	!	-1	0	0	0	0	0	0	0	0	0	0	0	0	0	0	0	0	0	0	0	0	0	0	0	0	0	0	0	0	0	0
070919	12:14:42	12:19:32	289281	5.0.10.0	5_exp_RW	29	Rpleas_acq	CS_B	GWWG	VKKV	MQQM	BZZB	YDDY	JXXJ	treu	fair	ehrlich	spielen	schön	retten	tot	faul	eitel	strafen	schlecht	rächen	1	acq_USunple_CSunple2_RW	acq3_RW	3	22	453	0	300	300	532	46	0	1	1	blank2r.bmp	0	1	+	0	1	blank2r.bmp	492	1	BZZB	492	1	blank2r.bmp	572	2	schlecht	866	1	!	1292	1	!	-1	0	0	0	0	0	0	0	0	0	0	0	0	0	0	0	0	0	0	0	0	0	0	0	0	0	0	0	0	0	0
070919	12:14:42	12:19:34	291586	5.0.10.0	5_exp_RW	29	Rpleas_acq	CS_B	GWWG	VKKV	MQQM	BZZB	YDDY	JXXJ	treu	fair	ehrlich	spielen	schön	retten	tot	faul	eitel	strafen	schlecht	rächen	1	acq_USpleas_CSpleas1_RW	acq3_RW	3	23	453	1	300	300	504	50	0	1	1	blank2r.bmp	0	1	+	0	1	blank2r.bmp	492	1	GWWG	492	1	blank2r.bmp	572	3	ehrlich	866	1	!	1292	1	!	1399	0	0	0	0	0	0	0	0	0	0	0	0	0	0	0	0	0	0	0	0	0	0	0	0	0	0	0	0	0	0
070919	12:14:42	12:19:37	293852	5.0.10.0	5_exp_RW	29	Rpleas_acq	CS_B	GWWG	VKKV	MQQM	BZZB	YDDY	JXXJ	treu	fair	ehrlich	spielen	schön	retten	tot	faul	eitel	strafen	schlecht	rächen	1	acq_USpleas_CSpleas2_RW	acq3_RW	3	24	453	1	300	300	473	50	0	1	1	blank2r.bmp	0	1	+	0	1	blank2r.bmp	492	1	VKKV	492	1	blank2r.bmp	572	1	spielen	866	1	!	1292	1	!	1372	0	0	0	0	0	0	0	0	0	0	0	0	0	0	0	0	0	0	0	0	0	0	0	0	0	0	0	0	0	0
070919	12:14:42	12:19:54	311498	5.0.10.0	5_exp_RW	29	Rpleas_acq	CS_B	GWWG	VKKV	MQQM	BZZB	YDDY	JXXJ	treu	fair	ehrlich	spielen	schön	retten	tot	faul	eitel	strafen	schlecht	rächen	1	acq_USunple_CSunple2_RW	acq4567_RW	4	1	400	0	300	300	542	46	0	1	1	blank2r.bmp	0	1	+	0	1	blank2r.bmp	492	1	BZZB	492	1	blank2r.bmp	572	1	strafen	866	1	!	1239	1	!	-1	0	0	0	0	0	0	0	0	0	0	0	0	0	0	0	0	0	0	0	0	0	0	0	0	0	0	0	0	0	0
070919	12:14:42	12:19:56	313764	5.0.10.0	5_exp_RW	29	Rpleas_acq	CS_B	GWWG	VKKV	MQQM	BZZB	YDDY	JXXJ	treu	fair	ehrlich	spielen	schön	retten	tot	faul	eitel	strafen	schlecht	rächen	1	acq_USpleas_CSpleas1_RW	acq4567_RW	4	2	400	1	300	300	447	50	0	1	1	blank2r.bmp	0	1	+	0	1	blank2r.bmp	492	1	GWWG	492	1	blank2r.bmp	572	2	fair	866	1	!	1239	1	!	1346	0	0	0	0	0	0	0	0	0	0	0	0	0	0	0	0	0	0	0	0	0	0	0	0	0	0	0	0	0	0
070919	12:14:42	12:19:59	316016	5.0.10.0	5_exp_RW	29	Rpleas_acq	CS_B	GWWG	VKKV	MQQM	BZZB	YDDY	JXXJ	treu	fair	ehrlich	spielen	schön	retten	tot	faul	eitel	strafen	schlecht	rächen	1	acq_USpleas_CSpleas2_RW	acq4567_RW	4	3	400	0	300	300	479	50	0	1	1	blank2r.bmp	0	1	+	0	1	blank2r.bmp	492	1	VKKV	492	1	blank2r.bmp	572	2	schön	866	1	!	1239	1	!	-1	0	0	0	0	0	0	0	0	0	0	0	0	0	0	0	0	0	0	0	0	0	0	0	0	0	0	0	0	0	0
070919	12:14:42	12:20:01	318175	5.0.10.0	5_exp_RW	29	Rpleas_acq	CS_B	GWWG	VKKV	MQQM	BZZB	YDDY	JXXJ	treu	fair	ehrlich	spielen	schön	retten	tot	faul	eitel	strafen	schlecht	rächen	1	acq_USunple_CSunple2_RW	acq4567_RW	4	4	400	1	300	300	358	50	0	0	1	blank2r.bmp	0	1	+	0	1	blank2r.bmp	492	1	BZZB	492	1	blank2r.bmp	572	3	rächen	866	1	!	1239	1	!	1252	0	0	0	0	0	0	0	0	0	0	0	0	0	0	0	0	0	0	0	0	0	0	0	0	0	0	0	0	0	0
070919	12:14:42	12:20:03	320335	5.0.10.0	5_exp_RW	29	Rpleas_acq	CS_B	GWWG	VKKV	MQQM	BZZB	YDDY	JXXJ	treu	fair	ehrlich	spielen	schön	retten	tot	faul	eitel	strafen	schlecht	rächen	1	acq_USunple_CSunple2_RW	acq4567_RW	4	5	400	1	300	300	363	46	0	1	1	blank2r.bmp	0	1	+	0	1	blank2r.bmp	492	1	BZZB	492	1	blank2r.bmp	572	3	rächen	866	1	!	1239	1	!	1266	0	0	0	0	0	0	0	0	0	0	0	0	0	0	0	0	0	0	0	0	0	0	0	0	0	0	0	0	0	0
070919	12:14:42	12:20:05	322547	5.0.10.0	5_exp_RW	29	Rpleas_acq	CS_B	GWWG	VKKV	MQQM	BZZB	YDDY	JXXJ	treu	fair	ehrlich	spielen	schön	retten	tot	faul	eitel	strafen	schlecht	rächen	1	acq_USpleas_CSpleas2_RW	acq4567_RW	4	6	400	1	300	300	424	50	0	1	1	blank2r.bmp	0	1	+	0	1	blank2r.bmp	492	1	VKKV	492	1	blank2r.bmp	572	3	retten	866	1	!	1239	1	!	1319	0	0	0	0	0	0	0	0	0	0	0	0	0	0	0	0	0	0	0	0	0	0	0	0	0	0	0	0	0	0
070919	12:14:42	12:20:07	324733	5.0.10.0	5_exp_RW	29	Rpleas_acq	CS_B	GWWG	VKKV	MQQM	BZZB	YDDY	JXXJ	treu	fair	ehrlich	spielen	schön	retten	tot	faul	eitel	strafen	schlecht	rächen	1	acq_USpleas_CSpleas1_RW	acq4567_RW	4	7	400	1	300	300	385	46	0	0	1	blank2r.bmp	0	1	+	0	1	blank2r.bmp	492	1	GWWG	492	1	blank2r.bmp	572	1	treu	866	1	!	1239	1	!	1292	0	0	0	0	0	0	0	0	0	0	0	0	0	0	0	0	0	0	0	0	0	0	0	0	0	0	0	0	0	0
070919	12:14:42	12:20:10	326998	5.0.10.0	5_exp_RW	29	Rpleas_acq	CS_B	GWWG	VKKV	MQQM	BZZB	YDDY	JXXJ	treu	fair	ehrlich	spielen	schön	retten	tot	faul	eitel	strafen	schlecht	rächen	1	acq_USpleas_CSpleas1_RW	acq4567_RW	4	8	400	0	300	300	502	50	0	1	1	blank2r.bmp	0	1	+	0	1	blank2r.bmp	492	1	GWWG	492	1	blank2r.bmp	572	3	ehrlich	866	1	!	1239	1	!	-1	0	0	0	0	0	0	0	0	0	0	0	0	0	0	0	0	0	0	0	0	0	0	0	0	0	0	0	0	0	0
070919	12:14:42	12:20:12	329224	5.0.10.0	5_exp_RW	29	Rpleas_acq	CS_B	GWWG	VKKV	MQQM	BZZB	YDDY	JXXJ	treu	fair	ehrlich	spielen	schön	retten	tot	faul	eitel	strafen	schlecht	rächen	1	acq_USunple_CSunple1_RW	acq4567_RW	4	9	400	1	300	300	419	50	0	0	1	blank2r.bmp	0	1	+	0	1	blank2r.bmp	492	1	MQQM	492	1	blank2r.bmp	572	3	eitel	866	1	!	1239	1	!	1319	0	0	0	0	0	0	0	0	0	0	0	0	0	0	0	0	0	0	0	0	0	0	0	0	0	0	0	0	0	0
070919	12:14:42	12:20:14	331503	5.0.10.0	5_exp_RW	29	Rpleas_acq	CS_B	GWWG	VKKV	MQQM	BZZB	YDDY	JXXJ	treu	fair	ehrlich	spielen	schön	retten	tot	faul	eitel	strafen	schlecht	rächen	1	acq_USunple_CSunple2_RW	acq4567_RW	4	10	400	0	300	300	510	46	0	1	1	blank2r.bmp	0	1	+	0	1	blank2r.bmp	492	1	BZZB	492	1	blank2r.bmp	572	1	strafen	866	1	!	1239	1	!	-1	0	0	0	0	0	0	0	0	0	0	0	0	0	0	0	0	0	0	0	0	0	0	0	0	0	0	0	0	0	0
070919	12:14:42	12:20:16	333742	5.0.10.0	5_exp_RW	29	Rpleas_acq	CS_B	GWWG	VKKV	MQQM	BZZB	YDDY	JXXJ	treu	fair	ehrlich	spielen	schön	retten	tot	faul	eitel	strafen	schlecht	rächen	1	acq_USpleas_CSpleas1_RW	acq4567_RW	4	11	400	1	300	300	434	46	0	0	1	blank2r.bmp	0	1	+	0	1	blank2r.bmp	492	1	GWWG	492	1	blank2r.bmp	572	2	fair	866	1	!	1239	1	!	1332	0	0	0	0	0	0	0	0	0	0	0	0	0	0	0	0	0	0	0	0	0	0	0	0	0	0	0	0	0	0
070919	12:14:42	12:20:19	335955	5.0.10.0	5_exp_RW	29	Rpleas_acq	CS_B	GWWG	VKKV	MQQM	BZZB	YDDY	JXXJ	treu	fair	ehrlich	spielen	schön	retten	tot	faul	eitel	strafen	schlecht	rächen	1	acq_USpleas_CSpleas1_RW	acq4567_RW	4	12	400	1	300	300	421	50	0	1	1	blank2r.bmp	0	1	+	0	1	blank2r.bmp	492	1	GWWG	492	1	blank2r.bmp	572	1	treu	866	1	!	1239	1	!	1319	0	0	0	0	0	0	0	0	0	0	0	0	0	0	0	0	0	0	0	0	0	0	0	0	0	0	0	0	0	0
070919	12:14:42	12:20:21	338141	5.0.10.0	5_exp_RW	29	Rpleas_acq	CS_B	GWWG	VKKV	MQQM	BZZB	YDDY	JXXJ	treu	fair	ehrlich	spielen	schön	retten	tot	faul	eitel	strafen	schlecht	rächen	1	acq_USpleas_CSpleas2_RW	acq4567_RW	4	13	400	1	300	300	396	50	0	1	1	blank2r.bmp	0	1	+	0	1	blank2r.bmp	492	1	VKKV	492	1	blank2r.bmp	572	1	spielen	866	1	!	1239	1	!	1292	0	0	0	0	0	0	0	0	0	0	0	0	0	0	0	0	0	0	0	0	0	0	0	0	0	0	0	0	0	0
070919	12:14:42	12:20:23	340326	5.0.10.0	5_exp_RW	29	Rpleas_acq	CS_B	GWWG	VKKV	MQQM	BZZB	YDDY	JXXJ	treu	fair	ehrlich	spielen	schön	retten	tot	faul	eitel	strafen	schlecht	rächen	1	acq_USunple_CSunple1_RW	acq4567_RW	4	14	400	1	300	300	384	46	0	1	1	blank2r.bmp	0	1	+	0	1	blank2r.bmp	492	1	MQQM	492	1	blank2r.bmp	572	1	tot	866	1	!	1239	1	!	1279	0	0	0	0	0	0	0	0	0	0	0	0	0	0	0	0	0	0	0	0	0	0	0	0	0	0	0	0	0	0
070919	12:14:42	12:20:25	342512	5.0.10.0	5_exp_RW	29	Rpleas_acq	CS_B	GWWG	VKKV	MQQM	BZZB	YDDY	JXXJ	treu	fair	ehrlich	spielen	schön	retten	tot	faul	eitel	strafen	schlecht	rächen	1	acq_USunple_CSunple1_RW	acq4567_RW	4	15	400	1	300	300	394	46	0	1	1	blank2r.bmp	0	1	+	0	1	blank2r.bmp	492	1	MQQM	492	1	blank2r.bmp	572	1	tot	866	1	!	1239	1	!	1292	0	0	0	0	0	0	0	0	0	0	0	0	0	0	0	0	0	0	0	0	0	0	0	0	0	0	0	0	0	0
070919	12:14:42	12:20:27	344725	5.0.10.0	5_exp_RW	29	Rpleas_acq	CS_B	GWWG	VKKV	MQQM	BZZB	YDDY	JXXJ	treu	fair	ehrlich	spielen	schön	retten	tot	faul	eitel	strafen	schlecht	rächen	1	acq_USunple_CSunple1_RW	acq4567_RW	4	16	400	1	300	300	414	50	0	0	1	blank2r.bmp	0	1	+	0	1	blank2r.bmp	492	1	MQQM	492	1	blank2r.bmp	572	3	eitel	866	1	!	1239	1	!	1319	0	0	0	0	0	0	0	0	0	0	0	0	0	0	0	0	0	0	0	0	0	0	0	0	0	0	0	0	0	0
070919	12:14:42	12:20:30	346977	5.0.10.0	5_exp_RW	29	Rpleas_acq	CS_B	GWWG	VKKV	MQQM	BZZB	YDDY	JXXJ	treu	fair	ehrlich	spielen	schön	retten	tot	faul	eitel	strafen	schlecht	rächen	1	acq_USpleas_CSpleas2_RW	acq4567_RW	4	17	400	0	300	300	479	50	0	1	1	blank2r.bmp	0	1	+	0	1	blank2r.bmp	492	1	VKKV	492	1	blank2r.bmp	572	2	schön	866	1	!	1239	1	!	-1	0	0	0	0	0	0	0	0	0	0	0	0	0	0	0	0	0	0	0	0	0	0	0	0	0	0	0	0	0	0
070919	12:14:42	12:20:32	349136	5.0.10.0	5_exp_RW	29	Rpleas_acq	CS_B	GWWG	VKKV	MQQM	BZZB	YDDY	JXXJ	treu	fair	ehrlich	spielen	schön	retten	tot	faul	eitel	strafen	schlecht	rächen	1	acq_USunple_CSunple2_RW	acq4567_RW	4	18	400	1	300	300	347	46	0	1	1	blank2r.bmp	0	1	+	0	1	blank2r.bmp	492	1	BZZB	492	1	blank2r.bmp	572	2	schlecht	866	1	!	1239	1	!	1252	0	0	0	0	0	0	0	0	0	0	0	0	0	0	0	0	0	0	0	0	0	0	0	0	0	0	0	0	0	0
070919	12:14:42	12:20:34	351322	5.0.10.0	5_exp_RW	29	Rpleas_acq	CS_B	GWWG	VKKV	MQQM	BZZB	YDDY	JXXJ	treu	fair	ehrlich	spielen	schön	retten	tot	faul	eitel	strafen	schlecht	rächen	1	acq_USunple_CSunple1_RW	acq4567_RW	4	19	400	1	300	300	395	46	0	1	1	blank2r.bmp	0	1	+	0	1	blank2r.bmp	492	1	MQQM	492	1	blank2r.bmp	572	2	faul	866	1	!	1239	1	!	1292	0	0	0	0	0	0	0	0	0	0	0	0	0	0	0	0	0	0	0	0	0	0	0	0	0	0	0	0	0	0
070919	12:14:42	12:20:36	353561	5.0.10.0	5_exp_RW	29	Rpleas_acq	CS_B	GWWG	VKKV	MQQM	BZZB	YDDY	JXXJ	treu	fair	ehrlich	spielen	schön	retten	tot	faul	eitel	strafen	schlecht	rächen	1	acq_USpleas_CSpleas2_RW	acq4567_RW	4	20	400	1	300	300	432	50	0	1	1	blank2r.bmp	0	1	+	0	1	blank2r.bmp	492	1	VKKV	492	1	blank2r.bmp	572	3	retten	866	1	!	1239	1	!	1332	0	0	0	0	0	0	0	0	0	0	0	0	0	0	0	0	0	0	0	0	0	0	0	0	0	0	0	0	0	0
070919	12:14:42	12:20:38	355733	5.0.10.0	5_exp_RW	29	Rpleas_acq	CS_B	GWWG	VKKV	MQQM	BZZB	YDDY	JXXJ	treu	fair	ehrlich	spielen	schön	retten	tot	faul	eitel	strafen	schlecht	rächen	1	acq_USpleas_CSpleas1_RW	acq4567_RW	4	21	400	1	300	300	376	46	0	0	1	blank2r.bmp	0	1	+	0	1	blank2r.bmp	492	1	GWWG	492	1	blank2r.bmp	572	1	treu	866	1	!	1239	1	!	1279	0	0	0	0	0	0	0	0	0	0	0	0	0	0	0	0	0	0	0	0	0	0	0	0	0	0	0	0	0	0
070919	12:14:42	12:20:41	357919	5.0.10.0	5_exp_RW	29	Rpleas_acq	CS_B	GWWG	VKKV	MQQM	BZZB	YDDY	JXXJ	treu	fair	ehrlich	spielen	schön	retten	tot	faul	eitel	strafen	schlecht	rächen	1	acq_USpleas_CSpleas1_RW	acq4567_RW	4	22	400	1	300	300	387	46	0	0	1	blank2r.bmp	0	1	+	0	1	blank2r.bmp	492	1	GWWG	492	1	blank2r.bmp	572	3	ehrlich	866	1	!	1239	1	!	1292	0	0	0	0	0	0	0	0	0	0	0	0	0	0	0	0	0	0	0	0	0	0	0	0	0	0	0	0	0	0
070919	12:14:42	12:20:43	360118	5.0.10.0	5_exp_RW	29	Rpleas_acq	CS_B	GWWG	VKKV	MQQM	BZZB	YDDY	JXXJ	treu	fair	ehrlich	spielen	schön	retten	tot	faul	eitel	strafen	schlecht	rächen	1	acq_USunple_CSunple2_RW	acq4567_RW	4	23	400	1	300	300	392	50	0	0	1	blank2r.bmp	0	1	+	0	1	blank2r.bmp	492	1	BZZB	492	1	blank2r.bmp	572	3	rächen	866	1	!	1239	1	!	1292	0	0	0	0	0	0	0	0	0	0	0	0	0	0	0	0	0	0	0	0	0	0	0	0	0	0	0	0	0	0
070919	12:14:42	12:20:45	362277	5.0.10.0	5_exp_RW	29	Rpleas_acq	CS_B	GWWG	VKKV	MQQM	BZZB	YDDY	JXXJ	treu	fair	ehrlich	spielen	schön	retten	tot	faul	eitel	strafen	schlecht	rächen	1	acq_USunple_CSunple2_RW	acq4567_RW	4	24	400	1	300	300	362	46	0	1	1	blank2r.bmp	0	1	+	0	1	blank2r.bmp	492	1	BZZB	492	1	blank2r.bmp	572	2	schlecht	866	1	!	1239	1	!	1266	0	0	0	0	0	0	0	0	0	0	0	0	0	0	0	0	0	0	0	0	0	0	0	0	0	0	0	0	0	0
070919	12:14:42	12:20:47	364423	5.0.10.0	5_exp_RW	29	Rpleas_acq	CS_B	GWWG	VKKV	MQQM	BZZB	YDDY	JXXJ	treu	fair	ehrlich	spielen	schön	retten	tot	faul	eitel	strafen	schlecht	rächen	1	acq_USpleas_CSpleas1_RW	acq4567_RW	4	25	400	1	300	300	346	50	0	1	1	blank2r.bmp	0	1	+	0	1	blank2r.bmp	492	1	GWWG	492	1	blank2r.bmp	572	2	fair	866	1	!	1239	1	!	1252	0	0	0	0	0	0	0	0	0	0	0	0	0	0	0	0	0	0	0	0	0	0	0	0	0	0	0	0	0	0
070919	12:14:42	12:20:49	366676	5.0.10.0	5_exp_RW	29	Rpleas_acq	CS_B	GWWG	VKKV	MQQM	BZZB	YDDY	JXXJ	treu	fair	ehrlich	spielen	schön	retten	tot	faul	eitel	strafen	schlecht	rächen	1	acq_USunple_CSunple2_RW	acq4567_RW	4	26	400	0	300	300	483	46	0	1	1	blank2r.bmp	0	1	+	0	1	blank2r.bmp	492	1	BZZB	492	1	blank2r.bmp	572	1	strafen	866	1	!	1239	1	!	-1	0	0	0	0	0	0	0	0	0	0	0	0	0	0	0	0	0	0	0	0	0	0	0	0	0	0	0	0	0	0
070919	12:14:42	12:20:52	368941	5.0.10.0	5_exp_RW	29	Rpleas_acq	CS_B	GWWG	VKKV	MQQM	BZZB	YDDY	JXXJ	treu	fair	ehrlich	spielen	schön	retten	tot	faul	eitel	strafen	schlecht	rächen	1	acq_USpleas_CSpleas2_RW	acq4567_RW	4	27	400	1	300	300	449	46	0	0	1	blank2r.bmp	0	1	+	0	1	blank2r.bmp	492	1	VKKV	492	1	blank2r.bmp	572	3	retten	866	1	!	1239	1	!	1346	0	0	0	0	0	0	0	0	0	0	0	0	0	0	0	0	0	0	0	0	0	0	0	0	0	0	0	0	0	0
070919	12:14:42	12:20:54	371087	5.0.10.0	5_exp_RW	29	Rpleas_acq	CS_B	GWWG	VKKV	MQQM	BZZB	YDDY	JXXJ	treu	fair	ehrlich	spielen	schön	retten	tot	faul	eitel	strafen	schlecht	rächen	1	acq_USunple_CSunple1_RW	acq4567_RW	4	28	400	1	300	300	347	46	0	1	1	blank2r.bmp	0	1	+	0	1	blank2r.bmp	492	1	MQQM	492	1	blank2r.bmp	572	1	tot	866	1	!	1239	1	!	1252	0	0	0	0	0	0	0	0	0	0	0	0	0	0	0	0	0	0	0	0	0	0	0	0	0	0	0	0	0	0
070919	12:14:42	12:20:56	373153	5.0.10.0	5_exp_RW	29	Rpleas_acq	CS_B	GWWG	VKKV	MQQM	BZZB	YDDY	JXXJ	treu	fair	ehrlich	spielen	schön	retten	tot	faul	eitel	strafen	schlecht	rächen	1	acq_USunple_CSunple1_RW	acq4567_RW	4	29	400	0	300	300	290	50	0	0	1	blank2r.bmp	0	1	+	0	1	blank2r.bmp	492	1	MQQM	492	1	blank2r.bmp	572	2	faul	866	1	!	-1	1	!	-1	0	0	0	0	0	0	0	0	0	0	0	0	0	0	0	0	0	0	0	0	0	0	0	0	0	0	0	0	0	0
070919	12:14:42	12:20:58	375379	5.0.10.0	5_exp_RW	29	Rpleas_acq	CS_B	GWWG	VKKV	MQQM	BZZB	YDDY	JXXJ	treu	fair	ehrlich	spielen	schön	retten	tot	faul	eitel	strafen	schlecht	rächen	1	acq_USunple_CSunple2_RW	acq4567_RW	4	30	400	1	300	300	416	50	0	0	1	blank2r.bmp	0	1	+	0	1	blank2r.bmp	492	1	BZZB	492	1	blank2r.bmp	572	1	strafen	866	1	!	1239	1	!	1319	0	0	0	0	0	0	0	0	0	0	0	0	0	0	0	0	0	0	0	0	0	0	0	0	0	0	0	0	0	0
070919	12:14:42	12:21:00	377564	5.0.10.0	5_exp_RW	29	Rpleas_acq	CS_B	GWWG	VKKV	MQQM	BZZB	YDDY	JXXJ	treu	fair	ehrlich	spielen	schön	retten	tot	faul	eitel	strafen	schlecht	rächen	1	acq_USunple_CSunple1_RW	acq4567_RW	4	31	400	1	300	300	386	46	0	1	1	blank2r.bmp	0	1	+	0	1	blank2r.bmp	492	1	MQQM	492	1	blank2r.bmp	572	3	eitel	866	1	!	1239	1	!	1292	0	0	0	0	0	0	0	0	0	0	0	0	0	0	0	0	0	0	0	0	0	0	0	0	0	0	0	0	0	0
070919	12:14:42	12:21:02	379804	5.0.10.0	5_exp_RW	29	Rpleas_acq	CS_B	GWWG	VKKV	MQQM	BZZB	YDDY	JXXJ	treu	fair	ehrlich	spielen	schön	retten	tot	faul	eitel	strafen	schlecht	rächen	1	acq_USunple_CSunple1_RW	acq4567_RW	4	32	400	1	300	300	447	46	0	1	1	blank2r.bmp	0	1	+	0	1	blank2r.bmp	492	1	MQQM	492	1	blank2r.bmp	572	2	faul	866	1	!	1239	1	!	1346	0	0	0	0	0	0	0	0	0	0	0	0	0	0	0	0	0	0	0	0	0	0	0	0	0	0	0	0	0	0
070919	12:14:42	12:21:05	381989	5.0.10.0	5_exp_RW	29	Rpleas_acq	CS_B	GWWG	VKKV	MQQM	BZZB	YDDY	JXXJ	treu	fair	ehrlich	spielen	schön	retten	tot	faul	eitel	strafen	schlecht	rächen	1	acq_USpleas_CSpleas2_RW	acq4567_RW	4	33	400	1	300	300	387	50	0	1	1	blank2r.bmp	0	1	+	0	1	blank2r.bmp	492	1	VKKV	492	1	blank2r.bmp	572	1	spielen	866	1	!	1239	1	!	1292	0	0	0	0	0	0	0	0	0	0	0	0	0	0	0	0	0	0	0	0	0	0	0	0	0	0	0	0	0	0
070919	12:14:42	12:21:07	384242	5.0.10.0	5_exp_RW	29	Rpleas_acq	CS_B	GWWG	VKKV	MQQM	BZZB	YDDY	JXXJ	treu	fair	ehrlich	spielen	schön	retten	tot	faul	eitel	strafen	schlecht	rächen	1	acq_USpleas_CSpleas2_RW	acq4567_RW	4	34	400	0	300	300	480	50	0	1	1	blank2r.bmp	0	1	+	0	1	blank2r.bmp	492	1	VKKV	492	1	blank2r.bmp	572	2	schön	866	1	!	1239	1	!	-1	0	0	0	0	0	0	0	0	0	0	0	0	0	0	0	0	0	0	0	0	0	0	0	0	0	0	0	0	0	0
070919	12:14:42	12:21:09	386494	5.0.10.0	5_exp_RW	29	Rpleas_acq	CS_B	GWWG	VKKV	MQQM	BZZB	YDDY	JXXJ	treu	fair	ehrlich	spielen	schön	retten	tot	faul	eitel	strafen	schlecht	rächen	1	acq_USpleas_CSpleas1_RW	acq4567_RW	4	35	400	1	300	300	446	46	0	0	1	blank2r.bmp	0	1	+	0	1	blank2r.bmp	492	1	GWWG	492	1	blank2r.bmp	572	2	fair	866	1	!	1239	1	!	1346	0	0	0	0	0	0	0	0	0	0	0	0	0	0	0	0	0	0	0	0	0	0	0	0	0	0	0	0	0	0
070919	12:14:42	12:21:11	388653	5.0.10.0	5_exp_RW	29	Rpleas_acq	CS_B	GWWG	VKKV	MQQM	BZZB	YDDY	JXXJ	treu	fair	ehrlich	spielen	schön	retten	tot	faul	eitel	strafen	schlecht	rächen	1	acq_USpleas_CSpleas1_RW	acq4567_RW	4	36	400	1	300	300	361	50	0	1	1	blank2r.bmp	0	1	+	0	1	blank2r.bmp	492	1	GWWG	492	1	blank2r.bmp	572	3	ehrlich	866	1	!	1239	1	!	1266	0	0	0	0	0	0	0	0	0	0	0	0	0	0	0	0	0	0	0	0	0	0	0	0	0	0	0	0	0	0
070919	12:14:42	12:21:14	390892	5.0.10.0	5_exp_RW	29	Rpleas_acq	CS_B	GWWG	VKKV	MQQM	BZZB	YDDY	JXXJ	treu	fair	ehrlich	spielen	schön	retten	tot	faul	eitel	strafen	schlecht	rächen	1	acq_USpleas_CSpleas2_RW	acq4567_RW	4	37	400	1	300	300	426	50	0	1	1	blank2r.bmp	0	1	+	0	1	blank2r.bmp	492	1	VKKV	492	1	blank2r.bmp	572	1	spielen	866	1	!	1239	1	!	1332	0	0	0	0	0	0	0	0	0	0	0	0	0	0	0	0	0	0	0	0	0	0	0	0	0	0	0	0	0	0
070919	12:14:42	12:21:16	393078	5.0.10.0	5_exp_RW	29	Rpleas_acq	CS_B	GWWG	VKKV	MQQM	BZZB	YDDY	JXXJ	treu	fair	ehrlich	spielen	schön	retten	tot	faul	eitel	strafen	schlecht	rächen	1	acq_USpleas_CSpleas2_RW	acq4567_RW	4	38	400	1	300	300	395	50	0	1	1	blank2r.bmp	0	1	+	0	1	blank2r.bmp	492	1	VKKV	492	1	blank2r.bmp	572	3	retten	866	1	!	1239	1	!	1292	0	0	0	0	0	0	0	0	0	0	0	0	0	0	0	0	0	0	0	0	0	0	0	0	0	0	0	0	0	0
070919	12:14:42	12:21:18	395157	5.0.10.0	5_exp_RW	29	Rpleas_acq	CS_B	GWWG	VKKV	MQQM	BZZB	YDDY	JXXJ	treu	fair	ehrlich	spielen	schön	retten	tot	faul	eitel	strafen	schlecht	rächen	1	acq_USunple_CSunple1_RW	acq4567_RW	4	39	400	0	300	300	318	46	0	1	1	blank2r.bmp	0	1	+	0	1	blank2r.bmp	492	1	MQQM	492	1	blank2r.bmp	572	1	tot	866	1	!	-1	1	!	-1	0	0	0	0	0	0	0	0	0	0	0	0	0	0	0	0	0	0	0	0	0	0	0	0	0	0	0	0	0	0
070919	12:14:42	12:21:20	397490	5.0.10.0	5_exp_RW	29	Rpleas_acq	CS_B	GWWG	VKKV	MQQM	BZZB	YDDY	JXXJ	treu	fair	ehrlich	spielen	schön	retten	tot	faul	eitel	strafen	schlecht	rächen	1	acq_USunple_CSunple2_RW	acq4567_RW	4	40	400	0	300	300	546	46	0	1	1	blank2r.bmp	0	1	+	0	1	blank2r.bmp	492	1	BZZB	492	1	blank2r.bmp	572	3	rächen	866	1	!	1239	1	!	-1	0	0	0	0	0	0	0	0	0	0	0	0	0	0	0	0	0	0	0	0	0	0	0	0	0	0	0	0	0	0
070919	12:14:42	12:21:22	399569	5.0.10.0	5_exp_RW	29	Rpleas_acq	CS_B	GWWG	VKKV	MQQM	BZZB	YDDY	JXXJ	treu	fair	ehrlich	spielen	schön	retten	tot	faul	eitel	strafen	schlecht	rächen	1	acq_USpleas_CSpleas2_RW	acq4567_RW	4	41	400	0	300	300	296	46	0	0	1	blank2r.bmp	0	1	+	0	1	blank2r.bmp	492	1	VKKV	492	1	blank2r.bmp	572	2	schön	866	1	!	-1	1	!	-1	0	0	0	0	0	0	0	0	0	0	0	0	0	0	0	0	0	0	0	0	0	0	0	0	0	0	0	0	0	0
070919	12:14:42	12:21:25	401821	5.0.10.0	5_exp_RW	29	Rpleas_acq	CS_B	GWWG	VKKV	MQQM	BZZB	YDDY	JXXJ	treu	fair	ehrlich	spielen	schön	retten	tot	faul	eitel	strafen	schlecht	rächen	1	acq_USunple_CSunple2_RW	acq4567_RW	4	42	400	1	300	300	441	46	0	1	1	blank2r.bmp	0	1	+	0	1	blank2r.bmp	492	1	BZZB	492	1	blank2r.bmp	572	2	schlecht	866	1	!	1239	1	!	1346	0	0	0	0	0	0	0	0	0	0	0	0	0	0	0	0	0	0	0	0	0	0	0	0	0	0	0	0	0	0
070919	12:14:42	12:21:27	403887	5.0.10.0	5_exp_RW	29	Rpleas_acq	CS_B	GWWG	VKKV	MQQM	BZZB	YDDY	JXXJ	treu	fair	ehrlich	spielen	schön	retten	tot	faul	eitel	strafen	schlecht	rächen	1	acq_USpleas_CSpleas1_RW	acq4567_RW	4	43	400	0	300	300	292	50	0	1	1	blank2r.bmp	0	1	+	0	1	blank2r.bmp	492	1	GWWG	492	1	blank2r.bmp	572	1	treu	866	1	!	-1	1	!	-1	0	0	0	0	0	0	0	0	0	0	0	0	0	0	0	0	0	0	0	0	0	0	0	0	0	0	0	0	0	0
070919	12:14:42	12:21:29	406193	5.0.10.0	5_exp_RW	29	Rpleas_acq	CS_B	GWWG	VKKV	MQQM	BZZB	YDDY	JXXJ	treu	fair	ehrlich	spielen	schön	retten	tot	faul	eitel	strafen	schlecht	rächen	1	acq_USunple_CSunple1_RW	acq4567_RW	4	44	400	0	300	300	524	46	0	1	1	blank2r.bmp	0	1	+	0	1	blank2r.bmp	492	1	MQQM	492	1	blank2r.bmp	572	3	eitel	866	1	!	1239	1	!	-1	0	0	0	0	0	0	0	0	0	0	0	0	0	0	0	0	0	0	0	0	0	0	0	0	0	0	0	0	0	0
070919	12:14:42	12:21:31	408272	5.0.10.0	5_exp_RW	29	Rpleas_acq	CS_B	GWWG	VKKV	MQQM	BZZB	YDDY	JXXJ	treu	fair	ehrlich	spielen	schön	retten	tot	faul	eitel	strafen	schlecht	rächen	1	acq_USpleas_CSpleas2_RW	acq4567_RW	4	45	400	0	300	300	293	50	0	1	1	blank2r.bmp	0	1	+	0	1	blank2r.bmp	492	1	VKKV	492	1	blank2r.bmp	572	3	retten	866	1	!	-1	1	!	-1	0	0	0	0	0	0	0	0	0	0	0	0	0	0	0	0	0	0	0	0	0	0	0	0	0	0	0	0	0	0
070919	12:14:42	12:21:33	410524	5.0.10.0	5_exp_RW	29	Rpleas_acq	CS_B	GWWG	VKKV	MQQM	BZZB	YDDY	JXXJ	treu	fair	ehrlich	spielen	schön	retten	tot	faul	eitel	strafen	schlecht	rächen	1	acq_USunple_CSunple1_RW	acq4567_RW	4	46	400	1	300	300	444	46	0	1	1	blank2r.bmp	0	1	+	0	1	blank2r.bmp	492	1	MQQM	492	1	blank2r.bmp	572	1	tot	866	1	!	1239	1	!	1346	0	0	0	0	0	0	0	0	0	0	0	0	0	0	0	0	0	0	0	0	0	0	0	0	0	0	0	0	0	0
070919	12:14:42	12:21:35	412777	5.0.10.0	5_exp_RW	29	Rpleas_acq	CS_B	GWWG	VKKV	MQQM	BZZB	YDDY	JXXJ	treu	fair	ehrlich	spielen	schön	retten	tot	faul	eitel	strafen	schlecht	rächen	1	acq_USunple_CSunple2_RW	acq4567_RW	4	47	400	1	300	300	449	50	0	0	1	blank2r.bmp	0	1	+	0	1	blank2r.bmp	492	1	BZZB	492	1	blank2r.bmp	572	3	rächen	866	1	!	1239	1	!	1346	0	0	0	0	0	0	0	0	0	0	0	0	0	0	0	0	0	0	0	0	0	0	0	0	0	0	0	0	0	0
070919	12:14:42	12:21:38	415069	5.0.10.0	5_exp_RW	29	Rpleas_acq	CS_B	GWWG	VKKV	MQQM	BZZB	YDDY	JXXJ	treu	fair	ehrlich	spielen	schön	retten	tot	faul	eitel	strafen	schlecht	rächen	1	acq_USpleas_CSpleas2_RW	acq4567_RW	4	48	400	0	300	300	530	50	0	1	1	blank2r.bmp	0	1	+	0	1	blank2r.bmp	492	1	VKKV	492	1	blank2r.bmp	572	1	spielen	866	1	!	1239	1	!	-1	0	0	0	0	0	0	0	0	0	0	0	0	0	0	0	0	0	0	0	0	0	0	0	0	0	0	0	0	0	0
070919	12:14:42	12:21:40	417281	5.0.10.0	5_exp_RW	29	Rpleas_acq	CS_B	GWWG	VKKV	MQQM	BZZB	YDDY	JXXJ	treu	fair	ehrlich	spielen	schön	retten	tot	faul	eitel	strafen	schlecht	rächen	1	acq_USpleas_CSpleas2_RW	acq4567_RW	4	49	400	1	300	300	403	46	0	0	1	blank2r.bmp	0	1	+	0	1	blank2r.bmp	492	1	VKKV	492	1	blank2r.bmp	572	2	schön	866	1	!	1239	1	!	1306	0	0	0	0	0	0	0	0	0	0	0	0	0	0	0	0	0	0	0	0	0	0	0	0	0	0	0	0	0	0
070919	12:14:42	12:21:42	419467	5.0.10.0	5_exp_RW	29	Rpleas_acq	CS_B	GWWG	VKKV	MQQM	BZZB	YDDY	JXXJ	treu	fair	ehrlich	spielen	schön	retten	tot	faul	eitel	strafen	schlecht	rächen	1	acq_USunple_CSunple1_RW	acq4567_RW	4	50	400	1	300	300	395	50	0	0	1	blank2r.bmp	0	1	+	0	1	blank2r.bmp	492	1	MQQM	492	1	blank2r.bmp	572	3	eitel	866	1	!	1239	1	!	1292	0	0	0	0	0	0	0	0	0	0	0	0	0	0	0	0	0	0	0	0	0	0	0	0	0	0	0	0	0	0
070919	12:14:42	12:21:44	421720	5.0.10.0	5_exp_RW	29	Rpleas_acq	CS_B	GWWG	VKKV	MQQM	BZZB	YDDY	JXXJ	treu	fair	ehrlich	spielen	schön	retten	tot	faul	eitel	strafen	schlecht	rächen	1	acq_USunple_CSunple2_RW	acq4567_RW	4	51	400	0	300	300	479	46	0	1	1	blank2r.bmp	0	1	+	0	1	blank2r.bmp	492	1	BZZB	492	1	blank2r.bmp	572	2	schlecht	866	1	!	1239	1	!	-1	0	0	0	0	0	0	0	0	0	0	0	0	0	0	0	0	0	0	0	0	0	0	0	0	0	0	0	0	0	0
070919	12:14:42	12:21:47	423945	5.0.10.0	5_exp_RW	29	Rpleas_acq	CS_B	GWWG	VKKV	MQQM	BZZB	YDDY	JXXJ	treu	fair	ehrlich	spielen	schön	retten	tot	faul	eitel	strafen	schlecht	rächen	1	acq_USpleas_CSpleas1_RW	acq4567_RW	4	52	400	1	300	300	425	46	0	0	1	blank2r.bmp	0	1	+	0	1	blank2r.bmp	492	1	GWWG	492	1	blank2r.bmp	572	2	fair	866	1	!	1239	1	!	1319	0	0	0	0	0	0	0	0	0	0	0	0	0	0	0	0	0	0	0	0	0	0	0	0	0	0	0	0	0	0
070919	12:14:42	12:21:49	426145	5.0.10.0	5_exp_RW	29	Rpleas_acq	CS_B	GWWG	VKKV	MQQM	BZZB	YDDY	JXXJ	treu	fair	ehrlich	spielen	schön	retten	tot	faul	eitel	strafen	schlecht	rächen	1	acq_USunple_CSunple2_RW	acq4567_RW	4	53	400	1	300	300	405	50	0	0	1	blank2r.bmp	0	1	+	0	1	blank2r.bmp	492	1	BZZB	492	1	blank2r.bmp	572	1	strafen	866	1	!	1239	1	!	1306	0	0	0	0	0	0	0	0	0	0	0	0	0	0	0	0	0	0	0	0	0	0	0	0	0	0	0	0	0	0
070919	12:14:42	12:21:51	428570	5.0.10.0	5_exp_RW	29	Rpleas_acq	CS_B	GWWG	VKKV	MQQM	BZZB	YDDY	JXXJ	treu	fair	ehrlich	spielen	schön	retten	tot	faul	eitel	strafen	schlecht	rächen	1	acq_USunple_CSunple1_RW	acq4567_RW	4	54	400	0	300	300	664	46	0	1	1	blank2r.bmp	0	1	+	0	1	blank2r.bmp	492	1	MQQM	492	1	blank2r.bmp	572	2	faul	866	1	!	1239	1	!	-1	0	0	0	0	0	0	0	0	0	0	0	0	0	0	0	0	0	0	0	0	0	0	0	0	0	0	0	0	0	0
070919	12:14:42	12:21:53	430689	5.0.10.0	5_exp_RW	29	Rpleas_acq	CS_B	GWWG	VKKV	MQQM	BZZB	YDDY	JXXJ	treu	fair	ehrlich	spielen	schön	retten	tot	faul	eitel	strafen	schlecht	rächen	1	acq_USunple_CSunple2_RW	acq4567_RW	4	55	400	0	300	300	333	50	0	0	1	blank2r.bmp	0	1	+	0	1	blank2r.bmp	492	1	BZZB	492	1	blank2r.bmp	572	1	strafen	866	1	!	-1	1	!	-1	0	0	0	0	0	0	0	0	0	0	0	0	0	0	0	0	0	0	0	0	0	0	0	0	0	0	0	0	0	0
070919	12:14:42	12:21:56	432968	5.0.10.0	5_exp_RW	29	Rpleas_acq	CS_B	GWWG	VKKV	MQQM	BZZB	YDDY	JXXJ	treu	fair	ehrlich	spielen	schön	retten	tot	faul	eitel	strafen	schlecht	rächen	1	acq_USunple_CSunple1_RW	acq4567_RW	4	56	400	0	300	300	501	46	0	1	1	blank2r.bmp	0	1	+	0	1	blank2r.bmp	492	1	MQQM	492	1	blank2r.bmp	572	2	faul	866	1	!	1239	1	!	-1	0	0	0	0	0	0	0	0	0	0	0	0	0	0	0	0	0	0	0	0	0	0	0	0	0	0	0	0	0	0
070919	12:14:42	12:21:58	435034	5.0.10.0	5_exp_RW	29	Rpleas_acq	CS_B	GWWG	VKKV	MQQM	BZZB	YDDY	JXXJ	treu	fair	ehrlich	spielen	schön	retten	tot	faul	eitel	strafen	schlecht	rächen	1	acq_USpleas_CSpleas1_RW	acq4567_RW	4	57	400	0	300	300	287	46	0	0	1	blank2r.bmp	0	1	+	0	1	blank2r.bmp	492	1	GWWG	492	1	blank2r.bmp	572	3	ehrlich	866	1	!	-1	1	!	-1	0	0	0	0	0	0	0	0	0	0	0	0	0	0	0	0	0	0	0	0	0	0	0	0	0	0	0	0	0	0
070919	12:14:42	12:22:00	437300	5.0.10.0	5_exp_RW	29	Rpleas_acq	CS_B	GWWG	VKKV	MQQM	BZZB	YDDY	JXXJ	treu	fair	ehrlich	spielen	schön	retten	tot	faul	eitel	strafen	schlecht	rächen	1	acq_USpleas_CSpleas1_RW	acq4567_RW	4	58	400	1	300	300	442	50	0	1	1	blank2r.bmp	0	1	+	0	1	blank2r.bmp	492	1	GWWG	492	1	blank2r.bmp	572	1	treu	866	1	!	1239	1	!	1346	0	0	0	0	0	0	0	0	0	0	0	0	0	0	0	0	0	0	0	0	0	0	0	0	0	0	0	0	0	0
070919	12:14:42	12:22:02	439619	5.0.10.0	5_exp_RW	29	Rpleas_acq	CS_B	GWWG	VKKV	MQQM	BZZB	YDDY	JXXJ	treu	fair	ehrlich	spielen	schön	retten	tot	faul	eitel	strafen	schlecht	rächen	1	acq_USpleas_CSpleas1_RW	acq4567_RW	4	59	400	0	300	300	554	50	0	1	1	blank2r.bmp	0	1	+	0	1	blank2r.bmp	492	1	GWWG	492	1	blank2r.bmp	572	1	treu	866	1	!	1239	1	!	-1	0	0	0	0	0	0	0	0	0	0	0	0	0	0	0	0	0	0	0	0	0	0	0	0	0	0	0	0	0	0
070919	12:14:42	12:22:04	441711	5.0.10.0	5_exp_RW	29	Rpleas_acq	CS_B	GWWG	VKKV	MQQM	BZZB	YDDY	JXXJ	treu	fair	ehrlich	spielen	schön	retten	tot	faul	eitel	strafen	schlecht	rächen	1	acq_USpleas_CSpleas2_RW	acq4567_RW	4	60	400	0	300	300	292	50	0	1	1	blank2r.bmp	0	1	+	0	1	blank2r.bmp	492	1	VKKV	492	1	blank2r.bmp	572	3	retten	866	1	!	-1	1	!	-1	0	0	0	0	0	0	0	0	0	0	0	0	0	0	0	0	0	0	0	0	0	0	0	0	0	0	0	0	0	0
070919	12:14:42	12:22:07	443937	5.0.10.0	5_exp_RW	29	Rpleas_acq	CS_B	GWWG	VKKV	MQQM	BZZB	YDDY	JXXJ	treu	fair	ehrlich	spielen	schön	retten	tot	faul	eitel	strafen	schlecht	rächen	1	acq_USpleas_CSpleas2_RW	acq4567_RW	4	61	400	1	300	300	412	50	0	1	1	blank2r.bmp	0	1	+	0	1	blank2r.bmp	492	1	VKKV	492	1	blank2r.bmp	572	1	spielen	866	1	!	1239	1	!	1319	0	0	0	0	0	0	0	0	0	0	0	0	0	0	0	0	0	0	0	0	0	0	0	0	0	0	0	0	0	0
070919	12:14:42	12:22:09	446203	5.0.10.0	5_exp_RW	29	Rpleas_acq	CS_B	GWWG	VKKV	MQQM	BZZB	YDDY	JXXJ	treu	fair	ehrlich	spielen	schön	retten	tot	faul	eitel	strafen	schlecht	rächen	1	acq_USpleas_CSpleas1_RW	acq4567_RW	4	62	400	0	300	300	479	50	0	1	1	blank2r.bmp	0	1	+	0	1	blank2r.bmp	492	1	GWWG	492	1	blank2r.bmp	572	2	fair	866	1	!	1239	1	!	-1	0	0	0	0	0	0	0	0	0	0	0	0	0	0	0	0	0	0	0	0	0	0	0	0	0	0	0	0	0	0
070919	12:14:42	12:22:11	448455	5.0.10.0	5_exp_RW	29	Rpleas_acq	CS_B	GWWG	VKKV	MQQM	BZZB	YDDY	JXXJ	treu	fair	ehrlich	spielen	schön	retten	tot	faul	eitel	strafen	schlecht	rächen	1	acq_USpleas_CSpleas1_RW	acq4567_RW	4	63	400	1	300	300	433	50	0	1	1	blank2r.bmp	0	1	+	0	1	blank2r.bmp	492	1	GWWG	492	1	blank2r.bmp	572	3	ehrlich	866	1	!	1239	1	!	1332	0	0	0	0	0	0	0	0	0	0	0	0	0	0	0	0	0	0	0	0	0	0	0	0	0	0	0	0	0	0
070919	12:14:42	12:22:13	450761	5.0.10.0	5_exp_RW	29	Rpleas_acq	CS_B	GWWG	VKKV	MQQM	BZZB	YDDY	JXXJ	treu	fair	ehrlich	spielen	schön	retten	tot	faul	eitel	strafen	schlecht	rächen	1	acq_USunple_CSunple2_RW	acq4567_RW	4	64	400	0	300	300	537	46	0	1	1	blank2r.bmp	0	1	+	0	1	blank2r.bmp	492	1	BZZB	492	1	blank2r.bmp	572	3	rächen	866	1	!	1239	1	!	-1	0	0	0	0	0	0	0	0	0	0	0	0	0	0	0	0	0	0	0	0	0	0	0	0	0	0	0	0	0	0
070919	12:14:42	12:22:16	453014	5.0.10.0	5_exp_RW	29	Rpleas_acq	CS_B	GWWG	VKKV	MQQM	BZZB	YDDY	JXXJ	treu	fair	ehrlich	spielen	schön	retten	tot	faul	eitel	strafen	schlecht	rächen	1	acq_USunple_CSunple2_RW	acq4567_RW	4	65	400	1	300	300	443	46	0	1	1	blank2r.bmp	0	1	+	0	1	blank2r.bmp	492	1	BZZB	492	1	blank2r.bmp	572	2	schlecht	866	1	!	1239	1	!	1346	0	0	0	0	0	0	0	0	0	0	0	0	0	0	0	0	0	0	0	0	0	0	0	0	0	0	0	0	0	0
070919	12:14:42	12:22:18	455213	5.0.10.0	5_exp_RW	29	Rpleas_acq	CS_B	GWWG	VKKV	MQQM	BZZB	YDDY	JXXJ	treu	fair	ehrlich	spielen	schön	retten	tot	faul	eitel	strafen	schlecht	rächen	1	acq_USpleas_CSpleas1_RW	acq4567_RW	4	66	400	1	300	300	407	46	0	0	1	blank2r.bmp	0	1	+	0	1	blank2r.bmp	492	1	GWWG	492	1	blank2r.bmp	572	1	treu	866	1	!	1239	1	!	1306	0	0	0	0	0	0	0	0	0	0	0	0	0	0	0	0	0	0	0	0	0	0	0	0	0	0	0	0	0	0
070919	12:14:42	12:22:20	457478	5.0.10.0	5_exp_RW	29	Rpleas_acq	CS_B	GWWG	VKKV	MQQM	BZZB	YDDY	JXXJ	treu	fair	ehrlich	spielen	schön	retten	tot	faul	eitel	strafen	schlecht	rächen	1	acq_USpleas_CSpleas1_RW	acq4567_RW	4	67	400	1	300	300	466	50	0	1	1	blank2r.bmp	0	1	+	0	1	blank2r.bmp	492	1	GWWG	492	1	blank2r.bmp	572	2	fair	866	1	!	1239	1	!	1372	0	0	0	0	0	0	0	0	0	0	0	0	0	0	0	0	0	0	0	0	0	0	0	0	0	0	0	0	0	0
070919	12:14:42	12:22:22	459677	5.0.10.0	5_exp_RW	29	Rpleas_acq	CS_B	GWWG	VKKV	MQQM	BZZB	YDDY	JXXJ	treu	fair	ehrlich	spielen	schön	retten	tot	faul	eitel	strafen	schlecht	rächen	1	acq_USunple_CSunple2_RW	acq4567_RW	4	68	400	1	300	300	391	46	0	1	1	blank2r.bmp	0	1	+	0	1	blank2r.bmp	492	1	BZZB	492	1	blank2r.bmp	572	3	rächen	866	1	!	1239	1	!	1292	0	0	0	0	0	0	0	0	0	0	0	0	0	0	0	0	0	0	0	0	0	0	0	0	0	0	0	0	0	0
070919	12:14:42	12:22:25	461837	5.0.10.0	5_exp_RW	29	Rpleas_acq	CS_B	GWWG	VKKV	MQQM	BZZB	YDDY	JXXJ	treu	fair	ehrlich	spielen	schön	retten	tot	faul	eitel	strafen	schlecht	rächen	1	acq_USpleas_CSpleas1_RW	acq4567_RW	4	69	400	1	300	300	346	50	0	1	1	blank2r.bmp	0	1	+	0	1	blank2r.bmp	492	1	GWWG	492	1	blank2r.bmp	572	3	ehrlich	866	1	!	1239	1	!	1252	0	0	0	0	0	0	0	0	0	0	0	0	0	0	0	0	0	0	0	0	0	0	0	0	0	0	0	0	0	0
070919	12:14:42	12:22:27	464089	5.0.10.0	5_exp_RW	29	Rpleas_acq	CS_B	GWWG	VKKV	MQQM	BZZB	YDDY	JXXJ	treu	fair	ehrlich	spielen	schön	retten	tot	faul	eitel	strafen	schlecht	rächen	1	acq_USunple_CSunple1_RW	acq4567_RW	4	70	400	0	300	300	484	46	0	1	1	blank2r.bmp	0	1	+	0	1	blank2r.bmp	492	1	MQQM	492	1	blank2r.bmp	572	3	eitel	866	1	!	1239	1	!	-1	0	0	0	0	0	0	0	0	0	0	0	0	0	0	0	0	0	0	0	0	0	0	0	0	0	0	0	0	0	0
070919	12:14:42	12:22:29	466248	5.0.10.0	5_exp_RW	29	Rpleas_acq	CS_B	GWWG	VKKV	MQQM	BZZB	YDDY	JXXJ	treu	fair	ehrlich	spielen	schön	retten	tot	faul	eitel	strafen	schlecht	rächen	1	acq_USunple_CSunple1_RW	acq4567_RW	4	71	400	1	300	300	356	50	0	0	1	blank2r.bmp	0	1	+	0	1	blank2r.bmp	492	1	MQQM	492	1	blank2r.bmp	572	1	tot	866	1	!	1239	1	!	1252	0	0	0	0	0	0	0	0	0	0	0	0	0	0	0	0	0	0	0	0	0	0	0	0	0	0	0	0	0	0
070919	12:14:42	12:22:31	468447	5.0.10.0	5_exp_RW	29	Rpleas_acq	CS_B	GWWG	VKKV	MQQM	BZZB	YDDY	JXXJ	treu	fair	ehrlich	spielen	schön	retten	tot	faul	eitel	strafen	schlecht	rächen	1	acq_USunple_CSunple1_RW	acq4567_RW	4	72	400	1	300	300	410	50	0	0	1	blank2r.bmp	0	1	+	0	1	blank2r.bmp	492	1	MQQM	492	1	blank2r.bmp	572	2	faul	866	1	!	1239	1	!	1306	0	0	0	0	0	0	0	0	0	0	0	0	0	0	0	0	0	0	0	0	0	0	0	0	0	0	0	0	0	0
070919	12:14:42	12:22:33	470500	5.0.10.0	5_exp_RW	29	Rpleas_acq	CS_B	GWWG	VKKV	MQQM	BZZB	YDDY	JXXJ	treu	fair	ehrlich	spielen	schön	retten	tot	faul	eitel	strafen	schlecht	rächen	1	acq_USunple_CSunple2_RW	acq4567_RW	4	73	400	0	300	300	265	46	0	1	1	blank2r.bmp	0	1	+	0	1	blank2r.bmp	492	1	BZZB	492	1	blank2r.bmp	572	1	strafen	866	1	!	-1	1	!	-1	0	0	0	0	0	0	0	0	0	0	0	0	0	0	0	0	0	0	0	0	0	0	0	0	0	0	0	0	0	0
070919	12:14:42	12:22:35	472659	5.0.10.0	5_exp_RW	29	Rpleas_acq	CS_B	GWWG	VKKV	MQQM	BZZB	YDDY	JXXJ	treu	fair	ehrlich	spielen	schön	retten	tot	faul	eitel	strafen	schlecht	rächen	1	acq_USunple_CSunple1_RW	acq4567_RW	4	74	400	1	300	300	356	46	0	1	1	blank2r.bmp	0	1	+	0	1	blank2r.bmp	492	1	MQQM	492	1	blank2r.bmp	572	3	eitel	866	1	!	1239	1	!	1252	0	0	0	0	0	0	0	0	0	0	0	0	0	0	0	0	0	0	0	0	0	0	0	0	0	0	0	0	0	0
070919	12:14:42	12:22:37	474751	5.0.10.0	5_exp_RW	29	Rpleas_acq	CS_B	GWWG	VKKV	MQQM	BZZB	YDDY	JXXJ	treu	fair	ehrlich	spielen	schön	retten	tot	faul	eitel	strafen	schlecht	rächen	1	acq_USunple_CSunple2_RW	acq4567_RW	4	75	400	0	300	300	315	46	0	1	1	blank2r.bmp	0	1	+	0	1	blank2r.bmp	492	1	BZZB	492	1	blank2r.bmp	572	2	schlecht	866	1	!	-1	1	!	-1	0	0	0	0	0	0	0	0	0	0	0	0	0	0	0	0	0	0	0	0	0	0	0	0	0	0	0	0	0	0
070919	12:14:42	12:22:40	477057	5.0.10.0	5_exp_RW	29	Rpleas_acq	CS_B	GWWG	VKKV	MQQM	BZZB	YDDY	JXXJ	treu	fair	ehrlich	spielen	schön	retten	tot	faul	eitel	strafen	schlecht	rächen	1	acq_USpleas_CSpleas2_RW	acq4567_RW	4	76	400	0	300	300	512	50	0	1	1	blank2r.bmp	0	1	+	0	1	blank2r.bmp	492	1	VKKV	492	1	blank2r.bmp	572	2	schön	866	1	!	1239	1	!	-1	0	0	0	0	0	0	0	0	0	0	0	0	0	0	0	0	0	0	0	0	0	0	0	0	0	0	0	0	0	0
070919	12:14:42	12:22:42	479229	5.0.10.0	5_exp_RW	29	Rpleas_acq	CS_B	GWWG	VKKV	MQQM	BZZB	YDDY	JXXJ	treu	fair	ehrlich	spielen	schön	retten	tot	faul	eitel	strafen	schlecht	rächen	1	acq_USunple_CSunple1_RW	acq4567_RW	4	77	400	1	300	300	367	46	0	1	1	blank2r.bmp	0	1	+	0	1	blank2r.bmp	492	1	MQQM	492	1	blank2r.bmp	572	1	tot	866	1	!	1239	1	!	1266	0	0	0	0	0	0	0	0	0	0	0	0	0	0	0	0	0	0	0	0	0	0	0	0	0	0	0	0	0	0
070919	12:14:42	12:22:44	481282	5.0.10.0	5_exp_RW	29	Rpleas_acq	CS_B	GWWG	VKKV	MQQM	BZZB	YDDY	JXXJ	treu	fair	ehrlich	spielen	schön	retten	tot	faul	eitel	strafen	schlecht	rächen	1	acq_USpleas_CSpleas2_RW	acq4567_RW	4	78	400	0	300	300	278	46	0	0	1	blank2r.bmp	0	1	+	0	1	blank2r.bmp	492	1	VKKV	492	1	blank2r.bmp	572	2	schön	866	1	!	-1	1	!	-1	0	0	0	0	0	0	0	0	0	0	0	0	0	0	0	0	0	0	0	0	0	0	0	0	0	0	0	0	0	0
070919	12:14:42	12:22:46	483308	5.0.10.0	5_exp_RW	29	Rpleas_acq	CS_B	GWWG	VKKV	MQQM	BZZB	YDDY	JXXJ	treu	fair	ehrlich	spielen	schön	retten	tot	faul	eitel	strafen	schlecht	rächen	1	acq_USpleas_CSpleas2_RW	acq4567_RW	4	79	400	0	300	300	250	50	0	1	1	blank2r.bmp	0	1	+	0	1	blank2r.bmp	492	1	VKKV	492	1	blank2r.bmp	572	1	spielen	866	1	!	-1	1	!	-1	0	0	0	0	0	0	0	0	0	0	0	0	0	0	0	0	0	0	0	0	0	0	0	0	0	0	0	0	0	0
070919	12:14:42	12:22:48	485507	5.0.10.0	5_exp_RW	29	Rpleas_acq	CS_B	GWWG	VKKV	MQQM	BZZB	YDDY	JXXJ	treu	fair	ehrlich	spielen	schön	retten	tot	faul	eitel	strafen	schlecht	rächen	1	acq_USpleas_CSpleas2_RW	acq4567_RW	4	80	400	1	300	300	395	50	0	1	1	blank2r.bmp	0	1	+	0	1	blank2r.bmp	492	1	VKKV	492	1	blank2r.bmp	572	3	retten	866	1	!	1239	1	!	1292	0	0	0	0	0	0	0	0	0	0	0	0	0	0	0	0	0	0	0	0	0	0	0	0	0	0	0	0	0	0
070919	12:14:42	12:23:08	504979	5.0.10.0	5_exp_RW	29	Rpleas_acq	CS_B	GWWG	VKKV	MQQM	BZZB	YDDY	JXXJ	treu	fair	ehrlich	spielen	schön	retten	tot	faul	eitel	strafen	schlecht	rächen	1	acq_USpleas_CSpleas2_RW	acq4567_RW	5	1	400	1	300	300	427	50	0	1	1	blank2r.bmp	0	1	+	0	1	blank2r.bmp	492	1	VKKV	492	1	blank2r.bmp	572	2	schön	866	1	!	1239	1	!	1332	0	0	0	0	0	0	0	0	0	0	0	0	0	0	0	0	0	0	0	0	0	0	0	0	0	0	0	0	0	0
070919	12:14:42	12:23:10	507138	5.0.10.0	5_exp_RW	29	Rpleas_acq	CS_B	GWWG	VKKV	MQQM	BZZB	YDDY	JXXJ	treu	fair	ehrlich	spielen	schön	retten	tot	faul	eitel	strafen	schlecht	rächen	1	acq_USpleas_CSpleas1_RW	acq4567_RW	5	2	400	1	300	300	357	50	0	1	1	blank2r.bmp	0	1	+	0	1	blank2r.bmp	492	1	GWWG	492	1	blank2r.bmp	572	3	ehrlich	866	1	!	1239	1	!	1252	0	0	0	0	0	0	0	0	0	0	0	0	0	0	0	0	0	0	0	0	0	0	0	0	0	0	0	0	0	0
070919	12:14:42	12:23:12	509404	5.0.10.0	5_exp_RW	29	Rpleas_acq	CS_B	GWWG	VKKV	MQQM	BZZB	YDDY	JXXJ	treu	fair	ehrlich	spielen	schön	retten	tot	faul	eitel	strafen	schlecht	rächen	1	acq_USunple_CSunple1_RW	acq4567_RW	5	3	400	0	300	300	497	46	0	1	1	blank2r.bmp	0	1	+	0	1	blank2r.bmp	492	1	MQQM	492	1	blank2r.bmp	572	3	eitel	866	1	!	1239	1	!	-1	0	0	0	0	0	0	0	0	0	0	0	0	0	0	0	0	0	0	0	0	0	0	0	0	0	0	0	0	0	0
070919	12:14:42	12:23:14	511590	5.0.10.0	5_exp_RW	29	Rpleas_acq	CS_B	GWWG	VKKV	MQQM	BZZB	YDDY	JXXJ	treu	fair	ehrlich	spielen	schön	retten	tot	faul	eitel	strafen	schlecht	rächen	1	acq_USunple_CSunple2_RW	acq4567_RW	5	4	400	1	300	300	381	46	0	1	1	blank2r.bmp	0	1	+	0	1	blank2r.bmp	492	1	BZZB	492	1	blank2r.bmp	572	3	rächen	866	1	!	1239	1	!	1279	0	0	0	0	0	0	0	0	0	0	0	0	0	0	0	0	0	0	0	0	0	0	0	0	0	0	0	0	0	0
070919	12:14:42	12:23:17	513842	5.0.10.0	5_exp_RW	29	Rpleas_acq	CS_B	GWWG	VKKV	MQQM	BZZB	YDDY	JXXJ	treu	fair	ehrlich	spielen	schön	retten	tot	faul	eitel	strafen	schlecht	rächen	1	acq_USpleas_CSpleas2_RW	acq4567_RW	5	5	400	0	300	300	483	50	0	1	1	blank2r.bmp	0	1	+	0	1	blank2r.bmp	492	1	VKKV	492	1	blank2r.bmp	572	3	retten	866	1	!	1239	1	!	-1	0	0	0	0	0	0	0	0	0	0	0	0	0	0	0	0	0	0	0	0	0	0	0	0	0	0	0	0	0	0
070919	12:14:42	12:23:19	515948	5.0.10.0	5_exp_RW	29	Rpleas_acq	CS_B	GWWG	VKKV	MQQM	BZZB	YDDY	JXXJ	treu	fair	ehrlich	spielen	schön	retten	tot	faul	eitel	strafen	schlecht	rächen	1	acq_USpleas_CSpleas2_RW	acq4567_RW	5	6	400	0	300	300	327	50	0	1	1	blank2r.bmp	0	1	+	0	1	blank2r.bmp	492	1	VKKV	492	1	blank2r.bmp	572	1	spielen	866	1	!	-1	1	!	-1	0	0	0	0	0	0	0	0	0	0	0	0	0	0	0	0	0	0	0	0	0	0	0	0	0	0	0	0	0	0
070919	12:14:42	12:23:21	518187	5.0.10.0	5_exp_RW	29	Rpleas_acq	CS_B	GWWG	VKKV	MQQM	BZZB	YDDY	JXXJ	treu	fair	ehrlich	spielen	schön	retten	tot	faul	eitel	strafen	schlecht	rächen	1	acq_USpleas_CSpleas2_RW	acq4567_RW	5	7	400	1	300	300	425	50	0	1	1	blank2r.bmp	0	1	+	0	1	blank2r.bmp	492	1	VKKV	492	1	blank2r.bmp	572	1	spielen	866	1	!	1239	1	!	1332	0	0	0	0	0	0	0	0	0	0	0	0	0	0	0	0	0	0	0	0	0	0	0	0	0	0	0	0	0	0
070919	12:14:42	12:23:23	520413	5.0.10.0	5_exp_RW	29	Rpleas_acq	CS_B	GWWG	VKKV	MQQM	BZZB	YDDY	JXXJ	treu	fair	ehrlich	spielen	schön	retten	tot	faul	eitel	strafen	schlecht	rächen	1	acq_USpleas_CSpleas1_RW	acq4567_RW	5	8	400	1	300	300	433	50	0	1	1	blank2r.bmp	0	1	+	0	1	blank2r.bmp	492	1	GWWG	492	1	blank2r.bmp	572	1	treu	866	1	!	1239	1	!	1332	0	0	0	0	0	0	0	0	0	0	0	0	0	0	0	0	0	0	0	0	0	0	0	0	0	0	0	0	0	0
070919	12:14:42	12:23:25	522625	5.0.10.0	5_exp_RW	29	Rpleas_acq	CS_B	GWWG	VKKV	MQQM	BZZB	YDDY	JXXJ	treu	fair	ehrlich	spielen	schön	retten	tot	faul	eitel	strafen	schlecht	rächen	1	acq_USunple_CSunple1_RW	acq4567_RW	5	9	400	1	300	300	416	46	0	1	1	blank2r.bmp	0	1	+	0	1	blank2r.bmp	492	1	MQQM	492	1	blank2r.bmp	572	1	tot	866	1	!	1239	1	!	1319	0	0	0	0	0	0	0	0	0	0	0	0	0	0	0	0	0	0	0	0	0	0	0	0	0	0	0	0	0	0
070919	12:14:42	12:23:28	524931	5.0.10.0	5_exp_RW	29	Rpleas_acq	CS_B	GWWG	VKKV	MQQM	BZZB	YDDY	JXXJ	treu	fair	ehrlich	spielen	schön	retten	tot	faul	eitel	strafen	schlecht	rächen	1	acq_USunple_CSunple2_RW	acq4567_RW	5	10	400	0	300	300	526	50	0	0	1	blank2r.bmp	0	1	+	0	1	blank2r.bmp	492	1	BZZB	492	1	blank2r.bmp	572	1	strafen	866	1	!	1239	1	!	-1	0	0	0	0	0	0	0	0	0	0	0	0	0	0	0	0	0	0	0	0	0	0	0	0	0	0	0	0	0	0
070919	12:14:42	12:23:30	527196	5.0.10.0	5_exp_RW	29	Rpleas_acq	CS_B	GWWG	VKKV	MQQM	BZZB	YDDY	JXXJ	treu	fair	ehrlich	spielen	schön	retten	tot	faul	eitel	strafen	schlecht	rächen	1	acq_USpleas_CSpleas1_RW	acq4567_RW	5	11	400	1	300	300	464	50	0	1	1	blank2r.bmp	0	1	+	0	1	blank2r.bmp	492	1	GWWG	492	1	blank2r.bmp	572	2	fair	866	1	!	1239	1	!	1359	0	0	0	0	0	0	0	0	0	0	0	0	0	0	0	0	0	0	0	0	0	0	0	0	0	0	0	0	0	0
070919	12:14:42	12:23:32	529449	5.0.10.0	5_exp_RW	29	Rpleas_acq	CS_B	GWWG	VKKV	MQQM	BZZB	YDDY	JXXJ	treu	fair	ehrlich	spielen	schön	retten	tot	faul	eitel	strafen	schlecht	rächen	1	acq_USunple_CSunple2_RW	acq4567_RW	5	12	400	0	300	300	479	46	0	1	1	blank2r.bmp	0	1	+	0	1	blank2r.bmp	492	1	BZZB	492	1	blank2r.bmp	572	2	schlecht	866	1	!	1239	1	!	-1	0	0	0	0	0	0	0	0	0	0	0	0	0	0	0	0	0	0	0	0	0	0	0	0	0	0	0	0	0	0
070919	12:14:42	12:23:34	531608	5.0.10.0	5_exp_RW	29	Rpleas_acq	CS_B	GWWG	VKKV	MQQM	BZZB	YDDY	JXXJ	treu	fair	ehrlich	spielen	schön	retten	tot	faul	eitel	strafen	schlecht	rächen	1	acq_USunple_CSunple1_RW	acq4567_RW	5	13	400	1	300	300	346	46	0	1	1	blank2r.bmp	0	1	+	0	1	blank2r.bmp	492	1	MQQM	492	1	blank2r.bmp	572	2	faul	866	1	!	1239	1	!	1252	0	0	0	0	0	0	0	0	0	0	0	0	0	0	0	0	0	0	0	0	0	0	0	0	0	0	0	0	0	0
070919	12:14:42	12:23:37	533874	5.0.10.0	5_exp_RW	29	Rpleas_acq	CS_B	GWWG	VKKV	MQQM	BZZB	YDDY	JXXJ	treu	fair	ehrlich	spielen	schön	retten	tot	faul	eitel	strafen	schlecht	rächen	1	acq_USpleas_CSpleas1_RW	acq4567_RW	5	14	400	1	300	300	461	50	0	1	1	blank2r.bmp	0	1	+	0	1	blank2r.bmp	492	1	GWWG	492	1	blank2r.bmp	572	1	treu	866	1	!	1239	1	!	1359	0	0	0	0	0	0	0	0	0	0	0	0	0	0	0	0	0	0	0	0	0	0	0	0	0	0	0	0	0	0
070919	12:14:42	12:23:39	536219	5.0.10.0	5_exp_RW	29	Rpleas_acq	CS_B	GWWG	VKKV	MQQM	BZZB	YDDY	JXXJ	treu	fair	ehrlich	spielen	schön	retten	tot	faul	eitel	strafen	schlecht	rächen	1	acq_USunple_CSunple1_RW	acq4567_RW	5	15	400	0	300	300	581	50	0	0	1	blank2r.bmp	0	1	+	0	1	blank2r.bmp	492	1	MQQM	492	1	blank2r.bmp	572	3	eitel	866	1	!	1239	1	!	-1	0	0	0	0	0	0	0	0	0	0	0	0	0	0	0	0	0	0	0	0	0	0	0	0	0	0	0	0	0	0
070919	12:14:42	12:23:41	538312	5.0.10.0	5_exp_RW	29	Rpleas_acq	CS_B	GWWG	VKKV	MQQM	BZZB	YDDY	JXXJ	treu	fair	ehrlich	spielen	schön	retten	tot	faul	eitel	strafen	schlecht	rächen	1	acq_USunple_CSunple2_RW	acq4567_RW	5	16	400	0	300	300	306	46	0	1	1	blank2r.bmp	0	1	+	0	1	blank2r.bmp	492	1	BZZB	492	1	blank2r.bmp	572	3	rächen	866	1	!	-1	1	!	-1	0	0	0	0	0	0	0	0	0	0	0	0	0	0	0	0	0	0	0	0	0	0	0	0	0	0	0	0	0	0
070919	12:14:42	12:23:43	540591	5.0.10.0	5_exp_RW	29	Rpleas_acq	CS_B	GWWG	VKKV	MQQM	BZZB	YDDY	JXXJ	treu	fair	ehrlich	spielen	schön	retten	tot	faul	eitel	strafen	schlecht	rächen	1	acq_USpleas_CSpleas2_RW	acq4567_RW	5	17	400	0	300	300	495	46	0	0	1	blank2r.bmp	0	1	+	0	1	blank2r.bmp	492	1	VKKV	492	1	blank2r.bmp	572	3	retten	866	1	!	1239	1	!	-1	0	0	0	0	0	0	0	0	0	0	0	0	0	0	0	0	0	0	0	0	0	0	0	0	0	0	0	0	0	0
070919	12:14:42	12:23:46	542817	5.0.10.0	5_exp_RW	29	Rpleas_acq	CS_B	GWWG	VKKV	MQQM	BZZB	YDDY	JXXJ	treu	fair	ehrlich	spielen	schön	retten	tot	faul	eitel	strafen	schlecht	rächen	1	acq_USpleas_CSpleas1_RW	acq4567_RW	5	18	400	1	300	300	415	50	0	1	1	blank2r.bmp	0	1	+	0	1	blank2r.bmp	492	1	GWWG	492	1	blank2r.bmp	572	2	fair	866	1	!	1239	1	!	1319	0	0	0	0	0	0	0	0	0	0	0	0	0	0	0	0	0	0	0	0	0	0	0	0	0	0	0	0	0	0
070919	12:14:42	12:23:48	545016	5.0.10.0	5_exp_RW	29	Rpleas_acq	CS_B	GWWG	VKKV	MQQM	BZZB	YDDY	JXXJ	treu	fair	ehrlich	spielen	schön	retten	tot	faul	eitel	strafen	schlecht	rächen	1	acq_USunple_CSunple1_RW	acq4567_RW	5	19	400	1	300	300	406	46	0	1	1	blank2r.bmp	0	1	+	0	1	blank2r.bmp	492	1	MQQM	492	1	blank2r.bmp	572	1	tot	866	1	!	1239	1	!	1306	0	0	0	0	0	0	0	0	0	0	0	0	0	0	0	0	0	0	0	0	0	0	0	0	0	0	0	0	0	0
070919	12:14:42	12:23:50	547228	5.0.10.0	5_exp_RW	29	Rpleas_acq	CS_B	GWWG	VKKV	MQQM	BZZB	YDDY	JXXJ	treu	fair	ehrlich	spielen	schön	retten	tot	faul	eitel	strafen	schlecht	rächen	1	acq_USunple_CSunple2_RW	acq4567_RW	5	20	400	1	300	300	413	46	0	1	1	blank2r.bmp	0	1	+	0	1	blank2r.bmp	492	1	BZZB	492	1	blank2r.bmp	572	1	strafen	866	1	!	1239	1	!	1319	0	0	0	0	0	0	0	0	0	0	0	0	0	0	0	0	0	0	0	0	0	0	0	0	0	0	0	0	0	0
070919	12:14:42	12:23:52	549414	5.0.10.0	5_exp_RW	29	Rpleas_acq	CS_B	GWWG	VKKV	MQQM	BZZB	YDDY	JXXJ	treu	fair	ehrlich	spielen	schön	retten	tot	faul	eitel	strafen	schlecht	rächen	1	acq_USpleas_CSpleas2_RW	acq4567_RW	5	21	400	1	300	300	395	50	0	1	1	blank2r.bmp	0	1	+	0	1	blank2r.bmp	492	1	VKKV	492	1	blank2r.bmp	572	2	schön	866	1	!	1239	1	!	1292	0	0	0	0	0	0	0	0	0	0	0	0	0	0	0	0	0	0	0	0	0	0	0	0	0	0	0	0	0	0
070919	12:14:42	12:23:54	551666	5.0.10.0	5_exp_RW	29	Rpleas_acq	CS_B	GWWG	VKKV	MQQM	BZZB	YDDY	JXXJ	treu	fair	ehrlich	spielen	schön	retten	tot	faul	eitel	strafen	schlecht	rächen	1	acq_USpleas_CSpleas1_RW	acq4567_RW	5	22	400	0	300	300	484	50	0	1	1	blank2r.bmp	0	1	+	0	1	blank2r.bmp	492	1	GWWG	492	1	blank2r.bmp	572	3	ehrlich	866	1	!	1239	1	!	-1	0	0	0	0	0	0	0	0	0	0	0	0	0	0	0	0	0	0	0	0	0	0	0	0	0	0	0	0	0	0
070919	12:14:42	12:23:57	553946	5.0.10.0	5_exp_RW	29	Rpleas_acq	CS_B	GWWG	VKKV	MQQM	BZZB	YDDY	JXXJ	treu	fair	ehrlich	spielen	schön	retten	tot	faul	eitel	strafen	schlecht	rächen	1	acq_USpleas_CSpleas2_RW	acq4567_RW	5	23	400	0	300	300	493	50	0	1	1	blank2r.bmp	0	1	+	0	1	blank2r.bmp	492	1	VKKV	492	1	blank2r.bmp	572	1	spielen	866	1	!	1239	1	!	-1	0	0	0	0	0	0	0	0	0	0	0	0	0	0	0	0	0	0	0	0	0	0	0	0	0	0	0	0	0	0
070919	12:14:42	12:23:59	556065	5.0.10.0	5_exp_RW	29	Rpleas_acq	CS_B	GWWG	VKKV	MQQM	BZZB	YDDY	JXXJ	treu	fair	ehrlich	spielen	schön	retten	tot	faul	eitel	strafen	schlecht	rächen	1	acq_USunple_CSunple1_RW	acq4567_RW	5	24	400	0	300	300	332	46	0	1	1	blank2r.bmp	0	1	+	0	1	blank2r.bmp	492	1	MQQM	492	1	blank2r.bmp	572	2	faul	866	1	!	-1	1	!	-1	0	0	0	0	0	0	0	0	0	0	0	0	0	0	0	0	0	0	0	0	0	0	0	0	0	0	0	0	0	0
070919	12:14:42	12:24:01	558330	5.0.10.0	5_exp_RW	29	Rpleas_acq	CS_B	GWWG	VKKV	MQQM	BZZB	YDDY	JXXJ	treu	fair	ehrlich	spielen	schön	retten	tot	faul	eitel	strafen	schlecht	rächen	1	acq_USunple_CSunple2_RW	acq4567_RW	5	25	400	0	300	300	479	46	0	1	1	blank2r.bmp	0	1	+	0	1	blank2r.bmp	492	1	BZZB	492	1	blank2r.bmp	572	2	schlecht	866	1	!	1239	1	!	-1	0	0	0	0	0	0	0	0	0	0	0	0	0	0	0	0	0	0	0	0	0	0	0	0	0	0	0	0	0	0
070919	12:14:42	12:24:03	560516	5.0.10.0	5_exp_RW	29	Rpleas_acq	CS_B	GWWG	VKKV	MQQM	BZZB	YDDY	JXXJ	treu	fair	ehrlich	spielen	schön	retten	tot	faul	eitel	strafen	schlecht	rächen	1	acq_USunple_CSunple2_RW	acq4567_RW	5	26	400	1	300	300	384	46	0	1	1	blank2r.bmp	0	1	+	0	1	blank2r.bmp	492	1	BZZB	492	1	blank2r.bmp	572	3	rächen	866	1	!	1239	1	!	1279	0	0	0	0	0	0	0	0	0	0	0	0	0	0	0	0	0	0	0	0	0	0	0	0	0	0	0	0	0	0
070919	12:14:42	12:24:05	562755	5.0.10.0	5_exp_RW	29	Rpleas_acq	CS_B	GWWG	VKKV	MQQM	BZZB	YDDY	JXXJ	treu	fair	ehrlich	spielen	schön	retten	tot	faul	eitel	strafen	schlecht	rächen	1	acq_USpleas_CSpleas1_RW	acq4567_RW	5	27	400	1	300	300	437	50	0	1	1	blank2r.bmp	0	1	+	0	1	blank2r.bmp	492	1	GWWG	492	1	blank2r.bmp	572	2	fair	866	1	!	1239	1	!	1332	0	0	0	0	0	0	0	0	0	0	0	0	0	0	0	0	0	0	0	0	0	0	0	0	0	0	0	0	0	0
070919	12:14:42	12:24:08	564941	5.0.10.0	5_exp_RW	29	Rpleas_acq	CS_B	GWWG	VKKV	MQQM	BZZB	YDDY	JXXJ	treu	fair	ehrlich	spielen	schön	retten	tot	faul	eitel	strafen	schlecht	rächen	1	acq_USunple_CSunple2_RW	acq4567_RW	5	28	400	1	300	300	387	46	0	1	1	blank2r.bmp	0	1	+	0	1	blank2r.bmp	492	1	BZZB	492	1	blank2r.bmp	572	2	schlecht	866	1	!	1239	1	!	1292	0	0	0	0	0	0	0	0	0	0	0	0	0	0	0	0	0	0	0	0	0	0	0	0	0	0	0	0	0	0
070919	12:14:42	12:24:10	567153	5.0.10.0	5_exp_RW	29	Rpleas_acq	CS_B	GWWG	VKKV	MQQM	BZZB	YDDY	JXXJ	treu	fair	ehrlich	spielen	schön	retten	tot	faul	eitel	strafen	schlecht	rächen	1	acq_USpleas_CSpleas1_RW	acq4567_RW	5	29	400	1	300	300	421	50	0	1	1	blank2r.bmp	0	1	+	0	1	blank2r.bmp	492	1	GWWG	492	1	blank2r.bmp	572	1	treu	866	1	!	1239	1	!	1319	0	0	0	0	0	0	0	0	0	0	0	0	0	0	0	0	0	0	0	0	0	0	0	0	0	0	0	0	0	0
070919	12:14:42	12:24:12	569366	5.0.10.0	5_exp_RW	29	Rpleas_acq	CS_B	GWWG	VKKV	MQQM	BZZB	YDDY	JXXJ	treu	fair	ehrlich	spielen	schön	retten	tot	faul	eitel	strafen	schlecht	rächen	1	acq_USpleas_CSpleas2_RW	acq4567_RW	5	30	400	1	300	300	416	50	0	1	1	blank2r.bmp	0	1	+	0	1	blank2r.bmp	492	1	VKKV	492	1	blank2r.bmp	572	2	schön	866	1	!	1239	1	!	1319	0	0	0	0	0	0	0	0	0	0	0	0	0	0	0	0	0	0	0	0	0	0	0	0	0	0	0	0	0	0
070919	12:14:42	12:24:14	571512	5.0.10.0	5_exp_RW	29	Rpleas_acq	CS_B	GWWG	VKKV	MQQM	BZZB	YDDY	JXXJ	treu	fair	ehrlich	spielen	schön	retten	tot	faul	eitel	strafen	schlecht	rächen	1	acq_USunple_CSunple2_RW	acq4567_RW	5	31	400	1	300	300	346	46	0	1	1	blank2r.bmp	0	1	+	0	1	blank2r.bmp	492	1	BZZB	492	1	blank2r.bmp	572	1	strafen	866	1	!	1239	1	!	1252	0	0	0	0	0	0	0	0	0	0	0	0	0	0	0	0	0	0	0	0	0	0	0	0	0	0	0	0	0	0
070919	12:14:42	12:24:16	573671	5.0.10.0	5_exp_RW	29	Rpleas_acq	CS_B	GWWG	VKKV	MQQM	BZZB	YDDY	JXXJ	treu	fair	ehrlich	spielen	schön	retten	tot	faul	eitel	strafen	schlecht	rächen	1	acq_USunple_CSunple2_RW	acq4567_RW	5	32	400	1	300	300	364	46	0	1	1	blank2r.bmp	0	1	+	0	1	blank2r.bmp	492	1	BZZB	492	1	blank2r.bmp	572	2	schlecht	866	1	!	1239	1	!	1266	0	0	0	0	0	0	0	0	0	0	0	0	0	0	0	0	0	0	0	0	0	0	0	0	0	0	0	0	0	0
070919	12:14:42	12:24:19	575923	5.0.10.0	5_exp_RW	29	Rpleas_acq	CS_B	GWWG	VKKV	MQQM	BZZB	YDDY	JXXJ	treu	fair	ehrlich	spielen	schön	retten	tot	faul	eitel	strafen	schlecht	rächen	1	acq_USpleas_CSpleas1_RW	acq4567_RW	5	33	400	0	300	300	482	50	0	1	1	blank2r.bmp	0	1	+	0	1	blank2r.bmp	492	1	GWWG	492	1	blank2r.bmp	572	3	ehrlich	866	1	!	1239	1	!	-1	0	0	0	0	0	0	0	0	0	0	0	0	0	0	0	0	0	0	0	0	0	0	0	0	0	0	0	0	0	0
070919	12:14:42	12:24:21	578136	5.0.10.0	5_exp_RW	29	Rpleas_acq	CS_B	GWWG	VKKV	MQQM	BZZB	YDDY	JXXJ	treu	fair	ehrlich	spielen	schön	retten	tot	faul	eitel	strafen	schlecht	rächen	1	acq_USunple_CSunple1_RW	acq4567_RW	5	34	400	1	300	300	402	46	0	1	1	blank2r.bmp	0	1	+	0	1	blank2r.bmp	492	1	MQQM	492	1	blank2r.bmp	572	1	tot	866	1	!	1239	1	!	1306	0	0	0	0	0	0	0	0	0	0	0	0	0	0	0	0	0	0	0	0	0	0	0	0	0	0	0	0	0	0
070919	12:14:42	12:24:23	580308	5.0.10.0	5_exp_RW	29	Rpleas_acq	CS_B	GWWG	VKKV	MQQM	BZZB	YDDY	JXXJ	treu	fair	ehrlich	spielen	schön	retten	tot	faul	eitel	strafen	schlecht	rächen	1	acq_USpleas_CSpleas1_RW	acq4567_RW	5	35	400	1	300	300	379	50	0	1	1	blank2r.bmp	0	1	+	0	1	blank2r.bmp	492	1	GWWG	492	1	blank2r.bmp	572	2	fair	866	1	!	1239	1	!	1279	0	0	0	0	0	0	0	0	0	0	0	0	0	0	0	0	0	0	0	0	0	0	0	0	0	0	0	0	0	0
070919	12:14:42	12:24:25	582494	5.0.10.0	5_exp_RW	29	Rpleas_acq	CS_B	GWWG	VKKV	MQQM	BZZB	YDDY	JXXJ	treu	fair	ehrlich	spielen	schön	retten	tot	faul	eitel	strafen	schlecht	rächen	1	acq_USunple_CSunple1_RW	acq4567_RW	5	36	400	1	300	300	397	46	0	1	1	blank2r.bmp	0	1	+	0	1	blank2r.bmp	492	1	MQQM	492	1	blank2r.bmp	572	3	eitel	866	1	!	1239	1	!	1292	0	0	0	0	0	0	0	0	0	0	0	0	0	0	0	0	0	0	0	0	0	0	0	0	0	0	0	0	0	0
070919	12:14:42	12:24:27	584720	5.0.10.0	5_exp_RW	29	Rpleas_acq	CS_B	GWWG	VKKV	MQQM	BZZB	YDDY	JXXJ	treu	fair	ehrlich	spielen	schön	retten	tot	faul	eitel	strafen	schlecht	rächen	1	acq_USunple_CSunple1_RW	acq4567_RW	5	37	400	1	300	300	438	46	0	1	1	blank2r.bmp	0	1	+	0	1	blank2r.bmp	492	1	MQQM	492	1	blank2r.bmp	572	2	faul	866	1	!	1239	1	!	1332	0	0	0	0	0	0	0	0	0	0	0	0	0	0	0	0	0	0	0	0	0	0	0	0	0	0	0	0	0	0
070919	12:14:42	12:24:30	586959	5.0.10.0	5_exp_RW	29	Rpleas_acq	CS_B	GWWG	VKKV	MQQM	BZZB	YDDY	JXXJ	treu	fair	ehrlich	spielen	schön	retten	tot	faul	eitel	strafen	schlecht	rächen	1	acq_USunple_CSunple1_RW	acq4567_RW	5	38	400	1	300	300	443	50	0	0	1	blank2r.bmp	0	1	+	0	1	blank2r.bmp	492	1	MQQM	492	1	blank2r.bmp	572	3	eitel	866	1	!	1239	1	!	1346	0	0	0	0	0	0	0	0	0	0	0	0	0	0	0	0	0	0	0	0	0	0	0	0	0	0	0	0	0	0
070919	12:14:42	12:24:32	589224	5.0.10.0	5_exp_RW	29	Rpleas_acq	CS_B	GWWG	VKKV	MQQM	BZZB	YDDY	JXXJ	treu	fair	ehrlich	spielen	schön	retten	tot	faul	eitel	strafen	schlecht	rächen	1	acq_USpleas_CSpleas2_RW	acq4567_RW	5	39	400	1	300	300	465	46	0	0	1	blank2r.bmp	0	1	+	0	1	blank2r.bmp	492	1	VKKV	492	1	blank2r.bmp	572	3	retten	866	1	!	1239	1	!	1359	0	0	0	0	0	0	0	0	0	0	0	0	0	0	0	0	0	0	0	0	0	0	0	0	0	0	0	0	0	0
070919	12:14:42	12:24:34	591503	5.0.10.0	5_exp_RW	29	Rpleas_acq	CS_B	GWWG	VKKV	MQQM	BZZB	YDDY	JXXJ	treu	fair	ehrlich	spielen	schön	retten	tot	faul	eitel	strafen	schlecht	rächen	1	acq_USpleas_CSpleas2_RW	acq4567_RW	5	40	400	0	300	300	512	46	0	0	1	blank2r.bmp	0	1	+	0	1	blank2r.bmp	492	1	VKKV	492	1	blank2r.bmp	572	3	retten	866	1	!	1239	1	!	-1	0	0	0	0	0	0	0	0	0	0	0	0	0	0	0	0	0	0	0	0	0	0	0	0	0	0	0	0	0	0
070919	12:14:42	12:24:36	593676	5.0.10.0	5_exp_RW	29	Rpleas_acq	CS_B	GWWG	VKKV	MQQM	BZZB	YDDY	JXXJ	treu	fair	ehrlich	spielen	schön	retten	tot	faul	eitel	strafen	schlecht	rächen	1	acq_USunple_CSunple1_RW	acq4567_RW	5	41	400	1	300	300	365	50	0	0	1	blank2r.bmp	0	1	+	0	1	blank2r.bmp	492	1	MQQM	492	1	blank2r.bmp	572	2	faul	866	1	!	1239	1	!	1266	0	0	0	0	0	0	0	0	0	0	0	0	0	0	0	0	0	0	0	0	0	0	0	0	0	0	0	0	0	0
070919	12:14:42	12:24:39	595888	5.0.10.0	5_exp_RW	29	Rpleas_acq	CS_B	GWWG	VKKV	MQQM	BZZB	YDDY	JXXJ	treu	fair	ehrlich	spielen	schön	retten	tot	faul	eitel	strafen	schlecht	rächen	1	acq_USunple_CSunple2_RW	acq4567_RW	5	42	400	1	300	300	418	46	0	1	1	blank2r.bmp	0	1	+	0	1	blank2r.bmp	492	1	BZZB	492	1	blank2r.bmp	572	3	rächen	866	1	!	1239	1	!	1319	0	0	0	0	0	0	0	0	0	0	0	0	0	0	0	0	0	0	0	0	0	0	0	0	0	0	0	0	0	0
070919	12:14:42	12:24:41	598047	5.0.10.0	5_exp_RW	29	Rpleas_acq	CS_B	GWWG	VKKV	MQQM	BZZB	YDDY	JXXJ	treu	fair	ehrlich	spielen	schön	retten	tot	faul	eitel	strafen	schlecht	rächen	1	acq_USpleas_CSpleas1_RW	acq4567_RW	5	43	400	1	300	300	364	46	0	0	1	blank2r.bmp	0	1	+	0	1	blank2r.bmp	492	1	GWWG	492	1	blank2r.bmp	572	1	treu	866	1	!	1239	1	!	1266	0	0	0	0	0	0	0	0	0	0	0	0	0	0	0	0	0	0	0	0	0	0	0	0	0	0	0	0	0	0
070919	12:14:42	12:24:43	600260	5.0.10.0	5_exp_RW	29	Rpleas_acq	CS_B	GWWG	VKKV	MQQM	BZZB	YDDY	JXXJ	treu	fair	ehrlich	spielen	schön	retten	tot	faul	eitel	strafen	schlecht	rächen	1	acq_USunple_CSunple1_RW	acq4567_RW	5	44	400	1	300	300	412	50	0	0	1	blank2r.bmp	0	1	+	0	1	blank2r.bmp	492	1	MQQM	492	1	blank2r.bmp	572	1	tot	866	1	!	1239	1	!	1319	0	0	0	0	0	0	0	0	0	0	0	0	0	0	0	0	0	0	0	0	0	0	0	0	0	0	0	0	0	0
070919	12:14:42	12:24:45	602406	5.0.10.0	5_exp_RW	29	Rpleas_acq	CS_B	GWWG	VKKV	MQQM	BZZB	YDDY	JXXJ	treu	fair	ehrlich	spielen	schön	retten	tot	faul	eitel	strafen	schlecht	rächen	1	acq_USunple_CSunple1_RW	acq4567_RW	5	45	400	1	300	300	356	46	0	1	1	blank2r.bmp	0	1	+	0	1	blank2r.bmp	492	1	MQQM	492	1	blank2r.bmp	572	1	tot	866	1	!	1239	1	!	1252	0	0	0	0	0	0	0	0	0	0	0	0	0	0	0	0	0	0	0	0	0	0	0	0	0	0	0	0	0	0
070919	12:14:42	12:24:47	604645	5.0.10.0	5_exp_RW	29	Rpleas_acq	CS_B	GWWG	VKKV	MQQM	BZZB	YDDY	JXXJ	treu	fair	ehrlich	spielen	schön	retten	tot	faul	eitel	strafen	schlecht	rächen	1	acq_USpleas_CSpleas1_RW	acq4567_RW	5	46	400	1	300	300	439	50	0	1	1	blank2r.bmp	0	1	+	0	1	blank2r.bmp	492	1	GWWG	492	1	blank2r.bmp	572	3	ehrlich	866	1	!	1239	1	!	1346	0	0	0	0	0	0	0	0	0	0	0	0	0	0	0	0	0	0	0	0	0	0	0	0	0	0	0	0	0	0
070919	12:14:42	12:24:50	606817	5.0.10.0	5_exp_RW	29	Rpleas_acq	CS_B	GWWG	VKKV	MQQM	BZZB	YDDY	JXXJ	treu	fair	ehrlich	spielen	schön	retten	tot	faul	eitel	strafen	schlecht	rächen	1	acq_USunple_CSunple2_RW	acq4567_RW	5	47	400	1	300	300	379	46	0	1	1	blank2r.bmp	0	1	+	0	1	blank2r.bmp	492	1	BZZB	492	1	blank2r.bmp	572	1	strafen	866	1	!	1239	1	!	1279	0	0	0	0	0	0	0	0	0	0	0	0	0	0	0	0	0	0	0	0	0	0	0	0	0	0	0	0	0	0
070919	12:14:42	12:24:52	609016	5.0.10.0	5_exp_RW	29	Rpleas_acq	CS_B	GWWG	VKKV	MQQM	BZZB	YDDY	JXXJ	treu	fair	ehrlich	spielen	schön	retten	tot	faul	eitel	strafen	schlecht	rächen	1	acq_USunple_CSunple2_RW	acq4567_RW	5	48	400	1	300	300	397	50	0	0	1	blank2r.bmp	0	1	+	0	1	blank2r.bmp	492	1	BZZB	492	1	blank2r.bmp	572	2	schlecht	866	1	!	1239	1	!	1292	0	0	0	0	0	0	0	0	0	0	0	0	0	0	0	0	0	0	0	0	0	0	0	0	0	0	0	0	0	0
070919	12:14:42	12:24:54	611309	5.0.10.0	5_exp_RW	29	Rpleas_acq	CS_B	GWWG	VKKV	MQQM	BZZB	YDDY	JXXJ	treu	fair	ehrlich	spielen	schön	retten	tot	faul	eitel	strafen	schlecht	rächen	1	acq_USpleas_CSpleas2_RW	acq4567_RW	5	49	400	0	300	300	509	50	0	1	1	blank2r.bmp	0	1	+	0	1	blank2r.bmp	492	1	VKKV	492	1	blank2r.bmp	572	2	schön	866	1	!	1239	1	!	-1	0	0	0	0	0	0	0	0	0	0	0	0	0	0	0	0	0	0	0	0	0	0	0	0	0	0	0	0	0	0
070919	12:14:42	12:24:56	613548	5.0.10.0	5_exp_RW	29	Rpleas_acq	CS_B	GWWG	VKKV	MQQM	BZZB	YDDY	JXXJ	treu	fair	ehrlich	spielen	schön	retten	tot	faul	eitel	strafen	schlecht	rächen	1	acq_USpleas_CSpleas2_RW	acq4567_RW	5	50	400	1	300	300	433	50	0	1	1	blank2r.bmp	0	1	+	0	1	blank2r.bmp	492	1	VKKV	492	1	blank2r.bmp	572	1	spielen	866	1	!	1239	1	!	1332	0	0	0	0	0	0	0	0	0	0	0	0	0	0	0	0	0	0	0	0	0	0	0	0	0	0	0	0	0	0
070919	12:14:42	12:24:58	615707	5.0.10.0	5_exp_RW	29	Rpleas_acq	CS_B	GWWG	VKKV	MQQM	BZZB	YDDY	JXXJ	treu	fair	ehrlich	spielen	schön	retten	tot	faul	eitel	strafen	schlecht	rächen	1	acq_USunple_CSunple1_RW	acq4567_RW	5	51	400	1	300	300	361	46	0	1	1	blank2r.bmp	0	1	+	0	1	blank2r.bmp	492	1	MQQM	492	1	blank2r.bmp	572	2	faul	866	1	!	1239	1	!	1266	0	0	0	0	0	0	0	0	0	0	0	0	0	0	0	0	0	0	0	0	0	0	0	0	0	0	0	0	0	0
070919	12:14:42	12:25:01	617893	5.0.10.0	5_exp_RW	29	Rpleas_acq	CS_B	GWWG	VKKV	MQQM	BZZB	YDDY	JXXJ	treu	fair	ehrlich	spielen	schön	retten	tot	faul	eitel	strafen	schlecht	rächen	1	acq_USunple_CSunple2_RW	acq4567_RW	5	52	400	1	300	300	395	46	0	1	1	blank2r.bmp	0	1	+	0	1	blank2r.bmp	492	1	BZZB	492	1	blank2r.bmp	572	1	strafen	866	1	!	1239	1	!	1292	0	0	0	0	0	0	0	0	0	0	0	0	0	0	0	0	0	0	0	0	0	0	0	0	0	0	0	0	0	0
070919	12:14:42	12:25:03	620145	5.0.10.0	5_exp_RW	29	Rpleas_acq	CS_B	GWWG	VKKV	MQQM	BZZB	YDDY	JXXJ	treu	fair	ehrlich	spielen	schön	retten	tot	faul	eitel	strafen	schlecht	rächen	1	acq_USpleas_CSpleas2_RW	acq4567_RW	5	53	400	1	300	300	450	50	0	1	1	blank2r.bmp	0	1	+	0	1	blank2r.bmp	492	1	VKKV	492	1	blank2r.bmp	572	1	spielen	866	1	!	1239	1	!	1346	0	0	0	0	0	0	0	0	0	0	0	0	0	0	0	0	0	0	0	0	0	0	0	0	0	0	0	0	0	0
070919	12:14:42	12:25:05	622451	5.0.10.0	5_exp_RW	29	Rpleas_acq	CS_B	GWWG	VKKV	MQQM	BZZB	YDDY	JXXJ	treu	fair	ehrlich	spielen	schön	retten	tot	faul	eitel	strafen	schlecht	rächen	1	acq_USunple_CSunple1_RW	acq4567_RW	5	54	400	0	300	300	543	50	0	0	1	blank2r.bmp	0	1	+	0	1	blank2r.bmp	492	1	MQQM	492	1	blank2r.bmp	572	3	eitel	866	1	!	1239	1	!	-1	0	0	0	0	0	0	0	0	0	0	0	0	0	0	0	0	0	0	0	0	0	0	0	0	0	0	0	0	0	0
070919	12:14:42	12:25:07	624570	5.0.10.0	5_exp_RW	29	Rpleas_acq	CS_B	GWWG	VKKV	MQQM	BZZB	YDDY	JXXJ	treu	fair	ehrlich	spielen	schön	retten	tot	faul	eitel	strafen	schlecht	rächen	1	acq_USunple_CSunple2_RW	acq4567_RW	5	55	400	0	300	300	326	46	0	1	1	blank2r.bmp	0	1	+	0	1	blank2r.bmp	492	1	BZZB	492	1	blank2r.bmp	572	3	rächen	866	1	!	-1	1	!	-1	0	0	0	0	0	0	0	0	0	0	0	0	0	0	0	0	0	0	0	0	0	0	0	0	0	0	0	0	0	0
070919	12:14:42	12:25:09	626809	5.0.10.0	5_exp_RW	29	Rpleas_acq	CS_B	GWWG	VKKV	MQQM	BZZB	YDDY	JXXJ	treu	fair	ehrlich	spielen	schön	retten	tot	faul	eitel	strafen	schlecht	rächen	1	acq_USpleas_CSpleas1_RW	acq4567_RW	5	56	400	1	300	300	438	50	0	1	1	blank2r.bmp	0	1	+	0	1	blank2r.bmp	492	1	GWWG	492	1	blank2r.bmp	572	1	treu	866	1	!	1239	1	!	1332	0	0	0	0	0	0	0	0	0	0	0	0	0	0	0	0	0	0	0	0	0	0	0	0	0	0	0	0	0	0
070919	12:14:42	12:25:12	629101	5.0.10.0	5_exp_RW	29	Rpleas_acq	CS_B	GWWG	VKKV	MQQM	BZZB	YDDY	JXXJ	treu	fair	ehrlich	spielen	schön	retten	tot	faul	eitel	strafen	schlecht	rächen	1	acq_USpleas_CSpleas1_RW	acq4567_RW	5	57	400	0	300	300	520	50	0	1	1	blank2r.bmp	0	1	+	0	1	blank2r.bmp	492	1	GWWG	492	1	blank2r.bmp	572	2	fair	866	1	!	1239	1	!	-1	0	0	0	0	0	0	0	0	0	0	0	0	0	0	0	0	0	0	0	0	0	0	0	0	0	0	0	0	0	0
070919	12:14:42	12:25:14	631261	5.0.10.0	5_exp_RW	29	Rpleas_acq	CS_B	GWWG	VKKV	MQQM	BZZB	YDDY	JXXJ	treu	fair	ehrlich	spielen	schön	retten	tot	faul	eitel	strafen	schlecht	rächen	1	acq_USpleas_CSpleas1_RW	acq4567_RW	5	58	400	1	300	300	355	50	0	1	1	blank2r.bmp	0	1	+	0	1	blank2r.bmp	492	1	GWWG	492	1	blank2r.bmp	572	3	ehrlich	866	1	!	1239	1	!	1252	0	0	0	0	0	0	0	0	0	0	0	0	0	0	0	0	0	0	0	0	0	0	0	0	0	0	0	0	0	0
070919	12:14:42	12:25:16	633540	5.0.10.0	5_exp_RW	29	Rpleas_acq	CS_B	GWWG	VKKV	MQQM	BZZB	YDDY	JXXJ	treu	fair	ehrlich	spielen	schön	retten	tot	faul	eitel	strafen	schlecht	rächen	1	acq_USpleas_CSpleas2_RW	acq4567_RW	5	59	400	0	300	300	510	50	0	1	1	blank2r.bmp	0	1	+	0	1	blank2r.bmp	492	1	VKKV	492	1	blank2r.bmp	572	3	retten	866	1	!	1239	1	!	-1	0	0	0	0	0	0	0	0	0	0	0	0	0	0	0	0	0	0	0	0	0	0	0	0	0	0	0	0	0	0
070919	12:14:42	12:25:18	635645	5.0.10.0	5_exp_RW	29	Rpleas_acq	CS_B	GWWG	VKKV	MQQM	BZZB	YDDY	JXXJ	treu	fair	ehrlich	spielen	schön	retten	tot	faul	eitel	strafen	schlecht	rächen	1	acq_USpleas_CSpleas2_RW	acq4567_RW	5	60	400	0	300	300	319	50	0	1	1	blank2r.bmp	0	1	+	0	1	blank2r.bmp	492	1	VKKV	492	1	blank2r.bmp	572	2	schön	866	1	!	-1	1	!	-1	0	0	0	0	0	0	0	0	0	0	0	0	0	0	0	0	0	0	0	0	0	0	0	0	0	0	0	0	0	0
070919	12:14:42	12:25:21	637884	5.0.10.0	5_exp_RW	29	Rpleas_acq	CS_B	GWWG	VKKV	MQQM	BZZB	YDDY	JXXJ	treu	fair	ehrlich	spielen	schön	retten	tot	faul	eitel	strafen	schlecht	rächen	1	acq_USunple_CSunple2_RW	acq4567_RW	5	61	400	1	300	300	426	46	0	1	1	blank2r.bmp	0	1	+	0	1	blank2r.bmp	492	1	BZZB	492	1	blank2r.bmp	572	3	rächen	866	1	!	1239	1	!	1332	0	0	0	0	0	0	0	0	0	0	0	0	0	0	0	0	0	0	0	0	0	0	0	0	0	0	0	0	0	0
070919	12:14:42	12:25:23	640150	5.0.10.0	5_exp_RW	29	Rpleas_acq	CS_B	GWWG	VKKV	MQQM	BZZB	YDDY	JXXJ	treu	fair	ehrlich	spielen	schön	retten	tot	faul	eitel	strafen	schlecht	rächen	1	acq_USunple_CSunple1_RW	acq4567_RW	5	62	400	0	300	300	500	46	0	1	1	blank2r.bmp	0	1	+	0	1	blank2r.bmp	492	1	MQQM	492	1	blank2r.bmp	572	2	faul	866	1	!	1239	1	!	-1	0	0	0	0	0	0	0	0	0	0	0	0	0	0	0	0	0	0	0	0	0	0	0	0	0	0	0	0	0	0
070919	12:14:42	12:25:25	642269	5.0.10.0	5_exp_RW	29	Rpleas_acq	CS_B	GWWG	VKKV	MQQM	BZZB	YDDY	JXXJ	treu	fair	ehrlich	spielen	schön	retten	tot	faul	eitel	strafen	schlecht	rächen	1	acq_USpleas_CSpleas2_RW	acq4567_RW	5	63	400	0	300	300	332	50	0	1	1	blank2r.bmp	0	1	+	0	1	blank2r.bmp	492	1	VKKV	492	1	blank2r.bmp	572	1	spielen	866	1	!	-1	1	!	-1	0	0	0	0	0	0	0	0	0	0	0	0	0	0	0	0	0	0	0	0	0	0	0	0	0	0	0	0	0	0
070919	12:14:42	12:25:27	644615	5.0.10.0	5_exp_RW	29	Rpleas_acq	CS_B	GWWG	VKKV	MQQM	BZZB	YDDY	JXXJ	treu	fair	ehrlich	spielen	schön	retten	tot	faul	eitel	strafen	schlecht	rächen	1	acq_USunple_CSunple1_RW	acq4567_RW	5	64	400	0	300	300	564	46	0	1	1	blank2r.bmp	0	1	+	0	1	blank2r.bmp	492	1	MQQM	492	1	blank2r.bmp	572	1	tot	866	1	!	1239	1	!	-1	0	0	0	0	0	0	0	0	0	0	0	0	0	0	0	0	0	0	0	0	0	0	0	0	0	0	0	0	0	0
070919	12:14:42	12:25:30	646881	5.0.10.0	5_exp_RW	29	Rpleas_acq	CS_B	GWWG	VKKV	MQQM	BZZB	YDDY	JXXJ	treu	fair	ehrlich	spielen	schön	retten	tot	faul	eitel	strafen	schlecht	rächen	1	acq_USunple_CSunple2_RW	acq4567_RW	5	65	400	1	300	300	452	50	0	0	1	blank2r.bmp	0	1	+	0	1	blank2r.bmp	492	1	BZZB	492	1	blank2r.bmp	572	1	strafen	866	1	!	1239	1	!	1359	0	0	0	0	0	0	0	0	0	0	0	0	0	0	0	0	0	0	0	0	0	0	0	0	0	0	0	0	0	0
070919	12:14:42	12:25:32	649133	5.0.10.0	5_exp_RW	29	Rpleas_acq	CS_B	GWWG	VKKV	MQQM	BZZB	YDDY	JXXJ	treu	fair	ehrlich	spielen	schön	retten	tot	faul	eitel	strafen	schlecht	rächen	1	acq_USunple_CSunple1_RW	acq4567_RW	5	66	400	1	300	300	463	46	0	1	1	blank2r.bmp	0	1	+	0	1	blank2r.bmp	492	1	MQQM	492	1	blank2r.bmp	572	3	eitel	866	1	!	1239	1	!	1359	0	0	0	0	0	0	0	0	0	0	0	0	0	0	0	0	0	0	0	0	0	0	0	0	0	0	0	0	0	0
070919	12:14:42	12:25:34	651399	5.0.10.0	5_exp_RW	29	Rpleas_acq	CS_B	GWWG	VKKV	MQQM	BZZB	YDDY	JXXJ	treu	fair	ehrlich	spielen	schön	retten	tot	faul	eitel	strafen	schlecht	rächen	1	acq_USunple_CSunple2_RW	acq4567_RW	5	67	400	0	300	300	500	46	0	1	1	blank2r.bmp	0	1	+	0	1	blank2r.bmp	492	1	BZZB	492	1	blank2r.bmp	572	2	schlecht	866	1	!	1239	1	!	-1	0	0	0	0	0	0	0	0	0	0	0	0	0	0	0	0	0	0	0	0	0	0	0	0	0	0	0	0	0	0
070919	12:14:42	12:25:36	653558	5.0.10.0	5_exp_RW	29	Rpleas_acq	CS_B	GWWG	VKKV	MQQM	BZZB	YDDY	JXXJ	treu	fair	ehrlich	spielen	schön	retten	tot	faul	eitel	strafen	schlecht	rächen	1	acq_USpleas_CSpleas1_RW	acq4567_RW	5	68	400	1	300	300	348	46	0	0	1	blank2r.bmp	0	1	+	0	1	blank2r.bmp	492	1	GWWG	492	1	blank2r.bmp	572	3	ehrlich	866	1	!	1239	1	!	1252	0	0	0	0	0	0	0	0	0	0	0	0	0	0	0	0	0	0	0	0	0	0	0	0	0	0	0	0	0	0
070919	12:14:42	12:25:38	655717	5.0.10.0	5_exp_RW	29	Rpleas_acq	CS_B	GWWG	VKKV	MQQM	BZZB	YDDY	JXXJ	treu	fair	ehrlich	spielen	schön	retten	tot	faul	eitel	strafen	schlecht	rächen	1	acq_USpleas_CSpleas2_RW	acq4567_RW	5	69	400	1	300	300	365	50	0	1	1	blank2r.bmp	0	1	+	0	1	blank2r.bmp	492	1	VKKV	492	1	blank2r.bmp	572	2	schön	866	1	!	1239	1	!	1266	0	0	0	0	0	0	0	0	0	0	0	0	0	0	0	0	0	0	0	0	0	0	0	0	0	0	0	0	0	0
070919	12:14:42	12:25:41	657983	5.0.10.0	5_exp_RW	29	Rpleas_acq	CS_B	GWWG	VKKV	MQQM	BZZB	YDDY	JXXJ	treu	fair	ehrlich	spielen	schön	retten	tot	faul	eitel	strafen	schlecht	rächen	1	acq_USpleas_CSpleas1_RW	acq4567_RW	5	70	400	0	300	300	502	50	0	1	1	blank2r.bmp	0	1	+	0	1	blank2r.bmp	492	1	GWWG	492	1	blank2r.bmp	572	1	treu	866	1	!	1239	1	!	-1	0	0	0	0	0	0	0	0	0	0	0	0	0	0	0	0	0	0	0	0	0	0	0	0	0	0	0	0	0	0
070919	12:14:42	12:25:43	660089	5.0.10.0	5_exp_RW	29	Rpleas_acq	CS_B	GWWG	VKKV	MQQM	BZZB	YDDY	JXXJ	treu	fair	ehrlich	spielen	schön	retten	tot	faul	eitel	strafen	schlecht	rächen	1	acq_USunple_CSunple1_RW	acq4567_RW	5	71	400	0	300	300	323	46	0	1	1	blank2r.bmp	0	1	+	0	1	blank2r.bmp	492	1	MQQM	492	1	blank2r.bmp	572	1	tot	866	1	!	-1	1	!	-1	0	0	0	0	0	0	0	0	0	0	0	0	0	0	0	0	0	0	0	0	0	0	0	0	0	0	0	0	0	0
070919	12:14:42	12:25:45	662288	5.0.10.0	5_exp_RW	29	Rpleas_acq	CS_B	GWWG	VKKV	MQQM	BZZB	YDDY	JXXJ	treu	fair	ehrlich	spielen	schön	retten	tot	faul	eitel	strafen	schlecht	rächen	1	acq_USpleas_CSpleas2_RW	acq4567_RW	5	72	400	1	300	300	393	46	0	0	1	blank2r.bmp	0	1	+	0	1	blank2r.bmp	492	1	VKKV	492	1	blank2r.bmp	572	3	retten	866	1	!	1239	1	!	1292	0	0	0	0	0	0	0	0	0	0	0	0	0	0	0	0	0	0	0	0	0	0	0	0	0	0	0	0	0	0
070919	12:14:42	12:25:47	664540	5.0.10.0	5_exp_RW	29	Rpleas_acq	CS_B	GWWG	VKKV	MQQM	BZZB	YDDY	JXXJ	treu	fair	ehrlich	spielen	schön	retten	tot	faul	eitel	strafen	schlecht	rächen	1	acq_USunple_CSunple2_RW	acq4567_RW	5	73	400	0	300	300	479	46	0	1	1	blank2r.bmp	0	1	+	0	1	blank2r.bmp	492	1	BZZB	492	1	blank2r.bmp	572	3	rächen	866	1	!	1239	1	!	-1	0	0	0	0	0	0	0	0	0	0	0	0	0	0	0	0	0	0	0	0	0	0	0	0	0	0	0	0	0	0
070919	12:14:42	12:25:50	666859	5.0.10.0	5_exp_RW	29	Rpleas_acq	CS_B	GWWG	VKKV	MQQM	BZZB	YDDY	JXXJ	treu	fair	ehrlich	spielen	schön	retten	tot	faul	eitel	strafen	schlecht	rächen	1	acq_USunple_CSunple1_RW	acq4567_RW	5	74	400	0	300	300	533	46	0	1	1	blank2r.bmp	0	1	+	0	1	blank2r.bmp	492	1	MQQM	492	1	blank2r.bmp	572	2	faul	866	1	!	1239	1	!	-1	0	0	0	0	0	0	0	0	0	0	0	0	0	0	0	0	0	0	0	0	0	0	0	0	0	0	0	0	0	0
070919	12:14:42	12:25:52	668952	5.0.10.0	5_exp_RW	29	Rpleas_acq	CS_B	GWWG	VKKV	MQQM	BZZB	YDDY	JXXJ	treu	fair	ehrlich	spielen	schön	retten	tot	faul	eitel	strafen	schlecht	rächen	1	acq_USunple_CSunple2_RW	acq4567_RW	5	75	400	0	300	300	307	50	0	0	1	blank2r.bmp	0	1	+	0	1	blank2r.bmp	492	1	BZZB	492	1	blank2r.bmp	572	1	strafen	866	1	!	-1	1	!	-1	0	0	0	0	0	0	0	0	0	0	0	0	0	0	0	0	0	0	0	0	0	0	0	0	0	0	0	0	0	0
070919	12:14:42	12:25:54	671164	5.0.10.0	5_exp_RW	29	Rpleas_acq	CS_B	GWWG	VKKV	MQQM	BZZB	YDDY	JXXJ	treu	fair	ehrlich	spielen	schön	retten	tot	faul	eitel	strafen	schlecht	rächen	1	acq_USpleas_CSpleas1_RW	acq4567_RW	5	76	400	1	300	300	410	50	0	1	1	blank2r.bmp	0	1	+	0	1	blank2r.bmp	492	1	GWWG	492	1	blank2r.bmp	572	2	fair	866	1	!	1239	1	!	1306	0	0	0	0	0	0	0	0	0	0	0	0	0	0	0	0	0	0	0	0	0	0	0	0	0	0	0	0	0	0
070919	12:14:42	12:25:56	673417	5.0.10.0	5_exp_RW	29	Rpleas_acq	CS_B	GWWG	VKKV	MQQM	BZZB	YDDY	JXXJ	treu	fair	ehrlich	spielen	schön	retten	tot	faul	eitel	strafen	schlecht	rächen	1	acq_USpleas_CSpleas2_RW	acq4567_RW	5	77	400	0	300	300	487	50	0	1	1	blank2r.bmp	0	1	+	0	1	blank2r.bmp	492	1	VKKV	492	1	blank2r.bmp	572	1	spielen	866	1	!	1239	1	!	-1	0	0	0	0	0	0	0	0	0	0	0	0	0	0	0	0	0	0	0	0	0	0	0	0	0	0	0	0	0	0
070919	12:14:42	12:25:58	675616	5.0.10.0	5_exp_RW	29	Rpleas_acq	CS_B	GWWG	VKKV	MQQM	BZZB	YDDY	JXXJ	treu	fair	ehrlich	spielen	schön	retten	tot	faul	eitel	strafen	schlecht	rächen	1	acq_USpleas_CSpleas1_RW	acq4567_RW	5	78	400	1	300	300	381	50	0	1	1	blank2r.bmp	0	1	+	0	1	blank2r.bmp	492	1	GWWG	492	1	blank2r.bmp	572	1	treu	866	1	!	1239	1	!	1279	0	0	0	0	0	0	0	0	0	0	0	0	0	0	0	0	0	0	0	0	0	0	0	0	0	0	0	0	0	0
070919	12:14:42	12:26:00	677775	5.0.10.0	5_exp_RW	29	Rpleas_acq	CS_B	GWWG	VKKV	MQQM	BZZB	YDDY	JXXJ	treu	fair	ehrlich	spielen	schön	retten	tot	faul	eitel	strafen	schlecht	rächen	1	acq_USpleas_CSpleas2_RW	acq4567_RW	5	79	400	1	300	300	370	46	0	0	1	blank2r.bmp	0	1	+	0	1	blank2r.bmp	492	1	VKKV	492	1	blank2r.bmp	572	2	schön	866	1	!	1239	1	!	1266	0	0	0	0	0	0	0	0	0	0	0	0	0	0	0	0	0	0	0	0	0	0	0	0	0	0	0	0	0	0
070919	12:14:42	12:26:03	679974	5.0.10.0	5_exp_RW	29	Rpleas_acq	CS_B	GWWG	VKKV	MQQM	BZZB	YDDY	JXXJ	treu	fair	ehrlich	spielen	schön	retten	tot	faul	eitel	strafen	schlecht	rächen	1	acq_USpleas_CSpleas1_RW	acq4567_RW	5	80	400	1	300	300	410	50	0	1	1	blank2r.bmp	0	1	+	0	1	blank2r.bmp	492	1	GWWG	492	1	blank2r.bmp	572	2	fair	866	1	!	1239	1	!	1306	0	0	0	0	0	0	0	0	0	0	0	0	0	0	0	0	0	0	0	0	0	0	0	0	0	0	0	0	0	0
070919	12:14:42	12:26:13	689970	5.0.10.0	5_exp_RW	29	Rpleas_acq	CS_B	GWWG	VKKV	MQQM	BZZB	YDDY	JXXJ	treu	fair	ehrlich	spielen	schön	retten	tot	faul	eitel	strafen	schlecht	rächen	1	acq_USunple_CSunple1_RW	acq4567_RW	6	1	400	0	300	300	504	46	0	1	1	blank2r.bmp	0	1	+	0	1	blank2r.bmp	492	1	MQQM	492	1	blank2r.bmp	572	3	eitel	866	1	!	1239	1	!	-1	0	0	0	0	0	0	0	0	0	0	0	0	0	0	0	0	0	0	0	0	0	0	0	0	0	0	0	0	0	0
070919	12:14:42	12:26:15	692182	5.0.10.0	5_exp_RW	29	Rpleas_acq	CS_B	GWWG	VKKV	MQQM	BZZB	YDDY	JXXJ	treu	fair	ehrlich	spielen	schön	retten	tot	faul	eitel	strafen	schlecht	rächen	1	acq_USpleas_CSpleas1_RW	acq4567_RW	6	2	400	1	300	300	401	50	0	1	1	blank2r.bmp	0	1	+	0	1	blank2r.bmp	492	1	GWWG	492	1	blank2r.bmp	572	3	ehrlich	866	1	!	1239	1	!	1306	0	0	0	0	0	0	0	0	0	0	0	0	0	0	0	0	0	0	0	0	0	0	0	0	0	0	0	0	0	0
070919	12:14:42	12:26:17	694395	5.0.10.0	5_exp_RW	29	Rpleas_acq	CS_B	GWWG	VKKV	MQQM	BZZB	YDDY	JXXJ	treu	fair	ehrlich	spielen	schön	retten	tot	faul	eitel	strafen	schlecht	rächen	1	acq_USunple_CSunple2_RW	acq4567_RW	6	3	400	1	300	300	423	46	0	1	1	blank2r.bmp	0	1	+	0	1	blank2r.bmp	492	1	BZZB	492	1	blank2r.bmp	572	2	schlecht	866	1	!	1239	1	!	1319	0	0	0	0	0	0	0	0	0	0	0	0	0	0	0	0	0	0	0	0	0	0	0	0	0	0	0	0	0	0
070919	12:14:42	12:26:19	696634	5.0.10.0	5_exp_RW	29	Rpleas_acq	CS_B	GWWG	VKKV	MQQM	BZZB	YDDY	JXXJ	treu	fair	ehrlich	spielen	schön	retten	tot	faul	eitel	strafen	schlecht	rächen	1	acq_USpleas_CSpleas1_RW	acq4567_RW	6	4	400	1	300	300	435	50	0	1	1	blank2r.bmp	0	1	+	0	1	blank2r.bmp	492	1	GWWG	492	1	blank2r.bmp	572	1	treu	866	1	!	1239	1	!	1332	0	0	0	0	0	0	0	0	0	0	0	0	0	0	0	0	0	0	0	0	0	0	0	0	0	0	0	0	0	0
070919	12:14:42	12:26:22	698913	5.0.10.0	5_exp_RW	29	Rpleas_acq	CS_B	GWWG	VKKV	MQQM	BZZB	YDDY	JXXJ	treu	fair	ehrlich	spielen	schön	retten	tot	faul	eitel	strafen	schlecht	rächen	1	acq_USunple_CSunple1_RW	acq4567_RW	6	5	400	0	300	300	507	46	0	1	1	blank2r.bmp	0	1	+	0	1	blank2r.bmp	492	1	MQQM	492	1	blank2r.bmp	572	2	faul	866	1	!	1239	1	!	-1	0	0	0	0	0	0	0	0	0	0	0	0	0	0	0	0	0	0	0	0	0	0	0	0	0	0	0	0	0	0
070919	12:14:42	12:26:24	701378	5.0.10.0	5_exp_RW	29	Rpleas_acq	CS_B	GWWG	VKKV	MQQM	BZZB	YDDY	JXXJ	treu	fair	ehrlich	spielen	schön	retten	tot	faul	eitel	strafen	schlecht	rächen	1	acq_USunple_CSunple1_RW	acq4567_RW	6	6	400	0	300	300	691	50	0	0	1	blank2r.bmp	0	1	+	0	1	blank2r.bmp	492	1	MQQM	492	1	blank2r.bmp	572	3	eitel	866	1	!	1239	1	!	-1	0	0	0	0	0	0	0	0	0	0	0	0	0	0	0	0	0	0	0	0	0	0	0	0	0	0	0	0	0	0
070919	12:14:42	12:26:26	703684	5.0.10.0	5_exp_RW	29	Rpleas_acq	CS_B	GWWG	VKKV	MQQM	BZZB	YDDY	JXXJ	treu	fair	ehrlich	spielen	schön	retten	tot	faul	eitel	strafen	schlecht	rächen	1	acq_USunple_CSunple2_RW	acq4567_RW	6	7	400	0	300	300	530	46	0	1	1	blank2r.bmp	0	1	+	0	1	blank2r.bmp	492	1	BZZB	492	1	blank2r.bmp	572	2	schlecht	866	1	!	1239	1	!	-1	0	0	0	0	0	0	0	0	0	0	0	0	0	0	0	0	0	0	0	0	0	0	0	0	0	0	0	0	0	0
070919	12:14:42	12:26:29	705937	5.0.10.0	5_exp_RW	29	Rpleas_acq	CS_B	GWWG	VKKV	MQQM	BZZB	YDDY	JXXJ	treu	fair	ehrlich	spielen	schön	retten	tot	faul	eitel	strafen	schlecht	rächen	1	acq_USpleas_CSpleas1_RW	acq4567_RW	6	8	400	1	300	300	451	46	0	0	1	blank2r.bmp	0	1	+	0	1	blank2r.bmp	492	1	GWWG	492	1	blank2r.bmp	572	2	fair	866	1	!	1239	1	!	1346	0	0	0	0	0	0	0	0	0	0	0	0	0	0	0	0	0	0	0	0	0	0	0	0	0	0	0	0	0	0
070919	12:14:42	12:26:31	708149	5.0.10.0	5_exp_RW	29	Rpleas_acq	CS_B	GWWG	VKKV	MQQM	BZZB	YDDY	JXXJ	treu	fair	ehrlich	spielen	schön	retten	tot	faul	eitel	strafen	schlecht	rächen	1	acq_USunple_CSunple1_RW	acq4567_RW	6	9	400	1	300	300	423	46	0	1	1	blank2r.bmp	0	1	+	0	1	blank2r.bmp	492	1	MQQM	492	1	blank2r.bmp	572	1	tot	866	1	!	1239	1	!	1319	0	0	0	0	0	0	0	0	0	0	0	0	0	0	0	0	0	0	0	0	0	0	0	0	0	0	0	0	0	0
070919	12:14:42	12:26:33	710295	5.0.10.0	5_exp_RW	29	Rpleas_acq	CS_B	GWWG	VKKV	MQQM	BZZB	YDDY	JXXJ	treu	fair	ehrlich	spielen	schön	retten	tot	faul	eitel	strafen	schlecht	rächen	1	acq_USpleas_CSpleas1_RW	acq4567_RW	6	10	400	1	300	300	346	50	0	1	1	blank2r.bmp	0	1	+	0	1	blank2r.bmp	492	1	GWWG	492	1	blank2r.bmp	572	3	ehrlich	866	1	!	1239	1	!	1252	0	0	0	0	0	0	0	0	0	0	0	0	0	0	0	0	0	0	0	0	0	0	0	0	0	0	0	0	0	0
070919	12:14:42	12:26:35	712481	5.0.10.0	5_exp_RW	29	Rpleas_acq	CS_B	GWWG	VKKV	MQQM	BZZB	YDDY	JXXJ	treu	fair	ehrlich	spielen	schön	retten	tot	faul	eitel	strafen	schlecht	rächen	1	acq_USpleas_CSpleas2_RW	acq4567_RW	6	11	400	1	300	300	397	50	0	1	1	blank2r.bmp	0	1	+	0	1	blank2r.bmp	492	1	VKKV	492	1	blank2r.bmp	572	3	retten	866	1	!	1239	1	!	1292	0	0	0	0	0	0	0	0	0	0	0	0	0	0	0	0	0	0	0	0	0	0	0	0	0	0	0	0	0	0
070919	12:14:42	12:26:37	714706	5.0.10.0	5_exp_RW	29	Rpleas_acq	CS_B	GWWG	VKKV	MQQM	BZZB	YDDY	JXXJ	treu	fair	ehrlich	spielen	schön	retten	tot	faul	eitel	strafen	schlecht	rächen	1	acq_USpleas_CSpleas2_RW	acq4567_RW	6	12	400	1	300	300	437	50	0	1	1	blank2r.bmp	0	1	+	0	1	blank2r.bmp	492	1	VKKV	492	1	blank2r.bmp	572	3	retten	866	1	!	1239	1	!	1332	0	0	0	0	0	0	0	0	0	0	0	0	0	0	0	0	0	0	0	0	0	0	0	0	0	0	0	0	0	0
070919	12:14:42	12:26:40	716865	5.0.10.0	5_exp_RW	29	Rpleas_acq	CS_B	GWWG	VKKV	MQQM	BZZB	YDDY	JXXJ	treu	fair	ehrlich	spielen	schön	retten	tot	faul	eitel	strafen	schlecht	rächen	1	acq_USpleas_CSpleas2_RW	acq4567_RW	6	13	400	1	300	300	348	50	0	1	1	blank2r.bmp	0	1	+	0	1	blank2r.bmp	492	1	VKKV	492	1	blank2r.bmp	572	2	schön	866	1	!	1239	1	!	1252	0	0	0	0	0	0	0	0	0	0	0	0	0	0	0	0	0	0	0	0	0	0	0	0	0	0	0	0	0	0
070919	12:14:42	12:26:42	719025	5.0.10.0	5_exp_RW	29	Rpleas_acq	CS_B	GWWG	VKKV	MQQM	BZZB	YDDY	JXXJ	treu	fair	ehrlich	spielen	schön	retten	tot	faul	eitel	strafen	schlecht	rächen	1	acq_USunple_CSunple2_RW	acq4567_RW	6	14	400	1	300	300	366	50	0	0	1	blank2r.bmp	0	1	+	0	1	blank2r.bmp	492	1	BZZB	492	1	blank2r.bmp	572	1	strafen	866	1	!	1239	1	!	1266	0	0	0	0	0	0	0	0	0	0	0	0	0	0	0	0	0	0	0	0	0	0	0	0	0	0	0	0	0	0
070919	12:14:42	12:26:44	721237	5.0.10.0	5_exp_RW	29	Rpleas_acq	CS_B	GWWG	VKKV	MQQM	BZZB	YDDY	JXXJ	treu	fair	ehrlich	spielen	schön	retten	tot	faul	eitel	strafen	schlecht	rächen	1	acq_USpleas_CSpleas2_RW	acq4567_RW	6	15	400	1	300	300	424	50	0	1	1	blank2r.bmp	0	1	+	0	1	blank2r.bmp	492	1	VKKV	492	1	blank2r.bmp	572	1	spielen	866	1	!	1239	1	!	1319	0	0	0	0	0	0	0	0	0	0	0	0	0	0	0	0	0	0	0	0	0	0	0	0	0	0	0	0	0	0
070919	12:14:42	12:26:46	723503	5.0.10.0	5_exp_RW	29	Rpleas_acq	CS_B	GWWG	VKKV	MQQM	BZZB	YDDY	JXXJ	treu	fair	ehrlich	spielen	schön	retten	tot	faul	eitel	strafen	schlecht	rächen	1	acq_USpleas_CSpleas1_RW	acq4567_RW	6	16	400	1	300	300	466	50	0	1	1	blank2r.bmp	0	1	+	0	1	blank2r.bmp	492	1	GWWG	492	1	blank2r.bmp	572	3	ehrlich	866	1	!	1239	1	!	1372	0	0	0	0	0	0	0	0	0	0	0	0	0	0	0	0	0	0	0	0	0	0	0	0	0	0	0	0	0	0
070919	12:14:42	12:26:48	725755	5.0.10.0	5_exp_RW	29	Rpleas_acq	CS_B	GWWG	VKKV	MQQM	BZZB	YDDY	JXXJ	treu	fair	ehrlich	spielen	schön	retten	tot	faul	eitel	strafen	schlecht	rächen	1	acq_USunple_CSunple1_RW	acq4567_RW	6	17	400	0	300	300	480	46	0	1	1	blank2r.bmp	0	1	+	0	1	blank2r.bmp	492	1	MQQM	492	1	blank2r.bmp	572	3	eitel	866	1	!	1239	1	!	-1	0	0	0	0	0	0	0	0	0	0	0	0	0	0	0	0	0	0	0	0	0	0	0	0	0	0	0	0	0	0
070919	12:14:42	12:26:51	727928	5.0.10.0	5_exp_RW	29	Rpleas_acq	CS_B	GWWG	VKKV	MQQM	BZZB	YDDY	JXXJ	treu	fair	ehrlich	spielen	schön	retten	tot	faul	eitel	strafen	schlecht	rächen	1	acq_USpleas_CSpleas2_RW	acq4567_RW	6	18	400	1	300	300	367	50	0	1	1	blank2r.bmp	0	1	+	0	1	blank2r.bmp	492	1	VKKV	492	1	blank2r.bmp	572	3	retten	866	1	!	1239	1	!	1266	0	0	0	0	0	0	0	0	0	0	0	0	0	0	0	0	0	0	0	0	0	0	0	0	0	0	0	0	0	0
070919	12:14:42	12:26:53	730140	5.0.10.0	5_exp_RW	29	Rpleas_acq	CS_B	GWWG	VKKV	MQQM	BZZB	YDDY	JXXJ	treu	fair	ehrlich	spielen	schön	retten	tot	faul	eitel	strafen	schlecht	rächen	1	acq_USunple_CSunple2_RW	acq4567_RW	6	19	400	1	300	300	424	46	0	1	1	blank2r.bmp	0	1	+	0	1	blank2r.bmp	492	1	BZZB	492	1	blank2r.bmp	572	3	rächen	866	1	!	1239	1	!	1319	0	0	0	0	0	0	0	0	0	0	0	0	0	0	0	0	0	0	0	0	0	0	0	0	0	0	0	0	0	0
070919	12:14:42	12:26:55	732432	5.0.10.0	5_exp_RW	29	Rpleas_acq	CS_B	GWWG	VKKV	MQQM	BZZB	YDDY	JXXJ	treu	fair	ehrlich	spielen	schön	retten	tot	faul	eitel	strafen	schlecht	rächen	1	acq_USunple_CSunple2_RW	acq4567_RW	6	20	400	0	300	300	526	46	0	1	1	blank2r.bmp	0	1	+	0	1	blank2r.bmp	492	1	BZZB	492	1	blank2r.bmp	572	3	rächen	866	1	!	1239	1	!	-1	0	0	0	0	0	0	0	0	0	0	0	0	0	0	0	0	0	0	0	0	0	0	0	0	0	0	0	0	0	0
