date	time	script.currenttime	script.elapsedtime	build	script.currentexpt	subject	expressions.LRpleas_acq	expressions.conditionCS_A	expressions.CSpleas_1	expressions.CSpleas_2	expressions.CSunple_1	expressions.CSunple_2	expressions.distractor_1	expressions.distractor_2	expressions.US_pleas1	expressions.US_pleas2	expressions.US_pleas3	expressions.US_pleas4	expressions.US_pleas5	expressions.US_pleas6	expressions.US_unple1	expressions.US_unple2	expressions.US_unple3	expressions.US_unple4	expressions.US_unple5	expressions.US_unple6	counter.positions_noRW	trialcode	blockcode	blocknum	trialnum	windowcenter	inwindow	pretrialpause	posttrialpause	latency	response	expressions.correctedscore	correct	stimulusnumber1	stimulusitem1	stimulusonset1	stimulusnumber2	stimulusitem2	stimulusonset2	stimulusnumber3	stimulusitem3	stimulusonset3	stimulusnumber4	stimulusitem4	stimulusonset4	stimulusnumber5	stimulusitem5	stimulusonset5	stimulusnumber6	stimulusitem6	stimulusonset6	stimulusnumber7	stimulusitem7	stimulusonset7	stimulusnumber8	stimulusitem8	stimulusonset8	stimulusnumber9	stimulusitem9	stimulusonset9	stimulusnumber10	stimulusitem10	stimulusonset10	stimulusnumber11	stimulusitem11	stimulusonset11	stimulusnumber12	stimulusitem12	stimulusonset12	stimulusnumber13	stimulusitem13	stimulusonset13	stimulusnumber14	stimulusitem14	stimulusonset14	stimulusnumber15	stimulusitem15	stimulusonset15	stimulusnumber16	stimulusitem16	stimulusonset16	stimulusnumber17	stimulusitem17	stimulusonset17	stimulusnumber18	stimulusitem18	stimulusonset18
082819	13:05:31	13:06:40	68305	5.0.10.0	5_exp_noRW	120	Rpleas_acq	CS_A	LWWL	DXXD	YFFY	CPPC	JQQJ	ZHHZ	träumen	vertrauen	küssen	genießen	sonnig	gütig	töten	versagen	krank	gemein	sterben	gierig	47pct	acq_USunple_CSunple1_noRW	acq1_noRW	1	1	0	0	300	300	1750	46	0	1	1	blank2r.bmp	0	1	+	0	1	blank2r.bmp	252	1	YFFY	306	2	versagen	559	0	0	0	0	0	0	0	0	0	0	0	0	0	0	0	0	0	0	0	0	0	0	0	0	0	0	0	0	0	0	0	0	0	0	0	0	0	0	0
082819	13:05:31	13:06:42	70410	5.0.10.0	5_exp_noRW	120	Rpleas_acq	CS_A	LWWL	DXXD	YFFY	CPPC	JQQJ	ZHHZ	träumen	vertrauen	küssen	genießen	sonnig	gütig	töten	versagen	krank	gemein	sterben	gierig	47pct	acq_USpleas_CSpleas2_noRW	acq1_noRW	1	2	0	0	300	300	930	50	0	1	1	blank2r.bmp	0	1	+	0	1	blank2r.bmp	252	1	DXXD	306	3	gütig	559	0	0	0	0	0	0	0	0	0	0	0	0	0	0	0	0	0	0	0	0	0	0	0	0	0	0	0	0	0	0	0	0	0	0	0	0	0	0	0
082819	13:05:31	13:06:45	72796	5.0.10.0	5_exp_noRW	120	Rpleas_acq	CS_A	LWWL	DXXD	YFFY	CPPC	JQQJ	ZHHZ	träumen	vertrauen	küssen	genießen	sonnig	gütig	töten	versagen	krank	gemein	sterben	gierig	53pct	acq_USpleas_CSpleas2_noRW	acq1_noRW	1	3	0	0	300	300	1203	50	0	1	1	blank2r.bmp	0	1	+	0	1	blank2r.bmp	252	1	DXXD	306	2	sonnig	559	0	0	0	0	0	0	0	0	0	0	0	0	0	0	0	0	0	0	0	0	0	0	0	0	0	0	0	0	0	0	0	0	0	0	0	0	0	0	0
082819	13:05:31	13:06:46	74502	5.0.10.0	5_exp_noRW	120	Rpleas_acq	CS_A	LWWL	DXXD	YFFY	CPPC	JQQJ	ZHHZ	träumen	vertrauen	küssen	genießen	sonnig	gütig	töten	versagen	krank	gemein	sterben	gierig	53pct	acq_USunple_CSpleas1_noRW	acq1_noRW	1	4	0	0	300	300	524	46	0	1	1	blank2r.bmp	0	1	+	0	1	blank2r.bmp	252	1	LWWL	306	3	krank	559	0	0	0	0	0	0	0	0	0	0	0	0	0	0	0	0	0	0	0	0	0	0	0	0	0	0	0	0	0	0	0	0	0	0	0	0	0	0	0
082819	13:05:31	13:06:48	76141	5.0.10.0	5_exp_noRW	120	Rpleas_acq	CS_A	LWWL	DXXD	YFFY	CPPC	JQQJ	ZHHZ	träumen	vertrauen	küssen	genießen	sonnig	gütig	töten	versagen	krank	gemein	sterben	gierig	53pct	acq_USunple_CSunple1_noRW	acq1_noRW	1	5	0	0	300	300	257	50	0	0	1	blank2r.bmp	0	1	+	0	1	blank2r.bmp	252	1	YFFY	306	3	krank	559	1	FEHLER	852	0	0	0	0	0	0	0	0	0	0	0	0	0	0	0	0	0	0	0	0	0	0	0	0	0	0	0	0	0	0	0	0	0	0	0	0
082819	13:05:31	13:06:50	77661	5.0.10.0	5_exp_noRW	120	Rpleas_acq	CS_A	LWWL	DXXD	YFFY	CPPC	JQQJ	ZHHZ	träumen	vertrauen	küssen	genießen	sonnig	gütig	töten	versagen	krank	gemein	sterben	gierig	53pct	acq_USpleas_CSunple1_noRW	acq1_noRW	1	6	0	0	300	300	561	50	0	1	1	blank2r.bmp	0	1	+	0	1	blank2r.bmp	252	1	YFFY	306	3	küssen	559	0	0	0	0	0	0	0	0	0	0	0	0	0	0	0	0	0	0	0	0	0	0	0	0	0	0	0	0	0	0	0	0	0	0	0	0	0	0	0
082819	13:05:31	13:06:51	79500	5.0.10.0	5_exp_noRW	120	Rpleas_acq	CS_A	LWWL	DXXD	YFFY	CPPC	JQQJ	ZHHZ	träumen	vertrauen	küssen	genießen	sonnig	gütig	töten	versagen	krank	gemein	sterben	gierig	53pct	acq_USunple_CSpleas2_noRW	acq1_noRW	1	7	0	0	300	300	461	50	0	0	1	blank2r.bmp	0	1	+	0	1	blank2r.bmp	252	1	DXXD	306	1	gemein	559	1	FEHLER	1052	0	0	0	0	0	0	0	0	0	0	0	0	0	0	0	0	0	0	0	0	0	0	0	0	0	0	0	0	0	0	0	0	0	0	0	0
082819	13:05:31	13:06:53	81126	5.0.10.0	5_exp_noRW	120	Rpleas_acq	CS_A	LWWL	DXXD	YFFY	CPPC	JQQJ	ZHHZ	träumen	vertrauen	küssen	genießen	sonnig	gütig	töten	versagen	krank	gemein	sterben	gierig	47pct	acq_USpleas_CSpleas1_noRW	acq1_noRW	1	8	0	0	300	300	658	50	0	1	1	blank2r.bmp	0	1	+	0	1	blank2r.bmp	252	1	LWWL	306	1	träumen	559	0	0	0	0	0	0	0	0	0	0	0	0	0	0	0	0	0	0	0	0	0	0	0	0	0	0	0	0	0	0	0	0	0	0	0	0	0	0	0
082819	13:05:31	13:06:55	82832	5.0.10.0	5_exp_noRW	120	Rpleas_acq	CS_A	LWWL	DXXD	YFFY	CPPC	JQQJ	ZHHZ	träumen	vertrauen	küssen	genießen	sonnig	gütig	töten	versagen	krank	gemein	sterben	gierig	53pct	acq_USunple_CSunple1_noRW	acq1_noRW	1	9	0	0	300	300	530	46	0	1	1	blank2r.bmp	0	1	+	0	1	blank2r.bmp	252	1	YFFY	306	1	töten	559	0	0	0	0	0	0	0	0	0	0	0	0	0	0	0	0	0	0	0	0	0	0	0	0	0	0	0	0	0	0	0	0	0	0	0	0	0	0	0
082819	13:05:31	13:06:56	84431	5.0.10.0	5_exp_noRW	120	Rpleas_acq	CS_A	LWWL	DXXD	YFFY	CPPC	JQQJ	ZHHZ	träumen	vertrauen	küssen	genießen	sonnig	gütig	töten	versagen	krank	gemein	sterben	gierig	47pct	acq_USpleas_CSpleas1_noRW	acq1_noRW	1	10	0	0	300	300	434	50	0	1	1	blank2r.bmp	0	1	+	0	1	blank2r.bmp	252	1	LWWL	306	2	vertrauen	559	0	0	0	0	0	0	0	0	0	0	0	0	0	0	0	0	0	0	0	0	0	0	0	0	0	0	0	0	0	0	0	0	0	0	0	0	0	0	0
082819	13:05:31	13:06:58	85977	5.0.10.0	5_exp_noRW	120	Rpleas_acq	CS_A	LWWL	DXXD	YFFY	CPPC	JQQJ	ZHHZ	träumen	vertrauen	küssen	genießen	sonnig	gütig	töten	versagen	krank	gemein	sterben	gierig	53pct	acq_USunple_CSunple2_noRW	acq1_noRW	1	11	0	0	300	300	362	46	0	1	1	blank2r.bmp	0	1	+	0	1	blank2r.bmp	252	1	CPPC	306	3	gierig	559	0	0	0	0	0	0	0	0	0	0	0	0	0	0	0	0	0	0	0	0	0	0	0	0	0	0	0	0	0	0	0	0	0	0	0	0	0	0	0
082819	13:05:31	13:07:00	87603	5.0.10.0	5_exp_noRW	120	Rpleas_acq	CS_A	LWWL	DXXD	YFFY	CPPC	JQQJ	ZHHZ	träumen	vertrauen	küssen	genießen	sonnig	gütig	töten	versagen	krank	gemein	sterben	gierig	53pct	acq_USpleas_CSpleas2_noRW	acq1_noRW	1	12	0	0	300	300	439	50	0	1	1	blank2r.bmp	0	1	+	0	1	blank2r.bmp	252	1	DXXD	306	1	genießen	559	0	0	0	0	0	0	0	0	0	0	0	0	0	0	0	0	0	0	0	0	0	0	0	0	0	0	0	0	0	0	0	0	0	0	0	0	0	0	0
082819	13:05:31	13:07:01	89216	5.0.10.0	5_exp_noRW	120	Rpleas_acq	CS_A	LWWL	DXXD	YFFY	CPPC	JQQJ	ZHHZ	träumen	vertrauen	küssen	genießen	sonnig	gütig	töten	versagen	krank	gemein	sterben	gierig	47pct	acq_USpleas_CSunple2_noRW	acq1_noRW	1	13	0	0	300	300	430	50	0	1	1	blank2r.bmp	0	1	+	0	1	blank2r.bmp	252	1	CPPC	306	1	genießen	559	0	0	0	0	0	0	0	0	0	0	0	0	0	0	0	0	0	0	0	0	0	0	0	0	0	0	0	0	0	0	0	0	0	0	0	0	0	0	0
082819	13:05:31	13:07:03	90949	5.0.10.0	5_exp_noRW	120	Rpleas_acq	CS_A	LWWL	DXXD	YFFY	CPPC	JQQJ	ZHHZ	träumen	vertrauen	küssen	genießen	sonnig	gütig	töten	versagen	krank	gemein	sterben	gierig	53pct	acq_USunple_CSunple2_noRW	acq1_noRW	1	14	0	0	300	300	560	46	0	1	1	blank2r.bmp	0	1	+	0	1	blank2r.bmp	252	1	CPPC	306	2	sterben	559	0	0	0	0	0	0	0	0	0	0	0	0	0	0	0	0	0	0	0	0	0	0	0	0	0	0	0	0	0	0	0	0	0	0	0	0	0	0	0
082819	13:05:31	13:07:05	92615	5.0.10.0	5_exp_noRW	120	Rpleas_acq	CS_A	LWWL	DXXD	YFFY	CPPC	JQQJ	ZHHZ	träumen	vertrauen	küssen	genießen	sonnig	gütig	töten	versagen	krank	gemein	sterben	gierig	53pct	acq_USpleas_CSpleas1_noRW	acq1_noRW	1	15	0	0	300	300	496	50	0	1	1	blank2r.bmp	0	1	+	0	1	blank2r.bmp	252	1	LWWL	306	3	küssen	559	0	0	0	0	0	0	0	0	0	0	0	0	0	0	0	0	0	0	0	0	0	0	0	0	0	0	0	0	0	0	0	0	0	0	0	0	0	0	0
082819	13:05:31	13:07:06	94347	5.0.10.0	5_exp_noRW	120	Rpleas_acq	CS_A	LWWL	DXXD	YFFY	CPPC	JQQJ	ZHHZ	träumen	vertrauen	küssen	genießen	sonnig	gütig	töten	versagen	krank	gemein	sterben	gierig	47pct	acq_USunple_CSunple2_noRW	acq1_noRW	1	16	0	0	300	300	564	46	0	1	1	blank2r.bmp	0	1	+	0	1	blank2r.bmp	252	1	CPPC	306	1	gemein	559	0	0	0	0	0	0	0	0	0	0	0	0	0	0	0	0	0	0	0	0	0	0	0	0	0	0	0	0	0	0	0	0	0	0	0	0	0	0	0
082819	13:05:31	13:07:08	95987	5.0.10.0	5_exp_noRW	120	Rpleas_acq	CS_A	LWWL	DXXD	YFFY	CPPC	JQQJ	ZHHZ	träumen	vertrauen	küssen	genießen	sonnig	gütig	töten	versagen	krank	gemein	sterben	gierig	47pct	acq_USunple_CSunple1_noRW	acq1_noRW	1	17	0	0	300	300	469	46	0	1	1	blank2r.bmp	0	1	+	0	1	blank2r.bmp	252	1	YFFY	306	3	krank	559	0	0	0	0	0	0	0	0	0	0	0	0	0	0	0	0	0	0	0	0	0	0	0	0	0	0	0	0	0	0	0	0	0	0	0	0	0	0	0
082819	13:05:31	13:07:10	97613	5.0.10.0	5_exp_noRW	120	Rpleas_acq	CS_A	LWWL	DXXD	YFFY	CPPC	JQQJ	ZHHZ	träumen	vertrauen	küssen	genießen	sonnig	gütig	töten	versagen	krank	gemein	sterben	gierig	53pct	acq_USunple_CSunple2_noRW	acq1_noRW	1	18	0	0	300	300	461	46	0	1	1	blank2r.bmp	0	1	+	0	1	blank2r.bmp	252	1	CPPC	306	1	gemein	559	0	0	0	0	0	0	0	0	0	0	0	0	0	0	0	0	0	0	0	0	0	0	0	0	0	0	0	0	0	0	0	0	0	0	0	0	0	0	0
082819	13:05:31	13:07:11	99292	5.0.10.0	5_exp_noRW	120	Rpleas_acq	CS_A	LWWL	DXXD	YFFY	CPPC	JQQJ	ZHHZ	träumen	vertrauen	küssen	genießen	sonnig	gütig	töten	versagen	krank	gemein	sterben	gierig	47pct	acq_USpleas_CSpleas2_noRW	acq1_noRW	1	19	0	0	300	300	500	50	0	1	1	blank2r.bmp	0	1	+	0	1	blank2r.bmp	252	1	DXXD	306	3	gütig	559	0	0	0	0	0	0	0	0	0	0	0	0	0	0	0	0	0	0	0	0	0	0	0	0	0	0	0	0	0	0	0	0	0	0	0	0	0	0	0
082819	13:05:31	13:07:13	101145	5.0.10.0	5_exp_noRW	120	Rpleas_acq	CS_A	LWWL	DXXD	YFFY	CPPC	JQQJ	ZHHZ	träumen	vertrauen	küssen	genießen	sonnig	gütig	töten	versagen	krank	gemein	sterben	gierig	53pct	acq_USpleas_CSpleas1_noRW	acq1_noRW	1	20	0	0	300	300	686	50	0	1	1	blank2r.bmp	0	1	+	0	1	blank2r.bmp	252	1	LWWL	306	2	vertrauen	559	0	0	0	0	0	0	0	0	0	0	0	0	0	0	0	0	0	0	0	0	0	0	0	0	0	0	0	0	0	0	0	0	0	0	0	0	0	0	0
082819	13:05:31	13:07:15	102757	5.0.10.0	5_exp_noRW	120	Rpleas_acq	CS_A	LWWL	DXXD	YFFY	CPPC	JQQJ	ZHHZ	träumen	vertrauen	küssen	genießen	sonnig	gütig	töten	versagen	krank	gemein	sterben	gierig	47pct	acq_USpleas_CSpleas2_noRW	acq1_noRW	1	21	0	0	300	300	436	50	0	1	1	blank2r.bmp	0	1	+	0	1	blank2r.bmp	252	1	DXXD	306	1	genießen	559	0	0	0	0	0	0	0	0	0	0	0	0	0	0	0	0	0	0	0	0	0	0	0	0	0	0	0	0	0	0	0	0	0	0	0	0	0	0	0
082819	13:05:31	13:07:16	104410	5.0.10.0	5_exp_noRW	120	Rpleas_acq	CS_A	LWWL	DXXD	YFFY	CPPC	JQQJ	ZHHZ	träumen	vertrauen	küssen	genießen	sonnig	gütig	töten	versagen	krank	gemein	sterben	gierig	53pct	acq_USunple_CSunple1_noRW	acq1_noRW	1	22	0	0	300	300	465	46	0	1	1	blank2r.bmp	0	1	+	0	1	blank2r.bmp	252	1	YFFY	306	1	töten	559	0	0	0	0	0	0	0	0	0	0	0	0	0	0	0	0	0	0	0	0	0	0	0	0	0	0	0	0	0	0	0	0	0	0	0	0	0	0	0
082819	13:05:31	13:07:18	106076	5.0.10.0	5_exp_noRW	120	Rpleas_acq	CS_A	LWWL	DXXD	YFFY	CPPC	JQQJ	ZHHZ	träumen	vertrauen	küssen	genießen	sonnig	gütig	töten	versagen	krank	gemein	sterben	gierig	53pct	acq_USpleas_CSpleas1_noRW	acq1_noRW	1	23	0	0	300	300	491	50	0	1	1	blank2r.bmp	0	1	+	0	1	blank2r.bmp	252	1	LWWL	306	3	küssen	559	0	0	0	0	0	0	0	0	0	0	0	0	0	0	0	0	0	0	0	0	0	0	0	0	0	0	0	0	0	0	0	0	0	0	0	0	0	0	0
082819	13:05:31	13:07:20	107715	5.0.10.0	5_exp_noRW	120	Rpleas_acq	CS_A	LWWL	DXXD	YFFY	CPPC	JQQJ	ZHHZ	träumen	vertrauen	küssen	genießen	sonnig	gütig	töten	versagen	krank	gemein	sterben	gierig	53pct	acq_USunple_CSunple2_noRW	acq1_noRW	1	24	0	0	300	300	472	46	0	1	1	blank2r.bmp	0	1	+	0	1	blank2r.bmp	252	1	CPPC	306	2	sterben	559	0	0	0	0	0	0	0	0	0	0	0	0	0	0	0	0	0	0	0	0	0	0	0	0	0	0	0	0	0	0	0	0	0	0	0	0	0	0	0
082819	13:05:31	13:07:21	109328	5.0.10.0	5_exp_noRW	120	Rpleas_acq	CS_A	LWWL	DXXD	YFFY	CPPC	JQQJ	ZHHZ	träumen	vertrauen	küssen	genießen	sonnig	gütig	töten	versagen	krank	gemein	sterben	gierig	53pct	acq_USpleas_CSunple1_noRW	acq1_noRW	1	25	0	0	300	300	439	50	0	1	1	blank2r.bmp	0	1	+	0	1	blank2r.bmp	252	1	YFFY	306	1	träumen	559	0	0	0	0	0	0	0	0	0	0	0	0	0	0	0	0	0	0	0	0	0	0	0	0	0	0	0	0	0	0	0	0	0	0	0	0	0	0	0
082819	13:05:31	13:07:23	110994	5.0.10.0	5_exp_noRW	120	Rpleas_acq	CS_A	LWWL	DXXD	YFFY	CPPC	JQQJ	ZHHZ	träumen	vertrauen	küssen	genießen	sonnig	gütig	töten	versagen	krank	gemein	sterben	gierig	53pct	acq_USunple_CSpleas1_noRW	acq1_noRW	1	26	0	0	300	300	500	46	0	1	1	blank2r.bmp	0	1	+	0	1	blank2r.bmp	252	1	LWWL	306	1	töten	559	0	0	0	0	0	0	0	0	0	0	0	0	0	0	0	0	0	0	0	0	0	0	0	0	0	0	0	0	0	0	0	0	0	0	0	0	0	0	0
082819	13:05:31	13:07:25	112966	5.0.10.0	5_exp_noRW	120	Rpleas_acq	CS_A	LWWL	DXXD	YFFY	CPPC	JQQJ	ZHHZ	träumen	vertrauen	küssen	genießen	sonnig	gütig	töten	versagen	krank	gemein	sterben	gierig	53pct	acq_USunple_CSunple1_noRW	acq1_noRW	1	27	0	0	300	300	595	50	0	0	1	blank2r.bmp	0	1	+	0	1	blank2r.bmp	252	1	YFFY	306	2	versagen	559	1	FEHLER	1186	0	0	0	0	0	0	0	0	0	0	0	0	0	0	0	0	0	0	0	0	0	0	0	0	0	0	0	0	0	0	0	0	0	0	0	0
082819	13:05:31	13:07:26	114526	5.0.10.0	5_exp_noRW	120	Rpleas_acq	CS_A	LWWL	DXXD	YFFY	CPPC	JQQJ	ZHHZ	träumen	vertrauen	küssen	genießen	sonnig	gütig	töten	versagen	krank	gemein	sterben	gierig	53pct	acq_USunple_CSunple2_noRW	acq1_noRW	1	28	0	0	300	300	575	46	0	1	1	blank2r.bmp	0	1	+	0	1	blank2r.bmp	252	1	CPPC	306	3	gierig	559	0	0	0	0	0	0	0	0	0	0	0	0	0	0	0	0	0	0	0	0	0	0	0	0	0	0	0	0	0	0	0	0	0	0	0	0	0	0	0
082819	13:05:31	13:07:28	116205	5.0.10.0	5_exp_noRW	120	Rpleas_acq	CS_A	LWWL	DXXD	YFFY	CPPC	JQQJ	ZHHZ	träumen	vertrauen	küssen	genießen	sonnig	gütig	töten	versagen	krank	gemein	sterben	gierig	47pct	acq_USpleas_CSpleas1_noRW	acq1_noRW	1	29	0	0	300	300	492	50	0	1	1	blank2r.bmp	0	1	+	0	1	blank2r.bmp	252	1	LWWL	306	1	träumen	559	0	0	0	0	0	0	0	0	0	0	0	0	0	0	0	0	0	0	0	0	0	0	0	0	0	0	0	0	0	0	0	0	0	0	0	0	0	0	0
082819	13:05:31	13:07:30	117778	5.0.10.0	5_exp_noRW	120	Rpleas_acq	CS_A	LWWL	DXXD	YFFY	CPPC	JQQJ	ZHHZ	träumen	vertrauen	küssen	genießen	sonnig	gütig	töten	versagen	krank	gemein	sterben	gierig	47pct	acq_USunple_CSunple1_noRW	acq1_noRW	1	30	0	0	300	300	408	46	0	1	1	blank2r.bmp	0	1	+	0	1	blank2r.bmp	252	1	YFFY	306	3	krank	559	0	0	0	0	0	0	0	0	0	0	0	0	0	0	0	0	0	0	0	0	0	0	0	0	0	0	0	0	0	0	0	0	0	0	0	0	0	0	0
082819	13:05:31	13:07:31	119337	5.0.10.0	5_exp_noRW	120	Rpleas_acq	CS_A	LWWL	DXXD	YFFY	CPPC	JQQJ	ZHHZ	träumen	vertrauen	küssen	genießen	sonnig	gütig	töten	versagen	krank	gemein	sterben	gierig	53pct	acq_USunple_CSunple2_noRW	acq1_noRW	1	31	0	0	300	300	387	46	0	1	1	blank2r.bmp	0	1	+	0	1	blank2r.bmp	252	1	CPPC	306	3	gierig	559	0	0	0	0	0	0	0	0	0	0	0	0	0	0	0	0	0	0	0	0	0	0	0	0	0	0	0	0	0	0	0	0	0	0	0	0	0	0	0
082819	13:05:31	13:07:33	121136	5.0.10.0	5_exp_noRW	120	Rpleas_acq	CS_A	LWWL	DXXD	YFFY	CPPC	JQQJ	ZHHZ	träumen	vertrauen	küssen	genießen	sonnig	gütig	töten	versagen	krank	gemein	sterben	gierig	47pct	acq_USunple_CSunple1_noRW	acq1_noRW	1	32	0	0	300	300	420	50	0	0	1	blank2r.bmp	0	1	+	0	1	blank2r.bmp	252	1	YFFY	306	2	versagen	559	1	FEHLER	1012	0	0	0	0	0	0	0	0	0	0	0	0	0	0	0	0	0	0	0	0	0	0	0	0	0	0	0	0	0	0	0	0	0	0	0	0
082819	13:05:31	13:07:35	122643	5.0.10.0	5_exp_noRW	120	Rpleas_acq	CS_A	LWWL	DXXD	YFFY	CPPC	JQQJ	ZHHZ	träumen	vertrauen	küssen	genießen	sonnig	gütig	töten	versagen	krank	gemein	sterben	gierig	53pct	acq_USpleas_CSpleas2_noRW	acq1_noRW	1	33	0	0	300	300	539	50	0	1	1	blank2r.bmp	0	1	+	0	1	blank2r.bmp	252	1	DXXD	306	2	sonnig	559	0	0	0	0	0	0	0	0	0	0	0	0	0	0	0	0	0	0	0	0	0	0	0	0	0	0	0	0	0	0	0	0	0	0	0	0	0	0	0
082819	13:05:31	13:07:36	124282	5.0.10.0	5_exp_noRW	120	Rpleas_acq	CS_A	LWWL	DXXD	YFFY	CPPC	JQQJ	ZHHZ	träumen	vertrauen	küssen	genießen	sonnig	gütig	töten	versagen	krank	gemein	sterben	gierig	47pct	acq_USpleas_CSpleas1_noRW	acq1_noRW	1	34	0	0	300	300	469	50	0	1	1	blank2r.bmp	0	1	+	0	1	blank2r.bmp	252	1	LWWL	306	1	träumen	559	0	0	0	0	0	0	0	0	0	0	0	0	0	0	0	0	0	0	0	0	0	0	0	0	0	0	0	0	0	0	0	0	0	0	0	0	0	0	0
082819	13:05:31	13:07:38	125828	5.0.10.0	5_exp_noRW	120	Rpleas_acq	CS_A	LWWL	DXXD	YFFY	CPPC	JQQJ	ZHHZ	träumen	vertrauen	küssen	genießen	sonnig	gütig	töten	versagen	krank	gemein	sterben	gierig	47pct	acq_USpleas_CSunple2_noRW	acq1_noRW	1	35	0	0	300	300	376	50	0	1	1	blank2r.bmp	0	1	+	0	1	blank2r.bmp	252	1	CPPC	306	2	sonnig	559	0	0	0	0	0	0	0	0	0	0	0	0	0	0	0	0	0	0	0	0	0	0	0	0	0	0	0	0	0	0	0	0	0	0	0	0	0	0	0
082819	13:05:31	13:07:39	127481	5.0.10.0	5_exp_noRW	120	Rpleas_acq	CS_A	LWWL	DXXD	YFFY	CPPC	JQQJ	ZHHZ	träumen	vertrauen	küssen	genießen	sonnig	gütig	töten	versagen	krank	gemein	sterben	gierig	47pct	acq_USpleas_CSpleas1_noRW	acq1_noRW	1	36	0	0	300	300	480	50	0	1	1	blank2r.bmp	0	1	+	0	1	blank2r.bmp	252	1	LWWL	306	3	küssen	559	0	0	0	0	0	0	0	0	0	0	0	0	0	0	0	0	0	0	0	0	0	0	0	0	0	0	0	0	0	0	0	0	0	0	0	0	0	0	0
082819	13:05:31	13:07:41	129253	5.0.10.0	5_exp_noRW	120	Rpleas_acq	CS_A	LWWL	DXXD	YFFY	CPPC	JQQJ	ZHHZ	träumen	vertrauen	küssen	genießen	sonnig	gütig	töten	versagen	krank	gemein	sterben	gierig	53pct	acq_USpleas_CSpleas2_noRW	acq1_noRW	1	37	0	0	300	300	386	46	0	0	1	blank2r.bmp	0	1	+	0	1	blank2r.bmp	252	1	DXXD	306	1	genießen	559	1	FEHLER	986	0	0	0	0	0	0	0	0	0	0	0	0	0	0	0	0	0	0	0	0	0	0	0	0	0	0	0	0	0	0	0	0	0	0	0	0
082819	13:05:31	13:07:43	130719	5.0.10.0	5_exp_noRW	120	Rpleas_acq	CS_A	LWWL	DXXD	YFFY	CPPC	JQQJ	ZHHZ	träumen	vertrauen	küssen	genießen	sonnig	gütig	töten	versagen	krank	gemein	sterben	gierig	53pct	acq_USunple_CSunple2_noRW	acq1_noRW	1	38	0	0	300	300	513	46	0	1	1	blank2r.bmp	0	1	+	0	1	blank2r.bmp	252	1	CPPC	306	2	sterben	559	0	0	0	0	0	0	0	0	0	0	0	0	0	0	0	0	0	0	0	0	0	0	0	0	0	0	0	0	0	0	0	0	0	0	0	0	0	0	0
082819	13:05:31	13:07:44	132279	5.0.10.0	5_exp_noRW	120	Rpleas_acq	CS_A	LWWL	DXXD	YFFY	CPPC	JQQJ	ZHHZ	träumen	vertrauen	küssen	genießen	sonnig	gütig	töten	versagen	krank	gemein	sterben	gierig	53pct	acq_USunple_CSpleas2_noRW	acq1_noRW	1	39	0	0	300	300	383	46	0	1	1	blank2r.bmp	0	1	+	0	1	blank2r.bmp	252	1	DXXD	306	2	sterben	559	0	0	0	0	0	0	0	0	0	0	0	0	0	0	0	0	0	0	0	0	0	0	0	0	0	0	0	0	0	0	0	0	0	0	0	0	0	0	0
082819	13:05:31	13:07:46	133838	5.0.10.0	5_exp_noRW	120	Rpleas_acq	CS_A	LWWL	DXXD	YFFY	CPPC	JQQJ	ZHHZ	träumen	vertrauen	küssen	genießen	sonnig	gütig	töten	versagen	krank	gemein	sterben	gierig	53pct	acq_USpleas_CSpleas2_noRW	acq1_noRW	1	40	0	0	300	300	384	50	0	1	1	blank2r.bmp	0	1	+	0	1	blank2r.bmp	252	1	DXXD	306	3	gütig	559	0	0	0	0	0	0	0	0	0	0	0	0	0	0	0	0	0	0	0	0	0	0	0	0	0	0	0	0	0	0	0	0	0	0	0	0	0	0	0
082819	13:05:31	13:07:47	135437	5.0.10.0	5_exp_noRW	120	Rpleas_acq	CS_A	LWWL	DXXD	YFFY	CPPC	JQQJ	ZHHZ	träumen	vertrauen	küssen	genießen	sonnig	gütig	töten	versagen	krank	gemein	sterben	gierig	47pct	acq_USpleas_CSpleas2_noRW	acq1_noRW	1	41	0	0	300	300	423	50	0	1	1	blank2r.bmp	0	1	+	0	1	blank2r.bmp	252	1	DXXD	306	2	sonnig	559	0	0	0	0	0	0	0	0	0	0	0	0	0	0	0	0	0	0	0	0	0	0	0	0	0	0	0	0	0	0	0	0	0	0	0	0	0	0	0
082819	13:05:31	13:07:49	136983	5.0.10.0	5_exp_noRW	120	Rpleas_acq	CS_A	LWWL	DXXD	YFFY	CPPC	JQQJ	ZHHZ	träumen	vertrauen	küssen	genießen	sonnig	gütig	töten	versagen	krank	gemein	sterben	gierig	47pct	acq_USpleas_CSunple2_noRW	acq1_noRW	1	42	0	0	300	300	362	50	0	1	1	blank2r.bmp	0	1	+	0	1	blank2r.bmp	252	1	CPPC	306	3	gütig	559	0	0	0	0	0	0	0	0	0	0	0	0	0	0	0	0	0	0	0	0	0	0	0	0	0	0	0	0	0	0	0	0	0	0	0	0	0	0	0
082819	13:05:31	13:07:50	138543	5.0.10.0	5_exp_noRW	120	Rpleas_acq	CS_A	LWWL	DXXD	YFFY	CPPC	JQQJ	ZHHZ	träumen	vertrauen	küssen	genießen	sonnig	gütig	töten	versagen	krank	gemein	sterben	gierig	53pct	acq_USpleas_CSpleas2_noRW	acq1_noRW	1	43	0	0	300	300	387	50	0	1	1	blank2r.bmp	0	1	+	0	1	blank2r.bmp	252	1	DXXD	306	2	sonnig	559	0	0	0	0	0	0	0	0	0	0	0	0	0	0	0	0	0	0	0	0	0	0	0	0	0	0	0	0	0	0	0	0	0	0	0	0	0	0	0
082819	13:05:31	13:07:52	140302	5.0.10.0	5_exp_noRW	120	Rpleas_acq	CS_A	LWWL	DXXD	YFFY	CPPC	JQQJ	ZHHZ	träumen	vertrauen	küssen	genießen	sonnig	gütig	töten	versagen	krank	gemein	sterben	gierig	53pct	acq_USunple_CSpleas2_noRW	acq1_noRW	1	44	0	0	300	300	593	46	0	1	1	blank2r.bmp	0	1	+	0	1	blank2r.bmp	252	1	DXXD	306	3	gierig	559	0	0	0	0	0	0	0	0	0	0	0	0	0	0	0	0	0	0	0	0	0	0	0	0	0	0	0	0	0	0	0	0	0	0	0	0	0	0	0
082819	13:05:31	13:07:54	142195	5.0.10.0	5_exp_noRW	120	Rpleas_acq	CS_A	LWWL	DXXD	YFFY	CPPC	JQQJ	ZHHZ	träumen	vertrauen	küssen	genießen	sonnig	gütig	töten	versagen	krank	gemein	sterben	gierig	53pct	acq_USunple_CSpleas1_noRW	acq1_noRW	1	45	0	0	300	300	722	46	0	1	1	blank2r.bmp	0	1	+	0	1	blank2r.bmp	252	1	LWWL	306	2	versagen	559	0	0	0	0	0	0	0	0	0	0	0	0	0	0	0	0	0	0	0	0	0	0	0	0	0	0	0	0	0	0	0	0	0	0	0	0	0	0	0
082819	13:05:31	13:07:56	144020	5.0.10.0	5_exp_noRW	120	Rpleas_acq	CS_A	LWWL	DXXD	YFFY	CPPC	JQQJ	ZHHZ	träumen	vertrauen	küssen	genießen	sonnig	gütig	töten	versagen	krank	gemein	sterben	gierig	53pct	acq_USunple_CSunple2_noRW	acq1_noRW	1	46	0	0	300	300	663	46	0	1	1	blank2r.bmp	0	1	+	0	1	blank2r.bmp	252	1	CPPC	306	1	gemein	559	0	0	0	0	0	0	0	0	0	0	0	0	0	0	0	0	0	0	0	0	0	0	0	0	0	0	0	0	0	0	0	0	0	0	0	0	0	0	0
082819	13:05:31	13:07:58	145700	5.0.10.0	5_exp_noRW	120	Rpleas_acq	CS_A	LWWL	DXXD	YFFY	CPPC	JQQJ	ZHHZ	träumen	vertrauen	küssen	genießen	sonnig	gütig	töten	versagen	krank	gemein	sterben	gierig	47pct	acq_USpleas_CSpleas1_noRW	acq1_noRW	1	47	0	0	300	300	493	50	0	1	1	blank2r.bmp	0	1	+	0	1	blank2r.bmp	252	1	LWWL	306	2	vertrauen	559	0	0	0	0	0	0	0	0	0	0	0	0	0	0	0	0	0	0	0	0	0	0	0	0	0	0	0	0	0	0	0	0	0	0	0	0	0	0	0
082819	13:05:31	13:07:59	147499	5.0.10.0	5_exp_noRW	120	Rpleas_acq	CS_A	LWWL	DXXD	YFFY	CPPC	JQQJ	ZHHZ	träumen	vertrauen	küssen	genießen	sonnig	gütig	töten	versagen	krank	gemein	sterben	gierig	53pct	acq_USunple_CSunple2_noRW	acq1_noRW	1	48	0	0	300	300	637	46	0	1	1	blank2r.bmp	0	1	+	0	1	blank2r.bmp	252	1	CPPC	306	1	gemein	559	0	0	0	0	0	0	0	0	0	0	0	0	0	0	0	0	0	0	0	0	0	0	0	0	0	0	0	0	0	0	0	0	0	0	0	0	0	0	0
082819	13:05:31	13:08:01	149312	5.0.10.0	5_exp_noRW	120	Rpleas_acq	CS_A	LWWL	DXXD	YFFY	CPPC	JQQJ	ZHHZ	träumen	vertrauen	küssen	genießen	sonnig	gütig	töten	versagen	krank	gemein	sterben	gierig	47pct	acq_USpleas_CSunple1_noRW	acq1_noRW	1	49	0	0	300	300	631	50	0	1	1	blank2r.bmp	0	1	+	0	1	blank2r.bmp	252	1	YFFY	306	2	vertrauen	559	0	0	0	0	0	0	0	0	0	0	0	0	0	0	0	0	0	0	0	0	0	0	0	0	0	0	0	0	0	0	0	0	0	0	0	0	0	0	0
082819	13:05:31	13:08:03	151031	5.0.10.0	5_exp_noRW	120	Rpleas_acq	CS_A	LWWL	DXXD	YFFY	CPPC	JQQJ	ZHHZ	träumen	vertrauen	küssen	genießen	sonnig	gütig	töten	versagen	krank	gemein	sterben	gierig	53pct	acq_USpleas_CSpleas1_noRW	acq1_noRW	1	50	0	0	300	300	543	50	0	1	1	blank2r.bmp	0	1	+	0	1	blank2r.bmp	252	1	LWWL	306	3	küssen	559	0	0	0	0	0	0	0	0	0	0	0	0	0	0	0	0	0	0	0	0	0	0	0	0	0	0	0	0	0	0	0	0	0	0	0	0	0	0	0
082819	13:05:31	13:08:05	152817	5.0.10.0	5_exp_noRW	120	Rpleas_acq	CS_A	LWWL	DXXD	YFFY	CPPC	JQQJ	ZHHZ	träumen	vertrauen	küssen	genießen	sonnig	gütig	töten	versagen	krank	gemein	sterben	gierig	47pct	acq_USpleas_CSpleas1_noRW	acq1_noRW	1	51	0	0	300	300	599	50	0	1	1	blank2r.bmp	0	1	+	0	1	blank2r.bmp	252	1	LWWL	306	2	vertrauen	559	0	0	0	0	0	0	0	0	0	0	0	0	0	0	0	0	0	0	0	0	0	0	0	0	0	0	0	0	0	0	0	0	0	0	0	0	0	0	0
082819	13:05:31	13:08:06	154589	5.0.10.0	5_exp_noRW	120	Rpleas_acq	CS_A	LWWL	DXXD	YFFY	CPPC	JQQJ	ZHHZ	träumen	vertrauen	küssen	genießen	sonnig	gütig	töten	versagen	krank	gemein	sterben	gierig	47pct	acq_USunple_CSunple1_noRW	acq1_noRW	1	52	0	0	300	300	610	46	0	1	1	blank2r.bmp	0	1	+	0	1	blank2r.bmp	252	1	YFFY	306	1	töten	559	0	0	0	0	0	0	0	0	0	0	0	0	0	0	0	0	0	0	0	0	0	0	0	0	0	0	0	0	0	0	0	0	0	0	0	0	0	0	0
082819	13:05:31	13:08:08	156255	5.0.10.0	5_exp_noRW	120	Rpleas_acq	CS_A	LWWL	DXXD	YFFY	CPPC	JQQJ	ZHHZ	träumen	vertrauen	küssen	genießen	sonnig	gütig	töten	versagen	krank	gemein	sterben	gierig	47pct	acq_USunple_CSunple1_noRW	acq1_noRW	1	53	0	0	300	300	485	46	0	1	1	blank2r.bmp	0	1	+	0	1	blank2r.bmp	252	1	YFFY	306	1	töten	559	0	0	0	0	0	0	0	0	0	0	0	0	0	0	0	0	0	0	0	0	0	0	0	0	0	0	0	0	0	0	0	0	0	0	0	0	0	0	0
082819	13:05:31	13:08:10	158028	5.0.10.0	5_exp_noRW	120	Rpleas_acq	CS_A	LWWL	DXXD	YFFY	CPPC	JQQJ	ZHHZ	träumen	vertrauen	küssen	genießen	sonnig	gütig	töten	versagen	krank	gemein	sterben	gierig	53pct	acq_USunple_CSunple1_noRW	acq1_noRW	1	54	0	0	300	300	597	46	0	1	1	blank2r.bmp	0	1	+	0	1	blank2r.bmp	252	1	YFFY	306	3	krank	559	0	0	0	0	0	0	0	0	0	0	0	0	0	0	0	0	0	0	0	0	0	0	0	0	0	0	0	0	0	0	0	0	0	0	0	0	0	0	0
082819	13:05:31	13:08:12	159721	5.0.10.0	5_exp_noRW	120	Rpleas_acq	CS_A	LWWL	DXXD	YFFY	CPPC	JQQJ	ZHHZ	träumen	vertrauen	küssen	genießen	sonnig	gütig	töten	versagen	krank	gemein	sterben	gierig	53pct	acq_USpleas_CSpleas2_noRW	acq1_noRW	1	55	0	0	300	300	518	50	0	1	1	blank2r.bmp	0	1	+	0	1	blank2r.bmp	252	1	DXXD	306	1	genießen	559	0	0	0	0	0	0	0	0	0	0	0	0	0	0	0	0	0	0	0	0	0	0	0	0	0	0	0	0	0	0	0	0	0	0	0	0	0	0	0
082819	13:05:31	13:08:13	161427	5.0.10.0	5_exp_noRW	120	Rpleas_acq	CS_A	LWWL	DXXD	YFFY	CPPC	JQQJ	ZHHZ	träumen	vertrauen	küssen	genießen	sonnig	gütig	töten	versagen	krank	gemein	sterben	gierig	53pct	acq_USpleas_CSpleas2_noRW	acq1_noRW	1	56	0	0	300	300	529	50	0	1	1	blank2r.bmp	0	1	+	0	1	blank2r.bmp	252	1	DXXD	306	3	gütig	559	0	0	0	0	0	0	0	0	0	0	0	0	0	0	0	0	0	0	0	0	0	0	0	0	0	0	0	0	0	0	0	0	0	0	0	0	0	0	0
082819	13:05:31	13:08:15	163093	5.0.10.0	5_exp_noRW	120	Rpleas_acq	CS_A	LWWL	DXXD	YFFY	CPPC	JQQJ	ZHHZ	träumen	vertrauen	küssen	genießen	sonnig	gütig	töten	versagen	krank	gemein	sterben	gierig	47pct	acq_USpleas_CSpleas1_noRW	acq1_noRW	1	57	0	0	300	300	498	50	0	1	1	blank2r.bmp	0	1	+	0	1	blank2r.bmp	252	1	LWWL	306	1	träumen	559	0	0	0	0	0	0	0	0	0	0	0	0	0	0	0	0	0	0	0	0	0	0	0	0	0	0	0	0	0	0	0	0	0	0	0	0	0	0	0
082819	13:05:31	13:08:17	164732	5.0.10.0	5_exp_noRW	120	Rpleas_acq	CS_A	LWWL	DXXD	YFFY	CPPC	JQQJ	ZHHZ	träumen	vertrauen	küssen	genießen	sonnig	gütig	töten	versagen	krank	gemein	sterben	gierig	47pct	acq_USunple_CSunple2_noRW	acq1_noRW	1	58	0	0	300	300	457	46	0	1	1	blank2r.bmp	0	1	+	0	1	blank2r.bmp	252	1	CPPC	306	3	gierig	559	0	0	0	0	0	0	0	0	0	0	0	0	0	0	0	0	0	0	0	0	0	0	0	0	0	0	0	0	0	0	0	0	0	0	0	0	0	0	0
082819	13:05:31	13:08:18	166465	5.0.10.0	5_exp_noRW	120	Rpleas_acq	CS_A	LWWL	DXXD	YFFY	CPPC	JQQJ	ZHHZ	träumen	vertrauen	küssen	genießen	sonnig	gütig	töten	versagen	krank	gemein	sterben	gierig	47pct	acq_USunple_CSunple2_noRW	acq1_noRW	1	59	0	0	300	300	562	46	0	1	1	blank2r.bmp	0	1	+	0	1	blank2r.bmp	252	1	CPPC	306	2	sterben	559	0	0	0	0	0	0	0	0	0	0	0	0	0	0	0	0	0	0	0	0	0	0	0	0	0	0	0	0	0	0	0	0	0	0	0	0	0	0	0
082819	13:05:31	13:08:20	168477	5.0.10.0	5_exp_noRW	120	Rpleas_acq	CS_A	LWWL	DXXD	YFFY	CPPC	JQQJ	ZHHZ	träumen	vertrauen	küssen	genießen	sonnig	gütig	töten	versagen	krank	gemein	sterben	gierig	53pct	acq_USunple_CSunple1_noRW	acq1_noRW	1	60	0	0	300	300	845	46	0	1	1	blank2r.bmp	0	1	+	0	1	blank2r.bmp	252	1	YFFY	306	2	versagen	559	0	0	0	0	0	0	0	0	0	0	0	0	0	0	0	0	0	0	0	0	0	0	0	0	0	0	0	0	0	0	0	0	0	0	0	0	0	0	0
082819	13:05:31	13:08:22	170103	5.0.10.0	5_exp_noRW	120	Rpleas_acq	CS_A	LWWL	DXXD	YFFY	CPPC	JQQJ	ZHHZ	träumen	vertrauen	küssen	genießen	sonnig	gütig	töten	versagen	krank	gemein	sterben	gierig	53pct	acq_USpleas_CSpleas2_noRW	acq1_noRW	1	61	0	0	300	300	463	50	0	1	1	blank2r.bmp	0	1	+	0	1	blank2r.bmp	252	1	DXXD	306	3	gütig	559	0	0	0	0	0	0	0	0	0	0	0	0	0	0	0	0	0	0	0	0	0	0	0	0	0	0	0	0	0	0	0	0	0	0	0	0	0	0	0
082819	13:05:31	13:08:24	171849	5.0.10.0	5_exp_noRW	120	Rpleas_acq	CS_A	LWWL	DXXD	YFFY	CPPC	JQQJ	ZHHZ	träumen	vertrauen	küssen	genießen	sonnig	gütig	töten	versagen	krank	gemein	sterben	gierig	47pct	acq_USunple_CSunple2_noRW	acq1_noRW	1	62	0	0	300	300	571	46	0	1	1	blank2r.bmp	0	1	+	0	1	blank2r.bmp	252	1	CPPC	306	1	gemein	559	0	0	0	0	0	0	0	0	0	0	0	0	0	0	0	0	0	0	0	0	0	0	0	0	0	0	0	0	0	0	0	0	0	0	0	0	0	0	0
082819	13:05:31	13:08:25	173502	5.0.10.0	5_exp_noRW	120	Rpleas_acq	CS_A	LWWL	DXXD	YFFY	CPPC	JQQJ	ZHHZ	träumen	vertrauen	küssen	genießen	sonnig	gütig	töten	versagen	krank	gemein	sterben	gierig	53pct	acq_USunple_CSunple2_noRW	acq1_noRW	1	63	0	0	300	300	477	46	0	1	1	blank2r.bmp	0	1	+	0	1	blank2r.bmp	252	1	CPPC	306	2	sterben	559	0	0	0	0	0	0	0	0	0	0	0	0	0	0	0	0	0	0	0	0	0	0	0	0	0	0	0	0	0	0	0	0	0	0	0	0	0	0	0
082819	13:05:31	13:08:27	175114	5.0.10.0	5_exp_noRW	120	Rpleas_acq	CS_A	LWWL	DXXD	YFFY	CPPC	JQQJ	ZHHZ	träumen	vertrauen	küssen	genießen	sonnig	gütig	töten	versagen	krank	gemein	sterben	gierig	47pct	acq_USpleas_CSunple1_noRW	acq1_noRW	1	64	0	0	300	300	433	50	0	1	1	blank2r.bmp	0	1	+	0	1	blank2r.bmp	252	1	YFFY	306	3	küssen	559	0	0	0	0	0	0	0	0	0	0	0	0	0	0	0	0	0	0	0	0	0	0	0	0	0	0	0	0	0	0	0	0	0	0	0	0	0	0	0
082819	13:05:31	13:08:29	176727	5.0.10.0	5_exp_noRW	120	Rpleas_acq	CS_A	LWWL	DXXD	YFFY	CPPC	JQQJ	ZHHZ	träumen	vertrauen	küssen	genießen	sonnig	gütig	töten	versagen	krank	gemein	sterben	gierig	47pct	acq_USunple_CSunple1_noRW	acq1_noRW	1	65	0	0	300	300	426	46	0	1	1	blank2r.bmp	0	1	+	0	1	blank2r.bmp	252	1	YFFY	306	1	töten	559	0	0	0	0	0	0	0	0	0	0	0	0	0	0	0	0	0	0	0	0	0	0	0	0	0	0	0	0	0	0	0	0	0	0	0	0	0	0	0
082819	13:05:31	13:08:30	178393	5.0.10.0	5_exp_noRW	120	Rpleas_acq	CS_A	LWWL	DXXD	YFFY	CPPC	JQQJ	ZHHZ	träumen	vertrauen	küssen	genießen	sonnig	gütig	töten	versagen	krank	gemein	sterben	gierig	47pct	acq_USpleas_CSpleas1_noRW	acq1_noRW	1	66	0	0	300	300	481	50	0	1	1	blank2r.bmp	0	1	+	0	1	blank2r.bmp	252	1	LWWL	306	3	küssen	559	0	0	0	0	0	0	0	0	0	0	0	0	0	0	0	0	0	0	0	0	0	0	0	0	0	0	0	0	0	0	0	0	0	0	0	0	0	0	0
082819	13:05:31	13:08:32	180299	5.0.10.0	5_exp_noRW	120	Rpleas_acq	CS_A	LWWL	DXXD	YFFY	CPPC	JQQJ	ZHHZ	träumen	vertrauen	küssen	genießen	sonnig	gütig	töten	versagen	krank	gemein	sterben	gierig	47pct	acq_USpleas_CSpleas1_noRW	acq1_noRW	1	67	0	0	300	300	725	50	0	1	1	blank2r.bmp	0	1	+	0	1	blank2r.bmp	252	1	LWWL	306	1	träumen	559	0	0	0	0	0	0	0	0	0	0	0	0	0	0	0	0	0	0	0	0	0	0	0	0	0	0	0	0	0	0	0	0	0	0	0	0	0	0	0
082819	13:05:31	13:08:34	181978	5.0.10.0	5_exp_noRW	120	Rpleas_acq	CS_A	LWWL	DXXD	YFFY	CPPC	JQQJ	ZHHZ	träumen	vertrauen	küssen	genießen	sonnig	gütig	töten	versagen	krank	gemein	sterben	gierig	47pct	acq_USpleas_CSpleas2_noRW	acq1_noRW	1	68	0	0	300	300	497	50	0	1	1	blank2r.bmp	0	1	+	0	1	blank2r.bmp	252	1	DXXD	306	1	genießen	559	0	0	0	0	0	0	0	0	0	0	0	0	0	0	0	0	0	0	0	0	0	0	0	0	0	0	0	0	0	0	0	0	0	0	0	0	0	0	0
082819	13:05:31	13:08:36	183631	5.0.10.0	5_exp_noRW	120	Rpleas_acq	CS_A	LWWL	DXXD	YFFY	CPPC	JQQJ	ZHHZ	träumen	vertrauen	küssen	genießen	sonnig	gütig	töten	versagen	krank	gemein	sterben	gierig	47pct	acq_USunple_CSpleas1_noRW	acq1_noRW	1	69	0	0	300	300	474	46	0	1	1	blank2r.bmp	0	1	+	0	1	blank2r.bmp	252	1	LWWL	306	3	krank	559	0	0	0	0	0	0	0	0	0	0	0	0	0	0	0	0	0	0	0	0	0	0	0	0	0	0	0	0	0	0	0	0	0	0	0	0	0	0	0
082819	13:05:31	13:08:37	185364	5.0.10.0	5_exp_noRW	120	Rpleas_acq	CS_A	LWWL	DXXD	YFFY	CPPC	JQQJ	ZHHZ	träumen	vertrauen	küssen	genießen	sonnig	gütig	töten	versagen	krank	gemein	sterben	gierig	47pct	acq_USpleas_CSpleas1_noRW	acq1_noRW	1	70	0	0	300	300	549	50	0	1	1	blank2r.bmp	0	1	+	0	1	blank2r.bmp	252	1	LWWL	306	2	vertrauen	559	0	0	0	0	0	0	0	0	0	0	0	0	0	0	0	0	0	0	0	0	0	0	0	0	0	0	0	0	0	0	0	0	0	0	0	0	0	0	0
082819	13:05:31	13:08:39	186976	5.0.10.0	5_exp_noRW	120	Rpleas_acq	CS_A	LWWL	DXXD	YFFY	CPPC	JQQJ	ZHHZ	träumen	vertrauen	küssen	genießen	sonnig	gütig	töten	versagen	krank	gemein	sterben	gierig	47pct	acq_USunple_CSunple1_noRW	acq1_noRW	1	71	0	0	300	300	440	46	0	1	1	blank2r.bmp	0	1	+	0	1	blank2r.bmp	252	1	YFFY	306	3	krank	559	0	0	0	0	0	0	0	0	0	0	0	0	0	0	0	0	0	0	0	0	0	0	0	0	0	0	0	0	0	0	0	0	0	0	0	0	0	0	0
082819	13:05:31	13:08:40	188576	5.0.10.0	5_exp_noRW	120	Rpleas_acq	CS_A	LWWL	DXXD	YFFY	CPPC	JQQJ	ZHHZ	träumen	vertrauen	küssen	genießen	sonnig	gütig	töten	versagen	krank	gemein	sterben	gierig	47pct	acq_USpleas_CSpleas2_noRW	acq1_noRW	1	72	0	0	300	300	418	50	0	1	1	blank2r.bmp	0	1	+	0	1	blank2r.bmp	252	1	DXXD	306	2	sonnig	559	0	0	0	0	0	0	0	0	0	0	0	0	0	0	0	0	0	0	0	0	0	0	0	0	0	0	0	0	0	0	0	0	0	0	0	0	0	0	0
082819	13:05:31	13:08:42	190282	5.0.10.0	5_exp_noRW	120	Rpleas_acq	CS_A	LWWL	DXXD	YFFY	CPPC	JQQJ	ZHHZ	träumen	vertrauen	küssen	genießen	sonnig	gütig	töten	versagen	krank	gemein	sterben	gierig	53pct	acq_USpleas_CSpleas2_noRW	acq1_noRW	1	73	0	0	300	300	523	50	0	1	1	blank2r.bmp	0	1	+	0	1	blank2r.bmp	252	1	DXXD	306	2	sonnig	559	0	0	0	0	0	0	0	0	0	0	0	0	0	0	0	0	0	0	0	0	0	0	0	0	0	0	0	0	0	0	0	0	0	0	0	0	0	0	0
082819	13:05:31	13:08:44	191894	5.0.10.0	5_exp_noRW	120	Rpleas_acq	CS_A	LWWL	DXXD	YFFY	CPPC	JQQJ	ZHHZ	träumen	vertrauen	küssen	genießen	sonnig	gütig	töten	versagen	krank	gemein	sterben	gierig	47pct	acq_USunple_CSunple2_noRW	acq1_noRW	1	74	0	0	300	300	428	46	0	1	1	blank2r.bmp	0	1	+	0	1	blank2r.bmp	252	1	CPPC	306	3	gierig	559	0	0	0	0	0	0	0	0	0	0	0	0	0	0	0	0	0	0	0	0	0	0	0	0	0	0	0	0	0	0	0	0	0	0	0	0	0	0	0
082819	13:05:31	13:08:46	193667	5.0.10.0	5_exp_noRW	120	Rpleas_acq	CS_A	LWWL	DXXD	YFFY	CPPC	JQQJ	ZHHZ	träumen	vertrauen	küssen	genießen	sonnig	gütig	töten	versagen	krank	gemein	sterben	gierig	53pct	acq_USunple_CSunple1_noRW	acq1_noRW	1	75	0	0	300	300	605	46	0	1	1	blank2r.bmp	0	1	+	0	1	blank2r.bmp	252	1	YFFY	306	2	versagen	559	0	0	0	0	0	0	0	0	0	0	0	0	0	0	0	0	0	0	0	0	0	0	0	0	0	0	0	0	0	0	0	0	0	0	0	0	0	0	0
082819	13:05:31	13:08:47	195320	5.0.10.0	5_exp_noRW	120	Rpleas_acq	CS_A	LWWL	DXXD	YFFY	CPPC	JQQJ	ZHHZ	träumen	vertrauen	küssen	genießen	sonnig	gütig	töten	versagen	krank	gemein	sterben	gierig	53pct	acq_USunple_CSpleas2_noRW	acq1_noRW	1	76	0	0	300	300	473	46	0	1	1	blank2r.bmp	0	1	+	0	1	blank2r.bmp	252	1	DXXD	306	3	gierig	559	0	0	0	0	0	0	0	0	0	0	0	0	0	0	0	0	0	0	0	0	0	0	0	0	0	0	0	0	0	0	0	0	0	0	0	0	0	0	0
082819	13:05:31	13:08:49	196892	5.0.10.0	5_exp_noRW	120	Rpleas_acq	CS_A	LWWL	DXXD	YFFY	CPPC	JQQJ	ZHHZ	träumen	vertrauen	küssen	genießen	sonnig	gütig	töten	versagen	krank	gemein	sterben	gierig	53pct	acq_USunple_CSunple2_noRW	acq1_noRW	1	77	0	0	300	300	395	46	0	1	1	blank2r.bmp	0	1	+	0	1	blank2r.bmp	252	1	CPPC	306	3	gierig	559	0	0	0	0	0	0	0	0	0	0	0	0	0	0	0	0	0	0	0	0	0	0	0	0	0	0	0	0	0	0	0	0	0	0	0	0	0	0	0
082819	13:05:31	13:08:50	198558	5.0.10.0	5_exp_noRW	120	Rpleas_acq	CS_A	LWWL	DXXD	YFFY	CPPC	JQQJ	ZHHZ	träumen	vertrauen	küssen	genießen	sonnig	gütig	töten	versagen	krank	gemein	sterben	gierig	53pct	acq_USpleas_CSpleas1_noRW	acq1_noRW	1	78	0	0	300	300	478	50	0	1	1	blank2r.bmp	0	1	+	0	1	blank2r.bmp	252	1	LWWL	306	2	vertrauen	559	0	0	0	0	0	0	0	0	0	0	0	0	0	0	0	0	0	0	0	0	0	0	0	0	0	0	0	0	0	0	0	0	0	0	0	0	0	0	0
082819	13:05:31	13:08:52	200184	5.0.10.0	5_exp_noRW	120	Rpleas_acq	CS_A	LWWL	DXXD	YFFY	CPPC	JQQJ	ZHHZ	träumen	vertrauen	küssen	genießen	sonnig	gütig	töten	versagen	krank	gemein	sterben	gierig	53pct	acq_USpleas_CSunple2_noRW	acq1_noRW	1	79	0	0	300	300	452	50	0	1	1	blank2r.bmp	0	1	+	0	1	blank2r.bmp	252	1	CPPC	306	2	sonnig	559	0	0	0	0	0	0	0	0	0	0	0	0	0	0	0	0	0	0	0	0	0	0	0	0	0	0	0	0	0	0	0	0	0	0	0	0	0	0	0
082819	13:05:31	13:08:54	202077	5.0.10.0	5_exp_noRW	120	Rpleas_acq	CS_A	LWWL	DXXD	YFFY	CPPC	JQQJ	ZHHZ	träumen	vertrauen	küssen	genießen	sonnig	gütig	töten	versagen	krank	gemein	sterben	gierig	53pct	acq_USunple_CSunple1_noRW	acq1_noRW	1	80	0	0	300	300	729	46	0	1	1	blank2r.bmp	0	1	+	0	1	blank2r.bmp	252	1	YFFY	306	2	versagen	559	0	0	0	0	0	0	0	0	0	0	0	0	0	0	0	0	0	0	0	0	0	0	0	0	0	0	0	0	0	0	0	0	0	0	0	0	0	0	0
082819	13:05:31	13:09:07	214885	5.0.10.0	5_exp_noRW	120	Rpleas_acq	CS_A	LWWL	DXXD	YFFY	CPPC	JQQJ	ZHHZ	träumen	vertrauen	küssen	genießen	sonnig	gütig	töten	versagen	krank	gemein	sterben	gierig	53pct	acq_USunple_CSunple1_noRW	acq23456_noRW	2	1	0	0	300	300	451	46	0	1	1	blank2r.bmp	0	1	+	0	1	blank2r.bmp	252	1	YFFY	306	1	töten	559	0	0	0	0	0	0	0	0	0	0	0	0	0	0	0	0	0	0	0	0	0	0	0	0	0	0	0	0	0	0	0	0	0	0	0	0	0	0	0
082819	13:05:31	13:09:08	216511	5.0.10.0	5_exp_noRW	120	Rpleas_acq	CS_A	LWWL	DXXD	YFFY	CPPC	JQQJ	ZHHZ	träumen	vertrauen	küssen	genießen	sonnig	gütig	töten	versagen	krank	gemein	sterben	gierig	47pct	acq_USpleas_CSpleas1_noRW	acq23456_noRW	2	2	0	0	300	300	456	50	0	1	1	blank2r.bmp	0	1	+	0	1	blank2r.bmp	252	1	LWWL	306	3	küssen	559	0	0	0	0	0	0	0	0	0	0	0	0	0	0	0	0	0	0	0	0	0	0	0	0	0	0	0	0	0	0	0	0	0	0	0	0	0	0	0
082819	13:05:31	13:09:10	218070	5.0.10.0	5_exp_noRW	120	Rpleas_acq	CS_A	LWWL	DXXD	YFFY	CPPC	JQQJ	ZHHZ	träumen	vertrauen	küssen	genießen	sonnig	gütig	töten	versagen	krank	gemein	sterben	gierig	53pct	acq_USunple_CSunple2_noRW	acq23456_noRW	2	3	0	0	300	300	394	46	0	1	1	blank2r.bmp	0	1	+	0	1	blank2r.bmp	252	1	CPPC	306	2	sterben	559	0	0	0	0	0	0	0	0	0	0	0	0	0	0	0	0	0	0	0	0	0	0	0	0	0	0	0	0	0	0	0	0	0	0	0	0	0	0	0
082819	13:05:31	13:09:12	219683	5.0.10.0	5_exp_noRW	120	Rpleas_acq	CS_A	LWWL	DXXD	YFFY	CPPC	JQQJ	ZHHZ	träumen	vertrauen	küssen	genießen	sonnig	gütig	töten	versagen	krank	gemein	sterben	gierig	47pct	acq_USunple_CSpleas1_noRW	acq23456_noRW	2	4	0	0	300	300	449	46	0	1	1	blank2r.bmp	0	1	+	0	1	blank2r.bmp	252	1	LWWL	306	1	töten	559	0	0	0	0	0	0	0	0	0	0	0	0	0	0	0	0	0	0	0	0	0	0	0	0	0	0	0	0	0	0	0	0	0	0	0	0	0	0	0
082819	13:05:31	13:09:13	221309	5.0.10.0	5_exp_noRW	120	Rpleas_acq	CS_A	LWWL	DXXD	YFFY	CPPC	JQQJ	ZHHZ	träumen	vertrauen	küssen	genießen	sonnig	gütig	töten	versagen	krank	gemein	sterben	gierig	47pct	acq_USunple_CSunple1_noRW	acq23456_noRW	2	5	0	0	300	300	443	46	0	1	1	blank2r.bmp	0	1	+	0	1	blank2r.bmp	252	1	YFFY	306	3	krank	559	0	0	0	0	0	0	0	0	0	0	0	0	0	0	0	0	0	0	0	0	0	0	0	0	0	0	0	0	0	0	0	0	0	0	0	0	0	0	0
082819	13:05:31	13:09:15	223002	5.0.10.0	5_exp_noRW	120	Rpleas_acq	CS_A	LWWL	DXXD	YFFY	CPPC	JQQJ	ZHHZ	träumen	vertrauen	küssen	genießen	sonnig	gütig	töten	versagen	krank	gemein	sterben	gierig	47pct	acq_USunple_CSunple1_noRW	acq23456_noRW	2	6	0	0	300	300	516	46	0	1	1	blank2r.bmp	0	1	+	0	1	blank2r.bmp	252	1	YFFY	306	2	versagen	559	0	0	0	0	0	0	0	0	0	0	0	0	0	0	0	0	0	0	0	0	0	0	0	0	0	0	0	0	0	0	0	0	0	0	0	0	0	0	0
082819	13:05:31	13:09:17	224628	5.0.10.0	5_exp_noRW	120	Rpleas_acq	CS_A	LWWL	DXXD	YFFY	CPPC	JQQJ	ZHHZ	träumen	vertrauen	küssen	genießen	sonnig	gütig	töten	versagen	krank	gemein	sterben	gierig	47pct	acq_USpleas_CSpleas1_noRW	acq23456_noRW	2	7	0	0	300	300	451	50	0	1	1	blank2r.bmp	0	1	+	0	1	blank2r.bmp	252	1	LWWL	306	1	träumen	559	0	0	0	0	0	0	0	0	0	0	0	0	0	0	0	0	0	0	0	0	0	0	0	0	0	0	0	0	0	0	0	0	0	0	0	0	0	0	0
082819	13:05:31	13:09:18	226254	5.0.10.0	5_exp_noRW	120	Rpleas_acq	CS_A	LWWL	DXXD	YFFY	CPPC	JQQJ	ZHHZ	träumen	vertrauen	küssen	genießen	sonnig	gütig	töten	versagen	krank	gemein	sterben	gierig	53pct	acq_USpleas_CSpleas2_noRW	acq23456_noRW	2	8	0	0	300	300	446	50	0	1	1	blank2r.bmp	0	1	+	0	1	blank2r.bmp	252	1	DXXD	306	1	genießen	559	0	0	0	0	0	0	0	0	0	0	0	0	0	0	0	0	0	0	0	0	0	0	0	0	0	0	0	0	0	0	0	0	0	0	0	0	0	0	0
082819	13:05:31	13:09:20	227853	5.0.10.0	5_exp_noRW	120	Rpleas_acq	CS_A	LWWL	DXXD	YFFY	CPPC	JQQJ	ZHHZ	träumen	vertrauen	küssen	genießen	sonnig	gütig	töten	versagen	krank	gemein	sterben	gierig	53pct	acq_USunple_CSpleas2_noRW	acq23456_noRW	2	9	0	0	300	300	419	46	0	1	1	blank2r.bmp	0	1	+	0	1	blank2r.bmp	252	1	DXXD	306	1	gemein	559	0	0	0	0	0	0	0	0	0	0	0	0	0	0	0	0	0	0	0	0	0	0	0	0	0	0	0	0	0	0	0	0	0	0	0	0	0	0	0
082819	13:05:31	13:09:21	229439	5.0.10.0	5_exp_noRW	120	Rpleas_acq	CS_A	LWWL	DXXD	YFFY	CPPC	JQQJ	ZHHZ	träumen	vertrauen	küssen	genießen	sonnig	gütig	töten	versagen	krank	gemein	sterben	gierig	47pct	acq_USpleas_CSpleas1_noRW	acq23456_noRW	2	10	0	0	300	300	412	50	0	1	1	blank2r.bmp	0	1	+	0	1	blank2r.bmp	252	1	LWWL	306	3	küssen	559	0	0	0	0	0	0	0	0	0	0	0	0	0	0	0	0	0	0	0	0	0	0	0	0	0	0	0	0	0	0	0	0	0	0	0	0	0	0	0
082819	13:05:31	13:09:23	231291	5.0.10.0	5_exp_noRW	120	Rpleas_acq	CS_A	LWWL	DXXD	YFFY	CPPC	JQQJ	ZHHZ	träumen	vertrauen	küssen	genießen	sonnig	gütig	töten	versagen	krank	gemein	sterben	gierig	53pct	acq_USpleas_CSpleas2_noRW	acq23456_noRW	2	11	0	0	300	300	452	46	0	0	1	blank2r.bmp	0	1	+	0	1	blank2r.bmp	252	1	DXXD	306	3	gütig	559	1	FEHLER	1052	0	0	0	0	0	0	0	0	0	0	0	0	0	0	0	0	0	0	0	0	0	0	0	0	0	0	0	0	0	0	0	0	0	0	0	0
082819	13:05:31	13:09:25	232731	5.0.10.0	5_exp_noRW	120	Rpleas_acq	CS_A	LWWL	DXXD	YFFY	CPPC	JQQJ	ZHHZ	träumen	vertrauen	küssen	genießen	sonnig	gütig	töten	versagen	krank	gemein	sterben	gierig	47pct	acq_USpleas_CSunple1_noRW	acq23456_noRW	2	12	0	0	300	300	485	50	0	1	1	blank2r.bmp	0	1	+	0	1	blank2r.bmp	252	1	YFFY	306	1	träumen	559	0	0	0	0	0	0	0	0	0	0	0	0	0	0	0	0	0	0	0	0	0	0	0	0	0	0	0	0	0	0	0	0	0	0	0	0	0	0	0
082819	13:05:31	13:09:26	234344	5.0.10.0	5_exp_noRW	120	Rpleas_acq	CS_A	LWWL	DXXD	YFFY	CPPC	JQQJ	ZHHZ	träumen	vertrauen	küssen	genießen	sonnig	gütig	töten	versagen	krank	gemein	sterben	gierig	53pct	acq_USunple_CSunple2_noRW	acq23456_noRW	2	13	0	0	300	300	451	46	0	1	1	blank2r.bmp	0	1	+	0	1	blank2r.bmp	252	1	CPPC	306	1	gemein	559	0	0	0	0	0	0	0	0	0	0	0	0	0	0	0	0	0	0	0	0	0	0	0	0	0	0	0	0	0	0	0	0	0	0	0	0	0	0	0
082819	13:05:31	13:09:28	235970	5.0.10.0	5_exp_noRW	120	Rpleas_acq	CS_A	LWWL	DXXD	YFFY	CPPC	JQQJ	ZHHZ	träumen	vertrauen	küssen	genießen	sonnig	gütig	töten	versagen	krank	gemein	sterben	gierig	47pct	acq_USunple_CSunple1_noRW	acq23456_noRW	2	14	0	0	300	300	443	46	0	1	1	blank2r.bmp	0	1	+	0	1	blank2r.bmp	252	1	YFFY	306	1	töten	559	0	0	0	0	0	0	0	0	0	0	0	0	0	0	0	0	0	0	0	0	0	0	0	0	0	0	0	0	0	0	0	0	0	0	0	0	0	0	0
082819	13:05:31	13:09:30	237716	5.0.10.0	5_exp_noRW	120	Rpleas_acq	CS_A	LWWL	DXXD	YFFY	CPPC	JQQJ	ZHHZ	träumen	vertrauen	küssen	genießen	sonnig	gütig	töten	versagen	krank	gemein	sterben	gierig	53pct	acq_USunple_CSunple2_noRW	acq23456_noRW	2	15	0	0	300	300	561	46	0	1	1	blank2r.bmp	0	1	+	0	1	blank2r.bmp	252	1	CPPC	306	2	sterben	559	0	0	0	0	0	0	0	0	0	0	0	0	0	0	0	0	0	0	0	0	0	0	0	0	0	0	0	0	0	0	0	0	0	0	0	0	0	0	0
082819	13:05:31	13:09:31	239288	5.0.10.0	5_exp_noRW	120	Rpleas_acq	CS_A	LWWL	DXXD	YFFY	CPPC	JQQJ	ZHHZ	träumen	vertrauen	küssen	genießen	sonnig	gütig	töten	versagen	krank	gemein	sterben	gierig	53pct	acq_USpleas_CSpleas2_noRW	acq23456_noRW	2	16	0	0	300	300	400	50	0	1	1	blank2r.bmp	0	1	+	0	1	blank2r.bmp	252	1	DXXD	306	3	gütig	559	0	0	0	0	0	0	0	0	0	0	0	0	0	0	0	0	0	0	0	0	0	0	0	0	0	0	0	0	0	0	0	0	0	0	0	0	0	0	0
082819	13:05:31	13:09:33	240928	5.0.10.0	5_exp_noRW	120	Rpleas_acq	CS_A	LWWL	DXXD	YFFY	CPPC	JQQJ	ZHHZ	träumen	vertrauen	küssen	genießen	sonnig	gütig	töten	versagen	krank	gemein	sterben	gierig	53pct	acq_USpleas_CSpleas2_noRW	acq23456_noRW	2	17	0	0	300	300	466	50	0	1	1	blank2r.bmp	0	1	+	0	1	blank2r.bmp	252	1	DXXD	306	1	genießen	559	0	0	0	0	0	0	0	0	0	0	0	0	0	0	0	0	0	0	0	0	0	0	0	0	0	0	0	0	0	0	0	0	0	0	0	0	0	0	0
082819	13:05:31	13:09:35	242660	5.0.10.0	5_exp_noRW	120	Rpleas_acq	CS_A	LWWL	DXXD	YFFY	CPPC	JQQJ	ZHHZ	träumen	vertrauen	küssen	genießen	sonnig	gütig	töten	versagen	krank	gemein	sterben	gierig	53pct	acq_USpleas_CSpleas1_noRW	acq23456_noRW	2	18	0	0	300	300	351	46	0	0	1	blank2r.bmp	0	1	+	0	1	blank2r.bmp	252	1	LWWL	306	2	vertrauen	559	1	FEHLER	946	0	0	0	0	0	0	0	0	0	0	0	0	0	0	0	0	0	0	0	0	0	0	0	0	0	0	0	0	0	0	0	0	0	0	0	0
082819	13:05:31	13:09:36	244260	5.0.10.0	5_exp_noRW	120	Rpleas_acq	CS_A	LWWL	DXXD	YFFY	CPPC	JQQJ	ZHHZ	träumen	vertrauen	küssen	genießen	sonnig	gütig	töten	versagen	krank	gemein	sterben	gierig	53pct	acq_USunple_CSunple2_noRW	acq23456_noRW	2	19	0	0	300	300	630	46	0	1	1	blank2r.bmp	0	1	+	0	1	blank2r.bmp	252	1	CPPC	306	1	gemein	559	0	0	0	0	0	0	0	0	0	0	0	0	0	0	0	0	0	0	0	0	0	0	0	0	0	0	0	0	0	0	0	0	0	0	0	0	0	0	0
082819	13:05:31	13:09:38	245966	5.0.10.0	5_exp_noRW	120	Rpleas_acq	CS_A	LWWL	DXXD	YFFY	CPPC	JQQJ	ZHHZ	träumen	vertrauen	küssen	genießen	sonnig	gütig	töten	versagen	krank	gemein	sterben	gierig	47pct	acq_USpleas_CSunple2_noRW	acq23456_noRW	2	20	0	0	300	300	544	50	0	1	1	blank2r.bmp	0	1	+	0	1	blank2r.bmp	252	1	CPPC	306	1	genießen	559	0	0	0	0	0	0	0	0	0	0	0	0	0	0	0	0	0	0	0	0	0	0	0	0	0	0	0	0	0	0	0	0	0	0	0	0	0	0	0
082819	13:05:31	13:09:39	247565	5.0.10.0	5_exp_noRW	120	Rpleas_acq	CS_A	LWWL	DXXD	YFFY	CPPC	JQQJ	ZHHZ	träumen	vertrauen	küssen	genießen	sonnig	gütig	töten	versagen	krank	gemein	sterben	gierig	53pct	acq_USpleas_CSunple2_noRW	acq23456_noRW	2	21	0	0	300	300	419	50	0	1	1	blank2r.bmp	0	1	+	0	1	blank2r.bmp	252	1	CPPC	306	3	gütig	559	0	0	0	0	0	0	0	0	0	0	0	0	0	0	0	0	0	0	0	0	0	0	0	0	0	0	0	0	0	0	0	0	0	0	0	0	0	0	0
082819	13:05:31	13:09:41	249537	5.0.10.0	5_exp_noRW	120	Rpleas_acq	CS_A	LWWL	DXXD	YFFY	CPPC	JQQJ	ZHHZ	träumen	vertrauen	küssen	genießen	sonnig	gütig	töten	versagen	krank	gemein	sterben	gierig	53pct	acq_USunple_CSpleas1_noRW	acq23456_noRW	2	22	0	0	300	300	796	46	0	1	1	blank2r.bmp	0	1	+	0	1	blank2r.bmp	252	1	LWWL	306	2	versagen	559	0	0	0	0	0	0	0	0	0	0	0	0	0	0	0	0	0	0	0	0	0	0	0	0	0	0	0	0	0	0	0	0	0	0	0	0	0	0	0
082819	13:05:31	13:09:43	251217	5.0.10.0	5_exp_noRW	120	Rpleas_acq	CS_A	LWWL	DXXD	YFFY	CPPC	JQQJ	ZHHZ	träumen	vertrauen	küssen	genießen	sonnig	gütig	töten	versagen	krank	gemein	sterben	gierig	53pct	acq_USunple_CSunple1_noRW	acq23456_noRW	2	23	0	0	300	300	492	46	0	1	1	blank2r.bmp	0	1	+	0	1	blank2r.bmp	252	1	YFFY	306	3	krank	559	0	0	0	0	0	0	0	0	0	0	0	0	0	0	0	0	0	0	0	0	0	0	0	0	0	0	0	0	0	0	0	0	0	0	0	0	0	0	0
082819	13:05:31	13:09:45	252763	5.0.10.0	5_exp_noRW	120	Rpleas_acq	CS_A	LWWL	DXXD	YFFY	CPPC	JQQJ	ZHHZ	träumen	vertrauen	küssen	genießen	sonnig	gütig	töten	versagen	krank	gemein	sterben	gierig	47pct	acq_USunple_CSunple2_noRW	acq23456_noRW	2	24	0	0	300	300	378	46	0	1	1	blank2r.bmp	0	1	+	0	1	blank2r.bmp	252	1	CPPC	306	3	gierig	559	0	0	0	0	0	0	0	0	0	0	0	0	0	0	0	0	0	0	0	0	0	0	0	0	0	0	0	0	0	0	0	0	0	0	0	0	0	0	0
082819	13:05:31	13:09:46	254415	5.0.10.0	5_exp_noRW	120	Rpleas_acq	CS_A	LWWL	DXXD	YFFY	CPPC	JQQJ	ZHHZ	träumen	vertrauen	küssen	genießen	sonnig	gütig	töten	versagen	krank	gemein	sterben	gierig	47pct	acq_USunple_CSunple1_noRW	acq23456_noRW	2	25	0	0	300	300	483	46	0	1	1	blank2r.bmp	0	1	+	0	1	blank2r.bmp	252	1	YFFY	306	1	töten	559	0	0	0	0	0	0	0	0	0	0	0	0	0	0	0	0	0	0	0	0	0	0	0	0	0	0	0	0	0	0	0	0	0	0	0	0	0	0	0
082819	13:05:31	13:09:48	256055	5.0.10.0	5_exp_noRW	120	Rpleas_acq	CS_A	LWWL	DXXD	YFFY	CPPC	JQQJ	ZHHZ	träumen	vertrauen	küssen	genießen	sonnig	gütig	töten	versagen	krank	gemein	sterben	gierig	53pct	acq_USunple_CSunple2_noRW	acq23456_noRW	2	26	0	0	300	300	477	46	0	1	1	blank2r.bmp	0	1	+	0	1	blank2r.bmp	252	1	CPPC	306	2	sterben	559	0	0	0	0	0	0	0	0	0	0	0	0	0	0	0	0	0	0	0	0	0	0	0	0	0	0	0	0	0	0	0	0	0	0	0	0	0	0	0
082819	13:05:31	13:09:50	257667	5.0.10.0	5_exp_noRW	120	Rpleas_acq	CS_A	LWWL	DXXD	YFFY	CPPC	JQQJ	ZHHZ	träumen	vertrauen	küssen	genießen	sonnig	gütig	töten	versagen	krank	gemein	sterben	gierig	53pct	acq_USpleas_CSpleas1_noRW	acq23456_noRW	2	27	0	0	300	300	448	50	0	1	1	blank2r.bmp	0	1	+	0	1	blank2r.bmp	252	1	LWWL	306	1	träumen	559	0	0	0	0	0	0	0	0	0	0	0	0	0	0	0	0	0	0	0	0	0	0	0	0	0	0	0	0	0	0	0	0	0	0	0	0	0	0	0
082819	13:05:31	13:09:51	259333	5.0.10.0	5_exp_noRW	120	Rpleas_acq	CS_A	LWWL	DXXD	YFFY	CPPC	JQQJ	ZHHZ	träumen	vertrauen	küssen	genießen	sonnig	gütig	töten	versagen	krank	gemein	sterben	gierig	53pct	acq_USunple_CSunple1_noRW	acq23456_noRW	2	28	0	0	300	300	489	46	0	1	1	blank2r.bmp	0	1	+	0	1	blank2r.bmp	252	1	YFFY	306	2	versagen	559	0	0	0	0	0	0	0	0	0	0	0	0	0	0	0	0	0	0	0	0	0	0	0	0	0	0	0	0	0	0	0	0	0	0	0	0	0	0	0
082819	13:05:31	13:09:53	260893	5.0.10.0	5_exp_noRW	120	Rpleas_acq	CS_A	LWWL	DXXD	YFFY	CPPC	JQQJ	ZHHZ	träumen	vertrauen	küssen	genießen	sonnig	gütig	töten	versagen	krank	gemein	sterben	gierig	53pct	acq_USpleas_CSpleas2_noRW	acq23456_noRW	2	29	0	0	300	300	379	50	0	1	1	blank2r.bmp	0	1	+	0	1	blank2r.bmp	252	1	DXXD	306	2	sonnig	559	0	0	0	0	0	0	0	0	0	0	0	0	0	0	0	0	0	0	0	0	0	0	0	0	0	0	0	0	0	0	0	0	0	0	0	0	0	0	0
082819	13:05:31	13:09:54	262585	5.0.10.0	5_exp_noRW	120	Rpleas_acq	CS_A	LWWL	DXXD	YFFY	CPPC	JQQJ	ZHHZ	träumen	vertrauen	küssen	genießen	sonnig	gütig	töten	versagen	krank	gemein	sterben	gierig	53pct	acq_USunple_CSunple2_noRW	acq23456_noRW	2	30	0	0	300	300	522	46	0	1	1	blank2r.bmp	0	1	+	0	1	blank2r.bmp	252	1	CPPC	306	3	gierig	559	0	0	0	0	0	0	0	0	0	0	0	0	0	0	0	0	0	0	0	0	0	0	0	0	0	0	0	0	0	0	0	0	0	0	0	0	0	0	0
082819	13:05:31	13:09:56	264345	5.0.10.0	5_exp_noRW	120	Rpleas_acq	CS_A	LWWL	DXXD	YFFY	CPPC	JQQJ	ZHHZ	träumen	vertrauen	küssen	genießen	sonnig	gütig	töten	versagen	krank	gemein	sterben	gierig	47pct	acq_USunple_CSunple2_noRW	acq23456_noRW	2	31	0	0	300	300	582	46	0	1	1	blank2r.bmp	0	1	+	0	1	blank2r.bmp	252	1	CPPC	306	1	gemein	559	0	0	0	0	0	0	0	0	0	0	0	0	0	0	0	0	0	0	0	0	0	0	0	0	0	0	0	0	0	0	0	0	0	0	0	0	0	0	0
082819	13:05:31	13:09:58	266357	5.0.10.0	5_exp_noRW	120	Rpleas_acq	CS_A	LWWL	DXXD	YFFY	CPPC	JQQJ	ZHHZ	träumen	vertrauen	küssen	genießen	sonnig	gütig	töten	versagen	krank	gemein	sterben	gierig	53pct	acq_USpleas_CSpleas2_noRW	acq23456_noRW	2	32	0	0	300	300	825	50	0	1	1	blank2r.bmp	0	1	+	0	1	blank2r.bmp	252	1	DXXD	306	3	gütig	559	0	0	0	0	0	0	0	0	0	0	0	0	0	0	0	0	0	0	0	0	0	0	0	0	0	0	0	0	0	0	0	0	0	0	0	0	0	0	0
082819	13:05:31	13:10:00	267983	5.0.10.0	5_exp_noRW	120	Rpleas_acq	CS_A	LWWL	DXXD	YFFY	CPPC	JQQJ	ZHHZ	träumen	vertrauen	küssen	genießen	sonnig	gütig	töten	versagen	krank	gemein	sterben	gierig	53pct	acq_USpleas_CSpleas2_noRW	acq23456_noRW	2	33	0	0	300	300	459	50	0	1	1	blank2r.bmp	0	1	+	0	1	blank2r.bmp	252	1	DXXD	306	1	genießen	559	0	0	0	0	0	0	0	0	0	0	0	0	0	0	0	0	0	0	0	0	0	0	0	0	0	0	0	0	0	0	0	0	0	0	0	0	0	0	0
082819	13:05:31	13:10:01	269556	5.0.10.0	5_exp_noRW	120	Rpleas_acq	CS_A	LWWL	DXXD	YFFY	CPPC	JQQJ	ZHHZ	träumen	vertrauen	küssen	genießen	sonnig	gütig	töten	versagen	krank	gemein	sterben	gierig	53pct	acq_USpleas_CSpleas1_noRW	acq23456_noRW	2	34	0	0	300	300	396	50	0	1	1	blank2r.bmp	0	1	+	0	1	blank2r.bmp	252	1	LWWL	306	3	küssen	559	0	0	0	0	0	0	0	0	0	0	0	0	0	0	0	0	0	0	0	0	0	0	0	0	0	0	0	0	0	0	0	0	0	0	0	0	0	0	0
082819	13:05:31	13:10:03	271315	5.0.10.0	5_exp_noRW	120	Rpleas_acq	CS_A	LWWL	DXXD	YFFY	CPPC	JQQJ	ZHHZ	träumen	vertrauen	küssen	genießen	sonnig	gütig	töten	versagen	krank	gemein	sterben	gierig	47pct	acq_USunple_CSpleas2_noRW	acq23456_noRW	2	35	0	0	300	300	575	46	0	1	1	blank2r.bmp	0	1	+	0	1	blank2r.bmp	252	1	DXXD	306	2	sterben	559	0	0	0	0	0	0	0	0	0	0	0	0	0	0	0	0	0	0	0	0	0	0	0	0	0	0	0	0	0	0	0	0	0	0	0	0	0	0	0
082819	13:05:31	13:10:05	273021	5.0.10.0	5_exp_noRW	120	Rpleas_acq	CS_A	LWWL	DXXD	YFFY	CPPC	JQQJ	ZHHZ	träumen	vertrauen	küssen	genießen	sonnig	gütig	töten	versagen	krank	gemein	sterben	gierig	47pct	acq_USunple_CSunple1_noRW	acq23456_noRW	2	36	0	0	300	300	537	46	0	1	1	blank2r.bmp	0	1	+	0	1	blank2r.bmp	252	1	YFFY	306	3	krank	559	0	0	0	0	0	0	0	0	0	0	0	0	0	0	0	0	0	0	0	0	0	0	0	0	0	0	0	0	0	0	0	0	0	0	0	0	0	0	0
082819	13:05:31	13:10:07	274634	5.0.10.0	5_exp_noRW	120	Rpleas_acq	CS_A	LWWL	DXXD	YFFY	CPPC	JQQJ	ZHHZ	träumen	vertrauen	küssen	genießen	sonnig	gütig	töten	versagen	krank	gemein	sterben	gierig	53pct	acq_USpleas_CSpleas2_noRW	acq23456_noRW	2	37	0	0	300	300	429	50	0	1	1	blank2r.bmp	0	1	+	0	1	blank2r.bmp	252	1	DXXD	306	2	sonnig	559	0	0	0	0	0	0	0	0	0	0	0	0	0	0	0	0	0	0	0	0	0	0	0	0	0	0	0	0	0	0	0	0	0	0	0	0	0	0	0
082819	13:05:31	13:10:08	276300	5.0.10.0	5_exp_noRW	120	Rpleas_acq	CS_A	LWWL	DXXD	YFFY	CPPC	JQQJ	ZHHZ	träumen	vertrauen	küssen	genießen	sonnig	gütig	töten	versagen	krank	gemein	sterben	gierig	53pct	acq_USpleas_CSunple1_noRW	acq23456_noRW	2	38	0	0	300	300	499	50	0	1	1	blank2r.bmp	0	1	+	0	1	blank2r.bmp	252	1	YFFY	306	2	vertrauen	559	0	0	0	0	0	0	0	0	0	0	0	0	0	0	0	0	0	0	0	0	0	0	0	0	0	0	0	0	0	0	0	0	0	0	0	0	0	0	0
082819	13:05:31	13:10:10	277926	5.0.10.0	5_exp_noRW	120	Rpleas_acq	CS_A	LWWL	DXXD	YFFY	CPPC	JQQJ	ZHHZ	träumen	vertrauen	küssen	genießen	sonnig	gütig	töten	versagen	krank	gemein	sterben	gierig	47pct	acq_USpleas_CSpleas1_noRW	acq23456_noRW	2	39	0	0	300	300	439	50	0	1	1	blank2r.bmp	0	1	+	0	1	blank2r.bmp	252	1	LWWL	306	1	träumen	559	0	0	0	0	0	0	0	0	0	0	0	0	0	0	0	0	0	0	0	0	0	0	0	0	0	0	0	0	0	0	0	0	0	0	0	0	0	0	0
082819	13:05:31	13:10:11	279565	5.0.10.0	5_exp_noRW	120	Rpleas_acq	CS_A	LWWL	DXXD	YFFY	CPPC	JQQJ	ZHHZ	träumen	vertrauen	küssen	genießen	sonnig	gütig	töten	versagen	krank	gemein	sterben	gierig	47pct	acq_USpleas_CSpleas1_noRW	acq23456_noRW	2	40	0	0	300	300	477	50	0	1	1	blank2r.bmp	0	1	+	0	1	blank2r.bmp	252	1	LWWL	306	2	vertrauen	559	0	0	0	0	0	0	0	0	0	0	0	0	0	0	0	0	0	0	0	0	0	0	0	0	0	0	0	0	0	0	0	0	0	0	0	0	0	0	0
082819	13:05:31	13:10:13	281244	5.0.10.0	5_exp_noRW	120	Rpleas_acq	CS_A	LWWL	DXXD	YFFY	CPPC	JQQJ	ZHHZ	träumen	vertrauen	küssen	genießen	sonnig	gütig	töten	versagen	krank	gemein	sterben	gierig	53pct	acq_USunple_CSunple2_noRW	acq23456_noRW	2	41	0	0	300	300	495	46	0	1	1	blank2r.bmp	0	1	+	0	1	blank2r.bmp	252	1	CPPC	306	1	gemein	559	0	0	0	0	0	0	0	0	0	0	0	0	0	0	0	0	0	0	0	0	0	0	0	0	0	0	0	0	0	0	0	0	0	0	0	0	0	0	0
082819	13:05:31	13:10:15	282870	5.0.10.0	5_exp_noRW	120	Rpleas_acq	CS_A	LWWL	DXXD	YFFY	CPPC	JQQJ	ZHHZ	träumen	vertrauen	küssen	genießen	sonnig	gütig	töten	versagen	krank	gemein	sterben	gierig	53pct	acq_USpleas_CSunple1_noRW	acq23456_noRW	2	42	0	0	300	300	444	50	0	1	1	blank2r.bmp	0	1	+	0	1	blank2r.bmp	252	1	YFFY	306	3	küssen	559	0	0	0	0	0	0	0	0	0	0	0	0	0	0	0	0	0	0	0	0	0	0	0	0	0	0	0	0	0	0	0	0	0	0	0	0	0	0	0
082819	13:05:31	13:10:16	284483	5.0.10.0	5_exp_noRW	120	Rpleas_acq	CS_A	LWWL	DXXD	YFFY	CPPC	JQQJ	ZHHZ	träumen	vertrauen	küssen	genießen	sonnig	gütig	töten	versagen	krank	gemein	sterben	gierig	47pct	acq_USpleas_CSpleas1_noRW	acq23456_noRW	2	43	0	0	300	300	442	50	0	1	1	blank2r.bmp	0	1	+	0	1	blank2r.bmp	252	1	LWWL	306	1	träumen	559	0	0	0	0	0	0	0	0	0	0	0	0	0	0	0	0	0	0	0	0	0	0	0	0	0	0	0	0	0	0	0	0	0	0	0	0	0	0	0
082819	13:05:31	13:10:18	286149	5.0.10.0	5_exp_noRW	120	Rpleas_acq	CS_A	LWWL	DXXD	YFFY	CPPC	JQQJ	ZHHZ	träumen	vertrauen	küssen	genießen	sonnig	gütig	töten	versagen	krank	gemein	sterben	gierig	47pct	acq_USpleas_CSpleas1_noRW	acq23456_noRW	2	44	0	0	300	300	496	50	0	1	1	blank2r.bmp	0	1	+	0	1	blank2r.bmp	252	1	LWWL	306	2	vertrauen	559	0	0	0	0	0	0	0	0	0	0	0	0	0	0	0	0	0	0	0	0	0	0	0	0	0	0	0	0	0	0	0	0	0	0	0	0	0	0	0
082819	13:05:31	13:10:20	287762	5.0.10.0	5_exp_noRW	120	Rpleas_acq	CS_A	LWWL	DXXD	YFFY	CPPC	JQQJ	ZHHZ	träumen	vertrauen	küssen	genießen	sonnig	gütig	töten	versagen	krank	gemein	sterben	gierig	47pct	acq_USunple_CSunple1_noRW	acq23456_noRW	2	45	0	0	300	300	444	46	0	1	1	blank2r.bmp	0	1	+	0	1	blank2r.bmp	252	1	YFFY	306	3	krank	559	0	0	0	0	0	0	0	0	0	0	0	0	0	0	0	0	0	0	0	0	0	0	0	0	0	0	0	0	0	0	0	0	0	0	0	0	0	0	0
082819	13:05:31	13:10:21	289428	5.0.10.0	5_exp_noRW	120	Rpleas_acq	CS_A	LWWL	DXXD	YFFY	CPPC	JQQJ	ZHHZ	träumen	vertrauen	küssen	genießen	sonnig	gütig	töten	versagen	krank	gemein	sterben	gierig	47pct	acq_USunple_CSunple2_noRW	acq23456_noRW	2	46	0	0	300	300	485	46	0	1	1	blank2r.bmp	0	1	+	0	1	blank2r.bmp	252	1	CPPC	306	2	sterben	559	0	0	0	0	0	0	0	0	0	0	0	0	0	0	0	0	0	0	0	0	0	0	0	0	0	0	0	0	0	0	0	0	0	0	0	0	0	0	0
082819	13:05:31	13:10:23	290974	5.0.10.0	5_exp_noRW	120	Rpleas_acq	CS_A	LWWL	DXXD	YFFY	CPPC	JQQJ	ZHHZ	träumen	vertrauen	küssen	genießen	sonnig	gütig	töten	versagen	krank	gemein	sterben	gierig	53pct	acq_USunple_CSunple2_noRW	acq23456_noRW	2	47	0	0	300	300	384	46	0	1	1	blank2r.bmp	0	1	+	0	1	blank2r.bmp	252	1	CPPC	306	3	gierig	559	0	0	0	0	0	0	0	0	0	0	0	0	0	0	0	0	0	0	0	0	0	0	0	0	0	0	0	0	0	0	0	0	0	0	0	0	0	0	0
082819	13:05:31	13:10:25	292626	5.0.10.0	5_exp_noRW	120	Rpleas_acq	CS_A	LWWL	DXXD	YFFY	CPPC	JQQJ	ZHHZ	träumen	vertrauen	küssen	genießen	sonnig	gütig	töten	versagen	krank	gemein	sterben	gierig	47pct	acq_USpleas_CSpleas2_noRW	acq23456_noRW	2	48	0	0	300	300	473	50	0	1	1	blank2r.bmp	0	1	+	0	1	blank2r.bmp	252	1	DXXD	306	3	gütig	559	0	0	0	0	0	0	0	0	0	0	0	0	0	0	0	0	0	0	0	0	0	0	0	0	0	0	0	0	0	0	0	0	0	0	0	0	0	0	0
082819	13:05:31	13:10:26	294186	5.0.10.0	5_exp_noRW	120	Rpleas_acq	CS_A	LWWL	DXXD	YFFY	CPPC	JQQJ	ZHHZ	träumen	vertrauen	küssen	genießen	sonnig	gütig	töten	versagen	krank	gemein	sterben	gierig	53pct	acq_USpleas_CSpleas1_noRW	acq23456_noRW	2	49	0	0	300	300	380	50	0	1	1	blank2r.bmp	0	1	+	0	1	blank2r.bmp	252	1	LWWL	306	3	küssen	559	0	0	0	0	0	0	0	0	0	0	0	0	0	0	0	0	0	0	0	0	0	0	0	0	0	0	0	0	0	0	0	0	0	0	0	0	0	0	0
082819	13:05:31	13:10:28	295865	5.0.10.0	5_exp_noRW	120	Rpleas_acq	CS_A	LWWL	DXXD	YFFY	CPPC	JQQJ	ZHHZ	träumen	vertrauen	küssen	genießen	sonnig	gütig	töten	versagen	krank	gemein	sterben	gierig	47pct	acq_USpleas_CSpleas2_noRW	acq23456_noRW	2	50	0	0	300	300	495	50	0	1	1	blank2r.bmp	0	1	+	0	1	blank2r.bmp	252	1	DXXD	306	1	genießen	559	0	0	0	0	0	0	0	0	0	0	0	0	0	0	0	0	0	0	0	0	0	0	0	0	0	0	0	0	0	0	0	0	0	0	0	0	0	0	0
082819	13:05:31	13:10:29	297478	5.0.10.0	5_exp_noRW	120	Rpleas_acq	CS_A	LWWL	DXXD	YFFY	CPPC	JQQJ	ZHHZ	träumen	vertrauen	küssen	genießen	sonnig	gütig	töten	versagen	krank	gemein	sterben	gierig	53pct	acq_USunple_CSunple1_noRW	acq23456_noRW	2	51	0	0	300	300	441	46	0	1	1	blank2r.bmp	0	1	+	0	1	blank2r.bmp	252	1	YFFY	306	1	töten	559	0	0	0	0	0	0	0	0	0	0	0	0	0	0	0	0	0	0	0	0	0	0	0	0	0	0	0	0	0	0	0	0	0	0	0	0	0	0	0
082819	13:05:31	13:10:31	299064	5.0.10.0	5_exp_noRW	120	Rpleas_acq	CS_A	LWWL	DXXD	YFFY	CPPC	JQQJ	ZHHZ	träumen	vertrauen	küssen	genießen	sonnig	gütig	töten	versagen	krank	gemein	sterben	gierig	53pct	acq_USpleas_CSunple2_noRW	acq23456_noRW	2	52	0	0	300	300	422	50	0	1	1	blank2r.bmp	0	1	+	0	1	blank2r.bmp	252	1	CPPC	306	2	sonnig	559	0	0	0	0	0	0	0	0	0	0	0	0	0	0	0	0	0	0	0	0	0	0	0	0	0	0	0	0	0	0	0	0	0	0	0	0	0	0	0
082819	13:05:31	13:10:33	300663	5.0.10.0	5_exp_noRW	120	Rpleas_acq	CS_A	LWWL	DXXD	YFFY	CPPC	JQQJ	ZHHZ	träumen	vertrauen	küssen	genießen	sonnig	gütig	töten	versagen	krank	gemein	sterben	gierig	53pct	acq_USpleas_CSpleas2_noRW	acq23456_noRW	2	53	0	0	300	300	433	50	0	1	1	blank2r.bmp	0	1	+	0	1	blank2r.bmp	252	1	DXXD	306	2	sonnig	559	0	0	0	0	0	0	0	0	0	0	0	0	0	0	0	0	0	0	0	0	0	0	0	0	0	0	0	0	0	0	0	0	0	0	0	0	0	0	0
082819	13:05:31	13:10:34	302263	5.0.10.0	5_exp_noRW	120	Rpleas_acq	CS_A	LWWL	DXXD	YFFY	CPPC	JQQJ	ZHHZ	träumen	vertrauen	küssen	genießen	sonnig	gütig	töten	versagen	krank	gemein	sterben	gierig	47pct	acq_USunple_CSpleas1_noRW	acq23456_noRW	2	54	0	0	300	300	420	46	0	1	1	blank2r.bmp	0	1	+	0	1	blank2r.bmp	252	1	LWWL	306	3	krank	559	0	0	0	0	0	0	0	0	0	0	0	0	0	0	0	0	0	0	0	0	0	0	0	0	0	0	0	0	0	0	0	0	0	0	0	0	0	0	0
082819	13:05:31	13:10:36	303955	5.0.10.0	5_exp_noRW	120	Rpleas_acq	CS_A	LWWL	DXXD	YFFY	CPPC	JQQJ	ZHHZ	träumen	vertrauen	küssen	genießen	sonnig	gütig	töten	versagen	krank	gemein	sterben	gierig	53pct	acq_USpleas_CSpleas1_noRW	acq23456_noRW	2	55	0	0	300	300	527	50	0	1	1	blank2r.bmp	0	1	+	0	1	blank2r.bmp	252	1	LWWL	306	2	vertrauen	559	0	0	0	0	0	0	0	0	0	0	0	0	0	0	0	0	0	0	0	0	0	0	0	0	0	0	0	0	0	0	0	0	0	0	0	0	0	0	0
082819	13:05:31	13:10:38	305608	5.0.10.0	5_exp_noRW	120	Rpleas_acq	CS_A	LWWL	DXXD	YFFY	CPPC	JQQJ	ZHHZ	träumen	vertrauen	küssen	genießen	sonnig	gütig	töten	versagen	krank	gemein	sterben	gierig	47pct	acq_USunple_CSunple1_noRW	acq23456_noRW	2	56	0	0	300	300	466	46	0	1	1	blank2r.bmp	0	1	+	0	1	blank2r.bmp	252	1	YFFY	306	2	versagen	559	0	0	0	0	0	0	0	0	0	0	0	0	0	0	0	0	0	0	0	0	0	0	0	0	0	0	0	0	0	0	0	0	0	0	0	0	0	0	0
082819	13:05:31	13:10:39	307260	5.0.10.0	5_exp_noRW	120	Rpleas_acq	CS_A	LWWL	DXXD	YFFY	CPPC	JQQJ	ZHHZ	träumen	vertrauen	küssen	genießen	sonnig	gütig	töten	versagen	krank	gemein	sterben	gierig	47pct	acq_USunple_CSunple2_noRW	acq23456_noRW	2	57	0	0	300	300	483	46	0	1	1	blank2r.bmp	0	1	+	0	1	blank2r.bmp	252	1	CPPC	306	3	gierig	559	0	0	0	0	0	0	0	0	0	0	0	0	0	0	0	0	0	0	0	0	0	0	0	0	0	0	0	0	0	0	0	0	0	0	0	0	0	0	0
082819	13:05:31	13:10:41	308926	5.0.10.0	5_exp_noRW	120	Rpleas_acq	CS_A	LWWL	DXXD	YFFY	CPPC	JQQJ	ZHHZ	träumen	vertrauen	küssen	genießen	sonnig	gütig	töten	versagen	krank	gemein	sterben	gierig	47pct	acq_USunple_CSpleas2_noRW	acq23456_noRW	2	58	0	0	300	300	488	46	0	1	1	blank2r.bmp	0	1	+	0	1	blank2r.bmp	252	1	DXXD	306	3	gierig	559	0	0	0	0	0	0	0	0	0	0	0	0	0	0	0	0	0	0	0	0	0	0	0	0	0	0	0	0	0	0	0	0	0	0	0	0	0	0	0
082819	13:05:31	13:10:43	310832	5.0.10.0	5_exp_noRW	120	Rpleas_acq	CS_A	LWWL	DXXD	YFFY	CPPC	JQQJ	ZHHZ	träumen	vertrauen	küssen	genießen	sonnig	gütig	töten	versagen	krank	gemein	sterben	gierig	47pct	acq_USunple_CSunple1_noRW	acq23456_noRW	2	59	0	0	300	300	731	46	0	1	1	blank2r.bmp	0	1	+	0	1	blank2r.bmp	252	1	YFFY	306	1	töten	559	0	0	0	0	0	0	0	0	0	0	0	0	0	0	0	0	0	0	0	0	0	0	0	0	0	0	0	0	0	0	0	0	0	0	0	0	0	0	0
082819	13:05:31	13:10:44	312445	5.0.10.0	5_exp_noRW	120	Rpleas_acq	CS_A	LWWL	DXXD	YFFY	CPPC	JQQJ	ZHHZ	träumen	vertrauen	küssen	genießen	sonnig	gütig	töten	versagen	krank	gemein	sterben	gierig	53pct	acq_USpleas_CSpleas2_noRW	acq23456_noRW	2	60	0	0	300	300	425	50	0	1	1	blank2r.bmp	0	1	+	0	1	blank2r.bmp	252	1	DXXD	306	2	sonnig	559	0	0	0	0	0	0	0	0	0	0	0	0	0	0	0	0	0	0	0	0	0	0	0	0	0	0	0	0	0	0	0	0	0	0	0	0	0	0	0
082819	13:05:31	13:10:46	314044	5.0.10.0	5_exp_noRW	120	Rpleas_acq	CS_A	LWWL	DXXD	YFFY	CPPC	JQQJ	ZHHZ	träumen	vertrauen	küssen	genießen	sonnig	gütig	töten	versagen	krank	gemein	sterben	gierig	53pct	acq_USunple_CSunple2_noRW	acq23456_noRW	2	61	0	0	300	300	424	46	0	1	1	blank2r.bmp	0	1	+	0	1	blank2r.bmp	252	1	CPPC	306	2	sterben	559	0	0	0	0	0	0	0	0	0	0	0	0	0	0	0	0	0	0	0	0	0	0	0	0	0	0	0	0	0	0	0	0	0	0	0	0	0	0	0
082819	13:05:31	13:10:48	315617	5.0.10.0	5_exp_noRW	120	Rpleas_acq	CS_A	LWWL	DXXD	YFFY	CPPC	JQQJ	ZHHZ	träumen	vertrauen	küssen	genießen	sonnig	gütig	töten	versagen	krank	gemein	sterben	gierig	53pct	acq_USunple_CSunple1_noRW	acq23456_noRW	2	62	0	0	300	300	393	46	0	1	1	blank2r.bmp	0	1	+	0	1	blank2r.bmp	252	1	YFFY	306	3	krank	559	0	0	0	0	0	0	0	0	0	0	0	0	0	0	0	0	0	0	0	0	0	0	0	0	0	0	0	0	0	0	0	0	0	0	0	0	0	0	0
082819	13:05:31	13:10:49	317243	5.0.10.0	5_exp_noRW	120	Rpleas_acq	CS_A	LWWL	DXXD	YFFY	CPPC	JQQJ	ZHHZ	träumen	vertrauen	küssen	genießen	sonnig	gütig	töten	versagen	krank	gemein	sterben	gierig	53pct	acq_USunple_CSunple1_noRW	acq23456_noRW	2	63	0	0	300	300	464	46	0	1	1	blank2r.bmp	0	1	+	0	1	blank2r.bmp	252	1	YFFY	306	2	versagen	559	0	0	0	0	0	0	0	0	0	0	0	0	0	0	0	0	0	0	0	0	0	0	0	0	0	0	0	0	0	0	0	0	0	0	0	0	0	0	0
082819	13:05:31	13:10:51	318829	5.0.10.0	5_exp_noRW	120	Rpleas_acq	CS_A	LWWL	DXXD	YFFY	CPPC	JQQJ	ZHHZ	träumen	vertrauen	küssen	genießen	sonnig	gütig	töten	versagen	krank	gemein	sterben	gierig	53pct	acq_USpleas_CSpleas1_noRW	acq23456_noRW	2	64	0	0	300	300	409	50	0	1	1	blank2r.bmp	0	1	+	0	1	blank2r.bmp	252	1	LWWL	306	1	träumen	559	0	0	0	0	0	0	0	0	0	0	0	0	0	0	0	0	0	0	0	0	0	0	0	0	0	0	0	0	0	0	0	0	0	0	0	0	0	0	0
082819	13:05:31	13:10:52	320442	5.0.10.0	5_exp_noRW	120	Rpleas_acq	CS_A	LWWL	DXXD	YFFY	CPPC	JQQJ	ZHHZ	träumen	vertrauen	küssen	genießen	sonnig	gütig	töten	versagen	krank	gemein	sterben	gierig	53pct	acq_USunple_CSunple1_noRW	acq23456_noRW	2	65	0	0	300	300	432	46	0	1	1	blank2r.bmp	0	1	+	0	1	blank2r.bmp	252	1	YFFY	306	1	töten	559	0	0	0	0	0	0	0	0	0	0	0	0	0	0	0	0	0	0	0	0	0	0	0	0	0	0	0	0	0	0	0	0	0	0	0	0	0	0	0
082819	13:05:31	13:10:54	322201	5.0.10.0	5_exp_noRW	120	Rpleas_acq	CS_A	LWWL	DXXD	YFFY	CPPC	JQQJ	ZHHZ	träumen	vertrauen	küssen	genießen	sonnig	gütig	töten	versagen	krank	gemein	sterben	gierig	53pct	acq_USunple_CSunple2_noRW	acq23456_noRW	2	66	0	0	300	300	579	46	0	1	1	blank2r.bmp	0	1	+	0	1	blank2r.bmp	252	1	CPPC	306	1	gemein	559	0	0	0	0	0	0	0	0	0	0	0	0	0	0	0	0	0	0	0	0	0	0	0	0	0	0	0	0	0	0	0	0	0	0	0	0	0	0	0
082819	13:05:31	13:10:56	323760	5.0.10.0	5_exp_noRW	120	Rpleas_acq	CS_A	LWWL	DXXD	YFFY	CPPC	JQQJ	ZHHZ	träumen	vertrauen	küssen	genießen	sonnig	gütig	töten	versagen	krank	gemein	sterben	gierig	53pct	acq_USunple_CSpleas2_noRW	acq23456_noRW	2	67	0	0	300	300	394	46	0	1	1	blank2r.bmp	0	1	+	0	1	blank2r.bmp	252	1	DXXD	306	1	gemein	559	0	0	0	0	0	0	0	0	0	0	0	0	0	0	0	0	0	0	0	0	0	0	0	0	0	0	0	0	0	0	0	0	0	0	0	0	0	0	0
082819	13:05:31	13:10:57	325480	5.0.10.0	5_exp_noRW	120	Rpleas_acq	CS_A	LWWL	DXXD	YFFY	CPPC	JQQJ	ZHHZ	träumen	vertrauen	küssen	genießen	sonnig	gütig	töten	versagen	krank	gemein	sterben	gierig	47pct	acq_USunple_CSunple1_noRW	acq23456_noRW	2	68	0	0	300	300	544	46	0	1	1	blank2r.bmp	0	1	+	0	1	blank2r.bmp	252	1	YFFY	306	2	versagen	559	0	0	0	0	0	0	0	0	0	0	0	0	0	0	0	0	0	0	0	0	0	0	0	0	0	0	0	0	0	0	0	0	0	0	0	0	0	0	0
082819	13:05:31	13:10:59	327386	5.0.10.0	5_exp_noRW	120	Rpleas_acq	CS_A	LWWL	DXXD	YFFY	CPPC	JQQJ	ZHHZ	träumen	vertrauen	küssen	genießen	sonnig	gütig	töten	versagen	krank	gemein	sterben	gierig	47pct	acq_USpleas_CSpleas2_noRW	acq23456_noRW	2	69	0	0	300	300	725	50	0	1	1	blank2r.bmp	0	1	+	0	1	blank2r.bmp	252	1	DXXD	306	1	genießen	559	0	0	0	0	0	0	0	0	0	0	0	0	0	0	0	0	0	0	0	0	0	0	0	0	0	0	0	0	0	0	0	0	0	0	0	0	0	0	0
082819	13:05:31	13:11:01	328958	5.0.10.0	5_exp_noRW	120	Rpleas_acq	CS_A	LWWL	DXXD	YFFY	CPPC	JQQJ	ZHHZ	träumen	vertrauen	küssen	genießen	sonnig	gütig	töten	versagen	krank	gemein	sterben	gierig	47pct	acq_USpleas_CSpleas2_noRW	acq23456_noRW	2	70	0	0	300	300	389	50	0	1	1	blank2r.bmp	0	1	+	0	1	blank2r.bmp	252	1	DXXD	306	3	gütig	559	0	0	0	0	0	0	0	0	0	0	0	0	0	0	0	0	0	0	0	0	0	0	0	0	0	0	0	0	0	0	0	0	0	0	0	0	0	0	0
082819	13:05:31	13:11:02	330544	5.0.10.0	5_exp_noRW	120	Rpleas_acq	CS_A	LWWL	DXXD	YFFY	CPPC	JQQJ	ZHHZ	träumen	vertrauen	küssen	genießen	sonnig	gütig	töten	versagen	krank	gemein	sterben	gierig	53pct	acq_USpleas_CSpleas1_noRW	acq23456_noRW	2	71	0	0	300	300	424	50	0	1	1	blank2r.bmp	0	1	+	0	1	blank2r.bmp	252	1	LWWL	306	3	küssen	559	0	0	0	0	0	0	0	0	0	0	0	0	0	0	0	0	0	0	0	0	0	0	0	0	0	0	0	0	0	0	0	0	0	0	0	0	0	0	0
082819	13:05:31	13:11:04	332130	5.0.10.0	5_exp_noRW	120	Rpleas_acq	CS_A	LWWL	DXXD	YFFY	CPPC	JQQJ	ZHHZ	träumen	vertrauen	küssen	genießen	sonnig	gütig	töten	versagen	krank	gemein	sterben	gierig	47pct	acq_USpleas_CSpleas2_noRW	acq23456_noRW	2	72	0	0	300	300	393	50	0	1	1	blank2r.bmp	0	1	+	0	1	blank2r.bmp	252	1	DXXD	306	3	gütig	559	0	0	0	0	0	0	0	0	0	0	0	0	0	0	0	0	0	0	0	0	0	0	0	0	0	0	0	0	0	0	0	0	0	0	0	0	0	0	0
082819	13:05:31	13:11:06	333863	5.0.10.0	5_exp_noRW	120	Rpleas_acq	CS_A	LWWL	DXXD	YFFY	CPPC	JQQJ	ZHHZ	träumen	vertrauen	küssen	genießen	sonnig	gütig	töten	versagen	krank	gemein	sterben	gierig	47pct	acq_USunple_CSpleas1_noRW	acq23456_noRW	2	73	0	0	300	300	342	50	0	0	1	blank2r.bmp	0	1	+	0	1	blank2r.bmp	252	1	LWWL	306	1	töten	559	1	FEHLER	932	0	0	0	0	0	0	0	0	0	0	0	0	0	0	0	0	0	0	0	0	0	0	0	0	0	0	0	0	0	0	0	0	0	0	0	0
082819	13:05:31	13:11:07	335516	5.0.10.0	5_exp_noRW	120	Rpleas_acq	CS_A	LWWL	DXXD	YFFY	CPPC	JQQJ	ZHHZ	träumen	vertrauen	küssen	genießen	sonnig	gütig	töten	versagen	krank	gemein	sterben	gierig	47pct	acq_USunple_CSunple2_noRW	acq23456_noRW	2	74	0	0	300	300	685	46	0	1	1	blank2r.bmp	0	1	+	0	1	blank2r.bmp	252	1	CPPC	306	2	sterben	559	0	0	0	0	0	0	0	0	0	0	0	0	0	0	0	0	0	0	0	0	0	0	0	0	0	0	0	0	0	0	0	0	0	0	0	0	0	0	0
082819	13:05:31	13:11:09	337168	5.0.10.0	5_exp_noRW	120	Rpleas_acq	CS_A	LWWL	DXXD	YFFY	CPPC	JQQJ	ZHHZ	träumen	vertrauen	küssen	genießen	sonnig	gütig	töten	versagen	krank	gemein	sterben	gierig	47pct	acq_USpleas_CSpleas1_noRW	acq23456_noRW	2	75	0	0	300	300	474	50	0	1	1	blank2r.bmp	0	1	+	0	1	blank2r.bmp	252	1	LWWL	306	3	küssen	559	0	0	0	0	0	0	0	0	0	0	0	0	0	0	0	0	0	0	0	0	0	0	0	0	0	0	0	0	0	0	0	0	0	0	0	0	0	0	0
082819	13:05:31	13:11:11	338808	5.0.10.0	5_exp_noRW	120	Rpleas_acq	CS_A	LWWL	DXXD	YFFY	CPPC	JQQJ	ZHHZ	träumen	vertrauen	küssen	genießen	sonnig	gütig	töten	versagen	krank	gemein	sterben	gierig	47pct	acq_USunple_CSunple2_noRW	acq23456_noRW	2	76	0	0	300	300	457	46	0	1	1	blank2r.bmp	0	1	+	0	1	blank2r.bmp	252	1	CPPC	306	3	gierig	559	0	0	0	0	0	0	0	0	0	0	0	0	0	0	0	0	0	0	0	0	0	0	0	0	0	0	0	0	0	0	0	0	0	0	0	0	0	0	0
082819	13:05:31	13:11:12	340500	5.0.10.0	5_exp_noRW	120	Rpleas_acq	CS_A	LWWL	DXXD	YFFY	CPPC	JQQJ	ZHHZ	träumen	vertrauen	küssen	genießen	sonnig	gütig	töten	versagen	krank	gemein	sterben	gierig	53pct	acq_USpleas_CSpleas2_noRW	acq23456_noRW	2	77	0	0	300	300	506	50	0	1	1	blank2r.bmp	0	1	+	0	1	blank2r.bmp	252	1	DXXD	306	2	sonnig	559	0	0	0	0	0	0	0	0	0	0	0	0	0	0	0	0	0	0	0	0	0	0	0	0	0	0	0	0	0	0	0	0	0	0	0	0	0	0	0
082819	13:05:31	13:11:14	342499	5.0.10.0	5_exp_noRW	120	Rpleas_acq	CS_A	LWWL	DXXD	YFFY	CPPC	JQQJ	ZHHZ	träumen	vertrauen	küssen	genießen	sonnig	gütig	töten	versagen	krank	gemein	sterben	gierig	47pct	acq_USpleas_CSpleas1_noRW	acq23456_noRW	2	78	0	0	300	300	630	46	0	0	1	blank2r.bmp	0	1	+	0	1	blank2r.bmp	252	1	LWWL	306	2	vertrauen	559	1	FEHLER	1226	0	0	0	0	0	0	0	0	0	0	0	0	0	0	0	0	0	0	0	0	0	0	0	0	0	0	0	0	0	0	0	0	0	0	0	0
082819	13:05:31	13:11:16	344272	5.0.10.0	5_exp_noRW	120	Rpleas_acq	CS_A	LWWL	DXXD	YFFY	CPPC	JQQJ	ZHHZ	träumen	vertrauen	küssen	genießen	sonnig	gütig	töten	versagen	krank	gemein	sterben	gierig	53pct	acq_USpleas_CSunple2_noRW	acq23456_noRW	2	79	0	0	300	300	786	50	0	1	1	blank2r.bmp	0	1	+	0	1	blank2r.bmp	252	1	CPPC	306	1	genießen	559	0	0	0	0	0	0	0	0	0	0	0	0	0	0	0	0	0	0	0	0	0	0	0	0	0	0	0	0	0	0	0	0	0	0	0	0	0	0	0
082819	13:05:31	13:11:18	345951	5.0.10.0	5_exp_noRW	120	Rpleas_acq	CS_A	LWWL	DXXD	YFFY	CPPC	JQQJ	ZHHZ	träumen	vertrauen	küssen	genießen	sonnig	gütig	töten	versagen	krank	gemein	sterben	gierig	53pct	acq_USpleas_CSunple1_noRW	acq23456_noRW	2	80	0	0	300	300	505	50	0	1	1	blank2r.bmp	0	1	+	0	1	blank2r.bmp	252	1	YFFY	306	1	träumen	559	0	0	0	0	0	0	0	0	0	0	0	0	0	0	0	0	0	0	0	0	0	0	0	0	0	0	0	0	0	0	0	0	0	0	0	0	0	0	0
082819	13:05:31	13:11:43	371248	5.0.10.0	5_exp_noRW	120	Rpleas_acq	CS_A	LWWL	DXXD	YFFY	CPPC	JQQJ	ZHHZ	träumen	vertrauen	küssen	genießen	sonnig	gütig	töten	versagen	krank	gemein	sterben	gierig	53pct	acq_USpleas_CSpleas2_noRW	acq23456_noRW	3	1	0	0	300	300	530	50	0	1	1	blank2r.bmp	0	1	+	0	1	blank2r.bmp	252	1	DXXD	306	1	genießen	559	0	0	0	0	0	0	0	0	0	0	0	0	0	0	0	0	0	0	0	0	0	0	0	0	0	0	0	0	0	0	0	0	0	0	0	0	0	0	0
082819	13:05:31	13:11:45	372847	5.0.10.0	5_exp_noRW	120	Rpleas_acq	CS_A	LWWL	DXXD	YFFY	CPPC	JQQJ	ZHHZ	träumen	vertrauen	küssen	genießen	sonnig	gütig	töten	versagen	krank	gemein	sterben	gierig	53pct	acq_USunple_CSunple1_noRW	acq23456_noRW	3	2	0	0	300	300	413	46	0	1	1	blank2r.bmp	0	1	+	0	1	blank2r.bmp	252	1	YFFY	306	3	krank	559	0	0	0	0	0	0	0	0	0	0	0	0	0	0	0	0	0	0	0	0	0	0	0	0	0	0	0	0	0	0	0	0	0	0	0	0	0	0	0
082819	13:05:31	13:11:46	374500	5.0.10.0	5_exp_noRW	120	Rpleas_acq	CS_A	LWWL	DXXD	YFFY	CPPC	JQQJ	ZHHZ	träumen	vertrauen	küssen	genießen	sonnig	gütig	töten	versagen	krank	gemein	sterben	gierig	53pct	acq_USunple_CSpleas1_noRW	acq23456_noRW	3	3	0	0	300	300	466	46	0	1	1	blank2r.bmp	0	1	+	0	1	blank2r.bmp	252	1	LWWL	306	2	versagen	559	0	0	0	0	0	0	0	0	0	0	0	0	0	0	0	0	0	0	0	0	0	0	0	0	0	0	0	0	0	0	0	0	0	0	0	0	0	0	0
082819	13:05:31	13:11:48	376072	5.0.10.0	5_exp_noRW	120	Rpleas_acq	CS_A	LWWL	DXXD	YFFY	CPPC	JQQJ	ZHHZ	träumen	vertrauen	küssen	genießen	sonnig	gütig	töten	versagen	krank	gemein	sterben	gierig	53pct	acq_USunple_CSunple2_noRW	acq23456_noRW	3	4	0	0	300	300	408	46	0	1	1	blank2r.bmp	0	1	+	0	1	blank2r.bmp	252	1	CPPC	306	1	gemein	559	0	0	0	0	0	0	0	0	0	0	0	0	0	0	0	0	0	0	0	0	0	0	0	0	0	0	0	0	0	0	0	0	0	0	0	0	0	0	0
082819	13:05:31	13:11:50	377658	5.0.10.0	5_exp_noRW	120	Rpleas_acq	CS_A	LWWL	DXXD	YFFY	CPPC	JQQJ	ZHHZ	träumen	vertrauen	küssen	genießen	sonnig	gütig	töten	versagen	krank	gemein	sterben	gierig	47pct	acq_USpleas_CSpleas1_noRW	acq23456_noRW	3	5	0	0	300	300	405	50	0	1	1	blank2r.bmp	0	1	+	0	1	blank2r.bmp	252	1	LWWL	306	1	träumen	559	0	0	0	0	0	0	0	0	0	0	0	0	0	0	0	0	0	0	0	0	0	0	0	0	0	0	0	0	0	0	0	0	0	0	0	0	0	0	0
082819	13:05:31	13:11:51	379204	5.0.10.0	5_exp_noRW	120	Rpleas_acq	CS_A	LWWL	DXXD	YFFY	CPPC	JQQJ	ZHHZ	träumen	vertrauen	küssen	genießen	sonnig	gütig	töten	versagen	krank	gemein	sterben	gierig	47pct	acq_USunple_CSunple2_noRW	acq23456_noRW	3	6	0	0	300	300	384	46	0	1	1	blank2r.bmp	0	1	+	0	1	blank2r.bmp	252	1	CPPC	306	1	gemein	559	0	0	0	0	0	0	0	0	0	0	0	0	0	0	0	0	0	0	0	0	0	0	0	0	0	0	0	0	0	0	0	0	0	0	0	0	0	0	0
082819	13:05:31	13:11:53	380844	5.0.10.0	5_exp_noRW	120	Rpleas_acq	CS_A	LWWL	DXXD	YFFY	CPPC	JQQJ	ZHHZ	träumen	vertrauen	küssen	genießen	sonnig	gütig	töten	versagen	krank	gemein	sterben	gierig	47pct	acq_USunple_CSunple1_noRW	acq23456_noRW	3	7	0	0	300	300	455	46	0	1	1	blank2r.bmp	0	1	+	0	1	blank2r.bmp	252	1	YFFY	306	3	krank	559	0	0	0	0	0	0	0	0	0	0	0	0	0	0	0	0	0	0	0	0	0	0	0	0	0	0	0	0	0	0	0	0	0	0	0	0	0	0	0
082819	13:05:31	13:11:54	382510	5.0.10.0	5_exp_noRW	120	Rpleas_acq	CS_A	LWWL	DXXD	YFFY	CPPC	JQQJ	ZHHZ	träumen	vertrauen	küssen	genießen	sonnig	gütig	töten	versagen	krank	gemein	sterben	gierig	47pct	acq_USpleas_CSpleas1_noRW	acq23456_noRW	3	8	0	0	300	300	493	50	0	1	1	blank2r.bmp	0	1	+	0	1	blank2r.bmp	252	1	LWWL	306	1	träumen	559	0	0	0	0	0	0	0	0	0	0	0	0	0	0	0	0	0	0	0	0	0	0	0	0	0	0	0	0	0	0	0	0	0	0	0	0	0	0	0
082819	13:05:31	13:11:56	384176	5.0.10.0	5_exp_noRW	120	Rpleas_acq	CS_A	LWWL	DXXD	YFFY	CPPC	JQQJ	ZHHZ	träumen	vertrauen	küssen	genießen	sonnig	gütig	töten	versagen	krank	gemein	sterben	gierig	53pct	acq_USpleas_CSpleas2_noRW	acq23456_noRW	3	9	0	0	300	300	493	50	0	1	1	blank2r.bmp	0	1	+	0	1	blank2r.bmp	252	1	DXXD	306	3	gütig	559	0	0	0	0	0	0	0	0	0	0	0	0	0	0	0	0	0	0	0	0	0	0	0	0	0	0	0	0	0	0	0	0	0	0	0	0	0	0	0
082819	13:05:31	13:11:58	385842	5.0.10.0	5_exp_noRW	120	Rpleas_acq	CS_A	LWWL	DXXD	YFFY	CPPC	JQQJ	ZHHZ	träumen	vertrauen	küssen	genießen	sonnig	gütig	töten	versagen	krank	gemein	sterben	gierig	47pct	acq_USpleas_CSunple1_noRW	acq23456_noRW	3	10	0	0	300	300	504	50	0	1	1	blank2r.bmp	0	1	+	0	1	blank2r.bmp	252	1	YFFY	306	2	vertrauen	559	0	0	0	0	0	0	0	0	0	0	0	0	0	0	0	0	0	0	0	0	0	0	0	0	0	0	0	0	0	0	0	0	0	0	0	0	0	0	0
082819	13:05:31	13:11:59	387588	5.0.10.0	5_exp_noRW	120	Rpleas_acq	CS_A	LWWL	DXXD	YFFY	CPPC	JQQJ	ZHHZ	träumen	vertrauen	küssen	genießen	sonnig	gütig	töten	versagen	krank	gemein	sterben	gierig	53pct	acq_USunple_CSunple2_noRW	acq23456_noRW	3	11	0	0	300	300	570	46	0	1	1	blank2r.bmp	0	1	+	0	1	blank2r.bmp	252	1	CPPC	306	2	sterben	559	0	0	0	0	0	0	0	0	0	0	0	0	0	0	0	0	0	0	0	0	0	0	0	0	0	0	0	0	0	0	0	0	0	0	0	0	0	0	0
082819	13:05:31	13:12:01	389200	5.0.10.0	5_exp_noRW	120	Rpleas_acq	CS_A	LWWL	DXXD	YFFY	CPPC	JQQJ	ZHHZ	träumen	vertrauen	küssen	genießen	sonnig	gütig	töten	versagen	krank	gemein	sterben	gierig	47pct	acq_USpleas_CSpleas1_noRW	acq23456_noRW	3	12	0	0	300	300	429	50	0	1	1	blank2r.bmp	0	1	+	0	1	blank2r.bmp	252	1	LWWL	306	3	küssen	559	0	0	0	0	0	0	0	0	0	0	0	0	0	0	0	0	0	0	0	0	0	0	0	0	0	0	0	0	0	0	0	0	0	0	0	0	0	0	0
082819	13:05:31	13:12:03	390826	5.0.10.0	5_exp_noRW	120	Rpleas_acq	CS_A	LWWL	DXXD	YFFY	CPPC	JQQJ	ZHHZ	träumen	vertrauen	küssen	genießen	sonnig	gütig	töten	versagen	krank	gemein	sterben	gierig	47pct	acq_USpleas_CSunple2_noRW	acq23456_noRW	3	13	0	0	300	300	462	50	0	1	1	blank2r.bmp	0	1	+	0	1	blank2r.bmp	252	1	CPPC	306	3	gütig	559	0	0	0	0	0	0	0	0	0	0	0	0	0	0	0	0	0	0	0	0	0	0	0	0	0	0	0	0	0	0	0	0	0	0	0	0	0	0	0
082819	13:05:31	13:12:04	392426	5.0.10.0	5_exp_noRW	120	Rpleas_acq	CS_A	LWWL	DXXD	YFFY	CPPC	JQQJ	ZHHZ	träumen	vertrauen	küssen	genießen	sonnig	gütig	töten	versagen	krank	gemein	sterben	gierig	53pct	acq_USunple_CSunple1_noRW	acq23456_noRW	3	14	0	0	300	300	422	46	0	1	1	blank2r.bmp	0	1	+	0	1	blank2r.bmp	252	1	YFFY	306	1	töten	559	0	0	0	0	0	0	0	0	0	0	0	0	0	0	0	0	0	0	0	0	0	0	0	0	0	0	0	0	0	0	0	0	0	0	0	0	0	0	0
082819	13:05:31	13:12:06	394012	5.0.10.0	5_exp_noRW	120	Rpleas_acq	CS_A	LWWL	DXXD	YFFY	CPPC	JQQJ	ZHHZ	träumen	vertrauen	küssen	genießen	sonnig	gütig	töten	versagen	krank	gemein	sterben	gierig	53pct	acq_USpleas_CSpleas2_noRW	acq23456_noRW	3	15	0	0	300	300	403	50	0	1	1	blank2r.bmp	0	1	+	0	1	blank2r.bmp	252	1	DXXD	306	2	sonnig	559	0	0	0	0	0	0	0	0	0	0	0	0	0	0	0	0	0	0	0	0	0	0	0	0	0	0	0	0	0	0	0	0	0	0	0	0	0	0	0
082819	13:05:31	13:12:08	395718	5.0.10.0	5_exp_noRW	120	Rpleas_acq	CS_A	LWWL	DXXD	YFFY	CPPC	JQQJ	ZHHZ	träumen	vertrauen	küssen	genießen	sonnig	gütig	töten	versagen	krank	gemein	sterben	gierig	53pct	acq_USpleas_CSpleas2_noRW	acq23456_noRW	3	16	0	0	300	300	525	50	0	1	1	blank2r.bmp	0	1	+	0	1	blank2r.bmp	252	1	DXXD	306	1	genießen	559	0	0	0	0	0	0	0	0	0	0	0	0	0	0	0	0	0	0	0	0	0	0	0	0	0	0	0	0	0	0	0	0	0	0	0	0	0	0	0
082819	13:05:31	13:12:09	397317	5.0.10.0	5_exp_noRW	120	Rpleas_acq	CS_A	LWWL	DXXD	YFFY	CPPC	JQQJ	ZHHZ	träumen	vertrauen	küssen	genießen	sonnig	gütig	töten	versagen	krank	gemein	sterben	gierig	53pct	acq_USunple_CSunple2_noRW	acq23456_noRW	3	17	0	0	300	300	422	46	0	1	1	blank2r.bmp	0	1	+	0	1	blank2r.bmp	252	1	CPPC	306	3	gierig	559	0	0	0	0	0	0	0	0	0	0	0	0	0	0	0	0	0	0	0	0	0	0	0	0	0	0	0	0	0	0	0	0	0	0	0	0	0	0	0
082819	13:05:31	13:12:11	398956	5.0.10.0	5_exp_noRW	120	Rpleas_acq	CS_A	LWWL	DXXD	YFFY	CPPC	JQQJ	ZHHZ	träumen	vertrauen	küssen	genießen	sonnig	gütig	töten	versagen	krank	gemein	sterben	gierig	47pct	acq_USpleas_CSpleas1_noRW	acq23456_noRW	3	18	0	0	300	300	465	50	0	1	1	blank2r.bmp	0	1	+	0	1	blank2r.bmp	252	1	LWWL	306	2	vertrauen	559	0	0	0	0	0	0	0	0	0	0	0	0	0	0	0	0	0	0	0	0	0	0	0	0	0	0	0	0	0	0	0	0	0	0	0	0	0	0	0
082819	13:05:31	13:12:13	400622	5.0.10.0	5_exp_noRW	120	Rpleas_acq	CS_A	LWWL	DXXD	YFFY	CPPC	JQQJ	ZHHZ	träumen	vertrauen	küssen	genießen	sonnig	gütig	töten	versagen	krank	gemein	sterben	gierig	53pct	acq_USunple_CSunple1_noRW	acq23456_noRW	3	19	0	0	300	300	483	46	0	1	1	blank2r.bmp	0	1	+	0	1	blank2r.bmp	252	1	YFFY	306	2	versagen	559	0	0	0	0	0	0	0	0	0	0	0	0	0	0	0	0	0	0	0	0	0	0	0	0	0	0	0	0	0	0	0	0	0	0	0	0	0	0	0
082819	13:05:31	13:12:14	402488	5.0.10.0	5_exp_noRW	120	Rpleas_acq	CS_A	LWWL	DXXD	YFFY	CPPC	JQQJ	ZHHZ	träumen	vertrauen	küssen	genießen	sonnig	gütig	töten	versagen	krank	gemein	sterben	gierig	47pct	acq_USunple_CSpleas2_noRW	acq23456_noRW	3	20	0	0	300	300	491	50	0	0	1	blank2r.bmp	0	1	+	0	1	blank2r.bmp	252	1	DXXD	306	2	sterben	559	1	FEHLER	1079	0	0	0	0	0	0	0	0	0	0	0	0	0	0	0	0	0	0	0	0	0	0	0	0	0	0	0	0	0	0	0	0	0	0	0	0
082819	13:05:31	13:12:16	403874	5.0.10.0	5_exp_noRW	120	Rpleas_acq	CS_A	LWWL	DXXD	YFFY	CPPC	JQQJ	ZHHZ	träumen	vertrauen	küssen	genießen	sonnig	gütig	töten	versagen	krank	gemein	sterben	gierig	53pct	acq_USpleas_CSpleas2_noRW	acq23456_noRW	3	21	0	0	300	300	412	50	0	1	1	blank2r.bmp	0	1	+	0	1	blank2r.bmp	252	1	DXXD	306	2	sonnig	559	0	0	0	0	0	0	0	0	0	0	0	0	0	0	0	0	0	0	0	0	0	0	0	0	0	0	0	0	0	0	0	0	0	0	0	0	0	0	0
082819	13:05:31	13:12:17	405420	5.0.10.0	5_exp_noRW	120	Rpleas_acq	CS_A	LWWL	DXXD	YFFY	CPPC	JQQJ	ZHHZ	träumen	vertrauen	küssen	genießen	sonnig	gütig	töten	versagen	krank	gemein	sterben	gierig	53pct	acq_USunple_CSpleas2_noRW	acq23456_noRW	3	22	0	0	300	300	369	46	0	1	1	blank2r.bmp	0	1	+	0	1	blank2r.bmp	252	1	DXXD	306	3	gierig	559	0	0	0	0	0	0	0	0	0	0	0	0	0	0	0	0	0	0	0	0	0	0	0	0	0	0	0	0	0	0	0	0	0	0	0	0	0	0	0
082819	13:05:31	13:12:19	407126	5.0.10.0	5_exp_noRW	120	Rpleas_acq	CS_A	LWWL	DXXD	YFFY	CPPC	JQQJ	ZHHZ	träumen	vertrauen	küssen	genießen	sonnig	gütig	töten	versagen	krank	gemein	sterben	gierig	53pct	acq_USunple_CSunple1_noRW	acq23456_noRW	3	23	0	0	300	300	523	46	0	1	1	blank2r.bmp	0	1	+	0	1	blank2r.bmp	252	1	YFFY	306	2	versagen	559	0	0	0	0	0	0	0	0	0	0	0	0	0	0	0	0	0	0	0	0	0	0	0	0	0	0	0	0	0	0	0	0	0	0	0	0	0	0	0
082819	13:05:31	13:12:21	408672	5.0.10.0	5_exp_noRW	120	Rpleas_acq	CS_A	LWWL	DXXD	YFFY	CPPC	JQQJ	ZHHZ	träumen	vertrauen	küssen	genießen	sonnig	gütig	töten	versagen	krank	gemein	sterben	gierig	53pct	acq_USunple_CSunple2_noRW	acq23456_noRW	3	24	0	0	300	300	378	46	0	1	1	blank2r.bmp	0	1	+	0	1	blank2r.bmp	252	1	CPPC	306	2	sterben	559	0	0	0	0	0	0	0	0	0	0	0	0	0	0	0	0	0	0	0	0	0	0	0	0	0	0	0	0	0	0	0	0	0	0	0	0	0	0	0
082819	13:05:31	13:12:22	410258	5.0.10.0	5_exp_noRW	120	Rpleas_acq	CS_A	LWWL	DXXD	YFFY	CPPC	JQQJ	ZHHZ	träumen	vertrauen	küssen	genießen	sonnig	gütig	töten	versagen	krank	gemein	sterben	gierig	47pct	acq_USunple_CSunple2_noRW	acq23456_noRW	3	25	0	0	300	300	412	46	0	1	1	blank2r.bmp	0	1	+	0	1	blank2r.bmp	252	1	CPPC	306	3	gierig	559	0	0	0	0	0	0	0	0	0	0	0	0	0	0	0	0	0	0	0	0	0	0	0	0	0	0	0	0	0	0	0	0	0	0	0	0	0	0	0
082819	13:05:31	13:12:24	411818	5.0.10.0	5_exp_noRW	120	Rpleas_acq	CS_A	LWWL	DXXD	YFFY	CPPC	JQQJ	ZHHZ	träumen	vertrauen	küssen	genießen	sonnig	gütig	töten	versagen	krank	gemein	sterben	gierig	53pct	acq_USunple_CSunple2_noRW	acq23456_noRW	3	26	0	0	300	300	387	46	0	1	1	blank2r.bmp	0	1	+	0	1	blank2r.bmp	252	1	CPPC	306	1	gemein	559	0	0	0	0	0	0	0	0	0	0	0	0	0	0	0	0	0	0	0	0	0	0	0	0	0	0	0	0	0	0	0	0	0	0	0	0	0	0	0
082819	13:05:31	13:12:25	413431	5.0.10.0	5_exp_noRW	120	Rpleas_acq	CS_A	LWWL	DXXD	YFFY	CPPC	JQQJ	ZHHZ	träumen	vertrauen	küssen	genießen	sonnig	gütig	töten	versagen	krank	gemein	sterben	gierig	53pct	acq_USunple_CSunple1_noRW	acq23456_noRW	3	27	0	0	300	300	447	46	0	1	1	blank2r.bmp	0	1	+	0	1	blank2r.bmp	252	1	YFFY	306	3	krank	559	0	0	0	0	0	0	0	0	0	0	0	0	0	0	0	0	0	0	0	0	0	0	0	0	0	0	0	0	0	0	0	0	0	0	0	0	0	0	0
082819	13:05:31	13:12:27	415230	5.0.10.0	5_exp_noRW	120	Rpleas_acq	CS_A	LWWL	DXXD	YFFY	CPPC	JQQJ	ZHHZ	träumen	vertrauen	küssen	genießen	sonnig	gütig	töten	versagen	krank	gemein	sterben	gierig	47pct	acq_USpleas_CSunple2_noRW	acq23456_noRW	3	28	0	0	300	300	405	46	0	0	1	blank2r.bmp	0	1	+	0	1	blank2r.bmp	252	1	CPPC	306	1	genießen	559	1	FEHLER	999	0	0	0	0	0	0	0	0	0	0	0	0	0	0	0	0	0	0	0	0	0	0	0	0	0	0	0	0	0	0	0	0	0	0	0	0
082819	13:05:31	13:12:28	416549	5.0.10.0	5_exp_noRW	120	Rpleas_acq	CS_A	LWWL	DXXD	YFFY	CPPC	JQQJ	ZHHZ	träumen	vertrauen	küssen	genießen	sonnig	gütig	töten	versagen	krank	gemein	sterben	gierig	47pct	acq_USpleas_CSpleas1_noRW	acq23456_noRW	3	29	0	0	300	300	370	50	0	1	1	blank2r.bmp	0	1	+	0	1	blank2r.bmp	252	1	LWWL	306	3	küssen	559	0	0	0	0	0	0	0	0	0	0	0	0	0	0	0	0	0	0	0	0	0	0	0	0	0	0	0	0	0	0	0	0	0	0	0	0	0	0	0
082819	13:05:31	13:12:30	418162	5.0.10.0	5_exp_noRW	120	Rpleas_acq	CS_A	LWWL	DXXD	YFFY	CPPC	JQQJ	ZHHZ	träumen	vertrauen	küssen	genießen	sonnig	gütig	töten	versagen	krank	gemein	sterben	gierig	53pct	acq_USunple_CSunple1_noRW	acq23456_noRW	3	30	0	0	300	300	428	46	0	1	1	blank2r.bmp	0	1	+	0	1	blank2r.bmp	252	1	YFFY	306	1	töten	559	0	0	0	0	0	0	0	0	0	0	0	0	0	0	0	0	0	0	0	0	0	0	0	0	0	0	0	0	0	0	0	0	0	0	0	0	0	0	0
082819	13:05:31	13:12:32	419895	5.0.10.0	5_exp_noRW	120	Rpleas_acq	CS_A	LWWL	DXXD	YFFY	CPPC	JQQJ	ZHHZ	träumen	vertrauen	küssen	genießen	sonnig	gütig	töten	versagen	krank	gemein	sterben	gierig	47pct	acq_USpleas_CSpleas1_noRW	acq23456_noRW	3	31	0	0	300	300	562	50	0	1	1	blank2r.bmp	0	1	+	0	1	blank2r.bmp	252	1	LWWL	306	2	vertrauen	559	0	0	0	0	0	0	0	0	0	0	0	0	0	0	0	0	0	0	0	0	0	0	0	0	0	0	0	0	0	0	0	0	0	0	0	0	0	0	0
082819	13:05:31	13:12:34	421680	5.0.10.0	5_exp_noRW	120	Rpleas_acq	CS_A	LWWL	DXXD	YFFY	CPPC	JQQJ	ZHHZ	träumen	vertrauen	küssen	genießen	sonnig	gütig	töten	versagen	krank	gemein	sterben	gierig	47pct	acq_USunple_CSunple2_noRW	acq23456_noRW	3	32	0	0	300	300	611	46	0	1	1	blank2r.bmp	0	1	+	0	1	blank2r.bmp	252	1	CPPC	306	3	gierig	559	0	0	0	0	0	0	0	0	0	0	0	0	0	0	0	0	0	0	0	0	0	0	0	0	0	0	0	0	0	0	0	0	0	0	0	0	0	0	0
082819	13:05:31	13:12:35	423466	5.0.10.0	5_exp_noRW	120	Rpleas_acq	CS_A	LWWL	DXXD	YFFY	CPPC	JQQJ	ZHHZ	träumen	vertrauen	küssen	genießen	sonnig	gütig	töten	versagen	krank	gemein	sterben	gierig	53pct	acq_USpleas_CSpleas1_noRW	acq23456_noRW	3	33	0	0	300	300	602	50	0	1	1	blank2r.bmp	0	1	+	0	1	blank2r.bmp	252	1	LWWL	306	1	träumen	559	0	0	0	0	0	0	0	0	0	0	0	0	0	0	0	0	0	0	0	0	0	0	0	0	0	0	0	0	0	0	0	0	0	0	0	0	0	0	0
082819	13:05:31	13:12:37	425066	5.0.10.0	5_exp_noRW	120	Rpleas_acq	CS_A	LWWL	DXXD	YFFY	CPPC	JQQJ	ZHHZ	träumen	vertrauen	küssen	genießen	sonnig	gütig	töten	versagen	krank	gemein	sterben	gierig	47pct	acq_USpleas_CSunple1_noRW	acq23456_noRW	3	34	0	0	300	300	415	50	0	1	1	blank2r.bmp	0	1	+	0	1	blank2r.bmp	252	1	YFFY	306	1	träumen	559	0	0	0	0	0	0	0	0	0	0	0	0	0	0	0	0	0	0	0	0	0	0	0	0	0	0	0	0	0	0	0	0	0	0	0	0	0	0	0
082819	13:05:31	13:12:39	426638	5.0.10.0	5_exp_noRW	120	Rpleas_acq	CS_A	LWWL	DXXD	YFFY	CPPC	JQQJ	ZHHZ	träumen	vertrauen	küssen	genießen	sonnig	gütig	töten	versagen	krank	gemein	sterben	gierig	53pct	acq_USpleas_CSpleas2_noRW	acq23456_noRW	3	35	0	0	300	300	400	50	0	1	1	blank2r.bmp	0	1	+	0	1	blank2r.bmp	252	1	DXXD	306	3	gütig	559	0	0	0	0	0	0	0	0	0	0	0	0	0	0	0	0	0	0	0	0	0	0	0	0	0	0	0	0	0	0	0	0	0	0	0	0	0	0	0
082819	13:05:31	13:12:40	428158	5.0.10.0	5_exp_noRW	120	Rpleas_acq	CS_A	LWWL	DXXD	YFFY	CPPC	JQQJ	ZHHZ	träumen	vertrauen	küssen	genießen	sonnig	gütig	töten	versagen	krank	gemein	sterben	gierig	53pct	acq_USpleas_CSpleas1_noRW	acq23456_noRW	3	36	0	0	300	300	355	50	0	1	1	blank2r.bmp	0	1	+	0	1	blank2r.bmp	252	1	LWWL	306	1	träumen	559	0	0	0	0	0	0	0	0	0	0	0	0	0	0	0	0	0	0	0	0	0	0	0	0	0	0	0	0	0	0	0	0	0	0	0	0	0	0	0
082819	13:05:31	13:12:42	429731	5.0.10.0	5_exp_noRW	120	Rpleas_acq	CS_A	LWWL	DXXD	YFFY	CPPC	JQQJ	ZHHZ	träumen	vertrauen	küssen	genießen	sonnig	gütig	töten	versagen	krank	gemein	sterben	gierig	53pct	acq_USpleas_CSpleas2_noRW	acq23456_noRW	3	37	0	0	300	300	398	50	0	1	1	blank2r.bmp	0	1	+	0	1	blank2r.bmp	252	1	DXXD	306	1	genießen	559	0	0	0	0	0	0	0	0	0	0	0	0	0	0	0	0	0	0	0	0	0	0	0	0	0	0	0	0	0	0	0	0	0	0	0	0	0	0	0
082819	13:05:31	13:12:43	431317	5.0.10.0	5_exp_noRW	120	Rpleas_acq	CS_A	LWWL	DXXD	YFFY	CPPC	JQQJ	ZHHZ	träumen	vertrauen	küssen	genießen	sonnig	gütig	töten	versagen	krank	gemein	sterben	gierig	53pct	acq_USunple_CSunple1_noRW	acq23456_noRW	3	38	0	0	300	300	408	46	0	1	1	blank2r.bmp	0	1	+	0	1	blank2r.bmp	252	1	YFFY	306	2	versagen	559	0	0	0	0	0	0	0	0	0	0	0	0	0	0	0	0	0	0	0	0	0	0	0	0	0	0	0	0	0	0	0	0	0	0	0	0	0	0	0
082819	13:05:31	13:12:45	433129	5.0.10.0	5_exp_noRW	120	Rpleas_acq	CS_A	LWWL	DXXD	YFFY	CPPC	JQQJ	ZHHZ	träumen	vertrauen	küssen	genießen	sonnig	gütig	töten	versagen	krank	gemein	sterben	gierig	47pct	acq_USpleas_CSpleas2_noRW	acq23456_noRW	3	39	0	0	300	300	629	50	0	1	1	blank2r.bmp	0	1	+	0	1	blank2r.bmp	252	1	DXXD	306	3	gütig	559	0	0	0	0	0	0	0	0	0	0	0	0	0	0	0	0	0	0	0	0	0	0	0	0	0	0	0	0	0	0	0	0	0	0	0	0	0	0	0
082819	13:05:31	13:12:47	434715	5.0.10.0	5_exp_noRW	120	Rpleas_acq	CS_A	LWWL	DXXD	YFFY	CPPC	JQQJ	ZHHZ	träumen	vertrauen	küssen	genießen	sonnig	gütig	töten	versagen	krank	gemein	sterben	gierig	53pct	acq_USunple_CSpleas1_noRW	acq23456_noRW	3	40	0	0	300	300	415	46	0	1	1	blank2r.bmp	0	1	+	0	1	blank2r.bmp	252	1	LWWL	306	2	versagen	559	0	0	0	0	0	0	0	0	0	0	0	0	0	0	0	0	0	0	0	0	0	0	0	0	0	0	0	0	0	0	0	0	0	0	0	0	0	0	0
082819	13:05:31	13:12:48	436421	5.0.10.0	5_exp_noRW	120	Rpleas_acq	CS_A	LWWL	DXXD	YFFY	CPPC	JQQJ	ZHHZ	träumen	vertrauen	küssen	genießen	sonnig	gütig	töten	versagen	krank	gemein	sterben	gierig	53pct	acq_USpleas_CSpleas2_noRW	acq23456_noRW	3	41	0	0	300	300	527	50	0	1	1	blank2r.bmp	0	1	+	0	1	blank2r.bmp	252	1	DXXD	306	1	genießen	559	0	0	0	0	0	0	0	0	0	0	0	0	0	0	0	0	0	0	0	0	0	0	0	0	0	0	0	0	0	0	0	0	0	0	0	0	0	0	0
082819	13:05:31	13:12:50	438020	5.0.10.0	5_exp_noRW	120	Rpleas_acq	CS_A	LWWL	DXXD	YFFY	CPPC	JQQJ	ZHHZ	träumen	vertrauen	küssen	genießen	sonnig	gütig	töten	versagen	krank	gemein	sterben	gierig	47pct	acq_USpleas_CSpleas2_noRW	acq23456_noRW	3	42	0	0	300	300	433	50	0	1	1	blank2r.bmp	0	1	+	0	1	blank2r.bmp	252	1	DXXD	306	2	sonnig	559	0	0	0	0	0	0	0	0	0	0	0	0	0	0	0	0	0	0	0	0	0	0	0	0	0	0	0	0	0	0	0	0	0	0	0	0	0	0	0
082819	13:05:31	13:12:52	439646	5.0.10.0	5_exp_noRW	120	Rpleas_acq	CS_A	LWWL	DXXD	YFFY	CPPC	JQQJ	ZHHZ	träumen	vertrauen	küssen	genießen	sonnig	gütig	töten	versagen	krank	gemein	sterben	gierig	47pct	acq_USunple_CSunple1_noRW	acq23456_noRW	3	43	0	0	300	300	447	46	0	1	1	blank2r.bmp	0	1	+	0	1	blank2r.bmp	252	1	YFFY	306	1	töten	559	0	0	0	0	0	0	0	0	0	0	0	0	0	0	0	0	0	0	0	0	0	0	0	0	0	0	0	0	0	0	0	0	0	0	0	0	0	0	0
082819	13:05:31	13:12:53	441352	5.0.10.0	5_exp_noRW	120	Rpleas_acq	CS_A	LWWL	DXXD	YFFY	CPPC	JQQJ	ZHHZ	träumen	vertrauen	küssen	genießen	sonnig	gütig	töten	versagen	krank	gemein	sterben	gierig	53pct	acq_USunple_CSunple2_noRW	acq23456_noRW	3	44	0	0	300	300	530	46	0	1	1	blank2r.bmp	0	1	+	0	1	blank2r.bmp	252	1	CPPC	306	1	gemein	559	0	0	0	0	0	0	0	0	0	0	0	0	0	0	0	0	0	0	0	0	0	0	0	0	0	0	0	0	0	0	0	0	0	0	0	0	0	0	0
082819	13:05:31	13:12:55	442965	5.0.10.0	5_exp_noRW	120	Rpleas_acq	CS_A	LWWL	DXXD	YFFY	CPPC	JQQJ	ZHHZ	träumen	vertrauen	küssen	genießen	sonnig	gütig	töten	versagen	krank	gemein	sterben	gierig	47pct	acq_USunple_CSunple2_noRW	acq23456_noRW	3	45	0	0	300	300	428	46	0	1	1	blank2r.bmp	0	1	+	0	1	blank2r.bmp	252	1	CPPC	306	2	sterben	559	0	0	0	0	0	0	0	0	0	0	0	0	0	0	0	0	0	0	0	0	0	0	0	0	0	0	0	0	0	0	0	0	0	0	0	0	0	0	0
082819	13:05:31	13:12:56	444564	5.0.10.0	5_exp_noRW	120	Rpleas_acq	CS_A	LWWL	DXXD	YFFY	CPPC	JQQJ	ZHHZ	träumen	vertrauen	küssen	genießen	sonnig	gütig	töten	versagen	krank	gemein	sterben	gierig	53pct	acq_USpleas_CSunple2_noRW	acq23456_noRW	3	46	0	0	300	300	431	50	0	1	1	blank2r.bmp	0	1	+	0	1	blank2r.bmp	252	1	CPPC	306	2	sonnig	559	0	0	0	0	0	0	0	0	0	0	0	0	0	0	0	0	0	0	0	0	0	0	0	0	0	0	0	0	0	0	0	0	0	0	0	0	0	0	0
082819	13:05:31	13:12:58	446177	5.0.10.0	5_exp_noRW	120	Rpleas_acq	CS_A	LWWL	DXXD	YFFY	CPPC	JQQJ	ZHHZ	träumen	vertrauen	küssen	genießen	sonnig	gütig	töten	versagen	krank	gemein	sterben	gierig	47pct	acq_USpleas_CSpleas1_noRW	acq23456_noRW	3	47	0	0	300	300	447	50	0	1	1	blank2r.bmp	0	1	+	0	1	blank2r.bmp	252	1	LWWL	306	2	vertrauen	559	0	0	0	0	0	0	0	0	0	0	0	0	0	0	0	0	0	0	0	0	0	0	0	0	0	0	0	0	0	0	0	0	0	0	0	0	0	0	0
082819	13:05:31	13:13:00	447723	5.0.10.0	5_exp_noRW	120	Rpleas_acq	CS_A	LWWL	DXXD	YFFY	CPPC	JQQJ	ZHHZ	träumen	vertrauen	küssen	genießen	sonnig	gütig	töten	versagen	krank	gemein	sterben	gierig	47pct	acq_USunple_CSpleas1_noRW	acq23456_noRW	3	48	0	0	300	300	367	46	0	1	1	blank2r.bmp	0	1	+	0	1	blank2r.bmp	252	1	LWWL	306	3	krank	559	0	0	0	0	0	0	0	0	0	0	0	0	0	0	0	0	0	0	0	0	0	0	0	0	0	0	0	0	0	0	0	0	0	0	0	0	0	0	0
082819	13:05:31	13:13:01	449349	5.0.10.0	5_exp_noRW	120	Rpleas_acq	CS_A	LWWL	DXXD	YFFY	CPPC	JQQJ	ZHHZ	träumen	vertrauen	küssen	genießen	sonnig	gütig	töten	versagen	krank	gemein	sterben	gierig	47pct	acq_USunple_CSunple2_noRW	acq23456_noRW	3	49	0	0	300	300	439	46	0	1	1	blank2r.bmp	0	1	+	0	1	blank2r.bmp	252	1	CPPC	306	3	gierig	559	0	0	0	0	0	0	0	0	0	0	0	0	0	0	0	0	0	0	0	0	0	0	0	0	0	0	0	0	0	0	0	0	0	0	0	0	0	0	0
082819	13:05:31	13:13:03	450949	5.0.10.0	5_exp_noRW	120	Rpleas_acq	CS_A	LWWL	DXXD	YFFY	CPPC	JQQJ	ZHHZ	träumen	vertrauen	küssen	genießen	sonnig	gütig	töten	versagen	krank	gemein	sterben	gierig	47pct	acq_USunple_CSunple1_noRW	acq23456_noRW	3	50	0	0	300	300	421	46	0	1	1	blank2r.bmp	0	1	+	0	1	blank2r.bmp	252	1	YFFY	306	3	krank	559	0	0	0	0	0	0	0	0	0	0	0	0	0	0	0	0	0	0	0	0	0	0	0	0	0	0	0	0	0	0	0	0	0	0	0	0	0	0	0
082819	13:05:31	13:13:04	452548	5.0.10.0	5_exp_noRW	120	Rpleas_acq	CS_A	LWWL	DXXD	YFFY	CPPC	JQQJ	ZHHZ	träumen	vertrauen	küssen	genießen	sonnig	gütig	töten	versagen	krank	gemein	sterben	gierig	47pct	acq_USpleas_CSpleas1_noRW	acq23456_noRW	3	51	0	0	300	300	422	50	0	1	1	blank2r.bmp	0	1	+	0	1	blank2r.bmp	252	1	LWWL	306	3	küssen	559	0	0	0	0	0	0	0	0	0	0	0	0	0	0	0	0	0	0	0	0	0	0	0	0	0	0	0	0	0	0	0	0	0	0	0	0	0	0	0
082819	13:05:31	13:13:06	454227	5.0.10.0	5_exp_noRW	120	Rpleas_acq	CS_A	LWWL	DXXD	YFFY	CPPC	JQQJ	ZHHZ	träumen	vertrauen	küssen	genießen	sonnig	gütig	töten	versagen	krank	gemein	sterben	gierig	53pct	acq_USpleas_CSpleas2_noRW	acq23456_noRW	3	52	0	0	300	300	497	50	0	1	1	blank2r.bmp	0	1	+	0	1	blank2r.bmp	252	1	DXXD	306	2	sonnig	559	0	0	0	0	0	0	0	0	0	0	0	0	0	0	0	0	0	0	0	0	0	0	0	0	0	0	0	0	0	0	0	0	0	0	0	0	0	0	0
082819	13:05:31	13:13:08	456146	5.0.10.0	5_exp_noRW	120	Rpleas_acq	CS_A	LWWL	DXXD	YFFY	CPPC	JQQJ	ZHHZ	träumen	vertrauen	küssen	genießen	sonnig	gütig	töten	versagen	krank	gemein	sterben	gierig	47pct	acq_USunple_CSunple1_noRW	acq23456_noRW	3	53	0	0	300	300	740	46	0	1	1	blank2r.bmp	0	1	+	0	1	blank2r.bmp	252	1	YFFY	306	1	töten	559	0	0	0	0	0	0	0	0	0	0	0	0	0	0	0	0	0	0	0	0	0	0	0	0	0	0	0	0	0	0	0	0	0	0	0	0	0	0	0
082819	13:05:31	13:13:10	457839	5.0.10.0	5_exp_noRW	120	Rpleas_acq	CS_A	LWWL	DXXD	YFFY	CPPC	JQQJ	ZHHZ	träumen	vertrauen	küssen	genießen	sonnig	gütig	töten	versagen	krank	gemein	sterben	gierig	47pct	acq_USunple_CSunple1_noRW	acq23456_noRW	3	54	0	0	300	300	514	46	0	1	1	blank2r.bmp	0	1	+	0	1	blank2r.bmp	252	1	YFFY	306	3	krank	559	0	0	0	0	0	0	0	0	0	0	0	0	0	0	0	0	0	0	0	0	0	0	0	0	0	0	0	0	0	0	0	0	0	0	0	0	0	0	0
082819	13:05:31	13:13:12	459998	5.0.10.0	5_exp_noRW	120	Rpleas_acq	CS_A	LWWL	DXXD	YFFY	CPPC	JQQJ	ZHHZ	träumen	vertrauen	küssen	genießen	sonnig	gütig	töten	versagen	krank	gemein	sterben	gierig	53pct	acq_USunple_CSunple2_noRW	acq23456_noRW	3	55	0	0	300	300	986	46	0	1	1	blank2r.bmp	0	1	+	0	1	blank2r.bmp	252	1	CPPC	306	1	gemein	559	0	0	0	0	0	0	0	0	0	0	0	0	0	0	0	0	0	0	0	0	0	0	0	0	0	0	0	0	0	0	0	0	0	0	0	0	0	0	0
082819	13:05:31	13:13:14	461677	5.0.10.0	5_exp_noRW	120	Rpleas_acq	CS_A	LWWL	DXXD	YFFY	CPPC	JQQJ	ZHHZ	träumen	vertrauen	küssen	genießen	sonnig	gütig	töten	versagen	krank	gemein	sterben	gierig	53pct	acq_USpleas_CSpleas1_noRW	acq23456_noRW	3	56	0	0	300	300	508	50	0	1	1	blank2r.bmp	0	1	+	0	1	blank2r.bmp	252	1	LWWL	306	1	träumen	559	0	0	0	0	0	0	0	0	0	0	0	0	0	0	0	0	0	0	0	0	0	0	0	0	0	0	0	0	0	0	0	0	0	0	0	0	0	0	0
082819	13:05:31	13:13:15	463543	5.0.10.0	5_exp_noRW	120	Rpleas_acq	CS_A	LWWL	DXXD	YFFY	CPPC	JQQJ	ZHHZ	träumen	vertrauen	küssen	genießen	sonnig	gütig	töten	versagen	krank	gemein	sterben	gierig	53pct	acq_USpleas_CSpleas2_noRW	acq23456_noRW	3	57	0	0	300	300	481	46	0	0	1	blank2r.bmp	0	1	+	0	1	blank2r.bmp	252	1	DXXD	306	1	genießen	559	1	FEHLER	1079	0	0	0	0	0	0	0	0	0	0	0	0	0	0	0	0	0	0	0	0	0	0	0	0	0	0	0	0	0	0	0	0	0	0	0	0
082819	13:05:31	13:13:17	465063	5.0.10.0	5_exp_noRW	120	Rpleas_acq	CS_A	LWWL	DXXD	YFFY	CPPC	JQQJ	ZHHZ	träumen	vertrauen	küssen	genießen	sonnig	gütig	töten	versagen	krank	gemein	sterben	gierig	47pct	acq_USpleas_CSpleas1_noRW	acq23456_noRW	3	58	0	0	300	300	567	50	0	1	1	blank2r.bmp	0	1	+	0	1	blank2r.bmp	252	1	LWWL	306	3	küssen	559	0	0	0	0	0	0	0	0	0	0	0	0	0	0	0	0	0	0	0	0	0	0	0	0	0	0	0	0	0	0	0	0	0	0	0	0	0	0	0
082819	13:05:31	13:13:19	466889	5.0.10.0	5_exp_noRW	120	Rpleas_acq	CS_A	LWWL	DXXD	YFFY	CPPC	JQQJ	ZHHZ	träumen	vertrauen	küssen	genießen	sonnig	gütig	töten	versagen	krank	gemein	sterben	gierig	53pct	acq_USunple_CSpleas2_noRW	acq23456_noRW	3	59	0	0	300	300	661	46	0	1	1	blank2r.bmp	0	1	+	0	1	blank2r.bmp	252	1	DXXD	306	1	gemein	559	0	0	0	0	0	0	0	0	0	0	0	0	0	0	0	0	0	0	0	0	0	0	0	0	0	0	0	0	0	0	0	0	0	0	0	0	0	0	0
082819	13:05:31	13:13:21	468621	5.0.10.0	5_exp_noRW	120	Rpleas_acq	CS_A	LWWL	DXXD	YFFY	CPPC	JQQJ	ZHHZ	träumen	vertrauen	küssen	genießen	sonnig	gütig	töten	versagen	krank	gemein	sterben	gierig	53pct	acq_USpleas_CSunple1_noRW	acq23456_noRW	3	60	0	0	300	300	561	50	0	1	1	blank2r.bmp	0	1	+	0	1	blank2r.bmp	252	1	YFFY	306	3	küssen	559	0	0	0	0	0	0	0	0	0	0	0	0	0	0	0	0	0	0	0	0	0	0	0	0	0	0	0	0	0	0	0	0	0	0	0	0	0	0	0
082819	13:05:31	13:13:22	470541	5.0.10.0	5_exp_noRW	120	Rpleas_acq	CS_A	LWWL	DXXD	YFFY	CPPC	JQQJ	ZHHZ	träumen	vertrauen	küssen	genießen	sonnig	gütig	töten	versagen	krank	gemein	sterben	gierig	47pct	acq_USunple_CSunple1_noRW	acq23456_noRW	3	61	0	0	300	300	747	46	0	1	1	blank2r.bmp	0	1	+	0	1	blank2r.bmp	252	1	YFFY	306	2	versagen	559	0	0	0	0	0	0	0	0	0	0	0	0	0	0	0	0	0	0	0	0	0	0	0	0	0	0	0	0	0	0	0	0	0	0	0	0	0	0	0
082819	13:05:31	13:13:24	472247	5.0.10.0	5_exp_noRW	120	Rpleas_acq	CS_A	LWWL	DXXD	YFFY	CPPC	JQQJ	ZHHZ	träumen	vertrauen	küssen	genießen	sonnig	gütig	töten	versagen	krank	gemein	sterben	gierig	47pct	acq_USunple_CSunple2_noRW	acq23456_noRW	3	62	0	0	300	300	544	46	0	1	1	blank2r.bmp	0	1	+	0	1	blank2r.bmp	252	1	CPPC	306	2	sterben	559	0	0	0	0	0	0	0	0	0	0	0	0	0	0	0	0	0	0	0	0	0	0	0	0	0	0	0	0	0	0	0	0	0	0	0	0	0	0	0
082819	13:05:31	13:13:26	473873	5.0.10.0	5_exp_noRW	120	Rpleas_acq	CS_A	LWWL	DXXD	YFFY	CPPC	JQQJ	ZHHZ	träumen	vertrauen	küssen	genießen	sonnig	gütig	töten	versagen	krank	gemein	sterben	gierig	53pct	acq_USunple_CSunple1_noRW	acq23456_noRW	3	63	0	0	300	300	439	46	0	1	1	blank2r.bmp	0	1	+	0	1	blank2r.bmp	252	1	YFFY	306	1	töten	559	0	0	0	0	0	0	0	0	0	0	0	0	0	0	0	0	0	0	0	0	0	0	0	0	0	0	0	0	0	0	0	0	0	0	0	0	0	0	0
082819	13:05:31	13:13:27	475498	5.0.10.0	5_exp_noRW	120	Rpleas_acq	CS_A	LWWL	DXXD	YFFY	CPPC	JQQJ	ZHHZ	träumen	vertrauen	küssen	genießen	sonnig	gütig	töten	versagen	krank	gemein	sterben	gierig	53pct	acq_USunple_CSunple1_noRW	acq23456_noRW	3	64	0	0	300	300	448	46	0	1	1	blank2r.bmp	0	1	+	0	1	blank2r.bmp	252	1	YFFY	306	3	krank	559	0	0	0	0	0	0	0	0	0	0	0	0	0	0	0	0	0	0	0	0	0	0	0	0	0	0	0	0	0	0	0	0	0	0	0	0	0	0	0
082819	13:05:31	13:13:29	477231	5.0.10.0	5_exp_noRW	120	Rpleas_acq	CS_A	LWWL	DXXD	YFFY	CPPC	JQQJ	ZHHZ	träumen	vertrauen	küssen	genießen	sonnig	gütig	töten	versagen	krank	gemein	sterben	gierig	47pct	acq_USunple_CSunple2_noRW	acq23456_noRW	3	65	0	0	300	300	571	46	0	1	1	blank2r.bmp	0	1	+	0	1	blank2r.bmp	252	1	CPPC	306	2	sterben	559	0	0	0	0	0	0	0	0	0	0	0	0	0	0	0	0	0	0	0	0	0	0	0	0	0	0	0	0	0	0	0	0	0	0	0	0	0	0	0
082819	13:05:31	13:13:31	479004	5.0.10.0	5_exp_noRW	120	Rpleas_acq	CS_A	LWWL	DXXD	YFFY	CPPC	JQQJ	ZHHZ	träumen	vertrauen	küssen	genießen	sonnig	gütig	töten	versagen	krank	gemein	sterben	gierig	47pct	acq_USpleas_CSunple2_noRW	acq23456_noRW	3	66	0	0	300	300	592	50	0	1	1	blank2r.bmp	0	1	+	0	1	blank2r.bmp	252	1	CPPC	306	3	gütig	559	0	0	0	0	0	0	0	0	0	0	0	0	0	0	0	0	0	0	0	0	0	0	0	0	0	0	0	0	0	0	0	0	0	0	0	0	0	0	0
082819	13:05:31	13:13:33	480656	5.0.10.0	5_exp_noRW	120	Rpleas_acq	CS_A	LWWL	DXXD	YFFY	CPPC	JQQJ	ZHHZ	träumen	vertrauen	küssen	genießen	sonnig	gütig	töten	versagen	krank	gemein	sterben	gierig	47pct	acq_USunple_CSpleas1_noRW	acq23456_noRW	3	67	0	0	300	300	466	46	0	1	1	blank2r.bmp	0	1	+	0	1	blank2r.bmp	252	1	LWWL	306	1	töten	559	0	0	0	0	0	0	0	0	0	0	0	0	0	0	0	0	0	0	0	0	0	0	0	0	0	0	0	0	0	0	0	0	0	0	0	0	0	0	0
082819	13:05:31	13:13:34	482362	5.0.10.0	5_exp_noRW	120	Rpleas_acq	CS_A	LWWL	DXXD	YFFY	CPPC	JQQJ	ZHHZ	träumen	vertrauen	küssen	genießen	sonnig	gütig	töten	versagen	krank	gemein	sterben	gierig	53pct	acq_USunple_CSpleas2_noRW	acq23456_noRW	3	68	0	0	300	300	537	46	0	1	1	blank2r.bmp	0	1	+	0	1	blank2r.bmp	252	1	DXXD	306	2	sterben	559	0	0	0	0	0	0	0	0	0	0	0	0	0	0	0	0	0	0	0	0	0	0	0	0	0	0	0	0	0	0	0	0	0	0	0	0	0	0	0
082819	13:05:31	13:13:36	484135	5.0.10.0	5_exp_noRW	120	Rpleas_acq	CS_A	LWWL	DXXD	YFFY	CPPC	JQQJ	ZHHZ	träumen	vertrauen	küssen	genießen	sonnig	gütig	töten	versagen	krank	gemein	sterben	gierig	47pct	acq_USpleas_CSunple1_noRW	acq23456_noRW	3	69	0	0	300	300	600	50	0	1	1	blank2r.bmp	0	1	+	0	1	blank2r.bmp	252	1	YFFY	306	2	vertrauen	559	0	0	0	0	0	0	0	0	0	0	0	0	0	0	0	0	0	0	0	0	0	0	0	0	0	0	0	0	0	0	0	0	0	0	0	0	0	0	0
082819	13:05:31	13:13:38	485814	5.0.10.0	5_exp_noRW	120	Rpleas_acq	CS_A	LWWL	DXXD	YFFY	CPPC	JQQJ	ZHHZ	träumen	vertrauen	küssen	genießen	sonnig	gütig	töten	versagen	krank	gemein	sterben	gierig	47pct	acq_USpleas_CSpleas1_noRW	acq23456_noRW	3	70	0	0	300	300	497	50	0	1	1	blank2r.bmp	0	1	+	0	1	blank2r.bmp	252	1	LWWL	306	2	vertrauen	559	0	0	0	0	0	0	0	0	0	0	0	0	0	0	0	0	0	0	0	0	0	0	0	0	0	0	0	0	0	0	0	0	0	0	0	0	0	0	0
082819	13:05:31	13:13:39	487427	5.0.10.0	5_exp_noRW	120	Rpleas_acq	CS_A	LWWL	DXXD	YFFY	CPPC	JQQJ	ZHHZ	träumen	vertrauen	küssen	genießen	sonnig	gütig	töten	versagen	krank	gemein	sterben	gierig	53pct	acq_USpleas_CSpleas2_noRW	acq23456_noRW	3	71	0	0	300	300	450	50	0	1	1	blank2r.bmp	0	1	+	0	1	blank2r.bmp	252	1	DXXD	306	3	gütig	559	0	0	0	0	0	0	0	0	0	0	0	0	0	0	0	0	0	0	0	0	0	0	0	0	0	0	0	0	0	0	0	0	0	0	0	0	0	0	0
082819	13:05:31	13:13:41	489106	5.0.10.0	5_exp_noRW	120	Rpleas_acq	CS_A	LWWL	DXXD	YFFY	CPPC	JQQJ	ZHHZ	träumen	vertrauen	küssen	genießen	sonnig	gütig	töten	versagen	krank	gemein	sterben	gierig	53pct	acq_USpleas_CSpleas1_noRW	acq23456_noRW	3	72	0	0	300	300	504	50	0	1	1	blank2r.bmp	0	1	+	0	1	blank2r.bmp	252	1	LWWL	306	2	vertrauen	559	0	0	0	0	0	0	0	0	0	0	0	0	0	0	0	0	0	0	0	0	0	0	0	0	0	0	0	0	0	0	0	0	0	0	0	0	0	0	0
082819	13:05:31	13:13:43	490826	5.0.10.0	5_exp_noRW	120	Rpleas_acq	CS_A	LWWL	DXXD	YFFY	CPPC	JQQJ	ZHHZ	träumen	vertrauen	küssen	genießen	sonnig	gütig	töten	versagen	krank	gemein	sterben	gierig	47pct	acq_USpleas_CSpleas2_noRW	acq23456_noRW	3	73	0	0	300	300	533	50	0	1	1	blank2r.bmp	0	1	+	0	1	blank2r.bmp	252	1	DXXD	306	1	genießen	559	0	0	0	0	0	0	0	0	0	0	0	0	0	0	0	0	0	0	0	0	0	0	0	0	0	0	0	0	0	0	0	0	0	0	0	0	0	0	0
082819	13:05:31	13:13:44	492398	5.0.10.0	5_exp_noRW	120	Rpleas_acq	CS_A	LWWL	DXXD	YFFY	CPPC	JQQJ	ZHHZ	träumen	vertrauen	küssen	genießen	sonnig	gütig	töten	versagen	krank	gemein	sterben	gierig	53pct	acq_USpleas_CSpleas2_noRW	acq23456_noRW	3	74	0	0	300	300	407	50	0	1	1	blank2r.bmp	0	1	+	0	1	blank2r.bmp	252	1	DXXD	306	2	sonnig	559	0	0	0	0	0	0	0	0	0	0	0	0	0	0	0	0	0	0	0	0	0	0	0	0	0	0	0	0	0	0	0	0	0	0	0	0	0	0	0
082819	13:05:31	13:13:46	494064	5.0.10.0	5_exp_noRW	120	Rpleas_acq	CS_A	LWWL	DXXD	YFFY	CPPC	JQQJ	ZHHZ	träumen	vertrauen	küssen	genießen	sonnig	gütig	töten	versagen	krank	gemein	sterben	gierig	53pct	acq_USpleas_CSpleas1_noRW	acq23456_noRW	3	75	0	0	300	300	481	50	0	1	1	blank2r.bmp	0	1	+	0	1	blank2r.bmp	252	1	LWWL	306	3	küssen	559	0	0	0	0	0	0	0	0	0	0	0	0	0	0	0	0	0	0	0	0	0	0	0	0	0	0	0	0	0	0	0	0	0	0	0	0	0	0	0
082819	13:05:31	13:13:48	495637	5.0.10.0	5_exp_noRW	120	Rpleas_acq	CS_A	LWWL	DXXD	YFFY	CPPC	JQQJ	ZHHZ	träumen	vertrauen	küssen	genießen	sonnig	gütig	töten	versagen	krank	gemein	sterben	gierig	53pct	acq_USpleas_CSpleas2_noRW	acq23456_noRW	3	76	0	0	300	300	402	50	0	1	1	blank2r.bmp	0	1	+	0	1	blank2r.bmp	252	1	DXXD	306	3	gütig	559	0	0	0	0	0	0	0	0	0	0	0	0	0	0	0	0	0	0	0	0	0	0	0	0	0	0	0	0	0	0	0	0	0	0	0	0	0	0	0
082819	13:05:31	13:13:49	497196	5.0.10.0	5_exp_noRW	120	Rpleas_acq	CS_A	LWWL	DXXD	YFFY	CPPC	JQQJ	ZHHZ	träumen	vertrauen	küssen	genießen	sonnig	gütig	töten	versagen	krank	gemein	sterben	gierig	53pct	acq_USpleas_CSpleas1_noRW	acq23456_noRW	3	77	0	0	300	300	387	50	0	1	1	blank2r.bmp	0	1	+	0	1	blank2r.bmp	252	1	LWWL	306	1	träumen	559	0	0	0	0	0	0	0	0	0	0	0	0	0	0	0	0	0	0	0	0	0	0	0	0	0	0	0	0	0	0	0	0	0	0	0	0	0	0	0
082819	13:05:31	13:13:51	499089	5.0.10.0	5_exp_noRW	120	Rpleas_acq	CS_A	LWWL	DXXD	YFFY	CPPC	JQQJ	ZHHZ	träumen	vertrauen	küssen	genießen	sonnig	gütig	töten	versagen	krank	gemein	sterben	gierig	47pct	acq_USunple_CSunple2_noRW	acq23456_noRW	3	78	0	0	300	300	724	46	0	1	1	blank2r.bmp	0	1	+	0	1	blank2r.bmp	252	1	CPPC	306	3	gierig	559	0	0	0	0	0	0	0	0	0	0	0	0	0	0	0	0	0	0	0	0	0	0	0	0	0	0	0	0	0	0	0	0	0	0	0	0	0	0	0
082819	13:05:31	13:13:53	500808	5.0.10.0	5_exp_noRW	120	Rpleas_acq	CS_A	LWWL	DXXD	YFFY	CPPC	JQQJ	ZHHZ	träumen	vertrauen	küssen	genießen	sonnig	gütig	töten	versagen	krank	gemein	sterben	gierig	47pct	acq_USunple_CSunple2_noRW	acq23456_noRW	3	79	0	0	300	300	556	46	0	1	1	blank2r.bmp	0	1	+	0	1	blank2r.bmp	252	1	CPPC	306	1	gemein	559	0	0	0	0	0	0	0	0	0	0	0	0	0	0	0	0	0	0	0	0	0	0	0	0	0	0	0	0	0	0	0	0	0	0	0	0	0	0	0
082819	13:05:31	13:13:54	502554	5.0.10.0	5_exp_noRW	120	Rpleas_acq	CS_A	LWWL	DXXD	YFFY	CPPC	JQQJ	ZHHZ	träumen	vertrauen	küssen	genießen	sonnig	gütig	töten	versagen	krank	gemein	sterben	gierig	53pct	acq_USunple_CSunple1_noRW	acq23456_noRW	3	80	0	0	300	300	567	46	0	1	1	blank2r.bmp	0	1	+	0	1	blank2r.bmp	252	1	YFFY	306	2	versagen	559	0	0	0	0	0	0	0	0	0	0	0	0	0	0	0	0	0	0	0	0	0	0	0	0	0	0	0	0	0	0	0	0	0	0	0	0	0	0	0
082819	13:05:31	13:14:51	559518	5.0.10.0	5_exp_noRW	120	Rpleas_acq	CS_A	LWWL	DXXD	YFFY	CPPC	JQQJ	ZHHZ	träumen	vertrauen	küssen	genießen	sonnig	gütig	töten	versagen	krank	gemein	sterben	gierig	47pct	acq_USunple_CSunple1_noRW	acq23456_noRW	4	1	0	0	300	300	427	46	0	1	1	blank2r.bmp	0	1	+	0	1	blank2r.bmp	252	1	YFFY	306	3	krank	559	0	0	0	0	0	0	0	0	0	0	0	0	0	0	0	0	0	0	0	0	0	0	0	0	0	0	0	0	0	0	0	0	0	0	0	0	0	0	0
