date	time	script.currenttime	script.elapsedtime	build	script.currentexpt	subject	expressions.LRpleas_acq	expressions.conditionCS_A	expressions.CSpleas_1	expressions.CSpleas_2	expressions.CSunple_1	expressions.CSunple_2	expressions.distractor_1	expressions.distractor_2	expressions.US_pleas1	expressions.US_pleas2	expressions.US_pleas3	expressions.US_pleas4	expressions.US_pleas5	expressions.US_pleas6	expressions.US_unple1	expressions.US_unple2	expressions.US_unple3	expressions.US_unple4	expressions.US_unple5	expressions.US_unple6	counter.positions_noRW	trialcode	blockcode	blocknum	trialnum	windowcenter	inwindow	pretrialpause	posttrialpause	latency	response	expressions.correctedscore	correct	stimulusnumber1	stimulusitem1	stimulusonset1	stimulusnumber2	stimulusitem2	stimulusonset2	stimulusnumber3	stimulusitem3	stimulusonset3	stimulusnumber4	stimulusitem4	stimulusonset4	stimulusnumber5	stimulusitem5	stimulusonset5	stimulusnumber6	stimulusitem6	stimulusonset6	stimulusnumber7	stimulusitem7	stimulusonset7	stimulusnumber8	stimulusitem8	stimulusonset8	stimulusnumber9	stimulusitem9	stimulusonset9	stimulusnumber10	stimulusitem10	stimulusonset10	stimulusnumber11	stimulusitem11	stimulusonset11	stimulusnumber12	stimulusitem12	stimulusonset12	stimulusnumber13	stimulusitem13	stimulusonset13	stimulusnumber14	stimulusitem14	stimulusonset14	stimulusnumber15	stimulusitem15	stimulusonset15	stimulusnumber16	stimulusitem16	stimulusonset16	stimulusnumber17	stimulusitem17	stimulusonset17	stimulusnumber18	stimulusitem18	stimulusonset18
071019	13:08:31	13:10:23	111606	5.0.10.0	5_exp_noRW	42	Rpleas_acq	CS_B	MQQM	VKKV	JXXJ	BZZB	GWWG	YDDY	schön	spielen	treu	fair	ehrlich	retten	schlecht	strafen	tot	faul	eitel	rächen	47pct	acq_USpleas_CSpleas1_noRW	acq1_noRW	1	1	0	0	300	300	852	50	0	1	1	blank2r.bmp	0	1	+	0	1	blank2r.bmp	252	1	MQQM	306	1	schön	559	0	0	0	0	0	0	0	0	0	0	0	0	0	0	0	0	0	0	0	0	0	0	0	0	0	0	0	0	0	0	0	0	0	0	0	0	0	0	0
071019	13:08:31	13:10:25	113498	5.0.10.0	5_exp_noRW	42	Rpleas_acq	CS_B	MQQM	VKKV	JXXJ	BZZB	GWWG	YDDY	schön	spielen	treu	fair	ehrlich	retten	schlecht	strafen	tot	faul	eitel	rächen	47pct	acq_USunple_CSunple2_noRW	acq1_noRW	1	2	0	0	300	300	718	46	0	1	1	blank2r.bmp	0	1	+	0	1	blank2r.bmp	252	1	BZZB	306	3	rächen	559	0	0	0	0	0	0	0	0	0	0	0	0	0	0	0	0	0	0	0	0	0	0	0	0	0	0	0	0	0	0	0	0	0	0	0	0	0	0	0
071019	13:08:31	13:10:26	115178	5.0.10.0	5_exp_noRW	42	Rpleas_acq	CS_B	MQQM	VKKV	JXXJ	BZZB	GWWG	YDDY	schön	spielen	treu	fair	ehrlich	retten	schlecht	strafen	tot	faul	eitel	rächen	53pct	acq_USunple_CSpleas2_noRW	acq1_noRW	1	3	0	0	300	300	515	46	0	1	1	blank2r.bmp	0	1	+	0	1	blank2r.bmp	252	1	VKKV	306	3	rächen	559	0	0	0	0	0	0	0	0	0	0	0	0	0	0	0	0	0	0	0	0	0	0	0	0	0	0	0	0	0	0	0	0	0	0	0	0	0	0	0
071019	13:08:31	13:10:28	116817	5.0.10.0	5_exp_noRW	42	Rpleas_acq	CS_B	MQQM	VKKV	JXXJ	BZZB	GWWG	YDDY	schön	spielen	treu	fair	ehrlich	retten	schlecht	strafen	tot	faul	eitel	rächen	53pct	acq_USpleas_CSpleas2_noRW	acq1_noRW	1	4	0	0	300	300	454	50	0	1	1	blank2r.bmp	0	1	+	0	1	blank2r.bmp	252	1	VKKV	306	1	fair	559	0	0	0	0	0	0	0	0	0	0	0	0	0	0	0	0	0	0	0	0	0	0	0	0	0	0	0	0	0	0	0	0	0	0	0	0	0	0	0
071019	13:08:31	13:10:30	118416	5.0.10.0	5_exp_noRW	42	Rpleas_acq	CS_B	MQQM	VKKV	JXXJ	BZZB	GWWG	YDDY	schön	spielen	treu	fair	ehrlich	retten	schlecht	strafen	tot	faul	eitel	rächen	47pct	acq_USpleas_CSpleas1_noRW	acq1_noRW	1	5	0	0	300	300	426	50	0	1	1	blank2r.bmp	0	1	+	0	1	blank2r.bmp	252	1	MQQM	306	2	spielen	559	0	0	0	0	0	0	0	0	0	0	0	0	0	0	0	0	0	0	0	0	0	0	0	0	0	0	0	0	0	0	0	0	0	0	0	0	0	0	0
071019	13:08:31	13:10:32	120296	5.0.10.0	5_exp_noRW	42	Rpleas_acq	CS_B	MQQM	VKKV	JXXJ	BZZB	GWWG	YDDY	schön	spielen	treu	fair	ehrlich	retten	schlecht	strafen	tot	faul	eitel	rächen	53pct	acq_USunple_CSunple2_noRW	acq1_noRW	1	6	0	0	300	300	504	50	0	0	1	blank2r.bmp	0	1	+	0	1	blank2r.bmp	252	1	BZZB	306	2	eitel	559	1	FEHLER	1092	0	0	0	0	0	0	0	0	0	0	0	0	0	0	0	0	0	0	0	0	0	0	0	0	0	0	0	0	0	0	0	0	0	0	0	0
071019	13:08:31	13:10:33	122028	5.0.10.0	5_exp_noRW	42	Rpleas_acq	CS_B	MQQM	VKKV	JXXJ	BZZB	GWWG	YDDY	schön	spielen	treu	fair	ehrlich	retten	schlecht	strafen	tot	faul	eitel	rächen	47pct	acq_USunple_CSunple2_noRW	acq1_noRW	1	7	0	0	300	300	770	46	0	1	1	blank2r.bmp	0	1	+	0	1	blank2r.bmp	252	1	BZZB	306	1	faul	559	0	0	0	0	0	0	0	0	0	0	0	0	0	0	0	0	0	0	0	0	0	0	0	0	0	0	0	0	0	0	0	0	0	0	0	0	0	0	0
071019	13:08:31	13:10:35	124001	5.0.10.0	5_exp_noRW	42	Rpleas_acq	CS_B	MQQM	VKKV	JXXJ	BZZB	GWWG	YDDY	schön	spielen	treu	fair	ehrlich	retten	schlecht	strafen	tot	faul	eitel	rächen	53pct	acq_USpleas_CSpleas2_noRW	acq1_noRW	1	8	0	0	300	300	791	50	0	1	1	blank2r.bmp	0	1	+	0	1	blank2r.bmp	252	1	VKKV	306	3	retten	559	0	0	0	0	0	0	0	0	0	0	0	0	0	0	0	0	0	0	0	0	0	0	0	0	0	0	0	0	0	0	0	0	0	0	0	0	0	0	0
071019	13:08:31	13:10:37	125640	5.0.10.0	5_exp_noRW	42	Rpleas_acq	CS_B	MQQM	VKKV	JXXJ	BZZB	GWWG	YDDY	schön	spielen	treu	fair	ehrlich	retten	schlecht	strafen	tot	faul	eitel	rächen	47pct	acq_USpleas_CSpleas2_noRW	acq1_noRW	1	9	0	0	300	300	460	50	0	1	1	blank2r.bmp	0	1	+	0	1	blank2r.bmp	252	1	VKKV	306	2	ehrlich	559	0	0	0	0	0	0	0	0	0	0	0	0	0	0	0	0	0	0	0	0	0	0	0	0	0	0	0	0	0	0	0	0	0	0	0	0	0	0	0
071019	13:08:31	13:10:39	127359	5.0.10.0	5_exp_noRW	42	Rpleas_acq	CS_B	MQQM	VKKV	JXXJ	BZZB	GWWG	YDDY	schön	spielen	treu	fair	ehrlich	retten	schlecht	strafen	tot	faul	eitel	rächen	47pct	acq_USunple_CSunple1_noRW	acq1_noRW	1	10	0	0	300	300	535	46	0	1	1	blank2r.bmp	0	1	+	0	1	blank2r.bmp	252	1	JXXJ	306	2	strafen	559	0	0	0	0	0	0	0	0	0	0	0	0	0	0	0	0	0	0	0	0	0	0	0	0	0	0	0	0	0	0	0	0	0	0	0	0	0	0	0
071019	13:08:31	13:10:41	129305	5.0.10.0	5_exp_noRW	42	Rpleas_acq	CS_B	MQQM	VKKV	JXXJ	BZZB	GWWG	YDDY	schön	spielen	treu	fair	ehrlich	retten	schlecht	strafen	tot	faul	eitel	rächen	47pct	acq_USunple_CSunple2_noRW	acq1_noRW	1	11	0	0	300	300	571	50	0	0	1	blank2r.bmp	0	1	+	0	1	blank2r.bmp	252	1	BZZB	306	2	eitel	559	1	FEHLER	1159	0	0	0	0	0	0	0	0	0	0	0	0	0	0	0	0	0	0	0	0	0	0	0	0	0	0	0	0	0	0	0	0	0	0	0	0
071019	13:08:31	13:10:42	130824	5.0.10.0	5_exp_noRW	42	Rpleas_acq	CS_B	MQQM	VKKV	JXXJ	BZZB	GWWG	YDDY	schön	spielen	treu	fair	ehrlich	retten	schlecht	strafen	tot	faul	eitel	rächen	47pct	acq_USpleas_CSunple1_noRW	acq1_noRW	1	12	0	0	300	300	541	50	0	1	1	blank2r.bmp	0	1	+	0	1	blank2r.bmp	252	1	JXXJ	306	1	schön	559	0	0	0	0	0	0	0	0	0	0	0	0	0	0	0	0	0	0	0	0	0	0	0	0	0	0	0	0	0	0	0	0	0	0	0	0	0	0	0
071019	13:08:31	13:10:44	132424	5.0.10.0	5_exp_noRW	42	Rpleas_acq	CS_B	MQQM	VKKV	JXXJ	BZZB	GWWG	YDDY	schön	spielen	treu	fair	ehrlich	retten	schlecht	strafen	tot	faul	eitel	rächen	47pct	acq_USunple_CSunple1_noRW	acq1_noRW	1	13	0	0	300	300	438	46	0	1	1	blank2r.bmp	0	1	+	0	1	blank2r.bmp	252	1	JXXJ	306	1	schlecht	559	0	0	0	0	0	0	0	0	0	0	0	0	0	0	0	0	0	0	0	0	0	0	0	0	0	0	0	0	0	0	0	0	0	0	0	0	0	0	0
071019	13:08:31	13:10:45	134090	5.0.10.0	5_exp_noRW	42	Rpleas_acq	CS_B	MQQM	VKKV	JXXJ	BZZB	GWWG	YDDY	schön	spielen	treu	fair	ehrlich	retten	schlecht	strafen	tot	faul	eitel	rächen	53pct	acq_USunple_CSunple1_noRW	acq1_noRW	1	14	0	0	300	300	487	46	0	1	1	blank2r.bmp	0	1	+	0	1	blank2r.bmp	252	1	JXXJ	306	3	tot	559	0	0	0	0	0	0	0	0	0	0	0	0	0	0	0	0	0	0	0	0	0	0	0	0	0	0	0	0	0	0	0	0	0	0	0	0	0	0	0
071019	13:08:31	13:10:47	135742	5.0.10.0	5_exp_noRW	42	Rpleas_acq	CS_B	MQQM	VKKV	JXXJ	BZZB	GWWG	YDDY	schön	spielen	treu	fair	ehrlich	retten	schlecht	strafen	tot	faul	eitel	rächen	47pct	acq_USunple_CSpleas1_noRW	acq1_noRW	1	15	0	0	300	300	465	46	0	1	1	blank2r.bmp	0	1	+	0	1	blank2r.bmp	252	1	MQQM	306	2	strafen	559	0	0	0	0	0	0	0	0	0	0	0	0	0	0	0	0	0	0	0	0	0	0	0	0	0	0	0	0	0	0	0	0	0	0	0	0	0	0	0
071019	13:08:31	13:10:49	137315	5.0.10.0	5_exp_noRW	42	Rpleas_acq	CS_B	MQQM	VKKV	JXXJ	BZZB	GWWG	YDDY	schön	spielen	treu	fair	ehrlich	retten	schlecht	strafen	tot	faul	eitel	rächen	53pct	acq_USunple_CSunple1_noRW	acq1_noRW	1	16	0	0	300	300	400	46	0	1	1	blank2r.bmp	0	1	+	0	1	blank2r.bmp	252	1	JXXJ	306	3	tot	559	0	0	0	0	0	0	0	0	0	0	0	0	0	0	0	0	0	0	0	0	0	0	0	0	0	0	0	0	0	0	0	0	0	0	0	0	0	0	0
071019	13:08:31	13:10:50	139141	5.0.10.0	5_exp_noRW	42	Rpleas_acq	CS_B	MQQM	VKKV	JXXJ	BZZB	GWWG	YDDY	schön	spielen	treu	fair	ehrlich	retten	schlecht	strafen	tot	faul	eitel	rächen	53pct	acq_USpleas_CSpleas2_noRW	acq1_noRW	1	17	0	0	300	300	447	46	0	0	1	blank2r.bmp	0	1	+	0	1	blank2r.bmp	252	1	VKKV	306	2	ehrlich	559	1	FEHLER	1039	0	0	0	0	0	0	0	0	0	0	0	0	0	0	0	0	0	0	0	0	0	0	0	0	0	0	0	0	0	0	0	0	0	0	0	0
071019	13:08:31	13:10:52	140767	5.0.10.0	5_exp_noRW	42	Rpleas_acq	CS_B	MQQM	VKKV	JXXJ	BZZB	GWWG	YDDY	schön	spielen	treu	fair	ehrlich	retten	schlecht	strafen	tot	faul	eitel	rächen	47pct	acq_USpleas_CSpleas1_noRW	acq1_noRW	1	18	0	0	300	300	440	46	0	0	1	blank2r.bmp	0	1	+	0	1	blank2r.bmp	252	1	MQQM	306	3	treu	559	1	FEHLER	1039	0	0	0	0	0	0	0	0	0	0	0	0	0	0	0	0	0	0	0	0	0	0	0	0	0	0	0	0	0	0	0	0	0	0	0	0
071019	13:08:31	13:10:54	142353	5.0.10.0	5_exp_noRW	42	Rpleas_acq	CS_B	MQQM	VKKV	JXXJ	BZZB	GWWG	YDDY	schön	spielen	treu	fair	ehrlich	retten	schlecht	strafen	tot	faul	eitel	rächen	53pct	acq_USpleas_CSpleas1_noRW	acq1_noRW	1	19	0	0	300	300	624	50	0	1	1	blank2r.bmp	0	1	+	0	1	blank2r.bmp	252	1	MQQM	306	2	spielen	559	0	0	0	0	0	0	0	0	0	0	0	0	0	0	0	0	0	0	0	0	0	0	0	0	0	0	0	0	0	0	0	0	0	0	0	0	0	0	0
071019	13:08:31	13:10:55	143966	5.0.10.0	5_exp_noRW	42	Rpleas_acq	CS_B	MQQM	VKKV	JXXJ	BZZB	GWWG	YDDY	schön	spielen	treu	fair	ehrlich	retten	schlecht	strafen	tot	faul	eitel	rächen	47pct	acq_USpleas_CSunple2_noRW	acq1_noRW	1	20	0	0	300	300	438	50	0	1	1	blank2r.bmp	0	1	+	0	1	blank2r.bmp	252	1	BZZB	306	2	ehrlich	559	0	0	0	0	0	0	0	0	0	0	0	0	0	0	0	0	0	0	0	0	0	0	0	0	0	0	0	0	0	0	0	0	0	0	0	0	0	0	0
071019	13:08:31	13:10:57	145658	5.0.10.0	5_exp_noRW	42	Rpleas_acq	CS_B	MQQM	VKKV	JXXJ	BZZB	GWWG	YDDY	schön	spielen	treu	fair	ehrlich	retten	schlecht	strafen	tot	faul	eitel	rächen	47pct	acq_USpleas_CSpleas1_noRW	acq1_noRW	1	21	0	0	300	300	518	50	0	1	1	blank2r.bmp	0	1	+	0	1	blank2r.bmp	252	1	MQQM	306	1	schön	559	0	0	0	0	0	0	0	0	0	0	0	0	0	0	0	0	0	0	0	0	0	0	0	0	0	0	0	0	0	0	0	0	0	0	0	0	0	0	0
071019	13:08:31	13:10:59	147311	5.0.10.0	5_exp_noRW	42	Rpleas_acq	CS_B	MQQM	VKKV	JXXJ	BZZB	GWWG	YDDY	schön	spielen	treu	fair	ehrlich	retten	schlecht	strafen	tot	faul	eitel	rächen	47pct	acq_USunple_CSpleas2_noRW	acq1_noRW	1	22	0	0	300	300	454	46	0	1	1	blank2r.bmp	0	1	+	0	1	blank2r.bmp	252	1	VKKV	306	1	faul	559	0	0	0	0	0	0	0	0	0	0	0	0	0	0	0	0	0	0	0	0	0	0	0	0	0	0	0	0	0	0	0	0	0	0	0	0	0	0	0
071019	13:08:31	13:11:00	148950	5.0.10.0	5_exp_noRW	42	Rpleas_acq	CS_B	MQQM	VKKV	JXXJ	BZZB	GWWG	YDDY	schön	spielen	treu	fair	ehrlich	retten	schlecht	strafen	tot	faul	eitel	rächen	47pct	acq_USpleas_CSpleas2_noRW	acq1_noRW	1	23	0	0	300	300	467	50	0	1	1	blank2r.bmp	0	1	+	0	1	blank2r.bmp	252	1	VKKV	306	1	fair	559	0	0	0	0	0	0	0	0	0	0	0	0	0	0	0	0	0	0	0	0	0	0	0	0	0	0	0	0	0	0	0	0	0	0	0	0	0	0	0
071019	13:08:31	13:11:02	150443	5.0.10.0	5_exp_noRW	42	Rpleas_acq	CS_B	MQQM	VKKV	JXXJ	BZZB	GWWG	YDDY	schön	spielen	treu	fair	ehrlich	retten	schlecht	strafen	tot	faul	eitel	rächen	47pct	acq_USpleas_CSunple2_noRW	acq1_noRW	1	24	0	0	300	300	319	50	0	1	1	blank2r.bmp	0	1	+	0	1	blank2r.bmp	252	1	BZZB	306	1	fair	559	0	0	0	0	0	0	0	0	0	0	0	0	0	0	0	0	0	0	0	0	0	0	0	0	0	0	0	0	0	0	0	0	0	0	0	0	0	0	0
071019	13:08:31	13:11:03	152042	5.0.10.0	5_exp_noRW	42	Rpleas_acq	CS_B	MQQM	VKKV	JXXJ	BZZB	GWWG	YDDY	schön	spielen	treu	fair	ehrlich	retten	schlecht	strafen	tot	faul	eitel	rächen	53pct	acq_USunple_CSpleas1_noRW	acq1_noRW	1	25	0	0	300	300	425	46	0	1	1	blank2r.bmp	0	1	+	0	1	blank2r.bmp	252	1	MQQM	306	1	schlecht	559	0	0	0	0	0	0	0	0	0	0	0	0	0	0	0	0	0	0	0	0	0	0	0	0	0	0	0	0	0	0	0	0	0	0	0	0	0	0	0
071019	13:08:31	13:11:05	153815	5.0.10.0	5_exp_noRW	42	Rpleas_acq	CS_B	MQQM	VKKV	JXXJ	BZZB	GWWG	YDDY	schön	spielen	treu	fair	ehrlich	retten	schlecht	strafen	tot	faul	eitel	rächen	47pct	acq_USpleas_CSpleas1_noRW	acq1_noRW	1	26	0	0	300	300	600	50	0	1	1	blank2r.bmp	0	1	+	0	1	blank2r.bmp	252	1	MQQM	306	3	treu	559	0	0	0	0	0	0	0	0	0	0	0	0	0	0	0	0	0	0	0	0	0	0	0	0	0	0	0	0	0	0	0	0	0	0	0	0	0	0	0
071019	13:08:31	13:11:07	155494	5.0.10.0	5_exp_noRW	42	Rpleas_acq	CS_B	MQQM	VKKV	JXXJ	BZZB	GWWG	YDDY	schön	spielen	treu	fair	ehrlich	retten	schlecht	strafen	tot	faul	eitel	rächen	53pct	acq_USpleas_CSpleas2_noRW	acq1_noRW	1	27	0	0	300	300	502	50	0	1	1	blank2r.bmp	0	1	+	0	1	blank2r.bmp	252	1	VKKV	306	3	retten	559	0	0	0	0	0	0	0	0	0	0	0	0	0	0	0	0	0	0	0	0	0	0	0	0	0	0	0	0	0	0	0	0	0	0	0	0	0	0	0
071019	13:08:31	13:11:08	157080	5.0.10.0	5_exp_noRW	42	Rpleas_acq	CS_B	MQQM	VKKV	JXXJ	BZZB	GWWG	YDDY	schön	spielen	treu	fair	ehrlich	retten	schlecht	strafen	tot	faul	eitel	rächen	47pct	acq_USpleas_CSpleas1_noRW	acq1_noRW	1	28	0	0	300	300	405	50	0	1	1	blank2r.bmp	0	1	+	0	1	blank2r.bmp	252	1	MQQM	306	2	spielen	559	0	0	0	0	0	0	0	0	0	0	0	0	0	0	0	0	0	0	0	0	0	0	0	0	0	0	0	0	0	0	0	0	0	0	0	0	0	0	0
071019	13:08:31	13:11:10	158613	5.0.10.0	5_exp_noRW	42	Rpleas_acq	CS_B	MQQM	VKKV	JXXJ	BZZB	GWWG	YDDY	schön	spielen	treu	fair	ehrlich	retten	schlecht	strafen	tot	faul	eitel	rächen	47pct	acq_USunple_CSunple2_noRW	acq1_noRW	1	29	0	0	300	300	360	46	0	1	1	blank2r.bmp	0	1	+	0	1	blank2r.bmp	252	1	BZZB	306	3	rächen	559	0	0	0	0	0	0	0	0	0	0	0	0	0	0	0	0	0	0	0	0	0	0	0	0	0	0	0	0	0	0	0	0	0	0	0	0	0	0	0
071019	13:08:31	13:11:11	160159	5.0.10.0	5_exp_noRW	42	Rpleas_acq	CS_B	MQQM	VKKV	JXXJ	BZZB	GWWG	YDDY	schön	spielen	treu	fair	ehrlich	retten	schlecht	strafen	tot	faul	eitel	rächen	53pct	acq_USpleas_CSpleas2_noRW	acq1_noRW	1	30	0	0	300	300	378	50	0	1	1	blank2r.bmp	0	1	+	0	1	blank2r.bmp	252	1	VKKV	306	3	retten	559	0	0	0	0	0	0	0	0	0	0	0	0	0	0	0	0	0	0	0	0	0	0	0	0	0	0	0	0	0	0	0	0	0	0	0	0	0	0	0
071019	13:08:31	13:11:13	161878	5.0.10.0	5_exp_noRW	42	Rpleas_acq	CS_B	MQQM	VKKV	JXXJ	BZZB	GWWG	YDDY	schön	spielen	treu	fair	ehrlich	retten	schlecht	strafen	tot	faul	eitel	rächen	53pct	acq_USpleas_CSunple1_noRW	acq1_noRW	1	31	0	0	300	300	535	50	0	1	1	blank2r.bmp	0	1	+	0	1	blank2r.bmp	252	1	JXXJ	306	2	spielen	559	0	0	0	0	0	0	0	0	0	0	0	0	0	0	0	0	0	0	0	0	0	0	0	0	0	0	0	0	0	0	0	0	0	0	0	0	0	0	0
071019	13:08:31	13:11:15	163344	5.0.10.0	5_exp_noRW	42	Rpleas_acq	CS_B	MQQM	VKKV	JXXJ	BZZB	GWWG	YDDY	schön	spielen	treu	fair	ehrlich	retten	schlecht	strafen	tot	faul	eitel	rächen	53pct	acq_USunple_CSunple2_noRW	acq1_noRW	1	32	0	0	300	300	281	46	0	1	1	blank2r.bmp	0	1	+	0	1	blank2r.bmp	252	1	BZZB	306	1	faul	559	0	0	0	0	0	0	0	0	0	0	0	0	0	0	0	0	0	0	0	0	0	0	0	0	0	0	0	0	0	0	0	0	0	0	0	0	0	0	0
071019	13:08:31	13:11:16	165024	5.0.10.0	5_exp_noRW	42	Rpleas_acq	CS_B	MQQM	VKKV	JXXJ	BZZB	GWWG	YDDY	schön	spielen	treu	fair	ehrlich	retten	schlecht	strafen	tot	faul	eitel	rächen	47pct	acq_USpleas_CSpleas2_noRW	acq1_noRW	1	33	0	0	300	300	502	50	0	1	1	blank2r.bmp	0	1	+	0	1	blank2r.bmp	252	1	VKKV	306	2	ehrlich	559	0	0	0	0	0	0	0	0	0	0	0	0	0	0	0	0	0	0	0	0	0	0	0	0	0	0	0	0	0	0	0	0	0	0	0	0	0	0	0
071019	13:08:31	13:11:18	166663	5.0.10.0	5_exp_noRW	42	Rpleas_acq	CS_B	MQQM	VKKV	JXXJ	BZZB	GWWG	YDDY	schön	spielen	treu	fair	ehrlich	retten	schlecht	strafen	tot	faul	eitel	rächen	47pct	acq_USunple_CSunple1_noRW	acq1_noRW	1	34	0	0	300	300	464	46	0	1	1	blank2r.bmp	0	1	+	0	1	blank2r.bmp	252	1	JXXJ	306	1	schlecht	559	0	0	0	0	0	0	0	0	0	0	0	0	0	0	0	0	0	0	0	0	0	0	0	0	0	0	0	0	0	0	0	0	0	0	0	0	0	0	0
071019	13:08:31	13:11:20	168262	5.0.10.0	5_exp_noRW	42	Rpleas_acq	CS_B	MQQM	VKKV	JXXJ	BZZB	GWWG	YDDY	schön	spielen	treu	fair	ehrlich	retten	schlecht	strafen	tot	faul	eitel	rächen	47pct	acq_USpleas_CSpleas1_noRW	acq1_noRW	1	35	0	0	300	300	424	50	0	1	1	blank2r.bmp	0	1	+	0	1	blank2r.bmp	252	1	MQQM	306	3	treu	559	0	0	0	0	0	0	0	0	0	0	0	0	0	0	0	0	0	0	0	0	0	0	0	0	0	0	0	0	0	0	0	0	0	0	0	0	0	0	0
071019	13:08:31	13:11:21	169968	5.0.10.0	5_exp_noRW	42	Rpleas_acq	CS_B	MQQM	VKKV	JXXJ	BZZB	GWWG	YDDY	schön	spielen	treu	fair	ehrlich	retten	schlecht	strafen	tot	faul	eitel	rächen	53pct	acq_USunple_CSunple1_noRW	acq1_noRW	1	36	0	0	300	300	541	46	0	1	1	blank2r.bmp	0	1	+	0	1	blank2r.bmp	252	1	JXXJ	306	2	strafen	559	0	0	0	0	0	0	0	0	0	0	0	0	0	0	0	0	0	0	0	0	0	0	0	0	0	0	0	0	0	0	0	0	0	0	0	0	0	0	0
071019	13:08:31	13:11:24	172940	5.0.10.0	5_exp_noRW	42	Rpleas_acq	CS_B	MQQM	VKKV	JXXJ	BZZB	GWWG	YDDY	schön	spielen	treu	fair	ehrlich	retten	schlecht	strafen	tot	faul	eitel	rächen	53pct	acq_USunple_CSunple2_noRW	acq1_noRW	1	37	0	0	300	300	1793	46	0	1	1	blank2r.bmp	0	1	+	0	1	blank2r.bmp	252	1	BZZB	306	3	rächen	559	0	0	0	0	0	0	0	0	0	0	0	0	0	0	0	0	0	0	0	0	0	0	0	0	0	0	0	0	0	0	0	0	0	0	0	0	0	0	0
071019	13:08:31	13:11:26	174580	5.0.10.0	5_exp_noRW	42	Rpleas_acq	CS_B	MQQM	VKKV	JXXJ	BZZB	GWWG	YDDY	schön	spielen	treu	fair	ehrlich	retten	schlecht	strafen	tot	faul	eitel	rächen	53pct	acq_USunple_CSunple2_noRW	acq1_noRW	1	38	0	0	300	300	461	46	0	1	1	blank2r.bmp	0	1	+	0	1	blank2r.bmp	252	1	BZZB	306	1	faul	559	0	0	0	0	0	0	0	0	0	0	0	0	0	0	0	0	0	0	0	0	0	0	0	0	0	0	0	0	0	0	0	0	0	0	0	0	0	0	0
071019	13:08:31	13:11:28	176312	5.0.10.0	5_exp_noRW	42	Rpleas_acq	CS_B	MQQM	VKKV	JXXJ	BZZB	GWWG	YDDY	schön	spielen	treu	fair	ehrlich	retten	schlecht	strafen	tot	faul	eitel	rächen	53pct	acq_USunple_CSunple1_noRW	acq1_noRW	1	39	0	0	300	300	559	46	0	1	1	blank2r.bmp	0	1	+	0	1	blank2r.bmp	252	1	JXXJ	306	3	tot	559	0	0	0	0	0	0	0	0	0	0	0	0	0	0	0	0	0	0	0	0	0	0	0	0	0	0	0	0	0	0	0	0	0	0	0	0	0	0	0
071019	13:08:31	13:11:29	178058	5.0.10.0	5_exp_noRW	42	Rpleas_acq	CS_B	MQQM	VKKV	JXXJ	BZZB	GWWG	YDDY	schön	spielen	treu	fair	ehrlich	retten	schlecht	strafen	tot	faul	eitel	rächen	53pct	acq_USunple_CSunple1_noRW	acq1_noRW	1	40	0	0	300	300	582	46	0	1	1	blank2r.bmp	0	1	+	0	1	blank2r.bmp	252	1	JXXJ	306	2	strafen	559	0	0	0	0	0	0	0	0	0	0	0	0	0	0	0	0	0	0	0	0	0	0	0	0	0	0	0	0	0	0	0	0	0	0	0	0	0	0	0
071019	13:08:31	13:11:31	179671	5.0.10.0	5_exp_noRW	42	Rpleas_acq	CS_B	MQQM	VKKV	JXXJ	BZZB	GWWG	YDDY	schön	spielen	treu	fair	ehrlich	retten	schlecht	strafen	tot	faul	eitel	rächen	47pct	acq_USpleas_CSpleas2_noRW	acq1_noRW	1	41	0	0	300	300	442	50	0	1	1	blank2r.bmp	0	1	+	0	1	blank2r.bmp	252	1	VKKV	306	1	fair	559	0	0	0	0	0	0	0	0	0	0	0	0	0	0	0	0	0	0	0	0	0	0	0	0	0	0	0	0	0	0	0	0	0	0	0	0	0	0	0
071019	13:08:31	13:11:33	181390	5.0.10.0	5_exp_noRW	42	Rpleas_acq	CS_B	MQQM	VKKV	JXXJ	BZZB	GWWG	YDDY	schön	spielen	treu	fair	ehrlich	retten	schlecht	strafen	tot	faul	eitel	rächen	47pct	acq_USpleas_CSpleas1_noRW	acq1_noRW	1	42	0	0	300	300	550	50	0	1	1	blank2r.bmp	0	1	+	0	1	blank2r.bmp	252	1	MQQM	306	1	schön	559	0	0	0	0	0	0	0	0	0	0	0	0	0	0	0	0	0	0	0	0	0	0	0	0	0	0	0	0	0	0	0	0	0	0	0	0	0	0	0
071019	13:08:31	13:11:35	183269	5.0.10.0	5_exp_noRW	42	Rpleas_acq	CS_B	MQQM	VKKV	JXXJ	BZZB	GWWG	YDDY	schön	spielen	treu	fair	ehrlich	retten	schlecht	strafen	tot	faul	eitel	rächen	53pct	acq_USunple_CSunple2_noRW	acq1_noRW	1	43	0	0	300	300	700	46	0	1	1	blank2r.bmp	0	1	+	0	1	blank2r.bmp	252	1	BZZB	306	2	eitel	559	0	0	0	0	0	0	0	0	0	0	0	0	0	0	0	0	0	0	0	0	0	0	0	0	0	0	0	0	0	0	0	0	0	0	0	0	0	0	0
071019	13:08:31	13:11:36	184962	5.0.10.0	5_exp_noRW	42	Rpleas_acq	CS_B	MQQM	VKKV	JXXJ	BZZB	GWWG	YDDY	schön	spielen	treu	fair	ehrlich	retten	schlecht	strafen	tot	faul	eitel	rächen	47pct	acq_USpleas_CSunple2_noRW	acq1_noRW	1	44	0	0	300	300	531	50	0	1	1	blank2r.bmp	0	1	+	0	1	blank2r.bmp	252	1	BZZB	306	3	retten	559	0	0	0	0	0	0	0	0	0	0	0	0	0	0	0	0	0	0	0	0	0	0	0	0	0	0	0	0	0	0	0	0	0	0	0	0	0	0	0
071019	13:08:31	13:11:38	186761	5.0.10.0	5_exp_noRW	42	Rpleas_acq	CS_B	MQQM	VKKV	JXXJ	BZZB	GWWG	YDDY	schön	spielen	treu	fair	ehrlich	retten	schlecht	strafen	tot	faul	eitel	rächen	53pct	acq_USpleas_CSpleas1_noRW	acq1_noRW	1	45	0	0	300	300	410	46	0	0	1	blank2r.bmp	0	1	+	0	1	blank2r.bmp	252	1	MQQM	306	1	schön	559	1	FEHLER	999	0	0	0	0	0	0	0	0	0	0	0	0	0	0	0	0	0	0	0	0	0	0	0	0	0	0	0	0	0	0	0	0	0	0	0	0
071019	13:08:31	13:11:40	188267	5.0.10.0	5_exp_noRW	42	Rpleas_acq	CS_B	MQQM	VKKV	JXXJ	BZZB	GWWG	YDDY	schön	spielen	treu	fair	ehrlich	retten	schlecht	strafen	tot	faul	eitel	rächen	47pct	acq_USpleas_CSunple1_noRW	acq1_noRW	1	46	0	0	300	300	540	50	0	1	1	blank2r.bmp	0	1	+	0	1	blank2r.bmp	252	1	JXXJ	306	3	treu	559	0	0	0	0	0	0	0	0	0	0	0	0	0	0	0	0	0	0	0	0	0	0	0	0	0	0	0	0	0	0	0	0	0	0	0	0	0	0	0
071019	13:08:31	13:11:41	189960	5.0.10.0	5_exp_noRW	42	Rpleas_acq	CS_B	MQQM	VKKV	JXXJ	BZZB	GWWG	YDDY	schön	spielen	treu	fair	ehrlich	retten	schlecht	strafen	tot	faul	eitel	rächen	47pct	acq_USunple_CSpleas1_noRW	acq1_noRW	1	47	0	0	300	300	514	46	0	1	1	blank2r.bmp	0	1	+	0	1	blank2r.bmp	252	1	MQQM	306	3	tot	559	0	0	0	0	0	0	0	0	0	0	0	0	0	0	0	0	0	0	0	0	0	0	0	0	0	0	0	0	0	0	0	0	0	0	0	0	0	0	0
071019	13:08:31	13:11:43	191692	5.0.10.0	5_exp_noRW	42	Rpleas_acq	CS_B	MQQM	VKKV	JXXJ	BZZB	GWWG	YDDY	schön	spielen	treu	fair	ehrlich	retten	schlecht	strafen	tot	faul	eitel	rächen	47pct	acq_USunple_CSunple1_noRW	acq1_noRW	1	48	0	0	300	300	550	46	0	1	1	blank2r.bmp	0	1	+	0	1	blank2r.bmp	252	1	JXXJ	306	1	schlecht	559	0	0	0	0	0	0	0	0	0	0	0	0	0	0	0	0	0	0	0	0	0	0	0	0	0	0	0	0	0	0	0	0	0	0	0	0	0	0	0
071019	13:08:31	13:11:45	193452	5.0.10.0	5_exp_noRW	42	Rpleas_acq	CS_B	MQQM	VKKV	JXXJ	BZZB	GWWG	YDDY	schön	spielen	treu	fair	ehrlich	retten	schlecht	strafen	tot	faul	eitel	rächen	53pct	acq_USunple_CSunple1_noRW	acq1_noRW	1	49	0	0	300	300	596	46	0	1	1	blank2r.bmp	0	1	+	0	1	blank2r.bmp	252	1	JXXJ	306	3	tot	559	0	0	0	0	0	0	0	0	0	0	0	0	0	0	0	0	0	0	0	0	0	0	0	0	0	0	0	0	0	0	0	0	0	0	0	0	0	0	0
071019	13:08:31	13:11:47	195304	5.0.10.0	5_exp_noRW	42	Rpleas_acq	CS_B	MQQM	VKKV	JXXJ	BZZB	GWWG	YDDY	schön	spielen	treu	fair	ehrlich	retten	schlecht	strafen	tot	faul	eitel	rächen	53pct	acq_USunple_CSunple2_noRW	acq1_noRW	1	50	0	0	300	300	676	46	0	1	1	blank2r.bmp	0	1	+	0	1	blank2r.bmp	252	1	BZZB	306	2	eitel	559	0	0	0	0	0	0	0	0	0	0	0	0	0	0	0	0	0	0	0	0	0	0	0	0	0	0	0	0	0	0	0	0	0	0	0	0	0	0	0
071019	13:08:31	13:11:48	197103	5.0.10.0	5_exp_noRW	42	Rpleas_acq	CS_B	MQQM	VKKV	JXXJ	BZZB	GWWG	YDDY	schön	spielen	treu	fair	ehrlich	retten	schlecht	strafen	tot	faul	eitel	rächen	53pct	acq_USunple_CSunple2_noRW	acq1_noRW	1	51	0	0	300	300	405	50	0	0	1	blank2r.bmp	0	1	+	0	1	blank2r.bmp	252	1	BZZB	306	1	faul	559	1	FEHLER	999	0	0	0	0	0	0	0	0	0	0	0	0	0	0	0	0	0	0	0	0	0	0	0	0	0	0	0	0	0	0	0	0	0	0	0	0
071019	13:08:31	13:11:50	198530	5.0.10.0	5_exp_noRW	42	Rpleas_acq	CS_B	MQQM	VKKV	JXXJ	BZZB	GWWG	YDDY	schön	spielen	treu	fair	ehrlich	retten	schlecht	strafen	tot	faul	eitel	rächen	47pct	acq_USunple_CSunple2_noRW	acq1_noRW	1	52	0	0	300	300	472	46	0	1	1	blank2r.bmp	0	1	+	0	1	blank2r.bmp	252	1	BZZB	306	3	rächen	559	0	0	0	0	0	0	0	0	0	0	0	0	0	0	0	0	0	0	0	0	0	0	0	0	0	0	0	0	0	0	0	0	0	0	0	0	0	0	0
071019	13:08:31	13:11:51	200102	5.0.10.0	5_exp_noRW	42	Rpleas_acq	CS_B	MQQM	VKKV	JXXJ	BZZB	GWWG	YDDY	schön	spielen	treu	fair	ehrlich	retten	schlecht	strafen	tot	faul	eitel	rächen	53pct	acq_USpleas_CSpleas1_noRW	acq1_noRW	1	53	0	0	300	300	407	50	0	1	1	blank2r.bmp	0	1	+	0	1	blank2r.bmp	252	1	MQQM	306	2	spielen	559	0	0	0	0	0	0	0	0	0	0	0	0	0	0	0	0	0	0	0	0	0	0	0	0	0	0	0	0	0	0	0	0	0	0	0	0	0	0	0
071019	13:08:31	13:11:53	201768	5.0.10.0	5_exp_noRW	42	Rpleas_acq	CS_B	MQQM	VKKV	JXXJ	BZZB	GWWG	YDDY	schön	spielen	treu	fair	ehrlich	retten	schlecht	strafen	tot	faul	eitel	rächen	53pct	acq_USpleas_CSpleas2_noRW	acq1_noRW	1	54	0	0	300	300	497	50	0	1	1	blank2r.bmp	0	1	+	0	1	blank2r.bmp	252	1	VKKV	306	2	ehrlich	559	0	0	0	0	0	0	0	0	0	0	0	0	0	0	0	0	0	0	0	0	0	0	0	0	0	0	0	0	0	0	0	0	0	0	0	0	0	0	0
071019	13:08:31	13:11:55	204087	5.0.10.0	5_exp_noRW	42	Rpleas_acq	CS_B	MQQM	VKKV	JXXJ	BZZB	GWWG	YDDY	schön	spielen	treu	fair	ehrlich	retten	schlecht	strafen	tot	faul	eitel	rächen	53pct	acq_USunple_CSpleas2_noRW	acq1_noRW	1	55	0	0	300	300	1139	46	0	1	1	blank2r.bmp	0	1	+	0	1	blank2r.bmp	252	1	VKKV	306	2	eitel	559	0	0	0	0	0	0	0	0	0	0	0	0	0	0	0	0	0	0	0	0	0	0	0	0	0	0	0	0	0	0	0	0	0	0	0	0	0	0	0
071019	13:08:31	13:11:57	205700	5.0.10.0	5_exp_noRW	42	Rpleas_acq	CS_B	MQQM	VKKV	JXXJ	BZZB	GWWG	YDDY	schön	spielen	treu	fair	ehrlich	retten	schlecht	strafen	tot	faul	eitel	rächen	47pct	acq_USunple_CSunple1_noRW	acq1_noRW	1	56	0	0	300	300	425	46	0	1	1	blank2r.bmp	0	1	+	0	1	blank2r.bmp	252	1	JXXJ	306	2	strafen	559	0	0	0	0	0	0	0	0	0	0	0	0	0	0	0	0	0	0	0	0	0	0	0	0	0	0	0	0	0	0	0	0	0	0	0	0	0	0	0
071019	13:08:31	13:11:59	207326	5.0.10.0	5_exp_noRW	42	Rpleas_acq	CS_B	MQQM	VKKV	JXXJ	BZZB	GWWG	YDDY	schön	spielen	treu	fair	ehrlich	retten	schlecht	strafen	tot	faul	eitel	rächen	47pct	acq_USpleas_CSpleas2_noRW	acq1_noRW	1	57	0	0	300	300	441	50	0	1	1	blank2r.bmp	0	1	+	0	1	blank2r.bmp	252	1	VKKV	306	1	fair	559	0	0	0	0	0	0	0	0	0	0	0	0	0	0	0	0	0	0	0	0	0	0	0	0	0	0	0	0	0	0	0	0	0	0	0	0	0	0	0
071019	13:08:31	13:12:00	209178	5.0.10.0	5_exp_noRW	42	Rpleas_acq	CS_B	MQQM	VKKV	JXXJ	BZZB	GWWG	YDDY	schön	spielen	treu	fair	ehrlich	retten	schlecht	strafen	tot	faul	eitel	rächen	47pct	acq_USpleas_CSpleas2_noRW	acq1_noRW	1	58	0	0	300	300	472	46	0	0	1	blank2r.bmp	0	1	+	0	1	blank2r.bmp	252	1	VKKV	306	3	retten	559	1	FEHLER	1066	0	0	0	0	0	0	0	0	0	0	0	0	0	0	0	0	0	0	0	0	0	0	0	0	0	0	0	0	0	0	0	0	0	0	0	0
071019	13:08:31	13:12:02	210911	5.0.10.0	5_exp_noRW	42	Rpleas_acq	CS_B	MQQM	VKKV	JXXJ	BZZB	GWWG	YDDY	schön	spielen	treu	fair	ehrlich	retten	schlecht	strafen	tot	faul	eitel	rächen	47pct	acq_USpleas_CSpleas1_noRW	acq1_noRW	1	59	0	0	300	300	776	50	0	1	1	blank2r.bmp	0	1	+	0	1	blank2r.bmp	252	1	MQQM	306	3	treu	559	0	0	0	0	0	0	0	0	0	0	0	0	0	0	0	0	0	0	0	0	0	0	0	0	0	0	0	0	0	0	0	0	0	0	0	0	0	0	0
071019	13:08:31	13:12:04	212537	5.0.10.0	5_exp_noRW	42	Rpleas_acq	CS_B	MQQM	VKKV	JXXJ	BZZB	GWWG	YDDY	schön	spielen	treu	fair	ehrlich	retten	schlecht	strafen	tot	faul	eitel	rächen	47pct	acq_USunple_CSunple1_noRW	acq1_noRW	1	60	0	0	300	300	440	46	0	1	1	blank2r.bmp	0	1	+	0	1	blank2r.bmp	252	1	JXXJ	306	1	schlecht	559	0	0	0	0	0	0	0	0	0	0	0	0	0	0	0	0	0	0	0	0	0	0	0	0	0	0	0	0	0	0	0	0	0	0	0	0	0	0	0
071019	13:08:31	13:12:06	214589	5.0.10.0	5_exp_noRW	42	Rpleas_acq	CS_B	MQQM	VKKV	JXXJ	BZZB	GWWG	YDDY	schön	spielen	treu	fair	ehrlich	retten	schlecht	strafen	tot	faul	eitel	rächen	53pct	acq_USunple_CSpleas2_noRW	acq1_noRW	1	61	0	0	300	300	885	46	0	1	1	blank2r.bmp	0	1	+	0	1	blank2r.bmp	252	1	VKKV	306	1	faul	559	0	0	0	0	0	0	0	0	0	0	0	0	0	0	0	0	0	0	0	0	0	0	0	0	0	0	0	0	0	0	0	0	0	0	0	0	0	0	0
071019	13:08:31	13:12:08	216682	5.0.10.0	5_exp_noRW	42	Rpleas_acq	CS_B	MQQM	VKKV	JXXJ	BZZB	GWWG	YDDY	schön	spielen	treu	fair	ehrlich	retten	schlecht	strafen	tot	faul	eitel	rächen	53pct	acq_USunple_CSpleas1_noRW	acq1_noRW	1	62	0	0	300	300	907	46	0	1	1	blank2r.bmp	0	1	+	0	1	blank2r.bmp	252	1	MQQM	306	2	strafen	559	0	0	0	0	0	0	0	0	0	0	0	0	0	0	0	0	0	0	0	0	0	0	0	0	0	0	0	0	0	0	0	0	0	0	0	0	0	0	0
071019	13:08:31	13:12:10	218668	5.0.10.0	5_exp_noRW	42	Rpleas_acq	CS_B	MQQM	VKKV	JXXJ	BZZB	GWWG	YDDY	schön	spielen	treu	fair	ehrlich	retten	schlecht	strafen	tot	faul	eitel	rächen	53pct	acq_USpleas_CSpleas1_noRW	acq1_noRW	1	63	0	0	300	300	802	50	0	1	1	blank2r.bmp	0	1	+	0	1	blank2r.bmp	252	1	MQQM	306	2	spielen	559	0	0	0	0	0	0	0	0	0	0	0	0	0	0	0	0	0	0	0	0	0	0	0	0	0	0	0	0	0	0	0	0	0	0	0	0	0	0	0
071019	13:08:31	13:12:12	220240	5.0.10.0	5_exp_noRW	42	Rpleas_acq	CS_B	MQQM	VKKV	JXXJ	BZZB	GWWG	YDDY	schön	spielen	treu	fair	ehrlich	retten	schlecht	strafen	tot	faul	eitel	rächen	53pct	acq_USpleas_CSunple1_noRW	acq1_noRW	1	64	0	0	300	300	398	50	0	1	1	blank2r.bmp	0	1	+	0	1	blank2r.bmp	252	1	JXXJ	306	2	spielen	559	0	0	0	0	0	0	0	0	0	0	0	0	0	0	0	0	0	0	0	0	0	0	0	0	0	0	0	0	0	0	0	0	0	0	0	0	0	0	0
071019	13:08:31	13:12:13	222026	5.0.10.0	5_exp_noRW	42	Rpleas_acq	CS_B	MQQM	VKKV	JXXJ	BZZB	GWWG	YDDY	schön	spielen	treu	fair	ehrlich	retten	schlecht	strafen	tot	faul	eitel	rächen	47pct	acq_USunple_CSunple2_noRW	acq1_noRW	1	65	0	0	300	300	616	46	0	1	1	blank2r.bmp	0	1	+	0	1	blank2r.bmp	252	1	BZZB	306	2	eitel	559	0	0	0	0	0	0	0	0	0	0	0	0	0	0	0	0	0	0	0	0	0	0	0	0	0	0	0	0	0	0	0	0	0	0	0	0	0	0	0
071019	13:08:31	13:12:15	223759	5.0.10.0	5_exp_noRW	42	Rpleas_acq	CS_B	MQQM	VKKV	JXXJ	BZZB	GWWG	YDDY	schön	spielen	treu	fair	ehrlich	retten	schlecht	strafen	tot	faul	eitel	rächen	47pct	acq_USunple_CSunple1_noRW	acq1_noRW	1	66	0	0	300	300	570	46	0	1	1	blank2r.bmp	0	1	+	0	1	blank2r.bmp	252	1	JXXJ	306	3	tot	559	0	0	0	0	0	0	0	0	0	0	0	0	0	0	0	0	0	0	0	0	0	0	0	0	0	0	0	0	0	0	0	0	0	0	0	0	0	0	0
071019	13:08:31	13:12:17	225918	5.0.10.0	5_exp_noRW	42	Rpleas_acq	CS_B	MQQM	VKKV	JXXJ	BZZB	GWWG	YDDY	schön	spielen	treu	fair	ehrlich	retten	schlecht	strafen	tot	faul	eitel	rächen	53pct	acq_USpleas_CSpleas1_noRW	acq1_noRW	1	67	0	0	300	300	979	50	0	1	1	blank2r.bmp	0	1	+	0	1	blank2r.bmp	252	1	MQQM	306	3	treu	559	0	0	0	0	0	0	0	0	0	0	0	0	0	0	0	0	0	0	0	0	0	0	0	0	0	0	0	0	0	0	0	0	0	0	0	0	0	0	0
071019	13:08:31	13:12:19	227544	5.0.10.0	5_exp_noRW	42	Rpleas_acq	CS_B	MQQM	VKKV	JXXJ	BZZB	GWWG	YDDY	schön	spielen	treu	fair	ehrlich	retten	schlecht	strafen	tot	faul	eitel	rächen	53pct	acq_USpleas_CSpleas2_noRW	acq1_noRW	1	68	0	0	300	300	450	50	0	1	1	blank2r.bmp	0	1	+	0	1	blank2r.bmp	252	1	VKKV	306	1	fair	559	0	0	0	0	0	0	0	0	0	0	0	0	0	0	0	0	0	0	0	0	0	0	0	0	0	0	0	0	0	0	0	0	0	0	0	0	0	0	0
071019	13:08:31	13:12:21	229383	5.0.10.0	5_exp_noRW	42	Rpleas_acq	CS_B	MQQM	VKKV	JXXJ	BZZB	GWWG	YDDY	schön	spielen	treu	fair	ehrlich	retten	schlecht	strafen	tot	faul	eitel	rächen	53pct	acq_USpleas_CSpleas1_noRW	acq1_noRW	1	69	0	0	300	300	661	50	0	1	1	blank2r.bmp	0	1	+	0	1	blank2r.bmp	252	1	MQQM	306	1	schön	559	0	0	0	0	0	0	0	0	0	0	0	0	0	0	0	0	0	0	0	0	0	0	0	0	0	0	0	0	0	0	0	0	0	0	0	0	0	0	0
071019	13:08:31	13:12:22	230996	5.0.10.0	5_exp_noRW	42	Rpleas_acq	CS_B	MQQM	VKKV	JXXJ	BZZB	GWWG	YDDY	schön	spielen	treu	fair	ehrlich	retten	schlecht	strafen	tot	faul	eitel	rächen	47pct	acq_USunple_CSunple2_noRW	acq1_noRW	1	70	0	0	300	300	444	46	0	1	1	blank2r.bmp	0	1	+	0	1	blank2r.bmp	252	1	BZZB	306	3	rächen	559	0	0	0	0	0	0	0	0	0	0	0	0	0	0	0	0	0	0	0	0	0	0	0	0	0	0	0	0	0	0	0	0	0	0	0	0	0	0	0
071019	13:08:31	13:12:24	232702	5.0.10.0	5_exp_noRW	42	Rpleas_acq	CS_B	MQQM	VKKV	JXXJ	BZZB	GWWG	YDDY	schön	spielen	treu	fair	ehrlich	retten	schlecht	strafen	tot	faul	eitel	rächen	47pct	acq_USpleas_CSunple2_noRW	acq1_noRW	1	71	0	0	300	300	528	50	0	1	1	blank2r.bmp	0	1	+	0	1	blank2r.bmp	252	1	BZZB	306	3	retten	559	0	0	0	0	0	0	0	0	0	0	0	0	0	0	0	0	0	0	0	0	0	0	0	0	0	0	0	0	0	0	0	0	0	0	0	0	0	0	0
071019	13:08:31	13:12:26	234328	5.0.10.0	5_exp_noRW	42	Rpleas_acq	CS_B	MQQM	VKKV	JXXJ	BZZB	GWWG	YDDY	schön	spielen	treu	fair	ehrlich	retten	schlecht	strafen	tot	faul	eitel	rächen	53pct	acq_USpleas_CSpleas2_noRW	acq1_noRW	1	72	0	0	300	300	445	50	0	1	1	blank2r.bmp	0	1	+	0	1	blank2r.bmp	252	1	VKKV	306	2	ehrlich	559	0	0	0	0	0	0	0	0	0	0	0	0	0	0	0	0	0	0	0	0	0	0	0	0	0	0	0	0	0	0	0	0	0	0	0	0	0	0	0
071019	13:08:31	13:12:27	235954	5.0.10.0	5_exp_noRW	42	Rpleas_acq	CS_B	MQQM	VKKV	JXXJ	BZZB	GWWG	YDDY	schön	spielen	treu	fair	ehrlich	retten	schlecht	strafen	tot	faul	eitel	rächen	47pct	acq_USunple_CSunple2_noRW	acq1_noRW	1	73	0	0	300	300	454	46	0	1	1	blank2r.bmp	0	1	+	0	1	blank2r.bmp	252	1	BZZB	306	1	faul	559	0	0	0	0	0	0	0	0	0	0	0	0	0	0	0	0	0	0	0	0	0	0	0	0	0	0	0	0	0	0	0	0	0	0	0	0	0	0	0
071019	13:08:31	13:12:29	237913	5.0.10.0	5_exp_noRW	42	Rpleas_acq	CS_B	MQQM	VKKV	JXXJ	BZZB	GWWG	YDDY	schön	spielen	treu	fair	ehrlich	retten	schlecht	strafen	tot	faul	eitel	rächen	53pct	acq_USunple_CSunple1_noRW	acq1_noRW	1	74	0	0	300	300	798	46	0	1	1	blank2r.bmp	0	1	+	0	1	blank2r.bmp	252	1	JXXJ	306	2	strafen	559	0	0	0	0	0	0	0	0	0	0	0	0	0	0	0	0	0	0	0	0	0	0	0	0	0	0	0	0	0	0	0	0	0	0	0	0	0	0	0
071019	13:08:31	13:12:31	239592	5.0.10.0	5_exp_noRW	42	Rpleas_acq	CS_B	MQQM	VKKV	JXXJ	BZZB	GWWG	YDDY	schön	spielen	treu	fair	ehrlich	retten	schlecht	strafen	tot	faul	eitel	rächen	53pct	acq_USunple_CSunple1_noRW	acq1_noRW	1	75	0	0	300	300	494	46	0	1	1	blank2r.bmp	0	1	+	0	1	blank2r.bmp	252	1	JXXJ	306	1	schlecht	559	0	0	0	0	0	0	0	0	0	0	0	0	0	0	0	0	0	0	0	0	0	0	0	0	0	0	0	0	0	0	0	0	0	0	0	0	0	0	0
071019	13:08:31	13:12:33	241218	5.0.10.0	5_exp_noRW	42	Rpleas_acq	CS_B	MQQM	VKKV	JXXJ	BZZB	GWWG	YDDY	schön	spielen	treu	fair	ehrlich	retten	schlecht	strafen	tot	faul	eitel	rächen	47pct	acq_USpleas_CSpleas2_noRW	acq1_noRW	1	76	0	0	300	300	453	50	0	1	1	blank2r.bmp	0	1	+	0	1	blank2r.bmp	252	1	VKKV	306	3	retten	559	0	0	0	0	0	0	0	0	0	0	0	0	0	0	0	0	0	0	0	0	0	0	0	0	0	0	0	0	0	0	0	0	0	0	0	0	0	0	0
071019	13:08:31	13:12:35	243284	5.0.10.0	5_exp_noRW	42	Rpleas_acq	CS_B	MQQM	VKKV	JXXJ	BZZB	GWWG	YDDY	schön	spielen	treu	fair	ehrlich	retten	schlecht	strafen	tot	faul	eitel	rächen	47pct	acq_USpleas_CSpleas2_noRW	acq1_noRW	1	77	0	0	300	300	894	50	0	1	1	blank2r.bmp	0	1	+	0	1	blank2r.bmp	252	1	VKKV	306	1	fair	559	0	0	0	0	0	0	0	0	0	0	0	0	0	0	0	0	0	0	0	0	0	0	0	0	0	0	0	0	0	0	0	0	0	0	0	0	0	0	0
071019	13:08:31	13:12:36	245203	5.0.10.0	5_exp_noRW	42	Rpleas_acq	CS_B	MQQM	VKKV	JXXJ	BZZB	GWWG	YDDY	schön	spielen	treu	fair	ehrlich	retten	schlecht	strafen	tot	faul	eitel	rächen	47pct	acq_USpleas_CSpleas1_noRW	acq1_noRW	1	78	0	0	300	300	534	46	0	0	1	blank2r.bmp	0	1	+	0	1	blank2r.bmp	252	1	MQQM	306	2	spielen	559	1	FEHLER	1132	0	0	0	0	0	0	0	0	0	0	0	0	0	0	0	0	0	0	0	0	0	0	0	0	0	0	0	0	0	0	0	0	0	0	0	0
071019	13:08:31	13:12:38	246643	5.0.10.0	5_exp_noRW	42	Rpleas_acq	CS_B	MQQM	VKKV	JXXJ	BZZB	GWWG	YDDY	schön	spielen	treu	fair	ehrlich	retten	schlecht	strafen	tot	faul	eitel	rächen	53pct	acq_USunple_CSunple2_noRW	acq1_noRW	1	79	0	0	300	300	486	46	0	1	1	blank2r.bmp	0	1	+	0	1	blank2r.bmp	252	1	BZZB	306	2	eitel	559	0	0	0	0	0	0	0	0	0	0	0	0	0	0	0	0	0	0	0	0	0	0	0	0	0	0	0	0	0	0	0	0	0	0	0	0	0	0	0
071019	13:08:31	13:12:40	248655	5.0.10.0	5_exp_noRW	42	Rpleas_acq	CS_B	MQQM	VKKV	JXXJ	BZZB	GWWG	YDDY	schön	spielen	treu	fair	ehrlich	retten	schlecht	strafen	tot	faul	eitel	rächen	47pct	acq_USunple_CSunple1_noRW	acq1_noRW	1	80	0	0	300	300	826	46	0	1	1	blank2r.bmp	0	1	+	0	1	blank2r.bmp	252	1	JXXJ	306	3	tot	559	0	0	0	0	0	0	0	0	0	0	0	0	0	0	0	0	0	0	0	0	0	0	0	0	0	0	0	0	0	0	0	0	0	0	0	0	0	0	0
071019	13:08:31	13:12:51	260144	5.0.10.0	5_exp_noRW	42	Rpleas_acq	CS_B	MQQM	VKKV	JXXJ	BZZB	GWWG	YDDY	schön	spielen	treu	fair	ehrlich	retten	schlecht	strafen	tot	faul	eitel	rächen	53pct	acq_USunple_CSunple2_noRW	acq23456_noRW	2	1	0	0	300	300	665	46	0	1	1	blank2r.bmp	0	1	+	0	1	blank2r.bmp	252	1	BZZB	306	1	faul	559	0	0	0	0	0	0	0	0	0	0	0	0	0	0	0	0	0	0	0	0	0	0	0	0	0	0	0	0	0	0	0	0	0	0	0	0	0	0	0
071019	13:08:31	13:12:53	261783	5.0.10.0	5_exp_noRW	42	Rpleas_acq	CS_B	MQQM	VKKV	JXXJ	BZZB	GWWG	YDDY	schön	spielen	treu	fair	ehrlich	retten	schlecht	strafen	tot	faul	eitel	rächen	47pct	acq_USpleas_CSpleas2_noRW	acq23456_noRW	2	2	0	0	300	300	457	50	0	1	1	blank2r.bmp	0	1	+	0	1	blank2r.bmp	252	1	VKKV	306	2	ehrlich	559	0	0	0	0	0	0	0	0	0	0	0	0	0	0	0	0	0	0	0	0	0	0	0	0	0	0	0	0	0	0	0	0	0	0	0	0	0	0	0
071019	13:08:31	13:12:55	263702	5.0.10.0	5_exp_noRW	42	Rpleas_acq	CS_B	MQQM	VKKV	JXXJ	BZZB	GWWG	YDDY	schön	spielen	treu	fair	ehrlich	retten	schlecht	strafen	tot	faul	eitel	rächen	53pct	acq_USpleas_CSpleas1_noRW	acq23456_noRW	2	3	0	0	300	300	533	46	0	0	1	blank2r.bmp	0	1	+	0	1	blank2r.bmp	252	1	MQQM	306	3	treu	559	1	FEHLER	1132	0	0	0	0	0	0	0	0	0	0	0	0	0	0	0	0	0	0	0	0	0	0	0	0	0	0	0	0	0	0	0	0	0	0	0	0
071019	13:08:31	13:12:57	265581	5.0.10.0	5_exp_noRW	42	Rpleas_acq	CS_B	MQQM	VKKV	JXXJ	BZZB	GWWG	YDDY	schön	spielen	treu	fair	ehrlich	retten	schlecht	strafen	tot	faul	eitel	rächen	47pct	acq_USpleas_CSpleas1_noRW	acq23456_noRW	2	4	0	0	300	300	918	50	0	1	1	blank2r.bmp	0	1	+	0	1	blank2r.bmp	252	1	MQQM	306	1	schön	559	0	0	0	0	0	0	0	0	0	0	0	0	0	0	0	0	0	0	0	0	0	0	0	0	0	0	0	0	0	0	0	0	0	0	0	0	0	0	0
071019	13:08:31	13:12:59	267287	5.0.10.0	5_exp_noRW	42	Rpleas_acq	CS_B	MQQM	VKKV	JXXJ	BZZB	GWWG	YDDY	schön	spielen	treu	fair	ehrlich	retten	schlecht	strafen	tot	faul	eitel	rächen	53pct	acq_USunple_CSunple1_noRW	acq23456_noRW	2	5	0	0	300	300	532	46	0	1	1	blank2r.bmp	0	1	+	0	1	blank2r.bmp	252	1	JXXJ	306	1	schlecht	559	0	0	0	0	0	0	0	0	0	0	0	0	0	0	0	0	0	0	0	0	0	0	0	0	0	0	0	0	0	0	0	0	0	0	0	0	0	0	0
071019	13:08:31	13:13:00	269073	5.0.10.0	5_exp_noRW	42	Rpleas_acq	CS_B	MQQM	VKKV	JXXJ	BZZB	GWWG	YDDY	schön	spielen	treu	fair	ehrlich	retten	schlecht	strafen	tot	faul	eitel	rächen	47pct	acq_USpleas_CSpleas2_noRW	acq23456_noRW	2	6	0	0	300	300	605	50	0	1	1	blank2r.bmp	0	1	+	0	1	blank2r.bmp	252	1	VKKV	306	3	retten	559	0	0	0	0	0	0	0	0	0	0	0	0	0	0	0	0	0	0	0	0	0	0	0	0	0	0	0	0	0	0	0	0	0	0	0	0	0	0	0
071019	13:08:31	13:13:02	270766	5.0.10.0	5_exp_noRW	42	Rpleas_acq	CS_B	MQQM	VKKV	JXXJ	BZZB	GWWG	YDDY	schön	spielen	treu	fair	ehrlich	retten	schlecht	strafen	tot	faul	eitel	rächen	53pct	acq_USpleas_CSpleas2_noRW	acq23456_noRW	2	7	0	0	300	300	529	50	0	1	1	blank2r.bmp	0	1	+	0	1	blank2r.bmp	252	1	VKKV	306	2	ehrlich	559	0	0	0	0	0	0	0	0	0	0	0	0	0	0	0	0	0	0	0	0	0	0	0	0	0	0	0	0	0	0	0	0	0	0	0	0	0	0	0
071019	13:08:31	13:13:04	272379	5.0.10.0	5_exp_noRW	42	Rpleas_acq	CS_B	MQQM	VKKV	JXXJ	BZZB	GWWG	YDDY	schön	spielen	treu	fair	ehrlich	retten	schlecht	strafen	tot	faul	eitel	rächen	47pct	acq_USpleas_CSpleas2_noRW	acq23456_noRW	2	8	0	0	300	300	437	50	0	1	1	blank2r.bmp	0	1	+	0	1	blank2r.bmp	252	1	VKKV	306	1	fair	559	0	0	0	0	0	0	0	0	0	0	0	0	0	0	0	0	0	0	0	0	0	0	0	0	0	0	0	0	0	0	0	0	0	0	0	0	0	0	0
071019	13:08:31	13:13:05	274031	5.0.10.0	5_exp_noRW	42	Rpleas_acq	CS_B	MQQM	VKKV	JXXJ	BZZB	GWWG	YDDY	schön	spielen	treu	fair	ehrlich	retten	schlecht	strafen	tot	faul	eitel	rächen	53pct	acq_USunple_CSunple1_noRW	acq23456_noRW	2	9	0	0	300	300	469	46	0	1	1	blank2r.bmp	0	1	+	0	1	blank2r.bmp	252	1	JXXJ	306	2	strafen	559	0	0	0	0	0	0	0	0	0	0	0	0	0	0	0	0	0	0	0	0	0	0	0	0	0	0	0	0	0	0	0	0	0	0	0	0	0	0	0
071019	13:08:31	13:13:07	275857	5.0.10.0	5_exp_noRW	42	Rpleas_acq	CS_B	MQQM	VKKV	JXXJ	BZZB	GWWG	YDDY	schön	spielen	treu	fair	ehrlich	retten	schlecht	strafen	tot	faul	eitel	rächen	53pct	acq_USunple_CSpleas1_noRW	acq23456_noRW	2	10	0	0	300	300	450	50	0	0	1	blank2r.bmp	0	1	+	0	1	blank2r.bmp	252	1	MQQM	306	3	tot	559	1	FEHLER	1039	0	0	0	0	0	0	0	0	0	0	0	0	0	0	0	0	0	0	0	0	0	0	0	0	0	0	0	0	0	0	0	0	0	0	0	0
071019	13:08:31	13:13:09	277350	5.0.10.0	5_exp_noRW	42	Rpleas_acq	CS_B	MQQM	VKKV	JXXJ	BZZB	GWWG	YDDY	schön	spielen	treu	fair	ehrlich	retten	schlecht	strafen	tot	faul	eitel	rächen	47pct	acq_USunple_CSunple2_noRW	acq23456_noRW	2	11	0	0	300	300	524	46	0	1	1	blank2r.bmp	0	1	+	0	1	blank2r.bmp	252	1	BZZB	306	3	rächen	559	0	0	0	0	0	0	0	0	0	0	0	0	0	0	0	0	0	0	0	0	0	0	0	0	0	0	0	0	0	0	0	0	0	0	0	0	0	0	0
071019	13:08:31	13:13:10	279123	5.0.10.0	5_exp_noRW	42	Rpleas_acq	CS_B	MQQM	VKKV	JXXJ	BZZB	GWWG	YDDY	schön	spielen	treu	fair	ehrlich	retten	schlecht	strafen	tot	faul	eitel	rächen	53pct	acq_USunple_CSunple2_noRW	acq23456_noRW	2	12	0	0	300	300	591	46	0	1	1	blank2r.bmp	0	1	+	0	1	blank2r.bmp	252	1	BZZB	306	2	eitel	559	0	0	0	0	0	0	0	0	0	0	0	0	0	0	0	0	0	0	0	0	0	0	0	0	0	0	0	0	0	0	0	0	0	0	0	0	0	0	0
071019	13:08:31	13:13:12	280988	5.0.10.0	5_exp_noRW	42	Rpleas_acq	CS_B	MQQM	VKKV	JXXJ	BZZB	GWWG	YDDY	schön	spielen	treu	fair	ehrlich	retten	schlecht	strafen	tot	faul	eitel	rächen	47pct	acq_USpleas_CSpleas1_noRW	acq23456_noRW	2	13	0	0	300	300	678	50	0	1	1	blank2r.bmp	0	1	+	0	1	blank2r.bmp	252	1	MQQM	306	3	treu	559	0	0	0	0	0	0	0	0	0	0	0	0	0	0	0	0	0	0	0	0	0	0	0	0	0	0	0	0	0	0	0	0	0	0	0	0	0	0	0
071019	13:08:31	13:13:14	282841	5.0.10.0	5_exp_noRW	42	Rpleas_acq	CS_B	MQQM	VKKV	JXXJ	BZZB	GWWG	YDDY	schön	spielen	treu	fair	ehrlich	retten	schlecht	strafen	tot	faul	eitel	rächen	53pct	acq_USunple_CSunple2_noRW	acq23456_noRW	2	14	0	0	300	300	691	46	0	1	1	blank2r.bmp	0	1	+	0	1	blank2r.bmp	252	1	BZZB	306	1	faul	559	0	0	0	0	0	0	0	0	0	0	0	0	0	0	0	0	0	0	0	0	0	0	0	0	0	0	0	0	0	0	0	0	0	0	0	0	0	0	0
071019	13:08:31	13:13:16	284547	5.0.10.0	5_exp_noRW	42	Rpleas_acq	CS_B	MQQM	VKKV	JXXJ	BZZB	GWWG	YDDY	schön	spielen	treu	fair	ehrlich	retten	schlecht	strafen	tot	faul	eitel	rächen	53pct	acq_USunple_CSunple1_noRW	acq23456_noRW	2	15	0	0	300	300	525	46	0	1	1	blank2r.bmp	0	1	+	0	1	blank2r.bmp	252	1	JXXJ	306	1	schlecht	559	0	0	0	0	0	0	0	0	0	0	0	0	0	0	0	0	0	0	0	0	0	0	0	0	0	0	0	0	0	0	0	0	0	0	0	0	0	0	0
071019	13:08:31	13:13:18	286479	5.0.10.0	5_exp_noRW	42	Rpleas_acq	CS_B	MQQM	VKKV	JXXJ	BZZB	GWWG	YDDY	schön	spielen	treu	fair	ehrlich	retten	schlecht	strafen	tot	faul	eitel	rächen	47pct	acq_USpleas_CSunple1_noRW	acq23456_noRW	2	16	0	0	300	300	557	46	0	0	1	blank2r.bmp	0	1	+	0	1	blank2r.bmp	252	1	JXXJ	306	3	treu	559	1	FEHLER	1146	0	0	0	0	0	0	0	0	0	0	0	0	0	0	0	0	0	0	0	0	0	0	0	0	0	0	0	0	0	0	0	0	0	0	0	0
071019	13:08:31	13:13:19	287865	5.0.10.0	5_exp_noRW	42	Rpleas_acq	CS_B	MQQM	VKKV	JXXJ	BZZB	GWWG	YDDY	schön	spielen	treu	fair	ehrlich	retten	schlecht	strafen	tot	faul	eitel	rächen	53pct	acq_USunple_CSpleas2_noRW	acq23456_noRW	2	17	0	0	300	300	417	46	0	1	1	blank2r.bmp	0	1	+	0	1	blank2r.bmp	252	1	VKKV	306	3	rächen	559	0	0	0	0	0	0	0	0	0	0	0	0	0	0	0	0	0	0	0	0	0	0	0	0	0	0	0	0	0	0	0	0	0	0	0	0	0	0	0
071019	13:08:31	13:13:21	289665	5.0.10.0	5_exp_noRW	42	Rpleas_acq	CS_B	MQQM	VKKV	JXXJ	BZZB	GWWG	YDDY	schön	spielen	treu	fair	ehrlich	retten	schlecht	strafen	tot	faul	eitel	rächen	53pct	acq_USpleas_CSpleas1_noRW	acq23456_noRW	2	18	0	0	300	300	617	50	0	1	1	blank2r.bmp	0	1	+	0	1	blank2r.bmp	252	1	MQQM	306	2	spielen	559	0	0	0	0	0	0	0	0	0	0	0	0	0	0	0	0	0	0	0	0	0	0	0	0	0	0	0	0	0	0	0	0	0	0	0	0	0	0	0
071019	13:08:31	13:13:23	291797	5.0.10.0	5_exp_noRW	42	Rpleas_acq	CS_B	MQQM	VKKV	JXXJ	BZZB	GWWG	YDDY	schön	spielen	treu	fair	ehrlich	retten	schlecht	strafen	tot	faul	eitel	rächen	47pct	acq_USunple_CSunple1_noRW	acq23456_noRW	2	19	0	0	300	300	962	46	0	1	1	blank2r.bmp	0	1	+	0	1	blank2r.bmp	252	1	JXXJ	306	2	strafen	559	0	0	0	0	0	0	0	0	0	0	0	0	0	0	0	0	0	0	0	0	0	0	0	0	0	0	0	0	0	0	0	0	0	0	0	0	0	0	0
071019	13:08:31	13:13:25	293676	5.0.10.0	5_exp_noRW	42	Rpleas_acq	CS_B	MQQM	VKKV	JXXJ	BZZB	GWWG	YDDY	schön	spielen	treu	fair	ehrlich	retten	schlecht	strafen	tot	faul	eitel	rächen	47pct	acq_USpleas_CSunple2_noRW	acq23456_noRW	2	20	0	0	300	300	715	50	0	1	1	blank2r.bmp	0	1	+	0	1	blank2r.bmp	252	1	BZZB	306	1	fair	559	0	0	0	0	0	0	0	0	0	0	0	0	0	0	0	0	0	0	0	0	0	0	0	0	0	0	0	0	0	0	0	0	0	0	0	0	0	0	0
071019	13:08:31	13:13:27	295302	5.0.10.0	5_exp_noRW	42	Rpleas_acq	CS_B	MQQM	VKKV	JXXJ	BZZB	GWWG	YDDY	schön	spielen	treu	fair	ehrlich	retten	schlecht	strafen	tot	faul	eitel	rächen	47pct	acq_USunple_CSunple1_noRW	acq23456_noRW	2	21	0	0	300	300	451	46	0	1	1	blank2r.bmp	0	1	+	0	1	blank2r.bmp	252	1	JXXJ	306	3	tot	559	0	0	0	0	0	0	0	0	0	0	0	0	0	0	0	0	0	0	0	0	0	0	0	0	0	0	0	0	0	0	0	0	0	0	0	0	0	0	0
071019	13:08:31	13:13:28	296955	5.0.10.0	5_exp_noRW	42	Rpleas_acq	CS_B	MQQM	VKKV	JXXJ	BZZB	GWWG	YDDY	schön	spielen	treu	fair	ehrlich	retten	schlecht	strafen	tot	faul	eitel	rächen	53pct	acq_USunple_CSunple2_noRW	acq23456_noRW	2	22	0	0	300	300	476	46	0	1	1	blank2r.bmp	0	1	+	0	1	blank2r.bmp	252	1	BZZB	306	3	rächen	559	0	0	0	0	0	0	0	0	0	0	0	0	0	0	0	0	0	0	0	0	0	0	0	0	0	0	0	0	0	0	0	0	0	0	0	0	0	0	0
071019	13:08:31	13:13:30	298581	5.0.10.0	5_exp_noRW	42	Rpleas_acq	CS_B	MQQM	VKKV	JXXJ	BZZB	GWWG	YDDY	schön	spielen	treu	fair	ehrlich	retten	schlecht	strafen	tot	faul	eitel	rächen	53pct	acq_USpleas_CSpleas1_noRW	acq23456_noRW	2	23	0	0	300	300	446	50	0	1	1	blank2r.bmp	0	1	+	0	1	blank2r.bmp	252	1	MQQM	306	1	schön	559	0	0	0	0	0	0	0	0	0	0	0	0	0	0	0	0	0	0	0	0	0	0	0	0	0	0	0	0	0	0	0	0	0	0	0	0	0	0	0
071019	13:08:31	13:13:32	300354	5.0.10.0	5_exp_noRW	42	Rpleas_acq	CS_B	MQQM	VKKV	JXXJ	BZZB	GWWG	YDDY	schön	spielen	treu	fair	ehrlich	retten	schlecht	strafen	tot	faul	eitel	rächen	47pct	acq_USpleas_CSpleas2_noRW	acq23456_noRW	2	24	0	0	300	300	592	50	0	1	1	blank2r.bmp	0	1	+	0	1	blank2r.bmp	252	1	VKKV	306	3	retten	559	0	0	0	0	0	0	0	0	0	0	0	0	0	0	0	0	0	0	0	0	0	0	0	0	0	0	0	0	0	0	0	0	0	0	0	0	0	0	0
071019	13:08:31	13:13:33	302020	5.0.10.0	5_exp_noRW	42	Rpleas_acq	CS_B	MQQM	VKKV	JXXJ	BZZB	GWWG	YDDY	schön	spielen	treu	fair	ehrlich	retten	schlecht	strafen	tot	faul	eitel	rächen	47pct	acq_USunple_CSunple2_noRW	acq23456_noRW	2	25	0	0	300	300	481	46	0	1	1	blank2r.bmp	0	1	+	0	1	blank2r.bmp	252	1	BZZB	306	3	rächen	559	0	0	0	0	0	0	0	0	0	0	0	0	0	0	0	0	0	0	0	0	0	0	0	0	0	0	0	0	0	0	0	0	0	0	0	0	0	0	0
071019	13:08:31	13:13:35	303726	5.0.10.0	5_exp_noRW	42	Rpleas_acq	CS_B	MQQM	VKKV	JXXJ	BZZB	GWWG	YDDY	schön	spielen	treu	fair	ehrlich	retten	schlecht	strafen	tot	faul	eitel	rächen	53pct	acq_USunple_CSunple1_noRW	acq23456_noRW	2	26	0	0	300	300	544	46	0	1	1	blank2r.bmp	0	1	+	0	1	blank2r.bmp	252	1	JXXJ	306	1	schlecht	559	0	0	0	0	0	0	0	0	0	0	0	0	0	0	0	0	0	0	0	0	0	0	0	0	0	0	0	0	0	0	0	0	0	0	0	0	0	0	0
071019	13:08:31	13:13:37	305551	5.0.10.0	5_exp_noRW	42	Rpleas_acq	CS_B	MQQM	VKKV	JXXJ	BZZB	GWWG	YDDY	schön	spielen	treu	fair	ehrlich	retten	schlecht	strafen	tot	faul	eitel	rächen	53pct	acq_USpleas_CSpleas2_noRW	acq23456_noRW	2	27	0	0	300	300	651	50	0	1	1	blank2r.bmp	0	1	+	0	1	blank2r.bmp	252	1	VKKV	306	3	retten	559	0	0	0	0	0	0	0	0	0	0	0	0	0	0	0	0	0	0	0	0	0	0	0	0	0	0	0	0	0	0	0	0	0	0	0	0	0	0	0
071019	13:08:31	13:13:38	307177	5.0.10.0	5_exp_noRW	42	Rpleas_acq	CS_B	MQQM	VKKV	JXXJ	BZZB	GWWG	YDDY	schön	spielen	treu	fair	ehrlich	retten	schlecht	strafen	tot	faul	eitel	rächen	53pct	acq_USunple_CSpleas2_noRW	acq23456_noRW	2	28	0	0	300	300	440	46	0	1	1	blank2r.bmp	0	1	+	0	1	blank2r.bmp	252	1	VKKV	306	2	eitel	559	0	0	0	0	0	0	0	0	0	0	0	0	0	0	0	0	0	0	0	0	0	0	0	0	0	0	0	0	0	0	0	0	0	0	0	0	0	0	0
071019	13:08:31	13:13:40	308817	5.0.10.0	5_exp_noRW	42	Rpleas_acq	CS_B	MQQM	VKKV	JXXJ	BZZB	GWWG	YDDY	schön	spielen	treu	fair	ehrlich	retten	schlecht	strafen	tot	faul	eitel	rächen	53pct	acq_USunple_CSpleas1_noRW	acq23456_noRW	2	29	0	0	300	300	454	46	0	1	1	blank2r.bmp	0	1	+	0	1	blank2r.bmp	252	1	MQQM	306	1	schlecht	559	0	0	0	0	0	0	0	0	0	0	0	0	0	0	0	0	0	0	0	0	0	0	0	0	0	0	0	0	0	0	0	0	0	0	0	0	0	0	0
071019	13:08:31	13:13:42	310549	5.0.10.0	5_exp_noRW	42	Rpleas_acq	CS_B	MQQM	VKKV	JXXJ	BZZB	GWWG	YDDY	schön	spielen	treu	fair	ehrlich	retten	schlecht	strafen	tot	faul	eitel	rächen	47pct	acq_USunple_CSunple2_noRW	acq23456_noRW	2	30	0	0	300	300	570	46	0	1	1	blank2r.bmp	0	1	+	0	1	blank2r.bmp	252	1	BZZB	306	1	faul	559	0	0	0	0	0	0	0	0	0	0	0	0	0	0	0	0	0	0	0	0	0	0	0	0	0	0	0	0	0	0	0	0	0	0	0	0	0	0	0
071019	13:08:31	13:13:44	312242	5.0.10.0	5_exp_noRW	42	Rpleas_acq	CS_B	MQQM	VKKV	JXXJ	BZZB	GWWG	YDDY	schön	spielen	treu	fair	ehrlich	retten	schlecht	strafen	tot	faul	eitel	rächen	53pct	acq_USpleas_CSpleas2_noRW	acq23456_noRW	2	31	0	0	300	300	496	50	0	1	1	blank2r.bmp	0	1	+	0	1	blank2r.bmp	252	1	VKKV	306	2	ehrlich	559	0	0	0	0	0	0	0	0	0	0	0	0	0	0	0	0	0	0	0	0	0	0	0	0	0	0	0	0	0	0	0	0	0	0	0	0	0	0	0
071019	13:08:31	13:13:45	313855	5.0.10.0	5_exp_noRW	42	Rpleas_acq	CS_B	MQQM	VKKV	JXXJ	BZZB	GWWG	YDDY	schön	spielen	treu	fair	ehrlich	retten	schlecht	strafen	tot	faul	eitel	rächen	53pct	acq_USunple_CSunple1_noRW	acq23456_noRW	2	32	0	0	300	300	430	46	0	1	1	blank2r.bmp	0	1	+	0	1	blank2r.bmp	252	1	JXXJ	306	3	tot	559	0	0	0	0	0	0	0	0	0	0	0	0	0	0	0	0	0	0	0	0	0	0	0	0	0	0	0	0	0	0	0	0	0	0	0	0	0	0	0
071019	13:08:31	13:13:47	315654	5.0.10.0	5_exp_noRW	42	Rpleas_acq	CS_B	MQQM	VKKV	JXXJ	BZZB	GWWG	YDDY	schön	spielen	treu	fair	ehrlich	retten	schlecht	strafen	tot	faul	eitel	rächen	53pct	acq_USpleas_CSunple1_noRW	acq23456_noRW	2	33	0	0	300	300	406	46	0	0	1	blank2r.bmp	0	1	+	0	1	blank2r.bmp	252	1	JXXJ	306	1	schön	559	1	FEHLER	999	0	0	0	0	0	0	0	0	0	0	0	0	0	0	0	0	0	0	0	0	0	0	0	0	0	0	0	0	0	0	0	0	0	0	0	0
071019	13:08:31	13:13:48	317080	5.0.10.0	5_exp_noRW	42	Rpleas_acq	CS_B	MQQM	VKKV	JXXJ	BZZB	GWWG	YDDY	schön	spielen	treu	fair	ehrlich	retten	schlecht	strafen	tot	faul	eitel	rächen	53pct	acq_USunple_CSunple1_noRW	acq23456_noRW	2	34	0	0	300	300	452	46	0	1	1	blank2r.bmp	0	1	+	0	1	blank2r.bmp	252	1	JXXJ	306	2	strafen	559	0	0	0	0	0	0	0	0	0	0	0	0	0	0	0	0	0	0	0	0	0	0	0	0	0	0	0	0	0	0	0	0	0	0	0	0	0	0	0
071019	13:08:31	13:13:50	318733	5.0.10.0	5_exp_noRW	42	Rpleas_acq	CS_B	MQQM	VKKV	JXXJ	BZZB	GWWG	YDDY	schön	spielen	treu	fair	ehrlich	retten	schlecht	strafen	tot	faul	eitel	rächen	53pct	acq_USpleas_CSunple2_noRW	acq23456_noRW	2	35	0	0	300	300	489	50	0	1	1	blank2r.bmp	0	1	+	0	1	blank2r.bmp	252	1	BZZB	306	2	ehrlich	559	0	0	0	0	0	0	0	0	0	0	0	0	0	0	0	0	0	0	0	0	0	0	0	0	0	0	0	0	0	0	0	0	0	0	0	0	0	0	0
071019	13:08:31	13:13:52	320652	5.0.10.0	5_exp_noRW	42	Rpleas_acq	CS_B	MQQM	VKKV	JXXJ	BZZB	GWWG	YDDY	schön	spielen	treu	fair	ehrlich	retten	schlecht	strafen	tot	faul	eitel	rächen	53pct	acq_USpleas_CSpleas2_noRW	acq23456_noRW	2	36	0	0	300	300	732	50	0	1	1	blank2r.bmp	0	1	+	0	1	blank2r.bmp	252	1	VKKV	306	1	fair	559	0	0	0	0	0	0	0	0	0	0	0	0	0	0	0	0	0	0	0	0	0	0	0	0	0	0	0	0	0	0	0	0	0	0	0	0	0	0	0
071019	13:08:31	13:13:54	322238	5.0.10.0	5_exp_noRW	42	Rpleas_acq	CS_B	MQQM	VKKV	JXXJ	BZZB	GWWG	YDDY	schön	spielen	treu	fair	ehrlich	retten	schlecht	strafen	tot	faul	eitel	rächen	53pct	acq_USpleas_CSpleas1_noRW	acq23456_noRW	2	37	0	0	300	300	416	50	0	1	1	blank2r.bmp	0	1	+	0	1	blank2r.bmp	252	1	MQQM	306	1	schön	559	0	0	0	0	0	0	0	0	0	0	0	0	0	0	0	0	0	0	0	0	0	0	0	0	0	0	0	0	0	0	0	0	0	0	0	0	0	0	0
071019	13:08:31	13:13:55	324184	5.0.10.0	5_exp_noRW	42	Rpleas_acq	CS_B	MQQM	VKKV	JXXJ	BZZB	GWWG	YDDY	schön	spielen	treu	fair	ehrlich	retten	schlecht	strafen	tot	faul	eitel	rächen	53pct	acq_USunple_CSunple2_noRW	acq23456_noRW	2	38	0	0	300	300	774	46	0	1	1	blank2r.bmp	0	1	+	0	1	blank2r.bmp	252	1	BZZB	306	2	eitel	559	0	0	0	0	0	0	0	0	0	0	0	0	0	0	0	0	0	0	0	0	0	0	0	0	0	0	0	0	0	0	0	0	0	0	0	0	0	0	0
071019	13:08:31	13:13:57	325943	5.0.10.0	5_exp_noRW	42	Rpleas_acq	CS_B	MQQM	VKKV	JXXJ	BZZB	GWWG	YDDY	schön	spielen	treu	fair	ehrlich	retten	schlecht	strafen	tot	faul	eitel	rächen	47pct	acq_USpleas_CSpleas1_noRW	acq23456_noRW	2	39	0	0	300	300	588	50	0	1	1	blank2r.bmp	0	1	+	0	1	blank2r.bmp	252	1	MQQM	306	2	spielen	559	0	0	0	0	0	0	0	0	0	0	0	0	0	0	0	0	0	0	0	0	0	0	0	0	0	0	0	0	0	0	0	0	0	0	0	0	0	0	0
071019	13:08:31	13:13:59	327636	5.0.10.0	5_exp_noRW	42	Rpleas_acq	CS_B	MQQM	VKKV	JXXJ	BZZB	GWWG	YDDY	schön	spielen	treu	fair	ehrlich	retten	schlecht	strafen	tot	faul	eitel	rächen	53pct	acq_USpleas_CSpleas1_noRW	acq23456_noRW	2	40	0	0	300	300	515	50	0	1	1	blank2r.bmp	0	1	+	0	1	blank2r.bmp	252	1	MQQM	306	3	treu	559	0	0	0	0	0	0	0	0	0	0	0	0	0	0	0	0	0	0	0	0	0	0	0	0	0	0	0	0	0	0	0	0	0	0	0	0	0	0	0
071019	13:08:31	13:14:01	329275	5.0.10.0	5_exp_noRW	42	Rpleas_acq	CS_B	MQQM	VKKV	JXXJ	BZZB	GWWG	YDDY	schön	spielen	treu	fair	ehrlich	retten	schlecht	strafen	tot	faul	eitel	rächen	47pct	acq_USpleas_CSpleas2_noRW	acq23456_noRW	2	41	0	0	300	300	464	50	0	1	1	blank2r.bmp	0	1	+	0	1	blank2r.bmp	252	1	VKKV	306	2	ehrlich	559	0	0	0	0	0	0	0	0	0	0	0	0	0	0	0	0	0	0	0	0	0	0	0	0	0	0	0	0	0	0	0	0	0	0	0	0	0	0	0
071019	13:08:31	13:14:02	330994	5.0.10.0	5_exp_noRW	42	Rpleas_acq	CS_B	MQQM	VKKV	JXXJ	BZZB	GWWG	YDDY	schön	spielen	treu	fair	ehrlich	retten	schlecht	strafen	tot	faul	eitel	rächen	53pct	acq_USunple_CSunple1_noRW	acq23456_noRW	2	42	0	0	300	300	533	46	0	1	1	blank2r.bmp	0	1	+	0	1	blank2r.bmp	252	1	JXXJ	306	3	tot	559	0	0	0	0	0	0	0	0	0	0	0	0	0	0	0	0	0	0	0	0	0	0	0	0	0	0	0	0	0	0	0	0	0	0	0	0	0	0	0
071019	13:08:31	13:14:04	333047	5.0.10.0	5_exp_noRW	42	Rpleas_acq	CS_B	MQQM	VKKV	JXXJ	BZZB	GWWG	YDDY	schön	spielen	treu	fair	ehrlich	retten	schlecht	strafen	tot	faul	eitel	rächen	53pct	acq_USunple_CSpleas1_noRW	acq23456_noRW	2	43	0	0	300	300	878	46	0	1	1	blank2r.bmp	0	1	+	0	1	blank2r.bmp	252	1	MQQM	306	1	schlecht	559	0	0	0	0	0	0	0	0	0	0	0	0	0	0	0	0	0	0	0	0	0	0	0	0	0	0	0	0	0	0	0	0	0	0	0	0	0	0	0
071019	13:08:31	13:14:06	334793	5.0.10.0	5_exp_noRW	42	Rpleas_acq	CS_B	MQQM	VKKV	JXXJ	BZZB	GWWG	YDDY	schön	spielen	treu	fair	ehrlich	retten	schlecht	strafen	tot	faul	eitel	rächen	47pct	acq_USpleas_CSpleas1_noRW	acq23456_noRW	2	44	0	0	300	300	574	50	0	1	1	blank2r.bmp	0	1	+	0	1	blank2r.bmp	252	1	MQQM	306	2	spielen	559	0	0	0	0	0	0	0	0	0	0	0	0	0	0	0	0	0	0	0	0	0	0	0	0	0	0	0	0	0	0	0	0	0	0	0	0	0	0	0
071019	13:08:31	13:14:09	337525	5.0.10.0	5_exp_noRW	42	Rpleas_acq	CS_B	MQQM	VKKV	JXXJ	BZZB	GWWG	YDDY	schön	spielen	treu	fair	ehrlich	retten	schlecht	strafen	tot	faul	eitel	rächen	47pct	acq_USpleas_CSpleas2_noRW	acq23456_noRW	2	45	0	0	300	300	1562	50	0	1	1	blank2r.bmp	0	1	+	0	1	blank2r.bmp	252	1	VKKV	306	3	retten	559	0	0	0	0	0	0	0	0	0	0	0	0	0	0	0	0	0	0	0	0	0	0	0	0	0	0	0	0	0	0	0	0	0	0	0	0	0	0	0
071019	13:08:31	13:14:10	339097	5.0.10.0	5_exp_noRW	42	Rpleas_acq	CS_B	MQQM	VKKV	JXXJ	BZZB	GWWG	YDDY	schön	spielen	treu	fair	ehrlich	retten	schlecht	strafen	tot	faul	eitel	rächen	47pct	acq_USpleas_CSunple2_noRW	acq23456_noRW	2	46	0	0	300	300	408	50	0	1	1	blank2r.bmp	0	1	+	0	1	blank2r.bmp	252	1	BZZB	306	3	retten	559	0	0	0	0	0	0	0	0	0	0	0	0	0	0	0	0	0	0	0	0	0	0	0	0	0	0	0	0	0	0	0	0	0	0	0	0	0	0	0
071019	13:08:31	13:14:12	341057	5.0.10.0	5_exp_noRW	42	Rpleas_acq	CS_B	MQQM	VKKV	JXXJ	BZZB	GWWG	YDDY	schön	spielen	treu	fair	ehrlich	retten	schlecht	strafen	tot	faul	eitel	rächen	47pct	acq_USunple_CSunple2_noRW	acq23456_noRW	2	47	0	0	300	300	798	46	0	1	1	blank2r.bmp	0	1	+	0	1	blank2r.bmp	252	1	BZZB	306	1	faul	559	0	0	0	0	0	0	0	0	0	0	0	0	0	0	0	0	0	0	0	0	0	0	0	0	0	0	0	0	0	0	0	0	0	0	0	0	0	0	0
071019	13:08:31	13:14:14	342989	5.0.10.0	5_exp_noRW	42	Rpleas_acq	CS_B	MQQM	VKKV	JXXJ	BZZB	GWWG	YDDY	schön	spielen	treu	fair	ehrlich	retten	schlecht	strafen	tot	faul	eitel	rächen	53pct	acq_USunple_CSunple1_noRW	acq23456_noRW	2	48	0	0	300	300	748	46	0	1	1	blank2r.bmp	0	1	+	0	1	blank2r.bmp	252	1	JXXJ	306	2	strafen	559	0	0	0	0	0	0	0	0	0	0	0	0	0	0	0	0	0	0	0	0	0	0	0	0	0	0	0	0	0	0	0	0	0	0	0	0	0	0	0
071019	13:08:31	13:14:16	344948	5.0.10.0	5_exp_noRW	42	Rpleas_acq	CS_B	MQQM	VKKV	JXXJ	BZZB	GWWG	YDDY	schön	spielen	treu	fair	ehrlich	retten	schlecht	strafen	tot	faul	eitel	rächen	53pct	acq_USpleas_CSpleas1_noRW	acq23456_noRW	2	49	0	0	300	300	582	46	0	0	1	blank2r.bmp	0	1	+	0	1	blank2r.bmp	252	1	MQQM	306	1	schön	559	1	FEHLER	1172	0	0	0	0	0	0	0	0	0	0	0	0	0	0	0	0	0	0	0	0	0	0	0	0	0	0	0	0	0	0	0	0	0	0	0	0
071019	13:08:31	13:14:18	346441	5.0.10.0	5_exp_noRW	42	Rpleas_acq	CS_B	MQQM	VKKV	JXXJ	BZZB	GWWG	YDDY	schön	spielen	treu	fair	ehrlich	retten	schlecht	strafen	tot	faul	eitel	rächen	53pct	acq_USunple_CSunple1_noRW	acq23456_noRW	2	50	0	0	300	300	520	46	0	1	1	blank2r.bmp	0	1	+	0	1	blank2r.bmp	252	1	JXXJ	306	1	schlecht	559	0	0	0	0	0	0	0	0	0	0	0	0	0	0	0	0	0	0	0	0	0	0	0	0	0	0	0	0	0	0	0	0	0	0	0	0	0	0	0
071019	13:08:31	13:14:20	348627	5.0.10.0	5_exp_noRW	42	Rpleas_acq	CS_B	MQQM	VKKV	JXXJ	BZZB	GWWG	YDDY	schön	spielen	treu	fair	ehrlich	retten	schlecht	strafen	tot	faul	eitel	rächen	47pct	acq_USunple_CSpleas2_noRW	acq23456_noRW	2	51	0	0	300	300	1002	46	0	1	1	blank2r.bmp	0	1	+	0	1	blank2r.bmp	252	1	VKKV	306	1	faul	559	0	0	0	0	0	0	0	0	0	0	0	0	0	0	0	0	0	0	0	0	0	0	0	0	0	0	0	0	0	0	0	0	0	0	0	0	0	0	0
071019	13:08:31	13:14:22	350386	5.0.10.0	5_exp_noRW	42	Rpleas_acq	CS_B	MQQM	VKKV	JXXJ	BZZB	GWWG	YDDY	schön	spielen	treu	fair	ehrlich	retten	schlecht	strafen	tot	faul	eitel	rächen	53pct	acq_USunple_CSunple2_noRW	acq23456_noRW	2	52	0	0	300	300	574	46	0	1	1	blank2r.bmp	0	1	+	0	1	blank2r.bmp	252	1	BZZB	306	2	eitel	559	0	0	0	0	0	0	0	0	0	0	0	0	0	0	0	0	0	0	0	0	0	0	0	0	0	0	0	0	0	0	0	0	0	0	0	0	0	0	0
071019	13:08:31	13:14:23	352025	5.0.10.0	5_exp_noRW	42	Rpleas_acq	CS_B	MQQM	VKKV	JXXJ	BZZB	GWWG	YDDY	schön	spielen	treu	fair	ehrlich	retten	schlecht	strafen	tot	faul	eitel	rächen	53pct	acq_USpleas_CSpleas1_noRW	acq23456_noRW	2	53	0	0	300	300	455	50	0	1	1	blank2r.bmp	0	1	+	0	1	blank2r.bmp	252	1	MQQM	306	3	treu	559	0	0	0	0	0	0	0	0	0	0	0	0	0	0	0	0	0	0	0	0	0	0	0	0	0	0	0	0	0	0	0	0	0	0	0	0	0	0	0
071019	13:08:31	13:14:25	353665	5.0.10.0	5_exp_noRW	42	Rpleas_acq	CS_B	MQQM	VKKV	JXXJ	BZZB	GWWG	YDDY	schön	spielen	treu	fair	ehrlich	retten	schlecht	strafen	tot	faul	eitel	rächen	47pct	acq_USpleas_CSpleas2_noRW	acq23456_noRW	2	54	0	0	300	300	461	50	0	1	1	blank2r.bmp	0	1	+	0	1	blank2r.bmp	252	1	VKKV	306	1	fair	559	0	0	0	0	0	0	0	0	0	0	0	0	0	0	0	0	0	0	0	0	0	0	0	0	0	0	0	0	0	0	0	0	0	0	0	0	0	0	0
071019	13:08:31	13:14:27	355291	5.0.10.0	5_exp_noRW	42	Rpleas_acq	CS_B	MQQM	VKKV	JXXJ	BZZB	GWWG	YDDY	schön	spielen	treu	fair	ehrlich	retten	schlecht	strafen	tot	faul	eitel	rächen	47pct	acq_USpleas_CSunple1_noRW	acq23456_noRW	2	55	0	0	300	300	444	50	0	1	1	blank2r.bmp	0	1	+	0	1	blank2r.bmp	252	1	JXXJ	306	2	spielen	559	0	0	0	0	0	0	0	0	0	0	0	0	0	0	0	0	0	0	0	0	0	0	0	0	0	0	0	0	0	0	0	0	0	0	0	0	0	0	0
071019	13:08:31	13:14:28	356983	5.0.10.0	5_exp_noRW	42	Rpleas_acq	CS_B	MQQM	VKKV	JXXJ	BZZB	GWWG	YDDY	schön	spielen	treu	fair	ehrlich	retten	schlecht	strafen	tot	faul	eitel	rächen	53pct	acq_USunple_CSunple2_noRW	acq23456_noRW	2	56	0	0	300	300	527	46	0	1	1	blank2r.bmp	0	1	+	0	1	blank2r.bmp	252	1	BZZB	306	3	rächen	559	0	0	0	0	0	0	0	0	0	0	0	0	0	0	0	0	0	0	0	0	0	0	0	0	0	0	0	0	0	0	0	0	0	0	0	0	0	0	0
071019	13:08:31	13:14:30	358609	5.0.10.0	5_exp_noRW	42	Rpleas_acq	CS_B	MQQM	VKKV	JXXJ	BZZB	GWWG	YDDY	schön	spielen	treu	fair	ehrlich	retten	schlecht	strafen	tot	faul	eitel	rächen	53pct	acq_USunple_CSunple1_noRW	acq23456_noRW	2	57	0	0	300	300	449	46	0	1	1	blank2r.bmp	0	1	+	0	1	blank2r.bmp	252	1	JXXJ	306	3	tot	559	0	0	0	0	0	0	0	0	0	0	0	0	0	0	0	0	0	0	0	0	0	0	0	0	0	0	0	0	0	0	0	0	0	0	0	0	0	0	0
071019	13:08:31	13:14:32	360688	5.0.10.0	5_exp_noRW	42	Rpleas_acq	CS_B	MQQM	VKKV	JXXJ	BZZB	GWWG	YDDY	schön	spielen	treu	fair	ehrlich	retten	schlecht	strafen	tot	faul	eitel	rächen	47pct	acq_USunple_CSunple2_noRW	acq23456_noRW	2	58	0	0	300	300	902	46	0	1	1	blank2r.bmp	0	1	+	0	1	blank2r.bmp	252	1	BZZB	306	3	rächen	559	0	0	0	0	0	0	0	0	0	0	0	0	0	0	0	0	0	0	0	0	0	0	0	0	0	0	0	0	0	0	0	0	0	0	0	0	0	0	0
071019	13:08:31	13:14:34	362341	5.0.10.0	5_exp_noRW	42	Rpleas_acq	CS_B	MQQM	VKKV	JXXJ	BZZB	GWWG	YDDY	schön	spielen	treu	fair	ehrlich	retten	schlecht	strafen	tot	faul	eitel	rächen	53pct	acq_USpleas_CSpleas2_noRW	acq23456_noRW	2	59	0	0	300	300	470	50	0	1	1	blank2r.bmp	0	1	+	0	1	blank2r.bmp	252	1	VKKV	306	1	fair	559	0	0	0	0	0	0	0	0	0	0	0	0	0	0	0	0	0	0	0	0	0	0	0	0	0	0	0	0	0	0	0	0	0	0	0	0	0	0	0
071019	13:08:31	13:14:35	364020	5.0.10.0	5_exp_noRW	42	Rpleas_acq	CS_B	MQQM	VKKV	JXXJ	BZZB	GWWG	YDDY	schön	spielen	treu	fair	ehrlich	retten	schlecht	strafen	tot	faul	eitel	rächen	47pct	acq_USpleas_CSpleas1_noRW	acq23456_noRW	2	60	0	0	300	300	508	50	0	1	1	blank2r.bmp	0	1	+	0	1	blank2r.bmp	252	1	MQQM	306	1	schön	559	0	0	0	0	0	0	0	0	0	0	0	0	0	0	0	0	0	0	0	0	0	0	0	0	0	0	0	0	0	0	0	0	0	0	0	0	0	0	0
071019	13:08:31	13:14:37	365806	5.0.10.0	5_exp_noRW	42	Rpleas_acq	CS_B	MQQM	VKKV	JXXJ	BZZB	GWWG	YDDY	schön	spielen	treu	fair	ehrlich	retten	schlecht	strafen	tot	faul	eitel	rächen	47pct	acq_USunple_CSunple2_noRW	acq23456_noRW	2	61	0	0	300	300	602	46	0	1	1	blank2r.bmp	0	1	+	0	1	blank2r.bmp	252	1	BZZB	306	1	faul	559	0	0	0	0	0	0	0	0	0	0	0	0	0	0	0	0	0	0	0	0	0	0	0	0	0	0	0	0	0	0	0	0	0	0	0	0	0	0	0
071019	13:08:31	13:14:39	367499	5.0.10.0	5_exp_noRW	42	Rpleas_acq	CS_B	MQQM	VKKV	JXXJ	BZZB	GWWG	YDDY	schön	spielen	treu	fair	ehrlich	retten	schlecht	strafen	tot	faul	eitel	rächen	47pct	acq_USpleas_CSpleas1_noRW	acq23456_noRW	2	62	0	0	300	300	518	50	0	1	1	blank2r.bmp	0	1	+	0	1	blank2r.bmp	252	1	MQQM	306	3	treu	559	0	0	0	0	0	0	0	0	0	0	0	0	0	0	0	0	0	0	0	0	0	0	0	0	0	0	0	0	0	0	0	0	0	0	0	0	0	0	0
071019	13:08:31	13:14:40	369191	5.0.10.0	5_exp_noRW	42	Rpleas_acq	CS_B	MQQM	VKKV	JXXJ	BZZB	GWWG	YDDY	schön	spielen	treu	fair	ehrlich	retten	schlecht	strafen	tot	faul	eitel	rächen	53pct	acq_USunple_CSunple2_noRW	acq23456_noRW	2	63	0	0	300	300	524	46	0	1	1	blank2r.bmp	0	1	+	0	1	blank2r.bmp	252	1	BZZB	306	2	eitel	559	0	0	0	0	0	0	0	0	0	0	0	0	0	0	0	0	0	0	0	0	0	0	0	0	0	0	0	0	0	0	0	0	0	0	0	0	0	0	0
071019	13:08:31	13:14:42	370724	5.0.10.0	5_exp_noRW	42	Rpleas_acq	CS_B	MQQM	VKKV	JXXJ	BZZB	GWWG	YDDY	schön	spielen	treu	fair	ehrlich	retten	schlecht	strafen	tot	faul	eitel	rächen	53pct	acq_USpleas_CSpleas1_noRW	acq23456_noRW	2	64	0	0	300	300	366	50	0	1	1	blank2r.bmp	0	1	+	0	1	blank2r.bmp	252	1	MQQM	306	2	spielen	559	0	0	0	0	0	0	0	0	0	0	0	0	0	0	0	0	0	0	0	0	0	0	0	0	0	0	0	0	0	0	0	0	0	0	0	0	0	0	0
071019	13:08:31	13:14:44	372497	5.0.10.0	5_exp_noRW	42	Rpleas_acq	CS_B	MQQM	VKKV	JXXJ	BZZB	GWWG	YDDY	schön	spielen	treu	fair	ehrlich	retten	schlecht	strafen	tot	faul	eitel	rächen	47pct	acq_USpleas_CSpleas2_noRW	acq23456_noRW	2	65	0	0	300	300	374	46	0	0	1	blank2r.bmp	0	1	+	0	1	blank2r.bmp	252	1	VKKV	306	3	retten	559	1	FEHLER	972	0	0	0	0	0	0	0	0	0	0	0	0	0	0	0	0	0	0	0	0	0	0	0	0	0	0	0	0	0	0	0	0	0	0	0	0
071019	13:08:31	13:14:46	374363	5.0.10.0	5_exp_noRW	42	Rpleas_acq	CS_B	MQQM	VKKV	JXXJ	BZZB	GWWG	YDDY	schön	spielen	treu	fair	ehrlich	retten	schlecht	strafen	tot	faul	eitel	rächen	53pct	acq_USunple_CSpleas1_noRW	acq23456_noRW	2	66	0	0	300	300	908	46	0	1	1	blank2r.bmp	0	1	+	0	1	blank2r.bmp	252	1	MQQM	306	3	tot	559	0	0	0	0	0	0	0	0	0	0	0	0	0	0	0	0	0	0	0	0	0	0	0	0	0	0	0	0	0	0	0	0	0	0	0	0	0	0	0
071019	13:08:31	13:14:47	376069	5.0.10.0	5_exp_noRW	42	Rpleas_acq	CS_B	MQQM	VKKV	JXXJ	BZZB	GWWG	YDDY	schön	spielen	treu	fair	ehrlich	retten	schlecht	strafen	tot	faul	eitel	rächen	47pct	acq_USpleas_CSpleas1_noRW	acq23456_noRW	2	67	0	0	300	300	523	50	0	1	1	blank2r.bmp	0	1	+	0	1	blank2r.bmp	252	1	MQQM	306	1	schön	559	0	0	0	0	0	0	0	0	0	0	0	0	0	0	0	0	0	0	0	0	0	0	0	0	0	0	0	0	0	0	0	0	0	0	0	0	0	0	0
071019	13:08:31	13:14:49	378201	5.0.10.0	5_exp_noRW	42	Rpleas_acq	CS_B	MQQM	VKKV	JXXJ	BZZB	GWWG	YDDY	schön	spielen	treu	fair	ehrlich	retten	schlecht	strafen	tot	faul	eitel	rächen	47pct	acq_USunple_CSunple2_noRW	acq23456_noRW	2	68	0	0	300	300	962	46	0	1	1	blank2r.bmp	0	1	+	0	1	blank2r.bmp	252	1	BZZB	306	2	eitel	559	0	0	0	0	0	0	0	0	0	0	0	0	0	0	0	0	0	0	0	0	0	0	0	0	0	0	0	0	0	0	0	0	0	0	0	0	0	0	0
071019	13:08:31	13:14:51	379867	5.0.10.0	5_exp_noRW	42	Rpleas_acq	CS_B	MQQM	VKKV	JXXJ	BZZB	GWWG	YDDY	schön	spielen	treu	fair	ehrlich	retten	schlecht	strafen	tot	faul	eitel	rächen	47pct	acq_USunple_CSunple1_noRW	acq23456_noRW	2	69	0	0	300	300	488	46	0	1	1	blank2r.bmp	0	1	+	0	1	blank2r.bmp	252	1	JXXJ	306	2	strafen	559	0	0	0	0	0	0	0	0	0	0	0	0	0	0	0	0	0	0	0	0	0	0	0	0	0	0	0	0	0	0	0	0	0	0	0	0	0	0	0
071019	13:08:31	13:14:53	381520	5.0.10.0	5_exp_noRW	42	Rpleas_acq	CS_B	MQQM	VKKV	JXXJ	BZZB	GWWG	YDDY	schön	spielen	treu	fair	ehrlich	retten	schlecht	strafen	tot	faul	eitel	rächen	47pct	acq_USpleas_CSpleas2_noRW	acq23456_noRW	2	70	0	0	300	300	475	50	0	1	1	blank2r.bmp	0	1	+	0	1	blank2r.bmp	252	1	VKKV	306	2	ehrlich	559	0	0	0	0	0	0	0	0	0	0	0	0	0	0	0	0	0	0	0	0	0	0	0	0	0	0	0	0	0	0	0	0	0	0	0	0	0	0	0
071019	13:08:31	13:14:55	383239	5.0.10.0	5_exp_noRW	42	Rpleas_acq	CS_B	MQQM	VKKV	JXXJ	BZZB	GWWG	YDDY	schön	spielen	treu	fair	ehrlich	retten	schlecht	strafen	tot	faul	eitel	rächen	53pct	acq_USpleas_CSunple1_noRW	acq23456_noRW	2	71	0	0	300	300	535	50	0	1	1	blank2r.bmp	0	1	+	0	1	blank2r.bmp	252	1	JXXJ	306	1	schön	559	0	0	0	0	0	0	0	0	0	0	0	0	0	0	0	0	0	0	0	0	0	0	0	0	0	0	0	0	0	0	0	0	0	0	0	0	0	0	0
071019	13:08:31	13:14:56	384865	5.0.10.0	5_exp_noRW	42	Rpleas_acq	CS_B	MQQM	VKKV	JXXJ	BZZB	GWWG	YDDY	schön	spielen	treu	fair	ehrlich	retten	schlecht	strafen	tot	faul	eitel	rächen	53pct	acq_USpleas_CSpleas1_noRW	acq23456_noRW	2	72	0	0	300	300	439	50	0	1	1	blank2r.bmp	0	1	+	0	1	blank2r.bmp	252	1	MQQM	306	3	treu	559	0	0	0	0	0	0	0	0	0	0	0	0	0	0	0	0	0	0	0	0	0	0	0	0	0	0	0	0	0	0	0	0	0	0	0	0	0	0	0
071019	13:08:31	13:14:58	387011	5.0.10.0	5_exp_noRW	42	Rpleas_acq	CS_B	MQQM	VKKV	JXXJ	BZZB	GWWG	YDDY	schön	spielen	treu	fair	ehrlich	retten	schlecht	strafen	tot	faul	eitel	rächen	47pct	acq_USpleas_CSpleas2_noRW	acq23456_noRW	2	73	0	0	300	300	961	50	0	1	1	blank2r.bmp	0	1	+	0	1	blank2r.bmp	252	1	VKKV	306	3	retten	559	0	0	0	0	0	0	0	0	0	0	0	0	0	0	0	0	0	0	0	0	0	0	0	0	0	0	0	0	0	0	0	0	0	0	0	0	0	0	0
071019	13:08:31	13:15:00	388690	5.0.10.0	5_exp_noRW	42	Rpleas_acq	CS_B	MQQM	VKKV	JXXJ	BZZB	GWWG	YDDY	schön	spielen	treu	fair	ehrlich	retten	schlecht	strafen	tot	faul	eitel	rächen	47pct	acq_USunple_CSunple1_noRW	acq23456_noRW	2	74	0	0	300	300	512	46	0	1	1	blank2r.bmp	0	1	+	0	1	blank2r.bmp	252	1	JXXJ	306	1	schlecht	559	0	0	0	0	0	0	0	0	0	0	0	0	0	0	0	0	0	0	0	0	0	0	0	0	0	0	0	0	0	0	0	0	0	0	0	0	0	0	0
071019	13:08:31	13:15:02	390862	5.0.10.0	5_exp_noRW	42	Rpleas_acq	CS_B	MQQM	VKKV	JXXJ	BZZB	GWWG	YDDY	schön	spielen	treu	fair	ehrlich	retten	schlecht	strafen	tot	faul	eitel	rächen	53pct	acq_USunple_CSunple1_noRW	acq23456_noRW	2	75	0	0	300	300	1004	46	0	1	1	blank2r.bmp	0	1	+	0	1	blank2r.bmp	252	1	JXXJ	306	2	strafen	559	0	0	0	0	0	0	0	0	0	0	0	0	0	0	0	0	0	0	0	0	0	0	0	0	0	0	0	0	0	0	0	0	0	0	0	0	0	0	0
071019	13:08:31	13:15:04	392475	5.0.10.0	5_exp_noRW	42	Rpleas_acq	CS_B	MQQM	VKKV	JXXJ	BZZB	GWWG	YDDY	schön	spielen	treu	fair	ehrlich	retten	schlecht	strafen	tot	faul	eitel	rächen	53pct	acq_USpleas_CSpleas2_noRW	acq23456_noRW	2	76	0	0	300	300	439	50	0	1	1	blank2r.bmp	0	1	+	0	1	blank2r.bmp	252	1	VKKV	306	1	fair	559	0	0	0	0	0	0	0	0	0	0	0	0	0	0	0	0	0	0	0	0	0	0	0	0	0	0	0	0	0	0	0	0	0	0	0	0	0	0	0
071019	13:08:31	13:15:05	394168	5.0.10.0	5_exp_noRW	42	Rpleas_acq	CS_B	MQQM	VKKV	JXXJ	BZZB	GWWG	YDDY	schön	spielen	treu	fair	ehrlich	retten	schlecht	strafen	tot	faul	eitel	rächen	53pct	acq_USunple_CSunple1_noRW	acq23456_noRW	2	77	0	0	300	300	526	46	0	1	1	blank2r.bmp	0	1	+	0	1	blank2r.bmp	252	1	JXXJ	306	1	schlecht	559	0	0	0	0	0	0	0	0	0	0	0	0	0	0	0	0	0	0	0	0	0	0	0	0	0	0	0	0	0	0	0	0	0	0	0	0	0	0	0
071019	13:08:31	13:15:08	396220	5.0.10.0	5_exp_noRW	42	Rpleas_acq	CS_B	MQQM	VKKV	JXXJ	BZZB	GWWG	YDDY	schön	spielen	treu	fair	ehrlich	retten	schlecht	strafen	tot	faul	eitel	rächen	53pct	acq_USunple_CSunple2_noRW	acq23456_noRW	2	78	0	0	300	300	882	46	0	1	1	blank2r.bmp	0	1	+	0	1	blank2r.bmp	252	1	BZZB	306	3	rächen	559	0	0	0	0	0	0	0	0	0	0	0	0	0	0	0	0	0	0	0	0	0	0	0	0	0	0	0	0	0	0	0	0	0	0	0	0	0	0	0
071019	13:08:31	13:15:09	398059	5.0.10.0	5_exp_noRW	42	Rpleas_acq	CS_B	MQQM	VKKV	JXXJ	BZZB	GWWG	YDDY	schön	spielen	treu	fair	ehrlich	retten	schlecht	strafen	tot	faul	eitel	rächen	53pct	acq_USpleas_CSunple2_noRW	acq23456_noRW	2	79	0	0	300	300	656	50	0	1	1	blank2r.bmp	0	1	+	0	1	blank2r.bmp	252	1	BZZB	306	2	ehrlich	559	0	0	0	0	0	0	0	0	0	0	0	0	0	0	0	0	0	0	0	0	0	0	0	0	0	0	0	0	0	0	0	0	0	0	0	0	0	0	0
071019	13:08:31	13:15:11	399725	5.0.10.0	5_exp_noRW	42	Rpleas_acq	CS_B	MQQM	VKKV	JXXJ	BZZB	GWWG	YDDY	schön	spielen	treu	fair	ehrlich	retten	schlecht	strafen	tot	faul	eitel	rächen	53pct	acq_USunple_CSpleas2_noRW	acq23456_noRW	2	80	0	0	300	300	479	46	0	1	1	blank2r.bmp	0	1	+	0	1	blank2r.bmp	252	1	VKKV	306	3	rächen	559	0	0	0	0	0	0	0	0	0	0	0	0	0	0	0	0	0	0	0	0	0	0	0	0	0	0	0	0	0	0	0	0	0	0	0	0	0	0	0
071019	13:08:31	13:15:33	421996	5.0.10.0	5_exp_noRW	42	Rpleas_acq	CS_B	MQQM	VKKV	JXXJ	BZZB	GWWG	YDDY	schön	spielen	treu	fair	ehrlich	retten	schlecht	strafen	tot	faul	eitel	rächen	53pct	acq_USpleas_CSpleas2_noRW	acq23456_noRW	3	1	0	0	300	300	493	50	0	1	1	blank2r.bmp	0	1	+	0	1	blank2r.bmp	252	1	VKKV	306	2	ehrlich	559	0	0	0	0	0	0	0	0	0	0	0	0	0	0	0	0	0	0	0	0	0	0	0	0	0	0	0	0	0	0	0	0	0	0	0	0	0	0	0
071019	13:08:31	13:15:35	423622	5.0.10.0	5_exp_noRW	42	Rpleas_acq	CS_B	MQQM	VKKV	JXXJ	BZZB	GWWG	YDDY	schön	spielen	treu	fair	ehrlich	retten	schlecht	strafen	tot	faul	eitel	rächen	53pct	acq_USpleas_CSpleas2_noRW	acq23456_noRW	3	2	0	0	300	300	451	50	0	1	1	blank2r.bmp	0	1	+	0	1	blank2r.bmp	252	1	VKKV	306	1	fair	559	0	0	0	0	0	0	0	0	0	0	0	0	0	0	0	0	0	0	0	0	0	0	0	0	0	0	0	0	0	0	0	0	0	0	0	0	0	0	0
071019	13:08:31	13:15:37	425315	5.0.10.0	5_exp_noRW	42	Rpleas_acq	CS_B	MQQM	VKKV	JXXJ	BZZB	GWWG	YDDY	schön	spielen	treu	fair	ehrlich	retten	schlecht	strafen	tot	faul	eitel	rächen	47pct	acq_USunple_CSunple2_noRW	acq23456_noRW	3	3	0	0	300	300	529	46	0	1	1	blank2r.bmp	0	1	+	0	1	blank2r.bmp	252	1	BZZB	306	1	faul	559	0	0	0	0	0	0	0	0	0	0	0	0	0	0	0	0	0	0	0	0	0	0	0	0	0	0	0	0	0	0	0	0	0	0	0	0	0	0	0
071019	13:08:31	13:15:38	426901	5.0.10.0	5_exp_noRW	42	Rpleas_acq	CS_B	MQQM	VKKV	JXXJ	BZZB	GWWG	YDDY	schön	spielen	treu	fair	ehrlich	retten	schlecht	strafen	tot	faul	eitel	rächen	47pct	acq_USunple_CSunple1_noRW	acq23456_noRW	3	4	0	0	300	300	407	46	0	1	1	blank2r.bmp	0	1	+	0	1	blank2r.bmp	252	1	JXXJ	306	3	tot	559	0	0	0	0	0	0	0	0	0	0	0	0	0	0	0	0	0	0	0	0	0	0	0	0	0	0	0	0	0	0	0	0	0	0	0	0	0	0	0
071019	13:08:31	13:15:40	428647	5.0.10.0	5_exp_noRW	42	Rpleas_acq	CS_B	MQQM	VKKV	JXXJ	BZZB	GWWG	YDDY	schön	spielen	treu	fair	ehrlich	retten	schlecht	strafen	tot	faul	eitel	rächen	47pct	acq_USpleas_CSunple2_noRW	acq23456_noRW	3	5	0	0	300	300	346	46	0	0	1	blank2r.bmp	0	1	+	0	1	blank2r.bmp	252	1	BZZB	306	1	fair	559	1	FEHLER	946	0	0	0	0	0	0	0	0	0	0	0	0	0	0	0	0	0	0	0	0	0	0	0	0	0	0	0	0	0	0	0	0	0	0	0	0
071019	13:08:31	13:15:41	430166	5.0.10.0	5_exp_noRW	42	Rpleas_acq	CS_B	MQQM	VKKV	JXXJ	BZZB	GWWG	YDDY	schön	spielen	treu	fair	ehrlich	retten	schlecht	strafen	tot	faul	eitel	rächen	47pct	acq_USunple_CSunple1_noRW	acq23456_noRW	3	6	0	0	300	300	548	46	0	1	1	blank2r.bmp	0	1	+	0	1	blank2r.bmp	252	1	JXXJ	306	3	tot	559	0	0	0	0	0	0	0	0	0	0	0	0	0	0	0	0	0	0	0	0	0	0	0	0	0	0	0	0	0	0	0	0	0	0	0	0	0	0	0
071019	13:08:31	13:15:43	432058	5.0.10.0	5_exp_noRW	42	Rpleas_acq	CS_B	MQQM	VKKV	JXXJ	BZZB	GWWG	YDDY	schön	spielen	treu	fair	ehrlich	retten	schlecht	strafen	tot	faul	eitel	rächen	47pct	acq_USpleas_CSunple1_noRW	acq23456_noRW	3	7	0	0	300	300	707	50	0	1	1	blank2r.bmp	0	1	+	0	1	blank2r.bmp	252	1	JXXJ	306	3	treu	559	0	0	0	0	0	0	0	0	0	0	0	0	0	0	0	0	0	0	0	0	0	0	0	0	0	0	0	0	0	0	0	0	0	0	0	0	0	0	0
071019	13:08:31	13:15:45	433698	5.0.10.0	5_exp_noRW	42	Rpleas_acq	CS_B	MQQM	VKKV	JXXJ	BZZB	GWWG	YDDY	schön	spielen	treu	fair	ehrlich	retten	schlecht	strafen	tot	faul	eitel	rächen	53pct	acq_USunple_CSunple1_noRW	acq23456_noRW	3	8	0	0	300	300	472	46	0	1	1	blank2r.bmp	0	1	+	0	1	blank2r.bmp	252	1	JXXJ	306	1	schlecht	559	0	0	0	0	0	0	0	0	0	0	0	0	0	0	0	0	0	0	0	0	0	0	0	0	0	0	0	0	0	0	0	0	0	0	0	0	0	0	0
071019	13:08:31	13:15:47	435390	5.0.10.0	5_exp_noRW	42	Rpleas_acq	CS_B	MQQM	VKKV	JXXJ	BZZB	GWWG	YDDY	schön	spielen	treu	fair	ehrlich	retten	schlecht	strafen	tot	faul	eitel	rächen	47pct	acq_USunple_CSunple2_noRW	acq23456_noRW	3	9	0	0	300	300	521	46	0	1	1	blank2r.bmp	0	1	+	0	1	blank2r.bmp	252	1	BZZB	306	2	eitel	559	0	0	0	0	0	0	0	0	0	0	0	0	0	0	0	0	0	0	0	0	0	0	0	0	0	0	0	0	0	0	0	0	0	0	0	0	0	0	0
071019	13:08:31	13:15:48	436990	5.0.10.0	5_exp_noRW	42	Rpleas_acq	CS_B	MQQM	VKKV	JXXJ	BZZB	GWWG	YDDY	schön	spielen	treu	fair	ehrlich	retten	schlecht	strafen	tot	faul	eitel	rächen	47pct	acq_USpleas_CSpleas1_noRW	acq23456_noRW	3	10	0	0	300	300	417	50	0	1	1	blank2r.bmp	0	1	+	0	1	blank2r.bmp	252	1	MQQM	306	2	spielen	559	0	0	0	0	0	0	0	0	0	0	0	0	0	0	0	0	0	0	0	0	0	0	0	0	0	0	0	0	0	0	0	0	0	0	0	0	0	0	0
071019	13:08:31	13:15:50	438856	5.0.10.0	5_exp_noRW	42	Rpleas_acq	CS_B	MQQM	VKKV	JXXJ	BZZB	GWWG	YDDY	schön	spielen	treu	fair	ehrlich	retten	schlecht	strafen	tot	faul	eitel	rächen	53pct	acq_USunple_CSunple2_noRW	acq23456_noRW	3	11	0	0	300	300	699	46	0	1	1	blank2r.bmp	0	1	+	0	1	blank2r.bmp	252	1	BZZB	306	3	rächen	559	0	0	0	0	0	0	0	0	0	0	0	0	0	0	0	0	0	0	0	0	0	0	0	0	0	0	0	0	0	0	0	0	0	0	0	0	0	0	0
071019	13:08:31	13:15:52	440482	5.0.10.0	5_exp_noRW	42	Rpleas_acq	CS_B	MQQM	VKKV	JXXJ	BZZB	GWWG	YDDY	schön	spielen	treu	fair	ehrlich	retten	schlecht	strafen	tot	faul	eitel	rächen	47pct	acq_USunple_CSpleas1_noRW	acq23456_noRW	3	12	0	0	300	300	450	46	0	1	1	blank2r.bmp	0	1	+	0	1	blank2r.bmp	252	1	MQQM	306	2	strafen	559	0	0	0	0	0	0	0	0	0	0	0	0	0	0	0	0	0	0	0	0	0	0	0	0	0	0	0	0	0	0	0	0	0	0	0	0	0	0	0
071019	13:08:31	13:15:54	442294	5.0.10.0	5_exp_noRW	42	Rpleas_acq	CS_B	MQQM	VKKV	JXXJ	BZZB	GWWG	YDDY	schön	spielen	treu	fair	ehrlich	retten	schlecht	strafen	tot	faul	eitel	rächen	53pct	acq_USpleas_CSpleas1_noRW	acq23456_noRW	3	13	0	0	300	300	632	50	0	1	1	blank2r.bmp	0	1	+	0	1	blank2r.bmp	252	1	MQQM	306	3	treu	559	0	0	0	0	0	0	0	0	0	0	0	0	0	0	0	0	0	0	0	0	0	0	0	0	0	0	0	0	0	0	0	0	0	0	0	0	0	0	0
071019	13:08:31	13:15:55	444107	5.0.10.0	5_exp_noRW	42	Rpleas_acq	CS_B	MQQM	VKKV	JXXJ	BZZB	GWWG	YDDY	schön	spielen	treu	fair	ehrlich	retten	schlecht	strafen	tot	faul	eitel	rächen	47pct	acq_USunple_CSpleas2_noRW	acq23456_noRW	3	14	0	0	300	300	651	46	0	1	1	blank2r.bmp	0	1	+	0	1	blank2r.bmp	252	1	VKKV	306	2	eitel	559	0	0	0	0	0	0	0	0	0	0	0	0	0	0	0	0	0	0	0	0	0	0	0	0	0	0	0	0	0	0	0	0	0	0	0	0	0	0	0
071019	13:08:31	13:15:57	445746	5.0.10.0	5_exp_noRW	42	Rpleas_acq	CS_B	MQQM	VKKV	JXXJ	BZZB	GWWG	YDDY	schön	spielen	treu	fair	ehrlich	retten	schlecht	strafen	tot	faul	eitel	rächen	53pct	acq_USpleas_CSpleas1_noRW	acq23456_noRW	3	15	0	0	300	300	462	50	0	1	1	blank2r.bmp	0	1	+	0	1	blank2r.bmp	252	1	MQQM	306	1	schön	559	0	0	0	0	0	0	0	0	0	0	0	0	0	0	0	0	0	0	0	0	0	0	0	0	0	0	0	0	0	0	0	0	0	0	0	0	0	0	0
071019	13:08:31	13:15:59	447452	5.0.10.0	5_exp_noRW	42	Rpleas_acq	CS_B	MQQM	VKKV	JXXJ	BZZB	GWWG	YDDY	schön	spielen	treu	fair	ehrlich	retten	schlecht	strafen	tot	faul	eitel	rächen	53pct	acq_USpleas_CSpleas2_noRW	acq23456_noRW	3	16	0	0	300	300	521	50	0	1	1	blank2r.bmp	0	1	+	0	1	blank2r.bmp	252	1	VKKV	306	3	retten	559	0	0	0	0	0	0	0	0	0	0	0	0	0	0	0	0	0	0	0	0	0	0	0	0	0	0	0	0	0	0	0	0	0	0	0	0	0	0	0
071019	13:08:31	13:16:00	449171	5.0.10.0	5_exp_noRW	42	Rpleas_acq	CS_B	MQQM	VKKV	JXXJ	BZZB	GWWG	YDDY	schön	spielen	treu	fair	ehrlich	retten	schlecht	strafen	tot	faul	eitel	rächen	47pct	acq_USunple_CSunple2_noRW	acq23456_noRW	3	17	0	0	300	300	537	46	0	1	1	blank2r.bmp	0	1	+	0	1	blank2r.bmp	252	1	BZZB	306	1	faul	559	0	0	0	0	0	0	0	0	0	0	0	0	0	0	0	0	0	0	0	0	0	0	0	0	0	0	0	0	0	0	0	0	0	0	0	0	0	0	0
071019	13:08:31	13:16:02	450931	5.0.10.0	5_exp_noRW	42	Rpleas_acq	CS_B	MQQM	VKKV	JXXJ	BZZB	GWWG	YDDY	schön	spielen	treu	fair	ehrlich	retten	schlecht	strafen	tot	faul	eitel	rächen	53pct	acq_USpleas_CSpleas2_noRW	acq23456_noRW	3	18	0	0	300	300	587	50	0	1	1	blank2r.bmp	0	1	+	0	1	blank2r.bmp	252	1	VKKV	306	2	ehrlich	559	0	0	0	0	0	0	0	0	0	0	0	0	0	0	0	0	0	0	0	0	0	0	0	0	0	0	0	0	0	0	0	0	0	0	0	0	0	0	0
071019	13:08:31	13:16:04	452570	5.0.10.0	5_exp_noRW	42	Rpleas_acq	CS_B	MQQM	VKKV	JXXJ	BZZB	GWWG	YDDY	schön	spielen	treu	fair	ehrlich	retten	schlecht	strafen	tot	faul	eitel	rächen	53pct	acq_USunple_CSunple1_noRW	acq23456_noRW	3	19	0	0	300	300	453	46	0	1	1	blank2r.bmp	0	1	+	0	1	blank2r.bmp	252	1	JXXJ	306	2	strafen	559	0	0	0	0	0	0	0	0	0	0	0	0	0	0	0	0	0	0	0	0	0	0	0	0	0	0	0	0	0	0	0	0	0	0	0	0	0	0	0
071019	13:08:31	13:16:05	454169	5.0.10.0	5_exp_noRW	42	Rpleas_acq	CS_B	MQQM	VKKV	JXXJ	BZZB	GWWG	YDDY	schön	spielen	treu	fair	ehrlich	retten	schlecht	strafen	tot	faul	eitel	rächen	47pct	acq_USpleas_CSpleas1_noRW	acq23456_noRW	3	20	0	0	300	300	437	50	0	1	1	blank2r.bmp	0	1	+	0	1	blank2r.bmp	252	1	MQQM	306	2	spielen	559	0	0	0	0	0	0	0	0	0	0	0	0	0	0	0	0	0	0	0	0	0	0	0	0	0	0	0	0	0	0	0	0	0	0	0	0	0	0	0
071019	13:08:31	13:16:07	456088	5.0.10.0	5_exp_noRW	42	Rpleas_acq	CS_B	MQQM	VKKV	JXXJ	BZZB	GWWG	YDDY	schön	spielen	treu	fair	ehrlich	retten	schlecht	strafen	tot	faul	eitel	rächen	53pct	acq_USunple_CSpleas2_noRW	acq23456_noRW	3	21	0	0	300	300	522	50	0	0	1	blank2r.bmp	0	1	+	0	1	blank2r.bmp	252	1	VKKV	306	1	faul	559	1	FEHLER	1119	0	0	0	0	0	0	0	0	0	0	0	0	0	0	0	0	0	0	0	0	0	0	0	0	0	0	0	0	0	0	0	0	0	0	0	0
071019	13:08:31	13:16:09	457674	5.0.10.0	5_exp_noRW	42	Rpleas_acq	CS_B	MQQM	VKKV	JXXJ	BZZB	GWWG	YDDY	schön	spielen	treu	fair	ehrlich	retten	schlecht	strafen	tot	faul	eitel	rächen	53pct	acq_USpleas_CSpleas2_noRW	acq23456_noRW	3	22	0	0	300	300	409	46	0	0	1	blank2r.bmp	0	1	+	0	1	blank2r.bmp	252	1	VKKV	306	2	ehrlich	559	1	FEHLER	999	0	0	0	0	0	0	0	0	0	0	0	0	0	0	0	0	0	0	0	0	0	0	0	0	0	0	0	0	0	0	0	0	0	0	0	0
071019	13:08:31	13:16:12	460247	5.0.10.0	5_exp_noRW	42	Rpleas_acq	CS_B	MQQM	VKKV	JXXJ	BZZB	GWWG	YDDY	schön	spielen	treu	fair	ehrlich	retten	schlecht	strafen	tot	faul	eitel	rächen	53pct	acq_USpleas_CSpleas2_noRW	acq23456_noRW	3	23	0	0	300	300	1606	50	0	1	1	blank2r.bmp	0	1	+	0	1	blank2r.bmp	252	1	VKKV	306	3	retten	559	0	0	0	0	0	0	0	0	0	0	0	0	0	0	0	0	0	0	0	0	0	0	0	0	0	0	0	0	0	0	0	0	0	0	0	0	0	0	0
071019	13:08:31	13:16:13	461899	5.0.10.0	5_exp_noRW	42	Rpleas_acq	CS_B	MQQM	VKKV	JXXJ	BZZB	GWWG	YDDY	schön	spielen	treu	fair	ehrlich	retten	schlecht	strafen	tot	faul	eitel	rächen	47pct	acq_USunple_CSunple1_noRW	acq23456_noRW	3	24	0	0	300	300	484	46	0	1	1	blank2r.bmp	0	1	+	0	1	blank2r.bmp	252	1	JXXJ	306	2	strafen	559	0	0	0	0	0	0	0	0	0	0	0	0	0	0	0	0	0	0	0	0	0	0	0	0	0	0	0	0	0	0	0	0	0	0	0	0	0	0	0
071019	13:08:31	13:16:15	463592	5.0.10.0	5_exp_noRW	42	Rpleas_acq	CS_B	MQQM	VKKV	JXXJ	BZZB	GWWG	YDDY	schön	spielen	treu	fair	ehrlich	retten	schlecht	strafen	tot	faul	eitel	rächen	47pct	acq_USpleas_CSpleas2_noRW	acq23456_noRW	3	25	0	0	300	300	529	50	0	1	1	blank2r.bmp	0	1	+	0	1	blank2r.bmp	252	1	VKKV	306	1	fair	559	0	0	0	0	0	0	0	0	0	0	0	0	0	0	0	0	0	0	0	0	0	0	0	0	0	0	0	0	0	0	0	0	0	0	0	0	0	0	0
071019	13:08:31	13:16:17	465338	5.0.10.0	5_exp_noRW	42	Rpleas_acq	CS_B	MQQM	VKKV	JXXJ	BZZB	GWWG	YDDY	schön	spielen	treu	fair	ehrlich	retten	schlecht	strafen	tot	faul	eitel	rächen	53pct	acq_USpleas_CSunple2_noRW	acq23456_noRW	3	26	0	0	300	300	570	50	0	1	1	blank2r.bmp	0	1	+	0	1	blank2r.bmp	252	1	BZZB	306	3	retten	559	0	0	0	0	0	0	0	0	0	0	0	0	0	0	0	0	0	0	0	0	0	0	0	0	0	0	0	0	0	0	0	0	0	0	0	0	0	0	0
071019	13:08:31	13:16:18	466924	5.0.10.0	5_exp_noRW	42	Rpleas_acq	CS_B	MQQM	VKKV	JXXJ	BZZB	GWWG	YDDY	schön	spielen	treu	fair	ehrlich	retten	schlecht	strafen	tot	faul	eitel	rächen	53pct	acq_USunple_CSunple1_noRW	acq23456_noRW	3	27	0	0	300	300	409	46	0	1	1	blank2r.bmp	0	1	+	0	1	blank2r.bmp	252	1	JXXJ	306	3	tot	559	0	0	0	0	0	0	0	0	0	0	0	0	0	0	0	0	0	0	0	0	0	0	0	0	0	0	0	0	0	0	0	0	0	0	0	0	0	0	0
071019	13:08:31	13:16:20	468563	5.0.10.0	5_exp_noRW	42	Rpleas_acq	CS_B	MQQM	VKKV	JXXJ	BZZB	GWWG	YDDY	schön	spielen	treu	fair	ehrlich	retten	schlecht	strafen	tot	faul	eitel	rächen	53pct	acq_USunple_CSunple1_noRW	acq23456_noRW	3	28	0	0	300	300	473	46	0	1	1	blank2r.bmp	0	1	+	0	1	blank2r.bmp	252	1	JXXJ	306	1	schlecht	559	0	0	0	0	0	0	0	0	0	0	0	0	0	0	0	0	0	0	0	0	0	0	0	0	0	0	0	0	0	0	0	0	0	0	0	0	0	0	0
071019	13:08:31	13:16:22	470309	5.0.10.0	5_exp_noRW	42	Rpleas_acq	CS_B	MQQM	VKKV	JXXJ	BZZB	GWWG	YDDY	schön	spielen	treu	fair	ehrlich	retten	schlecht	strafen	tot	faul	eitel	rächen	53pct	acq_USunple_CSunple2_noRW	acq23456_noRW	3	29	0	0	300	300	579	46	0	1	1	blank2r.bmp	0	1	+	0	1	blank2r.bmp	252	1	BZZB	306	2	eitel	559	0	0	0	0	0	0	0	0	0	0	0	0	0	0	0	0	0	0	0	0	0	0	0	0	0	0	0	0	0	0	0	0	0	0	0	0	0	0	0
071019	13:08:31	13:16:23	471935	5.0.10.0	5_exp_noRW	42	Rpleas_acq	CS_B	MQQM	VKKV	JXXJ	BZZB	GWWG	YDDY	schön	spielen	treu	fair	ehrlich	retten	schlecht	strafen	tot	faul	eitel	rächen	47pct	acq_USunple_CSpleas1_noRW	acq23456_noRW	3	30	0	0	300	300	452	46	0	1	1	blank2r.bmp	0	1	+	0	1	blank2r.bmp	252	1	MQQM	306	1	schlecht	559	0	0	0	0	0	0	0	0	0	0	0	0	0	0	0	0	0	0	0	0	0	0	0	0	0	0	0	0	0	0	0	0	0	0	0	0	0	0	0
071019	13:08:31	13:16:25	473574	5.0.10.0	5_exp_noRW	42	Rpleas_acq	CS_B	MQQM	VKKV	JXXJ	BZZB	GWWG	YDDY	schön	spielen	treu	fair	ehrlich	retten	schlecht	strafen	tot	faul	eitel	rächen	53pct	acq_USunple_CSunple2_noRW	acq23456_noRW	3	31	0	0	300	300	472	46	0	1	1	blank2r.bmp	0	1	+	0	1	blank2r.bmp	252	1	BZZB	306	3	rächen	559	0	0	0	0	0	0	0	0	0	0	0	0	0	0	0	0	0	0	0	0	0	0	0	0	0	0	0	0	0	0	0	0	0	0	0	0	0	0	0
071019	13:08:31	13:16:27	475267	5.0.10.0	5_exp_noRW	42	Rpleas_acq	CS_B	MQQM	VKKV	JXXJ	BZZB	GWWG	YDDY	schön	spielen	treu	fair	ehrlich	retten	schlecht	strafen	tot	faul	eitel	rächen	47pct	acq_USpleas_CSunple1_noRW	acq23456_noRW	3	32	0	0	300	300	511	50	0	1	1	blank2r.bmp	0	1	+	0	1	blank2r.bmp	252	1	JXXJ	306	1	schön	559	0	0	0	0	0	0	0	0	0	0	0	0	0	0	0	0	0	0	0	0	0	0	0	0	0	0	0	0	0	0	0	0	0	0	0	0	0	0	0
071019	13:08:31	13:16:28	477146	5.0.10.0	5_exp_noRW	42	Rpleas_acq	CS_B	MQQM	VKKV	JXXJ	BZZB	GWWG	YDDY	schön	spielen	treu	fair	ehrlich	retten	schlecht	strafen	tot	faul	eitel	rächen	47pct	acq_USpleas_CSpleas2_noRW	acq23456_noRW	3	33	0	0	300	300	709	50	0	1	1	blank2r.bmp	0	1	+	0	1	blank2r.bmp	252	1	VKKV	306	3	retten	559	0	0	0	0	0	0	0	0	0	0	0	0	0	0	0	0	0	0	0	0	0	0	0	0	0	0	0	0	0	0	0	0	0	0	0	0	0	0	0
071019	13:08:31	13:16:30	478772	5.0.10.0	5_exp_noRW	42	Rpleas_acq	CS_B	MQQM	VKKV	JXXJ	BZZB	GWWG	YDDY	schön	spielen	treu	fair	ehrlich	retten	schlecht	strafen	tot	faul	eitel	rächen	47pct	acq_USpleas_CSpleas1_noRW	acq23456_noRW	3	34	0	0	300	300	461	50	0	1	1	blank2r.bmp	0	1	+	0	1	blank2r.bmp	252	1	MQQM	306	2	spielen	559	0	0	0	0	0	0	0	0	0	0	0	0	0	0	0	0	0	0	0	0	0	0	0	0	0	0	0	0	0	0	0	0	0	0	0	0	0	0	0
071019	13:08:31	13:16:32	480398	5.0.10.0	5_exp_noRW	42	Rpleas_acq	CS_B	MQQM	VKKV	JXXJ	BZZB	GWWG	YDDY	schön	spielen	treu	fair	ehrlich	retten	schlecht	strafen	tot	faul	eitel	rächen	53pct	acq_USpleas_CSpleas1_noRW	acq23456_noRW	3	35	0	0	300	300	445	50	0	1	1	blank2r.bmp	0	1	+	0	1	blank2r.bmp	252	1	MQQM	306	3	treu	559	0	0	0	0	0	0	0	0	0	0	0	0	0	0	0	0	0	0	0	0	0	0	0	0	0	0	0	0	0	0	0	0	0	0	0	0	0	0	0
071019	13:08:31	13:16:33	481931	5.0.10.0	5_exp_noRW	42	Rpleas_acq	CS_B	MQQM	VKKV	JXXJ	BZZB	GWWG	YDDY	schön	spielen	treu	fair	ehrlich	retten	schlecht	strafen	tot	faul	eitel	rächen	53pct	acq_USunple_CSunple1_noRW	acq23456_noRW	3	36	0	0	300	300	357	46	0	1	1	blank2r.bmp	0	1	+	0	1	blank2r.bmp	252	1	JXXJ	306	1	schlecht	559	0	0	0	0	0	0	0	0	0	0	0	0	0	0	0	0	0	0	0	0	0	0	0	0	0	0	0	0	0	0	0	0	0	0	0	0	0	0	0
071019	13:08:31	13:16:35	483717	5.0.10.0	5_exp_noRW	42	Rpleas_acq	CS_B	MQQM	VKKV	JXXJ	BZZB	GWWG	YDDY	schön	spielen	treu	fair	ehrlich	retten	schlecht	strafen	tot	faul	eitel	rächen	53pct	acq_USunple_CSunple2_noRW	acq23456_noRW	3	37	0	0	300	300	604	46	0	1	1	blank2r.bmp	0	1	+	0	1	blank2r.bmp	252	1	BZZB	306	1	faul	559	0	0	0	0	0	0	0	0	0	0	0	0	0	0	0	0	0	0	0	0	0	0	0	0	0	0	0	0	0	0	0	0	0	0	0	0	0	0	0
071019	13:08:31	13:16:37	485250	5.0.10.0	5_exp_noRW	42	Rpleas_acq	CS_B	MQQM	VKKV	JXXJ	BZZB	GWWG	YDDY	schön	spielen	treu	fair	ehrlich	retten	schlecht	strafen	tot	faul	eitel	rächen	53pct	acq_USpleas_CSpleas1_noRW	acq23456_noRW	3	38	0	0	300	300	350	50	0	1	1	blank2r.bmp	0	1	+	0	1	blank2r.bmp	252	1	MQQM	306	1	schön	559	0	0	0	0	0	0	0	0	0	0	0	0	0	0	0	0	0	0	0	0	0	0	0	0	0	0	0	0	0	0	0	0	0	0	0	0	0	0	0
071019	13:08:31	13:16:38	486982	5.0.10.0	5_exp_noRW	42	Rpleas_acq	CS_B	MQQM	VKKV	JXXJ	BZZB	GWWG	YDDY	schön	spielen	treu	fair	ehrlich	retten	schlecht	strafen	tot	faul	eitel	rächen	47pct	acq_USunple_CSunple2_noRW	acq23456_noRW	3	39	0	0	300	300	555	46	0	1	1	blank2r.bmp	0	1	+	0	1	blank2r.bmp	252	1	BZZB	306	2	eitel	559	0	0	0	0	0	0	0	0	0	0	0	0	0	0	0	0	0	0	0	0	0	0	0	0	0	0	0	0	0	0	0	0	0	0	0	0	0	0	0
071019	13:08:31	13:16:40	489101	5.0.10.0	5_exp_noRW	42	Rpleas_acq	CS_B	MQQM	VKKV	JXXJ	BZZB	GWWG	YDDY	schön	spielen	treu	fair	ehrlich	retten	schlecht	strafen	tot	faul	eitel	rächen	47pct	acq_USpleas_CSpleas1_noRW	acq23456_noRW	3	40	0	0	300	300	937	50	0	1	1	blank2r.bmp	0	1	+	0	1	blank2r.bmp	252	1	MQQM	306	3	treu	559	0	0	0	0	0	0	0	0	0	0	0	0	0	0	0	0	0	0	0	0	0	0	0	0	0	0	0	0	0	0	0	0	0	0	0	0	0	0	0
071019	13:08:31	13:16:42	491180	5.0.10.0	5_exp_noRW	42	Rpleas_acq	CS_B	MQQM	VKKV	JXXJ	BZZB	GWWG	YDDY	schön	spielen	treu	fair	ehrlich	retten	schlecht	strafen	tot	faul	eitel	rächen	53pct	acq_USpleas_CSpleas1_noRW	acq23456_noRW	3	41	0	0	300	300	904	50	0	1	1	blank2r.bmp	0	1	+	0	1	blank2r.bmp	252	1	MQQM	306	1	schön	559	0	0	0	0	0	0	0	0	0	0	0	0	0	0	0	0	0	0	0	0	0	0	0	0	0	0	0	0	0	0	0	0	0	0	0	0	0	0	0
071019	13:08:31	13:16:44	492793	5.0.10.0	5_exp_noRW	42	Rpleas_acq	CS_B	MQQM	VKKV	JXXJ	BZZB	GWWG	YDDY	schön	spielen	treu	fair	ehrlich	retten	schlecht	strafen	tot	faul	eitel	rächen	53pct	acq_USpleas_CSpleas2_noRW	acq23456_noRW	3	42	0	0	300	300	424	50	0	1	1	blank2r.bmp	0	1	+	0	1	blank2r.bmp	252	1	VKKV	306	1	fair	559	0	0	0	0	0	0	0	0	0	0	0	0	0	0	0	0	0	0	0	0	0	0	0	0	0	0	0	0	0	0	0	0	0	0	0	0	0	0	0
071019	13:08:31	13:16:46	494459	5.0.10.0	5_exp_noRW	42	Rpleas_acq	CS_B	MQQM	VKKV	JXXJ	BZZB	GWWG	YDDY	schön	spielen	treu	fair	ehrlich	retten	schlecht	strafen	tot	faul	eitel	rächen	47pct	acq_USpleas_CSunple1_noRW	acq23456_noRW	3	43	0	0	300	300	483	50	0	1	1	blank2r.bmp	0	1	+	0	1	blank2r.bmp	252	1	JXXJ	306	3	treu	559	0	0	0	0	0	0	0	0	0	0	0	0	0	0	0	0	0	0	0	0	0	0	0	0	0	0	0	0	0	0	0	0	0	0	0	0	0	0	0
071019	13:08:31	13:16:47	496032	5.0.10.0	5_exp_noRW	42	Rpleas_acq	CS_B	MQQM	VKKV	JXXJ	BZZB	GWWG	YDDY	schön	spielen	treu	fair	ehrlich	retten	schlecht	strafen	tot	faul	eitel	rächen	47pct	acq_USpleas_CSpleas2_noRW	acq23456_noRW	3	44	0	0	300	300	403	50	0	1	1	blank2r.bmp	0	1	+	0	1	blank2r.bmp	252	1	VKKV	306	2	ehrlich	559	0	0	0	0	0	0	0	0	0	0	0	0	0	0	0	0	0	0	0	0	0	0	0	0	0	0	0	0	0	0	0	0	0	0	0	0	0	0	0
071019	13:08:31	13:16:49	497604	5.0.10.0	5_exp_noRW	42	Rpleas_acq	CS_B	MQQM	VKKV	JXXJ	BZZB	GWWG	YDDY	schön	spielen	treu	fair	ehrlich	retten	schlecht	strafen	tot	faul	eitel	rächen	47pct	acq_USunple_CSunple1_noRW	acq23456_noRW	3	45	0	0	300	300	403	46	0	1	1	blank2r.bmp	0	1	+	0	1	blank2r.bmp	252	1	JXXJ	306	2	strafen	559	0	0	0	0	0	0	0	0	0	0	0	0	0	0	0	0	0	0	0	0	0	0	0	0	0	0	0	0	0	0	0	0	0	0	0	0	0	0	0
071019	13:08:31	13:16:51	499457	5.0.10.0	5_exp_noRW	42	Rpleas_acq	CS_B	MQQM	VKKV	JXXJ	BZZB	GWWG	YDDY	schön	spielen	treu	fair	ehrlich	retten	schlecht	strafen	tot	faul	eitel	rächen	47pct	acq_USpleas_CSpleas2_noRW	acq23456_noRW	3	46	0	0	300	300	670	50	0	1	1	blank2r.bmp	0	1	+	0	1	blank2r.bmp	252	1	VKKV	306	2	ehrlich	559	0	0	0	0	0	0	0	0	0	0	0	0	0	0	0	0	0	0	0	0	0	0	0	0	0	0	0	0	0	0	0	0	0	0	0	0	0	0	0
071019	13:08:31	13:16:52	501070	5.0.10.0	5_exp_noRW	42	Rpleas_acq	CS_B	MQQM	VKKV	JXXJ	BZZB	GWWG	YDDY	schön	spielen	treu	fair	ehrlich	retten	schlecht	strafen	tot	faul	eitel	rächen	53pct	acq_USunple_CSunple2_noRW	acq23456_noRW	3	47	0	0	300	300	430	46	0	1	1	blank2r.bmp	0	1	+	0	1	blank2r.bmp	252	1	BZZB	306	1	faul	559	0	0	0	0	0	0	0	0	0	0	0	0	0	0	0	0	0	0	0	0	0	0	0	0	0	0	0	0	0	0	0	0	0	0	0	0	0	0	0
071019	13:08:31	13:16:54	502829	5.0.10.0	5_exp_noRW	42	Rpleas_acq	CS_B	MQQM	VKKV	JXXJ	BZZB	GWWG	YDDY	schön	spielen	treu	fair	ehrlich	retten	schlecht	strafen	tot	faul	eitel	rächen	53pct	acq_USunple_CSunple1_noRW	acq23456_noRW	3	48	0	0	300	300	586	46	0	1	1	blank2r.bmp	0	1	+	0	1	blank2r.bmp	252	1	JXXJ	306	3	tot	559	0	0	0	0	0	0	0	0	0	0	0	0	0	0	0	0	0	0	0	0	0	0	0	0	0	0	0	0	0	0	0	0	0	0	0	0	0	0	0
071019	13:08:31	13:16:56	504428	5.0.10.0	5_exp_noRW	42	Rpleas_acq	CS_B	MQQM	VKKV	JXXJ	BZZB	GWWG	YDDY	schön	spielen	treu	fair	ehrlich	retten	schlecht	strafen	tot	faul	eitel	rächen	53pct	acq_USunple_CSpleas1_noRW	acq23456_noRW	3	49	0	0	300	300	422	46	0	1	1	blank2r.bmp	0	1	+	0	1	blank2r.bmp	252	1	MQQM	306	3	tot	559	0	0	0	0	0	0	0	0	0	0	0	0	0	0	0	0	0	0	0	0	0	0	0	0	0	0	0	0	0	0	0	0	0	0	0	0	0	0	0
071019	13:08:31	13:16:57	506174	5.0.10.0	5_exp_noRW	42	Rpleas_acq	CS_B	MQQM	VKKV	JXXJ	BZZB	GWWG	YDDY	schön	spielen	treu	fair	ehrlich	retten	schlecht	strafen	tot	faul	eitel	rächen	53pct	acq_USpleas_CSunple2_noRW	acq23456_noRW	3	50	0	0	300	300	564	50	0	1	1	blank2r.bmp	0	1	+	0	1	blank2r.bmp	252	1	BZZB	306	2	ehrlich	559	0	0	0	0	0	0	0	0	0	0	0	0	0	0	0	0	0	0	0	0	0	0	0	0	0	0	0	0	0	0	0	0	0	0	0	0	0	0	0
071019	13:08:31	13:16:59	507760	5.0.10.0	5_exp_noRW	42	Rpleas_acq	CS_B	MQQM	VKKV	JXXJ	BZZB	GWWG	YDDY	schön	spielen	treu	fair	ehrlich	retten	schlecht	strafen	tot	faul	eitel	rächen	53pct	acq_USpleas_CSpleas1_noRW	acq23456_noRW	3	51	0	0	300	300	424	50	0	1	1	blank2r.bmp	0	1	+	0	1	blank2r.bmp	252	1	MQQM	306	2	spielen	559	0	0	0	0	0	0	0	0	0	0	0	0	0	0	0	0	0	0	0	0	0	0	0	0	0	0	0	0	0	0	0	0	0	0	0	0	0	0	0
071019	13:08:31	13:17:01	509653	5.0.10.0	5_exp_noRW	42	Rpleas_acq	CS_B	MQQM	VKKV	JXXJ	BZZB	GWWG	YDDY	schön	spielen	treu	fair	ehrlich	retten	schlecht	strafen	tot	faul	eitel	rächen	53pct	acq_USunple_CSpleas2_noRW	acq23456_noRW	3	52	0	0	300	300	718	46	0	1	1	blank2r.bmp	0	1	+	0	1	blank2r.bmp	252	1	VKKV	306	2	eitel	559	0	0	0	0	0	0	0	0	0	0	0	0	0	0	0	0	0	0	0	0	0	0	0	0	0	0	0	0	0	0	0	0	0	0	0	0	0	0	0
071019	13:08:31	13:17:03	511345	5.0.10.0	5_exp_noRW	42	Rpleas_acq	CS_B	MQQM	VKKV	JXXJ	BZZB	GWWG	YDDY	schön	spielen	treu	fair	ehrlich	retten	schlecht	strafen	tot	faul	eitel	rächen	47pct	acq_USunple_CSunple2_noRW	acq23456_noRW	3	53	0	0	300	300	506	46	0	1	1	blank2r.bmp	0	1	+	0	1	blank2r.bmp	252	1	BZZB	306	3	rächen	559	0	0	0	0	0	0	0	0	0	0	0	0	0	0	0	0	0	0	0	0	0	0	0	0	0	0	0	0	0	0	0	0	0	0	0	0	0	0	0
071019	13:08:31	13:17:04	513198	5.0.10.0	5_exp_noRW	42	Rpleas_acq	CS_B	MQQM	VKKV	JXXJ	BZZB	GWWG	YDDY	schön	spielen	treu	fair	ehrlich	retten	schlecht	strafen	tot	faul	eitel	rächen	47pct	acq_USpleas_CSpleas1_noRW	acq23456_noRW	3	54	0	0	300	300	687	50	0	1	1	blank2r.bmp	0	1	+	0	1	blank2r.bmp	252	1	MQQM	306	2	spielen	559	0	0	0	0	0	0	0	0	0	0	0	0	0	0	0	0	0	0	0	0	0	0	0	0	0	0	0	0	0	0	0	0	0	0	0	0	0	0	0
071019	13:08:31	13:17:06	514904	5.0.10.0	5_exp_noRW	42	Rpleas_acq	CS_B	MQQM	VKKV	JXXJ	BZZB	GWWG	YDDY	schön	spielen	treu	fair	ehrlich	retten	schlecht	strafen	tot	faul	eitel	rächen	47pct	acq_USunple_CSunple2_noRW	acq23456_noRW	3	55	0	0	300	300	524	46	0	1	1	blank2r.bmp	0	1	+	0	1	blank2r.bmp	252	1	BZZB	306	2	eitel	559	0	0	0	0	0	0	0	0	0	0	0	0	0	0	0	0	0	0	0	0	0	0	0	0	0	0	0	0	0	0	0	0	0	0	0	0	0	0	0
071019	13:08:31	13:17:08	516690	5.0.10.0	5_exp_noRW	42	Rpleas_acq	CS_B	MQQM	VKKV	JXXJ	BZZB	GWWG	YDDY	schön	spielen	treu	fair	ehrlich	retten	schlecht	strafen	tot	faul	eitel	rächen	53pct	acq_USunple_CSunple2_noRW	acq23456_noRW	3	56	0	0	300	300	605	46	0	1	1	blank2r.bmp	0	1	+	0	1	blank2r.bmp	252	1	BZZB	306	3	rächen	559	0	0	0	0	0	0	0	0	0	0	0	0	0	0	0	0	0	0	0	0	0	0	0	0	0	0	0	0	0	0	0	0	0	0	0	0	0	0	0
071019	13:08:31	13:17:10	518582	5.0.10.0	5_exp_noRW	42	Rpleas_acq	CS_B	MQQM	VKKV	JXXJ	BZZB	GWWG	YDDY	schön	spielen	treu	fair	ehrlich	retten	schlecht	strafen	tot	faul	eitel	rächen	47pct	acq_USunple_CSunple1_noRW	acq23456_noRW	3	57	0	0	300	300	731	46	0	1	1	blank2r.bmp	0	1	+	0	1	blank2r.bmp	252	1	JXXJ	306	2	strafen	559	0	0	0	0	0	0	0	0	0	0	0	0	0	0	0	0	0	0	0	0	0	0	0	0	0	0	0	0	0	0	0	0	0	0	0	0	0	0	0
071019	13:08:31	13:17:11	520195	5.0.10.0	5_exp_noRW	42	Rpleas_acq	CS_B	MQQM	VKKV	JXXJ	BZZB	GWWG	YDDY	schön	spielen	treu	fair	ehrlich	retten	schlecht	strafen	tot	faul	eitel	rächen	47pct	acq_USunple_CSunple1_noRW	acq23456_noRW	3	58	0	0	300	300	433	46	0	1	1	blank2r.bmp	0	1	+	0	1	blank2r.bmp	252	1	JXXJ	306	1	schlecht	559	0	0	0	0	0	0	0	0	0	0	0	0	0	0	0	0	0	0	0	0	0	0	0	0	0	0	0	0	0	0	0	0	0	0	0	0	0	0	0
071019	13:08:31	13:17:13	522008	5.0.10.0	5_exp_noRW	42	Rpleas_acq	CS_B	MQQM	VKKV	JXXJ	BZZB	GWWG	YDDY	schön	spielen	treu	fair	ehrlich	retten	schlecht	strafen	tot	faul	eitel	rächen	47pct	acq_USpleas_CSpleas1_noRW	acq23456_noRW	3	59	0	0	300	300	649	50	0	1	1	blank2r.bmp	0	1	+	0	1	blank2r.bmp	252	1	MQQM	306	3	treu	559	0	0	0	0	0	0	0	0	0	0	0	0	0	0	0	0	0	0	0	0	0	0	0	0	0	0	0	0	0	0	0	0	0	0	0	0	0	0	0
071019	13:08:31	13:17:15	523740	5.0.10.0	5_exp_noRW	42	Rpleas_acq	CS_B	MQQM	VKKV	JXXJ	BZZB	GWWG	YDDY	schön	spielen	treu	fair	ehrlich	retten	schlecht	strafen	tot	faul	eitel	rächen	47pct	acq_USpleas_CSpleas2_noRW	acq23456_noRW	3	60	0	0	300	300	547	50	0	1	1	blank2r.bmp	0	1	+	0	1	blank2r.bmp	252	1	VKKV	306	3	retten	559	0	0	0	0	0	0	0	0	0	0	0	0	0	0	0	0	0	0	0	0	0	0	0	0	0	0	0	0	0	0	0	0	0	0	0	0	0	0	0
071019	13:08:31	13:17:17	525326	5.0.10.0	5_exp_noRW	42	Rpleas_acq	CS_B	MQQM	VKKV	JXXJ	BZZB	GWWG	YDDY	schön	spielen	treu	fair	ehrlich	retten	schlecht	strafen	tot	faul	eitel	rächen	53pct	acq_USpleas_CSpleas1_noRW	acq23456_noRW	3	61	0	0	300	300	413	50	0	1	1	blank2r.bmp	0	1	+	0	1	blank2r.bmp	252	1	MQQM	306	1	schön	559	0	0	0	0	0	0	0	0	0	0	0	0	0	0	0	0	0	0	0	0	0	0	0	0	0	0	0	0	0	0	0	0	0	0	0	0	0	0	0
071019	13:08:31	13:17:18	526965	5.0.10.0	5_exp_noRW	42	Rpleas_acq	CS_B	MQQM	VKKV	JXXJ	BZZB	GWWG	YDDY	schön	spielen	treu	fair	ehrlich	retten	schlecht	strafen	tot	faul	eitel	rächen	53pct	acq_USpleas_CSpleas2_noRW	acq23456_noRW	3	62	0	0	300	300	457	50	0	1	1	blank2r.bmp	0	1	+	0	1	blank2r.bmp	252	1	VKKV	306	1	fair	559	0	0	0	0	0	0	0	0	0	0	0	0	0	0	0	0	0	0	0	0	0	0	0	0	0	0	0	0	0	0	0	0	0	0	0	0	0	0	0
071019	13:08:31	13:17:20	528658	5.0.10.0	5_exp_noRW	42	Rpleas_acq	CS_B	MQQM	VKKV	JXXJ	BZZB	GWWG	YDDY	schön	spielen	treu	fair	ehrlich	retten	schlecht	strafen	tot	faul	eitel	rächen	47pct	acq_USunple_CSunple2_noRW	acq23456_noRW	3	63	0	0	300	300	525	46	0	1	1	blank2r.bmp	0	1	+	0	1	blank2r.bmp	252	1	BZZB	306	1	faul	559	0	0	0	0	0	0	0	0	0	0	0	0	0	0	0	0	0	0	0	0	0	0	0	0	0	0	0	0	0	0	0	0	0	0	0	0	0	0	0
071019	13:08:31	13:17:22	530337	5.0.10.0	5_exp_noRW	42	Rpleas_acq	CS_B	MQQM	VKKV	JXXJ	BZZB	GWWG	YDDY	schön	spielen	treu	fair	ehrlich	retten	schlecht	strafen	tot	faul	eitel	rächen	47pct	acq_USpleas_CSpleas2_noRW	acq23456_noRW	3	64	0	0	300	300	499	50	0	1	1	blank2r.bmp	0	1	+	0	1	blank2r.bmp	252	1	VKKV	306	1	fair	559	0	0	0	0	0	0	0	0	0	0	0	0	0	0	0	0	0	0	0	0	0	0	0	0	0	0	0	0	0	0	0	0	0	0	0	0	0	0	0
071019	13:08:31	13:17:23	532110	5.0.10.0	5_exp_noRW	42	Rpleas_acq	CS_B	MQQM	VKKV	JXXJ	BZZB	GWWG	YDDY	schön	spielen	treu	fair	ehrlich	retten	schlecht	strafen	tot	faul	eitel	rächen	47pct	acq_USunple_CSunple1_noRW	acq23456_noRW	3	65	0	0	300	300	608	46	0	1	1	blank2r.bmp	0	1	+	0	1	blank2r.bmp	252	1	JXXJ	306	3	tot	559	0	0	0	0	0	0	0	0	0	0	0	0	0	0	0	0	0	0	0	0	0	0	0	0	0	0	0	0	0	0	0	0	0	0	0	0	0	0	0
071019	13:08:31	13:17:25	533803	5.0.10.0	5_exp_noRW	42	Rpleas_acq	CS_B	MQQM	VKKV	JXXJ	BZZB	GWWG	YDDY	schön	spielen	treu	fair	ehrlich	retten	schlecht	strafen	tot	faul	eitel	rächen	47pct	acq_USpleas_CSpleas2_noRW	acq23456_noRW	3	66	0	0	300	300	506	50	0	1	1	blank2r.bmp	0	1	+	0	1	blank2r.bmp	252	1	VKKV	306	3	retten	559	0	0	0	0	0	0	0	0	0	0	0	0	0	0	0	0	0	0	0	0	0	0	0	0	0	0	0	0	0	0	0	0	0	0	0	0	0	0	0
071019	13:08:31	13:17:27	535429	5.0.10.0	5_exp_noRW	42	Rpleas_acq	CS_B	MQQM	VKKV	JXXJ	BZZB	GWWG	YDDY	schön	spielen	treu	fair	ehrlich	retten	schlecht	strafen	tot	faul	eitel	rächen	47pct	acq_USpleas_CSpleas1_noRW	acq23456_noRW	3	67	0	0	300	300	458	50	0	1	1	blank2r.bmp	0	1	+	0	1	blank2r.bmp	252	1	MQQM	306	1	schön	559	0	0	0	0	0	0	0	0	0	0	0	0	0	0	0	0	0	0	0	0	0	0	0	0	0	0	0	0	0	0	0	0	0	0	0	0	0	0	0
071019	13:08:31	13:17:28	537028	5.0.10.0	5_exp_noRW	42	Rpleas_acq	CS_B	MQQM	VKKV	JXXJ	BZZB	GWWG	YDDY	schön	spielen	treu	fair	ehrlich	retten	schlecht	strafen	tot	faul	eitel	rächen	47pct	acq_USpleas_CSpleas1_noRW	acq23456_noRW	3	68	0	0	300	300	414	50	0	1	1	blank2r.bmp	0	1	+	0	1	blank2r.bmp	252	1	MQQM	306	2	spielen	559	0	0	0	0	0	0	0	0	0	0	0	0	0	0	0	0	0	0	0	0	0	0	0	0	0	0	0	0	0	0	0	0	0	0	0	0	0	0	0
071019	13:08:31	13:17:30	538681	5.0.10.0	5_exp_noRW	42	Rpleas_acq	CS_B	MQQM	VKKV	JXXJ	BZZB	GWWG	YDDY	schön	spielen	treu	fair	ehrlich	retten	schlecht	strafen	tot	faul	eitel	rächen	53pct	acq_USunple_CSunple2_noRW	acq23456_noRW	3	69	0	0	300	300	489	46	0	1	1	blank2r.bmp	0	1	+	0	1	blank2r.bmp	252	1	BZZB	306	3	rächen	559	0	0	0	0	0	0	0	0	0	0	0	0	0	0	0	0	0	0	0	0	0	0	0	0	0	0	0	0	0	0	0	0	0	0	0	0	0	0	0
071019	13:08:31	13:17:32	540293	5.0.10.0	5_exp_noRW	42	Rpleas_acq	CS_B	MQQM	VKKV	JXXJ	BZZB	GWWG	YDDY	schön	spielen	treu	fair	ehrlich	retten	schlecht	strafen	tot	faul	eitel	rächen	47pct	acq_USpleas_CSunple1_noRW	acq23456_noRW	3	70	0	0	300	300	444	50	0	1	1	blank2r.bmp	0	1	+	0	1	blank2r.bmp	252	1	JXXJ	306	2	spielen	559	0	0	0	0	0	0	0	0	0	0	0	0	0	0	0	0	0	0	0	0	0	0	0	0	0	0	0	0	0	0	0	0	0	0	0	0	0	0	0
071019	13:08:31	13:17:33	541946	5.0.10.0	5_exp_noRW	42	Rpleas_acq	CS_B	MQQM	VKKV	JXXJ	BZZB	GWWG	YDDY	schön	spielen	treu	fair	ehrlich	retten	schlecht	strafen	tot	faul	eitel	rächen	53pct	acq_USunple_CSunple2_noRW	acq23456_noRW	3	71	0	0	300	300	481	46	0	1	1	blank2r.bmp	0	1	+	0	1	blank2r.bmp	252	1	BZZB	306	2	eitel	559	0	0	0	0	0	0	0	0	0	0	0	0	0	0	0	0	0	0	0	0	0	0	0	0	0	0	0	0	0	0	0	0	0	0	0	0	0	0	0
071019	13:08:31	13:17:35	543585	5.0.10.0	5_exp_noRW	42	Rpleas_acq	CS_B	MQQM	VKKV	JXXJ	BZZB	GWWG	YDDY	schön	spielen	treu	fair	ehrlich	retten	schlecht	strafen	tot	faul	eitel	rächen	47pct	acq_USunple_CSunple1_noRW	acq23456_noRW	3	72	0	0	300	300	471	46	0	1	1	blank2r.bmp	0	1	+	0	1	blank2r.bmp	252	1	JXXJ	306	3	tot	559	0	0	0	0	0	0	0	0	0	0	0	0	0	0	0	0	0	0	0	0	0	0	0	0	0	0	0	0	0	0	0	0	0	0	0	0	0	0	0
071019	13:08:31	13:17:37	545264	5.0.10.0	5_exp_noRW	42	Rpleas_acq	CS_B	MQQM	VKKV	JXXJ	BZZB	GWWG	YDDY	schön	spielen	treu	fair	ehrlich	retten	schlecht	strafen	tot	faul	eitel	rächen	47pct	acq_USunple_CSpleas1_noRW	acq23456_noRW	3	73	0	0	300	300	507	46	0	1	1	blank2r.bmp	0	1	+	0	1	blank2r.bmp	252	1	MQQM	306	2	strafen	559	0	0	0	0	0	0	0	0	0	0	0	0	0	0	0	0	0	0	0	0	0	0	0	0	0	0	0	0	0	0	0	0	0	0	0	0	0	0	0
071019	13:08:31	13:17:39	547210	5.0.10.0	5_exp_noRW	42	Rpleas_acq	CS_B	MQQM	VKKV	JXXJ	BZZB	GWWG	YDDY	schön	spielen	treu	fair	ehrlich	retten	schlecht	strafen	tot	faul	eitel	rächen	53pct	acq_USpleas_CSpleas2_noRW	acq23456_noRW	3	74	0	0	300	300	783	50	0	1	1	blank2r.bmp	0	1	+	0	1	blank2r.bmp	252	1	VKKV	306	2	ehrlich	559	0	0	0	0	0	0	0	0	0	0	0	0	0	0	0	0	0	0	0	0	0	0	0	0	0	0	0	0	0	0	0	0	0	0	0	0	0	0	0
071019	13:08:31	13:17:40	548876	5.0.10.0	5_exp_noRW	42	Rpleas_acq	CS_B	MQQM	VKKV	JXXJ	BZZB	GWWG	YDDY	schön	spielen	treu	fair	ehrlich	retten	schlecht	strafen	tot	faul	eitel	rächen	53pct	acq_USunple_CSunple1_noRW	acq23456_noRW	3	75	0	0	300	300	482	46	0	1	1	blank2r.bmp	0	1	+	0	1	blank2r.bmp	252	1	JXXJ	306	1	schlecht	559	0	0	0	0	0	0	0	0	0	0	0	0	0	0	0	0	0	0	0	0	0	0	0	0	0	0	0	0	0	0	0	0	0	0	0	0	0	0	0
071019	13:08:31	13:17:42	550676	5.0.10.0	5_exp_noRW	42	Rpleas_acq	CS_B	MQQM	VKKV	JXXJ	BZZB	GWWG	YDDY	schön	spielen	treu	fair	ehrlich	retten	schlecht	strafen	tot	faul	eitel	rächen	47pct	acq_USunple_CSunple1_noRW	acq23456_noRW	3	76	0	0	300	300	627	46	0	1	1	blank2r.bmp	0	1	+	0	1	blank2r.bmp	252	1	JXXJ	306	2	strafen	559	0	0	0	0	0	0	0	0	0	0	0	0	0	0	0	0	0	0	0	0	0	0	0	0	0	0	0	0	0	0	0	0	0	0	0	0	0	0	0
071019	13:08:31	13:17:44	552355	5.0.10.0	5_exp_noRW	42	Rpleas_acq	CS_B	MQQM	VKKV	JXXJ	BZZB	GWWG	YDDY	schön	spielen	treu	fair	ehrlich	retten	schlecht	strafen	tot	faul	eitel	rächen	47pct	acq_USpleas_CSunple2_noRW	acq23456_noRW	3	77	0	0	300	300	497	50	0	1	1	blank2r.bmp	0	1	+	0	1	blank2r.bmp	252	1	BZZB	306	1	fair	559	0	0	0	0	0	0	0	0	0	0	0	0	0	0	0	0	0	0	0	0	0	0	0	0	0	0	0	0	0	0	0	0	0	0	0	0	0	0	0
071019	13:08:31	13:17:46	554287	5.0.10.0	5_exp_noRW	42	Rpleas_acq	CS_B	MQQM	VKKV	JXXJ	BZZB	GWWG	YDDY	schön	spielen	treu	fair	ehrlich	retten	schlecht	strafen	tot	faul	eitel	rächen	53pct	acq_USpleas_CSpleas1_noRW	acq23456_noRW	3	78	0	0	300	300	539	46	0	0	1	blank2r.bmp	0	1	+	0	1	blank2r.bmp	252	1	MQQM	306	3	treu	559	1	FEHLER	1132	0	0	0	0	0	0	0	0	0	0	0	0	0	0	0	0	0	0	0	0	0	0	0	0	0	0	0	0	0	0	0	0	0	0	0	0
071019	13:08:31	13:17:47	555647	5.0.10.0	5_exp_noRW	42	Rpleas_acq	CS_B	MQQM	VKKV	JXXJ	BZZB	GWWG	YDDY	schön	spielen	treu	fair	ehrlich	retten	schlecht	strafen	tot	faul	eitel	rächen	53pct	acq_USunple_CSpleas2_noRW	acq23456_noRW	3	79	0	0	300	300	389	46	0	1	1	blank2r.bmp	0	1	+	0	1	blank2r.bmp	252	1	VKKV	306	3	rächen	559	0	0	0	0	0	0	0	0	0	0	0	0	0	0	0	0	0	0	0	0	0	0	0	0	0	0	0	0	0	0	0	0	0	0	0	0	0	0	0
071019	13:08:31	13:17:49	557433	5.0.10.0	5_exp_noRW	42	Rpleas_acq	CS_B	MQQM	VKKV	JXXJ	BZZB	GWWG	YDDY	schön	spielen	treu	fair	ehrlich	retten	schlecht	strafen	tot	faul	eitel	rächen	47pct	acq_USunple_CSunple2_noRW	acq23456_noRW	3	80	0	0	300	300	611	46	0	1	1	blank2r.bmp	0	1	+	0	1	blank2r.bmp	252	1	BZZB	306	1	faul	559	0	0	0	0	0	0	0	0	0	0	0	0	0	0	0	0	0	0	0	0	0	0	0	0	0	0	0	0	0	0	0	0	0	0	0	0	0	0	0
071019	13:08:31	13:18:08	576651	5.0.10.0	5_exp_noRW	42	Rpleas_acq	CS_B	MQQM	VKKV	JXXJ	BZZB	GWWG	YDDY	schön	spielen	treu	fair	ehrlich	retten	schlecht	strafen	tot	faul	eitel	rächen	53pct	acq_USpleas_CSpleas2_noRW	acq23456_noRW	4	1	0	0	300	300	607	50	0	1	1	blank2r.bmp	0	1	+	0	1	blank2r.bmp	252	1	VKKV	306	3	retten	559	0	0	0	0	0	0	0	0	0	0	0	0	0	0	0	0	0	0	0	0	0	0	0	0	0	0	0	0	0	0	0	0	0	0	0	0	0	0	0
071019	13:08:31	13:18:10	578251	5.0.10.0	5_exp_noRW	42	Rpleas_acq	CS_B	MQQM	VKKV	JXXJ	BZZB	GWWG	YDDY	schön	spielen	treu	fair	ehrlich	retten	schlecht	strafen	tot	faul	eitel	rächen	47pct	acq_USpleas_CSpleas2_noRW	acq23456_noRW	4	2	0	0	300	300	431	50	0	1	1	blank2r.bmp	0	1	+	0	1	blank2r.bmp	252	1	VKKV	306	1	fair	559	0	0	0	0	0	0	0	0	0	0	0	0	0	0	0	0	0	0	0	0	0	0	0	0	0	0	0	0	0	0	0	0	0	0	0	0	0	0	0
071019	13:08:31	13:18:11	579863	5.0.10.0	5_exp_noRW	42	Rpleas_acq	CS_B	MQQM	VKKV	JXXJ	BZZB	GWWG	YDDY	schön	spielen	treu	fair	ehrlich	retten	schlecht	strafen	tot	faul	eitel	rächen	53pct	acq_USpleas_CSpleas1_noRW	acq23456_noRW	4	3	0	0	300	300	431	50	0	1	1	blank2r.bmp	0	1	+	0	1	blank2r.bmp	252	1	MQQM	306	3	treu	559	0	0	0	0	0	0	0	0	0	0	0	0	0	0	0	0	0	0	0	0	0	0	0	0	0	0	0	0	0	0	0	0	0	0	0	0	0	0	0
071019	13:08:31	13:18:13	581436	5.0.10.0	5_exp_noRW	42	Rpleas_acq	CS_B	MQQM	VKKV	JXXJ	BZZB	GWWG	YDDY	schön	spielen	treu	fair	ehrlich	retten	schlecht	strafen	tot	faul	eitel	rächen	53pct	acq_USunple_CSunple1_noRW	acq23456_noRW	4	4	0	0	300	300	395	46	0	1	1	blank2r.bmp	0	1	+	0	1	blank2r.bmp	252	1	JXXJ	306	2	strafen	559	0	0	0	0	0	0	0	0	0	0	0	0	0	0	0	0	0	0	0	0	0	0	0	0	0	0	0	0	0	0	0	0	0	0	0	0	0	0	0
071019	13:08:31	13:18:15	583249	5.0.10.0	5_exp_noRW	42	Rpleas_acq	CS_B	MQQM	VKKV	JXXJ	BZZB	GWWG	YDDY	schön	spielen	treu	fair	ehrlich	retten	schlecht	strafen	tot	faul	eitel	rächen	53pct	acq_USunple_CSunple2_noRW	acq23456_noRW	4	5	0	0	300	300	415	50	0	0	1	blank2r.bmp	0	1	+	0	1	blank2r.bmp	252	1	BZZB	306	1	faul	559	1	FEHLER	1012	0	0	0	0	0	0	0	0	0	0	0	0	0	0	0	0	0	0	0	0	0	0	0	0	0	0	0	0	0	0	0	0	0	0	0	0
071019	13:08:31	13:18:16	584675	5.0.10.0	5_exp_noRW	42	Rpleas_acq	CS_B	MQQM	VKKV	JXXJ	BZZB	GWWG	YDDY	schön	spielen	treu	fair	ehrlich	retten	schlecht	strafen	tot	faul	eitel	rächen	47pct	acq_USunple_CSunple1_noRW	acq23456_noRW	4	6	0	0	300	300	472	46	0	1	1	blank2r.bmp	0	1	+	0	1	blank2r.bmp	252	1	JXXJ	306	1	schlecht	559	0	0	0	0	0	0	0	0	0	0	0	0	0	0	0	0	0	0	0	0	0	0	0	0	0	0	0	0	0	0	0	0	0	0	0	0	0	0	0
071019	13:08:31	13:18:18	586354	5.0.10.0	5_exp_noRW	42	Rpleas_acq	CS_B	MQQM	VKKV	JXXJ	BZZB	GWWG	YDDY	schön	spielen	treu	fair	ehrlich	retten	schlecht	strafen	tot	faul	eitel	rächen	53pct	acq_USunple_CSunple2_noRW	acq23456_noRW	4	7	0	0	300	300	515	46	0	1	1	blank2r.bmp	0	1	+	0	1	blank2r.bmp	252	1	BZZB	306	2	eitel	559	0	0	0	0	0	0	0	0	0	0	0	0	0	0	0	0	0	0	0	0	0	0	0	0	0	0	0	0	0	0	0	0	0	0	0	0	0	0	0
071019	13:08:31	13:18:19	588007	5.0.10.0	5_exp_noRW	42	Rpleas_acq	CS_B	MQQM	VKKV	JXXJ	BZZB	GWWG	YDDY	schön	spielen	treu	fair	ehrlich	retten	schlecht	strafen	tot	faul	eitel	rächen	47pct	acq_USpleas_CSunple1_noRW	acq23456_noRW	4	8	0	0	300	300	489	50	0	1	1	blank2r.bmp	0	1	+	0	1	blank2r.bmp	252	1	JXXJ	306	3	treu	559	0	0	0	0	0	0	0	0	0	0	0	0	0	0	0	0	0	0	0	0	0	0	0	0	0	0	0	0	0	0	0	0	0	0	0	0	0	0	0
071019	13:08:31	13:18:21	589793	5.0.10.0	5_exp_noRW	42	Rpleas_acq	CS_B	MQQM	VKKV	JXXJ	BZZB	GWWG	YDDY	schön	spielen	treu	fair	ehrlich	retten	schlecht	strafen	tot	faul	eitel	rächen	53pct	acq_USpleas_CSpleas1_noRW	acq23456_noRW	4	9	0	0	300	300	605	50	0	1	1	blank2r.bmp	0	1	+	0	1	blank2r.bmp	252	1	MQQM	306	2	spielen	559	0	0	0	0	0	0	0	0	0	0	0	0	0	0	0	0	0	0	0	0	0	0	0	0	0	0	0	0	0	0	0	0	0	0	0	0	0	0	0
