date	time	script.currenttime	script.elapsedtime	build	script.currentexpt	subject	expressions.LRpleas_acq	expressions.conditionCS_A	expressions.CSpleas_1	expressions.CSpleas_2	expressions.CSunple_1	expressions.CSunple_2	expressions.distractor_1	expressions.distractor_2	expressions.US_pleas1	expressions.US_pleas2	expressions.US_pleas3	expressions.US_pleas4	expressions.US_pleas5	expressions.US_pleas6	expressions.US_unple1	expressions.US_unple2	expressions.US_unple3	expressions.US_unple4	expressions.US_unple5	expressions.US_unple6	counter.positions_noRW	trialcode	blockcode	blocknum	trialnum	windowcenter	inwindow	pretrialpause	posttrialpause	latency	response	expressions.correctedscore	correct	stimulusnumber1	stimulusitem1	stimulusonset1	stimulusnumber2	stimulusitem2	stimulusonset2	stimulusnumber3	stimulusitem3	stimulusonset3	stimulusnumber4	stimulusitem4	stimulusonset4	stimulusnumber5	stimulusitem5	stimulusonset5	stimulusnumber6	stimulusitem6	stimulusonset6	stimulusnumber7	stimulusitem7	stimulusonset7	stimulusnumber8	stimulusitem8	stimulusonset8	stimulusnumber9	stimulusitem9	stimulusonset9	stimulusnumber10	stimulusitem10	stimulusonset10	stimulusnumber11	stimulusitem11	stimulusonset11	stimulusnumber12	stimulusitem12	stimulusonset12	stimulusnumber13	stimulusitem13	stimulusonset13	stimulusnumber14	stimulusitem14	stimulusonset14	stimulusnumber15	stimulusitem15	stimulusonset15	stimulusnumber16	stimulusitem16	stimulusonset16	stimulusnumber17	stimulusitem17	stimulusonset17	stimulusnumber18	stimulusitem18	stimulusonset18
082719	12:23:11	12:24:42	90628	5.0.10.0	5_exp_noRW	118	Rpleas_acq	CS_B	JXXJ	VKKV	YDDY	GWWG	BZZB	MQQM	spielen	fair	schön	retten	ehrlich	treu	strafen	faul	schlecht	rächen	eitel	tot	53pct	acq_USpleas_CSpleas1_noRW	acq1_noRW	1	1	0	0	300	300	838	50	0	1	1	blank2r.bmp	0	1	+	0	1	blank2r.bmp	252	1	JXXJ	306	3	schön	559	0	0	0	0	0	0	0	0	0	0	0	0	0	0	0	0	0	0	0	0	0	0	0	0	0	0	0	0	0	0	0	0	0	0	0	0	0	0	0
082719	12:23:11	12:24:44	92214	5.0.10.0	5_exp_noRW	118	Rpleas_acq	CS_B	JXXJ	VKKV	YDDY	GWWG	BZZB	MQQM	spielen	fair	schön	retten	ehrlich	treu	strafen	faul	schlecht	rächen	eitel	tot	47pct	acq_USpleas_CSunple2_noRW	acq1_noRW	1	2	0	0	300	300	416	50	0	1	1	blank2r.bmp	0	1	+	0	1	blank2r.bmp	252	1	GWWG	306	2	ehrlich	559	0	0	0	0	0	0	0	0	0	0	0	0	0	0	0	0	0	0	0	0	0	0	0	0	0	0	0	0	0	0	0	0	0	0	0	0	0	0	0
082719	12:23:11	12:24:45	93840	5.0.10.0	5_exp_noRW	118	Rpleas_acq	CS_B	JXXJ	VKKV	YDDY	GWWG	BZZB	MQQM	spielen	fair	schön	retten	ehrlich	treu	strafen	faul	schlecht	rächen	eitel	tot	47pct	acq_USunple_CSunple1_noRW	acq1_noRW	1	3	0	0	300	300	462	46	0	1	1	blank2r.bmp	0	1	+	0	1	blank2r.bmp	252	1	YDDY	306	3	schlecht	559	0	0	0	0	0	0	0	0	0	0	0	0	0	0	0	0	0	0	0	0	0	0	0	0	0	0	0	0	0	0	0	0	0	0	0	0	0	0	0
082719	12:23:11	12:24:47	95772	5.0.10.0	5_exp_noRW	118	Rpleas_acq	CS_B	JXXJ	VKKV	YDDY	GWWG	BZZB	MQQM	spielen	fair	schön	retten	ehrlich	treu	strafen	faul	schlecht	rächen	eitel	tot	47pct	acq_USunple_CSunple1_noRW	acq1_noRW	1	4	0	0	300	300	534	50	0	0	1	blank2r.bmp	0	1	+	0	1	blank2r.bmp	252	1	YDDY	306	1	strafen	559	1	FEHLER	1132	0	0	0	0	0	0	0	0	0	0	0	0	0	0	0	0	0	0	0	0	0	0	0	0	0	0	0	0	0	0	0	0	0	0	0	0
082719	12:23:11	12:24:49	97305	5.0.10.0	5_exp_noRW	118	Rpleas_acq	CS_B	JXXJ	VKKV	YDDY	GWWG	BZZB	MQQM	spielen	fair	schön	retten	ehrlich	treu	strafen	faul	schlecht	rächen	eitel	tot	47pct	acq_USpleas_CSpleas1_noRW	acq1_noRW	1	5	0	0	300	300	561	50	0	1	1	blank2r.bmp	0	1	+	0	1	blank2r.bmp	252	1	JXXJ	306	2	fair	559	0	0	0	0	0	0	0	0	0	0	0	0	0	0	0	0	0	0	0	0	0	0	0	0	0	0	0	0	0	0	0	0	0	0	0	0	0	0	0
082719	12:23:11	12:24:51	98931	5.0.10.0	5_exp_noRW	118	Rpleas_acq	CS_B	JXXJ	VKKV	YDDY	GWWG	BZZB	MQQM	spielen	fair	schön	retten	ehrlich	treu	strafen	faul	schlecht	rächen	eitel	tot	53pct	acq_USpleas_CSunple1_noRW	acq1_noRW	1	6	0	0	300	300	443	50	0	1	1	blank2r.bmp	0	1	+	0	1	blank2r.bmp	252	1	YDDY	306	3	schön	559	0	0	0	0	0	0	0	0	0	0	0	0	0	0	0	0	0	0	0	0	0	0	0	0	0	0	0	0	0	0	0	0	0	0	0	0	0	0	0
082719	12:23:11	12:24:52	100863	5.0.10.0	5_exp_noRW	118	Rpleas_acq	CS_B	JXXJ	VKKV	YDDY	GWWG	BZZB	MQQM	spielen	fair	schön	retten	ehrlich	treu	strafen	faul	schlecht	rächen	eitel	tot	53pct	acq_USunple_CSunple2_noRW	acq1_noRW	1	7	0	0	300	300	551	50	0	0	1	blank2r.bmp	0	1	+	0	1	blank2r.bmp	252	1	GWWG	306	2	eitel	559	1	FEHLER	1146	0	0	0	0	0	0	0	0	0	0	0	0	0	0	0	0	0	0	0	0	0	0	0	0	0	0	0	0	0	0	0	0	0	0	0	0
082719	12:23:11	12:24:54	102209	5.0.10.0	5_exp_noRW	118	Rpleas_acq	CS_B	JXXJ	VKKV	YDDY	GWWG	BZZB	MQQM	spielen	fair	schön	retten	ehrlich	treu	strafen	faul	schlecht	rächen	eitel	tot	47pct	acq_USunple_CSpleas1_noRW	acq1_noRW	1	8	0	0	300	300	397	46	0	1	1	blank2r.bmp	0	1	+	0	1	blank2r.bmp	252	1	JXXJ	306	2	faul	559	0	0	0	0	0	0	0	0	0	0	0	0	0	0	0	0	0	0	0	0	0	0	0	0	0	0	0	0	0	0	0	0	0	0	0	0	0	0	0
082719	12:23:11	12:24:55	103782	5.0.10.0	5_exp_noRW	118	Rpleas_acq	CS_B	JXXJ	VKKV	YDDY	GWWG	BZZB	MQQM	spielen	fair	schön	retten	ehrlich	treu	strafen	faul	schlecht	rächen	eitel	tot	53pct	acq_USunple_CSunple1_noRW	acq1_noRW	1	9	0	0	300	300	396	46	0	1	1	blank2r.bmp	0	1	+	0	1	blank2r.bmp	252	1	YDDY	306	2	faul	559	0	0	0	0	0	0	0	0	0	0	0	0	0	0	0	0	0	0	0	0	0	0	0	0	0	0	0	0	0	0	0	0	0	0	0	0	0	0	0
082719	12:23:11	12:24:57	105381	5.0.10.0	5_exp_noRW	118	Rpleas_acq	CS_B	JXXJ	VKKV	YDDY	GWWG	BZZB	MQQM	spielen	fair	schön	retten	ehrlich	treu	strafen	faul	schlecht	rächen	eitel	tot	53pct	acq_USunple_CSpleas2_noRW	acq1_noRW	1	10	0	0	300	300	414	46	0	1	1	blank2r.bmp	0	1	+	0	1	blank2r.bmp	252	1	VKKV	306	2	eitel	559	0	0	0	0	0	0	0	0	0	0	0	0	0	0	0	0	0	0	0	0	0	0	0	0	0	0	0	0	0	0	0	0	0	0	0	0	0	0	0
082719	12:23:11	12:24:59	106967	5.0.10.0	5_exp_noRW	118	Rpleas_acq	CS_B	JXXJ	VKKV	YDDY	GWWG	BZZB	MQQM	spielen	fair	schön	retten	ehrlich	treu	strafen	faul	schlecht	rächen	eitel	tot	47pct	acq_USunple_CSunple2_noRW	acq1_noRW	1	11	0	0	300	300	417	46	0	1	1	blank2r.bmp	0	1	+	0	1	blank2r.bmp	252	1	GWWG	306	3	tot	559	0	0	0	0	0	0	0	0	0	0	0	0	0	0	0	0	0	0	0	0	0	0	0	0	0	0	0	0	0	0	0	0	0	0	0	0	0	0	0
082719	12:23:11	12:25:00	108500	5.0.10.0	5_exp_noRW	118	Rpleas_acq	CS_B	JXXJ	VKKV	YDDY	GWWG	BZZB	MQQM	spielen	fair	schön	retten	ehrlich	treu	strafen	faul	schlecht	rächen	eitel	tot	53pct	acq_USpleas_CSpleas1_noRW	acq1_noRW	1	12	0	0	300	300	369	50	0	1	1	blank2r.bmp	0	1	+	0	1	blank2r.bmp	252	1	JXXJ	306	1	spielen	559	0	0	0	0	0	0	0	0	0	0	0	0	0	0	0	0	0	0	0	0	0	0	0	0	0	0	0	0	0	0	0	0	0	0	0	0	0	0	0
082719	12:23:11	12:25:02	110099	5.0.10.0	5_exp_noRW	118	Rpleas_acq	CS_B	JXXJ	VKKV	YDDY	GWWG	BZZB	MQQM	spielen	fair	schön	retten	ehrlich	treu	strafen	faul	schlecht	rächen	eitel	tot	53pct	acq_USpleas_CSpleas2_noRW	acq1_noRW	1	13	0	0	300	300	423	50	0	1	1	blank2r.bmp	0	1	+	0	1	blank2r.bmp	252	1	VKKV	306	3	treu	559	0	0	0	0	0	0	0	0	0	0	0	0	0	0	0	0	0	0	0	0	0	0	0	0	0	0	0	0	0	0	0	0	0	0	0	0	0	0	0
082719	12:23:11	12:25:03	111685	5.0.10.0	5_exp_noRW	118	Rpleas_acq	CS_B	JXXJ	VKKV	YDDY	GWWG	BZZB	MQQM	spielen	fair	schön	retten	ehrlich	treu	strafen	faul	schlecht	rächen	eitel	tot	47pct	acq_USunple_CSunple1_noRW	acq1_noRW	1	14	0	0	300	300	403	46	0	1	1	blank2r.bmp	0	1	+	0	1	blank2r.bmp	252	1	YDDY	306	2	faul	559	0	0	0	0	0	0	0	0	0	0	0	0	0	0	0	0	0	0	0	0	0	0	0	0	0	0	0	0	0	0	0	0	0	0	0	0	0	0	0
082719	12:23:11	12:25:05	113218	5.0.10.0	5_exp_noRW	118	Rpleas_acq	CS_B	JXXJ	VKKV	YDDY	GWWG	BZZB	MQQM	spielen	fair	schön	retten	ehrlich	treu	strafen	faul	schlecht	rächen	eitel	tot	47pct	acq_USpleas_CSpleas2_noRW	acq1_noRW	1	15	0	0	300	300	355	50	0	1	1	blank2r.bmp	0	1	+	0	1	blank2r.bmp	252	1	VKKV	306	1	retten	559	0	0	0	0	0	0	0	0	0	0	0	0	0	0	0	0	0	0	0	0	0	0	0	0	0	0	0	0	0	0	0	0	0	0	0	0	0	0	0
082719	12:23:11	12:25:06	114737	5.0.10.0	5_exp_noRW	118	Rpleas_acq	CS_B	JXXJ	VKKV	YDDY	GWWG	BZZB	MQQM	spielen	fair	schön	retten	ehrlich	treu	strafen	faul	schlecht	rächen	eitel	tot	47pct	acq_USpleas_CSpleas2_noRW	acq1_noRW	1	16	0	0	300	300	333	50	0	1	1	blank2r.bmp	0	1	+	0	1	blank2r.bmp	252	1	VKKV	306	2	ehrlich	559	0	0	0	0	0	0	0	0	0	0	0	0	0	0	0	0	0	0	0	0	0	0	0	0	0	0	0	0	0	0	0	0	0	0	0	0	0	0	0
082719	12:23:11	12:25:08	116337	5.0.10.0	5_exp_noRW	118	Rpleas_acq	CS_B	JXXJ	VKKV	YDDY	GWWG	BZZB	MQQM	spielen	fair	schön	retten	ehrlich	treu	strafen	faul	schlecht	rächen	eitel	tot	47pct	acq_USpleas_CSpleas2_noRW	acq1_noRW	1	17	0	0	300	300	437	50	0	1	1	blank2r.bmp	0	1	+	0	1	blank2r.bmp	252	1	VKKV	306	3	treu	559	0	0	0	0	0	0	0	0	0	0	0	0	0	0	0	0	0	0	0	0	0	0	0	0	0	0	0	0	0	0	0	0	0	0	0	0	0	0	0
082719	12:23:11	12:25:09	117909	5.0.10.0	5_exp_noRW	118	Rpleas_acq	CS_B	JXXJ	VKKV	YDDY	GWWG	BZZB	MQQM	spielen	fair	schön	retten	ehrlich	treu	strafen	faul	schlecht	rächen	eitel	tot	47pct	acq_USpleas_CSpleas1_noRW	acq1_noRW	1	18	0	0	300	300	388	50	0	1	1	blank2r.bmp	0	1	+	0	1	blank2r.bmp	252	1	JXXJ	306	1	spielen	559	0	0	0	0	0	0	0	0	0	0	0	0	0	0	0	0	0	0	0	0	0	0	0	0	0	0	0	0	0	0	0	0	0	0	0	0	0	0	0
082719	12:23:11	12:25:11	119522	5.0.10.0	5_exp_noRW	118	Rpleas_acq	CS_B	JXXJ	VKKV	YDDY	GWWG	BZZB	MQQM	spielen	fair	schön	retten	ehrlich	treu	strafen	faul	schlecht	rächen	eitel	tot	53pct	acq_USunple_CSunple2_noRW	acq1_noRW	1	19	0	0	300	300	440	46	0	1	1	blank2r.bmp	0	1	+	0	1	blank2r.bmp	252	1	GWWG	306	1	rächen	559	0	0	0	0	0	0	0	0	0	0	0	0	0	0	0	0	0	0	0	0	0	0	0	0	0	0	0	0	0	0	0	0	0	0	0	0	0	0	0
082719	12:23:11	12:25:13	121095	5.0.10.0	5_exp_noRW	118	Rpleas_acq	CS_B	JXXJ	VKKV	YDDY	GWWG	BZZB	MQQM	spielen	fair	schön	retten	ehrlich	treu	strafen	faul	schlecht	rächen	eitel	tot	47pct	acq_USunple_CSunple2_noRW	acq1_noRW	1	20	0	0	300	300	393	46	0	1	1	blank2r.bmp	0	1	+	0	1	blank2r.bmp	252	1	GWWG	306	3	tot	559	0	0	0	0	0	0	0	0	0	0	0	0	0	0	0	0	0	0	0	0	0	0	0	0	0	0	0	0	0	0	0	0	0	0	0	0	0	0	0
082719	12:23:11	12:25:14	122867	5.0.10.0	5_exp_noRW	118	Rpleas_acq	CS_B	JXXJ	VKKV	YDDY	GWWG	BZZB	MQQM	spielen	fair	schön	retten	ehrlich	treu	strafen	faul	schlecht	rächen	eitel	tot	53pct	acq_USunple_CSunple2_noRW	acq1_noRW	1	21	0	0	300	300	382	50	0	0	1	blank2r.bmp	0	1	+	0	1	blank2r.bmp	252	1	GWWG	306	1	rächen	559	1	FEHLER	972	0	0	0	0	0	0	0	0	0	0	0	0	0	0	0	0	0	0	0	0	0	0	0	0	0	0	0	0	0	0	0	0	0	0	0	0
082719	12:23:11	12:25:16	124253	5.0.10.0	5_exp_noRW	118	Rpleas_acq	CS_B	JXXJ	VKKV	YDDY	GWWG	BZZB	MQQM	spielen	fair	schön	retten	ehrlich	treu	strafen	faul	schlecht	rächen	eitel	tot	47pct	acq_USpleas_CSpleas1_noRW	acq1_noRW	1	22	0	0	300	300	417	50	0	1	1	blank2r.bmp	0	1	+	0	1	blank2r.bmp	252	1	JXXJ	306	2	fair	559	0	0	0	0	0	0	0	0	0	0	0	0	0	0	0	0	0	0	0	0	0	0	0	0	0	0	0	0	0	0	0	0	0	0	0	0	0	0	0
082719	12:23:11	12:25:17	125759	5.0.10.0	5_exp_noRW	118	Rpleas_acq	CS_B	JXXJ	VKKV	YDDY	GWWG	BZZB	MQQM	spielen	fair	schön	retten	ehrlich	treu	strafen	faul	schlecht	rächen	eitel	tot	53pct	acq_USpleas_CSpleas1_noRW	acq1_noRW	1	23	0	0	300	300	335	50	0	1	1	blank2r.bmp	0	1	+	0	1	blank2r.bmp	252	1	JXXJ	306	3	schön	559	0	0	0	0	0	0	0	0	0	0	0	0	0	0	0	0	0	0	0	0	0	0	0	0	0	0	0	0	0	0	0	0	0	0	0	0	0	0	0
082719	12:23:11	12:25:19	127292	5.0.10.0	5_exp_noRW	118	Rpleas_acq	CS_B	JXXJ	VKKV	YDDY	GWWG	BZZB	MQQM	spielen	fair	schön	retten	ehrlich	treu	strafen	faul	schlecht	rächen	eitel	tot	47pct	acq_USunple_CSunple1_noRW	acq1_noRW	1	24	0	0	300	300	347	46	0	1	1	blank2r.bmp	0	1	+	0	1	blank2r.bmp	252	1	YDDY	306	3	schlecht	559	0	0	0	0	0	0	0	0	0	0	0	0	0	0	0	0	0	0	0	0	0	0	0	0	0	0	0	0	0	0	0	0	0	0	0	0	0	0	0
082719	12:23:11	12:25:21	128971	5.0.10.0	5_exp_noRW	118	Rpleas_acq	CS_B	JXXJ	VKKV	YDDY	GWWG	BZZB	MQQM	spielen	fair	schön	retten	ehrlich	treu	strafen	faul	schlecht	rächen	eitel	tot	53pct	acq_USpleas_CSpleas2_noRW	acq1_noRW	1	25	0	0	300	300	516	50	0	1	1	blank2r.bmp	0	1	+	0	1	blank2r.bmp	252	1	VKKV	306	1	retten	559	0	0	0	0	0	0	0	0	0	0	0	0	0	0	0	0	0	0	0	0	0	0	0	0	0	0	0	0	0	0	0	0	0	0	0	0	0	0	0
082719	12:23:11	12:25:22	130757	5.0.10.0	5_exp_noRW	118	Rpleas_acq	CS_B	JXXJ	VKKV	YDDY	GWWG	BZZB	MQQM	spielen	fair	schön	retten	ehrlich	treu	strafen	faul	schlecht	rächen	eitel	tot	47pct	acq_USunple_CSunple2_noRW	acq1_noRW	1	26	0	0	300	300	388	50	0	0	1	blank2r.bmp	0	1	+	0	1	blank2r.bmp	252	1	GWWG	306	2	eitel	559	1	FEHLER	986	0	0	0	0	0	0	0	0	0	0	0	0	0	0	0	0	0	0	0	0	0	0	0	0	0	0	0	0	0	0	0	0	0	0	0	0
082719	12:23:11	12:25:24	132143	5.0.10.0	5_exp_noRW	118	Rpleas_acq	CS_B	JXXJ	VKKV	YDDY	GWWG	BZZB	MQQM	spielen	fair	schön	retten	ehrlich	treu	strafen	faul	schlecht	rächen	eitel	tot	47pct	acq_USpleas_CSpleas2_noRW	acq1_noRW	1	27	0	0	300	300	432	50	0	1	1	blank2r.bmp	0	1	+	0	1	blank2r.bmp	252	1	VKKV	306	2	ehrlich	559	0	0	0	0	0	0	0	0	0	0	0	0	0	0	0	0	0	0	0	0	0	0	0	0	0	0	0	0	0	0	0	0	0	0	0	0	0	0	0
082719	12:23:11	12:25:25	133783	5.0.10.0	5_exp_noRW	118	Rpleas_acq	CS_B	JXXJ	VKKV	YDDY	GWWG	BZZB	MQQM	spielen	fair	schön	retten	ehrlich	treu	strafen	faul	schlecht	rächen	eitel	tot	53pct	acq_USunple_CSunple2_noRW	acq1_noRW	1	28	0	0	300	300	467	46	0	1	1	blank2r.bmp	0	1	+	0	1	blank2r.bmp	252	1	GWWG	306	1	rächen	559	0	0	0	0	0	0	0	0	0	0	0	0	0	0	0	0	0	0	0	0	0	0	0	0	0	0	0	0	0	0	0	0	0	0	0	0	0	0	0
082719	12:23:11	12:25:27	135315	5.0.10.0	5_exp_noRW	118	Rpleas_acq	CS_B	JXXJ	VKKV	YDDY	GWWG	BZZB	MQQM	spielen	fair	schön	retten	ehrlich	treu	strafen	faul	schlecht	rächen	eitel	tot	47pct	acq_USunple_CSpleas2_noRW	acq1_noRW	1	29	0	0	300	300	371	46	0	1	1	blank2r.bmp	0	1	+	0	1	blank2r.bmp	252	1	VKKV	306	3	tot	559	0	0	0	0	0	0	0	0	0	0	0	0	0	0	0	0	0	0	0	0	0	0	0	0	0	0	0	0	0	0	0	0	0	0	0	0	0	0	0
082719	12:23:11	12:25:28	136835	5.0.10.0	5_exp_noRW	118	Rpleas_acq	CS_B	JXXJ	VKKV	YDDY	GWWG	BZZB	MQQM	spielen	fair	schön	retten	ehrlich	treu	strafen	faul	schlecht	rächen	eitel	tot	47pct	acq_USpleas_CSpleas1_noRW	acq1_noRW	1	30	0	0	300	300	338	50	0	1	1	blank2r.bmp	0	1	+	0	1	blank2r.bmp	252	1	JXXJ	306	3	schön	559	0	0	0	0	0	0	0	0	0	0	0	0	0	0	0	0	0	0	0	0	0	0	0	0	0	0	0	0	0	0	0	0	0	0	0	0	0	0	0
082719	12:23:11	12:25:30	138394	5.0.10.0	5_exp_noRW	118	Rpleas_acq	CS_B	JXXJ	VKKV	YDDY	GWWG	BZZB	MQQM	spielen	fair	schön	retten	ehrlich	treu	strafen	faul	schlecht	rächen	eitel	tot	53pct	acq_USpleas_CSunple1_noRW	acq1_noRW	1	31	0	0	300	300	374	50	0	1	1	blank2r.bmp	0	1	+	0	1	blank2r.bmp	252	1	YDDY	306	1	spielen	559	0	0	0	0	0	0	0	0	0	0	0	0	0	0	0	0	0	0	0	0	0	0	0	0	0	0	0	0	0	0	0	0	0	0	0	0	0	0	0
082719	12:23:11	12:25:31	139873	5.0.10.0	5_exp_noRW	118	Rpleas_acq	CS_B	JXXJ	VKKV	YDDY	GWWG	BZZB	MQQM	spielen	fair	schön	retten	ehrlich	treu	strafen	faul	schlecht	rächen	eitel	tot	53pct	acq_USunple_CSunple1_noRW	acq1_noRW	1	32	0	0	300	300	292	46	0	1	1	blank2r.bmp	0	1	+	0	1	blank2r.bmp	252	1	YDDY	306	1	strafen	559	0	0	0	0	0	0	0	0	0	0	0	0	0	0	0	0	0	0	0	0	0	0	0	0	0	0	0	0	0	0	0	0	0	0	0	0	0	0	0
082719	12:23:11	12:25:33	141499	5.0.10.0	5_exp_noRW	118	Rpleas_acq	CS_B	JXXJ	VKKV	YDDY	GWWG	BZZB	MQQM	spielen	fair	schön	retten	ehrlich	treu	strafen	faul	schlecht	rächen	eitel	tot	53pct	acq_USpleas_CSpleas2_noRW	acq1_noRW	1	33	0	0	300	300	458	50	0	1	1	blank2r.bmp	0	1	+	0	1	blank2r.bmp	252	1	VKKV	306	1	retten	559	0	0	0	0	0	0	0	0	0	0	0	0	0	0	0	0	0	0	0	0	0	0	0	0	0	0	0	0	0	0	0	0	0	0	0	0	0	0	0
082719	12:23:11	12:25:35	143059	5.0.10.0	5_exp_noRW	118	Rpleas_acq	CS_B	JXXJ	VKKV	YDDY	GWWG	BZZB	MQQM	spielen	fair	schön	retten	ehrlich	treu	strafen	faul	schlecht	rächen	eitel	tot	47pct	acq_USpleas_CSpleas1_noRW	acq1_noRW	1	34	0	0	300	300	378	50	0	1	1	blank2r.bmp	0	1	+	0	1	blank2r.bmp	252	1	JXXJ	306	1	spielen	559	0	0	0	0	0	0	0	0	0	0	0	0	0	0	0	0	0	0	0	0	0	0	0	0	0	0	0	0	0	0	0	0	0	0	0	0	0	0	0
082719	12:23:11	12:25:36	144605	5.0.10.0	5_exp_noRW	118	Rpleas_acq	CS_B	JXXJ	VKKV	YDDY	GWWG	BZZB	MQQM	spielen	fair	schön	retten	ehrlich	treu	strafen	faul	schlecht	rächen	eitel	tot	47pct	acq_USunple_CSunple2_noRW	acq1_noRW	1	35	0	0	300	300	363	46	0	1	1	blank2r.bmp	0	1	+	0	1	blank2r.bmp	252	1	GWWG	306	3	tot	559	0	0	0	0	0	0	0	0	0	0	0	0	0	0	0	0	0	0	0	0	0	0	0	0	0	0	0	0	0	0	0	0	0	0	0	0	0	0	0
082719	12:23:11	12:25:38	146151	5.0.10.0	5_exp_noRW	118	Rpleas_acq	CS_B	JXXJ	VKKV	YDDY	GWWG	BZZB	MQQM	spielen	fair	schön	retten	ehrlich	treu	strafen	faul	schlecht	rächen	eitel	tot	47pct	acq_USunple_CSpleas1_noRW	acq1_noRW	1	36	0	0	300	300	368	46	0	1	1	blank2r.bmp	0	1	+	0	1	blank2r.bmp	252	1	JXXJ	306	3	schlecht	559	0	0	0	0	0	0	0	0	0	0	0	0	0	0	0	0	0	0	0	0	0	0	0	0	0	0	0	0	0	0	0	0	0	0	0	0	0	0	0
082719	12:23:11	12:25:39	147777	5.0.10.0	5_exp_noRW	118	Rpleas_acq	CS_B	JXXJ	VKKV	YDDY	GWWG	BZZB	MQQM	spielen	fair	schön	retten	ehrlich	treu	strafen	faul	schlecht	rächen	eitel	tot	53pct	acq_USpleas_CSpleas2_noRW	acq1_noRW	1	37	0	0	300	300	439	50	0	1	1	blank2r.bmp	0	1	+	0	1	blank2r.bmp	252	1	VKKV	306	3	treu	559	0	0	0	0	0	0	0	0	0	0	0	0	0	0	0	0	0	0	0	0	0	0	0	0	0	0	0	0	0	0	0	0	0	0	0	0	0	0	0
082719	12:23:11	12:25:41	149429	5.0.10.0	5_exp_noRW	118	Rpleas_acq	CS_B	JXXJ	VKKV	YDDY	GWWG	BZZB	MQQM	spielen	fair	schön	retten	ehrlich	treu	strafen	faul	schlecht	rächen	eitel	tot	47pct	acq_USpleas_CSunple2_noRW	acq1_noRW	1	38	0	0	300	300	479	50	0	1	1	blank2r.bmp	0	1	+	0	1	blank2r.bmp	252	1	GWWG	306	3	treu	559	0	0	0	0	0	0	0	0	0	0	0	0	0	0	0	0	0	0	0	0	0	0	0	0	0	0	0	0	0	0	0	0	0	0	0	0	0	0	0
082719	12:23:11	12:25:43	151029	5.0.10.0	5_exp_noRW	118	Rpleas_acq	CS_B	JXXJ	VKKV	YDDY	GWWG	BZZB	MQQM	spielen	fair	schön	retten	ehrlich	treu	strafen	faul	schlecht	rächen	eitel	tot	47pct	acq_USunple_CSunple1_noRW	acq1_noRW	1	39	0	0	300	300	435	46	0	1	1	blank2r.bmp	0	1	+	0	1	blank2r.bmp	252	1	YDDY	306	1	strafen	559	0	0	0	0	0	0	0	0	0	0	0	0	0	0	0	0	0	0	0	0	0	0	0	0	0	0	0	0	0	0	0	0	0	0	0	0	0	0	0
082719	12:23:11	12:25:44	152641	5.0.10.0	5_exp_noRW	118	Rpleas_acq	CS_B	JXXJ	VKKV	YDDY	GWWG	BZZB	MQQM	spielen	fair	schön	retten	ehrlich	treu	strafen	faul	schlecht	rächen	eitel	tot	47pct	acq_USunple_CSunple1_noRW	acq1_noRW	1	40	0	0	300	300	435	46	0	1	1	blank2r.bmp	0	1	+	0	1	blank2r.bmp	252	1	YDDY	306	2	faul	559	0	0	0	0	0	0	0	0	0	0	0	0	0	0	0	0	0	0	0	0	0	0	0	0	0	0	0	0	0	0	0	0	0	0	0	0	0	0	0
082719	12:23:11	12:25:46	154201	5.0.10.0	5_exp_noRW	118	Rpleas_acq	CS_B	JXXJ	VKKV	YDDY	GWWG	BZZB	MQQM	spielen	fair	schön	retten	ehrlich	treu	strafen	faul	schlecht	rächen	eitel	tot	47pct	acq_USpleas_CSpleas1_noRW	acq1_noRW	1	41	0	0	300	300	393	50	0	1	1	blank2r.bmp	0	1	+	0	1	blank2r.bmp	252	1	JXXJ	306	2	fair	559	0	0	0	0	0	0	0	0	0	0	0	0	0	0	0	0	0	0	0	0	0	0	0	0	0	0	0	0	0	0	0	0	0	0	0	0	0	0	0
082719	12:23:11	12:25:47	155773	5.0.10.0	5_exp_noRW	118	Rpleas_acq	CS_B	JXXJ	VKKV	YDDY	GWWG	BZZB	MQQM	spielen	fair	schön	retten	ehrlich	treu	strafen	faul	schlecht	rächen	eitel	tot	47pct	acq_USpleas_CSpleas2_noRW	acq1_noRW	1	42	0	0	300	300	393	50	0	1	1	blank2r.bmp	0	1	+	0	1	blank2r.bmp	252	1	VKKV	306	2	ehrlich	559	0	0	0	0	0	0	0	0	0	0	0	0	0	0	0	0	0	0	0	0	0	0	0	0	0	0	0	0	0	0	0	0	0	0	0	0	0	0	0
082719	12:23:11	12:25:49	157359	5.0.10.0	5_exp_noRW	118	Rpleas_acq	CS_B	JXXJ	VKKV	YDDY	GWWG	BZZB	MQQM	spielen	fair	schön	retten	ehrlich	treu	strafen	faul	schlecht	rächen	eitel	tot	53pct	acq_USunple_CSunple2_noRW	acq1_noRW	1	43	0	0	300	300	407	46	0	1	1	blank2r.bmp	0	1	+	0	1	blank2r.bmp	252	1	GWWG	306	2	eitel	559	0	0	0	0	0	0	0	0	0	0	0	0	0	0	0	0	0	0	0	0	0	0	0	0	0	0	0	0	0	0	0	0	0	0	0	0	0	0	0
082719	12:23:11	12:25:51	158999	5.0.10.0	5_exp_noRW	118	Rpleas_acq	CS_B	JXXJ	VKKV	YDDY	GWWG	BZZB	MQQM	spielen	fair	schön	retten	ehrlich	treu	strafen	faul	schlecht	rächen	eitel	tot	53pct	acq_USunple_CSpleas2_noRW	acq1_noRW	1	44	0	0	300	300	458	46	0	1	1	blank2r.bmp	0	1	+	0	1	blank2r.bmp	252	1	VKKV	306	1	rächen	559	0	0	0	0	0	0	0	0	0	0	0	0	0	0	0	0	0	0	0	0	0	0	0	0	0	0	0	0	0	0	0	0	0	0	0	0	0	0	0
082719	12:23:11	12:25:52	160638	5.0.10.0	5_exp_noRW	118	Rpleas_acq	CS_B	JXXJ	VKKV	YDDY	GWWG	BZZB	MQQM	spielen	fair	schön	retten	ehrlich	treu	strafen	faul	schlecht	rächen	eitel	tot	47pct	acq_USpleas_CSpleas2_noRW	acq1_noRW	1	45	0	0	300	300	457	50	0	1	1	blank2r.bmp	0	1	+	0	1	blank2r.bmp	252	1	VKKV	306	3	treu	559	0	0	0	0	0	0	0	0	0	0	0	0	0	0	0	0	0	0	0	0	0	0	0	0	0	0	0	0	0	0	0	0	0	0	0	0	0	0	0
082719	12:23:11	12:25:54	162211	5.0.10.0	5_exp_noRW	118	Rpleas_acq	CS_B	JXXJ	VKKV	YDDY	GWWG	BZZB	MQQM	spielen	fair	schön	retten	ehrlich	treu	strafen	faul	schlecht	rächen	eitel	tot	47pct	acq_USpleas_CSunple2_noRW	acq1_noRW	1	46	0	0	300	300	398	50	0	1	1	blank2r.bmp	0	1	+	0	1	blank2r.bmp	252	1	GWWG	306	1	retten	559	0	0	0	0	0	0	0	0	0	0	0	0	0	0	0	0	0	0	0	0	0	0	0	0	0	0	0	0	0	0	0	0	0	0	0	0	0	0	0
082719	12:23:11	12:25:55	163770	5.0.10.0	5_exp_noRW	118	Rpleas_acq	CS_B	JXXJ	VKKV	YDDY	GWWG	BZZB	MQQM	spielen	fair	schön	retten	ehrlich	treu	strafen	faul	schlecht	rächen	eitel	tot	53pct	acq_USunple_CSunple2_noRW	acq1_noRW	1	47	0	0	300	300	384	46	0	1	1	blank2r.bmp	0	1	+	0	1	blank2r.bmp	252	1	GWWG	306	3	tot	559	0	0	0	0	0	0	0	0	0	0	0	0	0	0	0	0	0	0	0	0	0	0	0	0	0	0	0	0	0	0	0	0	0	0	0	0	0	0	0
082719	12:23:11	12:25:57	165276	5.0.10.0	5_exp_noRW	118	Rpleas_acq	CS_B	JXXJ	VKKV	YDDY	GWWG	BZZB	MQQM	spielen	fair	schön	retten	ehrlich	treu	strafen	faul	schlecht	rächen	eitel	tot	53pct	acq_USpleas_CSpleas1_noRW	acq1_noRW	1	48	0	0	300	300	330	50	0	1	1	blank2r.bmp	0	1	+	0	1	blank2r.bmp	252	1	JXXJ	306	3	schön	559	0	0	0	0	0	0	0	0	0	0	0	0	0	0	0	0	0	0	0	0	0	0	0	0	0	0	0	0	0	0	0	0	0	0	0	0	0	0	0
082719	12:23:11	12:25:58	166822	5.0.10.0	5_exp_noRW	118	Rpleas_acq	CS_B	JXXJ	VKKV	YDDY	GWWG	BZZB	MQQM	spielen	fair	schön	retten	ehrlich	treu	strafen	faul	schlecht	rächen	eitel	tot	47pct	acq_USpleas_CSpleas1_noRW	acq1_noRW	1	49	0	0	300	300	370	50	0	1	1	blank2r.bmp	0	1	+	0	1	blank2r.bmp	252	1	JXXJ	306	2	fair	559	0	0	0	0	0	0	0	0	0	0	0	0	0	0	0	0	0	0	0	0	0	0	0	0	0	0	0	0	0	0	0	0	0	0	0	0	0	0	0
082719	12:23:11	12:26:00	168408	5.0.10.0	5_exp_noRW	118	Rpleas_acq	CS_B	JXXJ	VKKV	YDDY	GWWG	BZZB	MQQM	spielen	fair	schön	retten	ehrlich	treu	strafen	faul	schlecht	rächen	eitel	tot	47pct	acq_USunple_CSpleas1_noRW	acq1_noRW	1	50	0	0	300	300	422	46	0	1	1	blank2r.bmp	0	1	+	0	1	blank2r.bmp	252	1	JXXJ	306	1	strafen	559	0	0	0	0	0	0	0	0	0	0	0	0	0	0	0	0	0	0	0	0	0	0	0	0	0	0	0	0	0	0	0	0	0	0	0	0	0	0	0
082719	12:23:11	12:26:02	170007	5.0.10.0	5_exp_noRW	118	Rpleas_acq	CS_B	JXXJ	VKKV	YDDY	GWWG	BZZB	MQQM	spielen	fair	schön	retten	ehrlich	treu	strafen	faul	schlecht	rächen	eitel	tot	53pct	acq_USunple_CSunple2_noRW	acq1_noRW	1	51	0	0	300	300	416	46	0	1	1	blank2r.bmp	0	1	+	0	1	blank2r.bmp	252	1	GWWG	306	1	rächen	559	0	0	0	0	0	0	0	0	0	0	0	0	0	0	0	0	0	0	0	0	0	0	0	0	0	0	0	0	0	0	0	0	0	0	0	0	0	0	0
082719	12:23:11	12:26:03	171527	5.0.10.0	5_exp_noRW	118	Rpleas_acq	CS_B	JXXJ	VKKV	YDDY	GWWG	BZZB	MQQM	spielen	fair	schön	retten	ehrlich	treu	strafen	faul	schlecht	rächen	eitel	tot	47pct	acq_USpleas_CSpleas2_noRW	acq1_noRW	1	52	0	0	300	300	349	50	0	1	1	blank2r.bmp	0	1	+	0	1	blank2r.bmp	252	1	VKKV	306	1	retten	559	0	0	0	0	0	0	0	0	0	0	0	0	0	0	0	0	0	0	0	0	0	0	0	0	0	0	0	0	0	0	0	0	0	0	0	0	0	0	0
082719	12:23:11	12:26:05	173019	5.0.10.0	5_exp_noRW	118	Rpleas_acq	CS_B	JXXJ	VKKV	YDDY	GWWG	BZZB	MQQM	spielen	fair	schön	retten	ehrlich	treu	strafen	faul	schlecht	rächen	eitel	tot	47pct	acq_USpleas_CSpleas1_noRW	acq1_noRW	1	53	0	0	300	300	310	50	0	1	1	blank2r.bmp	0	1	+	0	1	blank2r.bmp	252	1	JXXJ	306	1	spielen	559	0	0	0	0	0	0	0	0	0	0	0	0	0	0	0	0	0	0	0	0	0	0	0	0	0	0	0	0	0	0	0	0	0	0	0	0	0	0	0
082719	12:23:11	12:26:06	174552	5.0.10.0	5_exp_noRW	118	Rpleas_acq	CS_B	JXXJ	VKKV	YDDY	GWWG	BZZB	MQQM	spielen	fair	schön	retten	ehrlich	treu	strafen	faul	schlecht	rächen	eitel	tot	53pct	acq_USunple_CSunple1_noRW	acq1_noRW	1	54	0	0	300	300	371	46	0	1	1	blank2r.bmp	0	1	+	0	1	blank2r.bmp	252	1	YDDY	306	3	schlecht	559	0	0	0	0	0	0	0	0	0	0	0	0	0	0	0	0	0	0	0	0	0	0	0	0	0	0	0	0	0	0	0	0	0	0	0	0	0	0	0
082719	12:23:11	12:26:08	176071	5.0.10.0	5_exp_noRW	118	Rpleas_acq	CS_B	JXXJ	VKKV	YDDY	GWWG	BZZB	MQQM	spielen	fair	schön	retten	ehrlich	treu	strafen	faul	schlecht	rächen	eitel	tot	53pct	acq_USunple_CSunple1_noRW	acq1_noRW	1	55	0	0	300	300	341	46	0	1	1	blank2r.bmp	0	1	+	0	1	blank2r.bmp	252	1	YDDY	306	3	schlecht	559	0	0	0	0	0	0	0	0	0	0	0	0	0	0	0	0	0	0	0	0	0	0	0	0	0	0	0	0	0	0	0	0	0	0	0	0	0	0	0
082719	12:23:11	12:26:09	177657	5.0.10.0	5_exp_noRW	118	Rpleas_acq	CS_B	JXXJ	VKKV	YDDY	GWWG	BZZB	MQQM	spielen	fair	schön	retten	ehrlich	treu	strafen	faul	schlecht	rächen	eitel	tot	47pct	acq_USunple_CSunple1_noRW	acq1_noRW	1	56	0	0	300	300	408	46	0	1	1	blank2r.bmp	0	1	+	0	1	blank2r.bmp	252	1	YDDY	306	1	strafen	559	0	0	0	0	0	0	0	0	0	0	0	0	0	0	0	0	0	0	0	0	0	0	0	0	0	0	0	0	0	0	0	0	0	0	0	0	0	0	0
082719	12:23:11	12:26:11	179203	5.0.10.0	5_exp_noRW	118	Rpleas_acq	CS_B	JXXJ	VKKV	YDDY	GWWG	BZZB	MQQM	spielen	fair	schön	retten	ehrlich	treu	strafen	faul	schlecht	rächen	eitel	tot	47pct	acq_USpleas_CSunple1_noRW	acq1_noRW	1	57	0	0	300	300	360	50	0	1	1	blank2r.bmp	0	1	+	0	1	blank2r.bmp	252	1	YDDY	306	2	fair	559	0	0	0	0	0	0	0	0	0	0	0	0	0	0	0	0	0	0	0	0	0	0	0	0	0	0	0	0	0	0	0	0	0	0	0	0	0	0	0
082719	12:23:11	12:26:12	180723	5.0.10.0	5_exp_noRW	118	Rpleas_acq	CS_B	JXXJ	VKKV	YDDY	GWWG	BZZB	MQQM	spielen	fair	schön	retten	ehrlich	treu	strafen	faul	schlecht	rächen	eitel	tot	47pct	acq_USunple_CSunple1_noRW	acq1_noRW	1	58	0	0	300	300	352	46	0	1	1	blank2r.bmp	0	1	+	0	1	blank2r.bmp	252	1	YDDY	306	2	faul	559	0	0	0	0	0	0	0	0	0	0	0	0	0	0	0	0	0	0	0	0	0	0	0	0	0	0	0	0	0	0	0	0	0	0	0	0	0	0	0
082719	12:23:11	12:26:14	182202	5.0.10.0	5_exp_noRW	118	Rpleas_acq	CS_B	JXXJ	VKKV	YDDY	GWWG	BZZB	MQQM	spielen	fair	schön	retten	ehrlich	treu	strafen	faul	schlecht	rächen	eitel	tot	47pct	acq_USpleas_CSpleas2_noRW	acq1_noRW	1	59	0	0	300	300	317	50	0	1	1	blank2r.bmp	0	1	+	0	1	blank2r.bmp	252	1	VKKV	306	2	ehrlich	559	0	0	0	0	0	0	0	0	0	0	0	0	0	0	0	0	0	0	0	0	0	0	0	0	0	0	0	0	0	0	0	0	0	0	0	0	0	0	0
082719	12:23:11	12:26:15	183748	5.0.10.0	5_exp_noRW	118	Rpleas_acq	CS_B	JXXJ	VKKV	YDDY	GWWG	BZZB	MQQM	spielen	fair	schön	retten	ehrlich	treu	strafen	faul	schlecht	rächen	eitel	tot	47pct	acq_USunple_CSunple2_noRW	acq1_noRW	1	60	0	0	300	300	360	46	0	1	1	blank2r.bmp	0	1	+	0	1	blank2r.bmp	252	1	GWWG	306	2	eitel	559	0	0	0	0	0	0	0	0	0	0	0	0	0	0	0	0	0	0	0	0	0	0	0	0	0	0	0	0	0	0	0	0	0	0	0	0	0	0	0
082719	12:23:11	12:26:17	185241	5.0.10.0	5_exp_noRW	118	Rpleas_acq	CS_B	JXXJ	VKKV	YDDY	GWWG	BZZB	MQQM	spielen	fair	schön	retten	ehrlich	treu	strafen	faul	schlecht	rächen	eitel	tot	47pct	acq_USpleas_CSpleas1_noRW	acq1_noRW	1	61	0	0	300	300	330	50	0	1	1	blank2r.bmp	0	1	+	0	1	blank2r.bmp	252	1	JXXJ	306	1	spielen	559	0	0	0	0	0	0	0	0	0	0	0	0	0	0	0	0	0	0	0	0	0	0	0	0	0	0	0	0	0	0	0	0	0	0	0	0	0	0	0
082719	12:23:11	12:26:18	186800	5.0.10.0	5_exp_noRW	118	Rpleas_acq	CS_B	JXXJ	VKKV	YDDY	GWWG	BZZB	MQQM	spielen	fair	schön	retten	ehrlich	treu	strafen	faul	schlecht	rächen	eitel	tot	53pct	acq_USunple_CSunple1_noRW	acq1_noRW	1	62	0	0	300	300	380	46	0	1	1	blank2r.bmp	0	1	+	0	1	blank2r.bmp	252	1	YDDY	306	2	faul	559	0	0	0	0	0	0	0	0	0	0	0	0	0	0	0	0	0	0	0	0	0	0	0	0	0	0	0	0	0	0	0	0	0	0	0	0	0	0	0
082719	12:23:11	12:26:20	188373	5.0.10.0	5_exp_noRW	118	Rpleas_acq	CS_B	JXXJ	VKKV	YDDY	GWWG	BZZB	MQQM	spielen	fair	schön	retten	ehrlich	treu	strafen	faul	schlecht	rächen	eitel	tot	47pct	acq_USpleas_CSpleas2_noRW	acq1_noRW	1	63	0	0	300	300	386	50	0	1	1	blank2r.bmp	0	1	+	0	1	blank2r.bmp	252	1	VKKV	306	1	retten	559	0	0	0	0	0	0	0	0	0	0	0	0	0	0	0	0	0	0	0	0	0	0	0	0	0	0	0	0	0	0	0	0	0	0	0	0	0	0	0
082719	12:23:11	12:26:22	190039	5.0.10.0	5_exp_noRW	118	Rpleas_acq	CS_B	JXXJ	VKKV	YDDY	GWWG	BZZB	MQQM	spielen	fair	schön	retten	ehrlich	treu	strafen	faul	schlecht	rächen	eitel	tot	47pct	acq_USunple_CSunple2_noRW	acq1_noRW	1	64	0	0	300	300	495	46	0	1	1	blank2r.bmp	0	1	+	0	1	blank2r.bmp	252	1	GWWG	306	2	eitel	559	0	0	0	0	0	0	0	0	0	0	0	0	0	0	0	0	0	0	0	0	0	0	0	0	0	0	0	0	0	0	0	0	0	0	0	0	0	0	0
082719	12:23:11	12:26:23	191545	5.0.10.0	5_exp_noRW	118	Rpleas_acq	CS_B	JXXJ	VKKV	YDDY	GWWG	BZZB	MQQM	spielen	fair	schön	retten	ehrlich	treu	strafen	faul	schlecht	rächen	eitel	tot	53pct	acq_USunple_CSunple1_noRW	acq1_noRW	1	65	0	0	300	300	344	46	0	1	1	blank2r.bmp	0	1	+	0	1	blank2r.bmp	252	1	YDDY	306	3	schlecht	559	0	0	0	0	0	0	0	0	0	0	0	0	0	0	0	0	0	0	0	0	0	0	0	0	0	0	0	0	0	0	0	0	0	0	0	0	0	0	0
082719	12:23:11	12:26:25	193091	5.0.10.0	5_exp_noRW	118	Rpleas_acq	CS_B	JXXJ	VKKV	YDDY	GWWG	BZZB	MQQM	spielen	fair	schön	retten	ehrlich	treu	strafen	faul	schlecht	rächen	eitel	tot	53pct	acq_USunple_CSunple2_noRW	acq1_noRW	1	66	0	0	300	300	365	46	0	1	1	blank2r.bmp	0	1	+	0	1	blank2r.bmp	252	1	GWWG	306	3	tot	559	0	0	0	0	0	0	0	0	0	0	0	0	0	0	0	0	0	0	0	0	0	0	0	0	0	0	0	0	0	0	0	0	0	0	0	0	0	0	0
082719	12:23:11	12:26:26	194797	5.0.10.0	5_exp_noRW	118	Rpleas_acq	CS_B	JXXJ	VKKV	YDDY	GWWG	BZZB	MQQM	spielen	fair	schön	retten	ehrlich	treu	strafen	faul	schlecht	rächen	eitel	tot	53pct	acq_USunple_CSunple2_noRW	acq1_noRW	1	67	0	0	300	300	524	46	0	1	1	blank2r.bmp	0	1	+	0	1	blank2r.bmp	252	1	GWWG	306	1	rächen	559	0	0	0	0	0	0	0	0	0	0	0	0	0	0	0	0	0	0	0	0	0	0	0	0	0	0	0	0	0	0	0	0	0	0	0	0	0	0	0
082719	12:23:11	12:26:28	196249	5.0.10.0	5_exp_noRW	118	Rpleas_acq	CS_B	JXXJ	VKKV	YDDY	GWWG	BZZB	MQQM	spielen	fair	schön	retten	ehrlich	treu	strafen	faul	schlecht	rächen	eitel	tot	53pct	acq_USpleas_CSpleas1_noRW	acq1_noRW	1	68	0	0	300	300	279	50	0	1	1	blank2r.bmp	0	1	+	0	1	blank2r.bmp	252	1	JXXJ	306	3	schön	559	0	0	0	0	0	0	0	0	0	0	0	0	0	0	0	0	0	0	0	0	0	0	0	0	0	0	0	0	0	0	0	0	0	0	0	0	0	0	0
082719	12:23:11	12:26:29	197889	5.0.10.0	5_exp_noRW	118	Rpleas_acq	CS_B	JXXJ	VKKV	YDDY	GWWG	BZZB	MQQM	spielen	fair	schön	retten	ehrlich	treu	strafen	faul	schlecht	rächen	eitel	tot	53pct	acq_USpleas_CSpleas2_noRW	acq1_noRW	1	69	0	0	300	300	473	50	0	1	1	blank2r.bmp	0	1	+	0	1	blank2r.bmp	252	1	VKKV	306	3	treu	559	0	0	0	0	0	0	0	0	0	0	0	0	0	0	0	0	0	0	0	0	0	0	0	0	0	0	0	0	0	0	0	0	0	0	0	0	0	0	0
082719	12:23:11	12:26:31	199568	5.0.10.0	5_exp_noRW	118	Rpleas_acq	CS_B	JXXJ	VKKV	YDDY	GWWG	BZZB	MQQM	spielen	fair	schön	retten	ehrlich	treu	strafen	faul	schlecht	rächen	eitel	tot	47pct	acq_USunple_CSpleas2_noRW	acq1_noRW	1	70	0	0	300	300	496	46	0	1	1	blank2r.bmp	0	1	+	0	1	blank2r.bmp	252	1	VKKV	306	2	eitel	559	0	0	0	0	0	0	0	0	0	0	0	0	0	0	0	0	0	0	0	0	0	0	0	0	0	0	0	0	0	0	0	0	0	0	0	0	0	0	0
082719	12:23:11	12:26:33	201141	5.0.10.0	5_exp_noRW	118	Rpleas_acq	CS_B	JXXJ	VKKV	YDDY	GWWG	BZZB	MQQM	spielen	fair	schön	retten	ehrlich	treu	strafen	faul	schlecht	rächen	eitel	tot	53pct	acq_USpleas_CSunple2_noRW	acq1_noRW	1	71	0	0	300	300	400	50	0	1	1	blank2r.bmp	0	1	+	0	1	blank2r.bmp	252	1	GWWG	306	2	ehrlich	559	0	0	0	0	0	0	0	0	0	0	0	0	0	0	0	0	0	0	0	0	0	0	0	0	0	0	0	0	0	0	0	0	0	0	0	0	0	0	0
082719	12:23:11	12:26:34	202820	5.0.10.0	5_exp_noRW	118	Rpleas_acq	CS_B	JXXJ	VKKV	YDDY	GWWG	BZZB	MQQM	spielen	fair	schön	retten	ehrlich	treu	strafen	faul	schlecht	rächen	eitel	tot	53pct	acq_USpleas_CSpleas1_noRW	acq1_noRW	1	72	0	0	300	300	499	50	0	1	1	blank2r.bmp	0	1	+	0	1	blank2r.bmp	252	1	JXXJ	306	2	fair	559	0	0	0	0	0	0	0	0	0	0	0	0	0	0	0	0	0	0	0	0	0	0	0	0	0	0	0	0	0	0	0	0	0	0	0	0	0	0	0
082719	12:23:11	12:26:36	204313	5.0.10.0	5_exp_noRW	118	Rpleas_acq	CS_B	JXXJ	VKKV	YDDY	GWWG	BZZB	MQQM	spielen	fair	schön	retten	ehrlich	treu	strafen	faul	schlecht	rächen	eitel	tot	53pct	acq_USpleas_CSpleas1_noRW	acq1_noRW	1	73	0	0	300	300	307	50	0	1	1	blank2r.bmp	0	1	+	0	1	blank2r.bmp	252	1	JXXJ	306	2	fair	559	0	0	0	0	0	0	0	0	0	0	0	0	0	0	0	0	0	0	0	0	0	0	0	0	0	0	0	0	0	0	0	0	0	0	0	0	0	0	0
082719	12:23:11	12:26:37	205872	5.0.10.0	5_exp_noRW	118	Rpleas_acq	CS_B	JXXJ	VKKV	YDDY	GWWG	BZZB	MQQM	spielen	fair	schön	retten	ehrlich	treu	strafen	faul	schlecht	rächen	eitel	tot	47pct	acq_USpleas_CSpleas2_noRW	acq1_noRW	1	74	0	0	300	300	394	50	0	1	1	blank2r.bmp	0	1	+	0	1	blank2r.bmp	252	1	VKKV	306	2	ehrlich	559	0	0	0	0	0	0	0	0	0	0	0	0	0	0	0	0	0	0	0	0	0	0	0	0	0	0	0	0	0	0	0	0	0	0	0	0	0	0	0
082719	12:23:11	12:26:39	207458	5.0.10.0	5_exp_noRW	118	Rpleas_acq	CS_B	JXXJ	VKKV	YDDY	GWWG	BZZB	MQQM	spielen	fair	schön	retten	ehrlich	treu	strafen	faul	schlecht	rächen	eitel	tot	47pct	acq_USpleas_CSpleas2_noRW	acq1_noRW	1	75	0	0	300	300	422	50	0	1	1	blank2r.bmp	0	1	+	0	1	blank2r.bmp	252	1	VKKV	306	3	treu	559	0	0	0	0	0	0	0	0	0	0	0	0	0	0	0	0	0	0	0	0	0	0	0	0	0	0	0	0	0	0	0	0	0	0	0	0	0	0	0
082719	12:23:11	12:26:41	209017	5.0.10.0	5_exp_noRW	118	Rpleas_acq	CS_B	JXXJ	VKKV	YDDY	GWWG	BZZB	MQQM	spielen	fair	schön	retten	ehrlich	treu	strafen	faul	schlecht	rächen	eitel	tot	53pct	acq_USpleas_CSunple1_noRW	acq1_noRW	1	76	0	0	300	300	372	50	0	1	1	blank2r.bmp	0	1	+	0	1	blank2r.bmp	252	1	YDDY	306	3	schön	559	0	0	0	0	0	0	0	0	0	0	0	0	0	0	0	0	0	0	0	0	0	0	0	0	0	0	0	0	0	0	0	0	0	0	0	0	0	0	0
082719	12:23:11	12:26:42	210763	5.0.10.0	5_exp_noRW	118	Rpleas_acq	CS_B	JXXJ	VKKV	YDDY	GWWG	BZZB	MQQM	spielen	fair	schön	retten	ehrlich	treu	strafen	faul	schlecht	rächen	eitel	tot	47pct	acq_USunple_CSunple1_noRW	acq1_noRW	1	77	0	0	300	300	349	50	0	0	1	blank2r.bmp	0	1	+	0	1	blank2r.bmp	252	1	YDDY	306	1	strafen	559	1	FEHLER	946	0	0	0	0	0	0	0	0	0	0	0	0	0	0	0	0	0	0	0	0	0	0	0	0	0	0	0	0	0	0	0	0	0	0	0	0
082719	12:23:11	12:26:44	212123	5.0.10.0	5_exp_noRW	118	Rpleas_acq	CS_B	JXXJ	VKKV	YDDY	GWWG	BZZB	MQQM	spielen	fair	schön	retten	ehrlich	treu	strafen	faul	schlecht	rächen	eitel	tot	47pct	acq_USunple_CSunple1_noRW	acq1_noRW	1	78	0	0	300	300	410	46	0	1	1	blank2r.bmp	0	1	+	0	1	blank2r.bmp	252	1	YDDY	306	1	strafen	559	0	0	0	0	0	0	0	0	0	0	0	0	0	0	0	0	0	0	0	0	0	0	0	0	0	0	0	0	0	0	0	0	0	0	0	0	0	0	0
082719	12:23:11	12:26:45	213882	5.0.10.0	5_exp_noRW	118	Rpleas_acq	CS_B	JXXJ	VKKV	YDDY	GWWG	BZZB	MQQM	spielen	fair	schön	retten	ehrlich	treu	strafen	faul	schlecht	rächen	eitel	tot	53pct	acq_USunple_CSunple2_noRW	acq1_noRW	1	79	0	0	300	300	367	50	0	0	1	blank2r.bmp	0	1	+	0	1	blank2r.bmp	252	1	GWWG	306	2	eitel	559	1	FEHLER	959	0	0	0	0	0	0	0	0	0	0	0	0	0	0	0	0	0	0	0	0	0	0	0	0	0	0	0	0	0	0	0	0	0	0	0	0
082719	12:23:11	12:26:47	215321	5.0.10.0	5_exp_noRW	118	Rpleas_acq	CS_B	JXXJ	VKKV	YDDY	GWWG	BZZB	MQQM	spielen	fair	schön	retten	ehrlich	treu	strafen	faul	schlecht	rächen	eitel	tot	47pct	acq_USunple_CSpleas1_noRW	acq1_noRW	1	80	0	0	300	300	488	46	0	1	1	blank2r.bmp	0	1	+	0	1	blank2r.bmp	252	1	JXXJ	306	3	schlecht	559	0	0	0	0	0	0	0	0	0	0	0	0	0	0	0	0	0	0	0	0	0	0	0	0	0	0	0	0	0	0	0	0	0	0	0	0	0	0	0
082719	12:23:11	12:27:04	232048	5.0.10.0	5_exp_noRW	118	Rpleas_acq	CS_B	JXXJ	VKKV	YDDY	GWWG	BZZB	MQQM	spielen	fair	schön	retten	ehrlich	treu	strafen	faul	schlecht	rächen	eitel	tot	53pct	acq_USpleas_CSpleas1_noRW	acq23456_noRW	2	1	0	0	300	300	395	50	0	1	1	blank2r.bmp	0	1	+	0	1	blank2r.bmp	252	1	JXXJ	306	3	schön	559	0	0	0	0	0	0	0	0	0	0	0	0	0	0	0	0	0	0	0	0	0	0	0	0	0	0	0	0	0	0	0	0	0	0	0	0	0	0	0
082719	12:23:11	12:27:05	233634	5.0.10.0	5_exp_noRW	118	Rpleas_acq	CS_B	JXXJ	VKKV	YDDY	GWWG	BZZB	MQQM	spielen	fair	schön	retten	ehrlich	treu	strafen	faul	schlecht	rächen	eitel	tot	53pct	acq_USunple_CSpleas1_noRW	acq23456_noRW	2	2	0	0	300	300	411	46	0	1	1	blank2r.bmp	0	1	+	0	1	blank2r.bmp	252	1	JXXJ	306	1	strafen	559	0	0	0	0	0	0	0	0	0	0	0	0	0	0	0	0	0	0	0	0	0	0	0	0	0	0	0	0	0	0	0	0	0	0	0	0	0	0	0
082719	12:23:11	12:27:07	235206	5.0.10.0	5_exp_noRW	118	Rpleas_acq	CS_B	JXXJ	VKKV	YDDY	GWWG	BZZB	MQQM	spielen	fair	schön	retten	ehrlich	treu	strafen	faul	schlecht	rächen	eitel	tot	53pct	acq_USpleas_CSpleas2_noRW	acq23456_noRW	2	3	0	0	300	300	390	50	0	1	1	blank2r.bmp	0	1	+	0	1	blank2r.bmp	252	1	VKKV	306	2	ehrlich	559	0	0	0	0	0	0	0	0	0	0	0	0	0	0	0	0	0	0	0	0	0	0	0	0	0	0	0	0	0	0	0	0	0	0	0	0	0	0	0
082719	12:23:11	12:27:08	236779	5.0.10.0	5_exp_noRW	118	Rpleas_acq	CS_B	JXXJ	VKKV	YDDY	GWWG	BZZB	MQQM	spielen	fair	schön	retten	ehrlich	treu	strafen	faul	schlecht	rächen	eitel	tot	47pct	acq_USpleas_CSpleas1_noRW	acq23456_noRW	2	4	0	0	300	300	390	50	0	1	1	blank2r.bmp	0	1	+	0	1	blank2r.bmp	252	1	JXXJ	306	1	spielen	559	0	0	0	0	0	0	0	0	0	0	0	0	0	0	0	0	0	0	0	0	0	0	0	0	0	0	0	0	0	0	0	0	0	0	0	0	0	0	0
082719	12:23:11	12:27:10	238298	5.0.10.0	5_exp_noRW	118	Rpleas_acq	CS_B	JXXJ	VKKV	YDDY	GWWG	BZZB	MQQM	spielen	fair	schön	retten	ehrlich	treu	strafen	faul	schlecht	rächen	eitel	tot	53pct	acq_USunple_CSunple1_noRW	acq23456_noRW	2	5	0	0	300	300	355	46	0	1	1	blank2r.bmp	0	1	+	0	1	blank2r.bmp	252	1	YDDY	306	3	schlecht	559	0	0	0	0	0	0	0	0	0	0	0	0	0	0	0	0	0	0	0	0	0	0	0	0	0	0	0	0	0	0	0	0	0	0	0	0	0	0	0
082719	12:23:11	12:27:11	239818	5.0.10.0	5_exp_noRW	118	Rpleas_acq	CS_B	JXXJ	VKKV	YDDY	GWWG	BZZB	MQQM	spielen	fair	schön	retten	ehrlich	treu	strafen	faul	schlecht	rächen	eitel	tot	47pct	acq_USpleas_CSpleas2_noRW	acq23456_noRW	2	6	0	0	300	300	334	50	0	1	1	blank2r.bmp	0	1	+	0	1	blank2r.bmp	252	1	VKKV	306	1	retten	559	0	0	0	0	0	0	0	0	0	0	0	0	0	0	0	0	0	0	0	0	0	0	0	0	0	0	0	0	0	0	0	0	0	0	0	0	0	0	0
082719	12:23:11	12:27:13	241310	5.0.10.0	5_exp_noRW	118	Rpleas_acq	CS_B	JXXJ	VKKV	YDDY	GWWG	BZZB	MQQM	spielen	fair	schön	retten	ehrlich	treu	strafen	faul	schlecht	rächen	eitel	tot	53pct	acq_USpleas_CSpleas2_noRW	acq23456_noRW	2	7	0	0	300	300	322	50	0	1	1	blank2r.bmp	0	1	+	0	1	blank2r.bmp	252	1	VKKV	306	3	treu	559	0	0	0	0	0	0	0	0	0	0	0	0	0	0	0	0	0	0	0	0	0	0	0	0	0	0	0	0	0	0	0	0	0	0	0	0	0	0	0
082719	12:23:11	12:27:14	242923	5.0.10.0	5_exp_noRW	118	Rpleas_acq	CS_B	JXXJ	VKKV	YDDY	GWWG	BZZB	MQQM	spielen	fair	schön	retten	ehrlich	treu	strafen	faul	schlecht	rächen	eitel	tot	47pct	acq_USpleas_CSunple2_noRW	acq23456_noRW	2	8	0	0	300	300	427	50	0	1	1	blank2r.bmp	0	1	+	0	1	blank2r.bmp	252	1	GWWG	306	1	retten	559	0	0	0	0	0	0	0	0	0	0	0	0	0	0	0	0	0	0	0	0	0	0	0	0	0	0	0	0	0	0	0	0	0	0	0	0	0	0	0
082719	12:23:11	12:27:16	244322	5.0.10.0	5_exp_noRW	118	Rpleas_acq	CS_B	JXXJ	VKKV	YDDY	GWWG	BZZB	MQQM	spielen	fair	schön	retten	ehrlich	treu	strafen	faul	schlecht	rächen	eitel	tot	47pct	acq_USpleas_CSpleas1_noRW	acq23456_noRW	2	9	0	0	300	300	230	50	0	1	1	blank2r.bmp	0	1	+	0	1	blank2r.bmp	252	1	JXXJ	306	1	spielen	559	0	0	0	0	0	0	0	0	0	0	0	0	0	0	0	0	0	0	0	0	0	0	0	0	0	0	0	0	0	0	0	0	0	0	0	0	0	0	0
082719	12:23:11	12:27:17	245922	5.0.10.0	5_exp_noRW	118	Rpleas_acq	CS_B	JXXJ	VKKV	YDDY	GWWG	BZZB	MQQM	spielen	fair	schön	retten	ehrlich	treu	strafen	faul	schlecht	rächen	eitel	tot	53pct	acq_USunple_CSpleas2_noRW	acq23456_noRW	2	10	0	0	300	300	437	46	0	1	1	blank2r.bmp	0	1	+	0	1	blank2r.bmp	252	1	VKKV	306	1	rächen	559	0	0	0	0	0	0	0	0	0	0	0	0	0	0	0	0	0	0	0	0	0	0	0	0	0	0	0	0	0	0	0	0	0	0	0	0	0	0	0
082719	12:23:11	12:27:19	247494	5.0.10.0	5_exp_noRW	118	Rpleas_acq	CS_B	JXXJ	VKKV	YDDY	GWWG	BZZB	MQQM	spielen	fair	schön	retten	ehrlich	treu	strafen	faul	schlecht	rächen	eitel	tot	47pct	acq_USunple_CSunple2_noRW	acq23456_noRW	2	11	0	0	300	300	395	46	0	1	1	blank2r.bmp	0	1	+	0	1	blank2r.bmp	252	1	GWWG	306	3	tot	559	0	0	0	0	0	0	0	0	0	0	0	0	0	0	0	0	0	0	0	0	0	0	0	0	0	0	0	0	0	0	0	0	0	0	0	0	0	0	0
082719	12:23:11	12:27:21	249147	5.0.10.0	5_exp_noRW	118	Rpleas_acq	CS_B	JXXJ	VKKV	YDDY	GWWG	BZZB	MQQM	spielen	fair	schön	retten	ehrlich	treu	strafen	faul	schlecht	rächen	eitel	tot	47pct	acq_USunple_CSunple1_noRW	acq23456_noRW	2	12	0	0	300	300	254	50	0	0	1	blank2r.bmp	0	1	+	0	1	blank2r.bmp	252	1	YDDY	306	2	faul	559	1	FEHLER	852	0	0	0	0	0	0	0	0	0	0	0	0	0	0	0	0	0	0	0	0	0	0	0	0	0	0	0	0	0	0	0	0	0	0	0	0
082719	12:23:11	12:27:22	250520	5.0.10.0	5_exp_noRW	118	Rpleas_acq	CS_B	JXXJ	VKKV	YDDY	GWWG	BZZB	MQQM	spielen	fair	schön	retten	ehrlich	treu	strafen	faul	schlecht	rächen	eitel	tot	53pct	acq_USpleas_CSunple1_noRW	acq23456_noRW	2	13	0	0	300	300	422	50	0	1	1	blank2r.bmp	0	1	+	0	1	blank2r.bmp	252	1	YDDY	306	2	fair	559	0	0	0	0	0	0	0	0	0	0	0	0	0	0	0	0	0	0	0	0	0	0	0	0	0	0	0	0	0	0	0	0	0	0	0	0	0	0	0
082719	12:23:11	12:27:24	252132	5.0.10.0	5_exp_noRW	118	Rpleas_acq	CS_B	JXXJ	VKKV	YDDY	GWWG	BZZB	MQQM	spielen	fair	schön	retten	ehrlich	treu	strafen	faul	schlecht	rächen	eitel	tot	47pct	acq_USunple_CSunple1_noRW	acq23456_noRW	2	14	0	0	300	300	427	46	0	1	1	blank2r.bmp	0	1	+	0	1	blank2r.bmp	252	1	YDDY	306	3	schlecht	559	0	0	0	0	0	0	0	0	0	0	0	0	0	0	0	0	0	0	0	0	0	0	0	0	0	0	0	0	0	0	0	0	0	0	0	0	0	0	0
082719	12:23:11	12:27:25	253692	5.0.10.0	5_exp_noRW	118	Rpleas_acq	CS_B	JXXJ	VKKV	YDDY	GWWG	BZZB	MQQM	spielen	fair	schön	retten	ehrlich	treu	strafen	faul	schlecht	rächen	eitel	tot	53pct	acq_USunple_CSunple1_noRW	acq23456_noRW	2	15	0	0	300	300	390	46	0	1	1	blank2r.bmp	0	1	+	0	1	blank2r.bmp	252	1	YDDY	306	1	strafen	559	0	0	0	0	0	0	0	0	0	0	0	0	0	0	0	0	0	0	0	0	0	0	0	0	0	0	0	0	0	0	0	0	0	0	0	0	0	0	0
082719	12:23:11	12:27:27	255438	5.0.10.0	5_exp_noRW	118	Rpleas_acq	CS_B	JXXJ	VKKV	YDDY	GWWG	BZZB	MQQM	spielen	fair	schön	retten	ehrlich	treu	strafen	faul	schlecht	rächen	eitel	tot	47pct	acq_USunple_CSunple2_noRW	acq23456_noRW	2	16	0	0	300	300	569	46	0	1	1	blank2r.bmp	0	1	+	0	1	blank2r.bmp	252	1	GWWG	306	1	rächen	559	0	0	0	0	0	0	0	0	0	0	0	0	0	0	0	0	0	0	0	0	0	0	0	0	0	0	0	0	0	0	0	0	0	0	0	0	0	0	0
082719	12:23:11	12:27:29	257197	5.0.10.0	5_exp_noRW	118	Rpleas_acq	CS_B	JXXJ	VKKV	YDDY	GWWG	BZZB	MQQM	spielen	fair	schön	retten	ehrlich	treu	strafen	faul	schlecht	rächen	eitel	tot	47pct	acq_USpleas_CSpleas2_noRW	acq23456_noRW	2	17	0	0	300	300	371	46	0	0	1	blank2r.bmp	0	1	+	0	1	blank2r.bmp	252	1	VKKV	306	1	retten	559	1	FEHLER	959	0	0	0	0	0	0	0	0	0	0	0	0	0	0	0	0	0	0	0	0	0	0	0	0	0	0	0	0	0	0	0	0	0	0	0	0
082719	12:23:11	12:27:30	258610	5.0.10.0	5_exp_noRW	118	Rpleas_acq	CS_B	JXXJ	VKKV	YDDY	GWWG	BZZB	MQQM	spielen	fair	schön	retten	ehrlich	treu	strafen	faul	schlecht	rächen	eitel	tot	53pct	acq_USunple_CSunple2_noRW	acq23456_noRW	2	18	0	0	300	300	439	46	0	1	1	blank2r.bmp	0	1	+	0	1	blank2r.bmp	252	1	GWWG	306	1	rächen	559	0	0	0	0	0	0	0	0	0	0	0	0	0	0	0	0	0	0	0	0	0	0	0	0	0	0	0	0	0	0	0	0	0	0	0	0	0	0	0
082719	12:23:11	12:27:32	260196	5.0.10.0	5_exp_noRW	118	Rpleas_acq	CS_B	JXXJ	VKKV	YDDY	GWWG	BZZB	MQQM	spielen	fair	schön	retten	ehrlich	treu	strafen	faul	schlecht	rächen	eitel	tot	47pct	acq_USunple_CSunple2_noRW	acq23456_noRW	2	19	0	0	300	300	400	46	0	1	1	blank2r.bmp	0	1	+	0	1	blank2r.bmp	252	1	GWWG	306	3	tot	559	0	0	0	0	0	0	0	0	0	0	0	0	0	0	0	0	0	0	0	0	0	0	0	0	0	0	0	0	0	0	0	0	0	0	0	0	0	0	0
082719	12:23:11	12:27:33	261688	5.0.10.0	5_exp_noRW	118	Rpleas_acq	CS_B	JXXJ	VKKV	YDDY	GWWG	BZZB	MQQM	spielen	fair	schön	retten	ehrlich	treu	strafen	faul	schlecht	rächen	eitel	tot	53pct	acq_USpleas_CSpleas1_noRW	acq23456_noRW	2	20	0	0	300	300	321	50	0	1	1	blank2r.bmp	0	1	+	0	1	blank2r.bmp	252	1	JXXJ	306	3	schön	559	0	0	0	0	0	0	0	0	0	0	0	0	0	0	0	0	0	0	0	0	0	0	0	0	0	0	0	0	0	0	0	0	0	0	0	0	0	0	0
082719	12:23:11	12:27:35	263181	5.0.10.0	5_exp_noRW	118	Rpleas_acq	CS_B	JXXJ	VKKV	YDDY	GWWG	BZZB	MQQM	spielen	fair	schön	retten	ehrlich	treu	strafen	faul	schlecht	rächen	eitel	tot	47pct	acq_USpleas_CSpleas1_noRW	acq23456_noRW	2	21	0	0	300	300	328	50	0	1	1	blank2r.bmp	0	1	+	0	1	blank2r.bmp	252	1	JXXJ	306	2	fair	559	0	0	0	0	0	0	0	0	0	0	0	0	0	0	0	0	0	0	0	0	0	0	0	0	0	0	0	0	0	0	0	0	0	0	0	0	0	0	0
082719	12:23:11	12:27:36	264767	5.0.10.0	5_exp_noRW	118	Rpleas_acq	CS_B	JXXJ	VKKV	YDDY	GWWG	BZZB	MQQM	spielen	fair	schön	retten	ehrlich	treu	strafen	faul	schlecht	rächen	eitel	tot	47pct	acq_USunple_CSunple1_noRW	acq23456_noRW	2	22	0	0	300	300	408	46	0	1	1	blank2r.bmp	0	1	+	0	1	blank2r.bmp	252	1	YDDY	306	2	faul	559	0	0	0	0	0	0	0	0	0	0	0	0	0	0	0	0	0	0	0	0	0	0	0	0	0	0	0	0	0	0	0	0	0	0	0	0	0	0	0
082719	12:23:11	12:27:38	266460	5.0.10.0	5_exp_noRW	118	Rpleas_acq	CS_B	JXXJ	VKKV	YDDY	GWWG	BZZB	MQQM	spielen	fair	schön	retten	ehrlich	treu	strafen	faul	schlecht	rächen	eitel	tot	53pct	acq_USpleas_CSpleas2_noRW	acq23456_noRW	2	23	0	0	300	300	507	50	0	1	1	blank2r.bmp	0	1	+	0	1	blank2r.bmp	252	1	VKKV	306	2	ehrlich	559	0	0	0	0	0	0	0	0	0	0	0	0	0	0	0	0	0	0	0	0	0	0	0	0	0	0	0	0	0	0	0	0	0	0	0	0	0	0	0
082719	12:23:11	12:27:40	268019	5.0.10.0	5_exp_noRW	118	Rpleas_acq	CS_B	JXXJ	VKKV	YDDY	GWWG	BZZB	MQQM	spielen	fair	schön	retten	ehrlich	treu	strafen	faul	schlecht	rächen	eitel	tot	47pct	acq_USunple_CSunple1_noRW	acq23456_noRW	2	24	0	0	300	300	395	46	0	1	1	blank2r.bmp	0	1	+	0	1	blank2r.bmp	252	1	YDDY	306	3	schlecht	559	0	0	0	0	0	0	0	0	0	0	0	0	0	0	0	0	0	0	0	0	0	0	0	0	0	0	0	0	0	0	0	0	0	0	0	0	0	0	0
082719	12:23:11	12:27:41	269565	5.0.10.0	5_exp_noRW	118	Rpleas_acq	CS_B	JXXJ	VKKV	YDDY	GWWG	BZZB	MQQM	spielen	fair	schön	retten	ehrlich	treu	strafen	faul	schlecht	rächen	eitel	tot	47pct	acq_USpleas_CSpleas2_noRW	acq23456_noRW	2	25	0	0	300	300	375	50	0	1	1	blank2r.bmp	0	1	+	0	1	blank2r.bmp	252	1	VKKV	306	1	retten	559	0	0	0	0	0	0	0	0	0	0	0	0	0	0	0	0	0	0	0	0	0	0	0	0	0	0	0	0	0	0	0	0	0	0	0	0	0	0	0
082719	12:23:11	12:27:43	271111	5.0.10.0	5_exp_noRW	118	Rpleas_acq	CS_B	JXXJ	VKKV	YDDY	GWWG	BZZB	MQQM	spielen	fair	schön	retten	ehrlich	treu	strafen	faul	schlecht	rächen	eitel	tot	47pct	acq_USpleas_CSpleas1_noRW	acq23456_noRW	2	26	0	0	300	300	379	50	0	1	1	blank2r.bmp	0	1	+	0	1	blank2r.bmp	252	1	JXXJ	306	2	fair	559	0	0	0	0	0	0	0	0	0	0	0	0	0	0	0	0	0	0	0	0	0	0	0	0	0	0	0	0	0	0	0	0	0	0	0	0	0	0	0
082719	12:23:11	12:27:44	272670	5.0.10.0	5_exp_noRW	118	Rpleas_acq	CS_B	JXXJ	VKKV	YDDY	GWWG	BZZB	MQQM	spielen	fair	schön	retten	ehrlich	treu	strafen	faul	schlecht	rächen	eitel	tot	47pct	acq_USunple_CSunple1_noRW	acq23456_noRW	2	27	0	0	300	300	394	46	0	1	1	blank2r.bmp	0	1	+	0	1	blank2r.bmp	252	1	YDDY	306	2	faul	559	0	0	0	0	0	0	0	0	0	0	0	0	0	0	0	0	0	0	0	0	0	0	0	0	0	0	0	0	0	0	0	0	0	0	0	0	0	0	0
082719	12:23:11	12:27:46	274256	5.0.10.0	5_exp_noRW	118	Rpleas_acq	CS_B	JXXJ	VKKV	YDDY	GWWG	BZZB	MQQM	spielen	fair	schön	retten	ehrlich	treu	strafen	faul	schlecht	rächen	eitel	tot	53pct	acq_USunple_CSpleas1_noRW	acq23456_noRW	2	28	0	0	300	300	407	46	0	1	1	blank2r.bmp	0	1	+	0	1	blank2r.bmp	252	1	JXXJ	306	2	faul	559	0	0	0	0	0	0	0	0	0	0	0	0	0	0	0	0	0	0	0	0	0	0	0	0	0	0	0	0	0	0	0	0	0	0	0	0	0	0	0
082719	12:23:11	12:27:47	275842	5.0.10.0	5_exp_noRW	118	Rpleas_acq	CS_B	JXXJ	VKKV	YDDY	GWWG	BZZB	MQQM	spielen	fair	schön	retten	ehrlich	treu	strafen	faul	schlecht	rächen	eitel	tot	53pct	acq_USpleas_CSpleas2_noRW	acq23456_noRW	2	29	0	0	300	300	400	50	0	1	1	blank2r.bmp	0	1	+	0	1	blank2r.bmp	252	1	VKKV	306	2	ehrlich	559	0	0	0	0	0	0	0	0	0	0	0	0	0	0	0	0	0	0	0	0	0	0	0	0	0	0	0	0	0	0	0	0	0	0	0	0	0	0	0
082719	12:23:11	12:27:49	277508	5.0.10.0	5_exp_noRW	118	Rpleas_acq	CS_B	JXXJ	VKKV	YDDY	GWWG	BZZB	MQQM	spielen	fair	schön	retten	ehrlich	treu	strafen	faul	schlecht	rächen	eitel	tot	53pct	acq_USunple_CSunple2_noRW	acq23456_noRW	2	30	0	0	300	300	500	46	0	1	1	blank2r.bmp	0	1	+	0	1	blank2r.bmp	252	1	GWWG	306	2	eitel	559	0	0	0	0	0	0	0	0	0	0	0	0	0	0	0	0	0	0	0	0	0	0	0	0	0	0	0	0	0	0	0	0	0	0	0	0	0	0	0
082719	12:23:11	12:27:51	279054	5.0.10.0	5_exp_noRW	118	Rpleas_acq	CS_B	JXXJ	VKKV	YDDY	GWWG	BZZB	MQQM	spielen	fair	schön	retten	ehrlich	treu	strafen	faul	schlecht	rächen	eitel	tot	47pct	acq_USpleas_CSpleas1_noRW	acq23456_noRW	2	31	0	0	300	300	363	50	0	1	1	blank2r.bmp	0	1	+	0	1	blank2r.bmp	252	1	JXXJ	306	3	schön	559	0	0	0	0	0	0	0	0	0	0	0	0	0	0	0	0	0	0	0	0	0	0	0	0	0	0	0	0	0	0	0	0	0	0	0	0	0	0	0
082719	12:23:11	12:27:52	280667	5.0.10.0	5_exp_noRW	118	Rpleas_acq	CS_B	JXXJ	VKKV	YDDY	GWWG	BZZB	MQQM	spielen	fair	schön	retten	ehrlich	treu	strafen	faul	schlecht	rächen	eitel	tot	53pct	acq_USunple_CSunple2_noRW	acq23456_noRW	2	32	0	0	300	300	446	46	0	1	1	blank2r.bmp	0	1	+	0	1	blank2r.bmp	252	1	GWWG	306	1	rächen	559	0	0	0	0	0	0	0	0	0	0	0	0	0	0	0	0	0	0	0	0	0	0	0	0	0	0	0	0	0	0	0	0	0	0	0	0	0	0	0
082719	12:23:11	12:27:54	282200	5.0.10.0	5_exp_noRW	118	Rpleas_acq	CS_B	JXXJ	VKKV	YDDY	GWWG	BZZB	MQQM	spielen	fair	schön	retten	ehrlich	treu	strafen	faul	schlecht	rächen	eitel	tot	53pct	acq_USpleas_CSpleas1_noRW	acq23456_noRW	2	33	0	0	300	300	357	50	0	1	1	blank2r.bmp	0	1	+	0	1	blank2r.bmp	252	1	JXXJ	306	1	spielen	559	0	0	0	0	0	0	0	0	0	0	0	0	0	0	0	0	0	0	0	0	0	0	0	0	0	0	0	0	0	0	0	0	0	0	0	0	0	0	0
082719	12:23:11	12:27:55	283812	5.0.10.0	5_exp_noRW	118	Rpleas_acq	CS_B	JXXJ	VKKV	YDDY	GWWG	BZZB	MQQM	spielen	fair	schön	retten	ehrlich	treu	strafen	faul	schlecht	rächen	eitel	tot	47pct	acq_USunple_CSpleas2_noRW	acq23456_noRW	2	34	0	0	300	300	421	46	0	1	1	blank2r.bmp	0	1	+	0	1	blank2r.bmp	252	1	VKKV	306	3	tot	559	0	0	0	0	0	0	0	0	0	0	0	0	0	0	0	0	0	0	0	0	0	0	0	0	0	0	0	0	0	0	0	0	0	0	0	0	0	0	0
082719	12:23:11	12:27:57	285798	5.0.10.0	5_exp_noRW	118	Rpleas_acq	CS_B	JXXJ	VKKV	YDDY	GWWG	BZZB	MQQM	spielen	fair	schön	retten	ehrlich	treu	strafen	faul	schlecht	rächen	eitel	tot	53pct	acq_USunple_CSunple2_noRW	acq23456_noRW	2	35	0	0	300	300	590	50	0	0	1	blank2r.bmp	0	1	+	0	1	blank2r.bmp	252	1	GWWG	306	2	eitel	559	1	FEHLER	1186	0	0	0	0	0	0	0	0	0	0	0	0	0	0	0	0	0	0	0	0	0	0	0	0	0	0	0	0	0	0	0	0	0	0	0	0
082719	12:23:11	12:27:59	287144	5.0.10.0	5_exp_noRW	118	Rpleas_acq	CS_B	JXXJ	VKKV	YDDY	GWWG	BZZB	MQQM	spielen	fair	schön	retten	ehrlich	treu	strafen	faul	schlecht	rächen	eitel	tot	47pct	acq_USpleas_CSunple2_noRW	acq23456_noRW	2	36	0	0	300	300	395	50	0	1	1	blank2r.bmp	0	1	+	0	1	blank2r.bmp	252	1	GWWG	306	3	treu	559	0	0	0	0	0	0	0	0	0	0	0	0	0	0	0	0	0	0	0	0	0	0	0	0	0	0	0	0	0	0	0	0	0	0	0	0	0	0	0
082719	12:23:11	12:28:00	288690	5.0.10.0	5_exp_noRW	118	Rpleas_acq	CS_B	JXXJ	VKKV	YDDY	GWWG	BZZB	MQQM	spielen	fair	schön	retten	ehrlich	treu	strafen	faul	schlecht	rächen	eitel	tot	53pct	acq_USpleas_CSunple1_noRW	acq23456_noRW	2	37	0	0	300	300	383	50	0	1	1	blank2r.bmp	0	1	+	0	1	blank2r.bmp	252	1	YDDY	306	1	spielen	559	0	0	0	0	0	0	0	0	0	0	0	0	0	0	0	0	0	0	0	0	0	0	0	0	0	0	0	0	0	0	0	0	0	0	0	0	0	0	0
082719	12:23:11	12:28:02	290263	5.0.10.0	5_exp_noRW	118	Rpleas_acq	CS_B	JXXJ	VKKV	YDDY	GWWG	BZZB	MQQM	spielen	fair	schön	retten	ehrlich	treu	strafen	faul	schlecht	rächen	eitel	tot	53pct	acq_USunple_CSunple2_noRW	acq23456_noRW	2	38	0	0	300	300	394	46	0	1	1	blank2r.bmp	0	1	+	0	1	blank2r.bmp	252	1	GWWG	306	3	tot	559	0	0	0	0	0	0	0	0	0	0	0	0	0	0	0	0	0	0	0	0	0	0	0	0	0	0	0	0	0	0	0	0	0	0	0	0	0	0	0
082719	12:23:11	12:28:03	291836	5.0.10.0	5_exp_noRW	118	Rpleas_acq	CS_B	JXXJ	VKKV	YDDY	GWWG	BZZB	MQQM	spielen	fair	schön	retten	ehrlich	treu	strafen	faul	schlecht	rächen	eitel	tot	53pct	acq_USunple_CSunple1_noRW	acq23456_noRW	2	39	0	0	300	300	397	46	0	1	1	blank2r.bmp	0	1	+	0	1	blank2r.bmp	252	1	YDDY	306	1	strafen	559	0	0	0	0	0	0	0	0	0	0	0	0	0	0	0	0	0	0	0	0	0	0	0	0	0	0	0	0	0	0	0	0	0	0	0	0	0	0	0
082719	12:23:11	12:28:05	293342	5.0.10.0	5_exp_noRW	118	Rpleas_acq	CS_B	JXXJ	VKKV	YDDY	GWWG	BZZB	MQQM	spielen	fair	schön	retten	ehrlich	treu	strafen	faul	schlecht	rächen	eitel	tot	47pct	acq_USpleas_CSpleas2_noRW	acq23456_noRW	2	40	0	0	300	300	321	50	0	1	1	blank2r.bmp	0	1	+	0	1	blank2r.bmp	252	1	VKKV	306	3	treu	559	0	0	0	0	0	0	0	0	0	0	0	0	0	0	0	0	0	0	0	0	0	0	0	0	0	0	0	0	0	0	0	0	0	0	0	0	0	0	0
082719	12:23:11	12:28:07	294968	5.0.10.0	5_exp_noRW	118	Rpleas_acq	CS_B	JXXJ	VKKV	YDDY	GWWG	BZZB	MQQM	spielen	fair	schön	retten	ehrlich	treu	strafen	faul	schlecht	rächen	eitel	tot	47pct	acq_USunple_CSpleas2_noRW	acq23456_noRW	2	41	0	0	300	300	464	46	0	1	1	blank2r.bmp	0	1	+	0	1	blank2r.bmp	252	1	VKKV	306	2	eitel	559	0	0	0	0	0	0	0	0	0	0	0	0	0	0	0	0	0	0	0	0	0	0	0	0	0	0	0	0	0	0	0	0	0	0	0	0	0	0	0
082719	12:23:11	12:28:08	296540	5.0.10.0	5_exp_noRW	118	Rpleas_acq	CS_B	JXXJ	VKKV	YDDY	GWWG	BZZB	MQQM	spielen	fair	schön	retten	ehrlich	treu	strafen	faul	schlecht	rächen	eitel	tot	47pct	acq_USunple_CSunple2_noRW	acq23456_noRW	2	42	0	0	300	300	389	46	0	1	1	blank2r.bmp	0	1	+	0	1	blank2r.bmp	252	1	GWWG	306	2	eitel	559	0	0	0	0	0	0	0	0	0	0	0	0	0	0	0	0	0	0	0	0	0	0	0	0	0	0	0	0	0	0	0	0	0	0	0	0	0	0	0
082719	12:23:11	12:28:10	298113	5.0.10.0	5_exp_noRW	118	Rpleas_acq	CS_B	JXXJ	VKKV	YDDY	GWWG	BZZB	MQQM	spielen	fair	schön	retten	ehrlich	treu	strafen	faul	schlecht	rächen	eitel	tot	53pct	acq_USpleas_CSpleas2_noRW	acq23456_noRW	2	43	0	0	300	300	406	50	0	1	1	blank2r.bmp	0	1	+	0	1	blank2r.bmp	252	1	VKKV	306	3	treu	559	0	0	0	0	0	0	0	0	0	0	0	0	0	0	0	0	0	0	0	0	0	0	0	0	0	0	0	0	0	0	0	0	0	0	0	0	0	0	0
082719	12:23:11	12:28:11	299646	5.0.10.0	5_exp_noRW	118	Rpleas_acq	CS_B	JXXJ	VKKV	YDDY	GWWG	BZZB	MQQM	spielen	fair	schön	retten	ehrlich	treu	strafen	faul	schlecht	rächen	eitel	tot	47pct	acq_USunple_CSunple2_noRW	acq23456_noRW	2	44	0	0	300	300	368	46	0	1	1	blank2r.bmp	0	1	+	0	1	blank2r.bmp	252	1	GWWG	306	1	rächen	559	0	0	0	0	0	0	0	0	0	0	0	0	0	0	0	0	0	0	0	0	0	0	0	0	0	0	0	0	0	0	0	0	0	0	0	0	0	0	0
082719	12:23:11	12:28:13	301285	5.0.10.0	5_exp_noRW	118	Rpleas_acq	CS_B	JXXJ	VKKV	YDDY	GWWG	BZZB	MQQM	spielen	fair	schön	retten	ehrlich	treu	strafen	faul	schlecht	rächen	eitel	tot	53pct	acq_USunple_CSunple1_noRW	acq23456_noRW	2	45	0	0	300	300	457	46	0	1	1	blank2r.bmp	0	1	+	0	1	blank2r.bmp	252	1	YDDY	306	2	faul	559	0	0	0	0	0	0	0	0	0	0	0	0	0	0	0	0	0	0	0	0	0	0	0	0	0	0	0	0	0	0	0	0	0	0	0	0	0	0	0
082719	12:23:11	12:28:15	303258	5.0.10.0	5_exp_noRW	118	Rpleas_acq	CS_B	JXXJ	VKKV	YDDY	GWWG	BZZB	MQQM	spielen	fair	schön	retten	ehrlich	treu	strafen	faul	schlecht	rächen	eitel	tot	53pct	acq_USunple_CSunple2_noRW	acq23456_noRW	2	46	0	0	300	300	786	46	0	1	1	blank2r.bmp	0	1	+	0	1	blank2r.bmp	252	1	GWWG	306	3	tot	559	0	0	0	0	0	0	0	0	0	0	0	0	0	0	0	0	0	0	0	0	0	0	0	0	0	0	0	0	0	0	0	0	0	0	0	0	0	0	0
082719	12:23:11	12:28:16	304777	5.0.10.0	5_exp_noRW	118	Rpleas_acq	CS_B	JXXJ	VKKV	YDDY	GWWG	BZZB	MQQM	spielen	fair	schön	retten	ehrlich	treu	strafen	faul	schlecht	rächen	eitel	tot	47pct	acq_USpleas_CSpleas1_noRW	acq23456_noRW	2	47	0	0	300	300	335	50	0	1	1	blank2r.bmp	0	1	+	0	1	blank2r.bmp	252	1	JXXJ	306	1	spielen	559	0	0	0	0	0	0	0	0	0	0	0	0	0	0	0	0	0	0	0	0	0	0	0	0	0	0	0	0	0	0	0	0	0	0	0	0	0	0	0
082719	12:23:11	12:28:18	306523	5.0.10.0	5_exp_noRW	118	Rpleas_acq	CS_B	JXXJ	VKKV	YDDY	GWWG	BZZB	MQQM	spielen	fair	schön	retten	ehrlich	treu	strafen	faul	schlecht	rächen	eitel	tot	47pct	acq_USpleas_CSpleas2_noRW	acq23456_noRW	2	48	0	0	300	300	573	50	0	1	1	blank2r.bmp	0	1	+	0	1	blank2r.bmp	252	1	VKKV	306	2	ehrlich	559	0	0	0	0	0	0	0	0	0	0	0	0	0	0	0	0	0	0	0	0	0	0	0	0	0	0	0	0	0	0	0	0	0	0	0	0	0	0	0
082719	12:23:11	12:28:20	308229	5.0.10.0	5_exp_noRW	118	Rpleas_acq	CS_B	JXXJ	VKKV	YDDY	GWWG	BZZB	MQQM	spielen	fair	schön	retten	ehrlich	treu	strafen	faul	schlecht	rächen	eitel	tot	53pct	acq_USunple_CSunple2_noRW	acq23456_noRW	2	49	0	0	300	300	533	46	0	1	1	blank2r.bmp	0	1	+	0	1	blank2r.bmp	252	1	GWWG	306	1	rächen	559	0	0	0	0	0	0	0	0	0	0	0	0	0	0	0	0	0	0	0	0	0	0	0	0	0	0	0	0	0	0	0	0	0	0	0	0	0	0	0
082719	12:23:11	12:28:21	309855	5.0.10.0	5_exp_noRW	118	Rpleas_acq	CS_B	JXXJ	VKKV	YDDY	GWWG	BZZB	MQQM	spielen	fair	schön	retten	ehrlich	treu	strafen	faul	schlecht	rächen	eitel	tot	47pct	acq_USpleas_CSpleas1_noRW	acq23456_noRW	2	50	0	0	300	300	453	50	0	1	1	blank2r.bmp	0	1	+	0	1	blank2r.bmp	252	1	JXXJ	306	3	schön	559	0	0	0	0	0	0	0	0	0	0	0	0	0	0	0	0	0	0	0	0	0	0	0	0	0	0	0	0	0	0	0	0	0	0	0	0	0	0	0
082719	12:23:11	12:28:23	311521	5.0.10.0	5_exp_noRW	118	Rpleas_acq	CS_B	JXXJ	VKKV	YDDY	GWWG	BZZB	MQQM	spielen	fair	schön	retten	ehrlich	treu	strafen	faul	schlecht	rächen	eitel	tot	53pct	acq_USpleas_CSpleas1_noRW	acq23456_noRW	2	51	0	0	300	300	483	50	0	1	1	blank2r.bmp	0	1	+	0	1	blank2r.bmp	252	1	JXXJ	306	2	fair	559	0	0	0	0	0	0	0	0	0	0	0	0	0	0	0	0	0	0	0	0	0	0	0	0	0	0	0	0	0	0	0	0	0	0	0	0	0	0	0
082719	12:23:11	12:28:25	313120	5.0.10.0	5_exp_noRW	118	Rpleas_acq	CS_B	JXXJ	VKKV	YDDY	GWWG	BZZB	MQQM	spielen	fair	schön	retten	ehrlich	treu	strafen	faul	schlecht	rächen	eitel	tot	53pct	acq_USpleas_CSpleas1_noRW	acq23456_noRW	2	52	0	0	300	300	420	50	0	1	1	blank2r.bmp	0	1	+	0	1	blank2r.bmp	252	1	JXXJ	306	3	schön	559	0	0	0	0	0	0	0	0	0	0	0	0	0	0	0	0	0	0	0	0	0	0	0	0	0	0	0	0	0	0	0	0	0	0	0	0	0	0	0
082719	12:23:11	12:28:26	314813	5.0.10.0	5_exp_noRW	118	Rpleas_acq	CS_B	JXXJ	VKKV	YDDY	GWWG	BZZB	MQQM	spielen	fair	schön	retten	ehrlich	treu	strafen	faul	schlecht	rächen	eitel	tot	53pct	acq_USunple_CSpleas1_noRW	acq23456_noRW	2	53	0	0	300	300	527	46	0	1	1	blank2r.bmp	0	1	+	0	1	blank2r.bmp	252	1	JXXJ	306	2	faul	559	0	0	0	0	0	0	0	0	0	0	0	0	0	0	0	0	0	0	0	0	0	0	0	0	0	0	0	0	0	0	0	0	0	0	0	0	0	0	0
082719	12:23:11	12:28:28	316599	5.0.10.0	5_exp_noRW	118	Rpleas_acq	CS_B	JXXJ	VKKV	YDDY	GWWG	BZZB	MQQM	spielen	fair	schön	retten	ehrlich	treu	strafen	faul	schlecht	rächen	eitel	tot	47pct	acq_USunple_CSunple1_noRW	acq23456_noRW	2	54	0	0	300	300	611	46	0	1	1	blank2r.bmp	0	1	+	0	1	blank2r.bmp	252	1	YDDY	306	1	strafen	559	0	0	0	0	0	0	0	0	0	0	0	0	0	0	0	0	0	0	0	0	0	0	0	0	0	0	0	0	0	0	0	0	0	0	0	0	0	0	0
082719	12:23:11	12:28:30	318331	5.0.10.0	5_exp_noRW	118	Rpleas_acq	CS_B	JXXJ	VKKV	YDDY	GWWG	BZZB	MQQM	spielen	fair	schön	retten	ehrlich	treu	strafen	faul	schlecht	rächen	eitel	tot	53pct	acq_USpleas_CSpleas2_noRW	acq23456_noRW	2	55	0	0	300	300	557	50	0	1	1	blank2r.bmp	0	1	+	0	1	blank2r.bmp	252	1	VKKV	306	1	retten	559	0	0	0	0	0	0	0	0	0	0	0	0	0	0	0	0	0	0	0	0	0	0	0	0	0	0	0	0	0	0	0	0	0	0	0	0	0	0	0
082719	12:23:11	12:28:32	320170	5.0.10.0	5_exp_noRW	118	Rpleas_acq	CS_B	JXXJ	VKKV	YDDY	GWWG	BZZB	MQQM	spielen	fair	schön	retten	ehrlich	treu	strafen	faul	schlecht	rächen	eitel	tot	47pct	acq_USunple_CSunple1_noRW	acq23456_noRW	2	56	0	0	300	300	664	46	0	1	1	blank2r.bmp	0	1	+	0	1	blank2r.bmp	252	1	YDDY	306	3	schlecht	559	0	0	0	0	0	0	0	0	0	0	0	0	0	0	0	0	0	0	0	0	0	0	0	0	0	0	0	0	0	0	0	0	0	0	0	0	0	0	0
082719	12:23:11	12:28:33	321850	5.0.10.0	5_exp_noRW	118	Rpleas_acq	CS_B	JXXJ	VKKV	YDDY	GWWG	BZZB	MQQM	spielen	fair	schön	retten	ehrlich	treu	strafen	faul	schlecht	rächen	eitel	tot	53pct	acq_USunple_CSunple1_noRW	acq23456_noRW	2	57	0	0	300	300	500	46	0	1	1	blank2r.bmp	0	1	+	0	1	blank2r.bmp	252	1	YDDY	306	2	faul	559	0	0	0	0	0	0	0	0	0	0	0	0	0	0	0	0	0	0	0	0	0	0	0	0	0	0	0	0	0	0	0	0	0	0	0	0	0	0	0
082719	12:23:11	12:28:35	323436	5.0.10.0	5_exp_noRW	118	Rpleas_acq	CS_B	JXXJ	VKKV	YDDY	GWWG	BZZB	MQQM	spielen	fair	schön	retten	ehrlich	treu	strafen	faul	schlecht	rächen	eitel	tot	47pct	acq_USpleas_CSunple2_noRW	acq23456_noRW	2	58	0	0	300	300	411	50	0	1	1	blank2r.bmp	0	1	+	0	1	blank2r.bmp	252	1	GWWG	306	1	retten	559	0	0	0	0	0	0	0	0	0	0	0	0	0	0	0	0	0	0	0	0	0	0	0	0	0	0	0	0	0	0	0	0	0	0	0	0	0	0	0
082719	12:23:11	12:28:37	325048	5.0.10.0	5_exp_noRW	118	Rpleas_acq	CS_B	JXXJ	VKKV	YDDY	GWWG	BZZB	MQQM	spielen	fair	schön	retten	ehrlich	treu	strafen	faul	schlecht	rächen	eitel	tot	53pct	acq_USpleas_CSpleas2_noRW	acq23456_noRW	2	59	0	0	300	300	427	50	0	1	1	blank2r.bmp	0	1	+	0	1	blank2r.bmp	252	1	VKKV	306	2	ehrlich	559	0	0	0	0	0	0	0	0	0	0	0	0	0	0	0	0	0	0	0	0	0	0	0	0	0	0	0	0	0	0	0	0	0	0	0	0	0	0	0
082719	12:23:11	12:28:38	326581	5.0.10.0	5_exp_noRW	118	Rpleas_acq	CS_B	JXXJ	VKKV	YDDY	GWWG	BZZB	MQQM	spielen	fair	schön	retten	ehrlich	treu	strafen	faul	schlecht	rächen	eitel	tot	53pct	acq_USpleas_CSunple1_noRW	acq23456_noRW	2	60	0	0	300	300	354	50	0	1	1	blank2r.bmp	0	1	+	0	1	blank2r.bmp	252	1	YDDY	306	1	spielen	559	0	0	0	0	0	0	0	0	0	0	0	0	0	0	0	0	0	0	0	0	0	0	0	0	0	0	0	0	0	0	0	0	0	0	0	0	0	0	0
082719	12:23:11	12:28:40	328180	5.0.10.0	5_exp_noRW	118	Rpleas_acq	CS_B	JXXJ	VKKV	YDDY	GWWG	BZZB	MQQM	spielen	fair	schön	retten	ehrlich	treu	strafen	faul	schlecht	rächen	eitel	tot	47pct	acq_USpleas_CSpleas1_noRW	acq23456_noRW	2	61	0	0	300	300	433	50	0	1	1	blank2r.bmp	0	1	+	0	1	blank2r.bmp	252	1	JXXJ	306	2	fair	559	0	0	0	0	0	0	0	0	0	0	0	0	0	0	0	0	0	0	0	0	0	0	0	0	0	0	0	0	0	0	0	0	0	0	0	0	0	0	0
082719	12:23:11	12:28:41	329713	5.0.10.0	5_exp_noRW	118	Rpleas_acq	CS_B	JXXJ	VKKV	YDDY	GWWG	BZZB	MQQM	spielen	fair	schön	retten	ehrlich	treu	strafen	faul	schlecht	rächen	eitel	tot	53pct	acq_USpleas_CSpleas1_noRW	acq23456_noRW	2	62	0	0	300	300	347	50	0	1	1	blank2r.bmp	0	1	+	0	1	blank2r.bmp	252	1	JXXJ	306	1	spielen	559	0	0	0	0	0	0	0	0	0	0	0	0	0	0	0	0	0	0	0	0	0	0	0	0	0	0	0	0	0	0	0	0	0	0	0	0	0	0	0
082719	12:23:11	12:28:43	331246	5.0.10.0	5_exp_noRW	118	Rpleas_acq	CS_B	JXXJ	VKKV	YDDY	GWWG	BZZB	MQQM	spielen	fair	schön	retten	ehrlich	treu	strafen	faul	schlecht	rächen	eitel	tot	53pct	acq_USpleas_CSpleas2_noRW	acq23456_noRW	2	63	0	0	300	300	355	50	0	1	1	blank2r.bmp	0	1	+	0	1	blank2r.bmp	252	1	VKKV	306	1	retten	559	0	0	0	0	0	0	0	0	0	0	0	0	0	0	0	0	0	0	0	0	0	0	0	0	0	0	0	0	0	0	0	0	0	0	0	0	0	0	0
082719	12:23:11	12:28:44	332832	5.0.10.0	5_exp_noRW	118	Rpleas_acq	CS_B	JXXJ	VKKV	YDDY	GWWG	BZZB	MQQM	spielen	fair	schön	retten	ehrlich	treu	strafen	faul	schlecht	rächen	eitel	tot	53pct	acq_USpleas_CSunple1_noRW	acq23456_noRW	2	64	0	0	300	300	424	50	0	1	1	blank2r.bmp	0	1	+	0	1	blank2r.bmp	252	1	YDDY	306	3	schön	559	0	0	0	0	0	0	0	0	0	0	0	0	0	0	0	0	0	0	0	0	0	0	0	0	0	0	0	0	0	0	0	0	0	0	0	0	0	0	0
082719	12:23:11	12:28:46	334364	5.0.10.0	5_exp_noRW	118	Rpleas_acq	CS_B	JXXJ	VKKV	YDDY	GWWG	BZZB	MQQM	spielen	fair	schön	retten	ehrlich	treu	strafen	faul	schlecht	rächen	eitel	tot	53pct	acq_USpleas_CSpleas2_noRW	acq23456_noRW	2	65	0	0	300	300	346	50	0	1	1	blank2r.bmp	0	1	+	0	1	blank2r.bmp	252	1	VKKV	306	3	treu	559	0	0	0	0	0	0	0	0	0	0	0	0	0	0	0	0	0	0	0	0	0	0	0	0	0	0	0	0	0	0	0	0	0	0	0	0	0	0	0
082719	12:23:11	12:28:48	335977	5.0.10.0	5_exp_noRW	118	Rpleas_acq	CS_B	JXXJ	VKKV	YDDY	GWWG	BZZB	MQQM	spielen	fair	schön	retten	ehrlich	treu	strafen	faul	schlecht	rächen	eitel	tot	53pct	acq_USunple_CSunple1_noRW	acq23456_noRW	2	66	0	0	300	300	440	46	0	1	1	blank2r.bmp	0	1	+	0	1	blank2r.bmp	252	1	YDDY	306	1	strafen	559	0	0	0	0	0	0	0	0	0	0	0	0	0	0	0	0	0	0	0	0	0	0	0	0	0	0	0	0	0	0	0	0	0	0	0	0	0	0	0
082719	12:23:11	12:28:49	337523	5.0.10.0	5_exp_noRW	118	Rpleas_acq	CS_B	JXXJ	VKKV	YDDY	GWWG	BZZB	MQQM	spielen	fair	schön	retten	ehrlich	treu	strafen	faul	schlecht	rächen	eitel	tot	47pct	acq_USunple_CSunple1_noRW	acq23456_noRW	2	67	0	0	300	300	375	46	0	1	1	blank2r.bmp	0	1	+	0	1	blank2r.bmp	252	1	YDDY	306	3	schlecht	559	0	0	0	0	0	0	0	0	0	0	0	0	0	0	0	0	0	0	0	0	0	0	0	0	0	0	0	0	0	0	0	0	0	0	0	0	0	0	0
082719	12:23:11	12:28:51	339136	5.0.10.0	5_exp_noRW	118	Rpleas_acq	CS_B	JXXJ	VKKV	YDDY	GWWG	BZZB	MQQM	spielen	fair	schön	retten	ehrlich	treu	strafen	faul	schlecht	rächen	eitel	tot	47pct	acq_USpleas_CSpleas1_noRW	acq23456_noRW	2	68	0	0	300	300	440	50	0	1	1	blank2r.bmp	0	1	+	0	1	blank2r.bmp	252	1	JXXJ	306	2	fair	559	0	0	0	0	0	0	0	0	0	0	0	0	0	0	0	0	0	0	0	0	0	0	0	0	0	0	0	0	0	0	0	0	0	0	0	0	0	0	0
082719	12:23:11	12:28:52	340748	5.0.10.0	5_exp_noRW	118	Rpleas_acq	CS_B	JXXJ	VKKV	YDDY	GWWG	BZZB	MQQM	spielen	fair	schön	retten	ehrlich	treu	strafen	faul	schlecht	rächen	eitel	tot	53pct	acq_USunple_CSpleas1_noRW	acq23456_noRW	2	69	0	0	300	300	426	46	0	1	1	blank2r.bmp	0	1	+	0	1	blank2r.bmp	252	1	JXXJ	306	1	strafen	559	0	0	0	0	0	0	0	0	0	0	0	0	0	0	0	0	0	0	0	0	0	0	0	0	0	0	0	0	0	0	0	0	0	0	0	0	0	0	0
082719	12:23:11	12:28:54	342374	5.0.10.0	5_exp_noRW	118	Rpleas_acq	CS_B	JXXJ	VKKV	YDDY	GWWG	BZZB	MQQM	spielen	fair	schön	retten	ehrlich	treu	strafen	faul	schlecht	rächen	eitel	tot	53pct	acq_USunple_CSunple2_noRW	acq23456_noRW	2	70	0	0	300	300	458	46	0	1	1	blank2r.bmp	0	1	+	0	1	blank2r.bmp	252	1	GWWG	306	3	tot	559	0	0	0	0	0	0	0	0	0	0	0	0	0	0	0	0	0	0	0	0	0	0	0	0	0	0	0	0	0	0	0	0	0	0	0	0	0	0	0
082719	12:23:11	12:28:56	344200	5.0.10.0	5_exp_noRW	118	Rpleas_acq	CS_B	JXXJ	VKKV	YDDY	GWWG	BZZB	MQQM	spielen	fair	schön	retten	ehrlich	treu	strafen	faul	schlecht	rächen	eitel	tot	47pct	acq_USunple_CSunple2_noRW	acq23456_noRW	2	71	0	0	300	300	450	50	0	0	1	blank2r.bmp	0	1	+	0	1	blank2r.bmp	252	1	GWWG	306	2	eitel	559	1	FEHLER	1039	0	0	0	0	0	0	0	0	0	0	0	0	0	0	0	0	0	0	0	0	0	0	0	0	0	0	0	0	0	0	0	0	0	0	0	0
082719	12:23:11	12:28:57	345613	5.0.10.0	5_exp_noRW	118	Rpleas_acq	CS_B	JXXJ	VKKV	YDDY	GWWG	BZZB	MQQM	spielen	fair	schön	retten	ehrlich	treu	strafen	faul	schlecht	rächen	eitel	tot	47pct	acq_USunple_CSunple2_noRW	acq23456_noRW	2	72	0	0	300	300	449	46	0	1	1	blank2r.bmp	0	1	+	0	1	blank2r.bmp	252	1	GWWG	306	1	rächen	559	0	0	0	0	0	0	0	0	0	0	0	0	0	0	0	0	0	0	0	0	0	0	0	0	0	0	0	0	0	0	0	0	0	0	0	0	0	0	0
082719	12:23:11	12:28:59	347266	5.0.10.0	5_exp_noRW	118	Rpleas_acq	CS_B	JXXJ	VKKV	YDDY	GWWG	BZZB	MQQM	spielen	fair	schön	retten	ehrlich	treu	strafen	faul	schlecht	rächen	eitel	tot	47pct	acq_USunple_CSunple1_noRW	acq23456_noRW	2	73	0	0	300	300	483	46	0	1	1	blank2r.bmp	0	1	+	0	1	blank2r.bmp	252	1	YDDY	306	1	strafen	559	0	0	0	0	0	0	0	0	0	0	0	0	0	0	0	0	0	0	0	0	0	0	0	0	0	0	0	0	0	0	0	0	0	0	0	0	0	0	0
082719	12:23:11	12:29:00	348892	5.0.10.0	5_exp_noRW	118	Rpleas_acq	CS_B	JXXJ	VKKV	YDDY	GWWG	BZZB	MQQM	spielen	fair	schön	retten	ehrlich	treu	strafen	faul	schlecht	rächen	eitel	tot	47pct	acq_USpleas_CSpleas2_noRW	acq23456_noRW	2	74	0	0	300	300	463	50	0	1	1	blank2r.bmp	0	1	+	0	1	blank2r.bmp	252	1	VKKV	306	2	ehrlich	559	0	0	0	0	0	0	0	0	0	0	0	0	0	0	0	0	0	0	0	0	0	0	0	0	0	0	0	0	0	0	0	0	0	0	0	0	0	0	0
082719	12:23:11	12:29:02	350504	5.0.10.0	5_exp_noRW	118	Rpleas_acq	CS_B	JXXJ	VKKV	YDDY	GWWG	BZZB	MQQM	spielen	fair	schön	retten	ehrlich	treu	strafen	faul	schlecht	rächen	eitel	tot	47pct	acq_USunple_CSpleas2_noRW	acq23456_noRW	2	75	0	0	300	300	426	46	0	1	1	blank2r.bmp	0	1	+	0	1	blank2r.bmp	252	1	VKKV	306	3	tot	559	0	0	0	0	0	0	0	0	0	0	0	0	0	0	0	0	0	0	0	0	0	0	0	0	0	0	0	0	0	0	0	0	0	0	0	0	0	0	0
082719	12:23:11	12:29:04	352037	5.0.10.0	5_exp_noRW	118	Rpleas_acq	CS_B	JXXJ	VKKV	YDDY	GWWG	BZZB	MQQM	spielen	fair	schön	retten	ehrlich	treu	strafen	faul	schlecht	rächen	eitel	tot	47pct	acq_USunple_CSunple1_noRW	acq23456_noRW	2	76	0	0	300	300	360	46	0	1	1	blank2r.bmp	0	1	+	0	1	blank2r.bmp	252	1	YDDY	306	3	schlecht	559	0	0	0	0	0	0	0	0	0	0	0	0	0	0	0	0	0	0	0	0	0	0	0	0	0	0	0	0	0	0	0	0	0	0	0	0	0	0	0
082719	12:23:11	12:29:05	353610	5.0.10.0	5_exp_noRW	118	Rpleas_acq	CS_B	JXXJ	VKKV	YDDY	GWWG	BZZB	MQQM	spielen	fair	schön	retten	ehrlich	treu	strafen	faul	schlecht	rächen	eitel	tot	53pct	acq_USunple_CSunple2_noRW	acq23456_noRW	2	77	0	0	300	300	388	46	0	1	1	blank2r.bmp	0	1	+	0	1	blank2r.bmp	252	1	GWWG	306	3	tot	559	0	0	0	0	0	0	0	0	0	0	0	0	0	0	0	0	0	0	0	0	0	0	0	0	0	0	0	0	0	0	0	0	0	0	0	0	0	0	0
082719	12:23:11	12:29:07	355142	5.0.10.0	5_exp_noRW	118	Rpleas_acq	CS_B	JXXJ	VKKV	YDDY	GWWG	BZZB	MQQM	spielen	fair	schön	retten	ehrlich	treu	strafen	faul	schlecht	rächen	eitel	tot	53pct	acq_USpleas_CSpleas1_noRW	acq23456_noRW	2	78	0	0	300	300	357	50	0	1	1	blank2r.bmp	0	1	+	0	1	blank2r.bmp	252	1	JXXJ	306	3	schön	559	0	0	0	0	0	0	0	0	0	0	0	0	0	0	0	0	0	0	0	0	0	0	0	0	0	0	0	0	0	0	0	0	0	0	0	0	0	0	0
082719	12:23:11	12:29:08	356728	5.0.10.0	5_exp_noRW	118	Rpleas_acq	CS_B	JXXJ	VKKV	YDDY	GWWG	BZZB	MQQM	spielen	fair	schön	retten	ehrlich	treu	strafen	faul	schlecht	rächen	eitel	tot	53pct	acq_USpleas_CSpleas2_noRW	acq23456_noRW	2	79	0	0	300	300	405	50	0	1	1	blank2r.bmp	0	1	+	0	1	blank2r.bmp	252	1	VKKV	306	3	treu	559	0	0	0	0	0	0	0	0	0	0	0	0	0	0	0	0	0	0	0	0	0	0	0	0	0	0	0	0	0	0	0	0	0	0	0	0	0	0	0
082719	12:23:11	12:29:10	358208	5.0.10.0	5_exp_noRW	118	Rpleas_acq	CS_B	JXXJ	VKKV	YDDY	GWWG	BZZB	MQQM	spielen	fair	schön	retten	ehrlich	treu	strafen	faul	schlecht	rächen	eitel	tot	53pct	acq_USpleas_CSunple2_noRW	acq23456_noRW	2	80	0	0	300	300	299	50	0	1	1	blank2r.bmp	0	1	+	0	1	blank2r.bmp	252	1	GWWG	306	3	treu	559	0	0	0	0	0	0	0	0	0	0	0	0	0	0	0	0	0	0	0	0	0	0	0	0	0	0	0	0	0	0	0	0	0	0	0	0	0	0	0
082719	12:23:11	12:29:18	366457	5.0.10.0	5_exp_noRW	118	Rpleas_acq	CS_B	JXXJ	VKKV	YDDY	GWWG	BZZB	MQQM	spielen	fair	schön	retten	ehrlich	treu	strafen	faul	schlecht	rächen	eitel	tot	47pct	acq_USpleas_CSpleas2_noRW	acq23456_noRW	3	1	0	0	300	300	485	50	0	1	1	blank2r.bmp	0	1	+	0	1	blank2r.bmp	252	1	VKKV	306	1	retten	559	0	0	0	0	0	0	0	0	0	0	0	0	0	0	0	0	0	0	0	0	0	0	0	0	0	0	0	0	0	0	0	0	0	0	0	0	0	0	0
082719	12:23:11	12:29:19	367910	5.0.10.0	5_exp_noRW	118	Rpleas_acq	CS_B	JXXJ	VKKV	YDDY	GWWG	BZZB	MQQM	spielen	fair	schön	retten	ehrlich	treu	strafen	faul	schlecht	rächen	eitel	tot	47pct	acq_USpleas_CSpleas1_noRW	acq23456_noRW	3	2	0	0	300	300	280	50	0	1	1	blank2r.bmp	0	1	+	0	1	blank2r.bmp	252	1	JXXJ	306	1	spielen	559	0	0	0	0	0	0	0	0	0	0	0	0	0	0	0	0	0	0	0	0	0	0	0	0	0	0	0	0	0	0	0	0	0	0	0	0	0	0	0
082719	12:23:11	12:29:21	369456	5.0.10.0	5_exp_noRW	118	Rpleas_acq	CS_B	JXXJ	VKKV	YDDY	GWWG	BZZB	MQQM	spielen	fair	schön	retten	ehrlich	treu	strafen	faul	schlecht	rächen	eitel	tot	47pct	acq_USunple_CSunple1_noRW	acq23456_noRW	3	3	0	0	300	300	374	46	0	1	1	blank2r.bmp	0	1	+	0	1	blank2r.bmp	252	1	YDDY	306	2	faul	559	0	0	0	0	0	0	0	0	0	0	0	0	0	0	0	0	0	0	0	0	0	0	0	0	0	0	0	0	0	0	0	0	0	0	0	0	0	0	0
082719	12:23:11	12:29:23	371069	5.0.10.0	5_exp_noRW	118	Rpleas_acq	CS_B	JXXJ	VKKV	YDDY	GWWG	BZZB	MQQM	spielen	fair	schön	retten	ehrlich	treu	strafen	faul	schlecht	rächen	eitel	tot	47pct	acq_USpleas_CSpleas1_noRW	acq23456_noRW	3	4	0	0	300	300	439	50	0	1	1	blank2r.bmp	0	1	+	0	1	blank2r.bmp	252	1	JXXJ	306	2	fair	559	0	0	0	0	0	0	0	0	0	0	0	0	0	0	0	0	0	0	0	0	0	0	0	0	0	0	0	0	0	0	0	0	0	0	0	0	0	0	0
082719	12:23:11	12:29:24	372748	5.0.10.0	5_exp_noRW	118	Rpleas_acq	CS_B	JXXJ	VKKV	YDDY	GWWG	BZZB	MQQM	spielen	fair	schön	retten	ehrlich	treu	strafen	faul	schlecht	rächen	eitel	tot	53pct	acq_USunple_CSpleas2_noRW	acq23456_noRW	3	5	0	0	300	300	492	46	0	1	1	blank2r.bmp	0	1	+	0	1	blank2r.bmp	252	1	VKKV	306	1	rächen	559	0	0	0	0	0	0	0	0	0	0	0	0	0	0	0	0	0	0	0	0	0	0	0	0	0	0	0	0	0	0	0	0	0	0	0	0	0	0	0
082719	12:23:11	12:29:26	374361	5.0.10.0	5_exp_noRW	118	Rpleas_acq	CS_B	JXXJ	VKKV	YDDY	GWWG	BZZB	MQQM	spielen	fair	schön	retten	ehrlich	treu	strafen	faul	schlecht	rächen	eitel	tot	53pct	acq_USpleas_CSpleas2_noRW	acq23456_noRW	3	6	0	0	300	300	448	50	0	1	1	blank2r.bmp	0	1	+	0	1	blank2r.bmp	252	1	VKKV	306	3	treu	559	0	0	0	0	0	0	0	0	0	0	0	0	0	0	0	0	0	0	0	0	0	0	0	0	0	0	0	0	0	0	0	0	0	0	0	0	0	0	0
082719	12:23:11	12:29:27	375907	5.0.10.0	5_exp_noRW	118	Rpleas_acq	CS_B	JXXJ	VKKV	YDDY	GWWG	BZZB	MQQM	spielen	fair	schön	retten	ehrlich	treu	strafen	faul	schlecht	rächen	eitel	tot	47pct	acq_USpleas_CSunple1_noRW	acq23456_noRW	3	7	0	0	300	300	360	50	0	1	1	blank2r.bmp	0	1	+	0	1	blank2r.bmp	252	1	YDDY	306	2	fair	559	0	0	0	0	0	0	0	0	0	0	0	0	0	0	0	0	0	0	0	0	0	0	0	0	0	0	0	0	0	0	0	0	0	0	0	0	0	0	0
082719	12:23:11	12:29:29	377466	5.0.10.0	5_exp_noRW	118	Rpleas_acq	CS_B	JXXJ	VKKV	YDDY	GWWG	BZZB	MQQM	spielen	fair	schön	retten	ehrlich	treu	strafen	faul	schlecht	rächen	eitel	tot	53pct	acq_USunple_CSunple1_noRW	acq23456_noRW	3	8	0	0	300	300	389	46	0	1	1	blank2r.bmp	0	1	+	0	1	blank2r.bmp	252	1	YDDY	306	3	schlecht	559	0	0	0	0	0	0	0	0	0	0	0	0	0	0	0	0	0	0	0	0	0	0	0	0	0	0	0	0	0	0	0	0	0	0	0	0	0	0	0
082719	12:23:11	12:29:31	379172	5.0.10.0	5_exp_noRW	118	Rpleas_acq	CS_B	JXXJ	VKKV	YDDY	GWWG	BZZB	MQQM	spielen	fair	schön	retten	ehrlich	treu	strafen	faul	schlecht	rächen	eitel	tot	47pct	acq_USunple_CSunple2_noRW	acq23456_noRW	3	9	0	0	300	300	519	46	0	1	1	blank2r.bmp	0	1	+	0	1	blank2r.bmp	252	1	GWWG	306	2	eitel	559	0	0	0	0	0	0	0	0	0	0	0	0	0	0	0	0	0	0	0	0	0	0	0	0	0	0	0	0	0	0	0	0	0	0	0	0	0	0	0
082719	12:23:11	12:29:32	380651	5.0.10.0	5_exp_noRW	118	Rpleas_acq	CS_B	JXXJ	VKKV	YDDY	GWWG	BZZB	MQQM	spielen	fair	schön	retten	ehrlich	treu	strafen	faul	schlecht	rächen	eitel	tot	47pct	acq_USpleas_CSpleas1_noRW	acq23456_noRW	3	10	0	0	300	300	312	50	0	1	1	blank2r.bmp	0	1	+	0	1	blank2r.bmp	252	1	JXXJ	306	3	schön	559	0	0	0	0	0	0	0	0	0	0	0	0	0	0	0	0	0	0	0	0	0	0	0	0	0	0	0	0	0	0	0	0	0	0	0	0	0	0	0
082719	12:23:11	12:29:34	382211	5.0.10.0	5_exp_noRW	118	Rpleas_acq	CS_B	JXXJ	VKKV	YDDY	GWWG	BZZB	MQQM	spielen	fair	schön	retten	ehrlich	treu	strafen	faul	schlecht	rächen	eitel	tot	53pct	acq_USpleas_CSunple2_noRW	acq23456_noRW	3	11	0	0	300	300	390	50	0	1	1	blank2r.bmp	0	1	+	0	1	blank2r.bmp	252	1	GWWG	306	2	ehrlich	559	0	0	0	0	0	0	0	0	0	0	0	0	0	0	0	0	0	0	0	0	0	0	0	0	0	0	0	0	0	0	0	0	0	0	0	0	0	0	0
082719	12:23:11	12:29:35	383730	5.0.10.0	5_exp_noRW	118	Rpleas_acq	CS_B	JXXJ	VKKV	YDDY	GWWG	BZZB	MQQM	spielen	fair	schön	retten	ehrlich	treu	strafen	faul	schlecht	rächen	eitel	tot	47pct	acq_USpleas_CSpleas2_noRW	acq23456_noRW	3	12	0	0	300	300	354	50	0	1	1	blank2r.bmp	0	1	+	0	1	blank2r.bmp	252	1	VKKV	306	1	retten	559	0	0	0	0	0	0	0	0	0	0	0	0	0	0	0	0	0	0	0	0	0	0	0	0	0	0	0	0	0	0	0	0	0	0	0	0	0	0	0
082719	12:23:11	12:29:37	385329	5.0.10.0	5_exp_noRW	118	Rpleas_acq	CS_B	JXXJ	VKKV	YDDY	GWWG	BZZB	MQQM	spielen	fair	schön	retten	ehrlich	treu	strafen	faul	schlecht	rächen	eitel	tot	53pct	acq_USunple_CSunple1_noRW	acq23456_noRW	3	13	0	0	300	300	420	46	0	1	1	blank2r.bmp	0	1	+	0	1	blank2r.bmp	252	1	YDDY	306	1	strafen	559	0	0	0	0	0	0	0	0	0	0	0	0	0	0	0	0	0	0	0	0	0	0	0	0	0	0	0	0	0	0	0	0	0	0	0	0	0	0	0
082719	12:23:11	12:29:38	386875	5.0.10.0	5_exp_noRW	118	Rpleas_acq	CS_B	JXXJ	VKKV	YDDY	GWWG	BZZB	MQQM	spielen	fair	schön	retten	ehrlich	treu	strafen	faul	schlecht	rächen	eitel	tot	47pct	acq_USpleas_CSpleas2_noRW	acq23456_noRW	3	14	0	0	300	300	377	50	0	1	1	blank2r.bmp	0	1	+	0	1	blank2r.bmp	252	1	VKKV	306	2	ehrlich	559	0	0	0	0	0	0	0	0	0	0	0	0	0	0	0	0	0	0	0	0	0	0	0	0	0	0	0	0	0	0	0	0	0	0	0	0	0	0	0
082719	12:23:11	12:29:40	388461	5.0.10.0	5_exp_noRW	118	Rpleas_acq	CS_B	JXXJ	VKKV	YDDY	GWWG	BZZB	MQQM	spielen	fair	schön	retten	ehrlich	treu	strafen	faul	schlecht	rächen	eitel	tot	47pct	acq_USunple_CSunple2_noRW	acq23456_noRW	3	15	0	0	300	300	418	46	0	1	1	blank2r.bmp	0	1	+	0	1	blank2r.bmp	252	1	GWWG	306	3	tot	559	0	0	0	0	0	0	0	0	0	0	0	0	0	0	0	0	0	0	0	0	0	0	0	0	0	0	0	0	0	0	0	0	0	0	0	0	0	0	0
082719	12:23:11	12:29:42	390114	5.0.10.0	5_exp_noRW	118	Rpleas_acq	CS_B	JXXJ	VKKV	YDDY	GWWG	BZZB	MQQM	spielen	fair	schön	retten	ehrlich	treu	strafen	faul	schlecht	rächen	eitel	tot	47pct	acq_USunple_CSunple2_noRW	acq23456_noRW	3	16	0	0	300	300	469	46	0	1	1	blank2r.bmp	0	1	+	0	1	blank2r.bmp	252	1	GWWG	306	2	eitel	559	0	0	0	0	0	0	0	0	0	0	0	0	0	0	0	0	0	0	0	0	0	0	0	0	0	0	0	0	0	0	0	0	0	0	0	0	0	0	0
082719	12:23:11	12:29:43	391767	5.0.10.0	5_exp_noRW	118	Rpleas_acq	CS_B	JXXJ	VKKV	YDDY	GWWG	BZZB	MQQM	spielen	fair	schön	retten	ehrlich	treu	strafen	faul	schlecht	rächen	eitel	tot	47pct	acq_USunple_CSunple1_noRW	acq23456_noRW	3	17	0	0	300	300	476	46	0	1	1	blank2r.bmp	0	1	+	0	1	blank2r.bmp	252	1	YDDY	306	2	faul	559	0	0	0	0	0	0	0	0	0	0	0	0	0	0	0	0	0	0	0	0	0	0	0	0	0	0	0	0	0	0	0	0	0	0	0	0	0	0	0
082719	12:23:11	12:29:45	393406	5.0.10.0	5_exp_noRW	118	Rpleas_acq	CS_B	JXXJ	VKKV	YDDY	GWWG	BZZB	MQQM	spielen	fair	schön	retten	ehrlich	treu	strafen	faul	schlecht	rächen	eitel	tot	47pct	acq_USunple_CSpleas1_noRW	acq23456_noRW	3	18	0	0	300	300	458	46	0	1	1	blank2r.bmp	0	1	+	0	1	blank2r.bmp	252	1	JXXJ	306	3	schlecht	559	0	0	0	0	0	0	0	0	0	0	0	0	0	0	0	0	0	0	0	0	0	0	0	0	0	0	0	0	0	0	0	0	0	0	0	0	0	0	0
082719	12:23:11	12:29:47	395085	5.0.10.0	5_exp_noRW	118	Rpleas_acq	CS_B	JXXJ	VKKV	YDDY	GWWG	BZZB	MQQM	spielen	fair	schön	retten	ehrlich	treu	strafen	faul	schlecht	rächen	eitel	tot	53pct	acq_USunple_CSunple2_noRW	acq23456_noRW	3	19	0	0	300	300	501	46	0	1	1	blank2r.bmp	0	1	+	0	1	blank2r.bmp	252	1	GWWG	306	1	rächen	559	0	0	0	0	0	0	0	0	0	0	0	0	0	0	0	0	0	0	0	0	0	0	0	0	0	0	0	0	0	0	0	0	0	0	0	0	0	0	0
082719	12:23:11	12:29:48	396671	5.0.10.0	5_exp_noRW	118	Rpleas_acq	CS_B	JXXJ	VKKV	YDDY	GWWG	BZZB	MQQM	spielen	fair	schön	retten	ehrlich	treu	strafen	faul	schlecht	rächen	eitel	tot	53pct	acq_USpleas_CSpleas1_noRW	acq23456_noRW	3	20	0	0	300	300	406	50	0	1	1	blank2r.bmp	0	1	+	0	1	blank2r.bmp	252	1	JXXJ	306	1	spielen	559	0	0	0	0	0	0	0	0	0	0	0	0	0	0	0	0	0	0	0	0	0	0	0	0	0	0	0	0	0	0	0	0	0	0	0	0	0	0	0
082719	12:23:11	12:29:50	398604	5.0.10.0	5_exp_noRW	118	Rpleas_acq	CS_B	JXXJ	VKKV	YDDY	GWWG	BZZB	MQQM	spielen	fair	schön	retten	ehrlich	treu	strafen	faul	schlecht	rächen	eitel	tot	53pct	acq_USunple_CSunple2_noRW	acq23456_noRW	3	21	0	0	300	300	770	46	0	1	1	blank2r.bmp	0	1	+	0	1	blank2r.bmp	252	1	GWWG	306	1	rächen	559	0	0	0	0	0	0	0	0	0	0	0	0	0	0	0	0	0	0	0	0	0	0	0	0	0	0	0	0	0	0	0	0	0	0	0	0	0	0	0
082719	12:23:11	12:29:52	400150	5.0.10.0	5_exp_noRW	118	Rpleas_acq	CS_B	JXXJ	VKKV	YDDY	GWWG	BZZB	MQQM	spielen	fair	schön	retten	ehrlich	treu	strafen	faul	schlecht	rächen	eitel	tot	53pct	acq_USpleas_CSpleas2_noRW	acq23456_noRW	3	22	0	0	300	300	360	50	0	1	1	blank2r.bmp	0	1	+	0	1	blank2r.bmp	252	1	VKKV	306	2	ehrlich	559	0	0	0	0	0	0	0	0	0	0	0	0	0	0	0	0	0	0	0	0	0	0	0	0	0	0	0	0	0	0	0	0	0	0	0	0	0	0	0
082719	12:23:11	12:29:53	401749	5.0.10.0	5_exp_noRW	118	Rpleas_acq	CS_B	JXXJ	VKKV	YDDY	GWWG	BZZB	MQQM	spielen	fair	schön	retten	ehrlich	treu	strafen	faul	schlecht	rächen	eitel	tot	53pct	acq_USunple_CSunple1_noRW	acq23456_noRW	3	23	0	0	300	300	433	46	0	1	1	blank2r.bmp	0	1	+	0	1	blank2r.bmp	252	1	YDDY	306	3	schlecht	559	0	0	0	0	0	0	0	0	0	0	0	0	0	0	0	0	0	0	0	0	0	0	0	0	0	0	0	0	0	0	0	0	0	0	0	0	0	0	0
082719	12:23:11	12:29:55	403335	5.0.10.0	5_exp_noRW	118	Rpleas_acq	CS_B	JXXJ	VKKV	YDDY	GWWG	BZZB	MQQM	spielen	fair	schön	retten	ehrlich	treu	strafen	faul	schlecht	rächen	eitel	tot	47pct	acq_USunple_CSpleas2_noRW	acq23456_noRW	3	24	0	0	300	300	401	46	0	1	1	blank2r.bmp	0	1	+	0	1	blank2r.bmp	252	1	VKKV	306	3	tot	559	0	0	0	0	0	0	0	0	0	0	0	0	0	0	0	0	0	0	0	0	0	0	0	0	0	0	0	0	0	0	0	0	0	0	0	0	0	0	0
082719	12:23:11	12:29:57	404934	5.0.10.0	5_exp_noRW	118	Rpleas_acq	CS_B	JXXJ	VKKV	YDDY	GWWG	BZZB	MQQM	spielen	fair	schön	retten	ehrlich	treu	strafen	faul	schlecht	rächen	eitel	tot	47pct	acq_USunple_CSunple2_noRW	acq23456_noRW	3	25	0	0	300	300	427	46	0	1	1	blank2r.bmp	0	1	+	0	1	blank2r.bmp	252	1	GWWG	306	3	tot	559	0	0	0	0	0	0	0	0	0	0	0	0	0	0	0	0	0	0	0	0	0	0	0	0	0	0	0	0	0	0	0	0	0	0	0	0	0	0	0
082719	12:23:11	12:29:58	406574	5.0.10.0	5_exp_noRW	118	Rpleas_acq	CS_B	JXXJ	VKKV	YDDY	GWWG	BZZB	MQQM	spielen	fair	schön	retten	ehrlich	treu	strafen	faul	schlecht	rächen	eitel	tot	53pct	acq_USpleas_CSpleas1_noRW	acq23456_noRW	3	26	0	0	300	300	453	50	0	1	1	blank2r.bmp	0	1	+	0	1	blank2r.bmp	252	1	JXXJ	306	2	fair	559	0	0	0	0	0	0	0	0	0	0	0	0	0	0	0	0	0	0	0	0	0	0	0	0	0	0	0	0	0	0	0	0	0	0	0	0	0	0	0
082719	12:23:11	12:30:00	408400	5.0.10.0	5_exp_noRW	118	Rpleas_acq	CS_B	JXXJ	VKKV	YDDY	GWWG	BZZB	MQQM	spielen	fair	schön	retten	ehrlich	treu	strafen	faul	schlecht	rächen	eitel	tot	47pct	acq_USunple_CSunple2_noRW	acq23456_noRW	3	27	0	0	300	300	641	46	0	1	1	blank2r.bmp	0	1	+	0	1	blank2r.bmp	252	1	GWWG	306	2	eitel	559	0	0	0	0	0	0	0	0	0	0	0	0	0	0	0	0	0	0	0	0	0	0	0	0	0	0	0	0	0	0	0	0	0	0	0	0	0	0	0
082719	12:23:11	12:30:02	410186	5.0.10.0	5_exp_noRW	118	Rpleas_acq	CS_B	JXXJ	VKKV	YDDY	GWWG	BZZB	MQQM	spielen	fair	schön	retten	ehrlich	treu	strafen	faul	schlecht	rächen	eitel	tot	53pct	acq_USpleas_CSpleas2_noRW	acq23456_noRW	3	28	0	0	300	300	599	50	0	1	1	blank2r.bmp	0	1	+	0	1	blank2r.bmp	252	1	VKKV	306	1	retten	559	0	0	0	0	0	0	0	0	0	0	0	0	0	0	0	0	0	0	0	0	0	0	0	0	0	0	0	0	0	0	0	0	0	0	0	0	0	0	0
082719	12:23:11	12:30:04	411945	5.0.10.0	5_exp_noRW	118	Rpleas_acq	CS_B	JXXJ	VKKV	YDDY	GWWG	BZZB	MQQM	spielen	fair	schön	retten	ehrlich	treu	strafen	faul	schlecht	rächen	eitel	tot	53pct	acq_USpleas_CSunple1_noRW	acq23456_noRW	3	29	0	0	300	300	587	50	0	1	1	blank2r.bmp	0	1	+	0	1	blank2r.bmp	252	1	YDDY	306	1	spielen	559	0	0	0	0	0	0	0	0	0	0	0	0	0	0	0	0	0	0	0	0	0	0	0	0	0	0	0	0	0	0	0	0	0	0	0	0	0	0	0
082719	12:23:11	12:30:05	413584	5.0.10.0	5_exp_noRW	118	Rpleas_acq	CS_B	JXXJ	VKKV	YDDY	GWWG	BZZB	MQQM	spielen	fair	schön	retten	ehrlich	treu	strafen	faul	schlecht	rächen	eitel	tot	53pct	acq_USpleas_CSunple2_noRW	acq23456_noRW	3	30	0	0	300	300	466	50	0	1	1	blank2r.bmp	0	1	+	0	1	blank2r.bmp	252	1	GWWG	306	3	treu	559	0	0	0	0	0	0	0	0	0	0	0	0	0	0	0	0	0	0	0	0	0	0	0	0	0	0	0	0	0	0	0	0	0	0	0	0	0	0	0
082719	12:23:11	12:30:07	415197	5.0.10.0	5_exp_noRW	118	Rpleas_acq	CS_B	JXXJ	VKKV	YDDY	GWWG	BZZB	MQQM	spielen	fair	schön	retten	ehrlich	treu	strafen	faul	schlecht	rächen	eitel	tot	53pct	acq_USpleas_CSpleas2_noRW	acq23456_noRW	3	31	0	0	300	300	442	50	0	1	1	blank2r.bmp	0	1	+	0	1	blank2r.bmp	252	1	VKKV	306	3	treu	559	0	0	0	0	0	0	0	0	0	0	0	0	0	0	0	0	0	0	0	0	0	0	0	0	0	0	0	0	0	0	0	0	0	0	0	0	0	0	0
082719	12:23:11	12:30:08	416823	5.0.10.0	5_exp_noRW	118	Rpleas_acq	CS_B	JXXJ	VKKV	YDDY	GWWG	BZZB	MQQM	spielen	fair	schön	retten	ehrlich	treu	strafen	faul	schlecht	rächen	eitel	tot	53pct	acq_USunple_CSunple1_noRW	acq23456_noRW	3	32	0	0	300	300	456	46	0	1	1	blank2r.bmp	0	1	+	0	1	blank2r.bmp	252	1	YDDY	306	2	faul	559	0	0	0	0	0	0	0	0	0	0	0	0	0	0	0	0	0	0	0	0	0	0	0	0	0	0	0	0	0	0	0	0	0	0	0	0	0	0	0
082719	12:23:11	12:30:10	418435	5.0.10.0	5_exp_noRW	118	Rpleas_acq	CS_B	JXXJ	VKKV	YDDY	GWWG	BZZB	MQQM	spielen	fair	schön	retten	ehrlich	treu	strafen	faul	schlecht	rächen	eitel	tot	47pct	acq_USunple_CSpleas1_noRW	acq23456_noRW	3	33	0	0	300	300	437	46	0	1	1	blank2r.bmp	0	1	+	0	1	blank2r.bmp	252	1	JXXJ	306	1	strafen	559	0	0	0	0	0	0	0	0	0	0	0	0	0	0	0	0	0	0	0	0	0	0	0	0	0	0	0	0	0	0	0	0	0	0	0	0	0	0	0
082719	12:23:11	12:30:12	419955	5.0.10.0	5_exp_noRW	118	Rpleas_acq	CS_B	JXXJ	VKKV	YDDY	GWWG	BZZB	MQQM	spielen	fair	schön	retten	ehrlich	treu	strafen	faul	schlecht	rächen	eitel	tot	47pct	acq_USpleas_CSpleas1_noRW	acq23456_noRW	3	34	0	0	300	300	335	50	0	1	1	blank2r.bmp	0	1	+	0	1	blank2r.bmp	252	1	JXXJ	306	3	schön	559	0	0	0	0	0	0	0	0	0	0	0	0	0	0	0	0	0	0	0	0	0	0	0	0	0	0	0	0	0	0	0	0	0	0	0	0	0	0	0
082719	12:23:11	12:30:13	421554	5.0.10.0	5_exp_noRW	118	Rpleas_acq	CS_B	JXXJ	VKKV	YDDY	GWWG	BZZB	MQQM	spielen	fair	schön	retten	ehrlich	treu	strafen	faul	schlecht	rächen	eitel	tot	53pct	acq_USunple_CSunple2_noRW	acq23456_noRW	3	35	0	0	300	300	431	46	0	1	1	blank2r.bmp	0	1	+	0	1	blank2r.bmp	252	1	GWWG	306	1	rächen	559	0	0	0	0	0	0	0	0	0	0	0	0	0	0	0	0	0	0	0	0	0	0	0	0	0	0	0	0	0	0	0	0	0	0	0	0	0	0	0
082719	12:23:11	12:30:15	423180	5.0.10.0	5_exp_noRW	118	Rpleas_acq	CS_B	JXXJ	VKKV	YDDY	GWWG	BZZB	MQQM	spielen	fair	schön	retten	ehrlich	treu	strafen	faul	schlecht	rächen	eitel	tot	47pct	acq_USunple_CSunple1_noRW	acq23456_noRW	3	36	0	0	300	300	464	46	0	1	1	blank2r.bmp	0	1	+	0	1	blank2r.bmp	252	1	YDDY	306	1	strafen	559	0	0	0	0	0	0	0	0	0	0	0	0	0	0	0	0	0	0	0	0	0	0	0	0	0	0	0	0	0	0	0	0	0	0	0	0	0	0	0
082719	12:23:11	12:30:16	424726	5.0.10.0	5_exp_noRW	118	Rpleas_acq	CS_B	JXXJ	VKKV	YDDY	GWWG	BZZB	MQQM	spielen	fair	schön	retten	ehrlich	treu	strafen	faul	schlecht	rächen	eitel	tot	47pct	acq_USpleas_CSpleas2_noRW	acq23456_noRW	3	37	0	0	300	300	364	50	0	1	1	blank2r.bmp	0	1	+	0	1	blank2r.bmp	252	1	VKKV	306	3	treu	559	0	0	0	0	0	0	0	0	0	0	0	0	0	0	0	0	0	0	0	0	0	0	0	0	0	0	0	0	0	0	0	0	0	0	0	0	0	0	0
082719	12:23:11	12:30:18	426205	5.0.10.0	5_exp_noRW	118	Rpleas_acq	CS_B	JXXJ	VKKV	YDDY	GWWG	BZZB	MQQM	spielen	fair	schön	retten	ehrlich	treu	strafen	faul	schlecht	rächen	eitel	tot	47pct	acq_USpleas_CSpleas1_noRW	acq23456_noRW	3	38	0	0	300	300	300	50	0	1	1	blank2r.bmp	0	1	+	0	1	blank2r.bmp	252	1	JXXJ	306	1	spielen	559	0	0	0	0	0	0	0	0	0	0	0	0	0	0	0	0	0	0	0	0	0	0	0	0	0	0	0	0	0	0	0	0	0	0	0	0	0	0	0
082719	12:23:11	12:30:19	427632	5.0.10.0	5_exp_noRW	118	Rpleas_acq	CS_B	JXXJ	VKKV	YDDY	GWWG	BZZB	MQQM	spielen	fair	schön	retten	ehrlich	treu	strafen	faul	schlecht	rächen	eitel	tot	47pct	acq_USpleas_CSpleas1_noRW	acq23456_noRW	3	39	0	0	300	300	243	50	0	1	1	blank2r.bmp	0	1	+	0	1	blank2r.bmp	252	1	JXXJ	306	1	spielen	559	0	0	0	0	0	0	0	0	0	0	0	0	0	0	0	0	0	0	0	0	0	0	0	0	0	0	0	0	0	0	0	0	0	0	0	0	0	0	0
082719	12:23:11	12:30:21	429218	5.0.10.0	5_exp_noRW	118	Rpleas_acq	CS_B	JXXJ	VKKV	YDDY	GWWG	BZZB	MQQM	spielen	fair	schön	retten	ehrlich	treu	strafen	faul	schlecht	rächen	eitel	tot	47pct	acq_USunple_CSunple1_noRW	acq23456_noRW	3	40	0	0	300	300	406	46	0	1	1	blank2r.bmp	0	1	+	0	1	blank2r.bmp	252	1	YDDY	306	3	schlecht	559	0	0	0	0	0	0	0	0	0	0	0	0	0	0	0	0	0	0	0	0	0	0	0	0	0	0	0	0	0	0	0	0	0	0	0	0	0	0	0
082719	12:23:11	12:30:22	430883	5.0.10.0	5_exp_noRW	118	Rpleas_acq	CS_B	JXXJ	VKKV	YDDY	GWWG	BZZB	MQQM	spielen	fair	schön	retten	ehrlich	treu	strafen	faul	schlecht	rächen	eitel	tot	47pct	acq_USunple_CSpleas2_noRW	acq23456_noRW	3	41	0	0	300	300	482	46	0	1	1	blank2r.bmp	0	1	+	0	1	blank2r.bmp	252	1	VKKV	306	2	eitel	559	0	0	0	0	0	0	0	0	0	0	0	0	0	0	0	0	0	0	0	0	0	0	0	0	0	0	0	0	0	0	0	0	0	0	0	0	0	0	0
082719	12:23:11	12:30:24	432496	5.0.10.0	5_exp_noRW	118	Rpleas_acq	CS_B	JXXJ	VKKV	YDDY	GWWG	BZZB	MQQM	spielen	fair	schön	retten	ehrlich	treu	strafen	faul	schlecht	rächen	eitel	tot	47pct	acq_USunple_CSunple1_noRW	acq23456_noRW	3	42	0	0	300	300	450	46	0	1	1	blank2r.bmp	0	1	+	0	1	blank2r.bmp	252	1	YDDY	306	2	faul	559	0	0	0	0	0	0	0	0	0	0	0	0	0	0	0	0	0	0	0	0	0	0	0	0	0	0	0	0	0	0	0	0	0	0	0	0	0	0	0
082719	12:23:11	12:30:26	434122	5.0.10.0	5_exp_noRW	118	Rpleas_acq	CS_B	JXXJ	VKKV	YDDY	GWWG	BZZB	MQQM	spielen	fair	schön	retten	ehrlich	treu	strafen	faul	schlecht	rächen	eitel	tot	47pct	acq_USpleas_CSpleas1_noRW	acq23456_noRW	3	43	0	0	300	300	450	50	0	1	1	blank2r.bmp	0	1	+	0	1	blank2r.bmp	252	1	JXXJ	306	2	fair	559	0	0	0	0	0	0	0	0	0	0	0	0	0	0	0	0	0	0	0	0	0	0	0	0	0	0	0	0	0	0	0	0	0	0	0	0	0	0	0
082719	12:23:11	12:30:27	435668	5.0.10.0	5_exp_noRW	118	Rpleas_acq	CS_B	JXXJ	VKKV	YDDY	GWWG	BZZB	MQQM	spielen	fair	schön	retten	ehrlich	treu	strafen	faul	schlecht	rächen	eitel	tot	53pct	acq_USpleas_CSpleas1_noRW	acq23456_noRW	3	44	0	0	300	300	360	50	0	1	1	blank2r.bmp	0	1	+	0	1	blank2r.bmp	252	1	JXXJ	306	3	schön	559	0	0	0	0	0	0	0	0	0	0	0	0	0	0	0	0	0	0	0	0	0	0	0	0	0	0	0	0	0	0	0	0	0	0	0	0	0	0	0
082719	12:23:11	12:30:29	437307	5.0.10.0	5_exp_noRW	118	Rpleas_acq	CS_B	JXXJ	VKKV	YDDY	GWWG	BZZB	MQQM	spielen	fair	schön	retten	ehrlich	treu	strafen	faul	schlecht	rächen	eitel	tot	47pct	acq_USunple_CSunple2_noRW	acq23456_noRW	3	45	0	0	300	300	454	46	0	1	1	blank2r.bmp	0	1	+	0	1	blank2r.bmp	252	1	GWWG	306	2	eitel	559	0	0	0	0	0	0	0	0	0	0	0	0	0	0	0	0	0	0	0	0	0	0	0	0	0	0	0	0	0	0	0	0	0	0	0	0	0	0	0
082719	12:23:11	12:30:30	438827	5.0.10.0	5_exp_noRW	118	Rpleas_acq	CS_B	JXXJ	VKKV	YDDY	GWWG	BZZB	MQQM	spielen	fair	schön	retten	ehrlich	treu	strafen	faul	schlecht	rächen	eitel	tot	47pct	acq_USpleas_CSpleas2_noRW	acq23456_noRW	3	46	0	0	300	300	340	50	0	1	1	blank2r.bmp	0	1	+	0	1	blank2r.bmp	252	1	VKKV	306	1	retten	559	0	0	0	0	0	0	0	0	0	0	0	0	0	0	0	0	0	0	0	0	0	0	0	0	0	0	0	0	0	0	0	0	0	0	0	0	0	0	0
082719	12:23:11	12:30:32	440319	5.0.10.0	5_exp_noRW	118	Rpleas_acq	CS_B	JXXJ	VKKV	YDDY	GWWG	BZZB	MQQM	spielen	fair	schön	retten	ehrlich	treu	strafen	faul	schlecht	rächen	eitel	tot	53pct	acq_USpleas_CSpleas1_noRW	acq23456_noRW	3	47	0	0	300	300	310	50	0	1	1	blank2r.bmp	0	1	+	0	1	blank2r.bmp	252	1	JXXJ	306	3	schön	559	0	0	0	0	0	0	0	0	0	0	0	0	0	0	0	0	0	0	0	0	0	0	0	0	0	0	0	0	0	0	0	0	0	0	0	0	0	0	0
082719	12:23:11	12:30:34	442092	5.0.10.0	5_exp_noRW	118	Rpleas_acq	CS_B	JXXJ	VKKV	YDDY	GWWG	BZZB	MQQM	spielen	fair	schön	retten	ehrlich	treu	strafen	faul	schlecht	rächen	eitel	tot	53pct	acq_USunple_CSpleas1_noRW	acq23456_noRW	3	48	0	0	300	300	602	46	0	1	1	blank2r.bmp	0	1	+	0	1	blank2r.bmp	252	1	JXXJ	306	2	faul	559	0	0	0	0	0	0	0	0	0	0	0	0	0	0	0	0	0	0	0	0	0	0	0	0	0	0	0	0	0	0	0	0	0	0	0	0	0	0	0
082719	12:23:11	12:30:35	443678	5.0.10.0	5_exp_noRW	118	Rpleas_acq	CS_B	JXXJ	VKKV	YDDY	GWWG	BZZB	MQQM	spielen	fair	schön	retten	ehrlich	treu	strafen	faul	schlecht	rächen	eitel	tot	47pct	acq_USpleas_CSunple1_noRW	acq23456_noRW	3	49	0	0	300	300	402	50	0	1	1	blank2r.bmp	0	1	+	0	1	blank2r.bmp	252	1	YDDY	306	2	fair	559	0	0	0	0	0	0	0	0	0	0	0	0	0	0	0	0	0	0	0	0	0	0	0	0	0	0	0	0	0	0	0	0	0	0	0	0	0	0	0
082719	12:23:11	12:30:37	445211	5.0.10.0	5_exp_noRW	118	Rpleas_acq	CS_B	JXXJ	VKKV	YDDY	GWWG	BZZB	MQQM	spielen	fair	schön	retten	ehrlich	treu	strafen	faul	schlecht	rächen	eitel	tot	53pct	acq_USunple_CSunple2_noRW	acq23456_noRW	3	50	0	0	300	300	371	46	0	1	1	blank2r.bmp	0	1	+	0	1	blank2r.bmp	252	1	GWWG	306	3	tot	559	0	0	0	0	0	0	0	0	0	0	0	0	0	0	0	0	0	0	0	0	0	0	0	0	0	0	0	0	0	0	0	0	0	0	0	0	0	0	0
082719	12:23:11	12:30:38	446837	5.0.10.0	5_exp_noRW	118	Rpleas_acq	CS_B	JXXJ	VKKV	YDDY	GWWG	BZZB	MQQM	spielen	fair	schön	retten	ehrlich	treu	strafen	faul	schlecht	rächen	eitel	tot	47pct	acq_USpleas_CSunple2_noRW	acq23456_noRW	3	51	0	0	300	300	439	50	0	1	1	blank2r.bmp	0	1	+	0	1	blank2r.bmp	252	1	GWWG	306	2	ehrlich	559	0	0	0	0	0	0	0	0	0	0	0	0	0	0	0	0	0	0	0	0	0	0	0	0	0	0	0	0	0	0	0	0	0	0	0	0	0	0	0
082719	12:23:11	12:30:40	448463	5.0.10.0	5_exp_noRW	118	Rpleas_acq	CS_B	JXXJ	VKKV	YDDY	GWWG	BZZB	MQQM	spielen	fair	schön	retten	ehrlich	treu	strafen	faul	schlecht	rächen	eitel	tot	53pct	acq_USunple_CSunple1_noRW	acq23456_noRW	3	52	0	0	300	300	441	46	0	1	1	blank2r.bmp	0	1	+	0	1	blank2r.bmp	252	1	YDDY	306	1	strafen	559	0	0	0	0	0	0	0	0	0	0	0	0	0	0	0	0	0	0	0	0	0	0	0	0	0	0	0	0	0	0	0	0	0	0	0	0	0	0	0
082719	12:23:11	12:30:42	450089	5.0.10.0	5_exp_noRW	118	Rpleas_acq	CS_B	JXXJ	VKKV	YDDY	GWWG	BZZB	MQQM	spielen	fair	schön	retten	ehrlich	treu	strafen	faul	schlecht	rächen	eitel	tot	47pct	acq_USunple_CSunple2_noRW	acq23456_noRW	3	53	0	0	300	300	457	46	0	1	1	blank2r.bmp	0	1	+	0	1	blank2r.bmp	252	1	GWWG	306	3	tot	559	0	0	0	0	0	0	0	0	0	0	0	0	0	0	0	0	0	0	0	0	0	0	0	0	0	0	0	0	0	0	0	0	0	0	0	0	0	0	0
082719	12:23:11	12:30:43	451821	5.0.10.0	5_exp_noRW	118	Rpleas_acq	CS_B	JXXJ	VKKV	YDDY	GWWG	BZZB	MQQM	spielen	fair	schön	retten	ehrlich	treu	strafen	faul	schlecht	rächen	eitel	tot	53pct	acq_USunple_CSunple2_noRW	acq23456_noRW	3	54	0	0	300	300	565	46	0	1	1	blank2r.bmp	0	1	+	0	1	blank2r.bmp	252	1	GWWG	306	2	eitel	559	0	0	0	0	0	0	0	0	0	0	0	0	0	0	0	0	0	0	0	0	0	0	0	0	0	0	0	0	0	0	0	0	0	0	0	0	0	0	0
082719	12:23:11	12:30:45	453367	5.0.10.0	5_exp_noRW	118	Rpleas_acq	CS_B	JXXJ	VKKV	YDDY	GWWG	BZZB	MQQM	spielen	fair	schön	retten	ehrlich	treu	strafen	faul	schlecht	rächen	eitel	tot	47pct	acq_USpleas_CSpleas2_noRW	acq23456_noRW	3	55	0	0	300	300	373	50	0	1	1	blank2r.bmp	0	1	+	0	1	blank2r.bmp	252	1	VKKV	306	2	ehrlich	559	0	0	0	0	0	0	0	0	0	0	0	0	0	0	0	0	0	0	0	0	0	0	0	0	0	0	0	0	0	0	0	0	0	0	0	0	0	0	0
082719	12:23:11	12:30:47	454940	5.0.10.0	5_exp_noRW	118	Rpleas_acq	CS_B	JXXJ	VKKV	YDDY	GWWG	BZZB	MQQM	spielen	fair	schön	retten	ehrlich	treu	strafen	faul	schlecht	rächen	eitel	tot	47pct	acq_USpleas_CSpleas2_noRW	acq23456_noRW	3	56	0	0	300	300	411	50	0	1	1	blank2r.bmp	0	1	+	0	1	blank2r.bmp	252	1	VKKV	306	3	treu	559	0	0	0	0	0	0	0	0	0	0	0	0	0	0	0	0	0	0	0	0	0	0	0	0	0	0	0	0	0	0	0	0	0	0	0	0	0	0	0
082719	12:23:11	12:30:48	456473	5.0.10.0	5_exp_noRW	118	Rpleas_acq	CS_B	JXXJ	VKKV	YDDY	GWWG	BZZB	MQQM	spielen	fair	schön	retten	ehrlich	treu	strafen	faul	schlecht	rächen	eitel	tot	47pct	acq_USpleas_CSpleas2_noRW	acq23456_noRW	3	57	0	0	300	300	351	50	0	1	1	blank2r.bmp	0	1	+	0	1	blank2r.bmp	252	1	VKKV	306	1	retten	559	0	0	0	0	0	0	0	0	0	0	0	0	0	0	0	0	0	0	0	0	0	0	0	0	0	0	0	0	0	0	0	0	0	0	0	0	0	0	0
082719	12:23:11	12:30:50	458085	5.0.10.0	5_exp_noRW	118	Rpleas_acq	CS_B	JXXJ	VKKV	YDDY	GWWG	BZZB	MQQM	spielen	fair	schön	retten	ehrlich	treu	strafen	faul	schlecht	rächen	eitel	tot	53pct	acq_USpleas_CSpleas1_noRW	acq23456_noRW	3	58	0	0	300	300	428	50	0	1	1	blank2r.bmp	0	1	+	0	1	blank2r.bmp	252	1	JXXJ	306	2	fair	559	0	0	0	0	0	0	0	0	0	0	0	0	0	0	0	0	0	0	0	0	0	0	0	0	0	0	0	0	0	0	0	0	0	0	0	0	0	0	0
082719	12:23:11	12:30:51	459618	5.0.10.0	5_exp_noRW	118	Rpleas_acq	CS_B	JXXJ	VKKV	YDDY	GWWG	BZZB	MQQM	spielen	fair	schön	retten	ehrlich	treu	strafen	faul	schlecht	rächen	eitel	tot	53pct	acq_USunple_CSunple1_noRW	acq23456_noRW	3	59	0	0	300	300	349	46	0	1	1	blank2r.bmp	0	1	+	0	1	blank2r.bmp	252	1	YDDY	306	3	schlecht	559	0	0	0	0	0	0	0	0	0	0	0	0	0	0	0	0	0	0	0	0	0	0	0	0	0	0	0	0	0	0	0	0	0	0	0	0	0	0	0
082719	12:23:11	12:30:53	461271	5.0.10.0	5_exp_noRW	118	Rpleas_acq	CS_B	JXXJ	VKKV	YDDY	GWWG	BZZB	MQQM	spielen	fair	schön	retten	ehrlich	treu	strafen	faul	schlecht	rächen	eitel	tot	53pct	acq_USunple_CSunple1_noRW	acq23456_noRW	3	60	0	0	300	300	482	46	0	1	1	blank2r.bmp	0	1	+	0	1	blank2r.bmp	252	1	YDDY	306	2	faul	559	0	0	0	0	0	0	0	0	0	0	0	0	0	0	0	0	0	0	0	0	0	0	0	0	0	0	0	0	0	0	0	0	0	0	0	0	0	0	0
082719	12:23:11	12:30:54	462910	5.0.10.0	5_exp_noRW	118	Rpleas_acq	CS_B	JXXJ	VKKV	YDDY	GWWG	BZZB	MQQM	spielen	fair	schön	retten	ehrlich	treu	strafen	faul	schlecht	rächen	eitel	tot	53pct	acq_USpleas_CSunple2_noRW	acq23456_noRW	3	61	0	0	300	300	470	50	0	1	1	blank2r.bmp	0	1	+	0	1	blank2r.bmp	252	1	GWWG	306	1	retten	559	0	0	0	0	0	0	0	0	0	0	0	0	0	0	0	0	0	0	0	0	0	0	0	0	0	0	0	0	0	0	0	0	0	0	0	0	0	0	0
082719	12:23:11	12:30:56	464416	5.0.10.0	5_exp_noRW	118	Rpleas_acq	CS_B	JXXJ	VKKV	YDDY	GWWG	BZZB	MQQM	spielen	fair	schön	retten	ehrlich	treu	strafen	faul	schlecht	rächen	eitel	tot	47pct	acq_USpleas_CSpleas2_noRW	acq23456_noRW	3	62	0	0	300	300	336	50	0	1	1	blank2r.bmp	0	1	+	0	1	blank2r.bmp	252	1	VKKV	306	2	ehrlich	559	0	0	0	0	0	0	0	0	0	0	0	0	0	0	0	0	0	0	0	0	0	0	0	0	0	0	0	0	0	0	0	0	0	0	0	0	0	0	0
082719	12:23:11	12:30:58	465935	5.0.10.0	5_exp_noRW	118	Rpleas_acq	CS_B	JXXJ	VKKV	YDDY	GWWG	BZZB	MQQM	spielen	fair	schön	retten	ehrlich	treu	strafen	faul	schlecht	rächen	eitel	tot	53pct	acq_USpleas_CSpleas1_noRW	acq23456_noRW	3	63	0	0	300	300	344	50	0	1	1	blank2r.bmp	0	1	+	0	1	blank2r.bmp	252	1	JXXJ	306	1	spielen	559	0	0	0	0	0	0	0	0	0	0	0	0	0	0	0	0	0	0	0	0	0	0	0	0	0	0	0	0	0	0	0	0	0	0	0	0	0	0	0
082719	12:23:11	12:30:59	467468	5.0.10.0	5_exp_noRW	118	Rpleas_acq	CS_B	JXXJ	VKKV	YDDY	GWWG	BZZB	MQQM	spielen	fair	schön	retten	ehrlich	treu	strafen	faul	schlecht	rächen	eitel	tot	53pct	acq_USpleas_CSpleas1_noRW	acq23456_noRW	3	64	0	0	300	300	340	50	0	1	1	blank2r.bmp	0	1	+	0	1	blank2r.bmp	252	1	JXXJ	306	1	spielen	559	0	0	0	0	0	0	0	0	0	0	0	0	0	0	0	0	0	0	0	0	0	0	0	0	0	0	0	0	0	0	0	0	0	0	0	0	0	0	0
082719	12:23:11	12:31:01	469294	5.0.10.0	5_exp_noRW	118	Rpleas_acq	CS_B	JXXJ	VKKV	YDDY	GWWG	BZZB	MQQM	spielen	fair	schön	retten	ehrlich	treu	strafen	faul	schlecht	rächen	eitel	tot	53pct	acq_USunple_CSunple1_noRW	acq23456_noRW	3	65	0	0	300	300	639	46	0	1	1	blank2r.bmp	0	1	+	0	1	blank2r.bmp	252	1	YDDY	306	1	strafen	559	0	0	0	0	0	0	0	0	0	0	0	0	0	0	0	0	0	0	0	0	0	0	0	0	0	0	0	0	0	0	0	0	0	0	0	0	0	0	0
082719	12:23:11	12:31:02	470893	5.0.10.0	5_exp_noRW	118	Rpleas_acq	CS_B	JXXJ	VKKV	YDDY	GWWG	BZZB	MQQM	spielen	fair	schön	retten	ehrlich	treu	strafen	faul	schlecht	rächen	eitel	tot	53pct	acq_USunple_CSunple2_noRW	acq23456_noRW	3	66	0	0	300	300	433	46	0	1	1	blank2r.bmp	0	1	+	0	1	blank2r.bmp	252	1	GWWG	306	1	rächen	559	0	0	0	0	0	0	0	0	0	0	0	0	0	0	0	0	0	0	0	0	0	0	0	0	0	0	0	0	0	0	0	0	0	0	0	0	0	0	0
082719	12:23:11	12:31:04	472466	5.0.10.0	5_exp_noRW	118	Rpleas_acq	CS_B	JXXJ	VKKV	YDDY	GWWG	BZZB	MQQM	spielen	fair	schön	retten	ehrlich	treu	strafen	faul	schlecht	rächen	eitel	tot	53pct	acq_USunple_CSpleas2_noRW	acq23456_noRW	3	67	0	0	300	300	394	46	0	1	1	blank2r.bmp	0	1	+	0	1	blank2r.bmp	252	1	VKKV	306	1	rächen	559	0	0	0	0	0	0	0	0	0	0	0	0	0	0	0	0	0	0	0	0	0	0	0	0	0	0	0	0	0	0	0	0	0	0	0	0	0	0	0
082719	12:23:11	12:31:06	474065	5.0.10.0	5_exp_noRW	118	Rpleas_acq	CS_B	JXXJ	VKKV	YDDY	GWWG	BZZB	MQQM	spielen	fair	schön	retten	ehrlich	treu	strafen	faul	schlecht	rächen	eitel	tot	53pct	acq_USunple_CSunple1_noRW	acq23456_noRW	3	68	0	0	300	300	418	46	0	1	1	blank2r.bmp	0	1	+	0	1	blank2r.bmp	252	1	YDDY	306	1	strafen	559	0	0	0	0	0	0	0	0	0	0	0	0	0	0	0	0	0	0	0	0	0	0	0	0	0	0	0	0	0	0	0	0	0	0	0	0	0	0	0
082719	12:23:11	12:31:07	475811	5.0.10.0	5_exp_noRW	118	Rpleas_acq	CS_B	JXXJ	VKKV	YDDY	GWWG	BZZB	MQQM	spielen	fair	schön	retten	ehrlich	treu	strafen	faul	schlecht	rächen	eitel	tot	47pct	acq_USpleas_CSpleas2_noRW	acq23456_noRW	3	69	0	0	300	300	366	46	0	0	1	blank2r.bmp	0	1	+	0	1	blank2r.bmp	252	1	VKKV	306	1	retten	559	1	FEHLER	959	0	0	0	0	0	0	0	0	0	0	0	0	0	0	0	0	0	0	0	0	0	0	0	0	0	0	0	0	0	0	0	0	0	0	0	0
082719	12:23:11	12:31:09	477237	5.0.10.0	5_exp_noRW	118	Rpleas_acq	CS_B	JXXJ	VKKV	YDDY	GWWG	BZZB	MQQM	spielen	fair	schön	retten	ehrlich	treu	strafen	faul	schlecht	rächen	eitel	tot	53pct	acq_USunple_CSunple1_noRW	acq23456_noRW	3	70	0	0	300	300	462	46	0	1	1	blank2r.bmp	0	1	+	0	1	blank2r.bmp	252	1	YDDY	306	2	faul	559	0	0	0	0	0	0	0	0	0	0	0	0	0	0	0	0	0	0	0	0	0	0	0	0	0	0	0	0	0	0	0	0	0	0	0	0	0	0	0
082719	12:23:11	12:31:10	478837	5.0.10.0	5_exp_noRW	118	Rpleas_acq	CS_B	JXXJ	VKKV	YDDY	GWWG	BZZB	MQQM	spielen	fair	schön	retten	ehrlich	treu	strafen	faul	schlecht	rächen	eitel	tot	53pct	acq_USunple_CSunple1_noRW	acq23456_noRW	3	71	0	0	300	300	413	46	0	1	1	blank2r.bmp	0	1	+	0	1	blank2r.bmp	252	1	YDDY	306	3	schlecht	559	0	0	0	0	0	0	0	0	0	0	0	0	0	0	0	0	0	0	0	0	0	0	0	0	0	0	0	0	0	0	0	0	0	0	0	0	0	0	0
082719	12:23:11	12:31:12	480409	5.0.10.0	5_exp_noRW	118	Rpleas_acq	CS_B	JXXJ	VKKV	YDDY	GWWG	BZZB	MQQM	spielen	fair	schön	retten	ehrlich	treu	strafen	faul	schlecht	rächen	eitel	tot	53pct	acq_USunple_CSpleas1_noRW	acq23456_noRW	3	72	0	0	300	300	406	46	0	1	1	blank2r.bmp	0	1	+	0	1	blank2r.bmp	252	1	JXXJ	306	3	schlecht	559	0	0	0	0	0	0	0	0	0	0	0	0	0	0	0	0	0	0	0	0	0	0	0	0	0	0	0	0	0	0	0	0	0	0	0	0	0	0	0
082719	12:23:11	12:31:14	482235	5.0.10.0	5_exp_noRW	118	Rpleas_acq	CS_B	JXXJ	VKKV	YDDY	GWWG	BZZB	MQQM	spielen	fair	schön	retten	ehrlich	treu	strafen	faul	schlecht	rächen	eitel	tot	47pct	acq_USpleas_CSpleas2_noRW	acq23456_noRW	3	73	0	0	300	300	639	50	0	1	1	blank2r.bmp	0	1	+	0	1	blank2r.bmp	252	1	VKKV	306	2	ehrlich	559	0	0	0	0	0	0	0	0	0	0	0	0	0	0	0	0	0	0	0	0	0	0	0	0	0	0	0	0	0	0	0	0	0	0	0	0	0	0	0
082719	12:23:11	12:31:15	483848	5.0.10.0	5_exp_noRW	118	Rpleas_acq	CS_B	JXXJ	VKKV	YDDY	GWWG	BZZB	MQQM	spielen	fair	schön	retten	ehrlich	treu	strafen	faul	schlecht	rächen	eitel	tot	53pct	acq_USpleas_CSpleas1_noRW	acq23456_noRW	3	74	0	0	300	300	434	50	0	1	1	blank2r.bmp	0	1	+	0	1	blank2r.bmp	252	1	JXXJ	306	2	fair	559	0	0	0	0	0	0	0	0	0	0	0	0	0	0	0	0	0	0	0	0	0	0	0	0	0	0	0	0	0	0	0	0	0	0	0	0	0	0	0
082719	12:23:11	12:31:18	485967	5.0.10.0	5_exp_noRW	118	Rpleas_acq	CS_B	JXXJ	VKKV	YDDY	GWWG	BZZB	MQQM	spielen	fair	schön	retten	ehrlich	treu	strafen	faul	schlecht	rächen	eitel	tot	47pct	acq_USunple_CSunple2_noRW	acq23456_noRW	3	75	0	0	300	300	933	46	0	1	1	blank2r.bmp	0	1	+	0	1	blank2r.bmp	252	1	GWWG	306	1	rächen	559	0	0	0	0	0	0	0	0	0	0	0	0	0	0	0	0	0	0	0	0	0	0	0	0	0	0	0	0	0	0	0	0	0	0	0	0	0	0	0
082719	12:23:11	12:31:19	487619	5.0.10.0	5_exp_noRW	118	Rpleas_acq	CS_B	JXXJ	VKKV	YDDY	GWWG	BZZB	MQQM	spielen	fair	schön	retten	ehrlich	treu	strafen	faul	schlecht	rächen	eitel	tot	47pct	acq_USpleas_CSpleas2_noRW	acq23456_noRW	3	76	0	0	300	300	486	50	0	1	1	blank2r.bmp	0	1	+	0	1	blank2r.bmp	252	1	VKKV	306	3	treu	559	0	0	0	0	0	0	0	0	0	0	0	0	0	0	0	0	0	0	0	0	0	0	0	0	0	0	0	0	0	0	0	0	0	0	0	0	0	0	0
082719	12:23:11	12:31:21	489419	5.0.10.0	5_exp_noRW	118	Rpleas_acq	CS_B	JXXJ	VKKV	YDDY	GWWG	BZZB	MQQM	spielen	fair	schön	retten	ehrlich	treu	strafen	faul	schlecht	rächen	eitel	tot	53pct	acq_USunple_CSunple2_noRW	acq23456_noRW	3	77	0	0	300	300	635	46	0	1	1	blank2r.bmp	0	1	+	0	1	blank2r.bmp	252	1	GWWG	306	2	eitel	559	0	0	0	0	0	0	0	0	0	0	0	0	0	0	0	0	0	0	0	0	0	0	0	0	0	0	0	0	0	0	0	0	0	0	0	0	0	0	0
082719	12:23:11	12:31:23	491058	5.0.10.0	5_exp_noRW	118	Rpleas_acq	CS_B	JXXJ	VKKV	YDDY	GWWG	BZZB	MQQM	spielen	fair	schön	retten	ehrlich	treu	strafen	faul	schlecht	rächen	eitel	tot	53pct	acq_USpleas_CSpleas1_noRW	acq23456_noRW	3	78	0	0	300	300	458	50	0	1	1	blank2r.bmp	0	1	+	0	1	blank2r.bmp	252	1	JXXJ	306	3	schön	559	0	0	0	0	0	0	0	0	0	0	0	0	0	0	0	0	0	0	0	0	0	0	0	0	0	0	0	0	0	0	0	0	0	0	0	0	0	0	0
082719	12:23:11	12:31:24	492791	5.0.10.0	5_exp_noRW	118	Rpleas_acq	CS_B	JXXJ	VKKV	YDDY	GWWG	BZZB	MQQM	spielen	fair	schön	retten	ehrlich	treu	strafen	faul	schlecht	rächen	eitel	tot	53pct	acq_USunple_CSunple2_noRW	acq23456_noRW	3	79	0	0	300	300	552	46	0	1	1	blank2r.bmp	0	1	+	0	1	blank2r.bmp	252	1	GWWG	306	3	tot	559	0	0	0	0	0	0	0	0	0	0	0	0	0	0	0	0	0	0	0	0	0	0	0	0	0	0	0	0	0	0	0	0	0	0	0	0	0	0	0
082719	12:23:11	12:31:26	494510	5.0.10.0	5_exp_noRW	118	Rpleas_acq	CS_B	JXXJ	VKKV	YDDY	GWWG	BZZB	MQQM	spielen	fair	schön	retten	ehrlich	treu	strafen	faul	schlecht	rächen	eitel	tot	53pct	acq_USpleas_CSunple1_noRW	acq23456_noRW	3	80	0	0	300	300	541	50	0	1	1	blank2r.bmp	0	1	+	0	1	blank2r.bmp	252	1	YDDY	306	3	schön	559	0	0	0	0	0	0	0	0	0	0	0	0	0	0	0	0	0	0	0	0	0	0	0	0	0	0	0	0	0	0	0	0	0	0	0	0	0	0	0
082719	12:23:11	12:31:33	501587	5.0.10.0	5_exp_noRW	118	Rpleas_acq	CS_B	JXXJ	VKKV	YDDY	GWWG	BZZB	MQQM	spielen	fair	schön	retten	ehrlich	treu	strafen	faul	schlecht	rächen	eitel	tot	47pct	acq_USunple_CSunple2_noRW	acq23456_noRW	4	1	0	0	300	300	407	46	0	1	1	blank2r.bmp	0	1	+	0	1	blank2r.bmp	252	1	GWWG	306	3	tot	559	0	0	0	0	0	0	0	0	0	0	0	0	0	0	0	0	0	0	0	0	0	0	0	0	0	0	0	0	0	0	0	0	0	0	0	0	0	0	0
082719	12:23:11	12:31:35	503200	5.0.10.0	5_exp_noRW	118	Rpleas_acq	CS_B	JXXJ	VKKV	YDDY	GWWG	BZZB	MQQM	spielen	fair	schön	retten	ehrlich	treu	strafen	faul	schlecht	rächen	eitel	tot	53pct	acq_USpleas_CSpleas1_noRW	acq23456_noRW	4	2	0	0	300	300	429	50	0	1	1	blank2r.bmp	0	1	+	0	1	blank2r.bmp	252	1	JXXJ	306	3	schön	559	0	0	0	0	0	0	0	0	0	0	0	0	0	0	0	0	0	0	0	0	0	0	0	0	0	0	0	0	0	0	0	0	0	0	0	0	0	0	0
082719	12:23:11	12:31:36	504772	5.0.10.0	5_exp_noRW	118	Rpleas_acq	CS_B	JXXJ	VKKV	YDDY	GWWG	BZZB	MQQM	spielen	fair	schön	retten	ehrlich	treu	strafen	faul	schlecht	rächen	eitel	tot	53pct	acq_USunple_CSunple1_noRW	acq23456_noRW	4	3	0	0	300	300	386	46	0	1	1	blank2r.bmp	0	1	+	0	1	blank2r.bmp	252	1	YDDY	306	3	schlecht	559	0	0	0	0	0	0	0	0	0	0	0	0	0	0	0	0	0	0	0	0	0	0	0	0	0	0	0	0	0	0	0	0	0	0	0	0	0	0	0
082719	12:23:11	12:31:38	506438	5.0.10.0	5_exp_noRW	118	Rpleas_acq	CS_B	JXXJ	VKKV	YDDY	GWWG	BZZB	MQQM	spielen	fair	schön	retten	ehrlich	treu	strafen	faul	schlecht	rächen	eitel	tot	47pct	acq_USpleas_CSunple2_noRW	acq23456_noRW	4	4	0	0	300	300	496	50	0	1	1	blank2r.bmp	0	1	+	0	1	blank2r.bmp	252	1	GWWG	306	1	retten	559	0	0	0	0	0	0	0	0	0	0	0	0	0	0	0	0	0	0	0	0	0	0	0	0	0	0	0	0	0	0	0	0	0	0	0	0	0	0	0
082719	12:23:11	12:31:40	508011	5.0.10.0	5_exp_noRW	118	Rpleas_acq	CS_B	JXXJ	VKKV	YDDY	GWWG	BZZB	MQQM	spielen	fair	schön	retten	ehrlich	treu	strafen	faul	schlecht	rächen	eitel	tot	47pct	acq_USpleas_CSpleas2_noRW	acq23456_noRW	4	5	0	0	300	300	401	50	0	1	1	blank2r.bmp	0	1	+	0	1	blank2r.bmp	252	1	VKKV	306	2	ehrlich	559	0	0	0	0	0	0	0	0	0	0	0	0	0	0	0	0	0	0	0	0	0	0	0	0	0	0	0	0	0	0	0	0	0	0	0	0	0	0	0
082719	12:23:11	12:31:41	509583	5.0.10.0	5_exp_noRW	118	Rpleas_acq	CS_B	JXXJ	VKKV	YDDY	GWWG	BZZB	MQQM	spielen	fair	schön	retten	ehrlich	treu	strafen	faul	schlecht	rächen	eitel	tot	47pct	acq_USpleas_CSpleas2_noRW	acq23456_noRW	4	6	0	0	300	300	406	50	0	1	1	blank2r.bmp	0	1	+	0	1	blank2r.bmp	252	1	VKKV	306	3	treu	559	0	0	0	0	0	0	0	0	0	0	0	0	0	0	0	0	0	0	0	0	0	0	0	0	0	0	0	0	0	0	0	0	0	0	0	0	0	0	0
082719	12:23:11	12:31:43	511169	5.0.10.0	5_exp_noRW	118	Rpleas_acq	CS_B	JXXJ	VKKV	YDDY	GWWG	BZZB	MQQM	spielen	fair	schön	retten	ehrlich	treu	strafen	faul	schlecht	rächen	eitel	tot	47pct	acq_USunple_CSunple1_noRW	acq23456_noRW	4	7	0	0	300	300	420	46	0	1	1	blank2r.bmp	0	1	+	0	1	blank2r.bmp	252	1	YDDY	306	1	strafen	559	0	0	0	0	0	0	0	0	0	0	0	0	0	0	0	0	0	0	0	0	0	0	0	0	0	0	0	0	0	0	0	0	0	0	0	0	0	0	0
082719	12:23:11	12:31:44	512782	5.0.10.0	5_exp_noRW	118	Rpleas_acq	CS_B	JXXJ	VKKV	YDDY	GWWG	BZZB	MQQM	spielen	fair	schön	retten	ehrlich	treu	strafen	faul	schlecht	rächen	eitel	tot	47pct	acq_USunple_CSpleas1_noRW	acq23456_noRW	4	8	0	0	300	300	426	46	0	1	1	blank2r.bmp	0	1	+	0	1	blank2r.bmp	252	1	JXXJ	306	1	strafen	559	0	0	0	0	0	0	0	0	0	0	0	0	0	0	0	0	0	0	0	0	0	0	0	0	0	0	0	0	0	0	0	0	0	0	0	0	0	0	0
082719	12:23:11	12:31:46	514408	5.0.10.0	5_exp_noRW	118	Rpleas_acq	CS_B	JXXJ	VKKV	YDDY	GWWG	BZZB	MQQM	spielen	fair	schön	retten	ehrlich	treu	strafen	faul	schlecht	rächen	eitel	tot	53pct	acq_USpleas_CSpleas2_noRW	acq23456_noRW	4	9	0	0	300	300	463	50	0	1	1	blank2r.bmp	0	1	+	0	1	blank2r.bmp	252	1	VKKV	306	1	retten	559	0	0	0	0	0	0	0	0	0	0	0	0	0	0	0	0	0	0	0	0	0	0	0	0	0	0	0	0	0	0	0	0	0	0	0	0	0	0	0
