date	time	script.currenttime	script.elapsedtime	build	script.currentexpt	subject	expressions.LRpleas_acq	expressions.conditionCS_A	expressions.CSpleas_1	expressions.CSpleas_2	expressions.CSunple_1	expressions.CSunple_2	expressions.distractor_1	expressions.distractor_2	expressions.US_pleas1	expressions.US_pleas2	expressions.US_pleas3	expressions.US_pleas4	expressions.US_pleas5	expressions.US_pleas6	expressions.US_unple1	expressions.US_unple2	expressions.US_unple3	expressions.US_unple4	expressions.US_unple5	expressions.US_unple6	counter.positions_noRW	trialcode	blockcode	blocknum	trialnum	windowcenter	inwindow	pretrialpause	posttrialpause	latency	response	expressions.correctedscore	correct	stimulusnumber1	stimulusitem1	stimulusonset1	stimulusnumber2	stimulusitem2	stimulusonset2	stimulusnumber3	stimulusitem3	stimulusonset3	stimulusnumber4	stimulusitem4	stimulusonset4	stimulusnumber5	stimulusitem5	stimulusonset5	stimulusnumber6	stimulusitem6	stimulusonset6	stimulusnumber7	stimulusitem7	stimulusonset7	stimulusnumber8	stimulusitem8	stimulusonset8	stimulusnumber9	stimulusitem9	stimulusonset9	stimulusnumber10	stimulusitem10	stimulusonset10	stimulusnumber11	stimulusitem11	stimulusonset11	stimulusnumber12	stimulusitem12	stimulusonset12	stimulusnumber13	stimulusitem13	stimulusonset13	stimulusnumber14	stimulusitem14	stimulusonset14	stimulusnumber15	stimulusitem15	stimulusonset15	stimulusnumber16	stimulusitem16	stimulusonset16	stimulusnumber17	stimulusitem17	stimulusonset17	stimulusnumber18	stimulusitem18	stimulusonset18
070819	17:10:37	17:12:07	89710	5.0.10.0	5_exp_noRW	26	Rpleas_acq	CS_A	ZHHZ	DXXD	YFFY	CPPC	JQQJ	LWWL	vertrauen	küssen	träumen	sonnig	gütig	genießen	versagen	krank	töten	sterben	gierig	gemein	47pct	acq_USunple_CSunple1_noRW	acq1_noRW	1	1	0	0	300	300	1445	46	0	1	1	blank2r.bmp	0	1	+	0	1	blank2r.bmp	252	1	YFFY	306	1	versagen	559	0	0	0	0	0	0	0	0	0	0	0	0	0	0	0	0	0	0	0	0	0	0	0	0	0	0	0	0	0	0	0	0	0	0	0	0	0	0	0
070819	17:10:37	17:12:09	91549	5.0.10.0	5_exp_noRW	26	Rpleas_acq	CS_A	ZHHZ	DXXD	YFFY	CPPC	JQQJ	LWWL	vertrauen	küssen	träumen	sonnig	gütig	genießen	versagen	krank	töten	sterben	gierig	gemein	53pct	acq_USpleas_CSpleas2_noRW	acq1_noRW	1	2	0	0	300	300	652	50	0	1	1	blank2r.bmp	0	1	+	0	1	blank2r.bmp	252	1	DXXD	306	3	genießen	559	0	0	0	0	0	0	0	0	0	0	0	0	0	0	0	0	0	0	0	0	0	0	0	0	0	0	0	0	0	0	0	0	0	0	0	0	0	0	0
070819	17:10:37	17:12:11	93668	5.0.10.0	5_exp_noRW	26	Rpleas_acq	CS_A	ZHHZ	DXXD	YFFY	CPPC	JQQJ	LWWL	vertrauen	küssen	träumen	sonnig	gütig	genießen	versagen	krank	töten	sterben	gierig	gemein	47pct	acq_USpleas_CSpleas2_noRW	acq1_noRW	1	3	0	0	300	300	948	50	0	1	1	blank2r.bmp	0	1	+	0	1	blank2r.bmp	252	1	DXXD	306	2	gütig	559	0	0	0	0	0	0	0	0	0	0	0	0	0	0	0	0	0	0	0	0	0	0	0	0	0	0	0	0	0	0	0	0	0	0	0	0	0	0	0
070819	17:10:37	17:12:13	95361	5.0.10.0	5_exp_noRW	26	Rpleas_acq	CS_A	ZHHZ	DXXD	YFFY	CPPC	JQQJ	LWWL	vertrauen	küssen	träumen	sonnig	gütig	genießen	versagen	krank	töten	sterben	gierig	gemein	47pct	acq_USpleas_CSpleas1_noRW	acq1_noRW	1	4	0	0	300	300	531	50	0	1	1	blank2r.bmp	0	1	+	0	1	blank2r.bmp	252	1	ZHHZ	306	3	träumen	559	0	0	0	0	0	0	0	0	0	0	0	0	0	0	0	0	0	0	0	0	0	0	0	0	0	0	0	0	0	0	0	0	0	0	0	0	0	0	0
070819	17:10:37	17:12:15	97093	5.0.10.0	5_exp_noRW	26	Rpleas_acq	CS_A	ZHHZ	DXXD	YFFY	CPPC	JQQJ	LWWL	vertrauen	küssen	träumen	sonnig	gütig	genießen	versagen	krank	töten	sterben	gierig	gemein	47pct	acq_USpleas_CSpleas1_noRW	acq1_noRW	1	5	0	0	300	300	546	50	0	1	1	blank2r.bmp	0	1	+	0	1	blank2r.bmp	252	1	ZHHZ	306	1	vertrauen	559	0	0	0	0	0	0	0	0	0	0	0	0	0	0	0	0	0	0	0	0	0	0	0	0	0	0	0	0	0	0	0	0	0	0	0	0	0	0	0
070819	17:10:37	17:12:17	98826	5.0.10.0	5_exp_noRW	26	Rpleas_acq	CS_A	ZHHZ	DXXD	YFFY	CPPC	JQQJ	LWWL	vertrauen	küssen	träumen	sonnig	gütig	genießen	versagen	krank	töten	sterben	gierig	gemein	53pct	acq_USunple_CSunple1_noRW	acq1_noRW	1	6	0	0	300	300	555	46	0	1	1	blank2r.bmp	0	1	+	0	1	blank2r.bmp	252	1	YFFY	306	2	krank	559	0	0	0	0	0	0	0	0	0	0	0	0	0	0	0	0	0	0	0	0	0	0	0	0	0	0	0	0	0	0	0	0	0	0	0	0	0	0	0
070819	17:10:37	17:12:18	100545	5.0.10.0	5_exp_noRW	26	Rpleas_acq	CS_A	ZHHZ	DXXD	YFFY	CPPC	JQQJ	LWWL	vertrauen	küssen	träumen	sonnig	gütig	genießen	versagen	krank	töten	sterben	gierig	gemein	47pct	acq_USpleas_CSpleas1_noRW	acq1_noRW	1	7	0	0	300	300	544	50	0	1	1	blank2r.bmp	0	1	+	0	1	blank2r.bmp	252	1	ZHHZ	306	2	küssen	559	0	0	0	0	0	0	0	0	0	0	0	0	0	0	0	0	0	0	0	0	0	0	0	0	0	0	0	0	0	0	0	0	0	0	0	0	0	0	0
070819	17:10:37	17:12:20	102304	5.0.10.0	5_exp_noRW	26	Rpleas_acq	CS_A	ZHHZ	DXXD	YFFY	CPPC	JQQJ	LWWL	vertrauen	küssen	träumen	sonnig	gütig	genießen	versagen	krank	töten	sterben	gierig	gemein	47pct	acq_USunple_CSunple1_noRW	acq1_noRW	1	8	0	0	300	300	564	46	0	1	1	blank2r.bmp	0	1	+	0	1	blank2r.bmp	252	1	YFFY	306	3	töten	559	0	0	0	0	0	0	0	0	0	0	0	0	0	0	0	0	0	0	0	0	0	0	0	0	0	0	0	0	0	0	0	0	0	0	0	0	0	0	0
070819	17:10:37	17:12:22	104224	5.0.10.0	5_exp_noRW	26	Rpleas_acq	CS_A	ZHHZ	DXXD	YFFY	CPPC	JQQJ	LWWL	vertrauen	küssen	träumen	sonnig	gütig	genießen	versagen	krank	töten	sterben	gierig	gemein	47pct	acq_USpleas_CSpleas1_noRW	acq1_noRW	1	9	0	0	300	300	743	50	0	1	1	blank2r.bmp	0	1	+	0	1	blank2r.bmp	252	1	ZHHZ	306	1	vertrauen	559	0	0	0	0	0	0	0	0	0	0	0	0	0	0	0	0	0	0	0	0	0	0	0	0	0	0	0	0	0	0	0	0	0	0	0	0	0	0	0
070819	17:10:37	17:12:24	105970	5.0.10.0	5_exp_noRW	26	Rpleas_acq	CS_A	ZHHZ	DXXD	YFFY	CPPC	JQQJ	LWWL	vertrauen	küssen	träumen	sonnig	gütig	genießen	versagen	krank	töten	sterben	gierig	gemein	47pct	acq_USpleas_CSunple1_noRW	acq1_noRW	1	10	0	0	300	300	570	50	0	1	1	blank2r.bmp	0	1	+	0	1	blank2r.bmp	252	1	YFFY	306	2	küssen	559	0	0	0	0	0	0	0	0	0	0	0	0	0	0	0	0	0	0	0	0	0	0	0	0	0	0	0	0	0	0	0	0	0	0	0	0	0	0	0
070819	17:10:37	17:12:26	107982	5.0.10.0	5_exp_noRW	26	Rpleas_acq	CS_A	ZHHZ	DXXD	YFFY	CPPC	JQQJ	LWWL	vertrauen	küssen	träumen	sonnig	gütig	genießen	versagen	krank	töten	sterben	gierig	gemein	47pct	acq_USunple_CSunple2_noRW	acq1_noRW	1	11	0	0	300	300	833	46	0	1	1	blank2r.bmp	0	1	+	0	1	blank2r.bmp	252	1	CPPC	306	2	gierig	559	0	0	0	0	0	0	0	0	0	0	0	0	0	0	0	0	0	0	0	0	0	0	0	0	0	0	0	0	0	0	0	0	0	0	0	0	0	0	0
070819	17:10:37	17:12:27	109728	5.0.10.0	5_exp_noRW	26	Rpleas_acq	CS_A	ZHHZ	DXXD	YFFY	CPPC	JQQJ	LWWL	vertrauen	küssen	träumen	sonnig	gütig	genießen	versagen	krank	töten	sterben	gierig	gemein	53pct	acq_USpleas_CSunple2_noRW	acq1_noRW	1	12	0	0	300	300	559	50	0	1	1	blank2r.bmp	0	1	+	0	1	blank2r.bmp	252	1	CPPC	306	2	gütig	559	0	0	0	0	0	0	0	0	0	0	0	0	0	0	0	0	0	0	0	0	0	0	0	0	0	0	0	0	0	0	0	0	0	0	0	0	0	0	0
070819	17:10:37	17:12:30	111794	5.0.10.0	5_exp_noRW	26	Rpleas_acq	CS_A	ZHHZ	DXXD	YFFY	CPPC	JQQJ	LWWL	vertrauen	küssen	träumen	sonnig	gütig	genießen	versagen	krank	töten	sterben	gierig	gemein	47pct	acq_USunple_CSunple1_noRW	acq1_noRW	1	13	0	0	300	300	902	46	0	1	1	blank2r.bmp	0	1	+	0	1	blank2r.bmp	252	1	YFFY	306	3	töten	559	0	0	0	0	0	0	0	0	0	0	0	0	0	0	0	0	0	0	0	0	0	0	0	0	0	0	0	0	0	0	0	0	0	0	0	0	0	0	0
070819	17:10:37	17:12:31	113500	5.0.10.0	5_exp_noRW	26	Rpleas_acq	CS_A	ZHHZ	DXXD	YFFY	CPPC	JQQJ	LWWL	vertrauen	küssen	träumen	sonnig	gütig	genießen	versagen	krank	töten	sterben	gierig	gemein	53pct	acq_USunple_CSpleas1_noRW	acq1_noRW	1	14	0	0	300	300	520	46	0	1	1	blank2r.bmp	0	1	+	0	1	blank2r.bmp	252	1	ZHHZ	306	3	töten	559	0	0	0	0	0	0	0	0	0	0	0	0	0	0	0	0	0	0	0	0	0	0	0	0	0	0	0	0	0	0	0	0	0	0	0	0	0	0	0
070819	17:10:37	17:12:33	115126	5.0.10.0	5_exp_noRW	26	Rpleas_acq	CS_A	ZHHZ	DXXD	YFFY	CPPC	JQQJ	LWWL	vertrauen	küssen	träumen	sonnig	gütig	genießen	versagen	krank	töten	sterben	gierig	gemein	53pct	acq_USunple_CSunple2_noRW	acq1_noRW	1	15	0	0	300	300	459	46	0	1	1	blank2r.bmp	0	1	+	0	1	blank2r.bmp	252	1	CPPC	306	1	sterben	559	0	0	0	0	0	0	0	0	0	0	0	0	0	0	0	0	0	0	0	0	0	0	0	0	0	0	0	0	0	0	0	0	0	0	0	0	0	0	0
070819	17:10:37	17:12:35	116925	5.0.10.0	5_exp_noRW	26	Rpleas_acq	CS_A	ZHHZ	DXXD	YFFY	CPPC	JQQJ	LWWL	vertrauen	küssen	träumen	sonnig	gütig	genießen	versagen	krank	töten	sterben	gierig	gemein	47pct	acq_USunple_CSunple2_noRW	acq1_noRW	1	16	0	0	300	300	619	46	0	1	1	blank2r.bmp	0	1	+	0	1	blank2r.bmp	252	1	CPPC	306	3	gemein	559	0	0	0	0	0	0	0	0	0	0	0	0	0	0	0	0	0	0	0	0	0	0	0	0	0	0	0	0	0	0	0	0	0	0	0	0	0	0	0
070819	17:10:37	17:12:36	118618	5.0.10.0	5_exp_noRW	26	Rpleas_acq	CS_A	ZHHZ	DXXD	YFFY	CPPC	JQQJ	LWWL	vertrauen	küssen	träumen	sonnig	gütig	genießen	versagen	krank	töten	sterben	gierig	gemein	53pct	acq_USunple_CSpleas2_noRW	acq1_noRW	1	17	0	0	300	300	530	46	0	1	1	blank2r.bmp	0	1	+	0	1	blank2r.bmp	252	1	DXXD	306	1	sterben	559	0	0	0	0	0	0	0	0	0	0	0	0	0	0	0	0	0	0	0	0	0	0	0	0	0	0	0	0	0	0	0	0	0	0	0	0	0	0	0
070819	17:10:37	17:12:38	120271	5.0.10.0	5_exp_noRW	26	Rpleas_acq	CS_A	ZHHZ	DXXD	YFFY	CPPC	JQQJ	LWWL	vertrauen	küssen	träumen	sonnig	gütig	genießen	versagen	krank	töten	sterben	gierig	gemein	47pct	acq_USpleas_CSpleas2_noRW	acq1_noRW	1	18	0	0	300	300	472	50	0	1	1	blank2r.bmp	0	1	+	0	1	blank2r.bmp	252	1	DXXD	306	1	sonnig	559	0	0	0	0	0	0	0	0	0	0	0	0	0	0	0	0	0	0	0	0	0	0	0	0	0	0	0	0	0	0	0	0	0	0	0	0	0	0	0
070819	17:10:37	17:12:40	121950	5.0.10.0	5_exp_noRW	26	Rpleas_acq	CS_A	ZHHZ	DXXD	YFFY	CPPC	JQQJ	LWWL	vertrauen	küssen	träumen	sonnig	gütig	genießen	versagen	krank	töten	sterben	gierig	gemein	53pct	acq_USpleas_CSpleas2_noRW	acq1_noRW	1	19	0	0	300	300	498	50	0	1	1	blank2r.bmp	0	1	+	0	1	blank2r.bmp	252	1	DXXD	306	3	genießen	559	0	0	0	0	0	0	0	0	0	0	0	0	0	0	0	0	0	0	0	0	0	0	0	0	0	0	0	0	0	0	0	0	0	0	0	0	0	0	0
070819	17:10:37	17:12:41	123602	5.0.10.0	5_exp_noRW	26	Rpleas_acq	CS_A	ZHHZ	DXXD	YFFY	CPPC	JQQJ	LWWL	vertrauen	küssen	träumen	sonnig	gütig	genießen	versagen	krank	töten	sterben	gierig	gemein	47pct	acq_USunple_CSunple2_noRW	acq1_noRW	1	20	0	0	300	300	480	46	0	1	1	blank2r.bmp	0	1	+	0	1	blank2r.bmp	252	1	CPPC	306	1	sterben	559	0	0	0	0	0	0	0	0	0	0	0	0	0	0	0	0	0	0	0	0	0	0	0	0	0	0	0	0	0	0	0	0	0	0	0	0	0	0	0
070819	17:10:37	17:12:43	125415	5.0.10.0	5_exp_noRW	26	Rpleas_acq	CS_A	ZHHZ	DXXD	YFFY	CPPC	JQQJ	LWWL	vertrauen	küssen	träumen	sonnig	gütig	genießen	versagen	krank	töten	sterben	gierig	gemein	47pct	acq_USunple_CSunple1_noRW	acq1_noRW	1	21	0	0	300	300	643	46	0	1	1	blank2r.bmp	0	1	+	0	1	blank2r.bmp	252	1	YFFY	306	1	versagen	559	0	0	0	0	0	0	0	0	0	0	0	0	0	0	0	0	0	0	0	0	0	0	0	0	0	0	0	0	0	0	0	0	0	0	0	0	0	0	0
070819	17:10:37	17:12:45	127001	5.0.10.0	5_exp_noRW	26	Rpleas_acq	CS_A	ZHHZ	DXXD	YFFY	CPPC	JQQJ	LWWL	vertrauen	küssen	träumen	sonnig	gütig	genießen	versagen	krank	töten	sterben	gierig	gemein	47pct	acq_USpleas_CSunple2_noRW	acq1_noRW	1	22	0	0	300	300	412	50	0	1	1	blank2r.bmp	0	1	+	0	1	blank2r.bmp	252	1	CPPC	306	1	sonnig	559	0	0	0	0	0	0	0	0	0	0	0	0	0	0	0	0	0	0	0	0	0	0	0	0	0	0	0	0	0	0	0	0	0	0	0	0	0	0	0
070819	17:10:37	17:12:47	128907	5.0.10.0	5_exp_noRW	26	Rpleas_acq	CS_A	ZHHZ	DXXD	YFFY	CPPC	JQQJ	LWWL	vertrauen	küssen	träumen	sonnig	gütig	genießen	versagen	krank	töten	sterben	gierig	gemein	53pct	acq_USpleas_CSpleas1_noRW	acq1_noRW	1	23	0	0	300	300	522	46	0	0	1	blank2r.bmp	0	1	+	0	1	blank2r.bmp	252	1	ZHHZ	306	2	küssen	559	1	FEHLER	1119	0	0	0	0	0	0	0	0	0	0	0	0	0	0	0	0	0	0	0	0	0	0	0	0	0	0	0	0	0	0	0	0	0	0	0	0
070819	17:10:37	17:12:49	130813	5.0.10.0	5_exp_noRW	26	Rpleas_acq	CS_A	ZHHZ	DXXD	YFFY	CPPC	JQQJ	LWWL	vertrauen	küssen	träumen	sonnig	gütig	genießen	versagen	krank	töten	sterben	gierig	gemein	53pct	acq_USunple_CSpleas2_noRW	acq1_noRW	1	24	0	0	300	300	948	46	0	1	1	blank2r.bmp	0	1	+	0	1	blank2r.bmp	252	1	DXXD	306	2	gierig	559	0	0	0	0	0	0	0	0	0	0	0	0	0	0	0	0	0	0	0	0	0	0	0	0	0	0	0	0	0	0	0	0	0	0	0	0	0	0	0
070819	17:10:37	17:12:50	132439	5.0.10.0	5_exp_noRW	26	Rpleas_acq	CS_A	ZHHZ	DXXD	YFFY	CPPC	JQQJ	LWWL	vertrauen	küssen	träumen	sonnig	gütig	genießen	versagen	krank	töten	sterben	gierig	gemein	53pct	acq_USpleas_CSpleas1_noRW	acq1_noRW	1	25	0	0	300	300	465	50	0	1	1	blank2r.bmp	0	1	+	0	1	blank2r.bmp	252	1	ZHHZ	306	3	träumen	559	0	0	0	0	0	0	0	0	0	0	0	0	0	0	0	0	0	0	0	0	0	0	0	0	0	0	0	0	0	0	0	0	0	0	0	0	0	0	0
070819	17:10:37	17:12:52	134198	5.0.10.0	5_exp_noRW	26	Rpleas_acq	CS_A	ZHHZ	DXXD	YFFY	CPPC	JQQJ	LWWL	vertrauen	küssen	träumen	sonnig	gütig	genießen	versagen	krank	töten	sterben	gierig	gemein	53pct	acq_USunple_CSunple1_noRW	acq1_noRW	1	26	0	0	300	300	574	46	0	1	1	blank2r.bmp	0	1	+	0	1	blank2r.bmp	252	1	YFFY	306	2	krank	559	0	0	0	0	0	0	0	0	0	0	0	0	0	0	0	0	0	0	0	0	0	0	0	0	0	0	0	0	0	0	0	0	0	0	0	0	0	0	0
070819	17:10:37	17:12:54	135997	5.0.10.0	5_exp_noRW	26	Rpleas_acq	CS_A	ZHHZ	DXXD	YFFY	CPPC	JQQJ	LWWL	vertrauen	küssen	träumen	sonnig	gütig	genießen	versagen	krank	töten	sterben	gierig	gemein	53pct	acq_USunple_CSunple1_noRW	acq1_noRW	1	27	0	0	300	300	427	50	0	0	1	blank2r.bmp	0	1	+	0	1	blank2r.bmp	252	1	YFFY	306	2	krank	559	1	FEHLER	1026	0	0	0	0	0	0	0	0	0	0	0	0	0	0	0	0	0	0	0	0	0	0	0	0	0	0	0	0	0	0	0	0	0	0	0	0
070819	17:10:37	17:12:56	138050	5.0.10.0	5_exp_noRW	26	Rpleas_acq	CS_A	ZHHZ	DXXD	YFFY	CPPC	JQQJ	LWWL	vertrauen	küssen	träumen	sonnig	gütig	genießen	versagen	krank	töten	sterben	gierig	gemein	47pct	acq_USunple_CSpleas1_noRW	acq1_noRW	1	28	0	0	300	300	1069	46	0	1	1	blank2r.bmp	0	1	+	0	1	blank2r.bmp	252	1	ZHHZ	306	1	versagen	559	0	0	0	0	0	0	0	0	0	0	0	0	0	0	0	0	0	0	0	0	0	0	0	0	0	0	0	0	0	0	0	0	0	0	0	0	0	0	0
070819	17:10:37	17:12:58	139929	5.0.10.0	5_exp_noRW	26	Rpleas_acq	CS_A	ZHHZ	DXXD	YFFY	CPPC	JQQJ	LWWL	vertrauen	küssen	träumen	sonnig	gütig	genießen	versagen	krank	töten	sterben	gierig	gemein	47pct	acq_USpleas_CSunple1_noRW	acq1_noRW	1	29	0	0	300	300	705	50	0	1	1	blank2r.bmp	0	1	+	0	1	blank2r.bmp	252	1	YFFY	306	1	vertrauen	559	0	0	0	0	0	0	0	0	0	0	0	0	0	0	0	0	0	0	0	0	0	0	0	0	0	0	0	0	0	0	0	0	0	0	0	0	0	0	0
070819	17:10:37	17:12:59	141595	5.0.10.0	5_exp_noRW	26	Rpleas_acq	CS_A	ZHHZ	DXXD	YFFY	CPPC	JQQJ	LWWL	vertrauen	küssen	träumen	sonnig	gütig	genießen	versagen	krank	töten	sterben	gierig	gemein	53pct	acq_USunple_CSunple2_noRW	acq1_noRW	1	30	0	0	300	300	498	46	0	1	1	blank2r.bmp	0	1	+	0	1	blank2r.bmp	252	1	CPPC	306	3	gemein	559	0	0	0	0	0	0	0	0	0	0	0	0	0	0	0	0	0	0	0	0	0	0	0	0	0	0	0	0	0	0	0	0	0	0	0	0	0	0	0
070819	17:10:37	17:13:01	143394	5.0.10.0	5_exp_noRW	26	Rpleas_acq	CS_A	ZHHZ	DXXD	YFFY	CPPC	JQQJ	LWWL	vertrauen	küssen	träumen	sonnig	gütig	genießen	versagen	krank	töten	sterben	gierig	gemein	53pct	acq_USunple_CSunple2_noRW	acq1_noRW	1	31	0	0	300	300	619	46	0	1	1	blank2r.bmp	0	1	+	0	1	blank2r.bmp	252	1	CPPC	306	2	gierig	559	0	0	0	0	0	0	0	0	0	0	0	0	0	0	0	0	0	0	0	0	0	0	0	0	0	0	0	0	0	0	0	0	0	0	0	0	0	0	0
070819	17:10:37	17:13:03	145034	5.0.10.0	5_exp_noRW	26	Rpleas_acq	CS_A	ZHHZ	DXXD	YFFY	CPPC	JQQJ	LWWL	vertrauen	küssen	träumen	sonnig	gütig	genießen	versagen	krank	töten	sterben	gierig	gemein	47pct	acq_USpleas_CSpleas2_noRW	acq1_noRW	1	32	0	0	300	300	458	50	0	1	1	blank2r.bmp	0	1	+	0	1	blank2r.bmp	252	1	DXXD	306	1	sonnig	559	0	0	0	0	0	0	0	0	0	0	0	0	0	0	0	0	0	0	0	0	0	0	0	0	0	0	0	0	0	0	0	0	0	0	0	0	0	0	0
070819	17:10:37	17:13:04	146726	5.0.10.0	5_exp_noRW	26	Rpleas_acq	CS_A	ZHHZ	DXXD	YFFY	CPPC	JQQJ	LWWL	vertrauen	küssen	träumen	sonnig	gütig	genießen	versagen	krank	töten	sterben	gierig	gemein	47pct	acq_USpleas_CSpleas1_noRW	acq1_noRW	1	33	0	0	300	300	516	50	0	1	1	blank2r.bmp	0	1	+	0	1	blank2r.bmp	252	1	ZHHZ	306	2	küssen	559	0	0	0	0	0	0	0	0	0	0	0	0	0	0	0	0	0	0	0	0	0	0	0	0	0	0	0	0	0	0	0	0	0	0	0	0	0	0	0
070819	17:10:37	17:13:06	148352	5.0.10.0	5_exp_noRW	26	Rpleas_acq	CS_A	ZHHZ	DXXD	YFFY	CPPC	JQQJ	LWWL	vertrauen	küssen	träumen	sonnig	gütig	genießen	versagen	krank	töten	sterben	gierig	gemein	53pct	acq_USunple_CSunple1_noRW	acq1_noRW	1	34	0	0	300	300	451	46	0	1	1	blank2r.bmp	0	1	+	0	1	blank2r.bmp	252	1	YFFY	306	1	versagen	559	0	0	0	0	0	0	0	0	0	0	0	0	0	0	0	0	0	0	0	0	0	0	0	0	0	0	0	0	0	0	0	0	0	0	0	0	0	0	0
070819	17:10:37	17:13:08	150578	5.0.10.0	5_exp_noRW	26	Rpleas_acq	CS_A	ZHHZ	DXXD	YFFY	CPPC	JQQJ	LWWL	vertrauen	küssen	träumen	sonnig	gütig	genießen	versagen	krank	töten	sterben	gierig	gemein	47pct	acq_USpleas_CSpleas2_noRW	acq1_noRW	1	35	0	0	300	300	1043	50	0	1	1	blank2r.bmp	0	1	+	0	1	blank2r.bmp	252	1	DXXD	306	2	gütig	559	0	0	0	0	0	0	0	0	0	0	0	0	0	0	0	0	0	0	0	0	0	0	0	0	0	0	0	0	0	0	0	0	0	0	0	0	0	0	0
070819	17:10:37	17:13:10	152191	5.0.10.0	5_exp_noRW	26	Rpleas_acq	CS_A	ZHHZ	DXXD	YFFY	CPPC	JQQJ	LWWL	vertrauen	küssen	träumen	sonnig	gütig	genießen	versagen	krank	töten	sterben	gierig	gemein	47pct	acq_USpleas_CSpleas1_noRW	acq1_noRW	1	36	0	0	300	300	451	50	0	1	1	blank2r.bmp	0	1	+	0	1	blank2r.bmp	252	1	ZHHZ	306	3	träumen	559	0	0	0	0	0	0	0	0	0	0	0	0	0	0	0	0	0	0	0	0	0	0	0	0	0	0	0	0	0	0	0	0	0	0	0	0	0	0	0
070819	17:10:37	17:13:11	153790	5.0.10.0	5_exp_noRW	26	Rpleas_acq	CS_A	ZHHZ	DXXD	YFFY	CPPC	JQQJ	LWWL	vertrauen	küssen	träumen	sonnig	gütig	genießen	versagen	krank	töten	sterben	gierig	gemein	47pct	acq_USpleas_CSpleas2_noRW	acq1_noRW	1	37	0	0	300	300	418	50	0	1	1	blank2r.bmp	0	1	+	0	1	blank2r.bmp	252	1	DXXD	306	1	sonnig	559	0	0	0	0	0	0	0	0	0	0	0	0	0	0	0	0	0	0	0	0	0	0	0	0	0	0	0	0	0	0	0	0	0	0	0	0	0	0	0
070819	17:10:37	17:13:13	155576	5.0.10.0	5_exp_noRW	26	Rpleas_acq	CS_A	ZHHZ	DXXD	YFFY	CPPC	JQQJ	LWWL	vertrauen	küssen	träumen	sonnig	gütig	genießen	versagen	krank	töten	sterben	gierig	gemein	53pct	acq_USunple_CSunple2_noRW	acq1_noRW	1	38	0	0	300	300	613	46	0	1	1	blank2r.bmp	0	1	+	0	1	blank2r.bmp	252	1	CPPC	306	1	sterben	559	0	0	0	0	0	0	0	0	0	0	0	0	0	0	0	0	0	0	0	0	0	0	0	0	0	0	0	0	0	0	0	0	0	0	0	0	0	0	0
070819	17:10:37	17:13:15	157402	5.0.10.0	5_exp_noRW	26	Rpleas_acq	CS_A	ZHHZ	DXXD	YFFY	CPPC	JQQJ	LWWL	vertrauen	küssen	träumen	sonnig	gütig	genießen	versagen	krank	töten	sterben	gierig	gemein	47pct	acq_USpleas_CSpleas2_noRW	acq1_noRW	1	39	0	0	300	300	651	50	0	1	1	blank2r.bmp	0	1	+	0	1	blank2r.bmp	252	1	DXXD	306	3	genießen	559	0	0	0	0	0	0	0	0	0	0	0	0	0	0	0	0	0	0	0	0	0	0	0	0	0	0	0	0	0	0	0	0	0	0	0	0	0	0	0
070819	17:10:37	17:13:17	159055	5.0.10.0	5_exp_noRW	26	Rpleas_acq	CS_A	ZHHZ	DXXD	YFFY	CPPC	JQQJ	LWWL	vertrauen	küssen	träumen	sonnig	gütig	genießen	versagen	krank	töten	sterben	gierig	gemein	53pct	acq_USunple_CSunple2_noRW	acq1_noRW	1	40	0	0	300	300	466	46	0	1	1	blank2r.bmp	0	1	+	0	1	blank2r.bmp	252	1	CPPC	306	2	gierig	559	0	0	0	0	0	0	0	0	0	0	0	0	0	0	0	0	0	0	0	0	0	0	0	0	0	0	0	0	0	0	0	0	0	0	0	0	0	0	0
070819	17:10:37	17:13:18	160747	5.0.10.0	5_exp_noRW	26	Rpleas_acq	CS_A	ZHHZ	DXXD	YFFY	CPPC	JQQJ	LWWL	vertrauen	küssen	träumen	sonnig	gütig	genießen	versagen	krank	töten	sterben	gierig	gemein	53pct	acq_USpleas_CSpleas1_noRW	acq1_noRW	1	41	0	0	300	300	523	50	0	1	1	blank2r.bmp	0	1	+	0	1	blank2r.bmp	252	1	ZHHZ	306	1	vertrauen	559	0	0	0	0	0	0	0	0	0	0	0	0	0	0	0	0	0	0	0	0	0	0	0	0	0	0	0	0	0	0	0	0	0	0	0	0	0	0	0
070819	17:10:37	17:13:20	162360	5.0.10.0	5_exp_noRW	26	Rpleas_acq	CS_A	ZHHZ	DXXD	YFFY	CPPC	JQQJ	LWWL	vertrauen	küssen	träumen	sonnig	gütig	genießen	versagen	krank	töten	sterben	gierig	gemein	47pct	acq_USunple_CSunple1_noRW	acq1_noRW	1	42	0	0	300	300	444	46	0	1	1	blank2r.bmp	0	1	+	0	1	blank2r.bmp	252	1	YFFY	306	3	töten	559	0	0	0	0	0	0	0	0	0	0	0	0	0	0	0	0	0	0	0	0	0	0	0	0	0	0	0	0	0	0	0	0	0	0	0	0	0	0	0
070819	17:10:37	17:13:22	164106	5.0.10.0	5_exp_noRW	26	Rpleas_acq	CS_A	ZHHZ	DXXD	YFFY	CPPC	JQQJ	LWWL	vertrauen	küssen	träumen	sonnig	gütig	genießen	versagen	krank	töten	sterben	gierig	gemein	53pct	acq_USunple_CSunple2_noRW	acq1_noRW	1	43	0	0	300	300	563	46	0	1	1	blank2r.bmp	0	1	+	0	1	blank2r.bmp	252	1	CPPC	306	3	gemein	559	0	0	0	0	0	0	0	0	0	0	0	0	0	0	0	0	0	0	0	0	0	0	0	0	0	0	0	0	0	0	0	0	0	0	0	0	0	0	0
070819	17:10:37	17:13:24	165799	5.0.10.0	5_exp_noRW	26	Rpleas_acq	CS_A	ZHHZ	DXXD	YFFY	CPPC	JQQJ	LWWL	vertrauen	küssen	träumen	sonnig	gütig	genießen	versagen	krank	töten	sterben	gierig	gemein	47pct	acq_USpleas_CSpleas2_noRW	acq1_noRW	1	44	0	0	300	300	519	50	0	1	1	blank2r.bmp	0	1	+	0	1	blank2r.bmp	252	1	DXXD	306	2	gütig	559	0	0	0	0	0	0	0	0	0	0	0	0	0	0	0	0	0	0	0	0	0	0	0	0	0	0	0	0	0	0	0	0	0	0	0	0	0	0	0
070819	17:10:37	17:13:25	167451	5.0.10.0	5_exp_noRW	26	Rpleas_acq	CS_A	ZHHZ	DXXD	YFFY	CPPC	JQQJ	LWWL	vertrauen	küssen	träumen	sonnig	gütig	genießen	versagen	krank	töten	sterben	gierig	gemein	53pct	acq_USunple_CSunple1_noRW	acq1_noRW	1	45	0	0	300	300	491	46	0	1	1	blank2r.bmp	0	1	+	0	1	blank2r.bmp	252	1	YFFY	306	2	krank	559	0	0	0	0	0	0	0	0	0	0	0	0	0	0	0	0	0	0	0	0	0	0	0	0	0	0	0	0	0	0	0	0	0	0	0	0	0	0	0
070819	17:10:37	17:13:27	169037	5.0.10.0	5_exp_noRW	26	Rpleas_acq	CS_A	ZHHZ	DXXD	YFFY	CPPC	JQQJ	LWWL	vertrauen	küssen	träumen	sonnig	gütig	genießen	versagen	krank	töten	sterben	gierig	gemein	53pct	acq_USunple_CSpleas1_noRW	acq1_noRW	1	46	0	0	300	300	413	46	0	1	1	blank2r.bmp	0	1	+	0	1	blank2r.bmp	252	1	ZHHZ	306	2	krank	559	0	0	0	0	0	0	0	0	0	0	0	0	0	0	0	0	0	0	0	0	0	0	0	0	0	0	0	0	0	0	0	0	0	0	0	0	0	0	0
070819	17:10:37	17:13:28	170703	5.0.10.0	5_exp_noRW	26	Rpleas_acq	CS_A	ZHHZ	DXXD	YFFY	CPPC	JQQJ	LWWL	vertrauen	küssen	träumen	sonnig	gütig	genießen	versagen	krank	töten	sterben	gierig	gemein	47pct	acq_USpleas_CSpleas2_noRW	acq1_noRW	1	47	0	0	300	300	496	50	0	1	1	blank2r.bmp	0	1	+	0	1	blank2r.bmp	252	1	DXXD	306	1	sonnig	559	0	0	0	0	0	0	0	0	0	0	0	0	0	0	0	0	0	0	0	0	0	0	0	0	0	0	0	0	0	0	0	0	0	0	0	0	0	0	0
070819	17:10:37	17:13:30	172316	5.0.10.0	5_exp_noRW	26	Rpleas_acq	CS_A	ZHHZ	DXXD	YFFY	CPPC	JQQJ	LWWL	vertrauen	küssen	träumen	sonnig	gütig	genießen	versagen	krank	töten	sterben	gierig	gemein	53pct	acq_USpleas_CSpleas1_noRW	acq1_noRW	1	48	0	0	300	300	448	50	0	1	1	blank2r.bmp	0	1	+	0	1	blank2r.bmp	252	1	ZHHZ	306	3	träumen	559	0	0	0	0	0	0	0	0	0	0	0	0	0	0	0	0	0	0	0	0	0	0	0	0	0	0	0	0	0	0	0	0	0	0	0	0	0	0	0
070819	17:10:37	17:13:32	173942	5.0.10.0	5_exp_noRW	26	Rpleas_acq	CS_A	ZHHZ	DXXD	YFFY	CPPC	JQQJ	LWWL	vertrauen	küssen	träumen	sonnig	gütig	genießen	versagen	krank	töten	sterben	gierig	gemein	53pct	acq_USpleas_CSpleas2_noRW	acq1_noRW	1	49	0	0	300	300	438	50	0	1	1	blank2r.bmp	0	1	+	0	1	blank2r.bmp	252	1	DXXD	306	3	genießen	559	0	0	0	0	0	0	0	0	0	0	0	0	0	0	0	0	0	0	0	0	0	0	0	0	0	0	0	0	0	0	0	0	0	0	0	0	0	0	0
070819	17:10:37	17:13:33	175501	5.0.10.0	5_exp_noRW	26	Rpleas_acq	CS_A	ZHHZ	DXXD	YFFY	CPPC	JQQJ	LWWL	vertrauen	küssen	träumen	sonnig	gütig	genießen	versagen	krank	töten	sterben	gierig	gemein	53pct	acq_USpleas_CSpleas1_noRW	acq1_noRW	1	50	0	0	300	300	391	50	0	1	1	blank2r.bmp	0	1	+	0	1	blank2r.bmp	252	1	ZHHZ	306	2	küssen	559	0	0	0	0	0	0	0	0	0	0	0	0	0	0	0	0	0	0	0	0	0	0	0	0	0	0	0	0	0	0	0	0	0	0	0	0	0	0	0
070819	17:10:37	17:13:35	177034	5.0.10.0	5_exp_noRW	26	Rpleas_acq	CS_A	ZHHZ	DXXD	YFFY	CPPC	JQQJ	LWWL	vertrauen	küssen	träumen	sonnig	gütig	genießen	versagen	krank	töten	sterben	gierig	gemein	53pct	acq_USpleas_CSunple1_noRW	acq1_noRW	1	51	0	0	300	300	363	50	0	1	1	blank2r.bmp	0	1	+	0	1	blank2r.bmp	252	1	YFFY	306	3	träumen	559	0	0	0	0	0	0	0	0	0	0	0	0	0	0	0	0	0	0	0	0	0	0	0	0	0	0	0	0	0	0	0	0	0	0	0	0	0	0	0
070819	17:10:37	17:13:36	178687	5.0.10.0	5_exp_noRW	26	Rpleas_acq	CS_A	ZHHZ	DXXD	YFFY	CPPC	JQQJ	LWWL	vertrauen	küssen	träumen	sonnig	gütig	genießen	versagen	krank	töten	sterben	gierig	gemein	47pct	acq_USunple_CSunple1_noRW	acq1_noRW	1	52	0	0	300	300	486	46	0	1	1	blank2r.bmp	0	1	+	0	1	blank2r.bmp	252	1	YFFY	306	1	versagen	559	0	0	0	0	0	0	0	0	0	0	0	0	0	0	0	0	0	0	0	0	0	0	0	0	0	0	0	0	0	0	0	0	0	0	0	0	0	0	0
070819	17:10:37	17:13:38	180433	5.0.10.0	5_exp_noRW	26	Rpleas_acq	CS_A	ZHHZ	DXXD	YFFY	CPPC	JQQJ	LWWL	vertrauen	küssen	träumen	sonnig	gütig	genießen	versagen	krank	töten	sterben	gierig	gemein	53pct	acq_USunple_CSunple2_noRW	acq1_noRW	1	53	0	0	300	300	572	46	0	1	1	blank2r.bmp	0	1	+	0	1	blank2r.bmp	252	1	CPPC	306	2	gierig	559	0	0	0	0	0	0	0	0	0	0	0	0	0	0	0	0	0	0	0	0	0	0	0	0	0	0	0	0	0	0	0	0	0	0	0	0	0	0	0
070819	17:10:37	17:13:40	182112	5.0.10.0	5_exp_noRW	26	Rpleas_acq	CS_A	ZHHZ	DXXD	YFFY	CPPC	JQQJ	LWWL	vertrauen	küssen	träumen	sonnig	gütig	genießen	versagen	krank	töten	sterben	gierig	gemein	47pct	acq_USpleas_CSpleas2_noRW	acq1_noRW	1	54	0	0	300	300	510	50	0	1	1	blank2r.bmp	0	1	+	0	1	blank2r.bmp	252	1	DXXD	306	2	gütig	559	0	0	0	0	0	0	0	0	0	0	0	0	0	0	0	0	0	0	0	0	0	0	0	0	0	0	0	0	0	0	0	0	0	0	0	0	0	0	0
070819	17:10:37	17:13:42	183845	5.0.10.0	5_exp_noRW	26	Rpleas_acq	CS_A	ZHHZ	DXXD	YFFY	CPPC	JQQJ	LWWL	vertrauen	küssen	träumen	sonnig	gütig	genießen	versagen	krank	töten	sterben	gierig	gemein	53pct	acq_USunple_CSunple2_noRW	acq1_noRW	1	55	0	0	300	300	557	46	0	1	1	blank2r.bmp	0	1	+	0	1	blank2r.bmp	252	1	CPPC	306	1	sterben	559	0	0	0	0	0	0	0	0	0	0	0	0	0	0	0	0	0	0	0	0	0	0	0	0	0	0	0	0	0	0	0	0	0	0	0	0	0	0	0
070819	17:10:37	17:13:43	185471	5.0.10.0	5_exp_noRW	26	Rpleas_acq	CS_A	ZHHZ	DXXD	YFFY	CPPC	JQQJ	LWWL	vertrauen	küssen	träumen	sonnig	gütig	genießen	versagen	krank	töten	sterben	gierig	gemein	47pct	acq_USunple_CSunple2_noRW	acq1_noRW	1	56	0	0	300	300	446	46	0	1	1	blank2r.bmp	0	1	+	0	1	blank2r.bmp	252	1	CPPC	306	3	gemein	559	0	0	0	0	0	0	0	0	0	0	0	0	0	0	0	0	0	0	0	0	0	0	0	0	0	0	0	0	0	0	0	0	0	0	0	0	0	0	0
070819	17:10:37	17:13:45	187003	5.0.10.0	5_exp_noRW	26	Rpleas_acq	CS_A	ZHHZ	DXXD	YFFY	CPPC	JQQJ	LWWL	vertrauen	küssen	träumen	sonnig	gütig	genießen	versagen	krank	töten	sterben	gierig	gemein	53pct	acq_USunple_CSpleas2_noRW	acq1_noRW	1	57	0	0	300	300	362	46	0	1	1	blank2r.bmp	0	1	+	0	1	blank2r.bmp	252	1	DXXD	306	3	gemein	559	0	0	0	0	0	0	0	0	0	0	0	0	0	0	0	0	0	0	0	0	0	0	0	0	0	0	0	0	0	0	0	0	0	0	0	0	0	0	0
070819	17:10:37	17:13:46	188696	5.0.10.0	5_exp_noRW	26	Rpleas_acq	CS_A	ZHHZ	DXXD	YFFY	CPPC	JQQJ	LWWL	vertrauen	küssen	träumen	sonnig	gütig	genießen	versagen	krank	töten	sterben	gierig	gemein	53pct	acq_USpleas_CSunple2_noRW	acq1_noRW	1	58	0	0	300	300	522	50	0	1	1	blank2r.bmp	0	1	+	0	1	blank2r.bmp	252	1	CPPC	306	3	genießen	559	0	0	0	0	0	0	0	0	0	0	0	0	0	0	0	0	0	0	0	0	0	0	0	0	0	0	0	0	0	0	0	0	0	0	0	0	0	0	0
070819	17:10:37	17:13:48	190469	5.0.10.0	5_exp_noRW	26	Rpleas_acq	CS_A	ZHHZ	DXXD	YFFY	CPPC	JQQJ	LWWL	vertrauen	küssen	träumen	sonnig	gütig	genießen	versagen	krank	töten	sterben	gierig	gemein	47pct	acq_USpleas_CSpleas1_noRW	acq1_noRW	1	59	0	0	300	300	375	46	0	0	1	blank2r.bmp	0	1	+	0	1	blank2r.bmp	252	1	ZHHZ	306	1	vertrauen	559	1	FEHLER	972	0	0	0	0	0	0	0	0	0	0	0	0	0	0	0	0	0	0	0	0	0	0	0	0	0	0	0	0	0	0	0	0	0	0	0	0
070819	17:10:37	17:13:50	191935	5.0.10.0	5_exp_noRW	26	Rpleas_acq	CS_A	ZHHZ	DXXD	YFFY	CPPC	JQQJ	LWWL	vertrauen	küssen	träumen	sonnig	gütig	genießen	versagen	krank	töten	sterben	gierig	gemein	53pct	acq_USunple_CSunple1_noRW	acq1_noRW	1	60	0	0	300	300	492	46	0	1	1	blank2r.bmp	0	1	+	0	1	blank2r.bmp	252	1	YFFY	306	3	töten	559	0	0	0	0	0	0	0	0	0	0	0	0	0	0	0	0	0	0	0	0	0	0	0	0	0	0	0	0	0	0	0	0	0	0	0	0	0	0	0
070819	17:10:37	17:13:51	193734	5.0.10.0	5_exp_noRW	26	Rpleas_acq	CS_A	ZHHZ	DXXD	YFFY	CPPC	JQQJ	LWWL	vertrauen	küssen	träumen	sonnig	gütig	genießen	versagen	krank	töten	sterben	gierig	gemein	53pct	acq_USunple_CSunple2_noRW	acq1_noRW	1	61	0	0	300	300	423	50	0	0	1	blank2r.bmp	0	1	+	0	1	blank2r.bmp	252	1	CPPC	306	3	gemein	559	1	FEHLER	1012	0	0	0	0	0	0	0	0	0	0	0	0	0	0	0	0	0	0	0	0	0	0	0	0	0	0	0	0	0	0	0	0	0	0	0	0
070819	17:10:37	17:13:53	195280	5.0.10.0	5_exp_noRW	26	Rpleas_acq	CS_A	ZHHZ	DXXD	YFFY	CPPC	JQQJ	LWWL	vertrauen	küssen	träumen	sonnig	gütig	genießen	versagen	krank	töten	sterben	gierig	gemein	47pct	acq_USpleas_CSpleas1_noRW	acq1_noRW	1	62	0	0	300	300	581	50	0	1	1	blank2r.bmp	0	1	+	0	1	blank2r.bmp	252	1	ZHHZ	306	3	träumen	559	0	0	0	0	0	0	0	0	0	0	0	0	0	0	0	0	0	0	0	0	0	0	0	0	0	0	0	0	0	0	0	0	0	0	0	0	0	0	0
070819	17:10:37	17:13:56	198306	5.0.10.0	5_exp_noRW	26	Rpleas_acq	CS_A	ZHHZ	DXXD	YFFY	CPPC	JQQJ	LWWL	vertrauen	küssen	träumen	sonnig	gütig	genießen	versagen	krank	töten	sterben	gierig	gemein	53pct	acq_USunple_CSunple2_noRW	acq1_noRW	1	63	0	0	300	300	1845	46	0	1	1	blank2r.bmp	0	1	+	0	1	blank2r.bmp	252	1	CPPC	306	2	gierig	559	0	0	0	0	0	0	0	0	0	0	0	0	0	0	0	0	0	0	0	0	0	0	0	0	0	0	0	0	0	0	0	0	0	0	0	0	0	0	0
070819	17:10:37	17:13:58	200132	5.0.10.0	5_exp_noRW	26	Rpleas_acq	CS_A	ZHHZ	DXXD	YFFY	CPPC	JQQJ	LWWL	vertrauen	küssen	träumen	sonnig	gütig	genießen	versagen	krank	töten	sterben	gierig	gemein	53pct	acq_USpleas_CSpleas1_noRW	acq1_noRW	1	64	0	0	300	300	650	50	0	1	1	blank2r.bmp	0	1	+	0	1	blank2r.bmp	252	1	ZHHZ	306	1	vertrauen	559	0	0	0	0	0	0	0	0	0	0	0	0	0	0	0	0	0	0	0	0	0	0	0	0	0	0	0	0	0	0	0	0	0	0	0	0	0	0	0
070819	17:10:37	17:14:00	201877	5.0.10.0	5_exp_noRW	26	Rpleas_acq	CS_A	ZHHZ	DXXD	YFFY	CPPC	JQQJ	LWWL	vertrauen	küssen	träumen	sonnig	gütig	genießen	versagen	krank	töten	sterben	gierig	gemein	53pct	acq_USpleas_CSpleas2_noRW	acq1_noRW	1	65	0	0	300	300	561	50	0	1	1	blank2r.bmp	0	1	+	0	1	blank2r.bmp	252	1	DXXD	306	1	sonnig	559	0	0	0	0	0	0	0	0	0	0	0	0	0	0	0	0	0	0	0	0	0	0	0	0	0	0	0	0	0	0	0	0	0	0	0	0	0	0	0
070819	17:10:37	17:14:01	203437	5.0.10.0	5_exp_noRW	26	Rpleas_acq	CS_A	ZHHZ	DXXD	YFFY	CPPC	JQQJ	LWWL	vertrauen	küssen	träumen	sonnig	gütig	genießen	versagen	krank	töten	sterben	gierig	gemein	53pct	acq_USpleas_CSpleas1_noRW	acq1_noRW	1	66	0	0	300	300	373	50	0	1	1	blank2r.bmp	0	1	+	0	1	blank2r.bmp	252	1	ZHHZ	306	2	küssen	559	0	0	0	0	0	0	0	0	0	0	0	0	0	0	0	0	0	0	0	0	0	0	0	0	0	0	0	0	0	0	0	0	0	0	0	0	0	0	0
070819	17:10:37	17:14:03	205129	5.0.10.0	5_exp_noRW	26	Rpleas_acq	CS_A	ZHHZ	DXXD	YFFY	CPPC	JQQJ	LWWL	vertrauen	küssen	träumen	sonnig	gütig	genießen	versagen	krank	töten	sterben	gierig	gemein	47pct	acq_USunple_CSunple2_noRW	acq1_noRW	1	67	0	0	300	300	507	46	0	1	1	blank2r.bmp	0	1	+	0	1	blank2r.bmp	252	1	CPPC	306	1	sterben	559	0	0	0	0	0	0	0	0	0	0	0	0	0	0	0	0	0	0	0	0	0	0	0	0	0	0	0	0	0	0	0	0	0	0	0	0	0	0	0
070819	17:10:37	17:14:05	206795	5.0.10.0	5_exp_noRW	26	Rpleas_acq	CS_A	ZHHZ	DXXD	YFFY	CPPC	JQQJ	LWWL	vertrauen	küssen	träumen	sonnig	gütig	genießen	versagen	krank	töten	sterben	gierig	gemein	47pct	acq_USunple_CSunple1_noRW	acq1_noRW	1	68	0	0	300	300	501	46	0	1	1	blank2r.bmp	0	1	+	0	1	blank2r.bmp	252	1	YFFY	306	2	krank	559	0	0	0	0	0	0	0	0	0	0	0	0	0	0	0	0	0	0	0	0	0	0	0	0	0	0	0	0	0	0	0	0	0	0	0	0	0	0	0
070819	17:10:37	17:14:06	208435	5.0.10.0	5_exp_noRW	26	Rpleas_acq	CS_A	ZHHZ	DXXD	YFFY	CPPC	JQQJ	LWWL	vertrauen	küssen	träumen	sonnig	gütig	genießen	versagen	krank	töten	sterben	gierig	gemein	47pct	acq_USunple_CSpleas2_noRW	acq1_noRW	1	69	0	0	300	300	474	46	0	1	1	blank2r.bmp	0	1	+	0	1	blank2r.bmp	252	1	DXXD	306	1	sterben	559	0	0	0	0	0	0	0	0	0	0	0	0	0	0	0	0	0	0	0	0	0	0	0	0	0	0	0	0	0	0	0	0	0	0	0	0	0	0	0
070819	17:10:37	17:14:08	210087	5.0.10.0	5_exp_noRW	26	Rpleas_acq	CS_A	ZHHZ	DXXD	YFFY	CPPC	JQQJ	LWWL	vertrauen	küssen	träumen	sonnig	gütig	genießen	versagen	krank	töten	sterben	gierig	gemein	47pct	acq_USpleas_CSunple1_noRW	acq1_noRW	1	70	0	0	300	300	482	50	0	1	1	blank2r.bmp	0	1	+	0	1	blank2r.bmp	252	1	YFFY	306	1	vertrauen	559	0	0	0	0	0	0	0	0	0	0	0	0	0	0	0	0	0	0	0	0	0	0	0	0	0	0	0	0	0	0	0	0	0	0	0	0	0	0	0
070819	17:10:37	17:14:10	211847	5.0.10.0	5_exp_noRW	26	Rpleas_acq	CS_A	ZHHZ	DXXD	YFFY	CPPC	JQQJ	LWWL	vertrauen	küssen	träumen	sonnig	gütig	genießen	versagen	krank	töten	sterben	gierig	gemein	53pct	acq_USunple_CSunple1_noRW	acq1_noRW	1	71	0	0	300	300	597	46	0	1	1	blank2r.bmp	0	1	+	0	1	blank2r.bmp	252	1	YFFY	306	3	töten	559	0	0	0	0	0	0	0	0	0	0	0	0	0	0	0	0	0	0	0	0	0	0	0	0	0	0	0	0	0	0	0	0	0	0	0	0	0	0	0
070819	17:10:37	17:14:11	213766	5.0.10.0	5_exp_noRW	26	Rpleas_acq	CS_A	ZHHZ	DXXD	YFFY	CPPC	JQQJ	LWWL	vertrauen	küssen	träumen	sonnig	gütig	genießen	versagen	krank	töten	sterben	gierig	gemein	53pct	acq_USunple_CSunple1_noRW	acq1_noRW	1	72	0	0	300	300	744	46	0	1	1	blank2r.bmp	0	1	+	0	1	blank2r.bmp	252	1	YFFY	306	1	versagen	559	0	0	0	0	0	0	0	0	0	0	0	0	0	0	0	0	0	0	0	0	0	0	0	0	0	0	0	0	0	0	0	0	0	0	0	0	0	0	0
070819	17:10:37	17:14:13	215405	5.0.10.0	5_exp_noRW	26	Rpleas_acq	CS_A	ZHHZ	DXXD	YFFY	CPPC	JQQJ	LWWL	vertrauen	küssen	träumen	sonnig	gütig	genießen	versagen	krank	töten	sterben	gierig	gemein	47pct	acq_USpleas_CSunple2_noRW	acq1_noRW	1	73	0	0	300	300	458	50	0	1	1	blank2r.bmp	0	1	+	0	1	blank2r.bmp	252	1	CPPC	306	1	sonnig	559	0	0	0	0	0	0	0	0	0	0	0	0	0	0	0	0	0	0	0	0	0	0	0	0	0	0	0	0	0	0	0	0	0	0	0	0	0	0	0
070819	17:10:37	17:14:15	217258	5.0.10.0	5_exp_noRW	26	Rpleas_acq	CS_A	ZHHZ	DXXD	YFFY	CPPC	JQQJ	LWWL	vertrauen	küssen	träumen	sonnig	gütig	genießen	versagen	krank	töten	sterben	gierig	gemein	47pct	acq_USpleas_CSpleas2_noRW	acq1_noRW	1	74	0	0	300	300	681	50	0	1	1	blank2r.bmp	0	1	+	0	1	blank2r.bmp	252	1	DXXD	306	2	gütig	559	0	0	0	0	0	0	0	0	0	0	0	0	0	0	0	0	0	0	0	0	0	0	0	0	0	0	0	0	0	0	0	0	0	0	0	0	0	0	0
070819	17:10:37	17:14:17	218884	5.0.10.0	5_exp_noRW	26	Rpleas_acq	CS_A	ZHHZ	DXXD	YFFY	CPPC	JQQJ	LWWL	vertrauen	küssen	träumen	sonnig	gütig	genießen	versagen	krank	töten	sterben	gierig	gemein	47pct	acq_USpleas_CSpleas2_noRW	acq1_noRW	1	75	0	0	300	300	451	50	0	1	1	blank2r.bmp	0	1	+	0	1	blank2r.bmp	252	1	DXXD	306	3	genießen	559	0	0	0	0	0	0	0	0	0	0	0	0	0	0	0	0	0	0	0	0	0	0	0	0	0	0	0	0	0	0	0	0	0	0	0	0	0	0	0
070819	17:10:37	17:14:18	220417	5.0.10.0	5_exp_noRW	26	Rpleas_acq	CS_A	ZHHZ	DXXD	YFFY	CPPC	JQQJ	LWWL	vertrauen	küssen	träumen	sonnig	gütig	genießen	versagen	krank	töten	sterben	gierig	gemein	53pct	acq_USpleas_CSpleas1_noRW	acq1_noRW	1	76	0	0	300	300	365	50	0	1	1	blank2r.bmp	0	1	+	0	1	blank2r.bmp	252	1	ZHHZ	306	2	küssen	559	0	0	0	0	0	0	0	0	0	0	0	0	0	0	0	0	0	0	0	0	0	0	0	0	0	0	0	0	0	0	0	0	0	0	0	0	0	0	0
070819	17:10:37	17:14:20	222109	5.0.10.0	5_exp_noRW	26	Rpleas_acq	CS_A	ZHHZ	DXXD	YFFY	CPPC	JQQJ	LWWL	vertrauen	küssen	träumen	sonnig	gütig	genießen	versagen	krank	töten	sterben	gierig	gemein	53pct	acq_USpleas_CSpleas2_noRW	acq1_noRW	1	77	0	0	300	300	528	50	0	1	1	blank2r.bmp	0	1	+	0	1	blank2r.bmp	252	1	DXXD	306	2	gütig	559	0	0	0	0	0	0	0	0	0	0	0	0	0	0	0	0	0	0	0	0	0	0	0	0	0	0	0	0	0	0	0	0	0	0	0	0	0	0	0
070819	17:10:37	17:14:21	223749	5.0.10.0	5_exp_noRW	26	Rpleas_acq	CS_A	ZHHZ	DXXD	YFFY	CPPC	JQQJ	LWWL	vertrauen	küssen	träumen	sonnig	gütig	genießen	versagen	krank	töten	sterben	gierig	gemein	53pct	acq_USunple_CSunple1_noRW	acq1_noRW	1	78	0	0	300	300	464	46	0	1	1	blank2r.bmp	0	1	+	0	1	blank2r.bmp	252	1	YFFY	306	3	töten	559	0	0	0	0	0	0	0	0	0	0	0	0	0	0	0	0	0	0	0	0	0	0	0	0	0	0	0	0	0	0	0	0	0	0	0	0	0	0	0
070819	17:10:37	17:14:23	225428	5.0.10.0	5_exp_noRW	26	Rpleas_acq	CS_A	ZHHZ	DXXD	YFFY	CPPC	JQQJ	LWWL	vertrauen	küssen	träumen	sonnig	gütig	genießen	versagen	krank	töten	sterben	gierig	gemein	53pct	acq_USunple_CSunple2_noRW	acq1_noRW	1	79	0	0	300	300	503	46	0	1	1	blank2r.bmp	0	1	+	0	1	blank2r.bmp	252	1	CPPC	306	1	sterben	559	0	0	0	0	0	0	0	0	0	0	0	0	0	0	0	0	0	0	0	0	0	0	0	0	0	0	0	0	0	0	0	0	0	0	0	0	0	0	0
070819	17:10:37	17:14:25	227041	5.0.10.0	5_exp_noRW	26	Rpleas_acq	CS_A	ZHHZ	DXXD	YFFY	CPPC	JQQJ	LWWL	vertrauen	küssen	träumen	sonnig	gütig	genießen	versagen	krank	töten	sterben	gierig	gemein	47pct	acq_USunple_CSpleas1_noRW	acq1_noRW	1	80	0	0	300	300	425	46	0	1	1	blank2r.bmp	0	1	+	0	1	blank2r.bmp	252	1	ZHHZ	306	3	töten	559	0	0	0	0	0	0	0	0	0	0	0	0	0	0	0	0	0	0	0	0	0	0	0	0	0	0	0	0	0	0	0	0	0	0	0	0	0	0	0
070819	17:10:37	17:14:36	238436	5.0.10.0	5_exp_noRW	26	Rpleas_acq	CS_A	ZHHZ	DXXD	YFFY	CPPC	JQQJ	LWWL	vertrauen	küssen	träumen	sonnig	gütig	genießen	versagen	krank	töten	sterben	gierig	gemein	47pct	acq_USpleas_CSpleas2_noRW	acq23456_noRW	2	1	0	0	300	300	723	50	0	1	1	blank2r.bmp	0	1	+	0	1	blank2r.bmp	252	1	DXXD	306	3	genießen	559	0	0	0	0	0	0	0	0	0	0	0	0	0	0	0	0	0	0	0	0	0	0	0	0	0	0	0	0	0	0	0	0	0	0	0	0	0	0	0
070819	17:10:37	17:14:38	240022	5.0.10.0	5_exp_noRW	26	Rpleas_acq	CS_A	ZHHZ	DXXD	YFFY	CPPC	JQQJ	LWWL	vertrauen	küssen	träumen	sonnig	gütig	genießen	versagen	krank	töten	sterben	gierig	gemein	47pct	acq_USpleas_CSpleas1_noRW	acq23456_noRW	2	2	0	0	300	300	424	50	0	1	1	blank2r.bmp	0	1	+	0	1	blank2r.bmp	252	1	ZHHZ	306	3	träumen	559	0	0	0	0	0	0	0	0	0	0	0	0	0	0	0	0	0	0	0	0	0	0	0	0	0	0	0	0	0	0	0	0	0	0	0	0	0	0	0
070819	17:10:37	17:14:39	241661	5.0.10.0	5_exp_noRW	26	Rpleas_acq	CS_A	ZHHZ	DXXD	YFFY	CPPC	JQQJ	LWWL	vertrauen	küssen	träumen	sonnig	gütig	genießen	versagen	krank	töten	sterben	gierig	gemein	47pct	acq_USunple_CSunple2_noRW	acq23456_noRW	2	3	0	0	300	300	476	46	0	1	1	blank2r.bmp	0	1	+	0	1	blank2r.bmp	252	1	CPPC	306	3	gemein	559	0	0	0	0	0	0	0	0	0	0	0	0	0	0	0	0	0	0	0	0	0	0	0	0	0	0	0	0	0	0	0	0	0	0	0	0	0	0	0
070819	17:10:37	17:14:41	243261	5.0.10.0	5_exp_noRW	26	Rpleas_acq	CS_A	ZHHZ	DXXD	YFFY	CPPC	JQQJ	LWWL	vertrauen	küssen	träumen	sonnig	gütig	genießen	versagen	krank	töten	sterben	gierig	gemein	47pct	acq_USpleas_CSpleas1_noRW	acq23456_noRW	2	4	0	0	300	300	438	50	0	1	1	blank2r.bmp	0	1	+	0	1	blank2r.bmp	252	1	ZHHZ	306	1	vertrauen	559	0	0	0	0	0	0	0	0	0	0	0	0	0	0	0	0	0	0	0	0	0	0	0	0	0	0	0	0	0	0	0	0	0	0	0	0	0	0	0
070819	17:10:37	17:14:43	244833	5.0.10.0	5_exp_noRW	26	Rpleas_acq	CS_A	ZHHZ	DXXD	YFFY	CPPC	JQQJ	LWWL	vertrauen	küssen	träumen	sonnig	gütig	genießen	versagen	krank	töten	sterben	gierig	gemein	47pct	acq_USpleas_CSpleas2_noRW	acq23456_noRW	2	5	0	0	300	300	391	50	0	1	1	blank2r.bmp	0	1	+	0	1	blank2r.bmp	252	1	DXXD	306	1	sonnig	559	0	0	0	0	0	0	0	0	0	0	0	0	0	0	0	0	0	0	0	0	0	0	0	0	0	0	0	0	0	0	0	0	0	0	0	0	0	0	0
070819	17:10:37	17:14:44	246446	5.0.10.0	5_exp_noRW	26	Rpleas_acq	CS_A	ZHHZ	DXXD	YFFY	CPPC	JQQJ	LWWL	vertrauen	küssen	träumen	sonnig	gütig	genießen	versagen	krank	töten	sterben	gierig	gemein	47pct	acq_USpleas_CSpleas1_noRW	acq23456_noRW	2	6	0	0	300	300	435	50	0	1	1	blank2r.bmp	0	1	+	0	1	blank2r.bmp	252	1	ZHHZ	306	3	träumen	559	0	0	0	0	0	0	0	0	0	0	0	0	0	0	0	0	0	0	0	0	0	0	0	0	0	0	0	0	0	0	0	0	0	0	0	0	0	0	0
070819	17:10:37	17:14:46	248045	5.0.10.0	5_exp_noRW	26	Rpleas_acq	CS_A	ZHHZ	DXXD	YFFY	CPPC	JQQJ	LWWL	vertrauen	küssen	träumen	sonnig	gütig	genießen	versagen	krank	töten	sterben	gierig	gemein	53pct	acq_USunple_CSunple2_noRW	acq23456_noRW	2	7	0	0	300	300	420	46	0	1	1	blank2r.bmp	0	1	+	0	1	blank2r.bmp	252	1	CPPC	306	2	gierig	559	0	0	0	0	0	0	0	0	0	0	0	0	0	0	0	0	0	0	0	0	0	0	0	0	0	0	0	0	0	0	0	0	0	0	0	0	0	0	0
070819	17:10:37	17:14:47	249618	5.0.10.0	5_exp_noRW	26	Rpleas_acq	CS_A	ZHHZ	DXXD	YFFY	CPPC	JQQJ	LWWL	vertrauen	küssen	träumen	sonnig	gütig	genießen	versagen	krank	töten	sterben	gierig	gemein	47pct	acq_USunple_CSunple2_noRW	acq23456_noRW	2	8	0	0	300	300	390	46	0	1	1	blank2r.bmp	0	1	+	0	1	blank2r.bmp	252	1	CPPC	306	1	sterben	559	0	0	0	0	0	0	0	0	0	0	0	0	0	0	0	0	0	0	0	0	0	0	0	0	0	0	0	0	0	0	0	0	0	0	0	0	0	0	0
070819	17:10:37	17:14:49	251311	5.0.10.0	5_exp_noRW	26	Rpleas_acq	CS_A	ZHHZ	DXXD	YFFY	CPPC	JQQJ	LWWL	vertrauen	küssen	träumen	sonnig	gütig	genießen	versagen	krank	töten	sterben	gierig	gemein	47pct	acq_USpleas_CSunple2_noRW	acq23456_noRW	2	9	0	0	300	300	521	50	0	1	1	blank2r.bmp	0	1	+	0	1	blank2r.bmp	252	1	CPPC	306	3	genießen	559	0	0	0	0	0	0	0	0	0	0	0	0	0	0	0	0	0	0	0	0	0	0	0	0	0	0	0	0	0	0	0	0	0	0	0	0	0	0	0
070819	17:10:37	17:14:51	252897	5.0.10.0	5_exp_noRW	26	Rpleas_acq	CS_A	ZHHZ	DXXD	YFFY	CPPC	JQQJ	LWWL	vertrauen	küssen	träumen	sonnig	gütig	genießen	versagen	krank	töten	sterben	gierig	gemein	53pct	acq_USpleas_CSpleas2_noRW	acq23456_noRW	2	10	0	0	300	300	424	50	0	1	1	blank2r.bmp	0	1	+	0	1	blank2r.bmp	252	1	DXXD	306	1	sonnig	559	0	0	0	0	0	0	0	0	0	0	0	0	0	0	0	0	0	0	0	0	0	0	0	0	0	0	0	0	0	0	0	0	0	0	0	0	0	0	0
070819	17:10:37	17:14:52	254536	5.0.10.0	5_exp_noRW	26	Rpleas_acq	CS_A	ZHHZ	DXXD	YFFY	CPPC	JQQJ	LWWL	vertrauen	küssen	träumen	sonnig	gütig	genießen	versagen	krank	töten	sterben	gierig	gemein	47pct	acq_USunple_CSunple2_noRW	acq23456_noRW	2	11	0	0	300	300	452	46	0	1	1	blank2r.bmp	0	1	+	0	1	blank2r.bmp	252	1	CPPC	306	3	gemein	559	0	0	0	0	0	0	0	0	0	0	0	0	0	0	0	0	0	0	0	0	0	0	0	0	0	0	0	0	0	0	0	0	0	0	0	0	0	0	0
070819	17:10:37	17:14:54	256175	5.0.10.0	5_exp_noRW	26	Rpleas_acq	CS_A	ZHHZ	DXXD	YFFY	CPPC	JQQJ	LWWL	vertrauen	küssen	träumen	sonnig	gütig	genießen	versagen	krank	töten	sterben	gierig	gemein	53pct	acq_USunple_CSunple1_noRW	acq23456_noRW	2	12	0	0	300	300	469	46	0	1	1	blank2r.bmp	0	1	+	0	1	blank2r.bmp	252	1	YFFY	306	2	krank	559	0	0	0	0	0	0	0	0	0	0	0	0	0	0	0	0	0	0	0	0	0	0	0	0	0	0	0	0	0	0	0	0	0	0	0	0	0	0	0
070819	17:10:37	17:14:56	257881	5.0.10.0	5_exp_noRW	26	Rpleas_acq	CS_A	ZHHZ	DXXD	YFFY	CPPC	JQQJ	LWWL	vertrauen	küssen	träumen	sonnig	gütig	genießen	versagen	krank	töten	sterben	gierig	gemein	53pct	acq_USunple_CSunple1_noRW	acq23456_noRW	2	13	0	0	300	300	544	46	0	1	1	blank2r.bmp	0	1	+	0	1	blank2r.bmp	252	1	YFFY	306	1	versagen	559	0	0	0	0	0	0	0	0	0	0	0	0	0	0	0	0	0	0	0	0	0	0	0	0	0	0	0	0	0	0	0	0	0	0	0	0	0	0	0
070819	17:10:37	17:14:57	259467	5.0.10.0	5_exp_noRW	26	Rpleas_acq	CS_A	ZHHZ	DXXD	YFFY	CPPC	JQQJ	LWWL	vertrauen	küssen	träumen	sonnig	gütig	genießen	versagen	krank	töten	sterben	gierig	gemein	47pct	acq_USpleas_CSunple1_noRW	acq23456_noRW	2	14	0	0	300	300	404	50	0	1	1	blank2r.bmp	0	1	+	0	1	blank2r.bmp	252	1	YFFY	306	2	küssen	559	0	0	0	0	0	0	0	0	0	0	0	0	0	0	0	0	0	0	0	0	0	0	0	0	0	0	0	0	0	0	0	0	0	0	0	0	0	0	0
070819	17:10:37	17:14:59	261200	5.0.10.0	5_exp_noRW	26	Rpleas_acq	CS_A	ZHHZ	DXXD	YFFY	CPPC	JQQJ	LWWL	vertrauen	küssen	träumen	sonnig	gütig	genießen	versagen	krank	töten	sterben	gierig	gemein	47pct	acq_USunple_CSpleas1_noRW	acq23456_noRW	2	15	0	0	300	300	552	46	0	1	1	blank2r.bmp	0	1	+	0	1	blank2r.bmp	252	1	ZHHZ	306	2	krank	559	0	0	0	0	0	0	0	0	0	0	0	0	0	0	0	0	0	0	0	0	0	0	0	0	0	0	0	0	0	0	0	0	0	0	0	0	0	0	0
070819	17:10:37	17:15:01	262866	5.0.10.0	5_exp_noRW	26	Rpleas_acq	CS_A	ZHHZ	DXXD	YFFY	CPPC	JQQJ	LWWL	vertrauen	küssen	träumen	sonnig	gütig	genießen	versagen	krank	töten	sterben	gierig	gemein	53pct	acq_USunple_CSunple1_noRW	acq23456_noRW	2	16	0	0	300	300	480	46	0	1	1	blank2r.bmp	0	1	+	0	1	blank2r.bmp	252	1	YFFY	306	3	töten	559	0	0	0	0	0	0	0	0	0	0	0	0	0	0	0	0	0	0	0	0	0	0	0	0	0	0	0	0	0	0	0	0	0	0	0	0	0	0	0
070819	17:10:37	17:15:02	264519	5.0.10.0	5_exp_noRW	26	Rpleas_acq	CS_A	ZHHZ	DXXD	YFFY	CPPC	JQQJ	LWWL	vertrauen	küssen	träumen	sonnig	gütig	genießen	versagen	krank	töten	sterben	gierig	gemein	53pct	acq_USunple_CSunple1_noRW	acq23456_noRW	2	17	0	0	300	300	485	46	0	1	1	blank2r.bmp	0	1	+	0	1	blank2r.bmp	252	1	YFFY	306	2	krank	559	0	0	0	0	0	0	0	0	0	0	0	0	0	0	0	0	0	0	0	0	0	0	0	0	0	0	0	0	0	0	0	0	0	0	0	0	0	0	0
070819	17:10:37	17:15:04	266145	5.0.10.0	5_exp_noRW	26	Rpleas_acq	CS_A	ZHHZ	DXXD	YFFY	CPPC	JQQJ	LWWL	vertrauen	küssen	träumen	sonnig	gütig	genießen	versagen	krank	töten	sterben	gierig	gemein	53pct	acq_USpleas_CSpleas2_noRW	acq23456_noRW	2	18	0	0	300	300	457	50	0	1	1	blank2r.bmp	0	1	+	0	1	blank2r.bmp	252	1	DXXD	306	2	gütig	559	0	0	0	0	0	0	0	0	0	0	0	0	0	0	0	0	0	0	0	0	0	0	0	0	0	0	0	0	0	0	0	0	0	0	0	0	0	0	0
070819	17:10:37	17:15:05	267771	5.0.10.0	5_exp_noRW	26	Rpleas_acq	CS_A	ZHHZ	DXXD	YFFY	CPPC	JQQJ	LWWL	vertrauen	küssen	träumen	sonnig	gütig	genießen	versagen	krank	töten	sterben	gierig	gemein	47pct	acq_USpleas_CSpleas1_noRW	acq23456_noRW	2	19	0	0	300	300	442	50	0	1	1	blank2r.bmp	0	1	+	0	1	blank2r.bmp	252	1	ZHHZ	306	1	vertrauen	559	0	0	0	0	0	0	0	0	0	0	0	0	0	0	0	0	0	0	0	0	0	0	0	0	0	0	0	0	0	0	0	0	0	0	0	0	0	0	0
070819	17:10:37	17:15:07	269397	5.0.10.0	5_exp_noRW	26	Rpleas_acq	CS_A	ZHHZ	DXXD	YFFY	CPPC	JQQJ	LWWL	vertrauen	küssen	träumen	sonnig	gütig	genießen	versagen	krank	töten	sterben	gierig	gemein	47pct	acq_USunple_CSpleas2_noRW	acq23456_noRW	2	20	0	0	300	300	442	46	0	1	1	blank2r.bmp	0	1	+	0	1	blank2r.bmp	252	1	DXXD	306	2	gierig	559	0	0	0	0	0	0	0	0	0	0	0	0	0	0	0	0	0	0	0	0	0	0	0	0	0	0	0	0	0	0	0	0	0	0	0	0	0	0	0
070819	17:10:37	17:15:09	271089	5.0.10.0	5_exp_noRW	26	Rpleas_acq	CS_A	ZHHZ	DXXD	YFFY	CPPC	JQQJ	LWWL	vertrauen	küssen	träumen	sonnig	gütig	genießen	versagen	krank	töten	sterben	gierig	gemein	47pct	acq_USunple_CSunple1_noRW	acq23456_noRW	2	21	0	0	300	300	527	46	0	1	1	blank2r.bmp	0	1	+	0	1	blank2r.bmp	252	1	YFFY	306	1	versagen	559	0	0	0	0	0	0	0	0	0	0	0	0	0	0	0	0	0	0	0	0	0	0	0	0	0	0	0	0	0	0	0	0	0	0	0	0	0	0	0
070819	17:10:37	17:15:10	272715	5.0.10.0	5_exp_noRW	26	Rpleas_acq	CS_A	ZHHZ	DXXD	YFFY	CPPC	JQQJ	LWWL	vertrauen	küssen	träumen	sonnig	gütig	genießen	versagen	krank	töten	sterben	gierig	gemein	53pct	acq_USunple_CSunple2_noRW	acq23456_noRW	2	22	0	0	300	300	438	46	0	1	1	blank2r.bmp	0	1	+	0	1	blank2r.bmp	252	1	CPPC	306	2	gierig	559	0	0	0	0	0	0	0	0	0	0	0	0	0	0	0	0	0	0	0	0	0	0	0	0	0	0	0	0	0	0	0	0	0	0	0	0	0	0	0
070819	17:10:37	17:15:12	274355	5.0.10.0	5_exp_noRW	26	Rpleas_acq	CS_A	ZHHZ	DXXD	YFFY	CPPC	JQQJ	LWWL	vertrauen	küssen	träumen	sonnig	gütig	genießen	versagen	krank	töten	sterben	gierig	gemein	47pct	acq_USpleas_CSunple1_noRW	acq23456_noRW	2	23	0	0	300	300	466	50	0	1	1	blank2r.bmp	0	1	+	0	1	blank2r.bmp	252	1	YFFY	306	3	träumen	559	0	0	0	0	0	0	0	0	0	0	0	0	0	0	0	0	0	0	0	0	0	0	0	0	0	0	0	0	0	0	0	0	0	0	0	0	0	0	0
070819	17:10:37	17:15:14	276047	5.0.10.0	5_exp_noRW	26	Rpleas_acq	CS_A	ZHHZ	DXXD	YFFY	CPPC	JQQJ	LWWL	vertrauen	küssen	träumen	sonnig	gütig	genießen	versagen	krank	töten	sterben	gierig	gemein	47pct	acq_USunple_CSunple2_noRW	acq23456_noRW	2	24	0	0	300	300	507	46	0	1	1	blank2r.bmp	0	1	+	0	1	blank2r.bmp	252	1	CPPC	306	2	gierig	559	0	0	0	0	0	0	0	0	0	0	0	0	0	0	0	0	0	0	0	0	0	0	0	0	0	0	0	0	0	0	0	0	0	0	0	0	0	0	0
070819	17:10:37	17:15:15	277633	5.0.10.0	5_exp_noRW	26	Rpleas_acq	CS_A	ZHHZ	DXXD	YFFY	CPPC	JQQJ	LWWL	vertrauen	küssen	träumen	sonnig	gütig	genießen	versagen	krank	töten	sterben	gierig	gemein	47pct	acq_USpleas_CSunple2_noRW	acq23456_noRW	2	25	0	0	300	300	412	50	0	1	1	blank2r.bmp	0	1	+	0	1	blank2r.bmp	252	1	CPPC	306	2	gütig	559	0	0	0	0	0	0	0	0	0	0	0	0	0	0	0	0	0	0	0	0	0	0	0	0	0	0	0	0	0	0	0	0	0	0	0	0	0	0	0
070819	17:10:37	17:15:17	279233	5.0.10.0	5_exp_noRW	26	Rpleas_acq	CS_A	ZHHZ	DXXD	YFFY	CPPC	JQQJ	LWWL	vertrauen	küssen	träumen	sonnig	gütig	genießen	versagen	krank	töten	sterben	gierig	gemein	47pct	acq_USunple_CSunple1_noRW	acq23456_noRW	2	26	0	0	300	300	430	46	0	1	1	blank2r.bmp	0	1	+	0	1	blank2r.bmp	252	1	YFFY	306	3	töten	559	0	0	0	0	0	0	0	0	0	0	0	0	0	0	0	0	0	0	0	0	0	0	0	0	0	0	0	0	0	0	0	0	0	0	0	0	0	0	0
070819	17:10:37	17:15:19	280805	5.0.10.0	5_exp_noRW	26	Rpleas_acq	CS_A	ZHHZ	DXXD	YFFY	CPPC	JQQJ	LWWL	vertrauen	küssen	träumen	sonnig	gütig	genießen	versagen	krank	töten	sterben	gierig	gemein	53pct	acq_USpleas_CSpleas2_noRW	acq23456_noRW	2	27	0	0	300	300	397	50	0	1	1	blank2r.bmp	0	1	+	0	1	blank2r.bmp	252	1	DXXD	306	3	genießen	559	0	0	0	0	0	0	0	0	0	0	0	0	0	0	0	0	0	0	0	0	0	0	0	0	0	0	0	0	0	0	0	0	0	0	0	0	0	0	0
070819	17:10:37	17:15:20	282418	5.0.10.0	5_exp_noRW	26	Rpleas_acq	CS_A	ZHHZ	DXXD	YFFY	CPPC	JQQJ	LWWL	vertrauen	küssen	träumen	sonnig	gütig	genießen	versagen	krank	töten	sterben	gierig	gemein	53pct	acq_USpleas_CSpleas1_noRW	acq23456_noRW	2	28	0	0	300	300	433	50	0	1	1	blank2r.bmp	0	1	+	0	1	blank2r.bmp	252	1	ZHHZ	306	2	küssen	559	0	0	0	0	0	0	0	0	0	0	0	0	0	0	0	0	0	0	0	0	0	0	0	0	0	0	0	0	0	0	0	0	0	0	0	0	0	0	0
070819	17:10:37	17:15:22	284017	5.0.10.0	5_exp_noRW	26	Rpleas_acq	CS_A	ZHHZ	DXXD	YFFY	CPPC	JQQJ	LWWL	vertrauen	küssen	träumen	sonnig	gütig	genießen	versagen	krank	töten	sterben	gierig	gemein	53pct	acq_USpleas_CSpleas1_noRW	acq23456_noRW	2	29	0	0	300	300	415	50	0	1	1	blank2r.bmp	0	1	+	0	1	blank2r.bmp	252	1	ZHHZ	306	1	vertrauen	559	0	0	0	0	0	0	0	0	0	0	0	0	0	0	0	0	0	0	0	0	0	0	0	0	0	0	0	0	0	0	0	0	0	0	0	0	0	0	0
070819	17:10:37	17:15:23	285697	5.0.10.0	5_exp_noRW	26	Rpleas_acq	CS_A	ZHHZ	DXXD	YFFY	CPPC	JQQJ	LWWL	vertrauen	küssen	träumen	sonnig	gütig	genießen	versagen	krank	töten	sterben	gierig	gemein	53pct	acq_USunple_CSunple2_noRW	acq23456_noRW	2	30	0	0	300	300	505	46	0	1	1	blank2r.bmp	0	1	+	0	1	blank2r.bmp	252	1	CPPC	306	3	gemein	559	0	0	0	0	0	0	0	0	0	0	0	0	0	0	0	0	0	0	0	0	0	0	0	0	0	0	0	0	0	0	0	0	0	0	0	0	0	0	0
070819	17:10:37	17:15:25	287309	5.0.10.0	5_exp_noRW	26	Rpleas_acq	CS_A	ZHHZ	DXXD	YFFY	CPPC	JQQJ	LWWL	vertrauen	küssen	träumen	sonnig	gütig	genießen	versagen	krank	töten	sterben	gierig	gemein	53pct	acq_USpleas_CSpleas1_noRW	acq23456_noRW	2	31	0	0	300	300	426	50	0	1	1	blank2r.bmp	0	1	+	0	1	blank2r.bmp	252	1	ZHHZ	306	2	küssen	559	0	0	0	0	0	0	0	0	0	0	0	0	0	0	0	0	0	0	0	0	0	0	0	0	0	0	0	0	0	0	0	0	0	0	0	0	0	0	0
070819	17:10:37	17:15:27	289282	5.0.10.0	5_exp_noRW	26	Rpleas_acq	CS_A	ZHHZ	DXXD	YFFY	CPPC	JQQJ	LWWL	vertrauen	küssen	träumen	sonnig	gütig	genießen	versagen	krank	töten	sterben	gierig	gemein	53pct	acq_USpleas_CSpleas2_noRW	acq23456_noRW	2	32	0	0	300	300	588	46	0	0	1	blank2r.bmp	0	1	+	0	1	blank2r.bmp	252	1	DXXD	306	1	sonnig	559	1	FEHLER	1186	0	0	0	0	0	0	0	0	0	0	0	0	0	0	0	0	0	0	0	0	0	0	0	0	0	0	0	0	0	0	0	0	0	0	0	0
070819	17:10:37	17:15:28	290775	5.0.10.0	5_exp_noRW	26	Rpleas_acq	CS_A	ZHHZ	DXXD	YFFY	CPPC	JQQJ	LWWL	vertrauen	küssen	träumen	sonnig	gütig	genießen	versagen	krank	töten	sterben	gierig	gemein	53pct	acq_USpleas_CSpleas2_noRW	acq23456_noRW	2	33	0	0	300	300	541	50	0	1	1	blank2r.bmp	0	1	+	0	1	blank2r.bmp	252	1	DXXD	306	3	genießen	559	0	0	0	0	0	0	0	0	0	0	0	0	0	0	0	0	0	0	0	0	0	0	0	0	0	0	0	0	0	0	0	0	0	0	0	0	0	0	0
070819	17:10:37	17:15:30	292481	5.0.10.0	5_exp_noRW	26	Rpleas_acq	CS_A	ZHHZ	DXXD	YFFY	CPPC	JQQJ	LWWL	vertrauen	küssen	träumen	sonnig	gütig	genießen	versagen	krank	töten	sterben	gierig	gemein	53pct	acq_USpleas_CSpleas2_noRW	acq23456_noRW	2	34	0	0	300	300	523	50	0	1	1	blank2r.bmp	0	1	+	0	1	blank2r.bmp	252	1	DXXD	306	2	gütig	559	0	0	0	0	0	0	0	0	0	0	0	0	0	0	0	0	0	0	0	0	0	0	0	0	0	0	0	0	0	0	0	0	0	0	0	0	0	0	0
070819	17:10:37	17:15:32	294053	5.0.10.0	5_exp_noRW	26	Rpleas_acq	CS_A	ZHHZ	DXXD	YFFY	CPPC	JQQJ	LWWL	vertrauen	küssen	träumen	sonnig	gütig	genießen	versagen	krank	töten	sterben	gierig	gemein	53pct	acq_USpleas_CSpleas1_noRW	acq23456_noRW	2	35	0	0	300	300	388	50	0	1	1	blank2r.bmp	0	1	+	0	1	blank2r.bmp	252	1	ZHHZ	306	3	träumen	559	0	0	0	0	0	0	0	0	0	0	0	0	0	0	0	0	0	0	0	0	0	0	0	0	0	0	0	0	0	0	0	0	0	0	0	0	0	0	0
070819	17:10:37	17:15:34	295893	5.0.10.0	5_exp_noRW	26	Rpleas_acq	CS_A	ZHHZ	DXXD	YFFY	CPPC	JQQJ	LWWL	vertrauen	küssen	träumen	sonnig	gütig	genießen	versagen	krank	töten	sterben	gierig	gemein	47pct	acq_USunple_CSunple1_noRW	acq23456_noRW	2	36	0	0	300	300	671	46	0	1	1	blank2r.bmp	0	1	+	0	1	blank2r.bmp	252	1	YFFY	306	1	versagen	559	0	0	0	0	0	0	0	0	0	0	0	0	0	0	0	0	0	0	0	0	0	0	0	0	0	0	0	0	0	0	0	0	0	0	0	0	0	0	0
070819	17:10:37	17:15:35	297572	5.0.10.0	5_exp_noRW	26	Rpleas_acq	CS_A	ZHHZ	DXXD	YFFY	CPPC	JQQJ	LWWL	vertrauen	küssen	träumen	sonnig	gütig	genießen	versagen	krank	töten	sterben	gierig	gemein	47pct	acq_USunple_CSunple1_noRW	acq23456_noRW	2	37	0	0	300	300	497	46	0	1	1	blank2r.bmp	0	1	+	0	1	blank2r.bmp	252	1	YFFY	306	2	krank	559	0	0	0	0	0	0	0	0	0	0	0	0	0	0	0	0	0	0	0	0	0	0	0	0	0	0	0	0	0	0	0	0	0	0	0	0	0	0	0
070819	17:10:37	17:15:37	299171	5.0.10.0	5_exp_noRW	26	Rpleas_acq	CS_A	ZHHZ	DXXD	YFFY	CPPC	JQQJ	LWWL	vertrauen	küssen	träumen	sonnig	gütig	genießen	versagen	krank	töten	sterben	gierig	gemein	53pct	acq_USunple_CSunple2_noRW	acq23456_noRW	2	38	0	0	300	300	431	46	0	1	1	blank2r.bmp	0	1	+	0	1	blank2r.bmp	252	1	CPPC	306	1	sterben	559	0	0	0	0	0	0	0	0	0	0	0	0	0	0	0	0	0	0	0	0	0	0	0	0	0	0	0	0	0	0	0	0	0	0	0	0	0	0	0
070819	17:10:37	17:15:39	300851	5.0.10.0	5_exp_noRW	26	Rpleas_acq	CS_A	ZHHZ	DXXD	YFFY	CPPC	JQQJ	LWWL	vertrauen	küssen	träumen	sonnig	gütig	genießen	versagen	krank	töten	sterben	gierig	gemein	53pct	acq_USunple_CSpleas2_noRW	acq23456_noRW	2	39	0	0	300	300	500	46	0	1	1	blank2r.bmp	0	1	+	0	1	blank2r.bmp	252	1	DXXD	306	3	gemein	559	0	0	0	0	0	0	0	0	0	0	0	0	0	0	0	0	0	0	0	0	0	0	0	0	0	0	0	0	0	0	0	0	0	0	0	0	0	0	0
070819	17:10:37	17:15:40	302490	5.0.10.0	5_exp_noRW	26	Rpleas_acq	CS_A	ZHHZ	DXXD	YFFY	CPPC	JQQJ	LWWL	vertrauen	küssen	träumen	sonnig	gütig	genießen	versagen	krank	töten	sterben	gierig	gemein	47pct	acq_USunple_CSpleas1_noRW	acq23456_noRW	2	40	0	0	300	300	468	46	0	1	1	blank2r.bmp	0	1	+	0	1	blank2r.bmp	252	1	ZHHZ	306	1	versagen	559	0	0	0	0	0	0	0	0	0	0	0	0	0	0	0	0	0	0	0	0	0	0	0	0	0	0	0	0	0	0	0	0	0	0	0	0	0	0	0
070819	17:10:37	17:15:42	304196	5.0.10.0	5_exp_noRW	26	Rpleas_acq	CS_A	ZHHZ	DXXD	YFFY	CPPC	JQQJ	LWWL	vertrauen	küssen	träumen	sonnig	gütig	genießen	versagen	krank	töten	sterben	gierig	gemein	53pct	acq_USunple_CSunple1_noRW	acq23456_noRW	2	41	0	0	300	300	534	46	0	1	1	blank2r.bmp	0	1	+	0	1	blank2r.bmp	252	1	YFFY	306	3	töten	559	0	0	0	0	0	0	0	0	0	0	0	0	0	0	0	0	0	0	0	0	0	0	0	0	0	0	0	0	0	0	0	0	0	0	0	0	0	0	0
070819	17:10:37	17:15:43	305782	5.0.10.0	5_exp_noRW	26	Rpleas_acq	CS_A	ZHHZ	DXXD	YFFY	CPPC	JQQJ	LWWL	vertrauen	küssen	träumen	sonnig	gütig	genießen	versagen	krank	töten	sterben	gierig	gemein	53pct	acq_USunple_CSunple1_noRW	acq23456_noRW	2	42	0	0	300	300	405	46	0	1	1	blank2r.bmp	0	1	+	0	1	blank2r.bmp	252	1	YFFY	306	2	krank	559	0	0	0	0	0	0	0	0	0	0	0	0	0	0	0	0	0	0	0	0	0	0	0	0	0	0	0	0	0	0	0	0	0	0	0	0	0	0	0
070819	17:10:37	17:15:45	307341	5.0.10.0	5_exp_noRW	26	Rpleas_acq	CS_A	ZHHZ	DXXD	YFFY	CPPC	JQQJ	LWWL	vertrauen	küssen	träumen	sonnig	gütig	genießen	versagen	krank	töten	sterben	gierig	gemein	53pct	acq_USpleas_CSpleas2_noRW	acq23456_noRW	2	43	0	0	300	300	393	50	0	1	1	blank2r.bmp	0	1	+	0	1	blank2r.bmp	252	1	DXXD	306	1	sonnig	559	0	0	0	0	0	0	0	0	0	0	0	0	0	0	0	0	0	0	0	0	0	0	0	0	0	0	0	0	0	0	0	0	0	0	0	0	0	0	0
070819	17:10:37	17:15:47	309074	5.0.10.0	5_exp_noRW	26	Rpleas_acq	CS_A	ZHHZ	DXXD	YFFY	CPPC	JQQJ	LWWL	vertrauen	küssen	träumen	sonnig	gütig	genießen	versagen	krank	töten	sterben	gierig	gemein	53pct	acq_USpleas_CSpleas1_noRW	acq23456_noRW	2	44	0	0	300	300	547	50	0	1	1	blank2r.bmp	0	1	+	0	1	blank2r.bmp	252	1	ZHHZ	306	2	küssen	559	0	0	0	0	0	0	0	0	0	0	0	0	0	0	0	0	0	0	0	0	0	0	0	0	0	0	0	0	0	0	0	0	0	0	0	0	0	0	0
070819	17:10:37	17:15:48	310687	5.0.10.0	5_exp_noRW	26	Rpleas_acq	CS_A	ZHHZ	DXXD	YFFY	CPPC	JQQJ	LWWL	vertrauen	küssen	träumen	sonnig	gütig	genießen	versagen	krank	töten	sterben	gierig	gemein	47pct	acq_USunple_CSpleas2_noRW	acq23456_noRW	2	45	0	0	300	300	448	46	0	1	1	blank2r.bmp	0	1	+	0	1	blank2r.bmp	252	1	DXXD	306	1	sterben	559	0	0	0	0	0	0	0	0	0	0	0	0	0	0	0	0	0	0	0	0	0	0	0	0	0	0	0	0	0	0	0	0	0	0	0	0	0	0	0
070819	17:10:37	17:15:50	312579	5.0.10.0	5_exp_noRW	26	Rpleas_acq	CS_A	ZHHZ	DXXD	YFFY	CPPC	JQQJ	LWWL	vertrauen	küssen	träumen	sonnig	gütig	genießen	versagen	krank	töten	sterben	gierig	gemein	47pct	acq_USunple_CSpleas1_noRW	acq23456_noRW	2	46	0	0	300	300	716	46	0	1	1	blank2r.bmp	0	1	+	0	1	blank2r.bmp	252	1	ZHHZ	306	1	versagen	559	0	0	0	0	0	0	0	0	0	0	0	0	0	0	0	0	0	0	0	0	0	0	0	0	0	0	0	0	0	0	0	0	0	0	0	0	0	0	0
070819	17:10:37	17:15:52	314179	5.0.10.0	5_exp_noRW	26	Rpleas_acq	CS_A	ZHHZ	DXXD	YFFY	CPPC	JQQJ	LWWL	vertrauen	küssen	träumen	sonnig	gütig	genießen	versagen	krank	töten	sterben	gierig	gemein	53pct	acq_USpleas_CSpleas2_noRW	acq23456_noRW	2	47	0	0	300	300	436	50	0	1	1	blank2r.bmp	0	1	+	0	1	blank2r.bmp	252	1	DXXD	306	3	genießen	559	0	0	0	0	0	0	0	0	0	0	0	0	0	0	0	0	0	0	0	0	0	0	0	0	0	0	0	0	0	0	0	0	0	0	0	0	0	0	0
070819	17:10:37	17:15:54	315791	5.0.10.0	5_exp_noRW	26	Rpleas_acq	CS_A	ZHHZ	DXXD	YFFY	CPPC	JQQJ	LWWL	vertrauen	küssen	träumen	sonnig	gütig	genießen	versagen	krank	töten	sterben	gierig	gemein	53pct	acq_USpleas_CSpleas2_noRW	acq23456_noRW	2	48	0	0	300	300	437	50	0	1	1	blank2r.bmp	0	1	+	0	1	blank2r.bmp	252	1	DXXD	306	2	gütig	559	0	0	0	0	0	0	0	0	0	0	0	0	0	0	0	0	0	0	0	0	0	0	0	0	0	0	0	0	0	0	0	0	0	0	0	0	0	0	0
070819	17:10:37	17:15:55	317484	5.0.10.0	5_exp_noRW	26	Rpleas_acq	CS_A	ZHHZ	DXXD	YFFY	CPPC	JQQJ	LWWL	vertrauen	küssen	träumen	sonnig	gütig	genießen	versagen	krank	töten	sterben	gierig	gemein	47pct	acq_USpleas_CSpleas1_noRW	acq23456_noRW	2	49	0	0	300	300	526	50	0	1	1	blank2r.bmp	0	1	+	0	1	blank2r.bmp	252	1	ZHHZ	306	1	vertrauen	559	0	0	0	0	0	0	0	0	0	0	0	0	0	0	0	0	0	0	0	0	0	0	0	0	0	0	0	0	0	0	0	0	0	0	0	0	0	0	0
070819	17:10:37	17:15:57	319257	5.0.10.0	5_exp_noRW	26	Rpleas_acq	CS_A	ZHHZ	DXXD	YFFY	CPPC	JQQJ	LWWL	vertrauen	küssen	träumen	sonnig	gütig	genießen	versagen	krank	töten	sterben	gierig	gemein	47pct	acq_USunple_CSunple1_noRW	acq23456_noRW	2	50	0	0	300	300	589	46	0	1	1	blank2r.bmp	0	1	+	0	1	blank2r.bmp	252	1	YFFY	306	1	versagen	559	0	0	0	0	0	0	0	0	0	0	0	0	0	0	0	0	0	0	0	0	0	0	0	0	0	0	0	0	0	0	0	0	0	0	0	0	0	0	0
070819	17:10:37	17:15:59	320843	5.0.10.0	5_exp_noRW	26	Rpleas_acq	CS_A	ZHHZ	DXXD	YFFY	CPPC	JQQJ	LWWL	vertrauen	küssen	träumen	sonnig	gütig	genießen	versagen	krank	töten	sterben	gierig	gemein	47pct	acq_USunple_CSunple2_noRW	acq23456_noRW	2	51	0	0	300	300	419	46	0	1	1	blank2r.bmp	0	1	+	0	1	blank2r.bmp	252	1	CPPC	306	3	gemein	559	0	0	0	0	0	0	0	0	0	0	0	0	0	0	0	0	0	0	0	0	0	0	0	0	0	0	0	0	0	0	0	0	0	0	0	0	0	0	0
070819	17:10:37	17:16:00	322455	5.0.10.0	5_exp_noRW	26	Rpleas_acq	CS_A	ZHHZ	DXXD	YFFY	CPPC	JQQJ	LWWL	vertrauen	küssen	träumen	sonnig	gütig	genießen	versagen	krank	töten	sterben	gierig	gemein	53pct	acq_USpleas_CSunple2_noRW	acq23456_noRW	2	52	0	0	300	300	430	50	0	1	1	blank2r.bmp	0	1	+	0	1	blank2r.bmp	252	1	CPPC	306	1	sonnig	559	0	0	0	0	0	0	0	0	0	0	0	0	0	0	0	0	0	0	0	0	0	0	0	0	0	0	0	0	0	0	0	0	0	0	0	0	0	0	0
070819	17:10:37	17:16:02	324028	5.0.10.0	5_exp_noRW	26	Rpleas_acq	CS_A	ZHHZ	DXXD	YFFY	CPPC	JQQJ	LWWL	vertrauen	küssen	träumen	sonnig	gütig	genießen	versagen	krank	töten	sterben	gierig	gemein	47pct	acq_USpleas_CSpleas1_noRW	acq23456_noRW	2	53	0	0	300	300	407	50	0	1	1	blank2r.bmp	0	1	+	0	1	blank2r.bmp	252	1	ZHHZ	306	3	träumen	559	0	0	0	0	0	0	0	0	0	0	0	0	0	0	0	0	0	0	0	0	0	0	0	0	0	0	0	0	0	0	0	0	0	0	0	0	0	0	0
070819	17:10:37	17:16:03	325587	5.0.10.0	5_exp_noRW	26	Rpleas_acq	CS_A	ZHHZ	DXXD	YFFY	CPPC	JQQJ	LWWL	vertrauen	küssen	träumen	sonnig	gütig	genießen	versagen	krank	töten	sterben	gierig	gemein	53pct	acq_USpleas_CSpleas1_noRW	acq23456_noRW	2	54	0	0	300	300	392	50	0	1	1	blank2r.bmp	0	1	+	0	1	blank2r.bmp	252	1	ZHHZ	306	1	vertrauen	559	0	0	0	0	0	0	0	0	0	0	0	0	0	0	0	0	0	0	0	0	0	0	0	0	0	0	0	0	0	0	0	0	0	0	0	0	0	0	0
070819	17:10:37	17:16:05	327360	5.0.10.0	5_exp_noRW	26	Rpleas_acq	CS_A	ZHHZ	DXXD	YFFY	CPPC	JQQJ	LWWL	vertrauen	küssen	träumen	sonnig	gütig	genießen	versagen	krank	töten	sterben	gierig	gemein	53pct	acq_USunple_CSunple1_noRW	acq23456_noRW	2	55	0	0	300	300	597	46	0	1	1	blank2r.bmp	0	1	+	0	1	blank2r.bmp	252	1	YFFY	306	1	versagen	559	0	0	0	0	0	0	0	0	0	0	0	0	0	0	0	0	0	0	0	0	0	0	0	0	0	0	0	0	0	0	0	0	0	0	0	0	0	0	0
070819	17:10:37	17:16:07	329119	5.0.10.0	5_exp_noRW	26	Rpleas_acq	CS_A	ZHHZ	DXXD	YFFY	CPPC	JQQJ	LWWL	vertrauen	küssen	träumen	sonnig	gütig	genießen	versagen	krank	töten	sterben	gierig	gemein	47pct	acq_USunple_CSunple2_noRW	acq23456_noRW	2	56	0	0	300	300	583	46	0	1	1	blank2r.bmp	0	1	+	0	1	blank2r.bmp	252	1	CPPC	306	1	sterben	559	0	0	0	0	0	0	0	0	0	0	0	0	0	0	0	0	0	0	0	0	0	0	0	0	0	0	0	0	0	0	0	0	0	0	0	0	0	0	0
070819	17:10:37	17:16:09	330892	5.0.10.0	5_exp_noRW	26	Rpleas_acq	CS_A	ZHHZ	DXXD	YFFY	CPPC	JQQJ	LWWL	vertrauen	küssen	träumen	sonnig	gütig	genießen	versagen	krank	töten	sterben	gierig	gemein	53pct	acq_USunple_CSunple2_noRW	acq23456_noRW	2	57	0	0	300	300	587	46	0	1	1	blank2r.bmp	0	1	+	0	1	blank2r.bmp	252	1	CPPC	306	2	gierig	559	0	0	0	0	0	0	0	0	0	0	0	0	0	0	0	0	0	0	0	0	0	0	0	0	0	0	0	0	0	0	0	0	0	0	0	0	0	0	0
070819	17:10:37	17:16:10	332438	5.0.10.0	5_exp_noRW	26	Rpleas_acq	CS_A	ZHHZ	DXXD	YFFY	CPPC	JQQJ	LWWL	vertrauen	küssen	träumen	sonnig	gütig	genießen	versagen	krank	töten	sterben	gierig	gemein	53pct	acq_USpleas_CSunple1_noRW	acq23456_noRW	2	58	0	0	300	300	379	50	0	1	1	blank2r.bmp	0	1	+	0	1	blank2r.bmp	252	1	YFFY	306	1	vertrauen	559	0	0	0	0	0	0	0	0	0	0	0	0	0	0	0	0	0	0	0	0	0	0	0	0	0	0	0	0	0	0	0	0	0	0	0	0	0	0	0
070819	17:10:37	17:16:12	334104	5.0.10.0	5_exp_noRW	26	Rpleas_acq	CS_A	ZHHZ	DXXD	YFFY	CPPC	JQQJ	LWWL	vertrauen	küssen	träumen	sonnig	gütig	genießen	versagen	krank	töten	sterben	gierig	gemein	47pct	acq_USunple_CSunple2_noRW	acq23456_noRW	2	59	0	0	300	300	501	46	0	1	1	blank2r.bmp	0	1	+	0	1	blank2r.bmp	252	1	CPPC	306	2	gierig	559	0	0	0	0	0	0	0	0	0	0	0	0	0	0	0	0	0	0	0	0	0	0	0	0	0	0	0	0	0	0	0	0	0	0	0	0	0	0	0
070819	17:10:37	17:16:14	335877	5.0.10.0	5_exp_noRW	26	Rpleas_acq	CS_A	ZHHZ	DXXD	YFFY	CPPC	JQQJ	LWWL	vertrauen	küssen	träumen	sonnig	gütig	genießen	versagen	krank	töten	sterben	gierig	gemein	47pct	acq_USpleas_CSpleas2_noRW	acq23456_noRW	2	60	0	0	300	300	592	50	0	1	1	blank2r.bmp	0	1	+	0	1	blank2r.bmp	252	1	DXXD	306	3	genießen	559	0	0	0	0	0	0	0	0	0	0	0	0	0	0	0	0	0	0	0	0	0	0	0	0	0	0	0	0	0	0	0	0	0	0	0	0	0	0	0
070819	17:10:37	17:16:15	337542	5.0.10.0	5_exp_noRW	26	Rpleas_acq	CS_A	ZHHZ	DXXD	YFFY	CPPC	JQQJ	LWWL	vertrauen	küssen	träumen	sonnig	gütig	genießen	versagen	krank	töten	sterben	gierig	gemein	47pct	acq_USpleas_CSpleas1_noRW	acq23456_noRW	2	61	0	0	300	300	481	50	0	1	1	blank2r.bmp	0	1	+	0	1	blank2r.bmp	252	1	ZHHZ	306	2	küssen	559	0	0	0	0	0	0	0	0	0	0	0	0	0	0	0	0	0	0	0	0	0	0	0	0	0	0	0	0	0	0	0	0	0	0	0	0	0	0	0
070819	17:10:37	17:16:17	339208	5.0.10.0	5_exp_noRW	26	Rpleas_acq	CS_A	ZHHZ	DXXD	YFFY	CPPC	JQQJ	LWWL	vertrauen	küssen	träumen	sonnig	gütig	genießen	versagen	krank	töten	sterben	gierig	gemein	47pct	acq_USunple_CSunple1_noRW	acq23456_noRW	2	62	0	0	300	300	502	46	0	1	1	blank2r.bmp	0	1	+	0	1	blank2r.bmp	252	1	YFFY	306	2	krank	559	0	0	0	0	0	0	0	0	0	0	0	0	0	0	0	0	0	0	0	0	0	0	0	0	0	0	0	0	0	0	0	0	0	0	0	0	0	0	0
070819	17:10:37	17:16:19	340795	5.0.10.0	5_exp_noRW	26	Rpleas_acq	CS_A	ZHHZ	DXXD	YFFY	CPPC	JQQJ	LWWL	vertrauen	küssen	träumen	sonnig	gütig	genießen	versagen	krank	töten	sterben	gierig	gemein	47pct	acq_USpleas_CSpleas1_noRW	acq23456_noRW	2	63	0	0	300	300	422	50	0	1	1	blank2r.bmp	0	1	+	0	1	blank2r.bmp	252	1	ZHHZ	306	3	träumen	559	0	0	0	0	0	0	0	0	0	0	0	0	0	0	0	0	0	0	0	0	0	0	0	0	0	0	0	0	0	0	0	0	0	0	0	0	0	0	0
070819	17:10:37	17:16:20	342434	5.0.10.0	5_exp_noRW	26	Rpleas_acq	CS_A	ZHHZ	DXXD	YFFY	CPPC	JQQJ	LWWL	vertrauen	küssen	träumen	sonnig	gütig	genießen	versagen	krank	töten	sterben	gierig	gemein	53pct	acq_USunple_CSunple1_noRW	acq23456_noRW	2	64	0	0	300	300	461	46	0	1	1	blank2r.bmp	0	1	+	0	1	blank2r.bmp	252	1	YFFY	306	3	töten	559	0	0	0	0	0	0	0	0	0	0	0	0	0	0	0	0	0	0	0	0	0	0	0	0	0	0	0	0	0	0	0	0	0	0	0	0	0	0	0
070819	17:10:37	17:16:22	344047	5.0.10.0	5_exp_noRW	26	Rpleas_acq	CS_A	ZHHZ	DXXD	YFFY	CPPC	JQQJ	LWWL	vertrauen	küssen	träumen	sonnig	gütig	genießen	versagen	krank	töten	sterben	gierig	gemein	53pct	acq_USpleas_CSunple1_noRW	acq23456_noRW	2	65	0	0	300	300	426	50	0	1	1	blank2r.bmp	0	1	+	0	1	blank2r.bmp	252	1	YFFY	306	3	träumen	559	0	0	0	0	0	0	0	0	0	0	0	0	0	0	0	0	0	0	0	0	0	0	0	0	0	0	0	0	0	0	0	0	0	0	0	0	0	0	0
070819	17:10:37	17:16:23	345606	5.0.10.0	5_exp_noRW	26	Rpleas_acq	CS_A	ZHHZ	DXXD	YFFY	CPPC	JQQJ	LWWL	vertrauen	küssen	träumen	sonnig	gütig	genießen	versagen	krank	töten	sterben	gierig	gemein	47pct	acq_USunple_CSunple2_noRW	acq23456_noRW	2	66	0	0	300	300	388	46	0	1	1	blank2r.bmp	0	1	+	0	1	blank2r.bmp	252	1	CPPC	306	1	sterben	559	0	0	0	0	0	0	0	0	0	0	0	0	0	0	0	0	0	0	0	0	0	0	0	0	0	0	0	0	0	0	0	0	0	0	0	0	0	0	0
070819	17:10:37	17:16:25	347352	5.0.10.0	5_exp_noRW	26	Rpleas_acq	CS_A	ZHHZ	DXXD	YFFY	CPPC	JQQJ	LWWL	vertrauen	küssen	träumen	sonnig	gütig	genießen	versagen	krank	töten	sterben	gierig	gemein	53pct	acq_USunple_CSunple1_noRW	acq23456_noRW	2	67	0	0	300	300	580	46	0	1	1	blank2r.bmp	0	1	+	0	1	blank2r.bmp	252	1	YFFY	306	1	versagen	559	0	0	0	0	0	0	0	0	0	0	0	0	0	0	0	0	0	0	0	0	0	0	0	0	0	0	0	0	0	0	0	0	0	0	0	0	0	0	0
070819	17:10:37	17:16:27	349084	5.0.10.0	5_exp_noRW	26	Rpleas_acq	CS_A	ZHHZ	DXXD	YFFY	CPPC	JQQJ	LWWL	vertrauen	küssen	träumen	sonnig	gütig	genießen	versagen	krank	töten	sterben	gierig	gemein	53pct	acq_USunple_CSpleas2_noRW	acq23456_noRW	2	68	0	0	300	300	562	46	0	1	1	blank2r.bmp	0	1	+	0	1	blank2r.bmp	252	1	DXXD	306	3	gemein	559	0	0	0	0	0	0	0	0	0	0	0	0	0	0	0	0	0	0	0	0	0	0	0	0	0	0	0	0	0	0	0	0	0	0	0	0	0	0	0
070819	17:10:37	17:16:28	350737	5.0.10.0	5_exp_noRW	26	Rpleas_acq	CS_A	ZHHZ	DXXD	YFFY	CPPC	JQQJ	LWWL	vertrauen	küssen	träumen	sonnig	gütig	genießen	versagen	krank	töten	sterben	gierig	gemein	47pct	acq_USpleas_CSpleas1_noRW	acq23456_noRW	2	69	0	0	300	300	488	50	0	1	1	blank2r.bmp	0	1	+	0	1	blank2r.bmp	252	1	ZHHZ	306	2	küssen	559	0	0	0	0	0	0	0	0	0	0	0	0	0	0	0	0	0	0	0	0	0	0	0	0	0	0	0	0	0	0	0	0	0	0	0	0	0	0	0
070819	17:10:37	17:16:30	352523	5.0.10.0	5_exp_noRW	26	Rpleas_acq	CS_A	ZHHZ	DXXD	YFFY	CPPC	JQQJ	LWWL	vertrauen	küssen	träumen	sonnig	gütig	genießen	versagen	krank	töten	sterben	gierig	gemein	53pct	acq_USpleas_CSpleas2_noRW	acq23456_noRW	2	70	0	0	300	300	615	50	0	1	1	blank2r.bmp	0	1	+	0	1	blank2r.bmp	252	1	DXXD	306	2	gütig	559	0	0	0	0	0	0	0	0	0	0	0	0	0	0	0	0	0	0	0	0	0	0	0	0	0	0	0	0	0	0	0	0	0	0	0	0	0	0	0
070819	17:10:37	17:16:32	354189	5.0.10.0	5_exp_noRW	26	Rpleas_acq	CS_A	ZHHZ	DXXD	YFFY	CPPC	JQQJ	LWWL	vertrauen	küssen	träumen	sonnig	gütig	genießen	versagen	krank	töten	sterben	gierig	gemein	53pct	acq_USpleas_CSunple2_noRW	acq23456_noRW	2	71	0	0	300	300	484	50	0	1	1	blank2r.bmp	0	1	+	0	1	blank2r.bmp	252	1	CPPC	306	3	genießen	559	0	0	0	0	0	0	0	0	0	0	0	0	0	0	0	0	0	0	0	0	0	0	0	0	0	0	0	0	0	0	0	0	0	0	0	0	0	0	0
070819	17:10:37	17:16:34	355802	5.0.10.0	5_exp_noRW	26	Rpleas_acq	CS_A	ZHHZ	DXXD	YFFY	CPPC	JQQJ	LWWL	vertrauen	küssen	träumen	sonnig	gütig	genießen	versagen	krank	töten	sterben	gierig	gemein	53pct	acq_USunple_CSpleas1_noRW	acq23456_noRW	2	72	0	0	300	300	446	46	0	1	1	blank2r.bmp	0	1	+	0	1	blank2r.bmp	252	1	ZHHZ	306	3	töten	559	0	0	0	0	0	0	0	0	0	0	0	0	0	0	0	0	0	0	0	0	0	0	0	0	0	0	0	0	0	0	0	0	0	0	0	0	0	0	0
070819	17:10:37	17:16:35	357428	5.0.10.0	5_exp_noRW	26	Rpleas_acq	CS_A	ZHHZ	DXXD	YFFY	CPPC	JQQJ	LWWL	vertrauen	küssen	träumen	sonnig	gütig	genießen	versagen	krank	töten	sterben	gierig	gemein	53pct	acq_USunple_CSunple2_noRW	acq23456_noRW	2	73	0	0	300	300	449	46	0	1	1	blank2r.bmp	0	1	+	0	1	blank2r.bmp	252	1	CPPC	306	3	gemein	559	0	0	0	0	0	0	0	0	0	0	0	0	0	0	0	0	0	0	0	0	0	0	0	0	0	0	0	0	0	0	0	0	0	0	0	0	0	0	0
070819	17:10:37	17:16:37	359054	5.0.10.0	5_exp_noRW	26	Rpleas_acq	CS_A	ZHHZ	DXXD	YFFY	CPPC	JQQJ	LWWL	vertrauen	küssen	träumen	sonnig	gütig	genießen	versagen	krank	töten	sterben	gierig	gemein	47pct	acq_USpleas_CSpleas2_noRW	acq23456_noRW	2	74	0	0	300	300	460	50	0	1	1	blank2r.bmp	0	1	+	0	1	blank2r.bmp	252	1	DXXD	306	1	sonnig	559	0	0	0	0	0	0	0	0	0	0	0	0	0	0	0	0	0	0	0	0	0	0	0	0	0	0	0	0	0	0	0	0	0	0	0	0	0	0	0
070819	17:10:37	17:16:38	360733	5.0.10.0	5_exp_noRW	26	Rpleas_acq	CS_A	ZHHZ	DXXD	YFFY	CPPC	JQQJ	LWWL	vertrauen	küssen	träumen	sonnig	gütig	genießen	versagen	krank	töten	sterben	gierig	gemein	47pct	acq_USunple_CSunple1_noRW	acq23456_noRW	2	75	0	0	300	300	518	46	0	1	1	blank2r.bmp	0	1	+	0	1	blank2r.bmp	252	1	YFFY	306	3	töten	559	0	0	0	0	0	0	0	0	0	0	0	0	0	0	0	0	0	0	0	0	0	0	0	0	0	0	0	0	0	0	0	0	0	0	0	0	0	0	0
070819	17:10:37	17:16:40	362359	5.0.10.0	5_exp_noRW	26	Rpleas_acq	CS_A	ZHHZ	DXXD	YFFY	CPPC	JQQJ	LWWL	vertrauen	küssen	träumen	sonnig	gütig	genießen	versagen	krank	töten	sterben	gierig	gemein	53pct	acq_USpleas_CSpleas2_noRW	acq23456_noRW	2	76	0	0	300	300	441	50	0	1	1	blank2r.bmp	0	1	+	0	1	blank2r.bmp	252	1	DXXD	306	1	sonnig	559	0	0	0	0	0	0	0	0	0	0	0	0	0	0	0	0	0	0	0	0	0	0	0	0	0	0	0	0	0	0	0	0	0	0	0	0	0	0	0
070819	17:10:37	17:16:42	364025	5.0.10.0	5_exp_noRW	26	Rpleas_acq	CS_A	ZHHZ	DXXD	YFFY	CPPC	JQQJ	LWWL	vertrauen	küssen	träumen	sonnig	gütig	genießen	versagen	krank	töten	sterben	gierig	gemein	53pct	acq_USpleas_CSpleas2_noRW	acq23456_noRW	2	77	0	0	300	300	498	50	0	1	1	blank2r.bmp	0	1	+	0	1	blank2r.bmp	252	1	DXXD	306	2	gütig	559	0	0	0	0	0	0	0	0	0	0	0	0	0	0	0	0	0	0	0	0	0	0	0	0	0	0	0	0	0	0	0	0	0	0	0	0	0	0	0
070819	17:10:37	17:16:43	365704	5.0.10.0	5_exp_noRW	26	Rpleas_acq	CS_A	ZHHZ	DXXD	YFFY	CPPC	JQQJ	LWWL	vertrauen	küssen	träumen	sonnig	gütig	genießen	versagen	krank	töten	sterben	gierig	gemein	53pct	acq_USunple_CSunple2_noRW	acq23456_noRW	2	78	0	0	300	300	495	46	0	1	1	blank2r.bmp	0	1	+	0	1	blank2r.bmp	252	1	CPPC	306	3	gemein	559	0	0	0	0	0	0	0	0	0	0	0	0	0	0	0	0	0	0	0	0	0	0	0	0	0	0	0	0	0	0	0	0	0	0	0	0	0	0	0
070819	17:10:37	17:16:46	367904	5.0.10.0	5_exp_noRW	26	Rpleas_acq	CS_A	ZHHZ	DXXD	YFFY	CPPC	JQQJ	LWWL	vertrauen	küssen	träumen	sonnig	gütig	genießen	versagen	krank	töten	sterben	gierig	gemein	53pct	acq_USunple_CSunple2_noRW	acq23456_noRW	2	79	0	0	300	300	1013	46	0	1	1	blank2r.bmp	0	1	+	0	1	blank2r.bmp	252	1	CPPC	306	2	gierig	559	0	0	0	0	0	0	0	0	0	0	0	0	0	0	0	0	0	0	0	0	0	0	0	0	0	0	0	0	0	0	0	0	0	0	0	0	0	0	0
070819	17:10:37	17:16:47	369569	5.0.10.0	5_exp_noRW	26	Rpleas_acq	CS_A	ZHHZ	DXXD	YFFY	CPPC	JQQJ	LWWL	vertrauen	küssen	träumen	sonnig	gütig	genießen	versagen	krank	töten	sterben	gierig	gemein	53pct	acq_USpleas_CSpleas1_noRW	acq23456_noRW	2	80	0	0	300	300	496	50	0	1	1	blank2r.bmp	0	1	+	0	1	blank2r.bmp	252	1	ZHHZ	306	1	vertrauen	559	0	0	0	0	0	0	0	0	0	0	0	0	0	0	0	0	0	0	0	0	0	0	0	0	0	0	0	0	0	0	0	0	0	0	0	0	0	0	0
070819	17:10:37	17:16:55	377500	5.0.10.0	5_exp_noRW	26	Rpleas_acq	CS_A	ZHHZ	DXXD	YFFY	CPPC	JQQJ	LWWL	vertrauen	küssen	träumen	sonnig	gütig	genießen	versagen	krank	töten	sterben	gierig	gemein	53pct	acq_USpleas_CSunple2_noRW	acq23456_noRW	3	1	0	0	300	300	569	50	0	1	1	blank2r.bmp	0	1	+	0	1	blank2r.bmp	252	1	CPPC	306	2	gütig	559	0	0	0	0	0	0	0	0	0	0	0	0	0	0	0	0	0	0	0	0	0	0	0	0	0	0	0	0	0	0	0	0	0	0	0	0	0	0	0
070819	17:10:37	17:16:57	379112	5.0.10.0	5_exp_noRW	26	Rpleas_acq	CS_A	ZHHZ	DXXD	YFFY	CPPC	JQQJ	LWWL	vertrauen	küssen	träumen	sonnig	gütig	genießen	versagen	krank	töten	sterben	gierig	gemein	47pct	acq_USpleas_CSpleas2_noRW	acq23456_noRW	3	2	0	0	300	300	430	50	0	1	1	blank2r.bmp	0	1	+	0	1	blank2r.bmp	252	1	DXXD	306	3	genießen	559	0	0	0	0	0	0	0	0	0	0	0	0	0	0	0	0	0	0	0	0	0	0	0	0	0	0	0	0	0	0	0	0	0	0	0	0	0	0	0
070819	17:10:37	17:16:58	380712	5.0.10.0	5_exp_noRW	26	Rpleas_acq	CS_A	ZHHZ	DXXD	YFFY	CPPC	JQQJ	LWWL	vertrauen	küssen	träumen	sonnig	gütig	genießen	versagen	krank	töten	sterben	gierig	gemein	47pct	acq_USunple_CSunple1_noRW	acq23456_noRW	3	3	0	0	300	300	437	46	0	1	1	blank2r.bmp	0	1	+	0	1	blank2r.bmp	252	1	YFFY	306	2	krank	559	0	0	0	0	0	0	0	0	0	0	0	0	0	0	0	0	0	0	0	0	0	0	0	0	0	0	0	0	0	0	0	0	0	0	0	0	0	0	0
070819	17:10:37	17:17:00	382338	5.0.10.0	5_exp_noRW	26	Rpleas_acq	CS_A	ZHHZ	DXXD	YFFY	CPPC	JQQJ	LWWL	vertrauen	küssen	träumen	sonnig	gütig	genießen	versagen	krank	töten	sterben	gierig	gemein	47pct	acq_USunple_CSunple1_noRW	acq23456_noRW	3	4	0	0	300	300	451	46	0	1	1	blank2r.bmp	0	1	+	0	1	blank2r.bmp	252	1	YFFY	306	2	krank	559	0	0	0	0	0	0	0	0	0	0	0	0	0	0	0	0	0	0	0	0	0	0	0	0	0	0	0	0	0	0	0	0	0	0	0	0	0	0	0
070819	17:10:37	17:17:02	383870	5.0.10.0	5_exp_noRW	26	Rpleas_acq	CS_A	ZHHZ	DXXD	YFFY	CPPC	JQQJ	LWWL	vertrauen	küssen	träumen	sonnig	gütig	genießen	versagen	krank	töten	sterben	gierig	gemein	47pct	acq_USunple_CSunple2_noRW	acq23456_noRW	3	5	0	0	300	300	349	46	0	1	1	blank2r.bmp	0	1	+	0	1	blank2r.bmp	252	1	CPPC	306	1	sterben	559	0	0	0	0	0	0	0	0	0	0	0	0	0	0	0	0	0	0	0	0	0	0	0	0	0	0	0	0	0	0	0	0	0	0	0	0	0	0	0
070819	17:10:37	17:17:03	385443	5.0.10.0	5_exp_noRW	26	Rpleas_acq	CS_A	ZHHZ	DXXD	YFFY	CPPC	JQQJ	LWWL	vertrauen	küssen	träumen	sonnig	gütig	genießen	versagen	krank	töten	sterben	gierig	gemein	47pct	acq_USunple_CSunple2_noRW	acq23456_noRW	3	6	0	0	300	300	402	46	0	1	1	blank2r.bmp	0	1	+	0	1	blank2r.bmp	252	1	CPPC	306	3	gemein	559	0	0	0	0	0	0	0	0	0	0	0	0	0	0	0	0	0	0	0	0	0	0	0	0	0	0	0	0	0	0	0	0	0	0	0	0	0	0	0
070819	17:10:37	17:17:05	387016	5.0.10.0	5_exp_noRW	26	Rpleas_acq	CS_A	ZHHZ	DXXD	YFFY	CPPC	JQQJ	LWWL	vertrauen	küssen	träumen	sonnig	gütig	genießen	versagen	krank	töten	sterben	gierig	gemein	53pct	acq_USpleas_CSpleas2_noRW	acq23456_noRW	3	7	0	0	300	300	393	50	0	1	1	blank2r.bmp	0	1	+	0	1	blank2r.bmp	252	1	DXXD	306	3	genießen	559	0	0	0	0	0	0	0	0	0	0	0	0	0	0	0	0	0	0	0	0	0	0	0	0	0	0	0	0	0	0	0	0	0	0	0	0	0	0	0
070819	17:10:37	17:17:06	388668	5.0.10.0	5_exp_noRW	26	Rpleas_acq	CS_A	ZHHZ	DXXD	YFFY	CPPC	JQQJ	LWWL	vertrauen	küssen	träumen	sonnig	gütig	genießen	versagen	krank	töten	sterben	gierig	gemein	47pct	acq_USunple_CSunple2_noRW	acq23456_noRW	3	8	0	0	300	300	468	46	0	1	1	blank2r.bmp	0	1	+	0	1	blank2r.bmp	252	1	CPPC	306	2	gierig	559	0	0	0	0	0	0	0	0	0	0	0	0	0	0	0	0	0	0	0	0	0	0	0	0	0	0	0	0	0	0	0	0	0	0	0	0	0	0	0
070819	17:10:37	17:17:08	390414	5.0.10.0	5_exp_noRW	26	Rpleas_acq	CS_A	ZHHZ	DXXD	YFFY	CPPC	JQQJ	LWWL	vertrauen	küssen	träumen	sonnig	gütig	genießen	versagen	krank	töten	sterben	gierig	gemein	47pct	acq_USpleas_CSpleas2_noRW	acq23456_noRW	3	9	0	0	300	300	566	50	0	1	1	blank2r.bmp	0	1	+	0	1	blank2r.bmp	252	1	DXXD	306	2	gütig	559	0	0	0	0	0	0	0	0	0	0	0	0	0	0	0	0	0	0	0	0	0	0	0	0	0	0	0	0	0	0	0	0	0	0	0	0	0	0	0
070819	17:10:37	17:17:10	391974	5.0.10.0	5_exp_noRW	26	Rpleas_acq	CS_A	ZHHZ	DXXD	YFFY	CPPC	JQQJ	LWWL	vertrauen	küssen	träumen	sonnig	gütig	genießen	versagen	krank	töten	sterben	gierig	gemein	47pct	acq_USpleas_CSpleas1_noRW	acq23456_noRW	3	10	0	0	300	300	379	50	0	1	1	blank2r.bmp	0	1	+	0	1	blank2r.bmp	252	1	ZHHZ	306	3	träumen	559	0	0	0	0	0	0	0	0	0	0	0	0	0	0	0	0	0	0	0	0	0	0	0	0	0	0	0	0	0	0	0	0	0	0	0	0	0	0	0
070819	17:10:37	17:17:11	393586	5.0.10.0	5_exp_noRW	26	Rpleas_acq	CS_A	ZHHZ	DXXD	YFFY	CPPC	JQQJ	LWWL	vertrauen	küssen	träumen	sonnig	gütig	genießen	versagen	krank	töten	sterben	gierig	gemein	47pct	acq_USpleas_CSpleas1_noRW	acq23456_noRW	3	11	0	0	300	300	428	50	0	1	1	blank2r.bmp	0	1	+	0	1	blank2r.bmp	252	1	ZHHZ	306	1	vertrauen	559	0	0	0	0	0	0	0	0	0	0	0	0	0	0	0	0	0	0	0	0	0	0	0	0	0	0	0	0	0	0	0	0	0	0	0	0	0	0	0
070819	17:10:37	17:17:13	395252	5.0.10.0	5_exp_noRW	26	Rpleas_acq	CS_A	ZHHZ	DXXD	YFFY	CPPC	JQQJ	LWWL	vertrauen	küssen	träumen	sonnig	gütig	genießen	versagen	krank	töten	sterben	gierig	gemein	53pct	acq_USunple_CSunple1_noRW	acq23456_noRW	3	12	0	0	300	300	490	46	0	1	1	blank2r.bmp	0	1	+	0	1	blank2r.bmp	252	1	YFFY	306	1	versagen	559	0	0	0	0	0	0	0	0	0	0	0	0	0	0	0	0	0	0	0	0	0	0	0	0	0	0	0	0	0	0	0	0	0	0	0	0	0	0	0
070819	17:10:37	17:17:15	396905	5.0.10.0	5_exp_noRW	26	Rpleas_acq	CS_A	ZHHZ	DXXD	YFFY	CPPC	JQQJ	LWWL	vertrauen	küssen	träumen	sonnig	gütig	genießen	versagen	krank	töten	sterben	gierig	gemein	47pct	acq_USunple_CSpleas2_noRW	acq23456_noRW	3	13	0	0	300	300	467	46	0	1	1	blank2r.bmp	0	1	+	0	1	blank2r.bmp	252	1	DXXD	306	2	gierig	559	0	0	0	0	0	0	0	0	0	0	0	0	0	0	0	0	0	0	0	0	0	0	0	0	0	0	0	0	0	0	0	0	0	0	0	0	0	0	0
070819	17:10:37	17:17:16	398464	5.0.10.0	5_exp_noRW	26	Rpleas_acq	CS_A	ZHHZ	DXXD	YFFY	CPPC	JQQJ	LWWL	vertrauen	küssen	träumen	sonnig	gütig	genießen	versagen	krank	töten	sterben	gierig	gemein	47pct	acq_USunple_CSpleas1_noRW	acq23456_noRW	3	14	0	0	300	300	389	46	0	1	1	blank2r.bmp	0	1	+	0	1	blank2r.bmp	252	1	ZHHZ	306	2	krank	559	0	0	0	0	0	0	0	0	0	0	0	0	0	0	0	0	0	0	0	0	0	0	0	0	0	0	0	0	0	0	0	0	0	0	0	0	0	0	0
070819	17:10:37	17:17:18	400104	5.0.10.0	5_exp_noRW	26	Rpleas_acq	CS_A	ZHHZ	DXXD	YFFY	CPPC	JQQJ	LWWL	vertrauen	küssen	träumen	sonnig	gütig	genießen	versagen	krank	töten	sterben	gierig	gemein	47pct	acq_USpleas_CSunple1_noRW	acq23456_noRW	3	15	0	0	300	300	458	50	0	1	1	blank2r.bmp	0	1	+	0	1	blank2r.bmp	252	1	YFFY	306	2	küssen	559	0	0	0	0	0	0	0	0	0	0	0	0	0	0	0	0	0	0	0	0	0	0	0	0	0	0	0	0	0	0	0	0	0	0	0	0	0	0	0
070819	17:10:37	17:17:19	401650	5.0.10.0	5_exp_noRW	26	Rpleas_acq	CS_A	ZHHZ	DXXD	YFFY	CPPC	JQQJ	LWWL	vertrauen	küssen	träumen	sonnig	gütig	genießen	versagen	krank	töten	sterben	gierig	gemein	47pct	acq_USpleas_CSpleas2_noRW	acq23456_noRW	3	16	0	0	300	300	365	50	0	1	1	blank2r.bmp	0	1	+	0	1	blank2r.bmp	252	1	DXXD	306	1	sonnig	559	0	0	0	0	0	0	0	0	0	0	0	0	0	0	0	0	0	0	0	0	0	0	0	0	0	0	0	0	0	0	0	0	0	0	0	0	0	0	0
070819	17:10:37	17:17:21	403169	5.0.10.0	5_exp_noRW	26	Rpleas_acq	CS_A	ZHHZ	DXXD	YFFY	CPPC	JQQJ	LWWL	vertrauen	küssen	träumen	sonnig	gütig	genießen	versagen	krank	töten	sterben	gierig	gemein	53pct	acq_USpleas_CSpleas1_noRW	acq23456_noRW	3	17	0	0	300	300	344	50	0	1	1	blank2r.bmp	0	1	+	0	1	blank2r.bmp	252	1	ZHHZ	306	2	küssen	559	0	0	0	0	0	0	0	0	0	0	0	0	0	0	0	0	0	0	0	0	0	0	0	0	0	0	0	0	0	0	0	0	0	0	0	0	0	0	0
070819	17:10:37	17:17:22	404649	5.0.10.0	5_exp_noRW	26	Rpleas_acq	CS_A	ZHHZ	DXXD	YFFY	CPPC	JQQJ	LWWL	vertrauen	küssen	träumen	sonnig	gütig	genießen	versagen	krank	töten	sterben	gierig	gemein	47pct	acq_USpleas_CSpleas1_noRW	acq23456_noRW	3	18	0	0	300	300	304	50	0	1	1	blank2r.bmp	0	1	+	0	1	blank2r.bmp	252	1	ZHHZ	306	3	träumen	559	0	0	0	0	0	0	0	0	0	0	0	0	0	0	0	0	0	0	0	0	0	0	0	0	0	0	0	0	0	0	0	0	0	0	0	0	0	0	0
070819	17:10:37	17:17:24	406235	5.0.10.0	5_exp_noRW	26	Rpleas_acq	CS_A	ZHHZ	DXXD	YFFY	CPPC	JQQJ	LWWL	vertrauen	küssen	träumen	sonnig	gütig	genießen	versagen	krank	töten	sterben	gierig	gemein	47pct	acq_USunple_CSunple1_noRW	acq23456_noRW	3	19	0	0	300	300	391	46	0	1	1	blank2r.bmp	0	1	+	0	1	blank2r.bmp	252	1	YFFY	306	3	töten	559	0	0	0	0	0	0	0	0	0	0	0	0	0	0	0	0	0	0	0	0	0	0	0	0	0	0	0	0	0	0	0	0	0	0	0	0	0	0	0
070819	17:10:37	17:17:26	408354	5.0.10.0	5_exp_noRW	26	Rpleas_acq	CS_A	ZHHZ	DXXD	YFFY	CPPC	JQQJ	LWWL	vertrauen	küssen	träumen	sonnig	gütig	genießen	versagen	krank	töten	sterben	gierig	gemein	53pct	acq_USunple_CSunple2_noRW	acq23456_noRW	3	20	0	0	300	300	943	46	0	1	1	blank2r.bmp	0	1	+	0	1	blank2r.bmp	252	1	CPPC	306	1	sterben	559	0	0	0	0	0	0	0	0	0	0	0	0	0	0	0	0	0	0	0	0	0	0	0	0	0	0	0	0	0	0	0	0	0	0	0	0	0	0	0
070819	17:10:37	17:17:28	409886	5.0.10.0	5_exp_noRW	26	Rpleas_acq	CS_A	ZHHZ	DXXD	YFFY	CPPC	JQQJ	LWWL	vertrauen	küssen	träumen	sonnig	gütig	genießen	versagen	krank	töten	sterben	gierig	gemein	53pct	acq_USpleas_CSpleas1_noRW	acq23456_noRW	3	21	0	0	300	300	356	50	0	1	1	blank2r.bmp	0	1	+	0	1	blank2r.bmp	252	1	ZHHZ	306	3	träumen	559	0	0	0	0	0	0	0	0	0	0	0	0	0	0	0	0	0	0	0	0	0	0	0	0	0	0	0	0	0	0	0	0	0	0	0	0	0	0	0
070819	17:10:37	17:17:29	411779	5.0.10.0	5_exp_noRW	26	Rpleas_acq	CS_A	ZHHZ	DXXD	YFFY	CPPC	JQQJ	LWWL	vertrauen	küssen	träumen	sonnig	gütig	genießen	versagen	krank	töten	sterben	gierig	gemein	53pct	acq_USpleas_CSpleas1_noRW	acq23456_noRW	3	22	0	0	300	300	706	50	0	1	1	blank2r.bmp	0	1	+	0	1	blank2r.bmp	252	1	ZHHZ	306	1	vertrauen	559	0	0	0	0	0	0	0	0	0	0	0	0	0	0	0	0	0	0	0	0	0	0	0	0	0	0	0	0	0	0	0	0	0	0	0	0	0	0	0
070819	17:10:37	17:17:31	413578	5.0.10.0	5_exp_noRW	26	Rpleas_acq	CS_A	ZHHZ	DXXD	YFFY	CPPC	JQQJ	LWWL	vertrauen	küssen	träumen	sonnig	gütig	genießen	versagen	krank	töten	sterben	gierig	gemein	53pct	acq_USunple_CSunple1_noRW	acq23456_noRW	3	23	0	0	300	300	626	46	0	1	1	blank2r.bmp	0	1	+	0	1	blank2r.bmp	252	1	YFFY	306	1	versagen	559	0	0	0	0	0	0	0	0	0	0	0	0	0	0	0	0	0	0	0	0	0	0	0	0	0	0	0	0	0	0	0	0	0	0	0	0	0	0	0
070819	17:10:37	17:17:33	415164	5.0.10.0	5_exp_noRW	26	Rpleas_acq	CS_A	ZHHZ	DXXD	YFFY	CPPC	JQQJ	LWWL	vertrauen	küssen	träumen	sonnig	gütig	genießen	versagen	krank	töten	sterben	gierig	gemein	47pct	acq_USpleas_CSpleas2_noRW	acq23456_noRW	3	24	0	0	300	300	414	50	0	1	1	blank2r.bmp	0	1	+	0	1	blank2r.bmp	252	1	DXXD	306	2	gütig	559	0	0	0	0	0	0	0	0	0	0	0	0	0	0	0	0	0	0	0	0	0	0	0	0	0	0	0	0	0	0	0	0	0	0	0	0	0	0	0
070819	17:10:37	17:17:35	416857	5.0.10.0	5_exp_noRW	26	Rpleas_acq	CS_A	ZHHZ	DXXD	YFFY	CPPC	JQQJ	LWWL	vertrauen	küssen	träumen	sonnig	gütig	genießen	versagen	krank	töten	sterben	gierig	gemein	47pct	acq_USpleas_CSpleas2_noRW	acq23456_noRW	3	25	0	0	300	300	519	50	0	1	1	blank2r.bmp	0	1	+	0	1	blank2r.bmp	252	1	DXXD	306	1	sonnig	559	0	0	0	0	0	0	0	0	0	0	0	0	0	0	0	0	0	0	0	0	0	0	0	0	0	0	0	0	0	0	0	0	0	0	0	0	0	0	0
070819	17:10:37	17:17:36	418443	5.0.10.0	5_exp_noRW	26	Rpleas_acq	CS_A	ZHHZ	DXXD	YFFY	CPPC	JQQJ	LWWL	vertrauen	küssen	träumen	sonnig	gütig	genießen	versagen	krank	töten	sterben	gierig	gemein	47pct	acq_USpleas_CSpleas2_noRW	acq23456_noRW	3	26	0	0	300	300	421	50	0	1	1	blank2r.bmp	0	1	+	0	1	blank2r.bmp	252	1	DXXD	306	3	genießen	559	0	0	0	0	0	0	0	0	0	0	0	0	0	0	0	0	0	0	0	0	0	0	0	0	0	0	0	0	0	0	0	0	0	0	0	0	0	0	0
070819	17:10:37	17:17:38	419976	5.0.10.0	5_exp_noRW	26	Rpleas_acq	CS_A	ZHHZ	DXXD	YFFY	CPPC	JQQJ	LWWL	vertrauen	küssen	träumen	sonnig	gütig	genießen	versagen	krank	töten	sterben	gierig	gemein	53pct	acq_USpleas_CSpleas1_noRW	acq23456_noRW	3	27	0	0	300	300	350	50	0	1	1	blank2r.bmp	0	1	+	0	1	blank2r.bmp	252	1	ZHHZ	306	2	küssen	559	0	0	0	0	0	0	0	0	0	0	0	0	0	0	0	0	0	0	0	0	0	0	0	0	0	0	0	0	0	0	0	0	0	0	0	0	0	0	0
070819	17:10:37	17:17:39	421575	5.0.10.0	5_exp_noRW	26	Rpleas_acq	CS_A	ZHHZ	DXXD	YFFY	CPPC	JQQJ	LWWL	vertrauen	küssen	träumen	sonnig	gütig	genießen	versagen	krank	töten	sterben	gierig	gemein	53pct	acq_USunple_CSunple2_noRW	acq23456_noRW	3	28	0	0	300	300	423	46	0	1	1	blank2r.bmp	0	1	+	0	1	blank2r.bmp	252	1	CPPC	306	1	sterben	559	0	0	0	0	0	0	0	0	0	0	0	0	0	0	0	0	0	0	0	0	0	0	0	0	0	0	0	0	0	0	0	0	0	0	0	0	0	0	0
070819	17:10:37	17:17:41	423308	5.0.10.0	5_exp_noRW	26	Rpleas_acq	CS_A	ZHHZ	DXXD	YFFY	CPPC	JQQJ	LWWL	vertrauen	küssen	träumen	sonnig	gütig	genießen	versagen	krank	töten	sterben	gierig	gemein	53pct	acq_USunple_CSunple2_noRW	acq23456_noRW	3	29	0	0	300	300	571	46	0	1	1	blank2r.bmp	0	1	+	0	1	blank2r.bmp	252	1	CPPC	306	2	gierig	559	0	0	0	0	0	0	0	0	0	0	0	0	0	0	0	0	0	0	0	0	0	0	0	0	0	0	0	0	0	0	0	0	0	0	0	0	0	0	0
070819	17:10:37	17:17:43	424867	5.0.10.0	5_exp_noRW	26	Rpleas_acq	CS_A	ZHHZ	DXXD	YFFY	CPPC	JQQJ	LWWL	vertrauen	küssen	träumen	sonnig	gütig	genießen	versagen	krank	töten	sterben	gierig	gemein	53pct	acq_USunple_CSunple1_noRW	acq23456_noRW	3	30	0	0	300	300	382	46	0	1	1	blank2r.bmp	0	1	+	0	1	blank2r.bmp	252	1	YFFY	306	3	töten	559	0	0	0	0	0	0	0	0	0	0	0	0	0	0	0	0	0	0	0	0	0	0	0	0	0	0	0	0	0	0	0	0	0	0	0	0	0	0	0
070819	17:10:37	17:17:44	426413	5.0.10.0	5_exp_noRW	26	Rpleas_acq	CS_A	ZHHZ	DXXD	YFFY	CPPC	JQQJ	LWWL	vertrauen	küssen	träumen	sonnig	gütig	genießen	versagen	krank	töten	sterben	gierig	gemein	47pct	acq_USpleas_CSpleas1_noRW	acq23456_noRW	3	31	0	0	300	300	372	50	0	1	1	blank2r.bmp	0	1	+	0	1	blank2r.bmp	252	1	ZHHZ	306	2	küssen	559	0	0	0	0	0	0	0	0	0	0	0	0	0	0	0	0	0	0	0	0	0	0	0	0	0	0	0	0	0	0	0	0	0	0	0	0	0	0	0
070819	17:10:37	17:17:46	427999	5.0.10.0	5_exp_noRW	26	Rpleas_acq	CS_A	ZHHZ	DXXD	YFFY	CPPC	JQQJ	LWWL	vertrauen	küssen	träumen	sonnig	gütig	genießen	versagen	krank	töten	sterben	gierig	gemein	53pct	acq_USunple_CSpleas1_noRW	acq23456_noRW	3	32	0	0	300	300	413	46	0	1	1	blank2r.bmp	0	1	+	0	1	blank2r.bmp	252	1	ZHHZ	306	2	krank	559	0	0	0	0	0	0	0	0	0	0	0	0	0	0	0	0	0	0	0	0	0	0	0	0	0	0	0	0	0	0	0	0	0	0	0	0	0	0	0
070819	17:10:37	17:17:47	429532	5.0.10.0	5_exp_noRW	26	Rpleas_acq	CS_A	ZHHZ	DXXD	YFFY	CPPC	JQQJ	LWWL	vertrauen	küssen	träumen	sonnig	gütig	genießen	versagen	krank	töten	sterben	gierig	gemein	53pct	acq_USpleas_CSunple1_noRW	acq23456_noRW	3	33	0	0	300	300	347	50	0	1	1	blank2r.bmp	0	1	+	0	1	blank2r.bmp	252	1	YFFY	306	3	träumen	559	0	0	0	0	0	0	0	0	0	0	0	0	0	0	0	0	0	0	0	0	0	0	0	0	0	0	0	0	0	0	0	0	0	0	0	0	0	0	0
070819	17:10:37	17:17:49	431185	5.0.10.0	5_exp_noRW	26	Rpleas_acq	CS_A	ZHHZ	DXXD	YFFY	CPPC	JQQJ	LWWL	vertrauen	küssen	träumen	sonnig	gütig	genießen	versagen	krank	töten	sterben	gierig	gemein	47pct	acq_USunple_CSunple2_noRW	acq23456_noRW	3	34	0	0	300	300	487	46	0	1	1	blank2r.bmp	0	1	+	0	1	blank2r.bmp	252	1	CPPC	306	3	gemein	559	0	0	0	0	0	0	0	0	0	0	0	0	0	0	0	0	0	0	0	0	0	0	0	0	0	0	0	0	0	0	0	0	0	0	0	0	0	0	0
070819	17:10:37	17:17:50	432744	5.0.10.0	5_exp_noRW	26	Rpleas_acq	CS_A	ZHHZ	DXXD	YFFY	CPPC	JQQJ	LWWL	vertrauen	küssen	träumen	sonnig	gütig	genießen	versagen	krank	töten	sterben	gierig	gemein	53pct	acq_USpleas_CSunple2_noRW	acq23456_noRW	3	35	0	0	300	300	397	50	0	1	1	blank2r.bmp	0	1	+	0	1	blank2r.bmp	252	1	CPPC	306	1	sonnig	559	0	0	0	0	0	0	0	0	0	0	0	0	0	0	0	0	0	0	0	0	0	0	0	0	0	0	0	0	0	0	0	0	0	0	0	0	0	0	0
070819	17:10:37	17:17:52	434290	5.0.10.0	5_exp_noRW	26	Rpleas_acq	CS_A	ZHHZ	DXXD	YFFY	CPPC	JQQJ	LWWL	vertrauen	küssen	träumen	sonnig	gütig	genießen	versagen	krank	töten	sterben	gierig	gemein	53pct	acq_USunple_CSunple1_noRW	acq23456_noRW	3	36	0	0	300	300	378	46	0	1	1	blank2r.bmp	0	1	+	0	1	blank2r.bmp	252	1	YFFY	306	2	krank	559	0	0	0	0	0	0	0	0	0	0	0	0	0	0	0	0	0	0	0	0	0	0	0	0	0	0	0	0	0	0	0	0	0	0	0	0	0	0	0
070819	17:10:37	17:17:54	436089	5.0.10.0	5_exp_noRW	26	Rpleas_acq	CS_A	ZHHZ	DXXD	YFFY	CPPC	JQQJ	LWWL	vertrauen	küssen	träumen	sonnig	gütig	genießen	versagen	krank	töten	sterben	gierig	gemein	47pct	acq_USunple_CSunple1_noRW	acq23456_noRW	3	37	0	0	300	300	421	50	0	0	1	blank2r.bmp	0	1	+	0	1	blank2r.bmp	252	1	YFFY	306	1	versagen	559	1	FEHLER	1012	0	0	0	0	0	0	0	0	0	0	0	0	0	0	0	0	0	0	0	0	0	0	0	0	0	0	0	0	0	0	0	0	0	0	0	0
070819	17:10:37	17:17:55	437582	5.0.10.0	5_exp_noRW	26	Rpleas_acq	CS_A	ZHHZ	DXXD	YFFY	CPPC	JQQJ	LWWL	vertrauen	küssen	träumen	sonnig	gütig	genießen	versagen	krank	töten	sterben	gierig	gemein	53pct	acq_USunple_CSunple2_noRW	acq23456_noRW	3	38	0	0	300	300	520	46	0	1	1	blank2r.bmp	0	1	+	0	1	blank2r.bmp	252	1	CPPC	306	2	gierig	559	0	0	0	0	0	0	0	0	0	0	0	0	0	0	0	0	0	0	0	0	0	0	0	0	0	0	0	0	0	0	0	0	0	0	0	0	0	0	0
070819	17:10:37	17:17:57	439248	5.0.10.0	5_exp_noRW	26	Rpleas_acq	CS_A	ZHHZ	DXXD	YFFY	CPPC	JQQJ	LWWL	vertrauen	küssen	träumen	sonnig	gütig	genießen	versagen	krank	töten	sterben	gierig	gemein	47pct	acq_USunple_CSpleas2_noRW	acq23456_noRW	3	39	0	0	300	300	492	46	0	1	1	blank2r.bmp	0	1	+	0	1	blank2r.bmp	252	1	DXXD	306	3	gemein	559	0	0	0	0	0	0	0	0	0	0	0	0	0	0	0	0	0	0	0	0	0	0	0	0	0	0	0	0	0	0	0	0	0	0	0	0	0	0	0
070819	17:10:37	17:17:59	440861	5.0.10.0	5_exp_noRW	26	Rpleas_acq	CS_A	ZHHZ	DXXD	YFFY	CPPC	JQQJ	LWWL	vertrauen	küssen	träumen	sonnig	gütig	genießen	versagen	krank	töten	sterben	gierig	gemein	47pct	acq_USpleas_CSpleas2_noRW	acq23456_noRW	3	40	0	0	300	300	451	50	0	1	1	blank2r.bmp	0	1	+	0	1	blank2r.bmp	252	1	DXXD	306	2	gütig	559	0	0	0	0	0	0	0	0	0	0	0	0	0	0	0	0	0	0	0	0	0	0	0	0	0	0	0	0	0	0	0	0	0	0	0	0	0	0	0
070819	17:10:37	17:18:00	442527	5.0.10.0	5_exp_noRW	26	Rpleas_acq	CS_A	ZHHZ	DXXD	YFFY	CPPC	JQQJ	LWWL	vertrauen	küssen	träumen	sonnig	gütig	genießen	versagen	krank	töten	sterben	gierig	gemein	53pct	acq_USunple_CSunple2_noRW	acq23456_noRW	3	41	0	0	300	300	489	46	0	1	1	blank2r.bmp	0	1	+	0	1	blank2r.bmp	252	1	CPPC	306	1	sterben	559	0	0	0	0	0	0	0	0	0	0	0	0	0	0	0	0	0	0	0	0	0	0	0	0	0	0	0	0	0	0	0	0	0	0	0	0	0	0	0
070819	17:10:37	17:18:02	444273	5.0.10.0	5_exp_noRW	26	Rpleas_acq	CS_A	ZHHZ	DXXD	YFFY	CPPC	JQQJ	LWWL	vertrauen	küssen	träumen	sonnig	gütig	genießen	versagen	krank	töten	sterben	gierig	gemein	47pct	acq_USunple_CSunple2_noRW	acq23456_noRW	3	42	0	0	300	300	573	46	0	1	1	blank2r.bmp	0	1	+	0	1	blank2r.bmp	252	1	CPPC	306	3	gemein	559	0	0	0	0	0	0	0	0	0	0	0	0	0	0	0	0	0	0	0	0	0	0	0	0	0	0	0	0	0	0	0	0	0	0	0	0	0	0	0
070819	17:10:37	17:18:04	445819	5.0.10.0	5_exp_noRW	26	Rpleas_acq	CS_A	ZHHZ	DXXD	YFFY	CPPC	JQQJ	LWWL	vertrauen	küssen	träumen	sonnig	gütig	genießen	versagen	krank	töten	sterben	gierig	gemein	53pct	acq_USpleas_CSunple1_noRW	acq23456_noRW	3	43	0	0	300	300	383	50	0	1	1	blank2r.bmp	0	1	+	0	1	blank2r.bmp	252	1	YFFY	306	1	vertrauen	559	0	0	0	0	0	0	0	0	0	0	0	0	0	0	0	0	0	0	0	0	0	0	0	0	0	0	0	0	0	0	0	0	0	0	0	0	0	0	0
070819	17:10:37	17:18:05	447498	5.0.10.0	5_exp_noRW	26	Rpleas_acq	CS_A	ZHHZ	DXXD	YFFY	CPPC	JQQJ	LWWL	vertrauen	küssen	träumen	sonnig	gütig	genießen	versagen	krank	töten	sterben	gierig	gemein	53pct	acq_USunple_CSunple2_noRW	acq23456_noRW	3	44	0	0	300	300	500	46	0	1	1	blank2r.bmp	0	1	+	0	1	blank2r.bmp	252	1	CPPC	306	3	gemein	559	0	0	0	0	0	0	0	0	0	0	0	0	0	0	0	0	0	0	0	0	0	0	0	0	0	0	0	0	0	0	0	0	0	0	0	0	0	0	0
070819	17:10:37	17:18:07	449124	5.0.10.0	5_exp_noRW	26	Rpleas_acq	CS_A	ZHHZ	DXXD	YFFY	CPPC	JQQJ	LWWL	vertrauen	küssen	träumen	sonnig	gütig	genießen	versagen	krank	töten	sterben	gierig	gemein	47pct	acq_USpleas_CSpleas2_noRW	acq23456_noRW	3	45	0	0	300	300	451	50	0	1	1	blank2r.bmp	0	1	+	0	1	blank2r.bmp	252	1	DXXD	306	3	genießen	559	0	0	0	0	0	0	0	0	0	0	0	0	0	0	0	0	0	0	0	0	0	0	0	0	0	0	0	0	0	0	0	0	0	0	0	0	0	0	0
070819	17:10:37	17:18:09	450843	5.0.10.0	5_exp_noRW	26	Rpleas_acq	CS_A	ZHHZ	DXXD	YFFY	CPPC	JQQJ	LWWL	vertrauen	küssen	träumen	sonnig	gütig	genießen	versagen	krank	töten	sterben	gierig	gemein	53pct	acq_USunple_CSunple1_noRW	acq23456_noRW	3	46	0	0	300	300	526	46	0	1	1	blank2r.bmp	0	1	+	0	1	blank2r.bmp	252	1	YFFY	306	3	töten	559	0	0	0	0	0	0	0	0	0	0	0	0	0	0	0	0	0	0	0	0	0	0	0	0	0	0	0	0	0	0	0	0	0	0	0	0	0	0	0
070819	17:10:37	17:18:10	452509	5.0.10.0	5_exp_noRW	26	Rpleas_acq	CS_A	ZHHZ	DXXD	YFFY	CPPC	JQQJ	LWWL	vertrauen	küssen	träumen	sonnig	gütig	genießen	versagen	krank	töten	sterben	gierig	gemein	53pct	acq_USpleas_CSpleas2_noRW	acq23456_noRW	3	47	0	0	300	300	496	50	0	1	1	blank2r.bmp	0	1	+	0	1	blank2r.bmp	252	1	DXXD	306	1	sonnig	559	0	0	0	0	0	0	0	0	0	0	0	0	0	0	0	0	0	0	0	0	0	0	0	0	0	0	0	0	0	0	0	0	0	0	0	0	0	0	0
070819	17:10:37	17:18:12	454188	5.0.10.0	5_exp_noRW	26	Rpleas_acq	CS_A	ZHHZ	DXXD	YFFY	CPPC	JQQJ	LWWL	vertrauen	küssen	träumen	sonnig	gütig	genießen	versagen	krank	töten	sterben	gierig	gemein	47pct	acq_USunple_CSunple1_noRW	acq23456_noRW	3	48	0	0	300	300	505	46	0	1	1	blank2r.bmp	0	1	+	0	1	blank2r.bmp	252	1	YFFY	306	2	krank	559	0	0	0	0	0	0	0	0	0	0	0	0	0	0	0	0	0	0	0	0	0	0	0	0	0	0	0	0	0	0	0	0	0	0	0	0	0	0	0
070819	17:10:37	17:18:13	455708	5.0.10.0	5_exp_noRW	26	Rpleas_acq	CS_A	ZHHZ	DXXD	YFFY	CPPC	JQQJ	LWWL	vertrauen	küssen	träumen	sonnig	gütig	genießen	versagen	krank	töten	sterben	gierig	gemein	53pct	acq_USunple_CSunple1_noRW	acq23456_noRW	3	49	0	0	300	300	356	46	0	1	1	blank2r.bmp	0	1	+	0	1	blank2r.bmp	252	1	YFFY	306	3	töten	559	0	0	0	0	0	0	0	0	0	0	0	0	0	0	0	0	0	0	0	0	0	0	0	0	0	0	0	0	0	0	0	0	0	0	0	0	0	0	0
070819	17:10:37	17:18:15	457401	5.0.10.0	5_exp_noRW	26	Rpleas_acq	CS_A	ZHHZ	DXXD	YFFY	CPPC	JQQJ	LWWL	vertrauen	küssen	träumen	sonnig	gütig	genießen	versagen	krank	töten	sterben	gierig	gemein	53pct	acq_USpleas_CSunple2_noRW	acq23456_noRW	3	50	0	0	300	300	315	46	0	0	1	blank2r.bmp	0	1	+	0	1	blank2r.bmp	252	1	CPPC	306	2	gütig	559	1	FEHLER	906	0	0	0	0	0	0	0	0	0	0	0	0	0	0	0	0	0	0	0	0	0	0	0	0	0	0	0	0	0	0	0	0	0	0	0	0
070819	17:10:37	17:18:17	459013	5.0.10.0	5_exp_noRW	26	Rpleas_acq	CS_A	ZHHZ	DXXD	YFFY	CPPC	JQQJ	LWWL	vertrauen	küssen	träumen	sonnig	gütig	genießen	versagen	krank	töten	sterben	gierig	gemein	53pct	acq_USunple_CSpleas1_noRW	acq23456_noRW	3	51	0	0	300	300	644	46	0	1	1	blank2r.bmp	0	1	+	0	1	blank2r.bmp	252	1	ZHHZ	306	1	versagen	559	0	0	0	0	0	0	0	0	0	0	0	0	0	0	0	0	0	0	0	0	0	0	0	0	0	0	0	0	0	0	0	0	0	0	0	0	0	0	0
070819	17:10:37	17:18:18	460679	5.0.10.0	5_exp_noRW	26	Rpleas_acq	CS_A	ZHHZ	DXXD	YFFY	CPPC	JQQJ	LWWL	vertrauen	küssen	träumen	sonnig	gütig	genießen	versagen	krank	töten	sterben	gierig	gemein	47pct	acq_USunple_CSunple1_noRW	acq23456_noRW	3	52	0	0	300	300	492	46	0	1	1	blank2r.bmp	0	1	+	0	1	blank2r.bmp	252	1	YFFY	306	1	versagen	559	0	0	0	0	0	0	0	0	0	0	0	0	0	0	0	0	0	0	0	0	0	0	0	0	0	0	0	0	0	0	0	0	0	0	0	0	0	0	0
070819	17:10:37	17:18:20	462345	5.0.10.0	5_exp_noRW	26	Rpleas_acq	CS_A	ZHHZ	DXXD	YFFY	CPPC	JQQJ	LWWL	vertrauen	küssen	träumen	sonnig	gütig	genießen	versagen	krank	töten	sterben	gierig	gemein	47pct	acq_USunple_CSunple2_noRW	acq23456_noRW	3	53	0	0	300	300	502	46	0	1	1	blank2r.bmp	0	1	+	0	1	blank2r.bmp	252	1	CPPC	306	2	gierig	559	0	0	0	0	0	0	0	0	0	0	0	0	0	0	0	0	0	0	0	0	0	0	0	0	0	0	0	0	0	0	0	0	0	0	0	0	0	0	0
070819	17:10:37	17:18:22	463945	5.0.10.0	5_exp_noRW	26	Rpleas_acq	CS_A	ZHHZ	DXXD	YFFY	CPPC	JQQJ	LWWL	vertrauen	küssen	träumen	sonnig	gütig	genießen	versagen	krank	töten	sterben	gierig	gemein	53pct	acq_USpleas_CSpleas1_noRW	acq23456_noRW	3	54	0	0	300	300	418	50	0	1	1	blank2r.bmp	0	1	+	0	1	blank2r.bmp	252	1	ZHHZ	306	1	vertrauen	559	0	0	0	0	0	0	0	0	0	0	0	0	0	0	0	0	0	0	0	0	0	0	0	0	0	0	0	0	0	0	0	0	0	0	0	0	0	0	0
070819	17:10:37	17:18:23	465517	5.0.10.0	5_exp_noRW	26	Rpleas_acq	CS_A	ZHHZ	DXXD	YFFY	CPPC	JQQJ	LWWL	vertrauen	küssen	träumen	sonnig	gütig	genießen	versagen	krank	töten	sterben	gierig	gemein	53pct	acq_USpleas_CSpleas1_noRW	acq23456_noRW	3	55	0	0	300	300	399	50	0	1	1	blank2r.bmp	0	1	+	0	1	blank2r.bmp	252	1	ZHHZ	306	3	träumen	559	0	0	0	0	0	0	0	0	0	0	0	0	0	0	0	0	0	0	0	0	0	0	0	0	0	0	0	0	0	0	0	0	0	0	0	0	0	0	0
070819	17:10:37	17:18:25	467117	5.0.10.0	5_exp_noRW	26	Rpleas_acq	CS_A	ZHHZ	DXXD	YFFY	CPPC	JQQJ	LWWL	vertrauen	küssen	träumen	sonnig	gütig	genießen	versagen	krank	töten	sterben	gierig	gemein	53pct	acq_USpleas_CSpleas2_noRW	acq23456_noRW	3	56	0	0	300	300	418	50	0	1	1	blank2r.bmp	0	1	+	0	1	blank2r.bmp	252	1	DXXD	306	3	genießen	559	0	0	0	0	0	0	0	0	0	0	0	0	0	0	0	0	0	0	0	0	0	0	0	0	0	0	0	0	0	0	0	0	0	0	0	0	0	0	0
070819	17:10:37	17:18:26	468756	5.0.10.0	5_exp_noRW	26	Rpleas_acq	CS_A	ZHHZ	DXXD	YFFY	CPPC	JQQJ	LWWL	vertrauen	küssen	träumen	sonnig	gütig	genießen	versagen	krank	töten	sterben	gierig	gemein	53pct	acq_USunple_CSpleas2_noRW	acq23456_noRW	3	57	0	0	300	300	452	46	0	1	1	blank2r.bmp	0	1	+	0	1	blank2r.bmp	252	1	DXXD	306	2	gierig	559	0	0	0	0	0	0	0	0	0	0	0	0	0	0	0	0	0	0	0	0	0	0	0	0	0	0	0	0	0	0	0	0	0	0	0	0	0	0	0
070819	17:10:37	17:18:28	470342	5.0.10.0	5_exp_noRW	26	Rpleas_acq	CS_A	ZHHZ	DXXD	YFFY	CPPC	JQQJ	LWWL	vertrauen	küssen	träumen	sonnig	gütig	genießen	versagen	krank	töten	sterben	gierig	gemein	47pct	acq_USpleas_CSpleas1_noRW	acq23456_noRW	3	58	0	0	300	300	418	50	0	1	1	blank2r.bmp	0	1	+	0	1	blank2r.bmp	252	1	ZHHZ	306	3	träumen	559	0	0	0	0	0	0	0	0	0	0	0	0	0	0	0	0	0	0	0	0	0	0	0	0	0	0	0	0	0	0	0	0	0	0	0	0	0	0	0
070819	17:10:37	17:18:30	472275	5.0.10.0	5_exp_noRW	26	Rpleas_acq	CS_A	ZHHZ	DXXD	YFFY	CPPC	JQQJ	LWWL	vertrauen	küssen	träumen	sonnig	gütig	genießen	versagen	krank	töten	sterben	gierig	gemein	47pct	acq_USpleas_CSpleas2_noRW	acq23456_noRW	3	59	0	0	300	300	551	46	0	0	1	blank2r.bmp	0	1	+	0	1	blank2r.bmp	252	1	DXXD	306	2	gütig	559	1	FEHLER	1146	0	0	0	0	0	0	0	0	0	0	0	0	0	0	0	0	0	0	0	0	0	0	0	0	0	0	0	0	0	0	0	0	0	0	0	0
070819	17:10:37	17:18:31	473687	5.0.10.0	5_exp_noRW	26	Rpleas_acq	CS_A	ZHHZ	DXXD	YFFY	CPPC	JQQJ	LWWL	vertrauen	küssen	träumen	sonnig	gütig	genießen	versagen	krank	töten	sterben	gierig	gemein	47pct	acq_USpleas_CSpleas1_noRW	acq23456_noRW	3	60	0	0	300	300	457	50	0	1	1	blank2r.bmp	0	1	+	0	1	blank2r.bmp	252	1	ZHHZ	306	2	küssen	559	0	0	0	0	0	0	0	0	0	0	0	0	0	0	0	0	0	0	0	0	0	0	0	0	0	0	0	0	0	0	0	0	0	0	0	0	0	0	0
070819	17:10:37	17:18:33	475353	5.0.10.0	5_exp_noRW	26	Rpleas_acq	CS_A	ZHHZ	DXXD	YFFY	CPPC	JQQJ	LWWL	vertrauen	küssen	träumen	sonnig	gütig	genießen	versagen	krank	töten	sterben	gierig	gemein	47pct	acq_USunple_CSunple1_noRW	acq23456_noRW	3	61	0	0	300	300	490	46	0	1	1	blank2r.bmp	0	1	+	0	1	blank2r.bmp	252	1	YFFY	306	2	krank	559	0	0	0	0	0	0	0	0	0	0	0	0	0	0	0	0	0	0	0	0	0	0	0	0	0	0	0	0	0	0	0	0	0	0	0	0	0	0	0
070819	17:10:37	17:18:35	477086	5.0.10.0	5_exp_noRW	26	Rpleas_acq	CS_A	ZHHZ	DXXD	YFFY	CPPC	JQQJ	LWWL	vertrauen	küssen	träumen	sonnig	gütig	genießen	versagen	krank	töten	sterben	gierig	gemein	53pct	acq_USunple_CSpleas1_noRW	acq23456_noRW	3	62	0	0	300	300	556	46	0	1	1	blank2r.bmp	0	1	+	0	1	blank2r.bmp	252	1	ZHHZ	306	3	töten	559	0	0	0	0	0	0	0	0	0	0	0	0	0	0	0	0	0	0	0	0	0	0	0	0	0	0	0	0	0	0	0	0	0	0	0	0	0	0	0
070819	17:10:37	17:18:36	478659	5.0.10.0	5_exp_noRW	26	Rpleas_acq	CS_A	ZHHZ	DXXD	YFFY	CPPC	JQQJ	LWWL	vertrauen	küssen	träumen	sonnig	gütig	genießen	versagen	krank	töten	sterben	gierig	gemein	53pct	acq_USpleas_CSunple1_noRW	acq23456_noRW	3	63	0	0	300	300	390	50	0	1	1	blank2r.bmp	0	1	+	0	1	blank2r.bmp	252	1	YFFY	306	2	küssen	559	0	0	0	0	0	0	0	0	0	0	0	0	0	0	0	0	0	0	0	0	0	0	0	0	0	0	0	0	0	0	0	0	0	0	0	0	0	0	0
070819	17:10:37	17:18:38	480285	5.0.10.0	5_exp_noRW	26	Rpleas_acq	CS_A	ZHHZ	DXXD	YFFY	CPPC	JQQJ	LWWL	vertrauen	küssen	träumen	sonnig	gütig	genießen	versagen	krank	töten	sterben	gierig	gemein	47pct	acq_USunple_CSunple2_noRW	acq23456_noRW	3	64	0	0	300	300	464	46	0	1	1	blank2r.bmp	0	1	+	0	1	blank2r.bmp	252	1	CPPC	306	1	sterben	559	0	0	0	0	0	0	0	0	0	0	0	0	0	0	0	0	0	0	0	0	0	0	0	0	0	0	0	0	0	0	0	0	0	0	0	0	0	0	0
070819	17:10:37	17:18:40	482164	5.0.10.0	5_exp_noRW	26	Rpleas_acq	CS_A	ZHHZ	DXXD	YFFY	CPPC	JQQJ	LWWL	vertrauen	küssen	träumen	sonnig	gütig	genießen	versagen	krank	töten	sterben	gierig	gemein	47pct	acq_USpleas_CSpleas1_noRW	acq23456_noRW	3	65	0	0	300	300	481	46	0	0	1	blank2r.bmp	0	1	+	0	1	blank2r.bmp	252	1	ZHHZ	306	1	vertrauen	559	1	FEHLER	1079	0	0	0	0	0	0	0	0	0	0	0	0	0	0	0	0	0	0	0	0	0	0	0	0	0	0	0	0	0	0	0	0	0	0	0	0
070819	17:10:37	17:18:41	483603	5.0.10.0	5_exp_noRW	26	Rpleas_acq	CS_A	ZHHZ	DXXD	YFFY	CPPC	JQQJ	LWWL	vertrauen	küssen	träumen	sonnig	gütig	genießen	versagen	krank	töten	sterben	gierig	gemein	47pct	acq_USunple_CSunple2_noRW	acq23456_noRW	3	66	0	0	300	300	488	46	0	1	1	blank2r.bmp	0	1	+	0	1	blank2r.bmp	252	1	CPPC	306	3	gemein	559	0	0	0	0	0	0	0	0	0	0	0	0	0	0	0	0	0	0	0	0	0	0	0	0	0	0	0	0	0	0	0	0	0	0	0	0	0	0	0
070819	17:10:37	17:18:43	485243	5.0.10.0	5_exp_noRW	26	Rpleas_acq	CS_A	ZHHZ	DXXD	YFFY	CPPC	JQQJ	LWWL	vertrauen	küssen	träumen	sonnig	gütig	genießen	versagen	krank	töten	sterben	gierig	gemein	47pct	acq_USpleas_CSpleas2_noRW	acq23456_noRW	3	67	0	0	300	300	462	50	0	1	1	blank2r.bmp	0	1	+	0	1	blank2r.bmp	252	1	DXXD	306	1	sonnig	559	0	0	0	0	0	0	0	0	0	0	0	0	0	0	0	0	0	0	0	0	0	0	0	0	0	0	0	0	0	0	0	0	0	0	0	0	0	0	0
070819	17:10:37	17:18:45	486975	5.0.10.0	5_exp_noRW	26	Rpleas_acq	CS_A	ZHHZ	DXXD	YFFY	CPPC	JQQJ	LWWL	vertrauen	küssen	träumen	sonnig	gütig	genießen	versagen	krank	töten	sterben	gierig	gemein	47pct	acq_USunple_CSunple1_noRW	acq23456_noRW	3	68	0	0	300	300	554	46	0	1	1	blank2r.bmp	0	1	+	0	1	blank2r.bmp	252	1	YFFY	306	1	versagen	559	0	0	0	0	0	0	0	0	0	0	0	0	0	0	0	0	0	0	0	0	0	0	0	0	0	0	0	0	0	0	0	0	0	0	0	0	0	0	0
070819	17:10:37	17:18:46	488681	5.0.10.0	5_exp_noRW	26	Rpleas_acq	CS_A	ZHHZ	DXXD	YFFY	CPPC	JQQJ	LWWL	vertrauen	küssen	träumen	sonnig	gütig	genießen	versagen	krank	töten	sterben	gierig	gemein	47pct	acq_USunple_CSpleas2_noRW	acq23456_noRW	3	69	0	0	300	300	525	46	0	1	1	blank2r.bmp	0	1	+	0	1	blank2r.bmp	252	1	DXXD	306	1	sterben	559	0	0	0	0	0	0	0	0	0	0	0	0	0	0	0	0	0	0	0	0	0	0	0	0	0	0	0	0	0	0	0	0	0	0	0	0	0	0	0
070819	17:10:37	17:18:48	490321	5.0.10.0	5_exp_noRW	26	Rpleas_acq	CS_A	ZHHZ	DXXD	YFFY	CPPC	JQQJ	LWWL	vertrauen	küssen	träumen	sonnig	gütig	genießen	versagen	krank	töten	sterben	gierig	gemein	47pct	acq_USunple_CSunple2_noRW	acq23456_noRW	3	70	0	0	300	300	464	46	0	1	1	blank2r.bmp	0	1	+	0	1	blank2r.bmp	252	1	CPPC	306	2	gierig	559	0	0	0	0	0	0	0	0	0	0	0	0	0	0	0	0	0	0	0	0	0	0	0	0	0	0	0	0	0	0	0	0	0	0	0	0	0	0	0
070819	17:10:37	17:18:50	491840	5.0.10.0	5_exp_noRW	26	Rpleas_acq	CS_A	ZHHZ	DXXD	YFFY	CPPC	JQQJ	LWWL	vertrauen	küssen	träumen	sonnig	gütig	genießen	versagen	krank	töten	sterben	gierig	gemein	53pct	acq_USpleas_CSpleas1_noRW	acq23456_noRW	3	71	0	0	300	300	342	50	0	1	1	blank2r.bmp	0	1	+	0	1	blank2r.bmp	252	1	ZHHZ	306	1	vertrauen	559	0	0	0	0	0	0	0	0	0	0	0	0	0	0	0	0	0	0	0	0	0	0	0	0	0	0	0	0	0	0	0	0	0	0	0	0	0	0	0
070819	17:10:37	17:18:51	493413	5.0.10.0	5_exp_noRW	26	Rpleas_acq	CS_A	ZHHZ	DXXD	YFFY	CPPC	JQQJ	LWWL	vertrauen	küssen	träumen	sonnig	gütig	genießen	versagen	krank	töten	sterben	gierig	gemein	53pct	acq_USpleas_CSpleas2_noRW	acq23456_noRW	3	72	0	0	300	300	393	50	0	1	1	blank2r.bmp	0	1	+	0	1	blank2r.bmp	252	1	DXXD	306	2	gütig	559	0	0	0	0	0	0	0	0	0	0	0	0	0	0	0	0	0	0	0	0	0	0	0	0	0	0	0	0	0	0	0	0	0	0	0	0	0	0	0
070819	17:10:37	17:18:53	494985	5.0.10.0	5_exp_noRW	26	Rpleas_acq	CS_A	ZHHZ	DXXD	YFFY	CPPC	JQQJ	LWWL	vertrauen	küssen	träumen	sonnig	gütig	genießen	versagen	krank	töten	sterben	gierig	gemein	53pct	acq_USpleas_CSunple2_noRW	acq23456_noRW	3	73	0	0	300	300	401	50	0	1	1	blank2r.bmp	0	1	+	0	1	blank2r.bmp	252	1	CPPC	306	3	genießen	559	0	0	0	0	0	0	0	0	0	0	0	0	0	0	0	0	0	0	0	0	0	0	0	0	0	0	0	0	0	0	0	0	0	0	0	0	0	0	0
070819	17:10:37	17:18:54	496611	5.0.10.0	5_exp_noRW	26	Rpleas_acq	CS_A	ZHHZ	DXXD	YFFY	CPPC	JQQJ	LWWL	vertrauen	küssen	träumen	sonnig	gütig	genießen	versagen	krank	töten	sterben	gierig	gemein	47pct	acq_USpleas_CSpleas1_noRW	acq23456_noRW	3	74	0	0	300	300	445	50	0	1	1	blank2r.bmp	0	1	+	0	1	blank2r.bmp	252	1	ZHHZ	306	2	küssen	559	0	0	0	0	0	0	0	0	0	0	0	0	0	0	0	0	0	0	0	0	0	0	0	0	0	0	0	0	0	0	0	0	0	0	0	0	0	0	0
070819	17:10:37	17:18:56	498224	5.0.10.0	5_exp_noRW	26	Rpleas_acq	CS_A	ZHHZ	DXXD	YFFY	CPPC	JQQJ	LWWL	vertrauen	küssen	träumen	sonnig	gütig	genießen	versagen	krank	töten	sterben	gierig	gemein	53pct	acq_USunple_CSunple1_noRW	acq23456_noRW	3	75	0	0	300	300	450	46	0	1	1	blank2r.bmp	0	1	+	0	1	blank2r.bmp	252	1	YFFY	306	2	krank	559	0	0	0	0	0	0	0	0	0	0	0	0	0	0	0	0	0	0	0	0	0	0	0	0	0	0	0	0	0	0	0	0	0	0	0	0	0	0	0
070819	17:10:37	17:18:58	499903	5.0.10.0	5_exp_noRW	26	Rpleas_acq	CS_A	ZHHZ	DXXD	YFFY	CPPC	JQQJ	LWWL	vertrauen	küssen	träumen	sonnig	gütig	genießen	versagen	krank	töten	sterben	gierig	gemein	53pct	acq_USpleas_CSpleas2_noRW	acq23456_noRW	3	76	0	0	300	300	500	50	0	1	1	blank2r.bmp	0	1	+	0	1	blank2r.bmp	252	1	DXXD	306	1	sonnig	559	0	0	0	0	0	0	0	0	0	0	0	0	0	0	0	0	0	0	0	0	0	0	0	0	0	0	0	0	0	0	0	0	0	0	0	0	0	0	0
070819	17:10:37	17:18:59	501676	5.0.10.0	5_exp_noRW	26	Rpleas_acq	CS_A	ZHHZ	DXXD	YFFY	CPPC	JQQJ	LWWL	vertrauen	küssen	träumen	sonnig	gütig	genießen	versagen	krank	töten	sterben	gierig	gemein	47pct	acq_USpleas_CSpleas2_noRW	acq23456_noRW	3	77	0	0	300	300	602	50	0	1	1	blank2r.bmp	0	1	+	0	1	blank2r.bmp	252	1	DXXD	306	3	genießen	559	0	0	0	0	0	0	0	0	0	0	0	0	0	0	0	0	0	0	0	0	0	0	0	0	0	0	0	0	0	0	0	0	0	0	0	0	0	0	0
070819	17:10:37	17:19:01	503222	5.0.10.0	5_exp_noRW	26	Rpleas_acq	CS_A	ZHHZ	DXXD	YFFY	CPPC	JQQJ	LWWL	vertrauen	küssen	träumen	sonnig	gütig	genießen	versagen	krank	töten	sterben	gierig	gemein	47pct	acq_USpleas_CSpleas1_noRW	acq23456_noRW	3	78	0	0	300	300	369	50	0	1	1	blank2r.bmp	0	1	+	0	1	blank2r.bmp	252	1	ZHHZ	306	3	träumen	559	0	0	0	0	0	0	0	0	0	0	0	0	0	0	0	0	0	0	0	0	0	0	0	0	0	0	0	0	0	0	0	0	0	0	0	0	0	0	0
070819	17:10:37	17:19:02	504755	5.0.10.0	5_exp_noRW	26	Rpleas_acq	CS_A	ZHHZ	DXXD	YFFY	CPPC	JQQJ	LWWL	vertrauen	küssen	träumen	sonnig	gütig	genießen	versagen	krank	töten	sterben	gierig	gemein	53pct	acq_USunple_CSunple1_noRW	acq23456_noRW	3	79	0	0	300	300	348	46	0	1	1	blank2r.bmp	0	1	+	0	1	blank2r.bmp	252	1	YFFY	306	3	töten	559	0	0	0	0	0	0	0	0	0	0	0	0	0	0	0	0	0	0	0	0	0	0	0	0	0	0	0	0	0	0	0	0	0	0	0	0	0	0	0
070819	17:10:37	17:19:04	506287	5.0.10.0	5_exp_noRW	26	Rpleas_acq	CS_A	ZHHZ	DXXD	YFFY	CPPC	JQQJ	LWWL	vertrauen	küssen	träumen	sonnig	gütig	genießen	versagen	krank	töten	sterben	gierig	gemein	47pct	acq_USunple_CSunple2_noRW	acq23456_noRW	3	80	0	0	300	300	368	46	0	1	1	blank2r.bmp	0	1	+	0	1	blank2r.bmp	252	1	CPPC	306	1	sterben	559	0	0	0	0	0	0	0	0	0	0	0	0	0	0	0	0	0	0	0	0	0	0	0	0	0	0	0	0	0	0	0	0	0	0	0	0	0	0	0
070819	17:10:37	17:19:10	512232	5.0.10.0	5_exp_noRW	26	Rpleas_acq	CS_A	ZHHZ	DXXD	YFFY	CPPC	JQQJ	LWWL	vertrauen	küssen	träumen	sonnig	gütig	genießen	versagen	krank	töten	sterben	gierig	gemein	47pct	acq_USpleas_CSpleas1_noRW	acq23456_noRW	4	1	0	0	300	300	504	50	0	1	1	blank2r.bmp	0	1	+	0	1	blank2r.bmp	252	1	ZHHZ	306	3	träumen	559	0	0	0	0	0	0	0	0	0	0	0	0	0	0	0	0	0	0	0	0	0	0	0	0	0	0	0	0	0	0	0	0	0	0	0	0	0	0	0
