date	time	script.currenttime	script.elapsedtime	build	script.currentexpt	subject	expressions.LRpleas_acq	expressions.conditionCS_A	expressions.CSpleas_1	expressions.CSpleas_2	expressions.CSunple_1	expressions.CSunple_2	expressions.distractor_1	expressions.distractor_2	expressions.US_pleas1	expressions.US_pleas2	expressions.US_pleas3	expressions.US_pleas4	expressions.US_pleas5	expressions.US_pleas6	expressions.US_unple1	expressions.US_unple2	expressions.US_unple3	expressions.US_unple4	expressions.US_unple5	expressions.US_unple6	counter.positions_noRW	trialcode	blockcode	blocknum	trialnum	windowcenter	inwindow	pretrialpause	posttrialpause	latency	response	expressions.correctedscore	correct	stimulusnumber1	stimulusitem1	stimulusonset1	stimulusnumber2	stimulusitem2	stimulusonset2	stimulusnumber3	stimulusitem3	stimulusonset3	stimulusnumber4	stimulusitem4	stimulusonset4	stimulusnumber5	stimulusitem5	stimulusonset5	stimulusnumber6	stimulusitem6	stimulusonset6	stimulusnumber7	stimulusitem7	stimulusonset7	stimulusnumber8	stimulusitem8	stimulusonset8	stimulusnumber9	stimulusitem9	stimulusonset9	stimulusnumber10	stimulusitem10	stimulusonset10	stimulusnumber11	stimulusitem11	stimulusonset11	stimulusnumber12	stimulusitem12	stimulusonset12	stimulusnumber13	stimulusitem13	stimulusonset13	stimulusnumber14	stimulusitem14	stimulusonset14	stimulusnumber15	stimulusitem15	stimulusonset15	stimulusnumber16	stimulusitem16	stimulusonset16	stimulusnumber17	stimulusitem17	stimulusonset17	stimulusnumber18	stimulusitem18	stimulusonset18
071719	16:45:46	16:47:29	101823	5.0.10.0	5_exp_RW	69	Rpleas_acq	CS_B	MQQM	BZZB	YDDY	JXXJ	GWWG	VKKV	spielen	retten	ehrlich	fair	schön	treu	strafen	rächen	eitel	faul	schlecht	tot	1	acq_USpleas_CSpleas1_RW	acq1_RW	1	1	0	0	300	300	2048	50	0	1	1	blank2r.bmp	0	1	+	0	1	blank2r.bmp	492	1	MQQM	492	1	blank2r.bmp	572	2	retten	866	0	0	0	0	0	0	0	0	0	0	0	0	0	0	0	0	0	0	0	0	0	0	0	0	0	0	0	0	0	0	0	0	0	0	0	0
071719	16:45:46	16:47:31	104662	5.0.10.0	5_exp_RW	69	Rpleas_acq	CS_B	MQQM	BZZB	YDDY	JXXJ	GWWG	VKKV	spielen	retten	ehrlich	fair	schön	treu	strafen	rächen	eitel	faul	schlecht	tot	1	acq_USunple_CSunple2_RW	acq1_RW	1	2	0	0	300	300	1356	46	0	1	1	blank2r.bmp	0	1	+	0	1	blank2r.bmp	492	1	JXXJ	492	1	blank2r.bmp	572	3	tot	866	0	0	0	0	0	0	0	0	0	0	0	0	0	0	0	0	0	0	0	0	0	0	0	0	0	0	0	0	0	0	0	0	0	0	0	0
071719	16:45:46	16:47:33	106781	5.0.10.0	5_exp_RW	69	Rpleas_acq	CS_B	MQQM	BZZB	YDDY	JXXJ	GWWG	VKKV	spielen	retten	ehrlich	fair	schön	treu	strafen	rächen	eitel	faul	schlecht	tot	1	acq_USpleas_CSpleas2_RW	acq1_RW	1	3	0	0	300	300	629	50	0	1	1	blank2r.bmp	0	1	+	0	1	blank2r.bmp	492	1	BZZB	492	1	blank2r.bmp	572	2	schön	866	0	0	0	0	0	0	0	0	0	0	0	0	0	0	0	0	0	0	0	0	0	0	0	0	0	0	0	0	0	0	0	0	0	0	0	0
071719	16:45:46	16:47:36	109220	5.0.10.0	5_exp_RW	69	Rpleas_acq	CS_B	MQQM	BZZB	YDDY	JXXJ	GWWG	VKKV	spielen	retten	ehrlich	fair	schön	treu	strafen	rächen	eitel	faul	schlecht	tot	1	acq_USunple_CSunple1_RW	acq1_RW	1	4	0	0	300	300	960	46	0	1	1	blank2r.bmp	0	1	+	0	1	blank2r.bmp	492	1	YDDY	492	1	blank2r.bmp	572	1	strafen	866	0	0	0	0	0	0	0	0	0	0	0	0	0	0	0	0	0	0	0	0	0	0	0	0	0	0	0	0	0	0	0	0	0	0	0	0
071719	16:45:46	16:47:38	111299	5.0.10.0	5_exp_RW	69	Rpleas_acq	CS_B	MQQM	BZZB	YDDY	JXXJ	GWWG	VKKV	spielen	retten	ehrlich	fair	schön	treu	strafen	rächen	eitel	faul	schlecht	tot	1	acq_USpleas_CSpleas1_RW	acq1_RW	1	5	0	0	300	300	601	50	0	1	1	blank2r.bmp	0	1	+	0	1	blank2r.bmp	492	1	MQQM	492	1	blank2r.bmp	572	1	spielen	866	0	0	0	0	0	0	0	0	0	0	0	0	0	0	0	0	0	0	0	0	0	0	0	0	0	0	0	0	0	0	0	0	0	0	0	0
071719	16:45:46	16:47:40	113378	5.0.10.0	5_exp_RW	69	Rpleas_acq	CS_B	MQQM	BZZB	YDDY	JXXJ	GWWG	VKKV	spielen	retten	ehrlich	fair	schön	treu	strafen	rächen	eitel	faul	schlecht	tot	1	acq_USunple_CSunple2_RW	acq1_RW	1	6	0	0	300	300	600	46	0	1	1	blank2r.bmp	0	1	+	0	1	blank2r.bmp	492	1	JXXJ	492	1	blank2r.bmp	572	2	schlecht	866	0	0	0	0	0	0	0	0	0	0	0	0	0	0	0	0	0	0	0	0	0	0	0	0	0	0	0	0	0	0	0	0	0	0	0	0
071719	16:45:46	16:47:42	115671	5.0.10.0	5_exp_RW	69	Rpleas_acq	CS_B	MQQM	BZZB	YDDY	JXXJ	GWWG	VKKV	spielen	retten	ehrlich	fair	schön	treu	strafen	rächen	eitel	faul	schlecht	tot	1	acq_USunple_CSunple1_RW	acq1_RW	1	7	0	0	300	300	800	46	0	1	1	blank2r.bmp	0	1	+	0	1	blank2r.bmp	492	1	YDDY	492	1	blank2r.bmp	572	2	rächen	866	0	0	0	0	0	0	0	0	0	0	0	0	0	0	0	0	0	0	0	0	0	0	0	0	0	0	0	0	0	0	0	0	0	0	0	0
071719	16:45:46	16:47:44	117683	5.0.10.0	5_exp_RW	69	Rpleas_acq	CS_B	MQQM	BZZB	YDDY	JXXJ	GWWG	VKKV	spielen	retten	ehrlich	fair	schön	treu	strafen	rächen	eitel	faul	schlecht	tot	1	acq_USpleas_CSpleas2_RW	acq1_RW	1	8	0	0	300	300	531	50	0	1	1	blank2r.bmp	0	1	+	0	1	blank2r.bmp	492	1	BZZB	492	1	blank2r.bmp	572	3	treu	866	0	0	0	0	0	0	0	0	0	0	0	0	0	0	0	0	0	0	0	0	0	0	0	0	0	0	0	0	0	0	0	0	0	0	0	0
071719	16:45:46	16:47:47	120575	5.0.10.0	5_exp_RW	69	Rpleas_acq	CS_B	MQQM	BZZB	YDDY	JXXJ	GWWG	VKKV	spielen	retten	ehrlich	fair	schön	treu	strafen	rächen	eitel	faul	schlecht	tot	1	acq_USunple_CSunple1_RW	acq1_RW	1	9	0	0	300	300	1411	46	0	1	1	blank2r.bmp	0	1	+	0	1	blank2r.bmp	492	1	YDDY	492	1	blank2r.bmp	572	3	eitel	866	0	0	0	0	0	0	0	0	0	0	0	0	0	0	0	0	0	0	0	0	0	0	0	0	0	0	0	0	0	0	0	0	0	0	0	0
071719	16:45:46	16:47:49	122775	5.0.10.0	5_exp_RW	69	Rpleas_acq	CS_B	MQQM	BZZB	YDDY	JXXJ	GWWG	VKKV	spielen	retten	ehrlich	fair	schön	treu	strafen	rächen	eitel	faul	schlecht	tot	1	acq_USpleas_CSpleas2_RW	acq1_RW	1	10	0	0	300	300	706	50	0	1	1	blank2r.bmp	0	1	+	0	1	blank2r.bmp	492	1	BZZB	492	1	blank2r.bmp	572	1	fair	866	0	0	0	0	0	0	0	0	0	0	0	0	0	0	0	0	0	0	0	0	0	0	0	0	0	0	0	0	0	0	0	0	0	0	0	0
071719	16:45:46	16:47:52	124934	5.0.10.0	5_exp_RW	69	Rpleas_acq	CS_B	MQQM	BZZB	YDDY	JXXJ	GWWG	VKKV	spielen	retten	ehrlich	fair	schön	treu	strafen	rächen	eitel	faul	schlecht	tot	1	acq_USpleas_CSpleas1_RW	acq1_RW	1	11	0	0	300	300	682	50	0	1	1	blank2r.bmp	0	1	+	0	1	blank2r.bmp	492	1	MQQM	492	1	blank2r.bmp	572	3	ehrlich	866	0	0	0	0	0	0	0	0	0	0	0	0	0	0	0	0	0	0	0	0	0	0	0	0	0	0	0	0	0	0	0	0	0	0	0	0
071719	16:45:46	16:47:54	126973	5.0.10.0	5_exp_RW	69	Rpleas_acq	CS_B	MQQM	BZZB	YDDY	JXXJ	GWWG	VKKV	spielen	retten	ehrlich	fair	schön	treu	strafen	rächen	eitel	faul	schlecht	tot	1	acq_USpleas_CSpleas2_RW	acq1_RW	1	12	0	0	300	300	546	50	0	1	1	blank2r.bmp	0	1	+	0	1	blank2r.bmp	492	1	BZZB	492	1	blank2r.bmp	572	2	schön	866	0	0	0	0	0	0	0	0	0	0	0	0	0	0	0	0	0	0	0	0	0	0	0	0	0	0	0	0	0	0	0	0	0	0	0	0
071719	16:45:46	16:47:56	129092	5.0.10.0	5_exp_RW	69	Rpleas_acq	CS_B	MQQM	BZZB	YDDY	JXXJ	GWWG	VKKV	spielen	retten	ehrlich	fair	schön	treu	strafen	rächen	eitel	faul	schlecht	tot	1	acq_USunple_CSunple2_RW	acq1_RW	1	13	0	0	300	300	644	46	0	1	1	blank2r.bmp	0	1	+	0	1	blank2r.bmp	492	1	JXXJ	492	1	blank2r.bmp	572	1	faul	866	0	0	0	0	0	0	0	0	0	0	0	0	0	0	0	0	0	0	0	0	0	0	0	0	0	0	0	0	0	0	0	0	0	0	0	0
071719	16:45:46	16:47:58	131158	5.0.10.0	5_exp_RW	69	Rpleas_acq	CS_B	MQQM	BZZB	YDDY	JXXJ	GWWG	VKKV	spielen	retten	ehrlich	fair	schön	treu	strafen	rächen	eitel	faul	schlecht	tot	1	acq_USunple_CSunple1_RW	acq1_RW	1	14	0	0	300	300	597	46	0	1	1	blank2r.bmp	0	1	+	0	1	blank2r.bmp	492	1	YDDY	492	1	blank2r.bmp	572	1	strafen	866	0	0	0	0	0	0	0	0	0	0	0	0	0	0	0	0	0	0	0	0	0	0	0	0	0	0	0	0	0	0	0	0	0	0	0	0
071719	16:45:46	16:48:00	133170	5.0.10.0	5_exp_RW	69	Rpleas_acq	CS_B	MQQM	BZZB	YDDY	JXXJ	GWWG	VKKV	spielen	retten	ehrlich	fair	schön	treu	strafen	rächen	eitel	faul	schlecht	tot	1	acq_USpleas_CSpleas1_RW	acq1_RW	1	15	0	0	300	300	529	50	0	1	1	blank2r.bmp	0	1	+	0	1	blank2r.bmp	492	1	MQQM	492	1	blank2r.bmp	572	2	retten	866	0	0	0	0	0	0	0	0	0	0	0	0	0	0	0	0	0	0	0	0	0	0	0	0	0	0	0	0	0	0	0	0	0	0	0	0
071719	16:45:46	16:48:02	135196	5.0.10.0	5_exp_RW	69	Rpleas_acq	CS_B	MQQM	BZZB	YDDY	JXXJ	GWWG	VKKV	spielen	retten	ehrlich	fair	schön	treu	strafen	rächen	eitel	faul	schlecht	tot	1	acq_USunple_CSunple2_RW	acq1_RW	1	16	0	0	300	300	538	46	0	1	1	blank2r.bmp	0	1	+	0	1	blank2r.bmp	492	1	JXXJ	492	1	blank2r.bmp	572	1	faul	866	0	0	0	0	0	0	0	0	0	0	0	0	0	0	0	0	0	0	0	0	0	0	0	0	0	0	0	0	0	0	0	0	0	0	0	0
071719	16:45:46	16:48:53	186108	5.0.10.0	5_exp_RW	69	Rpleas_acq	CS_B	MQQM	BZZB	YDDY	JXXJ	GWWG	VKKV	spielen	retten	ehrlich	fair	schön	treu	strafen	rächen	eitel	faul	schlecht	tot	1	acq_USunple_CSunple2_RW	acq2_RW	2	1	480	0	300	300	2277	46	0	1	1	blank2r.bmp	0	1	+	0	1	blank2r.bmp	492	1	JXXJ	492	1	blank2r.bmp	572	3	tot	866	1	!	1319	1	!	-1	0	0	0	0	0	0	0	0	0	0	0	0	0	0	0	0	0	0	0	0	0	0	0	0	0	0	0	0	0	0
071719	16:45:46	16:48:55	188720	5.0.10.0	5_exp_RW	69	Rpleas_acq	CS_B	MQQM	BZZB	YDDY	JXXJ	GWWG	VKKV	spielen	retten	ehrlich	fair	schön	treu	strafen	rächen	eitel	faul	schlecht	tot	1	acq_USunple_CSunple1_RW	acq2_RW	2	2	480	0	300	300	815	46	0	1	1	blank2r.bmp	0	1	+	0	1	blank2r.bmp	492	1	YDDY	492	1	blank2r.bmp	572	3	eitel	866	1	!	1319	1	!	-1	0	0	0	0	0	0	0	0	0	0	0	0	0	0	0	0	0	0	0	0	0	0	0	0	0	0	0	0	0	0
071719	16:45:46	16:48:58	191159	5.0.10.0	5_exp_RW	69	Rpleas_acq	CS_B	MQQM	BZZB	YDDY	JXXJ	GWWG	VKKV	spielen	retten	ehrlich	fair	schön	treu	strafen	rächen	eitel	faul	schlecht	tot	1	acq_USpleas_CSpleas1_RW	acq2_RW	2	3	480	0	300	300	658	50	0	1	1	blank2r.bmp	0	1	+	0	1	blank2r.bmp	492	1	MQQM	492	1	blank2r.bmp	572	3	ehrlich	866	1	!	1319	1	!	-1	0	0	0	0	0	0	0	0	0	0	0	0	0	0	0	0	0	0	0	0	0	0	0	0	0	0	0	0	0	0
071719	16:45:46	16:49:00	193412	5.0.10.0	5_exp_RW	69	Rpleas_acq	CS_B	MQQM	BZZB	YDDY	JXXJ	GWWG	VKKV	spielen	retten	ehrlich	fair	schön	treu	strafen	rächen	eitel	faul	schlecht	tot	1	acq_USunple_CSunple2_RW	acq2_RW	2	4	480	1	300	300	445	46	0	1	1	blank2r.bmp	0	1	+	0	1	blank2r.bmp	492	1	JXXJ	492	1	blank2r.bmp	572	2	schlecht	866	1	!	1319	1	!	1346	0	0	0	0	0	0	0	0	0	0	0	0	0	0	0	0	0	0	0	0	0	0	0	0	0	0	0	0	0	0
071719	16:45:46	16:49:03	195891	5.0.10.0	5_exp_RW	69	Rpleas_acq	CS_B	MQQM	BZZB	YDDY	JXXJ	GWWG	VKKV	spielen	retten	ehrlich	fair	schön	treu	strafen	rächen	eitel	faul	schlecht	tot	1	acq_USunple_CSunple1_RW	acq2_RW	2	5	480	0	300	300	708	46	0	1	1	blank2r.bmp	0	1	+	0	1	blank2r.bmp	492	1	YDDY	492	1	blank2r.bmp	572	2	rächen	866	1	!	1319	1	!	-1	0	0	0	0	0	0	0	0	0	0	0	0	0	0	0	0	0	0	0	0	0	0	0	0	0	0	0	0	0	0
071719	16:45:46	16:49:05	198263	5.0.10.0	5_exp_RW	69	Rpleas_acq	CS_B	MQQM	BZZB	YDDY	JXXJ	GWWG	VKKV	spielen	retten	ehrlich	fair	schön	treu	strafen	rächen	eitel	faul	schlecht	tot	1	acq_USunple_CSunple2_RW	acq2_RW	2	6	480	0	300	300	593	46	0	1	1	blank2r.bmp	0	1	+	0	1	blank2r.bmp	492	1	JXXJ	492	1	blank2r.bmp	572	1	faul	866	1	!	1319	1	!	-1	0	0	0	0	0	0	0	0	0	0	0	0	0	0	0	0	0	0	0	0	0	0	0	0	0	0	0	0	0	0
071719	16:45:46	16:49:07	200502	5.0.10.0	5_exp_RW	69	Rpleas_acq	CS_B	MQQM	BZZB	YDDY	JXXJ	GWWG	VKKV	spielen	retten	ehrlich	fair	schön	treu	strafen	rächen	eitel	faul	schlecht	tot	1	acq_USpleas_CSpleas1_RW	acq2_RW	2	7	480	1	300	300	431	50	0	1	1	blank2r.bmp	0	1	+	0	1	blank2r.bmp	492	1	MQQM	492	1	blank2r.bmp	572	1	spielen	866	1	!	1319	1	!	1332	0	0	0	0	0	0	0	0	0	0	0	0	0	0	0	0	0	0	0	0	0	0	0	0	0	0	0	0	0	0
071719	16:45:46	16:49:10	202888	5.0.10.0	5_exp_RW	69	Rpleas_acq	CS_B	MQQM	BZZB	YDDY	JXXJ	GWWG	VKKV	spielen	retten	ehrlich	fair	schön	treu	strafen	rächen	eitel	faul	schlecht	tot	1	acq_USpleas_CSpleas2_RW	acq2_RW	2	8	480	0	300	300	606	50	0	1	1	blank2r.bmp	0	1	+	0	1	blank2r.bmp	492	1	BZZB	492	1	blank2r.bmp	572	3	treu	866	1	!	1319	1	!	-1	0	0	0	0	0	0	0	0	0	0	0	0	0	0	0	0	0	0	0	0	0	0	0	0	0	0	0	0	0	0
071719	16:45:46	16:49:12	205127	5.0.10.0	5_exp_RW	69	Rpleas_acq	CS_B	MQQM	BZZB	YDDY	JXXJ	GWWG	VKKV	spielen	retten	ehrlich	fair	schön	treu	strafen	rächen	eitel	faul	schlecht	tot	1	acq_USpleas_CSpleas2_RW	acq2_RW	2	9	480	1	300	300	426	50	0	1	1	blank2r.bmp	0	1	+	0	1	blank2r.bmp	492	1	BZZB	492	1	blank2r.bmp	572	1	fair	866	1	!	1319	1	!	1332	0	0	0	0	0	0	0	0	0	0	0	0	0	0	0	0	0	0	0	0	0	0	0	0	0	0	0	0	0	0
071719	16:45:46	16:49:14	207499	5.0.10.0	5_exp_RW	69	Rpleas_acq	CS_B	MQQM	BZZB	YDDY	JXXJ	GWWG	VKKV	spielen	retten	ehrlich	fair	schön	treu	strafen	rächen	eitel	faul	schlecht	tot	1	acq_USunple_CSunple1_RW	acq2_RW	2	10	480	0	300	300	601	46	0	1	1	blank2r.bmp	0	1	+	0	1	blank2r.bmp	492	1	YDDY	492	1	blank2r.bmp	572	1	strafen	866	1	!	1319	1	!	-1	0	0	0	0	0	0	0	0	0	0	0	0	0	0	0	0	0	0	0	0	0	0	0	0	0	0	0	0	0	0
071719	16:45:46	16:49:16	209592	5.0.10.0	5_exp_RW	69	Rpleas_acq	CS_B	MQQM	BZZB	YDDY	JXXJ	GWWG	VKKV	spielen	retten	ehrlich	fair	schön	treu	strafen	rächen	eitel	faul	schlecht	tot	1	acq_USpleas_CSpleas2_RW	acq2_RW	2	11	480	0	300	300	316	50	0	1	1	blank2r.bmp	0	1	+	0	1	blank2r.bmp	492	1	BZZB	492	1	blank2r.bmp	572	3	treu	866	1	!	-1	1	!	-1	0	0	0	0	0	0	0	0	0	0	0	0	0	0	0	0	0	0	0	0	0	0	0	0	0	0	0	0	0	0
071719	16:45:46	16:49:19	212084	5.0.10.0	5_exp_RW	69	Rpleas_acq	CS_B	MQQM	BZZB	YDDY	JXXJ	GWWG	VKKV	spielen	retten	ehrlich	fair	schön	treu	strafen	rächen	eitel	faul	schlecht	tot	1	acq_USunple_CSunple2_RW	acq2_RW	2	12	480	0	300	300	710	46	0	1	1	blank2r.bmp	0	1	+	0	1	blank2r.bmp	492	1	JXXJ	492	1	blank2r.bmp	572	2	schlecht	866	1	!	1319	1	!	-1	0	0	0	0	0	0	0	0	0	0	0	0	0	0	0	0	0	0	0	0	0	0	0	0	0	0	0	0	0	0
071719	16:45:46	16:49:21	214443	5.0.10.0	5_exp_RW	69	Rpleas_acq	CS_B	MQQM	BZZB	YDDY	JXXJ	GWWG	VKKV	spielen	retten	ehrlich	fair	schön	treu	strafen	rächen	eitel	faul	schlecht	tot	1	acq_USunple_CSunple2_RW	acq2_RW	2	13	480	0	300	300	583	46	0	1	1	blank2r.bmp	0	1	+	0	1	blank2r.bmp	492	1	JXXJ	492	1	blank2r.bmp	572	3	tot	866	1	!	1319	1	!	-1	0	0	0	0	0	0	0	0	0	0	0	0	0	0	0	0	0	0	0	0	0	0	0	0	0	0	0	0	0	0
071719	16:45:46	16:49:24	216829	5.0.10.0	5_exp_RW	69	Rpleas_acq	CS_B	MQQM	BZZB	YDDY	JXXJ	GWWG	VKKV	spielen	retten	ehrlich	fair	schön	treu	strafen	rächen	eitel	faul	schlecht	tot	1	acq_USpleas_CSpleas1_RW	acq2_RW	2	14	480	0	300	300	600	50	0	1	1	blank2r.bmp	0	1	+	0	1	blank2r.bmp	492	1	MQQM	492	1	blank2r.bmp	572	1	spielen	866	1	!	1319	1	!	-1	0	0	0	0	0	0	0	0	0	0	0	0	0	0	0	0	0	0	0	0	0	0	0	0	0	0	0	0	0	0
071719	16:45:46	16:49:26	219108	5.0.10.0	5_exp_RW	69	Rpleas_acq	CS_B	MQQM	BZZB	YDDY	JXXJ	GWWG	VKKV	spielen	retten	ehrlich	fair	schön	treu	strafen	rächen	eitel	faul	schlecht	tot	1	acq_USpleas_CSpleas2_RW	acq2_RW	2	15	480	1	300	300	477	50	0	1	1	blank2r.bmp	0	1	+	0	1	blank2r.bmp	492	1	BZZB	492	1	blank2r.bmp	572	1	fair	866	1	!	1319	1	!	1372	0	0	0	0	0	0	0	0	0	0	0	0	0	0	0	0	0	0	0	0	0	0	0	0	0	0	0	0	0	0
071719	16:45:46	16:49:28	221374	5.0.10.0	5_exp_RW	69	Rpleas_acq	CS_B	MQQM	BZZB	YDDY	JXXJ	GWWG	VKKV	spielen	retten	ehrlich	fair	schön	treu	strafen	rächen	eitel	faul	schlecht	tot	1	acq_USunple_CSunple1_RW	acq2_RW	2	16	480	1	300	300	468	46	0	1	1	blank2r.bmp	0	1	+	0	1	blank2r.bmp	492	1	YDDY	492	1	blank2r.bmp	572	3	eitel	866	1	!	1319	1	!	1372	0	0	0	0	0	0	0	0	0	0	0	0	0	0	0	0	0	0	0	0	0	0	0	0	0	0	0	0	0	0
071719	16:45:46	16:49:30	223746	5.0.10.0	5_exp_RW	69	Rpleas_acq	CS_B	MQQM	BZZB	YDDY	JXXJ	GWWG	VKKV	spielen	retten	ehrlich	fair	schön	treu	strafen	rächen	eitel	faul	schlecht	tot	1	acq_USpleas_CSpleas2_RW	acq2_RW	2	17	480	0	300	300	608	50	0	1	1	blank2r.bmp	0	1	+	0	1	blank2r.bmp	492	1	BZZB	492	1	blank2r.bmp	572	2	schön	866	1	!	1319	1	!	-1	0	0	0	0	0	0	0	0	0	0	0	0	0	0	0	0	0	0	0	0	0	0	0	0	0	0	0	0	0	0
071719	16:45:46	16:49:33	226091	5.0.10.0	5_exp_RW	69	Rpleas_acq	CS_B	MQQM	BZZB	YDDY	JXXJ	GWWG	VKKV	spielen	retten	ehrlich	fair	schön	treu	strafen	rächen	eitel	faul	schlecht	tot	1	acq_USunple_CSunple1_RW	acq2_RW	2	18	480	0	300	300	564	46	0	1	1	blank2r.bmp	0	1	+	0	1	blank2r.bmp	492	1	YDDY	492	1	blank2r.bmp	572	2	rächen	866	1	!	1319	1	!	-1	0	0	0	0	0	0	0	0	0	0	0	0	0	0	0	0	0	0	0	0	0	0	0	0	0	0	0	0	0	0
071719	16:45:46	16:49:35	228237	5.0.10.0	5_exp_RW	69	Rpleas_acq	CS_B	MQQM	BZZB	YDDY	JXXJ	GWWG	VKKV	spielen	retten	ehrlich	fair	schön	treu	strafen	rächen	eitel	faul	schlecht	tot	1	acq_USunple_CSunple1_RW	acq2_RW	2	19	480	0	300	300	144	50	0	0	1	blank2r.bmp	0	1	+	0	1	blank2r.bmp	492	1	YDDY	492	1	blank2r.bmp	572	2	rächen	866	1	FEHLER	1346	1	!	-1	1	!	-1	0	0	0	0	0	0	0	0	0	0	0	0	0	0	0	0	0	0	0	0	0	0	0	0	0	0	0
071719	16:45:46	16:49:37	230463	5.0.10.0	5_exp_RW	69	Rpleas_acq	CS_B	MQQM	BZZB	YDDY	JXXJ	GWWG	VKKV	spielen	retten	ehrlich	fair	schön	treu	strafen	rächen	eitel	faul	schlecht	tot	1	acq_USpleas_CSpleas1_RW	acq2_RW	2	20	480	0	300	300	666	50	0	1	1	blank2r.bmp	0	1	+	0	1	blank2r.bmp	492	1	MQQM	492	1	blank2r.bmp	572	2	retten	866	1	!	1319	1	!	-1	0	0	0	0	0	0	0	0	0	0	0	0	0	0	0	0	0	0	0	0	0	0	0	0	0	0	0	0	0	0
071719	16:45:46	16:49:39	232662	5.0.10.0	5_exp_RW	69	Rpleas_acq	CS_B	MQQM	BZZB	YDDY	JXXJ	GWWG	VKKV	spielen	retten	ehrlich	fair	schön	treu	strafen	rächen	eitel	faul	schlecht	tot	1	acq_USunple_CSunple2_RW	acq2_RW	2	21	480	0	300	300	413	46	0	1	1	blank2r.bmp	0	1	+	0	1	blank2r.bmp	492	1	JXXJ	492	1	blank2r.bmp	572	3	tot	866	1	!	-1	1	!	-1	0	0	0	0	0	0	0	0	0	0	0	0	0	0	0	0	0	0	0	0	0	0	0	0	0	0	0	0	0	0
071719	16:45:46	16:49:42	235008	5.0.10.0	5_exp_RW	69	Rpleas_acq	CS_B	MQQM	BZZB	YDDY	JXXJ	GWWG	VKKV	spielen	retten	ehrlich	fair	schön	treu	strafen	rächen	eitel	faul	schlecht	tot	1	acq_USpleas_CSpleas1_RW	acq2_RW	2	22	480	0	300	300	560	50	0	1	1	blank2r.bmp	0	1	+	0	1	blank2r.bmp	492	1	MQQM	492	1	blank2r.bmp	572	3	ehrlich	866	1	!	1319	1	!	-1	0	0	0	0	0	0	0	0	0	0	0	0	0	0	0	0	0	0	0	0	0	0	0	0	0	0	0	0	0	0
071719	16:45:46	16:49:44	237153	5.0.10.0	5_exp_RW	69	Rpleas_acq	CS_B	MQQM	BZZB	YDDY	JXXJ	GWWG	VKKV	spielen	retten	ehrlich	fair	schön	treu	strafen	rächen	eitel	faul	schlecht	tot	1	acq_USpleas_CSpleas1_RW	acq2_RW	2	23	480	0	300	300	358	50	0	1	1	blank2r.bmp	0	1	+	0	1	blank2r.bmp	492	1	MQQM	492	1	blank2r.bmp	572	3	ehrlich	866	1	!	-1	1	!	-1	0	0	0	0	0	0	0	0	0	0	0	0	0	0	0	0	0	0	0	0	0	0	0	0	0	0	0	0	0	0
071719	16:45:46	16:49:46	239446	5.0.10.0	5_exp_RW	69	Rpleas_acq	CS_B	MQQM	BZZB	YDDY	JXXJ	GWWG	VKKV	spielen	retten	ehrlich	fair	schön	treu	strafen	rächen	eitel	faul	schlecht	tot	1	acq_USpleas_CSpleas2_RW	acq2_RW	2	24	480	1	300	300	481	50	0	1	1	blank2r.bmp	0	1	+	0	1	blank2r.bmp	492	1	BZZB	492	1	blank2r.bmp	572	3	treu	866	1	!	1319	1	!	1386	0	0	0	0	0	0	0	0	0	0	0	0	0	0	0	0	0	0	0	0	0	0	0	0	0	0	0	0	0	0
071719	16:45:46	16:50:06	259104	5.0.10.0	5_exp_RW	69	Rpleas_acq	CS_B	MQQM	BZZB	YDDY	JXXJ	GWWG	VKKV	spielen	retten	ehrlich	fair	schön	treu	strafen	rächen	eitel	faul	schlecht	tot	1	acq_USpleas_CSpleas1_RW	acq3_RW	3	1	453	0	300	300	535	50	0	1	1	blank2r.bmp	0	1	+	0	1	blank2r.bmp	492	1	MQQM	492	1	blank2r.bmp	572	1	spielen	866	1	!	1292	1	!	-1	0	0	0	0	0	0	0	0	0	0	0	0	0	0	0	0	0	0	0	0	0	0	0	0	0	0	0	0	0	0
071719	16:45:46	16:50:08	261250	5.0.10.0	5_exp_RW	69	Rpleas_acq	CS_B	MQQM	BZZB	YDDY	JXXJ	GWWG	VKKV	spielen	retten	ehrlich	fair	schön	treu	strafen	rächen	eitel	faul	schlecht	tot	1	acq_USpleas_CSpleas2_RW	acq3_RW	3	2	453	0	300	300	369	50	0	1	1	blank2r.bmp	0	1	+	0	1	blank2r.bmp	492	1	BZZB	492	1	blank2r.bmp	572	2	schön	866	1	!	-1	1	!	-1	0	0	0	0	0	0	0	0	0	0	0	0	0	0	0	0	0	0	0	0	0	0	0	0	0	0	0	0	0	0
071719	16:45:46	16:50:10	263622	5.0.10.0	5_exp_RW	69	Rpleas_acq	CS_B	MQQM	BZZB	YDDY	JXXJ	GWWG	VKKV	spielen	retten	ehrlich	fair	schön	treu	strafen	rächen	eitel	faul	schlecht	tot	1	acq_USpleas_CSpleas1_RW	acq3_RW	3	3	453	0	300	300	596	50	0	1	1	blank2r.bmp	0	1	+	0	1	blank2r.bmp	492	1	MQQM	492	1	blank2r.bmp	572	2	retten	866	1	!	1292	1	!	-1	0	0	0	0	0	0	0	0	0	0	0	0	0	0	0	0	0	0	0	0	0	0	0	0	0	0	0	0	0	0
071719	16:45:46	16:50:12	265728	5.0.10.0	5_exp_RW	69	Rpleas_acq	CS_B	MQQM	BZZB	YDDY	JXXJ	GWWG	VKKV	spielen	retten	ehrlich	fair	schön	treu	strafen	rächen	eitel	faul	schlecht	tot	1	acq_USunple_CSunple2_RW	acq3_RW	3	4	453	0	300	300	306	46	0	1	1	blank2r.bmp	0	1	+	0	1	blank2r.bmp	492	1	JXXJ	492	1	blank2r.bmp	572	1	faul	866	1	!	-1	1	!	-1	0	0	0	0	0	0	0	0	0	0	0	0	0	0	0	0	0	0	0	0	0	0	0	0	0	0	0	0	0	0
071719	16:45:46	16:50:15	268114	5.0.10.0	5_exp_RW	69	Rpleas_acq	CS_B	MQQM	BZZB	YDDY	JXXJ	GWWG	VKKV	spielen	retten	ehrlich	fair	schön	treu	strafen	rächen	eitel	faul	schlecht	tot	1	acq_USpleas_CSpleas1_RW	acq3_RW	3	5	453	0	300	300	591	50	0	1	1	blank2r.bmp	0	1	+	0	1	blank2r.bmp	492	1	MQQM	492	1	blank2r.bmp	572	3	ehrlich	866	1	!	1292	1	!	-1	0	0	0	0	0	0	0	0	0	0	0	0	0	0	0	0	0	0	0	0	0	0	0	0	0	0	0	0	0	0
071719	16:45:46	16:50:17	270393	5.0.10.0	5_exp_RW	69	Rpleas_acq	CS_B	MQQM	BZZB	YDDY	JXXJ	GWWG	VKKV	spielen	retten	ehrlich	fair	schön	treu	strafen	rächen	eitel	faul	schlecht	tot	1	acq_USpleas_CSpleas2_RW	acq3_RW	3	6	453	1	300	300	472	50	0	1	1	blank2r.bmp	0	1	+	0	1	blank2r.bmp	492	1	BZZB	492	1	blank2r.bmp	572	1	fair	866	1	!	1292	1	!	1372	0	0	0	0	0	0	0	0	0	0	0	0	0	0	0	0	0	0	0	0	0	0	0	0	0	0	0	0	0	0
071719	16:45:46	16:50:19	272738	5.0.10.0	5_exp_RW	69	Rpleas_acq	CS_B	MQQM	BZZB	YDDY	JXXJ	GWWG	VKKV	spielen	retten	ehrlich	fair	schön	treu	strafen	rächen	eitel	faul	schlecht	tot	1	acq_USunple_CSunple2_RW	acq3_RW	3	7	453	0	300	300	583	46	0	1	1	blank2r.bmp	0	1	+	0	1	blank2r.bmp	492	1	JXXJ	492	1	blank2r.bmp	572	2	schlecht	866	1	!	1292	1	!	-1	0	0	0	0	0	0	0	0	0	0	0	0	0	0	0	0	0	0	0	0	0	0	0	0	0	0	0	0	0	0
071719	16:45:46	16:50:29	282215	5.0.10.0	5_exp_RW	69	Rpleas_acq	CS_B	MQQM	BZZB	YDDY	JXXJ	GWWG	VKKV	spielen	retten	ehrlich	fair	schön	treu	strafen	rächen	eitel	faul	schlecht	tot	1	acq_USunple_CSunple1_RW	acq3_RW	3	8	453	0	300	300	7701	46	0	1	1	blank2r.bmp	0	1	+	0	1	blank2r.bmp	492	1	YDDY	492	1	blank2r.bmp	572	3	eitel	866	1	!	1292	1	!	-1	0	0	0	0	0	0	0	0	0	0	0	0	0	0	0	0	0	0	0	0	0	0	0	0	0	0	0	0	0	0
071719	16:45:46	16:50:31	284653	5.0.10.0	5_exp_RW	69	Rpleas_acq	CS_B	MQQM	BZZB	YDDY	JXXJ	GWWG	VKKV	spielen	retten	ehrlich	fair	schön	treu	strafen	rächen	eitel	faul	schlecht	tot	1	acq_USunple_CSunple2_RW	acq3_RW	3	9	453	0	300	300	653	46	0	1	1	blank2r.bmp	0	1	+	0	1	blank2r.bmp	492	1	JXXJ	492	1	blank2r.bmp	572	1	faul	866	1	!	1292	1	!	-1	0	0	0	0	0	0	0	0	0	0	0	0	0	0	0	0	0	0	0	0	0	0	0	0	0	0	0	0	0	0
071719	16:45:46	16:50:34	286999	5.0.10.0	5_exp_RW	69	Rpleas_acq	CS_B	MQQM	BZZB	YDDY	JXXJ	GWWG	VKKV	spielen	retten	ehrlich	fair	schön	treu	strafen	rächen	eitel	faul	schlecht	tot	1	acq_USpleas_CSpleas2_RW	acq3_RW	3	10	453	0	300	300	562	50	0	1	1	blank2r.bmp	0	1	+	0	1	blank2r.bmp	492	1	BZZB	492	1	blank2r.bmp	572	3	treu	866	1	!	1292	1	!	-1	0	0	0	0	0	0	0	0	0	0	0	0	0	0	0	0	0	0	0	0	0	0	0	0	0	0	0	0	0	0
071719	16:45:46	16:50:36	289265	5.0.10.0	5_exp_RW	69	Rpleas_acq	CS_B	MQQM	BZZB	YDDY	JXXJ	GWWG	VKKV	spielen	retten	ehrlich	fair	schön	treu	strafen	rächen	eitel	faul	schlecht	tot	1	acq_USpleas_CSpleas2_RW	acq3_RW	3	11	453	1	300	300	465	50	0	1	1	blank2r.bmp	0	1	+	0	1	blank2r.bmp	492	1	BZZB	492	1	blank2r.bmp	572	2	schön	866	1	!	1292	1	!	1359	0	0	0	0	0	0	0	0	0	0	0	0	0	0	0	0	0	0	0	0	0	0	0	0	0	0	0	0	0	0
071719	16:45:46	16:50:38	291584	5.0.10.0	5_exp_RW	69	Rpleas_acq	CS_B	MQQM	BZZB	YDDY	JXXJ	GWWG	VKKV	spielen	retten	ehrlich	fair	schön	treu	strafen	rächen	eitel	faul	schlecht	tot	1	acq_USunple_CSunple2_RW	acq3_RW	3	12	453	0	300	300	549	46	0	1	1	blank2r.bmp	0	1	+	0	1	blank2r.bmp	492	1	JXXJ	492	1	blank2r.bmp	572	3	tot	866	1	!	1292	1	!	-1	0	0	0	0	0	0	0	0	0	0	0	0	0	0	0	0	0	0	0	0	0	0	0	0	0	0	0	0	0	0
071719	16:45:46	16:50:41	294010	5.0.10.0	5_exp_RW	69	Rpleas_acq	CS_B	MQQM	BZZB	YDDY	JXXJ	GWWG	VKKV	spielen	retten	ehrlich	fair	schön	treu	strafen	rächen	eitel	faul	schlecht	tot	1	acq_USpleas_CSpleas1_RW	acq3_RW	3	13	453	1	300	300	404	46	0	0	1	blank2r.bmp	0	1	+	0	1	blank2r.bmp	492	1	MQQM	492	1	blank2r.bmp	572	2	retten	866	1	FEHLER	1625	1	!	1292	1	!	1306	0	0	0	0	0	0	0	0	0	0	0	0	0	0	0	0	0	0	0	0	0	0	0	0	0	0	0
071719	16:45:46	16:50:44	297568	5.0.10.0	5_exp_RW	69	Rpleas_acq	CS_B	MQQM	BZZB	YDDY	JXXJ	GWWG	VKKV	spielen	retten	ehrlich	fair	schön	treu	strafen	rächen	eitel	faul	schlecht	tot	1	acq_USpleas_CSpleas1_RW	acq3_RW	3	14	453	0	300	300	2004	50	0	1	1	blank2r.bmp	0	1	+	0	1	blank2r.bmp	492	1	MQQM	492	1	blank2r.bmp	572	1	spielen	866	1	!	1292	1	!	-1	0	0	0	0	0	0	0	0	0	0	0	0	0	0	0	0	0	0	0	0	0	0	0	0	0	0	0	0	0	0
071719	16:45:46	16:50:47	299900	5.0.10.0	5_exp_RW	69	Rpleas_acq	CS_B	MQQM	BZZB	YDDY	JXXJ	GWWG	VKKV	spielen	retten	ehrlich	fair	schön	treu	strafen	rächen	eitel	faul	schlecht	tot	1	acq_USunple_CSunple1_RW	acq3_RW	3	15	453	0	300	300	532	46	0	1	1	blank2r.bmp	0	1	+	0	1	blank2r.bmp	492	1	YDDY	492	1	blank2r.bmp	572	1	strafen	866	1	!	1292	1	!	-1	0	0	0	0	0	0	0	0	0	0	0	0	0	0	0	0	0	0	0	0	0	0	0	0	0	0	0	0	0	0
071719	16:45:46	16:50:49	302259	5.0.10.0	5_exp_RW	69	Rpleas_acq	CS_B	MQQM	BZZB	YDDY	JXXJ	GWWG	VKKV	spielen	retten	ehrlich	fair	schön	treu	strafen	rächen	eitel	faul	schlecht	tot	1	acq_USpleas_CSpleas2_RW	acq3_RW	3	16	453	0	300	300	580	50	0	1	1	blank2r.bmp	0	1	+	0	1	blank2r.bmp	492	1	BZZB	492	1	blank2r.bmp	572	1	fair	866	1	!	1292	1	!	-1	0	0	0	0	0	0	0	0	0	0	0	0	0	0	0	0	0	0	0	0	0	0	0	0	0	0	0	0	0	0
071719	16:45:46	16:50:51	304539	5.0.10.0	5_exp_RW	69	Rpleas_acq	CS_B	MQQM	BZZB	YDDY	JXXJ	GWWG	VKKV	spielen	retten	ehrlich	fair	schön	treu	strafen	rächen	eitel	faul	schlecht	tot	1	acq_USunple_CSunple2_RW	acq3_RW	3	17	453	1	300	300	469	46	0	1	1	blank2r.bmp	0	1	+	0	1	blank2r.bmp	492	1	JXXJ	492	1	blank2r.bmp	572	2	schlecht	866	1	!	1292	1	!	1372	0	0	0	0	0	0	0	0	0	0	0	0	0	0	0	0	0	0	0	0	0	0	0	0	0	0	0	0	0	0
071719	16:45:46	16:50:53	306764	5.0.10.0	5_exp_RW	69	Rpleas_acq	CS_B	MQQM	BZZB	YDDY	JXXJ	GWWG	VKKV	spielen	retten	ehrlich	fair	schön	treu	strafen	rächen	eitel	faul	schlecht	tot	1	acq_USunple_CSunple2_RW	acq3_RW	3	18	453	1	300	300	412	46	0	1	1	blank2r.bmp	0	1	+	0	1	blank2r.bmp	492	1	JXXJ	492	1	blank2r.bmp	572	1	faul	866	1	!	1292	1	!	1319	0	0	0	0	0	0	0	0	0	0	0	0	0	0	0	0	0	0	0	0	0	0	0	0	0	0	0	0	0	0
071719	16:45:46	16:50:56	309003	5.0.10.0	5_exp_RW	69	Rpleas_acq	CS_B	MQQM	BZZB	YDDY	JXXJ	GWWG	VKKV	spielen	retten	ehrlich	fair	schön	treu	strafen	rächen	eitel	faul	schlecht	tot	1	acq_USunple_CSunple1_RW	acq3_RW	3	19	453	1	300	300	450	46	0	1	1	blank2r.bmp	0	1	+	0	1	blank2r.bmp	492	1	YDDY	492	1	blank2r.bmp	572	2	rächen	866	1	!	1292	1	!	1346	0	0	0	0	0	0	0	0	0	0	0	0	0	0	0	0	0	0	0	0	0	0	0	0	0	0	0	0	0	0
071719	16:45:46	16:50:58	311416	5.0.10.0	5_exp_RW	69	Rpleas_acq	CS_B	MQQM	BZZB	YDDY	JXXJ	GWWG	VKKV	spielen	retten	ehrlich	fair	schön	treu	strafen	rächen	eitel	faul	schlecht	tot	1	acq_USunple_CSunple1_RW	acq3_RW	3	20	453	1	300	300	399	50	0	0	1	blank2r.bmp	0	1	+	0	1	blank2r.bmp	492	1	YDDY	492	1	blank2r.bmp	572	3	eitel	866	1	FEHLER	1625	1	!	1292	1	!	1306	0	0	0	0	0	0	0	0	0	0	0	0	0	0	0	0	0	0	0	0	0	0	0	0	0	0	0
071719	16:45:46	16:51:00	313495	5.0.10.0	5_exp_RW	69	Rpleas_acq	CS_B	MQQM	BZZB	YDDY	JXXJ	GWWG	VKKV	spielen	retten	ehrlich	fair	schön	treu	strafen	rächen	eitel	faul	schlecht	tot	1	acq_USunple_CSunple1_RW	acq3_RW	3	21	453	1	300	300	499	46	0	1	1	blank2r.bmp	0	1	+	0	1	blank2r.bmp	492	1	YDDY	492	1	blank2r.bmp	572	1	strafen	866	1	!	1292	1	!	1399	0	0	0	0	0	0	0	0	0	0	0	0	0	0	0	0	0	0	0	0	0	0	0	0	0	0	0	0	0	0
071719	16:45:46	16:51:02	315707	5.0.10.0	5_exp_RW	69	Rpleas_acq	CS_B	MQQM	BZZB	YDDY	JXXJ	GWWG	VKKV	spielen	retten	ehrlich	fair	schön	treu	strafen	rächen	eitel	faul	schlecht	tot	1	acq_USunple_CSunple1_RW	acq3_RW	3	22	453	1	300	300	399	46	0	1	1	blank2r.bmp	0	1	+	0	1	blank2r.bmp	492	1	YDDY	492	1	blank2r.bmp	572	3	eitel	866	1	!	1292	1	!	1306	0	0	0	0	0	0	0	0	0	0	0	0	0	0	0	0	0	0	0	0	0	0	0	0	0	0	0	0	0	0
071719	16:45:46	16:51:04	317800	5.0.10.0	5_exp_RW	69	Rpleas_acq	CS_B	MQQM	BZZB	YDDY	JXXJ	GWWG	VKKV	spielen	retten	ehrlich	fair	schön	treu	strafen	rächen	eitel	faul	schlecht	tot	1	acq_USpleas_CSpleas1_RW	acq3_RW	3	23	453	0	300	300	310	50	0	1	1	blank2r.bmp	0	1	+	0	1	blank2r.bmp	492	1	MQQM	492	1	blank2r.bmp	572	3	ehrlich	866	1	!	-1	1	!	-1	0	0	0	0	0	0	0	0	0	0	0	0	0	0	0	0	0	0	0	0	0	0	0	0	0	0	0	0	0	0
071719	16:45:46	16:51:07	320199	5.0.10.0	5_exp_RW	69	Rpleas_acq	CS_B	MQQM	BZZB	YDDY	JXXJ	GWWG	VKKV	spielen	retten	ehrlich	fair	schön	treu	strafen	rächen	eitel	faul	schlecht	tot	1	acq_USpleas_CSpleas2_RW	acq3_RW	3	24	453	0	300	300	620	50	0	1	1	blank2r.bmp	0	1	+	0	1	blank2r.bmp	492	1	BZZB	492	1	blank2r.bmp	572	1	fair	866	1	!	1292	1	!	-1	0	0	0	0	0	0	0	0	0	0	0	0	0	0	0	0	0	0	0	0	0	0	0	0	0	0	0	0	0	0
071719	16:45:46	16:51:26	339790	5.0.10.0	5_exp_RW	69	Rpleas_acq	CS_B	MQQM	BZZB	YDDY	JXXJ	GWWG	VKKV	spielen	retten	ehrlich	fair	schön	treu	strafen	rächen	eitel	faul	schlecht	tot	1	acq_USunple_CSunple2_RW	acq4567_RW	4	1	400	0	300	300	522	46	0	1	1	blank2r.bmp	0	1	+	0	1	blank2r.bmp	492	1	JXXJ	492	1	blank2r.bmp	572	3	tot	866	1	!	1239	1	!	-1	0	0	0	0	0	0	0	0	0	0	0	0	0	0	0	0	0	0	0	0	0	0	0	0	0	0	0	0	0	0
071719	16:45:46	16:51:29	341977	5.0.10.0	5_exp_RW	69	Rpleas_acq	CS_B	MQQM	BZZB	YDDY	JXXJ	GWWG	VKKV	spielen	retten	ehrlich	fair	schön	treu	strafen	rächen	eitel	faul	schlecht	tot	1	acq_USpleas_CSpleas1_RW	acq4567_RW	4	2	400	1	300	300	382	50	0	1	1	blank2r.bmp	0	1	+	0	1	blank2r.bmp	492	1	MQQM	492	1	blank2r.bmp	572	1	spielen	866	1	!	1239	1	!	1279	0	0	0	0	0	0	0	0	0	0	0	0	0	0	0	0	0	0	0	0	0	0	0	0	0	0	0	0	0	0
071719	16:45:46	16:51:31	344122	5.0.10.0	5_exp_RW	69	Rpleas_acq	CS_B	MQQM	BZZB	YDDY	JXXJ	GWWG	VKKV	spielen	retten	ehrlich	fair	schön	treu	strafen	rächen	eitel	faul	schlecht	tot	1	acq_USpleas_CSpleas2_RW	acq4567_RW	4	3	400	1	300	300	352	50	0	1	1	blank2r.bmp	0	1	+	0	1	blank2r.bmp	492	1	BZZB	492	1	blank2r.bmp	572	2	schön	866	1	!	1239	1	!	1252	0	0	0	0	0	0	0	0	0	0	0	0	0	0	0	0	0	0	0	0	0	0	0	0	0	0	0	0	0	0
071719	16:45:46	16:51:33	346374	5.0.10.0	5_exp_RW	69	Rpleas_acq	CS_B	MQQM	BZZB	YDDY	JXXJ	GWWG	VKKV	spielen	retten	ehrlich	fair	schön	treu	strafen	rächen	eitel	faul	schlecht	tot	1	acq_USpleas_CSpleas2_RW	acq4567_RW	4	4	400	0	300	300	479	50	0	1	1	blank2r.bmp	0	1	+	0	1	blank2r.bmp	492	1	BZZB	492	1	blank2r.bmp	572	3	treu	866	1	!	1239	1	!	-1	0	0	0	0	0	0	0	0	0	0	0	0	0	0	0	0	0	0	0	0	0	0	0	0	0	0	0	0	0	0
071719	16:45:46	16:51:35	348587	5.0.10.0	5_exp_RW	69	Rpleas_acq	CS_B	MQQM	BZZB	YDDY	JXXJ	GWWG	VKKV	spielen	retten	ehrlich	fair	schön	treu	strafen	rächen	eitel	faul	schlecht	tot	1	acq_USpleas_CSpleas2_RW	acq4567_RW	4	5	400	1	300	300	406	50	0	1	1	blank2r.bmp	0	1	+	0	1	blank2r.bmp	492	1	BZZB	492	1	blank2r.bmp	572	1	fair	866	1	!	1239	1	!	1306	0	0	0	0	0	0	0	0	0	0	0	0	0	0	0	0	0	0	0	0	0	0	0	0	0	0	0	0	0	0
071719	16:45:46	16:51:37	350746	5.0.10.0	5_exp_RW	69	Rpleas_acq	CS_B	MQQM	BZZB	YDDY	JXXJ	GWWG	VKKV	spielen	retten	ehrlich	fair	schön	treu	strafen	rächen	eitel	faul	schlecht	tot	1	acq_USunple_CSunple2_RW	acq4567_RW	4	6	400	1	300	300	364	46	0	1	1	blank2r.bmp	0	1	+	0	1	blank2r.bmp	492	1	JXXJ	492	1	blank2r.bmp	572	2	schlecht	866	1	!	1239	1	!	1266	0	0	0	0	0	0	0	0	0	0	0	0	0	0	0	0	0	0	0	0	0	0	0	0	0	0	0	0	0	0
071719	16:45:46	16:51:40	352852	5.0.10.0	5_exp_RW	69	Rpleas_acq	CS_B	MQQM	BZZB	YDDY	JXXJ	GWWG	VKKV	spielen	retten	ehrlich	fair	schön	treu	strafen	rächen	eitel	faul	schlecht	tot	1	acq_USunple_CSunple1_RW	acq4567_RW	4	7	400	0	300	300	324	50	0	0	1	blank2r.bmp	0	1	+	0	1	blank2r.bmp	492	1	YDDY	492	1	blank2r.bmp	572	2	rächen	866	1	!	-1	1	!	-1	0	0	0	0	0	0	0	0	0	0	0	0	0	0	0	0	0	0	0	0	0	0	0	0	0	0	0	0	0	0
071719	16:45:46	16:51:42	355037	5.0.10.0	5_exp_RW	69	Rpleas_acq	CS_B	MQQM	BZZB	YDDY	JXXJ	GWWG	VKKV	spielen	retten	ehrlich	fair	schön	treu	strafen	rächen	eitel	faul	schlecht	tot	1	acq_USpleas_CSpleas1_RW	acq4567_RW	4	8	400	1	300	300	372	50	0	1	1	blank2r.bmp	0	1	+	0	1	blank2r.bmp	492	1	MQQM	492	1	blank2r.bmp	572	2	retten	866	1	!	1239	1	!	1279	0	0	0	0	0	0	0	0	0	0	0	0	0	0	0	0	0	0	0	0	0	0	0	0	0	0	0	0	0	0
071719	16:45:46	16:51:44	357290	5.0.10.0	5_exp_RW	69	Rpleas_acq	CS_B	MQQM	BZZB	YDDY	JXXJ	GWWG	VKKV	spielen	retten	ehrlich	fair	schön	treu	strafen	rächen	eitel	faul	schlecht	tot	1	acq_USunple_CSunple1_RW	acq4567_RW	4	9	400	1	300	300	439	46	0	1	1	blank2r.bmp	0	1	+	0	1	blank2r.bmp	492	1	YDDY	492	1	blank2r.bmp	572	1	strafen	866	1	!	1239	1	!	1346	0	0	0	0	0	0	0	0	0	0	0	0	0	0	0	0	0	0	0	0	0	0	0	0	0	0	0	0	0	0
071719	16:45:46	16:51:46	359436	5.0.10.0	5_exp_RW	69	Rpleas_acq	CS_B	MQQM	BZZB	YDDY	JXXJ	GWWG	VKKV	spielen	retten	ehrlich	fair	schön	treu	strafen	rächen	eitel	faul	schlecht	tot	1	acq_USpleas_CSpleas2_RW	acq4567_RW	4	10	400	1	300	300	346	50	0	1	1	blank2r.bmp	0	1	+	0	1	blank2r.bmp	492	1	BZZB	492	1	blank2r.bmp	572	3	treu	866	1	!	1239	1	!	1252	0	0	0	0	0	0	0	0	0	0	0	0	0	0	0	0	0	0	0	0	0	0	0	0	0	0	0	0	0	0
071719	16:45:46	16:51:48	361608	5.0.10.0	5_exp_RW	69	Rpleas_acq	CS_B	MQQM	BZZB	YDDY	JXXJ	GWWG	VKKV	spielen	retten	ehrlich	fair	schön	treu	strafen	rächen	eitel	faul	schlecht	tot	1	acq_USunple_CSunple1_RW	acq4567_RW	4	11	400	1	300	300	363	50	0	0	1	blank2r.bmp	0	1	+	0	1	blank2r.bmp	492	1	YDDY	492	1	blank2r.bmp	572	3	eitel	866	1	!	1239	1	!	1266	0	0	0	0	0	0	0	0	0	0	0	0	0	0	0	0	0	0	0	0	0	0	0	0	0	0	0	0	0	0
071719	16:45:46	16:51:51	363847	5.0.10.0	5_exp_RW	69	Rpleas_acq	CS_B	MQQM	BZZB	YDDY	JXXJ	GWWG	VKKV	spielen	retten	ehrlich	fair	schön	treu	strafen	rächen	eitel	faul	schlecht	tot	1	acq_USunple_CSunple1_RW	acq4567_RW	4	12	400	1	300	300	443	50	0	0	1	blank2r.bmp	0	1	+	0	1	blank2r.bmp	492	1	YDDY	492	1	blank2r.bmp	572	2	rächen	866	1	!	1239	1	!	1346	0	0	0	0	0	0	0	0	0	0	0	0	0	0	0	0	0	0	0	0	0	0	0	0	0	0	0	0	0	0
071719	16:45:46	16:51:53	366046	5.0.10.0	5_exp_RW	69	Rpleas_acq	CS_B	MQQM	BZZB	YDDY	JXXJ	GWWG	VKKV	spielen	retten	ehrlich	fair	schön	treu	strafen	rächen	eitel	faul	schlecht	tot	1	acq_USpleas_CSpleas1_RW	acq4567_RW	4	13	400	1	300	300	406	50	0	1	1	blank2r.bmp	0	1	+	0	1	blank2r.bmp	492	1	MQQM	492	1	blank2r.bmp	572	1	spielen	866	1	!	1239	1	!	1306	0	0	0	0	0	0	0	0	0	0	0	0	0	0	0	0	0	0	0	0	0	0	0	0	0	0	0	0	0	0
071719	16:45:46	16:51:55	368205	5.0.10.0	5_exp_RW	69	Rpleas_acq	CS_B	MQQM	BZZB	YDDY	JXXJ	GWWG	VKKV	spielen	retten	ehrlich	fair	schön	treu	strafen	rächen	eitel	faul	schlecht	tot	1	acq_USpleas_CSpleas2_RW	acq4567_RW	4	14	400	1	300	300	364	50	0	1	1	blank2r.bmp	0	1	+	0	1	blank2r.bmp	492	1	BZZB	492	1	blank2r.bmp	572	2	schön	866	1	!	1239	1	!	1266	0	0	0	0	0	0	0	0	0	0	0	0	0	0	0	0	0	0	0	0	0	0	0	0	0	0	0	0	0	0
071719	16:45:46	16:51:57	370351	5.0.10.0	5_exp_RW	69	Rpleas_acq	CS_B	MQQM	BZZB	YDDY	JXXJ	GWWG	VKKV	spielen	retten	ehrlich	fair	schön	treu	strafen	rächen	eitel	faul	schlecht	tot	1	acq_USunple_CSunple2_RW	acq4567_RW	4	15	400	1	300	300	355	46	0	1	1	blank2r.bmp	0	1	+	0	1	blank2r.bmp	492	1	JXXJ	492	1	blank2r.bmp	572	3	tot	866	1	!	1239	1	!	1252	0	0	0	0	0	0	0	0	0	0	0	0	0	0	0	0	0	0	0	0	0	0	0	0	0	0	0	0	0	0
071719	16:45:46	16:51:59	372603	5.0.10.0	5_exp_RW	69	Rpleas_acq	CS_B	MQQM	BZZB	YDDY	JXXJ	GWWG	VKKV	spielen	retten	ehrlich	fair	schön	treu	strafen	rächen	eitel	faul	schlecht	tot	1	acq_USpleas_CSpleas1_RW	acq4567_RW	4	16	400	0	300	300	479	50	0	1	1	blank2r.bmp	0	1	+	0	1	blank2r.bmp	492	1	MQQM	492	1	blank2r.bmp	572	3	ehrlich	866	1	!	1239	1	!	-1	0	0	0	0	0	0	0	0	0	0	0	0	0	0	0	0	0	0	0	0	0	0	0	0	0	0	0	0	0	0
071719	16:45:46	16:52:01	374722	5.0.10.0	5_exp_RW	69	Rpleas_acq	CS_B	MQQM	BZZB	YDDY	JXXJ	GWWG	VKKV	spielen	retten	ehrlich	fair	schön	treu	strafen	rächen	eitel	faul	schlecht	tot	1	acq_USunple_CSunple2_RW	acq4567_RW	4	17	400	0	300	300	329	46	0	1	1	blank2r.bmp	0	1	+	0	1	blank2r.bmp	492	1	JXXJ	492	1	blank2r.bmp	572	1	faul	866	1	!	-1	1	!	-1	0	0	0	0	0	0	0	0	0	0	0	0	0	0	0	0	0	0	0	0	0	0	0	0	0	0	0	0	0	0
071719	16:45:46	16:52:04	376988	5.0.10.0	5_exp_RW	69	Rpleas_acq	CS_B	MQQM	BZZB	YDDY	JXXJ	GWWG	VKKV	spielen	retten	ehrlich	fair	schön	treu	strafen	rächen	eitel	faul	schlecht	tot	1	acq_USunple_CSunple2_RW	acq4567_RW	4	18	400	0	300	300	479	46	0	1	1	blank2r.bmp	0	1	+	0	1	blank2r.bmp	492	1	JXXJ	492	1	blank2r.bmp	572	2	schlecht	866	1	!	1239	1	!	-1	0	0	0	0	0	0	0	0	0	0	0	0	0	0	0	0	0	0	0	0	0	0	0	0	0	0	0	0	0	0
071719	16:45:46	16:52:06	379187	5.0.10.0	5_exp_RW	69	Rpleas_acq	CS_B	MQQM	BZZB	YDDY	JXXJ	GWWG	VKKV	spielen	retten	ehrlich	fair	schön	treu	strafen	rächen	eitel	faul	schlecht	tot	1	acq_USunple_CSunple1_RW	acq4567_RW	4	19	400	1	300	300	375	46	0	1	1	blank2r.bmp	0	1	+	0	1	blank2r.bmp	492	1	YDDY	492	1	blank2r.bmp	572	1	strafen	866	1	!	1239	1	!	1279	0	0	0	0	0	0	0	0	0	0	0	0	0	0	0	0	0	0	0	0	0	0	0	0	0	0	0	0	0	0
071719	16:45:46	16:52:08	381426	5.0.10.0	5_exp_RW	69	Rpleas_acq	CS_B	MQQM	BZZB	YDDY	JXXJ	GWWG	VKKV	spielen	retten	ehrlich	fair	schön	treu	strafen	rächen	eitel	faul	schlecht	tot	1	acq_USpleas_CSpleas1_RW	acq4567_RW	4	20	400	1	300	300	446	50	0	1	1	blank2r.bmp	0	1	+	0	1	blank2r.bmp	492	1	MQQM	492	1	blank2r.bmp	572	2	retten	866	1	!	1239	1	!	1346	0	0	0	0	0	0	0	0	0	0	0	0	0	0	0	0	0	0	0	0	0	0	0	0	0	0	0	0	0	0
071719	16:45:46	16:52:10	383679	5.0.10.0	5_exp_RW	69	Rpleas_acq	CS_B	MQQM	BZZB	YDDY	JXXJ	GWWG	VKKV	spielen	retten	ehrlich	fair	schön	treu	strafen	rächen	eitel	faul	schlecht	tot	1	acq_USunple_CSunple1_RW	acq4567_RW	4	21	400	1	300	300	460	46	0	1	1	blank2r.bmp	0	1	+	0	1	blank2r.bmp	492	1	YDDY	492	1	blank2r.bmp	572	3	eitel	866	1	!	1239	1	!	1359	0	0	0	0	0	0	0	0	0	0	0	0	0	0	0	0	0	0	0	0	0	0	0	0	0	0	0	0	0	0
071719	16:45:46	16:52:13	386011	5.0.10.0	5_exp_RW	69	Rpleas_acq	CS_B	MQQM	BZZB	YDDY	JXXJ	GWWG	VKKV	spielen	retten	ehrlich	fair	schön	treu	strafen	rächen	eitel	faul	schlecht	tot	1	acq_USpleas_CSpleas2_RW	acq4567_RW	4	22	400	0	300	300	555	50	0	1	1	blank2r.bmp	0	1	+	0	1	blank2r.bmp	492	1	BZZB	492	1	blank2r.bmp	572	3	treu	866	1	!	1239	1	!	-1	0	0	0	0	0	0	0	0	0	0	0	0	0	0	0	0	0	0	0	0	0	0	0	0	0	0	0	0	0	0
071719	16:45:46	16:52:15	388277	5.0.10.0	5_exp_RW	69	Rpleas_acq	CS_B	MQQM	BZZB	YDDY	JXXJ	GWWG	VKKV	spielen	retten	ehrlich	fair	schön	treu	strafen	rächen	eitel	faul	schlecht	tot	1	acq_USpleas_CSpleas1_RW	acq4567_RW	4	23	400	0	300	300	485	46	0	0	1	blank2r.bmp	0	1	+	0	1	blank2r.bmp	492	1	MQQM	492	1	blank2r.bmp	572	2	retten	866	1	!	1239	1	!	-1	0	0	0	0	0	0	0	0	0	0	0	0	0	0	0	0	0	0	0	0	0	0	0	0	0	0	0	0	0	0
071719	16:45:46	16:52:17	390449	5.0.10.0	5_exp_RW	69	Rpleas_acq	CS_B	MQQM	BZZB	YDDY	JXXJ	GWWG	VKKV	spielen	retten	ehrlich	fair	schön	treu	strafen	rächen	eitel	faul	schlecht	tot	1	acq_USunple_CSunple1_RW	acq4567_RW	4	24	400	1	300	300	362	46	0	1	1	blank2r.bmp	0	1	+	0	1	blank2r.bmp	492	1	YDDY	492	1	blank2r.bmp	572	2	rächen	866	1	!	1239	1	!	1266	0	0	0	0	0	0	0	0	0	0	0	0	0	0	0	0	0	0	0	0	0	0	0	0	0	0	0	0	0	0
071719	16:45:46	16:52:19	392595	5.0.10.0	5_exp_RW	69	Rpleas_acq	CS_B	MQQM	BZZB	YDDY	JXXJ	GWWG	VKKV	spielen	retten	ehrlich	fair	schön	treu	strafen	rächen	eitel	faul	schlecht	tot	1	acq_USpleas_CSpleas2_RW	acq4567_RW	4	25	400	1	300	300	346	50	0	1	1	blank2r.bmp	0	1	+	0	1	blank2r.bmp	492	1	BZZB	492	1	blank2r.bmp	572	1	fair	866	1	!	1239	1	!	1252	0	0	0	0	0	0	0	0	0	0	0	0	0	0	0	0	0	0	0	0	0	0	0	0	0	0	0	0	0	0
071719	16:45:46	16:52:21	394754	5.0.10.0	5_exp_RW	69	Rpleas_acq	CS_B	MQQM	BZZB	YDDY	JXXJ	GWWG	VKKV	spielen	retten	ehrlich	fair	schön	treu	strafen	rächen	eitel	faul	schlecht	tot	1	acq_USpleas_CSpleas1_RW	acq4567_RW	4	26	400	1	300	300	365	50	0	1	1	blank2r.bmp	0	1	+	0	1	blank2r.bmp	492	1	MQQM	492	1	blank2r.bmp	572	3	ehrlich	866	1	!	1239	1	!	1266	0	0	0	0	0	0	0	0	0	0	0	0	0	0	0	0	0	0	0	0	0	0	0	0	0	0	0	0	0	0
071719	16:45:46	16:52:24	396967	5.0.10.0	5_exp_RW	69	Rpleas_acq	CS_B	MQQM	BZZB	YDDY	JXXJ	GWWG	VKKV	spielen	retten	ehrlich	fair	schön	treu	strafen	rächen	eitel	faul	schlecht	tot	1	acq_USunple_CSunple1_RW	acq4567_RW	4	27	400	1	300	300	402	46	0	1	1	blank2r.bmp	0	1	+	0	1	blank2r.bmp	492	1	YDDY	492	1	blank2r.bmp	572	1	strafen	866	1	!	1239	1	!	1306	0	0	0	0	0	0	0	0	0	0	0	0	0	0	0	0	0	0	0	0	0	0	0	0	0	0	0	0	0	0
071719	16:45:46	16:52:26	399219	5.0.10.0	5_exp_RW	69	Rpleas_acq	CS_B	MQQM	BZZB	YDDY	JXXJ	GWWG	VKKV	spielen	retten	ehrlich	fair	schön	treu	strafen	rächen	eitel	faul	schlecht	tot	1	acq_USpleas_CSpleas2_RW	acq4567_RW	4	28	400	1	300	300	459	50	0	1	1	blank2r.bmp	0	1	+	0	1	blank2r.bmp	492	1	BZZB	492	1	blank2r.bmp	572	2	schön	866	1	!	1239	1	!	1359	0	0	0	0	0	0	0	0	0	0	0	0	0	0	0	0	0	0	0	0	0	0	0	0	0	0	0	0	0	0
071719	16:45:46	16:52:28	401391	5.0.10.0	5_exp_RW	69	Rpleas_acq	CS_B	MQQM	BZZB	YDDY	JXXJ	GWWG	VKKV	spielen	retten	ehrlich	fair	schön	treu	strafen	rächen	eitel	faul	schlecht	tot	1	acq_USunple_CSunple2_RW	acq4567_RW	4	29	400	1	300	300	379	46	0	1	1	blank2r.bmp	0	1	+	0	1	blank2r.bmp	492	1	JXXJ	492	1	blank2r.bmp	572	2	schlecht	866	1	!	1239	1	!	1279	0	0	0	0	0	0	0	0	0	0	0	0	0	0	0	0	0	0	0	0	0	0	0	0	0	0	0	0	0	0
071719	16:45:46	16:52:30	403644	5.0.10.0	5_exp_RW	69	Rpleas_acq	CS_B	MQQM	BZZB	YDDY	JXXJ	GWWG	VKKV	spielen	retten	ehrlich	fair	schön	treu	strafen	rächen	eitel	faul	schlecht	tot	1	acq_USunple_CSunple2_RW	acq4567_RW	4	30	400	1	300	300	453	46	0	1	1	blank2r.bmp	0	1	+	0	1	blank2r.bmp	492	1	JXXJ	492	1	blank2r.bmp	572	1	faul	866	1	!	1239	1	!	1359	0	0	0	0	0	0	0	0	0	0	0	0	0	0	0	0	0	0	0	0	0	0	0	0	0	0	0	0	0	0
071719	16:45:46	16:52:33	405816	5.0.10.0	5_exp_RW	69	Rpleas_acq	CS_B	MQQM	BZZB	YDDY	JXXJ	GWWG	VKKV	spielen	retten	ehrlich	fair	schön	treu	strafen	rächen	eitel	faul	schlecht	tot	1	acq_USpleas_CSpleas1_RW	acq4567_RW	4	31	400	1	300	300	377	50	0	1	1	blank2r.bmp	0	1	+	0	1	blank2r.bmp	492	1	MQQM	492	1	blank2r.bmp	572	1	spielen	866	1	!	1239	1	!	1279	0	0	0	0	0	0	0	0	0	0	0	0	0	0	0	0	0	0	0	0	0	0	0	0	0	0	0	0	0	0
071719	16:45:46	16:52:35	408042	5.0.10.0	5_exp_RW	69	Rpleas_acq	CS_B	MQQM	BZZB	YDDY	JXXJ	GWWG	VKKV	spielen	retten	ehrlich	fair	schön	treu	strafen	rächen	eitel	faul	schlecht	tot	1	acq_USunple_CSunple1_RW	acq4567_RW	4	32	400	1	300	300	425	46	0	1	1	blank2r.bmp	0	1	+	0	1	blank2r.bmp	492	1	YDDY	492	1	blank2r.bmp	572	1	strafen	866	1	!	1239	1	!	1332	0	0	0	0	0	0	0	0	0	0	0	0	0	0	0	0	0	0	0	0	0	0	0	0	0	0	0	0	0	0
071719	16:45:46	16:52:37	410188	5.0.10.0	5_exp_RW	69	Rpleas_acq	CS_B	MQQM	BZZB	YDDY	JXXJ	GWWG	VKKV	spielen	retten	ehrlich	fair	schön	treu	strafen	rächen	eitel	faul	schlecht	tot	1	acq_USpleas_CSpleas2_RW	acq4567_RW	4	33	400	1	300	300	346	50	0	1	1	blank2r.bmp	0	1	+	0	1	blank2r.bmp	492	1	BZZB	492	1	blank2r.bmp	572	2	schön	866	1	!	1239	1	!	1252	0	0	0	0	0	0	0	0	0	0	0	0	0	0	0	0	0	0	0	0	0	0	0	0	0	0	0	0	0	0
071719	16:45:46	16:52:39	412440	5.0.10.0	5_exp_RW	69	Rpleas_acq	CS_B	MQQM	BZZB	YDDY	JXXJ	GWWG	VKKV	spielen	retten	ehrlich	fair	schön	treu	strafen	rächen	eitel	faul	schlecht	tot	1	acq_USpleas_CSpleas1_RW	acq4567_RW	4	34	400	0	300	300	479	50	0	1	1	blank2r.bmp	0	1	+	0	1	blank2r.bmp	492	1	MQQM	492	1	blank2r.bmp	572	3	ehrlich	866	1	!	1239	1	!	-1	0	0	0	0	0	0	0	0	0	0	0	0	0	0	0	0	0	0	0	0	0	0	0	0	0	0	0	0	0	0
071719	16:45:46	16:52:41	414599	5.0.10.0	5_exp_RW	69	Rpleas_acq	CS_B	MQQM	BZZB	YDDY	JXXJ	GWWG	VKKV	spielen	retten	ehrlich	fair	schön	treu	strafen	rächen	eitel	faul	schlecht	tot	1	acq_USunple_CSunple1_RW	acq4567_RW	4	35	400	1	300	300	346	46	0	1	1	blank2r.bmp	0	1	+	0	1	blank2r.bmp	492	1	YDDY	492	1	blank2r.bmp	572	3	eitel	866	1	!	1239	1	!	1252	0	0	0	0	0	0	0	0	0	0	0	0	0	0	0	0	0	0	0	0	0	0	0	0	0	0	0	0	0	0
071719	16:45:46	16:52:44	416878	5.0.10.0	5_exp_RW	69	Rpleas_acq	CS_B	MQQM	BZZB	YDDY	JXXJ	GWWG	VKKV	spielen	retten	ehrlich	fair	schön	treu	strafen	rächen	eitel	faul	schlecht	tot	1	acq_USunple_CSunple2_RW	acq4567_RW	4	36	400	0	300	300	512	46	0	1	1	blank2r.bmp	0	1	+	0	1	blank2r.bmp	492	1	JXXJ	492	1	blank2r.bmp	572	3	tot	866	1	!	1239	1	!	-1	0	0	0	0	0	0	0	0	0	0	0	0	0	0	0	0	0	0	0	0	0	0	0	0	0	0	0	0	0	0
071719	16:45:46	16:52:46	419157	5.0.10.0	5_exp_RW	69	Rpleas_acq	CS_B	MQQM	BZZB	YDDY	JXXJ	GWWG	VKKV	spielen	retten	ehrlich	fair	schön	treu	strafen	rächen	eitel	faul	schlecht	tot	1	acq_USunple_CSunple2_RW	acq4567_RW	4	37	400	0	300	300	499	46	0	1	1	blank2r.bmp	0	1	+	0	1	blank2r.bmp	492	1	JXXJ	492	1	blank2r.bmp	572	2	schlecht	866	1	!	1239	1	!	-1	0	0	0	0	0	0	0	0	0	0	0	0	0	0	0	0	0	0	0	0	0	0	0	0	0	0	0	0	0	0
071719	16:45:46	16:52:48	421263	5.0.10.0	5_exp_RW	69	Rpleas_acq	CS_B	MQQM	BZZB	YDDY	JXXJ	GWWG	VKKV	spielen	retten	ehrlich	fair	schön	treu	strafen	rächen	eitel	faul	schlecht	tot	1	acq_USpleas_CSpleas2_RW	acq4567_RW	4	38	400	0	300	300	331	46	0	0	1	blank2r.bmp	0	1	+	0	1	blank2r.bmp	492	1	BZZB	492	1	blank2r.bmp	572	3	treu	866	1	!	-1	1	!	-1	0	0	0	0	0	0	0	0	0	0	0	0	0	0	0	0	0	0	0	0	0	0	0	0	0	0	0	0	0	0
071719	16:45:46	16:52:50	423515	5.0.10.0	5_exp_RW	69	Rpleas_acq	CS_B	MQQM	BZZB	YDDY	JXXJ	GWWG	VKKV	spielen	retten	ehrlich	fair	schön	treu	strafen	rächen	eitel	faul	schlecht	tot	1	acq_USpleas_CSpleas1_RW	acq4567_RW	4	39	400	1	300	300	440	50	0	1	1	blank2r.bmp	0	1	+	0	1	blank2r.bmp	492	1	MQQM	492	1	blank2r.bmp	572	1	spielen	866	1	!	1239	1	!	1346	0	0	0	0	0	0	0	0	0	0	0	0	0	0	0	0	0	0	0	0	0	0	0	0	0	0	0	0	0	0
071719	16:45:46	16:52:52	425661	5.0.10.0	5_exp_RW	69	Rpleas_acq	CS_B	MQQM	BZZB	YDDY	JXXJ	GWWG	VKKV	spielen	retten	ehrlich	fair	schön	treu	strafen	rächen	eitel	faul	schlecht	tot	1	acq_USunple_CSunple2_RW	acq4567_RW	4	40	400	1	300	300	346	46	0	1	1	blank2r.bmp	0	1	+	0	1	blank2r.bmp	492	1	JXXJ	492	1	blank2r.bmp	572	3	tot	866	1	!	1239	1	!	1252	0	0	0	0	0	0	0	0	0	0	0	0	0	0	0	0	0	0	0	0	0	0	0	0	0	0	0	0	0	0
071719	16:45:46	16:52:55	427820	5.0.10.0	5_exp_RW	69	Rpleas_acq	CS_B	MQQM	BZZB	YDDY	JXXJ	GWWG	VKKV	spielen	retten	ehrlich	fair	schön	treu	strafen	rächen	eitel	faul	schlecht	tot	1	acq_USunple_CSunple2_RW	acq4567_RW	4	41	400	1	300	300	369	50	0	0	1	blank2r.bmp	0	1	+	0	1	blank2r.bmp	492	1	JXXJ	492	1	blank2r.bmp	572	1	faul	866	1	!	1239	1	!	1266	0	0	0	0	0	0	0	0	0	0	0	0	0	0	0	0	0	0	0	0	0	0	0	0	0	0	0	0	0	0
071719	16:45:46	16:52:57	430046	5.0.10.0	5_exp_RW	69	Rpleas_acq	CS_B	MQQM	BZZB	YDDY	JXXJ	GWWG	VKKV	spielen	retten	ehrlich	fair	schön	treu	strafen	rächen	eitel	faul	schlecht	tot	1	acq_USunple_CSunple2_RW	acq4567_RW	4	42	400	1	300	300	430	46	0	1	1	blank2r.bmp	0	1	+	0	1	blank2r.bmp	492	1	JXXJ	492	1	blank2r.bmp	572	3	tot	866	1	!	1239	1	!	1332	0	0	0	0	0	0	0	0	0	0	0	0	0	0	0	0	0	0	0	0	0	0	0	0	0	0	0	0	0	0
071719	16:45:46	16:52:59	432298	5.0.10.0	5_exp_RW	69	Rpleas_acq	CS_B	MQQM	BZZB	YDDY	JXXJ	GWWG	VKKV	spielen	retten	ehrlich	fair	schön	treu	strafen	rächen	eitel	faul	schlecht	tot	1	acq_USpleas_CSpleas2_RW	acq4567_RW	4	43	400	1	300	300	456	50	0	1	1	blank2r.bmp	0	1	+	0	1	blank2r.bmp	492	1	BZZB	492	1	blank2r.bmp	572	1	fair	866	1	!	1239	1	!	1359	0	0	0	0	0	0	0	0	0	0	0	0	0	0	0	0	0	0	0	0	0	0	0	0	0	0	0	0	0	0
071719	16:45:46	16:53:01	434511	5.0.10.0	5_exp_RW	69	Rpleas_acq	CS_B	MQQM	BZZB	YDDY	JXXJ	GWWG	VKKV	spielen	retten	ehrlich	fair	schön	treu	strafen	rächen	eitel	faul	schlecht	tot	1	acq_USpleas_CSpleas1_RW	acq4567_RW	4	44	400	1	300	300	423	50	0	1	1	blank2r.bmp	0	1	+	0	1	blank2r.bmp	492	1	MQQM	492	1	blank2r.bmp	572	2	retten	866	1	!	1239	1	!	1319	0	0	0	0	0	0	0	0	0	0	0	0	0	0	0	0	0	0	0	0	0	0	0	0	0	0	0	0	0	0
071719	16:45:46	16:53:03	436737	5.0.10.0	5_exp_RW	69	Rpleas_acq	CS_B	MQQM	BZZB	YDDY	JXXJ	GWWG	VKKV	spielen	retten	ehrlich	fair	schön	treu	strafen	rächen	eitel	faul	schlecht	tot	1	acq_USunple_CSunple1_RW	acq4567_RW	4	45	400	1	300	300	435	46	0	1	1	blank2r.bmp	0	1	+	0	1	blank2r.bmp	492	1	YDDY	492	1	blank2r.bmp	572	2	rächen	866	1	!	1239	1	!	1332	0	0	0	0	0	0	0	0	0	0	0	0	0	0	0	0	0	0	0	0	0	0	0	0	0	0	0	0	0	0
071719	16:45:46	16:53:06	438936	5.0.10.0	5_exp_RW	69	Rpleas_acq	CS_B	MQQM	BZZB	YDDY	JXXJ	GWWG	VKKV	spielen	retten	ehrlich	fair	schön	treu	strafen	rächen	eitel	faul	schlecht	tot	1	acq_USpleas_CSpleas2_RW	acq4567_RW	4	46	400	1	300	300	399	46	0	0	1	blank2r.bmp	0	1	+	0	1	blank2r.bmp	492	1	BZZB	492	1	blank2r.bmp	572	3	treu	866	1	!	1239	1	!	1306	0	0	0	0	0	0	0	0	0	0	0	0	0	0	0	0	0	0	0	0	0	0	0	0	0	0	0	0	0	0
071719	16:45:46	16:53:08	441081	5.0.10.0	5_exp_RW	69	Rpleas_acq	CS_B	MQQM	BZZB	YDDY	JXXJ	GWWG	VKKV	spielen	retten	ehrlich	fair	schön	treu	strafen	rächen	eitel	faul	schlecht	tot	1	acq_USunple_CSunple2_RW	acq4567_RW	4	47	400	1	300	300	346	46	0	1	1	blank2r.bmp	0	1	+	0	1	blank2r.bmp	492	1	JXXJ	492	1	blank2r.bmp	572	1	faul	866	1	!	1239	1	!	1252	0	0	0	0	0	0	0	0	0	0	0	0	0	0	0	0	0	0	0	0	0	0	0	0	0	0	0	0	0	0
071719	16:45:46	16:53:10	443174	5.0.10.0	5_exp_RW	69	Rpleas_acq	CS_B	MQQM	BZZB	YDDY	JXXJ	GWWG	VKKV	spielen	retten	ehrlich	fair	schön	treu	strafen	rächen	eitel	faul	schlecht	tot	1	acq_USpleas_CSpleas1_RW	acq4567_RW	4	48	400	0	300	300	322	50	0	1	1	blank2r.bmp	0	1	+	0	1	blank2r.bmp	492	1	MQQM	492	1	blank2r.bmp	572	1	spielen	866	1	!	-1	1	!	-1	0	0	0	0	0	0	0	0	0	0	0	0	0	0	0	0	0	0	0	0	0	0	0	0	0	0	0	0	0	0
071719	16:45:46	16:53:12	445293	5.0.10.0	5_exp_RW	69	Rpleas_acq	CS_B	MQQM	BZZB	YDDY	JXXJ	GWWG	VKKV	spielen	retten	ehrlich	fair	schön	treu	strafen	rächen	eitel	faul	schlecht	tot	1	acq_USunple_CSunple1_RW	acq4567_RW	4	49	400	0	300	300	331	46	0	1	1	blank2r.bmp	0	1	+	0	1	blank2r.bmp	492	1	YDDY	492	1	blank2r.bmp	572	3	eitel	866	1	!	-1	1	!	-1	0	0	0	0	0	0	0	0	0	0	0	0	0	0	0	0	0	0	0	0	0	0	0	0	0	0	0	0	0	0
071719	16:45:46	16:53:14	447452	5.0.10.0	5_exp_RW	69	Rpleas_acq	CS_B	MQQM	BZZB	YDDY	JXXJ	GWWG	VKKV	spielen	retten	ehrlich	fair	schön	treu	strafen	rächen	eitel	faul	schlecht	tot	1	acq_USunple_CSunple2_RW	acq4567_RW	4	50	400	1	300	300	350	46	0	1	1	blank2r.bmp	0	1	+	0	1	blank2r.bmp	492	1	JXXJ	492	1	blank2r.bmp	572	2	schlecht	866	1	!	1239	1	!	1252	0	0	0	0	0	0	0	0	0	0	0	0	0	0	0	0	0	0	0	0	0	0	0	0	0	0	0	0	0	0
071719	16:45:46	16:53:16	449624	5.0.10.0	5_exp_RW	69	Rpleas_acq	CS_B	MQQM	BZZB	YDDY	JXXJ	GWWG	VKKV	spielen	retten	ehrlich	fair	schön	treu	strafen	rächen	eitel	faul	schlecht	tot	1	acq_USpleas_CSpleas2_RW	acq4567_RW	4	51	400	1	300	300	376	50	0	1	1	blank2r.bmp	0	1	+	0	1	blank2r.bmp	492	1	BZZB	492	1	blank2r.bmp	572	1	fair	866	1	!	1239	1	!	1279	0	0	0	0	0	0	0	0	0	0	0	0	0	0	0	0	0	0	0	0	0	0	0	0	0	0	0	0	0	0
071719	16:45:46	16:53:19	451837	5.0.10.0	5_exp_RW	69	Rpleas_acq	CS_B	MQQM	BZZB	YDDY	JXXJ	GWWG	VKKV	spielen	retten	ehrlich	fair	schön	treu	strafen	rächen	eitel	faul	schlecht	tot	1	acq_USunple_CSunple2_RW	acq4567_RW	4	52	400	1	300	300	413	46	0	1	1	blank2r.bmp	0	1	+	0	1	blank2r.bmp	492	1	JXXJ	492	1	blank2r.bmp	572	2	schlecht	866	1	!	1239	1	!	1319	0	0	0	0	0	0	0	0	0	0	0	0	0	0	0	0	0	0	0	0	0	0	0	0	0	0	0	0	0	0
071719	16:45:46	16:53:21	454049	5.0.10.0	5_exp_RW	69	Rpleas_acq	CS_B	MQQM	BZZB	YDDY	JXXJ	GWWG	VKKV	spielen	retten	ehrlich	fair	schön	treu	strafen	rächen	eitel	faul	schlecht	tot	1	acq_USunple_CSunple1_RW	acq4567_RW	4	53	400	1	300	300	425	46	0	1	1	blank2r.bmp	0	1	+	0	1	blank2r.bmp	492	1	YDDY	492	1	blank2r.bmp	572	1	strafen	866	1	!	1239	1	!	1319	0	0	0	0	0	0	0	0	0	0	0	0	0	0	0	0	0	0	0	0	0	0	0	0	0	0	0	0	0	0
071719	16:45:46	16:53:23	456328	5.0.10.0	5_exp_RW	69	Rpleas_acq	CS_B	MQQM	BZZB	YDDY	JXXJ	GWWG	VKKV	spielen	retten	ehrlich	fair	schön	treu	strafen	rächen	eitel	faul	schlecht	tot	1	acq_USunple_CSunple1_RW	acq4567_RW	4	54	400	1	300	300	466	46	0	1	1	blank2r.bmp	0	1	+	0	1	blank2r.bmp	492	1	YDDY	492	1	blank2r.bmp	572	2	rächen	866	1	!	1239	1	!	1372	0	0	0	0	0	0	0	0	0	0	0	0	0	0	0	0	0	0	0	0	0	0	0	0	0	0	0	0	0	0
071719	16:45:46	16:53:25	458594	5.0.10.0	5_exp_RW	69	Rpleas_acq	CS_B	MQQM	BZZB	YDDY	JXXJ	GWWG	VKKV	spielen	retten	ehrlich	fair	schön	treu	strafen	rächen	eitel	faul	schlecht	tot	1	acq_USpleas_CSpleas1_RW	acq4567_RW	4	55	400	0	300	300	495	50	0	1	1	blank2r.bmp	0	1	+	0	1	blank2r.bmp	492	1	MQQM	492	1	blank2r.bmp	572	3	ehrlich	866	1	!	1239	1	!	-1	0	0	0	0	0	0	0	0	0	0	0	0	0	0	0	0	0	0	0	0	0	0	0	0	0	0	0	0	0	0
071719	16:45:46	16:53:28	460926	5.0.10.0	5_exp_RW	69	Rpleas_acq	CS_B	MQQM	BZZB	YDDY	JXXJ	GWWG	VKKV	spielen	retten	ehrlich	fair	schön	treu	strafen	rächen	eitel	faul	schlecht	tot	1	acq_USpleas_CSpleas1_RW	acq4567_RW	4	56	400	0	300	300	550	50	0	1	1	blank2r.bmp	0	1	+	0	1	blank2r.bmp	492	1	MQQM	492	1	blank2r.bmp	572	2	retten	866	1	!	1239	1	!	-1	0	0	0	0	0	0	0	0	0	0	0	0	0	0	0	0	0	0	0	0	0	0	0	0	0	0	0	0	0	0
071719	16:45:46	16:53:30	463192	5.0.10.0	5_exp_RW	69	Rpleas_acq	CS_B	MQQM	BZZB	YDDY	JXXJ	GWWG	VKKV	spielen	retten	ehrlich	fair	schön	treu	strafen	rächen	eitel	faul	schlecht	tot	1	acq_USpleas_CSpleas2_RW	acq4567_RW	4	57	400	0	300	300	479	50	0	1	1	blank2r.bmp	0	1	+	0	1	blank2r.bmp	492	1	BZZB	492	1	blank2r.bmp	572	2	schön	866	1	!	1239	1	!	-1	0	0	0	0	0	0	0	0	0	0	0	0	0	0	0	0	0	0	0	0	0	0	0	0	0	0	0	0	0	0
071719	16:45:46	16:53:32	465365	5.0.10.0	5_exp_RW	69	Rpleas_acq	CS_B	MQQM	BZZB	YDDY	JXXJ	GWWG	VKKV	spielen	retten	ehrlich	fair	schön	treu	strafen	rächen	eitel	faul	schlecht	tot	1	acq_USpleas_CSpleas2_RW	acq4567_RW	4	58	400	1	300	300	346	50	0	1	1	blank2r.bmp	0	1	+	0	1	blank2r.bmp	492	1	BZZB	492	1	blank2r.bmp	572	2	schön	866	1	!	1239	1	!	1252	0	0	0	0	0	0	0	0	0	0	0	0	0	0	0	0	0	0	0	0	0	0	0	0	0	0	0	0	0	0
071719	16:45:46	16:53:34	467537	5.0.10.0	5_exp_RW	69	Rpleas_acq	CS_B	MQQM	BZZB	YDDY	JXXJ	GWWG	VKKV	spielen	retten	ehrlich	fair	schön	treu	strafen	rächen	eitel	faul	schlecht	tot	1	acq_USpleas_CSpleas1_RW	acq4567_RW	4	59	400	1	300	300	376	50	0	1	1	blank2r.bmp	0	1	+	0	1	blank2r.bmp	492	1	MQQM	492	1	blank2r.bmp	572	1	spielen	866	1	!	1239	1	!	1279	0	0	0	0	0	0	0	0	0	0	0	0	0	0	0	0	0	0	0	0	0	0	0	0	0	0	0	0	0	0
071719	16:45:46	16:53:36	469723	5.0.10.0	5_exp_RW	69	Rpleas_acq	CS_B	MQQM	BZZB	YDDY	JXXJ	GWWG	VKKV	spielen	retten	ehrlich	fair	schön	treu	strafen	rächen	eitel	faul	schlecht	tot	1	acq_USunple_CSunple1_RW	acq4567_RW	4	60	400	1	300	300	385	46	0	1	1	blank2r.bmp	0	1	+	0	1	blank2r.bmp	492	1	YDDY	492	1	blank2r.bmp	572	1	strafen	866	1	!	1239	1	!	1292	0	0	0	0	0	0	0	0	0	0	0	0	0	0	0	0	0	0	0	0	0	0	0	0	0	0	0	0	0	0
071719	16:45:46	16:53:39	471975	5.0.10.0	5_exp_RW	69	Rpleas_acq	CS_B	MQQM	BZZB	YDDY	JXXJ	GWWG	VKKV	spielen	retten	ehrlich	fair	schön	treu	strafen	rächen	eitel	faul	schlecht	tot	1	acq_USunple_CSunple1_RW	acq4567_RW	4	61	400	1	300	300	457	46	0	1	1	blank2r.bmp	0	1	+	0	1	blank2r.bmp	492	1	YDDY	492	1	blank2r.bmp	572	2	rächen	866	1	!	1239	1	!	1359	0	0	0	0	0	0	0	0	0	0	0	0	0	0	0	0	0	0	0	0	0	0	0	0	0	0	0	0	0	0
071719	16:45:46	16:53:41	474188	5.0.10.0	5_exp_RW	69	Rpleas_acq	CS_B	MQQM	BZZB	YDDY	JXXJ	GWWG	VKKV	spielen	retten	ehrlich	fair	schön	treu	strafen	rächen	eitel	faul	schlecht	tot	1	acq_USunple_CSunple1_RW	acq4567_RW	4	62	400	1	300	300	422	46	0	1	1	blank2r.bmp	0	1	+	0	1	blank2r.bmp	492	1	YDDY	492	1	blank2r.bmp	572	3	eitel	866	1	!	1239	1	!	1319	0	0	0	0	0	0	0	0	0	0	0	0	0	0	0	0	0	0	0	0	0	0	0	0	0	0	0	0	0	0
071719	16:45:46	16:53:43	476440	5.0.10.0	5_exp_RW	69	Rpleas_acq	CS_B	MQQM	BZZB	YDDY	JXXJ	GWWG	VKKV	spielen	retten	ehrlich	fair	schön	treu	strafen	rächen	eitel	faul	schlecht	tot	1	acq_USpleas_CSpleas1_RW	acq4567_RW	4	63	400	1	300	300	447	50	0	1	1	blank2r.bmp	0	1	+	0	1	blank2r.bmp	492	1	MQQM	492	1	blank2r.bmp	572	3	ehrlich	866	1	!	1239	1	!	1346	0	0	0	0	0	0	0	0	0	0	0	0	0	0	0	0	0	0	0	0	0	0	0	0	0	0	0	0	0	0
071719	16:45:46	16:53:45	478626	5.0.10.0	5_exp_RW	69	Rpleas_acq	CS_B	MQQM	BZZB	YDDY	JXXJ	GWWG	VKKV	spielen	retten	ehrlich	fair	schön	treu	strafen	rächen	eitel	faul	schlecht	tot	1	acq_USpleas_CSpleas2_RW	acq4567_RW	4	64	400	1	300	300	397	50	0	1	1	blank2r.bmp	0	1	+	0	1	blank2r.bmp	492	1	BZZB	492	1	blank2r.bmp	572	1	fair	866	1	!	1239	1	!	1292	0	0	0	0	0	0	0	0	0	0	0	0	0	0	0	0	0	0	0	0	0	0	0	0	0	0	0	0	0	0
071719	16:45:46	16:53:48	480825	5.0.10.0	5_exp_RW	69	Rpleas_acq	CS_B	MQQM	BZZB	YDDY	JXXJ	GWWG	VKKV	spielen	retten	ehrlich	fair	schön	treu	strafen	rächen	eitel	faul	schlecht	tot	1	acq_USunple_CSunple1_RW	acq4567_RW	4	65	400	1	300	300	407	50	0	0	1	blank2r.bmp	0	1	+	0	1	blank2r.bmp	492	1	YDDY	492	1	blank2r.bmp	572	2	rächen	866	1	!	1239	1	!	1306	0	0	0	0	0	0	0	0	0	0	0	0	0	0	0	0	0	0	0	0	0	0	0	0	0	0	0	0	0	0
071719	16:45:46	16:53:50	483037	5.0.10.0	5_exp_RW	69	Rpleas_acq	CS_B	MQQM	BZZB	YDDY	JXXJ	GWWG	VKKV	spielen	retten	ehrlich	fair	schön	treu	strafen	rächen	eitel	faul	schlecht	tot	1	acq_USpleas_CSpleas1_RW	acq4567_RW	4	66	400	1	300	300	415	50	0	1	1	blank2r.bmp	0	1	+	0	1	blank2r.bmp	492	1	MQQM	492	1	blank2r.bmp	572	2	retten	866	1	!	1239	1	!	1319	0	0	0	0	0	0	0	0	0	0	0	0	0	0	0	0	0	0	0	0	0	0	0	0	0	0	0	0	0	0
071719	16:45:46	16:53:52	485223	5.0.10.0	5_exp_RW	69	Rpleas_acq	CS_B	MQQM	BZZB	YDDY	JXXJ	GWWG	VKKV	spielen	retten	ehrlich	fair	schön	treu	strafen	rächen	eitel	faul	schlecht	tot	1	acq_USpleas_CSpleas2_RW	acq4567_RW	4	67	400	1	300	300	389	50	0	1	1	blank2r.bmp	0	1	+	0	1	blank2r.bmp	492	1	BZZB	492	1	blank2r.bmp	572	3	treu	866	1	!	1239	1	!	1292	0	0	0	0	0	0	0	0	0	0	0	0	0	0	0	0	0	0	0	0	0	0	0	0	0	0	0	0	0	0
071719	16:45:46	16:53:54	487329	5.0.10.0	5_exp_RW	69	Rpleas_acq	CS_B	MQQM	BZZB	YDDY	JXXJ	GWWG	VKKV	spielen	retten	ehrlich	fair	schön	treu	strafen	rächen	eitel	faul	schlecht	tot	1	acq_USunple_CSunple1_RW	acq4567_RW	4	68	400	0	300	300	331	46	0	1	1	blank2r.bmp	0	1	+	0	1	blank2r.bmp	492	1	YDDY	492	1	blank2r.bmp	572	1	strafen	866	1	!	-1	1	!	-1	0	0	0	0	0	0	0	0	0	0	0	0	0	0	0	0	0	0	0	0	0	0	0	0	0	0	0	0	0	0
071719	16:45:46	16:53:56	489435	5.0.10.0	5_exp_RW	69	Rpleas_acq	CS_B	MQQM	BZZB	YDDY	JXXJ	GWWG	VKKV	spielen	retten	ehrlich	fair	schön	treu	strafen	rächen	eitel	faul	schlecht	tot	1	acq_USpleas_CSpleas1_RW	acq4567_RW	4	69	400	0	300	300	330	50	0	1	1	blank2r.bmp	0	1	+	0	1	blank2r.bmp	492	1	MQQM	492	1	blank2r.bmp	572	1	spielen	866	1	!	-1	1	!	-1	0	0	0	0	0	0	0	0	0	0	0	0	0	0	0	0	0	0	0	0	0	0	0	0	0	0	0	0	0	0
071719	16:45:46	16:53:58	491700	5.0.10.0	5_exp_RW	69	Rpleas_acq	CS_B	MQQM	BZZB	YDDY	JXXJ	GWWG	VKKV	spielen	retten	ehrlich	fair	schön	treu	strafen	rächen	eitel	faul	schlecht	tot	1	acq_USunple_CSunple2_RW	acq4567_RW	4	70	400	1	300	300	455	46	0	1	1	blank2r.bmp	0	1	+	0	1	blank2r.bmp	492	1	JXXJ	492	1	blank2r.bmp	572	1	faul	866	1	!	1239	1	!	1359	0	0	0	0	0	0	0	0	0	0	0	0	0	0	0	0	0	0	0	0	0	0	0	0	0	0	0	0	0	0
071719	16:45:46	16:54:01	494113	5.0.10.0	5_exp_RW	69	Rpleas_acq	CS_B	MQQM	BZZB	YDDY	JXXJ	GWWG	VKKV	spielen	retten	ehrlich	fair	schön	treu	strafen	rächen	eitel	faul	schlecht	tot	1	acq_USunple_CSunple2_RW	acq4567_RW	4	71	400	0	300	300	642	46	0	1	1	blank2r.bmp	0	1	+	0	1	blank2r.bmp	492	1	JXXJ	492	1	blank2r.bmp	572	3	tot	866	1	!	1239	1	!	-1	0	0	0	0	0	0	0	0	0	0	0	0	0	0	0	0	0	0	0	0	0	0	0	0	0	0	0	0	0	0
071719	16:45:46	16:54:03	496325	5.0.10.0	5_exp_RW	69	Rpleas_acq	CS_B	MQQM	BZZB	YDDY	JXXJ	GWWG	VKKV	spielen	retten	ehrlich	fair	schön	treu	strafen	rächen	eitel	faul	schlecht	tot	1	acq_USunple_CSunple1_RW	acq4567_RW	4	72	400	1	300	300	387	46	0	1	1	blank2r.bmp	0	1	+	0	1	blank2r.bmp	492	1	YDDY	492	1	blank2r.bmp	572	3	eitel	866	1	!	1239	1	!	1292	0	0	0	0	0	0	0	0	0	0	0	0	0	0	0	0	0	0	0	0	0	0	0	0	0	0	0	0	0	0
071719	16:45:46	16:54:05	498497	5.0.10.0	5_exp_RW	69	Rpleas_acq	CS_B	MQQM	BZZB	YDDY	JXXJ	GWWG	VKKV	spielen	retten	ehrlich	fair	schön	treu	strafen	rächen	eitel	faul	schlecht	tot	1	acq_USpleas_CSpleas1_RW	acq4567_RW	4	73	400	1	300	300	362	46	0	0	1	blank2r.bmp	0	1	+	0	1	blank2r.bmp	492	1	MQQM	492	1	blank2r.bmp	572	2	retten	866	1	!	1239	1	!	1266	0	0	0	0	0	0	0	0	0	0	0	0	0	0	0	0	0	0	0	0	0	0	0	0	0	0	0	0	0	0
071719	16:45:46	16:54:07	500710	5.0.10.0	5_exp_RW	69	Rpleas_acq	CS_B	MQQM	BZZB	YDDY	JXXJ	GWWG	VKKV	spielen	retten	ehrlich	fair	schön	treu	strafen	rächen	eitel	faul	schlecht	tot	1	acq_USunple_CSunple2_RW	acq4567_RW	4	74	400	1	300	300	424	46	0	1	1	blank2r.bmp	0	1	+	0	1	blank2r.bmp	492	1	JXXJ	492	1	blank2r.bmp	572	2	schlecht	866	1	!	1239	1	!	1319	0	0	0	0	0	0	0	0	0	0	0	0	0	0	0	0	0	0	0	0	0	0	0	0	0	0	0	0	0	0
071719	16:45:46	16:54:10	502896	5.0.10.0	5_exp_RW	69	Rpleas_acq	CS_B	MQQM	BZZB	YDDY	JXXJ	GWWG	VKKV	spielen	retten	ehrlich	fair	schön	treu	strafen	rächen	eitel	faul	schlecht	tot	1	acq_USpleas_CSpleas1_RW	acq4567_RW	4	75	400	1	300	300	389	50	0	1	1	blank2r.bmp	0	1	+	0	1	blank2r.bmp	492	1	MQQM	492	1	blank2r.bmp	572	3	ehrlich	866	1	!	1239	1	!	1292	0	0	0	0	0	0	0	0	0	0	0	0	0	0	0	0	0	0	0	0	0	0	0	0	0	0	0	0	0	0
071719	16:45:46	16:54:12	505068	5.0.10.0	5_exp_RW	69	Rpleas_acq	CS_B	MQQM	BZZB	YDDY	JXXJ	GWWG	VKKV	spielen	retten	ehrlich	fair	schön	treu	strafen	rächen	eitel	faul	schlecht	tot	1	acq_USpleas_CSpleas2_RW	acq4567_RW	4	76	400	1	300	300	379	50	0	1	1	blank2r.bmp	0	1	+	0	1	blank2r.bmp	492	1	BZZB	492	1	blank2r.bmp	572	3	treu	866	1	!	1239	1	!	1279	0	0	0	0	0	0	0	0	0	0	0	0	0	0	0	0	0	0	0	0	0	0	0	0	0	0	0	0	0	0
071719	16:45:46	16:54:14	507160	5.0.10.0	5_exp_RW	69	Rpleas_acq	CS_B	MQQM	BZZB	YDDY	JXXJ	GWWG	VKKV	spielen	retten	ehrlich	fair	schön	treu	strafen	rächen	eitel	faul	schlecht	tot	1	acq_USunple_CSunple2_RW	acq4567_RW	4	77	400	0	300	300	321	50	0	0	1	blank2r.bmp	0	1	+	0	1	blank2r.bmp	492	1	JXXJ	492	1	blank2r.bmp	572	3	tot	866	1	!	-1	1	!	-1	0	0	0	0	0	0	0	0	0	0	0	0	0	0	0	0	0	0	0	0	0	0	0	0	0	0	0	0	0	0
071719	16:45:46	16:54:16	509280	5.0.10.0	5_exp_RW	69	Rpleas_acq	CS_B	MQQM	BZZB	YDDY	JXXJ	GWWG	VKKV	spielen	retten	ehrlich	fair	schön	treu	strafen	rächen	eitel	faul	schlecht	tot	1	acq_USpleas_CSpleas2_RW	acq4567_RW	4	78	400	0	300	300	323	50	0	1	1	blank2r.bmp	0	1	+	0	1	blank2r.bmp	492	1	BZZB	492	1	blank2r.bmp	572	1	fair	866	1	!	-1	1	!	-1	0	0	0	0	0	0	0	0	0	0	0	0	0	0	0	0	0	0	0	0	0	0	0	0	0	0	0	0	0	0
071719	16:45:46	16:54:18	511505	5.0.10.0	5_exp_RW	69	Rpleas_acq	CS_B	MQQM	BZZB	YDDY	JXXJ	GWWG	VKKV	spielen	retten	ehrlich	fair	schön	treu	strafen	rächen	eitel	faul	schlecht	tot	1	acq_USunple_CSunple2_RW	acq4567_RW	4	79	400	1	300	300	432	46	0	1	1	blank2r.bmp	0	1	+	0	1	blank2r.bmp	492	1	JXXJ	492	1	blank2r.bmp	572	1	faul	866	1	!	1239	1	!	1332	0	0	0	0	0	0	0	0	0	0	0	0	0	0	0	0	0	0	0	0	0	0	0	0	0	0	0	0	0	0
071719	16:45:46	16:54:20	513704	5.0.10.0	5_exp_RW	69	Rpleas_acq	CS_B	MQQM	BZZB	YDDY	JXXJ	GWWG	VKKV	spielen	retten	ehrlich	fair	schön	treu	strafen	rächen	eitel	faul	schlecht	tot	1	acq_USpleas_CSpleas2_RW	acq4567_RW	4	80	400	1	300	300	407	50	0	1	1	blank2r.bmp	0	1	+	0	1	blank2r.bmp	492	1	BZZB	492	1	blank2r.bmp	572	2	schön	866	1	!	1239	1	!	1306	0	0	0	0	0	0	0	0	0	0	0	0	0	0	0	0	0	0	0	0	0	0	0	0	0	0	0	0	0	0
071719	16:45:46	16:54:47	540467	5.0.10.0	5_exp_RW	69	Rpleas_acq	CS_B	MQQM	BZZB	YDDY	JXXJ	GWWG	VKKV	spielen	retten	ehrlich	fair	schön	treu	strafen	rächen	eitel	faul	schlecht	tot	1	acq_USunple_CSunple1_RW	acq4567_RW	5	1	400	0	300	300	479	46	0	1	1	blank2r.bmp	0	1	+	0	1	blank2r.bmp	492	1	YDDY	492	1	blank2r.bmp	572	1	strafen	866	1	!	1239	1	!	-1	0	0	0	0	0	0	0	0	0	0	0	0	0	0	0	0	0	0	0	0	0	0	0	0	0	0	0	0	0	0
071719	16:45:46	16:54:49	542652	5.0.10.0	5_exp_RW	69	Rpleas_acq	CS_B	MQQM	BZZB	YDDY	JXXJ	GWWG	VKKV	spielen	retten	ehrlich	fair	schön	treu	strafen	rächen	eitel	faul	schlecht	tot	1	acq_USunple_CSunple2_RW	acq4567_RW	5	2	400	1	300	300	384	46	0	1	1	blank2r.bmp	0	1	+	0	1	blank2r.bmp	492	1	JXXJ	492	1	blank2r.bmp	572	3	tot	866	1	!	1239	1	!	1279	0	0	0	0	0	0	0	0	0	0	0	0	0	0	0	0	0	0	0	0	0	0	0	0	0	0	0	0	0	0
071719	16:45:46	16:54:52	544851	5.0.10.0	5_exp_RW	69	Rpleas_acq	CS_B	MQQM	BZZB	YDDY	JXXJ	GWWG	VKKV	spielen	retten	ehrlich	fair	schön	treu	strafen	rächen	eitel	faul	schlecht	tot	1	acq_USunple_CSunple1_RW	acq4567_RW	5	3	400	1	300	300	409	46	0	1	1	blank2r.bmp	0	1	+	0	1	blank2r.bmp	492	1	YDDY	492	1	blank2r.bmp	572	2	rächen	866	1	!	1239	1	!	1306	0	0	0	0	0	0	0	0	0	0	0	0	0	0	0	0	0	0	0	0	0	0	0	0	0	0	0	0	0	0
071719	16:45:46	16:54:54	547064	5.0.10.0	5_exp_RW	69	Rpleas_acq	CS_B	MQQM	BZZB	YDDY	JXXJ	GWWG	VKKV	spielen	retten	ehrlich	fair	schön	treu	strafen	rächen	eitel	faul	schlecht	tot	1	acq_USpleas_CSpleas1_RW	acq4567_RW	5	4	400	1	300	300	417	50	0	1	1	blank2r.bmp	0	1	+	0	1	blank2r.bmp	492	1	MQQM	492	1	blank2r.bmp	572	3	ehrlich	866	1	!	1239	1	!	1319	0	0	0	0	0	0	0	0	0	0	0	0	0	0	0	0	0	0	0	0	0	0	0	0	0	0	0	0	0	0
071719	16:45:46	16:54:56	549210	5.0.10.0	5_exp_RW	69	Rpleas_acq	CS_B	MQQM	BZZB	YDDY	JXXJ	GWWG	VKKV	spielen	retten	ehrlich	fair	schön	treu	strafen	rächen	eitel	faul	schlecht	tot	1	acq_USunple_CSunple2_RW	acq4567_RW	5	5	400	1	300	300	359	46	0	1	1	blank2r.bmp	0	1	+	0	1	blank2r.bmp	492	1	JXXJ	492	1	blank2r.bmp	572	2	schlecht	866	1	!	1239	1	!	1252	0	0	0	0	0	0	0	0	0	0	0	0	0	0	0	0	0	0	0	0	0	0	0	0	0	0	0	0	0	0
071719	16:45:46	16:54:58	551395	5.0.10.0	5_exp_RW	69	Rpleas_acq	CS_B	MQQM	BZZB	YDDY	JXXJ	GWWG	VKKV	spielen	retten	ehrlich	fair	schön	treu	strafen	rächen	eitel	faul	schlecht	tot	1	acq_USpleas_CSpleas2_RW	acq4567_RW	5	6	400	1	300	300	394	50	0	1	1	blank2r.bmp	0	1	+	0	1	blank2r.bmp	492	1	BZZB	492	1	blank2r.bmp	572	1	fair	866	1	!	1239	1	!	1292	0	0	0	0	0	0	0	0	0	0	0	0	0	0	0	0	0	0	0	0	0	0	0	0	0	0	0	0	0	0
071719	16:45:46	16:55:00	553581	5.0.10.0	5_exp_RW	69	Rpleas_acq	CS_B	MQQM	BZZB	YDDY	JXXJ	GWWG	VKKV	spielen	retten	ehrlich	fair	schön	treu	strafen	rächen	eitel	faul	schlecht	tot	1	acq_USunple_CSunple1_RW	acq4567_RW	5	7	400	1	300	300	389	46	0	1	1	blank2r.bmp	0	1	+	0	1	blank2r.bmp	492	1	YDDY	492	1	blank2r.bmp	572	3	eitel	866	1	!	1239	1	!	1292	0	0	0	0	0	0	0	0	0	0	0	0	0	0	0	0	0	0	0	0	0	0	0	0	0	0	0	0	0	0
071719	16:45:46	16:55:02	555780	5.0.10.0	5_exp_RW	69	Rpleas_acq	CS_B	MQQM	BZZB	YDDY	JXXJ	GWWG	VKKV	spielen	retten	ehrlich	fair	schön	treu	strafen	rächen	eitel	faul	schlecht	tot	1	acq_USpleas_CSpleas2_RW	acq4567_RW	5	8	400	1	300	300	400	50	0	1	1	blank2r.bmp	0	1	+	0	1	blank2r.bmp	492	1	BZZB	492	1	blank2r.bmp	572	3	treu	866	1	!	1239	1	!	1306	0	0	0	0	0	0	0	0	0	0	0	0	0	0	0	0	0	0	0	0	0	0	0	0	0	0	0	0	0	0
071719	16:45:46	16:55:05	557966	5.0.10.0	5_exp_RW	69	Rpleas_acq	CS_B	MQQM	BZZB	YDDY	JXXJ	GWWG	VKKV	spielen	retten	ehrlich	fair	schön	treu	strafen	rächen	eitel	faul	schlecht	tot	1	acq_USpleas_CSpleas1_RW	acq4567_RW	5	9	400	1	300	300	393	50	0	1	1	blank2r.bmp	0	1	+	0	1	blank2r.bmp	492	1	MQQM	492	1	blank2r.bmp	572	1	spielen	866	1	!	1239	1	!	1292	0	0	0	0	0	0	0	0	0	0	0	0	0	0	0	0	0	0	0	0	0	0	0	0	0	0	0	0	0	0
071719	16:45:46	16:55:07	560112	5.0.10.0	5_exp_RW	69	Rpleas_acq	CS_B	MQQM	BZZB	YDDY	JXXJ	GWWG	VKKV	spielen	retten	ehrlich	fair	schön	treu	strafen	rächen	eitel	faul	schlecht	tot	1	acq_USpleas_CSpleas2_RW	acq4567_RW	5	10	400	1	300	300	346	50	0	1	1	blank2r.bmp	0	1	+	0	1	blank2r.bmp	492	1	BZZB	492	1	blank2r.bmp	572	2	schön	866	1	!	1239	1	!	1252	0	0	0	0	0	0	0	0	0	0	0	0	0	0	0	0	0	0	0	0	0	0	0	0	0	0	0	0	0	0
071719	16:45:46	16:55:09	562404	5.0.10.0	5_exp_RW	69	Rpleas_acq	CS_B	MQQM	BZZB	YDDY	JXXJ	GWWG	VKKV	spielen	retten	ehrlich	fair	schön	treu	strafen	rächen	eitel	faul	schlecht	tot	1	acq_USpleas_CSpleas1_RW	acq4567_RW	5	11	400	0	300	300	508	50	0	1	1	blank2r.bmp	0	1	+	0	1	blank2r.bmp	492	1	MQQM	492	1	blank2r.bmp	572	2	retten	866	1	!	1239	1	!	-1	0	0	0	0	0	0	0	0	0	0	0	0	0	0	0	0	0	0	0	0	0	0	0	0	0	0	0	0	0	0
071719	16:45:46	16:55:11	564643	5.0.10.0	5_exp_RW	69	Rpleas_acq	CS_B	MQQM	BZZB	YDDY	JXXJ	GWWG	VKKV	spielen	retten	ehrlich	fair	schön	treu	strafen	rächen	eitel	faul	schlecht	tot	1	acq_USunple_CSunple2_RW	acq4567_RW	5	12	400	1	300	300	434	46	0	1	1	blank2r.bmp	0	1	+	0	1	blank2r.bmp	492	1	JXXJ	492	1	blank2r.bmp	572	1	faul	866	1	!	1239	1	!	1332	0	0	0	0	0	0	0	0	0	0	0	0	0	0	0	0	0	0	0	0	0	0	0	0	0	0	0	0	0	0
071719	16:45:46	16:55:14	566815	5.0.10.0	5_exp_RW	69	Rpleas_acq	CS_B	MQQM	BZZB	YDDY	JXXJ	GWWG	VKKV	spielen	retten	ehrlich	fair	schön	treu	strafen	rächen	eitel	faul	schlecht	tot	1	acq_USunple_CSunple1_RW	acq4567_RW	5	13	400	1	300	300	380	46	0	1	1	blank2r.bmp	0	1	+	0	1	blank2r.bmp	492	1	YDDY	492	1	blank2r.bmp	572	1	strafen	866	1	!	1239	1	!	1279	0	0	0	0	0	0	0	0	0	0	0	0	0	0	0	0	0	0	0	0	0	0	0	0	0	0	0	0	0	0
071719	16:45:46	16:55:16	569095	5.0.10.0	5_exp_RW	69	Rpleas_acq	CS_B	MQQM	BZZB	YDDY	JXXJ	GWWG	VKKV	spielen	retten	ehrlich	fair	schön	treu	strafen	rächen	eitel	faul	schlecht	tot	1	acq_USpleas_CSpleas2_RW	acq4567_RW	5	14	400	0	300	300	509	50	0	1	1	blank2r.bmp	0	1	+	0	1	blank2r.bmp	492	1	BZZB	492	1	blank2r.bmp	572	1	fair	866	1	!	1239	1	!	-1	0	0	0	0	0	0	0	0	0	0	0	0	0	0	0	0	0	0	0	0	0	0	0	0	0	0	0	0	0	0
071719	16:45:46	16:55:18	571294	5.0.10.0	5_exp_RW	69	Rpleas_acq	CS_B	MQQM	BZZB	YDDY	JXXJ	GWWG	VKKV	spielen	retten	ehrlich	fair	schön	treu	strafen	rächen	eitel	faul	schlecht	tot	1	acq_USpleas_CSpleas2_RW	acq4567_RW	5	15	400	1	300	300	394	50	0	1	1	blank2r.bmp	0	1	+	0	1	blank2r.bmp	492	1	BZZB	492	1	blank2r.bmp	572	3	treu	866	1	!	1239	1	!	1292	0	0	0	0	0	0	0	0	0	0	0	0	0	0	0	0	0	0	0	0	0	0	0	0	0	0	0	0	0	0
071719	16:45:46	16:55:20	573466	5.0.10.0	5_exp_RW	69	Rpleas_acq	CS_B	MQQM	BZZB	YDDY	JXXJ	GWWG	VKKV	spielen	retten	ehrlich	fair	schön	treu	strafen	rächen	eitel	faul	schlecht	tot	1	acq_USpleas_CSpleas1_RW	acq4567_RW	5	16	400	1	300	300	380	50	0	1	1	blank2r.bmp	0	1	+	0	1	blank2r.bmp	492	1	MQQM	492	1	blank2r.bmp	572	3	ehrlich	866	1	!	1239	1	!	1279	0	0	0	0	0	0	0	0	0	0	0	0	0	0	0	0	0	0	0	0	0	0	0	0	0	0	0	0	0	0
071719	16:45:46	16:55:22	575692	5.0.10.0	5_exp_RW	69	Rpleas_acq	CS_B	MQQM	BZZB	YDDY	JXXJ	GWWG	VKKV	spielen	retten	ehrlich	fair	schön	treu	strafen	rächen	eitel	faul	schlecht	tot	1	acq_USunple_CSunple2_RW	acq4567_RW	5	17	400	1	300	300	418	46	0	1	1	blank2r.bmp	0	1	+	0	1	blank2r.bmp	492	1	JXXJ	492	1	blank2r.bmp	572	3	tot	866	1	!	1239	1	!	1319	0	0	0	0	0	0	0	0	0	0	0	0	0	0	0	0	0	0	0	0	0	0	0	0	0	0	0	0	0	0
071719	16:45:46	16:55:25	577878	5.0.10.0	5_exp_RW	69	Rpleas_acq	CS_B	MQQM	BZZB	YDDY	JXXJ	GWWG	VKKV	spielen	retten	ehrlich	fair	schön	treu	strafen	rächen	eitel	faul	schlecht	tot	1	acq_USunple_CSunple2_RW	acq4567_RW	5	18	400	1	300	300	397	46	0	1	1	blank2r.bmp	0	1	+	0	1	blank2r.bmp	492	1	JXXJ	492	1	blank2r.bmp	572	2	schlecht	866	1	!	1239	1	!	1292	0	0	0	0	0	0	0	0	0	0	0	0	0	0	0	0	0	0	0	0	0	0	0	0	0	0	0	0	0	0
071719	16:45:46	16:55:27	580117	5.0.10.0	5_exp_RW	69	Rpleas_acq	CS_B	MQQM	BZZB	YDDY	JXXJ	GWWG	VKKV	spielen	retten	ehrlich	fair	schön	treu	strafen	rächen	eitel	faul	schlecht	tot	1	acq_USpleas_CSpleas1_RW	acq4567_RW	5	19	400	1	300	300	446	50	0	1	1	blank2r.bmp	0	1	+	0	1	blank2r.bmp	492	1	MQQM	492	1	blank2r.bmp	572	1	spielen	866	1	!	1239	1	!	1346	0	0	0	0	0	0	0	0	0	0	0	0	0	0	0	0	0	0	0	0	0	0	0	0	0	0	0	0	0	0
071719	16:45:46	16:55:29	582369	5.0.10.0	5_exp_RW	69	Rpleas_acq	CS_B	MQQM	BZZB	YDDY	JXXJ	GWWG	VKKV	spielen	retten	ehrlich	fair	schön	treu	strafen	rächen	eitel	faul	schlecht	tot	1	acq_USunple_CSunple1_RW	acq4567_RW	5	20	400	0	300	300	479	46	0	1	1	blank2r.bmp	0	1	+	0	1	blank2r.bmp	492	1	YDDY	492	1	blank2r.bmp	572	3	eitel	866	1	!	1239	1	!	-1	0	0	0	0	0	0	0	0	0	0	0	0	0	0	0	0	0	0	0	0	0	0	0	0	0	0	0	0	0	0
071719	16:45:46	16:55:31	584608	5.0.10.0	5_exp_RW	69	Rpleas_acq	CS_B	MQQM	BZZB	YDDY	JXXJ	GWWG	VKKV	spielen	retten	ehrlich	fair	schön	treu	strafen	rächen	eitel	faul	schlecht	tot	1	acq_USpleas_CSpleas2_RW	acq4567_RW	5	21	400	1	300	300	434	50	0	1	1	blank2r.bmp	0	1	+	0	1	blank2r.bmp	492	1	BZZB	492	1	blank2r.bmp	572	2	schön	866	1	!	1239	1	!	1332	0	0	0	0	0	0	0	0	0	0	0	0	0	0	0	0	0	0	0	0	0	0	0	0	0	0	0	0	0	0
071719	16:45:46	16:55:34	586834	5.0.10.0	5_exp_RW	69	Rpleas_acq	CS_B	MQQM	BZZB	YDDY	JXXJ	GWWG	VKKV	spielen	retten	ehrlich	fair	schön	treu	strafen	rächen	eitel	faul	schlecht	tot	1	acq_USpleas_CSpleas2_RW	acq4567_RW	5	22	400	1	300	300	428	50	0	1	1	blank2r.bmp	0	1	+	0	1	blank2r.bmp	492	1	BZZB	492	1	blank2r.bmp	572	2	schön	866	1	!	1239	1	!	1332	0	0	0	0	0	0	0	0	0	0	0	0	0	0	0	0	0	0	0	0	0	0	0	0	0	0	0	0	0	0
071719	16:45:46	16:55:36	589046	5.0.10.0	5_exp_RW	69	Rpleas_acq	CS_B	MQQM	BZZB	YDDY	JXXJ	GWWG	VKKV	spielen	retten	ehrlich	fair	schön	treu	strafen	rächen	eitel	faul	schlecht	tot	1	acq_USunple_CSunple1_RW	acq4567_RW	5	23	400	1	300	300	401	46	0	1	1	blank2r.bmp	0	1	+	0	1	blank2r.bmp	492	1	YDDY	492	1	blank2r.bmp	572	2	rächen	866	1	!	1239	1	!	1306	0	0	0	0	0	0	0	0	0	0	0	0	0	0	0	0	0	0	0	0	0	0	0	0	0	0	0	0	0	0
071719	16:45:46	16:55:38	591299	5.0.10.0	5_exp_RW	69	Rpleas_acq	CS_B	MQQM	BZZB	YDDY	JXXJ	GWWG	VKKV	spielen	retten	ehrlich	fair	schön	treu	strafen	rächen	eitel	faul	schlecht	tot	1	acq_USpleas_CSpleas1_RW	acq4567_RW	5	24	400	0	300	300	479	46	0	0	1	blank2r.bmp	0	1	+	0	1	blank2r.bmp	492	1	MQQM	492	1	blank2r.bmp	572	2	retten	866	1	!	1239	1	!	-1	0	0	0	0	0	0	0	0	0	0	0	0	0	0	0	0	0	0	0	0	0	0	0	0	0	0	0	0	0	0
071719	16:45:46	16:55:40	593578	5.0.10.0	5_exp_RW	69	Rpleas_acq	CS_B	MQQM	BZZB	YDDY	JXXJ	GWWG	VKKV	spielen	retten	ehrlich	fair	schön	treu	strafen	rächen	eitel	faul	schlecht	tot	1	acq_USunple_CSunple2_RW	acq4567_RW	5	25	400	1	300	300	456	46	0	1	1	blank2r.bmp	0	1	+	0	1	blank2r.bmp	492	1	JXXJ	492	1	blank2r.bmp	572	1	faul	866	1	!	1239	1	!	1359	0	0	0	0	0	0	0	0	0	0	0	0	0	0	0	0	0	0	0	0	0	0	0	0	0	0	0	0	0	0
071719	16:45:46	16:55:43	595803	5.0.10.0	5_exp_RW	69	Rpleas_acq	CS_B	MQQM	BZZB	YDDY	JXXJ	GWWG	VKKV	spielen	retten	ehrlich	fair	schön	treu	strafen	rächen	eitel	faul	schlecht	tot	1	acq_USpleas_CSpleas2_RW	acq4567_RW	5	26	400	1	300	300	433	50	0	1	1	blank2r.bmp	0	1	+	0	1	blank2r.bmp	492	1	BZZB	492	1	blank2r.bmp	572	1	fair	866	1	!	1239	1	!	1332	0	0	0	0	0	0	0	0	0	0	0	0	0	0	0	0	0	0	0	0	0	0	0	0	0	0	0	0	0	0
071719	16:45:46	16:55:45	597922	5.0.10.0	5_exp_RW	69	Rpleas_acq	CS_B	MQQM	BZZB	YDDY	JXXJ	GWWG	VKKV	spielen	retten	ehrlich	fair	schön	treu	strafen	rächen	eitel	faul	schlecht	tot	1	acq_USunple_CSunple1_RW	acq4567_RW	5	27	400	0	300	300	333	46	0	1	1	blank2r.bmp	0	1	+	0	1	blank2r.bmp	492	1	YDDY	492	1	blank2r.bmp	572	3	eitel	866	1	!	-1	1	!	-1	0	0	0	0	0	0	0	0	0	0	0	0	0	0	0	0	0	0	0	0	0	0	0	0	0	0	0	0	0	0
071719	16:45:46	16:55:47	600122	5.0.10.0	5_exp_RW	69	Rpleas_acq	CS_B	MQQM	BZZB	YDDY	JXXJ	GWWG	VKKV	spielen	retten	ehrlich	fair	schön	treu	strafen	rächen	eitel	faul	schlecht	tot	1	acq_USpleas_CSpleas1_RW	acq4567_RW	5	28	400	1	300	300	396	50	0	1	1	blank2r.bmp	0	1	+	0	1	blank2r.bmp	492	1	MQQM	492	1	blank2r.bmp	572	2	retten	866	1	!	1239	1	!	1292	0	0	0	0	0	0	0	0	0	0	0	0	0	0	0	0	0	0	0	0	0	0	0	0	0	0	0	0	0	0
071719	16:45:46	16:55:49	602321	5.0.10.0	5_exp_RW	69	Rpleas_acq	CS_B	MQQM	BZZB	YDDY	JXXJ	GWWG	VKKV	spielen	retten	ehrlich	fair	schön	treu	strafen	rächen	eitel	faul	schlecht	tot	1	acq_USpleas_CSpleas2_RW	acq4567_RW	5	29	400	1	300	300	406	50	0	1	1	blank2r.bmp	0	1	+	0	1	blank2r.bmp	492	1	BZZB	492	1	blank2r.bmp	572	3	treu	866	1	!	1239	1	!	1306	0	0	0	0	0	0	0	0	0	0	0	0	0	0	0	0	0	0	0	0	0	0	0	0	0	0	0	0	0	0
071719	16:45:46	16:55:51	604466	5.0.10.0	5_exp_RW	69	Rpleas_acq	CS_B	MQQM	BZZB	YDDY	JXXJ	GWWG	VKKV	spielen	retten	ehrlich	fair	schön	treu	strafen	rächen	eitel	faul	schlecht	tot	1	acq_USunple_CSunple2_RW	acq4567_RW	5	30	400	1	300	300	346	50	0	0	1	blank2r.bmp	0	1	+	0	1	blank2r.bmp	492	1	JXXJ	492	1	blank2r.bmp	572	2	schlecht	866	1	!	1239	1	!	1252	0	0	0	0	0	0	0	0	0	0	0	0	0	0	0	0	0	0	0	0	0	0	0	0	0	0	0	0	0	0
071719	16:45:46	16:55:53	606719	5.0.10.0	5_exp_RW	69	Rpleas_acq	CS_B	MQQM	BZZB	YDDY	JXXJ	GWWG	VKKV	spielen	retten	ehrlich	fair	schön	treu	strafen	rächen	eitel	faul	schlecht	tot	1	acq_USunple_CSunple1_RW	acq4567_RW	5	31	400	0	300	300	479	50	0	0	1	blank2r.bmp	0	1	+	0	1	blank2r.bmp	492	1	YDDY	492	1	blank2r.bmp	572	1	strafen	866	1	!	1239	1	!	-1	0	0	0	0	0	0	0	0	0	0	0	0	0	0	0	0	0	0	0	0	0	0	0	0	0	0	0	0	0	0
071719	16:45:46	16:55:56	608891	5.0.10.0	5_exp_RW	69	Rpleas_acq	CS_B	MQQM	BZZB	YDDY	JXXJ	GWWG	VKKV	spielen	retten	ehrlich	fair	schön	treu	strafen	rächen	eitel	faul	schlecht	tot	1	acq_USunple_CSunple2_RW	acq4567_RW	5	32	400	1	300	300	365	46	0	1	1	blank2r.bmp	0	1	+	0	1	blank2r.bmp	492	1	JXXJ	492	1	blank2r.bmp	572	1	faul	866	1	!	1239	1	!	1266	0	0	0	0	0	0	0	0	0	0	0	0	0	0	0	0	0	0	0	0	0	0	0	0	0	0	0	0	0	0
071719	16:45:46	16:55:58	611170	5.0.10.0	5_exp_RW	69	Rpleas_acq	CS_B	MQQM	BZZB	YDDY	JXXJ	GWWG	VKKV	spielen	retten	ehrlich	fair	schön	treu	strafen	rächen	eitel	faul	schlecht	tot	1	acq_USunple_CSunple1_RW	acq4567_RW	5	33	400	0	300	300	512	46	0	1	1	blank2r.bmp	0	1	+	0	1	blank2r.bmp	492	1	YDDY	492	1	blank2r.bmp	572	2	rächen	866	1	!	1239	1	!	-1	0	0	0	0	0	0	0	0	0	0	0	0	0	0	0	0	0	0	0	0	0	0	0	0	0	0	0	0	0	0
071719	16:45:46	16:56:00	613436	5.0.10.0	5_exp_RW	69	Rpleas_acq	CS_B	MQQM	BZZB	YDDY	JXXJ	GWWG	VKKV	spielen	retten	ehrlich	fair	schön	treu	strafen	rächen	eitel	faul	schlecht	tot	1	acq_USunple_CSunple2_RW	acq4567_RW	5	34	400	0	300	300	489	46	0	1	1	blank2r.bmp	0	1	+	0	1	blank2r.bmp	492	1	JXXJ	492	1	blank2r.bmp	572	3	tot	866	1	!	1239	1	!	-1	0	0	0	0	0	0	0	0	0	0	0	0	0	0	0	0	0	0	0	0	0	0	0	0	0	0	0	0	0	0
071719	16:45:46	16:56:02	615555	5.0.10.0	5_exp_RW	69	Rpleas_acq	CS_B	MQQM	BZZB	YDDY	JXXJ	GWWG	VKKV	spielen	retten	ehrlich	fair	schön	treu	strafen	rächen	eitel	faul	schlecht	tot	1	acq_USpleas_CSpleas1_RW	acq4567_RW	5	35	400	0	300	300	318	50	0	1	1	blank2r.bmp	0	1	+	0	1	blank2r.bmp	492	1	MQQM	492	1	blank2r.bmp	572	1	spielen	866	1	!	-1	1	!	-1	0	0	0	0	0	0	0	0	0	0	0	0	0	0	0	0	0	0	0	0	0	0	0	0	0	0	0	0	0	0
071719	16:45:46	16:56:04	617688	5.0.10.0	5_exp_RW	69	Rpleas_acq	CS_B	MQQM	BZZB	YDDY	JXXJ	GWWG	VKKV	spielen	retten	ehrlich	fair	schön	treu	strafen	rächen	eitel	faul	schlecht	tot	1	acq_USunple_CSunple2_RW	acq4567_RW	5	36	400	0	300	300	333	46	0	1	1	blank2r.bmp	0	1	+	0	1	blank2r.bmp	492	1	JXXJ	492	1	blank2r.bmp	572	2	schlecht	866	1	!	-1	1	!	-1	0	0	0	0	0	0	0	0	0	0	0	0	0	0	0	0	0	0	0	0	0	0	0	0	0	0	0	0	0	0
071719	16:45:46	16:56:07	619887	5.0.10.0	5_exp_RW	69	Rpleas_acq	CS_B	MQQM	BZZB	YDDY	JXXJ	GWWG	VKKV	spielen	retten	ehrlich	fair	schön	treu	strafen	rächen	eitel	faul	schlecht	tot	1	acq_USpleas_CSpleas1_RW	acq4567_RW	5	37	400	1	300	300	393	50	0	1	1	blank2r.bmp	0	1	+	0	1	blank2r.bmp	492	1	MQQM	492	1	blank2r.bmp	572	3	ehrlich	866	1	!	1239	1	!	1292	0	0	0	0	0	0	0	0	0	0	0	0	0	0	0	0	0	0	0	0	0	0	0	0	0	0	0	0	0	0
071719	16:45:46	16:56:09	622179	5.0.10.0	5_exp_RW	69	Rpleas_acq	CS_B	MQQM	BZZB	YDDY	JXXJ	GWWG	VKKV	spielen	retten	ehrlich	fair	schön	treu	strafen	rächen	eitel	faul	schlecht	tot	1	acq_USunple_CSunple1_RW	acq4567_RW	5	38	400	0	300	300	529	46	0	1	1	blank2r.bmp	0	1	+	0	1	blank2r.bmp	492	1	YDDY	492	1	blank2r.bmp	572	3	eitel	866	1	!	1239	1	!	-1	0	0	0	0	0	0	0	0	0	0	0	0	0	0	0	0	0	0	0	0	0	0	0	0	0	0	0	0	0	0
071719	16:45:46	16:56:11	624551	5.0.10.0	5_exp_RW	69	Rpleas_acq	CS_B	MQQM	BZZB	YDDY	JXXJ	GWWG	VKKV	spielen	retten	ehrlich	fair	schön	treu	strafen	rächen	eitel	faul	schlecht	tot	1	acq_USpleas_CSpleas1_RW	acq4567_RW	5	39	400	0	300	300	588	50	0	1	1	blank2r.bmp	0	1	+	0	1	blank2r.bmp	492	1	MQQM	492	1	blank2r.bmp	572	2	retten	866	1	!	1239	1	!	-1	0	0	0	0	0	0	0	0	0	0	0	0	0	0	0	0	0	0	0	0	0	0	0	0	0	0	0	0	0	0
071719	16:45:46	16:56:13	626777	5.0.10.0	5_exp_RW	69	Rpleas_acq	CS_B	MQQM	BZZB	YDDY	JXXJ	GWWG	VKKV	spielen	retten	ehrlich	fair	schön	treu	strafen	rächen	eitel	faul	schlecht	tot	1	acq_USpleas_CSpleas2_RW	acq4567_RW	5	40	400	1	300	300	425	50	0	1	1	blank2r.bmp	0	1	+	0	1	blank2r.bmp	492	1	BZZB	492	1	blank2r.bmp	572	1	fair	866	1	!	1239	1	!	1319	0	0	0	0	0	0	0	0	0	0	0	0	0	0	0	0	0	0	0	0	0	0	0	0	0	0	0	0	0	0
071719	16:45:46	16:56:16	629016	5.0.10.0	5_exp_RW	69	Rpleas_acq	CS_B	MQQM	BZZB	YDDY	JXXJ	GWWG	VKKV	spielen	retten	ehrlich	fair	schön	treu	strafen	rächen	eitel	faul	schlecht	tot	1	acq_USpleas_CSpleas1_RW	acq4567_RW	5	41	400	1	300	300	445	50	0	1	1	blank2r.bmp	0	1	+	0	1	blank2r.bmp	492	1	MQQM	492	1	blank2r.bmp	572	1	spielen	866	1	!	1239	1	!	1346	0	0	0	0	0	0	0	0	0	0	0	0	0	0	0	0	0	0	0	0	0	0	0	0	0	0	0	0	0	0
071719	16:45:46	16:56:18	631215	5.0.10.0	5_exp_RW	69	Rpleas_acq	CS_B	MQQM	BZZB	YDDY	JXXJ	GWWG	VKKV	spielen	retten	ehrlich	fair	schön	treu	strafen	rächen	eitel	faul	schlecht	tot	1	acq_USunple_CSunple1_RW	acq4567_RW	5	42	400	1	300	300	394	46	0	1	1	blank2r.bmp	0	1	+	0	1	blank2r.bmp	492	1	YDDY	492	1	blank2r.bmp	572	1	strafen	866	1	!	1239	1	!	1292	0	0	0	0	0	0	0	0	0	0	0	0	0	0	0	0	0	0	0	0	0	0	0	0	0	0	0	0	0	0
071719	16:45:46	16:56:20	633374	5.0.10.0	5_exp_RW	69	Rpleas_acq	CS_B	MQQM	BZZB	YDDY	JXXJ	GWWG	VKKV	spielen	retten	ehrlich	fair	schön	treu	strafen	rächen	eitel	faul	schlecht	tot	1	acq_USunple_CSunple2_RW	acq4567_RW	5	43	400	1	300	300	349	46	0	1	1	blank2r.bmp	0	1	+	0	1	blank2r.bmp	492	1	JXXJ	492	1	blank2r.bmp	572	1	faul	866	1	!	1239	1	!	1252	0	0	0	0	0	0	0	0	0	0	0	0	0	0	0	0	0	0	0	0	0	0	0	0	0	0	0	0	0	0
071719	16:45:46	16:56:22	635467	5.0.10.0	5_exp_RW	69	Rpleas_acq	CS_B	MQQM	BZZB	YDDY	JXXJ	GWWG	VKKV	spielen	retten	ehrlich	fair	schön	treu	strafen	rächen	eitel	faul	schlecht	tot	1	acq_USunple_CSunple1_RW	acq4567_RW	5	44	400	0	300	300	321	46	0	1	1	blank2r.bmp	0	1	+	0	1	blank2r.bmp	492	1	YDDY	492	1	blank2r.bmp	572	2	rächen	866	1	!	-1	1	!	-1	0	0	0	0	0	0	0	0	0	0	0	0	0	0	0	0	0	0	0	0	0	0	0	0	0	0	0	0	0	0
071719	16:45:46	16:56:24	637626	5.0.10.0	5_exp_RW	69	Rpleas_acq	CS_B	MQQM	BZZB	YDDY	JXXJ	GWWG	VKKV	spielen	retten	ehrlich	fair	schön	treu	strafen	rächen	eitel	faul	schlecht	tot	1	acq_USpleas_CSpleas2_RW	acq4567_RW	5	45	400	1	300	300	346	50	0	1	1	blank2r.bmp	0	1	+	0	1	blank2r.bmp	492	1	BZZB	492	1	blank2r.bmp	572	2	schön	866	1	!	1239	1	!	1252	0	0	0	0	0	0	0	0	0	0	0	0	0	0	0	0	0	0	0	0	0	0	0	0	0	0	0	0	0	0
071719	16:45:46	16:56:27	639838	5.0.10.0	5_exp_RW	69	Rpleas_acq	CS_B	MQQM	BZZB	YDDY	JXXJ	GWWG	VKKV	spielen	retten	ehrlich	fair	schön	treu	strafen	rächen	eitel	faul	schlecht	tot	1	acq_USpleas_CSpleas2_RW	acq4567_RW	5	46	400	1	300	300	413	50	0	1	1	blank2r.bmp	0	1	+	0	1	blank2r.bmp	492	1	BZZB	492	1	blank2r.bmp	572	3	treu	866	1	!	1239	1	!	1319	0	0	0	0	0	0	0	0	0	0	0	0	0	0	0	0	0	0	0	0	0	0	0	0	0	0	0	0	0	0
071719	16:45:46	16:56:29	641904	5.0.10.0	5_exp_RW	69	Rpleas_acq	CS_B	MQQM	BZZB	YDDY	JXXJ	GWWG	VKKV	spielen	retten	ehrlich	fair	schön	treu	strafen	rächen	eitel	faul	schlecht	tot	1	acq_USunple_CSunple2_RW	acq4567_RW	5	47	400	0	300	300	299	46	0	1	1	blank2r.bmp	0	1	+	0	1	blank2r.bmp	492	1	JXXJ	492	1	blank2r.bmp	572	3	tot	866	1	!	-1	1	!	-1	0	0	0	0	0	0	0	0	0	0	0	0	0	0	0	0	0	0	0	0	0	0	0	0	0	0	0	0	0	0
071719	16:45:46	16:56:31	644170	5.0.10.0	5_exp_RW	69	Rpleas_acq	CS_B	MQQM	BZZB	YDDY	JXXJ	GWWG	VKKV	spielen	retten	ehrlich	fair	schön	treu	strafen	rächen	eitel	faul	schlecht	tot	1	acq_USunple_CSunple2_RW	acq4567_RW	5	48	400	1	300	300	443	46	0	1	1	blank2r.bmp	0	1	+	0	1	blank2r.bmp	492	1	JXXJ	492	1	blank2r.bmp	572	2	schlecht	866	1	!	1239	1	!	1346	0	0	0	0	0	0	0	0	0	0	0	0	0	0	0	0	0	0	0	0	0	0	0	0	0	0	0	0	0	0
071719	16:45:46	16:56:33	646449	5.0.10.0	5_exp_RW	69	Rpleas_acq	CS_B	MQQM	BZZB	YDDY	JXXJ	GWWG	VKKV	spielen	retten	ehrlich	fair	schön	treu	strafen	rächen	eitel	faul	schlecht	tot	1	acq_USpleas_CSpleas2_RW	acq4567_RW	5	49	400	0	300	300	505	50	0	1	1	blank2r.bmp	0	1	+	0	1	blank2r.bmp	492	1	BZZB	492	1	blank2r.bmp	572	3	treu	866	1	!	1239	1	!	-1	0	0	0	0	0	0	0	0	0	0	0	0	0	0	0	0	0	0	0	0	0	0	0	0	0	0	0	0	0	0
071719	16:45:46	16:56:35	648715	5.0.10.0	5_exp_RW	69	Rpleas_acq	CS_B	MQQM	BZZB	YDDY	JXXJ	GWWG	VKKV	spielen	retten	ehrlich	fair	schön	treu	strafen	rächen	eitel	faul	schlecht	tot	1	acq_USpleas_CSpleas1_RW	acq4567_RW	5	50	400	0	300	300	479	50	0	1	1	blank2r.bmp	0	1	+	0	1	blank2r.bmp	492	1	MQQM	492	1	blank2r.bmp	572	3	ehrlich	866	1	!	1239	1	!	-1	0	0	0	0	0	0	0	0	0	0	0	0	0	0	0	0	0	0	0	0	0	0	0	0	0	0	0	0	0	0
071719	16:45:46	16:56:38	650887	5.0.10.0	5_exp_RW	69	Rpleas_acq	CS_B	MQQM	BZZB	YDDY	JXXJ	GWWG	VKKV	spielen	retten	ehrlich	fair	schön	treu	strafen	rächen	eitel	faul	schlecht	tot	1	acq_USunple_CSunple2_RW	acq4567_RW	5	51	400	1	300	300	364	46	0	1	1	blank2r.bmp	0	1	+	0	1	blank2r.bmp	492	1	JXXJ	492	1	blank2r.bmp	572	1	faul	866	1	!	1239	1	!	1266	0	0	0	0	0	0	0	0	0	0	0	0	0	0	0	0	0	0	0	0	0	0	0	0	0	0	0	0	0	0
071719	16:45:46	16:56:40	653046	5.0.10.0	5_exp_RW	69	Rpleas_acq	CS_B	MQQM	BZZB	YDDY	JXXJ	GWWG	VKKV	spielen	retten	ehrlich	fair	schön	treu	strafen	rächen	eitel	faul	schlecht	tot	1	acq_USpleas_CSpleas1_RW	acq4567_RW	5	52	400	1	300	300	351	50	0	1	1	blank2r.bmp	0	1	+	0	1	blank2r.bmp	492	1	MQQM	492	1	blank2r.bmp	572	2	retten	866	1	!	1239	1	!	1252	0	0	0	0	0	0	0	0	0	0	0	0	0	0	0	0	0	0	0	0	0	0	0	0	0	0	0	0	0	0
071719	16:45:46	16:56:42	655232	5.0.10.0	5_exp_RW	69	Rpleas_acq	CS_B	MQQM	BZZB	YDDY	JXXJ	GWWG	VKKV	spielen	retten	ehrlich	fair	schön	treu	strafen	rächen	eitel	faul	schlecht	tot	1	acq_USpleas_CSpleas2_RW	acq4567_RW	5	53	400	1	300	300	397	50	0	1	1	blank2r.bmp	0	1	+	0	1	blank2r.bmp	492	1	BZZB	492	1	blank2r.bmp	572	2	schön	866	1	!	1239	1	!	1292	0	0	0	0	0	0	0	0	0	0	0	0	0	0	0	0	0	0	0	0	0	0	0	0	0	0	0	0	0	0
071719	16:45:46	16:56:44	657458	5.0.10.0	5_exp_RW	69	Rpleas_acq	CS_B	MQQM	BZZB	YDDY	JXXJ	GWWG	VKKV	spielen	retten	ehrlich	fair	schön	treu	strafen	rächen	eitel	faul	schlecht	tot	1	acq_USpleas_CSpleas1_RW	acq4567_RW	5	54	400	1	300	300	436	50	0	1	1	blank2r.bmp	0	1	+	0	1	blank2r.bmp	492	1	MQQM	492	1	blank2r.bmp	572	1	spielen	866	1	!	1239	1	!	1332	0	0	0	0	0	0	0	0	0	0	0	0	0	0	0	0	0	0	0	0	0	0	0	0	0	0	0	0	0	0
071719	16:45:46	16:56:46	659603	5.0.10.0	5_exp_RW	69	Rpleas_acq	CS_B	MQQM	BZZB	YDDY	JXXJ	GWWG	VKKV	spielen	retten	ehrlich	fair	schön	treu	strafen	rächen	eitel	faul	schlecht	tot	1	acq_USpleas_CSpleas1_RW	acq4567_RW	5	55	400	1	300	300	356	50	0	1	1	blank2r.bmp	0	1	+	0	1	blank2r.bmp	492	1	MQQM	492	1	blank2r.bmp	572	3	ehrlich	866	1	!	1239	1	!	1252	0	0	0	0	0	0	0	0	0	0	0	0	0	0	0	0	0	0	0	0	0	0	0	0	0	0	0	0	0	0
071719	16:45:46	16:56:48	661749	5.0.10.0	5_exp_RW	69	Rpleas_acq	CS_B	MQQM	BZZB	YDDY	JXXJ	GWWG	VKKV	spielen	retten	ehrlich	fair	schön	treu	strafen	rächen	eitel	faul	schlecht	tot	1	acq_USunple_CSunple1_RW	acq4567_RW	5	56	400	1	300	300	346	46	0	1	1	blank2r.bmp	0	1	+	0	1	blank2r.bmp	492	1	YDDY	492	1	blank2r.bmp	572	1	strafen	866	1	!	1239	1	!	1252	0	0	0	0	0	0	0	0	0	0	0	0	0	0	0	0	0	0	0	0	0	0	0	0	0	0	0	0	0	0
071719	16:45:46	16:56:51	663895	5.0.10.0	5_exp_RW	69	Rpleas_acq	CS_B	MQQM	BZZB	YDDY	JXXJ	GWWG	VKKV	spielen	retten	ehrlich	fair	schön	treu	strafen	rächen	eitel	faul	schlecht	tot	1	acq_USpleas_CSpleas2_RW	acq4567_RW	5	57	400	1	300	300	346	50	0	1	1	blank2r.bmp	0	1	+	0	1	blank2r.bmp	492	1	BZZB	492	1	blank2r.bmp	572	1	fair	866	1	!	1239	1	!	1252	0	0	0	0	0	0	0	0	0	0	0	0	0	0	0	0	0	0	0	0	0	0	0	0	0	0	0	0	0	0
071719	16:45:46	16:56:53	665987	5.0.10.0	5_exp_RW	69	Rpleas_acq	CS_B	MQQM	BZZB	YDDY	JXXJ	GWWG	VKKV	spielen	retten	ehrlich	fair	schön	treu	strafen	rächen	eitel	faul	schlecht	tot	1	acq_USunple_CSunple2_RW	acq4567_RW	5	58	400	0	300	300	323	46	0	1	1	blank2r.bmp	0	1	+	0	1	blank2r.bmp	492	1	JXXJ	492	1	blank2r.bmp	572	3	tot	866	1	!	-1	1	!	-1	0	0	0	0	0	0	0	0	0	0	0	0	0	0	0	0	0	0	0	0	0	0	0	0	0	0	0	0	0	0
071719	16:45:46	16:56:55	668280	5.0.10.0	5_exp_RW	69	Rpleas_acq	CS_B	MQQM	BZZB	YDDY	JXXJ	GWWG	VKKV	spielen	retten	ehrlich	fair	schön	treu	strafen	rächen	eitel	faul	schlecht	tot	1	acq_USunple_CSunple1_RW	acq4567_RW	5	59	400	0	300	300	506	46	0	1	1	blank2r.bmp	0	1	+	0	1	blank2r.bmp	492	1	YDDY	492	1	blank2r.bmp	572	3	eitel	866	1	!	1239	1	!	-1	0	0	0	0	0	0	0	0	0	0	0	0	0	0	0	0	0	0	0	0	0	0	0	0	0	0	0	0	0	0
071719	16:45:46	16:56:57	670599	5.0.10.0	5_exp_RW	69	Rpleas_acq	CS_B	MQQM	BZZB	YDDY	JXXJ	GWWG	VKKV	spielen	retten	ehrlich	fair	schön	treu	strafen	rächen	eitel	faul	schlecht	tot	1	acq_USunple_CSunple1_RW	acq4567_RW	5	60	400	0	300	300	535	46	0	1	1	blank2r.bmp	0	1	+	0	1	blank2r.bmp	492	1	YDDY	492	1	blank2r.bmp	572	2	rächen	866	1	!	1239	1	!	-1	0	0	0	0	0	0	0	0	0	0	0	0	0	0	0	0	0	0	0	0	0	0	0	0	0	0	0	0	0	0
071719	16:45:46	16:57:00	672824	5.0.10.0	5_exp_RW	69	Rpleas_acq	CS_B	MQQM	BZZB	YDDY	JXXJ	GWWG	VKKV	spielen	retten	ehrlich	fair	schön	treu	strafen	rächen	eitel	faul	schlecht	tot	1	acq_USunple_CSunple2_RW	acq4567_RW	5	61	400	1	300	300	413	46	0	1	1	blank2r.bmp	0	1	+	0	1	blank2r.bmp	492	1	JXXJ	492	1	blank2r.bmp	572	2	schlecht	866	1	!	1239	1	!	1319	0	0	0	0	0	0	0	0	0	0	0	0	0	0	0	0	0	0	0	0	0	0	0	0	0	0	0	0	0	0
071719	16:45:46	16:57:02	675104	5.0.10.0	5_exp_RW	69	Rpleas_acq	CS_B	MQQM	BZZB	YDDY	JXXJ	GWWG	VKKV	spielen	retten	ehrlich	fair	schön	treu	strafen	rächen	eitel	faul	schlecht	tot	1	acq_USunple_CSunple1_RW	acq4567_RW	5	62	400	0	300	300	508	46	0	1	1	blank2r.bmp	0	1	+	0	1	blank2r.bmp	492	1	YDDY	492	1	blank2r.bmp	572	1	strafen	866	1	!	1239	1	!	-1	0	0	0	0	0	0	0	0	0	0	0	0	0	0	0	0	0	0	0	0	0	0	0	0	0	0	0	0	0	0
071719	16:45:46	16:57:04	677303	5.0.10.0	5_exp_RW	69	Rpleas_acq	CS_B	MQQM	BZZB	YDDY	JXXJ	GWWG	VKKV	spielen	retten	ehrlich	fair	schön	treu	strafen	rächen	eitel	faul	schlecht	tot	1	acq_USpleas_CSpleas2_RW	acq4567_RW	5	63	400	1	300	300	388	50	0	1	1	blank2r.bmp	0	1	+	0	1	blank2r.bmp	492	1	BZZB	492	1	blank2r.bmp	572	1	fair	866	1	!	1239	1	!	1292	0	0	0	0	0	0	0	0	0	0	0	0	0	0	0	0	0	0	0	0	0	0	0	0	0	0	0	0	0	0
071719	16:45:46	16:57:06	679355	5.0.10.0	5_exp_RW	69	Rpleas_acq	CS_B	MQQM	BZZB	YDDY	JXXJ	GWWG	VKKV	spielen	retten	ehrlich	fair	schön	treu	strafen	rächen	eitel	faul	schlecht	tot	1	acq_USunple_CSunple2_RW	acq4567_RW	5	64	400	0	300	300	282	46	0	1	1	blank2r.bmp	0	1	+	0	1	blank2r.bmp	492	1	JXXJ	492	1	blank2r.bmp	572	3	tot	866	1	!	-1	1	!	-1	0	0	0	0	0	0	0	0	0	0	0	0	0	0	0	0	0	0	0	0	0	0	0	0	0	0	0	0	0	0
071719	16:45:46	16:57:08	681607	5.0.10.0	5_exp_RW	69	Rpleas_acq	CS_B	MQQM	BZZB	YDDY	JXXJ	GWWG	VKKV	spielen	retten	ehrlich	fair	schön	treu	strafen	rächen	eitel	faul	schlecht	tot	1	acq_USunple_CSunple2_RW	acq4567_RW	5	65	400	1	300	300	444	46	0	1	1	blank2r.bmp	0	1	+	0	1	blank2r.bmp	492	1	JXXJ	492	1	blank2r.bmp	572	1	faul	866	1	!	1239	1	!	1346	0	0	0	0	0	0	0	0	0	0	0	0	0	0	0	0	0	0	0	0	0	0	0	0	0	0	0	0	0	0
071719	16:45:46	16:57:10	683753	5.0.10.0	5_exp_RW	69	Rpleas_acq	CS_B	MQQM	BZZB	YDDY	JXXJ	GWWG	VKKV	spielen	retten	ehrlich	fair	schön	treu	strafen	rächen	eitel	faul	schlecht	tot	1	acq_USpleas_CSpleas1_RW	acq4567_RW	5	66	400	1	300	300	346	50	0	1	1	blank2r.bmp	0	1	+	0	1	blank2r.bmp	492	1	MQQM	492	1	blank2r.bmp	572	2	retten	866	1	!	1239	1	!	1252	0	0	0	0	0	0	0	0	0	0	0	0	0	0	0	0	0	0	0	0	0	0	0	0	0	0	0	0	0	0
071719	16:45:46	16:57:14	687738	5.0.10.0	5_exp_RW	69	Rpleas_acq	CS_B	MQQM	BZZB	YDDY	JXXJ	GWWG	VKKV	spielen	retten	ehrlich	fair	schön	treu	strafen	rächen	eitel	faul	schlecht	tot	1	acq_USunple_CSunple1_RW	acq4567_RW	5	67	400	0	300	300	2212	46	0	1	1	blank2r.bmp	0	1	+	0	1	blank2r.bmp	492	1	YDDY	492	1	blank2r.bmp	572	3	eitel	866	1	!	1239	1	!	-1	0	0	0	0	0	0	0	0	0	0	0	0	0	0	0	0	0	0	0	0	0	0	0	0	0	0	0	0	0	0
071719	16:45:46	16:57:17	689911	5.0.10.0	5_exp_RW	69	Rpleas_acq	CS_B	MQQM	BZZB	YDDY	JXXJ	GWWG	VKKV	spielen	retten	ehrlich	fair	schön	treu	strafen	rächen	eitel	faul	schlecht	tot	1	acq_USpleas_CSpleas1_RW	acq4567_RW	5	68	400	1	300	300	346	50	0	1	1	blank2r.bmp	0	1	+	0	1	blank2r.bmp	492	1	MQQM	492	1	blank2r.bmp	572	1	spielen	866	1	!	1239	1	!	1252	0	0	0	0	0	0	0	0	0	0	0	0	0	0	0	0	0	0	0	0	0	0	0	0	0	0	0	0	0	0
071719	16:45:46	16:57:19	692136	5.0.10.0	5_exp_RW	69	Rpleas_acq	CS_B	MQQM	BZZB	YDDY	JXXJ	GWWG	VKKV	spielen	retten	ehrlich	fair	schön	treu	strafen	rächen	eitel	faul	schlecht	tot	1	acq_USpleas_CSpleas2_RW	acq4567_RW	5	69	400	1	300	300	433	50	0	1	1	blank2r.bmp	0	1	+	0	1	blank2r.bmp	492	1	BZZB	492	1	blank2r.bmp	572	2	schön	866	1	!	1239	1	!	1332	0	0	0	0	0	0	0	0	0	0	0	0	0	0	0	0	0	0	0	0	0	0	0	0	0	0	0	0	0	0
071719	16:45:46	16:57:21	694322	5.0.10.0	5_exp_RW	69	Rpleas_acq	CS_B	MQQM	BZZB	YDDY	JXXJ	GWWG	VKKV	spielen	retten	ehrlich	fair	schön	treu	strafen	rächen	eitel	faul	schlecht	tot	1	acq_USunple_CSunple2_RW	acq4567_RW	5	70	400	1	300	300	389	46	0	1	1	blank2r.bmp	0	1	+	0	1	blank2r.bmp	492	1	JXXJ	492	1	blank2r.bmp	572	2	schlecht	866	1	!	1239	1	!	1292	0	0	0	0	0	0	0	0	0	0	0	0	0	0	0	0	0	0	0	0	0	0	0	0	0	0	0	0	0	0
071719	16:45:46	16:57:23	696588	5.0.10.0	5_exp_RW	69	Rpleas_acq	CS_B	MQQM	BZZB	YDDY	JXXJ	GWWG	VKKV	spielen	retten	ehrlich	fair	schön	treu	strafen	rächen	eitel	faul	schlecht	tot	1	acq_USpleas_CSpleas1_RW	acq4567_RW	5	71	400	0	300	300	503	50	0	1	1	blank2r.bmp	0	1	+	0	1	blank2r.bmp	492	1	MQQM	492	1	blank2r.bmp	572	3	ehrlich	866	1	!	1239	1	!	-1	0	0	0	0	0	0	0	0	0	0	0	0	0	0	0	0	0	0	0	0	0	0	0	0	0	0	0	0	0	0
071719	16:45:46	16:57:25	698760	5.0.10.0	5_exp_RW	69	Rpleas_acq	CS_B	MQQM	BZZB	YDDY	JXXJ	GWWG	VKKV	spielen	retten	ehrlich	fair	schön	treu	strafen	rächen	eitel	faul	schlecht	tot	1	acq_USunple_CSunple2_RW	acq4567_RW	5	72	400	1	300	300	364	46	0	1	1	blank2r.bmp	0	1	+	0	1	blank2r.bmp	492	1	JXXJ	492	1	blank2r.bmp	572	3	tot	866	1	!	1239	1	!	1266	0	0	0	0	0	0	0	0	0	0	0	0	0	0	0	0	0	0	0	0	0	0	0	0	0	0	0	0	0	0
071719	16:45:46	16:57:28	700946	5.0.10.0	5_exp_RW	69	Rpleas_acq	CS_B	MQQM	BZZB	YDDY	JXXJ	GWWG	VKKV	spielen	retten	ehrlich	fair	schön	treu	strafen	rächen	eitel	faul	schlecht	tot	1	acq_USunple_CSunple1_RW	acq4567_RW	5	73	400	1	300	300	386	46	0	1	1	blank2r.bmp	0	1	+	0	1	blank2r.bmp	492	1	YDDY	492	1	blank2r.bmp	572	2	rächen	866	1	!	1239	1	!	1292	0	0	0	0	0	0	0	0	0	0	0	0	0	0	0	0	0	0	0	0	0	0	0	0	0	0	0	0	0	0
071719	16:45:46	16:57:30	703198	5.0.10.0	5_exp_RW	69	Rpleas_acq	CS_B	MQQM	BZZB	YDDY	JXXJ	GWWG	VKKV	spielen	retten	ehrlich	fair	schön	treu	strafen	rächen	eitel	faul	schlecht	tot	1	acq_USpleas_CSpleas1_RW	acq4567_RW	5	74	400	1	300	300	439	46	0	0	1	blank2r.bmp	0	1	+	0	1	blank2r.bmp	492	1	MQQM	492	1	blank2r.bmp	572	2	retten	866	1	!	1239	1	!	1346	0	0	0	0	0	0	0	0	0	0	0	0	0	0	0	0	0	0	0	0	0	0	0	0	0	0	0	0	0	0
071719	16:45:46	16:57:32	705517	5.0.10.0	5_exp_RW	69	Rpleas_acq	CS_B	MQQM	BZZB	YDDY	JXXJ	GWWG	VKKV	spielen	retten	ehrlich	fair	schön	treu	strafen	rächen	eitel	faul	schlecht	tot	1	acq_USpleas_CSpleas1_RW	acq4567_RW	5	75	400	0	300	300	553	50	0	1	1	blank2r.bmp	0	1	+	0	1	blank2r.bmp	492	1	MQQM	492	1	blank2r.bmp	572	1	spielen	866	1	!	1239	1	!	-1	0	0	0	0	0	0	0	0	0	0	0	0	0	0	0	0	0	0	0	0	0	0	0	0	0	0	0	0	0	0
071719	16:45:46	16:57:35	707836	5.0.10.0	5_exp_RW	69	Rpleas_acq	CS_B	MQQM	BZZB	YDDY	JXXJ	GWWG	VKKV	spielen	retten	ehrlich	fair	schön	treu	strafen	rächen	eitel	faul	schlecht	tot	1	acq_USpleas_CSpleas2_RW	acq4567_RW	5	76	400	0	300	300	534	46	0	0	1	blank2r.bmp	0	1	+	0	1	blank2r.bmp	492	1	BZZB	492	1	blank2r.bmp	572	3	treu	866	1	!	1239	1	!	-1	0	0	0	0	0	0	0	0	0	0	0	0	0	0	0	0	0	0	0	0	0	0	0	0	0	0	0	0	0	0
071719	16:45:46	16:57:37	710076	5.0.10.0	5_exp_RW	69	Rpleas_acq	CS_B	MQQM	BZZB	YDDY	JXXJ	GWWG	VKKV	spielen	retten	ehrlich	fair	schön	treu	strafen	rächen	eitel	faul	schlecht	tot	1	acq_USunple_CSunple1_RW	acq4567_RW	5	77	400	1	300	300	436	46	0	1	1	blank2r.bmp	0	1	+	0	1	blank2r.bmp	492	1	YDDY	492	1	blank2r.bmp	572	2	rächen	866	1	!	1239	1	!	1332	0	0	0	0	0	0	0	0	0	0	0	0	0	0	0	0	0	0	0	0	0	0	0	0	0	0	0	0	0	0
071719	16:45:46	16:57:39	712235	5.0.10.0	5_exp_RW	69	Rpleas_acq	CS_B	MQQM	BZZB	YDDY	JXXJ	GWWG	VKKV	spielen	retten	ehrlich	fair	schön	treu	strafen	rächen	eitel	faul	schlecht	tot	1	acq_USunple_CSunple1_RW	acq4567_RW	5	78	400	1	300	300	366	46	0	1	1	blank2r.bmp	0	1	+	0	1	blank2r.bmp	492	1	YDDY	492	1	blank2r.bmp	572	1	strafen	866	1	!	1239	1	!	1266	0	0	0	0	0	0	0	0	0	0	0	0	0	0	0	0	0	0	0	0	0	0	0	0	0	0	0	0	0	0
071719	16:45:46	16:57:41	714487	5.0.10.0	5_exp_RW	69	Rpleas_acq	CS_B	MQQM	BZZB	YDDY	JXXJ	GWWG	VKKV	spielen	retten	ehrlich	fair	schön	treu	strafen	rächen	eitel	faul	schlecht	tot	1	acq_USpleas_CSpleas2_RW	acq4567_RW	5	79	400	1	300	300	459	50	0	1	1	blank2r.bmp	0	1	+	0	1	blank2r.bmp	492	1	BZZB	492	1	blank2r.bmp	572	1	fair	866	1	!	1239	1	!	1359	0	0	0	0	0	0	0	0	0	0	0	0	0	0	0	0	0	0	0	0	0	0	0	0	0	0	0	0	0	0
071719	16:45:46	16:57:43	716673	5.0.10.0	5_exp_RW	69	Rpleas_acq	CS_B	MQQM	BZZB	YDDY	JXXJ	GWWG	VKKV	spielen	retten	ehrlich	fair	schön	treu	strafen	rächen	eitel	faul	schlecht	tot	1	acq_USpleas_CSpleas2_RW	acq4567_RW	5	80	400	1	300	300	375	50	0	1	1	blank2r.bmp	0	1	+	0	1	blank2r.bmp	492	1	BZZB	492	1	blank2r.bmp	572	3	treu	866	1	!	1239	1	!	1279	0	0	0	0	0	0	0	0	0	0	0	0	0	0	0	0	0	0	0	0	0	0	0	0	0	0	0	0	0	0
071719	16:45:46	16:58:07	740036	5.0.10.0	5_exp_RW	69	Rpleas_acq	CS_B	MQQM	BZZB	YDDY	JXXJ	GWWG	VKKV	spielen	retten	ehrlich	fair	schön	treu	strafen	rächen	eitel	faul	schlecht	tot	1	acq_USunple_CSunple1_RW	acq4567_RW	6	1	400	0	300	300	479	50	0	0	1	blank2r.bmp	0	1	+	0	1	blank2r.bmp	492	1	YDDY	492	1	blank2r.bmp	572	3	eitel	866	1	!	1239	1	!	-1	0	0	0	0	0	0	0	0	0	0	0	0	0	0	0	0	0	0	0	0	0	0	0	0	0	0	0	0	0	0
071719	16:45:46	16:58:09	742209	5.0.10.0	5_exp_RW	69	Rpleas_acq	CS_B	MQQM	BZZB	YDDY	JXXJ	GWWG	VKKV	spielen	retten	ehrlich	fair	schön	treu	strafen	rächen	eitel	faul	schlecht	tot	1	acq_USunple_CSunple1_RW	acq4567_RW	6	2	400	1	300	300	365	46	0	1	1	blank2r.bmp	0	1	+	0	1	blank2r.bmp	492	1	YDDY	492	1	blank2r.bmp	572	2	rächen	866	1	!	1239	1	!	1266	0	0	0	0	0	0	0	0	0	0	0	0	0	0	0	0	0	0	0	0	0	0	0	0	0	0	0	0	0	0
071719	16:45:46	16:58:11	744488	5.0.10.0	5_exp_RW	69	Rpleas_acq	CS_B	MQQM	BZZB	YDDY	JXXJ	GWWG	VKKV	spielen	retten	ehrlich	fair	schön	treu	strafen	rächen	eitel	faul	schlecht	tot	1	acq_USunple_CSunple1_RW	acq4567_RW	6	3	400	0	300	300	502	46	0	1	1	blank2r.bmp	0	1	+	0	1	blank2r.bmp	492	1	YDDY	492	1	blank2r.bmp	572	1	strafen	866	1	!	1239	1	!	-1	0	0	0	0	0	0	0	0	0	0	0	0	0	0	0	0	0	0	0	0	0	0	0	0	0	0	0	0	0	0
071719	16:45:46	16:58:13	746594	5.0.10.0	5_exp_RW	69	Rpleas_acq	CS_B	MQQM	BZZB	YDDY	JXXJ	GWWG	VKKV	spielen	retten	ehrlich	fair	schön	treu	strafen	rächen	eitel	faul	schlecht	tot	1	acq_USpleas_CSpleas2_RW	acq4567_RW	6	4	400	0	300	300	309	50	0	1	1	blank2r.bmp	0	1	+	0	1	blank2r.bmp	492	1	BZZB	492	1	blank2r.bmp	572	2	schön	866	1	!	-1	1	!	-1	0	0	0	0	0	0	0	0	0	0	0	0	0	0	0	0	0	0	0	0	0	0	0	0	0	0	0	0	0	0
071719	16:45:46	16:58:16	748886	5.0.10.0	5_exp_RW	69	Rpleas_acq	CS_B	MQQM	BZZB	YDDY	JXXJ	GWWG	VKKV	spielen	retten	ehrlich	fair	schön	treu	strafen	rächen	eitel	faul	schlecht	tot	1	acq_USpleas_CSpleas1_RW	acq4567_RW	6	5	400	0	300	300	518	50	0	1	1	blank2r.bmp	0	1	+	0	1	blank2r.bmp	492	1	MQQM	492	1	blank2r.bmp	572	3	ehrlich	866	1	!	1239	1	!	-1	0	0	0	0	0	0	0	0	0	0	0	0	0	0	0	0	0	0	0	0	0	0	0	0	0	0	0	0	0	0
071719	16:45:46	16:58:18	751058	5.0.10.0	5_exp_RW	69	Rpleas_acq	CS_B	MQQM	BZZB	YDDY	JXXJ	GWWG	VKKV	spielen	retten	ehrlich	fair	schön	treu	strafen	rächen	eitel	faul	schlecht	tot	1	acq_USunple_CSunple2_RW	acq4567_RW	6	6	400	1	300	300	371	46	0	1	1	blank2r.bmp	0	1	+	0	1	blank2r.bmp	492	1	JXXJ	492	1	blank2r.bmp	572	1	faul	866	1	!	1239	1	!	1266	0	0	0	0	0	0	0	0	0	0	0	0	0	0	0	0	0	0	0	0	0	0	0	0	0	0	0	0	0	0
071719	16:45:46	16:58:20	753337	5.0.10.0	5_exp_RW	69	Rpleas_acq	CS_B	MQQM	BZZB	YDDY	JXXJ	GWWG	VKKV	spielen	retten	ehrlich	fair	schön	treu	strafen	rächen	eitel	faul	schlecht	tot	1	acq_USpleas_CSpleas1_RW	acq4567_RW	6	7	400	0	300	300	509	50	0	1	1	blank2r.bmp	0	1	+	0	1	blank2r.bmp	492	1	MQQM	492	1	blank2r.bmp	572	1	spielen	866	1	!	1239	1	!	-1	0	0	0	0	0	0	0	0	0	0	0	0	0	0	0	0	0	0	0	0	0	0	0	0	0	0	0	0	0	0
071719	16:45:46	16:58:22	755497	5.0.10.0	5_exp_RW	69	Rpleas_acq	CS_B	MQQM	BZZB	YDDY	JXXJ	GWWG	VKKV	spielen	retten	ehrlich	fair	schön	treu	strafen	rächen	eitel	faul	schlecht	tot	1	acq_USpleas_CSpleas1_RW	acq4567_RW	6	8	400	1	300	300	346	46	0	0	1	blank2r.bmp	0	1	+	0	1	blank2r.bmp	492	1	MQQM	492	1	blank2r.bmp	572	2	retten	866	1	!	1239	1	!	1252	0	0	0	0	0	0	0	0	0	0	0	0	0	0	0	0	0	0	0	0	0	0	0	0	0	0	0	0	0	0
071719	16:45:46	16:58:24	757642	5.0.10.0	5_exp_RW	69	Rpleas_acq	CS_B	MQQM	BZZB	YDDY	JXXJ	GWWG	VKKV	spielen	retten	ehrlich	fair	schön	treu	strafen	rächen	eitel	faul	schlecht	tot	1	acq_USpleas_CSpleas1_RW	acq4567_RW	6	9	400	1	300	300	346	50	0	1	1	blank2r.bmp	0	1	+	0	1	blank2r.bmp	492	1	MQQM	492	1	blank2r.bmp	572	3	ehrlich	866	1	!	1239	1	!	1252	0	0	0	0	0	0	0	0	0	0	0	0	0	0	0	0	0	0	0	0	0	0	0	0	0	0	0	0	0	0
071719	16:45:46	16:58:27	759868	5.0.10.0	5_exp_RW	69	Rpleas_acq	CS_B	MQQM	BZZB	YDDY	JXXJ	GWWG	VKKV	spielen	retten	ehrlich	fair	schön	treu	strafen	rächen	eitel	faul	schlecht	tot	1	acq_USpleas_CSpleas2_RW	acq4567_RW	6	10	400	1	300	300	426	50	0	1	1	blank2r.bmp	0	1	+	0	1	blank2r.bmp	492	1	BZZB	492	1	blank2r.bmp	572	3	treu	866	1	!	1239	1	!	1332	0	0	0	0	0	0	0	0	0	0	0	0	0	0	0	0	0	0	0	0	0	0	0	0	0	0	0	0	0	0
071719	16:45:46	16:58:29	762160	5.0.10.0	5_exp_RW	69	Rpleas_acq	CS_B	MQQM	BZZB	YDDY	JXXJ	GWWG	VKKV	spielen	retten	ehrlich	fair	schön	treu	strafen	rächen	eitel	faul	schlecht	tot	1	acq_USunple_CSunple1_RW	acq4567_RW	6	11	400	0	300	300	518	46	0	1	1	blank2r.bmp	0	1	+	0	1	blank2r.bmp	492	1	YDDY	492	1	blank2r.bmp	572	3	eitel	866	1	!	1239	1	!	-1	0	0	0	0	0	0	0	0	0	0	0	0	0	0	0	0	0	0	0	0	0	0	0	0	0	0	0	0	0	0
071719	16:45:46	16:58:31	764320	5.0.10.0	5_exp_RW	69	Rpleas_acq	CS_B	MQQM	BZZB	YDDY	JXXJ	GWWG	VKKV	spielen	retten	ehrlich	fair	schön	treu	strafen	rächen	eitel	faul	schlecht	tot	1	acq_USpleas_CSpleas1_RW	acq4567_RW	6	12	400	1	300	300	355	50	0	1	1	blank2r.bmp	0	1	+	0	1	blank2r.bmp	492	1	MQQM	492	1	blank2r.bmp	572	3	ehrlich	866	1	!	1239	1	!	1252	0	0	0	0	0	0	0	0	0	0	0	0	0	0	0	0	0	0	0	0	0	0	0	0	0	0	0	0	0	0
071719	16:45:46	16:58:33	766572	5.0.10.0	5_exp_RW	69	Rpleas_acq	CS_B	MQQM	BZZB	YDDY	JXXJ	GWWG	VKKV	spielen	retten	ehrlich	fair	schön	treu	strafen	rächen	eitel	faul	schlecht	tot	1	acq_USunple_CSunple2_RW	acq4567_RW	6	13	400	0	300	300	483	46	0	1	1	blank2r.bmp	0	1	+	0	1	blank2r.bmp	492	1	JXXJ	492	1	blank2r.bmp	572	3	tot	866	1	!	1239	1	!	-1	0	0	0	0	0	0	0	0	0	0	0	0	0	0	0	0	0	0	0	0	0	0	0	0	0	0	0	0	0	0
071719	16:45:46	16:58:35	768731	5.0.10.0	5_exp_RW	69	Rpleas_acq	CS_B	MQQM	BZZB	YDDY	JXXJ	GWWG	VKKV	spielen	retten	ehrlich	fair	schön	treu	strafen	rächen	eitel	faul	schlecht	tot	1	acq_USpleas_CSpleas2_RW	acq4567_RW	6	14	400	1	300	300	356	50	0	1	1	blank2r.bmp	0	1	+	0	1	blank2r.bmp	492	1	BZZB	492	1	blank2r.bmp	572	1	fair	866	1	!	1239	1	!	1252	0	0	0	0	0	0	0	0	0	0	0	0	0	0	0	0	0	0	0	0	0	0	0	0	0	0	0	0	0	0
071719	16:45:46	16:58:38	770837	5.0.10.0	5_exp_RW	69	Rpleas_acq	CS_B	MQQM	BZZB	YDDY	JXXJ	GWWG	VKKV	spielen	retten	ehrlich	fair	schön	treu	strafen	rächen	eitel	faul	schlecht	tot	1	acq_USunple_CSunple1_RW	acq4567_RW	6	15	400	0	300	300	332	50	0	0	1	blank2r.bmp	0	1	+	0	1	blank2r.bmp	492	1	YDDY	492	1	blank2r.bmp	572	2	rächen	866	1	!	-1	1	!	-1	0	0	0	0	0	0	0	0	0	0	0	0	0	0	0	0	0	0	0	0	0	0	0	0	0	0	0	0	0	0
071719	16:45:46	16:58:40	773103	5.0.10.0	5_exp_RW	69	Rpleas_acq	CS_B	MQQM	BZZB	YDDY	JXXJ	GWWG	VKKV	spielen	retten	ehrlich	fair	schön	treu	strafen	rächen	eitel	faul	schlecht	tot	1	acq_USunple_CSunple2_RW	acq4567_RW	6	16	400	1	300	300	446	46	0	1	1	blank2r.bmp	0	1	+	0	1	blank2r.bmp	492	1	JXXJ	492	1	blank2r.bmp	572	2	schlecht	866	1	!	1239	1	!	1346	0	0	0	0	0	0	0	0	0	0	0	0	0	0	0	0	0	0	0	0	0	0	0	0	0	0	0	0	0	0
071719	16:45:46	16:58:42	775262	5.0.10.0	5_exp_RW	69	Rpleas_acq	CS_B	MQQM	BZZB	YDDY	JXXJ	GWWG	VKKV	spielen	retten	ehrlich	fair	schön	treu	strafen	rächen	eitel	faul	schlecht	tot	1	acq_USunple_CSunple2_RW	acq4567_RW	6	17	400	1	300	300	363	46	0	1	1	blank2r.bmp	0	1	+	0	1	blank2r.bmp	492	1	JXXJ	492	1	blank2r.bmp	572	1	faul	866	1	!	1239	1	!	1266	0	0	0	0	0	0	0	0	0	0	0	0	0	0	0	0	0	0	0	0	0	0	0	0	0	0	0	0	0	0
071719	16:45:46	16:58:44	777421	5.0.10.0	5_exp_RW	69	Rpleas_acq	CS_B	MQQM	BZZB	YDDY	JXXJ	GWWG	VKKV	spielen	retten	ehrlich	fair	schön	treu	strafen	rächen	eitel	faul	schlecht	tot	1	acq_USpleas_CSpleas2_RW	acq4567_RW	6	18	400	1	300	300	366	50	0	1	1	blank2r.bmp	0	1	+	0	1	blank2r.bmp	492	1	BZZB	492	1	blank2r.bmp	572	2	schön	866	1	!	1239	1	!	1266	0	0	0	0	0	0	0	0	0	0	0	0	0	0	0	0	0	0	0	0	0	0	0	0	0	0	0	0	0	0
071719	16:45:46	16:58:46	779740	5.0.10.0	5_exp_RW	69	Rpleas_acq	CS_B	MQQM	BZZB	YDDY	JXXJ	GWWG	VKKV	spielen	retten	ehrlich	fair	schön	treu	strafen	rächen	eitel	faul	schlecht	tot	1	acq_USunple_CSunple2_RW	acq4567_RW	6	19	400	0	300	300	545	46	0	1	1	blank2r.bmp	0	1	+	0	1	blank2r.bmp	492	1	JXXJ	492	1	blank2r.bmp	572	2	schlecht	866	1	!	1239	1	!	-1	0	0	0	0	0	0	0	0	0	0	0	0	0	0	0	0	0	0	0	0	0	0	0	0	0	0	0	0	0	0
071719	16:45:46	16:58:49	781979	5.0.10.0	5_exp_RW	69	Rpleas_acq	CS_B	MQQM	BZZB	YDDY	JXXJ	GWWG	VKKV	spielen	retten	ehrlich	fair	schön	treu	strafen	rächen	eitel	faul	schlecht	tot	1	acq_USpleas_CSpleas2_RW	acq4567_RW	6	20	400	1	300	300	446	50	0	1	1	blank2r.bmp	0	1	+	0	1	blank2r.bmp	492	1	BZZB	492	1	blank2r.bmp	572	3	treu	866	1	!	1239	1	!	1346	0	0	0	0	0	0	0	0	0	0	0	0	0	0	0	0	0	0	0	0	0	0	0	0	0	0	0	0	0	0
