date	time	script.currenttime	script.elapsedtime	build	script.currentexpt	subject	expressions.LRpleas_acq	expressions.conditionCS_A	expressions.CSpleas_1	expressions.CSpleas_2	expressions.CSunple_1	expressions.CSunple_2	expressions.distractor_1	expressions.distractor_2	expressions.US_pleas1	expressions.US_pleas2	expressions.US_pleas3	expressions.US_pleas4	expressions.US_pleas5	expressions.US_pleas6	expressions.US_unple1	expressions.US_unple2	expressions.US_unple3	expressions.US_unple4	expressions.US_unple5	expressions.US_unple6	counter.positions_noRW	trialcode	blockcode	blocknum	trialnum	windowcenter	inwindow	pretrialpause	posttrialpause	latency	response	expressions.correctedscore	correct	stimulusnumber1	stimulusitem1	stimulusonset1	stimulusnumber2	stimulusitem2	stimulusonset2	stimulusnumber3	stimulusitem3	stimulusonset3	stimulusnumber4	stimulusitem4	stimulusonset4	stimulusnumber5	stimulusitem5	stimulusonset5	stimulusnumber6	stimulusitem6	stimulusonset6	stimulusnumber7	stimulusitem7	stimulusonset7	stimulusnumber8	stimulusitem8	stimulusonset8	stimulusnumber9	stimulusitem9	stimulusonset9	stimulusnumber10	stimulusitem10	stimulusonset10	stimulusnumber11	stimulusitem11	stimulusonset11	stimulusnumber12	stimulusitem12	stimulusonset12	stimulusnumber13	stimulusitem13	stimulusonset13	stimulusnumber14	stimulusitem14	stimulusonset14	stimulusnumber15	stimulusitem15	stimulusonset15	stimulusnumber16	stimulusitem16	stimulusonset16	stimulusnumber17	stimulusitem17	stimulusonset17	stimulusnumber18	stimulusitem18	stimulusonset18
081219	16:01:04	16:02:43	98959	5.0.10.0	5_exp_noRW	96	Rpleas_acq	CS_B	JXXJ	MQQM	YDDY	VKKV	BZZB	GWWG	schön	retten	fair	treu	spielen	ehrlich	schlecht	rächen	faul	tot	strafen	eitel	53pct	acq_USpleas_CSunple1_noRW	acq1_noRW	1	1	0	0	300	300	2000	0	0	0	1	blank2r.bmp	0	1	+	0	1	blank2r.bmp	252	1	YDDY	306	1	schön	559	1	FEHLER	2598	1	Schneller!	2598	0	0	0	0	0	0	0	0	0	0	0	0	0	0	0	0	0	0	0	0	0	0	0	0	0	0	0	0	0	0	0	0	0
081219	16:01:04	16:02:45	100425	5.0.10.0	5_exp_noRW	96	Rpleas_acq	CS_B	JXXJ	MQQM	YDDY	VKKV	BZZB	GWWG	schön	retten	fair	treu	spielen	ehrlich	schlecht	rächen	faul	tot	strafen	eitel	47pct	acq_USpleas_CSpleas1_noRW	acq1_noRW	1	2	0	0	300	300	571	50	0	1	1	blank2r.bmp	0	1	+	0	1	blank2r.bmp	252	1	JXXJ	306	3	fair	559	0	0	0	0	0	0	0	0	0	0	0	0	0	0	0	0	0	0	0	0	0	0	0	0	0	0	0	0	0	0	0	0	0	0	0	0	0	0	0
081219	16:01:04	16:02:46	102291	5.0.10.0	5_exp_noRW	96	Rpleas_acq	CS_B	JXXJ	MQQM	YDDY	VKKV	BZZB	GWWG	schön	retten	fair	treu	spielen	ehrlich	schlecht	rächen	faul	tot	strafen	eitel	47pct	acq_USunple_CSunple1_noRW	acq1_noRW	1	3	0	0	300	300	691	46	0	1	1	blank2r.bmp	0	1	+	0	1	blank2r.bmp	252	1	YDDY	306	3	faul	559	0	0	0	0	0	0	0	0	0	0	0	0	0	0	0	0	0	0	0	0	0	0	0	0	0	0	0	0	0	0	0	0	0	0	0	0	0	0	0
081219	16:01:04	16:02:48	104130	5.0.10.0	5_exp_noRW	96	Rpleas_acq	CS_B	JXXJ	MQQM	YDDY	VKKV	BZZB	GWWG	schön	retten	fair	treu	spielen	ehrlich	schlecht	rächen	faul	tot	strafen	eitel	47pct	acq_USunple_CSunple2_noRW	acq1_noRW	1	4	0	0	300	300	654	46	0	1	1	blank2r.bmp	0	1	+	0	1	blank2r.bmp	252	1	VKKV	306	3	eitel	559	0	0	0	0	0	0	0	0	0	0	0	0	0	0	0	0	0	0	0	0	0	0	0	0	0	0	0	0	0	0	0	0	0	0	0	0	0	0	0
081219	16:01:04	16:02:50	105836	5.0.10.0	5_exp_noRW	96	Rpleas_acq	CS_B	JXXJ	MQQM	YDDY	VKKV	BZZB	GWWG	schön	retten	fair	treu	spielen	ehrlich	schlecht	rächen	faul	tot	strafen	eitel	53pct	acq_USpleas_CSpleas2_noRW	acq1_noRW	1	5	0	0	300	300	544	50	0	1	1	blank2r.bmp	0	1	+	0	1	blank2r.bmp	252	1	MQQM	306	1	treu	559	0	0	0	0	0	0	0	0	0	0	0	0	0	0	0	0	0	0	0	0	0	0	0	0	0	0	0	0	0	0	0	0	0	0	0	0	0	0	0
081219	16:01:04	16:02:52	107475	5.0.10.0	5_exp_noRW	96	Rpleas_acq	CS_B	JXXJ	MQQM	YDDY	VKKV	BZZB	GWWG	schön	retten	fair	treu	spielen	ehrlich	schlecht	rächen	faul	tot	strafen	eitel	47pct	acq_USunple_CSunple1_noRW	acq1_noRW	1	6	0	0	300	300	463	46	0	1	1	blank2r.bmp	0	1	+	0	1	blank2r.bmp	252	1	YDDY	306	1	schlecht	559	0	0	0	0	0	0	0	0	0	0	0	0	0	0	0	0	0	0	0	0	0	0	0	0	0	0	0	0	0	0	0	0	0	0	0	0	0	0	0
081219	16:01:04	16:02:53	109261	5.0.10.0	5_exp_noRW	96	Rpleas_acq	CS_B	JXXJ	MQQM	YDDY	VKKV	BZZB	GWWG	schön	retten	fair	treu	spielen	ehrlich	schlecht	rächen	faul	tot	strafen	eitel	53pct	acq_USunple_CSpleas1_noRW	acq1_noRW	1	7	0	0	300	300	609	46	0	1	1	blank2r.bmp	0	1	+	0	1	blank2r.bmp	252	1	JXXJ	306	1	schlecht	559	0	0	0	0	0	0	0	0	0	0	0	0	0	0	0	0	0	0	0	0	0	0	0	0	0	0	0	0	0	0	0	0	0	0	0	0	0	0	0
081219	16:01:04	16:02:55	111194	5.0.10.0	5_exp_noRW	96	Rpleas_acq	CS_B	JXXJ	MQQM	YDDY	VKKV	BZZB	GWWG	schön	retten	fair	treu	spielen	ehrlich	schlecht	rächen	faul	tot	strafen	eitel	47pct	acq_USunple_CSunple2_noRW	acq1_noRW	1	8	0	0	300	300	768	46	0	1	1	blank2r.bmp	0	1	+	0	1	blank2r.bmp	252	1	VKKV	306	1	tot	559	0	0	0	0	0	0	0	0	0	0	0	0	0	0	0	0	0	0	0	0	0	0	0	0	0	0	0	0	0	0	0	0	0	0	0	0	0	0	0
081219	16:01:04	16:02:58	113513	5.0.10.0	5_exp_noRW	96	Rpleas_acq	CS_B	JXXJ	MQQM	YDDY	VKKV	BZZB	GWWG	schön	retten	fair	treu	spielen	ehrlich	schlecht	rächen	faul	tot	strafen	eitel	53pct	acq_USpleas_CSpleas1_noRW	acq1_noRW	1	9	0	0	300	300	1142	50	0	1	1	blank2r.bmp	0	1	+	0	1	blank2r.bmp	252	1	JXXJ	306	2	retten	559	0	0	0	0	0	0	0	0	0	0	0	0	0	0	0	0	0	0	0	0	0	0	0	0	0	0	0	0	0	0	0	0	0	0	0	0	0	0	0
081219	16:01:04	16:03:00	115405	5.0.10.0	5_exp_noRW	96	Rpleas_acq	CS_B	JXXJ	MQQM	YDDY	VKKV	BZZB	GWWG	schön	retten	fair	treu	spielen	ehrlich	schlecht	rächen	faul	tot	strafen	eitel	53pct	acq_USunple_CSunple2_noRW	acq1_noRW	1	10	0	0	300	300	706	46	0	1	1	blank2r.bmp	0	1	+	0	1	blank2r.bmp	252	1	VKKV	306	2	strafen	559	0	0	0	0	0	0	0	0	0	0	0	0	0	0	0	0	0	0	0	0	0	0	0	0	0	0	0	0	0	0	0	0	0	0	0	0	0	0	0
081219	16:01:04	16:03:02	117338	5.0.10.0	5_exp_noRW	96	Rpleas_acq	CS_B	JXXJ	MQQM	YDDY	VKKV	BZZB	GWWG	schön	retten	fair	treu	spielen	ehrlich	schlecht	rächen	faul	tot	strafen	eitel	53pct	acq_USpleas_CSpleas2_noRW	acq1_noRW	1	11	0	0	300	300	753	50	0	1	1	blank2r.bmp	0	1	+	0	1	blank2r.bmp	252	1	MQQM	306	2	spielen	559	0	0	0	0	0	0	0	0	0	0	0	0	0	0	0	0	0	0	0	0	0	0	0	0	0	0	0	0	0	0	0	0	0	0	0	0	0	0	0
081219	16:01:04	16:03:03	119137	5.0.10.0	5_exp_noRW	96	Rpleas_acq	CS_B	JXXJ	MQQM	YDDY	VKKV	BZZB	GWWG	schön	retten	fair	treu	spielen	ehrlich	schlecht	rächen	faul	tot	strafen	eitel	47pct	acq_USpleas_CSpleas2_noRW	acq1_noRW	1	12	0	0	300	300	616	50	0	1	1	blank2r.bmp	0	1	+	0	1	blank2r.bmp	252	1	MQQM	306	3	ehrlich	559	0	0	0	0	0	0	0	0	0	0	0	0	0	0	0	0	0	0	0	0	0	0	0	0	0	0	0	0	0	0	0	0	0	0	0	0	0	0	0
081219	16:01:04	16:03:05	120803	5.0.10.0	5_exp_noRW	96	Rpleas_acq	CS_B	JXXJ	MQQM	YDDY	VKKV	BZZB	GWWG	schön	retten	fair	treu	spielen	ehrlich	schlecht	rächen	faul	tot	strafen	eitel	47pct	acq_USpleas_CSpleas1_noRW	acq1_noRW	1	13	0	0	300	300	502	50	0	1	1	blank2r.bmp	0	1	+	0	1	blank2r.bmp	252	1	JXXJ	306	1	schön	559	0	0	0	0	0	0	0	0	0	0	0	0	0	0	0	0	0	0	0	0	0	0	0	0	0	0	0	0	0	0	0	0	0	0	0	0	0	0	0
081219	16:01:04	16:03:07	122616	5.0.10.0	5_exp_noRW	96	Rpleas_acq	CS_B	JXXJ	MQQM	YDDY	VKKV	BZZB	GWWG	schön	retten	fair	treu	spielen	ehrlich	schlecht	rächen	faul	tot	strafen	eitel	47pct	acq_USunple_CSunple1_noRW	acq1_noRW	1	14	0	0	300	300	637	46	0	1	1	blank2r.bmp	0	1	+	0	1	blank2r.bmp	252	1	YDDY	306	2	rächen	559	0	0	0	0	0	0	0	0	0	0	0	0	0	0	0	0	0	0	0	0	0	0	0	0	0	0	0	0	0	0	0	0	0	0	0	0	0	0	0
081219	16:01:04	16:03:09	124335	5.0.10.0	5_exp_noRW	96	Rpleas_acq	CS_B	JXXJ	MQQM	YDDY	VKKV	BZZB	GWWG	schön	retten	fair	treu	spielen	ehrlich	schlecht	rächen	faul	tot	strafen	eitel	47pct	acq_USpleas_CSunple2_noRW	acq1_noRW	1	15	0	0	300	300	543	50	0	1	1	blank2r.bmp	0	1	+	0	1	blank2r.bmp	252	1	VKKV	306	1	treu	559	0	0	0	0	0	0	0	0	0	0	0	0	0	0	0	0	0	0	0	0	0	0	0	0	0	0	0	0	0	0	0	0	0	0	0	0	0	0	0
081219	16:01:04	16:03:11	126361	5.0.10.0	5_exp_noRW	96	Rpleas_acq	CS_B	JXXJ	MQQM	YDDY	VKKV	BZZB	GWWG	schön	retten	fair	treu	spielen	ehrlich	schlecht	rächen	faul	tot	strafen	eitel	53pct	acq_USpleas_CSpleas2_noRW	acq1_noRW	1	16	0	0	300	300	844	50	0	1	1	blank2r.bmp	0	1	+	0	1	blank2r.bmp	252	1	MQQM	306	3	ehrlich	559	0	0	0	0	0	0	0	0	0	0	0	0	0	0	0	0	0	0	0	0	0	0	0	0	0	0	0	0	0	0	0	0	0	0	0	0	0	0	0
081219	16:01:04	16:03:12	128093	5.0.10.0	5_exp_noRW	96	Rpleas_acq	CS_B	JXXJ	MQQM	YDDY	VKKV	BZZB	GWWG	schön	retten	fair	treu	spielen	ehrlich	schlecht	rächen	faul	tot	strafen	eitel	47pct	acq_USunple_CSunple1_noRW	acq1_noRW	1	17	0	0	300	300	570	46	0	1	1	blank2r.bmp	0	1	+	0	1	blank2r.bmp	252	1	YDDY	306	3	faul	559	0	0	0	0	0	0	0	0	0	0	0	0	0	0	0	0	0	0	0	0	0	0	0	0	0	0	0	0	0	0	0	0	0	0	0	0	0	0	0
081219	16:01:04	16:03:14	129773	5.0.10.0	5_exp_noRW	96	Rpleas_acq	CS_B	JXXJ	MQQM	YDDY	VKKV	BZZB	GWWG	schön	retten	fair	treu	spielen	ehrlich	schlecht	rächen	faul	tot	strafen	eitel	47pct	acq_USunple_CSpleas2_noRW	acq1_noRW	1	18	0	0	300	300	497	46	0	1	1	blank2r.bmp	0	1	+	0	1	blank2r.bmp	252	1	MQQM	306	2	strafen	559	0	0	0	0	0	0	0	0	0	0	0	0	0	0	0	0	0	0	0	0	0	0	0	0	0	0	0	0	0	0	0	0	0	0	0	0	0	0	0
081219	16:01:04	16:03:17	132425	5.0.10.0	5_exp_noRW	96	Rpleas_acq	CS_B	JXXJ	MQQM	YDDY	VKKV	BZZB	GWWG	schön	retten	fair	treu	spielen	ehrlich	schlecht	rächen	faul	tot	strafen	eitel	47pct	acq_USunple_CSunple2_noRW	acq1_noRW	1	19	0	0	300	300	1470	46	0	1	1	blank2r.bmp	0	1	+	0	1	blank2r.bmp	252	1	VKKV	306	3	eitel	559	0	0	0	0	0	0	0	0	0	0	0	0	0	0	0	0	0	0	0	0	0	0	0	0	0	0	0	0	0	0	0	0	0	0	0	0	0	0	0
081219	16:01:04	16:03:18	134211	5.0.10.0	5_exp_noRW	96	Rpleas_acq	CS_B	JXXJ	MQQM	YDDY	VKKV	BZZB	GWWG	schön	retten	fair	treu	spielen	ehrlich	schlecht	rächen	faul	tot	strafen	eitel	53pct	acq_USpleas_CSpleas1_noRW	acq1_noRW	1	20	0	0	300	300	602	50	0	1	1	blank2r.bmp	0	1	+	0	1	blank2r.bmp	252	1	JXXJ	306	2	retten	559	0	0	0	0	0	0	0	0	0	0	0	0	0	0	0	0	0	0	0	0	0	0	0	0	0	0	0	0	0	0	0	0	0	0	0	0	0	0	0
081219	16:01:04	16:03:21	136676	5.0.10.0	5_exp_noRW	96	Rpleas_acq	CS_B	JXXJ	MQQM	YDDY	VKKV	BZZB	GWWG	schön	retten	fair	treu	spielen	ehrlich	schlecht	rächen	faul	tot	strafen	eitel	53pct	acq_USunple_CSunple1_noRW	acq1_noRW	1	21	0	0	300	300	1300	46	0	1	1	blank2r.bmp	0	1	+	0	1	blank2r.bmp	252	1	YDDY	306	2	rächen	559	0	0	0	0	0	0	0	0	0	0	0	0	0	0	0	0	0	0	0	0	0	0	0	0	0	0	0	0	0	0	0	0	0	0	0	0	0	0	0
081219	16:01:04	16:03:23	138662	5.0.10.0	5_exp_noRW	96	Rpleas_acq	CS_B	JXXJ	MQQM	YDDY	VKKV	BZZB	GWWG	schön	retten	fair	treu	spielen	ehrlich	schlecht	rächen	faul	tot	strafen	eitel	53pct	acq_USunple_CSunple2_noRW	acq1_noRW	1	22	0	0	300	300	809	46	0	1	1	blank2r.bmp	0	1	+	0	1	blank2r.bmp	252	1	VKKV	306	1	tot	559	0	0	0	0	0	0	0	0	0	0	0	0	0	0	0	0	0	0	0	0	0	0	0	0	0	0	0	0	0	0	0	0	0	0	0	0	0	0	0
081219	16:01:04	16:03:25	140595	5.0.10.0	5_exp_noRW	96	Rpleas_acq	CS_B	JXXJ	MQQM	YDDY	VKKV	BZZB	GWWG	schön	retten	fair	treu	spielen	ehrlich	schlecht	rächen	faul	tot	strafen	eitel	53pct	acq_USpleas_CSpleas1_noRW	acq1_noRW	1	23	0	0	300	300	749	50	0	1	1	blank2r.bmp	0	1	+	0	1	blank2r.bmp	252	1	JXXJ	306	3	fair	559	0	0	0	0	0	0	0	0	0	0	0	0	0	0	0	0	0	0	0	0	0	0	0	0	0	0	0	0	0	0	0	0	0	0	0	0	0	0	0
081219	16:01:04	16:03:26	142288	5.0.10.0	5_exp_noRW	96	Rpleas_acq	CS_B	JXXJ	MQQM	YDDY	VKKV	BZZB	GWWG	schön	retten	fair	treu	spielen	ehrlich	schlecht	rächen	faul	tot	strafen	eitel	47pct	acq_USpleas_CSpleas2_noRW	acq1_noRW	1	24	0	0	300	300	513	50	0	1	1	blank2r.bmp	0	1	+	0	1	blank2r.bmp	252	1	MQQM	306	2	spielen	559	0	0	0	0	0	0	0	0	0	0	0	0	0	0	0	0	0	0	0	0	0	0	0	0	0	0	0	0	0	0	0	0	0	0	0	0	0	0	0
081219	16:01:04	16:03:28	144273	5.0.10.0	5_exp_noRW	96	Rpleas_acq	CS_B	JXXJ	MQQM	YDDY	VKKV	BZZB	GWWG	schön	retten	fair	treu	spielen	ehrlich	schlecht	rächen	faul	tot	strafen	eitel	53pct	acq_USunple_CSunple2_noRW	acq1_noRW	1	25	0	0	300	300	817	46	0	1	1	blank2r.bmp	0	1	+	0	1	blank2r.bmp	252	1	VKKV	306	2	strafen	559	0	0	0	0	0	0	0	0	0	0	0	0	0	0	0	0	0	0	0	0	0	0	0	0	0	0	0	0	0	0	0	0	0	0	0	0	0	0	0
081219	16:01:04	16:03:30	146139	5.0.10.0	5_exp_noRW	96	Rpleas_acq	CS_B	JXXJ	MQQM	YDDY	VKKV	BZZB	GWWG	schön	retten	fair	treu	spielen	ehrlich	schlecht	rächen	faul	tot	strafen	eitel	47pct	acq_USunple_CSunple1_noRW	acq1_noRW	1	26	0	0	300	300	683	46	0	1	1	blank2r.bmp	0	1	+	0	1	blank2r.bmp	252	1	YDDY	306	1	schlecht	559	0	0	0	0	0	0	0	0	0	0	0	0	0	0	0	0	0	0	0	0	0	0	0	0	0	0	0	0	0	0	0	0	0	0	0	0	0	0	0
081219	16:01:04	16:03:32	148072	5.0.10.0	5_exp_noRW	96	Rpleas_acq	CS_B	JXXJ	MQQM	YDDY	VKKV	BZZB	GWWG	schön	retten	fair	treu	spielen	ehrlich	schlecht	rächen	faul	tot	strafen	eitel	53pct	acq_USpleas_CSpleas2_noRW	acq1_noRW	1	27	0	0	300	300	758	50	0	1	1	blank2r.bmp	0	1	+	0	1	blank2r.bmp	252	1	MQQM	306	1	treu	559	0	0	0	0	0	0	0	0	0	0	0	0	0	0	0	0	0	0	0	0	0	0	0	0	0	0	0	0	0	0	0	0	0	0	0	0	0	0	0
081219	16:01:04	16:03:34	149858	5.0.10.0	5_exp_noRW	96	Rpleas_acq	CS_B	JXXJ	MQQM	YDDY	VKKV	BZZB	GWWG	schön	retten	fair	treu	spielen	ehrlich	schlecht	rächen	faul	tot	strafen	eitel	47pct	acq_USpleas_CSunple2_noRW	acq1_noRW	1	28	0	0	300	300	599	50	0	1	1	blank2r.bmp	0	1	+	0	1	blank2r.bmp	252	1	VKKV	306	2	spielen	559	0	0	0	0	0	0	0	0	0	0	0	0	0	0	0	0	0	0	0	0	0	0	0	0	0	0	0	0	0	0	0	0	0	0	0	0	0	0	0
081219	16:01:04	16:03:36	151577	5.0.10.0	5_exp_noRW	96	Rpleas_acq	CS_B	JXXJ	MQQM	YDDY	VKKV	BZZB	GWWG	schön	retten	fair	treu	spielen	ehrlich	schlecht	rächen	faul	tot	strafen	eitel	53pct	acq_USunple_CSunple1_noRW	acq1_noRW	1	29	0	0	300	300	554	46	0	1	1	blank2r.bmp	0	1	+	0	1	blank2r.bmp	252	1	YDDY	306	1	schlecht	559	0	0	0	0	0	0	0	0	0	0	0	0	0	0	0	0	0	0	0	0	0	0	0	0	0	0	0	0	0	0	0	0	0	0	0	0	0	0	0
081219	16:01:04	16:03:38	153963	5.0.10.0	5_exp_noRW	96	Rpleas_acq	CS_B	JXXJ	MQQM	YDDY	VKKV	BZZB	GWWG	schön	retten	fair	treu	spielen	ehrlich	schlecht	rächen	faul	tot	strafen	eitel	53pct	acq_USunple_CSunple1_noRW	acq1_noRW	1	30	0	0	300	300	986	50	0	0	1	blank2r.bmp	0	1	+	0	1	blank2r.bmp	252	1	YDDY	306	2	rächen	559	1	FEHLER	1586	0	0	0	0	0	0	0	0	0	0	0	0	0	0	0	0	0	0	0	0	0	0	0	0	0	0	0	0	0	0	0	0	0	0	0	0
081219	16:01:04	16:03:40	155802	5.0.10.0	5_exp_noRW	96	Rpleas_acq	CS_B	JXXJ	MQQM	YDDY	VKKV	BZZB	GWWG	schön	retten	fair	treu	spielen	ehrlich	schlecht	rächen	faul	tot	strafen	eitel	53pct	acq_USpleas_CSpleas1_noRW	acq1_noRW	1	31	0	0	300	300	867	50	0	1	1	blank2r.bmp	0	1	+	0	1	blank2r.bmp	252	1	JXXJ	306	1	schön	559	0	0	0	0	0	0	0	0	0	0	0	0	0	0	0	0	0	0	0	0	0	0	0	0	0	0	0	0	0	0	0	0	0	0	0	0	0	0	0
081219	16:01:04	16:03:42	157734	5.0.10.0	5_exp_noRW	96	Rpleas_acq	CS_B	JXXJ	MQQM	YDDY	VKKV	BZZB	GWWG	schön	retten	fair	treu	spielen	ehrlich	schlecht	rächen	faul	tot	strafen	eitel	53pct	acq_USpleas_CSpleas2_noRW	acq1_noRW	1	32	0	0	300	300	759	50	0	1	1	blank2r.bmp	0	1	+	0	1	blank2r.bmp	252	1	MQQM	306	3	ehrlich	559	0	0	0	0	0	0	0	0	0	0	0	0	0	0	0	0	0	0	0	0	0	0	0	0	0	0	0	0	0	0	0	0	0	0	0	0	0	0	0
081219	16:01:04	16:03:44	159387	5.0.10.0	5_exp_noRW	96	Rpleas_acq	CS_B	JXXJ	MQQM	YDDY	VKKV	BZZB	GWWG	schön	retten	fair	treu	spielen	ehrlich	schlecht	rächen	faul	tot	strafen	eitel	53pct	acq_USpleas_CSpleas2_noRW	acq1_noRW	1	33	0	0	300	300	487	50	0	1	1	blank2r.bmp	0	1	+	0	1	blank2r.bmp	252	1	MQQM	306	2	spielen	559	0	0	0	0	0	0	0	0	0	0	0	0	0	0	0	0	0	0	0	0	0	0	0	0	0	0	0	0	0	0	0	0	0	0	0	0	0	0	0
081219	16:01:04	16:03:45	161160	5.0.10.0	5_exp_noRW	96	Rpleas_acq	CS_B	JXXJ	MQQM	YDDY	VKKV	BZZB	GWWG	schön	retten	fair	treu	spielen	ehrlich	schlecht	rächen	faul	tot	strafen	eitel	47pct	acq_USpleas_CSpleas1_noRW	acq1_noRW	1	34	0	0	300	300	589	50	0	1	1	blank2r.bmp	0	1	+	0	1	blank2r.bmp	252	1	JXXJ	306	2	retten	559	0	0	0	0	0	0	0	0	0	0	0	0	0	0	0	0	0	0	0	0	0	0	0	0	0	0	0	0	0	0	0	0	0	0	0	0	0	0	0
081219	16:01:04	16:03:47	162946	5.0.10.0	5_exp_noRW	96	Rpleas_acq	CS_B	JXXJ	MQQM	YDDY	VKKV	BZZB	GWWG	schön	retten	fair	treu	spielen	ehrlich	schlecht	rächen	faul	tot	strafen	eitel	53pct	acq_USunple_CSunple2_noRW	acq1_noRW	1	35	0	0	300	300	607	46	0	1	1	blank2r.bmp	0	1	+	0	1	blank2r.bmp	252	1	VKKV	306	3	eitel	559	0	0	0	0	0	0	0	0	0	0	0	0	0	0	0	0	0	0	0	0	0	0	0	0	0	0	0	0	0	0	0	0	0	0	0	0	0	0	0
081219	16:01:04	16:03:49	164692	5.0.10.0	5_exp_noRW	96	Rpleas_acq	CS_B	JXXJ	MQQM	YDDY	VKKV	BZZB	GWWG	schön	retten	fair	treu	spielen	ehrlich	schlecht	rächen	faul	tot	strafen	eitel	53pct	acq_USpleas_CSunple1_noRW	acq1_noRW	1	36	0	0	300	300	566	50	0	1	1	blank2r.bmp	0	1	+	0	1	blank2r.bmp	252	1	YDDY	306	3	fair	559	0	0	0	0	0	0	0	0	0	0	0	0	0	0	0	0	0	0	0	0	0	0	0	0	0	0	0	0	0	0	0	0	0	0	0	0	0	0	0
081219	16:01:04	16:03:50	166291	5.0.10.0	5_exp_noRW	96	Rpleas_acq	CS_B	JXXJ	MQQM	YDDY	VKKV	BZZB	GWWG	schön	retten	fair	treu	spielen	ehrlich	schlecht	rächen	faul	tot	strafen	eitel	53pct	acq_USpleas_CSpleas1_noRW	acq1_noRW	1	37	0	0	300	300	432	50	0	1	1	blank2r.bmp	0	1	+	0	1	blank2r.bmp	252	1	JXXJ	306	1	schön	559	0	0	0	0	0	0	0	0	0	0	0	0	0	0	0	0	0	0	0	0	0	0	0	0	0	0	0	0	0	0	0	0	0	0	0	0	0	0	0
081219	16:01:04	16:03:52	168037	5.0.10.0	5_exp_noRW	96	Rpleas_acq	CS_B	JXXJ	MQQM	YDDY	VKKV	BZZB	GWWG	schön	retten	fair	treu	spielen	ehrlich	schlecht	rächen	faul	tot	strafen	eitel	47pct	acq_USunple_CSpleas1_noRW	acq1_noRW	1	38	0	0	300	300	560	46	0	1	1	blank2r.bmp	0	1	+	0	1	blank2r.bmp	252	1	JXXJ	306	2	rächen	559	0	0	0	0	0	0	0	0	0	0	0	0	0	0	0	0	0	0	0	0	0	0	0	0	0	0	0	0	0	0	0	0	0	0	0	0	0	0	0
081219	16:01:04	16:03:54	169583	5.0.10.0	5_exp_noRW	96	Rpleas_acq	CS_B	JXXJ	MQQM	YDDY	VKKV	BZZB	GWWG	schön	retten	fair	treu	spielen	ehrlich	schlecht	rächen	faul	tot	strafen	eitel	53pct	acq_USunple_CSunple2_noRW	acq1_noRW	1	39	0	0	300	300	362	46	0	1	1	blank2r.bmp	0	1	+	0	1	blank2r.bmp	252	1	VKKV	306	1	tot	559	0	0	0	0	0	0	0	0	0	0	0	0	0	0	0	0	0	0	0	0	0	0	0	0	0	0	0	0	0	0	0	0	0	0	0	0	0	0	0
081219	16:01:04	16:03:56	171342	5.0.10.0	5_exp_noRW	96	Rpleas_acq	CS_B	JXXJ	MQQM	YDDY	VKKV	BZZB	GWWG	schön	retten	fair	treu	spielen	ehrlich	schlecht	rächen	faul	tot	strafen	eitel	47pct	acq_USunple_CSpleas2_noRW	acq1_noRW	1	40	0	0	300	300	571	46	0	1	1	blank2r.bmp	0	1	+	0	1	blank2r.bmp	252	1	MQQM	306	3	eitel	559	0	0	0	0	0	0	0	0	0	0	0	0	0	0	0	0	0	0	0	0	0	0	0	0	0	0	0	0	0	0	0	0	0	0	0	0	0	0	0
081219	16:01:04	16:03:57	173088	5.0.10.0	5_exp_noRW	96	Rpleas_acq	CS_B	JXXJ	MQQM	YDDY	VKKV	BZZB	GWWG	schön	retten	fair	treu	spielen	ehrlich	schlecht	rächen	faul	tot	strafen	eitel	53pct	acq_USunple_CSunple1_noRW	acq1_noRW	1	41	0	0	300	300	574	46	0	1	1	blank2r.bmp	0	1	+	0	1	blank2r.bmp	252	1	YDDY	306	3	faul	559	0	0	0	0	0	0	0	0	0	0	0	0	0	0	0	0	0	0	0	0	0	0	0	0	0	0	0	0	0	0	0	0	0	0	0	0	0	0	0
081219	16:01:04	16:03:59	174768	5.0.10.0	5_exp_noRW	96	Rpleas_acq	CS_B	JXXJ	MQQM	YDDY	VKKV	BZZB	GWWG	schön	retten	fair	treu	spielen	ehrlich	schlecht	rächen	faul	tot	strafen	eitel	53pct	acq_USpleas_CSpleas1_noRW	acq1_noRW	1	42	0	0	300	300	512	50	0	1	1	blank2r.bmp	0	1	+	0	1	blank2r.bmp	252	1	JXXJ	306	3	fair	559	0	0	0	0	0	0	0	0	0	0	0	0	0	0	0	0	0	0	0	0	0	0	0	0	0	0	0	0	0	0	0	0	0	0	0	0	0	0	0
081219	16:01:04	16:04:01	176847	5.0.10.0	5_exp_noRW	96	Rpleas_acq	CS_B	JXXJ	MQQM	YDDY	VKKV	BZZB	GWWG	schön	retten	fair	treu	spielen	ehrlich	schlecht	rächen	faul	tot	strafen	eitel	47pct	acq_USunple_CSunple2_noRW	acq1_noRW	1	43	0	0	300	300	693	50	0	0	1	blank2r.bmp	0	1	+	0	1	blank2r.bmp	252	1	VKKV	306	2	strafen	559	1	FEHLER	1292	0	0	0	0	0	0	0	0	0	0	0	0	0	0	0	0	0	0	0	0	0	0	0	0	0	0	0	0	0	0	0	0	0	0	0	0
081219	16:01:04	16:04:03	178673	5.0.10.0	5_exp_noRW	96	Rpleas_acq	CS_B	JXXJ	MQQM	YDDY	VKKV	BZZB	GWWG	schön	retten	fair	treu	spielen	ehrlich	schlecht	rächen	faul	tot	strafen	eitel	47pct	acq_USunple_CSunple2_noRW	acq1_noRW	1	44	0	0	300	300	862	46	0	1	1	blank2r.bmp	0	1	+	0	1	blank2r.bmp	252	1	VKKV	306	1	tot	559	0	0	0	0	0	0	0	0	0	0	0	0	0	0	0	0	0	0	0	0	0	0	0	0	0	0	0	0	0	0	0	0	0	0	0	0	0	0	0
081219	16:01:04	16:04:05	180698	5.0.10.0	5_exp_noRW	96	Rpleas_acq	CS_B	JXXJ	MQQM	YDDY	VKKV	BZZB	GWWG	schön	retten	fair	treu	spielen	ehrlich	schlecht	rächen	faul	tot	strafen	eitel	53pct	acq_USpleas_CSpleas1_noRW	acq1_noRW	1	45	0	0	300	300	842	50	0	1	1	blank2r.bmp	0	1	+	0	1	blank2r.bmp	252	1	JXXJ	306	2	retten	559	0	0	0	0	0	0	0	0	0	0	0	0	0	0	0	0	0	0	0	0	0	0	0	0	0	0	0	0	0	0	0	0	0	0	0	0	0	0	0
081219	16:01:04	16:04:07	182458	5.0.10.0	5_exp_noRW	96	Rpleas_acq	CS_B	JXXJ	MQQM	YDDY	VKKV	BZZB	GWWG	schön	retten	fair	treu	spielen	ehrlich	schlecht	rächen	faul	tot	strafen	eitel	53pct	acq_USunple_CSunple1_noRW	acq1_noRW	1	46	0	0	300	300	588	46	0	1	1	blank2r.bmp	0	1	+	0	1	blank2r.bmp	252	1	YDDY	306	3	faul	559	0	0	0	0	0	0	0	0	0	0	0	0	0	0	0	0	0	0	0	0	0	0	0	0	0	0	0	0	0	0	0	0	0	0	0	0	0	0	0
081219	16:01:04	16:04:09	184657	5.0.10.0	5_exp_noRW	96	Rpleas_acq	CS_B	JXXJ	MQQM	YDDY	VKKV	BZZB	GWWG	schön	retten	fair	treu	spielen	ehrlich	schlecht	rächen	faul	tot	strafen	eitel	47pct	acq_USunple_CSunple2_noRW	acq1_noRW	1	47	0	0	300	300	1026	46	0	1	1	blank2r.bmp	0	1	+	0	1	blank2r.bmp	252	1	VKKV	306	3	eitel	559	0	0	0	0	0	0	0	0	0	0	0	0	0	0	0	0	0	0	0	0	0	0	0	0	0	0	0	0	0	0	0	0	0	0	0	0	0	0	0
081219	16:01:04	16:04:10	186309	5.0.10.0	5_exp_noRW	96	Rpleas_acq	CS_B	JXXJ	MQQM	YDDY	VKKV	BZZB	GWWG	schön	retten	fair	treu	spielen	ehrlich	schlecht	rächen	faul	tot	strafen	eitel	53pct	acq_USunple_CSpleas2_noRW	acq1_noRW	1	48	0	0	300	300	480	46	0	1	1	blank2r.bmp	0	1	+	0	1	blank2r.bmp	252	1	MQQM	306	1	tot	559	0	0	0	0	0	0	0	0	0	0	0	0	0	0	0	0	0	0	0	0	0	0	0	0	0	0	0	0	0	0	0	0	0	0	0	0	0	0	0
081219	16:01:04	16:04:12	188255	5.0.10.0	5_exp_noRW	96	Rpleas_acq	CS_B	JXXJ	MQQM	YDDY	VKKV	BZZB	GWWG	schön	retten	fair	treu	spielen	ehrlich	schlecht	rächen	faul	tot	strafen	eitel	47pct	acq_USunple_CSunple1_noRW	acq1_noRW	1	49	0	0	300	300	783	46	0	1	1	blank2r.bmp	0	1	+	0	1	blank2r.bmp	252	1	YDDY	306	2	rächen	559	0	0	0	0	0	0	0	0	0	0	0	0	0	0	0	0	0	0	0	0	0	0	0	0	0	0	0	0	0	0	0	0	0	0	0	0	0	0	0
081219	16:01:04	16:04:14	190068	5.0.10.0	5_exp_noRW	96	Rpleas_acq	CS_B	JXXJ	MQQM	YDDY	VKKV	BZZB	GWWG	schön	retten	fair	treu	spielen	ehrlich	schlecht	rächen	faul	tot	strafen	eitel	53pct	acq_USunple_CSunple1_noRW	acq1_noRW	1	50	0	0	300	300	629	46	0	1	1	blank2r.bmp	0	1	+	0	1	blank2r.bmp	252	1	YDDY	306	1	schlecht	559	0	0	0	0	0	0	0	0	0	0	0	0	0	0	0	0	0	0	0	0	0	0	0	0	0	0	0	0	0	0	0	0	0	0	0	0	0	0	0
081219	16:01:04	16:04:16	191801	5.0.10.0	5_exp_noRW	96	Rpleas_acq	CS_B	JXXJ	MQQM	YDDY	VKKV	BZZB	GWWG	schön	retten	fair	treu	spielen	ehrlich	schlecht	rächen	faul	tot	strafen	eitel	47pct	acq_USpleas_CSpleas1_noRW	acq1_noRW	1	51	0	0	300	300	560	50	0	1	1	blank2r.bmp	0	1	+	0	1	blank2r.bmp	252	1	JXXJ	306	1	schön	559	0	0	0	0	0	0	0	0	0	0	0	0	0	0	0	0	0	0	0	0	0	0	0	0	0	0	0	0	0	0	0	0	0	0	0	0	0	0	0
081219	16:01:04	16:04:18	193573	5.0.10.0	5_exp_noRW	96	Rpleas_acq	CS_B	JXXJ	MQQM	YDDY	VKKV	BZZB	GWWG	schön	retten	fair	treu	spielen	ehrlich	schlecht	rächen	faul	tot	strafen	eitel	47pct	acq_USunple_CSunple2_noRW	acq1_noRW	1	52	0	0	300	300	605	46	0	1	1	blank2r.bmp	0	1	+	0	1	blank2r.bmp	252	1	VKKV	306	2	strafen	559	0	0	0	0	0	0	0	0	0	0	0	0	0	0	0	0	0	0	0	0	0	0	0	0	0	0	0	0	0	0	0	0	0	0	0	0	0	0	0
081219	16:01:04	16:04:20	195546	5.0.10.0	5_exp_noRW	96	Rpleas_acq	CS_B	JXXJ	MQQM	YDDY	VKKV	BZZB	GWWG	schön	retten	fair	treu	spielen	ehrlich	schlecht	rächen	faul	tot	strafen	eitel	47pct	acq_USunple_CSpleas1_noRW	acq1_noRW	1	53	0	0	300	300	791	46	0	1	1	blank2r.bmp	0	1	+	0	1	blank2r.bmp	252	1	JXXJ	306	3	faul	559	0	0	0	0	0	0	0	0	0	0	0	0	0	0	0	0	0	0	0	0	0	0	0	0	0	0	0	0	0	0	0	0	0	0	0	0	0	0	0
081219	16:01:04	16:04:22	197358	5.0.10.0	5_exp_noRW	96	Rpleas_acq	CS_B	JXXJ	MQQM	YDDY	VKKV	BZZB	GWWG	schön	retten	fair	treu	spielen	ehrlich	schlecht	rächen	faul	tot	strafen	eitel	53pct	acq_USpleas_CSunple1_noRW	acq1_noRW	1	54	0	0	300	300	641	50	0	1	1	blank2r.bmp	0	1	+	0	1	blank2r.bmp	252	1	YDDY	306	2	retten	559	0	0	0	0	0	0	0	0	0	0	0	0	0	0	0	0	0	0	0	0	0	0	0	0	0	0	0	0	0	0	0	0	0	0	0	0	0	0	0
081219	16:01:04	16:04:23	199131	5.0.10.0	5_exp_noRW	96	Rpleas_acq	CS_B	JXXJ	MQQM	YDDY	VKKV	BZZB	GWWG	schön	retten	fair	treu	spielen	ehrlich	schlecht	rächen	faul	tot	strafen	eitel	53pct	acq_USpleas_CSpleas2_noRW	acq1_noRW	1	55	0	0	300	300	602	50	0	1	1	blank2r.bmp	0	1	+	0	1	blank2r.bmp	252	1	MQQM	306	1	treu	559	0	0	0	0	0	0	0	0	0	0	0	0	0	0	0	0	0	0	0	0	0	0	0	0	0	0	0	0	0	0	0	0	0	0	0	0	0	0	0
081219	16:01:04	16:04:25	200890	5.0.10.0	5_exp_noRW	96	Rpleas_acq	CS_B	JXXJ	MQQM	YDDY	VKKV	BZZB	GWWG	schön	retten	fair	treu	spielen	ehrlich	schlecht	rächen	faul	tot	strafen	eitel	53pct	acq_USpleas_CSunple2_noRW	acq1_noRW	1	56	0	0	300	300	585	50	0	1	1	blank2r.bmp	0	1	+	0	1	blank2r.bmp	252	1	VKKV	306	3	ehrlich	559	0	0	0	0	0	0	0	0	0	0	0	0	0	0	0	0	0	0	0	0	0	0	0	0	0	0	0	0	0	0	0	0	0	0	0	0	0	0	0
081219	16:01:04	16:04:27	202489	5.0.10.0	5_exp_noRW	96	Rpleas_acq	CS_B	JXXJ	MQQM	YDDY	VKKV	BZZB	GWWG	schön	retten	fair	treu	spielen	ehrlich	schlecht	rächen	faul	tot	strafen	eitel	53pct	acq_USpleas_CSpleas2_noRW	acq1_noRW	1	57	0	0	300	300	437	50	0	1	1	blank2r.bmp	0	1	+	0	1	blank2r.bmp	252	1	MQQM	306	3	ehrlich	559	0	0	0	0	0	0	0	0	0	0	0	0	0	0	0	0	0	0	0	0	0	0	0	0	0	0	0	0	0	0	0	0	0	0	0	0	0	0	0
081219	16:01:04	16:04:29	204449	5.0.10.0	5_exp_noRW	96	Rpleas_acq	CS_B	JXXJ	MQQM	YDDY	VKKV	BZZB	GWWG	schön	retten	fair	treu	spielen	ehrlich	schlecht	rächen	faul	tot	strafen	eitel	47pct	acq_USpleas_CSpleas2_noRW	acq1_noRW	1	58	0	0	300	300	774	50	0	1	1	blank2r.bmp	0	1	+	0	1	blank2r.bmp	252	1	MQQM	306	2	spielen	559	0	0	0	0	0	0	0	0	0	0	0	0	0	0	0	0	0	0	0	0	0	0	0	0	0	0	0	0	0	0	0	0	0	0	0	0	0	0	0
081219	16:01:04	16:04:31	206328	5.0.10.0	5_exp_noRW	96	Rpleas_acq	CS_B	JXXJ	MQQM	YDDY	VKKV	BZZB	GWWG	schön	retten	fair	treu	spielen	ehrlich	schlecht	rächen	faul	tot	strafen	eitel	53pct	acq_USpleas_CSpleas2_noRW	acq1_noRW	1	59	0	0	300	300	700	50	0	1	1	blank2r.bmp	0	1	+	0	1	blank2r.bmp	252	1	MQQM	306	1	treu	559	0	0	0	0	0	0	0	0	0	0	0	0	0	0	0	0	0	0	0	0	0	0	0	0	0	0	0	0	0	0	0	0	0	0	0	0	0	0	0
081219	16:01:04	16:04:33	208367	5.0.10.0	5_exp_noRW	96	Rpleas_acq	CS_B	JXXJ	MQQM	YDDY	VKKV	BZZB	GWWG	schön	retten	fair	treu	spielen	ehrlich	schlecht	rächen	faul	tot	strafen	eitel	47pct	acq_USpleas_CSpleas1_noRW	acq1_noRW	1	60	0	0	300	300	852	50	0	1	1	blank2r.bmp	0	1	+	0	1	blank2r.bmp	252	1	JXXJ	306	3	fair	559	0	0	0	0	0	0	0	0	0	0	0	0	0	0	0	0	0	0	0	0	0	0	0	0	0	0	0	0	0	0	0	0	0	0	0	0	0	0	0
081219	16:01:04	16:04:34	210166	5.0.10.0	5_exp_noRW	96	Rpleas_acq	CS_B	JXXJ	MQQM	YDDY	VKKV	BZZB	GWWG	schön	retten	fair	treu	spielen	ehrlich	schlecht	rächen	faul	tot	strafen	eitel	47pct	acq_USpleas_CSpleas2_noRW	acq1_noRW	1	61	0	0	300	300	626	50	0	1	1	blank2r.bmp	0	1	+	0	1	blank2r.bmp	252	1	MQQM	306	1	treu	559	0	0	0	0	0	0	0	0	0	0	0	0	0	0	0	0	0	0	0	0	0	0	0	0	0	0	0	0	0	0	0	0	0	0	0	0	0	0	0
081219	16:01:04	16:04:36	211739	5.0.10.0	5_exp_noRW	96	Rpleas_acq	CS_B	JXXJ	MQQM	YDDY	VKKV	BZZB	GWWG	schön	retten	fair	treu	spielen	ehrlich	schlecht	rächen	faul	tot	strafen	eitel	47pct	acq_USpleas_CSunple2_noRW	acq1_noRW	1	62	0	0	300	300	411	50	0	1	1	blank2r.bmp	0	1	+	0	1	blank2r.bmp	252	1	VKKV	306	2	spielen	559	0	0	0	0	0	0	0	0	0	0	0	0	0	0	0	0	0	0	0	0	0	0	0	0	0	0	0	0	0	0	0	0	0	0	0	0	0	0	0
081219	16:01:04	16:04:38	213325	5.0.10.0	5_exp_noRW	96	Rpleas_acq	CS_B	JXXJ	MQQM	YDDY	VKKV	BZZB	GWWG	schön	retten	fair	treu	spielen	ehrlich	schlecht	rächen	faul	tot	strafen	eitel	47pct	acq_USunple_CSpleas2_noRW	acq1_noRW	1	63	0	0	300	300	410	46	0	1	1	blank2r.bmp	0	1	+	0	1	blank2r.bmp	252	1	MQQM	306	1	tot	559	0	0	0	0	0	0	0	0	0	0	0	0	0	0	0	0	0	0	0	0	0	0	0	0	0	0	0	0	0	0	0	0	0	0	0	0	0	0	0
081219	16:01:04	16:04:39	214991	5.0.10.0	5_exp_noRW	96	Rpleas_acq	CS_B	JXXJ	MQQM	YDDY	VKKV	BZZB	GWWG	schön	retten	fair	treu	spielen	ehrlich	schlecht	rächen	faul	tot	strafen	eitel	53pct	acq_USpleas_CSpleas2_noRW	acq1_noRW	1	64	0	0	300	300	483	50	0	1	1	blank2r.bmp	0	1	+	0	1	blank2r.bmp	252	1	MQQM	306	3	ehrlich	559	0	0	0	0	0	0	0	0	0	0	0	0	0	0	0	0	0	0	0	0	0	0	0	0	0	0	0	0	0	0	0	0	0	0	0	0	0	0	0
081219	16:01:04	16:04:41	216937	5.0.10.0	5_exp_noRW	96	Rpleas_acq	CS_B	JXXJ	MQQM	YDDY	VKKV	BZZB	GWWG	schön	retten	fair	treu	spielen	ehrlich	schlecht	rächen	faul	tot	strafen	eitel	53pct	acq_USunple_CSunple1_noRW	acq1_noRW	1	65	0	0	300	300	768	46	0	1	1	blank2r.bmp	0	1	+	0	1	blank2r.bmp	252	1	YDDY	306	1	schlecht	559	0	0	0	0	0	0	0	0	0	0	0	0	0	0	0	0	0	0	0	0	0	0	0	0	0	0	0	0	0	0	0	0	0	0	0	0	0	0	0
081219	16:01:04	16:04:43	218803	5.0.10.0	5_exp_noRW	96	Rpleas_acq	CS_B	JXXJ	MQQM	YDDY	VKKV	BZZB	GWWG	schön	retten	fair	treu	spielen	ehrlich	schlecht	rächen	faul	tot	strafen	eitel	47pct	acq_USunple_CSunple2_noRW	acq1_noRW	1	66	0	0	300	300	687	46	0	1	1	blank2r.bmp	0	1	+	0	1	blank2r.bmp	252	1	VKKV	306	3	eitel	559	0	0	0	0	0	0	0	0	0	0	0	0	0	0	0	0	0	0	0	0	0	0	0	0	0	0	0	0	0	0	0	0	0	0	0	0	0	0	0
081219	16:01:04	16:04:45	220669	5.0.10.0	5_exp_noRW	96	Rpleas_acq	CS_B	JXXJ	MQQM	YDDY	VKKV	BZZB	GWWG	schön	retten	fair	treu	spielen	ehrlich	schlecht	rächen	faul	tot	strafen	eitel	53pct	acq_USunple_CSunple2_noRW	acq1_noRW	1	67	0	0	300	300	697	46	0	1	1	blank2r.bmp	0	1	+	0	1	blank2r.bmp	252	1	VKKV	306	1	tot	559	0	0	0	0	0	0	0	0	0	0	0	0	0	0	0	0	0	0	0	0	0	0	0	0	0	0	0	0	0	0	0	0	0	0	0	0	0	0	0
081219	16:01:04	16:04:47	222468	5.0.10.0	5_exp_noRW	96	Rpleas_acq	CS_B	JXXJ	MQQM	YDDY	VKKV	BZZB	GWWG	schön	retten	fair	treu	spielen	ehrlich	schlecht	rächen	faul	tot	strafen	eitel	47pct	acq_USpleas_CSpleas1_noRW	acq1_noRW	1	68	0	0	300	300	616	50	0	1	1	blank2r.bmp	0	1	+	0	1	blank2r.bmp	252	1	JXXJ	306	1	schön	559	0	0	0	0	0	0	0	0	0	0	0	0	0	0	0	0	0	0	0	0	0	0	0	0	0	0	0	0	0	0	0	0	0	0	0	0	0	0	0
081219	16:01:04	16:04:49	224401	5.0.10.0	5_exp_noRW	96	Rpleas_acq	CS_B	JXXJ	MQQM	YDDY	VKKV	BZZB	GWWG	schön	retten	fair	treu	spielen	ehrlich	schlecht	rächen	faul	tot	strafen	eitel	53pct	acq_USunple_CSunple1_noRW	acq1_noRW	1	69	0	0	300	300	761	46	0	1	1	blank2r.bmp	0	1	+	0	1	blank2r.bmp	252	1	YDDY	306	2	rächen	559	0	0	0	0	0	0	0	0	0	0	0	0	0	0	0	0	0	0	0	0	0	0	0	0	0	0	0	0	0	0	0	0	0	0	0	0	0	0	0
081219	16:01:04	16:04:50	226120	5.0.10.0	5_exp_noRW	96	Rpleas_acq	CS_B	JXXJ	MQQM	YDDY	VKKV	BZZB	GWWG	schön	retten	fair	treu	spielen	ehrlich	schlecht	rächen	faul	tot	strafen	eitel	53pct	acq_USpleas_CSpleas2_noRW	acq1_noRW	1	70	0	0	300	300	534	50	0	1	1	blank2r.bmp	0	1	+	0	1	blank2r.bmp	252	1	MQQM	306	2	spielen	559	0	0	0	0	0	0	0	0	0	0	0	0	0	0	0	0	0	0	0	0	0	0	0	0	0	0	0	0	0	0	0	0	0	0	0	0	0	0	0
081219	16:01:04	16:04:53	228519	5.0.10.0	5_exp_noRW	96	Rpleas_acq	CS_B	JXXJ	MQQM	YDDY	VKKV	BZZB	GWWG	schön	retten	fair	treu	spielen	ehrlich	schlecht	rächen	faul	tot	strafen	eitel	53pct	acq_USpleas_CSpleas1_noRW	acq1_noRW	1	71	0	0	300	300	1228	50	0	1	1	blank2r.bmp	0	1	+	0	1	blank2r.bmp	252	1	JXXJ	306	2	retten	559	0	0	0	0	0	0	0	0	0	0	0	0	0	0	0	0	0	0	0	0	0	0	0	0	0	0	0	0	0	0	0	0	0	0	0	0	0	0	0
081219	16:01:04	16:04:54	230251	5.0.10.0	5_exp_noRW	96	Rpleas_acq	CS_B	JXXJ	MQQM	YDDY	VKKV	BZZB	GWWG	schön	retten	fair	treu	spielen	ehrlich	schlecht	rächen	faul	tot	strafen	eitel	47pct	acq_USpleas_CSpleas2_noRW	acq1_noRW	1	72	0	0	300	300	552	50	0	1	1	blank2r.bmp	0	1	+	0	1	blank2r.bmp	252	1	MQQM	306	3	ehrlich	559	0	0	0	0	0	0	0	0	0	0	0	0	0	0	0	0	0	0	0	0	0	0	0	0	0	0	0	0	0	0	0	0	0	0	0	0	0	0	0
081219	16:01:04	16:04:56	231957	5.0.10.0	5_exp_noRW	96	Rpleas_acq	CS_B	JXXJ	MQQM	YDDY	VKKV	BZZB	GWWG	schön	retten	fair	treu	spielen	ehrlich	schlecht	rächen	faul	tot	strafen	eitel	53pct	acq_USpleas_CSpleas1_noRW	acq1_noRW	1	73	0	0	300	300	530	50	0	1	1	blank2r.bmp	0	1	+	0	1	blank2r.bmp	252	1	JXXJ	306	3	fair	559	0	0	0	0	0	0	0	0	0	0	0	0	0	0	0	0	0	0	0	0	0	0	0	0	0	0	0	0	0	0	0	0	0	0	0	0	0	0	0
081219	16:01:04	16:04:58	233503	5.0.10.0	5_exp_noRW	96	Rpleas_acq	CS_B	JXXJ	MQQM	YDDY	VKKV	BZZB	GWWG	schön	retten	fair	treu	spielen	ehrlich	schlecht	rächen	faul	tot	strafen	eitel	47pct	acq_USunple_CSunple1_noRW	acq1_noRW	1	74	0	0	300	300	366	46	0	1	1	blank2r.bmp	0	1	+	0	1	blank2r.bmp	252	1	YDDY	306	3	faul	559	0	0	0	0	0	0	0	0	0	0	0	0	0	0	0	0	0	0	0	0	0	0	0	0	0	0	0	0	0	0	0	0	0	0	0	0	0	0	0
081219	16:01:04	16:04:59	235196	5.0.10.0	5_exp_noRW	96	Rpleas_acq	CS_B	JXXJ	MQQM	YDDY	VKKV	BZZB	GWWG	schön	retten	fair	treu	spielen	ehrlich	schlecht	rächen	faul	tot	strafen	eitel	47pct	acq_USpleas_CSpleas1_noRW	acq1_noRW	1	75	0	0	300	300	510	50	0	1	1	blank2r.bmp	0	1	+	0	1	blank2r.bmp	252	1	JXXJ	306	3	fair	559	0	0	0	0	0	0	0	0	0	0	0	0	0	0	0	0	0	0	0	0	0	0	0	0	0	0	0	0	0	0	0	0	0	0	0	0	0	0	0
081219	16:01:04	16:05:01	236835	5.0.10.0	5_exp_noRW	96	Rpleas_acq	CS_B	JXXJ	MQQM	YDDY	VKKV	BZZB	GWWG	schön	retten	fair	treu	spielen	ehrlich	schlecht	rächen	faul	tot	strafen	eitel	47pct	acq_USunple_CSunple2_noRW	acq1_noRW	1	76	0	0	300	300	463	46	0	1	1	blank2r.bmp	0	1	+	0	1	blank2r.bmp	252	1	VKKV	306	2	strafen	559	0	0	0	0	0	0	0	0	0	0	0	0	0	0	0	0	0	0	0	0	0	0	0	0	0	0	0	0	0	0	0	0	0	0	0	0	0	0	0
081219	16:01:04	16:05:03	239221	5.0.10.0	5_exp_noRW	96	Rpleas_acq	CS_B	JXXJ	MQQM	YDDY	VKKV	BZZB	GWWG	schön	retten	fair	treu	spielen	ehrlich	schlecht	rächen	faul	tot	strafen	eitel	47pct	acq_USpleas_CSunple1_noRW	acq1_noRW	1	77	0	0	300	300	1216	50	0	1	1	blank2r.bmp	0	1	+	0	1	blank2r.bmp	252	1	YDDY	306	1	schön	559	0	0	0	0	0	0	0	0	0	0	0	0	0	0	0	0	0	0	0	0	0	0	0	0	0	0	0	0	0	0	0	0	0	0	0	0	0	0	0
081219	16:01:04	16:05:06	242140	5.0.10.0	5_exp_noRW	96	Rpleas_acq	CS_B	JXXJ	MQQM	YDDY	VKKV	BZZB	GWWG	schön	retten	fair	treu	spielen	ehrlich	schlecht	rächen	faul	tot	strafen	eitel	47pct	acq_USunple_CSpleas1_noRW	acq1_noRW	1	78	0	0	300	300	1731	46	0	1	1	blank2r.bmp	0	1	+	0	1	blank2r.bmp	252	1	JXXJ	306	2	rächen	559	0	0	0	0	0	0	0	0	0	0	0	0	0	0	0	0	0	0	0	0	0	0	0	0	0	0	0	0	0	0	0	0	0	0	0	0	0	0	0
081219	16:01:04	16:05:09	244339	5.0.10.0	5_exp_noRW	96	Rpleas_acq	CS_B	JXXJ	MQQM	YDDY	VKKV	BZZB	GWWG	schön	retten	fair	treu	spielen	ehrlich	schlecht	rächen	faul	tot	strafen	eitel	53pct	acq_USunple_CSunple2_noRW	acq1_noRW	1	79	0	0	300	300	1037	46	0	1	1	blank2r.bmp	0	1	+	0	1	blank2r.bmp	252	1	VKKV	306	1	tot	559	0	0	0	0	0	0	0	0	0	0	0	0	0	0	0	0	0	0	0	0	0	0	0	0	0	0	0	0	0	0	0	0	0	0	0	0	0	0	0
081219	16:01:04	16:05:10	246098	5.0.10.0	5_exp_noRW	96	Rpleas_acq	CS_B	JXXJ	MQQM	YDDY	VKKV	BZZB	GWWG	schön	retten	fair	treu	spielen	ehrlich	schlecht	rächen	faul	tot	strafen	eitel	47pct	acq_USunple_CSunple1_noRW	acq1_noRW	1	80	0	0	300	300	586	46	0	1	1	blank2r.bmp	0	1	+	0	1	blank2r.bmp	252	1	YDDY	306	2	rächen	559	0	0	0	0	0	0	0	0	0	0	0	0	0	0	0	0	0	0	0	0	0	0	0	0	0	0	0	0	0	0	0	0	0	0	0	0	0	0	0
081219	16:01:04	16:05:25	261025	5.0.10.0	5_exp_noRW	96	Rpleas_acq	CS_B	JXXJ	MQQM	YDDY	VKKV	BZZB	GWWG	schön	retten	fair	treu	spielen	ehrlich	schlecht	rächen	faul	tot	strafen	eitel	53pct	acq_USunple_CSunple1_noRW	acq23456_noRW	2	1	0	0	300	300	2000	0	0	0	1	blank2r.bmp	0	1	+	0	1	blank2r.bmp	252	1	YDDY	306	1	schlecht	559	1	FEHLER	2598	1	Schneller!	2598	0	0	0	0	0	0	0	0	0	0	0	0	0	0	0	0	0	0	0	0	0	0	0	0	0	0	0	0	0	0	0	0	0
081219	16:01:04	16:05:27	262478	5.0.10.0	5_exp_noRW	96	Rpleas_acq	CS_B	JXXJ	MQQM	YDDY	VKKV	BZZB	GWWG	schön	retten	fair	treu	spielen	ehrlich	schlecht	rächen	faul	tot	strafen	eitel	53pct	acq_USunple_CSunple1_noRW	acq23456_noRW	2	2	0	0	300	300	546	46	0	1	1	blank2r.bmp	0	1	+	0	1	blank2r.bmp	252	1	YDDY	306	3	faul	559	0	0	0	0	0	0	0	0	0	0	0	0	0	0	0	0	0	0	0	0	0	0	0	0	0	0	0	0	0	0	0	0	0	0	0	0	0	0	0
081219	16:01:04	16:05:29	264477	5.0.10.0	5_exp_noRW	96	Rpleas_acq	CS_B	JXXJ	MQQM	YDDY	VKKV	BZZB	GWWG	schön	retten	fair	treu	spielen	ehrlich	schlecht	rächen	faul	tot	strafen	eitel	47pct	acq_USpleas_CSpleas1_noRW	acq23456_noRW	2	3	0	0	300	300	836	50	0	1	1	blank2r.bmp	0	1	+	0	1	blank2r.bmp	252	1	JXXJ	306	2	retten	559	0	0	0	0	0	0	0	0	0	0	0	0	0	0	0	0	0	0	0	0	0	0	0	0	0	0	0	0	0	0	0	0	0	0	0	0	0	0	0
081219	16:01:04	16:05:30	266157	5.0.10.0	5_exp_noRW	96	Rpleas_acq	CS_B	JXXJ	MQQM	YDDY	VKKV	BZZB	GWWG	schön	retten	fair	treu	spielen	ehrlich	schlecht	rächen	faul	tot	strafen	eitel	53pct	acq_USpleas_CSpleas1_noRW	acq23456_noRW	2	4	0	0	300	300	503	50	0	1	1	blank2r.bmp	0	1	+	0	1	blank2r.bmp	252	1	JXXJ	306	1	schön	559	0	0	0	0	0	0	0	0	0	0	0	0	0	0	0	0	0	0	0	0	0	0	0	0	0	0	0	0	0	0	0	0	0	0	0	0	0	0	0
081219	16:01:04	16:05:32	267863	5.0.10.0	5_exp_noRW	96	Rpleas_acq	CS_B	JXXJ	MQQM	YDDY	VKKV	BZZB	GWWG	schön	retten	fair	treu	spielen	ehrlich	schlecht	rächen	faul	tot	strafen	eitel	53pct	acq_USpleas_CSpleas2_noRW	acq23456_noRW	2	5	0	0	300	300	520	50	0	1	1	blank2r.bmp	0	1	+	0	1	blank2r.bmp	252	1	MQQM	306	1	treu	559	0	0	0	0	0	0	0	0	0	0	0	0	0	0	0	0	0	0	0	0	0	0	0	0	0	0	0	0	0	0	0	0	0	0	0	0	0	0	0
081219	16:01:04	16:05:34	269622	5.0.10.0	5_exp_noRW	96	Rpleas_acq	CS_B	JXXJ	MQQM	YDDY	VKKV	BZZB	GWWG	schön	retten	fair	treu	spielen	ehrlich	schlecht	rächen	faul	tot	strafen	eitel	53pct	acq_USunple_CSunple1_noRW	acq23456_noRW	2	6	0	0	300	300	582	46	0	1	1	blank2r.bmp	0	1	+	0	1	blank2r.bmp	252	1	YDDY	306	1	schlecht	566	0	0	0	0	0	0	0	0	0	0	0	0	0	0	0	0	0	0	0	0	0	0	0	0	0	0	0	0	0	0	0	0	0	0	0	0	0	0	0
081219	16:01:04	16:05:36	271368	5.0.10.0	5_exp_noRW	96	Rpleas_acq	CS_B	JXXJ	MQQM	YDDY	VKKV	BZZB	GWWG	schön	retten	fair	treu	spielen	ehrlich	schlecht	rächen	faul	tot	strafen	eitel	47pct	acq_USpleas_CSpleas2_noRW	acq23456_noRW	2	7	0	0	300	300	568	50	0	1	1	blank2r.bmp	0	1	+	0	1	blank2r.bmp	252	1	MQQM	306	2	spielen	559	0	0	0	0	0	0	0	0	0	0	0	0	0	0	0	0	0	0	0	0	0	0	0	0	0	0	0	0	0	0	0	0	0	0	0	0	0	0	0
081219	16:01:04	16:05:37	272967	5.0.10.0	5_exp_noRW	96	Rpleas_acq	CS_B	JXXJ	MQQM	YDDY	VKKV	BZZB	GWWG	schön	retten	fair	treu	spielen	ehrlich	schlecht	rächen	faul	tot	strafen	eitel	47pct	acq_USpleas_CSpleas2_noRW	acq23456_noRW	2	8	0	0	300	300	412	50	0	1	1	blank2r.bmp	0	1	+	0	1	blank2r.bmp	252	1	MQQM	306	2	spielen	559	0	0	0	0	0	0	0	0	0	0	0	0	0	0	0	0	0	0	0	0	0	0	0	0	0	0	0	0	0	0	0	0	0	0	0	0	0	0	0
081219	16:01:04	16:05:39	274660	5.0.10.0	5_exp_noRW	96	Rpleas_acq	CS_B	JXXJ	MQQM	YDDY	VKKV	BZZB	GWWG	schön	retten	fair	treu	spielen	ehrlich	schlecht	rächen	faul	tot	strafen	eitel	53pct	acq_USpleas_CSpleas1_noRW	acq23456_noRW	2	9	0	0	300	300	529	50	0	1	1	blank2r.bmp	0	1	+	0	1	blank2r.bmp	252	1	JXXJ	306	3	fair	559	0	0	0	0	0	0	0	0	0	0	0	0	0	0	0	0	0	0	0	0	0	0	0	0	0	0	0	0	0	0	0	0	0	0	0	0	0	0	0
081219	16:01:04	16:05:40	276246	5.0.10.0	5_exp_noRW	96	Rpleas_acq	CS_B	JXXJ	MQQM	YDDY	VKKV	BZZB	GWWG	schön	retten	fair	treu	spielen	ehrlich	schlecht	rächen	faul	tot	strafen	eitel	47pct	acq_USpleas_CSpleas2_noRW	acq23456_noRW	2	10	0	0	300	300	408	50	0	1	1	blank2r.bmp	0	1	+	0	1	blank2r.bmp	252	1	MQQM	306	3	ehrlich	559	0	0	0	0	0	0	0	0	0	0	0	0	0	0	0	0	0	0	0	0	0	0	0	0	0	0	0	0	0	0	0	0	0	0	0	0	0	0	0
081219	16:01:04	16:05:42	277965	5.0.10.0	5_exp_noRW	96	Rpleas_acq	CS_B	JXXJ	MQQM	YDDY	VKKV	BZZB	GWWG	schön	retten	fair	treu	spielen	ehrlich	schlecht	rächen	faul	tot	strafen	eitel	47pct	acq_USunple_CSpleas2_noRW	acq23456_noRW	2	11	0	0	300	300	537	46	0	1	1	blank2r.bmp	0	1	+	0	1	blank2r.bmp	252	1	MQQM	306	3	eitel	559	0	0	0	0	0	0	0	0	0	0	0	0	0	0	0	0	0	0	0	0	0	0	0	0	0	0	0	0	0	0	0	0	0	0	0	0	0	0	0
081219	16:01:04	16:05:44	279751	5.0.10.0	5_exp_noRW	96	Rpleas_acq	CS_B	JXXJ	MQQM	YDDY	VKKV	BZZB	GWWG	schön	retten	fair	treu	spielen	ehrlich	schlecht	rächen	faul	tot	strafen	eitel	47pct	acq_USpleas_CSpleas1_noRW	acq23456_noRW	2	12	0	0	300	300	599	50	0	1	1	blank2r.bmp	0	1	+	0	1	blank2r.bmp	252	1	JXXJ	306	2	retten	559	0	0	0	0	0	0	0	0	0	0	0	0	0	0	0	0	0	0	0	0	0	0	0	0	0	0	0	0	0	0	0	0	0	0	0	0	0	0	0
081219	16:01:04	16:05:46	281337	5.0.10.0	5_exp_noRW	96	Rpleas_acq	CS_B	JXXJ	MQQM	YDDY	VKKV	BZZB	GWWG	schön	retten	fair	treu	spielen	ehrlich	schlecht	rächen	faul	tot	strafen	eitel	53pct	acq_USunple_CSpleas1_noRW	acq23456_noRW	2	13	0	0	300	300	415	46	0	1	1	blank2r.bmp	0	1	+	0	1	blank2r.bmp	252	1	JXXJ	306	3	faul	559	0	0	0	0	0	0	0	0	0	0	0	0	0	0	0	0	0	0	0	0	0	0	0	0	0	0	0	0	0	0	0	0	0	0	0	0	0	0	0
081219	16:01:04	16:05:47	282936	5.0.10.0	5_exp_noRW	96	Rpleas_acq	CS_B	JXXJ	MQQM	YDDY	VKKV	BZZB	GWWG	schön	retten	fair	treu	spielen	ehrlich	schlecht	rächen	faul	tot	strafen	eitel	47pct	acq_USunple_CSunple2_noRW	acq23456_noRW	2	14	0	0	300	300	417	46	0	1	1	blank2r.bmp	0	1	+	0	1	blank2r.bmp	252	1	VKKV	306	2	strafen	559	0	0	0	0	0	0	0	0	0	0	0	0	0	0	0	0	0	0	0	0	0	0	0	0	0	0	0	0	0	0	0	0	0	0	0	0	0	0	0
081219	16:01:04	16:05:49	284509	5.0.10.0	5_exp_noRW	96	Rpleas_acq	CS_B	JXXJ	MQQM	YDDY	VKKV	BZZB	GWWG	schön	retten	fair	treu	spielen	ehrlich	schlecht	rächen	faul	tot	strafen	eitel	47pct	acq_USunple_CSunple1_noRW	acq23456_noRW	2	15	0	0	300	300	409	46	0	1	1	blank2r.bmp	0	1	+	0	1	blank2r.bmp	252	1	YDDY	306	3	faul	559	0	0	0	0	0	0	0	0	0	0	0	0	0	0	0	0	0	0	0	0	0	0	0	0	0	0	0	0	0	0	0	0	0	0	0	0	0	0	0
081219	16:01:04	16:05:50	286202	5.0.10.0	5_exp_noRW	96	Rpleas_acq	CS_B	JXXJ	MQQM	YDDY	VKKV	BZZB	GWWG	schön	retten	fair	treu	spielen	ehrlich	schlecht	rächen	faul	tot	strafen	eitel	53pct	acq_USunple_CSunple2_noRW	acq23456_noRW	2	16	0	0	300	300	527	46	0	1	1	blank2r.bmp	0	1	+	0	1	blank2r.bmp	252	1	VKKV	306	3	eitel	559	0	0	0	0	0	0	0	0	0	0	0	0	0	0	0	0	0	0	0	0	0	0	0	0	0	0	0	0	0	0	0	0	0	0	0	0	0	0	0
081219	16:01:04	16:05:52	288014	5.0.10.0	5_exp_noRW	96	Rpleas_acq	CS_B	JXXJ	MQQM	YDDY	VKKV	BZZB	GWWG	schön	retten	fair	treu	spielen	ehrlich	schlecht	rächen	faul	tot	strafen	eitel	47pct	acq_USpleas_CSunple1_noRW	acq23456_noRW	2	17	0	0	300	300	627	50	0	1	1	blank2r.bmp	0	1	+	0	1	blank2r.bmp	252	1	YDDY	306	2	retten	559	0	0	0	0	0	0	0	0	0	0	0	0	0	0	0	0	0	0	0	0	0	0	0	0	0	0	0	0	0	0	0	0	0	0	0	0	0	0	0
081219	16:01:04	16:05:54	289787	5.0.10.0	5_exp_noRW	96	Rpleas_acq	CS_B	JXXJ	MQQM	YDDY	VKKV	BZZB	GWWG	schön	retten	fair	treu	spielen	ehrlich	schlecht	rächen	faul	tot	strafen	eitel	53pct	acq_USunple_CSunple2_noRW	acq23456_noRW	2	18	0	0	300	300	604	46	0	1	1	blank2r.bmp	0	1	+	0	1	blank2r.bmp	252	1	VKKV	306	3	eitel	559	0	0	0	0	0	0	0	0	0	0	0	0	0	0	0	0	0	0	0	0	0	0	0	0	0	0	0	0	0	0	0	0	0	0	0	0	0	0	0
081219	16:01:04	16:05:56	291413	5.0.10.0	5_exp_noRW	96	Rpleas_acq	CS_B	JXXJ	MQQM	YDDY	VKKV	BZZB	GWWG	schön	retten	fair	treu	spielen	ehrlich	schlecht	rächen	faul	tot	strafen	eitel	47pct	acq_USpleas_CSunple2_noRW	acq23456_noRW	2	19	0	0	300	300	457	50	0	1	1	blank2r.bmp	0	1	+	0	1	blank2r.bmp	252	1	VKKV	306	1	treu	559	0	0	0	0	0	0	0	0	0	0	0	0	0	0	0	0	0	0	0	0	0	0	0	0	0	0	0	0	0	0	0	0	0	0	0	0	0	0	0
081219	16:01:04	16:05:57	293066	5.0.10.0	5_exp_noRW	96	Rpleas_acq	CS_B	JXXJ	MQQM	YDDY	VKKV	BZZB	GWWG	schön	retten	fair	treu	spielen	ehrlich	schlecht	rächen	faul	tot	strafen	eitel	47pct	acq_USunple_CSunple2_noRW	acq23456_noRW	2	20	0	0	300	300	466	46	0	1	1	blank2r.bmp	0	1	+	0	1	blank2r.bmp	252	1	VKKV	306	2	strafen	559	0	0	0	0	0	0	0	0	0	0	0	0	0	0	0	0	0	0	0	0	0	0	0	0	0	0	0	0	0	0	0	0	0	0	0	0	0	0	0
081219	16:01:04	16:05:59	294745	5.0.10.0	5_exp_noRW	96	Rpleas_acq	CS_B	JXXJ	MQQM	YDDY	VKKV	BZZB	GWWG	schön	retten	fair	treu	spielen	ehrlich	schlecht	rächen	faul	tot	strafen	eitel	47pct	acq_USunple_CSunple2_noRW	acq23456_noRW	2	21	0	0	300	300	517	46	0	1	1	blank2r.bmp	0	1	+	0	1	blank2r.bmp	252	1	VKKV	306	1	tot	559	0	0	0	0	0	0	0	0	0	0	0	0	0	0	0	0	0	0	0	0	0	0	0	0	0	0	0	0	0	0	0	0	0	0	0	0	0	0	0
081219	16:01:04	16:06:01	296371	5.0.10.0	5_exp_noRW	96	Rpleas_acq	CS_B	JXXJ	MQQM	YDDY	VKKV	BZZB	GWWG	schön	retten	fair	treu	spielen	ehrlich	schlecht	rächen	faul	tot	strafen	eitel	47pct	acq_USunple_CSunple1_noRW	acq23456_noRW	2	22	0	0	300	300	442	46	0	1	1	blank2r.bmp	0	1	+	0	1	blank2r.bmp	252	1	YDDY	306	2	rächen	559	0	0	0	0	0	0	0	0	0	0	0	0	0	0	0	0	0	0	0	0	0	0	0	0	0	0	0	0	0	0	0	0	0	0	0	0	0	0	0
081219	16:01:04	16:06:02	298064	5.0.10.0	5_exp_noRW	96	Rpleas_acq	CS_B	JXXJ	MQQM	YDDY	VKKV	BZZB	GWWG	schön	retten	fair	treu	spielen	ehrlich	schlecht	rächen	faul	tot	strafen	eitel	47pct	acq_USpleas_CSunple1_noRW	acq23456_noRW	2	23	0	0	300	300	530	50	0	1	1	blank2r.bmp	0	1	+	0	1	blank2r.bmp	252	1	YDDY	306	3	fair	559	0	0	0	0	0	0	0	0	0	0	0	0	0	0	0	0	0	0	0	0	0	0	0	0	0	0	0	0	0	0	0	0	0	0	0	0	0	0	0
081219	16:01:04	16:06:04	299676	5.0.10.0	5_exp_noRW	96	Rpleas_acq	CS_B	JXXJ	MQQM	YDDY	VKKV	BZZB	GWWG	schön	retten	fair	treu	spielen	ehrlich	schlecht	rächen	faul	tot	strafen	eitel	53pct	acq_USpleas_CSpleas1_noRW	acq23456_noRW	2	24	0	0	300	300	428	50	0	1	1	blank2r.bmp	0	1	+	0	1	blank2r.bmp	252	1	JXXJ	306	1	schön	559	0	0	0	0	0	0	0	0	0	0	0	0	0	0	0	0	0	0	0	0	0	0	0	0	0	0	0	0	0	0	0	0	0	0	0	0	0	0	0
081219	16:01:04	16:06:05	301289	5.0.10.0	5_exp_noRW	96	Rpleas_acq	CS_B	JXXJ	MQQM	YDDY	VKKV	BZZB	GWWG	schön	retten	fair	treu	spielen	ehrlich	schlecht	rächen	faul	tot	strafen	eitel	47pct	acq_USunple_CSunple2_noRW	acq23456_noRW	2	25	0	0	300	300	440	46	0	1	1	blank2r.bmp	0	1	+	0	1	blank2r.bmp	252	1	VKKV	306	1	tot	559	0	0	0	0	0	0	0	0	0	0	0	0	0	0	0	0	0	0	0	0	0	0	0	0	0	0	0	0	0	0	0	0	0	0	0	0	0	0	0
081219	16:01:04	16:06:07	302955	5.0.10.0	5_exp_noRW	96	Rpleas_acq	CS_B	JXXJ	MQQM	YDDY	VKKV	BZZB	GWWG	schön	retten	fair	treu	spielen	ehrlich	schlecht	rächen	faul	tot	strafen	eitel	53pct	acq_USpleas_CSpleas2_noRW	acq23456_noRW	2	26	0	0	300	300	491	50	0	1	1	blank2r.bmp	0	1	+	0	1	blank2r.bmp	252	1	MQQM	306	1	treu	559	0	0	0	0	0	0	0	0	0	0	0	0	0	0	0	0	0	0	0	0	0	0	0	0	0	0	0	0	0	0	0	0	0	0	0	0	0	0	0
081219	16:01:04	16:06:09	304501	5.0.10.0	5_exp_noRW	96	Rpleas_acq	CS_B	JXXJ	MQQM	YDDY	VKKV	BZZB	GWWG	schön	retten	fair	treu	spielen	ehrlich	schlecht	rächen	faul	tot	strafen	eitel	47pct	acq_USunple_CSunple2_noRW	acq23456_noRW	2	27	0	0	300	300	373	46	0	1	1	blank2r.bmp	0	1	+	0	1	blank2r.bmp	252	1	VKKV	306	2	strafen	559	0	0	0	0	0	0	0	0	0	0	0	0	0	0	0	0	0	0	0	0	0	0	0	0	0	0	0	0	0	0	0	0	0	0	0	0	0	0	0
081219	16:01:04	16:06:10	306034	5.0.10.0	5_exp_noRW	96	Rpleas_acq	CS_B	JXXJ	MQQM	YDDY	VKKV	BZZB	GWWG	schön	retten	fair	treu	spielen	ehrlich	schlecht	rächen	faul	tot	strafen	eitel	53pct	acq_USunple_CSpleas2_noRW	acq23456_noRW	2	28	0	0	300	300	361	46	0	1	1	blank2r.bmp	0	1	+	0	1	blank2r.bmp	252	1	MQQM	306	2	strafen	559	0	0	0	0	0	0	0	0	0	0	0	0	0	0	0	0	0	0	0	0	0	0	0	0	0	0	0	0	0	0	0	0	0	0	0	0	0	0	0
081219	16:01:04	16:06:12	307646	5.0.10.0	5_exp_noRW	96	Rpleas_acq	CS_B	JXXJ	MQQM	YDDY	VKKV	BZZB	GWWG	schön	retten	fair	treu	spielen	ehrlich	schlecht	rächen	faul	tot	strafen	eitel	47pct	acq_USpleas_CSpleas2_noRW	acq23456_noRW	2	29	0	0	300	300	428	50	0	1	1	blank2r.bmp	0	1	+	0	1	blank2r.bmp	252	1	MQQM	306	3	ehrlich	559	0	0	0	0	0	0	0	0	0	0	0	0	0	0	0	0	0	0	0	0	0	0	0	0	0	0	0	0	0	0	0	0	0	0	0	0	0	0	0
081219	16:01:04	16:06:13	309152	5.0.10.0	5_exp_noRW	96	Rpleas_acq	CS_B	JXXJ	MQQM	YDDY	VKKV	BZZB	GWWG	schön	retten	fair	treu	spielen	ehrlich	schlecht	rächen	faul	tot	strafen	eitel	53pct	acq_USpleas_CSpleas1_noRW	acq23456_noRW	2	30	0	0	300	300	339	50	0	1	1	blank2r.bmp	0	1	+	0	1	blank2r.bmp	252	1	JXXJ	306	3	fair	559	0	0	0	0	0	0	0	0	0	0	0	0	0	0	0	0	0	0	0	0	0	0	0	0	0	0	0	0	0	0	0	0	0	0	0	0	0	0	0
081219	16:01:04	16:06:15	310725	5.0.10.0	5_exp_noRW	96	Rpleas_acq	CS_B	JXXJ	MQQM	YDDY	VKKV	BZZB	GWWG	schön	retten	fair	treu	spielen	ehrlich	schlecht	rächen	faul	tot	strafen	eitel	53pct	acq_USunple_CSunple1_noRW	acq23456_noRW	2	31	0	0	300	300	395	46	0	1	1	blank2r.bmp	0	1	+	0	1	blank2r.bmp	252	1	YDDY	306	3	faul	559	0	0	0	0	0	0	0	0	0	0	0	0	0	0	0	0	0	0	0	0	0	0	0	0	0	0	0	0	0	0	0	0	0	0	0	0	0	0	0
081219	16:01:04	16:06:16	312191	5.0.10.0	5_exp_noRW	96	Rpleas_acq	CS_B	JXXJ	MQQM	YDDY	VKKV	BZZB	GWWG	schön	retten	fair	treu	spielen	ehrlich	schlecht	rächen	faul	tot	strafen	eitel	47pct	acq_USunple_CSunple1_noRW	acq23456_noRW	2	32	0	0	300	300	282	46	0	1	1	blank2r.bmp	0	1	+	0	1	blank2r.bmp	252	1	YDDY	306	1	schlecht	559	0	0	0	0	0	0	0	0	0	0	0	0	0	0	0	0	0	0	0	0	0	0	0	0	0	0	0	0	0	0	0	0	0	0	0	0	0	0	0
081219	16:01:04	16:06:18	313724	5.0.10.0	5_exp_noRW	96	Rpleas_acq	CS_B	JXXJ	MQQM	YDDY	VKKV	BZZB	GWWG	schön	retten	fair	treu	spielen	ehrlich	schlecht	rächen	faul	tot	strafen	eitel	47pct	acq_USpleas_CSpleas1_noRW	acq23456_noRW	2	33	0	0	300	300	366	50	0	1	1	blank2r.bmp	0	1	+	0	1	blank2r.bmp	252	1	JXXJ	306	1	schön	559	0	0	0	0	0	0	0	0	0	0	0	0	0	0	0	0	0	0	0	0	0	0	0	0	0	0	0	0	0	0	0	0	0	0	0	0	0	0	0
081219	16:01:04	16:06:19	315297	5.0.10.0	5_exp_noRW	96	Rpleas_acq	CS_B	JXXJ	MQQM	YDDY	VKKV	BZZB	GWWG	schön	retten	fair	treu	spielen	ehrlich	schlecht	rächen	faul	tot	strafen	eitel	47pct	acq_USpleas_CSunple2_noRW	acq23456_noRW	2	34	0	0	300	300	397	50	0	1	1	blank2r.bmp	0	1	+	0	1	blank2r.bmp	252	1	VKKV	306	3	ehrlich	559	0	0	0	0	0	0	0	0	0	0	0	0	0	0	0	0	0	0	0	0	0	0	0	0	0	0	0	0	0	0	0	0	0	0	0	0	0	0	0
081219	16:01:04	16:06:21	316856	5.0.10.0	5_exp_noRW	96	Rpleas_acq	CS_B	JXXJ	MQQM	YDDY	VKKV	BZZB	GWWG	schön	retten	fair	treu	spielen	ehrlich	schlecht	rächen	faul	tot	strafen	eitel	53pct	acq_USpleas_CSpleas2_noRW	acq23456_noRW	2	35	0	0	300	300	372	50	0	1	1	blank2r.bmp	0	1	+	0	1	blank2r.bmp	252	1	MQQM	306	1	treu	559	0	0	0	0	0	0	0	0	0	0	0	0	0	0	0	0	0	0	0	0	0	0	0	0	0	0	0	0	0	0	0	0	0	0	0	0	0	0	0
081219	16:01:04	16:06:23	318682	5.0.10.0	5_exp_noRW	96	Rpleas_acq	CS_B	JXXJ	MQQM	YDDY	VKKV	BZZB	GWWG	schön	retten	fair	treu	spielen	ehrlich	schlecht	rächen	faul	tot	strafen	eitel	47pct	acq_USunple_CSunple2_noRW	acq23456_noRW	2	36	0	0	300	300	658	46	0	1	1	blank2r.bmp	0	1	+	0	1	blank2r.bmp	252	1	VKKV	306	3	eitel	559	0	0	0	0	0	0	0	0	0	0	0	0	0	0	0	0	0	0	0	0	0	0	0	0	0	0	0	0	0	0	0	0	0	0	0	0	0	0	0
081219	16:01:04	16:06:25	320468	5.0.10.0	5_exp_noRW	96	Rpleas_acq	CS_B	JXXJ	MQQM	YDDY	VKKV	BZZB	GWWG	schön	retten	fair	treu	spielen	ehrlich	schlecht	rächen	faul	tot	strafen	eitel	53pct	acq_USunple_CSpleas1_noRW	acq23456_noRW	2	37	0	0	300	300	601	46	0	1	1	blank2r.bmp	0	1	+	0	1	blank2r.bmp	252	1	JXXJ	306	1	schlecht	559	0	0	0	0	0	0	0	0	0	0	0	0	0	0	0	0	0	0	0	0	0	0	0	0	0	0	0	0	0	0	0	0	0	0	0	0	0	0	0
081219	16:01:04	16:06:26	322227	5.0.10.0	5_exp_noRW	96	Rpleas_acq	CS_B	JXXJ	MQQM	YDDY	VKKV	BZZB	GWWG	schön	retten	fair	treu	spielen	ehrlich	schlecht	rächen	faul	tot	strafen	eitel	47pct	acq_USpleas_CSpleas1_noRW	acq23456_noRW	2	38	0	0	300	300	587	50	0	1	1	blank2r.bmp	0	1	+	0	1	blank2r.bmp	252	1	JXXJ	306	2	retten	559	0	0	0	0	0	0	0	0	0	0	0	0	0	0	0	0	0	0	0	0	0	0	0	0	0	0	0	0	0	0	0	0	0	0	0	0	0	0	0
081219	16:01:04	16:06:28	323786	5.0.10.0	5_exp_noRW	96	Rpleas_acq	CS_B	JXXJ	MQQM	YDDY	VKKV	BZZB	GWWG	schön	retten	fair	treu	spielen	ehrlich	schlecht	rächen	faul	tot	strafen	eitel	47pct	acq_USunple_CSunple1_noRW	acq23456_noRW	2	39	0	0	300	300	375	46	0	1	1	blank2r.bmp	0	1	+	0	1	blank2r.bmp	252	1	YDDY	306	2	rächen	559	0	0	0	0	0	0	0	0	0	0	0	0	0	0	0	0	0	0	0	0	0	0	0	0	0	0	0	0	0	0	0	0	0	0	0	0	0	0	0
081219	16:01:04	16:06:30	325426	5.0.10.0	5_exp_noRW	96	Rpleas_acq	CS_B	JXXJ	MQQM	YDDY	VKKV	BZZB	GWWG	schön	retten	fair	treu	spielen	ehrlich	schlecht	rächen	faul	tot	strafen	eitel	47pct	acq_USpleas_CSpleas2_noRW	acq23456_noRW	2	40	0	0	300	300	452	50	0	1	1	blank2r.bmp	0	1	+	0	1	blank2r.bmp	252	1	MQQM	306	2	spielen	559	0	0	0	0	0	0	0	0	0	0	0	0	0	0	0	0	0	0	0	0	0	0	0	0	0	0	0	0	0	0	0	0	0	0	0	0	0	0	0
081219	16:01:04	16:06:31	327092	5.0.10.0	5_exp_noRW	96	Rpleas_acq	CS_B	JXXJ	MQQM	YDDY	VKKV	BZZB	GWWG	schön	retten	fair	treu	spielen	ehrlich	schlecht	rächen	faul	tot	strafen	eitel	47pct	acq_USpleas_CSpleas1_noRW	acq23456_noRW	2	41	0	0	300	300	483	50	0	1	1	blank2r.bmp	0	1	+	0	1	blank2r.bmp	252	1	JXXJ	306	3	fair	559	0	0	0	0	0	0	0	0	0	0	0	0	0	0	0	0	0	0	0	0	0	0	0	0	0	0	0	0	0	0	0	0	0	0	0	0	0	0	0
081219	16:01:04	16:06:33	328718	5.0.10.0	5_exp_noRW	96	Rpleas_acq	CS_B	JXXJ	MQQM	YDDY	VKKV	BZZB	GWWG	schön	retten	fair	treu	spielen	ehrlich	schlecht	rächen	faul	tot	strafen	eitel	53pct	acq_USunple_CSunple1_noRW	acq23456_noRW	2	42	0	0	300	300	443	46	0	1	1	blank2r.bmp	0	1	+	0	1	blank2r.bmp	252	1	YDDY	306	1	schlecht	559	0	0	0	0	0	0	0	0	0	0	0	0	0	0	0	0	0	0	0	0	0	0	0	0	0	0	0	0	0	0	0	0	0	0	0	0	0	0	0
081219	16:01:04	16:06:35	330730	5.0.10.0	5_exp_noRW	96	Rpleas_acq	CS_B	JXXJ	MQQM	YDDY	VKKV	BZZB	GWWG	schön	retten	fair	treu	spielen	ehrlich	schlecht	rächen	faul	tot	strafen	eitel	53pct	acq_USpleas_CSpleas1_noRW	acq23456_noRW	2	43	0	0	300	300	613	46	0	0	1	blank2r.bmp	0	1	+	0	1	blank2r.bmp	252	1	JXXJ	306	2	retten	559	1	FEHLER	1212	0	0	0	0	0	0	0	0	0	0	0	0	0	0	0	0	0	0	0	0	0	0	0	0	0	0	0	0	0	0	0	0	0	0	0	0
081219	16:01:04	16:06:36	332196	5.0.10.0	5_exp_noRW	96	Rpleas_acq	CS_B	JXXJ	MQQM	YDDY	VKKV	BZZB	GWWG	schön	retten	fair	treu	spielen	ehrlich	schlecht	rächen	faul	tot	strafen	eitel	47pct	acq_USpleas_CSpleas1_noRW	acq23456_noRW	2	44	0	0	300	300	513	50	0	1	1	blank2r.bmp	0	1	+	0	1	blank2r.bmp	252	1	JXXJ	306	1	schön	559	0	0	0	0	0	0	0	0	0	0	0	0	0	0	0	0	0	0	0	0	0	0	0	0	0	0	0	0	0	0	0	0	0	0	0	0	0	0	0
081219	16:01:04	16:06:38	333956	5.0.10.0	5_exp_noRW	96	Rpleas_acq	CS_B	JXXJ	MQQM	YDDY	VKKV	BZZB	GWWG	schön	retten	fair	treu	spielen	ehrlich	schlecht	rächen	faul	tot	strafen	eitel	53pct	acq_USunple_CSunple1_noRW	acq23456_noRW	2	45	0	0	300	300	575	46	0	1	1	blank2r.bmp	0	1	+	0	1	blank2r.bmp	252	1	YDDY	306	2	rächen	559	0	0	0	0	0	0	0	0	0	0	0	0	0	0	0	0	0	0	0	0	0	0	0	0	0	0	0	0	0	0	0	0	0	0	0	0	0	0	0
081219	16:01:04	16:06:40	335715	5.0.10.0	5_exp_noRW	96	Rpleas_acq	CS_B	JXXJ	MQQM	YDDY	VKKV	BZZB	GWWG	schön	retten	fair	treu	spielen	ehrlich	schlecht	rächen	faul	tot	strafen	eitel	47pct	acq_USpleas_CSunple2_noRW	acq23456_noRW	2	46	0	0	300	300	575	50	0	1	1	blank2r.bmp	0	1	+	0	1	blank2r.bmp	252	1	VKKV	306	3	ehrlich	559	0	0	0	0	0	0	0	0	0	0	0	0	0	0	0	0	0	0	0	0	0	0	0	0	0	0	0	0	0	0	0	0	0	0	0	0	0	0	0
081219	16:01:04	16:06:42	337448	5.0.10.0	5_exp_noRW	96	Rpleas_acq	CS_B	JXXJ	MQQM	YDDY	VKKV	BZZB	GWWG	schön	retten	fair	treu	spielen	ehrlich	schlecht	rächen	faul	tot	strafen	eitel	47pct	acq_USunple_CSpleas2_noRW	acq23456_noRW	2	47	0	0	300	300	570	46	0	1	1	blank2r.bmp	0	1	+	0	1	blank2r.bmp	252	1	MQQM	306	2	strafen	559	0	0	0	0	0	0	0	0	0	0	0	0	0	0	0	0	0	0	0	0	0	0	0	0	0	0	0	0	0	0	0	0	0	0	0	0	0	0	0
081219	16:01:04	16:06:43	339100	5.0.10.0	5_exp_noRW	96	Rpleas_acq	CS_B	JXXJ	MQQM	YDDY	VKKV	BZZB	GWWG	schön	retten	fair	treu	spielen	ehrlich	schlecht	rächen	faul	tot	strafen	eitel	47pct	acq_USpleas_CSunple1_noRW	acq23456_noRW	2	48	0	0	300	300	470	50	0	1	1	blank2r.bmp	0	1	+	0	1	blank2r.bmp	252	1	YDDY	306	2	retten	559	0	0	0	0	0	0	0	0	0	0	0	0	0	0	0	0	0	0	0	0	0	0	0	0	0	0	0	0	0	0	0	0	0	0	0	0	0	0	0
081219	16:01:04	16:06:45	340846	5.0.10.0	5_exp_noRW	96	Rpleas_acq	CS_B	JXXJ	MQQM	YDDY	VKKV	BZZB	GWWG	schön	retten	fair	treu	spielen	ehrlich	schlecht	rächen	faul	tot	strafen	eitel	53pct	acq_USpleas_CSpleas2_noRW	acq23456_noRW	2	49	0	0	300	300	579	50	0	1	1	blank2r.bmp	0	1	+	0	1	blank2r.bmp	252	1	MQQM	306	3	ehrlich	559	0	0	0	0	0	0	0	0	0	0	0	0	0	0	0	0	0	0	0	0	0	0	0	0	0	0	0	0	0	0	0	0	0	0	0	0	0	0	0
081219	16:01:04	16:06:47	342619	5.0.10.0	5_exp_noRW	96	Rpleas_acq	CS_B	JXXJ	MQQM	YDDY	VKKV	BZZB	GWWG	schön	retten	fair	treu	spielen	ehrlich	schlecht	rächen	faul	tot	strafen	eitel	53pct	acq_USpleas_CSpleas2_noRW	acq23456_noRW	2	50	0	0	300	300	595	50	0	1	1	blank2r.bmp	0	1	+	0	1	blank2r.bmp	252	1	MQQM	306	1	treu	559	0	0	0	0	0	0	0	0	0	0	0	0	0	0	0	0	0	0	0	0	0	0	0	0	0	0	0	0	0	0	0	0	0	0	0	0	0	0	0
081219	16:01:04	16:06:48	344205	5.0.10.0	5_exp_noRW	96	Rpleas_acq	CS_B	JXXJ	MQQM	YDDY	VKKV	BZZB	GWWG	schön	retten	fair	treu	spielen	ehrlich	schlecht	rächen	faul	tot	strafen	eitel	53pct	acq_USunple_CSunple2_noRW	acq23456_noRW	2	51	0	0	300	300	415	46	0	1	1	blank2r.bmp	0	1	+	0	1	blank2r.bmp	252	1	VKKV	306	2	strafen	559	0	0	0	0	0	0	0	0	0	0	0	0	0	0	0	0	0	0	0	0	0	0	0	0	0	0	0	0	0	0	0	0	0	0	0	0	0	0	0
081219	16:01:04	16:06:50	345737	5.0.10.0	5_exp_noRW	96	Rpleas_acq	CS_B	JXXJ	MQQM	YDDY	VKKV	BZZB	GWWG	schön	retten	fair	treu	spielen	ehrlich	schlecht	rächen	faul	tot	strafen	eitel	53pct	acq_USunple_CSunple2_noRW	acq23456_noRW	2	52	0	0	300	300	362	46	0	1	1	blank2r.bmp	0	1	+	0	1	blank2r.bmp	252	1	VKKV	306	1	tot	559	0	0	0	0	0	0	0	0	0	0	0	0	0	0	0	0	0	0	0	0	0	0	0	0	0	0	0	0	0	0	0	0	0	0	0	0	0	0	0
081219	16:01:04	16:06:52	347350	5.0.10.0	5_exp_noRW	96	Rpleas_acq	CS_B	JXXJ	MQQM	YDDY	VKKV	BZZB	GWWG	schön	retten	fair	treu	spielen	ehrlich	schlecht	rächen	faul	tot	strafen	eitel	53pct	acq_USpleas_CSpleas2_noRW	acq23456_noRW	2	53	0	0	300	300	433	50	0	1	1	blank2r.bmp	0	1	+	0	1	blank2r.bmp	252	1	MQQM	306	2	spielen	559	0	0	0	0	0	0	0	0	0	0	0	0	0	0	0	0	0	0	0	0	0	0	0	0	0	0	0	0	0	0	0	0	0	0	0	0	0	0	0
081219	16:01:04	16:06:53	349003	5.0.10.0	5_exp_noRW	96	Rpleas_acq	CS_B	JXXJ	MQQM	YDDY	VKKV	BZZB	GWWG	schön	retten	fair	treu	spielen	ehrlich	schlecht	rächen	faul	tot	strafen	eitel	47pct	acq_USunple_CSunple2_noRW	acq23456_noRW	2	54	0	0	300	300	482	46	0	1	1	blank2r.bmp	0	1	+	0	1	blank2r.bmp	252	1	VKKV	306	3	eitel	559	0	0	0	0	0	0	0	0	0	0	0	0	0	0	0	0	0	0	0	0	0	0	0	0	0	0	0	0	0	0	0	0	0	0	0	0	0	0	0
081219	16:01:04	16:06:55	350642	5.0.10.0	5_exp_noRW	96	Rpleas_acq	CS_B	JXXJ	MQQM	YDDY	VKKV	BZZB	GWWG	schön	retten	fair	treu	spielen	ehrlich	schlecht	rächen	faul	tot	strafen	eitel	53pct	acq_USpleas_CSpleas2_noRW	acq23456_noRW	2	55	0	0	300	300	466	50	0	1	1	blank2r.bmp	0	1	+	0	1	blank2r.bmp	252	1	MQQM	306	2	spielen	559	0	0	0	0	0	0	0	0	0	0	0	0	0	0	0	0	0	0	0	0	0	0	0	0	0	0	0	0	0	0	0	0	0	0	0	0	0	0	0
081219	16:01:04	16:06:57	352455	5.0.10.0	5_exp_noRW	96	Rpleas_acq	CS_B	JXXJ	MQQM	YDDY	VKKV	BZZB	GWWG	schön	retten	fair	treu	spielen	ehrlich	schlecht	rächen	faul	tot	strafen	eitel	53pct	acq_USpleas_CSpleas1_noRW	acq23456_noRW	2	56	0	0	300	300	649	50	0	1	1	blank2r.bmp	0	1	+	0	1	blank2r.bmp	252	1	JXXJ	306	2	retten	559	0	0	0	0	0	0	0	0	0	0	0	0	0	0	0	0	0	0	0	0	0	0	0	0	0	0	0	0	0	0	0	0	0	0	0	0	0	0	0
081219	16:01:04	16:06:59	354334	5.0.10.0	5_exp_noRW	96	Rpleas_acq	CS_B	JXXJ	MQQM	YDDY	VKKV	BZZB	GWWG	schön	retten	fair	treu	spielen	ehrlich	schlecht	rächen	faul	tot	strafen	eitel	53pct	acq_USunple_CSunple1_noRW	acq23456_noRW	2	57	0	0	300	300	697	46	0	1	1	blank2r.bmp	0	1	+	0	1	blank2r.bmp	252	1	YDDY	306	3	faul	559	0	0	0	0	0	0	0	0	0	0	0	0	0	0	0	0	0	0	0	0	0	0	0	0	0	0	0	0	0	0	0	0	0	0	0	0	0	0	0
081219	16:01:04	16:07:01	356333	5.0.10.0	5_exp_noRW	96	Rpleas_acq	CS_B	JXXJ	MQQM	YDDY	VKKV	BZZB	GWWG	schön	retten	fair	treu	spielen	ehrlich	schlecht	rächen	faul	tot	strafen	eitel	47pct	acq_USunple_CSunple2_noRW	acq23456_noRW	2	58	0	0	300	300	619	50	0	0	1	blank2r.bmp	0	1	+	0	1	blank2r.bmp	252	1	VKKV	306	3	eitel	559	1	FEHLER	1212	0	0	0	0	0	0	0	0	0	0	0	0	0	0	0	0	0	0	0	0	0	0	0	0	0	0	0	0	0	0	0	0	0	0	0	0
081219	16:01:04	16:07:02	358146	5.0.10.0	5_exp_noRW	96	Rpleas_acq	CS_B	JXXJ	MQQM	YDDY	VKKV	BZZB	GWWG	schön	retten	fair	treu	spielen	ehrlich	schlecht	rächen	faul	tot	strafen	eitel	47pct	acq_USunple_CSunple1_noRW	acq23456_noRW	2	59	0	0	300	300	848	46	0	1	1	blank2r.bmp	0	1	+	0	1	blank2r.bmp	252	1	YDDY	306	3	faul	559	0	0	0	0	0	0	0	0	0	0	0	0	0	0	0	0	0	0	0	0	0	0	0	0	0	0	0	0	0	0	0	0	0	0	0	0	0	0	0
081219	16:01:04	16:07:04	359878	5.0.10.0	5_exp_noRW	96	Rpleas_acq	CS_B	JXXJ	MQQM	YDDY	VKKV	BZZB	GWWG	schön	retten	fair	treu	spielen	ehrlich	schlecht	rächen	faul	tot	strafen	eitel	53pct	acq_USunple_CSpleas1_noRW	acq23456_noRW	2	60	0	0	300	300	549	46	0	1	1	blank2r.bmp	0	1	+	0	1	blank2r.bmp	252	1	JXXJ	306	1	schlecht	559	0	0	0	0	0	0	0	0	0	0	0	0	0	0	0	0	0	0	0	0	0	0	0	0	0	0	0	0	0	0	0	0	0	0	0	0	0	0	0
081219	16:01:04	16:07:06	361531	5.0.10.0	5_exp_noRW	96	Rpleas_acq	CS_B	JXXJ	MQQM	YDDY	VKKV	BZZB	GWWG	schön	retten	fair	treu	spielen	ehrlich	schlecht	rächen	faul	tot	strafen	eitel	53pct	acq_USpleas_CSunple1_noRW	acq23456_noRW	2	61	0	0	300	300	487	50	0	1	1	blank2r.bmp	0	1	+	0	1	blank2r.bmp	252	1	YDDY	306	1	schön	559	0	0	0	0	0	0	0	0	0	0	0	0	0	0	0	0	0	0	0	0	0	0	0	0	0	0	0	0	0	0	0	0	0	0	0	0	0	0	0
081219	16:01:04	16:07:07	363184	5.0.10.0	5_exp_noRW	96	Rpleas_acq	CS_B	JXXJ	MQQM	YDDY	VKKV	BZZB	GWWG	schön	retten	fair	treu	spielen	ehrlich	schlecht	rächen	faul	tot	strafen	eitel	53pct	acq_USpleas_CSpleas2_noRW	acq23456_noRW	2	62	0	0	300	300	474	50	0	1	1	blank2r.bmp	0	1	+	0	1	blank2r.bmp	252	1	MQQM	306	3	ehrlich	559	0	0	0	0	0	0	0	0	0	0	0	0	0	0	0	0	0	0	0	0	0	0	0	0	0	0	0	0	0	0	0	0	0	0	0	0	0	0	0
081219	16:01:04	16:07:09	364770	5.0.10.0	5_exp_noRW	96	Rpleas_acq	CS_B	JXXJ	MQQM	YDDY	VKKV	BZZB	GWWG	schön	retten	fair	treu	spielen	ehrlich	schlecht	rächen	faul	tot	strafen	eitel	47pct	acq_USunple_CSunple2_noRW	acq23456_noRW	2	63	0	0	300	300	413	46	0	1	1	blank2r.bmp	0	1	+	0	1	blank2r.bmp	252	1	VKKV	306	1	tot	559	0	0	0	0	0	0	0	0	0	0	0	0	0	0	0	0	0	0	0	0	0	0	0	0	0	0	0	0	0	0	0	0	0	0	0	0	0	0	0
081219	16:01:04	16:07:11	366342	5.0.10.0	5_exp_noRW	96	Rpleas_acq	CS_B	JXXJ	MQQM	YDDY	VKKV	BZZB	GWWG	schön	retten	fair	treu	spielen	ehrlich	schlecht	rächen	faul	tot	strafen	eitel	53pct	acq_USunple_CSunple2_noRW	acq23456_noRW	2	64	0	0	300	300	387	46	0	1	1	blank2r.bmp	0	1	+	0	1	blank2r.bmp	252	1	VKKV	306	2	strafen	559	0	0	0	0	0	0	0	0	0	0	0	0	0	0	0	0	0	0	0	0	0	0	0	0	0	0	0	0	0	0	0	0	0	0	0	0	0	0	0
081219	16:01:04	16:07:12	368182	5.0.10.0	5_exp_noRW	96	Rpleas_acq	CS_B	JXXJ	MQQM	YDDY	VKKV	BZZB	GWWG	schön	retten	fair	treu	spielen	ehrlich	schlecht	rächen	faul	tot	strafen	eitel	53pct	acq_USunple_CSunple1_noRW	acq23456_noRW	2	65	0	0	300	300	657	46	0	1	1	blank2r.bmp	0	1	+	0	1	blank2r.bmp	252	1	YDDY	306	2	rächen	559	0	0	0	0	0	0	0	0	0	0	0	0	0	0	0	0	0	0	0	0	0	0	0	0	0	0	0	0	0	0	0	0	0	0	0	0	0	0	0
081219	16:01:04	16:07:14	369914	5.0.10.0	5_exp_noRW	96	Rpleas_acq	CS_B	JXXJ	MQQM	YDDY	VKKV	BZZB	GWWG	schön	retten	fair	treu	spielen	ehrlich	schlecht	rächen	faul	tot	strafen	eitel	47pct	acq_USpleas_CSpleas2_noRW	acq23456_noRW	2	66	0	0	300	300	548	50	0	1	1	blank2r.bmp	0	1	+	0	1	blank2r.bmp	252	1	MQQM	306	1	treu	559	0	0	0	0	0	0	0	0	0	0	0	0	0	0	0	0	0	0	0	0	0	0	0	0	0	0	0	0	0	0	0	0	0	0	0	0	0	0	0
081219	16:01:04	16:07:16	371713	5.0.10.0	5_exp_noRW	96	Rpleas_acq	CS_B	JXXJ	MQQM	YDDY	VKKV	BZZB	GWWG	schön	retten	fair	treu	spielen	ehrlich	schlecht	rächen	faul	tot	strafen	eitel	47pct	acq_USunple_CSunple1_noRW	acq23456_noRW	2	67	0	0	300	300	614	46	0	1	1	blank2r.bmp	0	1	+	0	1	blank2r.bmp	252	1	YDDY	306	1	schlecht	559	0	0	0	0	0	0	0	0	0	0	0	0	0	0	0	0	0	0	0	0	0	0	0	0	0	0	0	0	0	0	0	0	0	0	0	0	0	0	0
081219	16:01:04	16:07:18	373553	5.0.10.0	5_exp_noRW	96	Rpleas_acq	CS_B	JXXJ	MQQM	YDDY	VKKV	BZZB	GWWG	schön	retten	fair	treu	spielen	ehrlich	schlecht	rächen	faul	tot	strafen	eitel	47pct	acq_USunple_CSunple2_noRW	acq23456_noRW	2	68	0	0	300	300	667	46	0	1	1	blank2r.bmp	0	1	+	0	1	blank2r.bmp	252	1	VKKV	306	2	strafen	559	0	0	0	0	0	0	0	0	0	0	0	0	0	0	0	0	0	0	0	0	0	0	0	0	0	0	0	0	0	0	0	0	0	0	0	0	0	0	0
081219	16:01:04	16:07:19	375272	5.0.10.0	5_exp_noRW	96	Rpleas_acq	CS_B	JXXJ	MQQM	YDDY	VKKV	BZZB	GWWG	schön	retten	fair	treu	spielen	ehrlich	schlecht	rächen	faul	tot	strafen	eitel	47pct	acq_USunple_CSpleas2_noRW	acq23456_noRW	2	69	0	0	300	300	557	46	0	1	1	blank2r.bmp	0	1	+	0	1	blank2r.bmp	252	1	MQQM	306	1	tot	559	0	0	0	0	0	0	0	0	0	0	0	0	0	0	0	0	0	0	0	0	0	0	0	0	0	0	0	0	0	0	0	0	0	0	0	0	0	0	0
081219	16:01:04	16:07:21	377085	5.0.10.0	5_exp_noRW	96	Rpleas_acq	CS_B	JXXJ	MQQM	YDDY	VKKV	BZZB	GWWG	schön	retten	fair	treu	spielen	ehrlich	schlecht	rächen	faul	tot	strafen	eitel	47pct	acq_USpleas_CSpleas1_noRW	acq23456_noRW	2	70	0	0	300	300	628	50	0	1	1	blank2r.bmp	0	1	+	0	1	blank2r.bmp	252	1	JXXJ	306	3	fair	559	0	0	0	0	0	0	0	0	0	0	0	0	0	0	0	0	0	0	0	0	0	0	0	0	0	0	0	0	0	0	0	0	0	0	0	0	0	0	0
081219	16:01:04	16:07:23	378817	5.0.10.0	5_exp_noRW	96	Rpleas_acq	CS_B	JXXJ	MQQM	YDDY	VKKV	BZZB	GWWG	schön	retten	fair	treu	spielen	ehrlich	schlecht	rächen	faul	tot	strafen	eitel	53pct	acq_USpleas_CSpleas2_noRW	acq23456_noRW	2	71	0	0	300	300	559	50	0	1	1	blank2r.bmp	0	1	+	0	1	blank2r.bmp	252	1	MQQM	306	3	ehrlich	559	0	0	0	0	0	0	0	0	0	0	0	0	0	0	0	0	0	0	0	0	0	0	0	0	0	0	0	0	0	0	0	0	0	0	0	0	0	0	0
081219	16:01:04	16:07:25	380470	5.0.10.0	5_exp_noRW	96	Rpleas_acq	CS_B	JXXJ	MQQM	YDDY	VKKV	BZZB	GWWG	schön	retten	fair	treu	spielen	ehrlich	schlecht	rächen	faul	tot	strafen	eitel	47pct	acq_USunple_CSunple1_noRW	acq23456_noRW	2	72	0	0	300	300	489	46	0	1	1	blank2r.bmp	0	1	+	0	1	blank2r.bmp	252	1	YDDY	306	1	schlecht	559	0	0	0	0	0	0	0	0	0	0	0	0	0	0	0	0	0	0	0	0	0	0	0	0	0	0	0	0	0	0	0	0	0	0	0	0	0	0	0
081219	16:01:04	16:07:27	382349	5.0.10.0	5_exp_noRW	96	Rpleas_acq	CS_B	JXXJ	MQQM	YDDY	VKKV	BZZB	GWWG	schön	retten	fair	treu	spielen	ehrlich	schlecht	rächen	faul	tot	strafen	eitel	47pct	acq_USpleas_CSpleas2_noRW	acq23456_noRW	2	73	0	0	300	300	698	50	0	1	1	blank2r.bmp	0	1	+	0	1	blank2r.bmp	252	1	MQQM	306	2	spielen	559	0	0	0	0	0	0	0	0	0	0	0	0	0	0	0	0	0	0	0	0	0	0	0	0	0	0	0	0	0	0	0	0	0	0	0	0	0	0	0
081219	16:01:04	16:07:28	384295	5.0.10.0	5_exp_noRW	96	Rpleas_acq	CS_B	JXXJ	MQQM	YDDY	VKKV	BZZB	GWWG	schön	retten	fair	treu	spielen	ehrlich	schlecht	rächen	faul	tot	strafen	eitel	53pct	acq_USpleas_CSpleas1_noRW	acq23456_noRW	2	74	0	0	300	300	771	50	0	1	1	blank2r.bmp	0	1	+	0	1	blank2r.bmp	252	1	JXXJ	306	1	schön	559	0	0	0	0	0	0	0	0	0	0	0	0	0	0	0	0	0	0	0	0	0	0	0	0	0	0	0	0	0	0	0	0	0	0	0	0	0	0	0
081219	16:01:04	16:07:30	386241	5.0.10.0	5_exp_noRW	96	Rpleas_acq	CS_B	JXXJ	MQQM	YDDY	VKKV	BZZB	GWWG	schön	retten	fair	treu	spielen	ehrlich	schlecht	rächen	faul	tot	strafen	eitel	53pct	acq_USunple_CSpleas1_noRW	acq23456_noRW	2	75	0	0	300	300	758	46	0	1	1	blank2r.bmp	0	1	+	0	1	blank2r.bmp	252	1	JXXJ	306	3	faul	559	0	0	0	0	0	0	0	0	0	0	0	0	0	0	0	0	0	0	0	0	0	0	0	0	0	0	0	0	0	0	0	0	0	0	0	0	0	0	0
081219	16:01:04	16:07:32	388067	5.0.10.0	5_exp_noRW	96	Rpleas_acq	CS_B	JXXJ	MQQM	YDDY	VKKV	BZZB	GWWG	schön	retten	fair	treu	spielen	ehrlich	schlecht	rächen	faul	tot	strafen	eitel	53pct	acq_USunple_CSunple2_noRW	acq23456_noRW	2	76	0	0	300	300	655	46	0	1	1	blank2r.bmp	0	1	+	0	1	blank2r.bmp	252	1	VKKV	306	1	tot	559	0	0	0	0	0	0	0	0	0	0	0	0	0	0	0	0	0	0	0	0	0	0	0	0	0	0	0	0	0	0	0	0	0	0	0	0	0	0	0
081219	16:01:04	16:07:34	389919	5.0.10.0	5_exp_noRW	96	Rpleas_acq	CS_B	JXXJ	MQQM	YDDY	VKKV	BZZB	GWWG	schön	retten	fair	treu	spielen	ehrlich	schlecht	rächen	faul	tot	strafen	eitel	53pct	acq_USpleas_CSpleas1_noRW	acq23456_noRW	2	77	0	0	300	300	681	50	0	1	1	blank2r.bmp	0	1	+	0	1	blank2r.bmp	252	1	JXXJ	306	2	retten	559	0	0	0	0	0	0	0	0	0	0	0	0	0	0	0	0	0	0	0	0	0	0	0	0	0	0	0	0	0	0	0	0	0	0	0	0	0	0	0
081219	16:01:04	16:07:36	391732	5.0.10.0	5_exp_noRW	96	Rpleas_acq	CS_B	JXXJ	MQQM	YDDY	VKKV	BZZB	GWWG	schön	retten	fair	treu	spielen	ehrlich	schlecht	rächen	faul	tot	strafen	eitel	47pct	acq_USpleas_CSunple2_noRW	acq23456_noRW	2	78	0	0	300	300	646	50	0	1	1	blank2r.bmp	0	1	+	0	1	blank2r.bmp	252	1	VKKV	306	1	treu	559	0	0	0	0	0	0	0	0	0	0	0	0	0	0	0	0	0	0	0	0	0	0	0	0	0	0	0	0	0	0	0	0	0	0	0	0	0	0	0
081219	16:01:04	16:07:38	393558	5.0.10.0	5_exp_noRW	96	Rpleas_acq	CS_B	JXXJ	MQQM	YDDY	VKKV	BZZB	GWWG	schön	retten	fair	treu	spielen	ehrlich	schlecht	rächen	faul	tot	strafen	eitel	47pct	acq_USunple_CSunple1_noRW	acq23456_noRW	2	79	0	0	300	300	642	46	0	1	1	blank2r.bmp	0	1	+	0	1	blank2r.bmp	252	1	YDDY	306	2	rächen	559	0	0	0	0	0	0	0	0	0	0	0	0	0	0	0	0	0	0	0	0	0	0	0	0	0	0	0	0	0	0	0	0	0	0	0	0	0	0	0
081219	16:01:04	16:07:40	395410	5.0.10.0	5_exp_noRW	96	Rpleas_acq	CS_B	JXXJ	MQQM	YDDY	VKKV	BZZB	GWWG	schön	retten	fair	treu	spielen	ehrlich	schlecht	rächen	faul	tot	strafen	eitel	53pct	acq_USpleas_CSpleas1_noRW	acq23456_noRW	2	80	0	0	300	300	689	50	0	1	1	blank2r.bmp	0	1	+	0	1	blank2r.bmp	252	1	JXXJ	306	1	schön	559	0	0	0	0	0	0	0	0	0	0	0	0	0	0	0	0	0	0	0	0	0	0	0	0	0	0	0	0	0	0	0	0	0	0	0	0	0	0	0
081219	16:01:04	16:07:47	403181	5.0.10.0	5_exp_noRW	96	Rpleas_acq	CS_B	JXXJ	MQQM	YDDY	VKKV	BZZB	GWWG	schön	retten	fair	treu	spielen	ehrlich	schlecht	rächen	faul	tot	strafen	eitel	47pct	acq_USunple_CSpleas2_noRW	acq23456_noRW	3	1	0	0	300	300	1432	46	0	1	1	blank2r.bmp	0	1	+	0	1	blank2r.bmp	252	1	MQQM	306	3	eitel	559	0	0	0	0	0	0	0	0	0	0	0	0	0	0	0	0	0	0	0	0	0	0	0	0	0	0	0	0	0	0	0	0	0	0	0	0	0	0	0
081219	16:01:04	16:07:49	404940	5.0.10.0	5_exp_noRW	96	Rpleas_acq	CS_B	JXXJ	MQQM	YDDY	VKKV	BZZB	GWWG	schön	retten	fair	treu	spielen	ehrlich	schlecht	rächen	faul	tot	strafen	eitel	47pct	acq_USpleas_CSpleas1_noRW	acq23456_noRW	3	2	0	0	300	300	598	50	0	1	1	blank2r.bmp	0	1	+	0	1	blank2r.bmp	252	1	JXXJ	306	3	fair	559	0	0	0	0	0	0	0	0	0	0	0	0	0	0	0	0	0	0	0	0	0	0	0	0	0	0	0	0	0	0	0	0	0	0	0	0	0	0	0
081219	16:01:04	16:07:51	406952	5.0.10.0	5_exp_noRW	96	Rpleas_acq	CS_B	JXXJ	MQQM	YDDY	VKKV	BZZB	GWWG	schön	retten	fair	treu	spielen	ehrlich	schlecht	rächen	faul	tot	strafen	eitel	53pct	acq_USpleas_CSpleas2_noRW	acq23456_noRW	3	3	0	0	300	300	846	50	0	1	1	blank2r.bmp	0	1	+	0	1	blank2r.bmp	252	1	MQQM	306	1	treu	559	0	0	0	0	0	0	0	0	0	0	0	0	0	0	0	0	0	0	0	0	0	0	0	0	0	0	0	0	0	0	0	0	0	0	0	0	0	0	0
081219	16:01:04	16:07:53	409071	5.0.10.0	5_exp_noRW	96	Rpleas_acq	CS_B	JXXJ	MQQM	YDDY	VKKV	BZZB	GWWG	schön	retten	fair	treu	spielen	ehrlich	schlecht	rächen	faul	tot	strafen	eitel	47pct	acq_USunple_CSunple2_noRW	acq23456_noRW	3	4	0	0	300	300	738	50	0	0	1	blank2r.bmp	0	1	+	0	1	blank2r.bmp	252	1	VKKV	306	3	eitel	559	1	FEHLER	1332	0	0	0	0	0	0	0	0	0	0	0	0	0	0	0	0	0	0	0	0	0	0	0	0	0	0	0	0	0	0	0	0	0	0	0	0
081219	16:01:04	16:07:55	410897	5.0.10.0	5_exp_noRW	96	Rpleas_acq	CS_B	JXXJ	MQQM	YDDY	VKKV	BZZB	GWWG	schön	retten	fair	treu	spielen	ehrlich	schlecht	rächen	faul	tot	strafen	eitel	53pct	acq_USpleas_CSunple1_noRW	acq23456_noRW	3	5	0	0	300	300	874	50	0	1	1	blank2r.bmp	0	1	+	0	1	blank2r.bmp	252	1	YDDY	306	3	fair	559	0	0	0	0	0	0	0	0	0	0	0	0	0	0	0	0	0	0	0	0	0	0	0	0	0	0	0	0	0	0	0	0	0	0	0	0	0	0	0
081219	16:01:04	16:07:57	412790	5.0.10.0	5_exp_noRW	96	Rpleas_acq	CS_B	JXXJ	MQQM	YDDY	VKKV	BZZB	GWWG	schön	retten	fair	treu	spielen	ehrlich	schlecht	rächen	faul	tot	strafen	eitel	53pct	acq_USunple_CSpleas1_noRW	acq23456_noRW	3	6	0	0	300	300	705	46	0	1	1	blank2r.bmp	0	1	+	0	1	blank2r.bmp	252	1	JXXJ	306	2	rächen	559	0	0	0	0	0	0	0	0	0	0	0	0	0	0	0	0	0	0	0	0	0	0	0	0	0	0	0	0	0	0	0	0	0	0	0	0	0	0	0
081219	16:01:04	16:07:59	414483	5.0.10.0	5_exp_noRW	96	Rpleas_acq	CS_B	JXXJ	MQQM	YDDY	VKKV	BZZB	GWWG	schön	retten	fair	treu	spielen	ehrlich	schlecht	rächen	faul	tot	strafen	eitel	53pct	acq_USunple_CSunple1_noRW	acq23456_noRW	3	7	0	0	300	300	523	46	0	1	1	blank2r.bmp	0	1	+	0	1	blank2r.bmp	252	1	YDDY	306	3	faul	559	0	0	0	0	0	0	0	0	0	0	0	0	0	0	0	0	0	0	0	0	0	0	0	0	0	0	0	0	0	0	0	0	0	0	0	0	0	0	0
081219	16:01:04	16:08:01	416548	5.0.10.0	5_exp_noRW	96	Rpleas_acq	CS_B	JXXJ	MQQM	YDDY	VKKV	BZZB	GWWG	schön	retten	fair	treu	spielen	ehrlich	schlecht	rächen	faul	tot	strafen	eitel	47pct	acq_USunple_CSunple1_noRW	acq23456_noRW	3	8	0	0	300	300	883	46	0	1	1	blank2r.bmp	0	1	+	0	1	blank2r.bmp	252	1	YDDY	306	2	rächen	559	0	0	0	0	0	0	0	0	0	0	0	0	0	0	0	0	0	0	0	0	0	0	0	0	0	0	0	0	0	0	0	0	0	0	0	0	0	0	0
081219	16:01:04	16:08:03	418454	5.0.10.0	5_exp_noRW	96	Rpleas_acq	CS_B	JXXJ	MQQM	YDDY	VKKV	BZZB	GWWG	schön	retten	fair	treu	spielen	ehrlich	schlecht	rächen	faul	tot	strafen	eitel	53pct	acq_USunple_CSunple2_noRW	acq23456_noRW	3	9	0	0	300	300	732	46	0	1	1	blank2r.bmp	0	1	+	0	1	blank2r.bmp	252	1	VKKV	306	3	eitel	559	0	0	0	0	0	0	0	0	0	0	0	0	0	0	0	0	0	0	0	0	0	0	0	0	0	0	0	0	0	0	0	0	0	0	0	0	0	0	0
081219	16:01:04	16:08:05	420374	5.0.10.0	5_exp_noRW	96	Rpleas_acq	CS_B	JXXJ	MQQM	YDDY	VKKV	BZZB	GWWG	schön	retten	fair	treu	spielen	ehrlich	schlecht	rächen	faul	tot	strafen	eitel	47pct	acq_USunple_CSunple2_noRW	acq23456_noRW	3	10	0	0	300	300	749	46	0	1	1	blank2r.bmp	0	1	+	0	1	blank2r.bmp	252	1	VKKV	306	1	tot	559	0	0	0	0	0	0	0	0	0	0	0	0	0	0	0	0	0	0	0	0	0	0	0	0	0	0	0	0	0	0	0	0	0	0	0	0	0	0	0
081219	16:01:04	16:08:06	422133	5.0.10.0	5_exp_noRW	96	Rpleas_acq	CS_B	JXXJ	MQQM	YDDY	VKKV	BZZB	GWWG	schön	retten	fair	treu	spielen	ehrlich	schlecht	rächen	faul	tot	strafen	eitel	53pct	acq_USpleas_CSpleas2_noRW	acq23456_noRW	3	11	0	0	300	300	595	50	0	1	1	blank2r.bmp	0	1	+	0	1	blank2r.bmp	252	1	MQQM	306	1	treu	559	0	0	0	0	0	0	0	0	0	0	0	0	0	0	0	0	0	0	0	0	0	0	0	0	0	0	0	0	0	0	0	0	0	0	0	0	0	0	0
081219	16:01:04	16:08:08	423972	5.0.10.0	5_exp_noRW	96	Rpleas_acq	CS_B	JXXJ	MQQM	YDDY	VKKV	BZZB	GWWG	schön	retten	fair	treu	spielen	ehrlich	schlecht	rächen	faul	tot	strafen	eitel	47pct	acq_USpleas_CSpleas1_noRW	acq23456_noRW	3	12	0	0	300	300	667	50	0	1	1	blank2r.bmp	0	1	+	0	1	blank2r.bmp	252	1	JXXJ	306	2	retten	559	0	0	0	0	0	0	0	0	0	0	0	0	0	0	0	0	0	0	0	0	0	0	0	0	0	0	0	0	0	0	0	0	0	0	0	0	0	0	0
081219	16:01:04	16:08:10	425731	5.0.10.0	5_exp_noRW	96	Rpleas_acq	CS_B	JXXJ	MQQM	YDDY	VKKV	BZZB	GWWG	schön	retten	fair	treu	spielen	ehrlich	schlecht	rächen	faul	tot	strafen	eitel	53pct	acq_USpleas_CSpleas2_noRW	acq23456_noRW	3	13	0	0	300	300	591	50	0	1	1	blank2r.bmp	0	1	+	0	1	blank2r.bmp	252	1	MQQM	306	3	ehrlich	559	0	0	0	0	0	0	0	0	0	0	0	0	0	0	0	0	0	0	0	0	0	0	0	0	0	0	0	0	0	0	0	0	0	0	0	0	0	0	0
081219	16:01:04	16:08:12	427464	5.0.10.0	5_exp_noRW	96	Rpleas_acq	CS_B	JXXJ	MQQM	YDDY	VKKV	BZZB	GWWG	schön	retten	fair	treu	spielen	ehrlich	schlecht	rächen	faul	tot	strafen	eitel	47pct	acq_USpleas_CSpleas1_noRW	acq23456_noRW	3	14	0	0	300	300	553	50	0	1	1	blank2r.bmp	0	1	+	0	1	blank2r.bmp	252	1	JXXJ	306	1	schön	559	0	0	0	0	0	0	0	0	0	0	0	0	0	0	0	0	0	0	0	0	0	0	0	0	0	0	0	0	0	0	0	0	0	0	0	0	0	0	0
081219	16:01:04	16:08:13	429250	5.0.10.0	5_exp_noRW	96	Rpleas_acq	CS_B	JXXJ	MQQM	YDDY	VKKV	BZZB	GWWG	schön	retten	fair	treu	spielen	ehrlich	schlecht	rächen	faul	tot	strafen	eitel	53pct	acq_USpleas_CSunple2_noRW	acq23456_noRW	3	15	0	0	300	300	598	50	0	1	1	blank2r.bmp	0	1	+	0	1	blank2r.bmp	252	1	VKKV	306	2	spielen	559	0	0	0	0	0	0	0	0	0	0	0	0	0	0	0	0	0	0	0	0	0	0	0	0	0	0	0	0	0	0	0	0	0	0	0	0	0	0	0
081219	16:01:04	16:08:15	430983	5.0.10.0	5_exp_noRW	96	Rpleas_acq	CS_B	JXXJ	MQQM	YDDY	VKKV	BZZB	GWWG	schön	retten	fair	treu	spielen	ehrlich	schlecht	rächen	faul	tot	strafen	eitel	53pct	acq_USpleas_CSpleas1_noRW	acq23456_noRW	3	16	0	0	300	300	565	50	0	1	1	blank2r.bmp	0	1	+	0	1	blank2r.bmp	252	1	JXXJ	306	3	fair	559	0	0	0	0	0	0	0	0	0	0	0	0	0	0	0	0	0	0	0	0	0	0	0	0	0	0	0	0	0	0	0	0	0	0	0	0	0	0	0
081219	16:01:04	16:08:17	432782	5.0.10.0	5_exp_noRW	96	Rpleas_acq	CS_B	JXXJ	MQQM	YDDY	VKKV	BZZB	GWWG	schön	retten	fair	treu	spielen	ehrlich	schlecht	rächen	faul	tot	strafen	eitel	47pct	acq_USpleas_CSpleas2_noRW	acq23456_noRW	3	17	0	0	300	300	626	50	0	1	1	blank2r.bmp	0	1	+	0	1	blank2r.bmp	252	1	MQQM	306	2	spielen	559	0	0	0	0	0	0	0	0	0	0	0	0	0	0	0	0	0	0	0	0	0	0	0	0	0	0	0	0	0	0	0	0	0	0	0	0	0	0	0
081219	16:01:04	16:08:19	434674	5.0.10.0	5_exp_noRW	96	Rpleas_acq	CS_B	JXXJ	MQQM	YDDY	VKKV	BZZB	GWWG	schön	retten	fair	treu	spielen	ehrlich	schlecht	rächen	faul	tot	strafen	eitel	47pct	acq_USunple_CSunple2_noRW	acq23456_noRW	3	18	0	0	300	300	729	46	0	1	1	blank2r.bmp	0	1	+	0	1	blank2r.bmp	252	1	VKKV	306	2	strafen	559	0	0	0	0	0	0	0	0	0	0	0	0	0	0	0	0	0	0	0	0	0	0	0	0	0	0	0	0	0	0	0	0	0	0	0	0	0	0	0
081219	16:01:04	16:08:21	436514	5.0.10.0	5_exp_noRW	96	Rpleas_acq	CS_B	JXXJ	MQQM	YDDY	VKKV	BZZB	GWWG	schön	retten	fair	treu	spielen	ehrlich	schlecht	rächen	faul	tot	strafen	eitel	47pct	acq_USunple_CSunple1_noRW	acq23456_noRW	3	19	0	0	300	300	674	46	0	1	1	blank2r.bmp	0	1	+	0	1	blank2r.bmp	252	1	YDDY	306	3	faul	559	0	0	0	0	0	0	0	0	0	0	0	0	0	0	0	0	0	0	0	0	0	0	0	0	0	0	0	0	0	0	0	0	0	0	0	0	0	0	0
081219	16:01:04	16:08:23	438459	5.0.10.0	5_exp_noRW	96	Rpleas_acq	CS_B	JXXJ	MQQM	YDDY	VKKV	BZZB	GWWG	schön	retten	fair	treu	spielen	ehrlich	schlecht	rächen	faul	tot	strafen	eitel	47pct	acq_USunple_CSunple1_noRW	acq23456_noRW	3	20	0	0	300	300	760	46	0	1	1	blank2r.bmp	0	1	+	0	1	blank2r.bmp	252	1	YDDY	306	1	schlecht	559	0	0	0	0	0	0	0	0	0	0	0	0	0	0	0	0	0	0	0	0	0	0	0	0	0	0	0	0	0	0	0	0	0	0	0	0	0	0	0
081219	16:01:04	16:08:25	440325	5.0.10.0	5_exp_noRW	96	Rpleas_acq	CS_B	JXXJ	MQQM	YDDY	VKKV	BZZB	GWWG	schön	retten	fair	treu	spielen	ehrlich	schlecht	rächen	faul	tot	strafen	eitel	53pct	acq_USpleas_CSpleas2_noRW	acq23456_noRW	3	21	0	0	300	300	691	50	0	1	1	blank2r.bmp	0	1	+	0	1	blank2r.bmp	252	1	MQQM	306	3	ehrlich	559	0	0	0	0	0	0	0	0	0	0	0	0	0	0	0	0	0	0	0	0	0	0	0	0	0	0	0	0	0	0	0	0	0	0	0	0	0	0	0
081219	16:01:04	16:08:26	442285	5.0.10.0	5_exp_noRW	96	Rpleas_acq	CS_B	JXXJ	MQQM	YDDY	VKKV	BZZB	GWWG	schön	retten	fair	treu	spielen	ehrlich	schlecht	rächen	faul	tot	strafen	eitel	47pct	acq_USunple_CSunple2_noRW	acq23456_noRW	3	22	0	0	300	300	783	46	0	1	1	blank2r.bmp	0	1	+	0	1	blank2r.bmp	252	1	VKKV	306	1	tot	559	0	0	0	0	0	0	0	0	0	0	0	0	0	0	0	0	0	0	0	0	0	0	0	0	0	0	0	0	0	0	0	0	0	0	0	0	0	0	0
081219	16:01:04	16:08:29	444484	5.0.10.0	5_exp_noRW	96	Rpleas_acq	CS_B	JXXJ	MQQM	YDDY	VKKV	BZZB	GWWG	schön	retten	fair	treu	spielen	ehrlich	schlecht	rächen	faul	tot	strafen	eitel	53pct	acq_USpleas_CSunple1_noRW	acq23456_noRW	3	23	0	0	300	300	1022	50	0	1	1	blank2r.bmp	0	1	+	0	1	blank2r.bmp	252	1	YDDY	306	1	schön	559	0	0	0	0	0	0	0	0	0	0	0	0	0	0	0	0	0	0	0	0	0	0	0	0	0	0	0	0	0	0	0	0	0	0	0	0	0	0	0
081219	16:01:04	16:08:31	446456	5.0.10.0	5_exp_noRW	96	Rpleas_acq	CS_B	JXXJ	MQQM	YDDY	VKKV	BZZB	GWWG	schön	retten	fair	treu	spielen	ehrlich	schlecht	rächen	faul	tot	strafen	eitel	47pct	acq_USpleas_CSpleas2_noRW	acq23456_noRW	3	24	0	0	300	300	789	50	0	1	1	blank2r.bmp	0	1	+	0	1	blank2r.bmp	252	1	MQQM	306	1	treu	559	0	0	0	0	0	0	0	0	0	0	0	0	0	0	0	0	0	0	0	0	0	0	0	0	0	0	0	0	0	0	0	0	0	0	0	0	0	0	0
081219	16:01:04	16:08:33	448642	5.0.10.0	5_exp_noRW	96	Rpleas_acq	CS_B	JXXJ	MQQM	YDDY	VKKV	BZZB	GWWG	schön	retten	fair	treu	spielen	ehrlich	schlecht	rächen	faul	tot	strafen	eitel	47pct	acq_USunple_CSunple1_noRW	acq23456_noRW	3	25	0	0	300	300	1020	46	0	1	1	blank2r.bmp	0	1	+	0	1	blank2r.bmp	252	1	YDDY	306	2	rächen	559	0	0	0	0	0	0	0	0	0	0	0	0	0	0	0	0	0	0	0	0	0	0	0	0	0	0	0	0	0	0	0	0	0	0	0	0	0	0	0
081219	16:01:04	16:08:35	450535	5.0.10.0	5_exp_noRW	96	Rpleas_acq	CS_B	JXXJ	MQQM	YDDY	VKKV	BZZB	GWWG	schön	retten	fair	treu	spielen	ehrlich	schlecht	rächen	faul	tot	strafen	eitel	47pct	acq_USunple_CSunple2_noRW	acq23456_noRW	3	26	0	0	300	300	712	46	0	1	1	blank2r.bmp	0	1	+	0	1	blank2r.bmp	252	1	VKKV	306	3	eitel	559	0	0	0	0	0	0	0	0	0	0	0	0	0	0	0	0	0	0	0	0	0	0	0	0	0	0	0	0	0	0	0	0	0	0	0	0	0	0	0
081219	16:01:04	16:08:37	452400	5.0.10.0	5_exp_noRW	96	Rpleas_acq	CS_B	JXXJ	MQQM	YDDY	VKKV	BZZB	GWWG	schön	retten	fair	treu	spielen	ehrlich	schlecht	rächen	faul	tot	strafen	eitel	53pct	acq_USpleas_CSpleas2_noRW	acq23456_noRW	3	27	0	0	300	300	680	50	0	1	1	blank2r.bmp	0	1	+	0	1	blank2r.bmp	252	1	MQQM	306	2	spielen	559	0	0	0	0	0	0	0	0	0	0	0	0	0	0	0	0	0	0	0	0	0	0	0	0	0	0	0	0	0	0	0	0	0	0	0	0	0	0	0
081219	16:01:04	16:08:38	454240	5.0.10.0	5_exp_noRW	96	Rpleas_acq	CS_B	JXXJ	MQQM	YDDY	VKKV	BZZB	GWWG	schön	retten	fair	treu	spielen	ehrlich	schlecht	rächen	faul	tot	strafen	eitel	47pct	acq_USunple_CSunple2_noRW	acq23456_noRW	3	28	0	0	300	300	674	46	0	1	1	blank2r.bmp	0	1	+	0	1	blank2r.bmp	252	1	VKKV	306	2	strafen	559	0	0	0	0	0	0	0	0	0	0	0	0	0	0	0	0	0	0	0	0	0	0	0	0	0	0	0	0	0	0	0	0	0	0	0	0	0	0	0
081219	16:01:04	16:08:40	455986	5.0.10.0	5_exp_noRW	96	Rpleas_acq	CS_B	JXXJ	MQQM	YDDY	VKKV	BZZB	GWWG	schön	retten	fair	treu	spielen	ehrlich	schlecht	rächen	faul	tot	strafen	eitel	53pct	acq_USpleas_CSpleas1_noRW	acq23456_noRW	3	29	0	0	300	300	570	50	0	1	1	blank2r.bmp	0	1	+	0	1	blank2r.bmp	252	1	JXXJ	306	3	fair	559	0	0	0	0	0	0	0	0	0	0	0	0	0	0	0	0	0	0	0	0	0	0	0	0	0	0	0	0	0	0	0	0	0	0	0	0	0	0	0
081219	16:01:04	16:08:42	457625	5.0.10.0	5_exp_noRW	96	Rpleas_acq	CS_B	JXXJ	MQQM	YDDY	VKKV	BZZB	GWWG	schön	retten	fair	treu	spielen	ehrlich	schlecht	rächen	faul	tot	strafen	eitel	53pct	acq_USpleas_CSpleas1_noRW	acq23456_noRW	3	30	0	0	300	300	463	50	0	1	1	blank2r.bmp	0	1	+	0	1	blank2r.bmp	252	1	JXXJ	306	1	schön	559	0	0	0	0	0	0	0	0	0	0	0	0	0	0	0	0	0	0	0	0	0	0	0	0	0	0	0	0	0	0	0	0	0	0	0	0	0	0	0
081219	16:01:04	16:08:44	459344	5.0.10.0	5_exp_noRW	96	Rpleas_acq	CS_B	JXXJ	MQQM	YDDY	VKKV	BZZB	GWWG	schön	retten	fair	treu	spielen	ehrlich	schlecht	rächen	faul	tot	strafen	eitel	47pct	acq_USunple_CSunple1_noRW	acq23456_noRW	3	31	0	0	300	300	544	46	0	1	1	blank2r.bmp	0	1	+	0	1	blank2r.bmp	252	1	YDDY	306	1	schlecht	559	0	0	0	0	0	0	0	0	0	0	0	0	0	0	0	0	0	0	0	0	0	0	0	0	0	0	0	0	0	0	0	0	0	0	0	0	0	0	0
081219	16:01:04	16:08:45	460984	5.0.10.0	5_exp_noRW	96	Rpleas_acq	CS_B	JXXJ	MQQM	YDDY	VKKV	BZZB	GWWG	schön	retten	fair	treu	spielen	ehrlich	schlecht	rächen	faul	tot	strafen	eitel	47pct	acq_USunple_CSunple1_noRW	acq23456_noRW	3	32	0	0	300	300	454	46	0	1	1	blank2r.bmp	0	1	+	0	1	blank2r.bmp	252	1	YDDY	306	3	faul	559	0	0	0	0	0	0	0	0	0	0	0	0	0	0	0	0	0	0	0	0	0	0	0	0	0	0	0	0	0	0	0	0	0	0	0	0	0	0	0
081219	16:01:04	16:08:47	462729	5.0.10.0	5_exp_noRW	96	Rpleas_acq	CS_B	JXXJ	MQQM	YDDY	VKKV	BZZB	GWWG	schön	retten	fair	treu	spielen	ehrlich	schlecht	rächen	faul	tot	strafen	eitel	47pct	acq_USpleas_CSunple2_noRW	acq23456_noRW	3	33	0	0	300	300	571	50	0	1	1	blank2r.bmp	0	1	+	0	1	blank2r.bmp	252	1	VKKV	306	2	spielen	559	0	0	0	0	0	0	0	0	0	0	0	0	0	0	0	0	0	0	0	0	0	0	0	0	0	0	0	0	0	0	0	0	0	0	0	0	0	0	0
081219	16:01:04	16:08:49	464582	5.0.10.0	5_exp_noRW	96	Rpleas_acq	CS_B	JXXJ	MQQM	YDDY	VKKV	BZZB	GWWG	schön	retten	fair	treu	spielen	ehrlich	schlecht	rächen	faul	tot	strafen	eitel	53pct	acq_USpleas_CSpleas2_noRW	acq23456_noRW	3	34	0	0	300	300	685	50	0	1	1	blank2r.bmp	0	1	+	0	1	blank2r.bmp	252	1	MQQM	306	1	treu	559	0	0	0	0	0	0	0	0	0	0	0	0	0	0	0	0	0	0	0	0	0	0	0	0	0	0	0	0	0	0	0	0	0	0	0	0	0	0	0
081219	16:01:04	16:08:51	466355	5.0.10.0	5_exp_noRW	96	Rpleas_acq	CS_B	JXXJ	MQQM	YDDY	VKKV	BZZB	GWWG	schön	retten	fair	treu	spielen	ehrlich	schlecht	rächen	faul	tot	strafen	eitel	53pct	acq_USpleas_CSpleas1_noRW	acq23456_noRW	3	35	0	0	300	300	605	50	0	1	1	blank2r.bmp	0	1	+	0	1	blank2r.bmp	252	1	JXXJ	306	2	retten	559	0	0	0	0	0	0	0	0	0	0	0	0	0	0	0	0	0	0	0	0	0	0	0	0	0	0	0	0	0	0	0	0	0	0	0	0	0	0	0
081219	16:01:04	16:08:52	468127	5.0.10.0	5_exp_noRW	96	Rpleas_acq	CS_B	JXXJ	MQQM	YDDY	VKKV	BZZB	GWWG	schön	retten	fair	treu	spielen	ehrlich	schlecht	rächen	faul	tot	strafen	eitel	53pct	acq_USunple_CSunple2_noRW	acq23456_noRW	3	36	0	0	300	300	597	46	0	1	1	blank2r.bmp	0	1	+	0	1	blank2r.bmp	252	1	VKKV	306	1	tot	559	0	0	0	0	0	0	0	0	0	0	0	0	0	0	0	0	0	0	0	0	0	0	0	0	0	0	0	0	0	0	0	0	0	0	0	0	0	0	0
081219	16:01:04	16:08:54	469953	5.0.10.0	5_exp_noRW	96	Rpleas_acq	CS_B	JXXJ	MQQM	YDDY	VKKV	BZZB	GWWG	schön	retten	fair	treu	spielen	ehrlich	schlecht	rächen	faul	tot	strafen	eitel	53pct	acq_USunple_CSunple1_noRW	acq23456_noRW	3	37	0	0	300	300	642	46	0	1	1	blank2r.bmp	0	1	+	0	1	blank2r.bmp	252	1	YDDY	306	3	faul	559	0	0	0	0	0	0	0	0	0	0	0	0	0	0	0	0	0	0	0	0	0	0	0	0	0	0	0	0	0	0	0	0	0	0	0	0	0	0	0
081219	16:01:04	16:08:56	471646	5.0.10.0	5_exp_noRW	96	Rpleas_acq	CS_B	JXXJ	MQQM	YDDY	VKKV	BZZB	GWWG	schön	retten	fair	treu	spielen	ehrlich	schlecht	rächen	faul	tot	strafen	eitel	53pct	acq_USunple_CSpleas2_noRW	acq23456_noRW	3	38	0	0	300	300	523	46	0	1	1	blank2r.bmp	0	1	+	0	1	blank2r.bmp	252	1	MQQM	306	2	strafen	559	0	0	0	0	0	0	0	0	0	0	0	0	0	0	0	0	0	0	0	0	0	0	0	0	0	0	0	0	0	0	0	0	0	0	0	0	0	0	0
081219	16:01:04	16:08:58	473392	5.0.10.0	5_exp_noRW	96	Rpleas_acq	CS_B	JXXJ	MQQM	YDDY	VKKV	BZZB	GWWG	schön	retten	fair	treu	spielen	ehrlich	schlecht	rächen	faul	tot	strafen	eitel	53pct	acq_USpleas_CSpleas1_noRW	acq23456_noRW	3	39	0	0	300	300	576	50	0	1	1	blank2r.bmp	0	1	+	0	1	blank2r.bmp	252	1	JXXJ	306	3	fair	559	0	0	0	0	0	0	0	0	0	0	0	0	0	0	0	0	0	0	0	0	0	0	0	0	0	0	0	0	0	0	0	0	0	0	0	0	0	0	0
081219	16:01:04	16:08:59	475151	5.0.10.0	5_exp_noRW	96	Rpleas_acq	CS_B	JXXJ	MQQM	YDDY	VKKV	BZZB	GWWG	schön	retten	fair	treu	spielen	ehrlich	schlecht	rächen	faul	tot	strafen	eitel	47pct	acq_USunple_CSpleas1_noRW	acq23456_noRW	3	40	0	0	300	300	580	46	0	1	1	blank2r.bmp	0	1	+	0	1	blank2r.bmp	252	1	JXXJ	306	3	faul	559	0	0	0	0	0	0	0	0	0	0	0	0	0	0	0	0	0	0	0	0	0	0	0	0	0	0	0	0	0	0	0	0	0	0	0	0	0	0	0
081219	16:01:04	16:09:01	476790	5.0.10.0	5_exp_noRW	96	Rpleas_acq	CS_B	JXXJ	MQQM	YDDY	VKKV	BZZB	GWWG	schön	retten	fair	treu	spielen	ehrlich	schlecht	rächen	faul	tot	strafen	eitel	47pct	acq_USpleas_CSpleas2_noRW	acq23456_noRW	3	41	0	0	300	300	461	50	0	1	1	blank2r.bmp	0	1	+	0	1	blank2r.bmp	252	1	MQQM	306	2	spielen	559	0	0	0	0	0	0	0	0	0	0	0	0	0	0	0	0	0	0	0	0	0	0	0	0	0	0	0	0	0	0	0	0	0	0	0	0	0	0	0
081219	16:01:04	16:09:03	478696	5.0.10.0	5_exp_noRW	96	Rpleas_acq	CS_B	JXXJ	MQQM	YDDY	VKKV	BZZB	GWWG	schön	retten	fair	treu	spielen	ehrlich	schlecht	rächen	faul	tot	strafen	eitel	47pct	acq_USunple_CSunple2_noRW	acq23456_noRW	3	42	0	0	300	300	726	46	0	1	1	blank2r.bmp	0	1	+	0	1	blank2r.bmp	252	1	VKKV	306	3	eitel	559	0	0	0	0	0	0	0	0	0	0	0	0	0	0	0	0	0	0	0	0	0	0	0	0	0	0	0	0	0	0	0	0	0	0	0	0	0	0	0
081219	16:01:04	16:09:05	480416	5.0.10.0	5_exp_noRW	96	Rpleas_acq	CS_B	JXXJ	MQQM	YDDY	VKKV	BZZB	GWWG	schön	retten	fair	treu	spielen	ehrlich	schlecht	rächen	faul	tot	strafen	eitel	47pct	acq_USpleas_CSpleas2_noRW	acq23456_noRW	3	43	0	0	300	300	556	50	0	1	1	blank2r.bmp	0	1	+	0	1	blank2r.bmp	252	1	MQQM	306	3	ehrlich	559	0	0	0	0	0	0	0	0	0	0	0	0	0	0	0	0	0	0	0	0	0	0	0	0	0	0	0	0	0	0	0	0	0	0	0	0	0	0	0
081219	16:01:04	16:09:06	482108	5.0.10.0	5_exp_noRW	96	Rpleas_acq	CS_B	JXXJ	MQQM	YDDY	VKKV	BZZB	GWWG	schön	retten	fair	treu	spielen	ehrlich	schlecht	rächen	faul	tot	strafen	eitel	47pct	acq_USpleas_CSpleas2_noRW	acq23456_noRW	3	44	0	0	300	300	513	50	0	1	1	blank2r.bmp	0	1	+	0	1	blank2r.bmp	252	1	MQQM	306	3	ehrlich	559	0	0	0	0	0	0	0	0	0	0	0	0	0	0	0	0	0	0	0	0	0	0	0	0	0	0	0	0	0	0	0	0	0	0	0	0	0	0	0
081219	16:01:04	16:09:08	483828	5.0.10.0	5_exp_noRW	96	Rpleas_acq	CS_B	JXXJ	MQQM	YDDY	VKKV	BZZB	GWWG	schön	retten	fair	treu	spielen	ehrlich	schlecht	rächen	faul	tot	strafen	eitel	47pct	acq_USpleas_CSpleas1_noRW	acq23456_noRW	3	45	0	0	300	300	544	50	0	1	1	blank2r.bmp	0	1	+	0	1	blank2r.bmp	252	1	JXXJ	306	1	schön	559	0	0	0	0	0	0	0	0	0	0	0	0	0	0	0	0	0	0	0	0	0	0	0	0	0	0	0	0	0	0	0	0	0	0	0	0	0	0	0
081219	16:01:04	16:09:10	485933	5.0.10.0	5_exp_noRW	96	Rpleas_acq	CS_B	JXXJ	MQQM	YDDY	VKKV	BZZB	GWWG	schön	retten	fair	treu	spielen	ehrlich	schlecht	rächen	faul	tot	strafen	eitel	53pct	acq_USunple_CSunple2_noRW	acq23456_noRW	3	46	0	0	300	300	927	46	0	1	1	blank2r.bmp	0	1	+	0	1	blank2r.bmp	252	1	VKKV	306	2	strafen	559	0	0	0	0	0	0	0	0	0	0	0	0	0	0	0	0	0	0	0	0	0	0	0	0	0	0	0	0	0	0	0	0	0	0	0	0	0	0	0
081219	16:01:04	16:09:12	487706	5.0.10.0	5_exp_noRW	96	Rpleas_acq	CS_B	JXXJ	MQQM	YDDY	VKKV	BZZB	GWWG	schön	retten	fair	treu	spielen	ehrlich	schlecht	rächen	faul	tot	strafen	eitel	53pct	acq_USpleas_CSpleas2_noRW	acq23456_noRW	3	47	0	0	300	300	596	50	0	1	1	blank2r.bmp	0	1	+	0	1	blank2r.bmp	252	1	MQQM	306	2	spielen	559	0	0	0	0	0	0	0	0	0	0	0	0	0	0	0	0	0	0	0	0	0	0	0	0	0	0	0	0	0	0	0	0	0	0	0	0	0	0	0
081219	16:01:04	16:09:14	489399	5.0.10.0	5_exp_noRW	96	Rpleas_acq	CS_B	JXXJ	MQQM	YDDY	VKKV	BZZB	GWWG	schön	retten	fair	treu	spielen	ehrlich	schlecht	rächen	faul	tot	strafen	eitel	47pct	acq_USunple_CSunple2_noRW	acq23456_noRW	3	48	0	0	300	300	509	46	0	1	1	blank2r.bmp	0	1	+	0	1	blank2r.bmp	252	1	VKKV	306	1	tot	559	0	0	0	0	0	0	0	0	0	0	0	0	0	0	0	0	0	0	0	0	0	0	0	0	0	0	0	0	0	0	0	0	0	0	0	0	0	0	0
081219	16:01:04	16:09:15	491038	5.0.10.0	5_exp_noRW	96	Rpleas_acq	CS_B	JXXJ	MQQM	YDDY	VKKV	BZZB	GWWG	schön	retten	fair	treu	spielen	ehrlich	schlecht	rächen	faul	tot	strafen	eitel	47pct	acq_USpleas_CSunple1_noRW	acq23456_noRW	3	49	0	0	300	300	473	50	0	1	1	blank2r.bmp	0	1	+	0	1	blank2r.bmp	252	1	YDDY	306	3	fair	559	0	0	0	0	0	0	0	0	0	0	0	0	0	0	0	0	0	0	0	0	0	0	0	0	0	0	0	0	0	0	0	0	0	0	0	0	0	0	0
081219	16:01:04	16:09:17	492717	5.0.10.0	5_exp_noRW	96	Rpleas_acq	CS_B	JXXJ	MQQM	YDDY	VKKV	BZZB	GWWG	schön	retten	fair	treu	spielen	ehrlich	schlecht	rächen	faul	tot	strafen	eitel	47pct	acq_USunple_CSunple1_noRW	acq23456_noRW	3	50	0	0	300	300	514	46	0	1	1	blank2r.bmp	0	1	+	0	1	blank2r.bmp	252	1	YDDY	306	1	schlecht	559	0	0	0	0	0	0	0	0	0	0	0	0	0	0	0	0	0	0	0	0	0	0	0	0	0	0	0	0	0	0	0	0	0	0	0	0	0	0	0
081219	16:01:04	16:09:19	494570	5.0.10.0	5_exp_noRW	96	Rpleas_acq	CS_B	JXXJ	MQQM	YDDY	VKKV	BZZB	GWWG	schön	retten	fair	treu	spielen	ehrlich	schlecht	rächen	faul	tot	strafen	eitel	47pct	acq_USpleas_CSpleas1_noRW	acq23456_noRW	3	51	0	0	300	300	666	50	0	1	1	blank2r.bmp	0	1	+	0	1	blank2r.bmp	252	1	JXXJ	306	2	retten	559	0	0	0	0	0	0	0	0	0	0	0	0	0	0	0	0	0	0	0	0	0	0	0	0	0	0	0	0	0	0	0	0	0	0	0	0	0	0	0
081219	16:01:04	16:09:20	496222	5.0.10.0	5_exp_noRW	96	Rpleas_acq	CS_B	JXXJ	MQQM	YDDY	VKKV	BZZB	GWWG	schön	retten	fair	treu	spielen	ehrlich	schlecht	rächen	faul	tot	strafen	eitel	47pct	acq_USunple_CSpleas2_noRW	acq23456_noRW	3	52	0	0	300	300	486	46	0	1	1	blank2r.bmp	0	1	+	0	1	blank2r.bmp	252	1	MQQM	306	1	tot	559	0	0	0	0	0	0	0	0	0	0	0	0	0	0	0	0	0	0	0	0	0	0	0	0	0	0	0	0	0	0	0	0	0	0	0	0	0	0	0
081219	16:01:04	16:09:22	497915	5.0.10.0	5_exp_noRW	96	Rpleas_acq	CS_B	JXXJ	MQQM	YDDY	VKKV	BZZB	GWWG	schön	retten	fair	treu	spielen	ehrlich	schlecht	rächen	faul	tot	strafen	eitel	47pct	acq_USunple_CSpleas1_noRW	acq23456_noRW	3	53	0	0	300	300	516	46	0	1	1	blank2r.bmp	0	1	+	0	1	blank2r.bmp	252	1	JXXJ	306	1	schlecht	559	0	0	0	0	0	0	0	0	0	0	0	0	0	0	0	0	0	0	0	0	0	0	0	0	0	0	0	0	0	0	0	0	0	0	0	0	0	0	0
081219	16:01:04	16:09:24	499581	5.0.10.0	5_exp_noRW	96	Rpleas_acq	CS_B	JXXJ	MQQM	YDDY	VKKV	BZZB	GWWG	schön	retten	fair	treu	spielen	ehrlich	schlecht	rächen	faul	tot	strafen	eitel	47pct	acq_USunple_CSunple2_noRW	acq23456_noRW	3	54	0	0	300	300	501	46	0	1	1	blank2r.bmp	0	1	+	0	1	blank2r.bmp	252	1	VKKV	306	3	eitel	559	0	0	0	0	0	0	0	0	0	0	0	0	0	0	0	0	0	0	0	0	0	0	0	0	0	0	0	0	0	0	0	0	0	0	0	0	0	0	0
081219	16:01:04	16:09:25	501300	5.0.10.0	5_exp_noRW	96	Rpleas_acq	CS_B	JXXJ	MQQM	YDDY	VKKV	BZZB	GWWG	schön	retten	fair	treu	spielen	ehrlich	schlecht	rächen	faul	tot	strafen	eitel	53pct	acq_USunple_CSunple1_noRW	acq23456_noRW	3	55	0	0	300	300	543	46	0	1	1	blank2r.bmp	0	1	+	0	1	blank2r.bmp	252	1	YDDY	306	2	rächen	559	0	0	0	0	0	0	0	0	0	0	0	0	0	0	0	0	0	0	0	0	0	0	0	0	0	0	0	0	0	0	0	0	0	0	0	0	0	0	0
081219	16:01:04	16:09:28	503433	5.0.10.0	5_exp_noRW	96	Rpleas_acq	CS_B	JXXJ	MQQM	YDDY	VKKV	BZZB	GWWG	schön	retten	fair	treu	spielen	ehrlich	schlecht	rächen	faul	tot	strafen	eitel	53pct	acq_USpleas_CSpleas1_noRW	acq23456_noRW	3	56	0	0	300	300	969	50	0	1	1	blank2r.bmp	0	1	+	0	1	blank2r.bmp	252	1	JXXJ	306	3	fair	559	0	0	0	0	0	0	0	0	0	0	0	0	0	0	0	0	0	0	0	0	0	0	0	0	0	0	0	0	0	0	0	0	0	0	0	0	0	0	0
081219	16:01:04	16:09:29	505285	5.0.10.0	5_exp_noRW	96	Rpleas_acq	CS_B	JXXJ	MQQM	YDDY	VKKV	BZZB	GWWG	schön	retten	fair	treu	spielen	ehrlich	schlecht	rächen	faul	tot	strafen	eitel	53pct	acq_USunple_CSunple1_noRW	acq23456_noRW	3	57	0	0	300	300	674	46	0	1	1	blank2r.bmp	0	1	+	0	1	blank2r.bmp	252	1	YDDY	306	1	schlecht	559	0	0	0	0	0	0	0	0	0	0	0	0	0	0	0	0	0	0	0	0	0	0	0	0	0	0	0	0	0	0	0	0	0	0	0	0	0	0	0
081219	16:01:04	16:09:31	507031	5.0.10.0	5_exp_noRW	96	Rpleas_acq	CS_B	JXXJ	MQQM	YDDY	VKKV	BZZB	GWWG	schön	retten	fair	treu	spielen	ehrlich	schlecht	rächen	faul	tot	strafen	eitel	53pct	acq_USpleas_CSunple2_noRW	acq23456_noRW	3	58	0	0	300	300	569	50	0	1	1	blank2r.bmp	0	1	+	0	1	blank2r.bmp	252	1	VKKV	306	3	ehrlich	559	0	0	0	0	0	0	0	0	0	0	0	0	0	0	0	0	0	0	0	0	0	0	0	0	0	0	0	0	0	0	0	0	0	0	0	0	0	0	0
081219	16:01:04	16:09:33	508737	5.0.10.0	5_exp_noRW	96	Rpleas_acq	CS_B	JXXJ	MQQM	YDDY	VKKV	BZZB	GWWG	schön	retten	fair	treu	spielen	ehrlich	schlecht	rächen	faul	tot	strafen	eitel	53pct	acq_USunple_CSunple1_noRW	acq23456_noRW	3	59	0	0	300	300	528	46	0	1	1	blank2r.bmp	0	1	+	0	1	blank2r.bmp	252	1	YDDY	306	2	rächen	559	0	0	0	0	0	0	0	0	0	0	0	0	0	0	0	0	0	0	0	0	0	0	0	0	0	0	0	0	0	0	0	0	0	0	0	0	0	0	0
081219	16:01:04	16:09:35	510577	5.0.10.0	5_exp_noRW	96	Rpleas_acq	CS_B	JXXJ	MQQM	YDDY	VKKV	BZZB	GWWG	schön	retten	fair	treu	spielen	ehrlich	schlecht	rächen	faul	tot	strafen	eitel	53pct	acq_USpleas_CSpleas1_noRW	acq23456_noRW	3	60	0	0	300	300	660	50	0	1	1	blank2r.bmp	0	1	+	0	1	blank2r.bmp	252	1	JXXJ	306	1	schön	559	0	0	0	0	0	0	0	0	0	0	0	0	0	0	0	0	0	0	0	0	0	0	0	0	0	0	0	0	0	0	0	0	0	0	0	0	0	0	0
081219	16:01:04	16:09:37	512842	5.0.10.0	5_exp_noRW	96	Rpleas_acq	CS_B	JXXJ	MQQM	YDDY	VKKV	BZZB	GWWG	schön	retten	fair	treu	spielen	ehrlich	schlecht	rächen	faul	tot	strafen	eitel	53pct	acq_USpleas_CSpleas1_noRW	acq23456_noRW	3	61	0	0	300	300	1079	50	0	1	1	blank2r.bmp	0	1	+	0	1	blank2r.bmp	252	1	JXXJ	306	2	retten	559	0	0	0	0	0	0	0	0	0	0	0	0	0	0	0	0	0	0	0	0	0	0	0	0	0	0	0	0	0	0	0	0	0	0	0	0	0	0	0
081219	16:01:04	16:09:39	514722	5.0.10.0	5_exp_noRW	96	Rpleas_acq	CS_B	JXXJ	MQQM	YDDY	VKKV	BZZB	GWWG	schön	retten	fair	treu	spielen	ehrlich	schlecht	rächen	faul	tot	strafen	eitel	53pct	acq_USpleas_CSpleas2_noRW	acq23456_noRW	3	62	0	0	300	300	694	50	0	1	1	blank2r.bmp	0	1	+	0	1	blank2r.bmp	252	1	MQQM	306	1	treu	559	0	0	0	0	0	0	0	0	0	0	0	0	0	0	0	0	0	0	0	0	0	0	0	0	0	0	0	0	0	0	0	0	0	0	0	0	0	0	0
081219	16:01:04	16:09:41	516801	5.0.10.0	5_exp_noRW	96	Rpleas_acq	CS_B	JXXJ	MQQM	YDDY	VKKV	BZZB	GWWG	schön	retten	fair	treu	spielen	ehrlich	schlecht	rächen	faul	tot	strafen	eitel	47pct	acq_USunple_CSunple2_noRW	acq23456_noRW	3	63	0	0	300	300	906	46	0	1	1	blank2r.bmp	0	1	+	0	1	blank2r.bmp	252	1	VKKV	306	2	strafen	559	0	0	0	0	0	0	0	0	0	0	0	0	0	0	0	0	0	0	0	0	0	0	0	0	0	0	0	0	0	0	0	0	0	0	0	0	0	0	0
081219	16:01:04	16:09:43	518667	5.0.10.0	5_exp_noRW	96	Rpleas_acq	CS_B	JXXJ	MQQM	YDDY	VKKV	BZZB	GWWG	schön	retten	fair	treu	spielen	ehrlich	schlecht	rächen	faul	tot	strafen	eitel	53pct	acq_USpleas_CSpleas2_noRW	acq23456_noRW	3	64	0	0	300	300	692	50	0	1	1	blank2r.bmp	0	1	+	0	1	blank2r.bmp	252	1	MQQM	306	2	spielen	559	0	0	0	0	0	0	0	0	0	0	0	0	0	0	0	0	0	0	0	0	0	0	0	0	0	0	0	0	0	0	0	0	0	0	0	0	0	0	0
081219	16:01:04	16:09:45	520599	5.0.10.0	5_exp_noRW	96	Rpleas_acq	CS_B	JXXJ	MQQM	YDDY	VKKV	BZZB	GWWG	schön	retten	fair	treu	spielen	ehrlich	schlecht	rächen	faul	tot	strafen	eitel	53pct	acq_USunple_CSunple1_noRW	acq23456_noRW	3	65	0	0	300	300	768	46	0	1	1	blank2r.bmp	0	1	+	0	1	blank2r.bmp	252	1	YDDY	306	3	faul	559	0	0	0	0	0	0	0	0	0	0	0	0	0	0	0	0	0	0	0	0	0	0	0	0	0	0	0	0	0	0	0	0	0	0	0	0	0	0	0
081219	16:01:04	16:09:47	522452	5.0.10.0	5_exp_noRW	96	Rpleas_acq	CS_B	JXXJ	MQQM	YDDY	VKKV	BZZB	GWWG	schön	retten	fair	treu	spielen	ehrlich	schlecht	rächen	faul	tot	strafen	eitel	47pct	acq_USpleas_CSunple1_noRW	acq23456_noRW	3	66	0	0	300	300	689	50	0	1	1	blank2r.bmp	0	1	+	0	1	blank2r.bmp	252	1	YDDY	306	2	retten	559	0	0	0	0	0	0	0	0	0	0	0	0	0	0	0	0	0	0	0	0	0	0	0	0	0	0	0	0	0	0	0	0	0	0	0	0	0	0	0
081219	16:01:04	16:09:48	524251	5.0.10.0	5_exp_noRW	96	Rpleas_acq	CS_B	JXXJ	MQQM	YDDY	VKKV	BZZB	GWWG	schön	retten	fair	treu	spielen	ehrlich	schlecht	rächen	faul	tot	strafen	eitel	47pct	acq_USpleas_CSpleas2_noRW	acq23456_noRW	3	67	0	0	300	300	619	50	0	1	1	blank2r.bmp	0	1	+	0	1	blank2r.bmp	252	1	MQQM	306	1	treu	559	0	0	0	0	0	0	0	0	0	0	0	0	0	0	0	0	0	0	0	0	0	0	0	0	0	0	0	0	0	0	0	0	0	0	0	0	0	0	0
081219	16:01:04	16:09:51	526397	5.0.10.0	5_exp_noRW	96	Rpleas_acq	CS_B	JXXJ	MQQM	YDDY	VKKV	BZZB	GWWG	schön	retten	fair	treu	spielen	ehrlich	schlecht	rächen	faul	tot	strafen	eitel	47pct	acq_USpleas_CSunple2_noRW	acq23456_noRW	3	68	0	0	300	300	976	50	0	1	1	blank2r.bmp	0	1	+	0	1	blank2r.bmp	252	1	VKKV	306	1	treu	559	0	0	0	0	0	0	0	0	0	0	0	0	0	0	0	0	0	0	0	0	0	0	0	0	0	0	0	0	0	0	0	0	0	0	0	0	0	0	0
081219	16:01:04	16:09:52	528143	5.0.10.0	5_exp_noRW	96	Rpleas_acq	CS_B	JXXJ	MQQM	YDDY	VKKV	BZZB	GWWG	schön	retten	fair	treu	spielen	ehrlich	schlecht	rächen	faul	tot	strafen	eitel	47pct	acq_USunple_CSunple1_noRW	acq23456_noRW	3	69	0	0	300	300	568	46	0	1	1	blank2r.bmp	0	1	+	0	1	blank2r.bmp	252	1	YDDY	306	3	faul	559	0	0	0	0	0	0	0	0	0	0	0	0	0	0	0	0	0	0	0	0	0	0	0	0	0	0	0	0	0	0	0	0	0	0	0	0	0	0	0
081219	16:01:04	16:09:54	529929	5.0.10.0	5_exp_noRW	96	Rpleas_acq	CS_B	JXXJ	MQQM	YDDY	VKKV	BZZB	GWWG	schön	retten	fair	treu	spielen	ehrlich	schlecht	rächen	faul	tot	strafen	eitel	53pct	acq_USunple_CSunple1_noRW	acq23456_noRW	3	70	0	0	300	300	601	46	0	1	1	blank2r.bmp	0	1	+	0	1	blank2r.bmp	252	1	YDDY	306	2	rächen	559	0	0	0	0	0	0	0	0	0	0	0	0	0	0	0	0	0	0	0	0	0	0	0	0	0	0	0	0	0	0	0	0	0	0	0	0	0	0	0
081219	16:01:04	16:09:56	531875	5.0.10.0	5_exp_noRW	96	Rpleas_acq	CS_B	JXXJ	MQQM	YDDY	VKKV	BZZB	GWWG	schön	retten	fair	treu	spielen	ehrlich	schlecht	rächen	faul	tot	strafen	eitel	47pct	acq_USunple_CSunple2_noRW	acq23456_noRW	3	71	0	0	300	300	783	46	0	1	1	blank2r.bmp	0	1	+	0	1	blank2r.bmp	252	1	VKKV	306	1	tot	559	0	0	0	0	0	0	0	0	0	0	0	0	0	0	0	0	0	0	0	0	0	0	0	0	0	0	0	0	0	0	0	0	0	0	0	0	0	0	0
081219	16:01:04	16:09:58	533647	5.0.10.0	5_exp_noRW	96	Rpleas_acq	CS_B	JXXJ	MQQM	YDDY	VKKV	BZZB	GWWG	schön	retten	fair	treu	spielen	ehrlich	schlecht	rächen	faul	tot	strafen	eitel	47pct	acq_USunple_CSunple2_noRW	acq23456_noRW	3	72	0	0	300	300	593	46	0	1	1	blank2r.bmp	0	1	+	0	1	blank2r.bmp	252	1	VKKV	306	3	eitel	559	0	0	0	0	0	0	0	0	0	0	0	0	0	0	0	0	0	0	0	0	0	0	0	0	0	0	0	0	0	0	0	0	0	0	0	0	0	0	0
081219	16:01:04	16:10:00	535446	5.0.10.0	5_exp_noRW	96	Rpleas_acq	CS_B	JXXJ	MQQM	YDDY	VKKV	BZZB	GWWG	schön	retten	fair	treu	spielen	ehrlich	schlecht	rächen	faul	tot	strafen	eitel	53pct	acq_USunple_CSunple2_noRW	acq23456_noRW	3	73	0	0	300	300	615	46	0	1	1	blank2r.bmp	0	1	+	0	1	blank2r.bmp	252	1	VKKV	306	2	strafen	559	0	0	0	0	0	0	0	0	0	0	0	0	0	0	0	0	0	0	0	0	0	0	0	0	0	0	0	0	0	0	0	0	0	0	0	0	0	0	0
081219	16:01:04	16:10:02	537446	5.0.10.0	5_exp_noRW	96	Rpleas_acq	CS_B	JXXJ	MQQM	YDDY	VKKV	BZZB	GWWG	schön	retten	fair	treu	spielen	ehrlich	schlecht	rächen	faul	tot	strafen	eitel	47pct	acq_USpleas_CSpleas1_noRW	acq23456_noRW	3	74	0	0	300	300	822	50	0	1	1	blank2r.bmp	0	1	+	0	1	blank2r.bmp	252	1	JXXJ	306	2	retten	559	0	0	0	0	0	0	0	0	0	0	0	0	0	0	0	0	0	0	0	0	0	0	0	0	0	0	0	0	0	0	0	0	0	0	0	0	0	0	0
081219	16:01:04	16:10:03	539258	5.0.10.0	5_exp_noRW	96	Rpleas_acq	CS_B	JXXJ	MQQM	YDDY	VKKV	BZZB	GWWG	schön	retten	fair	treu	spielen	ehrlich	schlecht	rächen	faul	tot	strafen	eitel	47pct	acq_USpleas_CSpleas2_noRW	acq23456_noRW	3	75	0	0	300	300	645	50	0	1	1	blank2r.bmp	0	1	+	0	1	blank2r.bmp	252	1	MQQM	306	3	ehrlich	559	0	0	0	0	0	0	0	0	0	0	0	0	0	0	0	0	0	0	0	0	0	0	0	0	0	0	0	0	0	0	0	0	0	0	0	0	0	0	0
081219	16:01:04	16:10:05	541124	5.0.10.0	5_exp_noRW	96	Rpleas_acq	CS_B	JXXJ	MQQM	YDDY	VKKV	BZZB	GWWG	schön	retten	fair	treu	spielen	ehrlich	schlecht	rächen	faul	tot	strafen	eitel	47pct	acq_USunple_CSpleas2_noRW	acq23456_noRW	3	76	0	0	300	300	491	50	0	0	1	blank2r.bmp	0	1	+	0	1	blank2r.bmp	252	1	MQQM	306	3	eitel	559	1	FEHLER	1079	0	0	0	0	0	0	0	0	0	0	0	0	0	0	0	0	0	0	0	0	0	0	0	0	0	0	0	0	0	0	0	0	0	0	0	0
081219	16:01:04	16:10:07	542683	5.0.10.0	5_exp_noRW	96	Rpleas_acq	CS_B	JXXJ	MQQM	YDDY	VKKV	BZZB	GWWG	schön	retten	fair	treu	spielen	ehrlich	schlecht	rächen	faul	tot	strafen	eitel	53pct	acq_USunple_CSpleas1_noRW	acq23456_noRW	3	77	0	0	300	300	593	46	0	1	1	blank2r.bmp	0	1	+	0	1	blank2r.bmp	252	1	JXXJ	306	2	rächen	559	0	0	0	0	0	0	0	0	0	0	0	0	0	0	0	0	0	0	0	0	0	0	0	0	0	0	0	0	0	0	0	0	0	0	0	0	0	0	0
081219	16:01:04	16:10:09	544763	5.0.10.0	5_exp_noRW	96	Rpleas_acq	CS_B	JXXJ	MQQM	YDDY	VKKV	BZZB	GWWG	schön	retten	fair	treu	spielen	ehrlich	schlecht	rächen	faul	tot	strafen	eitel	53pct	acq_USpleas_CSpleas1_noRW	acq23456_noRW	3	78	0	0	300	300	898	50	0	1	1	blank2r.bmp	0	1	+	0	1	blank2r.bmp	252	1	JXXJ	306	3	fair	559	0	0	0	0	0	0	0	0	0	0	0	0	0	0	0	0	0	0	0	0	0	0	0	0	0	0	0	0	0	0	0	0	0	0	0	0	0	0	0
081219	16:01:04	16:10:11	546602	5.0.10.0	5_exp_noRW	96	Rpleas_acq	CS_B	JXXJ	MQQM	YDDY	VKKV	BZZB	GWWG	schön	retten	fair	treu	spielen	ehrlich	schlecht	rächen	faul	tot	strafen	eitel	47pct	acq_USpleas_CSpleas1_noRW	acq23456_noRW	3	79	0	0	300	300	676	50	0	1	1	blank2r.bmp	0	1	+	0	1	blank2r.bmp	252	1	JXXJ	306	1	schön	559	0	0	0	0	0	0	0	0	0	0	0	0	0	0	0	0	0	0	0	0	0	0	0	0	0	0	0	0	0	0	0	0	0	0	0	0	0	0	0
081219	16:01:04	16:10:13	548468	5.0.10.0	5_exp_noRW	96	Rpleas_acq	CS_B	JXXJ	MQQM	YDDY	VKKV	BZZB	GWWG	schön	retten	fair	treu	spielen	ehrlich	schlecht	rächen	faul	tot	strafen	eitel	47pct	acq_USunple_CSunple1_noRW	acq23456_noRW	3	80	0	0	300	300	688	46	0	1	1	blank2r.bmp	0	1	+	0	1	blank2r.bmp	252	1	YDDY	306	1	schlecht	559	0	0	0	0	0	0	0	0	0	0	0	0	0	0	0	0	0	0	0	0	0	0	0	0	0	0	0	0	0	0	0	0	0	0	0	0	0	0	0
081219	16:01:04	16:10:23	558490	5.0.10.0	5_exp_noRW	96	Rpleas_acq	CS_B	JXXJ	MQQM	YDDY	VKKV	BZZB	GWWG	schön	retten	fair	treu	spielen	ehrlich	schlecht	rächen	faul	tot	strafen	eitel	47pct	acq_USpleas_CSpleas1_noRW	acq23456_noRW	4	1	0	0	300	300	581	50	0	1	1	blank2r.bmp	0	1	+	0	1	blank2r.bmp	252	1	JXXJ	306	1	schön	559	0	0	0	0	0	0	0	0	0	0	0	0	0	0	0	0	0	0	0	0	0	0	0	0	0	0	0	0	0	0	0	0	0	0	0	0	0	0	0
081219	16:01:04	16:10:25	560823	5.0.10.0	5_exp_noRW	96	Rpleas_acq	CS_B	JXXJ	MQQM	YDDY	VKKV	BZZB	GWWG	schön	retten	fair	treu	spielen	ehrlich	schlecht	rächen	faul	tot	strafen	eitel	47pct	acq_USunple_CSunple1_noRW	acq23456_noRW	4	2	0	0	300	300	1160	46	0	1	1	blank2r.bmp	0	1	+	0	1	blank2r.bmp	252	1	YDDY	306	1	schlecht	559	0	0	0	0	0	0	0	0	0	0	0	0	0	0	0	0	0	0	0	0	0	0	0	0	0	0	0	0	0	0	0	0	0	0	0	0	0	0	0
081219	16:01:04	16:10:28	563342	5.0.10.0	5_exp_noRW	96	Rpleas_acq	CS_B	JXXJ	MQQM	YDDY	VKKV	BZZB	GWWG	schön	retten	fair	treu	spielen	ehrlich	schlecht	rächen	faul	tot	strafen	eitel	47pct	acq_USunple_CSunple1_noRW	acq23456_noRW	4	3	0	0	300	300	1353	46	0	1	1	blank2r.bmp	0	1	+	0	1	blank2r.bmp	252	1	YDDY	306	3	faul	559	0	0	0	0	0	0	0	0	0	0	0	0	0	0	0	0	0	0	0	0	0	0	0	0	0	0	0	0	0	0	0	0	0	0	0	0	0	0	0
081219	16:01:04	16:10:29	565181	5.0.10.0	5_exp_noRW	96	Rpleas_acq	CS_B	JXXJ	MQQM	YDDY	VKKV	BZZB	GWWG	schön	retten	fair	treu	spielen	ehrlich	schlecht	rächen	faul	tot	strafen	eitel	47pct	acq_USpleas_CSunple2_noRW	acq23456_noRW	4	4	0	0	300	300	676	50	0	1	1	blank2r.bmp	0	1	+	0	1	blank2r.bmp	252	1	VKKV	306	1	treu	559	0	0	0	0	0	0	0	0	0	0	0	0	0	0	0	0	0	0	0	0	0	0	0	0	0	0	0	0	0	0	0	0	0	0	0	0	0	0	0
081219	16:01:04	16:10:31	567007	5.0.10.0	5_exp_noRW	96	Rpleas_acq	CS_B	JXXJ	MQQM	YDDY	VKKV	BZZB	GWWG	schön	retten	fair	treu	spielen	ehrlich	schlecht	rächen	faul	tot	strafen	eitel	53pct	acq_USpleas_CSpleas2_noRW	acq23456_noRW	4	5	0	0	300	300	648	50	0	1	1	blank2r.bmp	0	1	+	0	1	blank2r.bmp	252	1	MQQM	306	1	treu	559	0	0	0	0	0	0	0	0	0	0	0	0	0	0	0	0	0	0	0	0	0	0	0	0	0	0	0	0	0	0	0	0	0	0	0	0	0	0	0
081219	16:01:04	16:10:33	568739	5.0.10.0	5_exp_noRW	96	Rpleas_acq	CS_B	JXXJ	MQQM	YDDY	VKKV	BZZB	GWWG	schön	retten	fair	treu	spielen	ehrlich	schlecht	rächen	faul	tot	strafen	eitel	53pct	acq_USunple_CSunple2_noRW	acq23456_noRW	4	6	0	0	300	300	553	46	0	1	1	blank2r.bmp	0	1	+	0	1	blank2r.bmp	252	1	VKKV	306	2	strafen	559	0	0	0	0	0	0	0	0	0	0	0	0	0	0	0	0	0	0	0	0	0	0	0	0	0	0	0	0	0	0	0	0	0	0	0	0	0	0	0
081219	16:01:04	16:10:35	570419	5.0.10.0	5_exp_noRW	96	Rpleas_acq	CS_B	JXXJ	MQQM	YDDY	VKKV	BZZB	GWWG	schön	retten	fair	treu	spielen	ehrlich	schlecht	rächen	faul	tot	strafen	eitel	53pct	acq_USunple_CSunple2_noRW	acq23456_noRW	4	7	0	0	300	300	515	46	0	1	1	blank2r.bmp	0	1	+	0	1	blank2r.bmp	252	1	VKKV	306	1	tot	559	0	0	0	0	0	0	0	0	0	0	0	0	0	0	0	0	0	0	0	0	0	0	0	0	0	0	0	0	0	0	0	0	0	0	0	0	0	0	0
081219	16:01:04	16:10:36	572125	5.0.10.0	5_exp_noRW	96	Rpleas_acq	CS_B	JXXJ	MQQM	YDDY	VKKV	BZZB	GWWG	schön	retten	fair	treu	spielen	ehrlich	schlecht	rächen	faul	tot	strafen	eitel	47pct	acq_USunple_CSunple2_noRW	acq23456_noRW	4	8	0	0	300	300	526	46	0	1	1	blank2r.bmp	0	1	+	0	1	blank2r.bmp	252	1	VKKV	306	3	eitel	559	0	0	0	0	0	0	0	0	0	0	0	0	0	0	0	0	0	0	0	0	0	0	0	0	0	0	0	0	0	0	0	0	0	0	0	0	0	0	0
081219	16:01:04	16:10:38	574017	5.0.10.0	5_exp_noRW	96	Rpleas_acq	CS_B	JXXJ	MQQM	YDDY	VKKV	BZZB	GWWG	schön	retten	fair	treu	spielen	ehrlich	schlecht	rächen	faul	tot	strafen	eitel	47pct	acq_USunple_CSunple1_noRW	acq23456_noRW	4	9	0	0	300	300	727	46	0	1	1	blank2r.bmp	0	1	+	0	1	blank2r.bmp	252	1	YDDY	306	2	rächen	559	0	0	0	0	0	0	0	0	0	0	0	0	0	0	0	0	0	0	0	0	0	0	0	0	0	0	0	0	0	0	0	0	0	0	0	0	0	0	0
