date	time	script.currenttime	script.elapsedtime	build	script.currentexpt	subject	expressions.LRpleas_acq	expressions.conditionCS_A	expressions.CSpleas_1	expressions.CSpleas_2	expressions.CSunple_1	expressions.CSunple_2	expressions.distractor_1	expressions.distractor_2	expressions.US_pleas1	expressions.US_pleas2	expressions.US_pleas3	expressions.US_pleas4	expressions.US_pleas5	expressions.US_pleas6	expressions.US_unple1	expressions.US_unple2	expressions.US_unple3	expressions.US_unple4	expressions.US_unple5	expressions.US_unple6	counter.positions_noRW	trialcode	blockcode	blocknum	trialnum	windowcenter	inwindow	pretrialpause	posttrialpause	latency	response	expressions.correctedscore	correct	stimulusnumber1	stimulusitem1	stimulusonset1	stimulusnumber2	stimulusitem2	stimulusonset2	stimulusnumber3	stimulusitem3	stimulusonset3	stimulusnumber4	stimulusitem4	stimulusonset4	stimulusnumber5	stimulusitem5	stimulusonset5	stimulusnumber6	stimulusitem6	stimulusonset6	stimulusnumber7	stimulusitem7	stimulusonset7	stimulusnumber8	stimulusitem8	stimulusonset8	stimulusnumber9	stimulusitem9	stimulusonset9	stimulusnumber10	stimulusitem10	stimulusonset10	stimulusnumber11	stimulusitem11	stimulusonset11	stimulusnumber12	stimulusitem12	stimulusonset12	stimulusnumber13	stimulusitem13	stimulusonset13	stimulusnumber14	stimulusitem14	stimulusonset14	stimulusnumber15	stimulusitem15	stimulusonset15	stimulusnumber16	stimulusitem16	stimulusonset16	stimulusnumber17	stimulusitem17	stimulusonset17	stimulusnumber18	stimulusitem18	stimulusonset18
070819	15:38:54	15:40:59	122532	5.0.10.0	5_exp_RW	21	Rpleas_acq	CS_B	GWWG	JXXJ	YDDY	BZZB	MQQM	VKKV	ehrlich	treu	fair	spielen	schön	retten	eitel	tot	faul	strafen	schlecht	rächen	1	acq_USpleas_CSpleas1_RW	acq1_RW	1	1	0	0	300	300	1681	50	0	1	1	blank2r.bmp	0	1	+	0	1	blank2r.bmp	492	1	GWWG	492	1	blank2r.bmp	572	2	treu	866	0	0	0	0	0	0	0	0	0	0	0	0	0	0	0	0	0	0	0	0	0	0	0	0	0	0	0	0	0	0	0	0	0	0	0	0
070819	15:38:54	15:41:01	124851	5.0.10.0	5_exp_RW	21	Rpleas_acq	CS_B	GWWG	JXXJ	YDDY	BZZB	MQQM	VKKV	ehrlich	treu	fair	spielen	schön	retten	eitel	tot	faul	strafen	schlecht	rächen	1	acq_USpleas_CSpleas2_RW	acq1_RW	1	2	0	0	300	300	825	50	0	1	1	blank2r.bmp	0	1	+	0	1	blank2r.bmp	492	1	JXXJ	492	1	blank2r.bmp	572	1	spielen	866	0	0	0	0	0	0	0	0	0	0	0	0	0	0	0	0	0	0	0	0	0	0	0	0	0	0	0	0	0	0	0	0	0	0	0	0
070819	15:38:54	15:41:04	127250	5.0.10.0	5_exp_RW	21	Rpleas_acq	CS_B	GWWG	JXXJ	YDDY	BZZB	MQQM	VKKV	ehrlich	treu	fair	spielen	schön	retten	eitel	tot	faul	strafen	schlecht	rächen	1	acq_USunple_CSunple2_RW	acq1_RW	1	3	0	0	300	300	923	46	0	1	1	blank2r.bmp	0	1	+	0	1	blank2r.bmp	492	1	BZZB	492	1	blank2r.bmp	572	2	schlecht	866	0	0	0	0	0	0	0	0	0	0	0	0	0	0	0	0	0	0	0	0	0	0	0	0	0	0	0	0	0	0	0	0	0	0	0	0
070819	15:38:54	15:41:06	129383	5.0.10.0	5_exp_RW	21	Rpleas_acq	CS_B	GWWG	JXXJ	YDDY	BZZB	MQQM	VKKV	ehrlich	treu	fair	spielen	schön	retten	eitel	tot	faul	strafen	schlecht	rächen	1	acq_USpleas_CSpleas1_RW	acq1_RW	1	4	0	0	300	300	655	50	0	1	1	blank2r.bmp	0	1	+	0	1	blank2r.bmp	492	1	GWWG	492	1	blank2r.bmp	572	1	ehrlich	866	0	0	0	0	0	0	0	0	0	0	0	0	0	0	0	0	0	0	0	0	0	0	0	0	0	0	0	0	0	0	0	0	0	0	0	0
070819	15:38:54	15:41:08	131915	5.0.10.0	5_exp_RW	21	Rpleas_acq	CS_B	GWWG	JXXJ	YDDY	BZZB	MQQM	VKKV	ehrlich	treu	fair	spielen	schön	retten	eitel	tot	faul	strafen	schlecht	rächen	1	acq_USunple_CSunple2_RW	acq1_RW	1	5	0	0	300	300	1054	46	0	1	1	blank2r.bmp	0	1	+	0	1	blank2r.bmp	492	1	BZZB	492	1	blank2r.bmp	572	1	strafen	866	0	0	0	0	0	0	0	0	0	0	0	0	0	0	0	0	0	0	0	0	0	0	0	0	0	0	0	0	0	0	0	0	0	0	0	0
070819	15:38:54	15:41:11	134274	5.0.10.0	5_exp_RW	21	Rpleas_acq	CS_B	GWWG	JXXJ	YDDY	BZZB	MQQM	VKKV	ehrlich	treu	fair	spielen	schön	retten	eitel	tot	faul	strafen	schlecht	rächen	1	acq_USunple_CSunple2_RW	acq1_RW	1	6	0	0	300	300	889	46	0	1	1	blank2r.bmp	0	1	+	0	1	blank2r.bmp	492	1	BZZB	492	1	blank2r.bmp	572	3	rächen	866	0	0	0	0	0	0	0	0	0	0	0	0	0	0	0	0	0	0	0	0	0	0	0	0	0	0	0	0	0	0	0	0	0	0	0	0
070819	15:38:54	15:41:13	136300	5.0.10.0	5_exp_RW	21	Rpleas_acq	CS_B	GWWG	JXXJ	YDDY	BZZB	MQQM	VKKV	ehrlich	treu	fair	spielen	schön	retten	eitel	tot	faul	strafen	schlecht	rächen	1	acq_USpleas_CSpleas2_RW	acq1_RW	1	7	0	0	300	300	539	50	0	1	1	blank2r.bmp	0	1	+	0	1	blank2r.bmp	492	1	JXXJ	492	1	blank2r.bmp	572	3	retten	866	0	0	0	0	0	0	0	0	0	0	0	0	0	0	0	0	0	0	0	0	0	0	0	0	0	0	0	0	0	0	0	0	0	0	0	0
070819	15:38:54	15:41:15	138392	5.0.10.0	5_exp_RW	21	Rpleas_acq	CS_B	GWWG	JXXJ	YDDY	BZZB	MQQM	VKKV	ehrlich	treu	fair	spielen	schön	retten	eitel	tot	faul	strafen	schlecht	rächen	1	acq_USunple_CSunple1_RW	acq1_RW	1	8	0	0	300	300	607	46	0	1	1	blank2r.bmp	0	1	+	0	1	blank2r.bmp	492	1	YDDY	492	1	blank2r.bmp	572	1	eitel	866	0	0	0	0	0	0	0	0	0	0	0	0	0	0	0	0	0	0	0	0	0	0	0	0	0	0	0	0	0	0	0	0	0	0	0	0
070819	15:38:54	15:41:17	140578	5.0.10.0	5_exp_RW	21	Rpleas_acq	CS_B	GWWG	JXXJ	YDDY	BZZB	MQQM	VKKV	ehrlich	treu	fair	spielen	schön	retten	eitel	tot	faul	strafen	schlecht	rächen	1	acq_USunple_CSunple1_RW	acq1_RW	1	9	0	0	300	300	700	46	0	1	1	blank2r.bmp	0	1	+	0	1	blank2r.bmp	492	1	YDDY	492	1	blank2r.bmp	572	3	faul	866	0	0	0	0	0	0	0	0	0	0	0	0	0	0	0	0	0	0	0	0	0	0	0	0	0	0	0	0	0	0	0	0	0	0	0	0
070819	15:38:54	15:41:19	142630	5.0.10.0	5_exp_RW	21	Rpleas_acq	CS_B	GWWG	JXXJ	YDDY	BZZB	MQQM	VKKV	ehrlich	treu	fair	spielen	schön	retten	eitel	tot	faul	strafen	schlecht	rächen	1	acq_USpleas_CSpleas1_RW	acq1_RW	1	10	0	0	300	300	560	50	0	1	1	blank2r.bmp	0	1	+	0	1	blank2r.bmp	492	1	GWWG	492	1	blank2r.bmp	572	3	fair	866	0	0	0	0	0	0	0	0	0	0	0	0	0	0	0	0	0	0	0	0	0	0	0	0	0	0	0	0	0	0	0	0	0	0	0	0
070819	15:38:54	15:41:21	144696	5.0.10.0	5_exp_RW	21	Rpleas_acq	CS_B	GWWG	JXXJ	YDDY	BZZB	MQQM	VKKV	ehrlich	treu	fair	spielen	schön	retten	eitel	tot	faul	strafen	schlecht	rächen	1	acq_USunple_CSunple1_RW	acq1_RW	1	11	0	0	300	300	591	46	0	1	1	blank2r.bmp	0	1	+	0	1	blank2r.bmp	492	1	YDDY	492	1	blank2r.bmp	572	2	tot	866	0	0	0	0	0	0	0	0	0	0	0	0	0	0	0	0	0	0	0	0	0	0	0	0	0	0	0	0	0	0	0	0	0	0	0	0
070819	15:38:54	15:41:23	146789	5.0.10.0	5_exp_RW	21	Rpleas_acq	CS_B	GWWG	JXXJ	YDDY	BZZB	MQQM	VKKV	ehrlich	treu	fair	spielen	schön	retten	eitel	tot	faul	strafen	schlecht	rächen	1	acq_USunple_CSunple2_RW	acq1_RW	1	12	0	0	300	300	603	46	0	1	1	blank2r.bmp	0	1	+	0	1	blank2r.bmp	492	1	BZZB	492	1	blank2r.bmp	572	1	strafen	866	0	0	0	0	0	0	0	0	0	0	0	0	0	0	0	0	0	0	0	0	0	0	0	0	0	0	0	0	0	0	0	0	0	0	0	0
070819	15:38:54	15:41:25	148868	5.0.10.0	5_exp_RW	21	Rpleas_acq	CS_B	GWWG	JXXJ	YDDY	BZZB	MQQM	VKKV	ehrlich	treu	fair	spielen	schön	retten	eitel	tot	faul	strafen	schlecht	rächen	1	acq_USpleas_CSpleas2_RW	acq1_RW	1	13	0	0	300	300	593	50	0	1	1	blank2r.bmp	0	1	+	0	1	blank2r.bmp	492	1	JXXJ	492	1	blank2r.bmp	572	2	schön	866	0	0	0	0	0	0	0	0	0	0	0	0	0	0	0	0	0	0	0	0	0	0	0	0	0	0	0	0	0	0	0	0	0	0	0	0
070819	15:38:54	15:41:27	151133	5.0.10.0	5_exp_RW	21	Rpleas_acq	CS_B	GWWG	JXXJ	YDDY	BZZB	MQQM	VKKV	ehrlich	treu	fair	spielen	schön	retten	eitel	tot	faul	strafen	schlecht	rächen	1	acq_USpleas_CSpleas1_RW	acq1_RW	1	14	0	0	300	300	793	50	0	1	1	blank2r.bmp	0	1	+	0	1	blank2r.bmp	492	1	GWWG	492	1	blank2r.bmp	572	2	treu	866	0	0	0	0	0	0	0	0	0	0	0	0	0	0	0	0	0	0	0	0	0	0	0	0	0	0	0	0	0	0	0	0	0	0	0	0
070819	15:38:54	15:41:29	153106	5.0.10.0	5_exp_RW	21	Rpleas_acq	CS_B	GWWG	JXXJ	YDDY	BZZB	MQQM	VKKV	ehrlich	treu	fair	spielen	schön	retten	eitel	tot	faul	strafen	schlecht	rächen	1	acq_USpleas_CSpleas2_RW	acq1_RW	1	15	0	0	300	300	486	50	0	1	1	blank2r.bmp	0	1	+	0	1	blank2r.bmp	492	1	JXXJ	492	1	blank2r.bmp	572	2	schön	866	0	0	0	0	0	0	0	0	0	0	0	0	0	0	0	0	0	0	0	0	0	0	0	0	0	0	0	0	0	0	0	0	0	0	0	0
070819	15:38:54	15:41:31	155078	5.0.10.0	5_exp_RW	21	Rpleas_acq	CS_B	GWWG	JXXJ	YDDY	BZZB	MQQM	VKKV	ehrlich	treu	fair	spielen	schön	retten	eitel	tot	faul	strafen	schlecht	rächen	1	acq_USunple_CSunple1_RW	acq1_RW	1	16	0	0	300	300	490	46	0	1	1	blank2r.bmp	0	1	+	0	1	blank2r.bmp	492	1	YDDY	492	1	blank2r.bmp	572	2	tot	866	0	0	0	0	0	0	0	0	0	0	0	0	0	0	0	0	0	0	0	0	0	0	0	0	0	0	0	0	0	0	0	0	0	0	0	0
070819	15:38:54	15:42:24	207695	5.0.10.0	5_exp_RW	21	Rpleas_acq	CS_B	GWWG	JXXJ	YDDY	BZZB	MQQM	VKKV	ehrlich	treu	fair	spielen	schön	retten	eitel	tot	faul	strafen	schlecht	rächen	1	acq_USunple_CSunple1_RW	acq2_RW	2	1	480	0	300	300	5492	50	0	0	1	blank2r.bmp	0	1	+	0	1	blank2r.bmp	492	1	YDDY	492	1	blank2r.bmp	572	1	eitel	866	1	FEHLER	6703	1	!	1319	1	!	-1	0	0	0	0	0	0	0	0	0	0	0	0	0	0	0	0	0	0	0	0	0	0	0	0	0	0	0
070819	15:38:54	15:42:26	209828	5.0.10.0	5_exp_RW	21	Rpleas_acq	CS_B	GWWG	JXXJ	YDDY	BZZB	MQQM	VKKV	ehrlich	treu	fair	spielen	schön	retten	eitel	tot	faul	strafen	schlecht	rächen	1	acq_USunple_CSunple1_RW	acq2_RW	2	2	480	0	300	300	579	46	0	1	1	blank2r.bmp	0	1	+	0	1	blank2r.bmp	492	1	YDDY	492	1	blank2r.bmp	572	3	faul	866	1	!	1319	1	!	-1	0	0	0	0	0	0	0	0	0	0	0	0	0	0	0	0	0	0	0	0	0	0	0	0	0	0	0	0	0	0
070819	15:38:54	15:42:29	212160	5.0.10.0	5_exp_RW	21	Rpleas_acq	CS_B	GWWG	JXXJ	YDDY	BZZB	MQQM	VKKV	ehrlich	treu	fair	spielen	schön	retten	eitel	tot	faul	strafen	schlecht	rächen	1	acq_USunple_CSunple2_RW	acq2_RW	2	3	480	1	300	300	510	46	0	1	1	blank2r.bmp	0	1	+	0	1	blank2r.bmp	492	1	BZZB	492	1	blank2r.bmp	572	2	schlecht	866	1	!	1319	1	!	1412	0	0	0	0	0	0	0	0	0	0	0	0	0	0	0	0	0	0	0	0	0	0	0	0	0	0	0	0	0	0
070819	15:38:54	15:42:31	214626	5.0.10.0	5_exp_RW	21	Rpleas_acq	CS_B	GWWG	JXXJ	YDDY	BZZB	MQQM	VKKV	ehrlich	treu	fair	spielen	schön	retten	eitel	tot	faul	strafen	schlecht	rächen	1	acq_USpleas_CSpleas1_RW	acq2_RW	2	4	480	0	300	300	696	50	0	1	1	blank2r.bmp	0	1	+	0	1	blank2r.bmp	492	1	GWWG	492	1	blank2r.bmp	572	1	ehrlich	866	1	!	1319	1	!	-1	0	0	0	0	0	0	0	0	0	0	0	0	0	0	0	0	0	0	0	0	0	0	0	0	0	0	0	0	0	0
070819	15:38:54	15:42:34	217198	5.0.10.0	5_exp_RW	21	Rpleas_acq	CS_B	GWWG	JXXJ	YDDY	BZZB	MQQM	VKKV	ehrlich	treu	fair	spielen	schön	retten	eitel	tot	faul	strafen	schlecht	rächen	1	acq_USpleas_CSpleas2_RW	acq2_RW	2	5	480	0	300	300	559	46	0	0	1	blank2r.bmp	0	1	+	0	1	blank2r.bmp	492	1	JXXJ	492	1	blank2r.bmp	572	3	retten	866	1	FEHLER	1772	1	!	1319	1	!	-1	0	0	0	0	0	0	0	0	0	0	0	0	0	0	0	0	0	0	0	0	0	0	0	0	0	0	0
070819	15:38:54	15:42:36	219317	5.0.10.0	5_exp_RW	21	Rpleas_acq	CS_B	GWWG	JXXJ	YDDY	BZZB	MQQM	VKKV	ehrlich	treu	fair	spielen	schön	retten	eitel	tot	faul	strafen	schlecht	rächen	1	acq_USpleas_CSpleas1_RW	acq2_RW	2	6	480	0	300	300	571	50	0	1	1	blank2r.bmp	0	1	+	0	1	blank2r.bmp	492	1	GWWG	492	1	blank2r.bmp	572	3	fair	866	1	!	1319	1	!	-1	0	0	0	0	0	0	0	0	0	0	0	0	0	0	0	0	0	0	0	0	0	0	0	0	0	0	0	0	0	0
070819	15:38:54	15:42:38	221836	5.0.10.0	5_exp_RW	21	Rpleas_acq	CS_B	GWWG	JXXJ	YDDY	BZZB	MQQM	VKKV	ehrlich	treu	fair	spielen	schön	retten	eitel	tot	faul	strafen	schlecht	rächen	1	acq_USpleas_CSpleas1_RW	acq2_RW	2	7	480	1	300	300	498	46	0	0	1	blank2r.bmp	0	1	+	0	1	blank2r.bmp	492	1	GWWG	492	1	blank2r.bmp	572	2	treu	866	1	FEHLER	1719	1	!	1319	1	!	1399	0	0	0	0	0	0	0	0	0	0	0	0	0	0	0	0	0	0	0	0	0	0	0	0	0	0	0
070819	15:38:54	15:42:40	224022	5.0.10.0	5_exp_RW	21	Rpleas_acq	CS_B	GWWG	JXXJ	YDDY	BZZB	MQQM	VKKV	ehrlich	treu	fair	spielen	schön	retten	eitel	tot	faul	strafen	schlecht	rächen	1	acq_USunple_CSunple2_RW	acq2_RW	2	8	480	0	300	300	631	46	0	1	1	blank2r.bmp	0	1	+	0	1	blank2r.bmp	492	1	BZZB	492	1	blank2r.bmp	572	3	rächen	866	1	!	1319	1	!	-1	0	0	0	0	0	0	0	0	0	0	0	0	0	0	0	0	0	0	0	0	0	0	0	0	0	0	0	0	0	0
070819	15:38:54	15:42:43	226367	5.0.10.0	5_exp_RW	21	Rpleas_acq	CS_B	GWWG	JXXJ	YDDY	BZZB	MQQM	VKKV	ehrlich	treu	fair	spielen	schön	retten	eitel	tot	faul	strafen	schlecht	rächen	1	acq_USpleas_CSpleas2_RW	acq2_RW	2	9	480	1	300	300	540	50	0	1	1	blank2r.bmp	0	1	+	0	1	blank2r.bmp	492	1	JXXJ	492	1	blank2r.bmp	572	1	spielen	866	1	!	1319	1	!	1439	0	0	0	0	0	0	0	0	0	0	0	0	0	0	0	0	0	0	0	0	0	0	0	0	0	0	0	0	0	0
070819	15:38:54	15:42:45	228700	5.0.10.0	5_exp_RW	21	Rpleas_acq	CS_B	GWWG	JXXJ	YDDY	BZZB	MQQM	VKKV	ehrlich	treu	fair	spielen	schön	retten	eitel	tot	faul	strafen	schlecht	rächen	1	acq_USpleas_CSpleas2_RW	acq2_RW	2	10	480	1	300	300	538	50	0	1	1	blank2r.bmp	0	1	+	0	1	blank2r.bmp	492	1	JXXJ	492	1	blank2r.bmp	572	2	schön	866	1	!	1319	1	!	1439	0	0	0	0	0	0	0	0	0	0	0	0	0	0	0	0	0	0	0	0	0	0	0	0	0	0	0	0	0	0
070819	15:38:54	15:42:47	231005	5.0.10.0	5_exp_RW	21	Rpleas_acq	CS_B	GWWG	JXXJ	YDDY	BZZB	MQQM	VKKV	ehrlich	treu	fair	spielen	schön	retten	eitel	tot	faul	strafen	schlecht	rächen	1	acq_USpleas_CSpleas1_RW	acq2_RW	2	11	480	1	300	300	513	50	0	1	1	blank2r.bmp	0	1	+	0	1	blank2r.bmp	492	1	GWWG	492	1	blank2r.bmp	572	3	fair	866	1	!	1319	1	!	1412	0	0	0	0	0	0	0	0	0	0	0	0	0	0	0	0	0	0	0	0	0	0	0	0	0	0	0	0	0	0
070819	15:38:54	15:42:50	233378	5.0.10.0	5_exp_RW	21	Rpleas_acq	CS_B	GWWG	JXXJ	YDDY	BZZB	MQQM	VKKV	ehrlich	treu	fair	spielen	schön	retten	eitel	tot	faul	strafen	schlecht	rächen	1	acq_USunple_CSunple1_RW	acq2_RW	2	12	480	0	300	300	604	46	0	1	1	blank2r.bmp	0	1	+	0	1	blank2r.bmp	492	1	YDDY	492	1	blank2r.bmp	572	3	faul	866	1	!	1319	1	!	-1	0	0	0	0	0	0	0	0	0	0	0	0	0	0	0	0	0	0	0	0	0	0	0	0	0	0	0	0	0	0
070819	15:38:54	15:42:52	235630	5.0.10.0	5_exp_RW	21	Rpleas_acq	CS_B	GWWG	JXXJ	YDDY	BZZB	MQQM	VKKV	ehrlich	treu	fair	spielen	schön	retten	eitel	tot	faul	strafen	schlecht	rächen	1	acq_USpleas_CSpleas2_RW	acq2_RW	2	13	480	1	300	300	447	50	0	1	1	blank2r.bmp	0	1	+	0	1	blank2r.bmp	492	1	JXXJ	492	1	blank2r.bmp	572	1	spielen	866	1	!	1319	1	!	1346	0	0	0	0	0	0	0	0	0	0	0	0	0	0	0	0	0	0	0	0	0	0	0	0	0	0	0	0	0	0
070819	15:38:54	15:42:54	238056	5.0.10.0	5_exp_RW	21	Rpleas_acq	CS_B	GWWG	JXXJ	YDDY	BZZB	MQQM	VKKV	ehrlich	treu	fair	spielen	schön	retten	eitel	tot	faul	strafen	schlecht	rächen	1	acq_USpleas_CSpleas1_RW	acq2_RW	2	14	480	0	300	300	658	50	0	1	1	blank2r.bmp	0	1	+	0	1	blank2r.bmp	492	1	GWWG	492	1	blank2r.bmp	572	1	ehrlich	866	1	!	1319	1	!	-1	0	0	0	0	0	0	0	0	0	0	0	0	0	0	0	0	0	0	0	0	0	0	0	0	0	0	0	0	0	0
070819	15:38:54	15:42:57	240428	5.0.10.0	5_exp_RW	21	Rpleas_acq	CS_B	GWWG	JXXJ	YDDY	BZZB	MQQM	VKKV	ehrlich	treu	fair	spielen	schön	retten	eitel	tot	faul	strafen	schlecht	rächen	1	acq_USunple_CSunple2_RW	acq2_RW	2	15	480	0	300	300	585	46	0	1	1	blank2r.bmp	0	1	+	0	1	blank2r.bmp	492	1	BZZB	492	1	blank2r.bmp	572	3	rächen	866	1	!	1319	1	!	-1	0	0	0	0	0	0	0	0	0	0	0	0	0	0	0	0	0	0	0	0	0	0	0	0	0	0	0	0	0	0
070819	15:38:54	15:43:01	244626	5.0.10.0	5_exp_RW	21	Rpleas_acq	CS_B	GWWG	JXXJ	YDDY	BZZB	MQQM	VKKV	ehrlich	treu	fair	spielen	schön	retten	eitel	tot	faul	strafen	schlecht	rächen	1	acq_USunple_CSunple2_RW	acq2_RW	2	16	480	0	300	300	2185	50	0	0	1	blank2r.bmp	0	1	+	0	1	blank2r.bmp	492	1	BZZB	492	1	blank2r.bmp	572	2	schlecht	866	1	FEHLER	3398	1	!	1319	1	!	-1	0	0	0	0	0	0	0	0	0	0	0	0	0	0	0	0	0	0	0	0	0	0	0	0	0	0	0
070819	15:38:54	15:43:04	247905	5.0.10.0	5_exp_RW	21	Rpleas_acq	CS_B	GWWG	JXXJ	YDDY	BZZB	MQQM	VKKV	ehrlich	treu	fair	spielen	schön	retten	eitel	tot	faul	strafen	schlecht	rächen	1	acq_USunple_CSunple1_RW	acq2_RW	2	17	480	0	300	300	1493	50	0	0	1	blank2r.bmp	0	1	+	0	1	blank2r.bmp	492	1	YDDY	492	1	blank2r.bmp	572	2	tot	866	1	FEHLER	2705	1	!	1319	1	!	-1	0	0	0	0	0	0	0	0	0	0	0	0	0	0	0	0	0	0	0	0	0	0	0	0	0	0	0
070819	15:38:54	15:43:07	250890	5.0.10.0	5_exp_RW	21	Rpleas_acq	CS_B	GWWG	JXXJ	YDDY	BZZB	MQQM	VKKV	ehrlich	treu	fair	spielen	schön	retten	eitel	tot	faul	strafen	schlecht	rächen	1	acq_USunple_CSunple2_RW	acq2_RW	2	18	480	0	300	300	1204	50	0	0	1	blank2r.bmp	0	1	+	0	1	blank2r.bmp	492	1	BZZB	492	1	blank2r.bmp	572	1	strafen	866	1	FEHLER	2412	1	!	1319	1	!	-1	0	0	0	0	0	0	0	0	0	0	0	0	0	0	0	0	0	0	0	0	0	0	0	0	0	0	0
070819	15:38:54	15:43:09	252996	5.0.10.0	5_exp_RW	21	Rpleas_acq	CS_B	GWWG	JXXJ	YDDY	BZZB	MQQM	VKKV	ehrlich	treu	fair	spielen	schön	retten	eitel	tot	faul	strafen	schlecht	rächen	1	acq_USpleas_CSpleas1_RW	acq2_RW	2	19	480	1	300	300	519	50	0	1	1	blank2r.bmp	0	1	+	0	1	blank2r.bmp	492	1	GWWG	492	1	blank2r.bmp	572	1	ehrlich	866	1	!	1319	1	!	1426	0	0	0	0	0	0	0	0	0	0	0	0	0	0	0	0	0	0	0	0	0	0	0	0	0	0	0	0	0	0
070819	15:38:54	15:43:12	255435	5.0.10.0	5_exp_RW	21	Rpleas_acq	CS_B	GWWG	JXXJ	YDDY	BZZB	MQQM	VKKV	ehrlich	treu	fair	spielen	schön	retten	eitel	tot	faul	strafen	schlecht	rächen	1	acq_USpleas_CSpleas2_RW	acq2_RW	2	20	480	0	300	300	670	50	0	1	1	blank2r.bmp	0	1	+	0	1	blank2r.bmp	492	1	JXXJ	492	1	blank2r.bmp	572	3	retten	866	1	!	1319	1	!	-1	0	0	0	0	0	0	0	0	0	0	0	0	0	0	0	0	0	0	0	0	0	0	0	0	0	0	0	0	0	0
070819	15:38:54	15:43:14	257927	5.0.10.0	5_exp_RW	21	Rpleas_acq	CS_B	GWWG	JXXJ	YDDY	BZZB	MQQM	VKKV	ehrlich	treu	fair	spielen	schön	retten	eitel	tot	faul	strafen	schlecht	rächen	1	acq_USunple_CSunple1_RW	acq2_RW	2	21	480	1	300	300	475	50	0	0	1	blank2r.bmp	0	1	+	0	1	blank2r.bmp	492	1	YDDY	492	1	blank2r.bmp	572	1	eitel	866	1	FEHLER	1692	1	!	1319	1	!	1372	0	0	0	0	0	0	0	0	0	0	0	0	0	0	0	0	0	0	0	0	0	0	0	0	0	0	0
070819	15:38:54	15:43:17	260246	5.0.10.0	5_exp_RW	21	Rpleas_acq	CS_B	GWWG	JXXJ	YDDY	BZZB	MQQM	VKKV	ehrlich	treu	fair	spielen	schön	retten	eitel	tot	faul	strafen	schlecht	rächen	1	acq_USunple_CSunple1_RW	acq2_RW	2	22	480	1	300	300	531	50	0	0	1	blank2r.bmp	0	1	+	0	1	blank2r.bmp	492	1	YDDY	492	1	blank2r.bmp	572	3	faul	866	1	FEHLER	1745	1	!	1319	1	!	1426	0	0	0	0	0	0	0	0	0	0	0	0	0	0	0	0	0	0	0	0	0	0	0	0	0	0	0
070819	15:38:54	15:43:19	262365	5.0.10.0	5_exp_RW	21	Rpleas_acq	CS_B	GWWG	JXXJ	YDDY	BZZB	MQQM	VKKV	ehrlich	treu	fair	spielen	schön	retten	eitel	tot	faul	strafen	schlecht	rächen	1	acq_USpleas_CSpleas2_RW	acq2_RW	2	23	480	0	300	300	559	50	0	1	1	blank2r.bmp	0	1	+	0	1	blank2r.bmp	492	1	JXXJ	492	1	blank2r.bmp	572	3	retten	866	1	!	1319	1	!	-1	0	0	0	0	0	0	0	0	0	0	0	0	0	0	0	0	0	0	0	0	0	0	0	0	0	0	0	0	0	0
070819	15:38:54	15:43:21	264791	5.0.10.0	5_exp_RW	21	Rpleas_acq	CS_B	GWWG	JXXJ	YDDY	BZZB	MQQM	VKKV	ehrlich	treu	fair	spielen	schön	retten	eitel	tot	faul	strafen	schlecht	rächen	1	acq_USunple_CSunple2_RW	acq2_RW	2	24	480	0	300	300	644	46	0	1	1	blank2r.bmp	0	1	+	0	1	blank2r.bmp	492	1	BZZB	492	1	blank2r.bmp	572	1	strafen	866	1	!	1319	1	!	-1	0	0	0	0	0	0	0	0	0	0	0	0	0	0	0	0	0	0	0	0	0	0	0	0	0	0	0	0	0	0
070819	15:38:54	15:43:41	284555	5.0.10.0	5_exp_RW	21	Rpleas_acq	CS_B	GWWG	JXXJ	YDDY	BZZB	MQQM	VKKV	ehrlich	treu	fair	spielen	schön	retten	eitel	tot	faul	strafen	schlecht	rächen	1	acq_USunple_CSunple2_RW	acq3_RW	3	1	453	0	300	300	585	46	0	1	1	blank2r.bmp	0	1	+	0	1	blank2r.bmp	492	1	BZZB	492	1	blank2r.bmp	572	3	rächen	866	1	!	1292	1	!	-1	0	0	0	0	0	0	0	0	0	0	0	0	0	0	0	0	0	0	0	0	0	0	0	0	0	0	0	0	0	0
070819	15:38:54	15:43:43	286848	5.0.10.0	5_exp_RW	21	Rpleas_acq	CS_B	GWWG	JXXJ	YDDY	BZZB	MQQM	VKKV	ehrlich	treu	fair	spielen	schön	retten	eitel	tot	faul	strafen	schlecht	rächen	1	acq_USunple_CSunple1_RW	acq3_RW	3	2	453	1	300	300	488	46	0	1	1	blank2r.bmp	0	1	+	0	1	blank2r.bmp	492	1	YDDY	492	1	blank2r.bmp	572	2	tot	866	1	!	1292	1	!	1386	0	0	0	0	0	0	0	0	0	0	0	0	0	0	0	0	0	0	0	0	0	0	0	0	0	0	0	0	0	0
070819	15:38:54	15:43:45	289127	5.0.10.0	5_exp_RW	21	Rpleas_acq	CS_B	GWWG	JXXJ	YDDY	BZZB	MQQM	VKKV	ehrlich	treu	fair	spielen	schön	retten	eitel	tot	faul	strafen	schlecht	rächen	1	acq_USpleas_CSpleas1_RW	acq3_RW	3	3	453	1	300	300	485	50	0	1	1	blank2r.bmp	0	1	+	0	1	blank2r.bmp	492	1	GWWG	492	1	blank2r.bmp	572	3	fair	866	1	!	1292	1	!	1386	0	0	0	0	0	0	0	0	0	0	0	0	0	0	0	0	0	0	0	0	0	0	0	0	0	0	0	0	0	0
070819	15:38:54	15:43:48	291433	5.0.10.0	5_exp_RW	21	Rpleas_acq	CS_B	GWWG	JXXJ	YDDY	BZZB	MQQM	VKKV	ehrlich	treu	fair	spielen	schön	retten	eitel	tot	faul	strafen	schlecht	rächen	1	acq_USunple_CSunple2_RW	acq3_RW	3	4	453	0	300	300	532	46	0	1	1	blank2r.bmp	0	1	+	0	1	blank2r.bmp	492	1	BZZB	492	1	blank2r.bmp	572	2	schlecht	866	1	!	1292	1	!	-1	0	0	0	0	0	0	0	0	0	0	0	0	0	0	0	0	0	0	0	0	0	0	0	0	0	0	0	0	0	0
070819	15:38:54	15:43:50	293805	5.0.10.0	5_exp_RW	21	Rpleas_acq	CS_B	GWWG	JXXJ	YDDY	BZZB	MQQM	VKKV	ehrlich	treu	fair	spielen	schön	retten	eitel	tot	faul	strafen	schlecht	rächen	1	acq_USunple_CSunple2_RW	acq3_RW	3	5	453	0	300	300	591	46	0	1	1	blank2r.bmp	0	1	+	0	1	blank2r.bmp	492	1	BZZB	492	1	blank2r.bmp	572	3	rächen	866	1	!	1292	1	!	-1	0	0	0	0	0	0	0	0	0	0	0	0	0	0	0	0	0	0	0	0	0	0	0	0	0	0	0	0	0	0
070819	15:38:54	15:43:53	296324	5.0.10.0	5_exp_RW	21	Rpleas_acq	CS_B	GWWG	JXXJ	YDDY	BZZB	MQQM	VKKV	ehrlich	treu	fair	spielen	schön	retten	eitel	tot	faul	strafen	schlecht	rächen	1	acq_USunple_CSunple1_RW	acq3_RW	3	6	453	1	300	300	501	50	0	0	1	blank2r.bmp	0	1	+	0	1	blank2r.bmp	492	1	YDDY	492	1	blank2r.bmp	572	1	eitel	866	1	FEHLER	1719	1	!	1292	1	!	1399	0	0	0	0	0	0	0	0	0	0	0	0	0	0	0	0	0	0	0	0	0	0	0	0	0	0	0
070819	15:38:54	15:43:55	298416	5.0.10.0	5_exp_RW	21	Rpleas_acq	CS_B	GWWG	JXXJ	YDDY	BZZB	MQQM	VKKV	ehrlich	treu	fair	spielen	schön	retten	eitel	tot	faul	strafen	schlecht	rächen	1	acq_USunple_CSunple2_RW	acq3_RW	3	7	453	1	300	300	505	46	0	1	1	blank2r.bmp	0	1	+	0	1	blank2r.bmp	492	1	BZZB	492	1	blank2r.bmp	572	1	strafen	866	1	!	1292	1	!	1412	0	0	0	0	0	0	0	0	0	0	0	0	0	0	0	0	0	0	0	0	0	0	0	0	0	0	0	0	0	0
070819	15:38:54	15:43:57	300695	5.0.10.0	5_exp_RW	21	Rpleas_acq	CS_B	GWWG	JXXJ	YDDY	BZZB	MQQM	VKKV	ehrlich	treu	fair	spielen	schön	retten	eitel	tot	faul	strafen	schlecht	rächen	1	acq_USpleas_CSpleas2_RW	acq3_RW	3	8	453	1	300	300	469	50	0	1	1	blank2r.bmp	0	1	+	0	1	blank2r.bmp	492	1	JXXJ	492	1	blank2r.bmp	572	1	spielen	866	1	!	1292	1	!	1372	0	0	0	0	0	0	0	0	0	0	0	0	0	0	0	0	0	0	0	0	0	0	0	0	0	0	0	0	0	0
070819	15:38:54	15:43:59	302921	5.0.10.0	5_exp_RW	21	Rpleas_acq	CS_B	GWWG	JXXJ	YDDY	BZZB	MQQM	VKKV	ehrlich	treu	fair	spielen	schön	retten	eitel	tot	faul	strafen	schlecht	rächen	1	acq_USpleas_CSpleas2_RW	acq3_RW	3	9	453	1	300	300	413	50	0	1	1	blank2r.bmp	0	1	+	0	1	blank2r.bmp	492	1	JXXJ	492	1	blank2r.bmp	572	2	schön	866	1	!	1292	1	!	1319	0	0	0	0	0	0	0	0	0	0	0	0	0	0	0	0	0	0	0	0	0	0	0	0	0	0	0	0	0	0
070819	15:38:54	15:44:01	305040	5.0.10.0	5_exp_RW	21	Rpleas_acq	CS_B	GWWG	JXXJ	YDDY	BZZB	MQQM	VKKV	ehrlich	treu	fair	spielen	schön	retten	eitel	tot	faul	strafen	schlecht	rächen	1	acq_USpleas_CSpleas2_RW	acq3_RW	3	10	453	0	300	300	345	50	0	1	1	blank2r.bmp	0	1	+	0	1	blank2r.bmp	492	1	JXXJ	492	1	blank2r.bmp	572	2	schön	866	1	!	-1	1	!	-1	0	0	0	0	0	0	0	0	0	0	0	0	0	0	0	0	0	0	0	0	0	0	0	0	0	0	0	0	0	0
070819	15:38:54	15:44:04	307359	5.0.10.0	5_exp_RW	21	Rpleas_acq	CS_B	GWWG	JXXJ	YDDY	BZZB	MQQM	VKKV	ehrlich	treu	fair	spielen	schön	retten	eitel	tot	faul	strafen	schlecht	rächen	1	acq_USpleas_CSpleas1_RW	acq3_RW	3	11	453	1	300	300	504	50	0	1	1	blank2r.bmp	0	1	+	0	1	blank2r.bmp	492	1	GWWG	492	1	blank2r.bmp	572	2	treu	866	1	!	1292	1	!	1412	0	0	0	0	0	0	0	0	0	0	0	0	0	0	0	0	0	0	0	0	0	0	0	0	0	0	0	0	0	0
070819	15:38:54	15:44:06	309571	5.0.10.0	5_exp_RW	21	Rpleas_acq	CS_B	GWWG	JXXJ	YDDY	BZZB	MQQM	VKKV	ehrlich	treu	fair	spielen	schön	retten	eitel	tot	faul	strafen	schlecht	rächen	1	acq_USpleas_CSpleas2_RW	acq3_RW	3	12	453	1	300	300	417	50	0	1	1	blank2r.bmp	0	1	+	0	1	blank2r.bmp	492	1	JXXJ	492	1	blank2r.bmp	572	1	spielen	866	1	!	1292	1	!	1319	0	0	0	0	0	0	0	0	0	0	0	0	0	0	0	0	0	0	0	0	0	0	0	0	0	0	0	0	0	0
070819	15:38:54	15:44:08	311877	5.0.10.0	5_exp_RW	21	Rpleas_acq	CS_B	GWWG	JXXJ	YDDY	BZZB	MQQM	VKKV	ehrlich	treu	fair	spielen	schön	retten	eitel	tot	faul	strafen	schlecht	rächen	1	acq_USunple_CSunple1_RW	acq3_RW	3	13	453	0	300	300	542	46	0	1	1	blank2r.bmp	0	1	+	0	1	blank2r.bmp	492	1	YDDY	492	1	blank2r.bmp	572	2	tot	866	1	!	1292	1	!	-1	0	0	0	0	0	0	0	0	0	0	0	0	0	0	0	0	0	0	0	0	0	0	0	0	0	0	0	0	0	0
070819	15:38:54	15:44:10	314089	5.0.10.0	5_exp_RW	21	Rpleas_acq	CS_B	GWWG	JXXJ	YDDY	BZZB	MQQM	VKKV	ehrlich	treu	fair	spielen	schön	retten	eitel	tot	faul	strafen	schlecht	rächen	1	acq_USunple_CSunple1_RW	acq3_RW	3	14	453	1	300	300	403	46	0	1	1	blank2r.bmp	0	1	+	0	1	blank2r.bmp	492	1	YDDY	492	1	blank2r.bmp	572	3	faul	866	1	!	1292	1	!	1306	0	0	0	0	0	0	0	0	0	0	0	0	0	0	0	0	0	0	0	0	0	0	0	0	0	0	0	0	0	0
070819	15:38:54	15:44:13	316488	5.0.10.0	5_exp_RW	21	Rpleas_acq	CS_B	GWWG	JXXJ	YDDY	BZZB	MQQM	VKKV	ehrlich	treu	fair	spielen	schön	retten	eitel	tot	faul	strafen	schlecht	rächen	1	acq_USpleas_CSpleas1_RW	acq3_RW	3	15	453	0	300	300	631	50	0	1	1	blank2r.bmp	0	1	+	0	1	blank2r.bmp	492	1	GWWG	492	1	blank2r.bmp	572	3	fair	866	1	!	1292	1	!	-1	0	0	0	0	0	0	0	0	0	0	0	0	0	0	0	0	0	0	0	0	0	0	0	0	0	0	0	0	0	0
070819	15:38:54	15:44:15	318874	5.0.10.0	5_exp_RW	21	Rpleas_acq	CS_B	GWWG	JXXJ	YDDY	BZZB	MQQM	VKKV	ehrlich	treu	fair	spielen	schön	retten	eitel	tot	faul	strafen	schlecht	rächen	1	acq_USunple_CSunple2_RW	acq3_RW	3	16	453	0	300	300	601	46	0	1	1	blank2r.bmp	0	1	+	0	1	blank2r.bmp	492	1	BZZB	492	1	blank2r.bmp	572	2	schlecht	866	1	!	1292	1	!	-1	0	0	0	0	0	0	0	0	0	0	0	0	0	0	0	0	0	0	0	0	0	0	0	0	0	0	0	0	0	0
070819	15:38:54	15:44:19	322153	5.0.10.0	5_exp_RW	21	Rpleas_acq	CS_B	GWWG	JXXJ	YDDY	BZZB	MQQM	VKKV	ehrlich	treu	fair	spielen	schön	retten	eitel	tot	faul	strafen	schlecht	rächen	1	acq_USunple_CSunple1_RW	acq3_RW	3	17	453	0	300	300	1275	50	0	0	1	blank2r.bmp	0	1	+	0	1	blank2r.bmp	492	1	YDDY	492	1	blank2r.bmp	572	1	eitel	866	1	FEHLER	2478	1	!	1292	1	!	-1	0	0	0	0	0	0	0	0	0	0	0	0	0	0	0	0	0	0	0	0	0	0	0	0	0	0	0
070819	15:38:54	15:44:21	324205	5.0.10.0	5_exp_RW	21	Rpleas_acq	CS_B	GWWG	JXXJ	YDDY	BZZB	MQQM	VKKV	ehrlich	treu	fair	spielen	schön	retten	eitel	tot	faul	strafen	schlecht	rächen	1	acq_USpleas_CSpleas2_RW	acq3_RW	3	18	453	1	300	300	460	50	0	1	1	blank2r.bmp	0	1	+	0	1	blank2r.bmp	492	1	JXXJ	492	1	blank2r.bmp	572	3	retten	866	1	!	1292	1	!	1359	0	0	0	0	0	0	0	0	0	0	0	0	0	0	0	0	0	0	0	0	0	0	0	0	0	0	0	0	0	0
070819	15:38:54	15:44:23	326511	5.0.10.0	5_exp_RW	21	Rpleas_acq	CS_B	GWWG	JXXJ	YDDY	BZZB	MQQM	VKKV	ehrlich	treu	fair	spielen	schön	retten	eitel	tot	faul	strafen	schlecht	rächen	1	acq_USpleas_CSpleas1_RW	acq3_RW	3	19	453	0	300	300	536	50	0	1	1	blank2r.bmp	0	1	+	0	1	blank2r.bmp	492	1	GWWG	492	1	blank2r.bmp	572	2	treu	866	1	!	1292	1	!	-1	0	0	0	0	0	0	0	0	0	0	0	0	0	0	0	0	0	0	0	0	0	0	0	0	0	0	0	0	0	0
070819	15:38:54	15:44:25	328936	5.0.10.0	5_exp_RW	21	Rpleas_acq	CS_B	GWWG	JXXJ	YDDY	BZZB	MQQM	VKKV	ehrlich	treu	fair	spielen	schön	retten	eitel	tot	faul	strafen	schlecht	rächen	1	acq_USunple_CSunple1_RW	acq3_RW	3	20	453	1	300	300	412	50	0	0	1	blank2r.bmp	0	1	+	0	1	blank2r.bmp	492	1	YDDY	492	1	blank2r.bmp	572	2	tot	866	1	FEHLER	1625	1	!	1292	1	!	1306	0	0	0	0	0	0	0	0	0	0	0	0	0	0	0	0	0	0	0	0	0	0	0	0	0	0	0
070819	15:38:54	15:44:27	331042	5.0.10.0	5_exp_RW	21	Rpleas_acq	CS_B	GWWG	JXXJ	YDDY	BZZB	MQQM	VKKV	ehrlich	treu	fair	spielen	schön	retten	eitel	tot	faul	strafen	schlecht	rächen	1	acq_USpleas_CSpleas1_RW	acq3_RW	3	21	453	0	300	300	554	50	0	1	1	blank2r.bmp	0	1	+	0	1	blank2r.bmp	492	1	GWWG	492	1	blank2r.bmp	572	1	ehrlich	866	1	!	1292	1	!	-1	0	0	0	0	0	0	0	0	0	0	0	0	0	0	0	0	0	0	0	0	0	0	0	0	0	0	0	0	0	0
070819	15:38:54	15:44:30	333428	5.0.10.0	5_exp_RW	21	Rpleas_acq	CS_B	GWWG	JXXJ	YDDY	BZZB	MQQM	VKKV	ehrlich	treu	fair	spielen	schön	retten	eitel	tot	faul	strafen	schlecht	rächen	1	acq_USunple_CSunple2_RW	acq3_RW	3	22	453	0	300	300	375	50	0	0	1	blank2r.bmp	0	1	+	0	1	blank2r.bmp	492	1	BZZB	492	1	blank2r.bmp	572	2	schlecht	866	1	FEHLER	1585	1	!	-1	1	!	-1	0	0	0	0	0	0	0	0	0	0	0	0	0	0	0	0	0	0	0	0	0	0	0	0	0	0	0
070819	15:38:54	15:44:32	335720	5.0.10.0	5_exp_RW	21	Rpleas_acq	CS_B	GWWG	JXXJ	YDDY	BZZB	MQQM	VKKV	ehrlich	treu	fair	spielen	schön	retten	eitel	tot	faul	strafen	schlecht	rächen	1	acq_USpleas_CSpleas2_RW	acq3_RW	3	23	453	0	300	300	737	50	0	1	1	blank2r.bmp	0	1	+	0	1	blank2r.bmp	492	1	JXXJ	492	1	blank2r.bmp	572	3	retten	866	1	!	1292	1	!	-1	0	0	0	0	0	0	0	0	0	0	0	0	0	0	0	0	0	0	0	0	0	0	0	0	0	0	0	0	0	0
070819	15:38:54	15:44:35	338146	5.0.10.0	5_exp_RW	21	Rpleas_acq	CS_B	GWWG	JXXJ	YDDY	BZZB	MQQM	VKKV	ehrlich	treu	fair	spielen	schön	retten	eitel	tot	faul	strafen	schlecht	rächen	1	acq_USpleas_CSpleas1_RW	acq3_RW	3	24	453	1	300	300	399	46	0	0	1	blank2r.bmp	0	1	+	0	1	blank2r.bmp	492	1	GWWG	492	1	blank2r.bmp	572	1	ehrlich	866	1	FEHLER	1625	1	!	1292	1	!	1306	0	0	0	0	0	0	0	0	0	0	0	0	0	0	0	0	0	0	0	0	0	0	0	0	0	0	0
070819	15:38:54	15:44:49	352313	5.0.10.0	5_exp_RW	21	Rpleas_acq	CS_B	GWWG	JXXJ	YDDY	BZZB	MQQM	VKKV	ehrlich	treu	fair	spielen	schön	retten	eitel	tot	faul	strafen	schlecht	rächen	1	acq_USpleas_CSpleas1_RW	acq4567_RW	4	1	400	1	300	300	421	50	0	1	1	blank2r.bmp	0	1	+	0	1	blank2r.bmp	492	1	GWWG	492	1	blank2r.bmp	572	2	treu	866	1	!	1239	1	!	1319	0	0	0	0	0	0	0	0	0	0	0	0	0	0	0	0	0	0	0	0	0	0	0	0	0	0	0	0	0	0
070819	15:38:54	15:44:51	354578	5.0.10.0	5_exp_RW	21	Rpleas_acq	CS_B	GWWG	JXXJ	YDDY	BZZB	MQQM	VKKV	ehrlich	treu	fair	spielen	schön	retten	eitel	tot	faul	strafen	schlecht	rächen	1	acq_USpleas_CSpleas1_RW	acq4567_RW	4	2	400	1	300	300	457	50	0	1	1	blank2r.bmp	0	1	+	0	1	blank2r.bmp	492	1	GWWG	492	1	blank2r.bmp	572	3	fair	866	1	!	1239	1	!	1359	0	0	0	0	0	0	0	0	0	0	0	0	0	0	0	0	0	0	0	0	0	0	0	0	0	0	0	0	0	0
070819	15:38:54	15:44:53	356884	5.0.10.0	5_exp_RW	21	Rpleas_acq	CS_B	GWWG	JXXJ	YDDY	BZZB	MQQM	VKKV	ehrlich	treu	fair	spielen	schön	retten	eitel	tot	faul	strafen	schlecht	rächen	1	acq_USunple_CSunple2_RW	acq4567_RW	4	3	400	0	300	300	541	46	0	1	1	blank2r.bmp	0	1	+	0	1	blank2r.bmp	492	1	BZZB	492	1	blank2r.bmp	572	1	strafen	866	1	!	1239	1	!	-1	0	0	0	0	0	0	0	0	0	0	0	0	0	0	0	0	0	0	0	0	0	0	0	0	0	0	0	0	0	0
070819	15:38:54	15:44:56	359203	5.0.10.0	5_exp_RW	21	Rpleas_acq	CS_B	GWWG	JXXJ	YDDY	BZZB	MQQM	VKKV	ehrlich	treu	fair	spielen	schön	retten	eitel	tot	faul	strafen	schlecht	rächen	1	acq_USunple_CSunple2_RW	acq4567_RW	4	4	400	0	300	300	523	46	0	1	1	blank2r.bmp	0	1	+	0	1	blank2r.bmp	492	1	BZZB	492	1	blank2r.bmp	572	3	rächen	866	1	!	1239	1	!	-1	0	0	0	0	0	0	0	0	0	0	0	0	0	0	0	0	0	0	0	0	0	0	0	0	0	0	0	0	0	0
070819	15:38:54	15:44:58	361416	5.0.10.0	5_exp_RW	21	Rpleas_acq	CS_B	GWWG	JXXJ	YDDY	BZZB	MQQM	VKKV	ehrlich	treu	fair	spielen	schön	retten	eitel	tot	faul	strafen	schlecht	rächen	1	acq_USpleas_CSpleas2_RW	acq4567_RW	4	5	400	1	300	300	409	50	0	1	1	blank2r.bmp	0	1	+	0	1	blank2r.bmp	492	1	JXXJ	492	1	blank2r.bmp	572	2	schön	866	1	!	1239	1	!	1306	0	0	0	0	0	0	0	0	0	0	0	0	0	0	0	0	0	0	0	0	0	0	0	0	0	0	0	0	0	0
070819	15:38:54	15:45:00	363695	5.0.10.0	5_exp_RW	21	Rpleas_acq	CS_B	GWWG	JXXJ	YDDY	BZZB	MQQM	VKKV	ehrlich	treu	fair	spielen	schön	retten	eitel	tot	faul	strafen	schlecht	rächen	1	acq_USpleas_CSpleas1_RW	acq4567_RW	4	6	400	0	300	300	509	50	0	1	1	blank2r.bmp	0	1	+	0	1	blank2r.bmp	492	1	GWWG	492	1	blank2r.bmp	572	1	ehrlich	866	1	!	1239	1	!	-1	0	0	0	0	0	0	0	0	0	0	0	0	0	0	0	0	0	0	0	0	0	0	0	0	0	0	0	0	0	0
070819	15:38:54	15:45:02	365934	5.0.10.0	5_exp_RW	21	Rpleas_acq	CS_B	GWWG	JXXJ	YDDY	BZZB	MQQM	VKKV	ehrlich	treu	fair	spielen	schön	retten	eitel	tot	faul	strafen	schlecht	rächen	1	acq_USpleas_CSpleas2_RW	acq4567_RW	4	7	400	1	300	300	426	50	0	1	1	blank2r.bmp	0	1	+	0	1	blank2r.bmp	492	1	JXXJ	492	1	blank2r.bmp	572	1	spielen	866	1	!	1239	1	!	1332	0	0	0	0	0	0	0	0	0	0	0	0	0	0	0	0	0	0	0	0	0	0	0	0	0	0	0	0	0	0
070819	15:38:54	15:45:05	368199	5.0.10.0	5_exp_RW	21	Rpleas_acq	CS_B	GWWG	JXXJ	YDDY	BZZB	MQQM	VKKV	ehrlich	treu	fair	spielen	schön	retten	eitel	tot	faul	strafen	schlecht	rächen	1	acq_USunple_CSunple1_RW	acq4567_RW	4	8	400	0	300	300	494	46	0	1	1	blank2r.bmp	0	1	+	0	1	blank2r.bmp	492	1	YDDY	492	1	blank2r.bmp	572	1	eitel	866	1	!	1239	1	!	-1	0	0	0	0	0	0	0	0	0	0	0	0	0	0	0	0	0	0	0	0	0	0	0	0	0	0	0	0	0	0
070819	15:38:54	15:45:07	370465	5.0.10.0	5_exp_RW	21	Rpleas_acq	CS_B	GWWG	JXXJ	YDDY	BZZB	MQQM	VKKV	ehrlich	treu	fair	spielen	schön	retten	eitel	tot	faul	strafen	schlecht	rächen	1	acq_USunple_CSunple2_RW	acq4567_RW	4	9	400	1	300	300	460	46	0	1	1	blank2r.bmp	0	1	+	0	1	blank2r.bmp	492	1	BZZB	492	1	blank2r.bmp	572	2	schlecht	866	1	!	1239	1	!	1359	0	0	0	0	0	0	0	0	0	0	0	0	0	0	0	0	0	0	0	0	0	0	0	0	0	0	0	0	0	0
070819	15:38:54	15:45:09	372637	5.0.10.0	5_exp_RW	21	Rpleas_acq	CS_B	GWWG	JXXJ	YDDY	BZZB	MQQM	VKKV	ehrlich	treu	fair	spielen	schön	retten	eitel	tot	faul	strafen	schlecht	rächen	1	acq_USpleas_CSpleas2_RW	acq4567_RW	4	10	400	1	300	300	381	46	0	0	1	blank2r.bmp	0	1	+	0	1	blank2r.bmp	492	1	JXXJ	492	1	blank2r.bmp	572	1	spielen	866	1	!	1239	1	!	1279	0	0	0	0	0	0	0	0	0	0	0	0	0	0	0	0	0	0	0	0	0	0	0	0	0	0	0	0	0	0
070819	15:38:54	15:45:11	374810	5.0.10.0	5_exp_RW	21	Rpleas_acq	CS_B	GWWG	JXXJ	YDDY	BZZB	MQQM	VKKV	ehrlich	treu	fair	spielen	schön	retten	eitel	tot	faul	strafen	schlecht	rächen	1	acq_USunple_CSunple2_RW	acq4567_RW	4	11	400	1	300	300	366	50	0	0	1	blank2r.bmp	0	1	+	0	1	blank2r.bmp	492	1	BZZB	492	1	blank2r.bmp	572	1	strafen	866	1	!	1239	1	!	1266	0	0	0	0	0	0	0	0	0	0	0	0	0	0	0	0	0	0	0	0	0	0	0	0	0	0	0	0	0	0
070819	15:38:54	15:45:13	377075	5.0.10.0	5_exp_RW	21	Rpleas_acq	CS_B	GWWG	JXXJ	YDDY	BZZB	MQQM	VKKV	ehrlich	treu	fair	spielen	schön	retten	eitel	tot	faul	strafen	schlecht	rächen	1	acq_USpleas_CSpleas1_RW	acq4567_RW	4	12	400	0	300	300	496	46	0	0	1	blank2r.bmp	0	1	+	0	1	blank2r.bmp	492	1	GWWG	492	1	blank2r.bmp	572	2	treu	866	1	!	1239	1	!	-1	0	0	0	0	0	0	0	0	0	0	0	0	0	0	0	0	0	0	0	0	0	0	0	0	0	0	0	0	0	0
070819	15:38:54	15:45:15	379128	5.0.10.0	5_exp_RW	21	Rpleas_acq	CS_B	GWWG	JXXJ	YDDY	BZZB	MQQM	VKKV	ehrlich	treu	fair	spielen	schön	retten	eitel	tot	faul	strafen	schlecht	rächen	1	acq_USpleas_CSpleas2_RW	acq4567_RW	4	13	400	0	300	300	272	50	0	1	1	blank2r.bmp	0	1	+	0	1	blank2r.bmp	492	1	JXXJ	492	1	blank2r.bmp	572	2	schön	866	1	!	-1	1	!	-1	0	0	0	0	0	0	0	0	0	0	0	0	0	0	0	0	0	0	0	0	0	0	0	0	0	0	0	0	0	0
070819	15:38:54	15:45:18	381700	5.0.10.0	5_exp_RW	21	Rpleas_acq	CS_B	GWWG	JXXJ	YDDY	BZZB	MQQM	VKKV	ehrlich	treu	fair	spielen	schön	retten	eitel	tot	faul	strafen	schlecht	rächen	1	acq_USunple_CSunple1_RW	acq4567_RW	4	14	400	0	300	300	796	46	0	1	1	blank2r.bmp	0	1	+	0	1	blank2r.bmp	492	1	YDDY	492	1	blank2r.bmp	572	3	faul	866	1	!	1239	1	!	-1	0	0	0	0	0	0	0	0	0	0	0	0	0	0	0	0	0	0	0	0	0	0	0	0	0	0	0	0	0	0
070819	15:38:54	15:45:20	383992	5.0.10.0	5_exp_RW	21	Rpleas_acq	CS_B	GWWG	JXXJ	YDDY	BZZB	MQQM	VKKV	ehrlich	treu	fair	spielen	schön	retten	eitel	tot	faul	strafen	schlecht	rächen	1	acq_USunple_CSunple1_RW	acq4567_RW	4	15	400	0	300	300	506	46	0	1	1	blank2r.bmp	0	1	+	0	1	blank2r.bmp	492	1	YDDY	492	1	blank2r.bmp	572	3	faul	866	1	!	1239	1	!	-1	0	0	0	0	0	0	0	0	0	0	0	0	0	0	0	0	0	0	0	0	0	0	0	0	0	0	0	0	0	0
070819	15:38:54	15:45:23	386271	5.0.10.0	5_exp_RW	21	Rpleas_acq	CS_B	GWWG	JXXJ	YDDY	BZZB	MQQM	VKKV	ehrlich	treu	fair	spielen	schön	retten	eitel	tot	faul	strafen	schlecht	rächen	1	acq_USpleas_CSpleas2_RW	acq4567_RW	4	16	400	0	300	300	494	50	0	1	1	blank2r.bmp	0	1	+	0	1	blank2r.bmp	492	1	JXXJ	492	1	blank2r.bmp	572	3	retten	866	1	!	1239	1	!	-1	0	0	0	0	0	0	0	0	0	0	0	0	0	0	0	0	0	0	0	0	0	0	0	0	0	0	0	0	0	0
070819	15:38:54	15:45:25	388537	5.0.10.0	5_exp_RW	21	Rpleas_acq	CS_B	GWWG	JXXJ	YDDY	BZZB	MQQM	VKKV	ehrlich	treu	fair	spielen	schön	retten	eitel	tot	faul	strafen	schlecht	rächen	1	acq_USpleas_CSpleas1_RW	acq4567_RW	4	17	400	1	300	300	461	50	0	1	1	blank2r.bmp	0	1	+	0	1	blank2r.bmp	492	1	GWWG	492	1	blank2r.bmp	572	3	fair	866	1	!	1239	1	!	1359	0	0	0	0	0	0	0	0	0	0	0	0	0	0	0	0	0	0	0	0	0	0	0	0	0	0	0	0	0	0
070819	15:38:54	15:45:27	390816	5.0.10.0	5_exp_RW	21	Rpleas_acq	CS_B	GWWG	JXXJ	YDDY	BZZB	MQQM	VKKV	ehrlich	treu	fair	spielen	schön	retten	eitel	tot	faul	strafen	schlecht	rächen	1	acq_USunple_CSunple2_RW	acq4567_RW	4	18	400	0	300	300	506	46	0	1	1	blank2r.bmp	0	1	+	0	1	blank2r.bmp	492	1	BZZB	492	1	blank2r.bmp	572	3	rächen	866	1	!	1239	1	!	-1	0	0	0	0	0	0	0	0	0	0	0	0	0	0	0	0	0	0	0	0	0	0	0	0	0	0	0	0	0	0
070819	15:38:54	15:45:29	393122	5.0.10.0	5_exp_RW	21	Rpleas_acq	CS_B	GWWG	JXXJ	YDDY	BZZB	MQQM	VKKV	ehrlich	treu	fair	spielen	schön	retten	eitel	tot	faul	strafen	schlecht	rächen	1	acq_USunple_CSunple1_RW	acq4567_RW	4	19	400	0	300	300	522	46	0	1	1	blank2r.bmp	0	1	+	0	1	blank2r.bmp	492	1	YDDY	492	1	blank2r.bmp	572	1	eitel	866	1	!	1239	1	!	-1	0	0	0	0	0	0	0	0	0	0	0	0	0	0	0	0	0	0	0	0	0	0	0	0	0	0	0	0	0	0
070819	15:38:54	15:45:32	395454	5.0.10.0	5_exp_RW	21	Rpleas_acq	CS_B	GWWG	JXXJ	YDDY	BZZB	MQQM	VKKV	ehrlich	treu	fair	spielen	schön	retten	eitel	tot	faul	strafen	schlecht	rächen	1	acq_USunple_CSunple1_RW	acq4567_RW	4	20	400	0	300	300	546	46	0	1	1	blank2r.bmp	0	1	+	0	1	blank2r.bmp	492	1	YDDY	492	1	blank2r.bmp	572	2	tot	866	1	!	1239	1	!	-1	0	0	0	0	0	0	0	0	0	0	0	0	0	0	0	0	0	0	0	0	0	0	0	0	0	0	0	0	0	0
070819	15:38:54	15:45:34	397720	5.0.10.0	5_exp_RW	21	Rpleas_acq	CS_B	GWWG	JXXJ	YDDY	BZZB	MQQM	VKKV	ehrlich	treu	fair	spielen	schön	retten	eitel	tot	faul	strafen	schlecht	rächen	1	acq_USpleas_CSpleas1_RW	acq4567_RW	4	21	400	0	300	300	479	50	0	1	1	blank2r.bmp	0	1	+	0	1	blank2r.bmp	492	1	GWWG	492	1	blank2r.bmp	572	3	fair	866	1	!	1239	1	!	-1	0	0	0	0	0	0	0	0	0	0	0	0	0	0	0	0	0	0	0	0	0	0	0	0	0	0	0	0	0	0
070819	15:38:54	15:45:36	400012	5.0.10.0	5_exp_RW	21	Rpleas_acq	CS_B	GWWG	JXXJ	YDDY	BZZB	MQQM	VKKV	ehrlich	treu	fair	spielen	schön	retten	eitel	tot	faul	strafen	schlecht	rächen	1	acq_USpleas_CSpleas1_RW	acq4567_RW	4	22	400	0	300	300	508	50	0	1	1	blank2r.bmp	0	1	+	0	1	blank2r.bmp	492	1	GWWG	492	1	blank2r.bmp	572	2	treu	866	1	!	1239	1	!	-1	0	0	0	0	0	0	0	0	0	0	0	0	0	0	0	0	0	0	0	0	0	0	0	0	0	0	0	0	0	0
070819	15:38:54	15:45:39	402264	5.0.10.0	5_exp_RW	21	Rpleas_acq	CS_B	GWWG	JXXJ	YDDY	BZZB	MQQM	VKKV	ehrlich	treu	fair	spielen	schön	retten	eitel	tot	faul	strafen	schlecht	rächen	1	acq_USunple_CSunple2_RW	acq4567_RW	4	23	400	1	300	300	448	50	0	0	1	blank2r.bmp	0	1	+	0	1	blank2r.bmp	492	1	BZZB	492	1	blank2r.bmp	572	2	schlecht	866	1	!	1239	1	!	1346	0	0	0	0	0	0	0	0	0	0	0	0	0	0	0	0	0	0	0	0	0	0	0	0	0	0	0	0	0	0
070819	15:38:54	15:45:41	404517	5.0.10.0	5_exp_RW	21	Rpleas_acq	CS_B	GWWG	JXXJ	YDDY	BZZB	MQQM	VKKV	ehrlich	treu	fair	spielen	schön	retten	eitel	tot	faul	strafen	schlecht	rächen	1	acq_USpleas_CSpleas2_RW	acq4567_RW	4	24	400	0	300	300	484	50	0	1	1	blank2r.bmp	0	1	+	0	1	blank2r.bmp	492	1	JXXJ	492	1	blank2r.bmp	572	1	spielen	866	1	!	1239	1	!	-1	0	0	0	0	0	0	0	0	0	0	0	0	0	0	0	0	0	0	0	0	0	0	0	0	0	0	0	0	0	0
070819	15:38:54	15:45:43	406849	5.0.10.0	5_exp_RW	21	Rpleas_acq	CS_B	GWWG	JXXJ	YDDY	BZZB	MQQM	VKKV	ehrlich	treu	fair	spielen	schön	retten	eitel	tot	faul	strafen	schlecht	rächen	1	acq_USunple_CSunple2_RW	acq4567_RW	4	25	400	0	300	300	552	46	0	1	1	blank2r.bmp	0	1	+	0	1	blank2r.bmp	492	1	BZZB	492	1	blank2r.bmp	572	1	strafen	866	1	!	1239	1	!	-1	0	0	0	0	0	0	0	0	0	0	0	0	0	0	0	0	0	0	0	0	0	0	0	0	0	0	0	0	0	0
070819	15:38:54	15:45:45	409048	5.0.10.0	5_exp_RW	21	Rpleas_acq	CS_B	GWWG	JXXJ	YDDY	BZZB	MQQM	VKKV	ehrlich	treu	fair	spielen	schön	retten	eitel	tot	faul	strafen	schlecht	rächen	1	acq_USunple_CSunple2_RW	acq4567_RW	4	26	400	1	300	300	388	46	0	1	1	blank2r.bmp	0	1	+	0	1	blank2r.bmp	492	1	BZZB	492	1	blank2r.bmp	572	3	rächen	866	1	!	1239	1	!	1292	0	0	0	0	0	0	0	0	0	0	0	0	0	0	0	0	0	0	0	0	0	0	0	0	0	0	0	0	0	0
070819	15:38:54	15:45:48	411327	5.0.10.0	5_exp_RW	21	Rpleas_acq	CS_B	GWWG	JXXJ	YDDY	BZZB	MQQM	VKKV	ehrlich	treu	fair	spielen	schön	retten	eitel	tot	faul	strafen	schlecht	rächen	1	acq_USunple_CSunple1_RW	acq4567_RW	4	27	400	1	300	300	466	46	0	1	1	blank2r.bmp	0	1	+	0	1	blank2r.bmp	492	1	YDDY	492	1	blank2r.bmp	572	1	eitel	866	1	!	1239	1	!	1372	0	0	0	0	0	0	0	0	0	0	0	0	0	0	0	0	0	0	0	0	0	0	0	0	0	0	0	0	0	0
070819	15:38:54	15:45:50	413633	5.0.10.0	5_exp_RW	21	Rpleas_acq	CS_B	GWWG	JXXJ	YDDY	BZZB	MQQM	VKKV	ehrlich	treu	fair	spielen	schön	retten	eitel	tot	faul	strafen	schlecht	rächen	1	acq_USpleas_CSpleas1_RW	acq4567_RW	4	28	400	0	300	300	543	50	0	1	1	blank2r.bmp	0	1	+	0	1	blank2r.bmp	492	1	GWWG	492	1	blank2r.bmp	572	1	ehrlich	866	1	!	1239	1	!	-1	0	0	0	0	0	0	0	0	0	0	0	0	0	0	0	0	0	0	0	0	0	0	0	0	0	0	0	0	0	0
070819	15:38:54	15:45:52	415819	5.0.10.0	5_exp_RW	21	Rpleas_acq	CS_B	GWWG	JXXJ	YDDY	BZZB	MQQM	VKKV	ehrlich	treu	fair	spielen	schön	retten	eitel	tot	faul	strafen	schlecht	rächen	1	acq_USpleas_CSpleas2_RW	acq4567_RW	4	29	400	1	300	300	380	50	0	1	1	blank2r.bmp	0	1	+	0	1	blank2r.bmp	492	1	JXXJ	492	1	blank2r.bmp	572	3	retten	866	1	!	1239	1	!	1279	0	0	0	0	0	0	0	0	0	0	0	0	0	0	0	0	0	0	0	0	0	0	0	0	0	0	0	0	0	0
070819	15:38:54	15:45:55	418164	5.0.10.0	5_exp_RW	21	Rpleas_acq	CS_B	GWWG	JXXJ	YDDY	BZZB	MQQM	VKKV	ehrlich	treu	fair	spielen	schön	retten	eitel	tot	faul	strafen	schlecht	rächen	1	acq_USunple_CSunple2_RW	acq4567_RW	4	30	400	0	300	300	560	46	0	1	1	blank2r.bmp	0	1	+	0	1	blank2r.bmp	492	1	BZZB	492	1	blank2r.bmp	572	2	schlecht	866	1	!	1239	1	!	-1	0	0	0	0	0	0	0	0	0	0	0	0	0	0	0	0	0	0	0	0	0	0	0	0	0	0	0	0	0	0
070819	15:38:54	15:45:57	420417	5.0.10.0	5_exp_RW	21	Rpleas_acq	CS_B	GWWG	JXXJ	YDDY	BZZB	MQQM	VKKV	ehrlich	treu	fair	spielen	schön	retten	eitel	tot	faul	strafen	schlecht	rächen	1	acq_USunple_CSunple2_RW	acq4567_RW	4	31	400	1	300	300	443	46	0	1	1	blank2r.bmp	0	1	+	0	1	blank2r.bmp	492	1	BZZB	492	1	blank2r.bmp	572	1	strafen	866	1	!	1239	1	!	1346	0	0	0	0	0	0	0	0	0	0	0	0	0	0	0	0	0	0	0	0	0	0	0	0	0	0	0	0	0	0
070819	15:38:54	15:45:59	422696	5.0.10.0	5_exp_RW	21	Rpleas_acq	CS_B	GWWG	JXXJ	YDDY	BZZB	MQQM	VKKV	ehrlich	treu	fair	spielen	schön	retten	eitel	tot	faul	strafen	schlecht	rächen	1	acq_USunple_CSunple1_RW	acq4567_RW	4	32	400	0	300	300	509	46	0	1	1	blank2r.bmp	0	1	+	0	1	blank2r.bmp	492	1	YDDY	492	1	blank2r.bmp	572	2	tot	866	1	!	1239	1	!	-1	0	0	0	0	0	0	0	0	0	0	0	0	0	0	0	0	0	0	0	0	0	0	0	0	0	0	0	0	0	0
070819	15:38:54	15:46:01	425135	5.0.10.0	5_exp_RW	21	Rpleas_acq	CS_B	GWWG	JXXJ	YDDY	BZZB	MQQM	VKKV	ehrlich	treu	fair	spielen	schön	retten	eitel	tot	faul	strafen	schlecht	rächen	1	acq_USpleas_CSpleas2_RW	acq4567_RW	4	33	400	0	300	300	651	50	0	1	1	blank2r.bmp	0	1	+	0	1	blank2r.bmp	492	1	JXXJ	492	1	blank2r.bmp	572	2	schön	866	1	!	1239	1	!	-1	0	0	0	0	0	0	0	0	0	0	0	0	0	0	0	0	0	0	0	0	0	0	0	0	0	0	0	0	0	0
070819	15:38:54	15:46:04	427440	5.0.10.0	5_exp_RW	21	Rpleas_acq	CS_B	GWWG	JXXJ	YDDY	BZZB	MQQM	VKKV	ehrlich	treu	fair	spielen	schön	retten	eitel	tot	faul	strafen	schlecht	rächen	1	acq_USunple_CSunple1_RW	acq4567_RW	4	34	400	0	300	300	517	46	0	1	1	blank2r.bmp	0	1	+	0	1	blank2r.bmp	492	1	YDDY	492	1	blank2r.bmp	572	3	faul	866	1	!	1239	1	!	-1	0	0	0	0	0	0	0	0	0	0	0	0	0	0	0	0	0	0	0	0	0	0	0	0	0	0	0	0	0	0
070819	15:38:54	15:46:06	429733	5.0.10.0	5_exp_RW	21	Rpleas_acq	CS_B	GWWG	JXXJ	YDDY	BZZB	MQQM	VKKV	ehrlich	treu	fair	spielen	schön	retten	eitel	tot	faul	strafen	schlecht	rächen	1	acq_USpleas_CSpleas2_RW	acq4567_RW	4	35	400	0	300	300	516	50	0	1	1	blank2r.bmp	0	1	+	0	1	blank2r.bmp	492	1	JXXJ	492	1	blank2r.bmp	572	1	spielen	866	1	!	1239	1	!	-1	0	0	0	0	0	0	0	0	0	0	0	0	0	0	0	0	0	0	0	0	0	0	0	0	0	0	0	0	0	0
070819	15:38:54	15:46:08	432118	5.0.10.0	5_exp_RW	21	Rpleas_acq	CS_B	GWWG	JXXJ	YDDY	BZZB	MQQM	VKKV	ehrlich	treu	fair	spielen	schön	retten	eitel	tot	faul	strafen	schlecht	rächen	1	acq_USpleas_CSpleas1_RW	acq4567_RW	4	36	400	0	300	300	607	50	0	1	1	blank2r.bmp	0	1	+	0	1	blank2r.bmp	492	1	GWWG	492	1	blank2r.bmp	572	2	treu	866	1	!	1239	1	!	-1	0	0	0	0	0	0	0	0	0	0	0	0	0	0	0	0	0	0	0	0	0	0	0	0	0	0	0	0	0	0
070819	15:38:54	15:46:11	434397	5.0.10.0	5_exp_RW	21	Rpleas_acq	CS_B	GWWG	JXXJ	YDDY	BZZB	MQQM	VKKV	ehrlich	treu	fair	spielen	schön	retten	eitel	tot	faul	strafen	schlecht	rächen	1	acq_USunple_CSunple1_RW	acq4567_RW	4	37	400	0	300	300	499	46	0	1	1	blank2r.bmp	0	1	+	0	1	blank2r.bmp	492	1	YDDY	492	1	blank2r.bmp	572	3	faul	866	1	!	1239	1	!	-1	0	0	0	0	0	0	0	0	0	0	0	0	0	0	0	0	0	0	0	0	0	0	0	0	0	0	0	0	0	0
070819	15:38:54	15:46:13	436583	5.0.10.0	5_exp_RW	21	Rpleas_acq	CS_B	GWWG	JXXJ	YDDY	BZZB	MQQM	VKKV	ehrlich	treu	fair	spielen	schön	retten	eitel	tot	faul	strafen	schlecht	rächen	1	acq_USpleas_CSpleas2_RW	acq4567_RW	4	38	400	1	300	300	385	50	0	1	1	blank2r.bmp	0	1	+	0	1	blank2r.bmp	492	1	JXXJ	492	1	blank2r.bmp	572	3	retten	866	1	!	1239	1	!	1279	0	0	0	0	0	0	0	0	0	0	0	0	0	0	0	0	0	0	0	0	0	0	0	0	0	0	0	0	0	0
070819	15:38:54	15:46:15	438889	5.0.10.0	5_exp_RW	21	Rpleas_acq	CS_B	GWWG	JXXJ	YDDY	BZZB	MQQM	VKKV	ehrlich	treu	fair	spielen	schön	retten	eitel	tot	faul	strafen	schlecht	rächen	1	acq_USunple_CSunple1_RW	acq4567_RW	4	39	400	0	300	300	534	46	0	1	1	blank2r.bmp	0	1	+	0	1	blank2r.bmp	492	1	YDDY	492	1	blank2r.bmp	572	2	tot	866	1	!	1239	1	!	-1	0	0	0	0	0	0	0	0	0	0	0	0	0	0	0	0	0	0	0	0	0	0	0	0	0	0	0	0	0	0
070819	15:38:54	15:46:17	441048	5.0.10.0	5_exp_RW	21	Rpleas_acq	CS_B	GWWG	JXXJ	YDDY	BZZB	MQQM	VKKV	ehrlich	treu	fair	spielen	schön	retten	eitel	tot	faul	strafen	schlecht	rächen	1	acq_USpleas_CSpleas1_RW	acq4567_RW	4	40	400	1	300	300	348	50	0	1	1	blank2r.bmp	0	1	+	0	1	blank2r.bmp	492	1	GWWG	492	1	blank2r.bmp	572	1	ehrlich	866	1	!	1239	1	!	1252	0	0	0	0	0	0	0	0	0	0	0	0	0	0	0	0	0	0	0	0	0	0	0	0	0	0	0	0	0	0
070819	15:38:54	15:46:20	443340	5.0.10.0	5_exp_RW	21	Rpleas_acq	CS_B	GWWG	JXXJ	YDDY	BZZB	MQQM	VKKV	ehrlich	treu	fair	spielen	schön	retten	eitel	tot	faul	strafen	schlecht	rächen	1	acq_USunple_CSunple2_RW	acq4567_RW	4	41	400	0	300	300	524	46	0	1	1	blank2r.bmp	0	1	+	0	1	blank2r.bmp	492	1	BZZB	492	1	blank2r.bmp	572	3	rächen	866	1	!	1239	1	!	-1	0	0	0	0	0	0	0	0	0	0	0	0	0	0	0	0	0	0	0	0	0	0	0	0	0	0	0	0	0	0
070819	15:38:54	15:46:22	445619	5.0.10.0	5_exp_RW	21	Rpleas_acq	CS_B	GWWG	JXXJ	YDDY	BZZB	MQQM	VKKV	ehrlich	treu	fair	spielen	schön	retten	eitel	tot	faul	strafen	schlecht	rächen	1	acq_USpleas_CSpleas1_RW	acq4567_RW	4	42	400	0	300	300	495	50	0	1	1	blank2r.bmp	0	1	+	0	1	blank2r.bmp	492	1	GWWG	492	1	blank2r.bmp	572	3	fair	866	1	!	1239	1	!	-1	0	0	0	0	0	0	0	0	0	0	0	0	0	0	0	0	0	0	0	0	0	0	0	0	0	0	0	0	0	0
070819	15:38:54	15:46:24	448058	5.0.10.0	5_exp_RW	21	Rpleas_acq	CS_B	GWWG	JXXJ	YDDY	BZZB	MQQM	VKKV	ehrlich	treu	fair	spielen	schön	retten	eitel	tot	faul	strafen	schlecht	rächen	1	acq_USunple_CSunple2_RW	acq4567_RW	4	43	400	0	300	300	655	46	0	1	1	blank2r.bmp	0	1	+	0	1	blank2r.bmp	492	1	BZZB	492	1	blank2r.bmp	572	3	rächen	866	1	!	1239	1	!	-1	0	0	0	0	0	0	0	0	0	0	0	0	0	0	0	0	0	0	0	0	0	0	0	0	0	0	0	0	0	0
070819	15:38:54	15:46:27	450230	5.0.10.0	5_exp_RW	21	Rpleas_acq	CS_B	GWWG	JXXJ	YDDY	BZZB	MQQM	VKKV	ehrlich	treu	fair	spielen	schön	retten	eitel	tot	faul	strafen	schlecht	rächen	1	acq_USunple_CSunple1_RW	acq4567_RW	4	44	400	1	300	300	369	50	0	0	1	blank2r.bmp	0	1	+	0	1	blank2r.bmp	492	1	YDDY	492	1	blank2r.bmp	572	1	eitel	866	1	!	1239	1	!	1266	0	0	0	0	0	0	0	0	0	0	0	0	0	0	0	0	0	0	0	0	0	0	0	0	0	0	0	0	0	0
070819	15:38:54	15:46:29	452696	5.0.10.0	5_exp_RW	21	Rpleas_acq	CS_B	GWWG	JXXJ	YDDY	BZZB	MQQM	VKKV	ehrlich	treu	fair	spielen	schön	retten	eitel	tot	faul	strafen	schlecht	rächen	1	acq_USpleas_CSpleas1_RW	acq4567_RW	4	45	400	0	300	300	684	50	0	1	1	blank2r.bmp	0	1	+	0	1	blank2r.bmp	492	1	GWWG	492	1	blank2r.bmp	572	2	treu	866	1	!	1239	1	!	-1	0	0	0	0	0	0	0	0	0	0	0	0	0	0	0	0	0	0	0	0	0	0	0	0	0	0	0	0	0	0
070819	15:38:54	15:46:31	454908	5.0.10.0	5_exp_RW	21	Rpleas_acq	CS_B	GWWG	JXXJ	YDDY	BZZB	MQQM	VKKV	ehrlich	treu	fair	spielen	schön	retten	eitel	tot	faul	strafen	schlecht	rächen	1	acq_USpleas_CSpleas2_RW	acq4567_RW	4	46	400	1	300	300	411	50	0	1	1	blank2r.bmp	0	1	+	0	1	blank2r.bmp	492	1	JXXJ	492	1	blank2r.bmp	572	2	schön	866	1	!	1239	1	!	1306	0	0	0	0	0	0	0	0	0	0	0	0	0	0	0	0	0	0	0	0	0	0	0	0	0	0	0	0	0	0
070819	15:38:54	15:46:33	457121	5.0.10.0	5_exp_RW	21	Rpleas_acq	CS_B	GWWG	JXXJ	YDDY	BZZB	MQQM	VKKV	ehrlich	treu	fair	spielen	schön	retten	eitel	tot	faul	strafen	schlecht	rächen	1	acq_USunple_CSunple2_RW	acq4567_RW	4	47	400	1	300	300	416	50	0	0	1	blank2r.bmp	0	1	+	0	1	blank2r.bmp	492	1	BZZB	492	1	blank2r.bmp	572	2	schlecht	866	1	!	1239	1	!	1319	0	0	0	0	0	0	0	0	0	0	0	0	0	0	0	0	0	0	0	0	0	0	0	0	0	0	0	0	0	0
070819	15:38:54	15:46:36	459360	5.0.10.0	5_exp_RW	21	Rpleas_acq	CS_B	GWWG	JXXJ	YDDY	BZZB	MQQM	VKKV	ehrlich	treu	fair	spielen	schön	retten	eitel	tot	faul	strafen	schlecht	rächen	1	acq_USpleas_CSpleas1_RW	acq4567_RW	4	48	400	1	300	300	444	50	0	1	1	blank2r.bmp	0	1	+	0	1	blank2r.bmp	492	1	GWWG	492	1	blank2r.bmp	572	3	fair	866	1	!	1239	1	!	1346	0	0	0	0	0	0	0	0	0	0	0	0	0	0	0	0	0	0	0	0	0	0	0	0	0	0	0	0	0	0
070819	15:38:54	15:46:41	464344	5.0.10.0	5_exp_RW	21	Rpleas_acq	CS_B	GWWG	JXXJ	YDDY	BZZB	MQQM	VKKV	ehrlich	treu	fair	spielen	schön	retten	eitel	tot	faul	strafen	schlecht	rächen	1	acq_USunple_CSunple1_RW	acq4567_RW	4	49	400	0	300	300	3202	50	0	0	1	blank2r.bmp	0	1	+	0	1	blank2r.bmp	492	1	YDDY	492	1	blank2r.bmp	572	2	tot	866	1	!	1239	1	!	-1	0	0	0	0	0	0	0	0	0	0	0	0	0	0	0	0	0	0	0	0	0	0	0	0	0	0	0	0	0	0
070819	15:38:54	15:46:43	466597	5.0.10.0	5_exp_RW	21	Rpleas_acq	CS_B	GWWG	JXXJ	YDDY	BZZB	MQQM	VKKV	ehrlich	treu	fair	spielen	schön	retten	eitel	tot	faul	strafen	schlecht	rächen	1	acq_USpleas_CSpleas2_RW	acq4567_RW	4	50	400	0	300	300	481	50	0	1	1	blank2r.bmp	0	1	+	0	1	blank2r.bmp	492	1	JXXJ	492	1	blank2r.bmp	572	3	retten	866	1	!	1239	1	!	-1	0	0	0	0	0	0	0	0	0	0	0	0	0	0	0	0	0	0	0	0	0	0	0	0	0	0	0	0	0	0
070819	15:38:54	15:46:45	468849	5.0.10.0	5_exp_RW	21	Rpleas_acq	CS_B	GWWG	JXXJ	YDDY	BZZB	MQQM	VKKV	ehrlich	treu	fair	spielen	schön	retten	eitel	tot	faul	strafen	schlecht	rächen	1	acq_USpleas_CSpleas2_RW	acq4567_RW	4	51	400	1	300	300	437	50	0	1	1	blank2r.bmp	0	1	+	0	1	blank2r.bmp	492	1	JXXJ	492	1	blank2r.bmp	572	1	spielen	866	1	!	1239	1	!	1333	0	0	0	0	0	0	0	0	0	0	0	0	0	0	0	0	0	0	0	0	0	0	0	0	0	0	0	0	0	0
070819	15:38:54	15:46:47	471021	5.0.10.0	5_exp_RW	21	Rpleas_acq	CS_B	GWWG	JXXJ	YDDY	BZZB	MQQM	VKKV	ehrlich	treu	fair	spielen	schön	retten	eitel	tot	faul	strafen	schlecht	rächen	1	acq_USpleas_CSpleas1_RW	acq4567_RW	4	52	400	1	300	300	380	50	0	1	1	blank2r.bmp	0	1	+	0	1	blank2r.bmp	492	1	GWWG	492	1	blank2r.bmp	572	1	ehrlich	866	1	!	1239	1	!	1279	0	0	0	0	0	0	0	0	0	0	0	0	0	0	0	0	0	0	0	0	0	0	0	0	0	0	0	0	0	0
070819	15:38:54	15:46:50	473314	5.0.10.0	5_exp_RW	21	Rpleas_acq	CS_B	GWWG	JXXJ	YDDY	BZZB	MQQM	VKKV	ehrlich	treu	fair	spielen	schön	retten	eitel	tot	faul	strafen	schlecht	rächen	1	acq_USunple_CSunple2_RW	acq4567_RW	4	53	400	0	300	300	527	46	0	1	1	blank2r.bmp	0	1	+	0	1	blank2r.bmp	492	1	BZZB	492	1	blank2r.bmp	572	1	strafen	866	1	!	1239	1	!	-1	0	0	0	0	0	0	0	0	0	0	0	0	0	0	0	0	0	0	0	0	0	0	0	0	0	0	0	0	0	0
070819	15:38:54	15:46:52	475526	5.0.10.0	5_exp_RW	21	Rpleas_acq	CS_B	GWWG	JXXJ	YDDY	BZZB	MQQM	VKKV	ehrlich	treu	fair	spielen	schön	retten	eitel	tot	faul	strafen	schlecht	rächen	1	acq_USunple_CSunple1_RW	acq4567_RW	4	54	400	1	300	300	404	46	0	1	1	blank2r.bmp	0	1	+	0	1	blank2r.bmp	492	1	YDDY	492	1	blank2r.bmp	572	1	eitel	866	1	!	1239	1	!	1306	0	0	0	0	0	0	0	0	0	0	0	0	0	0	0	0	0	0	0	0	0	0	0	0	0	0	0	0	0	0
070819	15:38:54	15:46:54	477672	5.0.10.0	5_exp_RW	21	Rpleas_acq	CS_B	GWWG	JXXJ	YDDY	BZZB	MQQM	VKKV	ehrlich	treu	fair	spielen	schön	retten	eitel	tot	faul	strafen	schlecht	rächen	1	acq_USunple_CSunple1_RW	acq4567_RW	4	55	400	1	300	300	348	46	0	1	1	blank2r.bmp	0	1	+	0	1	blank2r.bmp	492	1	YDDY	492	1	blank2r.bmp	572	3	faul	866	1	!	1239	1	!	1252	0	0	0	0	0	0	0	0	0	0	0	0	0	0	0	0	0	0	0	0	0	0	0	0	0	0	0	0	0	0
070819	15:38:54	15:46:56	479831	5.0.10.0	5_exp_RW	21	Rpleas_acq	CS_B	GWWG	JXXJ	YDDY	BZZB	MQQM	VKKV	ehrlich	treu	fair	spielen	schön	retten	eitel	tot	faul	strafen	schlecht	rächen	1	acq_USpleas_CSpleas2_RW	acq4567_RW	4	56	400	1	300	300	365	50	0	1	1	blank2r.bmp	0	1	+	0	1	blank2r.bmp	492	1	JXXJ	492	1	blank2r.bmp	572	2	schön	866	1	!	1239	1	!	1266	0	0	0	0	0	0	0	0	0	0	0	0	0	0	0	0	0	0	0	0	0	0	0	0	0	0	0	0	0	0
070819	15:38:54	15:46:59	482136	5.0.10.0	5_exp_RW	21	Rpleas_acq	CS_B	GWWG	JXXJ	YDDY	BZZB	MQQM	VKKV	ehrlich	treu	fair	spielen	schön	retten	eitel	tot	faul	strafen	schlecht	rächen	1	acq_USunple_CSunple1_RW	acq4567_RW	4	57	400	0	300	300	539	46	0	1	1	blank2r.bmp	0	1	+	0	1	blank2r.bmp	492	1	YDDY	492	1	blank2r.bmp	572	3	faul	866	1	!	1239	1	!	-1	0	0	0	0	0	0	0	0	0	0	0	0	0	0	0	0	0	0	0	0	0	0	0	0	0	0	0	0	0	0
070819	15:38:54	15:47:01	484535	5.0.10.0	5_exp_RW	21	Rpleas_acq	CS_B	GWWG	JXXJ	YDDY	BZZB	MQQM	VKKV	ehrlich	treu	fair	spielen	schön	retten	eitel	tot	faul	strafen	schlecht	rächen	1	acq_USpleas_CSpleas1_RW	acq4567_RW	4	58	400	0	300	300	619	50	0	1	1	blank2r.bmp	0	1	+	0	1	blank2r.bmp	492	1	GWWG	492	1	blank2r.bmp	572	1	ehrlich	866	1	!	1239	1	!	-1	0	0	0	0	0	0	0	0	0	0	0	0	0	0	0	0	0	0	0	0	0	0	0	0	0	0	0	0	0	0
070819	15:38:54	15:47:03	486868	5.0.10.0	5_exp_RW	21	Rpleas_acq	CS_B	GWWG	JXXJ	YDDY	BZZB	MQQM	VKKV	ehrlich	treu	fair	spielen	schön	retten	eitel	tot	faul	strafen	schlecht	rächen	1	acq_USpleas_CSpleas2_RW	acq4567_RW	4	59	400	0	300	300	539	50	0	1	1	blank2r.bmp	0	1	+	0	1	blank2r.bmp	492	1	JXXJ	492	1	blank2r.bmp	572	3	retten	866	1	!	1239	1	!	-1	0	0	0	0	0	0	0	0	0	0	0	0	0	0	0	0	0	0	0	0	0	0	0	0	0	0	0	0	0	0
070819	15:38:54	15:47:06	489200	5.0.10.0	5_exp_RW	21	Rpleas_acq	CS_B	GWWG	JXXJ	YDDY	BZZB	MQQM	VKKV	ehrlich	treu	fair	spielen	schön	retten	eitel	tot	faul	strafen	schlecht	rächen	1	acq_USunple_CSunple2_RW	acq4567_RW	4	60	400	0	300	300	552	46	0	1	1	blank2r.bmp	0	1	+	0	1	blank2r.bmp	492	1	BZZB	492	1	blank2r.bmp	572	2	schlecht	866	1	!	1239	1	!	-1	0	0	0	0	0	0	0	0	0	0	0	0	0	0	0	0	0	0	0	0	0	0	0	0	0	0	0	0	0	0
070819	15:38:54	15:47:08	491426	5.0.10.0	5_exp_RW	21	Rpleas_acq	CS_B	GWWG	JXXJ	YDDY	BZZB	MQQM	VKKV	ehrlich	treu	fair	spielen	schön	retten	eitel	tot	faul	strafen	schlecht	rächen	1	acq_USunple_CSunple1_RW	acq4567_RW	4	61	400	1	300	300	410	46	0	1	1	blank2r.bmp	0	1	+	0	1	blank2r.bmp	492	1	YDDY	492	1	blank2r.bmp	572	2	tot	866	1	!	1239	1	!	1306	0	0	0	0	0	0	0	0	0	0	0	0	0	0	0	0	0	0	0	0	0	0	0	0	0	0	0	0	0	0
070819	15:38:54	15:47:10	493665	5.0.10.0	5_exp_RW	21	Rpleas_acq	CS_B	GWWG	JXXJ	YDDY	BZZB	MQQM	VKKV	ehrlich	treu	fair	spielen	schön	retten	eitel	tot	faul	strafen	schlecht	rächen	1	acq_USpleas_CSpleas2_RW	acq4567_RW	4	62	400	1	300	300	440	50	0	1	1	blank2r.bmp	0	1	+	0	1	blank2r.bmp	492	1	JXXJ	492	1	blank2r.bmp	572	2	schön	866	1	!	1239	1	!	1346	0	0	0	0	0	0	0	0	0	0	0	0	0	0	0	0	0	0	0	0	0	0	0	0	0	0	0	0	0	0
070819	15:38:54	15:47:12	495944	5.0.10.0	5_exp_RW	21	Rpleas_acq	CS_B	GWWG	JXXJ	YDDY	BZZB	MQQM	VKKV	ehrlich	treu	fair	spielen	schön	retten	eitel	tot	faul	strafen	schlecht	rächen	1	acq_USunple_CSunple1_RW	acq4567_RW	4	63	400	0	300	300	510	46	0	1	1	blank2r.bmp	0	1	+	0	1	blank2r.bmp	492	1	YDDY	492	1	blank2r.bmp	572	1	eitel	866	1	!	1239	1	!	-1	0	0	0	0	0	0	0	0	0	0	0	0	0	0	0	0	0	0	0	0	0	0	0	0	0	0	0	0	0	0
070819	15:38:54	15:47:14	498130	5.0.10.0	5_exp_RW	21	Rpleas_acq	CS_B	GWWG	JXXJ	YDDY	BZZB	MQQM	VKKV	ehrlich	treu	fair	spielen	schön	retten	eitel	tot	faul	strafen	schlecht	rächen	1	acq_USpleas_CSpleas2_RW	acq4567_RW	4	64	400	1	300	300	384	50	0	1	1	blank2r.bmp	0	1	+	0	1	blank2r.bmp	492	1	JXXJ	492	1	blank2r.bmp	572	1	spielen	866	1	!	1239	1	!	1279	0	0	0	0	0	0	0	0	0	0	0	0	0	0	0	0	0	0	0	0	0	0	0	0	0	0	0	0	0	0
070819	15:38:54	15:47:17	500355	5.0.10.0	5_exp_RW	21	Rpleas_acq	CS_B	GWWG	JXXJ	YDDY	BZZB	MQQM	VKKV	ehrlich	treu	fair	spielen	schön	retten	eitel	tot	faul	strafen	schlecht	rächen	1	acq_USpleas_CSpleas2_RW	acq4567_RW	4	65	400	1	300	300	433	50	0	1	1	blank2r.bmp	0	1	+	0	1	blank2r.bmp	492	1	JXXJ	492	1	blank2r.bmp	572	2	schön	866	1	!	1239	1	!	1332	0	0	0	0	0	0	0	0	0	0	0	0	0	0	0	0	0	0	0	0	0	0	0	0	0	0	0	0	0	0
070819	15:38:54	15:47:19	502608	5.0.10.0	5_exp_RW	21	Rpleas_acq	CS_B	GWWG	JXXJ	YDDY	BZZB	MQQM	VKKV	ehrlich	treu	fair	spielen	schön	retten	eitel	tot	faul	strafen	schlecht	rächen	1	acq_USunple_CSunple2_RW	acq4567_RW	4	66	400	0	300	300	479	46	0	1	1	blank2r.bmp	0	1	+	0	1	blank2r.bmp	492	1	BZZB	492	1	blank2r.bmp	572	1	strafen	866	1	!	1239	1	!	-1	0	0	0	0	0	0	0	0	0	0	0	0	0	0	0	0	0	0	0	0	0	0	0	0	0	0	0	0	0	0
070819	15:38:54	15:47:21	504860	5.0.10.0	5_exp_RW	21	Rpleas_acq	CS_B	GWWG	JXXJ	YDDY	BZZB	MQQM	VKKV	ehrlich	treu	fair	spielen	schön	retten	eitel	tot	faul	strafen	schlecht	rächen	1	acq_USunple_CSunple2_RW	acq4567_RW	4	67	400	1	300	300	447	46	0	1	1	blank2r.bmp	0	1	+	0	1	blank2r.bmp	492	1	BZZB	492	1	blank2r.bmp	572	3	rächen	866	1	!	1239	1	!	1346	0	0	0	0	0	0	0	0	0	0	0	0	0	0	0	0	0	0	0	0	0	0	0	0	0	0	0	0	0	0
070819	15:38:54	15:47:23	507099	5.0.10.0	5_exp_RW	21	Rpleas_acq	CS_B	GWWG	JXXJ	YDDY	BZZB	MQQM	VKKV	ehrlich	treu	fair	spielen	schön	retten	eitel	tot	faul	strafen	schlecht	rächen	1	acq_USunple_CSunple1_RW	acq4567_RW	4	68	400	1	300	300	436	46	0	1	1	blank2r.bmp	0	1	+	0	1	blank2r.bmp	492	1	YDDY	492	1	blank2r.bmp	572	2	tot	866	1	!	1239	1	!	1332	0	0	0	0	0	0	0	0	0	0	0	0	0	0	0	0	0	0	0	0	0	0	0	0	0	0	0	0	0	0
070819	15:38:54	15:47:26	509258	5.0.10.0	5_exp_RW	21	Rpleas_acq	CS_B	GWWG	JXXJ	YDDY	BZZB	MQQM	VKKV	ehrlich	treu	fair	spielen	schön	retten	eitel	tot	faul	strafen	schlecht	rächen	1	acq_USpleas_CSpleas1_RW	acq4567_RW	4	69	400	1	300	300	366	46	0	0	1	blank2r.bmp	0	1	+	0	1	blank2r.bmp	492	1	GWWG	492	1	blank2r.bmp	572	2	treu	866	1	!	1239	1	!	1266	0	0	0	0	0	0	0	0	0	0	0	0	0	0	0	0	0	0	0	0	0	0	0	0	0	0	0	0	0	0
070819	15:38:54	15:47:28	511364	5.0.10.0	5_exp_RW	21	Rpleas_acq	CS_B	GWWG	JXXJ	YDDY	BZZB	MQQM	VKKV	ehrlich	treu	fair	spielen	schön	retten	eitel	tot	faul	strafen	schlecht	rächen	1	acq_USunple_CSunple2_RW	acq4567_RW	4	70	400	0	300	300	319	50	0	0	1	blank2r.bmp	0	1	+	0	1	blank2r.bmp	492	1	BZZB	492	1	blank2r.bmp	572	3	rächen	866	1	!	-1	1	!	-1	0	0	0	0	0	0	0	0	0	0	0	0	0	0	0	0	0	0	0	0	0	0	0	0	0	0	0	0	0	0
070819	15:38:54	15:47:30	513616	5.0.10.0	5_exp_RW	21	Rpleas_acq	CS_B	GWWG	JXXJ	YDDY	BZZB	MQQM	VKKV	ehrlich	treu	fair	spielen	schön	retten	eitel	tot	faul	strafen	schlecht	rächen	1	acq_USpleas_CSpleas1_RW	acq4567_RW	4	71	400	1	300	300	445	50	0	1	1	blank2r.bmp	0	1	+	0	1	blank2r.bmp	492	1	GWWG	492	1	blank2r.bmp	572	3	fair	866	1	!	1239	1	!	1346	0	0	0	0	0	0	0	0	0	0	0	0	0	0	0	0	0	0	0	0	0	0	0	0	0	0	0	0	0	0
070819	15:38:54	15:47:33	516202	5.0.10.0	5_exp_RW	21	Rpleas_acq	CS_B	GWWG	JXXJ	YDDY	BZZB	MQQM	VKKV	ehrlich	treu	fair	spielen	schön	retten	eitel	tot	faul	strafen	schlecht	rächen	1	acq_USunple_CSunple2_RW	acq4567_RW	4	72	400	0	300	300	822	46	0	1	1	blank2r.bmp	0	1	+	0	1	blank2r.bmp	492	1	BZZB	492	1	blank2r.bmp	572	2	schlecht	866	1	!	1239	1	!	-1	0	0	0	0	0	0	0	0	0	0	0	0	0	0	0	0	0	0	0	0	0	0	0	0	0	0	0	0	0	0
070819	15:38:54	15:47:35	518467	5.0.10.0	5_exp_RW	21	Rpleas_acq	CS_B	GWWG	JXXJ	YDDY	BZZB	MQQM	VKKV	ehrlich	treu	fair	spielen	schön	retten	eitel	tot	faul	strafen	schlecht	rächen	1	acq_USunple_CSunple2_RW	acq4567_RW	4	73	400	1	300	300	460	50	0	0	1	blank2r.bmp	0	1	+	0	1	blank2r.bmp	492	1	BZZB	492	1	blank2r.bmp	572	1	strafen	866	1	!	1239	1	!	1359	0	0	0	0	0	0	0	0	0	0	0	0	0	0	0	0	0	0	0	0	0	0	0	0	0	0	0	0	0	0
070819	15:38:54	15:47:38	521426	5.0.10.0	5_exp_RW	21	Rpleas_acq	CS_B	GWWG	JXXJ	YDDY	BZZB	MQQM	VKKV	ehrlich	treu	fair	spielen	schön	retten	eitel	tot	faul	strafen	schlecht	rächen	1	acq_USpleas_CSpleas1_RW	acq4567_RW	4	74	400	0	300	300	1189	50	0	1	1	blank2r.bmp	0	1	+	0	1	blank2r.bmp	492	1	GWWG	492	1	blank2r.bmp	572	1	ehrlich	866	1	!	1239	1	!	-1	0	0	0	0	0	0	0	0	0	0	0	0	0	0	0	0	0	0	0	0	0	0	0	0	0	0	0	0	0	0
070819	15:38:54	15:47:41	524518	5.0.10.0	5_exp_RW	21	Rpleas_acq	CS_B	GWWG	JXXJ	YDDY	BZZB	MQQM	VKKV	ehrlich	treu	fair	spielen	schön	retten	eitel	tot	faul	strafen	schlecht	rächen	1	acq_USunple_CSunple1_RW	acq4567_RW	4	75	400	0	300	300	1311	46	0	1	1	blank2r.bmp	0	1	+	0	1	blank2r.bmp	492	1	YDDY	492	1	blank2r.bmp	572	1	eitel	866	1	!	1239	1	!	-1	0	0	0	0	0	0	0	0	0	0	0	0	0	0	0	0	0	0	0	0	0	0	0	0	0	0	0	0	0	0
070819	15:38:54	15:47:43	526770	5.0.10.0	5_exp_RW	21	Rpleas_acq	CS_B	GWWG	JXXJ	YDDY	BZZB	MQQM	VKKV	ehrlich	treu	fair	spielen	schön	retten	eitel	tot	faul	strafen	schlecht	rächen	1	acq_USpleas_CSpleas2_RW	acq4567_RW	4	76	400	1	300	300	432	50	0	1	1	blank2r.bmp	0	1	+	0	1	blank2r.bmp	492	1	JXXJ	492	1	blank2r.bmp	572	1	spielen	866	1	!	1239	1	!	1332	0	0	0	0	0	0	0	0	0	0	0	0	0	0	0	0	0	0	0	0	0	0	0	0	0	0	0	0	0	0
070819	15:38:54	15:47:46	529316	5.0.10.0	5_exp_RW	21	Rpleas_acq	CS_B	GWWG	JXXJ	YDDY	BZZB	MQQM	VKKV	ehrlich	treu	fair	spielen	schön	retten	eitel	tot	faul	strafen	schlecht	rächen	1	acq_USunple_CSunple1_RW	acq4567_RW	4	77	400	0	300	300	775	46	0	1	1	blank2r.bmp	0	1	+	0	1	blank2r.bmp	492	1	YDDY	492	1	blank2r.bmp	572	3	faul	866	1	!	1239	1	!	-1	0	0	0	0	0	0	0	0	0	0	0	0	0	0	0	0	0	0	0	0	0	0	0	0	0	0	0	0	0	0
070819	15:38:54	15:47:48	532048	5.0.10.0	5_exp_RW	21	Rpleas_acq	CS_B	GWWG	JXXJ	YDDY	BZZB	MQQM	VKKV	ehrlich	treu	fair	spielen	schön	retten	eitel	tot	faul	strafen	schlecht	rächen	1	acq_USpleas_CSpleas1_RW	acq4567_RW	4	78	400	0	300	300	954	50	0	1	1	blank2r.bmp	0	1	+	0	1	blank2r.bmp	492	1	GWWG	492	1	blank2r.bmp	572	2	treu	866	1	!	1239	1	!	-1	0	0	0	0	0	0	0	0	0	0	0	0	0	0	0	0	0	0	0	0	0	0	0	0	0	0	0	0	0	0
070819	15:38:54	15:47:51	534314	5.0.10.0	5_exp_RW	21	Rpleas_acq	CS_B	GWWG	JXXJ	YDDY	BZZB	MQQM	VKKV	ehrlich	treu	fair	spielen	schön	retten	eitel	tot	faul	strafen	schlecht	rächen	1	acq_USpleas_CSpleas1_RW	acq4567_RW	4	79	400	1	300	300	459	50	0	1	1	blank2r.bmp	0	1	+	0	1	blank2r.bmp	492	1	GWWG	492	1	blank2r.bmp	572	3	fair	866	1	!	1239	1	!	1359	0	0	0	0	0	0	0	0	0	0	0	0	0	0	0	0	0	0	0	0	0	0	0	0	0	0	0	0	0	0
070819	15:38:54	15:47:53	536540	5.0.10.0	5_exp_RW	21	Rpleas_acq	CS_B	GWWG	JXXJ	YDDY	BZZB	MQQM	VKKV	ehrlich	treu	fair	spielen	schön	retten	eitel	tot	faul	strafen	schlecht	rächen	1	acq_USpleas_CSpleas2_RW	acq4567_RW	4	80	400	1	300	300	428	50	0	1	1	blank2r.bmp	0	1	+	0	1	blank2r.bmp	492	1	JXXJ	492	1	blank2r.bmp	572	3	retten	866	1	!	1239	1	!	1332	0	0	0	0	0	0	0	0	0	0	0	0	0	0	0	0	0	0	0	0	0	0	0	0	0	0	0	0	0	0
070819	15:38:54	15:48:06	549734	5.0.10.0	5_exp_RW	21	Rpleas_acq	CS_B	GWWG	JXXJ	YDDY	BZZB	MQQM	VKKV	ehrlich	treu	fair	spielen	schön	retten	eitel	tot	faul	strafen	schlecht	rächen	1	acq_USpleas_CSpleas2_RW	acq4567_RW	5	1	400	0	300	300	479	50	0	1	1	blank2r.bmp	0	1	+	0	1	blank2r.bmp	492	1	JXXJ	492	1	blank2r.bmp	572	3	retten	866	1	!	1239	1	!	-1	0	0	0	0	0	0	0	0	0	0	0	0	0	0	0	0	0	0	0	0	0	0	0	0	0	0	0	0	0	0
070819	15:38:54	15:48:08	551893	5.0.10.0	5_exp_RW	21	Rpleas_acq	CS_B	GWWG	JXXJ	YDDY	BZZB	MQQM	VKKV	ehrlich	treu	fair	spielen	schön	retten	eitel	tot	faul	strafen	schlecht	rächen	1	acq_USpleas_CSpleas1_RW	acq4567_RW	5	2	400	1	300	300	346	50	0	1	1	blank2r.bmp	0	1	+	0	1	blank2r.bmp	492	1	GWWG	492	1	blank2r.bmp	572	3	fair	866	1	!	1239	1	!	1252	0	0	0	0	0	0	0	0	0	0	0	0	0	0	0	0	0	0	0	0	0	0	0	0	0	0	0	0	0	0
070819	15:38:54	15:48:10	554012	5.0.10.0	5_exp_RW	21	Rpleas_acq	CS_B	GWWG	JXXJ	YDDY	BZZB	MQQM	VKKV	ehrlich	treu	fair	spielen	schön	retten	eitel	tot	faul	strafen	schlecht	rächen	1	acq_USunple_CSunple1_RW	acq4567_RW	5	3	400	0	300	300	331	50	0	0	1	blank2r.bmp	0	1	+	0	1	blank2r.bmp	492	1	YDDY	492	1	blank2r.bmp	572	2	tot	866	1	!	-1	1	!	-1	0	0	0	0	0	0	0	0	0	0	0	0	0	0	0	0	0	0	0	0	0	0	0	0	0	0	0	0	0	0
070819	15:38:54	15:48:13	556251	5.0.10.0	5_exp_RW	21	Rpleas_acq	CS_B	GWWG	JXXJ	YDDY	BZZB	MQQM	VKKV	ehrlich	treu	fair	spielen	schön	retten	eitel	tot	faul	strafen	schlecht	rächen	1	acq_USunple_CSunple2_RW	acq4567_RW	5	4	400	1	300	300	431	46	0	1	1	blank2r.bmp	0	1	+	0	1	blank2r.bmp	492	1	BZZB	492	1	blank2r.bmp	572	1	strafen	866	1	!	1239	1	!	1332	0	0	0	0	0	0	0	0	0	0	0	0	0	0	0	0	0	0	0	0	0	0	0	0	0	0	0	0	0	0
070819	15:38:54	15:48:15	558583	5.0.10.0	5_exp_RW	21	Rpleas_acq	CS_B	GWWG	JXXJ	YDDY	BZZB	MQQM	VKKV	ehrlich	treu	fair	spielen	schön	retten	eitel	tot	faul	strafen	schlecht	rächen	1	acq_USunple_CSunple1_RW	acq4567_RW	5	5	400	0	300	300	558	50	0	0	1	blank2r.bmp	0	1	+	0	1	blank2r.bmp	492	1	YDDY	492	1	blank2r.bmp	572	3	faul	866	1	!	1239	1	!	-1	0	0	0	0	0	0	0	0	0	0	0	0	0	0	0	0	0	0	0	0	0	0	0	0	0	0	0	0	0	0
070819	15:38:54	15:48:17	560849	5.0.10.0	5_exp_RW	21	Rpleas_acq	CS_B	GWWG	JXXJ	YDDY	BZZB	MQQM	VKKV	ehrlich	treu	fair	spielen	schön	retten	eitel	tot	faul	strafen	schlecht	rächen	1	acq_USunple_CSunple2_RW	acq4567_RW	5	6	400	0	300	300	479	46	0	1	1	blank2r.bmp	0	1	+	0	1	blank2r.bmp	492	1	BZZB	492	1	blank2r.bmp	572	3	rächen	866	1	!	1239	1	!	-1	0	0	0	0	0	0	0	0	0	0	0	0	0	0	0	0	0	0	0	0	0	0	0	0	0	0	0	0	0	0
070819	15:38:54	15:48:19	563128	5.0.10.0	5_exp_RW	21	Rpleas_acq	CS_B	GWWG	JXXJ	YDDY	BZZB	MQQM	VKKV	ehrlich	treu	fair	spielen	schön	retten	eitel	tot	faul	strafen	schlecht	rächen	1	acq_USpleas_CSpleas1_RW	acq4567_RW	5	7	400	0	300	300	479	50	0	1	1	blank2r.bmp	0	1	+	0	1	blank2r.bmp	492	1	GWWG	492	1	blank2r.bmp	572	1	ehrlich	866	1	!	1239	1	!	-1	0	0	0	0	0	0	0	0	0	0	0	0	0	0	0	0	0	0	0	0	0	0	0	0	0	0	0	0	0	0
070819	15:38:54	15:48:22	565447	5.0.10.0	5_exp_RW	21	Rpleas_acq	CS_B	GWWG	JXXJ	YDDY	BZZB	MQQM	VKKV	ehrlich	treu	fair	spielen	schön	retten	eitel	tot	faul	strafen	schlecht	rächen	1	acq_USunple_CSunple1_RW	acq4567_RW	5	8	400	0	300	300	532	46	0	1	1	blank2r.bmp	0	1	+	0	1	blank2r.bmp	492	1	YDDY	492	1	blank2r.bmp	572	1	eitel	866	1	!	1239	1	!	-1	0	0	0	0	0	0	0	0	0	0	0	0	0	0	0	0	0	0	0	0	0	0	0	0	0	0	0	0	0	0
070819	15:38:54	15:48:24	567859	5.0.10.0	5_exp_RW	21	Rpleas_acq	CS_B	GWWG	JXXJ	YDDY	BZZB	MQQM	VKKV	ehrlich	treu	fair	spielen	schön	retten	eitel	tot	faul	strafen	schlecht	rächen	1	acq_USunple_CSunple2_RW	acq4567_RW	5	9	400	0	300	300	634	46	0	1	1	blank2r.bmp	0	1	+	0	1	blank2r.bmp	492	1	BZZB	492	1	blank2r.bmp	572	2	schlecht	866	1	!	1239	1	!	-1	0	0	0	0	0	0	0	0	0	0	0	0	0	0	0	0	0	0	0	0	0	0	0	0	0	0	0	0	0	0
070819	15:38:54	15:48:26	569925	5.0.10.0	5_exp_RW	21	Rpleas_acq	CS_B	GWWG	JXXJ	YDDY	BZZB	MQQM	VKKV	ehrlich	treu	fair	spielen	schön	retten	eitel	tot	faul	strafen	schlecht	rächen	1	acq_USpleas_CSpleas2_RW	acq4567_RW	5	10	400	0	300	300	282	50	0	1	1	blank2r.bmp	0	1	+	0	1	blank2r.bmp	492	1	JXXJ	492	1	blank2r.bmp	572	2	schön	866	1	!	-1	1	!	-1	0	0	0	0	0	0	0	0	0	0	0	0	0	0	0	0	0	0	0	0	0	0	0	0	0	0	0	0	0	0
070819	15:38:54	15:48:29	572204	5.0.10.0	5_exp_RW	21	Rpleas_acq	CS_B	GWWG	JXXJ	YDDY	BZZB	MQQM	VKKV	ehrlich	treu	fair	spielen	schön	retten	eitel	tot	faul	strafen	schlecht	rächen	1	acq_USunple_CSunple2_RW	acq4567_RW	5	11	400	0	300	300	497	46	0	1	1	blank2r.bmp	0	1	+	0	1	blank2r.bmp	492	1	BZZB	492	1	blank2r.bmp	572	1	strafen	866	1	!	1239	1	!	-1	0	0	0	0	0	0	0	0	0	0	0	0	0	0	0	0	0	0	0	0	0	0	0	0	0	0	0	0	0	0
070819	15:38:54	15:48:31	574403	5.0.10.0	5_exp_RW	21	Rpleas_acq	CS_B	GWWG	JXXJ	YDDY	BZZB	MQQM	VKKV	ehrlich	treu	fair	spielen	schön	retten	eitel	tot	faul	strafen	schlecht	rächen	1	acq_USpleas_CSpleas2_RW	acq4567_RW	5	12	400	1	300	300	375	50	0	1	1	blank2r.bmp	0	1	+	0	1	blank2r.bmp	492	1	JXXJ	492	1	blank2r.bmp	572	1	spielen	866	1	!	1239	1	!	1279	0	0	0	0	0	0	0	0	0	0	0	0	0	0	0	0	0	0	0	0	0	0	0	0	0	0	0	0	0	0
070819	15:38:54	15:48:33	576709	5.0.10.0	5_exp_RW	21	Rpleas_acq	CS_B	GWWG	JXXJ	YDDY	BZZB	MQQM	VKKV	ehrlich	treu	fair	spielen	schön	retten	eitel	tot	faul	strafen	schlecht	rächen	1	acq_USpleas_CSpleas1_RW	acq4567_RW	5	13	400	0	300	300	524	46	0	0	1	blank2r.bmp	0	1	+	0	1	blank2r.bmp	492	1	GWWG	492	1	blank2r.bmp	572	2	treu	866	1	!	1239	1	!	-1	0	0	0	0	0	0	0	0	0	0	0	0	0	0	0	0	0	0	0	0	0	0	0	0	0	0	0	0	0	0
070819	15:38:54	15:48:35	578868	5.0.10.0	5_exp_RW	21	Rpleas_acq	CS_B	GWWG	JXXJ	YDDY	BZZB	MQQM	VKKV	ehrlich	treu	fair	spielen	schön	retten	eitel	tot	faul	strafen	schlecht	rächen	1	acq_USpleas_CSpleas2_RW	acq4567_RW	5	14	400	1	300	300	346	50	0	1	1	blank2r.bmp	0	1	+	0	1	blank2r.bmp	492	1	JXXJ	492	1	blank2r.bmp	572	2	schön	866	1	!	1239	1	!	1252	0	0	0	0	0	0	0	0	0	0	0	0	0	0	0	0	0	0	0	0	0	0	0	0	0	0	0	0	0	0
070819	15:38:54	15:48:38	581400	5.0.10.0	5_exp_RW	21	Rpleas_acq	CS_B	GWWG	JXXJ	YDDY	BZZB	MQQM	VKKV	ehrlich	treu	fair	spielen	schön	retten	eitel	tot	faul	strafen	schlecht	rächen	1	acq_USunple_CSunple2_RW	acq4567_RW	5	15	400	0	300	300	762	46	0	1	1	blank2r.bmp	0	1	+	0	1	blank2r.bmp	492	1	BZZB	492	1	blank2r.bmp	572	2	schlecht	866	1	!	1239	1	!	-1	0	0	0	0	0	0	0	0	0	0	0	0	0	0	0	0	0	0	0	0	0	0	0	0	0	0	0	0	0	0
070819	15:38:54	15:48:40	583732	5.0.10.0	5_exp_RW	21	Rpleas_acq	CS_B	GWWG	JXXJ	YDDY	BZZB	MQQM	VKKV	ehrlich	treu	fair	spielen	schön	retten	eitel	tot	faul	strafen	schlecht	rächen	1	acq_USpleas_CSpleas2_RW	acq4567_RW	5	16	400	0	300	300	547	50	0	1	1	blank2r.bmp	0	1	+	0	1	blank2r.bmp	492	1	JXXJ	492	1	blank2r.bmp	572	1	spielen	866	1	!	1239	1	!	-1	0	0	0	0	0	0	0	0	0	0	0	0	0	0	0	0	0	0	0	0	0	0	0	0	0	0	0	0	0	0
070819	15:38:54	15:48:42	586051	5.0.10.0	5_exp_RW	21	Rpleas_acq	CS_B	GWWG	JXXJ	YDDY	BZZB	MQQM	VKKV	ehrlich	treu	fair	spielen	schön	retten	eitel	tot	faul	strafen	schlecht	rächen	1	acq_USunple_CSunple1_RW	acq4567_RW	5	17	400	0	300	300	528	46	0	1	1	blank2r.bmp	0	1	+	0	1	blank2r.bmp	492	1	YDDY	492	1	blank2r.bmp	572	2	tot	866	1	!	1239	1	!	-1	0	0	0	0	0	0	0	0	0	0	0	0	0	0	0	0	0	0	0	0	0	0	0	0	0	0	0	0	0	0
070819	15:38:54	15:48:45	588250	5.0.10.0	5_exp_RW	21	Rpleas_acq	CS_B	GWWG	JXXJ	YDDY	BZZB	MQQM	VKKV	ehrlich	treu	fair	spielen	schön	retten	eitel	tot	faul	strafen	schlecht	rächen	1	acq_USpleas_CSpleas1_RW	acq4567_RW	5	18	400	1	300	300	399	50	0	1	1	blank2r.bmp	0	1	+	0	1	blank2r.bmp	492	1	GWWG	492	1	blank2r.bmp	572	3	fair	866	1	!	1239	1	!	1306	0	0	0	0	0	0	0	0	0	0	0	0	0	0	0	0	0	0	0	0	0	0	0	0	0	0	0	0	0	0
070819	15:38:54	15:48:47	590583	5.0.10.0	5_exp_RW	21	Rpleas_acq	CS_B	GWWG	JXXJ	YDDY	BZZB	MQQM	VKKV	ehrlich	treu	fair	spielen	schön	retten	eitel	tot	faul	strafen	schlecht	rächen	1	acq_USpleas_CSpleas1_RW	acq4567_RW	5	19	400	0	300	300	563	50	0	1	1	blank2r.bmp	0	1	+	0	1	blank2r.bmp	492	1	GWWG	492	1	blank2r.bmp	572	2	treu	866	1	!	1239	1	!	-1	0	0	0	0	0	0	0	0	0	0	0	0	0	0	0	0	0	0	0	0	0	0	0	0	0	0	0	0	0	0
070819	15:38:54	15:48:49	593075	5.0.10.0	5_exp_RW	21	Rpleas_acq	CS_B	GWWG	JXXJ	YDDY	BZZB	MQQM	VKKV	ehrlich	treu	fair	spielen	schön	retten	eitel	tot	faul	strafen	schlecht	rächen	1	acq_USunple_CSunple1_RW	acq4567_RW	5	20	400	0	300	300	696	50	0	0	1	blank2r.bmp	0	1	+	0	1	blank2r.bmp	492	1	YDDY	492	1	blank2r.bmp	572	1	eitel	866	1	!	1239	1	!	-1	0	0	0	0	0	0	0	0	0	0	0	0	0	0	0	0	0	0	0	0	0	0	0	0	0	0	0	0	0	0
070819	15:38:54	15:48:52	595247	5.0.10.0	5_exp_RW	21	Rpleas_acq	CS_B	GWWG	JXXJ	YDDY	BZZB	MQQM	VKKV	ehrlich	treu	fair	spielen	schön	retten	eitel	tot	faul	strafen	schlecht	rächen	1	acq_USpleas_CSpleas2_RW	acq4567_RW	5	21	400	1	300	300	363	46	0	0	1	blank2r.bmp	0	1	+	0	1	blank2r.bmp	492	1	JXXJ	492	1	blank2r.bmp	572	3	retten	866	1	!	1239	1	!	1266	0	0	0	0	0	0	0	0	0	0	0	0	0	0	0	0	0	0	0	0	0	0	0	0	0	0	0	0	0	0
070819	15:38:54	15:48:54	597540	5.0.10.0	5_exp_RW	21	Rpleas_acq	CS_B	GWWG	JXXJ	YDDY	BZZB	MQQM	VKKV	ehrlich	treu	fair	spielen	schön	retten	eitel	tot	faul	strafen	schlecht	rächen	1	acq_USpleas_CSpleas2_RW	acq4567_RW	5	22	400	0	300	300	520	50	0	1	1	blank2r.bmp	0	1	+	0	1	blank2r.bmp	492	1	JXXJ	492	1	blank2r.bmp	572	1	spielen	866	1	!	1239	1	!	-1	0	0	0	0	0	0	0	0	0	0	0	0	0	0	0	0	0	0	0	0	0	0	0	0	0	0	0	0	0	0
070819	15:38:54	15:48:56	599805	5.0.10.0	5_exp_RW	21	Rpleas_acq	CS_B	GWWG	JXXJ	YDDY	BZZB	MQQM	VKKV	ehrlich	treu	fair	spielen	schön	retten	eitel	tot	faul	strafen	schlecht	rächen	1	acq_USunple_CSunple2_RW	acq4567_RW	5	23	400	1	300	300	443	46	0	1	1	blank2r.bmp	0	1	+	0	1	blank2r.bmp	492	1	BZZB	492	1	blank2r.bmp	572	3	rächen	866	1	!	1239	1	!	1346	0	0	0	0	0	0	0	0	0	0	0	0	0	0	0	0	0	0	0	0	0	0	0	0	0	0	0	0	0	0
070819	15:38:54	15:48:58	602124	5.0.10.0	5_exp_RW	21	Rpleas_acq	CS_B	GWWG	JXXJ	YDDY	BZZB	MQQM	VKKV	ehrlich	treu	fair	spielen	schön	retten	eitel	tot	faul	strafen	schlecht	rächen	1	acq_USpleas_CSpleas2_RW	acq4567_RW	5	24	400	0	300	300	545	50	0	1	1	blank2r.bmp	0	1	+	0	1	blank2r.bmp	492	1	JXXJ	492	1	blank2r.bmp	572	3	retten	866	1	!	1239	1	!	-1	0	0	0	0	0	0	0	0	0	0	0	0	0	0	0	0	0	0	0	0	0	0	0	0	0	0	0	0	0	0
070819	15:38:54	15:49:01	604670	5.0.10.0	5_exp_RW	21	Rpleas_acq	CS_B	GWWG	JXXJ	YDDY	BZZB	MQQM	VKKV	ehrlich	treu	fair	spielen	schön	retten	eitel	tot	faul	strafen	schlecht	rächen	1	acq_USunple_CSunple2_RW	acq4567_RW	5	25	400	0	300	300	751	46	0	1	1	blank2r.bmp	0	1	+	0	1	blank2r.bmp	492	1	BZZB	492	1	blank2r.bmp	572	2	schlecht	866	1	!	1239	1	!	-1	0	0	0	0	0	0	0	0	0	0	0	0	0	0	0	0	0	0	0	0	0	0	0	0	0	0	0	0	0	0
070819	15:38:54	15:49:03	606869	5.0.10.0	5_exp_RW	21	Rpleas_acq	CS_B	GWWG	JXXJ	YDDY	BZZB	MQQM	VKKV	ehrlich	treu	fair	spielen	schön	retten	eitel	tot	faul	strafen	schlecht	rächen	1	acq_USpleas_CSpleas1_RW	acq4567_RW	5	26	400	1	300	300	396	50	0	1	1	blank2r.bmp	0	1	+	0	1	blank2r.bmp	492	1	GWWG	492	1	blank2r.bmp	572	1	ehrlich	866	1	!	1239	1	!	1292	0	0	0	0	0	0	0	0	0	0	0	0	0	0	0	0	0	0	0	0	0	0	0	0	0	0	0	0	0	0
070819	15:38:54	15:49:06	609228	5.0.10.0	5_exp_RW	21	Rpleas_acq	CS_B	GWWG	JXXJ	YDDY	BZZB	MQQM	VKKV	ehrlich	treu	fair	spielen	schön	retten	eitel	tot	faul	strafen	schlecht	rächen	1	acq_USunple_CSunple1_RW	acq4567_RW	5	27	400	0	300	300	590	46	0	1	1	blank2r.bmp	0	1	+	0	1	blank2r.bmp	492	1	YDDY	492	1	blank2r.bmp	572	3	faul	866	1	!	1239	1	!	-1	0	0	0	0	0	0	0	0	0	0	0	0	0	0	0	0	0	0	0	0	0	0	0	0	0	0	0	0	0	0
070819	15:38:54	15:49:08	611334	5.0.10.0	5_exp_RW	21	Rpleas_acq	CS_B	GWWG	JXXJ	YDDY	BZZB	MQQM	VKKV	ehrlich	treu	fair	spielen	schön	retten	eitel	tot	faul	strafen	schlecht	rächen	1	acq_USunple_CSunple2_RW	acq4567_RW	5	28	400	0	300	300	318	50	0	0	1	blank2r.bmp	0	1	+	0	1	blank2r.bmp	492	1	BZZB	492	1	blank2r.bmp	572	1	strafen	866	1	!	-1	1	!	-1	0	0	0	0	0	0	0	0	0	0	0	0	0	0	0	0	0	0	0	0	0	0	0	0	0	0	0	0	0	0
070819	15:38:54	15:49:10	613973	5.0.10.0	5_exp_RW	21	Rpleas_acq	CS_B	GWWG	JXXJ	YDDY	BZZB	MQQM	VKKV	ehrlich	treu	fair	spielen	schön	retten	eitel	tot	faul	strafen	schlecht	rächen	1	acq_USunple_CSunple1_RW	acq4567_RW	5	29	400	0	300	300	858	46	0	1	1	blank2r.bmp	0	1	+	0	1	blank2r.bmp	492	1	YDDY	492	1	blank2r.bmp	572	1	eitel	866	1	!	1239	1	!	-1	0	0	0	0	0	0	0	0	0	0	0	0	0	0	0	0	0	0	0	0	0	0	0	0	0	0	0	0	0	0
070819	15:38:54	15:49:13	616292	5.0.10.0	5_exp_RW	21	Rpleas_acq	CS_B	GWWG	JXXJ	YDDY	BZZB	MQQM	VKKV	ehrlich	treu	fair	spielen	schön	retten	eitel	tot	faul	strafen	schlecht	rächen	1	acq_USunple_CSunple1_RW	acq4567_RW	5	30	400	0	300	300	533	46	0	1	1	blank2r.bmp	0	1	+	0	1	blank2r.bmp	492	1	YDDY	492	1	blank2r.bmp	572	3	faul	866	1	!	1239	1	!	-1	0	0	0	0	0	0	0	0	0	0	0	0	0	0	0	0	0	0	0	0	0	0	0	0	0	0	0	0	0	0
070819	15:38:54	15:49:15	618544	5.0.10.0	5_exp_RW	21	Rpleas_acq	CS_B	GWWG	JXXJ	YDDY	BZZB	MQQM	VKKV	ehrlich	treu	fair	spielen	schön	retten	eitel	tot	faul	strafen	schlecht	rächen	1	acq_USpleas_CSpleas2_RW	acq4567_RW	5	31	400	1	300	300	439	50	0	1	1	blank2r.bmp	0	1	+	0	1	blank2r.bmp	492	1	JXXJ	492	1	blank2r.bmp	572	2	schön	866	1	!	1239	1	!	1346	0	0	0	0	0	0	0	0	0	0	0	0	0	0	0	0	0	0	0	0	0	0	0	0	0	0	0	0	0	0
070819	15:38:54	15:49:17	620836	5.0.10.0	5_exp_RW	21	Rpleas_acq	CS_B	GWWG	JXXJ	YDDY	BZZB	MQQM	VKKV	ehrlich	treu	fair	spielen	schön	retten	eitel	tot	faul	strafen	schlecht	rächen	1	acq_USunple_CSunple2_RW	acq4567_RW	5	32	400	0	300	300	528	46	0	1	1	blank2r.bmp	0	1	+	0	1	blank2r.bmp	492	1	BZZB	492	1	blank2r.bmp	572	3	rächen	866	1	!	1239	1	!	-1	0	0	0	0	0	0	0	0	0	0	0	0	0	0	0	0	0	0	0	0	0	0	0	0	0	0	0	0	0	0
070819	15:38:54	15:49:20	623169	5.0.10.0	5_exp_RW	21	Rpleas_acq	CS_B	GWWG	JXXJ	YDDY	BZZB	MQQM	VKKV	ehrlich	treu	fair	spielen	schön	retten	eitel	tot	faul	strafen	schlecht	rächen	1	acq_USpleas_CSpleas1_RW	acq4567_RW	5	33	400	0	300	300	545	50	0	1	1	blank2r.bmp	0	1	+	0	1	blank2r.bmp	492	1	GWWG	492	1	blank2r.bmp	572	1	ehrlich	866	1	!	1239	1	!	-1	0	0	0	0	0	0	0	0	0	0	0	0	0	0	0	0	0	0	0	0	0	0	0	0	0	0	0	0	0	0
070819	15:38:54	15:49:22	625448	5.0.10.0	5_exp_RW	21	Rpleas_acq	CS_B	GWWG	JXXJ	YDDY	BZZB	MQQM	VKKV	ehrlich	treu	fair	spielen	schön	retten	eitel	tot	faul	strafen	schlecht	rächen	1	acq_USunple_CSunple1_RW	acq4567_RW	5	34	400	1	300	300	462	46	0	1	1	blank2r.bmp	0	1	+	0	1	blank2r.bmp	492	1	YDDY	492	1	blank2r.bmp	572	2	tot	866	1	!	1239	1	!	1359	0	0	0	0	0	0	0	0	0	0	0	0	0	0	0	0	0	0	0	0	0	0	0	0	0	0	0	0	0	0
070819	15:38:54	15:49:24	627993	5.0.10.0	5_exp_RW	21	Rpleas_acq	CS_B	GWWG	JXXJ	YDDY	BZZB	MQQM	VKKV	ehrlich	treu	fair	spielen	schön	retten	eitel	tot	faul	strafen	schlecht	rächen	1	acq_USpleas_CSpleas1_RW	acq4567_RW	5	35	400	0	300	300	778	50	0	1	1	blank2r.bmp	0	1	+	0	1	blank2r.bmp	492	1	GWWG	492	1	blank2r.bmp	572	2	treu	866	1	!	1239	1	!	-1	0	0	0	0	0	0	0	0	0	0	0	0	0	0	0	0	0	0	0	0	0	0	0	0	0	0	0	0	0	0
070819	15:38:54	15:49:27	630339	5.0.10.0	5_exp_RW	21	Rpleas_acq	CS_B	GWWG	JXXJ	YDDY	BZZB	MQQM	VKKV	ehrlich	treu	fair	spielen	schön	retten	eitel	tot	faul	strafen	schlecht	rächen	1	acq_USunple_CSunple1_RW	acq4567_RW	5	36	400	0	300	300	558	46	0	1	1	blank2r.bmp	0	1	+	0	1	blank2r.bmp	492	1	YDDY	492	1	blank2r.bmp	572	3	faul	866	1	!	1239	1	!	-1	0	0	0	0	0	0	0	0	0	0	0	0	0	0	0	0	0	0	0	0	0	0	0	0	0	0	0	0	0	0
070819	15:38:54	15:49:29	632671	5.0.10.0	5_exp_RW	21	Rpleas_acq	CS_B	GWWG	JXXJ	YDDY	BZZB	MQQM	VKKV	ehrlich	treu	fair	spielen	schön	retten	eitel	tot	faul	strafen	schlecht	rächen	1	acq_USunple_CSunple2_RW	acq4567_RW	5	37	400	0	300	300	556	46	0	1	1	blank2r.bmp	0	1	+	0	1	blank2r.bmp	492	1	BZZB	492	1	blank2r.bmp	572	3	rächen	866	1	!	1239	1	!	-1	0	0	0	0	0	0	0	0	0	0	0	0	0	0	0	0	0	0	0	0	0	0	0	0	0	0	0	0	0	0
070819	15:38:54	15:49:31	635030	5.0.10.0	5_exp_RW	21	Rpleas_acq	CS_B	GWWG	JXXJ	YDDY	BZZB	MQQM	VKKV	ehrlich	treu	fair	spielen	schön	retten	eitel	tot	faul	strafen	schlecht	rächen	1	acq_USpleas_CSpleas1_RW	acq4567_RW	5	38	400	0	300	300	575	50	0	1	1	blank2r.bmp	0	1	+	0	1	blank2r.bmp	492	1	GWWG	492	1	blank2r.bmp	572	3	fair	866	1	!	1239	1	!	-1	0	0	0	0	0	0	0	0	0	0	0	0	0	0	0	0	0	0	0	0	0	0	0	0	0	0	0	0	0	0
070819	15:38:54	15:49:34	637722	5.0.10.0	5_exp_RW	21	Rpleas_acq	CS_B	GWWG	JXXJ	YDDY	BZZB	MQQM	VKKV	ehrlich	treu	fair	spielen	schön	retten	eitel	tot	faul	strafen	schlecht	rächen	1	acq_USpleas_CSpleas2_RW	acq4567_RW	5	39	400	0	300	300	915	46	0	0	1	blank2r.bmp	0	1	+	0	1	blank2r.bmp	492	1	JXXJ	492	1	blank2r.bmp	572	3	retten	866	1	!	1239	1	!	-1	0	0	0	0	0	0	0	0	0	0	0	0	0	0	0	0	0	0	0	0	0	0	0	0	0	0	0	0	0	0
070819	15:38:54	15:49:37	640241	5.0.10.0	5_exp_RW	21	Rpleas_acq	CS_B	GWWG	JXXJ	YDDY	BZZB	MQQM	VKKV	ehrlich	treu	fair	spielen	schön	retten	eitel	tot	faul	strafen	schlecht	rächen	1	acq_USpleas_CSpleas1_RW	acq4567_RW	5	40	400	0	300	300	724	50	0	1	1	blank2r.bmp	0	1	+	0	1	blank2r.bmp	492	1	GWWG	492	1	blank2r.bmp	572	3	fair	866	1	!	1239	1	!	-1	0	0	0	0	0	0	0	0	0	0	0	0	0	0	0	0	0	0	0	0	0	0	0	0	0	0	0	0	0	0
070819	15:38:54	15:49:39	642520	5.0.10.0	5_exp_RW	21	Rpleas_acq	CS_B	GWWG	JXXJ	YDDY	BZZB	MQQM	VKKV	ehrlich	treu	fair	spielen	schön	retten	eitel	tot	faul	strafen	schlecht	rächen	1	acq_USunple_CSunple2_RW	acq4567_RW	5	41	400	0	300	300	498	46	0	1	1	blank2r.bmp	0	1	+	0	1	blank2r.bmp	492	1	BZZB	492	1	blank2r.bmp	572	1	strafen	866	1	!	1239	1	!	-1	0	0	0	0	0	0	0	0	0	0	0	0	0	0	0	0	0	0	0	0	0	0	0	0	0	0	0	0	0	0
070819	15:38:54	15:49:41	645106	5.0.10.0	5_exp_RW	21	Rpleas_acq	CS_B	GWWG	JXXJ	YDDY	BZZB	MQQM	VKKV	ehrlich	treu	fair	spielen	schön	retten	eitel	tot	faul	strafen	schlecht	rächen	1	acq_USunple_CSunple2_RW	acq4567_RW	5	42	400	0	300	300	797	46	0	1	1	blank2r.bmp	0	1	+	0	1	blank2r.bmp	492	1	BZZB	492	1	blank2r.bmp	572	2	schlecht	866	1	!	1239	1	!	-1	0	0	0	0	0	0	0	0	0	0	0	0	0	0	0	0	0	0	0	0	0	0	0	0	0	0	0	0	0	0
070819	15:38:54	15:49:44	647438	5.0.10.0	5_exp_RW	21	Rpleas_acq	CS_B	GWWG	JXXJ	YDDY	BZZB	MQQM	VKKV	ehrlich	treu	fair	spielen	schön	retten	eitel	tot	faul	strafen	schlecht	rächen	1	acq_USpleas_CSpleas2_RW	acq4567_RW	5	43	400	0	300	300	553	50	0	1	1	blank2r.bmp	0	1	+	0	1	blank2r.bmp	492	1	JXXJ	492	1	blank2r.bmp	572	1	spielen	866	1	!	1239	1	!	-1	0	0	0	0	0	0	0	0	0	0	0	0	0	0	0	0	0	0	0	0	0	0	0	0	0	0	0	0	0	0
070819	15:38:54	15:49:46	649704	5.0.10.0	5_exp_RW	21	Rpleas_acq	CS_B	GWWG	JXXJ	YDDY	BZZB	MQQM	VKKV	ehrlich	treu	fair	spielen	schön	retten	eitel	tot	faul	strafen	schlecht	rächen	1	acq_USpleas_CSpleas2_RW	acq4567_RW	5	44	400	0	300	300	480	50	0	1	1	blank2r.bmp	0	1	+	0	1	blank2r.bmp	492	1	JXXJ	492	1	blank2r.bmp	572	2	schön	866	1	!	1239	1	!	-1	0	0	0	0	0	0	0	0	0	0	0	0	0	0	0	0	0	0	0	0	0	0	0	0	0	0	0	0	0	0
070819	15:38:54	15:49:48	652049	5.0.10.0	5_exp_RW	21	Rpleas_acq	CS_B	GWWG	JXXJ	YDDY	BZZB	MQQM	VKKV	ehrlich	treu	fair	spielen	schön	retten	eitel	tot	faul	strafen	schlecht	rächen	1	acq_USunple_CSunple2_RW	acq4567_RW	5	45	400	0	300	300	546	46	0	1	1	blank2r.bmp	0	1	+	0	1	blank2r.bmp	492	1	BZZB	492	1	blank2r.bmp	572	3	rächen	866	1	!	1239	1	!	-1	0	0	0	0	0	0	0	0	0	0	0	0	0	0	0	0	0	0	0	0	0	0	0	0	0	0	0	0	0	0
070819	15:38:54	15:49:51	654368	5.0.10.0	5_exp_RW	21	Rpleas_acq	CS_B	GWWG	JXXJ	YDDY	BZZB	MQQM	VKKV	ehrlich	treu	fair	spielen	schön	retten	eitel	tot	faul	strafen	schlecht	rächen	1	acq_USunple_CSunple1_RW	acq4567_RW	5	46	400	0	300	300	533	46	0	1	1	blank2r.bmp	0	1	+	0	1	blank2r.bmp	492	1	YDDY	492	1	blank2r.bmp	572	2	tot	866	1	!	1239	1	!	-1	0	0	0	0	0	0	0	0	0	0	0	0	0	0	0	0	0	0	0	0	0	0	0	0	0	0	0	0	0	0
070819	15:38:54	15:49:53	656741	5.0.10.0	5_exp_RW	21	Rpleas_acq	CS_B	GWWG	JXXJ	YDDY	BZZB	MQQM	VKKV	ehrlich	treu	fair	spielen	schön	retten	eitel	tot	faul	strafen	schlecht	rächen	1	acq_USpleas_CSpleas1_RW	acq4567_RW	5	47	400	0	300	300	574	50	0	1	1	blank2r.bmp	0	1	+	0	1	blank2r.bmp	492	1	GWWG	492	1	blank2r.bmp	572	1	ehrlich	866	1	!	1239	1	!	-1	0	0	0	0	0	0	0	0	0	0	0	0	0	0	0	0	0	0	0	0	0	0	0	0	0	0	0	0	0	0
070819	15:38:54	15:49:56	659406	5.0.10.0	5_exp_RW	21	Rpleas_acq	CS_B	GWWG	JXXJ	YDDY	BZZB	MQQM	VKKV	ehrlich	treu	fair	spielen	schön	retten	eitel	tot	faul	strafen	schlecht	rächen	1	acq_USunple_CSunple1_RW	acq4567_RW	5	48	400	0	300	300	868	46	0	1	1	blank2r.bmp	0	1	+	0	1	blank2r.bmp	492	1	YDDY	492	1	blank2r.bmp	572	1	eitel	866	1	!	1239	1	!	-1	0	0	0	0	0	0	0	0	0	0	0	0	0	0	0	0	0	0	0	0	0	0	0	0	0	0	0	0	0	0
070819	15:38:54	15:49:59	662218	5.0.10.0	5_exp_RW	21	Rpleas_acq	CS_B	GWWG	JXXJ	YDDY	BZZB	MQQM	VKKV	ehrlich	treu	fair	spielen	schön	retten	eitel	tot	faul	strafen	schlecht	rächen	1	acq_USpleas_CSpleas1_RW	acq4567_RW	5	49	400	0	300	300	1015	46	0	0	1	blank2r.bmp	0	1	+	0	1	blank2r.bmp	492	1	GWWG	492	1	blank2r.bmp	572	2	treu	866	1	!	1239	1	!	-1	0	0	0	0	0	0	0	0	0	0	0	0	0	0	0	0	0	0	0	0	0	0	0	0	0	0	0	0	0	0
070819	15:38:54	15:50:01	664751	5.0.10.0	5_exp_RW	21	Rpleas_acq	CS_B	GWWG	JXXJ	YDDY	BZZB	MQQM	VKKV	ehrlich	treu	fair	spielen	schön	retten	eitel	tot	faul	strafen	schlecht	rächen	1	acq_USpleas_CSpleas2_RW	acq4567_RW	5	50	400	0	300	300	749	50	0	1	1	blank2r.bmp	0	1	+	0	1	blank2r.bmp	492	1	JXXJ	492	1	blank2r.bmp	572	3	retten	866	1	!	1239	1	!	-1	0	0	0	0	0	0	0	0	0	0	0	0	0	0	0	0	0	0	0	0	0	0	0	0	0	0	0	0	0	0
070819	15:38:54	15:50:03	667030	5.0.10.0	5_exp_RW	21	Rpleas_acq	CS_B	GWWG	JXXJ	YDDY	BZZB	MQQM	VKKV	ehrlich	treu	fair	spielen	schön	retten	eitel	tot	faul	strafen	schlecht	rächen	1	acq_USpleas_CSpleas2_RW	acq4567_RW	5	51	400	0	300	300	492	50	0	1	1	blank2r.bmp	0	1	+	0	1	blank2r.bmp	492	1	JXXJ	492	1	blank2r.bmp	572	2	schön	866	1	!	1239	1	!	-1	0	0	0	0	0	0	0	0	0	0	0	0	0	0	0	0	0	0	0	0	0	0	0	0	0	0	0	0	0	0
070819	15:38:54	15:50:06	669349	5.0.10.0	5_exp_RW	21	Rpleas_acq	CS_B	GWWG	JXXJ	YDDY	BZZB	MQQM	VKKV	ehrlich	treu	fair	spielen	schön	retten	eitel	tot	faul	strafen	schlecht	rächen	1	acq_USpleas_CSpleas2_RW	acq4567_RW	5	52	400	0	300	300	543	50	0	1	1	blank2r.bmp	0	1	+	0	1	blank2r.bmp	492	1	JXXJ	492	1	blank2r.bmp	572	1	spielen	866	1	!	1239	1	!	-1	0	0	0	0	0	0	0	0	0	0	0	0	0	0	0	0	0	0	0	0	0	0	0	0	0	0	0	0	0	0
070819	15:38:54	15:50:08	671654	5.0.10.0	5_exp_RW	21	Rpleas_acq	CS_B	GWWG	JXXJ	YDDY	BZZB	MQQM	VKKV	ehrlich	treu	fair	spielen	schön	retten	eitel	tot	faul	strafen	schlecht	rächen	1	acq_USunple_CSunple1_RW	acq4567_RW	5	53	400	0	300	300	526	46	0	1	1	blank2r.bmp	0	1	+	0	1	blank2r.bmp	492	1	YDDY	492	1	blank2r.bmp	572	2	tot	866	1	!	1239	1	!	-1	0	0	0	0	0	0	0	0	0	0	0	0	0	0	0	0	0	0	0	0	0	0	0	0	0	0	0	0	0	0
070819	15:38:54	15:50:11	674320	5.0.10.0	5_exp_RW	21	Rpleas_acq	CS_B	GWWG	JXXJ	YDDY	BZZB	MQQM	VKKV	ehrlich	treu	fair	spielen	schön	retten	eitel	tot	faul	strafen	schlecht	rächen	1	acq_USpleas_CSpleas1_RW	acq4567_RW	5	54	400	0	300	300	879	46	0	0	1	blank2r.bmp	0	1	+	0	1	blank2r.bmp	492	1	GWWG	492	1	blank2r.bmp	572	2	treu	866	1	!	1239	1	!	-1	0	0	0	0	0	0	0	0	0	0	0	0	0	0	0	0	0	0	0	0	0	0	0	0	0	0	0	0	0	0
070819	15:38:54	15:50:13	676586	5.0.10.0	5_exp_RW	21	Rpleas_acq	CS_B	GWWG	JXXJ	YDDY	BZZB	MQQM	VKKV	ehrlich	treu	fair	spielen	schön	retten	eitel	tot	faul	strafen	schlecht	rächen	1	acq_USpleas_CSpleas1_RW	acq4567_RW	5	55	400	1	300	300	444	50	0	1	1	blank2r.bmp	0	1	+	0	1	blank2r.bmp	492	1	GWWG	492	1	blank2r.bmp	572	3	fair	866	1	!	1239	1	!	1346	0	0	0	0	0	0	0	0	0	0	0	0	0	0	0	0	0	0	0	0	0	0	0	0	0	0	0	0	0	0
070819	15:38:54	15:50:16	679331	5.0.10.0	5_exp_RW	21	Rpleas_acq	CS_B	GWWG	JXXJ	YDDY	BZZB	MQQM	VKKV	ehrlich	treu	fair	spielen	schön	retten	eitel	tot	faul	strafen	schlecht	rächen	1	acq_USunple_CSunple1_RW	acq4567_RW	5	56	400	0	300	300	978	46	0	1	1	blank2r.bmp	0	1	+	0	1	blank2r.bmp	492	1	YDDY	492	1	blank2r.bmp	572	1	eitel	866	1	!	1239	1	!	-1	0	0	0	0	0	0	0	0	0	0	0	0	0	0	0	0	0	0	0	0	0	0	0	0	0	0	0	0	0	0
070819	15:38:54	15:50:18	681837	5.0.10.0	5_exp_RW	21	Rpleas_acq	CS_B	GWWG	JXXJ	YDDY	BZZB	MQQM	VKKV	ehrlich	treu	fair	spielen	schön	retten	eitel	tot	faul	strafen	schlecht	rächen	1	acq_USunple_CSunple2_RW	acq4567_RW	5	57	400	0	300	300	721	46	0	1	1	blank2r.bmp	0	1	+	0	1	blank2r.bmp	492	1	BZZB	492	1	blank2r.bmp	572	2	schlecht	866	1	!	1239	1	!	-1	0	0	0	0	0	0	0	0	0	0	0	0	0	0	0	0	0	0	0	0	0	0	0	0	0	0	0	0	0	0
070819	15:38:54	15:50:21	684262	5.0.10.0	5_exp_RW	21	Rpleas_acq	CS_B	GWWG	JXXJ	YDDY	BZZB	MQQM	VKKV	ehrlich	treu	fair	spielen	schön	retten	eitel	tot	faul	strafen	schlecht	rächen	1	acq_USunple_CSunple1_RW	acq4567_RW	5	58	400	0	300	300	650	46	0	1	1	blank2r.bmp	0	1	+	0	1	blank2r.bmp	492	1	YDDY	492	1	blank2r.bmp	572	3	faul	866	1	!	1239	1	!	-1	0	0	0	0	0	0	0	0	0	0	0	0	0	0	0	0	0	0	0	0	0	0	0	0	0	0	0	0	0	0
070819	15:38:54	15:50:23	686621	5.0.10.0	5_exp_RW	21	Rpleas_acq	CS_B	GWWG	JXXJ	YDDY	BZZB	MQQM	VKKV	ehrlich	treu	fair	spielen	schön	retten	eitel	tot	faul	strafen	schlecht	rächen	1	acq_USpleas_CSpleas1_RW	acq4567_RW	5	59	400	0	300	300	583	50	0	1	1	blank2r.bmp	0	1	+	0	1	blank2r.bmp	492	1	GWWG	492	1	blank2r.bmp	572	1	ehrlich	866	1	!	1239	1	!	-1	0	0	0	0	0	0	0	0	0	0	0	0	0	0	0	0	0	0	0	0	0	0	0	0	0	0	0	0	0	0
070819	15:38:54	15:50:26	689193	5.0.10.0	5_exp_RW	21	Rpleas_acq	CS_B	GWWG	JXXJ	YDDY	BZZB	MQQM	VKKV	ehrlich	treu	fair	spielen	schön	retten	eitel	tot	faul	strafen	schlecht	rächen	1	acq_USunple_CSunple2_RW	acq4567_RW	5	60	400	0	300	300	793	46	0	1	1	blank2r.bmp	0	1	+	0	1	blank2r.bmp	492	1	BZZB	492	1	blank2r.bmp	572	1	strafen	866	1	!	1239	1	!	-1	0	0	0	0	0	0	0	0	0	0	0	0	0	0	0	0	0	0	0	0	0	0	0	0	0	0	0	0	0	0
070819	15:38:54	15:50:28	691632	5.0.10.0	5_exp_RW	21	Rpleas_acq	CS_B	GWWG	JXXJ	YDDY	BZZB	MQQM	VKKV	ehrlich	treu	fair	spielen	schön	retten	eitel	tot	faul	strafen	schlecht	rächen	1	acq_USpleas_CSpleas1_RW	acq4567_RW	5	61	400	0	300	300	652	50	0	1	1	blank2r.bmp	0	1	+	0	1	blank2r.bmp	492	1	GWWG	492	1	blank2r.bmp	572	3	fair	866	1	!	1239	1	!	-1	0	0	0	0	0	0	0	0	0	0	0	0	0	0	0	0	0	0	0	0	0	0	0	0	0	0	0	0	0	0
070819	15:38:54	15:50:31	694138	5.0.10.0	5_exp_RW	21	Rpleas_acq	CS_B	GWWG	JXXJ	YDDY	BZZB	MQQM	VKKV	ehrlich	treu	fair	spielen	schön	retten	eitel	tot	faul	strafen	schlecht	rächen	1	acq_USunple_CSunple1_RW	acq4567_RW	5	62	400	0	300	300	719	46	0	1	1	blank2r.bmp	0	1	+	0	1	blank2r.bmp	492	1	YDDY	492	1	blank2r.bmp	572	2	tot	866	1	!	1239	1	!	-1	0	0	0	0	0	0	0	0	0	0	0	0	0	0	0	0	0	0	0	0	0	0	0	0	0	0	0	0	0	0
070819	15:38:54	15:50:33	696657	5.0.10.0	5_exp_RW	21	Rpleas_acq	CS_B	GWWG	JXXJ	YDDY	BZZB	MQQM	VKKV	ehrlich	treu	fair	spielen	schön	retten	eitel	tot	faul	strafen	schlecht	rächen	1	acq_USunple_CSunple2_RW	acq4567_RW	5	63	400	0	300	300	731	46	0	1	1	blank2r.bmp	0	1	+	0	1	blank2r.bmp	492	1	BZZB	492	1	blank2r.bmp	572	2	schlecht	866	1	!	1239	1	!	-1	0	0	0	0	0	0	0	0	0	0	0	0	0	0	0	0	0	0	0	0	0	0	0	0	0	0	0	0	0	0
070819	15:38:54	15:50:36	699282	5.0.10.0	5_exp_RW	21	Rpleas_acq	CS_B	GWWG	JXXJ	YDDY	BZZB	MQQM	VKKV	ehrlich	treu	fair	spielen	schön	retten	eitel	tot	faul	strafen	schlecht	rächen	1	acq_USunple_CSunple1_RW	acq4567_RW	5	64	400	0	300	300	836	50	0	0	1	blank2r.bmp	0	1	+	0	1	blank2r.bmp	492	1	YDDY	492	1	blank2r.bmp	572	1	eitel	866	1	!	1239	1	!	-1	0	0	0	0	0	0	0	0	0	0	0	0	0	0	0	0	0	0	0	0	0	0	0	0	0	0	0	0	0	0
070819	15:38:54	15:50:38	701548	5.0.10.0	5_exp_RW	21	Rpleas_acq	CS_B	GWWG	JXXJ	YDDY	BZZB	MQQM	VKKV	ehrlich	treu	fair	spielen	schön	retten	eitel	tot	faul	strafen	schlecht	rächen	1	acq_USunple_CSunple2_RW	acq4567_RW	5	65	400	0	300	300	479	46	0	1	1	blank2r.bmp	0	1	+	0	1	blank2r.bmp	492	1	BZZB	492	1	blank2r.bmp	572	3	rächen	866	1	!	1239	1	!	-1	0	0	0	0	0	0	0	0	0	0	0	0	0	0	0	0	0	0	0	0	0	0	0	0	0	0	0	0	0	0
070819	15:38:54	15:50:40	703827	5.0.10.0	5_exp_RW	21	Rpleas_acq	CS_B	GWWG	JXXJ	YDDY	BZZB	MQQM	VKKV	ehrlich	treu	fair	spielen	schön	retten	eitel	tot	faul	strafen	schlecht	rächen	1	acq_USunple_CSunple1_RW	acq4567_RW	5	66	400	0	300	300	499	46	0	1	1	blank2r.bmp	0	1	+	0	1	blank2r.bmp	492	1	YDDY	492	1	blank2r.bmp	572	3	faul	866	1	!	1239	1	!	-1	0	0	0	0	0	0	0	0	0	0	0	0	0	0	0	0	0	0	0	0	0	0	0	0	0	0	0	0	0	0
070819	15:38:54	15:50:42	706093	5.0.10.0	5_exp_RW	21	Rpleas_acq	CS_B	GWWG	JXXJ	YDDY	BZZB	MQQM	VKKV	ehrlich	treu	fair	spielen	schön	retten	eitel	tot	faul	strafen	schlecht	rächen	1	acq_USunple_CSunple1_RW	acq4567_RW	5	67	400	1	300	300	456	46	0	1	1	blank2r.bmp	0	1	+	0	1	blank2r.bmp	492	1	YDDY	492	1	blank2r.bmp	572	3	faul	866	1	!	1239	1	!	1359	0	0	0	0	0	0	0	0	0	0	0	0	0	0	0	0	0	0	0	0	0	0	0	0	0	0	0	0	0	0
070819	15:38:54	15:50:45	708438	5.0.10.0	5_exp_RW	21	Rpleas_acq	CS_B	GWWG	JXXJ	YDDY	BZZB	MQQM	VKKV	ehrlich	treu	fair	spielen	schön	retten	eitel	tot	faul	strafen	schlecht	rächen	1	acq_USpleas_CSpleas1_RW	acq4567_RW	5	68	400	0	300	300	558	50	0	1	1	blank2r.bmp	0	1	+	0	1	blank2r.bmp	492	1	GWWG	492	1	blank2r.bmp	572	2	treu	866	1	!	1239	1	!	-1	0	0	0	0	0	0	0	0	0	0	0	0	0	0	0	0	0	0	0	0	0	0	0	0	0	0	0	0	0	0
070819	15:38:54	15:50:47	710837	5.0.10.0	5_exp_RW	21	Rpleas_acq	CS_B	GWWG	JXXJ	YDDY	BZZB	MQQM	VKKV	ehrlich	treu	fair	spielen	schön	retten	eitel	tot	faul	strafen	schlecht	rächen	1	acq_USpleas_CSpleas1_RW	acq4567_RW	5	69	400	0	300	300	615	50	0	1	1	blank2r.bmp	0	1	+	0	1	blank2r.bmp	492	1	GWWG	492	1	blank2r.bmp	572	1	ehrlich	866	1	!	1239	1	!	-1	0	0	0	0	0	0	0	0	0	0	0	0	0	0	0	0	0	0	0	0	0	0	0	0	0	0	0	0	0	0
070819	15:38:54	15:50:49	713116	5.0.10.0	5_exp_RW	21	Rpleas_acq	CS_B	GWWG	JXXJ	YDDY	BZZB	MQQM	VKKV	ehrlich	treu	fair	spielen	schön	retten	eitel	tot	faul	strafen	schlecht	rächen	1	acq_USpleas_CSpleas1_RW	acq4567_RW	5	70	400	1	300	300	458	50	0	1	1	blank2r.bmp	0	1	+	0	1	blank2r.bmp	492	1	GWWG	492	1	blank2r.bmp	572	1	ehrlich	866	1	!	1239	1	!	1359	0	0	0	0	0	0	0	0	0	0	0	0	0	0	0	0	0	0	0	0	0	0	0	0	0	0	0	0	0	0
070819	15:38:54	15:50:52	715395	5.0.10.0	5_exp_RW	21	Rpleas_acq	CS_B	GWWG	JXXJ	YDDY	BZZB	MQQM	VKKV	ehrlich	treu	fair	spielen	schön	retten	eitel	tot	faul	strafen	schlecht	rächen	1	acq_USunple_CSunple2_RW	acq4567_RW	5	71	400	0	300	300	511	46	0	1	1	blank2r.bmp	0	1	+	0	1	blank2r.bmp	492	1	BZZB	492	1	blank2r.bmp	572	1	strafen	866	1	!	1239	1	!	-1	0	0	0	0	0	0	0	0	0	0	0	0	0	0	0	0	0	0	0	0	0	0	0	0	0	0	0	0	0	0
070819	15:38:54	15:50:54	717688	5.0.10.0	5_exp_RW	21	Rpleas_acq	CS_B	GWWG	JXXJ	YDDY	BZZB	MQQM	VKKV	ehrlich	treu	fair	spielen	schön	retten	eitel	tot	faul	strafen	schlecht	rächen	1	acq_USpleas_CSpleas2_RW	acq4567_RW	5	72	400	0	300	300	517	50	0	1	1	blank2r.bmp	0	1	+	0	1	blank2r.bmp	492	1	JXXJ	492	1	blank2r.bmp	572	1	spielen	866	1	!	1239	1	!	-1	0	0	0	0	0	0	0	0	0	0	0	0	0	0	0	0	0	0	0	0	0	0	0	0	0	0	0	0	0	0
070819	15:38:54	15:50:56	720007	5.0.10.0	5_exp_RW	21	Rpleas_acq	CS_B	GWWG	JXXJ	YDDY	BZZB	MQQM	VKKV	ehrlich	treu	fair	spielen	schön	retten	eitel	tot	faul	strafen	schlecht	rächen	1	acq_USpleas_CSpleas2_RW	acq4567_RW	5	73	400	0	300	300	528	50	0	1	1	blank2r.bmp	0	1	+	0	1	blank2r.bmp	492	1	JXXJ	492	1	blank2r.bmp	572	2	schön	866	1	!	1239	1	!	-1	0	0	0	0	0	0	0	0	0	0	0	0	0	0	0	0	0	0	0	0	0	0	0	0	0	0	0	0	0	0
070819	15:38:54	15:50:59	722299	5.0.10.0	5_exp_RW	21	Rpleas_acq	CS_B	GWWG	JXXJ	YDDY	BZZB	MQQM	VKKV	ehrlich	treu	fair	spielen	schön	retten	eitel	tot	faul	strafen	schlecht	rächen	1	acq_USunple_CSunple1_RW	acq4567_RW	5	74	400	0	300	300	517	46	0	1	1	blank2r.bmp	0	1	+	0	1	blank2r.bmp	492	1	YDDY	492	1	blank2r.bmp	572	1	eitel	866	1	!	1239	1	!	-1	0	0	0	0	0	0	0	0	0	0	0	0	0	0	0	0	0	0	0	0	0	0	0	0	0	0	0	0	0	0
070819	15:38:54	15:51:01	724658	5.0.10.0	5_exp_RW	21	Rpleas_acq	CS_B	GWWG	JXXJ	YDDY	BZZB	MQQM	VKKV	ehrlich	treu	fair	spielen	schön	retten	eitel	tot	faul	strafen	schlecht	rächen	1	acq_USpleas_CSpleas2_RW	acq4567_RW	5	75	400	0	300	300	571	50	0	1	1	blank2r.bmp	0	1	+	0	1	blank2r.bmp	492	1	JXXJ	492	1	blank2r.bmp	572	3	retten	866	1	!	1239	1	!	-1	0	0	0	0	0	0	0	0	0	0	0	0	0	0	0	0	0	0	0	0	0	0	0	0	0	0	0	0	0	0
070819	15:38:54	15:51:03	726950	5.0.10.0	5_exp_RW	21	Rpleas_acq	CS_B	GWWG	JXXJ	YDDY	BZZB	MQQM	VKKV	ehrlich	treu	fair	spielen	schön	retten	eitel	tot	faul	strafen	schlecht	rächen	1	acq_USunple_CSunple2_RW	acq4567_RW	5	76	400	0	300	300	516	46	0	1	1	blank2r.bmp	0	1	+	0	1	blank2r.bmp	492	1	BZZB	492	1	blank2r.bmp	572	1	strafen	866	1	!	1239	1	!	-1	0	0	0	0	0	0	0	0	0	0	0	0	0	0	0	0	0	0	0	0	0	0	0	0	0	0	0	0	0	0
070819	15:38:54	15:51:06	729203	5.0.10.0	5_exp_RW	21	Rpleas_acq	CS_B	GWWG	JXXJ	YDDY	BZZB	MQQM	VKKV	ehrlich	treu	fair	spielen	schön	retten	eitel	tot	faul	strafen	schlecht	rächen	1	acq_USpleas_CSpleas2_RW	acq4567_RW	5	77	400	1	300	300	451	50	0	1	1	blank2r.bmp	0	1	+	0	1	blank2r.bmp	492	1	JXXJ	492	1	blank2r.bmp	572	3	retten	866	1	!	1239	1	!	1346	0	0	0	0	0	0	0	0	0	0	0	0	0	0	0	0	0	0	0	0	0	0	0	0	0	0	0	0	0	0
070819	15:38:54	15:51:08	731455	5.0.10.0	5_exp_RW	21	Rpleas_acq	CS_B	GWWG	JXXJ	YDDY	BZZB	MQQM	VKKV	ehrlich	treu	fair	spielen	schön	retten	eitel	tot	faul	strafen	schlecht	rächen	1	acq_USpleas_CSpleas1_RW	acq4567_RW	5	78	400	1	300	300	461	50	0	1	1	blank2r.bmp	0	1	+	0	1	blank2r.bmp	492	1	GWWG	492	1	blank2r.bmp	572	2	treu	866	1	!	1239	1	!	1359	0	0	0	0	0	0	0	0	0	0	0	0	0	0	0	0	0	0	0	0	0	0	0	0	0	0	0	0	0	0
070819	15:38:54	15:51:10	733667	5.0.10.0	5_exp_RW	21	Rpleas_acq	CS_B	GWWG	JXXJ	YDDY	BZZB	MQQM	VKKV	ehrlich	treu	fair	spielen	schön	retten	eitel	tot	faul	strafen	schlecht	rächen	1	acq_USpleas_CSpleas2_RW	acq4567_RW	5	79	400	1	300	300	421	50	0	1	1	blank2r.bmp	0	1	+	0	1	blank2r.bmp	492	1	JXXJ	492	1	blank2r.bmp	572	2	schön	866	1	!	1239	1	!	1319	0	0	0	0	0	0	0	0	0	0	0	0	0	0	0	0	0	0	0	0	0	0	0	0	0	0	0	0	0	0
070819	15:38:54	15:51:12	735933	5.0.10.0	5_exp_RW	21	Rpleas_acq	CS_B	GWWG	JXXJ	YDDY	BZZB	MQQM	VKKV	ehrlich	treu	fair	spielen	schön	retten	eitel	tot	faul	strafen	schlecht	rächen	1	acq_USunple_CSunple2_RW	acq4567_RW	5	80	400	0	300	300	492	46	0	1	1	blank2r.bmp	0	1	+	0	1	blank2r.bmp	492	1	BZZB	492	1	blank2r.bmp	572	3	rächen	866	1	!	1239	1	!	-1	0	0	0	0	0	0	0	0	0	0	0	0	0	0	0	0	0	0	0	0	0	0	0	0	0	0	0	0	0	0
070819	15:38:54	15:51:26	749634	5.0.10.0	5_exp_RW	21	Rpleas_acq	CS_B	GWWG	JXXJ	YDDY	BZZB	MQQM	VKKV	ehrlich	treu	fair	spielen	schön	retten	eitel	tot	faul	strafen	schlecht	rächen	1	acq_USpleas_CSpleas1_RW	acq4567_RW	6	1	400	1	300	300	403	50	0	1	1	blank2r.bmp	0	1	+	0	1	blank2r.bmp	492	1	GWWG	492	1	blank2r.bmp	572	3	fair	866	1	!	1239	1	!	1306	0	0	0	0	0	0	0	0	0	0	0	0	0	0	0	0	0	0	0	0	0	0	0	0	0	0	0	0	0	0
070819	15:38:54	15:51:28	751886	5.0.10.0	5_exp_RW	21	Rpleas_acq	CS_B	GWWG	JXXJ	YDDY	BZZB	MQQM	VKKV	ehrlich	treu	fair	spielen	schön	retten	eitel	tot	faul	strafen	schlecht	rächen	1	acq_USunple_CSunple2_RW	acq4567_RW	6	2	400	1	300	300	456	50	0	0	1	blank2r.bmp	0	1	+	0	1	blank2r.bmp	492	1	BZZB	492	1	blank2r.bmp	572	2	schlecht	866	1	!	1239	1	!	1359	0	0	0	0	0	0	0	0	0	0	0	0	0	0	0	0	0	0	0	0	0	0	0	0	0	0	0	0	0	0
070819	15:38:54	15:51:31	754232	5.0.10.0	5_exp_RW	21	Rpleas_acq	CS_B	GWWG	JXXJ	YDDY	BZZB	MQQM	VKKV	ehrlich	treu	fair	spielen	schön	retten	eitel	tot	faul	strafen	schlecht	rächen	1	acq_USpleas_CSpleas1_RW	acq4567_RW	6	3	400	0	300	300	571	50	0	1	1	blank2r.bmp	0	1	+	0	1	blank2r.bmp	492	1	GWWG	492	1	blank2r.bmp	572	1	ehrlich	866	1	!	1239	1	!	-1	0	0	0	0	0	0	0	0	0	0	0	0	0	0	0	0	0	0	0	0	0	0	0	0	0	0	0	0	0	0
070819	15:38:54	15:51:33	756524	5.0.10.0	5_exp_RW	21	Rpleas_acq	CS_B	GWWG	JXXJ	YDDY	BZZB	MQQM	VKKV	ehrlich	treu	fair	spielen	schön	retten	eitel	tot	faul	strafen	schlecht	rächen	1	acq_USunple_CSunple1_RW	acq4567_RW	6	4	400	0	300	300	509	46	0	1	1	blank2r.bmp	0	1	+	0	1	blank2r.bmp	492	1	YDDY	492	1	blank2r.bmp	572	2	tot	866	1	!	1239	1	!	-1	0	0	0	0	0	0	0	0	0	0	0	0	0	0	0	0	0	0	0	0	0	0	0	0	0	0	0	0	0	0
070819	15:38:54	15:51:35	758790	5.0.10.0	5_exp_RW	21	Rpleas_acq	CS_B	GWWG	JXXJ	YDDY	BZZB	MQQM	VKKV	ehrlich	treu	fair	spielen	schön	retten	eitel	tot	faul	strafen	schlecht	rächen	1	acq_USpleas_CSpleas2_RW	acq4567_RW	6	5	400	0	300	300	479	50	0	1	1	blank2r.bmp	0	1	+	0	1	blank2r.bmp	492	1	JXXJ	492	1	blank2r.bmp	572	1	spielen	866	1	!	1239	1	!	-1	0	0	0	0	0	0	0	0	0	0	0	0	0	0	0	0	0	0	0	0	0	0	0	0	0	0	0	0	0	0
070819	15:38:54	15:51:37	761109	5.0.10.0	5_exp_RW	21	Rpleas_acq	CS_B	GWWG	JXXJ	YDDY	BZZB	MQQM	VKKV	ehrlich	treu	fair	spielen	schön	retten	eitel	tot	faul	strafen	schlecht	rächen	1	acq_USunple_CSunple1_RW	acq4567_RW	6	6	400	0	300	300	525	46	0	1	1	blank2r.bmp	0	1	+	0	1	blank2r.bmp	492	1	YDDY	492	1	blank2r.bmp	572	3	faul	866	1	!	1239	1	!	-1	0	0	0	0	0	0	0	0	0	0	0	0	0	0	0	0	0	0	0	0	0	0	0	0	0	0	0	0	0	0
070819	15:38:54	15:51:40	763508	5.0.10.0	5_exp_RW	21	Rpleas_acq	CS_B	GWWG	JXXJ	YDDY	BZZB	MQQM	VKKV	ehrlich	treu	fair	spielen	schön	retten	eitel	tot	faul	strafen	schlecht	rächen	1	acq_USunple_CSunple2_RW	acq4567_RW	6	7	400	0	300	300	611	46	0	1	1	blank2r.bmp	0	1	+	0	1	blank2r.bmp	492	1	BZZB	492	1	blank2r.bmp	572	3	rächen	866	1	!	1239	1	!	-1	0	0	0	0	0	0	0	0	0	0	0	0	0	0	0	0	0	0	0	0	0	0	0	0	0	0	0	0	0	0
070819	15:38:54	15:51:42	765774	5.0.10.0	5_exp_RW	21	Rpleas_acq	CS_B	GWWG	JXXJ	YDDY	BZZB	MQQM	VKKV	ehrlich	treu	fair	spielen	schön	retten	eitel	tot	faul	strafen	schlecht	rächen	1	acq_USpleas_CSpleas2_RW	acq4567_RW	6	8	400	1	300	300	458	50	0	1	1	blank2r.bmp	0	1	+	0	1	blank2r.bmp	492	1	JXXJ	492	1	blank2r.bmp	572	3	retten	866	1	!	1239	1	!	1359	0	0	0	0	0	0	0	0	0	0	0	0	0	0	0	0	0	0	0	0	0	0	0	0	0	0	0	0	0	0
070819	15:38:54	15:51:45	768212	5.0.10.0	5_exp_RW	21	Rpleas_acq	CS_B	GWWG	JXXJ	YDDY	BZZB	MQQM	VKKV	ehrlich	treu	fair	spielen	schön	retten	eitel	tot	faul	strafen	schlecht	rächen	1	acq_USpleas_CSpleas1_RW	acq4567_RW	6	9	400	0	300	300	666	46	0	0	1	blank2r.bmp	0	1	+	0	1	blank2r.bmp	492	1	GWWG	492	1	blank2r.bmp	572	2	treu	866	1	!	1239	1	!	-1	0	0	0	0	0	0	0	0	0	0	0	0	0	0	0	0	0	0	0	0	0	0	0	0	0	0	0	0	0	0
070819	15:38:54	15:51:47	770385	5.0.10.0	5_exp_RW	21	Rpleas_acq	CS_B	GWWG	JXXJ	YDDY	BZZB	MQQM	VKKV	ehrlich	treu	fair	spielen	schön	retten	eitel	tot	faul	strafen	schlecht	rächen	1	acq_USpleas_CSpleas2_RW	acq4567_RW	6	10	400	1	300	300	346	50	0	1	1	blank2r.bmp	0	1	+	0	1	blank2r.bmp	492	1	JXXJ	492	1	blank2r.bmp	572	2	schön	866	1	!	1239	1	!	1252	0	0	0	0	0	0	0	0	0	0	0	0	0	0	0	0	0	0	0	0	0	0	0	0	0	0	0	0	0	0
070819	15:38:54	15:51:49	772624	5.0.10.0	5_exp_RW	21	Rpleas_acq	CS_B	GWWG	JXXJ	YDDY	BZZB	MQQM	VKKV	ehrlich	treu	fair	spielen	schön	retten	eitel	tot	faul	strafen	schlecht	rächen	1	acq_USpleas_CSpleas1_RW	acq4567_RW	6	11	400	1	300	300	443	50	0	1	1	blank2r.bmp	0	1	+	0	1	blank2r.bmp	492	1	GWWG	492	1	blank2r.bmp	572	3	fair	866	1	!	1239	1	!	1346	0	0	0	0	0	0	0	0	0	0	0	0	0	0	0	0	0	0	0	0	0	0	0	0	0	0	0	0	0	0
070819	15:38:54	15:51:51	774730	5.0.10.0	5_exp_RW	21	Rpleas_acq	CS_B	GWWG	JXXJ	YDDY	BZZB	MQQM	VKKV	ehrlich	treu	fair	spielen	schön	retten	eitel	tot	faul	strafen	schlecht	rächen	1	acq_USpleas_CSpleas2_RW	acq4567_RW	6	12	400	0	300	300	332	50	0	1	1	blank2r.bmp	0	1	+	0	1	blank2r.bmp	492	1	JXXJ	492	1	blank2r.bmp	572	1	spielen	866	1	!	-1	1	!	-1	0	0	0	0	0	0	0	0	0	0	0	0	0	0	0	0	0	0	0	0	0	0	0	0	0	0	0	0	0	0
070819	15:38:54	15:51:53	776889	5.0.10.0	5_exp_RW	21	Rpleas_acq	CS_B	GWWG	JXXJ	YDDY	BZZB	MQQM	VKKV	ehrlich	treu	fair	spielen	schön	retten	eitel	tot	faul	strafen	schlecht	rächen	1	acq_USunple_CSunple1_RW	acq4567_RW	6	13	400	1	300	300	357	50	0	0	1	blank2r.bmp	0	1	+	0	1	blank2r.bmp	492	1	YDDY	492	1	blank2r.bmp	572	2	tot	866	1	!	1239	1	!	1252	0	0	0	0	0	0	0	0	0	0	0	0	0	0	0	0	0	0	0	0	0	0	0	0	0	0	0	0	0	0
070819	15:38:54	15:51:55	779101	5.0.10.0	5_exp_RW	21	Rpleas_acq	CS_B	GWWG	JXXJ	YDDY	BZZB	MQQM	VKKV	ehrlich	treu	fair	spielen	schön	retten	eitel	tot	faul	strafen	schlecht	rächen	1	acq_USunple_CSunple2_RW	acq4567_RW	6	14	400	1	300	300	418	46	0	1	1	blank2r.bmp	0	1	+	0	1	blank2r.bmp	492	1	BZZB	492	1	blank2r.bmp	572	2	schlecht	866	1	!	1239	1	!	1319	0	0	0	0	0	0	0	0	0	0	0	0	0	0	0	0	0	0	0	0	0	0	0	0	0	0	0	0	0	0
070819	15:38:54	15:51:58	781340	5.0.10.0	5_exp_RW	21	Rpleas_acq	CS_B	GWWG	JXXJ	YDDY	BZZB	MQQM	VKKV	ehrlich	treu	fair	spielen	schön	retten	eitel	tot	faul	strafen	schlecht	rächen	1	acq_USunple_CSunple1_RW	acq4567_RW	6	15	400	1	300	300	449	46	0	1	1	blank2r.bmp	0	1	+	0	1	blank2r.bmp	492	1	YDDY	492	1	blank2r.bmp	572	1	eitel	866	1	!	1239	1	!	1346	0	0	0	0	0	0	0	0	0	0	0	0	0	0	0	0	0	0	0	0	0	0	0	0	0	0	0	0	0	0
070819	15:38:54	15:52:00	783606	5.0.10.0	5_exp_RW	21	Rpleas_acq	CS_B	GWWG	JXXJ	YDDY	BZZB	MQQM	VKKV	ehrlich	treu	fair	spielen	schön	retten	eitel	tot	faul	strafen	schlecht	rächen	1	acq_USunple_CSunple2_RW	acq4567_RW	6	16	400	0	300	300	500	46	0	1	1	blank2r.bmp	0	1	+	0	1	blank2r.bmp	492	1	BZZB	492	1	blank2r.bmp	572	1	strafen	866	1	!	1239	1	!	-1	0	0	0	0	0	0	0	0	0	0	0	0	0	0	0	0	0	0	0	0	0	0	0	0	0	0	0	0	0	0
070819	15:38:54	15:52:02	785805	5.0.10.0	5_exp_RW	21	Rpleas_acq	CS_B	GWWG	JXXJ	YDDY	BZZB	MQQM	VKKV	ehrlich	treu	fair	spielen	schön	retten	eitel	tot	faul	strafen	schlecht	rächen	1	acq_USpleas_CSpleas2_RW	acq4567_RW	6	17	400	1	300	300	385	50	0	1	1	blank2r.bmp	0	1	+	0	1	blank2r.bmp	492	1	JXXJ	492	1	blank2r.bmp	572	1	spielen	866	1	!	1239	1	!	1292	0	0	0	0	0	0	0	0	0	0	0	0	0	0	0	0	0	0	0	0	0	0	0	0	0	0	0	0	0	0
070819	15:38:54	15:52:04	788071	5.0.10.0	5_exp_RW	21	Rpleas_acq	CS_B	GWWG	JXXJ	YDDY	BZZB	MQQM	VKKV	ehrlich	treu	fair	spielen	schön	retten	eitel	tot	faul	strafen	schlecht	rächen	1	acq_USunple_CSunple2_RW	acq4567_RW	6	18	400	0	300	300	494	46	0	1	1	blank2r.bmp	0	1	+	0	1	blank2r.bmp	492	1	BZZB	492	1	blank2r.bmp	572	1	strafen	866	1	!	1239	1	!	-1	0	0	0	0	0	0	0	0	0	0	0	0	0	0	0	0	0	0	0	0	0	0	0	0	0	0	0	0	0	0
070819	15:38:54	15:52:07	790243	5.0.10.0	5_exp_RW	21	Rpleas_acq	CS_B	GWWG	JXXJ	YDDY	BZZB	MQQM	VKKV	ehrlich	treu	fair	spielen	schön	retten	eitel	tot	faul	strafen	schlecht	rächen	1	acq_USpleas_CSpleas1_RW	acq4567_RW	6	19	400	1	300	300	355	50	0	1	1	blank2r.bmp	0	1	+	0	1	blank2r.bmp	492	1	GWWG	492	1	blank2r.bmp	572	2	treu	866	1	!	1239	1	!	1252	0	0	0	0	0	0	0	0	0	0	0	0	0	0	0	0	0	0	0	0	0	0	0	0	0	0	0	0	0	0
070819	15:38:54	15:52:09	792509	5.0.10.0	5_exp_RW	21	Rpleas_acq	CS_B	GWWG	JXXJ	YDDY	BZZB	MQQM	VKKV	ehrlich	treu	fair	spielen	schön	retten	eitel	tot	faul	strafen	schlecht	rächen	1	acq_USunple_CSunple1_RW	acq4567_RW	6	20	400	1	300	300	464	46	0	1	1	blank2r.bmp	0	1	+	0	1	blank2r.bmp	492	1	YDDY	492	1	blank2r.bmp	572	1	eitel	866	1	!	1239	1	!	1372	0	0	0	0	0	0	0	0	0	0	0	0	0	0	0	0	0	0	0	0	0	0	0	0	0	0	0	0	0	0
