date	time	script.currenttime	script.elapsedtime	build	script.currentexpt	subject	expressions.LRpleas_acq	expressions.conditionCS_A	expressions.CSpleas_1	expressions.CSpleas_2	expressions.CSunple_1	expressions.CSunple_2	expressions.distractor_1	expressions.distractor_2	expressions.US_pleas1	expressions.US_pleas2	expressions.US_pleas3	expressions.US_pleas4	expressions.US_pleas5	expressions.US_pleas6	expressions.US_unple1	expressions.US_unple2	expressions.US_unple3	expressions.US_unple4	expressions.US_unple5	expressions.US_unple6	counter.positions_noRW	trialcode	blockcode	blocknum	trialnum	windowcenter	inwindow	pretrialpause	posttrialpause	latency	response	expressions.correctedscore	correct	stimulusnumber1	stimulusitem1	stimulusonset1	stimulusnumber2	stimulusitem2	stimulusonset2	stimulusnumber3	stimulusitem3	stimulusonset3	stimulusnumber4	stimulusitem4	stimulusonset4	stimulusnumber5	stimulusitem5	stimulusonset5	stimulusnumber6	stimulusitem6	stimulusonset6	stimulusnumber7	stimulusitem7	stimulusonset7	stimulusnumber8	stimulusitem8	stimulusonset8	stimulusnumber9	stimulusitem9	stimulusonset9	stimulusnumber10	stimulusitem10	stimulusonset10	stimulusnumber11	stimulusitem11	stimulusonset11	stimulusnumber12	stimulusitem12	stimulusonset12	stimulusnumber13	stimulusitem13	stimulusonset13	stimulusnumber14	stimulusitem14	stimulusonset14	stimulusnumber15	stimulusitem15	stimulusonset15	stimulusnumber16	stimulusitem16	stimulusonset16	stimulusnumber17	stimulusitem17	stimulusonset17	stimulusnumber18	stimulusitem18	stimulusonset18
070919	13:05:32	13:07:17	103516	5.0.10.0	5_exp_RW	31	Rpleas_acq	CS_A	LWWL	DXXD	ZHHZ	JQQJ	YFFY	CPPC	vertrauen	genießen	träumen	gütig	küssen	sonnig	versagen	gemein	töten	gierig	krank	sterben	1	acq_USpleas_CSpleas1_RW	acq1_RW	1	1	0	0	300	300	1622	50	0	1	1	blank2r.bmp	0	1	+	0	1	blank2r.bmp	492	1	LWWL	492	1	blank2r.bmp	572	1	vertrauen	866	0	0	0	0	0	0	0	0	0	0	0	0	0	0	0	0	0	0	0	0	0	0	0	0	0	0	0	0	0	0	0	0	0	0	0	0
070919	13:05:32	13:07:19	105768	5.0.10.0	5_exp_RW	31	Rpleas_acq	CS_A	LWWL	DXXD	ZHHZ	JQQJ	YFFY	CPPC	vertrauen	genießen	träumen	gütig	küssen	sonnig	versagen	gemein	töten	gierig	krank	sterben	1	acq_USpleas_CSpleas1_RW	acq1_RW	1	2	0	0	300	300	763	50	0	1	1	blank2r.bmp	0	1	+	0	1	blank2r.bmp	492	1	LWWL	492	1	blank2r.bmp	572	3	träumen	866	0	0	0	0	0	0	0	0	0	0	0	0	0	0	0	0	0	0	0	0	0	0	0	0	0	0	0	0	0	0	0	0	0	0	0	0
070919	13:05:32	13:07:21	107887	5.0.10.0	5_exp_RW	31	Rpleas_acq	CS_A	LWWL	DXXD	ZHHZ	JQQJ	YFFY	CPPC	vertrauen	genießen	träumen	gütig	küssen	sonnig	versagen	gemein	töten	gierig	krank	sterben	1	acq_USunple_CSunple2_RW	acq1_RW	1	3	0	0	300	300	650	46	0	1	1	blank2r.bmp	0	1	+	0	1	blank2r.bmp	492	1	JQQJ	492	1	blank2r.bmp	572	2	krank	866	0	0	0	0	0	0	0	0	0	0	0	0	0	0	0	0	0	0	0	0	0	0	0	0	0	0	0	0	0	0	0	0	0	0	0	0
070919	13:05:32	13:07:23	109860	5.0.10.0	5_exp_RW	31	Rpleas_acq	CS_A	LWWL	DXXD	ZHHZ	JQQJ	YFFY	CPPC	vertrauen	genießen	träumen	gütig	küssen	sonnig	versagen	gemein	töten	gierig	krank	sterben	1	acq_USpleas_CSpleas2_RW	acq1_RW	1	4	0	0	300	300	499	50	0	1	1	blank2r.bmp	0	1	+	0	1	blank2r.bmp	492	1	DXXD	492	1	blank2r.bmp	572	2	küssen	866	0	0	0	0	0	0	0	0	0	0	0	0	0	0	0	0	0	0	0	0	0	0	0	0	0	0	0	0	0	0	0	0	0	0	0	0
070919	13:05:32	13:07:25	111992	5.0.10.0	5_exp_RW	31	Rpleas_acq	CS_A	LWWL	DXXD	ZHHZ	JQQJ	YFFY	CPPC	vertrauen	genießen	träumen	gütig	küssen	sonnig	versagen	gemein	töten	gierig	krank	sterben	1	acq_USpleas_CSpleas2_RW	acq1_RW	1	5	0	0	300	300	647	50	0	1	1	blank2r.bmp	0	1	+	0	1	blank2r.bmp	492	1	DXXD	492	1	blank2r.bmp	572	3	sonnig	866	0	0	0	0	0	0	0	0	0	0	0	0	0	0	0	0	0	0	0	0	0	0	0	0	0	0	0	0	0	0	0	0	0	0	0	0
070919	13:05:32	13:07:27	114058	5.0.10.0	5_exp_RW	31	Rpleas_acq	CS_A	LWWL	DXXD	ZHHZ	JQQJ	YFFY	CPPC	vertrauen	genießen	träumen	gütig	küssen	sonnig	versagen	gemein	töten	gierig	krank	sterben	1	acq_USunple_CSunple1_RW	acq1_RW	1	6	0	0	300	300	597	46	0	1	1	blank2r.bmp	0	1	+	0	1	blank2r.bmp	492	1	ZHHZ	492	1	blank2r.bmp	572	1	versagen	866	0	0	0	0	0	0	0	0	0	0	0	0	0	0	0	0	0	0	0	0	0	0	0	0	0	0	0	0	0	0	0	0	0	0	0	0
070919	13:05:32	13:07:29	116057	5.0.10.0	5_exp_RW	31	Rpleas_acq	CS_A	LWWL	DXXD	ZHHZ	JQQJ	YFFY	CPPC	vertrauen	genießen	träumen	gütig	küssen	sonnig	versagen	gemein	töten	gierig	krank	sterben	1	acq_USpleas_CSpleas1_RW	acq1_RW	1	7	0	0	300	300	511	50	0	1	1	blank2r.bmp	0	1	+	0	1	blank2r.bmp	492	1	LWWL	492	1	blank2r.bmp	572	2	genießen	866	0	0	0	0	0	0	0	0	0	0	0	0	0	0	0	0	0	0	0	0	0	0	0	0	0	0	0	0	0	0	0	0	0	0	0	0
070919	13:05:32	13:07:31	118123	5.0.10.0	5_exp_RW	31	Rpleas_acq	CS_A	LWWL	DXXD	ZHHZ	JQQJ	YFFY	CPPC	vertrauen	genießen	träumen	gütig	küssen	sonnig	versagen	gemein	töten	gierig	krank	sterben	1	acq_USunple_CSunple1_RW	acq1_RW	1	8	0	0	300	300	572	46	0	1	1	blank2r.bmp	0	1	+	0	1	blank2r.bmp	492	1	ZHHZ	492	1	blank2r.bmp	572	2	gemein	866	0	0	0	0	0	0	0	0	0	0	0	0	0	0	0	0	0	0	0	0	0	0	0	0	0	0	0	0	0	0	0	0	0	0	0	0
070919	13:05:32	13:07:33	120362	5.0.10.0	5_exp_RW	31	Rpleas_acq	CS_A	LWWL	DXXD	ZHHZ	JQQJ	YFFY	CPPC	vertrauen	genießen	träumen	gütig	küssen	sonnig	versagen	gemein	töten	gierig	krank	sterben	1	acq_USpleas_CSpleas2_RW	acq1_RW	1	9	0	0	300	300	760	50	0	1	1	blank2r.bmp	0	1	+	0	1	blank2r.bmp	492	1	DXXD	492	1	blank2r.bmp	572	1	gütig	866	0	0	0	0	0	0	0	0	0	0	0	0	0	0	0	0	0	0	0	0	0	0	0	0	0	0	0	0	0	0	0	0	0	0	0	0
070919	13:05:32	13:07:36	122481	5.0.10.0	5_exp_RW	31	Rpleas_acq	CS_A	LWWL	DXXD	ZHHZ	JQQJ	YFFY	CPPC	vertrauen	genießen	träumen	gütig	küssen	sonnig	versagen	gemein	töten	gierig	krank	sterben	1	acq_USpleas_CSpleas2_RW	acq1_RW	1	10	0	0	300	300	648	50	0	1	1	blank2r.bmp	0	1	+	0	1	blank2r.bmp	492	1	DXXD	492	1	blank2r.bmp	572	3	sonnig	866	0	0	0	0	0	0	0	0	0	0	0	0	0	0	0	0	0	0	0	0	0	0	0	0	0	0	0	0	0	0	0	0	0	0	0	0
070919	13:05:32	13:07:38	124494	5.0.10.0	5_exp_RW	31	Rpleas_acq	CS_A	LWWL	DXXD	ZHHZ	JQQJ	YFFY	CPPC	vertrauen	genießen	träumen	gütig	küssen	sonnig	versagen	gemein	töten	gierig	krank	sterben	1	acq_USunple_CSunple1_RW	acq1_RW	1	11	0	0	300	300	522	46	0	1	1	blank2r.bmp	0	1	+	0	1	blank2r.bmp	492	1	ZHHZ	492	1	blank2r.bmp	572	3	töten	866	0	0	0	0	0	0	0	0	0	0	0	0	0	0	0	0	0	0	0	0	0	0	0	0	0	0	0	0	0	0	0	0	0	0	0	0
070919	13:05:32	13:07:40	126466	5.0.10.0	5_exp_RW	31	Rpleas_acq	CS_A	LWWL	DXXD	ZHHZ	JQQJ	YFFY	CPPC	vertrauen	genießen	träumen	gütig	küssen	sonnig	versagen	gemein	töten	gierig	krank	sterben	1	acq_USpleas_CSpleas1_RW	acq1_RW	1	12	0	0	300	300	501	50	0	1	1	blank2r.bmp	0	1	+	0	1	blank2r.bmp	492	1	LWWL	492	1	blank2r.bmp	572	1	vertrauen	866	0	0	0	0	0	0	0	0	0	0	0	0	0	0	0	0	0	0	0	0	0	0	0	0	0	0	0	0	0	0	0	0	0	0	0	0
070919	13:05:32	13:07:41	128426	5.0.10.0	5_exp_RW	31	Rpleas_acq	CS_A	LWWL	DXXD	ZHHZ	JQQJ	YFFY	CPPC	vertrauen	genießen	träumen	gütig	küssen	sonnig	versagen	gemein	töten	gierig	krank	sterben	1	acq_USunple_CSunple1_RW	acq1_RW	1	13	0	0	300	300	478	46	0	1	1	blank2r.bmp	0	1	+	0	1	blank2r.bmp	492	1	ZHHZ	492	1	blank2r.bmp	572	2	gemein	866	0	0	0	0	0	0	0	0	0	0	0	0	0	0	0	0	0	0	0	0	0	0	0	0	0	0	0	0	0	0	0	0	0	0	0	0
070919	13:05:32	13:07:44	130465	5.0.10.0	5_exp_RW	31	Rpleas_acq	CS_A	LWWL	DXXD	ZHHZ	JQQJ	YFFY	CPPC	vertrauen	genießen	träumen	gütig	küssen	sonnig	versagen	gemein	töten	gierig	krank	sterben	1	acq_USunple_CSunple2_RW	acq1_RW	1	14	0	0	300	300	567	46	0	1	1	blank2r.bmp	0	1	+	0	1	blank2r.bmp	492	1	JQQJ	492	1	blank2r.bmp	572	1	gierig	866	0	0	0	0	0	0	0	0	0	0	0	0	0	0	0	0	0	0	0	0	0	0	0	0	0	0	0	0	0	0	0	0	0	0	0	0
070919	13:05:32	13:07:46	132490	5.0.10.0	5_exp_RW	31	Rpleas_acq	CS_A	LWWL	DXXD	ZHHZ	JQQJ	YFFY	CPPC	vertrauen	genießen	träumen	gütig	küssen	sonnig	versagen	gemein	töten	gierig	krank	sterben	1	acq_USunple_CSunple2_RW	acq1_RW	1	15	0	0	300	300	556	46	0	1	1	blank2r.bmp	0	1	+	0	1	blank2r.bmp	492	1	JQQJ	492	1	blank2r.bmp	572	3	sterben	866	0	0	0	0	0	0	0	0	0	0	0	0	0	0	0	0	0	0	0	0	0	0	0	0	0	0	0	0	0	0	0	0	0	0	0	0
070919	13:05:32	13:07:48	134570	5.0.10.0	5_exp_RW	31	Rpleas_acq	CS_A	LWWL	DXXD	ZHHZ	JQQJ	YFFY	CPPC	vertrauen	genießen	träumen	gütig	küssen	sonnig	versagen	gemein	töten	gierig	krank	sterben	1	acq_USunple_CSunple2_RW	acq1_RW	1	16	0	0	300	300	589	46	0	1	1	blank2r.bmp	0	1	+	0	1	blank2r.bmp	492	1	JQQJ	492	1	blank2r.bmp	572	1	gierig	866	0	0	0	0	0	0	0	0	0	0	0	0	0	0	0	0	0	0	0	0	0	0	0	0	0	0	0	0	0	0	0	0	0	0	0	0
070919	13:05:32	13:09:10	216522	5.0.10.0	5_exp_RW	31	Rpleas_acq	CS_A	LWWL	DXXD	ZHHZ	JQQJ	YFFY	CPPC	vertrauen	genießen	träumen	gütig	küssen	sonnig	versagen	gemein	töten	gierig	krank	sterben	1	acq_USunple_CSunple2_RW	acq2_RW	2	1	480	0	300	300	31992	50	0	0	1	blank2r.bmp	0	1	+	0	1	blank2r.bmp	492	1	JQQJ	492	1	blank2r.bmp	572	2	krank	866	1	FEHLER	33199	1	!	1319	1	!	-1	0	0	0	0	0	0	0	0	0	0	0	0	0	0	0	0	0	0	0	0	0	0	0	0	0	0	0
070919	13:05:32	13:09:14	220600	5.0.10.0	5_exp_RW	31	Rpleas_acq	CS_A	LWWL	DXXD	ZHHZ	JQQJ	YFFY	CPPC	vertrauen	genießen	träumen	gütig	küssen	sonnig	versagen	gemein	töten	gierig	krank	sterben	1	acq_USunple_CSunple2_RW	acq2_RW	2	2	480	0	300	300	2526	46	0	1	1	blank2r.bmp	0	1	+	0	1	blank2r.bmp	492	1	JQQJ	492	1	blank2r.bmp	572	3	sterben	866	1	!	1319	1	!	-1	0	0	0	0	0	0	0	0	0	0	0	0	0	0	0	0	0	0	0	0	0	0	0	0	0	0	0	0	0	0
070919	13:05:32	13:09:17	223799	5.0.10.0	5_exp_RW	31	Rpleas_acq	CS_A	LWWL	DXXD	ZHHZ	JQQJ	YFFY	CPPC	vertrauen	genießen	träumen	gütig	küssen	sonnig	versagen	gemein	töten	gierig	krank	sterben	1	acq_USpleas_CSpleas1_RW	acq2_RW	2	3	480	0	300	300	1421	50	0	1	1	blank2r.bmp	0	1	+	0	1	blank2r.bmp	492	1	LWWL	492	1	blank2r.bmp	572	2	genießen	866	1	!	1319	1	!	-1	0	0	0	0	0	0	0	0	0	0	0	0	0	0	0	0	0	0	0	0	0	0	0	0	0	0	0	0	0	0
070919	13:05:32	13:09:20	226638	5.0.10.0	5_exp_RW	31	Rpleas_acq	CS_A	LWWL	DXXD	ZHHZ	JQQJ	YFFY	CPPC	vertrauen	genießen	träumen	gütig	küssen	sonnig	versagen	gemein	töten	gierig	krank	sterben	1	acq_USpleas_CSpleas1_RW	acq2_RW	2	4	480	0	300	300	1052	50	0	1	1	blank2r.bmp	0	1	+	0	1	blank2r.bmp	492	1	LWWL	492	1	blank2r.bmp	572	3	träumen	866	1	!	1319	1	!	-1	0	0	0	0	0	0	0	0	0	0	0	0	0	0	0	0	0	0	0	0	0	0	0	0	0	0	0	0	0	0
070919	13:05:32	13:09:22	229063	5.0.10.0	5_exp_RW	31	Rpleas_acq	CS_A	LWWL	DXXD	ZHHZ	JQQJ	YFFY	CPPC	vertrauen	genießen	träumen	gütig	küssen	sonnig	versagen	gemein	töten	gierig	krank	sterben	1	acq_USpleas_CSpleas1_RW	acq2_RW	2	5	480	0	300	300	648	50	0	1	1	blank2r.bmp	0	1	+	0	1	blank2r.bmp	492	1	LWWL	492	1	blank2r.bmp	572	3	träumen	866	1	!	1319	1	!	-1	0	0	0	0	0	0	0	0	0	0	0	0	0	0	0	0	0	0	0	0	0	0	0	0	0	0	0	0	0	0
070919	13:05:32	13:09:24	231396	5.0.10.0	5_exp_RW	31	Rpleas_acq	CS_A	LWWL	DXXD	ZHHZ	JQQJ	YFFY	CPPC	vertrauen	genießen	träumen	gütig	küssen	sonnig	versagen	gemein	töten	gierig	krank	sterben	1	acq_USpleas_CSpleas1_RW	acq2_RW	2	6	480	1	300	300	526	50	0	1	1	blank2r.bmp	0	1	+	0	1	blank2r.bmp	492	1	LWWL	492	1	blank2r.bmp	572	1	vertrauen	866	1	!	1319	1	!	1426	0	0	0	0	0	0	0	0	0	0	0	0	0	0	0	0	0	0	0	0	0	0	0	0	0	0	0	0	0	0
070919	13:05:32	13:09:27	233568	5.0.10.0	5_exp_RW	31	Rpleas_acq	CS_A	LWWL	DXXD	ZHHZ	JQQJ	YFFY	CPPC	vertrauen	genießen	träumen	gütig	küssen	sonnig	versagen	gemein	töten	gierig	krank	sterben	1	acq_USpleas_CSpleas2_RW	acq2_RW	2	7	480	0	300	300	409	50	0	1	1	blank2r.bmp	0	1	+	0	1	blank2r.bmp	492	1	DXXD	492	1	blank2r.bmp	572	2	küssen	866	1	!	-1	1	!	-1	0	0	0	0	0	0	0	0	0	0	0	0	0	0	0	0	0	0	0	0	0	0	0	0	0	0	0	0	0	0
070919	13:05:32	13:09:29	235914	5.0.10.0	5_exp_RW	31	Rpleas_acq	CS_A	LWWL	DXXD	ZHHZ	JQQJ	YFFY	CPPC	vertrauen	genießen	träumen	gütig	küssen	sonnig	versagen	gemein	töten	gierig	krank	sterben	1	acq_USunple_CSunple1_RW	acq2_RW	2	8	480	0	300	300	559	46	0	1	1	blank2r.bmp	0	1	+	0	1	blank2r.bmp	492	1	ZHHZ	492	1	blank2r.bmp	572	1	versagen	866	1	!	1319	1	!	-1	0	0	0	0	0	0	0	0	0	0	0	0	0	0	0	0	0	0	0	0	0	0	0	0	0	0	0	0	0	0
070919	13:05:32	13:09:31	238153	5.0.10.0	5_exp_RW	31	Rpleas_acq	CS_A	LWWL	DXXD	ZHHZ	JQQJ	YFFY	CPPC	vertrauen	genießen	träumen	gütig	küssen	sonnig	versagen	gemein	töten	gierig	krank	sterben	1	acq_USunple_CSunple1_RW	acq2_RW	2	9	480	1	300	300	429	46	0	1	1	blank2r.bmp	0	1	+	0	1	blank2r.bmp	492	1	ZHHZ	492	1	blank2r.bmp	572	3	töten	866	1	!	1319	1	!	1332	0	0	0	0	0	0	0	0	0	0	0	0	0	0	0	0	0	0	0	0	0	0	0	0	0	0	0	0	0	0
070919	13:05:32	13:09:33	240405	5.0.10.0	5_exp_RW	31	Rpleas_acq	CS_A	LWWL	DXXD	ZHHZ	JQQJ	YFFY	CPPC	vertrauen	genießen	träumen	gütig	küssen	sonnig	versagen	gemein	töten	gierig	krank	sterben	1	acq_USpleas_CSpleas2_RW	acq2_RW	2	10	480	1	300	300	453	50	0	1	1	blank2r.bmp	0	1	+	0	1	blank2r.bmp	492	1	DXXD	492	1	blank2r.bmp	572	1	gütig	866	1	!	1319	1	!	1359	0	0	0	0	0	0	0	0	0	0	0	0	0	0	0	0	0	0	0	0	0	0	0	0	0	0	0	0	0	0
070919	13:05:32	13:09:36	242578	5.0.10.0	5_exp_RW	31	Rpleas_acq	CS_A	LWWL	DXXD	ZHHZ	JQQJ	YFFY	CPPC	vertrauen	genießen	träumen	gütig	küssen	sonnig	versagen	gemein	töten	gierig	krank	sterben	1	acq_USunple_CSunple1_RW	acq2_RW	2	11	480	0	300	300	396	46	0	1	1	blank2r.bmp	0	1	+	0	1	blank2r.bmp	492	1	ZHHZ	492	1	blank2r.bmp	572	3	töten	866	1	!	-1	1	!	-1	0	0	0	0	0	0	0	0	0	0	0	0	0	0	0	0	0	0	0	0	0	0	0	0	0	0	0	0	0	0
070919	13:05:32	13:09:38	244977	5.0.10.0	5_exp_RW	31	Rpleas_acq	CS_A	LWWL	DXXD	ZHHZ	JQQJ	YFFY	CPPC	vertrauen	genießen	träumen	gütig	küssen	sonnig	versagen	gemein	töten	gierig	krank	sterben	1	acq_USpleas_CSpleas1_RW	acq2_RW	2	12	480	0	300	300	606	50	0	1	1	blank2r.bmp	0	1	+	0	1	blank2r.bmp	492	1	LWWL	492	1	blank2r.bmp	572	2	genießen	866	1	!	1319	1	!	-1	0	0	0	0	0	0	0	0	0	0	0	0	0	0	0	0	0	0	0	0	0	0	0	0	0	0	0	0	0	0
070919	13:05:32	13:09:40	247149	5.0.10.0	5_exp_RW	31	Rpleas_acq	CS_A	LWWL	DXXD	ZHHZ	JQQJ	YFFY	CPPC	vertrauen	genießen	träumen	gütig	küssen	sonnig	versagen	gemein	töten	gierig	krank	sterben	1	acq_USunple_CSunple2_RW	acq2_RW	2	13	480	0	300	300	391	46	0	1	1	blank2r.bmp	0	1	+	0	1	blank2r.bmp	492	1	JQQJ	492	1	blank2r.bmp	572	3	sterben	866	1	!	-1	1	!	-1	0	0	0	0	0	0	0	0	0	0	0	0	0	0	0	0	0	0	0	0	0	0	0	0	0	0	0	0	0	0
070919	13:05:32	13:09:42	249322	5.0.10.0	5_exp_RW	31	Rpleas_acq	CS_A	LWWL	DXXD	ZHHZ	JQQJ	YFFY	CPPC	vertrauen	genießen	träumen	gütig	küssen	sonnig	versagen	gemein	töten	gierig	krank	sterben	1	acq_USunple_CSunple2_RW	acq2_RW	2	14	480	0	300	300	379	46	0	1	1	blank2r.bmp	0	1	+	0	1	blank2r.bmp	492	1	JQQJ	492	1	blank2r.bmp	572	2	krank	866	1	!	-1	1	!	-1	0	0	0	0	0	0	0	0	0	0	0	0	0	0	0	0	0	0	0	0	0	0	0	0	0	0	0	0	0	0
070919	13:05:32	13:09:45	251894	5.0.10.0	5_exp_RW	31	Rpleas_acq	CS_A	LWWL	DXXD	ZHHZ	JQQJ	YFFY	CPPC	vertrauen	genießen	träumen	gütig	küssen	sonnig	versagen	gemein	töten	gierig	krank	sterben	1	acq_USunple_CSunple1_RW	acq2_RW	2	15	480	0	300	300	797	46	0	1	1	blank2r.bmp	0	1	+	0	1	blank2r.bmp	492	1	ZHHZ	492	1	blank2r.bmp	572	1	versagen	866	1	!	1319	1	!	-1	0	0	0	0	0	0	0	0	0	0	0	0	0	0	0	0	0	0	0	0	0	0	0	0	0	0	0	0	0	0
070919	13:05:32	13:09:47	254280	5.0.10.0	5_exp_RW	31	Rpleas_acq	CS_A	LWWL	DXXD	ZHHZ	JQQJ	YFFY	CPPC	vertrauen	genießen	träumen	gütig	küssen	sonnig	versagen	gemein	töten	gierig	krank	sterben	1	acq_USpleas_CSpleas2_RW	acq2_RW	2	16	480	0	300	300	610	50	0	1	1	blank2r.bmp	0	1	+	0	1	blank2r.bmp	492	1	DXXD	492	1	blank2r.bmp	572	3	sonnig	866	1	!	1319	1	!	-1	0	0	0	0	0	0	0	0	0	0	0	0	0	0	0	0	0	0	0	0	0	0	0	0	0	0	0	0	0	0
070919	13:05:32	13:09:50	256719	5.0.10.0	5_exp_RW	31	Rpleas_acq	CS_A	LWWL	DXXD	ZHHZ	JQQJ	YFFY	CPPC	vertrauen	genießen	träumen	gütig	küssen	sonnig	versagen	gemein	töten	gierig	krank	sterben	1	acq_USunple_CSunple1_RW	acq2_RW	2	17	480	0	300	300	654	46	0	1	1	blank2r.bmp	0	1	+	0	1	blank2r.bmp	492	1	ZHHZ	492	1	blank2r.bmp	572	2	gemein	866	1	!	1319	1	!	-1	0	0	0	0	0	0	0	0	0	0	0	0	0	0	0	0	0	0	0	0	0	0	0	0	0	0	0	0	0	0
070919	13:05:32	13:09:52	258971	5.0.10.0	5_exp_RW	31	Rpleas_acq	CS_A	LWWL	DXXD	ZHHZ	JQQJ	YFFY	CPPC	vertrauen	genießen	träumen	gütig	küssen	sonnig	versagen	gemein	töten	gierig	krank	sterben	1	acq_USpleas_CSpleas2_RW	acq2_RW	2	18	480	1	300	300	447	50	0	1	1	blank2r.bmp	0	1	+	0	1	blank2r.bmp	492	1	DXXD	492	1	blank2r.bmp	572	2	küssen	866	1	!	1319	1	!	1346	0	0	0	0	0	0	0	0	0	0	0	0	0	0	0	0	0	0	0	0	0	0	0	0	0	0	0	0	0	0
070919	13:05:32	13:09:55	261450	5.0.10.0	5_exp_RW	31	Rpleas_acq	CS_A	LWWL	DXXD	ZHHZ	JQQJ	YFFY	CPPC	vertrauen	genießen	träumen	gütig	küssen	sonnig	versagen	gemein	töten	gierig	krank	sterben	1	acq_USunple_CSunple2_RW	acq2_RW	2	19	480	0	300	300	691	46	0	1	1	blank2r.bmp	0	1	+	0	1	blank2r.bmp	492	1	JQQJ	492	1	blank2r.bmp	572	1	gierig	866	1	!	1319	1	!	-1	0	0	0	0	0	0	0	0	0	0	0	0	0	0	0	0	0	0	0	0	0	0	0	0	0	0	0	0	0	0
070919	13:05:32	13:09:57	263809	5.0.10.0	5_exp_RW	31	Rpleas_acq	CS_A	LWWL	DXXD	ZHHZ	JQQJ	YFFY	CPPC	vertrauen	genießen	träumen	gütig	küssen	sonnig	versagen	gemein	töten	gierig	krank	sterben	1	acq_USpleas_CSpleas2_RW	acq2_RW	2	20	480	0	300	300	583	50	0	1	1	blank2r.bmp	0	1	+	0	1	blank2r.bmp	492	1	DXXD	492	1	blank2r.bmp	572	1	gütig	866	1	!	1319	1	!	-1	0	0	0	0	0	0	0	0	0	0	0	0	0	0	0	0	0	0	0	0	0	0	0	0	0	0	0	0	0	0
070919	13:05:32	13:09:59	266208	5.0.10.0	5_exp_RW	31	Rpleas_acq	CS_A	LWWL	DXXD	ZHHZ	JQQJ	YFFY	CPPC	vertrauen	genießen	träumen	gütig	küssen	sonnig	versagen	gemein	töten	gierig	krank	sterben	1	acq_USpleas_CSpleas1_RW	acq2_RW	2	21	480	0	300	300	376	46	0	0	1	blank2r.bmp	0	1	+	0	1	blank2r.bmp	492	1	LWWL	492	1	blank2r.bmp	572	1	vertrauen	866	1	FEHLER	1585	1	!	-1	1	!	-1	0	0	0	0	0	0	0	0	0	0	0	0	0	0	0	0	0	0	0	0	0	0	0	0	0	0	0
070919	13:05:32	13:10:02	268993	5.0.10.0	5_exp_RW	31	Rpleas_acq	CS_A	LWWL	DXXD	ZHHZ	JQQJ	YFFY	CPPC	vertrauen	genießen	träumen	gütig	küssen	sonnig	versagen	gemein	töten	gierig	krank	sterben	1	acq_USunple_CSunple1_RW	acq2_RW	2	22	480	0	300	300	1224	46	0	1	1	blank2r.bmp	0	1	+	0	1	blank2r.bmp	492	1	ZHHZ	492	1	blank2r.bmp	572	3	töten	866	1	!	1319	1	!	-1	0	0	0	0	0	0	0	0	0	0	0	0	0	0	0	0	0	0	0	0	0	0	0	0	0	0	0	0	0	0
070919	13:05:32	13:10:05	271566	5.0.10.0	5_exp_RW	31	Rpleas_acq	CS_A	LWWL	DXXD	ZHHZ	JQQJ	YFFY	CPPC	vertrauen	genießen	träumen	gütig	küssen	sonnig	versagen	gemein	töten	gierig	krank	sterben	1	acq_USunple_CSunple2_RW	acq2_RW	2	23	480	0	300	300	565	50	0	0	1	blank2r.bmp	0	1	+	0	1	blank2r.bmp	492	1	JQQJ	492	1	blank2r.bmp	572	3	sterben	866	1	FEHLER	1772	1	!	1319	1	!	-1	0	0	0	0	0	0	0	0	0	0	0	0	0	0	0	0	0	0	0	0	0	0	0	0	0	0	0
070919	13:05:32	13:10:07	273845	5.0.10.0	5_exp_RW	31	Rpleas_acq	CS_A	LWWL	DXXD	ZHHZ	JQQJ	YFFY	CPPC	vertrauen	genießen	träumen	gütig	küssen	sonnig	versagen	gemein	töten	gierig	krank	sterben	1	acq_USpleas_CSpleas2_RW	acq2_RW	2	24	480	0	300	300	724	50	0	1	1	blank2r.bmp	0	1	+	0	1	blank2r.bmp	492	1	DXXD	492	1	blank2r.bmp	572	3	sonnig	866	1	!	1319	1	!	-1	0	0	0	0	0	0	0	0	0	0	0	0	0	0	0	0	0	0	0	0	0	0	0	0	0	0	0	0	0	0
070919	13:05:32	13:10:20	287412	5.0.10.0	5_exp_RW	31	Rpleas_acq	CS_A	LWWL	DXXD	ZHHZ	JQQJ	YFFY	CPPC	vertrauen	genießen	träumen	gütig	küssen	sonnig	versagen	gemein	töten	gierig	krank	sterben	1	acq_USpleas_CSpleas1_RW	acq3_RW	3	1	453	1	300	300	424	50	0	1	1	blank2r.bmp	0	1	+	0	1	blank2r.bmp	492	1	LWWL	492	1	blank2r.bmp	572	2	genießen	866	1	!	1292	1	!	1319	0	0	0	0	0	0	0	0	0	0	0	0	0	0	0	0	0	0	0	0	0	0	0	0	0	0	0	0	0	0
070919	13:05:32	13:10:23	289718	5.0.10.0	5_exp_RW	31	Rpleas_acq	CS_A	LWWL	DXXD	ZHHZ	JQQJ	YFFY	CPPC	vertrauen	genießen	träumen	gütig	küssen	sonnig	versagen	gemein	töten	gierig	krank	sterben	1	acq_USunple_CSunple2_RW	acq3_RW	3	2	453	0	300	300	532	46	0	1	1	blank2r.bmp	0	1	+	0	1	blank2r.bmp	492	1	JQQJ	492	1	blank2r.bmp	572	2	krank	866	1	!	1292	1	!	-1	0	0	0	0	0	0	0	0	0	0	0	0	0	0	0	0	0	0	0	0	0	0	0	0	0	0	0	0	0	0
070919	13:05:32	13:10:25	292024	5.0.10.0	5_exp_RW	31	Rpleas_acq	CS_A	LWWL	DXXD	ZHHZ	JQQJ	YFFY	CPPC	vertrauen	genießen	träumen	gütig	küssen	sonnig	versagen	gemein	töten	gierig	krank	sterben	1	acq_USpleas_CSpleas2_RW	acq3_RW	3	3	453	1	300	300	501	50	0	1	1	blank2r.bmp	0	1	+	0	1	blank2r.bmp	492	1	DXXD	492	1	blank2r.bmp	572	2	küssen	866	1	!	1292	1	!	1399	0	0	0	0	0	0	0	0	0	0	0	0	0	0	0	0	0	0	0	0	0	0	0	0	0	0	0	0	0	0
070919	13:05:32	13:10:27	294343	5.0.10.0	5_exp_RW	31	Rpleas_acq	CS_A	LWWL	DXXD	ZHHZ	JQQJ	YFFY	CPPC	vertrauen	genießen	träumen	gütig	küssen	sonnig	versagen	gemein	töten	gierig	krank	sterben	1	acq_USunple_CSunple2_RW	acq3_RW	3	4	453	0	300	300	548	46	0	1	1	blank2r.bmp	0	1	+	0	1	blank2r.bmp	492	1	JQQJ	492	1	blank2r.bmp	572	1	gierig	866	1	!	1292	1	!	-1	0	0	0	0	0	0	0	0	0	0	0	0	0	0	0	0	0	0	0	0	0	0	0	0	0	0	0	0	0	0
070919	13:05:32	13:10:30	296635	5.0.10.0	5_exp_RW	31	Rpleas_acq	CS_A	LWWL	DXXD	ZHHZ	JQQJ	YFFY	CPPC	vertrauen	genießen	träumen	gütig	küssen	sonnig	versagen	gemein	töten	gierig	krank	sterben	1	acq_USunple_CSunple2_RW	acq3_RW	3	5	453	1	300	300	490	46	0	1	1	blank2r.bmp	0	1	+	0	1	blank2r.bmp	492	1	JQQJ	492	1	blank2r.bmp	572	3	sterben	866	1	!	1292	1	!	1386	0	0	0	0	0	0	0	0	0	0	0	0	0	0	0	0	0	0	0	0	0	0	0	0	0	0	0	0	0	0
070919	13:05:32	13:10:32	298941	5.0.10.0	5_exp_RW	31	Rpleas_acq	CS_A	LWWL	DXXD	ZHHZ	JQQJ	YFFY	CPPC	vertrauen	genießen	träumen	gütig	küssen	sonnig	versagen	gemein	töten	gierig	krank	sterben	1	acq_USpleas_CSpleas2_RW	acq3_RW	3	6	453	0	300	300	534	50	0	1	1	blank2r.bmp	0	1	+	0	1	blank2r.bmp	492	1	DXXD	492	1	blank2r.bmp	572	1	gütig	866	1	!	1292	1	!	-1	0	0	0	0	0	0	0	0	0	0	0	0	0	0	0	0	0	0	0	0	0	0	0	0	0	0	0	0	0	0
070919	13:05:32	13:10:35	301486	5.0.10.0	5_exp_RW	31	Rpleas_acq	CS_A	LWWL	DXXD	ZHHZ	JQQJ	YFFY	CPPC	vertrauen	genießen	träumen	gütig	küssen	sonnig	versagen	gemein	töten	gierig	krank	sterben	1	acq_USpleas_CSpleas2_RW	acq3_RW	3	7	453	0	300	300	549	46	0	0	1	blank2r.bmp	0	1	+	0	1	blank2r.bmp	492	1	DXXD	492	1	blank2r.bmp	572	2	küssen	866	1	FEHLER	1759	1	!	1292	1	!	-1	0	0	0	0	0	0	0	0	0	0	0	0	0	0	0	0	0	0	0	0	0	0	0	0	0	0	0
070919	13:05:32	13:10:37	303619	5.0.10.0	5_exp_RW	31	Rpleas_acq	CS_A	LWWL	DXXD	ZHHZ	JQQJ	YFFY	CPPC	vertrauen	genießen	träumen	gütig	küssen	sonnig	versagen	gemein	töten	gierig	krank	sterben	1	acq_USunple_CSunple1_RW	acq3_RW	3	8	453	0	300	300	561	46	0	1	1	blank2r.bmp	0	1	+	0	1	blank2r.bmp	492	1	ZHHZ	492	1	blank2r.bmp	572	2	gemein	866	1	!	1292	1	!	-1	0	0	0	0	0	0	0	0	0	0	0	0	0	0	0	0	0	0	0	0	0	0	0	0	0	0	0	0	0	0
070919	13:05:32	13:10:39	305871	5.0.10.0	5_exp_RW	31	Rpleas_acq	CS_A	LWWL	DXXD	ZHHZ	JQQJ	YFFY	CPPC	vertrauen	genießen	träumen	gütig	küssen	sonnig	versagen	gemein	töten	gierig	krank	sterben	1	acq_USpleas_CSpleas1_RW	acq3_RW	3	9	453	1	300	300	433	50	0	1	1	blank2r.bmp	0	1	+	0	1	blank2r.bmp	492	1	LWWL	492	1	blank2r.bmp	572	3	träumen	866	1	!	1292	1	!	1332	0	0	0	0	0	0	0	0	0	0	0	0	0	0	0	0	0	0	0	0	0	0	0	0	0	0	0	0	0	0
070919	13:05:32	13:10:41	308137	5.0.10.0	5_exp_RW	31	Rpleas_acq	CS_A	LWWL	DXXD	ZHHZ	JQQJ	YFFY	CPPC	vertrauen	genießen	träumen	gütig	küssen	sonnig	versagen	gemein	töten	gierig	krank	sterben	1	acq_USunple_CSunple1_RW	acq3_RW	3	10	453	1	300	300	476	46	0	1	1	blank2r.bmp	0	1	+	0	1	blank2r.bmp	492	1	ZHHZ	492	1	blank2r.bmp	572	1	versagen	866	1	!	1292	1	!	1372	0	0	0	0	0	0	0	0	0	0	0	0	0	0	0	0	0	0	0	0	0	0	0	0	0	0	0	0	0	0
070919	13:05:32	13:10:43	310363	5.0.10.0	5_exp_RW	31	Rpleas_acq	CS_A	LWWL	DXXD	ZHHZ	JQQJ	YFFY	CPPC	vertrauen	genießen	träumen	gütig	küssen	sonnig	versagen	gemein	töten	gierig	krank	sterben	1	acq_USpleas_CSpleas1_RW	acq3_RW	3	11	453	1	300	300	436	50	0	1	1	blank2r.bmp	0	1	+	0	1	blank2r.bmp	492	1	LWWL	492	1	blank2r.bmp	572	1	vertrauen	866	1	!	1292	1	!	1332	0	0	0	0	0	0	0	0	0	0	0	0	0	0	0	0	0	0	0	0	0	0	0	0	0	0	0	0	0	0
070919	13:05:32	13:10:46	312482	5.0.10.0	5_exp_RW	31	Rpleas_acq	CS_A	LWWL	DXXD	ZHHZ	JQQJ	YFFY	CPPC	vertrauen	genießen	träumen	gütig	küssen	sonnig	versagen	gemein	töten	gierig	krank	sterben	1	acq_USpleas_CSpleas2_RW	acq3_RW	3	12	453	0	300	300	348	50	0	1	1	blank2r.bmp	0	1	+	0	1	blank2r.bmp	492	1	DXXD	492	1	blank2r.bmp	572	1	gütig	866	1	!	-1	1	!	-1	0	0	0	0	0	0	0	0	0	0	0	0	0	0	0	0	0	0	0	0	0	0	0	0	0	0	0	0	0	0
070919	13:05:32	13:10:48	314801	5.0.10.0	5_exp_RW	31	Rpleas_acq	CS_A	LWWL	DXXD	ZHHZ	JQQJ	YFFY	CPPC	vertrauen	genießen	träumen	gütig	küssen	sonnig	versagen	gemein	töten	gierig	krank	sterben	1	acq_USunple_CSunple2_RW	acq3_RW	3	13	453	0	300	300	532	46	0	1	1	blank2r.bmp	0	1	+	0	1	blank2r.bmp	492	1	JQQJ	492	1	blank2r.bmp	572	1	gierig	866	1	!	1292	1	!	-1	0	0	0	0	0	0	0	0	0	0	0	0	0	0	0	0	0	0	0	0	0	0	0	0	0	0	0	0	0	0
070919	13:05:32	13:10:50	316933	5.0.10.0	5_exp_RW	31	Rpleas_acq	CS_A	LWWL	DXXD	ZHHZ	JQQJ	YFFY	CPPC	vertrauen	genießen	träumen	gütig	küssen	sonnig	versagen	gemein	töten	gierig	krank	sterben	1	acq_USpleas_CSpleas2_RW	acq3_RW	3	14	453	0	300	300	345	50	0	1	1	blank2r.bmp	0	1	+	0	1	blank2r.bmp	492	1	DXXD	492	1	blank2r.bmp	572	3	sonnig	866	1	!	-1	1	!	-1	0	0	0	0	0	0	0	0	0	0	0	0	0	0	0	0	0	0	0	0	0	0	0	0	0	0	0	0	0	0
070919	13:05:32	13:10:52	319292	5.0.10.0	5_exp_RW	31	Rpleas_acq	CS_A	LWWL	DXXD	ZHHZ	JQQJ	YFFY	CPPC	vertrauen	genießen	träumen	gütig	küssen	sonnig	versagen	gemein	töten	gierig	krank	sterben	1	acq_USunple_CSunple2_RW	acq3_RW	3	15	453	0	300	300	573	46	0	1	1	blank2r.bmp	0	1	+	0	1	blank2r.bmp	492	1	JQQJ	492	1	blank2r.bmp	572	2	krank	866	1	!	1292	1	!	-1	0	0	0	0	0	0	0	0	0	0	0	0	0	0	0	0	0	0	0	0	0	0	0	0	0	0	0	0	0	0
070919	13:05:32	13:10:55	321665	5.0.10.0	5_exp_RW	31	Rpleas_acq	CS_A	LWWL	DXXD	ZHHZ	JQQJ	YFFY	CPPC	vertrauen	genießen	träumen	gütig	küssen	sonnig	versagen	gemein	töten	gierig	krank	sterben	1	acq_USunple_CSunple1_RW	acq3_RW	3	16	453	0	300	300	365	50	0	0	1	blank2r.bmp	0	1	+	0	1	blank2r.bmp	492	1	ZHHZ	492	1	blank2r.bmp	572	2	gemein	866	1	FEHLER	1572	1	!	-1	1	!	-1	0	0	0	0	0	0	0	0	0	0	0	0	0	0	0	0	0	0	0	0	0	0	0	0	0	0	0
070919	13:05:32	13:10:57	323810	5.0.10.0	5_exp_RW	31	Rpleas_acq	CS_A	LWWL	DXXD	ZHHZ	JQQJ	YFFY	CPPC	vertrauen	genießen	träumen	gütig	küssen	sonnig	versagen	gemein	töten	gierig	krank	sterben	1	acq_USpleas_CSpleas1_RW	acq3_RW	3	17	453	0	300	300	591	50	0	1	1	blank2r.bmp	0	1	+	0	1	blank2r.bmp	492	1	LWWL	492	1	blank2r.bmp	572	2	genießen	866	1	!	1292	1	!	-1	0	0	0	0	0	0	0	0	0	0	0	0	0	0	0	0	0	0	0	0	0	0	0	0	0	0	0	0	0	0
070919	13:05:32	13:10:59	326063	5.0.10.0	5_exp_RW	31	Rpleas_acq	CS_A	LWWL	DXXD	ZHHZ	JQQJ	YFFY	CPPC	vertrauen	genießen	träumen	gütig	küssen	sonnig	versagen	gemein	töten	gierig	krank	sterben	1	acq_USpleas_CSpleas2_RW	acq3_RW	3	18	453	1	300	300	451	50	0	1	1	blank2r.bmp	0	1	+	0	1	blank2r.bmp	492	1	DXXD	492	1	blank2r.bmp	572	3	sonnig	866	1	!	1292	1	!	1346	0	0	0	0	0	0	0	0	0	0	0	0	0	0	0	0	0	0	0	0	0	0	0	0	0	0	0	0	0	0
070919	13:05:32	13:11:01	328302	5.0.10.0	5_exp_RW	31	Rpleas_acq	CS_A	LWWL	DXXD	ZHHZ	JQQJ	YFFY	CPPC	vertrauen	genießen	träumen	gütig	küssen	sonnig	versagen	gemein	töten	gierig	krank	sterben	1	acq_USunple_CSunple1_RW	acq3_RW	3	19	453	1	300	300	448	46	0	1	1	blank2r.bmp	0	1	+	0	1	blank2r.bmp	492	1	ZHHZ	492	1	blank2r.bmp	572	3	töten	866	1	!	1292	1	!	1346	0	0	0	0	0	0	0	0	0	0	0	0	0	0	0	0	0	0	0	0	0	0	0	0	0	0	0	0	0	0
070919	13:05:32	13:11:04	330621	5.0.10.0	5_exp_RW	31	Rpleas_acq	CS_A	LWWL	DXXD	ZHHZ	JQQJ	YFFY	CPPC	vertrauen	genießen	träumen	gütig	küssen	sonnig	versagen	gemein	töten	gierig	krank	sterben	1	acq_USunple_CSunple1_RW	acq3_RW	3	20	453	0	300	300	550	46	0	1	1	blank2r.bmp	0	1	+	0	1	blank2r.bmp	492	1	ZHHZ	492	1	blank2r.bmp	572	1	versagen	866	1	!	1292	1	!	-1	0	0	0	0	0	0	0	0	0	0	0	0	0	0	0	0	0	0	0	0	0	0	0	0	0	0	0	0	0	0
070919	13:05:32	13:11:06	332967	5.0.10.0	5_exp_RW	31	Rpleas_acq	CS_A	LWWL	DXXD	ZHHZ	JQQJ	YFFY	CPPC	vertrauen	genießen	träumen	gütig	küssen	sonnig	versagen	gemein	töten	gierig	krank	sterben	1	acq_USunple_CSunple1_RW	acq3_RW	3	21	453	0	300	300	339	50	0	0	1	blank2r.bmp	0	1	+	0	1	blank2r.bmp	492	1	ZHHZ	492	1	blank2r.bmp	572	2	gemein	866	1	FEHLER	1546	1	!	-1	1	!	-1	0	0	0	0	0	0	0	0	0	0	0	0	0	0	0	0	0	0	0	0	0	0	0	0	0	0	0
070919	13:05:32	13:11:08	334992	5.0.10.0	5_exp_RW	31	Rpleas_acq	CS_A	LWWL	DXXD	ZHHZ	JQQJ	YFFY	CPPC	vertrauen	genießen	träumen	gütig	küssen	sonnig	versagen	gemein	töten	gierig	krank	sterben	1	acq_USunple_CSunple2_RW	acq3_RW	3	22	453	1	300	300	448	46	0	1	1	blank2r.bmp	0	1	+	0	1	blank2r.bmp	492	1	JQQJ	492	1	blank2r.bmp	572	2	krank	866	1	!	1292	1	!	1346	0	0	0	0	0	0	0	0	0	0	0	0	0	0	0	0	0	0	0	0	0	0	0	0	0	0	0	0	0	0
070919	13:05:32	13:11:10	337205	5.0.10.0	5_exp_RW	31	Rpleas_acq	CS_A	LWWL	DXXD	ZHHZ	JQQJ	YFFY	CPPC	vertrauen	genießen	träumen	gütig	küssen	sonnig	versagen	gemein	töten	gierig	krank	sterben	1	acq_USpleas_CSpleas1_RW	acq3_RW	3	23	453	1	300	300	414	50	0	1	1	blank2r.bmp	0	1	+	0	1	blank2r.bmp	492	1	LWWL	492	1	blank2r.bmp	572	3	träumen	866	1	!	1292	1	!	1319	0	0	0	0	0	0	0	0	0	0	0	0	0	0	0	0	0	0	0	0	0	0	0	0	0	0	0	0	0	0
070919	13:05:32	13:11:13	339537	5.0.10.0	5_exp_RW	31	Rpleas_acq	CS_A	LWWL	DXXD	ZHHZ	JQQJ	YFFY	CPPC	vertrauen	genießen	träumen	gütig	küssen	sonnig	versagen	gemein	töten	gierig	krank	sterben	1	acq_USpleas_CSpleas1_RW	acq3_RW	3	24	453	0	300	300	548	50	0	1	1	blank2r.bmp	0	1	+	0	1	blank2r.bmp	492	1	LWWL	492	1	blank2r.bmp	572	2	genießen	866	1	!	1292	1	!	-1	0	0	0	0	0	0	0	0	0	0	0	0	0	0	0	0	0	0	0	0	0	0	0	0	0	0	0	0	0	0
070919	13:05:32	13:11:25	351839	5.0.10.0	5_exp_RW	31	Rpleas_acq	CS_A	LWWL	DXXD	ZHHZ	JQQJ	YFFY	CPPC	vertrauen	genießen	träumen	gütig	küssen	sonnig	versagen	gemein	töten	gierig	krank	sterben	1	acq_USunple_CSunple1_RW	acq4567_RW	4	1	400	1	300	300	384	46	0	1	1	blank2r.bmp	0	1	+	0	1	blank2r.bmp	492	1	ZHHZ	492	1	blank2r.bmp	572	3	töten	866	1	!	1239	1	!	1279	0	0	0	0	0	0	0	0	0	0	0	0	0	0	0	0	0	0	0	0	0	0	0	0	0	0	0	0	0	0
070919	13:05:32	13:11:27	354038	5.0.10.0	5_exp_RW	31	Rpleas_acq	CS_A	LWWL	DXXD	ZHHZ	JQQJ	YFFY	CPPC	vertrauen	genießen	träumen	gütig	küssen	sonnig	versagen	gemein	töten	gierig	krank	sterben	1	acq_USunple_CSunple1_RW	acq4567_RW	4	2	400	1	300	300	411	46	0	1	1	blank2r.bmp	0	1	+	0	1	blank2r.bmp	492	1	ZHHZ	492	1	blank2r.bmp	572	1	versagen	866	1	!	1239	1	!	1306	0	0	0	0	0	0	0	0	0	0	0	0	0	0	0	0	0	0	0	0	0	0	0	0	0	0	0	0	0	0
070919	13:05:32	13:11:29	356317	5.0.10.0	5_exp_RW	31	Rpleas_acq	CS_A	LWWL	DXXD	ZHHZ	JQQJ	YFFY	CPPC	vertrauen	genießen	träumen	gütig	küssen	sonnig	versagen	gemein	töten	gierig	krank	sterben	1	acq_USunple_CSunple2_RW	acq4567_RW	4	3	400	0	300	300	511	46	0	1	1	blank2r.bmp	0	1	+	0	1	blank2r.bmp	492	1	JQQJ	492	1	blank2r.bmp	572	3	sterben	866	1	!	1239	1	!	-1	0	0	0	0	0	0	0	0	0	0	0	0	0	0	0	0	0	0	0	0	0	0	0	0	0	0	0	0	0	0
070919	13:05:32	13:11:32	358569	5.0.10.0	5_exp_RW	31	Rpleas_acq	CS_A	LWWL	DXXD	ZHHZ	JQQJ	YFFY	CPPC	vertrauen	genießen	träumen	gütig	küssen	sonnig	versagen	gemein	töten	gierig	krank	sterben	1	acq_USpleas_CSpleas2_RW	acq4567_RW	4	4	400	1	300	300	436	50	0	1	1	blank2r.bmp	0	1	+	0	1	blank2r.bmp	492	1	DXXD	492	1	blank2r.bmp	572	1	gütig	866	1	!	1239	1	!	1332	0	0	0	0	0	0	0	0	0	0	0	0	0	0	0	0	0	0	0	0	0	0	0	0	0	0	0	0	0	0
070919	13:05:32	13:11:34	360822	5.0.10.0	5_exp_RW	31	Rpleas_acq	CS_A	LWWL	DXXD	ZHHZ	JQQJ	YFFY	CPPC	vertrauen	genießen	träumen	gütig	küssen	sonnig	versagen	gemein	töten	gierig	krank	sterben	1	acq_USpleas_CSpleas2_RW	acq4567_RW	4	5	400	1	300	300	459	50	0	1	1	blank2r.bmp	0	1	+	0	1	blank2r.bmp	492	1	DXXD	492	1	blank2r.bmp	572	2	küssen	866	1	!	1239	1	!	1359	0	0	0	0	0	0	0	0	0	0	0	0	0	0	0	0	0	0	0	0	0	0	0	0	0	0	0	0	0	0
070919	13:05:32	13:11:36	363087	5.0.10.0	5_exp_RW	31	Rpleas_acq	CS_A	LWWL	DXXD	ZHHZ	JQQJ	YFFY	CPPC	vertrauen	genießen	träumen	gütig	küssen	sonnig	versagen	gemein	töten	gierig	krank	sterben	1	acq_USpleas_CSpleas1_RW	acq4567_RW	4	6	400	0	300	300	491	50	0	1	1	blank2r.bmp	0	1	+	0	1	blank2r.bmp	492	1	LWWL	492	1	blank2r.bmp	572	3	träumen	866	1	!	1239	1	!	-1	0	0	0	0	0	0	0	0	0	0	0	0	0	0	0	0	0	0	0	0	0	0	0	0	0	0	0	0	0	0
070919	13:05:32	13:11:38	365420	5.0.10.0	5_exp_RW	31	Rpleas_acq	CS_A	LWWL	DXXD	ZHHZ	JQQJ	YFFY	CPPC	vertrauen	genießen	träumen	gütig	küssen	sonnig	versagen	gemein	töten	gierig	krank	sterben	1	acq_USpleas_CSpleas2_RW	acq4567_RW	4	7	400	0	300	300	533	50	0	1	1	blank2r.bmp	0	1	+	0	1	blank2r.bmp	492	1	DXXD	492	1	blank2r.bmp	572	2	küssen	866	1	!	1239	1	!	-1	0	0	0	0	0	0	0	0	0	0	0	0	0	0	0	0	0	0	0	0	0	0	0	0	0	0	0	0	0	0
070919	13:05:32	13:11:41	367672	5.0.10.0	5_exp_RW	31	Rpleas_acq	CS_A	LWWL	DXXD	ZHHZ	JQQJ	YFFY	CPPC	vertrauen	genießen	träumen	gütig	küssen	sonnig	versagen	gemein	töten	gierig	krank	sterben	1	acq_USpleas_CSpleas1_RW	acq4567_RW	4	8	400	1	300	300	440	50	0	1	1	blank2r.bmp	0	1	+	0	1	blank2r.bmp	492	1	LWWL	492	1	blank2r.bmp	572	1	vertrauen	866	1	!	1239	1	!	1346	0	0	0	0	0	0	0	0	0	0	0	0	0	0	0	0	0	0	0	0	0	0	0	0	0	0	0	0	0	0
070919	13:05:32	13:11:43	369885	5.0.10.0	5_exp_RW	31	Rpleas_acq	CS_A	LWWL	DXXD	ZHHZ	JQQJ	YFFY	CPPC	vertrauen	genießen	träumen	gütig	küssen	sonnig	versagen	gemein	töten	gierig	krank	sterben	1	acq_USpleas_CSpleas2_RW	acq4567_RW	4	9	400	1	300	300	423	50	0	1	1	blank2r.bmp	0	1	+	0	1	blank2r.bmp	492	1	DXXD	492	1	blank2r.bmp	572	3	sonnig	866	1	!	1239	1	!	1319	0	0	0	0	0	0	0	0	0	0	0	0	0	0	0	0	0	0	0	0	0	0	0	0	0	0	0	0	0	0
070919	13:05:32	13:11:45	372084	5.0.10.0	5_exp_RW	31	Rpleas_acq	CS_A	LWWL	DXXD	ZHHZ	JQQJ	YFFY	CPPC	vertrauen	genießen	träumen	gütig	küssen	sonnig	versagen	gemein	töten	gierig	krank	sterben	1	acq_USunple_CSunple2_RW	acq4567_RW	4	10	400	1	300	300	386	50	0	0	1	blank2r.bmp	0	1	+	0	1	blank2r.bmp	492	1	JQQJ	492	1	blank2r.bmp	572	1	gierig	866	1	!	1239	1	!	1292	0	0	0	0	0	0	0	0	0	0	0	0	0	0	0	0	0	0	0	0	0	0	0	0	0	0	0	0	0	0
070919	13:05:32	13:11:47	374376	5.0.10.0	5_exp_RW	31	Rpleas_acq	CS_A	LWWL	DXXD	ZHHZ	JQQJ	YFFY	CPPC	vertrauen	genießen	träumen	gütig	küssen	sonnig	versagen	gemein	töten	gierig	krank	sterben	1	acq_USunple_CSunple2_RW	acq4567_RW	4	11	400	0	300	300	528	46	0	1	1	blank2r.bmp	0	1	+	0	1	blank2r.bmp	492	1	JQQJ	492	1	blank2r.bmp	572	2	krank	866	1	!	1239	1	!	-1	0	0	0	0	0	0	0	0	0	0	0	0	0	0	0	0	0	0	0	0	0	0	0	0	0	0	0	0	0	0
070919	13:05:32	13:11:50	376708	5.0.10.0	5_exp_RW	31	Rpleas_acq	CS_A	LWWL	DXXD	ZHHZ	JQQJ	YFFY	CPPC	vertrauen	genießen	träumen	gütig	küssen	sonnig	versagen	gemein	töten	gierig	krank	sterben	1	acq_USpleas_CSpleas2_RW	acq4567_RW	4	12	400	0	300	300	552	50	0	1	1	blank2r.bmp	0	1	+	0	1	blank2r.bmp	492	1	DXXD	492	1	blank2r.bmp	572	1	gütig	866	1	!	1239	1	!	-1	0	0	0	0	0	0	0	0	0	0	0	0	0	0	0	0	0	0	0	0	0	0	0	0	0	0	0	0	0	0
070919	13:05:32	13:11:52	379001	5.0.10.0	5_exp_RW	31	Rpleas_acq	CS_A	LWWL	DXXD	ZHHZ	JQQJ	YFFY	CPPC	vertrauen	genießen	träumen	gütig	küssen	sonnig	versagen	gemein	töten	gierig	krank	sterben	1	acq_USunple_CSunple2_RW	acq4567_RW	4	13	400	0	300	300	510	46	0	1	1	blank2r.bmp	0	1	+	0	1	blank2r.bmp	492	1	JQQJ	492	1	blank2r.bmp	572	1	gierig	866	1	!	1239	1	!	-1	0	0	0	0	0	0	0	0	0	0	0	0	0	0	0	0	0	0	0	0	0	0	0	0	0	0	0	0	0	0
070919	13:05:32	13:11:54	381306	5.0.10.0	5_exp_RW	31	Rpleas_acq	CS_A	LWWL	DXXD	ZHHZ	JQQJ	YFFY	CPPC	vertrauen	genießen	träumen	gütig	küssen	sonnig	versagen	gemein	töten	gierig	krank	sterben	1	acq_USpleas_CSpleas1_RW	acq4567_RW	4	14	400	0	300	300	527	50	0	1	1	blank2r.bmp	0	1	+	0	1	blank2r.bmp	492	1	LWWL	492	1	blank2r.bmp	572	2	genießen	866	1	!	1239	1	!	-1	0	0	0	0	0	0	0	0	0	0	0	0	0	0	0	0	0	0	0	0	0	0	0	0	0	0	0	0	0	0
070919	13:05:32	13:11:57	383585	5.0.10.0	5_exp_RW	31	Rpleas_acq	CS_A	LWWL	DXXD	ZHHZ	JQQJ	YFFY	CPPC	vertrauen	genießen	träumen	gütig	küssen	sonnig	versagen	gemein	töten	gierig	krank	sterben	1	acq_USunple_CSunple1_RW	acq4567_RW	4	15	400	1	300	300	459	46	0	1	1	blank2r.bmp	0	1	+	0	1	blank2r.bmp	492	1	ZHHZ	492	1	blank2r.bmp	572	2	gemein	866	1	!	1239	1	!	1359	0	0	0	0	0	0	0	0	0	0	0	0	0	0	0	0	0	0	0	0	0	0	0	0	0	0	0	0	0	0
070919	13:05:32	13:11:59	385771	5.0.10.0	5_exp_RW	31	Rpleas_acq	CS_A	LWWL	DXXD	ZHHZ	JQQJ	YFFY	CPPC	vertrauen	genießen	träumen	gütig	küssen	sonnig	versagen	gemein	töten	gierig	krank	sterben	1	acq_USunple_CSunple1_RW	acq4567_RW	4	16	400	1	300	300	394	46	0	1	1	blank2r.bmp	0	1	+	0	1	blank2r.bmp	492	1	ZHHZ	492	1	blank2r.bmp	572	3	töten	866	1	!	1239	1	!	1292	0	0	0	0	0	0	0	0	0	0	0	0	0	0	0	0	0	0	0	0	0	0	0	0	0	0	0	0	0	0
070919	13:05:32	13:12:01	388037	5.0.10.0	5_exp_RW	31	Rpleas_acq	CS_A	LWWL	DXXD	ZHHZ	JQQJ	YFFY	CPPC	vertrauen	genießen	träumen	gütig	küssen	sonnig	versagen	gemein	töten	gierig	krank	sterben	1	acq_USpleas_CSpleas1_RW	acq4567_RW	4	17	400	1	300	300	466	50	0	1	1	blank2r.bmp	0	1	+	0	1	blank2r.bmp	492	1	LWWL	492	1	blank2r.bmp	572	1	vertrauen	866	1	!	1239	1	!	1372	0	0	0	0	0	0	0	0	0	0	0	0	0	0	0	0	0	0	0	0	0	0	0	0	0	0	0	0	0	0
070919	13:05:32	13:12:03	390289	5.0.10.0	5_exp_RW	31	Rpleas_acq	CS_A	LWWL	DXXD	ZHHZ	JQQJ	YFFY	CPPC	vertrauen	genießen	träumen	gütig	küssen	sonnig	versagen	gemein	töten	gierig	krank	sterben	1	acq_USunple_CSunple1_RW	acq4567_RW	4	18	400	1	300	300	460	46	0	1	1	blank2r.bmp	0	1	+	0	1	blank2r.bmp	492	1	ZHHZ	492	1	blank2r.bmp	572	1	versagen	866	1	!	1239	1	!	1359	0	0	0	0	0	0	0	0	0	0	0	0	0	0	0	0	0	0	0	0	0	0	0	0	0	0	0	0	0	0
070919	13:05:32	13:12:06	392568	5.0.10.0	5_exp_RW	31	Rpleas_acq	CS_A	LWWL	DXXD	ZHHZ	JQQJ	YFFY	CPPC	vertrauen	genießen	träumen	gütig	küssen	sonnig	versagen	gemein	töten	gierig	krank	sterben	1	acq_USpleas_CSpleas1_RW	acq4567_RW	4	19	400	0	300	300	495	46	0	0	1	blank2r.bmp	0	1	+	0	1	blank2r.bmp	492	1	LWWL	492	1	blank2r.bmp	572	3	träumen	866	1	!	1239	1	!	-1	0	0	0	0	0	0	0	0	0	0	0	0	0	0	0	0	0	0	0	0	0	0	0	0	0	0	0	0	0	0
070919	13:05:32	13:12:08	394794	5.0.10.0	5_exp_RW	31	Rpleas_acq	CS_A	LWWL	DXXD	ZHHZ	JQQJ	YFFY	CPPC	vertrauen	genießen	träumen	gütig	küssen	sonnig	versagen	gemein	töten	gierig	krank	sterben	1	acq_USunple_CSunple2_RW	acq4567_RW	4	20	400	1	300	300	414	46	0	1	1	blank2r.bmp	0	1	+	0	1	blank2r.bmp	492	1	JQQJ	492	1	blank2r.bmp	572	3	sterben	866	1	!	1239	1	!	1319	0	0	0	0	0	0	0	0	0	0	0	0	0	0	0	0	0	0	0	0	0	0	0	0	0	0	0	0	0	0
070919	13:05:32	13:12:10	397166	5.0.10.0	5_exp_RW	31	Rpleas_acq	CS_A	LWWL	DXXD	ZHHZ	JQQJ	YFFY	CPPC	vertrauen	genießen	träumen	gütig	küssen	sonnig	versagen	gemein	töten	gierig	krank	sterben	1	acq_USpleas_CSpleas2_RW	acq4567_RW	4	21	400	0	300	300	601	50	0	1	1	blank2r.bmp	0	1	+	0	1	blank2r.bmp	492	1	DXXD	492	1	blank2r.bmp	572	3	sonnig	866	1	!	1239	1	!	-1	0	0	0	0	0	0	0	0	0	0	0	0	0	0	0	0	0	0	0	0	0	0	0	0	0	0	0	0	0	0
070919	13:05:32	13:12:12	399246	5.0.10.0	5_exp_RW	31	Rpleas_acq	CS_A	LWWL	DXXD	ZHHZ	JQQJ	YFFY	CPPC	vertrauen	genießen	träumen	gütig	küssen	sonnig	versagen	gemein	töten	gierig	krank	sterben	1	acq_USpleas_CSpleas2_RW	acq4567_RW	4	22	400	0	300	300	292	46	0	0	1	blank2r.bmp	0	1	+	0	1	blank2r.bmp	492	1	DXXD	492	1	blank2r.bmp	572	1	gütig	866	1	!	-1	1	!	-1	0	0	0	0	0	0	0	0	0	0	0	0	0	0	0	0	0	0	0	0	0	0	0	0	0	0	0	0	0	0
070919	13:05:32	13:12:15	401711	5.0.10.0	5_exp_RW	31	Rpleas_acq	CS_A	LWWL	DXXD	ZHHZ	JQQJ	YFFY	CPPC	vertrauen	genießen	träumen	gütig	küssen	sonnig	versagen	gemein	töten	gierig	krank	sterben	1	acq_USunple_CSunple2_RW	acq4567_RW	4	23	400	0	300	300	691	46	0	1	1	blank2r.bmp	0	1	+	0	1	blank2r.bmp	492	1	JQQJ	492	1	blank2r.bmp	572	2	krank	866	1	!	1239	1	!	-1	0	0	0	0	0	0	0	0	0	0	0	0	0	0	0	0	0	0	0	0	0	0	0	0	0	0	0	0	0	0
070919	13:05:32	13:12:17	403950	5.0.10.0	5_exp_RW	31	Rpleas_acq	CS_A	LWWL	DXXD	ZHHZ	JQQJ	YFFY	CPPC	vertrauen	genießen	träumen	gütig	küssen	sonnig	versagen	gemein	töten	gierig	krank	sterben	1	acq_USunple_CSunple1_RW	acq4567_RW	4	24	400	1	300	300	422	46	0	1	1	blank2r.bmp	0	1	+	0	1	blank2r.bmp	492	1	ZHHZ	492	1	blank2r.bmp	572	2	gemein	866	1	!	1239	1	!	1319	0	0	0	0	0	0	0	0	0	0	0	0	0	0	0	0	0	0	0	0	0	0	0	0	0	0	0	0	0	0
070919	13:05:32	13:12:19	406189	5.0.10.0	5_exp_RW	31	Rpleas_acq	CS_A	LWWL	DXXD	ZHHZ	JQQJ	YFFY	CPPC	vertrauen	genießen	träumen	gütig	küssen	sonnig	versagen	gemein	töten	gierig	krank	sterben	1	acq_USpleas_CSpleas1_RW	acq4567_RW	4	25	400	1	300	300	441	50	0	1	1	blank2r.bmp	0	1	+	0	1	blank2r.bmp	492	1	LWWL	492	1	blank2r.bmp	572	3	träumen	866	1	!	1239	1	!	1346	0	0	0	0	0	0	0	0	0	0	0	0	0	0	0	0	0	0	0	0	0	0	0	0	0	0	0	0	0	0
070919	13:05:32	13:12:21	408442	5.0.10.0	5_exp_RW	31	Rpleas_acq	CS_A	LWWL	DXXD	ZHHZ	JQQJ	YFFY	CPPC	vertrauen	genießen	träumen	gütig	küssen	sonnig	versagen	gemein	töten	gierig	krank	sterben	1	acq_USunple_CSunple2_RW	acq4567_RW	4	26	400	1	300	300	465	46	0	1	1	blank2r.bmp	0	1	+	0	1	blank2r.bmp	492	1	JQQJ	492	1	blank2r.bmp	572	3	sterben	866	1	!	1239	1	!	1359	0	0	0	0	0	0	0	0	0	0	0	0	0	0	0	0	0	0	0	0	0	0	0	0	0	0	0	0	0	0
070919	13:05:32	13:12:24	410627	5.0.10.0	5_exp_RW	31	Rpleas_acq	CS_A	LWWL	DXXD	ZHHZ	JQQJ	YFFY	CPPC	vertrauen	genießen	träumen	gütig	küssen	sonnig	versagen	gemein	töten	gierig	krank	sterben	1	acq_USunple_CSunple1_RW	acq4567_RW	4	27	400	1	300	300	388	46	0	1	1	blank2r.bmp	0	1	+	0	1	blank2r.bmp	492	1	ZHHZ	492	1	blank2r.bmp	572	1	versagen	866	1	!	1239	1	!	1292	0	0	0	0	0	0	0	0	0	0	0	0	0	0	0	0	0	0	0	0	0	0	0	0	0	0	0	0	0	0
070919	13:05:32	13:12:26	412840	5.0.10.0	5_exp_RW	31	Rpleas_acq	CS_A	LWWL	DXXD	ZHHZ	JQQJ	YFFY	CPPC	vertrauen	genießen	träumen	gütig	küssen	sonnig	versagen	gemein	töten	gierig	krank	sterben	1	acq_USunple_CSunple1_RW	acq4567_RW	4	28	400	1	300	300	412	46	0	1	1	blank2r.bmp	0	1	+	0	1	blank2r.bmp	492	1	ZHHZ	492	1	blank2r.bmp	572	3	töten	866	1	!	1239	1	!	1319	0	0	0	0	0	0	0	0	0	0	0	0	0	0	0	0	0	0	0	0	0	0	0	0	0	0	0	0	0	0
070919	13:05:32	13:12:28	415119	5.0.10.0	5_exp_RW	31	Rpleas_acq	CS_A	LWWL	DXXD	ZHHZ	JQQJ	YFFY	CPPC	vertrauen	genießen	träumen	gütig	küssen	sonnig	versagen	gemein	töten	gierig	krank	sterben	1	acq_USunple_CSunple1_RW	acq4567_RW	4	29	400	0	300	300	515	46	0	1	1	blank2r.bmp	0	1	+	0	1	blank2r.bmp	492	1	ZHHZ	492	1	blank2r.bmp	572	1	versagen	866	1	!	1239	1	!	-1	0	0	0	0	0	0	0	0	0	0	0	0	0	0	0	0	0	0	0	0	0	0	0	0	0	0	0	0	0	0
070919	13:05:32	13:12:30	417385	5.0.10.0	5_exp_RW	31	Rpleas_acq	CS_A	LWWL	DXXD	ZHHZ	JQQJ	YFFY	CPPC	vertrauen	genießen	träumen	gütig	küssen	sonnig	versagen	gemein	töten	gierig	krank	sterben	1	acq_USpleas_CSpleas2_RW	acq4567_RW	4	30	400	0	300	300	479	50	0	1	1	blank2r.bmp	0	1	+	0	1	blank2r.bmp	492	1	DXXD	492	1	blank2r.bmp	572	2	küssen	866	1	!	1239	1	!	-1	0	0	0	0	0	0	0	0	0	0	0	0	0	0	0	0	0	0	0	0	0	0	0	0	0	0	0	0	0	0
070919	13:05:32	13:12:33	419584	5.0.10.0	5_exp_RW	31	Rpleas_acq	CS_A	LWWL	DXXD	ZHHZ	JQQJ	YFFY	CPPC	vertrauen	genießen	träumen	gütig	küssen	sonnig	versagen	gemein	töten	gierig	krank	sterben	1	acq_USpleas_CSpleas1_RW	acq4567_RW	4	31	400	1	300	300	394	50	0	1	1	blank2r.bmp	0	1	+	0	1	blank2r.bmp	492	1	LWWL	492	1	blank2r.bmp	572	1	vertrauen	866	1	!	1239	1	!	1292	0	0	0	0	0	0	0	0	0	0	0	0	0	0	0	0	0	0	0	0	0	0	0	0	0	0	0	0	0	0
070919	13:05:32	13:12:35	421809	5.0.10.0	5_exp_RW	31	Rpleas_acq	CS_A	LWWL	DXXD	ZHHZ	JQQJ	YFFY	CPPC	vertrauen	genießen	träumen	gütig	küssen	sonnig	versagen	gemein	töten	gierig	krank	sterben	1	acq_USunple_CSunple2_RW	acq4567_RW	4	32	400	1	300	300	427	46	0	1	1	blank2r.bmp	0	1	+	0	1	blank2r.bmp	492	1	JQQJ	492	1	blank2r.bmp	572	1	gierig	866	1	!	1239	1	!	1332	0	0	0	0	0	0	0	0	0	0	0	0	0	0	0	0	0	0	0	0	0	0	0	0	0	0	0	0	0	0
070919	13:05:32	13:12:37	424062	5.0.10.0	5_exp_RW	31	Rpleas_acq	CS_A	LWWL	DXXD	ZHHZ	JQQJ	YFFY	CPPC	vertrauen	genießen	träumen	gütig	küssen	sonnig	versagen	gemein	töten	gierig	krank	sterben	1	acq_USunple_CSunple1_RW	acq4567_RW	4	33	400	0	300	300	479	46	0	1	1	blank2r.bmp	0	1	+	0	1	blank2r.bmp	492	1	ZHHZ	492	1	blank2r.bmp	572	2	gemein	866	1	!	1239	1	!	-1	0	0	0	0	0	0	0	0	0	0	0	0	0	0	0	0	0	0	0	0	0	0	0	0	0	0	0	0	0	0
070919	13:05:32	13:12:39	426341	5.0.10.0	5_exp_RW	31	Rpleas_acq	CS_A	LWWL	DXXD	ZHHZ	JQQJ	YFFY	CPPC	vertrauen	genießen	träumen	gütig	küssen	sonnig	versagen	gemein	töten	gierig	krank	sterben	1	acq_USunple_CSunple2_RW	acq4567_RW	4	34	400	0	300	300	499	46	0	1	1	blank2r.bmp	0	1	+	0	1	blank2r.bmp	492	1	JQQJ	492	1	blank2r.bmp	572	1	gierig	866	1	!	1239	1	!	-1	0	0	0	0	0	0	0	0	0	0	0	0	0	0	0	0	0	0	0	0	0	0	0	0	0	0	0	0	0	0
070919	13:05:32	13:12:42	428620	5.0.10.0	5_exp_RW	31	Rpleas_acq	CS_A	LWWL	DXXD	ZHHZ	JQQJ	YFFY	CPPC	vertrauen	genießen	träumen	gütig	küssen	sonnig	versagen	gemein	töten	gierig	krank	sterben	1	acq_USpleas_CSpleas1_RW	acq4567_RW	4	35	400	0	300	300	500	50	0	1	1	blank2r.bmp	0	1	+	0	1	blank2r.bmp	492	1	LWWL	492	1	blank2r.bmp	572	2	genießen	866	1	!	1239	1	!	-1	0	0	0	0	0	0	0	0	0	0	0	0	0	0	0	0	0	0	0	0	0	0	0	0	0	0	0	0	0	0
070919	13:05:32	13:12:44	430686	5.0.10.0	5_exp_RW	31	Rpleas_acq	CS_A	LWWL	DXXD	ZHHZ	JQQJ	YFFY	CPPC	vertrauen	genießen	träumen	gütig	küssen	sonnig	versagen	gemein	töten	gierig	krank	sterben	1	acq_USpleas_CSpleas1_RW	acq4567_RW	4	36	400	0	300	300	273	50	0	1	1	blank2r.bmp	0	1	+	0	1	blank2r.bmp	492	1	LWWL	492	1	blank2r.bmp	572	2	genießen	866	1	!	-1	1	!	-1	0	0	0	0	0	0	0	0	0	0	0	0	0	0	0	0	0	0	0	0	0	0	0	0	0	0	0	0	0	0
070919	13:05:32	13:12:46	432872	5.0.10.0	5_exp_RW	31	Rpleas_acq	CS_A	LWWL	DXXD	ZHHZ	JQQJ	YFFY	CPPC	vertrauen	genießen	träumen	gütig	küssen	sonnig	versagen	gemein	töten	gierig	krank	sterben	1	acq_USpleas_CSpleas2_RW	acq4567_RW	4	37	400	1	300	300	373	46	0	0	1	blank2r.bmp	0	1	+	0	1	blank2r.bmp	492	1	DXXD	492	1	blank2r.bmp	572	2	küssen	866	1	!	1239	1	!	1279	0	0	0	0	0	0	0	0	0	0	0	0	0	0	0	0	0	0	0	0	0	0	0	0	0	0	0	0	0	0
070919	13:05:32	13:12:48	435084	5.0.10.0	5_exp_RW	31	Rpleas_acq	CS_A	LWWL	DXXD	ZHHZ	JQQJ	YFFY	CPPC	vertrauen	genießen	träumen	gütig	küssen	sonnig	versagen	gemein	töten	gierig	krank	sterben	1	acq_USunple_CSunple2_RW	acq4567_RW	4	38	400	1	300	300	415	46	0	1	1	blank2r.bmp	0	1	+	0	1	blank2r.bmp	492	1	JQQJ	492	1	blank2r.bmp	572	2	krank	866	1	!	1239	1	!	1319	0	0	0	0	0	0	0	0	0	0	0	0	0	0	0	0	0	0	0	0	0	0	0	0	0	0	0	0	0	0
070919	13:05:32	13:12:51	437536	5.0.10.0	5_exp_RW	31	Rpleas_acq	CS_A	LWWL	DXXD	ZHHZ	JQQJ	YFFY	CPPC	vertrauen	genießen	träumen	gütig	küssen	sonnig	versagen	gemein	töten	gierig	krank	sterben	1	acq_USpleas_CSpleas2_RW	acq4567_RW	4	39	400	0	300	300	679	50	0	1	1	blank2r.bmp	0	1	+	0	1	blank2r.bmp	492	1	DXXD	492	1	blank2r.bmp	572	3	sonnig	866	1	!	1239	1	!	-1	0	0	0	0	0	0	0	0	0	0	0	0	0	0	0	0	0	0	0	0	0	0	0	0	0	0	0	0	0	0
070919	13:05:32	13:12:53	439775	5.0.10.0	5_exp_RW	31	Rpleas_acq	CS_A	LWWL	DXXD	ZHHZ	JQQJ	YFFY	CPPC	vertrauen	genießen	träumen	gütig	küssen	sonnig	versagen	gemein	töten	gierig	krank	sterben	1	acq_USpleas_CSpleas1_RW	acq4567_RW	4	40	400	1	300	300	437	50	0	1	1	blank2r.bmp	0	1	+	0	1	blank2r.bmp	492	1	LWWL	492	1	blank2r.bmp	572	3	träumen	866	1	!	1239	1	!	1332	0	0	0	0	0	0	0	0	0	0	0	0	0	0	0	0	0	0	0	0	0	0	0	0	0	0	0	0	0	0
070919	13:05:32	13:12:55	442081	5.0.10.0	5_exp_RW	31	Rpleas_acq	CS_A	LWWL	DXXD	ZHHZ	JQQJ	YFFY	CPPC	vertrauen	genießen	träumen	gütig	küssen	sonnig	versagen	gemein	töten	gierig	krank	sterben	1	acq_USpleas_CSpleas1_RW	acq4567_RW	4	41	400	0	300	300	535	50	0	1	1	blank2r.bmp	0	1	+	0	1	blank2r.bmp	492	1	LWWL	492	1	blank2r.bmp	572	1	vertrauen	866	1	!	1239	1	!	-1	0	0	0	0	0	0	0	0	0	0	0	0	0	0	0	0	0	0	0	0	0	0	0	0	0	0	0	0	0	0
070919	13:05:32	13:12:57	444293	5.0.10.0	5_exp_RW	31	Rpleas_acq	CS_A	LWWL	DXXD	ZHHZ	JQQJ	YFFY	CPPC	vertrauen	genießen	träumen	gütig	küssen	sonnig	versagen	gemein	töten	gierig	krank	sterben	1	acq_USpleas_CSpleas2_RW	acq4567_RW	4	42	400	1	300	300	404	50	0	1	1	blank2r.bmp	0	1	+	0	1	blank2r.bmp	492	1	DXXD	492	1	blank2r.bmp	572	1	gütig	866	1	!	1239	1	!	1306	0	0	0	0	0	0	0	0	0	0	0	0	0	0	0	0	0	0	0	0	0	0	0	0	0	0	0	0	0	0
070919	13:05:32	13:13:00	446572	5.0.10.0	5_exp_RW	31	Rpleas_acq	CS_A	LWWL	DXXD	ZHHZ	JQQJ	YFFY	CPPC	vertrauen	genießen	träumen	gütig	küssen	sonnig	versagen	gemein	töten	gierig	krank	sterben	1	acq_USunple_CSunple2_RW	acq4567_RW	4	43	400	0	300	300	516	46	0	1	1	blank2r.bmp	0	1	+	0	1	blank2r.bmp	492	1	JQQJ	492	1	blank2r.bmp	572	3	sterben	866	1	!	1239	1	!	-1	0	0	0	0	0	0	0	0	0	0	0	0	0	0	0	0	0	0	0	0	0	0	0	0	0	0	0	0	0	0
070919	13:05:32	13:13:02	448785	5.0.10.0	5_exp_RW	31	Rpleas_acq	CS_A	LWWL	DXXD	ZHHZ	JQQJ	YFFY	CPPC	vertrauen	genießen	träumen	gütig	küssen	sonnig	versagen	gemein	töten	gierig	krank	sterben	1	acq_USpleas_CSpleas2_RW	acq4567_RW	4	44	400	1	300	300	400	50	0	1	1	blank2r.bmp	0	1	+	0	1	blank2r.bmp	492	1	DXXD	492	1	blank2r.bmp	572	2	küssen	866	1	!	1239	1	!	1306	0	0	0	0	0	0	0	0	0	0	0	0	0	0	0	0	0	0	0	0	0	0	0	0	0	0	0	0	0	0
070919	13:05:32	13:13:04	451064	5.0.10.0	5_exp_RW	31	Rpleas_acq	CS_A	LWWL	DXXD	ZHHZ	JQQJ	YFFY	CPPC	vertrauen	genießen	träumen	gütig	küssen	sonnig	versagen	gemein	töten	gierig	krank	sterben	1	acq_USunple_CSunple2_RW	acq4567_RW	4	45	400	0	300	300	518	46	0	1	1	blank2r.bmp	0	1	+	0	1	blank2r.bmp	492	1	JQQJ	492	1	blank2r.bmp	572	1	gierig	866	1	!	1239	1	!	-1	0	0	0	0	0	0	0	0	0	0	0	0	0	0	0	0	0	0	0	0	0	0	0	0	0	0	0	0	0	0
070919	13:05:32	13:13:06	453263	5.0.10.0	5_exp_RW	31	Rpleas_acq	CS_A	LWWL	DXXD	ZHHZ	JQQJ	YFFY	CPPC	vertrauen	genießen	träumen	gütig	küssen	sonnig	versagen	gemein	töten	gierig	krank	sterben	1	acq_USpleas_CSpleas1_RW	acq4567_RW	4	46	400	1	300	300	394	50	0	1	1	blank2r.bmp	0	1	+	0	1	blank2r.bmp	492	1	LWWL	492	1	blank2r.bmp	572	2	genießen	866	1	!	1239	1	!	1292	0	0	0	0	0	0	0	0	0	0	0	0	0	0	0	0	0	0	0	0	0	0	0	0	0	0	0	0	0	0
070919	13:05:32	13:13:09	455555	5.0.10.0	5_exp_RW	31	Rpleas_acq	CS_A	LWWL	DXXD	ZHHZ	JQQJ	YFFY	CPPC	vertrauen	genießen	träumen	gütig	küssen	sonnig	versagen	gemein	töten	gierig	krank	sterben	1	acq_USpleas_CSpleas1_RW	acq4567_RW	4	47	400	0	300	300	521	50	0	1	1	blank2r.bmp	0	1	+	0	1	blank2r.bmp	492	1	LWWL	492	1	blank2r.bmp	572	1	vertrauen	866	1	!	1239	1	!	-1	0	0	0	0	0	0	0	0	0	0	0	0	0	0	0	0	0	0	0	0	0	0	0	0	0	0	0	0	0	0
070919	13:05:32	13:13:11	457848	5.0.10.0	5_exp_RW	31	Rpleas_acq	CS_A	LWWL	DXXD	ZHHZ	JQQJ	YFFY	CPPC	vertrauen	genießen	träumen	gütig	küssen	sonnig	versagen	gemein	töten	gierig	krank	sterben	1	acq_USpleas_CSpleas1_RW	acq4567_RW	4	48	400	0	300	300	510	50	0	1	1	blank2r.bmp	0	1	+	0	1	blank2r.bmp	492	1	LWWL	492	1	blank2r.bmp	572	3	träumen	866	1	!	1239	1	!	-1	0	0	0	0	0	0	0	0	0	0	0	0	0	0	0	0	0	0	0	0	0	0	0	0	0	0	0	0	0	0
070919	13:05:32	13:13:13	460260	5.0.10.0	5_exp_RW	31	Rpleas_acq	CS_A	LWWL	DXXD	ZHHZ	JQQJ	YFFY	CPPC	vertrauen	genießen	träumen	gütig	küssen	sonnig	versagen	gemein	töten	gierig	krank	sterben	1	acq_USunple_CSunple1_RW	acq4567_RW	4	49	400	0	300	300	626	46	0	1	1	blank2r.bmp	0	1	+	0	1	blank2r.bmp	492	1	ZHHZ	492	1	blank2r.bmp	572	3	töten	866	1	!	1239	1	!	-1	0	0	0	0	0	0	0	0	0	0	0	0	0	0	0	0	0	0	0	0	0	0	0	0	0	0	0	0	0	0
070919	13:05:32	13:13:17	464258	5.0.10.0	5_exp_RW	31	Rpleas_acq	CS_A	LWWL	DXXD	ZHHZ	JQQJ	YFFY	CPPC	vertrauen	genießen	träumen	gütig	küssen	sonnig	versagen	gemein	töten	gierig	krank	sterben	1	acq_USunple_CSunple1_RW	acq4567_RW	4	50	400	0	300	300	2212	46	0	1	1	blank2r.bmp	0	1	+	0	1	blank2r.bmp	492	1	ZHHZ	492	1	blank2r.bmp	572	2	gemein	866	1	!	1239	1	!	-1	0	0	0	0	0	0	0	0	0	0	0	0	0	0	0	0	0	0	0	0	0	0	0	0	0	0	0	0	0	0
070919	13:05:32	13:13:19	466311	5.0.10.0	5_exp_RW	31	Rpleas_acq	CS_A	LWWL	DXXD	ZHHZ	JQQJ	YFFY	CPPC	vertrauen	genießen	träumen	gütig	küssen	sonnig	versagen	gemein	töten	gierig	krank	sterben	1	acq_USpleas_CSpleas1_RW	acq4567_RW	4	51	400	0	300	300	268	50	0	1	1	blank2r.bmp	0	1	+	0	1	blank2r.bmp	492	1	LWWL	492	1	blank2r.bmp	572	3	träumen	866	1	!	-1	1	!	-1	0	0	0	0	0	0	0	0	0	0	0	0	0	0	0	0	0	0	0	0	0	0	0	0	0	0	0	0	0	0
070919	13:05:32	13:13:22	468603	5.0.10.0	5_exp_RW	31	Rpleas_acq	CS_A	LWWL	DXXD	ZHHZ	JQQJ	YFFY	CPPC	vertrauen	genießen	träumen	gütig	küssen	sonnig	versagen	gemein	töten	gierig	krank	sterben	1	acq_USunple_CSunple1_RW	acq4567_RW	4	52	400	0	300	300	504	46	0	1	1	blank2r.bmp	0	1	+	0	1	blank2r.bmp	492	1	ZHHZ	492	1	blank2r.bmp	572	3	töten	866	1	!	1239	1	!	-1	0	0	0	0	0	0	0	0	0	0	0	0	0	0	0	0	0	0	0	0	0	0	0	0	0	0	0	0	0	0
070919	13:05:32	13:13:24	470802	5.0.10.0	5_exp_RW	31	Rpleas_acq	CS_A	LWWL	DXXD	ZHHZ	JQQJ	YFFY	CPPC	vertrauen	genießen	träumen	gütig	küssen	sonnig	versagen	gemein	töten	gierig	krank	sterben	1	acq_USunple_CSunple2_RW	acq4567_RW	4	53	400	1	300	300	374	46	0	1	1	blank2r.bmp	0	1	+	0	1	blank2r.bmp	492	1	JQQJ	492	1	blank2r.bmp	572	2	krank	866	1	!	1239	1	!	1279	0	0	0	0	0	0	0	0	0	0	0	0	0	0	0	0	0	0	0	0	0	0	0	0	0	0	0	0	0	0
070919	13:05:32	13:13:26	473055	5.0.10.0	5_exp_RW	31	Rpleas_acq	CS_A	LWWL	DXXD	ZHHZ	JQQJ	YFFY	CPPC	vertrauen	genießen	träumen	gütig	küssen	sonnig	versagen	gemein	töten	gierig	krank	sterben	1	acq_USunple_CSunple1_RW	acq4567_RW	4	54	400	1	300	300	446	46	0	1	1	blank2r.bmp	0	1	+	0	1	blank2r.bmp	492	1	ZHHZ	492	1	blank2r.bmp	572	1	versagen	866	1	!	1239	1	!	1346	0	0	0	0	0	0	0	0	0	0	0	0	0	0	0	0	0	0	0	0	0	0	0	0	0	0	0	0	0	0
070919	13:05:32	13:13:28	475307	5.0.10.0	5_exp_RW	31	Rpleas_acq	CS_A	LWWL	DXXD	ZHHZ	JQQJ	YFFY	CPPC	vertrauen	genießen	träumen	gütig	küssen	sonnig	versagen	gemein	töten	gierig	krank	sterben	1	acq_USunple_CSunple1_RW	acq4567_RW	4	55	400	1	300	300	455	46	0	1	1	blank2r.bmp	0	1	+	0	1	blank2r.bmp	492	1	ZHHZ	492	1	blank2r.bmp	572	2	gemein	866	1	!	1239	1	!	1359	0	0	0	0	0	0	0	0	0	0	0	0	0	0	0	0	0	0	0	0	0	0	0	0	0	0	0	0	0	0
070919	13:05:32	13:13:31	477546	5.0.10.0	5_exp_RW	31	Rpleas_acq	CS_A	LWWL	DXXD	ZHHZ	JQQJ	YFFY	CPPC	vertrauen	genießen	träumen	gütig	küssen	sonnig	versagen	gemein	töten	gierig	krank	sterben	1	acq_USpleas_CSpleas2_RW	acq4567_RW	4	56	400	1	300	300	439	46	0	0	1	blank2r.bmp	0	1	+	0	1	blank2r.bmp	492	1	DXXD	492	1	blank2r.bmp	572	1	gütig	866	1	!	1239	1	!	1346	0	0	0	0	0	0	0	0	0	0	0	0	0	0	0	0	0	0	0	0	0	0	0	0	0	0	0	0	0	0
070919	13:05:32	13:13:33	479892	5.0.10.0	5_exp_RW	31	Rpleas_acq	CS_A	LWWL	DXXD	ZHHZ	JQQJ	YFFY	CPPC	vertrauen	genießen	träumen	gütig	küssen	sonnig	versagen	gemein	töten	gierig	krank	sterben	1	acq_USpleas_CSpleas2_RW	acq4567_RW	4	57	400	0	300	300	573	50	0	1	1	blank2r.bmp	0	1	+	0	1	blank2r.bmp	492	1	DXXD	492	1	blank2r.bmp	572	3	sonnig	866	1	!	1239	1	!	-1	0	0	0	0	0	0	0	0	0	0	0	0	0	0	0	0	0	0	0	0	0	0	0	0	0	0	0	0	0	0
070919	13:05:32	13:13:35	482118	5.0.10.0	5_exp_RW	31	Rpleas_acq	CS_A	LWWL	DXXD	ZHHZ	JQQJ	YFFY	CPPC	vertrauen	genießen	träumen	gütig	küssen	sonnig	versagen	gemein	töten	gierig	krank	sterben	1	acq_USpleas_CSpleas2_RW	acq4567_RW	4	58	400	1	300	300	419	50	0	1	1	blank2r.bmp	0	1	+	0	1	blank2r.bmp	492	1	DXXD	492	1	blank2r.bmp	572	1	gütig	866	1	!	1239	1	!	1319	0	0	0	0	0	0	0	0	0	0	0	0	0	0	0	0	0	0	0	0	0	0	0	0	0	0	0	0	0	0
070919	13:05:32	13:13:37	484410	5.0.10.0	5_exp_RW	31	Rpleas_acq	CS_A	LWWL	DXXD	ZHHZ	JQQJ	YFFY	CPPC	vertrauen	genießen	träumen	gütig	küssen	sonnig	versagen	gemein	töten	gierig	krank	sterben	1	acq_USunple_CSunple2_RW	acq4567_RW	4	59	400	0	300	300	526	46	0	1	1	blank2r.bmp	0	1	+	0	1	blank2r.bmp	492	1	JQQJ	492	1	blank2r.bmp	572	3	sterben	866	1	!	1239	1	!	-1	0	0	0	0	0	0	0	0	0	0	0	0	0	0	0	0	0	0	0	0	0	0	0	0	0	0	0	0	0	0
070919	13:05:32	13:13:40	486676	5.0.10.0	5_exp_RW	31	Rpleas_acq	CS_A	LWWL	DXXD	ZHHZ	JQQJ	YFFY	CPPC	vertrauen	genießen	träumen	gütig	küssen	sonnig	versagen	gemein	töten	gierig	krank	sterben	1	acq_USunple_CSunple2_RW	acq4567_RW	4	60	400	0	300	300	486	46	0	1	1	blank2r.bmp	0	1	+	0	1	blank2r.bmp	492	1	JQQJ	492	1	blank2r.bmp	572	2	krank	866	1	!	1239	1	!	-1	0	0	0	0	0	0	0	0	0	0	0	0	0	0	0	0	0	0	0	0	0	0	0	0	0	0	0	0	0	0
070919	13:05:32	13:13:42	488755	5.0.10.0	5_exp_RW	31	Rpleas_acq	CS_A	LWWL	DXXD	ZHHZ	JQQJ	YFFY	CPPC	vertrauen	genießen	träumen	gütig	küssen	sonnig	versagen	gemein	töten	gierig	krank	sterben	1	acq_USunple_CSunple1_RW	acq4567_RW	4	61	400	0	300	300	292	50	0	0	1	blank2r.bmp	0	1	+	0	1	blank2r.bmp	492	1	ZHHZ	492	1	blank2r.bmp	572	1	versagen	866	1	!	-1	1	!	-1	0	0	0	0	0	0	0	0	0	0	0	0	0	0	0	0	0	0	0	0	0	0	0	0	0	0	0	0	0	0
070919	13:05:32	13:13:44	491101	5.0.10.0	5_exp_RW	31	Rpleas_acq	CS_A	LWWL	DXXD	ZHHZ	JQQJ	YFFY	CPPC	vertrauen	genießen	träumen	gütig	küssen	sonnig	versagen	gemein	töten	gierig	krank	sterben	1	acq_USunple_CSunple1_RW	acq4567_RW	4	62	400	0	300	300	563	46	0	1	1	blank2r.bmp	0	1	+	0	1	blank2r.bmp	492	1	ZHHZ	492	1	blank2r.bmp	572	3	töten	866	1	!	1239	1	!	-1	0	0	0	0	0	0	0	0	0	0	0	0	0	0	0	0	0	0	0	0	0	0	0	0	0	0	0	0	0	0
070919	13:05:32	13:13:46	493353	5.0.10.0	5_exp_RW	31	Rpleas_acq	CS_A	LWWL	DXXD	ZHHZ	JQQJ	YFFY	CPPC	vertrauen	genießen	träumen	gütig	küssen	sonnig	versagen	gemein	töten	gierig	krank	sterben	1	acq_USunple_CSunple2_RW	acq4567_RW	4	63	400	1	300	300	452	46	0	1	1	blank2r.bmp	0	1	+	0	1	blank2r.bmp	492	1	JQQJ	492	1	blank2r.bmp	572	1	gierig	866	1	!	1239	1	!	1346	0	0	0	0	0	0	0	0	0	0	0	0	0	0	0	0	0	0	0	0	0	0	0	0	0	0	0	0	0	0
070919	13:05:32	13:13:49	495605	5.0.10.0	5_exp_RW	31	Rpleas_acq	CS_A	LWWL	DXXD	ZHHZ	JQQJ	YFFY	CPPC	vertrauen	genießen	träumen	gütig	küssen	sonnig	versagen	gemein	töten	gierig	krank	sterben	1	acq_USunple_CSunple2_RW	acq4567_RW	4	64	400	0	300	300	479	46	0	1	1	blank2r.bmp	0	1	+	0	1	blank2r.bmp	492	1	JQQJ	492	1	blank2r.bmp	572	3	sterben	866	1	!	1239	1	!	-1	0	0	0	0	0	0	0	0	0	0	0	0	0	0	0	0	0	0	0	0	0	0	0	0	0	0	0	0	0	0
070919	13:05:32	13:13:51	498004	5.0.10.0	5_exp_RW	31	Rpleas_acq	CS_A	LWWL	DXXD	ZHHZ	JQQJ	YFFY	CPPC	vertrauen	genießen	träumen	gütig	küssen	sonnig	versagen	gemein	töten	gierig	krank	sterben	1	acq_USpleas_CSpleas1_RW	acq4567_RW	4	65	400	0	300	300	614	50	0	1	1	blank2r.bmp	0	1	+	0	1	blank2r.bmp	492	1	LWWL	492	1	blank2r.bmp	572	1	vertrauen	866	1	!	1239	1	!	-1	0	0	0	0	0	0	0	0	0	0	0	0	0	0	0	0	0	0	0	0	0	0	0	0	0	0	0	0	0	0
070919	13:05:32	13:13:53	500323	5.0.10.0	5_exp_RW	31	Rpleas_acq	CS_A	LWWL	DXXD	ZHHZ	JQQJ	YFFY	CPPC	vertrauen	genießen	träumen	gütig	küssen	sonnig	versagen	gemein	töten	gierig	krank	sterben	1	acq_USpleas_CSpleas2_RW	acq4567_RW	4	66	400	0	300	300	540	50	0	1	1	blank2r.bmp	0	1	+	0	1	blank2r.bmp	492	1	DXXD	492	1	blank2r.bmp	572	3	sonnig	866	1	!	1239	1	!	-1	0	0	0	0	0	0	0	0	0	0	0	0	0	0	0	0	0	0	0	0	0	0	0	0	0	0	0	0	0	0
070919	13:05:32	13:13:56	502482	5.0.10.0	5_exp_RW	31	Rpleas_acq	CS_A	LWWL	DXXD	ZHHZ	JQQJ	YFFY	CPPC	vertrauen	genießen	träumen	gütig	küssen	sonnig	versagen	gemein	töten	gierig	krank	sterben	1	acq_USpleas_CSpleas2_RW	acq4567_RW	4	67	400	1	300	300	354	50	0	1	1	blank2r.bmp	0	1	+	0	1	blank2r.bmp	492	1	DXXD	492	1	blank2r.bmp	572	2	küssen	866	1	!	1239	1	!	1252	0	0	0	0	0	0	0	0	0	0	0	0	0	0	0	0	0	0	0	0	0	0	0	0	0	0	0	0	0	0
070919	13:05:32	13:13:58	504788	5.0.10.0	5_exp_RW	31	Rpleas_acq	CS_A	LWWL	DXXD	ZHHZ	JQQJ	YFFY	CPPC	vertrauen	genießen	träumen	gütig	küssen	sonnig	versagen	gemein	töten	gierig	krank	sterben	1	acq_USunple_CSunple2_RW	acq4567_RW	4	68	400	0	300	300	535	46	0	1	1	blank2r.bmp	0	1	+	0	1	blank2r.bmp	492	1	JQQJ	492	1	blank2r.bmp	572	2	krank	866	1	!	1239	1	!	-1	0	0	0	0	0	0	0	0	0	0	0	0	0	0	0	0	0	0	0	0	0	0	0	0	0	0	0	0	0	0
070919	13:05:32	13:14:00	507001	5.0.10.0	5_exp_RW	31	Rpleas_acq	CS_A	LWWL	DXXD	ZHHZ	JQQJ	YFFY	CPPC	vertrauen	genießen	träumen	gütig	küssen	sonnig	versagen	gemein	töten	gierig	krank	sterben	1	acq_USpleas_CSpleas1_RW	acq4567_RW	4	69	400	1	300	300	401	50	0	1	1	blank2r.bmp	0	1	+	0	1	blank2r.bmp	492	1	LWWL	492	1	blank2r.bmp	572	2	genießen	866	1	!	1239	1	!	1306	0	0	0	0	0	0	0	0	0	0	0	0	0	0	0	0	0	0	0	0	0	0	0	0	0	0	0	0	0	0
070919	13:05:32	13:14:02	509373	5.0.10.0	5_exp_RW	31	Rpleas_acq	CS_A	LWWL	DXXD	ZHHZ	JQQJ	YFFY	CPPC	vertrauen	genießen	träumen	gütig	küssen	sonnig	versagen	gemein	töten	gierig	krank	sterben	1	acq_USunple_CSunple2_RW	acq4567_RW	4	70	400	0	300	300	610	46	0	1	1	blank2r.bmp	0	1	+	0	1	blank2r.bmp	492	1	JQQJ	492	1	blank2r.bmp	572	1	gierig	866	1	!	1239	1	!	-1	0	0	0	0	0	0	0	0	0	0	0	0	0	0	0	0	0	0	0	0	0	0	0	0	0	0	0	0	0	0
070919	13:05:32	13:14:05	511452	5.0.10.0	5_exp_RW	31	Rpleas_acq	CS_A	LWWL	DXXD	ZHHZ	JQQJ	YFFY	CPPC	vertrauen	genießen	träumen	gütig	küssen	sonnig	versagen	gemein	töten	gierig	krank	sterben	1	acq_USpleas_CSpleas2_RW	acq4567_RW	4	71	400	0	300	300	297	50	0	1	1	blank2r.bmp	0	1	+	0	1	blank2r.bmp	492	1	DXXD	492	1	blank2r.bmp	572	2	küssen	866	1	!	-1	1	!	-1	0	0	0	0	0	0	0	0	0	0	0	0	0	0	0	0	0	0	0	0	0	0	0	0	0	0	0	0	0	0
070919	13:05:32	13:14:07	513624	5.0.10.0	5_exp_RW	31	Rpleas_acq	CS_A	LWWL	DXXD	ZHHZ	JQQJ	YFFY	CPPC	vertrauen	genießen	träumen	gütig	küssen	sonnig	versagen	gemein	töten	gierig	krank	sterben	1	acq_USunple_CSunple1_RW	acq4567_RW	4	72	400	1	300	300	366	46	0	1	1	blank2r.bmp	0	1	+	0	1	blank2r.bmp	492	1	ZHHZ	492	1	blank2r.bmp	572	3	töten	866	1	!	1239	1	!	1266	0	0	0	0	0	0	0	0	0	0	0	0	0	0	0	0	0	0	0	0	0	0	0	0	0	0	0	0	0	0
070919	13:05:32	13:14:09	515930	5.0.10.0	5_exp_RW	31	Rpleas_acq	CS_A	LWWL	DXXD	ZHHZ	JQQJ	YFFY	CPPC	vertrauen	genießen	träumen	gütig	küssen	sonnig	versagen	gemein	töten	gierig	krank	sterben	1	acq_USpleas_CSpleas2_RW	acq4567_RW	4	73	400	0	300	300	535	50	0	1	1	blank2r.bmp	0	1	+	0	1	blank2r.bmp	492	1	DXXD	492	1	blank2r.bmp	572	1	gütig	866	1	!	1239	1	!	-1	0	0	0	0	0	0	0	0	0	0	0	0	0	0	0	0	0	0	0	0	0	0	0	0	0	0	0	0	0	0
070919	13:05:32	13:14:11	518196	5.0.10.0	5_exp_RW	31	Rpleas_acq	CS_A	LWWL	DXXD	ZHHZ	JQQJ	YFFY	CPPC	vertrauen	genießen	träumen	gütig	küssen	sonnig	versagen	gemein	töten	gierig	krank	sterben	1	acq_USunple_CSunple1_RW	acq4567_RW	4	74	400	0	300	300	479	46	0	1	1	blank2r.bmp	0	1	+	0	1	blank2r.bmp	492	1	ZHHZ	492	1	blank2r.bmp	572	2	gemein	866	1	!	1239	1	!	-1	0	0	0	0	0	0	0	0	0	0	0	0	0	0	0	0	0	0	0	0	0	0	0	0	0	0	0	0	0	0
070919	13:05:32	13:14:14	520475	5.0.10.0	5_exp_RW	31	Rpleas_acq	CS_A	LWWL	DXXD	ZHHZ	JQQJ	YFFY	CPPC	vertrauen	genießen	träumen	gütig	küssen	sonnig	versagen	gemein	töten	gierig	krank	sterben	1	acq_USpleas_CSpleas1_RW	acq4567_RW	4	75	400	1	300	300	462	50	0	1	1	blank2r.bmp	0	1	+	0	1	blank2r.bmp	492	1	LWWL	492	1	blank2r.bmp	572	1	vertrauen	866	1	!	1239	1	!	1359	0	0	0	0	0	0	0	0	0	0	0	0	0	0	0	0	0	0	0	0	0	0	0	0	0	0	0	0	0	0
070919	13:05:32	13:14:16	522674	5.0.10.0	5_exp_RW	31	Rpleas_acq	CS_A	LWWL	DXXD	ZHHZ	JQQJ	YFFY	CPPC	vertrauen	genießen	träumen	gütig	küssen	sonnig	versagen	gemein	töten	gierig	krank	sterben	1	acq_USunple_CSunple1_RW	acq4567_RW	4	76	400	1	300	300	399	46	0	1	1	blank2r.bmp	0	1	+	0	1	blank2r.bmp	492	1	ZHHZ	492	1	blank2r.bmp	572	1	versagen	866	1	!	1239	1	!	1306	0	0	0	0	0	0	0	0	0	0	0	0	0	0	0	0	0	0	0	0	0	0	0	0	0	0	0	0	0	0
070919	13:05:32	13:14:18	524926	5.0.10.0	5_exp_RW	31	Rpleas_acq	CS_A	LWWL	DXXD	ZHHZ	JQQJ	YFFY	CPPC	vertrauen	genießen	träumen	gütig	küssen	sonnig	versagen	gemein	töten	gierig	krank	sterben	1	acq_USpleas_CSpleas1_RW	acq4567_RW	4	77	400	0	300	300	480	50	0	1	1	blank2r.bmp	0	1	+	0	1	blank2r.bmp	492	1	LWWL	492	1	blank2r.bmp	572	3	träumen	866	1	!	1239	1	!	-1	0	0	0	0	0	0	0	0	0	0	0	0	0	0	0	0	0	0	0	0	0	0	0	0	0	0	0	0	0	0
070919	13:05:32	13:14:20	527139	5.0.10.0	5_exp_RW	31	Rpleas_acq	CS_A	LWWL	DXXD	ZHHZ	JQQJ	YFFY	CPPC	vertrauen	genießen	träumen	gütig	küssen	sonnig	versagen	gemein	töten	gierig	krank	sterben	1	acq_USpleas_CSpleas2_RW	acq4567_RW	4	78	400	1	300	300	410	50	0	1	1	blank2r.bmp	0	1	+	0	1	blank2r.bmp	492	1	DXXD	492	1	blank2r.bmp	572	3	sonnig	866	1	!	1239	1	!	1306	0	0	0	0	0	0	0	0	0	0	0	0	0	0	0	0	0	0	0	0	0	0	0	0	0	0	0	0	0	0
070919	13:05:32	13:14:22	529351	5.0.10.0	5_exp_RW	31	Rpleas_acq	CS_A	LWWL	DXXD	ZHHZ	JQQJ	YFFY	CPPC	vertrauen	genießen	träumen	gütig	küssen	sonnig	versagen	gemein	töten	gierig	krank	sterben	1	acq_USunple_CSunple2_RW	acq4567_RW	4	79	400	1	300	300	423	46	0	1	1	blank2r.bmp	0	1	+	0	1	blank2r.bmp	492	1	JQQJ	492	1	blank2r.bmp	572	3	sterben	866	1	!	1239	1	!	1319	0	0	0	0	0	0	0	0	0	0	0	0	0	0	0	0	0	0	0	0	0	0	0	0	0	0	0	0	0	0
070919	13:05:32	13:14:25	531617	5.0.10.0	5_exp_RW	31	Rpleas_acq	CS_A	LWWL	DXXD	ZHHZ	JQQJ	YFFY	CPPC	vertrauen	genießen	träumen	gütig	küssen	sonnig	versagen	gemein	töten	gierig	krank	sterben	1	acq_USpleas_CSpleas1_RW	acq4567_RW	4	80	400	0	300	300	494	50	0	1	1	blank2r.bmp	0	1	+	0	1	blank2r.bmp	492	1	LWWL	492	1	blank2r.bmp	572	2	genießen	866	1	!	1239	1	!	-1	0	0	0	0	0	0	0	0	0	0	0	0	0	0	0	0	0	0	0	0	0	0	0	0	0	0	0	0	0	0
070919	13:05:32	13:14:33	540000	5.0.10.0	5_exp_RW	31	Rpleas_acq	CS_A	LWWL	DXXD	ZHHZ	JQQJ	YFFY	CPPC	vertrauen	genießen	träumen	gütig	küssen	sonnig	versagen	gemein	töten	gierig	krank	sterben	1	acq_USunple_CSunple2_RW	acq4567_RW	5	1	400	1	300	300	382	46	0	1	1	blank2r.bmp	0	1	+	0	1	blank2r.bmp	492	1	JQQJ	492	1	blank2r.bmp	572	3	sterben	866	1	!	1239	1	!	1279	0	0	0	0	0	0	0	0	0	0	0	0	0	0	0	0	0	0	0	0	0	0	0	0	0	0	0	0	0	0
070919	13:05:32	13:14:35	542226	5.0.10.0	5_exp_RW	31	Rpleas_acq	CS_A	LWWL	DXXD	ZHHZ	JQQJ	YFFY	CPPC	vertrauen	genießen	träumen	gütig	küssen	sonnig	versagen	gemein	töten	gierig	krank	sterben	1	acq_USpleas_CSpleas1_RW	acq4567_RW	5	2	400	1	300	300	426	50	0	1	1	blank2r.bmp	0	1	+	0	1	blank2r.bmp	492	1	LWWL	492	1	blank2r.bmp	572	1	vertrauen	866	1	!	1239	1	!	1332	0	0	0	0	0	0	0	0	0	0	0	0	0	0	0	0	0	0	0	0	0	0	0	0	0	0	0	0	0	0
070919	13:05:32	13:14:38	544478	5.0.10.0	5_exp_RW	31	Rpleas_acq	CS_A	LWWL	DXXD	ZHHZ	JQQJ	YFFY	CPPC	vertrauen	genießen	träumen	gütig	küssen	sonnig	versagen	gemein	töten	gierig	krank	sterben	1	acq_USpleas_CSpleas1_RW	acq4567_RW	5	3	400	0	300	300	479	50	0	1	1	blank2r.bmp	0	1	+	0	1	blank2r.bmp	492	1	LWWL	492	1	blank2r.bmp	572	3	träumen	866	1	!	1239	1	!	-1	0	0	0	0	0	0	0	0	0	0	0	0	0	0	0	0	0	0	0	0	0	0	0	0	0	0	0	0	0	0
070919	13:05:32	13:14:40	546691	5.0.10.0	5_exp_RW	31	Rpleas_acq	CS_A	LWWL	DXXD	ZHHZ	JQQJ	YFFY	CPPC	vertrauen	genießen	träumen	gütig	küssen	sonnig	versagen	gemein	töten	gierig	krank	sterben	1	acq_USunple_CSunple1_RW	acq4567_RW	5	4	400	1	300	300	409	46	0	1	1	blank2r.bmp	0	1	+	0	1	blank2r.bmp	492	1	ZHHZ	492	1	blank2r.bmp	572	2	gemein	866	1	!	1239	1	!	1306	0	0	0	0	0	0	0	0	0	0	0	0	0	0	0	0	0	0	0	0	0	0	0	0	0	0	0	0	0	0
070919	13:05:32	13:14:42	548890	5.0.10.0	5_exp_RW	31	Rpleas_acq	CS_A	LWWL	DXXD	ZHHZ	JQQJ	YFFY	CPPC	vertrauen	genießen	träumen	gütig	küssen	sonnig	versagen	gemein	töten	gierig	krank	sterben	1	acq_USpleas_CSpleas2_RW	acq4567_RW	5	5	400	1	300	300	404	50	0	1	1	blank2r.bmp	0	1	+	0	1	blank2r.bmp	492	1	DXXD	492	1	blank2r.bmp	572	2	küssen	866	1	!	1239	1	!	1306	0	0	0	0	0	0	0	0	0	0	0	0	0	0	0	0	0	0	0	0	0	0	0	0	0	0	0	0	0	0
070919	13:05:32	13:14:44	551035	5.0.10.0	5_exp_RW	31	Rpleas_acq	CS_A	LWWL	DXXD	ZHHZ	JQQJ	YFFY	CPPC	vertrauen	genießen	träumen	gütig	küssen	sonnig	versagen	gemein	töten	gierig	krank	sterben	1	acq_USunple_CSunple1_RW	acq4567_RW	5	6	400	1	300	300	353	46	0	1	1	blank2r.bmp	0	1	+	0	1	blank2r.bmp	492	1	ZHHZ	492	1	blank2r.bmp	572	3	töten	866	1	!	1239	1	!	1252	0	0	0	0	0	0	0	0	0	0	0	0	0	0	0	0	0	0	0	0	0	0	0	0	0	0	0	0	0	0
070919	13:05:32	13:14:46	553314	5.0.10.0	5_exp_RW	31	Rpleas_acq	CS_A	LWWL	DXXD	ZHHZ	JQQJ	YFFY	CPPC	vertrauen	genießen	träumen	gütig	küssen	sonnig	versagen	gemein	töten	gierig	krank	sterben	1	acq_USunple_CSunple2_RW	acq4567_RW	5	7	400	0	300	300	515	46	0	1	1	blank2r.bmp	0	1	+	0	1	blank2r.bmp	492	1	JQQJ	492	1	blank2r.bmp	572	1	gierig	866	1	!	1239	1	!	-1	0	0	0	0	0	0	0	0	0	0	0	0	0	0	0	0	0	0	0	0	0	0	0	0	0	0	0	0	0	0
070919	13:05:32	13:14:49	555514	5.0.10.0	5_exp_RW	31	Rpleas_acq	CS_A	LWWL	DXXD	ZHHZ	JQQJ	YFFY	CPPC	vertrauen	genießen	träumen	gütig	küssen	sonnig	versagen	gemein	töten	gierig	krank	sterben	1	acq_USunple_CSunple2_RW	acq4567_RW	5	8	400	1	300	300	388	46	0	1	1	blank2r.bmp	0	1	+	0	1	blank2r.bmp	492	1	JQQJ	492	1	blank2r.bmp	572	2	krank	866	1	!	1239	1	!	1292	0	0	0	0	0	0	0	0	0	0	0	0	0	0	0	0	0	0	0	0	0	0	0	0	0	0	0	0	0	0
070919	13:05:32	13:14:51	557766	5.0.10.0	5_exp_RW	31	Rpleas_acq	CS_A	LWWL	DXXD	ZHHZ	JQQJ	YFFY	CPPC	vertrauen	genießen	träumen	gütig	küssen	sonnig	versagen	gemein	töten	gierig	krank	sterben	1	acq_USunple_CSunple1_RW	acq4567_RW	5	9	400	1	300	300	458	46	0	1	1	blank2r.bmp	0	1	+	0	1	blank2r.bmp	492	1	ZHHZ	492	1	blank2r.bmp	572	1	versagen	866	1	!	1239	1	!	1359	0	0	0	0	0	0	0	0	0	0	0	0	0	0	0	0	0	0	0	0	0	0	0	0	0	0	0	0	0	0
070919	13:05:32	13:14:53	559872	5.0.10.0	5_exp_RW	31	Rpleas_acq	CS_A	LWWL	DXXD	ZHHZ	JQQJ	YFFY	CPPC	vertrauen	genießen	träumen	gütig	küssen	sonnig	versagen	gemein	töten	gierig	krank	sterben	1	acq_USpleas_CSpleas1_RW	acq4567_RW	5	10	400	0	300	300	333	50	0	1	1	blank2r.bmp	0	1	+	0	1	blank2r.bmp	492	1	LWWL	492	1	blank2r.bmp	572	2	genießen	866	1	!	-1	1	!	-1	0	0	0	0	0	0	0	0	0	0	0	0	0	0	0	0	0	0	0	0	0	0	0	0	0	0	0	0	0	0
070919	13:05:32	13:14:55	561964	5.0.10.0	5_exp_RW	31	Rpleas_acq	CS_A	LWWL	DXXD	ZHHZ	JQQJ	YFFY	CPPC	vertrauen	genießen	träumen	gütig	küssen	sonnig	versagen	gemein	töten	gierig	krank	sterben	1	acq_USunple_CSunple2_RW	acq4567_RW	5	11	400	0	300	300	311	46	0	1	1	blank2r.bmp	0	1	+	0	1	blank2r.bmp	492	1	JQQJ	492	1	blank2r.bmp	572	2	krank	866	1	!	-1	1	!	-1	0	0	0	0	0	0	0	0	0	0	0	0	0	0	0	0	0	0	0	0	0	0	0	0	0	0	0	0	0	0
070919	13:05:32	13:14:57	564337	5.0.10.0	5_exp_RW	31	Rpleas_acq	CS_A	LWWL	DXXD	ZHHZ	JQQJ	YFFY	CPPC	vertrauen	genießen	träumen	gütig	küssen	sonnig	versagen	gemein	töten	gierig	krank	sterben	1	acq_USunple_CSunple2_RW	acq4567_RW	5	12	400	0	300	300	591	46	0	1	1	blank2r.bmp	0	1	+	0	1	blank2r.bmp	492	1	JQQJ	492	1	blank2r.bmp	572	1	gierig	866	1	!	1239	1	!	-1	0	0	0	0	0	0	0	0	0	0	0	0	0	0	0	0	0	0	0	0	0	0	0	0	0	0	0	0	0	0
070919	13:05:32	13:15:00	566762	5.0.10.0	5_exp_RW	31	Rpleas_acq	CS_A	LWWL	DXXD	ZHHZ	JQQJ	YFFY	CPPC	vertrauen	genießen	träumen	gütig	küssen	sonnig	versagen	gemein	töten	gierig	krank	sterben	1	acq_USpleas_CSpleas2_RW	acq4567_RW	5	13	400	0	300	300	643	50	0	1	1	blank2r.bmp	0	1	+	0	1	blank2r.bmp	492	1	DXXD	492	1	blank2r.bmp	572	1	gütig	866	1	!	1239	1	!	-1	0	0	0	0	0	0	0	0	0	0	0	0	0	0	0	0	0	0	0	0	0	0	0	0	0	0	0	0	0	0
070919	13:05:32	13:15:02	568975	5.0.10.0	5_exp_RW	31	Rpleas_acq	CS_A	LWWL	DXXD	ZHHZ	JQQJ	YFFY	CPPC	vertrauen	genießen	träumen	gütig	küssen	sonnig	versagen	gemein	töten	gierig	krank	sterben	1	acq_USpleas_CSpleas1_RW	acq4567_RW	5	14	400	1	300	300	400	46	0	0	1	blank2r.bmp	0	1	+	0	1	blank2r.bmp	492	1	LWWL	492	1	blank2r.bmp	572	3	träumen	866	1	!	1239	1	!	1306	0	0	0	0	0	0	0	0	0	0	0	0	0	0	0	0	0	0	0	0	0	0	0	0	0	0	0	0	0	0
070919	13:05:32	13:15:04	571134	5.0.10.0	5_exp_RW	31	Rpleas_acq	CS_A	LWWL	DXXD	ZHHZ	JQQJ	YFFY	CPPC	vertrauen	genießen	träumen	gütig	küssen	sonnig	versagen	gemein	töten	gierig	krank	sterben	1	acq_USpleas_CSpleas1_RW	acq4567_RW	5	15	400	1	300	300	365	46	0	0	1	blank2r.bmp	0	1	+	0	1	blank2r.bmp	492	1	LWWL	492	1	blank2r.bmp	572	2	genießen	866	1	!	1239	1	!	1266	0	0	0	0	0	0	0	0	0	0	0	0	0	0	0	0	0	0	0	0	0	0	0	0	0	0	0	0	0	0
070919	13:05:32	13:15:06	573399	5.0.10.0	5_exp_RW	31	Rpleas_acq	CS_A	LWWL	DXXD	ZHHZ	JQQJ	YFFY	CPPC	vertrauen	genießen	träumen	gütig	küssen	sonnig	versagen	gemein	töten	gierig	krank	sterben	1	acq_USunple_CSunple1_RW	acq4567_RW	5	16	400	0	300	300	495	46	0	1	1	blank2r.bmp	0	1	+	0	1	blank2r.bmp	492	1	ZHHZ	492	1	blank2r.bmp	572	1	versagen	866	1	!	1239	1	!	-1	0	0	0	0	0	0	0	0	0	0	0	0	0	0	0	0	0	0	0	0	0	0	0	0	0	0	0	0	0	0
070919	13:05:32	13:15:09	575625	5.0.10.0	5_exp_RW	31	Rpleas_acq	CS_A	LWWL	DXXD	ZHHZ	JQQJ	YFFY	CPPC	vertrauen	genießen	träumen	gütig	küssen	sonnig	versagen	gemein	töten	gierig	krank	sterben	1	acq_USpleas_CSpleas2_RW	acq4567_RW	5	17	400	1	300	300	422	46	0	0	1	blank2r.bmp	0	1	+	0	1	blank2r.bmp	492	1	DXXD	492	1	blank2r.bmp	572	3	sonnig	866	1	!	1239	1	!	1319	0	0	0	0	0	0	0	0	0	0	0	0	0	0	0	0	0	0	0	0	0	0	0	0	0	0	0	0	0	0
070919	13:05:32	13:15:11	578077	5.0.10.0	5_exp_RW	31	Rpleas_acq	CS_A	LWWL	DXXD	ZHHZ	JQQJ	YFFY	CPPC	vertrauen	genießen	träumen	gütig	küssen	sonnig	versagen	gemein	töten	gierig	krank	sterben	1	acq_USpleas_CSpleas2_RW	acq4567_RW	5	18	400	0	300	300	681	50	0	1	1	blank2r.bmp	0	1	+	0	1	blank2r.bmp	492	1	DXXD	492	1	blank2r.bmp	572	1	gütig	866	1	!	1239	1	!	-1	0	0	0	0	0	0	0	0	0	0	0	0	0	0	0	0	0	0	0	0	0	0	0	0	0	0	0	0	0	0
070919	13:05:32	13:15:13	580277	5.0.10.0	5_exp_RW	31	Rpleas_acq	CS_A	LWWL	DXXD	ZHHZ	JQQJ	YFFY	CPPC	vertrauen	genießen	träumen	gütig	küssen	sonnig	versagen	gemein	töten	gierig	krank	sterben	1	acq_USunple_CSunple1_RW	acq4567_RW	5	19	400	1	300	300	391	46	0	1	1	blank2r.bmp	0	1	+	0	1	blank2r.bmp	492	1	ZHHZ	492	1	blank2r.bmp	572	2	gemein	866	1	!	1239	1	!	1292	0	0	0	0	0	0	0	0	0	0	0	0	0	0	0	0	0	0	0	0	0	0	0	0	0	0	0	0	0	0
070919	13:05:32	13:15:16	582569	5.0.10.0	5_exp_RW	31	Rpleas_acq	CS_A	LWWL	DXXD	ZHHZ	JQQJ	YFFY	CPPC	vertrauen	genießen	träumen	gütig	küssen	sonnig	versagen	gemein	töten	gierig	krank	sterben	1	acq_USpleas_CSpleas2_RW	acq4567_RW	5	20	400	0	300	300	522	50	0	1	1	blank2r.bmp	0	1	+	0	1	blank2r.bmp	492	1	DXXD	492	1	blank2r.bmp	572	3	sonnig	866	1	!	1239	1	!	-1	0	0	0	0	0	0	0	0	0	0	0	0	0	0	0	0	0	0	0	0	0	0	0	0	0	0	0	0	0	0
070919	13:05:32	13:15:18	584915	5.0.10.0	5_exp_RW	31	Rpleas_acq	CS_A	LWWL	DXXD	ZHHZ	JQQJ	YFFY	CPPC	vertrauen	genießen	träumen	gütig	küssen	sonnig	versagen	gemein	töten	gierig	krank	sterben	1	acq_USpleas_CSpleas1_RW	acq4567_RW	5	21	400	0	300	300	569	46	0	0	1	blank2r.bmp	0	1	+	0	1	blank2r.bmp	492	1	LWWL	492	1	blank2r.bmp	572	1	vertrauen	866	1	!	1239	1	!	-1	0	0	0	0	0	0	0	0	0	0	0	0	0	0	0	0	0	0	0	0	0	0	0	0	0	0	0	0	0	0
070919	13:05:32	13:15:20	587247	5.0.10.0	5_exp_RW	31	Rpleas_acq	CS_A	LWWL	DXXD	ZHHZ	JQQJ	YFFY	CPPC	vertrauen	genießen	träumen	gütig	küssen	sonnig	versagen	gemein	töten	gierig	krank	sterben	1	acq_USpleas_CSpleas1_RW	acq4567_RW	5	22	400	0	300	300	557	50	0	1	1	blank2r.bmp	0	1	+	0	1	blank2r.bmp	492	1	LWWL	492	1	blank2r.bmp	572	2	genießen	866	1	!	1239	1	!	-1	0	0	0	0	0	0	0	0	0	0	0	0	0	0	0	0	0	0	0	0	0	0	0	0	0	0	0	0	0	0
070919	13:05:32	13:15:22	589326	5.0.10.0	5_exp_RW	31	Rpleas_acq	CS_A	LWWL	DXXD	ZHHZ	JQQJ	YFFY	CPPC	vertrauen	genießen	träumen	gütig	küssen	sonnig	versagen	gemein	töten	gierig	krank	sterben	1	acq_USpleas_CSpleas2_RW	acq4567_RW	5	23	400	0	300	300	303	50	0	1	1	blank2r.bmp	0	1	+	0	1	blank2r.bmp	492	1	DXXD	492	1	blank2r.bmp	572	2	küssen	866	1	!	-1	1	!	-1	0	0	0	0	0	0	0	0	0	0	0	0	0	0	0	0	0	0	0	0	0	0	0	0	0	0	0	0	0	0
070919	13:05:32	13:15:25	591618	5.0.10.0	5_exp_RW	31	Rpleas_acq	CS_A	LWWL	DXXD	ZHHZ	JQQJ	YFFY	CPPC	vertrauen	genießen	träumen	gütig	küssen	sonnig	versagen	gemein	töten	gierig	krank	sterben	1	acq_USunple_CSunple1_RW	acq4567_RW	5	24	400	0	300	300	508	46	0	1	1	blank2r.bmp	0	1	+	0	1	blank2r.bmp	492	1	ZHHZ	492	1	blank2r.bmp	572	3	töten	866	1	!	1239	1	!	-1	0	0	0	0	0	0	0	0	0	0	0	0	0	0	0	0	0	0	0	0	0	0	0	0	0	0	0	0	0	0
070919	13:05:32	13:15:27	593684	5.0.10.0	5_exp_RW	31	Rpleas_acq	CS_A	LWWL	DXXD	ZHHZ	JQQJ	YFFY	CPPC	vertrauen	genießen	träumen	gütig	küssen	sonnig	versagen	gemein	töten	gierig	krank	sterben	1	acq_USpleas_CSpleas1_RW	acq4567_RW	5	25	400	0	300	300	286	50	0	1	1	blank2r.bmp	0	1	+	0	1	blank2r.bmp	492	1	LWWL	492	1	blank2r.bmp	572	1	vertrauen	866	1	!	-1	1	!	-1	0	0	0	0	0	0	0	0	0	0	0	0	0	0	0	0	0	0	0	0	0	0	0	0	0	0	0	0	0	0
070919	13:05:32	13:15:29	596043	5.0.10.0	5_exp_RW	31	Rpleas_acq	CS_A	LWWL	DXXD	ZHHZ	JQQJ	YFFY	CPPC	vertrauen	genießen	träumen	gütig	küssen	sonnig	versagen	gemein	töten	gierig	krank	sterben	1	acq_USunple_CSunple1_RW	acq4567_RW	5	26	400	0	300	300	562	46	0	1	1	blank2r.bmp	0	1	+	0	1	blank2r.bmp	492	1	ZHHZ	492	1	blank2r.bmp	572	2	gemein	866	1	!	1239	1	!	-1	0	0	0	0	0	0	0	0	0	0	0	0	0	0	0	0	0	0	0	0	0	0	0	0	0	0	0	0	0	0
070919	13:05:32	13:15:31	598149	5.0.10.0	5_exp_RW	31	Rpleas_acq	CS_A	LWWL	DXXD	ZHHZ	JQQJ	YFFY	CPPC	vertrauen	genießen	träumen	gütig	küssen	sonnig	versagen	gemein	töten	gierig	krank	sterben	1	acq_USunple_CSunple1_RW	acq4567_RW	5	27	400	0	300	300	320	46	0	1	1	blank2r.bmp	0	1	+	0	1	blank2r.bmp	492	1	ZHHZ	492	1	blank2r.bmp	572	3	töten	866	1	!	-1	1	!	-1	0	0	0	0	0	0	0	0	0	0	0	0	0	0	0	0	0	0	0	0	0	0	0	0	0	0	0	0	0	0
070919	13:05:32	13:15:33	600401	5.0.10.0	5_exp_RW	31	Rpleas_acq	CS_A	LWWL	DXXD	ZHHZ	JQQJ	YFFY	CPPC	vertrauen	genießen	träumen	gütig	küssen	sonnig	versagen	gemein	töten	gierig	krank	sterben	1	acq_USunple_CSunple1_RW	acq4567_RW	5	28	400	1	300	300	444	46	0	1	1	blank2r.bmp	0	1	+	0	1	blank2r.bmp	492	1	ZHHZ	492	1	blank2r.bmp	572	1	versagen	866	1	!	1239	1	!	1346	0	0	0	0	0	0	0	0	0	0	0	0	0	0	0	0	0	0	0	0	0	0	0	0	0	0	0	0	0	0
070919	13:05:32	13:15:36	602694	5.0.10.0	5_exp_RW	31	Rpleas_acq	CS_A	LWWL	DXXD	ZHHZ	JQQJ	YFFY	CPPC	vertrauen	genießen	träumen	gütig	küssen	sonnig	versagen	gemein	töten	gierig	krank	sterben	1	acq_USunple_CSunple2_RW	acq4567_RW	5	29	400	0	300	300	529	46	0	1	1	blank2r.bmp	0	1	+	0	1	blank2r.bmp	492	1	JQQJ	492	1	blank2r.bmp	572	3	sterben	866	1	!	1239	1	!	-1	0	0	0	0	0	0	0	0	0	0	0	0	0	0	0	0	0	0	0	0	0	0	0	0	0	0	0	0	0	0
070919	13:05:32	13:15:38	605093	5.0.10.0	5_exp_RW	31	Rpleas_acq	CS_A	LWWL	DXXD	ZHHZ	JQQJ	YFFY	CPPC	vertrauen	genießen	träumen	gütig	küssen	sonnig	versagen	gemein	töten	gierig	krank	sterben	1	acq_USunple_CSunple2_RW	acq4567_RW	5	30	400	0	300	300	614	46	0	1	1	blank2r.bmp	0	1	+	0	1	blank2r.bmp	492	1	JQQJ	492	1	blank2r.bmp	572	3	sterben	866	1	!	1239	1	!	-1	0	0	0	0	0	0	0	0	0	0	0	0	0	0	0	0	0	0	0	0	0	0	0	0	0	0	0	0	0	0
070919	13:05:32	13:15:40	607279	5.0.10.0	5_exp_RW	31	Rpleas_acq	CS_A	LWWL	DXXD	ZHHZ	JQQJ	YFFY	CPPC	vertrauen	genießen	träumen	gütig	küssen	sonnig	versagen	gemein	töten	gierig	krank	sterben	1	acq_USpleas_CSpleas2_RW	acq4567_RW	5	31	400	1	300	300	375	50	0	1	1	blank2r.bmp	0	1	+	0	1	blank2r.bmp	492	1	DXXD	492	1	blank2r.bmp	572	1	gütig	866	1	!	1239	1	!	1279	0	0	0	0	0	0	0	0	0	0	0	0	0	0	0	0	0	0	0	0	0	0	0	0	0	0	0	0	0	0
070919	13:05:32	13:15:43	609584	5.0.10.0	5_exp_RW	31	Rpleas_acq	CS_A	LWWL	DXXD	ZHHZ	JQQJ	YFFY	CPPC	vertrauen	genießen	träumen	gütig	küssen	sonnig	versagen	gemein	töten	gierig	krank	sterben	1	acq_USunple_CSunple2_RW	acq4567_RW	5	32	400	0	300	300	538	46	0	1	1	blank2r.bmp	0	1	+	0	1	blank2r.bmp	492	1	JQQJ	492	1	blank2r.bmp	572	2	krank	866	1	!	1239	1	!	-1	0	0	0	0	0	0	0	0	0	0	0	0	0	0	0	0	0	0	0	0	0	0	0	0	0	0	0	0	0	0
070919	13:05:32	13:15:45	611837	5.0.10.0	5_exp_RW	31	Rpleas_acq	CS_A	LWWL	DXXD	ZHHZ	JQQJ	YFFY	CPPC	vertrauen	genießen	träumen	gütig	küssen	sonnig	versagen	gemein	töten	gierig	krank	sterben	1	acq_USpleas_CSpleas1_RW	acq4567_RW	5	33	400	1	300	300	451	50	0	1	1	blank2r.bmp	0	1	+	0	1	blank2r.bmp	492	1	LWWL	492	1	blank2r.bmp	572	3	träumen	866	1	!	1239	1	!	1346	0	0	0	0	0	0	0	0	0	0	0	0	0	0	0	0	0	0	0	0	0	0	0	0	0	0	0	0	0	0
070919	13:05:32	13:15:47	614129	5.0.10.0	5_exp_RW	31	Rpleas_acq	CS_A	LWWL	DXXD	ZHHZ	JQQJ	YFFY	CPPC	vertrauen	genießen	träumen	gütig	küssen	sonnig	versagen	gemein	töten	gierig	krank	sterben	1	acq_USunple_CSunple2_RW	acq4567_RW	5	34	400	0	300	300	532	46	0	1	1	blank2r.bmp	0	1	+	0	1	blank2r.bmp	492	1	JQQJ	492	1	blank2r.bmp	572	1	gierig	866	1	!	1239	1	!	-1	0	0	0	0	0	0	0	0	0	0	0	0	0	0	0	0	0	0	0	0	0	0	0	0	0	0	0	0	0	0
070919	13:05:32	13:15:50	616448	5.0.10.0	5_exp_RW	31	Rpleas_acq	CS_A	LWWL	DXXD	ZHHZ	JQQJ	YFFY	CPPC	vertrauen	genießen	träumen	gütig	küssen	sonnig	versagen	gemein	töten	gierig	krank	sterben	1	acq_USpleas_CSpleas2_RW	acq4567_RW	5	35	400	0	300	300	533	50	0	1	1	blank2r.bmp	0	1	+	0	1	blank2r.bmp	492	1	DXXD	492	1	blank2r.bmp	572	2	küssen	866	1	!	1239	1	!	-1	0	0	0	0	0	0	0	0	0	0	0	0	0	0	0	0	0	0	0	0	0	0	0	0	0	0	0	0	0	0
070919	13:05:32	13:15:52	618620	5.0.10.0	5_exp_RW	31	Rpleas_acq	CS_A	LWWL	DXXD	ZHHZ	JQQJ	YFFY	CPPC	vertrauen	genießen	träumen	gütig	küssen	sonnig	versagen	gemein	töten	gierig	krank	sterben	1	acq_USpleas_CSpleas2_RW	acq4567_RW	5	36	400	1	300	300	359	50	0	1	1	blank2r.bmp	0	1	+	0	1	blank2r.bmp	492	1	DXXD	492	1	blank2r.bmp	572	3	sonnig	866	1	!	1239	1	!	1266	0	0	0	0	0	0	0	0	0	0	0	0	0	0	0	0	0	0	0	0	0	0	0	0	0	0	0	0	0	0
070919	13:05:32	13:15:54	620806	5.0.10.0	5_exp_RW	31	Rpleas_acq	CS_A	LWWL	DXXD	ZHHZ	JQQJ	YFFY	CPPC	vertrauen	genießen	träumen	gütig	küssen	sonnig	versagen	gemein	töten	gierig	krank	sterben	1	acq_USunple_CSunple1_RW	acq4567_RW	5	37	400	1	300	300	393	46	0	1	1	blank2r.bmp	0	1	+	0	1	blank2r.bmp	492	1	ZHHZ	492	1	blank2r.bmp	572	2	gemein	866	1	!	1239	1	!	1292	0	0	0	0	0	0	0	0	0	0	0	0	0	0	0	0	0	0	0	0	0	0	0	0	0	0	0	0	0	0
070919	13:05:32	13:15:56	622859	5.0.10.0	5_exp_RW	31	Rpleas_acq	CS_A	LWWL	DXXD	ZHHZ	JQQJ	YFFY	CPPC	vertrauen	genießen	träumen	gütig	küssen	sonnig	versagen	gemein	töten	gierig	krank	sterben	1	acq_USunple_CSunple2_RW	acq4567_RW	5	38	400	0	300	300	287	50	0	0	1	blank2r.bmp	0	1	+	0	1	blank2r.bmp	492	1	JQQJ	492	1	blank2r.bmp	572	3	sterben	866	1	!	-1	1	!	-1	0	0	0	0	0	0	0	0	0	0	0	0	0	0	0	0	0	0	0	0	0	0	0	0	0	0	0	0	0	0
070919	13:05:32	13:15:58	625044	5.0.10.0	5_exp_RW	31	Rpleas_acq	CS_A	LWWL	DXXD	ZHHZ	JQQJ	YFFY	CPPC	vertrauen	genießen	träumen	gütig	küssen	sonnig	versagen	gemein	töten	gierig	krank	sterben	1	acq_USpleas_CSpleas2_RW	acq4567_RW	5	39	400	1	300	300	373	46	0	0	1	blank2r.bmp	0	1	+	0	1	blank2r.bmp	492	1	DXXD	492	1	blank2r.bmp	572	3	sonnig	866	1	!	1239	1	!	1279	0	0	0	0	0	0	0	0	0	0	0	0	0	0	0	0	0	0	0	0	0	0	0	0	0	0	0	0	0	0
070919	13:05:32	13:16:03	629709	5.0.10.0	5_exp_RW	31	Rpleas_acq	CS_A	LWWL	DXXD	ZHHZ	JQQJ	YFFY	CPPC	vertrauen	genießen	träumen	gütig	küssen	sonnig	versagen	gemein	töten	gierig	krank	sterben	1	acq_USpleas_CSpleas1_RW	acq4567_RW	5	40	400	0	300	300	2894	50	0	1	1	blank2r.bmp	0	1	+	0	1	blank2r.bmp	492	1	LWWL	492	1	blank2r.bmp	572	1	vertrauen	866	1	!	1239	1	!	-1	0	0	0	0	0	0	0	0	0	0	0	0	0	0	0	0	0	0	0	0	0	0	0	0	0	0	0	0	0	0
070919	13:05:32	13:16:05	631922	5.0.10.0	5_exp_RW	31	Rpleas_acq	CS_A	LWWL	DXXD	ZHHZ	JQQJ	YFFY	CPPC	vertrauen	genießen	träumen	gütig	küssen	sonnig	versagen	gemein	töten	gierig	krank	sterben	1	acq_USpleas_CSpleas1_RW	acq4567_RW	5	41	400	1	300	300	406	50	0	1	1	blank2r.bmp	0	1	+	0	1	blank2r.bmp	492	1	LWWL	492	1	blank2r.bmp	572	3	träumen	866	1	!	1239	1	!	1306	0	0	0	0	0	0	0	0	0	0	0	0	0	0	0	0	0	0	0	0	0	0	0	0	0	0	0	0	0	0
070919	13:05:32	13:16:07	634174	5.0.10.0	5_exp_RW	31	Rpleas_acq	CS_A	LWWL	DXXD	ZHHZ	JQQJ	YFFY	CPPC	vertrauen	genießen	träumen	gütig	küssen	sonnig	versagen	gemein	töten	gierig	krank	sterben	1	acq_USunple_CSunple2_RW	acq4567_RW	5	42	400	0	300	300	485	46	0	1	1	blank2r.bmp	0	1	+	0	1	blank2r.bmp	492	1	JQQJ	492	1	blank2r.bmp	572	2	krank	866	1	!	1239	1	!	-1	0	0	0	0	0	0	0	0	0	0	0	0	0	0	0	0	0	0	0	0	0	0	0	0	0	0	0	0	0	0
070919	13:05:32	13:16:09	636400	5.0.10.0	5_exp_RW	31	Rpleas_acq	CS_A	LWWL	DXXD	ZHHZ	JQQJ	YFFY	CPPC	vertrauen	genießen	träumen	gütig	küssen	sonnig	versagen	gemein	töten	gierig	krank	sterben	1	acq_USpleas_CSpleas2_RW	acq4567_RW	5	43	400	1	300	300	417	50	0	1	1	blank2r.bmp	0	1	+	0	1	blank2r.bmp	492	1	DXXD	492	1	blank2r.bmp	572	2	küssen	866	1	!	1239	1	!	1319	0	0	0	0	0	0	0	0	0	0	0	0	0	0	0	0	0	0	0	0	0	0	0	0	0	0	0	0	0	0
070919	13:05:32	13:16:12	638772	5.0.10.0	5_exp_RW	31	Rpleas_acq	CS_A	LWWL	DXXD	ZHHZ	JQQJ	YFFY	CPPC	vertrauen	genießen	träumen	gütig	küssen	sonnig	versagen	gemein	töten	gierig	krank	sterben	1	acq_USpleas_CSpleas2_RW	acq4567_RW	5	44	400	0	300	300	605	50	0	1	1	blank2r.bmp	0	1	+	0	1	blank2r.bmp	492	1	DXXD	492	1	blank2r.bmp	572	1	gütig	866	1	!	1239	1	!	-1	0	0	0	0	0	0	0	0	0	0	0	0	0	0	0	0	0	0	0	0	0	0	0	0	0	0	0	0	0	0
070919	13:05:32	13:16:14	640971	5.0.10.0	5_exp_RW	31	Rpleas_acq	CS_A	LWWL	DXXD	ZHHZ	JQQJ	YFFY	CPPC	vertrauen	genießen	träumen	gütig	küssen	sonnig	versagen	gemein	töten	gierig	krank	sterben	1	acq_USpleas_CSpleas1_RW	acq4567_RW	5	45	400	1	300	300	398	50	0	1	1	blank2r.bmp	0	1	+	0	1	blank2r.bmp	492	1	LWWL	492	1	blank2r.bmp	572	2	genießen	866	1	!	1239	1	!	1292	0	0	0	0	0	0	0	0	0	0	0	0	0	0	0	0	0	0	0	0	0	0	0	0	0	0	0	0	0	0
070919	13:05:32	13:16:16	643197	5.0.10.0	5_exp_RW	31	Rpleas_acq	CS_A	LWWL	DXXD	ZHHZ	JQQJ	YFFY	CPPC	vertrauen	genießen	träumen	gütig	küssen	sonnig	versagen	gemein	töten	gierig	krank	sterben	1	acq_USunple_CSunple2_RW	acq4567_RW	5	46	400	1	300	300	437	46	0	1	1	blank2r.bmp	0	1	+	0	1	blank2r.bmp	492	1	JQQJ	492	1	blank2r.bmp	572	1	gierig	866	1	!	1239	1	!	1332	0	0	0	0	0	0	0	0	0	0	0	0	0	0	0	0	0	0	0	0	0	0	0	0	0	0	0	0	0	0
070919	13:05:32	13:16:19	645516	5.0.10.0	5_exp_RW	31	Rpleas_acq	CS_A	LWWL	DXXD	ZHHZ	JQQJ	YFFY	CPPC	vertrauen	genießen	träumen	gütig	küssen	sonnig	versagen	gemein	töten	gierig	krank	sterben	1	acq_USunple_CSunple1_RW	acq4567_RW	5	47	400	0	300	300	549	46	0	1	1	blank2r.bmp	0	1	+	0	1	blank2r.bmp	492	1	ZHHZ	492	1	blank2r.bmp	572	1	versagen	866	1	!	1239	1	!	-1	0	0	0	0	0	0	0	0	0	0	0	0	0	0	0	0	0	0	0	0	0	0	0	0	0	0	0	0	0	0
070919	13:05:32	13:16:21	647595	5.0.10.0	5_exp_RW	31	Rpleas_acq	CS_A	LWWL	DXXD	ZHHZ	JQQJ	YFFY	CPPC	vertrauen	genießen	träumen	gütig	küssen	sonnig	versagen	gemein	töten	gierig	krank	sterben	1	acq_USunple_CSunple2_RW	acq4567_RW	5	48	400	0	300	300	297	46	0	1	1	blank2r.bmp	0	1	+	0	1	blank2r.bmp	492	1	JQQJ	492	1	blank2r.bmp	572	3	sterben	866	1	!	-1	1	!	-1	0	0	0	0	0	0	0	0	0	0	0	0	0	0	0	0	0	0	0	0	0	0	0	0	0	0	0	0	0	0
070919	13:05:32	13:16:23	649874	5.0.10.0	5_exp_RW	31	Rpleas_acq	CS_A	LWWL	DXXD	ZHHZ	JQQJ	YFFY	CPPC	vertrauen	genießen	träumen	gütig	küssen	sonnig	versagen	gemein	töten	gierig	krank	sterben	1	acq_USunple_CSunple2_RW	acq4567_RW	5	49	400	0	300	300	501	46	0	1	1	blank2r.bmp	0	1	+	0	1	blank2r.bmp	492	1	JQQJ	492	1	blank2r.bmp	572	2	krank	866	1	!	1239	1	!	-1	0	0	0	0	0	0	0	0	0	0	0	0	0	0	0	0	0	0	0	0	0	0	0	0	0	0	0	0	0	0
070919	13:05:32	13:16:25	652153	5.0.10.0	5_exp_RW	31	Rpleas_acq	CS_A	LWWL	DXXD	ZHHZ	JQQJ	YFFY	CPPC	vertrauen	genießen	träumen	gütig	küssen	sonnig	versagen	gemein	töten	gierig	krank	sterben	1	acq_USpleas_CSpleas1_RW	acq4567_RW	5	50	400	0	300	300	490	50	0	1	1	blank2r.bmp	0	1	+	0	1	blank2r.bmp	492	1	LWWL	492	1	blank2r.bmp	572	1	vertrauen	866	1	!	1239	1	!	-1	0	0	0	0	0	0	0	0	0	0	0	0	0	0	0	0	0	0	0	0	0	0	0	0	0	0	0	0	0	0
070919	13:05:32	13:16:28	654459	5.0.10.0	5_exp_RW	31	Rpleas_acq	CS_A	LWWL	DXXD	ZHHZ	JQQJ	YFFY	CPPC	vertrauen	genießen	träumen	gütig	küssen	sonnig	versagen	gemein	töten	gierig	krank	sterben	1	acq_USpleas_CSpleas2_RW	acq4567_RW	5	51	400	0	300	300	509	50	0	1	1	blank2r.bmp	0	1	+	0	1	blank2r.bmp	492	1	DXXD	492	1	blank2r.bmp	572	2	küssen	866	1	!	1239	1	!	-1	0	0	0	0	0	0	0	0	0	0	0	0	0	0	0	0	0	0	0	0	0	0	0	0	0	0	0	0	0	0
070919	13:05:32	13:16:30	656645	5.0.10.0	5_exp_RW	31	Rpleas_acq	CS_A	LWWL	DXXD	ZHHZ	JQQJ	YFFY	CPPC	vertrauen	genießen	träumen	gütig	küssen	sonnig	versagen	gemein	töten	gierig	krank	sterben	1	acq_USpleas_CSpleas2_RW	acq4567_RW	5	52	400	1	300	300	381	50	0	1	1	blank2r.bmp	0	1	+	0	1	blank2r.bmp	492	1	DXXD	492	1	blank2r.bmp	572	3	sonnig	866	1	!	1239	1	!	1279	0	0	0	0	0	0	0	0	0	0	0	0	0	0	0	0	0	0	0	0	0	0	0	0	0	0	0	0	0	0
070919	13:05:32	13:16:32	658897	5.0.10.0	5_exp_RW	31	Rpleas_acq	CS_A	LWWL	DXXD	ZHHZ	JQQJ	YFFY	CPPC	vertrauen	genießen	träumen	gütig	küssen	sonnig	versagen	gemein	töten	gierig	krank	sterben	1	acq_USunple_CSunple2_RW	acq4567_RW	5	53	400	0	300	300	480	46	0	1	1	blank2r.bmp	0	1	+	0	1	blank2r.bmp	492	1	JQQJ	492	1	blank2r.bmp	572	1	gierig	866	1	!	1239	1	!	-1	0	0	0	0	0	0	0	0	0	0	0	0	0	0	0	0	0	0	0	0	0	0	0	0	0	0	0	0	0	0
070919	13:05:32	13:16:34	661149	5.0.10.0	5_exp_RW	31	Rpleas_acq	CS_A	LWWL	DXXD	ZHHZ	JQQJ	YFFY	CPPC	vertrauen	genießen	träumen	gütig	küssen	sonnig	versagen	gemein	töten	gierig	krank	sterben	1	acq_USunple_CSunple1_RW	acq4567_RW	5	54	400	1	300	300	448	46	0	1	1	blank2r.bmp	0	1	+	0	1	blank2r.bmp	492	1	ZHHZ	492	1	blank2r.bmp	572	3	töten	866	1	!	1239	1	!	1346	0	0	0	0	0	0	0	0	0	0	0	0	0	0	0	0	0	0	0	0	0	0	0	0	0	0	0	0	0	0
070919	13:05:32	13:16:36	663295	5.0.10.0	5_exp_RW	31	Rpleas_acq	CS_A	LWWL	DXXD	ZHHZ	JQQJ	YFFY	CPPC	vertrauen	genießen	träumen	gütig	küssen	sonnig	versagen	gemein	töten	gierig	krank	sterben	1	acq_USunple_CSunple1_RW	acq4567_RW	5	55	400	1	300	300	349	46	0	1	1	blank2r.bmp	0	1	+	0	1	blank2r.bmp	492	1	ZHHZ	492	1	blank2r.bmp	572	3	töten	866	1	!	1239	1	!	1252	0	0	0	0	0	0	0	0	0	0	0	0	0	0	0	0	0	0	0	0	0	0	0	0	0	0	0	0	0	0
070919	13:05:32	13:16:39	665561	5.0.10.0	5_exp_RW	31	Rpleas_acq	CS_A	LWWL	DXXD	ZHHZ	JQQJ	YFFY	CPPC	vertrauen	genießen	träumen	gütig	küssen	sonnig	versagen	gemein	töten	gierig	krank	sterben	1	acq_USpleas_CSpleas2_RW	acq4567_RW	5	56	400	0	300	300	496	50	0	1	1	blank2r.bmp	0	1	+	0	1	blank2r.bmp	492	1	DXXD	492	1	blank2r.bmp	572	1	gütig	866	1	!	1239	1	!	-1	0	0	0	0	0	0	0	0	0	0	0	0	0	0	0	0	0	0	0	0	0	0	0	0	0	0	0	0	0	0
070919	13:05:32	13:16:41	667747	5.0.10.0	5_exp_RW	31	Rpleas_acq	CS_A	LWWL	DXXD	ZHHZ	JQQJ	YFFY	CPPC	vertrauen	genießen	träumen	gütig	küssen	sonnig	versagen	gemein	töten	gierig	krank	sterben	1	acq_USpleas_CSpleas1_RW	acq4567_RW	5	57	400	1	300	300	377	50	0	1	1	blank2r.bmp	0	1	+	0	1	blank2r.bmp	492	1	LWWL	492	1	blank2r.bmp	572	2	genießen	866	1	!	1239	1	!	1279	0	0	0	0	0	0	0	0	0	0	0	0	0	0	0	0	0	0	0	0	0	0	0	0	0	0	0	0	0	0
070919	13:05:32	13:16:43	669946	5.0.10.0	5_exp_RW	31	Rpleas_acq	CS_A	LWWL	DXXD	ZHHZ	JQQJ	YFFY	CPPC	vertrauen	genießen	träumen	gütig	küssen	sonnig	versagen	gemein	töten	gierig	krank	sterben	1	acq_USunple_CSunple1_RW	acq4567_RW	5	58	400	1	300	300	410	46	0	1	1	blank2r.bmp	0	1	+	0	1	blank2r.bmp	492	1	ZHHZ	492	1	blank2r.bmp	572	2	gemein	866	1	!	1239	1	!	1306	0	0	0	0	0	0	0	0	0	0	0	0	0	0	0	0	0	0	0	0	0	0	0	0	0	0	0	0	0	0
070919	13:05:32	13:16:45	672171	5.0.10.0	5_exp_RW	31	Rpleas_acq	CS_A	LWWL	DXXD	ZHHZ	JQQJ	YFFY	CPPC	vertrauen	genießen	träumen	gütig	küssen	sonnig	versagen	gemein	töten	gierig	krank	sterben	1	acq_USunple_CSunple1_RW	acq4567_RW	5	59	400	1	300	300	431	46	0	1	1	blank2r.bmp	0	1	+	0	1	blank2r.bmp	492	1	ZHHZ	492	1	blank2r.bmp	572	1	versagen	866	1	!	1239	1	!	1332	0	0	0	0	0	0	0	0	0	0	0	0	0	0	0	0	0	0	0	0	0	0	0	0	0	0	0	0	0	0
070919	13:05:32	13:16:47	674410	5.0.10.0	5_exp_RW	31	Rpleas_acq	CS_A	LWWL	DXXD	ZHHZ	JQQJ	YFFY	CPPC	vertrauen	genießen	träumen	gütig	küssen	sonnig	versagen	gemein	töten	gierig	krank	sterben	1	acq_USpleas_CSpleas1_RW	acq4567_RW	5	60	400	1	300	300	448	50	0	1	1	blank2r.bmp	0	1	+	0	1	blank2r.bmp	492	1	LWWL	492	1	blank2r.bmp	572	3	träumen	866	1	!	1239	1	!	1346	0	0	0	0	0	0	0	0	0	0	0	0	0	0	0	0	0	0	0	0	0	0	0	0	0	0	0	0	0	0
070919	13:05:32	13:16:50	676610	5.0.10.0	5_exp_RW	31	Rpleas_acq	CS_A	LWWL	DXXD	ZHHZ	JQQJ	YFFY	CPPC	vertrauen	genießen	träumen	gütig	küssen	sonnig	versagen	gemein	töten	gierig	krank	sterben	1	acq_USunple_CSunple1_RW	acq4567_RW	5	61	400	1	300	300	394	46	0	1	1	blank2r.bmp	0	1	+	0	1	blank2r.bmp	492	1	ZHHZ	492	1	blank2r.bmp	572	2	gemein	866	1	!	1239	1	!	1292	0	0	0	0	0	0	0	0	0	0	0	0	0	0	0	0	0	0	0	0	0	0	0	0	0	0	0	0	0	0
070919	13:05:32	13:16:52	678875	5.0.10.0	5_exp_RW	31	Rpleas_acq	CS_A	LWWL	DXXD	ZHHZ	JQQJ	YFFY	CPPC	vertrauen	genießen	träumen	gütig	küssen	sonnig	versagen	gemein	töten	gierig	krank	sterben	1	acq_USunple_CSunple1_RW	acq4567_RW	5	62	400	0	300	300	490	46	0	1	1	blank2r.bmp	0	1	+	0	1	blank2r.bmp	492	1	ZHHZ	492	1	blank2r.bmp	572	3	töten	866	1	!	1239	1	!	-1	0	0	0	0	0	0	0	0	0	0	0	0	0	0	0	0	0	0	0	0	0	0	0	0	0	0	0	0	0	0
070919	13:05:32	13:16:54	681048	5.0.10.0	5_exp_RW	31	Rpleas_acq	CS_A	LWWL	DXXD	ZHHZ	JQQJ	YFFY	CPPC	vertrauen	genießen	träumen	gütig	küssen	sonnig	versagen	gemein	töten	gierig	krank	sterben	1	acq_USpleas_CSpleas2_RW	acq4567_RW	5	63	400	1	300	300	346	50	0	1	1	blank2r.bmp	0	1	+	0	1	blank2r.bmp	492	1	DXXD	492	1	blank2r.bmp	572	2	küssen	866	1	!	1239	1	!	1252	0	0	0	0	0	0	0	0	0	0	0	0	0	0	0	0	0	0	0	0	0	0	0	0	0	0	0	0	0	0
070919	13:05:32	13:16:56	683327	5.0.10.0	5_exp_RW	31	Rpleas_acq	CS_A	LWWL	DXXD	ZHHZ	JQQJ	YFFY	CPPC	vertrauen	genießen	träumen	gütig	küssen	sonnig	versagen	gemein	töten	gierig	krank	sterben	1	acq_USpleas_CSpleas2_RW	acq4567_RW	5	64	400	0	300	300	513	46	0	0	1	blank2r.bmp	0	1	+	0	1	blank2r.bmp	492	1	DXXD	492	1	blank2r.bmp	572	1	gütig	866	1	!	1239	1	!	-1	0	0	0	0	0	0	0	0	0	0	0	0	0	0	0	0	0	0	0	0	0	0	0	0	0	0	0	0	0	0
070919	13:05:32	13:16:59	685579	5.0.10.0	5_exp_RW	31	Rpleas_acq	CS_A	LWWL	DXXD	ZHHZ	JQQJ	YFFY	CPPC	vertrauen	genießen	träumen	gütig	küssen	sonnig	versagen	gemein	töten	gierig	krank	sterben	1	acq_USunple_CSunple1_RW	acq4567_RW	5	65	400	1	300	300	451	46	0	1	1	blank2r.bmp	0	1	+	0	1	blank2r.bmp	492	1	ZHHZ	492	1	blank2r.bmp	572	1	versagen	866	1	!	1239	1	!	1346	0	0	0	0	0	0	0	0	0	0	0	0	0	0	0	0	0	0	0	0	0	0	0	0	0	0	0	0	0	0
070919	13:05:32	13:17:01	687885	5.0.10.0	5_exp_RW	31	Rpleas_acq	CS_A	LWWL	DXXD	ZHHZ	JQQJ	YFFY	CPPC	vertrauen	genießen	träumen	gütig	küssen	sonnig	versagen	gemein	töten	gierig	krank	sterben	1	acq_USpleas_CSpleas1_RW	acq4567_RW	5	66	400	0	300	300	521	50	0	1	1	blank2r.bmp	0	1	+	0	1	blank2r.bmp	492	1	LWWL	492	1	blank2r.bmp	572	3	träumen	866	1	!	1239	1	!	-1	0	0	0	0	0	0	0	0	0	0	0	0	0	0	0	0	0	0	0	0	0	0	0	0	0	0	0	0	0	0
070919	13:05:32	13:17:03	690137	5.0.10.0	5_exp_RW	31	Rpleas_acq	CS_A	LWWL	DXXD	ZHHZ	JQQJ	YFFY	CPPC	vertrauen	genießen	träumen	gütig	küssen	sonnig	versagen	gemein	töten	gierig	krank	sterben	1	acq_USunple_CSunple2_RW	acq4567_RW	5	67	400	1	300	300	445	46	0	1	1	blank2r.bmp	0	1	+	0	1	blank2r.bmp	492	1	JQQJ	492	1	blank2r.bmp	572	1	gierig	866	1	!	1239	1	!	1346	0	0	0	0	0	0	0	0	0	0	0	0	0	0	0	0	0	0	0	0	0	0	0	0	0	0	0	0	0	0
070919	13:05:32	13:17:05	692390	5.0.10.0	5_exp_RW	31	Rpleas_acq	CS_A	LWWL	DXXD	ZHHZ	JQQJ	YFFY	CPPC	vertrauen	genießen	träumen	gütig	küssen	sonnig	versagen	gemein	töten	gierig	krank	sterben	1	acq_USunple_CSunple2_RW	acq4567_RW	5	68	400	1	300	300	457	46	0	1	1	blank2r.bmp	0	1	+	0	1	blank2r.bmp	492	1	JQQJ	492	1	blank2r.bmp	572	2	krank	866	1	!	1239	1	!	1359	0	0	0	0	0	0	0	0	0	0	0	0	0	0	0	0	0	0	0	0	0	0	0	0	0	0	0	0	0	0
070919	13:05:32	13:17:08	694642	5.0.10.0	5_exp_RW	31	Rpleas_acq	CS_A	LWWL	DXXD	ZHHZ	JQQJ	YFFY	CPPC	vertrauen	genießen	träumen	gütig	küssen	sonnig	versagen	gemein	töten	gierig	krank	sterben	1	acq_USpleas_CSpleas1_RW	acq4567_RW	5	69	400	1	300	300	452	50	0	1	1	blank2r.bmp	0	1	+	0	1	blank2r.bmp	492	1	LWWL	492	1	blank2r.bmp	572	2	genießen	866	1	!	1239	1	!	1359	0	0	0	0	0	0	0	0	0	0	0	0	0	0	0	0	0	0	0	0	0	0	0	0	0	0	0	0	0	0
070919	13:05:32	13:17:10	696801	5.0.10.0	5_exp_RW	31	Rpleas_acq	CS_A	LWWL	DXXD	ZHHZ	JQQJ	YFFY	CPPC	vertrauen	genießen	träumen	gütig	küssen	sonnig	versagen	gemein	töten	gierig	krank	sterben	1	acq_USpleas_CSpleas2_RW	acq4567_RW	5	70	400	1	300	300	369	50	0	1	1	blank2r.bmp	0	1	+	0	1	blank2r.bmp	492	1	DXXD	492	1	blank2r.bmp	572	3	sonnig	866	1	!	1239	1	!	1266	0	0	0	0	0	0	0	0	0	0	0	0	0	0	0	0	0	0	0	0	0	0	0	0	0	0	0	0	0	0
070919	13:05:32	13:17:12	699000	5.0.10.0	5_exp_RW	31	Rpleas_acq	CS_A	LWWL	DXXD	ZHHZ	JQQJ	YFFY	CPPC	vertrauen	genießen	träumen	gütig	küssen	sonnig	versagen	gemein	töten	gierig	krank	sterben	1	acq_USpleas_CSpleas2_RW	acq4567_RW	5	71	400	1	300	300	402	50	0	1	1	blank2r.bmp	0	1	+	0	1	blank2r.bmp	492	1	DXXD	492	1	blank2r.bmp	572	3	sonnig	866	1	!	1239	1	!	1306	0	0	0	0	0	0	0	0	0	0	0	0	0	0	0	0	0	0	0	0	0	0	0	0	0	0	0	0	0	0
070919	13:05:32	13:17:14	701266	5.0.10.0	5_exp_RW	31	Rpleas_acq	CS_A	LWWL	DXXD	ZHHZ	JQQJ	YFFY	CPPC	vertrauen	genießen	träumen	gütig	küssen	sonnig	versagen	gemein	töten	gierig	krank	sterben	1	acq_USunple_CSunple2_RW	acq4567_RW	5	72	400	0	300	300	504	46	0	1	1	blank2r.bmp	0	1	+	0	1	blank2r.bmp	492	1	JQQJ	492	1	blank2r.bmp	572	3	sterben	866	1	!	1239	1	!	-1	0	0	0	0	0	0	0	0	0	0	0	0	0	0	0	0	0	0	0	0	0	0	0	0	0	0	0	0	0	0
070919	13:05:32	13:17:16	703425	5.0.10.0	5_exp_RW	31	Rpleas_acq	CS_A	LWWL	DXXD	ZHHZ	JQQJ	YFFY	CPPC	vertrauen	genießen	träumen	gütig	küssen	sonnig	versagen	gemein	töten	gierig	krank	sterben	1	acq_USunple_CSunple1_RW	acq4567_RW	5	73	400	1	300	300	346	46	0	1	1	blank2r.bmp	0	1	+	0	1	blank2r.bmp	492	1	ZHHZ	492	1	blank2r.bmp	572	1	versagen	866	1	!	1239	1	!	1252	0	0	0	0	0	0	0	0	0	0	0	0	0	0	0	0	0	0	0	0	0	0	0	0	0	0	0	0	0	0
070919	13:05:32	13:17:19	705664	5.0.10.0	5_exp_RW	31	Rpleas_acq	CS_A	LWWL	DXXD	ZHHZ	JQQJ	YFFY	CPPC	vertrauen	genießen	träumen	gütig	küssen	sonnig	versagen	gemein	töten	gierig	krank	sterben	1	acq_USpleas_CSpleas2_RW	acq4567_RW	5	74	400	1	300	300	435	50	0	1	1	blank2r.bmp	0	1	+	0	1	blank2r.bmp	492	1	DXXD	492	1	blank2r.bmp	572	1	gütig	866	1	!	1239	1	!	1332	0	0	0	0	0	0	0	0	0	0	0	0	0	0	0	0	0	0	0	0	0	0	0	0	0	0	0	0	0	0
070919	13:05:32	13:17:21	707823	5.0.10.0	5_exp_RW	31	Rpleas_acq	CS_A	LWWL	DXXD	ZHHZ	JQQJ	YFFY	CPPC	vertrauen	genießen	träumen	gütig	küssen	sonnig	versagen	gemein	töten	gierig	krank	sterben	1	acq_USpleas_CSpleas1_RW	acq4567_RW	5	75	400	1	300	300	364	50	0	1	1	blank2r.bmp	0	1	+	0	1	blank2r.bmp	492	1	LWWL	492	1	blank2r.bmp	572	1	vertrauen	866	1	!	1239	1	!	1266	0	0	0	0	0	0	0	0	0	0	0	0	0	0	0	0	0	0	0	0	0	0	0	0	0	0	0	0	0	0
070919	13:05:32	13:17:23	710022	5.0.10.0	5_exp_RW	31	Rpleas_acq	CS_A	LWWL	DXXD	ZHHZ	JQQJ	YFFY	CPPC	vertrauen	genießen	träumen	gütig	küssen	sonnig	versagen	gemein	töten	gierig	krank	sterben	1	acq_USpleas_CSpleas1_RW	acq4567_RW	5	76	400	1	300	300	401	50	0	1	1	blank2r.bmp	0	1	+	0	1	blank2r.bmp	492	1	LWWL	492	1	blank2r.bmp	572	1	vertrauen	866	1	!	1239	1	!	1306	0	0	0	0	0	0	0	0	0	0	0	0	0	0	0	0	0	0	0	0	0	0	0	0	0	0	0	0	0	0
070919	13:05:32	13:17:25	712235	5.0.10.0	5_exp_RW	31	Rpleas_acq	CS_A	LWWL	DXXD	ZHHZ	JQQJ	YFFY	CPPC	vertrauen	genießen	träumen	gütig	küssen	sonnig	versagen	gemein	töten	gierig	krank	sterben	1	acq_USunple_CSunple1_RW	acq4567_RW	5	77	400	1	300	300	416	46	0	1	1	blank2r.bmp	0	1	+	0	1	blank2r.bmp	492	1	ZHHZ	492	1	blank2r.bmp	572	2	gemein	866	1	!	1239	1	!	1319	0	0	0	0	0	0	0	0	0	0	0	0	0	0	0	0	0	0	0	0	0	0	0	0	0	0	0	0	0	0
070919	13:05:32	13:17:28	714500	5.0.10.0	5_exp_RW	31	Rpleas_acq	CS_A	LWWL	DXXD	ZHHZ	JQQJ	YFFY	CPPC	vertrauen	genießen	träumen	gütig	küssen	sonnig	versagen	gemein	töten	gierig	krank	sterben	1	acq_USpleas_CSpleas1_RW	acq4567_RW	5	78	400	0	300	300	501	46	0	0	1	blank2r.bmp	0	1	+	0	1	blank2r.bmp	492	1	LWWL	492	1	blank2r.bmp	572	3	träumen	866	1	!	1239	1	!	-1	0	0	0	0	0	0	0	0	0	0	0	0	0	0	0	0	0	0	0	0	0	0	0	0	0	0	0	0	0	0
070919	13:05:32	13:17:30	716739	5.0.10.0	5_exp_RW	31	Rpleas_acq	CS_A	LWWL	DXXD	ZHHZ	JQQJ	YFFY	CPPC	vertrauen	genießen	träumen	gütig	küssen	sonnig	versagen	gemein	töten	gierig	krank	sterben	1	acq_USunple_CSunple2_RW	acq4567_RW	5	79	400	1	300	300	432	46	0	1	1	blank2r.bmp	0	1	+	0	1	blank2r.bmp	492	1	JQQJ	492	1	blank2r.bmp	572	3	sterben	866	1	!	1239	1	!	1332	0	0	0	0	0	0	0	0	0	0	0	0	0	0	0	0	0	0	0	0	0	0	0	0	0	0	0	0	0	0
070919	13:05:32	13:17:32	719072	5.0.10.0	5_exp_RW	31	Rpleas_acq	CS_A	LWWL	DXXD	ZHHZ	JQQJ	YFFY	CPPC	vertrauen	genießen	träumen	gütig	küssen	sonnig	versagen	gemein	töten	gierig	krank	sterben	1	acq_USunple_CSunple2_RW	acq4567_RW	5	80	400	0	300	300	559	46	0	1	1	blank2r.bmp	0	1	+	0	1	blank2r.bmp	492	1	JQQJ	492	1	blank2r.bmp	572	2	krank	866	1	!	1239	1	!	-1	0	0	0	0	0	0	0	0	0	0	0	0	0	0	0	0	0	0	0	0	0	0	0	0	0	0	0	0	0	0
070919	13:05:32	13:17:40	726869	5.0.10.0	5_exp_RW	31	Rpleas_acq	CS_A	LWWL	DXXD	ZHHZ	JQQJ	YFFY	CPPC	vertrauen	genießen	träumen	gütig	küssen	sonnig	versagen	gemein	töten	gierig	krank	sterben	1	acq_USpleas_CSpleas2_RW	acq4567_RW	6	1	400	0	300	300	499	50	0	1	1	blank2r.bmp	0	1	+	0	1	blank2r.bmp	492	1	DXXD	492	1	blank2r.bmp	572	2	küssen	866	1	!	1239	1	!	-1	0	0	0	0	0	0	0	0	0	0	0	0	0	0	0	0	0	0	0	0	0	0	0	0	0	0	0	0	0	0
070919	13:05:32	13:17:42	729041	5.0.10.0	5_exp_RW	31	Rpleas_acq	CS_A	LWWL	DXXD	ZHHZ	JQQJ	YFFY	CPPC	vertrauen	genießen	träumen	gütig	küssen	sonnig	versagen	gemein	töten	gierig	krank	sterben	1	acq_USunple_CSunple2_RW	acq4567_RW	6	2	400	1	300	300	359	50	0	0	1	blank2r.bmp	0	1	+	0	1	blank2r.bmp	492	1	JQQJ	492	1	blank2r.bmp	572	1	gierig	866	1	!	1239	1	!	1266	0	0	0	0	0	0	0	0	0	0	0	0	0	0	0	0	0	0	0	0	0	0	0	0	0	0	0	0	0	0
070919	13:05:32	13:17:44	731227	5.0.10.0	5_exp_RW	31	Rpleas_acq	CS_A	LWWL	DXXD	ZHHZ	JQQJ	YFFY	CPPC	vertrauen	genießen	träumen	gütig	küssen	sonnig	versagen	gemein	töten	gierig	krank	sterben	1	acq_USpleas_CSpleas1_RW	acq4567_RW	6	3	400	1	300	300	376	50	0	1	1	blank2r.bmp	0	1	+	0	1	blank2r.bmp	492	1	LWWL	492	1	blank2r.bmp	572	2	genießen	866	1	!	1239	1	!	1279	0	0	0	0	0	0	0	0	0	0	0	0	0	0	0	0	0	0	0	0	0	0	0	0	0	0	0	0	0	0
070919	13:05:32	13:17:46	733412	5.0.10.0	5_exp_RW	31	Rpleas_acq	CS_A	LWWL	DXXD	ZHHZ	JQQJ	YFFY	CPPC	vertrauen	genießen	träumen	gütig	küssen	sonnig	versagen	gemein	töten	gierig	krank	sterben	1	acq_USpleas_CSpleas1_RW	acq4567_RW	6	4	400	1	300	300	379	46	0	0	1	blank2r.bmp	0	1	+	0	1	blank2r.bmp	492	1	LWWL	492	1	blank2r.bmp	572	3	träumen	866	1	!	1239	1	!	1279	0	0	0	0	0	0	0	0	0	0	0	0	0	0	0	0	0	0	0	0	0	0	0	0	0	0	0	0	0	0
070919	13:05:32	13:17:49	735492	5.0.10.0	5_exp_RW	31	Rpleas_acq	CS_A	LWWL	DXXD	ZHHZ	JQQJ	YFFY	CPPC	vertrauen	genießen	träumen	gütig	küssen	sonnig	versagen	gemein	töten	gierig	krank	sterben	1	acq_USunple_CSunple1_RW	acq4567_RW	6	5	400	0	300	300	310	50	0	0	1	blank2r.bmp	0	1	+	0	1	blank2r.bmp	492	1	ZHHZ	492	1	blank2r.bmp	572	3	töten	866	1	!	-1	1	!	-1	0	0	0	0	0	0	0	0	0	0	0	0	0	0	0	0	0	0	0	0	0	0	0	0	0	0	0	0	0	0
070919	13:05:32	13:17:51	737664	5.0.10.0	5_exp_RW	31	Rpleas_acq	CS_A	LWWL	DXXD	ZHHZ	JQQJ	YFFY	CPPC	vertrauen	genießen	träumen	gütig	küssen	sonnig	versagen	gemein	töten	gierig	krank	sterben	1	acq_USpleas_CSpleas1_RW	acq4567_RW	6	6	400	1	300	300	371	50	0	1	1	blank2r.bmp	0	1	+	0	1	blank2r.bmp	492	1	LWWL	492	1	blank2r.bmp	572	2	genießen	866	1	!	1239	1	!	1266	0	0	0	0	0	0	0	0	0	0	0	0	0	0	0	0	0	0	0	0	0	0	0	0	0	0	0	0	0	0
070919	13:05:32	13:17:55	741916	5.0.10.0	5_exp_RW	31	Rpleas_acq	CS_A	LWWL	DXXD	ZHHZ	JQQJ	YFFY	CPPC	vertrauen	genießen	träumen	gütig	küssen	sonnig	versagen	gemein	töten	gierig	krank	sterben	1	acq_USpleas_CSpleas2_RW	acq4567_RW	6	7	400	0	300	300	2488	50	0	1	1	blank2r.bmp	0	1	+	0	1	blank2r.bmp	492	1	DXXD	492	1	blank2r.bmp	572	1	gütig	866	1	!	1239	1	!	-1	0	0	0	0	0	0	0	0	0	0	0	0	0	0	0	0	0	0	0	0	0	0	0	0	0	0	0	0	0	0
070919	13:05:32	13:17:57	744075	5.0.10.0	5_exp_RW	31	Rpleas_acq	CS_A	LWWL	DXXD	ZHHZ	JQQJ	YFFY	CPPC	vertrauen	genießen	träumen	gütig	küssen	sonnig	versagen	gemein	töten	gierig	krank	sterben	1	acq_USpleas_CSpleas2_RW	acq4567_RW	6	8	400	1	300	300	347	50	0	1	1	blank2r.bmp	0	1	+	0	1	blank2r.bmp	492	1	DXXD	492	1	blank2r.bmp	572	3	sonnig	866	1	!	1239	1	!	1252	0	0	0	0	0	0	0	0	0	0	0	0	0	0	0	0	0	0	0	0	0	0	0	0	0	0	0	0	0	0
070919	13:05:32	13:17:59	746220	5.0.10.0	5_exp_RW	31	Rpleas_acq	CS_A	LWWL	DXXD	ZHHZ	JQQJ	YFFY	CPPC	vertrauen	genießen	träumen	gütig	küssen	sonnig	versagen	gemein	töten	gierig	krank	sterben	1	acq_USpleas_CSpleas2_RW	acq4567_RW	6	9	400	1	300	300	351	50	0	1	1	blank2r.bmp	0	1	+	0	1	blank2r.bmp	492	1	DXXD	492	1	blank2r.bmp	572	2	küssen	866	1	!	1239	1	!	1252	0	0	0	0	0	0	0	0	0	0	0	0	0	0	0	0	0	0	0	0	0	0	0	0	0	0	0	0	0	0
070919	13:05:32	13:18:02	748473	5.0.10.0	5_exp_RW	31	Rpleas_acq	CS_A	LWWL	DXXD	ZHHZ	JQQJ	YFFY	CPPC	vertrauen	genießen	träumen	gütig	küssen	sonnig	versagen	gemein	töten	gierig	krank	sterben	1	acq_USunple_CSunple1_RW	acq4567_RW	6	10	400	0	300	300	479	46	0	1	1	blank2r.bmp	0	1	+	0	1	blank2r.bmp	492	1	ZHHZ	492	1	blank2r.bmp	572	1	versagen	866	1	!	1239	1	!	-1	0	0	0	0	0	0	0	0	0	0	0	0	0	0	0	0	0	0	0	0	0	0	0	0	0	0	0	0	0	0
070919	13:05:32	13:18:04	750712	5.0.10.0	5_exp_RW	31	Rpleas_acq	CS_A	LWWL	DXXD	ZHHZ	JQQJ	YFFY	CPPC	vertrauen	genießen	träumen	gütig	küssen	sonnig	versagen	gemein	töten	gierig	krank	sterben	1	acq_USpleas_CSpleas2_RW	acq4567_RW	6	11	400	1	300	300	428	46	0	0	1	blank2r.bmp	0	1	+	0	1	blank2r.bmp	492	1	DXXD	492	1	blank2r.bmp	572	1	gütig	866	1	!	1239	1	!	1332	0	0	0	0	0	0	0	0	0	0	0	0	0	0	0	0	0	0	0	0	0	0	0	0	0	0	0	0	0	0
070919	13:05:32	13:18:07	754017	5.0.10.0	5_exp_RW	31	Rpleas_acq	CS_A	LWWL	DXXD	ZHHZ	JQQJ	YFFY	CPPC	vertrauen	genießen	träumen	gütig	küssen	sonnig	versagen	gemein	töten	gierig	krank	sterben	1	acq_USpleas_CSpleas1_RW	acq4567_RW	6	12	400	0	300	300	1535	50	0	1	1	blank2r.bmp	0	1	+	0	1	blank2r.bmp	492	1	LWWL	492	1	blank2r.bmp	572	1	vertrauen	866	1	!	1239	1	!	-1	0	0	0	0	0	0	0	0	0	0	0	0	0	0	0	0	0	0	0	0	0	0	0	0	0	0	0	0	0	0
070919	13:05:32	13:18:09	756110	5.0.10.0	5_exp_RW	31	Rpleas_acq	CS_A	LWWL	DXXD	ZHHZ	JQQJ	YFFY	CPPC	vertrauen	genießen	träumen	gütig	küssen	sonnig	versagen	gemein	töten	gierig	krank	sterben	1	acq_USpleas_CSpleas1_RW	acq4567_RW	6	13	400	0	300	300	310	50	0	1	1	blank2r.bmp	0	1	+	0	1	blank2r.bmp	492	1	LWWL	492	1	blank2r.bmp	572	3	träumen	866	1	!	-1	1	!	-1	0	0	0	0	0	0	0	0	0	0	0	0	0	0	0	0	0	0	0	0	0	0	0	0	0	0	0	0	0	0
