date	time	script.currenttime	script.elapsedtime	build	script.currentexpt	subject	expressions.LRpleas_acq	expressions.conditionCS_A	expressions.CSpleas_1	expressions.CSpleas_2	expressions.CSunple_1	expressions.CSunple_2	expressions.distractor_1	expressions.distractor_2	expressions.US_pleas1	expressions.US_pleas2	expressions.US_pleas3	expressions.US_pleas4	expressions.US_pleas5	expressions.US_pleas6	expressions.US_unple1	expressions.US_unple2	expressions.US_unple3	expressions.US_unple4	expressions.US_unple5	expressions.US_unple6	counter.positions_noRW	trialcode	blockcode	blocknum	trialnum	windowcenter	inwindow	pretrialpause	posttrialpause	latency	response	expressions.correctedscore	correct	stimulusnumber1	stimulusitem1	stimulusonset1	stimulusnumber2	stimulusitem2	stimulusonset2	stimulusnumber3	stimulusitem3	stimulusonset3	stimulusnumber4	stimulusitem4	stimulusonset4	stimulusnumber5	stimulusitem5	stimulusonset5	stimulusnumber6	stimulusitem6	stimulusonset6	stimulusnumber7	stimulusitem7	stimulusonset7	stimulusnumber8	stimulusitem8	stimulusonset8	stimulusnumber9	stimulusitem9	stimulusonset9	stimulusnumber10	stimulusitem10	stimulusonset10	stimulusnumber11	stimulusitem11	stimulusonset11	stimulusnumber12	stimulusitem12	stimulusonset12	stimulusnumber13	stimulusitem13	stimulusonset13	stimulusnumber14	stimulusitem14	stimulusonset14	stimulusnumber15	stimulusitem15	stimulusonset15	stimulusnumber16	stimulusitem16	stimulusonset16	stimulusnumber17	stimulusitem17	stimulusonset17	stimulusnumber18	stimulusitem18	stimulusonset18
071019	12:23:03	12:23:36	32066	5.0.10.0	5_exp_noRW	38	Rpleas_acq	CS_A	CPPC	ZHHZ	DXXD	YFFY	LWWL	JQQJ	genießen	träumen	gütig	küssen	sonnig	vertrauen	gemein	töten	gierig	krank	sterben	versagen	53pct	acq_USunple_CSunple2_noRW	acq1_noRW	1	1	0	0	300	300	2000	0	0	0	1	blank2r.bmp	0	1	+	0	1	blank2r.bmp	252	1	YFFY	306	1	krank	559	1	FEHLER	2598	1	Schneller!	2598	0	0	0	0	0	0	0	0	0	0	0	0	0	0	0	0	0	0	0	0	0	0	0	0	0	0	0	0	0	0	0	0	0
071019	12:23:03	12:23:39	35478	5.0.10.0	5_exp_noRW	38	Rpleas_acq	CS_A	CPPC	ZHHZ	DXXD	YFFY	LWWL	JQQJ	genießen	träumen	gütig	küssen	sonnig	vertrauen	gemein	töten	gierig	krank	sterben	versagen	47pct	acq_USunple_CSunple2_noRW	acq1_noRW	1	2	0	0	300	300	2000	0	0	0	1	blank2r.bmp	0	1	+	0	1	blank2r.bmp	252	1	YFFY	306	3	versagen	559	1	FEHLER	2598	1	Schneller!	2598	0	0	0	0	0	0	0	0	0	0	0	0	0	0	0	0	0	0	0	0	0	0	0	0	0	0	0	0	0	0	0	0	0
071019	12:23:03	12:23:43	38890	5.0.10.0	5_exp_noRW	38	Rpleas_acq	CS_A	CPPC	ZHHZ	DXXD	YFFY	LWWL	JQQJ	genießen	träumen	gütig	küssen	sonnig	vertrauen	gemein	töten	gierig	krank	sterben	versagen	47pct	acq_USunple_CSpleas1_noRW	acq1_noRW	1	3	0	0	300	300	2000	0	0	0	1	blank2r.bmp	0	1	+	0	1	blank2r.bmp	252	1	CPPC	306	2	töten	559	1	FEHLER	2598	1	Schneller!	2598	0	0	0	0	0	0	0	0	0	0	0	0	0	0	0	0	0	0	0	0	0	0	0	0	0	0	0	0	0	0	0	0	0
071019	12:23:03	12:23:46	42302	5.0.10.0	5_exp_noRW	38	Rpleas_acq	CS_A	CPPC	ZHHZ	DXXD	YFFY	LWWL	JQQJ	genießen	träumen	gütig	küssen	sonnig	vertrauen	gemein	töten	gierig	krank	sterben	versagen	47pct	acq_USpleas_CSpleas1_noRW	acq1_noRW	1	4	0	0	300	300	2000	0	0	0	1	blank2r.bmp	0	1	+	0	1	blank2r.bmp	252	1	CPPC	306	2	träumen	559	1	FEHLER	2598	1	Schneller!	2598	0	0	0	0	0	0	0	0	0	0	0	0	0	0	0	0	0	0	0	0	0	0	0	0	0	0	0	0	0	0	0	0	0
071019	12:23:03	12:23:47	43514	5.0.10.0	5_exp_noRW	38	Rpleas_acq	CS_A	CPPC	ZHHZ	DXXD	YFFY	LWWL	JQQJ	genießen	träumen	gütig	küssen	sonnig	vertrauen	gemein	töten	gierig	krank	sterben	versagen	47pct	acq_USunple_CSunple1_noRW	acq1_noRW	1	5	0	0	300	300	107	50	0	0	1	blank2r.bmp	0	1	+	0	1	blank2r.bmp	252	1	DXXD	306	3	gierig	559	1	FEHLER	706	0	0	0	0	0	0	0	0	0	0	0	0	0	0	0	0	0	0	0	0	0	0	0	0	0	0	0	0	0	0	0	0	0	0	0	0
071019	12:23:03	12:23:51	46980	5.0.10.0	5_exp_noRW	38	Rpleas_acq	CS_A	CPPC	ZHHZ	DXXD	YFFY	LWWL	JQQJ	genießen	träumen	gütig	küssen	sonnig	vertrauen	gemein	töten	gierig	krank	sterben	versagen	47pct	acq_USunple_CSunple1_noRW	acq1_noRW	1	6	0	0	300	300	2000	0	0	0	1	blank2r.bmp	0	1	+	0	1	blank2r.bmp	252	1	DXXD	306	2	töten	559	1	FEHLER	2598	1	Schneller!	2598	0	0	0	0	0	0	0	0	0	0	0	0	0	0	0	0	0	0	0	0	0	0	0	0	0	0	0	0	0	0	0	0	0
071019	12:23:03	12:23:54	50391	5.0.10.0	5_exp_noRW	38	Rpleas_acq	CS_A	CPPC	ZHHZ	DXXD	YFFY	LWWL	JQQJ	genießen	träumen	gütig	küssen	sonnig	vertrauen	gemein	töten	gierig	krank	sterben	versagen	53pct	acq_USunple_CSpleas2_noRW	acq1_noRW	1	7	0	0	300	300	2000	0	0	0	1	blank2r.bmp	0	1	+	0	1	blank2r.bmp	252	1	ZHHZ	306	2	sterben	559	1	FEHLER	2598	1	Schneller!	2598	0	0	0	0	0	0	0	0	0	0	0	0	0	0	0	0	0	0	0	0	0	0	0	0	0	0	0	0	0	0	0	0	0
071019	12:23:03	12:23:57	53817	5.0.10.0	5_exp_noRW	38	Rpleas_acq	CS_A	CPPC	ZHHZ	DXXD	YFFY	LWWL	JQQJ	genießen	träumen	gütig	küssen	sonnig	vertrauen	gemein	töten	gierig	krank	sterben	versagen	47pct	acq_USpleas_CSpleas1_noRW	acq1_noRW	1	8	0	0	300	300	2000	0	0	0	1	blank2r.bmp	0	1	+	0	1	blank2r.bmp	252	1	CPPC	306	3	gütig	559	1	FEHLER	2598	1	Schneller!	2598	0	0	0	0	0	0	0	0	0	0	0	0	0	0	0	0	0	0	0	0	0	0	0	0	0	0	0	0	0	0	0	0	0
071019	12:23:03	12:24:01	57229	5.0.10.0	5_exp_noRW	38	Rpleas_acq	CS_A	CPPC	ZHHZ	DXXD	YFFY	LWWL	JQQJ	genießen	träumen	gütig	küssen	sonnig	vertrauen	gemein	töten	gierig	krank	sterben	versagen	47pct	acq_USpleas_CSpleas2_noRW	acq1_noRW	1	9	0	0	300	300	2000	0	0	0	1	blank2r.bmp	0	1	+	0	1	blank2r.bmp	252	1	ZHHZ	306	1	küssen	559	1	FEHLER	2598	1	Schneller!	2598	0	0	0	0	0	0	0	0	0	0	0	0	0	0	0	0	0	0	0	0	0	0	0	0	0	0	0	0	0	0	0	0	0
071019	12:23:03	12:24:03	59601	5.0.10.0	5_exp_noRW	38	Rpleas_acq	CS_A	CPPC	ZHHZ	DXXD	YFFY	LWWL	JQQJ	genießen	träumen	gütig	küssen	sonnig	vertrauen	gemein	töten	gierig	krank	sterben	versagen	47pct	acq_USpleas_CSunple2_noRW	acq1_noRW	1	10	0	0	300	300	1273	46	0	0	1	blank2r.bmp	0	1	+	0	1	blank2r.bmp	252	1	YFFY	306	1	küssen	559	1	FEHLER	1865	0	0	0	0	0	0	0	0	0	0	0	0	0	0	0	0	0	0	0	0	0	0	0	0	0	0	0	0	0	0	0	0	0	0	0	0
071019	12:23:03	12:24:07	63093	5.0.10.0	5_exp_noRW	38	Rpleas_acq	CS_A	CPPC	ZHHZ	DXXD	YFFY	LWWL	JQQJ	genießen	träumen	gütig	küssen	sonnig	vertrauen	gemein	töten	gierig	krank	sterben	versagen	47pct	acq_USpleas_CSpleas1_noRW	acq1_noRW	1	11	0	0	300	300	2000	0	0	0	1	blank2r.bmp	0	1	+	0	1	blank2r.bmp	252	1	CPPC	306	1	genießen	559	1	FEHLER	2599	1	Schneller!	2599	0	0	0	0	0	0	0	0	0	0	0	0	0	0	0	0	0	0	0	0	0	0	0	0	0	0	0	0	0	0	0	0	0
071019	12:23:03	12:24:10	66505	5.0.10.0	5_exp_noRW	38	Rpleas_acq	CS_A	CPPC	ZHHZ	DXXD	YFFY	LWWL	JQQJ	genießen	träumen	gütig	küssen	sonnig	vertrauen	gemein	töten	gierig	krank	sterben	versagen	47pct	acq_USpleas_CSpleas2_noRW	acq1_noRW	1	12	0	0	300	300	2000	0	0	0	1	blank2r.bmp	0	1	+	0	1	blank2r.bmp	252	1	ZHHZ	306	2	sonnig	559	1	FEHLER	2598	1	Schneller!	2598	0	0	0	0	0	0	0	0	0	0	0	0	0	0	0	0	0	0	0	0	0	0	0	0	0	0	0	0	0	0	0	0	0
071019	12:23:03	12:24:14	69917	5.0.10.0	5_exp_noRW	38	Rpleas_acq	CS_A	CPPC	ZHHZ	DXXD	YFFY	LWWL	JQQJ	genießen	träumen	gütig	küssen	sonnig	vertrauen	gemein	töten	gierig	krank	sterben	versagen	53pct	acq_USunple_CSunple2_noRW	acq1_noRW	1	13	0	0	300	300	2000	0	0	0	1	blank2r.bmp	0	1	+	0	1	blank2r.bmp	252	1	YFFY	306	2	sterben	559	1	FEHLER	2598	1	Schneller!	2598	0	0	0	0	0	0	0	0	0	0	0	0	0	0	0	0	0	0	0	0	0	0	0	0	0	0	0	0	0	0	0	0	0
071019	12:23:03	12:24:17	73329	5.0.10.0	5_exp_noRW	38	Rpleas_acq	CS_A	CPPC	ZHHZ	DXXD	YFFY	LWWL	JQQJ	genießen	träumen	gütig	küssen	sonnig	vertrauen	gemein	töten	gierig	krank	sterben	versagen	53pct	acq_USunple_CSunple1_noRW	acq1_noRW	1	14	0	0	300	300	2000	0	0	0	1	blank2r.bmp	0	1	+	0	1	blank2r.bmp	252	1	DXXD	306	1	gemein	559	1	FEHLER	2598	1	Schneller!	2598	0	0	0	0	0	0	0	0	0	0	0	0	0	0	0	0	0	0	0	0	0	0	0	0	0	0	0	0	0	0	0	0	0
071019	12:23:03	12:24:20	76740	5.0.10.0	5_exp_noRW	38	Rpleas_acq	CS_A	CPPC	ZHHZ	DXXD	YFFY	LWWL	JQQJ	genießen	träumen	gütig	küssen	sonnig	vertrauen	gemein	töten	gierig	krank	sterben	versagen	53pct	acq_USpleas_CSunple1_noRW	acq1_noRW	1	15	0	0	300	300	2000	0	0	0	1	blank2r.bmp	0	1	+	0	1	blank2r.bmp	252	1	DXXD	306	2	träumen	559	1	FEHLER	2598	1	Schneller!	2598	0	0	0	0	0	0	0	0	0	0	0	0	0	0	0	0	0	0	0	0	0	0	0	0	0	0	0	0	0	0	0	0	0
071019	12:23:03	12:24:24	80166	5.0.10.0	5_exp_noRW	38	Rpleas_acq	CS_A	CPPC	ZHHZ	DXXD	YFFY	LWWL	JQQJ	genießen	träumen	gütig	küssen	sonnig	vertrauen	gemein	töten	gierig	krank	sterben	versagen	47pct	acq_USpleas_CSpleas2_noRW	acq1_noRW	1	16	0	0	300	300	2000	0	0	0	1	blank2r.bmp	0	1	+	0	1	blank2r.bmp	252	1	ZHHZ	306	3	vertrauen	559	1	FEHLER	2598	1	Schneller!	2598	0	0	0	0	0	0	0	0	0	0	0	0	0	0	0	0	0	0	0	0	0	0	0	0	0	0	0	0	0	0	0	0	0
071019	12:23:03	12:24:25	81525	5.0.10.0	5_exp_noRW	38	Rpleas_acq	CS_A	CPPC	ZHHZ	DXXD	YFFY	LWWL	JQQJ	genießen	träumen	gütig	küssen	sonnig	vertrauen	gemein	töten	gierig	krank	sterben	versagen	47pct	acq_USpleas_CSpleas1_noRW	acq1_noRW	1	17	0	0	300	300	456	50	0	1	1	blank2r.bmp	0	1	+	0	1	blank2r.bmp	252	1	CPPC	306	2	träumen	559	0	0	0	0	0	0	0	0	0	0	0	0	0	0	0	0	0	0	0	0	0	0	0	0	0	0	0	0	0	0	0	0	0	0	0	0	0	0	0
071019	12:23:03	12:24:29	85217	5.0.10.0	5_exp_noRW	38	Rpleas_acq	CS_A	CPPC	ZHHZ	DXXD	YFFY	LWWL	JQQJ	genießen	träumen	gütig	küssen	sonnig	vertrauen	gemein	töten	gierig	krank	sterben	versagen	53pct	acq_USpleas_CSpleas2_noRW	acq1_noRW	1	18	0	0	300	300	2000	0	0	0	1	blank2r.bmp	0	1	+	0	1	blank2r.bmp	252	1	ZHHZ	306	1	küssen	559	1	FEHLER	2598	1	Schneller!	2598	0	0	0	0	0	0	0	0	0	0	0	0	0	0	0	0	0	0	0	0	0	0	0	0	0	0	0	0	0	0	0	0	0
071019	12:23:03	12:24:32	88629	5.0.10.0	5_exp_noRW	38	Rpleas_acq	CS_A	CPPC	ZHHZ	DXXD	YFFY	LWWL	JQQJ	genießen	träumen	gütig	küssen	sonnig	vertrauen	gemein	töten	gierig	krank	sterben	versagen	53pct	acq_USunple_CSunple1_noRW	acq1_noRW	1	19	0	0	300	300	2000	0	0	0	1	blank2r.bmp	0	1	+	0	1	blank2r.bmp	252	1	DXXD	306	1	gemein	559	1	FEHLER	2598	1	Schneller!	2598	0	0	0	0	0	0	0	0	0	0	0	0	0	0	0	0	0	0	0	0	0	0	0	0	0	0	0	0	0	0	0	0	0
071019	12:23:03	12:24:36	92041	5.0.10.0	5_exp_noRW	38	Rpleas_acq	CS_A	CPPC	ZHHZ	DXXD	YFFY	LWWL	JQQJ	genießen	träumen	gütig	küssen	sonnig	vertrauen	gemein	töten	gierig	krank	sterben	versagen	47pct	acq_USunple_CSunple2_noRW	acq1_noRW	1	20	0	0	300	300	2000	0	0	0	1	blank2r.bmp	0	1	+	0	1	blank2r.bmp	252	1	YFFY	306	2	sterben	559	1	FEHLER	2598	1	Schneller!	2598	0	0	0	0	0	0	0	0	0	0	0	0	0	0	0	0	0	0	0	0	0	0	0	0	0	0	0	0	0	0	0	0	0
071019	12:23:03	12:24:37	93440	5.0.10.0	5_exp_noRW	38	Rpleas_acq	CS_A	CPPC	ZHHZ	DXXD	YFFY	LWWL	JQQJ	genießen	träumen	gütig	küssen	sonnig	vertrauen	gemein	töten	gierig	krank	sterben	versagen	47pct	acq_USpleas_CSpleas1_noRW	acq1_noRW	1	21	0	0	300	300	504	50	0	1	1	blank2r.bmp	0	1	+	0	1	blank2r.bmp	252	1	CPPC	306	3	gütig	559	0	0	0	0	0	0	0	0	0	0	0	0	0	0	0	0	0	0	0	0	0	0	0	0	0	0	0	0	0	0	0	0	0	0	0	0	0	0	0
071019	12:23:03	12:24:41	97132	5.0.10.0	5_exp_noRW	38	Rpleas_acq	CS_A	CPPC	ZHHZ	DXXD	YFFY	LWWL	JQQJ	genießen	träumen	gütig	küssen	sonnig	vertrauen	gemein	töten	gierig	krank	sterben	versagen	53pct	acq_USunple_CSunple2_noRW	acq1_noRW	1	22	0	0	300	300	2000	0	0	0	1	blank2r.bmp	0	1	+	0	1	blank2r.bmp	252	1	YFFY	306	3	versagen	559	1	FEHLER	2598	1	Schneller!	2598	0	0	0	0	0	0	0	0	0	0	0	0	0	0	0	0	0	0	0	0	0	0	0	0	0	0	0	0	0	0	0	0	0
071019	12:23:03	12:24:44	100544	5.0.10.0	5_exp_noRW	38	Rpleas_acq	CS_A	CPPC	ZHHZ	DXXD	YFFY	LWWL	JQQJ	genießen	träumen	gütig	küssen	sonnig	vertrauen	gemein	töten	gierig	krank	sterben	versagen	53pct	acq_USunple_CSpleas2_noRW	acq1_noRW	1	23	0	0	300	300	2000	0	0	0	1	blank2r.bmp	0	1	+	0	1	blank2r.bmp	252	1	ZHHZ	306	3	versagen	559	1	FEHLER	2598	1	Schneller!	2598	0	0	0	0	0	0	0	0	0	0	0	0	0	0	0	0	0	0	0	0	0	0	0	0	0	0	0	0	0	0	0	0	0
071019	12:23:03	12:24:48	103956	5.0.10.0	5_exp_noRW	38	Rpleas_acq	CS_A	CPPC	ZHHZ	DXXD	YFFY	LWWL	JQQJ	genießen	träumen	gütig	küssen	sonnig	vertrauen	gemein	töten	gierig	krank	sterben	versagen	47pct	acq_USunple_CSunple1_noRW	acq1_noRW	1	24	0	0	300	300	2000	0	0	0	1	blank2r.bmp	0	1	+	0	1	blank2r.bmp	252	1	DXXD	306	2	töten	559	1	FEHLER	2598	1	Schneller!	2598	0	0	0	0	0	0	0	0	0	0	0	0	0	0	0	0	0	0	0	0	0	0	0	0	0	0	0	0	0	0	0	0	0
071019	12:23:03	12:24:51	107368	5.0.10.0	5_exp_noRW	38	Rpleas_acq	CS_A	CPPC	ZHHZ	DXXD	YFFY	LWWL	JQQJ	genießen	träumen	gütig	küssen	sonnig	vertrauen	gemein	töten	gierig	krank	sterben	versagen	53pct	acq_USpleas_CSpleas1_noRW	acq1_noRW	1	25	0	0	300	300	2000	0	0	0	1	blank2r.bmp	0	1	+	0	1	blank2r.bmp	252	1	CPPC	306	1	genießen	559	1	FEHLER	2598	1	Schneller!	2598	0	0	0	0	0	0	0	0	0	0	0	0	0	0	0	0	0	0	0	0	0	0	0	0	0	0	0	0	0	0	0	0	0
071019	12:23:03	12:24:53	108900	5.0.10.0	5_exp_noRW	38	Rpleas_acq	CS_A	CPPC	ZHHZ	DXXD	YFFY	LWWL	JQQJ	genießen	träumen	gütig	küssen	sonnig	vertrauen	gemein	töten	gierig	krank	sterben	versagen	53pct	acq_USpleas_CSpleas2_noRW	acq1_noRW	1	26	0	0	300	300	428	46	0	0	1	blank2r.bmp	0	1	+	0	1	blank2r.bmp	252	1	ZHHZ	306	2	sonnig	559	1	FEHLER	1026	0	0	0	0	0	0	0	0	0	0	0	0	0	0	0	0	0	0	0	0	0	0	0	0	0	0	0	0	0	0	0	0	0	0	0	0
071019	12:23:03	12:24:54	110060	5.0.10.0	5_exp_noRW	38	Rpleas_acq	CS_A	CPPC	ZHHZ	DXXD	YFFY	LWWL	JQQJ	genießen	träumen	gütig	küssen	sonnig	vertrauen	gemein	töten	gierig	krank	sterben	versagen	53pct	acq_USpleas_CSpleas2_noRW	acq1_noRW	1	27	0	0	300	300	185	50	0	1	1	blank2r.bmp	0	1	+	0	1	blank2r.bmp	252	1	ZHHZ	306	3	vertrauen	559	0	0	0	0	0	0	0	0	0	0	0	0	0	0	0	0	0	0	0	0	0	0	0	0	0	0	0	0	0	0	0	0	0	0	0	0	0	0	0
071019	12:23:03	12:24:57	113752	5.0.10.0	5_exp_noRW	38	Rpleas_acq	CS_A	CPPC	ZHHZ	DXXD	YFFY	LWWL	JQQJ	genießen	träumen	gütig	küssen	sonnig	vertrauen	gemein	töten	gierig	krank	sterben	versagen	53pct	acq_USunple_CSunple2_noRW	acq1_noRW	1	28	0	0	300	300	2000	0	0	0	1	blank2r.bmp	0	1	+	0	1	blank2r.bmp	252	1	YFFY	306	1	krank	559	1	FEHLER	2598	1	Schneller!	2598	0	0	0	0	0	0	0	0	0	0	0	0	0	0	0	0	0	0	0	0	0	0	0	0	0	0	0	0	0	0	0	0	0
071019	12:23:03	12:25:01	117164	5.0.10.0	5_exp_noRW	38	Rpleas_acq	CS_A	CPPC	ZHHZ	DXXD	YFFY	LWWL	JQQJ	genießen	träumen	gütig	küssen	sonnig	vertrauen	gemein	töten	gierig	krank	sterben	versagen	53pct	acq_USpleas_CSpleas2_noRW	acq1_noRW	1	29	0	0	300	300	2000	0	0	0	1	blank2r.bmp	0	1	+	0	1	blank2r.bmp	252	1	ZHHZ	306	3	vertrauen	559	1	FEHLER	2598	1	Schneller!	2598	0	0	0	0	0	0	0	0	0	0	0	0	0	0	0	0	0	0	0	0	0	0	0	0	0	0	0	0	0	0	0	0	0
071019	12:23:03	12:25:04	120575	5.0.10.0	5_exp_noRW	38	Rpleas_acq	CS_A	CPPC	ZHHZ	DXXD	YFFY	LWWL	JQQJ	genießen	träumen	gütig	küssen	sonnig	vertrauen	gemein	töten	gierig	krank	sterben	versagen	47pct	acq_USpleas_CSpleas2_noRW	acq1_noRW	1	30	0	0	300	300	2000	0	0	0	1	blank2r.bmp	0	1	+	0	1	blank2r.bmp	252	1	ZHHZ	306	2	sonnig	559	1	FEHLER	2598	1	Schneller!	2598	0	0	0	0	0	0	0	0	0	0	0	0	0	0	0	0	0	0	0	0	0	0	0	0	0	0	0	0	0	0	0	0	0
071019	12:23:03	12:25:08	124001	5.0.10.0	5_exp_noRW	38	Rpleas_acq	CS_A	CPPC	ZHHZ	DXXD	YFFY	LWWL	JQQJ	genießen	träumen	gütig	küssen	sonnig	vertrauen	gemein	töten	gierig	krank	sterben	versagen	47pct	acq_USpleas_CSunple2_noRW	acq1_noRW	1	31	0	0	300	300	2000	0	0	0	1	blank2r.bmp	0	1	+	0	1	blank2r.bmp	252	1	YFFY	306	2	sonnig	559	1	FEHLER	2598	1	Schneller!	2598	0	0	0	0	0	0	0	0	0	0	0	0	0	0	0	0	0	0	0	0	0	0	0	0	0	0	0	0	0	0	0	0	0
071019	12:23:03	12:25:11	127413	5.0.10.0	5_exp_noRW	38	Rpleas_acq	CS_A	CPPC	ZHHZ	DXXD	YFFY	LWWL	JQQJ	genießen	träumen	gütig	küssen	sonnig	vertrauen	gemein	töten	gierig	krank	sterben	versagen	47pct	acq_USunple_CSunple1_noRW	acq1_noRW	1	32	0	0	300	300	2000	0	0	0	1	blank2r.bmp	0	1	+	0	1	blank2r.bmp	252	1	DXXD	306	3	gierig	559	1	FEHLER	2598	1	Schneller!	2598	0	0	0	0	0	0	0	0	0	0	0	0	0	0	0	0	0	0	0	0	0	0	0	0	0	0	0	0	0	0	0	0	0
071019	12:23:03	12:25:14	130824	5.0.10.0	5_exp_noRW	38	Rpleas_acq	CS_A	CPPC	ZHHZ	DXXD	YFFY	LWWL	JQQJ	genießen	träumen	gütig	küssen	sonnig	vertrauen	gemein	töten	gierig	krank	sterben	versagen	47pct	acq_USunple_CSunple2_noRW	acq1_noRW	1	33	0	0	300	300	2000	0	0	0	1	blank2r.bmp	0	1	+	0	1	blank2r.bmp	252	1	YFFY	306	3	versagen	559	1	FEHLER	2598	1	Schneller!	2598	0	0	0	0	0	0	0	0	0	0	0	0	0	0	0	0	0	0	0	0	0	0	0	0	0	0	0	0	0	0	0	0	0
071019	12:23:03	12:25:18	134250	5.0.10.0	5_exp_noRW	38	Rpleas_acq	CS_A	CPPC	ZHHZ	DXXD	YFFY	LWWL	JQQJ	genießen	träumen	gütig	küssen	sonnig	vertrauen	gemein	töten	gierig	krank	sterben	versagen	53pct	acq_USunple_CSunple2_noRW	acq1_noRW	1	34	0	0	300	300	2000	0	0	0	1	blank2r.bmp	0	1	+	0	1	blank2r.bmp	252	1	YFFY	306	1	krank	559	1	FEHLER	2598	1	Schneller!	2598	0	0	0	0	0	0	0	0	0	0	0	0	0	0	0	0	0	0	0	0	0	0	0	0	0	0	0	0	0	0	0	0	0
071019	12:23:03	12:25:21	137662	5.0.10.0	5_exp_noRW	38	Rpleas_acq	CS_A	CPPC	ZHHZ	DXXD	YFFY	LWWL	JQQJ	genießen	träumen	gütig	küssen	sonnig	vertrauen	gemein	töten	gierig	krank	sterben	versagen	53pct	acq_USpleas_CSpleas1_noRW	acq1_noRW	1	35	0	0	300	300	2000	0	0	0	1	blank2r.bmp	0	1	+	0	1	blank2r.bmp	252	1	CPPC	306	2	träumen	559	1	FEHLER	2598	1	Schneller!	2598	0	0	0	0	0	0	0	0	0	0	0	0	0	0	0	0	0	0	0	0	0	0	0	0	0	0	0	0	0	0	0	0	0
071019	12:23:03	12:25:23	138901	5.0.10.0	5_exp_noRW	38	Rpleas_acq	CS_A	CPPC	ZHHZ	DXXD	YFFY	LWWL	JQQJ	genießen	träumen	gütig	küssen	sonnig	vertrauen	gemein	töten	gierig	krank	sterben	versagen	47pct	acq_USunple_CSpleas1_noRW	acq1_noRW	1	36	0	0	300	300	138	50	0	0	1	blank2r.bmp	0	1	+	0	1	blank2r.bmp	252	1	CPPC	306	3	gierig	559	1	FEHLER	733	0	0	0	0	0	0	0	0	0	0	0	0	0	0	0	0	0	0	0	0	0	0	0	0	0	0	0	0	0	0	0	0	0	0	0	0
071019	12:23:03	12:25:26	142380	5.0.10.0	5_exp_noRW	38	Rpleas_acq	CS_A	CPPC	ZHHZ	DXXD	YFFY	LWWL	JQQJ	genießen	träumen	gütig	küssen	sonnig	vertrauen	gemein	töten	gierig	krank	sterben	versagen	53pct	acq_USunple_CSunple1_noRW	acq1_noRW	1	37	0	0	300	300	2000	0	0	0	1	blank2r.bmp	0	1	+	0	1	blank2r.bmp	252	1	DXXD	306	3	gierig	559	1	FEHLER	2598	1	Schneller!	2598	0	0	0	0	0	0	0	0	0	0	0	0	0	0	0	0	0	0	0	0	0	0	0	0	0	0	0	0	0	0	0	0	0
071019	12:23:03	12:25:29	145792	5.0.10.0	5_exp_noRW	38	Rpleas_acq	CS_A	CPPC	ZHHZ	DXXD	YFFY	LWWL	JQQJ	genießen	träumen	gütig	küssen	sonnig	vertrauen	gemein	töten	gierig	krank	sterben	versagen	47pct	acq_USunple_CSunple1_noRW	acq1_noRW	1	38	0	0	300	300	2000	0	0	0	1	blank2r.bmp	0	1	+	0	1	blank2r.bmp	252	1	DXXD	306	1	gemein	559	1	FEHLER	2598	1	Schneller!	2598	0	0	0	0	0	0	0	0	0	0	0	0	0	0	0	0	0	0	0	0	0	0	0	0	0	0	0	0	0	0	0	0	0
071019	12:23:03	12:25:33	149203	5.0.10.0	5_exp_noRW	38	Rpleas_acq	CS_A	CPPC	ZHHZ	DXXD	YFFY	LWWL	JQQJ	genießen	träumen	gütig	küssen	sonnig	vertrauen	gemein	töten	gierig	krank	sterben	versagen	47pct	acq_USpleas_CSunple1_noRW	acq1_noRW	1	39	0	0	300	300	2000	0	0	0	1	blank2r.bmp	0	1	+	0	1	blank2r.bmp	252	1	DXXD	306	3	gütig	559	1	FEHLER	2598	1	Schneller!	2598	0	0	0	0	0	0	0	0	0	0	0	0	0	0	0	0	0	0	0	0	0	0	0	0	0	0	0	0	0	0	0	0	0
071019	12:23:03	12:25:36	152615	5.0.10.0	5_exp_noRW	38	Rpleas_acq	CS_A	CPPC	ZHHZ	DXXD	YFFY	LWWL	JQQJ	genießen	träumen	gütig	küssen	sonnig	vertrauen	gemein	töten	gierig	krank	sterben	versagen	47pct	acq_USpleas_CSpleas1_noRW	acq1_noRW	1	40	0	0	300	300	2000	0	0	0	1	blank2r.bmp	0	1	+	0	1	blank2r.bmp	252	1	CPPC	306	3	gütig	559	1	FEHLER	2598	1	Schneller!	2598	0	0	0	0	0	0	0	0	0	0	0	0	0	0	0	0	0	0	0	0	0	0	0	0	0	0	0	0	0	0	0	0	0
071019	12:23:03	12:25:40	156014	5.0.10.0	5_exp_noRW	38	Rpleas_acq	CS_A	CPPC	ZHHZ	DXXD	YFFY	LWWL	JQQJ	genießen	träumen	gütig	küssen	sonnig	vertrauen	gemein	töten	gierig	krank	sterben	versagen	47pct	acq_USpleas_CSpleas1_noRW	acq1_noRW	1	41	0	0	300	300	2000	0	0	0	1	blank2r.bmp	0	1	+	0	1	blank2r.bmp	252	1	CPPC	306	1	genießen	559	1	FEHLER	2598	1	Schneller!	2598	0	0	0	0	0	0	0	0	0	0	0	0	0	0	0	0	0	0	0	0	0	0	0	0	0	0	0	0	0	0	0	0	0
071019	12:23:03	12:25:43	159426	5.0.10.0	5_exp_noRW	38	Rpleas_acq	CS_A	CPPC	ZHHZ	DXXD	YFFY	LWWL	JQQJ	genießen	träumen	gütig	küssen	sonnig	vertrauen	gemein	töten	gierig	krank	sterben	versagen	53pct	acq_USunple_CSpleas2_noRW	acq1_noRW	1	42	0	0	300	300	2000	0	0	0	1	blank2r.bmp	0	1	+	0	1	blank2r.bmp	252	1	ZHHZ	306	1	krank	559	1	FEHLER	2598	1	Schneller!	2598	0	0	0	0	0	0	0	0	0	0	0	0	0	0	0	0	0	0	0	0	0	0	0	0	0	0	0	0	0	0	0	0	0
071019	12:23:03	12:25:46	162838	5.0.10.0	5_exp_noRW	38	Rpleas_acq	CS_A	CPPC	ZHHZ	DXXD	YFFY	LWWL	JQQJ	genießen	träumen	gütig	küssen	sonnig	vertrauen	gemein	töten	gierig	krank	sterben	versagen	47pct	acq_USpleas_CSpleas1_noRW	acq1_noRW	1	43	0	0	300	300	2000	0	0	0	1	blank2r.bmp	0	1	+	0	1	blank2r.bmp	252	1	CPPC	306	2	träumen	559	1	FEHLER	2598	1	Schneller!	2598	0	0	0	0	0	0	0	0	0	0	0	0	0	0	0	0	0	0	0	0	0	0	0	0	0	0	0	0	0	0	0	0	0
071019	12:23:03	12:25:50	166250	5.0.10.0	5_exp_noRW	38	Rpleas_acq	CS_A	CPPC	ZHHZ	DXXD	YFFY	LWWL	JQQJ	genießen	träumen	gütig	küssen	sonnig	vertrauen	gemein	töten	gierig	krank	sterben	versagen	53pct	acq_USpleas_CSpleas1_noRW	acq1_noRW	1	44	0	0	300	300	2000	0	0	0	1	blank2r.bmp	0	1	+	0	1	blank2r.bmp	252	1	CPPC	306	1	genießen	559	1	FEHLER	2598	1	Schneller!	2598	0	0	0	0	0	0	0	0	0	0	0	0	0	0	0	0	0	0	0	0	0	0	0	0	0	0	0	0	0	0	0	0	0
071019	12:23:03	12:25:53	169115	5.0.10.0	5_exp_noRW	38	Rpleas_acq	CS_A	CPPC	ZHHZ	DXXD	YFFY	LWWL	JQQJ	genießen	träumen	gütig	küssen	sonnig	vertrauen	gemein	töten	gierig	krank	sterben	versagen	53pct	acq_USunple_CSunple2_noRW	acq1_noRW	1	45	0	0	300	300	1964	46	0	1	1	blank2r.bmp	0	1	+	0	1	blank2r.bmp	252	1	YFFY	306	2	sterben	559	0	0	0	0	0	0	0	0	0	0	0	0	0	0	0	0	0	0	0	0	0	0	0	0	0	0	0	0	0	0	0	0	0	0	0	0	0	0	0
071019	12:23:03	12:25:56	172087	5.0.10.0	5_exp_noRW	38	Rpleas_acq	CS_A	CPPC	ZHHZ	DXXD	YFFY	LWWL	JQQJ	genießen	träumen	gütig	küssen	sonnig	vertrauen	gemein	töten	gierig	krank	sterben	versagen	53pct	acq_USunple_CSunple1_noRW	acq1_noRW	1	46	0	0	300	300	1809	46	0	1	1	blank2r.bmp	0	1	+	0	1	blank2r.bmp	252	1	DXXD	306	2	töten	559	0	0	0	0	0	0	0	0	0	0	0	0	0	0	0	0	0	0	0	0	0	0	0	0	0	0	0	0	0	0	0	0	0	0	0	0	0	0	0
071019	12:23:03	12:25:59	175792	5.0.10.0	5_exp_noRW	38	Rpleas_acq	CS_A	CPPC	ZHHZ	DXXD	YFFY	LWWL	JQQJ	genießen	träumen	gütig	küssen	sonnig	vertrauen	gemein	töten	gierig	krank	sterben	versagen	47pct	acq_USunple_CSpleas1_noRW	acq1_noRW	1	47	0	0	300	300	2000	0	0	0	1	blank2r.bmp	0	1	+	0	1	blank2r.bmp	252	1	CPPC	306	1	gemein	559	1	FEHLER	2598	1	Schneller!	2598	0	0	0	0	0	0	0	0	0	0	0	0	0	0	0	0	0	0	0	0	0	0	0	0	0	0	0	0	0	0	0	0	0
071019	12:23:03	12:26:03	179218	5.0.10.0	5_exp_noRW	38	Rpleas_acq	CS_A	CPPC	ZHHZ	DXXD	YFFY	LWWL	JQQJ	genießen	träumen	gütig	küssen	sonnig	vertrauen	gemein	töten	gierig	krank	sterben	versagen	47pct	acq_USpleas_CSpleas2_noRW	acq1_noRW	1	48	0	0	300	300	2000	0	0	0	1	blank2r.bmp	0	1	+	0	1	blank2r.bmp	252	1	ZHHZ	306	1	küssen	559	1	FEHLER	2598	1	Schneller!	2598	0	0	0	0	0	0	0	0	0	0	0	0	0	0	0	0	0	0	0	0	0	0	0	0	0	0	0	0	0	0	0	0	0
071019	12:23:03	12:26:05	180937	5.0.10.0	5_exp_noRW	38	Rpleas_acq	CS_A	CPPC	ZHHZ	DXXD	YFFY	LWWL	JQQJ	genießen	träumen	gütig	küssen	sonnig	vertrauen	gemein	töten	gierig	krank	sterben	versagen	47pct	acq_USpleas_CSpleas1_noRW	acq1_noRW	1	49	0	0	300	300	616	46	0	0	1	blank2r.bmp	0	1	+	0	1	blank2r.bmp	252	1	CPPC	306	3	gütig	559	1	FEHLER	1212	0	0	0	0	0	0	0	0	0	0	0	0	0	0	0	0	0	0	0	0	0	0	0	0	0	0	0	0	0	0	0	0	0	0	0	0
071019	12:23:03	12:26:08	184415	5.0.10.0	5_exp_noRW	38	Rpleas_acq	CS_A	CPPC	ZHHZ	DXXD	YFFY	LWWL	JQQJ	genießen	träumen	gütig	küssen	sonnig	vertrauen	gemein	töten	gierig	krank	sterben	versagen	53pct	acq_USunple_CSunple1_noRW	acq1_noRW	1	50	0	0	300	300	2000	0	0	0	1	blank2r.bmp	0	1	+	0	1	blank2r.bmp	252	1	DXXD	306	2	töten	559	1	FEHLER	2598	1	Schneller!	2598	0	0	0	0	0	0	0	0	0	0	0	0	0	0	0	0	0	0	0	0	0	0	0	0	0	0	0	0	0	0	0	0	0
071019	12:23:03	12:26:11	187814	5.0.10.0	5_exp_noRW	38	Rpleas_acq	CS_A	CPPC	ZHHZ	DXXD	YFFY	LWWL	JQQJ	genießen	träumen	gütig	küssen	sonnig	vertrauen	gemein	töten	gierig	krank	sterben	versagen	53pct	acq_USunple_CSunple1_noRW	acq1_noRW	1	51	0	0	300	300	2000	0	0	0	1	blank2r.bmp	0	1	+	0	1	blank2r.bmp	252	1	DXXD	306	3	gierig	559	1	FEHLER	2598	1	Schneller!	2598	0	0	0	0	0	0	0	0	0	0	0	0	0	0	0	0	0	0	0	0	0	0	0	0	0	0	0	0	0	0	0	0	0
071019	12:23:03	12:26:15	191213	5.0.10.0	5_exp_noRW	38	Rpleas_acq	CS_A	CPPC	ZHHZ	DXXD	YFFY	LWWL	JQQJ	genießen	träumen	gütig	küssen	sonnig	vertrauen	gemein	töten	gierig	krank	sterben	versagen	47pct	acq_USpleas_CSpleas2_noRW	acq1_noRW	1	52	0	0	300	300	2000	0	0	0	1	blank2r.bmp	0	1	+	0	1	blank2r.bmp	252	1	ZHHZ	306	1	küssen	559	1	FEHLER	2598	1	Schneller!	2598	0	0	0	0	0	0	0	0	0	0	0	0	0	0	0	0	0	0	0	0	0	0	0	0	0	0	0	0	0	0	0	0	0
071019	12:23:03	12:26:18	194638	5.0.10.0	5_exp_noRW	38	Rpleas_acq	CS_A	CPPC	ZHHZ	DXXD	YFFY	LWWL	JQQJ	genießen	träumen	gütig	küssen	sonnig	vertrauen	gemein	töten	gierig	krank	sterben	versagen	53pct	acq_USunple_CSunple1_noRW	acq1_noRW	1	53	0	0	300	300	2000	0	0	0	1	blank2r.bmp	0	1	+	0	1	blank2r.bmp	252	1	DXXD	306	1	gemein	559	1	FEHLER	2598	1	Schneller!	2598	0	0	0	0	0	0	0	0	0	0	0	0	0	0	0	0	0	0	0	0	0	0	0	0	0	0	0	0	0	0	0	0	0
071019	12:23:03	12:26:22	198050	5.0.10.0	5_exp_noRW	38	Rpleas_acq	CS_A	CPPC	ZHHZ	DXXD	YFFY	LWWL	JQQJ	genießen	träumen	gütig	küssen	sonnig	vertrauen	gemein	töten	gierig	krank	sterben	versagen	53pct	acq_USunple_CSunple2_noRW	acq1_noRW	1	54	0	0	300	300	2000	0	0	0	1	blank2r.bmp	0	1	+	0	1	blank2r.bmp	252	1	YFFY	306	1	krank	559	1	FEHLER	2598	1	Schneller!	2598	0	0	0	0	0	0	0	0	0	0	0	0	0	0	0	0	0	0	0	0	0	0	0	0	0	0	0	0	0	0	0	0	0
071019	12:23:03	12:26:25	201462	5.0.10.0	5_exp_noRW	38	Rpleas_acq	CS_A	CPPC	ZHHZ	DXXD	YFFY	LWWL	JQQJ	genießen	träumen	gütig	küssen	sonnig	vertrauen	gemein	töten	gierig	krank	sterben	versagen	47pct	acq_USpleas_CSpleas2_noRW	acq1_noRW	1	55	0	0	300	300	2000	0	0	0	1	blank2r.bmp	0	1	+	0	1	blank2r.bmp	252	1	ZHHZ	306	3	vertrauen	559	1	FEHLER	2598	1	Schneller!	2598	0	0	0	0	0	0	0	0	0	0	0	0	0	0	0	0	0	0	0	0	0	0	0	0	0	0	0	0	0	0	0	0	0
071019	12:23:03	12:26:28	204874	5.0.10.0	5_exp_noRW	38	Rpleas_acq	CS_A	CPPC	ZHHZ	DXXD	YFFY	LWWL	JQQJ	genießen	träumen	gütig	küssen	sonnig	vertrauen	gemein	töten	gierig	krank	sterben	versagen	53pct	acq_USunple_CSunple2_noRW	acq1_noRW	1	56	0	0	300	300	2000	0	0	0	1	blank2r.bmp	0	1	+	0	1	blank2r.bmp	252	1	YFFY	306	2	sterben	559	1	FEHLER	2598	1	Schneller!	2598	0	0	0	0	0	0	0	0	0	0	0	0	0	0	0	0	0	0	0	0	0	0	0	0	0	0	0	0	0	0	0	0	0
071019	12:23:03	12:26:32	208299	5.0.10.0	5_exp_noRW	38	Rpleas_acq	CS_A	CPPC	ZHHZ	DXXD	YFFY	LWWL	JQQJ	genießen	träumen	gütig	küssen	sonnig	vertrauen	gemein	töten	gierig	krank	sterben	versagen	53pct	acq_USpleas_CSpleas2_noRW	acq1_noRW	1	57	0	0	300	300	2000	0	0	0	1	blank2r.bmp	0	1	+	0	1	blank2r.bmp	252	1	ZHHZ	306	2	sonnig	559	1	FEHLER	2598	1	Schneller!	2598	0	0	0	0	0	0	0	0	0	0	0	0	0	0	0	0	0	0	0	0	0	0	0	0	0	0	0	0	0	0	0	0	0
071019	12:23:03	12:26:35	211711	5.0.10.0	5_exp_noRW	38	Rpleas_acq	CS_A	CPPC	ZHHZ	DXXD	YFFY	LWWL	JQQJ	genießen	träumen	gütig	küssen	sonnig	vertrauen	gemein	töten	gierig	krank	sterben	versagen	53pct	acq_USunple_CSunple2_noRW	acq1_noRW	1	58	0	0	300	300	2000	0	0	0	1	blank2r.bmp	0	1	+	0	1	blank2r.bmp	252	1	YFFY	306	3	versagen	559	1	FEHLER	2598	1	Schneller!	2598	0	0	0	0	0	0	0	0	0	0	0	0	0	0	0	0	0	0	0	0	0	0	0	0	0	0	0	0	0	0	0	0	0
071019	12:23:03	12:26:39	215123	5.0.10.0	5_exp_noRW	38	Rpleas_acq	CS_A	CPPC	ZHHZ	DXXD	YFFY	LWWL	JQQJ	genießen	träumen	gütig	küssen	sonnig	vertrauen	gemein	töten	gierig	krank	sterben	versagen	47pct	acq_USpleas_CSunple1_noRW	acq1_noRW	1	59	0	0	300	300	2000	0	0	0	1	blank2r.bmp	0	1	+	0	1	blank2r.bmp	252	1	DXXD	306	1	genießen	559	1	FEHLER	2598	1	Schneller!	2598	0	0	0	0	0	0	0	0	0	0	0	0	0	0	0	0	0	0	0	0	0	0	0	0	0	0	0	0	0	0	0	0	0
071019	12:23:03	12:26:42	218534	5.0.10.0	5_exp_noRW	38	Rpleas_acq	CS_A	CPPC	ZHHZ	DXXD	YFFY	LWWL	JQQJ	genießen	träumen	gütig	küssen	sonnig	vertrauen	gemein	töten	gierig	krank	sterben	versagen	53pct	acq_USpleas_CSunple2_noRW	acq1_noRW	1	60	0	0	300	300	2000	0	0	0	1	blank2r.bmp	0	1	+	0	1	blank2r.bmp	252	1	YFFY	306	3	vertrauen	559	1	FEHLER	2598	1	Schneller!	2598	0	0	0	0	0	0	0	0	0	0	0	0	0	0	0	0	0	0	0	0	0	0	0	0	0	0	0	0	0	0	0	0	0
071019	12:23:03	12:26:46	221960	5.0.10.0	5_exp_noRW	38	Rpleas_acq	CS_A	CPPC	ZHHZ	DXXD	YFFY	LWWL	JQQJ	genießen	träumen	gütig	küssen	sonnig	vertrauen	gemein	töten	gierig	krank	sterben	versagen	47pct	acq_USunple_CSunple1_noRW	acq1_noRW	1	61	0	0	300	300	2000	0	0	0	1	blank2r.bmp	0	1	+	0	1	blank2r.bmp	252	1	DXXD	306	2	töten	559	1	FEHLER	2598	1	Schneller!	2598	0	0	0	0	0	0	0	0	0	0	0	0	0	0	0	0	0	0	0	0	0	0	0	0	0	0	0	0	0	0	0	0	0
071019	12:23:03	12:26:49	225372	5.0.10.0	5_exp_noRW	38	Rpleas_acq	CS_A	CPPC	ZHHZ	DXXD	YFFY	LWWL	JQQJ	genießen	träumen	gütig	küssen	sonnig	vertrauen	gemein	töten	gierig	krank	sterben	versagen	53pct	acq_USunple_CSpleas2_noRW	acq1_noRW	1	62	0	0	300	300	2000	0	0	0	1	blank2r.bmp	0	1	+	0	1	blank2r.bmp	252	1	ZHHZ	306	1	krank	559	1	FEHLER	2598	1	Schneller!	2598	0	0	0	0	0	0	0	0	0	0	0	0	0	0	0	0	0	0	0	0	0	0	0	0	0	0	0	0	0	0	0	0	0
071019	12:23:03	12:26:52	228784	5.0.10.0	5_exp_noRW	38	Rpleas_acq	CS_A	CPPC	ZHHZ	DXXD	YFFY	LWWL	JQQJ	genießen	träumen	gütig	küssen	sonnig	vertrauen	gemein	töten	gierig	krank	sterben	versagen	47pct	acq_USunple_CSunple1_noRW	acq1_noRW	1	63	0	0	300	300	2000	0	0	0	1	blank2r.bmp	0	1	+	0	1	blank2r.bmp	252	1	DXXD	306	3	gierig	559	1	FEHLER	2598	1	Schneller!	2598	0	0	0	0	0	0	0	0	0	0	0	0	0	0	0	0	0	0	0	0	0	0	0	0	0	0	0	0	0	0	0	0	0
071019	12:23:03	12:26:56	232209	5.0.10.0	5_exp_noRW	38	Rpleas_acq	CS_A	CPPC	ZHHZ	DXXD	YFFY	LWWL	JQQJ	genießen	träumen	gütig	küssen	sonnig	vertrauen	gemein	töten	gierig	krank	sterben	versagen	47pct	acq_USunple_CSunple2_noRW	acq1_noRW	1	64	0	0	300	300	2000	0	0	0	1	blank2r.bmp	0	1	+	0	1	blank2r.bmp	252	1	YFFY	306	3	versagen	559	1	FEHLER	2598	1	Schneller!	2598	0	0	0	0	0	0	0	0	0	0	0	0	0	0	0	0	0	0	0	0	0	0	0	0	0	0	0	0	0	0	0	0	0
071019	12:23:03	12:26:58	234315	5.0.10.0	5_exp_noRW	38	Rpleas_acq	CS_A	CPPC	ZHHZ	DXXD	YFFY	LWWL	JQQJ	genießen	träumen	gütig	küssen	sonnig	vertrauen	gemein	töten	gierig	krank	sterben	versagen	53pct	acq_USpleas_CSpleas1_noRW	acq1_noRW	1	65	0	0	300	300	990	46	0	0	1	blank2r.bmp	0	1	+	0	1	blank2r.bmp	252	1	CPPC	306	2	träumen	559	1	FEHLER	1585	0	0	0	0	0	0	0	0	0	0	0	0	0	0	0	0	0	0	0	0	0	0	0	0	0	0	0	0	0	0	0	0	0	0	0	0
071019	12:23:03	12:27:00	236087	5.0.10.0	5_exp_noRW	38	Rpleas_acq	CS_A	CPPC	ZHHZ	DXXD	YFFY	LWWL	JQQJ	genießen	träumen	gütig	küssen	sonnig	vertrauen	gemein	töten	gierig	krank	sterben	versagen	53pct	acq_USpleas_CSpleas1_noRW	acq1_noRW	1	66	0	0	300	300	599	46	0	0	1	blank2r.bmp	0	1	+	0	1	blank2r.bmp	252	1	CPPC	306	3	gütig	559	1	FEHLER	1199	0	0	0	0	0	0	0	0	0	0	0	0	0	0	0	0	0	0	0	0	0	0	0	0	0	0	0	0	0	0	0	0	0	0	0	0
071019	12:23:03	12:27:01	237140	5.0.10.0	5_exp_noRW	38	Rpleas_acq	CS_A	CPPC	ZHHZ	DXXD	YFFY	LWWL	JQQJ	genießen	träumen	gütig	küssen	sonnig	vertrauen	gemein	töten	gierig	krank	sterben	versagen	53pct	acq_USunple_CSpleas1_noRW	acq1_noRW	1	67	0	0	300	300	104	46	0	1	1	blank2r.bmp	0	1	+	0	1	blank2r.bmp	252	1	CPPC	306	2	töten	559	0	0	0	0	0	0	0	0	0	0	0	0	0	0	0	0	0	0	0	0	0	0	0	0	0	0	0	0	0	0	0	0	0	0	0	0	0	0	0
071019	12:23:03	12:27:02	238819	5.0.10.0	5_exp_noRW	38	Rpleas_acq	CS_A	CPPC	ZHHZ	DXXD	YFFY	LWWL	JQQJ	genießen	träumen	gütig	küssen	sonnig	vertrauen	gemein	töten	gierig	krank	sterben	versagen	53pct	acq_USpleas_CSpleas1_noRW	acq1_noRW	1	68	0	0	300	300	278	46	0	0	1	blank2r.bmp	0	1	+	0	1	blank2r.bmp	252	1	CPPC	306	1	genießen	559	1	FEHLER	879	0	0	0	0	0	0	0	0	0	0	0	0	0	0	0	0	0	0	0	0	0	0	0	0	0	0	0	0	0	0	0	0	0	0	0	0
071019	12:23:03	12:27:06	242298	5.0.10.0	5_exp_noRW	38	Rpleas_acq	CS_A	CPPC	ZHHZ	DXXD	YFFY	LWWL	JQQJ	genießen	träumen	gütig	küssen	sonnig	vertrauen	gemein	töten	gierig	krank	sterben	versagen	53pct	acq_USpleas_CSpleas2_noRW	acq1_noRW	1	69	0	0	300	300	2000	0	0	0	1	blank2r.bmp	0	1	+	0	1	blank2r.bmp	252	1	ZHHZ	306	3	vertrauen	559	1	FEHLER	2598	1	Schneller!	2598	0	0	0	0	0	0	0	0	0	0	0	0	0	0	0	0	0	0	0	0	0	0	0	0	0	0	0	0	0	0	0	0	0
071019	12:23:03	12:27:09	245710	5.0.10.0	5_exp_noRW	38	Rpleas_acq	CS_A	CPPC	ZHHZ	DXXD	YFFY	LWWL	JQQJ	genießen	träumen	gütig	küssen	sonnig	vertrauen	gemein	töten	gierig	krank	sterben	versagen	53pct	acq_USunple_CSunple1_noRW	acq1_noRW	1	70	0	0	300	300	2000	0	0	0	1	blank2r.bmp	0	1	+	0	1	blank2r.bmp	252	1	DXXD	306	1	gemein	559	1	FEHLER	2598	1	Schneller!	2598	0	0	0	0	0	0	0	0	0	0	0	0	0	0	0	0	0	0	0	0	0	0	0	0	0	0	0	0	0	0	0	0	0
071019	12:23:03	12:27:13	249122	5.0.10.0	5_exp_noRW	38	Rpleas_acq	CS_A	CPPC	ZHHZ	DXXD	YFFY	LWWL	JQQJ	genießen	träumen	gütig	küssen	sonnig	vertrauen	gemein	töten	gierig	krank	sterben	versagen	47pct	acq_USunple_CSunple1_noRW	acq1_noRW	1	71	0	0	300	300	2000	0	0	0	1	blank2r.bmp	0	1	+	0	1	blank2r.bmp	252	1	DXXD	306	2	töten	559	1	FEHLER	2598	1	Schneller!	2598	0	0	0	0	0	0	0	0	0	0	0	0	0	0	0	0	0	0	0	0	0	0	0	0	0	0	0	0	0	0	0	0	0
071019	12:23:03	12:27:15	251001	5.0.10.0	5_exp_noRW	38	Rpleas_acq	CS_A	CPPC	ZHHZ	DXXD	YFFY	LWWL	JQQJ	genießen	träumen	gütig	küssen	sonnig	vertrauen	gemein	töten	gierig	krank	sterben	versagen	47pct	acq_USpleas_CSpleas1_noRW	acq1_noRW	1	72	0	0	300	300	773	46	0	0	1	blank2r.bmp	0	1	+	0	1	blank2r.bmp	252	1	CPPC	306	2	träumen	559	1	FEHLER	1372	0	0	0	0	0	0	0	0	0	0	0	0	0	0	0	0	0	0	0	0	0	0	0	0	0	0	0	0	0	0	0	0	0	0	0	0
071019	12:23:03	12:27:18	254493	5.0.10.0	5_exp_noRW	38	Rpleas_acq	CS_A	CPPC	ZHHZ	DXXD	YFFY	LWWL	JQQJ	genießen	träumen	gütig	küssen	sonnig	vertrauen	gemein	töten	gierig	krank	sterben	versagen	53pct	acq_USpleas_CSpleas2_noRW	acq1_noRW	1	73	0	0	300	300	2000	0	0	0	1	blank2r.bmp	0	1	+	0	1	blank2r.bmp	252	1	ZHHZ	306	2	sonnig	559	1	FEHLER	2598	1	Schneller!	2598	0	0	0	0	0	0	0	0	0	0	0	0	0	0	0	0	0	0	0	0	0	0	0	0	0	0	0	0	0	0	0	0	0
071019	12:23:03	12:27:22	257905	5.0.10.0	5_exp_noRW	38	Rpleas_acq	CS_A	CPPC	ZHHZ	DXXD	YFFY	LWWL	JQQJ	genießen	träumen	gütig	küssen	sonnig	vertrauen	gemein	töten	gierig	krank	sterben	versagen	53pct	acq_USunple_CSunple2_noRW	acq1_noRW	1	74	0	0	300	300	2000	0	0	0	1	blank2r.bmp	0	1	+	0	1	blank2r.bmp	252	1	YFFY	306	2	sterben	559	1	FEHLER	2598	1	Schneller!	2598	0	0	0	0	0	0	0	0	0	0	0	0	0	0	0	0	0	0	0	0	0	0	0	0	0	0	0	0	0	0	0	0	0
071019	12:23:03	12:27:25	261317	5.0.10.0	5_exp_noRW	38	Rpleas_acq	CS_A	CPPC	ZHHZ	DXXD	YFFY	LWWL	JQQJ	genießen	träumen	gütig	küssen	sonnig	vertrauen	gemein	töten	gierig	krank	sterben	versagen	47pct	acq_USpleas_CSpleas2_noRW	acq1_noRW	1	75	0	0	300	300	2000	0	0	0	1	blank2r.bmp	0	1	+	0	1	blank2r.bmp	252	1	ZHHZ	306	1	küssen	559	1	FEHLER	2598	1	Schneller!	2598	0	0	0	0	0	0	0	0	0	0	0	0	0	0	0	0	0	0	0	0	0	0	0	0	0	0	0	0	0	0	0	0	0
071019	12:23:03	12:27:28	264742	5.0.10.0	5_exp_noRW	38	Rpleas_acq	CS_A	CPPC	ZHHZ	DXXD	YFFY	LWWL	JQQJ	genießen	träumen	gütig	küssen	sonnig	vertrauen	gemein	töten	gierig	krank	sterben	versagen	53pct	acq_USpleas_CSpleas2_noRW	acq1_noRW	1	76	0	0	300	300	2000	0	0	0	1	blank2r.bmp	0	1	+	0	1	blank2r.bmp	252	1	ZHHZ	306	3	vertrauen	559	1	FEHLER	2598	1	Schneller!	2598	0	0	0	0	0	0	0	0	0	0	0	0	0	0	0	0	0	0	0	0	0	0	0	0	0	0	0	0	0	0	0	0	0
071019	12:23:03	12:27:32	268154	5.0.10.0	5_exp_noRW	38	Rpleas_acq	CS_A	CPPC	ZHHZ	DXXD	YFFY	LWWL	JQQJ	genießen	träumen	gütig	küssen	sonnig	vertrauen	gemein	töten	gierig	krank	sterben	versagen	53pct	acq_USpleas_CSunple2_noRW	acq1_noRW	1	77	0	0	300	300	2000	0	0	0	1	blank2r.bmp	0	1	+	0	1	blank2r.bmp	252	1	YFFY	306	2	sonnig	559	1	FEHLER	2598	1	Schneller!	2598	0	0	0	0	0	0	0	0	0	0	0	0	0	0	0	0	0	0	0	0	0	0	0	0	0	0	0	0	0	0	0	0	0
071019	12:23:03	12:27:35	271566	5.0.10.0	5_exp_noRW	38	Rpleas_acq	CS_A	CPPC	ZHHZ	DXXD	YFFY	LWWL	JQQJ	genießen	träumen	gütig	küssen	sonnig	vertrauen	gemein	töten	gierig	krank	sterben	versagen	53pct	acq_USpleas_CSunple1_noRW	acq1_noRW	1	78	0	0	300	300	2000	0	0	0	1	blank2r.bmp	0	1	+	0	1	blank2r.bmp	252	1	DXXD	306	3	gütig	559	1	FEHLER	2598	1	Schneller!	2598	0	0	0	0	0	0	0	0	0	0	0	0	0	0	0	0	0	0	0	0	0	0	0	0	0	0	0	0	0	0	0	0	0
071019	12:23:03	12:27:39	274978	5.0.10.0	5_exp_noRW	38	Rpleas_acq	CS_A	CPPC	ZHHZ	DXXD	YFFY	LWWL	JQQJ	genießen	träumen	gütig	küssen	sonnig	vertrauen	gemein	töten	gierig	krank	sterben	versagen	53pct	acq_USunple_CSunple2_noRW	acq1_noRW	1	79	0	0	300	300	2000	0	0	0	1	blank2r.bmp	0	1	+	0	1	blank2r.bmp	252	1	YFFY	306	1	krank	559	1	FEHLER	2598	1	Schneller!	2598	0	0	0	0	0	0	0	0	0	0	0	0	0	0	0	0	0	0	0	0	0	0	0	0	0	0	0	0	0	0	0	0	0
071019	12:23:03	12:27:42	278403	5.0.10.0	5_exp_noRW	38	Rpleas_acq	CS_A	CPPC	ZHHZ	DXXD	YFFY	LWWL	JQQJ	genießen	träumen	gütig	küssen	sonnig	vertrauen	gemein	töten	gierig	krank	sterben	versagen	47pct	acq_USunple_CSunple2_noRW	acq1_noRW	1	80	0	0	300	300	2000	0	0	0	1	blank2r.bmp	0	1	+	0	1	blank2r.bmp	252	1	YFFY	306	2	sterben	559	1	FEHLER	2598	1	Schneller!	2598	0	0	0	0	0	0	0	0	0	0	0	0	0	0	0	0	0	0	0	0	0	0	0	0	0	0	0	0	0	0	0	0	0
071019	12:23:03	12:28:08	304845	5.0.10.0	5_exp_noRW	38	Rpleas_acq	CS_A	CPPC	ZHHZ	DXXD	YFFY	LWWL	JQQJ	genießen	träumen	gütig	küssen	sonnig	vertrauen	gemein	töten	gierig	krank	sterben	versagen	47pct	acq_USpleas_CSpleas2_noRW	acq23456_noRW	2	1	0	0	300	300	2000	0	0	0	1	blank2r.bmp	0	1	+	0	1	blank2r.bmp	252	1	ZHHZ	306	1	küssen	559	1	FEHLER	2598	1	Schneller!	2598	0	0	0	0	0	0	0	0	0	0	0	0	0	0	0	0	0	0	0	0	0	0	0	0	0	0	0	0	0	0	0	0	0
071019	12:23:03	12:28:12	308244	5.0.10.0	5_exp_noRW	38	Rpleas_acq	CS_A	CPPC	ZHHZ	DXXD	YFFY	LWWL	JQQJ	genießen	träumen	gütig	küssen	sonnig	vertrauen	gemein	töten	gierig	krank	sterben	versagen	47pct	acq_USunple_CSpleas2_noRW	acq23456_noRW	2	2	0	0	300	300	2000	0	0	0	1	blank2r.bmp	0	1	+	0	1	blank2r.bmp	252	1	ZHHZ	306	2	sterben	559	1	FEHLER	2598	1	Schneller!	2598	0	0	0	0	0	0	0	0	0	0	0	0	0	0	0	0	0	0	0	0	0	0	0	0	0	0	0	0	0	0	0	0	0
071019	12:23:03	12:28:15	311655	5.0.10.0	5_exp_noRW	38	Rpleas_acq	CS_A	CPPC	ZHHZ	DXXD	YFFY	LWWL	JQQJ	genießen	träumen	gütig	küssen	sonnig	vertrauen	gemein	töten	gierig	krank	sterben	versagen	53pct	acq_USunple_CSunple2_noRW	acq23456_noRW	2	3	0	0	300	300	2000	0	0	0	1	blank2r.bmp	0	1	+	0	1	blank2r.bmp	252	1	YFFY	306	1	krank	559	1	FEHLER	2598	1	Schneller!	2598	0	0	0	0	0	0	0	0	0	0	0	0	0	0	0	0	0	0	0	0	0	0	0	0	0	0	0	0	0	0	0	0	0
071019	12:23:03	12:28:19	315081	5.0.10.0	5_exp_noRW	38	Rpleas_acq	CS_A	CPPC	ZHHZ	DXXD	YFFY	LWWL	JQQJ	genießen	träumen	gütig	küssen	sonnig	vertrauen	gemein	töten	gierig	krank	sterben	versagen	53pct	acq_USunple_CSunple2_noRW	acq23456_noRW	2	4	0	0	300	300	2000	0	0	0	1	blank2r.bmp	0	1	+	0	1	blank2r.bmp	252	1	YFFY	306	3	versagen	559	1	FEHLER	2598	1	Schneller!	2598	0	0	0	0	0	0	0	0	0	0	0	0	0	0	0	0	0	0	0	0	0	0	0	0	0	0	0	0	0	0	0	0	0
071019	12:23:03	12:28:22	318493	5.0.10.0	5_exp_noRW	38	Rpleas_acq	CS_A	CPPC	ZHHZ	DXXD	YFFY	LWWL	JQQJ	genießen	träumen	gütig	küssen	sonnig	vertrauen	gemein	töten	gierig	krank	sterben	versagen	47pct	acq_USpleas_CSunple2_noRW	acq23456_noRW	2	5	0	0	300	300	2000	0	0	0	1	blank2r.bmp	0	1	+	0	1	blank2r.bmp	252	1	YFFY	306	1	küssen	559	1	FEHLER	2598	1	Schneller!	2598	0	0	0	0	0	0	0	0	0	0	0	0	0	0	0	0	0	0	0	0	0	0	0	0	0	0	0	0	0	0	0	0	0
071019	12:23:03	12:28:26	321905	5.0.10.0	5_exp_noRW	38	Rpleas_acq	CS_A	CPPC	ZHHZ	DXXD	YFFY	LWWL	JQQJ	genießen	träumen	gütig	küssen	sonnig	vertrauen	gemein	töten	gierig	krank	sterben	versagen	53pct	acq_USpleas_CSpleas2_noRW	acq23456_noRW	2	6	0	0	300	300	2000	0	0	0	1	blank2r.bmp	0	1	+	0	1	blank2r.bmp	252	1	ZHHZ	306	2	sonnig	559	1	FEHLER	2598	1	Schneller!	2598	0	0	0	0	0	0	0	0	0	0	0	0	0	0	0	0	0	0	0	0	0	0	0	0	0	0	0	0	0	0	0	0	0
071019	12:23:03	12:28:27	323610	5.0.10.0	5_exp_noRW	38	Rpleas_acq	CS_A	CPPC	ZHHZ	DXXD	YFFY	LWWL	JQQJ	genießen	träumen	gütig	küssen	sonnig	vertrauen	gemein	töten	gierig	krank	sterben	versagen	53pct	acq_USunple_CSpleas1_noRW	acq23456_noRW	2	7	0	0	300	300	807	46	0	1	1	blank2r.bmp	0	1	+	0	1	blank2r.bmp	252	1	CPPC	306	3	gierig	559	0	0	0	0	0	0	0	0	0	0	0	0	0	0	0	0	0	0	0	0	0	0	0	0	0	0	0	0	0	0	0	0	0	0	0	0	0	0	0
071019	12:23:03	12:28:31	327316	5.0.10.0	5_exp_noRW	38	Rpleas_acq	CS_A	CPPC	ZHHZ	DXXD	YFFY	LWWL	JQQJ	genießen	träumen	gütig	küssen	sonnig	vertrauen	gemein	töten	gierig	krank	sterben	versagen	47pct	acq_USpleas_CSpleas2_noRW	acq23456_noRW	2	8	0	0	300	300	2000	0	0	0	1	blank2r.bmp	0	1	+	0	1	blank2r.bmp	252	1	ZHHZ	306	1	küssen	559	1	FEHLER	2598	1	Schneller!	2598	0	0	0	0	0	0	0	0	0	0	0	0	0	0	0	0	0	0	0	0	0	0	0	0	0	0	0	0	0	0	0	0	0
071019	12:23:03	12:28:34	330727	5.0.10.0	5_exp_noRW	38	Rpleas_acq	CS_A	CPPC	ZHHZ	DXXD	YFFY	LWWL	JQQJ	genießen	träumen	gütig	küssen	sonnig	vertrauen	gemein	töten	gierig	krank	sterben	versagen	53pct	acq_USunple_CSunple1_noRW	acq23456_noRW	2	9	0	0	300	300	2000	0	0	0	1	blank2r.bmp	0	1	+	0	1	blank2r.bmp	252	1	DXXD	306	1	gemein	559	1	FEHLER	2598	1	Schneller!	2598	0	0	0	0	0	0	0	0	0	0	0	0	0	0	0	0	0	0	0	0	0	0	0	0	0	0	0	0	0	0	0	0	0
071019	12:23:03	12:28:36	332647	5.0.10.0	5_exp_noRW	38	Rpleas_acq	CS_A	CPPC	ZHHZ	DXXD	YFFY	LWWL	JQQJ	genießen	träumen	gütig	küssen	sonnig	vertrauen	gemein	töten	gierig	krank	sterben	versagen	47pct	acq_USpleas_CSpleas1_noRW	acq23456_noRW	2	10	0	0	300	300	813	46	0	0	1	blank2r.bmp	0	1	+	0	1	blank2r.bmp	252	1	CPPC	306	1	genießen	559	1	FEHLER	1412	0	0	0	0	0	0	0	0	0	0	0	0	0	0	0	0	0	0	0	0	0	0	0	0	0	0	0	0	0	0	0	0	0	0	0	0
071019	12:23:03	12:28:38	334179	5.0.10.0	5_exp_noRW	38	Rpleas_acq	CS_A	CPPC	ZHHZ	DXXD	YFFY	LWWL	JQQJ	genießen	träumen	gütig	küssen	sonnig	vertrauen	gemein	töten	gierig	krank	sterben	versagen	47pct	acq_USpleas_CSpleas1_noRW	acq23456_noRW	2	11	0	0	300	300	361	46	0	0	1	blank2r.bmp	0	1	+	0	1	blank2r.bmp	252	1	CPPC	306	3	gütig	559	1	FEHLER	959	0	0	0	0	0	0	0	0	0	0	0	0	0	0	0	0	0	0	0	0	0	0	0	0	0	0	0	0	0	0	0	0	0	0	0	0
071019	12:23:03	12:28:41	337658	5.0.10.0	5_exp_noRW	38	Rpleas_acq	CS_A	CPPC	ZHHZ	DXXD	YFFY	LWWL	JQQJ	genießen	träumen	gütig	küssen	sonnig	vertrauen	gemein	töten	gierig	krank	sterben	versagen	53pct	acq_USunple_CSunple2_noRW	acq23456_noRW	2	12	0	0	300	300	2000	0	0	0	1	blank2r.bmp	0	1	+	0	1	blank2r.bmp	252	1	YFFY	306	1	krank	559	1	FEHLER	2598	1	Schneller!	2598	0	0	0	0	0	0	0	0	0	0	0	0	0	0	0	0	0	0	0	0	0	0	0	0	0	0	0	0	0	0	0	0	0
071019	12:23:03	12:28:45	341070	5.0.10.0	5_exp_noRW	38	Rpleas_acq	CS_A	CPPC	ZHHZ	DXXD	YFFY	LWWL	JQQJ	genießen	träumen	gütig	küssen	sonnig	vertrauen	gemein	töten	gierig	krank	sterben	versagen	53pct	acq_USunple_CSunple1_noRW	acq23456_noRW	2	13	0	0	300	300	2000	0	0	0	1	blank2r.bmp	0	1	+	0	1	blank2r.bmp	252	1	DXXD	306	3	gierig	559	1	FEHLER	2598	1	Schneller!	2598	0	0	0	0	0	0	0	0	0	0	0	0	0	0	0	0	0	0	0	0	0	0	0	0	0	0	0	0	0	0	0	0	0
071019	12:23:03	12:28:48	344482	5.0.10.0	5_exp_noRW	38	Rpleas_acq	CS_A	CPPC	ZHHZ	DXXD	YFFY	LWWL	JQQJ	genießen	träumen	gütig	küssen	sonnig	vertrauen	gemein	töten	gierig	krank	sterben	versagen	47pct	acq_USunple_CSunple2_noRW	acq23456_noRW	2	14	0	0	300	300	2000	0	0	0	1	blank2r.bmp	0	1	+	0	1	blank2r.bmp	252	1	YFFY	306	2	sterben	559	1	FEHLER	2598	1	Schneller!	2598	0	0	0	0	0	0	0	0	0	0	0	0	0	0	0	0	0	0	0	0	0	0	0	0	0	0	0	0	0	0	0	0	0
071019	12:23:03	12:28:50	346441	5.0.10.0	5_exp_noRW	38	Rpleas_acq	CS_A	CPPC	ZHHZ	DXXD	YFFY	LWWL	JQQJ	genießen	träumen	gütig	küssen	sonnig	vertrauen	gemein	töten	gierig	krank	sterben	versagen	47pct	acq_USpleas_CSpleas1_noRW	acq23456_noRW	2	15	0	0	300	300	841	46	0	0	1	blank2r.bmp	0	1	+	0	1	blank2r.bmp	252	1	CPPC	306	1	genießen	559	1	FEHLER	1439	0	0	0	0	0	0	0	0	0	0	0	0	0	0	0	0	0	0	0	0	0	0	0	0	0	0	0	0	0	0	0	0	0	0	0	0
071019	12:23:03	12:28:52	347880	5.0.10.0	5_exp_noRW	38	Rpleas_acq	CS_A	CPPC	ZHHZ	DXXD	YFFY	LWWL	JQQJ	genießen	träumen	gütig	küssen	sonnig	vertrauen	gemein	töten	gierig	krank	sterben	versagen	47pct	acq_USpleas_CSpleas1_noRW	acq23456_noRW	2	16	0	0	300	300	263	46	0	0	1	blank2r.bmp	0	1	+	0	1	blank2r.bmp	252	1	CPPC	306	3	gütig	559	1	FEHLER	852	0	0	0	0	0	0	0	0	0	0	0	0	0	0	0	0	0	0	0	0	0	0	0	0	0	0	0	0	0	0	0	0	0	0	0	0
071019	12:23:03	12:28:55	351346	5.0.10.0	5_exp_noRW	38	Rpleas_acq	CS_A	CPPC	ZHHZ	DXXD	YFFY	LWWL	JQQJ	genießen	träumen	gütig	küssen	sonnig	vertrauen	gemein	töten	gierig	krank	sterben	versagen	47pct	acq_USpleas_CSpleas2_noRW	acq23456_noRW	2	17	0	0	300	300	2000	0	0	0	1	blank2r.bmp	0	1	+	0	1	blank2r.bmp	252	1	ZHHZ	306	3	vertrauen	559	1	FEHLER	2598	1	Schneller!	2598	0	0	0	0	0	0	0	0	0	0	0	0	0	0	0	0	0	0	0	0	0	0	0	0	0	0	0	0	0	0	0	0	0
071019	12:23:03	12:28:58	354771	5.0.10.0	5_exp_noRW	38	Rpleas_acq	CS_A	CPPC	ZHHZ	DXXD	YFFY	LWWL	JQQJ	genießen	träumen	gütig	küssen	sonnig	vertrauen	gemein	töten	gierig	krank	sterben	versagen	53pct	acq_USpleas_CSunple1_noRW	acq23456_noRW	2	18	0	0	300	300	2000	0	0	0	1	blank2r.bmp	0	1	+	0	1	blank2r.bmp	252	1	DXXD	306	2	träumen	559	1	FEHLER	2598	1	Schneller!	2598	0	0	0	0	0	0	0	0	0	0	0	0	0	0	0	0	0	0	0	0	0	0	0	0	0	0	0	0	0	0	0	0	0
071019	12:23:03	12:29:02	358183	5.0.10.0	5_exp_noRW	38	Rpleas_acq	CS_A	CPPC	ZHHZ	DXXD	YFFY	LWWL	JQQJ	genießen	träumen	gütig	küssen	sonnig	vertrauen	gemein	töten	gierig	krank	sterben	versagen	47pct	acq_USunple_CSunple1_noRW	acq23456_noRW	2	19	0	0	300	300	2000	0	0	0	1	blank2r.bmp	0	1	+	0	1	blank2r.bmp	252	1	DXXD	306	3	gierig	559	1	FEHLER	2598	1	Schneller!	2598	0	0	0	0	0	0	0	0	0	0	0	0	0	0	0	0	0	0	0	0	0	0	0	0	0	0	0	0	0	0	0	0	0
071019	12:23:03	12:29:05	361595	5.0.10.0	5_exp_noRW	38	Rpleas_acq	CS_A	CPPC	ZHHZ	DXXD	YFFY	LWWL	JQQJ	genießen	träumen	gütig	küssen	sonnig	vertrauen	gemein	töten	gierig	krank	sterben	versagen	53pct	acq_USunple_CSunple1_noRW	acq23456_noRW	2	20	0	0	300	300	2000	0	0	0	1	blank2r.bmp	0	1	+	0	1	blank2r.bmp	252	1	DXXD	306	2	töten	559	1	FEHLER	2598	1	Schneller!	2598	0	0	0	0	0	0	0	0	0	0	0	0	0	0	0	0	0	0	0	0	0	0	0	0	0	0	0	0	0	0	0	0	0
071019	12:23:03	12:29:09	365007	5.0.10.0	5_exp_noRW	38	Rpleas_acq	CS_A	CPPC	ZHHZ	DXXD	YFFY	LWWL	JQQJ	genießen	träumen	gütig	küssen	sonnig	vertrauen	gemein	töten	gierig	krank	sterben	versagen	47pct	acq_USunple_CSpleas2_noRW	acq23456_noRW	2	21	0	0	300	300	2000	0	0	0	1	blank2r.bmp	0	1	+	0	1	blank2r.bmp	252	1	ZHHZ	306	3	versagen	559	1	FEHLER	2598	1	Schneller!	2598	0	0	0	0	0	0	0	0	0	0	0	0	0	0	0	0	0	0	0	0	0	0	0	0	0	0	0	0	0	0	0	0	0
071019	12:23:03	12:29:10	366646	5.0.10.0	5_exp_noRW	38	Rpleas_acq	CS_A	CPPC	ZHHZ	DXXD	YFFY	LWWL	JQQJ	genießen	träumen	gütig	küssen	sonnig	vertrauen	gemein	töten	gierig	krank	sterben	versagen	53pct	acq_USunple_CSpleas1_noRW	acq23456_noRW	2	22	0	0	300	300	744	46	0	1	1	blank2r.bmp	0	1	+	0	1	blank2r.bmp	252	1	CPPC	306	1	gemein	559	0	0	0	0	0	0	0	0	0	0	0	0	0	0	0	0	0	0	0	0	0	0	0	0	0	0	0	0	0	0	0	0	0	0	0	0	0	0	0
071019	12:23:03	12:29:14	370338	5.0.10.0	5_exp_noRW	38	Rpleas_acq	CS_A	CPPC	ZHHZ	DXXD	YFFY	LWWL	JQQJ	genießen	träumen	gütig	küssen	sonnig	vertrauen	gemein	töten	gierig	krank	sterben	versagen	47pct	acq_USunple_CSunple1_noRW	acq23456_noRW	2	23	0	0	300	300	2000	0	0	0	1	blank2r.bmp	0	1	+	0	1	blank2r.bmp	252	1	DXXD	306	1	gemein	559	1	FEHLER	2598	1	Schneller!	2598	0	0	0	0	0	0	0	0	0	0	0	0	0	0	0	0	0	0	0	0	0	0	0	0	0	0	0	0	0	0	0	0	0
071019	12:23:03	12:29:17	373749	5.0.10.0	5_exp_noRW	38	Rpleas_acq	CS_A	CPPC	ZHHZ	DXXD	YFFY	LWWL	JQQJ	genießen	träumen	gütig	küssen	sonnig	vertrauen	gemein	töten	gierig	krank	sterben	versagen	47pct	acq_USunple_CSunple2_noRW	acq23456_noRW	2	24	0	0	300	300	2000	0	0	0	1	blank2r.bmp	0	1	+	0	1	blank2r.bmp	252	1	YFFY	306	3	versagen	559	1	FEHLER	2598	1	Schneller!	2598	0	0	0	0	0	0	0	0	0	0	0	0	0	0	0	0	0	0	0	0	0	0	0	0	0	0	0	0	0	0	0	0	0
071019	12:23:03	12:29:19	375575	5.0.10.0	5_exp_noRW	38	Rpleas_acq	CS_A	CPPC	ZHHZ	DXXD	YFFY	LWWL	JQQJ	genießen	träumen	gütig	küssen	sonnig	vertrauen	gemein	töten	gierig	krank	sterben	versagen	53pct	acq_USpleas_CSpleas1_noRW	acq23456_noRW	2	25	0	0	300	300	729	46	0	0	1	blank2r.bmp	0	1	+	0	1	blank2r.bmp	252	1	CPPC	306	2	träumen	559	1	FEHLER	1319	0	0	0	0	0	0	0	0	0	0	0	0	0	0	0	0	0	0	0	0	0	0	0	0	0	0	0	0	0	0	0	0	0	0	0	0
071019	12:23:03	12:29:23	379054	5.0.10.0	5_exp_noRW	38	Rpleas_acq	CS_A	CPPC	ZHHZ	DXXD	YFFY	LWWL	JQQJ	genießen	träumen	gütig	küssen	sonnig	vertrauen	gemein	töten	gierig	krank	sterben	versagen	53pct	acq_USpleas_CSpleas2_noRW	acq23456_noRW	2	26	0	0	300	300	2000	0	0	0	1	blank2r.bmp	0	1	+	0	1	blank2r.bmp	252	1	ZHHZ	306	2	sonnig	559	1	FEHLER	2598	1	Schneller!	2598	0	0	0	0	0	0	0	0	0	0	0	0	0	0	0	0	0	0	0	0	0	0	0	0	0	0	0	0	0	0	0	0	0
071019	12:23:03	12:29:26	382453	5.0.10.0	5_exp_noRW	38	Rpleas_acq	CS_A	CPPC	ZHHZ	DXXD	YFFY	LWWL	JQQJ	genießen	träumen	gütig	küssen	sonnig	vertrauen	gemein	töten	gierig	krank	sterben	versagen	53pct	acq_USunple_CSunple2_noRW	acq23456_noRW	2	27	0	0	300	300	2000	0	0	0	1	blank2r.bmp	0	1	+	0	1	blank2r.bmp	252	1	YFFY	306	1	krank	559	1	FEHLER	2598	1	Schneller!	2598	0	0	0	0	0	0	0	0	0	0	0	0	0	0	0	0	0	0	0	0	0	0	0	0	0	0	0	0	0	0	0	0	0
071019	12:23:03	12:29:29	385864	5.0.10.0	5_exp_noRW	38	Rpleas_acq	CS_A	CPPC	ZHHZ	DXXD	YFFY	LWWL	JQQJ	genießen	träumen	gütig	küssen	sonnig	vertrauen	gemein	töten	gierig	krank	sterben	versagen	47pct	acq_USpleas_CSunple1_noRW	acq23456_noRW	2	28	0	0	300	300	2000	0	0	0	1	blank2r.bmp	0	1	+	0	1	blank2r.bmp	252	1	DXXD	306	1	genießen	559	1	FEHLER	2598	1	Schneller!	2598	0	0	0	0	0	0	0	0	0	0	0	0	0	0	0	0	0	0	0	0	0	0	0	0	0	0	0	0	0	0	0	0	0
071019	12:23:03	12:29:33	389290	5.0.10.0	5_exp_noRW	38	Rpleas_acq	CS_A	CPPC	ZHHZ	DXXD	YFFY	LWWL	JQQJ	genießen	träumen	gütig	küssen	sonnig	vertrauen	gemein	töten	gierig	krank	sterben	versagen	53pct	acq_USpleas_CSunple2_noRW	acq23456_noRW	2	29	0	0	300	300	2000	0	0	0	1	blank2r.bmp	0	1	+	0	1	blank2r.bmp	252	1	YFFY	306	3	vertrauen	559	1	FEHLER	2598	1	Schneller!	2598	0	0	0	0	0	0	0	0	0	0	0	0	0	0	0	0	0	0	0	0	0	0	0	0	0	0	0	0	0	0	0	0	0
071019	12:23:03	12:29:36	392702	5.0.10.0	5_exp_noRW	38	Rpleas_acq	CS_A	CPPC	ZHHZ	DXXD	YFFY	LWWL	JQQJ	genießen	träumen	gütig	küssen	sonnig	vertrauen	gemein	töten	gierig	krank	sterben	versagen	53pct	acq_USunple_CSunple2_noRW	acq23456_noRW	2	30	0	0	300	300	2000	0	0	0	1	blank2r.bmp	0	1	+	0	1	blank2r.bmp	252	1	YFFY	306	3	versagen	559	1	FEHLER	2598	1	Schneller!	2598	0	0	0	0	0	0	0	0	0	0	0	0	0	0	0	0	0	0	0	0	0	0	0	0	0	0	0	0	0	0	0	0	0
071019	12:23:03	12:29:38	394741	5.0.10.0	5_exp_noRW	38	Rpleas_acq	CS_A	CPPC	ZHHZ	DXXD	YFFY	LWWL	JQQJ	genießen	träumen	gütig	küssen	sonnig	vertrauen	gemein	töten	gierig	krank	sterben	versagen	47pct	acq_USpleas_CSpleas1_noRW	acq23456_noRW	2	31	0	0	300	300	944	46	0	0	1	blank2r.bmp	0	1	+	0	1	blank2r.bmp	252	1	CPPC	306	2	träumen	559	1	FEHLER	1532	0	0	0	0	0	0	0	0	0	0	0	0	0	0	0	0	0	0	0	0	0	0	0	0	0	0	0	0	0	0	0	0	0	0	0	0
071019	12:23:03	12:29:42	398206	5.0.10.0	5_exp_noRW	38	Rpleas_acq	CS_A	CPPC	ZHHZ	DXXD	YFFY	LWWL	JQQJ	genießen	träumen	gütig	küssen	sonnig	vertrauen	gemein	töten	gierig	krank	sterben	versagen	47pct	acq_USunple_CSunple1_noRW	acq23456_noRW	2	32	0	0	300	300	2000	0	0	0	1	blank2r.bmp	0	1	+	0	1	blank2r.bmp	252	1	DXXD	306	1	gemein	559	1	FEHLER	2598	1	Schneller!	2598	0	0	0	0	0	0	0	0	0	0	0	0	0	0	0	0	0	0	0	0	0	0	0	0	0	0	0	0	0	0	0	0	0
071019	12:23:03	12:29:45	401618	5.0.10.0	5_exp_noRW	38	Rpleas_acq	CS_A	CPPC	ZHHZ	DXXD	YFFY	LWWL	JQQJ	genießen	träumen	gütig	küssen	sonnig	vertrauen	gemein	töten	gierig	krank	sterben	versagen	47pct	acq_USunple_CSunple2_noRW	acq23456_noRW	2	33	0	0	300	300	2000	0	0	0	1	blank2r.bmp	0	1	+	0	1	blank2r.bmp	252	1	YFFY	306	2	sterben	559	1	FEHLER	2598	1	Schneller!	2598	0	0	0	0	0	0	0	0	0	0	0	0	0	0	0	0	0	0	0	0	0	0	0	0	0	0	0	0	0	0	0	0	0
071019	12:23:03	12:29:47	403470	5.0.10.0	5_exp_noRW	38	Rpleas_acq	CS_A	CPPC	ZHHZ	DXXD	YFFY	LWWL	JQQJ	genießen	träumen	gütig	küssen	sonnig	vertrauen	gemein	töten	gierig	krank	sterben	versagen	53pct	acq_USpleas_CSpleas1_noRW	acq23456_noRW	2	34	0	0	300	300	739	46	0	0	1	blank2r.bmp	0	1	+	0	1	blank2r.bmp	252	1	CPPC	306	3	gütig	559	1	FEHLER	1332	0	0	0	0	0	0	0	0	0	0	0	0	0	0	0	0	0	0	0	0	0	0	0	0	0	0	0	0	0	0	0	0	0	0	0	0
071019	12:23:03	12:29:48	404843	5.0.10.0	5_exp_noRW	38	Rpleas_acq	CS_A	CPPC	ZHHZ	DXXD	YFFY	LWWL	JQQJ	genießen	träumen	gütig	küssen	sonnig	vertrauen	gemein	töten	gierig	krank	sterben	versagen	53pct	acq_USpleas_CSpleas1_noRW	acq23456_noRW	2	35	0	0	300	300	190	46	0	0	1	blank2r.bmp	0	1	+	0	1	blank2r.bmp	252	1	CPPC	306	1	genießen	559	1	FEHLER	786	0	0	0	0	0	0	0	0	0	0	0	0	0	0	0	0	0	0	0	0	0	0	0	0	0	0	0	0	0	0	0	0	0	0	0	0
071019	12:23:03	12:29:52	408322	5.0.10.0	5_exp_noRW	38	Rpleas_acq	CS_A	CPPC	ZHHZ	DXXD	YFFY	LWWL	JQQJ	genießen	träumen	gütig	küssen	sonnig	vertrauen	gemein	töten	gierig	krank	sterben	versagen	53pct	acq_USunple_CSunple1_noRW	acq23456_noRW	2	36	0	0	300	300	2000	0	0	0	1	blank2r.bmp	0	1	+	0	1	blank2r.bmp	252	1	DXXD	306	3	gierig	559	1	FEHLER	2598	1	Schneller!	2598	0	0	0	0	0	0	0	0	0	0	0	0	0	0	0	0	0	0	0	0	0	0	0	0	0	0	0	0	0	0	0	0	0
071019	12:23:03	12:29:55	411734	5.0.10.0	5_exp_noRW	38	Rpleas_acq	CS_A	CPPC	ZHHZ	DXXD	YFFY	LWWL	JQQJ	genießen	träumen	gütig	küssen	sonnig	vertrauen	gemein	töten	gierig	krank	sterben	versagen	47pct	acq_USpleas_CSpleas2_noRW	acq23456_noRW	2	37	0	0	300	300	2000	0	0	0	1	blank2r.bmp	0	1	+	0	1	blank2r.bmp	252	1	ZHHZ	306	2	sonnig	559	1	FEHLER	2598	1	Schneller!	2598	0	0	0	0	0	0	0	0	0	0	0	0	0	0	0	0	0	0	0	0	0	0	0	0	0	0	0	0	0	0	0	0	0
071019	12:23:03	12:29:59	415146	5.0.10.0	5_exp_noRW	38	Rpleas_acq	CS_A	CPPC	ZHHZ	DXXD	YFFY	LWWL	JQQJ	genießen	träumen	gütig	küssen	sonnig	vertrauen	gemein	töten	gierig	krank	sterben	versagen	53pct	acq_USpleas_CSpleas2_noRW	acq23456_noRW	2	38	0	0	300	300	2000	0	0	0	1	blank2r.bmp	0	1	+	0	1	blank2r.bmp	252	1	ZHHZ	306	3	vertrauen	559	1	FEHLER	2598	1	Schneller!	2598	0	0	0	0	0	0	0	0	0	0	0	0	0	0	0	0	0	0	0	0	0	0	0	0	0	0	0	0	0	0	0	0	0
071019	12:23:03	12:30:02	418571	5.0.10.0	5_exp_noRW	38	Rpleas_acq	CS_A	CPPC	ZHHZ	DXXD	YFFY	LWWL	JQQJ	genießen	träumen	gütig	küssen	sonnig	vertrauen	gemein	töten	gierig	krank	sterben	versagen	47pct	acq_USunple_CSunple1_noRW	acq23456_noRW	2	39	0	0	300	300	2000	0	0	0	1	blank2r.bmp	0	1	+	0	1	blank2r.bmp	252	1	DXXD	306	2	töten	559	1	FEHLER	2598	1	Schneller!	2598	0	0	0	0	0	0	0	0	0	0	0	0	0	0	0	0	0	0	0	0	0	0	0	0	0	0	0	0	0	0	0	0	0
071019	12:23:03	12:30:06	421983	5.0.10.0	5_exp_noRW	38	Rpleas_acq	CS_A	CPPC	ZHHZ	DXXD	YFFY	LWWL	JQQJ	genießen	träumen	gütig	küssen	sonnig	vertrauen	gemein	töten	gierig	krank	sterben	versagen	53pct	acq_USpleas_CSpleas2_noRW	acq23456_noRW	2	40	0	0	300	300	2000	0	0	0	1	blank2r.bmp	0	1	+	0	1	blank2r.bmp	252	1	ZHHZ	306	1	küssen	559	1	FEHLER	2598	1	Schneller!	2598	0	0	0	0	0	0	0	0	0	0	0	0	0	0	0	0	0	0	0	0	0	0	0	0	0	0	0	0	0	0	0	0	0
071019	12:23:03	12:30:09	425395	5.0.10.0	5_exp_noRW	38	Rpleas_acq	CS_A	CPPC	ZHHZ	DXXD	YFFY	LWWL	JQQJ	genießen	träumen	gütig	küssen	sonnig	vertrauen	gemein	töten	gierig	krank	sterben	versagen	47pct	acq_USunple_CSunple2_noRW	acq23456_noRW	2	41	0	0	300	300	2000	0	0	0	1	blank2r.bmp	0	1	+	0	1	blank2r.bmp	252	1	YFFY	306	1	krank	559	1	FEHLER	2598	1	Schneller!	2598	0	0	0	0	0	0	0	0	0	0	0	0	0	0	0	0	0	0	0	0	0	0	0	0	0	0	0	0	0	0	0	0	0
071019	12:23:03	12:30:12	428806	5.0.10.0	5_exp_noRW	38	Rpleas_acq	CS_A	CPPC	ZHHZ	DXXD	YFFY	LWWL	JQQJ	genießen	träumen	gütig	küssen	sonnig	vertrauen	gemein	töten	gierig	krank	sterben	versagen	53pct	acq_USpleas_CSpleas2_noRW	acq23456_noRW	2	42	0	0	300	300	2000	0	0	0	1	blank2r.bmp	0	1	+	0	1	blank2r.bmp	252	1	ZHHZ	306	3	vertrauen	559	1	FEHLER	2598	1	Schneller!	2598	0	0	0	0	0	0	0	0	0	0	0	0	0	0	0	0	0	0	0	0	0	0	0	0	0	0	0	0	0	0	0	0	0
071019	12:23:03	12:30:16	432232	5.0.10.0	5_exp_noRW	38	Rpleas_acq	CS_A	CPPC	ZHHZ	DXXD	YFFY	LWWL	JQQJ	genießen	träumen	gütig	küssen	sonnig	vertrauen	gemein	töten	gierig	krank	sterben	versagen	53pct	acq_USunple_CSunple1_noRW	acq23456_noRW	2	43	0	0	300	300	2000	0	0	0	1	blank2r.bmp	0	1	+	0	1	blank2r.bmp	252	1	DXXD	306	2	töten	559	1	FEHLER	2598	1	Schneller!	2598	0	0	0	0	0	0	0	0	0	0	0	0	0	0	0	0	0	0	0	0	0	0	0	0	0	0	0	0	0	0	0	0	0
071019	12:23:03	12:30:19	435644	5.0.10.0	5_exp_noRW	38	Rpleas_acq	CS_A	CPPC	ZHHZ	DXXD	YFFY	LWWL	JQQJ	genießen	träumen	gütig	küssen	sonnig	vertrauen	gemein	töten	gierig	krank	sterben	versagen	47pct	acq_USpleas_CSpleas2_noRW	acq23456_noRW	2	44	0	0	300	300	2000	0	0	0	1	blank2r.bmp	0	1	+	0	1	blank2r.bmp	252	1	ZHHZ	306	1	küssen	559	1	FEHLER	2598	1	Schneller!	2598	0	0	0	0	0	0	0	0	0	0	0	0	0	0	0	0	0	0	0	0	0	0	0	0	0	0	0	0	0	0	0	0	0
071019	12:23:03	12:30:23	439056	5.0.10.0	5_exp_noRW	38	Rpleas_acq	CS_A	CPPC	ZHHZ	DXXD	YFFY	LWWL	JQQJ	genießen	träumen	gütig	küssen	sonnig	vertrauen	gemein	töten	gierig	krank	sterben	versagen	53pct	acq_USunple_CSunple2_noRW	acq23456_noRW	2	45	0	0	300	300	2000	0	0	0	1	blank2r.bmp	0	1	+	0	1	blank2r.bmp	252	1	YFFY	306	2	sterben	559	1	FEHLER	2598	1	Schneller!	2598	0	0	0	0	0	0	0	0	0	0	0	0	0	0	0	0	0	0	0	0	0	0	0	0	0	0	0	0	0	0	0	0	0
071019	12:23:03	12:30:26	442481	5.0.10.0	5_exp_noRW	38	Rpleas_acq	CS_A	CPPC	ZHHZ	DXXD	YFFY	LWWL	JQQJ	genießen	träumen	gütig	küssen	sonnig	vertrauen	gemein	töten	gierig	krank	sterben	versagen	53pct	acq_USpleas_CSunple1_noRW	acq23456_noRW	2	46	0	0	300	300	2000	0	0	0	1	blank2r.bmp	0	1	+	0	1	blank2r.bmp	252	1	DXXD	306	1	genießen	559	1	FEHLER	2598	1	Schneller!	2598	0	0	0	0	0	0	0	0	0	0	0	0	0	0	0	0	0	0	0	0	0	0	0	0	0	0	0	0	0	0	0	0	0
071019	12:23:03	12:30:30	445893	5.0.10.0	5_exp_noRW	38	Rpleas_acq	CS_A	CPPC	ZHHZ	DXXD	YFFY	LWWL	JQQJ	genießen	träumen	gütig	küssen	sonnig	vertrauen	gemein	töten	gierig	krank	sterben	versagen	47pct	acq_USunple_CSunple1_noRW	acq23456_noRW	2	47	0	0	300	300	2000	0	0	0	1	blank2r.bmp	0	1	+	0	1	blank2r.bmp	252	1	DXXD	306	3	gierig	559	1	FEHLER	2598	1	Schneller!	2598	0	0	0	0	0	0	0	0	0	0	0	0	0	0	0	0	0	0	0	0	0	0	0	0	0	0	0	0	0	0	0	0	0
071019	12:23:03	12:30:33	449305	5.0.10.0	5_exp_noRW	38	Rpleas_acq	CS_A	CPPC	ZHHZ	DXXD	YFFY	LWWL	JQQJ	genießen	träumen	gütig	küssen	sonnig	vertrauen	gemein	töten	gierig	krank	sterben	versagen	47pct	acq_USunple_CSunple1_noRW	acq23456_noRW	2	48	0	0	300	300	2000	0	0	0	1	blank2r.bmp	0	1	+	0	1	blank2r.bmp	252	1	DXXD	306	1	gemein	559	1	FEHLER	2598	1	Schneller!	2598	0	0	0	0	0	0	0	0	0	0	0	0	0	0	0	0	0	0	0	0	0	0	0	0	0	0	0	0	0	0	0	0	0
071019	12:23:03	12:30:35	450917	5.0.10.0	5_exp_noRW	38	Rpleas_acq	CS_A	CPPC	ZHHZ	DXXD	YFFY	LWWL	JQQJ	genießen	träumen	gütig	küssen	sonnig	vertrauen	gemein	töten	gierig	krank	sterben	versagen	53pct	acq_USunple_CSpleas1_noRW	acq23456_noRW	2	49	0	0	300	300	707	46	0	1	1	blank2r.bmp	0	1	+	0	1	blank2r.bmp	252	1	CPPC	306	2	töten	559	0	0	0	0	0	0	0	0	0	0	0	0	0	0	0	0	0	0	0	0	0	0	0	0	0	0	0	0	0	0	0	0	0	0	0	0	0	0	0
071019	12:23:03	12:30:36	452530	5.0.10.0	5_exp_noRW	38	Rpleas_acq	CS_A	CPPC	ZHHZ	DXXD	YFFY	LWWL	JQQJ	genießen	träumen	gütig	küssen	sonnig	vertrauen	gemein	töten	gierig	krank	sterben	versagen	53pct	acq_USpleas_CSpleas1_noRW	acq23456_noRW	2	50	0	0	300	300	223	46	0	0	1	blank2r.bmp	0	1	+	0	1	blank2r.bmp	252	1	CPPC	306	1	genießen	559	1	FEHLER	812	0	0	0	0	0	0	0	0	0	0	0	0	0	0	0	0	0	0	0	0	0	0	0	0	0	0	0	0	0	0	0	0	0	0	0	0
071019	12:23:03	12:30:40	456022	5.0.10.0	5_exp_noRW	38	Rpleas_acq	CS_A	CPPC	ZHHZ	DXXD	YFFY	LWWL	JQQJ	genießen	träumen	gütig	küssen	sonnig	vertrauen	gemein	töten	gierig	krank	sterben	versagen	53pct	acq_USunple_CSunple2_noRW	acq23456_noRW	2	51	0	0	300	300	2000	0	0	0	1	blank2r.bmp	0	1	+	0	1	blank2r.bmp	252	1	YFFY	306	3	versagen	559	1	FEHLER	2598	1	Schneller!	2598	0	0	0	0	0	0	0	0	0	0	0	0	0	0	0	0	0	0	0	0	0	0	0	0	0	0	0	0	0	0	0	0	0
071019	12:23:03	12:30:43	459434	5.0.10.0	5_exp_noRW	38	Rpleas_acq	CS_A	CPPC	ZHHZ	DXXD	YFFY	LWWL	JQQJ	genießen	träumen	gütig	küssen	sonnig	vertrauen	gemein	töten	gierig	krank	sterben	versagen	53pct	acq_USunple_CSunple2_noRW	acq23456_noRW	2	52	0	0	300	300	2000	0	0	0	1	blank2r.bmp	0	1	+	0	1	blank2r.bmp	252	1	YFFY	306	1	krank	559	1	FEHLER	2598	1	Schneller!	2598	0	0	0	0	0	0	0	0	0	0	0	0	0	0	0	0	0	0	0	0	0	0	0	0	0	0	0	0	0	0	0	0	0
071019	12:23:03	12:30:46	462846	5.0.10.0	5_exp_noRW	38	Rpleas_acq	CS_A	CPPC	ZHHZ	DXXD	YFFY	LWWL	JQQJ	genießen	träumen	gütig	küssen	sonnig	vertrauen	gemein	töten	gierig	krank	sterben	versagen	47pct	acq_USpleas_CSunple2_noRW	acq23456_noRW	2	53	0	0	300	300	2000	0	0	0	1	blank2r.bmp	0	1	+	0	1	blank2r.bmp	252	1	YFFY	306	1	küssen	559	1	FEHLER	2598	1	Schneller!	2598	0	0	0	0	0	0	0	0	0	0	0	0	0	0	0	0	0	0	0	0	0	0	0	0	0	0	0	0	0	0	0	0	0
071019	12:23:03	12:30:50	466271	5.0.10.0	5_exp_noRW	38	Rpleas_acq	CS_A	CPPC	ZHHZ	DXXD	YFFY	LWWL	JQQJ	genießen	träumen	gütig	küssen	sonnig	vertrauen	gemein	töten	gierig	krank	sterben	versagen	47pct	acq_USpleas_CSpleas2_noRW	acq23456_noRW	2	54	0	0	300	300	2000	0	0	0	1	blank2r.bmp	0	1	+	0	1	blank2r.bmp	252	1	ZHHZ	306	2	sonnig	559	1	FEHLER	2598	1	Schneller!	2598	0	0	0	0	0	0	0	0	0	0	0	0	0	0	0	0	0	0	0	0	0	0	0	0	0	0	0	0	0	0	0	0	0
071019	12:23:03	12:30:52	468003	5.0.10.0	5_exp_noRW	38	Rpleas_acq	CS_A	CPPC	ZHHZ	DXXD	YFFY	LWWL	JQQJ	genießen	träumen	gütig	küssen	sonnig	vertrauen	gemein	töten	gierig	krank	sterben	versagen	53pct	acq_USpleas_CSpleas1_noRW	acq23456_noRW	2	55	0	0	300	300	629	46	0	0	1	blank2r.bmp	0	1	+	0	1	blank2r.bmp	252	1	CPPC	306	2	träumen	559	1	FEHLER	1226	0	0	0	0	0	0	0	0	0	0	0	0	0	0	0	0	0	0	0	0	0	0	0	0	0	0	0	0	0	0	0	0	0	0	0	0
071019	12:23:03	12:30:53	469376	5.0.10.0	5_exp_noRW	38	Rpleas_acq	CS_A	CPPC	ZHHZ	DXXD	YFFY	LWWL	JQQJ	genießen	träumen	gütig	küssen	sonnig	vertrauen	gemein	töten	gierig	krank	sterben	versagen	53pct	acq_USpleas_CSpleas1_noRW	acq23456_noRW	2	56	0	0	300	300	200	46	0	0	1	blank2r.bmp	0	1	+	0	1	blank2r.bmp	252	1	CPPC	306	3	gütig	559	1	FEHLER	799	0	0	0	0	0	0	0	0	0	0	0	0	0	0	0	0	0	0	0	0	0	0	0	0	0	0	0	0	0	0	0	0	0	0	0	0
071019	12:23:03	12:30:56	472855	5.0.10.0	5_exp_noRW	38	Rpleas_acq	CS_A	CPPC	ZHHZ	DXXD	YFFY	LWWL	JQQJ	genießen	träumen	gütig	küssen	sonnig	vertrauen	gemein	töten	gierig	krank	sterben	versagen	53pct	acq_USunple_CSpleas2_noRW	acq23456_noRW	2	57	0	0	300	300	2000	0	0	0	1	blank2r.bmp	0	1	+	0	1	blank2r.bmp	252	1	ZHHZ	306	3	versagen	559	1	FEHLER	2598	1	Schneller!	2598	0	0	0	0	0	0	0	0	0	0	0	0	0	0	0	0	0	0	0	0	0	0	0	0	0	0	0	0	0	0	0	0	0
071019	12:23:03	12:31:00	476267	5.0.10.0	5_exp_noRW	38	Rpleas_acq	CS_A	CPPC	ZHHZ	DXXD	YFFY	LWWL	JQQJ	genießen	träumen	gütig	küssen	sonnig	vertrauen	gemein	töten	gierig	krank	sterben	versagen	53pct	acq_USunple_CSunple1_noRW	acq23456_noRW	2	58	0	0	300	300	2000	0	0	0	1	blank2r.bmp	0	1	+	0	1	blank2r.bmp	252	1	DXXD	306	3	gierig	559	1	FEHLER	2598	1	Schneller!	2598	0	0	0	0	0	0	0	0	0	0	0	0	0	0	0	0	0	0	0	0	0	0	0	0	0	0	0	0	0	0	0	0	0
071019	12:23:03	12:31:03	479679	5.0.10.0	5_exp_noRW	38	Rpleas_acq	CS_A	CPPC	ZHHZ	DXXD	YFFY	LWWL	JQQJ	genießen	träumen	gütig	küssen	sonnig	vertrauen	gemein	töten	gierig	krank	sterben	versagen	53pct	acq_USpleas_CSpleas2_noRW	acq23456_noRW	2	59	0	0	300	300	2000	0	0	0	1	blank2r.bmp	0	1	+	0	1	blank2r.bmp	252	1	ZHHZ	306	1	küssen	559	1	FEHLER	2598	1	Schneller!	2598	0	0	0	0	0	0	0	0	0	0	0	0	0	0	0	0	0	0	0	0	0	0	0	0	0	0	0	0	0	0	0	0	0
071019	12:23:03	12:31:05	481318	5.0.10.0	5_exp_noRW	38	Rpleas_acq	CS_A	CPPC	ZHHZ	DXXD	YFFY	LWWL	JQQJ	genießen	träumen	gütig	küssen	sonnig	vertrauen	gemein	töten	gierig	krank	sterben	versagen	47pct	acq_USpleas_CSpleas1_noRW	acq23456_noRW	2	60	0	0	300	300	531	46	0	0	1	blank2r.bmp	0	1	+	0	1	blank2r.bmp	252	1	CPPC	306	3	gütig	559	1	FEHLER	1119	0	0	0	0	0	0	0	0	0	0	0	0	0	0	0	0	0	0	0	0	0	0	0	0	0	0	0	0	0	0	0	0	0	0	0	0
071019	12:23:03	12:31:08	484810	5.0.10.0	5_exp_noRW	38	Rpleas_acq	CS_A	CPPC	ZHHZ	DXXD	YFFY	LWWL	JQQJ	genießen	träumen	gütig	küssen	sonnig	vertrauen	gemein	töten	gierig	krank	sterben	versagen	47pct	acq_USunple_CSunple2_noRW	acq23456_noRW	2	61	0	0	300	300	2000	0	0	0	1	blank2r.bmp	0	1	+	0	1	blank2r.bmp	252	1	YFFY	306	3	versagen	559	1	FEHLER	2598	1	Schneller!	2598	0	0	0	0	0	0	0	0	0	0	0	0	0	0	0	0	0	0	0	0	0	0	0	0	0	0	0	0	0	0	0	0	0
071019	12:23:03	12:31:12	488222	5.0.10.0	5_exp_noRW	38	Rpleas_acq	CS_A	CPPC	ZHHZ	DXXD	YFFY	LWWL	JQQJ	genießen	träumen	gütig	küssen	sonnig	vertrauen	gemein	töten	gierig	krank	sterben	versagen	47pct	acq_USpleas_CSpleas2_noRW	acq23456_noRW	2	62	0	0	300	300	2000	0	0	0	1	blank2r.bmp	0	1	+	0	1	blank2r.bmp	252	1	ZHHZ	306	3	vertrauen	559	1	FEHLER	2598	1	Schneller!	2598	0	0	0	0	0	0	0	0	0	0	0	0	0	0	0	0	0	0	0	0	0	0	0	0	0	0	0	0	0	0	0	0	0
071019	12:23:03	12:31:15	491634	5.0.10.0	5_exp_noRW	38	Rpleas_acq	CS_A	CPPC	ZHHZ	DXXD	YFFY	LWWL	JQQJ	genießen	träumen	gütig	küssen	sonnig	vertrauen	gemein	töten	gierig	krank	sterben	versagen	53pct	acq_USpleas_CSpleas2_noRW	acq23456_noRW	2	63	0	0	300	300	2000	0	0	0	1	blank2r.bmp	0	1	+	0	1	blank2r.bmp	252	1	ZHHZ	306	2	sonnig	559	1	FEHLER	2598	1	Schneller!	2598	0	0	0	0	0	0	0	0	0	0	0	0	0	0	0	0	0	0	0	0	0	0	0	0	0	0	0	0	0	0	0	0	0
071019	12:23:03	12:31:19	495059	5.0.10.0	5_exp_noRW	38	Rpleas_acq	CS_A	CPPC	ZHHZ	DXXD	YFFY	LWWL	JQQJ	genießen	träumen	gütig	küssen	sonnig	vertrauen	gemein	töten	gierig	krank	sterben	versagen	47pct	acq_USunple_CSunple1_noRW	acq23456_noRW	2	64	0	0	300	300	2000	0	0	0	1	blank2r.bmp	0	1	+	0	1	blank2r.bmp	252	1	DXXD	306	2	töten	559	1	FEHLER	2598	1	Schneller!	2598	0	0	0	0	0	0	0	0	0	0	0	0	0	0	0	0	0	0	0	0	0	0	0	0	0	0	0	0	0	0	0	0	0
071019	12:23:03	12:31:21	497005	5.0.10.0	5_exp_noRW	38	Rpleas_acq	CS_A	CPPC	ZHHZ	DXXD	YFFY	LWWL	JQQJ	genießen	träumen	gütig	küssen	sonnig	vertrauen	gemein	töten	gierig	krank	sterben	versagen	47pct	acq_USpleas_CSpleas1_noRW	acq23456_noRW	2	65	0	0	300	300	831	46	0	0	1	blank2r.bmp	0	1	+	0	1	blank2r.bmp	252	1	CPPC	306	1	genießen	559	1	FEHLER	1426	0	0	0	0	0	0	0	0	0	0	0	0	0	0	0	0	0	0	0	0	0	0	0	0	0	0	0	0	0	0	0	0	0	0	0	0
071019	12:23:03	12:31:22	498324	5.0.10.0	5_exp_noRW	38	Rpleas_acq	CS_A	CPPC	ZHHZ	DXXD	YFFY	LWWL	JQQJ	genießen	träumen	gütig	küssen	sonnig	vertrauen	gemein	töten	gierig	krank	sterben	versagen	53pct	acq_USpleas_CSpleas1_noRW	acq23456_noRW	2	66	0	0	300	300	138	46	0	0	1	blank2r.bmp	0	1	+	0	1	blank2r.bmp	252	1	CPPC	306	2	träumen	559	1	FEHLER	733	0	0	0	0	0	0	0	0	0	0	0	0	0	0	0	0	0	0	0	0	0	0	0	0	0	0	0	0	0	0	0	0	0	0	0	0
071019	12:23:03	12:31:25	501803	5.0.10.0	5_exp_noRW	38	Rpleas_acq	CS_A	CPPC	ZHHZ	DXXD	YFFY	LWWL	JQQJ	genießen	träumen	gütig	küssen	sonnig	vertrauen	gemein	töten	gierig	krank	sterben	versagen	47pct	acq_USunple_CSunple2_noRW	acq23456_noRW	2	67	0	0	300	300	2000	0	0	0	1	blank2r.bmp	0	1	+	0	1	blank2r.bmp	252	1	YFFY	306	2	sterben	559	1	FEHLER	2598	1	Schneller!	2598	0	0	0	0	0	0	0	0	0	0	0	0	0	0	0	0	0	0	0	0	0	0	0	0	0	0	0	0	0	0	0	0	0
071019	12:23:03	12:31:28	504575	5.0.10.0	5_exp_noRW	38	Rpleas_acq	CS_A	CPPC	ZHHZ	DXXD	YFFY	LWWL	JQQJ	genießen	träumen	gütig	küssen	sonnig	vertrauen	gemein	töten	gierig	krank	sterben	versagen	53pct	acq_USunple_CSpleas1_noRW	acq23456_noRW	2	68	0	0	300	300	1877	46	0	1	1	blank2r.bmp	0	1	+	0	1	blank2r.bmp	252	1	CPPC	306	3	gierig	559	0	0	0	0	0	0	0	0	0	0	0	0	0	0	0	0	0	0	0	0	0	0	0	0	0	0	0	0	0	0	0	0	0	0	0	0	0	0	0
071019	12:23:03	12:31:30	506214	5.0.10.0	5_exp_noRW	38	Rpleas_acq	CS_A	CPPC	ZHHZ	DXXD	YFFY	LWWL	JQQJ	genießen	träumen	gütig	küssen	sonnig	vertrauen	gemein	töten	gierig	krank	sterben	versagen	53pct	acq_USpleas_CSpleas1_noRW	acq23456_noRW	2	69	0	0	300	300	247	46	0	0	1	blank2r.bmp	0	1	+	0	1	blank2r.bmp	252	1	CPPC	306	3	gütig	559	1	FEHLER	839	0	0	0	0	0	0	0	0	0	0	0	0	0	0	0	0	0	0	0	0	0	0	0	0	0	0	0	0	0	0	0	0	0	0	0	0
071019	12:23:03	12:31:33	509693	5.0.10.0	5_exp_noRW	38	Rpleas_acq	CS_A	CPPC	ZHHZ	DXXD	YFFY	LWWL	JQQJ	genießen	träumen	gütig	küssen	sonnig	vertrauen	gemein	töten	gierig	krank	sterben	versagen	53pct	acq_USpleas_CSunple2_noRW	acq23456_noRW	2	70	0	0	300	300	2000	0	0	0	1	blank2r.bmp	0	1	+	0	1	blank2r.bmp	252	1	YFFY	306	3	vertrauen	559	1	FEHLER	2598	1	Schneller!	2598	0	0	0	0	0	0	0	0	0	0	0	0	0	0	0	0	0	0	0	0	0	0	0	0	0	0	0	0	0	0	0	0	0
071019	12:23:03	12:31:37	513105	5.0.10.0	5_exp_noRW	38	Rpleas_acq	CS_A	CPPC	ZHHZ	DXXD	YFFY	LWWL	JQQJ	genießen	träumen	gütig	küssen	sonnig	vertrauen	gemein	töten	gierig	krank	sterben	versagen	53pct	acq_USunple_CSunple1_noRW	acq23456_noRW	2	71	0	0	300	300	2000	0	0	0	1	blank2r.bmp	0	1	+	0	1	blank2r.bmp	252	1	DXXD	306	1	gemein	559	1	FEHLER	2598	1	Schneller!	2598	0	0	0	0	0	0	0	0	0	0	0	0	0	0	0	0	0	0	0	0	0	0	0	0	0	0	0	0	0	0	0	0	0
071019	12:23:03	12:31:40	516516	5.0.10.0	5_exp_noRW	38	Rpleas_acq	CS_A	CPPC	ZHHZ	DXXD	YFFY	LWWL	JQQJ	genießen	träumen	gütig	küssen	sonnig	vertrauen	gemein	töten	gierig	krank	sterben	versagen	47pct	acq_USunple_CSunple2_noRW	acq23456_noRW	2	72	0	0	300	300	2000	0	0	0	1	blank2r.bmp	0	1	+	0	1	blank2r.bmp	252	1	YFFY	306	3	versagen	559	1	FEHLER	2598	1	Schneller!	2598	0	0	0	0	0	0	0	0	0	0	0	0	0	0	0	0	0	0	0	0	0	0	0	0	0	0	0	0	0	0	0	0	0
071019	12:23:03	12:31:44	519942	5.0.10.0	5_exp_noRW	38	Rpleas_acq	CS_A	CPPC	ZHHZ	DXXD	YFFY	LWWL	JQQJ	genießen	träumen	gütig	küssen	sonnig	vertrauen	gemein	töten	gierig	krank	sterben	versagen	47pct	acq_USpleas_CSpleas2_noRW	acq23456_noRW	2	73	0	0	300	300	2000	0	0	0	1	blank2r.bmp	0	1	+	0	1	blank2r.bmp	252	1	ZHHZ	306	1	küssen	559	1	FEHLER	2598	1	Schneller!	2598	0	0	0	0	0	0	0	0	0	0	0	0	0	0	0	0	0	0	0	0	0	0	0	0	0	0	0	0	0	0	0	0	0
071019	12:23:03	12:31:47	523354	5.0.10.0	5_exp_noRW	38	Rpleas_acq	CS_A	CPPC	ZHHZ	DXXD	YFFY	LWWL	JQQJ	genießen	träumen	gütig	küssen	sonnig	vertrauen	gemein	töten	gierig	krank	sterben	versagen	47pct	acq_USunple_CSunple1_noRW	acq23456_noRW	2	74	0	0	300	300	2000	0	0	0	1	blank2r.bmp	0	1	+	0	1	blank2r.bmp	252	1	DXXD	306	1	gemein	559	1	FEHLER	2598	1	Schneller!	2598	0	0	0	0	0	0	0	0	0	0	0	0	0	0	0	0	0	0	0	0	0	0	0	0	0	0	0	0	0	0	0	0	0
071019	12:23:03	12:31:50	526766	5.0.10.0	5_exp_noRW	38	Rpleas_acq	CS_A	CPPC	ZHHZ	DXXD	YFFY	LWWL	JQQJ	genießen	träumen	gütig	küssen	sonnig	vertrauen	gemein	töten	gierig	krank	sterben	versagen	47pct	acq_USpleas_CSpleas2_noRW	acq23456_noRW	2	75	0	0	300	300	2000	0	0	0	1	blank2r.bmp	0	1	+	0	1	blank2r.bmp	252	1	ZHHZ	306	2	sonnig	559	1	FEHLER	2598	1	Schneller!	2598	0	0	0	0	0	0	0	0	0	0	0	0	0	0	0	0	0	0	0	0	0	0	0	0	0	0	0	0	0	0	0	0	0
071019	12:23:03	12:31:54	530191	5.0.10.0	5_exp_noRW	38	Rpleas_acq	CS_A	CPPC	ZHHZ	DXXD	YFFY	LWWL	JQQJ	genießen	träumen	gütig	küssen	sonnig	vertrauen	gemein	töten	gierig	krank	sterben	versagen	53pct	acq_USpleas_CSunple1_noRW	acq23456_noRW	2	76	0	0	300	300	2000	0	0	0	1	blank2r.bmp	0	1	+	0	1	blank2r.bmp	252	1	DXXD	306	3	gütig	559	1	FEHLER	2598	1	Schneller!	2598	0	0	0	0	0	0	0	0	0	0	0	0	0	0	0	0	0	0	0	0	0	0	0	0	0	0	0	0	0	0	0	0	0
071019	12:23:03	12:31:57	533603	5.0.10.0	5_exp_noRW	38	Rpleas_acq	CS_A	CPPC	ZHHZ	DXXD	YFFY	LWWL	JQQJ	genießen	träumen	gütig	küssen	sonnig	vertrauen	gemein	töten	gierig	krank	sterben	versagen	47pct	acq_USunple_CSunple1_noRW	acq23456_noRW	2	77	0	0	300	300	2000	0	0	0	1	blank2r.bmp	0	1	+	0	1	blank2r.bmp	252	1	DXXD	306	2	töten	559	1	FEHLER	2598	1	Schneller!	2598	0	0	0	0	0	0	0	0	0	0	0	0	0	0	0	0	0	0	0	0	0	0	0	0	0	0	0	0	0	0	0	0	0
071019	12:23:03	12:32:01	537015	5.0.10.0	5_exp_noRW	38	Rpleas_acq	CS_A	CPPC	ZHHZ	DXXD	YFFY	LWWL	JQQJ	genießen	träumen	gütig	küssen	sonnig	vertrauen	gemein	töten	gierig	krank	sterben	versagen	53pct	acq_USunple_CSunple2_noRW	acq23456_noRW	2	78	0	0	300	300	2000	0	0	0	1	blank2r.bmp	0	1	+	0	1	blank2r.bmp	252	1	YFFY	306	1	krank	559	1	FEHLER	2598	1	Schneller!	2598	0	0	0	0	0	0	0	0	0	0	0	0	0	0	0	0	0	0	0	0	0	0	0	0	0	0	0	0	0	0	0	0	0
071019	12:23:03	12:32:04	540426	5.0.10.0	5_exp_noRW	38	Rpleas_acq	CS_A	CPPC	ZHHZ	DXXD	YFFY	LWWL	JQQJ	genießen	träumen	gütig	küssen	sonnig	vertrauen	gemein	töten	gierig	krank	sterben	versagen	53pct	acq_USunple_CSpleas2_noRW	acq23456_noRW	2	79	0	0	300	300	2000	0	0	0	1	blank2r.bmp	0	1	+	0	1	blank2r.bmp	252	1	ZHHZ	306	1	krank	559	1	FEHLER	2598	1	Schneller!	2598	0	0	0	0	0	0	0	0	0	0	0	0	0	0	0	0	0	0	0	0	0	0	0	0	0	0	0	0	0	0	0	0	0
071019	12:23:03	12:32:06	542212	5.0.10.0	5_exp_noRW	38	Rpleas_acq	CS_A	CPPC	ZHHZ	DXXD	YFFY	LWWL	JQQJ	genießen	träumen	gütig	küssen	sonnig	vertrauen	gemein	töten	gierig	krank	sterben	versagen	47pct	acq_USpleas_CSpleas1_noRW	acq23456_noRW	2	80	0	0	300	300	666	46	0	0	1	blank2r.bmp	0	1	+	0	1	blank2r.bmp	252	1	CPPC	306	1	genießen	559	1	FEHLER	1266	0	0	0	0	0	0	0	0	0	0	0	0	0	0	0	0	0	0	0	0	0	0	0	0	0	0	0	0	0	0	0	0	0	0	0	0
071019	12:23:03	12:32:15	551728	5.0.10.0	5_exp_noRW	38	Rpleas_acq	CS_A	CPPC	ZHHZ	DXXD	YFFY	LWWL	JQQJ	genießen	träumen	gütig	küssen	sonnig	vertrauen	gemein	töten	gierig	krank	sterben	versagen	53pct	acq_USunple_CSunple2_noRW	acq23456_noRW	3	1	0	0	300	300	2000	0	0	0	1	blank2r.bmp	0	1	+	0	1	blank2r.bmp	252	1	YFFY	306	2	sterben	559	1	FEHLER	2598	1	Schneller!	2598	0	0	0	0	0	0	0	0	0	0	0	0	0	0	0	0	0	0	0	0	0	0	0	0	0	0	0	0	0	0	0	0	0
071019	12:23:03	12:32:17	553221	5.0.10.0	5_exp_noRW	38	Rpleas_acq	CS_A	CPPC	ZHHZ	DXXD	YFFY	LWWL	JQQJ	genießen	träumen	gütig	küssen	sonnig	vertrauen	gemein	töten	gierig	krank	sterben	versagen	47pct	acq_USunple_CSpleas1_noRW	acq23456_noRW	3	2	0	0	300	300	600	46	0	1	1	blank2r.bmp	0	1	+	0	1	blank2r.bmp	252	1	CPPC	306	1	gemein	559	0	0	0	0	0	0	0	0	0	0	0	0	0	0	0	0	0	0	0	0	0	0	0	0	0	0	0	0	0	0	0	0	0	0	0	0	0	0	0
071019	12:23:03	12:32:21	556913	5.0.10.0	5_exp_noRW	38	Rpleas_acq	CS_A	CPPC	ZHHZ	DXXD	YFFY	LWWL	JQQJ	genießen	träumen	gütig	küssen	sonnig	vertrauen	gemein	töten	gierig	krank	sterben	versagen	47pct	acq_USpleas_CSpleas2_noRW	acq23456_noRW	3	3	0	0	300	300	2000	0	0	0	1	blank2r.bmp	0	1	+	0	1	blank2r.bmp	252	1	ZHHZ	306	3	vertrauen	559	1	FEHLER	2598	1	Schneller!	2598	0	0	0	0	0	0	0	0	0	0	0	0	0	0	0	0	0	0	0	0	0	0	0	0	0	0	0	0	0	0	0	0	0
071019	12:23:03	12:32:24	560325	5.0.10.0	5_exp_noRW	38	Rpleas_acq	CS_A	CPPC	ZHHZ	DXXD	YFFY	LWWL	JQQJ	genießen	träumen	gütig	küssen	sonnig	vertrauen	gemein	töten	gierig	krank	sterben	versagen	47pct	acq_USpleas_CSpleas2_noRW	acq23456_noRW	3	4	0	0	300	300	2000	0	0	0	1	blank2r.bmp	0	1	+	0	1	blank2r.bmp	252	1	ZHHZ	306	2	sonnig	559	1	FEHLER	2598	1	Schneller!	2598	0	0	0	0	0	0	0	0	0	0	0	0	0	0	0	0	0	0	0	0	0	0	0	0	0	0	0	0	0	0	0	0	0
071019	12:23:03	12:32:27	563737	5.0.10.0	5_exp_noRW	38	Rpleas_acq	CS_A	CPPC	ZHHZ	DXXD	YFFY	LWWL	JQQJ	genießen	träumen	gütig	küssen	sonnig	vertrauen	gemein	töten	gierig	krank	sterben	versagen	53pct	acq_USpleas_CSpleas2_noRW	acq23456_noRW	3	5	0	0	300	300	2000	0	0	0	1	blank2r.bmp	0	1	+	0	1	blank2r.bmp	252	1	ZHHZ	306	3	vertrauen	559	1	FEHLER	2598	1	Schneller!	2598	0	0	0	0	0	0	0	0	0	0	0	0	0	0	0	0	0	0	0	0	0	0	0	0	0	0	0	0	0	0	0	0	0
071019	12:23:03	12:32:31	567149	5.0.10.0	5_exp_noRW	38	Rpleas_acq	CS_A	CPPC	ZHHZ	DXXD	YFFY	LWWL	JQQJ	genießen	träumen	gütig	küssen	sonnig	vertrauen	gemein	töten	gierig	krank	sterben	versagen	47pct	acq_USunple_CSunple2_noRW	acq23456_noRW	3	6	0	0	300	300	2000	0	0	0	1	blank2r.bmp	0	1	+	0	1	blank2r.bmp	252	1	YFFY	306	1	krank	559	1	FEHLER	2598	1	Schneller!	2598	0	0	0	0	0	0	0	0	0	0	0	0	0	0	0	0	0	0	0	0	0	0	0	0	0	0	0	0	0	0	0	0	0
071019	12:23:03	12:32:34	570561	5.0.10.0	5_exp_noRW	38	Rpleas_acq	CS_A	CPPC	ZHHZ	DXXD	YFFY	LWWL	JQQJ	genießen	träumen	gütig	küssen	sonnig	vertrauen	gemein	töten	gierig	krank	sterben	versagen	53pct	acq_USpleas_CSpleas2_noRW	acq23456_noRW	3	7	0	0	300	300	2000	0	0	0	1	blank2r.bmp	0	1	+	0	1	blank2r.bmp	252	1	ZHHZ	306	1	küssen	559	1	FEHLER	2598	1	Schneller!	2598	0	0	0	0	0	0	0	0	0	0	0	0	0	0	0	0	0	0	0	0	0	0	0	0	0	0	0	0	0	0	0	0	0
071019	12:23:03	12:32:36	572187	5.0.10.0	5_exp_noRW	38	Rpleas_acq	CS_A	CPPC	ZHHZ	DXXD	YFFY	LWWL	JQQJ	genießen	träumen	gütig	küssen	sonnig	vertrauen	gemein	töten	gierig	krank	sterben	versagen	47pct	acq_USpleas_CSpleas1_noRW	acq23456_noRW	3	8	0	0	300	300	533	46	0	0	1	blank2r.bmp	0	1	+	0	1	blank2r.bmp	252	1	CPPC	306	2	träumen	559	1	FEHLER	1132	0	0	0	0	0	0	0	0	0	0	0	0	0	0	0	0	0	0	0	0	0	0	0	0	0	0	0	0	0	0	0	0	0	0	0	0
071019	12:23:03	12:32:37	573706	5.0.10.0	5_exp_noRW	38	Rpleas_acq	CS_A	CPPC	ZHHZ	DXXD	YFFY	LWWL	JQQJ	genießen	träumen	gütig	küssen	sonnig	vertrauen	gemein	töten	gierig	krank	sterben	versagen	53pct	acq_USpleas_CSpleas1_noRW	acq23456_noRW	3	9	0	0	300	300	336	46	0	0	1	blank2r.bmp	0	1	+	0	1	blank2r.bmp	252	1	CPPC	306	2	träumen	559	1	FEHLER	932	0	0	0	0	0	0	0	0	0	0	0	0	0	0	0	0	0	0	0	0	0	0	0	0	0	0	0	0	0	0	0	0	0	0	0	0
071019	12:23:03	12:32:41	577184	5.0.10.0	5_exp_noRW	38	Rpleas_acq	CS_A	CPPC	ZHHZ	DXXD	YFFY	LWWL	JQQJ	genießen	träumen	gütig	küssen	sonnig	vertrauen	gemein	töten	gierig	krank	sterben	versagen	53pct	acq_USunple_CSpleas2_noRW	acq23456_noRW	3	10	0	0	300	300	2000	0	0	0	1	blank2r.bmp	0	1	+	0	1	blank2r.bmp	252	1	ZHHZ	306	2	sterben	559	1	FEHLER	2598	1	Schneller!	2598	0	0	0	0	0	0	0	0	0	0	0	0	0	0	0	0	0	0	0	0	0	0	0	0	0	0	0	0	0	0	0	0	0
071019	12:23:03	12:32:44	580610	5.0.10.0	5_exp_noRW	38	Rpleas_acq	CS_A	CPPC	ZHHZ	DXXD	YFFY	LWWL	JQQJ	genießen	träumen	gütig	küssen	sonnig	vertrauen	gemein	töten	gierig	krank	sterben	versagen	47pct	acq_USunple_CSunple1_noRW	acq23456_noRW	3	11	0	0	300	300	2000	0	0	0	1	blank2r.bmp	0	1	+	0	1	blank2r.bmp	252	1	DXXD	306	3	gierig	559	1	FEHLER	2598	1	Schneller!	2598	0	0	0	0	0	0	0	0	0	0	0	0	0	0	0	0	0	0	0	0	0	0	0	0	0	0	0	0	0	0	0	0	0
071019	12:23:03	12:32:46	582436	5.0.10.0	5_exp_noRW	38	Rpleas_acq	CS_A	CPPC	ZHHZ	DXXD	YFFY	LWWL	JQQJ	genießen	träumen	gütig	küssen	sonnig	vertrauen	gemein	töten	gierig	krank	sterben	versagen	53pct	acq_USpleas_CSpleas1_noRW	acq23456_noRW	3	12	0	0	300	300	707	46	0	0	1	blank2r.bmp	0	1	+	0	1	blank2r.bmp	252	1	CPPC	306	3	gütig	559	1	FEHLER	1306	0	0	0	0	0	0	0	0	0	0	0	0	0	0	0	0	0	0	0	0	0	0	0	0	0	0	0	0	0	0	0	0	0	0	0	0
071019	12:23:03	12:32:50	585927	5.0.10.0	5_exp_noRW	38	Rpleas_acq	CS_A	CPPC	ZHHZ	DXXD	YFFY	LWWL	JQQJ	genießen	träumen	gütig	küssen	sonnig	vertrauen	gemein	töten	gierig	krank	sterben	versagen	53pct	acq_USunple_CSunple1_noRW	acq23456_noRW	3	13	0	0	300	300	2000	0	0	0	1	blank2r.bmp	0	1	+	0	1	blank2r.bmp	252	1	DXXD	306	2	töten	559	1	FEHLER	2598	1	Schneller!	2598	0	0	0	0	0	0	0	0	0	0	0	0	0	0	0	0	0	0	0	0	0	0	0	0	0	0	0	0	0	0	0	0	0
071019	12:23:03	12:32:53	589353	5.0.10.0	5_exp_noRW	38	Rpleas_acq	CS_A	CPPC	ZHHZ	DXXD	YFFY	LWWL	JQQJ	genießen	träumen	gütig	küssen	sonnig	vertrauen	gemein	töten	gierig	krank	sterben	versagen	47pct	acq_USpleas_CSunple1_noRW	acq23456_noRW	3	14	0	0	300	300	2000	0	0	0	1	blank2r.bmp	0	1	+	0	1	blank2r.bmp	252	1	DXXD	306	2	träumen	559	1	FEHLER	2598	1	Schneller!	2598	0	0	0	0	0	0	0	0	0	0	0	0	0	0	0	0	0	0	0	0	0	0	0	0	0	0	0	0	0	0	0	0	0
071019	12:23:03	12:32:56	592765	5.0.10.0	5_exp_noRW	38	Rpleas_acq	CS_A	CPPC	ZHHZ	DXXD	YFFY	LWWL	JQQJ	genießen	träumen	gütig	küssen	sonnig	vertrauen	gemein	töten	gierig	krank	sterben	versagen	47pct	acq_USpleas_CSunple2_noRW	acq23456_noRW	3	15	0	0	300	300	2000	0	0	0	1	blank2r.bmp	0	1	+	0	1	blank2r.bmp	252	1	YFFY	306	2	sonnig	559	1	FEHLER	2598	1	Schneller!	2598	0	0	0	0	0	0	0	0	0	0	0	0	0	0	0	0	0	0	0	0	0	0	0	0	0	0	0	0	0	0	0	0	0
071019	12:23:03	12:33:00	596190	5.0.10.0	5_exp_noRW	38	Rpleas_acq	CS_A	CPPC	ZHHZ	DXXD	YFFY	LWWL	JQQJ	genießen	träumen	gütig	küssen	sonnig	vertrauen	gemein	töten	gierig	krank	sterben	versagen	53pct	acq_USunple_CSunple2_noRW	acq23456_noRW	3	16	0	0	300	300	2000	0	0	0	1	blank2r.bmp	0	1	+	0	1	blank2r.bmp	252	1	YFFY	306	3	versagen	559	1	FEHLER	2598	1	Schneller!	2598	0	0	0	0	0	0	0	0	0	0	0	0	0	0	0	0	0	0	0	0	0	0	0	0	0	0	0	0	0	0	0	0	0
071019	12:23:03	12:33:01	597842	5.0.10.0	5_exp_noRW	38	Rpleas_acq	CS_A	CPPC	ZHHZ	DXXD	YFFY	LWWL	JQQJ	genießen	träumen	gütig	küssen	sonnig	vertrauen	gemein	töten	gierig	krank	sterben	versagen	47pct	acq_USpleas_CSpleas1_noRW	acq23456_noRW	3	17	0	0	300	300	548	46	0	0	1	blank2r.bmp	0	1	+	0	1	blank2r.bmp	252	1	CPPC	306	1	genießen	559	1	FEHLER	1146	0	0	0	0	0	0	0	0	0	0	0	0	0	0	0	0	0	0	0	0	0	0	0	0	0	0	0	0	0	0	0	0	0	0	0	0
071019	12:23:03	12:33:05	601308	5.0.10.0	5_exp_noRW	38	Rpleas_acq	CS_A	CPPC	ZHHZ	DXXD	YFFY	LWWL	JQQJ	genießen	träumen	gütig	küssen	sonnig	vertrauen	gemein	töten	gierig	krank	sterben	versagen	47pct	acq_USunple_CSunple2_noRW	acq23456_noRW	3	18	0	0	300	300	2000	0	0	0	1	blank2r.bmp	0	1	+	0	1	blank2r.bmp	252	1	YFFY	306	2	sterben	559	1	FEHLER	2598	1	Schneller!	2598	0	0	0	0	0	0	0	0	0	0	0	0	0	0	0	0	0	0	0	0	0	0	0	0	0	0	0	0	0	0	0	0	0
071019	12:23:03	12:33:08	604720	5.0.10.0	5_exp_noRW	38	Rpleas_acq	CS_A	CPPC	ZHHZ	DXXD	YFFY	LWWL	JQQJ	genießen	träumen	gütig	küssen	sonnig	vertrauen	gemein	töten	gierig	krank	sterben	versagen	47pct	acq_USunple_CSunple1_noRW	acq23456_noRW	3	19	0	0	300	300	2000	0	0	0	1	blank2r.bmp	0	1	+	0	1	blank2r.bmp	252	1	DXXD	306	3	gierig	559	1	FEHLER	2598	1	Schneller!	2598	0	0	0	0	0	0	0	0	0	0	0	0	0	0	0	0	0	0	0	0	0	0	0	0	0	0	0	0	0	0	0	0	0
071019	12:23:03	12:33:12	608131	5.0.10.0	5_exp_noRW	38	Rpleas_acq	CS_A	CPPC	ZHHZ	DXXD	YFFY	LWWL	JQQJ	genießen	träumen	gütig	küssen	sonnig	vertrauen	gemein	töten	gierig	krank	sterben	versagen	53pct	acq_USunple_CSunple1_noRW	acq23456_noRW	3	20	0	0	300	300	2000	0	0	0	1	blank2r.bmp	0	1	+	0	1	blank2r.bmp	252	1	DXXD	306	1	gemein	559	1	FEHLER	2598	1	Schneller!	2598	0	0	0	0	0	0	0	0	0	0	0	0	0	0	0	0	0	0	0	0	0	0	0	0	0	0	0	0	0	0	0	0	0
071019	12:23:03	12:33:15	611557	5.0.10.0	5_exp_noRW	38	Rpleas_acq	CS_A	CPPC	ZHHZ	DXXD	YFFY	LWWL	JQQJ	genießen	träumen	gütig	küssen	sonnig	vertrauen	gemein	töten	gierig	krank	sterben	versagen	53pct	acq_USunple_CSunple1_noRW	acq23456_noRW	3	21	0	0	300	300	2000	0	0	0	1	blank2r.bmp	0	1	+	0	1	blank2r.bmp	252	1	DXXD	306	3	gierig	559	1	FEHLER	2598	1	Schneller!	2598	0	0	0	0	0	0	0	0	0	0	0	0	0	0	0	0	0	0	0	0	0	0	0	0	0	0	0	0	0	0	0	0	0
071019	12:23:03	12:33:19	614969	5.0.10.0	5_exp_noRW	38	Rpleas_acq	CS_A	CPPC	ZHHZ	DXXD	YFFY	LWWL	JQQJ	genießen	träumen	gütig	küssen	sonnig	vertrauen	gemein	töten	gierig	krank	sterben	versagen	53pct	acq_USunple_CSunple2_noRW	acq23456_noRW	3	22	0	0	300	300	2000	0	0	0	1	blank2r.bmp	0	1	+	0	1	blank2r.bmp	252	1	YFFY	306	1	krank	559	1	FEHLER	2598	1	Schneller!	2598	0	0	0	0	0	0	0	0	0	0	0	0	0	0	0	0	0	0	0	0	0	0	0	0	0	0	0	0	0	0	0	0	0
071019	12:23:03	12:33:20	616608	5.0.10.0	5_exp_noRW	38	Rpleas_acq	CS_A	CPPC	ZHHZ	DXXD	YFFY	LWWL	JQQJ	genießen	träumen	gütig	küssen	sonnig	vertrauen	gemein	töten	gierig	krank	sterben	versagen	47pct	acq_USunple_CSpleas1_noRW	acq23456_noRW	3	23	0	0	300	300	755	46	0	1	1	blank2r.bmp	0	1	+	0	1	blank2r.bmp	252	1	CPPC	306	1	gemein	559	0	0	0	0	0	0	0	0	0	0	0	0	0	0	0	0	0	0	0	0	0	0	0	0	0	0	0	0	0	0	0	0	0	0	0	0	0	0	0
071019	12:23:03	12:33:24	620300	5.0.10.0	5_exp_noRW	38	Rpleas_acq	CS_A	CPPC	ZHHZ	DXXD	YFFY	LWWL	JQQJ	genießen	träumen	gütig	küssen	sonnig	vertrauen	gemein	töten	gierig	krank	sterben	versagen	47pct	acq_USunple_CSunple1_noRW	acq23456_noRW	3	24	0	0	300	300	2000	0	0	0	1	blank2r.bmp	0	1	+	0	1	blank2r.bmp	252	1	DXXD	306	1	gemein	559	1	FEHLER	2598	1	Schneller!	2598	0	0	0	0	0	0	0	0	0	0	0	0	0	0	0	0	0	0	0	0	0	0	0	0	0	0	0	0	0	0	0	0	0
071019	12:23:03	12:33:27	623712	5.0.10.0	5_exp_noRW	38	Rpleas_acq	CS_A	CPPC	ZHHZ	DXXD	YFFY	LWWL	JQQJ	genießen	träumen	gütig	küssen	sonnig	vertrauen	gemein	töten	gierig	krank	sterben	versagen	53pct	acq_USpleas_CSunple2_noRW	acq23456_noRW	3	25	0	0	300	300	2000	0	0	0	1	blank2r.bmp	0	1	+	0	1	blank2r.bmp	252	1	YFFY	306	3	vertrauen	559	1	FEHLER	2598	1	Schneller!	2598	0	0	0	0	0	0	0	0	0	0	0	0	0	0	0	0	0	0	0	0	0	0	0	0	0	0	0	0	0	0	0	0	0
071019	12:23:03	12:33:31	627124	5.0.10.0	5_exp_noRW	38	Rpleas_acq	CS_A	CPPC	ZHHZ	DXXD	YFFY	LWWL	JQQJ	genießen	träumen	gütig	küssen	sonnig	vertrauen	gemein	töten	gierig	krank	sterben	versagen	53pct	acq_USunple_CSunple2_noRW	acq23456_noRW	3	26	0	0	300	300	2000	0	0	0	1	blank2r.bmp	0	1	+	0	1	blank2r.bmp	252	1	YFFY	306	3	versagen	559	1	FEHLER	2598	1	Schneller!	2598	0	0	0	0	0	0	0	0	0	0	0	0	0	0	0	0	0	0	0	0	0	0	0	0	0	0	0	0	0	0	0	0	0
071019	12:23:03	12:33:33	629016	5.0.10.0	5_exp_noRW	38	Rpleas_acq	CS_A	CPPC	ZHHZ	DXXD	YFFY	LWWL	JQQJ	genießen	träumen	gütig	küssen	sonnig	vertrauen	gemein	töten	gierig	krank	sterben	versagen	53pct	acq_USpleas_CSpleas1_noRW	acq23456_noRW	3	27	0	0	300	300	793	46	0	0	1	blank2r.bmp	0	1	+	0	1	blank2r.bmp	252	1	CPPC	306	2	träumen	559	1	FEHLER	1386	0	0	0	0	0	0	0	0	0	0	0	0	0	0	0	0	0	0	0	0	0	0	0	0	0	0	0	0	0	0	0	0	0	0	0	0
071019	12:23:03	12:33:36	632495	5.0.10.0	5_exp_noRW	38	Rpleas_acq	CS_A	CPPC	ZHHZ	DXXD	YFFY	LWWL	JQQJ	genießen	träumen	gütig	küssen	sonnig	vertrauen	gemein	töten	gierig	krank	sterben	versagen	53pct	acq_USunple_CSunple1_noRW	acq23456_noRW	3	28	0	0	300	300	2000	0	0	0	1	blank2r.bmp	0	1	+	0	1	blank2r.bmp	252	1	DXXD	306	2	töten	559	1	FEHLER	2598	1	Schneller!	2598	0	0	0	0	0	0	0	0	0	0	0	0	0	0	0	0	0	0	0	0	0	0	0	0	0	0	0	0	0	0	0	0	0
071019	12:23:03	12:33:40	635907	5.0.10.0	5_exp_noRW	38	Rpleas_acq	CS_A	CPPC	ZHHZ	DXXD	YFFY	LWWL	JQQJ	genießen	träumen	gütig	küssen	sonnig	vertrauen	gemein	töten	gierig	krank	sterben	versagen	53pct	acq_USpleas_CSunple1_noRW	acq23456_noRW	3	29	0	0	300	300	2000	0	0	0	1	blank2r.bmp	0	1	+	0	1	blank2r.bmp	252	1	DXXD	306	2	träumen	559	1	FEHLER	2598	1	Schneller!	2598	0	0	0	0	0	0	0	0	0	0	0	0	0	0	0	0	0	0	0	0	0	0	0	0	0	0	0	0	0	0	0	0	0
071019	12:23:03	12:33:43	639318	5.0.10.0	5_exp_noRW	38	Rpleas_acq	CS_A	CPPC	ZHHZ	DXXD	YFFY	LWWL	JQQJ	genießen	träumen	gütig	küssen	sonnig	vertrauen	gemein	töten	gierig	krank	sterben	versagen	53pct	acq_USunple_CSunple2_noRW	acq23456_noRW	3	30	0	0	300	300	2000	0	0	0	1	blank2r.bmp	0	1	+	0	1	blank2r.bmp	252	1	YFFY	306	2	sterben	559	1	FEHLER	2598	1	Schneller!	2598	0	0	0	0	0	0	0	0	0	0	0	0	0	0	0	0	0	0	0	0	0	0	0	0	0	0	0	0	0	0	0	0	0
071019	12:23:03	12:33:46	642744	5.0.10.0	5_exp_noRW	38	Rpleas_acq	CS_A	CPPC	ZHHZ	DXXD	YFFY	LWWL	JQQJ	genießen	träumen	gütig	küssen	sonnig	vertrauen	gemein	töten	gierig	krank	sterben	versagen	53pct	acq_USunple_CSunple2_noRW	acq23456_noRW	3	31	0	0	300	300	2000	0	0	0	1	blank2r.bmp	0	1	+	0	1	blank2r.bmp	252	1	YFFY	306	3	versagen	559	1	FEHLER	2598	1	Schneller!	2598	0	0	0	0	0	0	0	0	0	0	0	0	0	0	0	0	0	0	0	0	0	0	0	0	0	0	0	0	0	0	0	0	0
071019	12:23:03	12:33:48	644543	5.0.10.0	5_exp_noRW	38	Rpleas_acq	CS_A	CPPC	ZHHZ	DXXD	YFFY	LWWL	JQQJ	genießen	träumen	gütig	küssen	sonnig	vertrauen	gemein	töten	gierig	krank	sterben	versagen	53pct	acq_USpleas_CSpleas1_noRW	acq23456_noRW	3	32	0	0	300	300	686	46	0	0	1	blank2r.bmp	0	1	+	0	1	blank2r.bmp	252	1	CPPC	306	3	gütig	559	1	FEHLER	1279	0	0	0	0	0	0	0	0	0	0	0	0	0	0	0	0	0	0	0	0	0	0	0	0	0	0	0	0	0	0	0	0	0	0	0	0
071019	12:23:03	12:33:52	648021	5.0.10.0	5_exp_noRW	38	Rpleas_acq	CS_A	CPPC	ZHHZ	DXXD	YFFY	LWWL	JQQJ	genießen	träumen	gütig	küssen	sonnig	vertrauen	gemein	töten	gierig	krank	sterben	versagen	47pct	acq_USpleas_CSpleas2_noRW	acq23456_noRW	3	33	0	0	300	300	2000	0	0	0	1	blank2r.bmp	0	1	+	0	1	blank2r.bmp	252	1	ZHHZ	306	3	vertrauen	559	1	FEHLER	2598	1	Schneller!	2598	0	0	0	0	0	0	0	0	0	0	0	0	0	0	0	0	0	0	0	0	0	0	0	0	0	0	0	0	0	0	0	0	0
071019	12:23:03	12:33:55	651447	5.0.10.0	5_exp_noRW	38	Rpleas_acq	CS_A	CPPC	ZHHZ	DXXD	YFFY	LWWL	JQQJ	genießen	träumen	gütig	küssen	sonnig	vertrauen	gemein	töten	gierig	krank	sterben	versagen	47pct	acq_USpleas_CSpleas2_noRW	acq23456_noRW	3	34	0	0	300	300	2000	0	0	0	1	blank2r.bmp	0	1	+	0	1	blank2r.bmp	252	1	ZHHZ	306	2	sonnig	559	1	FEHLER	2598	1	Schneller!	2598	0	0	0	0	0	0	0	0	0	0	0	0	0	0	0	0	0	0	0	0	0	0	0	0	0	0	0	0	0	0	0	0	0
071019	12:23:03	12:33:58	654859	5.0.10.0	5_exp_noRW	38	Rpleas_acq	CS_A	CPPC	ZHHZ	DXXD	YFFY	LWWL	JQQJ	genießen	träumen	gütig	küssen	sonnig	vertrauen	gemein	töten	gierig	krank	sterben	versagen	47pct	acq_USpleas_CSpleas2_noRW	acq23456_noRW	3	35	0	0	300	300	2000	0	0	0	1	blank2r.bmp	0	1	+	0	1	blank2r.bmp	252	1	ZHHZ	306	1	küssen	559	1	FEHLER	2598	1	Schneller!	2598	0	0	0	0	0	0	0	0	0	0	0	0	0	0	0	0	0	0	0	0	0	0	0	0	0	0	0	0	0	0	0	0	0
071019	12:23:03	12:34:02	658270	5.0.10.0	5_exp_noRW	38	Rpleas_acq	CS_A	CPPC	ZHHZ	DXXD	YFFY	LWWL	JQQJ	genießen	träumen	gütig	küssen	sonnig	vertrauen	gemein	töten	gierig	krank	sterben	versagen	53pct	acq_USunple_CSpleas2_noRW	acq23456_noRW	3	36	0	0	300	300	2000	0	0	0	1	blank2r.bmp	0	1	+	0	1	blank2r.bmp	252	1	ZHHZ	306	1	krank	559	1	FEHLER	2598	1	Schneller!	2598	0	0	0	0	0	0	0	0	0	0	0	0	0	0	0	0	0	0	0	0	0	0	0	0	0	0	0	0	0	0	0	0	0
071019	12:23:03	12:34:04	659936	5.0.10.0	5_exp_noRW	38	Rpleas_acq	CS_A	CPPC	ZHHZ	DXXD	YFFY	LWWL	JQQJ	genießen	träumen	gütig	küssen	sonnig	vertrauen	gemein	töten	gierig	krank	sterben	versagen	47pct	acq_USpleas_CSpleas1_noRW	acq23456_noRW	3	37	0	0	300	300	558	46	0	0	1	blank2r.bmp	0	1	+	0	1	blank2r.bmp	252	1	CPPC	306	1	genießen	559	1	FEHLER	1146	0	0	0	0	0	0	0	0	0	0	0	0	0	0	0	0	0	0	0	0	0	0	0	0	0	0	0	0	0	0	0	0	0	0	0	0
071019	12:23:03	12:34:07	663415	5.0.10.0	5_exp_noRW	38	Rpleas_acq	CS_A	CPPC	ZHHZ	DXXD	YFFY	LWWL	JQQJ	genießen	träumen	gütig	küssen	sonnig	vertrauen	gemein	töten	gierig	krank	sterben	versagen	47pct	acq_USpleas_CSpleas2_noRW	acq23456_noRW	3	38	0	0	300	300	2000	0	0	0	1	blank2r.bmp	0	1	+	0	1	blank2r.bmp	252	1	ZHHZ	306	1	küssen	559	1	FEHLER	2598	1	Schneller!	2598	0	0	0	0	0	0	0	0	0	0	0	0	0	0	0	0	0	0	0	0	0	0	0	0	0	0	0	0	0	0	0	0	0
071019	12:23:03	12:34:09	665161	5.0.10.0	5_exp_noRW	38	Rpleas_acq	CS_A	CPPC	ZHHZ	DXXD	YFFY	LWWL	JQQJ	genießen	träumen	gütig	küssen	sonnig	vertrauen	gemein	töten	gierig	krank	sterben	versagen	47pct	acq_USpleas_CSpleas1_noRW	acq23456_noRW	3	39	0	0	300	300	630	46	0	0	1	blank2r.bmp	0	1	+	0	1	blank2r.bmp	252	1	CPPC	306	2	träumen	559	1	FEHLER	1226	0	0	0	0	0	0	0	0	0	0	0	0	0	0	0	0	0	0	0	0	0	0	0	0	0	0	0	0	0	0	0	0	0	0	0	0
071019	12:23:03	12:34:12	668653	5.0.10.0	5_exp_noRW	38	Rpleas_acq	CS_A	CPPC	ZHHZ	DXXD	YFFY	LWWL	JQQJ	genießen	träumen	gütig	küssen	sonnig	vertrauen	gemein	töten	gierig	krank	sterben	versagen	53pct	acq_USunple_CSunple1_noRW	acq23456_noRW	3	40	0	0	300	300	2000	0	0	0	1	blank2r.bmp	0	1	+	0	1	blank2r.bmp	252	1	DXXD	306	2	töten	559	1	FEHLER	2598	1	Schneller!	2598	0	0	0	0	0	0	0	0	0	0	0	0	0	0	0	0	0	0	0	0	0	0	0	0	0	0	0	0	0	0	0	0	0
071019	12:23:03	12:34:16	672065	5.0.10.0	5_exp_noRW	38	Rpleas_acq	CS_A	CPPC	ZHHZ	DXXD	YFFY	LWWL	JQQJ	genießen	träumen	gütig	küssen	sonnig	vertrauen	gemein	töten	gierig	krank	sterben	versagen	53pct	acq_USunple_CSunple2_noRW	acq23456_noRW	3	41	0	0	300	300	2000	0	0	0	1	blank2r.bmp	0	1	+	0	1	blank2r.bmp	252	1	YFFY	306	1	krank	559	1	FEHLER	2598	1	Schneller!	2598	0	0	0	0	0	0	0	0	0	0	0	0	0	0	0	0	0	0	0	0	0	0	0	0	0	0	0	0	0	0	0	0	0
071019	12:23:03	12:34:17	673851	5.0.10.0	5_exp_noRW	38	Rpleas_acq	CS_A	CPPC	ZHHZ	DXXD	YFFY	LWWL	JQQJ	genießen	träumen	gütig	küssen	sonnig	vertrauen	gemein	töten	gierig	krank	sterben	versagen	47pct	acq_USpleas_CSpleas1_noRW	acq23456_noRW	3	42	0	0	300	300	683	46	0	0	1	blank2r.bmp	0	1	+	0	1	blank2r.bmp	252	1	CPPC	306	3	gütig	559	1	FEHLER	1279	0	0	0	0	0	0	0	0	0	0	0	0	0	0	0	0	0	0	0	0	0	0	0	0	0	0	0	0	0	0	0	0	0	0	0	0
071019	12:23:03	12:34:21	677343	5.0.10.0	5_exp_noRW	38	Rpleas_acq	CS_A	CPPC	ZHHZ	DXXD	YFFY	LWWL	JQQJ	genießen	träumen	gütig	küssen	sonnig	vertrauen	gemein	töten	gierig	krank	sterben	versagen	53pct	acq_USpleas_CSunple1_noRW	acq23456_noRW	3	43	0	0	300	300	2000	0	0	0	1	blank2r.bmp	0	1	+	0	1	blank2r.bmp	252	1	DXXD	306	1	genießen	559	1	FEHLER	2598	1	Schneller!	2598	0	0	0	0	0	0	0	0	0	0	0	0	0	0	0	0	0	0	0	0	0	0	0	0	0	0	0	0	0	0	0	0	0
071019	12:23:03	12:34:24	680754	5.0.10.0	5_exp_noRW	38	Rpleas_acq	CS_A	CPPC	ZHHZ	DXXD	YFFY	LWWL	JQQJ	genießen	träumen	gütig	küssen	sonnig	vertrauen	gemein	töten	gierig	krank	sterben	versagen	47pct	acq_USpleas_CSunple2_noRW	acq23456_noRW	3	44	0	0	300	300	2000	0	0	0	1	blank2r.bmp	0	1	+	0	1	blank2r.bmp	252	1	YFFY	306	1	küssen	559	1	FEHLER	2598	1	Schneller!	2598	0	0	0	0	0	0	0	0	0	0	0	0	0	0	0	0	0	0	0	0	0	0	0	0	0	0	0	0	0	0	0	0	0
071019	12:23:03	12:34:28	684153	5.0.10.0	5_exp_noRW	38	Rpleas_acq	CS_A	CPPC	ZHHZ	DXXD	YFFY	LWWL	JQQJ	genießen	träumen	gütig	küssen	sonnig	vertrauen	gemein	töten	gierig	krank	sterben	versagen	47pct	acq_USunple_CSunple2_noRW	acq23456_noRW	3	45	0	0	300	300	2000	0	0	0	1	blank2r.bmp	0	1	+	0	1	blank2r.bmp	252	1	YFFY	306	2	sterben	559	1	FEHLER	2598	1	Schneller!	2598	0	0	0	0	0	0	0	0	0	0	0	0	0	0	0	0	0	0	0	0	0	0	0	0	0	0	0	0	0	0	0	0	0
071019	12:23:03	12:34:31	687565	5.0.10.0	5_exp_noRW	38	Rpleas_acq	CS_A	CPPC	ZHHZ	DXXD	YFFY	LWWL	JQQJ	genießen	träumen	gütig	küssen	sonnig	vertrauen	gemein	töten	gierig	krank	sterben	versagen	47pct	acq_USpleas_CSpleas2_noRW	acq23456_noRW	3	46	0	0	300	300	2000	0	0	0	1	blank2r.bmp	0	1	+	0	1	blank2r.bmp	252	1	ZHHZ	306	2	sonnig	559	1	FEHLER	2598	1	Schneller!	2598	0	0	0	0	0	0	0	0	0	0	0	0	0	0	0	0	0	0	0	0	0	0	0	0	0	0	0	0	0	0	0	0	0
071019	12:23:03	12:34:35	690977	5.0.10.0	5_exp_noRW	38	Rpleas_acq	CS_A	CPPC	ZHHZ	DXXD	YFFY	LWWL	JQQJ	genießen	träumen	gütig	küssen	sonnig	vertrauen	gemein	töten	gierig	krank	sterben	versagen	47pct	acq_USunple_CSunple1_noRW	acq23456_noRW	3	47	0	0	300	300	2000	0	0	0	1	blank2r.bmp	0	1	+	0	1	blank2r.bmp	252	1	DXXD	306	1	gemein	559	1	FEHLER	2598	1	Schneller!	2598	0	0	0	0	0	0	0	0	0	0	0	0	0	0	0	0	0	0	0	0	0	0	0	0	0	0	0	0	0	0	0	0	0
071019	12:23:03	12:34:38	694389	5.0.10.0	5_exp_noRW	38	Rpleas_acq	CS_A	CPPC	ZHHZ	DXXD	YFFY	LWWL	JQQJ	genießen	träumen	gütig	küssen	sonnig	vertrauen	gemein	töten	gierig	krank	sterben	versagen	53pct	acq_USunple_CSunple1_noRW	acq23456_noRW	3	48	0	0	300	300	2000	0	0	0	1	blank2r.bmp	0	1	+	0	1	blank2r.bmp	252	1	DXXD	306	3	gierig	559	1	FEHLER	2598	1	Schneller!	2598	0	0	0	0	0	0	0	0	0	0	0	0	0	0	0	0	0	0	0	0	0	0	0	0	0	0	0	0	0	0	0	0	0
071019	12:23:03	12:34:41	697801	5.0.10.0	5_exp_noRW	38	Rpleas_acq	CS_A	CPPC	ZHHZ	DXXD	YFFY	LWWL	JQQJ	genießen	träumen	gütig	küssen	sonnig	vertrauen	gemein	töten	gierig	krank	sterben	versagen	53pct	acq_USunple_CSunple2_noRW	acq23456_noRW	3	49	0	0	300	300	2000	0	0	0	1	blank2r.bmp	0	1	+	0	1	blank2r.bmp	252	1	YFFY	306	3	versagen	559	1	FEHLER	2598	1	Schneller!	2598	0	0	0	0	0	0	0	0	0	0	0	0	0	0	0	0	0	0	0	0	0	0	0	0	0	0	0	0	0	0	0	0	0
071019	12:23:03	12:34:43	699667	5.0.10.0	5_exp_noRW	38	Rpleas_acq	CS_A	CPPC	ZHHZ	DXXD	YFFY	LWWL	JQQJ	genießen	träumen	gütig	küssen	sonnig	vertrauen	gemein	töten	gierig	krank	sterben	versagen	53pct	acq_USpleas_CSpleas1_noRW	acq23456_noRW	3	50	0	0	300	300	758	46	0	0	1	blank2r.bmp	0	1	+	0	1	blank2r.bmp	252	1	CPPC	306	1	genießen	559	1	FEHLER	1346	0	0	0	0	0	0	0	0	0	0	0	0	0	0	0	0	0	0	0	0	0	0	0	0	0	0	0	0	0	0	0	0	0	0	0	0
071019	12:23:03	12:34:45	700893	5.0.10.0	5_exp_noRW	38	Rpleas_acq	CS_A	CPPC	ZHHZ	DXXD	YFFY	LWWL	JQQJ	genießen	träumen	gütig	küssen	sonnig	vertrauen	gemein	töten	gierig	krank	sterben	versagen	47pct	acq_USunple_CSpleas1_noRW	acq23456_noRW	3	51	0	0	300	300	259	46	0	1	1	blank2r.bmp	0	1	+	0	1	blank2r.bmp	252	1	CPPC	306	2	töten	559	0	0	0	0	0	0	0	0	0	0	0	0	0	0	0	0	0	0	0	0	0	0	0	0	0	0	0	0	0	0	0	0	0	0	0	0	0	0	0
071019	12:23:03	12:34:48	704598	5.0.10.0	5_exp_noRW	38	Rpleas_acq	CS_A	CPPC	ZHHZ	DXXD	YFFY	LWWL	JQQJ	genießen	träumen	gütig	küssen	sonnig	vertrauen	gemein	töten	gierig	krank	sterben	versagen	47pct	acq_USunple_CSunple2_noRW	acq23456_noRW	3	52	0	0	300	300	2000	0	0	0	1	blank2r.bmp	0	1	+	0	1	blank2r.bmp	252	1	YFFY	306	1	krank	559	1	FEHLER	2598	1	Schneller!	2598	0	0	0	0	0	0	0	0	0	0	0	0	0	0	0	0	0	0	0	0	0	0	0	0	0	0	0	0	0	0	0	0	0
071019	12:23:03	12:34:50	706650	5.0.10.0	5_exp_noRW	38	Rpleas_acq	CS_A	CPPC	ZHHZ	DXXD	YFFY	LWWL	JQQJ	genießen	träumen	gütig	küssen	sonnig	vertrauen	gemein	töten	gierig	krank	sterben	versagen	53pct	acq_USpleas_CSpleas1_noRW	acq23456_noRW	3	53	0	0	300	300	937	46	0	0	1	blank2r.bmp	0	1	+	0	1	blank2r.bmp	252	1	CPPC	306	2	träumen	559	1	FEHLER	1532	0	0	0	0	0	0	0	0	0	0	0	0	0	0	0	0	0	0	0	0	0	0	0	0	0	0	0	0	0	0	0	0	0	0	0	0
071019	12:23:03	12:34:54	710115	5.0.10.0	5_exp_noRW	38	Rpleas_acq	CS_A	CPPC	ZHHZ	DXXD	YFFY	LWWL	JQQJ	genießen	träumen	gütig	küssen	sonnig	vertrauen	gemein	töten	gierig	krank	sterben	versagen	53pct	acq_USunple_CSunple1_noRW	acq23456_noRW	3	54	0	0	300	300	2000	0	0	0	1	blank2r.bmp	0	1	+	0	1	blank2r.bmp	252	1	DXXD	306	3	gierig	559	1	FEHLER	2598	1	Schneller!	2598	0	0	0	0	0	0	0	0	0	0	0	0	0	0	0	0	0	0	0	0	0	0	0	0	0	0	0	0	0	0	0	0	0
071019	12:23:03	12:34:57	713527	5.0.10.0	5_exp_noRW	38	Rpleas_acq	CS_A	CPPC	ZHHZ	DXXD	YFFY	LWWL	JQQJ	genießen	träumen	gütig	küssen	sonnig	vertrauen	gemein	töten	gierig	krank	sterben	versagen	47pct	acq_USpleas_CSpleas2_noRW	acq23456_noRW	3	55	0	0	300	300	2000	0	0	0	1	blank2r.bmp	0	1	+	0	1	blank2r.bmp	252	1	ZHHZ	306	3	vertrauen	559	1	FEHLER	2598	1	Schneller!	2598	0	0	0	0	0	0	0	0	0	0	0	0	0	0	0	0	0	0	0	0	0	0	0	0	0	0	0	0	0	0	0	0	0
071019	12:23:03	12:35:01	716953	5.0.10.0	5_exp_noRW	38	Rpleas_acq	CS_A	CPPC	ZHHZ	DXXD	YFFY	LWWL	JQQJ	genießen	träumen	gütig	küssen	sonnig	vertrauen	gemein	töten	gierig	krank	sterben	versagen	47pct	acq_USunple_CSpleas2_noRW	acq23456_noRW	3	56	0	0	300	300	2000	0	0	0	1	blank2r.bmp	0	1	+	0	1	blank2r.bmp	252	1	ZHHZ	306	2	sterben	559	1	FEHLER	2598	1	Schneller!	2598	0	0	0	0	0	0	0	0	0	0	0	0	0	0	0	0	0	0	0	0	0	0	0	0	0	0	0	0	0	0	0	0	0
071019	12:23:03	12:35:04	720364	5.0.10.0	5_exp_noRW	38	Rpleas_acq	CS_A	CPPC	ZHHZ	DXXD	YFFY	LWWL	JQQJ	genießen	träumen	gütig	küssen	sonnig	vertrauen	gemein	töten	gierig	krank	sterben	versagen	47pct	acq_USpleas_CSpleas2_noRW	acq23456_noRW	3	57	0	0	300	300	2000	0	0	0	1	blank2r.bmp	0	1	+	0	1	blank2r.bmp	252	1	ZHHZ	306	3	vertrauen	559	1	FEHLER	2598	1	Schneller!	2598	0	0	0	0	0	0	0	0	0	0	0	0	0	0	0	0	0	0	0	0	0	0	0	0	0	0	0	0	0	0	0	0	0
071019	12:23:03	12:35:07	723776	5.0.10.0	5_exp_noRW	38	Rpleas_acq	CS_A	CPPC	ZHHZ	DXXD	YFFY	LWWL	JQQJ	genießen	träumen	gütig	küssen	sonnig	vertrauen	gemein	töten	gierig	krank	sterben	versagen	53pct	acq_USpleas_CSpleas2_noRW	acq23456_noRW	3	58	0	0	300	300	2000	0	0	0	1	blank2r.bmp	0	1	+	0	1	blank2r.bmp	252	1	ZHHZ	306	2	sonnig	559	1	FEHLER	2598	1	Schneller!	2598	0	0	0	0	0	0	0	0	0	0	0	0	0	0	0	0	0	0	0	0	0	0	0	0	0	0	0	0	0	0	0	0	0
071019	12:23:03	12:35:09	725616	5.0.10.0	5_exp_noRW	38	Rpleas_acq	CS_A	CPPC	ZHHZ	DXXD	YFFY	LWWL	JQQJ	genießen	träumen	gütig	küssen	sonnig	vertrauen	gemein	töten	gierig	krank	sterben	versagen	53pct	acq_USpleas_CSpleas1_noRW	acq23456_noRW	3	59	0	0	300	300	725	46	0	0	1	blank2r.bmp	0	1	+	0	1	blank2r.bmp	252	1	CPPC	306	1	genießen	559	1	FEHLER	1319	0	0	0	0	0	0	0	0	0	0	0	0	0	0	0	0	0	0	0	0	0	0	0	0	0	0	0	0	0	0	0	0	0	0	0	0
071019	12:23:03	12:35:13	729081	5.0.10.0	5_exp_noRW	38	Rpleas_acq	CS_A	CPPC	ZHHZ	DXXD	YFFY	LWWL	JQQJ	genießen	träumen	gütig	küssen	sonnig	vertrauen	gemein	töten	gierig	krank	sterben	versagen	47pct	acq_USunple_CSunple1_noRW	acq23456_noRW	3	60	0	0	300	300	2000	0	0	0	1	blank2r.bmp	0	1	+	0	1	blank2r.bmp	252	1	DXXD	306	2	töten	559	1	FEHLER	2598	1	Schneller!	2598	0	0	0	0	0	0	0	0	0	0	0	0	0	0	0	0	0	0	0	0	0	0	0	0	0	0	0	0	0	0	0	0	0
071019	12:23:03	12:35:16	732493	5.0.10.0	5_exp_noRW	38	Rpleas_acq	CS_A	CPPC	ZHHZ	DXXD	YFFY	LWWL	JQQJ	genießen	träumen	gütig	küssen	sonnig	vertrauen	gemein	töten	gierig	krank	sterben	versagen	53pct	acq_USunple_CSunple1_noRW	acq23456_noRW	3	61	0	0	300	300	2000	0	0	0	1	blank2r.bmp	0	1	+	0	1	blank2r.bmp	252	1	DXXD	306	1	gemein	559	1	FEHLER	2598	1	Schneller!	2598	0	0	0	0	0	0	0	0	0	0	0	0	0	0	0	0	0	0	0	0	0	0	0	0	0	0	0	0	0	0	0	0	0
071019	12:23:03	12:35:20	735905	5.0.10.0	5_exp_noRW	38	Rpleas_acq	CS_A	CPPC	ZHHZ	DXXD	YFFY	LWWL	JQQJ	genießen	träumen	gütig	küssen	sonnig	vertrauen	gemein	töten	gierig	krank	sterben	versagen	53pct	acq_USpleas_CSpleas2_noRW	acq23456_noRW	3	62	0	0	300	300	2000	0	0	0	1	blank2r.bmp	0	1	+	0	1	blank2r.bmp	252	1	ZHHZ	306	1	küssen	559	1	FEHLER	2598	1	Schneller!	2598	0	0	0	0	0	0	0	0	0	0	0	0	0	0	0	0	0	0	0	0	0	0	0	0	0	0	0	0	0	0	0	0	0
071019	12:23:03	12:35:23	739317	5.0.10.0	5_exp_noRW	38	Rpleas_acq	CS_A	CPPC	ZHHZ	DXXD	YFFY	LWWL	JQQJ	genießen	träumen	gütig	küssen	sonnig	vertrauen	gemein	töten	gierig	krank	sterben	versagen	53pct	acq_USpleas_CSunple2_noRW	acq23456_noRW	3	63	0	0	300	300	2000	0	0	0	1	blank2r.bmp	0	1	+	0	1	blank2r.bmp	252	1	YFFY	306	2	sonnig	559	1	FEHLER	2598	1	Schneller!	2598	0	0	0	0	0	0	0	0	0	0	0	0	0	0	0	0	0	0	0	0	0	0	0	0	0	0	0	0	0	0	0	0	0
071019	12:23:03	12:35:26	742728	5.0.10.0	5_exp_noRW	38	Rpleas_acq	CS_A	CPPC	ZHHZ	DXXD	YFFY	LWWL	JQQJ	genießen	träumen	gütig	küssen	sonnig	vertrauen	gemein	töten	gierig	krank	sterben	versagen	53pct	acq_USunple_CSpleas2_noRW	acq23456_noRW	3	64	0	0	300	300	2000	0	0	0	1	blank2r.bmp	0	1	+	0	1	blank2r.bmp	252	1	ZHHZ	306	3	versagen	559	1	FEHLER	2598	1	Schneller!	2598	0	0	0	0	0	0	0	0	0	0	0	0	0	0	0	0	0	0	0	0	0	0	0	0	0	0	0	0	0	0	0	0	0
071019	12:23:03	12:35:28	744448	5.0.10.0	5_exp_noRW	38	Rpleas_acq	CS_A	CPPC	ZHHZ	DXXD	YFFY	LWWL	JQQJ	genießen	träumen	gütig	küssen	sonnig	vertrauen	gemein	töten	gierig	krank	sterben	versagen	47pct	acq_USunple_CSpleas1_noRW	acq23456_noRW	3	65	0	0	300	300	823	46	0	1	1	blank2r.bmp	0	1	+	0	1	blank2r.bmp	252	1	CPPC	306	3	gierig	559	0	0	0	0	0	0	0	0	0	0	0	0	0	0	0	0	0	0	0	0	0	0	0	0	0	0	0	0	0	0	0	0	0	0	0	0	0	0	0
071019	12:23:03	12:35:32	748140	5.0.10.0	5_exp_noRW	38	Rpleas_acq	CS_A	CPPC	ZHHZ	DXXD	YFFY	LWWL	JQQJ	genießen	träumen	gütig	küssen	sonnig	vertrauen	gemein	töten	gierig	krank	sterben	versagen	53pct	acq_USunple_CSunple1_noRW	acq23456_noRW	3	66	0	0	300	300	2000	0	0	0	1	blank2r.bmp	0	1	+	0	1	blank2r.bmp	252	1	DXXD	306	2	töten	559	1	FEHLER	2598	1	Schneller!	2598	0	0	0	0	0	0	0	0	0	0	0	0	0	0	0	0	0	0	0	0	0	0	0	0	0	0	0	0	0	0	0	0	0
071019	12:23:03	12:35:35	751565	5.0.10.0	5_exp_noRW	38	Rpleas_acq	CS_A	CPPC	ZHHZ	DXXD	YFFY	LWWL	JQQJ	genießen	träumen	gütig	küssen	sonnig	vertrauen	gemein	töten	gierig	krank	sterben	versagen	47pct	acq_USunple_CSunple2_noRW	acq23456_noRW	3	67	0	0	300	300	2000	0	0	0	1	blank2r.bmp	0	1	+	0	1	blank2r.bmp	252	1	YFFY	306	2	sterben	559	1	FEHLER	2598	1	Schneller!	2598	0	0	0	0	0	0	0	0	0	0	0	0	0	0	0	0	0	0	0	0	0	0	0	0	0	0	0	0	0	0	0	0	0
071019	12:23:03	12:35:39	754977	5.0.10.0	5_exp_noRW	38	Rpleas_acq	CS_A	CPPC	ZHHZ	DXXD	YFFY	LWWL	JQQJ	genießen	träumen	gütig	küssen	sonnig	vertrauen	gemein	töten	gierig	krank	sterben	versagen	47pct	acq_USunple_CSunple2_noRW	acq23456_noRW	3	68	0	0	300	300	2000	0	0	0	1	blank2r.bmp	0	1	+	0	1	blank2r.bmp	252	1	YFFY	306	3	versagen	559	1	FEHLER	2598	1	Schneller!	2598	0	0	0	0	0	0	0	0	0	0	0	0	0	0	0	0	0	0	0	0	0	0	0	0	0	0	0	0	0	0	0	0	0
071019	12:23:03	12:35:42	758389	5.0.10.0	5_exp_noRW	38	Rpleas_acq	CS_A	CPPC	ZHHZ	DXXD	YFFY	LWWL	JQQJ	genießen	träumen	gütig	küssen	sonnig	vertrauen	gemein	töten	gierig	krank	sterben	versagen	53pct	acq_USunple_CSunple2_noRW	acq23456_noRW	3	69	0	0	300	300	2000	0	0	0	1	blank2r.bmp	0	1	+	0	1	blank2r.bmp	252	1	YFFY	306	2	sterben	559	1	FEHLER	2598	1	Schneller!	2598	0	0	0	0	0	0	0	0	0	0	0	0	0	0	0	0	0	0	0	0	0	0	0	0	0	0	0	0	0	0	0	0	0
071019	12:23:03	12:35:44	760228	5.0.10.0	5_exp_noRW	38	Rpleas_acq	CS_A	CPPC	ZHHZ	DXXD	YFFY	LWWL	JQQJ	genießen	träumen	gütig	küssen	sonnig	vertrauen	gemein	töten	gierig	krank	sterben	versagen	47pct	acq_USpleas_CSpleas1_noRW	acq23456_noRW	3	70	0	0	300	300	719	46	0	0	1	blank2r.bmp	0	1	+	0	1	blank2r.bmp	252	1	CPPC	306	3	gütig	559	1	FEHLER	1319	0	0	0	0	0	0	0	0	0	0	0	0	0	0	0	0	0	0	0	0	0	0	0	0	0	0	0	0	0	0	0	0	0	0	0	0
071019	12:23:03	12:35:45	761747	5.0.10.0	5_exp_noRW	38	Rpleas_acq	CS_A	CPPC	ZHHZ	DXXD	YFFY	LWWL	JQQJ	genießen	träumen	gütig	küssen	sonnig	vertrauen	gemein	töten	gierig	krank	sterben	versagen	47pct	acq_USpleas_CSpleas1_noRW	acq23456_noRW	3	71	0	0	300	300	356	46	0	0	1	blank2r.bmp	0	1	+	0	1	blank2r.bmp	252	1	CPPC	306	2	träumen	559	1	FEHLER	946	0	0	0	0	0	0	0	0	0	0	0	0	0	0	0	0	0	0	0	0	0	0	0	0	0	0	0	0	0	0	0	0	0	0	0	0
071019	12:23:03	12:35:47	763147	5.0.10.0	5_exp_noRW	38	Rpleas_acq	CS_A	CPPC	ZHHZ	DXXD	YFFY	LWWL	JQQJ	genießen	träumen	gütig	küssen	sonnig	vertrauen	gemein	töten	gierig	krank	sterben	versagen	47pct	acq_USpleas_CSpleas1_noRW	acq23456_noRW	3	72	0	0	300	300	218	46	0	0	1	blank2r.bmp	0	1	+	0	1	blank2r.bmp	252	1	CPPC	306	3	gütig	559	1	FEHLER	812	0	0	0	0	0	0	0	0	0	0	0	0	0	0	0	0	0	0	0	0	0	0	0	0	0	0	0	0	0	0	0	0	0	0	0	0
