date	time	script.currenttime	script.elapsedtime	build	script.currentexpt	subject	expressions.LRpleas_acq	expressions.conditionCS_A	expressions.CSpleas_1	expressions.CSpleas_2	expressions.CSunple_1	expressions.CSunple_2	expressions.distractor_1	expressions.distractor_2	expressions.US_pleas1	expressions.US_pleas2	expressions.US_pleas3	expressions.US_pleas4	expressions.US_pleas5	expressions.US_pleas6	expressions.US_unple1	expressions.US_unple2	expressions.US_unple3	expressions.US_unple4	expressions.US_unple5	expressions.US_unple6	counter.positions_noRW	trialcode	blockcode	blocknum	trialnum	windowcenter	inwindow	pretrialpause	posttrialpause	latency	response	expressions.correctedscore	correct	stimulusnumber1	stimulusitem1	stimulusonset1	stimulusnumber2	stimulusitem2	stimulusonset2	stimulusnumber3	stimulusitem3	stimulusonset3	stimulusnumber4	stimulusitem4	stimulusonset4	stimulusnumber5	stimulusitem5	stimulusonset5	stimulusnumber6	stimulusitem6	stimulusonset6	stimulusnumber7	stimulusitem7	stimulusonset7	stimulusnumber8	stimulusitem8	stimulusonset8	stimulusnumber9	stimulusitem9	stimulusonset9	stimulusnumber10	stimulusitem10	stimulusonset10	stimulusnumber11	stimulusitem11	stimulusonset11	stimulusnumber12	stimulusitem12	stimulusonset12	stimulusnumber13	stimulusitem13	stimulusonset13	stimulusnumber14	stimulusitem14	stimulusonset14	stimulusnumber15	stimulusitem15	stimulusonset15	stimulusnumber16	stimulusitem16	stimulusonset16	stimulusnumber17	stimulusitem17	stimulusonset17	stimulusnumber18	stimulusitem18	stimulusonset18
071519	13:22:35	13:23:42	66439	5.0.10.0	5_exp_RW	49	Rpleas_acq	CS_B	BZZB	VKKV	MQQM	YDDY	GWWG	JXXJ	schön	retten	fair	ehrlich	treu	spielen	schlecht	rächen	faul	eitel	tot	strafen	1	acq_USpleas_CSpleas2_RW	acq1_RW	1	1	0	0	300	300	1816	50	0	1	1	blank2r.bmp	0	1	+	0	1	blank2r.bmp	492	1	VKKV	492	1	blank2r.bmp	572	2	treu	866	0	0	0	0	0	0	0	0	0	0	0	0	0	0	0	0	0	0	0	0	0	0	0	0	0	0	0	0	0	0	0	0	0	0	0	0
071519	13:22:35	13:23:44	68811	5.0.10.0	5_exp_RW	49	Rpleas_acq	CS_B	BZZB	VKKV	MQQM	YDDY	GWWG	JXXJ	schön	retten	fair	ehrlich	treu	spielen	schlecht	rächen	faul	eitel	tot	strafen	1	acq_USunple_CSunple2_RW	acq1_RW	1	2	0	0	300	300	893	46	0	1	1	blank2r.bmp	0	1	+	0	1	blank2r.bmp	492	1	YDDY	492	1	blank2r.bmp	572	3	strafen	866	0	0	0	0	0	0	0	0	0	0	0	0	0	0	0	0	0	0	0	0	0	0	0	0	0	0	0	0	0	0	0	0	0	0	0	0
071519	13:22:35	13:23:46	70970	5.0.10.0	5_exp_RW	49	Rpleas_acq	CS_B	BZZB	VKKV	MQQM	YDDY	GWWG	JXXJ	schön	retten	fair	ehrlich	treu	spielen	schlecht	rächen	faul	eitel	tot	strafen	1	acq_USpleas_CSpleas2_RW	acq1_RW	1	3	0	0	300	300	686	50	0	1	1	blank2r.bmp	0	1	+	0	1	blank2r.bmp	492	1	VKKV	492	1	blank2r.bmp	572	1	ehrlich	866	0	0	0	0	0	0	0	0	0	0	0	0	0	0	0	0	0	0	0	0	0	0	0	0	0	0	0	0	0	0	0	0	0	0	0	0
071519	13:22:35	13:23:48	73143	5.0.10.0	5_exp_RW	49	Rpleas_acq	CS_B	BZZB	VKKV	MQQM	YDDY	GWWG	JXXJ	schön	retten	fair	ehrlich	treu	spielen	schlecht	rächen	faul	eitel	tot	strafen	1	acq_USpleas_CSpleas1_RW	acq1_RW	1	4	0	0	300	300	681	50	0	1	1	blank2r.bmp	0	1	+	0	1	blank2r.bmp	492	1	BZZB	492	1	blank2r.bmp	572	1	schön	866	0	0	0	0	0	0	0	0	0	0	0	0	0	0	0	0	0	0	0	0	0	0	0	0	0	0	0	0	0	0	0	0	0	0	0	0
071519	13:22:35	13:23:51	75248	5.0.10.0	5_exp_RW	49	Rpleas_acq	CS_B	BZZB	VKKV	MQQM	YDDY	GWWG	JXXJ	schön	retten	fair	ehrlich	treu	spielen	schlecht	rächen	faul	eitel	tot	strafen	1	acq_USpleas_CSpleas1_RW	acq1_RW	1	5	0	0	300	300	634	50	0	1	1	blank2r.bmp	0	1	+	0	1	blank2r.bmp	492	1	BZZB	492	1	blank2r.bmp	572	3	fair	866	0	0	0	0	0	0	0	0	0	0	0	0	0	0	0	0	0	0	0	0	0	0	0	0	0	0	0	0	0	0	0	0	0	0	0	0
071519	13:22:35	13:23:53	77567	5.0.10.0	5_exp_RW	49	Rpleas_acq	CS_B	BZZB	VKKV	MQQM	YDDY	GWWG	JXXJ	schön	retten	fair	ehrlich	treu	spielen	schlecht	rächen	faul	eitel	tot	strafen	1	acq_USpleas_CSpleas2_RW	acq1_RW	1	6	0	0	300	300	848	50	0	1	1	blank2r.bmp	0	1	+	0	1	blank2r.bmp	492	1	VKKV	492	1	blank2r.bmp	572	3	spielen	866	0	0	0	0	0	0	0	0	0	0	0	0	0	0	0	0	0	0	0	0	0	0	0	0	0	0	0	0	0	0	0	0	0	0	0	0
071519	13:22:35	13:23:55	79713	5.0.10.0	5_exp_RW	49	Rpleas_acq	CS_B	BZZB	VKKV	MQQM	YDDY	GWWG	JXXJ	schön	retten	fair	ehrlich	treu	spielen	schlecht	rächen	faul	eitel	tot	strafen	1	acq_USunple_CSunple2_RW	acq1_RW	1	7	0	0	300	300	663	46	0	1	1	blank2r.bmp	0	1	+	0	1	blank2r.bmp	492	1	YDDY	492	1	blank2r.bmp	572	2	tot	866	0	0	0	0	0	0	0	0	0	0	0	0	0	0	0	0	0	0	0	0	0	0	0	0	0	0	0	0	0	0	0	0	0	0	0	0
071519	13:22:35	13:23:57	81846	5.0.10.0	5_exp_RW	49	Rpleas_acq	CS_B	BZZB	VKKV	MQQM	YDDY	GWWG	JXXJ	schön	retten	fair	ehrlich	treu	spielen	schlecht	rächen	faul	eitel	tot	strafen	1	acq_USunple_CSunple2_RW	acq1_RW	1	8	0	0	300	300	648	46	0	1	1	blank2r.bmp	0	1	+	0	1	blank2r.bmp	492	1	YDDY	492	1	blank2r.bmp	572	1	eitel	866	0	0	0	0	0	0	0	0	0	0	0	0	0	0	0	0	0	0	0	0	0	0	0	0	0	0	0	0	0	0	0	0	0	0	0	0
071519	13:22:35	13:23:59	83818	5.0.10.0	5_exp_RW	49	Rpleas_acq	CS_B	BZZB	VKKV	MQQM	YDDY	GWWG	JXXJ	schön	retten	fair	ehrlich	treu	spielen	schlecht	rächen	faul	eitel	tot	strafen	1	acq_USunple_CSunple1_RW	acq1_RW	1	9	0	0	300	300	496	46	0	1	1	blank2r.bmp	0	1	+	0	1	blank2r.bmp	492	1	MQQM	492	1	blank2r.bmp	572	1	schlecht	866	0	0	0	0	0	0	0	0	0	0	0	0	0	0	0	0	0	0	0	0	0	0	0	0	0	0	0	0	0	0	0	0	0	0	0	0
071519	13:22:35	13:24:01	85937	5.0.10.0	5_exp_RW	49	Rpleas_acq	CS_B	BZZB	VKKV	MQQM	YDDY	GWWG	JXXJ	schön	retten	fair	ehrlich	treu	spielen	schlecht	rächen	faul	eitel	tot	strafen	1	acq_USunple_CSunple2_RW	acq1_RW	1	10	0	0	300	300	641	46	0	1	1	blank2r.bmp	0	1	+	0	1	blank2r.bmp	492	1	YDDY	492	1	blank2r.bmp	572	1	eitel	866	0	0	0	0	0	0	0	0	0	0	0	0	0	0	0	0	0	0	0	0	0	0	0	0	0	0	0	0	0	0	0	0	0	0	0	0
071519	13:22:35	13:24:03	88176	5.0.10.0	5_exp_RW	49	Rpleas_acq	CS_B	BZZB	VKKV	MQQM	YDDY	GWWG	JXXJ	schön	retten	fair	ehrlich	treu	spielen	schlecht	rächen	faul	eitel	tot	strafen	1	acq_USpleas_CSpleas2_RW	acq1_RW	1	11	0	0	300	300	769	50	0	1	1	blank2r.bmp	0	1	+	0	1	blank2r.bmp	492	1	VKKV	492	1	blank2r.bmp	572	2	treu	866	0	0	0	0	0	0	0	0	0	0	0	0	0	0	0	0	0	0	0	0	0	0	0	0	0	0	0	0	0	0	0	0	0	0	0	0
071519	13:22:35	13:24:06	90535	5.0.10.0	5_exp_RW	49	Rpleas_acq	CS_B	BZZB	VKKV	MQQM	YDDY	GWWG	JXXJ	schön	retten	fair	ehrlich	treu	spielen	schlecht	rächen	faul	eitel	tot	strafen	1	acq_USpleas_CSpleas1_RW	acq1_RW	1	12	0	0	300	300	869	50	0	1	1	blank2r.bmp	0	1	+	0	1	blank2r.bmp	492	1	BZZB	492	1	blank2r.bmp	572	2	retten	866	0	0	0	0	0	0	0	0	0	0	0	0	0	0	0	0	0	0	0	0	0	0	0	0	0	0	0	0	0	0	0	0	0	0	0	0
071519	13:22:35	13:24:08	92828	5.0.10.0	5_exp_RW	49	Rpleas_acq	CS_B	BZZB	VKKV	MQQM	YDDY	GWWG	JXXJ	schön	retten	fair	ehrlich	treu	spielen	schlecht	rächen	faul	eitel	tot	strafen	1	acq_USunple_CSunple1_RW	acq1_RW	1	13	0	0	300	300	820	46	0	1	1	blank2r.bmp	0	1	+	0	1	blank2r.bmp	492	1	MQQM	492	1	blank2r.bmp	572	3	faul	866	0	0	0	0	0	0	0	0	0	0	0	0	0	0	0	0	0	0	0	0	0	0	0	0	0	0	0	0	0	0	0	0	0	0	0	0
071519	13:22:35	13:24:10	94974	5.0.10.0	5_exp_RW	49	Rpleas_acq	CS_B	BZZB	VKKV	MQQM	YDDY	GWWG	JXXJ	schön	retten	fair	ehrlich	treu	spielen	schlecht	rächen	faul	eitel	tot	strafen	1	acq_USunple_CSunple1_RW	acq1_RW	1	14	0	0	300	300	675	46	0	1	1	blank2r.bmp	0	1	+	0	1	blank2r.bmp	492	1	MQQM	492	1	blank2r.bmp	572	2	rächen	866	0	0	0	0	0	0	0	0	0	0	0	0	0	0	0	0	0	0	0	0	0	0	0	0	0	0	0	0	0	0	0	0	0	0	0	0
071519	13:22:35	13:24:12	97013	5.0.10.0	5_exp_RW	49	Rpleas_acq	CS_B	BZZB	VKKV	MQQM	YDDY	GWWG	JXXJ	schön	retten	fair	ehrlich	treu	spielen	schlecht	rächen	faul	eitel	tot	strafen	1	acq_USunple_CSunple1_RW	acq1_RW	1	15	0	0	300	300	549	46	0	1	1	blank2r.bmp	0	1	+	0	1	blank2r.bmp	492	1	MQQM	492	1	blank2r.bmp	572	1	schlecht	866	0	0	0	0	0	0	0	0	0	0	0	0	0	0	0	0	0	0	0	0	0	0	0	0	0	0	0	0	0	0	0	0	0	0	0	0
071519	13:22:35	13:24:14	99039	5.0.10.0	5_exp_RW	49	Rpleas_acq	CS_B	BZZB	VKKV	MQQM	YDDY	GWWG	JXXJ	schön	retten	fair	ehrlich	treu	spielen	schlecht	rächen	faul	eitel	tot	strafen	1	acq_USpleas_CSpleas1_RW	acq1_RW	1	16	0	0	300	300	548	50	0	1	1	blank2r.bmp	0	1	+	0	1	blank2r.bmp	492	1	BZZB	492	1	blank2r.bmp	572	1	schön	866	0	0	0	0	0	0	0	0	0	0	0	0	0	0	0	0	0	0	0	0	0	0	0	0	0	0	0	0	0	0	0	0	0	0	0	0
071519	13:22:35	13:24:49	133878	5.0.10.0	5_exp_RW	49	Rpleas_acq	CS_B	BZZB	VKKV	MQQM	YDDY	GWWG	JXXJ	schön	retten	fair	ehrlich	treu	spielen	schlecht	rächen	faul	eitel	tot	strafen	1	acq_USunple_CSunple1_RW	acq2_RW	2	1	480	0	300	300	7021	46	0	1	1	blank2r.bmp	0	1	+	0	1	blank2r.bmp	492	1	MQQM	492	1	blank2r.bmp	572	2	rächen	866	1	!	1319	1	!	-1	0	0	0	0	0	0	0	0	0	0	0	0	0	0	0	0	0	0	0	0	0	0	0	0	0	0	0	0	0	0
071519	13:22:35	13:24:52	136517	5.0.10.0	5_exp_RW	49	Rpleas_acq	CS_B	BZZB	VKKV	MQQM	YDDY	GWWG	JXXJ	schön	retten	fair	ehrlich	treu	spielen	schlecht	rächen	faul	eitel	tot	strafen	1	acq_USpleas_CSpleas2_RW	acq2_RW	2	2	480	0	300	300	862	50	0	1	1	blank2r.bmp	0	1	+	0	1	blank2r.bmp	492	1	VKKV	492	1	blank2r.bmp	572	3	spielen	866	1	!	1319	1	!	-1	0	0	0	0	0	0	0	0	0	0	0	0	0	0	0	0	0	0	0	0	0	0	0	0	0	0	0	0	0	0
071519	13:22:35	13:24:54	138782	5.0.10.0	5_exp_RW	49	Rpleas_acq	CS_B	BZZB	VKKV	MQQM	YDDY	GWWG	JXXJ	schön	retten	fair	ehrlich	treu	spielen	schlecht	rächen	faul	eitel	tot	strafen	1	acq_USunple_CSunple2_RW	acq2_RW	2	3	480	1	300	300	463	46	0	1	1	blank2r.bmp	0	1	+	0	1	blank2r.bmp	492	1	YDDY	492	1	blank2r.bmp	572	3	strafen	866	1	!	1319	1	!	1359	0	0	0	0	0	0	0	0	0	0	0	0	0	0	0	0	0	0	0	0	0	0	0	0	0	0	0	0	0	0
071519	13:22:35	13:24:56	141168	5.0.10.0	5_exp_RW	49	Rpleas_acq	CS_B	BZZB	VKKV	MQQM	YDDY	GWWG	JXXJ	schön	retten	fair	ehrlich	treu	spielen	schlecht	rächen	faul	eitel	tot	strafen	1	acq_USpleas_CSpleas1_RW	acq2_RW	2	4	480	0	300	300	378	46	0	0	1	blank2r.bmp	0	1	+	0	1	blank2r.bmp	492	1	BZZB	492	1	blank2r.bmp	572	3	fair	866	1	FEHLER	1586	1	!	-1	1	!	-1	0	0	0	0	0	0	0	0	0	0	0	0	0	0	0	0	0	0	0	0	0	0	0	0	0	0	0
071519	13:22:35	13:24:59	143354	5.0.10.0	5_exp_RW	49	Rpleas_acq	CS_B	BZZB	VKKV	MQQM	YDDY	GWWG	JXXJ	schön	retten	fair	ehrlich	treu	spielen	schlecht	rächen	faul	eitel	tot	strafen	1	acq_USunple_CSunple1_RW	acq2_RW	2	5	480	0	300	300	633	46	0	1	1	blank2r.bmp	0	1	+	0	1	blank2r.bmp	492	1	MQQM	492	1	blank2r.bmp	572	3	faul	866	1	!	1319	1	!	-1	0	0	0	0	0	0	0	0	0	0	0	0	0	0	0	0	0	0	0	0	0	0	0	0	0	0	0	0	0	0
071519	13:22:35	13:25:01	145606	5.0.10.0	5_exp_RW	49	Rpleas_acq	CS_B	BZZB	VKKV	MQQM	YDDY	GWWG	JXXJ	schön	retten	fair	ehrlich	treu	spielen	schlecht	rächen	faul	eitel	tot	strafen	1	acq_USunple_CSunple1_RW	acq2_RW	2	6	480	1	300	300	439	46	0	1	1	blank2r.bmp	0	1	+	0	1	blank2r.bmp	492	1	MQQM	492	1	blank2r.bmp	572	3	faul	866	1	!	1319	1	!	1346	0	0	0	0	0	0	0	0	0	0	0	0	0	0	0	0	0	0	0	0	0	0	0	0	0	0	0	0	0	0
071519	13:22:35	13:25:03	147832	5.0.10.0	5_exp_RW	49	Rpleas_acq	CS_B	BZZB	VKKV	MQQM	YDDY	GWWG	JXXJ	schön	retten	fair	ehrlich	treu	spielen	schlecht	rächen	faul	eitel	tot	strafen	1	acq_USunple_CSunple1_RW	acq2_RW	2	7	480	1	300	300	436	46	0	1	1	blank2r.bmp	0	1	+	0	1	blank2r.bmp	492	1	MQQM	492	1	blank2r.bmp	572	1	schlecht	866	1	!	1319	1	!	1332	0	0	0	0	0	0	0	0	0	0	0	0	0	0	0	0	0	0	0	0	0	0	0	0	0	0	0	0	0	0
071519	13:22:35	13:25:05	150071	5.0.10.0	5_exp_RW	49	Rpleas_acq	CS_B	BZZB	VKKV	MQQM	YDDY	GWWG	JXXJ	schön	retten	fair	ehrlich	treu	spielen	schlecht	rächen	faul	eitel	tot	strafen	1	acq_USunple_CSunple1_RW	acq2_RW	2	8	480	1	300	300	437	46	0	1	1	blank2r.bmp	0	1	+	0	1	blank2r.bmp	492	1	MQQM	492	1	blank2r.bmp	572	2	rächen	866	1	!	1319	1	!	1332	0	0	0	0	0	0	0	0	0	0	0	0	0	0	0	0	0	0	0	0	0	0	0	0	0	0	0	0	0	0
071519	13:22:35	13:25:09	154123	5.0.10.0	5_exp_RW	49	Rpleas_acq	CS_B	BZZB	VKKV	MQQM	YDDY	GWWG	JXXJ	schön	retten	fair	ehrlich	treu	spielen	schlecht	rächen	faul	eitel	tot	strafen	1	acq_USpleas_CSpleas1_RW	acq2_RW	2	9	480	0	300	300	2056	46	0	0	1	blank2r.bmp	0	1	+	0	1	blank2r.bmp	492	1	BZZB	492	1	blank2r.bmp	572	2	retten	866	1	FEHLER	3265	1	!	1319	1	!	-1	0	0	0	0	0	0	0	0	0	0	0	0	0	0	0	0	0	0	0	0	0	0	0	0	0	0	0
071519	13:22:35	13:25:11	156069	5.0.10.0	5_exp_RW	49	Rpleas_acq	CS_B	BZZB	VKKV	MQQM	YDDY	GWWG	JXXJ	schön	retten	fair	ehrlich	treu	spielen	schlecht	rächen	faul	eitel	tot	strafen	1	acq_USpleas_CSpleas1_RW	acq2_RW	2	10	480	0	300	300	397	50	0	1	1	blank2r.bmp	0	1	+	0	1	blank2r.bmp	492	1	BZZB	492	1	blank2r.bmp	572	1	schön	866	1	!	-1	1	!	-1	0	0	0	0	0	0	0	0	0	0	0	0	0	0	0	0	0	0	0	0	0	0	0	0	0	0	0	0	0	0
071519	13:22:35	13:25:14	158481	5.0.10.0	5_exp_RW	49	Rpleas_acq	CS_B	BZZB	VKKV	MQQM	YDDY	GWWG	JXXJ	schön	retten	fair	ehrlich	treu	spielen	schlecht	rächen	faul	eitel	tot	strafen	1	acq_USpleas_CSpleas1_RW	acq2_RW	2	11	480	0	300	300	634	50	0	1	1	blank2r.bmp	0	1	+	0	1	blank2r.bmp	492	1	BZZB	492	1	blank2r.bmp	572	3	fair	866	1	!	1319	1	!	-1	0	0	0	0	0	0	0	0	0	0	0	0	0	0	0	0	0	0	0	0	0	0	0	0	0	0	0	0	0	0
071519	13:22:35	13:25:16	160867	5.0.10.0	5_exp_RW	49	Rpleas_acq	CS_B	BZZB	VKKV	MQQM	YDDY	GWWG	JXXJ	schön	retten	fair	ehrlich	treu	spielen	schlecht	rächen	faul	eitel	tot	strafen	1	acq_USpleas_CSpleas2_RW	acq2_RW	2	12	480	0	300	300	601	50	0	1	1	blank2r.bmp	0	1	+	0	1	blank2r.bmp	492	1	VKKV	492	1	blank2r.bmp	572	1	ehrlich	866	1	!	1319	1	!	-1	0	0	0	0	0	0	0	0	0	0	0	0	0	0	0	0	0	0	0	0	0	0	0	0	0	0	0	0	0	0
071519	13:22:35	13:25:18	163026	5.0.10.0	5_exp_RW	49	Rpleas_acq	CS_B	BZZB	VKKV	MQQM	YDDY	GWWG	JXXJ	schön	retten	fair	ehrlich	treu	spielen	schlecht	rächen	faul	eitel	tot	strafen	1	acq_USpleas_CSpleas2_RW	acq2_RW	2	13	480	0	300	300	375	50	0	1	1	blank2r.bmp	0	1	+	0	1	blank2r.bmp	492	1	VKKV	492	1	blank2r.bmp	572	2	treu	866	1	!	-1	1	!	-1	0	0	0	0	0	0	0	0	0	0	0	0	0	0	0	0	0	0	0	0	0	0	0	0	0	0	0	0	0	0
071519	13:22:35	13:25:21	165305	5.0.10.0	5_exp_RW	49	Rpleas_acq	CS_B	BZZB	VKKV	MQQM	YDDY	GWWG	JXXJ	schön	retten	fair	ehrlich	treu	spielen	schlecht	rächen	faul	eitel	tot	strafen	1	acq_USunple_CSunple2_RW	acq2_RW	2	14	480	1	300	300	472	46	0	1	1	blank2r.bmp	0	1	+	0	1	blank2r.bmp	492	1	YDDY	492	1	blank2r.bmp	572	2	tot	866	1	!	1319	1	!	1372	0	0	0	0	0	0	0	0	0	0	0	0	0	0	0	0	0	0	0	0	0	0	0	0	0	0	0	0	0	0
071519	13:22:35	13:25:23	168077	5.0.10.0	5_exp_RW	49	Rpleas_acq	CS_B	BZZB	VKKV	MQQM	YDDY	GWWG	JXXJ	schön	retten	fair	ehrlich	treu	spielen	schlecht	rächen	faul	eitel	tot	strafen	1	acq_USpleas_CSpleas1_RW	acq2_RW	2	15	480	0	300	300	780	46	0	0	1	blank2r.bmp	0	1	+	0	1	blank2r.bmp	492	1	BZZB	492	1	blank2r.bmp	572	2	retten	866	1	FEHLER	1985	1	!	1319	1	!	-1	0	0	0	0	0	0	0	0	0	0	0	0	0	0	0	0	0	0	0	0	0	0	0	0	0	0	0
071519	13:22:35	13:25:25	169996	5.0.10.0	5_exp_RW	49	Rpleas_acq	CS_B	BZZB	VKKV	MQQM	YDDY	GWWG	JXXJ	schön	retten	fair	ehrlich	treu	spielen	schlecht	rächen	faul	eitel	tot	strafen	1	acq_USpleas_CSpleas1_RW	acq2_RW	2	16	480	0	300	300	369	50	0	1	1	blank2r.bmp	0	1	+	0	1	blank2r.bmp	492	1	BZZB	492	1	blank2r.bmp	572	1	schön	866	1	!	-1	1	!	-1	0	0	0	0	0	0	0	0	0	0	0	0	0	0	0	0	0	0	0	0	0	0	0	0	0	0	0	0	0	0
071519	13:22:35	13:25:28	172355	5.0.10.0	5_exp_RW	49	Rpleas_acq	CS_B	BZZB	VKKV	MQQM	YDDY	GWWG	JXXJ	schön	retten	fair	ehrlich	treu	spielen	schlecht	rächen	faul	eitel	tot	strafen	1	acq_USunple_CSunple1_RW	acq2_RW	2	17	480	0	300	300	585	46	0	1	1	blank2r.bmp	0	1	+	0	1	blank2r.bmp	492	1	MQQM	492	1	blank2r.bmp	572	3	faul	866	1	!	1319	1	!	-1	0	0	0	0	0	0	0	0	0	0	0	0	0	0	0	0	0	0	0	0	0	0	0	0	0	0	0	0	0	0
071519	13:22:35	13:25:30	174434	5.0.10.0	5_exp_RW	49	Rpleas_acq	CS_B	BZZB	VKKV	MQQM	YDDY	GWWG	JXXJ	schön	retten	fair	ehrlich	treu	spielen	schlecht	rächen	faul	eitel	tot	strafen	1	acq_USunple_CSunple2_RW	acq2_RW	2	18	480	0	300	300	285	46	0	1	1	blank2r.bmp	0	1	+	0	1	blank2r.bmp	492	1	YDDY	492	1	blank2r.bmp	572	2	tot	866	1	!	-1	1	!	-1	0	0	0	0	0	0	0	0	0	0	0	0	0	0	0	0	0	0	0	0	0	0	0	0	0	0	0	0	0	0
071519	13:22:35	13:25:32	176567	5.0.10.0	5_exp_RW	49	Rpleas_acq	CS_B	BZZB	VKKV	MQQM	YDDY	GWWG	JXXJ	schön	retten	fair	ehrlich	treu	spielen	schlecht	rächen	faul	eitel	tot	strafen	1	acq_USpleas_CSpleas2_RW	acq2_RW	2	19	480	0	300	300	347	50	0	1	1	blank2r.bmp	0	1	+	0	1	blank2r.bmp	492	1	VKKV	492	1	blank2r.bmp	572	1	ehrlich	866	1	!	-1	1	!	-1	0	0	0	0	0	0	0	0	0	0	0	0	0	0	0	0	0	0	0	0	0	0	0	0	0	0	0	0	0	0
071519	13:22:35	13:25:34	178966	5.0.10.0	5_exp_RW	49	Rpleas_acq	CS_B	BZZB	VKKV	MQQM	YDDY	GWWG	JXXJ	schön	retten	fair	ehrlich	treu	spielen	schlecht	rächen	faul	eitel	tot	strafen	1	acq_USpleas_CSpleas2_RW	acq2_RW	2	20	480	0	300	300	618	50	0	1	1	blank2r.bmp	0	1	+	0	1	blank2r.bmp	492	1	VKKV	492	1	blank2r.bmp	572	3	spielen	866	1	!	1319	1	!	-1	0	0	0	0	0	0	0	0	0	0	0	0	0	0	0	0	0	0	0	0	0	0	0	0	0	0	0	0	0	0
071519	13:22:35	13:25:37	181245	5.0.10.0	5_exp_RW	49	Rpleas_acq	CS_B	BZZB	VKKV	MQQM	YDDY	GWWG	JXXJ	schön	retten	fair	ehrlich	treu	spielen	schlecht	rächen	faul	eitel	tot	strafen	1	acq_USunple_CSunple2_RW	acq2_RW	2	21	480	1	300	300	473	46	0	1	1	blank2r.bmp	0	1	+	0	1	blank2r.bmp	492	1	YDDY	492	1	blank2r.bmp	572	3	strafen	866	1	!	1319	1	!	1372	0	0	0	0	0	0	0	0	0	0	0	0	0	0	0	0	0	0	0	0	0	0	0	0	0	0	0	0	0	0
071519	13:22:35	13:25:39	183351	5.0.10.0	5_exp_RW	49	Rpleas_acq	CS_B	BZZB	VKKV	MQQM	YDDY	GWWG	JXXJ	schön	retten	fair	ehrlich	treu	spielen	schlecht	rächen	faul	eitel	tot	strafen	1	acq_USpleas_CSpleas2_RW	acq2_RW	2	22	480	0	300	300	330	50	0	1	1	blank2r.bmp	0	1	+	0	1	blank2r.bmp	492	1	VKKV	492	1	blank2r.bmp	572	2	treu	866	1	!	-1	1	!	-1	0	0	0	0	0	0	0	0	0	0	0	0	0	0	0	0	0	0	0	0	0	0	0	0	0	0	0	0	0	0
071519	13:22:35	13:25:41	185616	5.0.10.0	5_exp_RW	49	Rpleas_acq	CS_B	BZZB	VKKV	MQQM	YDDY	GWWG	JXXJ	schön	retten	fair	ehrlich	treu	spielen	schlecht	rächen	faul	eitel	tot	strafen	1	acq_USunple_CSunple2_RW	acq2_RW	2	23	480	0	300	300	252	50	0	0	1	blank2r.bmp	0	1	+	0	1	blank2r.bmp	492	1	YDDY	492	1	blank2r.bmp	572	1	eitel	866	1	FEHLER	1466	1	!	-1	1	!	-1	0	0	0	0	0	0	0	0	0	0	0	0	0	0	0	0	0	0	0	0	0	0	0	0	0	0	0
071519	13:22:35	13:25:43	187855	5.0.10.0	5_exp_RW	49	Rpleas_acq	CS_B	BZZB	VKKV	MQQM	YDDY	GWWG	JXXJ	schön	retten	fair	ehrlich	treu	spielen	schlecht	rächen	faul	eitel	tot	strafen	1	acq_USunple_CSunple2_RW	acq2_RW	2	24	480	0	300	300	691	46	0	1	1	blank2r.bmp	0	1	+	0	1	blank2r.bmp	492	1	YDDY	492	1	blank2r.bmp	572	3	strafen	866	1	!	1319	1	!	-1	0	0	0	0	0	0	0	0	0	0	0	0	0	0	0	0	0	0	0	0	0	0	0	0	0	0	0	0	0	0
071519	13:22:35	13:26:02	206688	5.0.10.0	5_exp_RW	49	Rpleas_acq	CS_B	BZZB	VKKV	MQQM	YDDY	GWWG	JXXJ	schön	retten	fair	ehrlich	treu	spielen	schlecht	rächen	faul	eitel	tot	strafen	1	acq_USunple_CSunple1_RW	acq3_RW	3	1	453	0	300	300	3261	46	0	1	1	blank2r.bmp	0	1	+	0	1	blank2r.bmp	492	1	MQQM	492	1	blank2r.bmp	572	1	schlecht	866	1	!	1292	1	!	-1	0	0	0	0	0	0	0	0	0	0	0	0	0	0	0	0	0	0	0	0	0	0	0	0	0	0	0	0	0	0
071519	13:22:35	13:26:04	208913	5.0.10.0	5_exp_RW	49	Rpleas_acq	CS_B	BZZB	VKKV	MQQM	YDDY	GWWG	JXXJ	schön	retten	fair	ehrlich	treu	spielen	schlecht	rächen	faul	eitel	tot	strafen	1	acq_USpleas_CSpleas2_RW	acq3_RW	3	2	453	1	300	300	419	50	0	1	1	blank2r.bmp	0	1	+	0	1	blank2r.bmp	492	1	VKKV	492	1	blank2r.bmp	572	1	ehrlich	866	1	!	1292	1	!	1319	0	0	0	0	0	0	0	0	0	0	0	0	0	0	0	0	0	0	0	0	0	0	0	0	0	0	0	0	0	0
071519	13:22:35	13:26:07	211219	5.0.10.0	5_exp_RW	49	Rpleas_acq	CS_B	BZZB	VKKV	MQQM	YDDY	GWWG	JXXJ	schön	retten	fair	ehrlich	treu	spielen	schlecht	rächen	faul	eitel	tot	strafen	1	acq_USpleas_CSpleas2_RW	acq3_RW	3	3	453	1	300	300	513	50	0	1	1	blank2r.bmp	0	1	+	0	1	blank2r.bmp	492	1	VKKV	492	1	blank2r.bmp	572	3	spielen	866	1	!	1292	1	!	1412	0	0	0	0	0	0	0	0	0	0	0	0	0	0	0	0	0	0	0	0	0	0	0	0	0	0	0	0	0	0
071519	13:22:35	13:26:09	213552	5.0.10.0	5_exp_RW	49	Rpleas_acq	CS_B	BZZB	VKKV	MQQM	YDDY	GWWG	JXXJ	schön	retten	fair	ehrlich	treu	spielen	schlecht	rächen	faul	eitel	tot	strafen	1	acq_USpleas_CSpleas1_RW	acq3_RW	3	4	453	0	300	300	570	50	0	1	1	blank2r.bmp	0	1	+	0	1	blank2r.bmp	492	1	BZZB	492	1	blank2r.bmp	572	3	fair	866	1	!	1292	1	!	-1	0	0	0	0	0	0	0	0	0	0	0	0	0	0	0	0	0	0	0	0	0	0	0	0	0	0	0	0	0	0
071519	13:22:35	13:26:11	215857	5.0.10.0	5_exp_RW	49	Rpleas_acq	CS_B	BZZB	VKKV	MQQM	YDDY	GWWG	JXXJ	schön	retten	fair	ehrlich	treu	spielen	schlecht	rächen	faul	eitel	tot	strafen	1	acq_USunple_CSunple1_RW	acq3_RW	3	5	453	1	300	300	498	46	0	1	1	blank2r.bmp	0	1	+	0	1	blank2r.bmp	492	1	MQQM	492	1	blank2r.bmp	572	2	rächen	866	1	!	1292	1	!	1399	0	0	0	0	0	0	0	0	0	0	0	0	0	0	0	0	0	0	0	0	0	0	0	0	0	0	0	0	0	0
071519	13:22:35	13:26:13	218056	5.0.10.0	5_exp_RW	49	Rpleas_acq	CS_B	BZZB	VKKV	MQQM	YDDY	GWWG	JXXJ	schön	retten	fair	ehrlich	treu	spielen	schlecht	rächen	faul	eitel	tot	strafen	1	acq_USunple_CSunple2_RW	acq3_RW	3	6	453	1	300	300	407	46	0	1	1	blank2r.bmp	0	1	+	0	1	blank2r.bmp	492	1	YDDY	492	1	blank2r.bmp	572	2	tot	866	1	!	1292	1	!	1306	0	0	0	0	0	0	0	0	0	0	0	0	0	0	0	0	0	0	0	0	0	0	0	0	0	0	0	0	0	0
071519	13:22:35	13:26:16	220575	5.0.10.0	5_exp_RW	49	Rpleas_acq	CS_B	BZZB	VKKV	MQQM	YDDY	GWWG	JXXJ	schön	retten	fair	ehrlich	treu	spielen	schlecht	rächen	faul	eitel	tot	strafen	1	acq_USunple_CSunple2_RW	acq3_RW	3	7	453	1	300	300	517	50	0	0	1	blank2r.bmp	0	1	+	0	1	blank2r.bmp	492	1	YDDY	492	1	blank2r.bmp	572	1	eitel	866	1	FEHLER	1732	1	!	1292	1	!	1412	0	0	0	0	0	0	0	0	0	0	0	0	0	0	0	0	0	0	0	0	0	0	0	0	0	0	0
071519	13:22:35	13:26:18	222695	5.0.10.0	5_exp_RW	49	Rpleas_acq	CS_B	BZZB	VKKV	MQQM	YDDY	GWWG	JXXJ	schön	retten	fair	ehrlich	treu	spielen	schlecht	rächen	faul	eitel	tot	strafen	1	acq_USpleas_CSpleas1_RW	acq3_RW	3	8	453	0	300	300	357	46	0	0	1	blank2r.bmp	0	1	+	0	1	blank2r.bmp	492	1	BZZB	492	1	blank2r.bmp	572	2	retten	866	1	FEHLER	1559	1	!	-1	1	!	-1	0	0	0	0	0	0	0	0	0	0	0	0	0	0	0	0	0	0	0	0	0	0	0	0	0	0	0
071519	13:22:35	13:26:20	224827	5.0.10.0	5_exp_RW	49	Rpleas_acq	CS_B	BZZB	VKKV	MQQM	YDDY	GWWG	JXXJ	schön	retten	fair	ehrlich	treu	spielen	schlecht	rächen	faul	eitel	tot	strafen	1	acq_USpleas_CSpleas2_RW	acq3_RW	3	9	453	0	300	300	561	50	0	1	1	blank2r.bmp	0	1	+	0	1	blank2r.bmp	492	1	VKKV	492	1	blank2r.bmp	572	3	spielen	866	1	!	1292	1	!	-1	0	0	0	0	0	0	0	0	0	0	0	0	0	0	0	0	0	0	0	0	0	0	0	0	0	0	0	0	0	0
071519	13:22:35	13:26:22	227159	5.0.10.0	5_exp_RW	49	Rpleas_acq	CS_B	BZZB	VKKV	MQQM	YDDY	GWWG	JXXJ	schön	retten	fair	ehrlich	treu	spielen	schlecht	rächen	faul	eitel	tot	strafen	1	acq_USunple_CSunple2_RW	acq3_RW	3	10	453	0	300	300	557	46	0	1	1	blank2r.bmp	0	1	+	0	1	blank2r.bmp	492	1	YDDY	492	1	blank2r.bmp	572	1	eitel	866	1	!	1292	1	!	-1	0	0	0	0	0	0	0	0	0	0	0	0	0	0	0	0	0	0	0	0	0	0	0	0	0	0	0	0	0	0
071519	13:22:35	13:26:25	229465	5.0.10.0	5_exp_RW	49	Rpleas_acq	CS_B	BZZB	VKKV	MQQM	YDDY	GWWG	JXXJ	schön	retten	fair	ehrlich	treu	spielen	schlecht	rächen	faul	eitel	tot	strafen	1	acq_USunple_CSunple1_RW	acq3_RW	3	11	453	1	300	300	484	46	0	1	1	blank2r.bmp	0	1	+	0	1	blank2r.bmp	492	1	MQQM	492	1	blank2r.bmp	572	2	rächen	866	1	!	1292	1	!	1386	0	0	0	0	0	0	0	0	0	0	0	0	0	0	0	0	0	0	0	0	0	0	0	0	0	0	0	0	0	0
071519	13:22:35	13:26:27	231797	5.0.10.0	5_exp_RW	49	Rpleas_acq	CS_B	BZZB	VKKV	MQQM	YDDY	GWWG	JXXJ	schön	retten	fair	ehrlich	treu	spielen	schlecht	rächen	faul	eitel	tot	strafen	1	acq_USpleas_CSpleas2_RW	acq3_RW	3	12	453	0	300	300	552	50	0	1	1	blank2r.bmp	0	1	+	0	1	blank2r.bmp	492	1	VKKV	492	1	blank2r.bmp	572	1	ehrlich	866	1	!	1292	1	!	-1	0	0	0	0	0	0	0	0	0	0	0	0	0	0	0	0	0	0	0	0	0	0	0	0	0	0	0	0	0	0
071519	13:22:35	13:26:29	234037	5.0.10.0	5_exp_RW	49	Rpleas_acq	CS_B	BZZB	VKKV	MQQM	YDDY	GWWG	JXXJ	schön	retten	fair	ehrlich	treu	spielen	schlecht	rächen	faul	eitel	tot	strafen	1	acq_USunple_CSunple1_RW	acq3_RW	3	13	453	1	300	300	436	46	0	1	1	blank2r.bmp	0	1	+	0	1	blank2r.bmp	492	1	MQQM	492	1	blank2r.bmp	572	1	schlecht	866	1	!	1292	1	!	1332	0	0	0	0	0	0	0	0	0	0	0	0	0	0	0	0	0	0	0	0	0	0	0	0	0	0	0	0	0	0
071519	13:22:35	13:26:32	236356	5.0.10.0	5_exp_RW	49	Rpleas_acq	CS_B	BZZB	VKKV	MQQM	YDDY	GWWG	JXXJ	schön	retten	fair	ehrlich	treu	spielen	schlecht	rächen	faul	eitel	tot	strafen	1	acq_USunple_CSunple2_RW	acq3_RW	3	14	453	0	300	300	532	46	0	1	1	blank2r.bmp	0	1	+	0	1	blank2r.bmp	492	1	YDDY	492	1	blank2r.bmp	572	3	strafen	866	1	!	1292	1	!	-1	0	0	0	0	0	0	0	0	0	0	0	0	0	0	0	0	0	0	0	0	0	0	0	0	0	0	0	0	0	0
071519	13:22:35	13:26:34	238621	5.0.10.0	5_exp_RW	49	Rpleas_acq	CS_B	BZZB	VKKV	MQQM	YDDY	GWWG	JXXJ	schön	retten	fair	ehrlich	treu	spielen	schlecht	rächen	faul	eitel	tot	strafen	1	acq_USunple_CSunple1_RW	acq3_RW	3	15	453	1	300	300	462	46	0	1	1	blank2r.bmp	0	1	+	0	1	blank2r.bmp	492	1	MQQM	492	1	blank2r.bmp	572	3	faul	866	1	!	1292	1	!	1359	0	0	0	0	0	0	0	0	0	0	0	0	0	0	0	0	0	0	0	0	0	0	0	0	0	0	0	0	0	0
071519	13:22:35	13:26:36	240847	5.0.10.0	5_exp_RW	49	Rpleas_acq	CS_B	BZZB	VKKV	MQQM	YDDY	GWWG	JXXJ	schön	retten	fair	ehrlich	treu	spielen	schlecht	rächen	faul	eitel	tot	strafen	1	acq_USunple_CSunple2_RW	acq3_RW	3	16	453	1	300	300	421	46	0	1	1	blank2r.bmp	0	1	+	0	1	blank2r.bmp	492	1	YDDY	492	1	blank2r.bmp	572	2	tot	866	1	!	1292	1	!	1319	0	0	0	0	0	0	0	0	0	0	0	0	0	0	0	0	0	0	0	0	0	0	0	0	0	0	0	0	0	0
071519	13:22:35	13:26:38	243059	5.0.10.0	5_exp_RW	49	Rpleas_acq	CS_B	BZZB	VKKV	MQQM	YDDY	GWWG	JXXJ	schön	retten	fair	ehrlich	treu	spielen	schlecht	rächen	faul	eitel	tot	strafen	1	acq_USpleas_CSpleas1_RW	acq3_RW	3	17	453	1	300	300	422	50	0	1	1	blank2r.bmp	0	1	+	0	1	blank2r.bmp	492	1	BZZB	492	1	blank2r.bmp	572	1	schön	866	1	!	1292	1	!	1319	0	0	0	0	0	0	0	0	0	0	0	0	0	0	0	0	0	0	0	0	0	0	0	0	0	0	0	0	0	0
071519	13:22:35	13:26:41	245299	5.0.10.0	5_exp_RW	49	Rpleas_acq	CS_B	BZZB	VKKV	MQQM	YDDY	GWWG	JXXJ	schön	retten	fair	ehrlich	treu	spielen	schlecht	rächen	faul	eitel	tot	strafen	1	acq_USunple_CSunple2_RW	acq3_RW	3	18	453	1	300	300	446	46	0	1	1	blank2r.bmp	0	1	+	0	1	blank2r.bmp	492	1	YDDY	492	1	blank2r.bmp	572	2	tot	866	1	!	1292	1	!	1346	0	0	0	0	0	0	0	0	0	0	0	0	0	0	0	0	0	0	0	0	0	0	0	0	0	0	0	0	0	0
071519	13:22:35	13:26:43	247458	5.0.10.0	5_exp_RW	49	Rpleas_acq	CS_B	BZZB	VKKV	MQQM	YDDY	GWWG	JXXJ	schön	retten	fair	ehrlich	treu	spielen	schlecht	rächen	faul	eitel	tot	strafen	1	acq_USpleas_CSpleas2_RW	acq3_RW	3	19	453	0	300	300	372	50	0	1	1	blank2r.bmp	0	1	+	0	1	blank2r.bmp	492	1	VKKV	492	1	blank2r.bmp	572	2	treu	866	1	!	-1	1	!	-1	0	0	0	0	0	0	0	0	0	0	0	0	0	0	0	0	0	0	0	0	0	0	0	0	0	0	0	0	0	0
071519	13:22:35	13:26:45	249737	5.0.10.0	5_exp_RW	49	Rpleas_acq	CS_B	BZZB	VKKV	MQQM	YDDY	GWWG	JXXJ	schön	retten	fair	ehrlich	treu	spielen	schlecht	rächen	faul	eitel	tot	strafen	1	acq_USunple_CSunple1_RW	acq3_RW	3	20	453	1	300	300	470	46	0	1	1	blank2r.bmp	0	1	+	0	1	blank2r.bmp	492	1	MQQM	492	1	blank2r.bmp	572	1	schlecht	866	1	!	1292	1	!	1372	0	0	0	0	0	0	0	0	0	0	0	0	0	0	0	0	0	0	0	0	0	0	0	0	0	0	0	0	0	0
071519	13:22:35	13:26:47	251989	5.0.10.0	5_exp_RW	49	Rpleas_acq	CS_B	BZZB	VKKV	MQQM	YDDY	GWWG	JXXJ	schön	retten	fair	ehrlich	treu	spielen	schlecht	rächen	faul	eitel	tot	strafen	1	acq_USpleas_CSpleas1_RW	acq3_RW	3	21	453	1	300	300	452	50	0	1	1	blank2r.bmp	0	1	+	0	1	blank2r.bmp	492	1	BZZB	492	1	blank2r.bmp	572	3	fair	866	1	!	1292	1	!	1359	0	0	0	0	0	0	0	0	0	0	0	0	0	0	0	0	0	0	0	0	0	0	0	0	0	0	0	0	0	0
071519	13:22:35	13:26:50	254202	5.0.10.0	5_exp_RW	49	Rpleas_acq	CS_B	BZZB	VKKV	MQQM	YDDY	GWWG	JXXJ	schön	retten	fair	ehrlich	treu	spielen	schlecht	rächen	faul	eitel	tot	strafen	1	acq_USpleas_CSpleas2_RW	acq3_RW	3	22	453	1	300	300	425	50	0	1	1	blank2r.bmp	0	1	+	0	1	blank2r.bmp	492	1	VKKV	492	1	blank2r.bmp	572	3	spielen	866	1	!	1292	1	!	1319	0	0	0	0	0	0	0	0	0	0	0	0	0	0	0	0	0	0	0	0	0	0	0	0	0	0	0	0	0	0
071519	13:22:35	13:26:52	256507	5.0.10.0	5_exp_RW	49	Rpleas_acq	CS_B	BZZB	VKKV	MQQM	YDDY	GWWG	JXXJ	schön	retten	fair	ehrlich	treu	spielen	schlecht	rächen	faul	eitel	tot	strafen	1	acq_USpleas_CSpleas1_RW	acq3_RW	3	23	453	1	300	300	514	50	0	1	1	blank2r.bmp	0	1	+	0	1	blank2r.bmp	492	1	BZZB	492	1	blank2r.bmp	572	2	retten	866	1	!	1292	1	!	1412	0	0	0	0	0	0	0	0	0	0	0	0	0	0	0	0	0	0	0	0	0	0	0	0	0	0	0	0	0	0
071519	13:22:35	13:26:54	258733	5.0.10.0	5_exp_RW	49	Rpleas_acq	CS_B	BZZB	VKKV	MQQM	YDDY	GWWG	JXXJ	schön	retten	fair	ehrlich	treu	spielen	schlecht	rächen	faul	eitel	tot	strafen	1	acq_USpleas_CSpleas1_RW	acq3_RW	3	24	453	1	300	300	426	50	0	1	1	blank2r.bmp	0	1	+	0	1	blank2r.bmp	492	1	BZZB	492	1	blank2r.bmp	572	2	retten	866	1	!	1292	1	!	1332	0	0	0	0	0	0	0	0	0	0	0	0	0	0	0	0	0	0	0	0	0	0	0	0	0	0	0	0	0	0
071519	13:22:35	13:27:10	274353	5.0.10.0	5_exp_RW	49	Rpleas_acq	CS_B	BZZB	VKKV	MQQM	YDDY	GWWG	JXXJ	schön	retten	fair	ehrlich	treu	spielen	schlecht	rächen	faul	eitel	tot	strafen	1	acq_USunple_CSunple1_RW	acq4567_RW	4	1	400	1	300	300	462	46	0	1	1	blank2r.bmp	0	1	+	0	1	blank2r.bmp	492	1	MQQM	492	1	blank2r.bmp	572	3	faul	866	1	!	1239	1	!	1359	0	0	0	0	0	0	0	0	0	0	0	0	0	0	0	0	0	0	0	0	0	0	0	0	0	0	0	0	0	0
071519	13:22:35	13:27:12	276579	5.0.10.0	5_exp_RW	49	Rpleas_acq	CS_B	BZZB	VKKV	MQQM	YDDY	GWWG	JXXJ	schön	retten	fair	ehrlich	treu	spielen	schlecht	rächen	faul	eitel	tot	strafen	1	acq_USunple_CSunple2_RW	acq4567_RW	4	2	400	1	300	300	431	46	0	1	1	blank2r.bmp	0	1	+	0	1	blank2r.bmp	492	1	YDDY	492	1	blank2r.bmp	572	3	strafen	866	1	!	1239	1	!	1332	0	0	0	0	0	0	0	0	0	0	0	0	0	0	0	0	0	0	0	0	0	0	0	0	0	0	0	0	0	0
071519	13:22:35	13:27:14	278765	5.0.10.0	5_exp_RW	49	Rpleas_acq	CS_B	BZZB	VKKV	MQQM	YDDY	GWWG	JXXJ	schön	retten	fair	ehrlich	treu	spielen	schlecht	rächen	faul	eitel	tot	strafen	1	acq_USpleas_CSpleas2_RW	acq4567_RW	4	3	400	1	300	300	395	46	0	0	1	blank2r.bmp	0	1	+	0	1	blank2r.bmp	492	1	VKKV	492	1	blank2r.bmp	572	2	treu	866	1	!	1239	1	!	1292	0	0	0	0	0	0	0	0	0	0	0	0	0	0	0	0	0	0	0	0	0	0	0	0	0	0	0	0	0	0
071519	13:22:35	13:27:16	280924	5.0.10.0	5_exp_RW	49	Rpleas_acq	CS_B	BZZB	VKKV	MQQM	YDDY	GWWG	JXXJ	schön	retten	fair	ehrlich	treu	spielen	schlecht	rächen	faul	eitel	tot	strafen	1	acq_USpleas_CSpleas2_RW	acq4567_RW	4	4	400	1	300	300	359	50	0	1	1	blank2r.bmp	0	1	+	0	1	blank2r.bmp	492	1	VKKV	492	1	blank2r.bmp	572	1	ehrlich	866	1	!	1239	1	!	1266	0	0	0	0	0	0	0	0	0	0	0	0	0	0	0	0	0	0	0	0	0	0	0	0	0	0	0	0	0	0
071519	13:22:35	13:27:18	283150	5.0.10.0	5_exp_RW	49	Rpleas_acq	CS_B	BZZB	VKKV	MQQM	YDDY	GWWG	JXXJ	schön	retten	fair	ehrlich	treu	spielen	schlecht	rächen	faul	eitel	tot	strafen	1	acq_USpleas_CSpleas2_RW	acq4567_RW	4	5	400	1	300	300	426	50	0	1	1	blank2r.bmp	0	1	+	0	1	blank2r.bmp	492	1	VKKV	492	1	blank2r.bmp	572	3	spielen	866	1	!	1239	1	!	1332	0	0	0	0	0	0	0	0	0	0	0	0	0	0	0	0	0	0	0	0	0	0	0	0	0	0	0	0	0	0
071519	13:22:35	13:27:21	285415	5.0.10.0	5_exp_RW	49	Rpleas_acq	CS_B	BZZB	VKKV	MQQM	YDDY	GWWG	JXXJ	schön	retten	fair	ehrlich	treu	spielen	schlecht	rächen	faul	eitel	tot	strafen	1	acq_USunple_CSunple1_RW	acq4567_RW	4	6	400	1	300	300	465	46	0	1	1	blank2r.bmp	0	1	+	0	1	blank2r.bmp	492	1	MQQM	492	1	blank2r.bmp	572	2	rächen	866	1	!	1239	1	!	1372	0	0	0	0	0	0	0	0	0	0	0	0	0	0	0	0	0	0	0	0	0	0	0	0	0	0	0	0	0	0
071519	13:22:35	13:27:23	287668	5.0.10.0	5_exp_RW	49	Rpleas_acq	CS_B	BZZB	VKKV	MQQM	YDDY	GWWG	JXXJ	schön	retten	fair	ehrlich	treu	spielen	schlecht	rächen	faul	eitel	tot	strafen	1	acq_USunple_CSunple2_RW	acq4567_RW	4	7	400	1	300	300	455	46	0	1	1	blank2r.bmp	0	1	+	0	1	blank2r.bmp	492	1	YDDY	492	1	blank2r.bmp	572	1	eitel	866	1	!	1239	1	!	1359	0	0	0	0	0	0	0	0	0	0	0	0	0	0	0	0	0	0	0	0	0	0	0	0	0	0	0	0	0	0
071519	13:22:35	13:27:25	289867	5.0.10.0	5_exp_RW	49	Rpleas_acq	CS_B	BZZB	VKKV	MQQM	YDDY	GWWG	JXXJ	schön	retten	fair	ehrlich	treu	spielen	schlecht	rächen	faul	eitel	tot	strafen	1	acq_USunple_CSunple2_RW	acq4567_RW	4	8	400	1	300	300	387	50	0	0	1	blank2r.bmp	0	1	+	0	1	blank2r.bmp	492	1	YDDY	492	1	blank2r.bmp	572	1	eitel	866	1	!	1239	1	!	1292	0	0	0	0	0	0	0	0	0	0	0	0	0	0	0	0	0	0	0	0	0	0	0	0	0	0	0	0	0	0
071519	13:22:35	13:27:27	292133	5.0.10.0	5_exp_RW	49	Rpleas_acq	CS_B	BZZB	VKKV	MQQM	YDDY	GWWG	JXXJ	schön	retten	fair	ehrlich	treu	spielen	schlecht	rächen	faul	eitel	tot	strafen	1	acq_USpleas_CSpleas1_RW	acq4567_RW	4	9	400	0	300	300	482	46	0	0	1	blank2r.bmp	0	1	+	0	1	blank2r.bmp	492	1	BZZB	492	1	blank2r.bmp	572	3	fair	866	1	!	1239	1	!	-1	0	0	0	0	0	0	0	0	0	0	0	0	0	0	0	0	0	0	0	0	0	0	0	0	0	0	0	0	0	0
071519	13:22:35	13:27:30	294412	5.0.10.0	5_exp_RW	49	Rpleas_acq	CS_B	BZZB	VKKV	MQQM	YDDY	GWWG	JXXJ	schön	retten	fair	ehrlich	treu	spielen	schlecht	rächen	faul	eitel	tot	strafen	1	acq_USpleas_CSpleas2_RW	acq4567_RW	4	10	400	1	300	300	452	46	0	0	1	blank2r.bmp	0	1	+	0	1	blank2r.bmp	492	1	VKKV	492	1	blank2r.bmp	572	2	treu	866	1	!	1239	1	!	1359	0	0	0	0	0	0	0	0	0	0	0	0	0	0	0	0	0	0	0	0	0	0	0	0	0	0	0	0	0	0
071519	13:22:35	13:27:32	296664	5.0.10.0	5_exp_RW	49	Rpleas_acq	CS_B	BZZB	VKKV	MQQM	YDDY	GWWG	JXXJ	schön	retten	fair	ehrlich	treu	spielen	schlecht	rächen	faul	eitel	tot	strafen	1	acq_USpleas_CSpleas1_RW	acq4567_RW	4	11	400	0	300	300	479	50	0	1	1	blank2r.bmp	0	1	+	0	1	blank2r.bmp	492	1	BZZB	492	1	blank2r.bmp	572	1	schön	866	1	!	1239	1	!	-1	0	0	0	0	0	0	0	0	0	0	0	0	0	0	0	0	0	0	0	0	0	0	0	0	0	0	0	0	0	0
071519	13:22:35	13:27:34	298930	5.0.10.0	5_exp_RW	49	Rpleas_acq	CS_B	BZZB	VKKV	MQQM	YDDY	GWWG	JXXJ	schön	retten	fair	ehrlich	treu	spielen	schlecht	rächen	faul	eitel	tot	strafen	1	acq_USpleas_CSpleas2_RW	acq4567_RW	4	12	400	0	300	300	488	50	0	1	1	blank2r.bmp	0	1	+	0	1	blank2r.bmp	492	1	VKKV	492	1	blank2r.bmp	572	1	ehrlich	866	1	!	1239	1	!	-1	0	0	0	0	0	0	0	0	0	0	0	0	0	0	0	0	0	0	0	0	0	0	0	0	0	0	0	0	0	0
071519	13:22:35	13:27:36	301116	5.0.10.0	5_exp_RW	49	Rpleas_acq	CS_B	BZZB	VKKV	MQQM	YDDY	GWWG	JXXJ	schön	retten	fair	ehrlich	treu	spielen	schlecht	rächen	faul	eitel	tot	strafen	1	acq_USpleas_CSpleas1_RW	acq4567_RW	4	13	400	1	300	300	383	50	0	1	1	blank2r.bmp	0	1	+	0	1	blank2r.bmp	492	1	BZZB	492	1	blank2r.bmp	572	3	fair	866	1	!	1239	1	!	1279	0	0	0	0	0	0	0	0	0	0	0	0	0	0	0	0	0	0	0	0	0	0	0	0	0	0	0	0	0	0
071519	13:22:35	13:27:39	303301	5.0.10.0	5_exp_RW	49	Rpleas_acq	CS_B	BZZB	VKKV	MQQM	YDDY	GWWG	JXXJ	schön	retten	fair	ehrlich	treu	spielen	schlecht	rächen	faul	eitel	tot	strafen	1	acq_USunple_CSunple2_RW	acq4567_RW	4	14	400	1	300	300	381	46	0	1	1	blank2r.bmp	0	1	+	0	1	blank2r.bmp	492	1	YDDY	492	1	blank2r.bmp	572	3	strafen	866	1	!	1239	1	!	1279	0	0	0	0	0	0	0	0	0	0	0	0	0	0	0	0	0	0	0	0	0	0	0	0	0	0	0	0	0	0
071519	13:22:35	13:27:41	305474	5.0.10.0	5_exp_RW	49	Rpleas_acq	CS_B	BZZB	VKKV	MQQM	YDDY	GWWG	JXXJ	schön	retten	fair	ehrlich	treu	spielen	schlecht	rächen	faul	eitel	tot	strafen	1	acq_USunple_CSunple2_RW	acq4567_RW	4	15	400	1	300	300	384	46	0	1	1	blank2r.bmp	0	1	+	0	1	blank2r.bmp	492	1	YDDY	492	1	blank2r.bmp	572	2	tot	866	1	!	1239	1	!	1279	0	0	0	0	0	0	0	0	0	0	0	0	0	0	0	0	0	0	0	0	0	0	0	0	0	0	0	0	0	0
071519	13:22:35	13:27:43	307646	5.0.10.0	5_exp_RW	49	Rpleas_acq	CS_B	BZZB	VKKV	MQQM	YDDY	GWWG	JXXJ	schön	retten	fair	ehrlich	treu	spielen	schlecht	rächen	faul	eitel	tot	strafen	1	acq_USpleas_CSpleas1_RW	acq4567_RW	4	16	400	1	300	300	381	50	0	1	1	blank2r.bmp	0	1	+	0	1	blank2r.bmp	492	1	BZZB	492	1	blank2r.bmp	572	1	schön	866	1	!	1239	1	!	1279	0	0	0	0	0	0	0	0	0	0	0	0	0	0	0	0	0	0	0	0	0	0	0	0	0	0	0	0	0	0
071519	13:22:35	13:27:45	309819	5.0.10.0	5_exp_RW	49	Rpleas_acq	CS_B	BZZB	VKKV	MQQM	YDDY	GWWG	JXXJ	schön	retten	fair	ehrlich	treu	spielen	schlecht	rächen	faul	eitel	tot	strafen	1	acq_USunple_CSunple1_RW	acq4567_RW	4	17	400	1	300	300	384	46	0	1	1	blank2r.bmp	0	1	+	0	1	blank2r.bmp	492	1	MQQM	492	1	blank2r.bmp	572	2	rächen	866	1	!	1239	1	!	1279	0	0	0	0	0	0	0	0	0	0	0	0	0	0	0	0	0	0	0	0	0	0	0	0	0	0	0	0	0	0
071519	13:22:35	13:27:47	312124	5.0.10.0	5_exp_RW	49	Rpleas_acq	CS_B	BZZB	VKKV	MQQM	YDDY	GWWG	JXXJ	schön	retten	fair	ehrlich	treu	spielen	schlecht	rächen	faul	eitel	tot	strafen	1	acq_USpleas_CSpleas1_RW	acq4567_RW	4	18	400	0	300	300	523	46	0	0	1	blank2r.bmp	0	1	+	0	1	blank2r.bmp	492	1	BZZB	492	1	blank2r.bmp	572	2	retten	866	1	!	1239	1	!	-1	0	0	0	0	0	0	0	0	0	0	0	0	0	0	0	0	0	0	0	0	0	0	0	0	0	0	0	0	0	0
071519	13:22:35	13:27:52	317122	5.0.10.0	5_exp_RW	49	Rpleas_acq	CS_B	BZZB	VKKV	MQQM	YDDY	GWWG	JXXJ	schön	retten	fair	ehrlich	treu	spielen	schlecht	rächen	faul	eitel	tot	strafen	1	acq_USunple_CSunple1_RW	acq4567_RW	4	19	400	0	300	300	3212	46	0	1	1	blank2r.bmp	0	1	+	0	1	blank2r.bmp	492	1	MQQM	492	1	blank2r.bmp	572	1	schlecht	866	1	!	1239	1	!	-1	0	0	0	0	0	0	0	0	0	0	0	0	0	0	0	0	0	0	0	0	0	0	0	0	0	0	0	0	0	0
071519	13:22:35	13:27:55	319295	5.0.10.0	5_exp_RW	49	Rpleas_acq	CS_B	BZZB	VKKV	MQQM	YDDY	GWWG	JXXJ	schön	retten	fair	ehrlich	treu	spielen	schlecht	rächen	faul	eitel	tot	strafen	1	acq_USunple_CSunple1_RW	acq4567_RW	4	20	400	1	300	300	348	46	0	1	1	blank2r.bmp	0	1	+	0	1	blank2r.bmp	492	1	MQQM	492	1	blank2r.bmp	572	3	faul	866	1	!	1239	1	!	1252	0	0	0	0	0	0	0	0	0	0	0	0	0	0	0	0	0	0	0	0	0	0	0	0	0	0	0	0	0	0
071519	13:22:35	13:27:57	321454	5.0.10.0	5_exp_RW	49	Rpleas_acq	CS_B	BZZB	VKKV	MQQM	YDDY	GWWG	JXXJ	schön	retten	fair	ehrlich	treu	spielen	schlecht	rächen	faul	eitel	tot	strafen	1	acq_USunple_CSunple2_RW	acq4567_RW	4	21	400	1	300	300	363	50	0	0	1	blank2r.bmp	0	1	+	0	1	blank2r.bmp	492	1	YDDY	492	1	blank2r.bmp	572	1	eitel	866	1	!	1239	1	!	1266	0	0	0	0	0	0	0	0	0	0	0	0	0	0	0	0	0	0	0	0	0	0	0	0	0	0	0	0	0	0
071519	13:22:35	13:27:59	323693	5.0.10.0	5_exp_RW	49	Rpleas_acq	CS_B	BZZB	VKKV	MQQM	YDDY	GWWG	JXXJ	schön	retten	fair	ehrlich	treu	spielen	schlecht	rächen	faul	eitel	tot	strafen	1	acq_USunple_CSunple2_RW	acq4567_RW	4	22	400	1	300	300	449	46	0	1	1	blank2r.bmp	0	1	+	0	1	blank2r.bmp	492	1	YDDY	492	1	blank2r.bmp	572	3	strafen	866	1	!	1239	1	!	1346	0	0	0	0	0	0	0	0	0	0	0	0	0	0	0	0	0	0	0	0	0	0	0	0	0	0	0	0	0	0
071519	13:22:35	13:28:01	325759	5.0.10.0	5_exp_RW	49	Rpleas_acq	CS_B	BZZB	VKKV	MQQM	YDDY	GWWG	JXXJ	schön	retten	fair	ehrlich	treu	spielen	schlecht	rächen	faul	eitel	tot	strafen	1	acq_USunple_CSunple2_RW	acq4567_RW	4	23	400	0	300	300	298	46	0	1	1	blank2r.bmp	0	1	+	0	1	blank2r.bmp	492	1	YDDY	492	1	blank2r.bmp	572	2	tot	866	1	!	-1	1	!	-1	0	0	0	0	0	0	0	0	0	0	0	0	0	0	0	0	0	0	0	0	0	0	0	0	0	0	0	0	0	0
071519	13:22:35	13:28:03	328011	5.0.10.0	5_exp_RW	49	Rpleas_acq	CS_B	BZZB	VKKV	MQQM	YDDY	GWWG	JXXJ	schön	retten	fair	ehrlich	treu	spielen	schlecht	rächen	faul	eitel	tot	strafen	1	acq_USpleas_CSpleas2_RW	acq4567_RW	4	24	400	1	300	300	450	50	0	1	1	blank2r.bmp	0	1	+	0	1	blank2r.bmp	492	1	VKKV	492	1	blank2r.bmp	572	3	spielen	866	1	!	1239	1	!	1346	0	0	0	0	0	0	0	0	0	0	0	0	0	0	0	0	0	0	0	0	0	0	0	0	0	0	0	0	0	0
071519	13:22:35	13:28:05	330157	5.0.10.0	5_exp_RW	49	Rpleas_acq	CS_B	BZZB	VKKV	MQQM	YDDY	GWWG	JXXJ	schön	retten	fair	ehrlich	treu	spielen	schlecht	rächen	faul	eitel	tot	strafen	1	acq_USpleas_CSpleas2_RW	acq4567_RW	4	25	400	1	300	300	358	46	0	0	1	blank2r.bmp	0	1	+	0	1	blank2r.bmp	492	1	VKKV	492	1	blank2r.bmp	572	1	ehrlich	866	1	!	1239	1	!	1252	0	0	0	0	0	0	0	0	0	0	0	0	0	0	0	0	0	0	0	0	0	0	0	0	0	0	0	0	0	0
071519	13:22:35	13:28:08	332396	5.0.10.0	5_exp_RW	49	Rpleas_acq	CS_B	BZZB	VKKV	MQQM	YDDY	GWWG	JXXJ	schön	retten	fair	ehrlich	treu	spielen	schlecht	rächen	faul	eitel	tot	strafen	1	acq_USpleas_CSpleas1_RW	acq4567_RW	4	26	400	1	300	300	440	50	0	1	1	blank2r.bmp	0	1	+	0	1	blank2r.bmp	492	1	BZZB	492	1	blank2r.bmp	572	1	schön	866	1	!	1239	1	!	1346	0	0	0	0	0	0	0	0	0	0	0	0	0	0	0	0	0	0	0	0	0	0	0	0	0	0	0	0	0	0
071519	13:22:35	13:28:10	334542	5.0.10.0	5_exp_RW	49	Rpleas_acq	CS_B	BZZB	VKKV	MQQM	YDDY	GWWG	JXXJ	schön	retten	fair	ehrlich	treu	spielen	schlecht	rächen	faul	eitel	tot	strafen	1	acq_USpleas_CSpleas2_RW	acq4567_RW	4	27	400	1	300	300	346	50	0	1	1	blank2r.bmp	0	1	+	0	1	blank2r.bmp	492	1	VKKV	492	1	blank2r.bmp	572	2	treu	866	1	!	1239	1	!	1252	0	0	0	0	0	0	0	0	0	0	0	0	0	0	0	0	0	0	0	0	0	0	0	0	0	0	0	0	0	0
071519	13:22:35	13:28:12	336794	5.0.10.0	5_exp_RW	49	Rpleas_acq	CS_B	BZZB	VKKV	MQQM	YDDY	GWWG	JXXJ	schön	retten	fair	ehrlich	treu	spielen	schlecht	rächen	faul	eitel	tot	strafen	1	acq_USpleas_CSpleas1_RW	acq4567_RW	4	28	400	0	300	300	483	50	0	1	1	blank2r.bmp	0	1	+	0	1	blank2r.bmp	492	1	BZZB	492	1	blank2r.bmp	572	3	fair	866	1	!	1239	1	!	-1	0	0	0	0	0	0	0	0	0	0	0	0	0	0	0	0	0	0	0	0	0	0	0	0	0	0	0	0	0	0
071519	13:22:35	13:28:14	338860	5.0.10.0	5_exp_RW	49	Rpleas_acq	CS_B	BZZB	VKKV	MQQM	YDDY	GWWG	JXXJ	schön	retten	fair	ehrlich	treu	spielen	schlecht	rächen	faul	eitel	tot	strafen	1	acq_USunple_CSunple1_RW	acq4567_RW	4	29	400	0	300	300	275	46	0	1	1	blank2r.bmp	0	1	+	0	1	blank2r.bmp	492	1	MQQM	492	1	blank2r.bmp	572	1	schlecht	866	1	!	-1	1	!	-1	0	0	0	0	0	0	0	0	0	0	0	0	0	0	0	0	0	0	0	0	0	0	0	0	0	0	0	0	0	0
071519	13:22:35	13:28:16	341126	5.0.10.0	5_exp_RW	49	Rpleas_acq	CS_B	BZZB	VKKV	MQQM	YDDY	GWWG	JXXJ	schön	retten	fair	ehrlich	treu	spielen	schlecht	rächen	faul	eitel	tot	strafen	1	acq_USpleas_CSpleas2_RW	acq4567_RW	4	30	400	1	300	300	453	50	0	1	1	blank2r.bmp	0	1	+	0	1	blank2r.bmp	492	1	VKKV	492	1	blank2r.bmp	572	3	spielen	866	1	!	1239	1	!	1359	0	0	0	0	0	0	0	0	0	0	0	0	0	0	0	0	0	0	0	0	0	0	0	0	0	0	0	0	0	0
071519	13:22:35	13:28:19	343325	5.0.10.0	5_exp_RW	49	Rpleas_acq	CS_B	BZZB	VKKV	MQQM	YDDY	GWWG	JXXJ	schön	retten	fair	ehrlich	treu	spielen	schlecht	rächen	faul	eitel	tot	strafen	1	acq_USunple_CSunple2_RW	acq4567_RW	4	31	400	1	300	300	405	50	0	0	1	blank2r.bmp	0	1	+	0	1	blank2r.bmp	492	1	YDDY	492	1	blank2r.bmp	572	3	strafen	866	1	!	1239	1	!	1306	0	0	0	0	0	0	0	0	0	0	0	0	0	0	0	0	0	0	0	0	0	0	0	0	0	0	0	0	0	0
071519	13:22:35	13:28:21	345591	5.0.10.0	5_exp_RW	49	Rpleas_acq	CS_B	BZZB	VKKV	MQQM	YDDY	GWWG	JXXJ	schön	retten	fair	ehrlich	treu	spielen	schlecht	rächen	faul	eitel	tot	strafen	1	acq_USpleas_CSpleas1_RW	acq4567_RW	4	32	400	0	300	300	502	46	0	0	1	blank2r.bmp	0	1	+	0	1	blank2r.bmp	492	1	BZZB	492	1	blank2r.bmp	572	2	retten	866	1	!	1239	1	!	-1	0	0	0	0	0	0	0	0	0	0	0	0	0	0	0	0	0	0	0	0	0	0	0	0	0	0	0	0	0	0
071519	13:22:35	13:28:23	347830	5.0.10.0	5_exp_RW	49	Rpleas_acq	CS_B	BZZB	VKKV	MQQM	YDDY	GWWG	JXXJ	schön	retten	fair	ehrlich	treu	spielen	schlecht	rächen	faul	eitel	tot	strafen	1	acq_USunple_CSunple1_RW	acq4567_RW	4	33	400	1	300	300	430	50	0	0	1	blank2r.bmp	0	1	+	0	1	blank2r.bmp	492	1	MQQM	492	1	blank2r.bmp	572	2	rächen	866	1	!	1239	1	!	1332	0	0	0	0	0	0	0	0	0	0	0	0	0	0	0	0	0	0	0	0	0	0	0	0	0	0	0	0	0	0
071519	13:22:35	13:28:25	350002	5.0.10.0	5_exp_RW	49	Rpleas_acq	CS_B	BZZB	VKKV	MQQM	YDDY	GWWG	JXXJ	schön	retten	fair	ehrlich	treu	spielen	schlecht	rächen	faul	eitel	tot	strafen	1	acq_USpleas_CSpleas1_RW	acq4567_RW	4	34	400	1	300	300	384	50	0	1	1	blank2r.bmp	0	1	+	0	1	blank2r.bmp	492	1	BZZB	492	1	blank2r.bmp	572	1	schön	866	1	!	1239	1	!	1279	0	0	0	0	0	0	0	0	0	0	0	0	0	0	0	0	0	0	0	0	0	0	0	0	0	0	0	0	0	0
071519	13:22:35	13:28:28	352201	5.0.10.0	5_exp_RW	49	Rpleas_acq	CS_B	BZZB	VKKV	MQQM	YDDY	GWWG	JXXJ	schön	retten	fair	ehrlich	treu	spielen	schlecht	rächen	faul	eitel	tot	strafen	1	acq_USunple_CSunple1_RW	acq4567_RW	4	35	400	1	300	300	399	46	0	1	1	blank2r.bmp	0	1	+	0	1	blank2r.bmp	492	1	MQQM	492	1	blank2r.bmp	572	3	faul	866	1	!	1239	1	!	1306	0	0	0	0	0	0	0	0	0	0	0	0	0	0	0	0	0	0	0	0	0	0	0	0	0	0	0	0	0	0
071519	13:22:35	13:28:30	354454	5.0.10.0	5_exp_RW	49	Rpleas_acq	CS_B	BZZB	VKKV	MQQM	YDDY	GWWG	JXXJ	schön	retten	fair	ehrlich	treu	spielen	schlecht	rächen	faul	eitel	tot	strafen	1	acq_USunple_CSunple1_RW	acq4567_RW	4	36	400	0	300	300	486	46	0	1	1	blank2r.bmp	0	1	+	0	1	blank2r.bmp	492	1	MQQM	492	1	blank2r.bmp	572	3	faul	866	1	!	1239	1	!	-1	0	0	0	0	0	0	0	0	0	0	0	0	0	0	0	0	0	0	0	0	0	0	0	0	0	0	0	0	0	0
071519	13:22:35	13:28:32	356720	5.0.10.0	5_exp_RW	49	Rpleas_acq	CS_B	BZZB	VKKV	MQQM	YDDY	GWWG	JXXJ	schön	retten	fair	ehrlich	treu	spielen	schlecht	rächen	faul	eitel	tot	strafen	1	acq_USpleas_CSpleas2_RW	acq4567_RW	4	37	400	1	300	300	442	50	0	1	1	blank2r.bmp	0	1	+	0	1	blank2r.bmp	492	1	VKKV	492	1	blank2r.bmp	572	1	ehrlich	866	1	!	1239	1	!	1346	0	0	0	0	0	0	0	0	0	0	0	0	0	0	0	0	0	0	0	0	0	0	0	0	0	0	0	0	0	0
071519	13:22:35	13:28:34	358985	5.0.10.0	5_exp_RW	49	Rpleas_acq	CS_B	BZZB	VKKV	MQQM	YDDY	GWWG	JXXJ	schön	retten	fair	ehrlich	treu	spielen	schlecht	rächen	faul	eitel	tot	strafen	1	acq_USunple_CSunple2_RW	acq4567_RW	4	38	400	0	300	300	493	46	0	1	1	blank2r.bmp	0	1	+	0	1	blank2r.bmp	492	1	YDDY	492	1	blank2r.bmp	572	1	eitel	866	1	!	1239	1	!	-1	0	0	0	0	0	0	0	0	0	0	0	0	0	0	0	0	0	0	0	0	0	0	0	0	0	0	0	0	0	0
071519	13:22:35	13:28:37	361224	5.0.10.0	5_exp_RW	49	Rpleas_acq	CS_B	BZZB	VKKV	MQQM	YDDY	GWWG	JXXJ	schön	retten	fair	ehrlich	treu	spielen	schlecht	rächen	faul	eitel	tot	strafen	1	acq_USunple_CSunple1_RW	acq4567_RW	4	39	400	1	300	300	433	46	0	1	1	blank2r.bmp	0	1	+	0	1	blank2r.bmp	492	1	MQQM	492	1	blank2r.bmp	572	2	rächen	866	1	!	1239	1	!	1332	0	0	0	0	0	0	0	0	0	0	0	0	0	0	0	0	0	0	0	0	0	0	0	0	0	0	0	0	0	0
071519	13:22:35	13:28:39	363463	5.0.10.0	5_exp_RW	49	Rpleas_acq	CS_B	BZZB	VKKV	MQQM	YDDY	GWWG	JXXJ	schön	retten	fair	ehrlich	treu	spielen	schlecht	rächen	faul	eitel	tot	strafen	1	acq_USpleas_CSpleas1_RW	acq4567_RW	4	40	400	1	300	300	439	46	0	0	1	blank2r.bmp	0	1	+	0	1	blank2r.bmp	492	1	BZZB	492	1	blank2r.bmp	572	3	fair	866	1	!	1239	1	!	1346	0	0	0	0	0	0	0	0	0	0	0	0	0	0	0	0	0	0	0	0	0	0	0	0	0	0	0	0	0	0
071519	13:22:35	13:28:41	365769	5.0.10.0	5_exp_RW	49	Rpleas_acq	CS_B	BZZB	VKKV	MQQM	YDDY	GWWG	JXXJ	schön	retten	fair	ehrlich	treu	spielen	schlecht	rächen	faul	eitel	tot	strafen	1	acq_USpleas_CSpleas2_RW	acq4567_RW	4	41	400	0	300	300	544	50	0	1	1	blank2r.bmp	0	1	+	0	1	blank2r.bmp	492	1	VKKV	492	1	blank2r.bmp	572	2	treu	866	1	!	1239	1	!	-1	0	0	0	0	0	0	0	0	0	0	0	0	0	0	0	0	0	0	0	0	0	0	0	0	0	0	0	0	0	0
071519	13:22:35	13:28:43	368008	5.0.10.0	5_exp_RW	49	Rpleas_acq	CS_B	BZZB	VKKV	MQQM	YDDY	GWWG	JXXJ	schön	retten	fair	ehrlich	treu	spielen	schlecht	rächen	faul	eitel	tot	strafen	1	acq_USpleas_CSpleas2_RW	acq4567_RW	4	42	400	1	300	300	426	50	0	1	1	blank2r.bmp	0	1	+	0	1	blank2r.bmp	492	1	VKKV	492	1	blank2r.bmp	572	2	treu	866	1	!	1239	1	!	1332	0	0	0	0	0	0	0	0	0	0	0	0	0	0	0	0	0	0	0	0	0	0	0	0	0	0	0	0	0	0
071519	13:22:35	13:28:46	370221	5.0.10.0	5_exp_RW	49	Rpleas_acq	CS_B	BZZB	VKKV	MQQM	YDDY	GWWG	JXXJ	schön	retten	fair	ehrlich	treu	spielen	schlecht	rächen	faul	eitel	tot	strafen	1	acq_USpleas_CSpleas1_RW	acq4567_RW	4	43	400	1	300	300	407	50	0	1	1	blank2r.bmp	0	1	+	0	1	blank2r.bmp	492	1	BZZB	492	1	blank2r.bmp	572	2	retten	866	1	!	1239	1	!	1306	0	0	0	0	0	0	0	0	0	0	0	0	0	0	0	0	0	0	0	0	0	0	0	0	0	0	0	0	0	0
071519	13:22:35	13:28:48	372393	5.0.10.0	5_exp_RW	49	Rpleas_acq	CS_B	BZZB	VKKV	MQQM	YDDY	GWWG	JXXJ	schön	retten	fair	ehrlich	treu	spielen	schlecht	rächen	faul	eitel	tot	strafen	1	acq_USpleas_CSpleas1_RW	acq4567_RW	4	44	400	1	300	300	372	50	0	1	1	blank2r.bmp	0	1	+	0	1	blank2r.bmp	492	1	BZZB	492	1	blank2r.bmp	572	1	schön	866	1	!	1239	1	!	1279	0	0	0	0	0	0	0	0	0	0	0	0	0	0	0	0	0	0	0	0	0	0	0	0	0	0	0	0	0	0
071519	13:22:35	13:28:50	374606	5.0.10.0	5_exp_RW	49	Rpleas_acq	CS_B	BZZB	VKKV	MQQM	YDDY	GWWG	JXXJ	schön	retten	fair	ehrlich	treu	spielen	schlecht	rächen	faul	eitel	tot	strafen	1	acq_USunple_CSunple1_RW	acq4567_RW	4	45	400	1	300	300	412	46	0	1	1	blank2r.bmp	0	1	+	0	1	blank2r.bmp	492	1	MQQM	492	1	blank2r.bmp	572	1	schlecht	866	1	!	1239	1	!	1319	0	0	0	0	0	0	0	0	0	0	0	0	0	0	0	0	0	0	0	0	0	0	0	0	0	0	0	0	0	0
071519	13:22:35	13:28:52	376845	5.0.10.0	5_exp_RW	49	Rpleas_acq	CS_B	BZZB	VKKV	MQQM	YDDY	GWWG	JXXJ	schön	retten	fair	ehrlich	treu	spielen	schlecht	rächen	faul	eitel	tot	strafen	1	acq_USpleas_CSpleas2_RW	acq4567_RW	4	46	400	1	300	300	436	50	0	1	1	blank2r.bmp	0	1	+	0	1	blank2r.bmp	492	1	VKKV	492	1	blank2r.bmp	572	3	spielen	866	1	!	1239	1	!	1332	0	0	0	0	0	0	0	0	0	0	0	0	0	0	0	0	0	0	0	0	0	0	0	0	0	0	0	0	0	0
071519	13:22:35	13:28:54	378990	5.0.10.0	5_exp_RW	49	Rpleas_acq	CS_B	BZZB	VKKV	MQQM	YDDY	GWWG	JXXJ	schön	retten	fair	ehrlich	treu	spielen	schlecht	rächen	faul	eitel	tot	strafen	1	acq_USunple_CSunple1_RW	acq4567_RW	4	47	400	1	300	300	352	46	0	1	1	blank2r.bmp	0	1	+	0	1	blank2r.bmp	492	1	MQQM	492	1	blank2r.bmp	572	2	rächen	866	1	!	1239	1	!	1252	0	0	0	0	0	0	0	0	0	0	0	0	0	0	0	0	0	0	0	0	0	0	0	0	0	0	0	0	0	0
071519	13:22:35	13:28:57	381256	5.0.10.0	5_exp_RW	49	Rpleas_acq	CS_B	BZZB	VKKV	MQQM	YDDY	GWWG	JXXJ	schön	retten	fair	ehrlich	treu	spielen	schlecht	rächen	faul	eitel	tot	strafen	1	acq_USpleas_CSpleas1_RW	acq4567_RW	4	48	400	0	300	300	479	50	0	1	1	blank2r.bmp	0	1	+	0	1	blank2r.bmp	492	1	BZZB	492	1	blank2r.bmp	572	3	fair	866	1	!	1239	1	!	-1	0	0	0	0	0	0	0	0	0	0	0	0	0	0	0	0	0	0	0	0	0	0	0	0	0	0	0	0	0	0
071519	13:22:35	13:28:59	383469	5.0.10.0	5_exp_RW	49	Rpleas_acq	CS_B	BZZB	VKKV	MQQM	YDDY	GWWG	JXXJ	schön	retten	fair	ehrlich	treu	spielen	schlecht	rächen	faul	eitel	tot	strafen	1	acq_USunple_CSunple1_RW	acq4567_RW	4	49	400	1	300	300	400	50	0	0	1	blank2r.bmp	0	1	+	0	1	blank2r.bmp	492	1	MQQM	492	1	blank2r.bmp	572	3	faul	866	1	!	1239	1	!	1306	0	0	0	0	0	0	0	0	0	0	0	0	0	0	0	0	0	0	0	0	0	0	0	0	0	0	0	0	0	0
071519	13:22:35	13:29:01	385654	5.0.10.0	5_exp_RW	49	Rpleas_acq	CS_B	BZZB	VKKV	MQQM	YDDY	GWWG	JXXJ	schön	retten	fair	ehrlich	treu	spielen	schlecht	rächen	faul	eitel	tot	strafen	1	acq_USunple_CSunple2_RW	acq4567_RW	4	50	400	1	300	300	397	46	0	1	1	blank2r.bmp	0	1	+	0	1	blank2r.bmp	492	1	YDDY	492	1	blank2r.bmp	572	2	tot	866	1	!	1239	1	!	1292	0	0	0	0	0	0	0	0	0	0	0	0	0	0	0	0	0	0	0	0	0	0	0	0	0	0	0	0	0	0
071519	13:22:35	13:29:03	387867	5.0.10.0	5_exp_RW	49	Rpleas_acq	CS_B	BZZB	VKKV	MQQM	YDDY	GWWG	JXXJ	schön	retten	fair	ehrlich	treu	spielen	schlecht	rächen	faul	eitel	tot	strafen	1	acq_USunple_CSunple2_RW	acq4567_RW	4	51	400	1	300	300	423	46	0	1	1	blank2r.bmp	0	1	+	0	1	blank2r.bmp	492	1	YDDY	492	1	blank2r.bmp	572	3	strafen	866	1	!	1239	1	!	1319	0	0	0	0	0	0	0	0	0	0	0	0	0	0	0	0	0	0	0	0	0	0	0	0	0	0	0	0	0	0
071519	13:22:35	13:29:05	389933	5.0.10.0	5_exp_RW	49	Rpleas_acq	CS_B	BZZB	VKKV	MQQM	YDDY	GWWG	JXXJ	schön	retten	fair	ehrlich	treu	spielen	schlecht	rächen	faul	eitel	tot	strafen	1	acq_USunple_CSunple2_RW	acq4567_RW	4	52	400	0	300	300	279	46	0	1	1	blank2r.bmp	0	1	+	0	1	blank2r.bmp	492	1	YDDY	492	1	blank2r.bmp	572	1	eitel	866	1	!	-1	1	!	-1	0	0	0	0	0	0	0	0	0	0	0	0	0	0	0	0	0	0	0	0	0	0	0	0	0	0	0	0	0	0
071519	13:22:35	13:29:07	392145	5.0.10.0	5_exp_RW	49	Rpleas_acq	CS_B	BZZB	VKKV	MQQM	YDDY	GWWG	JXXJ	schön	retten	fair	ehrlich	treu	spielen	schlecht	rächen	faul	eitel	tot	strafen	1	acq_USpleas_CSpleas1_RW	acq4567_RW	4	53	400	1	300	300	402	50	0	1	1	blank2r.bmp	0	1	+	0	1	blank2r.bmp	492	1	BZZB	492	1	blank2r.bmp	572	2	retten	866	1	!	1239	1	!	1306	0	0	0	0	0	0	0	0	0	0	0	0	0	0	0	0	0	0	0	0	0	0	0	0	0	0	0	0	0	0
071519	13:22:35	13:29:10	394304	5.0.10.0	5_exp_RW	49	Rpleas_acq	CS_B	BZZB	VKKV	MQQM	YDDY	GWWG	JXXJ	schön	retten	fair	ehrlich	treu	spielen	schlecht	rächen	faul	eitel	tot	strafen	1	acq_USunple_CSunple2_RW	acq4567_RW	4	54	400	1	300	300	371	46	0	1	1	blank2r.bmp	0	1	+	0	1	blank2r.bmp	492	1	YDDY	492	1	blank2r.bmp	572	2	tot	866	1	!	1239	1	!	1266	0	0	0	0	0	0	0	0	0	0	0	0	0	0	0	0	0	0	0	0	0	0	0	0	0	0	0	0	0	0
071519	13:22:35	13:29:12	396663	5.0.10.0	5_exp_RW	49	Rpleas_acq	CS_B	BZZB	VKKV	MQQM	YDDY	GWWG	JXXJ	schön	retten	fair	ehrlich	treu	spielen	schlecht	rächen	faul	eitel	tot	strafen	1	acq_USunple_CSunple2_RW	acq4567_RW	4	55	400	0	300	300	594	46	0	1	1	blank2r.bmp	0	1	+	0	1	blank2r.bmp	492	1	YDDY	492	1	blank2r.bmp	572	1	eitel	866	1	!	1239	1	!	-1	0	0	0	0	0	0	0	0	0	0	0	0	0	0	0	0	0	0	0	0	0	0	0	0	0	0	0	0	0	0
071519	13:22:35	13:29:14	398862	5.0.10.0	5_exp_RW	49	Rpleas_acq	CS_B	BZZB	VKKV	MQQM	YDDY	GWWG	JXXJ	schön	retten	fair	ehrlich	treu	spielen	schlecht	rächen	faul	eitel	tot	strafen	1	acq_USunple_CSunple1_RW	acq4567_RW	4	56	400	1	300	300	391	50	0	0	1	blank2r.bmp	0	1	+	0	1	blank2r.bmp	492	1	MQQM	492	1	blank2r.bmp	572	1	schlecht	866	1	!	1239	1	!	1292	0	0	0	0	0	0	0	0	0	0	0	0	0	0	0	0	0	0	0	0	0	0	0	0	0	0	0	0	0	0
071519	13:22:35	13:29:17	401688	5.0.10.0	5_exp_RW	49	Rpleas_acq	CS_B	BZZB	VKKV	MQQM	YDDY	GWWG	JXXJ	schön	retten	fair	ehrlich	treu	spielen	schlecht	rächen	faul	eitel	tot	strafen	1	acq_USpleas_CSpleas2_RW	acq4567_RW	4	57	400	0	300	300	1062	50	0	1	1	blank2r.bmp	0	1	+	0	1	blank2r.bmp	492	1	VKKV	492	1	blank2r.bmp	572	1	ehrlich	866	1	!	1239	1	!	-1	0	0	0	0	0	0	0	0	0	0	0	0	0	0	0	0	0	0	0	0	0	0	0	0	0	0	0	0	0	0
071519	13:22:35	13:29:19	403900	5.0.10.0	5_exp_RW	49	Rpleas_acq	CS_B	BZZB	VKKV	MQQM	YDDY	GWWG	JXXJ	schön	retten	fair	ehrlich	treu	spielen	schlecht	rächen	faul	eitel	tot	strafen	1	acq_USpleas_CSpleas2_RW	acq4567_RW	4	58	400	1	300	300	399	46	0	0	1	blank2r.bmp	0	1	+	0	1	blank2r.bmp	492	1	VKKV	492	1	blank2r.bmp	572	1	ehrlich	866	1	!	1239	1	!	1306	0	0	0	0	0	0	0	0	0	0	0	0	0	0	0	0	0	0	0	0	0	0	0	0	0	0	0	0	0	0
071519	13:22:35	13:29:21	406179	5.0.10.0	5_exp_RW	49	Rpleas_acq	CS_B	BZZB	VKKV	MQQM	YDDY	GWWG	JXXJ	schön	retten	fair	ehrlich	treu	spielen	schlecht	rächen	faul	eitel	tot	strafen	1	acq_USpleas_CSpleas1_RW	acq4567_RW	4	59	400	0	300	300	510	50	0	1	1	blank2r.bmp	0	1	+	0	1	blank2r.bmp	492	1	BZZB	492	1	blank2r.bmp	572	1	schön	866	1	!	1239	1	!	-1	0	0	0	0	0	0	0	0	0	0	0	0	0	0	0	0	0	0	0	0	0	0	0	0	0	0	0	0	0	0
071519	13:22:35	13:29:24	408378	5.0.10.0	5_exp_RW	49	Rpleas_acq	CS_B	BZZB	VKKV	MQQM	YDDY	GWWG	JXXJ	schön	retten	fair	ehrlich	treu	spielen	schlecht	rächen	faul	eitel	tot	strafen	1	acq_USunple_CSunple1_RW	acq4567_RW	4	60	400	1	300	300	389	46	0	1	1	blank2r.bmp	0	1	+	0	1	blank2r.bmp	492	1	MQQM	492	1	blank2r.bmp	572	1	schlecht	866	1	!	1239	1	!	1292	0	0	0	0	0	0	0	0	0	0	0	0	0	0	0	0	0	0	0	0	0	0	0	0	0	0	0	0	0	0
071519	13:22:35	13:29:26	410617	5.0.10.0	5_exp_RW	49	Rpleas_acq	CS_B	BZZB	VKKV	MQQM	YDDY	GWWG	JXXJ	schön	retten	fair	ehrlich	treu	spielen	schlecht	rächen	faul	eitel	tot	strafen	1	acq_USunple_CSunple1_RW	acq4567_RW	4	61	400	1	300	300	430	46	0	1	1	blank2r.bmp	0	1	+	0	1	blank2r.bmp	492	1	MQQM	492	1	blank2r.bmp	572	3	faul	866	1	!	1239	1	!	1332	0	0	0	0	0	0	0	0	0	0	0	0	0	0	0	0	0	0	0	0	0	0	0	0	0	0	0	0	0	0
071519	13:22:35	13:29:28	412870	5.0.10.0	5_exp_RW	49	Rpleas_acq	CS_B	BZZB	VKKV	MQQM	YDDY	GWWG	JXXJ	schön	retten	fair	ehrlich	treu	spielen	schlecht	rächen	faul	eitel	tot	strafen	1	acq_USpleas_CSpleas1_RW	acq4567_RW	4	62	400	0	300	300	479	50	0	1	1	blank2r.bmp	0	1	+	0	1	blank2r.bmp	492	1	BZZB	492	1	blank2r.bmp	572	2	retten	866	1	!	1239	1	!	-1	0	0	0	0	0	0	0	0	0	0	0	0	0	0	0	0	0	0	0	0	0	0	0	0	0	0	0	0	0	0
071519	13:22:35	13:29:30	415149	5.0.10.0	5_exp_RW	49	Rpleas_acq	CS_B	BZZB	VKKV	MQQM	YDDY	GWWG	JXXJ	schön	retten	fair	ehrlich	treu	spielen	schlecht	rächen	faul	eitel	tot	strafen	1	acq_USunple_CSunple2_RW	acq4567_RW	4	63	400	0	300	300	493	46	0	1	1	blank2r.bmp	0	1	+	0	1	blank2r.bmp	492	1	YDDY	492	1	blank2r.bmp	572	2	tot	866	1	!	1239	1	!	-1	0	0	0	0	0	0	0	0	0	0	0	0	0	0	0	0	0	0	0	0	0	0	0	0	0	0	0	0	0	0
071519	13:22:35	13:29:33	417801	5.0.10.0	5_exp_RW	49	Rpleas_acq	CS_B	BZZB	VKKV	MQQM	YDDY	GWWG	JXXJ	schön	retten	fair	ehrlich	treu	spielen	schlecht	rächen	faul	eitel	tot	strafen	1	acq_USunple_CSunple1_RW	acq4567_RW	4	64	400	0	300	300	874	46	0	1	1	blank2r.bmp	0	1	+	0	1	blank2r.bmp	492	1	MQQM	492	1	blank2r.bmp	572	2	rächen	866	1	!	1239	1	!	-1	0	0	0	0	0	0	0	0	0	0	0	0	0	0	0	0	0	0	0	0	0	0	0	0	0	0	0	0	0	0
071519	13:22:35	13:29:37	421493	5.0.10.0	5_exp_RW	49	Rpleas_acq	CS_B	BZZB	VKKV	MQQM	YDDY	GWWG	JXXJ	schön	retten	fair	ehrlich	treu	spielen	schlecht	rächen	faul	eitel	tot	strafen	1	acq_USunple_CSunple2_RW	acq4567_RW	4	65	400	0	300	300	1910	46	0	1	1	blank2r.bmp	0	1	+	0	1	blank2r.bmp	492	1	YDDY	492	1	blank2r.bmp	572	3	strafen	866	1	!	1239	1	!	-1	0	0	0	0	0	0	0	0	0	0	0	0	0	0	0	0	0	0	0	0	0	0	0	0	0	0	0	0	0	0
071519	13:22:35	13:29:39	423759	5.0.10.0	5_exp_RW	49	Rpleas_acq	CS_B	BZZB	VKKV	MQQM	YDDY	GWWG	JXXJ	schön	retten	fair	ehrlich	treu	spielen	schlecht	rächen	faul	eitel	tot	strafen	1	acq_USpleas_CSpleas2_RW	acq4567_RW	4	66	400	1	300	300	454	50	0	1	1	blank2r.bmp	0	1	+	0	1	blank2r.bmp	492	1	VKKV	492	1	blank2r.bmp	572	2	treu	866	1	!	1239	1	!	1359	0	0	0	0	0	0	0	0	0	0	0	0	0	0	0	0	0	0	0	0	0	0	0	0	0	0	0	0	0	0
071519	13:22:35	13:29:41	426011	5.0.10.0	5_exp_RW	49	Rpleas_acq	CS_B	BZZB	VKKV	MQQM	YDDY	GWWG	JXXJ	schön	retten	fair	ehrlich	treu	spielen	schlecht	rächen	faul	eitel	tot	strafen	1	acq_USunple_CSunple1_RW	acq4567_RW	4	67	400	1	300	300	456	50	0	0	1	blank2r.bmp	0	1	+	0	1	blank2r.bmp	492	1	MQQM	492	1	blank2r.bmp	572	2	rächen	866	1	!	1239	1	!	1359	0	0	0	0	0	0	0	0	0	0	0	0	0	0	0	0	0	0	0	0	0	0	0	0	0	0	0	0	0	0
071519	13:22:35	13:29:44	428264	5.0.10.0	5_exp_RW	49	Rpleas_acq	CS_B	BZZB	VKKV	MQQM	YDDY	GWWG	JXXJ	schön	retten	fair	ehrlich	treu	spielen	schlecht	rächen	faul	eitel	tot	strafen	1	acq_USpleas_CSpleas2_RW	acq4567_RW	4	68	400	0	300	300	479	46	0	0	1	blank2r.bmp	0	1	+	0	1	blank2r.bmp	492	1	VKKV	492	1	blank2r.bmp	572	3	spielen	866	1	!	1239	1	!	-1	0	0	0	0	0	0	0	0	0	0	0	0	0	0	0	0	0	0	0	0	0	0	0	0	0	0	0	0	0	0
071519	13:22:35	13:29:46	430463	5.0.10.0	5_exp_RW	49	Rpleas_acq	CS_B	BZZB	VKKV	MQQM	YDDY	GWWG	JXXJ	schön	retten	fair	ehrlich	treu	spielen	schlecht	rächen	faul	eitel	tot	strafen	1	acq_USunple_CSunple1_RW	acq4567_RW	4	69	400	1	300	300	396	46	0	1	1	blank2r.bmp	0	1	+	0	1	blank2r.bmp	492	1	MQQM	492	1	blank2r.bmp	572	3	faul	866	1	!	1239	1	!	1292	0	0	0	0	0	0	0	0	0	0	0	0	0	0	0	0	0	0	0	0	0	0	0	0	0	0	0	0	0	0
071519	13:22:35	13:29:48	432995	5.0.10.0	5_exp_RW	49	Rpleas_acq	CS_B	BZZB	VKKV	MQQM	YDDY	GWWG	JXXJ	schön	retten	fair	ehrlich	treu	spielen	schlecht	rächen	faul	eitel	tot	strafen	1	acq_USpleas_CSpleas1_RW	acq4567_RW	4	70	400	0	300	300	759	50	0	1	1	blank2r.bmp	0	1	+	0	1	blank2r.bmp	492	1	BZZB	492	1	blank2r.bmp	572	3	fair	866	1	!	1239	1	!	-1	0	0	0	0	0	0	0	0	0	0	0	0	0	0	0	0	0	0	0	0	0	0	0	0	0	0	0	0	0	0
071519	13:22:35	13:29:51	435274	5.0.10.0	5_exp_RW	49	Rpleas_acq	CS_B	BZZB	VKKV	MQQM	YDDY	GWWG	JXXJ	schön	retten	fair	ehrlich	treu	spielen	schlecht	rächen	faul	eitel	tot	strafen	1	acq_USpleas_CSpleas2_RW	acq4567_RW	4	71	400	0	300	300	504	50	0	1	1	blank2r.bmp	0	1	+	0	1	blank2r.bmp	492	1	VKKV	492	1	blank2r.bmp	572	3	spielen	866	1	!	1239	1	!	-1	0	0	0	0	0	0	0	0	0	0	0	0	0	0	0	0	0	0	0	0	0	0	0	0	0	0	0	0	0	0
071519	13:22:35	13:29:53	437526	5.0.10.0	5_exp_RW	49	Rpleas_acq	CS_B	BZZB	VKKV	MQQM	YDDY	GWWG	JXXJ	schön	retten	fair	ehrlich	treu	spielen	schlecht	rächen	faul	eitel	tot	strafen	1	acq_USpleas_CSpleas1_RW	acq4567_RW	4	72	400	1	300	300	442	50	0	1	1	blank2r.bmp	0	1	+	0	1	blank2r.bmp	492	1	BZZB	492	1	blank2r.bmp	572	2	retten	866	1	!	1239	1	!	1346	0	0	0	0	0	0	0	0	0	0	0	0	0	0	0	0	0	0	0	0	0	0	0	0	0	0	0	0	0	0
071519	13:22:35	13:29:55	439739	5.0.10.0	5_exp_RW	49	Rpleas_acq	CS_B	BZZB	VKKV	MQQM	YDDY	GWWG	JXXJ	schön	retten	fair	ehrlich	treu	spielen	schlecht	rächen	faul	eitel	tot	strafen	1	acq_USunple_CSunple2_RW	acq4567_RW	4	73	400	1	300	300	415	46	0	1	1	blank2r.bmp	0	1	+	0	1	blank2r.bmp	492	1	YDDY	492	1	blank2r.bmp	572	3	strafen	866	1	!	1239	1	!	1319	0	0	0	0	0	0	0	0	0	0	0	0	0	0	0	0	0	0	0	0	0	0	0	0	0	0	0	0	0	0
071519	13:22:35	13:29:57	441991	5.0.10.0	5_exp_RW	49	Rpleas_acq	CS_B	BZZB	VKKV	MQQM	YDDY	GWWG	JXXJ	schön	retten	fair	ehrlich	treu	spielen	schlecht	rächen	faul	eitel	tot	strafen	1	acq_USpleas_CSpleas2_RW	acq4567_RW	4	74	400	0	300	300	488	50	0	1	1	blank2r.bmp	0	1	+	0	1	blank2r.bmp	492	1	VKKV	492	1	blank2r.bmp	572	2	treu	866	1	!	1239	1	!	-1	0	0	0	0	0	0	0	0	0	0	0	0	0	0	0	0	0	0	0	0	0	0	0	0	0	0	0	0	0	0
071519	13:22:35	13:29:59	444150	5.0.10.0	5_exp_RW	49	Rpleas_acq	CS_B	BZZB	VKKV	MQQM	YDDY	GWWG	JXXJ	schön	retten	fair	ehrlich	treu	spielen	schlecht	rächen	faul	eitel	tot	strafen	1	acq_USpleas_CSpleas2_RW	acq4567_RW	4	75	400	1	300	300	355	46	0	0	1	blank2r.bmp	0	1	+	0	1	blank2r.bmp	492	1	VKKV	492	1	blank2r.bmp	572	1	ehrlich	866	1	!	1239	1	!	1252	0	0	0	0	0	0	0	0	0	0	0	0	0	0	0	0	0	0	0	0	0	0	0	0	0	0	0	0	0	0
071519	13:22:35	13:30:02	446376	5.0.10.0	5_exp_RW	49	Rpleas_acq	CS_B	BZZB	VKKV	MQQM	YDDY	GWWG	JXXJ	schön	retten	fair	ehrlich	treu	spielen	schlecht	rächen	faul	eitel	tot	strafen	1	acq_USunple_CSunple2_RW	acq4567_RW	4	76	400	1	300	300	424	46	0	1	1	blank2r.bmp	0	1	+	0	1	blank2r.bmp	492	1	YDDY	492	1	blank2r.bmp	572	1	eitel	866	1	!	1239	1	!	1319	0	0	0	0	0	0	0	0	0	0	0	0	0	0	0	0	0	0	0	0	0	0	0	0	0	0	0	0	0	0
071519	13:22:35	13:30:04	448629	5.0.10.0	5_exp_RW	49	Rpleas_acq	CS_B	BZZB	VKKV	MQQM	YDDY	GWWG	JXXJ	schön	retten	fair	ehrlich	treu	spielen	schlecht	rächen	faul	eitel	tot	strafen	1	acq_USpleas_CSpleas1_RW	acq4567_RW	4	77	400	0	300	300	490	50	0	1	1	blank2r.bmp	0	1	+	0	1	blank2r.bmp	492	1	BZZB	492	1	blank2r.bmp	572	1	schön	866	1	!	1239	1	!	-1	0	0	0	0	0	0	0	0	0	0	0	0	0	0	0	0	0	0	0	0	0	0	0	0	0	0	0	0	0	0
071519	13:22:35	13:30:06	450734	5.0.10.0	5_exp_RW	49	Rpleas_acq	CS_B	BZZB	VKKV	MQQM	YDDY	GWWG	JXXJ	schön	retten	fair	ehrlich	treu	spielen	schlecht	rächen	faul	eitel	tot	strafen	1	acq_USunple_CSunple2_RW	acq4567_RW	4	78	400	0	300	300	330	46	0	1	1	blank2r.bmp	0	1	+	0	1	blank2r.bmp	492	1	YDDY	492	1	blank2r.bmp	572	2	tot	866	1	!	-1	1	!	-1	0	0	0	0	0	0	0	0	0	0	0	0	0	0	0	0	0	0	0	0	0	0	0	0	0	0	0	0	0	0
071519	13:22:35	13:30:08	452947	5.0.10.0	5_exp_RW	49	Rpleas_acq	CS_B	BZZB	VKKV	MQQM	YDDY	GWWG	JXXJ	schön	retten	fair	ehrlich	treu	spielen	schlecht	rächen	faul	eitel	tot	strafen	1	acq_USpleas_CSpleas1_RW	acq4567_RW	4	79	400	1	300	300	402	46	0	0	1	blank2r.bmp	0	1	+	0	1	blank2r.bmp	492	1	BZZB	492	1	blank2r.bmp	572	3	fair	866	1	!	1239	1	!	1306	0	0	0	0	0	0	0	0	0	0	0	0	0	0	0	0	0	0	0	0	0	0	0	0	0	0	0	0	0	0
071519	13:22:35	13:30:10	455172	5.0.10.0	5_exp_RW	49	Rpleas_acq	CS_B	BZZB	VKKV	MQQM	YDDY	GWWG	JXXJ	schön	retten	fair	ehrlich	treu	spielen	schlecht	rächen	faul	eitel	tot	strafen	1	acq_USunple_CSunple1_RW	acq4567_RW	4	80	400	1	300	300	438	46	0	1	1	blank2r.bmp	0	1	+	0	1	blank2r.bmp	492	1	MQQM	492	1	blank2r.bmp	572	1	schlecht	866	1	!	1239	1	!	1332	0	0	0	0	0	0	0	0	0	0	0	0	0	0	0	0	0	0	0	0	0	0	0	0	0	0	0	0	0	0
071519	13:22:35	13:30:23	467301	5.0.10.0	5_exp_RW	49	Rpleas_acq	CS_B	BZZB	VKKV	MQQM	YDDY	GWWG	JXXJ	schön	retten	fair	ehrlich	treu	spielen	schlecht	rächen	faul	eitel	tot	strafen	1	acq_USunple_CSunple2_RW	acq4567_RW	5	1	400	0	300	300	643	46	0	1	1	blank2r.bmp	0	1	+	0	1	blank2r.bmp	492	1	YDDY	492	1	blank2r.bmp	572	2	tot	866	1	!	1239	1	!	-1	0	0	0	0	0	0	0	0	0	0	0	0	0	0	0	0	0	0	0	0	0	0	0	0	0	0	0	0	0	0
071519	13:22:35	13:30:25	469567	5.0.10.0	5_exp_RW	49	Rpleas_acq	CS_B	BZZB	VKKV	MQQM	YDDY	GWWG	JXXJ	schön	retten	fair	ehrlich	treu	spielen	schlecht	rächen	faul	eitel	tot	strafen	1	acq_USpleas_CSpleas1_RW	acq4567_RW	5	2	400	1	300	300	463	50	0	1	1	blank2r.bmp	0	1	+	0	1	blank2r.bmp	492	1	BZZB	492	1	blank2r.bmp	572	1	schön	866	1	!	1239	1	!	1359	0	0	0	0	0	0	0	0	0	0	0	0	0	0	0	0	0	0	0	0	0	0	0	0	0	0	0	0	0	0
071519	13:22:35	13:30:27	471819	5.0.10.0	5_exp_RW	49	Rpleas_acq	CS_B	BZZB	VKKV	MQQM	YDDY	GWWG	JXXJ	schön	retten	fair	ehrlich	treu	spielen	schlecht	rächen	faul	eitel	tot	strafen	1	acq_USpleas_CSpleas2_RW	acq4567_RW	5	3	400	0	300	300	490	50	0	1	1	blank2r.bmp	0	1	+	0	1	blank2r.bmp	492	1	VKKV	492	1	blank2r.bmp	572	3	spielen	866	1	!	1239	1	!	-1	0	0	0	0	0	0	0	0	0	0	0	0	0	0	0	0	0	0	0	0	0	0	0	0	0	0	0	0	0	0
071519	13:22:35	13:30:29	474085	5.0.10.0	5_exp_RW	49	Rpleas_acq	CS_B	BZZB	VKKV	MQQM	YDDY	GWWG	JXXJ	schön	retten	fair	ehrlich	treu	spielen	schlecht	rächen	faul	eitel	tot	strafen	1	acq_USunple_CSunple2_RW	acq4567_RW	5	4	400	0	300	300	485	46	0	1	1	blank2r.bmp	0	1	+	0	1	blank2r.bmp	492	1	YDDY	492	1	blank2r.bmp	572	3	strafen	866	1	!	1239	1	!	-1	0	0	0	0	0	0	0	0	0	0	0	0	0	0	0	0	0	0	0	0	0	0	0	0	0	0	0	0	0	0
071519	13:22:35	13:30:32	476311	5.0.10.0	5_exp_RW	49	Rpleas_acq	CS_B	BZZB	VKKV	MQQM	YDDY	GWWG	JXXJ	schön	retten	fair	ehrlich	treu	spielen	schlecht	rächen	faul	eitel	tot	strafen	1	acq_USpleas_CSpleas1_RW	acq4567_RW	5	5	400	1	300	300	418	50	0	1	1	blank2r.bmp	0	1	+	0	1	blank2r.bmp	492	1	BZZB	492	1	blank2r.bmp	572	3	fair	866	1	!	1239	1	!	1319	0	0	0	0	0	0	0	0	0	0	0	0	0	0	0	0	0	0	0	0	0	0	0	0	0	0	0	0	0	0
071519	13:22:35	13:30:34	478576	5.0.10.0	5_exp_RW	49	Rpleas_acq	CS_B	BZZB	VKKV	MQQM	YDDY	GWWG	JXXJ	schön	retten	fair	ehrlich	treu	spielen	schlecht	rächen	faul	eitel	tot	strafen	1	acq_USunple_CSunple1_RW	acq4567_RW	5	6	400	0	300	300	500	46	0	1	1	blank2r.bmp	0	1	+	0	1	blank2r.bmp	492	1	MQQM	492	1	blank2r.bmp	572	3	faul	866	1	!	1239	1	!	-1	0	0	0	0	0	0	0	0	0	0	0	0	0	0	0	0	0	0	0	0	0	0	0	0	0	0	0	0	0	0
071519	13:22:35	13:30:36	480829	5.0.10.0	5_exp_RW	49	Rpleas_acq	CS_B	BZZB	VKKV	MQQM	YDDY	GWWG	JXXJ	schön	retten	fair	ehrlich	treu	spielen	schlecht	rächen	faul	eitel	tot	strafen	1	acq_USpleas_CSpleas1_RW	acq4567_RW	5	7	400	1	300	300	447	46	0	0	1	blank2r.bmp	0	1	+	0	1	blank2r.bmp	492	1	BZZB	492	1	blank2r.bmp	572	2	retten	866	1	!	1239	1	!	1346	0	0	0	0	0	0	0	0	0	0	0	0	0	0	0	0	0	0	0	0	0	0	0	0	0	0	0	0	0	0
071519	13:22:35	13:30:38	483028	5.0.10.0	5_exp_RW	49	Rpleas_acq	CS_B	BZZB	VKKV	MQQM	YDDY	GWWG	JXXJ	schön	retten	fair	ehrlich	treu	spielen	schlecht	rächen	faul	eitel	tot	strafen	1	acq_USunple_CSunple2_RW	acq4567_RW	5	8	400	1	300	300	399	46	0	1	1	blank2r.bmp	0	1	+	0	1	blank2r.bmp	492	1	YDDY	492	1	blank2r.bmp	572	1	eitel	866	1	!	1239	1	!	1306	0	0	0	0	0	0	0	0	0	0	0	0	0	0	0	0	0	0	0	0	0	0	0	0	0	0	0	0	0	0
071519	13:22:35	13:30:41	485240	5.0.10.0	5_exp_RW	49	Rpleas_acq	CS_B	BZZB	VKKV	MQQM	YDDY	GWWG	JXXJ	schön	retten	fair	ehrlich	treu	spielen	schlecht	rächen	faul	eitel	tot	strafen	1	acq_USpleas_CSpleas2_RW	acq4567_RW	5	9	400	1	300	300	418	46	0	0	1	blank2r.bmp	0	1	+	0	1	blank2r.bmp	492	1	VKKV	492	1	blank2r.bmp	572	1	ehrlich	866	1	!	1239	1	!	1319	0	0	0	0	0	0	0	0	0	0	0	0	0	0	0	0	0	0	0	0	0	0	0	0	0	0	0	0	0	0
071519	13:22:35	13:30:43	487932	5.0.10.0	5_exp_RW	49	Rpleas_acq	CS_B	BZZB	VKKV	MQQM	YDDY	GWWG	JXXJ	schön	retten	fair	ehrlich	treu	spielen	schlecht	rächen	faul	eitel	tot	strafen	1	acq_USpleas_CSpleas2_RW	acq4567_RW	5	10	400	0	300	300	916	50	0	1	1	blank2r.bmp	0	1	+	0	1	blank2r.bmp	492	1	VKKV	492	1	blank2r.bmp	572	2	treu	866	1	!	1239	1	!	-1	0	0	0	0	0	0	0	0	0	0	0	0	0	0	0	0	0	0	0	0	0	0	0	0	0	0	0	0	0	0
071519	13:22:35	13:30:45	490145	5.0.10.0	5_exp_RW	49	Rpleas_acq	CS_B	BZZB	VKKV	MQQM	YDDY	GWWG	JXXJ	schön	retten	fair	ehrlich	treu	spielen	schlecht	rächen	faul	eitel	tot	strafen	1	acq_USunple_CSunple2_RW	acq4567_RW	5	11	400	1	300	300	409	50	0	0	1	blank2r.bmp	0	1	+	0	1	blank2r.bmp	492	1	YDDY	492	1	blank2r.bmp	572	1	eitel	866	1	!	1239	1	!	1306	0	0	0	0	0	0	0	0	0	0	0	0	0	0	0	0	0	0	0	0	0	0	0	0	0	0	0	0	0	0
071519	13:22:35	13:30:48	492531	5.0.10.0	5_exp_RW	49	Rpleas_acq	CS_B	BZZB	VKKV	MQQM	YDDY	GWWG	JXXJ	schön	retten	fair	ehrlich	treu	spielen	schlecht	rächen	faul	eitel	tot	strafen	1	acq_USunple_CSunple2_RW	acq4567_RW	5	12	400	0	300	300	621	46	0	1	1	blank2r.bmp	0	1	+	0	1	blank2r.bmp	492	1	YDDY	492	1	blank2r.bmp	572	2	tot	866	1	!	1239	1	!	-1	0	0	0	0	0	0	0	0	0	0	0	0	0	0	0	0	0	0	0	0	0	0	0	0	0	0	0	0	0	0
071519	13:22:35	13:30:50	494796	5.0.10.0	5_exp_RW	49	Rpleas_acq	CS_B	BZZB	VKKV	MQQM	YDDY	GWWG	JXXJ	schön	retten	fair	ehrlich	treu	spielen	schlecht	rächen	faul	eitel	tot	strafen	1	acq_USpleas_CSpleas2_RW	acq4567_RW	5	13	400	1	300	300	457	50	0	1	1	blank2r.bmp	0	1	+	0	1	blank2r.bmp	492	1	VKKV	492	1	blank2r.bmp	572	1	ehrlich	866	1	!	1239	1	!	1359	0	0	0	0	0	0	0	0	0	0	0	0	0	0	0	0	0	0	0	0	0	0	0	0	0	0	0	0	0	0
071519	13:22:35	13:30:52	497142	5.0.10.0	5_exp_RW	49	Rpleas_acq	CS_B	BZZB	VKKV	MQQM	YDDY	GWWG	JXXJ	schön	retten	fair	ehrlich	treu	spielen	schlecht	rächen	faul	eitel	tot	strafen	1	acq_USpleas_CSpleas1_RW	acq4567_RW	5	14	400	0	300	300	578	50	0	1	1	blank2r.bmp	0	1	+	0	1	blank2r.bmp	492	1	BZZB	492	1	blank2r.bmp	572	3	fair	866	1	!	1239	1	!	-1	0	0	0	0	0	0	0	0	0	0	0	0	0	0	0	0	0	0	0	0	0	0	0	0	0	0	0	0	0	0
071519	13:22:35	13:30:55	499394	5.0.10.0	5_exp_RW	49	Rpleas_acq	CS_B	BZZB	VKKV	MQQM	YDDY	GWWG	JXXJ	schön	retten	fair	ehrlich	treu	spielen	schlecht	rächen	faul	eitel	tot	strafen	1	acq_USpleas_CSpleas2_RW	acq4567_RW	5	15	400	1	300	300	440	50	0	1	1	blank2r.bmp	0	1	+	0	1	blank2r.bmp	492	1	VKKV	492	1	blank2r.bmp	572	2	treu	866	1	!	1239	1	!	1346	0	0	0	0	0	0	0	0	0	0	0	0	0	0	0	0	0	0	0	0	0	0	0	0	0	0	0	0	0	0
071519	13:22:35	13:30:57	501580	5.0.10.0	5_exp_RW	49	Rpleas_acq	CS_B	BZZB	VKKV	MQQM	YDDY	GWWG	JXXJ	schön	retten	fair	ehrlich	treu	spielen	schlecht	rächen	faul	eitel	tot	strafen	1	acq_USunple_CSunple1_RW	acq4567_RW	5	16	400	1	300	300	388	46	0	1	1	blank2r.bmp	0	1	+	0	1	blank2r.bmp	492	1	MQQM	492	1	blank2r.bmp	572	2	rächen	866	1	!	1239	1	!	1292	0	0	0	0	0	0	0	0	0	0	0	0	0	0	0	0	0	0	0	0	0	0	0	0	0	0	0	0	0	0
071519	13:22:35	13:30:59	503726	5.0.10.0	5_exp_RW	49	Rpleas_acq	CS_B	BZZB	VKKV	MQQM	YDDY	GWWG	JXXJ	schön	retten	fair	ehrlich	treu	spielen	schlecht	rächen	faul	eitel	tot	strafen	1	acq_USunple_CSunple1_RW	acq4567_RW	5	17	400	1	300	300	356	50	0	0	1	blank2r.bmp	0	1	+	0	1	blank2r.bmp	492	1	MQQM	492	1	blank2r.bmp	572	1	schlecht	866	1	!	1239	1	!	1252	0	0	0	0	0	0	0	0	0	0	0	0	0	0	0	0	0	0	0	0	0	0	0	0	0	0	0	0	0	0
071519	13:22:35	13:31:01	505925	5.0.10.0	5_exp_RW	49	Rpleas_acq	CS_B	BZZB	VKKV	MQQM	YDDY	GWWG	JXXJ	schön	retten	fair	ehrlich	treu	spielen	schlecht	rächen	faul	eitel	tot	strafen	1	acq_USunple_CSunple1_RW	acq4567_RW	5	18	400	1	300	300	399	46	0	1	1	blank2r.bmp	0	1	+	0	1	blank2r.bmp	492	1	MQQM	492	1	blank2r.bmp	572	1	schlecht	866	1	!	1239	1	!	1292	0	0	0	0	0	0	0	0	0	0	0	0	0	0	0	0	0	0	0	0	0	0	0	0	0	0	0	0	0	0
071519	13:22:35	13:31:03	508097	5.0.10.0	5_exp_RW	49	Rpleas_acq	CS_B	BZZB	VKKV	MQQM	YDDY	GWWG	JXXJ	schön	retten	fair	ehrlich	treu	spielen	schlecht	rächen	faul	eitel	tot	strafen	1	acq_USunple_CSunple1_RW	acq4567_RW	5	19	400	1	300	300	364	46	0	1	1	blank2r.bmp	0	1	+	0	1	blank2r.bmp	492	1	MQQM	492	1	blank2r.bmp	572	3	faul	866	1	!	1239	1	!	1266	0	0	0	0	0	0	0	0	0	0	0	0	0	0	0	0	0	0	0	0	0	0	0	0	0	0	0	0	0	0
071519	13:22:35	13:31:06	510363	5.0.10.0	5_exp_RW	49	Rpleas_acq	CS_B	BZZB	VKKV	MQQM	YDDY	GWWG	JXXJ	schön	retten	fair	ehrlich	treu	spielen	schlecht	rächen	faul	eitel	tot	strafen	1	acq_USpleas_CSpleas1_RW	acq4567_RW	5	20	400	0	300	300	495	50	0	1	1	blank2r.bmp	0	1	+	0	1	blank2r.bmp	492	1	BZZB	492	1	blank2r.bmp	572	2	retten	866	1	!	1239	1	!	-1	0	0	0	0	0	0	0	0	0	0	0	0	0	0	0	0	0	0	0	0	0	0	0	0	0	0	0	0	0	0
071519	13:22:35	13:31:08	512576	5.0.10.0	5_exp_RW	49	Rpleas_acq	CS_B	BZZB	VKKV	MQQM	YDDY	GWWG	JXXJ	schön	retten	fair	ehrlich	treu	spielen	schlecht	rächen	faul	eitel	tot	strafen	1	acq_USpleas_CSpleas1_RW	acq4567_RW	5	21	400	1	300	300	410	50	0	1	1	blank2r.bmp	0	1	+	0	1	blank2r.bmp	492	1	BZZB	492	1	blank2r.bmp	572	1	schön	866	1	!	1239	1	!	1306	0	0	0	0	0	0	0	0	0	0	0	0	0	0	0	0	0	0	0	0	0	0	0	0	0	0	0	0	0	0
071519	13:22:35	13:31:10	514801	5.0.10.0	5_exp_RW	49	Rpleas_acq	CS_B	BZZB	VKKV	MQQM	YDDY	GWWG	JXXJ	schön	retten	fair	ehrlich	treu	spielen	schlecht	rächen	faul	eitel	tot	strafen	1	acq_USpleas_CSpleas1_RW	acq4567_RW	5	22	400	1	300	300	431	50	0	1	1	blank2r.bmp	0	1	+	0	1	blank2r.bmp	492	1	BZZB	492	1	blank2r.bmp	572	3	fair	866	1	!	1239	1	!	1332	0	0	0	0	0	0	0	0	0	0	0	0	0	0	0	0	0	0	0	0	0	0	0	0	0	0	0	0	0	0
071519	13:22:35	13:31:12	516987	5.0.10.0	5_exp_RW	49	Rpleas_acq	CS_B	BZZB	VKKV	MQQM	YDDY	GWWG	JXXJ	schön	retten	fair	ehrlich	treu	spielen	schlecht	rächen	faul	eitel	tot	strafen	1	acq_USunple_CSunple2_RW	acq4567_RW	5	23	400	1	300	300	381	46	0	1	1	blank2r.bmp	0	1	+	0	1	blank2r.bmp	492	1	YDDY	492	1	blank2r.bmp	572	3	strafen	866	1	!	1239	1	!	1279	0	0	0	0	0	0	0	0	0	0	0	0	0	0	0	0	0	0	0	0	0	0	0	0	0	0	0	0	0	0
071519	13:22:35	13:31:15	519240	5.0.10.0	5_exp_RW	49	Rpleas_acq	CS_B	BZZB	VKKV	MQQM	YDDY	GWWG	JXXJ	schön	retten	fair	ehrlich	treu	spielen	schlecht	rächen	faul	eitel	tot	strafen	1	acq_USpleas_CSpleas2_RW	acq4567_RW	5	24	400	1	300	300	442	50	0	1	1	blank2r.bmp	0	1	+	0	1	blank2r.bmp	492	1	VKKV	492	1	blank2r.bmp	572	3	spielen	866	1	!	1239	1	!	1346	0	0	0	0	0	0	0	0	0	0	0	0	0	0	0	0	0	0	0	0	0	0	0	0	0	0	0	0	0	0
071519	13:22:35	13:31:17	521439	5.0.10.0	5_exp_RW	49	Rpleas_acq	CS_B	BZZB	VKKV	MQQM	YDDY	GWWG	JXXJ	schön	retten	fair	ehrlich	treu	spielen	schlecht	rächen	faul	eitel	tot	strafen	1	acq_USunple_CSunple1_RW	acq4567_RW	5	25	400	1	300	300	400	46	0	1	1	blank2r.bmp	0	1	+	0	1	blank2r.bmp	492	1	MQQM	492	1	blank2r.bmp	572	2	rächen	866	1	!	1239	1	!	1306	0	0	0	0	0	0	0	0	0	0	0	0	0	0	0	0	0	0	0	0	0	0	0	0	0	0	0	0	0	0
071519	13:22:35	13:31:19	523611	5.0.10.0	5_exp_RW	49	Rpleas_acq	CS_B	BZZB	VKKV	MQQM	YDDY	GWWG	JXXJ	schön	retten	fair	ehrlich	treu	spielen	schlecht	rächen	faul	eitel	tot	strafen	1	acq_USunple_CSunple1_RW	acq4567_RW	5	26	400	1	300	300	380	46	0	1	1	blank2r.bmp	0	1	+	0	1	blank2r.bmp	492	1	MQQM	492	1	blank2r.bmp	572	3	faul	866	1	!	1239	1	!	1279	0	0	0	0	0	0	0	0	0	0	0	0	0	0	0	0	0	0	0	0	0	0	0	0	0	0	0	0	0	0
071519	13:22:35	13:31:21	525757	5.0.10.0	5_exp_RW	49	Rpleas_acq	CS_B	BZZB	VKKV	MQQM	YDDY	GWWG	JXXJ	schön	retten	fair	ehrlich	treu	spielen	schlecht	rächen	faul	eitel	tot	strafen	1	acq_USunple_CSunple2_RW	acq4567_RW	5	27	400	1	300	300	354	46	0	1	1	blank2r.bmp	0	1	+	0	1	blank2r.bmp	492	1	YDDY	492	1	blank2r.bmp	572	2	tot	866	1	!	1239	1	!	1252	0	0	0	0	0	0	0	0	0	0	0	0	0	0	0	0	0	0	0	0	0	0	0	0	0	0	0	0	0	0
071519	13:22:35	13:31:23	527836	5.0.10.0	5_exp_RW	49	Rpleas_acq	CS_B	BZZB	VKKV	MQQM	YDDY	GWWG	JXXJ	schön	retten	fair	ehrlich	treu	spielen	schlecht	rächen	faul	eitel	tot	strafen	1	acq_USpleas_CSpleas2_RW	acq4567_RW	5	28	400	0	300	300	316	50	0	1	1	blank2r.bmp	0	1	+	0	1	blank2r.bmp	492	1	VKKV	492	1	blank2r.bmp	572	1	ehrlich	866	1	!	-1	1	!	-1	0	0	0	0	0	0	0	0	0	0	0	0	0	0	0	0	0	0	0	0	0	0	0	0	0	0	0	0	0	0
071519	13:22:35	13:31:25	529995	5.0.10.0	5_exp_RW	49	Rpleas_acq	CS_B	BZZB	VKKV	MQQM	YDDY	GWWG	JXXJ	schön	retten	fair	ehrlich	treu	spielen	schlecht	rächen	faul	eitel	tot	strafen	1	acq_USpleas_CSpleas2_RW	acq4567_RW	5	29	400	1	300	300	346	50	0	1	1	blank2r.bmp	0	1	+	0	1	blank2r.bmp	492	1	VKKV	492	1	blank2r.bmp	572	2	treu	866	1	!	1239	1	!	1252	0	0	0	0	0	0	0	0	0	0	0	0	0	0	0	0	0	0	0	0	0	0	0	0	0	0	0	0	0	0
071519	13:22:35	13:31:27	532101	5.0.10.0	5_exp_RW	49	Rpleas_acq	CS_B	BZZB	VKKV	MQQM	YDDY	GWWG	JXXJ	schön	retten	fair	ehrlich	treu	spielen	schlecht	rächen	faul	eitel	tot	strafen	1	acq_USunple_CSunple2_RW	acq4567_RW	5	30	400	0	300	300	324	46	0	1	1	blank2r.bmp	0	1	+	0	1	blank2r.bmp	492	1	YDDY	492	1	blank2r.bmp	572	3	strafen	866	1	!	-1	1	!	-1	0	0	0	0	0	0	0	0	0	0	0	0	0	0	0	0	0	0	0	0	0	0	0	0	0	0	0	0	0	0
071519	13:22:35	13:31:30	534460	5.0.10.0	5_exp_RW	49	Rpleas_acq	CS_B	BZZB	VKKV	MQQM	YDDY	GWWG	JXXJ	schön	retten	fair	ehrlich	treu	spielen	schlecht	rächen	faul	eitel	tot	strafen	1	acq_USunple_CSunple2_RW	acq4567_RW	5	31	400	0	300	300	578	46	0	1	1	blank2r.bmp	0	1	+	0	1	blank2r.bmp	492	1	YDDY	492	1	blank2r.bmp	572	1	eitel	866	1	!	1239	1	!	-1	0	0	0	0	0	0	0	0	0	0	0	0	0	0	0	0	0	0	0	0	0	0	0	0	0	0	0	0	0	0
071519	13:22:35	13:31:32	536672	5.0.10.0	5_exp_RW	49	Rpleas_acq	CS_B	BZZB	VKKV	MQQM	YDDY	GWWG	JXXJ	schön	retten	fair	ehrlich	treu	spielen	schlecht	rächen	faul	eitel	tot	strafen	1	acq_USpleas_CSpleas1_RW	acq4567_RW	5	32	400	1	300	300	387	50	0	1	1	blank2r.bmp	0	1	+	0	1	blank2r.bmp	492	1	BZZB	492	1	blank2r.bmp	572	1	schön	866	1	!	1239	1	!	1292	0	0	0	0	0	0	0	0	0	0	0	0	0	0	0	0	0	0	0	0	0	0	0	0	0	0	0	0	0	0
071519	13:22:35	13:31:34	538712	5.0.10.0	5_exp_RW	49	Rpleas_acq	CS_B	BZZB	VKKV	MQQM	YDDY	GWWG	JXXJ	schön	retten	fair	ehrlich	treu	spielen	schlecht	rächen	faul	eitel	tot	strafen	1	acq_USpleas_CSpleas2_RW	acq4567_RW	5	33	400	0	300	300	256	46	0	0	1	blank2r.bmp	0	1	+	0	1	blank2r.bmp	492	1	VKKV	492	1	blank2r.bmp	572	3	spielen	866	1	!	-1	1	!	-1	0	0	0	0	0	0	0	0	0	0	0	0	0	0	0	0	0	0	0	0	0	0	0	0	0	0	0	0	0	0
071519	13:22:35	13:31:36	541071	5.0.10.0	5_exp_RW	49	Rpleas_acq	CS_B	BZZB	VKKV	MQQM	YDDY	GWWG	JXXJ	schön	retten	fair	ehrlich	treu	spielen	schlecht	rächen	faul	eitel	tot	strafen	1	acq_USunple_CSunple1_RW	acq4567_RW	5	34	400	0	300	300	583	46	0	1	1	blank2r.bmp	0	1	+	0	1	blank2r.bmp	492	1	MQQM	492	1	blank2r.bmp	572	2	rächen	866	1	!	1239	1	!	-1	0	0	0	0	0	0	0	0	0	0	0	0	0	0	0	0	0	0	0	0	0	0	0	0	0	0	0	0	0	0
071519	13:22:35	13:31:39	543336	5.0.10.0	5_exp_RW	49	Rpleas_acq	CS_B	BZZB	VKKV	MQQM	YDDY	GWWG	JXXJ	schön	retten	fair	ehrlich	treu	spielen	schlecht	rächen	faul	eitel	tot	strafen	1	acq_USpleas_CSpleas1_RW	acq4567_RW	5	35	400	0	300	300	479	50	0	1	1	blank2r.bmp	0	1	+	0	1	blank2r.bmp	492	1	BZZB	492	1	blank2r.bmp	572	2	retten	866	1	!	1239	1	!	-1	0	0	0	0	0	0	0	0	0	0	0	0	0	0	0	0	0	0	0	0	0	0	0	0	0	0	0	0	0	0
071519	13:22:35	13:31:41	545615	5.0.10.0	5_exp_RW	49	Rpleas_acq	CS_B	BZZB	VKKV	MQQM	YDDY	GWWG	JXXJ	schön	retten	fair	ehrlich	treu	spielen	schlecht	rächen	faul	eitel	tot	strafen	1	acq_USpleas_CSpleas2_RW	acq4567_RW	5	36	400	0	300	300	482	50	0	1	1	blank2r.bmp	0	1	+	0	1	blank2r.bmp	492	1	VKKV	492	1	blank2r.bmp	572	3	spielen	866	1	!	1239	1	!	-1	0	0	0	0	0	0	0	0	0	0	0	0	0	0	0	0	0	0	0	0	0	0	0	0	0	0	0	0	0	0
071519	13:22:35	13:31:43	547681	5.0.10.0	5_exp_RW	49	Rpleas_acq	CS_B	BZZB	VKKV	MQQM	YDDY	GWWG	JXXJ	schön	retten	fair	ehrlich	treu	spielen	schlecht	rächen	faul	eitel	tot	strafen	1	acq_USpleas_CSpleas1_RW	acq4567_RW	5	37	400	0	300	300	267	50	0	1	1	blank2r.bmp	0	1	+	0	1	blank2r.bmp	492	1	BZZB	492	1	blank2r.bmp	572	3	fair	866	1	!	-1	1	!	-1	0	0	0	0	0	0	0	0	0	0	0	0	0	0	0	0	0	0	0	0	0	0	0	0	0	0	0	0	0	0
071519	13:22:35	13:31:45	549854	5.0.10.0	5_exp_RW	49	Rpleas_acq	CS_B	BZZB	VKKV	MQQM	YDDY	GWWG	JXXJ	schön	retten	fair	ehrlich	treu	spielen	schlecht	rächen	faul	eitel	tot	strafen	1	acq_USunple_CSunple1_RW	acq4567_RW	5	38	400	1	300	300	359	46	0	1	1	blank2r.bmp	0	1	+	0	1	blank2r.bmp	492	1	MQQM	492	1	blank2r.bmp	572	1	schlecht	866	1	!	1239	1	!	1266	0	0	0	0	0	0	0	0	0	0	0	0	0	0	0	0	0	0	0	0	0	0	0	0	0	0	0	0	0	0
071519	13:22:35	13:31:47	552053	5.0.10.0	5_exp_RW	49	Rpleas_acq	CS_B	BZZB	VKKV	MQQM	YDDY	GWWG	JXXJ	schön	retten	fair	ehrlich	treu	spielen	schlecht	rächen	faul	eitel	tot	strafen	1	acq_USunple_CSunple1_RW	acq4567_RW	5	39	400	1	300	300	409	46	0	1	1	blank2r.bmp	0	1	+	0	1	blank2r.bmp	492	1	MQQM	492	1	blank2r.bmp	572	1	schlecht	866	1	!	1239	1	!	1306	0	0	0	0	0	0	0	0	0	0	0	0	0	0	0	0	0	0	0	0	0	0	0	0	0	0	0	0	0	0
071519	13:22:35	13:31:50	554332	5.0.10.0	5_exp_RW	49	Rpleas_acq	CS_B	BZZB	VKKV	MQQM	YDDY	GWWG	JXXJ	schön	retten	fair	ehrlich	treu	spielen	schlecht	rächen	faul	eitel	tot	strafen	1	acq_USunple_CSunple2_RW	acq4567_RW	5	40	400	0	300	300	511	50	0	0	1	blank2r.bmp	0	1	+	0	1	blank2r.bmp	492	1	YDDY	492	1	blank2r.bmp	572	1	eitel	866	1	!	1239	1	!	-1	0	0	0	0	0	0	0	0	0	0	0	0	0	0	0	0	0	0	0	0	0	0	0	0	0	0	0	0	0	0
071519	13:22:35	13:31:52	556584	5.0.10.0	5_exp_RW	49	Rpleas_acq	CS_B	BZZB	VKKV	MQQM	YDDY	GWWG	JXXJ	schön	retten	fair	ehrlich	treu	spielen	schlecht	rächen	faul	eitel	tot	strafen	1	acq_USunple_CSunple1_RW	acq4567_RW	5	41	400	1	300	300	447	46	0	1	1	blank2r.bmp	0	1	+	0	1	blank2r.bmp	492	1	MQQM	492	1	blank2r.bmp	572	3	faul	866	1	!	1239	1	!	1346	0	0	0	0	0	0	0	0	0	0	0	0	0	0	0	0	0	0	0	0	0	0	0	0	0	0	0	0	0	0
071519	13:22:35	13:31:55	559863	5.0.10.0	5_exp_RW	49	Rpleas_acq	CS_B	BZZB	VKKV	MQQM	YDDY	GWWG	JXXJ	schön	retten	fair	ehrlich	treu	spielen	schlecht	rächen	faul	eitel	tot	strafen	1	acq_USpleas_CSpleas2_RW	acq4567_RW	5	42	400	0	300	300	1506	50	0	1	1	blank2r.bmp	0	1	+	0	1	blank2r.bmp	492	1	VKKV	492	1	blank2r.bmp	572	1	ehrlich	866	1	!	1239	1	!	-1	0	0	0	0	0	0	0	0	0	0	0	0	0	0	0	0	0	0	0	0	0	0	0	0	0	0	0	0	0	0
071519	13:22:35	13:31:57	562049	5.0.10.0	5_exp_RW	49	Rpleas_acq	CS_B	BZZB	VKKV	MQQM	YDDY	GWWG	JXXJ	schön	retten	fair	ehrlich	treu	spielen	schlecht	rächen	faul	eitel	tot	strafen	1	acq_USunple_CSunple1_RW	acq4567_RW	5	43	400	1	300	300	381	46	0	1	1	blank2r.bmp	0	1	+	0	1	blank2r.bmp	492	1	MQQM	492	1	blank2r.bmp	572	2	rächen	866	1	!	1239	1	!	1279	0	0	0	0	0	0	0	0	0	0	0	0	0	0	0	0	0	0	0	0	0	0	0	0	0	0	0	0	0	0
071519	13:22:35	13:32:00	564554	5.0.10.0	5_exp_RW	49	Rpleas_acq	CS_B	BZZB	VKKV	MQQM	YDDY	GWWG	JXXJ	schön	retten	fair	ehrlich	treu	spielen	schlecht	rächen	faul	eitel	tot	strafen	1	acq_USunple_CSunple2_RW	acq4567_RW	5	44	400	0	300	300	732	46	0	1	1	blank2r.bmp	0	1	+	0	1	blank2r.bmp	492	1	YDDY	492	1	blank2r.bmp	572	2	tot	866	1	!	1239	1	!	-1	0	0	0	0	0	0	0	0	0	0	0	0	0	0	0	0	0	0	0	0	0	0	0	0	0	0	0	0	0	0
071519	13:22:35	13:32:02	566793	5.0.10.0	5_exp_RW	49	Rpleas_acq	CS_B	BZZB	VKKV	MQQM	YDDY	GWWG	JXXJ	schön	retten	fair	ehrlich	treu	spielen	schlecht	rächen	faul	eitel	tot	strafen	1	acq_USunple_CSunple2_RW	acq4567_RW	5	45	400	1	300	300	427	46	0	1	1	blank2r.bmp	0	1	+	0	1	blank2r.bmp	492	1	YDDY	492	1	blank2r.bmp	572	3	strafen	866	1	!	1239	1	!	1332	0	0	0	0	0	0	0	0	0	0	0	0	0	0	0	0	0	0	0	0	0	0	0	0	0	0	0	0	0	0
071519	13:22:35	13:32:04	568966	5.0.10.0	5_exp_RW	49	Rpleas_acq	CS_B	BZZB	VKKV	MQQM	YDDY	GWWG	JXXJ	schön	retten	fair	ehrlich	treu	spielen	schlecht	rächen	faul	eitel	tot	strafen	1	acq_USunple_CSunple1_RW	acq4567_RW	5	46	400	1	300	300	378	46	0	1	1	blank2r.bmp	0	1	+	0	1	blank2r.bmp	492	1	MQQM	492	1	blank2r.bmp	572	1	schlecht	866	1	!	1239	1	!	1279	0	0	0	0	0	0	0	0	0	0	0	0	0	0	0	0	0	0	0	0	0	0	0	0	0	0	0	0	0	0
071519	13:22:35	13:32:06	571165	5.0.10.0	5_exp_RW	49	Rpleas_acq	CS_B	BZZB	VKKV	MQQM	YDDY	GWWG	JXXJ	schön	retten	fair	ehrlich	treu	spielen	schlecht	rächen	faul	eitel	tot	strafen	1	acq_USpleas_CSpleas1_RW	acq4567_RW	5	47	400	1	300	300	397	46	0	0	1	blank2r.bmp	0	1	+	0	1	blank2r.bmp	492	1	BZZB	492	1	blank2r.bmp	572	2	retten	866	1	!	1239	1	!	1292	0	0	0	0	0	0	0	0	0	0	0	0	0	0	0	0	0	0	0	0	0	0	0	0	0	0	0	0	0	0
071519	13:22:35	13:32:09	573511	5.0.10.0	5_exp_RW	49	Rpleas_acq	CS_B	BZZB	VKKV	MQQM	YDDY	GWWG	JXXJ	schön	retten	fair	ehrlich	treu	spielen	schlecht	rächen	faul	eitel	tot	strafen	1	acq_USpleas_CSpleas2_RW	acq4567_RW	5	48	400	0	300	300	564	50	0	1	1	blank2r.bmp	0	1	+	0	1	blank2r.bmp	492	1	VKKV	492	1	blank2r.bmp	572	2	treu	866	1	!	1239	1	!	-1	0	0	0	0	0	0	0	0	0	0	0	0	0	0	0	0	0	0	0	0	0	0	0	0	0	0	0	0	0	0
071519	13:22:35	13:32:11	575910	5.0.10.0	5_exp_RW	49	Rpleas_acq	CS_B	BZZB	VKKV	MQQM	YDDY	GWWG	JXXJ	schön	retten	fair	ehrlich	treu	spielen	schlecht	rächen	faul	eitel	tot	strafen	1	acq_USpleas_CSpleas1_RW	acq4567_RW	5	49	400	0	300	300	618	50	0	1	1	blank2r.bmp	0	1	+	0	1	blank2r.bmp	492	1	BZZB	492	1	blank2r.bmp	572	1	schön	866	1	!	1239	1	!	-1	0	0	0	0	0	0	0	0	0	0	0	0	0	0	0	0	0	0	0	0	0	0	0	0	0	0	0	0	0	0
071519	13:22:35	13:32:14	578189	5.0.10.0	5_exp_RW	49	Rpleas_acq	CS_B	BZZB	VKKV	MQQM	YDDY	GWWG	JXXJ	schön	retten	fair	ehrlich	treu	spielen	schlecht	rächen	faul	eitel	tot	strafen	1	acq_USpleas_CSpleas2_RW	acq4567_RW	5	50	400	1	300	300	462	50	0	1	1	blank2r.bmp	0	1	+	0	1	blank2r.bmp	492	1	VKKV	492	1	blank2r.bmp	572	1	ehrlich	866	1	!	1239	1	!	1359	0	0	0	0	0	0	0	0	0	0	0	0	0	0	0	0	0	0	0	0	0	0	0	0	0	0	0	0	0	0
071519	13:22:35	13:32:16	580454	5.0.10.0	5_exp_RW	49	Rpleas_acq	CS_B	BZZB	VKKV	MQQM	YDDY	GWWG	JXXJ	schön	retten	fair	ehrlich	treu	spielen	schlecht	rächen	faul	eitel	tot	strafen	1	acq_USpleas_CSpleas2_RW	acq4567_RW	5	51	400	0	300	300	496	50	0	1	1	blank2r.bmp	0	1	+	0	1	blank2r.bmp	492	1	VKKV	492	1	blank2r.bmp	572	3	spielen	866	1	!	1239	1	!	-1	0	0	0	0	0	0	0	0	0	0	0	0	0	0	0	0	0	0	0	0	0	0	0	0	0	0	0	0	0	0
071519	13:22:35	13:32:18	582614	5.0.10.0	5_exp_RW	49	Rpleas_acq	CS_B	BZZB	VKKV	MQQM	YDDY	GWWG	JXXJ	schön	retten	fair	ehrlich	treu	spielen	schlecht	rächen	faul	eitel	tot	strafen	1	acq_USpleas_CSpleas1_RW	acq4567_RW	5	52	400	1	300	300	347	50	0	1	1	blank2r.bmp	0	1	+	0	1	blank2r.bmp	492	1	BZZB	492	1	blank2r.bmp	572	1	schön	866	1	!	1239	1	!	1252	0	0	0	0	0	0	0	0	0	0	0	0	0	0	0	0	0	0	0	0	0	0	0	0	0	0	0	0	0	0
071519	13:22:35	13:32:21	585706	5.0.10.0	5_exp_RW	49	Rpleas_acq	CS_B	BZZB	VKKV	MQQM	YDDY	GWWG	JXXJ	schön	retten	fair	ehrlich	treu	spielen	schlecht	rächen	faul	eitel	tot	strafen	1	acq_USunple_CSunple2_RW	acq4567_RW	5	53	400	0	300	300	1323	46	0	1	1	blank2r.bmp	0	1	+	0	1	blank2r.bmp	492	1	YDDY	492	1	blank2r.bmp	572	1	eitel	866	1	!	1239	1	!	-1	0	0	0	0	0	0	0	0	0	0	0	0	0	0	0	0	0	0	0	0	0	0	0	0	0	0	0	0	0	0
071519	13:22:35	13:32:23	587931	5.0.10.0	5_exp_RW	49	Rpleas_acq	CS_B	BZZB	VKKV	MQQM	YDDY	GWWG	JXXJ	schön	retten	fair	ehrlich	treu	spielen	schlecht	rächen	faul	eitel	tot	strafen	1	acq_USunple_CSunple1_RW	acq4567_RW	5	54	400	1	300	300	408	46	0	1	1	blank2r.bmp	0	1	+	0	1	blank2r.bmp	492	1	MQQM	492	1	blank2r.bmp	572	3	faul	866	1	!	1239	1	!	1306	0	0	0	0	0	0	0	0	0	0	0	0	0	0	0	0	0	0	0	0	0	0	0	0	0	0	0	0	0	0
071519	13:22:35	13:32:26	590197	5.0.10.0	5_exp_RW	49	Rpleas_acq	CS_B	BZZB	VKKV	MQQM	YDDY	GWWG	JXXJ	schön	retten	fair	ehrlich	treu	spielen	schlecht	rächen	faul	eitel	tot	strafen	1	acq_USunple_CSunple2_RW	acq4567_RW	5	55	400	0	300	300	502	46	0	1	1	blank2r.bmp	0	1	+	0	1	blank2r.bmp	492	1	YDDY	492	1	blank2r.bmp	572	2	tot	866	1	!	1239	1	!	-1	0	0	0	0	0	0	0	0	0	0	0	0	0	0	0	0	0	0	0	0	0	0	0	0	0	0	0	0	0	0
071519	13:22:35	13:32:28	592516	5.0.10.0	5_exp_RW	49	Rpleas_acq	CS_B	BZZB	VKKV	MQQM	YDDY	GWWG	JXXJ	schön	retten	fair	ehrlich	treu	spielen	schlecht	rächen	faul	eitel	tot	strafen	1	acq_USpleas_CSpleas2_RW	acq4567_RW	5	56	400	0	300	300	536	50	0	1	1	blank2r.bmp	0	1	+	0	1	blank2r.bmp	492	1	VKKV	492	1	blank2r.bmp	572	2	treu	866	1	!	1239	1	!	-1	0	0	0	0	0	0	0	0	0	0	0	0	0	0	0	0	0	0	0	0	0	0	0	0	0	0	0	0	0	0
071519	13:22:35	13:32:30	594782	5.0.10.0	5_exp_RW	49	Rpleas_acq	CS_B	BZZB	VKKV	MQQM	YDDY	GWWG	JXXJ	schön	retten	fair	ehrlich	treu	spielen	schlecht	rächen	faul	eitel	tot	strafen	1	acq_USunple_CSunple1_RW	acq4567_RW	5	57	400	1	300	300	456	46	0	1	1	blank2r.bmp	0	1	+	0	1	blank2r.bmp	492	1	MQQM	492	1	blank2r.bmp	572	2	rächen	866	1	!	1239	1	!	1359	0	0	0	0	0	0	0	0	0	0	0	0	0	0	0	0	0	0	0	0	0	0	0	0	0	0	0	0	0	0
071519	13:22:35	13:32:32	596874	5.0.10.0	5_exp_RW	49	Rpleas_acq	CS_B	BZZB	VKKV	MQQM	YDDY	GWWG	JXXJ	schön	retten	fair	ehrlich	treu	spielen	schlecht	rächen	faul	eitel	tot	strafen	1	acq_USpleas_CSpleas1_RW	acq4567_RW	5	58	400	0	300	300	315	46	0	0	1	blank2r.bmp	0	1	+	0	1	blank2r.bmp	492	1	BZZB	492	1	blank2r.bmp	572	2	retten	866	1	!	-1	1	!	-1	0	0	0	0	0	0	0	0	0	0	0	0	0	0	0	0	0	0	0	0	0	0	0	0	0	0	0	0	0	0
071519	13:22:35	13:32:34	599140	5.0.10.0	5_exp_RW	49	Rpleas_acq	CS_B	BZZB	VKKV	MQQM	YDDY	GWWG	JXXJ	schön	retten	fair	ehrlich	treu	spielen	schlecht	rächen	faul	eitel	tot	strafen	1	acq_USpleas_CSpleas1_RW	acq4567_RW	5	59	400	1	300	300	456	50	0	1	1	blank2r.bmp	0	1	+	0	1	blank2r.bmp	492	1	BZZB	492	1	blank2r.bmp	572	3	fair	866	1	!	1239	1	!	1359	0	0	0	0	0	0	0	0	0	0	0	0	0	0	0	0	0	0	0	0	0	0	0	0	0	0	0	0	0	0
071519	13:22:35	13:32:37	601379	5.0.10.0	5_exp_RW	49	Rpleas_acq	CS_B	BZZB	VKKV	MQQM	YDDY	GWWG	JXXJ	schön	retten	fair	ehrlich	treu	spielen	schlecht	rächen	faul	eitel	tot	strafen	1	acq_USunple_CSunple2_RW	acq4567_RW	5	60	400	1	300	300	441	46	0	1	1	blank2r.bmp	0	1	+	0	1	blank2r.bmp	492	1	YDDY	492	1	blank2r.bmp	572	3	strafen	866	1	!	1239	1	!	1346	0	0	0	0	0	0	0	0	0	0	0	0	0	0	0	0	0	0	0	0	0	0	0	0	0	0	0	0	0	0
071519	13:22:35	13:32:39	603698	5.0.10.0	5_exp_RW	49	Rpleas_acq	CS_B	BZZB	VKKV	MQQM	YDDY	GWWG	JXXJ	schön	retten	fair	ehrlich	treu	spielen	schlecht	rächen	faul	eitel	tot	strafen	1	acq_USunple_CSunple1_RW	acq4567_RW	5	61	400	0	300	300	550	46	0	1	1	blank2r.bmp	0	1	+	0	1	blank2r.bmp	492	1	MQQM	492	1	blank2r.bmp	572	2	rächen	866	1	!	1239	1	!	-1	0	0	0	0	0	0	0	0	0	0	0	0	0	0	0	0	0	0	0	0	0	0	0	0	0	0	0	0	0	0
071519	13:22:35	13:32:41	605924	5.0.10.0	5_exp_RW	49	Rpleas_acq	CS_B	BZZB	VKKV	MQQM	YDDY	GWWG	JXXJ	schön	retten	fair	ehrlich	treu	spielen	schlecht	rächen	faul	eitel	tot	strafen	1	acq_USunple_CSunple1_RW	acq4567_RW	5	62	400	1	300	300	424	50	0	0	1	blank2r.bmp	0	1	+	0	1	blank2r.bmp	492	1	MQQM	492	1	blank2r.bmp	572	3	faul	866	1	!	1239	1	!	1319	0	0	0	0	0	0	0	0	0	0	0	0	0	0	0	0	0	0	0	0	0	0	0	0	0	0	0	0	0	0
071519	13:22:35	13:32:43	608096	5.0.10.0	5_exp_RW	49	Rpleas_acq	CS_B	BZZB	VKKV	MQQM	YDDY	GWWG	JXXJ	schön	retten	fair	ehrlich	treu	spielen	schlecht	rächen	faul	eitel	tot	strafen	1	acq_USpleas_CSpleas1_RW	acq4567_RW	5	63	400	1	300	300	375	46	0	0	1	blank2r.bmp	0	1	+	0	1	blank2r.bmp	492	1	BZZB	492	1	blank2r.bmp	572	2	retten	866	1	!	1239	1	!	1279	0	0	0	0	0	0	0	0	0	0	0	0	0	0	0	0	0	0	0	0	0	0	0	0	0	0	0	0	0	0
071519	13:22:35	13:32:46	610336	5.0.10.0	5_exp_RW	49	Rpleas_acq	CS_B	BZZB	VKKV	MQQM	YDDY	GWWG	JXXJ	schön	retten	fair	ehrlich	treu	spielen	schlecht	rächen	faul	eitel	tot	strafen	1	acq_USpleas_CSpleas1_RW	acq4567_RW	5	64	400	1	300	300	446	50	0	1	1	blank2r.bmp	0	1	+	0	1	blank2r.bmp	492	1	BZZB	492	1	blank2r.bmp	572	3	fair	866	1	!	1239	1	!	1346	0	0	0	0	0	0	0	0	0	0	0	0	0	0	0	0	0	0	0	0	0	0	0	0	0	0	0	0	0	0
071519	13:22:35	13:32:48	612601	5.0.10.0	5_exp_RW	49	Rpleas_acq	CS_B	BZZB	VKKV	MQQM	YDDY	GWWG	JXXJ	schön	retten	fair	ehrlich	treu	spielen	schlecht	rächen	faul	eitel	tot	strafen	1	acq_USunple_CSunple2_RW	acq4567_RW	5	65	400	1	300	300	459	46	0	1	1	blank2r.bmp	0	1	+	0	1	blank2r.bmp	492	1	YDDY	492	1	blank2r.bmp	572	2	tot	866	1	!	1239	1	!	1359	0	0	0	0	0	0	0	0	0	0	0	0	0	0	0	0	0	0	0	0	0	0	0	0	0	0	0	0	0	0
071519	13:22:35	13:32:50	614854	5.0.10.0	5_exp_RW	49	Rpleas_acq	CS_B	BZZB	VKKV	MQQM	YDDY	GWWG	JXXJ	schön	retten	fair	ehrlich	treu	spielen	schlecht	rächen	faul	eitel	tot	strafen	1	acq_USpleas_CSpleas2_RW	acq4567_RW	5	66	400	1	300	300	458	50	0	1	1	blank2r.bmp	0	1	+	0	1	blank2r.bmp	492	1	VKKV	492	1	blank2r.bmp	572	1	ehrlich	866	1	!	1239	1	!	1359	0	0	0	0	0	0	0	0	0	0	0	0	0	0	0	0	0	0	0	0	0	0	0	0	0	0	0	0	0	0
071519	13:22:35	13:32:52	617106	5.0.10.0	5_exp_RW	49	Rpleas_acq	CS_B	BZZB	VKKV	MQQM	YDDY	GWWG	JXXJ	schön	retten	fair	ehrlich	treu	spielen	schlecht	rächen	faul	eitel	tot	strafen	1	acq_USpleas_CSpleas2_RW	acq4567_RW	5	67	400	1	300	300	452	50	0	1	1	blank2r.bmp	0	1	+	0	1	blank2r.bmp	492	1	VKKV	492	1	blank2r.bmp	572	2	treu	866	1	!	1239	1	!	1359	0	0	0	0	0	0	0	0	0	0	0	0	0	0	0	0	0	0	0	0	0	0	0	0	0	0	0	0	0	0
071519	13:22:35	13:32:55	619372	5.0.10.0	5_exp_RW	49	Rpleas_acq	CS_B	BZZB	VKKV	MQQM	YDDY	GWWG	JXXJ	schön	retten	fair	ehrlich	treu	spielen	schlecht	rächen	faul	eitel	tot	strafen	1	acq_USpleas_CSpleas2_RW	acq4567_RW	5	68	400	0	300	300	479	50	0	1	1	blank2r.bmp	0	1	+	0	1	blank2r.bmp	492	1	VKKV	492	1	blank2r.bmp	572	3	spielen	866	1	!	1239	1	!	-1	0	0	0	0	0	0	0	0	0	0	0	0	0	0	0	0	0	0	0	0	0	0	0	0	0	0	0	0	0	0
071519	13:22:35	13:32:57	621678	5.0.10.0	5_exp_RW	49	Rpleas_acq	CS_B	BZZB	VKKV	MQQM	YDDY	GWWG	JXXJ	schön	retten	fair	ehrlich	treu	spielen	schlecht	rächen	faul	eitel	tot	strafen	1	acq_USunple_CSunple1_RW	acq4567_RW	5	69	400	0	300	300	515	46	0	1	1	blank2r.bmp	0	1	+	0	1	blank2r.bmp	492	1	MQQM	492	1	blank2r.bmp	572	1	schlecht	866	1	!	1239	1	!	-1	0	0	0	0	0	0	0	0	0	0	0	0	0	0	0	0	0	0	0	0	0	0	0	0	0	0	0	0	0	0
071519	13:22:35	13:32:59	623970	5.0.10.0	5_exp_RW	49	Rpleas_acq	CS_B	BZZB	VKKV	MQQM	YDDY	GWWG	JXXJ	schön	retten	fair	ehrlich	treu	spielen	schlecht	rächen	faul	eitel	tot	strafen	1	acq_USunple_CSunple2_RW	acq4567_RW	5	70	400	0	300	300	515	50	0	0	1	blank2r.bmp	0	1	+	0	1	blank2r.bmp	492	1	YDDY	492	1	blank2r.bmp	572	1	eitel	866	1	!	1239	1	!	-1	0	0	0	0	0	0	0	0	0	0	0	0	0	0	0	0	0	0	0	0	0	0	0	0	0	0	0	0	0	0
071519	13:22:35	13:33:02	626196	5.0.10.0	5_exp_RW	49	Rpleas_acq	CS_B	BZZB	VKKV	MQQM	YDDY	GWWG	JXXJ	schön	retten	fair	ehrlich	treu	spielen	schlecht	rächen	faul	eitel	tot	strafen	1	acq_USunple_CSunple2_RW	acq4567_RW	5	71	400	1	300	300	423	46	0	1	1	blank2r.bmp	0	1	+	0	1	blank2r.bmp	492	1	YDDY	492	1	blank2r.bmp	572	3	strafen	866	1	!	1239	1	!	1319	0	0	0	0	0	0	0	0	0	0	0	0	0	0	0	0	0	0	0	0	0	0	0	0	0	0	0	0	0	0
071519	13:22:35	13:33:04	628395	5.0.10.0	5_exp_RW	49	Rpleas_acq	CS_B	BZZB	VKKV	MQQM	YDDY	GWWG	JXXJ	schön	retten	fair	ehrlich	treu	spielen	schlecht	rächen	faul	eitel	tot	strafen	1	acq_USpleas_CSpleas1_RW	acq4567_RW	5	72	400	1	300	300	405	46	0	0	1	blank2r.bmp	0	1	+	0	1	blank2r.bmp	492	1	BZZB	492	1	blank2r.bmp	572	1	schön	866	1	!	1239	1	!	1306	0	0	0	0	0	0	0	0	0	0	0	0	0	0	0	0	0	0	0	0	0	0	0	0	0	0	0	0	0	0
071519	13:22:35	13:33:06	630487	5.0.10.0	5_exp_RW	49	Rpleas_acq	CS_B	BZZB	VKKV	MQQM	YDDY	GWWG	JXXJ	schön	retten	fair	ehrlich	treu	spielen	schlecht	rächen	faul	eitel	tot	strafen	1	acq_USunple_CSunple2_RW	acq4567_RW	5	73	400	0	300	300	325	46	0	1	1	blank2r.bmp	0	1	+	0	1	blank2r.bmp	492	1	YDDY	492	1	blank2r.bmp	572	2	tot	866	1	!	-1	1	!	-1	0	0	0	0	0	0	0	0	0	0	0	0	0	0	0	0	0	0	0	0	0	0	0	0	0	0	0	0	0	0
071519	13:22:35	13:33:08	632753	5.0.10.0	5_exp_RW	49	Rpleas_acq	CS_B	BZZB	VKKV	MQQM	YDDY	GWWG	JXXJ	schön	retten	fair	ehrlich	treu	spielen	schlecht	rächen	faul	eitel	tot	strafen	1	acq_USpleas_CSpleas2_RW	acq4567_RW	5	74	400	1	300	300	464	50	0	1	1	blank2r.bmp	0	1	+	0	1	blank2r.bmp	492	1	VKKV	492	1	blank2r.bmp	572	3	spielen	866	1	!	1239	1	!	1359	0	0	0	0	0	0	0	0	0	0	0	0	0	0	0	0	0	0	0	0	0	0	0	0	0	0	0	0	0	0
071519	13:22:35	13:33:10	635019	5.0.10.0	5_exp_RW	49	Rpleas_acq	CS_B	BZZB	VKKV	MQQM	YDDY	GWWG	JXXJ	schön	retten	fair	ehrlich	treu	spielen	schlecht	rächen	faul	eitel	tot	strafen	1	acq_USunple_CSunple1_RW	acq4567_RW	5	75	400	0	300	300	479	46	0	1	1	blank2r.bmp	0	1	+	0	1	blank2r.bmp	492	1	MQQM	492	1	blank2r.bmp	572	3	faul	866	1	!	1239	1	!	-1	0	0	0	0	0	0	0	0	0	0	0	0	0	0	0	0	0	0	0	0	0	0	0	0	0	0	0	0	0	0
071519	13:22:35	13:33:13	637205	5.0.10.0	5_exp_RW	49	Rpleas_acq	CS_B	BZZB	VKKV	MQQM	YDDY	GWWG	JXXJ	schön	retten	fair	ehrlich	treu	spielen	schlecht	rächen	faul	eitel	tot	strafen	1	acq_USpleas_CSpleas1_RW	acq4567_RW	5	76	400	1	300	300	372	46	0	0	1	blank2r.bmp	0	1	+	0	1	blank2r.bmp	492	1	BZZB	492	1	blank2r.bmp	572	3	fair	866	1	!	1239	1	!	1266	0	0	0	0	0	0	0	0	0	0	0	0	0	0	0	0	0	0	0	0	0	0	0	0	0	0	0	0	0	0
071519	13:22:35	13:33:15	639417	5.0.10.0	5_exp_RW	49	Rpleas_acq	CS_B	BZZB	VKKV	MQQM	YDDY	GWWG	JXXJ	schön	retten	fair	ehrlich	treu	spielen	schlecht	rächen	faul	eitel	tot	strafen	1	acq_USpleas_CSpleas2_RW	acq4567_RW	5	77	400	1	300	300	420	50	0	1	1	blank2r.bmp	0	1	+	0	1	blank2r.bmp	492	1	VKKV	492	1	blank2r.bmp	572	1	ehrlich	866	1	!	1239	1	!	1319	0	0	0	0	0	0	0	0	0	0	0	0	0	0	0	0	0	0	0	0	0	0	0	0	0	0	0	0	0	0
071519	13:22:35	13:33:17	641616	5.0.10.0	5_exp_RW	49	Rpleas_acq	CS_B	BZZB	VKKV	MQQM	YDDY	GWWG	JXXJ	schön	retten	fair	ehrlich	treu	spielen	schlecht	rächen	faul	eitel	tot	strafen	1	acq_USunple_CSunple2_RW	acq4567_RW	5	78	400	1	300	300	408	50	0	0	1	blank2r.bmp	0	1	+	0	1	blank2r.bmp	492	1	YDDY	492	1	blank2r.bmp	572	1	eitel	866	1	!	1239	1	!	1306	0	0	0	0	0	0	0	0	0	0	0	0	0	0	0	0	0	0	0	0	0	0	0	0	0	0	0	0	0	0
071519	13:22:35	13:33:19	643855	5.0.10.0	5_exp_RW	49	Rpleas_acq	CS_B	BZZB	VKKV	MQQM	YDDY	GWWG	JXXJ	schön	retten	fair	ehrlich	treu	spielen	schlecht	rächen	faul	eitel	tot	strafen	1	acq_USpleas_CSpleas1_RW	acq4567_RW	5	79	400	1	300	300	439	50	0	1	1	blank2r.bmp	0	1	+	0	1	blank2r.bmp	492	1	BZZB	492	1	blank2r.bmp	572	2	retten	866	1	!	1239	1	!	1346	0	0	0	0	0	0	0	0	0	0	0	0	0	0	0	0	0	0	0	0	0	0	0	0	0	0	0	0	0	0
071519	13:22:35	13:33:21	646134	5.0.10.0	5_exp_RW	49	Rpleas_acq	CS_B	BZZB	VKKV	MQQM	YDDY	GWWG	JXXJ	schön	retten	fair	ehrlich	treu	spielen	schlecht	rächen	faul	eitel	tot	strafen	1	acq_USunple_CSunple1_RW	acq4567_RW	5	80	400	0	300	300	506	46	0	1	1	blank2r.bmp	0	1	+	0	1	blank2r.bmp	492	1	MQQM	492	1	blank2r.bmp	572	2	rächen	866	1	!	1239	1	!	-1	0	0	0	0	0	0	0	0	0	0	0	0	0	0	0	0	0	0	0	0	0	0	0	0	0	0	0	0	0	0
071519	13:22:35	13:33:38	662488	5.0.10.0	5_exp_RW	49	Rpleas_acq	CS_B	BZZB	VKKV	MQQM	YDDY	GWWG	JXXJ	schön	retten	fair	ehrlich	treu	spielen	schlecht	rächen	faul	eitel	tot	strafen	1	acq_USunple_CSunple1_RW	acq4567_RW	6	1	400	1	300	300	422	46	0	1	1	blank2r.bmp	0	1	+	0	1	blank2r.bmp	492	1	MQQM	492	1	blank2r.bmp	572	1	schlecht	866	1	!	1239	1	!	1319	0	0	0	0	0	0	0	0	0	0	0	0	0	0	0	0	0	0	0	0	0	0	0	0	0	0	0	0	0	0
071519	13:22:35	13:33:40	664713	5.0.10.0	5_exp_RW	49	Rpleas_acq	CS_B	BZZB	VKKV	MQQM	YDDY	GWWG	JXXJ	schön	retten	fair	ehrlich	treu	spielen	schlecht	rächen	faul	eitel	tot	strafen	1	acq_USunple_CSunple1_RW	acq4567_RW	6	2	400	1	300	300	423	46	0	1	1	blank2r.bmp	0	1	+	0	1	blank2r.bmp	492	1	MQQM	492	1	blank2r.bmp	572	1	schlecht	866	1	!	1239	1	!	1319	0	0	0	0	0	0	0	0	0	0	0	0	0	0	0	0	0	0	0	0	0	0	0	0	0	0	0	0	0	0
071519	13:22:35	13:33:42	666859	5.0.10.0	5_exp_RW	49	Rpleas_acq	CS_B	BZZB	VKKV	MQQM	YDDY	GWWG	JXXJ	schön	retten	fair	ehrlich	treu	spielen	schlecht	rächen	faul	eitel	tot	strafen	1	acq_USunple_CSunple1_RW	acq4567_RW	6	3	400	1	300	300	354	46	0	1	1	blank2r.bmp	0	1	+	0	1	blank2r.bmp	492	1	MQQM	492	1	blank2r.bmp	572	2	rächen	866	1	!	1239	1	!	1252	0	0	0	0	0	0	0	0	0	0	0	0	0	0	0	0	0	0	0	0	0	0	0	0	0	0	0	0	0	0
071519	13:22:35	13:33:44	669018	5.0.10.0	5_exp_RW	49	Rpleas_acq	CS_B	BZZB	VKKV	MQQM	YDDY	GWWG	JXXJ	schön	retten	fair	ehrlich	treu	spielen	schlecht	rächen	faul	eitel	tot	strafen	1	acq_USpleas_CSpleas1_RW	acq4567_RW	6	4	400	1	300	300	369	50	0	1	1	blank2r.bmp	0	1	+	0	1	blank2r.bmp	492	1	BZZB	492	1	blank2r.bmp	572	1	schön	866	1	!	1239	1	!	1266	0	0	0	0	0	0	0	0	0	0	0	0	0	0	0	0	0	0	0	0	0	0	0	0	0	0	0	0	0	0
071519	13:22:35	13:33:46	671111	5.0.10.0	5_exp_RW	49	Rpleas_acq	CS_B	BZZB	VKKV	MQQM	YDDY	GWWG	JXXJ	schön	retten	fair	ehrlich	treu	spielen	schlecht	rächen	faul	eitel	tot	strafen	1	acq_USunple_CSunple1_RW	acq4567_RW	6	5	400	0	300	300	319	46	0	1	1	blank2r.bmp	0	1	+	0	1	blank2r.bmp	492	1	MQQM	492	1	blank2r.bmp	572	3	faul	866	1	!	-1	1	!	-1	0	0	0	0	0	0	0	0	0	0	0	0	0	0	0	0	0	0	0	0	0	0	0	0	0	0	0	0	0	0
071519	13:22:35	13:33:49	673376	5.0.10.0	5_exp_RW	49	Rpleas_acq	CS_B	BZZB	VKKV	MQQM	YDDY	GWWG	JXXJ	schön	retten	fair	ehrlich	treu	spielen	schlecht	rächen	faul	eitel	tot	strafen	1	acq_USunple_CSunple2_RW	acq4567_RW	6	6	400	1	300	300	458	46	0	1	1	blank2r.bmp	0	1	+	0	1	blank2r.bmp	492	1	YDDY	492	1	blank2r.bmp	572	3	strafen	866	1	!	1239	1	!	1359	0	0	0	0	0	0	0	0	0	0	0	0	0	0	0	0	0	0	0	0	0	0	0	0	0	0	0	0	0	0
071519	13:22:35	13:33:51	675615	5.0.10.0	5_exp_RW	49	Rpleas_acq	CS_B	BZZB	VKKV	MQQM	YDDY	GWWG	JXXJ	schön	retten	fair	ehrlich	treu	spielen	schlecht	rächen	faul	eitel	tot	strafen	1	acq_USpleas_CSpleas1_RW	acq4567_RW	6	7	400	1	300	300	432	50	0	1	1	blank2r.bmp	0	1	+	0	1	blank2r.bmp	492	1	BZZB	492	1	blank2r.bmp	572	2	retten	866	1	!	1239	1	!	1332	0	0	0	0	0	0	0	0	0	0	0	0	0	0	0	0	0	0	0	0	0	0	0	0	0	0	0	0	0	0
071519	13:22:35	13:33:53	677801	5.0.10.0	5_exp_RW	49	Rpleas_acq	CS_B	BZZB	VKKV	MQQM	YDDY	GWWG	JXXJ	schön	retten	fair	ehrlich	treu	spielen	schlecht	rächen	faul	eitel	tot	strafen	1	acq_USpleas_CSpleas1_RW	acq4567_RW	6	8	400	1	300	300	388	46	0	0	1	blank2r.bmp	0	1	+	0	1	blank2r.bmp	492	1	BZZB	492	1	blank2r.bmp	572	3	fair	866	1	!	1239	1	!	1292	0	0	0	0	0	0	0	0	0	0	0	0	0	0	0	0	0	0	0	0	0	0	0	0	0	0	0	0	0	0
071519	13:22:35	13:33:55	680067	5.0.10.0	5_exp_RW	49	Rpleas_acq	CS_B	BZZB	VKKV	MQQM	YDDY	GWWG	JXXJ	schön	retten	fair	ehrlich	treu	spielen	schlecht	rächen	faul	eitel	tot	strafen	1	acq_USpleas_CSpleas2_RW	acq4567_RW	6	9	400	0	300	300	503	50	0	1	1	blank2r.bmp	0	1	+	0	1	blank2r.bmp	492	1	VKKV	492	1	blank2r.bmp	572	2	treu	866	1	!	1239	1	!	-1	0	0	0	0	0	0	0	0	0	0	0	0	0	0	0	0	0	0	0	0	0	0	0	0	0	0	0	0	0	0
071519	13:22:35	13:33:58	682226	5.0.10.0	5_exp_RW	49	Rpleas_acq	CS_B	BZZB	VKKV	MQQM	YDDY	GWWG	JXXJ	schön	retten	fair	ehrlich	treu	spielen	schlecht	rächen	faul	eitel	tot	strafen	1	acq_USpleas_CSpleas2_RW	acq4567_RW	6	10	400	1	300	300	352	50	0	1	1	blank2r.bmp	0	1	+	0	1	blank2r.bmp	492	1	VKKV	492	1	blank2r.bmp	572	2	treu	866	1	!	1239	1	!	1252	0	0	0	0	0	0	0	0	0	0	0	0	0	0	0	0	0	0	0	0	0	0	0	0	0	0	0	0	0	0
071519	13:22:35	13:34:00	684479	5.0.10.0	5_exp_RW	49	Rpleas_acq	CS_B	BZZB	VKKV	MQQM	YDDY	GWWG	JXXJ	schön	retten	fair	ehrlich	treu	spielen	schlecht	rächen	faul	eitel	tot	strafen	1	acq_USpleas_CSpleas1_RW	acq4567_RW	6	11	400	0	300	300	490	50	0	1	1	blank2r.bmp	0	1	+	0	1	blank2r.bmp	492	1	BZZB	492	1	blank2r.bmp	572	1	schön	866	1	!	1239	1	!	-1	0	0	0	0	0	0	0	0	0	0	0	0	0	0	0	0	0	0	0	0	0	0	0	0	0	0	0	0	0	0
071519	13:22:35	13:34:02	686571	5.0.10.0	5_exp_RW	49	Rpleas_acq	CS_B	BZZB	VKKV	MQQM	YDDY	GWWG	JXXJ	schön	retten	fair	ehrlich	treu	spielen	schlecht	rächen	faul	eitel	tot	strafen	1	acq_USunple_CSunple2_RW	acq4567_RW	6	12	400	0	300	300	310	46	0	1	1	blank2r.bmp	0	1	+	0	1	blank2r.bmp	492	1	YDDY	492	1	blank2r.bmp	572	2	tot	866	1	!	-1	1	!	-1	0	0	0	0	0	0	0	0	0	0	0	0	0	0	0	0	0	0	0	0	0	0	0	0	0	0	0	0	0	0
071519	13:22:35	13:34:04	688823	5.0.10.0	5_exp_RW	49	Rpleas_acq	CS_B	BZZB	VKKV	MQQM	YDDY	GWWG	JXXJ	schön	retten	fair	ehrlich	treu	spielen	schlecht	rächen	faul	eitel	tot	strafen	1	acq_USunple_CSunple2_RW	acq4567_RW	6	13	400	1	300	300	441	50	0	0	1	blank2r.bmp	0	1	+	0	1	blank2r.bmp	492	1	YDDY	492	1	blank2r.bmp	572	1	eitel	866	1	!	1239	1	!	1346	0	0	0	0	0	0	0	0	0	0	0	0	0	0	0	0	0	0	0	0	0	0	0	0	0	0	0	0	0	0
071519	13:22:35	13:34:06	690916	5.0.10.0	5_exp_RW	49	Rpleas_acq	CS_B	BZZB	VKKV	MQQM	YDDY	GWWG	JXXJ	schön	retten	fair	ehrlich	treu	spielen	schlecht	rächen	faul	eitel	tot	strafen	1	acq_USunple_CSunple2_RW	acq4567_RW	6	14	400	0	300	300	320	46	0	1	1	blank2r.bmp	0	1	+	0	1	blank2r.bmp	492	1	YDDY	492	1	blank2r.bmp	572	3	strafen	866	1	!	-1	1	!	-1	0	0	0	0	0	0	0	0	0	0	0	0	0	0	0	0	0	0	0	0	0	0	0	0	0	0	0	0	0	0
071519	13:22:35	13:34:08	693155	5.0.10.0	5_exp_RW	49	Rpleas_acq	CS_B	BZZB	VKKV	MQQM	YDDY	GWWG	JXXJ	schön	retten	fair	ehrlich	treu	spielen	schlecht	rächen	faul	eitel	tot	strafen	1	acq_USpleas_CSpleas2_RW	acq4567_RW	6	15	400	1	300	300	434	50	0	1	1	blank2r.bmp	0	1	+	0	1	blank2r.bmp	492	1	VKKV	492	1	blank2r.bmp	572	1	ehrlich	866	1	!	1239	1	!	1332	0	0	0	0	0	0	0	0	0	0	0	0	0	0	0	0	0	0	0	0	0	0	0	0	0	0	0	0	0	0
071519	13:22:35	13:34:11	695261	5.0.10.0	5_exp_RW	49	Rpleas_acq	CS_B	BZZB	VKKV	MQQM	YDDY	GWWG	JXXJ	schön	retten	fair	ehrlich	treu	spielen	schlecht	rächen	faul	eitel	tot	strafen	1	acq_USunple_CSunple2_RW	acq4567_RW	6	16	400	0	300	300	319	46	0	1	1	blank2r.bmp	0	1	+	0	1	blank2r.bmp	492	1	YDDY	492	1	blank2r.bmp	572	2	tot	866	1	!	-1	1	!	-1	0	0	0	0	0	0	0	0	0	0	0	0	0	0	0	0	0	0	0	0	0	0	0	0	0	0	0	0	0	0
071519	13:22:35	13:34:13	697487	5.0.10.0	5_exp_RW	49	Rpleas_acq	CS_B	BZZB	VKKV	MQQM	YDDY	GWWG	JXXJ	schön	retten	fair	ehrlich	treu	spielen	schlecht	rächen	faul	eitel	tot	strafen	1	acq_USpleas_CSpleas2_RW	acq4567_RW	6	17	400	1	300	300	420	50	0	1	1	blank2r.bmp	0	1	+	0	1	blank2r.bmp	492	1	VKKV	492	1	blank2r.bmp	572	3	spielen	866	1	!	1239	1	!	1319	0	0	0	0	0	0	0	0	0	0	0	0	0	0	0	0	0	0	0	0	0	0	0	0	0	0	0	0	0	0
071519	13:22:35	13:34:15	699566	5.0.10.0	5_exp_RW	49	Rpleas_acq	CS_B	BZZB	VKKV	MQQM	YDDY	GWWG	JXXJ	schön	retten	fair	ehrlich	treu	spielen	schlecht	rächen	faul	eitel	tot	strafen	1	acq_USpleas_CSpleas2_RW	acq4567_RW	6	18	400	0	300	300	315	50	0	1	1	blank2r.bmp	0	1	+	0	1	blank2r.bmp	492	1	VKKV	492	1	blank2r.bmp	572	3	spielen	866	1	!	-1	1	!	-1	0	0	0	0	0	0	0	0	0	0	0	0	0	0	0	0	0	0	0	0	0	0	0	0	0	0	0	0	0	0
071519	13:22:35	13:34:17	701831	5.0.10.0	5_exp_RW	49	Rpleas_acq	CS_B	BZZB	VKKV	MQQM	YDDY	GWWG	JXXJ	schön	retten	fair	ehrlich	treu	spielen	schlecht	rächen	faul	eitel	tot	strafen	1	acq_USunple_CSunple1_RW	acq4567_RW	6	19	400	0	300	300	479	50	0	0	1	blank2r.bmp	0	1	+	0	1	blank2r.bmp	492	1	MQQM	492	1	blank2r.bmp	572	1	schlecht	866	1	!	1239	1	!	-1	0	0	0	0	0	0	0	0	0	0	0	0	0	0	0	0	0	0	0	0	0	0	0	0	0	0	0	0	0	0
071519	13:22:35	13:34:20	704617	5.0.10.0	5_exp_RW	49	Rpleas_acq	CS_B	BZZB	VKKV	MQQM	YDDY	GWWG	JXXJ	schön	retten	fair	ehrlich	treu	spielen	schlecht	rächen	faul	eitel	tot	strafen	1	acq_USpleas_CSpleas1_RW	acq4567_RW	6	20	400	0	300	300	991	50	0	1	1	blank2r.bmp	0	1	+	0	1	blank2r.bmp	492	1	BZZB	492	1	blank2r.bmp	572	2	retten	866	1	!	1239	1	!	-1	0	0	0	0	0	0	0	0	0	0	0	0	0	0	0	0	0	0	0	0	0	0	0	0	0	0	0	0	0	0
