date	time	script.currenttime	script.elapsedtime	build	script.currentexpt	subject	expressions.LRpleas_acq	expressions.conditionCS_A	expressions.CSpleas_1	expressions.CSpleas_2	expressions.CSunple_1	expressions.CSunple_2	expressions.distractor_1	expressions.distractor_2	expressions.US_pleas1	expressions.US_pleas2	expressions.US_pleas3	expressions.US_pleas4	expressions.US_pleas5	expressions.US_pleas6	expressions.US_unple1	expressions.US_unple2	expressions.US_unple3	expressions.US_unple4	expressions.US_unple5	expressions.US_unple6	counter.positions_noRW	trialcode	blockcode	blocknum	trialnum	windowcenter	inwindow	pretrialpause	posttrialpause	latency	response	expressions.correctedscore	correct	stimulusnumber1	stimulusitem1	stimulusonset1	stimulusnumber2	stimulusitem2	stimulusonset2	stimulusnumber3	stimulusitem3	stimulusonset3	stimulusnumber4	stimulusitem4	stimulusonset4	stimulusnumber5	stimulusitem5	stimulusonset5	stimulusnumber6	stimulusitem6	stimulusonset6	stimulusnumber7	stimulusitem7	stimulusonset7	stimulusnumber8	stimulusitem8	stimulusonset8	stimulusnumber9	stimulusitem9	stimulusonset9	stimulusnumber10	stimulusitem10	stimulusonset10	stimulusnumber11	stimulusitem11	stimulusonset11	stimulusnumber12	stimulusitem12	stimulusonset12	stimulusnumber13	stimulusitem13	stimulusonset13	stimulusnumber14	stimulusitem14	stimulusonset14	stimulusnumber15	stimulusitem15	stimulusonset15	stimulusnumber16	stimulusitem16	stimulusonset16	stimulusnumber17	stimulusitem17	stimulusonset17	stimulusnumber18	stimulusitem18	stimulusonset18
081419	14:23:34	14:24:30	53963	5.0.10.0	5_exp_RW	101	Rpleas_acq	CS_A	LWWL	DXXD	JQQJ	YFFY	CPPC	ZHHZ	träumen	küssen	genießen	vertrauen	gütig	sonnig	töten	krank	gemein	versagen	gierig	sterben	1	acq_USunple_CSunple1_RW	acq1_RW	1	1	0	0	300	300	913	46	0	1	1	blank2r.bmp	0	1	+	0	1	blank2r.bmp	492	1	JQQJ	492	1	blank2r.bmp	572	1	töten	866	0	0	0	0	0	0	0	0	0	0	0	0	0	0	0	0	0	0	0	0	0	0	0	0	0	0	0	0	0	0	0	0	0	0	0	0
081419	14:23:34	14:24:33	56162	5.0.10.0	5_exp_RW	101	Rpleas_acq	CS_A	LWWL	DXXD	JQQJ	YFFY	CPPC	ZHHZ	träumen	küssen	genießen	vertrauen	gütig	sonnig	töten	krank	gemein	versagen	gierig	sterben	1	acq_USunple_CSunple1_RW	acq1_RW	1	2	0	0	300	300	724	46	0	1	1	blank2r.bmp	0	1	+	0	1	blank2r.bmp	492	1	JQQJ	492	1	blank2r.bmp	572	3	gemein	866	0	0	0	0	0	0	0	0	0	0	0	0	0	0	0	0	0	0	0	0	0	0	0	0	0	0	0	0	0	0	0	0	0	0	0	0
081419	14:23:34	14:24:35	58135	5.0.10.0	5_exp_RW	101	Rpleas_acq	CS_A	LWWL	DXXD	JQQJ	YFFY	CPPC	ZHHZ	träumen	küssen	genießen	vertrauen	gütig	sonnig	töten	krank	gemein	versagen	gierig	sterben	1	acq_USpleas_CSpleas1_RW	acq1_RW	1	3	0	0	300	300	496	50	0	1	1	blank2r.bmp	0	1	+	0	1	blank2r.bmp	492	1	LWWL	492	1	blank2r.bmp	572	1	träumen	866	0	0	0	0	0	0	0	0	0	0	0	0	0	0	0	0	0	0	0	0	0	0	0	0	0	0	0	0	0	0	0	0	0	0	0	0
081419	14:23:34	14:24:37	60214	5.0.10.0	5_exp_RW	101	Rpleas_acq	CS_A	LWWL	DXXD	JQQJ	YFFY	CPPC	ZHHZ	träumen	küssen	genießen	vertrauen	gütig	sonnig	töten	krank	gemein	versagen	gierig	sterben	1	acq_USpleas_CSpleas1_RW	acq1_RW	1	4	0	0	300	300	591	50	0	1	1	blank2r.bmp	0	1	+	0	1	blank2r.bmp	492	1	LWWL	492	1	blank2r.bmp	572	2	küssen	866	0	0	0	0	0	0	0	0	0	0	0	0	0	0	0	0	0	0	0	0	0	0	0	0	0	0	0	0	0	0	0	0	0	0	0	0
081419	14:23:34	14:24:39	62360	5.0.10.0	5_exp_RW	101	Rpleas_acq	CS_A	LWWL	DXXD	JQQJ	YFFY	CPPC	ZHHZ	träumen	küssen	genießen	vertrauen	gütig	sonnig	töten	krank	gemein	versagen	gierig	sterben	1	acq_USunple_CSunple2_RW	acq1_RW	1	5	0	0	300	300	676	46	0	1	1	blank2r.bmp	0	1	+	0	1	blank2r.bmp	492	1	YFFY	492	1	blank2r.bmp	572	1	versagen	866	0	0	0	0	0	0	0	0	0	0	0	0	0	0	0	0	0	0	0	0	0	0	0	0	0	0	0	0	0	0	0	0	0	0	0	0
081419	14:23:34	14:24:41	64292	5.0.10.0	5_exp_RW	101	Rpleas_acq	CS_A	LWWL	DXXD	JQQJ	YFFY	CPPC	ZHHZ	träumen	küssen	genießen	vertrauen	gütig	sonnig	töten	krank	gemein	versagen	gierig	sterben	1	acq_USunple_CSunple2_RW	acq1_RW	1	6	0	0	300	300	440	46	0	1	1	blank2r.bmp	0	1	+	0	1	blank2r.bmp	492	1	YFFY	492	1	blank2r.bmp	572	3	sterben	866	0	0	0	0	0	0	0	0	0	0	0	0	0	0	0	0	0	0	0	0	0	0	0	0	0	0	0	0	0	0	0	0	0	0	0	0
081419	14:23:34	14:24:43	66358	5.0.10.0	5_exp_RW	101	Rpleas_acq	CS_A	LWWL	DXXD	JQQJ	YFFY	CPPC	ZHHZ	träumen	küssen	genießen	vertrauen	gütig	sonnig	töten	krank	gemein	versagen	gierig	sterben	1	acq_USunple_CSunple1_RW	acq1_RW	1	7	0	0	300	300	594	46	0	1	1	blank2r.bmp	0	1	+	0	1	blank2r.bmp	492	1	JQQJ	492	1	blank2r.bmp	572	2	krank	866	0	0	0	0	0	0	0	0	0	0	0	0	0	0	0	0	0	0	0	0	0	0	0	0	0	0	0	0	0	0	0	0	0	0	0	0
081419	14:23:34	14:24:45	68397	5.0.10.0	5_exp_RW	101	Rpleas_acq	CS_A	LWWL	DXXD	JQQJ	YFFY	CPPC	ZHHZ	träumen	küssen	genießen	vertrauen	gütig	sonnig	töten	krank	gemein	versagen	gierig	sterben	1	acq_USunple_CSunple1_RW	acq1_RW	1	8	0	0	300	300	554	46	0	1	1	blank2r.bmp	0	1	+	0	1	blank2r.bmp	492	1	JQQJ	492	1	blank2r.bmp	572	3	gemein	866	0	0	0	0	0	0	0	0	0	0	0	0	0	0	0	0	0	0	0	0	0	0	0	0	0	0	0	0	0	0	0	0	0	0	0	0
081419	14:23:34	14:24:47	70503	5.0.10.0	5_exp_RW	101	Rpleas_acq	CS_A	LWWL	DXXD	JQQJ	YFFY	CPPC	ZHHZ	träumen	küssen	genießen	vertrauen	gütig	sonnig	töten	krank	gemein	versagen	gierig	sterben	1	acq_USpleas_CSpleas2_RW	acq1_RW	1	9	0	0	300	300	614	50	0	1	1	blank2r.bmp	0	1	+	0	1	blank2r.bmp	492	1	DXXD	492	1	blank2r.bmp	572	3	sonnig	866	0	0	0	0	0	0	0	0	0	0	0	0	0	0	0	0	0	0	0	0	0	0	0	0	0	0	0	0	0	0	0	0	0	0	0	0
081419	14:23:34	14:24:49	72649	5.0.10.0	5_exp_RW	101	Rpleas_acq	CS_A	LWWL	DXXD	JQQJ	YFFY	CPPC	ZHHZ	träumen	küssen	genießen	vertrauen	gütig	sonnig	töten	krank	gemein	versagen	gierig	sterben	1	acq_USunple_CSunple2_RW	acq1_RW	1	10	0	0	300	300	666	46	0	1	1	blank2r.bmp	0	1	+	0	1	blank2r.bmp	492	1	YFFY	492	1	blank2r.bmp	572	2	gierig	866	0	0	0	0	0	0	0	0	0	0	0	0	0	0	0	0	0	0	0	0	0	0	0	0	0	0	0	0	0	0	0	0	0	0	0	0
081419	14:23:34	14:24:51	74688	5.0.10.0	5_exp_RW	101	Rpleas_acq	CS_A	LWWL	DXXD	JQQJ	YFFY	CPPC	ZHHZ	träumen	küssen	genießen	vertrauen	gütig	sonnig	töten	krank	gemein	versagen	gierig	sterben	1	acq_USpleas_CSpleas1_RW	acq1_RW	1	11	0	0	300	300	569	50	0	1	1	blank2r.bmp	0	1	+	0	1	blank2r.bmp	492	1	LWWL	492	1	blank2r.bmp	572	3	genießen	866	0	0	0	0	0	0	0	0	0	0	0	0	0	0	0	0	0	0	0	0	0	0	0	0	0	0	0	0	0	0	0	0	0	0	0	0
081419	14:23:34	14:24:54	77153	5.0.10.0	5_exp_RW	101	Rpleas_acq	CS_A	LWWL	DXXD	JQQJ	YFFY	CPPC	ZHHZ	träumen	küssen	genießen	vertrauen	gütig	sonnig	töten	krank	gemein	versagen	gierig	sterben	1	acq_USpleas_CSpleas2_RW	acq1_RW	1	12	0	0	300	300	978	50	0	1	1	blank2r.bmp	0	1	+	0	1	blank2r.bmp	492	1	DXXD	492	1	blank2r.bmp	572	1	vertrauen	866	0	0	0	0	0	0	0	0	0	0	0	0	0	0	0	0	0	0	0	0	0	0	0	0	0	0	0	0	0	0	0	0	0	0	0	0
081419	14:23:34	14:24:56	79139	5.0.10.0	5_exp_RW	101	Rpleas_acq	CS_A	LWWL	DXXD	JQQJ	YFFY	CPPC	ZHHZ	träumen	küssen	genießen	vertrauen	gütig	sonnig	töten	krank	gemein	versagen	gierig	sterben	1	acq_USunple_CSunple2_RW	acq1_RW	1	13	0	0	300	300	493	46	0	1	1	blank2r.bmp	0	1	+	0	1	blank2r.bmp	492	1	YFFY	492	1	blank2r.bmp	572	3	sterben	866	0	0	0	0	0	0	0	0	0	0	0	0	0	0	0	0	0	0	0	0	0	0	0	0	0	0	0	0	0	0	0	0	0	0	0	0
081419	14:23:34	14:24:58	81418	5.0.10.0	5_exp_RW	101	Rpleas_acq	CS_A	LWWL	DXXD	JQQJ	YFFY	CPPC	ZHHZ	träumen	küssen	genießen	vertrauen	gütig	sonnig	töten	krank	gemein	versagen	gierig	sterben	1	acq_USpleas_CSpleas2_RW	acq1_RW	1	14	0	0	300	300	803	50	0	1	1	blank2r.bmp	0	1	+	0	1	blank2r.bmp	492	1	DXXD	492	1	blank2r.bmp	572	2	gütig	866	0	0	0	0	0	0	0	0	0	0	0	0	0	0	0	0	0	0	0	0	0	0	0	0	0	0	0	0	0	0	0	0	0	0	0	0
081419	14:23:34	14:25:00	84057	5.0.10.0	5_exp_RW	101	Rpleas_acq	CS_A	LWWL	DXXD	JQQJ	YFFY	CPPC	ZHHZ	träumen	küssen	genießen	vertrauen	gütig	sonnig	töten	krank	gemein	versagen	gierig	sterben	1	acq_USpleas_CSpleas2_RW	acq1_RW	1	15	0	0	300	300	1165	50	0	1	1	blank2r.bmp	0	1	+	0	1	blank2r.bmp	492	1	DXXD	492	1	blank2r.bmp	572	1	vertrauen	866	0	0	0	0	0	0	0	0	0	0	0	0	0	0	0	0	0	0	0	0	0	0	0	0	0	0	0	0	0	0	0	0	0	0	0	0
081419	14:23:34	14:25:02	85976	5.0.10.0	5_exp_RW	101	Rpleas_acq	CS_A	LWWL	DXXD	JQQJ	YFFY	CPPC	ZHHZ	träumen	küssen	genießen	vertrauen	gütig	sonnig	töten	krank	gemein	versagen	gierig	sterben	1	acq_USpleas_CSpleas1_RW	acq1_RW	1	16	0	0	300	300	429	50	0	1	1	blank2r.bmp	0	1	+	0	1	blank2r.bmp	492	1	LWWL	492	1	blank2r.bmp	572	1	träumen	866	0	0	0	0	0	0	0	0	0	0	0	0	0	0	0	0	0	0	0	0	0	0	0	0	0	0	0	0	0	0	0	0	0	0	0	0
081419	14:23:34	14:25:45	129025	5.0.10.0	5_exp_RW	101	Rpleas_acq	CS_A	LWWL	DXXD	JQQJ	YFFY	CPPC	ZHHZ	träumen	küssen	genießen	vertrauen	gütig	sonnig	töten	krank	gemein	versagen	gierig	sterben	1	acq_USpleas_CSpleas1_RW	acq2_RW	2	1	480	0	300	300	636	50	0	1	1	blank2r.bmp	0	1	+	0	1	blank2r.bmp	492	1	LWWL	492	1	blank2r.bmp	572	3	genießen	866	1	!	1319	1	!	-1	0	0	0	0	0	0	0	0	0	0	0	0	0	0	0	0	0	0	0	0	0	0	0	0	0	0	0	0	0	0
081419	14:23:34	14:25:49	132144	5.0.10.0	5_exp_RW	101	Rpleas_acq	CS_A	LWWL	DXXD	JQQJ	YFFY	CPPC	ZHHZ	träumen	küssen	genießen	vertrauen	gütig	sonnig	töten	krank	gemein	versagen	gierig	sterben	1	acq_USpleas_CSpleas2_RW	acq2_RW	2	2	480	0	300	300	1327	50	0	1	1	blank2r.bmp	0	1	+	0	1	blank2r.bmp	492	1	DXXD	492	1	blank2r.bmp	572	2	gütig	866	1	!	1319	1	!	-1	0	0	0	0	0	0	0	0	0	0	0	0	0	0	0	0	0	0	0	0	0	0	0	0	0	0	0	0	0	0
081419	14:23:34	14:25:51	134503	5.0.10.0	5_exp_RW	101	Rpleas_acq	CS_A	LWWL	DXXD	JQQJ	YFFY	CPPC	ZHHZ	träumen	küssen	genießen	vertrauen	gütig	sonnig	töten	krank	gemein	versagen	gierig	sterben	1	acq_USpleas_CSpleas2_RW	acq2_RW	2	3	480	0	300	300	583	50	0	1	1	blank2r.bmp	0	1	+	0	1	blank2r.bmp	492	1	DXXD	492	1	blank2r.bmp	572	3	sonnig	866	1	!	1319	1	!	-1	0	0	0	0	0	0	0	0	0	0	0	0	0	0	0	0	0	0	0	0	0	0	0	0	0	0	0	0	0	0
081419	14:23:34	14:25:53	136848	5.0.10.0	5_exp_RW	101	Rpleas_acq	CS_A	LWWL	DXXD	JQQJ	YFFY	CPPC	ZHHZ	träumen	küssen	genießen	vertrauen	gütig	sonnig	töten	krank	gemein	versagen	gierig	sterben	1	acq_USunple_CSunple1_RW	acq2_RW	2	4	480	0	300	300	559	46	0	1	1	blank2r.bmp	0	1	+	0	1	blank2r.bmp	492	1	JQQJ	492	1	blank2r.bmp	572	1	töten	866	1	!	1319	1	!	-1	0	0	0	0	0	0	0	0	0	0	0	0	0	0	0	0	0	0	0	0	0	0	0	0	0	0	0	0	0	0
081419	14:23:34	14:25:56	139567	5.0.10.0	5_exp_RW	101	Rpleas_acq	CS_A	LWWL	DXXD	JQQJ	YFFY	CPPC	ZHHZ	träumen	küssen	genießen	vertrauen	gütig	sonnig	töten	krank	gemein	versagen	gierig	sterben	1	acq_USunple_CSunple2_RW	acq2_RW	2	5	480	0	300	300	713	50	0	0	1	blank2r.bmp	0	1	+	0	1	blank2r.bmp	492	1	YFFY	492	1	blank2r.bmp	572	2	gierig	866	1	FEHLER	1919	1	!	1319	1	!	-1	0	0	0	0	0	0	0	0	0	0	0	0	0	0	0	0	0	0	0	0	0	0	0	0	0	0	0
081419	14:23:34	14:25:58	141700	5.0.10.0	5_exp_RW	101	Rpleas_acq	CS_A	LWWL	DXXD	JQQJ	YFFY	CPPC	ZHHZ	träumen	küssen	genießen	vertrauen	gütig	sonnig	töten	krank	gemein	versagen	gierig	sterben	1	acq_USunple_CSunple2_RW	acq2_RW	2	6	480	0	300	300	575	46	0	1	1	blank2r.bmp	0	1	+	0	1	blank2r.bmp	492	1	YFFY	492	1	blank2r.bmp	572	1	versagen	866	1	!	1319	1	!	-1	0	0	0	0	0	0	0	0	0	0	0	0	0	0	0	0	0	0	0	0	0	0	0	0	0	0	0	0	0	0
081419	14:23:34	14:26:01	144165	5.0.10.0	5_exp_RW	101	Rpleas_acq	CS_A	LWWL	DXXD	JQQJ	YFFY	CPPC	ZHHZ	träumen	küssen	genießen	vertrauen	gütig	sonnig	töten	krank	gemein	versagen	gierig	sterben	1	acq_USpleas_CSpleas2_RW	acq2_RW	2	7	480	0	300	300	683	50	0	1	1	blank2r.bmp	0	1	+	0	1	blank2r.bmp	492	1	DXXD	492	1	blank2r.bmp	572	1	vertrauen	866	1	!	1319	1	!	-1	0	0	0	0	0	0	0	0	0	0	0	0	0	0	0	0	0	0	0	0	0	0	0	0	0	0	0	0	0	0
081419	14:23:34	14:26:03	146871	5.0.10.0	5_exp_RW	101	Rpleas_acq	CS_A	LWWL	DXXD	JQQJ	YFFY	CPPC	ZHHZ	träumen	küssen	genießen	vertrauen	gütig	sonnig	töten	krank	gemein	versagen	gierig	sterben	1	acq_USpleas_CSpleas1_RW	acq2_RW	2	8	480	0	300	300	921	50	0	1	1	blank2r.bmp	0	1	+	0	1	blank2r.bmp	492	1	LWWL	492	1	blank2r.bmp	572	2	küssen	866	1	!	1319	1	!	-1	0	0	0	0	0	0	0	0	0	0	0	0	0	0	0	0	0	0	0	0	0	0	0	0	0	0	0	0	0	0
081419	14:23:34	14:26:06	149483	5.0.10.0	5_exp_RW	101	Rpleas_acq	CS_A	LWWL	DXXD	JQQJ	YFFY	CPPC	ZHHZ	träumen	küssen	genießen	vertrauen	gütig	sonnig	töten	krank	gemein	versagen	gierig	sterben	1	acq_USunple_CSunple2_RW	acq2_RW	2	9	480	0	300	300	606	50	0	0	1	blank2r.bmp	0	1	+	0	1	blank2r.bmp	492	1	YFFY	492	1	blank2r.bmp	572	2	gierig	866	1	FEHLER	1812	1	!	1319	1	!	-1	0	0	0	0	0	0	0	0	0	0	0	0	0	0	0	0	0	0	0	0	0	0	0	0	0	0	0
081419	14:23:34	14:26:08	151549	5.0.10.0	5_exp_RW	101	Rpleas_acq	CS_A	LWWL	DXXD	JQQJ	YFFY	CPPC	ZHHZ	träumen	küssen	genießen	vertrauen	gütig	sonnig	töten	krank	gemein	versagen	gierig	sterben	1	acq_USunple_CSunple2_RW	acq2_RW	2	10	480	1	300	300	481	46	0	1	1	blank2r.bmp	0	1	+	0	1	blank2r.bmp	492	1	YFFY	492	1	blank2r.bmp	572	1	versagen	866	1	!	1319	1	!	1386	0	0	0	0	0	0	0	0	0	0	0	0	0	0	0	0	0	0	0	0	0	0	0	0	0	0	0	0	0	0
081419	14:23:34	14:26:12	155654	5.0.10.0	5_exp_RW	101	Rpleas_acq	CS_A	LWWL	DXXD	JQQJ	YFFY	CPPC	ZHHZ	träumen	küssen	genießen	vertrauen	gütig	sonnig	töten	krank	gemein	versagen	gierig	sterben	1	acq_USunple_CSunple1_RW	acq2_RW	2	11	480	0	300	300	2329	46	0	1	1	blank2r.bmp	0	1	+	0	1	blank2r.bmp	492	1	JQQJ	492	1	blank2r.bmp	572	2	krank	866	1	!	1319	1	!	-1	0	0	0	0	0	0	0	0	0	0	0	0	0	0	0	0	0	0	0	0	0	0	0	0	0	0	0	0	0	0
081419	14:23:34	14:26:15	158319	5.0.10.0	5_exp_RW	101	Rpleas_acq	CS_A	LWWL	DXXD	JQQJ	YFFY	CPPC	ZHHZ	träumen	küssen	genießen	vertrauen	gütig	sonnig	töten	krank	gemein	versagen	gierig	sterben	1	acq_USpleas_CSpleas2_RW	acq2_RW	2	12	480	0	300	300	871	50	0	1	1	blank2r.bmp	0	1	+	0	1	blank2r.bmp	492	1	DXXD	492	1	blank2r.bmp	572	3	sonnig	866	1	!	1319	1	!	-1	0	0	0	0	0	0	0	0	0	0	0	0	0	0	0	0	0	0	0	0	0	0	0	0	0	0	0	0	0	0
081419	14:23:34	14:26:17	160878	5.0.10.0	5_exp_RW	101	Rpleas_acq	CS_A	LWWL	DXXD	JQQJ	YFFY	CPPC	ZHHZ	träumen	küssen	genießen	vertrauen	gütig	sonnig	töten	krank	gemein	versagen	gierig	sterben	1	acq_USpleas_CSpleas1_RW	acq2_RW	2	13	480	0	300	300	781	50	0	1	1	blank2r.bmp	0	1	+	0	1	blank2r.bmp	492	1	LWWL	492	1	blank2r.bmp	572	2	küssen	866	1	!	1319	1	!	-1	0	0	0	0	0	0	0	0	0	0	0	0	0	0	0	0	0	0	0	0	0	0	0	0	0	0	0	0	0	0
081419	14:23:34	14:26:20	163144	5.0.10.0	5_exp_RW	101	Rpleas_acq	CS_A	LWWL	DXXD	JQQJ	YFFY	CPPC	ZHHZ	träumen	küssen	genießen	vertrauen	gütig	sonnig	töten	krank	gemein	versagen	gierig	sterben	1	acq_USpleas_CSpleas1_RW	acq2_RW	2	14	480	1	300	300	463	50	0	1	1	blank2r.bmp	0	1	+	0	1	blank2r.bmp	492	1	LWWL	492	1	blank2r.bmp	572	1	träumen	866	1	!	1319	1	!	1359	0	0	0	0	0	0	0	0	0	0	0	0	0	0	0	0	0	0	0	0	0	0	0	0	0	0	0	0	0	0
081419	14:23:34	14:26:22	165450	5.0.10.0	5_exp_RW	101	Rpleas_acq	CS_A	LWWL	DXXD	JQQJ	YFFY	CPPC	ZHHZ	träumen	küssen	genießen	vertrauen	gütig	sonnig	töten	krank	gemein	versagen	gierig	sterben	1	acq_USunple_CSunple2_RW	acq2_RW	2	15	480	1	300	300	508	46	0	1	1	blank2r.bmp	0	1	+	0	1	blank2r.bmp	492	1	YFFY	492	1	blank2r.bmp	572	3	sterben	866	1	!	1319	1	!	1412	0	0	0	0	0	0	0	0	0	0	0	0	0	0	0	0	0	0	0	0	0	0	0	0	0	0	0	0	0	0
081419	14:23:34	14:26:24	168022	5.0.10.0	5_exp_RW	101	Rpleas_acq	CS_A	LWWL	DXXD	JQQJ	YFFY	CPPC	ZHHZ	träumen	küssen	genießen	vertrauen	gütig	sonnig	töten	krank	gemein	versagen	gierig	sterben	1	acq_USunple_CSunple1_RW	acq2_RW	2	16	480	0	300	300	559	50	0	0	1	blank2r.bmp	0	1	+	0	1	blank2r.bmp	492	1	JQQJ	492	1	blank2r.bmp	572	3	gemein	866	1	FEHLER	1772	1	!	1319	1	!	-1	0	0	0	0	0	0	0	0	0	0	0	0	0	0	0	0	0	0	0	0	0	0	0	0	0	0	0
081419	14:23:34	14:26:26	170034	5.0.10.0	5_exp_RW	101	Rpleas_acq	CS_A	LWWL	DXXD	JQQJ	YFFY	CPPC	ZHHZ	träumen	küssen	genießen	vertrauen	gütig	sonnig	töten	krank	gemein	versagen	gierig	sterben	1	acq_USunple_CSunple1_RW	acq2_RW	2	17	480	1	300	300	426	46	0	1	1	blank2r.bmp	0	1	+	0	1	blank2r.bmp	492	1	JQQJ	492	1	blank2r.bmp	572	1	töten	866	1	!	1319	1	!	1332	0	0	0	0	0	0	0	0	0	0	0	0	0	0	0	0	0	0	0	0	0	0	0	0	0	0	0	0	0	0
081419	14:23:34	14:26:29	172393	5.0.10.0	5_exp_RW	101	Rpleas_acq	CS_A	LWWL	DXXD	JQQJ	YFFY	CPPC	ZHHZ	träumen	küssen	genießen	vertrauen	gütig	sonnig	töten	krank	gemein	versagen	gierig	sterben	1	acq_USpleas_CSpleas1_RW	acq2_RW	2	18	480	0	300	300	576	50	0	1	1	blank2r.bmp	0	1	+	0	1	blank2r.bmp	492	1	LWWL	492	1	blank2r.bmp	572	3	genießen	866	1	!	1319	1	!	-1	0	0	0	0	0	0	0	0	0	0	0	0	0	0	0	0	0	0	0	0	0	0	0	0	0	0	0	0	0	0
081419	14:23:34	14:26:31	174939	5.0.10.0	5_exp_RW	101	Rpleas_acq	CS_A	LWWL	DXXD	JQQJ	YFFY	CPPC	ZHHZ	träumen	küssen	genießen	vertrauen	gütig	sonnig	töten	krank	gemein	versagen	gierig	sterben	1	acq_USpleas_CSpleas2_RW	acq2_RW	2	19	480	1	300	300	511	46	0	0	1	blank2r.bmp	0	1	+	0	1	blank2r.bmp	492	1	DXXD	492	1	blank2r.bmp	572	2	gütig	866	1	FEHLER	1732	1	!	1319	1	!	1412	0	0	0	0	0	0	0	0	0	0	0	0	0	0	0	0	0	0	0	0	0	0	0	0	0	0	0
081419	14:23:34	14:26:33	176951	5.0.10.0	5_exp_RW	101	Rpleas_acq	CS_A	LWWL	DXXD	JQQJ	YFFY	CPPC	ZHHZ	träumen	küssen	genießen	vertrauen	gütig	sonnig	töten	krank	gemein	versagen	gierig	sterben	1	acq_USpleas_CSpleas2_RW	acq2_RW	2	20	480	1	300	300	437	50	0	1	1	blank2r.bmp	0	1	+	0	1	blank2r.bmp	492	1	DXXD	492	1	blank2r.bmp	572	2	gütig	866	1	!	1319	1	!	1332	0	0	0	0	0	0	0	0	0	0	0	0	0	0	0	0	0	0	0	0	0	0	0	0	0	0	0	0	0	0
081419	14:23:34	14:26:36	179217	5.0.10.0	5_exp_RW	101	Rpleas_acq	CS_A	LWWL	DXXD	JQQJ	YFFY	CPPC	ZHHZ	träumen	küssen	genießen	vertrauen	gütig	sonnig	töten	krank	gemein	versagen	gierig	sterben	1	acq_USunple_CSunple1_RW	acq2_RW	2	21	480	1	300	300	474	46	0	1	1	blank2r.bmp	0	1	+	0	1	blank2r.bmp	492	1	JQQJ	492	1	blank2r.bmp	572	2	krank	866	1	!	1319	1	!	1372	0	0	0	0	0	0	0	0	0	0	0	0	0	0	0	0	0	0	0	0	0	0	0	0	0	0	0	0	0	0
081419	14:23:34	14:26:38	181576	5.0.10.0	5_exp_RW	101	Rpleas_acq	CS_A	LWWL	DXXD	JQQJ	YFFY	CPPC	ZHHZ	träumen	küssen	genießen	vertrauen	gütig	sonnig	töten	krank	gemein	versagen	gierig	sterben	1	acq_USunple_CSunple2_RW	acq2_RW	2	22	480	0	300	300	592	46	0	1	1	blank2r.bmp	0	1	+	0	1	blank2r.bmp	492	1	YFFY	492	1	blank2r.bmp	572	3	sterben	866	1	!	1319	1	!	-1	0	0	0	0	0	0	0	0	0	0	0	0	0	0	0	0	0	0	0	0	0	0	0	0	0	0	0	0	0	0
081419	14:23:34	14:26:40	183842	5.0.10.0	5_exp_RW	101	Rpleas_acq	CS_A	LWWL	DXXD	JQQJ	YFFY	CPPC	ZHHZ	träumen	küssen	genießen	vertrauen	gütig	sonnig	töten	krank	gemein	versagen	gierig	sterben	1	acq_USpleas_CSpleas1_RW	acq2_RW	2	23	480	1	300	300	463	50	0	1	1	blank2r.bmp	0	1	+	0	1	blank2r.bmp	492	1	LWWL	492	1	blank2r.bmp	572	3	genießen	866	1	!	1319	1	!	1359	0	0	0	0	0	0	0	0	0	0	0	0	0	0	0	0	0	0	0	0	0	0	0	0	0	0	0	0	0	0
081419	14:23:34	14:26:43	186148	5.0.10.0	5_exp_RW	101	Rpleas_acq	CS_A	LWWL	DXXD	JQQJ	YFFY	CPPC	ZHHZ	träumen	küssen	genießen	vertrauen	gütig	sonnig	töten	krank	gemein	versagen	gierig	sterben	1	acq_USunple_CSunple1_RW	acq2_RW	2	24	480	1	300	300	501	46	0	1	1	blank2r.bmp	0	1	+	0	1	blank2r.bmp	492	1	JQQJ	492	1	blank2r.bmp	572	1	töten	866	1	!	1319	1	!	1399	0	0	0	0	0	0	0	0	0	0	0	0	0	0	0	0	0	0	0	0	0	0	0	0	0	0	0	0	0	0
081419	14:23:34	14:27:04	207245	5.0.10.0	5_exp_RW	101	Rpleas_acq	CS_A	LWWL	DXXD	JQQJ	YFFY	CPPC	ZHHZ	träumen	küssen	genießen	vertrauen	gütig	sonnig	töten	krank	gemein	versagen	gierig	sterben	1	acq_USunple_CSunple1_RW	acq3_RW	3	1	453	0	300	300	624	46	0	1	1	blank2r.bmp	0	1	+	0	1	blank2r.bmp	492	1	JQQJ	492	1	blank2r.bmp	572	3	gemein	866	1	!	1292	1	!	-1	0	0	0	0	0	0	0	0	0	0	0	0	0	0	0	0	0	0	0	0	0	0	0	0	0	0	0	0	0	0
081419	14:23:34	14:27:06	209498	5.0.10.0	5_exp_RW	101	Rpleas_acq	CS_A	LWWL	DXXD	JQQJ	YFFY	CPPC	ZHHZ	träumen	küssen	genießen	vertrauen	gütig	sonnig	töten	krank	gemein	versagen	gierig	sterben	1	acq_USpleas_CSpleas2_RW	acq3_RW	3	2	453	1	300	300	451	50	0	1	1	blank2r.bmp	0	1	+	0	1	blank2r.bmp	492	1	DXXD	492	1	blank2r.bmp	572	3	sonnig	866	1	!	1292	1	!	1346	0	0	0	0	0	0	0	0	0	0	0	0	0	0	0	0	0	0	0	0	0	0	0	0	0	0	0	0	0	0
081419	14:23:34	14:27:08	211803	5.0.10.0	5_exp_RW	101	Rpleas_acq	CS_A	LWWL	DXXD	JQQJ	YFFY	CPPC	ZHHZ	träumen	küssen	genießen	vertrauen	gütig	sonnig	töten	krank	gemein	versagen	gierig	sterben	1	acq_USunple_CSunple2_RW	acq3_RW	3	3	453	0	300	300	533	46	0	1	1	blank2r.bmp	0	1	+	0	1	blank2r.bmp	492	1	YFFY	492	1	blank2r.bmp	572	2	gierig	866	1	!	1292	1	!	-1	0	0	0	0	0	0	0	0	0	0	0	0	0	0	0	0	0	0	0	0	0	0	0	0	0	0	0	0	0	0
081419	14:23:34	14:27:11	214136	5.0.10.0	5_exp_RW	101	Rpleas_acq	CS_A	LWWL	DXXD	JQQJ	YFFY	CPPC	ZHHZ	träumen	küssen	genießen	vertrauen	gütig	sonnig	töten	krank	gemein	versagen	gierig	sterben	1	acq_USpleas_CSpleas2_RW	acq3_RW	3	4	453	0	300	300	547	50	0	1	1	blank2r.bmp	0	1	+	0	1	blank2r.bmp	492	1	DXXD	492	1	blank2r.bmp	572	1	vertrauen	866	1	!	1292	1	!	-1	0	0	0	0	0	0	0	0	0	0	0	0	0	0	0	0	0	0	0	0	0	0	0	0	0	0	0	0	0	0
081419	14:23:34	14:27:13	216495	5.0.10.0	5_exp_RW	101	Rpleas_acq	CS_A	LWWL	DXXD	JQQJ	YFFY	CPPC	ZHHZ	träumen	küssen	genießen	vertrauen	gütig	sonnig	töten	krank	gemein	versagen	gierig	sterben	1	acq_USunple_CSunple2_RW	acq3_RW	3	5	453	0	300	300	582	46	0	1	1	blank2r.bmp	0	1	+	0	1	blank2r.bmp	492	1	YFFY	492	1	blank2r.bmp	572	1	versagen	866	1	!	1292	1	!	-1	0	0	0	0	0	0	0	0	0	0	0	0	0	0	0	0	0	0	0	0	0	0	0	0	0	0	0	0	0	0
081419	14:23:34	14:27:15	218774	5.0.10.0	5_exp_RW	101	Rpleas_acq	CS_A	LWWL	DXXD	JQQJ	YFFY	CPPC	ZHHZ	träumen	küssen	genießen	vertrauen	gütig	sonnig	töten	krank	gemein	versagen	gierig	sterben	1	acq_USpleas_CSpleas2_RW	acq3_RW	3	6	453	1	300	300	459	50	0	1	1	blank2r.bmp	0	1	+	0	1	blank2r.bmp	492	1	DXXD	492	1	blank2r.bmp	572	1	vertrauen	866	1	!	1292	1	!	1359	0	0	0	0	0	0	0	0	0	0	0	0	0	0	0	0	0	0	0	0	0	0	0	0	0	0	0	0	0	0
081419	14:23:34	14:27:17	221066	5.0.10.0	5_exp_RW	101	Rpleas_acq	CS_A	LWWL	DXXD	JQQJ	YFFY	CPPC	ZHHZ	träumen	küssen	genießen	vertrauen	gütig	sonnig	töten	krank	gemein	versagen	gierig	sterben	1	acq_USunple_CSunple2_RW	acq3_RW	3	7	453	1	300	300	500	46	0	1	1	blank2r.bmp	0	1	+	0	1	blank2r.bmp	492	1	YFFY	492	1	blank2r.bmp	572	1	versagen	866	1	!	1292	1	!	1399	0	0	0	0	0	0	0	0	0	0	0	0	0	0	0	0	0	0	0	0	0	0	0	0	0	0	0	0	0	0
081419	14:23:34	14:27:20	223332	5.0.10.0	5_exp_RW	101	Rpleas_acq	CS_A	LWWL	DXXD	JQQJ	YFFY	CPPC	ZHHZ	träumen	küssen	genießen	vertrauen	gütig	sonnig	töten	krank	gemein	versagen	gierig	sterben	1	acq_USpleas_CSpleas1_RW	acq3_RW	3	8	453	1	300	300	472	50	0	1	1	blank2r.bmp	0	1	+	0	1	blank2r.bmp	492	1	LWWL	492	1	blank2r.bmp	572	2	küssen	866	1	!	1292	1	!	1372	0	0	0	0	0	0	0	0	0	0	0	0	0	0	0	0	0	0	0	0	0	0	0	0	0	0	0	0	0	0
081419	14:23:34	14:27:22	225531	5.0.10.0	5_exp_RW	101	Rpleas_acq	CS_A	LWWL	DXXD	JQQJ	YFFY	CPPC	ZHHZ	träumen	küssen	genießen	vertrauen	gütig	sonnig	töten	krank	gemein	versagen	gierig	sterben	1	acq_USunple_CSunple2_RW	acq3_RW	3	9	453	1	300	300	402	46	0	1	1	blank2r.bmp	0	1	+	0	1	blank2r.bmp	492	1	YFFY	492	1	blank2r.bmp	572	2	gierig	866	1	!	1292	1	!	1306	0	0	0	0	0	0	0	0	0	0	0	0	0	0	0	0	0	0	0	0	0	0	0	0	0	0	0	0	0	0
081419	14:23:34	14:27:24	227770	5.0.10.0	5_exp_RW	101	Rpleas_acq	CS_A	LWWL	DXXD	JQQJ	YFFY	CPPC	ZHHZ	träumen	küssen	genießen	vertrauen	gütig	sonnig	töten	krank	gemein	versagen	gierig	sterben	1	acq_USunple_CSunple1_RW	acq3_RW	3	10	453	1	300	300	446	46	0	1	1	blank2r.bmp	0	1	+	0	1	blank2r.bmp	492	1	JQQJ	492	1	blank2r.bmp	572	2	krank	866	1	!	1292	1	!	1346	0	0	0	0	0	0	0	0	0	0	0	0	0	0	0	0	0	0	0	0	0	0	0	0	0	0	0	0	0	0
081419	14:23:34	14:27:26	229916	5.0.10.0	5_exp_RW	101	Rpleas_acq	CS_A	LWWL	DXXD	JQQJ	YFFY	CPPC	ZHHZ	träumen	küssen	genießen	vertrauen	gütig	sonnig	töten	krank	gemein	versagen	gierig	sterben	1	acq_USpleas_CSpleas1_RW	acq3_RW	3	11	453	0	300	300	370	50	0	1	1	blank2r.bmp	0	1	+	0	1	blank2r.bmp	492	1	LWWL	492	1	blank2r.bmp	572	1	träumen	866	1	!	-1	1	!	-1	0	0	0	0	0	0	0	0	0	0	0	0	0	0	0	0	0	0	0	0	0	0	0	0	0	0	0	0	0	0
081419	14:23:34	14:27:28	232008	5.0.10.0	5_exp_RW	101	Rpleas_acq	CS_A	LWWL	DXXD	JQQJ	YFFY	CPPC	ZHHZ	träumen	küssen	genießen	vertrauen	gütig	sonnig	töten	krank	gemein	versagen	gierig	sterben	1	acq_USunple_CSunple2_RW	acq3_RW	3	12	453	0	300	300	309	46	0	1	1	blank2r.bmp	0	1	+	0	1	blank2r.bmp	492	1	YFFY	492	1	blank2r.bmp	572	3	sterben	866	1	!	-1	1	!	-1	0	0	0	0	0	0	0	0	0	0	0	0	0	0	0	0	0	0	0	0	0	0	0	0	0	0	0	0	0	0
081419	14:23:34	14:27:31	234500	5.0.10.0	5_exp_RW	101	Rpleas_acq	CS_A	LWWL	DXXD	JQQJ	YFFY	CPPC	ZHHZ	träumen	küssen	genießen	vertrauen	gütig	sonnig	töten	krank	gemein	versagen	gierig	sterben	1	acq_USpleas_CSpleas1_RW	acq3_RW	3	13	453	1	300	300	479	46	0	0	1	blank2r.bmp	0	1	+	0	1	blank2r.bmp	492	1	LWWL	492	1	blank2r.bmp	572	1	träumen	866	1	FEHLER	1705	1	!	1292	1	!	1386	0	0	0	0	0	0	0	0	0	0	0	0	0	0	0	0	0	0	0	0	0	0	0	0	0	0	0
081419	14:23:34	14:27:33	236646	5.0.10.0	5_exp_RW	101	Rpleas_acq	CS_A	LWWL	DXXD	JQQJ	YFFY	CPPC	ZHHZ	träumen	küssen	genießen	vertrauen	gütig	sonnig	töten	krank	gemein	versagen	gierig	sterben	1	acq_USunple_CSunple1_RW	acq3_RW	3	14	453	0	300	300	575	46	0	1	1	blank2r.bmp	0	1	+	0	1	blank2r.bmp	492	1	JQQJ	492	1	blank2r.bmp	572	2	krank	866	1	!	1292	1	!	-1	0	0	0	0	0	0	0	0	0	0	0	0	0	0	0	0	0	0	0	0	0	0	0	0	0	0	0	0	0	0
081419	14:23:34	14:27:35	238805	5.0.10.0	5_exp_RW	101	Rpleas_acq	CS_A	LWWL	DXXD	JQQJ	YFFY	CPPC	ZHHZ	träumen	küssen	genießen	vertrauen	gütig	sonnig	töten	krank	gemein	versagen	gierig	sterben	1	acq_USpleas_CSpleas2_RW	acq3_RW	3	15	453	0	300	300	373	50	0	1	1	blank2r.bmp	0	1	+	0	1	blank2r.bmp	492	1	DXXD	492	1	blank2r.bmp	572	2	gütig	866	1	!	-1	1	!	-1	0	0	0	0	0	0	0	0	0	0	0	0	0	0	0	0	0	0	0	0	0	0	0	0	0	0	0	0	0	0
081419	14:23:34	14:27:37	240964	5.0.10.0	5_exp_RW	101	Rpleas_acq	CS_A	LWWL	DXXD	JQQJ	YFFY	CPPC	ZHHZ	träumen	küssen	genießen	vertrauen	gütig	sonnig	töten	krank	gemein	versagen	gierig	sterben	1	acq_USpleas_CSpleas1_RW	acq3_RW	3	16	453	0	300	300	377	50	0	1	1	blank2r.bmp	0	1	+	0	1	blank2r.bmp	492	1	LWWL	492	1	blank2r.bmp	572	2	küssen	866	1	!	-1	1	!	-1	0	0	0	0	0	0	0	0	0	0	0	0	0	0	0	0	0	0	0	0	0	0	0	0	0	0	0	0	0	0
081419	14:23:34	14:27:40	243497	5.0.10.0	5_exp_RW	101	Rpleas_acq	CS_A	LWWL	DXXD	JQQJ	YFFY	CPPC	ZHHZ	träumen	küssen	genießen	vertrauen	gütig	sonnig	töten	krank	gemein	versagen	gierig	sterben	1	acq_USpleas_CSpleas2_RW	acq3_RW	3	17	453	0	300	300	747	50	0	1	1	blank2r.bmp	0	1	+	0	1	blank2r.bmp	492	1	DXXD	492	1	blank2r.bmp	572	3	sonnig	866	1	!	1292	1	!	-1	0	0	0	0	0	0	0	0	0	0	0	0	0	0	0	0	0	0	0	0	0	0	0	0	0	0	0	0	0	0
081419	14:23:34	14:27:42	245669	5.0.10.0	5_exp_RW	101	Rpleas_acq	CS_A	LWWL	DXXD	JQQJ	YFFY	CPPC	ZHHZ	träumen	küssen	genießen	vertrauen	gütig	sonnig	töten	krank	gemein	versagen	gierig	sterben	1	acq_USunple_CSunple1_RW	acq3_RW	3	18	453	0	300	300	372	46	0	1	1	blank2r.bmp	0	1	+	0	1	blank2r.bmp	492	1	JQQJ	492	1	blank2r.bmp	572	1	töten	866	1	!	-1	1	!	-1	0	0	0	0	0	0	0	0	0	0	0	0	0	0	0	0	0	0	0	0	0	0	0	0	0	0	0	0	0	0
081419	14:23:34	14:27:45	248535	5.0.10.0	5_exp_RW	101	Rpleas_acq	CS_A	LWWL	DXXD	JQQJ	YFFY	CPPC	ZHHZ	träumen	küssen	genießen	vertrauen	gütig	sonnig	töten	krank	gemein	versagen	gierig	sterben	1	acq_USunple_CSunple2_RW	acq3_RW	3	19	453	0	300	300	860	50	0	0	1	blank2r.bmp	0	1	+	0	1	blank2r.bmp	492	1	YFFY	492	1	blank2r.bmp	572	3	sterben	866	1	FEHLER	2065	1	!	1292	1	!	-1	0	0	0	0	0	0	0	0	0	0	0	0	0	0	0	0	0	0	0	0	0	0	0	0	0	0	0
081419	14:23:34	14:27:47	250587	5.0.10.0	5_exp_RW	101	Rpleas_acq	CS_A	LWWL	DXXD	JQQJ	YFFY	CPPC	ZHHZ	träumen	küssen	genießen	vertrauen	gütig	sonnig	töten	krank	gemein	versagen	gierig	sterben	1	acq_USunple_CSunple1_RW	acq3_RW	3	20	453	1	300	300	471	46	0	1	1	blank2r.bmp	0	1	+	0	1	blank2r.bmp	492	1	JQQJ	492	1	blank2r.bmp	572	3	gemein	866	1	!	1292	1	!	1372	0	0	0	0	0	0	0	0	0	0	0	0	0	0	0	0	0	0	0	0	0	0	0	0	0	0	0	0	0	0
081419	14:23:34	14:27:49	252839	5.0.10.0	5_exp_RW	101	Rpleas_acq	CS_A	LWWL	DXXD	JQQJ	YFFY	CPPC	ZHHZ	träumen	küssen	genießen	vertrauen	gütig	sonnig	töten	krank	gemein	versagen	gierig	sterben	1	acq_USunple_CSunple1_RW	acq3_RW	3	21	453	1	300	300	455	46	0	1	1	blank2r.bmp	0	1	+	0	1	blank2r.bmp	492	1	JQQJ	492	1	blank2r.bmp	572	2	krank	866	1	!	1292	1	!	1359	0	0	0	0	0	0	0	0	0	0	0	0	0	0	0	0	0	0	0	0	0	0	0	0	0	0	0	0	0	0
081419	14:23:34	14:27:51	254999	5.0.10.0	5_exp_RW	101	Rpleas_acq	CS_A	LWWL	DXXD	JQQJ	YFFY	CPPC	ZHHZ	träumen	küssen	genießen	vertrauen	gütig	sonnig	töten	krank	gemein	versagen	gierig	sterben	1	acq_USpleas_CSpleas1_RW	acq3_RW	3	22	453	0	300	300	372	50	0	1	1	blank2r.bmp	0	1	+	0	1	blank2r.bmp	492	1	LWWL	492	1	blank2r.bmp	572	3	genießen	866	1	!	-1	1	!	-1	0	0	0	0	0	0	0	0	0	0	0	0	0	0	0	0	0	0	0	0	0	0	0	0	0	0	0	0	0	0
081419	14:23:34	14:27:54	257437	5.0.10.0	5_exp_RW	101	Rpleas_acq	CS_A	LWWL	DXXD	JQQJ	YFFY	CPPC	ZHHZ	träumen	küssen	genießen	vertrauen	gütig	sonnig	töten	krank	gemein	versagen	gierig	sterben	1	acq_USpleas_CSpleas1_RW	acq3_RW	3	23	453	1	300	300	424	46	0	0	1	blank2r.bmp	0	1	+	0	1	blank2r.bmp	492	1	LWWL	492	1	blank2r.bmp	572	3	genießen	866	1	FEHLER	1639	1	!	1292	1	!	1319	0	0	0	0	0	0	0	0	0	0	0	0	0	0	0	0	0	0	0	0	0	0	0	0	0	0	0
081419	14:23:34	14:27:56	259530	5.0.10.0	5_exp_RW	101	Rpleas_acq	CS_A	LWWL	DXXD	JQQJ	YFFY	CPPC	ZHHZ	träumen	küssen	genießen	vertrauen	gütig	sonnig	töten	krank	gemein	versagen	gierig	sterben	1	acq_USpleas_CSpleas2_RW	acq3_RW	3	24	453	1	300	300	493	50	0	1	1	blank2r.bmp	0	1	+	0	1	blank2r.bmp	492	1	DXXD	492	1	blank2r.bmp	572	1	vertrauen	866	1	!	1292	1	!	1399	0	0	0	0	0	0	0	0	0	0	0	0	0	0	0	0	0	0	0	0	0	0	0	0	0	0	0	0	0	0
081419	14:23:34	14:28:18	281214	5.0.10.0	5_exp_RW	101	Rpleas_acq	CS_A	LWWL	DXXD	JQQJ	YFFY	CPPC	ZHHZ	träumen	küssen	genießen	vertrauen	gütig	sonnig	töten	krank	gemein	versagen	gierig	sterben	1	acq_USpleas_CSpleas2_RW	acq4567_RW	4	1	400	1	300	300	445	50	0	1	1	blank2r.bmp	0	1	+	0	1	blank2r.bmp	492	1	DXXD	492	1	blank2r.bmp	572	2	gütig	866	1	!	1239	1	!	1346	0	0	0	0	0	0	0	0	0	0	0	0	0	0	0	0	0	0	0	0	0	0	0	0	0	0	0	0	0	0
081419	14:23:34	14:28:20	283387	5.0.10.0	5_exp_RW	101	Rpleas_acq	CS_A	LWWL	DXXD	JQQJ	YFFY	CPPC	ZHHZ	träumen	küssen	genießen	vertrauen	gütig	sonnig	töten	krank	gemein	versagen	gierig	sterben	1	acq_USpleas_CSpleas1_RW	acq4567_RW	4	2	400	1	300	300	359	50	0	1	1	blank2r.bmp	0	1	+	0	1	blank2r.bmp	492	1	LWWL	492	1	blank2r.bmp	572	2	küssen	866	1	!	1239	1	!	1266	0	0	0	0	0	0	0	0	0	0	0	0	0	0	0	0	0	0	0	0	0	0	0	0	0	0	0	0	0	0
081419	14:23:34	14:28:22	285452	5.0.10.0	5_exp_RW	101	Rpleas_acq	CS_A	LWWL	DXXD	JQQJ	YFFY	CPPC	ZHHZ	träumen	küssen	genießen	vertrauen	gütig	sonnig	töten	krank	gemein	versagen	gierig	sterben	1	acq_USunple_CSunple1_RW	acq4567_RW	4	3	400	0	300	300	300	46	0	1	1	blank2r.bmp	0	1	+	0	1	blank2r.bmp	492	1	JQQJ	492	1	blank2r.bmp	572	1	töten	866	1	!	-1	1	!	-1	0	0	0	0	0	0	0	0	0	0	0	0	0	0	0	0	0	0	0	0	0	0	0	0	0	0	0	0	0	0
081419	14:23:34	14:28:24	287638	5.0.10.0	5_exp_RW	101	Rpleas_acq	CS_A	LWWL	DXXD	JQQJ	YFFY	CPPC	ZHHZ	träumen	küssen	genießen	vertrauen	gütig	sonnig	töten	krank	gemein	versagen	gierig	sterben	1	acq_USunple_CSunple2_RW	acq4567_RW	4	4	400	1	300	300	375	46	0	1	1	blank2r.bmp	0	1	+	0	1	blank2r.bmp	492	1	YFFY	492	1	blank2r.bmp	572	2	gierig	866	1	!	1239	1	!	1279	0	0	0	0	0	0	0	0	0	0	0	0	0	0	0	0	0	0	0	0	0	0	0	0	0	0	0	0	0	0
081419	14:23:34	14:28:26	289704	5.0.10.0	5_exp_RW	101	Rpleas_acq	CS_A	LWWL	DXXD	JQQJ	YFFY	CPPC	ZHHZ	träumen	küssen	genießen	vertrauen	gütig	sonnig	töten	krank	gemein	versagen	gierig	sterben	1	acq_USpleas_CSpleas2_RW	acq4567_RW	4	5	400	0	300	300	298	50	0	1	1	blank2r.bmp	0	1	+	0	1	blank2r.bmp	492	1	DXXD	492	1	blank2r.bmp	572	3	sonnig	866	1	!	-1	1	!	-1	0	0	0	0	0	0	0	0	0	0	0	0	0	0	0	0	0	0	0	0	0	0	0	0	0	0	0	0	0	0
081419	14:23:34	14:28:28	291876	5.0.10.0	5_exp_RW	101	Rpleas_acq	CS_A	LWWL	DXXD	JQQJ	YFFY	CPPC	ZHHZ	träumen	küssen	genießen	vertrauen	gütig	sonnig	töten	krank	gemein	versagen	gierig	sterben	1	acq_USunple_CSunple2_RW	acq4567_RW	4	6	400	1	300	300	357	46	0	1	1	blank2r.bmp	0	1	+	0	1	blank2r.bmp	492	1	YFFY	492	1	blank2r.bmp	572	1	versagen	866	1	!	1239	1	!	1252	0	0	0	0	0	0	0	0	0	0	0	0	0	0	0	0	0	0	0	0	0	0	0	0	0	0	0	0	0	0
081419	14:23:34	14:28:31	294235	5.0.10.0	5_exp_RW	101	Rpleas_acq	CS_A	LWWL	DXXD	JQQJ	YFFY	CPPC	ZHHZ	träumen	küssen	genießen	vertrauen	gütig	sonnig	töten	krank	gemein	versagen	gierig	sterben	1	acq_USunple_CSunple2_RW	acq4567_RW	4	7	400	0	300	300	598	46	0	1	1	blank2r.bmp	0	1	+	0	1	blank2r.bmp	492	1	YFFY	492	1	blank2r.bmp	572	2	gierig	866	1	!	1239	1	!	-1	0	0	0	0	0	0	0	0	0	0	0	0	0	0	0	0	0	0	0	0	0	0	0	0	0	0	0	0	0	0
081419	14:23:34	14:28:33	296394	5.0.10.0	5_exp_RW	101	Rpleas_acq	CS_A	LWWL	DXXD	JQQJ	YFFY	CPPC	ZHHZ	träumen	küssen	genießen	vertrauen	gütig	sonnig	töten	krank	gemein	versagen	gierig	sterben	1	acq_USpleas_CSpleas1_RW	acq4567_RW	4	8	400	1	300	300	358	50	0	1	1	blank2r.bmp	0	1	+	0	1	blank2r.bmp	492	1	LWWL	492	1	blank2r.bmp	572	1	träumen	866	1	!	1239	1	!	1252	0	0	0	0	0	0	0	0	0	0	0	0	0	0	0	0	0	0	0	0	0	0	0	0	0	0	0	0	0	0
081419	14:23:34	14:28:35	298660	5.0.10.0	5_exp_RW	101	Rpleas_acq	CS_A	LWWL	DXXD	JQQJ	YFFY	CPPC	ZHHZ	träumen	küssen	genießen	vertrauen	gütig	sonnig	töten	krank	gemein	versagen	gierig	sterben	1	acq_USunple_CSunple2_RW	acq4567_RW	4	9	400	0	300	300	479	46	0	1	1	blank2r.bmp	0	1	+	0	1	blank2r.bmp	492	1	YFFY	492	1	blank2r.bmp	572	3	sterben	866	1	!	1239	1	!	-1	0	0	0	0	0	0	0	0	0	0	0	0	0	0	0	0	0	0	0	0	0	0	0	0	0	0	0	0	0	0
081419	14:23:34	14:28:37	300846	5.0.10.0	5_exp_RW	101	Rpleas_acq	CS_A	LWWL	DXXD	JQQJ	YFFY	CPPC	ZHHZ	träumen	küssen	genießen	vertrauen	gütig	sonnig	töten	krank	gemein	versagen	gierig	sterben	1	acq_USunple_CSunple1_RW	acq4567_RW	4	10	400	1	300	300	382	46	0	1	1	blank2r.bmp	0	1	+	0	1	blank2r.bmp	492	1	JQQJ	492	1	blank2r.bmp	572	3	gemein	866	1	!	1239	1	!	1279	0	0	0	0	0	0	0	0	0	0	0	0	0	0	0	0	0	0	0	0	0	0	0	0	0	0	0	0	0	0
081419	14:23:34	14:28:39	303005	5.0.10.0	5_exp_RW	101	Rpleas_acq	CS_A	LWWL	DXXD	JQQJ	YFFY	CPPC	ZHHZ	träumen	küssen	genießen	vertrauen	gütig	sonnig	töten	krank	gemein	versagen	gierig	sterben	1	acq_USpleas_CSpleas2_RW	acq4567_RW	4	11	400	1	300	300	365	50	0	1	1	blank2r.bmp	0	1	+	0	1	blank2r.bmp	492	1	DXXD	492	1	blank2r.bmp	572	3	sonnig	866	1	!	1239	1	!	1266	0	0	0	0	0	0	0	0	0	0	0	0	0	0	0	0	0	0	0	0	0	0	0	0	0	0	0	0	0	0
081419	14:23:34	14:28:42	305231	5.0.10.0	5_exp_RW	101	Rpleas_acq	CS_A	LWWL	DXXD	JQQJ	YFFY	CPPC	ZHHZ	träumen	küssen	genießen	vertrauen	gütig	sonnig	töten	krank	gemein	versagen	gierig	sterben	1	acq_USunple_CSunple1_RW	acq4567_RW	4	12	400	1	300	300	430	46	0	1	1	blank2r.bmp	0	1	+	0	1	blank2r.bmp	492	1	JQQJ	492	1	blank2r.bmp	572	2	krank	866	1	!	1239	1	!	1332	0	0	0	0	0	0	0	0	0	0	0	0	0	0	0	0	0	0	0	0	0	0	0	0	0	0	0	0	0	0
081419	14:23:34	14:28:44	307390	5.0.10.0	5_exp_RW	101	Rpleas_acq	CS_A	LWWL	DXXD	JQQJ	YFFY	CPPC	ZHHZ	träumen	küssen	genießen	vertrauen	gütig	sonnig	töten	krank	gemein	versagen	gierig	sterben	1	acq_USpleas_CSpleas2_RW	acq4567_RW	4	13	400	1	300	300	368	46	0	0	1	blank2r.bmp	0	1	+	0	1	blank2r.bmp	492	1	DXXD	492	1	blank2r.bmp	572	2	gütig	866	1	!	1239	1	!	1266	0	0	0	0	0	0	0	0	0	0	0	0	0	0	0	0	0	0	0	0	0	0	0	0	0	0	0	0	0	0
081419	14:23:34	14:28:46	309642	5.0.10.0	5_exp_RW	101	Rpleas_acq	CS_A	LWWL	DXXD	JQQJ	YFFY	CPPC	ZHHZ	träumen	küssen	genießen	vertrauen	gütig	sonnig	töten	krank	gemein	versagen	gierig	sterben	1	acq_USpleas_CSpleas2_RW	acq4567_RW	4	14	400	0	300	300	480	50	0	1	1	blank2r.bmp	0	1	+	0	1	blank2r.bmp	492	1	DXXD	492	1	blank2r.bmp	572	1	vertrauen	866	1	!	1239	1	!	-1	0	0	0	0	0	0	0	0	0	0	0	0	0	0	0	0	0	0	0	0	0	0	0	0	0	0	0	0	0	0
081419	14:23:34	14:28:48	311921	5.0.10.0	5_exp_RW	101	Rpleas_acq	CS_A	LWWL	DXXD	JQQJ	YFFY	CPPC	ZHHZ	träumen	küssen	genießen	vertrauen	gütig	sonnig	töten	krank	gemein	versagen	gierig	sterben	1	acq_USunple_CSunple1_RW	acq4567_RW	4	15	400	0	300	300	479	46	0	1	1	blank2r.bmp	0	1	+	0	1	blank2r.bmp	492	1	JQQJ	492	1	blank2r.bmp	572	3	gemein	866	1	!	1239	1	!	-1	0	0	0	0	0	0	0	0	0	0	0	0	0	0	0	0	0	0	0	0	0	0	0	0	0	0	0	0	0	0
081419	14:23:34	14:28:51	314187	5.0.10.0	5_exp_RW	101	Rpleas_acq	CS_A	LWWL	DXXD	JQQJ	YFFY	CPPC	ZHHZ	träumen	küssen	genießen	vertrauen	gütig	sonnig	töten	krank	gemein	versagen	gierig	sterben	1	acq_USunple_CSunple2_RW	acq4567_RW	4	16	400	0	300	300	489	46	0	1	1	blank2r.bmp	0	1	+	0	1	blank2r.bmp	492	1	YFFY	492	1	blank2r.bmp	572	1	versagen	866	1	!	1239	1	!	-1	0	0	0	0	0	0	0	0	0	0	0	0	0	0	0	0	0	0	0	0	0	0	0	0	0	0	0	0	0	0
081419	14:23:34	14:28:53	316626	5.0.10.0	5_exp_RW	101	Rpleas_acq	CS_A	LWWL	DXXD	JQQJ	YFFY	CPPC	ZHHZ	träumen	küssen	genießen	vertrauen	gütig	sonnig	töten	krank	gemein	versagen	gierig	sterben	1	acq_USunple_CSunple1_RW	acq4567_RW	4	17	400	0	300	300	651	50	0	0	1	blank2r.bmp	0	1	+	0	1	blank2r.bmp	492	1	JQQJ	492	1	blank2r.bmp	572	1	töten	866	1	!	1239	1	!	-1	0	0	0	0	0	0	0	0	0	0	0	0	0	0	0	0	0	0	0	0	0	0	0	0	0	0	0	0	0	0
081419	14:23:34	14:28:55	318905	5.0.10.0	5_exp_RW	101	Rpleas_acq	CS_A	LWWL	DXXD	JQQJ	YFFY	CPPC	ZHHZ	träumen	küssen	genießen	vertrauen	gütig	sonnig	töten	krank	gemein	versagen	gierig	sterben	1	acq_USpleas_CSpleas1_RW	acq4567_RW	4	18	400	1	300	300	466	50	0	1	1	blank2r.bmp	0	1	+	0	1	blank2r.bmp	492	1	LWWL	492	1	blank2r.bmp	572	1	träumen	866	1	!	1239	1	!	1372	0	0	0	0	0	0	0	0	0	0	0	0	0	0	0	0	0	0	0	0	0	0	0	0	0	0	0	0	0	0
081419	14:23:34	14:28:58	321424	5.0.10.0	5_exp_RW	101	Rpleas_acq	CS_A	LWWL	DXXD	JQQJ	YFFY	CPPC	ZHHZ	träumen	küssen	genießen	vertrauen	gütig	sonnig	töten	krank	gemein	versagen	gierig	sterben	1	acq_USpleas_CSpleas1_RW	acq4567_RW	4	19	400	0	300	300	739	50	0	1	1	blank2r.bmp	0	1	+	0	1	blank2r.bmp	492	1	LWWL	492	1	blank2r.bmp	572	3	genießen	866	1	!	1239	1	!	-1	0	0	0	0	0	0	0	0	0	0	0	0	0	0	0	0	0	0	0	0	0	0	0	0	0	0	0	0	0	0
081419	14:23:34	14:29:00	323703	5.0.10.0	5_exp_RW	101	Rpleas_acq	CS_A	LWWL	DXXD	JQQJ	YFFY	CPPC	ZHHZ	träumen	küssen	genießen	vertrauen	gütig	sonnig	töten	krank	gemein	versagen	gierig	sterben	1	acq_USpleas_CSpleas1_RW	acq4567_RW	4	20	400	1	300	300	466	50	0	1	1	blank2r.bmp	0	1	+	0	1	blank2r.bmp	492	1	LWWL	492	1	blank2r.bmp	572	2	küssen	866	1	!	1239	1	!	1372	0	0	0	0	0	0	0	0	0	0	0	0	0	0	0	0	0	0	0	0	0	0	0	0	0	0	0	0	0	0
081419	14:23:34	14:29:02	325995	5.0.10.0	5_exp_RW	101	Rpleas_acq	CS_A	LWWL	DXXD	JQQJ	YFFY	CPPC	ZHHZ	träumen	küssen	genießen	vertrauen	gütig	sonnig	töten	krank	gemein	versagen	gierig	sterben	1	acq_USpleas_CSpleas1_RW	acq4567_RW	4	21	400	0	300	300	519	50	0	1	1	blank2r.bmp	0	1	+	0	1	blank2r.bmp	492	1	LWWL	492	1	blank2r.bmp	572	1	träumen	866	1	!	1239	1	!	-1	0	0	0	0	0	0	0	0	0	0	0	0	0	0	0	0	0	0	0	0	0	0	0	0	0	0	0	0	0	0
081419	14:23:34	14:29:05	328221	5.0.10.0	5_exp_RW	101	Rpleas_acq	CS_A	LWWL	DXXD	JQQJ	YFFY	CPPC	ZHHZ	träumen	küssen	genießen	vertrauen	gütig	sonnig	töten	krank	gemein	versagen	gierig	sterben	1	acq_USpleas_CSpleas1_RW	acq4567_RW	4	22	400	1	300	300	413	50	0	1	1	blank2r.bmp	0	1	+	0	1	blank2r.bmp	492	1	LWWL	492	1	blank2r.bmp	572	3	genießen	866	1	!	1239	1	!	1319	0	0	0	0	0	0	0	0	0	0	0	0	0	0	0	0	0	0	0	0	0	0	0	0	0	0	0	0	0	0
081419	14:23:34	14:29:07	330273	5.0.10.0	5_exp_RW	101	Rpleas_acq	CS_A	LWWL	DXXD	JQQJ	YFFY	CPPC	ZHHZ	träumen	küssen	genießen	vertrauen	gütig	sonnig	töten	krank	gemein	versagen	gierig	sterben	1	acq_USunple_CSunple1_RW	acq4567_RW	4	23	400	0	300	300	286	46	0	1	1	blank2r.bmp	0	1	+	0	1	blank2r.bmp	492	1	JQQJ	492	1	blank2r.bmp	572	1	töten	866	1	!	-1	1	!	-1	0	0	0	0	0	0	0	0	0	0	0	0	0	0	0	0	0	0	0	0	0	0	0	0	0	0	0	0	0	0
081419	14:23:34	14:29:09	332446	5.0.10.0	5_exp_RW	101	Rpleas_acq	CS_A	LWWL	DXXD	JQQJ	YFFY	CPPC	ZHHZ	träumen	küssen	genießen	vertrauen	gütig	sonnig	töten	krank	gemein	versagen	gierig	sterben	1	acq_USunple_CSunple2_RW	acq4567_RW	4	24	400	1	300	300	370	46	0	1	1	blank2r.bmp	0	1	+	0	1	blank2r.bmp	492	1	YFFY	492	1	blank2r.bmp	572	2	gierig	866	1	!	1239	1	!	1266	0	0	0	0	0	0	0	0	0	0	0	0	0	0	0	0	0	0	0	0	0	0	0	0	0	0	0	0	0	0
081419	14:23:34	14:29:11	334658	5.0.10.0	5_exp_RW	101	Rpleas_acq	CS_A	LWWL	DXXD	JQQJ	YFFY	CPPC	ZHHZ	träumen	küssen	genießen	vertrauen	gütig	sonnig	töten	krank	gemein	versagen	gierig	sterben	1	acq_USpleas_CSpleas1_RW	acq4567_RW	4	25	400	1	300	300	410	50	0	1	1	blank2r.bmp	0	1	+	0	1	blank2r.bmp	492	1	LWWL	492	1	blank2r.bmp	572	2	küssen	866	1	!	1239	1	!	1306	0	0	0	0	0	0	0	0	0	0	0	0	0	0	0	0	0	0	0	0	0	0	0	0	0	0	0	0	0	0
081419	14:23:34	14:29:13	336884	5.0.10.0	5_exp_RW	101	Rpleas_acq	CS_A	LWWL	DXXD	JQQJ	YFFY	CPPC	ZHHZ	träumen	küssen	genießen	vertrauen	gütig	sonnig	töten	krank	gemein	versagen	gierig	sterben	1	acq_USpleas_CSpleas1_RW	acq4567_RW	4	26	400	1	300	300	432	50	0	1	1	blank2r.bmp	0	1	+	0	1	blank2r.bmp	492	1	LWWL	492	1	blank2r.bmp	572	2	küssen	866	1	!	1239	1	!	1332	0	0	0	0	0	0	0	0	0	0	0	0	0	0	0	0	0	0	0	0	0	0	0	0	0	0	0	0	0	0
081419	14:23:34	14:29:15	339096	5.0.10.0	5_exp_RW	101	Rpleas_acq	CS_A	LWWL	DXXD	JQQJ	YFFY	CPPC	ZHHZ	träumen	küssen	genießen	vertrauen	gütig	sonnig	töten	krank	gemein	versagen	gierig	sterben	1	acq_USunple_CSunple1_RW	acq4567_RW	4	27	400	1	300	300	417	46	0	1	1	blank2r.bmp	0	1	+	0	1	blank2r.bmp	492	1	JQQJ	492	1	blank2r.bmp	572	2	krank	866	1	!	1239	1	!	1319	0	0	0	0	0	0	0	0	0	0	0	0	0	0	0	0	0	0	0	0	0	0	0	0	0	0	0	0	0	0
081419	14:23:34	14:29:18	341322	5.0.10.0	5_exp_RW	101	Rpleas_acq	CS_A	LWWL	DXXD	JQQJ	YFFY	CPPC	ZHHZ	träumen	küssen	genießen	vertrauen	gütig	sonnig	töten	krank	gemein	versagen	gierig	sterben	1	acq_USpleas_CSpleas2_RW	acq4567_RW	4	28	400	1	300	300	432	50	0	1	1	blank2r.bmp	0	1	+	0	1	blank2r.bmp	492	1	DXXD	492	1	blank2r.bmp	572	3	sonnig	866	1	!	1239	1	!	1332	0	0	0	0	0	0	0	0	0	0	0	0	0	0	0	0	0	0	0	0	0	0	0	0	0	0	0	0	0	0
081419	14:23:34	14:29:20	343521	5.0.10.0	5_exp_RW	101	Rpleas_acq	CS_A	LWWL	DXXD	JQQJ	YFFY	CPPC	ZHHZ	träumen	küssen	genießen	vertrauen	gütig	sonnig	töten	krank	gemein	versagen	gierig	sterben	1	acq_USunple_CSunple2_RW	acq4567_RW	4	29	400	1	300	300	391	46	0	1	1	blank2r.bmp	0	1	+	0	1	blank2r.bmp	492	1	YFFY	492	1	blank2r.bmp	572	3	sterben	866	1	!	1239	1	!	1292	0	0	0	0	0	0	0	0	0	0	0	0	0	0	0	0	0	0	0	0	0	0	0	0	0	0	0	0	0	0
081419	14:23:34	14:29:22	345787	5.0.10.0	5_exp_RW	101	Rpleas_acq	CS_A	LWWL	DXXD	JQQJ	YFFY	CPPC	ZHHZ	träumen	küssen	genießen	vertrauen	gütig	sonnig	töten	krank	gemein	versagen	gierig	sterben	1	acq_USpleas_CSpleas1_RW	acq4567_RW	4	30	400	1	300	300	456	50	0	1	1	blank2r.bmp	0	1	+	0	1	blank2r.bmp	492	1	LWWL	492	1	blank2r.bmp	572	1	träumen	866	1	!	1239	1	!	1359	0	0	0	0	0	0	0	0	0	0	0	0	0	0	0	0	0	0	0	0	0	0	0	0	0	0	0	0	0	0
081419	14:23:34	14:29:24	347933	5.0.10.0	5_exp_RW	101	Rpleas_acq	CS_A	LWWL	DXXD	JQQJ	YFFY	CPPC	ZHHZ	träumen	küssen	genießen	vertrauen	gütig	sonnig	töten	krank	gemein	versagen	gierig	sterben	1	acq_USunple_CSunple1_RW	acq4567_RW	4	31	400	1	300	300	346	46	0	1	1	blank2r.bmp	0	1	+	0	1	blank2r.bmp	492	1	JQQJ	492	1	blank2r.bmp	572	3	gemein	866	1	!	1239	1	!	1252	0	0	0	0	0	0	0	0	0	0	0	0	0	0	0	0	0	0	0	0	0	0	0	0	0	0	0	0	0	0
081419	14:23:34	14:29:26	350025	5.0.10.0	5_exp_RW	101	Rpleas_acq	CS_A	LWWL	DXXD	JQQJ	YFFY	CPPC	ZHHZ	träumen	küssen	genießen	vertrauen	gütig	sonnig	töten	krank	gemein	versagen	gierig	sterben	1	acq_USunple_CSunple1_RW	acq4567_RW	4	32	400	0	300	300	323	50	0	0	1	blank2r.bmp	0	1	+	0	1	blank2r.bmp	492	1	JQQJ	492	1	blank2r.bmp	572	1	töten	866	1	!	-1	1	!	-1	0	0	0	0	0	0	0	0	0	0	0	0	0	0	0	0	0	0	0	0	0	0	0	0	0	0	0	0	0	0
081419	14:23:34	14:29:29	352211	5.0.10.0	5_exp_RW	101	Rpleas_acq	CS_A	LWWL	DXXD	JQQJ	YFFY	CPPC	ZHHZ	träumen	küssen	genießen	vertrauen	gütig	sonnig	töten	krank	gemein	versagen	gierig	sterben	1	acq_USpleas_CSpleas2_RW	acq4567_RW	4	33	400	1	300	300	376	46	0	0	1	blank2r.bmp	0	1	+	0	1	blank2r.bmp	492	1	DXXD	492	1	blank2r.bmp	572	2	gütig	866	1	!	1239	1	!	1279	0	0	0	0	0	0	0	0	0	0	0	0	0	0	0	0	0	0	0	0	0	0	0	0	0	0	0	0	0	0
081419	14:23:34	14:29:31	354463	5.0.10.0	5_exp_RW	101	Rpleas_acq	CS_A	LWWL	DXXD	JQQJ	YFFY	CPPC	ZHHZ	träumen	küssen	genießen	vertrauen	gütig	sonnig	töten	krank	gemein	versagen	gierig	sterben	1	acq_USpleas_CSpleas2_RW	acq4567_RW	4	34	400	1	300	300	449	50	0	1	1	blank2r.bmp	0	1	+	0	1	blank2r.bmp	492	1	DXXD	492	1	blank2r.bmp	572	1	vertrauen	866	1	!	1239	1	!	1346	0	0	0	0	0	0	0	0	0	0	0	0	0	0	0	0	0	0	0	0	0	0	0	0	0	0	0	0	0	0
081419	14:23:34	14:29:33	356556	5.0.10.0	5_exp_RW	101	Rpleas_acq	CS_A	LWWL	DXXD	JQQJ	YFFY	CPPC	ZHHZ	träumen	küssen	genießen	vertrauen	gütig	sonnig	töten	krank	gemein	versagen	gierig	sterben	1	acq_USunple_CSunple1_RW	acq4567_RW	4	35	400	0	300	300	330	46	0	1	1	blank2r.bmp	0	1	+	0	1	blank2r.bmp	492	1	JQQJ	492	1	blank2r.bmp	572	2	krank	866	1	!	-1	1	!	-1	0	0	0	0	0	0	0	0	0	0	0	0	0	0	0	0	0	0	0	0	0	0	0	0	0	0	0	0	0	0
081419	14:23:34	14:29:35	358821	5.0.10.0	5_exp_RW	101	Rpleas_acq	CS_A	LWWL	DXXD	JQQJ	YFFY	CPPC	ZHHZ	träumen	küssen	genießen	vertrauen	gütig	sonnig	töten	krank	gemein	versagen	gierig	sterben	1	acq_USpleas_CSpleas2_RW	acq4567_RW	4	36	400	0	300	300	486	50	0	1	1	blank2r.bmp	0	1	+	0	1	blank2r.bmp	492	1	DXXD	492	1	blank2r.bmp	572	1	vertrauen	866	1	!	1239	1	!	-1	0	0	0	0	0	0	0	0	0	0	0	0	0	0	0	0	0	0	0	0	0	0	0	0	0	0	0	0	0	0
081419	14:23:34	14:29:37	361100	5.0.10.0	5_exp_RW	101	Rpleas_acq	CS_A	LWWL	DXXD	JQQJ	YFFY	CPPC	ZHHZ	träumen	küssen	genießen	vertrauen	gütig	sonnig	töten	krank	gemein	versagen	gierig	sterben	1	acq_USunple_CSunple2_RW	acq4567_RW	4	37	400	0	300	300	503	46	0	1	1	blank2r.bmp	0	1	+	0	1	blank2r.bmp	492	1	YFFY	492	1	blank2r.bmp	572	1	versagen	866	1	!	1239	1	!	-1	0	0	0	0	0	0	0	0	0	0	0	0	0	0	0	0	0	0	0	0	0	0	0	0	0	0	0	0	0	0
081419	14:23:34	14:29:40	363406	5.0.10.0	5_exp_RW	101	Rpleas_acq	CS_A	LWWL	DXXD	JQQJ	YFFY	CPPC	ZHHZ	träumen	küssen	genießen	vertrauen	gütig	sonnig	töten	krank	gemein	versagen	gierig	sterben	1	acq_USpleas_CSpleas2_RW	acq4567_RW	4	38	400	0	300	300	530	50	0	1	1	blank2r.bmp	0	1	+	0	1	blank2r.bmp	492	1	DXXD	492	1	blank2r.bmp	572	3	sonnig	866	1	!	1239	1	!	-1	0	0	0	0	0	0	0	0	0	0	0	0	0	0	0	0	0	0	0	0	0	0	0	0	0	0	0	0	0	0
081419	14:23:34	14:29:42	365658	5.0.10.0	5_exp_RW	101	Rpleas_acq	CS_A	LWWL	DXXD	JQQJ	YFFY	CPPC	ZHHZ	träumen	küssen	genießen	vertrauen	gütig	sonnig	töten	krank	gemein	versagen	gierig	sterben	1	acq_USunple_CSunple2_RW	acq4567_RW	4	39	400	1	300	300	440	46	0	1	1	blank2r.bmp	0	1	+	0	1	blank2r.bmp	492	1	YFFY	492	1	blank2r.bmp	572	2	gierig	866	1	!	1239	1	!	1346	0	0	0	0	0	0	0	0	0	0	0	0	0	0	0	0	0	0	0	0	0	0	0	0	0	0	0	0	0	0
081419	14:23:34	14:29:44	367991	5.0.10.0	5_exp_RW	101	Rpleas_acq	CS_A	LWWL	DXXD	JQQJ	YFFY	CPPC	ZHHZ	träumen	küssen	genießen	vertrauen	gütig	sonnig	töten	krank	gemein	versagen	gierig	sterben	1	acq_USunple_CSunple2_RW	acq4567_RW	4	40	400	0	300	300	546	46	0	1	1	blank2r.bmp	0	1	+	0	1	blank2r.bmp	492	1	YFFY	492	1	blank2r.bmp	572	3	sterben	866	1	!	1239	1	!	-1	0	0	0	0	0	0	0	0	0	0	0	0	0	0	0	0	0	0	0	0	0	0	0	0	0	0	0	0	0	0
081419	14:23:34	14:29:47	370270	5.0.10.0	5_exp_RW	101	Rpleas_acq	CS_A	LWWL	DXXD	JQQJ	YFFY	CPPC	ZHHZ	träumen	küssen	genießen	vertrauen	gütig	sonnig	töten	krank	gemein	versagen	gierig	sterben	1	acq_USunple_CSunple2_RW	acq4567_RW	4	41	400	0	300	300	493	46	0	1	1	blank2r.bmp	0	1	+	0	1	blank2r.bmp	492	1	YFFY	492	1	blank2r.bmp	572	1	versagen	866	1	!	1239	1	!	-1	0	0	0	0	0	0	0	0	0	0	0	0	0	0	0	0	0	0	0	0	0	0	0	0	0	0	0	0	0	0
081419	14:23:34	14:29:49	372536	5.0.10.0	5_exp_RW	101	Rpleas_acq	CS_A	LWWL	DXXD	JQQJ	YFFY	CPPC	ZHHZ	träumen	küssen	genießen	vertrauen	gütig	sonnig	töten	krank	gemein	versagen	gierig	sterben	1	acq_USunple_CSunple2_RW	acq4567_RW	4	42	400	1	300	300	460	46	0	1	1	blank2r.bmp	0	1	+	0	1	blank2r.bmp	492	1	YFFY	492	1	blank2r.bmp	572	3	sterben	866	1	!	1239	1	!	1359	0	0	0	0	0	0	0	0	0	0	0	0	0	0	0	0	0	0	0	0	0	0	0	0	0	0	0	0	0	0
081419	14:23:34	14:29:51	374841	5.0.10.0	5_exp_RW	101	Rpleas_acq	CS_A	LWWL	DXXD	JQQJ	YFFY	CPPC	ZHHZ	träumen	küssen	genießen	vertrauen	gütig	sonnig	töten	krank	gemein	versagen	gierig	sterben	1	acq_USpleas_CSpleas1_RW	acq4567_RW	4	43	400	0	300	300	533	50	0	1	1	blank2r.bmp	0	1	+	0	1	blank2r.bmp	492	1	LWWL	492	1	blank2r.bmp	572	3	genießen	866	1	!	1239	1	!	-1	0	0	0	0	0	0	0	0	0	0	0	0	0	0	0	0	0	0	0	0	0	0	0	0	0	0	0	0	0	0
081419	14:23:34	14:29:53	377040	5.0.10.0	5_exp_RW	101	Rpleas_acq	CS_A	LWWL	DXXD	JQQJ	YFFY	CPPC	ZHHZ	träumen	küssen	genießen	vertrauen	gütig	sonnig	töten	krank	gemein	versagen	gierig	sterben	1	acq_USpleas_CSpleas2_RW	acq4567_RW	4	44	400	1	300	300	394	46	0	0	1	blank2r.bmp	0	1	+	0	1	blank2r.bmp	492	1	DXXD	492	1	blank2r.bmp	572	2	gütig	866	1	!	1239	1	!	1292	0	0	0	0	0	0	0	0	0	0	0	0	0	0	0	0	0	0	0	0	0	0	0	0	0	0	0	0	0	0
081419	14:23:34	14:29:56	379306	5.0.10.0	5_exp_RW	101	Rpleas_acq	CS_A	LWWL	DXXD	JQQJ	YFFY	CPPC	ZHHZ	träumen	küssen	genießen	vertrauen	gütig	sonnig	töten	krank	gemein	versagen	gierig	sterben	1	acq_USunple_CSunple1_RW	acq4567_RW	4	45	400	0	300	300	498	46	0	1	1	blank2r.bmp	0	1	+	0	1	blank2r.bmp	492	1	JQQJ	492	1	blank2r.bmp	572	3	gemein	866	1	!	1239	1	!	-1	0	0	0	0	0	0	0	0	0	0	0	0	0	0	0	0	0	0	0	0	0	0	0	0	0	0	0	0	0	0
081419	14:23:34	14:29:58	381518	5.0.10.0	5_exp_RW	101	Rpleas_acq	CS_A	LWWL	DXXD	JQQJ	YFFY	CPPC	ZHHZ	träumen	küssen	genießen	vertrauen	gütig	sonnig	töten	krank	gemein	versagen	gierig	sterben	1	acq_USpleas_CSpleas1_RW	acq4567_RW	4	46	400	1	300	300	402	50	0	1	1	blank2r.bmp	0	1	+	0	1	blank2r.bmp	492	1	LWWL	492	1	blank2r.bmp	572	2	küssen	866	1	!	1239	1	!	1306	0	0	0	0	0	0	0	0	0	0	0	0	0	0	0	0	0	0	0	0	0	0	0	0	0	0	0	0	0	0
081419	14:23:34	14:30:00	383744	5.0.10.0	5_exp_RW	101	Rpleas_acq	CS_A	LWWL	DXXD	JQQJ	YFFY	CPPC	ZHHZ	träumen	küssen	genießen	vertrauen	gütig	sonnig	töten	krank	gemein	versagen	gierig	sterben	1	acq_USpleas_CSpleas1_RW	acq4567_RW	4	47	400	1	300	300	427	50	0	1	1	blank2r.bmp	0	1	+	0	1	blank2r.bmp	492	1	LWWL	492	1	blank2r.bmp	572	1	träumen	866	1	!	1239	1	!	1332	0	0	0	0	0	0	0	0	0	0	0	0	0	0	0	0	0	0	0	0	0	0	0	0	0	0	0	0	0	0
081419	14:23:34	14:30:02	385890	5.0.10.0	5_exp_RW	101	Rpleas_acq	CS_A	LWWL	DXXD	JQQJ	YFFY	CPPC	ZHHZ	träumen	küssen	genießen	vertrauen	gütig	sonnig	töten	krank	gemein	versagen	gierig	sterben	1	acq_USunple_CSunple2_RW	acq4567_RW	4	48	400	1	300	300	347	46	0	1	1	blank2r.bmp	0	1	+	0	1	blank2r.bmp	492	1	YFFY	492	1	blank2r.bmp	572	1	versagen	866	1	!	1239	1	!	1252	0	0	0	0	0	0	0	0	0	0	0	0	0	0	0	0	0	0	0	0	0	0	0	0	0	0	0	0	0	0
081419	14:23:34	14:30:04	387982	5.0.10.0	5_exp_RW	101	Rpleas_acq	CS_A	LWWL	DXXD	JQQJ	YFFY	CPPC	ZHHZ	träumen	küssen	genießen	vertrauen	gütig	sonnig	töten	krank	gemein	versagen	gierig	sterben	1	acq_USunple_CSunple1_RW	acq4567_RW	4	49	400	0	300	300	315	46	0	1	1	blank2r.bmp	0	1	+	0	1	blank2r.bmp	492	1	JQQJ	492	1	blank2r.bmp	572	1	töten	866	1	!	-1	1	!	-1	0	0	0	0	0	0	0	0	0	0	0	0	0	0	0	0	0	0	0	0	0	0	0	0	0	0	0	0	0	0
081419	14:23:34	14:30:07	390141	5.0.10.0	5_exp_RW	101	Rpleas_acq	CS_A	LWWL	DXXD	JQQJ	YFFY	CPPC	ZHHZ	träumen	küssen	genießen	vertrauen	gütig	sonnig	töten	krank	gemein	versagen	gierig	sterben	1	acq_USunple_CSunple1_RW	acq4567_RW	4	50	400	1	300	300	346	46	0	1	1	blank2r.bmp	0	1	+	0	1	blank2r.bmp	492	1	JQQJ	492	1	blank2r.bmp	572	2	krank	866	1	!	1239	1	!	1252	0	0	0	0	0	0	0	0	0	0	0	0	0	0	0	0	0	0	0	0	0	0	0	0	0	0	0	0	0	0
081419	14:23:34	14:30:09	392341	5.0.10.0	5_exp_RW	101	Rpleas_acq	CS_A	LWWL	DXXD	JQQJ	YFFY	CPPC	ZHHZ	träumen	küssen	genießen	vertrauen	gütig	sonnig	töten	krank	gemein	versagen	gierig	sterben	1	acq_USpleas_CSpleas1_RW	acq4567_RW	4	51	400	1	300	300	407	50	0	1	1	blank2r.bmp	0	1	+	0	1	blank2r.bmp	492	1	LWWL	492	1	blank2r.bmp	572	3	genießen	866	1	!	1239	1	!	1306	0	0	0	0	0	0	0	0	0	0	0	0	0	0	0	0	0	0	0	0	0	0	0	0	0	0	0	0	0	0
081419	14:23:34	14:30:11	394593	5.0.10.0	5_exp_RW	101	Rpleas_acq	CS_A	LWWL	DXXD	JQQJ	YFFY	CPPC	ZHHZ	träumen	küssen	genießen	vertrauen	gütig	sonnig	töten	krank	gemein	versagen	gierig	sterben	1	acq_USunple_CSunple1_RW	acq4567_RW	4	52	400	1	300	300	465	46	0	1	1	blank2r.bmp	0	1	+	0	1	blank2r.bmp	492	1	JQQJ	492	1	blank2r.bmp	572	3	gemein	866	1	!	1239	1	!	1359	0	0	0	0	0	0	0	0	0	0	0	0	0	0	0	0	0	0	0	0	0	0	0	0	0	0	0	0	0	0
081419	14:23:34	14:30:13	396805	5.0.10.0	5_exp_RW	101	Rpleas_acq	CS_A	LWWL	DXXD	JQQJ	YFFY	CPPC	ZHHZ	träumen	küssen	genießen	vertrauen	gütig	sonnig	töten	krank	gemein	versagen	gierig	sterben	1	acq_USpleas_CSpleas2_RW	acq4567_RW	4	53	400	1	300	300	420	50	0	1	1	blank2r.bmp	0	1	+	0	1	blank2r.bmp	492	1	DXXD	492	1	blank2r.bmp	572	2	gütig	866	1	!	1239	1	!	1319	0	0	0	0	0	0	0	0	0	0	0	0	0	0	0	0	0	0	0	0	0	0	0	0	0	0	0	0	0	0
081419	14:23:34	14:30:15	399031	5.0.10.0	5_exp_RW	101	Rpleas_acq	CS_A	LWWL	DXXD	JQQJ	YFFY	CPPC	ZHHZ	träumen	küssen	genießen	vertrauen	gütig	sonnig	töten	krank	gemein	versagen	gierig	sterben	1	acq_USpleas_CSpleas1_RW	acq4567_RW	4	54	400	1	300	300	426	50	0	1	1	blank2r.bmp	0	1	+	0	1	blank2r.bmp	492	1	LWWL	492	1	blank2r.bmp	572	2	küssen	866	1	!	1239	1	!	1332	0	0	0	0	0	0	0	0	0	0	0	0	0	0	0	0	0	0	0	0	0	0	0	0	0	0	0	0	0	0
081419	14:23:34	14:30:18	401270	5.0.10.0	5_exp_RW	101	Rpleas_acq	CS_A	LWWL	DXXD	JQQJ	YFFY	CPPC	ZHHZ	träumen	küssen	genießen	vertrauen	gütig	sonnig	töten	krank	gemein	versagen	gierig	sterben	1	acq_USpleas_CSpleas2_RW	acq4567_RW	4	55	400	1	300	300	447	50	0	1	1	blank2r.bmp	0	1	+	0	1	blank2r.bmp	492	1	DXXD	492	1	blank2r.bmp	572	3	sonnig	866	1	!	1239	1	!	1346	0	0	0	0	0	0	0	0	0	0	0	0	0	0	0	0	0	0	0	0	0	0	0	0	0	0	0	0	0	0
081419	14:23:34	14:30:20	403629	5.0.10.0	5_exp_RW	101	Rpleas_acq	CS_A	LWWL	DXXD	JQQJ	YFFY	CPPC	ZHHZ	träumen	küssen	genießen	vertrauen	gütig	sonnig	töten	krank	gemein	versagen	gierig	sterben	1	acq_USpleas_CSpleas2_RW	acq4567_RW	4	56	400	0	300	300	590	50	0	1	1	blank2r.bmp	0	1	+	0	1	blank2r.bmp	492	1	DXXD	492	1	blank2r.bmp	572	1	vertrauen	866	1	!	1239	1	!	-1	0	0	0	0	0	0	0	0	0	0	0	0	0	0	0	0	0	0	0	0	0	0	0	0	0	0	0	0	0	0
081419	14:23:34	14:30:22	406095	5.0.10.0	5_exp_RW	101	Rpleas_acq	CS_A	LWWL	DXXD	JQQJ	YFFY	CPPC	ZHHZ	träumen	küssen	genießen	vertrauen	gütig	sonnig	töten	krank	gemein	versagen	gierig	sterben	1	acq_USunple_CSunple1_RW	acq4567_RW	4	57	400	0	300	300	673	46	0	1	1	blank2r.bmp	0	1	+	0	1	blank2r.bmp	492	1	JQQJ	492	1	blank2r.bmp	572	3	gemein	866	1	!	1239	1	!	-1	0	0	0	0	0	0	0	0	0	0	0	0	0	0	0	0	0	0	0	0	0	0	0	0	0	0	0	0	0	0
081419	14:23:34	14:30:25	408374	5.0.10.0	5_exp_RW	101	Rpleas_acq	CS_A	LWWL	DXXD	JQQJ	YFFY	CPPC	ZHHZ	träumen	küssen	genießen	vertrauen	gütig	sonnig	töten	krank	gemein	versagen	gierig	sterben	1	acq_USunple_CSunple2_RW	acq4567_RW	4	58	400	0	300	300	487	46	0	1	1	blank2r.bmp	0	1	+	0	1	blank2r.bmp	492	1	YFFY	492	1	blank2r.bmp	572	2	gierig	866	1	!	1239	1	!	-1	0	0	0	0	0	0	0	0	0	0	0	0	0	0	0	0	0	0	0	0	0	0	0	0	0	0	0	0	0	0
081419	14:23:34	14:30:27	410653	5.0.10.0	5_exp_RW	101	Rpleas_acq	CS_A	LWWL	DXXD	JQQJ	YFFY	CPPC	ZHHZ	träumen	küssen	genießen	vertrauen	gütig	sonnig	töten	krank	gemein	versagen	gierig	sterben	1	acq_USpleas_CSpleas2_RW	acq4567_RW	4	59	400	1	300	300	453	50	0	1	1	blank2r.bmp	0	1	+	0	1	blank2r.bmp	492	1	DXXD	492	1	blank2r.bmp	572	1	vertrauen	866	1	!	1239	1	!	1359	0	0	0	0	0	0	0	0	0	0	0	0	0	0	0	0	0	0	0	0	0	0	0	0	0	0	0	0	0	0
081419	14:23:34	14:30:29	412799	5.0.10.0	5_exp_RW	101	Rpleas_acq	CS_A	LWWL	DXXD	JQQJ	YFFY	CPPC	ZHHZ	träumen	küssen	genießen	vertrauen	gütig	sonnig	töten	krank	gemein	versagen	gierig	sterben	1	acq_USunple_CSunple2_RW	acq4567_RW	4	60	400	1	300	300	346	46	0	1	1	blank2r.bmp	0	1	+	0	1	blank2r.bmp	492	1	YFFY	492	1	blank2r.bmp	572	1	versagen	866	1	!	1239	1	!	1252	0	0	0	0	0	0	0	0	0	0	0	0	0	0	0	0	0	0	0	0	0	0	0	0	0	0	0	0	0	0
081419	14:23:34	14:30:31	415024	5.0.10.0	5_exp_RW	101	Rpleas_acq	CS_A	LWWL	DXXD	JQQJ	YFFY	CPPC	ZHHZ	träumen	küssen	genießen	vertrauen	gütig	sonnig	töten	krank	gemein	versagen	gierig	sterben	1	acq_USunple_CSunple1_RW	acq4567_RW	4	61	400	1	300	300	432	46	0	1	1	blank2r.bmp	0	1	+	0	1	blank2r.bmp	492	1	JQQJ	492	1	blank2r.bmp	572	2	krank	866	1	!	1239	1	!	1332	0	0	0	0	0	0	0	0	0	0	0	0	0	0	0	0	0	0	0	0	0	0	0	0	0	0	0	0	0	0
081419	14:23:34	14:30:34	417277	5.0.10.0	5_exp_RW	101	Rpleas_acq	CS_A	LWWL	DXXD	JQQJ	YFFY	CPPC	ZHHZ	träumen	küssen	genießen	vertrauen	gütig	sonnig	töten	krank	gemein	versagen	gierig	sterben	1	acq_USpleas_CSpleas1_RW	acq4567_RW	4	62	400	0	300	300	485	50	0	1	1	blank2r.bmp	0	1	+	0	1	blank2r.bmp	492	1	LWWL	492	1	blank2r.bmp	572	3	genießen	866	1	!	1239	1	!	-1	0	0	0	0	0	0	0	0	0	0	0	0	0	0	0	0	0	0	0	0	0	0	0	0	0	0	0	0	0	0
081419	14:23:34	14:30:36	419849	5.0.10.0	5_exp_RW	101	Rpleas_acq	CS_A	LWWL	DXXD	JQQJ	YFFY	CPPC	ZHHZ	träumen	küssen	genießen	vertrauen	gütig	sonnig	töten	krank	gemein	versagen	gierig	sterben	1	acq_USunple_CSunple1_RW	acq4567_RW	4	63	400	0	300	300	795	46	0	1	1	blank2r.bmp	0	1	+	0	1	blank2r.bmp	492	1	JQQJ	492	1	blank2r.bmp	572	1	töten	866	1	!	1239	1	!	-1	0	0	0	0	0	0	0	0	0	0	0	0	0	0	0	0	0	0	0	0	0	0	0	0	0	0	0	0	0	0
081419	14:23:34	14:30:38	422035	5.0.10.0	5_exp_RW	101	Rpleas_acq	CS_A	LWWL	DXXD	JQQJ	YFFY	CPPC	ZHHZ	träumen	küssen	genießen	vertrauen	gütig	sonnig	töten	krank	gemein	versagen	gierig	sterben	1	acq_USpleas_CSpleas2_RW	acq4567_RW	4	64	400	1	300	300	377	46	0	0	1	blank2r.bmp	0	1	+	0	1	blank2r.bmp	492	1	DXXD	492	1	blank2r.bmp	572	2	gütig	866	1	!	1239	1	!	1279	0	0	0	0	0	0	0	0	0	0	0	0	0	0	0	0	0	0	0	0	0	0	0	0	0	0	0	0	0	0
081419	14:23:34	14:30:41	424220	5.0.10.0	5_exp_RW	101	Rpleas_acq	CS_A	LWWL	DXXD	JQQJ	YFFY	CPPC	ZHHZ	träumen	küssen	genießen	vertrauen	gütig	sonnig	töten	krank	gemein	versagen	gierig	sterben	1	acq_USpleas_CSpleas1_RW	acq4567_RW	4	65	400	1	300	300	373	50	0	1	1	blank2r.bmp	0	1	+	0	1	blank2r.bmp	492	1	LWWL	492	1	blank2r.bmp	572	1	träumen	866	1	!	1239	1	!	1279	0	0	0	0	0	0	0	0	0	0	0	0	0	0	0	0	0	0	0	0	0	0	0	0	0	0	0	0	0	0
081419	14:23:34	14:30:43	426419	5.0.10.0	5_exp_RW	101	Rpleas_acq	CS_A	LWWL	DXXD	JQQJ	YFFY	CPPC	ZHHZ	träumen	küssen	genießen	vertrauen	gütig	sonnig	töten	krank	gemein	versagen	gierig	sterben	1	acq_USunple_CSunple1_RW	acq4567_RW	4	66	400	1	300	300	398	46	0	1	1	blank2r.bmp	0	1	+	0	1	blank2r.bmp	492	1	JQQJ	492	1	blank2r.bmp	572	2	krank	866	1	!	1239	1	!	1292	0	0	0	0	0	0	0	0	0	0	0	0	0	0	0	0	0	0	0	0	0	0	0	0	0	0	0	0	0	0
081419	14:23:34	14:30:45	428619	5.0.10.0	5_exp_RW	101	Rpleas_acq	CS_A	LWWL	DXXD	JQQJ	YFFY	CPPC	ZHHZ	träumen	küssen	genießen	vertrauen	gütig	sonnig	töten	krank	gemein	versagen	gierig	sterben	1	acq_USpleas_CSpleas2_RW	acq4567_RW	4	67	400	1	300	300	386	50	0	1	1	blank2r.bmp	0	1	+	0	1	blank2r.bmp	492	1	DXXD	492	1	blank2r.bmp	572	3	sonnig	866	1	!	1239	1	!	1292	0	0	0	0	0	0	0	0	0	0	0	0	0	0	0	0	0	0	0	0	0	0	0	0	0	0	0	0	0	0
081419	14:23:34	14:30:47	430884	5.0.10.0	5_exp_RW	101	Rpleas_acq	CS_A	LWWL	DXXD	JQQJ	YFFY	CPPC	ZHHZ	träumen	küssen	genießen	vertrauen	gütig	sonnig	töten	krank	gemein	versagen	gierig	sterben	1	acq_USpleas_CSpleas2_RW	acq4567_RW	4	68	400	1	300	300	455	50	0	1	1	blank2r.bmp	0	1	+	0	1	blank2r.bmp	492	1	DXXD	492	1	blank2r.bmp	572	1	vertrauen	866	1	!	1239	1	!	1359	0	0	0	0	0	0	0	0	0	0	0	0	0	0	0	0	0	0	0	0	0	0	0	0	0	0	0	0	0	0
081419	14:23:34	14:30:49	433070	5.0.10.0	5_exp_RW	101	Rpleas_acq	CS_A	LWWL	DXXD	JQQJ	YFFY	CPPC	ZHHZ	träumen	küssen	genießen	vertrauen	gütig	sonnig	töten	krank	gemein	versagen	gierig	sterben	1	acq_USunple_CSunple2_RW	acq4567_RW	4	69	400	1	300	300	390	46	0	1	1	blank2r.bmp	0	1	+	0	1	blank2r.bmp	492	1	YFFY	492	1	blank2r.bmp	572	3	sterben	866	1	!	1239	1	!	1292	0	0	0	0	0	0	0	0	0	0	0	0	0	0	0	0	0	0	0	0	0	0	0	0	0	0	0	0	0	0
081419	14:23:34	14:30:52	435322	5.0.10.0	5_exp_RW	101	Rpleas_acq	CS_A	LWWL	DXXD	JQQJ	YFFY	CPPC	ZHHZ	träumen	küssen	genießen	vertrauen	gütig	sonnig	töten	krank	gemein	versagen	gierig	sterben	1	acq_USpleas_CSpleas1_RW	acq4567_RW	4	70	400	0	300	300	485	50	0	1	1	blank2r.bmp	0	1	+	0	1	blank2r.bmp	492	1	LWWL	492	1	blank2r.bmp	572	2	küssen	866	1	!	1239	1	!	-1	0	0	0	0	0	0	0	0	0	0	0	0	0	0	0	0	0	0	0	0	0	0	0	0	0	0	0	0	0	0
081419	14:23:34	14:30:54	437561	5.0.10.0	5_exp_RW	101	Rpleas_acq	CS_A	LWWL	DXXD	JQQJ	YFFY	CPPC	ZHHZ	träumen	küssen	genießen	vertrauen	gütig	sonnig	töten	krank	gemein	versagen	gierig	sterben	1	acq_USunple_CSunple1_RW	acq4567_RW	4	71	400	1	300	300	433	46	0	1	1	blank2r.bmp	0	1	+	0	1	blank2r.bmp	492	1	JQQJ	492	1	blank2r.bmp	572	3	gemein	866	1	!	1239	1	!	1332	0	0	0	0	0	0	0	0	0	0	0	0	0	0	0	0	0	0	0	0	0	0	0	0	0	0	0	0	0	0
081419	14:23:34	14:30:56	439787	5.0.10.0	5_exp_RW	101	Rpleas_acq	CS_A	LWWL	DXXD	JQQJ	YFFY	CPPC	ZHHZ	träumen	küssen	genießen	vertrauen	gütig	sonnig	töten	krank	gemein	versagen	gierig	sterben	1	acq_USpleas_CSpleas1_RW	acq4567_RW	4	72	400	1	300	300	427	50	0	1	1	blank2r.bmp	0	1	+	0	1	blank2r.bmp	492	1	LWWL	492	1	blank2r.bmp	572	1	träumen	866	1	!	1239	1	!	1332	0	0	0	0	0	0	0	0	0	0	0	0	0	0	0	0	0	0	0	0	0	0	0	0	0	0	0	0	0	0
081419	14:23:34	14:30:58	442066	5.0.10.0	5_exp_RW	101	Rpleas_acq	CS_A	LWWL	DXXD	JQQJ	YFFY	CPPC	ZHHZ	träumen	küssen	genießen	vertrauen	gütig	sonnig	töten	krank	gemein	versagen	gierig	sterben	1	acq_USunple_CSunple2_RW	acq4567_RW	4	73	400	0	300	300	496	46	0	1	1	blank2r.bmp	0	1	+	0	1	blank2r.bmp	492	1	YFFY	492	1	blank2r.bmp	572	2	gierig	866	1	!	1239	1	!	-1	0	0	0	0	0	0	0	0	0	0	0	0	0	0	0	0	0	0	0	0	0	0	0	0	0	0	0	0	0	0
081419	14:23:34	14:31:01	444399	5.0.10.0	5_exp_RW	101	Rpleas_acq	CS_A	LWWL	DXXD	JQQJ	YFFY	CPPC	ZHHZ	träumen	küssen	genießen	vertrauen	gütig	sonnig	töten	krank	gemein	versagen	gierig	sterben	1	acq_USpleas_CSpleas2_RW	acq4567_RW	4	74	400	0	300	300	549	50	0	1	1	blank2r.bmp	0	1	+	0	1	blank2r.bmp	492	1	DXXD	492	1	blank2r.bmp	572	2	gütig	866	1	!	1239	1	!	-1	0	0	0	0	0	0	0	0	0	0	0	0	0	0	0	0	0	0	0	0	0	0	0	0	0	0	0	0	0	0
081419	14:23:34	14:31:03	446584	5.0.10.0	5_exp_RW	101	Rpleas_acq	CS_A	LWWL	DXXD	JQQJ	YFFY	CPPC	ZHHZ	träumen	küssen	genießen	vertrauen	gütig	sonnig	töten	krank	gemein	versagen	gierig	sterben	1	acq_USunple_CSunple2_RW	acq4567_RW	4	75	400	1	300	300	379	46	0	1	1	blank2r.bmp	0	1	+	0	1	blank2r.bmp	492	1	YFFY	492	1	blank2r.bmp	572	3	sterben	866	1	!	1239	1	!	1279	0	0	0	0	0	0	0	0	0	0	0	0	0	0	0	0	0	0	0	0	0	0	0	0	0	0	0	0	0	0
081419	14:23:34	14:31:05	448863	5.0.10.0	5_exp_RW	101	Rpleas_acq	CS_A	LWWL	DXXD	JQQJ	YFFY	CPPC	ZHHZ	träumen	küssen	genießen	vertrauen	gütig	sonnig	töten	krank	gemein	versagen	gierig	sterben	1	acq_USunple_CSunple2_RW	acq4567_RW	4	76	400	0	300	300	512	46	0	1	1	blank2r.bmp	0	1	+	0	1	blank2r.bmp	492	1	YFFY	492	1	blank2r.bmp	572	2	gierig	866	1	!	1239	1	!	-1	0	0	0	0	0	0	0	0	0	0	0	0	0	0	0	0	0	0	0	0	0	0	0	0	0	0	0	0	0	0
081419	14:23:34	14:31:07	450969	5.0.10.0	5_exp_RW	101	Rpleas_acq	CS_A	LWWL	DXXD	JQQJ	YFFY	CPPC	ZHHZ	träumen	küssen	genießen	vertrauen	gütig	sonnig	töten	krank	gemein	versagen	gierig	sterben	1	acq_USpleas_CSpleas1_RW	acq4567_RW	4	77	400	0	300	300	328	50	0	1	1	blank2r.bmp	0	1	+	0	1	blank2r.bmp	492	1	LWWL	492	1	blank2r.bmp	572	3	genießen	866	1	!	-1	1	!	-1	0	0	0	0	0	0	0	0	0	0	0	0	0	0	0	0	0	0	0	0	0	0	0	0	0	0	0	0	0	0
081419	14:23:34	14:31:10	453128	5.0.10.0	5_exp_RW	101	Rpleas_acq	CS_A	LWWL	DXXD	JQQJ	YFFY	CPPC	ZHHZ	träumen	küssen	genießen	vertrauen	gütig	sonnig	töten	krank	gemein	versagen	gierig	sterben	1	acq_USunple_CSunple2_RW	acq4567_RW	4	78	400	1	300	300	346	46	0	1	1	blank2r.bmp	0	1	+	0	1	blank2r.bmp	492	1	YFFY	492	1	blank2r.bmp	572	1	versagen	866	1	!	1239	1	!	1252	0	0	0	0	0	0	0	0	0	0	0	0	0	0	0	0	0	0	0	0	0	0	0	0	0	0	0	0	0	0
081419	14:23:34	14:31:12	455221	5.0.10.0	5_exp_RW	101	Rpleas_acq	CS_A	LWWL	DXXD	JQQJ	YFFY	CPPC	ZHHZ	träumen	küssen	genießen	vertrauen	gütig	sonnig	töten	krank	gemein	versagen	gierig	sterben	1	acq_USunple_CSunple1_RW	acq4567_RW	4	79	400	0	300	300	329	50	0	0	1	blank2r.bmp	0	1	+	0	1	blank2r.bmp	492	1	JQQJ	492	1	blank2r.bmp	572	1	töten	866	1	!	-1	1	!	-1	0	0	0	0	0	0	0	0	0	0	0	0	0	0	0	0	0	0	0	0	0	0	0	0	0	0	0	0	0	0
081419	14:23:34	14:31:14	457526	5.0.10.0	5_exp_RW	101	Rpleas_acq	CS_A	LWWL	DXXD	JQQJ	YFFY	CPPC	ZHHZ	träumen	küssen	genießen	vertrauen	gütig	sonnig	töten	krank	gemein	versagen	gierig	sterben	1	acq_USpleas_CSpleas2_RW	acq4567_RW	4	80	400	0	300	300	530	50	0	1	1	blank2r.bmp	0	1	+	0	1	blank2r.bmp	492	1	DXXD	492	1	blank2r.bmp	572	3	sonnig	866	1	!	1239	1	!	-1	0	0	0	0	0	0	0	0	0	0	0	0	0	0	0	0	0	0	0	0	0	0	0	0	0	0	0	0	0	0
081419	14:23:34	14:31:54	497763	5.0.10.0	5_exp_RW	101	Rpleas_acq	CS_A	LWWL	DXXD	JQQJ	YFFY	CPPC	ZHHZ	träumen	küssen	genießen	vertrauen	gütig	sonnig	töten	krank	gemein	versagen	gierig	sterben	1	acq_USpleas_CSpleas2_RW	acq4567_RW	5	1	400	0	300	300	479	50	0	1	1	blank2r.bmp	0	1	+	0	1	blank2r.bmp	492	1	DXXD	492	1	blank2r.bmp	572	3	sonnig	866	1	!	1239	1	!	-1	0	0	0	0	0	0	0	0	0	0	0	0	0	0	0	0	0	0	0	0	0	0	0	0	0	0	0	0	0	0
081419	14:23:34	14:31:56	500055	5.0.10.0	5_exp_RW	101	Rpleas_acq	CS_A	LWWL	DXXD	JQQJ	YFFY	CPPC	ZHHZ	träumen	küssen	genießen	vertrauen	gütig	sonnig	töten	krank	gemein	versagen	gierig	sterben	1	acq_USunple_CSunple2_RW	acq4567_RW	5	2	400	0	300	300	505	46	0	1	1	blank2r.bmp	0	1	+	0	1	blank2r.bmp	492	1	YFFY	492	1	blank2r.bmp	572	2	gierig	866	1	!	1239	1	!	-1	0	0	0	0	0	0	0	0	0	0	0	0	0	0	0	0	0	0	0	0	0	0	0	0	0	0	0	0	0	0
081419	14:23:34	14:31:59	502454	5.0.10.0	5_exp_RW	101	Rpleas_acq	CS_A	LWWL	DXXD	JQQJ	YFFY	CPPC	ZHHZ	träumen	küssen	genießen	vertrauen	gütig	sonnig	töten	krank	gemein	versagen	gierig	sterben	1	acq_USunple_CSunple1_RW	acq4567_RW	5	3	400	0	300	300	612	46	0	1	1	blank2r.bmp	0	1	+	0	1	blank2r.bmp	492	1	JQQJ	492	1	blank2r.bmp	572	1	töten	866	1	!	1239	1	!	-1	0	0	0	0	0	0	0	0	0	0	0	0	0	0	0	0	0	0	0	0	0	0	0	0	0	0	0	0	0	0
081419	14:23:34	14:32:01	504706	5.0.10.0	5_exp_RW	101	Rpleas_acq	CS_A	LWWL	DXXD	JQQJ	YFFY	CPPC	ZHHZ	träumen	küssen	genießen	vertrauen	gütig	sonnig	töten	krank	gemein	versagen	gierig	sterben	1	acq_USpleas_CSpleas1_RW	acq4567_RW	5	4	400	1	300	300	437	50	0	1	1	blank2r.bmp	0	1	+	0	1	blank2r.bmp	492	1	LWWL	492	1	blank2r.bmp	572	1	träumen	866	1	!	1239	1	!	1332	0	0	0	0	0	0	0	0	0	0	0	0	0	0	0	0	0	0	0	0	0	0	0	0	0	0	0	0	0	0
081419	14:23:34	14:32:04	507239	5.0.10.0	5_exp_RW	101	Rpleas_acq	CS_A	LWWL	DXXD	JQQJ	YFFY	CPPC	ZHHZ	träumen	küssen	genießen	vertrauen	gütig	sonnig	töten	krank	gemein	versagen	gierig	sterben	1	acq_USunple_CSunple2_RW	acq4567_RW	5	5	400	0	300	300	769	50	0	0	1	blank2r.bmp	0	1	+	0	1	blank2r.bmp	492	1	YFFY	492	1	blank2r.bmp	572	1	versagen	866	1	!	1239	1	!	-1	0	0	0	0	0	0	0	0	0	0	0	0	0	0	0	0	0	0	0	0	0	0	0	0	0	0	0	0	0	0
081419	14:23:34	14:32:06	509504	5.0.10.0	5_exp_RW	101	Rpleas_acq	CS_A	LWWL	DXXD	JQQJ	YFFY	CPPC	ZHHZ	träumen	küssen	genießen	vertrauen	gütig	sonnig	töten	krank	gemein	versagen	gierig	sterben	1	acq_USunple_CSunple2_RW	acq4567_RW	5	6	400	0	300	300	479	46	0	1	1	blank2r.bmp	0	1	+	0	1	blank2r.bmp	492	1	YFFY	492	1	blank2r.bmp	572	3	sterben	866	1	!	1239	1	!	-1	0	0	0	0	0	0	0	0	0	0	0	0	0	0	0	0	0	0	0	0	0	0	0	0	0	0	0	0	0	0
081419	14:23:34	14:32:09	512223	5.0.10.0	5_exp_RW	101	Rpleas_acq	CS_A	LWWL	DXXD	JQQJ	YFFY	CPPC	ZHHZ	träumen	küssen	genießen	vertrauen	gütig	sonnig	töten	krank	gemein	versagen	gierig	sterben	1	acq_USunple_CSunple1_RW	acq4567_RW	5	7	400	0	300	300	940	46	0	1	1	blank2r.bmp	0	1	+	0	1	blank2r.bmp	492	1	JQQJ	492	1	blank2r.bmp	572	3	gemein	866	1	!	1239	1	!	-1	0	0	0	0	0	0	0	0	0	0	0	0	0	0	0	0	0	0	0	0	0	0	0	0	0	0	0	0	0	0
081419	14:23:34	14:32:11	514502	5.0.10.0	5_exp_RW	101	Rpleas_acq	CS_A	LWWL	DXXD	JQQJ	YFFY	CPPC	ZHHZ	träumen	küssen	genießen	vertrauen	gütig	sonnig	töten	krank	gemein	versagen	gierig	sterben	1	acq_USpleas_CSpleas1_RW	acq4567_RW	5	8	400	0	300	300	499	50	0	1	1	blank2r.bmp	0	1	+	0	1	blank2r.bmp	492	1	LWWL	492	1	blank2r.bmp	572	3	genießen	866	1	!	1239	1	!	-1	0	0	0	0	0	0	0	0	0	0	0	0	0	0	0	0	0	0	0	0	0	0	0	0	0	0	0	0	0	0
081419	14:23:34	14:32:13	516768	5.0.10.0	5_exp_RW	101	Rpleas_acq	CS_A	LWWL	DXXD	JQQJ	YFFY	CPPC	ZHHZ	träumen	küssen	genießen	vertrauen	gütig	sonnig	töten	krank	gemein	versagen	gierig	sterben	1	acq_USunple_CSunple1_RW	acq4567_RW	5	9	400	1	300	300	463	46	0	1	1	blank2r.bmp	0	1	+	0	1	blank2r.bmp	492	1	JQQJ	492	1	blank2r.bmp	572	2	krank	866	1	!	1239	1	!	1359	0	0	0	0	0	0	0	0	0	0	0	0	0	0	0	0	0	0	0	0	0	0	0	0	0	0	0	0	0	0
081419	14:23:34	14:32:15	519034	5.0.10.0	5_exp_RW	101	Rpleas_acq	CS_A	LWWL	DXXD	JQQJ	YFFY	CPPC	ZHHZ	träumen	küssen	genießen	vertrauen	gütig	sonnig	töten	krank	gemein	versagen	gierig	sterben	1	acq_USpleas_CSpleas1_RW	acq4567_RW	5	10	400	0	300	300	494	50	0	1	1	blank2r.bmp	0	1	+	0	1	blank2r.bmp	492	1	LWWL	492	1	blank2r.bmp	572	2	küssen	866	1	!	1239	1	!	-1	0	0	0	0	0	0	0	0	0	0	0	0	0	0	0	0	0	0	0	0	0	0	0	0	0	0	0	0	0	0
081419	14:23:34	14:32:18	521473	5.0.10.0	5_exp_RW	101	Rpleas_acq	CS_A	LWWL	DXXD	JQQJ	YFFY	CPPC	ZHHZ	träumen	küssen	genießen	vertrauen	gütig	sonnig	töten	krank	gemein	versagen	gierig	sterben	1	acq_USpleas_CSpleas2_RW	acq4567_RW	5	11	400	0	300	300	656	50	0	1	1	blank2r.bmp	0	1	+	0	1	blank2r.bmp	492	1	DXXD	492	1	blank2r.bmp	572	2	gütig	866	1	!	1239	1	!	-1	0	0	0	0	0	0	0	0	0	0	0	0	0	0	0	0	0	0	0	0	0	0	0	0	0	0	0	0	0	0
081419	14:23:34	14:32:20	523712	5.0.10.0	5_exp_RW	101	Rpleas_acq	CS_A	LWWL	DXXD	JQQJ	YFFY	CPPC	ZHHZ	träumen	küssen	genießen	vertrauen	gütig	sonnig	töten	krank	gemein	versagen	gierig	sterben	1	acq_USunple_CSunple2_RW	acq4567_RW	5	12	400	1	300	300	420	46	0	1	1	blank2r.bmp	0	1	+	0	1	blank2r.bmp	492	1	YFFY	492	1	blank2r.bmp	572	2	gierig	866	1	!	1239	1	!	1319	0	0	0	0	0	0	0	0	0	0	0	0	0	0	0	0	0	0	0	0	0	0	0	0	0	0	0	0	0	0
081419	14:23:34	14:32:22	525897	5.0.10.0	5_exp_RW	101	Rpleas_acq	CS_A	LWWL	DXXD	JQQJ	YFFY	CPPC	ZHHZ	träumen	küssen	genießen	vertrauen	gütig	sonnig	töten	krank	gemein	versagen	gierig	sterben	1	acq_USunple_CSunple2_RW	acq4567_RW	5	13	400	1	300	300	398	46	0	1	1	blank2r.bmp	0	1	+	0	1	blank2r.bmp	492	1	YFFY	492	1	blank2r.bmp	572	1	versagen	866	1	!	1239	1	!	1292	0	0	0	0	0	0	0	0	0	0	0	0	0	0	0	0	0	0	0	0	0	0	0	0	0	0	0	0	0	0
081419	14:23:34	14:32:24	528057	5.0.10.0	5_exp_RW	101	Rpleas_acq	CS_A	LWWL	DXXD	JQQJ	YFFY	CPPC	ZHHZ	träumen	küssen	genießen	vertrauen	gütig	sonnig	töten	krank	gemein	versagen	gierig	sterben	1	acq_USunple_CSunple1_RW	acq4567_RW	5	14	400	1	300	300	368	46	0	1	1	blank2r.bmp	0	1	+	0	1	blank2r.bmp	492	1	JQQJ	492	1	blank2r.bmp	572	2	krank	866	1	!	1239	1	!	1266	0	0	0	0	0	0	0	0	0	0	0	0	0	0	0	0	0	0	0	0	0	0	0	0	0	0	0	0	0	0
081419	14:23:34	14:32:27	530309	5.0.10.0	5_exp_RW	101	Rpleas_acq	CS_A	LWWL	DXXD	JQQJ	YFFY	CPPC	ZHHZ	träumen	küssen	genießen	vertrauen	gütig	sonnig	töten	krank	gemein	versagen	gierig	sterben	1	acq_USunple_CSunple1_RW	acq4567_RW	5	15	400	1	300	300	464	46	0	1	1	blank2r.bmp	0	1	+	0	1	blank2r.bmp	492	1	JQQJ	492	1	blank2r.bmp	572	3	gemein	866	1	!	1239	1	!	1359	0	0	0	0	0	0	0	0	0	0	0	0	0	0	0	0	0	0	0	0	0	0	0	0	0	0	0	0	0	0
081419	14:23:34	14:32:29	532548	5.0.10.0	5_exp_RW	101	Rpleas_acq	CS_A	LWWL	DXXD	JQQJ	YFFY	CPPC	ZHHZ	träumen	küssen	genießen	vertrauen	gütig	sonnig	töten	krank	gemein	versagen	gierig	sterben	1	acq_USpleas_CSpleas2_RW	acq4567_RW	5	16	400	1	300	300	443	46	0	0	1	blank2r.bmp	0	1	+	0	1	blank2r.bmp	492	1	DXXD	492	1	blank2r.bmp	572	1	vertrauen	866	1	!	1239	1	!	1346	0	0	0	0	0	0	0	0	0	0	0	0	0	0	0	0	0	0	0	0	0	0	0	0	0	0	0	0	0	0
081419	14:23:34	14:32:31	534800	5.0.10.0	5_exp_RW	101	Rpleas_acq	CS_A	LWWL	DXXD	JQQJ	YFFY	CPPC	ZHHZ	träumen	küssen	genießen	vertrauen	gütig	sonnig	töten	krank	gemein	versagen	gierig	sterben	1	acq_USpleas_CSpleas1_RW	acq4567_RW	5	17	400	0	300	300	482	50	0	1	1	blank2r.bmp	0	1	+	0	1	blank2r.bmp	492	1	LWWL	492	1	blank2r.bmp	572	1	träumen	866	1	!	1239	1	!	-1	0	0	0	0	0	0	0	0	0	0	0	0	0	0	0	0	0	0	0	0	0	0	0	0	0	0	0	0	0	0
081419	14:23:34	14:32:33	537093	5.0.10.0	5_exp_RW	101	Rpleas_acq	CS_A	LWWL	DXXD	JQQJ	YFFY	CPPC	ZHHZ	träumen	küssen	genießen	vertrauen	gütig	sonnig	töten	krank	gemein	versagen	gierig	sterben	1	acq_USpleas_CSpleas2_RW	acq4567_RW	5	18	400	0	300	300	515	50	0	1	1	blank2r.bmp	0	1	+	0	1	blank2r.bmp	492	1	DXXD	492	1	blank2r.bmp	572	2	gütig	866	1	!	1239	1	!	-1	0	0	0	0	0	0	0	0	0	0	0	0	0	0	0	0	0	0	0	0	0	0	0	0	0	0	0	0	0	0
081419	14:23:34	14:32:36	539252	5.0.10.0	5_exp_RW	101	Rpleas_acq	CS_A	LWWL	DXXD	JQQJ	YFFY	CPPC	ZHHZ	träumen	küssen	genießen	vertrauen	gütig	sonnig	töten	krank	gemein	versagen	gierig	sterben	1	acq_USpleas_CSpleas1_RW	acq4567_RW	5	19	400	1	300	300	346	50	0	1	1	blank2r.bmp	0	1	+	0	1	blank2r.bmp	492	1	LWWL	492	1	blank2r.bmp	572	3	genießen	866	1	!	1239	1	!	1252	0	0	0	0	0	0	0	0	0	0	0	0	0	0	0	0	0	0	0	0	0	0	0	0	0	0	0	0	0	0
081419	14:23:34	14:32:38	541478	5.0.10.0	5_exp_RW	101	Rpleas_acq	CS_A	LWWL	DXXD	JQQJ	YFFY	CPPC	ZHHZ	träumen	küssen	genießen	vertrauen	gütig	sonnig	töten	krank	gemein	versagen	gierig	sterben	1	acq_USpleas_CSpleas2_RW	acq4567_RW	5	20	400	1	300	300	429	50	0	1	1	blank2r.bmp	0	1	+	0	1	blank2r.bmp	492	1	DXXD	492	1	blank2r.bmp	572	3	sonnig	866	1	!	1239	1	!	1332	0	0	0	0	0	0	0	0	0	0	0	0	0	0	0	0	0	0	0	0	0	0	0	0	0	0	0	0	0	0
081419	14:23:34	14:32:40	543543	5.0.10.0	5_exp_RW	101	Rpleas_acq	CS_A	LWWL	DXXD	JQQJ	YFFY	CPPC	ZHHZ	träumen	küssen	genießen	vertrauen	gütig	sonnig	töten	krank	gemein	versagen	gierig	sterben	1	acq_USpleas_CSpleas2_RW	acq4567_RW	5	21	400	0	300	300	299	50	0	1	1	blank2r.bmp	0	1	+	0	1	blank2r.bmp	492	1	DXXD	492	1	blank2r.bmp	572	1	vertrauen	866	1	!	-1	1	!	-1	0	0	0	0	0	0	0	0	0	0	0	0	0	0	0	0	0	0	0	0	0	0	0	0	0	0	0	0	0	0
081419	14:23:34	14:32:42	545782	5.0.10.0	5_exp_RW	101	Rpleas_acq	CS_A	LWWL	DXXD	JQQJ	YFFY	CPPC	ZHHZ	träumen	küssen	genießen	vertrauen	gütig	sonnig	töten	krank	gemein	versagen	gierig	sterben	1	acq_USunple_CSunple2_RW	acq4567_RW	5	22	400	1	300	300	437	46	0	1	1	blank2r.bmp	0	1	+	0	1	blank2r.bmp	492	1	YFFY	492	1	blank2r.bmp	572	3	sterben	866	1	!	1239	1	!	1332	0	0	0	0	0	0	0	0	0	0	0	0	0	0	0	0	0	0	0	0	0	0	0	0	0	0	0	0	0	0
081419	14:23:34	14:32:44	548035	5.0.10.0	5_exp_RW	101	Rpleas_acq	CS_A	LWWL	DXXD	JQQJ	YFFY	CPPC	ZHHZ	träumen	küssen	genießen	vertrauen	gütig	sonnig	töten	krank	gemein	versagen	gierig	sterben	1	acq_USpleas_CSpleas1_RW	acq4567_RW	5	23	400	1	300	300	460	50	0	1	1	blank2r.bmp	0	1	+	0	1	blank2r.bmp	492	1	LWWL	492	1	blank2r.bmp	572	2	küssen	866	1	!	1239	1	!	1359	0	0	0	0	0	0	0	0	0	0	0	0	0	0	0	0	0	0	0	0	0	0	0	0	0	0	0	0	0	0
081419	14:23:34	14:32:47	550194	5.0.10.0	5_exp_RW	101	Rpleas_acq	CS_A	LWWL	DXXD	JQQJ	YFFY	CPPC	ZHHZ	träumen	küssen	genießen	vertrauen	gütig	sonnig	töten	krank	gemein	versagen	gierig	sterben	1	acq_USpleas_CSpleas2_RW	acq4567_RW	5	24	400	1	300	300	361	50	0	1	1	blank2r.bmp	0	1	+	0	1	blank2r.bmp	492	1	DXXD	492	1	blank2r.bmp	572	3	sonnig	866	1	!	1239	1	!	1266	0	0	0	0	0	0	0	0	0	0	0	0	0	0	0	0	0	0	0	0	0	0	0	0	0	0	0	0	0	0
081419	14:23:34	14:32:49	552673	5.0.10.0	5_exp_RW	101	Rpleas_acq	CS_A	LWWL	DXXD	JQQJ	YFFY	CPPC	ZHHZ	träumen	küssen	genießen	vertrauen	gütig	sonnig	töten	krank	gemein	versagen	gierig	sterben	1	acq_USunple_CSunple1_RW	acq4567_RW	5	25	400	0	300	300	717	46	0	1	1	blank2r.bmp	0	1	+	0	1	blank2r.bmp	492	1	JQQJ	492	1	blank2r.bmp	572	1	töten	866	1	!	1239	1	!	-1	0	0	0	0	0	0	0	0	0	0	0	0	0	0	0	0	0	0	0	0	0	0	0	0	0	0	0	0	0	0
081419	14:23:34	14:32:51	555085	5.0.10.0	5_exp_RW	101	Rpleas_acq	CS_A	LWWL	DXXD	JQQJ	YFFY	CPPC	ZHHZ	träumen	küssen	genießen	vertrauen	gütig	sonnig	töten	krank	gemein	versagen	gierig	sterben	1	acq_USunple_CSunple1_RW	acq4567_RW	5	26	400	0	300	300	617	46	0	1	1	blank2r.bmp	0	1	+	0	1	blank2r.bmp	492	1	JQQJ	492	1	blank2r.bmp	572	3	gemein	866	1	!	1239	1	!	-1	0	0	0	0	0	0	0	0	0	0	0	0	0	0	0	0	0	0	0	0	0	0	0	0	0	0	0	0	0	0
081419	14:23:34	14:32:54	557351	5.0.10.0	5_exp_RW	101	Rpleas_acq	CS_A	LWWL	DXXD	JQQJ	YFFY	CPPC	ZHHZ	träumen	küssen	genießen	vertrauen	gütig	sonnig	töten	krank	gemein	versagen	gierig	sterben	1	acq_USpleas_CSpleas1_RW	acq4567_RW	5	27	400	0	300	300	479	50	0	1	1	blank2r.bmp	0	1	+	0	1	blank2r.bmp	492	1	LWWL	492	1	blank2r.bmp	572	1	träumen	866	1	!	1239	1	!	-1	0	0	0	0	0	0	0	0	0	0	0	0	0	0	0	0	0	0	0	0	0	0	0	0	0	0	0	0	0	0
081419	14:23:34	14:32:56	559630	5.0.10.0	5_exp_RW	101	Rpleas_acq	CS_A	LWWL	DXXD	JQQJ	YFFY	CPPC	ZHHZ	träumen	küssen	genießen	vertrauen	gütig	sonnig	töten	krank	gemein	versagen	gierig	sterben	1	acq_USunple_CSunple1_RW	acq4567_RW	5	28	400	0	300	300	483	46	0	1	1	blank2r.bmp	0	1	+	0	1	blank2r.bmp	492	1	JQQJ	492	1	blank2r.bmp	572	1	töten	866	1	!	1239	1	!	-1	0	0	0	0	0	0	0	0	0	0	0	0	0	0	0	0	0	0	0	0	0	0	0	0	0	0	0	0	0	0
081419	14:23:34	14:32:58	561936	5.0.10.0	5_exp_RW	101	Rpleas_acq	CS_A	LWWL	DXXD	JQQJ	YFFY	CPPC	ZHHZ	träumen	küssen	genießen	vertrauen	gütig	sonnig	töten	krank	gemein	versagen	gierig	sterben	1	acq_USpleas_CSpleas1_RW	acq4567_RW	5	29	400	0	300	300	513	50	0	1	1	blank2r.bmp	0	1	+	0	1	blank2r.bmp	492	1	LWWL	492	1	blank2r.bmp	572	3	genießen	866	1	!	1239	1	!	-1	0	0	0	0	0	0	0	0	0	0	0	0	0	0	0	0	0	0	0	0	0	0	0	0	0	0	0	0	0	0
081419	14:23:34	14:33:01	564201	5.0.10.0	5_exp_RW	101	Rpleas_acq	CS_A	LWWL	DXXD	JQQJ	YFFY	CPPC	ZHHZ	träumen	küssen	genießen	vertrauen	gütig	sonnig	töten	krank	gemein	versagen	gierig	sterben	1	acq_USpleas_CSpleas2_RW	acq4567_RW	5	30	400	1	300	300	454	50	0	1	1	blank2r.bmp	0	1	+	0	1	blank2r.bmp	492	1	DXXD	492	1	blank2r.bmp	572	2	gütig	866	1	!	1239	1	!	1359	0	0	0	0	0	0	0	0	0	0	0	0	0	0	0	0	0	0	0	0	0	0	0	0	0	0	0	0	0	0
081419	14:23:34	14:33:03	566454	5.0.10.0	5_exp_RW	101	Rpleas_acq	CS_A	LWWL	DXXD	JQQJ	YFFY	CPPC	ZHHZ	träumen	küssen	genießen	vertrauen	gütig	sonnig	töten	krank	gemein	versagen	gierig	sterben	1	acq_USpleas_CSpleas1_RW	acq4567_RW	5	31	400	0	300	300	479	50	0	1	1	blank2r.bmp	0	1	+	0	1	blank2r.bmp	492	1	LWWL	492	1	blank2r.bmp	572	2	küssen	866	1	!	1239	1	!	-1	0	0	0	0	0	0	0	0	0	0	0	0	0	0	0	0	0	0	0	0	0	0	0	0	0	0	0	0	0	0
081419	14:23:34	14:33:05	568719	5.0.10.0	5_exp_RW	101	Rpleas_acq	CS_A	LWWL	DXXD	JQQJ	YFFY	CPPC	ZHHZ	träumen	küssen	genießen	vertrauen	gütig	sonnig	töten	krank	gemein	versagen	gierig	sterben	1	acq_USunple_CSunple1_RW	acq4567_RW	5	32	400	0	300	300	479	50	0	0	1	blank2r.bmp	0	1	+	0	1	blank2r.bmp	492	1	JQQJ	492	1	blank2r.bmp	572	2	krank	866	1	!	1239	1	!	-1	0	0	0	0	0	0	0	0	0	0	0	0	0	0	0	0	0	0	0	0	0	0	0	0	0	0	0	0	0	0
081419	14:23:34	14:33:07	570972	5.0.10.0	5_exp_RW	101	Rpleas_acq	CS_A	LWWL	DXXD	JQQJ	YFFY	CPPC	ZHHZ	träumen	küssen	genießen	vertrauen	gütig	sonnig	töten	krank	gemein	versagen	gierig	sterben	1	acq_USpleas_CSpleas2_RW	acq4567_RW	5	33	400	1	300	300	449	46	0	0	1	blank2r.bmp	0	1	+	0	1	blank2r.bmp	492	1	DXXD	492	1	blank2r.bmp	572	1	vertrauen	866	1	!	1239	1	!	1346	0	0	0	0	0	0	0	0	0	0	0	0	0	0	0	0	0	0	0	0	0	0	0	0	0	0	0	0	0	0
081419	14:23:34	14:33:10	573171	5.0.10.0	5_exp_RW	101	Rpleas_acq	CS_A	LWWL	DXXD	JQQJ	YFFY	CPPC	ZHHZ	träumen	küssen	genießen	vertrauen	gütig	sonnig	töten	krank	gemein	versagen	gierig	sterben	1	acq_USunple_CSunple1_RW	acq4567_RW	5	34	400	1	300	300	409	46	0	1	1	blank2r.bmp	0	1	+	0	1	blank2r.bmp	492	1	JQQJ	492	1	blank2r.bmp	572	2	krank	866	1	!	1239	1	!	1306	0	0	0	0	0	0	0	0	0	0	0	0	0	0	0	0	0	0	0	0	0	0	0	0	0	0	0	0	0	0
081419	14:23:34	14:33:12	575423	5.0.10.0	5_exp_RW	101	Rpleas_acq	CS_A	LWWL	DXXD	JQQJ	YFFY	CPPC	ZHHZ	träumen	küssen	genießen	vertrauen	gütig	sonnig	töten	krank	gemein	versagen	gierig	sterben	1	acq_USunple_CSunple2_RW	acq4567_RW	5	35	400	1	300	300	459	46	0	1	1	blank2r.bmp	0	1	+	0	1	blank2r.bmp	492	1	YFFY	492	1	blank2r.bmp	572	3	sterben	866	1	!	1239	1	!	1359	0	0	0	0	0	0	0	0	0	0	0	0	0	0	0	0	0	0	0	0	0	0	0	0	0	0	0	0	0	0
081419	14:23:34	14:33:14	577836	5.0.10.0	5_exp_RW	101	Rpleas_acq	CS_A	LWWL	DXXD	JQQJ	YFFY	CPPC	ZHHZ	träumen	küssen	genießen	vertrauen	gütig	sonnig	töten	krank	gemein	versagen	gierig	sterben	1	acq_USpleas_CSpleas1_RW	acq4567_RW	5	36	400	0	300	300	647	50	0	1	1	blank2r.bmp	0	1	+	0	1	blank2r.bmp	492	1	LWWL	492	1	blank2r.bmp	572	1	träumen	866	1	!	1239	1	!	-1	0	0	0	0	0	0	0	0	0	0	0	0	0	0	0	0	0	0	0	0	0	0	0	0	0	0	0	0	0	0
081419	14:23:34	14:33:16	580021	5.0.10.0	5_exp_RW	101	Rpleas_acq	CS_A	LWWL	DXXD	JQQJ	YFFY	CPPC	ZHHZ	träumen	küssen	genießen	vertrauen	gütig	sonnig	töten	krank	gemein	versagen	gierig	sterben	1	acq_USunple_CSunple2_RW	acq4567_RW	5	37	400	1	300	300	385	46	0	1	1	blank2r.bmp	0	1	+	0	1	blank2r.bmp	492	1	YFFY	492	1	blank2r.bmp	572	1	versagen	866	1	!	1239	1	!	1279	0	0	0	0	0	0	0	0	0	0	0	0	0	0	0	0	0	0	0	0	0	0	0	0	0	0	0	0	0	0
081419	14:23:34	14:33:19	582287	5.0.10.0	5_exp_RW	101	Rpleas_acq	CS_A	LWWL	DXXD	JQQJ	YFFY	CPPC	ZHHZ	träumen	küssen	genießen	vertrauen	gütig	sonnig	töten	krank	gemein	versagen	gierig	sterben	1	acq_USpleas_CSpleas2_RW	acq4567_RW	5	38	400	0	300	300	502	50	0	1	1	blank2r.bmp	0	1	+	0	1	blank2r.bmp	492	1	DXXD	492	1	blank2r.bmp	572	3	sonnig	866	1	!	1239	1	!	-1	0	0	0	0	0	0	0	0	0	0	0	0	0	0	0	0	0	0	0	0	0	0	0	0	0	0	0	0	0	0
081419	14:23:34	14:33:21	584553	5.0.10.0	5_exp_RW	101	Rpleas_acq	CS_A	LWWL	DXXD	JQQJ	YFFY	CPPC	ZHHZ	träumen	küssen	genießen	vertrauen	gütig	sonnig	töten	krank	gemein	versagen	gierig	sterben	1	acq_USunple_CSunple2_RW	acq4567_RW	5	39	400	0	300	300	479	46	0	1	1	blank2r.bmp	0	1	+	0	1	blank2r.bmp	492	1	YFFY	492	1	blank2r.bmp	572	2	gierig	866	1	!	1239	1	!	-1	0	0	0	0	0	0	0	0	0	0	0	0	0	0	0	0	0	0	0	0	0	0	0	0	0	0	0	0	0	0
081419	14:23:34	14:33:23	586645	5.0.10.0	5_exp_RW	101	Rpleas_acq	CS_A	LWWL	DXXD	JQQJ	YFFY	CPPC	ZHHZ	träumen	küssen	genießen	vertrauen	gütig	sonnig	töten	krank	gemein	versagen	gierig	sterben	1	acq_USunple_CSunple2_RW	acq4567_RW	5	40	400	0	300	300	309	46	0	1	1	blank2r.bmp	0	1	+	0	1	blank2r.bmp	492	1	YFFY	492	1	blank2r.bmp	572	3	sterben	866	1	!	-1	1	!	-1	0	0	0	0	0	0	0	0	0	0	0	0	0	0	0	0	0	0	0	0	0	0	0	0	0	0	0	0	0	0
081419	14:23:34	14:33:25	588911	5.0.10.0	5_exp_RW	101	Rpleas_acq	CS_A	LWWL	DXXD	JQQJ	YFFY	CPPC	ZHHZ	träumen	küssen	genießen	vertrauen	gütig	sonnig	töten	krank	gemein	versagen	gierig	sterben	1	acq_USpleas_CSpleas2_RW	acq4567_RW	5	41	400	1	300	300	454	50	0	1	1	blank2r.bmp	0	1	+	0	1	blank2r.bmp	492	1	DXXD	492	1	blank2r.bmp	572	2	gütig	866	1	!	1239	1	!	1359	0	0	0	0	0	0	0	0	0	0	0	0	0	0	0	0	0	0	0	0	0	0	0	0	0	0	0	0	0	0
081419	14:23:34	14:33:28	591137	5.0.10.0	5_exp_RW	101	Rpleas_acq	CS_A	LWWL	DXXD	JQQJ	YFFY	CPPC	ZHHZ	träumen	küssen	genießen	vertrauen	gütig	sonnig	töten	krank	gemein	versagen	gierig	sterben	1	acq_USunple_CSunple2_RW	acq4567_RW	5	42	400	1	300	300	435	46	0	1	1	blank2r.bmp	0	1	+	0	1	blank2r.bmp	492	1	YFFY	492	1	blank2r.bmp	572	1	versagen	866	1	!	1239	1	!	1332	0	0	0	0	0	0	0	0	0	0	0	0	0	0	0	0	0	0	0	0	0	0	0	0	0	0	0	0	0	0
081419	14:23:34	14:33:30	593496	5.0.10.0	5_exp_RW	101	Rpleas_acq	CS_A	LWWL	DXXD	JQQJ	YFFY	CPPC	ZHHZ	träumen	küssen	genießen	vertrauen	gütig	sonnig	töten	krank	gemein	versagen	gierig	sterben	1	acq_USpleas_CSpleas1_RW	acq4567_RW	5	43	400	0	300	300	594	50	0	1	1	blank2r.bmp	0	1	+	0	1	blank2r.bmp	492	1	LWWL	492	1	blank2r.bmp	572	3	genießen	866	1	!	1239	1	!	-1	0	0	0	0	0	0	0	0	0	0	0	0	0	0	0	0	0	0	0	0	0	0	0	0	0	0	0	0	0	0
081419	14:23:34	14:33:32	595801	5.0.10.0	5_exp_RW	101	Rpleas_acq	CS_A	LWWL	DXXD	JQQJ	YFFY	CPPC	ZHHZ	träumen	küssen	genießen	vertrauen	gütig	sonnig	töten	krank	gemein	versagen	gierig	sterben	1	acq_USunple_CSunple2_RW	acq4567_RW	5	44	400	0	300	300	507	50	0	0	1	blank2r.bmp	0	1	+	0	1	blank2r.bmp	492	1	YFFY	492	1	blank2r.bmp	572	2	gierig	866	1	!	1239	1	!	-1	0	0	0	0	0	0	0	0	0	0	0	0	0	0	0	0	0	0	0	0	0	0	0	0	0	0	0	0	0	0
081419	14:23:34	14:33:34	598067	5.0.10.0	5_exp_RW	101	Rpleas_acq	CS_A	LWWL	DXXD	JQQJ	YFFY	CPPC	ZHHZ	träumen	küssen	genießen	vertrauen	gütig	sonnig	töten	krank	gemein	versagen	gierig	sterben	1	acq_USpleas_CSpleas2_RW	acq4567_RW	5	45	400	0	300	300	479	50	0	1	1	blank2r.bmp	0	1	+	0	1	blank2r.bmp	492	1	DXXD	492	1	blank2r.bmp	572	1	vertrauen	866	1	!	1239	1	!	-1	0	0	0	0	0	0	0	0	0	0	0	0	0	0	0	0	0	0	0	0	0	0	0	0	0	0	0	0	0	0
081419	14:23:34	14:33:37	600253	5.0.10.0	5_exp_RW	101	Rpleas_acq	CS_A	LWWL	DXXD	JQQJ	YFFY	CPPC	ZHHZ	träumen	küssen	genießen	vertrauen	gütig	sonnig	töten	krank	gemein	versagen	gierig	sterben	1	acq_USunple_CSunple1_RW	acq4567_RW	5	46	400	1	300	300	361	50	0	0	1	blank2r.bmp	0	1	+	0	1	blank2r.bmp	492	1	JQQJ	492	1	blank2r.bmp	572	3	gemein	866	1	!	1239	1	!	1266	0	0	0	0	0	0	0	0	0	0	0	0	0	0	0	0	0	0	0	0	0	0	0	0	0	0	0	0	0	0
081419	14:23:34	14:33:39	602292	5.0.10.0	5_exp_RW	101	Rpleas_acq	CS_A	LWWL	DXXD	JQQJ	YFFY	CPPC	ZHHZ	träumen	küssen	genießen	vertrauen	gütig	sonnig	töten	krank	gemein	versagen	gierig	sterben	1	acq_USpleas_CSpleas1_RW	acq4567_RW	5	47	400	0	300	300	269	50	0	1	1	blank2r.bmp	0	1	+	0	1	blank2r.bmp	492	1	LWWL	492	1	blank2r.bmp	572	2	küssen	866	1	!	-1	1	!	-1	0	0	0	0	0	0	0	0	0	0	0	0	0	0	0	0	0	0	0	0	0	0	0	0	0	0	0	0	0	0
081419	14:23:34	14:33:41	604504	5.0.10.0	5_exp_RW	101	Rpleas_acq	CS_A	LWWL	DXXD	JQQJ	YFFY	CPPC	ZHHZ	träumen	küssen	genießen	vertrauen	gütig	sonnig	töten	krank	gemein	versagen	gierig	sterben	1	acq_USpleas_CSpleas2_RW	acq4567_RW	5	48	400	1	300	300	405	50	0	1	1	blank2r.bmp	0	1	+	0	1	blank2r.bmp	492	1	DXXD	492	1	blank2r.bmp	572	2	gütig	866	1	!	1239	1	!	1306	0	0	0	0	0	0	0	0	0	0	0	0	0	0	0	0	0	0	0	0	0	0	0	0	0	0	0	0	0	0
081419	14:23:34	14:33:43	606490	5.0.10.0	5_exp_RW	101	Rpleas_acq	CS_A	LWWL	DXXD	JQQJ	YFFY	CPPC	ZHHZ	träumen	küssen	genießen	vertrauen	gütig	sonnig	töten	krank	gemein	versagen	gierig	sterben	1	acq_USunple_CSunple2_RW	acq4567_RW	5	49	400	0	300	300	216	50	0	0	1	blank2r.bmp	0	1	+	0	1	blank2r.bmp	492	1	YFFY	492	1	blank2r.bmp	572	2	gierig	866	1	!	-1	1	!	-1	0	0	0	0	0	0	0	0	0	0	0	0	0	0	0	0	0	0	0	0	0	0	0	0	0	0	0	0	0	0
081419	14:23:34	14:33:45	608516	5.0.10.0	5_exp_RW	101	Rpleas_acq	CS_A	LWWL	DXXD	JQQJ	YFFY	CPPC	ZHHZ	träumen	küssen	genießen	vertrauen	gütig	sonnig	töten	krank	gemein	versagen	gierig	sterben	1	acq_USpleas_CSpleas2_RW	acq4567_RW	5	50	400	0	300	300	226	50	0	1	1	blank2r.bmp	0	1	+	0	1	blank2r.bmp	492	1	DXXD	492	1	blank2r.bmp	572	1	vertrauen	866	1	!	-1	1	!	-1	0	0	0	0	0	0	0	0	0	0	0	0	0	0	0	0	0	0	0	0	0	0	0	0	0	0	0	0	0	0
081419	14:23:34	14:33:47	610582	5.0.10.0	5_exp_RW	101	Rpleas_acq	CS_A	LWWL	DXXD	JQQJ	YFFY	CPPC	ZHHZ	träumen	küssen	genießen	vertrauen	gütig	sonnig	töten	krank	gemein	versagen	gierig	sterben	1	acq_USunple_CSunple1_RW	acq4567_RW	5	51	400	0	300	300	288	50	0	0	1	blank2r.bmp	0	1	+	0	1	blank2r.bmp	492	1	JQQJ	492	1	blank2r.bmp	572	1	töten	866	1	!	-1	1	!	-1	0	0	0	0	0	0	0	0	0	0	0	0	0	0	0	0	0	0	0	0	0	0	0	0	0	0	0	0	0	0
081419	14:23:34	14:33:49	612847	5.0.10.0	5_exp_RW	101	Rpleas_acq	CS_A	LWWL	DXXD	JQQJ	YFFY	CPPC	ZHHZ	träumen	küssen	genießen	vertrauen	gütig	sonnig	töten	krank	gemein	versagen	gierig	sterben	1	acq_USpleas_CSpleas1_RW	acq4567_RW	5	52	400	0	300	300	480	50	0	1	1	blank2r.bmp	0	1	+	0	1	blank2r.bmp	492	1	LWWL	492	1	blank2r.bmp	572	1	träumen	866	1	!	1239	1	!	-1	0	0	0	0	0	0	0	0	0	0	0	0	0	0	0	0	0	0	0	0	0	0	0	0	0	0	0	0	0	0
081419	14:23:34	14:33:51	615086	5.0.10.0	5_exp_RW	101	Rpleas_acq	CS_A	LWWL	DXXD	JQQJ	YFFY	CPPC	ZHHZ	träumen	küssen	genießen	vertrauen	gütig	sonnig	töten	krank	gemein	versagen	gierig	sterben	1	acq_USunple_CSunple1_RW	acq4567_RW	5	53	400	1	300	300	435	50	0	0	1	blank2r.bmp	0	1	+	0	1	blank2r.bmp	492	1	JQQJ	492	1	blank2r.bmp	572	3	gemein	866	1	!	1239	1	!	1332	0	0	0	0	0	0	0	0	0	0	0	0	0	0	0	0	0	0	0	0	0	0	0	0	0	0	0	0	0	0
081419	14:23:34	14:33:54	617312	5.0.10.0	5_exp_RW	101	Rpleas_acq	CS_A	LWWL	DXXD	JQQJ	YFFY	CPPC	ZHHZ	träumen	küssen	genießen	vertrauen	gütig	sonnig	töten	krank	gemein	versagen	gierig	sterben	1	acq_USunple_CSunple2_RW	acq4567_RW	5	54	400	1	300	300	430	46	0	1	1	blank2r.bmp	0	1	+	0	1	blank2r.bmp	492	1	YFFY	492	1	blank2r.bmp	572	3	sterben	866	1	!	1239	1	!	1332	0	0	0	0	0	0	0	0	0	0	0	0	0	0	0	0	0	0	0	0	0	0	0	0	0	0	0	0	0	0
081419	14:23:34	14:33:56	619565	5.0.10.0	5_exp_RW	101	Rpleas_acq	CS_A	LWWL	DXXD	JQQJ	YFFY	CPPC	ZHHZ	träumen	küssen	genießen	vertrauen	gütig	sonnig	töten	krank	gemein	versagen	gierig	sterben	1	acq_USpleas_CSpleas1_RW	acq4567_RW	5	55	400	0	300	300	491	50	0	1	1	blank2r.bmp	0	1	+	0	1	blank2r.bmp	492	1	LWWL	492	1	blank2r.bmp	572	2	küssen	866	1	!	1239	1	!	-1	0	0	0	0	0	0	0	0	0	0	0	0	0	0	0	0	0	0	0	0	0	0	0	0	0	0	0	0	0	0
081419	14:23:34	14:33:58	621977	5.0.10.0	5_exp_RW	101	Rpleas_acq	CS_A	LWWL	DXXD	JQQJ	YFFY	CPPC	ZHHZ	träumen	küssen	genießen	vertrauen	gütig	sonnig	töten	krank	gemein	versagen	gierig	sterben	1	acq_USpleas_CSpleas1_RW	acq4567_RW	5	56	400	0	300	300	624	50	0	1	1	blank2r.bmp	0	1	+	0	1	blank2r.bmp	492	1	LWWL	492	1	blank2r.bmp	572	3	genießen	866	1	!	1239	1	!	-1	0	0	0	0	0	0	0	0	0	0	0	0	0	0	0	0	0	0	0	0	0	0	0	0	0	0	0	0	0	0
081419	14:23:34	14:34:01	624429	5.0.10.0	5_exp_RW	101	Rpleas_acq	CS_A	LWWL	DXXD	JQQJ	YFFY	CPPC	ZHHZ	träumen	küssen	genießen	vertrauen	gütig	sonnig	töten	krank	gemein	versagen	gierig	sterben	1	acq_USunple_CSunple2_RW	acq4567_RW	5	57	400	0	300	300	667	50	0	0	1	blank2r.bmp	0	1	+	0	1	blank2r.bmp	492	1	YFFY	492	1	blank2r.bmp	572	1	versagen	866	1	!	1239	1	!	-1	0	0	0	0	0	0	0	0	0	0	0	0	0	0	0	0	0	0	0	0	0	0	0	0	0	0	0	0	0	0
081419	14:23:34	14:34:03	626455	5.0.10.0	5_exp_RW	101	Rpleas_acq	CS_A	LWWL	DXXD	JQQJ	YFFY	CPPC	ZHHZ	träumen	küssen	genießen	vertrauen	gütig	sonnig	töten	krank	gemein	versagen	gierig	sterben	1	acq_USunple_CSunple1_RW	acq4567_RW	5	58	400	0	300	300	238	50	0	0	1	blank2r.bmp	0	1	+	0	1	blank2r.bmp	492	1	JQQJ	492	1	blank2r.bmp	572	1	töten	866	1	!	-1	1	!	-1	0	0	0	0	0	0	0	0	0	0	0	0	0	0	0	0	0	0	0	0	0	0	0	0	0	0	0	0	0	0
081419	14:23:34	14:34:05	628667	5.0.10.0	5_exp_RW	101	Rpleas_acq	CS_A	LWWL	DXXD	JQQJ	YFFY	CPPC	ZHHZ	träumen	küssen	genießen	vertrauen	gütig	sonnig	töten	krank	gemein	versagen	gierig	sterben	1	acq_USpleas_CSpleas2_RW	acq4567_RW	5	59	400	1	300	300	405	50	0	1	1	blank2r.bmp	0	1	+	0	1	blank2r.bmp	492	1	DXXD	492	1	blank2r.bmp	572	3	sonnig	866	1	!	1239	1	!	1306	0	0	0	0	0	0	0	0	0	0	0	0	0	0	0	0	0	0	0	0	0	0	0	0	0	0	0	0	0	0
081419	14:23:34	14:34:07	630920	5.0.10.0	5_exp_RW	101	Rpleas_acq	CS_A	LWWL	DXXD	JQQJ	YFFY	CPPC	ZHHZ	träumen	küssen	genießen	vertrauen	gütig	sonnig	töten	krank	gemein	versagen	gierig	sterben	1	acq_USunple_CSunple1_RW	acq4567_RW	5	60	400	0	300	300	481	46	0	1	1	blank2r.bmp	0	1	+	0	1	blank2r.bmp	492	1	JQQJ	492	1	blank2r.bmp	572	2	krank	866	1	!	1239	1	!	-1	0	0	0	0	0	0	0	0	0	0	0	0	0	0	0	0	0	0	0	0	0	0	0	0	0	0	0	0	0	0
081419	14:23:34	14:34:10	633119	5.0.10.0	5_exp_RW	101	Rpleas_acq	CS_A	LWWL	DXXD	JQQJ	YFFY	CPPC	ZHHZ	träumen	küssen	genießen	vertrauen	gütig	sonnig	töten	krank	gemein	versagen	gierig	sterben	1	acq_USpleas_CSpleas1_RW	acq4567_RW	5	61	400	1	300	300	378	50	0	1	1	blank2r.bmp	0	1	+	0	1	blank2r.bmp	492	1	LWWL	492	1	blank2r.bmp	572	1	träumen	866	1	!	1239	1	!	1279	0	0	0	0	0	0	0	0	0	0	0	0	0	0	0	0	0	0	0	0	0	0	0	0	0	0	0	0	0	0
081419	14:23:34	14:34:12	635371	5.0.10.0	5_exp_RW	101	Rpleas_acq	CS_A	LWWL	DXXD	JQQJ	YFFY	CPPC	ZHHZ	träumen	küssen	genießen	vertrauen	gütig	sonnig	töten	krank	gemein	versagen	gierig	sterben	1	acq_USunple_CSunple2_RW	acq4567_RW	5	62	400	1	300	300	444	46	0	1	1	blank2r.bmp	0	1	+	0	1	blank2r.bmp	492	1	YFFY	492	1	blank2r.bmp	572	3	sterben	866	1	!	1239	1	!	1346	0	0	0	0	0	0	0	0	0	0	0	0	0	0	0	0	0	0	0	0	0	0	0	0	0	0	0	0	0	0
081419	14:23:34	14:34:14	637610	5.0.10.0	5_exp_RW	101	Rpleas_acq	CS_A	LWWL	DXXD	JQQJ	YFFY	CPPC	ZHHZ	träumen	küssen	genießen	vertrauen	gütig	sonnig	töten	krank	gemein	versagen	gierig	sterben	1	acq_USpleas_CSpleas2_RW	acq4567_RW	5	63	400	1	300	300	439	50	0	1	1	blank2r.bmp	0	1	+	0	1	blank2r.bmp	492	1	DXXD	492	1	blank2r.bmp	572	3	sonnig	866	1	!	1239	1	!	1346	0	0	0	0	0	0	0	0	0	0	0	0	0	0	0	0	0	0	0	0	0	0	0	0	0	0	0	0	0	0
081419	14:23:34	14:34:16	639876	5.0.10.0	5_exp_RW	101	Rpleas_acq	CS_A	LWWL	DXXD	JQQJ	YFFY	CPPC	ZHHZ	träumen	küssen	genießen	vertrauen	gütig	sonnig	töten	krank	gemein	versagen	gierig	sterben	1	acq_USpleas_CSpleas2_RW	acq4567_RW	5	64	400	0	300	300	490	50	0	1	1	blank2r.bmp	0	1	+	0	1	blank2r.bmp	492	1	DXXD	492	1	blank2r.bmp	572	1	vertrauen	866	1	!	1239	1	!	-1	0	0	0	0	0	0	0	0	0	0	0	0	0	0	0	0	0	0	0	0	0	0	0	0	0	0	0	0	0	0
081419	14:23:34	14:34:19	642155	5.0.10.0	5_exp_RW	101	Rpleas_acq	CS_A	LWWL	DXXD	JQQJ	YFFY	CPPC	ZHHZ	träumen	küssen	genießen	vertrauen	gütig	sonnig	töten	krank	gemein	versagen	gierig	sterben	1	acq_USunple_CSunple2_RW	acq4567_RW	5	65	400	0	300	300	485	46	0	1	1	blank2r.bmp	0	1	+	0	1	blank2r.bmp	492	1	YFFY	492	1	blank2r.bmp	572	2	gierig	866	1	!	1239	1	!	-1	0	0	0	0	0	0	0	0	0	0	0	0	0	0	0	0	0	0	0	0	0	0	0	0	0	0	0	0	0	0
081419	14:23:34	14:34:21	644234	5.0.10.0	5_exp_RW	101	Rpleas_acq	CS_A	LWWL	DXXD	JQQJ	YFFY	CPPC	ZHHZ	träumen	küssen	genießen	vertrauen	gütig	sonnig	töten	krank	gemein	versagen	gierig	sterben	1	acq_USpleas_CSpleas2_RW	acq4567_RW	5	66	400	0	300	300	303	46	0	0	1	blank2r.bmp	0	1	+	0	1	blank2r.bmp	492	1	DXXD	492	1	blank2r.bmp	572	2	gütig	866	1	!	-1	1	!	-1	0	0	0	0	0	0	0	0	0	0	0	0	0	0	0	0	0	0	0	0	0	0	0	0	0	0	0	0	0	0
081419	14:23:34	14:34:23	646300	5.0.10.0	5_exp_RW	101	Rpleas_acq	CS_A	LWWL	DXXD	JQQJ	YFFY	CPPC	ZHHZ	träumen	küssen	genießen	vertrauen	gütig	sonnig	töten	krank	gemein	versagen	gierig	sterben	1	acq_USpleas_CSpleas1_RW	acq4567_RW	5	67	400	0	300	300	286	50	0	1	1	blank2r.bmp	0	1	+	0	1	blank2r.bmp	492	1	LWWL	492	1	blank2r.bmp	572	2	küssen	866	1	!	-1	1	!	-1	0	0	0	0	0	0	0	0	0	0	0	0	0	0	0	0	0	0	0	0	0	0	0	0	0	0	0	0	0	0
081419	14:23:34	14:34:25	648566	5.0.10.0	5_exp_RW	101	Rpleas_acq	CS_A	LWWL	DXXD	JQQJ	YFFY	CPPC	ZHHZ	träumen	küssen	genießen	vertrauen	gütig	sonnig	töten	krank	gemein	versagen	gierig	sterben	1	acq_USunple_CSunple2_RW	acq4567_RW	5	68	400	1	300	300	463	46	0	1	1	blank2r.bmp	0	1	+	0	1	blank2r.bmp	492	1	YFFY	492	1	blank2r.bmp	572	1	versagen	866	1	!	1239	1	!	1359	0	0	0	0	0	0	0	0	0	0	0	0	0	0	0	0	0	0	0	0	0	0	0	0	0	0	0	0	0	0
081419	14:23:34	14:34:27	650818	5.0.10.0	5_exp_RW	101	Rpleas_acq	CS_A	LWWL	DXXD	JQQJ	YFFY	CPPC	ZHHZ	träumen	küssen	genießen	vertrauen	gütig	sonnig	töten	krank	gemein	versagen	gierig	sterben	1	acq_USpleas_CSpleas1_RW	acq4567_RW	5	69	400	0	300	300	491	50	0	1	1	blank2r.bmp	0	1	+	0	1	blank2r.bmp	492	1	LWWL	492	1	blank2r.bmp	572	3	genießen	866	1	!	1239	1	!	-1	0	0	0	0	0	0	0	0	0	0	0	0	0	0	0	0	0	0	0	0	0	0	0	0	0	0	0	0	0	0
081419	14:23:34	14:34:30	653417	5.0.10.0	5_exp_RW	101	Rpleas_acq	CS_A	LWWL	DXXD	JQQJ	YFFY	CPPC	ZHHZ	träumen	küssen	genießen	vertrauen	gütig	sonnig	töten	krank	gemein	versagen	gierig	sterben	1	acq_USunple_CSunple1_RW	acq4567_RW	5	70	400	0	300	300	817	50	0	0	1	blank2r.bmp	0	1	+	0	1	blank2r.bmp	492	1	JQQJ	492	1	blank2r.bmp	572	1	töten	866	1	!	1239	1	!	-1	0	0	0	0	0	0	0	0	0	0	0	0	0	0	0	0	0	0	0	0	0	0	0	0	0	0	0	0	0	0
081419	14:23:34	14:34:32	655270	5.0.10.0	5_exp_RW	101	Rpleas_acq	CS_A	LWWL	DXXD	JQQJ	YFFY	CPPC	ZHHZ	träumen	küssen	genießen	vertrauen	gütig	sonnig	töten	krank	gemein	versagen	gierig	sterben	1	acq_USunple_CSunple1_RW	acq4567_RW	5	71	400	0	300	300	60	46	0	1	1	blank2r.bmp	0	1	+	0	1	blank2r.bmp	492	1	JQQJ	492	1	blank2r.bmp	572	2	krank	866	1	!	-1	1	!	-1	0	0	0	0	0	0	0	0	0	0	0	0	0	0	0	0	0	0	0	0	0	0	0	0	0	0	0	0	0	0
081419	14:23:34	14:34:34	657429	5.0.10.0	5_exp_RW	101	Rpleas_acq	CS_A	LWWL	DXXD	JQQJ	YFFY	CPPC	ZHHZ	träumen	küssen	genießen	vertrauen	gütig	sonnig	töten	krank	gemein	versagen	gierig	sterben	1	acq_USpleas_CSpleas2_RW	acq4567_RW	5	72	400	1	300	300	346	50	0	1	1	blank2r.bmp	0	1	+	0	1	blank2r.bmp	492	1	DXXD	492	1	blank2r.bmp	572	1	vertrauen	866	1	!	1239	1	!	1252	0	0	0	0	0	0	0	0	0	0	0	0	0	0	0	0	0	0	0	0	0	0	0	0	0	0	0	0	0	0
081419	14:23:34	14:34:36	659974	5.0.10.0	5_exp_RW	101	Rpleas_acq	CS_A	LWWL	DXXD	JQQJ	YFFY	CPPC	ZHHZ	träumen	küssen	genießen	vertrauen	gütig	sonnig	töten	krank	gemein	versagen	gierig	sterben	1	acq_USunple_CSunple1_RW	acq4567_RW	5	73	400	0	300	300	780	46	0	1	1	blank2r.bmp	0	1	+	0	1	blank2r.bmp	492	1	JQQJ	492	1	blank2r.bmp	572	3	gemein	866	1	!	1239	1	!	-1	0	0	0	0	0	0	0	0	0	0	0	0	0	0	0	0	0	0	0	0	0	0	0	0	0	0	0	0	0	0
081419	14:23:34	14:34:39	662386	5.0.10.0	5_exp_RW	101	Rpleas_acq	CS_A	LWWL	DXXD	JQQJ	YFFY	CPPC	ZHHZ	träumen	küssen	genießen	vertrauen	gütig	sonnig	töten	krank	gemein	versagen	gierig	sterben	1	acq_USpleas_CSpleas1_RW	acq4567_RW	5	74	400	0	300	300	633	50	0	1	1	blank2r.bmp	0	1	+	0	1	blank2r.bmp	492	1	LWWL	492	1	blank2r.bmp	572	1	träumen	866	1	!	1239	1	!	-1	0	0	0	0	0	0	0	0	0	0	0	0	0	0	0	0	0	0	0	0	0	0	0	0	0	0	0	0	0	0
081419	14:23:34	14:34:41	664746	5.0.10.0	5_exp_RW	101	Rpleas_acq	CS_A	LWWL	DXXD	JQQJ	YFFY	CPPC	ZHHZ	träumen	küssen	genießen	vertrauen	gütig	sonnig	töten	krank	gemein	versagen	gierig	sterben	1	acq_USunple_CSunple2_RW	acq4567_RW	5	75	400	0	300	300	561	46	0	1	1	blank2r.bmp	0	1	+	0	1	blank2r.bmp	492	1	YFFY	492	1	blank2r.bmp	572	1	versagen	866	1	!	1239	1	!	-1	0	0	0	0	0	0	0	0	0	0	0	0	0	0	0	0	0	0	0	0	0	0	0	0	0	0	0	0	0	0
081419	14:23:34	14:34:43	666905	5.0.10.0	5_exp_RW	101	Rpleas_acq	CS_A	LWWL	DXXD	JQQJ	YFFY	CPPC	ZHHZ	träumen	küssen	genießen	vertrauen	gütig	sonnig	töten	krank	gemein	versagen	gierig	sterben	1	acq_USunple_CSunple2_RW	acq4567_RW	5	76	400	1	300	300	355	50	0	0	1	blank2r.bmp	0	1	+	0	1	blank2r.bmp	492	1	YFFY	492	1	blank2r.bmp	572	2	gierig	866	1	!	1239	1	!	1252	0	0	0	0	0	0	0	0	0	0	0	0	0	0	0	0	0	0	0	0	0	0	0	0	0	0	0	0	0	0
081419	14:23:34	14:34:46	669157	5.0.10.0	5_exp_RW	101	Rpleas_acq	CS_A	LWWL	DXXD	JQQJ	YFFY	CPPC	ZHHZ	träumen	küssen	genießen	vertrauen	gütig	sonnig	töten	krank	gemein	versagen	gierig	sterben	1	acq_USpleas_CSpleas2_RW	acq4567_RW	5	77	400	1	300	300	460	50	0	1	1	blank2r.bmp	0	1	+	0	1	blank2r.bmp	492	1	DXXD	492	1	blank2r.bmp	572	2	gütig	866	1	!	1239	1	!	1359	0	0	0	0	0	0	0	0	0	0	0	0	0	0	0	0	0	0	0	0	0	0	0	0	0	0	0	0	0	0
081419	14:23:34	14:34:48	671436	5.0.10.0	5_exp_RW	101	Rpleas_acq	CS_A	LWWL	DXXD	JQQJ	YFFY	CPPC	ZHHZ	träumen	küssen	genießen	vertrauen	gütig	sonnig	töten	krank	gemein	versagen	gierig	sterben	1	acq_USpleas_CSpleas1_RW	acq4567_RW	5	78	400	0	300	300	508	50	0	1	1	blank2r.bmp	0	1	+	0	1	blank2r.bmp	492	1	LWWL	492	1	blank2r.bmp	572	3	genießen	866	1	!	1239	1	!	-1	0	0	0	0	0	0	0	0	0	0	0	0	0	0	0	0	0	0	0	0	0	0	0	0	0	0	0	0	0	0
081419	14:23:34	14:34:50	673515	5.0.10.0	5_exp_RW	101	Rpleas_acq	CS_A	LWWL	DXXD	JQQJ	YFFY	CPPC	ZHHZ	träumen	küssen	genießen	vertrauen	gütig	sonnig	töten	krank	gemein	versagen	gierig	sterben	1	acq_USunple_CSunple1_RW	acq4567_RW	5	79	400	0	300	300	302	50	0	0	1	blank2r.bmp	0	1	+	0	1	blank2r.bmp	492	1	JQQJ	492	1	blank2r.bmp	572	2	krank	866	1	!	-1	1	!	-1	0	0	0	0	0	0	0	0	0	0	0	0	0	0	0	0	0	0	0	0	0	0	0	0	0	0	0	0	0	0
081419	14:23:34	14:34:52	675594	5.0.10.0	5_exp_RW	101	Rpleas_acq	CS_A	LWWL	DXXD	JQQJ	YFFY	CPPC	ZHHZ	träumen	küssen	genießen	vertrauen	gütig	sonnig	töten	krank	gemein	versagen	gierig	sterben	1	acq_USunple_CSunple1_RW	acq4567_RW	5	80	400	0	300	300	293	46	0	1	1	blank2r.bmp	0	1	+	0	1	blank2r.bmp	492	1	JQQJ	492	1	blank2r.bmp	572	1	töten	866	1	!	-1	1	!	-1	0	0	0	0	0	0	0	0	0	0	0	0	0	0	0	0	0	0	0	0	0	0	0	0	0	0	0	0	0	0
081419	14:23:34	14:35:23	706435	5.0.10.0	5_exp_RW	101	Rpleas_acq	CS_A	LWWL	DXXD	JQQJ	YFFY	CPPC	ZHHZ	träumen	küssen	genießen	vertrauen	gütig	sonnig	töten	krank	gemein	versagen	gierig	sterben	1	acq_USpleas_CSpleas1_RW	acq4567_RW	6	1	400	0	300	300	1002	50	0	1	1	blank2r.bmp	0	1	+	0	1	blank2r.bmp	492	1	LWWL	492	1	blank2r.bmp	572	2	küssen	866	1	!	1239	1	!	-1	0	0	0	0	0	0	0	0	0	0	0	0	0	0	0	0	0	0	0	0	0	0	0	0	0	0	0	0	0	0
081419	14:23:34	14:35:25	708647	5.0.10.0	5_exp_RW	101	Rpleas_acq	CS_A	LWWL	DXXD	JQQJ	YFFY	CPPC	ZHHZ	träumen	küssen	genießen	vertrauen	gütig	sonnig	töten	krank	gemein	versagen	gierig	sterben	1	acq_USpleas_CSpleas2_RW	acq4567_RW	6	2	400	1	300	300	399	50	0	1	1	blank2r.bmp	0	1	+	0	1	blank2r.bmp	492	1	DXXD	492	1	blank2r.bmp	572	3	sonnig	866	1	!	1239	1	!	1306	0	0	0	0	0	0	0	0	0	0	0	0	0	0	0	0	0	0	0	0	0	0	0	0	0	0	0	0	0	0
081419	14:23:34	14:35:27	711033	5.0.10.0	5_exp_RW	101	Rpleas_acq	CS_A	LWWL	DXXD	JQQJ	YFFY	CPPC	ZHHZ	träumen	küssen	genießen	vertrauen	gütig	sonnig	töten	krank	gemein	versagen	gierig	sterben	1	acq_USunple_CSunple1_RW	acq4567_RW	6	3	400	0	300	300	613	46	0	1	1	blank2r.bmp	0	1	+	0	1	blank2r.bmp	492	1	JQQJ	492	1	blank2r.bmp	572	3	gemein	866	1	!	1239	1	!	-1	0	0	0	0	0	0	0	0	0	0	0	0	0	0	0	0	0	0	0	0	0	0	0	0	0	0	0	0	0	0
081419	14:23:34	14:35:30	713378	5.0.10.0	5_exp_RW	101	Rpleas_acq	CS_A	LWWL	DXXD	JQQJ	YFFY	CPPC	ZHHZ	träumen	küssen	genießen	vertrauen	gütig	sonnig	töten	krank	gemein	versagen	gierig	sterben	1	acq_USpleas_CSpleas2_RW	acq4567_RW	6	4	400	0	300	300	564	50	0	1	1	blank2r.bmp	0	1	+	0	1	blank2r.bmp	492	1	DXXD	492	1	blank2r.bmp	572	3	sonnig	866	1	!	1239	1	!	-1	0	0	0	0	0	0	0	0	0	0	0	0	0	0	0	0	0	0	0	0	0	0	0	0	0	0	0	0	0	0
081419	14:23:34	14:35:32	715764	5.0.10.0	5_exp_RW	101	Rpleas_acq	CS_A	LWWL	DXXD	JQQJ	YFFY	CPPC	ZHHZ	träumen	küssen	genießen	vertrauen	gütig	sonnig	töten	krank	gemein	versagen	gierig	sterben	1	acq_USunple_CSunple2_RW	acq4567_RW	6	5	400	0	300	300	610	50	0	0	1	blank2r.bmp	0	1	+	0	1	blank2r.bmp	492	1	YFFY	492	1	blank2r.bmp	572	3	sterben	866	1	!	1239	1	!	-1	0	0	0	0	0	0	0	0	0	0	0	0	0	0	0	0	0	0	0	0	0	0	0	0	0	0	0	0	0	0
081419	14:23:34	14:35:34	718070	5.0.10.0	5_exp_RW	101	Rpleas_acq	CS_A	LWWL	DXXD	JQQJ	YFFY	CPPC	ZHHZ	träumen	küssen	genießen	vertrauen	gütig	sonnig	töten	krank	gemein	versagen	gierig	sterben	1	acq_USpleas_CSpleas2_RW	acq4567_RW	6	6	400	0	300	300	521	46	0	0	1	blank2r.bmp	0	1	+	0	1	blank2r.bmp	492	1	DXXD	492	1	blank2r.bmp	572	1	vertrauen	866	1	!	1239	1	!	-1	0	0	0	0	0	0	0	0	0	0	0	0	0	0	0	0	0	0	0	0	0	0	0	0	0	0	0	0	0	0
081419	14:23:34	14:35:37	720309	5.0.10.0	5_exp_RW	101	Rpleas_acq	CS_A	LWWL	DXXD	JQQJ	YFFY	CPPC	ZHHZ	träumen	küssen	genießen	vertrauen	gütig	sonnig	töten	krank	gemein	versagen	gierig	sterben	1	acq_USunple_CSunple1_RW	acq4567_RW	6	7	400	1	300	300	427	50	0	0	1	blank2r.bmp	0	1	+	0	1	blank2r.bmp	492	1	JQQJ	492	1	blank2r.bmp	572	3	gemein	866	1	!	1239	1	!	1332	0	0	0	0	0	0	0	0	0	0	0	0	0	0	0	0	0	0	0	0	0	0	0	0	0	0	0	0	0	0
081419	14:23:34	14:35:39	722348	5.0.10.0	5_exp_RW	101	Rpleas_acq	CS_A	LWWL	DXXD	JQQJ	YFFY	CPPC	ZHHZ	träumen	küssen	genießen	vertrauen	gütig	sonnig	töten	krank	gemein	versagen	gierig	sterben	1	acq_USpleas_CSpleas1_RW	acq4567_RW	6	8	400	0	300	300	278	46	0	0	1	blank2r.bmp	0	1	+	0	1	blank2r.bmp	492	1	LWWL	492	1	blank2r.bmp	572	2	küssen	866	1	!	-1	1	!	-1	0	0	0	0	0	0	0	0	0	0	0	0	0	0	0	0	0	0	0	0	0	0	0	0	0	0	0	0	0	0
081419	14:23:34	14:35:41	724387	5.0.10.0	5_exp_RW	101	Rpleas_acq	CS_A	LWWL	DXXD	JQQJ	YFFY	CPPC	ZHHZ	träumen	küssen	genießen	vertrauen	gütig	sonnig	töten	krank	gemein	versagen	gierig	sterben	1	acq_USunple_CSunple1_RW	acq4567_RW	6	9	400	0	300	300	264	50	0	0	1	blank2r.bmp	0	1	+	0	1	blank2r.bmp	492	1	JQQJ	492	1	blank2r.bmp	572	1	töten	866	1	!	-1	1	!	-1	0	0	0	0	0	0	0	0	0	0	0	0	0	0	0	0	0	0	0	0	0	0	0	0	0	0	0	0	0	0
081419	14:23:34	14:35:43	726786	5.0.10.0	5_exp_RW	101	Rpleas_acq	CS_A	LWWL	DXXD	JQQJ	YFFY	CPPC	ZHHZ	träumen	küssen	genießen	vertrauen	gütig	sonnig	töten	krank	gemein	versagen	gierig	sterben	1	acq_USpleas_CSpleas2_RW	acq4567_RW	6	10	400	0	300	300	620	50	0	1	1	blank2r.bmp	0	1	+	0	1	blank2r.bmp	492	1	DXXD	492	1	blank2r.bmp	572	2	gütig	866	1	!	1239	1	!	-1	0	0	0	0	0	0	0	0	0	0	0	0	0	0	0	0	0	0	0	0	0	0	0	0	0	0	0	0	0	0
081419	14:23:34	14:35:45	729052	5.0.10.0	5_exp_RW	101	Rpleas_acq	CS_A	LWWL	DXXD	JQQJ	YFFY	CPPC	ZHHZ	träumen	küssen	genießen	vertrauen	gütig	sonnig	töten	krank	gemein	versagen	gierig	sterben	1	acq_USpleas_CSpleas1_RW	acq4567_RW	6	11	400	0	300	300	488	50	0	1	1	blank2r.bmp	0	1	+	0	1	blank2r.bmp	492	1	LWWL	492	1	blank2r.bmp	572	1	träumen	866	1	!	1239	1	!	-1	0	0	0	0	0	0	0	0	0	0	0	0	0	0	0	0	0	0	0	0	0	0	0	0	0	0	0	0	0	0
081419	14:23:34	14:35:48	731211	5.0.10.0	5_exp_RW	101	Rpleas_acq	CS_A	LWWL	DXXD	JQQJ	YFFY	CPPC	ZHHZ	träumen	küssen	genießen	vertrauen	gütig	sonnig	töten	krank	gemein	versagen	gierig	sterben	1	acq_USunple_CSunple1_RW	acq4567_RW	6	12	400	1	300	300	346	50	0	0	1	blank2r.bmp	0	1	+	0	1	blank2r.bmp	492	1	JQQJ	492	1	blank2r.bmp	572	2	krank	866	1	!	1239	1	!	1252	0	0	0	0	0	0	0	0	0	0	0	0	0	0	0	0	0	0	0	0	0	0	0	0	0	0	0	0	0	0
