date	time	script.currenttime	script.elapsedtime	build	script.currentexpt	subject	expressions.LRpleas_acq	expressions.conditionCS_A	expressions.CSpleas_1	expressions.CSpleas_2	expressions.CSunple_1	expressions.CSunple_2	expressions.distractor_1	expressions.distractor_2	expressions.US_pleas1	expressions.US_pleas2	expressions.US_pleas3	expressions.US_pleas4	expressions.US_pleas5	expressions.US_pleas6	expressions.US_unple1	expressions.US_unple2	expressions.US_unple3	expressions.US_unple4	expressions.US_unple5	expressions.US_unple6	counter.positions_noRW	trialcode	blockcode	blocknum	trialnum	windowcenter	inwindow	pretrialpause	posttrialpause	latency	response	expressions.correctedscore	correct	stimulusnumber1	stimulusitem1	stimulusonset1	stimulusnumber2	stimulusitem2	stimulusonset2	stimulusnumber3	stimulusitem3	stimulusonset3	stimulusnumber4	stimulusitem4	stimulusonset4	stimulusnumber5	stimulusitem5	stimulusonset5	stimulusnumber6	stimulusitem6	stimulusonset6	stimulusnumber7	stimulusitem7	stimulusonset7	stimulusnumber8	stimulusitem8	stimulusonset8	stimulusnumber9	stimulusitem9	stimulusonset9	stimulusnumber10	stimulusitem10	stimulusonset10	stimulusnumber11	stimulusitem11	stimulusonset11	stimulusnumber12	stimulusitem12	stimulusonset12	stimulusnumber13	stimulusitem13	stimulusonset13	stimulusnumber14	stimulusitem14	stimulusonset14	stimulusnumber15	stimulusitem15	stimulusonset15	stimulusnumber16	stimulusitem16	stimulusonset16	stimulusnumber17	stimulusitem17	stimulusonset17	stimulusnumber18	stimulusitem18	stimulusonset18
071019	12:24:38	12:25:40	59267	5.0.10.0	5_exp_RW	39	Rpleas_acq	CS_B	VKKV	BZZB	MQQM	JXXJ	YDDY	GWWG	retten	schön	spielen	fair	treu	ehrlich	rächen	schlecht	strafen	faul	tot	eitel	1	acq_USunple_CSunple1_RW	acq1_RW	1	1	0	0	300	300	1536	50	0	0	1	blank2r.bmp	0	1	+	0	1	blank2r.bmp	492	1	MQQM	492	1	blank2r.bmp	572	2	schlecht	866	1	FEHLER	2438	0	0	0	0	0	0	0	0	0	0	0	0	0	0	0	0	0	0	0	0	0	0	0	0	0	0	0	0	0	0	0	0	0
071019	12:24:38	12:25:42	61506	5.0.10.0	5_exp_RW	39	Rpleas_acq	CS_B	VKKV	BZZB	MQQM	JXXJ	YDDY	GWWG	retten	schön	spielen	fair	treu	ehrlich	rächen	schlecht	strafen	faul	tot	eitel	1	acq_USunple_CSunple1_RW	acq1_RW	1	2	0	0	300	300	962	46	0	1	1	blank2r.bmp	0	1	+	0	1	blank2r.bmp	492	1	MQQM	492	1	blank2r.bmp	572	1	rächen	866	0	0	0	0	0	0	0	0	0	0	0	0	0	0	0	0	0	0	0	0	0	0	0	0	0	0	0	0	0	0	0	0	0	0	0	0
071019	12:24:38	12:25:44	63732	5.0.10.0	5_exp_RW	39	Rpleas_acq	CS_B	VKKV	BZZB	MQQM	JXXJ	YDDY	GWWG	retten	schön	spielen	fair	treu	ehrlich	rächen	schlecht	strafen	faul	tot	eitel	1	acq_USpleas_CSpleas1_RW	acq1_RW	1	3	0	0	300	300	752	50	0	1	1	blank2r.bmp	0	1	+	0	1	blank2r.bmp	492	1	VKKV	492	1	blank2r.bmp	572	1	retten	866	0	0	0	0	0	0	0	0	0	0	0	0	0	0	0	0	0	0	0	0	0	0	0	0	0	0	0	0	0	0	0	0	0	0	0	0
071019	12:24:38	12:25:46	66011	5.0.10.0	5_exp_RW	39	Rpleas_acq	CS_B	VKKV	BZZB	MQQM	JXXJ	YDDY	GWWG	retten	schön	spielen	fair	treu	ehrlich	rächen	schlecht	strafen	faul	tot	eitel	1	acq_USpleas_CSpleas1_RW	acq1_RW	1	4	0	0	300	300	585	46	0	0	1	blank2r.bmp	0	1	+	0	1	blank2r.bmp	492	1	VKKV	492	1	blank2r.bmp	572	3	spielen	866	1	FEHLER	1492	0	0	0	0	0	0	0	0	0	0	0	0	0	0	0	0	0	0	0	0	0	0	0	0	0	0	0	0	0	0	0	0	0
071019	12:24:38	12:25:49	68330	5.0.10.0	5_exp_RW	39	Rpleas_acq	CS_B	VKKV	BZZB	MQQM	JXXJ	YDDY	GWWG	retten	schön	spielen	fair	treu	ehrlich	rächen	schlecht	strafen	faul	tot	eitel	1	acq_USpleas_CSpleas1_RW	acq1_RW	1	5	0	0	300	300	1052	50	0	1	1	blank2r.bmp	0	1	+	0	1	blank2r.bmp	492	1	VKKV	492	1	blank2r.bmp	572	2	schön	866	0	0	0	0	0	0	0	0	0	0	0	0	0	0	0	0	0	0	0	0	0	0	0	0	0	0	0	0	0	0	0	0	0	0	0	0
071019	12:24:38	12:25:51	70396	5.0.10.0	5_exp_RW	39	Rpleas_acq	CS_B	VKKV	BZZB	MQQM	JXXJ	YDDY	GWWG	retten	schön	spielen	fair	treu	ehrlich	rächen	schlecht	strafen	faul	tot	eitel	1	acq_USpleas_CSpleas2_RW	acq1_RW	1	6	0	0	300	300	580	50	0	1	1	blank2r.bmp	0	1	+	0	1	blank2r.bmp	492	1	BZZB	492	1	blank2r.bmp	572	2	treu	866	0	0	0	0	0	0	0	0	0	0	0	0	0	0	0	0	0	0	0	0	0	0	0	0	0	0	0	0	0	0	0	0	0	0	0	0
071019	12:24:38	12:25:53	72449	5.0.10.0	5_exp_RW	39	Rpleas_acq	CS_B	VKKV	BZZB	MQQM	JXXJ	YDDY	GWWG	retten	schön	spielen	fair	treu	ehrlich	rächen	schlecht	strafen	faul	tot	eitel	1	acq_USunple_CSunple2_RW	acq1_RW	1	7	0	0	300	300	569	46	0	1	1	blank2r.bmp	0	1	+	0	1	blank2r.bmp	492	1	JXXJ	492	1	blank2r.bmp	572	2	tot	866	0	0	0	0	0	0	0	0	0	0	0	0	0	0	0	0	0	0	0	0	0	0	0	0	0	0	0	0	0	0	0	0	0	0	0	0
071019	12:24:38	12:25:55	74528	5.0.10.0	5_exp_RW	39	Rpleas_acq	CS_B	VKKV	BZZB	MQQM	JXXJ	YDDY	GWWG	retten	schön	spielen	fair	treu	ehrlich	rächen	schlecht	strafen	faul	tot	eitel	1	acq_USpleas_CSpleas2_RW	acq1_RW	1	8	0	0	300	300	588	50	0	1	1	blank2r.bmp	0	1	+	0	1	blank2r.bmp	492	1	BZZB	492	1	blank2r.bmp	572	1	fair	866	0	0	0	0	0	0	0	0	0	0	0	0	0	0	0	0	0	0	0	0	0	0	0	0	0	0	0	0	0	0	0	0	0	0	0	0
071019	12:24:38	12:25:58	77340	5.0.10.0	5_exp_RW	39	Rpleas_acq	CS_B	VKKV	BZZB	MQQM	JXXJ	YDDY	GWWG	retten	schön	spielen	fair	treu	ehrlich	rächen	schlecht	strafen	faul	tot	eitel	1	acq_USunple_CSunple2_RW	acq1_RW	1	9	0	0	300	300	1339	46	0	1	1	blank2r.bmp	0	1	+	0	1	blank2r.bmp	492	1	JXXJ	492	1	blank2r.bmp	572	3	eitel	866	0	0	0	0	0	0	0	0	0	0	0	0	0	0	0	0	0	0	0	0	0	0	0	0	0	0	0	0	0	0	0	0	0	0	0	0
071019	12:24:38	12:26:00	79486	5.0.10.0	5_exp_RW	39	Rpleas_acq	CS_B	VKKV	BZZB	MQQM	JXXJ	YDDY	GWWG	retten	schön	spielen	fair	treu	ehrlich	rächen	schlecht	strafen	faul	tot	eitel	1	acq_USpleas_CSpleas2_RW	acq1_RW	1	10	0	0	300	300	658	50	0	1	1	blank2r.bmp	0	1	+	0	1	blank2r.bmp	492	1	BZZB	492	1	blank2r.bmp	572	3	ehrlich	866	0	0	0	0	0	0	0	0	0	0	0	0	0	0	0	0	0	0	0	0	0	0	0	0	0	0	0	0	0	0	0	0	0	0	0	0
071019	12:24:38	12:26:02	81645	5.0.10.0	5_exp_RW	39	Rpleas_acq	CS_B	VKKV	BZZB	MQQM	JXXJ	YDDY	GWWG	retten	schön	spielen	fair	treu	ehrlich	rächen	schlecht	strafen	faul	tot	eitel	1	acq_USunple_CSunple1_RW	acq1_RW	1	11	0	0	300	300	681	46	0	1	1	blank2r.bmp	0	1	+	0	1	blank2r.bmp	492	1	MQQM	492	1	blank2r.bmp	572	3	strafen	866	0	0	0	0	0	0	0	0	0	0	0	0	0	0	0	0	0	0	0	0	0	0	0	0	0	0	0	0	0	0	0	0	0	0	0	0
071019	12:24:38	12:26:04	83830	5.0.10.0	5_exp_RW	39	Rpleas_acq	CS_B	VKKV	BZZB	MQQM	JXXJ	YDDY	GWWG	retten	schön	spielen	fair	treu	ehrlich	rächen	schlecht	strafen	faul	tot	eitel	1	acq_USpleas_CSpleas2_RW	acq1_RW	1	12	0	0	300	300	709	50	0	1	1	blank2r.bmp	0	1	+	0	1	blank2r.bmp	492	1	BZZB	492	1	blank2r.bmp	572	3	ehrlich	866	0	0	0	0	0	0	0	0	0	0	0	0	0	0	0	0	0	0	0	0	0	0	0	0	0	0	0	0	0	0	0	0	0	0	0	0
071019	12:24:38	12:26:06	85856	5.0.10.0	5_exp_RW	39	Rpleas_acq	CS_B	VKKV	BZZB	MQQM	JXXJ	YDDY	GWWG	retten	schön	spielen	fair	treu	ehrlich	rächen	schlecht	strafen	faul	tot	eitel	1	acq_USunple_CSunple2_RW	acq1_RW	1	13	0	0	300	300	539	46	0	1	1	blank2r.bmp	0	1	+	0	1	blank2r.bmp	492	1	JXXJ	492	1	blank2r.bmp	572	1	faul	866	0	0	0	0	0	0	0	0	0	0	0	0	0	0	0	0	0	0	0	0	0	0	0	0	0	0	0	0	0	0	0	0	0	0	0	0
071019	12:24:38	12:26:08	87975	5.0.10.0	5_exp_RW	39	Rpleas_acq	CS_B	VKKV	BZZB	MQQM	JXXJ	YDDY	GWWG	retten	schön	spielen	fair	treu	ehrlich	rächen	schlecht	strafen	faul	tot	eitel	1	acq_USunple_CSunple1_RW	acq1_RW	1	14	0	0	300	300	634	46	0	1	1	blank2r.bmp	0	1	+	0	1	blank2r.bmp	492	1	MQQM	492	1	blank2r.bmp	572	3	strafen	866	0	0	0	0	0	0	0	0	0	0	0	0	0	0	0	0	0	0	0	0	0	0	0	0	0	0	0	0	0	0	0	0	0	0	0	0
071019	12:24:38	12:26:10	89894	5.0.10.0	5_exp_RW	39	Rpleas_acq	CS_B	VKKV	BZZB	MQQM	JXXJ	YDDY	GWWG	retten	schön	spielen	fair	treu	ehrlich	rächen	schlecht	strafen	faul	tot	eitel	1	acq_USunple_CSunple2_RW	acq1_RW	1	15	0	0	300	300	447	46	0	1	1	blank2r.bmp	0	1	+	0	1	blank2r.bmp	492	1	JXXJ	492	1	blank2r.bmp	572	2	tot	866	0	0	0	0	0	0	0	0	0	0	0	0	0	0	0	0	0	0	0	0	0	0	0	0	0	0	0	0	0	0	0	0	0	0	0	0
071019	12:24:38	12:26:13	92280	5.0.10.0	5_exp_RW	39	Rpleas_acq	CS_B	VKKV	BZZB	MQQM	JXXJ	YDDY	GWWG	retten	schön	spielen	fair	treu	ehrlich	rächen	schlecht	strafen	faul	tot	eitel	1	acq_USpleas_CSpleas1_RW	acq1_RW	1	16	0	0	300	300	911	50	0	1	1	blank2r.bmp	0	1	+	0	1	blank2r.bmp	492	1	VKKV	492	1	blank2r.bmp	572	2	schön	866	0	0	0	0	0	0	0	0	0	0	0	0	0	0	0	0	0	0	0	0	0	0	0	0	0	0	0	0	0	0	0	0	0	0	0	0
071019	12:24:38	12:26:51	130277	5.0.10.0	5_exp_RW	39	Rpleas_acq	CS_B	VKKV	BZZB	MQQM	JXXJ	YDDY	GWWG	retten	schön	spielen	fair	treu	ehrlich	rächen	schlecht	strafen	faul	tot	eitel	1	acq_USunple_CSunple2_RW	acq2_RW	2	1	480	0	300	300	8668	46	0	1	1	blank2r.bmp	0	1	+	0	1	blank2r.bmp	492	1	JXXJ	492	1	blank2r.bmp	572	1	faul	866	1	!	1319	1	!	-1	0	0	0	0	0	0	0	0	0	0	0	0	0	0	0	0	0	0	0	0	0	0	0	0	0	0	0	0	0	0
071019	12:24:38	12:26:54	133276	5.0.10.0	5_exp_RW	39	Rpleas_acq	CS_B	VKKV	BZZB	MQQM	JXXJ	YDDY	GWWG	retten	schön	spielen	fair	treu	ehrlich	rächen	schlecht	strafen	faul	tot	eitel	1	acq_USunple_CSunple1_RW	acq2_RW	2	2	480	0	300	300	1211	46	0	1	1	blank2r.bmp	0	1	+	0	1	blank2r.bmp	492	1	MQQM	492	1	blank2r.bmp	572	1	rächen	866	1	!	1319	1	!	-1	0	0	0	0	0	0	0	0	0	0	0	0	0	0	0	0	0	0	0	0	0	0	0	0	0	0	0	0	0	0
071019	12:24:38	12:26:56	135475	5.0.10.0	5_exp_RW	39	Rpleas_acq	CS_B	VKKV	BZZB	MQQM	JXXJ	YDDY	GWWG	retten	schön	spielen	fair	treu	ehrlich	rächen	schlecht	strafen	faul	tot	eitel	1	acq_USpleas_CSpleas1_RW	acq2_RW	2	3	480	0	300	300	190	46	0	0	1	blank2r.bmp	0	1	+	0	1	blank2r.bmp	492	1	VKKV	492	1	blank2r.bmp	572	3	spielen	866	1	FEHLER	1399	1	!	-1	1	!	-1	0	0	0	0	0	0	0	0	0	0	0	0	0	0	0	0	0	0	0	0	0	0	0	0	0	0	0
071019	12:24:38	12:26:58	137821	5.0.10.0	5_exp_RW	39	Rpleas_acq	CS_B	VKKV	BZZB	MQQM	JXXJ	YDDY	GWWG	retten	schön	spielen	fair	treu	ehrlich	rächen	schlecht	strafen	faul	tot	eitel	1	acq_USpleas_CSpleas2_RW	acq2_RW	2	4	480	0	300	300	568	46	0	0	1	blank2r.bmp	0	1	+	0	1	blank2r.bmp	492	1	BZZB	492	1	blank2r.bmp	572	1	fair	866	1	FEHLER	1772	1	!	1319	1	!	-1	0	0	0	0	0	0	0	0	0	0	0	0	0	0	0	0	0	0	0	0	0	0	0	0	0	0	0
071019	12:24:38	12:27:01	140206	5.0.10.0	5_exp_RW	39	Rpleas_acq	CS_B	VKKV	BZZB	MQQM	JXXJ	YDDY	GWWG	retten	schön	spielen	fair	treu	ehrlich	rächen	schlecht	strafen	faul	tot	eitel	1	acq_USpleas_CSpleas1_RW	acq2_RW	2	5	480	0	300	300	602	46	0	0	1	blank2r.bmp	0	1	+	0	1	blank2r.bmp	492	1	VKKV	492	1	blank2r.bmp	572	1	retten	866	1	FEHLER	1812	1	!	1319	1	!	-1	0	0	0	0	0	0	0	0	0	0	0	0	0	0	0	0	0	0	0	0	0	0	0	0	0	0	0
071019	12:24:38	12:27:03	142699	5.0.10.0	5_exp_RW	39	Rpleas_acq	CS_B	VKKV	BZZB	MQQM	JXXJ	YDDY	GWWG	retten	schön	spielen	fair	treu	ehrlich	rächen	schlecht	strafen	faul	tot	eitel	1	acq_USpleas_CSpleas1_RW	acq2_RW	2	6	480	0	300	300	701	46	0	0	1	blank2r.bmp	0	1	+	0	1	blank2r.bmp	492	1	VKKV	492	1	blank2r.bmp	572	1	retten	866	1	FEHLER	1905	1	!	1319	1	!	-1	0	0	0	0	0	0	0	0	0	0	0	0	0	0	0	0	0	0	0	0	0	0	0	0	0	0	0
071019	12:24:38	12:27:05	145031	5.0.10.0	5_exp_RW	39	Rpleas_acq	CS_B	VKKV	BZZB	MQQM	JXXJ	YDDY	GWWG	retten	schön	spielen	fair	treu	ehrlich	rächen	schlecht	strafen	faul	tot	eitel	1	acq_USunple_CSunple1_RW	acq2_RW	2	7	480	1	300	300	532	50	0	0	1	blank2r.bmp	0	1	+	0	1	blank2r.bmp	492	1	MQQM	492	1	blank2r.bmp	572	2	schlecht	866	1	FEHLER	1759	1	!	1319	1	!	1439	0	0	0	0	0	0	0	0	0	0	0	0	0	0	0	0	0	0	0	0	0	0	0	0	0	0	0
071019	12:24:38	12:27:09	149123	5.0.10.0	5_exp_RW	39	Rpleas_acq	CS_B	VKKV	BZZB	MQQM	JXXJ	YDDY	GWWG	retten	schön	spielen	fair	treu	ehrlich	rächen	schlecht	strafen	faul	tot	eitel	1	acq_USunple_CSunple1_RW	acq2_RW	2	8	480	0	300	300	2541	46	0	1	1	blank2r.bmp	0	1	+	0	1	blank2r.bmp	492	1	MQQM	492	1	blank2r.bmp	572	1	rächen	866	1	!	1319	1	!	-1	0	0	0	0	0	0	0	0	0	0	0	0	0	0	0	0	0	0	0	0	0	0	0	0	0	0	0	0	0	0
071019	12:24:38	12:27:12	151655	5.0.10.0	5_exp_RW	39	Rpleas_acq	CS_B	VKKV	BZZB	MQQM	JXXJ	YDDY	GWWG	retten	schön	spielen	fair	treu	ehrlich	rächen	schlecht	strafen	faul	tot	eitel	1	acq_USunple_CSunple2_RW	acq2_RW	2	9	480	0	300	300	735	46	0	1	1	blank2r.bmp	0	1	+	0	1	blank2r.bmp	492	1	JXXJ	492	1	blank2r.bmp	572	3	eitel	866	1	!	1319	1	!	-1	0	0	0	0	0	0	0	0	0	0	0	0	0	0	0	0	0	0	0	0	0	0	0	0	0	0	0	0	0	0
071019	12:24:38	12:27:14	153787	5.0.10.0	5_exp_RW	39	Rpleas_acq	CS_B	VKKV	BZZB	MQQM	JXXJ	YDDY	GWWG	retten	schön	spielen	fair	treu	ehrlich	rächen	schlecht	strafen	faul	tot	eitel	1	acq_USunple_CSunple2_RW	acq2_RW	2	10	480	0	300	300	347	46	0	1	1	blank2r.bmp	0	1	+	0	1	blank2r.bmp	492	1	JXXJ	492	1	blank2r.bmp	572	2	tot	866	1	!	-1	1	!	-1	0	0	0	0	0	0	0	0	0	0	0	0	0	0	0	0	0	0	0	0	0	0	0	0	0	0	0	0	0	0
071019	12:24:38	12:27:18	157652	5.0.10.0	5_exp_RW	39	Rpleas_acq	CS_B	VKKV	BZZB	MQQM	JXXJ	YDDY	GWWG	retten	schön	spielen	fair	treu	ehrlich	rächen	schlecht	strafen	faul	tot	eitel	1	acq_USunple_CSunple1_RW	acq2_RW	2	11	480	0	300	300	2064	46	0	1	1	blank2r.bmp	0	1	+	0	1	blank2r.bmp	492	1	MQQM	492	1	blank2r.bmp	572	2	schlecht	866	1	!	1319	1	!	-1	0	0	0	0	0	0	0	0	0	0	0	0	0	0	0	0	0	0	0	0	0	0	0	0	0	0	0	0	0	0
071019	12:24:38	12:27:20	159918	5.0.10.0	5_exp_RW	39	Rpleas_acq	CS_B	VKKV	BZZB	MQQM	JXXJ	YDDY	GWWG	retten	schön	spielen	fair	treu	ehrlich	rächen	schlecht	strafen	faul	tot	eitel	1	acq_USunple_CSunple1_RW	acq2_RW	2	12	480	1	300	300	462	46	0	1	1	blank2r.bmp	0	1	+	0	1	blank2r.bmp	492	1	MQQM	492	1	blank2r.bmp	572	3	strafen	866	1	!	1319	1	!	1359	0	0	0	0	0	0	0	0	0	0	0	0	0	0	0	0	0	0	0	0	0	0	0	0	0	0	0	0	0	0
071019	12:24:38	12:27:23	162450	5.0.10.0	5_exp_RW	39	Rpleas_acq	CS_B	VKKV	BZZB	MQQM	JXXJ	YDDY	GWWG	retten	schön	spielen	fair	treu	ehrlich	rächen	schlecht	strafen	faul	tot	eitel	1	acq_USpleas_CSpleas1_RW	acq2_RW	2	13	480	1	300	300	528	46	0	0	1	blank2r.bmp	0	1	+	0	1	blank2r.bmp	492	1	VKKV	492	1	blank2r.bmp	572	3	spielen	866	1	FEHLER	1745	1	!	1319	1	!	1426	0	0	0	0	0	0	0	0	0	0	0	0	0	0	0	0	0	0	0	0	0	0	0	0	0	0	0
071019	12:24:38	12:27:29	168914	5.0.10.0	5_exp_RW	39	Rpleas_acq	CS_B	VKKV	BZZB	MQQM	JXXJ	YDDY	GWWG	retten	schön	spielen	fair	treu	ehrlich	rächen	schlecht	strafen	faul	tot	eitel	1	acq_USpleas_CSpleas2_RW	acq2_RW	2	14	480	0	300	300	4678	46	0	0	1	blank2r.bmp	0	1	+	0	1	blank2r.bmp	492	1	BZZB	492	1	blank2r.bmp	572	2	treu	866	1	FEHLER	5890	1	!	1319	1	!	-1	0	0	0	0	0	0	0	0	0	0	0	0	0	0	0	0	0	0	0	0	0	0	0	0	0	0	0
071019	12:24:38	12:27:31	171073	5.0.10.0	5_exp_RW	39	Rpleas_acq	CS_B	VKKV	BZZB	MQQM	JXXJ	YDDY	GWWG	retten	schön	spielen	fair	treu	ehrlich	rächen	schlecht	strafen	faul	tot	eitel	1	acq_USunple_CSunple2_RW	acq2_RW	2	15	480	0	300	300	603	46	0	1	1	blank2r.bmp	0	1	+	0	1	blank2r.bmp	492	1	JXXJ	492	1	blank2r.bmp	572	3	eitel	866	1	!	1319	1	!	-1	0	0	0	0	0	0	0	0	0	0	0	0	0	0	0	0	0	0	0	0	0	0	0	0	0	0	0	0	0	0
071019	12:24:38	12:27:34	173326	5.0.10.0	5_exp_RW	39	Rpleas_acq	CS_B	VKKV	BZZB	MQQM	JXXJ	YDDY	GWWG	retten	schön	spielen	fair	treu	ehrlich	rächen	schlecht	strafen	faul	tot	eitel	1	acq_USpleas_CSpleas1_RW	acq2_RW	2	16	480	1	300	300	430	50	0	1	1	blank2r.bmp	0	1	+	0	1	blank2r.bmp	492	1	VKKV	492	1	blank2r.bmp	572	2	schön	866	1	!	1319	1	!	1332	0	0	0	0	0	0	0	0	0	0	0	0	0	0	0	0	0	0	0	0	0	0	0	0	0	0	0	0	0	0
071019	12:24:38	12:27:36	175472	5.0.10.0	5_exp_RW	39	Rpleas_acq	CS_B	VKKV	BZZB	MQQM	JXXJ	YDDY	GWWG	retten	schön	spielen	fair	treu	ehrlich	rächen	schlecht	strafen	faul	tot	eitel	1	acq_USunple_CSunple1_RW	acq2_RW	2	17	480	0	300	300	380	46	0	1	1	blank2r.bmp	0	1	+	0	1	blank2r.bmp	492	1	MQQM	492	1	blank2r.bmp	572	2	schlecht	866	1	!	-1	1	!	-1	0	0	0	0	0	0	0	0	0	0	0	0	0	0	0	0	0	0	0	0	0	0	0	0	0	0	0	0	0	0
071019	12:24:38	12:27:38	177764	5.0.10.0	5_exp_RW	39	Rpleas_acq	CS_B	VKKV	BZZB	MQQM	JXXJ	YDDY	GWWG	retten	schön	spielen	fair	treu	ehrlich	rächen	schlecht	strafen	faul	tot	eitel	1	acq_USpleas_CSpleas2_RW	acq2_RW	2	18	480	1	300	300	478	50	0	1	1	blank2r.bmp	0	1	+	0	1	blank2r.bmp	492	1	BZZB	492	1	blank2r.bmp	572	3	ehrlich	866	1	!	1319	1	!	1372	0	0	0	0	0	0	0	0	0	0	0	0	0	0	0	0	0	0	0	0	0	0	0	0	0	0	0	0	0	0
071019	12:24:38	12:27:40	180030	5.0.10.0	5_exp_RW	39	Rpleas_acq	CS_B	VKKV	BZZB	MQQM	JXXJ	YDDY	GWWG	retten	schön	spielen	fair	treu	ehrlich	rächen	schlecht	strafen	faul	tot	eitel	1	acq_USpleas_CSpleas2_RW	acq2_RW	2	19	480	0	300	300	253	46	0	0	1	blank2r.bmp	0	1	+	0	1	blank2r.bmp	492	1	BZZB	492	1	blank2r.bmp	572	1	fair	866	1	FEHLER	1466	1	!	-1	1	!	-1	0	0	0	0	0	0	0	0	0	0	0	0	0	0	0	0	0	0	0	0	0	0	0	0	0	0	0
071019	12:24:38	12:27:42	182095	5.0.10.0	5_exp_RW	39	Rpleas_acq	CS_B	VKKV	BZZB	MQQM	JXXJ	YDDY	GWWG	retten	schön	spielen	fair	treu	ehrlich	rächen	schlecht	strafen	faul	tot	eitel	1	acq_USpleas_CSpleas2_RW	acq2_RW	2	20	480	1	300	300	490	50	0	1	1	blank2r.bmp	0	1	+	0	1	blank2r.bmp	492	1	BZZB	492	1	blank2r.bmp	572	2	treu	866	1	!	1319	1	!	1386	0	0	0	0	0	0	0	0	0	0	0	0	0	0	0	0	0	0	0	0	0	0	0	0	0	0	0	0	0	0
071019	12:24:38	12:27:45	184334	5.0.10.0	5_exp_RW	39	Rpleas_acq	CS_B	VKKV	BZZB	MQQM	JXXJ	YDDY	GWWG	retten	schön	spielen	fair	treu	ehrlich	rächen	schlecht	strafen	faul	tot	eitel	1	acq_USunple_CSunple2_RW	acq2_RW	2	21	480	1	300	300	446	46	0	1	1	blank2r.bmp	0	1	+	0	1	blank2r.bmp	492	1	JXXJ	492	1	blank2r.bmp	572	1	faul	866	1	!	1319	1	!	1346	0	0	0	0	0	0	0	0	0	0	0	0	0	0	0	0	0	0	0	0	0	0	0	0	0	0	0	0	0	0
071019	12:24:38	12:27:47	186507	5.0.10.0	5_exp_RW	39	Rpleas_acq	CS_B	VKKV	BZZB	MQQM	JXXJ	YDDY	GWWG	retten	schön	spielen	fair	treu	ehrlich	rächen	schlecht	strafen	faul	tot	eitel	1	acq_USunple_CSunple2_RW	acq2_RW	2	22	480	0	300	300	403	46	0	1	1	blank2r.bmp	0	1	+	0	1	blank2r.bmp	492	1	JXXJ	492	1	blank2r.bmp	572	2	tot	866	1	!	-1	1	!	-1	0	0	0	0	0	0	0	0	0	0	0	0	0	0	0	0	0	0	0	0	0	0	0	0	0	0	0	0	0	0
071019	12:24:38	12:27:50	189439	5.0.10.0	5_exp_RW	39	Rpleas_acq	CS_B	VKKV	BZZB	MQQM	JXXJ	YDDY	GWWG	retten	schön	spielen	fair	treu	ehrlich	rächen	schlecht	strafen	faul	tot	eitel	1	acq_USpleas_CSpleas1_RW	acq2_RW	2	23	480	0	300	300	1146	50	0	1	1	blank2r.bmp	0	1	+	0	1	blank2r.bmp	492	1	VKKV	492	1	blank2r.bmp	572	3	spielen	866	1	!	1319	1	!	-1	0	0	0	0	0	0	0	0	0	0	0	0	0	0	0	0	0	0	0	0	0	0	0	0	0	0	0	0	0	0
071019	12:24:38	12:27:52	191731	5.0.10.0	5_exp_RW	39	Rpleas_acq	CS_B	VKKV	BZZB	MQQM	JXXJ	YDDY	GWWG	retten	schön	spielen	fair	treu	ehrlich	rächen	schlecht	strafen	faul	tot	eitel	1	acq_USpleas_CSpleas2_RW	acq2_RW	2	24	480	1	300	300	491	50	0	1	1	blank2r.bmp	0	1	+	0	1	blank2r.bmp	492	1	BZZB	492	1	blank2r.bmp	572	2	treu	866	1	!	1319	1	!	1386	0	0	0	0	0	0	0	0	0	0	0	0	0	0	0	0	0	0	0	0	0	0	0	0	0	0	0	0	0	0
071019	12:24:38	12:28:10	210030	5.0.10.0	5_exp_RW	39	Rpleas_acq	CS_B	VKKV	BZZB	MQQM	JXXJ	YDDY	GWWG	retten	schön	spielen	fair	treu	ehrlich	rächen	schlecht	strafen	faul	tot	eitel	1	acq_USunple_CSunple2_RW	acq3_RW	3	1	453	0	300	300	965	46	0	1	1	blank2r.bmp	0	1	+	0	1	blank2r.bmp	492	1	JXXJ	492	1	blank2r.bmp	572	1	faul	866	1	!	1292	1	!	-1	0	0	0	0	0	0	0	0	0	0	0	0	0	0	0	0	0	0	0	0	0	0	0	0	0	0	0	0	0	0
071019	12:24:38	12:28:13	212243	5.0.10.0	5_exp_RW	39	Rpleas_acq	CS_B	VKKV	BZZB	MQQM	JXXJ	YDDY	GWWG	retten	schön	spielen	fair	treu	ehrlich	rächen	schlecht	strafen	faul	tot	eitel	1	acq_USpleas_CSpleas1_RW	acq3_RW	3	2	453	1	300	300	402	50	0	1	1	blank2r.bmp	0	1	+	0	1	blank2r.bmp	492	1	VKKV	492	1	blank2r.bmp	572	2	schön	866	1	!	1292	1	!	1306	0	0	0	0	0	0	0	0	0	0	0	0	0	0	0	0	0	0	0	0	0	0	0	0	0	0	0	0	0	0
071019	12:24:38	12:28:15	214442	5.0.10.0	5_exp_RW	39	Rpleas_acq	CS_B	VKKV	BZZB	MQQM	JXXJ	YDDY	GWWG	retten	schön	spielen	fair	treu	ehrlich	rächen	schlecht	strafen	faul	tot	eitel	1	acq_USunple_CSunple2_RW	acq3_RW	3	3	453	1	300	300	409	46	0	1	1	blank2r.bmp	0	1	+	0	1	blank2r.bmp	492	1	JXXJ	492	1	blank2r.bmp	572	3	eitel	866	1	!	1292	1	!	1306	0	0	0	0	0	0	0	0	0	0	0	0	0	0	0	0	0	0	0	0	0	0	0	0	0	0	0	0	0	0
071019	12:24:38	12:28:17	216641	5.0.10.0	5_exp_RW	39	Rpleas_acq	CS_B	VKKV	BZZB	MQQM	JXXJ	YDDY	GWWG	retten	schön	spielen	fair	treu	ehrlich	rächen	schlecht	strafen	faul	tot	eitel	1	acq_USpleas_CSpleas2_RW	acq3_RW	3	4	453	1	300	300	410	50	0	1	1	blank2r.bmp	0	1	+	0	1	blank2r.bmp	492	1	BZZB	492	1	blank2r.bmp	572	1	fair	866	1	!	1292	1	!	1306	0	0	0	0	0	0	0	0	0	0	0	0	0	0	0	0	0	0	0	0	0	0	0	0	0	0	0	0	0	0
071019	12:24:38	12:28:19	218640	5.0.10.0	5_exp_RW	39	Rpleas_acq	CS_B	VKKV	BZZB	MQQM	JXXJ	YDDY	GWWG	retten	schön	spielen	fair	treu	ehrlich	rächen	schlecht	strafen	faul	tot	eitel	1	acq_USunple_CSunple1_RW	acq3_RW	3	5	453	0	300	300	233	46	0	1	1	blank2r.bmp	0	1	+	0	1	blank2r.bmp	492	1	MQQM	492	1	blank2r.bmp	572	3	strafen	866	1	!	-1	1	!	-1	0	0	0	0	0	0	0	0	0	0	0	0	0	0	0	0	0	0	0	0	0	0	0	0	0	0	0	0	0	0
071019	12:24:38	12:28:21	220786	5.0.10.0	5_exp_RW	39	Rpleas_acq	CS_B	VKKV	BZZB	MQQM	JXXJ	YDDY	GWWG	retten	schön	spielen	fair	treu	ehrlich	rächen	schlecht	strafen	faul	tot	eitel	1	acq_USunple_CSunple2_RW	acq3_RW	3	6	453	0	300	300	370	46	0	1	1	blank2r.bmp	0	1	+	0	1	blank2r.bmp	492	1	JXXJ	492	1	blank2r.bmp	572	2	tot	866	1	!	-1	1	!	-1	0	0	0	0	0	0	0	0	0	0	0	0	0	0	0	0	0	0	0	0	0	0	0	0	0	0	0	0	0	0
071019	12:24:38	12:28:23	223091	5.0.10.0	5_exp_RW	39	Rpleas_acq	CS_B	VKKV	BZZB	MQQM	JXXJ	YDDY	GWWG	retten	schön	spielen	fair	treu	ehrlich	rächen	schlecht	strafen	faul	tot	eitel	1	acq_USunple_CSunple1_RW	acq3_RW	3	7	453	1	300	300	493	46	0	1	1	blank2r.bmp	0	1	+	0	1	blank2r.bmp	492	1	MQQM	492	1	blank2r.bmp	572	1	rächen	866	1	!	1292	1	!	1399	0	0	0	0	0	0	0	0	0	0	0	0	0	0	0	0	0	0	0	0	0	0	0	0	0	0	0	0	0	0
071019	12:24:38	12:28:26	225437	5.0.10.0	5_exp_RW	39	Rpleas_acq	CS_B	VKKV	BZZB	MQQM	JXXJ	YDDY	GWWG	retten	schön	spielen	fair	treu	ehrlich	rächen	schlecht	strafen	faul	tot	eitel	1	acq_USpleas_CSpleas1_RW	acq3_RW	3	8	453	0	300	300	348	46	0	0	1	blank2r.bmp	0	1	+	0	1	blank2r.bmp	492	1	VKKV	492	1	blank2r.bmp	572	1	retten	866	1	FEHLER	1559	1	!	-1	1	!	-1	0	0	0	0	0	0	0	0	0	0	0	0	0	0	0	0	0	0	0	0	0	0	0	0	0	0	0
071019	12:24:38	12:28:28	227583	5.0.10.0	5_exp_RW	39	Rpleas_acq	CS_B	VKKV	BZZB	MQQM	JXXJ	YDDY	GWWG	retten	schön	spielen	fair	treu	ehrlich	rächen	schlecht	strafen	faul	tot	eitel	1	acq_USunple_CSunple2_RW	acq3_RW	3	9	453	0	300	300	592	46	0	1	1	blank2r.bmp	0	1	+	0	1	blank2r.bmp	492	1	JXXJ	492	1	blank2r.bmp	572	3	eitel	866	1	!	1292	1	!	-1	0	0	0	0	0	0	0	0	0	0	0	0	0	0	0	0	0	0	0	0	0	0	0	0	0	0	0	0	0	0
071019	12:24:38	12:28:30	229942	5.0.10.0	5_exp_RW	39	Rpleas_acq	CS_B	VKKV	BZZB	MQQM	JXXJ	YDDY	GWWG	retten	schön	spielen	fair	treu	ehrlich	rächen	schlecht	strafen	faul	tot	eitel	1	acq_USpleas_CSpleas2_RW	acq3_RW	3	10	453	0	300	300	583	50	0	1	1	blank2r.bmp	0	1	+	0	1	blank2r.bmp	492	1	BZZB	492	1	blank2r.bmp	572	3	ehrlich	866	1	!	1292	1	!	-1	0	0	0	0	0	0	0	0	0	0	0	0	0	0	0	0	0	0	0	0	0	0	0	0	0	0	0	0	0	0
071019	12:24:38	12:28:32	232101	5.0.10.0	5_exp_RW	39	Rpleas_acq	CS_B	VKKV	BZZB	MQQM	JXXJ	YDDY	GWWG	retten	schön	spielen	fair	treu	ehrlich	rächen	schlecht	strafen	faul	tot	eitel	1	acq_USpleas_CSpleas2_RW	acq3_RW	3	11	453	0	300	300	379	50	0	1	1	blank2r.bmp	0	1	+	0	1	blank2r.bmp	492	1	BZZB	492	1	blank2r.bmp	572	1	fair	866	1	!	-1	1	!	-1	0	0	0	0	0	0	0	0	0	0	0	0	0	0	0	0	0	0	0	0	0	0	0	0	0	0	0	0	0	0
071019	12:24:38	12:28:35	234713	5.0.10.0	5_exp_RW	39	Rpleas_acq	CS_B	VKKV	BZZB	MQQM	JXXJ	YDDY	GWWG	retten	schön	spielen	fair	treu	ehrlich	rächen	schlecht	strafen	faul	tot	eitel	1	acq_USunple_CSunple1_RW	acq3_RW	3	12	453	0	300	300	803	46	0	1	1	blank2r.bmp	0	1	+	0	1	blank2r.bmp	492	1	MQQM	492	1	blank2r.bmp	572	1	rächen	866	1	!	1292	1	!	-1	0	0	0	0	0	0	0	0	0	0	0	0	0	0	0	0	0	0	0	0	0	0	0	0	0	0	0	0	0	0
071019	12:24:38	12:28:37	237045	5.0.10.0	5_exp_RW	39	Rpleas_acq	CS_B	VKKV	BZZB	MQQM	JXXJ	YDDY	GWWG	retten	schön	spielen	fair	treu	ehrlich	rächen	schlecht	strafen	faul	tot	eitel	1	acq_USpleas_CSpleas2_RW	acq3_RW	3	13	453	0	300	300	561	50	0	1	1	blank2r.bmp	0	1	+	0	1	blank2r.bmp	492	1	BZZB	492	1	blank2r.bmp	572	2	treu	866	1	!	1292	1	!	-1	0	0	0	0	0	0	0	0	0	0	0	0	0	0	0	0	0	0	0	0	0	0	0	0	0	0	0	0	0	0
071019	12:24:38	12:28:39	239005	5.0.10.0	5_exp_RW	39	Rpleas_acq	CS_B	VKKV	BZZB	MQQM	JXXJ	YDDY	GWWG	retten	schön	spielen	fair	treu	ehrlich	rächen	schlecht	strafen	faul	tot	eitel	1	acq_USunple_CSunple1_RW	acq3_RW	3	14	453	0	300	300	170	46	0	1	1	blank2r.bmp	0	1	+	0	1	blank2r.bmp	492	1	MQQM	492	1	blank2r.bmp	572	2	schlecht	866	1	!	-1	1	!	-1	0	0	0	0	0	0	0	0	0	0	0	0	0	0	0	0	0	0	0	0	0	0	0	0	0	0	0	0	0	0
071019	12:24:38	12:28:42	241204	5.0.10.0	5_exp_RW	39	Rpleas_acq	CS_B	VKKV	BZZB	MQQM	JXXJ	YDDY	GWWG	retten	schön	spielen	fair	treu	ehrlich	rächen	schlecht	strafen	faul	tot	eitel	1	acq_USunple_CSunple1_RW	acq3_RW	3	15	453	0	300	300	197	50	0	0	1	blank2r.bmp	0	1	+	0	1	blank2r.bmp	492	1	MQQM	492	1	blank2r.bmp	572	3	strafen	866	1	FEHLER	1399	1	!	-1	1	!	-1	0	0	0	0	0	0	0	0	0	0	0	0	0	0	0	0	0	0	0	0	0	0	0	0	0	0	0
071019	12:24:38	12:28:44	243243	5.0.10.0	5_exp_RW	39	Rpleas_acq	CS_B	VKKV	BZZB	MQQM	JXXJ	YDDY	GWWG	retten	schön	spielen	fair	treu	ehrlich	rächen	schlecht	strafen	faul	tot	eitel	1	acq_USpleas_CSpleas1_RW	acq3_RW	3	16	453	0	300	300	255	46	0	0	1	blank2r.bmp	0	1	+	0	1	blank2r.bmp	492	1	VKKV	492	1	blank2r.bmp	572	1	retten	866	1	FEHLER	1466	1	!	-1	1	!	-1	0	0	0	0	0	0	0	0	0	0	0	0	0	0	0	0	0	0	0	0	0	0	0	0	0	0	0
071019	12:24:38	12:28:46	245349	5.0.10.0	5_exp_RW	39	Rpleas_acq	CS_B	VKKV	BZZB	MQQM	JXXJ	YDDY	GWWG	retten	schön	spielen	fair	treu	ehrlich	rächen	schlecht	strafen	faul	tot	eitel	1	acq_USpleas_CSpleas2_RW	acq3_RW	3	17	453	0	300	300	555	50	0	1	1	blank2r.bmp	0	1	+	0	1	blank2r.bmp	492	1	BZZB	492	1	blank2r.bmp	572	3	ehrlich	866	1	!	1292	1	!	-1	0	0	0	0	0	0	0	0	0	0	0	0	0	0	0	0	0	0	0	0	0	0	0	0	0	0	0	0	0	0
071019	12:24:38	12:28:48	247561	5.0.10.0	5_exp_RW	39	Rpleas_acq	CS_B	VKKV	BZZB	MQQM	JXXJ	YDDY	GWWG	retten	schön	spielen	fair	treu	ehrlich	rächen	schlecht	strafen	faul	tot	eitel	1	acq_USunple_CSunple1_RW	acq3_RW	3	18	453	1	300	300	411	46	0	1	1	blank2r.bmp	0	1	+	0	1	blank2r.bmp	492	1	MQQM	492	1	blank2r.bmp	572	2	schlecht	866	1	!	1292	1	!	1306	0	0	0	0	0	0	0	0	0	0	0	0	0	0	0	0	0	0	0	0	0	0	0	0	0	0	0	0	0	0
071019	12:24:38	12:28:50	249667	5.0.10.0	5_exp_RW	39	Rpleas_acq	CS_B	VKKV	BZZB	MQQM	JXXJ	YDDY	GWWG	retten	schön	spielen	fair	treu	ehrlich	rächen	schlecht	strafen	faul	tot	eitel	1	acq_USpleas_CSpleas1_RW	acq3_RW	3	19	453	0	300	300	333	50	0	1	1	blank2r.bmp	0	1	+	0	1	blank2r.bmp	492	1	VKKV	492	1	blank2r.bmp	572	3	spielen	866	1	!	-1	1	!	-1	0	0	0	0	0	0	0	0	0	0	0	0	0	0	0	0	0	0	0	0	0	0	0	0	0	0	0	0	0	0
071019	12:24:38	12:28:52	251879	5.0.10.0	5_exp_RW	39	Rpleas_acq	CS_B	VKKV	BZZB	MQQM	JXXJ	YDDY	GWWG	retten	schön	spielen	fair	treu	ehrlich	rächen	schlecht	strafen	faul	tot	eitel	1	acq_USpleas_CSpleas2_RW	acq3_RW	3	20	453	1	300	300	407	50	0	1	1	blank2r.bmp	0	1	+	0	1	blank2r.bmp	492	1	BZZB	492	1	blank2r.bmp	572	1	fair	866	1	!	1292	1	!	1306	0	0	0	0	0	0	0	0	0	0	0	0	0	0	0	0	0	0	0	0	0	0	0	0	0	0	0	0	0	0
071019	12:24:38	12:28:54	254012	5.0.10.0	5_exp_RW	39	Rpleas_acq	CS_B	VKKV	BZZB	MQQM	JXXJ	YDDY	GWWG	retten	schön	spielen	fair	treu	ehrlich	rächen	schlecht	strafen	faul	tot	eitel	1	acq_USunple_CSunple2_RW	acq3_RW	3	21	453	0	300	300	365	46	0	1	1	blank2r.bmp	0	1	+	0	1	blank2r.bmp	492	1	JXXJ	492	1	blank2r.bmp	572	1	faul	866	1	!	-1	1	!	-1	0	0	0	0	0	0	0	0	0	0	0	0	0	0	0	0	0	0	0	0	0	0	0	0	0	0	0	0	0	0
071019	12:24:38	12:28:57	256277	5.0.10.0	5_exp_RW	39	Rpleas_acq	CS_B	VKKV	BZZB	MQQM	JXXJ	YDDY	GWWG	retten	schön	spielen	fair	treu	ehrlich	rächen	schlecht	strafen	faul	tot	eitel	1	acq_USunple_CSunple2_RW	acq3_RW	3	22	453	1	300	300	453	46	0	1	1	blank2r.bmp	0	1	+	0	1	blank2r.bmp	492	1	JXXJ	492	1	blank2r.bmp	572	2	tot	866	1	!	1292	1	!	1359	0	0	0	0	0	0	0	0	0	0	0	0	0	0	0	0	0	0	0	0	0	0	0	0	0	0	0	0	0	0
071019	12:24:38	12:28:59	258663	5.0.10.0	5_exp_RW	39	Rpleas_acq	CS_B	VKKV	BZZB	MQQM	JXXJ	YDDY	GWWG	retten	schön	spielen	fair	treu	ehrlich	rächen	schlecht	strafen	faul	tot	eitel	1	acq_USpleas_CSpleas1_RW	acq3_RW	3	23	453	0	300	300	611	50	0	1	1	blank2r.bmp	0	1	+	0	1	blank2r.bmp	492	1	VKKV	492	1	blank2r.bmp	572	2	schön	866	1	!	1292	1	!	-1	0	0	0	0	0	0	0	0	0	0	0	0	0	0	0	0	0	0	0	0	0	0	0	0	0	0	0	0	0	0
071019	12:24:38	12:29:01	260875	5.0.10.0	5_exp_RW	39	Rpleas_acq	CS_B	VKKV	BZZB	MQQM	JXXJ	YDDY	GWWG	retten	schön	spielen	fair	treu	ehrlich	rächen	schlecht	strafen	faul	tot	eitel	1	acq_USpleas_CSpleas1_RW	acq3_RW	3	24	453	1	300	300	400	50	0	1	1	blank2r.bmp	0	1	+	0	1	blank2r.bmp	492	1	VKKV	492	1	blank2r.bmp	572	2	schön	866	1	!	1292	1	!	1306	0	0	0	0	0	0	0	0	0	0	0	0	0	0	0	0	0	0	0	0	0	0	0	0	0	0	0	0	0	0
071019	12:24:38	12:29:16	275376	5.0.10.0	5_exp_RW	39	Rpleas_acq	CS_B	VKKV	BZZB	MQQM	JXXJ	YDDY	GWWG	retten	schön	spielen	fair	treu	ehrlich	rächen	schlecht	strafen	faul	tot	eitel	1	acq_USpleas_CSpleas1_RW	acq4567_RW	4	1	400	0	300	300	488	50	0	1	1	blank2r.bmp	0	1	+	0	1	blank2r.bmp	492	1	VKKV	492	1	blank2r.bmp	572	3	spielen	866	1	!	1239	1	!	-1	0	0	0	0	0	0	0	0	0	0	0	0	0	0	0	0	0	0	0	0	0	0	0	0	0	0	0	0	0	0
071019	12:24:38	12:29:18	277642	5.0.10.0	5_exp_RW	39	Rpleas_acq	CS_B	VKKV	BZZB	MQQM	JXXJ	YDDY	GWWG	retten	schön	spielen	fair	treu	ehrlich	rächen	schlecht	strafen	faul	tot	eitel	1	acq_USunple_CSunple1_RW	acq4567_RW	4	2	400	0	300	300	479	46	0	1	1	blank2r.bmp	0	1	+	0	1	blank2r.bmp	492	1	MQQM	492	1	blank2r.bmp	572	1	rächen	866	1	!	1239	1	!	-1	0	0	0	0	0	0	0	0	0	0	0	0	0	0	0	0	0	0	0	0	0	0	0	0	0	0	0	0	0	0
071019	12:24:38	12:29:20	279814	5.0.10.0	5_exp_RW	39	Rpleas_acq	CS_B	VKKV	BZZB	MQQM	JXXJ	YDDY	GWWG	retten	schön	spielen	fair	treu	ehrlich	rächen	schlecht	strafen	faul	tot	eitel	1	acq_USunple_CSunple2_RW	acq4567_RW	4	3	400	1	300	300	364	46	0	1	1	blank2r.bmp	0	1	+	0	1	blank2r.bmp	492	1	JXXJ	492	1	blank2r.bmp	572	3	eitel	866	1	!	1239	1	!	1266	0	0	0	0	0	0	0	0	0	0	0	0	0	0	0	0	0	0	0	0	0	0	0	0	0	0	0	0	0	0
071019	12:24:38	12:29:22	281800	5.0.10.0	5_exp_RW	39	Rpleas_acq	CS_B	VKKV	BZZB	MQQM	JXXJ	YDDY	GWWG	retten	schön	spielen	fair	treu	ehrlich	rächen	schlecht	strafen	faul	tot	eitel	1	acq_USunple_CSunple1_RW	acq4567_RW	4	4	400	0	300	300	219	50	0	0	1	blank2r.bmp	0	1	+	0	1	blank2r.bmp	492	1	MQQM	492	1	blank2r.bmp	572	3	strafen	866	1	!	-1	1	!	-1	0	0	0	0	0	0	0	0	0	0	0	0	0	0	0	0	0	0	0	0	0	0	0	0	0	0	0	0	0	0
071019	12:24:38	12:29:24	283972	5.0.10.0	5_exp_RW	39	Rpleas_acq	CS_B	VKKV	BZZB	MQQM	JXXJ	YDDY	GWWG	retten	schön	spielen	fair	treu	ehrlich	rächen	schlecht	strafen	faul	tot	eitel	1	acq_USpleas_CSpleas2_RW	acq4567_RW	4	5	400	1	300	300	351	50	0	1	1	blank2r.bmp	0	1	+	0	1	blank2r.bmp	492	1	BZZB	492	1	blank2r.bmp	572	2	treu	866	1	!	1239	1	!	1252	0	0	0	0	0	0	0	0	0	0	0	0	0	0	0	0	0	0	0	0	0	0	0	0	0	0	0	0	0	0
071019	12:24:38	12:29:27	286358	5.0.10.0	5_exp_RW	39	Rpleas_acq	CS_B	VKKV	BZZB	MQQM	JXXJ	YDDY	GWWG	retten	schön	spielen	fair	treu	ehrlich	rächen	schlecht	strafen	faul	tot	eitel	1	acq_USunple_CSunple2_RW	acq4567_RW	4	6	400	0	300	300	620	46	0	1	1	blank2r.bmp	0	1	+	0	1	blank2r.bmp	492	1	JXXJ	492	1	blank2r.bmp	572	1	faul	866	1	!	1239	1	!	-1	0	0	0	0	0	0	0	0	0	0	0	0	0	0	0	0	0	0	0	0	0	0	0	0	0	0	0	0	0	0
071019	12:24:38	12:29:29	288530	5.0.10.0	5_exp_RW	39	Rpleas_acq	CS_B	VKKV	BZZB	MQQM	JXXJ	YDDY	GWWG	retten	schön	spielen	fair	treu	ehrlich	rächen	schlecht	strafen	faul	tot	eitel	1	acq_USpleas_CSpleas2_RW	acq4567_RW	4	7	400	1	300	300	362	50	0	1	1	blank2r.bmp	0	1	+	0	1	blank2r.bmp	492	1	BZZB	492	1	blank2r.bmp	572	3	ehrlich	866	1	!	1239	1	!	1266	0	0	0	0	0	0	0	0	0	0	0	0	0	0	0	0	0	0	0	0	0	0	0	0	0	0	0	0	0	0
071019	12:24:38	12:29:31	290596	5.0.10.0	5_exp_RW	39	Rpleas_acq	CS_B	VKKV	BZZB	MQQM	JXXJ	YDDY	GWWG	retten	schön	spielen	fair	treu	ehrlich	rächen	schlecht	strafen	faul	tot	eitel	1	acq_USpleas_CSpleas2_RW	acq4567_RW	4	8	400	0	300	300	295	46	0	0	1	blank2r.bmp	0	1	+	0	1	blank2r.bmp	492	1	BZZB	492	1	blank2r.bmp	572	3	ehrlich	866	1	!	-1	1	!	-1	0	0	0	0	0	0	0	0	0	0	0	0	0	0	0	0	0	0	0	0	0	0	0	0	0	0	0	0	0	0
071019	12:24:38	12:29:33	292769	5.0.10.0	5_exp_RW	39	Rpleas_acq	CS_B	VKKV	BZZB	MQQM	JXXJ	YDDY	GWWG	retten	schön	spielen	fair	treu	ehrlich	rächen	schlecht	strafen	faul	tot	eitel	1	acq_USpleas_CSpleas2_RW	acq4567_RW	4	9	400	1	300	300	361	50	0	1	1	blank2r.bmp	0	1	+	0	1	blank2r.bmp	492	1	BZZB	492	1	blank2r.bmp	572	1	fair	866	1	!	1239	1	!	1266	0	0	0	0	0	0	0	0	0	0	0	0	0	0	0	0	0	0	0	0	0	0	0	0	0	0	0	0	0	0
071019	12:24:38	12:29:35	294861	5.0.10.0	5_exp_RW	39	Rpleas_acq	CS_B	VKKV	BZZB	MQQM	JXXJ	YDDY	GWWG	retten	schön	spielen	fair	treu	ehrlich	rächen	schlecht	strafen	faul	tot	eitel	1	acq_USpleas_CSpleas1_RW	acq4567_RW	4	10	400	0	300	300	330	46	0	0	1	blank2r.bmp	0	1	+	0	1	blank2r.bmp	492	1	VKKV	492	1	blank2r.bmp	572	1	retten	866	1	!	-1	1	!	-1	0	0	0	0	0	0	0	0	0	0	0	0	0	0	0	0	0	0	0	0	0	0	0	0	0	0	0	0	0	0
071019	12:24:38	12:29:38	297367	5.0.10.0	5_exp_RW	39	Rpleas_acq	CS_B	VKKV	BZZB	MQQM	JXXJ	YDDY	GWWG	retten	schön	spielen	fair	treu	ehrlich	rächen	schlecht	strafen	faul	tot	eitel	1	acq_USunple_CSunple2_RW	acq4567_RW	4	11	400	0	300	300	720	46	0	1	1	blank2r.bmp	0	1	+	0	1	blank2r.bmp	492	1	JXXJ	492	1	blank2r.bmp	572	1	faul	866	1	!	1239	1	!	-1	0	0	0	0	0	0	0	0	0	0	0	0	0	0	0	0	0	0	0	0	0	0	0	0	0	0	0	0	0	0
071019	12:24:38	12:29:40	299606	5.0.10.0	5_exp_RW	39	Rpleas_acq	CS_B	VKKV	BZZB	MQQM	JXXJ	YDDY	GWWG	retten	schön	spielen	fair	treu	ehrlich	rächen	schlecht	strafen	faul	tot	eitel	1	acq_USpleas_CSpleas1_RW	acq4567_RW	4	12	400	1	300	300	435	50	0	1	1	blank2r.bmp	0	1	+	0	1	blank2r.bmp	492	1	VKKV	492	1	blank2r.bmp	572	3	spielen	866	1	!	1239	1	!	1332	0	0	0	0	0	0	0	0	0	0	0	0	0	0	0	0	0	0	0	0	0	0	0	0	0	0	0	0	0	0
071019	12:24:38	12:29:43	302138	5.0.10.0	5_exp_RW	39	Rpleas_acq	CS_B	VKKV	BZZB	MQQM	JXXJ	YDDY	GWWG	retten	schön	spielen	fair	treu	ehrlich	rächen	schlecht	strafen	faul	tot	eitel	1	acq_USunple_CSunple1_RW	acq4567_RW	4	13	400	0	300	300	769	46	0	1	1	blank2r.bmp	0	1	+	0	1	blank2r.bmp	492	1	MQQM	492	1	blank2r.bmp	572	3	strafen	866	1	!	1239	1	!	-1	0	0	0	0	0	0	0	0	0	0	0	0	0	0	0	0	0	0	0	0	0	0	0	0	0	0	0	0	0	0
071019	12:24:38	12:29:45	304310	5.0.10.0	5_exp_RW	39	Rpleas_acq	CS_B	VKKV	BZZB	MQQM	JXXJ	YDDY	GWWG	retten	schön	spielen	fair	treu	ehrlich	rächen	schlecht	strafen	faul	tot	eitel	1	acq_USpleas_CSpleas2_RW	acq4567_RW	4	14	400	1	300	300	369	46	0	0	1	blank2r.bmp	0	1	+	0	1	blank2r.bmp	492	1	BZZB	492	1	blank2r.bmp	572	2	treu	866	1	!	1239	1	!	1266	0	0	0	0	0	0	0	0	0	0	0	0	0	0	0	0	0	0	0	0	0	0	0	0	0	0	0	0	0	0
071019	12:24:38	12:29:47	306829	5.0.10.0	5_exp_RW	39	Rpleas_acq	CS_B	VKKV	BZZB	MQQM	JXXJ	YDDY	GWWG	retten	schön	spielen	fair	treu	ehrlich	rächen	schlecht	strafen	faul	tot	eitel	1	acq_USunple_CSunple1_RW	acq4567_RW	4	15	400	0	300	300	736	46	0	1	1	blank2r.bmp	0	1	+	0	1	blank2r.bmp	492	1	MQQM	492	1	blank2r.bmp	572	2	schlecht	866	1	!	1239	1	!	-1	0	0	0	0	0	0	0	0	0	0	0	0	0	0	0	0	0	0	0	0	0	0	0	0	0	0	0	0	0	0
071019	12:24:38	12:29:50	309388	5.0.10.0	5_exp_RW	39	Rpleas_acq	CS_B	VKKV	BZZB	MQQM	JXXJ	YDDY	GWWG	retten	schön	spielen	fair	treu	ehrlich	rächen	schlecht	strafen	faul	tot	eitel	1	acq_USpleas_CSpleas1_RW	acq4567_RW	4	16	400	0	300	300	776	50	0	1	1	blank2r.bmp	0	1	+	0	1	blank2r.bmp	492	1	VKKV	492	1	blank2r.bmp	572	2	schön	866	1	!	1239	1	!	-1	0	0	0	0	0	0	0	0	0	0	0	0	0	0	0	0	0	0	0	0	0	0	0	0	0	0	0	0	0	0
071019	12:24:38	12:29:52	311601	5.0.10.0	5_exp_RW	39	Rpleas_acq	CS_B	VKKV	BZZB	MQQM	JXXJ	YDDY	GWWG	retten	schön	spielen	fair	treu	ehrlich	rächen	schlecht	strafen	faul	tot	eitel	1	acq_USunple_CSunple2_RW	acq4567_RW	4	17	400	1	300	300	402	46	0	1	1	blank2r.bmp	0	1	+	0	1	blank2r.bmp	492	1	JXXJ	492	1	blank2r.bmp	572	2	tot	866	1	!	1239	1	!	1306	0	0	0	0	0	0	0	0	0	0	0	0	0	0	0	0	0	0	0	0	0	0	0	0	0	0	0	0	0	0
071019	12:24:38	12:29:54	313653	5.0.10.0	5_exp_RW	39	Rpleas_acq	CS_B	VKKV	BZZB	MQQM	JXXJ	YDDY	GWWG	retten	schön	spielen	fair	treu	ehrlich	rächen	schlecht	strafen	faul	tot	eitel	1	acq_USunple_CSunple1_RW	acq4567_RW	4	18	400	0	300	300	280	50	0	0	1	blank2r.bmp	0	1	+	0	1	blank2r.bmp	492	1	MQQM	492	1	blank2r.bmp	572	1	rächen	866	1	!	-1	1	!	-1	0	0	0	0	0	0	0	0	0	0	0	0	0	0	0	0	0	0	0	0	0	0	0	0	0	0	0	0	0	0
071019	12:24:38	12:29:57	316279	5.0.10.0	5_exp_RW	39	Rpleas_acq	CS_B	VKKV	BZZB	MQQM	JXXJ	YDDY	GWWG	retten	schön	spielen	fair	treu	ehrlich	rächen	schlecht	strafen	faul	tot	eitel	1	acq_USpleas_CSpleas1_RW	acq4567_RW	4	19	400	0	300	300	839	50	0	1	1	blank2r.bmp	0	1	+	0	1	blank2r.bmp	492	1	VKKV	492	1	blank2r.bmp	572	1	retten	866	1	!	1239	1	!	-1	0	0	0	0	0	0	0	0	0	0	0	0	0	0	0	0	0	0	0	0	0	0	0	0	0	0	0	0	0	0
071019	12:24:38	12:29:59	318664	5.0.10.0	5_exp_RW	39	Rpleas_acq	CS_B	VKKV	BZZB	MQQM	JXXJ	YDDY	GWWG	retten	schön	spielen	fair	treu	ehrlich	rächen	schlecht	strafen	faul	tot	eitel	1	acq_USunple_CSunple2_RW	acq4567_RW	4	20	400	0	300	300	605	46	0	1	1	blank2r.bmp	0	1	+	0	1	blank2r.bmp	492	1	JXXJ	492	1	blank2r.bmp	572	3	eitel	866	1	!	1239	1	!	-1	0	0	0	0	0	0	0	0	0	0	0	0	0	0	0	0	0	0	0	0	0	0	0	0	0	0	0	0	0	0
071019	12:24:38	12:30:02	321143	5.0.10.0	5_exp_RW	39	Rpleas_acq	CS_B	VKKV	BZZB	MQQM	JXXJ	YDDY	GWWG	retten	schön	spielen	fair	treu	ehrlich	rächen	schlecht	strafen	faul	tot	eitel	1	acq_USpleas_CSpleas2_RW	acq4567_RW	4	21	400	0	300	300	680	50	0	1	1	blank2r.bmp	0	1	+	0	1	blank2r.bmp	492	1	BZZB	492	1	blank2r.bmp	572	3	ehrlich	866	1	!	1239	1	!	-1	0	0	0	0	0	0	0	0	0	0	0	0	0	0	0	0	0	0	0	0	0	0	0	0	0	0	0	0	0	0
071019	12:24:38	12:30:04	323436	5.0.10.0	5_exp_RW	39	Rpleas_acq	CS_B	VKKV	BZZB	MQQM	JXXJ	YDDY	GWWG	retten	schön	spielen	fair	treu	ehrlich	rächen	schlecht	strafen	faul	tot	eitel	1	acq_USunple_CSunple2_RW	acq4567_RW	4	22	400	0	300	300	495	46	0	1	1	blank2r.bmp	0	1	+	0	1	blank2r.bmp	492	1	JXXJ	492	1	blank2r.bmp	572	2	tot	866	1	!	1239	1	!	-1	0	0	0	0	0	0	0	0	0	0	0	0	0	0	0	0	0	0	0	0	0	0	0	0	0	0	0	0	0	0
071019	12:24:38	12:30:06	325648	5.0.10.0	5_exp_RW	39	Rpleas_acq	CS_B	VKKV	BZZB	MQQM	JXXJ	YDDY	GWWG	retten	schön	spielen	fair	treu	ehrlich	rächen	schlecht	strafen	faul	tot	eitel	1	acq_USunple_CSunple2_RW	acq4567_RW	4	23	400	1	300	300	402	50	0	0	1	blank2r.bmp	0	1	+	0	1	blank2r.bmp	492	1	JXXJ	492	1	blank2r.bmp	572	3	eitel	866	1	!	1239	1	!	1306	0	0	0	0	0	0	0	0	0	0	0	0	0	0	0	0	0	0	0	0	0	0	0	0	0	0	0	0	0	0
071019	12:24:38	12:30:09	328353	5.0.10.0	5_exp_RW	39	Rpleas_acq	CS_B	VKKV	BZZB	MQQM	JXXJ	YDDY	GWWG	retten	schön	spielen	fair	treu	ehrlich	rächen	schlecht	strafen	faul	tot	eitel	1	acq_USunple_CSunple2_RW	acq4567_RW	4	24	400	0	300	300	944	46	0	1	1	blank2r.bmp	0	1	+	0	1	blank2r.bmp	492	1	JXXJ	492	1	blank2r.bmp	572	1	faul	866	1	!	1239	1	!	-1	0	0	0	0	0	0	0	0	0	0	0	0	0	0	0	0	0	0	0	0	0	0	0	0	0	0	0	0	0	0
071019	12:24:38	12:30:11	330872	5.0.10.0	5_exp_RW	39	Rpleas_acq	CS_B	VKKV	BZZB	MQQM	JXXJ	YDDY	GWWG	retten	schön	spielen	fair	treu	ehrlich	rächen	schlecht	strafen	faul	tot	eitel	1	acq_USunple_CSunple1_RW	acq4567_RW	4	25	400	0	300	300	744	50	0	0	1	blank2r.bmp	0	1	+	0	1	blank2r.bmp	492	1	MQQM	492	1	blank2r.bmp	572	2	schlecht	866	1	!	1239	1	!	-1	0	0	0	0	0	0	0	0	0	0	0	0	0	0	0	0	0	0	0	0	0	0	0	0	0	0	0	0	0	0
071019	12:24:38	12:30:14	334071	5.0.10.0	5_exp_RW	39	Rpleas_acq	CS_B	VKKV	BZZB	MQQM	JXXJ	YDDY	GWWG	retten	schön	spielen	fair	treu	ehrlich	rächen	schlecht	strafen	faul	tot	eitel	1	acq_USpleas_CSpleas1_RW	acq4567_RW	4	26	400	0	300	300	1419	46	0	0	1	blank2r.bmp	0	1	+	0	1	blank2r.bmp	492	1	VKKV	492	1	blank2r.bmp	572	3	spielen	866	1	!	1239	1	!	-1	0	0	0	0	0	0	0	0	0	0	0	0	0	0	0	0	0	0	0	0	0	0	0	0	0	0	0	0	0	0
071019	12:24:38	12:30:23	342201	5.0.10.0	5_exp_RW	39	Rpleas_acq	CS_B	VKKV	BZZB	MQQM	JXXJ	YDDY	GWWG	retten	schön	spielen	fair	treu	ehrlich	rächen	schlecht	strafen	faul	tot	eitel	1	acq_USpleas_CSpleas2_RW	acq4567_RW	4	27	400	0	300	300	6348	50	0	1	1	blank2r.bmp	0	1	+	0	1	blank2r.bmp	492	1	BZZB	492	1	blank2r.bmp	572	2	treu	866	1	!	1239	1	!	-1	0	0	0	0	0	0	0	0	0	0	0	0	0	0	0	0	0	0	0	0	0	0	0	0	0	0	0	0	0	0
071019	12:24:38	12:30:25	344800	5.0.10.0	5_exp_RW	39	Rpleas_acq	CS_B	VKKV	BZZB	MQQM	JXXJ	YDDY	GWWG	retten	schön	spielen	fair	treu	ehrlich	rächen	schlecht	strafen	faul	tot	eitel	1	acq_USpleas_CSpleas1_RW	acq4567_RW	4	28	400	0	300	300	813	50	0	1	1	blank2r.bmp	0	1	+	0	1	blank2r.bmp	492	1	VKKV	492	1	blank2r.bmp	572	1	retten	866	1	!	1239	1	!	-1	0	0	0	0	0	0	0	0	0	0	0	0	0	0	0	0	0	0	0	0	0	0	0	0	0	0	0	0	0	0
071019	12:24:38	12:30:27	347079	5.0.10.0	5_exp_RW	39	Rpleas_acq	CS_B	VKKV	BZZB	MQQM	JXXJ	YDDY	GWWG	retten	schön	spielen	fair	treu	ehrlich	rächen	schlecht	strafen	faul	tot	eitel	1	acq_USpleas_CSpleas1_RW	acq4567_RW	4	29	400	0	300	300	501	50	0	1	1	blank2r.bmp	0	1	+	0	1	blank2r.bmp	492	1	VKKV	492	1	blank2r.bmp	572	2	schön	866	1	!	1239	1	!	-1	0	0	0	0	0	0	0	0	0	0	0	0	0	0	0	0	0	0	0	0	0	0	0	0	0	0	0	0	0	0
071019	12:24:38	12:30:30	349318	5.0.10.0	5_exp_RW	39	Rpleas_acq	CS_B	VKKV	BZZB	MQQM	JXXJ	YDDY	GWWG	retten	schön	spielen	fair	treu	ehrlich	rächen	schlecht	strafen	faul	tot	eitel	1	acq_USunple_CSunple1_RW	acq4567_RW	4	30	400	1	300	300	428	46	0	1	1	blank2r.bmp	0	1	+	0	1	blank2r.bmp	492	1	MQQM	492	1	blank2r.bmp	572	3	strafen	866	1	!	1239	1	!	1332	0	0	0	0	0	0	0	0	0	0	0	0	0	0	0	0	0	0	0	0	0	0	0	0	0	0	0	0	0	0
071019	12:24:38	12:30:32	351597	5.0.10.0	5_exp_RW	39	Rpleas_acq	CS_B	VKKV	BZZB	MQQM	JXXJ	YDDY	GWWG	retten	schön	spielen	fair	treu	ehrlich	rächen	schlecht	strafen	faul	tot	eitel	1	acq_USpleas_CSpleas2_RW	acq4567_RW	4	31	400	0	300	300	511	50	0	1	1	blank2r.bmp	0	1	+	0	1	blank2r.bmp	492	1	BZZB	492	1	blank2r.bmp	572	1	fair	866	1	!	1239	1	!	-1	0	0	0	0	0	0	0	0	0	0	0	0	0	0	0	0	0	0	0	0	0	0	0	0	0	0	0	0	0	0
071019	12:24:38	12:30:36	355502	5.0.10.0	5_exp_RW	39	Rpleas_acq	CS_B	VKKV	BZZB	MQQM	JXXJ	YDDY	GWWG	retten	schön	spielen	fair	treu	ehrlich	rächen	schlecht	strafen	faul	tot	eitel	1	acq_USunple_CSunple1_RW	acq4567_RW	4	32	400	0	300	300	2121	50	0	0	1	blank2r.bmp	0	1	+	0	1	blank2r.bmp	492	1	MQQM	492	1	blank2r.bmp	572	1	rächen	866	1	!	1239	1	!	-1	0	0	0	0	0	0	0	0	0	0	0	0	0	0	0	0	0	0	0	0	0	0	0	0	0	0	0	0	0	0
071019	12:24:38	12:30:38	357768	5.0.10.0	5_exp_RW	39	Rpleas_acq	CS_B	VKKV	BZZB	MQQM	JXXJ	YDDY	GWWG	retten	schön	spielen	fair	treu	ehrlich	rächen	schlecht	strafen	faul	tot	eitel	1	acq_USpleas_CSpleas1_RW	acq4567_RW	4	33	400	0	300	300	487	50	0	1	1	blank2r.bmp	0	1	+	0	1	blank2r.bmp	492	1	VKKV	492	1	blank2r.bmp	572	3	spielen	866	1	!	1239	1	!	-1	0	0	0	0	0	0	0	0	0	0	0	0	0	0	0	0	0	0	0	0	0	0	0	0	0	0	0	0	0	0
071019	12:24:38	12:30:46	365458	5.0.10.0	5_exp_RW	39	Rpleas_acq	CS_B	VKKV	BZZB	MQQM	JXXJ	YDDY	GWWG	retten	schön	spielen	fair	treu	ehrlich	rächen	schlecht	strafen	faul	tot	eitel	1	acq_USpleas_CSpleas2_RW	acq4567_RW	4	34	400	0	300	300	5909	50	0	1	1	blank2r.bmp	0	1	+	0	1	blank2r.bmp	492	1	BZZB	492	1	blank2r.bmp	572	2	treu	866	1	!	1239	1	!	-1	0	0	0	0	0	0	0	0	0	0	0	0	0	0	0	0	0	0	0	0	0	0	0	0	0	0	0	0	0	0
071019	12:24:38	12:30:48	367670	5.0.10.0	5_exp_RW	39	Rpleas_acq	CS_B	VKKV	BZZB	MQQM	JXXJ	YDDY	GWWG	retten	schön	spielen	fair	treu	ehrlich	rächen	schlecht	strafen	faul	tot	eitel	1	acq_USpleas_CSpleas2_RW	acq4567_RW	4	35	400	1	300	300	406	50	0	1	1	blank2r.bmp	0	1	+	0	1	blank2r.bmp	492	1	BZZB	492	1	blank2r.bmp	572	3	ehrlich	866	1	!	1239	1	!	1306	0	0	0	0	0	0	0	0	0	0	0	0	0	0	0	0	0	0	0	0	0	0	0	0	0	0	0	0	0	0
071019	12:24:38	12:30:50	369709	5.0.10.0	5_exp_RW	39	Rpleas_acq	CS_B	VKKV	BZZB	MQQM	JXXJ	YDDY	GWWG	retten	schön	spielen	fair	treu	ehrlich	rächen	schlecht	strafen	faul	tot	eitel	1	acq_USunple_CSunple1_RW	acq4567_RW	4	36	400	0	300	300	275	46	0	1	1	blank2r.bmp	0	1	+	0	1	blank2r.bmp	492	1	MQQM	492	1	blank2r.bmp	572	3	strafen	866	1	!	-1	1	!	-1	0	0	0	0	0	0	0	0	0	0	0	0	0	0	0	0	0	0	0	0	0	0	0	0	0	0	0	0	0	0
071019	12:24:38	12:30:52	371895	5.0.10.0	5_exp_RW	39	Rpleas_acq	CS_B	VKKV	BZZB	MQQM	JXXJ	YDDY	GWWG	retten	schön	spielen	fair	treu	ehrlich	rächen	schlecht	strafen	faul	tot	eitel	1	acq_USunple_CSunple2_RW	acq4567_RW	4	37	400	1	300	300	385	50	0	0	1	blank2r.bmp	0	1	+	0	1	blank2r.bmp	492	1	JXXJ	492	1	blank2r.bmp	572	3	eitel	866	1	!	1239	1	!	1279	0	0	0	0	0	0	0	0	0	0	0	0	0	0	0	0	0	0	0	0	0	0	0	0	0	0	0	0	0	0
071019	12:24:38	12:30:54	374107	5.0.10.0	5_exp_RW	39	Rpleas_acq	CS_B	VKKV	BZZB	MQQM	JXXJ	YDDY	GWWG	retten	schön	spielen	fair	treu	ehrlich	rächen	schlecht	strafen	faul	tot	eitel	1	acq_USunple_CSunple2_RW	acq4567_RW	4	38	400	1	300	300	421	46	0	1	1	blank2r.bmp	0	1	+	0	1	blank2r.bmp	492	1	JXXJ	492	1	blank2r.bmp	572	1	faul	866	1	!	1239	1	!	1319	0	0	0	0	0	0	0	0	0	0	0	0	0	0	0	0	0	0	0	0	0	0	0	0	0	0	0	0	0	0
071019	12:24:38	12:30:57	376386	5.0.10.0	5_exp_RW	39	Rpleas_acq	CS_B	VKKV	BZZB	MQQM	JXXJ	YDDY	GWWG	retten	schön	spielen	fair	treu	ehrlich	rächen	schlecht	strafen	faul	tot	eitel	1	acq_USunple_CSunple1_RW	acq4567_RW	4	39	400	0	300	300	510	50	0	0	1	blank2r.bmp	0	1	+	0	1	blank2r.bmp	492	1	MQQM	492	1	blank2r.bmp	572	1	rächen	866	1	!	1239	1	!	-1	0	0	0	0	0	0	0	0	0	0	0	0	0	0	0	0	0	0	0	0	0	0	0	0	0	0	0	0	0	0
071019	12:24:38	12:30:59	378319	5.0.10.0	5_exp_RW	39	Rpleas_acq	CS_B	VKKV	BZZB	MQQM	JXXJ	YDDY	GWWG	retten	schön	spielen	fair	treu	ehrlich	rächen	schlecht	strafen	faul	tot	eitel	1	acq_USpleas_CSpleas1_RW	acq4567_RW	4	40	400	0	300	300	157	50	0	1	1	blank2r.bmp	0	1	+	0	1	blank2r.bmp	492	1	VKKV	492	1	blank2r.bmp	572	2	schön	866	1	!	-1	1	!	-1	0	0	0	0	0	0	0	0	0	0	0	0	0	0	0	0	0	0	0	0	0	0	0	0	0	0	0	0	0	0
071019	12:24:38	12:31:02	381851	5.0.10.0	5_exp_RW	39	Rpleas_acq	CS_B	VKKV	BZZB	MQQM	JXXJ	YDDY	GWWG	retten	schön	spielen	fair	treu	ehrlich	rächen	schlecht	strafen	faul	tot	eitel	1	acq_USpleas_CSpleas1_RW	acq4567_RW	4	41	400	0	300	300	1753	50	0	1	1	blank2r.bmp	0	1	+	0	1	blank2r.bmp	492	1	VKKV	492	1	blank2r.bmp	572	1	retten	866	1	!	1239	1	!	-1	0	0	0	0	0	0	0	0	0	0	0	0	0	0	0	0	0	0	0	0	0	0	0	0	0	0	0	0	0	0
071019	12:24:38	12:31:05	384156	5.0.10.0	5_exp_RW	39	Rpleas_acq	CS_B	VKKV	BZZB	MQQM	JXXJ	YDDY	GWWG	retten	schön	spielen	fair	treu	ehrlich	rächen	schlecht	strafen	faul	tot	eitel	1	acq_USpleas_CSpleas2_RW	acq4567_RW	4	42	400	0	300	300	527	50	0	1	1	blank2r.bmp	0	1	+	0	1	blank2r.bmp	492	1	BZZB	492	1	blank2r.bmp	572	1	fair	866	1	!	1239	1	!	-1	0	0	0	0	0	0	0	0	0	0	0	0	0	0	0	0	0	0	0	0	0	0	0	0	0	0	0	0	0	0
071019	12:24:38	12:31:09	388421	5.0.10.0	5_exp_RW	39	Rpleas_acq	CS_B	VKKV	BZZB	MQQM	JXXJ	YDDY	GWWG	retten	schön	spielen	fair	treu	ehrlich	rächen	schlecht	strafen	faul	tot	eitel	1	acq_USpleas_CSpleas2_RW	acq4567_RW	4	43	400	0	300	300	2487	50	0	1	1	blank2r.bmp	0	1	+	0	1	blank2r.bmp	492	1	BZZB	492	1	blank2r.bmp	572	1	fair	866	1	!	1239	1	!	-1	0	0	0	0	0	0	0	0	0	0	0	0	0	0	0	0	0	0	0	0	0	0	0	0	0	0	0	0	0	0
071019	12:24:38	12:31:11	390620	5.0.10.0	5_exp_RW	39	Rpleas_acq	CS_B	VKKV	BZZB	MQQM	JXXJ	YDDY	GWWG	retten	schön	spielen	fair	treu	ehrlich	rächen	schlecht	strafen	faul	tot	eitel	1	acq_USpleas_CSpleas2_RW	acq4567_RW	4	44	400	1	300	300	395	50	0	1	1	blank2r.bmp	0	1	+	0	1	blank2r.bmp	492	1	BZZB	492	1	blank2r.bmp	572	3	ehrlich	866	1	!	1239	1	!	1292	0	0	0	0	0	0	0	0	0	0	0	0	0	0	0	0	0	0	0	0	0	0	0	0	0	0	0	0	0	0
071019	12:24:38	12:31:13	393073	5.0.10.0	5_exp_RW	39	Rpleas_acq	CS_B	VKKV	BZZB	MQQM	JXXJ	YDDY	GWWG	retten	schön	spielen	fair	treu	ehrlich	rächen	schlecht	strafen	faul	tot	eitel	1	acq_USunple_CSunple1_RW	acq4567_RW	4	45	400	0	300	300	691	46	0	1	1	blank2r.bmp	0	1	+	0	1	blank2r.bmp	492	1	MQQM	492	1	blank2r.bmp	572	2	schlecht	866	1	!	1239	1	!	-1	0	0	0	0	0	0	0	0	0	0	0	0	0	0	0	0	0	0	0	0	0	0	0	0	0	0	0	0	0	0
071019	12:24:38	12:31:16	395565	5.0.10.0	5_exp_RW	39	Rpleas_acq	CS_B	VKKV	BZZB	MQQM	JXXJ	YDDY	GWWG	retten	schön	spielen	fair	treu	ehrlich	rächen	schlecht	strafen	faul	tot	eitel	1	acq_USunple_CSunple2_RW	acq4567_RW	4	46	400	0	300	300	708	46	0	1	1	blank2r.bmp	0	1	+	0	1	blank2r.bmp	492	1	JXXJ	492	1	blank2r.bmp	572	2	tot	866	1	!	1239	1	!	-1	0	0	0	0	0	0	0	0	0	0	0	0	0	0	0	0	0	0	0	0	0	0	0	0	0	0	0	0	0	0
071019	12:24:38	12:31:18	397817	5.0.10.0	5_exp_RW	39	Rpleas_acq	CS_B	VKKV	BZZB	MQQM	JXXJ	YDDY	GWWG	retten	schön	spielen	fair	treu	ehrlich	rächen	schlecht	strafen	faul	tot	eitel	1	acq_USunple_CSunple1_RW	acq4567_RW	4	47	400	1	300	300	445	46	0	1	1	blank2r.bmp	0	1	+	0	1	blank2r.bmp	492	1	MQQM	492	1	blank2r.bmp	572	1	rächen	866	1	!	1239	1	!	1346	0	0	0	0	0	0	0	0	0	0	0	0	0	0	0	0	0	0	0	0	0	0	0	0	0	0	0	0	0	0
071019	12:24:38	12:31:20	400003	5.0.10.0	5_exp_RW	39	Rpleas_acq	CS_B	VKKV	BZZB	MQQM	JXXJ	YDDY	GWWG	retten	schön	spielen	fair	treu	ehrlich	rächen	schlecht	strafen	faul	tot	eitel	1	acq_USpleas_CSpleas1_RW	acq4567_RW	4	48	400	1	300	300	392	50	0	1	1	blank2r.bmp	0	1	+	0	1	blank2r.bmp	492	1	VKKV	492	1	blank2r.bmp	572	3	spielen	866	1	!	1239	1	!	1292	0	0	0	0	0	0	0	0	0	0	0	0	0	0	0	0	0	0	0	0	0	0	0	0	0	0	0	0	0	0
071019	12:24:38	12:31:23	402242	5.0.10.0	5_exp_RW	39	Rpleas_acq	CS_B	VKKV	BZZB	MQQM	JXXJ	YDDY	GWWG	retten	schön	spielen	fair	treu	ehrlich	rächen	schlecht	strafen	faul	tot	eitel	1	acq_USunple_CSunple1_RW	acq4567_RW	4	49	400	1	300	300	448	46	0	1	1	blank2r.bmp	0	1	+	0	1	blank2r.bmp	492	1	MQQM	492	1	blank2r.bmp	572	3	strafen	866	1	!	1239	1	!	1346	0	0	0	0	0	0	0	0	0	0	0	0	0	0	0	0	0	0	0	0	0	0	0	0	0	0	0	0	0	0
071019	12:24:38	12:31:25	404388	5.0.10.0	5_exp_RW	39	Rpleas_acq	CS_B	VKKV	BZZB	MQQM	JXXJ	YDDY	GWWG	retten	schön	spielen	fair	treu	ehrlich	rächen	schlecht	strafen	faul	tot	eitel	1	acq_USunple_CSunple1_RW	acq4567_RW	4	50	400	1	300	300	357	46	0	1	1	blank2r.bmp	0	1	+	0	1	blank2r.bmp	492	1	MQQM	492	1	blank2r.bmp	572	2	schlecht	866	1	!	1239	1	!	1252	0	0	0	0	0	0	0	0	0	0	0	0	0	0	0	0	0	0	0	0	0	0	0	0	0	0	0	0	0	0
071019	12:24:38	12:31:27	406680	5.0.10.0	5_exp_RW	39	Rpleas_acq	CS_B	VKKV	BZZB	MQQM	JXXJ	YDDY	GWWG	retten	schön	spielen	fair	treu	ehrlich	rächen	schlecht	strafen	faul	tot	eitel	1	acq_USpleas_CSpleas1_RW	acq4567_RW	4	51	400	0	300	300	519	50	0	1	1	blank2r.bmp	0	1	+	0	1	blank2r.bmp	492	1	VKKV	492	1	blank2r.bmp	572	1	retten	866	1	!	1239	1	!	-1	0	0	0	0	0	0	0	0	0	0	0	0	0	0	0	0	0	0	0	0	0	0	0	0	0	0	0	0	0	0
071019	12:24:38	12:31:29	408866	5.0.10.0	5_exp_RW	39	Rpleas_acq	CS_B	VKKV	BZZB	MQQM	JXXJ	YDDY	GWWG	retten	schön	spielen	fair	treu	ehrlich	rächen	schlecht	strafen	faul	tot	eitel	1	acq_USunple_CSunple2_RW	acq4567_RW	4	52	400	1	300	300	374	46	0	1	1	blank2r.bmp	0	1	+	0	1	blank2r.bmp	492	1	JXXJ	492	1	blank2r.bmp	572	2	tot	866	1	!	1239	1	!	1279	0	0	0	0	0	0	0	0	0	0	0	0	0	0	0	0	0	0	0	0	0	0	0	0	0	0	0	0	0	0
071019	12:24:38	12:31:31	411052	5.0.10.0	5_exp_RW	39	Rpleas_acq	CS_B	VKKV	BZZB	MQQM	JXXJ	YDDY	GWWG	retten	schön	spielen	fair	treu	ehrlich	rächen	schlecht	strafen	faul	tot	eitel	1	acq_USpleas_CSpleas2_RW	acq4567_RW	4	53	400	1	300	300	391	50	0	1	1	blank2r.bmp	0	1	+	0	1	blank2r.bmp	492	1	BZZB	492	1	blank2r.bmp	572	2	treu	866	1	!	1239	1	!	1292	0	0	0	0	0	0	0	0	0	0	0	0	0	0	0	0	0	0	0	0	0	0	0	0	0	0	0	0	0	0
071019	12:24:38	12:31:34	413304	5.0.10.0	5_exp_RW	39	Rpleas_acq	CS_B	VKKV	BZZB	MQQM	JXXJ	YDDY	GWWG	retten	schön	spielen	fair	treu	ehrlich	rächen	schlecht	strafen	faul	tot	eitel	1	acq_USunple_CSunple2_RW	acq4567_RW	4	54	400	0	300	300	487	46	0	1	1	blank2r.bmp	0	1	+	0	1	blank2r.bmp	492	1	JXXJ	492	1	blank2r.bmp	572	1	faul	866	1	!	1239	1	!	-1	0	0	0	0	0	0	0	0	0	0	0	0	0	0	0	0	0	0	0	0	0	0	0	0	0	0	0	0	0	0
071019	12:24:38	12:31:36	415516	5.0.10.0	5_exp_RW	39	Rpleas_acq	CS_B	VKKV	BZZB	MQQM	JXXJ	YDDY	GWWG	retten	schön	spielen	fair	treu	ehrlich	rächen	schlecht	strafen	faul	tot	eitel	1	acq_USunple_CSunple1_RW	acq4567_RW	4	55	400	1	300	300	403	46	0	1	1	blank2r.bmp	0	1	+	0	1	blank2r.bmp	492	1	MQQM	492	1	blank2r.bmp	572	3	strafen	866	1	!	1239	1	!	1306	0	0	0	0	0	0	0	0	0	0	0	0	0	0	0	0	0	0	0	0	0	0	0	0	0	0	0	0	0	0
071019	12:24:38	12:31:38	417662	5.0.10.0	5_exp_RW	39	Rpleas_acq	CS_B	VKKV	BZZB	MQQM	JXXJ	YDDY	GWWG	retten	schön	spielen	fair	treu	ehrlich	rächen	schlecht	strafen	faul	tot	eitel	1	acq_USunple_CSunple2_RW	acq4567_RW	4	56	400	1	300	300	349	50	0	0	1	blank2r.bmp	0	1	+	0	1	blank2r.bmp	492	1	JXXJ	492	1	blank2r.bmp	572	3	eitel	866	1	!	1239	1	!	1252	0	0	0	0	0	0	0	0	0	0	0	0	0	0	0	0	0	0	0	0	0	0	0	0	0	0	0	0	0	0
071019	12:24:38	12:31:40	419915	5.0.10.0	5_exp_RW	39	Rpleas_acq	CS_B	VKKV	BZZB	MQQM	JXXJ	YDDY	GWWG	retten	schön	spielen	fair	treu	ehrlich	rächen	schlecht	strafen	faul	tot	eitel	1	acq_USpleas_CSpleas2_RW	acq4567_RW	4	57	400	1	300	300	452	50	0	1	1	blank2r.bmp	0	1	+	0	1	blank2r.bmp	492	1	BZZB	492	1	blank2r.bmp	572	1	fair	866	1	!	1239	1	!	1359	0	0	0	0	0	0	0	0	0	0	0	0	0	0	0	0	0	0	0	0	0	0	0	0	0	0	0	0	0	0
071019	12:24:38	12:31:43	422154	5.0.10.0	5_exp_RW	39	Rpleas_acq	CS_B	VKKV	BZZB	MQQM	JXXJ	YDDY	GWWG	retten	schön	spielen	fair	treu	ehrlich	rächen	schlecht	strafen	faul	tot	eitel	1	acq_USpleas_CSpleas1_RW	acq4567_RW	4	58	400	1	300	300	451	50	0	1	1	blank2r.bmp	0	1	+	0	1	blank2r.bmp	492	1	VKKV	492	1	blank2r.bmp	572	2	schön	866	1	!	1239	1	!	1346	0	0	0	0	0	0	0	0	0	0	0	0	0	0	0	0	0	0	0	0	0	0	0	0	0	0	0	0	0	0
071019	12:24:38	12:31:45	424246	5.0.10.0	5_exp_RW	39	Rpleas_acq	CS_B	VKKV	BZZB	MQQM	JXXJ	YDDY	GWWG	retten	schön	spielen	fair	treu	ehrlich	rächen	schlecht	strafen	faul	tot	eitel	1	acq_USunple_CSunple2_RW	acq4567_RW	4	59	400	0	300	300	325	46	0	1	1	blank2r.bmp	0	1	+	0	1	blank2r.bmp	492	1	JXXJ	492	1	blank2r.bmp	572	1	faul	866	1	!	-1	1	!	-1	0	0	0	0	0	0	0	0	0	0	0	0	0	0	0	0	0	0	0	0	0	0	0	0	0	0	0	0	0	0
071019	12:24:38	12:31:47	426432	5.0.10.0	5_exp_RW	39	Rpleas_acq	CS_B	VKKV	BZZB	MQQM	JXXJ	YDDY	GWWG	retten	schön	spielen	fair	treu	ehrlich	rächen	schlecht	strafen	faul	tot	eitel	1	acq_USpleas_CSpleas1_RW	acq4567_RW	4	60	400	1	300	300	380	50	0	1	1	blank2r.bmp	0	1	+	0	1	blank2r.bmp	492	1	VKKV	492	1	blank2r.bmp	572	3	spielen	866	1	!	1239	1	!	1279	0	0	0	0	0	0	0	0	0	0	0	0	0	0	0	0	0	0	0	0	0	0	0	0	0	0	0	0	0	0
071019	12:24:38	12:31:49	428698	5.0.10.0	5_exp_RW	39	Rpleas_acq	CS_B	VKKV	BZZB	MQQM	JXXJ	YDDY	GWWG	retten	schön	spielen	fair	treu	ehrlich	rächen	schlecht	strafen	faul	tot	eitel	1	acq_USunple_CSunple1_RW	acq4567_RW	4	61	400	0	300	300	496	46	0	1	1	blank2r.bmp	0	1	+	0	1	blank2r.bmp	492	1	MQQM	492	1	blank2r.bmp	572	1	rächen	866	1	!	1239	1	!	-1	0	0	0	0	0	0	0	0	0	0	0	0	0	0	0	0	0	0	0	0	0	0	0	0	0	0	0	0	0	0
071019	12:24:38	12:31:51	431017	5.0.10.0	5_exp_RW	39	Rpleas_acq	CS_B	VKKV	BZZB	MQQM	JXXJ	YDDY	GWWG	retten	schön	spielen	fair	treu	ehrlich	rächen	schlecht	strafen	faul	tot	eitel	1	acq_USpleas_CSpleas1_RW	acq4567_RW	4	62	400	0	300	300	532	50	0	1	1	blank2r.bmp	0	1	+	0	1	blank2r.bmp	492	1	VKKV	492	1	blank2r.bmp	572	1	retten	866	1	!	1239	1	!	-1	0	0	0	0	0	0	0	0	0	0	0	0	0	0	0	0	0	0	0	0	0	0	0	0	0	0	0	0	0	0
071019	12:24:38	12:31:54	433269	5.0.10.0	5_exp_RW	39	Rpleas_acq	CS_B	VKKV	BZZB	MQQM	JXXJ	YDDY	GWWG	retten	schön	spielen	fair	treu	ehrlich	rächen	schlecht	strafen	faul	tot	eitel	1	acq_USunple_CSunple2_RW	acq4567_RW	4	63	400	1	300	300	444	50	0	0	1	blank2r.bmp	0	1	+	0	1	blank2r.bmp	492	1	JXXJ	492	1	blank2r.bmp	572	3	eitel	866	1	!	1239	1	!	1346	0	0	0	0	0	0	0	0	0	0	0	0	0	0	0	0	0	0	0	0	0	0	0	0	0	0	0	0	0	0
071019	12:24:38	12:31:56	435561	5.0.10.0	5_exp_RW	39	Rpleas_acq	CS_B	VKKV	BZZB	MQQM	JXXJ	YDDY	GWWG	retten	schön	spielen	fair	treu	ehrlich	rächen	schlecht	strafen	faul	tot	eitel	1	acq_USunple_CSunple1_RW	acq4567_RW	4	64	400	0	300	300	519	50	0	0	1	blank2r.bmp	0	1	+	0	1	blank2r.bmp	492	1	MQQM	492	1	blank2r.bmp	572	2	schlecht	866	1	!	1239	1	!	-1	0	0	0	0	0	0	0	0	0	0	0	0	0	0	0	0	0	0	0	0	0	0	0	0	0	0	0	0	0	0
071019	12:24:38	12:32:01	441012	5.0.10.0	5_exp_RW	39	Rpleas_acq	CS_B	VKKV	BZZB	MQQM	JXXJ	YDDY	GWWG	retten	schön	spielen	fair	treu	ehrlich	rächen	schlecht	strafen	faul	tot	eitel	1	acq_USpleas_CSpleas2_RW	acq4567_RW	4	65	400	0	300	300	3667	46	0	0	1	blank2r.bmp	0	1	+	0	1	blank2r.bmp	492	1	BZZB	492	1	blank2r.bmp	572	2	treu	866	1	!	1239	1	!	-1	0	0	0	0	0	0	0	0	0	0	0	0	0	0	0	0	0	0	0	0	0	0	0	0	0	0	0	0	0	0
071019	12:24:38	12:32:04	443251	5.0.10.0	5_exp_RW	39	Rpleas_acq	CS_B	VKKV	BZZB	MQQM	JXXJ	YDDY	GWWG	retten	schön	spielen	fair	treu	ehrlich	rächen	schlecht	strafen	faul	tot	eitel	1	acq_USunple_CSunple2_RW	acq4567_RW	4	66	400	1	300	300	419	46	0	1	1	blank2r.bmp	0	1	+	0	1	blank2r.bmp	492	1	JXXJ	492	1	blank2r.bmp	572	2	tot	866	1	!	1239	1	!	1319	0	0	0	0	0	0	0	0	0	0	0	0	0	0	0	0	0	0	0	0	0	0	0	0	0	0	0	0	0	0
071019	12:24:38	12:32:06	445411	5.0.10.0	5_exp_RW	39	Rpleas_acq	CS_B	VKKV	BZZB	MQQM	JXXJ	YDDY	GWWG	retten	schön	spielen	fair	treu	ehrlich	rächen	schlecht	strafen	faul	tot	eitel	1	acq_USpleas_CSpleas1_RW	acq4567_RW	4	67	400	1	300	300	366	50	0	1	1	blank2r.bmp	0	1	+	0	1	blank2r.bmp	492	1	VKKV	492	1	blank2r.bmp	572	2	schön	866	1	!	1239	1	!	1266	0	0	0	0	0	0	0	0	0	0	0	0	0	0	0	0	0	0	0	0	0	0	0	0	0	0	0	0	0	0
071019	12:24:38	12:32:08	447676	5.0.10.0	5_exp_RW	39	Rpleas_acq	CS_B	VKKV	BZZB	MQQM	JXXJ	YDDY	GWWG	retten	schön	spielen	fair	treu	ehrlich	rächen	schlecht	strafen	faul	tot	eitel	1	acq_USunple_CSunple1_RW	acq4567_RW	4	68	400	1	300	300	460	50	0	0	1	blank2r.bmp	0	1	+	0	1	blank2r.bmp	492	1	MQQM	492	1	blank2r.bmp	572	2	schlecht	866	1	!	1239	1	!	1359	0	0	0	0	0	0	0	0	0	0	0	0	0	0	0	0	0	0	0	0	0	0	0	0	0	0	0	0	0	0
071019	12:24:38	12:32:10	449902	5.0.10.0	5_exp_RW	39	Rpleas_acq	CS_B	VKKV	BZZB	MQQM	JXXJ	YDDY	GWWG	retten	schön	spielen	fair	treu	ehrlich	rächen	schlecht	strafen	faul	tot	eitel	1	acq_USunple_CSunple2_RW	acq4567_RW	4	69	400	1	300	300	428	46	0	1	1	blank2r.bmp	0	1	+	0	1	blank2r.bmp	492	1	JXXJ	492	1	blank2r.bmp	572	1	faul	866	1	!	1239	1	!	1332	0	0	0	0	0	0	0	0	0	0	0	0	0	0	0	0	0	0	0	0	0	0	0	0	0	0	0	0	0	0
071019	12:24:38	12:32:13	452168	5.0.10.0	5_exp_RW	39	Rpleas_acq	CS_B	VKKV	BZZB	MQQM	JXXJ	YDDY	GWWG	retten	schön	spielen	fair	treu	ehrlich	rächen	schlecht	strafen	faul	tot	eitel	1	acq_USpleas_CSpleas2_RW	acq4567_RW	4	70	400	1	300	300	463	50	0	1	1	blank2r.bmp	0	1	+	0	1	blank2r.bmp	492	1	BZZB	492	1	blank2r.bmp	572	3	ehrlich	866	1	!	1239	1	!	1359	0	0	0	0	0	0	0	0	0	0	0	0	0	0	0	0	0	0	0	0	0	0	0	0	0	0	0	0	0	0
071019	12:24:38	12:32:18	457259	5.0.10.0	5_exp_RW	39	Rpleas_acq	CS_B	VKKV	BZZB	MQQM	JXXJ	YDDY	GWWG	retten	schön	spielen	fair	treu	ehrlich	rächen	schlecht	strafen	faul	tot	eitel	1	acq_USpleas_CSpleas2_RW	acq4567_RW	4	71	400	0	300	300	3328	50	0	1	1	blank2r.bmp	0	1	+	0	1	blank2r.bmp	492	1	BZZB	492	1	blank2r.bmp	572	2	treu	866	1	!	1239	1	!	-1	0	0	0	0	0	0	0	0	0	0	0	0	0	0	0	0	0	0	0	0	0	0	0	0	0	0	0	0	0	0
071019	12:24:38	12:32:20	459538	5.0.10.0	5_exp_RW	39	Rpleas_acq	CS_B	VKKV	BZZB	MQQM	JXXJ	YDDY	GWWG	retten	schön	spielen	fair	treu	ehrlich	rächen	schlecht	strafen	faul	tot	eitel	1	acq_USpleas_CSpleas1_RW	acq4567_RW	4	72	400	0	300	300	502	50	0	1	1	blank2r.bmp	0	1	+	0	1	blank2r.bmp	492	1	VKKV	492	1	blank2r.bmp	572	3	spielen	866	1	!	1239	1	!	-1	0	0	0	0	0	0	0	0	0	0	0	0	0	0	0	0	0	0	0	0	0	0	0	0	0	0	0	0	0	0
071019	12:24:38	12:32:22	461750	5.0.10.0	5_exp_RW	39	Rpleas_acq	CS_B	VKKV	BZZB	MQQM	JXXJ	YDDY	GWWG	retten	schön	spielen	fair	treu	ehrlich	rächen	schlecht	strafen	faul	tot	eitel	1	acq_USpleas_CSpleas1_RW	acq4567_RW	4	73	400	1	300	300	407	50	0	1	1	blank2r.bmp	0	1	+	0	1	blank2r.bmp	492	1	VKKV	492	1	blank2r.bmp	572	2	schön	866	1	!	1239	1	!	1306	0	0	0	0	0	0	0	0	0	0	0	0	0	0	0	0	0	0	0	0	0	0	0	0	0	0	0	0	0	0
071019	12:24:38	12:32:24	463963	5.0.10.0	5_exp_RW	39	Rpleas_acq	CS_B	VKKV	BZZB	MQQM	JXXJ	YDDY	GWWG	retten	schön	spielen	fair	treu	ehrlich	rächen	schlecht	strafen	faul	tot	eitel	1	acq_USunple_CSunple2_RW	acq4567_RW	4	74	400	1	300	300	419	50	0	0	1	blank2r.bmp	0	1	+	0	1	blank2r.bmp	492	1	JXXJ	492	1	blank2r.bmp	572	3	eitel	866	1	!	1239	1	!	1319	0	0	0	0	0	0	0	0	0	0	0	0	0	0	0	0	0	0	0	0	0	0	0	0	0	0	0	0	0	0
071019	12:24:38	12:32:27	466295	5.0.10.0	5_exp_RW	39	Rpleas_acq	CS_B	VKKV	BZZB	MQQM	JXXJ	YDDY	GWWG	retten	schön	spielen	fair	treu	ehrlich	rächen	schlecht	strafen	faul	tot	eitel	1	acq_USpleas_CSpleas1_RW	acq4567_RW	4	75	400	0	300	300	559	50	0	1	1	blank2r.bmp	0	1	+	0	1	blank2r.bmp	492	1	VKKV	492	1	blank2r.bmp	572	1	retten	866	1	!	1239	1	!	-1	0	0	0	0	0	0	0	0	0	0	0	0	0	0	0	0	0	0	0	0	0	0	0	0	0	0	0	0	0	0
071019	12:24:38	12:32:38	477903	5.0.10.0	5_exp_RW	39	Rpleas_acq	CS_B	VKKV	BZZB	MQQM	JXXJ	YDDY	GWWG	retten	schön	spielen	fair	treu	ehrlich	rächen	schlecht	strafen	faul	tot	eitel	1	acq_USpleas_CSpleas2_RW	acq4567_RW	4	76	400	0	300	300	9829	50	0	1	1	blank2r.bmp	0	1	+	0	1	blank2r.bmp	492	1	BZZB	492	1	blank2r.bmp	572	3	ehrlich	866	1	!	1239	1	!	-1	0	0	0	0	0	0	0	0	0	0	0	0	0	0	0	0	0	0	0	0	0	0	0	0	0	0	0	0	0	0
071019	12:24:38	12:32:41	480596	5.0.10.0	5_exp_RW	39	Rpleas_acq	CS_B	VKKV	BZZB	MQQM	JXXJ	YDDY	GWWG	retten	schön	spielen	fair	treu	ehrlich	rächen	schlecht	strafen	faul	tot	eitel	1	acq_USunple_CSunple1_RW	acq4567_RW	4	77	400	0	300	300	912	46	0	1	1	blank2r.bmp	0	1	+	0	1	blank2r.bmp	492	1	MQQM	492	1	blank2r.bmp	572	3	strafen	866	1	!	1239	1	!	-1	0	0	0	0	0	0	0	0	0	0	0	0	0	0	0	0	0	0	0	0	0	0	0	0	0	0	0	0	0	0
071019	12:24:38	12:32:43	482901	5.0.10.0	5_exp_RW	39	Rpleas_acq	CS_B	VKKV	BZZB	MQQM	JXXJ	YDDY	GWWG	retten	schön	spielen	fair	treu	ehrlich	rächen	schlecht	strafen	faul	tot	eitel	1	acq_USpleas_CSpleas2_RW	acq4567_RW	4	78	400	0	300	300	531	50	0	1	1	blank2r.bmp	0	1	+	0	1	blank2r.bmp	492	1	BZZB	492	1	blank2r.bmp	572	1	fair	866	1	!	1239	1	!	-1	0	0	0	0	0	0	0	0	0	0	0	0	0	0	0	0	0	0	0	0	0	0	0	0	0	0	0	0	0	0
071019	12:24:38	12:32:46	485167	5.0.10.0	5_exp_RW	39	Rpleas_acq	CS_B	VKKV	BZZB	MQQM	JXXJ	YDDY	GWWG	retten	schön	spielen	fair	treu	ehrlich	rächen	schlecht	strafen	faul	tot	eitel	1	acq_USunple_CSunple1_RW	acq4567_RW	4	79	400	1	300	300	457	46	0	1	1	blank2r.bmp	0	1	+	0	1	blank2r.bmp	492	1	MQQM	492	1	blank2r.bmp	572	1	rächen	866	1	!	1239	1	!	1359	0	0	0	0	0	0	0	0	0	0	0	0	0	0	0	0	0	0	0	0	0	0	0	0	0	0	0	0	0	0
071019	12:24:38	12:32:48	487353	5.0.10.0	5_exp_RW	39	Rpleas_acq	CS_B	VKKV	BZZB	MQQM	JXXJ	YDDY	GWWG	retten	schön	spielen	fair	treu	ehrlich	rächen	schlecht	strafen	faul	tot	eitel	1	acq_USunple_CSunple2_RW	acq4567_RW	4	80	400	1	300	300	386	46	0	1	1	blank2r.bmp	0	1	+	0	1	blank2r.bmp	492	1	JXXJ	492	1	blank2r.bmp	572	2	tot	866	1	!	1239	1	!	1292	0	0	0	0	0	0	0	0	0	0	0	0	0	0	0	0	0	0	0	0	0	0	0	0	0	0	0	0	0	0
071019	12:24:38	12:32:57	496909	5.0.10.0	5_exp_RW	39	Rpleas_acq	CS_B	VKKV	BZZB	MQQM	JXXJ	YDDY	GWWG	retten	schön	spielen	fair	treu	ehrlich	rächen	schlecht	strafen	faul	tot	eitel	1	acq_USpleas_CSpleas2_RW	acq4567_RW	5	1	400	0	300	300	216	50	0	1	1	blank2r.bmp	0	1	+	0	1	blank2r.bmp	492	1	BZZB	492	1	blank2r.bmp	572	1	fair	866	1	!	-1	1	!	-1	0	0	0	0	0	0	0	0	0	0	0	0	0	0	0	0	0	0	0	0	0	0	0	0	0	0	0	0	0	0
071019	12:24:38	12:32:59	499081	5.0.10.0	5_exp_RW	39	Rpleas_acq	CS_B	VKKV	BZZB	MQQM	JXXJ	YDDY	GWWG	retten	schön	spielen	fair	treu	ehrlich	rächen	schlecht	strafen	faul	tot	eitel	1	acq_USpleas_CSpleas2_RW	acq4567_RW	5	2	400	1	300	300	346	46	0	0	1	blank2r.bmp	0	1	+	0	1	blank2r.bmp	492	1	BZZB	492	1	blank2r.bmp	572	2	treu	866	1	!	1239	1	!	1252	0	0	0	0	0	0	0	0	0	0	0	0	0	0	0	0	0	0	0	0	0	0	0	0	0	0	0	0	0	0
071019	12:24:38	12:33:02	501134	5.0.10.0	5_exp_RW	39	Rpleas_acq	CS_B	VKKV	BZZB	MQQM	JXXJ	YDDY	GWWG	retten	schön	spielen	fair	treu	ehrlich	rächen	schlecht	strafen	faul	tot	eitel	1	acq_USpleas_CSpleas1_RW	acq4567_RW	5	3	400	0	300	300	281	50	0	1	1	blank2r.bmp	0	1	+	0	1	blank2r.bmp	492	1	VKKV	492	1	blank2r.bmp	572	2	schön	866	1	!	-1	1	!	-1	0	0	0	0	0	0	0	0	0	0	0	0	0	0	0	0	0	0	0	0	0	0	0	0	0	0	0	0	0	0
071019	12:24:38	12:33:04	503293	5.0.10.0	5_exp_RW	39	Rpleas_acq	CS_B	VKKV	BZZB	MQQM	JXXJ	YDDY	GWWG	retten	schön	spielen	fair	treu	ehrlich	rächen	schlecht	strafen	faul	tot	eitel	1	acq_USpleas_CSpleas1_RW	acq4567_RW	5	4	400	1	300	300	355	50	0	1	1	blank2r.bmp	0	1	+	0	1	blank2r.bmp	492	1	VKKV	492	1	blank2r.bmp	572	3	spielen	866	1	!	1239	1	!	1252	0	0	0	0	0	0	0	0	0	0	0	0	0	0	0	0	0	0	0	0	0	0	0	0	0	0	0	0	0	0
071019	12:24:38	12:33:06	505438	5.0.10.0	5_exp_RW	39	Rpleas_acq	CS_B	VKKV	BZZB	MQQM	JXXJ	YDDY	GWWG	retten	schön	spielen	fair	treu	ehrlich	rächen	schlecht	strafen	faul	tot	eitel	1	acq_USunple_CSunple1_RW	acq4567_RW	5	5	400	1	300	300	353	46	0	1	1	blank2r.bmp	0	1	+	0	1	blank2r.bmp	492	1	MQQM	492	1	blank2r.bmp	572	1	rächen	866	1	!	1239	1	!	1252	0	0	0	0	0	0	0	0	0	0	0	0	0	0	0	0	0	0	0	0	0	0	0	0	0	0	0	0	0	0
071019	12:24:38	12:33:08	507597	5.0.10.0	5_exp_RW	39	Rpleas_acq	CS_B	VKKV	BZZB	MQQM	JXXJ	YDDY	GWWG	retten	schön	spielen	fair	treu	ehrlich	rächen	schlecht	strafen	faul	tot	eitel	1	acq_USunple_CSunple2_RW	acq4567_RW	5	6	400	1	300	300	347	50	0	0	1	blank2r.bmp	0	1	+	0	1	blank2r.bmp	492	1	JXXJ	492	1	blank2r.bmp	572	1	faul	866	1	!	1239	1	!	1252	0	0	0	0	0	0	0	0	0	0	0	0	0	0	0	0	0	0	0	0	0	0	0	0	0	0	0	0	0	0
071019	12:24:38	12:33:10	509850	5.0.10.0	5_exp_RW	39	Rpleas_acq	CS_B	VKKV	BZZB	MQQM	JXXJ	YDDY	GWWG	retten	schön	spielen	fair	treu	ehrlich	rächen	schlecht	strafen	faul	tot	eitel	1	acq_USunple_CSunple2_RW	acq4567_RW	5	7	400	0	300	300	480	46	0	1	1	blank2r.bmp	0	1	+	0	1	blank2r.bmp	492	1	JXXJ	492	1	blank2r.bmp	572	2	tot	866	1	!	1239	1	!	-1	0	0	0	0	0	0	0	0	0	0	0	0	0	0	0	0	0	0	0	0	0	0	0	0	0	0	0	0	0	0
071019	12:24:38	12:33:14	514101	5.0.10.0	5_exp_RW	39	Rpleas_acq	CS_B	VKKV	BZZB	MQQM	JXXJ	YDDY	GWWG	retten	schön	spielen	fair	treu	ehrlich	rächen	schlecht	strafen	faul	tot	eitel	1	acq_USunple_CSunple2_RW	acq4567_RW	5	8	400	0	300	300	2473	46	0	1	1	blank2r.bmp	0	1	+	0	1	blank2r.bmp	492	1	JXXJ	492	1	blank2r.bmp	572	3	eitel	866	1	!	1239	1	!	-1	0	0	0	0	0	0	0	0	0	0	0	0	0	0	0	0	0	0	0	0	0	0	0	0	0	0	0	0	0	0
071019	12:24:38	12:33:17	516487	5.0.10.0	5_exp_RW	39	Rpleas_acq	CS_B	VKKV	BZZB	MQQM	JXXJ	YDDY	GWWG	retten	schön	spielen	fair	treu	ehrlich	rächen	schlecht	strafen	faul	tot	eitel	1	acq_USpleas_CSpleas2_RW	acq4567_RW	5	9	400	0	300	300	599	50	0	1	1	blank2r.bmp	0	1	+	0	1	blank2r.bmp	492	1	BZZB	492	1	blank2r.bmp	572	3	ehrlich	866	1	!	1239	1	!	-1	0	0	0	0	0	0	0	0	0	0	0	0	0	0	0	0	0	0	0	0	0	0	0	0	0	0	0	0	0	0
071019	12:24:38	12:33:19	518873	5.0.10.0	5_exp_RW	39	Rpleas_acq	CS_B	VKKV	BZZB	MQQM	JXXJ	YDDY	GWWG	retten	schön	spielen	fair	treu	ehrlich	rächen	schlecht	strafen	faul	tot	eitel	1	acq_USunple_CSunple2_RW	acq4567_RW	5	10	400	0	300	300	610	46	0	1	1	blank2r.bmp	0	1	+	0	1	blank2r.bmp	492	1	JXXJ	492	1	blank2r.bmp	572	2	tot	866	1	!	1239	1	!	-1	0	0	0	0	0	0	0	0	0	0	0	0	0	0	0	0	0	0	0	0	0	0	0	0	0	0	0	0	0	0
071019	12:24:38	12:33:21	521058	5.0.10.0	5_exp_RW	39	Rpleas_acq	CS_B	VKKV	BZZB	MQQM	JXXJ	YDDY	GWWG	retten	schön	spielen	fair	treu	ehrlich	rächen	schlecht	strafen	faul	tot	eitel	1	acq_USunple_CSunple1_RW	acq4567_RW	5	11	400	1	300	300	360	50	0	0	1	blank2r.bmp	0	1	+	0	1	blank2r.bmp	492	1	MQQM	492	1	blank2r.bmp	572	3	strafen	866	1	!	1239	1	!	1266	0	0	0	0	0	0	0	0	0	0	0	0	0	0	0	0	0	0	0	0	0	0	0	0	0	0	0	0	0	0
071019	12:24:38	12:33:23	522978	5.0.10.0	5_exp_RW	39	Rpleas_acq	CS_B	VKKV	BZZB	MQQM	JXXJ	YDDY	GWWG	retten	schön	spielen	fair	treu	ehrlich	rächen	schlecht	strafen	faul	tot	eitel	1	acq_USpleas_CSpleas1_RW	acq4567_RW	5	12	400	0	300	300	156	50	0	1	1	blank2r.bmp	0	1	+	0	1	blank2r.bmp	492	1	VKKV	492	1	blank2r.bmp	572	1	retten	866	1	!	-1	1	!	-1	0	0	0	0	0	0	0	0	0	0	0	0	0	0	0	0	0	0	0	0	0	0	0	0	0	0	0	0	0	0
071019	12:24:38	12:33:26	525363	5.0.10.0	5_exp_RW	39	Rpleas_acq	CS_B	VKKV	BZZB	MQQM	JXXJ	YDDY	GWWG	retten	schön	spielen	fair	treu	ehrlich	rächen	schlecht	strafen	faul	tot	eitel	1	acq_USunple_CSunple2_RW	acq4567_RW	5	13	400	0	300	300	606	46	0	1	1	blank2r.bmp	0	1	+	0	1	blank2r.bmp	492	1	JXXJ	492	1	blank2r.bmp	572	3	eitel	866	1	!	1239	1	!	-1	0	0	0	0	0	0	0	0	0	0	0	0	0	0	0	0	0	0	0	0	0	0	0	0	0	0	0	0	0	0
071019	12:24:38	12:33:28	527802	5.0.10.0	5_exp_RW	39	Rpleas_acq	CS_B	VKKV	BZZB	MQQM	JXXJ	YDDY	GWWG	retten	schön	spielen	fair	treu	ehrlich	rächen	schlecht	strafen	faul	tot	eitel	1	acq_USpleas_CSpleas1_RW	acq4567_RW	5	14	400	0	300	300	653	50	0	1	1	blank2r.bmp	0	1	+	0	1	blank2r.bmp	492	1	VKKV	492	1	blank2r.bmp	572	3	spielen	866	1	!	1239	1	!	-1	0	0	0	0	0	0	0	0	0	0	0	0	0	0	0	0	0	0	0	0	0	0	0	0	0	0	0	0	0	0
071019	12:24:38	12:33:32	531734	5.0.10.0	5_exp_RW	39	Rpleas_acq	CS_B	VKKV	BZZB	MQQM	JXXJ	YDDY	GWWG	retten	schön	spielen	fair	treu	ehrlich	rächen	schlecht	strafen	faul	tot	eitel	1	acq_USunple_CSunple1_RW	acq4567_RW	5	15	400	0	300	300	2147	46	0	1	1	blank2r.bmp	0	1	+	0	1	blank2r.bmp	492	1	MQQM	492	1	blank2r.bmp	572	2	schlecht	866	1	!	1239	1	!	-1	0	0	0	0	0	0	0	0	0	0	0	0	0	0	0	0	0	0	0	0	0	0	0	0	0	0	0	0	0	0
071019	12:24:38	12:33:34	533946	5.0.10.0	5_exp_RW	39	Rpleas_acq	CS_B	VKKV	BZZB	MQQM	JXXJ	YDDY	GWWG	retten	schön	spielen	fair	treu	ehrlich	rächen	schlecht	strafen	faul	tot	eitel	1	acq_USunple_CSunple1_RW	acq4567_RW	5	16	400	1	300	300	411	50	0	0	1	blank2r.bmp	0	1	+	0	1	blank2r.bmp	492	1	MQQM	492	1	blank2r.bmp	572	1	rächen	866	1	!	1239	1	!	1306	0	0	0	0	0	0	0	0	0	0	0	0	0	0	0	0	0	0	0	0	0	0	0	0	0	0	0	0	0	0
071019	12:24:38	12:33:37	536745	5.0.10.0	5_exp_RW	39	Rpleas_acq	CS_B	VKKV	BZZB	MQQM	JXXJ	YDDY	GWWG	retten	schön	spielen	fair	treu	ehrlich	rächen	schlecht	strafen	faul	tot	eitel	1	acq_USpleas_CSpleas2_RW	acq4567_RW	5	17	400	0	300	300	1032	50	0	1	1	blank2r.bmp	0	1	+	0	1	blank2r.bmp	492	1	BZZB	492	1	blank2r.bmp	572	3	ehrlich	866	1	!	1239	1	!	-1	0	0	0	0	0	0	0	0	0	0	0	0	0	0	0	0	0	0	0	0	0	0	0	0	0	0	0	0	0	0
071019	12:24:38	12:33:39	538998	5.0.10.0	5_exp_RW	39	Rpleas_acq	CS_B	VKKV	BZZB	MQQM	JXXJ	YDDY	GWWG	retten	schön	spielen	fair	treu	ehrlich	rächen	schlecht	strafen	faul	tot	eitel	1	acq_USunple_CSunple1_RW	acq4567_RW	5	18	400	1	300	300	446	46	0	1	1	blank2r.bmp	0	1	+	0	1	blank2r.bmp	492	1	MQQM	492	1	blank2r.bmp	572	3	strafen	866	1	!	1239	1	!	1346	0	0	0	0	0	0	0	0	0	0	0	0	0	0	0	0	0	0	0	0	0	0	0	0	0	0	0	0	0	0
071019	12:24:38	12:33:41	540930	5.0.10.0	5_exp_RW	39	Rpleas_acq	CS_B	VKKV	BZZB	MQQM	JXXJ	YDDY	GWWG	retten	schön	spielen	fair	treu	ehrlich	rächen	schlecht	strafen	faul	tot	eitel	1	acq_USpleas_CSpleas1_RW	acq4567_RW	5	19	400	0	300	300	167	50	0	1	1	blank2r.bmp	0	1	+	0	1	blank2r.bmp	492	1	VKKV	492	1	blank2r.bmp	572	2	schön	866	1	!	-1	1	!	-1	0	0	0	0	0	0	0	0	0	0	0	0	0	0	0	0	0	0	0	0	0	0	0	0	0	0	0	0	0	0
071019	12:24:38	12:33:43	543116	5.0.10.0	5_exp_RW	39	Rpleas_acq	CS_B	VKKV	BZZB	MQQM	JXXJ	YDDY	GWWG	retten	schön	spielen	fair	treu	ehrlich	rächen	schlecht	strafen	faul	tot	eitel	1	acq_USpleas_CSpleas2_RW	acq4567_RW	5	20	400	1	300	300	367	50	0	1	1	blank2r.bmp	0	1	+	0	1	blank2r.bmp	492	1	BZZB	492	1	blank2r.bmp	572	1	fair	866	1	!	1239	1	!	1266	0	0	0	0	0	0	0	0	0	0	0	0	0	0	0	0	0	0	0	0	0	0	0	0	0	0	0	0	0	0
071019	12:24:38	12:33:46	545275	5.0.10.0	5_exp_RW	39	Rpleas_acq	CS_B	VKKV	BZZB	MQQM	JXXJ	YDDY	GWWG	retten	schön	spielen	fair	treu	ehrlich	rächen	schlecht	strafen	faul	tot	eitel	1	acq_USpleas_CSpleas1_RW	acq4567_RW	5	21	400	1	300	300	362	50	0	1	1	blank2r.bmp	0	1	+	0	1	blank2r.bmp	492	1	VKKV	492	1	blank2r.bmp	572	1	retten	866	1	!	1239	1	!	1266	0	0	0	0	0	0	0	0	0	0	0	0	0	0	0	0	0	0	0	0	0	0	0	0	0	0	0	0	0	0
071019	12:24:38	12:33:48	547581	5.0.10.0	5_exp_RW	39	Rpleas_acq	CS_B	VKKV	BZZB	MQQM	JXXJ	YDDY	GWWG	retten	schön	spielen	fair	treu	ehrlich	rächen	schlecht	strafen	faul	tot	eitel	1	acq_USunple_CSunple1_RW	acq4567_RW	5	22	400	0	300	300	543	46	0	1	1	blank2r.bmp	0	1	+	0	1	blank2r.bmp	492	1	MQQM	492	1	blank2r.bmp	572	2	schlecht	866	1	!	1239	1	!	-1	0	0	0	0	0	0	0	0	0	0	0	0	0	0	0	0	0	0	0	0	0	0	0	0	0	0	0	0	0	0
071019	12:24:38	12:33:50	549886	5.0.10.0	5_exp_RW	39	Rpleas_acq	CS_B	VKKV	BZZB	MQQM	JXXJ	YDDY	GWWG	retten	schön	spielen	fair	treu	ehrlich	rächen	schlecht	strafen	faul	tot	eitel	1	acq_USpleas_CSpleas2_RW	acq4567_RW	5	23	400	0	300	300	524	50	0	1	1	blank2r.bmp	0	1	+	0	1	blank2r.bmp	492	1	BZZB	492	1	blank2r.bmp	572	2	treu	866	1	!	1239	1	!	-1	0	0	0	0	0	0	0	0	0	0	0	0	0	0	0	0	0	0	0	0	0	0	0	0	0	0	0	0	0	0
071019	12:24:38	12:33:54	553591	5.0.10.0	5_exp_RW	39	Rpleas_acq	CS_B	VKKV	BZZB	MQQM	JXXJ	YDDY	GWWG	retten	schön	spielen	fair	treu	ehrlich	rächen	schlecht	strafen	faul	tot	eitel	1	acq_USpleas_CSpleas1_RW	acq4567_RW	5	24	400	0	300	300	1908	50	0	1	1	blank2r.bmp	0	1	+	0	1	blank2r.bmp	492	1	VKKV	492	1	blank2r.bmp	572	2	schön	866	1	!	1239	1	!	-1	0	0	0	0	0	0	0	0	0	0	0	0	0	0	0	0	0	0	0	0	0	0	0	0	0	0	0	0	0	0
071019	12:24:38	12:33:56	555870	5.0.10.0	5_exp_RW	39	Rpleas_acq	CS_B	VKKV	BZZB	MQQM	JXXJ	YDDY	GWWG	retten	schön	spielen	fair	treu	ehrlich	rächen	schlecht	strafen	faul	tot	eitel	1	acq_USunple_CSunple2_RW	acq4567_RW	5	25	400	0	300	300	505	46	0	1	1	blank2r.bmp	0	1	+	0	1	blank2r.bmp	492	1	JXXJ	492	1	blank2r.bmp	572	1	faul	866	1	!	1239	1	!	-1	0	0	0	0	0	0	0	0	0	0	0	0	0	0	0	0	0	0	0	0	0	0	0	0	0	0	0	0	0	0
071019	12:24:38	12:33:59	558256	5.0.10.0	5_exp_RW	39	Rpleas_acq	CS_B	VKKV	BZZB	MQQM	JXXJ	YDDY	GWWG	retten	schön	spielen	fair	treu	ehrlich	rächen	schlecht	strafen	faul	tot	eitel	1	acq_USunple_CSunple1_RW	acq4567_RW	5	26	400	0	300	300	609	46	0	1	1	blank2r.bmp	0	1	+	0	1	blank2r.bmp	492	1	MQQM	492	1	blank2r.bmp	572	1	rächen	866	1	!	1239	1	!	-1	0	0	0	0	0	0	0	0	0	0	0	0	0	0	0	0	0	0	0	0	0	0	0	0	0	0	0	0	0	0
071019	12:24:38	12:34:02	561188	5.0.10.0	5_exp_RW	39	Rpleas_acq	CS_B	VKKV	BZZB	MQQM	JXXJ	YDDY	GWWG	retten	schön	spielen	fair	treu	ehrlich	rächen	schlecht	strafen	faul	tot	eitel	1	acq_USpleas_CSpleas2_RW	acq4567_RW	5	27	400	0	300	300	1145	46	0	0	1	blank2r.bmp	0	1	+	0	1	blank2r.bmp	492	1	BZZB	492	1	blank2r.bmp	572	2	treu	866	1	!	1239	1	!	-1	0	0	0	0	0	0	0	0	0	0	0	0	0	0	0	0	0	0	0	0	0	0	0	0	0	0	0	0	0	0
071019	12:24:38	12:34:05	564547	5.0.10.0	5_exp_RW	39	Rpleas_acq	CS_B	VKKV	BZZB	MQQM	JXXJ	YDDY	GWWG	retten	schön	spielen	fair	treu	ehrlich	rächen	schlecht	strafen	faul	tot	eitel	1	acq_USunple_CSunple2_RW	acq4567_RW	5	28	400	0	300	300	1582	46	0	1	1	blank2r.bmp	0	1	+	0	1	blank2r.bmp	492	1	JXXJ	492	1	blank2r.bmp	572	1	faul	866	1	!	1239	1	!	-1	0	0	0	0	0	0	0	0	0	0	0	0	0	0	0	0	0	0	0	0	0	0	0	0	0	0	0	0	0	0
071019	12:24:38	12:34:07	567106	5.0.10.0	5_exp_RW	39	Rpleas_acq	CS_B	VKKV	BZZB	MQQM	JXXJ	YDDY	GWWG	retten	schön	spielen	fair	treu	ehrlich	rächen	schlecht	strafen	faul	tot	eitel	1	acq_USpleas_CSpleas1_RW	acq4567_RW	5	29	400	0	300	300	780	50	0	1	1	blank2r.bmp	0	1	+	0	1	blank2r.bmp	492	1	VKKV	492	1	blank2r.bmp	572	3	spielen	866	1	!	1239	1	!	-1	0	0	0	0	0	0	0	0	0	0	0	0	0	0	0	0	0	0	0	0	0	0	0	0	0	0	0	0	0	0
071019	12:24:38	12:34:10	569385	5.0.10.0	5_exp_RW	39	Rpleas_acq	CS_B	VKKV	BZZB	MQQM	JXXJ	YDDY	GWWG	retten	schön	spielen	fair	treu	ehrlich	rächen	schlecht	strafen	faul	tot	eitel	1	acq_USunple_CSunple2_RW	acq4567_RW	5	30	400	0	300	300	494	46	0	1	1	blank2r.bmp	0	1	+	0	1	blank2r.bmp	492	1	JXXJ	492	1	blank2r.bmp	572	2	tot	866	1	!	1239	1	!	-1	0	0	0	0	0	0	0	0	0	0	0	0	0	0	0	0	0	0	0	0	0	0	0	0	0	0	0	0	0	0
071019	12:24:38	12:34:14	573236	5.0.10.0	5_exp_RW	39	Rpleas_acq	CS_B	VKKV	BZZB	MQQM	JXXJ	YDDY	GWWG	retten	schön	spielen	fair	treu	ehrlich	rächen	schlecht	strafen	faul	tot	eitel	1	acq_USpleas_CSpleas2_RW	acq4567_RW	5	31	400	0	300	300	2058	46	0	0	1	blank2r.bmp	0	1	+	0	1	blank2r.bmp	492	1	BZZB	492	1	blank2r.bmp	572	1	fair	866	1	!	1239	1	!	-1	0	0	0	0	0	0	0	0	0	0	0	0	0	0	0	0	0	0	0	0	0	0	0	0	0	0	0	0	0	0
071019	12:24:38	12:34:17	576648	5.0.10.0	5_exp_RW	39	Rpleas_acq	CS_B	VKKV	BZZB	MQQM	JXXJ	YDDY	GWWG	retten	schön	spielen	fair	treu	ehrlich	rächen	schlecht	strafen	faul	tot	eitel	1	acq_USunple_CSunple1_RW	acq4567_RW	5	32	400	0	300	300	1629	46	0	1	1	blank2r.bmp	0	1	+	0	1	blank2r.bmp	492	1	MQQM	492	1	blank2r.bmp	572	3	strafen	866	1	!	1239	1	!	-1	0	0	0	0	0	0	0	0	0	0	0	0	0	0	0	0	0	0	0	0	0	0	0	0	0	0	0	0	0	0
071019	12:24:38	12:34:22	581966	5.0.10.0	5_exp_RW	39	Rpleas_acq	CS_B	VKKV	BZZB	MQQM	JXXJ	YDDY	GWWG	retten	schön	spielen	fair	treu	ehrlich	rächen	schlecht	strafen	faul	tot	eitel	1	acq_USpleas_CSpleas2_RW	acq4567_RW	5	33	400	0	300	300	3531	50	0	1	1	blank2r.bmp	0	1	+	0	1	blank2r.bmp	492	1	BZZB	492	1	blank2r.bmp	572	3	ehrlich	866	1	!	1239	1	!	-1	0	0	0	0	0	0	0	0	0	0	0	0	0	0	0	0	0	0	0	0	0	0	0	0	0	0	0	0	0	0
071019	12:24:38	12:34:25	584632	5.0.10.0	5_exp_RW	39	Rpleas_acq	CS_B	VKKV	BZZB	MQQM	JXXJ	YDDY	GWWG	retten	schön	spielen	fair	treu	ehrlich	rächen	schlecht	strafen	faul	tot	eitel	1	acq_USunple_CSunple1_RW	acq4567_RW	5	34	400	0	300	300	879	46	0	1	1	blank2r.bmp	0	1	+	0	1	blank2r.bmp	492	1	MQQM	492	1	blank2r.bmp	572	2	schlecht	866	1	!	1239	1	!	-1	0	0	0	0	0	0	0	0	0	0	0	0	0	0	0	0	0	0	0	0	0	0	0	0	0	0	0	0	0	0
071019	12:24:38	12:34:28	587550	5.0.10.0	5_exp_RW	39	Rpleas_acq	CS_B	VKKV	BZZB	MQQM	JXXJ	YDDY	GWWG	retten	schön	spielen	fair	treu	ehrlich	rächen	schlecht	strafen	faul	tot	eitel	1	acq_USunple_CSunple1_RW	acq4567_RW	5	35	400	0	300	300	1137	50	0	0	1	blank2r.bmp	0	1	+	0	1	blank2r.bmp	492	1	MQQM	492	1	blank2r.bmp	572	2	schlecht	866	1	!	1239	1	!	-1	0	0	0	0	0	0	0	0	0	0	0	0	0	0	0	0	0	0	0	0	0	0	0	0	0	0	0	0	0	0
071019	12:24:38	12:34:30	589949	5.0.10.0	5_exp_RW	39	Rpleas_acq	CS_B	VKKV	BZZB	MQQM	JXXJ	YDDY	GWWG	retten	schön	spielen	fair	treu	ehrlich	rächen	schlecht	strafen	faul	tot	eitel	1	acq_USpleas_CSpleas1_RW	acq4567_RW	5	36	400	0	300	300	619	50	0	1	1	blank2r.bmp	0	1	+	0	1	blank2r.bmp	492	1	VKKV	492	1	blank2r.bmp	572	1	retten	866	1	!	1239	1	!	-1	0	0	0	0	0	0	0	0	0	0	0	0	0	0	0	0	0	0	0	0	0	0	0	0	0	0	0	0	0	0
071019	12:24:38	12:34:33	592362	5.0.10.0	5_exp_RW	39	Rpleas_acq	CS_B	VKKV	BZZB	MQQM	JXXJ	YDDY	GWWG	retten	schön	spielen	fair	treu	ehrlich	rächen	schlecht	strafen	faul	tot	eitel	1	acq_USunple_CSunple2_RW	acq4567_RW	5	37	400	0	300	300	628	46	0	1	1	blank2r.bmp	0	1	+	0	1	blank2r.bmp	492	1	JXXJ	492	1	blank2r.bmp	572	3	eitel	866	1	!	1239	1	!	-1	0	0	0	0	0	0	0	0	0	0	0	0	0	0	0	0	0	0	0	0	0	0	0	0	0	0	0	0	0	0
071019	12:24:38	12:34:37	597120	5.0.10.0	5_exp_RW	39	Rpleas_acq	CS_B	VKKV	BZZB	MQQM	JXXJ	YDDY	GWWG	retten	schön	spielen	fair	treu	ehrlich	rächen	schlecht	strafen	faul	tot	eitel	1	acq_USpleas_CSpleas2_RW	acq4567_RW	5	38	400	0	300	300	2978	50	0	1	1	blank2r.bmp	0	1	+	0	1	blank2r.bmp	492	1	BZZB	492	1	blank2r.bmp	572	2	treu	866	1	!	1239	1	!	-1	0	0	0	0	0	0	0	0	0	0	0	0	0	0	0	0	0	0	0	0	0	0	0	0	0	0	0	0	0	0
071019	12:24:38	12:34:42	601371	5.0.10.0	5_exp_RW	39	Rpleas_acq	CS_B	VKKV	BZZB	MQQM	JXXJ	YDDY	GWWG	retten	schön	spielen	fair	treu	ehrlich	rächen	schlecht	strafen	faul	tot	eitel	1	acq_USunple_CSunple2_RW	acq4567_RW	5	39	400	0	300	300	2464	46	0	1	1	blank2r.bmp	0	1	+	0	1	blank2r.bmp	492	1	JXXJ	492	1	blank2r.bmp	572	2	tot	866	1	!	1239	1	!	-1	0	0	0	0	0	0	0	0	0	0	0	0	0	0	0	0	0	0	0	0	0	0	0	0	0	0	0	0	0	0
071019	12:24:38	12:34:49	608355	5.0.10.0	5_exp_RW	39	Rpleas_acq	CS_B	VKKV	BZZB	MQQM	JXXJ	YDDY	GWWG	retten	schön	spielen	fair	treu	ehrlich	rächen	schlecht	strafen	faul	tot	eitel	1	acq_USpleas_CSpleas1_RW	acq4567_RW	5	40	400	0	300	300	5198	46	0	0	1	blank2r.bmp	0	1	+	0	1	blank2r.bmp	492	1	VKKV	492	1	blank2r.bmp	572	3	spielen	866	1	!	1239	1	!	-1	0	0	0	0	0	0	0	0	0	0	0	0	0	0	0	0	0	0	0	0	0	0	0	0	0	0	0	0	0	0
071019	12:24:38	12:34:53	613019	5.0.10.0	5_exp_RW	39	Rpleas_acq	CS_B	VKKV	BZZB	MQQM	JXXJ	YDDY	GWWG	retten	schön	spielen	fair	treu	ehrlich	rächen	schlecht	strafen	faul	tot	eitel	1	acq_USpleas_CSpleas2_RW	acq4567_RW	5	41	400	0	300	300	2890	50	0	1	1	blank2r.bmp	0	1	+	0	1	blank2r.bmp	492	1	BZZB	492	1	blank2r.bmp	572	1	fair	866	1	!	1239	1	!	-1	0	0	0	0	0	0	0	0	0	0	0	0	0	0	0	0	0	0	0	0	0	0	0	0	0	0	0	0	0	0
071019	12:24:38	12:34:56	615418	5.0.10.0	5_exp_RW	39	Rpleas_acq	CS_B	VKKV	BZZB	MQQM	JXXJ	YDDY	GWWG	retten	schön	spielen	fair	treu	ehrlich	rächen	schlecht	strafen	faul	tot	eitel	1	acq_USunple_CSunple2_RW	acq4567_RW	5	42	400	0	300	300	616	46	0	1	1	blank2r.bmp	0	1	+	0	1	blank2r.bmp	492	1	JXXJ	492	1	blank2r.bmp	572	1	faul	866	1	!	1239	1	!	-1	0	0	0	0	0	0	0	0	0	0	0	0	0	0	0	0	0	0	0	0	0	0	0	0	0	0	0	0	0	0
071019	12:24:38	12:34:58	618124	5.0.10.0	5_exp_RW	39	Rpleas_acq	CS_B	VKKV	BZZB	MQQM	JXXJ	YDDY	GWWG	retten	schön	spielen	fair	treu	ehrlich	rächen	schlecht	strafen	faul	tot	eitel	1	acq_USunple_CSunple1_RW	acq4567_RW	5	43	400	0	300	300	925	46	0	1	1	blank2r.bmp	0	1	+	0	1	blank2r.bmp	492	1	MQQM	492	1	blank2r.bmp	572	3	strafen	866	1	!	1239	1	!	-1	0	0	0	0	0	0	0	0	0	0	0	0	0	0	0	0	0	0	0	0	0	0	0	0	0	0	0	0	0	0
071019	12:24:38	12:35:01	620723	5.0.10.0	5_exp_RW	39	Rpleas_acq	CS_B	VKKV	BZZB	MQQM	JXXJ	YDDY	GWWG	retten	schön	spielen	fair	treu	ehrlich	rächen	schlecht	strafen	faul	tot	eitel	1	acq_USpleas_CSpleas2_RW	acq4567_RW	5	44	400	0	300	300	822	50	0	1	1	blank2r.bmp	0	1	+	0	1	blank2r.bmp	492	1	BZZB	492	1	blank2r.bmp	572	3	ehrlich	866	1	!	1239	1	!	-1	0	0	0	0	0	0	0	0	0	0	0	0	0	0	0	0	0	0	0	0	0	0	0	0	0	0	0	0	0	0
071019	12:24:38	12:35:04	623495	5.0.10.0	5_exp_RW	39	Rpleas_acq	CS_B	VKKV	BZZB	MQQM	JXXJ	YDDY	GWWG	retten	schön	spielen	fair	treu	ehrlich	rächen	schlecht	strafen	faul	tot	eitel	1	acq_USunple_CSunple1_RW	acq4567_RW	5	45	400	0	300	300	973	46	0	1	1	blank2r.bmp	0	1	+	0	1	blank2r.bmp	492	1	MQQM	492	1	blank2r.bmp	572	1	rächen	866	1	!	1239	1	!	-1	0	0	0	0	0	0	0	0	0	0	0	0	0	0	0	0	0	0	0	0	0	0	0	0	0	0	0	0	0	0
071019	12:24:38	12:35:06	625827	5.0.10.0	5_exp_RW	39	Rpleas_acq	CS_B	VKKV	BZZB	MQQM	JXXJ	YDDY	GWWG	retten	schön	spielen	fair	treu	ehrlich	rächen	schlecht	strafen	faul	tot	eitel	1	acq_USpleas_CSpleas2_RW	acq4567_RW	5	46	400	0	300	300	545	50	0	1	1	blank2r.bmp	0	1	+	0	1	blank2r.bmp	492	1	BZZB	492	1	blank2r.bmp	572	2	treu	866	1	!	1239	1	!	-1	0	0	0	0	0	0	0	0	0	0	0	0	0	0	0	0	0	0	0	0	0	0	0	0	0	0	0	0	0	0
071019	12:24:38	12:35:11	630572	5.0.10.0	5_exp_RW	39	Rpleas_acq	CS_B	VKKV	BZZB	MQQM	JXXJ	YDDY	GWWG	retten	schön	spielen	fair	treu	ehrlich	rächen	schlecht	strafen	faul	tot	eitel	1	acq_USunple_CSunple1_RW	acq4567_RW	5	47	400	0	300	300	2968	46	0	1	1	blank2r.bmp	0	1	+	0	1	blank2r.bmp	492	1	MQQM	492	1	blank2r.bmp	572	1	rächen	866	1	!	1239	1	!	-1	0	0	0	0	0	0	0	0	0	0	0	0	0	0	0	0	0	0	0	0	0	0	0	0	0	0	0	0	0	0
071019	12:24:38	12:35:14	633864	5.0.10.0	5_exp_RW	39	Rpleas_acq	CS_B	VKKV	BZZB	MQQM	JXXJ	YDDY	GWWG	retten	schön	spielen	fair	treu	ehrlich	rächen	schlecht	strafen	faul	tot	eitel	1	acq_USunple_CSunple1_RW	acq4567_RW	5	48	400	0	300	300	1516	46	0	1	1	blank2r.bmp	0	1	+	0	1	blank2r.bmp	492	1	MQQM	492	1	blank2r.bmp	572	2	schlecht	866	1	!	1239	1	!	-1	0	0	0	0	0	0	0	0	0	0	0	0	0	0	0	0	0	0	0	0	0	0	0	0	0	0	0	0	0	0
071019	12:24:38	12:35:17	636316	5.0.10.0	5_exp_RW	39	Rpleas_acq	CS_B	VKKV	BZZB	MQQM	JXXJ	YDDY	GWWG	retten	schön	spielen	fair	treu	ehrlich	rächen	schlecht	strafen	faul	tot	eitel	1	acq_USpleas_CSpleas1_RW	acq4567_RW	5	49	400	0	300	300	669	50	0	1	1	blank2r.bmp	0	1	+	0	1	blank2r.bmp	492	1	VKKV	492	1	blank2r.bmp	572	1	retten	866	1	!	1239	1	!	-1	0	0	0	0	0	0	0	0	0	0	0	0	0	0	0	0	0	0	0	0	0	0	0	0	0	0	0	0	0	0
071019	12:24:38	12:35:19	638622	5.0.10.0	5_exp_RW	39	Rpleas_acq	CS_B	VKKV	BZZB	MQQM	JXXJ	YDDY	GWWG	retten	schön	spielen	fair	treu	ehrlich	rächen	schlecht	strafen	faul	tot	eitel	1	acq_USunple_CSunple2_RW	acq4567_RW	5	50	400	0	300	300	530	46	0	1	1	blank2r.bmp	0	1	+	0	1	blank2r.bmp	492	1	JXXJ	492	1	blank2r.bmp	572	3	eitel	866	1	!	1239	1	!	-1	0	0	0	0	0	0	0	0	0	0	0	0	0	0	0	0	0	0	0	0	0	0	0	0	0	0	0	0	0	0
071019	12:24:38	12:35:21	640981	5.0.10.0	5_exp_RW	39	Rpleas_acq	CS_B	VKKV	BZZB	MQQM	JXXJ	YDDY	GWWG	retten	schön	spielen	fair	treu	ehrlich	rächen	schlecht	strafen	faul	tot	eitel	1	acq_USunple_CSunple2_RW	acq4567_RW	5	51	400	0	300	300	576	46	0	1	1	blank2r.bmp	0	1	+	0	1	blank2r.bmp	492	1	JXXJ	492	1	blank2r.bmp	572	1	faul	866	1	!	1239	1	!	-1	0	0	0	0	0	0	0	0	0	0	0	0	0	0	0	0	0	0	0	0	0	0	0	0	0	0	0	0	0	0
071019	12:24:38	12:35:24	643273	5.0.10.0	5_exp_RW	39	Rpleas_acq	CS_B	VKKV	BZZB	MQQM	JXXJ	YDDY	GWWG	retten	schön	spielen	fair	treu	ehrlich	rächen	schlecht	strafen	faul	tot	eitel	1	acq_USunple_CSunple2_RW	acq4567_RW	5	52	400	0	300	300	515	46	0	1	1	blank2r.bmp	0	1	+	0	1	blank2r.bmp	492	1	JXXJ	492	1	blank2r.bmp	572	3	eitel	866	1	!	1239	1	!	-1	0	0	0	0	0	0	0	0	0	0	0	0	0	0	0	0	0	0	0	0	0	0	0	0	0	0	0	0	0	0
071019	12:24:38	12:35:26	645486	5.0.10.0	5_exp_RW	39	Rpleas_acq	CS_B	VKKV	BZZB	MQQM	JXXJ	YDDY	GWWG	retten	schön	spielen	fair	treu	ehrlich	rächen	schlecht	strafen	faul	tot	eitel	1	acq_USpleas_CSpleas1_RW	acq4567_RW	5	53	400	1	300	300	408	50	0	1	1	blank2r.bmp	0	1	+	0	1	blank2r.bmp	492	1	VKKV	492	1	blank2r.bmp	572	2	schön	866	1	!	1239	1	!	1306	0	0	0	0	0	0	0	0	0	0	0	0	0	0	0	0	0	0	0	0	0	0	0	0	0	0	0	0	0	0
071019	12:24:38	12:35:29	648285	5.0.10.0	5_exp_RW	39	Rpleas_acq	CS_B	VKKV	BZZB	MQQM	JXXJ	YDDY	GWWG	retten	schön	spielen	fair	treu	ehrlich	rächen	schlecht	strafen	faul	tot	eitel	1	acq_USpleas_CSpleas1_RW	acq4567_RW	5	54	400	0	300	300	1025	50	0	1	1	blank2r.bmp	0	1	+	0	1	blank2r.bmp	492	1	VKKV	492	1	blank2r.bmp	572	1	retten	866	1	!	1239	1	!	-1	0	0	0	0	0	0	0	0	0	0	0	0	0	0	0	0	0	0	0	0	0	0	0	0	0	0	0	0	0	0
071019	12:24:38	12:35:31	650644	5.0.10.0	5_exp_RW	39	Rpleas_acq	CS_B	VKKV	BZZB	MQQM	JXXJ	YDDY	GWWG	retten	schön	spielen	fair	treu	ehrlich	rächen	schlecht	strafen	faul	tot	eitel	1	acq_USpleas_CSpleas2_RW	acq4567_RW	5	55	400	0	300	300	574	50	0	1	1	blank2r.bmp	0	1	+	0	1	blank2r.bmp	492	1	BZZB	492	1	blank2r.bmp	572	1	fair	866	1	!	1239	1	!	-1	0	0	0	0	0	0	0	0	0	0	0	0	0	0	0	0	0	0	0	0	0	0	0	0	0	0	0	0	0	0
071019	12:24:38	12:35:33	652816	5.0.10.0	5_exp_RW	39	Rpleas_acq	CS_B	VKKV	BZZB	MQQM	JXXJ	YDDY	GWWG	retten	schön	spielen	fair	treu	ehrlich	rächen	schlecht	strafen	faul	tot	eitel	1	acq_USpleas_CSpleas1_RW	acq4567_RW	5	56	400	1	300	300	351	50	0	1	1	blank2r.bmp	0	1	+	0	1	blank2r.bmp	492	1	VKKV	492	1	blank2r.bmp	572	2	schön	866	1	!	1239	1	!	1252	0	0	0	0	0	0	0	0	0	0	0	0	0	0	0	0	0	0	0	0	0	0	0	0	0	0	0	0	0	0
071019	12:24:38	12:35:35	655108	5.0.10.0	5_exp_RW	39	Rpleas_acq	CS_B	VKKV	BZZB	MQQM	JXXJ	YDDY	GWWG	retten	schön	spielen	fair	treu	ehrlich	rächen	schlecht	strafen	faul	tot	eitel	1	acq_USpleas_CSpleas2_RW	acq4567_RW	5	57	400	0	300	300	522	50	0	1	1	blank2r.bmp	0	1	+	0	1	blank2r.bmp	492	1	BZZB	492	1	blank2r.bmp	572	3	ehrlich	866	1	!	1239	1	!	-1	0	0	0	0	0	0	0	0	0	0	0	0	0	0	0	0	0	0	0	0	0	0	0	0	0	0	0	0	0	0
071019	12:24:38	12:35:37	657054	5.0.10.0	5_exp_RW	39	Rpleas_acq	CS_B	VKKV	BZZB	MQQM	JXXJ	YDDY	GWWG	retten	schön	spielen	fair	treu	ehrlich	rächen	schlecht	strafen	faul	tot	eitel	1	acq_USunple_CSunple2_RW	acq4567_RW	5	58	400	0	300	300	168	50	0	0	1	blank2r.bmp	0	1	+	0	1	blank2r.bmp	492	1	JXXJ	492	1	blank2r.bmp	572	2	tot	866	1	!	-1	1	!	-1	0	0	0	0	0	0	0	0	0	0	0	0	0	0	0	0	0	0	0	0	0	0	0	0	0	0	0	0	0	0
071019	12:24:38	12:35:40	660080	5.0.10.0	5_exp_RW	39	Rpleas_acq	CS_B	VKKV	BZZB	MQQM	JXXJ	YDDY	GWWG	retten	schön	spielen	fair	treu	ehrlich	rächen	schlecht	strafen	faul	tot	eitel	1	acq_USpleas_CSpleas1_RW	acq4567_RW	5	59	400	0	300	300	1240	50	0	1	1	blank2r.bmp	0	1	+	0	1	blank2r.bmp	492	1	VKKV	492	1	blank2r.bmp	572	3	spielen	866	1	!	1239	1	!	-1	0	0	0	0	0	0	0	0	0	0	0	0	0	0	0	0	0	0	0	0	0	0	0	0	0	0	0	0	0	0
071019	12:24:38	12:35:44	663332	5.0.10.0	5_exp_RW	39	Rpleas_acq	CS_B	VKKV	BZZB	MQQM	JXXJ	YDDY	GWWG	retten	schön	spielen	fair	treu	ehrlich	rächen	schlecht	strafen	faul	tot	eitel	1	acq_USunple_CSunple1_RW	acq4567_RW	5	60	400	0	300	300	1468	46	0	1	1	blank2r.bmp	0	1	+	0	1	blank2r.bmp	492	1	MQQM	492	1	blank2r.bmp	572	3	strafen	866	1	!	1239	1	!	-1	0	0	0	0	0	0	0	0	0	0	0	0	0	0	0	0	0	0	0	0	0	0	0	0	0	0	0	0	0	0
071019	12:24:38	12:35:46	665970	5.0.10.0	5_exp_RW	39	Rpleas_acq	CS_B	VKKV	BZZB	MQQM	JXXJ	YDDY	GWWG	retten	schön	spielen	fair	treu	ehrlich	rächen	schlecht	strafen	faul	tot	eitel	1	acq_USpleas_CSpleas1_RW	acq4567_RW	5	61	400	0	300	300	851	50	0	1	1	blank2r.bmp	0	1	+	0	1	blank2r.bmp	492	1	VKKV	492	1	blank2r.bmp	572	2	schön	866	1	!	1239	1	!	-1	0	0	0	0	0	0	0	0	0	0	0	0	0	0	0	0	0	0	0	0	0	0	0	0	0	0	0	0	0	0
071019	12:24:38	12:35:48	668076	5.0.10.0	5_exp_RW	39	Rpleas_acq	CS_B	VKKV	BZZB	MQQM	JXXJ	YDDY	GWWG	retten	schön	spielen	fair	treu	ehrlich	rächen	schlecht	strafen	faul	tot	eitel	1	acq_USunple_CSunple1_RW	acq4567_RW	5	62	400	0	300	300	331	50	0	0	1	blank2r.bmp	0	1	+	0	1	blank2r.bmp	492	1	MQQM	492	1	blank2r.bmp	572	1	rächen	866	1	!	-1	1	!	-1	0	0	0	0	0	0	0	0	0	0	0	0	0	0	0	0	0	0	0	0	0	0	0	0	0	0	0	0	0	0
071019	12:24:38	12:35:51	670742	5.0.10.0	5_exp_RW	39	Rpleas_acq	CS_B	VKKV	BZZB	MQQM	JXXJ	YDDY	GWWG	retten	schön	spielen	fair	treu	ehrlich	rächen	schlecht	strafen	faul	tot	eitel	1	acq_USpleas_CSpleas1_RW	acq4567_RW	5	63	400	0	300	300	882	50	0	1	1	blank2r.bmp	0	1	+	0	1	blank2r.bmp	492	1	VKKV	492	1	blank2r.bmp	572	3	spielen	866	1	!	1239	1	!	-1	0	0	0	0	0	0	0	0	0	0	0	0	0	0	0	0	0	0	0	0	0	0	0	0	0	0	0	0	0	0
071019	12:24:38	12:35:53	673061	5.0.10.0	5_exp_RW	39	Rpleas_acq	CS_B	VKKV	BZZB	MQQM	JXXJ	YDDY	GWWG	retten	schön	spielen	fair	treu	ehrlich	rächen	schlecht	strafen	faul	tot	eitel	1	acq_USpleas_CSpleas2_RW	acq4567_RW	5	64	400	0	300	300	535	50	0	1	1	blank2r.bmp	0	1	+	0	1	blank2r.bmp	492	1	BZZB	492	1	blank2r.bmp	572	2	treu	866	1	!	1239	1	!	-1	0	0	0	0	0	0	0	0	0	0	0	0	0	0	0	0	0	0	0	0	0	0	0	0	0	0	0	0	0	0
071019	12:24:38	12:35:56	675366	5.0.10.0	5_exp_RW	39	Rpleas_acq	CS_B	VKKV	BZZB	MQQM	JXXJ	YDDY	GWWG	retten	schön	spielen	fair	treu	ehrlich	rächen	schlecht	strafen	faul	tot	eitel	1	acq_USunple_CSunple2_RW	acq4567_RW	5	65	400	0	300	300	540	46	0	1	1	blank2r.bmp	0	1	+	0	1	blank2r.bmp	492	1	JXXJ	492	1	blank2r.bmp	572	1	faul	866	1	!	1239	1	!	-1	0	0	0	0	0	0	0	0	0	0	0	0	0	0	0	0	0	0	0	0	0	0	0	0	0	0	0	0	0	0
071019	12:24:38	12:35:58	677645	5.0.10.0	5_exp_RW	39	Rpleas_acq	CS_B	VKKV	BZZB	MQQM	JXXJ	YDDY	GWWG	retten	schön	spielen	fair	treu	ehrlich	rächen	schlecht	strafen	faul	tot	eitel	1	acq_USunple_CSunple1_RW	acq4567_RW	5	66	400	0	300	300	505	50	0	0	1	blank2r.bmp	0	1	+	0	1	blank2r.bmp	492	1	MQQM	492	1	blank2r.bmp	572	3	strafen	866	1	!	1239	1	!	-1	0	0	0	0	0	0	0	0	0	0	0	0	0	0	0	0	0	0	0	0	0	0	0	0	0	0	0	0	0	0
071019	12:24:38	12:36:01	680338	5.0.10.0	5_exp_RW	39	Rpleas_acq	CS_B	VKKV	BZZB	MQQM	JXXJ	YDDY	GWWG	retten	schön	spielen	fair	treu	ehrlich	rächen	schlecht	strafen	faul	tot	eitel	1	acq_USpleas_CSpleas2_RW	acq4567_RW	5	67	400	0	300	300	905	50	0	1	1	blank2r.bmp	0	1	+	0	1	blank2r.bmp	492	1	BZZB	492	1	blank2r.bmp	572	3	ehrlich	866	1	!	1239	1	!	-1	0	0	0	0	0	0	0	0	0	0	0	0	0	0	0	0	0	0	0	0	0	0	0	0	0	0	0	0	0	0
071019	12:24:38	12:36:03	682777	5.0.10.0	5_exp_RW	39	Rpleas_acq	CS_B	VKKV	BZZB	MQQM	JXXJ	YDDY	GWWG	retten	schön	spielen	fair	treu	ehrlich	rächen	schlecht	strafen	faul	tot	eitel	1	acq_USunple_CSunple2_RW	acq4567_RW	5	68	400	0	300	300	657	50	0	0	1	blank2r.bmp	0	1	+	0	1	blank2r.bmp	492	1	JXXJ	492	1	blank2r.bmp	572	3	eitel	866	1	!	1239	1	!	-1	0	0	0	0	0	0	0	0	0	0	0	0	0	0	0	0	0	0	0	0	0	0	0	0	0	0	0	0	0	0
071019	12:24:38	12:36:05	685109	5.0.10.0	5_exp_RW	39	Rpleas_acq	CS_B	VKKV	BZZB	MQQM	JXXJ	YDDY	GWWG	retten	schön	spielen	fair	treu	ehrlich	rächen	schlecht	strafen	faul	tot	eitel	1	acq_USunple_CSunple1_RW	acq4567_RW	5	69	400	0	300	300	553	50	0	0	1	blank2r.bmp	0	1	+	0	1	blank2r.bmp	492	1	MQQM	492	1	blank2r.bmp	572	2	schlecht	866	1	!	1239	1	!	-1	0	0	0	0	0	0	0	0	0	0	0	0	0	0	0	0	0	0	0	0	0	0	0	0	0	0	0	0	0	0
071019	12:24:38	12:36:08	687441	5.0.10.0	5_exp_RW	39	Rpleas_acq	CS_B	VKKV	BZZB	MQQM	JXXJ	YDDY	GWWG	retten	schön	spielen	fair	treu	ehrlich	rächen	schlecht	strafen	faul	tot	eitel	1	acq_USunple_CSunple2_RW	acq4567_RW	5	70	400	0	300	300	555	50	0	0	1	blank2r.bmp	0	1	+	0	1	blank2r.bmp	492	1	JXXJ	492	1	blank2r.bmp	572	2	tot	866	1	!	1239	1	!	-1	0	0	0	0	0	0	0	0	0	0	0	0	0	0	0	0	0	0	0	0	0	0	0	0	0	0	0	0	0	0
071019	12:24:38	12:36:10	689520	5.0.10.0	5_exp_RW	39	Rpleas_acq	CS_B	VKKV	BZZB	MQQM	JXXJ	YDDY	GWWG	retten	schön	spielen	fair	treu	ehrlich	rächen	schlecht	strafen	faul	tot	eitel	1	acq_USunple_CSunple2_RW	acq4567_RW	5	71	400	0	300	300	304	50	0	0	1	blank2r.bmp	0	1	+	0	1	blank2r.bmp	492	1	JXXJ	492	1	blank2r.bmp	572	1	faul	866	1	!	-1	1	!	-1	0	0	0	0	0	0	0	0	0	0	0	0	0	0	0	0	0	0	0	0	0	0	0	0	0	0	0	0	0	0
071019	12:24:38	12:36:12	691839	5.0.10.0	5_exp_RW	39	Rpleas_acq	CS_B	VKKV	BZZB	MQQM	JXXJ	YDDY	GWWG	retten	schön	spielen	fair	treu	ehrlich	rächen	schlecht	strafen	faul	tot	eitel	1	acq_USpleas_CSpleas1_RW	acq4567_RW	5	72	400	0	300	300	525	50	0	1	1	blank2r.bmp	0	1	+	0	1	blank2r.bmp	492	1	VKKV	492	1	blank2r.bmp	572	1	retten	866	1	!	1239	1	!	-1	0	0	0	0	0	0	0	0	0	0	0	0	0	0	0	0	0	0	0	0	0	0	0	0	0	0	0	0	0	0
071019	12:24:38	12:36:15	694292	5.0.10.0	5_exp_RW	39	Rpleas_acq	CS_B	VKKV	BZZB	MQQM	JXXJ	YDDY	GWWG	retten	schön	spielen	fair	treu	ehrlich	rächen	schlecht	strafen	faul	tot	eitel	1	acq_USpleas_CSpleas1_RW	acq4567_RW	5	73	400	0	300	300	667	50	0	1	1	blank2r.bmp	0	1	+	0	1	blank2r.bmp	492	1	VKKV	492	1	blank2r.bmp	572	2	schön	866	1	!	1239	1	!	-1	0	0	0	0	0	0	0	0	0	0	0	0	0	0	0	0	0	0	0	0	0	0	0	0	0	0	0	0	0	0
071019	12:24:38	12:36:19	699103	5.0.10.0	5_exp_RW	39	Rpleas_acq	CS_B	VKKV	BZZB	MQQM	JXXJ	YDDY	GWWG	retten	schön	spielen	fair	treu	ehrlich	rächen	schlecht	strafen	faul	tot	eitel	1	acq_USpleas_CSpleas2_RW	acq4567_RW	5	74	400	0	300	300	3035	46	0	0	1	blank2r.bmp	0	1	+	0	1	blank2r.bmp	492	1	BZZB	492	1	blank2r.bmp	572	1	fair	866	1	!	1239	1	!	-1	0	0	0	0	0	0	0	0	0	0	0	0	0	0	0	0	0	0	0	0	0	0	0	0	0	0	0	0	0	0
071019	12:24:38	12:36:21	701036	5.0.10.0	5_exp_RW	39	Rpleas_acq	CS_B	VKKV	BZZB	MQQM	JXXJ	YDDY	GWWG	retten	schön	spielen	fair	treu	ehrlich	rächen	schlecht	strafen	faul	tot	eitel	1	acq_USpleas_CSpleas2_RW	acq4567_RW	5	75	400	0	300	300	156	46	0	0	1	blank2r.bmp	0	1	+	0	1	blank2r.bmp	492	1	BZZB	492	1	blank2r.bmp	572	3	ehrlich	866	1	!	-1	1	!	-1	0	0	0	0	0	0	0	0	0	0	0	0	0	0	0	0	0	0	0	0	0	0	0	0	0	0	0	0	0	0
071019	12:24:38	12:36:24	703714	5.0.10.0	5_exp_RW	39	Rpleas_acq	CS_B	VKKV	BZZB	MQQM	JXXJ	YDDY	GWWG	retten	schön	spielen	fair	treu	ehrlich	rächen	schlecht	strafen	faul	tot	eitel	1	acq_USpleas_CSpleas2_RW	acq4567_RW	5	76	400	0	300	300	895	46	0	0	1	blank2r.bmp	0	1	+	0	1	blank2r.bmp	492	1	BZZB	492	1	blank2r.bmp	572	1	fair	866	1	!	1239	1	!	-1	0	0	0	0	0	0	0	0	0	0	0	0	0	0	0	0	0	0	0	0	0	0	0	0	0	0	0	0	0	0
071019	12:24:38	12:36:26	705900	5.0.10.0	5_exp_RW	39	Rpleas_acq	CS_B	VKKV	BZZB	MQQM	JXXJ	YDDY	GWWG	retten	schön	spielen	fair	treu	ehrlich	rächen	schlecht	strafen	faul	tot	eitel	1	acq_USunple_CSunple1_RW	acq4567_RW	5	77	400	1	300	300	369	46	0	1	1	blank2r.bmp	0	1	+	0	1	blank2r.bmp	492	1	MQQM	492	1	blank2r.bmp	572	2	schlecht	866	1	!	1239	1	!	1266	0	0	0	0	0	0	0	0	0	0	0	0	0	0	0	0	0	0	0	0	0	0	0	0	0	0	0	0	0	0
071019	12:24:38	12:36:29	708193	5.0.10.0	5_exp_RW	39	Rpleas_acq	CS_B	VKKV	BZZB	MQQM	JXXJ	YDDY	GWWG	retten	schön	spielen	fair	treu	ehrlich	rächen	schlecht	strafen	faul	tot	eitel	1	acq_USunple_CSunple2_RW	acq4567_RW	5	78	400	0	300	300	519	46	0	1	1	blank2r.bmp	0	1	+	0	1	blank2r.bmp	492	1	JXXJ	492	1	blank2r.bmp	572	3	eitel	866	1	!	1239	1	!	-1	0	0	0	0	0	0	0	0	0	0	0	0	0	0	0	0	0	0	0	0	0	0	0	0	0	0	0	0	0	0
071019	12:24:38	12:36:31	710418	5.0.10.0	5_exp_RW	39	Rpleas_acq	CS_B	VKKV	BZZB	MQQM	JXXJ	YDDY	GWWG	retten	schön	spielen	fair	treu	ehrlich	rächen	schlecht	strafen	faul	tot	eitel	1	acq_USunple_CSunple1_RW	acq4567_RW	5	79	400	1	300	300	400	50	0	0	1	blank2r.bmp	0	1	+	0	1	blank2r.bmp	492	1	MQQM	492	1	blank2r.bmp	572	3	strafen	866	1	!	1239	1	!	1306	0	0	0	0	0	0	0	0	0	0	0	0	0	0	0	0	0	0	0	0	0	0	0	0	0	0	0	0	0	0
071019	12:24:38	12:36:36	715749	5.0.10.0	5_exp_RW	39	Rpleas_acq	CS_B	VKKV	BZZB	MQQM	JXXJ	YDDY	GWWG	retten	schön	spielen	fair	treu	ehrlich	rächen	schlecht	strafen	faul	tot	eitel	1	acq_USpleas_CSpleas1_RW	acq4567_RW	5	80	400	0	300	300	3568	50	0	1	1	blank2r.bmp	0	1	+	0	1	blank2r.bmp	492	1	VKKV	492	1	blank2r.bmp	572	1	retten	866	1	!	1239	1	!	-1	0	0	0	0	0	0	0	0	0	0	0	0	0	0	0	0	0	0	0	0	0	0	0	0	0	0	0	0	0	0
071019	12:24:38	12:36:50	729184	5.0.10.0	5_exp_RW	39	Rpleas_acq	CS_B	VKKV	BZZB	MQQM	JXXJ	YDDY	GWWG	retten	schön	spielen	fair	treu	ehrlich	rächen	schlecht	strafen	faul	tot	eitel	1	acq_USunple_CSunple2_RW	acq4567_RW	6	1	400	1	300	300	346	46	0	1	1	blank2r.bmp	0	1	+	0	1	blank2r.bmp	492	1	JXXJ	492	1	blank2r.bmp	572	2	tot	866	1	!	1239	1	!	1252	0	0	0	0	0	0	0	0	0	0	0	0	0	0	0	0	0	0	0	0	0	0	0	0	0	0	0	0	0	0
071019	12:24:38	12:36:52	731263	5.0.10.0	5_exp_RW	39	Rpleas_acq	CS_B	VKKV	BZZB	MQQM	JXXJ	YDDY	GWWG	retten	schön	spielen	fair	treu	ehrlich	rächen	schlecht	strafen	faul	tot	eitel	1	acq_USunple_CSunple2_RW	acq4567_RW	6	2	400	0	300	300	309	46	0	1	1	blank2r.bmp	0	1	+	0	1	blank2r.bmp	492	1	JXXJ	492	1	blank2r.bmp	572	2	tot	866	1	!	-1	1	!	-1	0	0	0	0	0	0	0	0	0	0	0	0	0	0	0	0	0	0	0	0	0	0	0	0	0	0	0	0	0	0
071019	12:24:38	12:36:54	733422	5.0.10.0	5_exp_RW	39	Rpleas_acq	CS_B	VKKV	BZZB	MQQM	JXXJ	YDDY	GWWG	retten	schön	spielen	fair	treu	ehrlich	rächen	schlecht	strafen	faul	tot	eitel	1	acq_USpleas_CSpleas2_RW	acq4567_RW	6	3	400	1	300	300	346	46	0	0	1	blank2r.bmp	0	1	+	0	1	blank2r.bmp	492	1	BZZB	492	1	blank2r.bmp	572	2	treu	866	1	!	1239	1	!	1252	0	0	0	0	0	0	0	0	0	0	0	0	0	0	0	0	0	0	0	0	0	0	0	0	0	0	0	0	0	0
071019	12:24:38	12:36:56	735474	5.0.10.0	5_exp_RW	39	Rpleas_acq	CS_B	VKKV	BZZB	MQQM	JXXJ	YDDY	GWWG	retten	schön	spielen	fair	treu	ehrlich	rächen	schlecht	strafen	faul	tot	eitel	1	acq_USpleas_CSpleas1_RW	acq4567_RW	6	4	400	0	300	300	284	50	0	1	1	blank2r.bmp	0	1	+	0	1	blank2r.bmp	492	1	VKKV	492	1	blank2r.bmp	572	3	spielen	866	1	!	-1	1	!	-1	0	0	0	0	0	0	0	0	0	0	0	0	0	0	0	0	0	0	0	0	0	0	0	0	0	0	0	0	0	0
071019	12:24:38	12:36:58	737847	5.0.10.0	5_exp_RW	39	Rpleas_acq	CS_B	VKKV	BZZB	MQQM	JXXJ	YDDY	GWWG	retten	schön	spielen	fair	treu	ehrlich	rächen	schlecht	strafen	faul	tot	eitel	1	acq_USunple_CSunple1_RW	acq4567_RW	6	5	400	0	300	300	589	46	0	1	1	blank2r.bmp	0	1	+	0	1	blank2r.bmp	492	1	MQQM	492	1	blank2r.bmp	572	1	rächen	866	1	!	1239	1	!	-1	0	0	0	0	0	0	0	0	0	0	0	0	0	0	0	0	0	0	0	0	0	0	0	0	0	0	0	0	0	0
071019	12:24:38	12:37:00	739872	5.0.10.0	5_exp_RW	39	Rpleas_acq	CS_B	VKKV	BZZB	MQQM	JXXJ	YDDY	GWWG	retten	schön	spielen	fair	treu	ehrlich	rächen	schlecht	strafen	faul	tot	eitel	1	acq_USpleas_CSpleas1_RW	acq4567_RW	6	6	400	0	300	300	244	46	0	0	1	blank2r.bmp	0	1	+	0	1	blank2r.bmp	492	1	VKKV	492	1	blank2r.bmp	572	2	schön	866	1	!	-1	1	!	-1	0	0	0	0	0	0	0	0	0	0	0	0	0	0	0	0	0	0	0	0	0	0	0	0	0	0	0	0	0	0
071019	12:24:38	12:37:03	742711	5.0.10.0	5_exp_RW	39	Rpleas_acq	CS_B	VKKV	BZZB	MQQM	JXXJ	YDDY	GWWG	retten	schön	spielen	fair	treu	ehrlich	rächen	schlecht	strafen	faul	tot	eitel	1	acq_USpleas_CSpleas2_RW	acq4567_RW	6	7	400	0	300	300	1052	50	0	1	1	blank2r.bmp	0	1	+	0	1	blank2r.bmp	492	1	BZZB	492	1	blank2r.bmp	572	2	treu	866	1	!	1239	1	!	-1	0	0	0	0	0	0	0	0	0	0	0	0	0	0	0	0	0	0	0	0	0	0	0	0	0	0	0	0	0	0
071019	12:24:38	12:37:05	744777	5.0.10.0	5_exp_RW	39	Rpleas_acq	CS_B	VKKV	BZZB	MQQM	JXXJ	YDDY	GWWG	retten	schön	spielen	fair	treu	ehrlich	rächen	schlecht	strafen	faul	tot	eitel	1	acq_USpleas_CSpleas1_RW	acq4567_RW	6	8	400	0	300	300	284	50	0	1	1	blank2r.bmp	0	1	+	0	1	blank2r.bmp	492	1	VKKV	492	1	blank2r.bmp	572	1	retten	866	1	!	-1	1	!	-1	0	0	0	0	0	0	0	0	0	0	0	0	0	0	0	0	0	0	0	0	0	0	0	0	0	0	0	0	0	0
071019	12:24:38	12:37:07	746736	5.0.10.0	5_exp_RW	39	Rpleas_acq	CS_B	VKKV	BZZB	MQQM	JXXJ	YDDY	GWWG	retten	schön	spielen	fair	treu	ehrlich	rächen	schlecht	strafen	faul	tot	eitel	1	acq_USpleas_CSpleas2_RW	acq4567_RW	6	9	400	0	300	300	174	50	0	1	1	blank2r.bmp	0	1	+	0	1	blank2r.bmp	492	1	BZZB	492	1	blank2r.bmp	572	3	ehrlich	866	1	!	-1	1	!	-1	0	0	0	0	0	0	0	0	0	0	0	0	0	0	0	0	0	0	0	0	0	0	0	0	0	0	0	0	0	0
071019	12:24:38	12:37:09	748762	5.0.10.0	5_exp_RW	39	Rpleas_acq	CS_B	VKKV	BZZB	MQQM	JXXJ	YDDY	GWWG	retten	schön	spielen	fair	treu	ehrlich	rächen	schlecht	strafen	faul	tot	eitel	1	acq_USunple_CSunple1_RW	acq4567_RW	6	10	400	0	300	300	245	50	0	0	1	blank2r.bmp	0	1	+	0	1	blank2r.bmp	492	1	MQQM	492	1	blank2r.bmp	572	3	strafen	866	1	!	-1	1	!	-1	0	0	0	0	0	0	0	0	0	0	0	0	0	0	0	0	0	0	0	0	0	0	0	0	0	0	0	0	0	0
071019	12:24:38	12:37:11	750828	5.0.10.0	5_exp_RW	39	Rpleas_acq	CS_B	VKKV	BZZB	MQQM	JXXJ	YDDY	GWWG	retten	schön	spielen	fair	treu	ehrlich	rächen	schlecht	strafen	faul	tot	eitel	1	acq_USpleas_CSpleas1_RW	acq4567_RW	6	11	400	0	300	300	286	46	0	0	1	blank2r.bmp	0	1	+	0	1	blank2r.bmp	492	1	VKKV	492	1	blank2r.bmp	572	3	spielen	866	1	!	-1	1	!	-1	0	0	0	0	0	0	0	0	0	0	0	0	0	0	0	0	0	0	0	0	0	0	0	0	0	0	0	0	0	0
071019	12:24:38	12:37:13	752947	5.0.10.0	5_exp_RW	39	Rpleas_acq	CS_B	VKKV	BZZB	MQQM	JXXJ	YDDY	GWWG	retten	schön	spielen	fair	treu	ehrlich	rächen	schlecht	strafen	faul	tot	eitel	1	acq_USunple_CSunple1_RW	acq4567_RW	6	12	400	0	300	300	330	50	0	0	1	blank2r.bmp	0	1	+	0	1	blank2r.bmp	492	1	MQQM	492	1	blank2r.bmp	572	1	rächen	866	1	!	-1	1	!	-1	0	0	0	0	0	0	0	0	0	0	0	0	0	0	0	0	0	0	0	0	0	0	0	0	0	0	0	0	0	0
071019	12:24:38	12:37:15	754853	5.0.10.0	5_exp_RW	39	Rpleas_acq	CS_B	VKKV	BZZB	MQQM	JXXJ	YDDY	GWWG	retten	schön	spielen	fair	treu	ehrlich	rächen	schlecht	strafen	faul	tot	eitel	1	acq_USunple_CSunple1_RW	acq4567_RW	6	13	400	0	300	300	116	50	0	0	1	blank2r.bmp	0	1	+	0	1	blank2r.bmp	492	1	MQQM	492	1	blank2r.bmp	572	2	schlecht	866	1	!	-1	1	!	-1	0	0	0	0	0	0	0	0	0	0	0	0	0	0	0	0	0	0	0	0	0	0	0	0	0	0	0	0	0	0
071019	12:24:38	12:37:17	756719	5.0.10.0	5_exp_RW	39	Rpleas_acq	CS_B	VKKV	BZZB	MQQM	JXXJ	YDDY	GWWG	retten	schön	spielen	fair	treu	ehrlich	rächen	schlecht	strafen	faul	tot	eitel	1	acq_USpleas_CSpleas2_RW	acq4567_RW	6	14	400	0	300	300	69	46	0	0	1	blank2r.bmp	0	1	+	0	1	blank2r.bmp	492	1	BZZB	492	1	blank2r.bmp	572	1	fair	866	1	!	-1	1	!	-1	0	0	0	0	0	0	0	0	0	0	0	0	0	0	0	0	0	0	0	0	0	0	0	0	0	0	0	0	0	0
071019	12:24:38	12:37:19	759038	5.0.10.0	5_exp_RW	39	Rpleas_acq	CS_B	VKKV	BZZB	MQQM	JXXJ	YDDY	GWWG	retten	schön	spielen	fair	treu	ehrlich	rächen	schlecht	strafen	faul	tot	eitel	1	acq_USunple_CSunple2_RW	acq4567_RW	6	15	400	0	300	300	539	50	0	0	1	blank2r.bmp	0	1	+	0	1	blank2r.bmp	492	1	JXXJ	492	1	blank2r.bmp	572	3	eitel	866	1	!	1239	1	!	-1	0	0	0	0	0	0	0	0	0	0	0	0	0	0	0	0	0	0	0	0	0	0	0	0	0	0	0	0	0	0
071019	12:24:38	12:37:22	761863	5.0.10.0	5_exp_RW	39	Rpleas_acq	CS_B	VKKV	BZZB	MQQM	JXXJ	YDDY	GWWG	retten	schön	spielen	fair	treu	ehrlich	rächen	schlecht	strafen	faul	tot	eitel	1	acq_USpleas_CSpleas1_RW	acq4567_RW	6	16	400	0	300	300	1045	50	0	1	1	blank2r.bmp	0	1	+	0	1	blank2r.bmp	492	1	VKKV	492	1	blank2r.bmp	572	2	schön	866	1	!	1239	1	!	-1	0	0	0	0	0	0	0	0	0	0	0	0	0	0	0	0	0	0	0	0	0	0	0	0	0	0	0	0	0	0
071019	12:24:38	12:37:25	764182	5.0.10.0	5_exp_RW	39	Rpleas_acq	CS_B	VKKV	BZZB	MQQM	JXXJ	YDDY	GWWG	retten	schön	spielen	fair	treu	ehrlich	rächen	schlecht	strafen	faul	tot	eitel	1	acq_USunple_CSunple2_RW	acq4567_RW	6	17	400	0	300	300	535	46	0	1	1	blank2r.bmp	0	1	+	0	1	blank2r.bmp	492	1	JXXJ	492	1	blank2r.bmp	572	1	faul	866	1	!	1239	1	!	-1	0	0	0	0	0	0	0	0	0	0	0	0	0	0	0	0	0	0	0	0	0	0	0	0	0	0	0	0	0	0
071019	12:24:38	12:37:27	767061	5.0.10.0	5_exp_RW	39	Rpleas_acq	CS_B	VKKV	BZZB	MQQM	JXXJ	YDDY	GWWG	retten	schön	spielen	fair	treu	ehrlich	rächen	schlecht	strafen	faul	tot	eitel	1	acq_USunple_CSunple2_RW	acq4567_RW	6	18	400	0	300	300	1100	46	0	1	1	blank2r.bmp	0	1	+	0	1	blank2r.bmp	492	1	JXXJ	492	1	blank2r.bmp	572	1	faul	866	1	!	1239	1	!	-1	0	0	0	0	0	0	0	0	0	0	0	0	0	0	0	0	0	0	0	0	0	0	0	0	0	0	0	0	0	0
071019	12:24:38	12:37:30	769353	5.0.10.0	5_exp_RW	39	Rpleas_acq	CS_B	VKKV	BZZB	MQQM	JXXJ	YDDY	GWWG	retten	schön	spielen	fair	treu	ehrlich	rächen	schlecht	strafen	faul	tot	eitel	1	acq_USunple_CSunple1_RW	acq4567_RW	6	19	400	0	300	300	513	46	0	1	1	blank2r.bmp	0	1	+	0	1	blank2r.bmp	492	1	MQQM	492	1	blank2r.bmp	572	2	schlecht	866	1	!	1239	1	!	-1	0	0	0	0	0	0	0	0	0	0	0	0	0	0	0	0	0	0	0	0	0	0	0	0	0	0	0	0	0	0
071019	12:24:38	12:37:33	772192	5.0.10.0	5_exp_RW	39	Rpleas_acq	CS_B	VKKV	BZZB	MQQM	JXXJ	YDDY	GWWG	retten	schön	spielen	fair	treu	ehrlich	rächen	schlecht	strafen	faul	tot	eitel	1	acq_USpleas_CSpleas2_RW	acq4567_RW	6	20	400	0	300	300	1055	50	0	1	1	blank2r.bmp	0	1	+	0	1	blank2r.bmp	492	1	BZZB	492	1	blank2r.bmp	572	2	treu	866	1	!	1239	1	!	-1	0	0	0	0	0	0	0	0	0	0	0	0	0	0	0	0	0	0	0	0	0	0	0	0	0	0	0	0	0	0
071019	12:24:38	12:37:35	774751	5.0.10.0	5_exp_RW	39	Rpleas_acq	CS_B	VKKV	BZZB	MQQM	JXXJ	YDDY	GWWG	retten	schön	spielen	fair	treu	ehrlich	rächen	schlecht	strafen	faul	tot	eitel	1	acq_USunple_CSunple2_RW	acq4567_RW	6	21	400	0	300	300	772	46	0	1	1	blank2r.bmp	0	1	+	0	1	blank2r.bmp	492	1	JXXJ	492	1	blank2r.bmp	572	2	tot	866	1	!	1239	1	!	-1	0	0	0	0	0	0	0	0	0	0	0	0	0	0	0	0	0	0	0	0	0	0	0	0	0	0	0	0	0	0
