date	time	script.currenttime	script.elapsedtime	build	script.currentexpt	subject	expressions.LRpleas_acq	expressions.conditionCS_A	expressions.CSpleas_1	expressions.CSpleas_2	expressions.CSunple_1	expressions.CSunple_2	expressions.distractor_1	expressions.distractor_2	expressions.US_pleas1	expressions.US_pleas2	expressions.US_pleas3	expressions.US_pleas4	expressions.US_pleas5	expressions.US_pleas6	expressions.US_unple1	expressions.US_unple2	expressions.US_unple3	expressions.US_unple4	expressions.US_unple5	expressions.US_unple6	counter.positions_noRW	trialcode	blockcode	blocknum	trialnum	windowcenter	inwindow	pretrialpause	posttrialpause	latency	response	expressions.correctedscore	correct	stimulusnumber1	stimulusitem1	stimulusonset1	stimulusnumber2	stimulusitem2	stimulusonset2	stimulusnumber3	stimulusitem3	stimulusonset3	stimulusnumber4	stimulusitem4	stimulusonset4	stimulusnumber5	stimulusitem5	stimulusonset5	stimulusnumber6	stimulusitem6	stimulusonset6	stimulusnumber7	stimulusitem7	stimulusonset7	stimulusnumber8	stimulusitem8	stimulusonset8	stimulusnumber9	stimulusitem9	stimulusonset9	stimulusnumber10	stimulusitem10	stimulusonset10	stimulusnumber11	stimulusitem11	stimulusonset11	stimulusnumber12	stimulusitem12	stimulusonset12	stimulusnumber13	stimulusitem13	stimulusonset13	stimulusnumber14	stimulusitem14	stimulusonset14	stimulusnumber15	stimulusitem15	stimulusonset15	stimulusnumber16	stimulusitem16	stimulusonset16	stimulusnumber17	stimulusitem17	stimulusonset17	stimulusnumber18	stimulusitem18	stimulusonset18
070319	16:55:12	16:56:39	87296	5.0.10.0	5_exp_RW	19	Rpleas_acq	CS_B	JXXJ	YDDY	MQQM	BZZB	GWWG	VKKV	spielen	retten	fair	treu	schön	ehrlich	strafen	rächen	faul	tot	schlecht	eitel	1	acq_USunple_CSunple2_RW	acq1_RW	1	1	0	0	300	300	1521	46	0	1	1	blank2r.bmp	0	1	+	0	1	blank2r.bmp	492	1	BZZB	492	1	blank2r.bmp	572	3	eitel	866	0	0	0	0	0	0	0	0	0	0	0	0	0	0	0	0	0	0	0	0	0	0	0	0	0	0	0	0	0	0	0	0	0	0	0	0
070319	16:55:12	16:56:42	89562	5.0.10.0	5_exp_RW	19	Rpleas_acq	CS_B	JXXJ	YDDY	MQQM	BZZB	GWWG	VKKV	spielen	retten	fair	treu	schön	ehrlich	strafen	rächen	faul	tot	schlecht	eitel	1	acq_USpleas_CSpleas1_RW	acq1_RW	1	2	0	0	300	300	793	50	0	1	1	blank2r.bmp	0	1	+	0	1	blank2r.bmp	492	1	JXXJ	492	1	blank2r.bmp	572	1	spielen	866	0	0	0	0	0	0	0	0	0	0	0	0	0	0	0	0	0	0	0	0	0	0	0	0	0	0	0	0	0	0	0	0	0	0	0	0
070319	16:55:12	16:56:43	91308	5.0.10.0	5_exp_RW	19	Rpleas_acq	CS_B	JXXJ	YDDY	MQQM	BZZB	GWWG	VKKV	spielen	retten	fair	treu	schön	ehrlich	strafen	rächen	faul	tot	schlecht	eitel	1	acq_USpleas_CSpleas2_RW	acq1_RW	1	3	0	0	300	300	42	46	0	0	1	blank2r.bmp	0	1	+	0	1	blank2r.bmp	492	1	YDDY	492	1	blank2r.bmp	572	3	ehrlich	866	1	FEHLER	946	0	0	0	0	0	0	0	0	0	0	0	0	0	0	0	0	0	0	0	0	0	0	0	0	0	0	0	0	0	0	0	0	0
070319	16:55:12	16:56:45	93014	5.0.10.0	5_exp_RW	19	Rpleas_acq	CS_B	JXXJ	YDDY	MQQM	BZZB	GWWG	VKKV	spielen	retten	fair	treu	schön	ehrlich	strafen	rächen	faul	tot	schlecht	eitel	1	acq_USpleas_CSpleas1_RW	acq1_RW	1	4	0	0	300	300	439	50	0	1	1	blank2r.bmp	0	1	+	0	1	blank2r.bmp	492	1	JXXJ	492	1	blank2r.bmp	572	3	fair	866	0	0	0	0	0	0	0	0	0	0	0	0	0	0	0	0	0	0	0	0	0	0	0	0	0	0	0	0	0	0	0	0	0	0	0	0
070319	16:55:12	16:56:47	94920	5.0.10.0	5_exp_RW	19	Rpleas_acq	CS_B	JXXJ	YDDY	MQQM	BZZB	GWWG	VKKV	spielen	retten	fair	treu	schön	ehrlich	strafen	rächen	faul	tot	schlecht	eitel	1	acq_USpleas_CSpleas1_RW	acq1_RW	1	5	0	0	300	300	429	50	0	1	1	blank2r.bmp	0	1	+	0	1	blank2r.bmp	492	1	JXXJ	492	1	blank2r.bmp	572	2	retten	866	0	0	0	0	0	0	0	0	0	0	0	0	0	0	0	0	0	0	0	0	0	0	0	0	0	0	0	0	0	0	0	0	0	0	0	0
070319	16:55:12	16:56:49	96785	5.0.10.0	5_exp_RW	19	Rpleas_acq	CS_B	JXXJ	YDDY	MQQM	BZZB	GWWG	VKKV	spielen	retten	fair	treu	schön	ehrlich	strafen	rächen	faul	tot	schlecht	eitel	1	acq_USunple_CSunple1_RW	acq1_RW	1	6	0	0	300	300	387	46	0	1	1	blank2r.bmp	0	1	+	0	1	blank2r.bmp	492	1	MQQM	492	1	blank2r.bmp	572	3	faul	866	0	0	0	0	0	0	0	0	0	0	0	0	0	0	0	0	0	0	0	0	0	0	0	0	0	0	0	0	0	0	0	0	0	0	0	0
070319	16:55:12	16:56:51	98531	5.0.10.0	5_exp_RW	19	Rpleas_acq	CS_B	JXXJ	YDDY	MQQM	BZZB	GWWG	VKKV	spielen	retten	fair	treu	schön	ehrlich	strafen	rächen	faul	tot	schlecht	eitel	1	acq_USpleas_CSpleas2_RW	acq1_RW	1	7	0	0	300	300	261	50	0	1	1	blank2r.bmp	0	1	+	0	1	blank2r.bmp	492	1	YDDY	492	1	blank2r.bmp	572	1	treu	866	0	0	0	0	0	0	0	0	0	0	0	0	0	0	0	0	0	0	0	0	0	0	0	0	0	0	0	0	0	0	0	0	0	0	0	0
070319	16:55:12	16:56:52	100344	5.0.10.0	5_exp_RW	19	Rpleas_acq	CS_B	JXXJ	YDDY	MQQM	BZZB	GWWG	VKKV	spielen	retten	fair	treu	schön	ehrlich	strafen	rächen	faul	tot	schlecht	eitel	1	acq_USunple_CSunple1_RW	acq1_RW	1	8	0	0	300	300	331	46	0	1	1	blank2r.bmp	0	1	+	0	1	blank2r.bmp	492	1	MQQM	492	1	blank2r.bmp	572	1	strafen	866	0	0	0	0	0	0	0	0	0	0	0	0	0	0	0	0	0	0	0	0	0	0	0	0	0	0	0	0	0	0	0	0	0	0	0	0
070319	16:55:12	16:56:54	102290	5.0.10.0	5_exp_RW	19	Rpleas_acq	CS_B	JXXJ	YDDY	MQQM	BZZB	GWWG	VKKV	spielen	retten	fair	treu	schön	ehrlich	strafen	rächen	faul	tot	schlecht	eitel	1	acq_USunple_CSunple2_RW	acq1_RW	1	9	0	0	300	300	456	46	0	1	1	blank2r.bmp	0	1	+	0	1	blank2r.bmp	492	1	BZZB	492	1	blank2r.bmp	572	2	schlecht	866	0	0	0	0	0	0	0	0	0	0	0	0	0	0	0	0	0	0	0	0	0	0	0	0	0	0	0	0	0	0	0	0	0	0	0	0
070319	16:55:12	16:56:56	104142	5.0.10.0	5_exp_RW	19	Rpleas_acq	CS_B	JXXJ	YDDY	MQQM	BZZB	GWWG	VKKV	spielen	retten	fair	treu	schön	ehrlich	strafen	rächen	faul	tot	schlecht	eitel	1	acq_USunple_CSunple2_RW	acq1_RW	1	10	0	0	300	300	359	46	0	1	1	blank2r.bmp	0	1	+	0	1	blank2r.bmp	492	1	BZZB	492	1	blank2r.bmp	572	1	tot	866	0	0	0	0	0	0	0	0	0	0	0	0	0	0	0	0	0	0	0	0	0	0	0	0	0	0	0	0	0	0	0	0	0	0	0	0
070319	16:55:12	16:56:58	105982	5.0.10.0	5_exp_RW	19	Rpleas_acq	CS_B	JXXJ	YDDY	MQQM	BZZB	GWWG	VKKV	spielen	retten	fair	treu	schön	ehrlich	strafen	rächen	faul	tot	schlecht	eitel	1	acq_USpleas_CSpleas2_RW	acq1_RW	1	11	0	0	300	300	370	50	0	1	1	blank2r.bmp	0	1	+	0	1	blank2r.bmp	492	1	YDDY	492	1	blank2r.bmp	572	2	schön	866	0	0	0	0	0	0	0	0	0	0	0	0	0	0	0	0	0	0	0	0	0	0	0	0	0	0	0	0	0	0	0	0	0	0	0	0
070319	16:55:12	16:57:00	107821	5.0.10.0	5_exp_RW	19	Rpleas_acq	CS_B	JXXJ	YDDY	MQQM	BZZB	GWWG	VKKV	spielen	retten	fair	treu	schön	ehrlich	strafen	rächen	faul	tot	schlecht	eitel	1	acq_USunple_CSunple2_RW	acq1_RW	1	12	0	0	300	300	349	46	0	1	1	blank2r.bmp	0	1	+	0	1	blank2r.bmp	492	1	BZZB	492	1	blank2r.bmp	572	3	eitel	866	0	0	0	0	0	0	0	0	0	0	0	0	0	0	0	0	0	0	0	0	0	0	0	0	0	0	0	0	0	0	0	0	0	0	0	0
070319	16:55:12	16:57:02	109607	5.0.10.0	5_exp_RW	19	Rpleas_acq	CS_B	JXXJ	YDDY	MQQM	BZZB	GWWG	VKKV	spielen	retten	fair	treu	schön	ehrlich	strafen	rächen	faul	tot	schlecht	eitel	1	acq_USpleas_CSpleas1_RW	acq1_RW	1	13	0	0	300	300	307	50	0	1	1	blank2r.bmp	0	1	+	0	1	blank2r.bmp	492	1	JXXJ	492	1	blank2r.bmp	572	2	retten	866	0	0	0	0	0	0	0	0	0	0	0	0	0	0	0	0	0	0	0	0	0	0	0	0	0	0	0	0	0	0	0	0	0	0	0	0
070319	16:55:12	16:57:04	111433	5.0.10.0	5_exp_RW	19	Rpleas_acq	CS_B	JXXJ	YDDY	MQQM	BZZB	GWWG	VKKV	spielen	retten	fair	treu	schön	ehrlich	strafen	rächen	faul	tot	schlecht	eitel	1	acq_USunple_CSunple1_RW	acq1_RW	1	14	0	0	300	300	341	46	0	1	1	blank2r.bmp	0	1	+	0	1	blank2r.bmp	492	1	MQQM	492	1	blank2r.bmp	572	2	rächen	866	0	0	0	0	0	0	0	0	0	0	0	0	0	0	0	0	0	0	0	0	0	0	0	0	0	0	0	0	0	0	0	0	0	0	0	0
070319	16:55:12	16:57:05	113365	5.0.10.0	5_exp_RW	19	Rpleas_acq	CS_B	JXXJ	YDDY	MQQM	BZZB	GWWG	VKKV	spielen	retten	fair	treu	schön	ehrlich	strafen	rächen	faul	tot	schlecht	eitel	1	acq_USunple_CSunple1_RW	acq1_RW	1	15	0	0	300	300	439	46	0	1	1	blank2r.bmp	0	1	+	0	1	blank2r.bmp	492	1	MQQM	492	1	blank2r.bmp	572	3	faul	866	0	0	0	0	0	0	0	0	0	0	0	0	0	0	0	0	0	0	0	0	0	0	0	0	0	0	0	0	0	0	0	0	0	0	0	0
070319	16:55:12	16:57:07	115164	5.0.10.0	5_exp_RW	19	Rpleas_acq	CS_B	JXXJ	YDDY	MQQM	BZZB	GWWG	VKKV	spielen	retten	fair	treu	schön	ehrlich	strafen	rächen	faul	tot	schlecht	eitel	1	acq_USpleas_CSpleas2_RW	acq1_RW	1	16	0	0	300	300	329	50	0	1	1	blank2r.bmp	0	1	+	0	1	blank2r.bmp	492	1	YDDY	492	1	blank2r.bmp	572	3	ehrlich	866	0	0	0	0	0	0	0	0	0	0	0	0	0	0	0	0	0	0	0	0	0	0	0	0	0	0	0	0	0	0	0	0	0	0	0	0
070319	16:55:12	16:57:39	146884	5.0.10.0	5_exp_RW	19	Rpleas_acq	CS_B	JXXJ	YDDY	MQQM	BZZB	GWWG	VKKV	spielen	retten	fair	treu	schön	ehrlich	strafen	rächen	faul	tot	schlecht	eitel	1	acq_USunple_CSunple1_RW	acq2_RW	2	1	480	0	300	300	896	46	0	1	1	blank2r.bmp	0	1	+	0	1	blank2r.bmp	492	1	MQQM	492	1	blank2r.bmp	572	1	strafen	866	1	!	1319	1	!	-1	0	0	0	0	0	0	0	0	0	0	0	0	0	0	0	0	0	0	0	0	0	0	0	0	0	0	0	0	0	0
070319	16:55:12	16:57:42	149497	5.0.10.0	5_exp_RW	19	Rpleas_acq	CS_B	JXXJ	YDDY	MQQM	BZZB	GWWG	VKKV	spielen	retten	fair	treu	schön	ehrlich	strafen	rächen	faul	tot	schlecht	eitel	1	acq_USpleas_CSpleas1_RW	acq2_RW	2	2	480	0	300	300	833	50	0	1	1	blank2r.bmp	0	1	+	0	1	blank2r.bmp	492	1	JXXJ	492	1	blank2r.bmp	572	3	fair	866	1	!	1319	1	!	-1	0	0	0	0	0	0	0	0	0	0	0	0	0	0	0	0	0	0	0	0	0	0	0	0	0	0	0	0	0	0
070319	16:55:12	16:57:44	151669	5.0.10.0	5_exp_RW	19	Rpleas_acq	CS_B	JXXJ	YDDY	MQQM	BZZB	GWWG	VKKV	spielen	retten	fair	treu	schön	ehrlich	strafen	rächen	faul	tot	schlecht	eitel	1	acq_USunple_CSunple1_RW	acq2_RW	2	3	480	0	300	300	385	46	0	1	1	blank2r.bmp	0	1	+	0	1	blank2r.bmp	492	1	MQQM	492	1	blank2r.bmp	572	2	rächen	866	1	!	-1	1	!	-1	0	0	0	0	0	0	0	0	0	0	0	0	0	0	0	0	0	0	0	0	0	0	0	0	0	0	0	0	0	0
070319	16:55:12	16:57:46	154281	5.0.10.0	5_exp_RW	19	Rpleas_acq	CS_B	JXXJ	YDDY	MQQM	BZZB	GWWG	VKKV	spielen	retten	fair	treu	schön	ehrlich	strafen	rächen	faul	tot	schlecht	eitel	1	acq_USpleas_CSpleas2_RW	acq2_RW	2	4	480	0	300	300	819	50	0	1	1	blank2r.bmp	0	1	+	0	1	blank2r.bmp	492	1	YDDY	492	1	blank2r.bmp	572	1	treu	866	1	!	1319	1	!	-1	0	0	0	0	0	0	0	0	0	0	0	0	0	0	0	0	0	0	0	0	0	0	0	0	0	0	0	0	0	0
070319	16:55:12	16:57:49	157014	5.0.10.0	5_exp_RW	19	Rpleas_acq	CS_B	JXXJ	YDDY	MQQM	BZZB	GWWG	VKKV	spielen	retten	fair	treu	schön	ehrlich	strafen	rächen	faul	tot	schlecht	eitel	1	acq_USpleas_CSpleas2_RW	acq2_RW	2	5	480	0	300	300	950	50	0	1	1	blank2r.bmp	0	1	+	0	1	blank2r.bmp	492	1	YDDY	492	1	blank2r.bmp	572	2	schön	866	1	!	1319	1	!	-1	0	0	0	0	0	0	0	0	0	0	0	0	0	0	0	0	0	0	0	0	0	0	0	0	0	0	0	0	0	0
070319	16:55:12	16:57:51	159106	5.0.10.0	5_exp_RW	19	Rpleas_acq	CS_B	JXXJ	YDDY	MQQM	BZZB	GWWG	VKKV	spielen	retten	fair	treu	schön	ehrlich	strafen	rächen	faul	tot	schlecht	eitel	1	acq_USunple_CSunple2_RW	acq2_RW	2	6	480	0	300	300	311	46	0	1	1	blank2r.bmp	0	1	+	0	1	blank2r.bmp	492	1	BZZB	492	1	blank2r.bmp	572	2	schlecht	866	1	!	-1	1	!	-1	0	0	0	0	0	0	0	0	0	0	0	0	0	0	0	0	0	0	0	0	0	0	0	0	0	0	0	0	0	0
070319	16:55:12	16:57:54	161412	5.0.10.0	5_exp_RW	19	Rpleas_acq	CS_B	JXXJ	YDDY	MQQM	BZZB	GWWG	VKKV	spielen	retten	fair	treu	schön	ehrlich	strafen	rächen	faul	tot	schlecht	eitel	1	acq_USunple_CSunple1_RW	acq2_RW	2	7	480	1	300	300	493	46	0	1	1	blank2r.bmp	0	1	+	0	1	blank2r.bmp	492	1	MQQM	492	1	blank2r.bmp	572	2	rächen	866	1	!	1319	1	!	1399	0	0	0	0	0	0	0	0	0	0	0	0	0	0	0	0	0	0	0	0	0	0	0	0	0	0	0	0	0	0
070319	16:55:12	16:57:55	163344	5.0.10.0	5_exp_RW	19	Rpleas_acq	CS_B	JXXJ	YDDY	MQQM	BZZB	GWWG	VKKV	spielen	retten	fair	treu	schön	ehrlich	strafen	rächen	faul	tot	schlecht	eitel	1	acq_USpleas_CSpleas2_RW	acq2_RW	2	8	480	0	300	300	166	50	0	1	1	blank2r.bmp	0	1	+	0	1	blank2r.bmp	492	1	YDDY	492	1	blank2r.bmp	572	2	schön	866	1	!	-1	1	!	-1	0	0	0	0	0	0	0	0	0	0	0	0	0	0	0	0	0	0	0	0	0	0	0	0	0	0	0	0	0	0
070319	16:55:12	16:57:58	165837	5.0.10.0	5_exp_RW	19	Rpleas_acq	CS_B	JXXJ	YDDY	MQQM	BZZB	GWWG	VKKV	spielen	retten	fair	treu	schön	ehrlich	strafen	rächen	faul	tot	schlecht	eitel	1	acq_USunple_CSunple2_RW	acq2_RW	2	9	480	0	300	300	713	46	0	1	1	blank2r.bmp	0	1	+	0	1	blank2r.bmp	492	1	BZZB	492	1	blank2r.bmp	572	1	tot	866	1	!	1319	1	!	-1	0	0	0	0	0	0	0	0	0	0	0	0	0	0	0	0	0	0	0	0	0	0	0	0	0	0	0	0	0	0
070319	16:55:12	16:58:00	167742	5.0.10.0	5_exp_RW	19	Rpleas_acq	CS_B	JXXJ	YDDY	MQQM	BZZB	GWWG	VKKV	spielen	retten	fair	treu	schön	ehrlich	strafen	rächen	faul	tot	schlecht	eitel	1	acq_USpleas_CSpleas1_RW	acq2_RW	2	10	480	0	300	300	127	50	0	1	1	blank2r.bmp	0	1	+	0	1	blank2r.bmp	492	1	JXXJ	492	1	blank2r.bmp	572	1	spielen	866	1	!	-1	1	!	-1	0	0	0	0	0	0	0	0	0	0	0	0	0	0	0	0	0	0	0	0	0	0	0	0	0	0	0	0	0	0
070319	16:55:12	16:58:02	170208	5.0.10.0	5_exp_RW	19	Rpleas_acq	CS_B	JXXJ	YDDY	MQQM	BZZB	GWWG	VKKV	spielen	retten	fair	treu	schön	ehrlich	strafen	rächen	faul	tot	schlecht	eitel	1	acq_USpleas_CSpleas1_RW	acq2_RW	2	11	480	0	300	300	689	50	0	1	1	blank2r.bmp	0	1	+	0	1	blank2r.bmp	492	1	JXXJ	492	1	blank2r.bmp	572	1	spielen	866	1	!	1319	1	!	-1	0	0	0	0	0	0	0	0	0	0	0	0	0	0	0	0	0	0	0	0	0	0	0	0	0	0	0	0	0	0
070319	16:55:12	16:58:05	172740	5.0.10.0	5_exp_RW	19	Rpleas_acq	CS_B	JXXJ	YDDY	MQQM	BZZB	GWWG	VKKV	spielen	retten	fair	treu	schön	ehrlich	strafen	rächen	faul	tot	schlecht	eitel	1	acq_USpleas_CSpleas2_RW	acq2_RW	2	12	480	0	300	300	745	50	0	1	1	blank2r.bmp	0	1	+	0	1	blank2r.bmp	492	1	YDDY	492	1	blank2r.bmp	572	1	treu	866	1	!	1319	1	!	-1	0	0	0	0	0	0	0	0	0	0	0	0	0	0	0	0	0	0	0	0	0	0	0	0	0	0	0	0	0	0
070319	16:55:12	16:58:07	175099	5.0.10.0	5_exp_RW	19	Rpleas_acq	CS_B	JXXJ	YDDY	MQQM	BZZB	GWWG	VKKV	spielen	retten	fair	treu	schön	ehrlich	strafen	rächen	faul	tot	schlecht	eitel	1	acq_USunple_CSunple2_RW	acq2_RW	2	13	480	0	300	300	578	46	0	1	1	blank2r.bmp	0	1	+	0	1	blank2r.bmp	492	1	BZZB	492	1	blank2r.bmp	572	1	tot	866	1	!	1319	1	!	-1	0	0	0	0	0	0	0	0	0	0	0	0	0	0	0	0	0	0	0	0	0	0	0	0	0	0	0	0	0	0
070319	16:55:12	16:58:09	177045	5.0.10.0	5_exp_RW	19	Rpleas_acq	CS_B	JXXJ	YDDY	MQQM	BZZB	GWWG	VKKV	spielen	retten	fair	treu	schön	ehrlich	strafen	rächen	faul	tot	schlecht	eitel	1	acq_USpleas_CSpleas1_RW	acq2_RW	2	14	480	0	300	300	156	50	0	1	1	blank2r.bmp	0	1	+	0	1	blank2r.bmp	492	1	JXXJ	492	1	blank2r.bmp	572	2	retten	866	1	!	-1	1	!	-1	0	0	0	0	0	0	0	0	0	0	0	0	0	0	0	0	0	0	0	0	0	0	0	0	0	0	0	0	0	0
070319	16:55:12	16:58:11	179231	5.0.10.0	5_exp_RW	19	Rpleas_acq	CS_B	JXXJ	YDDY	MQQM	BZZB	GWWG	VKKV	spielen	retten	fair	treu	schön	ehrlich	strafen	rächen	faul	tot	schlecht	eitel	1	acq_USpleas_CSpleas2_RW	acq2_RW	2	15	480	0	300	300	181	46	0	0	1	blank2r.bmp	0	1	+	0	1	blank2r.bmp	492	1	YDDY	492	1	blank2r.bmp	572	3	ehrlich	866	1	FEHLER	1386	1	!	-1	1	!	-1	0	0	0	0	0	0	0	0	0	0	0	0	0	0	0	0	0	0	0	0	0	0	0	0	0	0	0
070319	16:55:12	16:58:13	181350	5.0.10.0	5_exp_RW	19	Rpleas_acq	CS_B	JXXJ	YDDY	MQQM	BZZB	GWWG	VKKV	spielen	retten	fair	treu	schön	ehrlich	strafen	rächen	faul	tot	schlecht	eitel	1	acq_USunple_CSunple1_RW	acq2_RW	2	16	480	1	300	300	545	46	0	1	1	blank2r.bmp	0	1	+	0	1	blank2r.bmp	492	1	MQQM	492	1	blank2r.bmp	572	3	faul	866	1	!	1319	1	!	1439	0	0	0	0	0	0	0	0	0	0	0	0	0	0	0	0	0	0	0	0	0	0	0	0	0	0	0	0	0	0
070319	16:55:12	16:58:16	183776	5.0.10.0	5_exp_RW	19	Rpleas_acq	CS_B	JXXJ	YDDY	MQQM	BZZB	GWWG	VKKV	spielen	retten	fair	treu	schön	ehrlich	strafen	rächen	faul	tot	schlecht	eitel	1	acq_USunple_CSunple2_RW	acq2_RW	2	17	480	0	300	300	655	46	0	1	1	blank2r.bmp	0	1	+	0	1	blank2r.bmp	492	1	BZZB	492	1	blank2r.bmp	572	2	schlecht	866	1	!	1319	1	!	-1	0	0	0	0	0	0	0	0	0	0	0	0	0	0	0	0	0	0	0	0	0	0	0	0	0	0	0	0	0	0
070319	16:55:12	16:58:18	185895	5.0.10.0	5_exp_RW	19	Rpleas_acq	CS_B	JXXJ	YDDY	MQQM	BZZB	GWWG	VKKV	spielen	retten	fair	treu	schön	ehrlich	strafen	rächen	faul	tot	schlecht	eitel	1	acq_USpleas_CSpleas2_RW	acq2_RW	2	18	480	0	300	300	339	50	0	1	1	blank2r.bmp	0	1	+	0	1	blank2r.bmp	492	1	YDDY	492	1	blank2r.bmp	572	1	treu	866	1	!	-1	1	!	-1	0	0	0	0	0	0	0	0	0	0	0	0	0	0	0	0	0	0	0	0	0	0	0	0	0	0	0	0	0	0
070319	16:55:12	16:58:20	188307	5.0.10.0	5_exp_RW	19	Rpleas_acq	CS_B	JXXJ	YDDY	MQQM	BZZB	GWWG	VKKV	spielen	retten	fair	treu	schön	ehrlich	strafen	rächen	faul	tot	schlecht	eitel	1	acq_USunple_CSunple2_RW	acq2_RW	2	19	480	0	300	300	615	46	0	1	1	blank2r.bmp	0	1	+	0	1	blank2r.bmp	492	1	BZZB	492	1	blank2r.bmp	572	3	eitel	866	1	!	1319	1	!	-1	0	0	0	0	0	0	0	0	0	0	0	0	0	0	0	0	0	0	0	0	0	0	0	0	0	0	0	0	0	0
070319	16:55:12	16:58:23	190733	5.0.10.0	5_exp_RW	19	Rpleas_acq	CS_B	JXXJ	YDDY	MQQM	BZZB	GWWG	VKKV	spielen	retten	fair	treu	schön	ehrlich	strafen	rächen	faul	tot	schlecht	eitel	1	acq_USpleas_CSpleas1_RW	acq2_RW	2	20	480	0	300	300	642	50	0	1	1	blank2r.bmp	0	1	+	0	1	blank2r.bmp	492	1	JXXJ	492	1	blank2r.bmp	572	3	fair	866	1	!	1319	1	!	-1	0	0	0	0	0	0	0	0	0	0	0	0	0	0	0	0	0	0	0	0	0	0	0	0	0	0	0	0	0	0
070319	16:55:12	16:58:25	192692	5.0.10.0	5_exp_RW	19	Rpleas_acq	CS_B	JXXJ	YDDY	MQQM	BZZB	GWWG	VKKV	spielen	retten	fair	treu	schön	ehrlich	strafen	rächen	faul	tot	schlecht	eitel	1	acq_USunple_CSunple2_RW	acq2_RW	2	21	480	0	300	300	181	46	0	1	1	blank2r.bmp	0	1	+	0	1	blank2r.bmp	492	1	BZZB	492	1	blank2r.bmp	572	2	schlecht	866	1	!	-1	1	!	-1	0	0	0	0	0	0	0	0	0	0	0	0	0	0	0	0	0	0	0	0	0	0	0	0	0	0	0	0	0	0
070319	16:55:12	16:58:27	194864	5.0.10.0	5_exp_RW	19	Rpleas_acq	CS_B	JXXJ	YDDY	MQQM	BZZB	GWWG	VKKV	spielen	retten	fair	treu	schön	ehrlich	strafen	rächen	faul	tot	schlecht	eitel	1	acq_USunple_CSunple1_RW	acq2_RW	2	22	480	0	300	300	158	50	0	0	1	blank2r.bmp	0	1	+	0	1	blank2r.bmp	492	1	MQQM	492	1	blank2r.bmp	572	1	strafen	866	1	FEHLER	1372	1	!	-1	1	!	-1	0	0	0	0	0	0	0	0	0	0	0	0	0	0	0	0	0	0	0	0	0	0	0	0	0	0	0
070319	16:55:12	16:58:29	196730	5.0.10.0	5_exp_RW	19	Rpleas_acq	CS_B	JXXJ	YDDY	MQQM	BZZB	GWWG	VKKV	spielen	retten	fair	treu	schön	ehrlich	strafen	rächen	faul	tot	schlecht	eitel	1	acq_USpleas_CSpleas1_RW	acq2_RW	2	23	480	0	300	300	314	50	0	1	1	blank2r.bmp	0	1	+	0	1	blank2r.bmp	492	1	JXXJ	492	1	blank2r.bmp	572	1	spielen	866	1	!	-1	1	!	-1	0	0	0	0	0	0	0	0	0	0	0	0	0	0	0	0	0	0	0	0	0	0	0	0	0	0	0	0	0	0
070319	16:55:12	16:58:31	198689	5.0.10.0	5_exp_RW	19	Rpleas_acq	CS_B	JXXJ	YDDY	MQQM	BZZB	GWWG	VKKV	spielen	retten	fair	treu	schön	ehrlich	strafen	rächen	faul	tot	schlecht	eitel	1	acq_USunple_CSunple1_RW	acq2_RW	2	24	480	0	300	300	176	46	0	1	1	blank2r.bmp	0	1	+	0	1	blank2r.bmp	492	1	MQQM	492	1	blank2r.bmp	572	1	strafen	866	1	!	-1	1	!	-1	0	0	0	0	0	0	0	0	0	0	0	0	0	0	0	0	0	0	0	0	0	0	0	0	0	0	0	0	0	0
070319	16:55:12	16:58:49	216722	5.0.10.0	5_exp_RW	19	Rpleas_acq	CS_B	JXXJ	YDDY	MQQM	BZZB	GWWG	VKKV	spielen	retten	fair	treu	schön	ehrlich	strafen	rächen	faul	tot	schlecht	eitel	1	acq_USpleas_CSpleas2_RW	acq3_RW	3	1	453	0	300	300	617	50	0	1	1	blank2r.bmp	0	1	+	0	1	blank2r.bmp	492	1	YDDY	492	1	blank2r.bmp	572	3	ehrlich	866	1	!	1292	1	!	-1	0	0	0	0	0	0	0	0	0	0	0	0	0	0	0	0	0	0	0	0	0	0	0	0	0	0	0	0	0	0
070319	16:55:12	16:58:51	218974	5.0.10.0	5_exp_RW	19	Rpleas_acq	CS_B	JXXJ	YDDY	MQQM	BZZB	GWWG	VKKV	spielen	retten	fair	treu	schön	ehrlich	strafen	rächen	faul	tot	schlecht	eitel	1	acq_USunple_CSunple2_RW	acq3_RW	3	2	453	0	300	300	239	50	0	0	1	blank2r.bmp	0	1	+	0	1	blank2r.bmp	492	1	BZZB	492	1	blank2r.bmp	572	3	eitel	866	1	FEHLER	1452	1	!	-1	1	!	-1	0	0	0	0	0	0	0	0	0	0	0	0	0	0	0	0	0	0	0	0	0	0	0	0	0	0	0
070319	16:55:12	16:58:53	221013	5.0.10.0	5_exp_RW	19	Rpleas_acq	CS_B	JXXJ	YDDY	MQQM	BZZB	GWWG	VKKV	spielen	retten	fair	treu	schön	ehrlich	strafen	rächen	faul	tot	schlecht	eitel	1	acq_USunple_CSunple1_RW	acq3_RW	3	3	453	1	300	300	443	46	0	1	1	blank2r.bmp	0	1	+	0	1	blank2r.bmp	492	1	MQQM	492	1	blank2r.bmp	572	3	faul	866	1	!	1292	1	!	1346	0	0	0	0	0	0	0	0	0	0	0	0	0	0	0	0	0	0	0	0	0	0	0	0	0	0	0	0	0	0
070319	16:55:12	16:58:55	223279	5.0.10.0	5_exp_RW	19	Rpleas_acq	CS_B	JXXJ	YDDY	MQQM	BZZB	GWWG	VKKV	spielen	retten	fair	treu	schön	ehrlich	strafen	rächen	faul	tot	schlecht	eitel	1	acq_USunple_CSunple2_RW	acq3_RW	3	4	453	1	300	300	467	46	0	1	1	blank2r.bmp	0	1	+	0	1	blank2r.bmp	492	1	BZZB	492	1	blank2r.bmp	572	1	tot	866	1	!	1292	1	!	1372	0	0	0	0	0	0	0	0	0	0	0	0	0	0	0	0	0	0	0	0	0	0	0	0	0	0	0	0	0	0
070319	16:55:12	16:58:57	225332	5.0.10.0	5_exp_RW	19	Rpleas_acq	CS_B	JXXJ	YDDY	MQQM	BZZB	GWWG	VKKV	spielen	retten	fair	treu	schön	ehrlich	strafen	rächen	faul	tot	schlecht	eitel	1	acq_USpleas_CSpleas1_RW	acq3_RW	3	5	453	0	300	300	285	50	0	1	1	blank2r.bmp	0	1	+	0	1	blank2r.bmp	492	1	JXXJ	492	1	blank2r.bmp	572	3	fair	866	1	!	-1	1	!	-1	0	0	0	0	0	0	0	0	0	0	0	0	0	0	0	0	0	0	0	0	0	0	0	0	0	0	0	0	0	0
070319	16:55:12	16:59:00	227664	5.0.10.0	5_exp_RW	19	Rpleas_acq	CS_B	JXXJ	YDDY	MQQM	BZZB	GWWG	VKKV	spielen	retten	fair	treu	schön	ehrlich	strafen	rächen	faul	tot	schlecht	eitel	1	acq_USpleas_CSpleas2_RW	acq3_RW	3	6	453	1	300	300	506	50	0	1	1	blank2r.bmp	0	1	+	0	1	blank2r.bmp	492	1	YDDY	492	1	blank2r.bmp	572	2	schön	866	1	!	1292	1	!	1412	0	0	0	0	0	0	0	0	0	0	0	0	0	0	0	0	0	0	0	0	0	0	0	0	0	0	0	0	0	0
070319	16:55:12	16:59:02	230090	5.0.10.0	5_exp_RW	19	Rpleas_acq	CS_B	JXXJ	YDDY	MQQM	BZZB	GWWG	VKKV	spielen	retten	fair	treu	schön	ehrlich	strafen	rächen	faul	tot	schlecht	eitel	1	acq_USunple_CSunple1_RW	acq3_RW	3	7	453	0	300	300	652	46	0	1	1	blank2r.bmp	0	1	+	0	1	blank2r.bmp	492	1	MQQM	492	1	blank2r.bmp	572	2	rächen	866	1	!	1292	1	!	-1	0	0	0	0	0	0	0	0	0	0	0	0	0	0	0	0	0	0	0	0	0	0	0	0	0	0	0	0	0	0
070319	16:55:12	16:59:05	232422	5.0.10.0	5_exp_RW	19	Rpleas_acq	CS_B	JXXJ	YDDY	MQQM	BZZB	GWWG	VKKV	spielen	retten	fair	treu	schön	ehrlich	strafen	rächen	faul	tot	schlecht	eitel	1	acq_USpleas_CSpleas1_RW	acq3_RW	3	8	453	1	300	300	505	50	0	1	1	blank2r.bmp	0	1	+	0	1	blank2r.bmp	492	1	JXXJ	492	1	blank2r.bmp	572	2	retten	866	1	!	1292	1	!	1412	0	0	0	0	0	0	0	0	0	0	0	0	0	0	0	0	0	0	0	0	0	0	0	0	0	0	0	0	0	0
070319	16:55:12	16:59:07	235034	5.0.10.0	5_exp_RW	19	Rpleas_acq	CS_B	JXXJ	YDDY	MQQM	BZZB	GWWG	VKKV	spielen	retten	fair	treu	schön	ehrlich	strafen	rächen	faul	tot	schlecht	eitel	1	acq_USpleas_CSpleas1_RW	acq3_RW	3	9	453	0	300	300	622	46	0	0	1	blank2r.bmp	0	1	+	0	1	blank2r.bmp	492	1	JXXJ	492	1	blank2r.bmp	572	3	fair	866	1	FEHLER	1825	1	!	1292	1	!	-1	0	0	0	0	0	0	0	0	0	0	0	0	0	0	0	0	0	0	0	0	0	0	0	0	0	0	0
070319	16:55:12	16:59:09	236807	5.0.10.0	5_exp_RW	19	Rpleas_acq	CS_B	JXXJ	YDDY	MQQM	BZZB	GWWG	VKKV	spielen	retten	fair	treu	schön	ehrlich	strafen	rächen	faul	tot	schlecht	eitel	1	acq_USunple_CSunple1_RW	acq3_RW	3	10	453	0	300	300	215	46	0	1	1	blank2r.bmp	0	1	+	0	1	blank2r.bmp	492	1	MQQM	492	1	blank2r.bmp	572	3	faul	866	1	!	-1	1	!	-1	0	0	0	0	0	0	0	0	0	0	0	0	0	0	0	0	0	0	0	0	0	0	0	0	0	0	0	0	0	0
070319	16:55:12	16:59:11	239193	5.0.10.0	5_exp_RW	19	Rpleas_acq	CS_B	JXXJ	YDDY	MQQM	BZZB	GWWG	VKKV	spielen	retten	fair	treu	schön	ehrlich	strafen	rächen	faul	tot	schlecht	eitel	1	acq_USunple_CSunple2_RW	acq3_RW	3	11	453	0	300	300	610	46	0	1	1	blank2r.bmp	0	1	+	0	1	blank2r.bmp	492	1	BZZB	492	1	blank2r.bmp	572	2	schlecht	866	1	!	1292	1	!	-1	0	0	0	0	0	0	0	0	0	0	0	0	0	0	0	0	0	0	0	0	0	0	0	0	0	0	0	0	0	0
070319	16:55:12	16:59:13	241258	5.0.10.0	5_exp_RW	19	Rpleas_acq	CS_B	JXXJ	YDDY	MQQM	BZZB	GWWG	VKKV	spielen	retten	fair	treu	schön	ehrlich	strafen	rächen	faul	tot	schlecht	eitel	1	acq_USpleas_CSpleas2_RW	acq3_RW	3	12	453	0	300	300	284	50	0	1	1	blank2r.bmp	0	1	+	0	1	blank2r.bmp	492	1	YDDY	492	1	blank2r.bmp	572	2	schön	866	1	!	-1	1	!	-1	0	0	0	0	0	0	0	0	0	0	0	0	0	0	0	0	0	0	0	0	0	0	0	0	0	0	0	0	0	0
070319	16:55:12	16:59:16	243617	5.0.10.0	5_exp_RW	19	Rpleas_acq	CS_B	JXXJ	YDDY	MQQM	BZZB	GWWG	VKKV	spielen	retten	fair	treu	schön	ehrlich	strafen	rächen	faul	tot	schlecht	eitel	1	acq_USpleas_CSpleas2_RW	acq3_RW	3	13	453	0	300	300	340	46	0	0	1	blank2r.bmp	0	1	+	0	1	blank2r.bmp	492	1	YDDY	492	1	blank2r.bmp	572	3	ehrlich	866	1	FEHLER	1546	1	!	-1	1	!	-1	0	0	0	0	0	0	0	0	0	0	0	0	0	0	0	0	0	0	0	0	0	0	0	0	0	0	0
070319	16:55:12	16:59:18	245736	5.0.10.0	5_exp_RW	19	Rpleas_acq	CS_B	JXXJ	YDDY	MQQM	BZZB	GWWG	VKKV	spielen	retten	fair	treu	schön	ehrlich	strafen	rächen	faul	tot	schlecht	eitel	1	acq_USunple_CSunple2_RW	acq3_RW	3	14	453	0	300	300	561	46	0	1	1	blank2r.bmp	0	1	+	0	1	blank2r.bmp	492	1	BZZB	492	1	blank2r.bmp	572	3	eitel	866	1	!	1292	1	!	-1	0	0	0	0	0	0	0	0	0	0	0	0	0	0	0	0	0	0	0	0	0	0	0	0	0	0	0	0	0	0
070319	16:55:12	16:59:20	247802	5.0.10.0	5_exp_RW	19	Rpleas_acq	CS_B	JXXJ	YDDY	MQQM	BZZB	GWWG	VKKV	spielen	retten	fair	treu	schön	ehrlich	strafen	rächen	faul	tot	schlecht	eitel	1	acq_USpleas_CSpleas2_RW	acq3_RW	3	15	453	0	300	300	277	50	0	1	1	blank2r.bmp	0	1	+	0	1	blank2r.bmp	492	1	YDDY	492	1	blank2r.bmp	572	1	treu	866	1	!	-1	1	!	-1	0	0	0	0	0	0	0	0	0	0	0	0	0	0	0	0	0	0	0	0	0	0	0	0	0	0	0	0	0	0
070319	16:55:12	16:59:22	249908	5.0.10.0	5_exp_RW	19	Rpleas_acq	CS_B	JXXJ	YDDY	MQQM	BZZB	GWWG	VKKV	spielen	retten	fair	treu	schön	ehrlich	strafen	rächen	faul	tot	schlecht	eitel	1	acq_USunple_CSunple1_RW	acq3_RW	3	16	453	0	300	300	331	46	0	1	1	blank2r.bmp	0	1	+	0	1	blank2r.bmp	492	1	MQQM	492	1	blank2r.bmp	572	2	rächen	866	1	!	-1	1	!	-1	0	0	0	0	0	0	0	0	0	0	0	0	0	0	0	0	0	0	0	0	0	0	0	0	0	0	0	0	0	0
070319	16:55:12	16:59:24	252120	5.0.10.0	5_exp_RW	19	Rpleas_acq	CS_B	JXXJ	YDDY	MQQM	BZZB	GWWG	VKKV	spielen	retten	fair	treu	schön	ehrlich	strafen	rächen	faul	tot	schlecht	eitel	1	acq_USunple_CSunple1_RW	acq3_RW	3	17	453	1	300	300	408	46	0	1	1	blank2r.bmp	0	1	+	0	1	blank2r.bmp	492	1	MQQM	492	1	blank2r.bmp	572	1	strafen	866	1	!	1292	1	!	1306	0	0	0	0	0	0	0	0	0	0	0	0	0	0	0	0	0	0	0	0	0	0	0	0	0	0	0	0	0	0
070319	16:55:12	16:59:27	254426	5.0.10.0	5_exp_RW	19	Rpleas_acq	CS_B	JXXJ	YDDY	MQQM	BZZB	GWWG	VKKV	spielen	retten	fair	treu	schön	ehrlich	strafen	rächen	faul	tot	schlecht	eitel	1	acq_USunple_CSunple2_RW	acq3_RW	3	18	453	0	300	300	532	46	0	1	1	blank2r.bmp	0	1	+	0	1	blank2r.bmp	492	1	BZZB	492	1	blank2r.bmp	572	1	tot	866	1	!	1292	1	!	-1	0	0	0	0	0	0	0	0	0	0	0	0	0	0	0	0	0	0	0	0	0	0	0	0	0	0	0	0	0	0
070319	16:55:12	16:59:29	256719	5.0.10.0	5_exp_RW	19	Rpleas_acq	CS_B	JXXJ	YDDY	MQQM	BZZB	GWWG	VKKV	spielen	retten	fair	treu	schön	ehrlich	strafen	rächen	faul	tot	schlecht	eitel	1	acq_USunple_CSunple2_RW	acq3_RW	3	19	453	1	300	300	474	46	0	1	1	blank2r.bmp	0	1	+	0	1	blank2r.bmp	492	1	BZZB	492	1	blank2r.bmp	572	2	schlecht	866	1	!	1292	1	!	1372	0	0	0	0	0	0	0	0	0	0	0	0	0	0	0	0	0	0	0	0	0	0	0	0	0	0	0	0	0	0
070319	16:55:12	16:59:31	259064	5.0.10.0	5_exp_RW	19	Rpleas_acq	CS_B	JXXJ	YDDY	MQQM	BZZB	GWWG	VKKV	spielen	retten	fair	treu	schön	ehrlich	strafen	rächen	faul	tot	schlecht	eitel	1	acq_USunple_CSunple1_RW	acq3_RW	3	20	453	0	300	300	583	46	0	1	1	blank2r.bmp	0	1	+	0	1	blank2r.bmp	492	1	MQQM	492	1	blank2r.bmp	572	1	strafen	866	1	!	1292	1	!	-1	0	0	0	0	0	0	0	0	0	0	0	0	0	0	0	0	0	0	0	0	0	0	0	0	0	0	0	0	0	0
070319	16:55:12	16:59:33	261370	5.0.10.0	5_exp_RW	19	Rpleas_acq	CS_B	JXXJ	YDDY	MQQM	BZZB	GWWG	VKKV	spielen	retten	fair	treu	schön	ehrlich	strafen	rächen	faul	tot	schlecht	eitel	1	acq_USpleas_CSpleas2_RW	acq3_RW	3	21	453	0	300	300	302	46	0	0	1	blank2r.bmp	0	1	+	0	1	blank2r.bmp	492	1	YDDY	492	1	blank2r.bmp	572	3	ehrlich	866	1	FEHLER	1506	1	!	-1	1	!	-1	0	0	0	0	0	0	0	0	0	0	0	0	0	0	0	0	0	0	0	0	0	0	0	0	0	0	0
070319	16:55:12	16:59:36	263462	5.0.10.0	5_exp_RW	19	Rpleas_acq	CS_B	JXXJ	YDDY	MQQM	BZZB	GWWG	VKKV	spielen	retten	fair	treu	schön	ehrlich	strafen	rächen	faul	tot	schlecht	eitel	1	acq_USpleas_CSpleas1_RW	acq3_RW	3	22	453	1	300	300	516	50	0	1	1	blank2r.bmp	0	1	+	0	1	blank2r.bmp	492	1	JXXJ	492	1	blank2r.bmp	572	2	retten	866	1	!	1292	1	!	1412	0	0	0	0	0	0	0	0	0	0	0	0	0	0	0	0	0	0	0	0	0	0	0	0	0	0	0	0	0	0
070319	16:55:12	16:59:38	265542	5.0.10.0	5_exp_RW	19	Rpleas_acq	CS_B	JXXJ	YDDY	MQQM	BZZB	GWWG	VKKV	spielen	retten	fair	treu	schön	ehrlich	strafen	rächen	faul	tot	schlecht	eitel	1	acq_USpleas_CSpleas1_RW	acq3_RW	3	23	453	0	300	300	312	50	0	1	1	blank2r.bmp	0	1	+	0	1	blank2r.bmp	492	1	JXXJ	492	1	blank2r.bmp	572	1	spielen	866	1	!	-1	1	!	-1	0	0	0	0	0	0	0	0	0	0	0	0	0	0	0	0	0	0	0	0	0	0	0	0	0	0	0	0	0	0
070319	16:55:12	16:59:40	267807	5.0.10.0	5_exp_RW	19	Rpleas_acq	CS_B	JXXJ	YDDY	MQQM	BZZB	GWWG	VKKV	spielen	retten	fair	treu	schön	ehrlich	strafen	rächen	faul	tot	schlecht	eitel	1	acq_USpleas_CSpleas1_RW	acq3_RW	3	24	453	1	300	300	454	50	0	1	1	blank2r.bmp	0	1	+	0	1	blank2r.bmp	492	1	JXXJ	492	1	blank2r.bmp	572	2	retten	866	1	!	1292	1	!	1359	0	0	0	0	0	0	0	0	0	0	0	0	0	0	0	0	0	0	0	0	0	0	0	0	0	0	0	0	0	0
070319	16:55:12	16:59:53	280629	5.0.10.0	5_exp_RW	19	Rpleas_acq	CS_B	JXXJ	YDDY	MQQM	BZZB	GWWG	VKKV	spielen	retten	fair	treu	schön	ehrlich	strafen	rächen	faul	tot	schlecht	eitel	1	acq_USunple_CSunple1_RW	acq4567_RW	4	1	400	1	300	300	436	46	0	1	1	blank2r.bmp	0	1	+	0	1	blank2r.bmp	492	1	MQQM	492	1	blank2r.bmp	572	2	rächen	866	1	!	1239	1	!	1332	0	0	0	0	0	0	0	0	0	0	0	0	0	0	0	0	0	0	0	0	0	0	0	0	0	0	0	0	0	0
070319	16:55:12	16:59:55	282894	5.0.10.0	5_exp_RW	19	Rpleas_acq	CS_B	JXXJ	YDDY	MQQM	BZZB	GWWG	VKKV	spielen	retten	fair	treu	schön	ehrlich	strafen	rächen	faul	tot	schlecht	eitel	1	acq_USunple_CSunple1_RW	acq4567_RW	4	2	400	0	300	300	492	46	0	1	1	blank2r.bmp	0	1	+	0	1	blank2r.bmp	492	1	MQQM	492	1	blank2r.bmp	572	3	faul	866	1	!	1239	1	!	-1	0	0	0	0	0	0	0	0	0	0	0	0	0	0	0	0	0	0	0	0	0	0	0	0	0	0	0	0	0	0
070319	16:55:12	16:59:57	284960	5.0.10.0	5_exp_RW	19	Rpleas_acq	CS_B	JXXJ	YDDY	MQQM	BZZB	GWWG	VKKV	spielen	retten	fair	treu	schön	ehrlich	strafen	rächen	faul	tot	schlecht	eitel	1	acq_USpleas_CSpleas1_RW	acq4567_RW	4	3	400	0	300	300	276	50	0	1	1	blank2r.bmp	0	1	+	0	1	blank2r.bmp	492	1	JXXJ	492	1	blank2r.bmp	572	3	fair	866	1	!	-1	1	!	-1	0	0	0	0	0	0	0	0	0	0	0	0	0	0	0	0	0	0	0	0	0	0	0	0	0	0	0	0	0	0
070319	16:55:12	16:59:59	287226	5.0.10.0	5_exp_RW	19	Rpleas_acq	CS_B	JXXJ	YDDY	MQQM	BZZB	GWWG	VKKV	spielen	retten	fair	treu	schön	ehrlich	strafen	rächen	faul	tot	schlecht	eitel	1	acq_USunple_CSunple2_RW	acq4567_RW	4	4	400	1	300	300	461	50	0	0	1	blank2r.bmp	0	1	+	0	1	blank2r.bmp	492	1	BZZB	492	1	blank2r.bmp	572	3	eitel	866	1	!	1239	1	!	1359	0	0	0	0	0	0	0	0	0	0	0	0	0	0	0	0	0	0	0	0	0	0	0	0	0	0	0	0	0	0
070319	16:55:12	17:00:01	289278	5.0.10.0	5_exp_RW	19	Rpleas_acq	CS_B	JXXJ	YDDY	MQQM	BZZB	GWWG	VKKV	spielen	retten	fair	treu	schön	ehrlich	strafen	rächen	faul	tot	schlecht	eitel	1	acq_USpleas_CSpleas2_RW	acq4567_RW	4	5	400	0	300	300	285	46	0	0	1	blank2r.bmp	0	1	+	0	1	blank2r.bmp	492	1	YDDY	492	1	blank2r.bmp	572	1	treu	866	1	!	-1	1	!	-1	0	0	0	0	0	0	0	0	0	0	0	0	0	0	0	0	0	0	0	0	0	0	0	0	0	0	0	0	0	0
070319	16:55:12	17:00:04	291437	5.0.10.0	5_exp_RW	19	Rpleas_acq	CS_B	JXXJ	YDDY	MQQM	BZZB	GWWG	VKKV	spielen	retten	fair	treu	schön	ehrlich	strafen	rächen	faul	tot	schlecht	eitel	1	acq_USunple_CSunple1_RW	acq4567_RW	4	6	400	1	300	300	347	46	0	1	1	blank2r.bmp	0	1	+	0	1	blank2r.bmp	492	1	MQQM	492	1	blank2r.bmp	572	3	faul	866	1	!	1239	1	!	1252	0	0	0	0	0	0	0	0	0	0	0	0	0	0	0	0	0	0	0	0	0	0	0	0	0	0	0	0	0	0
070319	16:55:12	17:00:06	293636	5.0.10.0	5_exp_RW	19	Rpleas_acq	CS_B	JXXJ	YDDY	MQQM	BZZB	GWWG	VKKV	spielen	retten	fair	treu	schön	ehrlich	strafen	rächen	faul	tot	schlecht	eitel	1	acq_USunple_CSunple2_RW	acq4567_RW	4	7	400	1	300	300	403	46	0	1	1	blank2r.bmp	0	1	+	0	1	blank2r.bmp	492	1	BZZB	492	1	blank2r.bmp	572	1	tot	866	1	!	1239	1	!	1306	0	0	0	0	0	0	0	0	0	0	0	0	0	0	0	0	0	0	0	0	0	0	0	0	0	0	0	0	0	0
070319	16:55:12	17:00:08	295862	5.0.10.0	5_exp_RW	19	Rpleas_acq	CS_B	JXXJ	YDDY	MQQM	BZZB	GWWG	VKKV	spielen	retten	fair	treu	schön	ehrlich	strafen	rächen	faul	tot	schlecht	eitel	1	acq_USpleas_CSpleas1_RW	acq4567_RW	4	8	400	1	300	300	426	50	0	1	1	blank2r.bmp	0	1	+	0	1	blank2r.bmp	492	1	JXXJ	492	1	blank2r.bmp	572	1	spielen	866	1	!	1239	1	!	1332	0	0	0	0	0	0	0	0	0	0	0	0	0	0	0	0	0	0	0	0	0	0	0	0	0	0	0	0	0	0
070319	16:55:12	17:00:10	298101	5.0.10.0	5_exp_RW	19	Rpleas_acq	CS_B	JXXJ	YDDY	MQQM	BZZB	GWWG	VKKV	spielen	retten	fair	treu	schön	ehrlich	strafen	rächen	faul	tot	schlecht	eitel	1	acq_USpleas_CSpleas1_RW	acq4567_RW	4	9	400	1	300	300	439	50	0	1	1	blank2r.bmp	0	1	+	0	1	blank2r.bmp	492	1	JXXJ	492	1	blank2r.bmp	572	2	retten	866	1	!	1239	1	!	1346	0	0	0	0	0	0	0	0	0	0	0	0	0	0	0	0	0	0	0	0	0	0	0	0	0	0	0	0	0	0
070319	16:55:12	17:00:12	300167	5.0.10.0	5_exp_RW	19	Rpleas_acq	CS_B	JXXJ	YDDY	MQQM	BZZB	GWWG	VKKV	spielen	retten	fair	treu	schön	ehrlich	strafen	rächen	faul	tot	schlecht	eitel	1	acq_USpleas_CSpleas2_RW	acq4567_RW	4	10	400	0	300	300	280	46	0	0	1	blank2r.bmp	0	1	+	0	1	blank2r.bmp	492	1	YDDY	492	1	blank2r.bmp	572	2	schön	866	1	!	-1	1	!	-1	0	0	0	0	0	0	0	0	0	0	0	0	0	0	0	0	0	0	0	0	0	0	0	0	0	0	0	0	0	0
070319	16:55:12	17:00:15	302499	5.0.10.0	5_exp_RW	19	Rpleas_acq	CS_B	JXXJ	YDDY	MQQM	BZZB	GWWG	VKKV	spielen	retten	fair	treu	schön	ehrlich	strafen	rächen	faul	tot	schlecht	eitel	1	acq_USunple_CSunple1_RW	acq4567_RW	4	11	400	0	300	300	552	46	0	1	1	blank2r.bmp	0	1	+	0	1	blank2r.bmp	492	1	MQQM	492	1	blank2r.bmp	572	1	strafen	866	1	!	1239	1	!	-1	0	0	0	0	0	0	0	0	0	0	0	0	0	0	0	0	0	0	0	0	0	0	0	0	0	0	0	0	0	0
070319	16:55:12	17:00:17	304738	5.0.10.0	5_exp_RW	19	Rpleas_acq	CS_B	JXXJ	YDDY	MQQM	BZZB	GWWG	VKKV	spielen	retten	fair	treu	schön	ehrlich	strafen	rächen	faul	tot	schlecht	eitel	1	acq_USunple_CSunple2_RW	acq4567_RW	4	12	400	1	300	300	430	46	0	1	1	blank2r.bmp	0	1	+	0	1	blank2r.bmp	492	1	BZZB	492	1	blank2r.bmp	572	3	eitel	866	1	!	1239	1	!	1332	0	0	0	0	0	0	0	0	0	0	0	0	0	0	0	0	0	0	0	0	0	0	0	0	0	0	0	0	0	0
070319	16:55:12	17:00:19	307018	5.0.10.0	5_exp_RW	19	Rpleas_acq	CS_B	JXXJ	YDDY	MQQM	BZZB	GWWG	VKKV	spielen	retten	fair	treu	schön	ehrlich	strafen	rächen	faul	tot	schlecht	eitel	1	acq_USunple_CSunple2_RW	acq4567_RW	4	13	400	0	300	300	516	46	0	1	1	blank2r.bmp	0	1	+	0	1	blank2r.bmp	492	1	BZZB	492	1	blank2r.bmp	572	1	tot	866	1	!	1239	1	!	-1	0	0	0	0	0	0	0	0	0	0	0	0	0	0	0	0	0	0	0	0	0	0	0	0	0	0	0	0	0	0
070319	16:55:12	17:00:21	309283	5.0.10.0	5_exp_RW	19	Rpleas_acq	CS_B	JXXJ	YDDY	MQQM	BZZB	GWWG	VKKV	spielen	retten	fair	treu	schön	ehrlich	strafen	rächen	faul	tot	schlecht	eitel	1	acq_USpleas_CSpleas1_RW	acq4567_RW	4	14	400	0	300	300	479	50	0	1	1	blank2r.bmp	0	1	+	0	1	blank2r.bmp	492	1	JXXJ	492	1	blank2r.bmp	572	3	fair	866	1	!	1239	1	!	-1	0	0	0	0	0	0	0	0	0	0	0	0	0	0	0	0	0	0	0	0	0	0	0	0	0	0	0	0	0	0
070319	16:55:12	17:00:24	311456	5.0.10.0	5_exp_RW	19	Rpleas_acq	CS_B	JXXJ	YDDY	MQQM	BZZB	GWWG	VKKV	spielen	retten	fair	treu	schön	ehrlich	strafen	rächen	faul	tot	schlecht	eitel	1	acq_USpleas_CSpleas2_RW	acq4567_RW	4	15	400	1	300	300	368	50	0	1	1	blank2r.bmp	0	1	+	0	1	blank2r.bmp	492	1	YDDY	492	1	blank2r.bmp	572	2	schön	866	1	!	1239	1	!	1266	0	0	0	0	0	0	0	0	0	0	0	0	0	0	0	0	0	0	0	0	0	0	0	0	0	0	0	0	0	0
070319	16:55:12	17:00:26	313681	5.0.10.0	5_exp_RW	19	Rpleas_acq	CS_B	JXXJ	YDDY	MQQM	BZZB	GWWG	VKKV	spielen	retten	fair	treu	schön	ehrlich	strafen	rächen	faul	tot	schlecht	eitel	1	acq_USpleas_CSpleas1_RW	acq4567_RW	4	16	400	1	300	300	418	50	0	1	1	blank2r.bmp	0	1	+	0	1	blank2r.bmp	492	1	JXXJ	492	1	blank2r.bmp	572	1	spielen	866	1	!	1239	1	!	1319	0	0	0	0	0	0	0	0	0	0	0	0	0	0	0	0	0	0	0	0	0	0	0	0	0	0	0	0	0	0
070319	16:55:12	17:00:28	315867	5.0.10.0	5_exp_RW	19	Rpleas_acq	CS_B	JXXJ	YDDY	MQQM	BZZB	GWWG	VKKV	spielen	retten	fair	treu	schön	ehrlich	strafen	rächen	faul	tot	schlecht	eitel	1	acq_USpleas_CSpleas2_RW	acq4567_RW	4	17	400	1	300	300	393	50	0	1	1	blank2r.bmp	0	1	+	0	1	blank2r.bmp	492	1	YDDY	492	1	blank2r.bmp	572	1	treu	866	1	!	1239	1	!	1292	0	0	0	0	0	0	0	0	0	0	0	0	0	0	0	0	0	0	0	0	0	0	0	0	0	0	0	0	0	0
070319	16:55:12	17:00:30	318120	5.0.10.0	5_exp_RW	19	Rpleas_acq	CS_B	JXXJ	YDDY	MQQM	BZZB	GWWG	VKKV	spielen	retten	fair	treu	schön	ehrlich	strafen	rächen	faul	tot	schlecht	eitel	1	acq_USunple_CSunple2_RW	acq4567_RW	4	18	400	1	300	300	455	46	0	1	1	blank2r.bmp	0	1	+	0	1	blank2r.bmp	492	1	BZZB	492	1	blank2r.bmp	572	2	schlecht	866	1	!	1239	1	!	1359	0	0	0	0	0	0	0	0	0	0	0	0	0	0	0	0	0	0	0	0	0	0	0	0	0	0	0	0	0	0
070319	16:55:12	17:00:32	320359	5.0.10.0	5_exp_RW	19	Rpleas_acq	CS_B	JXXJ	YDDY	MQQM	BZZB	GWWG	VKKV	spielen	retten	fair	treu	schön	ehrlich	strafen	rächen	faul	tot	schlecht	eitel	1	acq_USunple_CSunple1_RW	acq4567_RW	4	19	400	1	300	300	443	46	0	1	1	blank2r.bmp	0	1	+	0	1	blank2r.bmp	492	1	MQQM	492	1	blank2r.bmp	572	2	rächen	866	1	!	1239	1	!	1346	0	0	0	0	0	0	0	0	0	0	0	0	0	0	0	0	0	0	0	0	0	0	0	0	0	0	0	0	0	0
070319	16:55:12	17:00:35	322598	5.0.10.0	5_exp_RW	19	Rpleas_acq	CS_B	JXXJ	YDDY	MQQM	BZZB	GWWG	VKKV	spielen	retten	fair	treu	schön	ehrlich	strafen	rächen	faul	tot	schlecht	eitel	1	acq_USpleas_CSpleas2_RW	acq4567_RW	4	20	400	1	300	300	441	50	0	1	1	blank2r.bmp	0	1	+	0	1	blank2r.bmp	492	1	YDDY	492	1	blank2r.bmp	572	3	ehrlich	866	1	!	1239	1	!	1346	0	0	0	0	0	0	0	0	0	0	0	0	0	0	0	0	0	0	0	0	0	0	0	0	0	0	0	0	0	0
070319	16:55:12	17:00:37	324810	5.0.10.0	5_exp_RW	19	Rpleas_acq	CS_B	JXXJ	YDDY	MQQM	BZZB	GWWG	VKKV	spielen	retten	fair	treu	schön	ehrlich	strafen	rächen	faul	tot	schlecht	eitel	1	acq_USpleas_CSpleas2_RW	acq4567_RW	4	21	400	1	300	300	416	50	0	1	1	blank2r.bmp	0	1	+	0	1	blank2r.bmp	492	1	YDDY	492	1	blank2r.bmp	572	1	treu	866	1	!	1239	1	!	1319	0	0	0	0	0	0	0	0	0	0	0	0	0	0	0	0	0	0	0	0	0	0	0	0	0	0	0	0	0	0
070319	16:55:12	17:00:39	326969	5.0.10.0	5_exp_RW	19	Rpleas_acq	CS_B	JXXJ	YDDY	MQQM	BZZB	GWWG	VKKV	spielen	retten	fair	treu	schön	ehrlich	strafen	rächen	faul	tot	schlecht	eitel	1	acq_USpleas_CSpleas1_RW	acq4567_RW	4	22	400	1	300	300	352	50	0	1	1	blank2r.bmp	0	1	+	0	1	blank2r.bmp	492	1	JXXJ	492	1	blank2r.bmp	572	1	spielen	866	1	!	1239	1	!	1252	0	0	0	0	0	0	0	0	0	0	0	0	0	0	0	0	0	0	0	0	0	0	0	0	0	0	0	0	0	0
070319	16:55:12	17:00:41	329155	5.0.10.0	5_exp_RW	19	Rpleas_acq	CS_B	JXXJ	YDDY	MQQM	BZZB	GWWG	VKKV	spielen	retten	fair	treu	schön	ehrlich	strafen	rächen	faul	tot	schlecht	eitel	1	acq_USunple_CSunple1_RW	acq4567_RW	4	23	400	1	300	300	389	46	0	1	1	blank2r.bmp	0	1	+	0	1	blank2r.bmp	492	1	MQQM	492	1	blank2r.bmp	572	3	faul	866	1	!	1239	1	!	1292	0	0	0	0	0	0	0	0	0	0	0	0	0	0	0	0	0	0	0	0	0	0	0	0	0	0	0	0	0	0
070319	16:55:12	17:00:44	331407	5.0.10.0	5_exp_RW	19	Rpleas_acq	CS_B	JXXJ	YDDY	MQQM	BZZB	GWWG	VKKV	spielen	retten	fair	treu	schön	ehrlich	strafen	rächen	faul	tot	schlecht	eitel	1	acq_USpleas_CSpleas1_RW	acq4567_RW	4	24	400	0	300	300	479	50	0	1	1	blank2r.bmp	0	1	+	0	1	blank2r.bmp	492	1	JXXJ	492	1	blank2r.bmp	572	3	fair	866	1	!	1239	1	!	-1	0	0	0	0	0	0	0	0	0	0	0	0	0	0	0	0	0	0	0	0	0	0	0	0	0	0	0	0	0	0
070319	16:55:12	17:00:46	333646	5.0.10.0	5_exp_RW	19	Rpleas_acq	CS_B	JXXJ	YDDY	MQQM	BZZB	GWWG	VKKV	spielen	retten	fair	treu	schön	ehrlich	strafen	rächen	faul	tot	schlecht	eitel	1	acq_USunple_CSunple1_RW	acq4567_RW	4	25	400	1	300	300	426	46	0	1	1	blank2r.bmp	0	1	+	0	1	blank2r.bmp	492	1	MQQM	492	1	blank2r.bmp	572	2	rächen	866	1	!	1239	1	!	1332	0	0	0	0	0	0	0	0	0	0	0	0	0	0	0	0	0	0	0	0	0	0	0	0	0	0	0	0	0	0
070319	16:55:12	17:00:48	335819	5.0.10.0	5_exp_RW	19	Rpleas_acq	CS_B	JXXJ	YDDY	MQQM	BZZB	GWWG	VKKV	spielen	retten	fair	treu	schön	ehrlich	strafen	rächen	faul	tot	schlecht	eitel	1	acq_USpleas_CSpleas2_RW	acq4567_RW	4	26	400	1	300	300	381	50	0	1	1	blank2r.bmp	0	1	+	0	1	blank2r.bmp	492	1	YDDY	492	1	blank2r.bmp	572	3	ehrlich	866	1	!	1239	1	!	1279	0	0	0	0	0	0	0	0	0	0	0	0	0	0	0	0	0	0	0	0	0	0	0	0	0	0	0	0	0	0
070319	16:55:12	17:00:50	338071	5.0.10.0	5_exp_RW	19	Rpleas_acq	CS_B	JXXJ	YDDY	MQQM	BZZB	GWWG	VKKV	spielen	retten	fair	treu	schön	ehrlich	strafen	rächen	faul	tot	schlecht	eitel	1	acq_USpleas_CSpleas1_RW	acq4567_RW	4	27	400	1	300	300	456	50	0	1	1	blank2r.bmp	0	1	+	0	1	blank2r.bmp	492	1	JXXJ	492	1	blank2r.bmp	572	2	retten	866	1	!	1239	1	!	1359	0	0	0	0	0	0	0	0	0	0	0	0	0	0	0	0	0	0	0	0	0	0	0	0	0	0	0	0	0	0
070319	16:55:12	17:00:52	340230	5.0.10.0	5_exp_RW	19	Rpleas_acq	CS_B	JXXJ	YDDY	MQQM	BZZB	GWWG	VKKV	spielen	retten	fair	treu	schön	ehrlich	strafen	rächen	faul	tot	schlecht	eitel	1	acq_USunple_CSunple1_RW	acq4567_RW	4	28	400	1	300	300	366	46	0	1	1	blank2r.bmp	0	1	+	0	1	blank2r.bmp	492	1	MQQM	492	1	blank2r.bmp	572	1	strafen	866	1	!	1239	1	!	1266	0	0	0	0	0	0	0	0	0	0	0	0	0	0	0	0	0	0	0	0	0	0	0	0	0	0	0	0	0	0
070319	16:55:12	17:00:55	342483	5.0.10.0	5_exp_RW	19	Rpleas_acq	CS_B	JXXJ	YDDY	MQQM	BZZB	GWWG	VKKV	spielen	retten	fair	treu	schön	ehrlich	strafen	rächen	faul	tot	schlecht	eitel	1	acq_USunple_CSunple2_RW	acq4567_RW	4	29	400	0	300	300	479	46	0	1	1	blank2r.bmp	0	1	+	0	1	blank2r.bmp	492	1	BZZB	492	1	blank2r.bmp	572	2	schlecht	866	1	!	1239	1	!	-1	0	0	0	0	0	0	0	0	0	0	0	0	0	0	0	0	0	0	0	0	0	0	0	0	0	0	0	0	0	0
070319	16:55:12	17:00:57	344642	5.0.10.0	5_exp_RW	19	Rpleas_acq	CS_B	JXXJ	YDDY	MQQM	BZZB	GWWG	VKKV	spielen	retten	fair	treu	schön	ehrlich	strafen	rächen	faul	tot	schlecht	eitel	1	acq_USpleas_CSpleas2_RW	acq4567_RW	4	30	400	1	300	300	347	50	0	1	1	blank2r.bmp	0	1	+	0	1	blank2r.bmp	492	1	YDDY	492	1	blank2r.bmp	572	2	schön	866	1	!	1239	1	!	1252	0	0	0	0	0	0	0	0	0	0	0	0	0	0	0	0	0	0	0	0	0	0	0	0	0	0	0	0	0	0
070319	16:55:12	17:00:59	346921	5.0.10.0	5_exp_RW	19	Rpleas_acq	CS_B	JXXJ	YDDY	MQQM	BZZB	GWWG	VKKV	spielen	retten	fair	treu	schön	ehrlich	strafen	rächen	faul	tot	schlecht	eitel	1	acq_USunple_CSunple2_RW	acq4567_RW	4	31	400	0	300	300	518	50	0	0	1	blank2r.bmp	0	1	+	0	1	blank2r.bmp	492	1	BZZB	492	1	blank2r.bmp	572	3	eitel	866	1	!	1239	1	!	-1	0	0	0	0	0	0	0	0	0	0	0	0	0	0	0	0	0	0	0	0	0	0	0	0	0	0	0	0	0	0
070319	16:55:12	17:01:01	349080	5.0.10.0	5_exp_RW	19	Rpleas_acq	CS_B	JXXJ	YDDY	MQQM	BZZB	GWWG	VKKV	spielen	retten	fair	treu	schön	ehrlich	strafen	rächen	faul	tot	schlecht	eitel	1	acq_USunple_CSunple2_RW	acq4567_RW	4	32	400	1	300	300	346	46	0	1	1	blank2r.bmp	0	1	+	0	1	blank2r.bmp	492	1	BZZB	492	1	blank2r.bmp	572	1	tot	866	1	!	1239	1	!	1252	0	0	0	0	0	0	0	0	0	0	0	0	0	0	0	0	0	0	0	0	0	0	0	0	0	0	0	0	0	0
070319	16:55:12	17:01:03	351239	5.0.10.0	5_exp_RW	19	Rpleas_acq	CS_B	JXXJ	YDDY	MQQM	BZZB	GWWG	VKKV	spielen	retten	fair	treu	schön	ehrlich	strafen	rächen	faul	tot	schlecht	eitel	1	acq_USunple_CSunple1_RW	acq4567_RW	4	33	400	1	300	300	370	50	0	0	1	blank2r.bmp	0	1	+	0	1	blank2r.bmp	492	1	MQQM	492	1	blank2r.bmp	572	2	rächen	866	1	!	1239	1	!	1266	0	0	0	0	0	0	0	0	0	0	0	0	0	0	0	0	0	0	0	0	0	0	0	0	0	0	0	0	0	0
070319	16:55:12	17:01:06	353411	5.0.10.0	5_exp_RW	19	Rpleas_acq	CS_B	JXXJ	YDDY	MQQM	BZZB	GWWG	VKKV	spielen	retten	fair	treu	schön	ehrlich	strafen	rächen	faul	tot	schlecht	eitel	1	acq_USpleas_CSpleas1_RW	acq4567_RW	4	34	400	1	300	300	375	50	0	1	1	blank2r.bmp	0	1	+	0	1	blank2r.bmp	492	1	JXXJ	492	1	blank2r.bmp	572	3	fair	866	1	!	1239	1	!	1279	0	0	0	0	0	0	0	0	0	0	0	0	0	0	0	0	0	0	0	0	0	0	0	0	0	0	0	0	0	0
070319	16:55:12	17:01:08	355584	5.0.10.0	5_exp_RW	19	Rpleas_acq	CS_B	JXXJ	YDDY	MQQM	BZZB	GWWG	VKKV	spielen	retten	fair	treu	schön	ehrlich	strafen	rächen	faul	tot	schlecht	eitel	1	acq_USpleas_CSpleas2_RW	acq4567_RW	4	35	400	1	300	300	373	46	0	0	1	blank2r.bmp	0	1	+	0	1	blank2r.bmp	492	1	YDDY	492	1	blank2r.bmp	572	3	ehrlich	866	1	!	1239	1	!	1279	0	0	0	0	0	0	0	0	0	0	0	0	0	0	0	0	0	0	0	0	0	0	0	0	0	0	0	0	0	0
070319	16:55:12	17:01:10	357836	5.0.10.0	5_exp_RW	19	Rpleas_acq	CS_B	JXXJ	YDDY	MQQM	BZZB	GWWG	VKKV	spielen	retten	fair	treu	schön	ehrlich	strafen	rächen	faul	tot	schlecht	eitel	1	acq_USunple_CSunple1_RW	acq4567_RW	4	36	400	1	300	300	463	50	0	0	1	blank2r.bmp	0	1	+	0	1	blank2r.bmp	492	1	MQQM	492	1	blank2r.bmp	572	3	faul	866	1	!	1239	1	!	1359	0	0	0	0	0	0	0	0	0	0	0	0	0	0	0	0	0	0	0	0	0	0	0	0	0	0	0	0	0	0
070319	16:55:12	17:01:12	360022	5.0.10.0	5_exp_RW	19	Rpleas_acq	CS_B	JXXJ	YDDY	MQQM	BZZB	GWWG	VKKV	spielen	retten	fair	treu	schön	ehrlich	strafen	rächen	faul	tot	schlecht	eitel	1	acq_USunple_CSunple2_RW	acq4567_RW	4	37	400	1	300	300	390	46	0	1	1	blank2r.bmp	0	1	+	0	1	blank2r.bmp	492	1	BZZB	492	1	blank2r.bmp	572	2	schlecht	866	1	!	1239	1	!	1292	0	0	0	0	0	0	0	0	0	0	0	0	0	0	0	0	0	0	0	0	0	0	0	0	0	0	0	0	0	0
070319	16:55:12	17:01:14	362194	5.0.10.0	5_exp_RW	19	Rpleas_acq	CS_B	JXXJ	YDDY	MQQM	BZZB	GWWG	VKKV	spielen	retten	fair	treu	schön	ehrlich	strafen	rächen	faul	tot	schlecht	eitel	1	acq_USpleas_CSpleas1_RW	acq4567_RW	4	38	400	1	300	300	372	50	0	1	1	blank2r.bmp	0	1	+	0	1	blank2r.bmp	492	1	JXXJ	492	1	blank2r.bmp	572	2	retten	866	1	!	1239	1	!	1279	0	0	0	0	0	0	0	0	0	0	0	0	0	0	0	0	0	0	0	0	0	0	0	0	0	0	0	0	0	0
070319	16:55:12	17:01:16	364340	5.0.10.0	5_exp_RW	19	Rpleas_acq	CS_B	JXXJ	YDDY	MQQM	BZZB	GWWG	VKKV	spielen	retten	fair	treu	schön	ehrlich	strafen	rächen	faul	tot	schlecht	eitel	1	acq_USpleas_CSpleas2_RW	acq4567_RW	4	39	400	1	300	300	346	46	0	0	1	blank2r.bmp	0	1	+	0	1	blank2r.bmp	492	1	YDDY	492	1	blank2r.bmp	572	2	schön	866	1	!	1239	1	!	1252	0	0	0	0	0	0	0	0	0	0	0	0	0	0	0	0	0	0	0	0	0	0	0	0	0	0	0	0	0	0
070319	16:55:12	17:01:19	366579	5.0.10.0	5_exp_RW	19	Rpleas_acq	CS_B	JXXJ	YDDY	MQQM	BZZB	GWWG	VKKV	spielen	retten	fair	treu	schön	ehrlich	strafen	rächen	faul	tot	schlecht	eitel	1	acq_USunple_CSunple2_RW	acq4567_RW	4	40	400	1	300	300	436	46	0	1	1	blank2r.bmp	0	1	+	0	1	blank2r.bmp	492	1	BZZB	492	1	blank2r.bmp	572	1	tot	866	1	!	1239	1	!	1332	0	0	0	0	0	0	0	0	0	0	0	0	0	0	0	0	0	0	0	0	0	0	0	0	0	0	0	0	0	0
070319	16:55:12	17:01:21	368778	5.0.10.0	5_exp_RW	19	Rpleas_acq	CS_B	JXXJ	YDDY	MQQM	BZZB	GWWG	VKKV	spielen	retten	fair	treu	schön	ehrlich	strafen	rächen	faul	tot	schlecht	eitel	1	acq_USpleas_CSpleas2_RW	acq4567_RW	4	41	400	1	300	300	401	50	0	1	1	blank2r.bmp	0	1	+	0	1	blank2r.bmp	492	1	YDDY	492	1	blank2r.bmp	572	1	treu	866	1	!	1239	1	!	1306	0	0	0	0	0	0	0	0	0	0	0	0	0	0	0	0	0	0	0	0	0	0	0	0	0	0	0	0	0	0
070319	16:55:12	17:01:23	371031	5.0.10.0	5_exp_RW	19	Rpleas_acq	CS_B	JXXJ	YDDY	MQQM	BZZB	GWWG	VKKV	spielen	retten	fair	treu	schön	ehrlich	strafen	rächen	faul	tot	schlecht	eitel	1	acq_USunple_CSunple2_RW	acq4567_RW	4	42	400	0	300	300	490	46	0	1	1	blank2r.bmp	0	1	+	0	1	blank2r.bmp	492	1	BZZB	492	1	blank2r.bmp	572	3	eitel	866	1	!	1239	1	!	-1	0	0	0	0	0	0	0	0	0	0	0	0	0	0	0	0	0	0	0	0	0	0	0	0	0	0	0	0	0	0
070319	16:55:12	17:01:25	373203	5.0.10.0	5_exp_RW	19	Rpleas_acq	CS_B	JXXJ	YDDY	MQQM	BZZB	GWWG	VKKV	spielen	retten	fair	treu	schön	ehrlich	strafen	rächen	faul	tot	schlecht	eitel	1	acq_USpleas_CSpleas1_RW	acq4567_RW	4	43	400	1	300	300	367	50	0	1	1	blank2r.bmp	0	1	+	0	1	blank2r.bmp	492	1	JXXJ	492	1	blank2r.bmp	572	1	spielen	866	1	!	1239	1	!	1266	0	0	0	0	0	0	0	0	0	0	0	0	0	0	0	0	0	0	0	0	0	0	0	0	0	0	0	0	0	0
070319	16:55:12	17:01:27	375282	5.0.10.0	5_exp_RW	19	Rpleas_acq	CS_B	JXXJ	YDDY	MQQM	BZZB	GWWG	VKKV	spielen	retten	fair	treu	schön	ehrlich	strafen	rächen	faul	tot	schlecht	eitel	1	acq_USpleas_CSpleas2_RW	acq4567_RW	4	44	400	0	300	300	309	50	0	1	1	blank2r.bmp	0	1	+	0	1	blank2r.bmp	492	1	YDDY	492	1	blank2r.bmp	572	2	schön	866	1	!	-1	1	!	-1	0	0	0	0	0	0	0	0	0	0	0	0	0	0	0	0	0	0	0	0	0	0	0	0	0	0	0	0	0	0
070319	16:55:12	17:01:29	377321	5.0.10.0	5_exp_RW	19	Rpleas_acq	CS_B	JXXJ	YDDY	MQQM	BZZB	GWWG	VKKV	spielen	retten	fair	treu	schön	ehrlich	strafen	rächen	faul	tot	schlecht	eitel	1	acq_USunple_CSunple2_RW	acq4567_RW	4	45	400	0	300	300	260	46	0	1	1	blank2r.bmp	0	1	+	0	1	blank2r.bmp	492	1	BZZB	492	1	blank2r.bmp	572	2	schlecht	866	1	!	-1	1	!	-1	0	0	0	0	0	0	0	0	0	0	0	0	0	0	0	0	0	0	0	0	0	0	0	0	0	0	0	0	0	0
070319	16:55:12	17:01:32	379600	5.0.10.0	5_exp_RW	19	Rpleas_acq	CS_B	JXXJ	YDDY	MQQM	BZZB	GWWG	VKKV	spielen	retten	fair	treu	schön	ehrlich	strafen	rächen	faul	tot	schlecht	eitel	1	acq_USunple_CSunple1_RW	acq4567_RW	4	46	400	1	300	300	455	46	0	1	1	blank2r.bmp	0	1	+	0	1	blank2r.bmp	492	1	MQQM	492	1	blank2r.bmp	572	1	strafen	866	1	!	1239	1	!	1359	0	0	0	0	0	0	0	0	0	0	0	0	0	0	0	0	0	0	0	0	0	0	0	0	0	0	0	0	0	0
070319	16:55:12	17:01:34	381786	5.0.10.0	5_exp_RW	19	Rpleas_acq	CS_B	JXXJ	YDDY	MQQM	BZZB	GWWG	VKKV	spielen	retten	fair	treu	schön	ehrlich	strafen	rächen	faul	tot	schlecht	eitel	1	acq_USunple_CSunple1_RW	acq4567_RW	4	47	400	1	300	300	386	46	0	1	1	blank2r.bmp	0	1	+	0	1	blank2r.bmp	492	1	MQQM	492	1	blank2r.bmp	572	3	faul	866	1	!	1239	1	!	1292	0	0	0	0	0	0	0	0	0	0	0	0	0	0	0	0	0	0	0	0	0	0	0	0	0	0	0	0	0	0
070319	16:55:12	17:01:36	383932	5.0.10.0	5_exp_RW	19	Rpleas_acq	CS_B	JXXJ	YDDY	MQQM	BZZB	GWWG	VKKV	spielen	retten	fair	treu	schön	ehrlich	strafen	rächen	faul	tot	schlecht	eitel	1	acq_USpleas_CSpleas1_RW	acq4567_RW	4	48	400	1	300	300	346	50	0	1	1	blank2r.bmp	0	1	+	0	1	blank2r.bmp	492	1	JXXJ	492	1	blank2r.bmp	572	1	spielen	866	1	!	1239	1	!	1252	0	0	0	0	0	0	0	0	0	0	0	0	0	0	0	0	0	0	0	0	0	0	0	0	0	0	0	0	0	0
070319	16:55:12	17:01:38	386091	5.0.10.0	5_exp_RW	19	Rpleas_acq	CS_B	JXXJ	YDDY	MQQM	BZZB	GWWG	VKKV	spielen	retten	fair	treu	schön	ehrlich	strafen	rächen	faul	tot	schlecht	eitel	1	acq_USpleas_CSpleas2_RW	acq4567_RW	4	49	400	1	300	300	352	50	0	1	1	blank2r.bmp	0	1	+	0	1	blank2r.bmp	492	1	YDDY	492	1	blank2r.bmp	572	3	ehrlich	866	1	!	1239	1	!	1252	0	0	0	0	0	0	0	0	0	0	0	0	0	0	0	0	0	0	0	0	0	0	0	0	0	0	0	0	0	0
070319	16:55:12	17:01:40	388157	5.0.10.0	5_exp_RW	19	Rpleas_acq	CS_B	JXXJ	YDDY	MQQM	BZZB	GWWG	VKKV	spielen	retten	fair	treu	schön	ehrlich	strafen	rächen	faul	tot	schlecht	eitel	1	acq_USunple_CSunple1_RW	acq4567_RW	4	50	400	0	300	300	295	46	0	1	1	blank2r.bmp	0	1	+	0	1	blank2r.bmp	492	1	MQQM	492	1	blank2r.bmp	572	2	rächen	866	1	!	-1	1	!	-1	0	0	0	0	0	0	0	0	0	0	0	0	0	0	0	0	0	0	0	0	0	0	0	0	0	0	0	0	0	0
070319	16:55:12	17:01:42	390249	5.0.10.0	5_exp_RW	19	Rpleas_acq	CS_B	JXXJ	YDDY	MQQM	BZZB	GWWG	VKKV	spielen	retten	fair	treu	schön	ehrlich	strafen	rächen	faul	tot	schlecht	eitel	1	acq_USpleas_CSpleas1_RW	acq4567_RW	4	51	400	0	300	300	310	46	0	0	1	blank2r.bmp	0	1	+	0	1	blank2r.bmp	492	1	JXXJ	492	1	blank2r.bmp	572	3	fair	866	1	!	-1	1	!	-1	0	0	0	0	0	0	0	0	0	0	0	0	0	0	0	0	0	0	0	0	0	0	0	0	0	0	0	0	0	0
070319	16:55:12	17:01:45	392462	5.0.10.0	5_exp_RW	19	Rpleas_acq	CS_B	JXXJ	YDDY	MQQM	BZZB	GWWG	VKKV	spielen	retten	fair	treu	schön	ehrlich	strafen	rächen	faul	tot	schlecht	eitel	1	acq_USpleas_CSpleas1_RW	acq4567_RW	4	52	400	1	300	300	405	50	0	1	1	blank2r.bmp	0	1	+	0	1	blank2r.bmp	492	1	JXXJ	492	1	blank2r.bmp	572	2	retten	866	1	!	1239	1	!	1306	0	0	0	0	0	0	0	0	0	0	0	0	0	0	0	0	0	0	0	0	0	0	0	0	0	0	0	0	0	0
070319	16:55:12	17:01:47	394634	5.0.10.0	5_exp_RW	19	Rpleas_acq	CS_B	JXXJ	YDDY	MQQM	BZZB	GWWG	VKKV	spielen	retten	fair	treu	schön	ehrlich	strafen	rächen	faul	tot	schlecht	eitel	1	acq_USunple_CSunple1_RW	acq4567_RW	4	53	400	1	300	300	385	46	0	1	1	blank2r.bmp	0	1	+	0	1	blank2r.bmp	492	1	MQQM	492	1	blank2r.bmp	572	1	strafen	866	1	!	1239	1	!	1279	0	0	0	0	0	0	0	0	0	0	0	0	0	0	0	0	0	0	0	0	0	0	0	0	0	0	0	0	0	0
070319	16:55:12	17:01:49	396900	5.0.10.0	5_exp_RW	19	Rpleas_acq	CS_B	JXXJ	YDDY	MQQM	BZZB	GWWG	VKKV	spielen	retten	fair	treu	schön	ehrlich	strafen	rächen	faul	tot	schlecht	eitel	1	acq_USpleas_CSpleas2_RW	acq4567_RW	4	54	400	1	300	300	459	50	0	1	1	blank2r.bmp	0	1	+	0	1	blank2r.bmp	492	1	YDDY	492	1	blank2r.bmp	572	1	treu	866	1	!	1239	1	!	1359	0	0	0	0	0	0	0	0	0	0	0	0	0	0	0	0	0	0	0	0	0	0	0	0	0	0	0	0	0	0
070319	16:55:12	17:01:51	399259	5.0.10.0	5_exp_RW	19	Rpleas_acq	CS_B	JXXJ	YDDY	MQQM	BZZB	GWWG	VKKV	spielen	retten	fair	treu	schön	ehrlich	strafen	rächen	faul	tot	schlecht	eitel	1	acq_USunple_CSunple2_RW	acq4567_RW	4	55	400	0	300	300	587	46	0	1	1	blank2r.bmp	0	1	+	0	1	blank2r.bmp	492	1	BZZB	492	1	blank2r.bmp	572	3	eitel	866	1	!	1239	1	!	-1	0	0	0	0	0	0	0	0	0	0	0	0	0	0	0	0	0	0	0	0	0	0	0	0	0	0	0	0	0	0
070319	16:55:12	17:01:53	401378	5.0.10.0	5_exp_RW	19	Rpleas_acq	CS_B	JXXJ	YDDY	MQQM	BZZB	GWWG	VKKV	spielen	retten	fair	treu	schön	ehrlich	strafen	rächen	faul	tot	schlecht	eitel	1	acq_USunple_CSunple2_RW	acq4567_RW	4	56	400	0	300	300	333	46	0	1	1	blank2r.bmp	0	1	+	0	1	blank2r.bmp	492	1	BZZB	492	1	blank2r.bmp	572	1	tot	866	1	!	-1	1	!	-1	0	0	0	0	0	0	0	0	0	0	0	0	0	0	0	0	0	0	0	0	0	0	0	0	0	0	0	0	0	0
070319	16:55:12	17:01:56	403537	5.0.10.0	5_exp_RW	19	Rpleas_acq	CS_B	JXXJ	YDDY	MQQM	BZZB	GWWG	VKKV	spielen	retten	fair	treu	schön	ehrlich	strafen	rächen	faul	tot	schlecht	eitel	1	acq_USunple_CSunple2_RW	acq4567_RW	4	57	400	1	300	300	346	46	0	1	1	blank2r.bmp	0	1	+	0	1	blank2r.bmp	492	1	BZZB	492	1	blank2r.bmp	572	1	tot	866	1	!	1239	1	!	1252	0	0	0	0	0	0	0	0	0	0	0	0	0	0	0	0	0	0	0	0	0	0	0	0	0	0	0	0	0	0
070319	16:55:12	17:01:58	405790	5.0.10.0	5_exp_RW	19	Rpleas_acq	CS_B	JXXJ	YDDY	MQQM	BZZB	GWWG	VKKV	spielen	retten	fair	treu	schön	ehrlich	strafen	rächen	faul	tot	schlecht	eitel	1	acq_USunple_CSunple1_RW	acq4567_RW	4	58	400	0	300	300	479	46	0	1	1	blank2r.bmp	0	1	+	0	1	blank2r.bmp	492	1	MQQM	492	1	blank2r.bmp	572	2	rächen	866	1	!	1239	1	!	-1	0	0	0	0	0	0	0	0	0	0	0	0	0	0	0	0	0	0	0	0	0	0	0	0	0	0	0	0	0	0
070319	16:55:12	17:02:00	407962	5.0.10.0	5_exp_RW	19	Rpleas_acq	CS_B	JXXJ	YDDY	MQQM	BZZB	GWWG	VKKV	spielen	retten	fair	treu	schön	ehrlich	strafen	rächen	faul	tot	schlecht	eitel	1	acq_USpleas_CSpleas1_RW	acq4567_RW	4	59	400	1	300	300	361	50	0	1	1	blank2r.bmp	0	1	+	0	1	blank2r.bmp	492	1	JXXJ	492	1	blank2r.bmp	572	3	fair	866	1	!	1239	1	!	1266	0	0	0	0	0	0	0	0	0	0	0	0	0	0	0	0	0	0	0	0	0	0	0	0	0	0	0	0	0	0
070319	16:55:12	17:02:02	410108	5.0.10.0	5_exp_RW	19	Rpleas_acq	CS_B	JXXJ	YDDY	MQQM	BZZB	GWWG	VKKV	spielen	retten	fair	treu	schön	ehrlich	strafen	rächen	faul	tot	schlecht	eitel	1	acq_USpleas_CSpleas2_RW	acq4567_RW	4	60	400	1	300	300	357	50	0	1	1	blank2r.bmp	0	1	+	0	1	blank2r.bmp	492	1	YDDY	492	1	blank2r.bmp	572	3	ehrlich	866	1	!	1239	1	!	1252	0	0	0	0	0	0	0	0	0	0	0	0	0	0	0	0	0	0	0	0	0	0	0	0	0	0	0	0	0	0
070319	16:55:12	17:02:04	412160	5.0.10.0	5_exp_RW	19	Rpleas_acq	CS_B	JXXJ	YDDY	MQQM	BZZB	GWWG	VKKV	spielen	retten	fair	treu	schön	ehrlich	strafen	rächen	faul	tot	schlecht	eitel	1	acq_USpleas_CSpleas1_RW	acq4567_RW	4	61	400	0	300	300	271	46	0	0	1	blank2r.bmp	0	1	+	0	1	blank2r.bmp	492	1	JXXJ	492	1	blank2r.bmp	572	2	retten	866	1	!	-1	1	!	-1	0	0	0	0	0	0	0	0	0	0	0	0	0	0	0	0	0	0	0	0	0	0	0	0	0	0	0	0	0	0
070319	16:55:12	17:02:06	414319	5.0.10.0	5_exp_RW	19	Rpleas_acq	CS_B	JXXJ	YDDY	MQQM	BZZB	GWWG	VKKV	spielen	retten	fair	treu	schön	ehrlich	strafen	rächen	faul	tot	schlecht	eitel	1	acq_USpleas_CSpleas2_RW	acq4567_RW	4	62	400	1	300	300	351	50	0	1	1	blank2r.bmp	0	1	+	0	1	blank2r.bmp	492	1	YDDY	492	1	blank2r.bmp	572	1	treu	866	1	!	1239	1	!	1252	0	0	0	0	0	0	0	0	0	0	0	0	0	0	0	0	0	0	0	0	0	0	0	0	0	0	0	0	0	0
070319	16:55:12	17:02:08	416385	5.0.10.0	5_exp_RW	19	Rpleas_acq	CS_B	JXXJ	YDDY	MQQM	BZZB	GWWG	VKKV	spielen	retten	fair	treu	schön	ehrlich	strafen	rächen	faul	tot	schlecht	eitel	1	acq_USunple_CSunple2_RW	acq4567_RW	4	63	400	0	300	300	300	50	0	0	1	blank2r.bmp	0	1	+	0	1	blank2r.bmp	492	1	BZZB	492	1	blank2r.bmp	572	3	eitel	866	1	!	-1	1	!	-1	0	0	0	0	0	0	0	0	0	0	0	0	0	0	0	0	0	0	0	0	0	0	0	0	0	0	0	0	0	0
070319	16:55:12	17:02:11	418491	5.0.10.0	5_exp_RW	19	Rpleas_acq	CS_B	JXXJ	YDDY	MQQM	BZZB	GWWG	VKKV	spielen	retten	fair	treu	schön	ehrlich	strafen	rächen	faul	tot	schlecht	eitel	1	acq_USpleas_CSpleas2_RW	acq4567_RW	4	64	400	0	300	300	321	50	0	1	1	blank2r.bmp	0	1	+	0	1	blank2r.bmp	492	1	YDDY	492	1	blank2r.bmp	572	2	schön	866	1	!	-1	1	!	-1	0	0	0	0	0	0	0	0	0	0	0	0	0	0	0	0	0	0	0	0	0	0	0	0	0	0	0	0	0	0
070319	16:55:12	17:02:13	420743	5.0.10.0	5_exp_RW	19	Rpleas_acq	CS_B	JXXJ	YDDY	MQQM	BZZB	GWWG	VKKV	spielen	retten	fair	treu	schön	ehrlich	strafen	rächen	faul	tot	schlecht	eitel	1	acq_USunple_CSunple2_RW	acq4567_RW	4	65	400	1	300	300	441	46	0	1	1	blank2r.bmp	0	1	+	0	1	blank2r.bmp	492	1	BZZB	492	1	blank2r.bmp	572	2	schlecht	866	1	!	1239	1	!	1346	0	0	0	0	0	0	0	0	0	0	0	0	0	0	0	0	0	0	0	0	0	0	0	0	0	0	0	0	0	0
070319	16:55:12	17:02:15	422902	5.0.10.0	5_exp_RW	19	Rpleas_acq	CS_B	JXXJ	YDDY	MQQM	BZZB	GWWG	VKKV	spielen	retten	fair	treu	schön	ehrlich	strafen	rächen	faul	tot	schlecht	eitel	1	acq_USunple_CSunple1_RW	acq4567_RW	4	66	400	1	300	300	363	46	0	1	1	blank2r.bmp	0	1	+	0	1	blank2r.bmp	492	1	MQQM	492	1	blank2r.bmp	572	3	faul	866	1	!	1239	1	!	1266	0	0	0	0	0	0	0	0	0	0	0	0	0	0	0	0	0	0	0	0	0	0	0	0	0	0	0	0	0	0
070319	16:55:12	17:02:17	425088	5.0.10.0	5_exp_RW	19	Rpleas_acq	CS_B	JXXJ	YDDY	MQQM	BZZB	GWWG	VKKV	spielen	retten	fair	treu	schön	ehrlich	strafen	rächen	faul	tot	schlecht	eitel	1	acq_USunple_CSunple2_RW	acq4567_RW	4	67	400	1	300	300	382	46	0	1	1	blank2r.bmp	0	1	+	0	1	blank2r.bmp	492	1	BZZB	492	1	blank2r.bmp	572	3	eitel	866	1	!	1239	1	!	1279	0	0	0	0	0	0	0	0	0	0	0	0	0	0	0	0	0	0	0	0	0	0	0	0	0	0	0	0	0	0
070319	16:55:12	17:02:19	427261	5.0.10.0	5_exp_RW	19	Rpleas_acq	CS_B	JXXJ	YDDY	MQQM	BZZB	GWWG	VKKV	spielen	retten	fair	treu	schön	ehrlich	strafen	rächen	faul	tot	schlecht	eitel	1	acq_USpleas_CSpleas1_RW	acq4567_RW	4	68	400	1	300	300	375	50	0	1	1	blank2r.bmp	0	1	+	0	1	blank2r.bmp	492	1	JXXJ	492	1	blank2r.bmp	572	1	spielen	866	1	!	1239	1	!	1279	0	0	0	0	0	0	0	0	0	0	0	0	0	0	0	0	0	0	0	0	0	0	0	0	0	0	0	0	0	0
070319	16:55:12	17:02:22	429526	5.0.10.0	5_exp_RW	19	Rpleas_acq	CS_B	JXXJ	YDDY	MQQM	BZZB	GWWG	VKKV	spielen	retten	fair	treu	schön	ehrlich	strafen	rächen	faul	tot	schlecht	eitel	1	acq_USunple_CSunple2_RW	acq4567_RW	4	69	400	0	300	300	502	46	0	1	1	blank2r.bmp	0	1	+	0	1	blank2r.bmp	492	1	BZZB	492	1	blank2r.bmp	572	2	schlecht	866	1	!	1239	1	!	-1	0	0	0	0	0	0	0	0	0	0	0	0	0	0	0	0	0	0	0	0	0	0	0	0	0	0	0	0	0	0
070319	16:55:12	17:02:24	431872	5.0.10.0	5_exp_RW	19	Rpleas_acq	CS_B	JXXJ	YDDY	MQQM	BZZB	GWWG	VKKV	spielen	retten	fair	treu	schön	ehrlich	strafen	rächen	faul	tot	schlecht	eitel	1	acq_USpleas_CSpleas2_RW	acq4567_RW	4	70	400	0	300	300	567	50	0	1	1	blank2r.bmp	0	1	+	0	1	blank2r.bmp	492	1	YDDY	492	1	blank2r.bmp	572	1	treu	866	1	!	1239	1	!	-1	0	0	0	0	0	0	0	0	0	0	0	0	0	0	0	0	0	0	0	0	0	0	0	0	0	0	0	0	0	0
070319	16:55:12	17:02:26	434231	5.0.10.0	5_exp_RW	19	Rpleas_acq	CS_B	JXXJ	YDDY	MQQM	BZZB	GWWG	VKKV	spielen	retten	fair	treu	schön	ehrlich	strafen	rächen	faul	tot	schlecht	eitel	1	acq_USpleas_CSpleas1_RW	acq4567_RW	4	71	400	0	300	300	577	50	0	1	1	blank2r.bmp	0	1	+	0	1	blank2r.bmp	492	1	JXXJ	492	1	blank2r.bmp	572	1	spielen	866	1	!	1239	1	!	-1	0	0	0	0	0	0	0	0	0	0	0	0	0	0	0	0	0	0	0	0	0	0	0	0	0	0	0	0	0	0
070319	16:55:12	17:02:29	436417	5.0.10.0	5_exp_RW	19	Rpleas_acq	CS_B	JXXJ	YDDY	MQQM	BZZB	GWWG	VKKV	spielen	retten	fair	treu	schön	ehrlich	strafen	rächen	faul	tot	schlecht	eitel	1	acq_USunple_CSunple2_RW	acq4567_RW	4	72	400	1	300	300	377	46	0	1	1	blank2r.bmp	0	1	+	0	1	blank2r.bmp	492	1	BZZB	492	1	blank2r.bmp	572	1	tot	866	1	!	1239	1	!	1279	0	0	0	0	0	0	0	0	0	0	0	0	0	0	0	0	0	0	0	0	0	0	0	0	0	0	0	0	0	0
070319	16:55:12	17:02:31	438669	5.0.10.0	5_exp_RW	19	Rpleas_acq	CS_B	JXXJ	YDDY	MQQM	BZZB	GWWG	VKKV	spielen	retten	fair	treu	schön	ehrlich	strafen	rächen	faul	tot	schlecht	eitel	1	acq_USpleas_CSpleas2_RW	acq4567_RW	4	73	400	0	300	300	480	50	0	1	1	blank2r.bmp	0	1	+	0	1	blank2r.bmp	492	1	YDDY	492	1	blank2r.bmp	572	3	ehrlich	866	1	!	1239	1	!	-1	0	0	0	0	0	0	0	0	0	0	0	0	0	0	0	0	0	0	0	0	0	0	0	0	0	0	0	0	0	0
070319	16:55:12	17:02:33	440855	5.0.10.0	5_exp_RW	19	Rpleas_acq	CS_B	JXXJ	YDDY	MQQM	BZZB	GWWG	VKKV	spielen	retten	fair	treu	schön	ehrlich	strafen	rächen	faul	tot	schlecht	eitel	1	acq_USunple_CSunple1_RW	acq4567_RW	4	74	400	1	300	300	375	46	0	1	1	blank2r.bmp	0	1	+	0	1	blank2r.bmp	492	1	MQQM	492	1	blank2r.bmp	572	1	strafen	866	1	!	1239	1	!	1279	0	0	0	0	0	0	0	0	0	0	0	0	0	0	0	0	0	0	0	0	0	0	0	0	0	0	0	0	0	0
070319	16:55:12	17:02:35	443121	5.0.10.0	5_exp_RW	19	Rpleas_acq	CS_B	JXXJ	YDDY	MQQM	BZZB	GWWG	VKKV	spielen	retten	fair	treu	schön	ehrlich	strafen	rächen	faul	tot	schlecht	eitel	1	acq_USpleas_CSpleas1_RW	acq4567_RW	4	75	400	0	300	300	497	50	0	1	1	blank2r.bmp	0	1	+	0	1	blank2r.bmp	492	1	JXXJ	492	1	blank2r.bmp	572	2	retten	866	1	!	1239	1	!	-1	0	0	0	0	0	0	0	0	0	0	0	0	0	0	0	0	0	0	0	0	0	0	0	0	0	0	0	0	0	0
070319	16:55:12	17:02:37	445240	5.0.10.0	5_exp_RW	19	Rpleas_acq	CS_B	JXXJ	YDDY	MQQM	BZZB	GWWG	VKKV	spielen	retten	fair	treu	schön	ehrlich	strafen	rächen	faul	tot	schlecht	eitel	1	acq_USunple_CSunple1_RW	acq4567_RW	4	76	400	0	300	300	326	46	0	1	1	blank2r.bmp	0	1	+	0	1	blank2r.bmp	492	1	MQQM	492	1	blank2r.bmp	572	2	rächen	866	1	!	-1	1	!	-1	0	0	0	0	0	0	0	0	0	0	0	0	0	0	0	0	0	0	0	0	0	0	0	0	0	0	0	0	0	0
070319	16:55:12	17:02:40	447492	5.0.10.0	5_exp_RW	19	Rpleas_acq	CS_B	JXXJ	YDDY	MQQM	BZZB	GWWG	VKKV	spielen	retten	fair	treu	schön	ehrlich	strafen	rächen	faul	tot	schlecht	eitel	1	acq_USpleas_CSpleas1_RW	acq4567_RW	4	77	400	1	300	300	446	50	0	1	1	blank2r.bmp	0	1	+	0	1	blank2r.bmp	492	1	JXXJ	492	1	blank2r.bmp	572	3	fair	866	1	!	1239	1	!	1346	0	0	0	0	0	0	0	0	0	0	0	0	0	0	0	0	0	0	0	0	0	0	0	0	0	0	0	0	0	0
070319	16:55:12	17:02:42	449744	5.0.10.0	5_exp_RW	19	Rpleas_acq	CS_B	JXXJ	YDDY	MQQM	BZZB	GWWG	VKKV	spielen	retten	fair	treu	schön	ehrlich	strafen	rächen	faul	tot	schlecht	eitel	1	acq_USpleas_CSpleas2_RW	acq4567_RW	4	78	400	0	300	300	479	50	0	1	1	blank2r.bmp	0	1	+	0	1	blank2r.bmp	492	1	YDDY	492	1	blank2r.bmp	572	2	schön	866	1	!	1239	1	!	-1	0	0	0	0	0	0	0	0	0	0	0	0	0	0	0	0	0	0	0	0	0	0	0	0	0	0	0	0	0	0
070319	16:55:12	17:02:44	452010	5.0.10.0	5_exp_RW	19	Rpleas_acq	CS_B	JXXJ	YDDY	MQQM	BZZB	GWWG	VKKV	spielen	retten	fair	treu	schön	ehrlich	strafen	rächen	faul	tot	schlecht	eitel	1	acq_USunple_CSunple1_RW	acq4567_RW	4	79	400	1	300	300	461	46	0	1	1	blank2r.bmp	0	1	+	0	1	blank2r.bmp	492	1	MQQM	492	1	blank2r.bmp	572	1	strafen	866	1	!	1239	1	!	1359	0	0	0	0	0	0	0	0	0	0	0	0	0	0	0	0	0	0	0	0	0	0	0	0	0	0	0	0	0	0
070319	16:55:12	17:02:46	454209	5.0.10.0	5_exp_RW	19	Rpleas_acq	CS_B	JXXJ	YDDY	MQQM	BZZB	GWWG	VKKV	spielen	retten	fair	treu	schön	ehrlich	strafen	rächen	faul	tot	schlecht	eitel	1	acq_USunple_CSunple1_RW	acq4567_RW	4	80	400	1	300	300	393	46	0	1	1	blank2r.bmp	0	1	+	0	1	blank2r.bmp	492	1	MQQM	492	1	blank2r.bmp	572	3	faul	866	1	!	1239	1	!	1292	0	0	0	0	0	0	0	0	0	0	0	0	0	0	0	0	0	0	0	0	0	0	0	0	0	0	0	0	0	0
070319	16:55:12	17:03:06	473415	5.0.10.0	5_exp_RW	19	Rpleas_acq	CS_B	JXXJ	YDDY	MQQM	BZZB	GWWG	VKKV	spielen	retten	fair	treu	schön	ehrlich	strafen	rächen	faul	tot	schlecht	eitel	1	acq_USunple_CSunple2_RW	acq4567_RW	5	1	400	1	300	300	349	46	0	1	1	blank2r.bmp	0	1	+	0	1	blank2r.bmp	492	1	BZZB	492	1	blank2r.bmp	572	2	schlecht	866	1	!	1239	1	!	1252	0	0	0	0	0	0	0	0	0	0	0	0	0	0	0	0	0	0	0	0	0	0	0	0	0	0	0	0	0	0
070319	16:55:12	17:03:08	475520	5.0.10.0	5_exp_RW	19	Rpleas_acq	CS_B	JXXJ	YDDY	MQQM	BZZB	GWWG	VKKV	spielen	retten	fair	treu	schön	ehrlich	strafen	rächen	faul	tot	schlecht	eitel	1	acq_USpleas_CSpleas1_RW	acq4567_RW	5	2	400	0	300	300	321	50	0	1	1	blank2r.bmp	0	1	+	0	1	blank2r.bmp	492	1	JXXJ	492	1	blank2r.bmp	572	3	fair	866	1	!	-1	1	!	-1	0	0	0	0	0	0	0	0	0	0	0	0	0	0	0	0	0	0	0	0	0	0	0	0	0	0	0	0	0	0
070319	16:55:12	17:03:10	477759	5.0.10.0	5_exp_RW	19	Rpleas_acq	CS_B	JXXJ	YDDY	MQQM	BZZB	GWWG	VKKV	spielen	retten	fair	treu	schön	ehrlich	strafen	rächen	faul	tot	schlecht	eitel	1	acq_USpleas_CSpleas1_RW	acq4567_RW	5	3	400	1	300	300	433	50	0	1	1	blank2r.bmp	0	1	+	0	1	blank2r.bmp	492	1	JXXJ	492	1	blank2r.bmp	572	1	spielen	866	1	!	1239	1	!	1332	0	0	0	0	0	0	0	0	0	0	0	0	0	0	0	0	0	0	0	0	0	0	0	0	0	0	0	0	0	0
070319	16:55:12	17:03:12	479999	5.0.10.0	5_exp_RW	19	Rpleas_acq	CS_B	JXXJ	YDDY	MQQM	BZZB	GWWG	VKKV	spielen	retten	fair	treu	schön	ehrlich	strafen	rächen	faul	tot	schlecht	eitel	1	acq_USunple_CSunple1_RW	acq4567_RW	5	4	400	1	300	300	444	46	0	1	1	blank2r.bmp	0	1	+	0	1	blank2r.bmp	492	1	MQQM	492	1	blank2r.bmp	572	1	strafen	866	1	!	1239	1	!	1346	0	0	0	0	0	0	0	0	0	0	0	0	0	0	0	0	0	0	0	0	0	0	0	0	0	0	0	0	0	0
070319	16:55:12	17:03:14	482051	5.0.10.0	5_exp_RW	19	Rpleas_acq	CS_B	JXXJ	YDDY	MQQM	BZZB	GWWG	VKKV	spielen	retten	fair	treu	schön	ehrlich	strafen	rächen	faul	tot	schlecht	eitel	1	acq_USpleas_CSpleas1_RW	acq4567_RW	5	5	400	0	300	300	269	50	0	1	1	blank2r.bmp	0	1	+	0	1	blank2r.bmp	492	1	JXXJ	492	1	blank2r.bmp	572	2	retten	866	1	!	-1	1	!	-1	0	0	0	0	0	0	0	0	0	0	0	0	0	0	0	0	0	0	0	0	0	0	0	0	0	0	0	0	0	0
070319	16:55:12	17:03:16	484263	5.0.10.0	5_exp_RW	19	Rpleas_acq	CS_B	JXXJ	YDDY	MQQM	BZZB	GWWG	VKKV	spielen	retten	fair	treu	schön	ehrlich	strafen	rächen	faul	tot	schlecht	eitel	1	acq_USpleas_CSpleas2_RW	acq4567_RW	5	6	400	1	300	300	408	50	0	1	1	blank2r.bmp	0	1	+	0	1	blank2r.bmp	492	1	YDDY	492	1	blank2r.bmp	572	2	schön	866	1	!	1239	1	!	1306	0	0	0	0	0	0	0	0	0	0	0	0	0	0	0	0	0	0	0	0	0	0	0	0	0	0	0	0	0	0
070319	16:55:12	17:03:19	486582	5.0.10.0	5_exp_RW	19	Rpleas_acq	CS_B	JXXJ	YDDY	MQQM	BZZB	GWWG	VKKV	spielen	retten	fair	treu	schön	ehrlich	strafen	rächen	faul	tot	schlecht	eitel	1	acq_USpleas_CSpleas2_RW	acq4567_RW	5	7	400	0	300	300	554	50	0	1	1	blank2r.bmp	0	1	+	0	1	blank2r.bmp	492	1	YDDY	492	1	blank2r.bmp	572	3	ehrlich	866	1	!	1239	1	!	-1	0	0	0	0	0	0	0	0	0	0	0	0	0	0	0	0	0	0	0	0	0	0	0	0	0	0	0	0	0	0
070319	16:55:12	17:03:21	488835	5.0.10.0	5_exp_RW	19	Rpleas_acq	CS_B	JXXJ	YDDY	MQQM	BZZB	GWWG	VKKV	spielen	retten	fair	treu	schön	ehrlich	strafen	rächen	faul	tot	schlecht	eitel	1	acq_USpleas_CSpleas2_RW	acq4567_RW	5	8	400	1	300	300	431	50	0	1	1	blank2r.bmp	0	1	+	0	1	blank2r.bmp	492	1	YDDY	492	1	blank2r.bmp	572	1	treu	866	1	!	1239	1	!	1332	0	0	0	0	0	0	0	0	0	0	0	0	0	0	0	0	0	0	0	0	0	0	0	0	0	0	0	0	0	0
070319	16:55:12	17:03:23	491047	5.0.10.0	5_exp_RW	19	Rpleas_acq	CS_B	JXXJ	YDDY	MQQM	BZZB	GWWG	VKKV	spielen	retten	fair	treu	schön	ehrlich	strafen	rächen	faul	tot	schlecht	eitel	1	acq_USpleas_CSpleas1_RW	acq4567_RW	5	9	400	1	300	300	412	50	0	1	1	blank2r.bmp	0	1	+	0	1	blank2r.bmp	492	1	JXXJ	492	1	blank2r.bmp	572	1	spielen	866	1	!	1239	1	!	1319	0	0	0	0	0	0	0	0	0	0	0	0	0	0	0	0	0	0	0	0	0	0	0	0	0	0	0	0	0	0
070319	16:55:12	17:03:25	493340	5.0.10.0	5_exp_RW	19	Rpleas_acq	CS_B	JXXJ	YDDY	MQQM	BZZB	GWWG	VKKV	spielen	retten	fair	treu	schön	ehrlich	strafen	rächen	faul	tot	schlecht	eitel	1	acq_USunple_CSunple1_RW	acq4567_RW	5	10	400	0	300	300	519	46	0	1	1	blank2r.bmp	0	1	+	0	1	blank2r.bmp	492	1	MQQM	492	1	blank2r.bmp	572	2	rächen	866	1	!	1239	1	!	-1	0	0	0	0	0	0	0	0	0	0	0	0	0	0	0	0	0	0	0	0	0	0	0	0	0	0	0	0	0	0
070319	16:55:12	17:03:28	495605	5.0.10.0	5_exp_RW	19	Rpleas_acq	CS_B	JXXJ	YDDY	MQQM	BZZB	GWWG	VKKV	spielen	retten	fair	treu	schön	ehrlich	strafen	rächen	faul	tot	schlecht	eitel	1	acq_USunple_CSunple2_RW	acq4567_RW	5	11	400	0	300	300	479	46	0	1	1	blank2r.bmp	0	1	+	0	1	blank2r.bmp	492	1	BZZB	492	1	blank2r.bmp	572	3	eitel	866	1	!	1239	1	!	-1	0	0	0	0	0	0	0	0	0	0	0	0	0	0	0	0	0	0	0	0	0	0	0	0	0	0	0	0	0	0
070319	16:55:12	17:03:30	497871	5.0.10.0	5_exp_RW	19	Rpleas_acq	CS_B	JXXJ	YDDY	MQQM	BZZB	GWWG	VKKV	spielen	retten	fair	treu	schön	ehrlich	strafen	rächen	faul	tot	schlecht	eitel	1	acq_USunple_CSunple1_RW	acq4567_RW	5	12	400	1	300	300	457	46	0	1	1	blank2r.bmp	0	1	+	0	1	blank2r.bmp	492	1	MQQM	492	1	blank2r.bmp	572	3	faul	866	1	!	1239	1	!	1359	0	0	0	0	0	0	0	0	0	0	0	0	0	0	0	0	0	0	0	0	0	0	0	0	0	0	0	0	0	0
070319	16:55:12	17:03:32	500190	5.0.10.0	5_exp_RW	19	Rpleas_acq	CS_B	JXXJ	YDDY	MQQM	BZZB	GWWG	VKKV	spielen	retten	fair	treu	schön	ehrlich	strafen	rächen	faul	tot	schlecht	eitel	1	acq_USunple_CSunple2_RW	acq4567_RW	5	13	400	0	300	300	548	46	0	1	1	blank2r.bmp	0	1	+	0	1	blank2r.bmp	492	1	BZZB	492	1	blank2r.bmp	572	1	tot	866	1	!	1239	1	!	-1	0	0	0	0	0	0	0	0	0	0	0	0	0	0	0	0	0	0	0	0	0	0	0	0	0	0	0	0	0	0
070319	16:55:12	17:03:34	502362	5.0.10.0	5_exp_RW	19	Rpleas_acq	CS_B	JXXJ	YDDY	MQQM	BZZB	GWWG	VKKV	spielen	retten	fair	treu	schön	ehrlich	strafen	rächen	faul	tot	schlecht	eitel	1	acq_USunple_CSunple2_RW	acq4567_RW	5	14	400	1	300	300	366	50	0	0	1	blank2r.bmp	0	1	+	0	1	blank2r.bmp	492	1	BZZB	492	1	blank2r.bmp	572	2	schlecht	866	1	!	1239	1	!	1266	0	0	0	0	0	0	0	0	0	0	0	0	0	0	0	0	0	0	0	0	0	0	0	0	0	0	0	0	0	0
070319	16:55:12	17:03:37	504535	5.0.10.0	5_exp_RW	19	Rpleas_acq	CS_B	JXXJ	YDDY	MQQM	BZZB	GWWG	VKKV	spielen	retten	fair	treu	schön	ehrlich	strafen	rächen	faul	tot	schlecht	eitel	1	acq_USunple_CSunple1_RW	acq4567_RW	5	15	400	1	300	300	381	46	0	1	1	blank2r.bmp	0	1	+	0	1	blank2r.bmp	492	1	MQQM	492	1	blank2r.bmp	572	3	faul	866	1	!	1239	1	!	1279	0	0	0	0	0	0	0	0	0	0	0	0	0	0	0	0	0	0	0	0	0	0	0	0	0	0	0	0	0	0
070319	16:55:12	17:03:39	506854	5.0.10.0	5_exp_RW	19	Rpleas_acq	CS_B	JXXJ	YDDY	MQQM	BZZB	GWWG	VKKV	spielen	retten	fair	treu	schön	ehrlich	strafen	rächen	faul	tot	schlecht	eitel	1	acq_USpleas_CSpleas2_RW	acq4567_RW	5	16	400	0	300	300	532	50	0	1	1	blank2r.bmp	0	1	+	0	1	blank2r.bmp	492	1	YDDY	492	1	blank2r.bmp	572	2	schön	866	1	!	1239	1	!	-1	0	0	0	0	0	0	0	0	0	0	0	0	0	0	0	0	0	0	0	0	0	0	0	0	0	0	0	0	0	0
070319	16:55:12	17:03:41	509053	5.0.10.0	5_exp_RW	19	Rpleas_acq	CS_B	JXXJ	YDDY	MQQM	BZZB	GWWG	VKKV	spielen	retten	fair	treu	schön	ehrlich	strafen	rächen	faul	tot	schlecht	eitel	1	acq_USunple_CSunple1_RW	acq4567_RW	5	17	400	1	300	300	389	46	0	1	1	blank2r.bmp	0	1	+	0	1	blank2r.bmp	492	1	MQQM	492	1	blank2r.bmp	572	1	strafen	866	1	!	1239	1	!	1292	0	0	0	0	0	0	0	0	0	0	0	0	0	0	0	0	0	0	0	0	0	0	0	0	0	0	0	0	0	0
070319	16:55:12	17:03:44	511412	5.0.10.0	5_exp_RW	19	Rpleas_acq	CS_B	JXXJ	YDDY	MQQM	BZZB	GWWG	VKKV	spielen	retten	fair	treu	schön	ehrlich	strafen	rächen	faul	tot	schlecht	eitel	1	acq_USpleas_CSpleas1_RW	acq4567_RW	5	18	400	0	300	300	591	50	0	1	1	blank2r.bmp	0	1	+	0	1	blank2r.bmp	492	1	JXXJ	492	1	blank2r.bmp	572	2	retten	866	1	!	1239	1	!	-1	0	0	0	0	0	0	0	0	0	0	0	0	0	0	0	0	0	0	0	0	0	0	0	0	0	0	0	0	0	0
070319	16:55:12	17:03:46	513611	5.0.10.0	5_exp_RW	19	Rpleas_acq	CS_B	JXXJ	YDDY	MQQM	BZZB	GWWG	VKKV	spielen	retten	fair	treu	schön	ehrlich	strafen	rächen	faul	tot	schlecht	eitel	1	acq_USunple_CSunple2_RW	acq4567_RW	5	19	400	1	300	300	385	46	0	1	1	blank2r.bmp	0	1	+	0	1	blank2r.bmp	492	1	BZZB	492	1	blank2r.bmp	572	1	tot	866	1	!	1239	1	!	1292	0	0	0	0	0	0	0	0	0	0	0	0	0	0	0	0	0	0	0	0	0	0	0	0	0	0	0	0	0	0
070319	16:55:12	17:03:48	515877	5.0.10.0	5_exp_RW	19	Rpleas_acq	CS_B	JXXJ	YDDY	MQQM	BZZB	GWWG	VKKV	spielen	retten	fair	treu	schön	ehrlich	strafen	rächen	faul	tot	schlecht	eitel	1	acq_USpleas_CSpleas2_RW	acq4567_RW	5	20	400	0	300	300	498	50	0	1	1	blank2r.bmp	0	1	+	0	1	blank2r.bmp	492	1	YDDY	492	1	blank2r.bmp	572	1	treu	866	1	!	1239	1	!	-1	0	0	0	0	0	0	0	0	0	0	0	0	0	0	0	0	0	0	0	0	0	0	0	0	0	0	0	0	0	0
070319	16:55:12	17:03:50	518076	5.0.10.0	5_exp_RW	19	Rpleas_acq	CS_B	JXXJ	YDDY	MQQM	BZZB	GWWG	VKKV	spielen	retten	fair	treu	schön	ehrlich	strafen	rächen	faul	tot	schlecht	eitel	1	acq_USpleas_CSpleas2_RW	acq4567_RW	5	21	400	1	300	300	396	50	0	1	1	blank2r.bmp	0	1	+	0	1	blank2r.bmp	492	1	YDDY	492	1	blank2r.bmp	572	3	ehrlich	866	1	!	1239	1	!	1292	0	0	0	0	0	0	0	0	0	0	0	0	0	0	0	0	0	0	0	0	0	0	0	0	0	0	0	0	0	0
070319	16:55:12	17:03:52	520235	5.0.10.0	5_exp_RW	19	Rpleas_acq	CS_B	JXXJ	YDDY	MQQM	BZZB	GWWG	VKKV	spielen	retten	fair	treu	schön	ehrlich	strafen	rächen	faul	tot	schlecht	eitel	1	acq_USpleas_CSpleas2_RW	acq4567_RW	5	22	400	1	300	300	346	50	0	1	1	blank2r.bmp	0	1	+	0	1	blank2r.bmp	492	1	YDDY	492	1	blank2r.bmp	572	1	treu	866	1	!	1239	1	!	1252	0	0	0	0	0	0	0	0	0	0	0	0	0	0	0	0	0	0	0	0	0	0	0	0	0	0	0	0	0	0
070319	16:55:12	17:03:54	522381	5.0.10.0	5_exp_RW	19	Rpleas_acq	CS_B	JXXJ	YDDY	MQQM	BZZB	GWWG	VKKV	spielen	retten	fair	treu	schön	ehrlich	strafen	rächen	faul	tot	schlecht	eitel	1	acq_USpleas_CSpleas1_RW	acq4567_RW	5	23	400	1	300	300	346	46	0	0	1	blank2r.bmp	0	1	+	0	1	blank2r.bmp	492	1	JXXJ	492	1	blank2r.bmp	572	3	fair	866	1	!	1239	1	!	1252	0	0	0	0	0	0	0	0	0	0	0	0	0	0	0	0	0	0	0	0	0	0	0	0	0	0	0	0	0	0
070319	16:55:12	17:03:57	524620	5.0.10.0	5_exp_RW	19	Rpleas_acq	CS_B	JXXJ	YDDY	MQQM	BZZB	GWWG	VKKV	spielen	retten	fair	treu	schön	ehrlich	strafen	rächen	faul	tot	schlecht	eitel	1	acq_USunple_CSunple2_RW	acq4567_RW	5	24	400	1	300	300	448	46	0	1	1	blank2r.bmp	0	1	+	0	1	blank2r.bmp	492	1	BZZB	492	1	blank2r.bmp	572	3	eitel	866	1	!	1239	1	!	1346	0	0	0	0	0	0	0	0	0	0	0	0	0	0	0	0	0	0	0	0	0	0	0	0	0	0	0	0	0	0
070319	16:55:12	17:03:59	526766	5.0.10.0	5_exp_RW	19	Rpleas_acq	CS_B	JXXJ	YDDY	MQQM	BZZB	GWWG	VKKV	spielen	retten	fair	treu	schön	ehrlich	strafen	rächen	faul	tot	schlecht	eitel	1	acq_USpleas_CSpleas1_RW	acq4567_RW	5	25	400	1	300	300	354	50	0	1	1	blank2r.bmp	0	1	+	0	1	blank2r.bmp	492	1	JXXJ	492	1	blank2r.bmp	572	2	retten	866	1	!	1239	1	!	1252	0	0	0	0	0	0	0	0	0	0	0	0	0	0	0	0	0	0	0	0	0	0	0	0	0	0	0	0	0	0
070319	16:55:12	17:04:01	529031	5.0.10.0	5_exp_RW	19	Rpleas_acq	CS_B	JXXJ	YDDY	MQQM	BZZB	GWWG	VKKV	spielen	retten	fair	treu	schön	ehrlich	strafen	rächen	faul	tot	schlecht	eitel	1	acq_USunple_CSunple2_RW	acq4567_RW	5	26	400	1	300	300	456	46	0	1	1	blank2r.bmp	0	1	+	0	1	blank2r.bmp	492	1	BZZB	492	1	blank2r.bmp	572	3	eitel	866	1	!	1239	1	!	1359	0	0	0	0	0	0	0	0	0	0	0	0	0	0	0	0	0	0	0	0	0	0	0	0	0	0	0	0	0	0
070319	16:55:12	17:04:03	531217	5.0.10.0	5_exp_RW	19	Rpleas_acq	CS_B	JXXJ	YDDY	MQQM	BZZB	GWWG	VKKV	spielen	retten	fair	treu	schön	ehrlich	strafen	rächen	faul	tot	schlecht	eitel	1	acq_USunple_CSunple1_RW	acq4567_RW	5	27	400	1	300	300	387	46	0	1	1	blank2r.bmp	0	1	+	0	1	blank2r.bmp	492	1	MQQM	492	1	blank2r.bmp	572	2	rächen	866	1	!	1239	1	!	1292	0	0	0	0	0	0	0	0	0	0	0	0	0	0	0	0	0	0	0	0	0	0	0	0	0	0	0	0	0	0
070319	16:55:12	17:04:05	533376	5.0.10.0	5_exp_RW	19	Rpleas_acq	CS_B	JXXJ	YDDY	MQQM	BZZB	GWWG	VKKV	spielen	retten	fair	treu	schön	ehrlich	strafen	rächen	faul	tot	schlecht	eitel	1	acq_USunple_CSunple1_RW	acq4567_RW	5	28	400	1	300	300	359	46	0	1	1	blank2r.bmp	0	1	+	0	1	blank2r.bmp	492	1	MQQM	492	1	blank2r.bmp	572	1	strafen	866	1	!	1239	1	!	1266	0	0	0	0	0	0	0	0	0	0	0	0	0	0	0	0	0	0	0	0	0	0	0	0	0	0	0	0	0	0
070319	16:55:12	17:04:08	535442	5.0.10.0	5_exp_RW	19	Rpleas_acq	CS_B	JXXJ	YDDY	MQQM	BZZB	GWWG	VKKV	spielen	retten	fair	treu	schön	ehrlich	strafen	rächen	faul	tot	schlecht	eitel	1	acq_USunple_CSunple1_RW	acq4567_RW	5	29	400	0	300	300	298	46	0	1	1	blank2r.bmp	0	1	+	0	1	blank2r.bmp	492	1	MQQM	492	1	blank2r.bmp	572	2	rächen	866	1	!	-1	1	!	-1	0	0	0	0	0	0	0	0	0	0	0	0	0	0	0	0	0	0	0	0	0	0	0	0	0	0	0	0	0	0
070319	16:55:12	17:04:10	537614	5.0.10.0	5_exp_RW	19	Rpleas_acq	CS_B	JXXJ	YDDY	MQQM	BZZB	GWWG	VKKV	spielen	retten	fair	treu	schön	ehrlich	strafen	rächen	faul	tot	schlecht	eitel	1	acq_USpleas_CSpleas1_RW	acq4567_RW	5	30	400	1	300	300	358	46	0	0	1	blank2r.bmp	0	1	+	0	1	blank2r.bmp	492	1	JXXJ	492	1	blank2r.bmp	572	3	fair	866	1	!	1239	1	!	1252	0	0	0	0	0	0	0	0	0	0	0	0	0	0	0	0	0	0	0	0	0	0	0	0	0	0	0	0	0	0
070319	16:55:12	17:04:12	539880	5.0.10.0	5_exp_RW	19	Rpleas_acq	CS_B	JXXJ	YDDY	MQQM	BZZB	GWWG	VKKV	spielen	retten	fair	treu	schön	ehrlich	strafen	rächen	faul	tot	schlecht	eitel	1	acq_USunple_CSunple2_RW	acq4567_RW	5	31	400	0	300	300	479	46	0	1	1	blank2r.bmp	0	1	+	0	1	blank2r.bmp	492	1	BZZB	492	1	blank2r.bmp	572	1	tot	866	1	!	1239	1	!	-1	0	0	0	0	0	0	0	0	0	0	0	0	0	0	0	0	0	0	0	0	0	0	0	0	0	0	0	0	0	0
070319	16:55:12	17:04:14	542079	5.0.10.0	5_exp_RW	19	Rpleas_acq	CS_B	JXXJ	YDDY	MQQM	BZZB	GWWG	VKKV	spielen	retten	fair	treu	schön	ehrlich	strafen	rächen	faul	tot	schlecht	eitel	1	acq_USpleas_CSpleas1_RW	acq4567_RW	5	32	400	1	300	300	401	50	0	1	1	blank2r.bmp	0	1	+	0	1	blank2r.bmp	492	1	JXXJ	492	1	blank2r.bmp	572	1	spielen	866	1	!	1239	1	!	1306	0	0	0	0	0	0	0	0	0	0	0	0	0	0	0	0	0	0	0	0	0	0	0	0	0	0	0	0	0	0
070319	16:55:12	17:04:16	544292	5.0.10.0	5_exp_RW	19	Rpleas_acq	CS_B	JXXJ	YDDY	MQQM	BZZB	GWWG	VKKV	spielen	retten	fair	treu	schön	ehrlich	strafen	rächen	faul	tot	schlecht	eitel	1	acq_USunple_CSunple1_RW	acq4567_RW	5	33	400	1	300	300	424	46	0	1	1	blank2r.bmp	0	1	+	0	1	blank2r.bmp	492	1	MQQM	492	1	blank2r.bmp	572	3	faul	866	1	!	1239	1	!	1319	0	0	0	0	0	0	0	0	0	0	0	0	0	0	0	0	0	0	0	0	0	0	0	0	0	0	0	0	0	0
070319	16:55:12	17:04:19	546517	5.0.10.0	5_exp_RW	19	Rpleas_acq	CS_B	JXXJ	YDDY	MQQM	BZZB	GWWG	VKKV	spielen	retten	fair	treu	schön	ehrlich	strafen	rächen	faul	tot	schlecht	eitel	1	acq_USpleas_CSpleas1_RW	acq4567_RW	5	34	400	1	300	300	438	50	0	1	1	blank2r.bmp	0	1	+	0	1	blank2r.bmp	492	1	JXXJ	492	1	blank2r.bmp	572	3	fair	866	1	!	1239	1	!	1332	0	0	0	0	0	0	0	0	0	0	0	0	0	0	0	0	0	0	0	0	0	0	0	0	0	0	0	0	0	0
070319	16:55:12	17:04:21	548730	5.0.10.0	5_exp_RW	19	Rpleas_acq	CS_B	JXXJ	YDDY	MQQM	BZZB	GWWG	VKKV	spielen	retten	fair	treu	schön	ehrlich	strafen	rächen	faul	tot	schlecht	eitel	1	acq_USpleas_CSpleas2_RW	acq4567_RW	5	35	400	1	300	300	420	50	0	1	1	blank2r.bmp	0	1	+	0	1	blank2r.bmp	492	1	YDDY	492	1	blank2r.bmp	572	3	ehrlich	866	1	!	1239	1	!	1319	0	0	0	0	0	0	0	0	0	0	0	0	0	0	0	0	0	0	0	0	0	0	0	0	0	0	0	0	0	0
070319	16:55:12	17:04:23	550995	5.0.10.0	5_exp_RW	19	Rpleas_acq	CS_B	JXXJ	YDDY	MQQM	BZZB	GWWG	VKKV	spielen	retten	fair	treu	schön	ehrlich	strafen	rächen	faul	tot	schlecht	eitel	1	acq_USunple_CSunple2_RW	acq4567_RW	5	36	400	1	300	300	460	46	0	1	1	blank2r.bmp	0	1	+	0	1	blank2r.bmp	492	1	BZZB	492	1	blank2r.bmp	572	2	schlecht	866	1	!	1239	1	!	1359	0	0	0	0	0	0	0	0	0	0	0	0	0	0	0	0	0	0	0	0	0	0	0	0	0	0	0	0	0	0
070319	16:55:12	17:04:25	553088	5.0.10.0	5_exp_RW	19	Rpleas_acq	CS_B	JXXJ	YDDY	MQQM	BZZB	GWWG	VKKV	spielen	retten	fair	treu	schön	ehrlich	strafen	rächen	faul	tot	schlecht	eitel	1	acq_USpleas_CSpleas2_RW	acq4567_RW	5	37	400	0	300	300	318	50	0	1	1	blank2r.bmp	0	1	+	0	1	blank2r.bmp	492	1	YDDY	492	1	blank2r.bmp	572	2	schön	866	1	!	-1	1	!	-1	0	0	0	0	0	0	0	0	0	0	0	0	0	0	0	0	0	0	0	0	0	0	0	0	0	0	0	0	0	0
070319	16:55:12	17:04:27	555354	5.0.10.0	5_exp_RW	19	Rpleas_acq	CS_B	JXXJ	YDDY	MQQM	BZZB	GWWG	VKKV	spielen	retten	fair	treu	schön	ehrlich	strafen	rächen	faul	tot	schlecht	eitel	1	acq_USunple_CSunple2_RW	acq4567_RW	5	38	400	1	300	300	452	46	0	1	1	blank2r.bmp	0	1	+	0	1	blank2r.bmp	492	1	BZZB	492	1	blank2r.bmp	572	3	eitel	866	1	!	1239	1	!	1359	0	0	0	0	0	0	0	0	0	0	0	0	0	0	0	0	0	0	0	0	0	0	0	0	0	0	0	0	0	0
070319	16:55:12	17:04:30	557606	5.0.10.0	5_exp_RW	19	Rpleas_acq	CS_B	JXXJ	YDDY	MQQM	BZZB	GWWG	VKKV	spielen	retten	fair	treu	schön	ehrlich	strafen	rächen	faul	tot	schlecht	eitel	1	acq_USunple_CSunple1_RW	acq4567_RW	5	39	400	0	300	300	479	46	0	1	1	blank2r.bmp	0	1	+	0	1	blank2r.bmp	492	1	MQQM	492	1	blank2r.bmp	572	2	rächen	866	1	!	1239	1	!	-1	0	0	0	0	0	0	0	0	0	0	0	0	0	0	0	0	0	0	0	0	0	0	0	0	0	0	0	0	0	0
070319	16:55:12	17:04:32	559805	5.0.10.0	5_exp_RW	19	Rpleas_acq	CS_B	JXXJ	YDDY	MQQM	BZZB	GWWG	VKKV	spielen	retten	fair	treu	schön	ehrlich	strafen	rächen	faul	tot	schlecht	eitel	1	acq_USpleas_CSpleas2_RW	acq4567_RW	5	40	400	1	300	300	395	50	0	1	1	blank2r.bmp	0	1	+	0	1	blank2r.bmp	492	1	YDDY	492	1	blank2r.bmp	572	2	schön	866	1	!	1239	1	!	1292	0	0	0	0	0	0	0	0	0	0	0	0	0	0	0	0	0	0	0	0	0	0	0	0	0	0	0	0	0	0
070319	16:55:12	17:04:34	562004	5.0.10.0	5_exp_RW	19	Rpleas_acq	CS_B	JXXJ	YDDY	MQQM	BZZB	GWWG	VKKV	spielen	retten	fair	treu	schön	ehrlich	strafen	rächen	faul	tot	schlecht	eitel	1	acq_USpleas_CSpleas1_RW	acq4567_RW	5	41	400	1	300	300	396	50	0	1	1	blank2r.bmp	0	1	+	0	1	blank2r.bmp	492	1	JXXJ	492	1	blank2r.bmp	572	2	retten	866	1	!	1239	1	!	1292	0	0	0	0	0	0	0	0	0	0	0	0	0	0	0	0	0	0	0	0	0	0	0	0	0	0	0	0	0	0
070319	16:55:12	17:04:36	564030	5.0.10.0	5_exp_RW	19	Rpleas_acq	CS_B	JXXJ	YDDY	MQQM	BZZB	GWWG	VKKV	spielen	retten	fair	treu	schön	ehrlich	strafen	rächen	faul	tot	schlecht	eitel	1	acq_USunple_CSunple2_RW	acq4567_RW	5	42	400	0	300	300	252	46	0	1	1	blank2r.bmp	0	1	+	0	1	blank2r.bmp	492	1	BZZB	492	1	blank2r.bmp	572	1	tot	866	1	!	-1	1	!	-1	0	0	0	0	0	0	0	0	0	0	0	0	0	0	0	0	0	0	0	0	0	0	0	0	0	0	0	0	0	0
070319	16:55:12	17:04:38	566216	5.0.10.0	5_exp_RW	19	Rpleas_acq	CS_B	JXXJ	YDDY	MQQM	BZZB	GWWG	VKKV	spielen	retten	fair	treu	schön	ehrlich	strafen	rächen	faul	tot	schlecht	eitel	1	acq_USpleas_CSpleas2_RW	acq4567_RW	5	43	400	1	300	300	377	50	0	1	1	blank2r.bmp	0	1	+	0	1	blank2r.bmp	492	1	YDDY	492	1	blank2r.bmp	572	3	ehrlich	866	1	!	1239	1	!	1279	0	0	0	0	0	0	0	0	0	0	0	0	0	0	0	0	0	0	0	0	0	0	0	0	0	0	0	0	0	0
070319	16:55:12	17:04:41	568468	5.0.10.0	5_exp_RW	19	Rpleas_acq	CS_B	JXXJ	YDDY	MQQM	BZZB	GWWG	VKKV	spielen	retten	fair	treu	schön	ehrlich	strafen	rächen	faul	tot	schlecht	eitel	1	acq_USpleas_CSpleas1_RW	acq4567_RW	5	44	400	1	300	300	454	50	0	1	1	blank2r.bmp	0	1	+	0	1	blank2r.bmp	492	1	JXXJ	492	1	blank2r.bmp	572	1	spielen	866	1	!	1239	1	!	1359	0	0	0	0	0	0	0	0	0	0	0	0	0	0	0	0	0	0	0	0	0	0	0	0	0	0	0	0	0	0
070319	16:55:12	17:04:43	570667	5.0.10.0	5_exp_RW	19	Rpleas_acq	CS_B	JXXJ	YDDY	MQQM	BZZB	GWWG	VKKV	spielen	retten	fair	treu	schön	ehrlich	strafen	rächen	faul	tot	schlecht	eitel	1	acq_USpleas_CSpleas2_RW	acq4567_RW	5	45	400	1	300	300	407	50	0	1	1	blank2r.bmp	0	1	+	0	1	blank2r.bmp	492	1	YDDY	492	1	blank2r.bmp	572	1	treu	866	1	!	1239	1	!	1306	0	0	0	0	0	0	0	0	0	0	0	0	0	0	0	0	0	0	0	0	0	0	0	0	0	0	0	0	0	0
070319	16:55:12	17:04:45	572760	5.0.10.0	5_exp_RW	19	Rpleas_acq	CS_B	JXXJ	YDDY	MQQM	BZZB	GWWG	VKKV	spielen	retten	fair	treu	schön	ehrlich	strafen	rächen	faul	tot	schlecht	eitel	1	acq_USunple_CSunple2_RW	acq4567_RW	5	46	400	0	300	300	328	46	0	1	1	blank2r.bmp	0	1	+	0	1	blank2r.bmp	492	1	BZZB	492	1	blank2r.bmp	572	2	schlecht	866	1	!	-1	1	!	-1	0	0	0	0	0	0	0	0	0	0	0	0	0	0	0	0	0	0	0	0	0	0	0	0	0	0	0	0	0	0
070319	16:55:12	17:04:47	574985	5.0.10.0	5_exp_RW	19	Rpleas_acq	CS_B	JXXJ	YDDY	MQQM	BZZB	GWWG	VKKV	spielen	retten	fair	treu	schön	ehrlich	strafen	rächen	faul	tot	schlecht	eitel	1	acq_USunple_CSunple1_RW	acq4567_RW	5	47	400	1	300	300	412	46	0	1	1	blank2r.bmp	0	1	+	0	1	blank2r.bmp	492	1	MQQM	492	1	blank2r.bmp	572	3	faul	866	1	!	1239	1	!	1319	0	0	0	0	0	0	0	0	0	0	0	0	0	0	0	0	0	0	0	0	0	0	0	0	0	0	0	0	0	0
070319	16:55:12	17:04:49	577145	5.0.10.0	5_exp_RW	19	Rpleas_acq	CS_B	JXXJ	YDDY	MQQM	BZZB	GWWG	VKKV	spielen	retten	fair	treu	schön	ehrlich	strafen	rächen	faul	tot	schlecht	eitel	1	acq_USpleas_CSpleas2_RW	acq4567_RW	5	48	400	1	300	300	351	50	0	1	1	blank2r.bmp	0	1	+	0	1	blank2r.bmp	492	1	YDDY	492	1	blank2r.bmp	572	3	ehrlich	866	1	!	1239	1	!	1252	0	0	0	0	0	0	0	0	0	0	0	0	0	0	0	0	0	0	0	0	0	0	0	0	0	0	0	0	0	0
070319	16:55:12	17:04:51	579330	5.0.10.0	5_exp_RW	19	Rpleas_acq	CS_B	JXXJ	YDDY	MQQM	BZZB	GWWG	VKKV	spielen	retten	fair	treu	schön	ehrlich	strafen	rächen	faul	tot	schlecht	eitel	1	acq_USunple_CSunple2_RW	acq4567_RW	5	49	400	1	300	300	389	46	0	1	1	blank2r.bmp	0	1	+	0	1	blank2r.bmp	492	1	BZZB	492	1	blank2r.bmp	572	2	schlecht	866	1	!	1239	1	!	1292	0	0	0	0	0	0	0	0	0	0	0	0	0	0	0	0	0	0	0	0	0	0	0	0	0	0	0	0	0	0
070319	16:55:12	17:04:54	581489	5.0.10.0	5_exp_RW	19	Rpleas_acq	CS_B	JXXJ	YDDY	MQQM	BZZB	GWWG	VKKV	spielen	retten	fair	treu	schön	ehrlich	strafen	rächen	faul	tot	schlecht	eitel	1	acq_USpleas_CSpleas1_RW	acq4567_RW	5	50	400	1	300	300	366	50	0	1	1	blank2r.bmp	0	1	+	0	1	blank2r.bmp	492	1	JXXJ	492	1	blank2r.bmp	572	1	spielen	866	1	!	1239	1	!	1266	0	0	0	0	0	0	0	0	0	0	0	0	0	0	0	0	0	0	0	0	0	0	0	0	0	0	0	0	0	0
070319	16:55:12	17:04:56	583648	5.0.10.0	5_exp_RW	19	Rpleas_acq	CS_B	JXXJ	YDDY	MQQM	BZZB	GWWG	VKKV	spielen	retten	fair	treu	schön	ehrlich	strafen	rächen	faul	tot	schlecht	eitel	1	acq_USunple_CSunple1_RW	acq4567_RW	5	51	400	1	300	300	346	46	0	1	1	blank2r.bmp	0	1	+	0	1	blank2r.bmp	492	1	MQQM	492	1	blank2r.bmp	572	1	strafen	866	1	!	1239	1	!	1252	0	0	0	0	0	0	0	0	0	0	0	0	0	0	0	0	0	0	0	0	0	0	0	0	0	0	0	0	0	0
070319	16:55:12	17:04:58	585701	5.0.10.0	5_exp_RW	19	Rpleas_acq	CS_B	JXXJ	YDDY	MQQM	BZZB	GWWG	VKKV	spielen	retten	fair	treu	schön	ehrlich	strafen	rächen	faul	tot	schlecht	eitel	1	acq_USpleas_CSpleas2_RW	acq4567_RW	5	52	400	0	300	300	279	50	0	1	1	blank2r.bmp	0	1	+	0	1	blank2r.bmp	492	1	YDDY	492	1	blank2r.bmp	572	2	schön	866	1	!	-1	1	!	-1	0	0	0	0	0	0	0	0	0	0	0	0	0	0	0	0	0	0	0	0	0	0	0	0	0	0	0	0	0	0
070319	16:55:12	17:05:00	588073	5.0.10.0	5_exp_RW	19	Rpleas_acq	CS_B	JXXJ	YDDY	MQQM	BZZB	GWWG	VKKV	spielen	retten	fair	treu	schön	ehrlich	strafen	rächen	faul	tot	schlecht	eitel	1	acq_USunple_CSunple2_RW	acq4567_RW	5	53	400	0	300	300	586	46	0	1	1	blank2r.bmp	0	1	+	0	1	blank2r.bmp	492	1	BZZB	492	1	blank2r.bmp	572	1	tot	866	1	!	1239	1	!	-1	0	0	0	0	0	0	0	0	0	0	0	0	0	0	0	0	0	0	0	0	0	0	0	0	0	0	0	0	0	0
070319	16:55:12	17:05:03	590752	5.0.10.0	5_exp_RW	19	Rpleas_acq	CS_B	JXXJ	YDDY	MQQM	BZZB	GWWG	VKKV	spielen	retten	fair	treu	schön	ehrlich	strafen	rächen	faul	tot	schlecht	eitel	1	acq_USunple_CSunple1_RW	acq4567_RW	5	54	400	0	300	300	900	50	0	0	1	blank2r.bmp	0	1	+	0	1	blank2r.bmp	492	1	MQQM	492	1	blank2r.bmp	572	2	rächen	866	1	!	1239	1	!	-1	0	0	0	0	0	0	0	0	0	0	0	0	0	0	0	0	0	0	0	0	0	0	0	0	0	0	0	0	0	0
070319	16:55:12	17:05:05	592965	5.0.10.0	5_exp_RW	19	Rpleas_acq	CS_B	JXXJ	YDDY	MQQM	BZZB	GWWG	VKKV	spielen	retten	fair	treu	schön	ehrlich	strafen	rächen	faul	tot	schlecht	eitel	1	acq_USpleas_CSpleas1_RW	acq4567_RW	5	55	400	1	300	300	402	50	0	1	1	blank2r.bmp	0	1	+	0	1	blank2r.bmp	492	1	JXXJ	492	1	blank2r.bmp	572	3	fair	866	1	!	1239	1	!	1306	0	0	0	0	0	0	0	0	0	0	0	0	0	0	0	0	0	0	0	0	0	0	0	0	0	0	0	0	0	0
070319	16:55:12	17:05:07	595217	5.0.10.0	5_exp_RW	19	Rpleas_acq	CS_B	JXXJ	YDDY	MQQM	BZZB	GWWG	VKKV	spielen	retten	fair	treu	schön	ehrlich	strafen	rächen	faul	tot	schlecht	eitel	1	acq_USunple_CSunple1_RW	acq4567_RW	5	56	400	0	300	300	479	46	0	1	1	blank2r.bmp	0	1	+	0	1	blank2r.bmp	492	1	MQQM	492	1	blank2r.bmp	572	1	strafen	866	1	!	1239	1	!	-1	0	0	0	0	0	0	0	0	0	0	0	0	0	0	0	0	0	0	0	0	0	0	0	0	0	0	0	0	0	0
070319	16:55:12	17:05:10	597509	5.0.10.0	5_exp_RW	19	Rpleas_acq	CS_B	JXXJ	YDDY	MQQM	BZZB	GWWG	VKKV	spielen	retten	fair	treu	schön	ehrlich	strafen	rächen	faul	tot	schlecht	eitel	1	acq_USpleas_CSpleas2_RW	acq4567_RW	5	57	400	0	300	300	510	50	0	1	1	blank2r.bmp	0	1	+	0	1	blank2r.bmp	492	1	YDDY	492	1	blank2r.bmp	572	1	treu	866	1	!	1239	1	!	-1	0	0	0	0	0	0	0	0	0	0	0	0	0	0	0	0	0	0	0	0	0	0	0	0	0	0	0	0	0	0
070319	16:55:12	17:05:12	599668	5.0.10.0	5_exp_RW	19	Rpleas_acq	CS_B	JXXJ	YDDY	MQQM	BZZB	GWWG	VKKV	spielen	retten	fair	treu	schön	ehrlich	strafen	rächen	faul	tot	schlecht	eitel	1	acq_USunple_CSunple2_RW	acq4567_RW	5	58	400	1	300	300	353	50	0	0	1	blank2r.bmp	0	1	+	0	1	blank2r.bmp	492	1	BZZB	492	1	blank2r.bmp	572	3	eitel	866	1	!	1239	1	!	1252	0	0	0	0	0	0	0	0	0	0	0	0	0	0	0	0	0	0	0	0	0	0	0	0	0	0	0	0	0	0
070319	16:55:12	17:05:14	601814	5.0.10.0	5_exp_RW	19	Rpleas_acq	CS_B	JXXJ	YDDY	MQQM	BZZB	GWWG	VKKV	spielen	retten	fair	treu	schön	ehrlich	strafen	rächen	faul	tot	schlecht	eitel	1	acq_USpleas_CSpleas1_RW	acq4567_RW	5	59	400	1	300	300	346	50	0	1	1	blank2r.bmp	0	1	+	0	1	blank2r.bmp	492	1	JXXJ	492	1	blank2r.bmp	572	2	retten	866	1	!	1239	1	!	1252	0	0	0	0	0	0	0	0	0	0	0	0	0	0	0	0	0	0	0	0	0	0	0	0	0	0	0	0	0	0
070319	16:55:12	17:05:16	604080	5.0.10.0	5_exp_RW	19	Rpleas_acq	CS_B	JXXJ	YDDY	MQQM	BZZB	GWWG	VKKV	spielen	retten	fair	treu	schön	ehrlich	strafen	rächen	faul	tot	schlecht	eitel	1	acq_USunple_CSunple1_RW	acq4567_RW	5	60	400	0	300	300	493	46	0	1	1	blank2r.bmp	0	1	+	0	1	blank2r.bmp	492	1	MQQM	492	1	blank2r.bmp	572	3	faul	866	1	!	1239	1	!	-1	0	0	0	0	0	0	0	0	0	0	0	0	0	0	0	0	0	0	0	0	0	0	0	0	0	0	0	0	0	0
070319	16:55:12	17:05:18	606252	5.0.10.0	5_exp_RW	19	Rpleas_acq	CS_B	JXXJ	YDDY	MQQM	BZZB	GWWG	VKKV	spielen	retten	fair	treu	schön	ehrlich	strafen	rächen	faul	tot	schlecht	eitel	1	acq_USunple_CSunple2_RW	acq4567_RW	5	61	400	1	300	300	351	46	0	1	1	blank2r.bmp	0	1	+	0	1	blank2r.bmp	492	1	BZZB	492	1	blank2r.bmp	572	1	tot	866	1	!	1239	1	!	1252	0	0	0	0	0	0	0	0	0	0	0	0	0	0	0	0	0	0	0	0	0	0	0	0	0	0	0	0	0	0
070319	16:55:12	17:05:21	608451	5.0.10.0	5_exp_RW	19	Rpleas_acq	CS_B	JXXJ	YDDY	MQQM	BZZB	GWWG	VKKV	spielen	retten	fair	treu	schön	ehrlich	strafen	rächen	faul	tot	schlecht	eitel	1	acq_USpleas_CSpleas1_RW	acq4567_RW	5	62	400	1	300	300	408	50	0	1	1	blank2r.bmp	0	1	+	0	1	blank2r.bmp	492	1	JXXJ	492	1	blank2r.bmp	572	1	spielen	866	1	!	1239	1	!	1306	0	0	0	0	0	0	0	0	0	0	0	0	0	0	0	0	0	0	0	0	0	0	0	0	0	0	0	0	0	0
070319	16:55:12	17:05:23	610611	5.0.10.0	5_exp_RW	19	Rpleas_acq	CS_B	JXXJ	YDDY	MQQM	BZZB	GWWG	VKKV	spielen	retten	fair	treu	schön	ehrlich	strafen	rächen	faul	tot	schlecht	eitel	1	acq_USpleas_CSpleas2_RW	acq4567_RW	5	63	400	1	300	300	366	50	0	1	1	blank2r.bmp	0	1	+	0	1	blank2r.bmp	492	1	YDDY	492	1	blank2r.bmp	572	2	schön	866	1	!	1239	1	!	1266	0	0	0	0	0	0	0	0	0	0	0	0	0	0	0	0	0	0	0	0	0	0	0	0	0	0	0	0	0	0
070319	16:55:12	17:05:25	612796	5.0.10.0	5_exp_RW	19	Rpleas_acq	CS_B	JXXJ	YDDY	MQQM	BZZB	GWWG	VKKV	spielen	retten	fair	treu	schön	ehrlich	strafen	rächen	faul	tot	schlecht	eitel	1	acq_USpleas_CSpleas2_RW	acq4567_RW	5	64	400	1	300	300	394	50	0	1	1	blank2r.bmp	0	1	+	0	1	blank2r.bmp	492	1	YDDY	492	1	blank2r.bmp	572	3	ehrlich	866	1	!	1239	1	!	1292	0	0	0	0	0	0	0	0	0	0	0	0	0	0	0	0	0	0	0	0	0	0	0	0	0	0	0	0	0	0
070319	16:55:12	17:05:27	614942	5.0.10.0	5_exp_RW	19	Rpleas_acq	CS_B	JXXJ	YDDY	MQQM	BZZB	GWWG	VKKV	spielen	retten	fair	treu	schön	ehrlich	strafen	rächen	faul	tot	schlecht	eitel	1	acq_USpleas_CSpleas1_RW	acq4567_RW	5	65	400	1	300	300	348	50	0	1	1	blank2r.bmp	0	1	+	0	1	blank2r.bmp	492	1	JXXJ	492	1	blank2r.bmp	572	3	fair	866	1	!	1239	1	!	1252	0	0	0	0	0	0	0	0	0	0	0	0	0	0	0	0	0	0	0	0	0	0	0	0	0	0	0	0	0	0
070319	16:55:12	17:05:29	617181	5.0.10.0	5_exp_RW	19	Rpleas_acq	CS_B	JXXJ	YDDY	MQQM	BZZB	GWWG	VKKV	spielen	retten	fair	treu	schön	ehrlich	strafen	rächen	faul	tot	schlecht	eitel	1	acq_USunple_CSunple2_RW	acq4567_RW	5	66	400	1	300	300	440	50	0	0	1	blank2r.bmp	0	1	+	0	1	blank2r.bmp	492	1	BZZB	492	1	blank2r.bmp	572	3	eitel	866	1	!	1239	1	!	1346	0	0	0	0	0	0	0	0	0	0	0	0	0	0	0	0	0	0	0	0	0	0	0	0	0	0	0	0	0	0
070319	16:55:12	17:05:31	619354	5.0.10.0	5_exp_RW	19	Rpleas_acq	CS_B	JXXJ	YDDY	MQQM	BZZB	GWWG	VKKV	spielen	retten	fair	treu	schön	ehrlich	strafen	rächen	faul	tot	schlecht	eitel	1	acq_USunple_CSunple2_RW	acq4567_RW	5	67	400	1	300	300	364	46	0	1	1	blank2r.bmp	0	1	+	0	1	blank2r.bmp	492	1	BZZB	492	1	blank2r.bmp	572	2	schlecht	866	1	!	1239	1	!	1266	0	0	0	0	0	0	0	0	0	0	0	0	0	0	0	0	0	0	0	0	0	0	0	0	0	0	0	0	0	0
070319	16:55:12	17:05:34	621539	5.0.10.0	5_exp_RW	19	Rpleas_acq	CS_B	JXXJ	YDDY	MQQM	BZZB	GWWG	VKKV	spielen	retten	fair	treu	schön	ehrlich	strafen	rächen	faul	tot	schlecht	eitel	1	acq_USpleas_CSpleas1_RW	acq4567_RW	5	68	400	1	300	300	386	50	0	1	1	blank2r.bmp	0	1	+	0	1	blank2r.bmp	492	1	JXXJ	492	1	blank2r.bmp	572	2	retten	866	1	!	1239	1	!	1292	0	0	0	0	0	0	0	0	0	0	0	0	0	0	0	0	0	0	0	0	0	0	0	0	0	0	0	0	0	0
070319	16:55:12	17:05:36	623632	5.0.10.0	5_exp_RW	19	Rpleas_acq	CS_B	JXXJ	YDDY	MQQM	BZZB	GWWG	VKKV	spielen	retten	fair	treu	schön	ehrlich	strafen	rächen	faul	tot	schlecht	eitel	1	acq_USunple_CSunple2_RW	acq4567_RW	5	69	400	0	300	300	325	46	0	1	1	blank2r.bmp	0	1	+	0	1	blank2r.bmp	492	1	BZZB	492	1	blank2r.bmp	572	3	eitel	866	1	!	-1	1	!	-1	0	0	0	0	0	0	0	0	0	0	0	0	0	0	0	0	0	0	0	0	0	0	0	0	0	0	0	0	0	0
070319	16:55:12	17:05:38	625791	5.0.10.0	5_exp_RW	19	Rpleas_acq	CS_B	JXXJ	YDDY	MQQM	BZZB	GWWG	VKKV	spielen	retten	fair	treu	schön	ehrlich	strafen	rächen	faul	tot	schlecht	eitel	1	acq_USunple_CSunple2_RW	acq4567_RW	5	70	400	1	300	300	353	46	0	1	1	blank2r.bmp	0	1	+	0	1	blank2r.bmp	492	1	BZZB	492	1	blank2r.bmp	572	1	tot	866	1	!	1239	1	!	1252	0	0	0	0	0	0	0	0	0	0	0	0	0	0	0	0	0	0	0	0	0	0	0	0	0	0	0	0	0	0
070319	16:55:12	17:05:40	628057	5.0.10.0	5_exp_RW	19	Rpleas_acq	CS_B	JXXJ	YDDY	MQQM	BZZB	GWWG	VKKV	spielen	retten	fair	treu	schön	ehrlich	strafen	rächen	faul	tot	schlecht	eitel	1	acq_USunple_CSunple1_RW	acq4567_RW	5	71	400	1	300	300	465	46	0	1	1	blank2r.bmp	0	1	+	0	1	blank2r.bmp	492	1	MQQM	492	1	blank2r.bmp	572	1	strafen	866	1	!	1239	1	!	1372	0	0	0	0	0	0	0	0	0	0	0	0	0	0	0	0	0	0	0	0	0	0	0	0	0	0	0	0	0	0
070319	16:55:12	17:05:42	630322	5.0.10.0	5_exp_RW	19	Rpleas_acq	CS_B	JXXJ	YDDY	MQQM	BZZB	GWWG	VKKV	spielen	retten	fair	treu	schön	ehrlich	strafen	rächen	faul	tot	schlecht	eitel	1	acq_USpleas_CSpleas2_RW	acq4567_RW	5	72	400	0	300	300	484	50	0	1	1	blank2r.bmp	0	1	+	0	1	blank2r.bmp	492	1	YDDY	492	1	blank2r.bmp	572	1	treu	866	1	!	1239	1	!	-1	0	0	0	0	0	0	0	0	0	0	0	0	0	0	0	0	0	0	0	0	0	0	0	0	0	0	0	0	0	0
070319	16:55:12	17:05:45	632508	5.0.10.0	5_exp_RW	19	Rpleas_acq	CS_B	JXXJ	YDDY	MQQM	BZZB	GWWG	VKKV	spielen	retten	fair	treu	schön	ehrlich	strafen	rächen	faul	tot	schlecht	eitel	1	acq_USpleas_CSpleas2_RW	acq4567_RW	5	73	400	1	300	300	378	50	0	1	1	blank2r.bmp	0	1	+	0	1	blank2r.bmp	492	1	YDDY	492	1	blank2r.bmp	572	3	ehrlich	866	1	!	1239	1	!	1279	0	0	0	0	0	0	0	0	0	0	0	0	0	0	0	0	0	0	0	0	0	0	0	0	0	0	0	0	0	0
070319	16:55:12	17:05:47	634734	5.0.10.0	5_exp_RW	19	Rpleas_acq	CS_B	JXXJ	YDDY	MQQM	BZZB	GWWG	VKKV	spielen	retten	fair	treu	schön	ehrlich	strafen	rächen	faul	tot	schlecht	eitel	1	acq_USpleas_CSpleas1_RW	acq4567_RW	5	74	400	1	300	300	433	50	0	1	1	blank2r.bmp	0	1	+	0	1	blank2r.bmp	492	1	JXXJ	492	1	blank2r.bmp	572	3	fair	866	1	!	1239	1	!	1332	0	0	0	0	0	0	0	0	0	0	0	0	0	0	0	0	0	0	0	0	0	0	0	0	0	0	0	0	0	0
070319	16:55:12	17:05:49	636893	5.0.10.0	5_exp_RW	19	Rpleas_acq	CS_B	JXXJ	YDDY	MQQM	BZZB	GWWG	VKKV	spielen	retten	fair	treu	schön	ehrlich	strafen	rächen	faul	tot	schlecht	eitel	1	acq_USunple_CSunple1_RW	acq4567_RW	5	75	400	1	300	300	350	46	0	1	1	blank2r.bmp	0	1	+	0	1	blank2r.bmp	492	1	MQQM	492	1	blank2r.bmp	572	2	rächen	866	1	!	1239	1	!	1252	0	0	0	0	0	0	0	0	0	0	0	0	0	0	0	0	0	0	0	0	0	0	0	0	0	0	0	0	0	0
070319	16:55:12	17:05:51	638959	5.0.10.0	5_exp_RW	19	Rpleas_acq	CS_B	JXXJ	YDDY	MQQM	BZZB	GWWG	VKKV	spielen	retten	fair	treu	schön	ehrlich	strafen	rächen	faul	tot	schlecht	eitel	1	acq_USpleas_CSpleas2_RW	acq4567_RW	5	76	400	0	300	300	301	46	0	0	1	blank2r.bmp	0	1	+	0	1	blank2r.bmp	492	1	YDDY	492	1	blank2r.bmp	572	1	treu	866	1	!	-1	1	!	-1	0	0	0	0	0	0	0	0	0	0	0	0	0	0	0	0	0	0	0	0	0	0	0	0	0	0	0	0	0	0
070319	16:55:12	17:05:53	640998	5.0.10.0	5_exp_RW	19	Rpleas_acq	CS_B	JXXJ	YDDY	MQQM	BZZB	GWWG	VKKV	spielen	retten	fair	treu	schön	ehrlich	strafen	rächen	faul	tot	schlecht	eitel	1	acq_USunple_CSunple1_RW	acq4567_RW	5	77	400	0	300	300	256	46	0	1	1	blank2r.bmp	0	1	+	0	1	blank2r.bmp	492	1	MQQM	492	1	blank2r.bmp	572	3	faul	866	1	!	-1	1	!	-1	0	0	0	0	0	0	0	0	0	0	0	0	0	0	0	0	0	0	0	0	0	0	0	0	0	0	0	0	0	0
070319	16:55:12	17:05:55	643224	5.0.10.0	5_exp_RW	19	Rpleas_acq	CS_B	JXXJ	YDDY	MQQM	BZZB	GWWG	VKKV	spielen	retten	fair	treu	schön	ehrlich	strafen	rächen	faul	tot	schlecht	eitel	1	acq_USunple_CSunple1_RW	acq4567_RW	5	78	400	1	300	300	414	46	0	1	1	blank2r.bmp	0	1	+	0	1	blank2r.bmp	492	1	MQQM	492	1	blank2r.bmp	572	2	rächen	866	1	!	1239	1	!	1319	0	0	0	0	0	0	0	0	0	0	0	0	0	0	0	0	0	0	0	0	0	0	0	0	0	0	0	0	0	0
070319	16:55:12	17:05:58	645409	5.0.10.0	5_exp_RW	19	Rpleas_acq	CS_B	JXXJ	YDDY	MQQM	BZZB	GWWG	VKKV	spielen	retten	fair	treu	schön	ehrlich	strafen	rächen	faul	tot	schlecht	eitel	1	acq_USunple_CSunple1_RW	acq4567_RW	5	79	400	1	300	300	394	46	0	1	1	blank2r.bmp	0	1	+	0	1	blank2r.bmp	492	1	MQQM	492	1	blank2r.bmp	572	1	strafen	866	1	!	1239	1	!	1292	0	0	0	0	0	0	0	0	0	0	0	0	0	0	0	0	0	0	0	0	0	0	0	0	0	0	0	0	0	0
070319	16:55:12	17:06:00	647435	5.0.10.0	5_exp_RW	19	Rpleas_acq	CS_B	JXXJ	YDDY	MQQM	BZZB	GWWG	VKKV	spielen	retten	fair	treu	schön	ehrlich	strafen	rächen	faul	tot	schlecht	eitel	1	acq_USpleas_CSpleas1_RW	acq4567_RW	5	80	400	0	300	300	257	50	0	1	1	blank2r.bmp	0	1	+	0	1	blank2r.bmp	492	1	JXXJ	492	1	blank2r.bmp	572	1	spielen	866	1	!	-1	1	!	-1	0	0	0	0	0	0	0	0	0	0	0	0	0	0	0	0	0	0	0	0	0	0	0	0	0	0	0	0	0	0
070319	16:55:12	17:06:13	661189	5.0.10.0	5_exp_RW	19	Rpleas_acq	CS_B	JXXJ	YDDY	MQQM	BZZB	GWWG	VKKV	spielen	retten	fair	treu	schön	ehrlich	strafen	rächen	faul	tot	schlecht	eitel	1	acq_USunple_CSunple2_RW	acq4567_RW	6	1	400	1	300	300	381	46	0	1	1	blank2r.bmp	0	1	+	0	1	blank2r.bmp	492	1	BZZB	492	1	blank2r.bmp	572	2	schlecht	866	1	!	1239	1	!	1279	0	0	0	0	0	0	0	0	0	0	0	0	0	0	0	0	0	0	0	0	0	0	0	0	0	0	0	0	0	0
070319	16:55:12	17:06:15	663269	5.0.10.0	5_exp_RW	19	Rpleas_acq	CS_B	JXXJ	YDDY	MQQM	BZZB	GWWG	VKKV	spielen	retten	fair	treu	schön	ehrlich	strafen	rächen	faul	tot	schlecht	eitel	1	acq_USpleas_CSpleas1_RW	acq4567_RW	6	2	400	0	300	300	292	50	0	1	1	blank2r.bmp	0	1	+	0	1	blank2r.bmp	492	1	JXXJ	492	1	blank2r.bmp	572	2	retten	866	1	!	-1	1	!	-1	0	0	0	0	0	0	0	0	0	0	0	0	0	0	0	0	0	0	0	0	0	0	0	0	0	0	0	0	0	0
070319	16:55:12	17:06:17	665321	5.0.10.0	5_exp_RW	19	Rpleas_acq	CS_B	JXXJ	YDDY	MQQM	BZZB	GWWG	VKKV	spielen	retten	fair	treu	schön	ehrlich	strafen	rächen	faul	tot	schlecht	eitel	1	acq_USunple_CSunple1_RW	acq4567_RW	6	3	400	0	300	300	273	46	0	1	1	blank2r.bmp	0	1	+	0	1	blank2r.bmp	492	1	MQQM	492	1	blank2r.bmp	572	3	faul	866	1	!	-1	1	!	-1	0	0	0	0	0	0	0	0	0	0	0	0	0	0	0	0	0	0	0	0	0	0	0	0	0	0	0	0	0	0
070319	16:55:12	17:06:20	667480	5.0.10.0	5_exp_RW	19	Rpleas_acq	CS_B	JXXJ	YDDY	MQQM	BZZB	GWWG	VKKV	spielen	retten	fair	treu	schön	ehrlich	strafen	rächen	faul	tot	schlecht	eitel	1	acq_USpleas_CSpleas2_RW	acq4567_RW	6	4	400	1	300	300	346	50	0	1	1	blank2r.bmp	0	1	+	0	1	blank2r.bmp	492	1	YDDY	492	1	blank2r.bmp	572	2	schön	866	1	!	1239	1	!	1252	0	0	0	0	0	0	0	0	0	0	0	0	0	0	0	0	0	0	0	0	0	0	0	0	0	0	0	0	0	0
070319	16:55:12	17:06:22	669732	5.0.10.0	5_exp_RW	19	Rpleas_acq	CS_B	JXXJ	YDDY	MQQM	BZZB	GWWG	VKKV	spielen	retten	fair	treu	schön	ehrlich	strafen	rächen	faul	tot	schlecht	eitel	1	acq_USunple_CSunple2_RW	acq4567_RW	6	5	400	1	300	300	463	46	0	1	1	blank2r.bmp	0	1	+	0	1	blank2r.bmp	492	1	BZZB	492	1	blank2r.bmp	572	2	schlecht	866	1	!	1239	1	!	1359	0	0	0	0	0	0	0	0	0	0	0	0	0	0	0	0	0	0	0	0	0	0	0	0	0	0	0	0	0	0
070319	16:55:12	17:06:24	671958	5.0.10.0	5_exp_RW	19	Rpleas_acq	CS_B	JXXJ	YDDY	MQQM	BZZB	GWWG	VKKV	spielen	retten	fair	treu	schön	ehrlich	strafen	rächen	faul	tot	schlecht	eitel	1	acq_USunple_CSunple2_RW	acq4567_RW	6	6	400	1	300	300	431	46	0	1	1	blank2r.bmp	0	1	+	0	1	blank2r.bmp	492	1	BZZB	492	1	blank2r.bmp	572	1	tot	866	1	!	1239	1	!	1332	0	0	0	0	0	0	0	0	0	0	0	0	0	0	0	0	0	0	0	0	0	0	0	0	0	0	0	0	0	0
070319	16:55:12	17:06:26	674251	5.0.10.0	5_exp_RW	19	Rpleas_acq	CS_B	JXXJ	YDDY	MQQM	BZZB	GWWG	VKKV	spielen	retten	fair	treu	schön	ehrlich	strafen	rächen	faul	tot	schlecht	eitel	1	acq_USpleas_CSpleas1_RW	acq4567_RW	6	7	400	0	300	300	526	50	0	1	1	blank2r.bmp	0	1	+	0	1	blank2r.bmp	492	1	JXXJ	492	1	blank2r.bmp	572	3	fair	866	1	!	1239	1	!	-1	0	0	0	0	0	0	0	0	0	0	0	0	0	0	0	0	0	0	0	0	0	0	0	0	0	0	0	0	0	0
070319	16:55:12	17:06:29	676516	5.0.10.0	5_exp_RW	19	Rpleas_acq	CS_B	JXXJ	YDDY	MQQM	BZZB	GWWG	VKKV	spielen	retten	fair	treu	schön	ehrlich	strafen	rächen	faul	tot	schlecht	eitel	1	acq_USpleas_CSpleas2_RW	acq4567_RW	6	8	400	1	300	300	455	50	0	1	1	blank2r.bmp	0	1	+	0	1	blank2r.bmp	492	1	YDDY	492	1	blank2r.bmp	572	3	ehrlich	866	1	!	1239	1	!	1359	0	0	0	0	0	0	0	0	0	0	0	0	0	0	0	0	0	0	0	0	0	0	0	0	0	0	0	0	0	0
070319	16:55:12	17:06:31	678729	5.0.10.0	5_exp_RW	19	Rpleas_acq	CS_B	JXXJ	YDDY	MQQM	BZZB	GWWG	VKKV	spielen	retten	fair	treu	schön	ehrlich	strafen	rächen	faul	tot	schlecht	eitel	1	acq_USunple_CSunple1_RW	acq4567_RW	6	9	400	1	300	300	416	46	0	1	1	blank2r.bmp	0	1	+	0	1	blank2r.bmp	492	1	MQQM	492	1	blank2r.bmp	572	1	strafen	866	1	!	1239	1	!	1319	0	0	0	0	0	0	0	0	0	0	0	0	0	0	0	0	0	0	0	0	0	0	0	0	0	0	0	0	0	0
070319	16:55:12	17:06:33	680901	5.0.10.0	5_exp_RW	19	Rpleas_acq	CS_B	JXXJ	YDDY	MQQM	BZZB	GWWG	VKKV	spielen	retten	fair	treu	schön	ehrlich	strafen	rächen	faul	tot	schlecht	eitel	1	acq_USunple_CSunple2_RW	acq4567_RW	6	10	400	1	300	300	373	46	0	1	1	blank2r.bmp	0	1	+	0	1	blank2r.bmp	492	1	BZZB	492	1	blank2r.bmp	572	3	eitel	866	1	!	1239	1	!	1279	0	0	0	0	0	0	0	0	0	0	0	0	0	0	0	0	0	0	0	0	0	0	0	0	0	0	0	0	0	0
070319	16:55:12	17:06:45	693243	5.0.10.0	5_exp_RW	19	Rpleas_acq	CS_B	JXXJ	YDDY	MQQM	BZZB	GWWG	VKKV	spielen	retten	fair	treu	schön	ehrlich	strafen	rächen	faul	tot	schlecht	eitel	1	acq_USpleas_CSpleas2_RW	acq4567_RW	6	11	400	0	300	300	10569	50	0	1	1	blank2r.bmp	0	1	+	0	1	blank2r.bmp	492	1	YDDY	492	1	blank2r.bmp	572	2	schön	866	1	!	1239	1	!	-1	0	0	0	0	0	0	0	0	0	0	0	0	0	0	0	0	0	0	0	0	0	0	0	0	0	0	0	0	0	0
070319	16:55:12	17:06:48	695775	5.0.10.0	5_exp_RW	19	Rpleas_acq	CS_B	JXXJ	YDDY	MQQM	BZZB	GWWG	VKKV	spielen	retten	fair	treu	schön	ehrlich	strafen	rächen	faul	tot	schlecht	eitel	1	acq_USunple_CSunple1_RW	acq4567_RW	6	12	400	0	300	300	749	46	0	1	1	blank2r.bmp	0	1	+	0	1	blank2r.bmp	492	1	MQQM	492	1	blank2r.bmp	572	2	rächen	866	1	!	1239	1	!	-1	0	0	0	0	0	0	0	0	0	0	0	0	0	0	0	0	0	0	0	0	0	0	0	0	0	0	0	0	0	0
070319	16:55:12	17:06:50	697881	5.0.10.0	5_exp_RW	19	Rpleas_acq	CS_B	JXXJ	YDDY	MQQM	BZZB	GWWG	VKKV	spielen	retten	fair	treu	schön	ehrlich	strafen	rächen	faul	tot	schlecht	eitel	1	acq_USpleas_CSpleas1_RW	acq4567_RW	6	13	400	0	300	300	329	50	0	1	1	blank2r.bmp	0	1	+	0	1	blank2r.bmp	492	1	JXXJ	492	1	blank2r.bmp	572	2	retten	866	1	!	-1	1	!	-1	0	0	0	0	0	0	0	0	0	0	0	0	0	0	0	0	0	0	0	0	0	0	0	0	0	0	0	0	0	0
070319	16:55:12	17:06:52	700093	5.0.10.0	5_exp_RW	19	Rpleas_acq	CS_B	JXXJ	YDDY	MQQM	BZZB	GWWG	VKKV	spielen	retten	fair	treu	schön	ehrlich	strafen	rächen	faul	tot	schlecht	eitel	1	acq_USpleas_CSpleas1_RW	acq4567_RW	6	14	400	1	300	300	409	50	0	1	1	blank2r.bmp	0	1	+	0	1	blank2r.bmp	492	1	JXXJ	492	1	blank2r.bmp	572	1	spielen	866	1	!	1239	1	!	1306	0	0	0	0	0	0	0	0	0	0	0	0	0	0	0	0	0	0	0	0	0	0	0	0	0	0	0	0	0	0
070319	16:55:12	17:06:54	702292	5.0.10.0	5_exp_RW	19	Rpleas_acq	CS_B	JXXJ	YDDY	MQQM	BZZB	GWWG	VKKV	spielen	retten	fair	treu	schön	ehrlich	strafen	rächen	faul	tot	schlecht	eitel	1	acq_USunple_CSunple1_RW	acq4567_RW	6	15	400	1	300	300	402	46	0	1	1	blank2r.bmp	0	1	+	0	1	blank2r.bmp	492	1	MQQM	492	1	blank2r.bmp	572	3	faul	866	1	!	1239	1	!	1306	0	0	0	0	0	0	0	0	0	0	0	0	0	0	0	0	0	0	0	0	0	0	0	0	0	0	0	0	0	0
070319	16:55:12	17:06:56	704345	5.0.10.0	5_exp_RW	19	Rpleas_acq	CS_B	JXXJ	YDDY	MQQM	BZZB	GWWG	VKKV	spielen	retten	fair	treu	schön	ehrlich	strafen	rächen	faul	tot	schlecht	eitel	1	acq_USpleas_CSpleas2_RW	acq4567_RW	6	16	400	0	300	300	289	50	0	1	1	blank2r.bmp	0	1	+	0	1	blank2r.bmp	492	1	YDDY	492	1	blank2r.bmp	572	1	treu	866	1	!	-1	1	!	-1	0	0	0	0	0	0	0	0	0	0	0	0	0	0	0	0	0	0	0	0	0	0	0	0	0	0	0	0	0	0
070319	16:55:12	17:06:59	706610	5.0.10.0	5_exp_RW	19	Rpleas_acq	CS_B	JXXJ	YDDY	MQQM	BZZB	GWWG	VKKV	spielen	retten	fair	treu	schön	ehrlich	strafen	rächen	faul	tot	schlecht	eitel	1	acq_USunple_CSunple2_RW	acq4567_RW	6	17	400	0	300	300	479	46	0	1	1	blank2r.bmp	0	1	+	0	1	blank2r.bmp	492	1	BZZB	492	1	blank2r.bmp	572	3	eitel	866	1	!	1239	1	!	-1	0	0	0	0	0	0	0	0	0	0	0	0	0	0	0	0	0	0	0	0	0	0	0	0	0	0	0	0	0	0
070319	16:55:12	17:07:01	708716	5.0.10.0	5_exp_RW	19	Rpleas_acq	CS_B	JXXJ	YDDY	MQQM	BZZB	GWWG	VKKV	spielen	retten	fair	treu	schön	ehrlich	strafen	rächen	faul	tot	schlecht	eitel	1	acq_USpleas_CSpleas1_RW	acq4567_RW	6	18	400	0	300	300	331	50	0	1	1	blank2r.bmp	0	1	+	0	1	blank2r.bmp	492	1	JXXJ	492	1	blank2r.bmp	572	2	retten	866	1	!	-1	1	!	-1	0	0	0	0	0	0	0	0	0	0	0	0	0	0	0	0	0	0	0	0	0	0	0	0	0	0	0	0	0	0
070319	16:55:12	17:07:03	710875	5.0.10.0	5_exp_RW	19	Rpleas_acq	CS_B	JXXJ	YDDY	MQQM	BZZB	GWWG	VKKV	spielen	retten	fair	treu	schön	ehrlich	strafen	rächen	faul	tot	schlecht	eitel	1	acq_USpleas_CSpleas2_RW	acq4567_RW	6	19	400	1	300	300	355	46	0	0	1	blank2r.bmp	0	1	+	0	1	blank2r.bmp	492	1	YDDY	492	1	blank2r.bmp	572	3	ehrlich	866	1	!	1239	1	!	1252	0	0	0	0	0	0	0	0	0	0	0	0	0	0	0	0	0	0	0	0	0	0	0	0	0	0	0	0	0	0
070319	16:55:12	17:07:05	713034	5.0.10.0	5_exp_RW	19	Rpleas_acq	CS_B	JXXJ	YDDY	MQQM	BZZB	GWWG	VKKV	spielen	retten	fair	treu	schön	ehrlich	strafen	rächen	faul	tot	schlecht	eitel	1	acq_USunple_CSunple1_RW	acq4567_RW	6	20	400	1	300	300	346	46	0	1	1	blank2r.bmp	0	1	+	0	1	blank2r.bmp	492	1	MQQM	492	1	blank2r.bmp	572	3	faul	866	1	!	1239	1	!	1252	0	0	0	0	0	0	0	0	0	0	0	0	0	0	0	0	0	0	0	0	0	0	0	0	0	0	0	0	0	0
