date	time	script.currenttime	script.elapsedtime	build	script.currentexpt	subject	expressions.LRpleas_acq	expressions.conditionCS_A	expressions.CSpleas_1	expressions.CSpleas_2	expressions.CSunple_1	expressions.CSunple_2	expressions.distractor_1	expressions.distractor_2	expressions.US_pleas1	expressions.US_pleas2	expressions.US_pleas3	expressions.US_pleas4	expressions.US_pleas5	expressions.US_pleas6	expressions.US_unple1	expressions.US_unple2	expressions.US_unple3	expressions.US_unple4	expressions.US_unple5	expressions.US_unple6	counter.positions_noRW	trialcode	blockcode	blocknum	trialnum	windowcenter	inwindow	pretrialpause	posttrialpause	latency	response	expressions.correctedscore	correct	stimulusnumber1	stimulusitem1	stimulusonset1	stimulusnumber2	stimulusitem2	stimulusonset2	stimulusnumber3	stimulusitem3	stimulusonset3	stimulusnumber4	stimulusitem4	stimulusonset4	stimulusnumber5	stimulusitem5	stimulusonset5	stimulusnumber6	stimulusitem6	stimulusonset6	stimulusnumber7	stimulusitem7	stimulusonset7	stimulusnumber8	stimulusitem8	stimulusonset8	stimulusnumber9	stimulusitem9	stimulusonset9	stimulusnumber10	stimulusitem10	stimulusonset10	stimulusnumber11	stimulusitem11	stimulusonset11	stimulusnumber12	stimulusitem12	stimulusonset12	stimulusnumber13	stimulusitem13	stimulusonset13	stimulusnumber14	stimulusitem14	stimulusonset14	stimulusnumber15	stimulusitem15	stimulusonset15	stimulusnumber16	stimulusitem16	stimulusonset16	stimulusnumber17	stimulusitem17	stimulusonset17	stimulusnumber18	stimulusitem18	stimulusonset18
082119	16:49:55	16:50:56	60135	5.0.10.0	5_exp_RW	111	Rpleas_acq	CS_A	JQQJ	CPPC	DXXD	LWWL	YFFY	ZHHZ	gütig	vertrauen	träumen	sonnig	genießen	küssen	gierig	versagen	töten	sterben	gemein	krank	1	acq_USpleas_CSpleas1_RW	acq1_RW	1	1	0	0	300	300	1854	50	0	1	1	blank2r.bmp	0	1	+	0	1	blank2r.bmp	492	1	JQQJ	492	1	blank2r.bmp	572	2	vertrauen	866	0	0	0	0	0	0	0	0	0	0	0	0	0	0	0	0	0	0	0	0	0	0	0	0	0	0	0	0	0	0	0	0	0	0	0	0
082119	16:49:55	16:50:58	62334	5.0.10.0	5_exp_RW	111	Rpleas_acq	CS_A	JQQJ	CPPC	DXXD	LWWL	YFFY	ZHHZ	gütig	vertrauen	träumen	sonnig	genießen	küssen	gierig	versagen	töten	sterben	gemein	krank	1	acq_USpleas_CSpleas2_RW	acq1_RW	1	2	0	0	300	300	717	50	0	1	1	blank2r.bmp	0	1	+	0	1	blank2r.bmp	492	1	CPPC	492	1	blank2r.bmp	572	1	sonnig	866	0	0	0	0	0	0	0	0	0	0	0	0	0	0	0	0	0	0	0	0	0	0	0	0	0	0	0	0	0	0	0	0	0	0	0	0
082119	16:49:55	16:51:00	64839	5.0.10.0	5_exp_RW	111	Rpleas_acq	CS_A	JQQJ	CPPC	DXXD	LWWL	YFFY	ZHHZ	gütig	vertrauen	träumen	sonnig	genießen	küssen	gierig	versagen	töten	sterben	gemein	krank	1	acq_USpleas_CSpleas1_RW	acq1_RW	1	3	0	0	300	300	1022	50	0	1	1	blank2r.bmp	0	1	+	0	1	blank2r.bmp	492	1	JQQJ	492	1	blank2r.bmp	572	3	träumen	866	0	0	0	0	0	0	0	0	0	0	0	0	0	0	0	0	0	0	0	0	0	0	0	0	0	0	0	0	0	0	0	0	0	0	0	0
082119	16:49:55	16:51:03	66959	5.0.10.0	5_exp_RW	111	Rpleas_acq	CS_A	JQQJ	CPPC	DXXD	LWWL	YFFY	ZHHZ	gütig	vertrauen	träumen	sonnig	genießen	küssen	gierig	versagen	töten	sterben	gemein	krank	1	acq_USpleas_CSpleas2_RW	acq1_RW	1	4	0	0	300	300	635	50	0	1	1	blank2r.bmp	0	1	+	0	1	blank2r.bmp	492	1	CPPC	492	1	blank2r.bmp	572	2	genießen	866	0	0	0	0	0	0	0	0	0	0	0	0	0	0	0	0	0	0	0	0	0	0	0	0	0	0	0	0	0	0	0	0	0	0	0	0
082119	16:49:55	16:51:04	68918	5.0.10.0	5_exp_RW	111	Rpleas_acq	CS_A	JQQJ	CPPC	DXXD	LWWL	YFFY	ZHHZ	gütig	vertrauen	träumen	sonnig	genießen	küssen	gierig	versagen	töten	sterben	gemein	krank	1	acq_USpleas_CSpleas2_RW	acq1_RW	1	5	0	0	300	300	477	50	0	1	1	blank2r.bmp	0	1	+	0	1	blank2r.bmp	492	1	CPPC	492	1	blank2r.bmp	572	3	küssen	866	0	0	0	0	0	0	0	0	0	0	0	0	0	0	0	0	0	0	0	0	0	0	0	0	0	0	0	0	0	0	0	0	0	0	0	0
082119	16:49:55	16:51:07	70957	5.0.10.0	5_exp_RW	111	Rpleas_acq	CS_A	JQQJ	CPPC	DXXD	LWWL	YFFY	ZHHZ	gütig	vertrauen	träumen	sonnig	genießen	küssen	gierig	versagen	töten	sterben	gemein	krank	1	acq_USunple_CSunple2_RW	acq1_RW	1	6	0	0	300	300	547	46	0	1	1	blank2r.bmp	0	1	+	0	1	blank2r.bmp	492	1	LWWL	492	1	blank2r.bmp	572	2	gemein	866	0	0	0	0	0	0	0	0	0	0	0	0	0	0	0	0	0	0	0	0	0	0	0	0	0	0	0	0	0	0	0	0	0	0	0	0
082119	16:49:55	16:51:08	72876	5.0.10.0	5_exp_RW	111	Rpleas_acq	CS_A	JQQJ	CPPC	DXXD	LWWL	YFFY	ZHHZ	gütig	vertrauen	träumen	sonnig	genießen	küssen	gierig	versagen	töten	sterben	gemein	krank	1	acq_USunple_CSunple2_RW	acq1_RW	1	7	0	0	300	300	442	46	0	1	1	blank2r.bmp	0	1	+	0	1	blank2r.bmp	492	1	LWWL	492	1	blank2r.bmp	572	1	sterben	866	0	0	0	0	0	0	0	0	0	0	0	0	0	0	0	0	0	0	0	0	0	0	0	0	0	0	0	0	0	0	0	0	0	0	0	0
082119	16:49:55	16:51:10	74835	5.0.10.0	5_exp_RW	111	Rpleas_acq	CS_A	JQQJ	CPPC	DXXD	LWWL	YFFY	ZHHZ	gütig	vertrauen	träumen	sonnig	genießen	küssen	gierig	versagen	töten	sterben	gemein	krank	1	acq_USunple_CSunple1_RW	acq1_RW	1	8	0	0	300	300	465	46	0	1	1	blank2r.bmp	0	1	+	0	1	blank2r.bmp	492	1	DXXD	492	1	blank2r.bmp	572	1	gierig	866	0	0	0	0	0	0	0	0	0	0	0	0	0	0	0	0	0	0	0	0	0	0	0	0	0	0	0	0	0	0	0	0	0	0	0	0
082119	16:49:55	16:51:12	76661	5.0.10.0	5_exp_RW	111	Rpleas_acq	CS_A	JQQJ	CPPC	DXXD	LWWL	YFFY	ZHHZ	gütig	vertrauen	träumen	sonnig	genießen	küssen	gierig	versagen	töten	sterben	gemein	krank	1	acq_USunple_CSunple2_RW	acq1_RW	1	9	0	0	300	300	354	46	0	1	1	blank2r.bmp	0	1	+	0	1	blank2r.bmp	492	1	LWWL	492	1	blank2r.bmp	572	3	krank	866	0	0	0	0	0	0	0	0	0	0	0	0	0	0	0	0	0	0	0	0	0	0	0	0	0	0	0	0	0	0	0	0	0	0	0	0
082119	16:49:55	16:51:14	78700	5.0.10.0	5_exp_RW	111	Rpleas_acq	CS_A	JQQJ	CPPC	DXXD	LWWL	YFFY	ZHHZ	gütig	vertrauen	träumen	sonnig	genießen	küssen	gierig	versagen	töten	sterben	gemein	krank	1	acq_USunple_CSunple2_RW	acq1_RW	1	10	0	0	300	300	551	46	0	1	1	blank2r.bmp	0	1	+	0	1	blank2r.bmp	492	1	LWWL	492	1	blank2r.bmp	572	2	gemein	866	0	0	0	0	0	0	0	0	0	0	0	0	0	0	0	0	0	0	0	0	0	0	0	0	0	0	0	0	0	0	0	0	0	0	0	0
082119	16:49:55	16:51:16	80540	5.0.10.0	5_exp_RW	111	Rpleas_acq	CS_A	JQQJ	CPPC	DXXD	LWWL	YFFY	ZHHZ	gütig	vertrauen	träumen	sonnig	genießen	küssen	gierig	versagen	töten	sterben	gemein	krank	1	acq_USunple_CSunple1_RW	acq1_RW	1	11	0	0	300	300	359	46	0	1	1	blank2r.bmp	0	1	+	0	1	blank2r.bmp	492	1	DXXD	492	1	blank2r.bmp	572	3	töten	866	0	0	0	0	0	0	0	0	0	0	0	0	0	0	0	0	0	0	0	0	0	0	0	0	0	0	0	0	0	0	0	0	0	0	0	0
082119	16:49:55	16:51:18	82565	5.0.10.0	5_exp_RW	111	Rpleas_acq	CS_A	JQQJ	CPPC	DXXD	LWWL	YFFY	ZHHZ	gütig	vertrauen	träumen	sonnig	genießen	küssen	gierig	versagen	töten	sterben	gemein	krank	1	acq_USpleas_CSpleas1_RW	acq1_RW	1	12	0	0	300	300	325	46	0	0	1	blank2r.bmp	0	1	+	0	1	blank2r.bmp	492	1	JQQJ	492	1	blank2r.bmp	572	1	gütig	866	1	FEHLER	1226	0	0	0	0	0	0	0	0	0	0	0	0	0	0	0	0	0	0	0	0	0	0	0	0	0	0	0	0	0	0	0	0	0
082119	16:49:55	16:51:20	84258	5.0.10.0	5_exp_RW	111	Rpleas_acq	CS_A	JQQJ	CPPC	DXXD	LWWL	YFFY	ZHHZ	gütig	vertrauen	träumen	sonnig	genießen	küssen	gierig	versagen	töten	sterben	gemein	krank	1	acq_USpleas_CSpleas2_RW	acq1_RW	1	13	0	0	300	300	425	50	0	1	1	blank2r.bmp	0	1	+	0	1	blank2r.bmp	492	1	CPPC	492	1	blank2r.bmp	572	3	küssen	866	0	0	0	0	0	0	0	0	0	0	0	0	0	0	0	0	0	0	0	0	0	0	0	0	0	0	0	0	0	0	0	0	0	0	0	0
082119	16:49:55	16:51:22	86297	5.0.10.0	5_exp_RW	111	Rpleas_acq	CS_A	JQQJ	CPPC	DXXD	LWWL	YFFY	ZHHZ	gütig	vertrauen	träumen	sonnig	genießen	küssen	gierig	versagen	töten	sterben	gemein	krank	1	acq_USunple_CSunple1_RW	acq1_RW	1	14	0	0	300	300	566	46	0	1	1	blank2r.bmp	0	1	+	0	1	blank2r.bmp	492	1	DXXD	492	1	blank2r.bmp	572	2	versagen	866	0	0	0	0	0	0	0	0	0	0	0	0	0	0	0	0	0	0	0	0	0	0	0	0	0	0	0	0	0	0	0	0	0	0	0	0
082119	16:49:55	16:51:24	88283	5.0.10.0	5_exp_RW	111	Rpleas_acq	CS_A	JQQJ	CPPC	DXXD	LWWL	YFFY	ZHHZ	gütig	vertrauen	träumen	sonnig	genießen	küssen	gierig	versagen	töten	sterben	gemein	krank	1	acq_USpleas_CSpleas1_RW	acq1_RW	1	15	0	0	300	300	508	50	0	1	1	blank2r.bmp	0	1	+	0	1	blank2r.bmp	492	1	JQQJ	492	1	blank2r.bmp	572	2	vertrauen	866	0	0	0	0	0	0	0	0	0	0	0	0	0	0	0	0	0	0	0	0	0	0	0	0	0	0	0	0	0	0	0	0	0	0	0	0
082119	16:49:55	16:51:26	90109	5.0.10.0	5_exp_RW	111	Rpleas_acq	CS_A	JQQJ	CPPC	DXXD	LWWL	YFFY	ZHHZ	gütig	vertrauen	träumen	sonnig	genießen	küssen	gierig	versagen	töten	sterben	gemein	krank	1	acq_USunple_CSunple1_RW	acq1_RW	1	16	0	0	300	300	354	46	0	1	1	blank2r.bmp	0	1	+	0	1	blank2r.bmp	492	1	DXXD	492	1	blank2r.bmp	572	3	töten	866	0	0	0	0	0	0	0	0	0	0	0	0	0	0	0	0	0	0	0	0	0	0	0	0	0	0	0	0	0	0	0	0	0	0	0	0
082119	16:49:55	16:51:53	117618	5.0.10.0	5_exp_RW	111	Rpleas_acq	CS_A	JQQJ	CPPC	DXXD	LWWL	YFFY	ZHHZ	gütig	vertrauen	träumen	sonnig	genießen	küssen	gierig	versagen	töten	sterben	gemein	krank	1	acq_USunple_CSunple2_RW	acq2_RW	2	1	480	0	300	300	907	46	0	1	1	blank2r.bmp	0	1	+	0	1	blank2r.bmp	492	1	LWWL	492	1	blank2r.bmp	572	3	krank	866	1	!	1319	1	!	-1	0	0	0	0	0	0	0	0	0	0	0	0	0	0	0	0	0	0	0	0	0	0	0	0	0	0	0	0	0	0
082119	16:49:55	16:51:55	119577	5.0.10.0	5_exp_RW	111	Rpleas_acq	CS_A	JQQJ	CPPC	DXXD	LWWL	YFFY	ZHHZ	gütig	vertrauen	träumen	sonnig	genießen	küssen	gierig	versagen	töten	sterben	gemein	krank	1	acq_USunple_CSunple2_RW	acq2_RW	2	2	480	0	300	300	172	46	0	1	1	blank2r.bmp	0	1	+	0	1	blank2r.bmp	492	1	LWWL	492	1	blank2r.bmp	572	1	sterben	866	1	!	-1	1	!	-1	0	0	0	0	0	0	0	0	0	0	0	0	0	0	0	0	0	0	0	0	0	0	0	0	0	0	0	0	0	0
082119	16:49:55	16:51:57	121656	5.0.10.0	5_exp_RW	111	Rpleas_acq	CS_A	JQQJ	CPPC	DXXD	LWWL	YFFY	ZHHZ	gütig	vertrauen	träumen	sonnig	genießen	küssen	gierig	versagen	töten	sterben	gemein	krank	1	acq_USpleas_CSpleas1_RW	acq2_RW	2	3	480	0	300	300	292	50	0	1	1	blank2r.bmp	0	1	+	0	1	blank2r.bmp	492	1	JQQJ	492	1	blank2r.bmp	572	3	träumen	866	1	!	-1	1	!	-1	0	0	0	0	0	0	0	0	0	0	0	0	0	0	0	0	0	0	0	0	0	0	0	0	0	0	0	0	0	0
082119	16:49:55	16:52:00	124082	5.0.10.0	5_exp_RW	111	Rpleas_acq	CS_A	JQQJ	CPPC	DXXD	LWWL	YFFY	ZHHZ	gütig	vertrauen	träumen	sonnig	genießen	küssen	gierig	versagen	töten	sterben	gemein	krank	1	acq_USpleas_CSpleas2_RW	acq2_RW	2	4	480	0	300	300	644	50	0	1	1	blank2r.bmp	0	1	+	0	1	blank2r.bmp	492	1	CPPC	492	1	blank2r.bmp	572	1	sonnig	866	1	!	1319	1	!	-1	0	0	0	0	0	0	0	0	0	0	0	0	0	0	0	0	0	0	0	0	0	0	0	0	0	0	0	0	0	0
082119	16:49:55	16:52:02	126254	5.0.10.0	5_exp_RW	111	Rpleas_acq	CS_A	JQQJ	CPPC	DXXD	LWWL	YFFY	ZHHZ	gütig	vertrauen	träumen	sonnig	genießen	küssen	gierig	versagen	töten	sterben	gemein	krank	1	acq_USunple_CSunple1_RW	acq2_RW	2	5	480	0	300	300	385	46	0	1	1	blank2r.bmp	0	1	+	0	1	blank2r.bmp	492	1	DXXD	492	1	blank2r.bmp	572	2	versagen	866	1	!	-1	1	!	-1	0	0	0	0	0	0	0	0	0	0	0	0	0	0	0	0	0	0	0	0	0	0	0	0	0	0	0	0	0	0
082119	16:49:55	16:52:04	128680	5.0.10.0	5_exp_RW	111	Rpleas_acq	CS_A	JQQJ	CPPC	DXXD	LWWL	YFFY	ZHHZ	gütig	vertrauen	träumen	sonnig	genießen	küssen	gierig	versagen	töten	sterben	gemein	krank	1	acq_USunple_CSunple1_RW	acq2_RW	2	6	480	0	300	300	641	46	0	1	1	blank2r.bmp	0	1	+	0	1	blank2r.bmp	492	1	DXXD	492	1	blank2r.bmp	572	1	gierig	866	1	!	1319	1	!	-1	0	0	0	0	0	0	0	0	0	0	0	0	0	0	0	0	0	0	0	0	0	0	0	0	0	0	0	0	0	0
082119	16:49:55	16:52:07	131079	5.0.10.0	5_exp_RW	111	Rpleas_acq	CS_A	JQQJ	CPPC	DXXD	LWWL	YFFY	ZHHZ	gütig	vertrauen	träumen	sonnig	genießen	küssen	gierig	versagen	töten	sterben	gemein	krank	1	acq_USpleas_CSpleas2_RW	acq2_RW	2	7	480	0	300	300	618	50	0	1	1	blank2r.bmp	0	1	+	0	1	blank2r.bmp	492	1	CPPC	492	1	blank2r.bmp	572	2	genießen	866	1	!	1319	1	!	-1	0	0	0	0	0	0	0	0	0	0	0	0	0	0	0	0	0	0	0	0	0	0	0	0	0	0	0	0	0	0
082119	16:49:55	16:52:09	133678	5.0.10.0	5_exp_RW	111	Rpleas_acq	CS_A	JQQJ	CPPC	DXXD	LWWL	YFFY	ZHHZ	gütig	vertrauen	träumen	sonnig	genießen	küssen	gierig	versagen	töten	sterben	gemein	krank	1	acq_USpleas_CSpleas1_RW	acq2_RW	2	8	480	0	300	300	592	46	0	0	1	blank2r.bmp	0	1	+	0	1	blank2r.bmp	492	1	JQQJ	492	1	blank2r.bmp	572	1	gütig	866	1	FEHLER	1799	1	!	1319	1	!	-1	0	0	0	0	0	0	0	0	0	0	0	0	0	0	0	0	0	0	0	0	0	0	0	0	0	0	0
082119	16:49:55	16:52:11	135784	5.0.10.0	5_exp_RW	111	Rpleas_acq	CS_A	JQQJ	CPPC	DXXD	LWWL	YFFY	ZHHZ	gütig	vertrauen	träumen	sonnig	genießen	küssen	gierig	versagen	töten	sterben	gemein	krank	1	acq_USunple_CSunple2_RW	acq2_RW	2	9	480	1	300	300	527	46	0	1	1	blank2r.bmp	0	1	+	0	1	blank2r.bmp	492	1	LWWL	492	1	blank2r.bmp	572	2	gemein	866	1	!	1319	1	!	1426	0	0	0	0	0	0	0	0	0	0	0	0	0	0	0	0	0	0	0	0	0	0	0	0	0	0	0	0	0	0
082119	16:49:55	16:52:14	138129	5.0.10.0	5_exp_RW	111	Rpleas_acq	CS_A	JQQJ	CPPC	DXXD	LWWL	YFFY	ZHHZ	gütig	vertrauen	träumen	sonnig	genießen	küssen	gierig	versagen	töten	sterben	gemein	krank	1	acq_USpleas_CSpleas2_RW	acq2_RW	2	10	480	0	300	300	356	46	0	0	1	blank2r.bmp	0	1	+	0	1	blank2r.bmp	492	1	CPPC	492	1	blank2r.bmp	572	1	sonnig	866	1	FEHLER	1559	1	!	-1	1	!	-1	0	0	0	0	0	0	0	0	0	0	0	0	0	0	0	0	0	0	0	0	0	0	0	0	0	0	0
082119	16:49:55	16:52:16	140169	5.0.10.0	5_exp_RW	111	Rpleas_acq	CS_A	JQQJ	CPPC	DXXD	LWWL	YFFY	ZHHZ	gütig	vertrauen	träumen	sonnig	genießen	küssen	gierig	versagen	töten	sterben	gemein	krank	1	acq_USunple_CSunple2_RW	acq2_RW	2	11	480	1	300	300	448	46	0	1	1	blank2r.bmp	0	1	+	0	1	blank2r.bmp	492	1	LWWL	492	1	blank2r.bmp	572	1	sterben	866	1	!	1319	1	!	1346	0	0	0	0	0	0	0	0	0	0	0	0	0	0	0	0	0	0	0	0	0	0	0	0	0	0	0	0	0	0
082119	16:49:55	16:52:18	142568	5.0.10.0	5_exp_RW	111	Rpleas_acq	CS_A	JQQJ	CPPC	DXXD	LWWL	YFFY	ZHHZ	gütig	vertrauen	träumen	sonnig	genießen	küssen	gierig	versagen	töten	sterben	gemein	krank	1	acq_USunple_CSunple1_RW	acq2_RW	2	12	480	0	300	300	403	50	0	0	1	blank2r.bmp	0	1	+	0	1	blank2r.bmp	492	1	DXXD	492	1	blank2r.bmp	572	3	töten	866	1	FEHLER	1612	1	!	-1	1	!	-1	0	0	0	0	0	0	0	0	0	0	0	0	0	0	0	0	0	0	0	0	0	0	0	0	0	0	0
082119	16:49:55	16:52:20	144727	5.0.10.0	5_exp_RW	111	Rpleas_acq	CS_A	JQQJ	CPPC	DXXD	LWWL	YFFY	ZHHZ	gütig	vertrauen	träumen	sonnig	genießen	küssen	gierig	versagen	töten	sterben	gemein	krank	1	acq_USpleas_CSpleas1_RW	acq2_RW	2	13	480	0	300	300	374	46	0	0	1	blank2r.bmp	0	1	+	0	1	blank2r.bmp	492	1	JQQJ	492	1	blank2r.bmp	572	1	gütig	866	1	FEHLER	1586	1	!	-1	1	!	-1	0	0	0	0	0	0	0	0	0	0	0	0	0	0	0	0	0	0	0	0	0	0	0	0	0	0	0
082119	16:49:55	16:52:22	146846	5.0.10.0	5_exp_RW	111	Rpleas_acq	CS_A	JQQJ	CPPC	DXXD	LWWL	YFFY	ZHHZ	gütig	vertrauen	träumen	sonnig	genießen	küssen	gierig	versagen	töten	sterben	gemein	krank	1	acq_USunple_CSunple1_RW	acq2_RW	2	14	480	1	300	300	524	46	0	1	1	blank2r.bmp	0	1	+	0	1	blank2r.bmp	492	1	DXXD	492	1	blank2r.bmp	572	1	gierig	866	1	!	1319	1	!	1426	0	0	0	0	0	0	0	0	0	0	0	0	0	0	0	0	0	0	0	0	0	0	0	0	0	0	0	0	0	0
082119	16:49:55	16:52:25	149085	5.0.10.0	5_exp_RW	111	Rpleas_acq	CS_A	JQQJ	CPPC	DXXD	LWWL	YFFY	ZHHZ	gütig	vertrauen	träumen	sonnig	genießen	küssen	gierig	versagen	töten	sterben	gemein	krank	1	acq_USpleas_CSpleas2_RW	acq2_RW	2	15	480	1	300	300	441	50	0	1	1	blank2r.bmp	0	1	+	0	1	blank2r.bmp	492	1	CPPC	492	1	blank2r.bmp	572	3	küssen	866	1	!	1319	1	!	1346	0	0	0	0	0	0	0	0	0	0	0	0	0	0	0	0	0	0	0	0	0	0	0	0	0	0	0	0	0	0
082119	16:49:55	16:52:27	151337	5.0.10.0	5_exp_RW	111	Rpleas_acq	CS_A	JQQJ	CPPC	DXXD	LWWL	YFFY	ZHHZ	gütig	vertrauen	träumen	sonnig	genießen	küssen	gierig	versagen	töten	sterben	gemein	krank	1	acq_USpleas_CSpleas2_RW	acq2_RW	2	16	480	1	300	300	446	50	0	1	1	blank2r.bmp	0	1	+	0	1	blank2r.bmp	492	1	CPPC	492	1	blank2r.bmp	572	2	genießen	866	1	!	1319	1	!	1346	0	0	0	0	0	0	0	0	0	0	0	0	0	0	0	0	0	0	0	0	0	0	0	0	0	0	0	0	0	0
082119	16:49:55	16:52:29	153416	5.0.10.0	5_exp_RW	111	Rpleas_acq	CS_A	JQQJ	CPPC	DXXD	LWWL	YFFY	ZHHZ	gütig	vertrauen	träumen	sonnig	genießen	küssen	gierig	versagen	töten	sterben	gemein	krank	1	acq_USunple_CSunple2_RW	acq2_RW	2	17	480	0	300	300	308	46	0	1	1	blank2r.bmp	0	1	+	0	1	blank2r.bmp	492	1	LWWL	492	1	blank2r.bmp	572	3	krank	866	1	!	-1	1	!	-1	0	0	0	0	0	0	0	0	0	0	0	0	0	0	0	0	0	0	0	0	0	0	0	0	0	0	0	0	0	0
082119	16:49:55	16:52:31	155749	5.0.10.0	5_exp_RW	111	Rpleas_acq	CS_A	JQQJ	CPPC	DXXD	LWWL	YFFY	ZHHZ	gütig	vertrauen	träumen	sonnig	genießen	küssen	gierig	versagen	töten	sterben	gemein	krank	1	acq_USpleas_CSpleas1_RW	acq2_RW	2	18	480	0	300	300	331	46	0	0	1	blank2r.bmp	0	1	+	0	1	blank2r.bmp	492	1	JQQJ	492	1	blank2r.bmp	572	2	vertrauen	866	1	FEHLER	1532	1	!	-1	1	!	-1	0	0	0	0	0	0	0	0	0	0	0	0	0	0	0	0	0	0	0	0	0	0	0	0	0	0	0
082119	16:49:55	16:52:33	157881	5.0.10.0	5_exp_RW	111	Rpleas_acq	CS_A	JQQJ	CPPC	DXXD	LWWL	YFFY	ZHHZ	gütig	vertrauen	träumen	sonnig	genießen	küssen	gierig	versagen	töten	sterben	gemein	krank	1	acq_USunple_CSunple2_RW	acq2_RW	2	19	480	0	300	300	576	46	0	1	1	blank2r.bmp	0	1	+	0	1	blank2r.bmp	492	1	LWWL	492	1	blank2r.bmp	572	2	gemein	866	1	!	1319	1	!	-1	0	0	0	0	0	0	0	0	0	0	0	0	0	0	0	0	0	0	0	0	0	0	0	0	0	0	0	0	0	0
082119	16:49:55	16:52:36	160000	5.0.10.0	5_exp_RW	111	Rpleas_acq	CS_A	JQQJ	CPPC	DXXD	LWWL	YFFY	ZHHZ	gütig	vertrauen	träumen	sonnig	genießen	küssen	gierig	versagen	töten	sterben	gemein	krank	1	acq_USpleas_CSpleas1_RW	acq2_RW	2	20	480	0	300	300	342	50	0	1	1	blank2r.bmp	0	1	+	0	1	blank2r.bmp	492	1	JQQJ	492	1	blank2r.bmp	572	3	träumen	866	1	!	-1	1	!	-1	0	0	0	0	0	0	0	0	0	0	0	0	0	0	0	0	0	0	0	0	0	0	0	0	0	0	0	0	0	0
082119	16:49:55	16:52:38	162506	5.0.10.0	5_exp_RW	111	Rpleas_acq	CS_A	JQQJ	CPPC	DXXD	LWWL	YFFY	ZHHZ	gütig	vertrauen	träumen	sonnig	genießen	küssen	gierig	versagen	töten	sterben	gemein	krank	1	acq_USpleas_CSpleas1_RW	acq2_RW	2	21	480	1	300	300	487	46	0	0	1	blank2r.bmp	0	1	+	0	1	blank2r.bmp	492	1	JQQJ	492	1	blank2r.bmp	572	2	vertrauen	866	1	FEHLER	1705	1	!	1319	1	!	1386	0	0	0	0	0	0	0	0	0	0	0	0	0	0	0	0	0	0	0	0	0	0	0	0	0	0	0
082119	16:49:55	16:52:40	164625	5.0.10.0	5_exp_RW	111	Rpleas_acq	CS_A	JQQJ	CPPC	DXXD	LWWL	YFFY	ZHHZ	gütig	vertrauen	träumen	sonnig	genießen	küssen	gierig	versagen	töten	sterben	gemein	krank	1	acq_USunple_CSunple1_RW	acq2_RW	2	22	480	1	300	300	533	46	0	1	1	blank2r.bmp	0	1	+	0	1	blank2r.bmp	492	1	DXXD	492	1	blank2r.bmp	572	2	versagen	866	1	!	1319	1	!	1439	0	0	0	0	0	0	0	0	0	0	0	0	0	0	0	0	0	0	0	0	0	0	0	0	0	0	0	0	0	0
082119	16:49:55	16:52:42	166904	5.0.10.0	5_exp_RW	111	Rpleas_acq	CS_A	JQQJ	CPPC	DXXD	LWWL	YFFY	ZHHZ	gütig	vertrauen	träumen	sonnig	genießen	küssen	gierig	versagen	töten	sterben	gemein	krank	1	acq_USpleas_CSpleas2_RW	acq2_RW	2	23	480	1	300	300	480	50	0	1	1	blank2r.bmp	0	1	+	0	1	blank2r.bmp	492	1	CPPC	492	1	blank2r.bmp	572	1	sonnig	866	1	!	1319	1	!	1386	0	0	0	0	0	0	0	0	0	0	0	0	0	0	0	0	0	0	0	0	0	0	0	0	0	0	0	0	0	0
082119	16:49:55	16:52:45	169130	5.0.10.0	5_exp_RW	111	Rpleas_acq	CS_A	JQQJ	CPPC	DXXD	LWWL	YFFY	ZHHZ	gütig	vertrauen	träumen	sonnig	genießen	küssen	gierig	versagen	töten	sterben	gemein	krank	1	acq_USunple_CSunple1_RW	acq2_RW	2	24	480	1	300	300	437	46	0	1	1	blank2r.bmp	0	1	+	0	1	blank2r.bmp	492	1	DXXD	492	1	blank2r.bmp	572	3	töten	866	1	!	1319	1	!	1332	0	0	0	0	0	0	0	0	0	0	0	0	0	0	0	0	0	0	0	0	0	0	0	0	0	0	0	0	0	0
082119	16:49:55	16:52:54	178753	5.0.10.0	5_exp_RW	111	Rpleas_acq	CS_A	JQQJ	CPPC	DXXD	LWWL	YFFY	ZHHZ	gütig	vertrauen	träumen	sonnig	genießen	küssen	gierig	versagen	töten	sterben	gemein	krank	1	acq_USunple_CSunple2_RW	acq3_RW	3	1	453	1	300	300	436	46	0	1	1	blank2r.bmp	0	1	+	0	1	blank2r.bmp	492	1	LWWL	492	1	blank2r.bmp	572	1	sterben	866	1	!	1292	1	!	1332	0	0	0	0	0	0	0	0	0	0	0	0	0	0	0	0	0	0	0	0	0	0	0	0	0	0	0	0	0	0
082119	16:49:55	16:52:57	180992	5.0.10.0	5_exp_RW	111	Rpleas_acq	CS_A	JQQJ	CPPC	DXXD	LWWL	YFFY	ZHHZ	gütig	vertrauen	träumen	sonnig	genießen	küssen	gierig	versagen	töten	sterben	gemein	krank	1	acq_USpleas_CSpleas2_RW	acq3_RW	3	2	453	1	300	300	452	50	0	1	1	blank2r.bmp	0	1	+	0	1	blank2r.bmp	492	1	CPPC	492	1	blank2r.bmp	572	2	genießen	866	1	!	1292	1	!	1346	0	0	0	0	0	0	0	0	0	0	0	0	0	0	0	0	0	0	0	0	0	0	0	0	0	0	0	0	0	0
082119	16:49:55	16:52:59	183404	5.0.10.0	5_exp_RW	111	Rpleas_acq	CS_A	JQQJ	CPPC	DXXD	LWWL	YFFY	ZHHZ	gütig	vertrauen	träumen	sonnig	genießen	küssen	gierig	versagen	töten	sterben	gemein	krank	1	acq_USunple_CSunple2_RW	acq3_RW	3	3	453	1	300	300	399	50	0	0	1	blank2r.bmp	0	1	+	0	1	blank2r.bmp	492	1	LWWL	492	1	blank2r.bmp	572	3	krank	866	1	FEHLER	1625	1	!	1292	1	!	1306	0	0	0	0	0	0	0	0	0	0	0	0	0	0	0	0	0	0	0	0	0	0	0	0	0	0	0
082119	16:49:55	16:53:01	185337	5.0.10.0	5_exp_RW	111	Rpleas_acq	CS_A	JQQJ	CPPC	DXXD	LWWL	YFFY	ZHHZ	gütig	vertrauen	träumen	sonnig	genießen	küssen	gierig	versagen	töten	sterben	gemein	krank	1	acq_USpleas_CSpleas2_RW	acq3_RW	3	4	453	0	300	300	381	50	0	1	1	blank2r.bmp	0	1	+	0	1	blank2r.bmp	492	1	CPPC	492	1	blank2r.bmp	572	3	küssen	866	1	!	-1	1	!	-1	0	0	0	0	0	0	0	0	0	0	0	0	0	0	0	0	0	0	0	0	0	0	0	0	0	0	0	0	0	0
082119	16:49:55	16:53:03	187642	5.0.10.0	5_exp_RW	111	Rpleas_acq	CS_A	JQQJ	CPPC	DXXD	LWWL	YFFY	ZHHZ	gütig	vertrauen	träumen	sonnig	genießen	küssen	gierig	versagen	töten	sterben	gemein	krank	1	acq_USpleas_CSpleas2_RW	acq3_RW	3	5	453	1	300	300	494	50	0	1	1	blank2r.bmp	0	1	+	0	1	blank2r.bmp	492	1	CPPC	492	1	blank2r.bmp	572	3	küssen	866	1	!	1292	1	!	1399	0	0	0	0	0	0	0	0	0	0	0	0	0	0	0	0	0	0	0	0	0	0	0	0	0	0	0	0	0	0
082119	16:49:55	16:53:06	189961	5.0.10.0	5_exp_RW	111	Rpleas_acq	CS_A	JQQJ	CPPC	DXXD	LWWL	YFFY	ZHHZ	gütig	vertrauen	träumen	sonnig	genießen	küssen	gierig	versagen	töten	sterben	gemein	krank	1	acq_USpleas_CSpleas2_RW	acq3_RW	3	6	453	1	300	300	520	50	0	1	1	blank2r.bmp	0	1	+	0	1	blank2r.bmp	492	1	CPPC	492	1	blank2r.bmp	572	1	sonnig	866	1	!	1292	1	!	1426	0	0	0	0	0	0	0	0	0	0	0	0	0	0	0	0	0	0	0	0	0	0	0	0	0	0	0	0	0	0
082119	16:49:55	16:53:08	192414	5.0.10.0	5_exp_RW	111	Rpleas_acq	CS_A	JQQJ	CPPC	DXXD	LWWL	YFFY	ZHHZ	gütig	vertrauen	träumen	sonnig	genießen	küssen	gierig	versagen	töten	sterben	gemein	krank	1	acq_USpleas_CSpleas1_RW	acq3_RW	3	7	453	1	300	300	447	46	0	0	1	blank2r.bmp	0	1	+	0	1	blank2r.bmp	492	1	JQQJ	492	1	blank2r.bmp	572	1	gütig	866	1	FEHLER	1665	1	!	1292	1	!	1346	0	0	0	0	0	0	0	0	0	0	0	0	0	0	0	0	0	0	0	0	0	0	0	0	0	0	0
082119	16:49:55	16:53:10	194693	5.0.10.0	5_exp_RW	111	Rpleas_acq	CS_A	JQQJ	CPPC	DXXD	LWWL	YFFY	ZHHZ	gütig	vertrauen	träumen	sonnig	genießen	küssen	gierig	versagen	töten	sterben	gemein	krank	1	acq_USunple_CSunple1_RW	acq3_RW	3	8	453	1	300	300	491	50	0	0	1	blank2r.bmp	0	1	+	0	1	blank2r.bmp	492	1	DXXD	492	1	blank2r.bmp	572	1	gierig	866	1	FEHLER	1705	1	!	1292	1	!	1386	0	0	0	0	0	0	0	0	0	0	0	0	0	0	0	0	0	0	0	0	0	0	0	0	0	0	0
082119	16:49:55	16:53:12	196559	5.0.10.0	5_exp_RW	111	Rpleas_acq	CS_A	JQQJ	CPPC	DXXD	LWWL	YFFY	ZHHZ	gütig	vertrauen	träumen	sonnig	genießen	küssen	gierig	versagen	töten	sterben	gemein	krank	1	acq_USpleas_CSpleas1_RW	acq3_RW	3	9	453	0	300	300	294	50	0	1	1	blank2r.bmp	0	1	+	0	1	blank2r.bmp	492	1	JQQJ	492	1	blank2r.bmp	572	3	träumen	866	1	!	-1	1	!	-1	0	0	0	0	0	0	0	0	0	0	0	0	0	0	0	0	0	0	0	0	0	0	0	0	0	0	0	0	0	0
082119	16:49:55	16:53:15	198984	5.0.10.0	5_exp_RW	111	Rpleas_acq	CS_A	JQQJ	CPPC	DXXD	LWWL	YFFY	ZHHZ	gütig	vertrauen	träumen	sonnig	genießen	küssen	gierig	versagen	töten	sterben	gemein	krank	1	acq_USunple_CSunple2_RW	acq3_RW	3	10	453	1	300	300	399	50	0	0	1	blank2r.bmp	0	1	+	0	1	blank2r.bmp	492	1	LWWL	492	1	blank2r.bmp	572	1	sterben	866	1	FEHLER	1626	1	!	1292	1	!	1306	0	0	0	0	0	0	0	0	0	0	0	0	0	0	0	0	0	0	0	0	0	0	0	0	0	0	0
082119	16:49:55	16:53:19	203569	5.0.10.0	5_exp_RW	111	Rpleas_acq	CS_A	JQQJ	CPPC	DXXD	LWWL	YFFY	ZHHZ	gütig	vertrauen	träumen	sonnig	genießen	küssen	gierig	versagen	töten	sterben	gemein	krank	1	acq_USpleas_CSpleas1_RW	acq3_RW	3	11	453	0	300	300	3011	50	0	1	1	blank2r.bmp	0	1	+	0	1	blank2r.bmp	492	1	JQQJ	492	1	blank2r.bmp	572	3	träumen	866	1	!	1292	1	!	-1	0	0	0	0	0	0	0	0	0	0	0	0	0	0	0	0	0	0	0	0	0	0	0	0	0	0	0	0	0	0
082119	16:49:55	16:53:21	205795	5.0.10.0	5_exp_RW	111	Rpleas_acq	CS_A	JQQJ	CPPC	DXXD	LWWL	YFFY	ZHHZ	gütig	vertrauen	träumen	sonnig	genießen	küssen	gierig	versagen	töten	sterben	gemein	krank	1	acq_USunple_CSunple1_RW	acq3_RW	3	12	453	1	300	300	415	46	0	1	1	blank2r.bmp	0	1	+	0	1	blank2r.bmp	492	1	DXXD	492	1	blank2r.bmp	572	2	versagen	866	1	!	1292	1	!	1319	0	0	0	0	0	0	0	0	0	0	0	0	0	0	0	0	0	0	0	0	0	0	0	0	0	0	0	0	0	0
082119	16:49:55	16:53:24	208074	5.0.10.0	5_exp_RW	111	Rpleas_acq	CS_A	JQQJ	CPPC	DXXD	LWWL	YFFY	ZHHZ	gütig	vertrauen	träumen	sonnig	genießen	küssen	gierig	versagen	töten	sterben	gemein	krank	1	acq_USpleas_CSpleas2_RW	acq3_RW	3	13	453	1	300	300	485	50	0	1	1	blank2r.bmp	0	1	+	0	1	blank2r.bmp	492	1	CPPC	492	1	blank2r.bmp	572	2	genießen	866	1	!	1292	1	!	1386	0	0	0	0	0	0	0	0	0	0	0	0	0	0	0	0	0	0	0	0	0	0	0	0	0	0	0	0	0	0
082119	16:49:55	16:53:26	210273	5.0.10.0	5_exp_RW	111	Rpleas_acq	CS_A	JQQJ	CPPC	DXXD	LWWL	YFFY	ZHHZ	gütig	vertrauen	träumen	sonnig	genießen	küssen	gierig	versagen	töten	sterben	gemein	krank	1	acq_USunple_CSunple1_RW	acq3_RW	3	14	453	1	300	300	410	46	0	1	1	blank2r.bmp	0	1	+	0	1	blank2r.bmp	492	1	DXXD	492	1	blank2r.bmp	572	1	gierig	866	1	!	1292	1	!	1306	0	0	0	0	0	0	0	0	0	0	0	0	0	0	0	0	0	0	0	0	0	0	0	0	0	0	0	0	0	0
082119	16:49:55	16:53:28	212486	5.0.10.0	5_exp_RW	111	Rpleas_acq	CS_A	JQQJ	CPPC	DXXD	LWWL	YFFY	ZHHZ	gütig	vertrauen	träumen	sonnig	genießen	küssen	gierig	versagen	töten	sterben	gemein	krank	1	acq_USunple_CSunple1_RW	acq3_RW	3	15	453	1	300	300	417	46	0	1	1	blank2r.bmp	0	1	+	0	1	blank2r.bmp	492	1	DXXD	492	1	blank2r.bmp	572	2	versagen	866	1	!	1292	1	!	1319	0	0	0	0	0	0	0	0	0	0	0	0	0	0	0	0	0	0	0	0	0	0	0	0	0	0	0	0	0	0
082119	16:49:55	16:53:30	214685	5.0.10.0	5_exp_RW	111	Rpleas_acq	CS_A	JQQJ	CPPC	DXXD	LWWL	YFFY	ZHHZ	gütig	vertrauen	träumen	sonnig	genießen	küssen	gierig	versagen	töten	sterben	gemein	krank	1	acq_USunple_CSunple2_RW	acq3_RW	3	16	453	1	300	300	408	46	0	1	1	blank2r.bmp	0	1	+	0	1	blank2r.bmp	492	1	LWWL	492	1	blank2r.bmp	572	3	krank	866	1	!	1292	1	!	1306	0	0	0	0	0	0	0	0	0	0	0	0	0	0	0	0	0	0	0	0	0	0	0	0	0	0	0	0	0	0
082119	16:49:55	16:53:33	217150	5.0.10.0	5_exp_RW	111	Rpleas_acq	CS_A	JQQJ	CPPC	DXXD	LWWL	YFFY	ZHHZ	gütig	vertrauen	träumen	sonnig	genießen	küssen	gierig	versagen	töten	sterben	gemein	krank	1	acq_USpleas_CSpleas1_RW	acq3_RW	3	17	453	1	300	300	457	46	0	0	1	blank2r.bmp	0	1	+	0	1	blank2r.bmp	492	1	JQQJ	492	1	blank2r.bmp	572	1	gütig	866	1	FEHLER	1679	1	!	1292	1	!	1359	0	0	0	0	0	0	0	0	0	0	0	0	0	0	0	0	0	0	0	0	0	0	0	0	0	0	0
082119	16:49:55	16:53:35	219070	5.0.10.0	5_exp_RW	111	Rpleas_acq	CS_A	JQQJ	CPPC	DXXD	LWWL	YFFY	ZHHZ	gütig	vertrauen	träumen	sonnig	genießen	küssen	gierig	versagen	töten	sterben	gemein	krank	1	acq_USpleas_CSpleas2_RW	acq3_RW	3	18	453	0	300	300	362	50	0	1	1	blank2r.bmp	0	1	+	0	1	blank2r.bmp	492	1	CPPC	492	1	blank2r.bmp	572	1	sonnig	866	1	!	-1	1	!	-1	0	0	0	0	0	0	0	0	0	0	0	0	0	0	0	0	0	0	0	0	0	0	0	0	0	0	0	0	0	0
082119	16:49:55	16:53:37	221402	5.0.10.0	5_exp_RW	111	Rpleas_acq	CS_A	JQQJ	CPPC	DXXD	LWWL	YFFY	ZHHZ	gütig	vertrauen	träumen	sonnig	genießen	küssen	gierig	versagen	töten	sterben	gemein	krank	1	acq_USpleas_CSpleas1_RW	acq3_RW	3	19	453	0	300	300	324	46	0	0	1	blank2r.bmp	0	1	+	0	1	blank2r.bmp	492	1	JQQJ	492	1	blank2r.bmp	572	2	vertrauen	866	1	FEHLER	1532	1	!	-1	1	!	-1	0	0	0	0	0	0	0	0	0	0	0	0	0	0	0	0	0	0	0	0	0	0	0	0	0	0	0
082119	16:49:55	16:53:39	223388	5.0.10.0	5_exp_RW	111	Rpleas_acq	CS_A	JQQJ	CPPC	DXXD	LWWL	YFFY	ZHHZ	gütig	vertrauen	träumen	sonnig	genießen	küssen	gierig	versagen	töten	sterben	gemein	krank	1	acq_USunple_CSunple1_RW	acq3_RW	3	20	453	1	300	300	407	46	0	1	1	blank2r.bmp	0	1	+	0	1	blank2r.bmp	492	1	DXXD	492	1	blank2r.bmp	572	3	töten	866	1	!	1292	1	!	1306	0	0	0	0	0	0	0	0	0	0	0	0	0	0	0	0	0	0	0	0	0	0	0	0	0	0	0	0	0	0
082119	16:49:55	16:53:41	225547	5.0.10.0	5_exp_RW	111	Rpleas_acq	CS_A	JQQJ	CPPC	DXXD	LWWL	YFFY	ZHHZ	gütig	vertrauen	träumen	sonnig	genießen	küssen	gierig	versagen	töten	sterben	gemein	krank	1	acq_USunple_CSunple1_RW	acq3_RW	3	21	453	0	300	300	363	46	0	1	1	blank2r.bmp	0	1	+	0	1	blank2r.bmp	492	1	DXXD	492	1	blank2r.bmp	572	3	töten	866	1	!	-1	1	!	-1	0	0	0	0	0	0	0	0	0	0	0	0	0	0	0	0	0	0	0	0	0	0	0	0	0	0	0	0	0	0
082119	16:49:55	16:53:43	227906	5.0.10.0	5_exp_RW	111	Rpleas_acq	CS_A	JQQJ	CPPC	DXXD	LWWL	YFFY	ZHHZ	gütig	vertrauen	träumen	sonnig	genießen	küssen	gierig	versagen	töten	sterben	gemein	krank	1	acq_USpleas_CSpleas1_RW	acq3_RW	3	22	453	0	300	300	591	50	0	1	1	blank2r.bmp	0	1	+	0	1	blank2r.bmp	492	1	JQQJ	492	1	blank2r.bmp	572	3	träumen	866	1	!	1292	1	!	-1	0	0	0	0	0	0	0	0	0	0	0	0	0	0	0	0	0	0	0	0	0	0	0	0	0	0	0	0	0	0
082119	16:49:55	16:53:46	230145	5.0.10.0	5_exp_RW	111	Rpleas_acq	CS_A	JQQJ	CPPC	DXXD	LWWL	YFFY	ZHHZ	gütig	vertrauen	träumen	sonnig	genießen	küssen	gierig	versagen	töten	sterben	gemein	krank	1	acq_USunple_CSunple2_RW	acq3_RW	3	23	453	1	300	300	429	46	0	1	1	blank2r.bmp	0	1	+	0	1	blank2r.bmp	492	1	LWWL	492	1	blank2r.bmp	572	2	gemein	866	1	!	1292	1	!	1332	0	0	0	0	0	0	0	0	0	0	0	0	0	0	0	0	0	0	0	0	0	0	0	0	0	0	0	0	0	0
082119	16:49:55	16:53:48	232264	5.0.10.0	5_exp_RW	111	Rpleas_acq	CS_A	JQQJ	CPPC	DXXD	LWWL	YFFY	ZHHZ	gütig	vertrauen	träumen	sonnig	genießen	küssen	gierig	versagen	töten	sterben	gemein	krank	1	acq_USunple_CSunple2_RW	acq3_RW	3	24	453	0	300	300	348	46	0	1	1	blank2r.bmp	0	1	+	0	1	blank2r.bmp	492	1	LWWL	492	1	blank2r.bmp	572	2	gemein	866	1	!	-1	1	!	-1	0	0	0	0	0	0	0	0	0	0	0	0	0	0	0	0	0	0	0	0	0	0	0	0	0	0	0	0	0	0
082119	16:49:55	16:53:56	240714	5.0.10.0	5_exp_RW	111	Rpleas_acq	CS_A	JQQJ	CPPC	DXXD	LWWL	YFFY	ZHHZ	gütig	vertrauen	träumen	sonnig	genießen	küssen	gierig	versagen	töten	sterben	gemein	krank	1	acq_USunple_CSunple2_RW	acq4567_RW	4	1	400	1	300	300	372	46	0	1	1	blank2r.bmp	0	1	+	0	1	blank2r.bmp	492	1	LWWL	492	1	blank2r.bmp	572	3	krank	866	1	!	1239	1	!	1266	0	0	0	0	0	0	0	0	0	0	0	0	0	0	0	0	0	0	0	0	0	0	0	0	0	0	0	0	0	0
082119	16:49:55	16:53:59	242940	5.0.10.0	5_exp_RW	111	Rpleas_acq	CS_A	JQQJ	CPPC	DXXD	LWWL	YFFY	ZHHZ	gütig	vertrauen	träumen	sonnig	genießen	küssen	gierig	versagen	töten	sterben	gemein	krank	1	acq_USunple_CSunple2_RW	acq4567_RW	4	2	400	1	300	300	438	46	0	1	1	blank2r.bmp	0	1	+	0	1	blank2r.bmp	492	1	LWWL	492	1	blank2r.bmp	572	1	sterben	866	1	!	1239	1	!	1332	0	0	0	0	0	0	0	0	0	0	0	0	0	0	0	0	0	0	0	0	0	0	0	0	0	0	0	0	0	0
082119	16:49:55	16:54:01	245112	5.0.10.0	5_exp_RW	111	Rpleas_acq	CS_A	JQQJ	CPPC	DXXD	LWWL	YFFY	ZHHZ	gütig	vertrauen	träumen	sonnig	genießen	küssen	gierig	versagen	töten	sterben	gemein	krank	1	acq_USpleas_CSpleas2_RW	acq4567_RW	4	3	400	1	300	300	376	50	0	1	1	blank2r.bmp	0	1	+	0	1	blank2r.bmp	492	1	CPPC	492	1	blank2r.bmp	572	3	küssen	866	1	!	1239	1	!	1279	0	0	0	0	0	0	0	0	0	0	0	0	0	0	0	0	0	0	0	0	0	0	0	0	0	0	0	0	0	0
082119	16:49:55	16:54:03	247298	5.0.10.0	5_exp_RW	111	Rpleas_acq	CS_A	JQQJ	CPPC	DXXD	LWWL	YFFY	ZHHZ	gütig	vertrauen	träumen	sonnig	genießen	küssen	gierig	versagen	töten	sterben	gemein	krank	1	acq_USunple_CSunple1_RW	acq4567_RW	4	4	400	1	300	300	392	46	0	1	1	blank2r.bmp	0	1	+	0	1	blank2r.bmp	492	1	DXXD	492	1	blank2r.bmp	572	2	versagen	866	1	!	1239	1	!	1292	0	0	0	0	0	0	0	0	0	0	0	0	0	0	0	0	0	0	0	0	0	0	0	0	0	0	0	0	0	0
082119	16:49:55	16:54:05	249471	5.0.10.0	5_exp_RW	111	Rpleas_acq	CS_A	JQQJ	CPPC	DXXD	LWWL	YFFY	ZHHZ	gütig	vertrauen	träumen	sonnig	genießen	küssen	gierig	versagen	töten	sterben	gemein	krank	1	acq_USpleas_CSpleas1_RW	acq4567_RW	4	5	400	1	300	300	382	50	0	1	1	blank2r.bmp	0	1	+	0	1	blank2r.bmp	492	1	JQQJ	492	1	blank2r.bmp	572	1	gütig	866	1	!	1239	1	!	1279	0	0	0	0	0	0	0	0	0	0	0	0	0	0	0	0	0	0	0	0	0	0	0	0	0	0	0	0	0	0
082119	16:49:55	16:54:07	251643	5.0.10.0	5_exp_RW	111	Rpleas_acq	CS_A	JQQJ	CPPC	DXXD	LWWL	YFFY	ZHHZ	gütig	vertrauen	träumen	sonnig	genießen	küssen	gierig	versagen	töten	sterben	gemein	krank	1	acq_USunple_CSunple2_RW	acq4567_RW	4	6	400	1	300	300	372	46	0	1	1	blank2r.bmp	0	1	+	0	1	blank2r.bmp	492	1	LWWL	492	1	blank2r.bmp	572	1	sterben	866	1	!	1239	1	!	1266	0	0	0	0	0	0	0	0	0	0	0	0	0	0	0	0	0	0	0	0	0	0	0	0	0	0	0	0	0	0
082119	16:49:55	16:54:09	253882	5.0.10.0	5_exp_RW	111	Rpleas_acq	CS_A	JQQJ	CPPC	DXXD	LWWL	YFFY	ZHHZ	gütig	vertrauen	träumen	sonnig	genießen	küssen	gierig	versagen	töten	sterben	gemein	krank	1	acq_USunple_CSunple1_RW	acq4567_RW	4	7	400	1	300	300	444	50	0	0	1	blank2r.bmp	0	1	+	0	1	blank2r.bmp	492	1	DXXD	492	1	blank2r.bmp	572	1	gierig	866	1	!	1239	1	!	1346	0	0	0	0	0	0	0	0	0	0	0	0	0	0	0	0	0	0	0	0	0	0	0	0	0	0	0	0	0	0
082119	16:49:55	16:54:12	256134	5.0.10.0	5_exp_RW	111	Rpleas_acq	CS_A	JQQJ	CPPC	DXXD	LWWL	YFFY	ZHHZ	gütig	vertrauen	träumen	sonnig	genießen	küssen	gierig	versagen	töten	sterben	gemein	krank	1	acq_USunple_CSunple1_RW	acq4567_RW	4	8	400	0	300	300	490	46	0	1	1	blank2r.bmp	0	1	+	0	1	blank2r.bmp	492	1	DXXD	492	1	blank2r.bmp	572	1	gierig	866	1	!	1239	1	!	-1	0	0	0	0	0	0	0	0	0	0	0	0	0	0	0	0	0	0	0	0	0	0	0	0	0	0	0	0	0	0
082119	16:49:55	16:54:14	258374	5.0.10.0	5_exp_RW	111	Rpleas_acq	CS_A	JQQJ	CPPC	DXXD	LWWL	YFFY	ZHHZ	gütig	vertrauen	träumen	sonnig	genießen	küssen	gierig	versagen	töten	sterben	gemein	krank	1	acq_USpleas_CSpleas2_RW	acq4567_RW	4	9	400	1	300	300	413	50	0	1	1	blank2r.bmp	0	1	+	0	1	blank2r.bmp	492	1	CPPC	492	1	blank2r.bmp	572	2	genießen	866	1	!	1239	1	!	1319	0	0	0	0	0	0	0	0	0	0	0	0	0	0	0	0	0	0	0	0	0	0	0	0	0	0	0	0	0	0
082119	16:49:55	16:54:16	260546	5.0.10.0	5_exp_RW	111	Rpleas_acq	CS_A	JQQJ	CPPC	DXXD	LWWL	YFFY	ZHHZ	gütig	vertrauen	träumen	sonnig	genießen	küssen	gierig	versagen	töten	sterben	gemein	krank	1	acq_USunple_CSunple1_RW	acq4567_RW	4	10	400	1	300	300	384	50	0	0	1	blank2r.bmp	0	1	+	0	1	blank2r.bmp	492	1	DXXD	492	1	blank2r.bmp	572	2	versagen	866	1	!	1239	1	!	1279	0	0	0	0	0	0	0	0	0	0	0	0	0	0	0	0	0	0	0	0	0	0	0	0	0	0	0	0	0	0
082119	16:49:55	16:54:18	262812	5.0.10.0	5_exp_RW	111	Rpleas_acq	CS_A	JQQJ	CPPC	DXXD	LWWL	YFFY	ZHHZ	gütig	vertrauen	träumen	sonnig	genießen	küssen	gierig	versagen	töten	sterben	gemein	krank	1	acq_USpleas_CSpleas1_RW	acq4567_RW	4	11	400	0	300	300	479	46	0	0	1	blank2r.bmp	0	1	+	0	1	blank2r.bmp	492	1	JQQJ	492	1	blank2r.bmp	572	2	vertrauen	866	1	!	1239	1	!	-1	0	0	0	0	0	0	0	0	0	0	0	0	0	0	0	0	0	0	0	0	0	0	0	0	0	0	0	0	0	0
082119	16:49:55	16:54:21	264971	5.0.10.0	5_exp_RW	111	Rpleas_acq	CS_A	JQQJ	CPPC	DXXD	LWWL	YFFY	ZHHZ	gütig	vertrauen	träumen	sonnig	genießen	küssen	gierig	versagen	töten	sterben	gemein	krank	1	acq_USunple_CSunple2_RW	acq4567_RW	4	12	400	1	300	300	346	46	0	1	1	blank2r.bmp	0	1	+	0	1	blank2r.bmp	492	1	LWWL	492	1	blank2r.bmp	572	3	krank	866	1	!	1239	1	!	1252	0	0	0	0	0	0	0	0	0	0	0	0	0	0	0	0	0	0	0	0	0	0	0	0	0	0	0	0	0	0
082119	16:49:55	16:54:23	267143	5.0.10.0	5_exp_RW	111	Rpleas_acq	CS_A	JQQJ	CPPC	DXXD	LWWL	YFFY	ZHHZ	gütig	vertrauen	träumen	sonnig	genießen	küssen	gierig	versagen	töten	sterben	gemein	krank	1	acq_USpleas_CSpleas2_RW	acq4567_RW	4	13	400	1	300	300	380	50	0	1	1	blank2r.bmp	0	1	+	0	1	blank2r.bmp	492	1	CPPC	492	1	blank2r.bmp	572	2	genießen	866	1	!	1239	1	!	1279	0	0	0	0	0	0	0	0	0	0	0	0	0	0	0	0	0	0	0	0	0	0	0	0	0	0	0	0	0	0
082119	16:49:55	16:54:25	269369	5.0.10.0	5_exp_RW	111	Rpleas_acq	CS_A	JQQJ	CPPC	DXXD	LWWL	YFFY	ZHHZ	gütig	vertrauen	träumen	sonnig	genießen	küssen	gierig	versagen	töten	sterben	gemein	krank	1	acq_USpleas_CSpleas1_RW	acq4567_RW	4	14	400	1	300	300	424	46	0	0	1	blank2r.bmp	0	1	+	0	1	blank2r.bmp	492	1	JQQJ	492	1	blank2r.bmp	572	1	gütig	866	1	!	1239	1	!	1319	0	0	0	0	0	0	0	0	0	0	0	0	0	0	0	0	0	0	0	0	0	0	0	0	0	0	0	0	0	0
082119	16:49:55	16:54:28	272434	5.0.10.0	5_exp_RW	111	Rpleas_acq	CS_A	JQQJ	CPPC	DXXD	LWWL	YFFY	ZHHZ	gütig	vertrauen	träumen	sonnig	genießen	küssen	gierig	versagen	töten	sterben	gemein	krank	1	acq_USpleas_CSpleas1_RW	acq4567_RW	4	15	400	0	300	300	1302	50	0	1	1	blank2r.bmp	0	1	+	0	1	blank2r.bmp	492	1	JQQJ	492	1	blank2r.bmp	572	2	vertrauen	866	1	!	1239	1	!	-1	0	0	0	0	0	0	0	0	0	0	0	0	0	0	0	0	0	0	0	0	0	0	0	0	0	0	0	0	0	0
082119	16:49:55	16:54:30	274620	5.0.10.0	5_exp_RW	111	Rpleas_acq	CS_A	JQQJ	CPPC	DXXD	LWWL	YFFY	ZHHZ	gütig	vertrauen	träumen	sonnig	genießen	küssen	gierig	versagen	töten	sterben	gemein	krank	1	acq_USpleas_CSpleas2_RW	acq4567_RW	4	16	400	1	300	300	366	50	0	1	1	blank2r.bmp	0	1	+	0	1	blank2r.bmp	492	1	CPPC	492	1	blank2r.bmp	572	1	sonnig	866	1	!	1239	1	!	1266	0	0	0	0	0	0	0	0	0	0	0	0	0	0	0	0	0	0	0	0	0	0	0	0	0	0	0	0	0	0
082119	16:49:55	16:54:32	276819	5.0.10.0	5_exp_RW	111	Rpleas_acq	CS_A	JQQJ	CPPC	DXXD	LWWL	YFFY	ZHHZ	gütig	vertrauen	träumen	sonnig	genießen	küssen	gierig	versagen	töten	sterben	gemein	krank	1	acq_USunple_CSunple1_RW	acq4567_RW	4	17	400	1	300	300	407	46	0	1	1	blank2r.bmp	0	1	+	0	1	blank2r.bmp	492	1	DXXD	492	1	blank2r.bmp	572	3	töten	866	1	!	1239	1	!	1306	0	0	0	0	0	0	0	0	0	0	0	0	0	0	0	0	0	0	0	0	0	0	0	0	0	0	0	0	0	0
082119	16:49:55	16:54:35	279605	5.0.10.0	5_exp_RW	111	Rpleas_acq	CS_A	JQQJ	CPPC	DXXD	LWWL	YFFY	ZHHZ	gütig	vertrauen	träumen	sonnig	genießen	küssen	gierig	versagen	töten	sterben	gemein	krank	1	acq_USunple_CSunple2_RW	acq4567_RW	4	18	400	0	300	300	1022	46	0	1	1	blank2r.bmp	0	1	+	0	1	blank2r.bmp	492	1	LWWL	492	1	blank2r.bmp	572	2	gemein	866	1	!	1239	1	!	-1	0	0	0	0	0	0	0	0	0	0	0	0	0	0	0	0	0	0	0	0	0	0	0	0	0	0	0	0	0	0
082119	16:49:55	16:54:37	281764	5.0.10.0	5_exp_RW	111	Rpleas_acq	CS_A	JQQJ	CPPC	DXXD	LWWL	YFFY	ZHHZ	gütig	vertrauen	träumen	sonnig	genießen	küssen	gierig	versagen	töten	sterben	gemein	krank	1	acq_USpleas_CSpleas2_RW	acq4567_RW	4	19	400	1	300	300	346	50	0	1	1	blank2r.bmp	0	1	+	0	1	blank2r.bmp	492	1	CPPC	492	1	blank2r.bmp	572	3	küssen	866	1	!	1239	1	!	1252	0	0	0	0	0	0	0	0	0	0	0	0	0	0	0	0	0	0	0	0	0	0	0	0	0	0	0	0	0	0
082119	16:49:55	16:54:39	283910	5.0.10.0	5_exp_RW	111	Rpleas_acq	CS_A	JQQJ	CPPC	DXXD	LWWL	YFFY	ZHHZ	gütig	vertrauen	träumen	sonnig	genießen	küssen	gierig	versagen	töten	sterben	gemein	krank	1	acq_USpleas_CSpleas1_RW	acq4567_RW	4	20	400	1	300	300	346	50	0	1	1	blank2r.bmp	0	1	+	0	1	blank2r.bmp	492	1	JQQJ	492	1	blank2r.bmp	572	3	träumen	866	1	!	1239	1	!	1252	0	0	0	0	0	0	0	0	0	0	0	0	0	0	0	0	0	0	0	0	0	0	0	0	0	0	0	0	0	0
082119	16:49:55	16:54:42	286122	5.0.10.0	5_exp_RW	111	Rpleas_acq	CS_A	JQQJ	CPPC	DXXD	LWWL	YFFY	ZHHZ	gütig	vertrauen	träumen	sonnig	genießen	küssen	gierig	versagen	töten	sterben	gemein	krank	1	acq_USunple_CSunple1_RW	acq4567_RW	4	21	400	1	300	300	421	46	0	1	1	blank2r.bmp	0	1	+	0	1	blank2r.bmp	492	1	DXXD	492	1	blank2r.bmp	572	3	töten	866	1	!	1239	1	!	1319	0	0	0	0	0	0	0	0	0	0	0	0	0	0	0	0	0	0	0	0	0	0	0	0	0	0	0	0	0	0
082119	16:49:55	16:54:44	288201	5.0.10.0	5_exp_RW	111	Rpleas_acq	CS_A	JQQJ	CPPC	DXXD	LWWL	YFFY	ZHHZ	gütig	vertrauen	träumen	sonnig	genießen	küssen	gierig	versagen	töten	sterben	gemein	krank	1	acq_USpleas_CSpleas1_RW	acq4567_RW	4	22	400	0	300	300	312	50	0	1	1	blank2r.bmp	0	1	+	0	1	blank2r.bmp	492	1	JQQJ	492	1	blank2r.bmp	572	2	vertrauen	866	1	!	-1	1	!	-1	0	0	0	0	0	0	0	0	0	0	0	0	0	0	0	0	0	0	0	0	0	0	0	0	0	0	0	0	0	0
082119	16:49:55	16:54:46	290387	5.0.10.0	5_exp_RW	111	Rpleas_acq	CS_A	JQQJ	CPPC	DXXD	LWWL	YFFY	ZHHZ	gütig	vertrauen	träumen	sonnig	genießen	küssen	gierig	versagen	töten	sterben	gemein	krank	1	acq_USpleas_CSpleas2_RW	acq4567_RW	4	23	400	1	300	300	381	46	0	0	1	blank2r.bmp	0	1	+	0	1	blank2r.bmp	492	1	CPPC	492	1	blank2r.bmp	572	3	küssen	866	1	!	1239	1	!	1279	0	0	0	0	0	0	0	0	0	0	0	0	0	0	0	0	0	0	0	0	0	0	0	0	0	0	0	0	0	0
082119	16:49:55	16:54:48	292546	5.0.10.0	5_exp_RW	111	Rpleas_acq	CS_A	JQQJ	CPPC	DXXD	LWWL	YFFY	ZHHZ	gütig	vertrauen	träumen	sonnig	genießen	küssen	gierig	versagen	töten	sterben	gemein	krank	1	acq_USpleas_CSpleas2_RW	acq4567_RW	4	24	400	1	300	300	346	50	0	1	1	blank2r.bmp	0	1	+	0	1	blank2r.bmp	492	1	CPPC	492	1	blank2r.bmp	572	2	genießen	866	1	!	1239	1	!	1252	0	0	0	0	0	0	0	0	0	0	0	0	0	0	0	0	0	0	0	0	0	0	0	0	0	0	0	0	0	0
082119	16:49:55	16:54:50	294692	5.0.10.0	5_exp_RW	111	Rpleas_acq	CS_A	JQQJ	CPPC	DXXD	LWWL	YFFY	ZHHZ	gütig	vertrauen	träumen	sonnig	genießen	küssen	gierig	versagen	töten	sterben	gemein	krank	1	acq_USunple_CSunple2_RW	acq4567_RW	4	25	400	1	300	300	351	46	0	1	1	blank2r.bmp	0	1	+	0	1	blank2r.bmp	492	1	LWWL	492	1	blank2r.bmp	572	3	krank	866	1	!	1239	1	!	1252	0	0	0	0	0	0	0	0	0	0	0	0	0	0	0	0	0	0	0	0	0	0	0	0	0	0	0	0	0	0
082119	16:49:55	16:54:52	296864	5.0.10.0	5_exp_RW	111	Rpleas_acq	CS_A	JQQJ	CPPC	DXXD	LWWL	YFFY	ZHHZ	gütig	vertrauen	träumen	sonnig	genießen	küssen	gierig	versagen	töten	sterben	gemein	krank	1	acq_USpleas_CSpleas1_RW	acq4567_RW	4	26	400	1	300	300	364	50	0	1	1	blank2r.bmp	0	1	+	0	1	blank2r.bmp	492	1	JQQJ	492	1	blank2r.bmp	572	1	gütig	866	1	!	1239	1	!	1266	0	0	0	0	0	0	0	0	0	0	0	0	0	0	0	0	0	0	0	0	0	0	0	0	0	0	0	0	0	0
082119	16:49:55	16:54:55	299050	5.0.10.0	5_exp_RW	111	Rpleas_acq	CS_A	JQQJ	CPPC	DXXD	LWWL	YFFY	ZHHZ	gütig	vertrauen	träumen	sonnig	genießen	küssen	gierig	versagen	töten	sterben	gemein	krank	1	acq_USunple_CSunple2_RW	acq4567_RW	4	27	400	1	300	300	396	46	0	1	1	blank2r.bmp	0	1	+	0	1	blank2r.bmp	492	1	LWWL	492	1	blank2r.bmp	572	1	sterben	866	1	!	1239	1	!	1292	0	0	0	0	0	0	0	0	0	0	0	0	0	0	0	0	0	0	0	0	0	0	0	0	0	0	0	0	0	0
082119	16:49:55	16:54:57	301209	5.0.10.0	5_exp_RW	111	Rpleas_acq	CS_A	JQQJ	CPPC	DXXD	LWWL	YFFY	ZHHZ	gütig	vertrauen	träumen	sonnig	genießen	küssen	gierig	versagen	töten	sterben	gemein	krank	1	acq_USpleas_CSpleas1_RW	acq4567_RW	4	28	400	1	300	300	369	50	0	1	1	blank2r.bmp	0	1	+	0	1	blank2r.bmp	492	1	JQQJ	492	1	blank2r.bmp	572	3	träumen	866	1	!	1239	1	!	1266	0	0	0	0	0	0	0	0	0	0	0	0	0	0	0	0	0	0	0	0	0	0	0	0	0	0	0	0	0	0
082119	16:49:55	16:54:59	303382	5.0.10.0	5_exp_RW	111	Rpleas_acq	CS_A	JQQJ	CPPC	DXXD	LWWL	YFFY	ZHHZ	gütig	vertrauen	träumen	sonnig	genießen	küssen	gierig	versagen	töten	sterben	gemein	krank	1	acq_USpleas_CSpleas1_RW	acq4567_RW	4	29	400	1	300	300	375	50	0	1	1	blank2r.bmp	0	1	+	0	1	blank2r.bmp	492	1	JQQJ	492	1	blank2r.bmp	572	3	träumen	866	1	!	1239	1	!	1279	0	0	0	0	0	0	0	0	0	0	0	0	0	0	0	0	0	0	0	0	0	0	0	0	0	0	0	0	0	0
082119	16:49:55	16:55:01	305554	5.0.10.0	5_exp_RW	111	Rpleas_acq	CS_A	JQQJ	CPPC	DXXD	LWWL	YFFY	ZHHZ	gütig	vertrauen	träumen	sonnig	genießen	küssen	gierig	versagen	töten	sterben	gemein	krank	1	acq_USunple_CSunple1_RW	acq4567_RW	4	30	400	1	300	300	373	46	0	1	1	blank2r.bmp	0	1	+	0	1	blank2r.bmp	492	1	DXXD	492	1	blank2r.bmp	572	1	gierig	866	1	!	1239	1	!	1279	0	0	0	0	0	0	0	0	0	0	0	0	0	0	0	0	0	0	0	0	0	0	0	0	0	0	0	0	0	0
082119	16:49:55	16:55:03	307807	5.0.10.0	5_exp_RW	111	Rpleas_acq	CS_A	JQQJ	CPPC	DXXD	LWWL	YFFY	ZHHZ	gütig	vertrauen	träumen	sonnig	genießen	küssen	gierig	versagen	töten	sterben	gemein	krank	1	acq_USunple_CSunple2_RW	acq4567_RW	4	31	400	0	300	300	479	46	0	1	1	blank2r.bmp	0	1	+	0	1	blank2r.bmp	492	1	LWWL	492	1	blank2r.bmp	572	2	gemein	866	1	!	1239	1	!	-1	0	0	0	0	0	0	0	0	0	0	0	0	0	0	0	0	0	0	0	0	0	0	0	0	0	0	0	0	0	0
082119	16:49:55	16:55:05	309859	5.0.10.0	5_exp_RW	111	Rpleas_acq	CS_A	JQQJ	CPPC	DXXD	LWWL	YFFY	ZHHZ	gütig	vertrauen	träumen	sonnig	genießen	küssen	gierig	versagen	töten	sterben	gemein	krank	1	acq_USpleas_CSpleas1_RW	acq4567_RW	4	32	400	0	300	300	276	46	0	0	1	blank2r.bmp	0	1	+	0	1	blank2r.bmp	492	1	JQQJ	492	1	blank2r.bmp	572	2	vertrauen	866	1	!	-1	1	!	-1	0	0	0	0	0	0	0	0	0	0	0	0	0	0	0	0	0	0	0	0	0	0	0	0	0	0	0	0	0	0
082119	16:49:55	16:55:09	313324	5.0.10.0	5_exp_RW	111	Rpleas_acq	CS_A	JQQJ	CPPC	DXXD	LWWL	YFFY	ZHHZ	gütig	vertrauen	träumen	sonnig	genießen	küssen	gierig	versagen	töten	sterben	gemein	krank	1	acq_USpleas_CSpleas2_RW	acq4567_RW	4	33	400	0	300	300	1668	50	0	1	1	blank2r.bmp	0	1	+	0	1	blank2r.bmp	492	1	CPPC	492	1	blank2r.bmp	572	1	sonnig	866	1	!	1239	1	!	-1	0	0	0	0	0	0	0	0	0	0	0	0	0	0	0	0	0	0	0	0	0	0	0	0	0	0	0	0	0	0
082119	16:49:55	16:55:11	315417	5.0.10.0	5_exp_RW	111	Rpleas_acq	CS_A	JQQJ	CPPC	DXXD	LWWL	YFFY	ZHHZ	gütig	vertrauen	träumen	sonnig	genießen	küssen	gierig	versagen	töten	sterben	gemein	krank	1	acq_USunple_CSunple1_RW	acq4567_RW	4	34	400	0	300	300	308	50	0	0	1	blank2r.bmp	0	1	+	0	1	blank2r.bmp	492	1	DXXD	492	1	blank2r.bmp	572	2	versagen	866	1	!	-1	1	!	-1	0	0	0	0	0	0	0	0	0	0	0	0	0	0	0	0	0	0	0	0	0	0	0	0	0	0	0	0	0	0
082119	16:49:55	16:55:13	317656	5.0.10.0	5_exp_RW	111	Rpleas_acq	CS_A	JQQJ	CPPC	DXXD	LWWL	YFFY	ZHHZ	gütig	vertrauen	träumen	sonnig	genießen	küssen	gierig	versagen	töten	sterben	gemein	krank	1	acq_USpleas_CSpleas2_RW	acq4567_RW	4	35	400	1	300	300	435	50	0	1	1	blank2r.bmp	0	1	+	0	1	blank2r.bmp	492	1	CPPC	492	1	blank2r.bmp	572	1	sonnig	866	1	!	1239	1	!	1332	0	0	0	0	0	0	0	0	0	0	0	0	0	0	0	0	0	0	0	0	0	0	0	0	0	0	0	0	0	0
082119	16:49:55	16:55:16	319935	5.0.10.0	5_exp_RW	111	Rpleas_acq	CS_A	JQQJ	CPPC	DXXD	LWWL	YFFY	ZHHZ	gütig	vertrauen	träumen	sonnig	genießen	küssen	gierig	versagen	töten	sterben	gemein	krank	1	acq_USunple_CSunple2_RW	acq4567_RW	4	36	400	1	300	300	466	46	0	1	1	blank2r.bmp	0	1	+	0	1	blank2r.bmp	492	1	LWWL	492	1	blank2r.bmp	572	1	sterben	866	1	!	1239	1	!	1372	0	0	0	0	0	0	0	0	0	0	0	0	0	0	0	0	0	0	0	0	0	0	0	0	0	0	0	0	0	0
082119	16:49:55	16:55:18	322001	5.0.10.0	5_exp_RW	111	Rpleas_acq	CS_A	JQQJ	CPPC	DXXD	LWWL	YFFY	ZHHZ	gütig	vertrauen	träumen	sonnig	genießen	küssen	gierig	versagen	töten	sterben	gemein	krank	1	acq_USunple_CSunple1_RW	acq4567_RW	4	37	400	0	300	300	285	46	0	1	1	blank2r.bmp	0	1	+	0	1	blank2r.bmp	492	1	DXXD	492	1	blank2r.bmp	572	2	versagen	866	1	!	-1	1	!	-1	0	0	0	0	0	0	0	0	0	0	0	0	0	0	0	0	0	0	0	0	0	0	0	0	0	0	0	0	0	0
082119	16:49:55	16:55:20	324200	5.0.10.0	5_exp_RW	111	Rpleas_acq	CS_A	JQQJ	CPPC	DXXD	LWWL	YFFY	ZHHZ	gütig	vertrauen	träumen	sonnig	genießen	küssen	gierig	versagen	töten	sterben	gemein	krank	1	acq_USunple_CSunple2_RW	acq4567_RW	4	38	400	1	300	300	391	46	0	1	1	blank2r.bmp	0	1	+	0	1	blank2r.bmp	492	1	LWWL	492	1	blank2r.bmp	572	3	krank	866	1	!	1239	1	!	1292	0	0	0	0	0	0	0	0	0	0	0	0	0	0	0	0	0	0	0	0	0	0	0	0	0	0	0	0	0	0
082119	16:49:55	16:55:22	326292	5.0.10.0	5_exp_RW	111	Rpleas_acq	CS_A	JQQJ	CPPC	DXXD	LWWL	YFFY	ZHHZ	gütig	vertrauen	träumen	sonnig	genießen	küssen	gierig	versagen	töten	sterben	gemein	krank	1	acq_USunple_CSunple1_RW	acq4567_RW	4	39	400	0	300	300	324	46	0	1	1	blank2r.bmp	0	1	+	0	1	blank2r.bmp	492	1	DXXD	492	1	blank2r.bmp	572	1	gierig	866	1	!	-1	1	!	-1	0	0	0	0	0	0	0	0	0	0	0	0	0	0	0	0	0	0	0	0	0	0	0	0	0	0	0	0	0	0
082119	16:49:55	16:55:24	328505	5.0.10.0	5_exp_RW	111	Rpleas_acq	CS_A	JQQJ	CPPC	DXXD	LWWL	YFFY	ZHHZ	gütig	vertrauen	träumen	sonnig	genießen	küssen	gierig	versagen	töten	sterben	gemein	krank	1	acq_USpleas_CSpleas2_RW	acq4567_RW	4	40	400	1	300	300	410	50	0	1	1	blank2r.bmp	0	1	+	0	1	blank2r.bmp	492	1	CPPC	492	1	blank2r.bmp	572	2	genießen	866	1	!	1239	1	!	1306	0	0	0	0	0	0	0	0	0	0	0	0	0	0	0	0	0	0	0	0	0	0	0	0	0	0	0	0	0	0
082119	16:49:55	16:55:26	330771	5.0.10.0	5_exp_RW	111	Rpleas_acq	CS_A	JQQJ	CPPC	DXXD	LWWL	YFFY	ZHHZ	gütig	vertrauen	träumen	sonnig	genießen	küssen	gierig	versagen	töten	sterben	gemein	krank	1	acq_USpleas_CSpleas2_RW	acq4567_RW	4	41	400	0	300	300	503	50	0	1	1	blank2r.bmp	0	1	+	0	1	blank2r.bmp	492	1	CPPC	492	1	blank2r.bmp	572	3	küssen	866	1	!	1239	1	!	-1	0	0	0	0	0	0	0	0	0	0	0	0	0	0	0	0	0	0	0	0	0	0	0	0	0	0	0	0	0	0
082119	16:49:55	16:55:29	333036	5.0.10.0	5_exp_RW	111	Rpleas_acq	CS_A	JQQJ	CPPC	DXXD	LWWL	YFFY	ZHHZ	gütig	vertrauen	träumen	sonnig	genießen	küssen	gierig	versagen	töten	sterben	gemein	krank	1	acq_USpleas_CSpleas2_RW	acq4567_RW	4	42	400	0	300	300	482	50	0	1	1	blank2r.bmp	0	1	+	0	1	blank2r.bmp	492	1	CPPC	492	1	blank2r.bmp	572	2	genießen	866	1	!	1239	1	!	-1	0	0	0	0	0	0	0	0	0	0	0	0	0	0	0	0	0	0	0	0	0	0	0	0	0	0	0	0	0	0
082119	16:49:55	16:55:31	335022	5.0.10.0	5_exp_RW	111	Rpleas_acq	CS_A	JQQJ	CPPC	DXXD	LWWL	YFFY	ZHHZ	gütig	vertrauen	träumen	sonnig	genießen	küssen	gierig	versagen	töten	sterben	gemein	krank	1	acq_USunple_CSunple2_RW	acq4567_RW	4	43	400	0	300	300	204	46	0	1	1	blank2r.bmp	0	1	+	0	1	blank2r.bmp	492	1	LWWL	492	1	blank2r.bmp	572	2	gemein	866	1	!	-1	1	!	-1	0	0	0	0	0	0	0	0	0	0	0	0	0	0	0	0	0	0	0	0	0	0	0	0	0	0	0	0	0	0
082119	16:49:55	16:55:33	337235	5.0.10.0	5_exp_RW	111	Rpleas_acq	CS_A	JQQJ	CPPC	DXXD	LWWL	YFFY	ZHHZ	gütig	vertrauen	träumen	sonnig	genießen	küssen	gierig	versagen	töten	sterben	gemein	krank	1	acq_USpleas_CSpleas2_RW	acq4567_RW	4	44	400	1	300	300	390	50	0	1	1	blank2r.bmp	0	1	+	0	1	blank2r.bmp	492	1	CPPC	492	1	blank2r.bmp	572	3	küssen	866	1	!	1239	1	!	1292	0	0	0	0	0	0	0	0	0	0	0	0	0	0	0	0	0	0	0	0	0	0	0	0	0	0	0	0	0	0
082119	16:49:55	16:55:35	339340	5.0.10.0	5_exp_RW	111	Rpleas_acq	CS_A	JQQJ	CPPC	DXXD	LWWL	YFFY	ZHHZ	gütig	vertrauen	träumen	sonnig	genießen	küssen	gierig	versagen	töten	sterben	gemein	krank	1	acq_USunple_CSunple1_RW	acq4567_RW	4	45	400	0	300	300	329	46	0	1	1	blank2r.bmp	0	1	+	0	1	blank2r.bmp	492	1	DXXD	492	1	blank2r.bmp	572	3	töten	866	1	!	-1	1	!	-1	0	0	0	0	0	0	0	0	0	0	0	0	0	0	0	0	0	0	0	0	0	0	0	0	0	0	0	0	0	0
082119	16:49:55	16:55:37	341500	5.0.10.0	5_exp_RW	111	Rpleas_acq	CS_A	JQQJ	CPPC	DXXD	LWWL	YFFY	ZHHZ	gütig	vertrauen	träumen	sonnig	genießen	küssen	gierig	versagen	töten	sterben	gemein	krank	1	acq_USunple_CSunple2_RW	acq4567_RW	4	46	400	1	300	300	346	46	0	1	1	blank2r.bmp	0	1	+	0	1	blank2r.bmp	492	1	LWWL	492	1	blank2r.bmp	572	1	sterben	866	1	!	1239	1	!	1252	0	0	0	0	0	0	0	0	0	0	0	0	0	0	0	0	0	0	0	0	0	0	0	0	0	0	0	0	0	0
082119	16:49:55	16:55:39	343765	5.0.10.0	5_exp_RW	111	Rpleas_acq	CS_A	JQQJ	CPPC	DXXD	LWWL	YFFY	ZHHZ	gütig	vertrauen	träumen	sonnig	genießen	küssen	gierig	versagen	töten	sterben	gemein	krank	1	acq_USpleas_CSpleas1_RW	acq4567_RW	4	47	400	0	300	300	498	46	0	0	1	blank2r.bmp	0	1	+	0	1	blank2r.bmp	492	1	JQQJ	492	1	blank2r.bmp	572	1	gütig	866	1	!	1239	1	!	-1	0	0	0	0	0	0	0	0	0	0	0	0	0	0	0	0	0	0	0	0	0	0	0	0	0	0	0	0	0	0
082119	16:49:55	16:55:42	345964	5.0.10.0	5_exp_RW	111	Rpleas_acq	CS_A	JQQJ	CPPC	DXXD	LWWL	YFFY	ZHHZ	gütig	vertrauen	träumen	sonnig	genießen	küssen	gierig	versagen	töten	sterben	gemein	krank	1	acq_USunple_CSunple2_RW	acq4567_RW	4	48	400	1	300	300	386	46	0	1	1	blank2r.bmp	0	1	+	0	1	blank2r.bmp	492	1	LWWL	492	1	blank2r.bmp	572	2	gemein	866	1	!	1239	1	!	1292	0	0	0	0	0	0	0	0	0	0	0	0	0	0	0	0	0	0	0	0	0	0	0	0	0	0	0	0	0	0
082119	16:49:55	16:55:44	348203	5.0.10.0	5_exp_RW	111	Rpleas_acq	CS_A	JQQJ	CPPC	DXXD	LWWL	YFFY	ZHHZ	gütig	vertrauen	träumen	sonnig	genießen	küssen	gierig	versagen	töten	sterben	gemein	krank	1	acq_USpleas_CSpleas1_RW	acq4567_RW	4	49	400	1	300	300	452	46	0	0	1	blank2r.bmp	0	1	+	0	1	blank2r.bmp	492	1	JQQJ	492	1	blank2r.bmp	572	1	gütig	866	1	!	1239	1	!	1346	0	0	0	0	0	0	0	0	0	0	0	0	0	0	0	0	0	0	0	0	0	0	0	0	0	0	0	0	0	0
082119	16:49:55	16:55:46	350363	5.0.10.0	5_exp_RW	111	Rpleas_acq	CS_A	JQQJ	CPPC	DXXD	LWWL	YFFY	ZHHZ	gütig	vertrauen	träumen	sonnig	genießen	küssen	gierig	versagen	töten	sterben	gemein	krank	1	acq_USunple_CSunple1_RW	acq4567_RW	4	50	400	1	300	300	363	46	0	1	1	blank2r.bmp	0	1	+	0	1	blank2r.bmp	492	1	DXXD	492	1	blank2r.bmp	572	3	töten	866	1	!	1239	1	!	1266	0	0	0	0	0	0	0	0	0	0	0	0	0	0	0	0	0	0	0	0	0	0	0	0	0	0	0	0	0	0
082119	16:49:55	16:55:48	352548	5.0.10.0	5_exp_RW	111	Rpleas_acq	CS_A	JQQJ	CPPC	DXXD	LWWL	YFFY	ZHHZ	gütig	vertrauen	träumen	sonnig	genießen	küssen	gierig	versagen	töten	sterben	gemein	krank	1	acq_USunple_CSunple2_RW	acq4567_RW	4	51	400	1	300	300	388	46	0	1	1	blank2r.bmp	0	1	+	0	1	blank2r.bmp	492	1	LWWL	492	1	blank2r.bmp	572	3	krank	866	1	!	1239	1	!	1292	0	0	0	0	0	0	0	0	0	0	0	0	0	0	0	0	0	0	0	0	0	0	0	0	0	0	0	0	0	0
082119	16:49:55	16:55:50	354761	5.0.10.0	5_exp_RW	111	Rpleas_acq	CS_A	JQQJ	CPPC	DXXD	LWWL	YFFY	ZHHZ	gütig	vertrauen	träumen	sonnig	genießen	küssen	gierig	versagen	töten	sterben	gemein	krank	1	acq_USunple_CSunple1_RW	acq4567_RW	4	52	400	1	300	300	418	46	0	1	1	blank2r.bmp	0	1	+	0	1	blank2r.bmp	492	1	DXXD	492	1	blank2r.bmp	572	1	gierig	866	1	!	1239	1	!	1319	0	0	0	0	0	0	0	0	0	0	0	0	0	0	0	0	0	0	0	0	0	0	0	0	0	0	0	0	0	0
082119	16:49:55	16:55:53	357453	5.0.10.0	5_exp_RW	111	Rpleas_acq	CS_A	JQQJ	CPPC	DXXD	LWWL	YFFY	ZHHZ	gütig	vertrauen	träumen	sonnig	genießen	küssen	gierig	versagen	töten	sterben	gemein	krank	1	acq_USpleas_CSpleas1_RW	acq4567_RW	4	53	400	0	300	300	922	50	0	1	1	blank2r.bmp	0	1	+	0	1	blank2r.bmp	492	1	JQQJ	492	1	blank2r.bmp	572	2	vertrauen	866	1	!	1239	1	!	-1	0	0	0	0	0	0	0	0	0	0	0	0	0	0	0	0	0	0	0	0	0	0	0	0	0	0	0	0	0	0
082119	16:49:55	16:55:55	359732	5.0.10.0	5_exp_RW	111	Rpleas_acq	CS_A	JQQJ	CPPC	DXXD	LWWL	YFFY	ZHHZ	gütig	vertrauen	träumen	sonnig	genießen	küssen	gierig	versagen	töten	sterben	gemein	krank	1	acq_USpleas_CSpleas1_RW	acq4567_RW	4	54	400	1	300	300	465	50	0	1	1	blank2r.bmp	0	1	+	0	1	blank2r.bmp	492	1	JQQJ	492	1	blank2r.bmp	572	3	träumen	866	1	!	1239	1	!	1359	0	0	0	0	0	0	0	0	0	0	0	0	0	0	0	0	0	0	0	0	0	0	0	0	0	0	0	0	0	0
082119	16:49:55	16:55:57	361891	5.0.10.0	5_exp_RW	111	Rpleas_acq	CS_A	JQQJ	CPPC	DXXD	LWWL	YFFY	ZHHZ	gütig	vertrauen	träumen	sonnig	genießen	küssen	gierig	versagen	töten	sterben	gemein	krank	1	acq_USpleas_CSpleas2_RW	acq4567_RW	4	55	400	1	300	300	364	50	0	1	1	blank2r.bmp	0	1	+	0	1	blank2r.bmp	492	1	CPPC	492	1	blank2r.bmp	572	1	sonnig	866	1	!	1239	1	!	1266	0	0	0	0	0	0	0	0	0	0	0	0	0	0	0	0	0	0	0	0	0	0	0	0	0	0	0	0	0	0
082119	16:49:55	16:56:00	363984	5.0.10.0	5_exp_RW	111	Rpleas_acq	CS_A	JQQJ	CPPC	DXXD	LWWL	YFFY	ZHHZ	gütig	vertrauen	träumen	sonnig	genießen	küssen	gierig	versagen	töten	sterben	gemein	krank	1	acq_USpleas_CSpleas2_RW	acq4567_RW	4	56	400	0	300	300	330	50	0	1	1	blank2r.bmp	0	1	+	0	1	blank2r.bmp	492	1	CPPC	492	1	blank2r.bmp	572	1	sonnig	866	1	!	-1	1	!	-1	0	0	0	0	0	0	0	0	0	0	0	0	0	0	0	0	0	0	0	0	0	0	0	0	0	0	0	0	0	0
082119	16:49:55	16:56:02	366143	5.0.10.0	5_exp_RW	111	Rpleas_acq	CS_A	JQQJ	CPPC	DXXD	LWWL	YFFY	ZHHZ	gütig	vertrauen	träumen	sonnig	genießen	küssen	gierig	versagen	töten	sterben	gemein	krank	1	acq_USunple_CSunple2_RW	acq4567_RW	4	57	400	1	300	300	352	46	0	1	1	blank2r.bmp	0	1	+	0	1	blank2r.bmp	492	1	LWWL	492	1	blank2r.bmp	572	2	gemein	866	1	!	1239	1	!	1252	0	0	0	0	0	0	0	0	0	0	0	0	0	0	0	0	0	0	0	0	0	0	0	0	0	0	0	0	0	0
082119	16:49:55	16:56:04	368222	5.0.10.0	5_exp_RW	111	Rpleas_acq	CS_A	JQQJ	CPPC	DXXD	LWWL	YFFY	ZHHZ	gütig	vertrauen	träumen	sonnig	genießen	küssen	gierig	versagen	töten	sterben	gemein	krank	1	acq_USpleas_CSpleas1_RW	acq4567_RW	4	58	400	0	300	300	309	50	0	1	1	blank2r.bmp	0	1	+	0	1	blank2r.bmp	492	1	JQQJ	492	1	blank2r.bmp	572	3	träumen	866	1	!	-1	1	!	-1	0	0	0	0	0	0	0	0	0	0	0	0	0	0	0	0	0	0	0	0	0	0	0	0	0	0	0	0	0	0
082119	16:49:55	16:56:06	370381	5.0.10.0	5_exp_RW	111	Rpleas_acq	CS_A	JQQJ	CPPC	DXXD	LWWL	YFFY	ZHHZ	gütig	vertrauen	träumen	sonnig	genießen	küssen	gierig	versagen	töten	sterben	gemein	krank	1	acq_USunple_CSunple1_RW	acq4567_RW	4	59	400	1	300	300	346	46	0	1	1	blank2r.bmp	0	1	+	0	1	blank2r.bmp	492	1	DXXD	492	1	blank2r.bmp	572	2	versagen	866	1	!	1239	1	!	1252	0	0	0	0	0	0	0	0	0	0	0	0	0	0	0	0	0	0	0	0	0	0	0	0	0	0	0	0	0	0
082119	16:49:55	16:56:08	372633	5.0.10.0	5_exp_RW	111	Rpleas_acq	CS_A	JQQJ	CPPC	DXXD	LWWL	YFFY	ZHHZ	gütig	vertrauen	träumen	sonnig	genießen	küssen	gierig	versagen	töten	sterben	gemein	krank	1	acq_USunple_CSunple1_RW	acq4567_RW	4	60	400	1	300	300	456	46	0	1	1	blank2r.bmp	0	1	+	0	1	blank2r.bmp	492	1	DXXD	492	1	blank2r.bmp	572	3	töten	866	1	!	1239	1	!	1359	0	0	0	0	0	0	0	0	0	0	0	0	0	0	0	0	0	0	0	0	0	0	0	0	0	0	0	0	0	0
082119	16:49:55	16:56:10	374779	5.0.10.0	5_exp_RW	111	Rpleas_acq	CS_A	JQQJ	CPPC	DXXD	LWWL	YFFY	ZHHZ	gütig	vertrauen	träumen	sonnig	genießen	küssen	gierig	versagen	töten	sterben	gemein	krank	1	acq_USpleas_CSpleas2_RW	acq4567_RW	4	61	400	1	300	300	349	46	0	0	1	blank2r.bmp	0	1	+	0	1	blank2r.bmp	492	1	CPPC	492	1	blank2r.bmp	572	2	genießen	866	1	!	1239	1	!	1252	0	0	0	0	0	0	0	0	0	0	0	0	0	0	0	0	0	0	0	0	0	0	0	0	0	0	0	0	0	0
082119	16:49:55	16:56:13	376978	5.0.10.0	5_exp_RW	111	Rpleas_acq	CS_A	JQQJ	CPPC	DXXD	LWWL	YFFY	ZHHZ	gütig	vertrauen	träumen	sonnig	genießen	küssen	gierig	versagen	töten	sterben	gemein	krank	1	acq_USunple_CSunple1_RW	acq4567_RW	4	62	400	1	300	300	405	46	0	1	1	blank2r.bmp	0	1	+	0	1	blank2r.bmp	492	1	DXXD	492	1	blank2r.bmp	572	2	versagen	866	1	!	1239	1	!	1306	0	0	0	0	0	0	0	0	0	0	0	0	0	0	0	0	0	0	0	0	0	0	0	0	0	0	0	0	0	0
082119	16:49:55	16:56:15	379177	5.0.10.0	5_exp_RW	111	Rpleas_acq	CS_A	JQQJ	CPPC	DXXD	LWWL	YFFY	ZHHZ	gütig	vertrauen	träumen	sonnig	genießen	küssen	gierig	versagen	töten	sterben	gemein	krank	1	acq_USpleas_CSpleas2_RW	acq4567_RW	4	63	400	1	300	300	407	50	0	1	1	blank2r.bmp	0	1	+	0	1	blank2r.bmp	492	1	CPPC	492	1	blank2r.bmp	572	3	küssen	866	1	!	1239	1	!	1306	0	0	0	0	0	0	0	0	0	0	0	0	0	0	0	0	0	0	0	0	0	0	0	0	0	0	0	0	0	0
082119	16:49:55	16:56:17	381323	5.0.10.0	5_exp_RW	111	Rpleas_acq	CS_A	JQQJ	CPPC	DXXD	LWWL	YFFY	ZHHZ	gütig	vertrauen	träumen	sonnig	genießen	küssen	gierig	versagen	töten	sterben	gemein	krank	1	acq_USunple_CSunple2_RW	acq4567_RW	4	64	400	1	300	300	346	46	0	1	1	blank2r.bmp	0	1	+	0	1	blank2r.bmp	492	1	LWWL	492	1	blank2r.bmp	572	1	sterben	866	1	!	1239	1	!	1252	0	0	0	0	0	0	0	0	0	0	0	0	0	0	0	0	0	0	0	0	0	0	0	0	0	0	0	0	0	0
082119	16:49:55	16:56:19	383509	5.0.10.0	5_exp_RW	111	Rpleas_acq	CS_A	JQQJ	CPPC	DXXD	LWWL	YFFY	ZHHZ	gütig	vertrauen	träumen	sonnig	genießen	küssen	gierig	versagen	töten	sterben	gemein	krank	1	acq_USpleas_CSpleas2_RW	acq4567_RW	4	65	400	1	300	300	395	50	0	1	1	blank2r.bmp	0	1	+	0	1	blank2r.bmp	492	1	CPPC	492	1	blank2r.bmp	572	2	genießen	866	1	!	1239	1	!	1292	0	0	0	0	0	0	0	0	0	0	0	0	0	0	0	0	0	0	0	0	0	0	0	0	0	0	0	0	0	0
082119	16:49:55	16:56:21	385655	5.0.10.0	5_exp_RW	111	Rpleas_acq	CS_A	JQQJ	CPPC	DXXD	LWWL	YFFY	ZHHZ	gütig	vertrauen	träumen	sonnig	genießen	küssen	gierig	versagen	töten	sterben	gemein	krank	1	acq_USunple_CSunple1_RW	acq4567_RW	4	66	400	1	300	300	351	46	0	1	1	blank2r.bmp	0	1	+	0	1	blank2r.bmp	492	1	DXXD	492	1	blank2r.bmp	572	1	gierig	866	1	!	1239	1	!	1252	0	0	0	0	0	0	0	0	0	0	0	0	0	0	0	0	0	0	0	0	0	0	0	0	0	0	0	0	0	0
082119	16:49:55	16:56:23	387747	5.0.10.0	5_exp_RW	111	Rpleas_acq	CS_A	JQQJ	CPPC	DXXD	LWWL	YFFY	ZHHZ	gütig	vertrauen	träumen	sonnig	genießen	küssen	gierig	versagen	töten	sterben	gemein	krank	1	acq_USunple_CSunple1_RW	acq4567_RW	4	67	400	0	300	300	320	46	0	1	1	blank2r.bmp	0	1	+	0	1	blank2r.bmp	492	1	DXXD	492	1	blank2r.bmp	572	1	gierig	866	1	!	-1	1	!	-1	0	0	0	0	0	0	0	0	0	0	0	0	0	0	0	0	0	0	0	0	0	0	0	0	0	0	0	0	0	0
082119	16:49:55	16:56:26	389946	5.0.10.0	5_exp_RW	111	Rpleas_acq	CS_A	JQQJ	CPPC	DXXD	LWWL	YFFY	ZHHZ	gütig	vertrauen	träumen	sonnig	genießen	küssen	gierig	versagen	töten	sterben	gemein	krank	1	acq_USunple_CSunple1_RW	acq4567_RW	4	68	400	1	300	300	394	50	0	0	1	blank2r.bmp	0	1	+	0	1	blank2r.bmp	492	1	DXXD	492	1	blank2r.bmp	572	2	versagen	866	1	!	1239	1	!	1292	0	0	0	0	0	0	0	0	0	0	0	0	0	0	0	0	0	0	0	0	0	0	0	0	0	0	0	0	0	0
082119	16:49:55	16:56:28	392159	5.0.10.0	5_exp_RW	111	Rpleas_acq	CS_A	JQQJ	CPPC	DXXD	LWWL	YFFY	ZHHZ	gütig	vertrauen	träumen	sonnig	genießen	küssen	gierig	versagen	töten	sterben	gemein	krank	1	acq_USpleas_CSpleas1_RW	acq4567_RW	4	69	400	1	300	300	400	50	0	1	1	blank2r.bmp	0	1	+	0	1	blank2r.bmp	492	1	JQQJ	492	1	blank2r.bmp	572	2	vertrauen	866	1	!	1239	1	!	1306	0	0	0	0	0	0	0	0	0	0	0	0	0	0	0	0	0	0	0	0	0	0	0	0	0	0	0	0	0	0
082119	16:49:55	16:56:30	394211	5.0.10.0	5_exp_RW	111	Rpleas_acq	CS_A	JQQJ	CPPC	DXXD	LWWL	YFFY	ZHHZ	gütig	vertrauen	träumen	sonnig	genießen	küssen	gierig	versagen	töten	sterben	gemein	krank	1	acq_USunple_CSunple2_RW	acq4567_RW	4	70	400	0	300	300	284	46	0	1	1	blank2r.bmp	0	1	+	0	1	blank2r.bmp	492	1	LWWL	492	1	blank2r.bmp	572	3	krank	866	1	!	-1	1	!	-1	0	0	0	0	0	0	0	0	0	0	0	0	0	0	0	0	0	0	0	0	0	0	0	0	0	0	0	0	0	0
082119	16:49:55	16:56:32	396424	5.0.10.0	5_exp_RW	111	Rpleas_acq	CS_A	JQQJ	CPPC	DXXD	LWWL	YFFY	ZHHZ	gütig	vertrauen	träumen	sonnig	genießen	küssen	gierig	versagen	töten	sterben	gemein	krank	1	acq_USpleas_CSpleas2_RW	acq4567_RW	4	71	400	1	300	300	411	50	0	1	1	blank2r.bmp	0	1	+	0	1	blank2r.bmp	492	1	CPPC	492	1	blank2r.bmp	572	1	sonnig	866	1	!	1239	1	!	1306	0	0	0	0	0	0	0	0	0	0	0	0	0	0	0	0	0	0	0	0	0	0	0	0	0	0	0	0	0	0
082119	16:49:55	16:56:34	398649	5.0.10.0	5_exp_RW	111	Rpleas_acq	CS_A	JQQJ	CPPC	DXXD	LWWL	YFFY	ZHHZ	gütig	vertrauen	träumen	sonnig	genießen	küssen	gierig	versagen	töten	sterben	gemein	krank	1	acq_USunple_CSunple2_RW	acq4567_RW	4	72	400	1	300	300	426	46	0	1	1	blank2r.bmp	0	1	+	0	1	blank2r.bmp	492	1	LWWL	492	1	blank2r.bmp	572	1	sterben	866	1	!	1239	1	!	1332	0	0	0	0	0	0	0	0	0	0	0	0	0	0	0	0	0	0	0	0	0	0	0	0	0	0	0	0	0	0
082119	16:49:55	16:56:36	400822	5.0.10.0	5_exp_RW	111	Rpleas_acq	CS_A	JQQJ	CPPC	DXXD	LWWL	YFFY	ZHHZ	gütig	vertrauen	träumen	sonnig	genießen	küssen	gierig	versagen	töten	sterben	gemein	krank	1	acq_USunple_CSunple2_RW	acq4567_RW	4	73	400	1	300	300	377	46	0	1	1	blank2r.bmp	0	1	+	0	1	blank2r.bmp	492	1	LWWL	492	1	blank2r.bmp	572	3	krank	866	1	!	1239	1	!	1279	0	0	0	0	0	0	0	0	0	0	0	0	0	0	0	0	0	0	0	0	0	0	0	0	0	0	0	0	0	0
082119	16:49:55	16:56:38	402888	5.0.10.0	5_exp_RW	111	Rpleas_acq	CS_A	JQQJ	CPPC	DXXD	LWWL	YFFY	ZHHZ	gütig	vertrauen	träumen	sonnig	genießen	küssen	gierig	versagen	töten	sterben	gemein	krank	1	acq_USpleas_CSpleas2_RW	acq4567_RW	4	74	400	0	300	300	302	46	0	0	1	blank2r.bmp	0	1	+	0	1	blank2r.bmp	492	1	CPPC	492	1	blank2r.bmp	572	3	küssen	866	1	!	-1	1	!	-1	0	0	0	0	0	0	0	0	0	0	0	0	0	0	0	0	0	0	0	0	0	0	0	0	0	0	0	0	0	0
082119	16:49:55	16:56:41	404994	5.0.10.0	5_exp_RW	111	Rpleas_acq	CS_A	JQQJ	CPPC	DXXD	LWWL	YFFY	ZHHZ	gütig	vertrauen	träumen	sonnig	genießen	küssen	gierig	versagen	töten	sterben	gemein	krank	1	acq_USpleas_CSpleas1_RW	acq4567_RW	4	75	400	0	300	300	323	46	0	0	1	blank2r.bmp	0	1	+	0	1	blank2r.bmp	492	1	JQQJ	492	1	blank2r.bmp	572	1	gütig	866	1	!	-1	1	!	-1	0	0	0	0	0	0	0	0	0	0	0	0	0	0	0	0	0	0	0	0	0	0	0	0	0	0	0	0	0	0
082119	16:49:55	16:56:43	407166	5.0.10.0	5_exp_RW	111	Rpleas_acq	CS_A	JQQJ	CPPC	DXXD	LWWL	YFFY	ZHHZ	gütig	vertrauen	träumen	sonnig	genießen	küssen	gierig	versagen	töten	sterben	gemein	krank	1	acq_USunple_CSunple1_RW	acq4567_RW	4	76	400	1	300	300	364	46	0	1	1	blank2r.bmp	0	1	+	0	1	blank2r.bmp	492	1	DXXD	492	1	blank2r.bmp	572	3	töten	866	1	!	1239	1	!	1266	0	0	0	0	0	0	0	0	0	0	0	0	0	0	0	0	0	0	0	0	0	0	0	0	0	0	0	0	0	0
082119	16:49:55	16:56:45	409405	5.0.10.0	5_exp_RW	111	Rpleas_acq	CS_A	JQQJ	CPPC	DXXD	LWWL	YFFY	ZHHZ	gütig	vertrauen	träumen	sonnig	genießen	küssen	gierig	versagen	töten	sterben	gemein	krank	1	acq_USpleas_CSpleas1_RW	acq4567_RW	4	77	400	1	300	300	445	46	0	0	1	blank2r.bmp	0	1	+	0	1	blank2r.bmp	492	1	JQQJ	492	1	blank2r.bmp	572	1	gütig	866	1	!	1239	1	!	1346	0	0	0	0	0	0	0	0	0	0	0	0	0	0	0	0	0	0	0	0	0	0	0	0	0	0	0	0	0	0
082119	16:49:55	16:56:47	411458	5.0.10.0	5_exp_RW	111	Rpleas_acq	CS_A	JQQJ	CPPC	DXXD	LWWL	YFFY	ZHHZ	gütig	vertrauen	träumen	sonnig	genießen	küssen	gierig	versagen	töten	sterben	gemein	krank	1	acq_USpleas_CSpleas1_RW	acq4567_RW	4	78	400	0	300	300	281	50	0	1	1	blank2r.bmp	0	1	+	0	1	blank2r.bmp	492	1	JQQJ	492	1	blank2r.bmp	572	3	träumen	866	1	!	-1	1	!	-1	0	0	0	0	0	0	0	0	0	0	0	0	0	0	0	0	0	0	0	0	0	0	0	0	0	0	0	0	0	0
082119	16:49:55	16:56:49	413697	5.0.10.0	5_exp_RW	111	Rpleas_acq	CS_A	JQQJ	CPPC	DXXD	LWWL	YFFY	ZHHZ	gütig	vertrauen	träumen	sonnig	genießen	küssen	gierig	versagen	töten	sterben	gemein	krank	1	acq_USunple_CSunple2_RW	acq4567_RW	4	79	400	1	300	300	437	46	0	1	1	blank2r.bmp	0	1	+	0	1	blank2r.bmp	492	1	LWWL	492	1	blank2r.bmp	572	2	gemein	866	1	!	1239	1	!	1332	0	0	0	0	0	0	0	0	0	0	0	0	0	0	0	0	0	0	0	0	0	0	0	0	0	0	0	0	0	0
082119	16:49:55	16:56:51	415856	5.0.10.0	5_exp_RW	111	Rpleas_acq	CS_A	JQQJ	CPPC	DXXD	LWWL	YFFY	ZHHZ	gütig	vertrauen	träumen	sonnig	genießen	küssen	gierig	versagen	töten	sterben	gemein	krank	1	acq_USpleas_CSpleas1_RW	acq4567_RW	4	80	400	1	300	300	372	46	0	0	1	blank2r.bmp	0	1	+	0	1	blank2r.bmp	492	1	JQQJ	492	1	blank2r.bmp	572	2	vertrauen	866	1	!	1239	1	!	1266	0	0	0	0	0	0	0	0	0	0	0	0	0	0	0	0	0	0	0	0	0	0	0	0	0	0	0	0	0	0
082119	16:49:55	16:56:57	421547	5.0.10.0	5_exp_RW	111	Rpleas_acq	CS_A	JQQJ	CPPC	DXXD	LWWL	YFFY	ZHHZ	gütig	vertrauen	träumen	sonnig	genießen	küssen	gierig	versagen	töten	sterben	gemein	krank	1	acq_USpleas_CSpleas1_RW	acq4567_RW	5	1	400	1	300	300	449	50	0	1	1	blank2r.bmp	0	1	+	0	1	blank2r.bmp	492	1	JQQJ	492	1	blank2r.bmp	572	2	vertrauen	866	1	!	1239	1	!	1346	0	0	0	0	0	0	0	0	0	0	0	0	0	0	0	0	0	0	0	0	0	0	0	0	0	0	0	0	0	0
082119	16:49:55	16:56:59	423786	5.0.10.0	5_exp_RW	111	Rpleas_acq	CS_A	JQQJ	CPPC	DXXD	LWWL	YFFY	ZHHZ	gütig	vertrauen	träumen	sonnig	genießen	küssen	gierig	versagen	töten	sterben	gemein	krank	1	acq_USpleas_CSpleas1_RW	acq4567_RW	5	2	400	1	300	300	440	50	0	1	1	blank2r.bmp	0	1	+	0	1	blank2r.bmp	492	1	JQQJ	492	1	blank2r.bmp	572	3	träumen	866	1	!	1239	1	!	1346	0	0	0	0	0	0	0	0	0	0	0	0	0	0	0	0	0	0	0	0	0	0	0	0	0	0	0	0	0	0
082119	16:49:55	16:57:01	425878	5.0.10.0	5_exp_RW	111	Rpleas_acq	CS_A	JQQJ	CPPC	DXXD	LWWL	YFFY	ZHHZ	gütig	vertrauen	träumen	sonnig	genießen	küssen	gierig	versagen	töten	sterben	gemein	krank	1	acq_USpleas_CSpleas2_RW	acq4567_RW	5	3	400	0	300	300	325	46	0	0	1	blank2r.bmp	0	1	+	0	1	blank2r.bmp	492	1	CPPC	492	1	blank2r.bmp	572	2	genießen	866	1	!	-1	1	!	-1	0	0	0	0	0	0	0	0	0	0	0	0	0	0	0	0	0	0	0	0	0	0	0	0	0	0	0	0	0	0
082119	16:49:55	16:57:04	428051	5.0.10.0	5_exp_RW	111	Rpleas_acq	CS_A	JQQJ	CPPC	DXXD	LWWL	YFFY	ZHHZ	gütig	vertrauen	träumen	sonnig	genießen	küssen	gierig	versagen	töten	sterben	gemein	krank	1	acq_USpleas_CSpleas2_RW	acq4567_RW	5	4	400	1	300	300	360	50	0	1	1	blank2r.bmp	0	1	+	0	1	blank2r.bmp	492	1	CPPC	492	1	blank2r.bmp	572	1	sonnig	866	1	!	1239	1	!	1266	0	0	0	0	0	0	0	0	0	0	0	0	0	0	0	0	0	0	0	0	0	0	0	0	0	0	0	0	0	0
082119	16:49:55	16:57:06	430197	5.0.10.0	5_exp_RW	111	Rpleas_acq	CS_A	JQQJ	CPPC	DXXD	LWWL	YFFY	ZHHZ	gütig	vertrauen	träumen	sonnig	genießen	küssen	gierig	versagen	töten	sterben	gemein	krank	1	acq_USpleas_CSpleas2_RW	acq4567_RW	5	5	400	1	300	300	346	50	0	1	1	blank2r.bmp	0	1	+	0	1	blank2r.bmp	492	1	CPPC	492	1	blank2r.bmp	572	3	küssen	866	1	!	1239	1	!	1252	0	0	0	0	0	0	0	0	0	0	0	0	0	0	0	0	0	0	0	0	0	0	0	0	0	0	0	0	0	0
082119	16:49:55	16:57:08	432382	5.0.10.0	5_exp_RW	111	Rpleas_acq	CS_A	JQQJ	CPPC	DXXD	LWWL	YFFY	ZHHZ	gütig	vertrauen	träumen	sonnig	genießen	küssen	gierig	versagen	töten	sterben	gemein	krank	1	acq_USpleas_CSpleas2_RW	acq4567_RW	5	6	400	1	300	300	397	50	0	1	1	blank2r.bmp	0	1	+	0	1	blank2r.bmp	492	1	CPPC	492	1	blank2r.bmp	572	3	küssen	866	1	!	1239	1	!	1292	0	0	0	0	0	0	0	0	0	0	0	0	0	0	0	0	0	0	0	0	0	0	0	0	0	0	0	0	0	0
082119	16:49:55	16:57:10	434621	5.0.10.0	5_exp_RW	111	Rpleas_acq	CS_A	JQQJ	CPPC	DXXD	LWWL	YFFY	ZHHZ	gütig	vertrauen	träumen	sonnig	genießen	küssen	gierig	versagen	töten	sterben	gemein	krank	1	acq_USpleas_CSpleas1_RW	acq4567_RW	5	7	400	1	300	300	446	46	0	0	1	blank2r.bmp	0	1	+	0	1	blank2r.bmp	492	1	JQQJ	492	1	blank2r.bmp	572	1	gütig	866	1	!	1239	1	!	1346	0	0	0	0	0	0	0	0	0	0	0	0	0	0	0	0	0	0	0	0	0	0	0	0	0	0	0	0	0	0
082119	16:49:55	16:57:12	436794	5.0.10.0	5_exp_RW	111	Rpleas_acq	CS_A	JQQJ	CPPC	DXXD	LWWL	YFFY	ZHHZ	gütig	vertrauen	träumen	sonnig	genießen	küssen	gierig	versagen	töten	sterben	gemein	krank	1	acq_USunple_CSunple2_RW	acq4567_RW	5	8	400	1	300	300	380	46	0	1	1	blank2r.bmp	0	1	+	0	1	blank2r.bmp	492	1	LWWL	492	1	blank2r.bmp	572	1	sterben	866	1	!	1239	1	!	1279	0	0	0	0	0	0	0	0	0	0	0	0	0	0	0	0	0	0	0	0	0	0	0	0	0	0	0	0	0	0
082119	16:49:55	16:57:15	439060	5.0.10.0	5_exp_RW	111	Rpleas_acq	CS_A	JQQJ	CPPC	DXXD	LWWL	YFFY	ZHHZ	gütig	vertrauen	träumen	sonnig	genießen	küssen	gierig	versagen	töten	sterben	gemein	krank	1	acq_USpleas_CSpleas1_RW	acq4567_RW	5	9	400	1	300	300	462	46	0	0	1	blank2r.bmp	0	1	+	0	1	blank2r.bmp	492	1	JQQJ	492	1	blank2r.bmp	572	1	gütig	866	1	!	1239	1	!	1359	0	0	0	0	0	0	0	0	0	0	0	0	0	0	0	0	0	0	0	0	0	0	0	0	0	0	0	0	0	0
082119	16:49:55	16:57:17	441339	5.0.10.0	5_exp_RW	111	Rpleas_acq	CS_A	JQQJ	CPPC	DXXD	LWWL	YFFY	ZHHZ	gütig	vertrauen	träumen	sonnig	genießen	küssen	gierig	versagen	töten	sterben	gemein	krank	1	acq_USunple_CSunple1_RW	acq4567_RW	5	10	400	0	300	300	513	46	0	1	1	blank2r.bmp	0	1	+	0	1	blank2r.bmp	492	1	DXXD	492	1	blank2r.bmp	572	3	töten	866	1	!	1239	1	!	-1	0	0	0	0	0	0	0	0	0	0	0	0	0	0	0	0	0	0	0	0	0	0	0	0	0	0	0	0	0	0
082119	16:49:55	16:57:19	443418	5.0.10.0	5_exp_RW	111	Rpleas_acq	CS_A	JQQJ	CPPC	DXXD	LWWL	YFFY	ZHHZ	gütig	vertrauen	träumen	sonnig	genießen	küssen	gierig	versagen	töten	sterben	gemein	krank	1	acq_USunple_CSunple1_RW	acq4567_RW	5	11	400	0	300	300	298	50	0	0	1	blank2r.bmp	0	1	+	0	1	blank2r.bmp	492	1	DXXD	492	1	blank2r.bmp	572	1	gierig	866	1	!	-1	1	!	-1	0	0	0	0	0	0	0	0	0	0	0	0	0	0	0	0	0	0	0	0	0	0	0	0	0	0	0	0	0	0
082119	16:49:55	16:57:21	445524	5.0.10.0	5_exp_RW	111	Rpleas_acq	CS_A	JQQJ	CPPC	DXXD	LWWL	YFFY	ZHHZ	gütig	vertrauen	träumen	sonnig	genießen	küssen	gierig	versagen	töten	sterben	gemein	krank	1	acq_USunple_CSunple2_RW	acq4567_RW	5	12	400	0	300	300	322	46	0	1	1	blank2r.bmp	0	1	+	0	1	blank2r.bmp	492	1	LWWL	492	1	blank2r.bmp	572	3	krank	866	1	!	-1	1	!	-1	0	0	0	0	0	0	0	0	0	0	0	0	0	0	0	0	0	0	0	0	0	0	0	0	0	0	0	0	0	0
082119	16:49:55	16:57:23	447789	5.0.10.0	5_exp_RW	111	Rpleas_acq	CS_A	JQQJ	CPPC	DXXD	LWWL	YFFY	ZHHZ	gütig	vertrauen	träumen	sonnig	genießen	küssen	gierig	versagen	töten	sterben	gemein	krank	1	acq_USunple_CSunple1_RW	acq4567_RW	5	13	400	1	300	300	454	46	0	1	1	blank2r.bmp	0	1	+	0	1	blank2r.bmp	492	1	DXXD	492	1	blank2r.bmp	572	2	versagen	866	1	!	1239	1	!	1359	0	0	0	0	0	0	0	0	0	0	0	0	0	0	0	0	0	0	0	0	0	0	0	0	0	0	0	0	0	0
082119	16:49:55	16:57:26	449962	5.0.10.0	5_exp_RW	111	Rpleas_acq	CS_A	JQQJ	CPPC	DXXD	LWWL	YFFY	ZHHZ	gütig	vertrauen	träumen	sonnig	genießen	küssen	gierig	versagen	töten	sterben	gemein	krank	1	acq_USpleas_CSpleas1_RW	acq4567_RW	5	14	400	1	300	300	381	50	0	1	1	blank2r.bmp	0	1	+	0	1	blank2r.bmp	492	1	JQQJ	492	1	blank2r.bmp	572	2	vertrauen	866	1	!	1239	1	!	1279	0	0	0	0	0	0	0	0	0	0	0	0	0	0	0	0	0	0	0	0	0	0	0	0	0	0	0	0	0	0
082119	16:49:55	16:57:28	452281	5.0.10.0	5_exp_RW	111	Rpleas_acq	CS_A	JQQJ	CPPC	DXXD	LWWL	YFFY	ZHHZ	gütig	vertrauen	träumen	sonnig	genießen	küssen	gierig	versagen	töten	sterben	gemein	krank	1	acq_USunple_CSunple1_RW	acq4567_RW	5	15	400	0	300	300	548	46	0	1	1	blank2r.bmp	0	1	+	0	1	blank2r.bmp	492	1	DXXD	492	1	blank2r.bmp	572	1	gierig	866	1	!	1239	1	!	-1	0	0	0	0	0	0	0	0	0	0	0	0	0	0	0	0	0	0	0	0	0	0	0	0	0	0	0	0	0	0
082119	16:49:55	16:57:30	454347	5.0.10.0	5_exp_RW	111	Rpleas_acq	CS_A	JQQJ	CPPC	DXXD	LWWL	YFFY	ZHHZ	gütig	vertrauen	träumen	sonnig	genießen	küssen	gierig	versagen	töten	sterben	gemein	krank	1	acq_USunple_CSunple2_RW	acq4567_RW	5	16	400	0	300	300	281	46	0	1	1	blank2r.bmp	0	1	+	0	1	blank2r.bmp	492	1	LWWL	492	1	blank2r.bmp	572	2	gemein	866	1	!	-1	1	!	-1	0	0	0	0	0	0	0	0	0	0	0	0	0	0	0	0	0	0	0	0	0	0	0	0	0	0	0	0	0	0
082119	16:49:55	16:57:32	456426	5.0.10.0	5_exp_RW	111	Rpleas_acq	CS_A	JQQJ	CPPC	DXXD	LWWL	YFFY	ZHHZ	gütig	vertrauen	träumen	sonnig	genießen	küssen	gierig	versagen	töten	sterben	gemein	krank	1	acq_USunple_CSunple2_RW	acq4567_RW	5	17	400	0	300	300	292	46	0	1	1	blank2r.bmp	0	1	+	0	1	blank2r.bmp	492	1	LWWL	492	1	blank2r.bmp	572	2	gemein	866	1	!	-1	1	!	-1	0	0	0	0	0	0	0	0	0	0	0	0	0	0	0	0	0	0	0	0	0	0	0	0	0	0	0	0	0	0
082119	16:49:55	16:57:34	458692	5.0.10.0	5_exp_RW	111	Rpleas_acq	CS_A	JQQJ	CPPC	DXXD	LWWL	YFFY	ZHHZ	gütig	vertrauen	träumen	sonnig	genießen	küssen	gierig	versagen	töten	sterben	gemein	krank	1	acq_USpleas_CSpleas2_RW	acq4567_RW	5	18	400	0	300	300	479	50	0	1	1	blank2r.bmp	0	1	+	0	1	blank2r.bmp	492	1	CPPC	492	1	blank2r.bmp	572	1	sonnig	866	1	!	1239	1	!	-1	0	0	0	0	0	0	0	0	0	0	0	0	0	0	0	0	0	0	0	0	0	0	0	0	0	0	0	0	0	0
082119	16:49:55	16:57:36	460757	5.0.10.0	5_exp_RW	111	Rpleas_acq	CS_A	JQQJ	CPPC	DXXD	LWWL	YFFY	ZHHZ	gütig	vertrauen	träumen	sonnig	genießen	küssen	gierig	versagen	töten	sterben	gemein	krank	1	acq_USunple_CSunple1_RW	acq4567_RW	5	19	400	0	300	300	278	50	0	0	1	blank2r.bmp	0	1	+	0	1	blank2r.bmp	492	1	DXXD	492	1	blank2r.bmp	572	2	versagen	866	1	!	-1	1	!	-1	0	0	0	0	0	0	0	0	0	0	0	0	0	0	0	0	0	0	0	0	0	0	0	0	0	0	0	0	0	0
082119	16:49:55	16:57:38	462783	5.0.10.0	5_exp_RW	111	Rpleas_acq	CS_A	JQQJ	CPPC	DXXD	LWWL	YFFY	ZHHZ	gütig	vertrauen	träumen	sonnig	genießen	küssen	gierig	versagen	töten	sterben	gemein	krank	1	acq_USunple_CSunple2_RW	acq4567_RW	5	20	400	0	300	300	228	46	0	1	1	blank2r.bmp	0	1	+	0	1	blank2r.bmp	492	1	LWWL	492	1	blank2r.bmp	572	3	krank	866	1	!	-1	1	!	-1	0	0	0	0	0	0	0	0	0	0	0	0	0	0	0	0	0	0	0	0	0	0	0	0	0	0	0	0	0	0
082119	16:49:55	16:57:41	465036	5.0.10.0	5_exp_RW	111	Rpleas_acq	CS_A	JQQJ	CPPC	DXXD	LWWL	YFFY	ZHHZ	gütig	vertrauen	träumen	sonnig	genießen	küssen	gierig	versagen	töten	sterben	gemein	krank	1	acq_USpleas_CSpleas2_RW	acq4567_RW	5	21	400	1	300	300	448	50	0	1	1	blank2r.bmp	0	1	+	0	1	blank2r.bmp	492	1	CPPC	492	1	blank2r.bmp	572	2	genießen	866	1	!	1239	1	!	1346	0	0	0	0	0	0	0	0	0	0	0	0	0	0	0	0	0	0	0	0	0	0	0	0	0	0	0	0	0	0
082119	16:49:55	16:57:43	467288	5.0.10.0	5_exp_RW	111	Rpleas_acq	CS_A	JQQJ	CPPC	DXXD	LWWL	YFFY	ZHHZ	gütig	vertrauen	träumen	sonnig	genießen	küssen	gierig	versagen	töten	sterben	gemein	krank	1	acq_USpleas_CSpleas2_RW	acq4567_RW	5	22	400	1	300	300	461	50	0	1	1	blank2r.bmp	0	1	+	0	1	blank2r.bmp	492	1	CPPC	492	1	blank2r.bmp	572	3	küssen	866	1	!	1239	1	!	1359	0	0	0	0	0	0	0	0	0	0	0	0	0	0	0	0	0	0	0	0	0	0	0	0	0	0	0	0	0	0
082119	16:49:55	16:57:45	469461	5.0.10.0	5_exp_RW	111	Rpleas_acq	CS_A	JQQJ	CPPC	DXXD	LWWL	YFFY	ZHHZ	gütig	vertrauen	träumen	sonnig	genießen	küssen	gierig	versagen	töten	sterben	gemein	krank	1	acq_USpleas_CSpleas2_RW	acq4567_RW	5	23	400	1	300	300	383	50	0	1	1	blank2r.bmp	0	1	+	0	1	blank2r.bmp	492	1	CPPC	492	1	blank2r.bmp	572	1	sonnig	866	1	!	1239	1	!	1279	0	0	0	0	0	0	0	0	0	0	0	0	0	0	0	0	0	0	0	0	0	0	0	0	0	0	0	0	0	0
082119	16:49:55	16:57:47	471540	5.0.10.0	5_exp_RW	111	Rpleas_acq	CS_A	JQQJ	CPPC	DXXD	LWWL	YFFY	ZHHZ	gütig	vertrauen	träumen	sonnig	genießen	küssen	gierig	versagen	töten	sterben	gemein	krank	1	acq_USpleas_CSpleas2_RW	acq4567_RW	5	24	400	0	300	300	303	50	0	1	1	blank2r.bmp	0	1	+	0	1	blank2r.bmp	492	1	CPPC	492	1	blank2r.bmp	572	2	genießen	866	1	!	-1	1	!	-1	0	0	0	0	0	0	0	0	0	0	0	0	0	0	0	0	0	0	0	0	0	0	0	0	0	0	0	0	0	0
082119	16:49:55	16:57:49	473752	5.0.10.0	5_exp_RW	111	Rpleas_acq	CS_A	JQQJ	CPPC	DXXD	LWWL	YFFY	ZHHZ	gütig	vertrauen	träumen	sonnig	genießen	küssen	gierig	versagen	töten	sterben	gemein	krank	1	acq_USpleas_CSpleas1_RW	acq4567_RW	5	25	400	1	300	300	400	50	0	1	1	blank2r.bmp	0	1	+	0	1	blank2r.bmp	492	1	JQQJ	492	1	blank2r.bmp	572	3	träumen	866	1	!	1239	1	!	1306	0	0	0	0	0	0	0	0	0	0	0	0	0	0	0	0	0	0	0	0	0	0	0	0	0	0	0	0	0	0
082119	16:49:55	16:57:51	475911	5.0.10.0	5_exp_RW	111	Rpleas_acq	CS_A	JQQJ	CPPC	DXXD	LWWL	YFFY	ZHHZ	gütig	vertrauen	träumen	sonnig	genießen	küssen	gierig	versagen	töten	sterben	gemein	krank	1	acq_USpleas_CSpleas1_RW	acq4567_RW	5	26	400	1	300	300	362	50	0	1	1	blank2r.bmp	0	1	+	0	1	blank2r.bmp	492	1	JQQJ	492	1	blank2r.bmp	572	2	vertrauen	866	1	!	1239	1	!	1266	0	0	0	0	0	0	0	0	0	0	0	0	0	0	0	0	0	0	0	0	0	0	0	0	0	0	0	0	0	0
082119	16:49:55	16:57:54	478097	5.0.10.0	5_exp_RW	111	Rpleas_acq	CS_A	JQQJ	CPPC	DXXD	LWWL	YFFY	ZHHZ	gütig	vertrauen	träumen	sonnig	genießen	küssen	gierig	versagen	töten	sterben	gemein	krank	1	acq_USpleas_CSpleas2_RW	acq4567_RW	5	27	400	1	300	300	386	50	0	1	1	blank2r.bmp	0	1	+	0	1	blank2r.bmp	492	1	CPPC	492	1	blank2r.bmp	572	1	sonnig	866	1	!	1239	1	!	1292	0	0	0	0	0	0	0	0	0	0	0	0	0	0	0	0	0	0	0	0	0	0	0	0	0	0	0	0	0	0
082119	16:49:55	16:57:56	480323	5.0.10.0	5_exp_RW	111	Rpleas_acq	CS_A	JQQJ	CPPC	DXXD	LWWL	YFFY	ZHHZ	gütig	vertrauen	träumen	sonnig	genießen	küssen	gierig	versagen	töten	sterben	gemein	krank	1	acq_USunple_CSunple2_RW	acq4567_RW	5	28	400	1	300	300	437	46	0	1	1	blank2r.bmp	0	1	+	0	1	blank2r.bmp	492	1	LWWL	492	1	blank2r.bmp	572	1	sterben	866	1	!	1239	1	!	1332	0	0	0	0	0	0	0	0	0	0	0	0	0	0	0	0	0	0	0	0	0	0	0	0	0	0	0	0	0	0
082119	16:49:55	16:57:58	482375	5.0.10.0	5_exp_RW	111	Rpleas_acq	CS_A	JQQJ	CPPC	DXXD	LWWL	YFFY	ZHHZ	gütig	vertrauen	träumen	sonnig	genießen	küssen	gierig	versagen	töten	sterben	gemein	krank	1	acq_USunple_CSunple1_RW	acq4567_RW	5	29	400	0	300	300	291	46	0	1	1	blank2r.bmp	0	1	+	0	1	blank2r.bmp	492	1	DXXD	492	1	blank2r.bmp	572	3	töten	866	1	!	-1	1	!	-1	0	0	0	0	0	0	0	0	0	0	0	0	0	0	0	0	0	0	0	0	0	0	0	0	0	0	0	0	0	0
082119	16:49:55	16:58:00	484534	5.0.10.0	5_exp_RW	111	Rpleas_acq	CS_A	JQQJ	CPPC	DXXD	LWWL	YFFY	ZHHZ	gütig	vertrauen	träumen	sonnig	genießen	küssen	gierig	versagen	töten	sterben	gemein	krank	1	acq_USunple_CSunple1_RW	acq4567_RW	5	30	400	1	300	300	356	46	0	1	1	blank2r.bmp	0	1	+	0	1	blank2r.bmp	492	1	DXXD	492	1	blank2r.bmp	572	1	gierig	866	1	!	1239	1	!	1252	0	0	0	0	0	0	0	0	0	0	0	0	0	0	0	0	0	0	0	0	0	0	0	0	0	0	0	0	0	0
082119	16:49:55	16:58:02	486680	5.0.10.0	5_exp_RW	111	Rpleas_acq	CS_A	JQQJ	CPPC	DXXD	LWWL	YFFY	ZHHZ	gütig	vertrauen	träumen	sonnig	genießen	küssen	gierig	versagen	töten	sterben	gemein	krank	1	acq_USpleas_CSpleas1_RW	acq4567_RW	5	31	400	1	300	300	346	46	0	0	1	blank2r.bmp	0	1	+	0	1	blank2r.bmp	492	1	JQQJ	492	1	blank2r.bmp	572	1	gütig	866	1	!	1239	1	!	1252	0	0	0	0	0	0	0	0	0	0	0	0	0	0	0	0	0	0	0	0	0	0	0	0	0	0	0	0	0	0
082119	16:49:55	16:58:05	489013	5.0.10.0	5_exp_RW	111	Rpleas_acq	CS_A	JQQJ	CPPC	DXXD	LWWL	YFFY	ZHHZ	gütig	vertrauen	träumen	sonnig	genießen	küssen	gierig	versagen	töten	sterben	gemein	krank	1	acq_USpleas_CSpleas1_RW	acq4567_RW	5	32	400	0	300	300	547	50	0	1	1	blank2r.bmp	0	1	+	0	1	blank2r.bmp	492	1	JQQJ	492	1	blank2r.bmp	572	3	träumen	866	1	!	1239	1	!	-1	0	0	0	0	0	0	0	0	0	0	0	0	0	0	0	0	0	0	0	0	0	0	0	0	0	0	0	0	0	0
082119	16:49:55	16:58:07	491038	5.0.10.0	5_exp_RW	111	Rpleas_acq	CS_A	JQQJ	CPPC	DXXD	LWWL	YFFY	ZHHZ	gütig	vertrauen	träumen	sonnig	genießen	küssen	gierig	versagen	töten	sterben	gemein	krank	1	acq_USunple_CSunple1_RW	acq4567_RW	5	33	400	0	300	300	238	50	0	0	1	blank2r.bmp	0	1	+	0	1	blank2r.bmp	492	1	DXXD	492	1	blank2r.bmp	572	2	versagen	866	1	!	-1	1	!	-1	0	0	0	0	0	0	0	0	0	0	0	0	0	0	0	0	0	0	0	0	0	0	0	0	0	0	0	0	0	0
082119	16:49:55	16:58:09	493038	5.0.10.0	5_exp_RW	111	Rpleas_acq	CS_A	JQQJ	CPPC	DXXD	LWWL	YFFY	ZHHZ	gütig	vertrauen	träumen	sonnig	genießen	küssen	gierig	versagen	töten	sterben	gemein	krank	1	acq_USunple_CSunple2_RW	acq4567_RW	5	34	400	0	300	300	221	46	0	1	1	blank2r.bmp	0	1	+	0	1	blank2r.bmp	492	1	LWWL	492	1	blank2r.bmp	572	2	gemein	866	1	!	-1	1	!	-1	0	0	0	0	0	0	0	0	0	0	0	0	0	0	0	0	0	0	0	0	0	0	0	0	0	0	0	0	0	0
082119	16:49:55	16:58:11	495223	5.0.10.0	5_exp_RW	111	Rpleas_acq	CS_A	JQQJ	CPPC	DXXD	LWWL	YFFY	ZHHZ	gütig	vertrauen	träumen	sonnig	genießen	küssen	gierig	versagen	töten	sterben	gemein	krank	1	acq_USunple_CSunple2_RW	acq4567_RW	5	35	400	1	300	300	384	46	0	1	1	blank2r.bmp	0	1	+	0	1	blank2r.bmp	492	1	LWWL	492	1	blank2r.bmp	572	1	sterben	866	1	!	1239	1	!	1279	0	0	0	0	0	0	0	0	0	0	0	0	0	0	0	0	0	0	0	0	0	0	0	0	0	0	0	0	0	0
082119	16:49:55	16:58:13	497289	5.0.10.0	5_exp_RW	111	Rpleas_acq	CS_A	JQQJ	CPPC	DXXD	LWWL	YFFY	ZHHZ	gütig	vertrauen	träumen	sonnig	genießen	küssen	gierig	versagen	töten	sterben	gemein	krank	1	acq_USunple_CSunple2_RW	acq4567_RW	5	36	400	0	300	300	297	46	0	1	1	blank2r.bmp	0	1	+	0	1	blank2r.bmp	492	1	LWWL	492	1	blank2r.bmp	572	3	krank	866	1	!	-1	1	!	-1	0	0	0	0	0	0	0	0	0	0	0	0	0	0	0	0	0	0	0	0	0	0	0	0	0	0	0	0	0	0
082119	16:49:55	16:58:15	499528	5.0.10.0	5_exp_RW	111	Rpleas_acq	CS_A	JQQJ	CPPC	DXXD	LWWL	YFFY	ZHHZ	gütig	vertrauen	träumen	sonnig	genießen	küssen	gierig	versagen	töten	sterben	gemein	krank	1	acq_USunple_CSunple1_RW	acq4567_RW	5	37	400	1	300	300	426	46	0	1	1	blank2r.bmp	0	1	+	0	1	blank2r.bmp	492	1	DXXD	492	1	blank2r.bmp	572	3	töten	866	1	!	1239	1	!	1332	0	0	0	0	0	0	0	0	0	0	0	0	0	0	0	0	0	0	0	0	0	0	0	0	0	0	0	0	0	0
082119	16:49:55	16:58:17	501594	5.0.10.0	5_exp_RW	111	Rpleas_acq	CS_A	JQQJ	CPPC	DXXD	LWWL	YFFY	ZHHZ	gütig	vertrauen	träumen	sonnig	genießen	küssen	gierig	versagen	töten	sterben	gemein	krank	1	acq_USunple_CSunple1_RW	acq4567_RW	5	38	400	0	300	300	297	46	0	1	1	blank2r.bmp	0	1	+	0	1	blank2r.bmp	492	1	DXXD	492	1	blank2r.bmp	572	2	versagen	866	1	!	-1	1	!	-1	0	0	0	0	0	0	0	0	0	0	0	0	0	0	0	0	0	0	0	0	0	0	0	0	0	0	0	0	0	0
082119	16:49:55	16:58:19	503753	5.0.10.0	5_exp_RW	111	Rpleas_acq	CS_A	JQQJ	CPPC	DXXD	LWWL	YFFY	ZHHZ	gütig	vertrauen	träumen	sonnig	genießen	küssen	gierig	versagen	töten	sterben	gemein	krank	1	acq_USpleas_CSpleas1_RW	acq4567_RW	5	39	400	1	300	300	358	46	0	0	1	blank2r.bmp	0	1	+	0	1	blank2r.bmp	492	1	JQQJ	492	1	blank2r.bmp	572	3	träumen	866	1	!	1239	1	!	1252	0	0	0	0	0	0	0	0	0	0	0	0	0	0	0	0	0	0	0	0	0	0	0	0	0	0	0	0	0	0
082119	16:49:55	16:58:22	505979	5.0.10.0	5_exp_RW	111	Rpleas_acq	CS_A	JQQJ	CPPC	DXXD	LWWL	YFFY	ZHHZ	gütig	vertrauen	träumen	sonnig	genießen	küssen	gierig	versagen	töten	sterben	gemein	krank	1	acq_USunple_CSunple2_RW	acq4567_RW	5	40	400	1	300	300	437	46	0	1	1	blank2r.bmp	0	1	+	0	1	blank2r.bmp	492	1	LWWL	492	1	blank2r.bmp	572	2	gemein	866	1	!	1239	1	!	1332	0	0	0	0	0	0	0	0	0	0	0	0	0	0	0	0	0	0	0	0	0	0	0	0	0	0	0	0	0	0
082119	16:49:55	16:58:24	508245	5.0.10.0	5_exp_RW	111	Rpleas_acq	CS_A	JQQJ	CPPC	DXXD	LWWL	YFFY	ZHHZ	gütig	vertrauen	träumen	sonnig	genießen	küssen	gierig	versagen	töten	sterben	gemein	krank	1	acq_USunple_CSunple2_RW	acq4567_RW	5	41	400	1	300	300	454	46	0	1	1	blank2r.bmp	0	1	+	0	1	blank2r.bmp	492	1	LWWL	492	1	blank2r.bmp	572	3	krank	866	1	!	1239	1	!	1359	0	0	0	0	0	0	0	0	0	0	0	0	0	0	0	0	0	0	0	0	0	0	0	0	0	0	0	0	0	0
082119	16:49:55	16:58:26	510484	5.0.10.0	5_exp_RW	111	Rpleas_acq	CS_A	JQQJ	CPPC	DXXD	LWWL	YFFY	ZHHZ	gütig	vertrauen	träumen	sonnig	genießen	küssen	gierig	versagen	töten	sterben	gemein	krank	1	acq_USpleas_CSpleas1_RW	acq4567_RW	5	42	400	1	300	300	450	50	0	1	1	blank2r.bmp	0	1	+	0	1	blank2r.bmp	492	1	JQQJ	492	1	blank2r.bmp	572	2	vertrauen	866	1	!	1239	1	!	1346	0	0	0	0	0	0	0	0	0	0	0	0	0	0	0	0	0	0	0	0	0	0	0	0	0	0	0	0	0	0
082119	16:49:55	16:58:28	512576	5.0.10.0	5_exp_RW	111	Rpleas_acq	CS_A	JQQJ	CPPC	DXXD	LWWL	YFFY	ZHHZ	gütig	vertrauen	träumen	sonnig	genießen	küssen	gierig	versagen	töten	sterben	gemein	krank	1	acq_USunple_CSunple1_RW	acq4567_RW	5	43	400	0	300	300	328	50	0	0	1	blank2r.bmp	0	1	+	0	1	blank2r.bmp	492	1	DXXD	492	1	blank2r.bmp	572	1	gierig	866	1	!	-1	1	!	-1	0	0	0	0	0	0	0	0	0	0	0	0	0	0	0	0	0	0	0	0	0	0	0	0	0	0	0	0	0	0
082119	16:49:55	16:58:30	514602	5.0.10.0	5_exp_RW	111	Rpleas_acq	CS_A	JQQJ	CPPC	DXXD	LWWL	YFFY	ZHHZ	gütig	vertrauen	träumen	sonnig	genießen	küssen	gierig	versagen	töten	sterben	gemein	krank	1	acq_USpleas_CSpleas2_RW	acq4567_RW	5	44	400	0	300	300	247	46	0	0	1	blank2r.bmp	0	1	+	0	1	blank2r.bmp	492	1	CPPC	492	1	blank2r.bmp	572	2	genießen	866	1	!	-1	1	!	-1	0	0	0	0	0	0	0	0	0	0	0	0	0	0	0	0	0	0	0	0	0	0	0	0	0	0	0	0	0	0
082119	16:49:55	16:58:32	516801	5.0.10.0	5_exp_RW	111	Rpleas_acq	CS_A	JQQJ	CPPC	DXXD	LWWL	YFFY	ZHHZ	gütig	vertrauen	träumen	sonnig	genießen	küssen	gierig	versagen	töten	sterben	gemein	krank	1	acq_USpleas_CSpleas2_RW	acq4567_RW	5	45	400	1	300	300	391	50	0	1	1	blank2r.bmp	0	1	+	0	1	blank2r.bmp	492	1	CPPC	492	1	blank2r.bmp	572	3	küssen	866	1	!	1239	1	!	1292	0	0	0	0	0	0	0	0	0	0	0	0	0	0	0	0	0	0	0	0	0	0	0	0	0	0	0	0	0	0
082119	16:49:55	16:58:38	522639	5.0.10.0	5_exp_RW	111	Rpleas_acq	CS_A	JQQJ	CPPC	DXXD	LWWL	YFFY	ZHHZ	gütig	vertrauen	träumen	sonnig	genießen	küssen	gierig	versagen	töten	sterben	gemein	krank	1	acq_USunple_CSunple1_RW	acq4567_RW	5	46	400	0	300	300	4070	50	0	0	1	blank2r.bmp	0	1	+	0	1	blank2r.bmp	492	1	DXXD	492	1	blank2r.bmp	572	3	töten	866	1	!	1239	1	!	-1	0	0	0	0	0	0	0	0	0	0	0	0	0	0	0	0	0	0	0	0	0	0	0	0	0	0	0	0	0	0
082119	16:49:55	16:58:43	527224	5.0.10.0	5_exp_RW	111	Rpleas_acq	CS_A	JQQJ	CPPC	DXXD	LWWL	YFFY	ZHHZ	gütig	vertrauen	träumen	sonnig	genießen	küssen	gierig	versagen	töten	sterben	gemein	krank	1	acq_USpleas_CSpleas2_RW	acq4567_RW	5	47	400	0	300	300	2803	50	0	1	1	blank2r.bmp	0	1	+	0	1	blank2r.bmp	492	1	CPPC	492	1	blank2r.bmp	572	2	genießen	866	1	!	1239	1	!	-1	0	0	0	0	0	0	0	0	0	0	0	0	0	0	0	0	0	0	0	0	0	0	0	0	0	0	0	0	0	0
082119	16:49:55	16:58:45	529263	5.0.10.0	5_exp_RW	111	Rpleas_acq	CS_A	JQQJ	CPPC	DXXD	LWWL	YFFY	ZHHZ	gütig	vertrauen	träumen	sonnig	genießen	küssen	gierig	versagen	töten	sterben	gemein	krank	1	acq_USunple_CSunple2_RW	acq4567_RW	5	48	400	0	300	300	255	50	0	0	1	blank2r.bmp	0	1	+	0	1	blank2r.bmp	492	1	LWWL	492	1	blank2r.bmp	572	1	sterben	866	1	!	-1	1	!	-1	0	0	0	0	0	0	0	0	0	0	0	0	0	0	0	0	0	0	0	0	0	0	0	0	0	0	0	0	0	0
082119	16:49:55	16:58:47	531488	5.0.10.0	5_exp_RW	111	Rpleas_acq	CS_A	JQQJ	CPPC	DXXD	LWWL	YFFY	ZHHZ	gütig	vertrauen	träumen	sonnig	genießen	küssen	gierig	versagen	töten	sterben	gemein	krank	1	acq_USpleas_CSpleas1_RW	acq4567_RW	5	49	400	1	300	300	420	50	0	1	1	blank2r.bmp	0	1	+	0	1	blank2r.bmp	492	1	JQQJ	492	1	blank2r.bmp	572	1	gütig	866	1	!	1239	1	!	1319	0	0	0	0	0	0	0	0	0	0	0	0	0	0	0	0	0	0	0	0	0	0	0	0	0	0	0	0	0	0
082119	16:49:55	16:59:09	553173	5.0.10.0	5_exp_RW	111	Rpleas_acq	CS_A	JQQJ	CPPC	DXXD	LWWL	YFFY	ZHHZ	gütig	vertrauen	träumen	sonnig	genießen	küssen	gierig	versagen	töten	sterben	gemein	krank	1	acq_USunple_CSunple1_RW	acq4567_RW	5	50	400	0	300	300	19922	46	0	1	1	blank2r.bmp	0	1	+	0	1	blank2r.bmp	492	1	DXXD	492	1	blank2r.bmp	572	1	gierig	866	1	!	1239	1	!	-1	0	0	0	0	0	0	0	0	0	0	0	0	0	0	0	0	0	0	0	0	0	0	0	0	0	0	0	0	0	0
082119	16:49:55	16:59:11	554959	5.0.10.0	5_exp_RW	111	Rpleas_acq	CS_A	JQQJ	CPPC	DXXD	LWWL	YFFY	ZHHZ	gütig	vertrauen	träumen	sonnig	genießen	küssen	gierig	versagen	töten	sterben	gemein	krank	1	acq_USunple_CSunple2_RW	acq4567_RW	5	51	400	0	300	300	8	46	0	1	1	blank2r.bmp	0	1	+	0	1	blank2r.bmp	492	1	LWWL	492	1	blank2r.bmp	572	1	sterben	866	1	!	-1	1	!	-1	0	0	0	0	0	0	0	0	0	0	0	0	0	0	0	0	0	0	0	0	0	0	0	0	0	0	0	0	0	0
082119	16:49:55	16:59:13	557185	5.0.10.0	5_exp_RW	111	Rpleas_acq	CS_A	JQQJ	CPPC	DXXD	LWWL	YFFY	ZHHZ	gütig	vertrauen	träumen	sonnig	genießen	küssen	gierig	versagen	töten	sterben	gemein	krank	1	acq_USunple_CSunple2_RW	acq4567_RW	5	52	400	1	300	300	412	46	0	1	1	blank2r.bmp	0	1	+	0	1	blank2r.bmp	492	1	LWWL	492	1	blank2r.bmp	572	2	gemein	866	1	!	1239	1	!	1319	0	0	0	0	0	0	0	0	0	0	0	0	0	0	0	0	0	0	0	0	0	0	0	0	0	0	0	0	0	0
082119	16:49:55	16:59:15	559397	5.0.10.0	5_exp_RW	111	Rpleas_acq	CS_A	JQQJ	CPPC	DXXD	LWWL	YFFY	ZHHZ	gütig	vertrauen	träumen	sonnig	genießen	küssen	gierig	versagen	töten	sterben	gemein	krank	1	acq_USunple_CSunple1_RW	acq4567_RW	5	53	400	1	300	300	423	46	0	1	1	blank2r.bmp	0	1	+	0	1	blank2r.bmp	492	1	DXXD	492	1	blank2r.bmp	572	3	töten	866	1	!	1239	1	!	1319	0	0	0	0	0	0	0	0	0	0	0	0	0	0	0	0	0	0	0	0	0	0	0	0	0	0	0	0	0	0
082119	16:49:55	16:59:17	561543	5.0.10.0	5_exp_RW	111	Rpleas_acq	CS_A	JQQJ	CPPC	DXXD	LWWL	YFFY	ZHHZ	gütig	vertrauen	träumen	sonnig	genießen	küssen	gierig	versagen	töten	sterben	gemein	krank	1	acq_USunple_CSunple1_RW	acq4567_RW	5	54	400	1	300	300	347	46	0	1	1	blank2r.bmp	0	1	+	0	1	blank2r.bmp	492	1	DXXD	492	1	blank2r.bmp	572	2	versagen	866	1	!	1239	1	!	1252	0	0	0	0	0	0	0	0	0	0	0	0	0	0	0	0	0	0	0	0	0	0	0	0	0	0	0	0	0	0
082119	16:49:55	16:59:19	563649	5.0.10.0	5_exp_RW	111	Rpleas_acq	CS_A	JQQJ	CPPC	DXXD	LWWL	YFFY	ZHHZ	gütig	vertrauen	träumen	sonnig	genießen	küssen	gierig	versagen	töten	sterben	gemein	krank	1	acq_USpleas_CSpleas2_RW	acq4567_RW	5	55	400	0	300	300	333	46	0	0	1	blank2r.bmp	0	1	+	0	1	blank2r.bmp	492	1	CPPC	492	1	blank2r.bmp	572	1	sonnig	866	1	!	-1	1	!	-1	0	0	0	0	0	0	0	0	0	0	0	0	0	0	0	0	0	0	0	0	0	0	0	0	0	0	0	0	0	0
082119	16:49:55	16:59:21	565755	5.0.10.0	5_exp_RW	111	Rpleas_acq	CS_A	JQQJ	CPPC	DXXD	LWWL	YFFY	ZHHZ	gütig	vertrauen	träumen	sonnig	genießen	küssen	gierig	versagen	töten	sterben	gemein	krank	1	acq_USpleas_CSpleas2_RW	acq4567_RW	5	56	400	0	300	300	328	50	0	1	1	blank2r.bmp	0	1	+	0	1	blank2r.bmp	492	1	CPPC	492	1	blank2r.bmp	572	3	küssen	866	1	!	-1	1	!	-1	0	0	0	0	0	0	0	0	0	0	0	0	0	0	0	0	0	0	0	0	0	0	0	0	0	0	0	0	0	0
082119	16:49:55	16:59:24	567994	5.0.10.0	5_exp_RW	111	Rpleas_acq	CS_A	JQQJ	CPPC	DXXD	LWWL	YFFY	ZHHZ	gütig	vertrauen	träumen	sonnig	genießen	küssen	gierig	versagen	töten	sterben	gemein	krank	1	acq_USpleas_CSpleas1_RW	acq4567_RW	5	57	400	1	300	300	433	46	0	0	1	blank2r.bmp	0	1	+	0	1	blank2r.bmp	492	1	JQQJ	492	1	blank2r.bmp	572	2	vertrauen	866	1	!	1239	1	!	1332	0	0	0	0	0	0	0	0	0	0	0	0	0	0	0	0	0	0	0	0	0	0	0	0	0	0	0	0	0	0
082119	16:49:55	16:59:26	570059	5.0.10.0	5_exp_RW	111	Rpleas_acq	CS_A	JQQJ	CPPC	DXXD	LWWL	YFFY	ZHHZ	gütig	vertrauen	träumen	sonnig	genießen	küssen	gierig	versagen	töten	sterben	gemein	krank	1	acq_USpleas_CSpleas1_RW	acq4567_RW	5	58	400	0	300	300	300	50	0	1	1	blank2r.bmp	0	1	+	0	1	blank2r.bmp	492	1	JQQJ	492	1	blank2r.bmp	572	3	träumen	866	1	!	-1	1	!	-1	0	0	0	0	0	0	0	0	0	0	0	0	0	0	0	0	0	0	0	0	0	0	0	0	0	0	0	0	0	0
082119	16:49:55	16:59:28	572258	5.0.10.0	5_exp_RW	111	Rpleas_acq	CS_A	JQQJ	CPPC	DXXD	LWWL	YFFY	ZHHZ	gütig	vertrauen	träumen	sonnig	genießen	küssen	gierig	versagen	töten	sterben	gemein	krank	1	acq_USunple_CSunple2_RW	acq4567_RW	5	59	400	1	300	300	398	46	0	1	1	blank2r.bmp	0	1	+	0	1	blank2r.bmp	492	1	LWWL	492	1	blank2r.bmp	572	3	krank	866	1	!	1239	1	!	1292	0	0	0	0	0	0	0	0	0	0	0	0	0	0	0	0	0	0	0	0	0	0	0	0	0	0	0	0	0	0
082119	16:49:55	16:59:30	574431	5.0.10.0	5_exp_RW	111	Rpleas_acq	CS_A	JQQJ	CPPC	DXXD	LWWL	YFFY	ZHHZ	gütig	vertrauen	träumen	sonnig	genießen	küssen	gierig	versagen	töten	sterben	gemein	krank	1	acq_USpleas_CSpleas1_RW	acq4567_RW	5	60	400	1	300	300	376	50	0	1	1	blank2r.bmp	0	1	+	0	1	blank2r.bmp	492	1	JQQJ	492	1	blank2r.bmp	572	1	gütig	866	1	!	1239	1	!	1279	0	0	0	0	0	0	0	0	0	0	0	0	0	0	0	0	0	0	0	0	0	0	0	0	0	0	0	0	0	0
082119	16:49:55	16:59:32	576750	5.0.10.0	5_exp_RW	111	Rpleas_acq	CS_A	JQQJ	CPPC	DXXD	LWWL	YFFY	ZHHZ	gütig	vertrauen	träumen	sonnig	genießen	küssen	gierig	versagen	töten	sterben	gemein	krank	1	acq_USunple_CSunple1_RW	acq4567_RW	5	61	400	0	300	300	539	46	0	1	1	blank2r.bmp	0	1	+	0	1	blank2r.bmp	492	1	DXXD	492	1	blank2r.bmp	572	1	gierig	866	1	!	1239	1	!	-1	0	0	0	0	0	0	0	0	0	0	0	0	0	0	0	0	0	0	0	0	0	0	0	0	0	0	0	0	0	0
082119	16:49:55	16:59:35	578989	5.0.10.0	5_exp_RW	111	Rpleas_acq	CS_A	JQQJ	CPPC	DXXD	LWWL	YFFY	ZHHZ	gütig	vertrauen	träumen	sonnig	genießen	küssen	gierig	versagen	töten	sterben	gemein	krank	1	acq_USpleas_CSpleas1_RW	acq4567_RW	5	62	400	1	300	300	436	50	0	1	1	blank2r.bmp	0	1	+	0	1	blank2r.bmp	492	1	JQQJ	492	1	blank2r.bmp	572	3	träumen	866	1	!	1239	1	!	1332	0	0	0	0	0	0	0	0	0	0	0	0	0	0	0	0	0	0	0	0	0	0	0	0	0	0	0	0	0	0
082119	16:49:55	16:59:37	581188	5.0.10.0	5_exp_RW	111	Rpleas_acq	CS_A	JQQJ	CPPC	DXXD	LWWL	YFFY	ZHHZ	gütig	vertrauen	träumen	sonnig	genießen	küssen	gierig	versagen	töten	sterben	gemein	krank	1	acq_USpleas_CSpleas2_RW	acq4567_RW	5	63	400	1	300	300	410	50	0	1	1	blank2r.bmp	0	1	+	0	1	blank2r.bmp	492	1	CPPC	492	1	blank2r.bmp	572	2	genießen	866	1	!	1239	1	!	1306	0	0	0	0	0	0	0	0	0	0	0	0	0	0	0	0	0	0	0	0	0	0	0	0	0	0	0	0	0	0
082119	16:49:55	16:59:39	583334	5.0.10.0	5_exp_RW	111	Rpleas_acq	CS_A	JQQJ	CPPC	DXXD	LWWL	YFFY	ZHHZ	gütig	vertrauen	träumen	sonnig	genießen	küssen	gierig	versagen	töten	sterben	gemein	krank	1	acq_USpleas_CSpleas2_RW	acq4567_RW	5	64	400	1	300	300	346	50	0	1	1	blank2r.bmp	0	1	+	0	1	blank2r.bmp	492	1	CPPC	492	1	blank2r.bmp	572	3	küssen	866	1	!	1239	1	!	1252	0	0	0	0	0	0	0	0	0	0	0	0	0	0	0	0	0	0	0	0	0	0	0	0	0	0	0	0	0	0
082119	16:49:55	16:59:41	585480	5.0.10.0	5_exp_RW	111	Rpleas_acq	CS_A	JQQJ	CPPC	DXXD	LWWL	YFFY	ZHHZ	gütig	vertrauen	träumen	sonnig	genießen	küssen	gierig	versagen	töten	sterben	gemein	krank	1	acq_USunple_CSunple2_RW	acq4567_RW	5	65	400	1	300	300	348	46	0	1	1	blank2r.bmp	0	1	+	0	1	blank2r.bmp	492	1	LWWL	492	1	blank2r.bmp	572	1	sterben	866	1	!	1239	1	!	1252	0	0	0	0	0	0	0	0	0	0	0	0	0	0	0	0	0	0	0	0	0	0	0	0	0	0	0	0	0	0
082119	16:49:55	16:59:44	588452	5.0.10.0	5_exp_RW	111	Rpleas_acq	CS_A	JQQJ	CPPC	DXXD	LWWL	YFFY	ZHHZ	gütig	vertrauen	träumen	sonnig	genießen	küssen	gierig	versagen	töten	sterben	gemein	krank	1	acq_USunple_CSunple2_RW	acq4567_RW	5	66	400	0	300	300	1206	46	0	1	1	blank2r.bmp	0	1	+	0	1	blank2r.bmp	492	1	LWWL	492	1	blank2r.bmp	572	2	gemein	866	1	!	1239	1	!	-1	0	0	0	0	0	0	0	0	0	0	0	0	0	0	0	0	0	0	0	0	0	0	0	0	0	0	0	0	0	0
082119	16:49:55	16:59:50	594409	5.0.10.0	5_exp_RW	111	Rpleas_acq	CS_A	JQQJ	CPPC	DXXD	LWWL	YFFY	ZHHZ	gütig	vertrauen	träumen	sonnig	genießen	küssen	gierig	versagen	töten	sterben	gemein	krank	1	acq_USpleas_CSpleas2_RW	acq4567_RW	5	67	400	0	300	300	4172	50	0	1	1	blank2r.bmp	0	1	+	0	1	blank2r.bmp	492	1	CPPC	492	1	blank2r.bmp	572	1	sonnig	866	1	!	1239	1	!	-1	0	0	0	0	0	0	0	0	0	0	0	0	0	0	0	0	0	0	0	0	0	0	0	0	0	0	0	0	0	0
082119	16:49:55	16:59:52	596489	5.0.10.0	5_exp_RW	111	Rpleas_acq	CS_A	JQQJ	CPPC	DXXD	LWWL	YFFY	ZHHZ	gütig	vertrauen	träumen	sonnig	genießen	küssen	gierig	versagen	töten	sterben	gemein	krank	1	acq_USpleas_CSpleas2_RW	acq4567_RW	5	68	400	0	300	300	296	50	0	1	1	blank2r.bmp	0	1	+	0	1	blank2r.bmp	492	1	CPPC	492	1	blank2r.bmp	572	1	sonnig	866	1	!	-1	1	!	-1	0	0	0	0	0	0	0	0	0	0	0	0	0	0	0	0	0	0	0	0	0	0	0	0	0	0	0	0	0	0
082119	16:49:55	16:59:54	598728	5.0.10.0	5_exp_RW	111	Rpleas_acq	CS_A	JQQJ	CPPC	DXXD	LWWL	YFFY	ZHHZ	gütig	vertrauen	träumen	sonnig	genießen	küssen	gierig	versagen	töten	sterben	gemein	krank	1	acq_USpleas_CSpleas1_RW	acq4567_RW	5	69	400	1	300	300	428	50	0	1	1	blank2r.bmp	0	1	+	0	1	blank2r.bmp	492	1	JQQJ	492	1	blank2r.bmp	572	1	gütig	866	1	!	1239	1	!	1332	0	0	0	0	0	0	0	0	0	0	0	0	0	0	0	0	0	0	0	0	0	0	0	0	0	0	0	0	0	0
082119	16:49:55	16:59:56	600927	5.0.10.0	5_exp_RW	111	Rpleas_acq	CS_A	JQQJ	CPPC	DXXD	LWWL	YFFY	ZHHZ	gütig	vertrauen	träumen	sonnig	genießen	küssen	gierig	versagen	töten	sterben	gemein	krank	1	acq_USpleas_CSpleas1_RW	acq4567_RW	5	70	400	1	300	300	401	50	0	1	1	blank2r.bmp	0	1	+	0	1	blank2r.bmp	492	1	JQQJ	492	1	blank2r.bmp	572	2	vertrauen	866	1	!	1239	1	!	1306	0	0	0	0	0	0	0	0	0	0	0	0	0	0	0	0	0	0	0	0	0	0	0	0	0	0	0	0	0	0
082119	16:49:55	16:59:59	603086	5.0.10.0	5_exp_RW	111	Rpleas_acq	CS_A	JQQJ	CPPC	DXXD	LWWL	YFFY	ZHHZ	gütig	vertrauen	träumen	sonnig	genießen	küssen	gierig	versagen	töten	sterben	gemein	krank	1	acq_USunple_CSunple2_RW	acq4567_RW	5	71	400	1	300	300	364	46	0	1	1	blank2r.bmp	0	1	+	0	1	blank2r.bmp	492	1	LWWL	492	1	blank2r.bmp	572	3	krank	866	1	!	1239	1	!	1266	0	0	0	0	0	0	0	0	0	0	0	0	0	0	0	0	0	0	0	0	0	0	0	0	0	0	0	0	0	0
082119	16:49:55	17:00:01	605178	5.0.10.0	5_exp_RW	111	Rpleas_acq	CS_A	JQQJ	CPPC	DXXD	LWWL	YFFY	ZHHZ	gütig	vertrauen	träumen	sonnig	genießen	küssen	gierig	versagen	töten	sterben	gemein	krank	1	acq_USunple_CSunple1_RW	acq4567_RW	5	72	400	0	300	300	320	46	0	1	1	blank2r.bmp	0	1	+	0	1	blank2r.bmp	492	1	DXXD	492	1	blank2r.bmp	572	3	töten	866	1	!	-1	1	!	-1	0	0	0	0	0	0	0	0	0	0	0	0	0	0	0	0	0	0	0	0	0	0	0	0	0	0	0	0	0	0
082119	16:49:55	17:00:03	607258	5.0.10.0	5_exp_RW	111	Rpleas_acq	CS_A	JQQJ	CPPC	DXXD	LWWL	YFFY	ZHHZ	gütig	vertrauen	träumen	sonnig	genießen	küssen	gierig	versagen	töten	sterben	gemein	krank	1	acq_USunple_CSunple1_RW	acq4567_RW	5	73	400	0	300	300	296	50	0	0	1	blank2r.bmp	0	1	+	0	1	blank2r.bmp	492	1	DXXD	492	1	blank2r.bmp	572	2	versagen	866	1	!	-1	1	!	-1	0	0	0	0	0	0	0	0	0	0	0	0	0	0	0	0	0	0	0	0	0	0	0	0	0	0	0	0	0	0
082119	16:49:55	17:00:05	609523	5.0.10.0	5_exp_RW	111	Rpleas_acq	CS_A	JQQJ	CPPC	DXXD	LWWL	YFFY	ZHHZ	gütig	vertrauen	träumen	sonnig	genießen	küssen	gierig	versagen	töten	sterben	gemein	krank	1	acq_USunple_CSunple2_RW	acq4567_RW	5	74	400	1	300	300	455	50	0	0	1	blank2r.bmp	0	1	+	0	1	blank2r.bmp	492	1	LWWL	492	1	blank2r.bmp	572	2	gemein	866	1	!	1239	1	!	1359	0	0	0	0	0	0	0	0	0	0	0	0	0	0	0	0	0	0	0	0	0	0	0	0	0	0	0	0	0	0
082119	16:49:55	17:00:07	611776	5.0.10.0	5_exp_RW	111	Rpleas_acq	CS_A	JQQJ	CPPC	DXXD	LWWL	YFFY	ZHHZ	gütig	vertrauen	träumen	sonnig	genießen	küssen	gierig	versagen	töten	sterben	gemein	krank	1	acq_USunple_CSunple2_RW	acq4567_RW	5	75	400	0	300	300	479	46	0	1	1	blank2r.bmp	0	1	+	0	1	blank2r.bmp	492	1	LWWL	492	1	blank2r.bmp	572	3	krank	866	1	!	1239	1	!	-1	0	0	0	0	0	0	0	0	0	0	0	0	0	0	0	0	0	0	0	0	0	0	0	0	0	0	0	0	0	0
082119	16:49:55	17:00:10	614041	5.0.10.0	5_exp_RW	111	Rpleas_acq	CS_A	JQQJ	CPPC	DXXD	LWWL	YFFY	ZHHZ	gütig	vertrauen	träumen	sonnig	genießen	küssen	gierig	versagen	töten	sterben	gemein	krank	1	acq_USpleas_CSpleas2_RW	acq4567_RW	5	76	400	1	300	300	463	50	0	1	1	blank2r.bmp	0	1	+	0	1	blank2r.bmp	492	1	CPPC	492	1	blank2r.bmp	572	3	küssen	866	1	!	1239	1	!	1359	0	0	0	0	0	0	0	0	0	0	0	0	0	0	0	0	0	0	0	0	0	0	0	0	0	0	0	0	0	0
082119	16:49:55	17:00:12	616227	5.0.10.0	5_exp_RW	111	Rpleas_acq	CS_A	JQQJ	CPPC	DXXD	LWWL	YFFY	ZHHZ	gütig	vertrauen	träumen	sonnig	genießen	küssen	gierig	versagen	töten	sterben	gemein	krank	1	acq_USunple_CSunple1_RW	acq4567_RW	5	77	400	1	300	300	389	46	0	1	1	blank2r.bmp	0	1	+	0	1	blank2r.bmp	492	1	DXXD	492	1	blank2r.bmp	572	3	töten	866	1	!	1239	1	!	1292	0	0	0	0	0	0	0	0	0	0	0	0	0	0	0	0	0	0	0	0	0	0	0	0	0	0	0	0	0	0
082119	16:49:55	17:00:14	618480	5.0.10.0	5_exp_RW	111	Rpleas_acq	CS_A	JQQJ	CPPC	DXXD	LWWL	YFFY	ZHHZ	gütig	vertrauen	träumen	sonnig	genießen	küssen	gierig	versagen	töten	sterben	gemein	krank	1	acq_USunple_CSunple1_RW	acq4567_RW	5	78	400	0	300	300	487	46	0	1	1	blank2r.bmp	0	1	+	0	1	blank2r.bmp	492	1	DXXD	492	1	blank2r.bmp	572	2	versagen	866	1	!	1239	1	!	-1	0	0	0	0	0	0	0	0	0	0	0	0	0	0	0	0	0	0	0	0	0	0	0	0	0	0	0	0	0	0
082119	16:49:55	17:00:16	620812	5.0.10.0	5_exp_RW	111	Rpleas_acq	CS_A	JQQJ	CPPC	DXXD	LWWL	YFFY	ZHHZ	gütig	vertrauen	träumen	sonnig	genießen	küssen	gierig	versagen	töten	sterben	gemein	krank	1	acq_USpleas_CSpleas1_RW	acq4567_RW	5	79	400	0	300	300	548	50	0	1	1	blank2r.bmp	0	1	+	0	1	blank2r.bmp	492	1	JQQJ	492	1	blank2r.bmp	572	2	vertrauen	866	1	!	1239	1	!	-1	0	0	0	0	0	0	0	0	0	0	0	0	0	0	0	0	0	0	0	0	0	0	0	0	0	0	0	0	0	0
082119	16:49:55	17:00:19	623091	5.0.10.0	5_exp_RW	111	Rpleas_acq	CS_A	JQQJ	CPPC	DXXD	LWWL	YFFY	ZHHZ	gütig	vertrauen	träumen	sonnig	genießen	küssen	gierig	versagen	töten	sterben	gemein	krank	1	acq_USpleas_CSpleas1_RW	acq4567_RW	5	80	400	1	300	300	462	50	0	1	1	blank2r.bmp	0	1	+	0	1	blank2r.bmp	492	1	JQQJ	492	1	blank2r.bmp	572	3	träumen	866	1	!	1239	1	!	1359	0	0	0	0	0	0	0	0	0	0	0	0	0	0	0	0	0	0	0	0	0	0	0	0	0	0	0	0	0	0
082119	16:49:55	17:00:30	634167	5.0.10.0	5_exp_RW	111	Rpleas_acq	CS_A	JQQJ	CPPC	DXXD	LWWL	YFFY	ZHHZ	gütig	vertrauen	träumen	sonnig	genießen	küssen	gierig	versagen	töten	sterben	gemein	krank	1	acq_USpleas_CSpleas2_RW	acq4567_RW	6	1	400	1	300	300	411	50	0	1	1	blank2r.bmp	0	1	+	0	1	blank2r.bmp	492	1	CPPC	492	1	blank2r.bmp	572	2	genießen	866	1	!	1239	1	!	1306	0	0	0	0	0	0	0	0	0	0	0	0	0	0	0	0	0	0	0	0	0	0	0	0	0	0	0	0	0	0
082119	16:49:55	17:00:32	636419	5.0.10.0	5_exp_RW	111	Rpleas_acq	CS_A	JQQJ	CPPC	DXXD	LWWL	YFFY	ZHHZ	gütig	vertrauen	träumen	sonnig	genießen	küssen	gierig	versagen	töten	sterben	gemein	krank	1	acq_USunple_CSunple2_RW	acq4567_RW	6	2	400	0	300	300	482	46	0	1	1	blank2r.bmp	0	1	+	0	1	blank2r.bmp	492	1	LWWL	492	1	blank2r.bmp	572	1	sterben	866	1	!	1239	1	!	-1	0	0	0	0	0	0	0	0	0	0	0	0	0	0	0	0	0	0	0	0	0	0	0	0	0	0	0	0	0	0
082119	16:49:55	17:00:34	638525	5.0.10.0	5_exp_RW	111	Rpleas_acq	CS_A	JQQJ	CPPC	DXXD	LWWL	YFFY	ZHHZ	gütig	vertrauen	träumen	sonnig	genießen	küssen	gierig	versagen	töten	sterben	gemein	krank	1	acq_USpleas_CSpleas2_RW	acq4567_RW	6	3	400	0	300	300	321	50	0	1	1	blank2r.bmp	0	1	+	0	1	blank2r.bmp	492	1	CPPC	492	1	blank2r.bmp	572	2	genießen	866	1	!	-1	1	!	-1	0	0	0	0	0	0	0	0	0	0	0	0	0	0	0	0	0	0	0	0	0	0	0	0	0	0	0	0	0	0
082119	16:49:55	17:00:36	640790	5.0.10.0	5_exp_RW	111	Rpleas_acq	CS_A	JQQJ	CPPC	DXXD	LWWL	YFFY	ZHHZ	gütig	vertrauen	träumen	sonnig	genießen	küssen	gierig	versagen	töten	sterben	gemein	krank	1	acq_USpleas_CSpleas1_RW	acq4567_RW	6	4	400	0	300	300	479	46	0	0	1	blank2r.bmp	0	1	+	0	1	blank2r.bmp	492	1	JQQJ	492	1	blank2r.bmp	572	1	gütig	866	1	!	1239	1	!	-1	0	0	0	0	0	0	0	0	0	0	0	0	0	0	0	0	0	0	0	0	0	0	0	0	0	0	0	0	0	0
082119	16:49:55	17:00:39	642950	5.0.10.0	5_exp_RW	111	Rpleas_acq	CS_A	JQQJ	CPPC	DXXD	LWWL	YFFY	ZHHZ	gütig	vertrauen	träumen	sonnig	genießen	küssen	gierig	versagen	töten	sterben	gemein	krank	1	acq_USpleas_CSpleas2_RW	acq4567_RW	6	5	400	1	300	300	346	50	0	1	1	blank2r.bmp	0	1	+	0	1	blank2r.bmp	492	1	CPPC	492	1	blank2r.bmp	572	3	küssen	866	1	!	1239	1	!	1252	0	0	0	0	0	0	0	0	0	0	0	0	0	0	0	0	0	0	0	0	0	0	0	0	0	0	0	0	0	0
082119	16:49:55	17:00:41	645149	5.0.10.0	5_exp_RW	111	Rpleas_acq	CS_A	JQQJ	CPPC	DXXD	LWWL	YFFY	ZHHZ	gütig	vertrauen	träumen	sonnig	genießen	küssen	gierig	versagen	töten	sterben	gemein	krank	1	acq_USpleas_CSpleas1_RW	acq4567_RW	6	6	400	1	300	300	408	46	0	0	1	blank2r.bmp	0	1	+	0	1	blank2r.bmp	492	1	JQQJ	492	1	blank2r.bmp	572	1	gütig	866	1	!	1239	1	!	1306	0	0	0	0	0	0	0	0	0	0	0	0	0	0	0	0	0	0	0	0	0	0	0	0	0	0	0	0	0	0
082119	16:49:55	17:00:43	647481	5.0.10.0	5_exp_RW	111	Rpleas_acq	CS_A	JQQJ	CPPC	DXXD	LWWL	YFFY	ZHHZ	gütig	vertrauen	träumen	sonnig	genießen	küssen	gierig	versagen	töten	sterben	gemein	krank	1	acq_USunple_CSunple1_RW	acq4567_RW	6	7	400	0	300	300	562	46	0	1	1	blank2r.bmp	0	1	+	0	1	blank2r.bmp	492	1	DXXD	492	1	blank2r.bmp	572	1	gierig	866	1	!	1239	1	!	-1	0	0	0	0	0	0	0	0	0	0	0	0	0	0	0	0	0	0	0	0	0	0	0	0	0	0	0	0	0	0
082119	16:49:55	17:00:45	649654	5.0.10.0	5_exp_RW	111	Rpleas_acq	CS_A	JQQJ	CPPC	DXXD	LWWL	YFFY	ZHHZ	gütig	vertrauen	träumen	sonnig	genießen	küssen	gierig	versagen	töten	sterben	gemein	krank	1	acq_USunple_CSunple1_RW	acq4567_RW	6	8	400	1	300	300	362	50	0	0	1	blank2r.bmp	0	1	+	0	1	blank2r.bmp	492	1	DXXD	492	1	blank2r.bmp	572	3	töten	866	1	!	1239	1	!	1266	0	0	0	0	0	0	0	0	0	0	0	0	0	0	0	0	0	0	0	0	0	0	0	0	0	0	0	0	0	0
082119	16:49:55	17:00:48	651933	5.0.10.0	5_exp_RW	111	Rpleas_acq	CS_A	JQQJ	CPPC	DXXD	LWWL	YFFY	ZHHZ	gütig	vertrauen	träumen	sonnig	genießen	küssen	gierig	versagen	töten	sterben	gemein	krank	1	acq_USunple_CSunple2_RW	acq4567_RW	6	9	400	0	300	300	502	46	0	1	1	blank2r.bmp	0	1	+	0	1	blank2r.bmp	492	1	LWWL	492	1	blank2r.bmp	572	2	gemein	866	1	!	1239	1	!	-1	0	0	0	0	0	0	0	0	0	0	0	0	0	0	0	0	0	0	0	0	0	0	0	0	0	0	0	0	0	0
082119	16:49:55	17:00:50	654012	5.0.10.0	5_exp_RW	111	Rpleas_acq	CS_A	JQQJ	CPPC	DXXD	LWWL	YFFY	ZHHZ	gütig	vertrauen	träumen	sonnig	genießen	küssen	gierig	versagen	töten	sterben	gemein	krank	1	acq_USunple_CSunple1_RW	acq4567_RW	6	10	400	0	300	300	279	46	0	1	1	blank2r.bmp	0	1	+	0	1	blank2r.bmp	492	1	DXXD	492	1	blank2r.bmp	572	1	gierig	866	1	!	-1	1	!	-1	0	0	0	0	0	0	0	0	0	0	0	0	0	0	0	0	0	0	0	0	0	0	0	0	0	0	0	0	0	0
082119	16:49:55	17:00:52	656357	5.0.10.0	5_exp_RW	111	Rpleas_acq	CS_A	JQQJ	CPPC	DXXD	LWWL	YFFY	ZHHZ	gütig	vertrauen	träumen	sonnig	genießen	küssen	gierig	versagen	töten	sterben	gemein	krank	1	acq_USunple_CSunple2_RW	acq4567_RW	6	11	400	0	300	300	561	46	0	1	1	blank2r.bmp	0	1	+	0	1	blank2r.bmp	492	1	LWWL	492	1	blank2r.bmp	572	3	krank	866	1	!	1239	1	!	-1	0	0	0	0	0	0	0	0	0	0	0	0	0	0	0	0	0	0	0	0	0	0	0	0	0	0	0	0	0	0
082119	16:49:55	17:00:54	658623	5.0.10.0	5_exp_RW	111	Rpleas_acq	CS_A	JQQJ	CPPC	DXXD	LWWL	YFFY	ZHHZ	gütig	vertrauen	träumen	sonnig	genießen	küssen	gierig	versagen	töten	sterben	gemein	krank	1	acq_USpleas_CSpleas2_RW	acq4567_RW	6	12	400	0	300	300	479	50	0	1	1	blank2r.bmp	0	1	+	0	1	blank2r.bmp	492	1	CPPC	492	1	blank2r.bmp	572	1	sonnig	866	1	!	1239	1	!	-1	0	0	0	0	0	0	0	0	0	0	0	0	0	0	0	0	0	0	0	0	0	0	0	0	0	0	0	0	0	0
