date	time	script.currenttime	script.elapsedtime	build	script.currentexpt	subject	expressions.LRpleas_acq	expressions.conditionCS_A	expressions.CSpleas_1	expressions.CSpleas_2	expressions.CSunple_1	expressions.CSunple_2	expressions.distractor_1	expressions.distractor_2	expressions.US_pleas1	expressions.US_pleas2	expressions.US_pleas3	expressions.US_pleas4	expressions.US_pleas5	expressions.US_pleas6	expressions.US_unple1	expressions.US_unple2	expressions.US_unple3	expressions.US_unple4	expressions.US_unple5	expressions.US_unple6	counter.positions_noRW	trialcode	blockcode	blocknum	trialnum	windowcenter	inwindow	pretrialpause	posttrialpause	latency	response	expressions.correctedscore	correct	stimulusnumber1	stimulusitem1	stimulusonset1	stimulusnumber2	stimulusitem2	stimulusonset2	stimulusnumber3	stimulusitem3	stimulusonset3	stimulusnumber4	stimulusitem4	stimulusonset4	stimulusnumber5	stimulusitem5	stimulusonset5	stimulusnumber6	stimulusitem6	stimulusonset6	stimulusnumber7	stimulusitem7	stimulusonset7	stimulusnumber8	stimulusitem8	stimulusonset8	stimulusnumber9	stimulusitem9	stimulusonset9	stimulusnumber10	stimulusitem10	stimulusonset10	stimulusnumber11	stimulusitem11	stimulusonset11	stimulusnumber12	stimulusitem12	stimulusonset12	stimulusnumber13	stimulusitem13	stimulusonset13	stimulusnumber14	stimulusitem14	stimulusonset14	stimulusnumber15	stimulusitem15	stimulusonset15	stimulusnumber16	stimulusitem16	stimulusonset16	stimulusnumber17	stimulusitem17	stimulusonset17	stimulusnumber18	stimulusitem18	stimulusonset18
070119	14:49:40	14:50:35	51870	5.0.10.0	5_exp_RW	999	Rpleas_acq	CS_B	BZZB	YDDY	JXXJ	VKKV	MQQM	GWWG	spielen	fair	schön	retten	ehrlich	treu	strafen	faul	schlecht	rächen	eitel	tot	1	acq_USpleas_CSpleas2_RW	acq1_RW	1	1	0	0	300	300	337	50	0	1	1	blank2r.bmp	0	1	+	0	1	blank2r.bmp	492	1	YDDY	492	1	blank2r.bmp	572	2	ehrlich	866	0	0	0	0	0	0	0	0	0	0	0	0	0	0	0	0	0	0	0	0	0	0	0	0	0	0	0	0	0	0	0	0	0	0	0	0
070119	14:49:40	14:50:38	54682	5.0.10.0	5_exp_RW	999	Rpleas_acq	CS_B	BZZB	YDDY	JXXJ	VKKV	MQQM	GWWG	spielen	fair	schön	retten	ehrlich	treu	strafen	faul	schlecht	rächen	eitel	tot	1	acq_USpleas_CSpleas1_RW	acq1_RW	1	2	0	0	300	300	1342	50	0	1	1	blank2r.bmp	0	1	+	0	1	blank2r.bmp	492	1	BZZB	492	1	blank2r.bmp	572	3	schön	866	0	0	0	0	0	0	0	0	0	0	0	0	0	0	0	0	0	0	0	0	0	0	0	0	0	0	0	0	0	0	0	0	0	0	0	0
070119	14:49:40	14:50:40	56615	5.0.10.0	5_exp_RW	999	Rpleas_acq	CS_B	BZZB	YDDY	JXXJ	VKKV	MQQM	GWWG	spielen	fair	schön	retten	ehrlich	treu	strafen	faul	schlecht	rächen	eitel	tot	1	acq_USunple_CSunple2_RW	acq1_RW	1	3	0	0	300	300	456	46	0	1	1	blank2r.bmp	0	1	+	0	1	blank2r.bmp	492	1	VKKV	492	1	blank2r.bmp	572	1	rächen	866	0	0	0	0	0	0	0	0	0	0	0	0	0	0	0	0	0	0	0	0	0	0	0	0	0	0	0	0	0	0	0	0	0	0	0	0
070119	14:49:40	14:50:42	58494	5.0.10.0	5_exp_RW	999	Rpleas_acq	CS_B	BZZB	YDDY	JXXJ	VKKV	MQQM	GWWG	spielen	fair	schön	retten	ehrlich	treu	strafen	faul	schlecht	rächen	eitel	tot	1	acq_USpleas_CSpleas1_RW	acq1_RW	1	4	0	0	300	300	410	50	0	1	1	blank2r.bmp	0	1	+	0	1	blank2r.bmp	492	1	BZZB	492	1	blank2r.bmp	572	1	spielen	866	0	0	0	0	0	0	0	0	0	0	0	0	0	0	0	0	0	0	0	0	0	0	0	0	0	0	0	0	0	0	0	0	0	0	0	0
070119	14:49:40	14:50:44	60480	5.0.10.0	5_exp_RW	999	Rpleas_acq	CS_B	BZZB	YDDY	JXXJ	VKKV	MQQM	GWWG	spielen	fair	schön	retten	ehrlich	treu	strafen	faul	schlecht	rächen	eitel	tot	1	acq_USpleas_CSpleas1_RW	acq1_RW	1	5	0	0	300	300	508	50	0	1	1	blank2r.bmp	0	1	+	0	1	blank2r.bmp	492	1	BZZB	492	1	blank2r.bmp	572	2	fair	866	0	0	0	0	0	0	0	0	0	0	0	0	0	0	0	0	0	0	0	0	0	0	0	0	0	0	0	0	0	0	0	0	0	0	0	0
070119	14:49:40	14:50:46	62319	5.0.10.0	5_exp_RW	999	Rpleas_acq	CS_B	BZZB	YDDY	JXXJ	VKKV	MQQM	GWWG	spielen	fair	schön	retten	ehrlich	treu	strafen	faul	schlecht	rächen	eitel	tot	1	acq_USpleas_CSpleas1_RW	acq1_RW	1	6	0	0	300	300	360	50	0	1	1	blank2r.bmp	2	1	+	2	1	blank2r.bmp	492	1	BZZB	492	1	blank2r.bmp	572	1	spielen	868	0	0	0	0	0	0	0	0	0	0	0	0	0	0	0	0	0	0	0	0	0	0	0	0	0	0	0	0	0	0	0	0	0	0	0	0
070119	14:49:40	14:50:48	64252	5.0.10.0	5_exp_RW	999	Rpleas_acq	CS_B	BZZB	YDDY	JXXJ	VKKV	MQQM	GWWG	spielen	fair	schön	retten	ehrlich	treu	strafen	faul	schlecht	rächen	eitel	tot	1	acq_USpleas_CSpleas2_RW	acq1_RW	1	7	0	0	300	300	459	50	0	1	1	blank2r.bmp	0	1	+	0	1	blank2r.bmp	493	1	YDDY	493	1	blank2r.bmp	572	1	retten	866	0	0	0	0	0	0	0	0	0	0	0	0	0	0	0	0	0	0	0	0	0	0	0	0	0	0	0	0	0	0	0	0	0	0	0	0
070119	14:49:40	14:50:50	66144	5.0.10.0	5_exp_RW	999	Rpleas_acq	CS_B	BZZB	YDDY	JXXJ	VKKV	MQQM	GWWG	spielen	fair	schön	retten	ehrlich	treu	strafen	faul	schlecht	rächen	eitel	tot	1	acq_USunple_CSunple1_RW	acq1_RW	1	8	0	0	300	300	419	46	0	1	1	blank2r.bmp	0	1	+	0	1	blank2r.bmp	492	1	JXXJ	492	1	blank2r.bmp	572	2	faul	866	0	0	0	0	0	0	0	0	0	0	0	0	0	0	0	0	0	0	0	0	0	0	0	0	0	0	0	0	0	0	0	0	0	0	0	0
070119	14:49:40	14:50:52	68037	5.0.10.0	5_exp_RW	999	Rpleas_acq	CS_B	BZZB	YDDY	JXXJ	VKKV	MQQM	GWWG	spielen	fair	schön	retten	ehrlich	treu	strafen	faul	schlecht	rächen	eitel	tot	1	acq_USunple_CSunple2_RW	acq1_RW	1	9	0	0	300	300	418	46	0	1	1	blank2r.bmp	0	1	+	0	1	blank2r.bmp	492	1	VKKV	492	1	blank2r.bmp	572	3	tot	866	0	0	0	0	0	0	0	0	0	0	0	0	0	0	0	0	0	0	0	0	0	0	0	0	0	0	0	0	0	0	0	0	0	0	0	0
070119	14:49:40	14:50:54	70143	5.0.10.0	5_exp_RW	999	Rpleas_acq	CS_B	BZZB	YDDY	JXXJ	VKKV	MQQM	GWWG	spielen	fair	schön	retten	ehrlich	treu	strafen	faul	schlecht	rächen	eitel	tot	1	acq_USunple_CSunple2_RW	acq1_RW	1	10	0	0	300	300	413	50	0	0	1	blank2r.bmp	0	1	+	0	1	blank2r.bmp	492	1	VKKV	492	1	blank2r.bmp	573	2	eitel	866	1	FEHLER	1319	0	0	0	0	0	0	0	0	0	0	0	0	0	0	0	0	0	0	0	0	0	0	0	0	0	0	0	0	0	0	0	0	0
070119	14:49:40	14:50:55	71888	5.0.10.0	5_exp_RW	999	Rpleas_acq	CS_B	BZZB	YDDY	JXXJ	VKKV	MQQM	GWWG	spielen	fair	schön	retten	ehrlich	treu	strafen	faul	schlecht	rächen	eitel	tot	1	acq_USunple_CSunple1_RW	acq1_RW	1	11	0	0	300	300	475	46	0	1	1	blank2r.bmp	0	1	+	0	1	blank2r.bmp	492	1	JXXJ	492	1	blank2r.bmp	572	1	strafen	866	0	0	0	0	0	0	0	0	0	0	0	0	0	0	0	0	0	0	0	0	0	0	0	0	0	0	0	0	0	0	0	0	0	0	0	0
070119	14:49:40	14:50:57	73768	5.0.10.0	5_exp_RW	999	Rpleas_acq	CS_B	BZZB	YDDY	JXXJ	VKKV	MQQM	GWWG	spielen	fair	schön	retten	ehrlich	treu	strafen	faul	schlecht	rächen	eitel	tot	1	acq_USunple_CSunple1_RW	acq1_RW	1	12	0	0	300	300	407	46	0	1	1	blank2r.bmp	0	1	+	0	1	blank2r.bmp	493	1	JXXJ	493	1	blank2r.bmp	573	3	schlecht	866	0	0	0	0	0	0	0	0	0	0	0	0	0	0	0	0	0	0	0	0	0	0	0	0	0	0	0	0	0	0	0	0	0	0	0	0
070119	14:49:40	14:50:59	75594	5.0.10.0	5_exp_RW	999	Rpleas_acq	CS_B	BZZB	YDDY	JXXJ	VKKV	MQQM	GWWG	spielen	fair	schön	retten	ehrlich	treu	strafen	faul	schlecht	rächen	eitel	tot	1	acq_USunple_CSunple1_RW	acq1_RW	1	13	0	0	300	300	346	46	0	1	1	blank2r.bmp	0	1	+	0	1	blank2r.bmp	492	1	JXXJ	492	1	blank2r.bmp	572	1	strafen	866	0	0	0	0	0	0	0	0	0	0	0	0	0	0	0	0	0	0	0	0	0	0	0	0	0	0	0	0	0	0	0	0	0	0	0	0
070119	14:49:40	14:51:01	77513	5.0.10.0	5_exp_RW	999	Rpleas_acq	CS_B	BZZB	YDDY	JXXJ	VKKV	MQQM	GWWG	spielen	fair	schön	retten	ehrlich	treu	strafen	faul	schlecht	rächen	eitel	tot	1	acq_USpleas_CSpleas2_RW	acq1_RW	1	14	0	0	300	300	449	50	0	1	1	blank2r.bmp	0	1	+	0	1	blank2r.bmp	492	1	YDDY	492	1	blank2r.bmp	572	3	treu	866	0	0	0	0	0	0	0	0	0	0	0	0	0	0	0	0	0	0	0	0	0	0	0	0	0	0	0	0	0	0	0	0	0	0	0	0
070119	14:49:40	14:51:03	79419	5.0.10.0	5_exp_RW	999	Rpleas_acq	CS_B	BZZB	YDDY	JXXJ	VKKV	MQQM	GWWG	spielen	fair	schön	retten	ehrlich	treu	strafen	faul	schlecht	rächen	eitel	tot	1	acq_USunple_CSunple2_RW	acq1_RW	1	15	0	0	300	300	427	46	0	1	1	blank2r.bmp	0	1	+	0	1	blank2r.bmp	492	1	VKKV	492	1	blank2r.bmp	572	3	tot	866	0	0	0	0	0	0	0	0	0	0	0	0	0	0	0	0	0	0	0	0	0	0	0	0	0	0	0	0	0	0	0	0	0	0	0	0
070119	14:49:40	14:51:05	81338	5.0.10.0	5_exp_RW	999	Rpleas_acq	CS_B	BZZB	YDDY	JXXJ	VKKV	MQQM	GWWG	spielen	fair	schön	retten	ehrlich	treu	strafen	faul	schlecht	rächen	eitel	tot	1	acq_USpleas_CSpleas2_RW	acq1_RW	1	16	0	0	300	300	449	50	0	1	1	blank2r.bmp	0	1	+	0	1	blank2r.bmp	492	1	YDDY	492	1	blank2r.bmp	572	3	treu	866	0	0	0	0	0	0	0	0	0	0	0	0	0	0	0	0	0	0	0	0	0	0	0	0	0	0	0	0	0	0	0	0	0	0	0	0
070119	14:49:40	14:51:25	101769	5.0.10.0	5_exp_RW	999	Rpleas_acq	CS_B	BZZB	YDDY	JXXJ	VKKV	MQQM	GWWG	spielen	fair	schön	retten	ehrlich	treu	strafen	faul	schlecht	rächen	eitel	tot	1	acq_USpleas_CSpleas1_RW	acq2_RW	2	1	480	1	300	300	523	50	0	1	1	blank2r.bmp	0	1	+	0	1	blank2r.bmp	492	1	BZZB	492	1	blank2r.bmp	572	2	fair	866	1	!	1319	1	!	1426	0	0	0	0	0	0	0	0	0	0	0	0	0	0	0	0	0	0	0	0	0	0	0	0	0	0	0	0	0	0
070119	14:49:40	14:51:28	104048	5.0.10.0	5_exp_RW	999	Rpleas_acq	CS_B	BZZB	YDDY	JXXJ	VKKV	MQQM	GWWG	spielen	fair	schön	retten	ehrlich	treu	strafen	faul	schlecht	rächen	eitel	tot	1	acq_USunple_CSunple1_RW	acq2_RW	2	2	480	1	300	300	478	46	0	1	1	blank2r.bmp	0	1	+	0	1	blank2r.bmp	492	1	JXXJ	492	1	blank2r.bmp	572	3	schlecht	866	1	!	1319	1	!	1386	0	0	0	0	0	0	0	0	0	0	0	0	0	0	0	0	0	0	0	0	0	0	0	0	0	0	0	0	0	0
070119	14:49:40	14:51:30	106314	5.0.10.0	5_exp_RW	999	Rpleas_acq	CS_B	BZZB	YDDY	JXXJ	VKKV	MQQM	GWWG	spielen	fair	schön	retten	ehrlich	treu	strafen	faul	schlecht	rächen	eitel	tot	1	acq_USunple_CSunple2_RW	acq2_RW	2	3	480	1	300	300	475	46	0	1	1	blank2r.bmp	0	1	+	0	1	blank2r.bmp	492	1	VKKV	492	1	blank2r.bmp	572	1	rächen	866	1	!	1319	1	!	1372	0	0	0	0	0	0	0	0	0	0	0	0	0	0	0	0	0	0	0	0	0	0	0	0	0	0	0	0	0	0
070119	14:49:40	14:51:32	108433	5.0.10.0	5_exp_RW	999	Rpleas_acq	CS_B	BZZB	YDDY	JXXJ	VKKV	MQQM	GWWG	spielen	fair	schön	retten	ehrlich	treu	strafen	faul	schlecht	rächen	eitel	tot	1	acq_USunple_CSunple1_RW	acq2_RW	2	4	480	0	300	300	355	46	0	1	1	blank2r.bmp	0	1	+	0	1	blank2r.bmp	492	1	JXXJ	492	1	blank2r.bmp	572	2	faul	866	1	!	-1	1	!	-1	0	0	0	0	0	0	0	0	0	0	0	0	0	0	0	0	0	0	0	0	0	0	0	0	0	0	0	0	0	0
070119	14:49:40	14:51:34	110792	5.0.10.0	5_exp_RW	999	Rpleas_acq	CS_B	BZZB	YDDY	JXXJ	VKKV	MQQM	GWWG	spielen	fair	schön	retten	ehrlich	treu	strafen	faul	schlecht	rächen	eitel	tot	1	acq_USunple_CSunple2_RW	acq2_RW	2	5	480	1	300	300	546	46	0	1	1	blank2r.bmp	1	1	+	1	1	blank2r.bmp	492	1	VKKV	492	1	blank2r.bmp	572	2	eitel	869	1	!	1319	1	!	1452	0	0	0	0	0	0	0	0	0	0	0	0	0	0	0	0	0	0	0	0	0	0	0	0	0	0	0	0	0	0
070119	14:49:40	14:51:37	113111	5.0.10.0	5_exp_RW	999	Rpleas_acq	CS_B	BZZB	YDDY	JXXJ	VKKV	MQQM	GWWG	spielen	fair	schön	retten	ehrlich	treu	strafen	faul	schlecht	rächen	eitel	tot	1	acq_USunple_CSunple1_RW	acq2_RW	2	6	480	1	300	300	519	46	0	1	1	blank2r.bmp	0	1	+	0	1	blank2r.bmp	492	1	JXXJ	492	1	blank2r.bmp	572	1	strafen	866	1	!	1319	1	!	1426	0	0	0	0	0	0	0	0	0	0	0	0	0	0	0	0	0	0	0	0	0	0	0	0	0	0	0	0	0	0
070119	14:49:40	14:51:39	115363	5.0.10.0	5_exp_RW	999	Rpleas_acq	CS_B	BZZB	YDDY	JXXJ	VKKV	MQQM	GWWG	spielen	fair	schön	retten	ehrlich	treu	strafen	faul	schlecht	rächen	eitel	tot	1	acq_USpleas_CSpleas1_RW	acq2_RW	2	7	480	1	300	300	456	50	0	1	1	blank2r.bmp	0	1	+	0	1	blank2r.bmp	492	1	BZZB	492	1	blank2r.bmp	572	3	schön	866	1	!	1319	1	!	1359	0	0	0	0	0	0	0	0	0	0	0	0	0	0	0	0	0	0	0	0	0	0	0	0	0	0	0	0	0	0
070119	14:49:40	14:51:41	117616	5.0.10.0	5_exp_RW	999	Rpleas_acq	CS_B	BZZB	YDDY	JXXJ	VKKV	MQQM	GWWG	spielen	fair	schön	retten	ehrlich	treu	strafen	faul	schlecht	rächen	eitel	tot	1	acq_USpleas_CSpleas1_RW	acq2_RW	2	8	480	1	300	300	453	50	0	1	1	blank2r.bmp	0	1	+	0	1	blank2r.bmp	492	1	BZZB	492	1	blank2r.bmp	572	1	spielen	866	1	!	1319	1	!	1359	0	0	0	0	0	0	0	0	0	0	0	0	0	0	0	0	0	0	0	0	0	0	0	0	0	0	0	0	0	0
070119	14:49:40	14:51:43	119895	5.0.10.0	5_exp_RW	999	Rpleas_acq	CS_B	BZZB	YDDY	JXXJ	VKKV	MQQM	GWWG	spielen	fair	schön	retten	ehrlich	treu	strafen	faul	schlecht	rächen	eitel	tot	1	acq_USpleas_CSpleas2_RW	acq2_RW	2	9	480	1	300	300	489	50	0	1	1	blank2r.bmp	0	1	+	0	1	blank2r.bmp	492	1	YDDY	492	1	blank2r.bmp	572	2	ehrlich	866	1	!	1319	1	!	1386	0	0	0	0	0	0	0	0	0	0	0	0	0	0	0	0	0	0	0	0	0	0	0	0	0	0	0	0	0	0
070119	14:49:40	14:51:46	122187	5.0.10.0	5_exp_RW	999	Rpleas_acq	CS_B	BZZB	YDDY	JXXJ	VKKV	MQQM	GWWG	spielen	fair	schön	retten	ehrlich	treu	strafen	faul	schlecht	rächen	eitel	tot	1	acq_USpleas_CSpleas2_RW	acq2_RW	2	10	480	1	300	300	503	50	0	1	1	blank2r.bmp	0	1	+	0	1	blank2r.bmp	492	1	YDDY	492	1	blank2r.bmp	572	1	retten	866	1	!	1319	1	!	1399	0	0	0	0	0	0	0	0	0	0	0	0	0	0	0	0	0	0	0	0	0	0	0	0	0	0	0	0	0	0
070119	14:49:40	14:51:48	124440	5.0.10.0	5_exp_RW	999	Rpleas_acq	CS_B	BZZB	YDDY	JXXJ	VKKV	MQQM	GWWG	spielen	fair	schön	retten	ehrlich	treu	strafen	faul	schlecht	rächen	eitel	tot	1	acq_USpleas_CSpleas1_RW	acq2_RW	2	11	480	1	300	300	460	50	0	1	1	blank2r.bmp	0	1	+	0	1	blank2r.bmp	494	1	BZZB	494	1	blank2r.bmp	572	3	schön	866	1	!	1319	1	!	1359	0	0	0	0	0	0	0	0	0	0	0	0	0	0	0	0	0	0	0	0	0	0	0	0	0	0	0	0	0	0
070119	14:49:40	14:51:50	126705	5.0.10.0	5_exp_RW	999	Rpleas_acq	CS_B	BZZB	YDDY	JXXJ	VKKV	MQQM	GWWG	spielen	fair	schön	retten	ehrlich	treu	strafen	faul	schlecht	rächen	eitel	tot	1	acq_USunple_CSunple1_RW	acq2_RW	2	12	480	1	300	300	470	46	0	1	1	blank2r.bmp	0	1	+	0	1	blank2r.bmp	492	1	JXXJ	492	1	blank2r.bmp	572	3	schlecht	866	1	!	1319	1	!	1372	0	0	0	0	0	0	0	0	0	0	0	0	0	0	0	0	0	0	0	0	0	0	0	0	0	0	0	0	0	0
070119	14:49:40	14:51:53	128931	5.0.10.0	5_exp_RW	999	Rpleas_acq	CS_B	BZZB	YDDY	JXXJ	VKKV	MQQM	GWWG	spielen	fair	schön	retten	ehrlich	treu	strafen	faul	schlecht	rächen	eitel	tot	1	acq_USunple_CSunple2_RW	acq2_RW	2	13	480	1	300	300	429	46	0	1	1	blank2r.bmp	0	1	+	0	1	blank2r.bmp	492	1	VKKV	492	1	blank2r.bmp	572	1	rächen	866	1	!	1319	1	!	1332	0	0	0	0	0	0	0	0	0	0	0	0	0	0	0	0	0	0	0	0	0	0	0	0	0	0	0	0	0	0
070119	14:49:40	14:51:55	131157	5.0.10.0	5_exp_RW	999	Rpleas_acq	CS_B	BZZB	YDDY	JXXJ	VKKV	MQQM	GWWG	spielen	fair	schön	retten	ehrlich	treu	strafen	faul	schlecht	rächen	eitel	tot	1	acq_USunple_CSunple1_RW	acq2_RW	2	14	480	1	300	300	429	46	0	1	1	blank2r.bmp	0	1	+	0	1	blank2r.bmp	492	1	JXXJ	492	1	blank2r.bmp	572	2	faul	866	1	!	1319	1	!	1332	0	0	0	0	0	0	0	0	0	0	0	0	0	0	0	0	0	0	0	0	0	0	0	0	0	0	0	0	0	0
070119	14:49:40	14:51:57	133409	5.0.10.0	5_exp_RW	999	Rpleas_acq	CS_B	BZZB	YDDY	JXXJ	VKKV	MQQM	GWWG	spielen	fair	schön	retten	ehrlich	treu	strafen	faul	schlecht	rächen	eitel	tot	1	acq_USunple_CSunple2_RW	acq2_RW	2	15	480	1	300	300	460	46	0	1	1	blank2r.bmp	0	1	+	0	1	blank2r.bmp	492	1	VKKV	492	1	blank2r.bmp	572	2	eitel	866	1	!	1319	1	!	1359	0	0	0	0	0	0	0	0	0	0	0	0	0	0	0	0	0	0	0	0	0	0	0	0	0	0	0	0	0	0
070119	14:49:40	14:51:59	135648	5.0.10.0	5_exp_RW	999	Rpleas_acq	CS_B	BZZB	YDDY	JXXJ	VKKV	MQQM	GWWG	spielen	fair	schön	retten	ehrlich	treu	strafen	faul	schlecht	rächen	eitel	tot	1	acq_USpleas_CSpleas1_RW	acq2_RW	2	16	480	1	300	300	442	50	0	1	1	blank2r.bmp	0	1	+	0	1	blank2r.bmp	492	1	BZZB	492	1	blank2r.bmp	572	2	fair	866	1	!	1319	1	!	1346	0	0	0	0	0	0	0	0	0	0	0	0	0	0	0	0	0	0	0	0	0	0	0	0	0	0	0	0	0	0
070119	14:49:40	14:52:01	137834	5.0.10.0	5_exp_RW	999	Rpleas_acq	CS_B	BZZB	YDDY	JXXJ	VKKV	MQQM	GWWG	spielen	fair	schön	retten	ehrlich	treu	strafen	faul	schlecht	rächen	eitel	tot	1	acq_USunple_CSunple2_RW	acq2_RW	2	17	480	0	300	300	412	46	0	1	1	blank2r.bmp	0	1	+	0	1	blank2r.bmp	492	1	VKKV	492	1	blank2r.bmp	572	3	tot	867	1	!	-1	1	!	-1	0	0	0	0	0	0	0	0	0	0	0	0	0	0	0	0	0	0	0	0	0	0	0	0	0	0	0	0	0	0
070119	14:49:40	14:52:04	140140	5.0.10.0	5_exp_RW	999	Rpleas_acq	CS_B	BZZB	YDDY	JXXJ	VKKV	MQQM	GWWG	spielen	fair	schön	retten	ehrlich	treu	strafen	faul	schlecht	rächen	eitel	tot	1	acq_USpleas_CSpleas2_RW	acq2_RW	2	18	480	1	300	300	498	50	0	1	1	blank2r.bmp	0	1	+	0	1	blank2r.bmp	492	1	YDDY	492	1	blank2r.bmp	572	1	retten	866	1	!	1319	1	!	1399	0	0	0	0	0	0	0	0	0	0	0	0	0	0	0	0	0	0	0	0	0	0	0	0	0	0	0	0	0	0
070119	14:49:40	14:52:06	142432	5.0.10.0	5_exp_RW	999	Rpleas_acq	CS_B	BZZB	YDDY	JXXJ	VKKV	MQQM	GWWG	spielen	fair	schön	retten	ehrlich	treu	strafen	faul	schlecht	rächen	eitel	tot	1	acq_USunple_CSunple2_RW	acq2_RW	2	19	480	1	300	300	502	46	0	1	1	blank2r.bmp	0	1	+	0	1	blank2r.bmp	492	1	VKKV	492	1	blank2r.bmp	572	3	tot	866	1	!	1319	1	!	1399	0	0	0	0	0	0	0	0	0	0	0	0	0	0	0	0	0	0	0	0	0	0	0	0	0	0	0	0	0	0
070119	14:49:40	14:52:08	144725	5.0.10.0	5_exp_RW	999	Rpleas_acq	CS_B	BZZB	YDDY	JXXJ	VKKV	MQQM	GWWG	spielen	fair	schön	retten	ehrlich	treu	strafen	faul	schlecht	rächen	eitel	tot	1	acq_USpleas_CSpleas1_RW	acq2_RW	2	20	480	1	300	300	498	50	0	1	1	blank2r.bmp	0	1	+	0	1	blank2r.bmp	492	1	BZZB	492	1	blank2r.bmp	572	3	schön	866	1	!	1319	1	!	1399	0	0	0	0	0	0	0	0	0	0	0	0	0	0	0	0	0	0	0	0	0	0	0	0	0	0	0	0	0	0
070119	14:49:40	14:52:11	147044	5.0.10.0	5_exp_RW	999	Rpleas_acq	CS_B	BZZB	YDDY	JXXJ	VKKV	MQQM	GWWG	spielen	fair	schön	retten	ehrlich	treu	strafen	faul	schlecht	rächen	eitel	tot	1	acq_USunple_CSunple1_RW	acq2_RW	2	21	480	1	300	300	523	46	0	1	1	blank2r.bmp	0	1	+	0	1	blank2r.bmp	492	1	JXXJ	492	1	blank2r.bmp	572	1	strafen	866	1	!	1319	1	!	1426	0	0	0	0	0	0	0	0	0	0	0	0	0	0	0	0	0	0	0	0	0	0	0	0	0	0	0	0	0	0
070119	14:49:40	14:52:13	149336	5.0.10.0	5_exp_RW	999	Rpleas_acq	CS_B	BZZB	YDDY	JXXJ	VKKV	MQQM	GWWG	spielen	fair	schön	retten	ehrlich	treu	strafen	faul	schlecht	rächen	eitel	tot	1	acq_USpleas_CSpleas2_RW	acq2_RW	2	22	480	1	300	300	500	50	0	1	1	blank2r.bmp	0	1	+	0	1	blank2r.bmp	492	1	YDDY	492	1	blank2r.bmp	572	3	treu	866	1	!	1319	1	!	1399	0	0	0	0	0	0	0	0	0	0	0	0	0	0	0	0	0	0	0	0	0	0	0	0	0	0	0	0	0	0
070119	14:49:40	14:52:15	151642	5.0.10.0	5_exp_RW	999	Rpleas_acq	CS_B	BZZB	YDDY	JXXJ	VKKV	MQQM	GWWG	spielen	fair	schön	retten	ehrlich	treu	strafen	faul	schlecht	rächen	eitel	tot	1	acq_USpleas_CSpleas2_RW	acq2_RW	2	23	480	1	300	300	515	50	0	1	1	blank2r.bmp	0	1	+	0	1	blank2r.bmp	492	1	YDDY	492	1	blank2r.bmp	572	2	ehrlich	866	1	!	1319	1	!	1412	0	0	0	0	0	0	0	0	0	0	0	0	0	0	0	0	0	0	0	0	0	0	0	0	0	0	0	0	0	0
070119	14:49:40	14:52:18	153947	5.0.10.0	5_exp_RW	999	Rpleas_acq	CS_B	BZZB	YDDY	JXXJ	VKKV	MQQM	GWWG	spielen	fair	schön	retten	ehrlich	treu	strafen	faul	schlecht	rächen	eitel	tot	1	acq_USpleas_CSpleas2_RW	acq2_RW	2	24	480	1	300	300	515	50	0	1	1	blank2r.bmp	0	1	+	0	1	blank2r.bmp	492	1	YDDY	492	1	blank2r.bmp	572	3	treu	866	1	!	1319	1	!	1412	0	0	0	0	0	0	0	0	0	0	0	0	0	0	0	0	0	0	0	0	0	0	0	0	0	0	0	0	0	0
070119	14:49:40	14:52:32	168008	5.0.10.0	5_exp_RW	999	Rpleas_acq	CS_B	BZZB	YDDY	JXXJ	VKKV	MQQM	GWWG	spielen	fair	schön	retten	ehrlich	treu	strafen	faul	schlecht	rächen	eitel	tot	1	acq_USunple_CSunple1_RW	acq3_RW	3	1	453	0	300	300	543	46	0	1	1	blank2r.bmp	0	1	+	0	1	blank2r.bmp	492	1	JXXJ	492	1	blank2r.bmp	572	2	faul	866	1	!	1292	1	!	-1	0	0	0	0	0	0	0	0	0	0	0	0	0	0	0	0	0	0	0	0	0	0	0	0	0	0	0	0	0	0
070119	14:49:40	14:52:34	170527	5.0.10.0	5_exp_RW	999	Rpleas_acq	CS_B	BZZB	YDDY	JXXJ	VKKV	MQQM	GWWG	spielen	fair	schön	retten	ehrlich	treu	strafen	faul	schlecht	rächen	eitel	tot	1	acq_USunple_CSunple2_RW	acq3_RW	3	2	453	1	300	300	517	50	0	0	1	blank2r.bmp	0	1	+	0	1	blank2r.bmp	492	1	VKKV	492	1	blank2r.bmp	572	2	eitel	866	1	FEHLER	1732	1	!	1292	1	!	1412	0	0	0	0	0	0	0	0	0	0	0	0	0	0	0	0	0	0	0	0	0	0	0	0	0	0	0
070119	14:49:40	14:52:36	172619	5.0.10.0	5_exp_RW	999	Rpleas_acq	CS_B	BZZB	YDDY	JXXJ	VKKV	MQQM	GWWG	spielen	fair	schön	retten	ehrlich	treu	strafen	faul	schlecht	rächen	eitel	tot	1	acq_USunple_CSunple2_RW	acq3_RW	3	3	453	1	300	300	507	46	0	1	1	blank2r.bmp	0	1	+	0	1	blank2r.bmp	492	1	VKKV	492	1	blank2r.bmp	572	1	rächen	867	1	!	1292	1	!	1412	0	0	0	0	0	0	0	0	0	0	0	0	0	0	0	0	0	0	0	0	0	0	0	0	0	0	0	0	0	0
070119	14:49:40	14:52:38	174858	5.0.10.0	5_exp_RW	999	Rpleas_acq	CS_B	BZZB	YDDY	JXXJ	VKKV	MQQM	GWWG	spielen	fair	schön	retten	ehrlich	treu	strafen	faul	schlecht	rächen	eitel	tot	1	acq_USunple_CSunple1_RW	acq3_RW	3	4	453	1	300	300	436	46	0	1	1	blank2r.bmp	0	1	+	0	1	blank2r.bmp	495	1	JXXJ	495	1	blank2r.bmp	572	3	schlecht	866	1	!	1292	1	!	1346	0	0	0	0	0	0	0	0	0	0	0	0	0	0	0	0	0	0	0	0	0	0	0	0	0	0	0	0	0	0
070119	14:49:40	14:52:41	177151	5.0.10.0	5_exp_RW	999	Rpleas_acq	CS_B	BZZB	YDDY	JXXJ	VKKV	MQQM	GWWG	spielen	fair	schön	retten	ehrlich	treu	strafen	faul	schlecht	rächen	eitel	tot	1	acq_USpleas_CSpleas1_RW	acq3_RW	3	5	453	1	300	300	502	50	0	1	1	blank2r.bmp	0	1	+	0	1	blank2r.bmp	492	1	BZZB	492	1	blank2r.bmp	572	1	spielen	866	1	!	1292	1	!	1399	0	0	0	0	0	0	0	0	0	0	0	0	0	0	0	0	0	0	0	0	0	0	0	0	0	0	0	0	0	0
070119	14:49:40	14:52:43	179430	5.0.10.0	5_exp_RW	999	Rpleas_acq	CS_B	BZZB	YDDY	JXXJ	VKKV	MQQM	GWWG	spielen	fair	schön	retten	ehrlich	treu	strafen	faul	schlecht	rächen	eitel	tot	1	acq_USunple_CSunple2_RW	acq3_RW	3	6	453	1	300	300	479	46	0	1	1	blank2r.bmp	0	1	+	0	1	blank2r.bmp	492	1	VKKV	492	1	blank2r.bmp	572	3	tot	866	1	!	1292	1	!	1386	0	0	0	0	0	0	0	0	0	0	0	0	0	0	0	0	0	0	0	0	0	0	0	0	0	0	0	0	0	0
070119	14:49:40	14:52:45	181709	5.0.10.0	5_exp_RW	999	Rpleas_acq	CS_B	BZZB	YDDY	JXXJ	VKKV	MQQM	GWWG	spielen	fair	schön	retten	ehrlich	treu	strafen	faul	schlecht	rächen	eitel	tot	1	acq_USunple_CSunple2_RW	acq3_RW	3	7	453	1	300	300	479	46	0	1	1	blank2r.bmp	0	1	+	0	1	blank2r.bmp	492	1	VKKV	492	1	blank2r.bmp	572	1	rächen	866	1	!	1292	1	!	1386	0	0	0	0	0	0	0	0	0	0	0	0	0	0	0	0	0	0	0	0	0	0	0	0	0	0	0	0	0	0
070119	14:49:40	14:52:48	184001	5.0.10.0	5_exp_RW	999	Rpleas_acq	CS_B	BZZB	YDDY	JXXJ	VKKV	MQQM	GWWG	spielen	fair	schön	retten	ehrlich	treu	strafen	faul	schlecht	rächen	eitel	tot	1	acq_USunple_CSunple1_RW	acq3_RW	3	8	453	1	300	300	499	46	0	1	1	blank2r.bmp	0	1	+	0	1	blank2r.bmp	492	1	JXXJ	492	1	blank2r.bmp	572	1	strafen	866	1	!	1292	1	!	1399	0	0	0	0	0	0	0	0	0	0	0	0	0	0	0	0	0	0	0	0	0	0	0	0	0	0	0	0	0	0
070119	14:49:40	14:52:50	186520	5.0.10.0	5_exp_RW	999	Rpleas_acq	CS_B	BZZB	YDDY	JXXJ	VKKV	MQQM	GWWG	spielen	fair	schön	retten	ehrlich	treu	strafen	faul	schlecht	rächen	eitel	tot	1	acq_USunple_CSunple2_RW	acq3_RW	3	9	453	1	300	300	514	50	0	0	1	blank2r.bmp	0	1	+	0	1	blank2r.bmp	492	1	VKKV	492	1	blank2r.bmp	572	2	eitel	866	1	FEHLER	1732	1	!	1292	1	!	1412	0	0	0	0	0	0	0	0	0	0	0	0	0	0	0	0	0	0	0	0	0	0	0	0	0	0	0
070119	14:49:40	14:52:52	188613	5.0.10.0	5_exp_RW	999	Rpleas_acq	CS_B	BZZB	YDDY	JXXJ	VKKV	MQQM	GWWG	spielen	fair	schön	retten	ehrlich	treu	strafen	faul	schlecht	rächen	eitel	tot	1	acq_USpleas_CSpleas2_RW	acq3_RW	3	10	453	0	300	300	545	50	0	1	1	blank2r.bmp	0	1	+	0	1	blank2r.bmp	492	1	YDDY	492	1	blank2r.bmp	572	2	ehrlich	866	1	!	1292	1	!	-1	0	0	0	0	0	0	0	0	0	0	0	0	0	0	0	0	0	0	0	0	0	0	0	0	0	0	0	0	0	0
070119	14:49:40	14:52:55	190932	5.0.10.0	5_exp_RW	999	Rpleas_acq	CS_B	BZZB	YDDY	JXXJ	VKKV	MQQM	GWWG	spielen	fair	schön	retten	ehrlich	treu	strafen	faul	schlecht	rächen	eitel	tot	1	acq_USunple_CSunple1_RW	acq3_RW	3	11	453	0	300	300	532	46	0	1	1	blank2r.bmp	0	1	+	0	1	blank2r.bmp	492	1	JXXJ	492	1	blank2r.bmp	572	3	schlecht	866	1	!	1292	1	!	-1	0	0	0	0	0	0	0	0	0	0	0	0	0	0	0	0	0	0	0	0	0	0	0	0	0	0	0	0	0	0
070119	14:49:40	14:52:57	193157	5.0.10.0	5_exp_RW	999	Rpleas_acq	CS_B	BZZB	YDDY	JXXJ	VKKV	MQQM	GWWG	spielen	fair	schön	retten	ehrlich	treu	strafen	faul	schlecht	rächen	eitel	tot	1	acq_USpleas_CSpleas2_RW	acq3_RW	3	12	453	1	300	300	419	50	0	1	1	blank2r.bmp	0	1	+	0	1	blank2r.bmp	492	1	YDDY	492	1	blank2r.bmp	572	1	retten	866	1	!	1292	1	!	1319	0	0	0	0	0	0	0	0	0	0	0	0	0	0	0	0	0	0	0	0	0	0	0	0	0	0	0	0	0	0
070119	14:49:40	14:52:59	195303	5.0.10.0	5_exp_RW	999	Rpleas_acq	CS_B	BZZB	YDDY	JXXJ	VKKV	MQQM	GWWG	spielen	fair	schön	retten	ehrlich	treu	strafen	faul	schlecht	rächen	eitel	tot	1	acq_USunple_CSunple1_RW	acq3_RW	3	13	453	0	300	300	380	46	0	1	1	blank2r.bmp	0	1	+	0	1	blank2r.bmp	492	1	JXXJ	492	1	blank2r.bmp	572	2	faul	866	1	!	-1	1	!	-1	0	0	0	0	0	0	0	0	0	0	0	0	0	0	0	0	0	0	0	0	0	0	0	0	0	0	0	0	0	0
070119	14:49:40	14:53:01	197622	5.0.10.0	5_exp_RW	999	Rpleas_acq	CS_B	BZZB	YDDY	JXXJ	VKKV	MQQM	GWWG	spielen	fair	schön	retten	ehrlich	treu	strafen	faul	schlecht	rächen	eitel	tot	1	acq_USpleas_CSpleas1_RW	acq3_RW	3	14	453	0	300	300	534	50	0	1	1	blank2r.bmp	0	1	+	0	1	blank2r.bmp	492	1	BZZB	492	1	blank2r.bmp	573	2	fair	866	1	!	1292	1	!	-1	0	0	0	0	0	0	0	0	0	0	0	0	0	0	0	0	0	0	0	0	0	0	0	0	0	0	0	0	0	0
070119	14:49:40	14:53:03	199861	5.0.10.0	5_exp_RW	999	Rpleas_acq	CS_B	BZZB	YDDY	JXXJ	VKKV	MQQM	GWWG	spielen	fair	schön	retten	ehrlich	treu	strafen	faul	schlecht	rächen	eitel	tot	1	acq_USpleas_CSpleas2_RW	acq3_RW	3	15	453	1	300	300	431	50	0	1	1	blank2r.bmp	0	1	+	0	1	blank2r.bmp	492	1	YDDY	492	1	blank2r.bmp	572	2	ehrlich	866	1	!	1292	1	!	1332	0	0	0	0	0	0	0	0	0	0	0	0	0	0	0	0	0	0	0	0	0	0	0	0	0	0	0	0	0	0
070119	14:49:40	14:53:06	202114	5.0.10.0	5_exp_RW	999	Rpleas_acq	CS_B	BZZB	YDDY	JXXJ	VKKV	MQQM	GWWG	spielen	fair	schön	retten	ehrlich	treu	strafen	faul	schlecht	rächen	eitel	tot	1	acq_USpleas_CSpleas2_RW	acq3_RW	3	16	453	1	300	300	455	50	0	1	1	blank2r.bmp	0	1	+	0	1	blank2r.bmp	492	1	YDDY	492	1	blank2r.bmp	572	3	treu	866	1	!	1292	1	!	1359	0	0	0	0	0	0	0	0	0	0	0	0	0	0	0	0	0	0	0	0	0	0	0	0	0	0	0	0	0	0
070119	14:49:40	14:53:08	204339	5.0.10.0	5_exp_RW	999	Rpleas_acq	CS_B	BZZB	YDDY	JXXJ	VKKV	MQQM	GWWG	spielen	fair	schön	retten	ehrlich	treu	strafen	faul	schlecht	rächen	eitel	tot	1	acq_USunple_CSunple1_RW	acq3_RW	3	17	453	1	300	300	438	46	0	1	1	blank2r.bmp	0	1	+	0	1	blank2r.bmp	492	1	JXXJ	492	1	blank2r.bmp	572	3	schlecht	866	1	!	1292	1	!	1332	0	0	0	0	0	0	0	0	0	0	0	0	0	0	0	0	0	0	0	0	0	0	0	0	0	0	0	0	0	0
070119	14:49:40	14:53:10	206605	5.0.10.0	5_exp_RW	999	Rpleas_acq	CS_B	BZZB	YDDY	JXXJ	VKKV	MQQM	GWWG	spielen	fair	schön	retten	ehrlich	treu	strafen	faul	schlecht	rächen	eitel	tot	1	acq_USunple_CSunple2_RW	acq3_RW	3	18	453	1	300	300	478	46	0	1	1	blank2r.bmp	0	1	+	0	1	blank2r.bmp	492	1	VKKV	492	1	blank2r.bmp	575	3	tot	866	1	!	1292	1	!	1372	0	0	0	0	0	0	0	0	0	0	0	0	0	0	0	0	0	0	0	0	0	0	0	0	0	0	0	0	0	0
070119	14:49:40	14:53:12	208858	5.0.10.0	5_exp_RW	999	Rpleas_acq	CS_B	BZZB	YDDY	JXXJ	VKKV	MQQM	GWWG	spielen	fair	schön	retten	ehrlich	treu	strafen	faul	schlecht	rächen	eitel	tot	1	acq_USpleas_CSpleas1_RW	acq3_RW	3	19	453	1	300	300	458	50	0	1	1	blank2r.bmp	0	1	+	0	1	blank2r.bmp	492	1	BZZB	492	1	blank2r.bmp	572	1	spielen	866	1	!	1292	1	!	1359	0	0	0	0	0	0	0	0	0	0	0	0	0	0	0	0	0	0	0	0	0	0	0	0	0	0	0	0	0	0
070119	14:49:40	14:53:15	211163	5.0.10.0	5_exp_RW	999	Rpleas_acq	CS_B	BZZB	YDDY	JXXJ	VKKV	MQQM	GWWG	spielen	fair	schön	retten	ehrlich	treu	strafen	faul	schlecht	rächen	eitel	tot	1	acq_USpleas_CSpleas1_RW	acq3_RW	3	20	453	0	300	300	532	50	0	1	1	blank2r.bmp	0	1	+	0	1	blank2r.bmp	492	1	BZZB	492	1	blank2r.bmp	572	3	schön	866	1	!	1292	1	!	-1	0	0	0	0	0	0	0	0	0	0	0	0	0	0	0	0	0	0	0	0	0	0	0	0	0	0	0	0	0	0
070119	14:49:40	14:53:17	213442	5.0.10.0	5_exp_RW	999	Rpleas_acq	CS_B	BZZB	YDDY	JXXJ	VKKV	MQQM	GWWG	spielen	fair	schön	retten	ehrlich	treu	strafen	faul	schlecht	rächen	eitel	tot	1	acq_USpleas_CSpleas1_RW	acq3_RW	3	21	453	1	300	300	467	50	0	1	1	blank2r.bmp	0	1	+	0	1	blank2r.bmp	492	1	BZZB	492	1	blank2r.bmp	572	2	fair	866	1	!	1292	1	!	1372	0	0	0	0	0	0	0	0	0	0	0	0	0	0	0	0	0	0	0	0	0	0	0	0	0	0	0	0	0	0
070119	14:49:40	14:53:19	215735	5.0.10.0	5_exp_RW	999	Rpleas_acq	CS_B	BZZB	YDDY	JXXJ	VKKV	MQQM	GWWG	spielen	fair	schön	retten	ehrlich	treu	strafen	faul	schlecht	rächen	eitel	tot	1	acq_USpleas_CSpleas2_RW	acq3_RW	3	22	453	1	300	300	501	50	0	1	1	blank2r.bmp	0	1	+	0	1	blank2r.bmp	492	1	YDDY	492	1	blank2r.bmp	572	1	retten	866	1	!	1292	1	!	1399	0	0	0	0	0	0	0	0	0	0	0	0	0	0	0	0	0	0	0	0	0	0	0	0	0	0	0	0	0	0
070119	14:49:40	14:53:22	218040	5.0.10.0	5_exp_RW	999	Rpleas_acq	CS_B	BZZB	YDDY	JXXJ	VKKV	MQQM	GWWG	spielen	fair	schön	retten	ehrlich	treu	strafen	faul	schlecht	rächen	eitel	tot	1	acq_USpleas_CSpleas1_RW	acq3_RW	3	23	453	1	300	300	518	50	0	1	1	blank2r.bmp	0	1	+	0	1	blank2r.bmp	492	1	BZZB	492	1	blank2r.bmp	572	3	schön	866	1	!	1292	1	!	1412	0	0	0	0	0	0	0	0	0	0	0	0	0	0	0	0	0	0	0	0	0	0	0	0	0	0	0	0	0	0
070119	14:49:40	14:53:24	220346	5.0.10.0	5_exp_RW	999	Rpleas_acq	CS_B	BZZB	YDDY	JXXJ	VKKV	MQQM	GWWG	spielen	fair	schön	retten	ehrlich	treu	strafen	faul	schlecht	rächen	eitel	tot	1	acq_USpleas_CSpleas2_RW	acq3_RW	3	24	453	1	300	300	512	50	0	1	1	blank2r.bmp	0	1	+	0	1	blank2r.bmp	492	1	YDDY	492	1	blank2r.bmp	574	1	retten	866	1	!	1292	1	!	1412	0	0	0	0	0	0	0	0	0	0	0	0	0	0	0	0	0	0	0	0	0	0	0	0	0	0	0	0	0	0
070119	14:49:40	14:53:36	232221	5.0.10.0	5_exp_RW	999	Rpleas_acq	CS_B	BZZB	YDDY	JXXJ	VKKV	MQQM	GWWG	spielen	fair	schön	retten	ehrlich	treu	strafen	faul	schlecht	rächen	eitel	tot	1	acq_USunple_CSunple1_RW	acq4567_RW	4	1	400	0	300	300	481	46	0	1	1	blank2r.bmp	0	1	+	0	1	blank2r.bmp	492	1	JXXJ	492	1	blank2r.bmp	572	1	strafen	866	1	!	1239	1	!	-1	0	0	0	0	0	0	0	0	0	0	0	0	0	0	0	0	0	0	0	0	0	0	0	0	0	0	0	0	0	0
070119	14:49:40	14:53:38	234407	5.0.10.0	5_exp_RW	999	Rpleas_acq	CS_B	BZZB	YDDY	JXXJ	VKKV	MQQM	GWWG	spielen	fair	schön	retten	ehrlich	treu	strafen	faul	schlecht	rächen	eitel	tot	1	acq_USunple_CSunple1_RW	acq4567_RW	4	2	400	1	300	300	384	46	0	1	1	blank2r.bmp	0	1	+	0	1	blank2r.bmp	492	1	JXXJ	492	1	blank2r.bmp	572	2	faul	866	1	!	1239	1	!	1292	0	0	0	0	0	0	0	0	0	0	0	0	0	0	0	0	0	0	0	0	0	0	0	0	0	0	0	0	0	0
070119	14:49:40	14:53:40	236646	5.0.10.0	5_exp_RW	999	Rpleas_acq	CS_B	BZZB	YDDY	JXXJ	VKKV	MQQM	GWWG	spielen	fair	schön	retten	ehrlich	treu	strafen	faul	schlecht	rächen	eitel	tot	1	acq_USunple_CSunple2_RW	acq4567_RW	4	3	400	1	300	300	448	50	0	0	1	blank2r.bmp	0	1	+	0	1	blank2r.bmp	492	1	VKKV	492	1	blank2r.bmp	574	2	eitel	866	1	!	1239	1	!	1346	0	0	0	0	0	0	0	0	0	0	0	0	0	0	0	0	0	0	0	0	0	0	0	0	0	0	0	0	0	0
070119	14:49:40	14:53:42	238712	5.0.10.0	5_exp_RW	999	Rpleas_acq	CS_B	BZZB	YDDY	JXXJ	VKKV	MQQM	GWWG	spielen	fair	schön	retten	ehrlich	treu	strafen	faul	schlecht	rächen	eitel	tot	1	acq_USunple_CSunple2_RW	acq4567_RW	4	4	400	0	300	300	278	46	0	1	1	blank2r.bmp	0	1	+	0	1	blank2r.bmp	492	1	VKKV	492	1	blank2r.bmp	572	1	rächen	868	1	!	-1	1	!	-1	0	0	0	0	0	0	0	0	0	0	0	0	0	0	0	0	0	0	0	0	0	0	0	0	0	0	0	0	0	0
070119	14:49:40	14:53:45	240937	5.0.10.0	5_exp_RW	999	Rpleas_acq	CS_B	BZZB	YDDY	JXXJ	VKKV	MQQM	GWWG	spielen	fair	schön	retten	ehrlich	treu	strafen	faul	schlecht	rächen	eitel	tot	1	acq_USpleas_CSpleas2_RW	acq4567_RW	4	5	400	1	300	300	436	50	0	1	1	blank2r.bmp	0	1	+	0	1	blank2r.bmp	492	1	YDDY	492	1	blank2r.bmp	572	2	ehrlich	866	1	!	1239	1	!	1332	0	0	0	0	0	0	0	0	0	0	0	0	0	0	0	0	0	0	0	0	0	0	0	0	0	0	0	0	0	0
070119	14:49:40	14:53:47	243190	5.0.10.0	5_exp_RW	999	Rpleas_acq	CS_B	BZZB	YDDY	JXXJ	VKKV	MQQM	GWWG	spielen	fair	schön	retten	ehrlich	treu	strafen	faul	schlecht	rächen	eitel	tot	1	acq_USunple_CSunple1_RW	acq4567_RW	4	6	400	0	300	300	482	46	0	1	1	blank2r.bmp	0	1	+	0	1	blank2r.bmp	493	1	JXXJ	493	1	blank2r.bmp	572	3	schlecht	866	1	!	1239	1	!	-1	0	0	0	0	0	0	0	0	0	0	0	0	0	0	0	0	0	0	0	0	0	0	0	0	0	0	0	0	0	0
070119	14:49:40	14:53:49	245429	5.0.10.0	5_exp_RW	999	Rpleas_acq	CS_B	BZZB	YDDY	JXXJ	VKKV	MQQM	GWWG	spielen	fair	schön	retten	ehrlich	treu	strafen	faul	schlecht	rächen	eitel	tot	1	acq_USpleas_CSpleas1_RW	acq4567_RW	4	7	400	1	300	300	432	50	0	1	1	blank2r.bmp	0	1	+	0	1	blank2r.bmp	492	1	BZZB	492	1	blank2r.bmp	572	1	spielen	866	1	!	1239	1	!	1332	0	0	0	0	0	0	0	0	0	0	0	0	0	0	0	0	0	0	0	0	0	0	0	0	0	0	0	0	0	0
070119	14:49:40	14:53:51	247575	5.0.10.0	5_exp_RW	999	Rpleas_acq	CS_B	BZZB	YDDY	JXXJ	VKKV	MQQM	GWWG	spielen	fair	schön	retten	ehrlich	treu	strafen	faul	schlecht	rächen	eitel	tot	1	acq_USpleas_CSpleas1_RW	acq4567_RW	4	8	400	1	300	300	357	46	0	0	1	blank2r.bmp	0	1	+	0	1	blank2r.bmp	492	1	BZZB	492	1	blank2r.bmp	572	2	fair	866	1	!	1239	1	!	1252	0	0	0	0	0	0	0	0	0	0	0	0	0	0	0	0	0	0	0	0	0	0	0	0	0	0	0	0	0	0
070119	14:49:40	14:53:53	249840	5.0.10.0	5_exp_RW	999	Rpleas_acq	CS_B	BZZB	YDDY	JXXJ	VKKV	MQQM	GWWG	spielen	fair	schön	retten	ehrlich	treu	strafen	faul	schlecht	rächen	eitel	tot	1	acq_USpleas_CSpleas1_RW	acq4567_RW	4	9	400	0	300	300	479	50	0	1	1	blank2r.bmp	0	1	+	0	1	blank2r.bmp	492	1	BZZB	492	1	blank2r.bmp	573	3	schön	866	1	!	1239	1	!	-1	0	0	0	0	0	0	0	0	0	0	0	0	0	0	0	0	0	0	0	0	0	0	0	0	0	0	0	0	0	0
070119	14:49:40	14:53:56	252013	5.0.10.0	5_exp_RW	999	Rpleas_acq	CS_B	BZZB	YDDY	JXXJ	VKKV	MQQM	GWWG	spielen	fair	schön	retten	ehrlich	treu	strafen	faul	schlecht	rächen	eitel	tot	1	acq_USunple_CSunple1_RW	acq4567_RW	4	10	400	1	300	300	373	46	0	1	1	blank2r.bmp	0	1	+	0	1	blank2r.bmp	492	1	JXXJ	492	1	blank2r.bmp	575	2	faul	866	1	!	1239	1	!	1279	0	0	0	0	0	0	0	0	0	0	0	0	0	0	0	0	0	0	0	0	0	0	0	0	0	0	0	0	0	0
070119	14:49:40	14:53:58	254278	5.0.10.0	5_exp_RW	999	Rpleas_acq	CS_B	BZZB	YDDY	JXXJ	VKKV	MQQM	GWWG	spielen	fair	schön	retten	ehrlich	treu	strafen	faul	schlecht	rächen	eitel	tot	1	acq_USunple_CSunple1_RW	acq4567_RW	4	11	400	1	300	300	465	46	0	1	1	blank2r.bmp	0	1	+	0	1	blank2r.bmp	492	1	JXXJ	492	1	blank2r.bmp	572	1	strafen	866	1	!	1239	1	!	1372	0	0	0	0	0	0	0	0	0	0	0	0	0	0	0	0	0	0	0	0	0	0	0	0	0	0	0	0	0	0
070119	14:49:40	14:54:00	256611	5.0.10.0	5_exp_RW	999	Rpleas_acq	CS_B	BZZB	YDDY	JXXJ	VKKV	MQQM	GWWG	spielen	fair	schön	retten	ehrlich	treu	strafen	faul	schlecht	rächen	eitel	tot	1	acq_USpleas_CSpleas2_RW	acq4567_RW	4	12	400	0	300	300	548	50	0	1	1	blank2r.bmp	0	1	+	0	1	blank2r.bmp	492	1	YDDY	492	1	blank2r.bmp	572	3	treu	866	1	!	1239	1	!	-1	0	0	0	0	0	0	0	0	0	0	0	0	0	0	0	0	0	0	0	0	0	0	0	0	0	0	0	0	0	0
070119	14:49:40	14:54:02	258823	5.0.10.0	5_exp_RW	999	Rpleas_acq	CS_B	BZZB	YDDY	JXXJ	VKKV	MQQM	GWWG	spielen	fair	schön	retten	ehrlich	treu	strafen	faul	schlecht	rächen	eitel	tot	1	acq_USunple_CSunple2_RW	acq4567_RW	4	13	400	1	300	300	411	50	0	0	1	blank2r.bmp	0	1	+	0	1	blank2r.bmp	492	1	VKKV	492	1	blank2r.bmp	572	2	eitel	866	1	!	1239	1	!	1319	0	0	0	0	0	0	0	0	0	0	0	0	0	0	0	0	0	0	0	0	0	0	0	0	0	0	0	0	0	0
070119	14:49:40	14:54:05	261009	5.0.10.0	5_exp_RW	999	Rpleas_acq	CS_B	BZZB	YDDY	JXXJ	VKKV	MQQM	GWWG	spielen	fair	schön	retten	ehrlich	treu	strafen	faul	schlecht	rächen	eitel	tot	1	acq_USunple_CSunple2_RW	acq4567_RW	4	14	400	1	300	300	387	46	0	1	1	blank2r.bmp	0	1	+	0	1	blank2r.bmp	492	1	VKKV	492	1	blank2r.bmp	572	3	tot	866	1	!	1239	1	!	1292	0	0	0	0	0	0	0	0	0	0	0	0	0	0	0	0	0	0	0	0	0	0	0	0	0	0	0	0	0	0
070119	14:49:40	14:54:07	263221	5.0.10.0	5_exp_RW	999	Rpleas_acq	CS_B	BZZB	YDDY	JXXJ	VKKV	MQQM	GWWG	spielen	fair	schön	retten	ehrlich	treu	strafen	faul	schlecht	rächen	eitel	tot	1	acq_USpleas_CSpleas1_RW	acq4567_RW	4	15	400	1	300	300	421	50	0	1	1	blank2r.bmp	0	1	+	0	1	blank2r.bmp	492	1	BZZB	492	1	blank2r.bmp	572	1	spielen	866	1	!	1239	1	!	1319	0	0	0	0	0	0	0	0	0	0	0	0	0	0	0	0	0	0	0	0	0	0	0	0	0	0	0	0	0	0
070119	14:49:40	14:54:09	265447	5.0.10.0	5_exp_RW	999	Rpleas_acq	CS_B	BZZB	YDDY	JXXJ	VKKV	MQQM	GWWG	spielen	fair	schön	retten	ehrlich	treu	strafen	faul	schlecht	rächen	eitel	tot	1	acq_USpleas_CSpleas2_RW	acq4567_RW	4	16	400	1	300	300	438	50	0	1	1	blank2r.bmp	0	1	+	0	1	blank2r.bmp	492	1	YDDY	492	1	blank2r.bmp	572	3	treu	866	1	!	1239	1	!	1332	0	0	0	0	0	0	0	0	0	0	0	0	0	0	0	0	0	0	0	0	0	0	0	0	0	0	0	0	0	0
070119	14:49:40	14:54:11	267619	5.0.10.0	5_exp_RW	999	Rpleas_acq	CS_B	BZZB	YDDY	JXXJ	VKKV	MQQM	GWWG	spielen	fair	schön	retten	ehrlich	treu	strafen	faul	schlecht	rächen	eitel	tot	1	acq_USpleas_CSpleas1_RW	acq4567_RW	4	17	400	1	300	300	376	50	0	1	1	blank2r.bmp	0	1	+	0	1	blank2r.bmp	492	1	BZZB	492	1	blank2r.bmp	572	2	fair	866	1	!	1239	1	!	1279	0	0	0	0	0	0	0	0	0	0	0	0	0	0	0	0	0	0	0	0	0	0	0	0	0	0	0	0	0	0
070119	14:49:40	14:54:13	269859	5.0.10.0	5_exp_RW	999	Rpleas_acq	CS_B	BZZB	YDDY	JXXJ	VKKV	MQQM	GWWG	spielen	fair	schön	retten	ehrlich	treu	strafen	faul	schlecht	rächen	eitel	tot	1	acq_USunple_CSunple2_RW	acq4567_RW	4	18	400	1	300	300	440	50	0	0	1	blank2r.bmp	0	1	+	0	1	blank2r.bmp	495	1	VKKV	495	1	blank2r.bmp	572	1	rächen	866	1	!	1239	1	!	1346	0	0	0	0	0	0	0	0	0	0	0	0	0	0	0	0	0	0	0	0	0	0	0	0	0	0	0	0	0	0
070119	14:49:40	14:54:16	272111	5.0.10.0	5_exp_RW	999	Rpleas_acq	CS_B	BZZB	YDDY	JXXJ	VKKV	MQQM	GWWG	spielen	fair	schön	retten	ehrlich	treu	strafen	faul	schlecht	rächen	eitel	tot	1	acq_USpleas_CSpleas2_RW	acq4567_RW	4	19	400	0	300	300	479	46	0	0	1	blank2r.bmp	0	1	+	0	1	blank2r.bmp	492	1	YDDY	492	1	blank2r.bmp	572	1	retten	866	1	!	1239	1	!	-1	0	0	0	0	0	0	0	0	0	0	0	0	0	0	0	0	0	0	0	0	0	0	0	0	0	0	0	0	0	0
070119	14:49:40	14:54:18	274337	5.0.10.0	5_exp_RW	999	Rpleas_acq	CS_B	BZZB	YDDY	JXXJ	VKKV	MQQM	GWWG	spielen	fair	schön	retten	ehrlich	treu	strafen	faul	schlecht	rächen	eitel	tot	1	acq_USpleas_CSpleas2_RW	acq4567_RW	4	20	400	1	300	300	424	50	0	1	1	blank2r.bmp	0	1	+	0	1	blank2r.bmp	492	1	YDDY	492	1	blank2r.bmp	572	2	ehrlich	866	1	!	1239	1	!	1319	0	0	0	0	0	0	0	0	0	0	0	0	0	0	0	0	0	0	0	0	0	0	0	0	0	0	0	0	0	0
070119	14:49:40	14:54:20	276509	5.0.10.0	5_exp_RW	999	Rpleas_acq	CS_B	BZZB	YDDY	JXXJ	VKKV	MQQM	GWWG	spielen	fair	schön	retten	ehrlich	treu	strafen	faul	schlecht	rächen	eitel	tot	1	acq_USunple_CSunple1_RW	acq4567_RW	4	21	400	1	300	300	377	46	0	1	1	blank2r.bmp	0	1	+	0	1	blank2r.bmp	492	1	JXXJ	492	1	blank2r.bmp	572	2	faul	866	1	!	1239	1	!	1279	0	0	0	0	0	0	0	0	0	0	0	0	0	0	0	0	0	0	0	0	0	0	0	0	0	0	0	0	0	0
070119	14:49:40	14:54:22	278655	5.0.10.0	5_exp_RW	999	Rpleas_acq	CS_B	BZZB	YDDY	JXXJ	VKKV	MQQM	GWWG	spielen	fair	schön	retten	ehrlich	treu	strafen	faul	schlecht	rächen	eitel	tot	1	acq_USunple_CSunple1_RW	acq4567_RW	4	22	400	1	300	300	346	50	0	0	1	blank2r.bmp	0	1	+	0	1	blank2r.bmp	492	1	JXXJ	492	1	blank2r.bmp	572	3	schlecht	866	1	!	1239	1	!	1252	0	0	0	0	0	0	0	0	0	0	0	0	0	0	0	0	0	0	0	0	0	0	0	0	0	0	0	0	0	0
070119	14:49:40	14:54:24	280841	5.0.10.0	5_exp_RW	999	Rpleas_acq	CS_B	BZZB	YDDY	JXXJ	VKKV	MQQM	GWWG	spielen	fair	schön	retten	ehrlich	treu	strafen	faul	schlecht	rächen	eitel	tot	1	acq_USunple_CSunple1_RW	acq4567_RW	4	23	400	1	300	300	396	46	0	1	1	blank2r.bmp	0	1	+	0	1	blank2r.bmp	492	1	JXXJ	492	1	blank2r.bmp	572	1	strafen	866	1	!	1239	1	!	1292	0	0	0	0	0	0	0	0	0	0	0	0	0	0	0	0	0	0	0	0	0	0	0	0	0	0	0	0	0	0
070119	14:49:40	14:54:27	283106	5.0.10.0	5_exp_RW	999	Rpleas_acq	CS_B	BZZB	YDDY	JXXJ	VKKV	MQQM	GWWG	spielen	fair	schön	retten	ehrlich	treu	strafen	faul	schlecht	rächen	eitel	tot	1	acq_USpleas_CSpleas2_RW	acq4567_RW	4	24	400	1	300	300	466	50	0	1	1	blank2r.bmp	0	1	+	0	1	blank2r.bmp	492	1	YDDY	492	1	blank2r.bmp	574	2	ehrlich	866	1	!	1239	1	!	1372	0	0	0	0	0	0	0	0	0	0	0	0	0	0	0	0	0	0	0	0	0	0	0	0	0	0	0	0	0	0
070119	14:49:40	14:54:29	285319	5.0.10.0	5_exp_RW	999	Rpleas_acq	CS_B	BZZB	YDDY	JXXJ	VKKV	MQQM	GWWG	spielen	fair	schön	retten	ehrlich	treu	strafen	faul	schlecht	rächen	eitel	tot	1	acq_USpleas_CSpleas2_RW	acq4567_RW	4	25	400	1	300	300	413	46	0	0	1	blank2r.bmp	0	1	+	0	1	blank2r.bmp	492	1	YDDY	492	1	blank2r.bmp	575	1	retten	866	1	!	1239	1	!	1319	0	0	0	0	0	0	0	0	0	0	0	0	0	0	0	0	0	0	0	0	0	0	0	0	0	0	0	0	0	0
070119	14:49:40	14:54:31	287598	5.0.10.0	5_exp_RW	999	Rpleas_acq	CS_B	BZZB	YDDY	JXXJ	VKKV	MQQM	GWWG	spielen	fair	schön	retten	ehrlich	treu	strafen	faul	schlecht	rächen	eitel	tot	1	acq_USpleas_CSpleas1_RW	acq4567_RW	4	26	400	0	300	300	504	50	0	1	1	blank2r.bmp	0	1	+	0	1	blank2r.bmp	492	1	BZZB	492	1	blank2r.bmp	572	3	schön	866	1	!	1239	1	!	-1	0	0	0	0	0	0	0	0	0	0	0	0	0	0	0	0	0	0	0	0	0	0	0	0	0	0	0	0	0	0
070119	14:49:40	14:54:33	289783	5.0.10.0	5_exp_RW	999	Rpleas_acq	CS_B	BZZB	YDDY	JXXJ	VKKV	MQQM	GWWG	spielen	fair	schön	retten	ehrlich	treu	strafen	faul	schlecht	rächen	eitel	tot	1	acq_USunple_CSunple1_RW	acq4567_RW	4	27	400	1	300	300	380	46	0	1	1	blank2r.bmp	0	1	+	0	1	blank2r.bmp	492	1	JXXJ	492	1	blank2r.bmp	572	3	schlecht	866	1	!	1239	1	!	1279	0	0	0	0	0	0	0	0	0	0	0	0	0	0	0	0	0	0	0	0	0	0	0	0	0	0	0	0	0	0
070119	14:49:40	14:54:36	292022	5.0.10.0	5_exp_RW	999	Rpleas_acq	CS_B	BZZB	YDDY	JXXJ	VKKV	MQQM	GWWG	spielen	fair	schön	retten	ehrlich	treu	strafen	faul	schlecht	rächen	eitel	tot	1	acq_USpleas_CSpleas1_RW	acq4567_RW	4	28	400	1	300	300	451	50	0	1	1	blank2r.bmp	0	1	+	0	1	blank2r.bmp	492	1	BZZB	492	1	blank2r.bmp	572	2	fair	866	1	!	1239	1	!	1346	0	0	0	0	0	0	0	0	0	0	0	0	0	0	0	0	0	0	0	0	0	0	0	0	0	0	0	0	0	0
070119	14:49:40	14:54:38	294222	5.0.10.0	5_exp_RW	999	Rpleas_acq	CS_B	BZZB	YDDY	JXXJ	VKKV	MQQM	GWWG	spielen	fair	schön	retten	ehrlich	treu	strafen	faul	schlecht	rächen	eitel	tot	1	acq_USpleas_CSpleas2_RW	acq4567_RW	4	29	400	1	300	300	408	50	0	1	1	blank2r.bmp	0	1	+	0	1	blank2r.bmp	492	1	YDDY	492	1	blank2r.bmp	572	3	treu	866	1	!	1239	1	!	1306	0	0	0	0	0	0	0	0	0	0	0	0	0	0	0	0	0	0	0	0	0	0	0	0	0	0	0	0	0	0
070119	14:49:40	14:54:40	296461	5.0.10.0	5_exp_RW	999	Rpleas_acq	CS_B	BZZB	YDDY	JXXJ	VKKV	MQQM	GWWG	spielen	fair	schön	retten	ehrlich	treu	strafen	faul	schlecht	rächen	eitel	tot	1	acq_USpleas_CSpleas2_RW	acq4567_RW	4	30	400	1	300	300	446	50	0	1	1	blank2r.bmp	0	1	+	0	1	blank2r.bmp	493	1	YDDY	493	1	blank2r.bmp	573	1	retten	866	1	!	1239	1	!	1346	0	0	0	0	0	0	0	0	0	0	0	0	0	0	0	0	0	0	0	0	0	0	0	0	0	0	0	0	0	0
070119	14:49:40	14:54:42	298686	5.0.10.0	5_exp_RW	999	Rpleas_acq	CS_B	BZZB	YDDY	JXXJ	VKKV	MQQM	GWWG	spielen	fair	schön	retten	ehrlich	treu	strafen	faul	schlecht	rächen	eitel	tot	1	acq_USpleas_CSpleas1_RW	acq4567_RW	4	31	400	1	300	300	435	50	0	1	1	blank2r.bmp	0	1	+	0	1	blank2r.bmp	492	1	BZZB	492	1	blank2r.bmp	572	1	spielen	866	1	!	1239	1	!	1332	0	0	0	0	0	0	0	0	0	0	0	0	0	0	0	0	0	0	0	0	0	0	0	0	0	0	0	0	0	0
070119	14:49:40	14:54:45	300939	5.0.10.0	5_exp_RW	999	Rpleas_acq	CS_B	BZZB	YDDY	JXXJ	VKKV	MQQM	GWWG	spielen	fair	schön	retten	ehrlich	treu	strafen	faul	schlecht	rächen	eitel	tot	1	acq_USpleas_CSpleas1_RW	acq4567_RW	4	32	400	1	300	300	455	50	0	1	1	blank2r.bmp	0	1	+	0	1	blank2r.bmp	492	1	BZZB	492	1	blank2r.bmp	572	3	schön	866	1	!	1239	1	!	1359	0	0	0	0	0	0	0	0	0	0	0	0	0	0	0	0	0	0	0	0	0	0	0	0	0	0	0	0	0	0
070119	14:49:40	14:54:47	303244	5.0.10.0	5_exp_RW	999	Rpleas_acq	CS_B	BZZB	YDDY	JXXJ	VKKV	MQQM	GWWG	spielen	fair	schön	retten	ehrlich	treu	strafen	faul	schlecht	rächen	eitel	tot	1	acq_USpleas_CSpleas2_RW	acq4567_RW	4	33	400	0	300	300	519	50	0	1	1	blank2r.bmp	0	1	+	0	1	blank2r.bmp	492	1	YDDY	492	1	blank2r.bmp	572	2	ehrlich	866	1	!	1239	1	!	-1	0	0	0	0	0	0	0	0	0	0	0	0	0	0	0	0	0	0	0	0	0	0	0	0	0	0	0	0	0	0
070119	14:49:40	14:54:49	305444	5.0.10.0	5_exp_RW	999	Rpleas_acq	CS_B	BZZB	YDDY	JXXJ	VKKV	MQQM	GWWG	spielen	fair	schön	retten	ehrlich	treu	strafen	faul	schlecht	rächen	eitel	tot	1	acq_USunple_CSunple1_RW	acq4567_RW	4	34	400	1	300	300	406	46	0	1	1	blank2r.bmp	0	1	+	0	1	blank2r.bmp	492	1	JXXJ	492	1	blank2r.bmp	572	1	strafen	866	1	!	1239	1	!	1306	0	0	0	0	0	0	0	0	0	0	0	0	0	0	0	0	0	0	0	0	0	0	0	0	0	0	0	0	0	0
070119	14:49:40	14:54:51	307696	5.0.10.0	5_exp_RW	999	Rpleas_acq	CS_B	BZZB	YDDY	JXXJ	VKKV	MQQM	GWWG	spielen	fair	schön	retten	ehrlich	treu	strafen	faul	schlecht	rächen	eitel	tot	1	acq_USunple_CSunple2_RW	acq4567_RW	4	35	400	0	300	300	485	46	0	1	1	blank2r.bmp	0	1	+	0	1	blank2r.bmp	492	1	VKKV	492	1	blank2r.bmp	572	1	rächen	866	1	!	1239	1	!	-1	0	0	0	0	0	0	0	0	0	0	0	0	0	0	0	0	0	0	0	0	0	0	0	0	0	0	0	0	0	0
070119	14:49:40	14:54:54	309948	5.0.10.0	5_exp_RW	999	Rpleas_acq	CS_B	BZZB	YDDY	JXXJ	VKKV	MQQM	GWWG	spielen	fair	schön	retten	ehrlich	treu	strafen	faul	schlecht	rächen	eitel	tot	1	acq_USpleas_CSpleas1_RW	acq4567_RW	4	36	400	1	300	300	449	50	0	1	1	blank2r.bmp	0	1	+	0	1	blank2r.bmp	492	1	BZZB	492	1	blank2r.bmp	572	2	fair	866	1	!	1239	1	!	1346	0	0	0	0	0	0	0	0	0	0	0	0	0	0	0	0	0	0	0	0	0	0	0	0	0	0	0	0	0	0
070119	14:49:40	14:54:56	312254	5.0.10.0	5_exp_RW	999	Rpleas_acq	CS_B	BZZB	YDDY	JXXJ	VKKV	MQQM	GWWG	spielen	fair	schön	retten	ehrlich	treu	strafen	faul	schlecht	rächen	eitel	tot	1	acq_USunple_CSunple2_RW	acq4567_RW	4	37	400	0	300	300	532	46	0	1	1	blank2r.bmp	0	1	+	0	1	blank2r.bmp	492	1	VKKV	492	1	blank2r.bmp	572	2	eitel	866	1	!	1239	1	!	-1	0	0	0	0	0	0	0	0	0	0	0	0	0	0	0	0	0	0	0	0	0	0	0	0	0	0	0	0	0	0
070119	14:49:40	14:54:58	314466	5.0.10.0	5_exp_RW	999	Rpleas_acq	CS_B	BZZB	YDDY	JXXJ	VKKV	MQQM	GWWG	spielen	fair	schön	retten	ehrlich	treu	strafen	faul	schlecht	rächen	eitel	tot	1	acq_USunple_CSunple2_RW	acq4567_RW	4	38	400	1	300	300	407	46	0	1	1	blank2r.bmp	0	1	+	0	1	blank2r.bmp	492	1	VKKV	492	1	blank2r.bmp	572	3	tot	866	1	!	1239	1	!	1306	0	0	0	0	0	0	0	0	0	0	0	0	0	0	0	0	0	0	0	0	0	0	0	0	0	0	0	0	0	0
070119	14:49:40	14:55:00	316612	5.0.10.0	5_exp_RW	999	Rpleas_acq	CS_B	BZZB	YDDY	JXXJ	VKKV	MQQM	GWWG	spielen	fair	schön	retten	ehrlich	treu	strafen	faul	schlecht	rächen	eitel	tot	1	acq_USunple_CSunple2_RW	acq4567_RW	4	39	400	1	300	300	345	46	0	1	1	blank2r.bmp	0	1	+	0	1	blank2r.bmp	492	1	VKKV	492	1	blank2r.bmp	572	3	tot	866	1	!	1239	1	!	1252	0	0	0	0	0	0	0	0	0	0	0	0	0	0	0	0	0	0	0	0	0	0	0	0	0	0	0	0	0	0
070119	14:49:40	14:55:02	318825	5.0.10.0	5_exp_RW	999	Rpleas_acq	CS_B	BZZB	YDDY	JXXJ	VKKV	MQQM	GWWG	spielen	fair	schön	retten	ehrlich	treu	strafen	faul	schlecht	rächen	eitel	tot	1	acq_USunple_CSunple2_RW	acq4567_RW	4	40	400	1	300	300	415	46	0	1	1	blank2r.bmp	2	1	+	2	1	blank2r.bmp	492	1	VKKV	492	1	blank2r.bmp	572	1	rächen	866	1	!	1239	1	!	1319	0	0	0	0	0	0	0	0	0	0	0	0	0	0	0	0	0	0	0	0	0	0	0	0	0	0	0	0	0	0
070119	14:49:40	14:55:05	321077	5.0.10.0	5_exp_RW	999	Rpleas_acq	CS_B	BZZB	YDDY	JXXJ	VKKV	MQQM	GWWG	spielen	fair	schön	retten	ehrlich	treu	strafen	faul	schlecht	rächen	eitel	tot	1	acq_USpleas_CSpleas2_RW	acq4567_RW	4	41	400	1	300	300	459	50	0	1	1	blank2r.bmp	0	1	+	0	1	blank2r.bmp	492	1	YDDY	492	1	blank2r.bmp	572	3	treu	866	1	!	1239	1	!	1359	0	0	0	0	0	0	0	0	0	0	0	0	0	0	0	0	0	0	0	0	0	0	0	0	0	0	0	0	0	0
070119	14:49:40	14:55:07	323249	5.0.10.0	5_exp_RW	999	Rpleas_acq	CS_B	BZZB	YDDY	JXXJ	VKKV	MQQM	GWWG	spielen	fair	schön	retten	ehrlich	treu	strafen	faul	schlecht	rächen	eitel	tot	1	acq_USpleas_CSpleas1_RW	acq4567_RW	4	42	400	1	300	300	373	50	0	1	1	blank2r.bmp	0	1	+	0	1	blank2r.bmp	492	1	BZZB	492	1	blank2r.bmp	572	1	spielen	866	1	!	1239	1	!	1279	0	0	0	0	0	0	0	0	0	0	0	0	0	0	0	0	0	0	0	0	0	0	0	0	0	0	0	0	0	0
070119	14:49:40	14:55:09	325342	5.0.10.0	5_exp_RW	999	Rpleas_acq	CS_B	BZZB	YDDY	JXXJ	VKKV	MQQM	GWWG	spielen	fair	schön	retten	ehrlich	treu	strafen	faul	schlecht	rächen	eitel	tot	1	acq_USunple_CSunple2_RW	acq4567_RW	4	43	400	0	300	300	310	46	0	1	1	blank2r.bmp	0	1	+	0	1	blank2r.bmp	492	1	VKKV	492	1	blank2r.bmp	572	2	eitel	866	1	!	-1	1	!	-1	0	0	0	0	0	0	0	0	0	0	0	0	0	0	0	0	0	0	0	0	0	0	0	0	0	0	0	0	0	0
070119	14:49:40	14:55:11	327514	5.0.10.0	5_exp_RW	999	Rpleas_acq	CS_B	BZZB	YDDY	JXXJ	VKKV	MQQM	GWWG	spielen	fair	schön	retten	ehrlich	treu	strafen	faul	schlecht	rächen	eitel	tot	1	acq_USunple_CSunple1_RW	acq4567_RW	4	44	400	1	300	300	381	46	0	1	1	blank2r.bmp	0	1	+	0	1	blank2r.bmp	492	1	JXXJ	492	1	blank2r.bmp	572	2	faul	866	1	!	1239	1	!	1279	0	0	0	0	0	0	0	0	0	0	0	0	0	0	0	0	0	0	0	0	0	0	0	0	0	0	0	0	0	0
070119	14:49:40	14:55:13	329767	5.0.10.0	5_exp_RW	999	Rpleas_acq	CS_B	BZZB	YDDY	JXXJ	VKKV	MQQM	GWWG	spielen	fair	schön	retten	ehrlich	treu	strafen	faul	schlecht	rächen	eitel	tot	1	acq_USunple_CSunple2_RW	acq4567_RW	4	45	400	1	300	300	459	50	0	0	1	blank2r.bmp	0	1	+	0	1	blank2r.bmp	492	1	VKKV	492	1	blank2r.bmp	572	2	eitel	866	1	!	1239	1	!	1359	0	0	0	0	0	0	0	0	0	0	0	0	0	0	0	0	0	0	0	0	0	0	0	0	0	0	0	0	0	0
070119	14:49:40	14:55:16	332019	5.0.10.0	5_exp_RW	999	Rpleas_acq	CS_B	BZZB	YDDY	JXXJ	VKKV	MQQM	GWWG	spielen	fair	schön	retten	ehrlich	treu	strafen	faul	schlecht	rächen	eitel	tot	1	acq_USunple_CSunple1_RW	acq4567_RW	4	46	400	1	300	300	454	46	0	1	1	blank2r.bmp	0	1	+	0	1	blank2r.bmp	492	1	JXXJ	492	1	blank2r.bmp	572	1	strafen	866	1	!	1239	1	!	1359	0	0	0	0	0	0	0	0	0	0	0	0	0	0	0	0	0	0	0	0	0	0	0	0	0	0	0	0	0	0
070119	14:49:40	14:55:18	334271	5.0.10.0	5_exp_RW	999	Rpleas_acq	CS_B	BZZB	YDDY	JXXJ	VKKV	MQQM	GWWG	spielen	fair	schön	retten	ehrlich	treu	strafen	faul	schlecht	rächen	eitel	tot	1	acq_USpleas_CSpleas2_RW	acq4567_RW	4	47	400	0	300	300	479	50	0	1	1	blank2r.bmp	0	1	+	0	1	blank2r.bmp	492	1	YDDY	492	1	blank2r.bmp	572	3	treu	866	1	!	1239	1	!	-1	0	0	0	0	0	0	0	0	0	0	0	0	0	0	0	0	0	0	0	0	0	0	0	0	0	0	0	0	0	0
070119	14:49:40	14:55:20	336457	5.0.10.0	5_exp_RW	999	Rpleas_acq	CS_B	BZZB	YDDY	JXXJ	VKKV	MQQM	GWWG	spielen	fair	schön	retten	ehrlich	treu	strafen	faul	schlecht	rächen	eitel	tot	1	acq_USpleas_CSpleas1_RW	acq4567_RW	4	48	400	1	300	300	381	50	0	1	1	blank2r.bmp	0	1	+	0	1	blank2r.bmp	492	1	BZZB	492	1	blank2r.bmp	572	2	fair	866	1	!	1239	1	!	1279	0	0	0	0	0	0	0	0	0	0	0	0	0	0	0	0	0	0	0	0	0	0	0	0	0	0	0	0	0	0
070119	14:49:40	14:55:22	338643	5.0.10.0	5_exp_RW	999	Rpleas_acq	CS_B	BZZB	YDDY	JXXJ	VKKV	MQQM	GWWG	spielen	fair	schön	retten	ehrlich	treu	strafen	faul	schlecht	rächen	eitel	tot	1	acq_USunple_CSunple2_RW	acq4567_RW	4	49	400	1	300	300	396	46	0	1	1	blank2r.bmp	0	1	+	0	1	blank2r.bmp	492	1	VKKV	492	1	blank2r.bmp	572	3	tot	866	1	!	1239	1	!	1292	0	0	0	0	0	0	0	0	0	0	0	0	0	0	0	0	0	0	0	0	0	0	0	0	0	0	0	0	0	0
070119	14:49:40	14:55:24	340909	5.0.10.0	5_exp_RW	999	Rpleas_acq	CS_B	BZZB	YDDY	JXXJ	VKKV	MQQM	GWWG	spielen	fair	schön	retten	ehrlich	treu	strafen	faul	schlecht	rächen	eitel	tot	1	acq_USpleas_CSpleas1_RW	acq4567_RW	4	50	400	1	300	300	465	50	0	1	1	blank2r.bmp	0	1	+	0	1	blank2r.bmp	492	1	BZZB	492	1	blank2r.bmp	572	3	schön	866	1	!	1239	1	!	1372	0	0	0	0	0	0	0	0	0	0	0	0	0	0	0	0	0	0	0	0	0	0	0	0	0	0	0	0	0	0
070119	14:49:40	14:55:27	343134	5.0.10.0	5_exp_RW	999	Rpleas_acq	CS_B	BZZB	YDDY	JXXJ	VKKV	MQQM	GWWG	spielen	fair	schön	retten	ehrlich	treu	strafen	faul	schlecht	rächen	eitel	tot	1	acq_USpleas_CSpleas1_RW	acq4567_RW	4	51	400	1	300	300	436	50	0	1	1	blank2r.bmp	0	1	+	0	1	blank2r.bmp	492	1	BZZB	492	1	blank2r.bmp	574	1	spielen	866	1	!	1239	1	!	1332	0	0	0	0	0	0	0	0	0	0	0	0	0	0	0	0	0	0	0	0	0	0	0	0	0	0	0	0	0	0
070119	14:49:40	14:55:29	345347	5.0.10.0	5_exp_RW	999	Rpleas_acq	CS_B	BZZB	YDDY	JXXJ	VKKV	MQQM	GWWG	spielen	fair	schön	retten	ehrlich	treu	strafen	faul	schlecht	rächen	eitel	tot	1	acq_USunple_CSunple2_RW	acq4567_RW	4	52	400	1	300	300	422	46	0	1	1	blank2r.bmp	0	1	+	0	1	blank2r.bmp	492	1	VKKV	492	1	blank2r.bmp	575	1	rächen	866	1	!	1239	1	!	1319	0	0	0	0	0	0	0	0	0	0	0	0	0	0	0	0	0	0	0	0	0	0	0	0	0	0	0	0	0	0
070119	14:49:40	14:55:31	347572	5.0.10.0	5_exp_RW	999	Rpleas_acq	CS_B	BZZB	YDDY	JXXJ	VKKV	MQQM	GWWG	spielen	fair	schön	retten	ehrlich	treu	strafen	faul	schlecht	rächen	eitel	tot	1	acq_USunple_CSunple2_RW	acq4567_RW	4	53	400	1	300	300	435	50	0	0	1	blank2r.bmp	0	1	+	0	1	blank2r.bmp	492	1	VKKV	492	1	blank2r.bmp	572	2	eitel	866	1	!	1239	1	!	1332	0	0	0	0	0	0	0	0	0	0	0	0	0	0	0	0	0	0	0	0	0	0	0	0	0	0	0	0	0	0
070119	14:49:40	14:55:33	349838	5.0.10.0	5_exp_RW	999	Rpleas_acq	CS_B	BZZB	YDDY	JXXJ	VKKV	MQQM	GWWG	spielen	fair	schön	retten	ehrlich	treu	strafen	faul	schlecht	rächen	eitel	tot	1	acq_USpleas_CSpleas2_RW	acq4567_RW	4	54	400	0	300	300	479	50	0	1	1	blank2r.bmp	0	1	+	0	1	blank2r.bmp	492	1	YDDY	492	1	blank2r.bmp	572	2	ehrlich	866	1	!	1239	1	!	-1	0	0	0	0	0	0	0	0	0	0	0	0	0	0	0	0	0	0	0	0	0	0	0	0	0	0	0	0	0	0
070119	14:49:40	14:55:36	352077	5.0.10.0	5_exp_RW	999	Rpleas_acq	CS_B	BZZB	YDDY	JXXJ	VKKV	MQQM	GWWG	spielen	fair	schön	retten	ehrlich	treu	strafen	faul	schlecht	rächen	eitel	tot	1	acq_USpleas_CSpleas1_RW	acq4567_RW	4	55	400	1	300	300	450	50	0	1	1	blank2r.bmp	0	1	+	0	1	blank2r.bmp	492	1	BZZB	492	1	blank2r.bmp	572	1	spielen	866	1	!	1239	1	!	1346	0	0	0	0	0	0	0	0	0	0	0	0	0	0	0	0	0	0	0	0	0	0	0	0	0	0	0	0	0	0
070119	14:49:40	14:55:38	354290	5.0.10.0	5_exp_RW	999	Rpleas_acq	CS_B	BZZB	YDDY	JXXJ	VKKV	MQQM	GWWG	spielen	fair	schön	retten	ehrlich	treu	strafen	faul	schlecht	rächen	eitel	tot	1	acq_USunple_CSunple1_RW	acq4567_RW	4	56	400	1	300	300	419	46	0	1	1	blank2r.bmp	0	1	+	0	1	blank2r.bmp	492	1	JXXJ	492	1	blank2r.bmp	572	3	schlecht	866	1	!	1239	1	!	1319	0	0	0	0	0	0	0	0	0	0	0	0	0	0	0	0	0	0	0	0	0	0	0	0	0	0	0	0	0	0
070119	14:49:40	14:55:40	356529	5.0.10.0	5_exp_RW	999	Rpleas_acq	CS_B	BZZB	YDDY	JXXJ	VKKV	MQQM	GWWG	spielen	fair	schön	retten	ehrlich	treu	strafen	faul	schlecht	rächen	eitel	tot	1	acq_USpleas_CSpleas2_RW	acq4567_RW	4	57	400	1	300	300	449	50	0	1	1	blank2r.bmp	0	1	+	0	1	blank2r.bmp	492	1	YDDY	492	1	blank2r.bmp	577	1	retten	866	1	!	1239	1	!	1346	0	0	0	0	0	0	0	0	0	0	0	0	0	0	0	0	0	0	0	0	0	0	0	0	0	0	0	0	0	0
070119	14:49:40	14:55:42	358728	5.0.10.0	5_exp_RW	999	Rpleas_acq	CS_B	BZZB	YDDY	JXXJ	VKKV	MQQM	GWWG	spielen	fair	schön	retten	ehrlich	treu	strafen	faul	schlecht	rächen	eitel	tot	1	acq_USunple_CSunple1_RW	acq4567_RW	4	58	400	1	300	300	402	46	0	1	1	blank2r.bmp	0	1	+	0	1	blank2r.bmp	492	1	JXXJ	492	1	blank2r.bmp	572	2	faul	866	1	!	1239	1	!	1306	0	0	0	0	0	0	0	0	0	0	0	0	0	0	0	0	0	0	0	0	0	0	0	0	0	0	0	0	0	0
070119	14:49:40	14:55:45	361007	5.0.10.0	5_exp_RW	999	Rpleas_acq	CS_B	BZZB	YDDY	JXXJ	VKKV	MQQM	GWWG	spielen	fair	schön	retten	ehrlich	treu	strafen	faul	schlecht	rächen	eitel	tot	1	acq_USpleas_CSpleas2_RW	acq4567_RW	4	59	400	0	300	300	503	50	0	1	1	blank2r.bmp	0	1	+	0	1	blank2r.bmp	492	1	YDDY	492	1	blank2r.bmp	572	1	retten	866	1	!	1239	1	!	-1	0	0	0	0	0	0	0	0	0	0	0	0	0	0	0	0	0	0	0	0	0	0	0	0	0	0	0	0	0	0
070119	14:49:40	14:55:47	363206	5.0.10.0	5_exp_RW	999	Rpleas_acq	CS_B	BZZB	YDDY	JXXJ	VKKV	MQQM	GWWG	spielen	fair	schön	retten	ehrlich	treu	strafen	faul	schlecht	rächen	eitel	tot	1	acq_USunple_CSunple1_RW	acq4567_RW	4	60	400	1	300	300	403	46	0	1	1	blank2r.bmp	0	1	+	0	1	blank2r.bmp	492	1	JXXJ	492	1	blank2r.bmp	573	2	faul	866	1	!	1239	1	!	1306	0	0	0	0	0	0	0	0	0	0	0	0	0	0	0	0	0	0	0	0	0	0	0	0	0	0	0	0	0	0
070119	14:49:40	14:55:49	365418	5.0.10.0	5_exp_RW	999	Rpleas_acq	CS_B	BZZB	YDDY	JXXJ	VKKV	MQQM	GWWG	spielen	fair	schön	retten	ehrlich	treu	strafen	faul	schlecht	rächen	eitel	tot	1	acq_USunple_CSunple2_RW	acq4567_RW	4	61	400	1	300	300	413	46	0	1	1	blank2r.bmp	0	1	+	0	1	blank2r.bmp	492	1	VKKV	492	1	blank2r.bmp	572	3	tot	866	1	!	1239	1	!	1319	0	0	0	0	0	0	0	0	0	0	0	0	0	0	0	0	0	0	0	0	0	0	0	0	0	0	0	0	0	0
070119	14:49:40	14:55:51	367631	5.0.10.0	5_exp_RW	999	Rpleas_acq	CS_B	BZZB	YDDY	JXXJ	VKKV	MQQM	GWWG	spielen	fair	schön	retten	ehrlich	treu	strafen	faul	schlecht	rächen	eitel	tot	1	acq_USpleas_CSpleas1_RW	acq4567_RW	4	62	400	1	300	300	417	50	0	1	1	blank2r.bmp	0	1	+	0	1	blank2r.bmp	493	1	BZZB	493	1	blank2r.bmp	572	3	schön	866	1	!	1239	1	!	1319	0	0	0	0	0	0	0	0	0	0	0	0	0	0	0	0	0	0	0	0	0	0	0	0	0	0	0	0	0	0
070119	14:49:40	14:55:53	369830	5.0.10.0	5_exp_RW	999	Rpleas_acq	CS_B	BZZB	YDDY	JXXJ	VKKV	MQQM	GWWG	spielen	fair	schön	retten	ehrlich	treu	strafen	faul	schlecht	rächen	eitel	tot	1	acq_USpleas_CSpleas1_RW	acq4567_RW	4	63	400	1	300	300	407	50	0	1	1	blank2r.bmp	0	1	+	0	1	blank2r.bmp	492	1	BZZB	492	1	blank2r.bmp	572	2	fair	866	1	!	1239	1	!	1306	0	0	0	0	0	0	0	0	0	0	0	0	0	0	0	0	0	0	0	0	0	0	0	0	0	0	0	0	0	0
070119	14:49:40	14:55:56	372082	5.0.10.0	5_exp_RW	999	Rpleas_acq	CS_B	BZZB	YDDY	JXXJ	VKKV	MQQM	GWWG	spielen	fair	schön	retten	ehrlich	treu	strafen	faul	schlecht	rächen	eitel	tot	1	acq_USpleas_CSpleas1_RW	acq4567_RW	4	64	400	0	300	300	478	50	0	1	1	blank2r.bmp	0	1	+	0	1	blank2r.bmp	492	1	BZZB	492	1	blank2r.bmp	572	1	spielen	866	1	!	1239	1	!	-1	0	0	0	0	0	0	0	0	0	0	0	0	0	0	0	0	0	0	0	0	0	0	0	0	0	0	0	0	0	0
070119	14:49:40	14:55:58	374295	5.0.10.0	5_exp_RW	999	Rpleas_acq	CS_B	BZZB	YDDY	JXXJ	VKKV	MQQM	GWWG	spielen	fair	schön	retten	ehrlich	treu	strafen	faul	schlecht	rächen	eitel	tot	1	acq_USpleas_CSpleas2_RW	acq4567_RW	4	65	400	1	300	300	402	50	0	1	1	blank2r.bmp	0	1	+	0	1	blank2r.bmp	492	1	YDDY	492	1	blank2r.bmp	572	2	ehrlich	866	1	!	1239	1	!	1306	0	0	0	0	0	0	0	0	0	0	0	0	0	0	0	0	0	0	0	0	0	0	0	0	0	0	0	0	0	0
070119	14:49:40	14:56:00	376547	5.0.10.0	5_exp_RW	999	Rpleas_acq	CS_B	BZZB	YDDY	JXXJ	VKKV	MQQM	GWWG	spielen	fair	schön	retten	ehrlich	treu	strafen	faul	schlecht	rächen	eitel	tot	1	acq_USunple_CSunple1_RW	acq4567_RW	4	66	400	1	300	300	456	50	0	0	1	blank2r.bmp	0	1	+	0	1	blank2r.bmp	492	1	JXXJ	492	1	blank2r.bmp	573	3	schlecht	866	1	!	1239	1	!	1359	0	0	0	0	0	0	0	0	0	0	0	0	0	0	0	0	0	0	0	0	0	0	0	0	0	0	0	0	0	0
070119	14:49:40	14:56:02	378733	5.0.10.0	5_exp_RW	999	Rpleas_acq	CS_B	BZZB	YDDY	JXXJ	VKKV	MQQM	GWWG	spielen	fair	schön	retten	ehrlich	treu	strafen	faul	schlecht	rächen	eitel	tot	1	acq_USunple_CSunple2_RW	acq4567_RW	4	67	400	1	300	300	386	46	0	1	1	blank2r.bmp	0	1	+	0	1	blank2r.bmp	492	1	VKKV	492	1	blank2r.bmp	572	1	rächen	866	1	!	1239	1	!	1292	0	0	0	0	0	0	0	0	0	0	0	0	0	0	0	0	0	0	0	0	0	0	0	0	0	0	0	0	0	0
070119	14:49:40	14:56:05	380932	5.0.10.0	5_exp_RW	999	Rpleas_acq	CS_B	BZZB	YDDY	JXXJ	VKKV	MQQM	GWWG	spielen	fair	schön	retten	ehrlich	treu	strafen	faul	schlecht	rächen	eitel	tot	1	acq_USpleas_CSpleas1_RW	acq4567_RW	4	68	400	1	300	300	407	50	0	1	1	blank2r.bmp	0	1	+	0	1	blank2r.bmp	492	1	BZZB	492	1	blank2r.bmp	572	3	schön	866	1	!	1239	1	!	1306	0	0	0	0	0	0	0	0	0	0	0	0	0	0	0	0	0	0	0	0	0	0	0	0	0	0	0	0	0	0
070119	14:49:40	14:56:07	383158	5.0.10.0	5_exp_RW	999	Rpleas_acq	CS_B	BZZB	YDDY	JXXJ	VKKV	MQQM	GWWG	spielen	fair	schön	retten	ehrlich	treu	strafen	faul	schlecht	rächen	eitel	tot	1	acq_USunple_CSunple2_RW	acq4567_RW	4	69	400	1	300	300	438	46	0	1	1	blank2r.bmp	0	1	+	0	1	blank2r.bmp	492	1	VKKV	492	1	blank2r.bmp	572	1	rächen	866	1	!	1239	1	!	1332	0	0	0	0	0	0	0	0	0	0	0	0	0	0	0	0	0	0	0	0	0	0	0	0	0	0	0	0	0	0
070119	14:49:40	14:56:09	385397	5.0.10.0	5_exp_RW	999	Rpleas_acq	CS_B	BZZB	YDDY	JXXJ	VKKV	MQQM	GWWG	spielen	fair	schön	retten	ehrlich	treu	strafen	faul	schlecht	rächen	eitel	tot	1	acq_USpleas_CSpleas2_RW	acq4567_RW	4	70	400	1	300	300	447	50	0	1	1	blank2r.bmp	0	1	+	0	1	blank2r.bmp	492	1	YDDY	492	1	blank2r.bmp	572	3	treu	866	1	!	1239	1	!	1346	0	0	0	0	0	0	0	0	0	0	0	0	0	0	0	0	0	0	0	0	0	0	0	0	0	0	0	0	0	0
070119	14:49:40	14:56:11	387596	5.0.10.0	5_exp_RW	999	Rpleas_acq	CS_B	BZZB	YDDY	JXXJ	VKKV	MQQM	GWWG	spielen	fair	schön	retten	ehrlich	treu	strafen	faul	schlecht	rächen	eitel	tot	1	acq_USunple_CSunple1_RW	acq4567_RW	4	71	400	1	300	300	402	46	0	1	1	blank2r.bmp	0	1	+	0	1	blank2r.bmp	492	1	JXXJ	492	1	blank2r.bmp	572	1	strafen	866	1	!	1239	1	!	1306	0	0	0	0	0	0	0	0	0	0	0	0	0	0	0	0	0	0	0	0	0	0	0	0	0	0	0	0	0	0
070119	14:49:40	14:56:13	389848	5.0.10.0	5_exp_RW	999	Rpleas_acq	CS_B	BZZB	YDDY	JXXJ	VKKV	MQQM	GWWG	spielen	fair	schön	retten	ehrlich	treu	strafen	faul	schlecht	rächen	eitel	tot	1	acq_USpleas_CSpleas1_RW	acq4567_RW	4	72	400	1	300	300	456	50	0	1	1	blank2r.bmp	0	1	+	0	1	blank2r.bmp	492	1	BZZB	492	1	blank2r.bmp	572	2	fair	866	1	!	1239	1	!	1359	0	0	0	0	0	0	0	0	0	0	0	0	0	0	0	0	0	0	0	0	0	0	0	0	0	0	0	0	0	0
070119	14:49:40	14:56:16	392100	5.0.10.0	5_exp_RW	999	Rpleas_acq	CS_B	BZZB	YDDY	JXXJ	VKKV	MQQM	GWWG	spielen	fair	schön	retten	ehrlich	treu	strafen	faul	schlecht	rächen	eitel	tot	1	acq_USpleas_CSpleas2_RW	acq4567_RW	4	73	400	1	300	300	460	50	0	1	1	blank2r.bmp	0	1	+	0	1	blank2r.bmp	493	1	YDDY	493	1	blank2r.bmp	572	3	treu	866	1	!	1239	1	!	1359	0	0	0	0	0	0	0	0	0	0	0	0	0	0	0	0	0	0	0	0	0	0	0	0	0	0	0	0	0	0
070119	14:49:40	14:56:18	394260	5.0.10.0	5_exp_RW	999	Rpleas_acq	CS_B	BZZB	YDDY	JXXJ	VKKV	MQQM	GWWG	spielen	fair	schön	retten	ehrlich	treu	strafen	faul	schlecht	rächen	eitel	tot	1	acq_USunple_CSunple2_RW	acq4567_RW	4	74	400	1	300	300	364	46	0	1	1	blank2r.bmp	0	1	+	0	1	blank2r.bmp	492	1	VKKV	492	1	blank2r.bmp	572	3	tot	866	1	!	1239	1	!	1266	0	0	0	0	0	0	0	0	0	0	0	0	0	0	0	0	0	0	0	0	0	0	0	0	0	0	0	0	0	0
070119	14:49:40	14:56:20	396539	5.0.10.0	5_exp_RW	999	Rpleas_acq	CS_B	BZZB	YDDY	JXXJ	VKKV	MQQM	GWWG	spielen	fair	schön	retten	ehrlich	treu	strafen	faul	schlecht	rächen	eitel	tot	1	acq_USpleas_CSpleas2_RW	acq4567_RW	4	75	400	0	300	300	500	46	0	0	1	blank2r.bmp	0	1	+	0	1	blank2r.bmp	492	1	YDDY	492	1	blank2r.bmp	572	1	retten	866	1	!	1239	1	!	-1	0	0	0	0	0	0	0	0	0	0	0	0	0	0	0	0	0	0	0	0	0	0	0	0	0	0	0	0	0	0
070119	14:49:40	14:56:22	398791	5.0.10.0	5_exp_RW	999	Rpleas_acq	CS_B	BZZB	YDDY	JXXJ	VKKV	MQQM	GWWG	spielen	fair	schön	retten	ehrlich	treu	strafen	faul	schlecht	rächen	eitel	tot	1	acq_USunple_CSunple1_RW	acq4567_RW	4	76	400	1	300	300	459	46	0	1	1	blank2r.bmp	0	1	+	0	1	blank2r.bmp	492	1	JXXJ	492	1	blank2r.bmp	573	2	faul	866	1	!	1239	1	!	1359	0	0	0	0	0	0	0	0	0	0	0	0	0	0	0	0	0	0	0	0	0	0	0	0	0	0	0	0	0	0
070119	14:49:40	14:56:25	401017	5.0.10.0	5_exp_RW	999	Rpleas_acq	CS_B	BZZB	YDDY	JXXJ	VKKV	MQQM	GWWG	spielen	fair	schön	retten	ehrlich	treu	strafen	faul	schlecht	rächen	eitel	tot	1	acq_USunple_CSunple1_RW	acq4567_RW	4	77	400	1	300	300	436	46	0	1	1	blank2r.bmp	0	1	+	0	1	blank2r.bmp	492	1	JXXJ	492	1	blank2r.bmp	572	3	schlecht	866	1	!	1239	1	!	1332	0	0	0	0	0	0	0	0	0	0	0	0	0	0	0	0	0	0	0	0	0	0	0	0	0	0	0	0	0	0
070119	14:49:40	14:56:27	403229	5.0.10.0	5_exp_RW	999	Rpleas_acq	CS_B	BZZB	YDDY	JXXJ	VKKV	MQQM	GWWG	spielen	fair	schön	retten	ehrlich	treu	strafen	faul	schlecht	rächen	eitel	tot	1	acq_USpleas_CSpleas2_RW	acq4567_RW	4	78	400	1	300	300	417	46	0	0	1	blank2r.bmp	0	1	+	0	1	blank2r.bmp	492	1	YDDY	492	1	blank2r.bmp	572	2	ehrlich	866	1	!	1239	1	!	1319	0	0	0	0	0	0	0	0	0	0	0	0	0	0	0	0	0	0	0	0	0	0	0	0	0	0	0	0	0	0
070119	14:49:40	14:56:29	405428	5.0.10.0	5_exp_RW	999	Rpleas_acq	CS_B	BZZB	YDDY	JXXJ	VKKV	MQQM	GWWG	spielen	fair	schön	retten	ehrlich	treu	strafen	faul	schlecht	rächen	eitel	tot	1	acq_USunple_CSunple1_RW	acq4567_RW	4	79	400	1	300	300	401	46	0	1	1	blank2r.bmp	0	1	+	0	1	blank2r.bmp	492	1	JXXJ	492	1	blank2r.bmp	572	1	strafen	866	1	!	1239	1	!	1306	0	0	0	0	0	0	0	0	0	0	0	0	0	0	0	0	0	0	0	0	0	0	0	0	0	0	0	0	0	0
070119	14:49:40	14:56:31	407694	5.0.10.0	5_exp_RW	999	Rpleas_acq	CS_B	BZZB	YDDY	JXXJ	VKKV	MQQM	GWWG	spielen	fair	schön	retten	ehrlich	treu	strafen	faul	schlecht	rächen	eitel	tot	1	acq_USunple_CSunple2_RW	acq4567_RW	4	80	400	0	300	300	501	50	0	0	1	blank2r.bmp	0	1	+	0	1	blank2r.bmp	492	1	VKKV	492	1	blank2r.bmp	572	2	eitel	866	1	!	1239	1	!	-1	0	0	0	0	0	0	0	0	0	0	0	0	0	0	0	0	0	0	0	0	0	0	0	0	0	0	0	0	0	0
070119	14:49:40	14:56:41	417090	5.0.10.0	5_exp_RW	999	Rpleas_acq	CS_B	BZZB	YDDY	JXXJ	VKKV	MQQM	GWWG	spielen	fair	schön	retten	ehrlich	treu	strafen	faul	schlecht	rächen	eitel	tot	1	acq_USpleas_CSpleas1_RW	acq4567_RW	5	1	400	0	300	300	493	50	0	1	1	blank2r.bmp	0	1	+	0	1	blank2r.bmp	492	1	BZZB	492	1	blank2r.bmp	573	1	spielen	866	1	!	1239	1	!	-1	0	0	0	0	0	0	0	0	0	0	0	0	0	0	0	0	0	0	0	0	0	0	0	0	0	0	0	0	0	0
070119	14:49:40	14:56:43	419302	5.0.10.0	5_exp_RW	999	Rpleas_acq	CS_B	BZZB	YDDY	JXXJ	VKKV	MQQM	GWWG	spielen	fair	schön	retten	ehrlich	treu	strafen	faul	schlecht	rächen	eitel	tot	1	acq_USunple_CSunple2_RW	acq4567_RW	5	2	400	1	300	300	411	46	0	1	1	blank2r.bmp	0	1	+	0	1	blank2r.bmp	492	1	VKKV	492	1	blank2r.bmp	572	2	eitel	866	1	!	1239	1	!	1306	0	0	0	0	0	0	0	0	0	0	0	0	0	0	0	0	0	0	0	0	0	0	0	0	0	0	0	0	0	0
070119	14:49:40	14:56:45	421555	5.0.10.0	5_exp_RW	999	Rpleas_acq	CS_B	BZZB	YDDY	JXXJ	VKKV	MQQM	GWWG	spielen	fair	schön	retten	ehrlich	treu	strafen	faul	schlecht	rächen	eitel	tot	1	acq_USunple_CSunple1_RW	acq4567_RW	5	3	400	1	300	300	452	46	0	1	1	blank2r.bmp	0	1	+	0	1	blank2r.bmp	492	1	JXXJ	492	1	blank2r.bmp	572	2	faul	866	1	!	1239	1	!	1359	0	0	0	0	0	0	0	0	0	0	0	0	0	0	0	0	0	0	0	0	0	0	0	0	0	0	0	0	0	0
070119	14:49:40	14:56:47	423701	5.0.10.0	5_exp_RW	999	Rpleas_acq	CS_B	BZZB	YDDY	JXXJ	VKKV	MQQM	GWWG	spielen	fair	schön	retten	ehrlich	treu	strafen	faul	schlecht	rächen	eitel	tot	1	acq_USpleas_CSpleas2_RW	acq4567_RW	5	4	400	1	300	300	346	46	0	0	1	blank2r.bmp	0	1	+	0	1	blank2r.bmp	492	1	YDDY	492	1	blank2r.bmp	573	2	ehrlich	866	1	!	1239	1	!	1252	0	0	0	0	0	0	0	0	0	0	0	0	0	0	0	0	0	0	0	0	0	0	0	0	0	0	0	0	0	0
070119	14:49:40	14:56:49	425886	5.0.10.0	5_exp_RW	999	Rpleas_acq	CS_B	BZZB	YDDY	JXXJ	VKKV	MQQM	GWWG	spielen	fair	schön	retten	ehrlich	treu	strafen	faul	schlecht	rächen	eitel	tot	1	acq_USunple_CSunple2_RW	acq4567_RW	5	5	400	1	300	300	392	46	0	1	1	blank2r.bmp	0	1	+	0	1	blank2r.bmp	492	1	VKKV	492	1	blank2r.bmp	572	3	tot	866	1	!	1239	1	!	1292	0	0	0	0	0	0	0	0	0	0	0	0	0	0	0	0	0	0	0	0	0	0	0	0	0	0	0	0	0	0
070119	14:49:40	14:56:52	428112	5.0.10.0	5_exp_RW	999	Rpleas_acq	CS_B	BZZB	YDDY	JXXJ	VKKV	MQQM	GWWG	spielen	fair	schön	retten	ehrlich	treu	strafen	faul	schlecht	rächen	eitel	tot	1	acq_USunple_CSunple1_RW	acq4567_RW	5	6	400	1	300	300	430	46	0	1	1	blank2r.bmp	0	1	+	0	1	blank2r.bmp	492	1	JXXJ	492	1	blank2r.bmp	573	3	schlecht	866	1	!	1239	1	!	1332	0	0	0	0	0	0	0	0	0	0	0	0	0	0	0	0	0	0	0	0	0	0	0	0	0	0	0	0	0	0
070119	14:49:40	14:56:54	430298	5.0.10.0	5_exp_RW	999	Rpleas_acq	CS_B	BZZB	YDDY	JXXJ	VKKV	MQQM	GWWG	spielen	fair	schön	retten	ehrlich	treu	strafen	faul	schlecht	rächen	eitel	tot	1	acq_USunple_CSunple1_RW	acq4567_RW	5	7	400	1	300	300	392	46	0	1	1	blank2r.bmp	0	1	+	0	1	blank2r.bmp	492	1	JXXJ	492	1	blank2r.bmp	572	1	strafen	866	1	!	1239	1	!	1292	0	0	0	0	0	0	0	0	0	0	0	0	0	0	0	0	0	0	0	0	0	0	0	0	0	0	0	0	0	0
070119	14:49:40	14:56:56	432470	5.0.10.0	5_exp_RW	999	Rpleas_acq	CS_B	BZZB	YDDY	JXXJ	VKKV	MQQM	GWWG	spielen	fair	schön	retten	ehrlich	treu	strafen	faul	schlecht	rächen	eitel	tot	1	acq_USunple_CSunple2_RW	acq4567_RW	5	8	400	1	300	300	376	46	0	1	1	blank2r.bmp	0	1	+	0	1	blank2r.bmp	492	1	VKKV	492	1	blank2r.bmp	572	1	rächen	866	1	!	1239	1	!	1279	0	0	0	0	0	0	0	0	0	0	0	0	0	0	0	0	0	0	0	0	0	0	0	0	0	0	0	0	0	0
070119	14:49:40	14:56:58	434723	5.0.10.0	5_exp_RW	999	Rpleas_acq	CS_B	BZZB	YDDY	JXXJ	VKKV	MQQM	GWWG	spielen	fair	schön	retten	ehrlich	treu	strafen	faul	schlecht	rächen	eitel	tot	1	acq_USpleas_CSpleas2_RW	acq4567_RW	5	9	400	1	300	300	465	50	0	1	1	blank2r.bmp	0	1	+	0	1	blank2r.bmp	492	1	YDDY	492	1	blank2r.bmp	572	1	retten	866	1	!	1239	1	!	1359	0	0	0	0	0	0	0	0	0	0	0	0	0	0	0	0	0	0	0	0	0	0	0	0	0	0	0	0	0	0
070119	14:49:40	14:57:01	436962	5.0.10.0	5_exp_RW	999	Rpleas_acq	CS_B	BZZB	YDDY	JXXJ	VKKV	MQQM	GWWG	spielen	fair	schön	retten	ehrlich	treu	strafen	faul	schlecht	rächen	eitel	tot	1	acq_USpleas_CSpleas1_RW	acq4567_RW	5	10	400	1	300	300	448	50	0	1	1	blank2r.bmp	0	1	+	0	1	blank2r.bmp	492	1	BZZB	492	1	blank2r.bmp	572	3	schön	866	1	!	1239	1	!	1346	0	0	0	0	0	0	0	0	0	0	0	0	0	0	0	0	0	0	0	0	0	0	0	0	0	0	0	0	0	0
070119	14:49:40	14:57:03	439121	5.0.10.0	5_exp_RW	999	Rpleas_acq	CS_B	BZZB	YDDY	JXXJ	VKKV	MQQM	GWWG	spielen	fair	schön	retten	ehrlich	treu	strafen	faul	schlecht	rächen	eitel	tot	1	acq_USunple_CSunple1_RW	acq4567_RW	5	11	400	1	300	300	365	46	0	1	1	blank2r.bmp	0	1	+	0	1	blank2r.bmp	492	1	JXXJ	492	1	blank2r.bmp	572	2	faul	866	1	!	1239	1	!	1266	0	0	0	0	0	0	0	0	0	0	0	0	0	0	0	0	0	0	0	0	0	0	0	0	0	0	0	0	0	0
070119	14:49:40	14:57:05	441373	5.0.10.0	5_exp_RW	999	Rpleas_acq	CS_B	BZZB	YDDY	JXXJ	VKKV	MQQM	GWWG	spielen	fair	schön	retten	ehrlich	treu	strafen	faul	schlecht	rächen	eitel	tot	1	acq_USunple_CSunple1_RW	acq4567_RW	5	12	400	1	300	300	452	46	0	1	1	blank2r.bmp	0	1	+	0	1	blank2r.bmp	492	1	JXXJ	492	1	blank2r.bmp	572	3	schlecht	866	1	!	1239	1	!	1359	0	0	0	0	0	0	0	0	0	0	0	0	0	0	0	0	0	0	0	0	0	0	0	0	0	0	0	0	0	0
070119	14:49:40	14:57:07	443639	5.0.10.0	5_exp_RW	999	Rpleas_acq	CS_B	BZZB	YDDY	JXXJ	VKKV	MQQM	GWWG	spielen	fair	schön	retten	ehrlich	treu	strafen	faul	schlecht	rächen	eitel	tot	1	acq_USpleas_CSpleas1_RW	acq4567_RW	5	13	400	0	300	300	489	50	0	1	1	blank2r.bmp	0	1	+	0	1	blank2r.bmp	492	1	BZZB	492	1	blank2r.bmp	574	2	fair	866	1	!	1239	1	!	-1	0	0	0	0	0	0	0	0	0	0	0	0	0	0	0	0	0	0	0	0	0	0	0	0	0	0	0	0	0	0
070119	14:49:40	14:57:09	445891	5.0.10.0	5_exp_RW	999	Rpleas_acq	CS_B	BZZB	YDDY	JXXJ	VKKV	MQQM	GWWG	spielen	fair	schön	retten	ehrlich	treu	strafen	faul	schlecht	rächen	eitel	tot	1	acq_USpleas_CSpleas2_RW	acq4567_RW	5	14	400	0	300	300	479	50	0	1	1	blank2r.bmp	0	1	+	0	1	blank2r.bmp	492	1	YDDY	492	1	blank2r.bmp	572	3	treu	866	1	!	1239	1	!	-1	0	0	0	0	0	0	0	0	0	0	0	0	0	0	0	0	0	0	0	0	0	0	0	0	0	0	0	0	0	0
070119	14:49:40	14:57:12	448130	5.0.10.0	5_exp_RW	999	Rpleas_acq	CS_B	BZZB	YDDY	JXXJ	VKKV	MQQM	GWWG	spielen	fair	schön	retten	ehrlich	treu	strafen	faul	schlecht	rächen	eitel	tot	1	acq_USpleas_CSpleas1_RW	acq4567_RW	5	15	400	1	300	300	436	50	0	1	1	blank2r.bmp	0	1	+	0	1	blank2r.bmp	492	1	BZZB	492	1	blank2r.bmp	572	3	schön	866	1	!	1239	1	!	1332	0	0	0	0	0	0	0	0	0	0	0	0	0	0	0	0	0	0	0	0	0	0	0	0	0	0	0	0	0	0
070119	14:49:40	14:57:14	450316	5.0.10.0	5_exp_RW	999	Rpleas_acq	CS_B	BZZB	YDDY	JXXJ	VKKV	MQQM	GWWG	spielen	fair	schön	retten	ehrlich	treu	strafen	faul	schlecht	rächen	eitel	tot	1	acq_USpleas_CSpleas2_RW	acq4567_RW	5	16	400	1	300	300	387	50	0	1	1	blank2r.bmp	0	1	+	0	1	blank2r.bmp	493	1	YDDY	493	1	blank2r.bmp	572	3	treu	866	1	!	1239	1	!	1292	0	0	0	0	0	0	0	0	0	0	0	0	0	0	0	0	0	0	0	0	0	0	0	0	0	0	0	0	0	0
070119	14:49:40	14:57:16	452568	5.0.10.0	5_exp_RW	999	Rpleas_acq	CS_B	BZZB	YDDY	JXXJ	VKKV	MQQM	GWWG	spielen	fair	schön	retten	ehrlich	treu	strafen	faul	schlecht	rächen	eitel	tot	1	acq_USpleas_CSpleas1_RW	acq4567_RW	5	17	400	1	300	300	457	50	0	1	1	blank2r.bmp	0	1	+	0	1	blank2r.bmp	492	1	BZZB	492	1	blank2r.bmp	572	2	fair	866	1	!	1239	1	!	1359	0	0	0	0	0	0	0	0	0	0	0	0	0	0	0	0	0	0	0	0	0	0	0	0	0	0	0	0	0	0
070119	14:49:40	14:57:18	454767	5.0.10.0	5_exp_RW	999	Rpleas_acq	CS_B	BZZB	YDDY	JXXJ	VKKV	MQQM	GWWG	spielen	fair	schön	retten	ehrlich	treu	strafen	faul	schlecht	rächen	eitel	tot	1	acq_USunple_CSunple2_RW	acq4567_RW	5	18	400	1	300	300	398	46	0	1	1	blank2r.bmp	0	1	+	0	1	blank2r.bmp	493	1	VKKV	493	1	blank2r.bmp	572	3	tot	866	1	!	1239	1	!	1306	0	0	0	0	0	0	0	0	0	0	0	0	0	0	0	0	0	0	0	0	0	0	0	0	0	0	0	0	0	0
070119	14:49:40	14:57:21	456940	5.0.10.0	5_exp_RW	999	Rpleas_acq	CS_B	BZZB	YDDY	JXXJ	VKKV	MQQM	GWWG	spielen	fair	schön	retten	ehrlich	treu	strafen	faul	schlecht	rächen	eitel	tot	1	acq_USpleas_CSpleas2_RW	acq4567_RW	5	19	400	1	300	300	379	50	0	1	1	blank2r.bmp	0	1	+	0	1	blank2r.bmp	492	1	YDDY	492	1	blank2r.bmp	572	1	retten	866	1	!	1239	1	!	1279	0	0	0	0	0	0	0	0	0	0	0	0	0	0	0	0	0	0	0	0	0	0	0	0	0	0	0	0	0	0
070119	14:49:40	14:57:23	459166	5.0.10.0	5_exp_RW	999	Rpleas_acq	CS_B	BZZB	YDDY	JXXJ	VKKV	MQQM	GWWG	spielen	fair	schön	retten	ehrlich	treu	strafen	faul	schlecht	rächen	eitel	tot	1	acq_USunple_CSunple2_RW	acq4567_RW	5	20	400	1	300	300	425	46	0	1	1	blank2r.bmp	0	1	+	0	1	blank2r.bmp	492	1	VKKV	492	1	blank2r.bmp	572	1	rächen	866	1	!	1239	1	!	1332	0	0	0	0	0	0	0	0	0	0	0	0	0	0	0	0	0	0	0	0	0	0	0	0	0	0	0	0	0	0
070119	14:49:40	14:57:25	461405	5.0.10.0	5_exp_RW	999	Rpleas_acq	CS_B	BZZB	YDDY	JXXJ	VKKV	MQQM	GWWG	spielen	fair	schön	retten	ehrlich	treu	strafen	faul	schlecht	rächen	eitel	tot	1	acq_USpleas_CSpleas2_RW	acq4567_RW	5	21	400	1	300	300	448	50	0	1	1	blank2r.bmp	0	1	+	0	1	blank2r.bmp	492	1	YDDY	492	1	blank2r.bmp	572	2	ehrlich	866	1	!	1239	1	!	1346	0	0	0	0	0	0	0	0	0	0	0	0	0	0	0	0	0	0	0	0	0	0	0	0	0	0	0	0	0	0
070119	14:49:40	14:57:27	463630	5.0.10.0	5_exp_RW	999	Rpleas_acq	CS_B	BZZB	YDDY	JXXJ	VKKV	MQQM	GWWG	spielen	fair	schön	retten	ehrlich	treu	strafen	faul	schlecht	rächen	eitel	tot	1	acq_USpleas_CSpleas1_RW	acq4567_RW	5	22	400	1	300	300	427	50	0	1	1	blank2r.bmp	0	1	+	0	1	blank2r.bmp	492	1	BZZB	492	1	blank2r.bmp	572	1	spielen	866	1	!	1239	1	!	1332	0	0	0	0	0	0	0	0	0	0	0	0	0	0	0	0	0	0	0	0	0	0	0	0	0	0	0	0	0	0
070119	14:49:40	14:57:29	465883	5.0.10.0	5_exp_RW	999	Rpleas_acq	CS_B	BZZB	YDDY	JXXJ	VKKV	MQQM	GWWG	spielen	fair	schön	retten	ehrlich	treu	strafen	faul	schlecht	rächen	eitel	tot	1	acq_USpleas_CSpleas2_RW	acq4567_RW	5	23	400	1	300	300	454	50	0	1	1	blank2r.bmp	0	1	+	0	1	blank2r.bmp	492	1	YDDY	492	1	blank2r.bmp	572	3	treu	866	1	!	1239	1	!	1359	0	0	0	0	0	0	0	0	0	0	0	0	0	0	0	0	0	0	0	0	0	0	0	0	0	0	0	0	0	0
070119	14:49:40	14:57:32	468069	5.0.10.0	5_exp_RW	999	Rpleas_acq	CS_B	BZZB	YDDY	JXXJ	VKKV	MQQM	GWWG	spielen	fair	schön	retten	ehrlich	treu	strafen	faul	schlecht	rächen	eitel	tot	1	acq_USpleas_CSpleas1_RW	acq4567_RW	5	24	400	1	300	300	391	50	0	1	1	blank2r.bmp	0	1	+	0	1	blank2r.bmp	492	1	BZZB	492	1	blank2r.bmp	572	2	fair	866	1	!	1239	1	!	1292	0	0	0	0	0	0	0	0	0	0	0	0	0	0	0	0	0	0	0	0	0	0	0	0	0	0	0	0	0	0
070119	14:49:40	14:57:34	470294	5.0.10.0	5_exp_RW	999	Rpleas_acq	CS_B	BZZB	YDDY	JXXJ	VKKV	MQQM	GWWG	spielen	fair	schön	retten	ehrlich	treu	strafen	faul	schlecht	rächen	eitel	tot	1	acq_USpleas_CSpleas1_RW	acq4567_RW	5	25	400	1	300	300	434	50	0	1	1	blank2r.bmp	0	1	+	0	1	blank2r.bmp	492	1	BZZB	492	1	blank2r.bmp	573	3	schön	866	1	!	1239	1	!	1332	0	0	0	0	0	0	0	0	0	0	0	0	0	0	0	0	0	0	0	0	0	0	0	0	0	0	0	0	0	0
070119	14:49:40	14:57:36	472587	5.0.10.0	5_exp_RW	999	Rpleas_acq	CS_B	BZZB	YDDY	JXXJ	VKKV	MQQM	GWWG	spielen	fair	schön	retten	ehrlich	treu	strafen	faul	schlecht	rächen	eitel	tot	1	acq_USunple_CSunple2_RW	acq4567_RW	5	26	400	0	300	300	520	50	0	0	1	blank2r.bmp	0	1	+	0	1	blank2r.bmp	492	1	VKKV	492	1	blank2r.bmp	572	2	eitel	866	1	!	1239	1	!	-1	0	0	0	0	0	0	0	0	0	0	0	0	0	0	0	0	0	0	0	0	0	0	0	0	0	0	0	0	0	0
070119	14:49:40	14:57:38	474852	5.0.10.0	5_exp_RW	999	Rpleas_acq	CS_B	BZZB	YDDY	JXXJ	VKKV	MQQM	GWWG	spielen	fair	schön	retten	ehrlich	treu	strafen	faul	schlecht	rächen	eitel	tot	1	acq_USpleas_CSpleas2_RW	acq4567_RW	5	27	400	0	300	300	483	50	0	1	1	blank2r.bmp	0	1	+	0	1	blank2r.bmp	492	1	YDDY	492	1	blank2r.bmp	572	1	retten	866	1	!	1239	1	!	-1	0	0	0	0	0	0	0	0	0	0	0	0	0	0	0	0	0	0	0	0	0	0	0	0	0	0	0	0	0	0
070119	14:49:40	14:57:41	477078	5.0.10.0	5_exp_RW	999	Rpleas_acq	CS_B	BZZB	YDDY	JXXJ	VKKV	MQQM	GWWG	spielen	fair	schön	retten	ehrlich	treu	strafen	faul	schlecht	rächen	eitel	tot	1	acq_USpleas_CSpleas2_RW	acq4567_RW	5	28	400	1	300	300	412	50	0	1	1	blank2r.bmp	0	1	+	0	1	blank2r.bmp	492	1	YDDY	492	1	blank2r.bmp	572	2	ehrlich	866	1	!	1239	1	!	1319	0	0	0	0	0	0	0	0	0	0	0	0	0	0	0	0	0	0	0	0	0	0	0	0	0	0	0	0	0	0
070119	14:49:40	14:57:43	479250	5.0.10.0	5_exp_RW	999	Rpleas_acq	CS_B	BZZB	YDDY	JXXJ	VKKV	MQQM	GWWG	spielen	fair	schön	retten	ehrlich	treu	strafen	faul	schlecht	rächen	eitel	tot	1	acq_USunple_CSunple1_RW	acq4567_RW	5	29	400	1	300	300	372	46	0	1	1	blank2r.bmp	0	1	+	0	1	blank2r.bmp	492	1	JXXJ	492	1	blank2r.bmp	572	1	strafen	866	1	!	1239	1	!	1279	0	0	0	0	0	0	0	0	0	0	0	0	0	0	0	0	0	0	0	0	0	0	0	0	0	0	0	0	0	0
070119	14:49:40	14:57:45	481476	5.0.10.0	5_exp_RW	999	Rpleas_acq	CS_B	BZZB	YDDY	JXXJ	VKKV	MQQM	GWWG	spielen	fair	schön	retten	ehrlich	treu	strafen	faul	schlecht	rächen	eitel	tot	1	acq_USpleas_CSpleas1_RW	acq4567_RW	5	30	400	1	300	300	428	50	0	1	1	blank2r.bmp	0	1	+	0	1	blank2r.bmp	492	1	BZZB	492	1	blank2r.bmp	572	1	spielen	866	1	!	1239	1	!	1332	0	0	0	0	0	0	0	0	0	0	0	0	0	0	0	0	0	0	0	0	0	0	0	0	0	0	0	0	0	0
070119	14:49:40	14:57:47	483662	5.0.10.0	5_exp_RW	999	Rpleas_acq	CS_B	BZZB	YDDY	JXXJ	VKKV	MQQM	GWWG	spielen	fair	schön	retten	ehrlich	treu	strafen	faul	schlecht	rächen	eitel	tot	1	acq_USunple_CSunple1_RW	acq4567_RW	5	31	400	1	300	300	385	46	0	1	1	blank2r.bmp	0	1	+	0	1	blank2r.bmp	492	1	JXXJ	492	1	blank2r.bmp	572	1	strafen	866	1	!	1239	1	!	1292	0	0	0	0	0	0	0	0	0	0	0	0	0	0	0	0	0	0	0	0	0	0	0	0	0	0	0	0	0	0
070119	14:49:40	14:57:49	485914	5.0.10.0	5_exp_RW	999	Rpleas_acq	CS_B	BZZB	YDDY	JXXJ	VKKV	MQQM	GWWG	spielen	fair	schön	retten	ehrlich	treu	strafen	faul	schlecht	rächen	eitel	tot	1	acq_USpleas_CSpleas1_RW	acq4567_RW	5	32	400	1	300	300	457	50	0	1	1	blank2r.bmp	0	1	+	0	1	blank2r.bmp	492	1	BZZB	492	1	blank2r.bmp	572	1	spielen	866	1	!	1239	1	!	1359	0	0	0	0	0	0	0	0	0	0	0	0	0	0	0	0	0	0	0	0	0	0	0	0	0	0	0	0	0	0
070119	14:49:40	14:57:52	488073	5.0.10.0	5_exp_RW	999	Rpleas_acq	CS_B	BZZB	YDDY	JXXJ	VKKV	MQQM	GWWG	spielen	fair	schön	retten	ehrlich	treu	strafen	faul	schlecht	rächen	eitel	tot	1	acq_USunple_CSunple2_RW	acq4567_RW	5	33	400	1	300	300	359	46	0	1	1	blank2r.bmp	0	1	+	0	1	blank2r.bmp	492	1	VKKV	492	1	blank2r.bmp	572	3	tot	867	1	!	1239	1	!	1266	0	0	0	0	0	0	0	0	0	0	0	0	0	0	0	0	0	0	0	0	0	0	0	0	0	0	0	0	0	0
070119	14:49:40	14:57:54	490286	5.0.10.0	5_exp_RW	999	Rpleas_acq	CS_B	BZZB	YDDY	JXXJ	VKKV	MQQM	GWWG	spielen	fair	schön	retten	ehrlich	treu	strafen	faul	schlecht	rächen	eitel	tot	1	acq_USunple_CSunple2_RW	acq4567_RW	5	34	400	1	300	300	421	46	0	1	1	blank2r.bmp	0	1	+	0	1	blank2r.bmp	492	1	VKKV	492	1	blank2r.bmp	572	2	eitel	866	1	!	1239	1	!	1319	0	0	0	0	0	0	0	0	0	0	0	0	0	0	0	0	0	0	0	0	0	0	0	0	0	0	0	0	0	0
070119	14:49:40	14:57:56	492458	5.0.10.0	5_exp_RW	999	Rpleas_acq	CS_B	BZZB	YDDY	JXXJ	VKKV	MQQM	GWWG	spielen	fair	schön	retten	ehrlich	treu	strafen	faul	schlecht	rächen	eitel	tot	1	acq_USunple_CSunple1_RW	acq4567_RW	5	35	400	1	300	300	377	46	0	1	1	blank2r.bmp	0	1	+	0	1	blank2r.bmp	492	1	JXXJ	492	1	blank2r.bmp	572	3	schlecht	866	1	!	1239	1	!	1279	0	0	0	0	0	0	0	0	0	0	0	0	0	0	0	0	0	0	0	0	0	0	0	0	0	0	0	0	0	0
070119	14:49:40	14:57:58	494684	5.0.10.0	5_exp_RW	999	Rpleas_acq	CS_B	BZZB	YDDY	JXXJ	VKKV	MQQM	GWWG	spielen	fair	schön	retten	ehrlich	treu	strafen	faul	schlecht	rächen	eitel	tot	1	acq_USunple_CSunple2_RW	acq4567_RW	5	36	400	1	300	300	431	46	0	1	1	blank2r.bmp	0	1	+	0	1	blank2r.bmp	492	1	VKKV	492	1	blank2r.bmp	572	1	rächen	866	1	!	1239	1	!	1332	0	0	0	0	0	0	0	0	0	0	0	0	0	0	0	0	0	0	0	0	0	0	0	0	0	0	0	0	0	0
070119	14:49:40	14:58:00	496896	5.0.10.0	5_exp_RW	999	Rpleas_acq	CS_B	BZZB	YDDY	JXXJ	VKKV	MQQM	GWWG	spielen	fair	schön	retten	ehrlich	treu	strafen	faul	schlecht	rächen	eitel	tot	1	acq_USpleas_CSpleas2_RW	acq4567_RW	5	37	400	1	300	300	413	46	0	0	1	blank2r.bmp	0	1	+	0	1	blank2r.bmp	492	1	YDDY	492	1	blank2r.bmp	572	3	treu	866	1	!	1239	1	!	1319	0	0	0	0	0	0	0	0	0	0	0	0	0	0	0	0	0	0	0	0	0	0	0	0	0	0	0	0	0	0
070119	14:49:40	14:58:03	499149	5.0.10.0	5_exp_RW	999	Rpleas_acq	CS_B	BZZB	YDDY	JXXJ	VKKV	MQQM	GWWG	spielen	fair	schön	retten	ehrlich	treu	strafen	faul	schlecht	rächen	eitel	tot	1	acq_USunple_CSunple1_RW	acq4567_RW	5	38	400	1	300	300	458	46	0	1	1	blank2r.bmp	0	1	+	0	1	blank2r.bmp	492	1	JXXJ	492	1	blank2r.bmp	572	2	faul	866	1	!	1239	1	!	1359	0	0	0	0	0	0	0	0	0	0	0	0	0	0	0	0	0	0	0	0	0	0	0	0	0	0	0	0	0	0
070119	14:49:40	14:58:05	501321	5.0.10.0	5_exp_RW	999	Rpleas_acq	CS_B	BZZB	YDDY	JXXJ	VKKV	MQQM	GWWG	spielen	fair	schön	retten	ehrlich	treu	strafen	faul	schlecht	rächen	eitel	tot	1	acq_USunple_CSunple2_RW	acq4567_RW	5	39	400	1	300	300	383	50	0	0	1	blank2r.bmp	0	1	+	0	1	blank2r.bmp	492	1	VKKV	492	1	blank2r.bmp	572	1	rächen	866	1	!	1239	1	!	1279	0	0	0	0	0	0	0	0	0	0	0	0	0	0	0	0	0	0	0	0	0	0	0	0	0	0	0	0	0	0
070119	14:49:40	14:58:07	503534	5.0.10.0	5_exp_RW	999	Rpleas_acq	CS_B	BZZB	YDDY	JXXJ	VKKV	MQQM	GWWG	spielen	fair	schön	retten	ehrlich	treu	strafen	faul	schlecht	rächen	eitel	tot	1	acq_USunple_CSunple1_RW	acq4567_RW	5	40	400	1	300	300	418	46	0	1	1	blank2r.bmp	0	1	+	0	1	blank2r.bmp	493	1	JXXJ	493	1	blank2r.bmp	572	2	faul	866	1	!	1239	1	!	1319	0	0	0	0	0	0	0	0	0	0	0	0	0	0	0	0	0	0	0	0	0	0	0	0	0	0	0	0	0	0
070119	14:49:40	14:58:09	505773	5.0.10.0	5_exp_RW	999	Rpleas_acq	CS_B	BZZB	YDDY	JXXJ	VKKV	MQQM	GWWG	spielen	fair	schön	retten	ehrlich	treu	strafen	faul	schlecht	rächen	eitel	tot	1	acq_USunple_CSunple1_RW	acq4567_RW	5	41	400	1	300	300	451	46	0	1	1	blank2r.bmp	0	1	+	0	1	blank2r.bmp	492	1	JXXJ	492	1	blank2r.bmp	572	3	schlecht	866	1	!	1239	1	!	1346	0	0	0	0	0	0	0	0	0	0	0	0	0	0	0	0	0	0	0	0	0	0	0	0	0	0	0	0	0	0
070119	14:49:40	14:58:11	507772	5.0.10.0	5_exp_RW	999	Rpleas_acq	CS_B	BZZB	YDDY	JXXJ	VKKV	MQQM	GWWG	spielen	fair	schön	retten	ehrlich	treu	strafen	faul	schlecht	rächen	eitel	tot	1	acq_USpleas_CSpleas2_RW	acq4567_RW	5	42	400	0	300	300	227	46	0	0	1	blank2r.bmp	0	1	+	0	1	blank2r.bmp	492	1	YDDY	492	1	blank2r.bmp	572	2	ehrlich	866	1	!	-1	1	!	-1	0	0	0	0	0	0	0	0	0	0	0	0	0	0	0	0	0	0	0	0	0	0	0	0	0	0	0	0	0	0
070119	14:49:40	14:58:14	510077	5.0.10.0	5_exp_RW	999	Rpleas_acq	CS_B	BZZB	YDDY	JXXJ	VKKV	MQQM	GWWG	spielen	fair	schön	retten	ehrlich	treu	strafen	faul	schlecht	rächen	eitel	tot	1	acq_USunple_CSunple1_RW	acq4567_RW	5	43	400	0	300	300	528	46	0	1	1	blank2r.bmp	0	1	+	0	1	blank2r.bmp	493	1	JXXJ	493	1	blank2r.bmp	572	1	strafen	866	1	!	1239	1	!	-1	0	0	0	0	0	0	0	0	0	0	0	0	0	0	0	0	0	0	0	0	0	0	0	0	0	0	0	0	0	0
070119	14:49:40	14:58:16	512356	5.0.10.0	5_exp_RW	999	Rpleas_acq	CS_B	BZZB	YDDY	JXXJ	VKKV	MQQM	GWWG	spielen	fair	schön	retten	ehrlich	treu	strafen	faul	schlecht	rächen	eitel	tot	1	acq_USunple_CSunple1_RW	acq4567_RW	5	44	400	0	300	300	485	50	0	0	1	blank2r.bmp	0	1	+	0	1	blank2r.bmp	492	1	JXXJ	492	1	blank2r.bmp	572	3	schlecht	866	1	!	1239	1	!	-1	0	0	0	0	0	0	0	0	0	0	0	0	0	0	0	0	0	0	0	0	0	0	0	0	0	0	0	0	0	0
070119	14:49:40	14:58:18	514556	5.0.10.0	5_exp_RW	999	Rpleas_acq	CS_B	BZZB	YDDY	JXXJ	VKKV	MQQM	GWWG	spielen	fair	schön	retten	ehrlich	treu	strafen	faul	schlecht	rächen	eitel	tot	1	acq_USunple_CSunple2_RW	acq4567_RW	5	45	400	1	300	300	402	46	0	1	1	blank2r.bmp	0	1	+	0	1	blank2r.bmp	492	1	VKKV	492	1	blank2r.bmp	572	2	eitel	866	1	!	1239	1	!	1306	0	0	0	0	0	0	0	0	0	0	0	0	0	0	0	0	0	0	0	0	0	0	0	0	0	0	0	0	0	0
070119	14:49:40	14:58:20	516715	5.0.10.0	5_exp_RW	999	Rpleas_acq	CS_B	BZZB	YDDY	JXXJ	VKKV	MQQM	GWWG	spielen	fair	schön	retten	ehrlich	treu	strafen	faul	schlecht	rächen	eitel	tot	1	acq_USpleas_CSpleas1_RW	acq4567_RW	5	46	400	1	300	300	360	50	0	1	1	blank2r.bmp	0	1	+	0	1	blank2r.bmp	492	1	BZZB	492	1	blank2r.bmp	572	3	schön	866	1	!	1239	1	!	1266	0	0	0	0	0	0	0	0	0	0	0	0	0	0	0	0	0	0	0	0	0	0	0	0	0	0	0	0	0	0
070119	14:49:40	14:58:23	518927	5.0.10.0	5_exp_RW	999	Rpleas_acq	CS_B	BZZB	YDDY	JXXJ	VKKV	MQQM	GWWG	spielen	fair	schön	retten	ehrlich	treu	strafen	faul	schlecht	rächen	eitel	tot	1	acq_USunple_CSunple2_RW	acq4567_RW	5	47	400	1	300	300	422	46	0	1	1	blank2r.bmp	0	1	+	0	1	blank2r.bmp	492	1	VKKV	492	1	blank2r.bmp	572	3	tot	866	1	!	1240	1	!	1319	0	0	0	0	0	0	0	0	0	0	0	0	0	0	0	0	0	0	0	0	0	0	0	0	0	0	0	0	0	0
070119	14:49:40	14:58:25	521179	5.0.10.0	5_exp_RW	999	Rpleas_acq	CS_B	BZZB	YDDY	JXXJ	VKKV	MQQM	GWWG	spielen	fair	schön	retten	ehrlich	treu	strafen	faul	schlecht	rächen	eitel	tot	1	acq_USpleas_CSpleas1_RW	acq4567_RW	5	48	400	0	300	300	479	50	0	1	1	blank2r.bmp	0	1	+	0	1	blank2r.bmp	492	1	BZZB	492	1	blank2r.bmp	572	2	fair	866	1	!	1239	1	!	-1	0	0	0	0	0	0	0	0	0	0	0	0	0	0	0	0	0	0	0	0	0	0	0	0	0	0	0	0	0	0
070119	14:49:40	14:58:27	523459	5.0.10.0	5_exp_RW	999	Rpleas_acq	CS_B	BZZB	YDDY	JXXJ	VKKV	MQQM	GWWG	spielen	fair	schön	retten	ehrlich	treu	strafen	faul	schlecht	rächen	eitel	tot	1	acq_USunple_CSunple2_RW	acq4567_RW	5	49	400	0	300	300	479	46	0	1	1	blank2r.bmp	0	1	+	0	1	blank2r.bmp	492	1	VKKV	492	1	blank2r.bmp	572	3	tot	866	1	!	1239	1	!	-1	0	0	0	0	0	0	0	0	0	0	0	0	0	0	0	0	0	0	0	0	0	0	0	0	0	0	0	0	0	0
070119	14:49:40	14:58:29	525658	5.0.10.0	5_exp_RW	999	Rpleas_acq	CS_B	BZZB	YDDY	JXXJ	VKKV	MQQM	GWWG	spielen	fair	schön	retten	ehrlich	treu	strafen	faul	schlecht	rächen	eitel	tot	1	acq_USpleas_CSpleas1_RW	acq4567_RW	5	50	400	1	300	300	408	50	0	1	1	blank2r.bmp	0	1	+	0	1	blank2r.bmp	492	1	BZZB	492	1	blank2r.bmp	572	2	fair	866	1	!	1239	1	!	1306	0	0	0	0	0	0	0	0	0	0	0	0	0	0	0	0	0	0	0	0	0	0	0	0	0	0	0	0	0	0
070119	14:49:40	14:58:31	527910	5.0.10.0	5_exp_RW	999	Rpleas_acq	CS_B	BZZB	YDDY	JXXJ	VKKV	MQQM	GWWG	spielen	fair	schön	retten	ehrlich	treu	strafen	faul	schlecht	rächen	eitel	tot	1	acq_USpleas_CSpleas2_RW	acq4567_RW	5	51	400	1	300	300	463	50	0	1	1	blank2r.bmp	0	1	+	0	1	blank2r.bmp	492	1	YDDY	492	1	blank2r.bmp	572	1	retten	866	1	!	1239	1	!	1359	0	0	0	0	0	0	0	0	0	0	0	0	0	0	0	0	0	0	0	0	0	0	0	0	0	0	0	0	0	0
070119	14:49:40	14:58:34	530109	5.0.10.0	5_exp_RW	999	Rpleas_acq	CS_B	BZZB	YDDY	JXXJ	VKKV	MQQM	GWWG	spielen	fair	schön	retten	ehrlich	treu	strafen	faul	schlecht	rächen	eitel	tot	1	acq_USpleas_CSpleas1_RW	acq4567_RW	5	52	400	1	300	300	402	50	0	1	1	blank2r.bmp	0	1	+	0	1	blank2r.bmp	492	1	BZZB	492	1	blank2r.bmp	572	3	schön	866	1	!	1239	1	!	1306	0	0	0	0	0	0	0	0	0	0	0	0	0	0	0	0	0	0	0	0	0	0	0	0	0	0	0	0	0	0
070119	14:49:40	14:58:36	532521	5.0.10.0	5_exp_RW	999	Rpleas_acq	CS_B	BZZB	YDDY	JXXJ	VKKV	MQQM	GWWG	spielen	fair	schön	retten	ehrlich	treu	strafen	faul	schlecht	rächen	eitel	tot	1	acq_USpleas_CSpleas2_RW	acq4567_RW	5	53	400	0	300	300	639	50	0	1	1	blank2r.bmp	0	1	+	0	1	blank2r.bmp	492	1	YDDY	492	1	blank2r.bmp	572	1	retten	866	1	!	1239	1	!	-1	0	0	0	0	0	0	0	0	0	0	0	0	0	0	0	0	0	0	0	0	0	0	0	0	0	0	0	0	0	0
070119	14:49:40	14:58:38	534747	5.0.10.0	5_exp_RW	999	Rpleas_acq	CS_B	BZZB	YDDY	JXXJ	VKKV	MQQM	GWWG	spielen	fair	schön	retten	ehrlich	treu	strafen	faul	schlecht	rächen	eitel	tot	1	acq_USpleas_CSpleas1_RW	acq4567_RW	5	54	400	1	300	300	424	50	0	1	1	blank2r.bmp	0	1	+	0	1	blank2r.bmp	492	1	BZZB	492	1	blank2r.bmp	572	1	spielen	866	1	!	1239	1	!	1319	0	0	0	0	0	0	0	0	0	0	0	0	0	0	0	0	0	0	0	0	0	0	0	0	0	0	0	0	0	0
070119	14:49:40	14:58:41	536986	5.0.10.0	5_exp_RW	999	Rpleas_acq	CS_B	BZZB	YDDY	JXXJ	VKKV	MQQM	GWWG	spielen	fair	schön	retten	ehrlich	treu	strafen	faul	schlecht	rächen	eitel	tot	1	acq_USpleas_CSpleas2_RW	acq4567_RW	5	55	400	1	300	300	450	50	0	1	1	blank2r.bmp	2	1	+	2	1	blank2r.bmp	492	1	YDDY	492	1	blank2r.bmp	572	3	treu	866	1	!	1239	1	!	1346	0	0	0	0	0	0	0	0	0	0	0	0	0	0	0	0	0	0	0	0	0	0	0	0	0	0	0	0	0	0
070119	14:49:40	14:58:43	539239	5.0.10.0	5_exp_RW	999	Rpleas_acq	CS_B	BZZB	YDDY	JXXJ	VKKV	MQQM	GWWG	spielen	fair	schön	retten	ehrlich	treu	strafen	faul	schlecht	rächen	eitel	tot	1	acq_USunple_CSunple1_RW	acq4567_RW	5	56	400	0	300	300	479	46	0	1	1	blank2r.bmp	0	1	+	0	1	blank2r.bmp	492	1	JXXJ	492	1	blank2r.bmp	572	2	faul	866	1	!	1239	1	!	-1	0	0	0	0	0	0	0	0	0	0	0	0	0	0	0	0	0	0	0	0	0	0	0	0	0	0	0	0	0	0
070119	14:49:40	14:58:45	541464	5.0.10.0	5_exp_RW	999	Rpleas_acq	CS_B	BZZB	YDDY	JXXJ	VKKV	MQQM	GWWG	spielen	fair	schön	retten	ehrlich	treu	strafen	faul	schlecht	rächen	eitel	tot	1	acq_USpleas_CSpleas2_RW	acq4567_RW	5	57	400	1	300	300	412	50	0	1	1	blank2r.bmp	0	1	+	0	1	blank2r.bmp	492	1	YDDY	492	1	blank2r.bmp	572	2	ehrlich	866	1	!	1239	1	!	1319	0	0	0	0	0	0	0	0	0	0	0	0	0	0	0	0	0	0	0	0	0	0	0	0	0	0	0	0	0	0
070119	14:49:40	14:58:47	543677	5.0.10.0	5_exp_RW	999	Rpleas_acq	CS_B	BZZB	YDDY	JXXJ	VKKV	MQQM	GWWG	spielen	fair	schön	retten	ehrlich	treu	strafen	faul	schlecht	rächen	eitel	tot	1	acq_USunple_CSunple1_RW	acq4567_RW	5	58	400	1	300	300	419	46	0	1	1	blank2r.bmp	0	1	+	0	1	blank2r.bmp	492	1	JXXJ	492	1	blank2r.bmp	572	1	strafen	866	1	!	1239	1	!	1319	0	0	0	0	0	0	0	0	0	0	0	0	0	0	0	0	0	0	0	0	0	0	0	0	0	0	0	0	0	0
070119	14:49:40	14:58:50	545956	5.0.10.0	5_exp_RW	999	Rpleas_acq	CS_B	BZZB	YDDY	JXXJ	VKKV	MQQM	GWWG	spielen	fair	schön	retten	ehrlich	treu	strafen	faul	schlecht	rächen	eitel	tot	1	acq_USunple_CSunple2_RW	acq4567_RW	5	59	400	0	300	300	502	46	0	1	1	blank2r.bmp	0	1	+	0	1	blank2r.bmp	492	1	VKKV	492	1	blank2r.bmp	572	1	rächen	866	1	!	1239	1	!	-1	0	0	0	0	0	0	0	0	0	0	0	0	0	0	0	0	0	0	0	0	0	0	0	0	0	0	0	0	0	0
070119	14:49:40	14:58:52	548142	5.0.10.0	5_exp_RW	999	Rpleas_acq	CS_B	BZZB	YDDY	JXXJ	VKKV	MQQM	GWWG	spielen	fair	schön	retten	ehrlich	treu	strafen	faul	schlecht	rächen	eitel	tot	1	acq_USunple_CSunple2_RW	acq4567_RW	5	60	400	1	300	300	396	50	0	0	1	blank2r.bmp	0	1	+	0	1	blank2r.bmp	492	1	VKKV	492	1	blank2r.bmp	572	2	eitel	866	1	!	1239	1	!	1292	0	0	0	0	0	0	0	0	0	0	0	0	0	0	0	0	0	0	0	0	0	0	0	0	0	0	0	0	0	0
070119	14:49:40	14:58:54	550314	5.0.10.0	5_exp_RW	999	Rpleas_acq	CS_B	BZZB	YDDY	JXXJ	VKKV	MQQM	GWWG	spielen	fair	schön	retten	ehrlich	treu	strafen	faul	schlecht	rächen	eitel	tot	1	acq_USpleas_CSpleas1_RW	acq4567_RW	5	61	400	1	300	300	373	46	0	0	1	blank2r.bmp	0	1	+	0	1	blank2r.bmp	492	1	BZZB	492	1	blank2r.bmp	572	2	fair	866	1	!	1239	1	!	1279	0	0	0	0	0	0	0	0	0	0	0	0	0	0	0	0	0	0	0	0	0	0	0	0	0	0	0	0	0	0
070119	14:49:40	14:58:56	552553	5.0.10.0	5_exp_RW	999	Rpleas_acq	CS_B	BZZB	YDDY	JXXJ	VKKV	MQQM	GWWG	spielen	fair	schön	retten	ehrlich	treu	strafen	faul	schlecht	rächen	eitel	tot	1	acq_USunple_CSunple2_RW	acq4567_RW	5	62	400	1	300	300	440	46	0	1	1	blank2r.bmp	0	1	+	0	1	blank2r.bmp	492	1	VKKV	492	1	blank2r.bmp	572	1	rächen	866	1	!	1239	1	!	1346	0	0	0	0	0	0	0	0	0	0	0	0	0	0	0	0	0	0	0	0	0	0	0	0	0	0	0	0	0	0
070119	14:49:40	14:58:58	554725	5.0.10.0	5_exp_RW	999	Rpleas_acq	CS_B	BZZB	YDDY	JXXJ	VKKV	MQQM	GWWG	spielen	fair	schön	retten	ehrlich	treu	strafen	faul	schlecht	rächen	eitel	tot	1	acq_USpleas_CSpleas1_RW	acq4567_RW	5	63	400	1	300	300	377	46	0	0	1	blank2r.bmp	0	1	+	0	1	blank2r.bmp	493	1	BZZB	493	1	blank2r.bmp	572	1	spielen	866	1	!	1239	1	!	1279	0	0	0	0	0	0	0	0	0	0	0	0	0	0	0	0	0	0	0	0	0	0	0	0	0	0	0	0	0	0
070119	14:49:40	14:59:01	556978	5.0.10.0	5_exp_RW	999	Rpleas_acq	CS_B	BZZB	YDDY	JXXJ	VKKV	MQQM	GWWG	spielen	fair	schön	retten	ehrlich	treu	strafen	faul	schlecht	rächen	eitel	tot	1	acq_USpleas_CSpleas1_RW	acq4567_RW	5	64	400	0	300	300	479	50	0	1	1	blank2r.bmp	0	1	+	0	1	blank2r.bmp	492	1	BZZB	492	1	blank2r.bmp	572	3	schön	866	1	!	1239	1	!	-1	0	0	0	0	0	0	0	0	0	0	0	0	0	0	0	0	0	0	0	0	0	0	0	0	0	0	0	0	0	0
070119	14:49:40	14:59:03	559257	5.0.10.0	5_exp_RW	999	Rpleas_acq	CS_B	BZZB	YDDY	JXXJ	VKKV	MQQM	GWWG	spielen	fair	schön	retten	ehrlich	treu	strafen	faul	schlecht	rächen	eitel	tot	1	acq_USunple_CSunple2_RW	acq4567_RW	5	65	400	0	300	300	479	46	0	1	1	blank2r.bmp	0	1	+	0	1	blank2r.bmp	492	1	VKKV	492	1	blank2r.bmp	572	2	eitel	866	1	!	1239	1	!	-1	0	0	0	0	0	0	0	0	0	0	0	0	0	0	0	0	0	0	0	0	0	0	0	0	0	0	0	0	0	0
070119	14:49:40	14:59:05	561429	5.0.10.0	5_exp_RW	999	Rpleas_acq	CS_B	BZZB	YDDY	JXXJ	VKKV	MQQM	GWWG	spielen	fair	schön	retten	ehrlich	treu	strafen	faul	schlecht	rächen	eitel	tot	1	acq_USunple_CSunple2_RW	acq4567_RW	5	66	400	1	300	300	385	46	0	1	1	blank2r.bmp	0	1	+	0	1	blank2r.bmp	492	1	VKKV	492	1	blank2r.bmp	572	3	tot	866	1	!	1239	1	!	1279	0	0	0	0	0	0	0	0	0	0	0	0	0	0	0	0	0	0	0	0	0	0	0	0	0	0	0	0	0	0
070119	14:49:40	14:59:07	563655	5.0.10.0	5_exp_RW	999	Rpleas_acq	CS_B	BZZB	YDDY	JXXJ	VKKV	MQQM	GWWG	spielen	fair	schön	retten	ehrlich	treu	strafen	faul	schlecht	rächen	eitel	tot	1	acq_USunple_CSunple1_RW	acq4567_RW	5	67	400	1	300	300	428	46	0	1	1	blank2r.bmp	0	1	+	0	1	blank2r.bmp	492	1	JXXJ	492	1	blank2r.bmp	572	3	schlecht	866	1	!	1239	1	!	1332	0	0	0	0	0	0	0	0	0	0	0	0	0	0	0	0	0	0	0	0	0	0	0	0	0	0	0	0	0	0
070119	14:49:40	14:59:09	565907	5.0.10.0	5_exp_RW	999	Rpleas_acq	CS_B	BZZB	YDDY	JXXJ	VKKV	MQQM	GWWG	spielen	fair	schön	retten	ehrlich	treu	strafen	faul	schlecht	rächen	eitel	tot	1	acq_USunple_CSunple1_RW	acq4567_RW	5	68	400	1	300	300	463	46	0	1	1	blank2r.bmp	0	1	+	0	1	blank2r.bmp	492	1	JXXJ	492	1	blank2r.bmp	572	2	faul	866	1	!	1239	1	!	1359	0	0	0	0	0	0	0	0	0	0	0	0	0	0	0	0	0	0	0	0	0	0	0	0	0	0	0	0	0	0
070119	14:49:40	14:59:12	568200	5.0.10.0	5_exp_RW	999	Rpleas_acq	CS_B	BZZB	YDDY	JXXJ	VKKV	MQQM	GWWG	spielen	fair	schön	retten	ehrlich	treu	strafen	faul	schlecht	rächen	eitel	tot	1	acq_USpleas_CSpleas2_RW	acq4567_RW	5	69	400	0	300	300	519	46	0	0	1	blank2r.bmp	0	1	+	0	1	blank2r.bmp	492	1	YDDY	492	1	blank2r.bmp	576	1	retten	866	1	!	1239	1	!	-1	0	0	0	0	0	0	0	0	0	0	0	0	0	0	0	0	0	0	0	0	0	0	0	0	0	0	0	0	0	0
070119	14:49:40	14:59:14	570385	5.0.10.0	5_exp_RW	999	Rpleas_acq	CS_B	BZZB	YDDY	JXXJ	VKKV	MQQM	GWWG	spielen	fair	schön	retten	ehrlich	treu	strafen	faul	schlecht	rächen	eitel	tot	1	acq_USunple_CSunple2_RW	acq4567_RW	5	70	400	1	300	300	385	46	0	1	1	blank2r.bmp	1	1	+	1	1	blank2r.bmp	492	1	VKKV	492	1	blank2r.bmp	572	3	tot	866	1	!	1239	1	!	1279	0	0	0	0	0	0	0	0	0	0	0	0	0	0	0	0	0	0	0	0	0	0	0	0	0	0	0	0	0	0
070119	14:49:40	14:59:16	572651	5.0.10.0	5_exp_RW	999	Rpleas_acq	CS_B	BZZB	YDDY	JXXJ	VKKV	MQQM	GWWG	spielen	fair	schön	retten	ehrlich	treu	strafen	faul	schlecht	rächen	eitel	tot	1	acq_USunple_CSunple1_RW	acq4567_RW	5	71	400	0	300	300	500	46	0	1	1	blank2r.bmp	0	1	+	0	1	blank2r.bmp	492	1	JXXJ	492	1	blank2r.bmp	572	1	strafen	866	1	!	1239	1	!	-1	0	0	0	0	0	0	0	0	0	0	0	0	0	0	0	0	0	0	0	0	0	0	0	0	0	0	0	0	0	0
070119	14:49:40	14:59:18	574904	5.0.10.0	5_exp_RW	999	Rpleas_acq	CS_B	BZZB	YDDY	JXXJ	VKKV	MQQM	GWWG	spielen	fair	schön	retten	ehrlich	treu	strafen	faul	schlecht	rächen	eitel	tot	1	acq_USunple_CSunple2_RW	acq4567_RW	5	72	400	1	300	300	440	46	0	1	1	blank2r.bmp	0	1	+	0	1	blank2r.bmp	492	1	VKKV	492	1	blank2r.bmp	572	1	rächen	866	1	!	1239	1	!	1346	0	0	0	0	0	0	0	0	0	0	0	0	0	0	0	0	0	0	0	0	0	0	0	0	0	0	0	0	0	0
070119	14:49:40	14:59:21	577143	5.0.10.0	5_exp_RW	999	Rpleas_acq	CS_B	BZZB	YDDY	JXXJ	VKKV	MQQM	GWWG	spielen	fair	schön	retten	ehrlich	treu	strafen	faul	schlecht	rächen	eitel	tot	1	acq_USpleas_CSpleas2_RW	acq4567_RW	5	73	400	1	300	300	446	50	0	1	1	blank2r.bmp	0	1	+	0	1	blank2r.bmp	492	1	YDDY	492	1	blank2r.bmp	572	3	treu	866	1	!	1239	1	!	1346	0	0	0	0	0	0	0	0	0	0	0	0	0	0	0	0	0	0	0	0	0	0	0	0	0	0	0	0	0	0
070119	14:49:40	14:59:23	579422	5.0.10.0	5_exp_RW	999	Rpleas_acq	CS_B	BZZB	YDDY	JXXJ	VKKV	MQQM	GWWG	spielen	fair	schön	retten	ehrlich	treu	strafen	faul	schlecht	rächen	eitel	tot	1	acq_USpleas_CSpleas1_RW	acq4567_RW	5	74	400	0	300	300	508	50	0	1	1	blank2r.bmp	0	1	+	0	1	blank2r.bmp	492	1	BZZB	492	1	blank2r.bmp	572	2	fair	866	1	!	1239	1	!	-1	0	0	0	0	0	0	0	0	0	0	0	0	0	0	0	0	0	0	0	0	0	0	0	0	0	0	0	0	0	0
070119	14:49:40	14:59:25	581607	5.0.10.0	5_exp_RW	999	Rpleas_acq	CS_B	BZZB	YDDY	JXXJ	VKKV	MQQM	GWWG	spielen	fair	schön	retten	ehrlich	treu	strafen	faul	schlecht	rächen	eitel	tot	1	acq_USpleas_CSpleas1_RW	acq4567_RW	5	75	400	1	300	300	384	50	0	1	1	blank2r.bmp	0	1	+	0	1	blank2r.bmp	492	1	BZZB	492	1	blank2r.bmp	572	3	schön	866	1	!	1239	1	!	1279	0	0	0	0	0	0	0	0	0	0	0	0	0	0	0	0	0	0	0	0	0	0	0	0	0	0	0	0	0	0
070119	14:49:40	14:59:27	583833	5.0.10.0	5_exp_RW	999	Rpleas_acq	CS_B	BZZB	YDDY	JXXJ	VKKV	MQQM	GWWG	spielen	fair	schön	retten	ehrlich	treu	strafen	faul	schlecht	rächen	eitel	tot	1	acq_USpleas_CSpleas2_RW	acq4567_RW	5	76	400	1	300	300	426	50	0	1	1	blank2r.bmp	0	1	+	0	1	blank2r.bmp	492	1	YDDY	492	1	blank2r.bmp	572	2	ehrlich	866	1	!	1239	1	!	1332	0	0	0	0	0	0	0	0	0	0	0	0	0	0	0	0	0	0	0	0	0	0	0	0	0	0	0	0	0	0
070119	14:49:40	14:59:30	586059	5.0.10.0	5_exp_RW	999	Rpleas_acq	CS_B	BZZB	YDDY	JXXJ	VKKV	MQQM	GWWG	spielen	fair	schön	retten	ehrlich	treu	strafen	faul	schlecht	rächen	eitel	tot	1	acq_USunple_CSunple1_RW	acq4567_RW	5	77	400	1	300	300	432	46	0	1	1	blank2r.bmp	0	1	+	0	1	blank2r.bmp	493	1	JXXJ	493	1	blank2r.bmp	572	2	faul	866	1	!	1239	1	!	1332	0	0	0	0	0	0	0	0	0	0	0	0	0	0	0	0	0	0	0	0	0	0	0	0	0	0	0	0	0	0
070119	14:49:40	14:59:32	588311	5.0.10.0	5_exp_RW	999	Rpleas_acq	CS_B	BZZB	YDDY	JXXJ	VKKV	MQQM	GWWG	spielen	fair	schön	retten	ehrlich	treu	strafen	faul	schlecht	rächen	eitel	tot	1	acq_USpleas_CSpleas2_RW	acq4567_RW	5	78	400	1	300	300	460	46	0	0	1	blank2r.bmp	0	1	+	0	1	blank2r.bmp	492	1	YDDY	492	1	blank2r.bmp	572	3	treu	866	1	!	1239	1	!	1359	0	0	0	0	0	0	0	0	0	0	0	0	0	0	0	0	0	0	0	0	0	0	0	0	0	0	0	0	0	0
070119	14:49:40	14:59:34	590670	5.0.10.0	5_exp_RW	999	Rpleas_acq	CS_B	BZZB	YDDY	JXXJ	VKKV	MQQM	GWWG	spielen	fair	schön	retten	ehrlich	treu	strafen	faul	schlecht	rächen	eitel	tot	1	acq_USunple_CSunple1_RW	acq4567_RW	5	79	400	0	300	300	573	50	0	0	1	blank2r.bmp	0	1	+	0	1	blank2r.bmp	492	1	JXXJ	492	1	blank2r.bmp	572	1	strafen	866	1	!	1239	1	!	-1	0	0	0	0	0	0	0	0	0	0	0	0	0	0	0	0	0	0	0	0	0	0	0	0	0	0	0	0	0	0
070119	14:49:40	14:59:37	592936	5.0.10.0	5_exp_RW	999	Rpleas_acq	CS_B	BZZB	YDDY	JXXJ	VKKV	MQQM	GWWG	spielen	fair	schön	retten	ehrlich	treu	strafen	faul	schlecht	rächen	eitel	tot	1	acq_USpleas_CSpleas2_RW	acq4567_RW	5	80	400	0	300	300	479	50	0	1	1	blank2r.bmp	0	1	+	0	1	blank2r.bmp	492	1	YDDY	492	1	blank2r.bmp	572	1	retten	866	1	!	1239	1	!	-1	0	0	0	0	0	0	0	0	0	0	0	0	0	0	0	0	0	0	0	0	0	0	0	0	0	0	0	0	0	0
070119	14:49:40	14:59:45	601839	5.0.10.0	5_exp_RW	999	Rpleas_acq	CS_B	BZZB	YDDY	JXXJ	VKKV	MQQM	GWWG	spielen	fair	schön	retten	ehrlich	treu	strafen	faul	schlecht	rächen	eitel	tot	1	acq_USunple_CSunple2_RW	acq4567_RW	6	1	400	0	300	300	479	46	0	1	1	blank2r.bmp	0	1	+	0	1	blank2r.bmp	492	1	VKKV	492	1	blank2r.bmp	572	2	eitel	866	1	!	1239	1	!	-1	0	0	0	0	0	0	0	0	0	0	0	0	0	0	0	0	0	0	0	0	0	0	0	0	0	0	0	0	0	0
070119	14:49:40	14:59:48	604051	5.0.10.0	5_exp_RW	999	Rpleas_acq	CS_B	BZZB	YDDY	JXXJ	VKKV	MQQM	GWWG	spielen	fair	schön	retten	ehrlich	treu	strafen	faul	schlecht	rächen	eitel	tot	1	acq_USpleas_CSpleas2_RW	acq4567_RW	6	2	400	1	300	300	405	50	0	1	1	blank2r.bmp	0	1	+	0	1	blank2r.bmp	492	1	YDDY	492	1	blank2r.bmp	572	2	ehrlich	866	1	!	1239	1	!	1306	0	0	0	0	0	0	0	0	0	0	0	0	0	0	0	0	0	0	0	0	0	0	0	0	0	0	0	0	0	0
070119	14:49:40	14:59:50	606224	5.0.10.0	5_exp_RW	999	Rpleas_acq	CS_B	BZZB	YDDY	JXXJ	VKKV	MQQM	GWWG	spielen	fair	schön	retten	ehrlich	treu	strafen	faul	schlecht	rächen	eitel	tot	1	acq_USpleas_CSpleas2_RW	acq4567_RW	6	3	400	1	300	300	375	50	0	1	1	blank2r.bmp	0	1	+	0	1	blank2r.bmp	492	1	YDDY	492	1	blank2r.bmp	572	2	ehrlich	866	1	!	1239	1	!	1279	0	0	0	0	0	0	0	0	0	0	0	0	0	0	0	0	0	0	0	0	0	0	0	0	0	0	0	0	0	0
070119	14:49:40	14:59:52	608409	5.0.10.0	5_exp_RW	999	Rpleas_acq	CS_B	BZZB	YDDY	JXXJ	VKKV	MQQM	GWWG	spielen	fair	schön	retten	ehrlich	treu	strafen	faul	schlecht	rächen	eitel	tot	1	acq_USunple_CSunple2_RW	acq4567_RW	6	4	400	1	300	300	386	50	0	0	1	blank2r.bmp	0	1	+	0	1	blank2r.bmp	492	1	VKKV	492	1	blank2r.bmp	572	2	eitel	866	1	!	1239	1	!	1292	0	0	0	0	0	0	0	0	0	0	0	0	0	0	0	0	0	0	0	0	0	0	0	0	0	0	0	0	0	0
070119	14:49:40	14:59:54	610515	5.0.10.0	5_exp_RW	999	Rpleas_acq	CS_B	BZZB	YDDY	JXXJ	VKKV	MQQM	GWWG	spielen	fair	schön	retten	ehrlich	treu	strafen	faul	schlecht	rächen	eitel	tot	1	acq_USunple_CSunple1_RW	acq4567_RW	6	5	400	0	300	300	328	46	0	1	1	blank2r.bmp	0	1	+	0	1	blank2r.bmp	492	1	JXXJ	492	1	blank2r.bmp	572	3	schlecht	866	1	!	-1	1	!	-1	0	0	0	0	0	0	0	0	0	0	0	0	0	0	0	0	0	0	0	0	0	0	0	0	0	0	0	0	0	0
070119	14:49:40	14:59:56	612741	5.0.10.0	5_exp_RW	999	Rpleas_acq	CS_B	BZZB	YDDY	JXXJ	VKKV	MQQM	GWWG	spielen	fair	schön	retten	ehrlich	treu	strafen	faul	schlecht	rächen	eitel	tot	1	acq_USunple_CSunple1_RW	acq4567_RW	6	6	400	1	300	300	428	46	0	1	1	blank2r.bmp	0	1	+	0	1	blank2r.bmp	492	1	JXXJ	492	1	blank2r.bmp	572	3	schlecht	866	1	!	1239	1	!	1332	0	0	0	0	0	0	0	0	0	0	0	0	0	0	0	0	0	0	0	0	0	0	0	0	0	0	0	0	0	0
070119	14:49:40	14:59:59	614980	5.0.10.0	5_exp_RW	999	Rpleas_acq	CS_B	BZZB	YDDY	JXXJ	VKKV	MQQM	GWWG	spielen	fair	schön	retten	ehrlich	treu	strafen	faul	schlecht	rächen	eitel	tot	1	acq_USpleas_CSpleas1_RW	acq4567_RW	6	7	400	1	300	300	439	50	0	1	1	blank2r.bmp	0	1	+	0	1	blank2r.bmp	492	1	BZZB	492	1	blank2r.bmp	572	1	spielen	866	1	!	1239	1	!	1346	0	0	0	0	0	0	0	0	0	0	0	0	0	0	0	0	0	0	0	0	0	0	0	0	0	0	0	0	0	0
070119	14:49:40	15:00:01	617352	5.0.10.0	5_exp_RW	999	Rpleas_acq	CS_B	BZZB	YDDY	JXXJ	VKKV	MQQM	GWWG	spielen	fair	schön	retten	ehrlich	treu	strafen	faul	schlecht	rächen	eitel	tot	1	acq_USpleas_CSpleas2_RW	acq4567_RW	6	8	400	0	300	300	588	50	0	1	1	blank2r.bmp	0	1	+	0	1	blank2r.bmp	492	1	YDDY	492	1	blank2r.bmp	572	1	retten	866	1	!	1239	1	!	-1	0	0	0	0	0	0	0	0	0	0	0	0	0	0	0	0	0	0	0	0	0	0	0	0	0	0	0	0	0	0
070119	14:49:40	15:00:03	619605	5.0.10.0	5_exp_RW	999	Rpleas_acq	CS_B	BZZB	YDDY	JXXJ	VKKV	MQQM	GWWG	spielen	fair	schön	retten	ehrlich	treu	strafen	faul	schlecht	rächen	eitel	tot	1	acq_USunple_CSunple1_RW	acq4567_RW	6	9	400	1	300	300	457	46	0	1	1	blank2r.bmp	0	1	+	0	1	blank2r.bmp	492	1	JXXJ	492	1	blank2r.bmp	572	1	strafen	866	1	!	1239	1	!	1359	0	0	0	0	0	0	0	0	0	0	0	0	0	0	0	0	0	0	0	0	0	0	0	0	0	0	0	0	0	0
070119	14:49:40	15:00:05	621857	5.0.10.0	5_exp_RW	999	Rpleas_acq	CS_B	BZZB	YDDY	JXXJ	VKKV	MQQM	GWWG	spielen	fair	schön	retten	ehrlich	treu	strafen	faul	schlecht	rächen	eitel	tot	1	acq_USpleas_CSpleas1_RW	acq4567_RW	6	10	400	0	300	300	479	50	0	1	1	blank2r.bmp	0	1	+	0	1	blank2r.bmp	492	1	BZZB	492	1	blank2r.bmp	572	2	fair	866	1	!	1239	1	!	-1	0	0	0	0	0	0	0	0	0	0	0	0	0	0	0	0	0	0	0	0	0	0	0	0	0	0	0	0	0	0
070119	14:49:40	15:00:08	624056	5.0.10.0	5_exp_RW	999	Rpleas_acq	CS_B	BZZB	YDDY	JXXJ	VKKV	MQQM	GWWG	spielen	fair	schön	retten	ehrlich	treu	strafen	faul	schlecht	rächen	eitel	tot	1	acq_USpleas_CSpleas1_RW	acq4567_RW	6	11	400	1	300	300	394	50	0	1	1	blank2r.bmp	0	1	+	0	1	blank2r.bmp	492	1	BZZB	492	1	blank2r.bmp	572	3	schön	866	1	!	1239	1	!	1292	0	0	0	0	0	0	0	0	0	0	0	0	0	0	0	0	0	0	0	0	0	0	0	0	0	0	0	0	0	0
070119	14:49:40	15:00:10	626269	5.0.10.0	5_exp_RW	999	Rpleas_acq	CS_B	BZZB	YDDY	JXXJ	VKKV	MQQM	GWWG	spielen	fair	schön	retten	ehrlich	treu	strafen	faul	schlecht	rächen	eitel	tot	1	acq_USpleas_CSpleas2_RW	acq4567_RW	6	12	400	1	300	300	419	50	0	1	1	blank2r.bmp	0	1	+	0	1	blank2r.bmp	492	1	YDDY	492	1	blank2r.bmp	572	3	treu	866	1	!	1239	1	!	1319	0	0	0	0	0	0	0	0	0	0	0	0	0	0	0	0	0	0	0	0	0	0	0	0	0	0	0	0	0	0
070119	14:49:40	15:00:12	628521	5.0.10.0	5_exp_RW	999	Rpleas_acq	CS_B	BZZB	YDDY	JXXJ	VKKV	MQQM	GWWG	spielen	fair	schön	retten	ehrlich	treu	strafen	faul	schlecht	rächen	eitel	tot	1	acq_USpleas_CSpleas2_RW	acq4567_RW	6	13	400	0	300	300	479	50	0	1	1	blank2r.bmp	0	1	+	0	1	blank2r.bmp	492	1	YDDY	492	1	blank2r.bmp	572	1	retten	866	1	!	1239	1	!	-1	0	0	0	0	0	0	0	0	0	0	0	0	0	0	0	0	0	0	0	0	0	0	0	0	0	0	0	0	0	0
070119	14:49:40	15:00:14	630773	5.0.10.0	5_exp_RW	999	Rpleas_acq	CS_B	BZZB	YDDY	JXXJ	VKKV	MQQM	GWWG	spielen	fair	schön	retten	ehrlich	treu	strafen	faul	schlecht	rächen	eitel	tot	1	acq_USunple_CSunple2_RW	acq4567_RW	6	14	400	1	300	300	444	46	0	1	1	blank2r.bmp	0	1	+	0	1	blank2r.bmp	492	1	VKKV	492	1	blank2r.bmp	572	1	rächen	866	1	!	1239	1	!	1346	0	0	0	0	0	0	0	0	0	0	0	0	0	0	0	0	0	0	0	0	0	0	0	0	0	0	0	0	0	0
070119	14:49:40	15:00:17	632946	5.0.10.0	5_exp_RW	999	Rpleas_acq	CS_B	BZZB	YDDY	JXXJ	VKKV	MQQM	GWWG	spielen	fair	schön	retten	ehrlich	treu	strafen	faul	schlecht	rächen	eitel	tot	1	acq_USpleas_CSpleas1_RW	acq4567_RW	6	15	400	1	300	300	382	50	0	1	1	blank2r.bmp	0	1	+	0	1	blank2r.bmp	492	1	BZZB	492	1	blank2r.bmp	574	1	spielen	866	1	!	1239	1	!	1279	0	0	0	0	0	0	0	0	0	0	0	0	0	0	0	0	0	0	0	0	0	0	0	0	0	0	0	0	0	0
070119	14:49:40	15:00:19	635132	5.0.10.0	5_exp_RW	999	Rpleas_acq	CS_B	BZZB	YDDY	JXXJ	VKKV	MQQM	GWWG	spielen	fair	schön	retten	ehrlich	treu	strafen	faul	schlecht	rächen	eitel	tot	1	acq_USpleas_CSpleas1_RW	acq4567_RW	6	16	400	1	300	300	388	50	0	1	1	blank2r.bmp	0	1	+	0	1	blank2r.bmp	492	1	BZZB	492	1	blank2r.bmp	572	3	schön	866	1	!	1239	1	!	1292	0	0	0	0	0	0	0	0	0	0	0	0	0	0	0	0	0	0	0	0	0	0	0	0	0	0	0	0	0	0
070119	14:49:40	15:00:21	637291	5.0.10.0	5_exp_RW	999	Rpleas_acq	CS_B	BZZB	YDDY	JXXJ	VKKV	MQQM	GWWG	spielen	fair	schön	retten	ehrlich	treu	strafen	faul	schlecht	rächen	eitel	tot	1	acq_USunple_CSunple2_RW	acq4567_RW	6	17	400	1	300	300	363	46	0	1	1	blank2r.bmp	0	1	+	0	1	blank2r.bmp	492	1	VKKV	492	1	blank2r.bmp	572	3	tot	866	1	!	1239	1	!	1266	0	0	0	0	0	0	0	0	0	0	0	0	0	0	0	0	0	0	0	0	0	0	0	0	0	0	0	0	0	0
070119	14:49:40	15:00:23	639476	5.0.10.0	5_exp_RW	999	Rpleas_acq	CS_B	BZZB	YDDY	JXXJ	VKKV	MQQM	GWWG	spielen	fair	schön	retten	ehrlich	treu	strafen	faul	schlecht	rächen	eitel	tot	1	acq_USunple_CSunple2_RW	acq4567_RW	6	18	400	1	300	300	387	50	0	0	1	blank2r.bmp	0	1	+	0	1	blank2r.bmp	492	1	VKKV	492	1	blank2r.bmp	572	1	rächen	866	1	!	1239	1	!	1292	0	0	0	0	0	0	0	0	0	0	0	0	0	0	0	0	0	0	0	0	0	0	0	0	0	0	0	0	0	0
070119	14:49:40	15:00:25	641649	5.0.10.0	5_exp_RW	999	Rpleas_acq	CS_B	BZZB	YDDY	JXXJ	VKKV	MQQM	GWWG	spielen	fair	schön	retten	ehrlich	treu	strafen	faul	schlecht	rächen	eitel	tot	1	acq_USunple_CSunple1_RW	acq4567_RW	6	19	400	1	300	300	382	46	0	1	1	blank2r.bmp	0	1	+	0	1	blank2r.bmp	492	1	JXXJ	492	1	blank2r.bmp	572	2	faul	866	1	!	1239	1	!	1279	0	0	0	0	0	0	0	0	0	0	0	0	0	0	0	0	0	0	0	0	0	0	0	0	0	0	0	0	0	0
070119	14:49:40	15:00:27	643848	5.0.10.0	5_exp_RW	999	Rpleas_acq	CS_B	BZZB	YDDY	JXXJ	VKKV	MQQM	GWWG	spielen	fair	schön	retten	ehrlich	treu	strafen	faul	schlecht	rächen	eitel	tot	1	acq_USunple_CSunple1_RW	acq4567_RW	6	20	400	1	300	300	407	46	0	1	1	blank2r.bmp	0	1	+	0	1	blank2r.bmp	492	1	JXXJ	492	1	blank2r.bmp	572	3	schlecht	866	1	!	1239	1	!	1306	0	0	0	0	0	0	0	0	0	0	0	0	0	0	0	0	0	0	0	0	0	0	0	0	0	0	0	0	0	0