date	time	script.currenttime	script.elapsedtime	build	script.currentexpt	subject	expressions.LRpleas_acq	expressions.conditionCS_A	expressions.CSpleas_1	expressions.CSpleas_2	expressions.CSunple_1	expressions.CSunple_2	expressions.distractor_1	expressions.distractor_2	expressions.US_pleas1	expressions.US_pleas2	expressions.US_pleas3	expressions.US_pleas4	expressions.US_pleas5	expressions.US_pleas6	expressions.US_unple1	expressions.US_unple2	expressions.US_unple3	expressions.US_unple4	expressions.US_unple5	expressions.US_unple6	counter.positions_noRW	trialcode	blockcode	blocknum	trialnum	windowcenter	inwindow	pretrialpause	posttrialpause	latency	response	expressions.correctedscore	correct	stimulusnumber1	stimulusitem1	stimulusonset1	stimulusnumber2	stimulusitem2	stimulusonset2	stimulusnumber3	stimulusitem3	stimulusonset3	stimulusnumber4	stimulusitem4	stimulusonset4	stimulusnumber5	stimulusitem5	stimulusonset5	stimulusnumber6	stimulusitem6	stimulusonset6	stimulusnumber7	stimulusitem7	stimulusonset7	stimulusnumber8	stimulusitem8	stimulusonset8	stimulusnumber9	stimulusitem9	stimulusonset9	stimulusnumber10	stimulusitem10	stimulusonset10	stimulusnumber11	stimulusitem11	stimulusonset11	stimulusnumber12	stimulusitem12	stimulusonset12	stimulusnumber13	stimulusitem13	stimulusonset13	stimulusnumber14	stimulusitem14	stimulusonset14	stimulusnumber15	stimulusitem15	stimulusonset15	stimulusnumber16	stimulusitem16	stimulusonset16	stimulusnumber17	stimulusitem17	stimulusonset17	stimulusnumber18	stimulusitem18	stimulusonset18
072319	16:05:08	16:05:49	39938	5.0.10.0	5_exp_noRW	998	Rpleas_acq	CS_A	JQQJ	LWWL	YFFY	DXXD	ZHHZ	CPPC	sonnig	vertrauen	träumen	genießen	küssen	gütig	sterben	versagen	töten	gemein	krank	gierig	53pct	acq_USpleas_CSpleas2_noRW	acq1_noRW	1	1	0	0	300	300	600	50	0	1	1	blank2r.bmp	0	1	+	0	1	blank2r.bmp	252	1	LWWL	306	3	gütig	559	0	0	0	0	0	0	0	0	0	0	0	0	0	0	0	0	0	0	0	0	0	0	0	0	0	0	0	0	0	0	0	0	0	0	0	0	0	0	0
072319	16:05:08	16:05:51	41657	5.0.10.0	5_exp_noRW	998	Rpleas_acq	CS_A	JQQJ	LWWL	YFFY	DXXD	ZHHZ	CPPC	sonnig	vertrauen	träumen	genießen	küssen	gütig	sterben	versagen	töten	gemein	krank	gierig	47pct	acq_USunple_CSpleas2_noRW	acq1_noRW	1	2	0	0	300	300	554	46	0	1	1	blank2r.bmp	0	1	+	0	1	blank2r.bmp	252	1	LWWL	306	2	krank	559	0	0	0	0	0	0	0	0	0	0	0	0	0	0	0	0	0	0	0	0	0	0	0	0	0	0	0	0	0	0	0	0	0	0	0	0	0	0	0
072319	16:05:08	16:05:52	43243	5.0.10.0	5_exp_noRW	998	Rpleas_acq	CS_A	JQQJ	LWWL	YFFY	DXXD	ZHHZ	CPPC	sonnig	vertrauen	träumen	genießen	küssen	gütig	sterben	versagen	töten	gemein	krank	gierig	53pct	acq_USunple_CSunple2_noRW	acq1_noRW	1	3	0	0	300	300	412	46	0	1	1	blank2r.bmp	0	1	+	0	1	blank2r.bmp	253	1	DXXD	306	3	gierig	559	0	0	0	0	0	0	0	0	0	0	0	0	0	0	0	0	0	0	0	0	0	0	0	0	0	0	0	0	0	0	0	0	0	0	0	0	0	0	0
072319	16:05:08	16:05:54	45029	5.0.10.0	5_exp_noRW	998	Rpleas_acq	CS_A	JQQJ	LWWL	YFFY	DXXD	ZHHZ	CPPC	sonnig	vertrauen	träumen	genießen	küssen	gütig	sterben	versagen	töten	gemein	krank	gierig	53pct	acq_USunple_CSunple1_noRW	acq1_noRW	1	4	0	0	300	300	404	50	0	0	1	blank2r.bmp	0	1	+	0	1	blank2r.bmp	252	1	YFFY	306	1	sterben	559	1	FEHLER	999	0	0	0	0	0	0	0	0	0	0	0	0	0	0	0	0	0	0	0	0	0	0	0	0	0	0	0	0	0	0	0	0	0	0	0	0
072319	16:05:08	16:05:56	46389	5.0.10.0	5_exp_noRW	998	Rpleas_acq	CS_A	JQQJ	LWWL	YFFY	DXXD	ZHHZ	CPPC	sonnig	vertrauen	träumen	genießen	küssen	gütig	sterben	versagen	töten	gemein	krank	gierig	53pct	acq_USpleas_CSpleas1_noRW	acq1_noRW	1	5	0	0	300	300	406	50	0	1	1	blank2r.bmp	0	1	+	0	1	blank2r.bmp	252	1	JQQJ	306	3	träumen	559	0	0	0	0	0	0	0	0	0	0	0	0	0	0	0	0	0	0	0	0	0	0	0	0	0	0	0	0	0	0	0	0	0	0	0	0	0	0	0
072319	16:05:08	16:05:57	48055	5.0.10.0	5_exp_noRW	998	Rpleas_acq	CS_A	JQQJ	LWWL	YFFY	DXXD	ZHHZ	CPPC	sonnig	vertrauen	träumen	genießen	küssen	gütig	sterben	versagen	töten	gemein	krank	gierig	53pct	acq_USunple_CSunple1_noRW	acq1_noRW	1	6	0	0	300	300	498	46	0	1	1	blank2r.bmp	0	1	+	0	1	blank2r.bmp	252	1	YFFY	306	2	versagen	559	0	0	0	0	0	0	0	0	0	0	0	0	0	0	0	0	0	0	0	0	0	0	0	0	0	0	0	0	0	0	0	0	0	0	0	0	0	0	0
072319	16:05:08	16:05:59	49681	5.0.10.0	5_exp_noRW	998	Rpleas_acq	CS_A	JQQJ	LWWL	YFFY	DXXD	ZHHZ	CPPC	sonnig	vertrauen	träumen	genießen	küssen	gütig	sterben	versagen	töten	gemein	krank	gierig	53pct	acq_USunple_CSunple1_noRW	acq1_noRW	1	7	0	0	300	300	458	46	0	1	1	blank2r.bmp	0	1	+	0	1	blank2r.bmp	252	1	YFFY	306	3	töten	559	0	0	0	0	0	0	0	0	0	0	0	0	0	0	0	0	0	0	0	0	0	0	0	0	0	0	0	0	0	0	0	0	0	0	0	0	0	0	0
072319	16:05:08	16:06:01	51253	5.0.10.0	5_exp_noRW	998	Rpleas_acq	CS_A	JQQJ	LWWL	YFFY	DXXD	ZHHZ	CPPC	sonnig	vertrauen	träumen	genießen	küssen	gütig	sterben	versagen	töten	gemein	krank	gierig	53pct	acq_USunple_CSunple2_noRW	acq1_noRW	1	8	0	0	300	300	405	46	0	1	1	blank2r.bmp	0	1	+	0	1	blank2r.bmp	252	1	DXXD	306	2	krank	559	0	0	0	0	0	0	0	0	0	0	0	0	0	0	0	0	0	0	0	0	0	0	0	0	0	0	0	0	0	0	0	0	0	0	0	0	0	0	0
072319	16:05:08	16:06:02	53013	5.0.10.0	5_exp_noRW	998	Rpleas_acq	CS_A	JQQJ	LWWL	YFFY	DXXD	ZHHZ	CPPC	sonnig	vertrauen	träumen	genießen	küssen	gütig	sterben	versagen	töten	gemein	krank	gierig	47pct	acq_USunple_CSunple2_noRW	acq1_noRW	1	9	0	0	300	300	592	46	0	1	1	blank2r.bmp	0	1	+	0	1	blank2r.bmp	252	1	DXXD	306	1	gemein	559	0	0	0	0	0	0	0	0	0	0	0	0	0	0	0	0	0	0	0	0	0	0	0	0	0	0	0	0	0	0	0	0	0	0	0	0	0	0	0
072319	16:05:08	16:06:04	54719	5.0.10.0	5_exp_noRW	998	Rpleas_acq	CS_A	JQQJ	LWWL	YFFY	DXXD	ZHHZ	CPPC	sonnig	vertrauen	träumen	genießen	küssen	gütig	sterben	versagen	töten	gemein	krank	gierig	47pct	acq_USunple_CSpleas1_noRW	acq1_noRW	1	10	0	0	300	300	530	46	0	1	1	blank2r.bmp	0	1	+	0	1	blank2r.bmp	252	1	JQQJ	306	2	versagen	559	0	0	0	0	0	0	0	0	0	0	0	0	0	0	0	0	0	0	0	0	0	0	0	0	0	0	0	0	0	0	0	0	0	0	0	0	0	0	0
072319	16:05:08	16:06:06	56345	5.0.10.0	5_exp_noRW	998	Rpleas_acq	CS_A	JQQJ	LWWL	YFFY	DXXD	ZHHZ	CPPC	sonnig	vertrauen	träumen	genießen	küssen	gütig	sterben	versagen	töten	gemein	krank	gierig	47pct	acq_USpleas_CSpleas1_noRW	acq1_noRW	1	11	0	0	300	300	453	50	0	1	1	blank2r.bmp	0	1	+	0	1	blank2r.bmp	252	1	JQQJ	306	1	sonnig	559	0	0	0	0	0	0	0	0	0	0	0	0	0	0	0	0	0	0	0	0	0	0	0	0	0	0	0	0	0	0	0	0	0	0	0	0	0	0	0
072319	16:05:08	16:06:07	57944	5.0.10.0	5_exp_noRW	998	Rpleas_acq	CS_A	JQQJ	LWWL	YFFY	DXXD	ZHHZ	CPPC	sonnig	vertrauen	träumen	genießen	küssen	gütig	sterben	versagen	töten	gemein	krank	gierig	47pct	acq_USpleas_CSpleas1_noRW	acq1_noRW	1	12	0	0	300	300	427	50	0	1	1	blank2r.bmp	0	1	+	0	1	blank2r.bmp	252	1	JQQJ	306	2	vertrauen	559	0	0	0	0	0	0	0	0	0	0	0	0	0	0	0	0	0	0	0	0	0	0	0	0	0	0	0	0	0	0	0	0	0	0	0	0	0	0	0
072319	16:05:08	16:06:09	59837	5.0.10.0	5_exp_noRW	998	Rpleas_acq	CS_A	JQQJ	LWWL	YFFY	DXXD	ZHHZ	CPPC	sonnig	vertrauen	träumen	genießen	küssen	gütig	sterben	versagen	töten	gemein	krank	gierig	47pct	acq_USunple_CSunple1_noRW	acq1_noRW	1	13	0	0	300	300	512	50	0	0	1	blank2r.bmp	0	1	+	0	1	blank2r.bmp	252	1	YFFY	306	2	versagen	559	1	FEHLER	1106	0	0	0	0	0	0	0	0	0	0	0	0	0	0	0	0	0	0	0	0	0	0	0	0	0	0	0	0	0	0	0	0	0	0	0	0
072319	16:05:08	16:06:11	61303	5.0.10.0	5_exp_noRW	998	Rpleas_acq	CS_A	JQQJ	LWWL	YFFY	DXXD	ZHHZ	CPPC	sonnig	vertrauen	träumen	genießen	küssen	gütig	sterben	versagen	töten	gemein	krank	gierig	47pct	acq_USpleas_CSpleas2_noRW	acq1_noRW	1	14	0	0	300	300	510	50	0	1	1	blank2r.bmp	0	1	+	0	1	blank2r.bmp	252	1	LWWL	306	2	küssen	559	0	0	0	0	0	0	0	0	0	0	0	0	0	0	0	0	0	0	0	0	0	0	0	0	0	0	0	0	0	0	0	0	0	0	0	0	0	0	0
072319	16:05:08	16:06:12	62955	5.0.10.0	5_exp_noRW	998	Rpleas_acq	CS_A	JQQJ	LWWL	YFFY	DXXD	ZHHZ	CPPC	sonnig	vertrauen	träumen	genießen	küssen	gütig	sterben	versagen	töten	gemein	krank	gierig	53pct	acq_USunple_CSunple2_noRW	acq1_noRW	1	15	0	0	300	300	481	46	0	1	1	blank2r.bmp	0	1	+	0	1	blank2r.bmp	252	1	DXXD	306	2	krank	559	0	0	0	0	0	0	0	0	0	0	0	0	0	0	0	0	0	0	0	0	0	0	0	0	0	0	0	0	0	0	0	0	0	0	0	0	0	0	0
072319	16:05:08	16:06:14	64621	5.0.10.0	5_exp_noRW	998	Rpleas_acq	CS_A	JQQJ	LWWL	YFFY	DXXD	ZHHZ	CPPC	sonnig	vertrauen	träumen	genießen	küssen	gütig	sterben	versagen	töten	gemein	krank	gierig	53pct	acq_USpleas_CSpleas2_noRW	acq1_noRW	1	16	0	0	300	300	496	50	0	1	1	blank2r.bmp	0	1	+	0	1	blank2r.bmp	252	1	LWWL	306	1	genießen	571	0	0	0	0	0	0	0	0	0	0	0	0	0	0	0	0	0	0	0	0	0	0	0	0	0	0	0	0	0	0	0	0	0	0	0	0	0	0	0
072319	16:05:08	16:06:16	66287	5.0.10.0	5_exp_noRW	998	Rpleas_acq	CS_A	JQQJ	LWWL	YFFY	DXXD	ZHHZ	CPPC	sonnig	vertrauen	träumen	genießen	küssen	gütig	sterben	versagen	töten	gemein	krank	gierig	53pct	acq_USpleas_CSunple1_noRW	acq1_noRW	1	17	0	0	300	300	497	50	0	1	1	blank2r.bmp	0	1	+	0	1	blank2r.bmp	252	1	YFFY	306	2	vertrauen	560	0	0	0	0	0	0	0	0	0	0	0	0	0	0	0	0	0	0	0	0	0	0	0	0	0	0	0	0	0	0	0	0	0	0	0	0	0	0	0
072319	16:05:08	16:06:17	68087	5.0.10.0	5_exp_noRW	998	Rpleas_acq	CS_A	JQQJ	LWWL	YFFY	DXXD	ZHHZ	CPPC	sonnig	vertrauen	träumen	genießen	küssen	gütig	sterben	versagen	töten	gemein	krank	gierig	47pct	acq_USpleas_CSunple2_noRW	acq1_noRW	1	18	0	0	300	300	633	50	0	1	1	blank2r.bmp	0	1	+	0	1	blank2r.bmp	252	1	DXXD	306	3	gütig	559	0	0	0	0	0	0	0	0	0	0	0	0	0	0	0	0	0	0	0	0	0	0	0	0	0	0	0	0	0	0	0	0	0	0	0	0	0	0	0
072319	16:05:08	16:06:19	69886	5.0.10.0	5_exp_noRW	998	Rpleas_acq	CS_A	JQQJ	LWWL	YFFY	DXXD	ZHHZ	CPPC	sonnig	vertrauen	träumen	genießen	küssen	gütig	sterben	versagen	töten	gemein	krank	gierig	53pct	acq_USpleas_CSpleas2_noRW	acq1_noRW	1	19	0	0	300	300	637	50	0	1	1	blank2r.bmp	0	1	+	0	1	blank2r.bmp	252	1	LWWL	306	1	genießen	559	0	0	0	0	0	0	0	0	0	0	0	0	0	0	0	0	0	0	0	0	0	0	0	0	0	0	0	0	0	0	0	0	0	0	0	0	0	0	0
072319	16:05:08	16:06:21	71472	5.0.10.0	5_exp_noRW	998	Rpleas_acq	CS_A	JQQJ	LWWL	YFFY	DXXD	ZHHZ	CPPC	sonnig	vertrauen	träumen	genießen	küssen	gütig	sterben	versagen	töten	gemein	krank	gierig	47pct	acq_USpleas_CSpleas1_noRW	acq1_noRW	1	20	0	0	300	300	416	50	0	1	1	blank2r.bmp	0	1	+	0	1	blank2r.bmp	252	1	JQQJ	306	2	vertrauen	559	0	0	0	0	0	0	0	0	0	0	0	0	0	0	0	0	0	0	0	0	0	0	0	0	0	0	0	0	0	0	0	0	0	0	0	0	0	0	0
072319	16:05:08	16:06:22	73151	5.0.10.0	5_exp_noRW	998	Rpleas_acq	CS_A	JQQJ	LWWL	YFFY	DXXD	ZHHZ	CPPC	sonnig	vertrauen	träumen	genießen	küssen	gütig	sterben	versagen	töten	gemein	krank	gierig	53pct	acq_USunple_CSunple1_noRW	acq1_noRW	1	21	0	0	300	300	505	46	0	1	1	blank2r.bmp	0	1	+	0	1	blank2r.bmp	252	1	YFFY	306	1	sterben	559	0	0	0	0	0	0	0	0	0	0	0	0	0	0	0	0	0	0	0	0	0	0	0	0	0	0	0	0	0	0	0	0	0	0	0	0	0	0	0
072319	16:05:08	16:06:24	74750	5.0.10.0	5_exp_noRW	998	Rpleas_acq	CS_A	JQQJ	LWWL	YFFY	DXXD	ZHHZ	CPPC	sonnig	vertrauen	träumen	genießen	küssen	gütig	sterben	versagen	töten	gemein	krank	gierig	47pct	acq_USunple_CSunple1_noRW	acq1_noRW	1	22	0	0	300	300	424	46	0	1	1	blank2r.bmp	0	1	+	0	1	blank2r.bmp	252	1	YFFY	306	3	töten	559	0	0	0	0	0	0	0	0	0	0	0	0	0	0	0	0	0	0	0	0	0	0	0	0	0	0	0	0	0	0	0	0	0	0	0	0	0	0	0
072319	16:05:08	16:06:26	76363	5.0.10.0	5_exp_noRW	998	Rpleas_acq	CS_A	JQQJ	LWWL	YFFY	DXXD	ZHHZ	CPPC	sonnig	vertrauen	träumen	genießen	küssen	gütig	sterben	versagen	töten	gemein	krank	gierig	47pct	acq_USunple_CSunple1_noRW	acq1_noRW	1	23	0	0	300	300	437	46	0	1	1	blank2r.bmp	0	1	+	0	1	blank2r.bmp	252	1	YFFY	306	3	töten	559	0	0	0	0	0	0	0	0	0	0	0	0	0	0	0	0	0	0	0	0	0	0	0	0	0	0	0	0	0	0	0	0	0	0	0	0	0	0	0
072319	16:05:08	16:06:27	77923	5.0.10.0	5_exp_noRW	998	Rpleas_acq	CS_A	JQQJ	LWWL	YFFY	DXXD	ZHHZ	CPPC	sonnig	vertrauen	träumen	genießen	küssen	gütig	sterben	versagen	töten	gemein	krank	gierig	47pct	acq_USpleas_CSpleas1_noRW	acq1_noRW	1	24	0	0	300	300	410	50	0	1	1	blank2r.bmp	11	1	+	11	1	blank2r.bmp	252	1	JQQJ	306	1	sonnig	560	0	0	0	0	0	0	0	0	0	0	0	0	0	0	0	0	0	0	0	0	0	0	0	0	0	0	0	0	0	0	0	0	0	0	0	0	0	0	0
072319	16:05:08	16:06:29	79535	5.0.10.0	5_exp_noRW	998	Rpleas_acq	CS_A	JQQJ	LWWL	YFFY	DXXD	ZHHZ	CPPC	sonnig	vertrauen	träumen	genießen	küssen	gütig	sterben	versagen	töten	gemein	krank	gierig	53pct	acq_USpleas_CSunple2_noRW	acq1_noRW	1	25	0	0	300	300	444	50	0	1	1	blank2r.bmp	0	1	+	0	1	blank2r.bmp	253	1	DXXD	306	1	genießen	559	0	0	0	0	0	0	0	0	0	0	0	0	0	0	0	0	0	0	0	0	0	0	0	0	0	0	0	0	0	0	0	0	0	0	0	0	0	0	0
072319	16:05:08	16:06:30	81108	5.0.10.0	5_exp_noRW	998	Rpleas_acq	CS_A	JQQJ	LWWL	YFFY	DXXD	ZHHZ	CPPC	sonnig	vertrauen	träumen	genießen	küssen	gütig	sterben	versagen	töten	gemein	krank	gierig	53pct	acq_USpleas_CSpleas2_noRW	acq1_noRW	1	26	0	0	300	300	401	50	0	1	1	blank2r.bmp	0	1	+	0	1	blank2r.bmp	252	1	LWWL	306	2	küssen	559	0	0	0	0	0	0	0	0	0	0	0	0	0	0	0	0	0	0	0	0	0	0	0	0	0	0	0	0	0	0	0	0	0	0	0	0	0	0	0
072319	16:05:08	16:06:32	82787	5.0.10.0	5_exp_noRW	998	Rpleas_acq	CS_A	JQQJ	LWWL	YFFY	DXXD	ZHHZ	CPPC	sonnig	vertrauen	träumen	genießen	küssen	gütig	sterben	versagen	töten	gemein	krank	gierig	47pct	acq_USunple_CSunple2_noRW	acq1_noRW	1	27	0	0	300	300	518	46	0	1	1	blank2r.bmp	0	1	+	0	1	blank2r.bmp	252	1	DXXD	306	1	gemein	559	0	0	0	0	0	0	0	0	0	0	0	0	0	0	0	0	0	0	0	0	0	0	0	0	0	0	0	0	0	0	0	0	0	0	0	0	0	0	0
072319	16:05:08	16:06:34	84413	5.0.10.0	5_exp_noRW	998	Rpleas_acq	CS_A	JQQJ	LWWL	YFFY	DXXD	ZHHZ	CPPC	sonnig	vertrauen	träumen	genießen	küssen	gütig	sterben	versagen	töten	gemein	krank	gierig	53pct	acq_USpleas_CSpleas1_noRW	acq1_noRW	1	28	0	0	300	300	455	50	0	1	1	blank2r.bmp	0	1	+	0	1	blank2r.bmp	252	1	JQQJ	306	3	träumen	559	0	0	0	0	0	0	0	0	0	0	0	0	0	0	0	0	0	0	0	0	0	0	0	0	0	0	0	0	0	0	0	0	0	0	0	0	0	0	0
072319	16:05:08	16:06:35	86053	5.0.10.0	5_exp_noRW	998	Rpleas_acq	CS_A	JQQJ	LWWL	YFFY	DXXD	ZHHZ	CPPC	sonnig	vertrauen	träumen	genießen	küssen	gütig	sterben	versagen	töten	gemein	krank	gierig	47pct	acq_USpleas_CSpleas2_noRW	acq1_noRW	1	29	0	0	300	300	469	50	0	1	1	blank2r.bmp	0	1	+	0	1	blank2r.bmp	252	1	LWWL	306	3	gütig	559	0	0	0	0	0	0	0	0	0	0	0	0	0	0	0	0	0	0	0	0	0	0	0	0	0	0	0	0	0	0	0	0	0	0	0	0	0	0	0
072319	16:05:08	16:06:37	87825	5.0.10.0	5_exp_noRW	998	Rpleas_acq	CS_A	JQQJ	LWWL	YFFY	DXXD	ZHHZ	CPPC	sonnig	vertrauen	träumen	genießen	küssen	gütig	sterben	versagen	töten	gemein	krank	gierig	53pct	acq_USunple_CSunple2_noRW	acq1_noRW	1	30	0	0	300	300	384	50	0	0	1	blank2r.bmp	0	1	+	0	1	blank2r.bmp	252	1	DXXD	306	3	gierig	559	1	FEHLER	986	0	0	0	0	0	0	0	0	0	0	0	0	0	0	0	0	0	0	0	0	0	0	0	0	0	0	0	0	0	0	0	0	0	0	0	0
072319	16:05:08	16:06:38	89171	5.0.10.0	5_exp_noRW	998	Rpleas_acq	CS_A	JQQJ	LWWL	YFFY	DXXD	ZHHZ	CPPC	sonnig	vertrauen	träumen	genießen	küssen	gütig	sterben	versagen	töten	gemein	krank	gierig	53pct	acq_USpleas_CSpleas2_noRW	acq1_noRW	1	31	0	0	300	300	384	50	0	1	1	blank2r.bmp	0	1	+	0	1	blank2r.bmp	252	1	LWWL	306	2	küssen	559	0	0	0	0	0	0	0	0	0	0	0	0	0	0	0	0	0	0	0	0	0	0	0	0	0	0	0	0	0	0	0	0	0	0	0	0	0	0	0
072319	16:05:08	16:06:40	90731	5.0.10.0	5_exp_noRW	998	Rpleas_acq	CS_A	JQQJ	LWWL	YFFY	DXXD	ZHHZ	CPPC	sonnig	vertrauen	träumen	genießen	küssen	gütig	sterben	versagen	töten	gemein	krank	gierig	53pct	acq_USunple_CSpleas1_noRW	acq1_noRW	1	32	0	0	300	300	391	46	0	1	1	blank2r.bmp	0	1	+	0	1	blank2r.bmp	252	1	JQQJ	306	1	sterben	559	0	0	0	0	0	0	0	0	0	0	0	0	0	0	0	0	0	0	0	0	0	0	0	0	0	0	0	0	0	0	0	0	0	0	0	0	0	0	0
072319	16:05:08	16:06:42	92371	5.0.10.0	5_exp_noRW	998	Rpleas_acq	CS_A	JQQJ	LWWL	YFFY	DXXD	ZHHZ	CPPC	sonnig	vertrauen	träumen	genießen	küssen	gütig	sterben	versagen	töten	gemein	krank	gierig	47pct	acq_USpleas_CSpleas2_noRW	acq1_noRW	1	33	0	0	300	300	472	50	0	1	1	blank2r.bmp	0	1	+	0	1	blank2r.bmp	252	1	LWWL	306	1	genießen	559	0	0	0	0	0	0	0	0	0	0	0	0	0	0	0	0	0	0	0	0	0	0	0	0	0	0	0	0	0	0	0	0	0	0	0	0	0	0	0
072319	16:05:08	16:06:43	93929	5.0.10.0	5_exp_noRW	998	Rpleas_acq	CS_A	JQQJ	LWWL	YFFY	DXXD	ZHHZ	CPPC	sonnig	vertrauen	träumen	genießen	küssen	gütig	sterben	versagen	töten	gemein	krank	gierig	47pct	acq_USpleas_CSunple1_noRW	acq1_noRW	1	34	0	0	300	300	390	50	0	1	1	blank2r.bmp	0	1	+	0	1	blank2r.bmp	252	1	YFFY	306	1	sonnig	559	0	0	0	0	0	0	0	0	0	0	0	0	0	0	0	0	0	0	0	0	0	0	0	0	0	0	0	0	0	0	0	0	0	0	0	0	0	0	0
072319	16:05:08	16:06:45	95782	5.0.10.0	5_exp_noRW	998	Rpleas_acq	CS_A	JQQJ	LWWL	YFFY	DXXD	ZHHZ	CPPC	sonnig	vertrauen	träumen	genießen	küssen	gütig	sterben	versagen	töten	gemein	krank	gierig	53pct	acq_USunple_CSpleas2_noRW	acq1_noRW	1	35	0	0	300	300	470	50	0	0	1	blank2r.bmp	0	1	+	0	1	blank2r.bmp	253	1	LWWL	306	3	gierig	559	1	FEHLER	1066	0	0	0	0	0	0	0	0	0	0	0	0	0	0	0	0	0	0	0	0	0	0	0	0	0	0	0	0	0	0	0	0	0	0	0	0
072319	16:05:08	16:06:47	97261	5.0.10.0	5_exp_noRW	998	Rpleas_acq	CS_A	JQQJ	LWWL	YFFY	DXXD	ZHHZ	CPPC	sonnig	vertrauen	träumen	genießen	küssen	gütig	sterben	versagen	töten	gemein	krank	gierig	47pct	acq_USunple_CSunple1_noRW	acq1_noRW	1	36	0	0	300	300	519	46	0	1	1	blank2r.bmp	0	1	+	0	1	blank2r.bmp	252	1	YFFY	306	2	versagen	559	0	0	0	0	0	0	0	0	0	0	0	0	0	0	0	0	0	0	0	0	0	0	0	0	0	0	0	0	0	0	0	0	0	0	0	0	0	0	0
072319	16:05:08	16:06:48	98887	5.0.10.0	5_exp_noRW	998	Rpleas_acq	CS_A	JQQJ	LWWL	YFFY	DXXD	ZHHZ	CPPC	sonnig	vertrauen	träumen	genießen	küssen	gütig	sterben	versagen	töten	gemein	krank	gierig	53pct	acq_USunple_CSunple2_noRW	acq1_noRW	1	37	0	0	300	300	454	46	0	1	1	blank2r.bmp	0	1	+	0	1	blank2r.bmp	266	1	DXXD	306	3	gierig	559	0	0	0	0	0	0	0	0	0	0	0	0	0	0	0	0	0	0	0	0	0	0	0	0	0	0	0	0	0	0	0	0	0	0	0	0	0	0	0
072319	16:05:08	16:06:50	100514	5.0.10.0	5_exp_noRW	998	Rpleas_acq	CS_A	JQQJ	LWWL	YFFY	DXXD	ZHHZ	CPPC	sonnig	vertrauen	träumen	genießen	küssen	gütig	sterben	versagen	töten	gemein	krank	gierig	53pct	acq_USpleas_CSpleas1_noRW	acq1_noRW	1	38	0	0	300	300	464	50	0	1	1	blank2r.bmp	0	1	+	0	1	blank2r.bmp	252	1	JQQJ	306	3	träumen	560	0	0	0	0	0	0	0	0	0	0	0	0	0	0	0	0	0	0	0	0	0	0	0	0	0	0	0	0	0	0	0	0	0	0	0	0	0	0	0
072319	16:05:08	16:06:51	102206	5.0.10.0	5_exp_noRW	998	Rpleas_acq	CS_A	JQQJ	LWWL	YFFY	DXXD	ZHHZ	CPPC	sonnig	vertrauen	träumen	genießen	küssen	gütig	sterben	versagen	töten	gemein	krank	gierig	53pct	acq_USpleas_CSpleas1_noRW	acq1_noRW	1	39	0	0	300	300	511	50	0	1	1	blank2r.bmp	0	1	+	0	1	blank2r.bmp	252	1	JQQJ	306	2	vertrauen	559	0	0	0	0	0	0	0	0	0	0	0	0	0	0	0	0	0	0	0	0	0	0	0	0	0	0	0	0	0	0	0	0	0	0	0	0	0	0	0
072319	16:05:08	16:06:53	103939	5.0.10.0	5_exp_noRW	998	Rpleas_acq	CS_A	JQQJ	LWWL	YFFY	DXXD	ZHHZ	CPPC	sonnig	vertrauen	träumen	genießen	küssen	gütig	sterben	versagen	töten	gemein	krank	gierig	53pct	acq_USunple_CSunple2_noRW	acq1_noRW	1	40	0	0	300	300	569	46	0	1	1	blank2r.bmp	0	1	+	0	1	blank2r.bmp	252	1	DXXD	306	2	krank	559	0	0	0	0	0	0	0	0	0	0	0	0	0	0	0	0	0	0	0	0	0	0	0	0	0	0	0	0	0	0	0	0	0	0	0	0	0	0	0
072319	16:05:08	16:06:55	105511	5.0.10.0	5_exp_noRW	998	Rpleas_acq	CS_A	JQQJ	LWWL	YFFY	DXXD	ZHHZ	CPPC	sonnig	vertrauen	träumen	genießen	küssen	gütig	sterben	versagen	töten	gemein	krank	gierig	53pct	acq_USunple_CSunple1_noRW	acq1_noRW	1	41	0	0	300	300	399	46	0	1	1	blank2r.bmp	0	1	+	0	1	blank2r.bmp	252	1	YFFY	306	1	sterben	559	0	0	0	0	0	0	0	0	0	0	0	0	0	0	0	0	0	0	0	0	0	0	0	0	0	0	0	0	0	0	0	0	0	0	0	0	0	0	0
072319	16:05:08	16:06:56	107124	5.0.10.0	5_exp_noRW	998	Rpleas_acq	CS_A	JQQJ	LWWL	YFFY	DXXD	ZHHZ	CPPC	sonnig	vertrauen	träumen	genießen	küssen	gütig	sterben	versagen	töten	gemein	krank	gierig	47pct	acq_USpleas_CSunple2_noRW	acq1_noRW	1	42	0	0	300	300	444	50	0	1	1	blank2r.bmp	0	1	+	0	1	blank2r.bmp	253	1	DXXD	306	2	küssen	559	0	0	0	0	0	0	0	0	0	0	0	0	0	0	0	0	0	0	0	0	0	0	0	0	0	0	0	0	0	0	0	0	0	0	0	0	0	0	0
072319	16:05:08	16:06:58	108870	5.0.10.0	5_exp_noRW	998	Rpleas_acq	CS_A	JQQJ	LWWL	YFFY	DXXD	ZHHZ	CPPC	sonnig	vertrauen	träumen	genießen	küssen	gütig	sterben	versagen	töten	gemein	krank	gierig	47pct	acq_USunple_CSunple2_noRW	acq1_noRW	1	43	0	0	300	300	576	46	0	1	1	blank2r.bmp	0	1	+	0	1	blank2r.bmp	252	1	DXXD	306	1	gemein	559	0	0	0	0	0	0	0	0	0	0	0	0	0	0	0	0	0	0	0	0	0	0	0	0	0	0	0	0	0	0	0	0	0	0	0	0	0	0	0
072319	16:05:08	16:07:00	110403	5.0.10.0	5_exp_noRW	998	Rpleas_acq	CS_A	JQQJ	LWWL	YFFY	DXXD	ZHHZ	CPPC	sonnig	vertrauen	träumen	genießen	küssen	gütig	sterben	versagen	töten	gemein	krank	gierig	53pct	acq_USunple_CSunple2_noRW	acq1_noRW	1	44	0	0	300	300	363	46	0	1	1	blank2r.bmp	0	1	+	0	1	blank2r.bmp	252	1	DXXD	306	3	gierig	559	0	0	0	0	0	0	0	0	0	0	0	0	0	0	0	0	0	0	0	0	0	0	0	0	0	0	0	0	0	0	0	0	0	0	0	0	0	0	0
072319	16:05:08	16:07:01	112002	5.0.10.0	5_exp_noRW	998	Rpleas_acq	CS_A	JQQJ	LWWL	YFFY	DXXD	ZHHZ	CPPC	sonnig	vertrauen	träumen	genießen	küssen	gütig	sterben	versagen	töten	gemein	krank	gierig	47pct	acq_USunple_CSpleas1_noRW	acq1_noRW	1	45	0	0	300	300	426	46	0	1	1	blank2r.bmp	0	1	+	0	1	blank2r.bmp	252	1	JQQJ	306	3	töten	559	0	0	0	0	0	0	0	0	0	0	0	0	0	0	0	0	0	0	0	0	0	0	0	0	0	0	0	0	0	0	0	0	0	0	0	0	0	0	0
072319	16:05:08	16:07:03	113668	5.0.10.0	5_exp_noRW	998	Rpleas_acq	CS_A	JQQJ	LWWL	YFFY	DXXD	ZHHZ	CPPC	sonnig	vertrauen	träumen	genießen	küssen	gütig	sterben	versagen	töten	gemein	krank	gierig	53pct	acq_USunple_CSunple1_noRW	acq1_noRW	1	46	0	0	300	300	500	46	0	1	1	blank2r.bmp	0	1	+	0	1	blank2r.bmp	252	1	YFFY	306	3	töten	559	0	0	0	0	0	0	0	0	0	0	0	0	0	0	0	0	0	0	0	0	0	0	0	0	0	0	0	0	0	0	0	0	0	0	0	0	0	0	0
072319	16:05:08	16:07:05	115307	5.0.10.0	5_exp_noRW	998	Rpleas_acq	CS_A	JQQJ	LWWL	YFFY	DXXD	ZHHZ	CPPC	sonnig	vertrauen	träumen	genießen	küssen	gütig	sterben	versagen	töten	gemein	krank	gierig	53pct	acq_USpleas_CSpleas2_noRW	acq1_noRW	1	47	0	0	300	300	473	50	0	1	1	blank2r.bmp	0	1	+	0	1	blank2r.bmp	252	1	LWWL	306	3	gütig	559	0	0	0	0	0	0	0	0	0	0	0	0	0	0	0	0	0	0	0	0	0	0	0	0	0	0	0	0	0	0	0	0	0	0	0	0	0	0	0
072319	16:05:08	16:07:06	116853	5.0.10.0	5_exp_noRW	998	Rpleas_acq	CS_A	JQQJ	LWWL	YFFY	DXXD	ZHHZ	CPPC	sonnig	vertrauen	träumen	genießen	küssen	gütig	sterben	versagen	töten	gemein	krank	gierig	53pct	acq_USunple_CSunple1_noRW	acq1_noRW	1	48	0	0	300	300	367	46	0	1	1	blank2r.bmp	0	1	+	0	1	blank2r.bmp	252	1	YFFY	306	2	versagen	559	0	0	0	0	0	0	0	0	0	0	0	0	0	0	0	0	0	0	0	0	0	0	0	0	0	0	0	0	0	0	0	0	0	0	0	0	0	0	0
072319	16:05:08	16:07:08	118439	5.0.10.0	5_exp_noRW	998	Rpleas_acq	CS_A	JQQJ	LWWL	YFFY	DXXD	ZHHZ	CPPC	sonnig	vertrauen	träumen	genießen	küssen	gütig	sterben	versagen	töten	gemein	krank	gierig	47pct	acq_USunple_CSunple2_noRW	acq1_noRW	1	49	0	0	300	300	414	46	0	1	1	blank2r.bmp	0	1	+	0	1	blank2r.bmp	252	1	DXXD	306	2	krank	559	0	0	0	0	0	0	0	0	0	0	0	0	0	0	0	0	0	0	0	0	0	0	0	0	0	0	0	0	0	0	0	0	0	0	0	0	0	0	0
072319	16:05:08	16:07:09	119999	5.0.10.0	5_exp_noRW	998	Rpleas_acq	CS_A	JQQJ	LWWL	YFFY	DXXD	ZHHZ	CPPC	sonnig	vertrauen	träumen	genießen	küssen	gütig	sterben	versagen	töten	gemein	krank	gierig	53pct	acq_USpleas_CSpleas1_noRW	acq1_noRW	1	50	0	0	300	300	384	50	0	1	1	blank2r.bmp	0	1	+	0	1	blank2r.bmp	252	1	JQQJ	306	1	sonnig	559	0	0	0	0	0	0	0	0	0	0	0	0	0	0	0	0	0	0	0	0	0	0	0	0	0	0	0	0	0	0	0	0	0	0	0	0	0	0	0
072319	16:05:08	16:07:11	121625	5.0.10.0	5_exp_noRW	998	Rpleas_acq	CS_A	JQQJ	LWWL	YFFY	DXXD	ZHHZ	CPPC	sonnig	vertrauen	träumen	genießen	küssen	gütig	sterben	versagen	töten	gemein	krank	gierig	53pct	acq_USpleas_CSpleas1_noRW	acq1_noRW	1	51	0	0	300	300	460	50	0	1	1	blank2r.bmp	0	1	+	0	1	blank2r.bmp	252	1	JQQJ	306	3	träumen	559	0	0	0	0	0	0	0	0	0	0	0	0	0	0	0	0	0	0	0	0	0	0	0	0	0	0	0	0	0	0	0	0	0	0	0	0	0	0	0
072319	16:05:08	16:07:12	123224	5.0.10.0	5_exp_noRW	998	Rpleas_acq	CS_A	JQQJ	LWWL	YFFY	DXXD	ZHHZ	CPPC	sonnig	vertrauen	träumen	genießen	küssen	gütig	sterben	versagen	töten	gemein	krank	gierig	53pct	acq_USunple_CSunple2_noRW	acq1_noRW	1	52	0	0	300	300	429	46	0	1	1	blank2r.bmp	0	1	+	0	1	blank2r.bmp	252	1	DXXD	306	1	gemein	559	0	0	0	0	0	0	0	0	0	0	0	0	0	0	0	0	0	0	0	0	0	0	0	0	0	0	0	0	0	0	0	0	0	0	0	0	0	0	0
072319	16:05:08	16:07:14	124810	5.0.10.0	5_exp_noRW	998	Rpleas_acq	CS_A	JQQJ	LWWL	YFFY	DXXD	ZHHZ	CPPC	sonnig	vertrauen	träumen	genießen	küssen	gütig	sterben	versagen	töten	gemein	krank	gierig	53pct	acq_USpleas_CSpleas1_noRW	acq1_noRW	1	53	0	0	300	300	421	50	0	1	1	blank2r.bmp	0	1	+	0	1	blank2r.bmp	252	1	JQQJ	306	2	vertrauen	559	0	0	0	0	0	0	0	0	0	0	0	0	0	0	0	0	0	0	0	0	0	0	0	0	0	0	0	0	0	0	0	0	0	0	0	0	0	0	0
072319	16:05:08	16:07:16	126463	5.0.10.0	5_exp_noRW	998	Rpleas_acq	CS_A	JQQJ	LWWL	YFFY	DXXD	ZHHZ	CPPC	sonnig	vertrauen	träumen	genießen	küssen	gütig	sterben	versagen	töten	gemein	krank	gierig	47pct	acq_USpleas_CSunple1_noRW	acq1_noRW	1	54	0	0	300	300	489	50	0	1	1	blank2r.bmp	0	1	+	0	1	blank2r.bmp	252	1	YFFY	306	3	träumen	559	0	0	0	0	0	0	0	0	0	0	0	0	0	0	0	0	0	0	0	0	0	0	0	0	0	0	0	0	0	0	0	0	0	0	0	0	0	0	0
072319	16:05:08	16:07:17	128089	5.0.10.0	5_exp_noRW	998	Rpleas_acq	CS_A	JQQJ	LWWL	YFFY	DXXD	ZHHZ	CPPC	sonnig	vertrauen	träumen	genießen	küssen	gütig	sterben	versagen	töten	gemein	krank	gierig	47pct	acq_USpleas_CSpleas2_noRW	acq1_noRW	1	55	0	0	300	300	458	50	0	1	1	blank2r.bmp	0	1	+	0	1	blank2r.bmp	252	1	LWWL	306	2	küssen	559	0	0	0	0	0	0	0	0	0	0	0	0	0	0	0	0	0	0	0	0	0	0	0	0	0	0	0	0	0	0	0	0	0	0	0	0	0	0	0
072319	16:05:08	16:07:19	129635	5.0.10.0	5_exp_noRW	998	Rpleas_acq	CS_A	JQQJ	LWWL	YFFY	DXXD	ZHHZ	CPPC	sonnig	vertrauen	träumen	genießen	küssen	gütig	sterben	versagen	töten	gemein	krank	gierig	47pct	acq_USunple_CSunple1_noRW	acq1_noRW	1	56	0	0	300	300	373	46	0	1	1	blank2r.bmp	0	1	+	0	1	blank2r.bmp	252	1	YFFY	306	1	sterben	560	0	0	0	0	0	0	0	0	0	0	0	0	0	0	0	0	0	0	0	0	0	0	0	0	0	0	0	0	0	0	0	0	0	0	0	0	0	0	0
072319	16:05:08	16:07:21	131354	5.0.10.0	5_exp_noRW	998	Rpleas_acq	CS_A	JQQJ	LWWL	YFFY	DXXD	ZHHZ	CPPC	sonnig	vertrauen	träumen	genießen	küssen	gütig	sterben	versagen	töten	gemein	krank	gierig	53pct	acq_USpleas_CSpleas2_noRW	acq1_noRW	1	57	0	0	300	300	557	50	0	1	1	blank2r.bmp	0	1	+	0	1	blank2r.bmp	252	1	LWWL	306	3	gütig	559	0	0	0	0	0	0	0	0	0	0	0	0	0	0	0	0	0	0	0	0	0	0	0	0	0	0	0	0	0	0	0	0	0	0	0	0	0	0	0
072319	16:05:08	16:07:22	133113	5.0.10.0	5_exp_noRW	998	Rpleas_acq	CS_A	JQQJ	LWWL	YFFY	DXXD	ZHHZ	CPPC	sonnig	vertrauen	träumen	genießen	küssen	gütig	sterben	versagen	töten	gemein	krank	gierig	53pct	acq_USunple_CSpleas2_noRW	acq1_noRW	1	58	0	0	300	300	371	50	0	0	1	blank2r.bmp	0	1	+	0	1	blank2r.bmp	252	1	LWWL	306	1	gemein	559	1	FEHLER	959	0	0	0	0	0	0	0	0	0	0	0	0	0	0	0	0	0	0	0	0	0	0	0	0	0	0	0	0	0	0	0	0	0	0	0	0
072319	16:05:08	16:07:24	134500	5.0.10.0	5_exp_noRW	998	Rpleas_acq	CS_A	JQQJ	LWWL	YFFY	DXXD	ZHHZ	CPPC	sonnig	vertrauen	träumen	genießen	küssen	gütig	sterben	versagen	töten	gemein	krank	gierig	47pct	acq_USpleas_CSpleas2_noRW	acq1_noRW	1	59	0	0	300	300	413	50	0	1	1	blank2r.bmp	0	1	+	0	1	blank2r.bmp	252	1	LWWL	306	1	genießen	559	0	0	0	0	0	0	0	0	0	0	0	0	0	0	0	0	0	0	0	0	0	0	0	0	0	0	0	0	0	0	0	0	0	0	0	0	0	0	0
072319	16:05:08	16:07:25	136085	5.0.10.0	5_exp_noRW	998	Rpleas_acq	CS_A	JQQJ	LWWL	YFFY	DXXD	ZHHZ	CPPC	sonnig	vertrauen	träumen	genießen	küssen	gütig	sterben	versagen	töten	gemein	krank	gierig	53pct	acq_USpleas_CSpleas1_noRW	acq1_noRW	1	60	0	0	300	300	421	50	0	1	1	blank2r.bmp	0	1	+	0	1	blank2r.bmp	252	1	JQQJ	306	1	sonnig	559	0	0	0	0	0	0	0	0	0	0	0	0	0	0	0	0	0	0	0	0	0	0	0	0	0	0	0	0	0	0	0	0	0	0	0	0	0	0	0
072319	16:05:08	16:07:27	137672	5.0.10.0	5_exp_noRW	998	Rpleas_acq	CS_A	JQQJ	LWWL	YFFY	DXXD	ZHHZ	CPPC	sonnig	vertrauen	träumen	genießen	küssen	gütig	sterben	versagen	töten	gemein	krank	gierig	47pct	acq_USpleas_CSpleas1_noRW	acq1_noRW	1	61	0	0	300	300	414	50	0	1	1	blank2r.bmp	0	1	+	0	1	blank2r.bmp	252	1	JQQJ	306	3	träumen	559	0	0	0	0	0	0	0	0	0	0	0	0	0	0	0	0	0	0	0	0	0	0	0	0	0	0	0	0	0	0	0	0	0	0	0	0	0	0	0
072319	16:05:08	16:07:28	139204	5.0.10.0	5_exp_noRW	998	Rpleas_acq	CS_A	JQQJ	LWWL	YFFY	DXXD	ZHHZ	CPPC	sonnig	vertrauen	träumen	genießen	küssen	gütig	sterben	versagen	töten	gemein	krank	gierig	53pct	acq_USpleas_CSpleas2_noRW	acq1_noRW	1	62	0	0	300	300	362	50	0	1	1	blank2r.bmp	0	1	+	0	1	blank2r.bmp	252	1	LWWL	306	2	küssen	559	0	0	0	0	0	0	0	0	0	0	0	0	0	0	0	0	0	0	0	0	0	0	0	0	0	0	0	0	0	0	0	0	0	0	0	0	0	0	0
072319	16:05:08	16:07:30	140884	5.0.10.0	5_exp_noRW	998	Rpleas_acq	CS_A	JQQJ	LWWL	YFFY	DXXD	ZHHZ	CPPC	sonnig	vertrauen	träumen	genießen	küssen	gütig	sterben	versagen	töten	gemein	krank	gierig	47pct	acq_USunple_CSunple1_noRW	acq1_noRW	1	63	0	0	300	300	504	46	0	1	1	blank2r.bmp	0	1	+	0	1	blank2r.bmp	252	1	YFFY	306	1	sterben	559	0	0	0	0	0	0	0	0	0	0	0	0	0	0	0	0	0	0	0	0	0	0	0	0	0	0	0	0	0	0	0	0	0	0	0	0	0	0	0
072319	16:05:08	16:07:32	142470	5.0.10.0	5_exp_noRW	998	Rpleas_acq	CS_A	JQQJ	LWWL	YFFY	DXXD	ZHHZ	CPPC	sonnig	vertrauen	träumen	genießen	küssen	gütig	sterben	versagen	töten	gemein	krank	gierig	47pct	acq_USpleas_CSpleas1_noRW	acq1_noRW	1	64	0	0	300	300	416	50	0	1	1	blank2r.bmp	11	1	+	11	1	blank2r.bmp	252	1	JQQJ	306	2	vertrauen	559	0	0	0	0	0	0	0	0	0	0	0	0	0	0	0	0	0	0	0	0	0	0	0	0	0	0	0	0	0	0	0	0	0	0	0	0	0	0	0
072319	16:05:08	16:07:33	144216	5.0.10.0	5_exp_noRW	998	Rpleas_acq	CS_A	JQQJ	LWWL	YFFY	DXXD	ZHHZ	CPPC	sonnig	vertrauen	träumen	genießen	küssen	gütig	sterben	versagen	töten	gemein	krank	gierig	47pct	acq_USunple_CSunple2_noRW	acq1_noRW	1	65	0	0	300	300	573	46	0	1	1	blank2r.bmp	0	1	+	0	1	blank2r.bmp	252	1	DXXD	306	3	gierig	560	0	0	0	0	0	0	0	0	0	0	0	0	0	0	0	0	0	0	0	0	0	0	0	0	0	0	0	0	0	0	0	0	0	0	0	0	0	0	0
072319	16:05:08	16:07:35	145802	5.0.10.0	5_exp_noRW	998	Rpleas_acq	CS_A	JQQJ	LWWL	YFFY	DXXD	ZHHZ	CPPC	sonnig	vertrauen	träumen	genießen	küssen	gütig	sterben	versagen	töten	gemein	krank	gierig	47pct	acq_USpleas_CSpleas1_noRW	acq1_noRW	1	66	0	0	300	300	420	50	0	1	1	blank2r.bmp	13	1	+	13	1	blank2r.bmp	252	1	JQQJ	306	1	sonnig	559	0	0	0	0	0	0	0	0	0	0	0	0	0	0	0	0	0	0	0	0	0	0	0	0	0	0	0	0	0	0	0	0	0	0	0	0	0	0	0
072319	16:05:08	16:07:37	147428	5.0.10.0	5_exp_noRW	998	Rpleas_acq	CS_A	JQQJ	LWWL	YFFY	DXXD	ZHHZ	CPPC	sonnig	vertrauen	träumen	genießen	küssen	gütig	sterben	versagen	töten	gemein	krank	gierig	47pct	acq_USunple_CSunple2_noRW	acq1_noRW	1	67	0	0	300	300	460	46	0	1	1	blank2r.bmp	0	1	+	0	1	blank2r.bmp	252	1	DXXD	307	2	krank	559	0	0	0	0	0	0	0	0	0	0	0	0	0	0	0	0	0	0	0	0	0	0	0	0	0	0	0	0	0	0	0	0	0	0	0	0	0	0	0
072319	16:05:08	16:07:38	148920	5.0.10.0	5_exp_noRW	998	Rpleas_acq	CS_A	JQQJ	LWWL	YFFY	DXXD	ZHHZ	CPPC	sonnig	vertrauen	träumen	genießen	küssen	gütig	sterben	versagen	töten	gemein	krank	gierig	53pct	acq_USpleas_CSunple1_noRW	acq1_noRW	1	68	0	0	300	300	326	50	0	1	1	blank2r.bmp	0	1	+	0	1	blank2r.bmp	252	1	YFFY	306	1	sonnig	559	0	0	0	0	0	0	0	0	0	0	0	0	0	0	0	0	0	0	0	0	0	0	0	0	0	0	0	0	0	0	0	0	0	0	0	0	0	0	0
072319	16:05:08	16:07:40	150733	5.0.10.0	5_exp_noRW	998	Rpleas_acq	CS_A	JQQJ	LWWL	YFFY	DXXD	ZHHZ	CPPC	sonnig	vertrauen	träumen	genießen	küssen	gütig	sterben	versagen	töten	gemein	krank	gierig	53pct	acq_USunple_CSunple2_noRW	acq1_noRW	1	69	0	0	300	300	639	46	0	1	1	blank2r.bmp	0	1	+	0	1	blank2r.bmp	252	1	DXXD	306	1	gemein	559	0	0	0	0	0	0	0	0	0	0	0	0	0	0	0	0	0	0	0	0	0	0	0	0	0	0	0	0	0	0	0	0	0	0	0	0	0	0	0
072319	16:05:08	16:07:42	152399	5.0.10.0	5_exp_noRW	998	Rpleas_acq	CS_A	JQQJ	LWWL	YFFY	DXXD	ZHHZ	CPPC	sonnig	vertrauen	träumen	genießen	küssen	gütig	sterben	versagen	töten	gemein	krank	gierig	47pct	acq_USpleas_CSpleas1_noRW	acq1_noRW	1	70	0	0	300	300	497	50	0	1	1	blank2r.bmp	0	1	+	0	1	blank2r.bmp	252	1	JQQJ	306	2	vertrauen	559	0	0	0	0	0	0	0	0	0	0	0	0	0	0	0	0	0	0	0	0	0	0	0	0	0	0	0	0	0	0	0	0	0	0	0	0	0	0	0
072319	16:05:08	16:07:44	154398	5.0.10.0	5_exp_noRW	998	Rpleas_acq	CS_A	JQQJ	LWWL	YFFY	DXXD	ZHHZ	CPPC	sonnig	vertrauen	träumen	genießen	küssen	gütig	sterben	versagen	töten	gemein	krank	gierig	53pct	acq_USpleas_CSpleas2_noRW	acq1_noRW	1	71	0	0	300	300	832	50	0	1	1	blank2r.bmp	0	1	+	0	1	blank2r.bmp	252	1	LWWL	306	1	genießen	559	0	0	0	0	0	0	0	0	0	0	0	0	0	0	0	0	0	0	0	0	0	0	0	0	0	0	0	0	0	0	0	0	0	0	0	0	0	0	0
072319	16:05:08	16:07:45	156091	5.0.10.0	5_exp_noRW	998	Rpleas_acq	CS_A	JQQJ	LWWL	YFFY	DXXD	ZHHZ	CPPC	sonnig	vertrauen	träumen	genießen	küssen	gütig	sterben	versagen	töten	gemein	krank	gierig	53pct	acq_USunple_CSpleas2_noRW	acq1_noRW	1	72	0	0	300	300	520	46	0	1	1	blank2r.bmp	0	1	+	0	1	blank2r.bmp	252	1	LWWL	306	3	gierig	559	0	0	0	0	0	0	0	0	0	0	0	0	0	0	0	0	0	0	0	0	0	0	0	0	0	0	0	0	0	0	0	0	0	0	0	0	0	0	0
072319	16:05:08	16:07:47	157743	5.0.10.0	5_exp_noRW	998	Rpleas_acq	CS_A	JQQJ	LWWL	YFFY	DXXD	ZHHZ	CPPC	sonnig	vertrauen	träumen	genießen	küssen	gütig	sterben	versagen	töten	gemein	krank	gierig	47pct	acq_USunple_CSunple1_noRW	acq1_noRW	1	73	0	0	300	300	490	46	0	1	1	blank2r.bmp	0	1	+	0	1	blank2r.bmp	253	1	YFFY	306	2	versagen	559	0	0	0	0	0	0	0	0	0	0	0	0	0	0	0	0	0	0	0	0	0	0	0	0	0	0	0	0	0	0	0	0	0	0	0	0	0	0	0
072319	16:05:08	16:07:49	159329	5.0.10.0	5_exp_noRW	998	Rpleas_acq	CS_A	JQQJ	LWWL	YFFY	DXXD	ZHHZ	CPPC	sonnig	vertrauen	träumen	genießen	küssen	gütig	sterben	versagen	töten	gemein	krank	gierig	47pct	acq_USunple_CSunple1_noRW	acq1_noRW	1	74	0	0	300	300	420	46	0	1	1	blank2r.bmp	0	1	+	0	1	blank2r.bmp	252	1	YFFY	306	3	töten	559	0	0	0	0	0	0	0	0	0	0	0	0	0	0	0	0	0	0	0	0	0	0	0	0	0	0	0	0	0	0	0	0	0	0	0	0	0	0	0
072319	16:05:08	16:07:50	161035	5.0.10.0	5_exp_noRW	998	Rpleas_acq	CS_A	JQQJ	LWWL	YFFY	DXXD	ZHHZ	CPPC	sonnig	vertrauen	träumen	genießen	küssen	gütig	sterben	versagen	töten	gemein	krank	gierig	47pct	acq_USpleas_CSpleas2_noRW	acq1_noRW	1	75	0	0	300	300	538	50	0	1	1	blank2r.bmp	0	1	+	0	1	blank2r.bmp	252	1	LWWL	306	3	gütig	559	0	0	0	0	0	0	0	0	0	0	0	0	0	0	0	0	0	0	0	0	0	0	0	0	0	0	0	0	0	0	0	0	0	0	0	0	0	0	0
072319	16:05:08	16:07:52	162581	5.0.10.0	5_exp_noRW	998	Rpleas_acq	CS_A	JQQJ	LWWL	YFFY	DXXD	ZHHZ	CPPC	sonnig	vertrauen	träumen	genießen	küssen	gütig	sterben	versagen	töten	gemein	krank	gierig	47pct	acq_USunple_CSunple1_noRW	acq1_noRW	1	76	0	0	300	300	375	46	0	1	1	blank2r.bmp	0	1	+	0	1	blank2r.bmp	252	1	YFFY	306	2	versagen	559	0	0	0	0	0	0	0	0	0	0	0	0	0	0	0	0	0	0	0	0	0	0	0	0	0	0	0	0	0	0	0	0	0	0	0	0	0	0	0
072319	16:05:08	16:07:54	164341	5.0.10.0	5_exp_noRW	998	Rpleas_acq	CS_A	JQQJ	LWWL	YFFY	DXXD	ZHHZ	CPPC	sonnig	vertrauen	träumen	genießen	küssen	gütig	sterben	versagen	töten	gemein	krank	gierig	53pct	acq_USunple_CSunple2_noRW	acq1_noRW	1	77	0	0	300	300	587	46	0	1	1	blank2r.bmp	2	1	+	2	1	blank2r.bmp	252	1	DXXD	306	1	gemein	559	0	0	0	0	0	0	0	0	0	0	0	0	0	0	0	0	0	0	0	0	0	0	0	0	0	0	0	0	0	0	0	0	0	0	0	0	0	0	0
072319	16:05:08	16:07:55	165967	5.0.10.0	5_exp_noRW	998	Rpleas_acq	CS_A	JQQJ	LWWL	YFFY	DXXD	ZHHZ	CPPC	sonnig	vertrauen	träumen	genießen	küssen	gütig	sterben	versagen	töten	gemein	krank	gierig	53pct	acq_USpleas_CSpleas2_noRW	acq1_noRW	1	78	0	0	300	300	452	50	0	1	1	blank2r.bmp	0	1	+	0	1	blank2r.bmp	253	1	LWWL	306	2	küssen	559	0	0	0	0	0	0	0	0	0	0	0	0	0	0	0	0	0	0	0	0	0	0	0	0	0	0	0	0	0	0	0	0	0	0	0	0	0	0	0
072319	16:05:08	16:07:57	167553	5.0.10.0	5_exp_noRW	998	Rpleas_acq	CS_A	JQQJ	LWWL	YFFY	DXXD	ZHHZ	CPPC	sonnig	vertrauen	träumen	genießen	küssen	gütig	sterben	versagen	töten	gemein	krank	gierig	47pct	acq_USpleas_CSunple2_noRW	acq1_noRW	1	79	0	0	300	300	421	50	0	1	1	blank2r.bmp	0	1	+	0	1	blank2r.bmp	252	1	DXXD	306	2	küssen	559	0	0	0	0	0	0	0	0	0	0	0	0	0	0	0	0	0	0	0	0	0	0	0	0	0	0	0	0	0	0	0	0	0	0	0	0	0	0	0
072319	16:05:08	16:07:59	169445	5.0.10.0	5_exp_noRW	998	Rpleas_acq	CS_A	JQQJ	LWWL	YFFY	DXXD	ZHHZ	CPPC	sonnig	vertrauen	träumen	genießen	küssen	gütig	sterben	versagen	töten	gemein	krank	gierig	47pct	acq_USunple_CSpleas1_noRW	acq1_noRW	1	80	0	0	300	300	728	46	0	1	1	blank2r.bmp	0	1	+	0	1	blank2r.bmp	252	1	JQQJ	306	2	versagen	559	0	0	0	0	0	0	0	0	0	0	0	0	0	0	0	0	0	0	0	0	0	0	0	0	0	0	0	0	0	0	0	0	0	0	0	0	0	0	0
072319	16:05:08	16:08:09	179708	5.0.10.0	5_exp_noRW	998	Rpleas_acq	CS_A	JQQJ	LWWL	YFFY	DXXD	ZHHZ	CPPC	sonnig	vertrauen	träumen	genießen	küssen	gütig	sterben	versagen	töten	gemein	krank	gierig	53pct	acq_USpleas_CSpleas1_noRW	acq23456_noRW	2	1	0	0	300	300	402	50	0	1	1	blank2r.bmp	1	1	+	1	1	blank2r.bmp	252	1	JQQJ	306	1	sonnig	559	0	0	0	0	0	0	0	0	0	0	0	0	0	0	0	0	0	0	0	0	0	0	0	0	0	0	0	0	0	0	0	0	0	0	0	0	0	0	0
072319	16:05:08	16:08:11	181294	5.0.10.0	5_exp_noRW	998	Rpleas_acq	CS_A	JQQJ	LWWL	YFFY	DXXD	ZHHZ	CPPC	sonnig	vertrauen	träumen	genießen	küssen	gütig	sterben	versagen	töten	gemein	krank	gierig	47pct	acq_USpleas_CSpleas1_noRW	acq23456_noRW	2	2	0	0	300	300	410	50	0	1	1	blank2r.bmp	0	1	+	0	1	blank2r.bmp	252	1	JQQJ	306	3	träumen	559	0	0	0	0	0	0	0	0	0	0	0	0	0	0	0	0	0	0	0	0	0	0	0	0	0	0	0	0	0	0	0	0	0	0	0	0	0	0	0
072319	16:05:08	16:08:13	184146	5.0.10.0	5_exp_noRW	998	Rpleas_acq	CS_A	JQQJ	LWWL	YFFY	DXXD	ZHHZ	CPPC	sonnig	vertrauen	träumen	genießen	küssen	gütig	sterben	versagen	töten	gemein	krank	gierig	53pct	acq_USpleas_CSpleas1_noRW	acq23456_noRW	2	3	0	0	300	300	1687	50	0	1	1	blank2r.bmp	0	1	+	0	1	blank2r.bmp	252	1	JQQJ	306	1	sonnig	559	0	0	0	0	0	0	0	0	0	0	0	0	0	0	0	0	0	0	0	0	0	0	0	0	0	0	0	0	0	0	0	0	0	0	0	0	0	0	0
072319	16:05:08	16:08:15	185825	5.0.10.0	5_exp_noRW	998	Rpleas_acq	CS_A	JQQJ	LWWL	YFFY	DXXD	ZHHZ	CPPC	sonnig	vertrauen	träumen	genießen	küssen	gütig	sterben	versagen	töten	gemein	krank	gierig	47pct	acq_USunple_CSunple2_noRW	acq23456_noRW	2	4	0	0	300	300	513	46	0	1	1	blank2r.bmp	0	1	+	0	1	blank2r.bmp	252	1	DXXD	306	3	gierig	559	0	0	0	0	0	0	0	0	0	0	0	0	0	0	0	0	0	0	0	0	0	0	0	0	0	0	0	0	0	0	0	0	0	0	0	0	0	0	0
072319	16:05:08	16:08:17	187505	5.0.10.0	5_exp_noRW	998	Rpleas_acq	CS_A	JQQJ	LWWL	YFFY	DXXD	ZHHZ	CPPC	sonnig	vertrauen	träumen	genießen	küssen	gütig	sterben	versagen	töten	gemein	krank	gierig	47pct	acq_USpleas_CSpleas2_noRW	acq23456_noRW	2	5	0	0	300	300	517	50	0	1	1	blank2r.bmp	0	1	+	0	1	blank2r.bmp	252	1	LWWL	306	3	gütig	559	0	0	0	0	0	0	0	0	0	0	0	0	0	0	0	0	0	0	0	0	0	0	0	0	0	0	0	0	0	0	0	0	0	0	0	0	0	0	0
072319	16:05:08	16:08:18	189064	5.0.10.0	5_exp_noRW	998	Rpleas_acq	CS_A	JQQJ	LWWL	YFFY	DXXD	ZHHZ	CPPC	sonnig	vertrauen	träumen	genießen	küssen	gütig	sterben	versagen	töten	gemein	krank	gierig	47pct	acq_USunple_CSunple2_noRW	acq23456_noRW	2	6	0	0	300	300	391	46	0	1	1	blank2r.bmp	0	1	+	0	1	blank2r.bmp	252	1	DXXD	306	2	krank	561	0	0	0	0	0	0	0	0	0	0	0	0	0	0	0	0	0	0	0	0	0	0	0	0	0	0	0	0	0	0	0	0	0	0	0	0	0	0	0
072319	16:05:08	16:08:20	190583	5.0.10.0	5_exp_noRW	998	Rpleas_acq	CS_A	JQQJ	LWWL	YFFY	DXXD	ZHHZ	CPPC	sonnig	vertrauen	träumen	genießen	küssen	gütig	sterben	versagen	töten	gemein	krank	gierig	47pct	acq_USpleas_CSpleas2_noRW	acq23456_noRW	2	7	0	0	300	300	352	50	0	1	1	blank2r.bmp	0	1	+	0	1	blank2r.bmp	252	1	LWWL	306	1	genießen	559	0	0	0	0	0	0	0	0	0	0	0	0	0	0	0	0	0	0	0	0	0	0	0	0	0	0	0	0	0	0	0	0	0	0	0	0	0	0	0
072319	16:05:08	16:08:21	192223	5.0.10.0	5_exp_noRW	998	Rpleas_acq	CS_A	JQQJ	LWWL	YFFY	DXXD	ZHHZ	CPPC	sonnig	vertrauen	träumen	genießen	küssen	gütig	sterben	versagen	töten	gemein	krank	gierig	53pct	acq_USpleas_CSpleas1_noRW	acq23456_noRW	2	8	0	0	300	300	476	50	0	1	1	blank2r.bmp	0	1	+	0	1	blank2r.bmp	252	1	JQQJ	306	3	träumen	559	0	0	0	0	0	0	0	0	0	0	0	0	0	0	0	0	0	0	0	0	0	0	0	0	0	0	0	0	0	0	0	0	0	0	0	0	0	0	0
072319	16:05:08	16:08:23	193795	5.0.10.0	5_exp_noRW	998	Rpleas_acq	CS_A	JQQJ	LWWL	YFFY	DXXD	ZHHZ	CPPC	sonnig	vertrauen	träumen	genießen	küssen	gütig	sterben	versagen	töten	gemein	krank	gierig	47pct	acq_USunple_CSunple2_noRW	acq23456_noRW	2	9	0	0	300	300	408	46	0	1	1	blank2r.bmp	0	1	+	0	1	blank2r.bmp	252	1	DXXD	306	1	gemein	559	0	0	0	0	0	0	0	0	0	0	0	0	0	0	0	0	0	0	0	0	0	0	0	0	0	0	0	0	0	0	0	0	0	0	0	0	0	0	0
072319	16:05:08	16:08:25	195488	5.0.10.0	5_exp_noRW	998	Rpleas_acq	CS_A	JQQJ	LWWL	YFFY	DXXD	ZHHZ	CPPC	sonnig	vertrauen	träumen	genießen	küssen	gütig	sterben	versagen	töten	gemein	krank	gierig	47pct	acq_USunple_CSunple1_noRW	acq23456_noRW	2	10	0	0	300	300	518	46	0	1	1	blank2r.bmp	0	1	+	0	1	blank2r.bmp	252	1	YFFY	306	3	töten	559	0	0	0	0	0	0	0	0	0	0	0	0	0	0	0	0	0	0	0	0	0	0	0	0	0	0	0	0	0	0	0	0	0	0	0	0	0	0	0
072319	16:05:08	16:08:26	197007	5.0.10.0	5_exp_noRW	998	Rpleas_acq	CS_A	JQQJ	LWWL	YFFY	DXXD	ZHHZ	CPPC	sonnig	vertrauen	träumen	genießen	küssen	gütig	sterben	versagen	töten	gemein	krank	gierig	47pct	acq_USunple_CSpleas2_noRW	acq23456_noRW	2	11	0	0	300	300	349	46	0	1	1	blank2r.bmp	0	1	+	0	1	blank2r.bmp	252	1	LWWL	306	2	krank	559	0	0	0	0	0	0	0	0	0	0	0	0	0	0	0	0	0	0	0	0	0	0	0	0	0	0	0	0	0	0	0	0	0	0	0	0	0	0	0
072319	16:05:08	16:08:28	198620	5.0.10.0	5_exp_noRW	998	Rpleas_acq	CS_A	JQQJ	LWWL	YFFY	DXXD	ZHHZ	CPPC	sonnig	vertrauen	träumen	genießen	küssen	gütig	sterben	versagen	töten	gemein	krank	gierig	53pct	acq_USpleas_CSunple1_noRW	acq23456_noRW	2	12	0	0	300	300	443	50	0	1	1	blank2r.bmp	0	1	+	0	1	blank2r.bmp	252	1	YFFY	306	3	träumen	559	0	0	0	0	0	0	0	0	0	0	0	0	0	0	0	0	0	0	0	0	0	0	0	0	0	0	0	0	0	0	0	0	0	0	0	0	0	0	0
072319	16:05:08	16:08:29	200219	5.0.10.0	5_exp_noRW	998	Rpleas_acq	CS_A	JQQJ	LWWL	YFFY	DXXD	ZHHZ	CPPC	sonnig	vertrauen	träumen	genießen	küssen	gütig	sterben	versagen	töten	gemein	krank	gierig	53pct	acq_USunple_CSunple1_noRW	acq23456_noRW	2	13	0	0	300	300	430	46	0	1	1	blank2r.bmp	0	1	+	0	1	blank2r.bmp	252	1	YFFY	306	1	sterben	559	0	0	0	0	0	0	0	0	0	0	0	0	0	0	0	0	0	0	0	0	0	0	0	0	0	0	0	0	0	0	0	0	0	0	0	0	0	0	0
072319	16:05:08	16:08:31	201792	5.0.10.0	5_exp_noRW	998	Rpleas_acq	CS_A	JQQJ	LWWL	YFFY	DXXD	ZHHZ	CPPC	sonnig	vertrauen	träumen	genießen	küssen	gütig	sterben	versagen	töten	gemein	krank	gierig	47pct	acq_USpleas_CSunple2_noRW	acq23456_noRW	2	14	0	0	300	300	410	50	0	1	1	blank2r.bmp	0	1	+	0	1	blank2r.bmp	252	1	DXXD	306	3	gütig	559	0	0	0	0	0	0	0	0	0	0	0	0	0	0	0	0	0	0	0	0	0	0	0	0	0	0	0	0	0	0	0	0	0	0	0	0	0	0	0
072319	16:05:08	16:08:33	203458	5.0.10.0	5_exp_noRW	998	Rpleas_acq	CS_A	JQQJ	LWWL	YFFY	DXXD	ZHHZ	CPPC	sonnig	vertrauen	träumen	genießen	küssen	gütig	sterben	versagen	töten	gemein	krank	gierig	53pct	acq_USpleas_CSpleas2_noRW	acq23456_noRW	2	15	0	0	300	300	480	50	0	1	1	blank2r.bmp	0	1	+	0	1	blank2r.bmp	252	1	LWWL	306	1	genießen	571	0	0	0	0	0	0	0	0	0	0	0	0	0	0	0	0	0	0	0	0	0	0	0	0	0	0	0	0	0	0	0	0	0	0	0	0	0	0	0
072319	16:05:08	16:08:34	205017	5.0.10.0	5_exp_noRW	998	Rpleas_acq	CS_A	JQQJ	LWWL	YFFY	DXXD	ZHHZ	CPPC	sonnig	vertrauen	träumen	genießen	küssen	gütig	sterben	versagen	töten	gemein	krank	gierig	47pct	acq_USunple_CSpleas1_noRW	acq23456_noRW	2	16	0	0	300	300	393	46	0	1	1	blank2r.bmp	0	1	+	0	1	blank2r.bmp	252	1	JQQJ	306	3	töten	559	0	0	0	0	0	0	0	0	0	0	0	0	0	0	0	0	0	0	0	0	0	0	0	0	0	0	0	0	0	0	0	0	0	0	0	0	0	0	0
072319	16:05:08	16:08:36	206630	5.0.10.0	5_exp_noRW	998	Rpleas_acq	CS_A	JQQJ	LWWL	YFFY	DXXD	ZHHZ	CPPC	sonnig	vertrauen	träumen	genießen	küssen	gütig	sterben	versagen	töten	gemein	krank	gierig	47pct	acq_USunple_CSunple2_noRW	acq23456_noRW	2	17	0	0	300	300	446	46	0	1	1	blank2r.bmp	0	1	+	0	1	blank2r.bmp	252	1	DXXD	306	2	krank	559	0	0	0	0	0	0	0	0	0	0	0	0	0	0	0	0	0	0	0	0	0	0	0	0	0	0	0	0	0	0	0	0	0	0	0	0	0	0	0
072319	16:05:08	16:08:37	208176	5.0.10.0	5_exp_noRW	998	Rpleas_acq	CS_A	JQQJ	LWWL	YFFY	DXXD	ZHHZ	CPPC	sonnig	vertrauen	träumen	genießen	küssen	gütig	sterben	versagen	töten	gemein	krank	gierig	47pct	acq_USunple_CSunple1_noRW	acq23456_noRW	2	18	0	0	300	300	374	46	0	1	1	blank2r.bmp	0	1	+	0	1	blank2r.bmp	252	1	YFFY	306	1	sterben	559	0	0	0	0	0	0	0	0	0	0	0	0	0	0	0	0	0	0	0	0	0	0	0	0	0	0	0	0	0	0	0	0	0	0	0	0	0	0	0
072319	16:05:08	16:08:39	209935	5.0.10.0	5_exp_noRW	998	Rpleas_acq	CS_A	JQQJ	LWWL	YFFY	DXXD	ZHHZ	CPPC	sonnig	vertrauen	träumen	genießen	küssen	gütig	sterben	versagen	töten	gemein	krank	gierig	47pct	acq_USunple_CSunple1_noRW	acq23456_noRW	2	19	0	0	300	300	375	50	0	0	1	blank2r.bmp	0	1	+	0	1	blank2r.bmp	252	1	YFFY	306	2	versagen	559	1	FEHLER	972	0	0	0	0	0	0	0	0	0	0	0	0	0	0	0	0	0	0	0	0	0	0	0	0	0	0	0	0	0	0	0	0	0	0	0	0
072319	16:05:08	16:08:41	211255	5.0.10.0	5_exp_noRW	998	Rpleas_acq	CS_A	JQQJ	LWWL	YFFY	DXXD	ZHHZ	CPPC	sonnig	vertrauen	träumen	genießen	küssen	gütig	sterben	versagen	töten	gemein	krank	gierig	53pct	acq_USpleas_CSpleas2_noRW	acq23456_noRW	2	20	0	0	300	300	365	50	0	1	1	blank2r.bmp	0	1	+	0	1	blank2r.bmp	252	1	LWWL	306	2	küssen	559	0	0	0	0	0	0	0	0	0	0	0	0	0	0	0	0	0	0	0	0	0	0	0	0	0	0	0	0	0	0	0	0	0	0	0	0	0	0	0
072319	16:05:08	16:08:42	212894	5.0.10.0	5_exp_noRW	998	Rpleas_acq	CS_A	JQQJ	LWWL	YFFY	DXXD	ZHHZ	CPPC	sonnig	vertrauen	träumen	genießen	küssen	gütig	sterben	versagen	töten	gemein	krank	gierig	47pct	acq_USunple_CSpleas1_noRW	acq23456_noRW	2	21	0	0	300	300	467	46	0	1	1	blank2r.bmp	0	1	+	0	1	blank2r.bmp	252	1	JQQJ	306	1	sterben	559	0	0	0	0	0	0	0	0	0	0	0	0	0	0	0	0	0	0	0	0	0	0	0	0	0	0	0	0	0	0	0	0	0	0	0	0	0	0	0
072319	16:05:08	16:08:44	214534	5.0.10.0	5_exp_noRW	998	Rpleas_acq	CS_A	JQQJ	LWWL	YFFY	DXXD	ZHHZ	CPPC	sonnig	vertrauen	träumen	genießen	küssen	gütig	sterben	versagen	töten	gemein	krank	gierig	47pct	acq_USpleas_CSpleas1_noRW	acq23456_noRW	2	22	0	0	300	300	477	50	0	1	1	blank2r.bmp	0	1	+	0	1	blank2r.bmp	252	1	JQQJ	306	2	vertrauen	559	0	0	0	0	0	0	0	0	0	0	0	0	0	0	0	0	0	0	0	0	0	0	0	0	0	0	0	0	0	0	0	0	0	0	0	0	0	0	0
072319	16:05:08	16:08:46	216253	5.0.10.0	5_exp_noRW	998	Rpleas_acq	CS_A	JQQJ	LWWL	YFFY	DXXD	ZHHZ	CPPC	sonnig	vertrauen	träumen	genießen	küssen	gütig	sterben	versagen	töten	gemein	krank	gierig	47pct	acq_USunple_CSunple2_noRW	acq23456_noRW	2	23	0	0	300	300	551	46	0	1	1	blank2r.bmp	12	1	+	12	1	blank2r.bmp	252	1	DXXD	306	3	gierig	559	0	0	0	0	0	0	0	0	0	0	0	0	0	0	0	0	0	0	0	0	0	0	0	0	0	0	0	0	0	0	0	0	0	0	0	0	0	0	0
072319	16:05:08	16:08:47	217866	5.0.10.0	5_exp_noRW	998	Rpleas_acq	CS_A	JQQJ	LWWL	YFFY	DXXD	ZHHZ	CPPC	sonnig	vertrauen	träumen	genießen	küssen	gütig	sterben	versagen	töten	gemein	krank	gierig	53pct	acq_USpleas_CSpleas1_noRW	acq23456_noRW	2	24	0	0	300	300	445	50	0	1	1	blank2r.bmp	0	1	+	0	1	blank2r.bmp	252	1	JQQJ	306	3	träumen	559	0	0	0	0	0	0	0	0	0	0	0	0	0	0	0	0	0	0	0	0	0	0	0	0	0	0	0	0	0	0	0	0	0	0	0	0	0	0	0
072319	16:05:08	16:08:49	219452	5.0.10.0	5_exp_noRW	998	Rpleas_acq	CS_A	JQQJ	LWWL	YFFY	DXXD	ZHHZ	CPPC	sonnig	vertrauen	träumen	genießen	küssen	gütig	sterben	versagen	töten	gemein	krank	gierig	53pct	acq_USpleas_CSpleas2_noRW	acq23456_noRW	2	25	0	0	300	300	416	50	0	1	1	blank2r.bmp	0	1	+	0	1	blank2r.bmp	252	1	LWWL	306	3	gütig	559	0	0	0	0	0	0	0	0	0	0	0	0	0	0	0	0	0	0	0	0	0	0	0	0	0	0	0	0	0	0	0	0	0	0	0	0	0	0	0
072319	16:05:08	16:08:50	221051	5.0.10.0	5_exp_noRW	998	Rpleas_acq	CS_A	JQQJ	LWWL	YFFY	DXXD	ZHHZ	CPPC	sonnig	vertrauen	träumen	genießen	küssen	gütig	sterben	versagen	töten	gemein	krank	gierig	53pct	acq_USunple_CSunple1_noRW	acq23456_noRW	2	26	0	0	300	300	427	46	0	1	1	blank2r.bmp	0	1	+	0	1	blank2r.bmp	252	1	YFFY	306	3	töten	559	0	0	0	0	0	0	0	0	0	0	0	0	0	0	0	0	0	0	0	0	0	0	0	0	0	0	0	0	0	0	0	0	0	0	0	0	0	0	0
072319	16:05:08	16:08:52	222584	5.0.10.0	5_exp_noRW	998	Rpleas_acq	CS_A	JQQJ	LWWL	YFFY	DXXD	ZHHZ	CPPC	sonnig	vertrauen	träumen	genießen	küssen	gütig	sterben	versagen	töten	gemein	krank	gierig	53pct	acq_USpleas_CSpleas2_noRW	acq23456_noRW	2	27	0	0	300	300	367	50	0	1	1	blank2r.bmp	0	1	+	0	1	blank2r.bmp	252	1	LWWL	306	2	küssen	559	0	0	0	0	0	0	0	0	0	0	0	0	0	0	0	0	0	0	0	0	0	0	0	0	0	0	0	0	0	0	0	0	0	0	0	0	0	0	0
072319	16:05:08	16:08:54	224276	5.0.10.0	5_exp_noRW	998	Rpleas_acq	CS_A	JQQJ	LWWL	YFFY	DXXD	ZHHZ	CPPC	sonnig	vertrauen	träumen	genießen	küssen	gütig	sterben	versagen	töten	gemein	krank	gierig	47pct	acq_USunple_CSunple1_noRW	acq23456_noRW	2	28	0	0	300	300	521	46	0	1	1	blank2r.bmp	0	1	+	0	1	blank2r.bmp	252	1	YFFY	306	2	versagen	559	0	0	0	0	0	0	0	0	0	0	0	0	0	0	0	0	0	0	0	0	0	0	0	0	0	0	0	0	0	0	0	0	0	0	0	0	0	0	0
072319	16:05:08	16:08:55	225929	5.0.10.0	5_exp_noRW	998	Rpleas_acq	CS_A	JQQJ	LWWL	YFFY	DXXD	ZHHZ	CPPC	sonnig	vertrauen	träumen	genießen	küssen	gütig	sterben	versagen	töten	gemein	krank	gierig	53pct	acq_USunple_CSunple1_noRW	acq23456_noRW	2	29	0	0	300	300	487	46	0	1	1	blank2r.bmp	0	1	+	0	1	blank2r.bmp	252	1	YFFY	306	1	sterben	559	0	0	0	0	0	0	0	0	0	0	0	0	0	0	0	0	0	0	0	0	0	0	0	0	0	0	0	0	0	0	0	0	0	0	0	0	0	0	0
072319	16:05:08	16:08:57	227395	5.0.10.0	5_exp_noRW	998	Rpleas_acq	CS_A	JQQJ	LWWL	YFFY	DXXD	ZHHZ	CPPC	sonnig	vertrauen	träumen	genießen	küssen	gütig	sterben	versagen	töten	gemein	krank	gierig	47pct	acq_USpleas_CSpleas1_noRW	acq23456_noRW	2	30	0	0	300	300	303	50	0	1	1	blank2r.bmp	0	1	+	0	1	blank2r.bmp	252	1	JQQJ	306	2	vertrauen	559	0	0	0	0	0	0	0	0	0	0	0	0	0	0	0	0	0	0	0	0	0	0	0	0	0	0	0	0	0	0	0	0	0	0	0	0	0	0	0
072319	16:05:08	16:08:58	228928	5.0.10.0	5_exp_noRW	998	Rpleas_acq	CS_A	JQQJ	LWWL	YFFY	DXXD	ZHHZ	CPPC	sonnig	vertrauen	träumen	genießen	küssen	gütig	sterben	versagen	töten	gemein	krank	gierig	47pct	acq_USpleas_CSpleas1_noRW	acq23456_noRW	2	31	0	0	300	300	360	50	0	1	1	blank2r.bmp	0	1	+	0	1	blank2r.bmp	252	1	JQQJ	306	1	sonnig	559	0	0	0	0	0	0	0	0	0	0	0	0	0	0	0	0	0	0	0	0	0	0	0	0	0	0	0	0	0	0	0	0	0	0	0	0	0	0	0
072319	16:05:08	16:09:00	230661	5.0.10.0	5_exp_noRW	998	Rpleas_acq	CS_A	JQQJ	LWWL	YFFY	DXXD	ZHHZ	CPPC	sonnig	vertrauen	träumen	genießen	küssen	gütig	sterben	versagen	töten	gemein	krank	gierig	53pct	acq_USpleas_CSunple2_noRW	acq23456_noRW	2	32	0	0	300	300	349	46	0	0	1	blank2r.bmp	0	1	+	0	1	blank2r.bmp	252	1	DXXD	306	1	genießen	559	1	FEHLER	946	0	0	0	0	0	0	0	0	0	0	0	0	0	0	0	0	0	0	0	0	0	0	0	0	0	0	0	0	0	0	0	0	0	0	0	0
072319	16:05:08	16:09:01	232126	5.0.10.0	5_exp_noRW	998	Rpleas_acq	CS_A	JQQJ	LWWL	YFFY	DXXD	ZHHZ	CPPC	sonnig	vertrauen	träumen	genießen	küssen	gütig	sterben	versagen	töten	gemein	krank	gierig	53pct	acq_USunple_CSpleas2_noRW	acq23456_noRW	2	33	0	0	300	300	514	46	0	1	1	blank2r.bmp	0	1	+	0	1	blank2r.bmp	252	1	LWWL	306	1	gemein	559	0	0	0	0	0	0	0	0	0	0	0	0	0	0	0	0	0	0	0	0	0	0	0	0	0	0	0	0	0	0	0	0	0	0	0	0	0	0	0
072319	16:05:08	16:09:03	233792	5.0.10.0	5_exp_noRW	998	Rpleas_acq	CS_A	JQQJ	LWWL	YFFY	DXXD	ZHHZ	CPPC	sonnig	vertrauen	träumen	genießen	küssen	gütig	sterben	versagen	töten	gemein	krank	gierig	47pct	acq_USunple_CSunple1_noRW	acq23456_noRW	2	34	0	0	300	300	478	46	0	1	1	blank2r.bmp	0	1	+	0	1	blank2r.bmp	252	1	YFFY	317	3	töten	559	0	0	0	0	0	0	0	0	0	0	0	0	0	0	0	0	0	0	0	0	0	0	0	0	0	0	0	0	0	0	0	0	0	0	0	0	0	0	0
072319	16:05:08	16:09:05	235458	5.0.10.0	5_exp_noRW	998	Rpleas_acq	CS_A	JQQJ	LWWL	YFFY	DXXD	ZHHZ	CPPC	sonnig	vertrauen	träumen	genießen	küssen	gütig	sterben	versagen	töten	gemein	krank	gierig	47pct	acq_USpleas_CSpleas2_noRW	acq23456_noRW	2	35	0	0	300	300	518	50	0	1	1	blank2r.bmp	0	1	+	0	1	blank2r.bmp	264	1	LWWL	306	1	genießen	559	0	0	0	0	0	0	0	0	0	0	0	0	0	0	0	0	0	0	0	0	0	0	0	0	0	0	0	0	0	0	0	0	0	0	0	0	0	0	0
072319	16:05:08	16:09:06	237244	5.0.10.0	5_exp_noRW	998	Rpleas_acq	CS_A	JQQJ	LWWL	YFFY	DXXD	ZHHZ	CPPC	sonnig	vertrauen	träumen	genießen	küssen	gütig	sterben	versagen	töten	gemein	krank	gierig	47pct	acq_USunple_CSunple2_noRW	acq23456_noRW	2	36	0	0	300	300	603	46	0	1	1	blank2r.bmp	0	1	+	0	1	blank2r.bmp	252	1	DXXD	306	1	gemein	563	0	0	0	0	0	0	0	0	0	0	0	0	0	0	0	0	0	0	0	0	0	0	0	0	0	0	0	0	0	0	0	0	0	0	0	0	0	0	0
072319	16:05:08	16:09:08	239004	5.0.10.0	5_exp_noRW	998	Rpleas_acq	CS_A	JQQJ	LWWL	YFFY	DXXD	ZHHZ	CPPC	sonnig	vertrauen	träumen	genießen	küssen	gütig	sterben	versagen	töten	gemein	krank	gierig	53pct	acq_USpleas_CSunple1_noRW	acq23456_noRW	2	37	0	0	300	300	586	50	0	1	1	blank2r.bmp	0	1	+	0	1	blank2r.bmp	252	1	YFFY	306	2	vertrauen	559	0	0	0	0	0	0	0	0	0	0	0	0	0	0	0	0	0	0	0	0	0	0	0	0	0	0	0	0	0	0	0	0	0	0	0	0	0	0	0
072319	16:05:08	16:09:10	240550	5.0.10.0	5_exp_noRW	998	Rpleas_acq	CS_A	JQQJ	LWWL	YFFY	DXXD	ZHHZ	CPPC	sonnig	vertrauen	träumen	genießen	küssen	gütig	sterben	versagen	töten	gemein	krank	gierig	53pct	acq_USunple_CSunple2_noRW	acq23456_noRW	2	38	0	0	300	300	378	46	0	1	1	blank2r.bmp	0	1	+	0	1	blank2r.bmp	252	1	DXXD	306	2	krank	559	0	0	0	0	0	0	0	0	0	0	0	0	0	0	0	0	0	0	0	0	0	0	0	0	0	0	0	0	0	0	0	0	0	0	0	0	0	0	0
072319	16:05:08	16:09:11	242096	5.0.10.0	5_exp_noRW	998	Rpleas_acq	CS_A	JQQJ	LWWL	YFFY	DXXD	ZHHZ	CPPC	sonnig	vertrauen	träumen	genießen	küssen	gütig	sterben	versagen	töten	gemein	krank	gierig	47pct	acq_USpleas_CSpleas2_noRW	acq23456_noRW	2	39	0	0	300	300	375	50	0	1	1	blank2r.bmp	0	1	+	0	1	blank2r.bmp	252	1	LWWL	306	3	gütig	559	0	0	0	0	0	0	0	0	0	0	0	0	0	0	0	0	0	0	0	0	0	0	0	0	0	0	0	0	0	0	0	0	0	0	0	0	0	0	0
072319	16:05:08	16:09:13	243842	5.0.10.0	5_exp_noRW	998	Rpleas_acq	CS_A	JQQJ	LWWL	YFFY	DXXD	ZHHZ	CPPC	sonnig	vertrauen	träumen	genießen	küssen	gütig	sterben	versagen	töten	gemein	krank	gierig	47pct	acq_USunple_CSunple2_noRW	acq23456_noRW	2	40	0	0	300	300	363	50	0	0	1	blank2r.bmp	0	1	+	0	1	blank2r.bmp	252	1	DXXD	306	3	gierig	559	1	FEHLER	959	0	0	0	0	0	0	0	0	0	0	0	0	0	0	0	0	0	0	0	0	0	0	0	0	0	0	0	0	0	0	0	0	0	0	0	0
072319	16:05:08	16:09:14	245241	5.0.10.0	5_exp_noRW	998	Rpleas_acq	CS_A	JQQJ	LWWL	YFFY	DXXD	ZHHZ	CPPC	sonnig	vertrauen	träumen	genießen	küssen	gütig	sterben	versagen	töten	gemein	krank	gierig	47pct	acq_USpleas_CSpleas2_noRW	acq23456_noRW	2	41	0	0	300	300	441	50	0	1	1	blank2r.bmp	0	1	+	0	1	blank2r.bmp	253	1	LWWL	306	1	genießen	559	0	0	0	0	0	0	0	0	0	0	0	0	0	0	0	0	0	0	0	0	0	0	0	0	0	0	0	0	0	0	0	0	0	0	0	0	0	0	0
072319	16:05:08	16:09:16	246880	5.0.10.0	5_exp_noRW	998	Rpleas_acq	CS_A	JQQJ	LWWL	YFFY	DXXD	ZHHZ	CPPC	sonnig	vertrauen	träumen	genießen	küssen	gütig	sterben	versagen	töten	gemein	krank	gierig	53pct	acq_USpleas_CSpleas2_noRW	acq23456_noRW	2	42	0	0	300	300	469	50	0	1	1	blank2r.bmp	0	1	+	0	1	blank2r.bmp	252	1	LWWL	306	2	küssen	559	0	0	0	0	0	0	0	0	0	0	0	0	0	0	0	0	0	0	0	0	0	0	0	0	0	0	0	0	0	0	0	0	0	0	0	0	0	0	0
072319	16:05:08	16:09:18	248760	5.0.10.0	5_exp_noRW	998	Rpleas_acq	CS_A	JQQJ	LWWL	YFFY	DXXD	ZHHZ	CPPC	sonnig	vertrauen	träumen	genießen	küssen	gütig	sterben	versagen	töten	gemein	krank	gierig	47pct	acq_USunple_CSunple2_noRW	acq23456_noRW	2	43	0	0	300	300	493	50	0	0	1	blank2r.bmp	0	1	+	0	1	blank2r.bmp	252	1	DXXD	306	3	gierig	559	1	FEHLER	1092	0	0	0	0	0	0	0	0	0	0	0	0	0	0	0	0	0	0	0	0	0	0	0	0	0	0	0	0	0	0	0	0	0	0	0	0
072319	16:05:08	16:09:19	250186	5.0.10.0	5_exp_noRW	998	Rpleas_acq	CS_A	JQQJ	LWWL	YFFY	DXXD	ZHHZ	CPPC	sonnig	vertrauen	träumen	genießen	küssen	gütig	sterben	versagen	töten	gemein	krank	gierig	47pct	acq_USpleas_CSpleas1_noRW	acq23456_noRW	2	44	0	0	300	300	470	50	0	1	1	blank2r.bmp	0	1	+	0	1	blank2r.bmp	252	1	JQQJ	306	2	vertrauen	559	0	0	0	0	0	0	0	0	0	0	0	0	0	0	0	0	0	0	0	0	0	0	0	0	0	0	0	0	0	0	0	0	0	0	0	0	0	0	0
072319	16:05:08	16:09:21	251825	5.0.10.0	5_exp_noRW	998	Rpleas_acq	CS_A	JQQJ	LWWL	YFFY	DXXD	ZHHZ	CPPC	sonnig	vertrauen	träumen	genießen	küssen	gütig	sterben	versagen	töten	gemein	krank	gierig	47pct	acq_USpleas_CSpleas1_noRW	acq23456_noRW	2	45	0	0	300	300	475	50	0	1	1	blank2r.bmp	0	1	+	0	1	blank2r.bmp	252	1	JQQJ	306	1	sonnig	562	0	0	0	0	0	0	0	0	0	0	0	0	0	0	0	0	0	0	0	0	0	0	0	0	0	0	0	0	0	0	0	0	0	0	0	0	0	0	0
072319	16:05:08	16:09:23	253371	5.0.10.0	5_exp_noRW	998	Rpleas_acq	CS_A	JQQJ	LWWL	YFFY	DXXD	ZHHZ	CPPC	sonnig	vertrauen	träumen	genießen	küssen	gütig	sterben	versagen	töten	gemein	krank	gierig	47pct	acq_USunple_CSpleas1_noRW	acq23456_noRW	2	46	0	0	300	300	378	46	0	1	1	blank2r.bmp	0	1	+	0	1	blank2r.bmp	252	1	JQQJ	306	2	versagen	559	0	0	0	0	0	0	0	0	0	0	0	0	0	0	0	0	0	0	0	0	0	0	0	0	0	0	0	0	0	0	0	0	0	0	0	0	0	0	0
072319	16:05:08	16:09:24	254944	5.0.10.0	5_exp_noRW	998	Rpleas_acq	CS_A	JQQJ	LWWL	YFFY	DXXD	ZHHZ	CPPC	sonnig	vertrauen	träumen	genießen	küssen	gütig	sterben	versagen	töten	gemein	krank	gierig	47pct	acq_USpleas_CSpleas1_noRW	acq23456_noRW	2	47	0	0	300	300	396	50	0	1	1	blank2r.bmp	0	1	+	0	1	blank2r.bmp	252	1	JQQJ	306	3	träumen	559	0	0	0	0	0	0	0	0	0	0	0	0	0	0	0	0	0	0	0	0	0	0	0	0	0	0	0	0	0	0	0	0	0	0	0	0	0	0	0
072319	16:05:08	16:09:26	256596	5.0.10.0	5_exp_noRW	998	Rpleas_acq	CS_A	JQQJ	LWWL	YFFY	DXXD	ZHHZ	CPPC	sonnig	vertrauen	träumen	genießen	küssen	gütig	sterben	versagen	töten	gemein	krank	gierig	47pct	acq_USpleas_CSpleas1_noRW	acq23456_noRW	2	48	0	0	300	300	484	50	0	1	1	blank2r.bmp	0	1	+	0	1	blank2r.bmp	252	1	JQQJ	306	3	träumen	559	0	0	0	0	0	0	0	0	0	0	0	0	0	0	0	0	0	0	0	0	0	0	0	0	0	0	0	0	0	0	0	0	0	0	0	0	0	0	0
072319	16:05:08	16:09:27	258143	5.0.10.0	5_exp_noRW	998	Rpleas_acq	CS_A	JQQJ	LWWL	YFFY	DXXD	ZHHZ	CPPC	sonnig	vertrauen	träumen	genießen	küssen	gütig	sterben	versagen	töten	gemein	krank	gierig	53pct	acq_USunple_CSunple1_noRW	acq23456_noRW	2	49	0	0	300	300	382	46	0	1	1	blank2r.bmp	0	1	+	0	1	blank2r.bmp	252	1	YFFY	306	3	töten	559	0	0	0	0	0	0	0	0	0	0	0	0	0	0	0	0	0	0	0	0	0	0	0	0	0	0	0	0	0	0	0	0	0	0	0	0	0	0	0
072319	16:05:08	16:09:29	259715	5.0.10.0	5_exp_noRW	998	Rpleas_acq	CS_A	JQQJ	LWWL	YFFY	DXXD	ZHHZ	CPPC	sonnig	vertrauen	träumen	genießen	küssen	gütig	sterben	versagen	töten	gemein	krank	gierig	47pct	acq_USunple_CSunple2_noRW	acq23456_noRW	2	50	0	0	300	300	408	46	0	1	1	blank2r.bmp	0	1	+	0	1	blank2r.bmp	252	1	DXXD	306	2	krank	559	0	0	0	0	0	0	0	0	0	0	0	0	0	0	0	0	0	0	0	0	0	0	0	0	0	0	0	0	0	0	0	0	0	0	0	0	0	0	0
072319	16:05:08	16:09:31	261288	5.0.10.0	5_exp_noRW	998	Rpleas_acq	CS_A	JQQJ	LWWL	YFFY	DXXD	ZHHZ	CPPC	sonnig	vertrauen	träumen	genießen	küssen	gütig	sterben	versagen	töten	gemein	krank	gierig	53pct	acq_USunple_CSunple1_noRW	acq23456_noRW	2	51	0	0	300	300	411	46	0	1	1	blank2r.bmp	0	1	+	0	1	blank2r.bmp	252	1	YFFY	306	2	versagen	559	0	0	0	0	0	0	0	0	0	0	0	0	0	0	0	0	0	0	0	0	0	0	0	0	0	0	0	0	0	0	0	0	0	0	0	0	0	0	0
072319	16:05:08	16:09:32	262847	5.0.10.0	5_exp_noRW	998	Rpleas_acq	CS_A	JQQJ	LWWL	YFFY	DXXD	ZHHZ	CPPC	sonnig	vertrauen	träumen	genießen	küssen	gütig	sterben	versagen	töten	gemein	krank	gierig	47pct	acq_USpleas_CSpleas2_noRW	acq23456_noRW	2	52	0	0	300	300	388	50	0	1	1	blank2r.bmp	0	1	+	0	1	blank2r.bmp	252	1	LWWL	306	3	gütig	559	0	0	0	0	0	0	0	0	0	0	0	0	0	0	0	0	0	0	0	0	0	0	0	0	0	0	0	0	0	0	0	0	0	0	0	0	0	0	0
072319	16:05:08	16:09:34	264420	5.0.10.0	5_exp_noRW	998	Rpleas_acq	CS_A	JQQJ	LWWL	YFFY	DXXD	ZHHZ	CPPC	sonnig	vertrauen	träumen	genießen	küssen	gütig	sterben	versagen	töten	gemein	krank	gierig	47pct	acq_USpleas_CSunple2_noRW	acq23456_noRW	2	53	0	0	300	300	401	50	0	1	1	blank2r.bmp	0	1	+	0	1	blank2r.bmp	252	1	DXXD	306	1	genießen	559	0	0	0	0	0	0	0	0	0	0	0	0	0	0	0	0	0	0	0	0	0	0	0	0	0	0	0	0	0	0	0	0	0	0	0	0	0	0	0
072319	16:05:08	16:09:35	265966	5.0.10.0	5_exp_noRW	998	Rpleas_acq	CS_A	JQQJ	LWWL	YFFY	DXXD	ZHHZ	CPPC	sonnig	vertrauen	träumen	genießen	küssen	gütig	sterben	versagen	töten	gemein	krank	gierig	53pct	acq_USunple_CSunple1_noRW	acq23456_noRW	2	54	0	0	300	300	375	46	0	1	1	blank2r.bmp	0	1	+	0	1	blank2r.bmp	253	1	YFFY	306	1	sterben	559	0	0	0	0	0	0	0	0	0	0	0	0	0	0	0	0	0	0	0	0	0	0	0	0	0	0	0	0	0	0	0	0	0	0	0	0	0	0	0
072319	16:05:08	16:09:37	267619	5.0.10.0	5_exp_noRW	998	Rpleas_acq	CS_A	JQQJ	LWWL	YFFY	DXXD	ZHHZ	CPPC	sonnig	vertrauen	träumen	genießen	küssen	gütig	sterben	versagen	töten	gemein	krank	gierig	47pct	acq_USunple_CSunple2_noRW	acq23456_noRW	2	55	0	0	300	300	484	46	0	1	1	blank2r.bmp	3	1	+	3	1	blank2r.bmp	252	1	DXXD	306	1	gemein	559	0	0	0	0	0	0	0	0	0	0	0	0	0	0	0	0	0	0	0	0	0	0	0	0	0	0	0	0	0	0	0	0	0	0	0	0	0	0	0
072319	16:05:08	16:09:38	269191	5.0.10.0	5_exp_noRW	998	Rpleas_acq	CS_A	JQQJ	LWWL	YFFY	DXXD	ZHHZ	CPPC	sonnig	vertrauen	träumen	genießen	küssen	gütig	sterben	versagen	töten	gemein	krank	gierig	47pct	acq_USpleas_CSunple1_noRW	acq23456_noRW	2	56	0	0	300	300	399	50	0	1	1	blank2r.bmp	0	1	+	0	1	blank2r.bmp	252	1	YFFY	306	3	träumen	559	0	0	0	0	0	0	0	0	0	0	0	0	0	0	0	0	0	0	0	0	0	0	0	0	0	0	0	0	0	0	0	0	0	0	0	0	0	0	0
072319	16:05:08	16:09:40	270724	5.0.10.0	5_exp_noRW	998	Rpleas_acq	CS_A	JQQJ	LWWL	YFFY	DXXD	ZHHZ	CPPC	sonnig	vertrauen	träumen	genießen	küssen	gütig	sterben	versagen	töten	gemein	krank	gierig	53pct	acq_USunple_CSunple1_noRW	acq23456_noRW	2	57	0	0	300	300	356	46	0	1	1	blank2r.bmp	0	1	+	0	1	blank2r.bmp	252	1	YFFY	306	3	töten	559	0	0	0	0	0	0	0	0	0	0	0	0	0	0	0	0	0	0	0	0	0	0	0	0	0	0	0	0	0	0	0	0	0	0	0	0	0	0	0
072319	16:05:08	16:09:42	272323	5.0.10.0	5_exp_noRW	998	Rpleas_acq	CS_A	JQQJ	LWWL	YFFY	DXXD	ZHHZ	CPPC	sonnig	vertrauen	träumen	genießen	küssen	gütig	sterben	versagen	töten	gemein	krank	gierig	47pct	acq_USunple_CSunple2_noRW	acq23456_noRW	2	58	0	0	300	300	438	46	0	1	1	blank2r.bmp	0	1	+	0	1	blank2r.bmp	252	1	DXXD	306	2	krank	559	0	0	0	0	0	0	0	0	0	0	0	0	0	0	0	0	0	0	0	0	0	0	0	0	0	0	0	0	0	0	0	0	0	0	0	0	0	0	0
072319	16:05:08	16:09:43	273856	5.0.10.0	5_exp_noRW	998	Rpleas_acq	CS_A	JQQJ	LWWL	YFFY	DXXD	ZHHZ	CPPC	sonnig	vertrauen	träumen	genießen	küssen	gütig	sterben	versagen	töten	gemein	krank	gierig	47pct	acq_USpleas_CSpleas2_noRW	acq23456_noRW	2	59	0	0	300	300	369	50	0	1	1	blank2r.bmp	0	1	+	0	1	blank2r.bmp	252	1	LWWL	306	2	küssen	559	0	0	0	0	0	0	0	0	0	0	0	0	0	0	0	0	0	0	0	0	0	0	0	0	0	0	0	0	0	0	0	0	0	0	0	0	0	0	0
072319	16:05:08	16:09:45	275455	5.0.10.0	5_exp_noRW	998	Rpleas_acq	CS_A	JQQJ	LWWL	YFFY	DXXD	ZHHZ	CPPC	sonnig	vertrauen	träumen	genießen	küssen	gütig	sterben	versagen	töten	gemein	krank	gierig	47pct	acq_USunple_CSpleas2_noRW	acq23456_noRW	2	60	0	0	300	300	431	46	0	1	1	blank2r.bmp	0	1	+	0	1	blank2r.bmp	252	1	LWWL	306	1	gemein	559	0	0	0	0	0	0	0	0	0	0	0	0	0	0	0	0	0	0	0	0	0	0	0	0	0	0	0	0	0	0	0	0	0	0	0	0	0	0	0
072319	16:05:08	16:09:46	277108	5.0.10.0	5_exp_noRW	998	Rpleas_acq	CS_A	JQQJ	LWWL	YFFY	DXXD	ZHHZ	CPPC	sonnig	vertrauen	träumen	genießen	küssen	gütig	sterben	versagen	töten	gemein	krank	gierig	53pct	acq_USpleas_CSpleas1_noRW	acq23456_noRW	2	61	0	0	300	300	478	50	0	1	1	blank2r.bmp	0	1	+	0	1	blank2r.bmp	252	1	JQQJ	306	2	vertrauen	559	0	0	0	0	0	0	0	0	0	0	0	0	0	0	0	0	0	0	0	0	0	0	0	0	0	0	0	0	0	0	0	0	0	0	0	0	0	0	0
072319	16:05:08	16:09:48	278881	5.0.10.0	5_exp_noRW	998	Rpleas_acq	CS_A	JQQJ	LWWL	YFFY	DXXD	ZHHZ	CPPC	sonnig	vertrauen	träumen	genießen	küssen	gütig	sterben	versagen	töten	gemein	krank	gierig	53pct	acq_USunple_CSunple2_noRW	acq23456_noRW	2	62	0	0	300	300	385	50	0	0	1	blank2r.bmp	0	1	+	0	1	blank2r.bmp	252	1	DXXD	306	3	gierig	559	1	FEHLER	986	0	0	0	0	0	0	0	0	0	0	0	0	0	0	0	0	0	0	0	0	0	0	0	0	0	0	0	0	0	0	0	0	0	0	0	0
072319	16:05:08	16:09:50	280267	5.0.10.0	5_exp_noRW	998	Rpleas_acq	CS_A	JQQJ	LWWL	YFFY	DXXD	ZHHZ	CPPC	sonnig	vertrauen	träumen	genießen	küssen	gütig	sterben	versagen	töten	gemein	krank	gierig	53pct	acq_USpleas_CSpleas1_noRW	acq23456_noRW	2	63	0	0	300	300	425	50	0	1	1	blank2r.bmp	0	1	+	0	1	blank2r.bmp	252	1	JQQJ	306	1	sonnig	559	0	0	0	0	0	0	0	0	0	0	0	0	0	0	0	0	0	0	0	0	0	0	0	0	0	0	0	0	0	0	0	0	0	0	0	0	0	0	0
072319	16:05:08	16:09:51	281919	5.0.10.0	5_exp_noRW	998	Rpleas_acq	CS_A	JQQJ	LWWL	YFFY	DXXD	ZHHZ	CPPC	sonnig	vertrauen	träumen	genießen	küssen	gütig	sterben	versagen	töten	gemein	krank	gierig	47pct	acq_USunple_CSunple1_noRW	acq23456_noRW	2	64	0	0	300	300	481	46	0	1	1	blank2r.bmp	0	1	+	0	1	blank2r.bmp	252	1	YFFY	306	2	versagen	559	0	0	0	0	0	0	0	0	0	0	0	0	0	0	0	0	0	0	0	0	0	0	0	0	0	0	0	0	0	0	0	0	0	0	0	0	0	0	0
072319	16:05:08	16:09:53	283452	5.0.10.0	5_exp_noRW	998	Rpleas_acq	CS_A	JQQJ	LWWL	YFFY	DXXD	ZHHZ	CPPC	sonnig	vertrauen	träumen	genießen	küssen	gütig	sterben	versagen	töten	gemein	krank	gierig	53pct	acq_USpleas_CSpleas2_noRW	acq23456_noRW	2	65	0	0	300	300	366	50	0	1	1	blank2r.bmp	0	1	+	0	1	blank2r.bmp	252	1	LWWL	306	3	gütig	559	0	0	0	0	0	0	0	0	0	0	0	0	0	0	0	0	0	0	0	0	0	0	0	0	0	0	0	0	0	0	0	0	0	0	0	0	0	0	0
072319	16:05:08	16:09:54	285038	5.0.10.0	5_exp_noRW	998	Rpleas_acq	CS_A	JQQJ	LWWL	YFFY	DXXD	ZHHZ	CPPC	sonnig	vertrauen	träumen	genießen	küssen	gütig	sterben	versagen	töten	gemein	krank	gierig	53pct	acq_USpleas_CSpleas2_noRW	acq23456_noRW	2	66	0	0	300	300	419	50	0	1	1	blank2r.bmp	0	1	+	0	1	blank2r.bmp	252	1	LWWL	306	1	genießen	559	0	0	0	0	0	0	0	0	0	0	0	0	0	0	0	0	0	0	0	0	0	0	0	0	0	0	0	0	0	0	0	0	0	0	0	0	0	0	0
072319	16:05:08	16:09:56	286571	5.0.10.0	5_exp_noRW	998	Rpleas_acq	CS_A	JQQJ	LWWL	YFFY	DXXD	ZHHZ	CPPC	sonnig	vertrauen	träumen	genießen	küssen	gütig	sterben	versagen	töten	gemein	krank	gierig	53pct	acq_USpleas_CSpleas2_noRW	acq23456_noRW	2	67	0	0	300	300	365	50	0	1	1	blank2r.bmp	0	1	+	0	1	blank2r.bmp	252	1	LWWL	306	3	gütig	559	0	0	0	0	0	0	0	0	0	0	0	0	0	0	0	0	0	0	0	0	0	0	0	0	0	0	0	0	0	0	0	0	0	0	0	0	0	0	0
072319	16:05:08	16:09:57	288144	5.0.10.0	5_exp_noRW	998	Rpleas_acq	CS_A	JQQJ	LWWL	YFFY	DXXD	ZHHZ	CPPC	sonnig	vertrauen	träumen	genießen	küssen	gütig	sterben	versagen	töten	gemein	krank	gierig	53pct	acq_USunple_CSunple2_noRW	acq23456_noRW	2	68	0	0	300	300	401	46	0	1	1	blank2r.bmp	0	1	+	0	1	blank2r.bmp	252	1	DXXD	306	1	gemein	572	0	0	0	0	0	0	0	0	0	0	0	0	0	0	0	0	0	0	0	0	0	0	0	0	0	0	0	0	0	0	0	0	0	0	0	0	0	0	0
072319	16:05:08	16:09:59	289756	5.0.10.0	5_exp_noRW	998	Rpleas_acq	CS_A	JQQJ	LWWL	YFFY	DXXD	ZHHZ	CPPC	sonnig	vertrauen	träumen	genießen	küssen	gütig	sterben	versagen	töten	gemein	krank	gierig	47pct	acq_USunple_CSunple1_noRW	acq23456_noRW	2	69	0	0	300	300	442	46	0	1	1	blank2r.bmp	0	1	+	0	1	blank2r.bmp	252	1	YFFY	306	1	sterben	559	0	0	0	0	0	0	0	0	0	0	0	0	0	0	0	0	0	0	0	0	0	0	0	0	0	0	0	0	0	0	0	0	0	0	0	0	0	0	0
072319	16:05:08	16:10:01	291316	5.0.10.0	5_exp_noRW	998	Rpleas_acq	CS_A	JQQJ	LWWL	YFFY	DXXD	ZHHZ	CPPC	sonnig	vertrauen	träumen	genießen	küssen	gütig	sterben	versagen	töten	gemein	krank	gierig	47pct	acq_USpleas_CSpleas1_noRW	acq23456_noRW	2	70	0	0	300	300	391	50	0	1	1	blank2r.bmp	0	1	+	0	1	blank2r.bmp	252	1	JQQJ	306	3	träumen	559	0	0	0	0	0	0	0	0	0	0	0	0	0	0	0	0	0	0	0	0	0	0	0	0	0	0	0	0	0	0	0	0	0	0	0	0	0	0	0
072319	16:05:08	16:10:02	292902	5.0.10.0	5_exp_noRW	998	Rpleas_acq	CS_A	JQQJ	LWWL	YFFY	DXXD	ZHHZ	CPPC	sonnig	vertrauen	träumen	genießen	küssen	gütig	sterben	versagen	töten	gemein	krank	gierig	53pct	acq_USunple_CSpleas1_noRW	acq23456_noRW	2	71	0	0	300	300	425	46	0	1	1	blank2r.bmp	0	1	+	0	1	blank2r.bmp	252	1	JQQJ	306	3	töten	559	0	0	0	0	0	0	0	0	0	0	0	0	0	0	0	0	0	0	0	0	0	0	0	0	0	0	0	0	0	0	0	0	0	0	0	0	0	0	0
072319	16:05:08	16:10:04	294501	5.0.10.0	5_exp_noRW	998	Rpleas_acq	CS_A	JQQJ	LWWL	YFFY	DXXD	ZHHZ	CPPC	sonnig	vertrauen	träumen	genießen	küssen	gütig	sterben	versagen	töten	gemein	krank	gierig	47pct	acq_USunple_CSunple1_noRW	acq23456_noRW	2	72	0	0	300	300	425	46	0	1	1	blank2r.bmp	1	1	+	1	1	blank2r.bmp	252	1	YFFY	306	2	versagen	559	0	0	0	0	0	0	0	0	0	0	0	0	0	0	0	0	0	0	0	0	0	0	0	0	0	0	0	0	0	0	0	0	0	0	0	0	0	0	0
072319	16:05:08	16:10:05	296047	5.0.10.0	5_exp_noRW	998	Rpleas_acq	CS_A	JQQJ	LWWL	YFFY	DXXD	ZHHZ	CPPC	sonnig	vertrauen	träumen	genießen	küssen	gütig	sterben	versagen	töten	gemein	krank	gierig	47pct	acq_USunple_CSunple2_noRW	acq23456_noRW	2	73	0	0	300	300	376	46	0	1	1	blank2r.bmp	0	1	+	0	1	blank2r.bmp	252	1	DXXD	306	2	krank	559	0	0	0	0	0	0	0	0	0	0	0	0	0	0	0	0	0	0	0	0	0	0	0	0	0	0	0	0	0	0	0	0	0	0	0	0	0	0	0
072319	16:05:08	16:10:07	297580	5.0.10.0	5_exp_noRW	998	Rpleas_acq	CS_A	JQQJ	LWWL	YFFY	DXXD	ZHHZ	CPPC	sonnig	vertrauen	träumen	genießen	küssen	gütig	sterben	versagen	töten	gemein	krank	gierig	53pct	acq_USpleas_CSpleas2_noRW	acq23456_noRW	2	74	0	0	300	300	369	50	0	1	1	blank2r.bmp	0	1	+	0	1	blank2r.bmp	252	1	LWWL	306	2	küssen	559	0	0	0	0	0	0	0	0	0	0	0	0	0	0	0	0	0	0	0	0	0	0	0	0	0	0	0	0	0	0	0	0	0	0	0	0	0	0	0
072319	16:05:08	16:10:08	299219	5.0.10.0	5_exp_noRW	998	Rpleas_acq	CS_A	JQQJ	LWWL	YFFY	DXXD	ZHHZ	CPPC	sonnig	vertrauen	träumen	genießen	küssen	gütig	sterben	versagen	töten	gemein	krank	gierig	47pct	acq_USpleas_CSunple2_noRW	acq23456_noRW	2	75	0	0	300	300	470	50	0	1	1	blank2r.bmp	0	1	+	0	1	blank2r.bmp	252	1	DXXD	306	3	gütig	559	0	0	0	0	0	0	0	0	0	0	0	0	0	0	0	0	0	0	0	0	0	0	0	0	0	0	0	0	0	0	0	0	0	0	0	0	0	0	0
072319	16:05:08	16:10:10	300805	5.0.10.0	5_exp_noRW	998	Rpleas_acq	CS_A	JQQJ	LWWL	YFFY	DXXD	ZHHZ	CPPC	sonnig	vertrauen	träumen	genießen	küssen	gütig	sterben	versagen	töten	gemein	krank	gierig	47pct	acq_USpleas_CSunple1_noRW	acq23456_noRW	2	76	0	0	300	300	414	50	0	1	1	blank2r.bmp	0	1	+	0	1	blank2r.bmp	252	1	YFFY	306	1	sonnig	559	0	0	0	0	0	0	0	0	0	0	0	0	0	0	0	0	0	0	0	0	0	0	0	0	0	0	0	0	0	0	0	0	0	0	0	0	0	0	0
072319	16:05:08	16:10:12	302884	5.0.10.0	5_exp_noRW	998	Rpleas_acq	CS_A	JQQJ	LWWL	YFFY	DXXD	ZHHZ	CPPC	sonnig	vertrauen	träumen	genießen	küssen	gütig	sterben	versagen	töten	gemein	krank	gierig	53pct	acq_USpleas_CSpleas1_noRW	acq23456_noRW	2	77	0	0	300	300	704	46	0	0	1	blank2r.bmp	0	1	+	0	1	blank2r.bmp	252	1	JQQJ	306	2	vertrauen	559	1	FEHLER	1292	0	0	0	0	0	0	0	0	0	0	0	0	0	0	0	0	0	0	0	0	0	0	0	0	0	0	0	0	0	0	0	0	0	0	0	0
072319	16:05:08	16:10:13	304244	5.0.10.0	5_exp_noRW	998	Rpleas_acq	CS_A	JQQJ	LWWL	YFFY	DXXD	ZHHZ	CPPC	sonnig	vertrauen	träumen	genießen	küssen	gütig	sterben	versagen	töten	gemein	krank	gierig	47pct	acq_USunple_CSunple2_noRW	acq23456_noRW	2	78	0	0	300	300	392	46	0	1	1	blank2r.bmp	0	1	+	0	1	blank2r.bmp	252	1	DXXD	306	3	gierig	559	0	0	0	0	0	0	0	0	0	0	0	0	0	0	0	0	0	0	0	0	0	0	0	0	0	0	0	0	0	0	0	0	0	0	0	0	0	0	0
072319	16:05:08	16:10:15	306083	5.0.10.0	5_exp_noRW	998	Rpleas_acq	CS_A	JQQJ	LWWL	YFFY	DXXD	ZHHZ	CPPC	sonnig	vertrauen	träumen	genießen	küssen	gütig	sterben	versagen	töten	gemein	krank	gierig	47pct	acq_USunple_CSpleas2_noRW	acq23456_noRW	2	79	0	0	300	300	461	50	0	0	1	blank2r.bmp	0	1	+	0	1	blank2r.bmp	252	1	LWWL	306	3	gierig	559	1	FEHLER	1052	0	0	0	0	0	0	0	0	0	0	0	0	0	0	0	0	0	0	0	0	0	0	0	0	0	0	0	0	0	0	0	0	0	0	0	0
072319	16:05:08	16:10:17	307509	5.0.10.0	5_exp_noRW	998	Rpleas_acq	CS_A	JQQJ	LWWL	YFFY	DXXD	ZHHZ	CPPC	sonnig	vertrauen	träumen	genießen	küssen	gütig	sterben	versagen	töten	gemein	krank	gierig	47pct	acq_USunple_CSunple1_noRW	acq23456_noRW	2	80	0	0	300	300	475	46	0	1	1	blank2r.bmp	0	1	+	0	1	blank2r.bmp	252	1	YFFY	306	1	sterben	559	0	0	0	0	0	0	0	0	0	0	0	0	0	0	0	0	0	0	0	0	0	0	0	0	0	0	0	0	0	0	0	0	0	0	0	0	0	0	0
072319	16:05:08	16:10:28	318465	5.0.10.0	5_exp_noRW	998	Rpleas_acq	CS_A	JQQJ	LWWL	YFFY	DXXD	ZHHZ	CPPC	sonnig	vertrauen	träumen	genießen	küssen	gütig	sterben	versagen	töten	gemein	krank	gierig	53pct	acq_USpleas_CSpleas1_noRW	acq23456_noRW	3	1	0	0	300	300	449	50	0	1	1	blank2r.bmp	0	1	+	0	1	blank2r.bmp	252	1	JQQJ	306	1	sonnig	559	0	0	0	0	0	0	0	0	0	0	0	0	0	0	0	0	0	0	0	0	0	0	0	0	0	0	0	0	0	0	0	0	0	0	0	0	0	0	0
072319	16:05:08	16:10:29	319971	5.0.10.0	5_exp_noRW	998	Rpleas_acq	CS_A	JQQJ	LWWL	YFFY	DXXD	ZHHZ	CPPC	sonnig	vertrauen	träumen	genießen	küssen	gütig	sterben	versagen	töten	gemein	krank	gierig	53pct	acq_USunple_CSunple1_noRW	acq23456_noRW	3	2	0	0	300	300	338	46	0	1	1	blank2r.bmp	0	1	+	0	1	blank2r.bmp	252	1	YFFY	306	3	töten	559	0	0	0	0	0	0	0	0	0	0	0	0	0	0	0	0	0	0	0	0	0	0	0	0	0	0	0	0	0	0	0	0	0	0	0	0	0	0	0
072319	16:05:08	16:10:31	321503	5.0.10.0	5_exp_noRW	998	Rpleas_acq	CS_A	JQQJ	LWWL	YFFY	DXXD	ZHHZ	CPPC	sonnig	vertrauen	träumen	genießen	küssen	gütig	sterben	versagen	töten	gemein	krank	gierig	53pct	acq_USpleas_CSpleas1_noRW	acq23456_noRW	3	3	0	0	300	300	365	50	0	1	1	blank2r.bmp	0	1	+	0	1	blank2r.bmp	252	1	JQQJ	306	1	sonnig	559	0	0	0	0	0	0	0	0	0	0	0	0	0	0	0	0	0	0	0	0	0	0	0	0	0	0	0	0	0	0	0	0	0	0	0	0	0	0	0
072319	16:05:08	16:10:33	323249	5.0.10.0	5_exp_noRW	998	Rpleas_acq	CS_A	JQQJ	LWWL	YFFY	DXXD	ZHHZ	CPPC	sonnig	vertrauen	träumen	genießen	küssen	gütig	sterben	versagen	töten	gemein	krank	gierig	47pct	acq_USunple_CSunple1_noRW	acq23456_noRW	3	4	0	0	300	300	570	46	0	1	1	blank2r.bmp	0	1	+	0	1	blank2r.bmp	253	1	YFFY	306	1	sterben	559	0	0	0	0	0	0	0	0	0	0	0	0	0	0	0	0	0	0	0	0	0	0	0	0	0	0	0	0	0	0	0	0	0	0	0	0	0	0	0
072319	16:05:08	16:10:34	324875	5.0.10.0	5_exp_noRW	998	Rpleas_acq	CS_A	JQQJ	LWWL	YFFY	DXXD	ZHHZ	CPPC	sonnig	vertrauen	träumen	genießen	küssen	gütig	sterben	versagen	töten	gemein	krank	gierig	47pct	acq_USunple_CSunple2_noRW	acq23456_noRW	3	5	0	0	300	300	455	46	0	1	1	blank2r.bmp	3	1	+	3	1	blank2r.bmp	252	1	DXXD	306	1	gemein	559	0	0	0	0	0	0	0	0	0	0	0	0	0	0	0	0	0	0	0	0	0	0	0	0	0	0	0	0	0	0	0	0	0	0	0	0	0	0	0
072319	16:05:08	16:10:36	326461	5.0.10.0	5_exp_noRW	998	Rpleas_acq	CS_A	JQQJ	LWWL	YFFY	DXXD	ZHHZ	CPPC	sonnig	vertrauen	träumen	genießen	küssen	gütig	sterben	versagen	töten	gemein	krank	gierig	47pct	acq_USunple_CSunple2_noRW	acq23456_noRW	3	6	0	0	300	300	402	46	0	1	1	blank2r.bmp	0	1	+	0	1	blank2r.bmp	252	1	DXXD	312	2	krank	559	0	0	0	0	0	0	0	0	0	0	0	0	0	0	0	0	0	0	0	0	0	0	0	0	0	0	0	0	0	0	0	0	0	0	0	0	0	0	0
072319	16:05:08	16:10:37	328167	5.0.10.0	5_exp_noRW	998	Rpleas_acq	CS_A	JQQJ	LWWL	YFFY	DXXD	ZHHZ	CPPC	sonnig	vertrauen	träumen	genießen	küssen	gütig	sterben	versagen	töten	gemein	krank	gierig	47pct	acq_USpleas_CSunple1_noRW	acq23456_noRW	3	7	0	0	300	300	541	50	0	1	1	blank2r.bmp	0	1	+	0	1	blank2r.bmp	252	1	YFFY	306	2	vertrauen	559	0	0	0	0	0	0	0	0	0	0	0	0	0	0	0	0	0	0	0	0	0	0	0	0	0	0	0	0	0	0	0	0	0	0	0	0	0	0	0
072319	16:05:08	16:10:39	329740	5.0.10.0	5_exp_noRW	998	Rpleas_acq	CS_A	JQQJ	LWWL	YFFY	DXXD	ZHHZ	CPPC	sonnig	vertrauen	träumen	genießen	küssen	gütig	sterben	versagen	töten	gemein	krank	gierig	47pct	acq_USunple_CSunple1_noRW	acq23456_noRW	3	8	0	0	300	300	409	46	0	1	1	blank2r.bmp	0	1	+	0	1	blank2r.bmp	252	1	YFFY	306	3	töten	559	0	0	0	0	0	0	0	0	0	0	0	0	0	0	0	0	0	0	0	0	0	0	0	0	0	0	0	0	0	0	0	0	0	0	0	0	0	0	0
072319	16:05:08	16:10:41	331659	5.0.10.0	5_exp_noRW	998	Rpleas_acq	CS_A	JQQJ	LWWL	YFFY	DXXD	ZHHZ	CPPC	sonnig	vertrauen	träumen	genießen	küssen	gütig	sterben	versagen	töten	gemein	krank	gierig	53pct	acq_USpleas_CSpleas2_noRW	acq23456_noRW	3	9	0	0	300	300	749	50	0	1	1	blank2r.bmp	0	1	+	0	1	blank2r.bmp	252	1	LWWL	306	1	genießen	559	0	0	0	0	0	0	0	0	0	0	0	0	0	0	0	0	0	0	0	0	0	0	0	0	0	0	0	0	0	0	0	0	0	0	0	0	0	0	0
072319	16:05:08	16:10:42	333245	5.0.10.0	5_exp_noRW	998	Rpleas_acq	CS_A	JQQJ	LWWL	YFFY	DXXD	ZHHZ	CPPC	sonnig	vertrauen	träumen	genießen	küssen	gütig	sterben	versagen	töten	gemein	krank	gierig	47pct	acq_USpleas_CSpleas2_noRW	acq23456_noRW	3	10	0	0	300	300	419	50	0	1	1	blank2r.bmp	0	1	+	0	1	blank2r.bmp	253	1	LWWL	306	3	gütig	559	0	0	0	0	0	0	0	0	0	0	0	0	0	0	0	0	0	0	0	0	0	0	0	0	0	0	0	0	0	0	0	0	0	0	0	0	0	0	0
072319	16:05:08	16:10:44	334898	5.0.10.0	5_exp_noRW	998	Rpleas_acq	CS_A	JQQJ	LWWL	YFFY	DXXD	ZHHZ	CPPC	sonnig	vertrauen	träumen	genießen	küssen	gütig	sterben	versagen	töten	gemein	krank	gierig	47pct	acq_USpleas_CSpleas1_noRW	acq23456_noRW	3	11	0	0	300	300	480	50	0	1	1	blank2r.bmp	0	1	+	0	1	blank2r.bmp	252	1	JQQJ	306	2	vertrauen	559	0	0	0	0	0	0	0	0	0	0	0	0	0	0	0	0	0	0	0	0	0	0	0	0	0	0	0	0	0	0	0	0	0	0	0	0	0	0	0
072319	16:05:08	16:10:46	336457	5.0.10.0	5_exp_noRW	998	Rpleas_acq	CS_A	JQQJ	LWWL	YFFY	DXXD	ZHHZ	CPPC	sonnig	vertrauen	träumen	genießen	küssen	gütig	sterben	versagen	töten	gemein	krank	gierig	53pct	acq_USunple_CSunple2_noRW	acq23456_noRW	3	12	0	0	300	300	395	46	0	1	1	blank2r.bmp	0	1	+	0	1	blank2r.bmp	252	1	DXXD	306	1	gemein	559	0	0	0	0	0	0	0	0	0	0	0	0	0	0	0	0	0	0	0	0	0	0	0	0	0	0	0	0	0	0	0	0	0	0	0	0	0	0	0
072319	16:05:08	16:10:47	338017	5.0.10.0	5_exp_noRW	998	Rpleas_acq	CS_A	JQQJ	LWWL	YFFY	DXXD	ZHHZ	CPPC	sonnig	vertrauen	träumen	genießen	küssen	gütig	sterben	versagen	töten	gemein	krank	gierig	53pct	acq_USpleas_CSpleas1_noRW	acq23456_noRW	3	13	0	0	300	300	396	50	0	1	1	blank2r.bmp	0	1	+	0	1	blank2r.bmp	253	1	JQQJ	306	3	träumen	559	0	0	0	0	0	0	0	0	0	0	0	0	0	0	0	0	0	0	0	0	0	0	0	0	0	0	0	0	0	0	0	0	0	0	0	0	0	0	0
072319	16:05:08	16:10:49	339709	5.0.10.0	5_exp_noRW	998	Rpleas_acq	CS_A	JQQJ	LWWL	YFFY	DXXD	ZHHZ	CPPC	sonnig	vertrauen	träumen	genießen	küssen	gütig	sterben	versagen	töten	gemein	krank	gierig	47pct	acq_USunple_CSpleas2_noRW	acq23456_noRW	3	14	0	0	300	300	518	46	0	1	1	blank2r.bmp	0	1	+	0	1	blank2r.bmp	252	1	LWWL	306	2	krank	559	0	0	0	0	0	0	0	0	0	0	0	0	0	0	0	0	0	0	0	0	0	0	0	0	0	0	0	0	0	0	0	0	0	0	0	0	0	0	0
072319	16:05:08	16:10:51	341255	5.0.10.0	5_exp_noRW	998	Rpleas_acq	CS_A	JQQJ	LWWL	YFFY	DXXD	ZHHZ	CPPC	sonnig	vertrauen	träumen	genießen	küssen	gütig	sterben	versagen	töten	gemein	krank	gierig	47pct	acq_USunple_CSpleas1_noRW	acq23456_noRW	3	15	0	0	300	300	378	46	0	1	1	blank2r.bmp	0	1	+	0	1	blank2r.bmp	252	1	JQQJ	306	1	sterben	559	0	0	0	0	0	0	0	0	0	0	0	0	0	0	0	0	0	0	0	0	0	0	0	0	0	0	0	0	0	0	0	0	0	0	0	0	0	0	0
072319	16:05:08	16:10:52	342935	5.0.10.0	5_exp_noRW	998	Rpleas_acq	CS_A	JQQJ	LWWL	YFFY	DXXD	ZHHZ	CPPC	sonnig	vertrauen	träumen	genießen	küssen	gütig	sterben	versagen	töten	gemein	krank	gierig	53pct	acq_USunple_CSunple1_noRW	acq23456_noRW	3	16	0	0	300	300	516	46	0	1	1	blank2r.bmp	0	1	+	0	1	blank2r.bmp	252	1	YFFY	306	2	versagen	559	0	0	0	0	0	0	0	0	0	0	0	0	0	0	0	0	0	0	0	0	0	0	0	0	0	0	0	0	0	0	0	0	0	0	0	0	0	0	0
072319	16:05:08	16:10:54	344521	5.0.10.0	5_exp_noRW	998	Rpleas_acq	CS_A	JQQJ	LWWL	YFFY	DXXD	ZHHZ	CPPC	sonnig	vertrauen	träumen	genießen	küssen	gütig	sterben	versagen	töten	gemein	krank	gierig	47pct	acq_USpleas_CSpleas2_noRW	acq23456_noRW	3	17	0	0	300	300	399	50	0	1	1	blank2r.bmp	0	1	+	0	1	blank2r.bmp	252	1	LWWL	306	1	genießen	559	0	0	0	0	0	0	0	0	0	0	0	0	0	0	0	0	0	0	0	0	0	0	0	0	0	0	0	0	0	0	0	0	0	0	0	0	0	0	0
072319	16:05:08	16:10:55	346147	5.0.10.0	5_exp_noRW	998	Rpleas_acq	CS_A	JQQJ	LWWL	YFFY	DXXD	ZHHZ	CPPC	sonnig	vertrauen	träumen	genießen	küssen	gütig	sterben	versagen	töten	gemein	krank	gierig	47pct	acq_USpleas_CSunple2_noRW	acq23456_noRW	3	18	0	0	300	300	455	50	0	1	1	blank2r.bmp	0	1	+	0	1	blank2r.bmp	252	1	DXXD	306	2	küssen	559	0	0	0	0	0	0	0	0	0	0	0	0	0	0	0	0	0	0	0	0	0	0	0	0	0	0	0	0	0	0	0	0	0	0	0	0	0	0	0
072319	16:05:08	16:10:57	347853	5.0.10.0	5_exp_noRW	998	Rpleas_acq	CS_A	JQQJ	LWWL	YFFY	DXXD	ZHHZ	CPPC	sonnig	vertrauen	träumen	genießen	küssen	gütig	sterben	versagen	töten	gemein	krank	gierig	53pct	acq_USpleas_CSpleas2_noRW	acq23456_noRW	3	19	0	0	300	300	536	50	0	1	1	blank2r.bmp	0	1	+	0	1	blank2r.bmp	252	1	LWWL	306	2	küssen	559	0	0	0	0	0	0	0	0	0	0	0	0	0	0	0	0	0	0	0	0	0	0	0	0	0	0	0	0	0	0	0	0	0	0	0	0	0	0	0
072319	16:05:08	16:10:59	349519	5.0.10.0	5_exp_noRW	998	Rpleas_acq	CS_A	JQQJ	LWWL	YFFY	DXXD	ZHHZ	CPPC	sonnig	vertrauen	träumen	genießen	küssen	gütig	sterben	versagen	töten	gemein	krank	gierig	47pct	acq_USunple_CSunple2_noRW	acq23456_noRW	3	20	0	0	300	300	503	46	0	1	1	blank2r.bmp	0	1	+	0	1	blank2r.bmp	252	1	DXXD	306	3	gierig	559	0	0	0	0	0	0	0	0	0	0	0	0	0	0	0	0	0	0	0	0	0	0	0	0	0	0	0	0	0	0	0	0	0	0	0	0	0	0	0
072319	16:05:08	16:11:01	351491	5.0.10.0	5_exp_noRW	998	Rpleas_acq	CS_A	JQQJ	LWWL	YFFY	DXXD	ZHHZ	CPPC	sonnig	vertrauen	träumen	genießen	küssen	gütig	sterben	versagen	töten	gemein	krank	gierig	47pct	acq_USunple_CSunple1_noRW	acq23456_noRW	3	21	0	0	300	300	794	46	0	1	1	blank2r.bmp	0	1	+	0	1	blank2r.bmp	252	1	YFFY	306	1	sterben	559	0	0	0	0	0	0	0	0	0	0	0	0	0	0	0	0	0	0	0	0	0	0	0	0	0	0	0	0	0	0	0	0	0	0	0	0	0	0	0
072319	16:05:08	16:11:03	353490	5.0.10.0	5_exp_noRW	998	Rpleas_acq	CS_A	JQQJ	LWWL	YFFY	DXXD	ZHHZ	CPPC	sonnig	vertrauen	träumen	genießen	küssen	gütig	sterben	versagen	töten	gemein	krank	gierig	47pct	acq_USunple_CSunple2_noRW	acq23456_noRW	3	22	0	0	300	300	832	46	0	1	1	blank2r.bmp	0	1	+	0	1	blank2r.bmp	252	1	DXXD	306	3	gierig	559	0	0	0	0	0	0	0	0	0	0	0	0	0	0	0	0	0	0	0	0	0	0	0	0	0	0	0	0	0	0	0	0	0	0	0	0	0	0	0
072319	16:05:08	16:11:04	355156	5.0.10.0	5_exp_noRW	998	Rpleas_acq	CS_A	JQQJ	LWWL	YFFY	DXXD	ZHHZ	CPPC	sonnig	vertrauen	träumen	genießen	küssen	gütig	sterben	versagen	töten	gemein	krank	gierig	53pct	acq_USpleas_CSpleas2_noRW	acq23456_noRW	3	23	0	0	300	300	497	50	0	1	1	blank2r.bmp	0	1	+	0	1	blank2r.bmp	252	1	LWWL	306	3	gütig	559	0	0	0	0	0	0	0	0	0	0	0	0	0	0	0	0	0	0	0	0	0	0	0	0	0	0	0	0	0	0	0	0	0	0	0	0	0	0	0
072319	16:05:08	16:11:06	356796	5.0.10.0	5_exp_noRW	998	Rpleas_acq	CS_A	JQQJ	LWWL	YFFY	DXXD	ZHHZ	CPPC	sonnig	vertrauen	träumen	genießen	küssen	gütig	sterben	versagen	töten	gemein	krank	gierig	53pct	acq_USpleas_CSpleas1_noRW	acq23456_noRW	3	24	0	0	300	300	467	50	0	1	1	blank2r.bmp	0	1	+	0	1	blank2r.bmp	252	1	JQQJ	306	2	vertrauen	571	0	0	0	0	0	0	0	0	0	0	0	0	0	0	0	0	0	0	0	0	0	0	0	0	0	0	0	0	0	0	0	0	0	0	0	0	0	0	0
072319	16:05:08	16:11:08	358448	5.0.10.0	5_exp_noRW	998	Rpleas_acq	CS_A	JQQJ	LWWL	YFFY	DXXD	ZHHZ	CPPC	sonnig	vertrauen	träumen	genießen	küssen	gütig	sterben	versagen	töten	gemein	krank	gierig	53pct	acq_USunple_CSunple1_noRW	acq23456_noRW	3	25	0	0	300	300	481	46	0	1	1	blank2r.bmp	0	1	+	0	1	blank2r.bmp	256	1	YFFY	306	3	töten	559	0	0	0	0	0	0	0	0	0	0	0	0	0	0	0	0	0	0	0	0	0	0	0	0	0	0	0	0	0	0	0	0	0	0	0	0	0	0	0
072319	16:05:08	16:11:09	360061	5.0.10.0	5_exp_noRW	998	Rpleas_acq	CS_A	JQQJ	LWWL	YFFY	DXXD	ZHHZ	CPPC	sonnig	vertrauen	träumen	genießen	küssen	gütig	sterben	versagen	töten	gemein	krank	gierig	53pct	acq_USpleas_CSunple1_noRW	acq23456_noRW	3	26	0	0	300	300	441	50	0	1	1	blank2r.bmp	0	1	+	0	1	blank2r.bmp	252	1	YFFY	306	2	vertrauen	560	0	0	0	0	0	0	0	0	0	0	0	0	0	0	0	0	0	0	0	0	0	0	0	0	0	0	0	0	0	0	0	0	0	0	0	0	0	0	0
072319	16:05:08	16:11:11	361620	5.0.10.0	5_exp_noRW	998	Rpleas_acq	CS_A	JQQJ	LWWL	YFFY	DXXD	ZHHZ	CPPC	sonnig	vertrauen	träumen	genießen	küssen	gütig	sterben	versagen	töten	gemein	krank	gierig	53pct	acq_USunple_CSunple1_noRW	acq23456_noRW	3	27	0	0	300	300	386	46	0	1	1	blank2r.bmp	0	1	+	0	1	blank2r.bmp	252	1	YFFY	306	2	versagen	559	0	0	0	0	0	0	0	0	0	0	0	0	0	0	0	0	0	0	0	0	0	0	0	0	0	0	0	0	0	0	0	0	0	0	0	0	0	0	0
072319	16:05:08	16:11:13	363313	5.0.10.0	5_exp_noRW	998	Rpleas_acq	CS_A	JQQJ	LWWL	YFFY	DXXD	ZHHZ	CPPC	sonnig	vertrauen	träumen	genießen	küssen	gütig	sterben	versagen	töten	gemein	krank	gierig	53pct	acq_USunple_CSpleas2_noRW	acq23456_noRW	3	28	0	0	300	300	521	46	0	1	1	blank2r.bmp	0	1	+	0	1	blank2r.bmp	252	1	LWWL	306	3	gierig	559	0	0	0	0	0	0	0	0	0	0	0	0	0	0	0	0	0	0	0	0	0	0	0	0	0	0	0	0	0	0	0	0	0	0	0	0	0	0	0
072319	16:05:08	16:11:14	364939	5.0.10.0	5_exp_noRW	998	Rpleas_acq	CS_A	JQQJ	LWWL	YFFY	DXXD	ZHHZ	CPPC	sonnig	vertrauen	träumen	genießen	küssen	gütig	sterben	versagen	töten	gemein	krank	gierig	47pct	acq_USpleas_CSpleas2_noRW	acq23456_noRW	3	29	0	0	300	300	455	50	0	1	1	blank2r.bmp	0	1	+	0	1	blank2r.bmp	252	1	LWWL	306	1	genießen	559	0	0	0	0	0	0	0	0	0	0	0	0	0	0	0	0	0	0	0	0	0	0	0	0	0	0	0	0	0	0	0	0	0	0	0	0	0	0	0
072319	16:05:08	16:11:16	366565	5.0.10.0	5_exp_noRW	998	Rpleas_acq	CS_A	JQQJ	LWWL	YFFY	DXXD	ZHHZ	CPPC	sonnig	vertrauen	träumen	genießen	küssen	gütig	sterben	versagen	töten	gemein	krank	gierig	47pct	acq_USunple_CSunple2_noRW	acq23456_noRW	3	30	0	0	300	300	437	46	0	1	1	blank2r.bmp	0	1	+	0	1	blank2r.bmp	252	1	DXXD	306	1	gemein	559	0	0	0	0	0	0	0	0	0	0	0	0	0	0	0	0	0	0	0	0	0	0	0	0	0	0	0	0	0	0	0	0	0	0	0	0	0	0	0
072319	16:05:08	16:11:17	368244	5.0.10.0	5_exp_noRW	998	Rpleas_acq	CS_A	JQQJ	LWWL	YFFY	DXXD	ZHHZ	CPPC	sonnig	vertrauen	träumen	genießen	küssen	gütig	sterben	versagen	töten	gemein	krank	gierig	53pct	acq_USunple_CSunple2_noRW	acq23456_noRW	3	31	0	0	300	300	508	46	0	1	1	blank2r.bmp	0	1	+	0	1	blank2r.bmp	252	1	DXXD	306	2	krank	559	0	0	0	0	0	0	0	0	0	0	0	0	0	0	0	0	0	0	0	0	0	0	0	0	0	0	0	0	0	0	0	0	0	0	0	0	0	0	0
072319	16:05:08	16:11:19	369924	5.0.10.0	5_exp_noRW	998	Rpleas_acq	CS_A	JQQJ	LWWL	YFFY	DXXD	ZHHZ	CPPC	sonnig	vertrauen	träumen	genießen	küssen	gütig	sterben	versagen	töten	gemein	krank	gierig	53pct	acq_USpleas_CSpleas2_noRW	acq23456_noRW	3	32	0	0	300	300	503	50	0	1	1	blank2r.bmp	0	1	+	0	1	blank2r.bmp	252	1	LWWL	309	2	küssen	559	0	0	0	0	0	0	0	0	0	0	0	0	0	0	0	0	0	0	0	0	0	0	0	0	0	0	0	0	0	0	0	0	0	0	0	0	0	0	0
072319	16:05:08	16:11:21	371536	5.0.10.0	5_exp_noRW	998	Rpleas_acq	CS_A	JQQJ	LWWL	YFFY	DXXD	ZHHZ	CPPC	sonnig	vertrauen	träumen	genießen	küssen	gütig	sterben	versagen	töten	gemein	krank	gierig	53pct	acq_USunple_CSpleas1_noRW	acq23456_noRW	3	33	0	0	300	300	445	46	0	1	1	blank2r.bmp	0	1	+	0	1	blank2r.bmp	253	1	JQQJ	307	3	töten	559	0	0	0	0	0	0	0	0	0	0	0	0	0	0	0	0	0	0	0	0	0	0	0	0	0	0	0	0	0	0	0	0	0	0	0	0	0	0	0
072319	16:05:08	16:11:23	373336	5.0.10.0	5_exp_noRW	998	Rpleas_acq	CS_A	JQQJ	LWWL	YFFY	DXXD	ZHHZ	CPPC	sonnig	vertrauen	träumen	genießen	küssen	gütig	sterben	versagen	töten	gemein	krank	gierig	53pct	acq_USunple_CSunple2_noRW	acq23456_noRW	3	34	0	0	300	300	631	46	0	1	1	blank2r.bmp	0	1	+	0	1	blank2r.bmp	252	1	DXXD	306	3	gierig	560	0	0	0	0	0	0	0	0	0	0	0	0	0	0	0	0	0	0	0	0	0	0	0	0	0	0	0	0	0	0	0	0	0	0	0	0	0	0	0
072319	16:05:08	16:11:24	375002	5.0.10.0	5_exp_noRW	998	Rpleas_acq	CS_A	JQQJ	LWWL	YFFY	DXXD	ZHHZ	CPPC	sonnig	vertrauen	träumen	genießen	küssen	gütig	sterben	versagen	töten	gemein	krank	gierig	53pct	acq_USpleas_CSpleas1_noRW	acq23456_noRW	3	35	0	0	300	300	499	50	0	1	1	blank2r.bmp	0	1	+	0	1	blank2r.bmp	252	1	JQQJ	306	1	sonnig	559	0	0	0	0	0	0	0	0	0	0	0	0	0	0	0	0	0	0	0	0	0	0	0	0	0	0	0	0	0	0	0	0	0	0	0	0	0	0	0
072319	16:05:08	16:11:26	376627	5.0.10.0	5_exp_noRW	998	Rpleas_acq	CS_A	JQQJ	LWWL	YFFY	DXXD	ZHHZ	CPPC	sonnig	vertrauen	träumen	genießen	küssen	gütig	sterben	versagen	töten	gemein	krank	gierig	53pct	acq_USpleas_CSpleas1_noRW	acq23456_noRW	3	36	0	0	300	300	462	50	0	1	1	blank2r.bmp	0	1	+	0	1	blank2r.bmp	252	1	JQQJ	306	3	träumen	559	0	0	0	0	0	0	0	0	0	0	0	0	0	0	0	0	0	0	0	0	0	0	0	0	0	0	0	0	0	0	0	0	0	0	0	0	0	0	0
072319	16:05:08	16:11:28	378307	5.0.10.0	5_exp_noRW	998	Rpleas_acq	CS_A	JQQJ	LWWL	YFFY	DXXD	ZHHZ	CPPC	sonnig	vertrauen	träumen	genießen	küssen	gütig	sterben	versagen	töten	gemein	krank	gierig	47pct	acq_USpleas_CSpleas1_noRW	acq23456_noRW	3	37	0	0	300	300	506	50	0	1	1	blank2r.bmp	0	1	+	0	1	blank2r.bmp	252	1	JQQJ	306	2	vertrauen	559	0	0	0	0	0	0	0	0	0	0	0	0	0	0	0	0	0	0	0	0	0	0	0	0	0	0	0	0	0	0	0	0	0	0	0	0	0	0	0
072319	16:05:08	16:11:29	379746	5.0.10.0	5_exp_noRW	998	Rpleas_acq	CS_A	JQQJ	LWWL	YFFY	DXXD	ZHHZ	CPPC	sonnig	vertrauen	träumen	genießen	küssen	gütig	sterben	versagen	töten	gemein	krank	gierig	47pct	acq_USunple_CSunple1_noRW	acq23456_noRW	3	38	0	0	300	300	269	46	0	1	1	blank2r.bmp	0	1	+	0	1	blank2r.bmp	252	1	YFFY	306	2	versagen	559	0	0	0	0	0	0	0	0	0	0	0	0	0	0	0	0	0	0	0	0	0	0	0	0	0	0	0	0	0	0	0	0	0	0	0	0	0	0	0
072319	16:05:08	16:11:31	381412	5.0.10.0	5_exp_noRW	998	Rpleas_acq	CS_A	JQQJ	LWWL	YFFY	DXXD	ZHHZ	CPPC	sonnig	vertrauen	träumen	genießen	küssen	gütig	sterben	versagen	töten	gemein	krank	gierig	47pct	acq_USpleas_CSpleas2_noRW	acq23456_noRW	3	39	0	0	300	300	498	50	0	1	1	blank2r.bmp	0	1	+	0	1	blank2r.bmp	252	1	LWWL	306	3	gütig	559	0	0	0	0	0	0	0	0	0	0	0	0	0	0	0	0	0	0	0	0	0	0	0	0	0	0	0	0	0	0	0	0	0	0	0	0	0	0	0
072319	16:05:08	16:11:32	383038	5.0.10.0	5_exp_noRW	998	Rpleas_acq	CS_A	JQQJ	LWWL	YFFY	DXXD	ZHHZ	CPPC	sonnig	vertrauen	träumen	genießen	küssen	gütig	sterben	versagen	töten	gemein	krank	gierig	47pct	acq_USpleas_CSunple2_noRW	acq23456_noRW	3	40	0	0	300	300	442	50	0	1	1	blank2r.bmp	0	1	+	0	1	blank2r.bmp	252	1	DXXD	306	3	gütig	559	0	0	0	0	0	0	0	0	0	0	0	0	0	0	0	0	0	0	0	0	0	0	0	0	0	0	0	0	0	0	0	0	0	0	0	0	0	0	0
072319	16:05:08	16:11:34	384558	5.0.10.0	5_exp_noRW	998	Rpleas_acq	CS_A	JQQJ	LWWL	YFFY	DXXD	ZHHZ	CPPC	sonnig	vertrauen	träumen	genießen	küssen	gütig	sterben	versagen	töten	gemein	krank	gierig	47pct	acq_USunple_CSunple1_noRW	acq23456_noRW	3	41	0	0	300	300	354	46	0	1	1	blank2r.bmp	0	1	+	0	1	blank2r.bmp	252	1	YFFY	306	3	töten	559	0	0	0	0	0	0	0	0	0	0	0	0	0	0	0	0	0	0	0	0	0	0	0	0	0	0	0	0	0	0	0	0	0	0	0	0	0	0	0
072319	16:05:08	16:11:36	386304	5.0.10.0	5_exp_noRW	998	Rpleas_acq	CS_A	JQQJ	LWWL	YFFY	DXXD	ZHHZ	CPPC	sonnig	vertrauen	träumen	genießen	küssen	gütig	sterben	versagen	töten	gemein	krank	gierig	47pct	acq_USunple_CSunple2_noRW	acq23456_noRW	3	42	0	0	300	300	363	50	0	0	1	blank2r.bmp	0	1	+	0	1	blank2r.bmp	252	1	DXXD	306	1	gemein	559	1	FEHLER	959	0	0	0	0	0	0	0	0	0	0	0	0	0	0	0	0	0	0	0	0	0	0	0	0	0	0	0	0	0	0	0	0	0	0	0	0
072319	16:05:08	16:11:37	387716	5.0.10.0	5_exp_noRW	998	Rpleas_acq	CS_A	JQQJ	LWWL	YFFY	DXXD	ZHHZ	CPPC	sonnig	vertrauen	träumen	genießen	küssen	gütig	sterben	versagen	töten	gemein	krank	gierig	47pct	acq_USunple_CSunple2_noRW	acq23456_noRW	3	43	0	0	300	300	457	46	0	1	1	blank2r.bmp	0	1	+	0	1	blank2r.bmp	252	1	DXXD	306	2	krank	559	0	0	0	0	0	0	0	0	0	0	0	0	0	0	0	0	0	0	0	0	0	0	0	0	0	0	0	0	0	0	0	0	0	0	0	0	0	0	0
072319	16:05:08	16:11:39	389342	5.0.10.0	5_exp_noRW	998	Rpleas_acq	CS_A	JQQJ	LWWL	YFFY	DXXD	ZHHZ	CPPC	sonnig	vertrauen	träumen	genießen	küssen	gütig	sterben	versagen	töten	gemein	krank	gierig	47pct	acq_USpleas_CSpleas2_noRW	acq23456_noRW	3	44	0	0	300	300	455	50	0	1	1	blank2r.bmp	0	1	+	0	1	blank2r.bmp	252	1	LWWL	306	2	küssen	559	0	0	0	0	0	0	0	0	0	0	0	0	0	0	0	0	0	0	0	0	0	0	0	0	0	0	0	0	0	0	0	0	0	0	0	0	0	0	0
072319	16:05:08	16:11:40	390995	5.0.10.0	5_exp_noRW	998	Rpleas_acq	CS_A	JQQJ	LWWL	YFFY	DXXD	ZHHZ	CPPC	sonnig	vertrauen	träumen	genießen	küssen	gütig	sterben	versagen	töten	gemein	krank	gierig	53pct	acq_USunple_CSunple1_noRW	acq23456_noRW	3	45	0	0	300	300	479	46	0	1	1	blank2r.bmp	0	1	+	0	1	blank2r.bmp	252	1	YFFY	306	1	sterben	559	0	0	0	0	0	0	0	0	0	0	0	0	0	0	0	0	0	0	0	0	0	0	0	0	0	0	0	0	0	0	0	0	0	0	0	0	0	0	0
072319	16:05:08	16:11:42	392541	5.0.10.0	5_exp_noRW	998	Rpleas_acq	CS_A	JQQJ	LWWL	YFFY	DXXD	ZHHZ	CPPC	sonnig	vertrauen	träumen	genießen	küssen	gütig	sterben	versagen	töten	gemein	krank	gierig	47pct	acq_USunple_CSunple1_noRW	acq23456_noRW	3	46	0	0	300	300	372	46	0	1	1	blank2r.bmp	0	1	+	0	1	blank2r.bmp	253	1	YFFY	306	1	sterben	559	0	0	0	0	0	0	0	0	0	0	0	0	0	0	0	0	0	0	0	0	0	0	0	0	0	0	0	0	0	0	0	0	0	0	0	0	0	0	0
072319	16:05:08	16:11:43	394220	5.0.10.0	5_exp_noRW	998	Rpleas_acq	CS_A	JQQJ	LWWL	YFFY	DXXD	ZHHZ	CPPC	sonnig	vertrauen	träumen	genießen	küssen	gütig	sterben	versagen	töten	gemein	krank	gierig	53pct	acq_USpleas_CSpleas2_noRW	acq23456_noRW	3	47	0	0	300	300	513	50	0	1	1	blank2r.bmp	0	1	+	0	1	blank2r.bmp	252	1	LWWL	306	1	genießen	559	0	0	0	0	0	0	0	0	0	0	0	0	0	0	0	0	0	0	0	0	0	0	0	0	0	0	0	0	0	0	0	0	0	0	0	0	0	0	0
072319	16:05:08	16:11:45	395953	5.0.10.0	5_exp_noRW	998	Rpleas_acq	CS_A	JQQJ	LWWL	YFFY	DXXD	ZHHZ	CPPC	sonnig	vertrauen	träumen	genießen	küssen	gütig	sterben	versagen	töten	gemein	krank	gierig	53pct	acq_USunple_CSpleas1_noRW	acq23456_noRW	3	48	0	0	300	300	567	46	0	1	1	blank2r.bmp	0	1	+	0	1	blank2r.bmp	252	1	JQQJ	306	2	versagen	560	0	0	0	0	0	0	0	0	0	0	0	0	0	0	0	0	0	0	0	0	0	0	0	0	0	0	0	0	0	0	0	0	0	0	0	0	0	0	0
072319	16:05:08	16:11:47	397526	5.0.10.0	5_exp_noRW	998	Rpleas_acq	CS_A	JQQJ	LWWL	YFFY	DXXD	ZHHZ	CPPC	sonnig	vertrauen	träumen	genießen	küssen	gütig	sterben	versagen	töten	gemein	krank	gierig	53pct	acq_USpleas_CSunple2_noRW	acq23456_noRW	3	49	0	0	300	300	408	50	0	1	1	blank2r.bmp	0	1	+	0	1	blank2r.bmp	252	1	DXXD	306	2	küssen	559	0	0	0	0	0	0	0	0	0	0	0	0	0	0	0	0	0	0	0	0	0	0	0	0	0	0	0	0	0	0	0	0	0	0	0	0	0	0	0
072319	16:05:08	16:11:48	399125	5.0.10.0	5_exp_noRW	998	Rpleas_acq	CS_A	JQQJ	LWWL	YFFY	DXXD	ZHHZ	CPPC	sonnig	vertrauen	träumen	genießen	küssen	gütig	sterben	versagen	töten	gemein	krank	gierig	53pct	acq_USpleas_CSpleas2_noRW	acq23456_noRW	3	50	0	0	300	300	430	50	0	1	1	blank2r.bmp	0	1	+	0	1	blank2r.bmp	252	1	LWWL	306	1	genießen	559	0	0	0	0	0	0	0	0	0	0	0	0	0	0	0	0	0	0	0	0	0	0	0	0	0	0	0	0	0	0	0	0	0	0	0	0	0	0	0
072319	16:05:08	16:11:50	400671	5.0.10.0	5_exp_noRW	998	Rpleas_acq	CS_A	JQQJ	LWWL	YFFY	DXXD	ZHHZ	CPPC	sonnig	vertrauen	träumen	genießen	küssen	gütig	sterben	versagen	töten	gemein	krank	gierig	47pct	acq_USpleas_CSpleas1_noRW	acq23456_noRW	3	51	0	0	300	300	383	50	0	1	1	blank2r.bmp	0	1	+	0	1	blank2r.bmp	252	1	JQQJ	306	1	sonnig	559	0	0	0	0	0	0	0	0	0	0	0	0	0	0	0	0	0	0	0	0	0	0	0	0	0	0	0	0	0	0	0	0	0	0	0	0	0	0	0
072319	16:05:08	16:11:51	402204	5.0.10.0	5_exp_noRW	998	Rpleas_acq	CS_A	JQQJ	LWWL	YFFY	DXXD	ZHHZ	CPPC	sonnig	vertrauen	träumen	genießen	küssen	gütig	sterben	versagen	töten	gemein	krank	gierig	53pct	acq_USunple_CSpleas2_noRW	acq23456_noRW	3	52	0	0	300	300	364	46	0	1	1	blank2r.bmp	0	1	+	0	1	blank2r.bmp	252	1	LWWL	306	1	gemein	559	0	0	0	0	0	0	0	0	0	0	0	0	0	0	0	0	0	0	0	0	0	0	0	0	0	0	0	0	0	0	0	0	0	0	0	0	0	0	0
072319	16:05:08	16:11:53	403856	5.0.10.0	5_exp_noRW	998	Rpleas_acq	CS_A	JQQJ	LWWL	YFFY	DXXD	ZHHZ	CPPC	sonnig	vertrauen	träumen	genießen	küssen	gütig	sterben	versagen	töten	gemein	krank	gierig	47pct	acq_USpleas_CSpleas1_noRW	acq23456_noRW	3	53	0	0	300	300	279	46	0	0	1	blank2r.bmp	0	1	+	0	1	blank2r.bmp	252	1	JQQJ	306	3	träumen	559	1	FEHLER	879	0	0	0	0	0	0	0	0	0	0	0	0	0	0	0	0	0	0	0	0	0	0	0	0	0	0	0	0	0	0	0	0	0	0	0	0
072319	16:05:08	16:11:54	405243	5.0.10.0	5_exp_noRW	998	Rpleas_acq	CS_A	JQQJ	LWWL	YFFY	DXXD	ZHHZ	CPPC	sonnig	vertrauen	träumen	genießen	küssen	gütig	sterben	versagen	töten	gemein	krank	gierig	53pct	acq_USpleas_CSunple1_noRW	acq23456_noRW	3	54	0	0	300	300	412	50	0	1	1	blank2r.bmp	0	1	+	0	1	blank2r.bmp	252	1	YFFY	306	1	sonnig	566	0	0	0	0	0	0	0	0	0	0	0	0	0	0	0	0	0	0	0	0	0	0	0	0	0	0	0	0	0	0	0	0	0	0	0	0	0	0	0
072319	16:05:08	16:11:56	406722	5.0.10.0	5_exp_noRW	998	Rpleas_acq	CS_A	JQQJ	LWWL	YFFY	DXXD	ZHHZ	CPPC	sonnig	vertrauen	träumen	genießen	küssen	gütig	sterben	versagen	töten	gemein	krank	gierig	47pct	acq_USpleas_CSpleas1_noRW	acq23456_noRW	3	55	0	0	300	300	313	50	0	1	1	blank2r.bmp	0	1	+	0	1	blank2r.bmp	252	1	JQQJ	307	3	träumen	559	0	0	0	0	0	0	0	0	0	0	0	0	0	0	0	0	0	0	0	0	0	0	0	0	0	0	0	0	0	0	0	0	0	0	0	0	0	0	0
072319	16:05:08	16:11:58	408255	5.0.10.0	5_exp_noRW	998	Rpleas_acq	CS_A	JQQJ	LWWL	YFFY	DXXD	ZHHZ	CPPC	sonnig	vertrauen	träumen	genießen	küssen	gütig	sterben	versagen	töten	gemein	krank	gierig	47pct	acq_USpleas_CSpleas1_noRW	acq23456_noRW	3	56	0	0	300	300	365	50	0	1	1	blank2r.bmp	0	1	+	0	1	blank2r.bmp	252	1	JQQJ	306	1	sonnig	559	0	0	0	0	0	0	0	0	0	0	0	0	0	0	0	0	0	0	0	0	0	0	0	0	0	0	0	0	0	0	0	0	0	0	0	0	0	0	0
072319	16:05:08	16:11:59	409801	5.0.10.0	5_exp_noRW	998	Rpleas_acq	CS_A	JQQJ	LWWL	YFFY	DXXD	ZHHZ	CPPC	sonnig	vertrauen	träumen	genießen	küssen	gütig	sterben	versagen	töten	gemein	krank	gierig	53pct	acq_USunple_CSunple2_noRW	acq23456_noRW	3	57	0	0	300	300	380	46	0	1	1	blank2r.bmp	0	1	+	0	1	blank2r.bmp	253	1	DXXD	306	2	krank	560	0	0	0	0	0	0	0	0	0	0	0	0	0	0	0	0	0	0	0	0	0	0	0	0	0	0	0	0	0	0	0	0	0	0	0	0	0	0	0
072319	16:05:08	16:12:01	411360	5.0.10.0	5_exp_noRW	998	Rpleas_acq	CS_A	JQQJ	LWWL	YFFY	DXXD	ZHHZ	CPPC	sonnig	vertrauen	träumen	genießen	küssen	gütig	sterben	versagen	töten	gemein	krank	gierig	47pct	acq_USunple_CSunple1_noRW	acq23456_noRW	3	58	0	0	300	300	386	46	0	1	1	blank2r.bmp	0	1	+	0	1	blank2r.bmp	252	1	YFFY	306	3	töten	559	0	0	0	0	0	0	0	0	0	0	0	0	0	0	0	0	0	0	0	0	0	0	0	0	0	0	0	0	0	0	0	0	0	0	0	0	0	0	0
072319	16:05:08	16:12:02	412946	5.0.10.0	5_exp_noRW	998	Rpleas_acq	CS_A	JQQJ	LWWL	YFFY	DXXD	ZHHZ	CPPC	sonnig	vertrauen	träumen	genießen	küssen	gütig	sterben	versagen	töten	gemein	krank	gierig	47pct	acq_USunple_CSunple2_noRW	acq23456_noRW	3	59	0	0	300	300	416	46	0	1	1	blank2r.bmp	0	1	+	0	1	blank2r.bmp	252	1	DXXD	306	1	gemein	559	0	0	0	0	0	0	0	0	0	0	0	0	0	0	0	0	0	0	0	0	0	0	0	0	0	0	0	0	0	0	0	0	0	0	0	0	0	0	0
072319	16:05:08	16:12:04	414532	5.0.10.0	5_exp_noRW	998	Rpleas_acq	CS_A	JQQJ	LWWL	YFFY	DXXD	ZHHZ	CPPC	sonnig	vertrauen	träumen	genießen	küssen	gütig	sterben	versagen	töten	gemein	krank	gierig	53pct	acq_USpleas_CSpleas2_noRW	acq23456_noRW	3	60	0	0	300	300	415	50	0	1	1	blank2r.bmp	0	1	+	0	1	blank2r.bmp	252	1	LWWL	306	2	küssen	559	0	0	0	0	0	0	0	0	0	0	0	0	0	0	0	0	0	0	0	0	0	0	0	0	0	0	0	0	0	0	0	0	0	0	0	0	0	0	0
072319	16:05:08	16:12:05	416118	5.0.10.0	5_exp_noRW	998	Rpleas_acq	CS_A	JQQJ	LWWL	YFFY	DXXD	ZHHZ	CPPC	sonnig	vertrauen	träumen	genießen	küssen	gütig	sterben	versagen	töten	gemein	krank	gierig	53pct	acq_USunple_CSunple2_noRW	acq23456_noRW	3	61	0	0	300	300	418	46	0	1	1	blank2r.bmp	0	1	+	0	1	blank2r.bmp	252	1	DXXD	306	3	gierig	559	0	0	0	0	0	0	0	0	0	0	0	0	0	0	0	0	0	0	0	0	0	0	0	0	0	0	0	0	0	0	0	0	0	0	0	0	0	0	0
072319	16:05:08	16:12:07	417891	5.0.10.0	5_exp_noRW	998	Rpleas_acq	CS_A	JQQJ	LWWL	YFFY	DXXD	ZHHZ	CPPC	sonnig	vertrauen	träumen	genießen	küssen	gütig	sterben	versagen	töten	gemein	krank	gierig	47pct	acq_USunple_CSunple2_noRW	acq23456_noRW	3	62	0	0	300	300	608	46	0	1	1	blank2r.bmp	0	1	+	0	1	blank2r.bmp	252	1	DXXD	306	1	gemein	559	0	0	0	0	0	0	0	0	0	0	0	0	0	0	0	0	0	0	0	0	0	0	0	0	0	0	0	0	0	0	0	0	0	0	0	0	0	0	0
072319	16:05:08	16:12:09	419463	5.0.10.0	5_exp_noRW	998	Rpleas_acq	CS_A	JQQJ	LWWL	YFFY	DXXD	ZHHZ	CPPC	sonnig	vertrauen	träumen	genießen	küssen	gütig	sterben	versagen	töten	gemein	krank	gierig	53pct	acq_USunple_CSunple1_noRW	acq23456_noRW	3	63	0	0	300	300	403	46	0	1	1	blank2r.bmp	0	1	+	0	1	blank2r.bmp	253	1	YFFY	306	2	versagen	559	0	0	0	0	0	0	0	0	0	0	0	0	0	0	0	0	0	0	0	0	0	0	0	0	0	0	0	0	0	0	0	0	0	0	0	0	0	0	0
072319	16:05:08	16:12:10	420996	5.0.10.0	5_exp_noRW	998	Rpleas_acq	CS_A	JQQJ	LWWL	YFFY	DXXD	ZHHZ	CPPC	sonnig	vertrauen	träumen	genießen	küssen	gütig	sterben	versagen	töten	gemein	krank	gierig	47pct	acq_USunple_CSunple2_noRW	acq23456_noRW	3	64	0	0	300	300	359	46	0	1	1	blank2r.bmp	0	1	+	0	1	blank2r.bmp	252	1	DXXD	306	3	gierig	559	0	0	0	0	0	0	0	0	0	0	0	0	0	0	0	0	0	0	0	0	0	0	0	0	0	0	0	0	0	0	0	0	0	0	0	0	0	0	0
072319	16:05:08	16:12:12	422530	5.0.10.0	5_exp_noRW	998	Rpleas_acq	CS_A	JQQJ	LWWL	YFFY	DXXD	ZHHZ	CPPC	sonnig	vertrauen	träumen	genießen	küssen	gütig	sterben	versagen	töten	gemein	krank	gierig	53pct	acq_USunple_CSpleas2_noRW	acq23456_noRW	3	65	0	0	300	300	363	46	0	1	1	blank2r.bmp	0	1	+	0	1	blank2r.bmp	252	1	LWWL	306	2	krank	559	0	0	0	0	0	0	0	0	0	0	0	0	0	0	0	0	0	0	0	0	0	0	0	0	0	0	0	0	0	0	0	0	0	0	0	0	0	0	0
072319	16:05:08	16:12:13	424208	5.0.10.0	5_exp_noRW	998	Rpleas_acq	CS_A	JQQJ	LWWL	YFFY	DXXD	ZHHZ	CPPC	sonnig	vertrauen	träumen	genießen	küssen	gütig	sterben	versagen	töten	gemein	krank	gierig	53pct	acq_USpleas_CSpleas1_noRW	acq23456_noRW	3	66	0	0	300	300	509	50	0	1	1	blank2r.bmp	0	1	+	0	1	blank2r.bmp	253	1	JQQJ	306	2	vertrauen	559	0	0	0	0	0	0	0	0	0	0	0	0	0	0	0	0	0	0	0	0	0	0	0	0	0	0	0	0	0	0	0	0	0	0	0	0	0	0	0
072319	16:05:08	16:12:15	425781	5.0.10.0	5_exp_noRW	998	Rpleas_acq	CS_A	JQQJ	LWWL	YFFY	DXXD	ZHHZ	CPPC	sonnig	vertrauen	träumen	genießen	küssen	gütig	sterben	versagen	töten	gemein	krank	gierig	53pct	acq_USunple_CSunple1_noRW	acq23456_noRW	3	67	0	0	300	300	409	46	0	1	1	blank2r.bmp	0	1	+	0	1	blank2r.bmp	252	1	YFFY	306	3	töten	559	0	0	0	0	0	0	0	0	0	0	0	0	0	0	0	0	0	0	0	0	0	0	0	0	0	0	0	0	0	0	0	0	0	0	0	0	0	0	0
072319	16:05:08	16:12:17	427447	5.0.10.0	5_exp_noRW	998	Rpleas_acq	CS_A	JQQJ	LWWL	YFFY	DXXD	ZHHZ	CPPC	sonnig	vertrauen	träumen	genießen	küssen	gütig	sterben	versagen	töten	gemein	krank	gierig	47pct	acq_USpleas_CSunple2_noRW	acq23456_noRW	3	68	0	0	300	300	499	50	0	1	1	blank2r.bmp	0	1	+	0	1	blank2r.bmp	252	1	DXXD	306	1	genießen	559	0	0	0	0	0	0	0	0	0	0	0	0	0	0	0	0	0	0	0	0	0	0	0	0	0	0	0	0	0	0	0	0	0	0	0	0	0	0	0
072319	16:05:08	16:12:18	428993	5.0.10.0	5_exp_noRW	998	Rpleas_acq	CS_A	JQQJ	LWWL	YFFY	DXXD	ZHHZ	CPPC	sonnig	vertrauen	träumen	genießen	küssen	gütig	sterben	versagen	töten	gemein	krank	gierig	47pct	acq_USunple_CSunple2_noRW	acq23456_noRW	3	69	0	0	300	300	367	46	0	1	1	blank2r.bmp	0	1	+	0	1	blank2r.bmp	252	1	DXXD	306	2	krank	559	0	0	0	0	0	0	0	0	0	0	0	0	0	0	0	0	0	0	0	0	0	0	0	0	0	0	0	0	0	0	0	0	0	0	0	0	0	0	0
072319	16:05:08	16:12:20	430552	5.0.10.0	5_exp_noRW	998	Rpleas_acq	CS_A	JQQJ	LWWL	YFFY	DXXD	ZHHZ	CPPC	sonnig	vertrauen	träumen	genießen	küssen	gütig	sterben	versagen	töten	gemein	krank	gierig	53pct	acq_USunple_CSpleas1_noRW	acq23456_noRW	3	70	0	0	300	300	395	46	0	1	1	blank2r.bmp	0	1	+	0	1	blank2r.bmp	252	1	JQQJ	306	1	sterben	559	0	0	0	0	0	0	0	0	0	0	0	0	0	0	0	0	0	0	0	0	0	0	0	0	0	0	0	0	0	0	0	0	0	0	0	0	0	0	0
072319	16:05:08	16:12:21	432138	5.0.10.0	5_exp_noRW	998	Rpleas_acq	CS_A	JQQJ	LWWL	YFFY	DXXD	ZHHZ	CPPC	sonnig	vertrauen	träumen	genießen	küssen	gütig	sterben	versagen	töten	gemein	krank	gierig	47pct	acq_USunple_CSunple1_noRW	acq23456_noRW	3	71	0	0	300	300	414	46	0	1	1	blank2r.bmp	0	1	+	0	1	blank2r.bmp	252	1	YFFY	306	1	sterben	560	0	0	0	0	0	0	0	0	0	0	0	0	0	0	0	0	0	0	0	0	0	0	0	0	0	0	0	0	0	0	0	0	0	0	0	0	0	0	0
072319	16:05:08	16:12:23	433871	5.0.10.0	5_exp_noRW	998	Rpleas_acq	CS_A	JQQJ	LWWL	YFFY	DXXD	ZHHZ	CPPC	sonnig	vertrauen	träumen	genießen	küssen	gütig	sterben	versagen	töten	gemein	krank	gierig	53pct	acq_USpleas_CSpleas2_noRW	acq23456_noRW	3	72	0	0	300	300	347	46	0	0	1	blank2r.bmp	0	1	+	0	1	blank2r.bmp	252	1	LWWL	306	3	gütig	559	1	FEHLER	946	0	0	0	0	0	0	0	0	0	0	0	0	0	0	0	0	0	0	0	0	0	0	0	0	0	0	0	0	0	0	0	0	0	0	0	0
072319	16:05:08	16:12:24	435244	5.0.10.0	5_exp_noRW	998	Rpleas_acq	CS_A	JQQJ	LWWL	YFFY	DXXD	ZHHZ	CPPC	sonnig	vertrauen	träumen	genießen	küssen	gütig	sterben	versagen	töten	gemein	krank	gierig	53pct	acq_USpleas_CSpleas1_noRW	acq23456_noRW	3	73	0	0	300	300	419	50	0	1	1	blank2r.bmp	0	1	+	0	1	blank2r.bmp	252	1	JQQJ	306	2	vertrauen	559	0	0	0	0	0	0	0	0	0	0	0	0	0	0	0	0	0	0	0	0	0	0	0	0	0	0	0	0	0	0	0	0	0	0	0	0	0	0	0
072319	16:05:08	16:12:26	436830	5.0.10.0	5_exp_noRW	998	Rpleas_acq	CS_A	JQQJ	LWWL	YFFY	DXXD	ZHHZ	CPPC	sonnig	vertrauen	träumen	genießen	küssen	gütig	sterben	versagen	töten	gemein	krank	gierig	47pct	acq_USunple_CSunple1_noRW	acq23456_noRW	3	74	0	0	300	300	412	46	0	1	1	blank2r.bmp	0	1	+	0	1	blank2r.bmp	252	1	YFFY	306	2	versagen	559	0	0	0	0	0	0	0	0	0	0	0	0	0	0	0	0	0	0	0	0	0	0	0	0	0	0	0	0	0	0	0	0	0	0	0	0	0	0	0
072319	16:05:08	16:12:28	438416	5.0.10.0	5_exp_noRW	998	Rpleas_acq	CS_A	JQQJ	LWWL	YFFY	DXXD	ZHHZ	CPPC	sonnig	vertrauen	träumen	genießen	küssen	gütig	sterben	versagen	töten	gemein	krank	gierig	53pct	acq_USpleas_CSpleas2_noRW	acq23456_noRW	3	75	0	0	300	300	424	50	0	1	1	blank2r.bmp	0	1	+	0	1	blank2r.bmp	257	1	LWWL	306	2	küssen	559	0	0	0	0	0	0	0	0	0	0	0	0	0	0	0	0	0	0	0	0	0	0	0	0	0	0	0	0	0	0	0	0	0	0	0	0	0	0	0
072319	16:05:08	16:12:29	440028	5.0.10.0	5_exp_noRW	998	Rpleas_acq	CS_A	JQQJ	LWWL	YFFY	DXXD	ZHHZ	CPPC	sonnig	vertrauen	träumen	genießen	küssen	gütig	sterben	versagen	töten	gemein	krank	gierig	47pct	acq_USpleas_CSunple1_noRW	acq23456_noRW	3	76	0	0	300	300	448	50	0	1	1	blank2r.bmp	0	1	+	0	1	blank2r.bmp	252	1	YFFY	306	3	träumen	559	0	0	0	0	0	0	0	0	0	0	0	0	0	0	0	0	0	0	0	0	0	0	0	0	0	0	0	0	0	0	0	0	0	0	0	0	0	0	0
072319	16:05:08	16:12:31	441561	5.0.10.0	5_exp_noRW	998	Rpleas_acq	CS_A	JQQJ	LWWL	YFFY	DXXD	ZHHZ	CPPC	sonnig	vertrauen	träumen	genießen	küssen	gütig	sterben	versagen	töten	gemein	krank	gierig	47pct	acq_USpleas_CSpleas1_noRW	acq23456_noRW	3	77	0	0	300	300	371	50	0	1	1	blank2r.bmp	0	1	+	0	1	blank2r.bmp	252	1	JQQJ	306	3	träumen	559	0	0	0	0	0	0	0	0	0	0	0	0	0	0	0	0	0	0	0	0	0	0	0	0	0	0	0	0	0	0	0	0	0	0	0	0	0	0	0
072319	16:05:08	16:12:33	443307	5.0.10.0	5_exp_noRW	998	Rpleas_acq	CS_A	JQQJ	LWWL	YFFY	DXXD	ZHHZ	CPPC	sonnig	vertrauen	träumen	genießen	küssen	gütig	sterben	versagen	töten	gemein	krank	gierig	53pct	acq_USpleas_CSpleas2_noRW	acq23456_noRW	3	78	0	0	300	300	345	46	0	0	1	blank2r.bmp	0	1	+	0	1	blank2r.bmp	252	1	LWWL	306	3	gütig	559	1	FEHLER	946	0	0	0	0	0	0	0	0	0	0	0	0	0	0	0	0	0	0	0	0	0	0	0	0	0	0	0	0	0	0	0	0	0	0	0	0
072319	16:05:08	16:12:34	444681	5.0.10.0	5_exp_noRW	998	Rpleas_acq	CS_A	JQQJ	LWWL	YFFY	DXXD	ZHHZ	CPPC	sonnig	vertrauen	träumen	genießen	küssen	gütig	sterben	versagen	töten	gemein	krank	gierig	47pct	acq_USpleas_CSpleas1_noRW	acq23456_noRW	3	79	0	0	300	300	417	50	0	1	1	blank2r.bmp	0	1	+	0	1	blank2r.bmp	252	1	JQQJ	306	1	sonnig	559	0	0	0	0	0	0	0	0	0	0	0	0	0	0	0	0	0	0	0	0	0	0	0	0	0	0	0	0	0	0	0	0	0	0	0	0	0	0	0
072319	16:05:08	16:12:35	446239	5.0.10.0	5_exp_noRW	998	Rpleas_acq	CS_A	JQQJ	LWWL	YFFY	DXXD	ZHHZ	CPPC	sonnig	vertrauen	träumen	genießen	küssen	gütig	sterben	versagen	töten	gemein	krank	gierig	53pct	acq_USpleas_CSpleas2_noRW	acq23456_noRW	3	80	0	0	300	300	388	50	0	1	1	blank2r.bmp	0	1	+	0	1	blank2r.bmp	252	1	LWWL	306	1	genießen	559	0	0	0	0	0	0	0	0	0	0	0	0	0	0	0	0	0	0	0	0	0	0	0	0	0	0	0	0	0	0	0	0	0	0	0	0	0	0	0
072319	16:05:08	16:12:42	452916	5.0.10.0	5_exp_noRW	998	Rpleas_acq	CS_A	JQQJ	LWWL	YFFY	DXXD	ZHHZ	CPPC	sonnig	vertrauen	träumen	genießen	küssen	gütig	sterben	versagen	töten	gemein	krank	gierig	53pct	acq_USunple_CSunple2_noRW	acq23456_noRW	4	1	0	0	300	300	395	46	0	1	1	blank2r.bmp	0	1	+	0	1	blank2r.bmp	252	1	DXXD	306	1	gemein	559	0	0	0	0	0	0	0	0	0	0	0	0	0	0	0	0	0	0	0	0	0	0	0	0	0	0	0	0	0	0	0	0	0	0	0	0	0	0	0
