date	time	script.currenttime	script.elapsedtime	build	script.currentexpt	subject	expressions.LRpleas_acq	expressions.conditionCS_A	expressions.CSpleas_1	expressions.CSpleas_2	expressions.CSunple_1	expressions.CSunple_2	expressions.distractor_1	expressions.distractor_2	expressions.US_pleas1	expressions.US_pleas2	expressions.US_pleas3	expressions.US_pleas4	expressions.US_pleas5	expressions.US_pleas6	expressions.US_unple1	expressions.US_unple2	expressions.US_unple3	expressions.US_unple4	expressions.US_unple5	expressions.US_unple6	counter.positions_noRW	trialcode	blockcode	blocknum	trialnum	windowcenter	inwindow	pretrialpause	posttrialpause	latency	response	expressions.correctedscore	correct	stimulusnumber1	stimulusitem1	stimulusonset1	stimulusnumber2	stimulusitem2	stimulusonset2	stimulusnumber3	stimulusitem3	stimulusonset3	stimulusnumber4	stimulusitem4	stimulusonset4	stimulusnumber5	stimulusitem5	stimulusonset5	stimulusnumber6	stimulusitem6	stimulusonset6	stimulusnumber7	stimulusitem7	stimulusonset7	stimulusnumber8	stimulusitem8	stimulusonset8	stimulusnumber9	stimulusitem9	stimulusonset9	stimulusnumber10	stimulusitem10	stimulusonset10	stimulusnumber11	stimulusitem11	stimulusonset11	stimulusnumber12	stimulusitem12	stimulusonset12	stimulusnumber13	stimulusitem13	stimulusonset13	stimulusnumber14	stimulusitem14	stimulusonset14	stimulusnumber15	stimulusitem15	stimulusonset15	stimulusnumber16	stimulusitem16	stimulusonset16	stimulusnumber17	stimulusitem17	stimulusonset17	stimulusnumber18	stimulusitem18	stimulusonset18
071619	11:41:10	11:42:15	64839	5.0.10.0	5_exp_RW	53	Rpleas_acq	CS_B	GWWG	YDDY	JXXJ	BZZB	MQQM	VKKV	ehrlich	schön	treu	retten	fair	spielen	eitel	schlecht	tot	rächen	faul	strafen	1	acq_USunple_CSunple2_RW	acq1_RW	1	1	0	0	300	300	543	46	0	1	1	blank2r.bmp	0	1	+	0	1	blank2r.bmp	492	1	BZZB	492	1	blank2r.bmp	572	3	strafen	866	0	0	0	0	0	0	0	0	0	0	0	0	0	0	0	0	0	0	0	0	0	0	0	0	0	0	0	0	0	0	0	0	0	0	0	0
071619	11:41:10	11:42:17	66345	5.0.10.0	5_exp_RW	53	Rpleas_acq	CS_B	GWWG	YDDY	JXXJ	BZZB	MQQM	VKKV	ehrlich	schön	treu	retten	fair	spielen	eitel	schlecht	tot	rächen	faul	strafen	1	acq_USunple_CSunple2_RW	acq1_RW	1	2	0	0	300	300	13	46	0	1	1	blank2r.bmp	0	1	+	0	1	blank2r.bmp	492	1	BZZB	492	1	blank2r.bmp	572	1	rächen	866	0	0	0	0	0	0	0	0	0	0	0	0	0	0	0	0	0	0	0	0	0	0	0	0	0	0	0	0	0	0	0	0	0	0	0	0
071619	11:41:10	11:42:19	68371	5.0.10.0	5_exp_RW	53	Rpleas_acq	CS_B	GWWG	YDDY	JXXJ	BZZB	MQQM	VKKV	ehrlich	schön	treu	retten	fair	spielen	eitel	schlecht	tot	rächen	faul	strafen	1	acq_USpleas_CSpleas1_RW	acq1_RW	1	3	0	0	300	300	557	50	0	1	1	blank2r.bmp	0	1	+	0	1	blank2r.bmp	492	1	GWWG	492	1	blank2r.bmp	572	2	schön	866	0	0	0	0	0	0	0	0	0	0	0	0	0	0	0	0	0	0	0	0	0	0	0	0	0	0	0	0	0	0	0	0	0	0	0	0
071619	11:41:10	11:42:21	70370	5.0.10.0	5_exp_RW	53	Rpleas_acq	CS_B	GWWG	YDDY	JXXJ	BZZB	MQQM	VKKV	ehrlich	schön	treu	retten	fair	spielen	eitel	schlecht	tot	rächen	faul	strafen	1	acq_USpleas_CSpleas1_RW	acq1_RW	1	4	0	0	300	300	512	50	0	1	1	blank2r.bmp	0	1	+	0	1	blank2r.bmp	492	1	GWWG	492	1	blank2r.bmp	572	1	ehrlich	866	0	0	0	0	0	0	0	0	0	0	0	0	0	0	0	0	0	0	0	0	0	0	0	0	0	0	0	0	0	0	0	0	0	0	0	0
071619	11:41:10	11:42:23	72316	5.0.10.0	5_exp_RW	53	Rpleas_acq	CS_B	GWWG	YDDY	JXXJ	BZZB	MQQM	VKKV	ehrlich	schön	treu	retten	fair	spielen	eitel	schlecht	tot	rächen	faul	strafen	1	acq_USpleas_CSpleas2_RW	acq1_RW	1	5	0	0	300	300	470	50	0	1	1	blank2r.bmp	0	1	+	0	1	blank2r.bmp	492	1	YDDY	492	1	blank2r.bmp	572	2	fair	866	0	0	0	0	0	0	0	0	0	0	0	0	0	0	0	0	0	0	0	0	0	0	0	0	0	0	0	0	0	0	0	0	0	0	0	0
071619	11:41:10	11:42:25	74302	5.0.10.0	5_exp_RW	53	Rpleas_acq	CS_B	GWWG	YDDY	JXXJ	BZZB	MQQM	VKKV	ehrlich	schön	treu	retten	fair	spielen	eitel	schlecht	tot	rächen	faul	strafen	1	acq_USunple_CSunple1_RW	acq1_RW	1	6	0	0	300	300	515	46	0	1	1	blank2r.bmp	0	1	+	0	1	blank2r.bmp	492	1	JXXJ	492	1	blank2r.bmp	572	2	schlecht	866	0	0	0	0	0	0	0	0	0	0	0	0	0	0	0	0	0	0	0	0	0	0	0	0	0	0	0	0	0	0	0	0	0	0	0	0
071619	11:41:10	11:42:27	76168	5.0.10.0	5_exp_RW	53	Rpleas_acq	CS_B	GWWG	YDDY	JXXJ	BZZB	MQQM	VKKV	ehrlich	schön	treu	retten	fair	spielen	eitel	schlecht	tot	rächen	faul	strafen	1	acq_USpleas_CSpleas1_RW	acq1_RW	1	7	0	0	300	300	383	50	0	1	1	blank2r.bmp	0	1	+	0	1	blank2r.bmp	492	1	GWWG	492	1	blank2r.bmp	572	3	treu	866	0	0	0	0	0	0	0	0	0	0	0	0	0	0	0	0	0	0	0	0	0	0	0	0	0	0	0	0	0	0	0	0	0	0	0	0
071619	11:41:10	11:42:29	78567	5.0.10.0	5_exp_RW	53	Rpleas_acq	CS_B	GWWG	YDDY	JXXJ	BZZB	MQQM	VKKV	ehrlich	schön	treu	retten	fair	spielen	eitel	schlecht	tot	rächen	faul	strafen	1	acq_USpleas_CSpleas2_RW	acq1_RW	1	8	0	0	300	300	923	50	0	1	1	blank2r.bmp	0	1	+	0	1	blank2r.bmp	492	1	YDDY	492	1	blank2r.bmp	572	3	spielen	866	0	0	0	0	0	0	0	0	0	0	0	0	0	0	0	0	0	0	0	0	0	0	0	0	0	0	0	0	0	0	0	0	0	0	0	0
071619	11:41:10	11:42:31	80766	5.0.10.0	5_exp_RW	53	Rpleas_acq	CS_B	GWWG	YDDY	JXXJ	BZZB	MQQM	VKKV	ehrlich	schön	treu	retten	fair	spielen	eitel	schlecht	tot	rächen	faul	strafen	1	acq_USunple_CSunple2_RW	acq1_RW	1	9	0	0	300	300	706	46	0	1	1	blank2r.bmp	0	1	+	0	1	blank2r.bmp	492	1	BZZB	492	1	blank2r.bmp	572	2	faul	866	0	0	0	0	0	0	0	0	0	0	0	0	0	0	0	0	0	0	0	0	0	0	0	0	0	0	0	0	0	0	0	0	0	0	0	0
071619	11:41:10	11:42:33	82859	5.0.10.0	5_exp_RW	53	Rpleas_acq	CS_B	GWWG	YDDY	JXXJ	BZZB	MQQM	VKKV	ehrlich	schön	treu	retten	fair	spielen	eitel	schlecht	tot	rächen	faul	strafen	1	acq_USunple_CSunple1_RW	acq1_RW	1	10	0	0	300	300	602	46	0	1	1	blank2r.bmp	0	1	+	0	1	blank2r.bmp	492	1	JXXJ	492	1	blank2r.bmp	572	1	eitel	866	0	0	0	0	0	0	0	0	0	0	0	0	0	0	0	0	0	0	0	0	0	0	0	0	0	0	0	0	0	0	0	0	0	0	0	0
071619	11:41:10	11:42:35	84805	5.0.10.0	5_exp_RW	53	Rpleas_acq	CS_B	GWWG	YDDY	JXXJ	BZZB	MQQM	VKKV	ehrlich	schön	treu	retten	fair	spielen	eitel	schlecht	tot	rächen	faul	strafen	1	acq_USpleas_CSpleas2_RW	acq1_RW	1	11	0	0	300	300	460	50	0	1	1	blank2r.bmp	0	1	+	0	1	blank2r.bmp	492	1	YDDY	492	1	blank2r.bmp	572	1	retten	866	0	0	0	0	0	0	0	0	0	0	0	0	0	0	0	0	0	0	0	0	0	0	0	0	0	0	0	0	0	0	0	0	0	0	0	0
071619	11:41:10	11:42:37	86964	5.0.10.0	5_exp_RW	53	Rpleas_acq	CS_B	GWWG	YDDY	JXXJ	BZZB	MQQM	VKKV	ehrlich	schön	treu	retten	fair	spielen	eitel	schlecht	tot	rächen	faul	strafen	1	acq_USunple_CSunple1_RW	acq1_RW	1	12	0	0	300	300	666	46	0	1	1	blank2r.bmp	0	1	+	0	1	blank2r.bmp	492	1	JXXJ	492	1	blank2r.bmp	572	3	tot	866	0	0	0	0	0	0	0	0	0	0	0	0	0	0	0	0	0	0	0	0	0	0	0	0	0	0	0	0	0	0	0	0	0	0	0	0
071619	11:41:10	11:42:39	88856	5.0.10.0	5_exp_RW	53	Rpleas_acq	CS_B	GWWG	YDDY	JXXJ	BZZB	MQQM	VKKV	ehrlich	schön	treu	retten	fair	spielen	eitel	schlecht	tot	rächen	faul	strafen	1	acq_USpleas_CSpleas1_RW	acq1_RW	1	13	0	0	300	300	420	50	0	1	1	blank2r.bmp	0	1	+	0	1	blank2r.bmp	492	1	GWWG	492	1	blank2r.bmp	572	2	schön	866	0	0	0	0	0	0	0	0	0	0	0	0	0	0	0	0	0	0	0	0	0	0	0	0	0	0	0	0	0	0	0	0	0	0	0	0
071619	11:41:10	11:42:42	91855	5.0.10.0	5_exp_RW	53	Rpleas_acq	CS_B	GWWG	YDDY	JXXJ	BZZB	MQQM	VKKV	ehrlich	schön	treu	retten	fair	spielen	eitel	schlecht	tot	rächen	faul	strafen	1	acq_USunple_CSunple1_RW	acq1_RW	1	14	0	0	300	300	1302	50	0	0	1	blank2r.bmp	0	1	+	0	1	blank2r.bmp	492	1	JXXJ	492	1	blank2r.bmp	572	1	eitel	866	1	FEHLER	2199	0	0	0	0	0	0	0	0	0	0	0	0	0	0	0	0	0	0	0	0	0	0	0	0	0	0	0	0	0	0	0	0	0
071619	11:41:10	11:42:44	93641	5.0.10.0	5_exp_RW	53	Rpleas_acq	CS_B	GWWG	YDDY	JXXJ	BZZB	MQQM	VKKV	ehrlich	schön	treu	retten	fair	spielen	eitel	schlecht	tot	rächen	faul	strafen	1	acq_USunple_CSunple2_RW	acq1_RW	1	15	0	0	300	300	506	46	0	1	1	blank2r.bmp	0	1	+	0	1	blank2r.bmp	492	1	BZZB	492	1	blank2r.bmp	572	2	faul	866	0	0	0	0	0	0	0	0	0	0	0	0	0	0	0	0	0	0	0	0	0	0	0	0	0	0	0	0	0	0	0	0	0	0	0	0
071619	11:41:10	11:42:46	95547	5.0.10.0	5_exp_RW	53	Rpleas_acq	CS_B	GWWG	YDDY	JXXJ	BZZB	MQQM	VKKV	ehrlich	schön	treu	retten	fair	spielen	eitel	schlecht	tot	rächen	faul	strafen	1	acq_USpleas_CSpleas2_RW	acq1_RW	1	16	0	0	300	300	432	50	0	1	1	blank2r.bmp	0	1	+	0	1	blank2r.bmp	492	1	YDDY	492	1	blank2r.bmp	572	3	spielen	866	0	0	0	0	0	0	0	0	0	0	0	0	0	0	0	0	0	0	0	0	0	0	0	0	0	0	0	0	0	0	0	0	0	0	0	0
071619	11:41:10	11:43:15	124881	5.0.10.0	5_exp_RW	53	Rpleas_acq	CS_B	GWWG	YDDY	JXXJ	BZZB	MQQM	VKKV	ehrlich	schön	treu	retten	fair	spielen	eitel	schlecht	tot	rächen	faul	strafen	1	acq_USpleas_CSpleas2_RW	acq2_RW	2	1	480	0	300	300	1316	50	0	1	1	blank2r.bmp	0	1	+	0	1	blank2r.bmp	492	1	YDDY	492	1	blank2r.bmp	572	2	fair	866	1	!	1319	1	!	-1	0	0	0	0	0	0	0	0	0	0	0	0	0	0	0	0	0	0	0	0	0	0	0	0	0	0	0	0	0	0
071619	11:41:10	11:43:18	127347	5.0.10.0	5_exp_RW	53	Rpleas_acq	CS_B	GWWG	YDDY	JXXJ	BZZB	MQQM	VKKV	ehrlich	schön	treu	retten	fair	spielen	eitel	schlecht	tot	rächen	faul	strafen	1	acq_USpleas_CSpleas2_RW	acq2_RW	2	2	480	0	300	300	680	50	0	1	1	blank2r.bmp	0	1	+	0	1	blank2r.bmp	492	1	YDDY	492	1	blank2r.bmp	572	1	retten	866	1	!	1319	1	!	-1	0	0	0	0	0	0	0	0	0	0	0	0	0	0	0	0	0	0	0	0	0	0	0	0	0	0	0	0	0	0
071619	11:41:10	11:43:20	129520	5.0.10.0	5_exp_RW	53	Rpleas_acq	CS_B	GWWG	YDDY	JXXJ	BZZB	MQQM	VKKV	ehrlich	schön	treu	retten	fair	spielen	eitel	schlecht	tot	rächen	faul	strafen	1	acq_USunple_CSunple2_RW	acq2_RW	2	3	480	0	300	300	168	50	0	0	1	blank2r.bmp	0	1	+	0	1	blank2r.bmp	492	1	BZZB	492	1	blank2r.bmp	572	3	strafen	866	1	FEHLER	1372	1	!	-1	1	!	-1	0	0	0	0	0	0	0	0	0	0	0	0	0	0	0	0	0	0	0	0	0	0	0	0	0	0	0
071619	11:41:10	11:43:22	131439	5.0.10.0	5_exp_RW	53	Rpleas_acq	CS_B	GWWG	YDDY	JXXJ	BZZB	MQQM	VKKV	ehrlich	schön	treu	retten	fair	spielen	eitel	schlecht	tot	rächen	faul	strafen	1	acq_USunple_CSunple1_RW	acq2_RW	2	4	480	0	300	300	365	46	0	1	1	blank2r.bmp	0	1	+	0	1	blank2r.bmp	492	1	JXXJ	492	1	blank2r.bmp	572	2	schlecht	866	1	!	-1	1	!	-1	0	0	0	0	0	0	0	0	0	0	0	0	0	0	0	0	0	0	0	0	0	0	0	0	0	0	0	0	0	0
071619	11:41:10	11:43:24	133718	5.0.10.0	5_exp_RW	53	Rpleas_acq	CS_B	GWWG	YDDY	JXXJ	BZZB	MQQM	VKKV	ehrlich	schön	treu	retten	fair	spielen	eitel	schlecht	tot	rächen	faul	strafen	1	acq_USpleas_CSpleas1_RW	acq2_RW	2	5	480	1	300	300	454	50	0	1	1	blank2r.bmp	0	1	+	0	1	blank2r.bmp	492	1	GWWG	492	1	blank2r.bmp	572	3	treu	866	1	!	1319	1	!	1359	0	0	0	0	0	0	0	0	0	0	0	0	0	0	0	0	0	0	0	0	0	0	0	0	0	0	0	0	0	0
071619	11:41:10	11:43:26	135770	5.0.10.0	5_exp_RW	53	Rpleas_acq	CS_B	GWWG	YDDY	JXXJ	BZZB	MQQM	VKKV	ehrlich	schön	treu	retten	fair	spielen	eitel	schlecht	tot	rächen	faul	strafen	1	acq_USunple_CSunple1_RW	acq2_RW	2	6	480	0	300	300	283	46	0	1	1	blank2r.bmp	0	1	+	0	1	blank2r.bmp	492	1	JXXJ	492	1	blank2r.bmp	572	3	tot	866	1	!	-1	1	!	-1	0	0	0	0	0	0	0	0	0	0	0	0	0	0	0	0	0	0	0	0	0	0	0	0	0	0	0	0	0	0
071619	11:41:10	11:43:28	138076	5.0.10.0	5_exp_RW	53	Rpleas_acq	CS_B	GWWG	YDDY	JXXJ	BZZB	MQQM	VKKV	ehrlich	schön	treu	retten	fair	spielen	eitel	schlecht	tot	rächen	faul	strafen	1	acq_USunple_CSunple1_RW	acq2_RW	2	7	480	1	300	300	504	46	0	1	1	blank2r.bmp	0	1	+	0	1	blank2r.bmp	492	1	JXXJ	492	1	blank2r.bmp	572	1	eitel	866	1	!	1319	1	!	1399	0	0	0	0	0	0	0	0	0	0	0	0	0	0	0	0	0	0	0	0	0	0	0	0	0	0	0	0	0	0
071619	11:41:10	11:43:31	140408	5.0.10.0	5_exp_RW	53	Rpleas_acq	CS_B	GWWG	YDDY	JXXJ	BZZB	MQQM	VKKV	ehrlich	schön	treu	retten	fair	spielen	eitel	schlecht	tot	rächen	faul	strafen	1	acq_USunple_CSunple2_RW	acq2_RW	2	8	480	0	300	300	339	50	0	0	1	blank2r.bmp	0	1	+	0	1	blank2r.bmp	492	1	BZZB	492	1	blank2r.bmp	572	1	rächen	866	1	FEHLER	1546	1	!	-1	1	!	-1	0	0	0	0	0	0	0	0	0	0	0	0	0	0	0	0	0	0	0	0	0	0	0	0	0	0	0
071619	11:41:10	11:43:33	142528	5.0.10.0	5_exp_RW	53	Rpleas_acq	CS_B	GWWG	YDDY	JXXJ	BZZB	MQQM	VKKV	ehrlich	schön	treu	retten	fair	spielen	eitel	schlecht	tot	rächen	faul	strafen	1	acq_USunple_CSunple2_RW	acq2_RW	2	9	480	1	300	300	541	46	0	1	1	blank2r.bmp	0	1	+	0	1	blank2r.bmp	492	1	BZZB	492	1	blank2r.bmp	572	1	rächen	866	1	!	1319	1	!	1439	0	0	0	0	0	0	0	0	0	0	0	0	0	0	0	0	0	0	0	0	0	0	0	0	0	0	0	0	0	0
071619	11:41:10	11:43:35	144673	5.0.10.0	5_exp_RW	53	Rpleas_acq	CS_B	GWWG	YDDY	JXXJ	BZZB	MQQM	VKKV	ehrlich	schön	treu	retten	fair	spielen	eitel	schlecht	tot	rächen	faul	strafen	1	acq_USunple_CSunple1_RW	acq2_RW	2	10	480	0	300	300	367	46	0	1	1	blank2r.bmp	0	1	+	0	1	blank2r.bmp	492	1	JXXJ	492	1	blank2r.bmp	572	2	schlecht	866	1	!	-1	1	!	-1	0	0	0	0	0	0	0	0	0	0	0	0	0	0	0	0	0	0	0	0	0	0	0	0	0	0	0	0	0	0
071619	11:41:10	11:43:37	147152	5.0.10.0	5_exp_RW	53	Rpleas_acq	CS_B	GWWG	YDDY	JXXJ	BZZB	MQQM	VKKV	ehrlich	schön	treu	retten	fair	spielen	eitel	schlecht	tot	rächen	faul	strafen	1	acq_USpleas_CSpleas2_RW	acq2_RW	2	11	480	0	300	300	700	50	0	1	1	blank2r.bmp	0	1	+	0	1	blank2r.bmp	492	1	YDDY	492	1	blank2r.bmp	572	3	spielen	866	1	!	1319	1	!	-1	0	0	0	0	0	0	0	0	0	0	0	0	0	0	0	0	0	0	0	0	0	0	0	0	0	0	0	0	0	0
071619	11:41:10	11:43:40	149231	5.0.10.0	5_exp_RW	53	Rpleas_acq	CS_B	GWWG	YDDY	JXXJ	BZZB	MQQM	VKKV	ehrlich	schön	treu	retten	fair	spielen	eitel	schlecht	tot	rächen	faul	strafen	1	acq_USunple_CSunple2_RW	acq2_RW	2	12	480	0	300	300	296	46	0	1	1	blank2r.bmp	0	1	+	0	1	blank2r.bmp	492	1	BZZB	492	1	blank2r.bmp	572	2	faul	866	1	!	-1	1	!	-1	0	0	0	0	0	0	0	0	0	0	0	0	0	0	0	0	0	0	0	0	0	0	0	0	0	0	0	0	0	0
071619	11:41:10	11:43:42	151351	5.0.10.0	5_exp_RW	53	Rpleas_acq	CS_B	GWWG	YDDY	JXXJ	BZZB	MQQM	VKKV	ehrlich	schön	treu	retten	fair	spielen	eitel	schlecht	tot	rächen	faul	strafen	1	acq_USunple_CSunple1_RW	acq2_RW	2	13	480	0	300	300	333	46	0	1	1	blank2r.bmp	0	1	+	0	1	blank2r.bmp	492	1	JXXJ	492	1	blank2r.bmp	572	3	tot	866	1	!	-1	1	!	-1	0	0	0	0	0	0	0	0	0	0	0	0	0	0	0	0	0	0	0	0	0	0	0	0	0	0	0	0	0	0
071619	11:41:10	11:43:44	153803	5.0.10.0	5_exp_RW	53	Rpleas_acq	CS_B	GWWG	YDDY	JXXJ	BZZB	MQQM	VKKV	ehrlich	schön	treu	retten	fair	spielen	eitel	schlecht	tot	rächen	faul	strafen	1	acq_USpleas_CSpleas1_RW	acq2_RW	2	14	480	0	300	300	666	50	0	1	1	blank2r.bmp	0	1	+	0	1	blank2r.bmp	492	1	GWWG	492	1	blank2r.bmp	572	1	ehrlich	866	1	!	1319	1	!	-1	0	0	0	0	0	0	0	0	0	0	0	0	0	0	0	0	0	0	0	0	0	0	0	0	0	0	0	0	0	0
071619	11:41:10	11:43:47	156162	5.0.10.0	5_exp_RW	53	Rpleas_acq	CS_B	GWWG	YDDY	JXXJ	BZZB	MQQM	VKKV	ehrlich	schön	treu	retten	fair	spielen	eitel	schlecht	tot	rächen	faul	strafen	1	acq_USpleas_CSpleas2_RW	acq2_RW	2	15	480	0	300	300	573	50	0	1	1	blank2r.bmp	0	1	+	0	1	blank2r.bmp	492	1	YDDY	492	1	blank2r.bmp	572	1	retten	866	1	!	1319	1	!	-1	0	0	0	0	0	0	0	0	0	0	0	0	0	0	0	0	0	0	0	0	0	0	0	0	0	0	0	0	0	0
071619	11:41:10	11:43:49	158508	5.0.10.0	5_exp_RW	53	Rpleas_acq	CS_B	GWWG	YDDY	JXXJ	BZZB	MQQM	VKKV	ehrlich	schön	treu	retten	fair	spielen	eitel	schlecht	tot	rächen	faul	strafen	1	acq_USpleas_CSpleas1_RW	acq2_RW	2	16	480	1	300	300	544	50	0	1	1	blank2r.bmp	0	1	+	0	1	blank2r.bmp	492	1	GWWG	492	1	blank2r.bmp	572	3	treu	866	1	!	1319	1	!	1439	0	0	0	0	0	0	0	0	0	0	0	0	0	0	0	0	0	0	0	0	0	0	0	0	0	0	0	0	0	0
071619	11:41:10	11:43:51	160880	5.0.10.0	5_exp_RW	53	Rpleas_acq	CS_B	GWWG	YDDY	JXXJ	BZZB	MQQM	VKKV	ehrlich	schön	treu	retten	fair	spielen	eitel	schlecht	tot	rächen	faul	strafen	1	acq_USpleas_CSpleas2_RW	acq2_RW	2	17	480	0	300	300	609	50	0	1	1	blank2r.bmp	0	1	+	0	1	blank2r.bmp	492	1	YDDY	492	1	blank2r.bmp	572	2	fair	866	1	!	1319	1	!	-1	0	0	0	0	0	0	0	0	0	0	0	0	0	0	0	0	0	0	0	0	0	0	0	0	0	0	0	0	0	0
071619	11:41:10	11:43:53	163052	5.0.10.0	5_exp_RW	53	Rpleas_acq	CS_B	GWWG	YDDY	JXXJ	BZZB	MQQM	VKKV	ehrlich	schön	treu	retten	fair	spielen	eitel	schlecht	tot	rächen	faul	strafen	1	acq_USpleas_CSpleas1_RW	acq2_RW	2	18	480	0	300	300	395	50	0	1	1	blank2r.bmp	0	1	+	0	1	blank2r.bmp	492	1	GWWG	492	1	blank2r.bmp	572	1	ehrlich	866	1	!	-1	1	!	-1	0	0	0	0	0	0	0	0	0	0	0	0	0	0	0	0	0	0	0	0	0	0	0	0	0	0	0	0	0	0
071619	11:41:10	11:43:56	165478	5.0.10.0	5_exp_RW	53	Rpleas_acq	CS_B	GWWG	YDDY	JXXJ	BZZB	MQQM	VKKV	ehrlich	schön	treu	retten	fair	spielen	eitel	schlecht	tot	rächen	faul	strafen	1	acq_USpleas_CSpleas1_RW	acq2_RW	2	19	480	0	300	300	639	50	0	1	1	blank2r.bmp	0	1	+	0	1	blank2r.bmp	492	1	GWWG	492	1	blank2r.bmp	572	2	schön	866	1	!	1319	1	!	-1	0	0	0	0	0	0	0	0	0	0	0	0	0	0	0	0	0	0	0	0	0	0	0	0	0	0	0	0	0	0
071619	11:41:10	11:43:58	167504	5.0.10.0	5_exp_RW	53	Rpleas_acq	CS_B	GWWG	YDDY	JXXJ	BZZB	MQQM	VKKV	ehrlich	schön	treu	retten	fair	spielen	eitel	schlecht	tot	rächen	faul	strafen	1	acq_USunple_CSunple2_RW	acq2_RW	2	20	480	0	300	300	235	46	0	1	1	blank2r.bmp	0	1	+	0	1	blank2r.bmp	492	1	BZZB	492	1	blank2r.bmp	572	3	strafen	866	1	!	-1	1	!	-1	0	0	0	0	0	0	0	0	0	0	0	0	0	0	0	0	0	0	0	0	0	0	0	0	0	0	0	0	0	0
071619	11:41:10	11:44:00	169903	5.0.10.0	5_exp_RW	53	Rpleas_acq	CS_B	GWWG	YDDY	JXXJ	BZZB	MQQM	VKKV	ehrlich	schön	treu	retten	fair	spielen	eitel	schlecht	tot	rächen	faul	strafen	1	acq_USunple_CSunple2_RW	acq2_RW	2	21	480	0	300	300	625	46	0	1	1	blank2r.bmp	0	1	+	0	1	blank2r.bmp	492	1	BZZB	492	1	blank2r.bmp	572	3	strafen	866	1	!	1319	1	!	-1	0	0	0	0	0	0	0	0	0	0	0	0	0	0	0	0	0	0	0	0	0	0	0	0	0	0	0	0	0	0
071619	11:41:10	11:44:03	172249	5.0.10.0	5_exp_RW	53	Rpleas_acq	CS_B	GWWG	YDDY	JXXJ	BZZB	MQQM	VKKV	ehrlich	schön	treu	retten	fair	spielen	eitel	schlecht	tot	rächen	faul	strafen	1	acq_USpleas_CSpleas1_RW	acq2_RW	2	22	480	1	300	300	544	50	0	1	1	blank2r.bmp	0	1	+	0	1	blank2r.bmp	492	1	GWWG	492	1	blank2r.bmp	572	2	schön	866	1	!	1319	1	!	1439	0	0	0	0	0	0	0	0	0	0	0	0	0	0	0	0	0	0	0	0	0	0	0	0	0	0	0	0	0	0
071619	11:41:10	11:44:05	174474	5.0.10.0	5_exp_RW	53	Rpleas_acq	CS_B	GWWG	YDDY	JXXJ	BZZB	MQQM	VKKV	ehrlich	schön	treu	retten	fair	spielen	eitel	schlecht	tot	rächen	faul	strafen	1	acq_USunple_CSunple1_RW	acq2_RW	2	23	480	1	300	300	435	46	0	1	1	blank2r.bmp	0	1	+	0	1	blank2r.bmp	492	1	JXXJ	492	1	blank2r.bmp	572	3	tot	866	1	!	1319	1	!	1332	0	0	0	0	0	0	0	0	0	0	0	0	0	0	0	0	0	0	0	0	0	0	0	0	0	0	0	0	0	0
071619	11:41:10	11:44:07	176953	5.0.10.0	5_exp_RW	53	Rpleas_acq	CS_B	GWWG	YDDY	JXXJ	BZZB	MQQM	VKKV	ehrlich	schön	treu	retten	fair	spielen	eitel	schlecht	tot	rächen	faul	strafen	1	acq_USpleas_CSpleas2_RW	acq2_RW	2	24	480	1	300	300	468	46	0	0	1	blank2r.bmp	0	1	+	0	1	blank2r.bmp	492	1	YDDY	492	1	blank2r.bmp	572	1	retten	866	1	FEHLER	1692	1	!	1319	1	!	1372	0	0	0	0	0	0	0	0	0	0	0	0	0	0	0	0	0	0	0	0	0	0	0	0	0	0	0
071619	11:41:10	11:44:21	190788	5.0.10.0	5_exp_RW	53	Rpleas_acq	CS_B	GWWG	YDDY	JXXJ	BZZB	MQQM	VKKV	ehrlich	schön	treu	retten	fair	spielen	eitel	schlecht	tot	rächen	faul	strafen	1	acq_USpleas_CSpleas2_RW	acq3_RW	3	1	453	1	300	300	481	50	0	1	1	blank2r.bmp	0	1	+	0	1	blank2r.bmp	492	1	YDDY	492	1	blank2r.bmp	572	2	fair	866	1	!	1292	1	!	1386	0	0	0	0	0	0	0	0	0	0	0	0	0	0	0	0	0	0	0	0	0	0	0	0	0	0	0	0	0	0
071619	11:41:10	11:44:23	193107	5.0.10.0	5_exp_RW	53	Rpleas_acq	CS_B	GWWG	YDDY	JXXJ	BZZB	MQQM	VKKV	ehrlich	schön	treu	retten	fair	spielen	eitel	schlecht	tot	rächen	faul	strafen	1	acq_USpleas_CSpleas1_RW	acq3_RW	3	2	453	1	300	300	519	50	0	1	1	blank2r.bmp	0	1	+	0	1	blank2r.bmp	492	1	GWWG	492	1	blank2r.bmp	572	3	treu	866	1	!	1292	1	!	1426	0	0	0	0	0	0	0	0	0	0	0	0	0	0	0	0	0	0	0	0	0	0	0	0	0	0	0	0	0	0
071619	11:41:10	11:44:26	195413	5.0.10.0	5_exp_RW	53	Rpleas_acq	CS_B	GWWG	YDDY	JXXJ	BZZB	MQQM	VKKV	ehrlich	schön	treu	retten	fair	spielen	eitel	schlecht	tot	rächen	faul	strafen	1	acq_USunple_CSunple1_RW	acq3_RW	3	3	453	0	300	300	541	46	0	1	1	blank2r.bmp	0	1	+	0	1	blank2r.bmp	492	1	JXXJ	492	1	blank2r.bmp	572	2	schlecht	866	1	!	1292	1	!	-1	0	0	0	0	0	0	0	0	0	0	0	0	0	0	0	0	0	0	0	0	0	0	0	0	0	0	0	0	0	0
071619	11:41:10	11:44:28	197518	5.0.10.0	5_exp_RW	53	Rpleas_acq	CS_B	GWWG	YDDY	JXXJ	BZZB	MQQM	VKKV	ehrlich	schön	treu	retten	fair	spielen	eitel	schlecht	tot	rächen	faul	strafen	1	acq_USunple_CSunple2_RW	acq3_RW	3	4	453	0	300	300	325	46	0	1	1	blank2r.bmp	0	1	+	0	1	blank2r.bmp	492	1	BZZB	492	1	blank2r.bmp	572	1	rächen	866	1	!	-1	1	!	-1	0	0	0	0	0	0	0	0	0	0	0	0	0	0	0	0	0	0	0	0	0	0	0	0	0	0	0	0	0	0
071619	11:41:10	11:44:30	199837	5.0.10.0	5_exp_RW	53	Rpleas_acq	CS_B	GWWG	YDDY	JXXJ	BZZB	MQQM	VKKV	ehrlich	schön	treu	retten	fair	spielen	eitel	schlecht	tot	rächen	faul	strafen	1	acq_USunple_CSunple2_RW	acq3_RW	3	5	453	0	300	300	537	46	0	1	1	blank2r.bmp	0	1	+	0	1	blank2r.bmp	492	1	BZZB	492	1	blank2r.bmp	572	2	faul	866	1	!	1292	1	!	-1	0	0	0	0	0	0	0	0	0	0	0	0	0	0	0	0	0	0	0	0	0	0	0	0	0	0	0	0	0	0
071619	11:41:10	11:44:32	202143	5.0.10.0	5_exp_RW	53	Rpleas_acq	CS_B	GWWG	YDDY	JXXJ	BZZB	MQQM	VKKV	ehrlich	schön	treu	retten	fair	spielen	eitel	schlecht	tot	rächen	faul	strafen	1	acq_USunple_CSunple2_RW	acq3_RW	3	6	453	1	300	300	498	46	0	1	1	blank2r.bmp	0	1	+	0	1	blank2r.bmp	492	1	BZZB	492	1	blank2r.bmp	572	1	rächen	866	1	!	1292	1	!	1399	0	0	0	0	0	0	0	0	0	0	0	0	0	0	0	0	0	0	0	0	0	0	0	0	0	0	0	0	0	0
071619	11:41:10	11:44:35	204209	5.0.10.0	5_exp_RW	53	Rpleas_acq	CS_B	GWWG	YDDY	JXXJ	BZZB	MQQM	VKKV	ehrlich	schön	treu	retten	fair	spielen	eitel	schlecht	tot	rächen	faul	strafen	1	acq_USpleas_CSpleas1_RW	acq3_RW	3	7	453	0	300	300	296	50	0	1	1	blank2r.bmp	0	1	+	0	1	blank2r.bmp	492	1	GWWG	492	1	blank2r.bmp	572	1	ehrlich	866	1	!	-1	1	!	-1	0	0	0	0	0	0	0	0	0	0	0	0	0	0	0	0	0	0	0	0	0	0	0	0	0	0	0	0	0	0
071619	11:41:10	11:44:37	206608	5.0.10.0	5_exp_RW	53	Rpleas_acq	CS_B	GWWG	YDDY	JXXJ	BZZB	MQQM	VKKV	ehrlich	schön	treu	retten	fair	spielen	eitel	schlecht	tot	rächen	faul	strafen	1	acq_USunple_CSunple1_RW	acq3_RW	3	8	453	0	300	300	624	46	0	1	1	blank2r.bmp	0	1	+	0	1	blank2r.bmp	492	1	JXXJ	492	1	blank2r.bmp	572	1	eitel	866	1	!	1292	1	!	-1	0	0	0	0	0	0	0	0	0	0	0	0	0	0	0	0	0	0	0	0	0	0	0	0	0	0	0	0	0	0
071619	11:41:10	11:44:39	208874	5.0.10.0	5_exp_RW	53	Rpleas_acq	CS_B	GWWG	YDDY	JXXJ	BZZB	MQQM	VKKV	ehrlich	schön	treu	retten	fair	spielen	eitel	schlecht	tot	rächen	faul	strafen	1	acq_USpleas_CSpleas2_RW	acq3_RW	3	9	453	1	300	300	458	50	0	1	1	blank2r.bmp	0	1	+	0	1	blank2r.bmp	492	1	YDDY	492	1	blank2r.bmp	572	3	spielen	866	1	!	1292	1	!	1359	0	0	0	0	0	0	0	0	0	0	0	0	0	0	0	0	0	0	0	0	0	0	0	0	0	0	0	0	0	0
071619	11:41:10	11:44:42	211219	5.0.10.0	5_exp_RW	53	Rpleas_acq	CS_B	GWWG	YDDY	JXXJ	BZZB	MQQM	VKKV	ehrlich	schön	treu	retten	fair	spielen	eitel	schlecht	tot	rächen	faul	strafen	1	acq_USunple_CSunple2_RW	acq3_RW	3	10	453	0	300	300	569	46	0	1	1	blank2r.bmp	0	1	+	0	1	blank2r.bmp	492	1	BZZB	492	1	blank2r.bmp	572	3	strafen	866	1	!	1292	1	!	-1	0	0	0	0	0	0	0	0	0	0	0	0	0	0	0	0	0	0	0	0	0	0	0	0	0	0	0	0	0	0
071619	11:41:10	11:44:44	213485	5.0.10.0	5_exp_RW	53	Rpleas_acq	CS_B	GWWG	YDDY	JXXJ	BZZB	MQQM	VKKV	ehrlich	schön	treu	retten	fair	spielen	eitel	schlecht	tot	rächen	faul	strafen	1	acq_USpleas_CSpleas1_RW	acq3_RW	3	11	453	1	300	300	455	50	0	1	1	blank2r.bmp	0	1	+	0	1	blank2r.bmp	492	1	GWWG	492	1	blank2r.bmp	572	2	schön	866	1	!	1292	1	!	1359	0	0	0	0	0	0	0	0	0	0	0	0	0	0	0	0	0	0	0	0	0	0	0	0	0	0	0	0	0	0
071619	11:41:10	11:44:46	215804	5.0.10.0	5_exp_RW	53	Rpleas_acq	CS_B	GWWG	YDDY	JXXJ	BZZB	MQQM	VKKV	ehrlich	schön	treu	retten	fair	spielen	eitel	schlecht	tot	rächen	faul	strafen	1	acq_USpleas_CSpleas2_RW	acq3_RW	3	12	453	0	300	300	557	50	0	1	1	blank2r.bmp	0	1	+	0	1	blank2r.bmp	492	1	YDDY	492	1	blank2r.bmp	572	2	fair	866	1	!	1292	1	!	-1	0	0	0	0	0	0	0	0	0	0	0	0	0	0	0	0	0	0	0	0	0	0	0	0	0	0	0	0	0	0
071619	11:41:10	11:44:48	218097	5.0.10.0	5_exp_RW	53	Rpleas_acq	CS_B	GWWG	YDDY	JXXJ	BZZB	MQQM	VKKV	ehrlich	schön	treu	retten	fair	spielen	eitel	schlecht	tot	rächen	faul	strafen	1	acq_USunple_CSunple1_RW	acq3_RW	3	13	453	1	300	300	466	46	0	1	1	blank2r.bmp	0	1	+	0	1	blank2r.bmp	492	1	JXXJ	492	1	blank2r.bmp	572	1	eitel	866	1	!	1292	1	!	1372	0	0	0	0	0	0	0	0	0	0	0	0	0	0	0	0	0	0	0	0	0	0	0	0	0	0	0	0	0	0
071619	11:41:10	11:44:51	220242	5.0.10.0	5_exp_RW	53	Rpleas_acq	CS_B	GWWG	YDDY	JXXJ	BZZB	MQQM	VKKV	ehrlich	schön	treu	retten	fair	spielen	eitel	schlecht	tot	rächen	faul	strafen	1	acq_USunple_CSunple1_RW	acq3_RW	3	14	453	0	300	300	381	46	0	1	1	blank2r.bmp	0	1	+	0	1	blank2r.bmp	492	1	JXXJ	492	1	blank2r.bmp	572	3	tot	866	1	!	-1	1	!	-1	0	0	0	0	0	0	0	0	0	0	0	0	0	0	0	0	0	0	0	0	0	0	0	0	0	0	0	0	0	0
071619	11:41:10	11:44:53	222481	5.0.10.0	5_exp_RW	53	Rpleas_acq	CS_B	GWWG	YDDY	JXXJ	BZZB	MQQM	VKKV	ehrlich	schön	treu	retten	fair	spielen	eitel	schlecht	tot	rächen	faul	strafen	1	acq_USunple_CSunple2_RW	acq3_RW	3	15	453	1	300	300	438	46	0	1	1	blank2r.bmp	0	1	+	0	1	blank2r.bmp	492	1	BZZB	492	1	blank2r.bmp	572	2	faul	866	1	!	1292	1	!	1332	0	0	0	0	0	0	0	0	0	0	0	0	0	0	0	0	0	0	0	0	0	0	0	0	0	0	0	0	0	0
071619	11:41:10	11:44:55	224734	5.0.10.0	5_exp_RW	53	Rpleas_acq	CS_B	GWWG	YDDY	JXXJ	BZZB	MQQM	VKKV	ehrlich	schön	treu	retten	fair	spielen	eitel	schlecht	tot	rächen	faul	strafen	1	acq_USpleas_CSpleas2_RW	acq3_RW	3	16	453	1	300	300	464	50	0	1	1	blank2r.bmp	0	1	+	0	1	blank2r.bmp	492	1	YDDY	492	1	blank2r.bmp	572	1	retten	866	1	!	1292	1	!	1359	0	0	0	0	0	0	0	0	0	0	0	0	0	0	0	0	0	0	0	0	0	0	0	0	0	0	0	0	0	0
071619	11:41:10	11:44:57	227040	5.0.10.0	5_exp_RW	53	Rpleas_acq	CS_B	GWWG	YDDY	JXXJ	BZZB	MQQM	VKKV	ehrlich	schön	treu	retten	fair	spielen	eitel	schlecht	tot	rächen	faul	strafen	1	acq_USpleas_CSpleas1_RW	acq3_RW	3	17	453	0	300	300	532	50	0	1	1	blank2r.bmp	0	1	+	0	1	blank2r.bmp	492	1	GWWG	492	1	blank2r.bmp	572	3	treu	866	1	!	1292	1	!	-1	0	0	0	0	0	0	0	0	0	0	0	0	0	0	0	0	0	0	0	0	0	0	0	0	0	0	0	0	0	0
071619	11:41:10	11:45:00	229345	5.0.10.0	5_exp_RW	53	Rpleas_acq	CS_B	GWWG	YDDY	JXXJ	BZZB	MQQM	VKKV	ehrlich	schön	treu	retten	fair	spielen	eitel	schlecht	tot	rächen	faul	strafen	1	acq_USpleas_CSpleas1_RW	acq3_RW	3	18	453	1	300	300	501	50	0	1	1	blank2r.bmp	0	1	+	0	1	blank2r.bmp	492	1	GWWG	492	1	blank2r.bmp	572	1	ehrlich	866	1	!	1292	1	!	1399	0	0	0	0	0	0	0	0	0	0	0	0	0	0	0	0	0	0	0	0	0	0	0	0	0	0	0	0	0	0
071619	11:41:10	11:45:02	231664	5.0.10.0	5_exp_RW	53	Rpleas_acq	CS_B	GWWG	YDDY	JXXJ	BZZB	MQQM	VKKV	ehrlich	schön	treu	retten	fair	spielen	eitel	schlecht	tot	rächen	faul	strafen	1	acq_USunple_CSunple1_RW	acq3_RW	3	19	453	0	300	300	548	46	0	1	1	blank2r.bmp	0	1	+	0	1	blank2r.bmp	492	1	JXXJ	492	1	blank2r.bmp	572	2	schlecht	866	1	!	1292	1	!	-1	0	0	0	0	0	0	0	0	0	0	0	0	0	0	0	0	0	0	0	0	0	0	0	0	0	0	0	0	0	0
071619	11:41:10	11:45:04	233983	5.0.10.0	5_exp_RW	53	Rpleas_acq	CS_B	GWWG	YDDY	JXXJ	BZZB	MQQM	VKKV	ehrlich	schön	treu	retten	fair	spielen	eitel	schlecht	tot	rächen	faul	strafen	1	acq_USpleas_CSpleas2_RW	acq3_RW	3	20	453	0	300	300	538	50	0	1	1	blank2r.bmp	0	1	+	0	1	blank2r.bmp	492	1	YDDY	492	1	blank2r.bmp	572	3	spielen	866	1	!	1292	1	!	-1	0	0	0	0	0	0	0	0	0	0	0	0	0	0	0	0	0	0	0	0	0	0	0	0	0	0	0	0	0	0
071619	11:41:10	11:45:07	236316	5.0.10.0	5_exp_RW	53	Rpleas_acq	CS_B	GWWG	YDDY	JXXJ	BZZB	MQQM	VKKV	ehrlich	schön	treu	retten	fair	spielen	eitel	schlecht	tot	rächen	faul	strafen	1	acq_USpleas_CSpleas1_RW	acq3_RW	3	21	453	0	300	300	552	50	0	1	1	blank2r.bmp	0	1	+	0	1	blank2r.bmp	492	1	GWWG	492	1	blank2r.bmp	572	2	schön	866	1	!	1292	1	!	-1	0	0	0	0	0	0	0	0	0	0	0	0	0	0	0	0	0	0	0	0	0	0	0	0	0	0	0	0	0	0
071619	11:41:10	11:45:09	238941	5.0.10.0	5_exp_RW	53	Rpleas_acq	CS_B	GWWG	YDDY	JXXJ	BZZB	MQQM	VKKV	ehrlich	schön	treu	retten	fair	spielen	eitel	schlecht	tot	rächen	faul	strafen	1	acq_USunple_CSunple1_RW	acq3_RW	3	22	453	0	300	300	604	50	0	0	1	blank2r.bmp	0	1	+	0	1	blank2r.bmp	492	1	JXXJ	492	1	blank2r.bmp	572	3	tot	866	1	FEHLER	1812	1	!	1292	1	!	-1	0	0	0	0	0	0	0	0	0	0	0	0	0	0	0	0	0	0	0	0	0	0	0	0	0	0	0
071619	11:41:10	11:45:11	241034	5.0.10.0	5_exp_RW	53	Rpleas_acq	CS_B	GWWG	YDDY	JXXJ	BZZB	MQQM	VKKV	ehrlich	schön	treu	retten	fair	spielen	eitel	schlecht	tot	rächen	faul	strafen	1	acq_USunple_CSunple2_RW	acq3_RW	3	23	453	1	300	300	510	46	0	1	1	blank2r.bmp	0	1	+	0	1	blank2r.bmp	492	1	BZZB	492	1	blank2r.bmp	572	2	faul	866	1	!	1292	1	!	1412	0	0	0	0	0	0	0	0	0	0	0	0	0	0	0	0	0	0	0	0	0	0	0	0	0	0	0	0	0	0
071619	11:41:10	11:45:14	243353	5.0.10.0	5_exp_RW	53	Rpleas_acq	CS_B	GWWG	YDDY	JXXJ	BZZB	MQQM	VKKV	ehrlich	schön	treu	retten	fair	spielen	eitel	schlecht	tot	rächen	faul	strafen	1	acq_USpleas_CSpleas2_RW	acq3_RW	3	24	453	1	300	300	520	50	0	1	1	blank2r.bmp	0	1	+	0	1	blank2r.bmp	492	1	YDDY	492	1	blank2r.bmp	572	3	spielen	866	1	!	1292	1	!	1426	0	0	0	0	0	0	0	0	0	0	0	0	0	0	0	0	0	0	0	0	0	0	0	0	0	0	0	0	0	0
071619	11:41:10	11:45:25	254748	5.0.10.0	5_exp_RW	53	Rpleas_acq	CS_B	GWWG	YDDY	JXXJ	BZZB	MQQM	VKKV	ehrlich	schön	treu	retten	fair	spielen	eitel	schlecht	tot	rächen	faul	strafen	1	acq_USunple_CSunple2_RW	acq4567_RW	4	1	400	0	300	300	508	46	0	1	1	blank2r.bmp	0	1	+	0	1	blank2r.bmp	492	1	BZZB	492	1	blank2r.bmp	572	1	rächen	866	1	!	1239	1	!	-1	0	0	0	0	0	0	0	0	0	0	0	0	0	0	0	0	0	0	0	0	0	0	0	0	0	0	0	0	0	0
071619	11:41:10	11:45:27	256934	5.0.10.0	5_exp_RW	53	Rpleas_acq	CS_B	GWWG	YDDY	JXXJ	BZZB	MQQM	VKKV	ehrlich	schön	treu	retten	fair	spielen	eitel	schlecht	tot	rächen	faul	strafen	1	acq_USpleas_CSpleas2_RW	acq4567_RW	4	2	400	1	300	300	385	46	0	0	1	blank2r.bmp	0	1	+	0	1	blank2r.bmp	492	1	YDDY	492	1	blank2r.bmp	572	2	fair	866	1	!	1239	1	!	1279	0	0	0	0	0	0	0	0	0	0	0	0	0	0	0	0	0	0	0	0	0	0	0	0	0	0	0	0	0	0
071619	11:41:10	11:45:29	259146	5.0.10.0	5_exp_RW	53	Rpleas_acq	CS_B	GWWG	YDDY	JXXJ	BZZB	MQQM	VKKV	ehrlich	schön	treu	retten	fair	spielen	eitel	schlecht	tot	rächen	faul	strafen	1	acq_USunple_CSunple1_RW	acq4567_RW	4	3	400	1	300	300	422	46	0	1	1	blank2r.bmp	0	1	+	0	1	blank2r.bmp	492	1	JXXJ	492	1	blank2r.bmp	572	1	eitel	866	1	!	1239	1	!	1319	0	0	0	0	0	0	0	0	0	0	0	0	0	0	0	0	0	0	0	0	0	0	0	0	0	0	0	0	0	0
071619	11:41:10	11:45:32	261399	5.0.10.0	5_exp_RW	53	Rpleas_acq	CS_B	GWWG	YDDY	JXXJ	BZZB	MQQM	VKKV	ehrlich	schön	treu	retten	fair	spielen	eitel	schlecht	tot	rächen	faul	strafen	1	acq_USunple_CSunple1_RW	acq4567_RW	4	4	400	0	300	300	488	46	0	1	1	blank2r.bmp	0	1	+	0	1	blank2r.bmp	492	1	JXXJ	492	1	blank2r.bmp	572	2	schlecht	866	1	!	1239	1	!	-1	0	0	0	0	0	0	0	0	0	0	0	0	0	0	0	0	0	0	0	0	0	0	0	0	0	0	0	0	0	0
071619	11:41:10	11:45:34	263651	5.0.10.0	5_exp_RW	53	Rpleas_acq	CS_B	GWWG	YDDY	JXXJ	BZZB	MQQM	VKKV	ehrlich	schön	treu	retten	fair	spielen	eitel	schlecht	tot	rächen	faul	strafen	1	acq_USunple_CSunple1_RW	acq4567_RW	4	5	400	1	300	300	443	46	0	1	1	blank2r.bmp	0	1	+	0	1	blank2r.bmp	492	1	JXXJ	492	1	blank2r.bmp	572	2	schlecht	866	1	!	1239	1	!	1346	0	0	0	0	0	0	0	0	0	0	0	0	0	0	0	0	0	0	0	0	0	0	0	0	0	0	0	0	0	0
071619	11:41:10	11:45:36	265824	5.0.10.0	5_exp_RW	53	Rpleas_acq	CS_B	GWWG	YDDY	JXXJ	BZZB	MQQM	VKKV	ehrlich	schön	treu	retten	fair	spielen	eitel	schlecht	tot	rächen	faul	strafen	1	acq_USunple_CSunple2_RW	acq4567_RW	4	6	400	1	300	300	384	46	0	1	1	blank2r.bmp	0	1	+	0	1	blank2r.bmp	492	1	BZZB	492	1	blank2r.bmp	572	3	strafen	866	1	!	1239	1	!	1279	0	0	0	0	0	0	0	0	0	0	0	0	0	0	0	0	0	0	0	0	0	0	0	0	0	0	0	0	0	0
071619	11:41:10	11:45:38	268116	5.0.10.0	5_exp_RW	53	Rpleas_acq	CS_B	GWWG	YDDY	JXXJ	BZZB	MQQM	VKKV	ehrlich	schön	treu	retten	fair	spielen	eitel	schlecht	tot	rächen	faul	strafen	1	acq_USpleas_CSpleas1_RW	acq4567_RW	4	7	400	0	300	300	530	50	0	1	1	blank2r.bmp	0	1	+	0	1	blank2r.bmp	492	1	GWWG	492	1	blank2r.bmp	572	1	ehrlich	866	1	!	1239	1	!	-1	0	0	0	0	0	0	0	0	0	0	0	0	0	0	0	0	0	0	0	0	0	0	0	0	0	0	0	0	0	0
071619	11:41:10	11:45:41	270222	5.0.10.0	5_exp_RW	53	Rpleas_acq	CS_B	GWWG	YDDY	JXXJ	BZZB	MQQM	VKKV	ehrlich	schön	treu	retten	fair	spielen	eitel	schlecht	tot	rächen	faul	strafen	1	acq_USpleas_CSpleas1_RW	acq4567_RW	4	8	400	0	300	300	328	46	0	0	1	blank2r.bmp	0	1	+	0	1	blank2r.bmp	492	1	GWWG	492	1	blank2r.bmp	572	3	treu	866	1	!	-1	1	!	-1	0	0	0	0	0	0	0	0	0	0	0	0	0	0	0	0	0	0	0	0	0	0	0	0	0	0	0	0	0	0
071619	11:41:10	11:45:43	272314	5.0.10.0	5_exp_RW	53	Rpleas_acq	CS_B	GWWG	YDDY	JXXJ	BZZB	MQQM	VKKV	ehrlich	schön	treu	retten	fair	spielen	eitel	schlecht	tot	rächen	faul	strafen	1	acq_USunple_CSunple2_RW	acq4567_RW	4	9	400	0	300	300	313	46	0	1	1	blank2r.bmp	0	1	+	0	1	blank2r.bmp	492	1	BZZB	492	1	blank2r.bmp	572	3	strafen	866	1	!	-1	1	!	-1	0	0	0	0	0	0	0	0	0	0	0	0	0	0	0	0	0	0	0	0	0	0	0	0	0	0	0	0	0	0
071619	11:41:10	11:45:45	274633	5.0.10.0	5_exp_RW	53	Rpleas_acq	CS_B	GWWG	YDDY	JXXJ	BZZB	MQQM	VKKV	ehrlich	schön	treu	retten	fair	spielen	eitel	schlecht	tot	rächen	faul	strafen	1	acq_USpleas_CSpleas1_RW	acq4567_RW	4	10	400	0	300	300	534	50	0	1	1	blank2r.bmp	0	1	+	0	1	blank2r.bmp	492	1	GWWG	492	1	blank2r.bmp	572	1	ehrlich	866	1	!	1239	1	!	-1	0	0	0	0	0	0	0	0	0	0	0	0	0	0	0	0	0	0	0	0	0	0	0	0	0	0	0	0	0	0
071619	11:41:10	11:45:47	276859	5.0.10.0	5_exp_RW	53	Rpleas_acq	CS_B	GWWG	YDDY	JXXJ	BZZB	MQQM	VKKV	ehrlich	schön	treu	retten	fair	spielen	eitel	schlecht	tot	rächen	faul	strafen	1	acq_USpleas_CSpleas1_RW	acq4567_RW	4	11	400	1	300	300	421	50	0	1	1	blank2r.bmp	0	1	+	0	1	blank2r.bmp	492	1	GWWG	492	1	blank2r.bmp	572	2	schön	866	1	!	1239	1	!	1319	0	0	0	0	0	0	0	0	0	0	0	0	0	0	0	0	0	0	0	0	0	0	0	0	0	0	0	0	0	0
071619	11:41:10	11:45:49	279125	5.0.10.0	5_exp_RW	53	Rpleas_acq	CS_B	GWWG	YDDY	JXXJ	BZZB	MQQM	VKKV	ehrlich	schön	treu	retten	fair	spielen	eitel	schlecht	tot	rächen	faul	strafen	1	acq_USpleas_CSpleas2_RW	acq4567_RW	4	12	400	0	300	300	490	50	0	1	1	blank2r.bmp	0	1	+	0	1	blank2r.bmp	492	1	YDDY	492	1	blank2r.bmp	572	1	retten	866	1	!	1239	1	!	-1	0	0	0	0	0	0	0	0	0	0	0	0	0	0	0	0	0	0	0	0	0	0	0	0	0	0	0	0	0	0
071619	11:41:10	11:45:52	281191	5.0.10.0	5_exp_RW	53	Rpleas_acq	CS_B	GWWG	YDDY	JXXJ	BZZB	MQQM	VKKV	ehrlich	schön	treu	retten	fair	spielen	eitel	schlecht	tot	rächen	faul	strafen	1	acq_USunple_CSunple2_RW	acq4567_RW	4	13	400	0	300	300	291	46	0	1	1	blank2r.bmp	0	1	+	0	1	blank2r.bmp	492	1	BZZB	492	1	blank2r.bmp	572	1	rächen	866	1	!	-1	1	!	-1	0	0	0	0	0	0	0	0	0	0	0	0	0	0	0	0	0	0	0	0	0	0	0	0	0	0	0	0	0	0
071619	11:41:10	11:45:54	283483	5.0.10.0	5_exp_RW	53	Rpleas_acq	CS_B	GWWG	YDDY	JXXJ	BZZB	MQQM	VKKV	ehrlich	schön	treu	retten	fair	spielen	eitel	schlecht	tot	rächen	faul	strafen	1	acq_USpleas_CSpleas2_RW	acq4567_RW	4	14	400	0	300	300	512	50	0	1	1	blank2r.bmp	0	1	+	0	1	blank2r.bmp	492	1	YDDY	492	1	blank2r.bmp	572	3	spielen	866	1	!	1239	1	!	-1	0	0	0	0	0	0	0	0	0	0	0	0	0	0	0	0	0	0	0	0	0	0	0	0	0	0	0	0	0	0
071619	11:41:10	11:45:56	285749	5.0.10.0	5_exp_RW	53	Rpleas_acq	CS_B	GWWG	YDDY	JXXJ	BZZB	MQQM	VKKV	ehrlich	schön	treu	retten	fair	spielen	eitel	schlecht	tot	rächen	faul	strafen	1	acq_USpleas_CSpleas2_RW	acq4567_RW	4	15	400	1	300	300	454	50	0	1	1	blank2r.bmp	0	1	+	0	1	blank2r.bmp	492	1	YDDY	492	1	blank2r.bmp	572	1	retten	866	1	!	1239	1	!	1359	0	0	0	0	0	0	0	0	0	0	0	0	0	0	0	0	0	0	0	0	0	0	0	0	0	0	0	0	0	0
071619	11:41:10	11:45:58	288001	5.0.10.0	5_exp_RW	53	Rpleas_acq	CS_B	GWWG	YDDY	JXXJ	BZZB	MQQM	VKKV	ehrlich	schön	treu	retten	fair	spielen	eitel	schlecht	tot	rächen	faul	strafen	1	acq_USunple_CSunple2_RW	acq4567_RW	4	16	400	0	300	300	479	46	0	1	1	blank2r.bmp	0	1	+	0	1	blank2r.bmp	492	1	BZZB	492	1	blank2r.bmp	572	2	faul	866	1	!	1239	1	!	-1	0	0	0	0	0	0	0	0	0	0	0	0	0	0	0	0	0	0	0	0	0	0	0	0	0	0	0	0	0	0
071619	11:41:10	11:46:01	290240	5.0.10.0	5_exp_RW	53	Rpleas_acq	CS_B	GWWG	YDDY	JXXJ	BZZB	MQQM	VKKV	ehrlich	schön	treu	retten	fair	spielen	eitel	schlecht	tot	rächen	faul	strafen	1	acq_USpleas_CSpleas1_RW	acq4567_RW	4	17	400	1	300	300	436	50	0	1	1	blank2r.bmp	0	1	+	0	1	blank2r.bmp	492	1	GWWG	492	1	blank2r.bmp	572	3	treu	866	1	!	1239	1	!	1332	0	0	0	0	0	0	0	0	0	0	0	0	0	0	0	0	0	0	0	0	0	0	0	0	0	0	0	0	0	0
071619	11:41:10	11:46:03	292519	5.0.10.0	5_exp_RW	53	Rpleas_acq	CS_B	GWWG	YDDY	JXXJ	BZZB	MQQM	VKKV	ehrlich	schön	treu	retten	fair	spielen	eitel	schlecht	tot	rächen	faul	strafen	1	acq_USunple_CSunple1_RW	acq4567_RW	4	18	400	0	300	300	510	46	0	1	1	blank2r.bmp	0	1	+	0	1	blank2r.bmp	492	1	JXXJ	492	1	blank2r.bmp	572	1	eitel	866	1	!	1239	1	!	-1	0	0	0	0	0	0	0	0	0	0	0	0	0	0	0	0	0	0	0	0	0	0	0	0	0	0	0	0	0	0
071619	11:41:10	11:46:05	294852	5.0.10.0	5_exp_RW	53	Rpleas_acq	CS_B	GWWG	YDDY	JXXJ	BZZB	MQQM	VKKV	ehrlich	schön	treu	retten	fair	spielen	eitel	schlecht	tot	rächen	faul	strafen	1	acq_USpleas_CSpleas2_RW	acq4567_RW	4	19	400	0	300	300	554	50	0	1	1	blank2r.bmp	0	1	+	0	1	blank2r.bmp	492	1	YDDY	492	1	blank2r.bmp	572	2	fair	866	1	!	1239	1	!	-1	0	0	0	0	0	0	0	0	0	0	0	0	0	0	0	0	0	0	0	0	0	0	0	0	0	0	0	0	0	0
071619	11:41:10	11:46:07	296891	5.0.10.0	5_exp_RW	53	Rpleas_acq	CS_B	GWWG	YDDY	JXXJ	BZZB	MQQM	VKKV	ehrlich	schön	treu	retten	fair	spielen	eitel	schlecht	tot	rächen	faul	strafen	1	acq_USunple_CSunple1_RW	acq4567_RW	4	20	400	0	300	300	263	46	0	1	1	blank2r.bmp	0	1	+	0	1	blank2r.bmp	492	1	JXXJ	492	1	blank2r.bmp	572	3	tot	866	1	!	-1	1	!	-1	0	0	0	0	0	0	0	0	0	0	0	0	0	0	0	0	0	0	0	0	0	0	0	0	0	0	0	0	0	0
071619	11:41:10	11:46:09	299157	5.0.10.0	5_exp_RW	53	Rpleas_acq	CS_B	GWWG	YDDY	JXXJ	BZZB	MQQM	VKKV	ehrlich	schön	treu	retten	fair	spielen	eitel	schlecht	tot	rächen	faul	strafen	1	acq_USpleas_CSpleas2_RW	acq4567_RW	4	21	400	1	300	300	446	50	0	1	1	blank2r.bmp	0	1	+	0	1	blank2r.bmp	492	1	YDDY	492	1	blank2r.bmp	572	2	fair	866	1	!	1239	1	!	1346	0	0	0	0	0	0	0	0	0	0	0	0	0	0	0	0	0	0	0	0	0	0	0	0	0	0	0	0	0	0
071619	11:41:10	11:46:12	301382	5.0.10.0	5_exp_RW	53	Rpleas_acq	CS_B	GWWG	YDDY	JXXJ	BZZB	MQQM	VKKV	ehrlich	schön	treu	retten	fair	spielen	eitel	schlecht	tot	rächen	faul	strafen	1	acq_USpleas_CSpleas1_RW	acq4567_RW	4	22	400	1	300	300	435	50	0	1	1	blank2r.bmp	0	1	+	0	1	blank2r.bmp	492	1	GWWG	492	1	blank2r.bmp	572	1	ehrlich	866	1	!	1239	1	!	1332	0	0	0	0	0	0	0	0	0	0	0	0	0	0	0	0	0	0	0	0	0	0	0	0	0	0	0	0	0	0
071619	11:41:10	11:46:14	303675	5.0.10.0	5_exp_RW	53	Rpleas_acq	CS_B	GWWG	YDDY	JXXJ	BZZB	MQQM	VKKV	ehrlich	schön	treu	retten	fair	spielen	eitel	schlecht	tot	rächen	faul	strafen	1	acq_USpleas_CSpleas2_RW	acq4567_RW	4	23	400	0	300	300	516	50	0	1	1	blank2r.bmp	0	1	+	0	1	blank2r.bmp	492	1	YDDY	492	1	blank2r.bmp	572	3	spielen	866	1	!	1239	1	!	-1	0	0	0	0	0	0	0	0	0	0	0	0	0	0	0	0	0	0	0	0	0	0	0	0	0	0	0	0	0	0
071619	11:41:10	11:46:16	305914	5.0.10.0	5_exp_RW	53	Rpleas_acq	CS_B	GWWG	YDDY	JXXJ	BZZB	MQQM	VKKV	ehrlich	schön	treu	retten	fair	spielen	eitel	schlecht	tot	rächen	faul	strafen	1	acq_USpleas_CSpleas2_RW	acq4567_RW	4	24	400	1	300	300	429	46	0	0	1	blank2r.bmp	0	1	+	0	1	blank2r.bmp	492	1	YDDY	492	1	blank2r.bmp	572	1	retten	866	1	!	1239	1	!	1332	0	0	0	0	0	0	0	0	0	0	0	0	0	0	0	0	0	0	0	0	0	0	0	0	0	0	0	0	0	0
071619	11:41:10	11:46:18	308060	5.0.10.0	5_exp_RW	53	Rpleas_acq	CS_B	GWWG	YDDY	JXXJ	BZZB	MQQM	VKKV	ehrlich	schön	treu	retten	fair	spielen	eitel	schlecht	tot	rächen	faul	strafen	1	acq_USpleas_CSpleas1_RW	acq4567_RW	4	25	400	1	300	300	346	50	0	1	1	blank2r.bmp	0	1	+	0	1	blank2r.bmp	492	1	GWWG	492	1	blank2r.bmp	572	2	schön	866	1	!	1239	1	!	1252	0	0	0	0	0	0	0	0	0	0	0	0	0	0	0	0	0	0	0	0	0	0	0	0	0	0	0	0	0	0
071619	11:41:10	11:46:21	310219	5.0.10.0	5_exp_RW	53	Rpleas_acq	CS_B	GWWG	YDDY	JXXJ	BZZB	MQQM	VKKV	ehrlich	schön	treu	retten	fair	spielen	eitel	schlecht	tot	rächen	faul	strafen	1	acq_USpleas_CSpleas1_RW	acq4567_RW	4	26	400	1	300	300	346	46	0	0	1	blank2r.bmp	0	1	+	0	1	blank2r.bmp	492	1	GWWG	492	1	blank2r.bmp	572	3	treu	866	1	!	1239	1	!	1252	0	0	0	0	0	0	0	0	0	0	0	0	0	0	0	0	0	0	0	0	0	0	0	0	0	0	0	0	0	0
071619	11:41:10	11:46:23	312511	5.0.10.0	5_exp_RW	53	Rpleas_acq	CS_B	GWWG	YDDY	JXXJ	BZZB	MQQM	VKKV	ehrlich	schön	treu	retten	fair	spielen	eitel	schlecht	tot	rächen	faul	strafen	1	acq_USunple_CSunple1_RW	acq4567_RW	4	27	400	0	300	300	522	46	0	1	1	blank2r.bmp	0	1	+	0	1	blank2r.bmp	492	1	JXXJ	492	1	blank2r.bmp	572	2	schlecht	866	1	!	1239	1	!	-1	0	0	0	0	0	0	0	0	0	0	0	0	0	0	0	0	0	0	0	0	0	0	0	0	0	0	0	0	0	0
071619	11:41:10	11:46:25	314764	5.0.10.0	5_exp_RW	53	Rpleas_acq	CS_B	GWWG	YDDY	JXXJ	BZZB	MQQM	VKKV	ehrlich	schön	treu	retten	fair	spielen	eitel	schlecht	tot	rächen	faul	strafen	1	acq_USunple_CSunple1_RW	acq4567_RW	4	28	400	1	300	300	447	46	0	1	1	blank2r.bmp	0	1	+	0	1	blank2r.bmp	492	1	JXXJ	492	1	blank2r.bmp	572	1	eitel	866	1	!	1239	1	!	1346	0	0	0	0	0	0	0	0	0	0	0	0	0	0	0	0	0	0	0	0	0	0	0	0	0	0	0	0	0	0
071619	11:41:10	11:46:27	317136	5.0.10.0	5_exp_RW	53	Rpleas_acq	CS_B	GWWG	YDDY	JXXJ	BZZB	MQQM	VKKV	ehrlich	schön	treu	retten	fair	spielen	eitel	schlecht	tot	rächen	faul	strafen	1	acq_USunple_CSunple2_RW	acq4567_RW	4	29	400	0	300	300	607	46	0	1	1	blank2r.bmp	0	1	+	0	1	blank2r.bmp	492	1	BZZB	492	1	blank2r.bmp	572	2	faul	866	1	!	1239	1	!	-1	0	0	0	0	0	0	0	0	0	0	0	0	0	0	0	0	0	0	0	0	0	0	0	0	0	0	0	0	0	0
071619	11:41:10	11:46:30	319348	5.0.10.0	5_exp_RW	53	Rpleas_acq	CS_B	GWWG	YDDY	JXXJ	BZZB	MQQM	VKKV	ehrlich	schön	treu	retten	fair	spielen	eitel	schlecht	tot	rächen	faul	strafen	1	acq_USunple_CSunple1_RW	acq4567_RW	4	30	400	1	300	300	402	46	0	1	1	blank2r.bmp	0	1	+	0	1	blank2r.bmp	492	1	JXXJ	492	1	blank2r.bmp	572	3	tot	866	1	!	1239	1	!	1306	0	0	0	0	0	0	0	0	0	0	0	0	0	0	0	0	0	0	0	0	0	0	0	0	0	0	0	0	0	0
071619	11:41:10	11:46:32	321588	5.0.10.0	5_exp_RW	53	Rpleas_acq	CS_B	GWWG	YDDY	JXXJ	BZZB	MQQM	VKKV	ehrlich	schön	treu	retten	fair	spielen	eitel	schlecht	tot	rächen	faul	strafen	1	acq_USpleas_CSpleas1_RW	acq4567_RW	4	31	400	1	300	300	446	50	0	1	1	blank2r.bmp	0	1	+	0	1	blank2r.bmp	492	1	GWWG	492	1	blank2r.bmp	572	3	treu	866	1	!	1239	1	!	1346	0	0	0	0	0	0	0	0	0	0	0	0	0	0	0	0	0	0	0	0	0	0	0	0	0	0	0	0	0	0
071619	11:41:10	11:46:34	323853	5.0.10.0	5_exp_RW	53	Rpleas_acq	CS_B	GWWG	YDDY	JXXJ	BZZB	MQQM	VKKV	ehrlich	schön	treu	retten	fair	spielen	eitel	schlecht	tot	rächen	faul	strafen	1	acq_USunple_CSunple2_RW	acq4567_RW	4	32	400	0	300	300	492	46	0	1	1	blank2r.bmp	0	1	+	0	1	blank2r.bmp	492	1	BZZB	492	1	blank2r.bmp	572	3	strafen	866	1	!	1239	1	!	-1	0	0	0	0	0	0	0	0	0	0	0	0	0	0	0	0	0	0	0	0	0	0	0	0	0	0	0	0	0	0
071619	11:41:10	11:46:36	325932	5.0.10.0	5_exp_RW	53	Rpleas_acq	CS_B	GWWG	YDDY	JXXJ	BZZB	MQQM	VKKV	ehrlich	schön	treu	retten	fair	spielen	eitel	schlecht	tot	rächen	faul	strafen	1	acq_USpleas_CSpleas2_RW	acq4567_RW	4	33	400	0	300	300	296	50	0	1	1	blank2r.bmp	0	1	+	0	1	blank2r.bmp	492	1	YDDY	492	1	blank2r.bmp	572	3	spielen	866	1	!	-1	1	!	-1	0	0	0	0	0	0	0	0	0	0	0	0	0	0	0	0	0	0	0	0	0	0	0	0	0	0	0	0	0	0
071619	11:41:10	11:46:39	328278	5.0.10.0	5_exp_RW	53	Rpleas_acq	CS_B	GWWG	YDDY	JXXJ	BZZB	MQQM	VKKV	ehrlich	schön	treu	retten	fair	spielen	eitel	schlecht	tot	rächen	faul	strafen	1	acq_USunple_CSunple2_RW	acq4567_RW	4	34	400	0	300	300	562	46	0	1	1	blank2r.bmp	0	1	+	0	1	blank2r.bmp	492	1	BZZB	492	1	blank2r.bmp	572	1	rächen	866	1	!	1239	1	!	-1	0	0	0	0	0	0	0	0	0	0	0	0	0	0	0	0	0	0	0	0	0	0	0	0	0	0	0	0	0	0
071619	11:41:10	11:46:41	330557	5.0.10.0	5_exp_RW	53	Rpleas_acq	CS_B	GWWG	YDDY	JXXJ	BZZB	MQQM	VKKV	ehrlich	schön	treu	retten	fair	spielen	eitel	schlecht	tot	rächen	faul	strafen	1	acq_USpleas_CSpleas1_RW	acq4567_RW	4	35	400	1	300	300	458	50	0	1	1	blank2r.bmp	0	1	+	0	1	blank2r.bmp	492	1	GWWG	492	1	blank2r.bmp	572	2	schön	866	1	!	1239	1	!	1359	0	0	0	0	0	0	0	0	0	0	0	0	0	0	0	0	0	0	0	0	0	0	0	0	0	0	0	0	0	0
071619	11:41:10	11:46:43	332836	5.0.10.0	5_exp_RW	53	Rpleas_acq	CS_B	GWWG	YDDY	JXXJ	BZZB	MQQM	VKKV	ehrlich	schön	treu	retten	fair	spielen	eitel	schlecht	tot	rächen	faul	strafen	1	acq_USunple_CSunple1_RW	acq4567_RW	4	36	400	0	300	300	507	46	0	1	1	blank2r.bmp	0	1	+	0	1	blank2r.bmp	492	1	JXXJ	492	1	blank2r.bmp	572	3	tot	866	1	!	1239	1	!	-1	0	0	0	0	0	0	0	0	0	0	0	0	0	0	0	0	0	0	0	0	0	0	0	0	0	0	0	0	0	0
071619	11:41:10	11:46:45	335062	5.0.10.0	5_exp_RW	53	Rpleas_acq	CS_B	GWWG	YDDY	JXXJ	BZZB	MQQM	VKKV	ehrlich	schön	treu	retten	fair	spielen	eitel	schlecht	tot	rächen	faul	strafen	1	acq_USpleas_CSpleas2_RW	acq4567_RW	4	37	400	1	300	300	413	50	0	1	1	blank2r.bmp	0	1	+	0	1	blank2r.bmp	492	1	YDDY	492	1	blank2r.bmp	572	2	fair	866	1	!	1239	1	!	1319	0	0	0	0	0	0	0	0	0	0	0	0	0	0	0	0	0	0	0	0	0	0	0	0	0	0	0	0	0	0
071619	11:41:10	11:46:48	337368	5.0.10.0	5_exp_RW	53	Rpleas_acq	CS_B	GWWG	YDDY	JXXJ	BZZB	MQQM	VKKV	ehrlich	schön	treu	retten	fair	spielen	eitel	schlecht	tot	rächen	faul	strafen	1	acq_USunple_CSunple2_RW	acq4567_RW	4	38	400	0	300	300	523	46	0	1	1	blank2r.bmp	0	1	+	0	1	blank2r.bmp	492	1	BZZB	492	1	blank2r.bmp	572	1	rächen	866	1	!	1239	1	!	-1	0	0	0	0	0	0	0	0	0	0	0	0	0	0	0	0	0	0	0	0	0	0	0	0	0	0	0	0	0	0
071619	11:41:10	11:46:50	339527	5.0.10.0	5_exp_RW	53	Rpleas_acq	CS_B	GWWG	YDDY	JXXJ	BZZB	MQQM	VKKV	ehrlich	schön	treu	retten	fair	spielen	eitel	schlecht	tot	rächen	faul	strafen	1	acq_USunple_CSunple1_RW	acq4567_RW	4	39	400	1	300	300	356	46	0	1	1	blank2r.bmp	0	1	+	0	1	blank2r.bmp	492	1	JXXJ	492	1	blank2r.bmp	572	2	schlecht	866	1	!	1239	1	!	1252	0	0	0	0	0	0	0	0	0	0	0	0	0	0	0	0	0	0	0	0	0	0	0	0	0	0	0	0	0	0
071619	11:41:10	11:46:52	341726	5.0.10.0	5_exp_RW	53	Rpleas_acq	CS_B	GWWG	YDDY	JXXJ	BZZB	MQQM	VKKV	ehrlich	schön	treu	retten	fair	spielen	eitel	schlecht	tot	rächen	faul	strafen	1	acq_USunple_CSunple2_RW	acq4567_RW	4	40	400	1	300	300	405	46	0	1	1	blank2r.bmp	0	1	+	0	1	blank2r.bmp	492	1	BZZB	492	1	blank2r.bmp	572	2	faul	866	1	!	1239	1	!	1306	0	0	0	0	0	0	0	0	0	0	0	0	0	0	0	0	0	0	0	0	0	0	0	0	0	0	0	0	0	0
071619	11:41:10	11:46:54	343978	5.0.10.0	5_exp_RW	53	Rpleas_acq	CS_B	GWWG	YDDY	JXXJ	BZZB	MQQM	VKKV	ehrlich	schön	treu	retten	fair	spielen	eitel	schlecht	tot	rächen	faul	strafen	1	acq_USunple_CSunple1_RW	acq4567_RW	4	41	400	1	300	300	460	46	0	1	1	blank2r.bmp	0	1	+	0	1	blank2r.bmp	492	1	JXXJ	492	1	blank2r.bmp	572	1	eitel	866	1	!	1239	1	!	1359	0	0	0	0	0	0	0	0	0	0	0	0	0	0	0	0	0	0	0	0	0	0	0	0	0	0	0	0	0	0
071619	11:41:10	11:46:56	346124	5.0.10.0	5_exp_RW	53	Rpleas_acq	CS_B	GWWG	YDDY	JXXJ	BZZB	MQQM	VKKV	ehrlich	schön	treu	retten	fair	spielen	eitel	schlecht	tot	rächen	faul	strafen	1	acq_USpleas_CSpleas1_RW	acq4567_RW	4	42	400	1	300	300	355	50	0	1	1	blank2r.bmp	0	1	+	0	1	blank2r.bmp	492	1	GWWG	492	1	blank2r.bmp	572	1	ehrlich	866	1	!	1239	1	!	1252	0	0	0	0	0	0	0	0	0	0	0	0	0	0	0	0	0	0	0	0	0	0	0	0	0	0	0	0	0	0
071619	11:41:10	11:46:59	348390	5.0.10.0	5_exp_RW	53	Rpleas_acq	CS_B	GWWG	YDDY	JXXJ	BZZB	MQQM	VKKV	ehrlich	schön	treu	retten	fair	spielen	eitel	schlecht	tot	rächen	faul	strafen	1	acq_USpleas_CSpleas2_RW	acq4567_RW	4	43	400	0	300	300	493	50	0	1	1	blank2r.bmp	0	1	+	0	1	blank2r.bmp	492	1	YDDY	492	1	blank2r.bmp	572	1	retten	866	1	!	1239	1	!	-1	0	0	0	0	0	0	0	0	0	0	0	0	0	0	0	0	0	0	0	0	0	0	0	0	0	0	0	0	0	0
071619	11:41:10	11:47:01	350589	5.0.10.0	5_exp_RW	53	Rpleas_acq	CS_B	GWWG	YDDY	JXXJ	BZZB	MQQM	VKKV	ehrlich	schön	treu	retten	fair	spielen	eitel	schlecht	tot	rächen	faul	strafen	1	acq_USpleas_CSpleas2_RW	acq4567_RW	4	44	400	1	300	300	394	50	0	1	1	blank2r.bmp	0	1	+	0	1	blank2r.bmp	492	1	YDDY	492	1	blank2r.bmp	572	1	retten	866	1	!	1239	1	!	1292	0	0	0	0	0	0	0	0	0	0	0	0	0	0	0	0	0	0	0	0	0	0	0	0	0	0	0	0	0	0
071619	11:41:10	11:47:03	352748	5.0.10.0	5_exp_RW	53	Rpleas_acq	CS_B	GWWG	YDDY	JXXJ	BZZB	MQQM	VKKV	ehrlich	schön	treu	retten	fair	spielen	eitel	schlecht	tot	rächen	faul	strafen	1	acq_USunple_CSunple2_RW	acq4567_RW	4	45	400	1	300	300	369	46	0	1	1	blank2r.bmp	0	1	+	0	1	blank2r.bmp	492	1	BZZB	492	1	blank2r.bmp	572	3	strafen	866	1	!	1239	1	!	1266	0	0	0	0	0	0	0	0	0	0	0	0	0	0	0	0	0	0	0	0	0	0	0	0	0	0	0	0	0	0
071619	11:41:10	11:47:05	354961	5.0.10.0	5_exp_RW	53	Rpleas_acq	CS_B	GWWG	YDDY	JXXJ	BZZB	MQQM	VKKV	ehrlich	schön	treu	retten	fair	spielen	eitel	schlecht	tot	rächen	faul	strafen	1	acq_USpleas_CSpleas1_RW	acq4567_RW	4	46	400	1	300	300	414	50	0	1	1	blank2r.bmp	0	1	+	0	1	blank2r.bmp	492	1	GWWG	492	1	blank2r.bmp	572	2	schön	866	1	!	1239	1	!	1319	0	0	0	0	0	0	0	0	0	0	0	0	0	0	0	0	0	0	0	0	0	0	0	0	0	0	0	0	0	0
071619	11:41:10	11:47:08	357200	5.0.10.0	5_exp_RW	53	Rpleas_acq	CS_B	GWWG	YDDY	JXXJ	BZZB	MQQM	VKKV	ehrlich	schön	treu	retten	fair	spielen	eitel	schlecht	tot	rächen	faul	strafen	1	acq_USunple_CSunple2_RW	acq4567_RW	4	47	400	1	300	300	445	46	0	1	1	blank2r.bmp	0	1	+	0	1	blank2r.bmp	492	1	BZZB	492	1	blank2r.bmp	572	1	rächen	866	1	!	1239	1	!	1346	0	0	0	0	0	0	0	0	0	0	0	0	0	0	0	0	0	0	0	0	0	0	0	0	0	0	0	0	0	0
071619	11:41:10	11:47:10	359385	5.0.10.0	5_exp_RW	53	Rpleas_acq	CS_B	GWWG	YDDY	JXXJ	BZZB	MQQM	VKKV	ehrlich	schön	treu	retten	fair	spielen	eitel	schlecht	tot	rächen	faul	strafen	1	acq_USunple_CSunple2_RW	acq4567_RW	4	48	400	1	300	300	396	46	0	1	1	blank2r.bmp	0	1	+	0	1	blank2r.bmp	492	1	BZZB	492	1	blank2r.bmp	572	2	faul	866	1	!	1239	1	!	1292	0	0	0	0	0	0	0	0	0	0	0	0	0	0	0	0	0	0	0	0	0	0	0	0	0	0	0	0	0	0
071619	11:41:10	11:47:12	361611	5.0.10.0	5_exp_RW	53	Rpleas_acq	CS_B	GWWG	YDDY	JXXJ	BZZB	MQQM	VKKV	ehrlich	schön	treu	retten	fair	spielen	eitel	schlecht	tot	rächen	faul	strafen	1	acq_USunple_CSunple1_RW	acq4567_RW	4	49	400	1	300	300	438	46	0	1	1	blank2r.bmp	0	1	+	0	1	blank2r.bmp	492	1	JXXJ	492	1	blank2r.bmp	572	3	tot	866	1	!	1239	1	!	1332	0	0	0	0	0	0	0	0	0	0	0	0	0	0	0	0	0	0	0	0	0	0	0	0	0	0	0	0	0	0
071619	11:41:10	11:47:14	363824	5.0.10.0	5_exp_RW	53	Rpleas_acq	CS_B	GWWG	YDDY	JXXJ	BZZB	MQQM	VKKV	ehrlich	schön	treu	retten	fair	spielen	eitel	schlecht	tot	rächen	faul	strafen	1	acq_USunple_CSunple2_RW	acq4567_RW	4	50	400	1	300	300	412	46	0	1	1	blank2r.bmp	0	1	+	0	1	blank2r.bmp	492	1	BZZB	492	1	blank2r.bmp	572	3	strafen	866	1	!	1239	1	!	1319	0	0	0	0	0	0	0	0	0	0	0	0	0	0	0	0	0	0	0	0	0	0	0	0	0	0	0	0	0	0
071619	11:41:10	11:47:16	366116	5.0.10.0	5_exp_RW	53	Rpleas_acq	CS_B	GWWG	YDDY	JXXJ	BZZB	MQQM	VKKV	ehrlich	schön	treu	retten	fair	spielen	eitel	schlecht	tot	rächen	faul	strafen	1	acq_USpleas_CSpleas1_RW	acq4567_RW	4	51	400	0	300	300	527	50	0	1	1	blank2r.bmp	0	1	+	0	1	blank2r.bmp	492	1	GWWG	492	1	blank2r.bmp	572	1	ehrlich	866	1	!	1239	1	!	-1	0	0	0	0	0	0	0	0	0	0	0	0	0	0	0	0	0	0	0	0	0	0	0	0	0	0	0	0	0	0
071619	11:41:10	11:47:19	368382	5.0.10.0	5_exp_RW	53	Rpleas_acq	CS_B	GWWG	YDDY	JXXJ	BZZB	MQQM	VKKV	ehrlich	schön	treu	retten	fair	spielen	eitel	schlecht	tot	rächen	faul	strafen	1	acq_USunple_CSunple1_RW	acq4567_RW	4	52	400	0	300	300	479	46	0	1	1	blank2r.bmp	0	1	+	0	1	blank2r.bmp	492	1	JXXJ	492	1	blank2r.bmp	572	1	eitel	866	1	!	1239	1	!	-1	0	0	0	0	0	0	0	0	0	0	0	0	0	0	0	0	0	0	0	0	0	0	0	0	0	0	0	0	0	0
071619	11:41:10	11:47:21	370541	5.0.10.0	5_exp_RW	53	Rpleas_acq	CS_B	GWWG	YDDY	JXXJ	BZZB	MQQM	VKKV	ehrlich	schön	treu	retten	fair	spielen	eitel	schlecht	tot	rächen	faul	strafen	1	acq_USpleas_CSpleas2_RW	acq4567_RW	4	53	400	1	300	300	346	46	0	0	1	blank2r.bmp	0	1	+	0	1	blank2r.bmp	492	1	YDDY	492	1	blank2r.bmp	572	3	spielen	866	1	!	1239	1	!	1252	0	0	0	0	0	0	0	0	0	0	0	0	0	0	0	0	0	0	0	0	0	0	0	0	0	0	0	0	0	0
071619	11:41:10	11:47:23	372620	5.0.10.0	5_exp_RW	53	Rpleas_acq	CS_B	GWWG	YDDY	JXXJ	BZZB	MQQM	VKKV	ehrlich	schön	treu	retten	fair	spielen	eitel	schlecht	tot	rächen	faul	strafen	1	acq_USpleas_CSpleas2_RW	acq4567_RW	4	54	400	0	300	300	316	46	0	0	1	blank2r.bmp	0	1	+	0	1	blank2r.bmp	492	1	YDDY	492	1	blank2r.bmp	572	2	fair	866	1	!	-1	1	!	-1	0	0	0	0	0	0	0	0	0	0	0	0	0	0	0	0	0	0	0	0	0	0	0	0	0	0	0	0	0	0
071619	11:41:10	11:47:25	374779	5.0.10.0	5_exp_RW	53	Rpleas_acq	CS_B	GWWG	YDDY	JXXJ	BZZB	MQQM	VKKV	ehrlich	schön	treu	retten	fair	spielen	eitel	schlecht	tot	rächen	faul	strafen	1	acq_USpleas_CSpleas1_RW	acq4567_RW	4	55	400	1	300	300	352	46	0	0	1	blank2r.bmp	0	1	+	0	1	blank2r.bmp	492	1	GWWG	492	1	blank2r.bmp	572	3	treu	866	1	!	1239	1	!	1252	0	0	0	0	0	0	0	0	0	0	0	0	0	0	0	0	0	0	0	0	0	0	0	0	0	0	0	0	0	0
071619	11:41:10	11:47:27	376858	5.0.10.0	5_exp_RW	53	Rpleas_acq	CS_B	GWWG	YDDY	JXXJ	BZZB	MQQM	VKKV	ehrlich	schön	treu	retten	fair	spielen	eitel	schlecht	tot	rächen	faul	strafen	1	acq_USunple_CSunple1_RW	acq4567_RW	4	56	400	0	300	300	301	46	0	1	1	blank2r.bmp	0	1	+	0	1	blank2r.bmp	492	1	JXXJ	492	1	blank2r.bmp	572	2	schlecht	866	1	!	-1	1	!	-1	0	0	0	0	0	0	0	0	0	0	0	0	0	0	0	0	0	0	0	0	0	0	0	0	0	0	0	0	0	0
071619	11:41:10	11:47:29	379111	5.0.10.0	5_exp_RW	53	Rpleas_acq	CS_B	GWWG	YDDY	JXXJ	BZZB	MQQM	VKKV	ehrlich	schön	treu	retten	fair	spielen	eitel	schlecht	tot	rächen	faul	strafen	1	acq_USunple_CSunple2_RW	acq4567_RW	4	57	400	1	300	300	451	46	0	1	1	blank2r.bmp	0	1	+	0	1	blank2r.bmp	492	1	BZZB	492	1	blank2r.bmp	572	3	strafen	866	1	!	1239	1	!	1346	0	0	0	0	0	0	0	0	0	0	0	0	0	0	0	0	0	0	0	0	0	0	0	0	0	0	0	0	0	0
071619	11:41:10	11:47:32	381283	5.0.10.0	5_exp_RW	53	Rpleas_acq	CS_B	GWWG	YDDY	JXXJ	BZZB	MQQM	VKKV	ehrlich	schön	treu	retten	fair	spielen	eitel	schlecht	tot	rächen	faul	strafen	1	acq_USpleas_CSpleas1_RW	acq4567_RW	4	58	400	1	300	300	379	50	0	1	1	blank2r.bmp	0	1	+	0	1	blank2r.bmp	492	1	GWWG	492	1	blank2r.bmp	572	1	ehrlich	866	1	!	1239	1	!	1279	0	0	0	0	0	0	0	0	0	0	0	0	0	0	0	0	0	0	0	0	0	0	0	0	0	0	0	0	0	0
071619	11:41:10	11:47:34	383455	5.0.10.0	5_exp_RW	53	Rpleas_acq	CS_B	GWWG	YDDY	JXXJ	BZZB	MQQM	VKKV	ehrlich	schön	treu	retten	fair	spielen	eitel	schlecht	tot	rächen	faul	strafen	1	acq_USunple_CSunple1_RW	acq4567_RW	4	59	400	1	300	300	369	46	0	1	1	blank2r.bmp	0	1	+	0	1	blank2r.bmp	492	1	JXXJ	492	1	blank2r.bmp	572	2	schlecht	866	1	!	1239	1	!	1266	0	0	0	0	0	0	0	0	0	0	0	0	0	0	0	0	0	0	0	0	0	0	0	0	0	0	0	0	0	0
071619	11:41:10	11:47:36	385828	5.0.10.0	5_exp_RW	53	Rpleas_acq	CS_B	GWWG	YDDY	JXXJ	BZZB	MQQM	VKKV	ehrlich	schön	treu	retten	fair	spielen	eitel	schlecht	tot	rächen	faul	strafen	1	acq_USpleas_CSpleas2_RW	acq4567_RW	4	60	400	0	300	300	602	50	0	1	1	blank2r.bmp	0	1	+	0	1	blank2r.bmp	492	1	YDDY	492	1	blank2r.bmp	572	1	retten	866	1	!	1239	1	!	-1	0	0	0	0	0	0	0	0	0	0	0	0	0	0	0	0	0	0	0	0	0	0	0	0	0	0	0	0	0	0
071619	11:41:10	11:47:38	388040	5.0.10.0	5_exp_RW	53	Rpleas_acq	CS_B	GWWG	YDDY	JXXJ	BZZB	MQQM	VKKV	ehrlich	schön	treu	retten	fair	spielen	eitel	schlecht	tot	rächen	faul	strafen	1	acq_USpleas_CSpleas2_RW	acq4567_RW	4	61	400	1	300	300	408	50	0	1	1	blank2r.bmp	0	1	+	0	1	blank2r.bmp	492	1	YDDY	492	1	blank2r.bmp	572	2	fair	866	1	!	1239	1	!	1306	0	0	0	0	0	0	0	0	0	0	0	0	0	0	0	0	0	0	0	0	0	0	0	0	0	0	0	0	0	0
071619	11:41:10	11:47:41	390306	5.0.10.0	5_exp_RW	53	Rpleas_acq	CS_B	GWWG	YDDY	JXXJ	BZZB	MQQM	VKKV	ehrlich	schön	treu	retten	fair	spielen	eitel	schlecht	tot	rächen	faul	strafen	1	acq_USpleas_CSpleas2_RW	acq4567_RW	4	62	400	0	300	300	481	50	0	1	1	blank2r.bmp	0	1	+	0	1	blank2r.bmp	492	1	YDDY	492	1	blank2r.bmp	572	3	spielen	866	1	!	1239	1	!	-1	0	0	0	0	0	0	0	0	0	0	0	0	0	0	0	0	0	0	0	0	0	0	0	0	0	0	0	0	0	0
071619	11:41:10	11:47:43	392505	5.0.10.0	5_exp_RW	53	Rpleas_acq	CS_B	GWWG	YDDY	JXXJ	BZZB	MQQM	VKKV	ehrlich	schön	treu	retten	fair	spielen	eitel	schlecht	tot	rächen	faul	strafen	1	acq_USunple_CSunple1_RW	acq4567_RW	4	63	400	1	300	300	388	46	0	1	1	blank2r.bmp	0	1	+	0	1	blank2r.bmp	492	1	JXXJ	492	1	blank2r.bmp	572	3	tot	866	1	!	1239	1	!	1292	0	0	0	0	0	0	0	0	0	0	0	0	0	0	0	0	0	0	0	0	0	0	0	0	0	0	0	0	0	0
071619	11:41:10	11:47:45	394824	5.0.10.0	5_exp_RW	53	Rpleas_acq	CS_B	GWWG	YDDY	JXXJ	BZZB	MQQM	VKKV	ehrlich	schön	treu	retten	fair	spielen	eitel	schlecht	tot	rächen	faul	strafen	1	acq_USunple_CSunple1_RW	acq4567_RW	4	64	400	0	300	300	547	46	0	1	1	blank2r.bmp	0	1	+	0	1	blank2r.bmp	492	1	JXXJ	492	1	blank2r.bmp	572	1	eitel	866	1	!	1239	1	!	-1	0	0	0	0	0	0	0	0	0	0	0	0	0	0	0	0	0	0	0	0	0	0	0	0	0	0	0	0	0	0
071619	11:41:10	11:47:47	397010	5.0.10.0	5_exp_RW	53	Rpleas_acq	CS_B	GWWG	YDDY	JXXJ	BZZB	MQQM	VKKV	ehrlich	schön	treu	retten	fair	spielen	eitel	schlecht	tot	rächen	faul	strafen	1	acq_USunple_CSunple2_RW	acq4567_RW	4	65	400	1	300	300	382	46	0	1	1	blank2r.bmp	0	1	+	0	1	blank2r.bmp	492	1	BZZB	492	1	blank2r.bmp	572	2	faul	866	1	!	1239	1	!	1279	0	0	0	0	0	0	0	0	0	0	0	0	0	0	0	0	0	0	0	0	0	0	0	0	0	0	0	0	0	0
071619	11:41:10	11:47:49	399089	5.0.10.0	5_exp_RW	53	Rpleas_acq	CS_B	GWWG	YDDY	JXXJ	BZZB	MQQM	VKKV	ehrlich	schön	treu	retten	fair	spielen	eitel	schlecht	tot	rächen	faul	strafen	1	acq_USpleas_CSpleas1_RW	acq4567_RW	4	66	400	0	300	300	293	50	0	1	1	blank2r.bmp	0	1	+	0	1	blank2r.bmp	492	1	GWWG	492	1	blank2r.bmp	572	3	treu	866	1	!	-1	1	!	-1	0	0	0	0	0	0	0	0	0	0	0	0	0	0	0	0	0	0	0	0	0	0	0	0	0	0	0	0	0	0
071619	11:41:10	11:47:52	401168	5.0.10.0	5_exp_RW	53	Rpleas_acq	CS_B	GWWG	YDDY	JXXJ	BZZB	MQQM	VKKV	ehrlich	schön	treu	retten	fair	spielen	eitel	schlecht	tot	rächen	faul	strafen	1	acq_USunple_CSunple1_RW	acq4567_RW	4	67	400	0	300	300	302	50	0	0	1	blank2r.bmp	0	1	+	0	1	blank2r.bmp	492	1	JXXJ	492	1	blank2r.bmp	572	3	tot	866	1	!	-1	1	!	-1	0	0	0	0	0	0	0	0	0	0	0	0	0	0	0	0	0	0	0	0	0	0	0	0	0	0	0	0	0	0
071619	11:41:10	11:47:54	403434	5.0.10.0	5_exp_RW	53	Rpleas_acq	CS_B	GWWG	YDDY	JXXJ	BZZB	MQQM	VKKV	ehrlich	schön	treu	retten	fair	spielen	eitel	schlecht	tot	rächen	faul	strafen	1	acq_USunple_CSunple2_RW	acq4567_RW	4	68	400	1	300	300	457	46	0	1	1	blank2r.bmp	0	1	+	0	1	blank2r.bmp	492	1	BZZB	492	1	blank2r.bmp	572	1	rächen	866	1	!	1239	1	!	1359	0	0	0	0	0	0	0	0	0	0	0	0	0	0	0	0	0	0	0	0	0	0	0	0	0	0	0	0	0	0
071619	11:41:10	11:47:56	405673	5.0.10.0	5_exp_RW	53	Rpleas_acq	CS_B	GWWG	YDDY	JXXJ	BZZB	MQQM	VKKV	ehrlich	schön	treu	retten	fair	spielen	eitel	schlecht	tot	rächen	faul	strafen	1	acq_USunple_CSunple1_RW	acq4567_RW	4	69	400	1	300	300	450	46	0	1	1	blank2r.bmp	0	1	+	0	1	blank2r.bmp	492	1	JXXJ	492	1	blank2r.bmp	572	1	eitel	866	1	!	1239	1	!	1346	0	0	0	0	0	0	0	0	0	0	0	0	0	0	0	0	0	0	0	0	0	0	0	0	0	0	0	0	0	0
071619	11:41:10	11:47:58	407832	5.0.10.0	5_exp_RW	53	Rpleas_acq	CS_B	GWWG	YDDY	JXXJ	BZZB	MQQM	VKKV	ehrlich	schön	treu	retten	fair	spielen	eitel	schlecht	tot	rächen	faul	strafen	1	acq_USpleas_CSpleas1_RW	acq4567_RW	4	70	400	1	300	300	368	50	0	1	1	blank2r.bmp	0	1	+	0	1	blank2r.bmp	492	1	GWWG	492	1	blank2r.bmp	572	2	schön	866	1	!	1239	1	!	1266	0	0	0	0	0	0	0	0	0	0	0	0	0	0	0	0	0	0	0	0	0	0	0	0	0	0	0	0	0	0
071619	11:41:10	11:48:00	410045	5.0.10.0	5_exp_RW	53	Rpleas_acq	CS_B	GWWG	YDDY	JXXJ	BZZB	MQQM	VKKV	ehrlich	schön	treu	retten	fair	spielen	eitel	schlecht	tot	rächen	faul	strafen	1	acq_USunple_CSunple2_RW	acq4567_RW	4	71	400	1	300	300	415	46	0	1	1	blank2r.bmp	0	1	+	0	1	blank2r.bmp	492	1	BZZB	492	1	blank2r.bmp	572	3	strafen	866	1	!	1239	1	!	1319	0	0	0	0	0	0	0	0	0	0	0	0	0	0	0	0	0	0	0	0	0	0	0	0	0	0	0	0	0	0
071619	11:41:10	11:48:03	412297	5.0.10.0	5_exp_RW	53	Rpleas_acq	CS_B	GWWG	YDDY	JXXJ	BZZB	MQQM	VKKV	ehrlich	schön	treu	retten	fair	spielen	eitel	schlecht	tot	rächen	faul	strafen	1	acq_USunple_CSunple2_RW	acq4567_RW	4	72	400	1	300	300	457	46	0	1	1	blank2r.bmp	0	1	+	0	1	blank2r.bmp	492	1	BZZB	492	1	blank2r.bmp	572	2	faul	866	1	!	1239	1	!	1359	0	0	0	0	0	0	0	0	0	0	0	0	0	0	0	0	0	0	0	0	0	0	0	0	0	0	0	0	0	0
071619	11:41:10	11:48:05	414563	5.0.10.0	5_exp_RW	53	Rpleas_acq	CS_B	GWWG	YDDY	JXXJ	BZZB	MQQM	VKKV	ehrlich	schön	treu	retten	fair	spielen	eitel	schlecht	tot	rächen	faul	strafen	1	acq_USpleas_CSpleas2_RW	acq4567_RW	4	73	400	0	300	300	479	50	0	1	1	blank2r.bmp	0	1	+	0	1	blank2r.bmp	492	1	YDDY	492	1	blank2r.bmp	572	1	retten	866	1	!	1239	1	!	-1	0	0	0	0	0	0	0	0	0	0	0	0	0	0	0	0	0	0	0	0	0	0	0	0	0	0	0	0	0	0
071619	11:41:10	11:48:07	417028	5.0.10.0	5_exp_RW	53	Rpleas_acq	CS_B	GWWG	YDDY	JXXJ	BZZB	MQQM	VKKV	ehrlich	schön	treu	retten	fair	spielen	eitel	schlecht	tot	rächen	faul	strafen	1	acq_USpleas_CSpleas2_RW	acq4567_RW	4	74	400	0	300	300	682	46	0	0	1	blank2r.bmp	0	1	+	0	1	blank2r.bmp	492	1	YDDY	492	1	blank2r.bmp	572	2	fair	866	1	!	1239	1	!	-1	0	0	0	0	0	0	0	0	0	0	0	0	0	0	0	0	0	0	0	0	0	0	0	0	0	0	0	0	0	0
071619	11:41:10	11:48:10	419241	5.0.10.0	5_exp_RW	53	Rpleas_acq	CS_B	GWWG	YDDY	JXXJ	BZZB	MQQM	VKKV	ehrlich	schön	treu	retten	fair	spielen	eitel	schlecht	tot	rächen	faul	strafen	1	acq_USpleas_CSpleas1_RW	acq4567_RW	4	75	400	1	300	300	410	50	0	1	1	blank2r.bmp	0	1	+	0	1	blank2r.bmp	492	1	GWWG	492	1	blank2r.bmp	572	3	treu	866	1	!	1239	1	!	1306	0	0	0	0	0	0	0	0	0	0	0	0	0	0	0	0	0	0	0	0	0	0	0	0	0	0	0	0	0	0
071619	11:41:10	11:48:12	421453	5.0.10.0	5_exp_RW	53	Rpleas_acq	CS_B	GWWG	YDDY	JXXJ	BZZB	MQQM	VKKV	ehrlich	schön	treu	retten	fair	spielen	eitel	schlecht	tot	rächen	faul	strafen	1	acq_USpleas_CSpleas2_RW	acq4567_RW	4	76	400	1	300	300	412	50	0	1	1	blank2r.bmp	0	1	+	0	1	blank2r.bmp	492	1	YDDY	492	1	blank2r.bmp	572	3	spielen	866	1	!	1239	1	!	1319	0	0	0	0	0	0	0	0	0	0	0	0	0	0	0	0	0	0	0	0	0	0	0	0	0	0	0	0	0	0
071619	11:41:10	11:48:14	423719	5.0.10.0	5_exp_RW	53	Rpleas_acq	CS_B	GWWG	YDDY	JXXJ	BZZB	MQQM	VKKV	ehrlich	schön	treu	retten	fair	spielen	eitel	schlecht	tot	rächen	faul	strafen	1	acq_USunple_CSunple2_RW	acq4567_RW	4	77	400	0	300	300	479	46	0	1	1	blank2r.bmp	0	1	+	0	1	blank2r.bmp	492	1	BZZB	492	1	blank2r.bmp	572	1	rächen	866	1	!	1239	1	!	-1	0	0	0	0	0	0	0	0	0	0	0	0	0	0	0	0	0	0	0	0	0	0	0	0	0	0	0	0	0	0
071619	11:41:10	11:48:16	425931	5.0.10.0	5_exp_RW	53	Rpleas_acq	CS_B	GWWG	YDDY	JXXJ	BZZB	MQQM	VKKV	ehrlich	schön	treu	retten	fair	spielen	eitel	schlecht	tot	rächen	faul	strafen	1	acq_USpleas_CSpleas1_RW	acq4567_RW	4	78	400	1	300	300	387	50	0	1	1	blank2r.bmp	0	1	+	0	1	blank2r.bmp	492	1	GWWG	492	1	blank2r.bmp	572	2	schön	866	1	!	1239	1	!	1292	0	0	0	0	0	0	0	0	0	0	0	0	0	0	0	0	0	0	0	0	0	0	0	0	0	0	0	0	0	0
071619	11:41:10	11:48:18	428091	5.0.10.0	5_exp_RW	53	Rpleas_acq	CS_B	GWWG	YDDY	JXXJ	BZZB	MQQM	VKKV	ehrlich	schön	treu	retten	fair	spielen	eitel	schlecht	tot	rächen	faul	strafen	1	acq_USpleas_CSpleas1_RW	acq4567_RW	4	79	400	1	300	300	346	50	0	1	1	blank2r.bmp	0	1	+	0	1	blank2r.bmp	492	1	GWWG	492	1	blank2r.bmp	572	1	ehrlich	866	1	!	1239	1	!	1252	0	0	0	0	0	0	0	0	0	0	0	0	0	0	0	0	0	0	0	0	0	0	0	0	0	0	0	0	0	0
071619	11:41:10	11:48:21	430290	5.0.10.0	5_exp_RW	53	Rpleas_acq	CS_B	GWWG	YDDY	JXXJ	BZZB	MQQM	VKKV	ehrlich	schön	treu	retten	fair	spielen	eitel	schlecht	tot	rächen	faul	strafen	1	acq_USunple_CSunple1_RW	acq4567_RW	4	80	400	1	300	300	411	46	0	1	1	blank2r.bmp	0	1	+	0	1	blank2r.bmp	492	1	JXXJ	492	1	blank2r.bmp	572	2	schlecht	866	1	!	1239	1	!	1306	0	0	0	0	0	0	0	0	0	0	0	0	0	0	0	0	0	0	0	0	0	0	0	0	0	0	0	0	0	0
071619	11:41:10	11:48:53	462596	5.0.10.0	5_exp_RW	53	Rpleas_acq	CS_B	GWWG	YDDY	JXXJ	BZZB	MQQM	VKKV	ehrlich	schön	treu	retten	fair	spielen	eitel	schlecht	tot	rächen	faul	strafen	1	acq_USpleas_CSpleas2_RW	acq4567_RW	5	1	400	1	300	300	346	50	0	1	1	blank2r.bmp	0	1	+	0	1	blank2r.bmp	492	1	YDDY	492	1	blank2r.bmp	572	3	spielen	866	1	!	1239	1	!	1252	0	0	0	0	0	0	0	0	0	0	0	0	0	0	0	0	0	0	0	0	0	0	0	0	0	0	0	0	0	0
071619	11:41:10	11:48:55	464809	5.0.10.0	5_exp_RW	53	Rpleas_acq	CS_B	GWWG	YDDY	JXXJ	BZZB	MQQM	VKKV	ehrlich	schön	treu	retten	fair	spielen	eitel	schlecht	tot	rächen	faul	strafen	1	acq_USpleas_CSpleas1_RW	acq4567_RW	5	2	400	1	300	300	419	50	0	1	1	blank2r.bmp	0	1	+	0	1	blank2r.bmp	492	1	GWWG	492	1	blank2r.bmp	572	3	treu	866	1	!	1239	1	!	1319	0	0	0	0	0	0	0	0	0	0	0	0	0	0	0	0	0	0	0	0	0	0	0	0	0	0	0	0	0	0
071619	11:41:10	11:48:57	466901	5.0.10.0	5_exp_RW	53	Rpleas_acq	CS_B	GWWG	YDDY	JXXJ	BZZB	MQQM	VKKV	ehrlich	schön	treu	retten	fair	spielen	eitel	schlecht	tot	rächen	faul	strafen	1	acq_USunple_CSunple2_RW	acq4567_RW	5	3	400	0	300	300	331	46	0	1	1	blank2r.bmp	0	1	+	0	1	blank2r.bmp	492	1	BZZB	492	1	blank2r.bmp	572	2	faul	866	1	!	-1	1	!	-1	0	0	0	0	0	0	0	0	0	0	0	0	0	0	0	0	0	0	0	0	0	0	0	0	0	0	0	0	0	0
071619	11:41:10	11:48:59	469154	5.0.10.0	5_exp_RW	53	Rpleas_acq	CS_B	GWWG	YDDY	JXXJ	BZZB	MQQM	VKKV	ehrlich	schön	treu	retten	fair	spielen	eitel	schlecht	tot	rächen	faul	strafen	1	acq_USpleas_CSpleas2_RW	acq4567_RW	5	4	400	1	300	300	443	50	0	1	1	blank2r.bmp	0	1	+	0	1	blank2r.bmp	492	1	YDDY	492	1	blank2r.bmp	572	2	fair	866	1	!	1239	1	!	1346	0	0	0	0	0	0	0	0	0	0	0	0	0	0	0	0	0	0	0	0	0	0	0	0	0	0	0	0	0	0
071619	11:41:10	11:49:02	471406	5.0.10.0	5_exp_RW	53	Rpleas_acq	CS_B	GWWG	YDDY	JXXJ	BZZB	MQQM	VKKV	ehrlich	schön	treu	retten	fair	spielen	eitel	schlecht	tot	rächen	faul	strafen	1	acq_USpleas_CSpleas2_RW	acq4567_RW	5	5	400	1	300	300	452	46	0	0	1	blank2r.bmp	0	1	+	0	1	blank2r.bmp	492	1	YDDY	492	1	blank2r.bmp	572	1	retten	866	1	!	1239	1	!	1359	0	0	0	0	0	0	0	0	0	0	0	0	0	0	0	0	0	0	0	0	0	0	0	0	0	0	0	0	0	0
071619	11:41:10	11:49:04	473565	5.0.10.0	5_exp_RW	53	Rpleas_acq	CS_B	GWWG	YDDY	JXXJ	BZZB	MQQM	VKKV	ehrlich	schön	treu	retten	fair	spielen	eitel	schlecht	tot	rächen	faul	strafen	1	acq_USunple_CSunple2_RW	acq4567_RW	5	6	400	1	300	300	356	46	0	1	1	blank2r.bmp	0	1	+	0	1	blank2r.bmp	492	1	BZZB	492	1	blank2r.bmp	572	3	strafen	866	1	!	1239	1	!	1252	0	0	0	0	0	0	0	0	0	0	0	0	0	0	0	0	0	0	0	0	0	0	0	0	0	0	0	0	0	0
071619	11:41:10	11:49:06	475818	5.0.10.0	5_exp_RW	53	Rpleas_acq	CS_B	GWWG	YDDY	JXXJ	BZZB	MQQM	VKKV	ehrlich	schön	treu	retten	fair	spielen	eitel	schlecht	tot	rächen	faul	strafen	1	acq_USpleas_CSpleas1_RW	acq4567_RW	5	7	400	0	300	300	486	50	0	1	1	blank2r.bmp	0	1	+	0	1	blank2r.bmp	492	1	GWWG	492	1	blank2r.bmp	572	2	schön	866	1	!	1239	1	!	-1	0	0	0	0	0	0	0	0	0	0	0	0	0	0	0	0	0	0	0	0	0	0	0	0	0	0	0	0	0	0
071619	11:41:10	11:49:08	478083	5.0.10.0	5_exp_RW	53	Rpleas_acq	CS_B	GWWG	YDDY	JXXJ	BZZB	MQQM	VKKV	ehrlich	schön	treu	retten	fair	spielen	eitel	schlecht	tot	rächen	faul	strafen	1	acq_USpleas_CSpleas1_RW	acq4567_RW	5	8	400	1	300	300	460	50	0	1	1	blank2r.bmp	0	1	+	0	1	blank2r.bmp	492	1	GWWG	492	1	blank2r.bmp	572	1	ehrlich	866	1	!	1239	1	!	1359	0	0	0	0	0	0	0	0	0	0	0	0	0	0	0	0	0	0	0	0	0	0	0	0	0	0	0	0	0	0
071619	11:41:10	11:49:11	480362	5.0.10.0	5_exp_RW	53	Rpleas_acq	CS_B	GWWG	YDDY	JXXJ	BZZB	MQQM	VKKV	ehrlich	schön	treu	retten	fair	spielen	eitel	schlecht	tot	rächen	faul	strafen	1	acq_USunple_CSunple1_RW	acq4567_RW	5	9	400	0	300	300	509	46	0	1	1	blank2r.bmp	0	1	+	0	1	blank2r.bmp	492	1	JXXJ	492	1	blank2r.bmp	572	3	tot	866	1	!	1239	1	!	-1	0	0	0	0	0	0	0	0	0	0	0	0	0	0	0	0	0	0	0	0	0	0	0	0	0	0	0	0	0	0
071619	11:41:10	11:49:13	482615	5.0.10.0	5_exp_RW	53	Rpleas_acq	CS_B	GWWG	YDDY	JXXJ	BZZB	MQQM	VKKV	ehrlich	schön	treu	retten	fair	spielen	eitel	schlecht	tot	rächen	faul	strafen	1	acq_USunple_CSunple1_RW	acq4567_RW	5	10	400	1	300	300	434	46	0	1	1	blank2r.bmp	0	1	+	0	1	blank2r.bmp	492	1	JXXJ	492	1	blank2r.bmp	572	1	eitel	866	1	!	1239	1	!	1332	0	0	0	0	0	0	0	0	0	0	0	0	0	0	0	0	0	0	0	0	0	0	0	0	0	0	0	0	0	0
071619	11:41:10	11:49:15	484814	5.0.10.0	5_exp_RW	53	Rpleas_acq	CS_B	GWWG	YDDY	JXXJ	BZZB	MQQM	VKKV	ehrlich	schön	treu	retten	fair	spielen	eitel	schlecht	tot	rächen	faul	strafen	1	acq_USunple_CSunple1_RW	acq4567_RW	5	11	400	1	300	300	400	46	0	1	1	blank2r.bmp	0	1	+	0	1	blank2r.bmp	492	1	JXXJ	492	1	blank2r.bmp	572	2	schlecht	866	1	!	1239	1	!	1306	0	0	0	0	0	0	0	0	0	0	0	0	0	0	0	0	0	0	0	0	0	0	0	0	0	0	0	0	0	0
071619	11:41:10	11:49:17	486973	5.0.10.0	5_exp_RW	53	Rpleas_acq	CS_B	GWWG	YDDY	JXXJ	BZZB	MQQM	VKKV	ehrlich	schön	treu	retten	fair	spielen	eitel	schlecht	tot	rächen	faul	strafen	1	acq_USpleas_CSpleas1_RW	acq4567_RW	5	12	400	1	300	300	370	46	0	0	1	blank2r.bmp	0	1	+	0	1	blank2r.bmp	492	1	GWWG	492	1	blank2r.bmp	572	3	treu	866	1	!	1239	1	!	1266	0	0	0	0	0	0	0	0	0	0	0	0	0	0	0	0	0	0	0	0	0	0	0	0	0	0	0	0	0	0
071619	11:41:10	11:49:19	489039	5.0.10.0	5_exp_RW	53	Rpleas_acq	CS_B	GWWG	YDDY	JXXJ	BZZB	MQQM	VKKV	ehrlich	schön	treu	retten	fair	spielen	eitel	schlecht	tot	rächen	faul	strafen	1	acq_USunple_CSunple1_RW	acq4567_RW	5	13	400	0	300	300	288	46	0	1	1	blank2r.bmp	0	1	+	0	1	blank2r.bmp	492	1	JXXJ	492	1	blank2r.bmp	572	1	eitel	866	1	!	-1	1	!	-1	0	0	0	0	0	0	0	0	0	0	0	0	0	0	0	0	0	0	0	0	0	0	0	0	0	0	0	0	0	0
071619	11:41:10	11:49:22	491198	5.0.10.0	5_exp_RW	53	Rpleas_acq	CS_B	GWWG	YDDY	JXXJ	BZZB	MQQM	VKKV	ehrlich	schön	treu	retten	fair	spielen	eitel	schlecht	tot	rächen	faul	strafen	1	acq_USpleas_CSpleas1_RW	acq4567_RW	5	14	400	1	300	300	356	50	0	1	1	blank2r.bmp	0	1	+	0	1	blank2r.bmp	492	1	GWWG	492	1	blank2r.bmp	572	2	schön	866	1	!	1239	1	!	1252	0	0	0	0	0	0	0	0	0	0	0	0	0	0	0	0	0	0	0	0	0	0	0	0	0	0	0	0	0	0
071619	11:41:10	11:49:24	493410	5.0.10.0	5_exp_RW	53	Rpleas_acq	CS_B	GWWG	YDDY	JXXJ	BZZB	MQQM	VKKV	ehrlich	schön	treu	retten	fair	spielen	eitel	schlecht	tot	rächen	faul	strafen	1	acq_USunple_CSunple1_RW	acq4567_RW	5	15	400	1	300	300	420	46	0	1	1	blank2r.bmp	0	1	+	0	1	blank2r.bmp	492	1	JXXJ	492	1	blank2r.bmp	572	3	tot	866	1	!	1239	1	!	1319	0	0	0	0	0	0	0	0	0	0	0	0	0	0	0	0	0	0	0	0	0	0	0	0	0	0	0	0	0	0
071619	11:41:10	11:49:26	495663	5.0.10.0	5_exp_RW	53	Rpleas_acq	CS_B	GWWG	YDDY	JXXJ	BZZB	MQQM	VKKV	ehrlich	schön	treu	retten	fair	spielen	eitel	schlecht	tot	rächen	faul	strafen	1	acq_USpleas_CSpleas2_RW	acq4567_RW	5	16	400	0	300	300	489	50	0	1	1	blank2r.bmp	0	1	+	0	1	blank2r.bmp	492	1	YDDY	492	1	blank2r.bmp	572	2	fair	866	1	!	1239	1	!	-1	0	0	0	0	0	0	0	0	0	0	0	0	0	0	0	0	0	0	0	0	0	0	0	0	0	0	0	0	0	0
071619	11:41:10	11:49:28	497769	5.0.10.0	5_exp_RW	53	Rpleas_acq	CS_B	GWWG	YDDY	JXXJ	BZZB	MQQM	VKKV	ehrlich	schön	treu	retten	fair	spielen	eitel	schlecht	tot	rächen	faul	strafen	1	acq_USunple_CSunple2_RW	acq4567_RW	5	17	400	0	300	300	327	46	0	1	1	blank2r.bmp	0	1	+	0	1	blank2r.bmp	492	1	BZZB	492	1	blank2r.bmp	572	1	rächen	866	1	!	-1	1	!	-1	0	0	0	0	0	0	0	0	0	0	0	0	0	0	0	0	0	0	0	0	0	0	0	0	0	0	0	0	0	0
071619	11:41:10	11:49:30	500074	5.0.10.0	5_exp_RW	53	Rpleas_acq	CS_B	GWWG	YDDY	JXXJ	BZZB	MQQM	VKKV	ehrlich	schön	treu	retten	fair	spielen	eitel	schlecht	tot	rächen	faul	strafen	1	acq_USunple_CSunple2_RW	acq4567_RW	5	18	400	0	300	300	526	46	0	1	1	blank2r.bmp	0	1	+	0	1	blank2r.bmp	492	1	BZZB	492	1	blank2r.bmp	572	3	strafen	866	1	!	1239	1	!	-1	0	0	0	0	0	0	0	0	0	0	0	0	0	0	0	0	0	0	0	0	0	0	0	0	0	0	0	0	0	0
071619	11:41:10	11:49:33	502167	5.0.10.0	5_exp_RW	53	Rpleas_acq	CS_B	GWWG	YDDY	JXXJ	BZZB	MQQM	VKKV	ehrlich	schön	treu	retten	fair	spielen	eitel	schlecht	tot	rächen	faul	strafen	1	acq_USpleas_CSpleas2_RW	acq4567_RW	5	19	400	0	300	300	311	46	0	0	1	blank2r.bmp	0	1	+	0	1	blank2r.bmp	492	1	YDDY	492	1	blank2r.bmp	572	3	spielen	866	1	!	-1	1	!	-1	0	0	0	0	0	0	0	0	0	0	0	0	0	0	0	0	0	0	0	0	0	0	0	0	0	0	0	0	0	0
071619	11:41:10	11:49:35	504433	5.0.10.0	5_exp_RW	53	Rpleas_acq	CS_B	GWWG	YDDY	JXXJ	BZZB	MQQM	VKKV	ehrlich	schön	treu	retten	fair	spielen	eitel	schlecht	tot	rächen	faul	strafen	1	acq_USunple_CSunple2_RW	acq4567_RW	5	20	400	1	300	300	459	46	0	1	1	blank2r.bmp	0	1	+	0	1	blank2r.bmp	492	1	BZZB	492	1	blank2r.bmp	572	2	faul	866	1	!	1239	1	!	1359	0	0	0	0	0	0	0	0	0	0	0	0	0	0	0	0	0	0	0	0	0	0	0	0	0	0	0	0	0	0
071619	11:41:10	11:49:37	506698	5.0.10.0	5_exp_RW	53	Rpleas_acq	CS_B	GWWG	YDDY	JXXJ	BZZB	MQQM	VKKV	ehrlich	schön	treu	retten	fair	spielen	eitel	schlecht	tot	rächen	faul	strafen	1	acq_USpleas_CSpleas2_RW	acq4567_RW	5	21	400	0	300	300	504	50	0	1	1	blank2r.bmp	0	1	+	0	1	blank2r.bmp	492	1	YDDY	492	1	blank2r.bmp	572	1	retten	866	1	!	1239	1	!	-1	0	0	0	0	0	0	0	0	0	0	0	0	0	0	0	0	0	0	0	0	0	0	0	0	0	0	0	0	0	0
071619	11:41:10	11:49:39	508897	5.0.10.0	5_exp_RW	53	Rpleas_acq	CS_B	GWWG	YDDY	JXXJ	BZZB	MQQM	VKKV	ehrlich	schön	treu	retten	fair	spielen	eitel	schlecht	tot	rächen	faul	strafen	1	acq_USunple_CSunple2_RW	acq4567_RW	5	22	400	1	300	300	395	46	0	1	1	blank2r.bmp	0	1	+	0	1	blank2r.bmp	492	1	BZZB	492	1	blank2r.bmp	572	1	rächen	866	1	!	1239	1	!	1292	0	0	0	0	0	0	0	0	0	0	0	0	0	0	0	0	0	0	0	0	0	0	0	0	0	0	0	0	0	0
071619	11:41:10	11:49:42	511177	5.0.10.0	5_exp_RW	53	Rpleas_acq	CS_B	GWWG	YDDY	JXXJ	BZZB	MQQM	VKKV	ehrlich	schön	treu	retten	fair	spielen	eitel	schlecht	tot	rächen	faul	strafen	1	acq_USpleas_CSpleas1_RW	acq4567_RW	5	23	400	0	300	300	516	50	0	1	1	blank2r.bmp	0	1	+	0	1	blank2r.bmp	492	1	GWWG	492	1	blank2r.bmp	572	1	ehrlich	866	1	!	1239	1	!	-1	0	0	0	0	0	0	0	0	0	0	0	0	0	0	0	0	0	0	0	0	0	0	0	0	0	0	0	0	0	0
071619	11:41:10	11:49:44	513376	5.0.10.0	5_exp_RW	53	Rpleas_acq	CS_B	GWWG	YDDY	JXXJ	BZZB	MQQM	VKKV	ehrlich	schön	treu	retten	fair	spielen	eitel	schlecht	tot	rächen	faul	strafen	1	acq_USpleas_CSpleas1_RW	acq4567_RW	5	24	400	1	300	300	397	50	0	1	1	blank2r.bmp	0	1	+	0	1	blank2r.bmp	492	1	GWWG	492	1	blank2r.bmp	572	2	schön	866	1	!	1239	1	!	1292	0	0	0	0	0	0	0	0	0	0	0	0	0	0	0	0	0	0	0	0	0	0	0	0	0	0	0	0	0	0
071619	11:41:10	11:49:46	515668	5.0.10.0	5_exp_RW	53	Rpleas_acq	CS_B	GWWG	YDDY	JXXJ	BZZB	MQQM	VKKV	ehrlich	schön	treu	retten	fair	spielen	eitel	schlecht	tot	rächen	faul	strafen	1	acq_USpleas_CSpleas2_RW	acq4567_RW	5	25	400	0	300	300	520	50	0	1	1	blank2r.bmp	0	1	+	0	1	blank2r.bmp	492	1	YDDY	492	1	blank2r.bmp	572	2	fair	866	1	!	1239	1	!	-1	0	0	0	0	0	0	0	0	0	0	0	0	0	0	0	0	0	0	0	0	0	0	0	0	0	0	0	0	0	0
071619	11:41:10	11:49:48	517894	5.0.10.0	5_exp_RW	53	Rpleas_acq	CS_B	GWWG	YDDY	JXXJ	BZZB	MQQM	VKKV	ehrlich	schön	treu	retten	fair	spielen	eitel	schlecht	tot	rächen	faul	strafen	1	acq_USpleas_CSpleas1_RW	acq4567_RW	5	26	400	1	300	300	415	50	0	1	1	blank2r.bmp	0	1	+	0	1	blank2r.bmp	492	1	GWWG	492	1	blank2r.bmp	572	3	treu	866	1	!	1239	1	!	1319	0	0	0	0	0	0	0	0	0	0	0	0	0	0	0	0	0	0	0	0	0	0	0	0	0	0	0	0	0	0
071619	11:41:10	11:49:50	520000	5.0.10.0	5_exp_RW	53	Rpleas_acq	CS_B	GWWG	YDDY	JXXJ	BZZB	MQQM	VKKV	ehrlich	schön	treu	retten	fair	spielen	eitel	schlecht	tot	rächen	faul	strafen	1	acq_USpleas_CSpleas2_RW	acq4567_RW	5	27	400	0	300	300	328	50	0	1	1	blank2r.bmp	0	1	+	0	1	blank2r.bmp	492	1	YDDY	492	1	blank2r.bmp	572	3	spielen	866	1	!	-1	1	!	-1	0	0	0	0	0	0	0	0	0	0	0	0	0	0	0	0	0	0	0	0	0	0	0	0	0	0	0	0	0	0
071619	11:41:10	11:49:53	522305	5.0.10.0	5_exp_RW	53	Rpleas_acq	CS_B	GWWG	YDDY	JXXJ	BZZB	MQQM	VKKV	ehrlich	schön	treu	retten	fair	spielen	eitel	schlecht	tot	rächen	faul	strafen	1	acq_USpleas_CSpleas2_RW	acq4567_RW	5	28	400	0	300	300	521	50	0	1	1	blank2r.bmp	0	1	+	0	1	blank2r.bmp	492	1	YDDY	492	1	blank2r.bmp	572	1	retten	866	1	!	1239	1	!	-1	0	0	0	0	0	0	0	0	0	0	0	0	0	0	0	0	0	0	0	0	0	0	0	0	0	0	0	0	0	0
071619	11:41:10	11:49:55	524358	5.0.10.0	5_exp_RW	53	Rpleas_acq	CS_B	GWWG	YDDY	JXXJ	BZZB	MQQM	VKKV	ehrlich	schön	treu	retten	fair	spielen	eitel	schlecht	tot	rächen	faul	strafen	1	acq_USunple_CSunple2_RW	acq4567_RW	5	29	400	0	300	300	277	46	0	1	1	blank2r.bmp	0	1	+	0	1	blank2r.bmp	492	1	BZZB	492	1	blank2r.bmp	572	1	rächen	866	1	!	-1	1	!	-1	0	0	0	0	0	0	0	0	0	0	0	0	0	0	0	0	0	0	0	0	0	0	0	0	0	0	0	0	0	0
071619	11:41:10	11:49:57	526664	5.0.10.0	5_exp_RW	53	Rpleas_acq	CS_B	GWWG	YDDY	JXXJ	BZZB	MQQM	VKKV	ehrlich	schön	treu	retten	fair	spielen	eitel	schlecht	tot	rächen	faul	strafen	1	acq_USunple_CSunple1_RW	acq4567_RW	5	30	400	0	300	300	522	46	0	1	1	blank2r.bmp	0	1	+	0	1	blank2r.bmp	492	1	JXXJ	492	1	blank2r.bmp	572	2	schlecht	866	1	!	1239	1	!	-1	0	0	0	0	0	0	0	0	0	0	0	0	0	0	0	0	0	0	0	0	0	0	0	0	0	0	0	0	0	0
071619	11:41:10	11:49:59	528903	5.0.10.0	5_exp_RW	53	Rpleas_acq	CS_B	GWWG	YDDY	JXXJ	BZZB	MQQM	VKKV	ehrlich	schön	treu	retten	fair	spielen	eitel	schlecht	tot	rächen	faul	strafen	1	acq_USpleas_CSpleas2_RW	acq4567_RW	5	31	400	1	300	300	434	50	0	1	1	blank2r.bmp	0	1	+	0	1	blank2r.bmp	492	1	YDDY	492	1	blank2r.bmp	572	1	retten	866	1	!	1239	1	!	1332	0	0	0	0	0	0	0	0	0	0	0	0	0	0	0	0	0	0	0	0	0	0	0	0	0	0	0	0	0	0
071619	11:41:10	11:50:02	531208	5.0.10.0	5_exp_RW	53	Rpleas_acq	CS_B	GWWG	YDDY	JXXJ	BZZB	MQQM	VKKV	ehrlich	schön	treu	retten	fair	spielen	eitel	schlecht	tot	rächen	faul	strafen	1	acq_USunple_CSunple2_RW	acq4567_RW	5	32	400	0	300	300	540	46	0	1	1	blank2r.bmp	0	1	+	0	1	blank2r.bmp	492	1	BZZB	492	1	blank2r.bmp	572	3	strafen	866	1	!	1239	1	!	-1	0	0	0	0	0	0	0	0	0	0	0	0	0	0	0	0	0	0	0	0	0	0	0	0	0	0	0	0	0	0
071619	11:41:10	11:50:04	533407	5.0.10.0	5_exp_RW	53	Rpleas_acq	CS_B	GWWG	YDDY	JXXJ	BZZB	MQQM	VKKV	ehrlich	schön	treu	retten	fair	spielen	eitel	schlecht	tot	rächen	faul	strafen	1	acq_USunple_CSunple1_RW	acq4567_RW	5	33	400	1	300	300	388	46	0	1	1	blank2r.bmp	0	1	+	0	1	blank2r.bmp	492	1	JXXJ	492	1	blank2r.bmp	572	2	schlecht	866	1	!	1239	1	!	1292	0	0	0	0	0	0	0	0	0	0	0	0	0	0	0	0	0	0	0	0	0	0	0	0	0	0	0	0	0	0
071619	11:41:10	11:50:06	535833	5.0.10.0	5_exp_RW	53	Rpleas_acq	CS_B	GWWG	YDDY	JXXJ	BZZB	MQQM	VKKV	ehrlich	schön	treu	retten	fair	spielen	eitel	schlecht	tot	rächen	faul	strafen	1	acq_USunple_CSunple1_RW	acq4567_RW	5	34	400	0	300	300	652	50	0	0	1	blank2r.bmp	0	1	+	0	1	blank2r.bmp	492	1	JXXJ	492	1	blank2r.bmp	572	1	eitel	866	1	!	1239	1	!	-1	0	0	0	0	0	0	0	0	0	0	0	0	0	0	0	0	0	0	0	0	0	0	0	0	0	0	0	0	0	0
071619	11:41:10	11:50:08	537992	5.0.10.0	5_exp_RW	53	Rpleas_acq	CS_B	GWWG	YDDY	JXXJ	BZZB	MQQM	VKKV	ehrlich	schön	treu	retten	fair	spielen	eitel	schlecht	tot	rächen	faul	strafen	1	acq_USunple_CSunple1_RW	acq4567_RW	5	35	400	1	300	300	346	46	0	1	1	blank2r.bmp	0	1	+	0	1	blank2r.bmp	492	1	JXXJ	492	1	blank2r.bmp	572	3	tot	866	1	!	1239	1	!	1252	0	0	0	0	0	0	0	0	0	0	0	0	0	0	0	0	0	0	0	0	0	0	0	0	0	0	0	0	0	0
071619	11:41:10	11:50:11	540338	5.0.10.0	5_exp_RW	53	Rpleas_acq	CS_B	GWWG	YDDY	JXXJ	BZZB	MQQM	VKKV	ehrlich	schön	treu	retten	fair	spielen	eitel	schlecht	tot	rächen	faul	strafen	1	acq_USunple_CSunple1_RW	acq4567_RW	5	36	400	0	300	300	577	46	0	1	1	blank2r.bmp	0	1	+	0	1	blank2r.bmp	492	1	JXXJ	492	1	blank2r.bmp	572	2	schlecht	866	1	!	1239	1	!	-1	0	0	0	0	0	0	0	0	0	0	0	0	0	0	0	0	0	0	0	0	0	0	0	0	0	0	0	0	0	0
071619	11:41:10	11:50:13	542604	5.0.10.0	5_exp_RW	53	Rpleas_acq	CS_B	GWWG	YDDY	JXXJ	BZZB	MQQM	VKKV	ehrlich	schön	treu	retten	fair	spielen	eitel	schlecht	tot	rächen	faul	strafen	1	acq_USpleas_CSpleas1_RW	acq4567_RW	5	37	400	0	300	300	490	46	0	0	1	blank2r.bmp	0	1	+	0	1	blank2r.bmp	492	1	GWWG	492	1	blank2r.bmp	572	1	ehrlich	866	1	!	1239	1	!	-1	0	0	0	0	0	0	0	0	0	0	0	0	0	0	0	0	0	0	0	0	0	0	0	0	0	0	0	0	0	0
071619	11:41:10	11:50:15	544869	5.0.10.0	5_exp_RW	53	Rpleas_acq	CS_B	GWWG	YDDY	JXXJ	BZZB	MQQM	VKKV	ehrlich	schön	treu	retten	fair	spielen	eitel	schlecht	tot	rächen	faul	strafen	1	acq_USpleas_CSpleas1_RW	acq4567_RW	5	38	400	0	300	300	479	50	0	1	1	blank2r.bmp	0	1	+	0	1	blank2r.bmp	492	1	GWWG	492	1	blank2r.bmp	572	3	treu	866	1	!	1239	1	!	-1	0	0	0	0	0	0	0	0	0	0	0	0	0	0	0	0	0	0	0	0	0	0	0	0	0	0	0	0	0	0
071619	11:41:10	11:50:17	547069	5.0.10.0	5_exp_RW	53	Rpleas_acq	CS_B	GWWG	YDDY	JXXJ	BZZB	MQQM	VKKV	ehrlich	schön	treu	retten	fair	spielen	eitel	schlecht	tot	rächen	faul	strafen	1	acq_USunple_CSunple2_RW	acq4567_RW	5	39	400	1	300	300	392	46	0	1	1	blank2r.bmp	0	1	+	0	1	blank2r.bmp	492	1	BZZB	492	1	blank2r.bmp	572	2	faul	866	1	!	1239	1	!	1292	0	0	0	0	0	0	0	0	0	0	0	0	0	0	0	0	0	0	0	0	0	0	0	0	0	0	0	0	0	0
071619	11:41:10	11:50:20	549268	5.0.10.0	5_exp_RW	53	Rpleas_acq	CS_B	GWWG	YDDY	JXXJ	BZZB	MQQM	VKKV	ehrlich	schön	treu	retten	fair	spielen	eitel	schlecht	tot	rächen	faul	strafen	1	acq_USunple_CSunple2_RW	acq4567_RW	5	40	400	1	300	300	407	46	0	1	1	blank2r.bmp	0	1	+	0	1	blank2r.bmp	492	1	BZZB	492	1	blank2r.bmp	572	1	rächen	866	1	!	1239	1	!	1306	0	0	0	0	0	0	0	0	0	0	0	0	0	0	0	0	0	0	0	0	0	0	0	0	0	0	0	0	0	0
071619	11:41:10	11:50:22	551467	5.0.10.0	5_exp_RW	53	Rpleas_acq	CS_B	GWWG	YDDY	JXXJ	BZZB	MQQM	VKKV	ehrlich	schön	treu	retten	fair	spielen	eitel	schlecht	tot	rächen	faul	strafen	1	acq_USunple_CSunple2_RW	acq4567_RW	5	41	400	1	300	300	408	46	0	1	1	blank2r.bmp	0	1	+	0	1	blank2r.bmp	492	1	BZZB	492	1	blank2r.bmp	572	3	strafen	866	1	!	1239	1	!	1306	0	0	0	0	0	0	0	0	0	0	0	0	0	0	0	0	0	0	0	0	0	0	0	0	0	0	0	0	0	0
071619	11:41:10	11:50:24	553719	5.0.10.0	5_exp_RW	53	Rpleas_acq	CS_B	GWWG	YDDY	JXXJ	BZZB	MQQM	VKKV	ehrlich	schön	treu	retten	fair	spielen	eitel	schlecht	tot	rächen	faul	strafen	1	acq_USpleas_CSpleas2_RW	acq4567_RW	5	42	400	0	300	300	482	50	0	1	1	blank2r.bmp	0	1	+	0	1	blank2r.bmp	492	1	YDDY	492	1	blank2r.bmp	572	2	fair	866	1	!	1239	1	!	-1	0	0	0	0	0	0	0	0	0	0	0	0	0	0	0	0	0	0	0	0	0	0	0	0	0	0	0	0	0	0
071619	11:41:10	11:50:26	555945	5.0.10.0	5_exp_RW	53	Rpleas_acq	CS_B	GWWG	YDDY	JXXJ	BZZB	MQQM	VKKV	ehrlich	schön	treu	retten	fair	spielen	eitel	schlecht	tot	rächen	faul	strafen	1	acq_USpleas_CSpleas1_RW	acq4567_RW	5	43	400	1	300	300	416	50	0	1	1	blank2r.bmp	0	1	+	0	1	blank2r.bmp	492	1	GWWG	492	1	blank2r.bmp	572	1	ehrlich	866	1	!	1239	1	!	1319	0	0	0	0	0	0	0	0	0	0	0	0	0	0	0	0	0	0	0	0	0	0	0	0	0	0	0	0	0	0
071619	11:41:10	11:50:28	558037	5.0.10.0	5_exp_RW	53	Rpleas_acq	CS_B	GWWG	YDDY	JXXJ	BZZB	MQQM	VKKV	ehrlich	schön	treu	retten	fair	spielen	eitel	schlecht	tot	rächen	faul	strafen	1	acq_USunple_CSunple2_RW	acq4567_RW	5	44	400	0	300	300	326	46	0	1	1	blank2r.bmp	0	1	+	0	1	blank2r.bmp	492	1	BZZB	492	1	blank2r.bmp	572	2	faul	866	1	!	-1	1	!	-1	0	0	0	0	0	0	0	0	0	0	0	0	0	0	0	0	0	0	0	0	0	0	0	0	0	0	0	0	0	0
071619	11:41:10	11:50:31	560263	5.0.10.0	5_exp_RW	53	Rpleas_acq	CS_B	GWWG	YDDY	JXXJ	BZZB	MQQM	VKKV	ehrlich	schön	treu	retten	fair	spielen	eitel	schlecht	tot	rächen	faul	strafen	1	acq_USpleas_CSpleas1_RW	acq4567_RW	5	45	400	1	300	300	417	50	0	1	1	blank2r.bmp	0	1	+	0	1	blank2r.bmp	492	1	GWWG	492	1	blank2r.bmp	572	2	schön	866	1	!	1239	1	!	1319	0	0	0	0	0	0	0	0	0	0	0	0	0	0	0	0	0	0	0	0	0	0	0	0	0	0	0	0	0	0
071619	11:41:10	11:50:33	562529	5.0.10.0	5_exp_RW	53	Rpleas_acq	CS_B	GWWG	YDDY	JXXJ	BZZB	MQQM	VKKV	ehrlich	schön	treu	retten	fair	spielen	eitel	schlecht	tot	rächen	faul	strafen	1	acq_USpleas_CSpleas1_RW	acq4567_RW	5	46	400	0	300	300	479	50	0	1	1	blank2r.bmp	0	1	+	0	1	blank2r.bmp	492	1	GWWG	492	1	blank2r.bmp	572	3	treu	866	1	!	1239	1	!	-1	0	0	0	0	0	0	0	0	0	0	0	0	0	0	0	0	0	0	0	0	0	0	0	0	0	0	0	0	0	0
071619	11:41:10	11:50:35	564728	5.0.10.0	5_exp_RW	53	Rpleas_acq	CS_B	GWWG	YDDY	JXXJ	BZZB	MQQM	VKKV	ehrlich	schön	treu	retten	fair	spielen	eitel	schlecht	tot	rächen	faul	strafen	1	acq_USunple_CSunple1_RW	acq4567_RW	5	47	400	1	300	300	389	46	0	1	1	blank2r.bmp	0	1	+	0	1	blank2r.bmp	492	1	JXXJ	492	1	blank2r.bmp	572	3	tot	866	1	!	1239	1	!	1292	0	0	0	0	0	0	0	0	0	0	0	0	0	0	0	0	0	0	0	0	0	0	0	0	0	0	0	0	0	0
071619	11:41:10	11:50:37	566874	5.0.10.0	5_exp_RW	53	Rpleas_acq	CS_B	GWWG	YDDY	JXXJ	BZZB	MQQM	VKKV	ehrlich	schön	treu	retten	fair	spielen	eitel	schlecht	tot	rächen	faul	strafen	1	acq_USunple_CSunple1_RW	acq4567_RW	5	48	400	1	300	300	358	50	0	0	1	blank2r.bmp	0	1	+	0	1	blank2r.bmp	492	1	JXXJ	492	1	blank2r.bmp	572	1	eitel	866	1	!	1239	1	!	1252	0	0	0	0	0	0	0	0	0	0	0	0	0	0	0	0	0	0	0	0	0	0	0	0	0	0	0	0	0	0
071619	11:41:10	11:50:39	569033	5.0.10.0	5_exp_RW	53	Rpleas_acq	CS_B	GWWG	YDDY	JXXJ	BZZB	MQQM	VKKV	ehrlich	schön	treu	retten	fair	spielen	eitel	schlecht	tot	rächen	faul	strafen	1	acq_USunple_CSunple1_RW	acq4567_RW	5	49	400	1	300	300	359	46	0	1	1	blank2r.bmp	0	1	+	0	1	blank2r.bmp	492	1	JXXJ	492	1	blank2r.bmp	572	3	tot	866	1	!	1239	1	!	1266	0	0	0	0	0	0	0	0	0	0	0	0	0	0	0	0	0	0	0	0	0	0	0	0	0	0	0	0	0	0
071619	11:41:10	11:50:42	571285	5.0.10.0	5_exp_RW	53	Rpleas_acq	CS_B	GWWG	YDDY	JXXJ	BZZB	MQQM	VKKV	ehrlich	schön	treu	retten	fair	spielen	eitel	schlecht	tot	rächen	faul	strafen	1	acq_USpleas_CSpleas2_RW	acq4567_RW	5	50	400	1	300	300	465	50	0	1	1	blank2r.bmp	0	1	+	0	1	blank2r.bmp	492	1	YDDY	492	1	blank2r.bmp	572	3	spielen	866	1	!	1239	1	!	1359	0	0	0	0	0	0	0	0	0	0	0	0	0	0	0	0	0	0	0	0	0	0	0	0	0	0	0	0	0	0
071619	11:41:10	11:50:44	573524	5.0.10.0	5_exp_RW	53	Rpleas_acq	CS_B	GWWG	YDDY	JXXJ	BZZB	MQQM	VKKV	ehrlich	schön	treu	retten	fair	spielen	eitel	schlecht	tot	rächen	faul	strafen	1	acq_USpleas_CSpleas1_RW	acq4567_RW	5	51	400	1	300	300	445	50	0	1	1	blank2r.bmp	0	1	+	0	1	blank2r.bmp	492	1	GWWG	492	1	blank2r.bmp	572	1	ehrlich	866	1	!	1239	1	!	1346	0	0	0	0	0	0	0	0	0	0	0	0	0	0	0	0	0	0	0	0	0	0	0	0	0	0	0	0	0	0
071619	11:41:10	11:50:46	575777	5.0.10.0	5_exp_RW	53	Rpleas_acq	CS_B	GWWG	YDDY	JXXJ	BZZB	MQQM	VKKV	ehrlich	schön	treu	retten	fair	spielen	eitel	schlecht	tot	rächen	faul	strafen	1	acq_USunple_CSunple2_RW	acq4567_RW	5	52	400	1	300	300	464	46	0	1	1	blank2r.bmp	0	1	+	0	1	blank2r.bmp	492	1	BZZB	492	1	blank2r.bmp	572	3	strafen	866	1	!	1239	1	!	1359	0	0	0	0	0	0	0	0	0	0	0	0	0	0	0	0	0	0	0	0	0	0	0	0	0	0	0	0	0	0
071619	11:41:10	11:50:48	577949	5.0.10.0	5_exp_RW	53	Rpleas_acq	CS_B	GWWG	YDDY	JXXJ	BZZB	MQQM	VKKV	ehrlich	schön	treu	retten	fair	spielen	eitel	schlecht	tot	rächen	faul	strafen	1	acq_USpleas_CSpleas2_RW	acq4567_RW	5	53	400	1	300	300	378	50	0	1	1	blank2r.bmp	0	1	+	0	1	blank2r.bmp	492	1	YDDY	492	1	blank2r.bmp	572	1	retten	866	1	!	1239	1	!	1279	0	0	0	0	0	0	0	0	0	0	0	0	0	0	0	0	0	0	0	0	0	0	0	0	0	0	0	0	0	0
071619	11:41:10	11:50:50	580028	5.0.10.0	5_exp_RW	53	Rpleas_acq	CS_B	GWWG	YDDY	JXXJ	BZZB	MQQM	VKKV	ehrlich	schön	treu	retten	fair	spielen	eitel	schlecht	tot	rächen	faul	strafen	1	acq_USpleas_CSpleas2_RW	acq4567_RW	5	54	400	0	300	300	305	46	0	0	1	blank2r.bmp	0	1	+	0	1	blank2r.bmp	492	1	YDDY	492	1	blank2r.bmp	572	2	fair	866	1	!	-1	1	!	-1	0	0	0	0	0	0	0	0	0	0	0	0	0	0	0	0	0	0	0	0	0	0	0	0	0	0	0	0	0	0
071619	11:41:10	11:50:53	582361	5.0.10.0	5_exp_RW	53	Rpleas_acq	CS_B	GWWG	YDDY	JXXJ	BZZB	MQQM	VKKV	ehrlich	schön	treu	retten	fair	spielen	eitel	schlecht	tot	rächen	faul	strafen	1	acq_USunple_CSunple2_RW	acq4567_RW	5	55	400	0	300	300	536	46	0	1	1	blank2r.bmp	0	1	+	0	1	blank2r.bmp	492	1	BZZB	492	1	blank2r.bmp	572	2	faul	866	1	!	1239	1	!	-1	0	0	0	0	0	0	0	0	0	0	0	0	0	0	0	0	0	0	0	0	0	0	0	0	0	0	0	0	0	0
071619	11:41:10	11:50:55	584546	5.0.10.0	5_exp_RW	53	Rpleas_acq	CS_B	GWWG	YDDY	JXXJ	BZZB	MQQM	VKKV	ehrlich	schön	treu	retten	fair	spielen	eitel	schlecht	tot	rächen	faul	strafen	1	acq_USunple_CSunple1_RW	acq4567_RW	5	56	400	1	300	300	378	50	0	0	1	blank2r.bmp	0	1	+	0	1	blank2r.bmp	492	1	JXXJ	492	1	blank2r.bmp	572	1	eitel	866	1	!	1239	1	!	1279	0	0	0	0	0	0	0	0	0	0	0	0	0	0	0	0	0	0	0	0	0	0	0	0	0	0	0	0	0	0
071619	11:41:10	11:50:57	586812	5.0.10.0	5_exp_RW	53	Rpleas_acq	CS_B	GWWG	YDDY	JXXJ	BZZB	MQQM	VKKV	ehrlich	schön	treu	retten	fair	spielen	eitel	schlecht	tot	rächen	faul	strafen	1	acq_USunple_CSunple1_RW	acq4567_RW	5	57	400	0	300	300	494	46	0	1	1	blank2r.bmp	0	1	+	0	1	blank2r.bmp	492	1	JXXJ	492	1	blank2r.bmp	572	2	schlecht	866	1	!	1239	1	!	-1	0	0	0	0	0	0	0	0	0	0	0	0	0	0	0	0	0	0	0	0	0	0	0	0	0	0	0	0	0	0
071619	11:41:10	11:50:59	588918	5.0.10.0	5_exp_RW	53	Rpleas_acq	CS_B	GWWG	YDDY	JXXJ	BZZB	MQQM	VKKV	ehrlich	schön	treu	retten	fair	spielen	eitel	schlecht	tot	rächen	faul	strafen	1	acq_USpleas_CSpleas1_RW	acq4567_RW	5	58	400	0	300	300	320	50	0	1	1	blank2r.bmp	0	1	+	0	1	blank2r.bmp	492	1	GWWG	492	1	blank2r.bmp	572	2	schön	866	1	!	-1	1	!	-1	0	0	0	0	0	0	0	0	0	0	0	0	0	0	0	0	0	0	0	0	0	0	0	0	0	0	0	0	0	0
071619	11:41:10	11:51:02	591170	5.0.10.0	5_exp_RW	53	Rpleas_acq	CS_B	GWWG	YDDY	JXXJ	BZZB	MQQM	VKKV	ehrlich	schön	treu	retten	fair	spielen	eitel	schlecht	tot	rächen	faul	strafen	1	acq_USpleas_CSpleas2_RW	acq4567_RW	5	59	400	1	300	300	444	50	0	1	1	blank2r.bmp	0	1	+	0	1	blank2r.bmp	492	1	YDDY	492	1	blank2r.bmp	572	3	spielen	866	1	!	1239	1	!	1346	0	0	0	0	0	0	0	0	0	0	0	0	0	0	0	0	0	0	0	0	0	0	0	0	0	0	0	0	0	0
071619	11:41:10	11:51:04	593503	5.0.10.0	5_exp_RW	53	Rpleas_acq	CS_B	GWWG	YDDY	JXXJ	BZZB	MQQM	VKKV	ehrlich	schön	treu	retten	fair	spielen	eitel	schlecht	tot	rächen	faul	strafen	1	acq_USunple_CSunple2_RW	acq4567_RW	5	60	400	0	300	300	566	46	0	1	1	blank2r.bmp	0	1	+	0	1	blank2r.bmp	492	1	BZZB	492	1	blank2r.bmp	572	1	rächen	866	1	!	1239	1	!	-1	0	0	0	0	0	0	0	0	0	0	0	0	0	0	0	0	0	0	0	0	0	0	0	0	0	0	0	0	0	0
071619	11:41:10	11:51:06	595715	5.0.10.0	5_exp_RW	53	Rpleas_acq	CS_B	GWWG	YDDY	JXXJ	BZZB	MQQM	VKKV	ehrlich	schön	treu	retten	fair	spielen	eitel	schlecht	tot	rächen	faul	strafen	1	acq_USunple_CSunple1_RW	acq4567_RW	5	61	400	1	300	300	402	46	0	1	1	blank2r.bmp	0	1	+	0	1	blank2r.bmp	492	1	JXXJ	492	1	blank2r.bmp	572	2	schlecht	866	1	!	1239	1	!	1306	0	0	0	0	0	0	0	0	0	0	0	0	0	0	0	0	0	0	0	0	0	0	0	0	0	0	0	0	0	0
071619	11:41:10	11:51:08	597968	5.0.10.0	5_exp_RW	53	Rpleas_acq	CS_B	GWWG	YDDY	JXXJ	BZZB	MQQM	VKKV	ehrlich	schön	treu	retten	fair	spielen	eitel	schlecht	tot	rächen	faul	strafen	1	acq_USunple_CSunple2_RW	acq4567_RW	5	62	400	0	300	300	488	46	0	1	1	blank2r.bmp	0	1	+	0	1	blank2r.bmp	492	1	BZZB	492	1	blank2r.bmp	572	2	faul	866	1	!	1239	1	!	-1	0	0	0	0	0	0	0	0	0	0	0	0	0	0	0	0	0	0	0	0	0	0	0	0	0	0	0	0	0	0
071619	11:41:10	11:51:11	600220	5.0.10.0	5_exp_RW	53	Rpleas_acq	CS_B	GWWG	YDDY	JXXJ	BZZB	MQQM	VKKV	ehrlich	schön	treu	retten	fair	spielen	eitel	schlecht	tot	rächen	faul	strafen	1	acq_USpleas_CSpleas1_RW	acq4567_RW	5	63	400	1	300	300	441	50	0	1	1	blank2r.bmp	0	1	+	0	1	blank2r.bmp	492	1	GWWG	492	1	blank2r.bmp	572	3	treu	866	1	!	1239	1	!	1346	0	0	0	0	0	0	0	0	0	0	0	0	0	0	0	0	0	0	0	0	0	0	0	0	0	0	0	0	0	0
071619	11:41:10	11:51:13	602459	5.0.10.0	5_exp_RW	53	Rpleas_acq	CS_B	GWWG	YDDY	JXXJ	BZZB	MQQM	VKKV	ehrlich	schön	treu	retten	fair	spielen	eitel	schlecht	tot	rächen	faul	strafen	1	acq_USunple_CSunple2_RW	acq4567_RW	5	64	400	1	300	300	441	46	0	1	1	blank2r.bmp	0	1	+	0	1	blank2r.bmp	492	1	BZZB	492	1	blank2r.bmp	572	1	rächen	866	1	!	1239	1	!	1346	0	0	0	0	0	0	0	0	0	0	0	0	0	0	0	0	0	0	0	0	0	0	0	0	0	0	0	0	0	0
071619	11:41:10	11:51:15	604658	5.0.10.0	5_exp_RW	53	Rpleas_acq	CS_B	GWWG	YDDY	JXXJ	BZZB	MQQM	VKKV	ehrlich	schön	treu	retten	fair	spielen	eitel	schlecht	tot	rächen	faul	strafen	1	acq_USpleas_CSpleas2_RW	acq4567_RW	5	65	400	1	300	300	395	50	0	1	1	blank2r.bmp	0	1	+	0	1	blank2r.bmp	492	1	YDDY	492	1	blank2r.bmp	572	2	fair	866	1	!	1239	1	!	1292	0	0	0	0	0	0	0	0	0	0	0	0	0	0	0	0	0	0	0	0	0	0	0	0	0	0	0	0	0	0
071619	11:41:10	11:51:17	606844	5.0.10.0	5_exp_RW	53	Rpleas_acq	CS_B	GWWG	YDDY	JXXJ	BZZB	MQQM	VKKV	ehrlich	schön	treu	retten	fair	spielen	eitel	schlecht	tot	rächen	faul	strafen	1	acq_USpleas_CSpleas1_RW	acq4567_RW	5	66	400	1	300	300	377	50	0	1	1	blank2r.bmp	0	1	+	0	1	blank2r.bmp	492	1	GWWG	492	1	blank2r.bmp	572	2	schön	866	1	!	1239	1	!	1279	0	0	0	0	0	0	0	0	0	0	0	0	0	0	0	0	0	0	0	0	0	0	0	0	0	0	0	0	0	0
071619	11:41:10	11:51:19	609070	5.0.10.0	5_exp_RW	53	Rpleas_acq	CS_B	GWWG	YDDY	JXXJ	BZZB	MQQM	VKKV	ehrlich	schön	treu	retten	fair	spielen	eitel	schlecht	tot	rächen	faul	strafen	1	acq_USunple_CSunple1_RW	acq4567_RW	5	67	400	1	300	300	413	46	0	1	1	blank2r.bmp	0	1	+	0	1	blank2r.bmp	492	1	JXXJ	492	1	blank2r.bmp	572	3	tot	866	1	!	1239	1	!	1319	0	0	0	0	0	0	0	0	0	0	0	0	0	0	0	0	0	0	0	0	0	0	0	0	0	0	0	0	0	0
071619	11:41:10	11:51:22	611309	5.0.10.0	5_exp_RW	53	Rpleas_acq	CS_B	GWWG	YDDY	JXXJ	BZZB	MQQM	VKKV	ehrlich	schön	treu	retten	fair	spielen	eitel	schlecht	tot	rächen	faul	strafen	1	acq_USpleas_CSpleas2_RW	acq4567_RW	5	68	400	1	300	300	443	50	0	1	1	blank2r.bmp	0	1	+	0	1	blank2r.bmp	492	1	YDDY	492	1	blank2r.bmp	572	3	spielen	866	1	!	1239	1	!	1346	0	0	0	0	0	0	0	0	0	0	0	0	0	0	0	0	0	0	0	0	0	0	0	0	0	0	0	0	0	0
071619	11:41:10	11:51:24	613521	5.0.10.0	5_exp_RW	53	Rpleas_acq	CS_B	GWWG	YDDY	JXXJ	BZZB	MQQM	VKKV	ehrlich	schön	treu	retten	fair	spielen	eitel	schlecht	tot	rächen	faul	strafen	1	acq_USpleas_CSpleas2_RW	acq4567_RW	5	69	400	1	300	300	413	46	0	0	1	blank2r.bmp	0	1	+	0	1	blank2r.bmp	492	1	YDDY	492	1	blank2r.bmp	572	1	retten	866	1	!	1239	1	!	1319	0	0	0	0	0	0	0	0	0	0	0	0	0	0	0	0	0	0	0	0	0	0	0	0	0	0	0	0	0	0
071619	11:41:10	11:51:26	615760	5.0.10.0	5_exp_RW	53	Rpleas_acq	CS_B	GWWG	YDDY	JXXJ	BZZB	MQQM	VKKV	ehrlich	schön	treu	retten	fair	spielen	eitel	schlecht	tot	rächen	faul	strafen	1	acq_USunple_CSunple2_RW	acq4567_RW	5	70	400	1	300	300	451	46	0	1	1	blank2r.bmp	0	1	+	0	1	blank2r.bmp	492	1	BZZB	492	1	blank2r.bmp	572	3	strafen	866	1	!	1239	1	!	1346	0	0	0	0	0	0	0	0	0	0	0	0	0	0	0	0	0	0	0	0	0	0	0	0	0	0	0	0	0	0
071619	11:41:10	11:51:28	617853	5.0.10.0	5_exp_RW	53	Rpleas_acq	CS_B	GWWG	YDDY	JXXJ	BZZB	MQQM	VKKV	ehrlich	schön	treu	retten	fair	spielen	eitel	schlecht	tot	rächen	faul	strafen	1	acq_USunple_CSunple1_RW	acq4567_RW	5	71	400	0	300	300	324	46	0	1	1	blank2r.bmp	0	1	+	0	1	blank2r.bmp	492	1	JXXJ	492	1	blank2r.bmp	572	1	eitel	866	1	!	-1	1	!	-1	0	0	0	0	0	0	0	0	0	0	0	0	0	0	0	0	0	0	0	0	0	0	0	0	0	0	0	0	0	0
071619	11:41:10	11:51:30	620052	5.0.10.0	5_exp_RW	53	Rpleas_acq	CS_B	GWWG	YDDY	JXXJ	BZZB	MQQM	VKKV	ehrlich	schön	treu	retten	fair	spielen	eitel	schlecht	tot	rächen	faul	strafen	1	acq_USpleas_CSpleas2_RW	acq4567_RW	5	72	400	1	300	300	393	50	0	1	1	blank2r.bmp	0	1	+	0	1	blank2r.bmp	492	1	YDDY	492	1	blank2r.bmp	572	2	fair	866	1	!	1239	1	!	1292	0	0	0	0	0	0	0	0	0	0	0	0	0	0	0	0	0	0	0	0	0	0	0	0	0	0	0	0	0	0
071619	11:41:10	11:51:33	622198	5.0.10.0	5_exp_RW	53	Rpleas_acq	CS_B	GWWG	YDDY	JXXJ	BZZB	MQQM	VKKV	ehrlich	schön	treu	retten	fair	spielen	eitel	schlecht	tot	rächen	faul	strafen	1	acq_USpleas_CSpleas1_RW	acq4567_RW	5	73	400	1	300	300	347	50	0	1	1	blank2r.bmp	0	1	+	0	1	blank2r.bmp	492	1	GWWG	492	1	blank2r.bmp	572	1	ehrlich	866	1	!	1239	1	!	1252	0	0	0	0	0	0	0	0	0	0	0	0	0	0	0	0	0	0	0	0	0	0	0	0	0	0	0	0	0	0
071619	11:41:10	11:51:35	624384	5.0.10.0	5_exp_RW	53	Rpleas_acq	CS_B	GWWG	YDDY	JXXJ	BZZB	MQQM	VKKV	ehrlich	schön	treu	retten	fair	spielen	eitel	schlecht	tot	rächen	faul	strafen	1	acq_USunple_CSunple1_RW	acq4567_RW	5	74	400	1	300	300	391	46	0	1	1	blank2r.bmp	0	1	+	0	1	blank2r.bmp	492	1	JXXJ	492	1	blank2r.bmp	572	3	tot	866	1	!	1239	1	!	1292	0	0	0	0	0	0	0	0	0	0	0	0	0	0	0	0	0	0	0	0	0	0	0	0	0	0	0	0	0	0
071619	11:41:10	11:51:37	626636	5.0.10.0	5_exp_RW	53	Rpleas_acq	CS_B	GWWG	YDDY	JXXJ	BZZB	MQQM	VKKV	ehrlich	schön	treu	retten	fair	spielen	eitel	schlecht	tot	rächen	faul	strafen	1	acq_USunple_CSunple1_RW	acq4567_RW	5	75	400	0	300	300	487	46	0	1	1	blank2r.bmp	0	1	+	0	1	blank2r.bmp	492	1	JXXJ	492	1	blank2r.bmp	572	1	eitel	866	1	!	1239	1	!	-1	0	0	0	0	0	0	0	0	0	0	0	0	0	0	0	0	0	0	0	0	0	0	0	0	0	0	0	0	0	0
071619	11:41:10	11:51:39	628822	5.0.10.0	5_exp_RW	53	Rpleas_acq	CS_B	GWWG	YDDY	JXXJ	BZZB	MQQM	VKKV	ehrlich	schön	treu	retten	fair	spielen	eitel	schlecht	tot	rächen	faul	strafen	1	acq_USpleas_CSpleas1_RW	acq4567_RW	5	76	400	1	300	300	377	46	0	0	1	blank2r.bmp	0	1	+	0	1	blank2r.bmp	492	1	GWWG	492	1	blank2r.bmp	572	3	treu	866	1	!	1239	1	!	1279	0	0	0	0	0	0	0	0	0	0	0	0	0	0	0	0	0	0	0	0	0	0	0	0	0	0	0	0	0	0
071619	11:41:10	11:51:41	630981	5.0.10.0	5_exp_RW	53	Rpleas_acq	CS_B	GWWG	YDDY	JXXJ	BZZB	MQQM	VKKV	ehrlich	schön	treu	retten	fair	spielen	eitel	schlecht	tot	rächen	faul	strafen	1	acq_USunple_CSunple2_RW	acq4567_RW	5	77	400	1	300	300	363	46	0	1	1	blank2r.bmp	0	1	+	0	1	blank2r.bmp	492	1	BZZB	492	1	blank2r.bmp	572	2	faul	866	1	!	1239	1	!	1266	0	0	0	0	0	0	0	0	0	0	0	0	0	0	0	0	0	0	0	0	0	0	0	0	0	0	0	0	0	0
071619	11:41:10	11:51:44	633380	5.0.10.0	5_exp_RW	53	Rpleas_acq	CS_B	GWWG	YDDY	JXXJ	BZZB	MQQM	VKKV	ehrlich	schön	treu	retten	fair	spielen	eitel	schlecht	tot	rächen	faul	strafen	1	acq_USunple_CSunple2_RW	acq4567_RW	5	78	400	0	300	300	627	46	0	1	1	blank2r.bmp	0	1	+	0	1	blank2r.bmp	492	1	BZZB	492	1	blank2r.bmp	572	1	rächen	866	1	!	1239	1	!	-1	0	0	0	0	0	0	0	0	0	0	0	0	0	0	0	0	0	0	0	0	0	0	0	0	0	0	0	0	0	0
071619	11:41:10	11:51:46	635552	5.0.10.0	5_exp_RW	53	Rpleas_acq	CS_B	GWWG	YDDY	JXXJ	BZZB	MQQM	VKKV	ehrlich	schön	treu	retten	fair	spielen	eitel	schlecht	tot	rächen	faul	strafen	1	acq_USpleas_CSpleas1_RW	acq4567_RW	5	79	400	1	300	300	357	50	0	1	1	blank2r.bmp	0	1	+	0	1	blank2r.bmp	492	1	GWWG	492	1	blank2r.bmp	572	1	ehrlich	866	1	!	1239	1	!	1252	0	0	0	0	0	0	0	0	0	0	0	0	0	0	0	0	0	0	0	0	0	0	0	0	0	0	0	0	0	0
071619	11:41:10	11:51:48	637725	5.0.10.0	5_exp_RW	53	Rpleas_acq	CS_B	GWWG	YDDY	JXXJ	BZZB	MQQM	VKKV	ehrlich	schön	treu	retten	fair	spielen	eitel	schlecht	tot	rächen	faul	strafen	1	acq_USpleas_CSpleas2_RW	acq4567_RW	5	80	400	1	300	300	380	50	0	1	1	blank2r.bmp	0	1	+	0	1	blank2r.bmp	492	1	YDDY	492	1	blank2r.bmp	572	1	retten	866	1	!	1239	1	!	1279	0	0	0	0	0	0	0	0	0	0	0	0	0	0	0	0	0	0	0	0	0	0	0	0	0	0	0	0	0	0
071619	11:41:10	11:52:00	649666	5.0.10.0	5_exp_RW	53	Rpleas_acq	CS_B	GWWG	YDDY	JXXJ	BZZB	MQQM	VKKV	ehrlich	schön	treu	retten	fair	spielen	eitel	schlecht	tot	rächen	faul	strafen	1	acq_USpleas_CSpleas1_RW	acq4567_RW	6	1	400	1	300	300	346	50	0	1	1	blank2r.bmp	0	1	+	0	1	blank2r.bmp	492	1	GWWG	492	1	blank2r.bmp	572	2	schön	866	1	!	1239	1	!	1252	0	0	0	0	0	0	0	0	0	0	0	0	0	0	0	0	0	0	0	0	0	0	0	0	0	0	0	0	0	0
071619	11:41:10	11:52:02	651812	5.0.10.0	5_exp_RW	53	Rpleas_acq	CS_B	GWWG	YDDY	JXXJ	BZZB	MQQM	VKKV	ehrlich	schön	treu	retten	fair	spielen	eitel	schlecht	tot	rächen	faul	strafen	1	acq_USunple_CSunple2_RW	acq4567_RW	6	2	400	1	300	300	353	46	0	1	1	blank2r.bmp	0	1	+	0	1	blank2r.bmp	492	1	BZZB	492	1	blank2r.bmp	572	3	strafen	866	1	!	1239	1	!	1252	0	0	0	0	0	0	0	0	0	0	0	0	0	0	0	0	0	0	0	0	0	0	0	0	0	0	0	0	0	0
071619	11:41:10	11:52:04	654025	5.0.10.0	5_exp_RW	53	Rpleas_acq	CS_B	GWWG	YDDY	JXXJ	BZZB	MQQM	VKKV	ehrlich	schön	treu	retten	fair	spielen	eitel	schlecht	tot	rächen	faul	strafen	1	acq_USunple_CSunple2_RW	acq4567_RW	6	3	400	1	300	300	420	46	0	1	1	blank2r.bmp	0	1	+	0	1	blank2r.bmp	492	1	BZZB	492	1	blank2r.bmp	572	2	faul	866	1	!	1239	1	!	1319	0	0	0	0	0	0	0	0	0	0	0	0	0	0	0	0	0	0	0	0	0	0	0	0	0	0	0	0	0	0
071619	11:41:10	11:52:06	656091	5.0.10.0	5_exp_RW	53	Rpleas_acq	CS_B	GWWG	YDDY	JXXJ	BZZB	MQQM	VKKV	ehrlich	schön	treu	retten	fair	spielen	eitel	schlecht	tot	rächen	faul	strafen	1	acq_USpleas_CSpleas2_RW	acq4567_RW	6	4	400	0	300	300	304	50	0	1	1	blank2r.bmp	0	1	+	0	1	blank2r.bmp	492	1	YDDY	492	1	blank2r.bmp	572	3	spielen	866	1	!	-1	1	!	-1	0	0	0	0	0	0	0	0	0	0	0	0	0	0	0	0	0	0	0	0	0	0	0	0	0	0	0	0	0	0
071619	11:41:10	11:52:09	658370	5.0.10.0	5_exp_RW	53	Rpleas_acq	CS_B	GWWG	YDDY	JXXJ	BZZB	MQQM	VKKV	ehrlich	schön	treu	retten	fair	spielen	eitel	schlecht	tot	rächen	faul	strafen	1	acq_USunple_CSunple2_RW	acq4567_RW	6	5	400	0	300	300	496	46	0	1	1	blank2r.bmp	0	1	+	0	1	blank2r.bmp	492	1	BZZB	492	1	blank2r.bmp	572	1	rächen	866	1	!	1239	1	!	-1	0	0	0	0	0	0	0	0	0	0	0	0	0	0	0	0	0	0	0	0	0	0	0	0	0	0	0	0	0	0
071619	11:41:10	11:52:11	660529	5.0.10.0	5_exp_RW	53	Rpleas_acq	CS_B	GWWG	YDDY	JXXJ	BZZB	MQQM	VKKV	ehrlich	schön	treu	retten	fair	spielen	eitel	schlecht	tot	rächen	faul	strafen	1	acq_USpleas_CSpleas2_RW	acq4567_RW	6	6	400	1	300	300	355	50	0	1	1	blank2r.bmp	0	1	+	0	1	blank2r.bmp	492	1	YDDY	492	1	blank2r.bmp	572	2	fair	866	1	!	1239	1	!	1252	0	0	0	0	0	0	0	0	0	0	0	0	0	0	0	0	0	0	0	0	0	0	0	0	0	0	0	0	0	0
071619	11:41:10	11:52:13	662714	5.0.10.0	5_exp_RW	53	Rpleas_acq	CS_B	GWWG	YDDY	JXXJ	BZZB	MQQM	VKKV	ehrlich	schön	treu	retten	fair	spielen	eitel	schlecht	tot	rächen	faul	strafen	1	acq_USpleas_CSpleas1_RW	acq4567_RW	6	7	400	1	300	300	386	50	0	1	1	blank2r.bmp	0	1	+	0	1	blank2r.bmp	492	1	GWWG	492	1	blank2r.bmp	572	1	ehrlich	866	1	!	1239	1	!	1292	0	0	0	0	0	0	0	0	0	0	0	0	0	0	0	0	0	0	0	0	0	0	0	0	0	0	0	0	0	0
071619	11:41:10	11:52:15	664927	5.0.10.0	5_exp_RW	53	Rpleas_acq	CS_B	GWWG	YDDY	JXXJ	BZZB	MQQM	VKKV	ehrlich	schön	treu	retten	fair	spielen	eitel	schlecht	tot	rächen	faul	strafen	1	acq_USunple_CSunple2_RW	acq4567_RW	6	8	400	1	300	300	419	46	0	1	1	blank2r.bmp	0	1	+	0	1	blank2r.bmp	492	1	BZZB	492	1	blank2r.bmp	572	3	strafen	866	1	!	1239	1	!	1319	0	0	0	0	0	0	0	0	0	0	0	0	0	0	0	0	0	0	0	0	0	0	0	0	0	0	0	0	0	0
071619	11:41:10	11:52:17	666993	5.0.10.0	5_exp_RW	53	Rpleas_acq	CS_B	GWWG	YDDY	JXXJ	BZZB	MQQM	VKKV	ehrlich	schön	treu	retten	fair	spielen	eitel	schlecht	tot	rächen	faul	strafen	1	acq_USpleas_CSpleas2_RW	acq4567_RW	6	9	400	0	300	300	295	50	0	1	1	blank2r.bmp	0	1	+	0	1	blank2r.bmp	492	1	YDDY	492	1	blank2r.bmp	572	3	spielen	866	1	!	-1	1	!	-1	0	0	0	0	0	0	0	0	0	0	0	0	0	0	0	0	0	0	0	0	0	0	0	0	0	0	0	0	0	0
071619	11:41:10	11:52:20	669218	5.0.10.0	5_exp_RW	53	Rpleas_acq	CS_B	GWWG	YDDY	JXXJ	BZZB	MQQM	VKKV	ehrlich	schön	treu	retten	fair	spielen	eitel	schlecht	tot	rächen	faul	strafen	1	acq_USunple_CSunple1_RW	acq4567_RW	6	10	400	1	300	300	420	46	0	1	1	blank2r.bmp	0	1	+	0	1	blank2r.bmp	492	1	JXXJ	492	1	blank2r.bmp	572	2	schlecht	866	1	!	1239	1	!	1319	0	0	0	0	0	0	0	0	0	0	0	0	0	0	0	0	0	0	0	0	0	0	0	0	0	0	0	0	0	0
071619	11:41:10	11:52:22	671418	5.0.10.0	5_exp_RW	53	Rpleas_acq	CS_B	GWWG	YDDY	JXXJ	BZZB	MQQM	VKKV	ehrlich	schön	treu	retten	fair	spielen	eitel	schlecht	tot	rächen	faul	strafen	1	acq_USpleas_CSpleas1_RW	acq4567_RW	6	11	400	1	300	300	409	50	0	1	1	blank2r.bmp	0	1	+	0	1	blank2r.bmp	492	1	GWWG	492	1	blank2r.bmp	572	2	schön	866	1	!	1239	1	!	1306	0	0	0	0	0	0	0	0	0	0	0	0	0	0	0	0	0	0	0	0	0	0	0	0	0	0	0	0	0	0
071619	11:41:10	11:52:24	673617	5.0.10.0	5_exp_RW	53	Rpleas_acq	CS_B	GWWG	YDDY	JXXJ	BZZB	MQQM	VKKV	ehrlich	schön	treu	retten	fair	spielen	eitel	schlecht	tot	rächen	faul	strafen	1	acq_USunple_CSunple2_RW	acq4567_RW	6	12	400	1	300	300	406	46	0	1	1	blank2r.bmp	0	1	+	0	1	blank2r.bmp	492	1	BZZB	492	1	blank2r.bmp	572	2	faul	866	1	!	1239	1	!	1306	0	0	0	0	0	0	0	0	0	0	0	0	0	0	0	0	0	0	0	0	0	0	0	0	0	0	0	0	0	0
071619	11:41:10	11:52:26	675816	5.0.10.0	5_exp_RW	53	Rpleas_acq	CS_B	GWWG	YDDY	JXXJ	BZZB	MQQM	VKKV	ehrlich	schön	treu	retten	fair	spielen	eitel	schlecht	tot	rächen	faul	strafen	1	acq_USpleas_CSpleas1_RW	acq4567_RW	6	13	400	1	300	300	408	50	0	1	1	blank2r.bmp	0	1	+	0	1	blank2r.bmp	492	1	GWWG	492	1	blank2r.bmp	572	3	treu	866	1	!	1239	1	!	1306	0	0	0	0	0	0	0	0	0	0	0	0	0	0	0	0	0	0	0	0	0	0	0	0	0	0	0	0	0	0
071619	11:41:10	11:52:28	677988	5.0.10.0	5_exp_RW	53	Rpleas_acq	CS_B	GWWG	YDDY	JXXJ	BZZB	MQQM	VKKV	ehrlich	schön	treu	retten	fair	spielen	eitel	schlecht	tot	rächen	faul	strafen	1	acq_USunple_CSunple1_RW	acq4567_RW	6	14	400	1	300	300	373	46	0	1	1	blank2r.bmp	0	1	+	0	1	blank2r.bmp	492	1	JXXJ	492	1	blank2r.bmp	572	2	schlecht	866	1	!	1239	1	!	1279	0	0	0	0	0	0	0	0	0	0	0	0	0	0	0	0	0	0	0	0	0	0	0	0	0	0	0	0	0	0
071619	11:41:10	11:52:30	680134	5.0.10.0	5_exp_RW	53	Rpleas_acq	CS_B	GWWG	YDDY	JXXJ	BZZB	MQQM	VKKV	ehrlich	schön	treu	retten	fair	spielen	eitel	schlecht	tot	rächen	faul	strafen	1	acq_USpleas_CSpleas1_RW	acq4567_RW	6	15	400	1	300	300	346	46	0	0	1	blank2r.bmp	0	1	+	0	1	blank2r.bmp	492	1	GWWG	492	1	blank2r.bmp	572	1	ehrlich	866	1	!	1239	1	!	1252	0	0	0	0	0	0	0	0	0	0	0	0	0	0	0	0	0	0	0	0	0	0	0	0	0	0	0	0	0	0
071619	11:41:10	11:52:33	682306	5.0.10.0	5_exp_RW	53	Rpleas_acq	CS_B	GWWG	YDDY	JXXJ	BZZB	MQQM	VKKV	ehrlich	schön	treu	retten	fair	spielen	eitel	schlecht	tot	rächen	faul	strafen	1	acq_USpleas_CSpleas2_RW	acq4567_RW	6	16	400	1	300	300	379	46	0	0	1	blank2r.bmp	0	1	+	0	1	blank2r.bmp	492	1	YDDY	492	1	blank2r.bmp	572	1	retten	866	1	!	1239	1	!	1279	0	0	0	0	0	0	0	0	0	0	0	0	0	0	0	0	0	0	0	0	0	0	0	0	0	0	0	0	0	0
071619	11:41:10	11:52:35	684532	5.0.10.0	5_exp_RW	53	Rpleas_acq	CS_B	GWWG	YDDY	JXXJ	BZZB	MQQM	VKKV	ehrlich	schön	treu	retten	fair	spielen	eitel	schlecht	tot	rächen	faul	strafen	1	acq_USunple_CSunple1_RW	acq4567_RW	6	17	400	1	300	300	437	50	0	0	1	blank2r.bmp	0	1	+	0	1	blank2r.bmp	492	1	JXXJ	492	1	blank2r.bmp	572	1	eitel	866	1	!	1239	1	!	1332	0	0	0	0	0	0	0	0	0	0	0	0	0	0	0	0	0	0	0	0	0	0	0	0	0	0	0	0	0	0
071619	11:41:10	11:52:37	686731	5.0.10.0	5_exp_RW	53	Rpleas_acq	CS_B	GWWG	YDDY	JXXJ	BZZB	MQQM	VKKV	ehrlich	schön	treu	retten	fair	spielen	eitel	schlecht	tot	rächen	faul	strafen	1	acq_USunple_CSunple1_RW	acq4567_RW	6	18	400	1	300	300	409	46	0	1	1	blank2r.bmp	0	1	+	0	1	blank2r.bmp	492	1	JXXJ	492	1	blank2r.bmp	572	3	tot	866	1	!	1239	1	!	1306	0	0	0	0	0	0	0	0	0	0	0	0	0	0	0	0	0	0	0	0	0	0	0	0	0	0	0	0	0	0
071619	11:41:10	11:52:39	688917	5.0.10.0	5_exp_RW	53	Rpleas_acq	CS_B	GWWG	YDDY	JXXJ	BZZB	MQQM	VKKV	ehrlich	schön	treu	retten	fair	spielen	eitel	schlecht	tot	rächen	faul	strafen	1	acq_USunple_CSunple1_RW	acq4567_RW	6	19	400	1	300	300	381	46	0	1	1	blank2r.bmp	0	1	+	0	1	blank2r.bmp	492	1	JXXJ	492	1	blank2r.bmp	572	2	schlecht	866	1	!	1239	1	!	1279	0	0	0	0	0	0	0	0	0	0	0	0	0	0	0	0	0	0	0	0	0	0	0	0	0	0	0	0	0	0
071619	11:41:10	11:52:41	691103	5.0.10.0	5_exp_RW	53	Rpleas_acq	CS_B	GWWG	YDDY	JXXJ	BZZB	MQQM	VKKV	ehrlich	schön	treu	retten	fair	spielen	eitel	schlecht	tot	rächen	faul	strafen	1	acq_USpleas_CSpleas2_RW	acq4567_RW	6	20	400	1	300	300	394	50	0	1	1	blank2r.bmp	0	1	+	0	1	blank2r.bmp	492	1	YDDY	492	1	blank2r.bmp	572	3	spielen	866	1	!	1239	1	!	1292	0	0	0	0	0	0	0	0	0	0	0	0	0	0	0	0	0	0	0	0	0	0	0	0	0	0	0	0	0	0
