date	time	script.currenttime	script.elapsedtime	build	script.currentexpt	subject	expressions.LRpleas_acq	expressions.conditionCS_A	expressions.CSpleas_1	expressions.CSpleas_2	expressions.CSunple_1	expressions.CSunple_2	expressions.distractor_1	expressions.distractor_2	expressions.US_pleas1	expressions.US_pleas2	expressions.US_pleas3	expressions.US_pleas4	expressions.US_pleas5	expressions.US_pleas6	expressions.US_unple1	expressions.US_unple2	expressions.US_unple3	expressions.US_unple4	expressions.US_unple5	expressions.US_unple6	counter.positions_noRW	trialcode	blockcode	blocknum	trialnum	windowcenter	inwindow	pretrialpause	posttrialpause	latency	response	expressions.correctedscore	correct	stimulusnumber1	stimulusitem1	stimulusonset1	stimulusnumber2	stimulusitem2	stimulusonset2	stimulusnumber3	stimulusitem3	stimulusonset3	stimulusnumber4	stimulusitem4	stimulusonset4	stimulusnumber5	stimulusitem5	stimulusonset5	stimulusnumber6	stimulusitem6	stimulusonset6	stimulusnumber7	stimulusitem7	stimulusonset7	stimulusnumber8	stimulusitem8	stimulusonset8	stimulusnumber9	stimulusitem9	stimulusonset9	stimulusnumber10	stimulusitem10	stimulusonset10	stimulusnumber11	stimulusitem11	stimulusonset11	stimulusnumber12	stimulusitem12	stimulusonset12	stimulusnumber13	stimulusitem13	stimulusonset13	stimulusnumber14	stimulusitem14	stimulusonset14	stimulusnumber15	stimulusitem15	stimulusonset15	stimulusnumber16	stimulusitem16	stimulusonset16	stimulusnumber17	stimulusitem17	stimulusonset17	stimulusnumber18	stimulusitem18	stimulusonset18
072419	16:30:48	16:32:07	78874	5.0.10.0	5_exp_noRW	86	Rpleas_acq	CS_B	MQQM	JXXJ	YDDY	BZZB	GWWG	VKKV	retten	spielen	ehrlich	fair	schön	treu	rächen	strafen	eitel	faul	schlecht	tot	47pct	acq_USunple_CSunple2_noRW	acq1_noRW	1	1	0	0	300	300	2000	0	0	0	1	blank2r.bmp	0	1	+	0	1	blank2r.bmp	252	1	BZZB	306	1	faul	559	1	FEHLER	2598	1	Schneller!	2598	0	0	0	0	0	0	0	0	0	0	0	0	0	0	0	0	0	0	0	0	0	0	0	0	0	0	0	0	0	0	0	0	0
072419	16:30:48	16:32:10	81073	5.0.10.0	5_exp_noRW	86	Rpleas_acq	CS_B	MQQM	JXXJ	YDDY	BZZB	GWWG	VKKV	retten	spielen	ehrlich	fair	schön	treu	rächen	strafen	eitel	faul	schlecht	tot	53pct	acq_USunple_CSunple1_noRW	acq1_noRW	1	2	0	0	300	300	1302	46	0	1	1	blank2r.bmp	0	1	+	0	1	blank2r.bmp	252	1	YDDY	306	1	rächen	559	0	0	0	0	0	0	0	0	0	0	0	0	0	0	0	0	0	0	0	0	0	0	0	0	0	0	0	0	0	0	0	0	0	0	0	0	0	0	0
072419	16:30:48	16:32:11	82819	5.0.10.0	5_exp_noRW	86	Rpleas_acq	CS_B	MQQM	JXXJ	YDDY	BZZB	GWWG	VKKV	retten	spielen	ehrlich	fair	schön	treu	rächen	strafen	eitel	faul	schlecht	tot	47pct	acq_USpleas_CSunple2_noRW	acq1_noRW	1	3	0	0	300	300	566	50	0	1	1	blank2r.bmp	0	1	+	0	1	blank2r.bmp	252	1	BZZB	306	3	treu	559	0	0	0	0	0	0	0	0	0	0	0	0	0	0	0	0	0	0	0	0	0	0	0	0	0	0	0	0	0	0	0	0	0	0	0	0	0	0	0
072419	16:30:48	16:32:13	84511	5.0.10.0	5_exp_noRW	86	Rpleas_acq	CS_B	MQQM	JXXJ	YDDY	BZZB	GWWG	VKKV	retten	spielen	ehrlich	fair	schön	treu	rächen	strafen	eitel	faul	schlecht	tot	47pct	acq_USpleas_CSpleas2_noRW	acq1_noRW	1	4	0	0	300	300	506	50	0	1	1	blank2r.bmp	0	1	+	0	1	blank2r.bmp	252	1	JXXJ	306	2	schön	559	0	0	0	0	0	0	0	0	0	0	0	0	0	0	0	0	0	0	0	0	0	0	0	0	0	0	0	0	0	0	0	0	0	0	0	0	0	0	0
072419	16:30:48	16:32:15	86177	5.0.10.0	5_exp_noRW	86	Rpleas_acq	CS_B	MQQM	JXXJ	YDDY	BZZB	GWWG	VKKV	retten	spielen	ehrlich	fair	schön	treu	rächen	strafen	eitel	faul	schlecht	tot	53pct	acq_USunple_CSunple2_noRW	acq1_noRW	1	5	0	0	300	300	499	46	0	1	1	blank2r.bmp	0	1	+	0	1	blank2r.bmp	252	1	BZZB	306	2	schlecht	559	0	0	0	0	0	0	0	0	0	0	0	0	0	0	0	0	0	0	0	0	0	0	0	0	0	0	0	0	0	0	0	0	0	0	0	0	0	0	0
072419	16:30:48	16:32:17	88083	5.0.10.0	5_exp_noRW	86	Rpleas_acq	CS_B	MQQM	JXXJ	YDDY	BZZB	GWWG	VKKV	retten	spielen	ehrlich	fair	schön	treu	rächen	strafen	eitel	faul	schlecht	tot	47pct	acq_USunple_CSunple1_noRW	acq1_noRW	1	6	0	0	300	300	724	46	0	1	1	blank2r.bmp	0	1	+	0	1	blank2r.bmp	252	1	YDDY	306	2	strafen	559	0	0	0	0	0	0	0	0	0	0	0	0	0	0	0	0	0	0	0	0	0	0	0	0	0	0	0	0	0	0	0	0	0	0	0	0	0	0	0
072419	16:30:48	16:32:18	89763	5.0.10.0	5_exp_noRW	86	Rpleas_acq	CS_B	MQQM	JXXJ	YDDY	BZZB	GWWG	VKKV	retten	spielen	ehrlich	fair	schön	treu	rächen	strafen	eitel	faul	schlecht	tot	47pct	acq_USpleas_CSpleas2_noRW	acq1_noRW	1	7	0	0	300	300	515	50	0	1	1	blank2r.bmp	0	1	+	0	1	blank2r.bmp	252	1	JXXJ	306	3	treu	559	0	0	0	0	0	0	0	0	0	0	0	0	0	0	0	0	0	0	0	0	0	0	0	0	0	0	0	0	0	0	0	0	0	0	0	0	0	0	0
072419	16:30:48	16:32:20	91842	5.0.10.0	5_exp_noRW	86	Rpleas_acq	CS_B	MQQM	JXXJ	YDDY	BZZB	GWWG	VKKV	retten	spielen	ehrlich	fair	schön	treu	rächen	strafen	eitel	faul	schlecht	tot	47pct	acq_USunple_CSunple1_noRW	acq1_noRW	1	8	0	0	300	300	903	46	0	1	1	blank2r.bmp	0	1	+	0	1	blank2r.bmp	252	1	YDDY	306	3	eitel	559	0	0	0	0	0	0	0	0	0	0	0	0	0	0	0	0	0	0	0	0	0	0	0	0	0	0	0	0	0	0	0	0	0	0	0	0	0	0	0
072419	16:30:48	16:32:22	93681	5.0.10.0	5_exp_noRW	86	Rpleas_acq	CS_B	MQQM	JXXJ	YDDY	BZZB	GWWG	VKKV	retten	spielen	ehrlich	fair	schön	treu	rächen	strafen	eitel	faul	schlecht	tot	53pct	acq_USpleas_CSpleas1_noRW	acq1_noRW	1	9	0	0	300	300	671	50	0	1	1	blank2r.bmp	0	1	+	0	1	blank2r.bmp	252	1	MQQM	306	1	retten	559	0	0	0	0	0	0	0	0	0	0	0	0	0	0	0	0	0	0	0	0	0	0	0	0	0	0	0	0	0	0	0	0	0	0	0	0	0	0	0
072419	16:30:48	16:32:24	95747	5.0.10.0	5_exp_noRW	86	Rpleas_acq	CS_B	MQQM	JXXJ	YDDY	BZZB	GWWG	VKKV	retten	spielen	ehrlich	fair	schön	treu	rächen	strafen	eitel	faul	schlecht	tot	53pct	acq_USpleas_CSpleas1_noRW	acq1_noRW	1	10	0	0	300	300	888	50	0	1	1	blank2r.bmp	0	1	+	0	1	blank2r.bmp	252	1	MQQM	306	3	ehrlich	559	0	0	0	0	0	0	0	0	0	0	0	0	0	0	0	0	0	0	0	0	0	0	0	0	0	0	0	0	0	0	0	0	0	0	0	0	0	0	0
072419	16:30:48	16:32:26	97773	5.0.10.0	5_exp_noRW	86	Rpleas_acq	CS_B	MQQM	JXXJ	YDDY	BZZB	GWWG	VKKV	retten	spielen	ehrlich	fair	schön	treu	rächen	strafen	eitel	faul	schlecht	tot	47pct	acq_USunple_CSunple2_noRW	acq1_noRW	1	11	0	0	300	300	846	46	0	1	1	blank2r.bmp	0	1	+	0	1	blank2r.bmp	252	1	BZZB	306	3	tot	559	0	0	0	0	0	0	0	0	0	0	0	0	0	0	0	0	0	0	0	0	0	0	0	0	0	0	0	0	0	0	0	0	0	0	0	0	0	0	0
072419	16:30:48	16:32:28	99558	5.0.10.0	5_exp_noRW	86	Rpleas_acq	CS_B	MQQM	JXXJ	YDDY	BZZB	GWWG	VKKV	retten	spielen	ehrlich	fair	schön	treu	rächen	strafen	eitel	faul	schlecht	tot	47pct	acq_USpleas_CSpleas1_noRW	acq1_noRW	1	12	0	0	300	300	619	50	0	1	1	blank2r.bmp	0	1	+	0	1	blank2r.bmp	252	1	MQQM	306	2	spielen	559	0	0	0	0	0	0	0	0	0	0	0	0	0	0	0	0	0	0	0	0	0	0	0	0	0	0	0	0	0	0	0	0	0	0	0	0	0	0	0
072419	16:30:48	16:32:30	101424	5.0.10.0	5_exp_noRW	86	Rpleas_acq	CS_B	MQQM	JXXJ	YDDY	BZZB	GWWG	VKKV	retten	spielen	ehrlich	fair	schön	treu	rächen	strafen	eitel	faul	schlecht	tot	53pct	acq_USunple_CSpleas1_noRW	acq1_noRW	1	13	0	0	300	300	681	46	0	1	1	blank2r.bmp	0	1	+	0	1	blank2r.bmp	252	1	MQQM	306	3	eitel	559	0	0	0	0	0	0	0	0	0	0	0	0	0	0	0	0	0	0	0	0	0	0	0	0	0	0	0	0	0	0	0	0	0	0	0	0	0	0	0
072419	16:30:48	16:32:32	103104	5.0.10.0	5_exp_noRW	86	Rpleas_acq	CS_B	MQQM	JXXJ	YDDY	BZZB	GWWG	VKKV	retten	spielen	ehrlich	fair	schön	treu	rächen	strafen	eitel	faul	schlecht	tot	53pct	acq_USunple_CSpleas2_noRW	acq1_noRW	1	14	0	0	300	300	516	46	0	1	1	blank2r.bmp	0	1	+	0	1	blank2r.bmp	252	1	JXXJ	306	2	schlecht	559	0	0	0	0	0	0	0	0	0	0	0	0	0	0	0	0	0	0	0	0	0	0	0	0	0	0	0	0	0	0	0	0	0	0	0	0	0	0	0
072419	16:30:48	16:32:33	104956	5.0.10.0	5_exp_noRW	86	Rpleas_acq	CS_B	MQQM	JXXJ	YDDY	BZZB	GWWG	VKKV	retten	spielen	ehrlich	fair	schön	treu	rächen	strafen	eitel	faul	schlecht	tot	47pct	acq_USpleas_CSpleas1_noRW	acq1_noRW	1	15	0	0	300	300	674	50	0	1	1	blank2r.bmp	0	1	+	0	1	blank2r.bmp	252	1	MQQM	306	1	retten	559	0	0	0	0	0	0	0	0	0	0	0	0	0	0	0	0	0	0	0	0	0	0	0	0	0	0	0	0	0	0	0	0	0	0	0	0	0	0	0
072419	16:30:48	16:32:36	107222	5.0.10.0	5_exp_noRW	86	Rpleas_acq	CS_B	MQQM	JXXJ	YDDY	BZZB	GWWG	VKKV	retten	spielen	ehrlich	fair	schön	treu	rächen	strafen	eitel	faul	schlecht	tot	53pct	acq_USpleas_CSpleas2_noRW	acq1_noRW	1	16	0	0	300	300	1088	50	0	1	1	blank2r.bmp	0	1	+	0	1	blank2r.bmp	252	1	JXXJ	306	1	fair	559	0	0	0	0	0	0	0	0	0	0	0	0	0	0	0	0	0	0	0	0	0	0	0	0	0	0	0	0	0	0	0	0	0	0	0	0	0	0	0
072419	16:30:48	16:32:38	109288	5.0.10.0	5_exp_noRW	86	Rpleas_acq	CS_B	MQQM	JXXJ	YDDY	BZZB	GWWG	VKKV	retten	spielen	ehrlich	fair	schön	treu	rächen	strafen	eitel	faul	schlecht	tot	47pct	acq_USpleas_CSpleas2_noRW	acq1_noRW	1	17	0	0	300	300	882	50	0	1	1	blank2r.bmp	0	1	+	0	1	blank2r.bmp	252	1	JXXJ	306	3	treu	559	0	0	0	0	0	0	0	0	0	0	0	0	0	0	0	0	0	0	0	0	0	0	0	0	0	0	0	0	0	0	0	0	0	0	0	0	0	0	0
072419	16:30:48	16:32:40	111127	5.0.10.0	5_exp_noRW	86	Rpleas_acq	CS_B	MQQM	JXXJ	YDDY	BZZB	GWWG	VKKV	retten	spielen	ehrlich	fair	schön	treu	rächen	strafen	eitel	faul	schlecht	tot	53pct	acq_USunple_CSunple2_noRW	acq1_noRW	1	18	0	0	300	300	667	46	0	1	1	blank2r.bmp	0	1	+	0	1	blank2r.bmp	252	1	BZZB	306	3	tot	559	0	0	0	0	0	0	0	0	0	0	0	0	0	0	0	0	0	0	0	0	0	0	0	0	0	0	0	0	0	0	0	0	0	0	0	0	0	0	0
072419	16:30:48	16:32:41	112846	5.0.10.0	5_exp_noRW	86	Rpleas_acq	CS_B	MQQM	JXXJ	YDDY	BZZB	GWWG	VKKV	retten	spielen	ehrlich	fair	schön	treu	rächen	strafen	eitel	faul	schlecht	tot	53pct	acq_USunple_CSunple1_noRW	acq1_noRW	1	19	0	0	300	300	557	46	0	1	1	blank2r.bmp	0	1	+	0	1	blank2r.bmp	252	1	YDDY	306	3	eitel	559	0	0	0	0	0	0	0	0	0	0	0	0	0	0	0	0	0	0	0	0	0	0	0	0	0	0	0	0	0	0	0	0	0	0	0	0	0	0	0
072419	16:30:48	16:32:43	114806	5.0.10.0	5_exp_noRW	86	Rpleas_acq	CS_B	MQQM	JXXJ	YDDY	BZZB	GWWG	VKKV	retten	spielen	ehrlich	fair	schön	treu	rächen	strafen	eitel	faul	schlecht	tot	53pct	acq_USpleas_CSunple1_noRW	acq1_noRW	1	20	0	0	300	300	781	50	0	1	1	blank2r.bmp	0	1	+	0	1	blank2r.bmp	252	1	YDDY	306	3	ehrlich	559	0	0	0	0	0	0	0	0	0	0	0	0	0	0	0	0	0	0	0	0	0	0	0	0	0	0	0	0	0	0	0	0	0	0	0	0	0	0	0
072419	16:30:48	16:32:45	116591	5.0.10.0	5_exp_noRW	86	Rpleas_acq	CS_B	MQQM	JXXJ	YDDY	BZZB	GWWG	VKKV	retten	spielen	ehrlich	fair	schön	treu	rächen	strafen	eitel	faul	schlecht	tot	53pct	acq_USunple_CSunple1_noRW	acq1_noRW	1	21	0	0	300	300	624	46	0	1	1	blank2r.bmp	0	1	+	0	1	blank2r.bmp	252	1	YDDY	306	1	rächen	559	0	0	0	0	0	0	0	0	0	0	0	0	0	0	0	0	0	0	0	0	0	0	0	0	0	0	0	0	0	0	0	0	0	0	0	0	0	0	0
072419	16:30:48	16:32:47	118431	5.0.10.0	5_exp_noRW	86	Rpleas_acq	CS_B	MQQM	JXXJ	YDDY	BZZB	GWWG	VKKV	retten	spielen	ehrlich	fair	schön	treu	rächen	strafen	eitel	faul	schlecht	tot	47pct	acq_USpleas_CSpleas2_noRW	acq1_noRW	1	22	0	0	300	300	659	50	0	1	1	blank2r.bmp	0	1	+	0	1	blank2r.bmp	252	1	JXXJ	306	2	schön	559	0	0	0	0	0	0	0	0	0	0	0	0	0	0	0	0	0	0	0	0	0	0	0	0	0	0	0	0	0	0	0	0	0	0	0	0	0	0	0
072419	16:30:48	16:32:49	120190	5.0.10.0	5_exp_noRW	86	Rpleas_acq	CS_B	MQQM	JXXJ	YDDY	BZZB	GWWG	VKKV	retten	spielen	ehrlich	fair	schön	treu	rächen	strafen	eitel	faul	schlecht	tot	53pct	acq_USunple_CSunple2_noRW	acq1_noRW	1	23	0	0	300	300	575	46	0	1	1	blank2r.bmp	0	1	+	0	1	blank2r.bmp	252	1	BZZB	306	1	faul	559	0	0	0	0	0	0	0	0	0	0	0	0	0	0	0	0	0	0	0	0	0	0	0	0	0	0	0	0	0	0	0	0	0	0	0	0	0	0	0
072419	16:30:48	16:32:50	121949	5.0.10.0	5_exp_noRW	86	Rpleas_acq	CS_B	MQQM	JXXJ	YDDY	BZZB	GWWG	VKKV	retten	spielen	ehrlich	fair	schön	treu	rächen	strafen	eitel	faul	schlecht	tot	47pct	acq_USpleas_CSpleas1_noRW	acq1_noRW	1	24	0	0	300	300	596	50	0	1	1	blank2r.bmp	0	1	+	0	1	blank2r.bmp	252	1	MQQM	306	3	ehrlich	559	0	0	0	0	0	0	0	0	0	0	0	0	0	0	0	0	0	0	0	0	0	0	0	0	0	0	0	0	0	0	0	0	0	0	0	0	0	0	0
072419	16:30:48	16:32:52	123775	5.0.10.0	5_exp_noRW	86	Rpleas_acq	CS_B	MQQM	JXXJ	YDDY	BZZB	GWWG	VKKV	retten	spielen	ehrlich	fair	schön	treu	rächen	strafen	eitel	faul	schlecht	tot	53pct	acq_USunple_CSunple2_noRW	acq1_noRW	1	25	0	0	300	300	662	46	0	1	1	blank2r.bmp	0	1	+	0	1	blank2r.bmp	252	1	BZZB	306	2	schlecht	559	0	0	0	0	0	0	0	0	0	0	0	0	0	0	0	0	0	0	0	0	0	0	0	0	0	0	0	0	0	0	0	0	0	0	0	0	0	0	0
072419	16:30:48	16:32:54	125761	5.0.10.0	5_exp_noRW	86	Rpleas_acq	CS_B	MQQM	JXXJ	YDDY	BZZB	GWWG	VKKV	retten	spielen	ehrlich	fair	schön	treu	rächen	strafen	eitel	faul	schlecht	tot	53pct	acq_USunple_CSunple1_noRW	acq1_noRW	1	26	0	0	300	300	817	46	0	1	1	blank2r.bmp	0	1	+	0	1	blank2r.bmp	252	1	YDDY	306	2	strafen	559	0	0	0	0	0	0	0	0	0	0	0	0	0	0	0	0	0	0	0	0	0	0	0	0	0	0	0	0	0	0	0	0	0	0	0	0	0	0	0
072419	16:30:48	16:32:56	127480	5.0.10.0	5_exp_noRW	86	Rpleas_acq	CS_B	MQQM	JXXJ	YDDY	BZZB	GWWG	VKKV	retten	spielen	ehrlich	fair	schön	treu	rächen	strafen	eitel	faul	schlecht	tot	47pct	acq_USunple_CSpleas1_noRW	acq1_noRW	1	27	0	0	300	300	545	46	0	1	1	blank2r.bmp	0	1	+	0	1	blank2r.bmp	252	1	MQQM	306	1	rächen	559	0	0	0	0	0	0	0	0	0	0	0	0	0	0	0	0	0	0	0	0	0	0	0	0	0	0	0	0	0	0	0	0	0	0	0	0	0	0	0
072419	16:30:48	16:32:58	129240	5.0.10.0	5_exp_noRW	86	Rpleas_acq	CS_B	MQQM	JXXJ	YDDY	BZZB	GWWG	VKKV	retten	spielen	ehrlich	fair	schön	treu	rächen	strafen	eitel	faul	schlecht	tot	47pct	acq_USunple_CSunple1_noRW	acq1_noRW	1	28	0	0	300	300	592	46	0	1	1	blank2r.bmp	0	1	+	0	1	blank2r.bmp	252	1	YDDY	306	1	rächen	559	0	0	0	0	0	0	0	0	0	0	0	0	0	0	0	0	0	0	0	0	0	0	0	0	0	0	0	0	0	0	0	0	0	0	0	0	0	0	0
072419	16:30:48	16:32:59	130919	5.0.10.0	5_exp_noRW	86	Rpleas_acq	CS_B	MQQM	JXXJ	YDDY	BZZB	GWWG	VKKV	retten	spielen	ehrlich	fair	schön	treu	rächen	strafen	eitel	faul	schlecht	tot	47pct	acq_USpleas_CSpleas1_noRW	acq1_noRW	1	29	0	0	300	300	510	50	0	1	1	blank2r.bmp	0	1	+	0	1	blank2r.bmp	252	1	MQQM	306	2	spielen	559	0	0	0	0	0	0	0	0	0	0	0	0	0	0	0	0	0	0	0	0	0	0	0	0	0	0	0	0	0	0	0	0	0	0	0	0	0	0	0
072419	16:30:48	16:33:01	132838	5.0.10.0	5_exp_noRW	86	Rpleas_acq	CS_B	MQQM	JXXJ	YDDY	BZZB	GWWG	VKKV	retten	spielen	ehrlich	fair	schön	treu	rächen	strafen	eitel	faul	schlecht	tot	53pct	acq_USpleas_CSunple1_noRW	acq1_noRW	1	30	0	0	300	300	731	50	0	1	1	blank2r.bmp	0	1	+	0	1	blank2r.bmp	252	1	YDDY	306	1	retten	559	0	0	0	0	0	0	0	0	0	0	0	0	0	0	0	0	0	0	0	0	0	0	0	0	0	0	0	0	0	0	0	0	0	0	0	0	0	0	0
072419	16:30:48	16:33:03	134544	5.0.10.0	5_exp_noRW	86	Rpleas_acq	CS_B	MQQM	JXXJ	YDDY	BZZB	GWWG	VKKV	retten	spielen	ehrlich	fair	schön	treu	rächen	strafen	eitel	faul	schlecht	tot	53pct	acq_USpleas_CSpleas2_noRW	acq1_noRW	1	31	0	0	300	300	536	50	0	1	1	blank2r.bmp	0	1	+	0	1	blank2r.bmp	252	1	JXXJ	306	1	fair	559	0	0	0	0	0	0	0	0	0	0	0	0	0	0	0	0	0	0	0	0	0	0	0	0	0	0	0	0	0	0	0	0	0	0	0	0	0	0	0
072419	16:30:48	16:33:05	136183	5.0.10.0	5_exp_noRW	86	Rpleas_acq	CS_B	MQQM	JXXJ	YDDY	BZZB	GWWG	VKKV	retten	spielen	ehrlich	fair	schön	treu	rächen	strafen	eitel	faul	schlecht	tot	53pct	acq_USunple_CSunple1_noRW	acq1_noRW	1	32	0	0	300	300	467	46	0	1	1	blank2r.bmp	0	1	+	0	1	blank2r.bmp	252	1	YDDY	306	2	strafen	559	0	0	0	0	0	0	0	0	0	0	0	0	0	0	0	0	0	0	0	0	0	0	0	0	0	0	0	0	0	0	0	0	0	0	0	0	0	0	0
072419	16:30:48	16:33:07	138063	5.0.10.0	5_exp_noRW	86	Rpleas_acq	CS_B	MQQM	JXXJ	YDDY	BZZB	GWWG	VKKV	retten	spielen	ehrlich	fair	schön	treu	rächen	strafen	eitel	faul	schlecht	tot	53pct	acq_USpleas_CSpleas2_noRW	acq1_noRW	1	33	0	0	300	300	707	50	0	1	1	blank2r.bmp	0	1	+	0	1	blank2r.bmp	252	1	JXXJ	306	2	schön	559	0	0	0	0	0	0	0	0	0	0	0	0	0	0	0	0	0	0	0	0	0	0	0	0	0	0	0	0	0	0	0	0	0	0	0	0	0	0	0
072419	16:30:48	16:33:08	139809	5.0.10.0	5_exp_noRW	86	Rpleas_acq	CS_B	MQQM	JXXJ	YDDY	BZZB	GWWG	VKKV	retten	spielen	ehrlich	fair	schön	treu	rächen	strafen	eitel	faul	schlecht	tot	47pct	acq_USpleas_CSpleas1_noRW	acq1_noRW	1	34	0	0	300	300	562	50	0	1	1	blank2r.bmp	0	1	+	0	1	blank2r.bmp	252	1	MQQM	306	1	retten	559	0	0	0	0	0	0	0	0	0	0	0	0	0	0	0	0	0	0	0	0	0	0	0	0	0	0	0	0	0	0	0	0	0	0	0	0	0	0	0
072419	16:30:48	16:33:10	141395	5.0.10.0	5_exp_noRW	86	Rpleas_acq	CS_B	MQQM	JXXJ	YDDY	BZZB	GWWG	VKKV	retten	spielen	ehrlich	fair	schön	treu	rächen	strafen	eitel	faul	schlecht	tot	47pct	acq_USunple_CSpleas2_noRW	acq1_noRW	1	35	0	0	300	300	407	46	0	1	1	blank2r.bmp	0	1	+	0	1	blank2r.bmp	252	1	JXXJ	306	3	tot	559	0	0	0	0	0	0	0	0	0	0	0	0	0	0	0	0	0	0	0	0	0	0	0	0	0	0	0	0	0	0	0	0	0	0	0	0	0	0	0
072419	16:30:48	16:33:12	143141	5.0.10.0	5_exp_noRW	86	Rpleas_acq	CS_B	MQQM	JXXJ	YDDY	BZZB	GWWG	VKKV	retten	spielen	ehrlich	fair	schön	treu	rächen	strafen	eitel	faul	schlecht	tot	47pct	acq_USpleas_CSpleas2_noRW	acq1_noRW	1	36	0	0	300	300	568	50	0	1	1	blank2r.bmp	0	1	+	0	1	blank2r.bmp	252	1	JXXJ	306	1	fair	559	0	0	0	0	0	0	0	0	0	0	0	0	0	0	0	0	0	0	0	0	0	0	0	0	0	0	0	0	0	0	0	0	0	0	0	0	0	0	0
072419	16:30:48	16:33:14	145193	5.0.10.0	5_exp_noRW	86	Rpleas_acq	CS_B	MQQM	JXXJ	YDDY	BZZB	GWWG	VKKV	retten	spielen	ehrlich	fair	schön	treu	rächen	strafen	eitel	faul	schlecht	tot	47pct	acq_USunple_CSunple2_noRW	acq1_noRW	1	37	0	0	300	300	877	46	0	1	1	blank2r.bmp	0	1	+	0	1	blank2r.bmp	252	1	BZZB	306	3	tot	559	0	0	0	0	0	0	0	0	0	0	0	0	0	0	0	0	0	0	0	0	0	0	0	0	0	0	0	0	0	0	0	0	0	0	0	0	0	0	0
072419	16:30:48	16:33:15	146899	5.0.10.0	5_exp_noRW	86	Rpleas_acq	CS_B	MQQM	JXXJ	YDDY	BZZB	GWWG	VKKV	retten	spielen	ehrlich	fair	schön	treu	rächen	strafen	eitel	faul	schlecht	tot	53pct	acq_USunple_CSunple2_noRW	acq1_noRW	1	38	0	0	300	300	542	46	0	1	1	blank2r.bmp	0	1	+	0	1	blank2r.bmp	252	1	BZZB	306	2	schlecht	559	0	0	0	0	0	0	0	0	0	0	0	0	0	0	0	0	0	0	0	0	0	0	0	0	0	0	0	0	0	0	0	0	0	0	0	0	0	0	0
072419	16:30:48	16:33:17	148645	5.0.10.0	5_exp_noRW	86	Rpleas_acq	CS_B	MQQM	JXXJ	YDDY	BZZB	GWWG	VKKV	retten	spielen	ehrlich	fair	schön	treu	rächen	strafen	eitel	faul	schlecht	tot	53pct	acq_USpleas_CSunple2_noRW	acq1_noRW	1	39	0	0	300	300	567	50	0	1	1	blank2r.bmp	0	1	+	0	1	blank2r.bmp	252	1	BZZB	306	1	fair	559	0	0	0	0	0	0	0	0	0	0	0	0	0	0	0	0	0	0	0	0	0	0	0	0	0	0	0	0	0	0	0	0	0	0	0	0	0	0	0
072419	16:30:48	16:33:19	150458	5.0.10.0	5_exp_noRW	86	Rpleas_acq	CS_B	MQQM	JXXJ	YDDY	BZZB	GWWG	VKKV	retten	spielen	ehrlich	fair	schön	treu	rächen	strafen	eitel	faul	schlecht	tot	53pct	acq_USpleas_CSpleas1_noRW	acq1_noRW	1	40	0	0	300	300	631	50	0	1	1	blank2r.bmp	0	1	+	0	1	blank2r.bmp	252	1	MQQM	306	3	ehrlich	559	0	0	0	0	0	0	0	0	0	0	0	0	0	0	0	0	0	0	0	0	0	0	0	0	0	0	0	0	0	0	0	0	0	0	0	0	0	0	0
072419	16:30:48	16:33:21	152217	5.0.10.0	5_exp_noRW	86	Rpleas_acq	CS_B	MQQM	JXXJ	YDDY	BZZB	GWWG	VKKV	retten	spielen	ehrlich	fair	schön	treu	rächen	strafen	eitel	faul	schlecht	tot	47pct	acq_USunple_CSunple2_noRW	acq1_noRW	1	41	0	0	300	300	573	46	0	1	1	blank2r.bmp	0	1	+	0	1	blank2r.bmp	252	1	BZZB	306	1	faul	559	0	0	0	0	0	0	0	0	0	0	0	0	0	0	0	0	0	0	0	0	0	0	0	0	0	0	0	0	0	0	0	0	0	0	0	0	0	0	0
072419	16:30:48	16:33:22	154003	5.0.10.0	5_exp_noRW	86	Rpleas_acq	CS_B	MQQM	JXXJ	YDDY	BZZB	GWWG	VKKV	retten	spielen	ehrlich	fair	schön	treu	rächen	strafen	eitel	faul	schlecht	tot	53pct	acq_USpleas_CSpleas1_noRW	acq1_noRW	1	42	0	0	300	300	612	50	0	1	1	blank2r.bmp	0	1	+	0	1	blank2r.bmp	252	1	MQQM	306	2	spielen	559	0	0	0	0	0	0	0	0	0	0	0	0	0	0	0	0	0	0	0	0	0	0	0	0	0	0	0	0	0	0	0	0	0	0	0	0	0	0	0
072419	16:30:48	16:33:24	155855	5.0.10.0	5_exp_noRW	86	Rpleas_acq	CS_B	MQQM	JXXJ	YDDY	BZZB	GWWG	VKKV	retten	spielen	ehrlich	fair	schön	treu	rächen	strafen	eitel	faul	schlecht	tot	53pct	acq_USunple_CSunple2_noRW	acq1_noRW	1	43	0	0	300	300	689	46	0	1	1	blank2r.bmp	0	1	+	0	1	blank2r.bmp	252	1	BZZB	306	1	faul	559	0	0	0	0	0	0	0	0	0	0	0	0	0	0	0	0	0	0	0	0	0	0	0	0	0	0	0	0	0	0	0	0	0	0	0	0	0	0	0
072419	16:30:48	16:33:26	157508	5.0.10.0	5_exp_noRW	86	Rpleas_acq	CS_B	MQQM	JXXJ	YDDY	BZZB	GWWG	VKKV	retten	spielen	ehrlich	fair	schön	treu	rächen	strafen	eitel	faul	schlecht	tot	53pct	acq_USunple_CSunple2_noRW	acq1_noRW	1	44	0	0	300	300	473	46	0	1	1	blank2r.bmp	0	1	+	0	1	blank2r.bmp	252	1	BZZB	306	3	tot	559	0	0	0	0	0	0	0	0	0	0	0	0	0	0	0	0	0	0	0	0	0	0	0	0	0	0	0	0	0	0	0	0	0	0	0	0	0	0	0
072419	16:30:48	16:33:28	159547	5.0.10.0	5_exp_noRW	86	Rpleas_acq	CS_B	MQQM	JXXJ	YDDY	BZZB	GWWG	VKKV	retten	spielen	ehrlich	fair	schön	treu	rächen	strafen	eitel	faul	schlecht	tot	53pct	acq_USpleas_CSpleas2_noRW	acq1_noRW	1	45	0	0	300	300	854	50	0	1	1	blank2r.bmp	0	1	+	0	1	blank2r.bmp	252	1	JXXJ	306	3	treu	559	0	0	0	0	0	0	0	0	0	0	0	0	0	0	0	0	0	0	0	0	0	0	0	0	0	0	0	0	0	0	0	0	0	0	0	0	0	0	0
072419	16:30:48	16:33:30	161267	5.0.10.0	5_exp_noRW	86	Rpleas_acq	CS_B	MQQM	JXXJ	YDDY	BZZB	GWWG	VKKV	retten	spielen	ehrlich	fair	schön	treu	rächen	strafen	eitel	faul	schlecht	tot	47pct	acq_USpleas_CSpleas1_noRW	acq1_noRW	1	46	0	0	300	300	552	50	0	1	1	blank2r.bmp	0	1	+	0	1	blank2r.bmp	252	1	MQQM	306	2	spielen	559	0	0	0	0	0	0	0	0	0	0	0	0	0	0	0	0	0	0	0	0	0	0	0	0	0	0	0	0	0	0	0	0	0	0	0	0	0	0	0
072419	16:30:48	16:33:31	162972	5.0.10.0	5_exp_noRW	86	Rpleas_acq	CS_B	MQQM	JXXJ	YDDY	BZZB	GWWG	VKKV	retten	spielen	ehrlich	fair	schön	treu	rächen	strafen	eitel	faul	schlecht	tot	47pct	acq_USpleas_CSunple1_noRW	acq1_noRW	1	47	0	0	300	300	532	50	0	1	1	blank2r.bmp	0	1	+	0	1	blank2r.bmp	252	1	YDDY	306	2	spielen	559	0	0	0	0	0	0	0	0	0	0	0	0	0	0	0	0	0	0	0	0	0	0	0	0	0	0	0	0	0	0	0	0	0	0	0	0	0	0	0
072419	16:30:48	16:33:33	164705	5.0.10.0	5_exp_noRW	86	Rpleas_acq	CS_B	MQQM	JXXJ	YDDY	BZZB	GWWG	VKKV	retten	spielen	ehrlich	fair	schön	treu	rächen	strafen	eitel	faul	schlecht	tot	53pct	acq_USpleas_CSpleas1_noRW	acq1_noRW	1	48	0	0	300	300	567	50	0	1	1	blank2r.bmp	0	1	+	0	1	blank2r.bmp	252	1	MQQM	306	3	ehrlich	559	0	0	0	0	0	0	0	0	0	0	0	0	0	0	0	0	0	0	0	0	0	0	0	0	0	0	0	0	0	0	0	0	0	0	0	0	0	0	0
072419	16:30:48	16:33:35	166318	5.0.10.0	5_exp_noRW	86	Rpleas_acq	CS_B	MQQM	JXXJ	YDDY	BZZB	GWWG	VKKV	retten	spielen	ehrlich	fair	schön	treu	rächen	strafen	eitel	faul	schlecht	tot	47pct	acq_USunple_CSunple1_noRW	acq1_noRW	1	49	0	0	300	300	425	46	0	1	1	blank2r.bmp	0	1	+	0	1	blank2r.bmp	252	1	YDDY	306	3	eitel	559	0	0	0	0	0	0	0	0	0	0	0	0	0	0	0	0	0	0	0	0	0	0	0	0	0	0	0	0	0	0	0	0	0	0	0	0	0	0	0
072419	16:30:48	16:33:36	167957	5.0.10.0	5_exp_noRW	86	Rpleas_acq	CS_B	MQQM	JXXJ	YDDY	BZZB	GWWG	VKKV	retten	spielen	ehrlich	fair	schön	treu	rächen	strafen	eitel	faul	schlecht	tot	47pct	acq_USunple_CSunple1_noRW	acq1_noRW	1	50	0	0	300	300	465	46	0	1	1	blank2r.bmp	0	1	+	0	1	blank2r.bmp	252	1	YDDY	306	1	rächen	559	0	0	0	0	0	0	0	0	0	0	0	0	0	0	0	0	0	0	0	0	0	0	0	0	0	0	0	0	0	0	0	0	0	0	0	0	0	0	0
072419	16:30:48	16:33:38	169676	5.0.10.0	5_exp_noRW	86	Rpleas_acq	CS_B	MQQM	JXXJ	YDDY	BZZB	GWWG	VKKV	retten	spielen	ehrlich	fair	schön	treu	rächen	strafen	eitel	faul	schlecht	tot	53pct	acq_USpleas_CSpleas2_noRW	acq1_noRW	1	51	0	0	300	300	557	50	0	1	1	blank2r.bmp	0	1	+	0	1	blank2r.bmp	252	1	JXXJ	306	2	schön	559	0	0	0	0	0	0	0	0	0	0	0	0	0	0	0	0	0	0	0	0	0	0	0	0	0	0	0	0	0	0	0	0	0	0	0	0	0	0	0
072419	16:30:48	16:33:40	171529	5.0.10.0	5_exp_noRW	86	Rpleas_acq	CS_B	MQQM	JXXJ	YDDY	BZZB	GWWG	VKKV	retten	spielen	ehrlich	fair	schön	treu	rächen	strafen	eitel	faul	schlecht	tot	47pct	acq_USunple_CSpleas2_noRW	acq1_noRW	1	52	0	0	300	300	677	46	0	1	1	blank2r.bmp	0	1	+	0	1	blank2r.bmp	252	1	JXXJ	306	1	faul	559	0	0	0	0	0	0	0	0	0	0	0	0	0	0	0	0	0	0	0	0	0	0	0	0	0	0	0	0	0	0	0	0	0	0	0	0	0	0	0
072419	16:30:48	16:33:42	173342	5.0.10.0	5_exp_noRW	86	Rpleas_acq	CS_B	MQQM	JXXJ	YDDY	BZZB	GWWG	VKKV	retten	spielen	ehrlich	fair	schön	treu	rächen	strafen	eitel	faul	schlecht	tot	47pct	acq_USpleas_CSpleas1_noRW	acq1_noRW	1	53	0	0	300	300	633	50	0	1	1	blank2r.bmp	0	1	+	0	1	blank2r.bmp	252	1	MQQM	306	1	retten	559	0	0	0	0	0	0	0	0	0	0	0	0	0	0	0	0	0	0	0	0	0	0	0	0	0	0	0	0	0	0	0	0	0	0	0	0	0	0	0
072419	16:30:48	16:33:44	175461	5.0.10.0	5_exp_noRW	86	Rpleas_acq	CS_B	MQQM	JXXJ	YDDY	BZZB	GWWG	VKKV	retten	spielen	ehrlich	fair	schön	treu	rächen	strafen	eitel	faul	schlecht	tot	53pct	acq_USpleas_CSpleas2_noRW	acq1_noRW	1	54	0	0	300	300	943	50	0	1	1	blank2r.bmp	0	1	+	0	1	blank2r.bmp	252	1	JXXJ	306	1	fair	559	0	0	0	0	0	0	0	0	0	0	0	0	0	0	0	0	0	0	0	0	0	0	0	0	0	0	0	0	0	0	0	0	0	0	0	0	0	0	0
072419	16:30:48	16:33:46	177287	5.0.10.0	5_exp_noRW	86	Rpleas_acq	CS_B	MQQM	JXXJ	YDDY	BZZB	GWWG	VKKV	retten	spielen	ehrlich	fair	schön	treu	rächen	strafen	eitel	faul	schlecht	tot	53pct	acq_USunple_CSunple2_noRW	acq1_noRW	1	55	0	0	300	300	643	46	0	1	1	blank2r.bmp	0	1	+	0	1	blank2r.bmp	252	1	BZZB	306	2	schlecht	559	0	0	0	0	0	0	0	0	0	0	0	0	0	0	0	0	0	0	0	0	0	0	0	0	0	0	0	0	0	0	0	0	0	0	0	0	0	0	0
072419	16:30:48	16:33:47	179019	5.0.10.0	5_exp_noRW	86	Rpleas_acq	CS_B	MQQM	JXXJ	YDDY	BZZB	GWWG	VKKV	retten	spielen	ehrlich	fair	schön	treu	rächen	strafen	eitel	faul	schlecht	tot	53pct	acq_USunple_CSunple1_noRW	acq1_noRW	1	56	0	0	300	300	560	46	0	1	1	blank2r.bmp	0	1	+	0	1	blank2r.bmp	252	1	YDDY	306	3	eitel	559	0	0	0	0	0	0	0	0	0	0	0	0	0	0	0	0	0	0	0	0	0	0	0	0	0	0	0	0	0	0	0	0	0	0	0	0	0	0	0
072419	16:30:48	16:33:49	180712	5.0.10.0	5_exp_noRW	86	Rpleas_acq	CS_B	MQQM	JXXJ	YDDY	BZZB	GWWG	VKKV	retten	spielen	ehrlich	fair	schön	treu	rächen	strafen	eitel	faul	schlecht	tot	47pct	acq_USunple_CSunple1_noRW	acq1_noRW	1	57	0	0	300	300	529	46	0	1	1	blank2r.bmp	0	1	+	0	1	blank2r.bmp	252	1	YDDY	306	2	strafen	559	0	0	0	0	0	0	0	0	0	0	0	0	0	0	0	0	0	0	0	0	0	0	0	0	0	0	0	0	0	0	0	0	0	0	0	0	0	0	0
072419	16:30:48	16:33:51	182325	5.0.10.0	5_exp_noRW	86	Rpleas_acq	CS_B	MQQM	JXXJ	YDDY	BZZB	GWWG	VKKV	retten	spielen	ehrlich	fair	schön	treu	rächen	strafen	eitel	faul	schlecht	tot	53pct	acq_USpleas_CSunple2_noRW	acq1_noRW	1	58	0	0	300	300	438	50	0	1	1	blank2r.bmp	0	1	+	0	1	blank2r.bmp	252	1	BZZB	306	2	schön	559	0	0	0	0	0	0	0	0	0	0	0	0	0	0	0	0	0	0	0	0	0	0	0	0	0	0	0	0	0	0	0	0	0	0	0	0	0	0	0
072419	16:30:48	16:33:53	184057	5.0.10.0	5_exp_noRW	86	Rpleas_acq	CS_B	MQQM	JXXJ	YDDY	BZZB	GWWG	VKKV	retten	spielen	ehrlich	fair	schön	treu	rächen	strafen	eitel	faul	schlecht	tot	53pct	acq_USpleas_CSpleas2_noRW	acq1_noRW	1	59	0	0	300	300	546	50	0	1	1	blank2r.bmp	0	1	+	0	1	blank2r.bmp	252	1	JXXJ	306	3	treu	559	0	0	0	0	0	0	0	0	0	0	0	0	0	0	0	0	0	0	0	0	0	0	0	0	0	0	0	0	0	0	0	0	0	0	0	0	0	0	0
072419	16:30:48	16:33:54	185803	5.0.10.0	5_exp_noRW	86	Rpleas_acq	CS_B	MQQM	JXXJ	YDDY	BZZB	GWWG	VKKV	retten	spielen	ehrlich	fair	schön	treu	rächen	strafen	eitel	faul	schlecht	tot	53pct	acq_USunple_CSpleas1_noRW	acq1_noRW	1	60	0	0	300	300	574	46	0	1	1	blank2r.bmp	0	1	+	0	1	blank2r.bmp	252	1	MQQM	306	2	strafen	559	0	0	0	0	0	0	0	0	0	0	0	0	0	0	0	0	0	0	0	0	0	0	0	0	0	0	0	0	0	0	0	0	0	0	0	0	0	0	0
072419	16:30:48	16:33:56	187856	5.0.10.0	5_exp_noRW	86	Rpleas_acq	CS_B	MQQM	JXXJ	YDDY	BZZB	GWWG	VKKV	retten	spielen	ehrlich	fair	schön	treu	rächen	strafen	eitel	faul	schlecht	tot	47pct	acq_USunple_CSunple1_noRW	acq1_noRW	1	61	0	0	300	300	885	46	0	1	1	blank2r.bmp	0	1	+	0	1	blank2r.bmp	252	1	YDDY	306	3	eitel	559	0	0	0	0	0	0	0	0	0	0	0	0	0	0	0	0	0	0	0	0	0	0	0	0	0	0	0	0	0	0	0	0	0	0	0	0	0	0	0
072419	16:30:48	16:33:58	189548	5.0.10.0	5_exp_noRW	86	Rpleas_acq	CS_B	MQQM	JXXJ	YDDY	BZZB	GWWG	VKKV	retten	spielen	ehrlich	fair	schön	treu	rächen	strafen	eitel	faul	schlecht	tot	47pct	acq_USpleas_CSpleas2_noRW	acq1_noRW	1	62	0	0	300	300	516	50	0	1	1	blank2r.bmp	0	1	+	0	1	blank2r.bmp	252	1	JXXJ	306	2	schön	559	0	0	0	0	0	0	0	0	0	0	0	0	0	0	0	0	0	0	0	0	0	0	0	0	0	0	0	0	0	0	0	0	0	0	0	0	0	0	0
072419	16:30:48	16:34:00	191388	5.0.10.0	5_exp_noRW	86	Rpleas_acq	CS_B	MQQM	JXXJ	YDDY	BZZB	GWWG	VKKV	retten	spielen	ehrlich	fair	schön	treu	rächen	strafen	eitel	faul	schlecht	tot	53pct	acq_USpleas_CSpleas2_noRW	acq1_noRW	1	63	0	0	300	300	657	50	0	1	1	blank2r.bmp	0	1	+	0	1	blank2r.bmp	252	1	JXXJ	306	1	fair	559	0	0	0	0	0	0	0	0	0	0	0	0	0	0	0	0	0	0	0	0	0	0	0	0	0	0	0	0	0	0	0	0	0	0	0	0	0	0	0
072419	16:30:48	16:34:02	193120	5.0.10.0	5_exp_noRW	86	Rpleas_acq	CS_B	MQQM	JXXJ	YDDY	BZZB	GWWG	VKKV	retten	spielen	ehrlich	fair	schön	treu	rächen	strafen	eitel	faul	schlecht	tot	53pct	acq_USunple_CSpleas2_noRW	acq1_noRW	1	64	0	0	300	300	568	46	0	1	1	blank2r.bmp	0	1	+	0	1	blank2r.bmp	252	1	JXXJ	306	2	schlecht	559	0	0	0	0	0	0	0	0	0	0	0	0	0	0	0	0	0	0	0	0	0	0	0	0	0	0	0	0	0	0	0	0	0	0	0	0	0	0	0
072419	16:30:48	16:34:03	194946	5.0.10.0	5_exp_noRW	86	Rpleas_acq	CS_B	MQQM	JXXJ	YDDY	BZZB	GWWG	VKKV	retten	spielen	ehrlich	fair	schön	treu	rächen	strafen	eitel	faul	schlecht	tot	53pct	acq_USpleas_CSpleas1_noRW	acq1_noRW	1	65	0	0	300	300	644	50	0	1	1	blank2r.bmp	0	1	+	0	1	blank2r.bmp	252	1	MQQM	306	1	retten	559	0	0	0	0	0	0	0	0	0	0	0	0	0	0	0	0	0	0	0	0	0	0	0	0	0	0	0	0	0	0	0	0	0	0	0	0	0	0	0
072419	16:30:48	16:34:05	196692	5.0.10.0	5_exp_noRW	86	Rpleas_acq	CS_B	MQQM	JXXJ	YDDY	BZZB	GWWG	VKKV	retten	spielen	ehrlich	fair	schön	treu	rächen	strafen	eitel	faul	schlecht	tot	53pct	acq_USpleas_CSpleas2_noRW	acq1_noRW	1	66	0	0	300	300	580	50	0	1	1	blank2r.bmp	0	1	+	0	1	blank2r.bmp	252	1	JXXJ	306	3	treu	559	0	0	0	0	0	0	0	0	0	0	0	0	0	0	0	0	0	0	0	0	0	0	0	0	0	0	0	0	0	0	0	0	0	0	0	0	0	0	0
072419	16:30:48	16:34:07	198331	5.0.10.0	5_exp_noRW	86	Rpleas_acq	CS_B	MQQM	JXXJ	YDDY	BZZB	GWWG	VKKV	retten	spielen	ehrlich	fair	schön	treu	rächen	strafen	eitel	faul	schlecht	tot	47pct	acq_USpleas_CSpleas1_noRW	acq1_noRW	1	67	0	0	300	300	473	50	0	1	1	blank2r.bmp	0	1	+	0	1	blank2r.bmp	252	1	MQQM	306	2	spielen	559	0	0	0	0	0	0	0	0	0	0	0	0	0	0	0	0	0	0	0	0	0	0	0	0	0	0	0	0	0	0	0	0	0	0	0	0	0	0	0
072419	16:30:48	16:34:09	200144	5.0.10.0	5_exp_noRW	86	Rpleas_acq	CS_B	MQQM	JXXJ	YDDY	BZZB	GWWG	VKKV	retten	spielen	ehrlich	fair	schön	treu	rächen	strafen	eitel	faul	schlecht	tot	47pct	acq_USunple_CSunple1_noRW	acq1_noRW	1	68	0	0	300	300	644	46	0	1	1	blank2r.bmp	0	1	+	0	1	blank2r.bmp	252	1	YDDY	306	1	rächen	559	0	0	0	0	0	0	0	0	0	0	0	0	0	0	0	0	0	0	0	0	0	0	0	0	0	0	0	0	0	0	0	0	0	0	0	0	0	0	0
072419	16:30:48	16:34:10	201890	5.0.10.0	5_exp_noRW	86	Rpleas_acq	CS_B	MQQM	JXXJ	YDDY	BZZB	GWWG	VKKV	retten	spielen	ehrlich	fair	schön	treu	rächen	strafen	eitel	faul	schlecht	tot	47pct	acq_USunple_CSunple2_noRW	acq1_noRW	1	69	0	0	300	300	561	46	0	1	1	blank2r.bmp	0	1	+	0	1	blank2r.bmp	252	1	BZZB	306	1	faul	559	0	0	0	0	0	0	0	0	0	0	0	0	0	0	0	0	0	0	0	0	0	0	0	0	0	0	0	0	0	0	0	0	0	0	0	0	0	0	0
072419	16:30:48	16:34:12	203716	5.0.10.0	5_exp_noRW	86	Rpleas_acq	CS_B	MQQM	JXXJ	YDDY	BZZB	GWWG	VKKV	retten	spielen	ehrlich	fair	schön	treu	rächen	strafen	eitel	faul	schlecht	tot	47pct	acq_USunple_CSunple1_noRW	acq1_noRW	1	70	0	0	300	300	656	46	0	1	1	blank2r.bmp	0	1	+	0	1	blank2r.bmp	252	1	YDDY	306	2	strafen	559	0	0	0	0	0	0	0	0	0	0	0	0	0	0	0	0	0	0	0	0	0	0	0	0	0	0	0	0	0	0	0	0	0	0	0	0	0	0	0
072419	16:30:48	16:34:14	205582	5.0.10.0	5_exp_noRW	86	Rpleas_acq	CS_B	MQQM	JXXJ	YDDY	BZZB	GWWG	VKKV	retten	spielen	ehrlich	fair	schön	treu	rächen	strafen	eitel	faul	schlecht	tot	53pct	acq_USpleas_CSpleas2_noRW	acq1_noRW	1	71	0	0	300	300	702	50	0	1	1	blank2r.bmp	0	1	+	0	1	blank2r.bmp	252	1	JXXJ	306	3	treu	559	0	0	0	0	0	0	0	0	0	0	0	0	0	0	0	0	0	0	0	0	0	0	0	0	0	0	0	0	0	0	0	0	0	0	0	0	0	0	0
072419	16:30:48	16:34:16	207341	5.0.10.0	5_exp_noRW	86	Rpleas_acq	CS_B	MQQM	JXXJ	YDDY	BZZB	GWWG	VKKV	retten	spielen	ehrlich	fair	schön	treu	rächen	strafen	eitel	faul	schlecht	tot	47pct	acq_USpleas_CSpleas1_noRW	acq1_noRW	1	72	0	0	300	300	591	50	0	1	1	blank2r.bmp	0	1	+	0	1	blank2r.bmp	252	1	MQQM	306	3	ehrlich	559	0	0	0	0	0	0	0	0	0	0	0	0	0	0	0	0	0	0	0	0	0	0	0	0	0	0	0	0	0	0	0	0	0	0	0	0	0	0	0
072419	16:30:48	16:34:17	209007	5.0.10.0	5_exp_noRW	86	Rpleas_acq	CS_B	MQQM	JXXJ	YDDY	BZZB	GWWG	VKKV	retten	spielen	ehrlich	fair	schön	treu	rächen	strafen	eitel	faul	schlecht	tot	53pct	acq_USunple_CSunple2_noRW	acq1_noRW	1	73	0	0	300	300	487	46	0	1	1	blank2r.bmp	0	1	+	0	1	blank2r.bmp	252	1	BZZB	306	3	tot	559	0	0	0	0	0	0	0	0	0	0	0	0	0	0	0	0	0	0	0	0	0	0	0	0	0	0	0	0	0	0	0	0	0	0	0	0	0	0	0
072419	16:30:48	16:34:19	210673	5.0.10.0	5_exp_noRW	86	Rpleas_acq	CS_B	MQQM	JXXJ	YDDY	BZZB	GWWG	VKKV	retten	spielen	ehrlich	fair	schön	treu	rächen	strafen	eitel	faul	schlecht	tot	53pct	acq_USunple_CSpleas1_noRW	acq1_noRW	1	74	0	0	300	300	481	46	0	1	1	blank2r.bmp	0	1	+	0	1	blank2r.bmp	252	1	MQQM	306	1	rächen	559	0	0	0	0	0	0	0	0	0	0	0	0	0	0	0	0	0	0	0	0	0	0	0	0	0	0	0	0	0	0	0	0	0	0	0	0	0	0	0
072419	16:30:48	16:34:21	212725	5.0.10.0	5_exp_noRW	86	Rpleas_acq	CS_B	MQQM	JXXJ	YDDY	BZZB	GWWG	VKKV	retten	spielen	ehrlich	fair	schön	treu	rächen	strafen	eitel	faul	schlecht	tot	53pct	acq_USunple_CSunple2_noRW	acq1_noRW	1	75	0	0	300	300	890	46	0	1	1	blank2r.bmp	0	1	+	0	1	blank2r.bmp	252	1	BZZB	306	2	schlecht	559	0	0	0	0	0	0	0	0	0	0	0	0	0	0	0	0	0	0	0	0	0	0	0	0	0	0	0	0	0	0	0	0	0	0	0	0	0	0	0
072419	16:30:48	16:34:23	214458	5.0.10.0	5_exp_noRW	86	Rpleas_acq	CS_B	MQQM	JXXJ	YDDY	BZZB	GWWG	VKKV	retten	spielen	ehrlich	fair	schön	treu	rächen	strafen	eitel	faul	schlecht	tot	47pct	acq_USunple_CSunple1_noRW	acq1_noRW	1	76	0	0	300	300	561	46	0	1	1	blank2r.bmp	0	1	+	0	1	blank2r.bmp	252	1	YDDY	306	3	eitel	559	0	0	0	0	0	0	0	0	0	0	0	0	0	0	0	0	0	0	0	0	0	0	0	0	0	0	0	0	0	0	0	0	0	0	0	0	0	0	0
072419	16:30:48	16:34:25	216217	5.0.10.0	5_exp_noRW	86	Rpleas_acq	CS_B	MQQM	JXXJ	YDDY	BZZB	GWWG	VKKV	retten	spielen	ehrlich	fair	schön	treu	rächen	strafen	eitel	faul	schlecht	tot	53pct	acq_USpleas_CSunple1_noRW	acq1_noRW	1	77	0	0	300	300	594	50	0	1	1	blank2r.bmp	0	1	+	0	1	blank2r.bmp	252	1	YDDY	306	3	ehrlich	559	0	0	0	0	0	0	0	0	0	0	0	0	0	0	0	0	0	0	0	0	0	0	0	0	0	0	0	0	0	0	0	0	0	0	0	0	0	0	0
072419	16:30:48	16:34:26	217843	5.0.10.0	5_exp_noRW	86	Rpleas_acq	CS_B	MQQM	JXXJ	YDDY	BZZB	GWWG	VKKV	retten	spielen	ehrlich	fair	schön	treu	rächen	strafen	eitel	faul	schlecht	tot	53pct	acq_USpleas_CSpleas1_noRW	acq1_noRW	1	78	0	0	300	300	446	50	0	1	1	blank2r.bmp	0	1	+	0	1	blank2r.bmp	252	1	MQQM	306	2	spielen	559	0	0	0	0	0	0	0	0	0	0	0	0	0	0	0	0	0	0	0	0	0	0	0	0	0	0	0	0	0	0	0	0	0	0	0	0	0	0	0
072419	16:30:48	16:34:28	219683	5.0.10.0	5_exp_noRW	86	Rpleas_acq	CS_B	MQQM	JXXJ	YDDY	BZZB	GWWG	VKKV	retten	spielen	ehrlich	fair	schön	treu	rächen	strafen	eitel	faul	schlecht	tot	47pct	acq_USunple_CSunple2_noRW	acq1_noRW	1	79	0	0	300	300	666	46	0	1	1	blank2r.bmp	0	1	+	0	1	blank2r.bmp	252	1	BZZB	306	1	faul	559	0	0	0	0	0	0	0	0	0	0	0	0	0	0	0	0	0	0	0	0	0	0	0	0	0	0	0	0	0	0	0	0	0	0	0	0	0	0	0
072419	16:30:48	16:34:30	221469	5.0.10.0	5_exp_noRW	86	Rpleas_acq	CS_B	MQQM	JXXJ	YDDY	BZZB	GWWG	VKKV	retten	spielen	ehrlich	fair	schön	treu	rächen	strafen	eitel	faul	schlecht	tot	53pct	acq_USpleas_CSunple2_noRW	acq1_noRW	1	80	0	0	300	300	607	50	0	1	1	blank2r.bmp	0	1	+	0	1	blank2r.bmp	252	1	BZZB	306	1	fair	559	0	0	0	0	0	0	0	0	0	0	0	0	0	0	0	0	0	0	0	0	0	0	0	0	0	0	0	0	0	0	0	0	0	0	0	0	0	0	0
072419	16:30:48	16:35:01	252522	5.0.10.0	5_exp_noRW	86	Rpleas_acq	CS_B	MQQM	JXXJ	YDDY	BZZB	GWWG	VKKV	retten	spielen	ehrlich	fair	schön	treu	rächen	strafen	eitel	faul	schlecht	tot	47pct	acq_USpleas_CSpleas1_noRW	acq23456_noRW	2	1	0	0	300	300	629	50	0	1	1	blank2r.bmp	0	1	+	0	1	blank2r.bmp	252	1	MQQM	306	3	ehrlich	559	0	0	0	0	0	0	0	0	0	0	0	0	0	0	0	0	0	0	0	0	0	0	0	0	0	0	0	0	0	0	0	0	0	0	0	0	0	0	0
072419	16:30:48	16:35:03	254109	5.0.10.0	5_exp_noRW	86	Rpleas_acq	CS_B	MQQM	JXXJ	YDDY	BZZB	GWWG	VKKV	retten	spielen	ehrlich	fair	schön	treu	rächen	strafen	eitel	faul	schlecht	tot	47pct	acq_USpleas_CSpleas2_noRW	acq23456_noRW	2	2	0	0	300	300	411	50	0	1	1	blank2r.bmp	0	1	+	0	1	blank2r.bmp	252	1	JXXJ	306	1	fair	559	0	0	0	0	0	0	0	0	0	0	0	0	0	0	0	0	0	0	0	0	0	0	0	0	0	0	0	0	0	0	0	0	0	0	0	0	0	0	0
072419	16:30:48	16:35:04	255748	5.0.10.0	5_exp_noRW	86	Rpleas_acq	CS_B	MQQM	JXXJ	YDDY	BZZB	GWWG	VKKV	retten	spielen	ehrlich	fair	schön	treu	rächen	strafen	eitel	faul	schlecht	tot	53pct	acq_USunple_CSunple1_noRW	acq23456_noRW	2	3	0	0	300	300	465	46	0	1	1	blank2r.bmp	0	1	+	0	1	blank2r.bmp	252	1	YDDY	306	1	rächen	559	0	0	0	0	0	0	0	0	0	0	0	0	0	0	0	0	0	0	0	0	0	0	0	0	0	0	0	0	0	0	0	0	0	0	0	0	0	0	0
072419	16:30:48	16:35:07	258227	5.0.10.0	5_exp_noRW	86	Rpleas_acq	CS_B	MQQM	JXXJ	YDDY	BZZB	GWWG	VKKV	retten	spielen	ehrlich	fair	schön	treu	rächen	strafen	eitel	faul	schlecht	tot	53pct	acq_USpleas_CSpleas2_noRW	acq23456_noRW	2	4	0	0	300	300	1326	50	0	1	1	blank2r.bmp	0	1	+	0	1	blank2r.bmp	252	1	JXXJ	306	2	schön	559	0	0	0	0	0	0	0	0	0	0	0	0	0	0	0	0	0	0	0	0	0	0	0	0	0	0	0	0	0	0	0	0	0	0	0	0	0	0	0
072419	16:30:48	16:35:09	260133	5.0.10.0	5_exp_noRW	86	Rpleas_acq	CS_B	MQQM	JXXJ	YDDY	BZZB	GWWG	VKKV	retten	spielen	ehrlich	fair	schön	treu	rächen	strafen	eitel	faul	schlecht	tot	47pct	acq_USunple_CSunple1_noRW	acq23456_noRW	2	5	0	0	300	300	723	46	0	1	1	blank2r.bmp	0	1	+	0	1	blank2r.bmp	252	1	YDDY	306	2	strafen	559	0	0	0	0	0	0	0	0	0	0	0	0	0	0	0	0	0	0	0	0	0	0	0	0	0	0	0	0	0	0	0	0	0	0	0	0	0	0	0
072419	16:30:48	16:35:11	262185	5.0.10.0	5_exp_noRW	86	Rpleas_acq	CS_B	MQQM	JXXJ	YDDY	BZZB	GWWG	VKKV	retten	spielen	ehrlich	fair	schön	treu	rächen	strafen	eitel	faul	schlecht	tot	53pct	acq_USpleas_CSpleas2_noRW	acq23456_noRW	2	6	0	0	300	300	865	50	0	1	1	blank2r.bmp	0	1	+	0	1	blank2r.bmp	252	1	JXXJ	306	3	treu	559	0	0	0	0	0	0	0	0	0	0	0	0	0	0	0	0	0	0	0	0	0	0	0	0	0	0	0	0	0	0	0	0	0	0	0	0	0	0	0
072419	16:30:48	16:35:12	263904	5.0.10.0	5_exp_noRW	86	Rpleas_acq	CS_B	MQQM	JXXJ	YDDY	BZZB	GWWG	VKKV	retten	spielen	ehrlich	fair	schön	treu	rächen	strafen	eitel	faul	schlecht	tot	53pct	acq_USpleas_CSpleas1_noRW	acq23456_noRW	2	7	0	0	300	300	551	50	0	1	1	blank2r.bmp	0	1	+	0	1	blank2r.bmp	252	1	MQQM	306	1	retten	559	0	0	0	0	0	0	0	0	0	0	0	0	0	0	0	0	0	0	0	0	0	0	0	0	0	0	0	0	0	0	0	0	0	0	0	0	0	0	0
072419	16:30:48	16:35:14	265570	5.0.10.0	5_exp_noRW	86	Rpleas_acq	CS_B	MQQM	JXXJ	YDDY	BZZB	GWWG	VKKV	retten	spielen	ehrlich	fair	schön	treu	rächen	strafen	eitel	faul	schlecht	tot	47pct	acq_USunple_CSunple2_noRW	acq23456_noRW	2	8	0	0	300	300	490	46	0	1	1	blank2r.bmp	0	1	+	0	1	blank2r.bmp	252	1	BZZB	306	3	tot	559	0	0	0	0	0	0	0	0	0	0	0	0	0	0	0	0	0	0	0	0	0	0	0	0	0	0	0	0	0	0	0	0	0	0	0	0	0	0	0
072419	16:30:48	16:35:16	267583	5.0.10.0	5_exp_noRW	86	Rpleas_acq	CS_B	MQQM	JXXJ	YDDY	BZZB	GWWG	VKKV	retten	spielen	ehrlich	fair	schön	treu	rächen	strafen	eitel	faul	schlecht	tot	53pct	acq_USpleas_CSpleas1_noRW	acq23456_noRW	2	9	0	0	300	300	837	50	0	1	1	blank2r.bmp	0	1	+	0	1	blank2r.bmp	252	1	MQQM	306	1	retten	559	0	0	0	0	0	0	0	0	0	0	0	0	0	0	0	0	0	0	0	0	0	0	0	0	0	0	0	0	0	0	0	0	0	0	0	0	0	0	0
072419	16:30:48	16:35:18	269222	5.0.10.0	5_exp_noRW	86	Rpleas_acq	CS_B	MQQM	JXXJ	YDDY	BZZB	GWWG	VKKV	retten	spielen	ehrlich	fair	schön	treu	rächen	strafen	eitel	faul	schlecht	tot	47pct	acq_USpleas_CSunple1_noRW	acq23456_noRW	2	10	0	0	300	300	459	50	0	1	1	blank2r.bmp	0	1	+	0	1	blank2r.bmp	252	1	YDDY	306	1	retten	559	0	0	0	0	0	0	0	0	0	0	0	0	0	0	0	0	0	0	0	0	0	0	0	0	0	0	0	0	0	0	0	0	0	0	0	0	0	0	0
072419	16:30:48	16:35:20	271075	5.0.10.0	5_exp_noRW	86	Rpleas_acq	CS_B	MQQM	JXXJ	YDDY	BZZB	GWWG	VKKV	retten	spielen	ehrlich	fair	schön	treu	rächen	strafen	eitel	faul	schlecht	tot	47pct	acq_USunple_CSpleas2_noRW	acq23456_noRW	2	11	0	0	300	300	666	46	0	1	1	blank2r.bmp	0	1	+	0	1	blank2r.bmp	252	1	JXXJ	306	1	faul	559	0	0	0	0	0	0	0	0	0	0	0	0	0	0	0	0	0	0	0	0	0	0	0	0	0	0	0	0	0	0	0	0	0	0	0	0	0	0	0
072419	16:30:48	16:35:21	272714	5.0.10.0	5_exp_noRW	86	Rpleas_acq	CS_B	MQQM	JXXJ	YDDY	BZZB	GWWG	VKKV	retten	spielen	ehrlich	fair	schön	treu	rächen	strafen	eitel	faul	schlecht	tot	53pct	acq_USunple_CSunple2_noRW	acq23456_noRW	2	12	0	0	300	300	469	46	0	1	1	blank2r.bmp	0	1	+	0	1	blank2r.bmp	252	1	BZZB	306	2	schlecht	559	0	0	0	0	0	0	0	0	0	0	0	0	0	0	0	0	0	0	0	0	0	0	0	0	0	0	0	0	0	0	0	0	0	0	0	0	0	0	0
072419	16:30:48	16:35:23	274620	5.0.10.0	5_exp_noRW	86	Rpleas_acq	CS_B	MQQM	JXXJ	YDDY	BZZB	GWWG	VKKV	retten	spielen	ehrlich	fair	schön	treu	rächen	strafen	eitel	faul	schlecht	tot	47pct	acq_USunple_CSunple1_noRW	acq23456_noRW	2	13	0	0	300	300	740	46	0	1	1	blank2r.bmp	0	1	+	0	1	blank2r.bmp	252	1	YDDY	306	1	rächen	559	0	0	0	0	0	0	0	0	0	0	0	0	0	0	0	0	0	0	0	0	0	0	0	0	0	0	0	0	0	0	0	0	0	0	0	0	0	0	0
072419	16:30:48	16:35:25	276539	5.0.10.0	5_exp_noRW	86	Rpleas_acq	CS_B	MQQM	JXXJ	YDDY	BZZB	GWWG	VKKV	retten	spielen	ehrlich	fair	schön	treu	rächen	strafen	eitel	faul	schlecht	tot	53pct	acq_USpleas_CSpleas2_noRW	acq23456_noRW	2	14	0	0	300	300	742	50	0	1	1	blank2r.bmp	0	1	+	0	1	blank2r.bmp	252	1	JXXJ	306	2	schön	559	0	0	0	0	0	0	0	0	0	0	0	0	0	0	0	0	0	0	0	0	0	0	0	0	0	0	0	0	0	0	0	0	0	0	0	0	0	0	0
072419	16:30:48	16:35:27	278325	5.0.10.0	5_exp_noRW	86	Rpleas_acq	CS_B	MQQM	JXXJ	YDDY	BZZB	GWWG	VKKV	retten	spielen	ehrlich	fair	schön	treu	rächen	strafen	eitel	faul	schlecht	tot	53pct	acq_USunple_CSpleas1_noRW	acq23456_noRW	2	15	0	0	300	300	603	46	0	1	1	blank2r.bmp	0	1	+	0	1	blank2r.bmp	252	1	MQQM	306	2	strafen	559	0	0	0	0	0	0	0	0	0	0	0	0	0	0	0	0	0	0	0	0	0	0	0	0	0	0	0	0	0	0	0	0	0	0	0	0	0	0	0
072419	16:30:48	16:35:29	280098	5.0.10.0	5_exp_noRW	86	Rpleas_acq	CS_B	MQQM	JXXJ	YDDY	BZZB	GWWG	VKKV	retten	spielen	ehrlich	fair	schön	treu	rächen	strafen	eitel	faul	schlecht	tot	53pct	acq_USunple_CSunple2_noRW	acq23456_noRW	2	16	0	0	300	300	609	46	0	1	1	blank2r.bmp	0	1	+	0	1	blank2r.bmp	252	1	BZZB	306	2	schlecht	559	0	0	0	0	0	0	0	0	0	0	0	0	0	0	0	0	0	0	0	0	0	0	0	0	0	0	0	0	0	0	0	0	0	0	0	0	0	0	0
072419	16:30:48	16:35:30	281764	5.0.10.0	5_exp_noRW	86	Rpleas_acq	CS_B	MQQM	JXXJ	YDDY	BZZB	GWWG	VKKV	retten	spielen	ehrlich	fair	schön	treu	rächen	strafen	eitel	faul	schlecht	tot	47pct	acq_USpleas_CSunple2_noRW	acq23456_noRW	2	17	0	0	300	300	490	50	0	1	1	blank2r.bmp	0	1	+	0	1	blank2r.bmp	252	1	BZZB	306	2	schön	559	0	0	0	0	0	0	0	0	0	0	0	0	0	0	0	0	0	0	0	0	0	0	0	0	0	0	0	0	0	0	0	0	0	0	0	0	0	0	0
072419	16:30:48	16:35:32	283483	5.0.10.0	5_exp_noRW	86	Rpleas_acq	CS_B	MQQM	JXXJ	YDDY	BZZB	GWWG	VKKV	retten	spielen	ehrlich	fair	schön	treu	rächen	strafen	eitel	faul	schlecht	tot	53pct	acq_USpleas_CSpleas1_noRW	acq23456_noRW	2	18	0	0	300	300	544	50	0	1	1	blank2r.bmp	0	1	+	0	1	blank2r.bmp	252	1	MQQM	306	2	spielen	559	0	0	0	0	0	0	0	0	0	0	0	0	0	0	0	0	0	0	0	0	0	0	0	0	0	0	0	0	0	0	0	0	0	0	0	0	0	0	0
072419	16:30:48	16:35:34	285309	5.0.10.0	5_exp_noRW	86	Rpleas_acq	CS_B	MQQM	JXXJ	YDDY	BZZB	GWWG	VKKV	retten	spielen	ehrlich	fair	schön	treu	rächen	strafen	eitel	faul	schlecht	tot	47pct	acq_USunple_CSunple2_noRW	acq23456_noRW	2	19	0	0	300	300	649	46	0	1	1	blank2r.bmp	0	1	+	0	1	blank2r.bmp	252	1	BZZB	306	1	faul	559	0	0	0	0	0	0	0	0	0	0	0	0	0	0	0	0	0	0	0	0	0	0	0	0	0	0	0	0	0	0	0	0	0	0	0	0	0	0	0
072419	16:30:48	16:35:35	287028	5.0.10.0	5_exp_noRW	86	Rpleas_acq	CS_B	MQQM	JXXJ	YDDY	BZZB	GWWG	VKKV	retten	spielen	ehrlich	fair	schön	treu	rächen	strafen	eitel	faul	schlecht	tot	47pct	acq_USunple_CSunple1_noRW	acq23456_noRW	2	20	0	0	300	300	543	46	0	1	1	blank2r.bmp	0	1	+	0	1	blank2r.bmp	252	1	YDDY	306	2	strafen	559	0	0	0	0	0	0	0	0	0	0	0	0	0	0	0	0	0	0	0	0	0	0	0	0	0	0	0	0	0	0	0	0	0	0	0	0	0	0	0
072419	16:30:48	16:35:37	288734	5.0.10.0	5_exp_noRW	86	Rpleas_acq	CS_B	MQQM	JXXJ	YDDY	BZZB	GWWG	VKKV	retten	spielen	ehrlich	fair	schön	treu	rächen	strafen	eitel	faul	schlecht	tot	53pct	acq_USunple_CSunple1_noRW	acq23456_noRW	2	21	0	0	300	300	534	46	0	1	1	blank2r.bmp	0	1	+	0	1	blank2r.bmp	252	1	YDDY	306	3	eitel	559	0	0	0	0	0	0	0	0	0	0	0	0	0	0	0	0	0	0	0	0	0	0	0	0	0	0	0	0	0	0	0	0	0	0	0	0	0	0	0
072419	16:30:48	16:35:39	290640	5.0.10.0	5_exp_noRW	86	Rpleas_acq	CS_B	MQQM	JXXJ	YDDY	BZZB	GWWG	VKKV	retten	spielen	ehrlich	fair	schön	treu	rächen	strafen	eitel	faul	schlecht	tot	47pct	acq_USpleas_CSpleas2_noRW	acq23456_noRW	2	22	0	0	300	300	732	50	0	1	1	blank2r.bmp	0	1	+	0	1	blank2r.bmp	252	1	JXXJ	306	1	fair	559	0	0	0	0	0	0	0	0	0	0	0	0	0	0	0	0	0	0	0	0	0	0	0	0	0	0	0	0	0	0	0	0	0	0	0	0	0	0	0
072419	16:30:48	16:35:41	292533	5.0.10.0	5_exp_noRW	86	Rpleas_acq	CS_B	MQQM	JXXJ	YDDY	BZZB	GWWG	VKKV	retten	spielen	ehrlich	fair	schön	treu	rächen	strafen	eitel	faul	schlecht	tot	53pct	acq_USunple_CSunple1_noRW	acq23456_noRW	2	23	0	0	300	300	723	46	0	1	1	blank2r.bmp	0	1	+	0	1	blank2r.bmp	252	1	YDDY	306	2	strafen	559	0	0	0	0	0	0	0	0	0	0	0	0	0	0	0	0	0	0	0	0	0	0	0	0	0	0	0	0	0	0	0	0	0	0	0	0	0	0	0
072419	16:30:48	16:35:43	294745	5.0.10.0	5_exp_noRW	86	Rpleas_acq	CS_B	MQQM	JXXJ	YDDY	BZZB	GWWG	VKKV	retten	spielen	ehrlich	fair	schön	treu	rächen	strafen	eitel	faul	schlecht	tot	53pct	acq_USunple_CSunple2_noRW	acq23456_noRW	2	24	0	0	300	300	1025	46	0	1	1	blank2r.bmp	0	1	+	0	1	blank2r.bmp	252	1	BZZB	306	3	tot	559	0	0	0	0	0	0	0	0	0	0	0	0	0	0	0	0	0	0	0	0	0	0	0	0	0	0	0	0	0	0	0	0	0	0	0	0	0	0	0
072419	16:30:48	16:35:45	296345	5.0.10.0	5_exp_noRW	86	Rpleas_acq	CS_B	MQQM	JXXJ	YDDY	BZZB	GWWG	VKKV	retten	spielen	ehrlich	fair	schön	treu	rächen	strafen	eitel	faul	schlecht	tot	47pct	acq_USunple_CSpleas2_noRW	acq23456_noRW	2	25	0	0	300	300	425	46	0	1	1	blank2r.bmp	0	1	+	0	1	blank2r.bmp	252	1	JXXJ	306	3	tot	559	0	0	0	0	0	0	0	0	0	0	0	0	0	0	0	0	0	0	0	0	0	0	0	0	0	0	0	0	0	0	0	0	0	0	0	0	0	0	0
072419	16:30:48	16:35:47	298304	5.0.10.0	5_exp_noRW	86	Rpleas_acq	CS_B	MQQM	JXXJ	YDDY	BZZB	GWWG	VKKV	retten	spielen	ehrlich	fair	schön	treu	rächen	strafen	eitel	faul	schlecht	tot	47pct	acq_USpleas_CSpleas1_noRW	acq23456_noRW	2	26	0	0	300	300	789	50	0	1	1	blank2r.bmp	0	1	+	0	1	blank2r.bmp	252	1	MQQM	306	3	ehrlich	559	0	0	0	0	0	0	0	0	0	0	0	0	0	0	0	0	0	0	0	0	0	0	0	0	0	0	0	0	0	0	0	0	0	0	0	0	0	0	0
072419	16:30:48	16:35:48	299996	5.0.10.0	5_exp_noRW	86	Rpleas_acq	CS_B	MQQM	JXXJ	YDDY	BZZB	GWWG	VKKV	retten	spielen	ehrlich	fair	schön	treu	rächen	strafen	eitel	faul	schlecht	tot	53pct	acq_USunple_CSunple1_noRW	acq23456_noRW	2	27	0	0	300	300	507	46	0	1	1	blank2r.bmp	0	1	+	0	1	blank2r.bmp	252	1	YDDY	306	3	eitel	559	0	0	0	0	0	0	0	0	0	0	0	0	0	0	0	0	0	0	0	0	0	0	0	0	0	0	0	0	0	0	0	0	0	0	0	0	0	0	0
072419	16:30:48	16:35:50	301836	5.0.10.0	5_exp_noRW	86	Rpleas_acq	CS_B	MQQM	JXXJ	YDDY	BZZB	GWWG	VKKV	retten	spielen	ehrlich	fair	schön	treu	rächen	strafen	eitel	faul	schlecht	tot	53pct	acq_USpleas_CSpleas1_noRW	acq23456_noRW	2	28	0	0	300	300	678	50	0	1	1	blank2r.bmp	0	1	+	0	1	blank2r.bmp	252	1	MQQM	306	1	retten	559	0	0	0	0	0	0	0	0	0	0	0	0	0	0	0	0	0	0	0	0	0	0	0	0	0	0	0	0	0	0	0	0	0	0	0	0	0	0	0
072419	16:30:48	16:35:52	303622	5.0.10.0	5_exp_noRW	86	Rpleas_acq	CS_B	MQQM	JXXJ	YDDY	BZZB	GWWG	VKKV	retten	spielen	ehrlich	fair	schön	treu	rächen	strafen	eitel	faul	schlecht	tot	47pct	acq_USpleas_CSpleas1_noRW	acq23456_noRW	2	29	0	0	300	300	607	50	0	1	1	blank2r.bmp	0	1	+	0	1	blank2r.bmp	252	1	MQQM	306	3	ehrlich	559	0	0	0	0	0	0	0	0	0	0	0	0	0	0	0	0	0	0	0	0	0	0	0	0	0	0	0	0	0	0	0	0	0	0	0	0	0	0	0
072419	16:30:48	16:35:54	305327	5.0.10.0	5_exp_noRW	86	Rpleas_acq	CS_B	MQQM	JXXJ	YDDY	BZZB	GWWG	VKKV	retten	spielen	ehrlich	fair	schön	treu	rächen	strafen	eitel	faul	schlecht	tot	47pct	acq_USpleas_CSunple1_noRW	acq23456_noRW	2	30	0	0	300	300	524	50	0	1	1	blank2r.bmp	0	1	+	0	1	blank2r.bmp	252	1	YDDY	306	2	spielen	559	0	0	0	0	0	0	0	0	0	0	0	0	0	0	0	0	0	0	0	0	0	0	0	0	0	0	0	0	0	0	0	0	0	0	0	0	0	0	0
072419	16:30:48	16:35:55	306967	5.0.10.0	5_exp_noRW	86	Rpleas_acq	CS_B	MQQM	JXXJ	YDDY	BZZB	GWWG	VKKV	retten	spielen	ehrlich	fair	schön	treu	rächen	strafen	eitel	faul	schlecht	tot	47pct	acq_USunple_CSunple2_noRW	acq23456_noRW	2	31	0	0	300	300	468	46	0	1	1	blank2r.bmp	0	1	+	0	1	blank2r.bmp	252	1	BZZB	306	3	tot	559	0	0	0	0	0	0	0	0	0	0	0	0	0	0	0	0	0	0	0	0	0	0	0	0	0	0	0	0	0	0	0	0	0	0	0	0	0	0	0
072419	16:30:48	16:35:58	309273	5.0.10.0	5_exp_noRW	86	Rpleas_acq	CS_B	MQQM	JXXJ	YDDY	BZZB	GWWG	VKKV	retten	spielen	ehrlich	fair	schön	treu	rächen	strafen	eitel	faul	schlecht	tot	53pct	acq_USunple_CSpleas1_noRW	acq23456_noRW	2	32	0	0	300	300	1138	46	0	1	1	blank2r.bmp	0	1	+	0	1	blank2r.bmp	252	1	MQQM	306	3	eitel	559	0	0	0	0	0	0	0	0	0	0	0	0	0	0	0	0	0	0	0	0	0	0	0	0	0	0	0	0	0	0	0	0	0	0	0	0	0	0	0
072419	16:30:48	16:35:59	310939	5.0.10.0	5_exp_noRW	86	Rpleas_acq	CS_B	MQQM	JXXJ	YDDY	BZZB	GWWG	VKKV	retten	spielen	ehrlich	fair	schön	treu	rächen	strafen	eitel	faul	schlecht	tot	47pct	acq_USunple_CSunple2_noRW	acq23456_noRW	2	33	0	0	300	300	498	46	0	1	1	blank2r.bmp	0	1	+	0	1	blank2r.bmp	252	1	BZZB	306	2	schlecht	559	0	0	0	0	0	0	0	0	0	0	0	0	0	0	0	0	0	0	0	0	0	0	0	0	0	0	0	0	0	0	0	0	0	0	0	0	0	0	0
072419	16:30:48	16:36:01	312618	5.0.10.0	5_exp_noRW	86	Rpleas_acq	CS_B	MQQM	JXXJ	YDDY	BZZB	GWWG	VKKV	retten	spielen	ehrlich	fair	schön	treu	rächen	strafen	eitel	faul	schlecht	tot	47pct	acq_USpleas_CSpleas2_noRW	acq23456_noRW	2	34	0	0	300	300	503	50	0	1	1	blank2r.bmp	0	1	+	0	1	blank2r.bmp	252	1	JXXJ	306	2	schön	559	0	0	0	0	0	0	0	0	0	0	0	0	0	0	0	0	0	0	0	0	0	0	0	0	0	0	0	0	0	0	0	0	0	0	0	0	0	0	0
072419	16:30:48	16:36:03	314444	5.0.10.0	5_exp_noRW	86	Rpleas_acq	CS_B	MQQM	JXXJ	YDDY	BZZB	GWWG	VKKV	retten	spielen	ehrlich	fair	schön	treu	rächen	strafen	eitel	faul	schlecht	tot	53pct	acq_USunple_CSunple2_noRW	acq23456_noRW	2	35	0	0	300	300	642	46	0	1	1	blank2r.bmp	0	1	+	0	1	blank2r.bmp	252	1	BZZB	306	1	faul	559	0	0	0	0	0	0	0	0	0	0	0	0	0	0	0	0	0	0	0	0	0	0	0	0	0	0	0	0	0	0	0	0	0	0	0	0	0	0	0
072419	16:30:48	16:36:05	316203	5.0.10.0	5_exp_noRW	86	Rpleas_acq	CS_B	MQQM	JXXJ	YDDY	BZZB	GWWG	VKKV	retten	spielen	ehrlich	fair	schön	treu	rächen	strafen	eitel	faul	schlecht	tot	53pct	acq_USpleas_CSpleas2_noRW	acq23456_noRW	2	36	0	0	300	300	594	50	0	1	1	blank2r.bmp	0	1	+	0	1	blank2r.bmp	252	1	JXXJ	306	1	fair	559	0	0	0	0	0	0	0	0	0	0	0	0	0	0	0	0	0	0	0	0	0	0	0	0	0	0	0	0	0	0	0	0	0	0	0	0	0	0	0
072419	16:30:48	16:36:06	317882	5.0.10.0	5_exp_noRW	86	Rpleas_acq	CS_B	MQQM	JXXJ	YDDY	BZZB	GWWG	VKKV	retten	spielen	ehrlich	fair	schön	treu	rächen	strafen	eitel	faul	schlecht	tot	53pct	acq_USunple_CSunple1_noRW	acq23456_noRW	2	37	0	0	300	300	508	46	0	1	1	blank2r.bmp	0	1	+	0	1	blank2r.bmp	252	1	YDDY	306	1	rächen	559	0	0	0	0	0	0	0	0	0	0	0	0	0	0	0	0	0	0	0	0	0	0	0	0	0	0	0	0	0	0	0	0	0	0	0	0	0	0	0
072419	16:30:48	16:36:08	319722	5.0.10.0	5_exp_noRW	86	Rpleas_acq	CS_B	MQQM	JXXJ	YDDY	BZZB	GWWG	VKKV	retten	spielen	ehrlich	fair	schön	treu	rächen	strafen	eitel	faul	schlecht	tot	53pct	acq_USpleas_CSpleas2_noRW	acq23456_noRW	2	38	0	0	300	300	664	50	0	1	1	blank2r.bmp	0	1	+	0	1	blank2r.bmp	252	1	JXXJ	306	3	treu	559	0	0	0	0	0	0	0	0	0	0	0	0	0	0	0	0	0	0	0	0	0	0	0	0	0	0	0	0	0	0	0	0	0	0	0	0	0	0	0
072419	16:30:48	16:36:10	321454	5.0.10.0	5_exp_noRW	86	Rpleas_acq	CS_B	MQQM	JXXJ	YDDY	BZZB	GWWG	VKKV	retten	spielen	ehrlich	fair	schön	treu	rächen	strafen	eitel	faul	schlecht	tot	47pct	acq_USpleas_CSunple2_noRW	acq23456_noRW	2	39	0	0	300	300	555	50	0	1	1	blank2r.bmp	0	1	+	0	1	blank2r.bmp	252	1	BZZB	306	3	treu	559	0	0	0	0	0	0	0	0	0	0	0	0	0	0	0	0	0	0	0	0	0	0	0	0	0	0	0	0	0	0	0	0	0	0	0	0	0	0	0
072419	16:30:48	16:36:12	323147	5.0.10.0	5_exp_noRW	86	Rpleas_acq	CS_B	MQQM	JXXJ	YDDY	BZZB	GWWG	VKKV	retten	spielen	ehrlich	fair	schön	treu	rächen	strafen	eitel	faul	schlecht	tot	53pct	acq_USpleas_CSpleas1_noRW	acq23456_noRW	2	40	0	0	300	300	507	50	0	1	1	blank2r.bmp	0	1	+	0	1	blank2r.bmp	252	1	MQQM	306	2	spielen	559	0	0	0	0	0	0	0	0	0	0	0	0	0	0	0	0	0	0	0	0	0	0	0	0	0	0	0	0	0	0	0	0	0	0	0	0	0	0	0
072419	16:30:48	16:36:13	324760	5.0.10.0	5_exp_noRW	86	Rpleas_acq	CS_B	MQQM	JXXJ	YDDY	BZZB	GWWG	VKKV	retten	spielen	ehrlich	fair	schön	treu	rächen	strafen	eitel	faul	schlecht	tot	53pct	acq_USpleas_CSunple1_noRW	acq23456_noRW	2	41	0	0	300	300	439	50	0	1	1	blank2r.bmp	0	1	+	0	1	blank2r.bmp	252	1	YDDY	306	1	retten	559	0	0	0	0	0	0	0	0	0	0	0	0	0	0	0	0	0	0	0	0	0	0	0	0	0	0	0	0	0	0	0	0	0	0	0	0	0	0	0
072419	16:30:48	16:36:15	326426	5.0.10.0	5_exp_noRW	86	Rpleas_acq	CS_B	MQQM	JXXJ	YDDY	BZZB	GWWG	VKKV	retten	spielen	ehrlich	fair	schön	treu	rächen	strafen	eitel	faul	schlecht	tot	47pct	acq_USunple_CSunple1_noRW	acq23456_noRW	2	42	0	0	300	300	491	46	0	1	1	blank2r.bmp	0	1	+	0	1	blank2r.bmp	252	1	YDDY	306	1	rächen	559	0	0	0	0	0	0	0	0	0	0	0	0	0	0	0	0	0	0	0	0	0	0	0	0	0	0	0	0	0	0	0	0	0	0	0	0	0	0	0
072419	16:30:48	16:36:17	328118	5.0.10.0	5_exp_noRW	86	Rpleas_acq	CS_B	MQQM	JXXJ	YDDY	BZZB	GWWG	VKKV	retten	spielen	ehrlich	fair	schön	treu	rächen	strafen	eitel	faul	schlecht	tot	53pct	acq_USunple_CSunple2_noRW	acq23456_noRW	2	43	0	0	300	300	526	46	0	1	1	blank2r.bmp	0	1	+	0	1	blank2r.bmp	252	1	BZZB	306	1	faul	559	0	0	0	0	0	0	0	0	0	0	0	0	0	0	0	0	0	0	0	0	0	0	0	0	0	0	0	0	0	0	0	0	0	0	0	0	0	0	0
072419	16:30:48	16:36:18	329798	5.0.10.0	5_exp_noRW	86	Rpleas_acq	CS_B	MQQM	JXXJ	YDDY	BZZB	GWWG	VKKV	retten	spielen	ehrlich	fair	schön	treu	rächen	strafen	eitel	faul	schlecht	tot	53pct	acq_USpleas_CSpleas1_noRW	acq23456_noRW	2	44	0	0	300	300	513	50	0	1	1	blank2r.bmp	0	1	+	0	1	blank2r.bmp	252	1	MQQM	306	3	ehrlich	559	0	0	0	0	0	0	0	0	0	0	0	0	0	0	0	0	0	0	0	0	0	0	0	0	0	0	0	0	0	0	0	0	0	0	0	0	0	0	0
072419	16:30:48	16:36:20	331530	5.0.10.0	5_exp_noRW	86	Rpleas_acq	CS_B	MQQM	JXXJ	YDDY	BZZB	GWWG	VKKV	retten	spielen	ehrlich	fair	schön	treu	rächen	strafen	eitel	faul	schlecht	tot	53pct	acq_USunple_CSunple2_noRW	acq23456_noRW	2	45	0	0	300	300	553	46	0	1	1	blank2r.bmp	0	1	+	0	1	blank2r.bmp	252	1	BZZB	306	2	schlecht	559	0	0	0	0	0	0	0	0	0	0	0	0	0	0	0	0	0	0	0	0	0	0	0	0	0	0	0	0	0	0	0	0	0	0	0	0	0	0	0
072419	16:30:48	16:36:22	333369	5.0.10.0	5_exp_noRW	86	Rpleas_acq	CS_B	MQQM	JXXJ	YDDY	BZZB	GWWG	VKKV	retten	spielen	ehrlich	fair	schön	treu	rächen	strafen	eitel	faul	schlecht	tot	53pct	acq_USpleas_CSpleas2_noRW	acq23456_noRW	2	46	0	0	300	300	657	50	0	1	1	blank2r.bmp	0	1	+	0	1	blank2r.bmp	252	1	JXXJ	306	2	schön	559	0	0	0	0	0	0	0	0	0	0	0	0	0	0	0	0	0	0	0	0	0	0	0	0	0	0	0	0	0	0	0	0	0	0	0	0	0	0	0
072419	16:30:48	16:36:24	335182	5.0.10.0	5_exp_noRW	86	Rpleas_acq	CS_B	MQQM	JXXJ	YDDY	BZZB	GWWG	VKKV	retten	spielen	ehrlich	fair	schön	treu	rächen	strafen	eitel	faul	schlecht	tot	53pct	acq_USpleas_CSpleas1_noRW	acq23456_noRW	2	47	0	0	300	300	635	50	0	1	1	blank2r.bmp	0	1	+	0	1	blank2r.bmp	252	1	MQQM	306	1	retten	559	0	0	0	0	0	0	0	0	0	0	0	0	0	0	0	0	0	0	0	0	0	0	0	0	0	0	0	0	0	0	0	0	0	0	0	0	0	0	0
072419	16:30:48	16:36:25	336928	5.0.10.0	5_exp_noRW	86	Rpleas_acq	CS_B	MQQM	JXXJ	YDDY	BZZB	GWWG	VKKV	retten	spielen	ehrlich	fair	schön	treu	rächen	strafen	eitel	faul	schlecht	tot	47pct	acq_USunple_CSpleas2_noRW	acq23456_noRW	2	48	0	0	300	300	559	46	0	1	1	blank2r.bmp	0	1	+	0	1	blank2r.bmp	252	1	JXXJ	306	1	faul	559	0	0	0	0	0	0	0	0	0	0	0	0	0	0	0	0	0	0	0	0	0	0	0	0	0	0	0	0	0	0	0	0	0	0	0	0	0	0	0
072419	16:30:48	16:36:28	339247	5.0.10.0	5_exp_noRW	86	Rpleas_acq	CS_B	MQQM	JXXJ	YDDY	BZZB	GWWG	VKKV	retten	spielen	ehrlich	fair	schön	treu	rächen	strafen	eitel	faul	schlecht	tot	47pct	acq_USunple_CSpleas1_noRW	acq23456_noRW	2	49	0	0	300	300	1150	46	0	1	1	blank2r.bmp	0	1	+	0	1	blank2r.bmp	252	1	MQQM	306	2	strafen	559	0	0	0	0	0	0	0	0	0	0	0	0	0	0	0	0	0	0	0	0	0	0	0	0	0	0	0	0	0	0	0	0	0	0	0	0	0	0	0
072419	16:30:48	16:36:29	340940	5.0.10.0	5_exp_noRW	86	Rpleas_acq	CS_B	MQQM	JXXJ	YDDY	BZZB	GWWG	VKKV	retten	spielen	ehrlich	fair	schön	treu	rächen	strafen	eitel	faul	schlecht	tot	53pct	acq_USpleas_CSpleas1_noRW	acq23456_noRW	2	50	0	0	300	300	527	50	0	1	1	blank2r.bmp	0	1	+	0	1	blank2r.bmp	252	1	MQQM	306	2	spielen	559	0	0	0	0	0	0	0	0	0	0	0	0	0	0	0	0	0	0	0	0	0	0	0	0	0	0	0	0	0	0	0	0	0	0	0	0	0	0	0
072419	16:30:48	16:36:31	342672	5.0.10.0	5_exp_noRW	86	Rpleas_acq	CS_B	MQQM	JXXJ	YDDY	BZZB	GWWG	VKKV	retten	spielen	ehrlich	fair	schön	treu	rächen	strafen	eitel	faul	schlecht	tot	47pct	acq_USpleas_CSpleas1_noRW	acq23456_noRW	2	51	0	0	300	300	545	50	0	1	1	blank2r.bmp	0	1	+	0	1	blank2r.bmp	252	1	MQQM	306	3	ehrlich	559	0	0	0	0	0	0	0	0	0	0	0	0	0	0	0	0	0	0	0	0	0	0	0	0	0	0	0	0	0	0	0	0	0	0	0	0	0	0	0
072419	16:30:48	16:36:33	344471	5.0.10.0	5_exp_noRW	86	Rpleas_acq	CS_B	MQQM	JXXJ	YDDY	BZZB	GWWG	VKKV	retten	spielen	ehrlich	fair	schön	treu	rächen	strafen	eitel	faul	schlecht	tot	47pct	acq_USpleas_CSunple2_noRW	acq23456_noRW	2	52	0	0	300	300	625	50	0	1	1	blank2r.bmp	0	1	+	0	1	blank2r.bmp	252	1	BZZB	306	2	schön	559	0	0	0	0	0	0	0	0	0	0	0	0	0	0	0	0	0	0	0	0	0	0	0	0	0	0	0	0	0	0	0	0	0	0	0	0	0	0	0
072419	16:30:48	16:36:35	346177	5.0.10.0	5_exp_noRW	86	Rpleas_acq	CS_B	MQQM	JXXJ	YDDY	BZZB	GWWG	VKKV	retten	spielen	ehrlich	fair	schön	treu	rächen	strafen	eitel	faul	schlecht	tot	47pct	acq_USunple_CSunple1_noRW	acq23456_noRW	2	53	0	0	300	300	532	46	0	1	1	blank2r.bmp	0	1	+	0	1	blank2r.bmp	252	1	YDDY	306	2	strafen	559	0	0	0	0	0	0	0	0	0	0	0	0	0	0	0	0	0	0	0	0	0	0	0	0	0	0	0	0	0	0	0	0	0	0	0	0	0	0	0
072419	16:30:48	16:36:36	347923	5.0.10.0	5_exp_noRW	86	Rpleas_acq	CS_B	MQQM	JXXJ	YDDY	BZZB	GWWG	VKKV	retten	spielen	ehrlich	fair	schön	treu	rächen	strafen	eitel	faul	schlecht	tot	47pct	acq_USpleas_CSpleas2_noRW	acq23456_noRW	2	54	0	0	300	300	576	50	0	1	1	blank2r.bmp	0	1	+	0	1	blank2r.bmp	252	1	JXXJ	306	3	treu	559	0	0	0	0	0	0	0	0	0	0	0	0	0	0	0	0	0	0	0	0	0	0	0	0	0	0	0	0	0	0	0	0	0	0	0	0	0	0	0
072419	16:30:48	16:36:38	349683	5.0.10.0	5_exp_noRW	86	Rpleas_acq	CS_B	MQQM	JXXJ	YDDY	BZZB	GWWG	VKKV	retten	spielen	ehrlich	fair	schön	treu	rächen	strafen	eitel	faul	schlecht	tot	53pct	acq_USunple_CSunple2_noRW	acq23456_noRW	2	55	0	0	300	300	579	46	0	1	1	blank2r.bmp	0	1	+	0	1	blank2r.bmp	252	1	BZZB	306	3	tot	559	0	0	0	0	0	0	0	0	0	0	0	0	0	0	0	0	0	0	0	0	0	0	0	0	0	0	0	0	0	0	0	0	0	0	0	0	0	0	0
072419	16:30:48	16:36:40	351722	5.0.10.0	5_exp_noRW	86	Rpleas_acq	CS_B	MQQM	JXXJ	YDDY	BZZB	GWWG	VKKV	retten	spielen	ehrlich	fair	schön	treu	rächen	strafen	eitel	faul	schlecht	tot	47pct	acq_USunple_CSunple1_noRW	acq23456_noRW	2	56	0	0	300	300	855	46	0	1	1	blank2r.bmp	0	1	+	0	1	blank2r.bmp	252	1	YDDY	306	3	eitel	559	0	0	0	0	0	0	0	0	0	0	0	0	0	0	0	0	0	0	0	0	0	0	0	0	0	0	0	0	0	0	0	0	0	0	0	0	0	0	0
072419	16:30:48	16:36:42	353335	5.0.10.0	5_exp_noRW	86	Rpleas_acq	CS_B	MQQM	JXXJ	YDDY	BZZB	GWWG	VKKV	retten	spielen	ehrlich	fair	schön	treu	rächen	strafen	eitel	faul	schlecht	tot	47pct	acq_USunple_CSunple2_noRW	acq23456_noRW	2	57	0	0	300	300	446	46	0	1	1	blank2r.bmp	0	1	+	0	1	blank2r.bmp	252	1	BZZB	306	2	schlecht	559	0	0	0	0	0	0	0	0	0	0	0	0	0	0	0	0	0	0	0	0	0	0	0	0	0	0	0	0	0	0	0	0	0	0	0	0	0	0	0
072419	16:30:48	16:36:43	354934	5.0.10.0	5_exp_noRW	86	Rpleas_acq	CS_B	MQQM	JXXJ	YDDY	BZZB	GWWG	VKKV	retten	spielen	ehrlich	fair	schön	treu	rächen	strafen	eitel	faul	schlecht	tot	47pct	acq_USpleas_CSpleas2_noRW	acq23456_noRW	2	58	0	0	300	300	412	50	0	1	1	blank2r.bmp	0	1	+	0	1	blank2r.bmp	252	1	JXXJ	306	1	fair	559	0	0	0	0	0	0	0	0	0	0	0	0	0	0	0	0	0	0	0	0	0	0	0	0	0	0	0	0	0	0	0	0	0	0	0	0	0	0	0
072419	16:30:48	16:36:45	356613	5.0.10.0	5_exp_noRW	86	Rpleas_acq	CS_B	MQQM	JXXJ	YDDY	BZZB	GWWG	VKKV	retten	spielen	ehrlich	fair	schön	treu	rächen	strafen	eitel	faul	schlecht	tot	53pct	acq_USpleas_CSpleas2_noRW	acq23456_noRW	2	59	0	0	300	300	511	50	0	1	1	blank2r.bmp	0	1	+	0	1	blank2r.bmp	252	1	JXXJ	306	3	treu	559	0	0	0	0	0	0	0	0	0	0	0	0	0	0	0	0	0	0	0	0	0	0	0	0	0	0	0	0	0	0	0	0	0	0	0	0	0	0	0
072419	16:30:48	16:36:47	358386	5.0.10.0	5_exp_noRW	86	Rpleas_acq	CS_B	MQQM	JXXJ	YDDY	BZZB	GWWG	VKKV	retten	spielen	ehrlich	fair	schön	treu	rächen	strafen	eitel	faul	schlecht	tot	47pct	acq_USunple_CSunple1_noRW	acq23456_noRW	2	60	0	0	300	300	587	46	0	1	1	blank2r.bmp	0	1	+	0	1	blank2r.bmp	252	1	YDDY	306	2	strafen	559	0	0	0	0	0	0	0	0	0	0	0	0	0	0	0	0	0	0	0	0	0	0	0	0	0	0	0	0	0	0	0	0	0	0	0	0	0	0	0
072419	16:30:48	16:36:49	360345	5.0.10.0	5_exp_noRW	86	Rpleas_acq	CS_B	MQQM	JXXJ	YDDY	BZZB	GWWG	VKKV	retten	spielen	ehrlich	fair	schön	treu	rächen	strafen	eitel	faul	schlecht	tot	47pct	acq_USunple_CSunple1_noRW	acq23456_noRW	2	61	0	0	300	300	786	46	0	1	1	blank2r.bmp	0	1	+	0	1	blank2r.bmp	252	1	YDDY	306	3	eitel	559	0	0	0	0	0	0	0	0	0	0	0	0	0	0	0	0	0	0	0	0	0	0	0	0	0	0	0	0	0	0	0	0	0	0	0	0	0	0	0
072419	16:30:48	16:36:51	362184	5.0.10.0	5_exp_noRW	86	Rpleas_acq	CS_B	MQQM	JXXJ	YDDY	BZZB	GWWG	VKKV	retten	spielen	ehrlich	fair	schön	treu	rächen	strafen	eitel	faul	schlecht	tot	53pct	acq_USunple_CSunple2_noRW	acq23456_noRW	2	62	0	0	300	300	658	46	0	1	1	blank2r.bmp	0	1	+	0	1	blank2r.bmp	252	1	BZZB	306	3	tot	559	0	0	0	0	0	0	0	0	0	0	0	0	0	0	0	0	0	0	0	0	0	0	0	0	0	0	0	0	0	0	0	0	0	0	0	0	0	0	0
072419	16:30:48	16:36:52	363930	5.0.10.0	5_exp_noRW	86	Rpleas_acq	CS_B	MQQM	JXXJ	YDDY	BZZB	GWWG	VKKV	retten	spielen	ehrlich	fair	schön	treu	rächen	strafen	eitel	faul	schlecht	tot	53pct	acq_USpleas_CSpleas1_noRW	acq23456_noRW	2	63	0	0	300	300	566	50	0	1	1	blank2r.bmp	0	1	+	0	1	blank2r.bmp	252	1	MQQM	306	2	spielen	559	0	0	0	0	0	0	0	0	0	0	0	0	0	0	0	0	0	0	0	0	0	0	0	0	0	0	0	0	0	0	0	0	0	0	0	0	0	0	0
072419	16:30:48	16:36:54	365823	5.0.10.0	5_exp_noRW	86	Rpleas_acq	CS_B	MQQM	JXXJ	YDDY	BZZB	GWWG	VKKV	retten	spielen	ehrlich	fair	schön	treu	rächen	strafen	eitel	faul	schlecht	tot	47pct	acq_USunple_CSunple1_noRW	acq23456_noRW	2	64	0	0	300	300	717	46	0	1	1	blank2r.bmp	0	1	+	0	1	blank2r.bmp	252	1	YDDY	306	1	rächen	559	0	0	0	0	0	0	0	0	0	0	0	0	0	0	0	0	0	0	0	0	0	0	0	0	0	0	0	0	0	0	0	0	0	0	0	0	0	0	0
072419	16:30:48	16:36:56	367502	5.0.10.0	5_exp_noRW	86	Rpleas_acq	CS_B	MQQM	JXXJ	YDDY	BZZB	GWWG	VKKV	retten	spielen	ehrlich	fair	schön	treu	rächen	strafen	eitel	faul	schlecht	tot	53pct	acq_USunple_CSunple1_noRW	acq23456_noRW	2	65	0	0	300	300	511	46	0	1	1	blank2r.bmp	0	1	+	0	1	blank2r.bmp	252	1	YDDY	306	3	eitel	559	0	0	0	0	0	0	0	0	0	0	0	0	0	0	0	0	0	0	0	0	0	0	0	0	0	0	0	0	0	0	0	0	0	0	0	0	0	0	0
072419	16:30:48	16:36:58	369115	5.0.10.0	5_exp_noRW	86	Rpleas_acq	CS_B	MQQM	JXXJ	YDDY	BZZB	GWWG	VKKV	retten	spielen	ehrlich	fair	schön	treu	rächen	strafen	eitel	faul	schlecht	tot	53pct	acq_USunple_CSunple1_noRW	acq23456_noRW	2	66	0	0	300	300	433	46	0	1	1	blank2r.bmp	0	1	+	0	1	blank2r.bmp	252	1	YDDY	306	1	rächen	559	0	0	0	0	0	0	0	0	0	0	0	0	0	0	0	0	0	0	0	0	0	0	0	0	0	0	0	0	0	0	0	0	0	0	0	0	0	0	0
072419	16:30:48	16:36:59	370754	5.0.10.0	5_exp_noRW	86	Rpleas_acq	CS_B	MQQM	JXXJ	YDDY	BZZB	GWWG	VKKV	retten	spielen	ehrlich	fair	schön	treu	rächen	strafen	eitel	faul	schlecht	tot	53pct	acq_USunple_CSpleas2_noRW	acq23456_noRW	2	67	0	0	300	300	469	46	0	1	1	blank2r.bmp	0	1	+	0	1	blank2r.bmp	252	1	JXXJ	306	2	schlecht	559	0	0	0	0	0	0	0	0	0	0	0	0	0	0	0	0	0	0	0	0	0	0	0	0	0	0	0	0	0	0	0	0	0	0	0	0	0	0	0
072419	16:30:48	16:37:01	372473	5.0.10.0	5_exp_noRW	86	Rpleas_acq	CS_B	MQQM	JXXJ	YDDY	BZZB	GWWG	VKKV	retten	spielen	ehrlich	fair	schön	treu	rächen	strafen	eitel	faul	schlecht	tot	47pct	acq_USunple_CSunple2_noRW	acq23456_noRW	2	68	0	0	300	300	552	46	0	1	1	blank2r.bmp	0	1	+	0	1	blank2r.bmp	252	1	BZZB	306	1	faul	559	0	0	0	0	0	0	0	0	0	0	0	0	0	0	0	0	0	0	0	0	0	0	0	0	0	0	0	0	0	0	0	0	0	0	0	0	0	0	0
072419	16:30:48	16:37:03	374299	5.0.10.0	5_exp_noRW	86	Rpleas_acq	CS_B	MQQM	JXXJ	YDDY	BZZB	GWWG	VKKV	retten	spielen	ehrlich	fair	schön	treu	rächen	strafen	eitel	faul	schlecht	tot	53pct	acq_USpleas_CSpleas1_noRW	acq23456_noRW	2	69	0	0	300	300	664	50	0	1	1	blank2r.bmp	0	1	+	0	1	blank2r.bmp	252	1	MQQM	306	1	retten	559	0	0	0	0	0	0	0	0	0	0	0	0	0	0	0	0	0	0	0	0	0	0	0	0	0	0	0	0	0	0	0	0	0	0	0	0	0	0	0
072419	16:30:48	16:37:04	375912	5.0.10.0	5_exp_noRW	86	Rpleas_acq	CS_B	MQQM	JXXJ	YDDY	BZZB	GWWG	VKKV	retten	spielen	ehrlich	fair	schön	treu	rächen	strafen	eitel	faul	schlecht	tot	47pct	acq_USpleas_CSpleas2_noRW	acq23456_noRW	2	70	0	0	300	300	430	50	0	1	1	blank2r.bmp	0	1	+	0	1	blank2r.bmp	252	1	JXXJ	306	2	schön	559	0	0	0	0	0	0	0	0	0	0	0	0	0	0	0	0	0	0	0	0	0	0	0	0	0	0	0	0	0	0	0	0	0	0	0	0	0	0	0
072419	16:30:48	16:37:06	377565	5.0.10.0	5_exp_noRW	86	Rpleas_acq	CS_B	MQQM	JXXJ	YDDY	BZZB	GWWG	VKKV	retten	spielen	ehrlich	fair	schön	treu	rächen	strafen	eitel	faul	schlecht	tot	53pct	acq_USpleas_CSunple2_noRW	acq23456_noRW	2	71	0	0	300	300	473	50	0	1	1	blank2r.bmp	0	1	+	0	1	blank2r.bmp	252	1	BZZB	306	3	treu	559	0	0	0	0	0	0	0	0	0	0	0	0	0	0	0	0	0	0	0	0	0	0	0	0	0	0	0	0	0	0	0	0	0	0	0	0	0	0	0
072419	16:30:48	16:37:08	379217	5.0.10.0	5_exp_noRW	86	Rpleas_acq	CS_B	MQQM	JXXJ	YDDY	BZZB	GWWG	VKKV	retten	spielen	ehrlich	fair	schön	treu	rächen	strafen	eitel	faul	schlecht	tot	53pct	acq_USpleas_CSpleas2_noRW	acq23456_noRW	2	72	0	0	300	300	467	50	0	1	1	blank2r.bmp	0	1	+	0	1	blank2r.bmp	252	1	JXXJ	306	1	fair	559	0	0	0	0	0	0	0	0	0	0	0	0	0	0	0	0	0	0	0	0	0	0	0	0	0	0	0	0	0	0	0	0	0	0	0	0	0	0	0
072419	16:30:48	16:37:09	380817	5.0.10.0	5_exp_noRW	86	Rpleas_acq	CS_B	MQQM	JXXJ	YDDY	BZZB	GWWG	VKKV	retten	spielen	ehrlich	fair	schön	treu	rächen	strafen	eitel	faul	schlecht	tot	53pct	acq_USpleas_CSpleas1_noRW	acq23456_noRW	2	73	0	0	300	300	425	50	0	1	1	blank2r.bmp	0	1	+	0	1	blank2r.bmp	252	1	MQQM	306	1	retten	559	0	0	0	0	0	0	0	0	0	0	0	0	0	0	0	0	0	0	0	0	0	0	0	0	0	0	0	0	0	0	0	0	0	0	0	0	0	0	0
072419	16:30:48	16:37:11	382483	5.0.10.0	5_exp_noRW	86	Rpleas_acq	CS_B	MQQM	JXXJ	YDDY	BZZB	GWWG	VKKV	retten	spielen	ehrlich	fair	schön	treu	rächen	strafen	eitel	faul	schlecht	tot	47pct	acq_USpleas_CSunple1_noRW	acq23456_noRW	2	74	0	0	300	300	497	50	0	1	1	blank2r.bmp	0	1	+	0	1	blank2r.bmp	252	1	YDDY	306	2	spielen	559	0	0	0	0	0	0	0	0	0	0	0	0	0	0	0	0	0	0	0	0	0	0	0	0	0	0	0	0	0	0	0	0	0	0	0	0	0	0	0
072419	16:30:48	16:37:13	384269	5.0.10.0	5_exp_noRW	86	Rpleas_acq	CS_B	MQQM	JXXJ	YDDY	BZZB	GWWG	VKKV	retten	spielen	ehrlich	fair	schön	treu	rächen	strafen	eitel	faul	schlecht	tot	47pct	acq_USunple_CSpleas1_noRW	acq23456_noRW	2	75	0	0	300	300	607	46	0	1	1	blank2r.bmp	0	1	+	0	1	blank2r.bmp	252	1	MQQM	306	1	rächen	559	0	0	0	0	0	0	0	0	0	0	0	0	0	0	0	0	0	0	0	0	0	0	0	0	0	0	0	0	0	0	0	0	0	0	0	0	0	0	0
072419	16:30:48	16:37:14	385868	5.0.10.0	5_exp_noRW	86	Rpleas_acq	CS_B	MQQM	JXXJ	YDDY	BZZB	GWWG	VKKV	retten	spielen	ehrlich	fair	schön	treu	rächen	strafen	eitel	faul	schlecht	tot	53pct	acq_USunple_CSunple2_noRW	acq23456_noRW	2	76	0	0	300	300	416	46	0	1	1	blank2r.bmp	0	1	+	0	1	blank2r.bmp	252	1	BZZB	306	1	faul	559	0	0	0	0	0	0	0	0	0	0	0	0	0	0	0	0	0	0	0	0	0	0	0	0	0	0	0	0	0	0	0	0	0	0	0	0	0	0	0
072419	16:30:48	16:37:16	387454	5.0.10.0	5_exp_noRW	86	Rpleas_acq	CS_B	MQQM	JXXJ	YDDY	BZZB	GWWG	VKKV	retten	spielen	ehrlich	fair	schön	treu	rächen	strafen	eitel	faul	schlecht	tot	53pct	acq_USpleas_CSpleas2_noRW	acq23456_noRW	2	77	0	0	300	300	398	50	0	1	1	blank2r.bmp	0	1	+	0	1	blank2r.bmp	252	1	JXXJ	306	2	schön	559	0	0	0	0	0	0	0	0	0	0	0	0	0	0	0	0	0	0	0	0	0	0	0	0	0	0	0	0	0	0	0	0	0	0	0	0	0	0	0
072419	16:30:48	16:37:17	389013	5.0.10.0	5_exp_noRW	86	Rpleas_acq	CS_B	MQQM	JXXJ	YDDY	BZZB	GWWG	VKKV	retten	spielen	ehrlich	fair	schön	treu	rächen	strafen	eitel	faul	schlecht	tot	47pct	acq_USpleas_CSpleas1_noRW	acq23456_noRW	2	78	0	0	300	300	385	50	0	1	1	blank2r.bmp	0	1	+	0	1	blank2r.bmp	252	1	MQQM	306	2	spielen	559	0	0	0	0	0	0	0	0	0	0	0	0	0	0	0	0	0	0	0	0	0	0	0	0	0	0	0	0	0	0	0	0	0	0	0	0	0	0	0
072419	16:30:48	16:37:19	390746	5.0.10.0	5_exp_noRW	86	Rpleas_acq	CS_B	MQQM	JXXJ	YDDY	BZZB	GWWG	VKKV	retten	spielen	ehrlich	fair	schön	treu	rächen	strafen	eitel	faul	schlecht	tot	53pct	acq_USunple_CSunple2_noRW	acq23456_noRW	2	79	0	0	300	300	563	46	0	1	1	blank2r.bmp	0	1	+	0	1	blank2r.bmp	252	1	BZZB	306	2	schlecht	559	0	0	0	0	0	0	0	0	0	0	0	0	0	0	0	0	0	0	0	0	0	0	0	0	0	0	0	0	0	0	0	0	0	0	0	0	0	0	0
072419	16:30:48	16:37:21	392372	5.0.10.0	5_exp_noRW	86	Rpleas_acq	CS_B	MQQM	JXXJ	YDDY	BZZB	GWWG	VKKV	retten	spielen	ehrlich	fair	schön	treu	rächen	strafen	eitel	faul	schlecht	tot	47pct	acq_USpleas_CSpleas2_noRW	acq23456_noRW	2	80	0	0	300	300	442	50	0	1	1	blank2r.bmp	0	1	+	0	1	blank2r.bmp	252	1	JXXJ	306	1	fair	559	0	0	0	0	0	0	0	0	0	0	0	0	0	0	0	0	0	0	0	0	0	0	0	0	0	0	0	0	0	0	0	0	0	0	0	0	0	0	0
072419	16:30:48	16:37:43	414083	5.0.10.0	5_exp_noRW	86	Rpleas_acq	CS_B	MQQM	JXXJ	YDDY	BZZB	GWWG	VKKV	retten	spielen	ehrlich	fair	schön	treu	rächen	strafen	eitel	faul	schlecht	tot	53pct	acq_USpleas_CSpleas1_noRW	acq23456_noRW	3	1	0	0	300	300	604	50	0	1	1	blank2r.bmp	0	1	+	0	1	blank2r.bmp	252	1	MQQM	306	3	ehrlich	559	0	0	0	0	0	0	0	0	0	0	0	0	0	0	0	0	0	0	0	0	0	0	0	0	0	0	0	0	0	0	0	0	0	0	0	0	0	0	0
072419	16:30:48	16:37:44	415736	5.0.10.0	5_exp_noRW	86	Rpleas_acq	CS_B	MQQM	JXXJ	YDDY	BZZB	GWWG	VKKV	retten	spielen	ehrlich	fair	schön	treu	rächen	strafen	eitel	faul	schlecht	tot	47pct	acq_USunple_CSunple2_noRW	acq23456_noRW	3	2	0	0	300	300	477	46	0	1	1	blank2r.bmp	0	1	+	0	1	blank2r.bmp	252	1	BZZB	306	3	tot	559	0	0	0	0	0	0	0	0	0	0	0	0	0	0	0	0	0	0	0	0	0	0	0	0	0	0	0	0	0	0	0	0	0	0	0	0	0	0	0
072419	16:30:48	16:37:46	417442	5.0.10.0	5_exp_noRW	86	Rpleas_acq	CS_B	MQQM	JXXJ	YDDY	BZZB	GWWG	VKKV	retten	spielen	ehrlich	fair	schön	treu	rächen	strafen	eitel	faul	schlecht	tot	47pct	acq_USunple_CSunple1_noRW	acq23456_noRW	3	3	0	0	300	300	524	46	0	1	1	blank2r.bmp	0	1	+	0	1	blank2r.bmp	252	1	YDDY	306	2	strafen	559	0	0	0	0	0	0	0	0	0	0	0	0	0	0	0	0	0	0	0	0	0	0	0	0	0	0	0	0	0	0	0	0	0	0	0	0	0	0	0
072419	16:30:48	16:37:48	419054	5.0.10.0	5_exp_noRW	86	Rpleas_acq	CS_B	MQQM	JXXJ	YDDY	BZZB	GWWG	VKKV	retten	spielen	ehrlich	fair	schön	treu	rächen	strafen	eitel	faul	schlecht	tot	53pct	acq_USunple_CSunple1_noRW	acq23456_noRW	3	4	0	0	300	300	435	46	0	1	1	blank2r.bmp	0	1	+	0	1	blank2r.bmp	252	1	YDDY	306	1	rächen	559	0	0	0	0	0	0	0	0	0	0	0	0	0	0	0	0	0	0	0	0	0	0	0	0	0	0	0	0	0	0	0	0	0	0	0	0	0	0	0
072419	16:30:48	16:37:49	420974	5.0.10.0	5_exp_noRW	86	Rpleas_acq	CS_B	MQQM	JXXJ	YDDY	BZZB	GWWG	VKKV	retten	spielen	ehrlich	fair	schön	treu	rächen	strafen	eitel	faul	schlecht	tot	53pct	acq_USunple_CSpleas1_noRW	acq23456_noRW	3	5	0	0	300	300	738	46	0	1	1	blank2r.bmp	0	1	+	0	1	blank2r.bmp	252	1	MQQM	306	3	eitel	559	0	0	0	0	0	0	0	0	0	0	0	0	0	0	0	0	0	0	0	0	0	0	0	0	0	0	0	0	0	0	0	0	0	0	0	0	0	0	0
072419	16:30:48	16:37:51	422559	5.0.10.0	5_exp_noRW	86	Rpleas_acq	CS_B	MQQM	JXXJ	YDDY	BZZB	GWWG	VKKV	retten	spielen	ehrlich	fair	schön	treu	rächen	strafen	eitel	faul	schlecht	tot	47pct	acq_USunple_CSunple1_noRW	acq23456_noRW	3	6	0	0	300	300	420	46	0	1	1	blank2r.bmp	0	1	+	0	1	blank2r.bmp	252	1	YDDY	306	2	strafen	559	0	0	0	0	0	0	0	0	0	0	0	0	0	0	0	0	0	0	0	0	0	0	0	0	0	0	0	0	0	0	0	0	0	0	0	0	0	0	0
072419	16:30:48	16:37:53	424145	5.0.10.0	5_exp_noRW	86	Rpleas_acq	CS_B	MQQM	JXXJ	YDDY	BZZB	GWWG	VKKV	retten	spielen	ehrlich	fair	schön	treu	rächen	strafen	eitel	faul	schlecht	tot	47pct	acq_USunple_CSunple2_noRW	acq23456_noRW	3	7	0	0	300	300	414	46	0	1	1	blank2r.bmp	0	1	+	0	1	blank2r.bmp	252	1	BZZB	306	2	schlecht	559	0	0	0	0	0	0	0	0	0	0	0	0	0	0	0	0	0	0	0	0	0	0	0	0	0	0	0	0	0	0	0	0	0	0	0	0	0	0	0
072419	16:30:48	16:37:54	425718	5.0.10.0	5_exp_noRW	86	Rpleas_acq	CS_B	MQQM	JXXJ	YDDY	BZZB	GWWG	VKKV	retten	spielen	ehrlich	fair	schön	treu	rächen	strafen	eitel	faul	schlecht	tot	53pct	acq_USunple_CSunple2_noRW	acq23456_noRW	3	8	0	0	300	300	395	46	0	1	1	blank2r.bmp	0	1	+	0	1	blank2r.bmp	252	1	BZZB	306	3	tot	559	0	0	0	0	0	0	0	0	0	0	0	0	0	0	0	0	0	0	0	0	0	0	0	0	0	0	0	0	0	0	0	0	0	0	0	0	0	0	0
072419	16:30:48	16:37:56	427491	5.0.10.0	5_exp_noRW	86	Rpleas_acq	CS_B	MQQM	JXXJ	YDDY	BZZB	GWWG	VKKV	retten	spielen	ehrlich	fair	schön	treu	rächen	strafen	eitel	faul	schlecht	tot	47pct	acq_USunple_CSunple1_noRW	acq23456_noRW	3	9	0	0	300	300	379	50	0	0	1	blank2r.bmp	0	1	+	0	1	blank2r.bmp	252	1	YDDY	306	3	eitel	559	1	FEHLER	972	0	0	0	0	0	0	0	0	0	0	0	0	0	0	0	0	0	0	0	0	0	0	0	0	0	0	0	0	0	0	0	0	0	0	0	0
072419	16:30:48	16:37:58	429117	5.0.10.0	5_exp_noRW	86	Rpleas_acq	CS_B	MQQM	JXXJ	YDDY	BZZB	GWWG	VKKV	retten	spielen	ehrlich	fair	schön	treu	rächen	strafen	eitel	faul	schlecht	tot	53pct	acq_USpleas_CSpleas2_noRW	acq23456_noRW	3	10	0	0	300	300	662	50	0	1	1	blank2r.bmp	0	1	+	0	1	blank2r.bmp	252	1	JXXJ	306	3	treu	559	0	0	0	0	0	0	0	0	0	0	0	0	0	0	0	0	0	0	0	0	0	0	0	0	0	0	0	0	0	0	0	0	0	0	0	0	0	0	0
072419	16:30:48	16:38:00	431702	5.0.10.0	5_exp_noRW	86	Rpleas_acq	CS_B	MQQM	JXXJ	YDDY	BZZB	GWWG	VKKV	retten	spielen	ehrlich	fair	schön	treu	rächen	strafen	eitel	faul	schlecht	tot	47pct	acq_USpleas_CSpleas1_noRW	acq23456_noRW	3	11	0	0	300	300	1398	50	0	1	1	blank2r.bmp	0	1	+	0	1	blank2r.bmp	252	1	MQQM	306	2	spielen	559	0	0	0	0	0	0	0	0	0	0	0	0	0	0	0	0	0	0	0	0	0	0	0	0	0	0	0	0	0	0	0	0	0	0	0	0	0	0	0
072419	16:30:48	16:38:02	433408	5.0.10.0	5_exp_noRW	86	Rpleas_acq	CS_B	MQQM	JXXJ	YDDY	BZZB	GWWG	VKKV	retten	spielen	ehrlich	fair	schön	treu	rächen	strafen	eitel	faul	schlecht	tot	53pct	acq_USunple_CSpleas2_noRW	acq23456_noRW	3	12	0	0	300	300	534	46	0	1	1	blank2r.bmp	0	1	+	0	1	blank2r.bmp	252	1	JXXJ	306	3	tot	559	0	0	0	0	0	0	0	0	0	0	0	0	0	0	0	0	0	0	0	0	0	0	0	0	0	0	0	0	0	0	0	0	0	0	0	0	0	0	0
072419	16:30:48	16:38:03	434994	5.0.10.0	5_exp_noRW	86	Rpleas_acq	CS_B	MQQM	JXXJ	YDDY	BZZB	GWWG	VKKV	retten	spielen	ehrlich	fair	schön	treu	rächen	strafen	eitel	faul	schlecht	tot	47pct	acq_USunple_CSunple2_noRW	acq23456_noRW	3	13	0	0	300	300	416	46	0	1	1	blank2r.bmp	0	1	+	0	1	blank2r.bmp	252	1	BZZB	306	1	faul	559	0	0	0	0	0	0	0	0	0	0	0	0	0	0	0	0	0	0	0	0	0	0	0	0	0	0	0	0	0	0	0	0	0	0	0	0	0	0	0
072419	16:30:48	16:38:05	436780	5.0.10.0	5_exp_noRW	86	Rpleas_acq	CS_B	MQQM	JXXJ	YDDY	BZZB	GWWG	VKKV	retten	spielen	ehrlich	fair	schön	treu	rächen	strafen	eitel	faul	schlecht	tot	53pct	acq_USpleas_CSpleas1_noRW	acq23456_noRW	3	14	0	0	300	300	623	50	0	1	1	blank2r.bmp	0	1	+	0	1	blank2r.bmp	252	1	MQQM	306	1	retten	559	0	0	0	0	0	0	0	0	0	0	0	0	0	0	0	0	0	0	0	0	0	0	0	0	0	0	0	0	0	0	0	0	0	0	0	0	0	0	0
072419	16:30:48	16:38:07	438553	5.0.10.0	5_exp_noRW	86	Rpleas_acq	CS_B	MQQM	JXXJ	YDDY	BZZB	GWWG	VKKV	retten	spielen	ehrlich	fair	schön	treu	rächen	strafen	eitel	faul	schlecht	tot	47pct	acq_USpleas_CSunple2_noRW	acq23456_noRW	3	15	0	0	300	300	594	50	0	1	1	blank2r.bmp	0	1	+	0	1	blank2r.bmp	252	1	BZZB	306	1	fair	559	0	0	0	0	0	0	0	0	0	0	0	0	0	0	0	0	0	0	0	0	0	0	0	0	0	0	0	0	0	0	0	0	0	0	0	0	0	0	0
072419	16:30:48	16:38:09	440179	5.0.10.0	5_exp_noRW	86	Rpleas_acq	CS_B	MQQM	JXXJ	YDDY	BZZB	GWWG	VKKV	retten	spielen	ehrlich	fair	schön	treu	rächen	strafen	eitel	faul	schlecht	tot	47pct	acq_USpleas_CSpleas2_noRW	acq23456_noRW	3	16	0	0	300	300	455	50	0	1	1	blank2r.bmp	0	1	+	0	1	blank2r.bmp	252	1	JXXJ	306	1	fair	559	0	0	0	0	0	0	0	0	0	0	0	0	0	0	0	0	0	0	0	0	0	0	0	0	0	0	0	0	0	0	0	0	0	0	0	0	0	0	0
072419	16:30:48	16:38:10	441765	5.0.10.0	5_exp_noRW	86	Rpleas_acq	CS_B	MQQM	JXXJ	YDDY	BZZB	GWWG	VKKV	retten	spielen	ehrlich	fair	schön	treu	rächen	strafen	eitel	faul	schlecht	tot	47pct	acq_USpleas_CSpleas2_noRW	acq23456_noRW	3	17	0	0	300	300	423	50	0	1	1	blank2r.bmp	0	1	+	0	1	blank2r.bmp	252	1	JXXJ	306	2	schön	559	0	0	0	0	0	0	0	0	0	0	0	0	0	0	0	0	0	0	0	0	0	0	0	0	0	0	0	0	0	0	0	0	0	0	0	0	0	0	0
072419	16:30:48	16:38:12	443498	5.0.10.0	5_exp_noRW	86	Rpleas_acq	CS_B	MQQM	JXXJ	YDDY	BZZB	GWWG	VKKV	retten	spielen	ehrlich	fair	schön	treu	rächen	strafen	eitel	faul	schlecht	tot	53pct	acq_USpleas_CSpleas2_noRW	acq23456_noRW	3	18	0	0	300	300	547	50	0	1	1	blank2r.bmp	0	1	+	0	1	blank2r.bmp	252	1	JXXJ	306	3	treu	559	0	0	0	0	0	0	0	0	0	0	0	0	0	0	0	0	0	0	0	0	0	0	0	0	0	0	0	0	0	0	0	0	0	0	0	0	0	0	0
072419	16:30:48	16:38:14	445164	5.0.10.0	5_exp_noRW	86	Rpleas_acq	CS_B	MQQM	JXXJ	YDDY	BZZB	GWWG	VKKV	retten	spielen	ehrlich	fair	schön	treu	rächen	strafen	eitel	faul	schlecht	tot	47pct	acq_USpleas_CSunple1_noRW	acq23456_noRW	3	19	0	0	300	300	500	50	0	1	1	blank2r.bmp	0	1	+	0	1	blank2r.bmp	252	1	YDDY	306	3	ehrlich	559	0	0	0	0	0	0	0	0	0	0	0	0	0	0	0	0	0	0	0	0	0	0	0	0	0	0	0	0	0	0	0	0	0	0	0	0	0	0	0
072419	16:30:48	16:38:15	446790	5.0.10.0	5_exp_noRW	86	Rpleas_acq	CS_B	MQQM	JXXJ	YDDY	BZZB	GWWG	VKKV	retten	spielen	ehrlich	fair	schön	treu	rächen	strafen	eitel	faul	schlecht	tot	47pct	acq_USpleas_CSpleas1_noRW	acq23456_noRW	3	20	0	0	300	300	461	50	0	1	1	blank2r.bmp	0	1	+	0	1	blank2r.bmp	252	1	MQQM	306	3	ehrlich	559	0	0	0	0	0	0	0	0	0	0	0	0	0	0	0	0	0	0	0	0	0	0	0	0	0	0	0	0	0	0	0	0	0	0	0	0	0	0	0
072419	16:30:48	16:38:17	448402	5.0.10.0	5_exp_noRW	86	Rpleas_acq	CS_B	MQQM	JXXJ	YDDY	BZZB	GWWG	VKKV	retten	spielen	ehrlich	fair	schön	treu	rächen	strafen	eitel	faul	schlecht	tot	53pct	acq_USpleas_CSpleas1_noRW	acq23456_noRW	3	21	0	0	300	300	429	50	0	1	1	blank2r.bmp	0	1	+	0	1	blank2r.bmp	252	1	MQQM	306	1	retten	559	0	0	0	0	0	0	0	0	0	0	0	0	0	0	0	0	0	0	0	0	0	0	0	0	0	0	0	0	0	0	0	0	0	0	0	0	0	0	0
072419	16:30:48	16:38:18	449962	5.0.10.0	5_exp_noRW	86	Rpleas_acq	CS_B	MQQM	JXXJ	YDDY	BZZB	GWWG	VKKV	retten	spielen	ehrlich	fair	schön	treu	rächen	strafen	eitel	faul	schlecht	tot	47pct	acq_USpleas_CSpleas1_noRW	acq23456_noRW	3	22	0	0	300	300	376	50	0	1	1	blank2r.bmp	0	1	+	0	1	blank2r.bmp	252	1	MQQM	306	2	spielen	559	0	0	0	0	0	0	0	0	0	0	0	0	0	0	0	0	0	0	0	0	0	0	0	0	0	0	0	0	0	0	0	0	0	0	0	0	0	0	0
072419	16:30:48	16:38:20	451668	5.0.10.0	5_exp_noRW	86	Rpleas_acq	CS_B	MQQM	JXXJ	YDDY	BZZB	GWWG	VKKV	retten	spielen	ehrlich	fair	schön	treu	rächen	strafen	eitel	faul	schlecht	tot	47pct	acq_USunple_CSunple1_noRW	acq23456_noRW	3	23	0	0	300	300	524	46	0	1	1	blank2r.bmp	0	1	+	0	1	blank2r.bmp	252	1	YDDY	306	1	rächen	559	0	0	0	0	0	0	0	0	0	0	0	0	0	0	0	0	0	0	0	0	0	0	0	0	0	0	0	0	0	0	0	0	0	0	0	0	0	0	0
072419	16:30:48	16:38:22	453387	5.0.10.0	5_exp_noRW	86	Rpleas_acq	CS_B	MQQM	JXXJ	YDDY	BZZB	GWWG	VKKV	retten	spielen	ehrlich	fair	schön	treu	rächen	strafen	eitel	faul	schlecht	tot	47pct	acq_USpleas_CSpleas2_noRW	acq23456_noRW	3	24	0	0	300	300	534	50	0	1	1	blank2r.bmp	0	1	+	0	1	blank2r.bmp	252	1	JXXJ	306	3	treu	559	0	0	0	0	0	0	0	0	0	0	0	0	0	0	0	0	0	0	0	0	0	0	0	0	0	0	0	0	0	0	0	0	0	0	0	0	0	0	0
072419	16:30:48	16:38:24	455040	5.0.10.0	5_exp_noRW	86	Rpleas_acq	CS_B	MQQM	JXXJ	YDDY	BZZB	GWWG	VKKV	retten	spielen	ehrlich	fair	schön	treu	rächen	strafen	eitel	faul	schlecht	tot	47pct	acq_USunple_CSunple1_noRW	acq23456_noRW	3	25	0	0	300	300	485	46	0	1	1	blank2r.bmp	0	1	+	0	1	blank2r.bmp	252	1	YDDY	306	2	strafen	559	0	0	0	0	0	0	0	0	0	0	0	0	0	0	0	0	0	0	0	0	0	0	0	0	0	0	0	0	0	0	0	0	0	0	0	0	0	0	0
072419	16:30:48	16:38:25	456759	5.0.10.0	5_exp_noRW	86	Rpleas_acq	CS_B	MQQM	JXXJ	YDDY	BZZB	GWWG	VKKV	retten	spielen	ehrlich	fair	schön	treu	rächen	strafen	eitel	faul	schlecht	tot	47pct	acq_USunple_CSunple1_noRW	acq23456_noRW	3	26	0	0	300	300	550	46	0	1	1	blank2r.bmp	0	1	+	0	1	blank2r.bmp	252	1	YDDY	306	3	eitel	559	0	0	0	0	0	0	0	0	0	0	0	0	0	0	0	0	0	0	0	0	0	0	0	0	0	0	0	0	0	0	0	0	0	0	0	0	0	0	0
072419	16:30:48	16:38:27	458478	5.0.10.0	5_exp_noRW	86	Rpleas_acq	CS_B	MQQM	JXXJ	YDDY	BZZB	GWWG	VKKV	retten	spielen	ehrlich	fair	schön	treu	rächen	strafen	eitel	faul	schlecht	tot	47pct	acq_USpleas_CSpleas2_noRW	acq23456_noRW	3	27	0	0	300	300	554	50	0	1	1	blank2r.bmp	0	1	+	0	1	blank2r.bmp	252	1	JXXJ	306	1	fair	559	0	0	0	0	0	0	0	0	0	0	0	0	0	0	0	0	0	0	0	0	0	0	0	0	0	0	0	0	0	0	0	0	0	0	0	0	0	0	0
072419	16:30:48	16:38:29	460371	5.0.10.0	5_exp_noRW	86	Rpleas_acq	CS_B	MQQM	JXXJ	YDDY	BZZB	GWWG	VKKV	retten	spielen	ehrlich	fair	schön	treu	rächen	strafen	eitel	faul	schlecht	tot	47pct	acq_USunple_CSunple1_noRW	acq23456_noRW	3	28	0	0	300	300	717	46	0	1	1	blank2r.bmp	0	1	+	0	1	blank2r.bmp	252	1	YDDY	306	3	eitel	559	0	0	0	0	0	0	0	0	0	0	0	0	0	0	0	0	0	0	0	0	0	0	0	0	0	0	0	0	0	0	0	0	0	0	0	0	0	0	0
072419	16:30:48	16:38:31	462077	5.0.10.0	5_exp_noRW	86	Rpleas_acq	CS_B	MQQM	JXXJ	YDDY	BZZB	GWWG	VKKV	retten	spielen	ehrlich	fair	schön	treu	rächen	strafen	eitel	faul	schlecht	tot	53pct	acq_USunple_CSunple2_noRW	acq23456_noRW	3	29	0	0	300	300	525	46	0	1	1	blank2r.bmp	0	1	+	0	1	blank2r.bmp	252	1	BZZB	306	2	schlecht	559	0	0	0	0	0	0	0	0	0	0	0	0	0	0	0	0	0	0	0	0	0	0	0	0	0	0	0	0	0	0	0	0	0	0	0	0	0	0	0
072419	16:30:48	16:38:32	463809	5.0.10.0	5_exp_noRW	86	Rpleas_acq	CS_B	MQQM	JXXJ	YDDY	BZZB	GWWG	VKKV	retten	spielen	ehrlich	fair	schön	treu	rächen	strafen	eitel	faul	schlecht	tot	47pct	acq_USunple_CSunple2_noRW	acq23456_noRW	3	30	0	0	300	300	558	46	0	1	1	blank2r.bmp	0	1	+	0	1	blank2r.bmp	252	1	BZZB	306	3	tot	559	0	0	0	0	0	0	0	0	0	0	0	0	0	0	0	0	0	0	0	0	0	0	0	0	0	0	0	0	0	0	0	0	0	0	0	0	0	0	0
072419	16:30:48	16:38:34	465502	5.0.10.0	5_exp_noRW	86	Rpleas_acq	CS_B	MQQM	JXXJ	YDDY	BZZB	GWWG	VKKV	retten	spielen	ehrlich	fair	schön	treu	rächen	strafen	eitel	faul	schlecht	tot	53pct	acq_USpleas_CSpleas1_noRW	acq23456_noRW	3	31	0	0	300	300	519	50	0	1	1	blank2r.bmp	0	1	+	0	1	blank2r.bmp	252	1	MQQM	306	3	ehrlich	559	0	0	0	0	0	0	0	0	0	0	0	0	0	0	0	0	0	0	0	0	0	0	0	0	0	0	0	0	0	0	0	0	0	0	0	0	0	0	0
072419	16:30:48	16:38:36	467381	5.0.10.0	5_exp_noRW	86	Rpleas_acq	CS_B	MQQM	JXXJ	YDDY	BZZB	GWWG	VKKV	retten	spielen	ehrlich	fair	schön	treu	rächen	strafen	eitel	faul	schlecht	tot	47pct	acq_USpleas_CSpleas2_noRW	acq23456_noRW	3	32	0	0	300	300	716	50	0	1	1	blank2r.bmp	0	1	+	0	1	blank2r.bmp	252	1	JXXJ	306	2	schön	559	0	0	0	0	0	0	0	0	0	0	0	0	0	0	0	0	0	0	0	0	0	0	0	0	0	0	0	0	0	0	0	0	0	0	0	0	0	0	0
072419	16:30:48	16:38:38	469074	5.0.10.0	5_exp_noRW	86	Rpleas_acq	CS_B	MQQM	JXXJ	YDDY	BZZB	GWWG	VKKV	retten	spielen	ehrlich	fair	schön	treu	rächen	strafen	eitel	faul	schlecht	tot	47pct	acq_USunple_CSpleas2_noRW	acq23456_noRW	3	33	0	0	300	300	505	46	0	1	1	blank2r.bmp	0	1	+	0	1	blank2r.bmp	252	1	JXXJ	306	1	faul	559	0	0	0	0	0	0	0	0	0	0	0	0	0	0	0	0	0	0	0	0	0	0	0	0	0	0	0	0	0	0	0	0	0	0	0	0	0	0	0
072419	16:30:48	16:38:39	470793	5.0.10.0	5_exp_noRW	86	Rpleas_acq	CS_B	MQQM	JXXJ	YDDY	BZZB	GWWG	VKKV	retten	spielen	ehrlich	fair	schön	treu	rächen	strafen	eitel	faul	schlecht	tot	53pct	acq_USpleas_CSpleas2_noRW	acq23456_noRW	3	34	0	0	300	300	554	50	0	1	1	blank2r.bmp	0	1	+	0	1	blank2r.bmp	252	1	JXXJ	306	3	treu	559	0	0	0	0	0	0	0	0	0	0	0	0	0	0	0	0	0	0	0	0	0	0	0	0	0	0	0	0	0	0	0	0	0	0	0	0	0	0	0
072419	16:30:48	16:38:42	473059	5.0.10.0	5_exp_noRW	86	Rpleas_acq	CS_B	MQQM	JXXJ	YDDY	BZZB	GWWG	VKKV	retten	spielen	ehrlich	fair	schön	treu	rächen	strafen	eitel	faul	schlecht	tot	53pct	acq_USunple_CSunple2_noRW	acq23456_noRW	3	35	0	0	300	300	1078	46	0	1	1	blank2r.bmp	0	1	+	0	1	blank2r.bmp	252	1	BZZB	306	1	faul	559	0	0	0	0	0	0	0	0	0	0	0	0	0	0	0	0	0	0	0	0	0	0	0	0	0	0	0	0	0	0	0	0	0	0	0	0	0	0	0
072419	16:30:48	16:38:43	474938	5.0.10.0	5_exp_noRW	86	Rpleas_acq	CS_B	MQQM	JXXJ	YDDY	BZZB	GWWG	VKKV	retten	spielen	ehrlich	fair	schön	treu	rächen	strafen	eitel	faul	schlecht	tot	47pct	acq_USpleas_CSunple2_noRW	acq23456_noRW	3	36	0	0	300	300	706	50	0	1	1	blank2r.bmp	0	1	+	0	1	blank2r.bmp	252	1	BZZB	306	1	fair	559	0	0	0	0	0	0	0	0	0	0	0	0	0	0	0	0	0	0	0	0	0	0	0	0	0	0	0	0	0	0	0	0	0	0	0	0	0	0	0
072419	16:30:48	16:38:45	476804	5.0.10.0	5_exp_noRW	86	Rpleas_acq	CS_B	MQQM	JXXJ	YDDY	BZZB	GWWG	VKKV	retten	spielen	ehrlich	fair	schön	treu	rächen	strafen	eitel	faul	schlecht	tot	53pct	acq_USpleas_CSunple1_noRW	acq23456_noRW	3	37	0	0	300	300	693	50	0	1	1	blank2r.bmp	0	1	+	0	1	blank2r.bmp	252	1	YDDY	306	1	retten	559	0	0	0	0	0	0	0	0	0	0	0	0	0	0	0	0	0	0	0	0	0	0	0	0	0	0	0	0	0	0	0	0	0	0	0	0	0	0	0
072419	16:30:48	16:38:47	478470	5.0.10.0	5_exp_noRW	86	Rpleas_acq	CS_B	MQQM	JXXJ	YDDY	BZZB	GWWG	VKKV	retten	spielen	ehrlich	fair	schön	treu	rächen	strafen	eitel	faul	schlecht	tot	53pct	acq_USunple_CSpleas1_noRW	acq23456_noRW	3	38	0	0	300	300	492	46	0	1	1	blank2r.bmp	0	1	+	0	1	blank2r.bmp	252	1	MQQM	306	3	eitel	559	0	0	0	0	0	0	0	0	0	0	0	0	0	0	0	0	0	0	0	0	0	0	0	0	0	0	0	0	0	0	0	0	0	0	0	0	0	0	0
072419	16:30:48	16:38:49	480349	5.0.10.0	5_exp_noRW	86	Rpleas_acq	CS_B	MQQM	JXXJ	YDDY	BZZB	GWWG	VKKV	retten	spielen	ehrlich	fair	schön	treu	rächen	strafen	eitel	faul	schlecht	tot	53pct	acq_USpleas_CSpleas1_noRW	acq23456_noRW	3	39	0	0	300	300	712	50	0	1	1	blank2r.bmp	0	1	+	0	1	blank2r.bmp	252	1	MQQM	306	3	ehrlich	559	0	0	0	0	0	0	0	0	0	0	0	0	0	0	0	0	0	0	0	0	0	0	0	0	0	0	0	0	0	0	0	0	0	0	0	0	0	0	0
072419	16:30:48	16:38:51	482068	5.0.10.0	5_exp_noRW	86	Rpleas_acq	CS_B	MQQM	JXXJ	YDDY	BZZB	GWWG	VKKV	retten	spielen	ehrlich	fair	schön	treu	rächen	strafen	eitel	faul	schlecht	tot	53pct	acq_USunple_CSunple2_noRW	acq23456_noRW	3	40	0	0	300	300	537	46	0	1	1	blank2r.bmp	0	1	+	0	1	blank2r.bmp	252	1	BZZB	306	3	tot	559	0	0	0	0	0	0	0	0	0	0	0	0	0	0	0	0	0	0	0	0	0	0	0	0	0	0	0	0	0	0	0	0	0	0	0	0	0	0	0
072419	16:30:48	16:38:52	483974	5.0.10.0	5_exp_noRW	86	Rpleas_acq	CS_B	MQQM	JXXJ	YDDY	BZZB	GWWG	VKKV	retten	spielen	ehrlich	fair	schön	treu	rächen	strafen	eitel	faul	schlecht	tot	47pct	acq_USunple_CSunple2_noRW	acq23456_noRW	3	41	0	0	300	300	722	46	0	1	1	blank2r.bmp	0	1	+	0	1	blank2r.bmp	252	1	BZZB	306	2	schlecht	559	0	0	0	0	0	0	0	0	0	0	0	0	0	0	0	0	0	0	0	0	0	0	0	0	0	0	0	0	0	0	0	0	0	0	0	0	0	0	0
072419	16:30:48	16:38:54	485694	5.0.10.0	5_exp_noRW	86	Rpleas_acq	CS_B	MQQM	JXXJ	YDDY	BZZB	GWWG	VKKV	retten	spielen	ehrlich	fair	schön	treu	rächen	strafen	eitel	faul	schlecht	tot	47pct	acq_USunple_CSunple1_noRW	acq23456_noRW	3	42	0	0	300	300	536	46	0	1	1	blank2r.bmp	0	1	+	0	1	blank2r.bmp	252	1	YDDY	306	1	rächen	559	0	0	0	0	0	0	0	0	0	0	0	0	0	0	0	0	0	0	0	0	0	0	0	0	0	0	0	0	0	0	0	0	0	0	0	0	0	0	0
072419	16:30:48	16:38:56	487373	5.0.10.0	5_exp_noRW	86	Rpleas_acq	CS_B	MQQM	JXXJ	YDDY	BZZB	GWWG	VKKV	retten	spielen	ehrlich	fair	schön	treu	rächen	strafen	eitel	faul	schlecht	tot	47pct	acq_USpleas_CSpleas2_noRW	acq23456_noRW	3	43	0	0	300	300	517	50	0	1	1	blank2r.bmp	0	1	+	0	1	blank2r.bmp	252	1	JXXJ	306	1	fair	559	0	0	0	0	0	0	0	0	0	0	0	0	0	0	0	0	0	0	0	0	0	0	0	0	0	0	0	0	0	0	0	0	0	0	0	0	0	0	0
072419	16:30:48	16:38:58	489639	5.0.10.0	5_exp_noRW	86	Rpleas_acq	CS_B	MQQM	JXXJ	YDDY	BZZB	GWWG	VKKV	retten	spielen	ehrlich	fair	schön	treu	rächen	strafen	eitel	faul	schlecht	tot	53pct	acq_USpleas_CSpleas1_noRW	acq23456_noRW	3	44	0	0	300	300	1090	50	0	1	1	blank2r.bmp	0	1	+	0	1	blank2r.bmp	252	1	MQQM	306	2	spielen	559	0	0	0	0	0	0	0	0	0	0	0	0	0	0	0	0	0	0	0	0	0	0	0	0	0	0	0	0	0	0	0	0	0	0	0	0	0	0	0
072419	16:30:48	16:39:00	491545	5.0.10.0	5_exp_noRW	86	Rpleas_acq	CS_B	MQQM	JXXJ	YDDY	BZZB	GWWG	VKKV	retten	spielen	ehrlich	fair	schön	treu	rächen	strafen	eitel	faul	schlecht	tot	53pct	acq_USunple_CSunple2_noRW	acq23456_noRW	3	45	0	0	300	300	726	46	0	1	1	blank2r.bmp	0	1	+	0	1	blank2r.bmp	252	1	BZZB	306	1	faul	559	0	0	0	0	0	0	0	0	0	0	0	0	0	0	0	0	0	0	0	0	0	0	0	0	0	0	0	0	0	0	0	0	0	0	0	0	0	0	0
072419	16:30:48	16:39:02	493437	5.0.10.0	5_exp_noRW	86	Rpleas_acq	CS_B	MQQM	JXXJ	YDDY	BZZB	GWWG	VKKV	retten	spielen	ehrlich	fair	schön	treu	rächen	strafen	eitel	faul	schlecht	tot	53pct	acq_USunple_CSunple1_noRW	acq23456_noRW	3	46	0	0	300	300	729	46	0	1	1	blank2r.bmp	0	1	+	0	1	blank2r.bmp	252	1	YDDY	306	2	strafen	559	0	0	0	0	0	0	0	0	0	0	0	0	0	0	0	0	0	0	0	0	0	0	0	0	0	0	0	0	0	0	0	0	0	0	0	0	0	0	0
072419	16:30:48	16:39:04	495596	5.0.10.0	5_exp_noRW	86	Rpleas_acq	CS_B	MQQM	JXXJ	YDDY	BZZB	GWWG	VKKV	retten	spielen	ehrlich	fair	schön	treu	rächen	strafen	eitel	faul	schlecht	tot	53pct	acq_USpleas_CSpleas1_noRW	acq23456_noRW	3	47	0	0	300	300	975	50	0	1	1	blank2r.bmp	0	1	+	0	1	blank2r.bmp	252	1	MQQM	306	1	retten	559	0	0	0	0	0	0	0	0	0	0	0	0	0	0	0	0	0	0	0	0	0	0	0	0	0	0	0	0	0	0	0	0	0	0	0	0	0	0	0
072419	16:30:48	16:39:06	497262	5.0.10.0	5_exp_noRW	86	Rpleas_acq	CS_B	MQQM	JXXJ	YDDY	BZZB	GWWG	VKKV	retten	spielen	ehrlich	fair	schön	treu	rächen	strafen	eitel	faul	schlecht	tot	53pct	acq_USpleas_CSunple2_noRW	acq23456_noRW	3	48	0	0	300	300	483	50	0	1	1	blank2r.bmp	0	1	+	0	1	blank2r.bmp	252	1	BZZB	306	3	treu	559	0	0	0	0	0	0	0	0	0	0	0	0	0	0	0	0	0	0	0	0	0	0	0	0	0	0	0	0	0	0	0	0	0	0	0	0	0	0	0
072419	16:30:48	16:39:07	498955	5.0.10.0	5_exp_noRW	86	Rpleas_acq	CS_B	MQQM	JXXJ	YDDY	BZZB	GWWG	VKKV	retten	spielen	ehrlich	fair	schön	treu	rächen	strafen	eitel	faul	schlecht	tot	47pct	acq_USunple_CSunple1_noRW	acq23456_noRW	3	49	0	0	300	300	512	46	0	1	1	blank2r.bmp	0	1	+	0	1	blank2r.bmp	252	1	YDDY	306	1	rächen	559	0	0	0	0	0	0	0	0	0	0	0	0	0	0	0	0	0	0	0	0	0	0	0	0	0	0	0	0	0	0	0	0	0	0	0	0	0	0	0
072419	16:30:48	16:39:09	500914	5.0.10.0	5_exp_noRW	86	Rpleas_acq	CS_B	MQQM	JXXJ	YDDY	BZZB	GWWG	VKKV	retten	spielen	ehrlich	fair	schön	treu	rächen	strafen	eitel	faul	schlecht	tot	53pct	acq_USpleas_CSpleas2_noRW	acq23456_noRW	3	50	0	0	300	300	793	50	0	1	1	blank2r.bmp	0	1	+	0	1	blank2r.bmp	252	1	JXXJ	306	2	schön	559	0	0	0	0	0	0	0	0	0	0	0	0	0	0	0	0	0	0	0	0	0	0	0	0	0	0	0	0	0	0	0	0	0	0	0	0	0	0	0
072419	16:30:48	16:39:12	503393	5.0.10.0	5_exp_noRW	86	Rpleas_acq	CS_B	MQQM	JXXJ	YDDY	BZZB	GWWG	VKKV	retten	spielen	ehrlich	fair	schön	treu	rächen	strafen	eitel	faul	schlecht	tot	53pct	acq_USpleas_CSpleas1_noRW	acq23456_noRW	3	51	0	0	300	300	1298	50	0	1	1	blank2r.bmp	0	1	+	0	1	blank2r.bmp	252	1	MQQM	306	3	ehrlich	559	0	0	0	0	0	0	0	0	0	0	0	0	0	0	0	0	0	0	0	0	0	0	0	0	0	0	0	0	0	0	0	0	0	0	0	0	0	0	0
072419	16:30:48	16:39:14	505179	5.0.10.0	5_exp_noRW	86	Rpleas_acq	CS_B	MQQM	JXXJ	YDDY	BZZB	GWWG	VKKV	retten	spielen	ehrlich	fair	schön	treu	rächen	strafen	eitel	faul	schlecht	tot	47pct	acq_USpleas_CSunple1_noRW	acq23456_noRW	3	52	0	0	300	300	598	50	0	1	1	blank2r.bmp	0	1	+	0	1	blank2r.bmp	252	1	YDDY	306	3	ehrlich	559	0	0	0	0	0	0	0	0	0	0	0	0	0	0	0	0	0	0	0	0	0	0	0	0	0	0	0	0	0	0	0	0	0	0	0	0	0	0	0
072419	16:30:48	16:39:15	506965	5.0.10.0	5_exp_noRW	86	Rpleas_acq	CS_B	MQQM	JXXJ	YDDY	BZZB	GWWG	VKKV	retten	spielen	ehrlich	fair	schön	treu	rächen	strafen	eitel	faul	schlecht	tot	47pct	acq_USunple_CSunple1_noRW	acq23456_noRW	3	53	0	0	300	300	409	50	0	0	1	blank2r.bmp	0	1	+	0	1	blank2r.bmp	252	1	YDDY	306	3	eitel	559	1	FEHLER	999	0	0	0	0	0	0	0	0	0	0	0	0	0	0	0	0	0	0	0	0	0	0	0	0	0	0	0	0	0	0	0	0	0	0	0	0
072419	16:30:48	16:39:17	508777	5.0.10.0	5_exp_noRW	86	Rpleas_acq	CS_B	MQQM	JXXJ	YDDY	BZZB	GWWG	VKKV	retten	spielen	ehrlich	fair	schön	treu	rächen	strafen	eitel	faul	schlecht	tot	53pct	acq_USunple_CSunple2_noRW	acq23456_noRW	3	54	0	0	300	300	859	46	0	1	1	blank2r.bmp	0	1	+	0	1	blank2r.bmp	252	1	BZZB	306	2	schlecht	559	0	0	0	0	0	0	0	0	0	0	0	0	0	0	0	0	0	0	0	0	0	0	0	0	0	0	0	0	0	0	0	0	0	0	0	0	0	0	0
072419	16:30:48	16:39:19	510483	5.0.10.0	5_exp_noRW	86	Rpleas_acq	CS_B	MQQM	JXXJ	YDDY	BZZB	GWWG	VKKV	retten	spielen	ehrlich	fair	schön	treu	rächen	strafen	eitel	faul	schlecht	tot	47pct	acq_USunple_CSpleas1_noRW	acq23456_noRW	3	55	0	0	300	300	529	46	0	1	1	blank2r.bmp	0	1	+	0	1	blank2r.bmp	252	1	MQQM	306	2	strafen	559	0	0	0	0	0	0	0	0	0	0	0	0	0	0	0	0	0	0	0	0	0	0	0	0	0	0	0	0	0	0	0	0	0	0	0	0	0	0	0
072419	16:30:48	16:39:21	512203	5.0.10.0	5_exp_noRW	86	Rpleas_acq	CS_B	MQQM	JXXJ	YDDY	BZZB	GWWG	VKKV	retten	spielen	ehrlich	fair	schön	treu	rächen	strafen	eitel	faul	schlecht	tot	47pct	acq_USpleas_CSpleas2_noRW	acq23456_noRW	3	56	0	0	300	300	538	50	0	1	1	blank2r.bmp	0	1	+	0	1	blank2r.bmp	252	1	JXXJ	306	2	schön	559	0	0	0	0	0	0	0	0	0	0	0	0	0	0	0	0	0	0	0	0	0	0	0	0	0	0	0	0	0	0	0	0	0	0	0	0	0	0	0
072419	16:30:48	16:39:23	514095	5.0.10.0	5_exp_noRW	86	Rpleas_acq	CS_B	MQQM	JXXJ	YDDY	BZZB	GWWG	VKKV	retten	spielen	ehrlich	fair	schön	treu	rächen	strafen	eitel	faul	schlecht	tot	47pct	acq_USunple_CSunple2_noRW	acq23456_noRW	3	57	0	0	300	300	721	46	0	1	1	blank2r.bmp	0	1	+	0	1	blank2r.bmp	252	1	BZZB	306	1	faul	559	0	0	0	0	0	0	0	0	0	0	0	0	0	0	0	0	0	0	0	0	0	0	0	0	0	0	0	0	0	0	0	0	0	0	0	0	0	0	0
072419	16:30:48	16:39:24	515788	5.0.10.0	5_exp_noRW	86	Rpleas_acq	CS_B	MQQM	JXXJ	YDDY	BZZB	GWWG	VKKV	retten	spielen	ehrlich	fair	schön	treu	rächen	strafen	eitel	faul	schlecht	tot	47pct	acq_USpleas_CSpleas2_noRW	acq23456_noRW	3	58	0	0	300	300	517	50	0	1	1	blank2r.bmp	0	1	+	0	1	blank2r.bmp	252	1	JXXJ	306	1	fair	559	0	0	0	0	0	0	0	0	0	0	0	0	0	0	0	0	0	0	0	0	0	0	0	0	0	0	0	0	0	0	0	0	0	0	0	0	0	0	0
072419	16:30:48	16:39:26	517547	5.0.10.0	5_exp_noRW	86	Rpleas_acq	CS_B	MQQM	JXXJ	YDDY	BZZB	GWWG	VKKV	retten	spielen	ehrlich	fair	schön	treu	rächen	strafen	eitel	faul	schlecht	tot	53pct	acq_USpleas_CSpleas1_noRW	acq23456_noRW	3	59	0	0	300	300	575	50	0	1	1	blank2r.bmp	0	1	+	0	1	blank2r.bmp	252	1	MQQM	306	2	spielen	559	0	0	0	0	0	0	0	0	0	0	0	0	0	0	0	0	0	0	0	0	0	0	0	0	0	0	0	0	0	0	0	0	0	0	0	0	0	0	0
072419	16:30:48	16:39:28	519213	5.0.10.0	5_exp_noRW	86	Rpleas_acq	CS_B	MQQM	JXXJ	YDDY	BZZB	GWWG	VKKV	retten	spielen	ehrlich	fair	schön	treu	rächen	strafen	eitel	faul	schlecht	tot	53pct	acq_USunple_CSpleas2_noRW	acq23456_noRW	3	60	0	0	300	300	498	46	0	1	1	blank2r.bmp	0	1	+	0	1	blank2r.bmp	252	1	JXXJ	306	2	schlecht	559	0	0	0	0	0	0	0	0	0	0	0	0	0	0	0	0	0	0	0	0	0	0	0	0	0	0	0	0	0	0	0	0	0	0	0	0	0	0	0
072419	16:30:48	16:39:29	520986	5.0.10.0	5_exp_noRW	86	Rpleas_acq	CS_B	MQQM	JXXJ	YDDY	BZZB	GWWG	VKKV	retten	spielen	ehrlich	fair	schön	treu	rächen	strafen	eitel	faul	schlecht	tot	47pct	acq_USunple_CSunple1_noRW	acq23456_noRW	3	61	0	0	300	300	585	46	0	1	1	blank2r.bmp	0	1	+	0	1	blank2r.bmp	252	1	YDDY	306	2	strafen	559	0	0	0	0	0	0	0	0	0	0	0	0	0	0	0	0	0	0	0	0	0	0	0	0	0	0	0	0	0	0	0	0	0	0	0	0	0	0	0
072419	16:30:48	16:39:31	522665	5.0.10.0	5_exp_noRW	86	Rpleas_acq	CS_B	MQQM	JXXJ	YDDY	BZZB	GWWG	VKKV	retten	spielen	ehrlich	fair	schön	treu	rächen	strafen	eitel	faul	schlecht	tot	47pct	acq_USunple_CSunple1_noRW	acq23456_noRW	3	62	0	0	300	300	512	46	0	1	1	blank2r.bmp	0	1	+	0	1	blank2r.bmp	252	1	YDDY	306	2	strafen	559	0	0	0	0	0	0	0	0	0	0	0	0	0	0	0	0	0	0	0	0	0	0	0	0	0	0	0	0	0	0	0	0	0	0	0	0	0	0	0
072419	16:30:48	16:39:33	524411	5.0.10.0	5_exp_noRW	86	Rpleas_acq	CS_B	MQQM	JXXJ	YDDY	BZZB	GWWG	VKKV	retten	spielen	ehrlich	fair	schön	treu	rächen	strafen	eitel	faul	schlecht	tot	47pct	acq_USunple_CSunple1_noRW	acq23456_noRW	3	63	0	0	300	300	579	46	0	1	1	blank2r.bmp	0	1	+	0	1	blank2r.bmp	252	1	YDDY	306	3	eitel	559	0	0	0	0	0	0	0	0	0	0	0	0	0	0	0	0	0	0	0	0	0	0	0	0	0	0	0	0	0	0	0	0	0	0	0	0	0	0	0
072419	16:30:48	16:39:35	526077	5.0.10.0	5_exp_noRW	86	Rpleas_acq	CS_B	MQQM	JXXJ	YDDY	BZZB	GWWG	VKKV	retten	spielen	ehrlich	fair	schön	treu	rächen	strafen	eitel	faul	schlecht	tot	47pct	acq_USpleas_CSpleas2_noRW	acq23456_noRW	3	64	0	0	300	300	494	50	0	1	1	blank2r.bmp	0	1	+	0	1	blank2r.bmp	252	1	JXXJ	306	3	treu	559	0	0	0	0	0	0	0	0	0	0	0	0	0	0	0	0	0	0	0	0	0	0	0	0	0	0	0	0	0	0	0	0	0	0	0	0	0	0	0
072419	16:30:48	16:39:36	527863	5.0.10.0	5_exp_noRW	86	Rpleas_acq	CS_B	MQQM	JXXJ	YDDY	BZZB	GWWG	VKKV	retten	spielen	ehrlich	fair	schön	treu	rächen	strafen	eitel	faul	schlecht	tot	47pct	acq_USpleas_CSunple2_noRW	acq23456_noRW	3	65	0	0	300	300	604	50	0	1	1	blank2r.bmp	0	1	+	0	1	blank2r.bmp	252	1	BZZB	306	2	schön	559	0	0	0	0	0	0	0	0	0	0	0	0	0	0	0	0	0	0	0	0	0	0	0	0	0	0	0	0	0	0	0	0	0	0	0	0	0	0	0
072419	16:30:48	16:39:38	529516	5.0.10.0	5_exp_noRW	86	Rpleas_acq	CS_B	MQQM	JXXJ	YDDY	BZZB	GWWG	VKKV	retten	spielen	ehrlich	fair	schön	treu	rächen	strafen	eitel	faul	schlecht	tot	47pct	acq_USunple_CSunple2_noRW	acq23456_noRW	3	66	0	0	300	300	481	46	0	1	1	blank2r.bmp	0	1	+	0	1	blank2r.bmp	252	1	BZZB	306	3	tot	559	0	0	0	0	0	0	0	0	0	0	0	0	0	0	0	0	0	0	0	0	0	0	0	0	0	0	0	0	0	0	0	0	0	0	0	0	0	0	0
072419	16:30:48	16:39:40	531075	5.0.10.0	5_exp_noRW	86	Rpleas_acq	CS_B	MQQM	JXXJ	YDDY	BZZB	GWWG	VKKV	retten	spielen	ehrlich	fair	schön	treu	rächen	strafen	eitel	faul	schlecht	tot	47pct	acq_USunple_CSunple2_noRW	acq23456_noRW	3	67	0	0	300	300	389	46	0	1	1	blank2r.bmp	0	1	+	0	1	blank2r.bmp	252	1	BZZB	306	3	tot	559	0	0	0	0	0	0	0	0	0	0	0	0	0	0	0	0	0	0	0	0	0	0	0	0	0	0	0	0	0	0	0	0	0	0	0	0	0	0	0
072419	16:30:48	16:39:41	532928	5.0.10.0	5_exp_noRW	86	Rpleas_acq	CS_B	MQQM	JXXJ	YDDY	BZZB	GWWG	VKKV	retten	spielen	ehrlich	fair	schön	treu	rächen	strafen	eitel	faul	schlecht	tot	47pct	acq_USpleas_CSpleas1_noRW	acq23456_noRW	3	68	0	0	300	300	682	50	0	1	1	blank2r.bmp	0	1	+	0	1	blank2r.bmp	252	1	MQQM	306	1	retten	559	0	0	0	0	0	0	0	0	0	0	0	0	0	0	0	0	0	0	0	0	0	0	0	0	0	0	0	0	0	0	0	0	0	0	0	0	0	0	0
072419	16:30:48	16:39:43	534540	5.0.10.0	5_exp_noRW	86	Rpleas_acq	CS_B	MQQM	JXXJ	YDDY	BZZB	GWWG	VKKV	retten	spielen	ehrlich	fair	schön	treu	rächen	strafen	eitel	faul	schlecht	tot	47pct	acq_USpleas_CSpleas1_noRW	acq23456_noRW	3	69	0	0	300	300	426	50	0	1	1	blank2r.bmp	0	1	+	0	1	blank2r.bmp	252	1	MQQM	306	1	retten	559	0	0	0	0	0	0	0	0	0	0	0	0	0	0	0	0	0	0	0	0	0	0	0	0	0	0	0	0	0	0	0	0	0	0	0	0	0	0	0
072419	16:30:48	16:39:45	536153	5.0.10.0	5_exp_noRW	86	Rpleas_acq	CS_B	MQQM	JXXJ	YDDY	BZZB	GWWG	VKKV	retten	spielen	ehrlich	fair	schön	treu	rächen	strafen	eitel	faul	schlecht	tot	53pct	acq_USunple_CSpleas2_noRW	acq23456_noRW	3	70	0	0	300	300	439	46	0	1	1	blank2r.bmp	0	1	+	0	1	blank2r.bmp	252	1	JXXJ	306	3	tot	559	0	0	0	0	0	0	0	0	0	0	0	0	0	0	0	0	0	0	0	0	0	0	0	0	0	0	0	0	0	0	0	0	0	0	0	0	0	0	0
072419	16:30:48	16:39:46	538032	5.0.10.0	5_exp_noRW	86	Rpleas_acq	CS_B	MQQM	JXXJ	YDDY	BZZB	GWWG	VKKV	retten	spielen	ehrlich	fair	schön	treu	rächen	strafen	eitel	faul	schlecht	tot	53pct	acq_USpleas_CSpleas2_noRW	acq23456_noRW	3	71	0	0	300	300	710	50	0	1	1	blank2r.bmp	0	1	+	0	1	blank2r.bmp	252	1	JXXJ	306	3	treu	559	0	0	0	0	0	0	0	0	0	0	0	0	0	0	0	0	0	0	0	0	0	0	0	0	0	0	0	0	0	0	0	0	0	0	0	0	0	0	0
072419	16:30:48	16:39:48	539831	5.0.10.0	5_exp_noRW	86	Rpleas_acq	CS_B	MQQM	JXXJ	YDDY	BZZB	GWWG	VKKV	retten	spielen	ehrlich	fair	schön	treu	rächen	strafen	eitel	faul	schlecht	tot	53pct	acq_USpleas_CSpleas2_noRW	acq23456_noRW	3	72	0	0	300	300	637	50	0	1	1	blank2r.bmp	0	1	+	0	1	blank2r.bmp	252	1	JXXJ	306	1	fair	559	0	0	0	0	0	0	0	0	0	0	0	0	0	0	0	0	0	0	0	0	0	0	0	0	0	0	0	0	0	0	0	0	0	0	0	0	0	0	0
072419	16:30:48	16:39:50	541764	5.0.10.0	5_exp_noRW	86	Rpleas_acq	CS_B	MQQM	JXXJ	YDDY	BZZB	GWWG	VKKV	retten	spielen	ehrlich	fair	schön	treu	rächen	strafen	eitel	faul	schlecht	tot	53pct	acq_USunple_CSunple2_noRW	acq23456_noRW	3	73	0	0	300	300	746	46	0	1	1	blank2r.bmp	0	1	+	0	1	blank2r.bmp	252	1	BZZB	306	2	schlecht	559	0	0	0	0	0	0	0	0	0	0	0	0	0	0	0	0	0	0	0	0	0	0	0	0	0	0	0	0	0	0	0	0	0	0	0	0	0	0	0
072419	16:30:48	16:39:52	543590	5.0.10.0	5_exp_noRW	86	Rpleas_acq	CS_B	MQQM	JXXJ	YDDY	BZZB	GWWG	VKKV	retten	spielen	ehrlich	fair	schön	treu	rächen	strafen	eitel	faul	schlecht	tot	47pct	acq_USpleas_CSunple1_noRW	acq23456_noRW	3	74	0	0	300	300	656	50	0	1	1	blank2r.bmp	0	1	+	0	1	blank2r.bmp	252	1	YDDY	306	2	spielen	559	0	0	0	0	0	0	0	0	0	0	0	0	0	0	0	0	0	0	0	0	0	0	0	0	0	0	0	0	0	0	0	0	0	0	0	0	0	0	0
072419	16:30:48	16:39:54	545749	5.0.10.0	5_exp_noRW	86	Rpleas_acq	CS_B	MQQM	JXXJ	YDDY	BZZB	GWWG	VKKV	retten	spielen	ehrlich	fair	schön	treu	rächen	strafen	eitel	faul	schlecht	tot	47pct	acq_USpleas_CSpleas1_noRW	acq23456_noRW	3	75	0	0	300	300	996	50	0	1	1	blank2r.bmp	0	1	+	0	1	blank2r.bmp	252	1	MQQM	306	3	ehrlich	559	0	0	0	0	0	0	0	0	0	0	0	0	0	0	0	0	0	0	0	0	0	0	0	0	0	0	0	0	0	0	0	0	0	0	0	0	0	0	0
072419	16:30:48	16:39:56	547428	5.0.10.0	5_exp_noRW	86	Rpleas_acq	CS_B	MQQM	JXXJ	YDDY	BZZB	GWWG	VKKV	retten	spielen	ehrlich	fair	schön	treu	rächen	strafen	eitel	faul	schlecht	tot	47pct	acq_USunple_CSunple2_noRW	acq23456_noRW	3	76	0	0	300	300	500	46	0	1	1	blank2r.bmp	0	1	+	0	1	blank2r.bmp	252	1	BZZB	306	1	faul	559	0	0	0	0	0	0	0	0	0	0	0	0	0	0	0	0	0	0	0	0	0	0	0	0	0	0	0	0	0	0	0	0	0	0	0	0	0	0	0
072419	16:30:48	16:39:58	549294	5.0.10.0	5_exp_noRW	86	Rpleas_acq	CS_B	MQQM	JXXJ	YDDY	BZZB	GWWG	VKKV	retten	spielen	ehrlich	fair	schön	treu	rächen	strafen	eitel	faul	schlecht	tot	47pct	acq_USpleas_CSpleas2_noRW	acq23456_noRW	3	77	0	0	300	300	681	50	0	1	1	blank2r.bmp	0	1	+	0	1	blank2r.bmp	252	1	JXXJ	306	2	schön	559	0	0	0	0	0	0	0	0	0	0	0	0	0	0	0	0	0	0	0	0	0	0	0	0	0	0	0	0	0	0	0	0	0	0	0	0	0	0	0
072419	16:30:48	16:40:00	551093	5.0.10.0	5_exp_noRW	86	Rpleas_acq	CS_B	MQQM	JXXJ	YDDY	BZZB	GWWG	VKKV	retten	spielen	ehrlich	fair	schön	treu	rächen	strafen	eitel	faul	schlecht	tot	47pct	acq_USunple_CSunple1_noRW	acq23456_noRW	3	78	0	0	300	300	630	46	0	1	1	blank2r.bmp	0	1	+	0	1	blank2r.bmp	252	1	YDDY	306	1	rächen	559	0	0	0	0	0	0	0	0	0	0	0	0	0	0	0	0	0	0	0	0	0	0	0	0	0	0	0	0	0	0	0	0	0	0	0	0	0	0	0
072419	16:30:48	16:40:01	552786	5.0.10.0	5_exp_noRW	86	Rpleas_acq	CS_B	MQQM	JXXJ	YDDY	BZZB	GWWG	VKKV	retten	spielen	ehrlich	fair	schön	treu	rächen	strafen	eitel	faul	schlecht	tot	53pct	acq_USpleas_CSpleas1_noRW	acq23456_noRW	3	79	0	0	300	300	527	50	0	1	1	blank2r.bmp	0	1	+	0	1	blank2r.bmp	252	1	MQQM	306	2	spielen	559	0	0	0	0	0	0	0	0	0	0	0	0	0	0	0	0	0	0	0	0	0	0	0	0	0	0	0	0	0	0	0	0	0	0	0	0	0	0	0
072419	16:30:48	16:40:03	554785	5.0.10.0	5_exp_noRW	86	Rpleas_acq	CS_B	MQQM	JXXJ	YDDY	BZZB	GWWG	VKKV	retten	spielen	ehrlich	fair	schön	treu	rächen	strafen	eitel	faul	schlecht	tot	53pct	acq_USunple_CSpleas1_noRW	acq23456_noRW	3	80	0	0	300	300	816	46	0	1	1	blank2r.bmp	0	1	+	0	1	blank2r.bmp	252	1	MQQM	306	1	rächen	559	0	0	0	0	0	0	0	0	0	0	0	0	0	0	0	0	0	0	0	0	0	0	0	0	0	0	0	0	0	0	0	0	0	0	0	0	0	0	0
072419	16:30:48	16:40:29	580175	5.0.10.0	5_exp_noRW	86	Rpleas_acq	CS_B	MQQM	JXXJ	YDDY	BZZB	GWWG	VKKV	retten	spielen	ehrlich	fair	schön	treu	rächen	strafen	eitel	faul	schlecht	tot	47pct	acq_USpleas_CSpleas2_noRW	acq23456_noRW	4	1	0	0	300	300	568	50	0	1	1	blank2r.bmp	0	1	+	0	1	blank2r.bmp	252	1	JXXJ	306	3	treu	559	0	0	0	0	0	0	0	0	0	0	0	0	0	0	0	0	0	0	0	0	0	0	0	0	0	0	0	0	0	0	0	0	0	0	0	0	0	0	0
072419	16:30:48	16:40:30	581774	5.0.10.0	5_exp_noRW	86	Rpleas_acq	CS_B	MQQM	JXXJ	YDDY	BZZB	GWWG	VKKV	retten	spielen	ehrlich	fair	schön	treu	rächen	strafen	eitel	faul	schlecht	tot	47pct	acq_USunple_CSpleas1_noRW	acq23456_noRW	4	2	0	0	300	300	423	46	0	1	1	blank2r.bmp	0	1	+	0	1	blank2r.bmp	252	1	MQQM	306	2	strafen	559	0	0	0	0	0	0	0	0	0	0	0	0	0	0	0	0	0	0	0	0	0	0	0	0	0	0	0	0	0	0	0	0	0	0	0	0	0	0	0
072419	16:30:48	16:40:32	583627	5.0.10.0	5_exp_noRW	86	Rpleas_acq	CS_B	MQQM	JXXJ	YDDY	BZZB	GWWG	VKKV	retten	spielen	ehrlich	fair	schön	treu	rächen	strafen	eitel	faul	schlecht	tot	47pct	acq_USpleas_CSpleas1_noRW	acq23456_noRW	4	3	0	0	300	300	670	50	0	1	1	blank2r.bmp	0	1	+	0	1	blank2r.bmp	252	1	MQQM	306	1	retten	559	0	0	0	0	0	0	0	0	0	0	0	0	0	0	0	0	0	0	0	0	0	0	0	0	0	0	0	0	0	0	0	0	0	0	0	0	0	0	0
072419	16:30:48	16:40:34	585506	5.0.10.0	5_exp_noRW	86	Rpleas_acq	CS_B	MQQM	JXXJ	YDDY	BZZB	GWWG	VKKV	retten	spielen	ehrlich	fair	schön	treu	rächen	strafen	eitel	faul	schlecht	tot	53pct	acq_USpleas_CSpleas1_noRW	acq23456_noRW	4	4	0	0	300	300	702	50	0	1	1	blank2r.bmp	0	1	+	0	1	blank2r.bmp	252	1	MQQM	306	2	spielen	559	0	0	0	0	0	0	0	0	0	0	0	0	0	0	0	0	0	0	0	0	0	0	0	0	0	0	0	0	0	0	0	0	0	0	0	0	0	0	0
072419	16:30:48	16:40:36	587119	5.0.10.0	5_exp_noRW	86	Rpleas_acq	CS_B	MQQM	JXXJ	YDDY	BZZB	GWWG	VKKV	retten	spielen	ehrlich	fair	schön	treu	rächen	strafen	eitel	faul	schlecht	tot	47pct	acq_USunple_CSunple1_noRW	acq23456_noRW	4	5	0	0	300	300	428	46	0	1	1	blank2r.bmp	0	1	+	0	1	blank2r.bmp	252	1	YDDY	306	3	eitel	559	0	0	0	0	0	0	0	0	0	0	0	0	0	0	0	0	0	0	0	0	0	0	0	0	0	0	0	0	0	0	0	0	0	0	0	0	0	0	0
072419	16:30:48	16:40:37	588705	5.0.10.0	5_exp_noRW	86	Rpleas_acq	CS_B	MQQM	JXXJ	YDDY	BZZB	GWWG	VKKV	retten	spielen	ehrlich	fair	schön	treu	rächen	strafen	eitel	faul	schlecht	tot	47pct	acq_USunple_CSunple2_noRW	acq23456_noRW	4	6	0	0	300	300	407	46	0	1	1	blank2r.bmp	0	1	+	0	1	blank2r.bmp	252	1	BZZB	306	3	tot	559	0	0	0	0	0	0	0	0	0	0	0	0	0	0	0	0	0	0	0	0	0	0	0	0	0	0	0	0	0	0	0	0	0	0	0	0	0	0	0
072419	16:30:48	16:40:39	590437	5.0.10.0	5_exp_noRW	86	Rpleas_acq	CS_B	MQQM	JXXJ	YDDY	BZZB	GWWG	VKKV	retten	spielen	ehrlich	fair	schön	treu	rächen	strafen	eitel	faul	schlecht	tot	47pct	acq_USpleas_CSpleas2_noRW	acq23456_noRW	4	7	0	0	300	300	552	50	0	1	1	blank2r.bmp	0	1	+	0	1	blank2r.bmp	252	1	JXXJ	306	1	fair	559	0	0	0	0	0	0	0	0	0	0	0	0	0	0	0	0	0	0	0	0	0	0	0	0	0	0	0	0	0	0	0	0	0	0	0	0	0	0	0
072419	16:30:48	16:40:41	592197	5.0.10.0	5_exp_noRW	86	Rpleas_acq	CS_B	MQQM	JXXJ	YDDY	BZZB	GWWG	VKKV	retten	spielen	ehrlich	fair	schön	treu	rächen	strafen	eitel	faul	schlecht	tot	47pct	acq_USpleas_CSpleas1_noRW	acq23456_noRW	4	8	0	0	300	300	577	50	0	1	1	blank2r.bmp	0	1	+	0	1	blank2r.bmp	252	1	MQQM	306	3	ehrlich	559	0	0	0	0	0	0	0	0	0	0	0	0	0	0	0	0	0	0	0	0	0	0	0	0	0	0	0	0	0	0	0	0	0	0	0	0	0	0	0
072419	16:30:48	16:40:42	593889	5.0.10.0	5_exp_noRW	86	Rpleas_acq	CS_B	MQQM	JXXJ	YDDY	BZZB	GWWG	VKKV	retten	spielen	ehrlich	fair	schön	treu	rächen	strafen	eitel	faul	schlecht	tot	53pct	acq_USunple_CSunple2_noRW	acq23456_noRW	4	9	0	0	300	300	530	46	0	1	1	blank2r.bmp	0	1	+	0	1	blank2r.bmp	252	1	BZZB	306	2	schlecht	559	0	0	0	0	0	0	0	0	0	0	0	0	0	0	0	0	0	0	0	0	0	0	0	0	0	0	0	0	0	0	0	0	0	0	0	0	0	0	0
