date	time	script.currenttime	script.elapsedtime	build	script.currentexpt	subject	expressions.LRpleas_acq	expressions.conditionCS_A	expressions.CSpleas_1	expressions.CSpleas_2	expressions.CSunple_1	expressions.CSunple_2	expressions.distractor_1	expressions.distractor_2	expressions.US_pleas1	expressions.US_pleas2	expressions.US_pleas3	expressions.US_pleas4	expressions.US_pleas5	expressions.US_pleas6	expressions.US_unple1	expressions.US_unple2	expressions.US_unple3	expressions.US_unple4	expressions.US_unple5	expressions.US_unple6	counter.positions_noRW	trialcode	blockcode	blocknum	trialnum	windowcenter	inwindow	pretrialpause	posttrialpause	latency	response	expressions.correctedscore	correct	stimulusnumber1	stimulusitem1	stimulusonset1	stimulusnumber2	stimulusitem2	stimulusonset2	stimulusnumber3	stimulusitem3	stimulusonset3	stimulusnumber4	stimulusitem4	stimulusonset4	stimulusnumber5	stimulusitem5	stimulusonset5	stimulusnumber6	stimulusitem6	stimulusonset6	stimulusnumber7	stimulusitem7	stimulusonset7	stimulusnumber8	stimulusitem8	stimulusonset8	stimulusnumber9	stimulusitem9	stimulusonset9	stimulusnumber10	stimulusitem10	stimulusonset10	stimulusnumber11	stimulusitem11	stimulusonset11	stimulusnumber12	stimulusitem12	stimulusonset12	stimulusnumber13	stimulusitem13	stimulusonset13	stimulusnumber14	stimulusitem14	stimulusonset14	stimulusnumber15	stimulusitem15	stimulusonset15	stimulusnumber16	stimulusitem16	stimulusonset16	stimulusnumber17	stimulusitem17	stimulusonset17	stimulusnumber18	stimulusitem18	stimulusonset18
073019	10:45:26	10:47:59	151577	5.0.10.0	5_exp_RW	89	Rpleas_acq	CS_A	JQQJ	DXXD	YFFY	LWWL	CPPC	ZHHZ	vertrauen	sonnig	gütig	träumen	genießen	küssen	versagen	sterben	gierig	töten	gemein	krank	1	acq_USpleas_CSpleas1_RW	acq1_RW	1	1	0	0	300	300	7096	50	0	1	1	blank2r.bmp	0	1	+	0	1	blank2r.bmp	492	1	JQQJ	492	1	blank2r.bmp	572	2	sonnig	866	0	0	0	0	0	0	0	0	0	0	0	0	0	0	0	0	0	0	0	0	0	0	0	0	0	0	0	0	0	0	0	0	0	0	0	0
073019	10:45:26	10:48:01	153830	5.0.10.0	5_exp_RW	89	Rpleas_acq	CS_A	JQQJ	DXXD	YFFY	LWWL	CPPC	ZHHZ	vertrauen	sonnig	gütig	träumen	genießen	küssen	versagen	sterben	gierig	töten	gemein	krank	1	acq_USpleas_CSpleas2_RW	acq1_RW	1	2	0	0	300	300	768	50	0	1	1	blank2r.bmp	0	1	+	0	1	blank2r.bmp	492	1	DXXD	492	1	blank2r.bmp	572	2	genießen	866	0	0	0	0	0	0	0	0	0	0	0	0	0	0	0	0	0	0	0	0	0	0	0	0	0	0	0	0	0	0	0	0	0	0	0	0
073019	10:45:26	10:48:03	156016	5.0.10.0	5_exp_RW	89	Rpleas_acq	CS_A	JQQJ	DXXD	YFFY	LWWL	CPPC	ZHHZ	vertrauen	sonnig	gütig	träumen	genießen	küssen	versagen	sterben	gierig	töten	gemein	krank	1	acq_USunple_CSunple2_RW	acq1_RW	1	3	0	0	300	300	713	46	0	1	1	blank2r.bmp	0	1	+	0	1	blank2r.bmp	492	1	LWWL	492	1	blank2r.bmp	572	2	gemein	866	0	0	0	0	0	0	0	0	0	0	0	0	0	0	0	0	0	0	0	0	0	0	0	0	0	0	0	0	0	0	0	0	0	0	0	0
073019	10:45:26	10:48:05	158081	5.0.10.0	5_exp_RW	89	Rpleas_acq	CS_A	JQQJ	DXXD	YFFY	LWWL	CPPC	ZHHZ	vertrauen	sonnig	gütig	träumen	genießen	küssen	versagen	sterben	gierig	töten	gemein	krank	1	acq_USpleas_CSpleas1_RW	acq1_RW	1	4	0	0	300	300	589	50	0	1	1	blank2r.bmp	0	1	+	0	1	blank2r.bmp	492	1	JQQJ	492	1	blank2r.bmp	572	1	vertrauen	866	0	0	0	0	0	0	0	0	0	0	0	0	0	0	0	0	0	0	0	0	0	0	0	0	0	0	0	0	0	0	0	0	0	0	0	0
073019	10:45:26	10:48:07	160334	5.0.10.0	5_exp_RW	89	Rpleas_acq	CS_A	JQQJ	DXXD	YFFY	LWWL	CPPC	ZHHZ	vertrauen	sonnig	gütig	träumen	genießen	küssen	versagen	sterben	gierig	töten	gemein	krank	1	acq_USpleas_CSpleas1_RW	acq1_RW	1	5	0	0	300	300	775	50	0	1	1	blank2r.bmp	0	1	+	0	1	blank2r.bmp	492	1	JQQJ	492	1	blank2r.bmp	572	3	gütig	866	0	0	0	0	0	0	0	0	0	0	0	0	0	0	0	0	0	0	0	0	0	0	0	0	0	0	0	0	0	0	0	0	0	0	0	0
073019	10:45:26	10:48:09	162373	5.0.10.0	5_exp_RW	89	Rpleas_acq	CS_A	JQQJ	DXXD	YFFY	LWWL	CPPC	ZHHZ	vertrauen	sonnig	gütig	träumen	genießen	küssen	versagen	sterben	gierig	töten	gemein	krank	1	acq_USunple_CSunple1_RW	acq1_RW	1	6	0	0	300	300	545	46	0	1	1	blank2r.bmp	0	1	+	0	1	blank2r.bmp	492	1	YFFY	492	1	blank2r.bmp	572	2	sterben	866	0	0	0	0	0	0	0	0	0	0	0	0	0	0	0	0	0	0	0	0	0	0	0	0	0	0	0	0	0	0	0	0	0	0	0	0
073019	10:45:26	10:48:12	164572	5.0.10.0	5_exp_RW	89	Rpleas_acq	CS_A	JQQJ	DXXD	YFFY	LWWL	CPPC	ZHHZ	vertrauen	sonnig	gütig	träumen	genießen	küssen	versagen	sterben	gierig	töten	gemein	krank	1	acq_USpleas_CSpleas2_RW	acq1_RW	1	7	0	0	300	300	722	50	0	1	1	blank2r.bmp	0	1	+	0	1	blank2r.bmp	492	1	DXXD	492	1	blank2r.bmp	572	3	küssen	866	0	0	0	0	0	0	0	0	0	0	0	0	0	0	0	0	0	0	0	0	0	0	0	0	0	0	0	0	0	0	0	0	0	0	0	0
073019	10:45:26	10:48:14	166784	5.0.10.0	5_exp_RW	89	Rpleas_acq	CS_A	JQQJ	DXXD	YFFY	LWWL	CPPC	ZHHZ	vertrauen	sonnig	gütig	träumen	genießen	küssen	versagen	sterben	gierig	töten	gemein	krank	1	acq_USunple_CSunple2_RW	acq1_RW	1	8	0	0	300	300	724	46	0	1	1	blank2r.bmp	0	1	+	0	1	blank2r.bmp	492	1	LWWL	492	1	blank2r.bmp	572	3	krank	866	0	0	0	0	0	0	0	0	0	0	0	0	0	0	0	0	0	0	0	0	0	0	0	0	0	0	0	0	0	0	0	0	0	0	0	0
073019	10:45:26	10:48:18	170596	5.0.10.0	5_exp_RW	89	Rpleas_acq	CS_A	JQQJ	DXXD	YFFY	LWWL	CPPC	ZHHZ	vertrauen	sonnig	gütig	träumen	genießen	küssen	versagen	sterben	gierig	töten	gemein	krank	1	acq_USunple_CSunple1_RW	acq1_RW	1	9	0	0	300	300	2323	46	0	1	1	blank2r.bmp	0	1	+	0	1	blank2r.bmp	492	1	YFFY	492	1	blank2r.bmp	572	3	gierig	866	0	0	0	0	0	0	0	0	0	0	0	0	0	0	0	0	0	0	0	0	0	0	0	0	0	0	0	0	0	0	0	0	0	0	0	0
073019	10:45:26	10:48:20	172582	5.0.10.0	5_exp_RW	89	Rpleas_acq	CS_A	JQQJ	DXXD	YFFY	LWWL	CPPC	ZHHZ	vertrauen	sonnig	gütig	träumen	genießen	küssen	versagen	sterben	gierig	töten	gemein	krank	1	acq_USpleas_CSpleas2_RW	acq1_RW	1	10	0	0	300	300	497	50	0	1	1	blank2r.bmp	0	1	+	0	1	blank2r.bmp	492	1	DXXD	492	1	blank2r.bmp	572	1	träumen	866	0	0	0	0	0	0	0	0	0	0	0	0	0	0	0	0	0	0	0	0	0	0	0	0	0	0	0	0	0	0	0	0	0	0	0	0
073019	10:45:26	10:48:22	174661	5.0.10.0	5_exp_RW	89	Rpleas_acq	CS_A	JQQJ	DXXD	YFFY	LWWL	CPPC	ZHHZ	vertrauen	sonnig	gütig	träumen	genießen	küssen	versagen	sterben	gierig	töten	gemein	krank	1	acq_USunple_CSunple2_RW	acq1_RW	1	11	0	0	300	300	600	46	0	1	1	blank2r.bmp	0	1	+	0	1	blank2r.bmp	492	1	LWWL	492	1	blank2r.bmp	572	1	töten	866	0	0	0	0	0	0	0	0	0	0	0	0	0	0	0	0	0	0	0	0	0	0	0	0	0	0	0	0	0	0	0	0	0	0	0	0
073019	10:45:26	10:48:24	176940	5.0.10.0	5_exp_RW	89	Rpleas_acq	CS_A	JQQJ	DXXD	YFFY	LWWL	CPPC	ZHHZ	vertrauen	sonnig	gütig	träumen	genießen	küssen	versagen	sterben	gierig	töten	gemein	krank	1	acq_USunple_CSunple2_RW	acq1_RW	1	12	0	0	300	300	798	46	0	1	1	blank2r.bmp	0	1	+	0	1	blank2r.bmp	492	1	LWWL	492	1	blank2r.bmp	572	1	töten	866	0	0	0	0	0	0	0	0	0	0	0	0	0	0	0	0	0	0	0	0	0	0	0	0	0	0	0	0	0	0	0	0	0	0	0	0
073019	10:45:26	10:48:26	178993	5.0.10.0	5_exp_RW	89	Rpleas_acq	CS_A	JQQJ	DXXD	YFFY	LWWL	CPPC	ZHHZ	vertrauen	sonnig	gütig	träumen	genießen	küssen	versagen	sterben	gierig	töten	gemein	krank	1	acq_USpleas_CSpleas2_RW	acq1_RW	1	13	0	0	300	300	572	50	0	1	1	blank2r.bmp	0	1	+	0	1	blank2r.bmp	492	1	DXXD	492	1	blank2r.bmp	572	2	genießen	866	0	0	0	0	0	0	0	0	0	0	0	0	0	0	0	0	0	0	0	0	0	0	0	0	0	0	0	0	0	0	0	0	0	0	0	0
073019	10:45:26	10:48:28	181285	5.0.10.0	5_exp_RW	89	Rpleas_acq	CS_A	JQQJ	DXXD	YFFY	LWWL	CPPC	ZHHZ	vertrauen	sonnig	gütig	träumen	genießen	küssen	versagen	sterben	gierig	töten	gemein	krank	1	acq_USpleas_CSpleas1_RW	acq1_RW	1	14	0	0	300	300	813	50	0	1	1	blank2r.bmp	0	1	+	0	1	blank2r.bmp	492	1	JQQJ	492	1	blank2r.bmp	572	3	gütig	866	0	0	0	0	0	0	0	0	0	0	0	0	0	0	0	0	0	0	0	0	0	0	0	0	0	0	0	0	0	0	0	0	0	0	0	0
073019	10:45:26	10:48:31	183631	5.0.10.0	5_exp_RW	89	Rpleas_acq	CS_A	JQQJ	DXXD	YFFY	LWWL	CPPC	ZHHZ	vertrauen	sonnig	gütig	träumen	genießen	küssen	versagen	sterben	gierig	töten	gemein	krank	1	acq_USunple_CSunple1_RW	acq1_RW	1	15	0	0	300	300	877	46	0	1	1	blank2r.bmp	0	1	+	0	1	blank2r.bmp	492	1	YFFY	492	1	blank2r.bmp	572	1	versagen	866	0	0	0	0	0	0	0	0	0	0	0	0	0	0	0	0	0	0	0	0	0	0	0	0	0	0	0	0	0	0	0	0	0	0	0	0
073019	10:45:26	10:48:33	185803	5.0.10.0	5_exp_RW	89	Rpleas_acq	CS_A	JQQJ	DXXD	YFFY	LWWL	CPPC	ZHHZ	vertrauen	sonnig	gütig	träumen	genießen	küssen	versagen	sterben	gierig	töten	gemein	krank	1	acq_USunple_CSunple1_RW	acq1_RW	1	16	0	0	300	300	689	46	0	1	1	blank2r.bmp	0	1	+	0	1	blank2r.bmp	492	1	YFFY	492	1	blank2r.bmp	572	2	sterben	866	0	0	0	0	0	0	0	0	0	0	0	0	0	0	0	0	0	0	0	0	0	0	0	0	0	0	0	0	0	0	0	0	0	0	0	0
073019	10:45:26	10:49:24	236863	5.0.10.0	5_exp_RW	89	Rpleas_acq	CS_A	JQQJ	DXXD	YFFY	LWWL	CPPC	ZHHZ	vertrauen	sonnig	gütig	träumen	genießen	küssen	versagen	sterben	gierig	töten	gemein	krank	1	acq_USpleas_CSpleas1_RW	acq2_RW	2	1	480	0	300	300	11775	50	0	1	1	blank2r.bmp	0	1	+	0	1	blank2r.bmp	492	1	JQQJ	492	1	blank2r.bmp	572	2	sonnig	866	1	!	1319	1	!	-1	0	0	0	0	0	0	0	0	0	0	0	0	0	0	0	0	0	0	0	0	0	0	0	0	0	0	0	0	0	0
073019	10:45:26	10:49:26	239368	5.0.10.0	5_exp_RW	89	Rpleas_acq	CS_A	JQQJ	DXXD	YFFY	LWWL	CPPC	ZHHZ	vertrauen	sonnig	gütig	träumen	genießen	küssen	versagen	sterben	gierig	töten	gemein	krank	1	acq_USpleas_CSpleas2_RW	acq2_RW	2	2	480	0	300	300	723	50	0	1	1	blank2r.bmp	0	1	+	0	1	blank2r.bmp	492	1	DXXD	492	1	blank2r.bmp	572	1	träumen	866	1	!	1319	1	!	-1	0	0	0	0	0	0	0	0	0	0	0	0	0	0	0	0	0	0	0	0	0	0	0	0	0	0	0	0	0	0
073019	10:45:26	10:49:29	241674	5.0.10.0	5_exp_RW	89	Rpleas_acq	CS_A	JQQJ	DXXD	YFFY	LWWL	CPPC	ZHHZ	vertrauen	sonnig	gütig	träumen	genießen	küssen	versagen	sterben	gierig	töten	gemein	krank	1	acq_USpleas_CSpleas1_RW	acq2_RW	2	3	480	1	300	300	501	50	0	1	1	blank2r.bmp	0	1	+	0	1	blank2r.bmp	492	1	JQQJ	492	1	blank2r.bmp	572	1	vertrauen	866	1	!	1319	1	!	1399	0	0	0	0	0	0	0	0	0	0	0	0	0	0	0	0	0	0	0	0	0	0	0	0	0	0	0	0	0	0
073019	10:45:26	10:49:31	244126	5.0.10.0	5_exp_RW	89	Rpleas_acq	CS_A	JQQJ	DXXD	YFFY	LWWL	CPPC	ZHHZ	vertrauen	sonnig	gütig	träumen	genießen	küssen	versagen	sterben	gierig	töten	gemein	krank	1	acq_USunple_CSunple2_RW	acq2_RW	2	4	480	0	300	300	681	46	0	1	1	blank2r.bmp	0	1	+	0	1	blank2r.bmp	492	1	LWWL	492	1	blank2r.bmp	572	3	krank	866	1	!	1319	1	!	-1	0	0	0	0	0	0	0	0	0	0	0	0	0	0	0	0	0	0	0	0	0	0	0	0	0	0	0	0	0	0
073019	10:45:26	10:49:33	246485	5.0.10.0	5_exp_RW	89	Rpleas_acq	CS_A	JQQJ	DXXD	YFFY	LWWL	CPPC	ZHHZ	vertrauen	sonnig	gütig	träumen	genießen	küssen	versagen	sterben	gierig	töten	gemein	krank	1	acq_USpleas_CSpleas1_RW	acq2_RW	2	5	480	0	300	300	572	50	0	1	1	blank2r.bmp	0	1	+	0	1	blank2r.bmp	492	1	JQQJ	492	1	blank2r.bmp	572	3	gütig	866	1	!	1319	1	!	-1	0	0	0	0	0	0	0	0	0	0	0	0	0	0	0	0	0	0	0	0	0	0	0	0	0	0	0	0	0	0
073019	10:45:26	10:49:36	248831	5.0.10.0	5_exp_RW	89	Rpleas_acq	CS_A	JQQJ	DXXD	YFFY	LWWL	CPPC	ZHHZ	vertrauen	sonnig	gütig	träumen	genießen	küssen	versagen	sterben	gierig	töten	gemein	krank	1	acq_USunple_CSunple2_RW	acq2_RW	2	6	480	0	300	300	559	46	0	1	1	blank2r.bmp	0	1	+	0	1	blank2r.bmp	492	1	LWWL	492	1	blank2r.bmp	572	2	gemein	866	1	!	1319	1	!	-1	0	0	0	0	0	0	0	0	0	0	0	0	0	0	0	0	0	0	0	0	0	0	0	0	0	0	0	0	0	0
073019	10:45:26	10:49:38	251203	5.0.10.0	5_exp_RW	89	Rpleas_acq	CS_A	JQQJ	DXXD	YFFY	LWWL	CPPC	ZHHZ	vertrauen	sonnig	gütig	träumen	genießen	küssen	versagen	sterben	gierig	töten	gemein	krank	1	acq_USunple_CSunple1_RW	acq2_RW	2	7	480	0	300	300	367	50	0	0	1	blank2r.bmp	0	1	+	0	1	blank2r.bmp	492	1	YFFY	492	1	blank2r.bmp	572	3	gierig	866	1	FEHLER	1572	1	!	-1	1	!	-1	0	0	0	0	0	0	0	0	0	0	0	0	0	0	0	0	0	0	0	0	0	0	0	0	0	0	0
073019	10:45:26	10:49:40	253469	5.0.10.0	5_exp_RW	89	Rpleas_acq	CS_A	JQQJ	DXXD	YFFY	LWWL	CPPC	ZHHZ	vertrauen	sonnig	gütig	träumen	genießen	küssen	versagen	sterben	gierig	töten	gemein	krank	1	acq_USpleas_CSpleas1_RW	acq2_RW	2	8	480	1	300	300	467	46	0	0	1	blank2r.bmp	0	1	+	0	1	blank2r.bmp	492	1	JQQJ	492	1	blank2r.bmp	572	2	sonnig	866	1	FEHLER	1692	1	!	1319	1	!	1372	0	0	0	0	0	0	0	0	0	0	0	0	0	0	0	0	0	0	0	0	0	0	0	0	0	0	0
073019	10:45:26	10:49:43	255802	5.0.10.0	5_exp_RW	89	Rpleas_acq	CS_A	JQQJ	DXXD	YFFY	LWWL	CPPC	ZHHZ	vertrauen	sonnig	gütig	träumen	genießen	küssen	versagen	sterben	gierig	töten	gemein	krank	1	acq_USunple_CSunple2_RW	acq2_RW	2	9	480	0	300	300	776	46	0	1	1	blank2r.bmp	0	1	+	0	1	blank2r.bmp	492	1	LWWL	492	1	blank2r.bmp	572	3	krank	866	1	!	1319	1	!	-1	0	0	0	0	0	0	0	0	0	0	0	0	0	0	0	0	0	0	0	0	0	0	0	0	0	0	0	0	0	0
073019	10:45:26	10:49:45	258134	5.0.10.0	5_exp_RW	89	Rpleas_acq	CS_A	JQQJ	DXXD	YFFY	LWWL	CPPC	ZHHZ	vertrauen	sonnig	gütig	träumen	genießen	küssen	versagen	sterben	gierig	töten	gemein	krank	1	acq_USpleas_CSpleas2_RW	acq2_RW	2	10	480	1	300	300	530	50	0	1	1	blank2r.bmp	0	1	+	0	1	blank2r.bmp	492	1	DXXD	492	1	blank2r.bmp	572	3	küssen	866	1	!	1319	1	!	1426	0	0	0	0	0	0	0	0	0	0	0	0	0	0	0	0	0	0	0	0	0	0	0	0	0	0	0	0	0	0
073019	10:45:26	10:49:47	260466	5.0.10.0	5_exp_RW	89	Rpleas_acq	CS_A	JQQJ	DXXD	YFFY	LWWL	CPPC	ZHHZ	vertrauen	sonnig	gütig	träumen	genießen	küssen	versagen	sterben	gierig	töten	gemein	krank	1	acq_USunple_CSunple2_RW	acq2_RW	2	11	480	0	300	300	559	46	0	1	1	blank2r.bmp	0	1	+	0	1	blank2r.bmp	492	1	LWWL	492	1	blank2r.bmp	572	2	gemein	866	1	!	1319	1	!	-1	0	0	0	0	0	0	0	0	0	0	0	0	0	0	0	0	0	0	0	0	0	0	0	0	0	0	0	0	0	0
073019	10:45:26	10:49:50	262732	5.0.10.0	5_exp_RW	89	Rpleas_acq	CS_A	JQQJ	DXXD	YFFY	LWWL	CPPC	ZHHZ	vertrauen	sonnig	gütig	träumen	genießen	küssen	versagen	sterben	gierig	töten	gemein	krank	1	acq_USunple_CSunple1_RW	acq2_RW	2	12	480	1	300	300	457	46	0	1	1	blank2r.bmp	0	1	+	0	1	blank2r.bmp	492	1	YFFY	492	1	blank2r.bmp	572	1	versagen	866	1	!	1319	1	!	1359	0	0	0	0	0	0	0	0	0	0	0	0	0	0	0	0	0	0	0	0	0	0	0	0	0	0	0	0	0	0
073019	10:45:26	10:49:52	264958	5.0.10.0	5_exp_RW	89	Rpleas_acq	CS_A	JQQJ	DXXD	YFFY	LWWL	CPPC	ZHHZ	vertrauen	sonnig	gütig	träumen	genießen	küssen	versagen	sterben	gierig	töten	gemein	krank	1	acq_USpleas_CSpleas1_RW	acq2_RW	2	13	480	1	300	300	431	50	0	1	1	blank2r.bmp	0	1	+	0	1	blank2r.bmp	492	1	JQQJ	492	1	blank2r.bmp	572	1	vertrauen	866	1	!	1319	1	!	1332	0	0	0	0	0	0	0	0	0	0	0	0	0	0	0	0	0	0	0	0	0	0	0	0	0	0	0	0	0	0
073019	10:45:26	10:49:54	267290	5.0.10.0	5_exp_RW	89	Rpleas_acq	CS_A	JQQJ	DXXD	YFFY	LWWL	CPPC	ZHHZ	vertrauen	sonnig	gütig	träumen	genießen	küssen	versagen	sterben	gierig	töten	gemein	krank	1	acq_USunple_CSunple2_RW	acq2_RW	2	14	480	0	300	300	564	46	0	1	1	blank2r.bmp	0	1	+	0	1	blank2r.bmp	492	1	LWWL	492	1	blank2r.bmp	572	1	töten	866	1	!	1319	1	!	-1	0	0	0	0	0	0	0	0	0	0	0	0	0	0	0	0	0	0	0	0	0	0	0	0	0	0	0	0	0	0
073019	10:45:26	10:49:56	269423	5.0.10.0	5_exp_RW	89	Rpleas_acq	CS_A	JQQJ	DXXD	YFFY	LWWL	CPPC	ZHHZ	vertrauen	sonnig	gütig	träumen	genießen	küssen	versagen	sterben	gierig	töten	gemein	krank	1	acq_USpleas_CSpleas2_RW	acq2_RW	2	15	480	0	300	300	346	50	0	1	1	blank2r.bmp	0	1	+	0	1	blank2r.bmp	492	1	DXXD	492	1	blank2r.bmp	572	1	träumen	866	1	!	-1	1	!	-1	0	0	0	0	0	0	0	0	0	0	0	0	0	0	0	0	0	0	0	0	0	0	0	0	0	0	0	0	0	0
073019	10:45:26	10:49:59	271702	5.0.10.0	5_exp_RW	89	Rpleas_acq	CS_A	JQQJ	DXXD	YFFY	LWWL	CPPC	ZHHZ	vertrauen	sonnig	gütig	träumen	genießen	küssen	versagen	sterben	gierig	töten	gemein	krank	1	acq_USpleas_CSpleas2_RW	acq2_RW	2	16	480	1	300	300	472	50	0	1	1	blank2r.bmp	0	1	+	0	1	blank2r.bmp	492	1	DXXD	492	1	blank2r.bmp	572	2	genießen	866	1	!	1319	1	!	1372	0	0	0	0	0	0	0	0	0	0	0	0	0	0	0	0	0	0	0	0	0	0	0	0	0	0	0	0	0	0
073019	10:45:26	10:50:01	273954	5.0.10.0	5_exp_RW	89	Rpleas_acq	CS_A	JQQJ	DXXD	YFFY	LWWL	CPPC	ZHHZ	vertrauen	sonnig	gütig	träumen	genießen	küssen	versagen	sterben	gierig	töten	gemein	krank	1	acq_USpleas_CSpleas2_RW	acq2_RW	2	17	480	1	300	300	454	50	0	1	1	blank2r.bmp	0	1	+	0	1	blank2r.bmp	492	1	DXXD	492	1	blank2r.bmp	572	3	küssen	866	1	!	1319	1	!	1359	0	0	0	0	0	0	0	0	0	0	0	0	0	0	0	0	0	0	0	0	0	0	0	0	0	0	0	0	0	0
073019	10:45:26	10:50:03	276087	5.0.10.0	5_exp_RW	89	Rpleas_acq	CS_A	JQQJ	DXXD	YFFY	LWWL	CPPC	ZHHZ	vertrauen	sonnig	gütig	träumen	genießen	küssen	versagen	sterben	gierig	töten	gemein	krank	1	acq_USunple_CSunple1_RW	acq2_RW	2	18	480	0	300	300	360	46	0	1	1	blank2r.bmp	0	1	+	0	1	blank2r.bmp	492	1	YFFY	492	1	blank2r.bmp	572	2	sterben	866	1	!	-1	1	!	-1	0	0	0	0	0	0	0	0	0	0	0	0	0	0	0	0	0	0	0	0	0	0	0	0	0	0	0	0	0	0
073019	10:45:26	10:50:05	278219	5.0.10.0	5_exp_RW	89	Rpleas_acq	CS_A	JQQJ	DXXD	YFFY	LWWL	CPPC	ZHHZ	vertrauen	sonnig	gütig	träumen	genießen	küssen	versagen	sterben	gierig	töten	gemein	krank	1	acq_USpleas_CSpleas1_RW	acq2_RW	2	19	480	0	300	300	335	50	0	1	1	blank2r.bmp	0	1	+	0	1	blank2r.bmp	492	1	JQQJ	492	1	blank2r.bmp	572	1	vertrauen	866	1	!	-1	1	!	-1	0	0	0	0	0	0	0	0	0	0	0	0	0	0	0	0	0	0	0	0	0	0	0	0	0	0	0	0	0	0
073019	10:45:26	10:50:08	280605	5.0.10.0	5_exp_RW	89	Rpleas_acq	CS_A	JQQJ	DXXD	YFFY	LWWL	CPPC	ZHHZ	vertrauen	sonnig	gütig	träumen	genießen	küssen	versagen	sterben	gierig	töten	gemein	krank	1	acq_USunple_CSunple1_RW	acq2_RW	2	20	480	0	300	300	380	50	0	0	1	blank2r.bmp	0	1	+	0	1	blank2r.bmp	492	1	YFFY	492	1	blank2r.bmp	572	3	gierig	866	1	FEHLER	1586	1	!	-1	1	!	-1	0	0	0	0	0	0	0	0	0	0	0	0	0	0	0	0	0	0	0	0	0	0	0	0	0	0	0
073019	10:45:26	10:50:10	282711	5.0.10.0	5_exp_RW	89	Rpleas_acq	CS_A	JQQJ	DXXD	YFFY	LWWL	CPPC	ZHHZ	vertrauen	sonnig	gütig	träumen	genießen	küssen	versagen	sterben	gierig	töten	gemein	krank	1	acq_USunple_CSunple1_RW	acq2_RW	2	21	480	1	300	300	528	46	0	1	1	blank2r.bmp	0	1	+	0	1	blank2r.bmp	492	1	YFFY	492	1	blank2r.bmp	572	1	versagen	866	1	!	1319	1	!	1426	0	0	0	0	0	0	0	0	0	0	0	0	0	0	0	0	0	0	0	0	0	0	0	0	0	0	0	0	0	0
073019	10:45:26	10:50:12	284790	5.0.10.0	5_exp_RW	89	Rpleas_acq	CS_A	JQQJ	DXXD	YFFY	LWWL	CPPC	ZHHZ	vertrauen	sonnig	gütig	träumen	genießen	küssen	versagen	sterben	gierig	töten	gemein	krank	1	acq_USpleas_CSpleas2_RW	acq2_RW	2	22	480	0	300	300	318	50	0	1	1	blank2r.bmp	0	1	+	0	1	blank2r.bmp	492	1	DXXD	492	1	blank2r.bmp	572	2	genießen	866	1	!	-1	1	!	-1	0	0	0	0	0	0	0	0	0	0	0	0	0	0	0	0	0	0	0	0	0	0	0	0	0	0	0	0	0	0
073019	10:45:26	10:50:14	287082	5.0.10.0	5_exp_RW	89	Rpleas_acq	CS_A	JQQJ	DXXD	YFFY	LWWL	CPPC	ZHHZ	vertrauen	sonnig	gütig	träumen	genießen	küssen	versagen	sterben	gierig	töten	gemein	krank	1	acq_USunple_CSunple1_RW	acq2_RW	2	23	480	1	300	300	485	46	0	1	1	blank2r.bmp	0	1	+	0	1	blank2r.bmp	492	1	YFFY	492	1	blank2r.bmp	572	1	versagen	866	1	!	1319	1	!	1386	0	0	0	0	0	0	0	0	0	0	0	0	0	0	0	0	0	0	0	0	0	0	0	0	0	0	0	0	0	0
073019	10:45:26	10:50:16	289441	5.0.10.0	5_exp_RW	89	Rpleas_acq	CS_A	JQQJ	DXXD	YFFY	LWWL	CPPC	ZHHZ	vertrauen	sonnig	gütig	träumen	genießen	küssen	versagen	sterben	gierig	töten	gemein	krank	1	acq_USunple_CSunple2_RW	acq2_RW	2	24	480	0	300	300	572	46	0	1	1	blank2r.bmp	0	1	+	0	1	blank2r.bmp	492	1	LWWL	492	1	blank2r.bmp	572	3	krank	866	1	!	1319	1	!	-1	0	0	0	0	0	0	0	0	0	0	0	0	0	0	0	0	0	0	0	0	0	0	0	0	0	0	0	0	0	0
073019	10:45:26	10:50:38	310779	5.0.10.0	5_exp_RW	89	Rpleas_acq	CS_A	JQQJ	DXXD	YFFY	LWWL	CPPC	ZHHZ	vertrauen	sonnig	gütig	träumen	genießen	küssen	versagen	sterben	gierig	töten	gemein	krank	1	acq_USpleas_CSpleas1_RW	acq3_RW	3	1	453	1	300	300	464	50	0	1	1	blank2r.bmp	0	1	+	0	1	blank2r.bmp	492	1	JQQJ	492	1	blank2r.bmp	572	3	gütig	866	1	!	1292	1	!	1359	0	0	0	0	0	0	0	0	0	0	0	0	0	0	0	0	0	0	0	0	0	0	0	0	0	0	0	0	0	0
073019	10:45:26	10:50:40	313018	5.0.10.0	5_exp_RW	89	Rpleas_acq	CS_A	JQQJ	DXXD	YFFY	LWWL	CPPC	ZHHZ	vertrauen	sonnig	gütig	träumen	genießen	küssen	versagen	sterben	gierig	töten	gemein	krank	1	acq_USpleas_CSpleas1_RW	acq3_RW	3	2	453	1	300	300	437	50	0	1	1	blank2r.bmp	0	1	+	0	1	blank2r.bmp	492	1	JQQJ	492	1	blank2r.bmp	572	2	sonnig	866	1	!	1292	1	!	1332	0	0	0	0	0	0	0	0	0	0	0	0	0	0	0	0	0	0	0	0	0	0	0	0	0	0	0	0	0	0
073019	10:45:26	10:50:42	315217	5.0.10.0	5_exp_RW	89	Rpleas_acq	CS_A	JQQJ	DXXD	YFFY	LWWL	CPPC	ZHHZ	vertrauen	sonnig	gütig	träumen	genießen	küssen	versagen	sterben	gierig	töten	gemein	krank	1	acq_USpleas_CSpleas1_RW	acq3_RW	3	3	453	1	300	300	401	50	0	1	1	blank2r.bmp	0	1	+	0	1	blank2r.bmp	492	1	JQQJ	492	1	blank2r.bmp	572	2	sonnig	866	1	!	1292	1	!	1306	0	0	0	0	0	0	0	0	0	0	0	0	0	0	0	0	0	0	0	0	0	0	0	0	0	0	0	0	0	0
073019	10:45:26	10:50:44	317310	5.0.10.0	5_exp_RW	89	Rpleas_acq	CS_A	JQQJ	DXXD	YFFY	LWWL	CPPC	ZHHZ	vertrauen	sonnig	gütig	träumen	genießen	küssen	versagen	sterben	gierig	töten	gemein	krank	1	acq_USunple_CSunple2_RW	acq3_RW	3	4	453	0	300	300	331	46	0	1	1	blank2r.bmp	0	1	+	0	1	blank2r.bmp	492	1	LWWL	492	1	blank2r.bmp	572	1	töten	866	1	!	-1	1	!	-1	0	0	0	0	0	0	0	0	0	0	0	0	0	0	0	0	0	0	0	0	0	0	0	0	0	0	0	0	0	0
073019	10:45:26	10:50:47	319655	5.0.10.0	5_exp_RW	89	Rpleas_acq	CS_A	JQQJ	DXXD	YFFY	LWWL	CPPC	ZHHZ	vertrauen	sonnig	gütig	träumen	genießen	küssen	versagen	sterben	gierig	töten	gemein	krank	1	acq_USunple_CSunple2_RW	acq3_RW	3	5	453	0	300	300	337	50	0	0	1	blank2r.bmp	0	1	+	0	1	blank2r.bmp	492	1	LWWL	492	1	blank2r.bmp	572	2	gemein	866	1	FEHLER	1546	1	!	-1	1	!	-1	0	0	0	0	0	0	0	0	0	0	0	0	0	0	0	0	0	0	0	0	0	0	0	0	0	0	0
073019	10:45:26	10:50:49	321868	5.0.10.0	5_exp_RW	89	Rpleas_acq	CS_A	JQQJ	DXXD	YFFY	LWWL	CPPC	ZHHZ	vertrauen	sonnig	gütig	träumen	genießen	küssen	versagen	sterben	gierig	töten	gemein	krank	1	acq_USpleas_CSpleas2_RW	acq3_RW	3	6	453	1	300	300	415	46	0	0	1	blank2r.bmp	0	1	+	0	1	blank2r.bmp	492	1	DXXD	492	1	blank2r.bmp	572	1	träumen	866	1	FEHLER	1639	1	!	1292	1	!	1319	0	0	0	0	0	0	0	0	0	0	0	0	0	0	0	0	0	0	0	0	0	0	0	0	0	0	0
073019	10:45:26	10:50:51	323800	5.0.10.0	5_exp_RW	89	Rpleas_acq	CS_A	JQQJ	DXXD	YFFY	LWWL	CPPC	ZHHZ	vertrauen	sonnig	gütig	träumen	genießen	küssen	versagen	sterben	gierig	töten	gemein	krank	1	acq_USpleas_CSpleas1_RW	acq3_RW	3	7	453	0	300	300	375	50	0	1	1	blank2r.bmp	0	1	+	0	1	blank2r.bmp	492	1	JQQJ	492	1	blank2r.bmp	572	1	vertrauen	866	1	!	-1	1	!	-1	0	0	0	0	0	0	0	0	0	0	0	0	0	0	0	0	0	0	0	0	0	0	0	0	0	0	0	0	0	0
073019	10:45:26	10:50:53	326040	5.0.10.0	5_exp_RW	89	Rpleas_acq	CS_A	JQQJ	DXXD	YFFY	LWWL	CPPC	ZHHZ	vertrauen	sonnig	gütig	träumen	genießen	küssen	versagen	sterben	gierig	töten	gemein	krank	1	acq_USunple_CSunple1_RW	acq3_RW	3	8	453	1	300	300	430	46	0	1	1	blank2r.bmp	0	1	+	0	1	blank2r.bmp	492	1	YFFY	492	1	blank2r.bmp	572	2	sterben	866	1	!	1292	1	!	1332	0	0	0	0	0	0	0	0	0	0	0	0	0	0	0	0	0	0	0	0	0	0	0	0	0	0	0	0	0	0
073019	10:45:26	10:50:55	328265	5.0.10.0	5_exp_RW	89	Rpleas_acq	CS_A	JQQJ	DXXD	YFFY	LWWL	CPPC	ZHHZ	vertrauen	sonnig	gütig	träumen	genießen	küssen	versagen	sterben	gierig	töten	gemein	krank	1	acq_USpleas_CSpleas2_RW	acq3_RW	3	9	453	1	300	300	438	50	0	1	1	blank2r.bmp	0	1	+	0	1	blank2r.bmp	492	1	DXXD	492	1	blank2r.bmp	572	3	küssen	866	1	!	1292	1	!	1332	0	0	0	0	0	0	0	0	0	0	0	0	0	0	0	0	0	0	0	0	0	0	0	0	0	0	0	0	0	0
073019	10:45:26	10:50:58	330518	5.0.10.0	5_exp_RW	89	Rpleas_acq	CS_A	JQQJ	DXXD	YFFY	LWWL	CPPC	ZHHZ	vertrauen	sonnig	gütig	träumen	genießen	küssen	versagen	sterben	gierig	töten	gemein	krank	1	acq_USunple_CSunple2_RW	acq3_RW	3	10	453	1	300	300	439	46	0	1	1	blank2r.bmp	0	1	+	0	1	blank2r.bmp	492	1	LWWL	492	1	blank2r.bmp	572	2	gemein	866	1	!	1292	1	!	1346	0	0	0	0	0	0	0	0	0	0	0	0	0	0	0	0	0	0	0	0	0	0	0	0	0	0	0	0	0	0
073019	10:45:26	10:51:00	332890	5.0.10.0	5_exp_RW	89	Rpleas_acq	CS_A	JQQJ	DXXD	YFFY	LWWL	CPPC	ZHHZ	vertrauen	sonnig	gütig	träumen	genießen	küssen	versagen	sterben	gierig	töten	gemein	krank	1	acq_USunple_CSunple1_RW	acq3_RW	3	11	453	0	300	300	374	50	0	0	1	blank2r.bmp	0	1	+	0	1	blank2r.bmp	492	1	YFFY	492	1	blank2r.bmp	572	3	gierig	866	1	FEHLER	1586	1	!	-1	1	!	-1	0	0	0	0	0	0	0	0	0	0	0	0	0	0	0	0	0	0	0	0	0	0	0	0	0	0	0
073019	10:45:26	10:51:02	335049	5.0.10.0	5_exp_RW	89	Rpleas_acq	CS_A	JQQJ	DXXD	YFFY	LWWL	CPPC	ZHHZ	vertrauen	sonnig	gütig	träumen	genießen	küssen	versagen	sterben	gierig	töten	gemein	krank	1	acq_USpleas_CSpleas2_RW	acq3_RW	3	12	453	0	300	300	604	50	0	1	1	blank2r.bmp	0	1	+	0	1	blank2r.bmp	492	1	DXXD	492	1	blank2r.bmp	572	1	träumen	866	1	!	1292	1	!	-1	0	0	0	0	0	0	0	0	0	0	0	0	0	0	0	0	0	0	0	0	0	0	0	0	0	0	0	0	0	0
073019	10:45:26	10:51:04	337355	5.0.10.0	5_exp_RW	89	Rpleas_acq	CS_A	JQQJ	DXXD	YFFY	LWWL	CPPC	ZHHZ	vertrauen	sonnig	gütig	träumen	genießen	küssen	versagen	sterben	gierig	töten	gemein	krank	1	acq_USunple_CSunple1_RW	acq3_RW	3	13	453	1	300	300	496	46	0	1	1	blank2r.bmp	0	1	+	0	1	blank2r.bmp	492	1	YFFY	492	1	blank2r.bmp	572	2	sterben	866	1	!	1292	1	!	1399	0	0	0	0	0	0	0	0	0	0	0	0	0	0	0	0	0	0	0	0	0	0	0	0	0	0	0	0	0	0
073019	10:45:26	10:51:07	339674	5.0.10.0	5_exp_RW	89	Rpleas_acq	CS_A	JQQJ	DXXD	YFFY	LWWL	CPPC	ZHHZ	vertrauen	sonnig	gütig	träumen	genießen	küssen	versagen	sterben	gierig	töten	gemein	krank	1	acq_USunple_CSunple1_RW	acq3_RW	3	14	453	0	300	300	325	50	0	0	1	blank2r.bmp	0	1	+	0	1	blank2r.bmp	492	1	YFFY	492	1	blank2r.bmp	572	3	gierig	866	1	FEHLER	1532	1	!	-1	1	!	-1	0	0	0	0	0	0	0	0	0	0	0	0	0	0	0	0	0	0	0	0	0	0	0	0	0	0	0
073019	10:45:26	10:51:09	341700	5.0.10.0	5_exp_RW	89	Rpleas_acq	CS_A	JQQJ	DXXD	YFFY	LWWL	CPPC	ZHHZ	vertrauen	sonnig	gütig	träumen	genießen	küssen	versagen	sterben	gierig	töten	gemein	krank	1	acq_USpleas_CSpleas2_RW	acq3_RW	3	15	453	1	300	300	448	50	0	1	1	blank2r.bmp	0	1	+	0	1	blank2r.bmp	492	1	DXXD	492	1	blank2r.bmp	572	2	genießen	866	1	!	1292	1	!	1346	0	0	0	0	0	0	0	0	0	0	0	0	0	0	0	0	0	0	0	0	0	0	0	0	0	0	0	0	0	0
073019	10:45:26	10:51:11	343966	5.0.10.0	5_exp_RW	89	Rpleas_acq	CS_A	JQQJ	DXXD	YFFY	LWWL	CPPC	ZHHZ	vertrauen	sonnig	gütig	träumen	genießen	küssen	versagen	sterben	gierig	töten	gemein	krank	1	acq_USunple_CSunple2_RW	acq3_RW	3	16	453	1	300	300	467	46	0	1	1	blank2r.bmp	0	1	+	0	1	blank2r.bmp	492	1	LWWL	492	1	blank2r.bmp	572	1	töten	866	1	!	1292	1	!	1372	0	0	0	0	0	0	0	0	0	0	0	0	0	0	0	0	0	0	0	0	0	0	0	0	0	0	0	0	0	0
073019	10:45:26	10:51:13	346245	5.0.10.0	5_exp_RW	89	Rpleas_acq	CS_A	JQQJ	DXXD	YFFY	LWWL	CPPC	ZHHZ	vertrauen	sonnig	gütig	träumen	genießen	küssen	versagen	sterben	gierig	töten	gemein	krank	1	acq_USunple_CSunple2_RW	acq3_RW	3	17	453	1	300	300	491	46	0	1	1	blank2r.bmp	0	1	+	0	1	blank2r.bmp	492	1	LWWL	492	1	blank2r.bmp	572	3	krank	866	1	!	1292	1	!	1386	0	0	0	0	0	0	0	0	0	0	0	0	0	0	0	0	0	0	0	0	0	0	0	0	0	0	0	0	0	0
073019	10:45:26	10:51:15	348364	5.0.10.0	5_exp_RW	89	Rpleas_acq	CS_A	JQQJ	DXXD	YFFY	LWWL	CPPC	ZHHZ	vertrauen	sonnig	gütig	träumen	genießen	küssen	versagen	sterben	gierig	töten	gemein	krank	1	acq_USpleas_CSpleas1_RW	acq3_RW	3	18	453	0	300	300	358	50	0	1	1	blank2r.bmp	0	1	+	0	1	blank2r.bmp	492	1	JQQJ	492	1	blank2r.bmp	572	3	gütig	866	1	!	-1	1	!	-1	0	0	0	0	0	0	0	0	0	0	0	0	0	0	0	0	0	0	0	0	0	0	0	0	0	0	0	0	0	0
073019	10:45:26	10:51:18	350536	5.0.10.0	5_exp_RW	89	Rpleas_acq	CS_A	JQQJ	DXXD	YFFY	LWWL	CPPC	ZHHZ	vertrauen	sonnig	gütig	träumen	genießen	küssen	versagen	sterben	gierig	töten	gemein	krank	1	acq_USunple_CSunple1_RW	acq3_RW	3	19	453	0	300	300	386	46	0	1	1	blank2r.bmp	0	1	+	0	1	blank2r.bmp	492	1	YFFY	492	1	blank2r.bmp	572	1	versagen	866	1	!	-1	1	!	-1	0	0	0	0	0	0	0	0	0	0	0	0	0	0	0	0	0	0	0	0	0	0	0	0	0	0	0	0	0	0
073019	10:45:26	10:51:20	352749	5.0.10.0	5_exp_RW	89	Rpleas_acq	CS_A	JQQJ	DXXD	YFFY	LWWL	CPPC	ZHHZ	vertrauen	sonnig	gütig	träumen	genießen	küssen	versagen	sterben	gierig	töten	gemein	krank	1	acq_USunple_CSunple1_RW	acq3_RW	3	20	453	1	300	300	402	46	0	1	1	blank2r.bmp	0	1	+	0	1	blank2r.bmp	492	1	YFFY	492	1	blank2r.bmp	572	2	sterben	866	1	!	1292	1	!	1306	0	0	0	0	0	0	0	0	0	0	0	0	0	0	0	0	0	0	0	0	0	0	0	0	0	0	0	0	0	0
073019	10:45:26	10:51:22	354948	5.0.10.0	5_exp_RW	89	Rpleas_acq	CS_A	JQQJ	DXXD	YFFY	LWWL	CPPC	ZHHZ	vertrauen	sonnig	gütig	träumen	genießen	küssen	versagen	sterben	gierig	töten	gemein	krank	1	acq_USunple_CSunple2_RW	acq3_RW	3	21	453	1	300	300	410	46	0	1	1	blank2r.bmp	0	1	+	0	1	blank2r.bmp	492	1	LWWL	492	1	blank2r.bmp	572	2	gemein	866	1	!	1292	1	!	1306	0	0	0	0	0	0	0	0	0	0	0	0	0	0	0	0	0	0	0	0	0	0	0	0	0	0	0	0	0	0
073019	10:45:26	10:51:24	357187	5.0.10.0	5_exp_RW	89	Rpleas_acq	CS_A	JQQJ	DXXD	YFFY	LWWL	CPPC	ZHHZ	vertrauen	sonnig	gütig	träumen	genießen	küssen	versagen	sterben	gierig	töten	gemein	krank	1	acq_USpleas_CSpleas2_RW	acq3_RW	3	22	453	1	300	300	444	50	0	1	1	blank2r.bmp	0	1	+	0	1	blank2r.bmp	492	1	DXXD	492	1	blank2r.bmp	572	3	küssen	866	1	!	1292	1	!	1346	0	0	0	0	0	0	0	0	0	0	0	0	0	0	0	0	0	0	0	0	0	0	0	0	0	0	0	0	0	0
073019	10:45:26	10:51:27	359572	5.0.10.0	5_exp_RW	89	Rpleas_acq	CS_A	JQQJ	DXXD	YFFY	LWWL	CPPC	ZHHZ	vertrauen	sonnig	gütig	träumen	genießen	küssen	versagen	sterben	gierig	töten	gemein	krank	1	acq_USpleas_CSpleas2_RW	acq3_RW	3	23	453	0	300	300	382	46	0	0	1	blank2r.bmp	0	1	+	0	1	blank2r.bmp	492	1	DXXD	492	1	blank2r.bmp	572	1	träumen	866	1	FEHLER	1586	1	!	-1	1	!	-1	0	0	0	0	0	0	0	0	0	0	0	0	0	0	0	0	0	0	0	0	0	0	0	0	0	0	0
073019	10:45:26	10:51:29	361572	5.0.10.0	5_exp_RW	89	Rpleas_acq	CS_A	JQQJ	DXXD	YFFY	LWWL	CPPC	ZHHZ	vertrauen	sonnig	gütig	träumen	genießen	küssen	versagen	sterben	gierig	töten	gemein	krank	1	acq_USpleas_CSpleas1_RW	acq3_RW	3	24	453	1	300	300	423	50	0	1	1	blank2r.bmp	0	1	+	0	1	blank2r.bmp	492	1	JQQJ	492	1	blank2r.bmp	572	2	sonnig	866	1	!	1292	1	!	1319	0	0	0	0	0	0	0	0	0	0	0	0	0	0	0	0	0	0	0	0	0	0	0	0	0	0	0	0	0	0
073019	10:45:26	10:51:49	381537	5.0.10.0	5_exp_RW	89	Rpleas_acq	CS_A	JQQJ	DXXD	YFFY	LWWL	CPPC	ZHHZ	vertrauen	sonnig	gütig	träumen	genießen	küssen	versagen	sterben	gierig	töten	gemein	krank	1	acq_USpleas_CSpleas1_RW	acq4567_RW	4	1	400	1	300	300	361	50	0	1	1	blank2r.bmp	0	1	+	0	1	blank2r.bmp	492	1	JQQJ	492	1	blank2r.bmp	572	3	gütig	866	1	!	1239	1	!	1266	0	0	0	0	0	0	0	0	0	0	0	0	0	0	0	0	0	0	0	0	0	0	0	0	0	0	0	0	0	0
073019	10:45:26	10:51:51	383723	5.0.10.0	5_exp_RW	89	Rpleas_acq	CS_A	JQQJ	DXXD	YFFY	LWWL	CPPC	ZHHZ	vertrauen	sonnig	gütig	träumen	genießen	küssen	versagen	sterben	gierig	töten	gemein	krank	1	acq_USpleas_CSpleas1_RW	acq4567_RW	4	2	400	1	300	300	387	50	0	1	1	blank2r.bmp	0	1	+	0	1	blank2r.bmp	492	1	JQQJ	492	1	blank2r.bmp	572	1	vertrauen	866	1	!	1239	1	!	1292	0	0	0	0	0	0	0	0	0	0	0	0	0	0	0	0	0	0	0	0	0	0	0	0	0	0	0	0	0	0
073019	10:45:26	10:51:53	385895	5.0.10.0	5_exp_RW	89	Rpleas_acq	CS_A	JQQJ	DXXD	YFFY	LWWL	CPPC	ZHHZ	vertrauen	sonnig	gütig	träumen	genießen	küssen	versagen	sterben	gierig	töten	gemein	krank	1	acq_USpleas_CSpleas1_RW	acq4567_RW	4	3	400	1	300	300	361	50	0	1	1	blank2r.bmp	0	1	+	0	1	blank2r.bmp	492	1	JQQJ	492	1	blank2r.bmp	572	3	gütig	866	1	!	1239	1	!	1266	0	0	0	0	0	0	0	0	0	0	0	0	0	0	0	0	0	0	0	0	0	0	0	0	0	0	0	0	0	0
073019	10:45:26	10:51:55	388121	5.0.10.0	5_exp_RW	89	Rpleas_acq	CS_A	JQQJ	DXXD	YFFY	LWWL	CPPC	ZHHZ	vertrauen	sonnig	gütig	träumen	genießen	küssen	versagen	sterben	gierig	töten	gemein	krank	1	acq_USunple_CSunple1_RW	acq4567_RW	4	4	400	1	300	300	430	50	0	0	1	blank2r.bmp	0	1	+	0	1	blank2r.bmp	492	1	YFFY	492	1	blank2r.bmp	572	3	gierig	866	1	!	1239	1	!	1332	0	0	0	0	0	0	0	0	0	0	0	0	0	0	0	0	0	0	0	0	0	0	0	0	0	0	0	0	0	0
073019	10:45:26	10:51:57	390333	5.0.10.0	5_exp_RW	89	Rpleas_acq	CS_A	JQQJ	DXXD	YFFY	LWWL	CPPC	ZHHZ	vertrauen	sonnig	gütig	träumen	genießen	küssen	versagen	sterben	gierig	töten	gemein	krank	1	acq_USpleas_CSpleas2_RW	acq4567_RW	4	5	400	1	300	300	417	50	0	1	1	blank2r.bmp	0	1	+	0	1	blank2r.bmp	492	1	DXXD	492	1	blank2r.bmp	572	3	küssen	866	1	!	1239	1	!	1319	0	0	0	0	0	0	0	0	0	0	0	0	0	0	0	0	0	0	0	0	0	0	0	0	0	0	0	0	0	0
073019	10:45:26	10:52:00	392519	5.0.10.0	5_exp_RW	89	Rpleas_acq	CS_A	JQQJ	DXXD	YFFY	LWWL	CPPC	ZHHZ	vertrauen	sonnig	gütig	träumen	genießen	küssen	versagen	sterben	gierig	töten	gemein	krank	1	acq_USpleas_CSpleas2_RW	acq4567_RW	4	6	400	1	300	300	397	50	0	1	1	blank2r.bmp	0	1	+	0	1	blank2r.bmp	492	1	DXXD	492	1	blank2r.bmp	572	2	genießen	866	1	!	1239	1	!	1292	0	0	0	0	0	0	0	0	0	0	0	0	0	0	0	0	0	0	0	0	0	0	0	0	0	0	0	0	0	0
073019	10:45:26	10:52:02	394678	5.0.10.0	5_exp_RW	89	Rpleas_acq	CS_A	JQQJ	DXXD	YFFY	LWWL	CPPC	ZHHZ	vertrauen	sonnig	gütig	träumen	genießen	küssen	versagen	sterben	gierig	töten	gemein	krank	1	acq_USunple_CSunple2_RW	acq4567_RW	4	7	400	1	300	300	364	46	0	1	1	blank2r.bmp	0	1	+	0	1	blank2r.bmp	492	1	LWWL	492	1	blank2r.bmp	572	1	töten	866	1	!	1239	1	!	1266	0	0	0	0	0	0	0	0	0	0	0	0	0	0	0	0	0	0	0	0	0	0	0	0	0	0	0	0	0	0
073019	10:45:26	10:52:04	396877	5.0.10.0	5_exp_RW	89	Rpleas_acq	CS_A	JQQJ	DXXD	YFFY	LWWL	CPPC	ZHHZ	vertrauen	sonnig	gütig	träumen	genießen	küssen	versagen	sterben	gierig	töten	gemein	krank	1	acq_USpleas_CSpleas2_RW	acq4567_RW	4	8	400	1	300	300	408	50	0	1	1	blank2r.bmp	0	1	+	0	1	blank2r.bmp	492	1	DXXD	492	1	blank2r.bmp	572	1	träumen	866	1	!	1239	1	!	1306	0	0	0	0	0	0	0	0	0	0	0	0	0	0	0	0	0	0	0	0	0	0	0	0	0	0	0	0	0	0
073019	10:45:26	10:52:06	399036	5.0.10.0	5_exp_RW	89	Rpleas_acq	CS_A	JQQJ	DXXD	YFFY	LWWL	CPPC	ZHHZ	vertrauen	sonnig	gütig	träumen	genießen	küssen	versagen	sterben	gierig	töten	gemein	krank	1	acq_USunple_CSunple1_RW	acq4567_RW	4	9	400	1	300	300	363	46	0	1	1	blank2r.bmp	0	1	+	0	1	blank2r.bmp	492	1	YFFY	492	1	blank2r.bmp	572	1	versagen	866	1	!	1239	1	!	1266	0	0	0	0	0	0	0	0	0	0	0	0	0	0	0	0	0	0	0	0	0	0	0	0	0	0	0	0	0	0
073019	10:45:26	10:52:08	401209	5.0.10.0	5_exp_RW	89	Rpleas_acq	CS_A	JQQJ	DXXD	YFFY	LWWL	CPPC	ZHHZ	vertrauen	sonnig	gütig	träumen	genießen	küssen	versagen	sterben	gierig	töten	gemein	krank	1	acq_USunple_CSunple2_RW	acq4567_RW	4	10	400	1	300	300	379	46	0	1	1	blank2r.bmp	0	1	+	0	1	blank2r.bmp	492	1	LWWL	492	1	blank2r.bmp	572	3	krank	866	1	!	1239	1	!	1279	0	0	0	0	0	0	0	0	0	0	0	0	0	0	0	0	0	0	0	0	0	0	0	0	0	0	0	0	0	0
073019	10:45:26	10:52:10	403395	5.0.10.0	5_exp_RW	89	Rpleas_acq	CS_A	JQQJ	DXXD	YFFY	LWWL	CPPC	ZHHZ	vertrauen	sonnig	gütig	träumen	genießen	küssen	versagen	sterben	gierig	töten	gemein	krank	1	acq_USunple_CSunple2_RW	acq4567_RW	4	11	400	1	300	300	390	46	0	1	1	blank2r.bmp	0	1	+	0	1	blank2r.bmp	492	1	LWWL	492	1	blank2r.bmp	572	1	töten	866	1	!	1239	1	!	1292	0	0	0	0	0	0	0	0	0	0	0	0	0	0	0	0	0	0	0	0	0	0	0	0	0	0	0	0	0	0
073019	10:45:26	10:52:13	405594	5.0.10.0	5_exp_RW	89	Rpleas_acq	CS_A	JQQJ	DXXD	YFFY	LWWL	CPPC	ZHHZ	vertrauen	sonnig	gütig	träumen	genießen	küssen	versagen	sterben	gierig	töten	gemein	krank	1	acq_USpleas_CSpleas2_RW	acq4567_RW	4	12	400	1	300	300	386	50	0	1	1	blank2r.bmp	0	1	+	0	1	blank2r.bmp	492	1	DXXD	492	1	blank2r.bmp	572	3	küssen	866	1	!	1239	1	!	1292	0	0	0	0	0	0	0	0	0	0	0	0	0	0	0	0	0	0	0	0	0	0	0	0	0	0	0	0	0	0
073019	10:45:26	10:52:15	407779	5.0.10.0	5_exp_RW	89	Rpleas_acq	CS_A	JQQJ	DXXD	YFFY	LWWL	CPPC	ZHHZ	vertrauen	sonnig	gütig	träumen	genießen	küssen	versagen	sterben	gierig	töten	gemein	krank	1	acq_USunple_CSunple2_RW	acq4567_RW	4	13	400	1	300	300	376	46	0	1	1	blank2r.bmp	0	1	+	0	1	blank2r.bmp	492	1	LWWL	492	1	blank2r.bmp	572	3	krank	866	1	!	1239	1	!	1279	0	0	0	0	0	0	0	0	0	0	0	0	0	0	0	0	0	0	0	0	0	0	0	0	0	0	0	0	0	0
073019	10:45:26	10:52:17	410032	5.0.10.0	5_exp_RW	89	Rpleas_acq	CS_A	JQQJ	DXXD	YFFY	LWWL	CPPC	ZHHZ	vertrauen	sonnig	gütig	träumen	genießen	küssen	versagen	sterben	gierig	töten	gemein	krank	1	acq_USunple_CSunple1_RW	acq4567_RW	4	14	400	1	300	300	460	46	0	1	1	blank2r.bmp	0	1	+	0	1	blank2r.bmp	492	1	YFFY	492	1	blank2r.bmp	572	3	gierig	866	1	!	1239	1	!	1359	0	0	0	0	0	0	0	0	0	0	0	0	0	0	0	0	0	0	0	0	0	0	0	0	0	0	0	0	0	0
073019	10:45:26	10:52:19	412271	5.0.10.0	5_exp_RW	89	Rpleas_acq	CS_A	JQQJ	DXXD	YFFY	LWWL	CPPC	ZHHZ	vertrauen	sonnig	gütig	träumen	genießen	küssen	versagen	sterben	gierig	töten	gemein	krank	1	acq_USpleas_CSpleas1_RW	acq4567_RW	4	15	400	1	300	300	448	50	0	1	1	blank2r.bmp	0	1	+	0	1	blank2r.bmp	492	1	JQQJ	492	1	blank2r.bmp	572	1	vertrauen	866	1	!	1239	1	!	1346	0	0	0	0	0	0	0	0	0	0	0	0	0	0	0	0	0	0	0	0	0	0	0	0	0	0	0	0	0	0
073019	10:45:26	10:52:21	414443	5.0.10.0	5_exp_RW	89	Rpleas_acq	CS_A	JQQJ	DXXD	YFFY	LWWL	CPPC	ZHHZ	vertrauen	sonnig	gütig	träumen	genießen	küssen	versagen	sterben	gierig	töten	gemein	krank	1	acq_USunple_CSunple1_RW	acq4567_RW	4	16	400	1	300	300	369	46	0	1	1	blank2r.bmp	0	1	+	0	1	blank2r.bmp	492	1	YFFY	492	1	blank2r.bmp	572	1	versagen	866	1	!	1239	1	!	1266	0	0	0	0	0	0	0	0	0	0	0	0	0	0	0	0	0	0	0	0	0	0	0	0	0	0	0	0	0	0
073019	10:45:26	10:52:24	416643	5.0.10.0	5_exp_RW	89	Rpleas_acq	CS_A	JQQJ	DXXD	YFFY	LWWL	CPPC	ZHHZ	vertrauen	sonnig	gütig	träumen	genießen	küssen	versagen	sterben	gierig	töten	gemein	krank	1	acq_USpleas_CSpleas2_RW	acq4567_RW	4	17	400	1	300	300	406	50	0	1	1	blank2r.bmp	0	1	+	0	1	blank2r.bmp	492	1	DXXD	492	1	blank2r.bmp	572	2	genießen	866	1	!	1239	1	!	1306	0	0	0	0	0	0	0	0	0	0	0	0	0	0	0	0	0	0	0	0	0	0	0	0	0	0	0	0	0	0
073019	10:45:26	10:52:26	418895	5.0.10.0	5_exp_RW	89	Rpleas_acq	CS_A	JQQJ	DXXD	YFFY	LWWL	CPPC	ZHHZ	vertrauen	sonnig	gütig	träumen	genießen	küssen	versagen	sterben	gierig	töten	gemein	krank	1	acq_USunple_CSunple2_RW	acq4567_RW	4	18	400	0	300	300	479	46	0	1	1	blank2r.bmp	0	1	+	0	1	blank2r.bmp	492	1	LWWL	492	1	blank2r.bmp	572	2	gemein	866	1	!	1239	1	!	-1	0	0	0	0	0	0	0	0	0	0	0	0	0	0	0	0	0	0	0	0	0	0	0	0	0	0	0	0	0	0
073019	10:45:26	10:52:28	421147	5.0.10.0	5_exp_RW	89	Rpleas_acq	CS_A	JQQJ	DXXD	YFFY	LWWL	CPPC	ZHHZ	vertrauen	sonnig	gütig	träumen	genießen	küssen	versagen	sterben	gierig	töten	gemein	krank	1	acq_USpleas_CSpleas1_RW	acq4567_RW	4	19	400	1	300	300	451	50	0	1	1	blank2r.bmp	0	1	+	0	1	blank2r.bmp	492	1	JQQJ	492	1	blank2r.bmp	572	2	sonnig	866	1	!	1239	1	!	1346	0	0	0	0	0	0	0	0	0	0	0	0	0	0	0	0	0	0	0	0	0	0	0	0	0	0	0	0	0	0
073019	10:45:26	10:52:30	423400	5.0.10.0	5_exp_RW	89	Rpleas_acq	CS_A	JQQJ	DXXD	YFFY	LWWL	CPPC	ZHHZ	vertrauen	sonnig	gütig	träumen	genießen	küssen	versagen	sterben	gierig	töten	gemein	krank	1	acq_USunple_CSunple1_RW	acq4567_RW	4	20	400	1	300	300	449	46	0	1	1	blank2r.bmp	0	1	+	0	1	blank2r.bmp	492	1	YFFY	492	1	blank2r.bmp	572	2	sterben	866	1	!	1239	1	!	1346	0	0	0	0	0	0	0	0	0	0	0	0	0	0	0	0	0	0	0	0	0	0	0	0	0	0	0	0	0	0
073019	10:45:26	10:52:33	425626	5.0.10.0	5_exp_RW	89	Rpleas_acq	CS_A	JQQJ	DXXD	YFFY	LWWL	CPPC	ZHHZ	vertrauen	sonnig	gütig	träumen	genießen	küssen	versagen	sterben	gierig	töten	gemein	krank	1	acq_USpleas_CSpleas1_RW	acq4567_RW	4	21	400	1	300	300	428	50	0	1	1	blank2r.bmp	0	1	+	0	1	blank2r.bmp	492	1	JQQJ	492	1	blank2r.bmp	572	1	vertrauen	866	1	!	1239	1	!	1332	0	0	0	0	0	0	0	0	0	0	0	0	0	0	0	0	0	0	0	0	0	0	0	0	0	0	0	0	0	0
073019	10:45:26	10:52:35	427905	5.0.10.0	5_exp_RW	89	Rpleas_acq	CS_A	JQQJ	DXXD	YFFY	LWWL	CPPC	ZHHZ	vertrauen	sonnig	gütig	träumen	genießen	küssen	versagen	sterben	gierig	töten	gemein	krank	1	acq_USunple_CSunple1_RW	acq4567_RW	4	22	400	0	300	300	516	46	0	1	1	blank2r.bmp	0	1	+	0	1	blank2r.bmp	492	1	YFFY	492	1	blank2r.bmp	572	3	gierig	866	1	!	1239	1	!	-1	0	0	0	0	0	0	0	0	0	0	0	0	0	0	0	0	0	0	0	0	0	0	0	0	0	0	0	0	0	0
073019	10:45:26	10:52:37	430077	5.0.10.0	5_exp_RW	89	Rpleas_acq	CS_A	JQQJ	DXXD	YFFY	LWWL	CPPC	ZHHZ	vertrauen	sonnig	gütig	träumen	genießen	küssen	versagen	sterben	gierig	töten	gemein	krank	1	acq_USunple_CSunple2_RW	acq4567_RW	4	23	400	1	300	300	346	46	0	1	1	blank2r.bmp	0	1	+	0	1	blank2r.bmp	492	1	LWWL	492	1	blank2r.bmp	572	3	krank	866	1	!	1239	1	!	1252	0	0	0	0	0	0	0	0	0	0	0	0	0	0	0	0	0	0	0	0	0	0	0	0	0	0	0	0	0	0
073019	10:45:26	10:52:39	432276	5.0.10.0	5_exp_RW	89	Rpleas_acq	CS_A	JQQJ	DXXD	YFFY	LWWL	CPPC	ZHHZ	vertrauen	sonnig	gütig	träumen	genießen	küssen	versagen	sterben	gierig	töten	gemein	krank	1	acq_USpleas_CSpleas2_RW	acq4567_RW	4	24	400	1	300	300	409	50	0	1	1	blank2r.bmp	0	1	+	0	1	blank2r.bmp	492	1	DXXD	492	1	blank2r.bmp	572	3	küssen	866	1	!	1239	1	!	1306	0	0	0	0	0	0	0	0	0	0	0	0	0	0	0	0	0	0	0	0	0	0	0	0	0	0	0	0	0	0
073019	10:45:26	10:52:41	434435	5.0.10.0	5_exp_RW	89	Rpleas_acq	CS_A	JQQJ	DXXD	YFFY	LWWL	CPPC	ZHHZ	vertrauen	sonnig	gütig	träumen	genießen	küssen	versagen	sterben	gierig	töten	gemein	krank	1	acq_USpleas_CSpleas2_RW	acq4567_RW	4	25	400	1	300	300	362	50	0	1	1	blank2r.bmp	0	1	+	0	1	blank2r.bmp	492	1	DXXD	492	1	blank2r.bmp	572	1	träumen	866	1	!	1239	1	!	1266	0	0	0	0	0	0	0	0	0	0	0	0	0	0	0	0	0	0	0	0	0	0	0	0	0	0	0	0	0	0
073019	10:45:26	10:52:44	436581	5.0.10.0	5_exp_RW	89	Rpleas_acq	CS_A	JQQJ	DXXD	YFFY	LWWL	CPPC	ZHHZ	vertrauen	sonnig	gütig	träumen	genießen	küssen	versagen	sterben	gierig	töten	gemein	krank	1	acq_USpleas_CSpleas2_RW	acq4567_RW	4	26	400	1	300	300	358	50	0	1	1	blank2r.bmp	0	1	+	0	1	blank2r.bmp	492	1	DXXD	492	1	blank2r.bmp	572	2	genießen	866	1	!	1239	1	!	1252	0	0	0	0	0	0	0	0	0	0	0	0	0	0	0	0	0	0	0	0	0	0	0	0	0	0	0	0	0	0
073019	10:45:26	10:52:46	438660	5.0.10.0	5_exp_RW	89	Rpleas_acq	CS_A	JQQJ	DXXD	YFFY	LWWL	CPPC	ZHHZ	vertrauen	sonnig	gütig	träumen	genießen	küssen	versagen	sterben	gierig	töten	gemein	krank	1	acq_USunple_CSunple2_RW	acq4567_RW	4	27	400	0	300	300	318	46	0	1	1	blank2r.bmp	0	1	+	0	1	blank2r.bmp	492	1	LWWL	492	1	blank2r.bmp	572	1	töten	866	1	!	-1	1	!	-1	0	0	0	0	0	0	0	0	0	0	0	0	0	0	0	0	0	0	0	0	0	0	0	0	0	0	0	0	0	0
073019	10:45:26	10:52:48	440766	5.0.10.0	5_exp_RW	89	Rpleas_acq	CS_A	JQQJ	DXXD	YFFY	LWWL	CPPC	ZHHZ	vertrauen	sonnig	gütig	träumen	genießen	küssen	versagen	sterben	gierig	töten	gemein	krank	1	acq_USunple_CSunple2_RW	acq4567_RW	4	28	400	0	300	300	330	46	0	1	1	blank2r.bmp	0	1	+	0	1	blank2r.bmp	492	1	LWWL	492	1	blank2r.bmp	572	2	gemein	866	1	!	-1	1	!	-1	0	0	0	0	0	0	0	0	0	0	0	0	0	0	0	0	0	0	0	0	0	0	0	0	0	0	0	0	0	0
073019	10:45:26	10:52:50	442952	5.0.10.0	5_exp_RW	89	Rpleas_acq	CS_A	JQQJ	DXXD	YFFY	LWWL	CPPC	ZHHZ	vertrauen	sonnig	gütig	träumen	genießen	küssen	versagen	sterben	gierig	töten	gemein	krank	1	acq_USpleas_CSpleas1_RW	acq4567_RW	4	29	400	1	300	300	381	50	0	1	1	blank2r.bmp	0	1	+	0	1	blank2r.bmp	492	1	JQQJ	492	1	blank2r.bmp	572	2	sonnig	866	1	!	1239	1	!	1279	0	0	0	0	0	0	0	0	0	0	0	0	0	0	0	0	0	0	0	0	0	0	0	0	0	0	0	0	0	0
073019	10:45:26	10:52:52	445124	5.0.10.0	5_exp_RW	89	Rpleas_acq	CS_A	JQQJ	DXXD	YFFY	LWWL	CPPC	ZHHZ	vertrauen	sonnig	gütig	träumen	genießen	küssen	versagen	sterben	gierig	töten	gemein	krank	1	acq_USpleas_CSpleas1_RW	acq4567_RW	4	30	400	1	300	300	384	50	0	1	1	blank2r.bmp	0	1	+	0	1	blank2r.bmp	492	1	JQQJ	492	1	blank2r.bmp	572	3	gütig	866	1	!	1239	1	!	1279	0	0	0	0	0	0	0	0	0	0	0	0	0	0	0	0	0	0	0	0	0	0	0	0	0	0	0	0	0	0
073019	10:45:26	10:52:54	447363	5.0.10.0	5_exp_RW	89	Rpleas_acq	CS_A	JQQJ	DXXD	YFFY	LWWL	CPPC	ZHHZ	vertrauen	sonnig	gütig	träumen	genießen	küssen	versagen	sterben	gierig	töten	gemein	krank	1	acq_USunple_CSunple1_RW	acq4567_RW	4	31	400	1	300	300	425	46	0	1	1	blank2r.bmp	0	1	+	0	1	blank2r.bmp	492	1	YFFY	492	1	blank2r.bmp	572	2	sterben	866	1	!	1239	1	!	1332	0	0	0	0	0	0	0	0	0	0	0	0	0	0	0	0	0	0	0	0	0	0	0	0	0	0	0	0	0	0
073019	10:45:26	10:52:57	449549	5.0.10.0	5_exp_RW	89	Rpleas_acq	CS_A	JQQJ	DXXD	YFFY	LWWL	CPPC	ZHHZ	vertrauen	sonnig	gütig	träumen	genießen	küssen	versagen	sterben	gierig	töten	gemein	krank	1	acq_USunple_CSunple1_RW	acq4567_RW	4	32	400	1	300	300	388	46	0	1	1	blank2r.bmp	0	1	+	0	1	blank2r.bmp	492	1	YFFY	492	1	blank2r.bmp	572	1	versagen	866	1	!	1239	1	!	1292	0	0	0	0	0	0	0	0	0	0	0	0	0	0	0	0	0	0	0	0	0	0	0	0	0	0	0	0	0	0
073019	10:45:26	10:52:59	451722	5.0.10.0	5_exp_RW	89	Rpleas_acq	CS_A	JQQJ	DXXD	YFFY	LWWL	CPPC	ZHHZ	vertrauen	sonnig	gütig	träumen	genießen	küssen	versagen	sterben	gierig	töten	gemein	krank	1	acq_USpleas_CSpleas1_RW	acq4567_RW	4	33	400	1	300	300	383	50	0	1	1	blank2r.bmp	0	1	+	0	1	blank2r.bmp	492	1	JQQJ	492	1	blank2r.bmp	572	2	sonnig	866	1	!	1239	1	!	1279	0	0	0	0	0	0	0	0	0	0	0	0	0	0	0	0	0	0	0	0	0	0	0	0	0	0	0	0	0	0
073019	10:45:26	10:53:01	453961	5.0.10.0	5_exp_RW	89	Rpleas_acq	CS_A	JQQJ	DXXD	YFFY	LWWL	CPPC	ZHHZ	vertrauen	sonnig	gütig	träumen	genießen	küssen	versagen	sterben	gierig	töten	gemein	krank	1	acq_USpleas_CSpleas2_RW	acq4567_RW	4	34	400	1	300	300	432	50	0	1	1	blank2r.bmp	0	1	+	0	1	blank2r.bmp	492	1	DXXD	492	1	blank2r.bmp	572	2	genießen	866	1	!	1239	1	!	1332	0	0	0	0	0	0	0	0	0	0	0	0	0	0	0	0	0	0	0	0	0	0	0	0	0	0	0	0	0	0
073019	10:45:26	10:53:03	456120	5.0.10.0	5_exp_RW	89	Rpleas_acq	CS_A	JQQJ	DXXD	YFFY	LWWL	CPPC	ZHHZ	vertrauen	sonnig	gütig	träumen	genießen	küssen	versagen	sterben	gierig	töten	gemein	krank	1	acq_USpleas_CSpleas2_RW	acq4567_RW	4	35	400	1	300	300	367	50	0	1	1	blank2r.bmp	0	1	+	0	1	blank2r.bmp	492	1	DXXD	492	1	blank2r.bmp	572	3	küssen	866	1	!	1239	1	!	1266	0	0	0	0	0	0	0	0	0	0	0	0	0	0	0	0	0	0	0	0	0	0	0	0	0	0	0	0	0	0
073019	10:45:26	10:53:05	458212	5.0.10.0	5_exp_RW	89	Rpleas_acq	CS_A	JQQJ	DXXD	YFFY	LWWL	CPPC	ZHHZ	vertrauen	sonnig	gütig	träumen	genießen	küssen	versagen	sterben	gierig	töten	gemein	krank	1	acq_USunple_CSunple2_RW	acq4567_RW	4	36	400	0	300	300	326	46	0	1	1	blank2r.bmp	0	1	+	0	1	blank2r.bmp	492	1	LWWL	492	1	blank2r.bmp	572	3	krank	866	1	!	-1	1	!	-1	0	0	0	0	0	0	0	0	0	0	0	0	0	0	0	0	0	0	0	0	0	0	0	0	0	0	0	0	0	0
073019	10:45:26	10:53:07	460371	5.0.10.0	5_exp_RW	89	Rpleas_acq	CS_A	JQQJ	DXXD	YFFY	LWWL	CPPC	ZHHZ	vertrauen	sonnig	gütig	träumen	genießen	küssen	versagen	sterben	gierig	töten	gemein	krank	1	acq_USunple_CSunple1_RW	acq4567_RW	4	37	400	1	300	300	352	46	0	1	1	blank2r.bmp	0	1	+	0	1	blank2r.bmp	492	1	YFFY	492	1	blank2r.bmp	572	1	versagen	866	1	!	1239	1	!	1252	0	0	0	0	0	0	0	0	0	0	0	0	0	0	0	0	0	0	0	0	0	0	0	0	0	0	0	0	0	0
073019	10:45:26	10:53:10	462517	5.0.10.0	5_exp_RW	89	Rpleas_acq	CS_A	JQQJ	DXXD	YFFY	LWWL	CPPC	ZHHZ	vertrauen	sonnig	gütig	träumen	genießen	küssen	versagen	sterben	gierig	töten	gemein	krank	1	acq_USunple_CSunple1_RW	acq4567_RW	4	38	400	1	300	300	347	46	0	1	1	blank2r.bmp	0	1	+	0	1	blank2r.bmp	492	1	YFFY	492	1	blank2r.bmp	572	2	sterben	866	1	!	1239	1	!	1252	0	0	0	0	0	0	0	0	0	0	0	0	0	0	0	0	0	0	0	0	0	0	0	0	0	0	0	0	0	0
073019	10:45:26	10:53:12	464703	5.0.10.0	5_exp_RW	89	Rpleas_acq	CS_A	JQQJ	DXXD	YFFY	LWWL	CPPC	ZHHZ	vertrauen	sonnig	gütig	träumen	genießen	küssen	versagen	sterben	gierig	töten	gemein	krank	1	acq_USunple_CSunple2_RW	acq4567_RW	4	39	400	1	300	300	385	46	0	1	1	blank2r.bmp	0	1	+	0	1	blank2r.bmp	492	1	LWWL	492	1	blank2r.bmp	572	1	töten	866	1	!	1239	1	!	1279	0	0	0	0	0	0	0	0	0	0	0	0	0	0	0	0	0	0	0	0	0	0	0	0	0	0	0	0	0	0
073019	10:45:26	10:53:14	466795	5.0.10.0	5_exp_RW	89	Rpleas_acq	CS_A	JQQJ	DXXD	YFFY	LWWL	CPPC	ZHHZ	vertrauen	sonnig	gütig	träumen	genießen	küssen	versagen	sterben	gierig	töten	gemein	krank	1	acq_USpleas_CSpleas1_RW	acq4567_RW	4	40	400	0	300	300	313	50	0	1	1	blank2r.bmp	0	1	+	0	1	blank2r.bmp	492	1	JQQJ	492	1	blank2r.bmp	572	3	gütig	866	1	!	-1	1	!	-1	0	0	0	0	0	0	0	0	0	0	0	0	0	0	0	0	0	0	0	0	0	0	0	0	0	0	0	0	0	0
073019	10:45:26	10:53:16	468901	5.0.10.0	5_exp_RW	89	Rpleas_acq	CS_A	JQQJ	DXXD	YFFY	LWWL	CPPC	ZHHZ	vertrauen	sonnig	gütig	träumen	genießen	küssen	versagen	sterben	gierig	töten	gemein	krank	1	acq_USunple_CSunple1_RW	acq4567_RW	4	41	400	0	300	300	312	50	0	0	1	blank2r.bmp	0	1	+	0	1	blank2r.bmp	492	1	YFFY	492	1	blank2r.bmp	572	3	gierig	866	1	!	-1	1	!	-1	0	0	0	0	0	0	0	0	0	0	0	0	0	0	0	0	0	0	0	0	0	0	0	0	0	0	0	0	0	0
073019	10:45:26	10:53:18	471167	5.0.10.0	5_exp_RW	89	Rpleas_acq	CS_A	JQQJ	DXXD	YFFY	LWWL	CPPC	ZHHZ	vertrauen	sonnig	gütig	träumen	genießen	küssen	versagen	sterben	gierig	töten	gemein	krank	1	acq_USpleas_CSpleas1_RW	acq4567_RW	4	42	400	1	300	300	443	50	0	1	1	blank2r.bmp	0	1	+	0	1	blank2r.bmp	492	1	JQQJ	492	1	blank2r.bmp	572	1	vertrauen	866	1	!	1239	1	!	1346	0	0	0	0	0	0	0	0	0	0	0	0	0	0	0	0	0	0	0	0	0	0	0	0	0	0	0	0	0	0
073019	10:45:26	10:53:20	473379	5.0.10.0	5_exp_RW	89	Rpleas_acq	CS_A	JQQJ	DXXD	YFFY	LWWL	CPPC	ZHHZ	vertrauen	sonnig	gütig	träumen	genießen	küssen	versagen	sterben	gierig	töten	gemein	krank	1	acq_USpleas_CSpleas1_RW	acq4567_RW	4	43	400	1	300	300	418	46	0	0	1	blank2r.bmp	0	1	+	0	1	blank2r.bmp	492	1	JQQJ	492	1	blank2r.bmp	572	3	gütig	866	1	!	1239	1	!	1319	0	0	0	0	0	0	0	0	0	0	0	0	0	0	0	0	0	0	0	0	0	0	0	0	0	0	0	0	0	0
073019	10:45:26	10:53:23	475658	5.0.10.0	5_exp_RW	89	Rpleas_acq	CS_A	JQQJ	DXXD	YFFY	LWWL	CPPC	ZHHZ	vertrauen	sonnig	gütig	träumen	genießen	küssen	versagen	sterben	gierig	töten	gemein	krank	1	acq_USunple_CSunple1_RW	acq4567_RW	4	44	400	0	300	300	511	46	0	1	1	blank2r.bmp	0	1	+	0	1	blank2r.bmp	492	1	YFFY	492	1	blank2r.bmp	572	1	versagen	866	1	!	1239	1	!	-1	0	0	0	0	0	0	0	0	0	0	0	0	0	0	0	0	0	0	0	0	0	0	0	0	0	0	0	0	0	0
073019	10:45:26	10:53:25	478044	5.0.10.0	5_exp_RW	89	Rpleas_acq	CS_A	JQQJ	DXXD	YFFY	LWWL	CPPC	ZHHZ	vertrauen	sonnig	gütig	träumen	genießen	küssen	versagen	sterben	gierig	töten	gemein	krank	1	acq_USunple_CSunple2_RW	acq4567_RW	4	45	400	0	300	300	607	46	0	1	1	blank2r.bmp	0	1	+	0	1	blank2r.bmp	492	1	LWWL	492	1	blank2r.bmp	572	2	gemein	866	1	!	1239	1	!	-1	0	0	0	0	0	0	0	0	0	0	0	0	0	0	0	0	0	0	0	0	0	0	0	0	0	0	0	0	0	0
073019	10:45:26	10:53:27	480270	5.0.10.0	5_exp_RW	89	Rpleas_acq	CS_A	JQQJ	DXXD	YFFY	LWWL	CPPC	ZHHZ	vertrauen	sonnig	gütig	träumen	genießen	küssen	versagen	sterben	gierig	töten	gemein	krank	1	acq_USpleas_CSpleas2_RW	acq4567_RW	4	46	400	1	300	300	417	50	0	1	1	blank2r.bmp	0	1	+	0	1	blank2r.bmp	492	1	DXXD	492	1	blank2r.bmp	572	1	träumen	866	1	!	1239	1	!	1319	0	0	0	0	0	0	0	0	0	0	0	0	0	0	0	0	0	0	0	0	0	0	0	0	0	0	0	0	0	0
073019	10:45:26	10:53:30	482736	5.0.10.0	5_exp_RW	89	Rpleas_acq	CS_A	JQQJ	DXXD	YFFY	LWWL	CPPC	ZHHZ	vertrauen	sonnig	gütig	träumen	genießen	küssen	versagen	sterben	gierig	töten	gemein	krank	1	acq_USpleas_CSpleas1_RW	acq4567_RW	4	47	400	0	300	300	682	46	0	0	1	blank2r.bmp	0	1	+	0	1	blank2r.bmp	492	1	JQQJ	492	1	blank2r.bmp	572	1	vertrauen	866	1	!	1239	1	!	-1	0	0	0	0	0	0	0	0	0	0	0	0	0	0	0	0	0	0	0	0	0	0	0	0	0	0	0	0	0	0
073019	10:45:26	10:53:32	484921	5.0.10.0	5_exp_RW	89	Rpleas_acq	CS_A	JQQJ	DXXD	YFFY	LWWL	CPPC	ZHHZ	vertrauen	sonnig	gütig	träumen	genießen	küssen	versagen	sterben	gierig	töten	gemein	krank	1	acq_USunple_CSunple1_RW	acq4567_RW	4	48	400	1	300	300	376	46	0	1	1	blank2r.bmp	0	1	+	0	1	blank2r.bmp	492	1	YFFY	492	1	blank2r.bmp	572	2	sterben	866	1	!	1239	1	!	1279	0	0	0	0	0	0	0	0	0	0	0	0	0	0	0	0	0	0	0	0	0	0	0	0	0	0	0	0	0	0
073019	10:45:26	10:53:34	487174	5.0.10.0	5_exp_RW	89	Rpleas_acq	CS_A	JQQJ	DXXD	YFFY	LWWL	CPPC	ZHHZ	vertrauen	sonnig	gütig	träumen	genießen	küssen	versagen	sterben	gierig	töten	gemein	krank	1	acq_USpleas_CSpleas2_RW	acq4567_RW	4	49	400	1	300	300	456	50	0	1	1	blank2r.bmp	0	1	+	0	1	blank2r.bmp	492	1	DXXD	492	1	blank2r.bmp	572	1	träumen	866	1	!	1239	1	!	1359	0	0	0	0	0	0	0	0	0	0	0	0	0	0	0	0	0	0	0	0	0	0	0	0	0	0	0	0	0	0
073019	10:45:26	10:53:36	489360	5.0.10.0	5_exp_RW	89	Rpleas_acq	CS_A	JQQJ	DXXD	YFFY	LWWL	CPPC	ZHHZ	vertrauen	sonnig	gütig	träumen	genießen	küssen	versagen	sterben	gierig	töten	gemein	krank	1	acq_USpleas_CSpleas2_RW	acq4567_RW	4	50	400	1	300	300	386	50	0	1	1	blank2r.bmp	0	1	+	0	1	blank2r.bmp	492	1	DXXD	492	1	blank2r.bmp	572	2	genießen	866	1	!	1239	1	!	1292	0	0	0	0	0	0	0	0	0	0	0	0	0	0	0	0	0	0	0	0	0	0	0	0	0	0	0	0	0	0
073019	10:45:26	10:53:39	491532	5.0.10.0	5_exp_RW	89	Rpleas_acq	CS_A	JQQJ	DXXD	YFFY	LWWL	CPPC	ZHHZ	vertrauen	sonnig	gütig	träumen	genießen	küssen	versagen	sterben	gierig	töten	gemein	krank	1	acq_USpleas_CSpleas1_RW	acq4567_RW	4	51	400	1	300	300	378	50	0	1	1	blank2r.bmp	0	1	+	0	1	blank2r.bmp	492	1	JQQJ	492	1	blank2r.bmp	572	2	sonnig	866	1	!	1239	1	!	1279	0	0	0	0	0	0	0	0	0	0	0	0	0	0	0	0	0	0	0	0	0	0	0	0	0	0	0	0	0	0
073019	10:45:26	10:53:41	493798	5.0.10.0	5_exp_RW	89	Rpleas_acq	CS_A	JQQJ	DXXD	YFFY	LWWL	CPPC	ZHHZ	vertrauen	sonnig	gütig	träumen	genießen	küssen	versagen	sterben	gierig	töten	gemein	krank	1	acq_USunple_CSunple1_RW	acq4567_RW	4	52	400	0	300	300	479	46	0	1	1	blank2r.bmp	0	1	+	0	1	blank2r.bmp	492	1	YFFY	492	1	blank2r.bmp	572	3	gierig	866	1	!	1239	1	!	-1	0	0	0	0	0	0	0	0	0	0	0	0	0	0	0	0	0	0	0	0	0	0	0	0	0	0	0	0	0	0
073019	10:45:26	10:53:43	495984	5.0.10.0	5_exp_RW	89	Rpleas_acq	CS_A	JQQJ	DXXD	YFFY	LWWL	CPPC	ZHHZ	vertrauen	sonnig	gütig	träumen	genießen	küssen	versagen	sterben	gierig	töten	gemein	krank	1	acq_USunple_CSunple2_RW	acq4567_RW	4	53	400	1	300	300	360	46	0	1	1	blank2r.bmp	0	1	+	0	1	blank2r.bmp	492	1	LWWL	492	1	blank2r.bmp	572	1	töten	866	1	!	1239	1	!	1266	0	0	0	0	0	0	0	0	0	0	0	0	0	0	0	0	0	0	0	0	0	0	0	0	0	0	0	0	0	0
073019	10:45:26	10:53:45	498129	5.0.10.0	5_exp_RW	89	Rpleas_acq	CS_A	JQQJ	DXXD	YFFY	LWWL	CPPC	ZHHZ	vertrauen	sonnig	gütig	träumen	genießen	küssen	versagen	sterben	gierig	töten	gemein	krank	1	acq_USunple_CSunple2_RW	acq4567_RW	4	54	400	1	300	300	349	46	0	1	1	blank2r.bmp	0	1	+	0	1	blank2r.bmp	492	1	LWWL	492	1	blank2r.bmp	572	2	gemein	866	1	!	1239	1	!	1252	0	0	0	0	0	0	0	0	0	0	0	0	0	0	0	0	0	0	0	0	0	0	0	0	0	0	0	0	0	0
073019	10:45:26	10:53:47	500275	5.0.10.0	5_exp_RW	89	Rpleas_acq	CS_A	JQQJ	DXXD	YFFY	LWWL	CPPC	ZHHZ	vertrauen	sonnig	gütig	träumen	genießen	küssen	versagen	sterben	gierig	töten	gemein	krank	1	acq_USunple_CSunple2_RW	acq4567_RW	4	55	400	1	300	300	346	46	0	1	1	blank2r.bmp	0	1	+	0	1	blank2r.bmp	492	1	LWWL	492	1	blank2r.bmp	572	3	krank	866	1	!	1239	1	!	1252	0	0	0	0	0	0	0	0	0	0	0	0	0	0	0	0	0	0	0	0	0	0	0	0	0	0	0	0	0	0
073019	10:45:26	10:53:49	502421	5.0.10.0	5_exp_RW	89	Rpleas_acq	CS_A	JQQJ	DXXD	YFFY	LWWL	CPPC	ZHHZ	vertrauen	sonnig	gütig	träumen	genießen	küssen	versagen	sterben	gierig	töten	gemein	krank	1	acq_USpleas_CSpleas2_RW	acq4567_RW	4	56	400	1	300	300	346	50	0	1	1	blank2r.bmp	0	1	+	0	1	blank2r.bmp	492	1	DXXD	492	1	blank2r.bmp	572	3	küssen	866	1	!	1239	1	!	1252	0	0	0	0	0	0	0	0	0	0	0	0	0	0	0	0	0	0	0	0	0	0	0	0	0	0	0	0	0	0
073019	10:45:26	10:53:52	504567	5.0.10.0	5_exp_RW	89	Rpleas_acq	CS_A	JQQJ	DXXD	YFFY	LWWL	CPPC	ZHHZ	vertrauen	sonnig	gütig	träumen	genießen	küssen	versagen	sterben	gierig	töten	gemein	krank	1	acq_USpleas_CSpleas2_RW	acq4567_RW	4	57	400	1	300	300	346	50	0	1	1	blank2r.bmp	0	1	+	0	1	blank2r.bmp	492	1	DXXD	492	1	blank2r.bmp	572	1	träumen	866	1	!	1239	1	!	1252	0	0	0	0	0	0	0	0	0	0	0	0	0	0	0	0	0	0	0	0	0	0	0	0	0	0	0	0	0	0
073019	10:45:26	10:53:54	506752	5.0.10.0	5_exp_RW	89	Rpleas_acq	CS_A	JQQJ	DXXD	YFFY	LWWL	CPPC	ZHHZ	vertrauen	sonnig	gütig	träumen	genießen	küssen	versagen	sterben	gierig	töten	gemein	krank	1	acq_USunple_CSunple1_RW	acq4567_RW	4	58	400	1	300	300	391	46	0	1	1	blank2r.bmp	0	1	+	0	1	blank2r.bmp	492	1	YFFY	492	1	blank2r.bmp	572	1	versagen	866	1	!	1239	1	!	1292	0	0	0	0	0	0	0	0	0	0	0	0	0	0	0	0	0	0	0	0	0	0	0	0	0	0	0	0	0	0
073019	10:45:26	10:53:56	508832	5.0.10.0	5_exp_RW	89	Rpleas_acq	CS_A	JQQJ	DXXD	YFFY	LWWL	CPPC	ZHHZ	vertrauen	sonnig	gütig	träumen	genießen	küssen	versagen	sterben	gierig	töten	gemein	krank	1	acq_USunple_CSunple2_RW	acq4567_RW	4	59	400	0	300	300	316	46	0	1	1	blank2r.bmp	0	1	+	0	1	blank2r.bmp	492	1	LWWL	492	1	blank2r.bmp	572	3	krank	866	1	!	-1	1	!	-1	0	0	0	0	0	0	0	0	0	0	0	0	0	0	0	0	0	0	0	0	0	0	0	0	0	0	0	0	0	0
073019	10:45:26	10:53:58	511057	5.0.10.0	5_exp_RW	89	Rpleas_acq	CS_A	JQQJ	DXXD	YFFY	LWWL	CPPC	ZHHZ	vertrauen	sonnig	gütig	träumen	genießen	küssen	versagen	sterben	gierig	töten	gemein	krank	1	acq_USpleas_CSpleas1_RW	acq4567_RW	4	60	400	1	300	300	425	50	0	1	1	blank2r.bmp	0	1	+	0	1	blank2r.bmp	492	1	JQQJ	492	1	blank2r.bmp	572	3	gütig	866	1	!	1239	1	!	1319	0	0	0	0	0	0	0	0	0	0	0	0	0	0	0	0	0	0	0	0	0	0	0	0	0	0	0	0	0	0
073019	10:45:26	10:54:00	513243	5.0.10.0	5_exp_RW	89	Rpleas_acq	CS_A	JQQJ	DXXD	YFFY	LWWL	CPPC	ZHHZ	vertrauen	sonnig	gütig	träumen	genießen	küssen	versagen	sterben	gierig	töten	gemein	krank	1	acq_USpleas_CSpleas2_RW	acq4567_RW	4	61	400	1	300	300	386	50	0	1	1	blank2r.bmp	0	1	+	0	1	blank2r.bmp	492	1	DXXD	492	1	blank2r.bmp	572	2	genießen	866	1	!	1239	1	!	1292	0	0	0	0	0	0	0	0	0	0	0	0	0	0	0	0	0	0	0	0	0	0	0	0	0	0	0	0	0	0
073019	10:45:26	10:54:02	515389	5.0.10.0	5_exp_RW	89	Rpleas_acq	CS_A	JQQJ	DXXD	YFFY	LWWL	CPPC	ZHHZ	vertrauen	sonnig	gütig	träumen	genießen	küssen	versagen	sterben	gierig	töten	gemein	krank	1	acq_USpleas_CSpleas1_RW	acq4567_RW	4	62	400	1	300	300	352	50	0	1	1	blank2r.bmp	0	1	+	0	1	blank2r.bmp	492	1	JQQJ	492	1	blank2r.bmp	572	1	vertrauen	866	1	!	1239	1	!	1252	0	0	0	0	0	0	0	0	0	0	0	0	0	0	0	0	0	0	0	0	0	0	0	0	0	0	0	0	0	0
073019	10:45:26	10:54:04	517455	5.0.10.0	5_exp_RW	89	Rpleas_acq	CS_A	JQQJ	DXXD	YFFY	LWWL	CPPC	ZHHZ	vertrauen	sonnig	gütig	träumen	genießen	küssen	versagen	sterben	gierig	töten	gemein	krank	1	acq_USunple_CSunple2_RW	acq4567_RW	4	63	400	0	300	300	301	46	0	1	1	blank2r.bmp	0	1	+	0	1	blank2r.bmp	492	1	LWWL	492	1	blank2r.bmp	572	1	töten	866	1	!	-1	1	!	-1	0	0	0	0	0	0	0	0	0	0	0	0	0	0	0	0	0	0	0	0	0	0	0	0	0	0	0	0	0	0
073019	10:45:26	10:54:07	519614	5.0.10.0	5_exp_RW	89	Rpleas_acq	CS_A	JQQJ	DXXD	YFFY	LWWL	CPPC	ZHHZ	vertrauen	sonnig	gütig	träumen	genießen	küssen	versagen	sterben	gierig	töten	gemein	krank	1	acq_USunple_CSunple1_RW	acq4567_RW	4	64	400	1	300	300	346	46	0	1	1	blank2r.bmp	0	1	+	0	1	blank2r.bmp	492	1	YFFY	492	1	blank2r.bmp	572	2	sterben	866	1	!	1239	1	!	1252	0	0	0	0	0	0	0	0	0	0	0	0	0	0	0	0	0	0	0	0	0	0	0	0	0	0	0	0	0	0
073019	10:45:26	10:54:09	521813	5.0.10.0	5_exp_RW	89	Rpleas_acq	CS_A	JQQJ	DXXD	YFFY	LWWL	CPPC	ZHHZ	vertrauen	sonnig	gütig	träumen	genießen	küssen	versagen	sterben	gierig	töten	gemein	krank	1	acq_USunple_CSunple2_RW	acq4567_RW	4	65	400	1	300	300	398	46	0	1	1	blank2r.bmp	0	1	+	0	1	blank2r.bmp	492	1	LWWL	492	1	blank2r.bmp	572	2	gemein	866	1	!	1239	1	!	1292	0	0	0	0	0	0	0	0	0	0	0	0	0	0	0	0	0	0	0	0	0	0	0	0	0	0	0	0	0	0
073019	10:45:26	10:54:11	524012	5.0.10.0	5_exp_RW	89	Rpleas_acq	CS_A	JQQJ	DXXD	YFFY	LWWL	CPPC	ZHHZ	vertrauen	sonnig	gütig	träumen	genießen	küssen	versagen	sterben	gierig	töten	gemein	krank	1	acq_USpleas_CSpleas2_RW	acq4567_RW	4	66	400	1	300	300	395	50	0	1	1	blank2r.bmp	0	1	+	0	1	blank2r.bmp	492	1	DXXD	492	1	blank2r.bmp	572	3	küssen	866	1	!	1239	1	!	1292	0	0	0	0	0	0	0	0	0	0	0	0	0	0	0	0	0	0	0	0	0	0	0	0	0	0	0	0	0	0
073019	10:45:26	10:54:13	526211	5.0.10.0	5_exp_RW	89	Rpleas_acq	CS_A	JQQJ	DXXD	YFFY	LWWL	CPPC	ZHHZ	vertrauen	sonnig	gütig	träumen	genießen	küssen	versagen	sterben	gierig	töten	gemein	krank	1	acq_USunple_CSunple2_RW	acq4567_RW	4	67	400	1	300	300	390	50	0	0	1	blank2r.bmp	0	1	+	0	1	blank2r.bmp	492	1	LWWL	492	1	blank2r.bmp	572	2	gemein	866	1	!	1239	1	!	1292	0	0	0	0	0	0	0	0	0	0	0	0	0	0	0	0	0	0	0	0	0	0	0	0	0	0	0	0	0	0
073019	10:45:26	10:54:15	528477	5.0.10.0	5_exp_RW	89	Rpleas_acq	CS_A	JQQJ	DXXD	YFFY	LWWL	CPPC	ZHHZ	vertrauen	sonnig	gütig	träumen	genießen	küssen	versagen	sterben	gierig	töten	gemein	krank	1	acq_USpleas_CSpleas1_RW	acq4567_RW	4	68	400	0	300	300	481	50	0	1	1	blank2r.bmp	0	1	+	0	1	blank2r.bmp	492	1	JQQJ	492	1	blank2r.bmp	572	2	sonnig	866	1	!	1239	1	!	-1	0	0	0	0	0	0	0	0	0	0	0	0	0	0	0	0	0	0	0	0	0	0	0	0	0	0	0	0	0	0
073019	10:45:26	10:54:18	530716	5.0.10.0	5_exp_RW	89	Rpleas_acq	CS_A	JQQJ	DXXD	YFFY	LWWL	CPPC	ZHHZ	vertrauen	sonnig	gütig	träumen	genießen	küssen	versagen	sterben	gierig	töten	gemein	krank	1	acq_USpleas_CSpleas2_RW	acq4567_RW	4	69	400	1	300	300	414	50	0	1	1	blank2r.bmp	0	1	+	0	1	blank2r.bmp	492	1	DXXD	492	1	blank2r.bmp	572	1	träumen	866	1	!	1239	1	!	1319	0	0	0	0	0	0	0	0	0	0	0	0	0	0	0	0	0	0	0	0	0	0	0	0	0	0	0	0	0	0
073019	10:45:26	10:54:20	532928	5.0.10.0	5_exp_RW	89	Rpleas_acq	CS_A	JQQJ	DXXD	YFFY	LWWL	CPPC	ZHHZ	vertrauen	sonnig	gütig	träumen	genießen	küssen	versagen	sterben	gierig	töten	gemein	krank	1	acq_USunple_CSunple1_RW	acq4567_RW	4	70	400	1	300	300	423	46	0	1	1	blank2r.bmp	0	1	+	0	1	blank2r.bmp	492	1	YFFY	492	1	blank2r.bmp	572	3	gierig	866	1	!	1239	1	!	1319	0	0	0	0	0	0	0	0	0	0	0	0	0	0	0	0	0	0	0	0	0	0	0	0	0	0	0	0	0	0
073019	10:45:26	10:54:22	535128	5.0.10.0	5_exp_RW	89	Rpleas_acq	CS_A	JQQJ	DXXD	YFFY	LWWL	CPPC	ZHHZ	vertrauen	sonnig	gütig	träumen	genießen	küssen	versagen	sterben	gierig	töten	gemein	krank	1	acq_USunple_CSunple1_RW	acq4567_RW	4	71	400	1	300	300	401	46	0	1	1	blank2r.bmp	0	1	+	0	1	blank2r.bmp	492	1	YFFY	492	1	blank2r.bmp	572	1	versagen	866	1	!	1239	1	!	1306	0	0	0	0	0	0	0	0	0	0	0	0	0	0	0	0	0	0	0	0	0	0	0	0	0	0	0	0	0	0
073019	10:45:26	10:54:24	537340	5.0.10.0	5_exp_RW	89	Rpleas_acq	CS_A	JQQJ	DXXD	YFFY	LWWL	CPPC	ZHHZ	vertrauen	sonnig	gütig	träumen	genießen	küssen	versagen	sterben	gierig	töten	gemein	krank	1	acq_USpleas_CSpleas1_RW	acq4567_RW	4	72	400	1	300	300	419	50	0	1	1	blank2r.bmp	0	1	+	0	1	blank2r.bmp	492	1	JQQJ	492	1	blank2r.bmp	572	1	vertrauen	866	1	!	1239	1	!	1319	0	0	0	0	0	0	0	0	0	0	0	0	0	0	0	0	0	0	0	0	0	0	0	0	0	0	0	0	0	0
073019	10:45:26	10:54:27	539526	5.0.10.0	5_exp_RW	89	Rpleas_acq	CS_A	JQQJ	DXXD	YFFY	LWWL	CPPC	ZHHZ	vertrauen	sonnig	gütig	träumen	genießen	küssen	versagen	sterben	gierig	töten	gemein	krank	1	acq_USunple_CSunple2_RW	acq4567_RW	4	73	400	1	300	300	393	46	0	1	1	blank2r.bmp	0	1	+	0	1	blank2r.bmp	492	1	LWWL	492	1	blank2r.bmp	572	1	töten	866	1	!	1239	1	!	1292	0	0	0	0	0	0	0	0	0	0	0	0	0	0	0	0	0	0	0	0	0	0	0	0	0	0	0	0	0	0
073019	10:45:26	10:54:29	541738	5.0.10.0	5_exp_RW	89	Rpleas_acq	CS_A	JQQJ	DXXD	YFFY	LWWL	CPPC	ZHHZ	vertrauen	sonnig	gütig	träumen	genießen	küssen	versagen	sterben	gierig	töten	gemein	krank	1	acq_USpleas_CSpleas1_RW	acq4567_RW	4	74	400	1	300	300	423	50	0	1	1	blank2r.bmp	0	1	+	0	1	blank2r.bmp	492	1	JQQJ	492	1	blank2r.bmp	572	2	sonnig	866	1	!	1239	1	!	1319	0	0	0	0	0	0	0	0	0	0	0	0	0	0	0	0	0	0	0	0	0	0	0	0	0	0	0	0	0	0
073019	10:45:26	10:54:31	543924	5.0.10.0	5_exp_RW	89	Rpleas_acq	CS_A	JQQJ	DXXD	YFFY	LWWL	CPPC	ZHHZ	vertrauen	sonnig	gütig	träumen	genießen	küssen	versagen	sterben	gierig	töten	gemein	krank	1	acq_USunple_CSunple1_RW	acq4567_RW	4	75	400	1	300	300	396	46	0	1	1	blank2r.bmp	0	1	+	0	1	blank2r.bmp	492	1	YFFY	492	1	blank2r.bmp	572	2	sterben	866	1	!	1239	1	!	1292	0	0	0	0	0	0	0	0	0	0	0	0	0	0	0	0	0	0	0	0	0	0	0	0	0	0	0	0	0	0
073019	10:45:26	10:54:33	546150	5.0.10.0	5_exp_RW	89	Rpleas_acq	CS_A	JQQJ	DXXD	YFFY	LWWL	CPPC	ZHHZ	vertrauen	sonnig	gütig	träumen	genießen	küssen	versagen	sterben	gierig	töten	gemein	krank	1	acq_USpleas_CSpleas2_RW	acq4567_RW	4	76	400	1	300	300	434	50	0	1	1	blank2r.bmp	0	1	+	0	1	blank2r.bmp	492	1	DXXD	492	1	blank2r.bmp	572	3	küssen	866	1	!	1239	1	!	1332	0	0	0	0	0	0	0	0	0	0	0	0	0	0	0	0	0	0	0	0	0	0	0	0	0	0	0	0	0	0
073019	10:45:26	10:54:35	548322	5.0.10.0	5_exp_RW	89	Rpleas_acq	CS_A	JQQJ	DXXD	YFFY	LWWL	CPPC	ZHHZ	vertrauen	sonnig	gütig	träumen	genießen	küssen	versagen	sterben	gierig	töten	gemein	krank	1	acq_USpleas_CSpleas2_RW	acq4567_RW	4	77	400	1	300	300	364	50	0	1	1	blank2r.bmp	0	1	+	0	1	blank2r.bmp	492	1	DXXD	492	1	blank2r.bmp	572	2	genießen	866	1	!	1239	1	!	1266	0	0	0	0	0	0	0	0	0	0	0	0	0	0	0	0	0	0	0	0	0	0	0	0	0	0	0	0	0	0
073019	10:45:26	10:54:37	550468	5.0.10.0	5_exp_RW	89	Rpleas_acq	CS_A	JQQJ	DXXD	YFFY	LWWL	CPPC	ZHHZ	vertrauen	sonnig	gütig	träumen	genießen	küssen	versagen	sterben	gierig	töten	gemein	krank	1	acq_USunple_CSunple1_RW	acq4567_RW	4	78	400	1	300	300	346	50	0	0	1	blank2r.bmp	0	1	+	0	1	blank2r.bmp	492	1	YFFY	492	1	blank2r.bmp	572	3	gierig	866	1	!	1239	1	!	1252	0	0	0	0	0	0	0	0	0	0	0	0	0	0	0	0	0	0	0	0	0	0	0	0	0	0	0	0	0	0
073019	10:45:26	10:54:46	559411	5.0.10.0	5_exp_RW	89	Rpleas_acq	CS_A	JQQJ	DXXD	YFFY	LWWL	CPPC	ZHHZ	vertrauen	sonnig	gütig	träumen	genießen	küssen	versagen	sterben	gierig	töten	gemein	krank	1	acq_USunple_CSunple2_RW	acq4567_RW	4	79	400	0	300	300	7182	46	0	1	1	blank2r.bmp	0	1	+	0	1	blank2r.bmp	492	1	LWWL	492	1	blank2r.bmp	572	3	krank	866	1	!	1239	1	!	-1	0	0	0	0	0	0	0	0	0	0	0	0	0	0	0	0	0	0	0	0	0	0	0	0	0	0	0	0	0	0
073019	10:45:26	10:54:49	561690	5.0.10.0	5_exp_RW	89	Rpleas_acq	CS_A	JQQJ	DXXD	YFFY	LWWL	CPPC	ZHHZ	vertrauen	sonnig	gütig	träumen	genießen	küssen	versagen	sterben	gierig	töten	gemein	krank	1	acq_USpleas_CSpleas1_RW	acq4567_RW	4	80	400	0	300	300	479	50	0	1	1	blank2r.bmp	0	1	+	0	1	blank2r.bmp	492	1	JQQJ	492	1	blank2r.bmp	572	3	gütig	866	1	!	1239	1	!	-1	0	0	0	0	0	0	0	0	0	0	0	0	0	0	0	0	0	0	0	0	0	0	0	0	0	0	0	0	0	0
073019	10:45:26	10:55:11	583721	5.0.10.0	5_exp_RW	89	Rpleas_acq	CS_A	JQQJ	DXXD	YFFY	LWWL	CPPC	ZHHZ	vertrauen	sonnig	gütig	träumen	genießen	küssen	versagen	sterben	gierig	töten	gemein	krank	1	acq_USpleas_CSpleas2_RW	acq4567_RW	5	1	400	1	300	300	397	50	0	1	1	blank2r.bmp	0	1	+	0	1	blank2r.bmp	492	1	DXXD	492	1	blank2r.bmp	572	3	küssen	866	1	!	1239	1	!	1292	0	0	0	0	0	0	0	0	0	0	0	0	0	0	0	0	0	0	0	0	0	0	0	0	0	0	0	0	0	0
073019	10:45:26	10:55:13	585907	5.0.10.0	5_exp_RW	89	Rpleas_acq	CS_A	JQQJ	DXXD	YFFY	LWWL	CPPC	ZHHZ	vertrauen	sonnig	gütig	träumen	genießen	küssen	versagen	sterben	gierig	töten	gemein	krank	1	acq_USpleas_CSpleas1_RW	acq4567_RW	5	2	400	1	300	300	388	50	0	1	1	blank2r.bmp	0	1	+	0	1	blank2r.bmp	492	1	JQQJ	492	1	blank2r.bmp	572	3	gütig	866	1	!	1239	1	!	1292	0	0	0	0	0	0	0	0	0	0	0	0	0	0	0	0	0	0	0	0	0	0	0	0	0	0	0	0	0	0
073019	10:45:26	10:55:15	588079	5.0.10.0	5_exp_RW	89	Rpleas_acq	CS_A	JQQJ	DXXD	YFFY	LWWL	CPPC	ZHHZ	vertrauen	sonnig	gütig	träumen	genießen	küssen	versagen	sterben	gierig	töten	gemein	krank	1	acq_USpleas_CSpleas1_RW	acq4567_RW	5	3	400	1	300	300	378	50	0	1	1	blank2r.bmp	0	1	+	0	1	blank2r.bmp	492	1	JQQJ	492	1	blank2r.bmp	572	2	sonnig	866	1	!	1239	1	!	1279	0	0	0	0	0	0	0	0	0	0	0	0	0	0	0	0	0	0	0	0	0	0	0	0	0	0	0	0	0	0
073019	10:45:26	10:55:17	590292	5.0.10.0	5_exp_RW	89	Rpleas_acq	CS_A	JQQJ	DXXD	YFFY	LWWL	CPPC	ZHHZ	vertrauen	sonnig	gütig	träumen	genießen	küssen	versagen	sterben	gierig	töten	gemein	krank	1	acq_USunple_CSunple2_RW	acq4567_RW	5	4	400	1	300	300	423	46	0	1	1	blank2r.bmp	0	1	+	0	1	blank2r.bmp	492	1	LWWL	492	1	blank2r.bmp	572	3	krank	866	1	!	1239	1	!	1319	0	0	0	0	0	0	0	0	0	0	0	0	0	0	0	0	0	0	0	0	0	0	0	0	0	0	0	0	0	0
073019	10:45:26	10:55:20	592517	5.0.10.0	5_exp_RW	89	Rpleas_acq	CS_A	JQQJ	DXXD	YFFY	LWWL	CPPC	ZHHZ	vertrauen	sonnig	gütig	träumen	genießen	küssen	versagen	sterben	gierig	töten	gemein	krank	1	acq_USpleas_CSpleas1_RW	acq4567_RW	5	5	400	1	300	300	432	50	0	1	1	blank2r.bmp	0	1	+	0	1	blank2r.bmp	492	1	JQQJ	492	1	blank2r.bmp	572	1	vertrauen	866	1	!	1239	1	!	1332	0	0	0	0	0	0	0	0	0	0	0	0	0	0	0	0	0	0	0	0	0	0	0	0	0	0	0	0	0	0
073019	10:45:26	10:55:22	594757	5.0.10.0	5_exp_RW	89	Rpleas_acq	CS_A	JQQJ	DXXD	YFFY	LWWL	CPPC	ZHHZ	vertrauen	sonnig	gütig	träumen	genießen	küssen	versagen	sterben	gierig	töten	gemein	krank	1	acq_USunple_CSunple2_RW	acq4567_RW	5	6	400	1	300	300	440	46	0	1	1	blank2r.bmp	0	1	+	0	1	blank2r.bmp	492	1	LWWL	492	1	blank2r.bmp	572	1	töten	866	1	!	1239	1	!	1346	0	0	0	0	0	0	0	0	0	0	0	0	0	0	0	0	0	0	0	0	0	0	0	0	0	0	0	0	0	0
073019	10:45:26	10:55:24	596969	5.0.10.0	5_exp_RW	89	Rpleas_acq	CS_A	JQQJ	DXXD	YFFY	LWWL	CPPC	ZHHZ	vertrauen	sonnig	gütig	träumen	genießen	küssen	versagen	sterben	gierig	töten	gemein	krank	1	acq_USpleas_CSpleas1_RW	acq4567_RW	5	7	400	1	300	300	414	50	0	1	1	blank2r.bmp	0	1	+	0	1	blank2r.bmp	492	1	JQQJ	492	1	blank2r.bmp	572	2	sonnig	866	1	!	1239	1	!	1319	0	0	0	0	0	0	0	0	0	0	0	0	0	0	0	0	0	0	0	0	0	0	0	0	0	0	0	0	0	0
073019	10:45:26	10:55:26	599128	5.0.10.0	5_exp_RW	89	Rpleas_acq	CS_A	JQQJ	DXXD	YFFY	LWWL	CPPC	ZHHZ	vertrauen	sonnig	gütig	träumen	genießen	küssen	versagen	sterben	gierig	töten	gemein	krank	1	acq_USunple_CSunple1_RW	acq4567_RW	5	8	400	1	300	300	363	46	0	1	1	blank2r.bmp	0	1	+	0	1	blank2r.bmp	492	1	YFFY	492	1	blank2r.bmp	572	1	versagen	866	1	!	1239	1	!	1266	0	0	0	0	0	0	0	0	0	0	0	0	0	0	0	0	0	0	0	0	0	0	0	0	0	0	0	0	0	0
073019	10:45:26	10:55:28	601274	5.0.10.0	5_exp_RW	89	Rpleas_acq	CS_A	JQQJ	DXXD	YFFY	LWWL	CPPC	ZHHZ	vertrauen	sonnig	gütig	träumen	genießen	küssen	versagen	sterben	gierig	töten	gemein	krank	1	acq_USunple_CSunple1_RW	acq4567_RW	5	9	400	1	300	300	348	46	0	1	1	blank2r.bmp	0	1	+	0	1	blank2r.bmp	492	1	YFFY	492	1	blank2r.bmp	572	2	sterben	866	1	!	1239	1	!	1252	0	0	0	0	0	0	0	0	0	0	0	0	0	0	0	0	0	0	0	0	0	0	0	0	0	0	0	0	0	0
073019	10:45:26	10:55:30	603433	5.0.10.0	5_exp_RW	89	Rpleas_acq	CS_A	JQQJ	DXXD	YFFY	LWWL	CPPC	ZHHZ	vertrauen	sonnig	gütig	träumen	genießen	küssen	versagen	sterben	gierig	töten	gemein	krank	1	acq_USpleas_CSpleas2_RW	acq4567_RW	5	10	400	1	300	300	361	50	0	1	1	blank2r.bmp	0	1	+	0	1	blank2r.bmp	492	1	DXXD	492	1	blank2r.bmp	572	2	genießen	866	1	!	1239	1	!	1266	0	0	0	0	0	0	0	0	0	0	0	0	0	0	0	0	0	0	0	0	0	0	0	0	0	0	0	0	0	0
073019	10:45:26	10:55:33	605579	5.0.10.0	5_exp_RW	89	Rpleas_acq	CS_A	JQQJ	DXXD	YFFY	LWWL	CPPC	ZHHZ	vertrauen	sonnig	gütig	träumen	genießen	küssen	versagen	sterben	gierig	töten	gemein	krank	1	acq_USunple_CSunple2_RW	acq4567_RW	5	11	400	1	300	300	356	46	0	1	1	blank2r.bmp	0	1	+	0	1	blank2r.bmp	492	1	LWWL	492	1	blank2r.bmp	572	2	gemein	866	1	!	1239	1	!	1252	0	0	0	0	0	0	0	0	0	0	0	0	0	0	0	0	0	0	0	0	0	0	0	0	0	0	0	0	0	0
073019	10:45:26	10:55:35	607805	5.0.10.0	5_exp_RW	89	Rpleas_acq	CS_A	JQQJ	DXXD	YFFY	LWWL	CPPC	ZHHZ	vertrauen	sonnig	gütig	träumen	genießen	küssen	versagen	sterben	gierig	töten	gemein	krank	1	acq_USunple_CSunple1_RW	acq4567_RW	5	12	400	1	300	300	430	46	0	1	1	blank2r.bmp	0	1	+	0	1	blank2r.bmp	492	1	YFFY	492	1	blank2r.bmp	572	3	gierig	866	1	!	1239	1	!	1332	0	0	0	0	0	0	0	0	0	0	0	0	0	0	0	0	0	0	0	0	0	0	0	0	0	0	0	0	0	0
073019	10:45:26	10:55:37	609897	5.0.10.0	5_exp_RW	89	Rpleas_acq	CS_A	JQQJ	DXXD	YFFY	LWWL	CPPC	ZHHZ	vertrauen	sonnig	gütig	träumen	genießen	küssen	versagen	sterben	gierig	töten	gemein	krank	1	acq_USpleas_CSpleas2_RW	acq4567_RW	5	13	400	0	300	300	325	50	0	1	1	blank2r.bmp	0	1	+	0	1	blank2r.bmp	492	1	DXXD	492	1	blank2r.bmp	572	1	träumen	866	1	!	-1	1	!	-1	0	0	0	0	0	0	0	0	0	0	0	0	0	0	0	0	0	0	0	0	0	0	0	0	0	0	0	0	0	0
073019	10:45:26	10:55:39	612163	5.0.10.0	5_exp_RW	89	Rpleas_acq	CS_A	JQQJ	DXXD	YFFY	LWWL	CPPC	ZHHZ	vertrauen	sonnig	gütig	träumen	genießen	küssen	versagen	sterben	gierig	töten	gemein	krank	1	acq_USpleas_CSpleas2_RW	acq4567_RW	5	14	400	0	300	300	479	50	0	1	1	blank2r.bmp	0	1	+	0	1	blank2r.bmp	492	1	DXXD	492	1	blank2r.bmp	572	2	genießen	866	1	!	1239	1	!	-1	0	0	0	0	0	0	0	0	0	0	0	0	0	0	0	0	0	0	0	0	0	0	0	0	0	0	0	0	0	0
073019	10:45:26	10:55:41	614375	5.0.10.0	5_exp_RW	89	Rpleas_acq	CS_A	JQQJ	DXXD	YFFY	LWWL	CPPC	ZHHZ	vertrauen	sonnig	gütig	träumen	genießen	küssen	versagen	sterben	gierig	töten	gemein	krank	1	acq_USpleas_CSpleas1_RW	acq4567_RW	5	15	400	1	300	300	404	50	0	1	1	blank2r.bmp	0	1	+	0	1	blank2r.bmp	492	1	JQQJ	492	1	blank2r.bmp	572	3	gütig	866	1	!	1239	1	!	1306	0	0	0	0	0	0	0	0	0	0	0	0	0	0	0	0	0	0	0	0	0	0	0	0	0	0	0	0	0	0
073019	10:45:26	10:55:44	616668	5.0.10.0	5_exp_RW	89	Rpleas_acq	CS_A	JQQJ	DXXD	YFFY	LWWL	CPPC	ZHHZ	vertrauen	sonnig	gütig	träumen	genießen	küssen	versagen	sterben	gierig	töten	gemein	krank	1	acq_USunple_CSunple2_RW	acq4567_RW	5	16	400	0	300	300	524	46	0	1	1	blank2r.bmp	0	1	+	0	1	blank2r.bmp	492	1	LWWL	492	1	blank2r.bmp	572	1	töten	866	1	!	1239	1	!	-1	0	0	0	0	0	0	0	0	0	0	0	0	0	0	0	0	0	0	0	0	0	0	0	0	0	0	0	0	0	0
073019	10:45:26	10:55:46	618827	5.0.10.0	5_exp_RW	89	Rpleas_acq	CS_A	JQQJ	DXXD	YFFY	LWWL	CPPC	ZHHZ	vertrauen	sonnig	gütig	träumen	genießen	küssen	versagen	sterben	gierig	töten	gemein	krank	1	acq_USpleas_CSpleas2_RW	acq4567_RW	5	17	400	1	300	300	348	50	0	1	1	blank2r.bmp	0	1	+	0	1	blank2r.bmp	492	1	DXXD	492	1	blank2r.bmp	572	1	träumen	866	1	!	1239	1	!	1252	0	0	0	0	0	0	0	0	0	0	0	0	0	0	0	0	0	0	0	0	0	0	0	0	0	0	0	0	0	0
073019	10:45:26	10:55:48	620973	5.0.10.0	5_exp_RW	89	Rpleas_acq	CS_A	JQQJ	DXXD	YFFY	LWWL	CPPC	ZHHZ	vertrauen	sonnig	gütig	träumen	genießen	küssen	versagen	sterben	gierig	töten	gemein	krank	1	acq_USunple_CSunple2_RW	acq4567_RW	5	18	400	1	300	300	352	46	0	1	1	blank2r.bmp	0	1	+	0	1	blank2r.bmp	492	1	LWWL	492	1	blank2r.bmp	572	3	krank	866	1	!	1239	1	!	1252	0	0	0	0	0	0	0	0	0	0	0	0	0	0	0	0	0	0	0	0	0	0	0	0	0	0	0	0	0	0
073019	10:45:26	10:55:50	623118	5.0.10.0	5_exp_RW	89	Rpleas_acq	CS_A	JQQJ	DXXD	YFFY	LWWL	CPPC	ZHHZ	vertrauen	sonnig	gütig	träumen	genießen	küssen	versagen	sterben	gierig	töten	gemein	krank	1	acq_USunple_CSunple1_RW	acq4567_RW	5	19	400	1	300	300	357	46	0	1	1	blank2r.bmp	0	1	+	0	1	blank2r.bmp	492	1	YFFY	492	1	blank2r.bmp	572	3	gierig	866	1	!	1239	1	!	1252	0	0	0	0	0	0	0	0	0	0	0	0	0	0	0	0	0	0	0	0	0	0	0	0	0	0	0	0	0	0
073019	10:45:26	10:55:52	625291	5.0.10.0	5_exp_RW	89	Rpleas_acq	CS_A	JQQJ	DXXD	YFFY	LWWL	CPPC	ZHHZ	vertrauen	sonnig	gütig	träumen	genießen	küssen	versagen	sterben	gierig	töten	gemein	krank	1	acq_USunple_CSunple1_RW	acq4567_RW	5	20	400	1	300	300	364	46	0	1	1	blank2r.bmp	0	1	+	0	1	blank2r.bmp	492	1	YFFY	492	1	blank2r.bmp	572	2	sterben	866	1	!	1239	1	!	1266	0	0	0	0	0	0	0	0	0	0	0	0	0	0	0	0	0	0	0	0	0	0	0	0	0	0	0	0	0	0
073019	10:45:26	10:55:54	627490	5.0.10.0	5_exp_RW	89	Rpleas_acq	CS_A	JQQJ	DXXD	YFFY	LWWL	CPPC	ZHHZ	vertrauen	sonnig	gütig	träumen	genießen	küssen	versagen	sterben	gierig	töten	gemein	krank	1	acq_USpleas_CSpleas2_RW	acq4567_RW	5	21	400	1	300	300	404	50	0	1	1	blank2r.bmp	0	1	+	0	1	blank2r.bmp	492	1	DXXD	492	1	blank2r.bmp	572	3	küssen	866	1	!	1239	1	!	1306	0	0	0	0	0	0	0	0	0	0	0	0	0	0	0	0	0	0	0	0	0	0	0	0	0	0	0	0	0	0
073019	10:45:26	10:55:57	629636	5.0.10.0	5_exp_RW	89	Rpleas_acq	CS_A	JQQJ	DXXD	YFFY	LWWL	CPPC	ZHHZ	vertrauen	sonnig	gütig	träumen	genießen	küssen	versagen	sterben	gierig	töten	gemein	krank	1	acq_USpleas_CSpleas1_RW	acq4567_RW	5	22	400	1	300	300	353	50	0	1	1	blank2r.bmp	0	1	+	0	1	blank2r.bmp	492	1	JQQJ	492	1	blank2r.bmp	572	1	vertrauen	866	1	!	1239	1	!	1252	0	0	0	0	0	0	0	0	0	0	0	0	0	0	0	0	0	0	0	0	0	0	0	0	0	0	0	0	0	0
073019	10:45:26	10:55:59	631848	5.0.10.0	5_exp_RW	89	Rpleas_acq	CS_A	JQQJ	DXXD	YFFY	LWWL	CPPC	ZHHZ	vertrauen	sonnig	gütig	träumen	genießen	küssen	versagen	sterben	gierig	töten	gemein	krank	1	acq_USpleas_CSpleas2_RW	acq4567_RW	5	23	400	1	300	300	418	50	0	1	1	blank2r.bmp	0	1	+	0	1	blank2r.bmp	492	1	DXXD	492	1	blank2r.bmp	572	2	genießen	866	1	!	1239	1	!	1319	0	0	0	0	0	0	0	0	0	0	0	0	0	0	0	0	0	0	0	0	0	0	0	0	0	0	0	0	0	0
073019	10:45:26	10:56:01	634034	5.0.10.0	5_exp_RW	89	Rpleas_acq	CS_A	JQQJ	DXXD	YFFY	LWWL	CPPC	ZHHZ	vertrauen	sonnig	gütig	träumen	genießen	küssen	versagen	sterben	gierig	töten	gemein	krank	1	acq_USunple_CSunple2_RW	acq4567_RW	5	24	400	1	300	300	386	46	0	1	1	blank2r.bmp	0	1	+	0	1	blank2r.bmp	492	1	LWWL	492	1	blank2r.bmp	572	2	gemein	866	1	!	1239	1	!	1292	0	0	0	0	0	0	0	0	0	0	0	0	0	0	0	0	0	0	0	0	0	0	0	0	0	0	0	0	0	0
073019	10:45:26	10:56:03	636126	5.0.10.0	5_exp_RW	89	Rpleas_acq	CS_A	JQQJ	DXXD	YFFY	LWWL	CPPC	ZHHZ	vertrauen	sonnig	gütig	träumen	genießen	küssen	versagen	sterben	gierig	töten	gemein	krank	1	acq_USunple_CSunple1_RW	acq4567_RW	5	25	400	0	300	300	324	46	0	1	1	blank2r.bmp	0	1	+	0	1	blank2r.bmp	492	1	YFFY	492	1	blank2r.bmp	572	1	versagen	866	1	!	-1	1	!	-1	0	0	0	0	0	0	0	0	0	0	0	0	0	0	0	0	0	0	0	0	0	0	0	0	0	0	0	0	0	0
073019	10:45:26	10:56:05	638352	5.0.10.0	5_exp_RW	89	Rpleas_acq	CS_A	JQQJ	DXXD	YFFY	LWWL	CPPC	ZHHZ	vertrauen	sonnig	gütig	träumen	genießen	küssen	versagen	sterben	gierig	töten	gemein	krank	1	acq_USpleas_CSpleas1_RW	acq4567_RW	5	26	400	1	300	300	422	50	0	1	1	blank2r.bmp	0	1	+	0	1	blank2r.bmp	492	1	JQQJ	492	1	blank2r.bmp	572	3	gütig	866	1	!	1239	1	!	1319	0	0	0	0	0	0	0	0	0	0	0	0	0	0	0	0	0	0	0	0	0	0	0	0	0	0	0	0	0	0
073019	10:45:26	10:56:08	640538	5.0.10.0	5_exp_RW	89	Rpleas_acq	CS_A	JQQJ	DXXD	YFFY	LWWL	CPPC	ZHHZ	vertrauen	sonnig	gütig	träumen	genießen	küssen	versagen	sterben	gierig	töten	gemein	krank	1	acq_USunple_CSunple1_RW	acq4567_RW	5	27	400	1	300	300	397	46	0	1	1	blank2r.bmp	0	1	+	0	1	blank2r.bmp	492	1	YFFY	492	1	blank2r.bmp	572	3	gierig	866	1	!	1239	1	!	1292	0	0	0	0	0	0	0	0	0	0	0	0	0	0	0	0	0	0	0	0	0	0	0	0	0	0	0	0	0	0
073019	10:45:26	10:56:10	642724	5.0.10.0	5_exp_RW	89	Rpleas_acq	CS_A	JQQJ	DXXD	YFFY	LWWL	CPPC	ZHHZ	vertrauen	sonnig	gütig	träumen	genießen	küssen	versagen	sterben	gierig	töten	gemein	krank	1	acq_USpleas_CSpleas1_RW	acq4567_RW	5	28	400	1	300	300	392	50	0	1	1	blank2r.bmp	0	1	+	0	1	blank2r.bmp	492	1	JQQJ	492	1	blank2r.bmp	572	1	vertrauen	866	1	!	1239	1	!	1292	0	0	0	0	0	0	0	0	0	0	0	0	0	0	0	0	0	0	0	0	0	0	0	0	0	0	0	0	0	0
073019	10:45:26	10:56:12	644923	5.0.10.0	5_exp_RW	89	Rpleas_acq	CS_A	JQQJ	DXXD	YFFY	LWWL	CPPC	ZHHZ	vertrauen	sonnig	gütig	träumen	genießen	küssen	versagen	sterben	gierig	töten	gemein	krank	1	acq_USunple_CSunple1_RW	acq4567_RW	5	29	400	1	300	300	407	46	0	1	1	blank2r.bmp	0	1	+	0	1	blank2r.bmp	492	1	YFFY	492	1	blank2r.bmp	572	2	sterben	866	1	!	1239	1	!	1306	0	0	0	0	0	0	0	0	0	0	0	0	0	0	0	0	0	0	0	0	0	0	0	0	0	0	0	0	0	0
073019	10:45:26	10:56:14	647095	5.0.10.0	5_exp_RW	89	Rpleas_acq	CS_A	JQQJ	DXXD	YFFY	LWWL	CPPC	ZHHZ	vertrauen	sonnig	gütig	träumen	genießen	küssen	versagen	sterben	gierig	töten	gemein	krank	1	acq_USunple_CSunple2_RW	acq4567_RW	5	30	400	1	300	300	379	46	0	1	1	blank2r.bmp	0	1	+	0	1	blank2r.bmp	492	1	LWWL	492	1	blank2r.bmp	572	3	krank	866	1	!	1239	1	!	1279	0	0	0	0	0	0	0	0	0	0	0	0	0	0	0	0	0	0	0	0	0	0	0	0	0	0	0	0	0	0
073019	10:45:26	10:56:16	649188	5.0.10.0	5_exp_RW	89	Rpleas_acq	CS_A	JQQJ	DXXD	YFFY	LWWL	CPPC	ZHHZ	vertrauen	sonnig	gütig	träumen	genießen	küssen	versagen	sterben	gierig	töten	gemein	krank	1	acq_USpleas_CSpleas1_RW	acq4567_RW	5	31	400	0	300	300	314	50	0	1	1	blank2r.bmp	0	1	+	0	1	blank2r.bmp	492	1	JQQJ	492	1	blank2r.bmp	572	2	sonnig	866	1	!	-1	1	!	-1	0	0	0	0	0	0	0	0	0	0	0	0	0	0	0	0	0	0	0	0	0	0	0	0	0	0	0	0	0	0
073019	10:45:26	10:56:18	651467	5.0.10.0	5_exp_RW	89	Rpleas_acq	CS_A	JQQJ	DXXD	YFFY	LWWL	CPPC	ZHHZ	vertrauen	sonnig	gütig	träumen	genießen	küssen	versagen	sterben	gierig	töten	gemein	krank	1	acq_USunple_CSunple2_RW	acq4567_RW	5	32	400	0	300	300	489	46	0	1	1	blank2r.bmp	0	1	+	0	1	blank2r.bmp	492	1	LWWL	492	1	blank2r.bmp	572	2	gemein	866	1	!	1239	1	!	-1	0	0	0	0	0	0	0	0	0	0	0	0	0	0	0	0	0	0	0	0	0	0	0	0	0	0	0	0	0	0
073019	10:45:26	10:56:21	653639	5.0.10.0	5_exp_RW	89	Rpleas_acq	CS_A	JQQJ	DXXD	YFFY	LWWL	CPPC	ZHHZ	vertrauen	sonnig	gütig	träumen	genießen	küssen	versagen	sterben	gierig	töten	gemein	krank	1	acq_USpleas_CSpleas1_RW	acq4567_RW	5	33	400	1	300	300	347	50	0	1	1	blank2r.bmp	0	1	+	0	1	blank2r.bmp	492	1	JQQJ	492	1	blank2r.bmp	572	2	sonnig	866	1	!	1239	1	!	1252	0	0	0	0	0	0	0	0	0	0	0	0	0	0	0	0	0	0	0	0	0	0	0	0	0	0	0	0	0	0
073019	10:45:26	10:56:23	655838	5.0.10.0	5_exp_RW	89	Rpleas_acq	CS_A	JQQJ	DXXD	YFFY	LWWL	CPPC	ZHHZ	vertrauen	sonnig	gütig	träumen	genießen	küssen	versagen	sterben	gierig	töten	gemein	krank	1	acq_USpleas_CSpleas2_RW	acq4567_RW	5	34	400	1	300	300	402	50	0	1	1	blank2r.bmp	0	1	+	0	1	blank2r.bmp	492	1	DXXD	492	1	blank2r.bmp	572	1	träumen	866	1	!	1239	1	!	1306	0	0	0	0	0	0	0	0	0	0	0	0	0	0	0	0	0	0	0	0	0	0	0	0	0	0	0	0	0	0
073019	10:45:26	10:56:25	658024	5.0.10.0	5_exp_RW	89	Rpleas_acq	CS_A	JQQJ	DXXD	YFFY	LWWL	CPPC	ZHHZ	vertrauen	sonnig	gütig	träumen	genießen	küssen	versagen	sterben	gierig	töten	gemein	krank	1	acq_USunple_CSunple2_RW	acq4567_RW	5	35	400	1	300	300	390	46	0	1	1	blank2r.bmp	0	1	+	0	1	blank2r.bmp	492	1	LWWL	492	1	blank2r.bmp	572	1	töten	866	1	!	1239	1	!	1292	0	0	0	0	0	0	0	0	0	0	0	0	0	0	0	0	0	0	0	0	0	0	0	0	0	0	0	0	0	0
073019	10:45:26	10:56:27	660223	5.0.10.0	5_exp_RW	89	Rpleas_acq	CS_A	JQQJ	DXXD	YFFY	LWWL	CPPC	ZHHZ	vertrauen	sonnig	gütig	träumen	genießen	küssen	versagen	sterben	gierig	töten	gemein	krank	1	acq_USunple_CSunple1_RW	acq4567_RW	5	36	400	1	300	300	403	46	0	1	1	blank2r.bmp	0	1	+	0	1	blank2r.bmp	492	1	YFFY	492	1	blank2r.bmp	572	1	versagen	866	1	!	1239	1	!	1306	0	0	0	0	0	0	0	0	0	0	0	0	0	0	0	0	0	0	0	0	0	0	0	0	0	0	0	0	0	0
073019	10:45:26	10:56:29	662449	5.0.10.0	5_exp_RW	89	Rpleas_acq	CS_A	JQQJ	DXXD	YFFY	LWWL	CPPC	ZHHZ	vertrauen	sonnig	gütig	träumen	genießen	küssen	versagen	sterben	gierig	töten	gemein	krank	1	acq_USpleas_CSpleas2_RW	acq4567_RW	5	37	400	1	300	300	428	50	0	1	1	blank2r.bmp	0	1	+	0	1	blank2r.bmp	492	1	DXXD	492	1	blank2r.bmp	572	3	küssen	866	1	!	1239	1	!	1332	0	0	0	0	0	0	0	0	0	0	0	0	0	0	0	0	0	0	0	0	0	0	0	0	0	0	0	0	0	0
073019	10:45:26	10:56:32	664648	5.0.10.0	5_exp_RW	89	Rpleas_acq	CS_A	JQQJ	DXXD	YFFY	LWWL	CPPC	ZHHZ	vertrauen	sonnig	gütig	träumen	genießen	küssen	versagen	sterben	gierig	töten	gemein	krank	1	acq_USunple_CSunple2_RW	acq4567_RW	5	38	400	1	300	300	401	46	0	1	1	blank2r.bmp	0	1	+	0	1	blank2r.bmp	492	1	LWWL	492	1	blank2r.bmp	572	2	gemein	866	1	!	1239	1	!	1306	0	0	0	0	0	0	0	0	0	0	0	0	0	0	0	0	0	0	0	0	0	0	0	0	0	0	0	0	0	0
073019	10:45:26	10:56:34	666874	5.0.10.0	5_exp_RW	89	Rpleas_acq	CS_A	JQQJ	DXXD	YFFY	LWWL	CPPC	ZHHZ	vertrauen	sonnig	gütig	träumen	genießen	küssen	versagen	sterben	gierig	töten	gemein	krank	1	acq_USpleas_CSpleas2_RW	acq4567_RW	5	39	400	1	300	300	437	50	0	1	1	blank2r.bmp	0	1	+	0	1	blank2r.bmp	492	1	DXXD	492	1	blank2r.bmp	572	1	träumen	866	1	!	1239	1	!	1332	0	0	0	0	0	0	0	0	0	0	0	0	0	0	0	0	0	0	0	0	0	0	0	0	0	0	0	0	0	0
073019	10:45:26	10:56:36	669073	5.0.10.0	5_exp_RW	89	Rpleas_acq	CS_A	JQQJ	DXXD	YFFY	LWWL	CPPC	ZHHZ	vertrauen	sonnig	gütig	träumen	genießen	küssen	versagen	sterben	gierig	töten	gemein	krank	1	acq_USunple_CSunple1_RW	acq4567_RW	5	40	400	1	300	300	408	46	0	1	1	blank2r.bmp	0	1	+	0	1	blank2r.bmp	492	1	YFFY	492	1	blank2r.bmp	572	1	versagen	866	1	!	1239	1	!	1306	0	0	0	0	0	0	0	0	0	0	0	0	0	0	0	0	0	0	0	0	0	0	0	0	0	0	0	0	0	0
073019	10:45:26	10:56:38	671259	5.0.10.0	5_exp_RW	89	Rpleas_acq	CS_A	JQQJ	DXXD	YFFY	LWWL	CPPC	ZHHZ	vertrauen	sonnig	gütig	träumen	genießen	küssen	versagen	sterben	gierig	töten	gemein	krank	1	acq_USpleas_CSpleas2_RW	acq4567_RW	5	41	400	1	300	300	390	50	0	1	1	blank2r.bmp	0	1	+	0	1	blank2r.bmp	492	1	DXXD	492	1	blank2r.bmp	572	3	küssen	866	1	!	1239	1	!	1292	0	0	0	0	0	0	0	0	0	0	0	0	0	0	0	0	0	0	0	0	0	0	0	0	0	0	0	0	0	0
073019	10:45:26	10:56:40	673404	5.0.10.0	5_exp_RW	89	Rpleas_acq	CS_A	JQQJ	DXXD	YFFY	LWWL	CPPC	ZHHZ	vertrauen	sonnig	gütig	träumen	genießen	küssen	versagen	sterben	gierig	töten	gemein	krank	1	acq_USunple_CSunple2_RW	acq4567_RW	5	42	400	1	300	300	356	46	0	1	1	blank2r.bmp	0	1	+	0	1	blank2r.bmp	492	1	LWWL	492	1	blank2r.bmp	572	3	krank	866	1	!	1239	1	!	1252	0	0	0	0	0	0	0	0	0	0	0	0	0	0	0	0	0	0	0	0	0	0	0	0	0	0	0	0	0	0
073019	10:45:26	10:56:43	675657	5.0.10.0	5_exp_RW	89	Rpleas_acq	CS_A	JQQJ	DXXD	YFFY	LWWL	CPPC	ZHHZ	vertrauen	sonnig	gütig	träumen	genießen	küssen	versagen	sterben	gierig	töten	gemein	krank	1	acq_USpleas_CSpleas2_RW	acq4567_RW	5	43	400	0	300	300	485	50	0	1	1	blank2r.bmp	0	1	+	0	1	blank2r.bmp	492	1	DXXD	492	1	blank2r.bmp	572	2	genießen	866	1	!	1239	1	!	-1	0	0	0	0	0	0	0	0	0	0	0	0	0	0	0	0	0	0	0	0	0	0	0	0	0	0	0	0	0	0
073019	10:45:26	10:56:45	677883	5.0.10.0	5_exp_RW	89	Rpleas_acq	CS_A	JQQJ	DXXD	YFFY	LWWL	CPPC	ZHHZ	vertrauen	sonnig	gütig	träumen	genießen	küssen	versagen	sterben	gierig	töten	gemein	krank	1	acq_USpleas_CSpleas1_RW	acq4567_RW	5	44	400	1	300	300	416	50	0	1	1	blank2r.bmp	0	1	+	0	1	blank2r.bmp	492	1	JQQJ	492	1	blank2r.bmp	572	3	gütig	866	1	!	1239	1	!	1319	0	0	0	0	0	0	0	0	0	0	0	0	0	0	0	0	0	0	0	0	0	0	0	0	0	0	0	0	0	0
073019	10:45:26	10:56:47	680068	5.0.10.0	5_exp_RW	89	Rpleas_acq	CS_A	JQQJ	DXXD	YFFY	LWWL	CPPC	ZHHZ	vertrauen	sonnig	gütig	träumen	genießen	küssen	versagen	sterben	gierig	töten	gemein	krank	1	acq_USunple_CSunple2_RW	acq4567_RW	5	45	400	1	300	300	389	46	0	1	1	blank2r.bmp	0	1	+	0	1	blank2r.bmp	492	1	LWWL	492	1	blank2r.bmp	572	1	töten	866	1	!	1239	1	!	1292	0	0	0	0	0	0	0	0	0	0	0	0	0	0	0	0	0	0	0	0	0	0	0	0	0	0	0	0	0	0
073019	10:45:26	10:56:49	682214	5.0.10.0	5_exp_RW	89	Rpleas_acq	CS_A	JQQJ	DXXD	YFFY	LWWL	CPPC	ZHHZ	vertrauen	sonnig	gütig	träumen	genießen	küssen	versagen	sterben	gierig	töten	gemein	krank	1	acq_USunple_CSunple2_RW	acq4567_RW	5	46	400	1	300	300	346	46	0	1	1	blank2r.bmp	0	1	+	0	1	blank2r.bmp	492	1	LWWL	492	1	blank2r.bmp	572	3	krank	866	1	!	1239	1	!	1252	0	0	0	0	0	0	0	0	0	0	0	0	0	0	0	0	0	0	0	0	0	0	0	0	0	0	0	0	0	0
073019	10:45:26	10:56:51	684427	5.0.10.0	5_exp_RW	89	Rpleas_acq	CS_A	JQQJ	DXXD	YFFY	LWWL	CPPC	ZHHZ	vertrauen	sonnig	gütig	träumen	genießen	küssen	versagen	sterben	gierig	töten	gemein	krank	1	acq_USunple_CSunple1_RW	acq4567_RW	5	47	400	1	300	300	421	50	0	0	1	blank2r.bmp	0	1	+	0	1	blank2r.bmp	492	1	YFFY	492	1	blank2r.bmp	572	3	gierig	866	1	!	1239	1	!	1319	0	0	0	0	0	0	0	0	0	0	0	0	0	0	0	0	0	0	0	0	0	0	0	0	0	0	0	0	0	0
073019	10:45:26	10:56:54	686639	5.0.10.0	5_exp_RW	89	Rpleas_acq	CS_A	JQQJ	DXXD	YFFY	LWWL	CPPC	ZHHZ	vertrauen	sonnig	gütig	träumen	genießen	küssen	versagen	sterben	gierig	töten	gemein	krank	1	acq_USunple_CSunple2_RW	acq4567_RW	5	48	400	1	300	300	405	46	0	1	1	blank2r.bmp	0	1	+	0	1	blank2r.bmp	492	1	LWWL	492	1	blank2r.bmp	572	2	gemein	866	1	!	1239	1	!	1306	0	0	0	0	0	0	0	0	0	0	0	0	0	0	0	0	0	0	0	0	0	0	0	0	0	0	0	0	0	0
073019	10:45:26	10:56:56	688812	5.0.10.0	5_exp_RW	89	Rpleas_acq	CS_A	JQQJ	DXXD	YFFY	LWWL	CPPC	ZHHZ	vertrauen	sonnig	gütig	träumen	genießen	küssen	versagen	sterben	gierig	töten	gemein	krank	1	acq_USunple_CSunple1_RW	acq4567_RW	5	49	400	1	300	300	378	46	0	1	1	blank2r.bmp	0	1	+	0	1	blank2r.bmp	492	1	YFFY	492	1	blank2r.bmp	572	2	sterben	866	1	!	1239	1	!	1279	0	0	0	0	0	0	0	0	0	0	0	0	0	0	0	0	0	0	0	0	0	0	0	0	0	0	0	0	0	0
073019	10:45:26	10:56:58	691051	5.0.10.0	5_exp_RW	89	Rpleas_acq	CS_A	JQQJ	DXXD	YFFY	LWWL	CPPC	ZHHZ	vertrauen	sonnig	gütig	träumen	genießen	küssen	versagen	sterben	gierig	töten	gemein	krank	1	acq_USpleas_CSpleas2_RW	acq4567_RW	5	50	400	1	300	300	447	50	0	1	1	blank2r.bmp	0	1	+	0	1	blank2r.bmp	492	1	DXXD	492	1	blank2r.bmp	572	2	genießen	866	1	!	1239	1	!	1346	0	0	0	0	0	0	0	0	0	0	0	0	0	0	0	0	0	0	0	0	0	0	0	0	0	0	0	0	0	0
073019	10:45:26	10:57:00	693236	5.0.10.0	5_exp_RW	89	Rpleas_acq	CS_A	JQQJ	DXXD	YFFY	LWWL	CPPC	ZHHZ	vertrauen	sonnig	gütig	träumen	genießen	küssen	versagen	sterben	gierig	töten	gemein	krank	1	acq_USunple_CSunple1_RW	acq4567_RW	5	51	400	1	300	300	395	46	0	1	1	blank2r.bmp	0	1	+	0	1	blank2r.bmp	492	1	YFFY	492	1	blank2r.bmp	572	3	gierig	866	1	!	1239	1	!	1292	0	0	0	0	0	0	0	0	0	0	0	0	0	0	0	0	0	0	0	0	0	0	0	0	0	0	0	0	0	0
073019	10:45:26	10:57:02	695396	5.0.10.0	5_exp_RW	89	Rpleas_acq	CS_A	JQQJ	DXXD	YFFY	LWWL	CPPC	ZHHZ	vertrauen	sonnig	gütig	träumen	genießen	küssen	versagen	sterben	gierig	töten	gemein	krank	1	acq_USunple_CSunple1_RW	acq4567_RW	5	52	400	1	300	300	367	46	0	1	1	blank2r.bmp	0	1	+	0	1	blank2r.bmp	492	1	YFFY	492	1	blank2r.bmp	572	1	versagen	866	1	!	1239	1	!	1266	0	0	0	0	0	0	0	0	0	0	0	0	0	0	0	0	0	0	0	0	0	0	0	0	0	0	0	0	0	0
073019	10:45:26	10:57:05	697581	5.0.10.0	5_exp_RW	89	Rpleas_acq	CS_A	JQQJ	DXXD	YFFY	LWWL	CPPC	ZHHZ	vertrauen	sonnig	gütig	träumen	genießen	küssen	versagen	sterben	gierig	töten	gemein	krank	1	acq_USunple_CSunple2_RW	acq4567_RW	5	53	400	1	300	300	394	46	0	1	1	blank2r.bmp	0	1	+	0	1	blank2r.bmp	492	1	LWWL	492	1	blank2r.bmp	572	1	töten	866	1	!	1239	1	!	1292	0	0	0	0	0	0	0	0	0	0	0	0	0	0	0	0	0	0	0	0	0	0	0	0	0	0	0	0	0	0
073019	10:45:26	10:57:07	699794	5.0.10.0	5_exp_RW	89	Rpleas_acq	CS_A	JQQJ	DXXD	YFFY	LWWL	CPPC	ZHHZ	vertrauen	sonnig	gütig	träumen	genießen	küssen	versagen	sterben	gierig	töten	gemein	krank	1	acq_USpleas_CSpleas2_RW	acq4567_RW	5	54	400	1	300	300	423	50	0	1	1	blank2r.bmp	0	1	+	0	1	blank2r.bmp	492	1	DXXD	492	1	blank2r.bmp	572	1	träumen	866	1	!	1239	1	!	1319	0	0	0	0	0	0	0	0	0	0	0	0	0	0	0	0	0	0	0	0	0	0	0	0	0	0	0	0	0	0
073019	10:45:26	10:57:09	701980	5.0.10.0	5_exp_RW	89	Rpleas_acq	CS_A	JQQJ	DXXD	YFFY	LWWL	CPPC	ZHHZ	vertrauen	sonnig	gütig	träumen	genießen	küssen	versagen	sterben	gierig	töten	gemein	krank	1	acq_USunple_CSunple1_RW	acq4567_RW	5	55	400	1	300	300	393	46	0	1	1	blank2r.bmp	0	1	+	0	1	blank2r.bmp	492	1	YFFY	492	1	blank2r.bmp	572	2	sterben	866	1	!	1239	1	!	1292	0	0	0	0	0	0	0	0	0	0	0	0	0	0	0	0	0	0	0	0	0	0	0	0	0	0	0	0	0	0
073019	10:45:26	10:57:11	704179	5.0.10.0	5_exp_RW	89	Rpleas_acq	CS_A	JQQJ	DXXD	YFFY	LWWL	CPPC	ZHHZ	vertrauen	sonnig	gütig	träumen	genießen	küssen	versagen	sterben	gierig	töten	gemein	krank	1	acq_USpleas_CSpleas1_RW	acq4567_RW	5	56	400	1	300	300	402	50	0	1	1	blank2r.bmp	0	1	+	0	1	blank2r.bmp	492	1	JQQJ	492	1	blank2r.bmp	572	1	vertrauen	866	1	!	1239	1	!	1306	0	0	0	0	0	0	0	0	0	0	0	0	0	0	0	0	0	0	0	0	0	0	0	0	0	0	0	0	0	0
073019	10:45:26	10:57:13	706418	5.0.10.0	5_exp_RW	89	Rpleas_acq	CS_A	JQQJ	DXXD	YFFY	LWWL	CPPC	ZHHZ	vertrauen	sonnig	gütig	träumen	genießen	küssen	versagen	sterben	gierig	töten	gemein	krank	1	acq_USpleas_CSpleas1_RW	acq4567_RW	5	57	400	1	300	300	439	46	0	0	1	blank2r.bmp	0	1	+	0	1	blank2r.bmp	492	1	JQQJ	492	1	blank2r.bmp	572	1	vertrauen	866	1	!	1239	1	!	1346	0	0	0	0	0	0	0	0	0	0	0	0	0	0	0	0	0	0	0	0	0	0	0	0	0	0	0	0	0	0
073019	10:45:26	10:57:16	708630	5.0.10.0	5_exp_RW	89	Rpleas_acq	CS_A	JQQJ	DXXD	YFFY	LWWL	CPPC	ZHHZ	vertrauen	sonnig	gütig	träumen	genießen	küssen	versagen	sterben	gierig	töten	gemein	krank	1	acq_USpleas_CSpleas2_RW	acq4567_RW	5	58	400	1	300	300	422	50	0	1	1	blank2r.bmp	0	1	+	0	1	blank2r.bmp	492	1	DXXD	492	1	blank2r.bmp	572	3	küssen	866	1	!	1239	1	!	1319	0	0	0	0	0	0	0	0	0	0	0	0	0	0	0	0	0	0	0	0	0	0	0	0	0	0	0	0	0	0
073019	10:45:26	10:57:18	710803	5.0.10.0	5_exp_RW	89	Rpleas_acq	CS_A	JQQJ	DXXD	YFFY	LWWL	CPPC	ZHHZ	vertrauen	sonnig	gütig	träumen	genießen	küssen	versagen	sterben	gierig	töten	gemein	krank	1	acq_USpleas_CSpleas1_RW	acq4567_RW	5	59	400	1	300	300	379	50	0	1	1	blank2r.bmp	0	1	+	0	1	blank2r.bmp	492	1	JQQJ	492	1	blank2r.bmp	572	2	sonnig	866	1	!	1239	1	!	1279	0	0	0	0	0	0	0	0	0	0	0	0	0	0	0	0	0	0	0	0	0	0	0	0	0	0	0	0	0	0
073019	10:45:26	10:57:20	713002	5.0.10.0	5_exp_RW	89	Rpleas_acq	CS_A	JQQJ	DXXD	YFFY	LWWL	CPPC	ZHHZ	vertrauen	sonnig	gütig	träumen	genießen	küssen	versagen	sterben	gierig	töten	gemein	krank	1	acq_USpleas_CSpleas1_RW	acq4567_RW	5	60	400	1	300	300	410	50	0	1	1	blank2r.bmp	0	1	+	0	1	blank2r.bmp	492	1	JQQJ	492	1	blank2r.bmp	572	3	gütig	866	1	!	1239	1	!	1306	0	0	0	0	0	0	0	0	0	0	0	0	0	0	0	0	0	0	0	0	0	0	0	0	0	0	0	0	0	0
073019	10:45:26	10:57:22	715161	5.0.10.0	5_exp_RW	89	Rpleas_acq	CS_A	JQQJ	DXXD	YFFY	LWWL	CPPC	ZHHZ	vertrauen	sonnig	gütig	träumen	genießen	küssen	versagen	sterben	gierig	töten	gemein	krank	1	acq_USpleas_CSpleas2_RW	acq4567_RW	5	61	400	1	300	300	370	50	0	1	1	blank2r.bmp	0	1	+	0	1	blank2r.bmp	492	1	DXXD	492	1	blank2r.bmp	572	3	küssen	866	1	!	1239	1	!	1266	0	0	0	0	0	0	0	0	0	0	0	0	0	0	0	0	0	0	0	0	0	0	0	0	0	0	0	0	0	0
073019	10:45:26	10:57:24	717307	5.0.10.0	5_exp_RW	89	Rpleas_acq	CS_A	JQQJ	DXXD	YFFY	LWWL	CPPC	ZHHZ	vertrauen	sonnig	gütig	träumen	genießen	küssen	versagen	sterben	gierig	töten	gemein	krank	1	acq_USpleas_CSpleas2_RW	acq4567_RW	5	62	400	1	300	300	358	50	0	1	1	blank2r.bmp	0	1	+	0	1	blank2r.bmp	492	1	DXXD	492	1	blank2r.bmp	572	2	genießen	866	1	!	1239	1	!	1252	0	0	0	0	0	0	0	0	0	0	0	0	0	0	0	0	0	0	0	0	0	0	0	0	0	0	0	0	0	0
073019	10:45:26	10:57:26	719399	5.0.10.0	5_exp_RW	89	Rpleas_acq	CS_A	JQQJ	DXXD	YFFY	LWWL	CPPC	ZHHZ	vertrauen	sonnig	gütig	träumen	genießen	küssen	versagen	sterben	gierig	töten	gemein	krank	1	acq_USunple_CSunple2_RW	acq4567_RW	5	63	400	0	300	300	329	46	0	1	1	blank2r.bmp	0	1	+	0	1	blank2r.bmp	492	1	LWWL	492	1	blank2r.bmp	572	3	krank	866	1	!	-1	1	!	-1	0	0	0	0	0	0	0	0	0	0	0	0	0	0	0	0	0	0	0	0	0	0	0	0	0	0	0	0	0	0
073019	10:45:26	10:57:29	721572	5.0.10.0	5_exp_RW	89	Rpleas_acq	CS_A	JQQJ	DXXD	YFFY	LWWL	CPPC	ZHHZ	vertrauen	sonnig	gütig	träumen	genießen	küssen	versagen	sterben	gierig	töten	gemein	krank	1	acq_USunple_CSunple2_RW	acq4567_RW	5	64	400	1	300	300	362	46	0	1	1	blank2r.bmp	0	1	+	0	1	blank2r.bmp	492	1	LWWL	492	1	blank2r.bmp	572	1	töten	866	1	!	1239	1	!	1266	0	0	0	0	0	0	0	0	0	0	0	0	0	0	0	0	0	0	0	0	0	0	0	0	0	0	0	0	0	0
073019	10:45:26	10:57:31	723797	5.0.10.0	5_exp_RW	89	Rpleas_acq	CS_A	JQQJ	DXXD	YFFY	LWWL	CPPC	ZHHZ	vertrauen	sonnig	gütig	träumen	genießen	küssen	versagen	sterben	gierig	töten	gemein	krank	1	acq_USpleas_CSpleas1_RW	acq4567_RW	5	65	400	1	300	300	428	50	0	1	1	blank2r.bmp	0	1	+	0	1	blank2r.bmp	492	1	JQQJ	492	1	blank2r.bmp	572	1	vertrauen	866	1	!	1239	1	!	1332	0	0	0	0	0	0	0	0	0	0	0	0	0	0	0	0	0	0	0	0	0	0	0	0	0	0	0	0	0	0
073019	10:45:26	10:57:33	726010	5.0.10.0	5_exp_RW	89	Rpleas_acq	CS_A	JQQJ	DXXD	YFFY	LWWL	CPPC	ZHHZ	vertrauen	sonnig	gütig	träumen	genießen	küssen	versagen	sterben	gierig	töten	gemein	krank	1	acq_USunple_CSunple1_RW	acq4567_RW	5	66	400	1	300	300	413	50	0	0	1	blank2r.bmp	0	1	+	0	1	blank2r.bmp	492	1	YFFY	492	1	blank2r.bmp	572	3	gierig	866	1	!	1239	1	!	1319	0	0	0	0	0	0	0	0	0	0	0	0	0	0	0	0	0	0	0	0	0	0	0	0	0	0	0	0	0	0
073019	10:45:26	10:57:35	728182	5.0.10.0	5_exp_RW	89	Rpleas_acq	CS_A	JQQJ	DXXD	YFFY	LWWL	CPPC	ZHHZ	vertrauen	sonnig	gütig	träumen	genießen	küssen	versagen	sterben	gierig	töten	gemein	krank	1	acq_USunple_CSunple2_RW	acq4567_RW	5	67	400	1	300	300	382	46	0	1	1	blank2r.bmp	0	1	+	0	1	blank2r.bmp	492	1	LWWL	492	1	blank2r.bmp	572	2	gemein	866	1	!	1239	1	!	1279	0	0	0	0	0	0	0	0	0	0	0	0	0	0	0	0	0	0	0	0	0	0	0	0	0	0	0	0	0	0
073019	10:45:26	10:57:37	730395	5.0.10.0	5_exp_RW	89	Rpleas_acq	CS_A	JQQJ	DXXD	YFFY	LWWL	CPPC	ZHHZ	vertrauen	sonnig	gütig	träumen	genießen	küssen	versagen	sterben	gierig	töten	gemein	krank	1	acq_USpleas_CSpleas1_RW	acq4567_RW	5	68	400	1	300	300	412	50	0	1	1	blank2r.bmp	0	1	+	0	1	blank2r.bmp	492	1	JQQJ	492	1	blank2r.bmp	572	2	sonnig	866	1	!	1239	1	!	1319	0	0	0	0	0	0	0	0	0	0	0	0	0	0	0	0	0	0	0	0	0	0	0	0	0	0	0	0	0	0
073019	10:45:26	10:57:40	732594	5.0.10.0	5_exp_RW	89	Rpleas_acq	CS_A	JQQJ	DXXD	YFFY	LWWL	CPPC	ZHHZ	vertrauen	sonnig	gütig	träumen	genießen	küssen	versagen	sterben	gierig	töten	gemein	krank	1	acq_USpleas_CSpleas1_RW	acq4567_RW	5	69	400	1	300	300	405	50	0	1	1	blank2r.bmp	0	1	+	0	1	blank2r.bmp	492	1	JQQJ	492	1	blank2r.bmp	572	3	gütig	866	1	!	1239	1	!	1306	0	0	0	0	0	0	0	0	0	0	0	0	0	0	0	0	0	0	0	0	0	0	0	0	0	0	0	0	0	0
073019	10:45:26	10:57:42	734739	5.0.10.0	5_exp_RW	89	Rpleas_acq	CS_A	JQQJ	DXXD	YFFY	LWWL	CPPC	ZHHZ	vertrauen	sonnig	gütig	träumen	genießen	küssen	versagen	sterben	gierig	töten	gemein	krank	1	acq_USunple_CSunple1_RW	acq4567_RW	5	70	400	1	300	300	346	50	0	0	1	blank2r.bmp	0	1	+	0	1	blank2r.bmp	492	1	YFFY	492	1	blank2r.bmp	572	2	sterben	866	1	!	1239	1	!	1252	0	0	0	0	0	0	0	0	0	0	0	0	0	0	0	0	0	0	0	0	0	0	0	0	0	0	0	0	0	0
073019	10:45:26	10:57:44	736912	5.0.10.0	5_exp_RW	89	Rpleas_acq	CS_A	JQQJ	DXXD	YFFY	LWWL	CPPC	ZHHZ	vertrauen	sonnig	gütig	träumen	genießen	küssen	versagen	sterben	gierig	töten	gemein	krank	1	acq_USunple_CSunple1_RW	acq4567_RW	5	71	400	1	300	300	377	46	0	1	1	blank2r.bmp	0	1	+	0	1	blank2r.bmp	492	1	YFFY	492	1	blank2r.bmp	572	1	versagen	866	1	!	1239	1	!	1279	0	0	0	0	0	0	0	0	0	0	0	0	0	0	0	0	0	0	0	0	0	0	0	0	0	0	0	0	0	0
073019	10:45:26	10:57:46	739138	5.0.10.0	5_exp_RW	89	Rpleas_acq	CS_A	JQQJ	DXXD	YFFY	LWWL	CPPC	ZHHZ	vertrauen	sonnig	gütig	träumen	genießen	küssen	versagen	sterben	gierig	töten	gemein	krank	1	acq_USpleas_CSpleas2_RW	acq4567_RW	5	72	400	1	300	300	430	50	0	1	1	blank2r.bmp	0	1	+	0	1	blank2r.bmp	492	1	DXXD	492	1	blank2r.bmp	572	1	träumen	866	1	!	1239	1	!	1332	0	0	0	0	0	0	0	0	0	0	0	0	0	0	0	0	0	0	0	0	0	0	0	0	0	0	0	0	0	0
073019	10:45:26	10:57:48	741390	5.0.10.0	5_exp_RW	89	Rpleas_acq	CS_A	JQQJ	DXXD	YFFY	LWWL	CPPC	ZHHZ	vertrauen	sonnig	gütig	träumen	genießen	küssen	versagen	sterben	gierig	töten	gemein	krank	1	acq_USunple_CSunple2_RW	acq4567_RW	5	73	400	0	300	300	479	46	0	1	1	blank2r.bmp	0	1	+	0	1	blank2r.bmp	492	1	LWWL	492	1	blank2r.bmp	572	2	gemein	866	1	!	1239	1	!	-1	0	0	0	0	0	0	0	0	0	0	0	0	0	0	0	0	0	0	0	0	0	0	0	0	0	0	0	0	0	0
073019	10:45:26	10:57:51	743549	5.0.10.0	5_exp_RW	89	Rpleas_acq	CS_A	JQQJ	DXXD	YFFY	LWWL	CPPC	ZHHZ	vertrauen	sonnig	gütig	träumen	genießen	küssen	versagen	sterben	gierig	töten	gemein	krank	1	acq_USpleas_CSpleas2_RW	acq4567_RW	5	74	400	1	300	300	346	50	0	1	1	blank2r.bmp	0	1	+	0	1	blank2r.bmp	492	1	DXXD	492	1	blank2r.bmp	572	1	träumen	866	1	!	1239	1	!	1252	0	0	0	0	0	0	0	0	0	0	0	0	0	0	0	0	0	0	0	0	0	0	0	0	0	0	0	0	0	0
073019	10:45:26	10:57:53	745655	5.0.10.0	5_exp_RW	89	Rpleas_acq	CS_A	JQQJ	DXXD	YFFY	LWWL	CPPC	ZHHZ	vertrauen	sonnig	gütig	träumen	genießen	küssen	versagen	sterben	gierig	töten	gemein	krank	1	acq_USunple_CSunple2_RW	acq4567_RW	5	75	400	0	300	300	319	46	0	1	1	blank2r.bmp	0	1	+	0	1	blank2r.bmp	492	1	LWWL	492	1	blank2r.bmp	572	3	krank	866	1	!	-1	1	!	-1	0	0	0	0	0	0	0	0	0	0	0	0	0	0	0	0	0	0	0	0	0	0	0	0	0	0	0	0	0	0
073019	10:45:26	10:57:55	747814	5.0.10.0	5_exp_RW	89	Rpleas_acq	CS_A	JQQJ	DXXD	YFFY	LWWL	CPPC	ZHHZ	vertrauen	sonnig	gütig	träumen	genießen	küssen	versagen	sterben	gierig	töten	gemein	krank	1	acq_USunple_CSunple1_RW	acq4567_RW	5	76	400	1	300	300	354	46	0	1	1	blank2r.bmp	0	1	+	0	1	blank2r.bmp	492	1	YFFY	492	1	blank2r.bmp	572	2	sterben	866	1	!	1239	1	!	1252	0	0	0	0	0	0	0	0	0	0	0	0	0	0	0	0	0	0	0	0	0	0	0	0	0	0	0	0	0	0
073019	10:45:26	10:57:57	750067	5.0.10.0	5_exp_RW	89	Rpleas_acq	CS_A	JQQJ	DXXD	YFFY	LWWL	CPPC	ZHHZ	vertrauen	sonnig	gütig	träumen	genießen	küssen	versagen	sterben	gierig	töten	gemein	krank	1	acq_USpleas_CSpleas1_RW	acq4567_RW	5	77	400	0	300	300	479	50	0	1	1	blank2r.bmp	0	1	+	0	1	blank2r.bmp	492	1	JQQJ	492	1	blank2r.bmp	572	1	vertrauen	866	1	!	1239	1	!	-1	0	0	0	0	0	0	0	0	0	0	0	0	0	0	0	0	0	0	0	0	0	0	0	0	0	0	0	0	0	0
073019	10:45:26	10:57:59	752226	5.0.10.0	5_exp_RW	89	Rpleas_acq	CS_A	JQQJ	DXXD	YFFY	LWWL	CPPC	ZHHZ	vertrauen	sonnig	gütig	träumen	genießen	küssen	versagen	sterben	gierig	töten	gemein	krank	1	acq_USpleas_CSpleas1_RW	acq4567_RW	5	78	400	1	300	300	346	50	0	1	1	blank2r.bmp	0	1	+	0	1	blank2r.bmp	492	1	JQQJ	492	1	blank2r.bmp	572	2	sonnig	866	1	!	1239	1	!	1252	0	0	0	0	0	0	0	0	0	0	0	0	0	0	0	0	0	0	0	0	0	0	0	0	0	0	0	0	0	0
073019	10:45:26	10:58:01	754371	5.0.10.0	5_exp_RW	89	Rpleas_acq	CS_A	JQQJ	DXXD	YFFY	LWWL	CPPC	ZHHZ	vertrauen	sonnig	gütig	träumen	genießen	küssen	versagen	sterben	gierig	töten	gemein	krank	1	acq_USpleas_CSpleas2_RW	acq4567_RW	5	79	400	1	300	300	348	50	0	1	1	blank2r.bmp	0	1	+	0	1	blank2r.bmp	492	1	DXXD	492	1	blank2r.bmp	572	3	küssen	866	1	!	1239	1	!	1252	0	0	0	0	0	0	0	0	0	0	0	0	0	0	0	0	0	0	0	0	0	0	0	0	0	0	0	0	0	0
073019	10:45:26	10:58:04	756584	5.0.10.0	5_exp_RW	89	Rpleas_acq	CS_A	JQQJ	DXXD	YFFY	LWWL	CPPC	ZHHZ	vertrauen	sonnig	gütig	träumen	genießen	küssen	versagen	sterben	gierig	töten	gemein	krank	1	acq_USunple_CSunple1_RW	acq4567_RW	5	80	400	1	300	300	414	46	0	1	1	blank2r.bmp	0	1	+	0	1	blank2r.bmp	492	1	YFFY	492	1	blank2r.bmp	572	1	versagen	866	1	!	1239	1	!	1319	0	0	0	0	0	0	0	0	0	0	0	0	0	0	0	0	0	0	0	0	0	0	0	0	0	0	0	0	0	0
073019	10:45:26	10:58:23	775976	5.0.10.0	5_exp_RW	89	Rpleas_acq	CS_A	JQQJ	DXXD	YFFY	LWWL	CPPC	ZHHZ	vertrauen	sonnig	gütig	träumen	genießen	küssen	versagen	sterben	gierig	töten	gemein	krank	1	acq_USunple_CSunple1_RW	acq4567_RW	6	1	400	0	300	300	479	50	0	0	1	blank2r.bmp	0	1	+	0	1	blank2r.bmp	492	1	YFFY	492	1	blank2r.bmp	572	3	gierig	866	1	!	1239	1	!	-1	0	0	0	0	0	0	0	0	0	0	0	0	0	0	0	0	0	0	0	0	0	0	0	0	0	0	0	0	0	0
073019	10:45:26	10:58:25	778215	5.0.10.0	5_exp_RW	89	Rpleas_acq	CS_A	JQQJ	DXXD	YFFY	LWWL	CPPC	ZHHZ	vertrauen	sonnig	gütig	träumen	genießen	küssen	versagen	sterben	gierig	töten	gemein	krank	1	acq_USpleas_CSpleas1_RW	acq4567_RW	6	2	400	1	300	300	430	50	0	1	1	blank2r.bmp	0	1	+	0	1	blank2r.bmp	492	1	JQQJ	492	1	blank2r.bmp	572	3	gütig	866	1	!	1239	1	!	1332	0	0	0	0	0	0	0	0	0	0	0	0	0	0	0	0	0	0	0	0	0	0	0	0	0	0	0	0	0	0
073019	10:45:26	10:58:27	780414	5.0.10.0	5_exp_RW	89	Rpleas_acq	CS_A	JQQJ	DXXD	YFFY	LWWL	CPPC	ZHHZ	vertrauen	sonnig	gütig	träumen	genießen	küssen	versagen	sterben	gierig	töten	gemein	krank	1	acq_USunple_CSunple1_RW	acq4567_RW	6	3	400	1	300	300	407	46	0	1	1	blank2r.bmp	0	1	+	0	1	blank2r.bmp	492	1	YFFY	492	1	blank2r.bmp	572	2	sterben	866	1	!	1239	1	!	1306	0	0	0	0	0	0	0	0	0	0	0	0	0	0	0	0	0	0	0	0	0	0	0	0	0	0	0	0	0	0
073019	10:45:26	10:58:30	782560	5.0.10.0	5_exp_RW	89	Rpleas_acq	CS_A	JQQJ	DXXD	YFFY	LWWL	CPPC	ZHHZ	vertrauen	sonnig	gütig	träumen	genießen	küssen	versagen	sterben	gierig	töten	gemein	krank	1	acq_USunple_CSunple2_RW	acq4567_RW	6	4	400	1	300	300	355	46	0	1	1	blank2r.bmp	0	1	+	0	1	blank2r.bmp	492	1	LWWL	492	1	blank2r.bmp	572	1	töten	866	1	!	1239	1	!	1252	0	0	0	0	0	0	0	0	0	0	0	0	0	0	0	0	0	0	0	0	0	0	0	0	0	0	0	0	0	0
073019	10:45:26	10:58:32	784772	5.0.10.0	5_exp_RW	89	Rpleas_acq	CS_A	JQQJ	DXXD	YFFY	LWWL	CPPC	ZHHZ	vertrauen	sonnig	gütig	träumen	genießen	küssen	versagen	sterben	gierig	töten	gemein	krank	1	acq_USunple_CSunple2_RW	acq4567_RW	6	5	400	1	300	300	423	46	0	1	1	blank2r.bmp	0	1	+	0	1	blank2r.bmp	492	1	LWWL	492	1	blank2r.bmp	572	2	gemein	866	1	!	1239	1	!	1319	0	0	0	0	0	0	0	0	0	0	0	0	0	0	0	0	0	0	0	0	0	0	0	0	0	0	0	0	0	0
073019	10:45:26	10:58:34	786945	5.0.10.0	5_exp_RW	89	Rpleas_acq	CS_A	JQQJ	DXXD	YFFY	LWWL	CPPC	ZHHZ	vertrauen	sonnig	gütig	träumen	genießen	küssen	versagen	sterben	gierig	töten	gemein	krank	1	acq_USunple_CSunple1_RW	acq4567_RW	6	6	400	1	300	300	384	46	0	1	1	blank2r.bmp	0	1	+	0	1	blank2r.bmp	492	1	YFFY	492	1	blank2r.bmp	572	3	gierig	866	1	!	1239	1	!	1279	0	0	0	0	0	0	0	0	0	0	0	0	0	0	0	0	0	0	0	0	0	0	0	0	0	0	0	0	0	0
073019	10:45:26	10:58:36	789131	5.0.10.0	5_exp_RW	89	Rpleas_acq	CS_A	JQQJ	DXXD	YFFY	LWWL	CPPC	ZHHZ	vertrauen	sonnig	gütig	träumen	genießen	küssen	versagen	sterben	gierig	töten	gemein	krank	1	acq_USunple_CSunple2_RW	acq4567_RW	6	7	400	1	300	300	391	46	0	1	1	blank2r.bmp	0	1	+	0	1	blank2r.bmp	492	1	LWWL	492	1	blank2r.bmp	572	3	krank	866	1	!	1239	1	!	1292	0	0	0	0	0	0	0	0	0	0	0	0	0	0	0	0	0	0	0	0	0	0	0	0	0	0	0	0	0	0
073019	10:45:26	10:58:38	791276	5.0.10.0	5_exp_RW	89	Rpleas_acq	CS_A	JQQJ	DXXD	YFFY	LWWL	CPPC	ZHHZ	vertrauen	sonnig	gütig	träumen	genießen	küssen	versagen	sterben	gierig	töten	gemein	krank	1	acq_USpleas_CSpleas1_RW	acq4567_RW	6	8	400	1	300	300	358	50	0	1	1	blank2r.bmp	0	1	+	0	1	blank2r.bmp	492	1	JQQJ	492	1	blank2r.bmp	572	3	gütig	866	1	!	1239	1	!	1252	0	0	0	0	0	0	0	0	0	0	0	0	0	0	0	0	0	0	0	0	0	0	0	0	0	0	0	0	0	0
073019	10:45:26	10:58:40	793489	5.0.10.0	5_exp_RW	89	Rpleas_acq	CS_A	JQQJ	DXXD	YFFY	LWWL	CPPC	ZHHZ	vertrauen	sonnig	gütig	träumen	genießen	küssen	versagen	sterben	gierig	töten	gemein	krank	1	acq_USunple_CSunple1_RW	acq4567_RW	6	9	400	1	300	300	413	46	0	1	1	blank2r.bmp	0	1	+	0	1	blank2r.bmp	492	1	YFFY	492	1	blank2r.bmp	572	1	versagen	866	1	!	1239	1	!	1319	0	0	0	0	0	0	0	0	0	0	0	0	0	0	0	0	0	0	0	0	0	0	0	0	0	0	0	0	0	0
073019	10:45:26	10:58:43	795701	5.0.10.0	5_exp_RW	89	Rpleas_acq	CS_A	JQQJ	DXXD	YFFY	LWWL	CPPC	ZHHZ	vertrauen	sonnig	gütig	träumen	genießen	küssen	versagen	sterben	gierig	töten	gemein	krank	1	acq_USpleas_CSpleas2_RW	acq4567_RW	6	10	400	1	300	300	425	50	0	1	1	blank2r.bmp	0	1	+	0	1	blank2r.bmp	492	1	DXXD	492	1	blank2r.bmp	572	2	genießen	866	1	!	1239	1	!	1319	0	0	0	0	0	0	0	0	0	0	0	0	0	0	0	0	0	0	0	0	0	0	0	0	0	0	0	0	0	0
073019	10:45:26	10:58:45	797860	5.0.10.0	5_exp_RW	89	Rpleas_acq	CS_A	JQQJ	DXXD	YFFY	LWWL	CPPC	ZHHZ	vertrauen	sonnig	gütig	träumen	genießen	küssen	versagen	sterben	gierig	töten	gemein	krank	1	acq_USunple_CSunple2_RW	acq4567_RW	6	11	400	1	300	300	356	50	0	0	1	blank2r.bmp	0	1	+	0	1	blank2r.bmp	492	1	LWWL	492	1	blank2r.bmp	572	1	töten	866	1	!	1239	1	!	1252	0	0	0	0	0	0	0	0	0	0	0	0	0	0	0	0	0	0	0	0	0	0	0	0	0	0	0	0	0	0
073019	10:45:26	10:58:47	800073	5.0.10.0	5_exp_RW	89	Rpleas_acq	CS_A	JQQJ	DXXD	YFFY	LWWL	CPPC	ZHHZ	vertrauen	sonnig	gütig	träumen	genießen	küssen	versagen	sterben	gierig	töten	gemein	krank	1	acq_USunple_CSunple2_RW	acq4567_RW	6	12	400	1	300	300	423	46	0	1	1	blank2r.bmp	0	1	+	0	1	blank2r.bmp	492	1	LWWL	492	1	blank2r.bmp	572	3	krank	866	1	!	1239	1	!	1319	0	0	0	0	0	0	0	0	0	0	0	0	0	0	0	0	0	0	0	0	0	0	0	0	0	0	0	0	0	0
