date	time	script.currenttime	script.elapsedtime	build	script.currentexpt	subject	expressions.LRpleas_acq	expressions.conditionCS_A	expressions.CSpleas_1	expressions.CSpleas_2	expressions.CSunple_1	expressions.CSunple_2	expressions.distractor_1	expressions.distractor_2	expressions.US_pleas1	expressions.US_pleas2	expressions.US_pleas3	expressions.US_pleas4	expressions.US_pleas5	expressions.US_pleas6	expressions.US_unple1	expressions.US_unple2	expressions.US_unple3	expressions.US_unple4	expressions.US_unple5	expressions.US_unple6	counter.positions_noRW	trialcode	blockcode	blocknum	trialnum	windowcenter	inwindow	pretrialpause	posttrialpause	latency	response	expressions.correctedscore	correct	stimulusnumber1	stimulusitem1	stimulusonset1	stimulusnumber2	stimulusitem2	stimulusonset2	stimulusnumber3	stimulusitem3	stimulusonset3	stimulusnumber4	stimulusitem4	stimulusonset4	stimulusnumber5	stimulusitem5	stimulusonset5	stimulusnumber6	stimulusitem6	stimulusonset6	stimulusnumber7	stimulusitem7	stimulusonset7	stimulusnumber8	stimulusitem8	stimulusonset8	stimulusnumber9	stimulusitem9	stimulusonset9	stimulusnumber10	stimulusitem10	stimulusonset10	stimulusnumber11	stimulusitem11	stimulusonset11	stimulusnumber12	stimulusitem12	stimulusonset12	stimulusnumber13	stimulusitem13	stimulusonset13	stimulusnumber14	stimulusitem14	stimulusonset14	stimulusnumber15	stimulusitem15	stimulusonset15	stimulusnumber16	stimulusitem16	stimulusonset16	stimulusnumber17	stimulusitem17	stimulusonset17	stimulusnumber18	stimulusitem18	stimulusonset18
082619	10:54:22	10:55:12	50219	5.0.10.0	5_exp_noRW	112	Rpleas_acq	CS_A	CPPC	YFFY	LWWL	JQQJ	DXXD	ZHHZ	träumen	vertrauen	küssen	genießen	sonnig	gütig	töten	versagen	krank	gemein	sterben	gierig	53pct	acq_USpleas_CSpleas1_noRW	acq1_noRW	1	1	0	0	300	300	1289	50	0	1	1	blank2r.bmp	0	1	+	0	1	blank2r.bmp	252	1	CPPC	306	1	träumen	559	0	0	0	0	0	0	0	0	0	0	0	0	0	0	0	0	0	0	0	0	0	0	0	0	0	0	0	0	0	0	0	0	0	0	0	0	0	0	0
082619	10:54:22	10:55:15	52591	5.0.10.0	5_exp_noRW	112	Rpleas_acq	CS_A	CPPC	YFFY	LWWL	JQQJ	DXXD	ZHHZ	träumen	vertrauen	küssen	genießen	sonnig	gütig	töten	versagen	krank	gemein	sterben	gierig	53pct	acq_USpleas_CSpleas2_noRW	acq1_noRW	1	2	0	0	300	300	1192	50	0	1	1	blank2r.bmp	0	1	+	0	1	blank2r.bmp	252	1	YFFY	306	1	genießen	559	0	0	0	0	0	0	0	0	0	0	0	0	0	0	0	0	0	0	0	0	0	0	0	0	0	0	0	0	0	0	0	0	0	0	0	0	0	0	0
082619	10:54:22	10:55:17	54417	5.0.10.0	5_exp_noRW	112	Rpleas_acq	CS_A	CPPC	YFFY	LWWL	JQQJ	DXXD	ZHHZ	träumen	vertrauen	küssen	genießen	sonnig	gütig	töten	versagen	krank	gemein	sterben	gierig	47pct	acq_USunple_CSunple1_noRW	acq1_noRW	1	3	0	0	300	300	641	46	0	1	1	blank2r.bmp	0	1	+	0	1	blank2r.bmp	252	1	LWWL	306	1	töten	559	0	0	0	0	0	0	0	0	0	0	0	0	0	0	0	0	0	0	0	0	0	0	0	0	0	0	0	0	0	0	0	0	0	0	0	0	0	0	0
082619	10:54:22	10:55:18	56110	5.0.10.0	5_exp_noRW	112	Rpleas_acq	CS_A	CPPC	YFFY	LWWL	JQQJ	DXXD	ZHHZ	träumen	vertrauen	küssen	genießen	sonnig	gütig	töten	versagen	krank	gemein	sterben	gierig	53pct	acq_USunple_CSpleas2_noRW	acq1_noRW	1	4	0	0	300	300	529	46	0	1	1	blank2r.bmp	0	1	+	0	1	blank2r.bmp	252	1	YFFY	306	1	gemein	559	0	0	0	0	0	0	0	0	0	0	0	0	0	0	0	0	0	0	0	0	0	0	0	0	0	0	0	0	0	0	0	0	0	0	0	0	0	0	0
082619	10:54:22	10:55:20	57909	5.0.10.0	5_exp_noRW	112	Rpleas_acq	CS_A	CPPC	YFFY	LWWL	JQQJ	DXXD	ZHHZ	träumen	vertrauen	küssen	genießen	sonnig	gütig	töten	versagen	krank	gemein	sterben	gierig	47pct	acq_USunple_CSunple2_noRW	acq1_noRW	1	5	0	0	300	300	637	46	0	1	1	blank2r.bmp	0	1	+	0	1	blank2r.bmp	252	1	JQQJ	306	2	sterben	559	0	0	0	0	0	0	0	0	0	0	0	0	0	0	0	0	0	0	0	0	0	0	0	0	0	0	0	0	0	0	0	0	0	0	0	0	0	0	0
082619	10:54:22	10:55:22	60161	5.0.10.0	5_exp_noRW	112	Rpleas_acq	CS_A	CPPC	YFFY	LWWL	JQQJ	DXXD	ZHHZ	träumen	vertrauen	küssen	genießen	sonnig	gütig	töten	versagen	krank	gemein	sterben	gierig	47pct	acq_USpleas_CSpleas2_noRW	acq1_noRW	1	6	0	0	300	300	1073	50	0	1	1	blank2r.bmp	0	1	+	0	1	blank2r.bmp	252	1	YFFY	306	2	sonnig	559	0	0	0	0	0	0	0	0	0	0	0	0	0	0	0	0	0	0	0	0	0	0	0	0	0	0	0	0	0	0	0	0	0	0	0	0	0	0	0
082619	10:54:22	10:55:24	61827	5.0.10.0	5_exp_noRW	112	Rpleas_acq	CS_A	CPPC	YFFY	LWWL	JQQJ	DXXD	ZHHZ	träumen	vertrauen	küssen	genießen	sonnig	gütig	töten	versagen	krank	gemein	sterben	gierig	47pct	acq_USunple_CSpleas1_noRW	acq1_noRW	1	7	0	0	300	300	482	46	0	1	1	blank2r.bmp	0	1	+	0	1	blank2r.bmp	252	1	CPPC	306	1	töten	559	0	0	0	0	0	0	0	0	0	0	0	0	0	0	0	0	0	0	0	0	0	0	0	0	0	0	0	0	0	0	0	0	0	0	0	0	0	0	0
082619	10:54:22	10:55:26	63360	5.0.10.0	5_exp_noRW	112	Rpleas_acq	CS_A	CPPC	YFFY	LWWL	JQQJ	DXXD	ZHHZ	träumen	vertrauen	küssen	genießen	sonnig	gütig	töten	versagen	krank	gemein	sterben	gierig	53pct	acq_USpleas_CSunple2_noRW	acq1_noRW	1	8	0	0	300	300	363	50	0	1	1	blank2r.bmp	0	1	+	0	1	blank2r.bmp	252	1	JQQJ	306	2	sonnig	559	0	0	0	0	0	0	0	0	0	0	0	0	0	0	0	0	0	0	0	0	0	0	0	0	0	0	0	0	0	0	0	0	0	0	0	0	0	0	0
082619	10:54:22	10:55:27	64866	5.0.10.0	5_exp_noRW	112	Rpleas_acq	CS_A	CPPC	YFFY	LWWL	JQQJ	DXXD	ZHHZ	träumen	vertrauen	küssen	genießen	sonnig	gütig	töten	versagen	krank	gemein	sterben	gierig	53pct	acq_USunple_CSunple2_noRW	acq1_noRW	1	9	0	0	300	300	319	46	0	1	1	blank2r.bmp	0	1	+	0	1	blank2r.bmp	252	1	JQQJ	306	3	gierig	559	0	0	0	0	0	0	0	0	0	0	0	0	0	0	0	0	0	0	0	0	0	0	0	0	0	0	0	0	0	0	0	0	0	0	0	0	0	0	0
082619	10:54:22	10:55:29	66612	5.0.10.0	5_exp_noRW	112	Rpleas_acq	CS_A	CPPC	YFFY	LWWL	JQQJ	DXXD	ZHHZ	träumen	vertrauen	küssen	genießen	sonnig	gütig	töten	versagen	krank	gemein	sterben	gierig	53pct	acq_USpleas_CSpleas1_noRW	acq1_noRW	1	10	0	0	300	300	362	46	0	0	1	blank2r.bmp	0	1	+	0	1	blank2r.bmp	252	1	CPPC	306	2	vertrauen	559	1	FEHLER	959	0	0	0	0	0	0	0	0	0	0	0	0	0	0	0	0	0	0	0	0	0	0	0	0	0	0	0	0	0	0	0	0	0	0	0	0
082619	10:54:22	10:55:30	68198	5.0.10.0	5_exp_noRW	112	Rpleas_acq	CS_A	CPPC	YFFY	LWWL	JQQJ	DXXD	ZHHZ	träumen	vertrauen	küssen	genießen	sonnig	gütig	töten	versagen	krank	gemein	sterben	gierig	47pct	acq_USunple_CSunple2_noRW	acq1_noRW	1	11	0	0	300	300	617	46	0	1	1	blank2r.bmp	0	1	+	0	1	blank2r.bmp	252	1	JQQJ	306	1	gemein	559	0	0	0	0	0	0	0	0	0	0	0	0	0	0	0	0	0	0	0	0	0	0	0	0	0	0	0	0	0	0	0	0	0	0	0	0	0	0	0
082619	10:54:22	10:55:32	69837	5.0.10.0	5_exp_noRW	112	Rpleas_acq	CS_A	CPPC	YFFY	LWWL	JQQJ	DXXD	ZHHZ	träumen	vertrauen	küssen	genießen	sonnig	gütig	töten	versagen	krank	gemein	sterben	gierig	47pct	acq_USunple_CSunple1_noRW	acq1_noRW	1	12	0	0	300	300	465	46	0	1	1	blank2r.bmp	0	1	+	0	1	blank2r.bmp	252	1	LWWL	306	3	krank	559	0	0	0	0	0	0	0	0	0	0	0	0	0	0	0	0	0	0	0	0	0	0	0	0	0	0	0	0	0	0	0	0	0	0	0	0	0	0	0
082619	10:54:22	10:55:34	71397	5.0.10.0	5_exp_noRW	112	Rpleas_acq	CS_A	CPPC	YFFY	LWWL	JQQJ	DXXD	ZHHZ	träumen	vertrauen	küssen	genießen	sonnig	gütig	töten	versagen	krank	gemein	sterben	gierig	47pct	acq_USpleas_CSpleas1_noRW	acq1_noRW	1	13	0	0	300	300	392	50	0	1	1	blank2r.bmp	0	1	+	0	1	blank2r.bmp	252	1	CPPC	306	3	küssen	559	0	0	0	0	0	0	0	0	0	0	0	0	0	0	0	0	0	0	0	0	0	0	0	0	0	0	0	0	0	0	0	0	0	0	0	0	0	0	0
082619	10:54:22	10:55:35	73076	5.0.10.0	5_exp_noRW	112	Rpleas_acq	CS_A	CPPC	YFFY	LWWL	JQQJ	DXXD	ZHHZ	träumen	vertrauen	küssen	genießen	sonnig	gütig	töten	versagen	krank	gemein	sterben	gierig	47pct	acq_USunple_CSunple2_noRW	acq1_noRW	1	14	0	0	300	300	510	46	0	1	1	blank2r.bmp	0	1	+	0	1	blank2r.bmp	252	1	JQQJ	306	3	gierig	559	0	0	0	0	0	0	0	0	0	0	0	0	0	0	0	0	0	0	0	0	0	0	0	0	0	0	0	0	0	0	0	0	0	0	0	0	0	0	0
082619	10:54:22	10:55:37	74702	5.0.10.0	5_exp_noRW	112	Rpleas_acq	CS_A	CPPC	YFFY	LWWL	JQQJ	DXXD	ZHHZ	träumen	vertrauen	küssen	genießen	sonnig	gütig	töten	versagen	krank	gemein	sterben	gierig	47pct	acq_USunple_CSunple1_noRW	acq1_noRW	1	15	0	0	300	300	451	46	0	1	1	blank2r.bmp	0	1	+	0	1	blank2r.bmp	252	1	LWWL	306	2	versagen	559	0	0	0	0	0	0	0	0	0	0	0	0	0	0	0	0	0	0	0	0	0	0	0	0	0	0	0	0	0	0	0	0	0	0	0	0	0	0	0
082619	10:54:22	10:55:39	76515	5.0.10.0	5_exp_noRW	112	Rpleas_acq	CS_A	CPPC	YFFY	LWWL	JQQJ	DXXD	ZHHZ	träumen	vertrauen	küssen	genießen	sonnig	gütig	töten	versagen	krank	gemein	sterben	gierig	47pct	acq_USpleas_CSpleas2_noRW	acq1_noRW	1	16	0	0	300	300	415	46	0	0	1	blank2r.bmp	0	1	+	0	1	blank2r.bmp	252	1	YFFY	306	3	gütig	559	1	FEHLER	1012	0	0	0	0	0	0	0	0	0	0	0	0	0	0	0	0	0	0	0	0	0	0	0	0	0	0	0	0	0	0	0	0	0	0	0	0
082619	10:54:22	10:55:40	78034	5.0.10.0	5_exp_noRW	112	Rpleas_acq	CS_A	CPPC	YFFY	LWWL	JQQJ	DXXD	ZHHZ	träumen	vertrauen	küssen	genießen	sonnig	gütig	töten	versagen	krank	gemein	sterben	gierig	53pct	acq_USunple_CSunple1_noRW	acq1_noRW	1	17	0	0	300	300	561	46	0	1	1	blank2r.bmp	0	1	+	0	1	blank2r.bmp	252	1	LWWL	306	3	krank	559	0	0	0	0	0	0	0	0	0	0	0	0	0	0	0	0	0	0	0	0	0	0	0	0	0	0	0	0	0	0	0	0	0	0	0	0	0	0	0
082619	10:54:22	10:55:42	79660	5.0.10.0	5_exp_noRW	112	Rpleas_acq	CS_A	CPPC	YFFY	LWWL	JQQJ	DXXD	ZHHZ	träumen	vertrauen	küssen	genießen	sonnig	gütig	töten	versagen	krank	gemein	sterben	gierig	53pct	acq_USpleas_CSpleas1_noRW	acq1_noRW	1	18	0	0	300	300	454	50	0	1	1	blank2r.bmp	0	1	+	0	1	blank2r.bmp	252	1	CPPC	306	1	träumen	559	0	0	0	0	0	0	0	0	0	0	0	0	0	0	0	0	0	0	0	0	0	0	0	0	0	0	0	0	0	0	0	0	0	0	0	0	0	0	0
082619	10:54:22	10:55:43	81206	5.0.10.0	5_exp_noRW	112	Rpleas_acq	CS_A	CPPC	YFFY	LWWL	JQQJ	DXXD	ZHHZ	träumen	vertrauen	küssen	genießen	sonnig	gütig	töten	versagen	krank	gemein	sterben	gierig	53pct	acq_USpleas_CSunple1_noRW	acq1_noRW	1	19	0	0	300	300	361	50	0	1	1	blank2r.bmp	0	1	+	0	1	blank2r.bmp	252	1	LWWL	306	1	träumen	559	0	0	0	0	0	0	0	0	0	0	0	0	0	0	0	0	0	0	0	0	0	0	0	0	0	0	0	0	0	0	0	0	0	0	0	0	0	0	0
082619	10:54:22	10:55:45	82925	5.0.10.0	5_exp_noRW	112	Rpleas_acq	CS_A	CPPC	YFFY	LWWL	JQQJ	DXXD	ZHHZ	träumen	vertrauen	küssen	genießen	sonnig	gütig	töten	versagen	krank	gemein	sterben	gierig	53pct	acq_USpleas_CSpleas2_noRW	acq1_noRW	1	20	0	0	300	300	544	50	0	1	1	blank2r.bmp	0	1	+	0	1	blank2r.bmp	252	1	YFFY	306	3	gütig	559	0	0	0	0	0	0	0	0	0	0	0	0	0	0	0	0	0	0	0	0	0	0	0	0	0	0	0	0	0	0	0	0	0	0	0	0	0	0	0
082619	10:54:22	10:55:47	84711	5.0.10.0	5_exp_noRW	112	Rpleas_acq	CS_A	CPPC	YFFY	LWWL	JQQJ	DXXD	ZHHZ	träumen	vertrauen	küssen	genießen	sonnig	gütig	töten	versagen	krank	gemein	sterben	gierig	53pct	acq_USunple_CSunple2_noRW	acq1_noRW	1	21	0	0	300	300	620	46	0	1	1	blank2r.bmp	0	1	+	0	1	blank2r.bmp	252	1	JQQJ	306	1	gemein	559	0	0	0	0	0	0	0	0	0	0	0	0	0	0	0	0	0	0	0	0	0	0	0	0	0	0	0	0	0	0	0	0	0	0	0	0	0	0	0
082619	10:54:22	10:55:49	86391	5.0.10.0	5_exp_noRW	112	Rpleas_acq	CS_A	CPPC	YFFY	LWWL	JQQJ	DXXD	ZHHZ	träumen	vertrauen	küssen	genießen	sonnig	gütig	töten	versagen	krank	gemein	sterben	gierig	47pct	acq_USunple_CSunple1_noRW	acq1_noRW	1	22	0	0	300	300	496	46	0	1	1	blank2r.bmp	0	1	+	0	1	blank2r.bmp	252	1	LWWL	306	2	versagen	559	0	0	0	0	0	0	0	0	0	0	0	0	0	0	0	0	0	0	0	0	0	0	0	0	0	0	0	0	0	0	0	0	0	0	0	0	0	0	0
082619	10:54:22	10:55:50	88057	5.0.10.0	5_exp_noRW	112	Rpleas_acq	CS_A	CPPC	YFFY	LWWL	JQQJ	DXXD	ZHHZ	träumen	vertrauen	küssen	genießen	sonnig	gütig	töten	versagen	krank	gemein	sterben	gierig	53pct	acq_USunple_CSunple1_noRW	acq1_noRW	1	23	0	0	300	300	503	46	0	1	1	blank2r.bmp	0	1	+	0	1	blank2r.bmp	252	1	LWWL	306	1	töten	559	0	0	0	0	0	0	0	0	0	0	0	0	0	0	0	0	0	0	0	0	0	0	0	0	0	0	0	0	0	0	0	0	0	0	0	0	0	0	0
082619	10:54:22	10:55:52	89776	5.0.10.0	5_exp_noRW	112	Rpleas_acq	CS_A	CPPC	YFFY	LWWL	JQQJ	DXXD	ZHHZ	träumen	vertrauen	küssen	genießen	sonnig	gütig	töten	versagen	krank	gemein	sterben	gierig	53pct	acq_USpleas_CSpleas2_noRW	acq1_noRW	1	24	0	0	300	300	534	50	0	1	1	blank2r.bmp	0	1	+	0	1	blank2r.bmp	252	1	YFFY	306	2	sonnig	559	0	0	0	0	0	0	0	0	0	0	0	0	0	0	0	0	0	0	0	0	0	0	0	0	0	0	0	0	0	0	0	0	0	0	0	0	0	0	0
082619	10:54:22	10:55:54	91415	5.0.10.0	5_exp_noRW	112	Rpleas_acq	CS_A	CPPC	YFFY	LWWL	JQQJ	DXXD	ZHHZ	träumen	vertrauen	küssen	genießen	sonnig	gütig	töten	versagen	krank	gemein	sterben	gierig	53pct	acq_USpleas_CSpleas2_noRW	acq1_noRW	1	25	0	0	300	300	473	50	0	1	1	blank2r.bmp	0	1	+	0	1	blank2r.bmp	252	1	YFFY	306	1	genießen	559	0	0	0	0	0	0	0	0	0	0	0	0	0	0	0	0	0	0	0	0	0	0	0	0	0	0	0	0	0	0	0	0	0	0	0	0	0	0	0
082619	10:54:22	10:55:55	93108	5.0.10.0	5_exp_noRW	112	Rpleas_acq	CS_A	CPPC	YFFY	LWWL	JQQJ	DXXD	ZHHZ	träumen	vertrauen	küssen	genießen	sonnig	gütig	töten	versagen	krank	gemein	sterben	gierig	53pct	acq_USunple_CSunple2_noRW	acq1_noRW	1	26	0	0	300	300	520	46	0	1	1	blank2r.bmp	0	1	+	0	1	blank2r.bmp	252	1	JQQJ	306	2	sterben	559	0	0	0	0	0	0	0	0	0	0	0	0	0	0	0	0	0	0	0	0	0	0	0	0	0	0	0	0	0	0	0	0	0	0	0	0	0	0	0
082619	10:54:22	10:55:57	94734	5.0.10.0	5_exp_noRW	112	Rpleas_acq	CS_A	CPPC	YFFY	LWWL	JQQJ	DXXD	ZHHZ	träumen	vertrauen	küssen	genießen	sonnig	gütig	töten	versagen	krank	gemein	sterben	gierig	53pct	acq_USpleas_CSunple2_noRW	acq1_noRW	1	27	0	0	300	300	446	50	0	1	1	blank2r.bmp	0	1	+	0	1	blank2r.bmp	252	1	JQQJ	306	1	genießen	559	0	0	0	0	0	0	0	0	0	0	0	0	0	0	0	0	0	0	0	0	0	0	0	0	0	0	0	0	0	0	0	0	0	0	0	0	0	0	0
082619	10:54:22	10:55:59	96360	5.0.10.0	5_exp_noRW	112	Rpleas_acq	CS_A	CPPC	YFFY	LWWL	JQQJ	DXXD	ZHHZ	träumen	vertrauen	küssen	genießen	sonnig	gütig	töten	versagen	krank	gemein	sterben	gierig	53pct	acq_USunple_CSunple2_noRW	acq1_noRW	1	28	0	0	300	300	458	46	0	1	1	blank2r.bmp	0	1	+	0	1	blank2r.bmp	252	1	JQQJ	306	2	sterben	559	0	0	0	0	0	0	0	0	0	0	0	0	0	0	0	0	0	0	0	0	0	0	0	0	0	0	0	0	0	0	0	0	0	0	0	0	0	0	0
082619	10:54:22	10:56:00	97986	5.0.10.0	5_exp_noRW	112	Rpleas_acq	CS_A	CPPC	YFFY	LWWL	JQQJ	DXXD	ZHHZ	träumen	vertrauen	küssen	genießen	sonnig	gütig	töten	versagen	krank	gemein	sterben	gierig	53pct	acq_USpleas_CSpleas2_noRW	acq1_noRW	1	29	0	0	300	300	462	50	0	1	1	blank2r.bmp	0	1	+	0	1	blank2r.bmp	252	1	YFFY	306	1	genießen	559	0	0	0	0	0	0	0	0	0	0	0	0	0	0	0	0	0	0	0	0	0	0	0	0	0	0	0	0	0	0	0	0	0	0	0	0	0	0	0
082619	10:54:22	10:56:02	99559	5.0.10.0	5_exp_noRW	112	Rpleas_acq	CS_A	CPPC	YFFY	LWWL	JQQJ	DXXD	ZHHZ	träumen	vertrauen	küssen	genießen	sonnig	gütig	töten	versagen	krank	gemein	sterben	gierig	53pct	acq_USpleas_CSpleas1_noRW	acq1_noRW	1	30	0	0	300	300	393	50	0	1	1	blank2r.bmp	0	1	+	0	1	blank2r.bmp	252	1	CPPC	306	2	vertrauen	559	0	0	0	0	0	0	0	0	0	0	0	0	0	0	0	0	0	0	0	0	0	0	0	0	0	0	0	0	0	0	0	0	0	0	0	0	0	0	0
082619	10:54:22	10:56:03	101171	5.0.10.0	5_exp_noRW	112	Rpleas_acq	CS_A	CPPC	YFFY	LWWL	JQQJ	DXXD	ZHHZ	träumen	vertrauen	küssen	genießen	sonnig	gütig	töten	versagen	krank	gemein	sterben	gierig	47pct	acq_USpleas_CSpleas1_noRW	acq1_noRW	1	31	0	0	300	300	439	50	0	1	1	blank2r.bmp	0	1	+	0	1	blank2r.bmp	252	1	CPPC	306	3	küssen	559	0	0	0	0	0	0	0	0	0	0	0	0	0	0	0	0	0	0	0	0	0	0	0	0	0	0	0	0	0	0	0	0	0	0	0	0	0	0	0
082619	10:54:22	10:56:05	102651	5.0.10.0	5_exp_noRW	112	Rpleas_acq	CS_A	CPPC	YFFY	LWWL	JQQJ	DXXD	ZHHZ	träumen	vertrauen	küssen	genießen	sonnig	gütig	töten	versagen	krank	gemein	sterben	gierig	47pct	acq_USpleas_CSpleas1_noRW	acq1_noRW	1	32	0	0	300	300	317	50	0	1	1	blank2r.bmp	0	1	+	0	1	blank2r.bmp	252	1	CPPC	306	2	vertrauen	559	0	0	0	0	0	0	0	0	0	0	0	0	0	0	0	0	0	0	0	0	0	0	0	0	0	0	0	0	0	0	0	0	0	0	0	0	0	0	0
082619	10:54:22	10:56:07	104663	5.0.10.0	5_exp_noRW	112	Rpleas_acq	CS_A	CPPC	YFFY	LWWL	JQQJ	DXXD	ZHHZ	träumen	vertrauen	küssen	genießen	sonnig	gütig	töten	versagen	krank	gemein	sterben	gierig	53pct	acq_USpleas_CSpleas2_noRW	acq1_noRW	1	33	0	0	300	300	832	50	0	1	1	blank2r.bmp	0	1	+	0	1	blank2r.bmp	252	1	YFFY	306	2	sonnig	559	0	0	0	0	0	0	0	0	0	0	0	0	0	0	0	0	0	0	0	0	0	0	0	0	0	0	0	0	0	0	0	0	0	0	0	0	0	0	0
082619	10:54:22	10:56:09	106342	5.0.10.0	5_exp_noRW	112	Rpleas_acq	CS_A	CPPC	YFFY	LWWL	JQQJ	DXXD	ZHHZ	träumen	vertrauen	küssen	genießen	sonnig	gütig	töten	versagen	krank	gemein	sterben	gierig	47pct	acq_USunple_CSunple1_noRW	acq1_noRW	1	34	0	0	300	300	494	46	0	1	1	blank2r.bmp	0	1	+	0	1	blank2r.bmp	252	1	LWWL	306	2	versagen	559	0	0	0	0	0	0	0	0	0	0	0	0	0	0	0	0	0	0	0	0	0	0	0	0	0	0	0	0	0	0	0	0	0	0	0	0	0	0	0
082619	10:54:22	10:56:10	107902	5.0.10.0	5_exp_noRW	112	Rpleas_acq	CS_A	CPPC	YFFY	LWWL	JQQJ	DXXD	ZHHZ	träumen	vertrauen	küssen	genießen	sonnig	gütig	töten	versagen	krank	gemein	sterben	gierig	47pct	acq_USunple_CSpleas2_noRW	acq1_noRW	1	35	0	0	300	300	396	46	0	1	1	blank2r.bmp	0	1	+	0	1	blank2r.bmp	252	1	YFFY	306	3	gierig	559	0	0	0	0	0	0	0	0	0	0	0	0	0	0	0	0	0	0	0	0	0	0	0	0	0	0	0	0	0	0	0	0	0	0	0	0	0	0	0
082619	10:54:22	10:56:12	109581	5.0.10.0	5_exp_noRW	112	Rpleas_acq	CS_A	CPPC	YFFY	LWWL	JQQJ	DXXD	ZHHZ	träumen	vertrauen	küssen	genießen	sonnig	gütig	töten	versagen	krank	gemein	sterben	gierig	53pct	acq_USunple_CSpleas1_noRW	acq1_noRW	1	36	0	0	300	300	295	50	0	0	1	blank2r.bmp	0	1	+	0	1	blank2r.bmp	252	1	CPPC	306	3	krank	559	1	FEHLER	892	0	0	0	0	0	0	0	0	0	0	0	0	0	0	0	0	0	0	0	0	0	0	0	0	0	0	0	0	0	0	0	0	0	0	0	0
082619	10:54:22	10:56:13	111034	5.0.10.0	5_exp_noRW	112	Rpleas_acq	CS_A	CPPC	YFFY	LWWL	JQQJ	DXXD	ZHHZ	träumen	vertrauen	küssen	genießen	sonnig	gütig	töten	versagen	krank	gemein	sterben	gierig	47pct	acq_USpleas_CSpleas1_noRW	acq1_noRW	1	37	0	0	300	300	501	50	0	1	1	blank2r.bmp	0	1	+	0	1	blank2r.bmp	252	1	CPPC	306	3	küssen	559	0	0	0	0	0	0	0	0	0	0	0	0	0	0	0	0	0	0	0	0	0	0	0	0	0	0	0	0	0	0	0	0	0	0	0	0	0	0	0
082619	10:54:22	10:56:15	112713	5.0.10.0	5_exp_noRW	112	Rpleas_acq	CS_A	CPPC	YFFY	LWWL	JQQJ	DXXD	ZHHZ	träumen	vertrauen	küssen	genießen	sonnig	gütig	töten	versagen	krank	gemein	sterben	gierig	47pct	acq_USunple_CSunple1_noRW	acq1_noRW	1	38	0	0	300	300	494	46	0	1	1	blank2r.bmp	0	1	+	0	1	blank2r.bmp	252	1	LWWL	306	3	krank	559	0	0	0	0	0	0	0	0	0	0	0	0	0	0	0	0	0	0	0	0	0	0	0	0	0	0	0	0	0	0	0	0	0	0	0	0	0	0	0
082619	10:54:22	10:56:17	114392	5.0.10.0	5_exp_noRW	112	Rpleas_acq	CS_A	CPPC	YFFY	LWWL	JQQJ	DXXD	ZHHZ	träumen	vertrauen	küssen	genießen	sonnig	gütig	töten	versagen	krank	gemein	sterben	gierig	47pct	acq_USpleas_CSunple1_noRW	acq1_noRW	1	39	0	0	300	300	511	50	0	1	1	blank2r.bmp	0	1	+	0	1	blank2r.bmp	252	1	LWWL	306	2	vertrauen	559	0	0	0	0	0	0	0	0	0	0	0	0	0	0	0	0	0	0	0	0	0	0	0	0	0	0	0	0	0	0	0	0	0	0	0	0	0	0	0
082619	10:54:22	10:56:18	116125	5.0.10.0	5_exp_noRW	112	Rpleas_acq	CS_A	CPPC	YFFY	LWWL	JQQJ	DXXD	ZHHZ	träumen	vertrauen	küssen	genießen	sonnig	gütig	töten	versagen	krank	gemein	sterben	gierig	47pct	acq_USunple_CSunple2_noRW	acq1_noRW	1	40	0	0	300	300	567	46	0	1	1	blank2r.bmp	0	1	+	0	1	blank2r.bmp	252	1	JQQJ	306	1	gemein	559	0	0	0	0	0	0	0	0	0	0	0	0	0	0	0	0	0	0	0	0	0	0	0	0	0	0	0	0	0	0	0	0	0	0	0	0	0	0	0
082619	10:54:22	10:56:20	117858	5.0.10.0	5_exp_noRW	112	Rpleas_acq	CS_A	CPPC	YFFY	LWWL	JQQJ	DXXD	ZHHZ	träumen	vertrauen	küssen	genießen	sonnig	gütig	töten	versagen	krank	gemein	sterben	gierig	53pct	acq_USunple_CSunple2_noRW	acq1_noRW	1	41	0	0	300	300	569	46	0	1	1	blank2r.bmp	0	1	+	0	1	blank2r.bmp	252	1	JQQJ	306	3	gierig	559	0	0	0	0	0	0	0	0	0	0	0	0	0	0	0	0	0	0	0	0	0	0	0	0	0	0	0	0	0	0	0	0	0	0	0	0	0	0	0
082619	10:54:22	10:56:22	119497	5.0.10.0	5_exp_noRW	112	Rpleas_acq	CS_A	CPPC	YFFY	LWWL	JQQJ	DXXD	ZHHZ	träumen	vertrauen	küssen	genießen	sonnig	gütig	töten	versagen	krank	gemein	sterben	gierig	53pct	acq_USpleas_CSpleas1_noRW	acq1_noRW	1	42	0	0	300	300	455	50	0	1	1	blank2r.bmp	0	1	+	0	1	blank2r.bmp	252	1	CPPC	306	1	träumen	559	0	0	0	0	0	0	0	0	0	0	0	0	0	0	0	0	0	0	0	0	0	0	0	0	0	0	0	0	0	0	0	0	0	0	0	0	0	0	0
082619	10:54:22	10:56:23	121296	5.0.10.0	5_exp_noRW	112	Rpleas_acq	CS_A	CPPC	YFFY	LWWL	JQQJ	DXXD	ZHHZ	träumen	vertrauen	küssen	genießen	sonnig	gütig	töten	versagen	krank	gemein	sterben	gierig	47pct	acq_USunple_CSunple2_noRW	acq1_noRW	1	43	0	0	300	300	625	46	0	1	1	blank2r.bmp	0	1	+	0	1	blank2r.bmp	252	1	JQQJ	306	3	gierig	559	0	0	0	0	0	0	0	0	0	0	0	0	0	0	0	0	0	0	0	0	0	0	0	0	0	0	0	0	0	0	0	0	0	0	0	0	0	0	0
082619	10:54:22	10:56:25	123029	5.0.10.0	5_exp_noRW	112	Rpleas_acq	CS_A	CPPC	YFFY	LWWL	JQQJ	DXXD	ZHHZ	träumen	vertrauen	küssen	genießen	sonnig	gütig	töten	versagen	krank	gemein	sterben	gierig	53pct	acq_USunple_CSunple2_noRW	acq1_noRW	1	44	0	0	300	300	568	46	0	1	1	blank2r.bmp	0	1	+	0	1	blank2r.bmp	252	1	JQQJ	306	2	sterben	559	0	0	0	0	0	0	0	0	0	0	0	0	0	0	0	0	0	0	0	0	0	0	0	0	0	0	0	0	0	0	0	0	0	0	0	0	0	0	0
082619	10:54:22	10:56:27	124602	5.0.10.0	5_exp_noRW	112	Rpleas_acq	CS_A	CPPC	YFFY	LWWL	JQQJ	DXXD	ZHHZ	träumen	vertrauen	küssen	genießen	sonnig	gütig	töten	versagen	krank	gemein	sterben	gierig	53pct	acq_USunple_CSpleas1_noRW	acq1_noRW	1	45	0	0	300	300	395	46	0	1	1	blank2r.bmp	0	1	+	0	1	blank2r.bmp	252	1	CPPC	306	2	versagen	559	0	0	0	0	0	0	0	0	0	0	0	0	0	0	0	0	0	0	0	0	0	0	0	0	0	0	0	0	0	0	0	0	0	0	0	0	0	0	0
082619	10:54:22	10:56:29	126361	5.0.10.0	5_exp_noRW	112	Rpleas_acq	CS_A	CPPC	YFFY	LWWL	JQQJ	DXXD	ZHHZ	träumen	vertrauen	küssen	genießen	sonnig	gütig	töten	versagen	krank	gemein	sterben	gierig	47pct	acq_USpleas_CSpleas1_noRW	acq1_noRW	1	46	0	0	300	300	580	50	0	1	1	blank2r.bmp	0	1	+	0	1	blank2r.bmp	252	1	CPPC	306	3	küssen	559	0	0	0	0	0	0	0	0	0	0	0	0	0	0	0	0	0	0	0	0	0	0	0	0	0	0	0	0	0	0	0	0	0	0	0	0	0	0	0
082619	10:54:22	10:56:30	128054	5.0.10.0	5_exp_noRW	112	Rpleas_acq	CS_A	CPPC	YFFY	LWWL	JQQJ	DXXD	ZHHZ	träumen	vertrauen	küssen	genießen	sonnig	gütig	töten	versagen	krank	gemein	sterben	gierig	47pct	acq_USpleas_CSpleas1_noRW	acq1_noRW	1	47	0	0	300	300	515	50	0	1	1	blank2r.bmp	0	1	+	0	1	blank2r.bmp	252	1	CPPC	306	2	vertrauen	559	0	0	0	0	0	0	0	0	0	0	0	0	0	0	0	0	0	0	0	0	0	0	0	0	0	0	0	0	0	0	0	0	0	0	0	0	0	0	0
082619	10:54:22	10:56:32	129720	5.0.10.0	5_exp_noRW	112	Rpleas_acq	CS_A	CPPC	YFFY	LWWL	JQQJ	DXXD	ZHHZ	träumen	vertrauen	küssen	genießen	sonnig	gütig	töten	versagen	krank	gemein	sterben	gierig	47pct	acq_USpleas_CSunple1_noRW	acq1_noRW	1	48	0	0	300	300	491	50	0	1	1	blank2r.bmp	0	1	+	0	1	blank2r.bmp	252	1	LWWL	306	3	küssen	559	0	0	0	0	0	0	0	0	0	0	0	0	0	0	0	0	0	0	0	0	0	0	0	0	0	0	0	0	0	0	0	0	0	0	0	0	0	0	0
082619	10:54:22	10:56:33	131279	5.0.10.0	5_exp_noRW	112	Rpleas_acq	CS_A	CPPC	YFFY	LWWL	JQQJ	DXXD	ZHHZ	träumen	vertrauen	küssen	genießen	sonnig	gütig	töten	versagen	krank	gemein	sterben	gierig	47pct	acq_USunple_CSunple1_noRW	acq1_noRW	1	49	0	0	300	300	376	46	0	1	1	blank2r.bmp	0	1	+	0	1	blank2r.bmp	252	1	LWWL	306	1	töten	559	0	0	0	0	0	0	0	0	0	0	0	0	0	0	0	0	0	0	0	0	0	0	0	0	0	0	0	0	0	0	0	0	0	0	0	0	0	0	0
082619	10:54:22	10:56:35	132852	5.0.10.0	5_exp_noRW	112	Rpleas_acq	CS_A	CPPC	YFFY	LWWL	JQQJ	DXXD	ZHHZ	träumen	vertrauen	küssen	genießen	sonnig	gütig	töten	versagen	krank	gemein	sterben	gierig	47pct	acq_USunple_CSunple1_noRW	acq1_noRW	1	50	0	0	300	300	388	46	0	1	1	blank2r.bmp	0	1	+	0	1	blank2r.bmp	252	1	LWWL	306	1	töten	559	0	0	0	0	0	0	0	0	0	0	0	0	0	0	0	0	0	0	0	0	0	0	0	0	0	0	0	0	0	0	0	0	0	0	0	0	0	0	0
082619	10:54:22	10:56:37	134717	5.0.10.0	5_exp_noRW	112	Rpleas_acq	CS_A	CPPC	YFFY	LWWL	JQQJ	DXXD	ZHHZ	träumen	vertrauen	küssen	genießen	sonnig	gütig	töten	versagen	krank	gemein	sterben	gierig	47pct	acq_USpleas_CSunple2_noRW	acq1_noRW	1	51	0	0	300	300	699	50	0	1	1	blank2r.bmp	0	1	+	0	1	blank2r.bmp	252	1	JQQJ	306	3	gütig	559	0	0	0	0	0	0	0	0	0	0	0	0	0	0	0	0	0	0	0	0	0	0	0	0	0	0	0	0	0	0	0	0	0	0	0	0	0	0	0
082619	10:54:22	10:56:39	136583	5.0.10.0	5_exp_noRW	112	Rpleas_acq	CS_A	CPPC	YFFY	LWWL	JQQJ	DXXD	ZHHZ	träumen	vertrauen	küssen	genießen	sonnig	gütig	töten	versagen	krank	gemein	sterben	gierig	53pct	acq_USunple_CSunple2_noRW	acq1_noRW	1	52	0	0	300	300	694	46	0	1	1	blank2r.bmp	0	1	+	0	1	blank2r.bmp	252	1	JQQJ	306	1	gemein	559	0	0	0	0	0	0	0	0	0	0	0	0	0	0	0	0	0	0	0	0	0	0	0	0	0	0	0	0	0	0	0	0	0	0	0	0	0	0	0
082619	10:54:22	10:56:41	138569	5.0.10.0	5_exp_noRW	112	Rpleas_acq	CS_A	CPPC	YFFY	LWWL	JQQJ	DXXD	ZHHZ	träumen	vertrauen	küssen	genießen	sonnig	gütig	töten	versagen	krank	gemein	sterben	gierig	47pct	acq_USpleas_CSpleas2_noRW	acq1_noRW	1	53	0	0	300	300	593	46	0	0	1	blank2r.bmp	0	1	+	0	1	blank2r.bmp	252	1	YFFY	306	3	gütig	559	1	FEHLER	1186	0	0	0	0	0	0	0	0	0	0	0	0	0	0	0	0	0	0	0	0	0	0	0	0	0	0	0	0	0	0	0	0	0	0	0	0
082619	10:54:22	10:56:42	140009	5.0.10.0	5_exp_noRW	112	Rpleas_acq	CS_A	CPPC	YFFY	LWWL	JQQJ	DXXD	ZHHZ	träumen	vertrauen	küssen	genießen	sonnig	gütig	töten	versagen	krank	gemein	sterben	gierig	47pct	acq_USunple_CSpleas2_noRW	acq1_noRW	1	54	0	0	300	300	481	46	0	1	1	blank2r.bmp	0	1	+	0	1	blank2r.bmp	252	1	YFFY	306	2	sterben	559	0	0	0	0	0	0	0	0	0	0	0	0	0	0	0	0	0	0	0	0	0	0	0	0	0	0	0	0	0	0	0	0	0	0	0	0	0	0	0
082619	10:54:22	10:56:44	141701	5.0.10.0	5_exp_noRW	112	Rpleas_acq	CS_A	CPPC	YFFY	LWWL	JQQJ	DXXD	ZHHZ	träumen	vertrauen	küssen	genießen	sonnig	gütig	töten	versagen	krank	gemein	sterben	gierig	47pct	acq_USpleas_CSpleas2_noRW	acq1_noRW	1	55	0	0	300	300	522	50	0	1	1	blank2r.bmp	0	1	+	0	1	blank2r.bmp	252	1	YFFY	306	2	sonnig	559	0	0	0	0	0	0	0	0	0	0	0	0	0	0	0	0	0	0	0	0	0	0	0	0	0	0	0	0	0	0	0	0	0	0	0	0	0	0	0
082619	10:54:22	10:56:46	143367	5.0.10.0	5_exp_noRW	112	Rpleas_acq	CS_A	CPPC	YFFY	LWWL	JQQJ	DXXD	ZHHZ	träumen	vertrauen	küssen	genießen	sonnig	gütig	töten	versagen	krank	gemein	sterben	gierig	47pct	acq_USunple_CSunple1_noRW	acq1_noRW	1	56	0	0	300	300	488	46	0	1	1	blank2r.bmp	0	1	+	0	1	blank2r.bmp	252	1	LWWL	306	3	krank	559	0	0	0	0	0	0	0	0	0	0	0	0	0	0	0	0	0	0	0	0	0	0	0	0	0	0	0	0	0	0	0	0	0	0	0	0	0	0	0
082619	10:54:22	10:56:48	145406	5.0.10.0	5_exp_noRW	112	Rpleas_acq	CS_A	CPPC	YFFY	LWWL	JQQJ	DXXD	ZHHZ	träumen	vertrauen	küssen	genießen	sonnig	gütig	töten	versagen	krank	gemein	sterben	gierig	53pct	acq_USpleas_CSpleas2_noRW	acq1_noRW	1	57	0	0	300	300	853	50	0	1	1	blank2r.bmp	0	1	+	0	1	blank2r.bmp	252	1	YFFY	306	3	gütig	559	0	0	0	0	0	0	0	0	0	0	0	0	0	0	0	0	0	0	0	0	0	0	0	0	0	0	0	0	0	0	0	0	0	0	0	0	0	0	0
082619	10:54:22	10:56:49	147006	5.0.10.0	5_exp_noRW	112	Rpleas_acq	CS_A	CPPC	YFFY	LWWL	JQQJ	DXXD	ZHHZ	träumen	vertrauen	küssen	genießen	sonnig	gütig	töten	versagen	krank	gemein	sterben	gierig	53pct	acq_USpleas_CSpleas1_noRW	acq1_noRW	1	58	0	0	300	300	437	50	0	1	1	blank2r.bmp	0	1	+	0	1	blank2r.bmp	252	1	CPPC	306	1	träumen	559	0	0	0	0	0	0	0	0	0	0	0	0	0	0	0	0	0	0	0	0	0	0	0	0	0	0	0	0	0	0	0	0	0	0	0	0	0	0	0
082619	10:54:22	10:56:51	148618	5.0.10.0	5_exp_noRW	112	Rpleas_acq	CS_A	CPPC	YFFY	LWWL	JQQJ	DXXD	ZHHZ	träumen	vertrauen	küssen	genießen	sonnig	gütig	töten	versagen	krank	gemein	sterben	gierig	53pct	acq_USunple_CSunple1_noRW	acq1_noRW	1	59	0	0	300	300	435	46	0	1	1	blank2r.bmp	0	1	+	0	1	blank2r.bmp	252	1	LWWL	306	2	versagen	559	0	0	0	0	0	0	0	0	0	0	0	0	0	0	0	0	0	0	0	0	0	0	0	0	0	0	0	0	0	0	0	0	0	0	0	0	0	0	0
082619	10:54:22	10:56:52	150311	5.0.10.0	5_exp_noRW	112	Rpleas_acq	CS_A	CPPC	YFFY	LWWL	JQQJ	DXXD	ZHHZ	träumen	vertrauen	küssen	genießen	sonnig	gütig	töten	versagen	krank	gemein	sterben	gierig	53pct	acq_USpleas_CSpleas2_noRW	acq1_noRW	1	60	0	0	300	300	514	50	0	1	1	blank2r.bmp	0	1	+	0	1	blank2r.bmp	252	1	YFFY	306	1	genießen	559	0	0	0	0	0	0	0	0	0	0	0	0	0	0	0	0	0	0	0	0	0	0	0	0	0	0	0	0	0	0	0	0	0	0	0	0	0	0	0
082619	10:54:22	10:56:54	151977	5.0.10.0	5_exp_noRW	112	Rpleas_acq	CS_A	CPPC	YFFY	LWWL	JQQJ	DXXD	ZHHZ	träumen	vertrauen	küssen	genießen	sonnig	gütig	töten	versagen	krank	gemein	sterben	gierig	53pct	acq_USunple_CSunple1_noRW	acq1_noRW	1	61	0	0	300	300	486	46	0	1	1	blank2r.bmp	0	1	+	0	1	blank2r.bmp	252	1	LWWL	306	2	versagen	559	0	0	0	0	0	0	0	0	0	0	0	0	0	0	0	0	0	0	0	0	0	0	0	0	0	0	0	0	0	0	0	0	0	0	0	0	0	0	0
082619	10:54:22	10:56:56	153643	5.0.10.0	5_exp_noRW	112	Rpleas_acq	CS_A	CPPC	YFFY	LWWL	JQQJ	DXXD	ZHHZ	träumen	vertrauen	küssen	genießen	sonnig	gütig	töten	versagen	krank	gemein	sterben	gierig	47pct	acq_USunple_CSunple1_noRW	acq1_noRW	1	62	0	0	300	300	479	46	0	1	1	blank2r.bmp	0	1	+	0	1	blank2r.bmp	252	1	LWWL	306	3	krank	559	0	0	0	0	0	0	0	0	0	0	0	0	0	0	0	0	0	0	0	0	0	0	0	0	0	0	0	0	0	0	0	0	0	0	0	0	0	0	0
082619	10:54:22	10:56:58	155376	5.0.10.0	5_exp_noRW	112	Rpleas_acq	CS_A	CPPC	YFFY	LWWL	JQQJ	DXXD	ZHHZ	träumen	vertrauen	küssen	genießen	sonnig	gütig	töten	versagen	krank	gemein	sterben	gierig	53pct	acq_USunple_CSunple2_noRW	acq1_noRW	1	63	0	0	300	300	564	46	0	1	1	blank2r.bmp	0	1	+	0	1	blank2r.bmp	252	1	JQQJ	306	2	sterben	559	0	0	0	0	0	0	0	0	0	0	0	0	0	0	0	0	0	0	0	0	0	0	0	0	0	0	0	0	0	0	0	0	0	0	0	0	0	0	0
082619	10:54:22	10:56:59	156948	5.0.10.0	5_exp_noRW	112	Rpleas_acq	CS_A	CPPC	YFFY	LWWL	JQQJ	DXXD	ZHHZ	träumen	vertrauen	küssen	genießen	sonnig	gütig	töten	versagen	krank	gemein	sterben	gierig	53pct	acq_USunple_CSpleas2_noRW	acq1_noRW	1	64	0	0	300	300	406	46	0	1	1	blank2r.bmp	0	1	+	0	1	blank2r.bmp	252	1	YFFY	306	3	gierig	559	0	0	0	0	0	0	0	0	0	0	0	0	0	0	0	0	0	0	0	0	0	0	0	0	0	0	0	0	0	0	0	0	0	0	0	0	0	0	0
082619	10:54:22	10:57:01	158441	5.0.10.0	5_exp_noRW	112	Rpleas_acq	CS_A	CPPC	YFFY	LWWL	JQQJ	DXXD	ZHHZ	träumen	vertrauen	küssen	genießen	sonnig	gütig	töten	versagen	krank	gemein	sterben	gierig	53pct	acq_USunple_CSunple2_noRW	acq1_noRW	1	65	0	0	300	300	329	46	0	1	1	blank2r.bmp	0	1	+	0	1	blank2r.bmp	252	1	JQQJ	306	3	gierig	559	0	0	0	0	0	0	0	0	0	0	0	0	0	0	0	0	0	0	0	0	0	0	0	0	0	0	0	0	0	0	0	0	0	0	0	0	0	0	0
082619	10:54:22	10:57:02	160160	5.0.10.0	5_exp_noRW	112	Rpleas_acq	CS_A	CPPC	YFFY	LWWL	JQQJ	DXXD	ZHHZ	träumen	vertrauen	küssen	genießen	sonnig	gütig	töten	versagen	krank	gemein	sterben	gierig	53pct	acq_USpleas_CSpleas1_noRW	acq1_noRW	1	66	0	0	300	300	532	50	0	1	1	blank2r.bmp	0	1	+	0	1	blank2r.bmp	252	1	CPPC	306	2	vertrauen	559	0	0	0	0	0	0	0	0	0	0	0	0	0	0	0	0	0	0	0	0	0	0	0	0	0	0	0	0	0	0	0	0	0	0	0	0	0	0	0
082619	10:54:22	10:57:04	162080	5.0.10.0	5_exp_noRW	112	Rpleas_acq	CS_A	CPPC	YFFY	LWWL	JQQJ	DXXD	ZHHZ	träumen	vertrauen	küssen	genießen	sonnig	gütig	töten	versagen	krank	gemein	sterben	gierig	53pct	acq_USpleas_CSpleas2_noRW	acq1_noRW	1	67	0	0	300	300	747	50	0	1	1	blank2r.bmp	0	1	+	0	1	blank2r.bmp	252	1	YFFY	306	2	sonnig	559	0	0	0	0	0	0	0	0	0	0	0	0	0	0	0	0	0	0	0	0	0	0	0	0	0	0	0	0	0	0	0	0	0	0	0	0	0	0	0
082619	10:54:22	10:57:06	163919	5.0.10.0	5_exp_noRW	112	Rpleas_acq	CS_A	CPPC	YFFY	LWWL	JQQJ	DXXD	ZHHZ	träumen	vertrauen	küssen	genießen	sonnig	gütig	töten	versagen	krank	gemein	sterben	gierig	47pct	acq_USpleas_CSpleas1_noRW	acq1_noRW	1	68	0	0	300	300	674	50	0	1	1	blank2r.bmp	0	1	+	0	1	blank2r.bmp	252	1	CPPC	306	1	träumen	559	0	0	0	0	0	0	0	0	0	0	0	0	0	0	0	0	0	0	0	0	0	0	0	0	0	0	0	0	0	0	0	0	0	0	0	0	0	0	0
082619	10:54:22	10:57:08	165572	5.0.10.0	5_exp_noRW	112	Rpleas_acq	CS_A	CPPC	YFFY	LWWL	JQQJ	DXXD	ZHHZ	träumen	vertrauen	küssen	genießen	sonnig	gütig	töten	versagen	krank	gemein	sterben	gierig	47pct	acq_USpleas_CSunple1_noRW	acq1_noRW	1	69	0	0	300	300	469	50	0	1	1	blank2r.bmp	0	1	+	0	1	blank2r.bmp	252	1	LWWL	306	3	küssen	559	0	0	0	0	0	0	0	0	0	0	0	0	0	0	0	0	0	0	0	0	0	0	0	0	0	0	0	0	0	0	0	0	0	0	0	0	0	0	0
082619	10:54:22	10:57:10	167397	5.0.10.0	5_exp_noRW	112	Rpleas_acq	CS_A	CPPC	YFFY	LWWL	JQQJ	DXXD	ZHHZ	träumen	vertrauen	küssen	genießen	sonnig	gütig	töten	versagen	krank	gemein	sterben	gierig	53pct	acq_USunple_CSpleas1_noRW	acq1_noRW	1	70	0	0	300	300	441	50	0	0	1	blank2r.bmp	0	1	+	0	1	blank2r.bmp	252	1	CPPC	306	1	töten	559	1	FEHLER	1039	0	0	0	0	0	0	0	0	0	0	0	0	0	0	0	0	0	0	0	0	0	0	0	0	0	0	0	0	0	0	0	0	0	0	0	0
082619	10:54:22	10:57:11	168930	5.0.10.0	5_exp_noRW	112	Rpleas_acq	CS_A	CPPC	YFFY	LWWL	JQQJ	DXXD	ZHHZ	träumen	vertrauen	küssen	genießen	sonnig	gütig	töten	versagen	krank	gemein	sterben	gierig	47pct	acq_USpleas_CSpleas2_noRW	acq1_noRW	1	71	0	0	300	300	569	50	0	1	1	blank2r.bmp	0	1	+	0	1	blank2r.bmp	252	1	YFFY	306	1	genießen	559	0	0	0	0	0	0	0	0	0	0	0	0	0	0	0	0	0	0	0	0	0	0	0	0	0	0	0	0	0	0	0	0	0	0	0	0	0	0	0
082619	10:54:22	10:57:13	170489	5.0.10.0	5_exp_noRW	112	Rpleas_acq	CS_A	CPPC	YFFY	LWWL	JQQJ	DXXD	ZHHZ	träumen	vertrauen	küssen	genießen	sonnig	gütig	töten	versagen	krank	gemein	sterben	gierig	47pct	acq_USunple_CSunple1_noRW	acq1_noRW	1	72	0	0	300	300	382	46	0	1	1	blank2r.bmp	0	1	+	0	1	blank2r.bmp	252	1	LWWL	306	1	töten	559	0	0	0	0	0	0	0	0	0	0	0	0	0	0	0	0	0	0	0	0	0	0	0	0	0	0	0	0	0	0	0	0	0	0	0	0	0	0	0
082619	10:54:22	10:57:14	172262	5.0.10.0	5_exp_noRW	112	Rpleas_acq	CS_A	CPPC	YFFY	LWWL	JQQJ	DXXD	ZHHZ	träumen	vertrauen	küssen	genießen	sonnig	gütig	töten	versagen	krank	gemein	sterben	gierig	47pct	acq_USpleas_CSpleas2_noRW	acq1_noRW	1	73	0	0	300	300	395	46	0	0	1	blank2r.bmp	0	1	+	0	1	blank2r.bmp	252	1	YFFY	306	3	gütig	559	1	FEHLER	986	0	0	0	0	0	0	0	0	0	0	0	0	0	0	0	0	0	0	0	0	0	0	0	0	0	0	0	0	0	0	0	0	0	0	0	0
082619	10:54:22	10:57:16	173915	5.0.10.0	5_exp_noRW	112	Rpleas_acq	CS_A	CPPC	YFFY	LWWL	JQQJ	DXXD	ZHHZ	träumen	vertrauen	küssen	genießen	sonnig	gütig	töten	versagen	krank	gemein	sterben	gierig	53pct	acq_USunple_CSunple1_noRW	acq1_noRW	1	74	0	0	300	300	691	46	0	1	1	blank2r.bmp	0	1	+	0	1	blank2r.bmp	252	1	LWWL	306	2	versagen	559	0	0	0	0	0	0	0	0	0	0	0	0	0	0	0	0	0	0	0	0	0	0	0	0	0	0	0	0	0	0	0	0	0	0	0	0	0	0	0
082619	10:54:22	10:57:18	175567	5.0.10.0	5_exp_noRW	112	Rpleas_acq	CS_A	CPPC	YFFY	LWWL	JQQJ	DXXD	ZHHZ	träumen	vertrauen	küssen	genießen	sonnig	gütig	töten	versagen	krank	gemein	sterben	gierig	53pct	acq_USunple_CSunple2_noRW	acq1_noRW	1	75	0	0	300	300	490	46	0	1	1	blank2r.bmp	0	1	+	0	1	blank2r.bmp	252	1	JQQJ	306	1	gemein	559	0	0	0	0	0	0	0	0	0	0	0	0	0	0	0	0	0	0	0	0	0	0	0	0	0	0	0	0	0	0	0	0	0	0	0	0	0	0	0
082619	10:54:22	10:57:19	177207	5.0.10.0	5_exp_noRW	112	Rpleas_acq	CS_A	CPPC	YFFY	LWWL	JQQJ	DXXD	ZHHZ	träumen	vertrauen	küssen	genießen	sonnig	gütig	töten	versagen	krank	gemein	sterben	gierig	53pct	acq_USpleas_CSpleas1_noRW	acq1_noRW	1	76	0	0	300	300	460	50	0	1	1	blank2r.bmp	0	1	+	0	1	blank2r.bmp	252	1	CPPC	306	3	küssen	559	0	0	0	0	0	0	0	0	0	0	0	0	0	0	0	0	0	0	0	0	0	0	0	0	0	0	0	0	0	0	0	0	0	0	0	0	0	0	0
082619	10:54:22	10:57:21	179206	5.0.10.0	5_exp_noRW	112	Rpleas_acq	CS_A	CPPC	YFFY	LWWL	JQQJ	DXXD	ZHHZ	träumen	vertrauen	küssen	genießen	sonnig	gütig	töten	versagen	krank	gemein	sterben	gierig	53pct	acq_USpleas_CSunple2_noRW	acq1_noRW	1	77	0	0	300	300	815	50	0	1	1	blank2r.bmp	0	1	+	0	1	blank2r.bmp	252	1	JQQJ	306	1	genießen	559	0	0	0	0	0	0	0	0	0	0	0	0	0	0	0	0	0	0	0	0	0	0	0	0	0	0	0	0	0	0	0	0	0	0	0	0	0	0	0
082619	10:54:22	10:57:23	181059	5.0.10.0	5_exp_noRW	112	Rpleas_acq	CS_A	CPPC	YFFY	LWWL	JQQJ	DXXD	ZHHZ	träumen	vertrauen	küssen	genießen	sonnig	gütig	töten	versagen	krank	gemein	sterben	gierig	47pct	acq_USunple_CSunple2_noRW	acq1_noRW	1	78	0	0	300	300	676	46	0	1	1	blank2r.bmp	0	1	+	0	1	blank2r.bmp	252	1	JQQJ	306	3	gierig	559	0	0	0	0	0	0	0	0	0	0	0	0	0	0	0	0	0	0	0	0	0	0	0	0	0	0	0	0	0	0	0	0	0	0	0	0	0	0	0
082619	10:54:22	10:57:25	182778	5.0.10.0	5_exp_noRW	112	Rpleas_acq	CS_A	CPPC	YFFY	LWWL	JQQJ	DXXD	ZHHZ	träumen	vertrauen	küssen	genießen	sonnig	gütig	töten	versagen	krank	gemein	sterben	gierig	53pct	acq_USpleas_CSpleas2_noRW	acq1_noRW	1	79	0	0	300	300	537	50	0	1	1	blank2r.bmp	0	1	+	0	1	blank2r.bmp	252	1	YFFY	306	2	sonnig	559	0	0	0	0	0	0	0	0	0	0	0	0	0	0	0	0	0	0	0	0	0	0	0	0	0	0	0	0	0	0	0	0	0	0	0	0	0	0	0
082619	10:54:22	10:57:27	184457	5.0.10.0	5_exp_noRW	112	Rpleas_acq	CS_A	CPPC	YFFY	LWWL	JQQJ	DXXD	ZHHZ	träumen	vertrauen	küssen	genießen	sonnig	gütig	töten	versagen	krank	gemein	sterben	gierig	47pct	acq_USpleas_CSpleas1_noRW	acq1_noRW	1	80	0	0	300	300	492	50	0	1	1	blank2r.bmp	0	1	+	0	1	blank2r.bmp	252	1	CPPC	306	3	küssen	559	0	0	0	0	0	0	0	0	0	0	0	0	0	0	0	0	0	0	0	0	0	0	0	0	0	0	0	0	0	0	0	0	0	0	0	0	0	0	0
082619	10:54:22	10:57:52	209940	5.0.10.0	5_exp_noRW	112	Rpleas_acq	CS_A	CPPC	YFFY	LWWL	JQQJ	DXXD	ZHHZ	träumen	vertrauen	küssen	genießen	sonnig	gütig	töten	versagen	krank	gemein	sterben	gierig	47pct	acq_USunple_CSunple1_noRW	acq23456_noRW	2	1	0	0	300	300	411	46	0	1	1	blank2r.bmp	0	1	+	0	1	blank2r.bmp	252	1	LWWL	306	1	töten	559	0	0	0	0	0	0	0	0	0	0	0	0	0	0	0	0	0	0	0	0	0	0	0	0	0	0	0	0	0	0	0	0	0	0	0	0	0	0	0
082619	10:54:22	10:57:54	211606	5.0.10.0	5_exp_noRW	112	Rpleas_acq	CS_A	CPPC	YFFY	LWWL	JQQJ	DXXD	ZHHZ	träumen	vertrauen	küssen	genießen	sonnig	gütig	töten	versagen	krank	gemein	sterben	gierig	47pct	acq_USpleas_CSpleas2_noRW	acq23456_noRW	2	2	0	0	300	300	475	50	0	1	1	blank2r.bmp	0	1	+	0	1	blank2r.bmp	252	1	YFFY	306	3	gütig	559	0	0	0	0	0	0	0	0	0	0	0	0	0	0	0	0	0	0	0	0	0	0	0	0	0	0	0	0	0	0	0	0	0	0	0	0	0	0	0
082619	10:54:22	10:57:55	213232	5.0.10.0	5_exp_noRW	112	Rpleas_acq	CS_A	CPPC	YFFY	LWWL	JQQJ	DXXD	ZHHZ	träumen	vertrauen	küssen	genießen	sonnig	gütig	töten	versagen	krank	gemein	sterben	gierig	47pct	acq_USunple_CSpleas1_noRW	acq23456_noRW	2	3	0	0	300	300	448	46	0	1	1	blank2r.bmp	0	1	+	0	1	blank2r.bmp	252	1	CPPC	306	3	krank	559	0	0	0	0	0	0	0	0	0	0	0	0	0	0	0	0	0	0	0	0	0	0	0	0	0	0	0	0	0	0	0	0	0	0	0	0	0	0	0
082619	10:54:22	10:57:57	214805	5.0.10.0	5_exp_noRW	112	Rpleas_acq	CS_A	CPPC	YFFY	LWWL	JQQJ	DXXD	ZHHZ	träumen	vertrauen	küssen	genießen	sonnig	gütig	töten	versagen	krank	gemein	sterben	gierig	53pct	acq_USunple_CSunple1_noRW	acq23456_noRW	2	4	0	0	300	300	401	46	0	1	1	blank2r.bmp	0	1	+	0	1	blank2r.bmp	252	1	LWWL	306	3	krank	559	0	0	0	0	0	0	0	0	0	0	0	0	0	0	0	0	0	0	0	0	0	0	0	0	0	0	0	0	0	0	0	0	0	0	0	0	0	0	0
082619	10:54:22	10:57:59	216457	5.0.10.0	5_exp_noRW	112	Rpleas_acq	CS_A	CPPC	YFFY	LWWL	JQQJ	DXXD	ZHHZ	träumen	vertrauen	küssen	genießen	sonnig	gütig	töten	versagen	krank	gemein	sterben	gierig	53pct	acq_USunple_CSunple2_noRW	acq23456_noRW	2	5	0	0	300	300	471	46	0	1	1	blank2r.bmp	0	1	+	0	1	blank2r.bmp	252	1	JQQJ	306	1	gemein	559	0	0	0	0	0	0	0	0	0	0	0	0	0	0	0	0	0	0	0	0	0	0	0	0	0	0	0	0	0	0	0	0	0	0	0	0	0	0	0
082619	10:54:22	10:58:00	218070	5.0.10.0	5_exp_noRW	112	Rpleas_acq	CS_A	CPPC	YFFY	LWWL	JQQJ	DXXD	ZHHZ	träumen	vertrauen	küssen	genießen	sonnig	gütig	töten	versagen	krank	gemein	sterben	gierig	53pct	acq_USpleas_CSpleas1_noRW	acq23456_noRW	2	6	0	0	300	300	435	50	0	1	1	blank2r.bmp	0	1	+	0	1	blank2r.bmp	252	1	CPPC	306	2	vertrauen	559	0	0	0	0	0	0	0	0	0	0	0	0	0	0	0	0	0	0	0	0	0	0	0	0	0	0	0	0	0	0	0	0	0	0	0	0	0	0	0
082619	10:54:22	10:58:02	219656	5.0.10.0	5_exp_noRW	112	Rpleas_acq	CS_A	CPPC	YFFY	LWWL	JQQJ	DXXD	ZHHZ	träumen	vertrauen	küssen	genießen	sonnig	gütig	töten	versagen	krank	gemein	sterben	gierig	53pct	acq_USunple_CSpleas2_noRW	acq23456_noRW	2	7	0	0	300	300	409	46	0	1	1	blank2r.bmp	0	1	+	0	1	blank2r.bmp	252	1	YFFY	306	1	gemein	559	0	0	0	0	0	0	0	0	0	0	0	0	0	0	0	0	0	0	0	0	0	0	0	0	0	0	0	0	0	0	0	0	0	0	0	0	0	0	0
082619	10:54:22	10:58:03	221309	5.0.10.0	5_exp_noRW	112	Rpleas_acq	CS_A	CPPC	YFFY	LWWL	JQQJ	DXXD	ZHHZ	träumen	vertrauen	küssen	genießen	sonnig	gütig	töten	versagen	krank	gemein	sterben	gierig	47pct	acq_USpleas_CSpleas2_noRW	acq23456_noRW	2	8	0	0	300	300	477	50	0	1	1	blank2r.bmp	0	1	+	0	1	blank2r.bmp	252	1	YFFY	306	1	genießen	559	0	0	0	0	0	0	0	0	0	0	0	0	0	0	0	0	0	0	0	0	0	0	0	0	0	0	0	0	0	0	0	0	0	0	0	0	0	0	0
082619	10:54:22	10:58:05	222988	5.0.10.0	5_exp_noRW	112	Rpleas_acq	CS_A	CPPC	YFFY	LWWL	JQQJ	DXXD	ZHHZ	träumen	vertrauen	küssen	genießen	sonnig	gütig	töten	versagen	krank	gemein	sterben	gierig	47pct	acq_USunple_CSunple1_noRW	acq23456_noRW	2	9	0	0	300	300	496	46	0	1	1	blank2r.bmp	0	1	+	0	1	blank2r.bmp	252	1	LWWL	306	2	versagen	559	0	0	0	0	0	0	0	0	0	0	0	0	0	0	0	0	0	0	0	0	0	0	0	0	0	0	0	0	0	0	0	0	0	0	0	0	0	0	0
082619	10:54:22	10:58:07	224547	5.0.10.0	5_exp_noRW	112	Rpleas_acq	CS_A	CPPC	YFFY	LWWL	JQQJ	DXXD	ZHHZ	träumen	vertrauen	küssen	genießen	sonnig	gütig	töten	versagen	krank	gemein	sterben	gierig	47pct	acq_USunple_CSunple2_noRW	acq23456_noRW	2	10	0	0	300	300	387	46	0	1	1	blank2r.bmp	0	1	+	0	1	blank2r.bmp	252	1	JQQJ	306	2	sterben	559	0	0	0	0	0	0	0	0	0	0	0	0	0	0	0	0	0	0	0	0	0	0	0	0	0	0	0	0	0	0	0	0	0	0	0	0	0	0	0
082619	10:54:22	10:58:08	226160	5.0.10.0	5_exp_noRW	112	Rpleas_acq	CS_A	CPPC	YFFY	LWWL	JQQJ	DXXD	ZHHZ	träumen	vertrauen	küssen	genießen	sonnig	gütig	töten	versagen	krank	gemein	sterben	gierig	53pct	acq_USpleas_CSpleas1_noRW	acq23456_noRW	2	11	0	0	300	300	445	50	0	1	1	blank2r.bmp	0	1	+	0	1	blank2r.bmp	252	1	CPPC	306	1	träumen	559	0	0	0	0	0	0	0	0	0	0	0	0	0	0	0	0	0	0	0	0	0	0	0	0	0	0	0	0	0	0	0	0	0	0	0	0	0	0	0
082619	10:54:22	10:58:10	228199	5.0.10.0	5_exp_noRW	112	Rpleas_acq	CS_A	CPPC	YFFY	LWWL	JQQJ	DXXD	ZHHZ	träumen	vertrauen	küssen	genießen	sonnig	gütig	töten	versagen	krank	gemein	sterben	gierig	47pct	acq_USpleas_CSunple2_noRW	acq23456_noRW	2	12	0	0	300	300	644	46	0	0	1	blank2r.bmp	0	1	+	0	1	blank2r.bmp	252	1	JQQJ	306	3	gütig	559	1	FEHLER	1239	0	0	0	0	0	0	0	0	0	0	0	0	0	0	0	0	0	0	0	0	0	0	0	0	0	0	0	0	0	0	0	0	0	0	0	0
082619	10:54:22	10:58:12	229719	5.0.10.0	5_exp_noRW	112	Rpleas_acq	CS_A	CPPC	YFFY	LWWL	JQQJ	DXXD	ZHHZ	träumen	vertrauen	küssen	genießen	sonnig	gütig	töten	versagen	krank	gemein	sterben	gierig	53pct	acq_USunple_CSunple2_noRW	acq23456_noRW	2	13	0	0	300	300	551	46	0	1	1	blank2r.bmp	0	1	+	0	1	blank2r.bmp	252	1	JQQJ	306	1	gemein	559	0	0	0	0	0	0	0	0	0	0	0	0	0	0	0	0	0	0	0	0	0	0	0	0	0	0	0	0	0	0	0	0	0	0	0	0	0	0	0
082619	10:54:22	10:58:14	231371	5.0.10.0	5_exp_noRW	112	Rpleas_acq	CS_A	CPPC	YFFY	LWWL	JQQJ	DXXD	ZHHZ	träumen	vertrauen	küssen	genießen	sonnig	gütig	töten	versagen	krank	gemein	sterben	gierig	47pct	acq_USpleas_CSpleas1_noRW	acq23456_noRW	2	14	0	0	300	300	465	50	0	1	1	blank2r.bmp	0	1	+	0	1	blank2r.bmp	252	1	CPPC	306	3	küssen	559	0	0	0	0	0	0	0	0	0	0	0	0	0	0	0	0	0	0	0	0	0	0	0	0	0	0	0	0	0	0	0	0	0	0	0	0	0	0	0
082619	10:54:22	10:58:15	232984	5.0.10.0	5_exp_noRW	112	Rpleas_acq	CS_A	CPPC	YFFY	LWWL	JQQJ	DXXD	ZHHZ	träumen	vertrauen	küssen	genießen	sonnig	gütig	töten	versagen	krank	gemein	sterben	gierig	47pct	acq_USunple_CSunple2_noRW	acq23456_noRW	2	15	0	0	300	300	425	46	0	1	1	blank2r.bmp	0	1	+	0	1	blank2r.bmp	252	1	JQQJ	306	2	sterben	559	0	0	0	0	0	0	0	0	0	0	0	0	0	0	0	0	0	0	0	0	0	0	0	0	0	0	0	0	0	0	0	0	0	0	0	0	0	0	0
082619	10:54:22	10:58:17	234570	5.0.10.0	5_exp_noRW	112	Rpleas_acq	CS_A	CPPC	YFFY	LWWL	JQQJ	DXXD	ZHHZ	träumen	vertrauen	küssen	genießen	sonnig	gütig	töten	versagen	krank	gemein	sterben	gierig	47pct	acq_USpleas_CSpleas2_noRW	acq23456_noRW	2	16	0	0	300	300	413	50	0	1	1	blank2r.bmp	0	1	+	0	1	blank2r.bmp	252	1	YFFY	306	2	sonnig	559	0	0	0	0	0	0	0	0	0	0	0	0	0	0	0	0	0	0	0	0	0	0	0	0	0	0	0	0	0	0	0	0	0	0	0	0	0	0	0
082619	10:54:22	10:58:18	236303	5.0.10.0	5_exp_noRW	112	Rpleas_acq	CS_A	CPPC	YFFY	LWWL	JQQJ	DXXD	ZHHZ	träumen	vertrauen	küssen	genießen	sonnig	gütig	töten	versagen	krank	gemein	sterben	gierig	53pct	acq_USpleas_CSunple1_noRW	acq23456_noRW	2	17	0	0	300	300	548	50	0	1	1	blank2r.bmp	0	1	+	0	1	blank2r.bmp	252	1	LWWL	306	2	vertrauen	559	0	0	0	0	0	0	0	0	0	0	0	0	0	0	0	0	0	0	0	0	0	0	0	0	0	0	0	0	0	0	0	0	0	0	0	0	0	0	0
082619	10:54:22	10:58:20	237875	5.0.10.0	5_exp_noRW	112	Rpleas_acq	CS_A	CPPC	YFFY	LWWL	JQQJ	DXXD	ZHHZ	träumen	vertrauen	küssen	genießen	sonnig	gütig	töten	versagen	krank	gemein	sterben	gierig	53pct	acq_USpleas_CSpleas1_noRW	acq23456_noRW	2	18	0	0	300	300	408	50	0	1	1	blank2r.bmp	0	1	+	0	1	blank2r.bmp	252	1	CPPC	306	2	vertrauen	559	0	0	0	0	0	0	0	0	0	0	0	0	0	0	0	0	0	0	0	0	0	0	0	0	0	0	0	0	0	0	0	0	0	0	0	0	0	0	0
082619	10:54:22	10:58:22	239528	5.0.10.0	5_exp_noRW	112	Rpleas_acq	CS_A	CPPC	YFFY	LWWL	JQQJ	DXXD	ZHHZ	träumen	vertrauen	küssen	genießen	sonnig	gütig	töten	versagen	krank	gemein	sterben	gierig	53pct	acq_USpleas_CSpleas2_noRW	acq23456_noRW	2	19	0	0	300	300	468	50	0	1	1	blank2r.bmp	0	1	+	0	1	blank2r.bmp	252	1	YFFY	306	1	genießen	559	0	0	0	0	0	0	0	0	0	0	0	0	0	0	0	0	0	0	0	0	0	0	0	0	0	0	0	0	0	0	0	0	0	0	0	0	0	0	0
082619	10:54:22	10:58:23	241127	5.0.10.0	5_exp_noRW	112	Rpleas_acq	CS_A	CPPC	YFFY	LWWL	JQQJ	DXXD	ZHHZ	träumen	vertrauen	küssen	genießen	sonnig	gütig	töten	versagen	krank	gemein	sterben	gierig	47pct	acq_USunple_CSunple1_noRW	acq23456_noRW	2	20	0	0	300	300	420	46	0	1	1	blank2r.bmp	0	1	+	0	1	blank2r.bmp	252	1	LWWL	306	3	krank	559	0	0	0	0	0	0	0	0	0	0	0	0	0	0	0	0	0	0	0	0	0	0	0	0	0	0	0	0	0	0	0	0	0	0	0	0	0	0	0
082619	10:54:22	10:58:25	242713	5.0.10.0	5_exp_noRW	112	Rpleas_acq	CS_A	CPPC	YFFY	LWWL	JQQJ	DXXD	ZHHZ	träumen	vertrauen	küssen	genießen	sonnig	gütig	töten	versagen	krank	gemein	sterben	gierig	47pct	acq_USpleas_CSpleas1_noRW	acq23456_noRW	2	21	0	0	300	300	422	50	0	1	1	blank2r.bmp	0	1	+	0	1	blank2r.bmp	252	1	CPPC	306	1	träumen	559	0	0	0	0	0	0	0	0	0	0	0	0	0	0	0	0	0	0	0	0	0	0	0	0	0	0	0	0	0	0	0	0	0	0	0	0	0	0	0
082619	10:54:22	10:58:27	244393	5.0.10.0	5_exp_noRW	112	Rpleas_acq	CS_A	CPPC	YFFY	LWWL	JQQJ	DXXD	ZHHZ	träumen	vertrauen	küssen	genießen	sonnig	gütig	töten	versagen	krank	gemein	sterben	gierig	47pct	acq_USpleas_CSpleas2_noRW	acq23456_noRW	2	22	0	0	300	300	500	50	0	1	1	blank2r.bmp	0	1	+	0	1	blank2r.bmp	252	1	YFFY	306	3	gütig	559	0	0	0	0	0	0	0	0	0	0	0	0	0	0	0	0	0	0	0	0	0	0	0	0	0	0	0	0	0	0	0	0	0	0	0	0	0	0	0
082619	10:54:22	10:58:28	245952	5.0.10.0	5_exp_noRW	112	Rpleas_acq	CS_A	CPPC	YFFY	LWWL	JQQJ	DXXD	ZHHZ	träumen	vertrauen	küssen	genießen	sonnig	gütig	töten	versagen	krank	gemein	sterben	gierig	47pct	acq_USpleas_CSunple2_noRW	acq23456_noRW	2	23	0	0	300	300	374	50	0	1	1	blank2r.bmp	0	1	+	0	1	blank2r.bmp	252	1	JQQJ	306	2	sonnig	559	0	0	0	0	0	0	0	0	0	0	0	0	0	0	0	0	0	0	0	0	0	0	0	0	0	0	0	0	0	0	0	0	0	0	0	0	0	0	0
082619	10:54:22	10:58:30	247645	5.0.10.0	5_exp_noRW	112	Rpleas_acq	CS_A	CPPC	YFFY	LWWL	JQQJ	DXXD	ZHHZ	träumen	vertrauen	küssen	genießen	sonnig	gütig	töten	versagen	krank	gemein	sterben	gierig	53pct	acq_USunple_CSunple2_noRW	acq23456_noRW	2	24	0	0	300	300	518	46	0	1	1	blank2r.bmp	0	1	+	0	1	blank2r.bmp	252	1	JQQJ	306	3	gierig	559	0	0	0	0	0	0	0	0	0	0	0	0	0	0	0	0	0	0	0	0	0	0	0	0	0	0	0	0	0	0	0	0	0	0	0	0	0	0	0
082619	10:54:22	10:58:31	249164	5.0.10.0	5_exp_noRW	112	Rpleas_acq	CS_A	CPPC	YFFY	LWWL	JQQJ	DXXD	ZHHZ	träumen	vertrauen	küssen	genießen	sonnig	gütig	töten	versagen	krank	gemein	sterben	gierig	53pct	acq_USunple_CSunple2_noRW	acq23456_noRW	2	25	0	0	300	300	351	46	0	1	1	blank2r.bmp	0	1	+	0	1	blank2r.bmp	252	1	JQQJ	306	1	gemein	559	0	0	0	0	0	0	0	0	0	0	0	0	0	0	0	0	0	0	0	0	0	0	0	0	0	0	0	0	0	0	0	0	0	0	0	0	0	0	0
082619	10:54:22	10:58:33	250870	5.0.10.0	5_exp_noRW	112	Rpleas_acq	CS_A	CPPC	YFFY	LWWL	JQQJ	DXXD	ZHHZ	träumen	vertrauen	küssen	genießen	sonnig	gütig	töten	versagen	krank	gemein	sterben	gierig	53pct	acq_USpleas_CSpleas2_noRW	acq23456_noRW	2	26	0	0	300	300	542	50	0	1	1	blank2r.bmp	0	1	+	0	1	blank2r.bmp	252	1	YFFY	306	1	genießen	559	0	0	0	0	0	0	0	0	0	0	0	0	0	0	0	0	0	0	0	0	0	0	0	0	0	0	0	0	0	0	0	0	0	0	0	0	0	0	0
082619	10:54:22	10:58:35	252483	5.0.10.0	5_exp_noRW	112	Rpleas_acq	CS_A	CPPC	YFFY	LWWL	JQQJ	DXXD	ZHHZ	träumen	vertrauen	küssen	genießen	sonnig	gütig	töten	versagen	krank	gemein	sterben	gierig	53pct	acq_USunple_CSunple1_noRW	acq23456_noRW	2	27	0	0	300	300	429	46	0	1	1	blank2r.bmp	0	1	+	0	1	blank2r.bmp	252	1	LWWL	306	1	töten	559	0	0	0	0	0	0	0	0	0	0	0	0	0	0	0	0	0	0	0	0	0	0	0	0	0	0	0	0	0	0	0	0	0	0	0	0	0	0	0
082619	10:54:22	10:58:36	254309	5.0.10.0	5_exp_noRW	112	Rpleas_acq	CS_A	CPPC	YFFY	LWWL	JQQJ	DXXD	ZHHZ	träumen	vertrauen	küssen	genießen	sonnig	gütig	töten	versagen	krank	gemein	sterben	gierig	47pct	acq_USunple_CSunple1_noRW	acq23456_noRW	2	28	0	0	300	300	439	50	0	0	1	blank2r.bmp	0	1	+	0	1	blank2r.bmp	252	1	LWWL	306	3	krank	559	1	FEHLER	1039	0	0	0	0	0	0	0	0	0	0	0	0	0	0	0	0	0	0	0	0	0	0	0	0	0	0	0	0	0	0	0	0	0	0	0	0
082619	10:54:22	10:58:38	256294	5.0.10.0	5_exp_noRW	112	Rpleas_acq	CS_A	CPPC	YFFY	LWWL	JQQJ	DXXD	ZHHZ	träumen	vertrauen	küssen	genießen	sonnig	gütig	töten	versagen	krank	gemein	sterben	gierig	47pct	acq_USunple_CSpleas1_noRW	acq23456_noRW	2	29	0	0	300	300	1029	46	0	1	1	blank2r.bmp	0	1	+	0	1	blank2r.bmp	252	1	CPPC	306	2	versagen	559	0	0	0	0	0	0	0	0	0	0	0	0	0	0	0	0	0	0	0	0	0	0	0	0	0	0	0	0	0	0	0	0	0	0	0	0	0	0	0
082619	10:54:22	10:58:40	257960	5.0.10.0	5_exp_noRW	112	Rpleas_acq	CS_A	CPPC	YFFY	LWWL	JQQJ	DXXD	ZHHZ	träumen	vertrauen	küssen	genießen	sonnig	gütig	töten	versagen	krank	gemein	sterben	gierig	53pct	acq_USpleas_CSpleas1_noRW	acq23456_noRW	2	30	0	0	300	300	504	50	0	1	1	blank2r.bmp	0	1	+	0	1	blank2r.bmp	252	1	CPPC	306	1	träumen	559	0	0	0	0	0	0	0	0	0	0	0	0	0	0	0	0	0	0	0	0	0	0	0	0	0	0	0	0	0	0	0	0	0	0	0	0	0	0	0
082619	10:54:22	10:58:42	259640	5.0.10.0	5_exp_noRW	112	Rpleas_acq	CS_A	CPPC	YFFY	LWWL	JQQJ	DXXD	ZHHZ	träumen	vertrauen	küssen	genießen	sonnig	gütig	töten	versagen	krank	gemein	sterben	gierig	53pct	acq_USunple_CSunple2_noRW	acq23456_noRW	2	31	0	0	300	300	497	46	0	1	1	blank2r.bmp	0	1	+	0	1	blank2r.bmp	252	1	JQQJ	306	3	gierig	559	0	0	0	0	0	0	0	0	0	0	0	0	0	0	0	0	0	0	0	0	0	0	0	0	0	0	0	0	0	0	0	0	0	0	0	0	0	0	0
082619	10:54:22	10:58:43	261292	5.0.10.0	5_exp_noRW	112	Rpleas_acq	CS_A	CPPC	YFFY	LWWL	JQQJ	DXXD	ZHHZ	träumen	vertrauen	küssen	genießen	sonnig	gütig	töten	versagen	krank	gemein	sterben	gierig	47pct	acq_USunple_CSpleas2_noRW	acq23456_noRW	2	32	0	0	300	300	476	46	0	1	1	blank2r.bmp	0	1	+	0	1	blank2r.bmp	252	1	YFFY	306	2	sterben	559	0	0	0	0	0	0	0	0	0	0	0	0	0	0	0	0	0	0	0	0	0	0	0	0	0	0	0	0	0	0	0	0	0	0	0	0	0	0	0
082619	10:54:22	10:58:45	262918	5.0.10.0	5_exp_noRW	112	Rpleas_acq	CS_A	CPPC	YFFY	LWWL	JQQJ	DXXD	ZHHZ	träumen	vertrauen	küssen	genießen	sonnig	gütig	töten	versagen	krank	gemein	sterben	gierig	53pct	acq_USunple_CSunple1_noRW	acq23456_noRW	2	33	0	0	300	300	440	46	0	1	1	blank2r.bmp	0	1	+	0	1	blank2r.bmp	252	1	LWWL	306	1	töten	559	0	0	0	0	0	0	0	0	0	0	0	0	0	0	0	0	0	0	0	0	0	0	0	0	0	0	0	0	0	0	0	0	0	0	0	0	0	0	0
082619	10:54:22	10:58:47	264544	5.0.10.0	5_exp_noRW	112	Rpleas_acq	CS_A	CPPC	YFFY	LWWL	JQQJ	DXXD	ZHHZ	träumen	vertrauen	küssen	genießen	sonnig	gütig	töten	versagen	krank	gemein	sterben	gierig	47pct	acq_USpleas_CSpleas2_noRW	acq23456_noRW	2	34	0	0	300	300	464	50	0	1	1	blank2r.bmp	0	1	+	0	1	blank2r.bmp	252	1	YFFY	306	3	gütig	559	0	0	0	0	0	0	0	0	0	0	0	0	0	0	0	0	0	0	0	0	0	0	0	0	0	0	0	0	0	0	0	0	0	0	0	0	0	0	0
082619	10:54:22	10:58:48	266224	5.0.10.0	5_exp_noRW	112	Rpleas_acq	CS_A	CPPC	YFFY	LWWL	JQQJ	DXXD	ZHHZ	träumen	vertrauen	küssen	genießen	sonnig	gütig	töten	versagen	krank	gemein	sterben	gierig	53pct	acq_USunple_CSunple1_noRW	acq23456_noRW	2	35	0	0	300	300	492	46	0	1	1	blank2r.bmp	0	1	+	0	1	blank2r.bmp	252	1	LWWL	306	2	versagen	559	0	0	0	0	0	0	0	0	0	0	0	0	0	0	0	0	0	0	0	0	0	0	0	0	0	0	0	0	0	0	0	0	0	0	0	0	0	0	0
082619	10:54:22	10:58:50	267796	5.0.10.0	5_exp_noRW	112	Rpleas_acq	CS_A	CPPC	YFFY	LWWL	JQQJ	DXXD	ZHHZ	träumen	vertrauen	küssen	genießen	sonnig	gütig	töten	versagen	krank	gemein	sterben	gierig	53pct	acq_USpleas_CSunple1_noRW	acq23456_noRW	2	36	0	0	300	300	403	50	0	1	1	blank2r.bmp	0	1	+	0	1	blank2r.bmp	252	1	LWWL	306	1	träumen	559	0	0	0	0	0	0	0	0	0	0	0	0	0	0	0	0	0	0	0	0	0	0	0	0	0	0	0	0	0	0	0	0	0	0	0	0	0	0	0
082619	10:54:22	10:58:52	269409	5.0.10.0	5_exp_noRW	112	Rpleas_acq	CS_A	CPPC	YFFY	LWWL	JQQJ	DXXD	ZHHZ	träumen	vertrauen	küssen	genießen	sonnig	gütig	töten	versagen	krank	gemein	sterben	gierig	47pct	acq_USunple_CSunple2_noRW	acq23456_noRW	2	37	0	0	300	300	426	46	0	1	1	blank2r.bmp	0	1	+	0	1	blank2r.bmp	252	1	JQQJ	306	2	sterben	559	0	0	0	0	0	0	0	0	0	0	0	0	0	0	0	0	0	0	0	0	0	0	0	0	0	0	0	0	0	0	0	0	0	0	0	0	0	0	0
082619	10:54:22	10:58:53	270995	5.0.10.0	5_exp_noRW	112	Rpleas_acq	CS_A	CPPC	YFFY	LWWL	JQQJ	DXXD	ZHHZ	träumen	vertrauen	küssen	genießen	sonnig	gütig	töten	versagen	krank	gemein	sterben	gierig	53pct	acq_USpleas_CSpleas2_noRW	acq23456_noRW	2	38	0	0	300	300	416	50	0	1	1	blank2r.bmp	0	1	+	0	1	blank2r.bmp	252	1	YFFY	306	2	sonnig	559	0	0	0	0	0	0	0	0	0	0	0	0	0	0	0	0	0	0	0	0	0	0	0	0	0	0	0	0	0	0	0	0	0	0	0	0	0	0	0
082619	10:54:22	10:58:55	272634	5.0.10.0	5_exp_noRW	112	Rpleas_acq	CS_A	CPPC	YFFY	LWWL	JQQJ	DXXD	ZHHZ	träumen	vertrauen	küssen	genießen	sonnig	gütig	töten	versagen	krank	gemein	sterben	gierig	53pct	acq_USpleas_CSpleas1_noRW	acq23456_noRW	2	39	0	0	300	300	460	50	0	1	1	blank2r.bmp	0	1	+	0	1	blank2r.bmp	252	1	CPPC	306	3	küssen	559	0	0	0	0	0	0	0	0	0	0	0	0	0	0	0	0	0	0	0	0	0	0	0	0	0	0	0	0	0	0	0	0	0	0	0	0	0	0	0
082619	10:54:22	10:58:57	274340	5.0.10.0	5_exp_noRW	112	Rpleas_acq	CS_A	CPPC	YFFY	LWWL	JQQJ	DXXD	ZHHZ	träumen	vertrauen	küssen	genießen	sonnig	gütig	töten	versagen	krank	gemein	sterben	gierig	47pct	acq_USpleas_CSpleas1_noRW	acq23456_noRW	2	40	0	0	300	300	526	50	0	1	1	blank2r.bmp	0	1	+	0	1	blank2r.bmp	252	1	CPPC	306	2	vertrauen	559	0	0	0	0	0	0	0	0	0	0	0	0	0	0	0	0	0	0	0	0	0	0	0	0	0	0	0	0	0	0	0	0	0	0	0	0	0	0	0
082619	10:54:22	10:58:58	276020	5.0.10.0	5_exp_noRW	112	Rpleas_acq	CS_A	CPPC	YFFY	LWWL	JQQJ	DXXD	ZHHZ	träumen	vertrauen	küssen	genießen	sonnig	gütig	töten	versagen	krank	gemein	sterben	gierig	47pct	acq_USpleas_CSpleas2_noRW	acq23456_noRW	2	41	0	0	300	300	501	50	0	1	1	blank2r.bmp	0	1	+	0	1	blank2r.bmp	252	1	YFFY	306	1	genießen	559	0	0	0	0	0	0	0	0	0	0	0	0	0	0	0	0	0	0	0	0	0	0	0	0	0	0	0	0	0	0	0	0	0	0	0	0	0	0	0
082619	10:54:22	10:59:00	277766	5.0.10.0	5_exp_noRW	112	Rpleas_acq	CS_A	CPPC	YFFY	LWWL	JQQJ	DXXD	ZHHZ	träumen	vertrauen	küssen	genießen	sonnig	gütig	töten	versagen	krank	gemein	sterben	gierig	47pct	acq_USpleas_CSpleas1_noRW	acq23456_noRW	2	42	0	0	300	300	582	50	0	1	1	blank2r.bmp	0	1	+	0	1	blank2r.bmp	252	1	CPPC	306	3	küssen	559	0	0	0	0	0	0	0	0	0	0	0	0	0	0	0	0	0	0	0	0	0	0	0	0	0	0	0	0	0	0	0	0	0	0	0	0	0	0	0
082619	10:54:22	10:59:02	279405	5.0.10.0	5_exp_noRW	112	Rpleas_acq	CS_A	CPPC	YFFY	LWWL	JQQJ	DXXD	ZHHZ	träumen	vertrauen	küssen	genießen	sonnig	gütig	töten	versagen	krank	gemein	sterben	gierig	53pct	acq_USpleas_CSpleas1_noRW	acq23456_noRW	2	43	0	0	300	300	452	50	0	1	1	blank2r.bmp	0	1	+	0	1	blank2r.bmp	252	1	CPPC	306	2	vertrauen	559	0	0	0	0	0	0	0	0	0	0	0	0	0	0	0	0	0	0	0	0	0	0	0	0	0	0	0	0	0	0	0	0	0	0	0	0	0	0	0
082619	10:54:22	10:59:03	281084	5.0.10.0	5_exp_noRW	112	Rpleas_acq	CS_A	CPPC	YFFY	LWWL	JQQJ	DXXD	ZHHZ	träumen	vertrauen	küssen	genießen	sonnig	gütig	töten	versagen	krank	gemein	sterben	gierig	53pct	acq_USpleas_CSpleas1_noRW	acq23456_noRW	2	44	0	0	300	300	506	50	0	1	1	blank2r.bmp	0	1	+	0	1	blank2r.bmp	252	1	CPPC	306	1	träumen	559	0	0	0	0	0	0	0	0	0	0	0	0	0	0	0	0	0	0	0	0	0	0	0	0	0	0	0	0	0	0	0	0	0	0	0	0	0	0	0
082619	10:54:22	10:59:05	282790	5.0.10.0	5_exp_noRW	112	Rpleas_acq	CS_A	CPPC	YFFY	LWWL	JQQJ	DXXD	ZHHZ	träumen	vertrauen	küssen	genießen	sonnig	gütig	töten	versagen	krank	gemein	sterben	gierig	53pct	acq_USunple_CSunple2_noRW	acq23456_noRW	2	45	0	0	300	300	535	46	0	1	1	blank2r.bmp	0	1	+	0	1	blank2r.bmp	252	1	JQQJ	306	2	sterben	559	0	0	0	0	0	0	0	0	0	0	0	0	0	0	0	0	0	0	0	0	0	0	0	0	0	0	0	0	0	0	0	0	0	0	0	0	0	0	0
082619	10:54:22	10:59:07	284829	5.0.10.0	5_exp_noRW	112	Rpleas_acq	CS_A	CPPC	YFFY	LWWL	JQQJ	DXXD	ZHHZ	träumen	vertrauen	küssen	genießen	sonnig	gütig	töten	versagen	krank	gemein	sterben	gierig	53pct	acq_USunple_CSunple1_noRW	acq23456_noRW	2	46	0	0	300	300	870	46	0	1	1	blank2r.bmp	0	1	+	0	1	blank2r.bmp	252	1	LWWL	306	1	töten	559	0	0	0	0	0	0	0	0	0	0	0	0	0	0	0	0	0	0	0	0	0	0	0	0	0	0	0	0	0	0	0	0	0	0	0	0	0	0	0
082619	10:54:22	10:59:09	287029	5.0.10.0	5_exp_noRW	112	Rpleas_acq	CS_A	CPPC	YFFY	LWWL	JQQJ	DXXD	ZHHZ	träumen	vertrauen	küssen	genießen	sonnig	gütig	töten	versagen	krank	gemein	sterben	gierig	47pct	acq_USpleas_CSpleas2_noRW	acq23456_noRW	2	47	0	0	300	300	1013	50	0	1	1	blank2r.bmp	0	1	+	0	1	blank2r.bmp	252	1	YFFY	306	3	gütig	559	0	0	0	0	0	0	0	0	0	0	0	0	0	0	0	0	0	0	0	0	0	0	0	0	0	0	0	0	0	0	0	0	0	0	0	0	0	0	0
082619	10:54:22	10:59:11	288655	5.0.10.0	5_exp_noRW	112	Rpleas_acq	CS_A	CPPC	YFFY	LWWL	JQQJ	DXXD	ZHHZ	träumen	vertrauen	küssen	genießen	sonnig	gütig	töten	versagen	krank	gemein	sterben	gierig	53pct	acq_USpleas_CSpleas2_noRW	acq23456_noRW	2	48	0	0	300	300	455	50	0	1	1	blank2r.bmp	0	1	+	0	1	blank2r.bmp	252	1	YFFY	306	2	sonnig	559	0	0	0	0	0	0	0	0	0	0	0	0	0	0	0	0	0	0	0	0	0	0	0	0	0	0	0	0	0	0	0	0	0	0	0	0	0	0	0
082619	10:54:22	10:59:12	290294	5.0.10.0	5_exp_noRW	112	Rpleas_acq	CS_A	CPPC	YFFY	LWWL	JQQJ	DXXD	ZHHZ	träumen	vertrauen	küssen	genießen	sonnig	gütig	töten	versagen	krank	gemein	sterben	gierig	47pct	acq_USpleas_CSunple1_noRW	acq23456_noRW	2	49	0	0	300	300	458	50	0	1	1	blank2r.bmp	0	1	+	0	1	blank2r.bmp	252	1	LWWL	306	3	küssen	559	0	0	0	0	0	0	0	0	0	0	0	0	0	0	0	0	0	0	0	0	0	0	0	0	0	0	0	0	0	0	0	0	0	0	0	0	0	0	0
082619	10:54:22	10:59:14	292066	5.0.10.0	5_exp_noRW	112	Rpleas_acq	CS_A	CPPC	YFFY	LWWL	JQQJ	DXXD	ZHHZ	träumen	vertrauen	küssen	genießen	sonnig	gütig	töten	versagen	krank	gemein	sterben	gierig	47pct	acq_USunple_CSunple2_noRW	acq23456_noRW	2	50	0	0	300	300	607	46	0	1	1	blank2r.bmp	0	1	+	0	1	blank2r.bmp	252	1	JQQJ	306	1	gemein	559	0	0	0	0	0	0	0	0	0	0	0	0	0	0	0	0	0	0	0	0	0	0	0	0	0	0	0	0	0	0	0	0	0	0	0	0	0	0	0
082619	10:54:22	10:59:16	293892	5.0.10.0	5_exp_noRW	112	Rpleas_acq	CS_A	CPPC	YFFY	LWWL	JQQJ	DXXD	ZHHZ	träumen	vertrauen	küssen	genießen	sonnig	gütig	töten	versagen	krank	gemein	sterben	gierig	53pct	acq_USunple_CSpleas1_noRW	acq23456_noRW	2	51	0	0	300	300	638	46	0	1	1	blank2r.bmp	0	1	+	0	1	blank2r.bmp	252	1	CPPC	306	1	töten	559	0	0	0	0	0	0	0	0	0	0	0	0	0	0	0	0	0	0	0	0	0	0	0	0	0	0	0	0	0	0	0	0	0	0	0	0	0	0	0
082619	10:54:22	10:59:18	295932	5.0.10.0	5_exp_noRW	112	Rpleas_acq	CS_A	CPPC	YFFY	LWWL	JQQJ	DXXD	ZHHZ	träumen	vertrauen	küssen	genießen	sonnig	gütig	töten	versagen	krank	gemein	sterben	gierig	47pct	acq_USpleas_CSpleas2_noRW	acq23456_noRW	2	52	0	0	300	300	866	50	0	1	1	blank2r.bmp	0	1	+	0	1	blank2r.bmp	252	1	YFFY	306	2	sonnig	559	0	0	0	0	0	0	0	0	0	0	0	0	0	0	0	0	0	0	0	0	0	0	0	0	0	0	0	0	0	0	0	0	0	0	0	0	0	0	0
082619	10:54:22	10:59:20	297957	5.0.10.0	5_exp_noRW	112	Rpleas_acq	CS_A	CPPC	YFFY	LWWL	JQQJ	DXXD	ZHHZ	träumen	vertrauen	küssen	genießen	sonnig	gütig	töten	versagen	krank	gemein	sterben	gierig	47pct	acq_USunple_CSunple1_noRW	acq23456_noRW	2	53	0	0	300	300	854	46	0	1	1	blank2r.bmp	0	1	+	0	1	blank2r.bmp	252	1	LWWL	306	2	versagen	559	0	0	0	0	0	0	0	0	0	0	0	0	0	0	0	0	0	0	0	0	0	0	0	0	0	0	0	0	0	0	0	0	0	0	0	0	0	0	0
082619	10:54:22	10:59:22	299623	5.0.10.0	5_exp_noRW	112	Rpleas_acq	CS_A	CPPC	YFFY	LWWL	JQQJ	DXXD	ZHHZ	träumen	vertrauen	küssen	genießen	sonnig	gütig	töten	versagen	krank	gemein	sterben	gierig	47pct	acq_USunple_CSunple2_noRW	acq23456_noRW	2	54	0	0	300	300	496	46	0	1	1	blank2r.bmp	0	1	+	0	1	blank2r.bmp	252	1	JQQJ	306	3	gierig	559	0	0	0	0	0	0	0	0	0	0	0	0	0	0	0	0	0	0	0	0	0	0	0	0	0	0	0	0	0	0	0	0	0	0	0	0	0	0	0
082619	10:54:22	10:59:24	301343	5.0.10.0	5_exp_noRW	112	Rpleas_acq	CS_A	CPPC	YFFY	LWWL	JQQJ	DXXD	ZHHZ	träumen	vertrauen	küssen	genießen	sonnig	gütig	töten	versagen	krank	gemein	sterben	gierig	53pct	acq_USunple_CSunple1_noRW	acq23456_noRW	2	55	0	0	300	300	555	46	0	1	1	blank2r.bmp	0	1	+	0	1	blank2r.bmp	252	1	LWWL	306	3	krank	559	0	0	0	0	0	0	0	0	0	0	0	0	0	0	0	0	0	0	0	0	0	0	0	0	0	0	0	0	0	0	0	0	0	0	0	0	0	0	0
082619	10:54:22	10:59:25	303115	5.0.10.0	5_exp_noRW	112	Rpleas_acq	CS_A	CPPC	YFFY	LWWL	JQQJ	DXXD	ZHHZ	träumen	vertrauen	küssen	genießen	sonnig	gütig	töten	versagen	krank	gemein	sterben	gierig	47pct	acq_USpleas_CSpleas1_noRW	acq23456_noRW	2	56	0	0	300	300	585	50	0	1	1	blank2r.bmp	0	1	+	0	1	blank2r.bmp	252	1	CPPC	306	1	träumen	559	0	0	0	0	0	0	0	0	0	0	0	0	0	0	0	0	0	0	0	0	0	0	0	0	0	0	0	0	0	0	0	0	0	0	0	0	0	0	0
082619	10:54:22	10:59:27	304875	5.0.10.0	5_exp_noRW	112	Rpleas_acq	CS_A	CPPC	YFFY	LWWL	JQQJ	DXXD	ZHHZ	träumen	vertrauen	küssen	genießen	sonnig	gütig	töten	versagen	krank	gemein	sterben	gierig	47pct	acq_USunple_CSpleas2_noRW	acq23456_noRW	2	57	0	0	300	300	579	46	0	1	1	blank2r.bmp	0	1	+	0	1	blank2r.bmp	252	1	YFFY	306	3	gierig	559	0	0	0	0	0	0	0	0	0	0	0	0	0	0	0	0	0	0	0	0	0	0	0	0	0	0	0	0	0	0	0	0	0	0	0	0	0	0	0
082619	10:54:22	10:59:29	306727	5.0.10.0	5_exp_noRW	112	Rpleas_acq	CS_A	CPPC	YFFY	LWWL	JQQJ	DXXD	ZHHZ	träumen	vertrauen	küssen	genießen	sonnig	gütig	töten	versagen	krank	gemein	sterben	gierig	47pct	acq_USunple_CSunple1_noRW	acq23456_noRW	2	58	0	0	300	300	669	46	0	1	1	blank2r.bmp	0	1	+	0	1	blank2r.bmp	252	1	LWWL	306	2	versagen	559	0	0	0	0	0	0	0	0	0	0	0	0	0	0	0	0	0	0	0	0	0	0	0	0	0	0	0	0	0	0	0	0	0	0	0	0	0	0	0
082619	10:54:22	10:59:31	308580	5.0.10.0	5_exp_noRW	112	Rpleas_acq	CS_A	CPPC	YFFY	LWWL	JQQJ	DXXD	ZHHZ	träumen	vertrauen	küssen	genießen	sonnig	gütig	töten	versagen	krank	gemein	sterben	gierig	53pct	acq_USpleas_CSunple2_noRW	acq23456_noRW	2	59	0	0	300	300	689	50	0	1	1	blank2r.bmp	0	1	+	0	1	blank2r.bmp	252	1	JQQJ	306	3	gütig	559	0	0	0	0	0	0	0	0	0	0	0	0	0	0	0	0	0	0	0	0	0	0	0	0	0	0	0	0	0	0	0	0	0	0	0	0	0	0	0
082619	10:54:22	10:59:33	310366	5.0.10.0	5_exp_noRW	112	Rpleas_acq	CS_A	CPPC	YFFY	LWWL	JQQJ	DXXD	ZHHZ	träumen	vertrauen	küssen	genießen	sonnig	gütig	töten	versagen	krank	gemein	sterben	gierig	53pct	acq_USunple_CSunple2_noRW	acq23456_noRW	2	60	0	0	300	300	386	50	0	0	1	blank2r.bmp	0	1	+	0	1	blank2r.bmp	252	1	JQQJ	306	3	gierig	559	1	FEHLER	986	0	0	0	0	0	0	0	0	0	0	0	0	0	0	0	0	0	0	0	0	0	0	0	0	0	0	0	0	0	0	0	0	0	0	0	0
082619	10:54:22	10:59:34	312085	5.0.10.0	5_exp_noRW	112	Rpleas_acq	CS_A	CPPC	YFFY	LWWL	JQQJ	DXXD	ZHHZ	träumen	vertrauen	küssen	genießen	sonnig	gütig	töten	versagen	krank	gemein	sterben	gierig	47pct	acq_USunple_CSunple2_noRW	acq23456_noRW	2	61	0	0	300	300	764	46	0	1	1	blank2r.bmp	0	1	+	0	1	blank2r.bmp	252	1	JQQJ	306	1	gemein	559	0	0	0	0	0	0	0	0	0	0	0	0	0	0	0	0	0	0	0	0	0	0	0	0	0	0	0	0	0	0	0	0	0	0	0	0	0	0	0
082619	10:54:22	10:59:36	313711	5.0.10.0	5_exp_noRW	112	Rpleas_acq	CS_A	CPPC	YFFY	LWWL	JQQJ	DXXD	ZHHZ	träumen	vertrauen	küssen	genießen	sonnig	gütig	töten	versagen	krank	gemein	sterben	gierig	47pct	acq_USpleas_CSpleas1_noRW	acq23456_noRW	2	62	0	0	300	300	445	50	0	1	1	blank2r.bmp	0	1	+	0	1	blank2r.bmp	252	1	CPPC	306	3	küssen	559	0	0	0	0	0	0	0	0	0	0	0	0	0	0	0	0	0	0	0	0	0	0	0	0	0	0	0	0	0	0	0	0	0	0	0	0	0	0	0
082619	10:54:22	10:59:38	315444	5.0.10.0	5_exp_noRW	112	Rpleas_acq	CS_A	CPPC	YFFY	LWWL	JQQJ	DXXD	ZHHZ	träumen	vertrauen	küssen	genießen	sonnig	gütig	töten	versagen	krank	gemein	sterben	gierig	53pct	acq_USunple_CSunple2_noRW	acq23456_noRW	2	63	0	0	300	300	563	46	0	1	1	blank2r.bmp	0	1	+	0	1	blank2r.bmp	252	1	JQQJ	306	2	sterben	559	0	0	0	0	0	0	0	0	0	0	0	0	0	0	0	0	0	0	0	0	0	0	0	0	0	0	0	0	0	0	0	0	0	0	0	0	0	0	0
082619	10:54:22	10:59:39	317056	5.0.10.0	5_exp_noRW	112	Rpleas_acq	CS_A	CPPC	YFFY	LWWL	JQQJ	DXXD	ZHHZ	träumen	vertrauen	küssen	genießen	sonnig	gütig	töten	versagen	krank	gemein	sterben	gierig	47pct	acq_USunple_CSunple2_noRW	acq23456_noRW	2	64	0	0	300	300	442	46	0	1	1	blank2r.bmp	0	1	+	0	1	blank2r.bmp	252	1	JQQJ	306	2	sterben	559	0	0	0	0	0	0	0	0	0	0	0	0	0	0	0	0	0	0	0	0	0	0	0	0	0	0	0	0	0	0	0	0	0	0	0	0	0	0	0
082619	10:54:22	10:59:41	318749	5.0.10.0	5_exp_noRW	112	Rpleas_acq	CS_A	CPPC	YFFY	LWWL	JQQJ	DXXD	ZHHZ	träumen	vertrauen	küssen	genießen	sonnig	gütig	töten	versagen	krank	gemein	sterben	gierig	47pct	acq_USpleas_CSpleas1_noRW	acq23456_noRW	2	65	0	0	300	300	521	50	0	1	1	blank2r.bmp	0	1	+	0	1	blank2r.bmp	252	1	CPPC	306	2	vertrauen	559	0	0	0	0	0	0	0	0	0	0	0	0	0	0	0	0	0	0	0	0	0	0	0	0	0	0	0	0	0	0	0	0	0	0	0	0	0	0	0
082619	10:54:22	10:59:43	320362	5.0.10.0	5_exp_noRW	112	Rpleas_acq	CS_A	CPPC	YFFY	LWWL	JQQJ	DXXD	ZHHZ	träumen	vertrauen	küssen	genießen	sonnig	gütig	töten	versagen	krank	gemein	sterben	gierig	53pct	acq_USunple_CSunple2_noRW	acq23456_noRW	2	66	0	0	300	300	445	46	0	1	1	blank2r.bmp	0	1	+	0	1	blank2r.bmp	252	1	JQQJ	306	1	gemein	559	0	0	0	0	0	0	0	0	0	0	0	0	0	0	0	0	0	0	0	0	0	0	0	0	0	0	0	0	0	0	0	0	0	0	0	0	0	0	0
082619	10:54:22	10:59:44	322014	5.0.10.0	5_exp_noRW	112	Rpleas_acq	CS_A	CPPC	YFFY	LWWL	JQQJ	DXXD	ZHHZ	träumen	vertrauen	küssen	genießen	sonnig	gütig	töten	versagen	krank	gemein	sterben	gierig	47pct	acq_USunple_CSunple1_noRW	acq23456_noRW	2	67	0	0	300	300	472	46	0	1	1	blank2r.bmp	0	1	+	0	1	blank2r.bmp	252	1	LWWL	306	3	krank	559	0	0	0	0	0	0	0	0	0	0	0	0	0	0	0	0	0	0	0	0	0	0	0	0	0	0	0	0	0	0	0	0	0	0	0	0	0	0	0
082619	10:54:22	10:59:46	323614	5.0.10.0	5_exp_noRW	112	Rpleas_acq	CS_A	CPPC	YFFY	LWWL	JQQJ	DXXD	ZHHZ	träumen	vertrauen	küssen	genießen	sonnig	gütig	töten	versagen	krank	gemein	sterben	gierig	53pct	acq_USunple_CSpleas1_noRW	acq23456_noRW	2	68	0	0	300	300	438	46	0	1	1	blank2r.bmp	0	1	+	0	1	blank2r.bmp	252	1	CPPC	306	3	krank	559	0	0	0	0	0	0	0	0	0	0	0	0	0	0	0	0	0	0	0	0	0	0	0	0	0	0	0	0	0	0	0	0	0	0	0	0	0	0	0
082619	10:54:22	10:59:47	325280	5.0.10.0	5_exp_noRW	112	Rpleas_acq	CS_A	CPPC	YFFY	LWWL	JQQJ	DXXD	ZHHZ	träumen	vertrauen	küssen	genießen	sonnig	gütig	töten	versagen	krank	gemein	sterben	gierig	53pct	acq_USunple_CSunple1_noRW	acq23456_noRW	2	69	0	0	300	300	484	46	0	1	1	blank2r.bmp	0	1	+	0	1	blank2r.bmp	252	1	LWWL	306	1	töten	559	0	0	0	0	0	0	0	0	0	0	0	0	0	0	0	0	0	0	0	0	0	0	0	0	0	0	0	0	0	0	0	0	0	0	0	0	0	0	0
082619	10:54:22	10:59:49	327239	5.0.10.0	5_exp_noRW	112	Rpleas_acq	CS_A	CPPC	YFFY	LWWL	JQQJ	DXXD	ZHHZ	träumen	vertrauen	küssen	genießen	sonnig	gütig	töten	versagen	krank	gemein	sterben	gierig	47pct	acq_USunple_CSunple1_noRW	acq23456_noRW	2	70	0	0	300	300	779	46	0	1	1	blank2r.bmp	0	1	+	0	1	blank2r.bmp	252	1	LWWL	306	3	krank	559	0	0	0	0	0	0	0	0	0	0	0	0	0	0	0	0	0	0	0	0	0	0	0	0	0	0	0	0	0	0	0	0	0	0	0	0	0	0	0
082619	10:54:22	10:59:51	329158	5.0.10.0	5_exp_noRW	112	Rpleas_acq	CS_A	CPPC	YFFY	LWWL	JQQJ	DXXD	ZHHZ	träumen	vertrauen	küssen	genießen	sonnig	gütig	töten	versagen	krank	gemein	sterben	gierig	53pct	acq_USpleas_CSunple2_noRW	acq23456_noRW	2	71	0	0	300	300	754	50	0	1	1	blank2r.bmp	0	1	+	0	1	blank2r.bmp	252	1	JQQJ	306	1	genießen	559	0	0	0	0	0	0	0	0	0	0	0	0	0	0	0	0	0	0	0	0	0	0	0	0	0	0	0	0	0	0	0	0	0	0	0	0	0	0	0
082619	10:54:22	10:59:53	330904	5.0.10.0	5_exp_noRW	112	Rpleas_acq	CS_A	CPPC	YFFY	LWWL	JQQJ	DXXD	ZHHZ	träumen	vertrauen	küssen	genießen	sonnig	gütig	töten	versagen	krank	gemein	sterben	gierig	53pct	acq_USpleas_CSpleas2_noRW	acq23456_noRW	2	72	0	0	300	300	570	50	0	1	1	blank2r.bmp	0	1	+	0	1	blank2r.bmp	252	1	YFFY	306	1	genießen	559	0	0	0	0	0	0	0	0	0	0	0	0	0	0	0	0	0	0	0	0	0	0	0	0	0	0	0	0	0	0	0	0	0	0	0	0	0	0	0
082619	10:54:22	10:59:55	332743	5.0.10.0	5_exp_noRW	112	Rpleas_acq	CS_A	CPPC	YFFY	LWWL	JQQJ	DXXD	ZHHZ	träumen	vertrauen	küssen	genießen	sonnig	gütig	töten	versagen	krank	gemein	sterben	gierig	53pct	acq_USunple_CSunple1_noRW	acq23456_noRW	2	73	0	0	300	300	662	46	0	1	1	blank2r.bmp	0	1	+	0	1	blank2r.bmp	252	1	LWWL	306	1	töten	559	0	0	0	0	0	0	0	0	0	0	0	0	0	0	0	0	0	0	0	0	0	0	0	0	0	0	0	0	0	0	0	0	0	0	0	0	0	0	0
082619	10:54:22	10:59:57	334769	5.0.10.0	5_exp_noRW	112	Rpleas_acq	CS_A	CPPC	YFFY	LWWL	JQQJ	DXXD	ZHHZ	träumen	vertrauen	küssen	genießen	sonnig	gütig	töten	versagen	krank	gemein	sterben	gierig	47pct	acq_USpleas_CSpleas2_noRW	acq23456_noRW	2	74	0	0	300	300	862	50	0	1	1	blank2r.bmp	0	1	+	0	1	blank2r.bmp	252	1	YFFY	306	3	gütig	559	0	0	0	0	0	0	0	0	0	0	0	0	0	0	0	0	0	0	0	0	0	0	0	0	0	0	0	0	0	0	0	0	0	0	0	0	0	0	0
082619	10:54:22	10:59:59	336648	5.0.10.0	5_exp_noRW	112	Rpleas_acq	CS_A	CPPC	YFFY	LWWL	JQQJ	DXXD	ZHHZ	träumen	vertrauen	küssen	genießen	sonnig	gütig	töten	versagen	krank	gemein	sterben	gierig	53pct	acq_USpleas_CSpleas1_noRW	acq23456_noRW	2	75	0	0	300	300	709	50	0	1	1	blank2r.bmp	0	1	+	0	1	blank2r.bmp	252	1	CPPC	306	2	vertrauen	559	0	0	0	0	0	0	0	0	0	0	0	0	0	0	0	0	0	0	0	0	0	0	0	0	0	0	0	0	0	0	0	0	0	0	0	0	0	0	0
082619	10:54:22	11:00:01	338487	5.0.10.0	5_exp_noRW	112	Rpleas_acq	CS_A	CPPC	YFFY	LWWL	JQQJ	DXXD	ZHHZ	träumen	vertrauen	küssen	genießen	sonnig	gütig	töten	versagen	krank	gemein	sterben	gierig	47pct	acq_USpleas_CSpleas2_noRW	acq23456_noRW	2	76	0	0	300	300	672	50	0	1	1	blank2r.bmp	0	1	+	0	1	blank2r.bmp	252	1	YFFY	306	3	gütig	559	0	0	0	0	0	0	0	0	0	0	0	0	0	0	0	0	0	0	0	0	0	0	0	0	0	0	0	0	0	0	0	0	0	0	0	0	0	0	0
082619	10:54:22	11:00:02	340113	5.0.10.0	5_exp_noRW	112	Rpleas_acq	CS_A	CPPC	YFFY	LWWL	JQQJ	DXXD	ZHHZ	träumen	vertrauen	küssen	genießen	sonnig	gütig	töten	versagen	krank	gemein	sterben	gierig	47pct	acq_USunple_CSpleas2_noRW	acq23456_noRW	2	77	0	0	300	300	453	46	0	1	1	blank2r.bmp	0	1	+	0	1	blank2r.bmp	252	1	YFFY	306	2	sterben	559	0	0	0	0	0	0	0	0	0	0	0	0	0	0	0	0	0	0	0	0	0	0	0	0	0	0	0	0	0	0	0	0	0	0	0	0	0	0	0
082619	10:54:22	11:00:04	341819	5.0.10.0	5_exp_noRW	112	Rpleas_acq	CS_A	CPPC	YFFY	LWWL	JQQJ	DXXD	ZHHZ	träumen	vertrauen	küssen	genießen	sonnig	gütig	töten	versagen	krank	gemein	sterben	gierig	53pct	acq_USpleas_CSunple1_noRW	acq23456_noRW	2	78	0	0	300	300	541	50	0	1	1	blank2r.bmp	0	1	+	0	1	blank2r.bmp	252	1	LWWL	306	2	vertrauen	559	0	0	0	0	0	0	0	0	0	0	0	0	0	0	0	0	0	0	0	0	0	0	0	0	0	0	0	0	0	0	0	0	0	0	0	0	0	0	0
082619	10:54:22	11:00:06	343605	5.0.10.0	5_exp_noRW	112	Rpleas_acq	CS_A	CPPC	YFFY	LWWL	JQQJ	DXXD	ZHHZ	träumen	vertrauen	küssen	genießen	sonnig	gütig	töten	versagen	krank	gemein	sterben	gierig	53pct	acq_USpleas_CSpleas2_noRW	acq23456_noRW	2	79	0	0	300	300	606	50	0	1	1	blank2r.bmp	0	1	+	0	1	blank2r.bmp	252	1	YFFY	306	1	genießen	559	0	0	0	0	0	0	0	0	0	0	0	0	0	0	0	0	0	0	0	0	0	0	0	0	0	0	0	0	0	0	0	0	0	0	0	0	0	0	0
082619	10:54:22	11:00:07	345231	5.0.10.0	5_exp_noRW	112	Rpleas_acq	CS_A	CPPC	YFFY	LWWL	JQQJ	DXXD	ZHHZ	träumen	vertrauen	küssen	genießen	sonnig	gütig	töten	versagen	krank	gemein	sterben	gierig	53pct	acq_USpleas_CSpleas1_noRW	acq23456_noRW	2	80	0	0	300	300	447	50	0	1	1	blank2r.bmp	0	1	+	0	1	blank2r.bmp	252	1	CPPC	306	3	küssen	559	0	0	0	0	0	0	0	0	0	0	0	0	0	0	0	0	0	0	0	0	0	0	0	0	0	0	0	0	0	0	0	0	0	0	0	0	0	0	0
082619	10:54:22	11:00:16	354121	5.0.10.0	5_exp_noRW	112	Rpleas_acq	CS_A	CPPC	YFFY	LWWL	JQQJ	DXXD	ZHHZ	träumen	vertrauen	küssen	genießen	sonnig	gütig	töten	versagen	krank	gemein	sterben	gierig	47pct	acq_USpleas_CSpleas2_noRW	acq23456_noRW	3	1	0	0	300	300	502	50	0	1	1	blank2r.bmp	0	1	+	0	1	blank2r.bmp	252	1	YFFY	306	2	sonnig	559	0	0	0	0	0	0	0	0	0	0	0	0	0	0	0	0	0	0	0	0	0	0	0	0	0	0	0	0	0	0	0	0	0	0	0	0	0	0	0
082619	10:54:22	11:00:18	355920	5.0.10.0	5_exp_noRW	112	Rpleas_acq	CS_A	CPPC	YFFY	LWWL	JQQJ	DXXD	ZHHZ	träumen	vertrauen	küssen	genießen	sonnig	gütig	töten	versagen	krank	gemein	sterben	gierig	47pct	acq_USpleas_CSpleas2_noRW	acq23456_noRW	3	2	0	0	300	300	624	50	0	1	1	blank2r.bmp	0	1	+	0	1	blank2r.bmp	252	1	YFFY	306	1	genießen	559	0	0	0	0	0	0	0	0	0	0	0	0	0	0	0	0	0	0	0	0	0	0	0	0	0	0	0	0	0	0	0	0	0	0	0	0	0	0	0
082619	10:54:22	11:00:20	357613	5.0.10.0	5_exp_noRW	112	Rpleas_acq	CS_A	CPPC	YFFY	LWWL	JQQJ	DXXD	ZHHZ	träumen	vertrauen	küssen	genießen	sonnig	gütig	töten	versagen	krank	gemein	sterben	gierig	47pct	acq_USunple_CSunple2_noRW	acq23456_noRW	3	3	0	0	300	300	507	46	0	1	1	blank2r.bmp	0	1	+	0	1	blank2r.bmp	252	1	JQQJ	306	3	gierig	559	0	0	0	0	0	0	0	0	0	0	0	0	0	0	0	0	0	0	0	0	0	0	0	0	0	0	0	0	0	0	0	0	0	0	0	0	0	0	0
082619	10:54:22	11:00:21	359319	5.0.10.0	5_exp_noRW	112	Rpleas_acq	CS_A	CPPC	YFFY	LWWL	JQQJ	DXXD	ZHHZ	träumen	vertrauen	küssen	genießen	sonnig	gütig	töten	versagen	krank	gemein	sterben	gierig	53pct	acq_USunple_CSunple1_noRW	acq23456_noRW	3	4	0	0	300	300	540	46	0	1	1	blank2r.bmp	0	1	+	0	1	blank2r.bmp	252	1	LWWL	306	2	versagen	559	0	0	0	0	0	0	0	0	0	0	0	0	0	0	0	0	0	0	0	0	0	0	0	0	0	0	0	0	0	0	0	0	0	0	0	0	0	0	0
082619	10:54:22	11:00:24	361518	5.0.10.0	5_exp_noRW	112	Rpleas_acq	CS_A	CPPC	YFFY	LWWL	JQQJ	DXXD	ZHHZ	träumen	vertrauen	küssen	genießen	sonnig	gütig	töten	versagen	krank	gemein	sterben	gierig	47pct	acq_USunple_CSunple2_noRW	acq23456_noRW	3	5	0	0	300	300	1022	46	0	1	1	blank2r.bmp	0	1	+	0	1	blank2r.bmp	252	1	JQQJ	306	3	gierig	559	0	0	0	0	0	0	0	0	0	0	0	0	0	0	0	0	0	0	0	0	0	0	0	0	0	0	0	0	0	0	0	0	0	0	0	0	0	0	0
082619	10:54:22	11:00:25	363157	5.0.10.0	5_exp_noRW	112	Rpleas_acq	CS_A	CPPC	YFFY	LWWL	JQQJ	DXXD	ZHHZ	träumen	vertrauen	küssen	genießen	sonnig	gütig	töten	versagen	krank	gemein	sterben	gierig	53pct	acq_USpleas_CSpleas1_noRW	acq23456_noRW	3	6	0	0	300	300	458	50	0	1	1	blank2r.bmp	0	1	+	0	1	blank2r.bmp	252	1	CPPC	306	1	träumen	559	0	0	0	0	0	0	0	0	0	0	0	0	0	0	0	0	0	0	0	0	0	0	0	0	0	0	0	0	0	0	0	0	0	0	0	0	0	0	0
082619	10:54:22	11:00:27	364810	5.0.10.0	5_exp_noRW	112	Rpleas_acq	CS_A	CPPC	YFFY	LWWL	JQQJ	DXXD	ZHHZ	träumen	vertrauen	küssen	genießen	sonnig	gütig	töten	versagen	krank	gemein	sterben	gierig	47pct	acq_USpleas_CSpleas1_noRW	acq23456_noRW	3	7	0	0	300	300	472	50	0	1	1	blank2r.bmp	0	1	+	0	1	blank2r.bmp	252	1	CPPC	306	2	vertrauen	559	0	0	0	0	0	0	0	0	0	0	0	0	0	0	0	0	0	0	0	0	0	0	0	0	0	0	0	0	0	0	0	0	0	0	0	0	0	0	0
082619	10:54:22	11:00:29	366463	5.0.10.0	5_exp_noRW	112	Rpleas_acq	CS_A	CPPC	YFFY	LWWL	JQQJ	DXXD	ZHHZ	träumen	vertrauen	küssen	genießen	sonnig	gütig	töten	versagen	krank	gemein	sterben	gierig	47pct	acq_USpleas_CSpleas2_noRW	acq23456_noRW	3	8	0	0	300	300	473	50	0	1	1	blank2r.bmp	0	1	+	0	1	blank2r.bmp	252	1	YFFY	306	2	sonnig	559	0	0	0	0	0	0	0	0	0	0	0	0	0	0	0	0	0	0	0	0	0	0	0	0	0	0	0	0	0	0	0	0	0	0	0	0	0	0	0
082619	10:54:22	11:00:31	368395	5.0.10.0	5_exp_noRW	112	Rpleas_acq	CS_A	CPPC	YFFY	LWWL	JQQJ	DXXD	ZHHZ	träumen	vertrauen	küssen	genießen	sonnig	gütig	töten	versagen	krank	gemein	sterben	gierig	47pct	acq_USunple_CSunple1_noRW	acq23456_noRW	3	9	0	0	300	300	537	50	0	0	1	blank2r.bmp	0	1	+	0	1	blank2r.bmp	252	1	LWWL	306	2	versagen	559	1	FEHLER	1132	0	0	0	0	0	0	0	0	0	0	0	0	0	0	0	0	0	0	0	0	0	0	0	0	0	0	0	0	0	0	0	0	0	0	0	0
082619	10:54:22	11:00:32	369981	5.0.10.0	5_exp_noRW	112	Rpleas_acq	CS_A	CPPC	YFFY	LWWL	JQQJ	DXXD	ZHHZ	träumen	vertrauen	küssen	genießen	sonnig	gütig	töten	versagen	krank	gemein	sterben	gierig	53pct	acq_USunple_CSunple2_noRW	acq23456_noRW	3	10	0	0	300	300	612	46	0	1	1	blank2r.bmp	0	1	+	0	1	blank2r.bmp	252	1	JQQJ	306	1	gemein	559	0	0	0	0	0	0	0	0	0	0	0	0	0	0	0	0	0	0	0	0	0	0	0	0	0	0	0	0	0	0	0	0	0	0	0	0	0	0	0
082619	10:54:22	11:00:34	371634	5.0.10.0	5_exp_noRW	112	Rpleas_acq	CS_A	CPPC	YFFY	LWWL	JQQJ	DXXD	ZHHZ	träumen	vertrauen	küssen	genießen	sonnig	gütig	töten	versagen	krank	gemein	sterben	gierig	53pct	acq_USunple_CSpleas2_noRW	acq23456_noRW	3	11	0	0	300	300	482	46	0	1	1	blank2r.bmp	0	1	+	0	1	blank2r.bmp	252	1	YFFY	306	1	gemein	559	0	0	0	0	0	0	0	0	0	0	0	0	0	0	0	0	0	0	0	0	0	0	0	0	0	0	0	0	0	0	0	0	0	0	0	0	0	0	0
082619	10:54:22	11:00:35	373233	5.0.10.0	5_exp_noRW	112	Rpleas_acq	CS_A	CPPC	YFFY	LWWL	JQQJ	DXXD	ZHHZ	träumen	vertrauen	küssen	genießen	sonnig	gütig	töten	versagen	krank	gemein	sterben	gierig	53pct	acq_USunple_CSunple1_noRW	acq23456_noRW	3	12	0	0	300	300	433	46	0	1	1	blank2r.bmp	0	1	+	0	1	blank2r.bmp	252	1	LWWL	306	1	töten	559	0	0	0	0	0	0	0	0	0	0	0	0	0	0	0	0	0	0	0	0	0	0	0	0	0	0	0	0	0	0	0	0	0	0	0	0	0	0	0
082619	10:54:22	11:00:37	374886	5.0.10.0	5_exp_noRW	112	Rpleas_acq	CS_A	CPPC	YFFY	LWWL	JQQJ	DXXD	ZHHZ	träumen	vertrauen	küssen	genießen	sonnig	gütig	töten	versagen	krank	gemein	sterben	gierig	53pct	acq_USpleas_CSpleas1_noRW	acq23456_noRW	3	13	0	0	300	300	474	50	0	1	1	blank2r.bmp	0	1	+	0	1	blank2r.bmp	252	1	CPPC	306	1	träumen	559	0	0	0	0	0	0	0	0	0	0	0	0	0	0	0	0	0	0	0	0	0	0	0	0	0	0	0	0	0	0	0	0	0	0	0	0	0	0	0
082619	10:54:22	11:00:39	376605	5.0.10.0	5_exp_noRW	112	Rpleas_acq	CS_A	CPPC	YFFY	LWWL	JQQJ	DXXD	ZHHZ	träumen	vertrauen	küssen	genießen	sonnig	gütig	töten	versagen	krank	gemein	sterben	gierig	47pct	acq_USunple_CSpleas1_noRW	acq23456_noRW	3	14	0	0	300	300	537	46	0	1	1	blank2r.bmp	0	1	+	0	1	blank2r.bmp	252	1	CPPC	306	2	versagen	559	0	0	0	0	0	0	0	0	0	0	0	0	0	0	0	0	0	0	0	0	0	0	0	0	0	0	0	0	0	0	0	0	0	0	0	0	0	0	0
082619	10:54:22	11:00:40	378218	5.0.10.0	5_exp_noRW	112	Rpleas_acq	CS_A	CPPC	YFFY	LWWL	JQQJ	DXXD	ZHHZ	träumen	vertrauen	küssen	genießen	sonnig	gütig	töten	versagen	krank	gemein	sterben	gierig	53pct	acq_USpleas_CSpleas1_noRW	acq23456_noRW	3	15	0	0	300	300	435	50	0	1	1	blank2r.bmp	0	1	+	0	1	blank2r.bmp	252	1	CPPC	306	3	küssen	559	0	0	0	0	0	0	0	0	0	0	0	0	0	0	0	0	0	0	0	0	0	0	0	0	0	0	0	0	0	0	0	0	0	0	0	0	0	0	0
082619	10:54:22	11:00:42	380084	5.0.10.0	5_exp_noRW	112	Rpleas_acq	CS_A	CPPC	YFFY	LWWL	JQQJ	DXXD	ZHHZ	träumen	vertrauen	küssen	genießen	sonnig	gütig	töten	versagen	krank	gemein	sterben	gierig	53pct	acq_USunple_CSunple1_noRW	acq23456_noRW	3	16	0	0	300	300	684	46	0	1	1	blank2r.bmp	0	1	+	0	1	blank2r.bmp	252	1	LWWL	306	3	krank	559	0	0	0	0	0	0	0	0	0	0	0	0	0	0	0	0	0	0	0	0	0	0	0	0	0	0	0	0	0	0	0	0	0	0	0	0	0	0	0
082619	10:54:22	11:00:44	381910	5.0.10.0	5_exp_noRW	112	Rpleas_acq	CS_A	CPPC	YFFY	LWWL	JQQJ	DXXD	ZHHZ	träumen	vertrauen	küssen	genießen	sonnig	gütig	töten	versagen	krank	gemein	sterben	gierig	53pct	acq_USpleas_CSpleas2_noRW	acq23456_noRW	3	17	0	0	300	300	648	50	0	1	1	blank2r.bmp	0	1	+	0	1	blank2r.bmp	252	1	YFFY	306	3	gütig	559	0	0	0	0	0	0	0	0	0	0	0	0	0	0	0	0	0	0	0	0	0	0	0	0	0	0	0	0	0	0	0	0	0	0	0	0	0	0	0
082619	10:54:22	11:00:46	383602	5.0.10.0	5_exp_noRW	112	Rpleas_acq	CS_A	CPPC	YFFY	LWWL	JQQJ	DXXD	ZHHZ	träumen	vertrauen	küssen	genießen	sonnig	gütig	töten	versagen	krank	gemein	sterben	gierig	47pct	acq_USpleas_CSunple2_noRW	acq23456_noRW	3	18	0	0	300	300	505	50	0	1	1	blank2r.bmp	0	1	+	0	1	blank2r.bmp	252	1	JQQJ	306	2	sonnig	559	0	0	0	0	0	0	0	0	0	0	0	0	0	0	0	0	0	0	0	0	0	0	0	0	0	0	0	0	0	0	0	0	0	0	0	0	0	0	0
082619	10:54:22	11:00:47	385215	5.0.10.0	5_exp_noRW	112	Rpleas_acq	CS_A	CPPC	YFFY	LWWL	JQQJ	DXXD	ZHHZ	träumen	vertrauen	küssen	genießen	sonnig	gütig	töten	versagen	krank	gemein	sterben	gierig	47pct	acq_USunple_CSunple2_noRW	acq23456_noRW	3	19	0	0	300	300	441	46	0	1	1	blank2r.bmp	0	1	+	0	1	blank2r.bmp	252	1	JQQJ	306	2	sterben	559	0	0	0	0	0	0	0	0	0	0	0	0	0	0	0	0	0	0	0	0	0	0	0	0	0	0	0	0	0	0	0	0	0	0	0	0	0	0	0
082619	10:54:22	11:00:49	386814	5.0.10.0	5_exp_noRW	112	Rpleas_acq	CS_A	CPPC	YFFY	LWWL	JQQJ	DXXD	ZHHZ	träumen	vertrauen	küssen	genießen	sonnig	gütig	töten	versagen	krank	gemein	sterben	gierig	47pct	acq_USpleas_CSunple1_noRW	acq23456_noRW	3	20	0	0	300	300	424	50	0	1	1	blank2r.bmp	0	1	+	0	1	blank2r.bmp	252	1	LWWL	306	1	träumen	559	0	0	0	0	0	0	0	0	0	0	0	0	0	0	0	0	0	0	0	0	0	0	0	0	0	0	0	0	0	0	0	0	0	0	0	0	0	0	0
082619	10:54:22	11:00:51	388480	5.0.10.0	5_exp_noRW	112	Rpleas_acq	CS_A	CPPC	YFFY	LWWL	JQQJ	DXXD	ZHHZ	träumen	vertrauen	küssen	genießen	sonnig	gütig	töten	versagen	krank	gemein	sterben	gierig	47pct	acq_USunple_CSunple2_noRW	acq23456_noRW	3	21	0	0	300	300	483	46	0	1	1	blank2r.bmp	0	1	+	0	1	blank2r.bmp	252	1	JQQJ	306	2	sterben	559	0	0	0	0	0	0	0	0	0	0	0	0	0	0	0	0	0	0	0	0	0	0	0	0	0	0	0	0	0	0	0	0	0	0	0	0	0	0	0
082619	10:54:22	11:00:52	390173	5.0.10.0	5_exp_noRW	112	Rpleas_acq	CS_A	CPPC	YFFY	LWWL	JQQJ	DXXD	ZHHZ	träumen	vertrauen	küssen	genießen	sonnig	gütig	töten	versagen	krank	gemein	sterben	gierig	53pct	acq_USunple_CSunple1_noRW	acq23456_noRW	3	22	0	0	300	300	527	46	0	1	1	blank2r.bmp	0	1	+	0	1	blank2r.bmp	252	1	LWWL	306	1	töten	559	0	0	0	0	0	0	0	0	0	0	0	0	0	0	0	0	0	0	0	0	0	0	0	0	0	0	0	0	0	0	0	0	0	0	0	0	0	0	0
082619	10:54:22	11:00:54	391746	5.0.10.0	5_exp_noRW	112	Rpleas_acq	CS_A	CPPC	YFFY	LWWL	JQQJ	DXXD	ZHHZ	träumen	vertrauen	küssen	genießen	sonnig	gütig	töten	versagen	krank	gemein	sterben	gierig	53pct	acq_USunple_CSunple2_noRW	acq23456_noRW	3	23	0	0	300	300	394	46	0	1	1	blank2r.bmp	0	1	+	0	1	blank2r.bmp	252	1	JQQJ	306	3	gierig	559	0	0	0	0	0	0	0	0	0	0	0	0	0	0	0	0	0	0	0	0	0	0	0	0	0	0	0	0	0	0	0	0	0	0	0	0	0	0	0
082619	10:54:22	11:00:56	393852	5.0.10.0	5_exp_noRW	112	Rpleas_acq	CS_A	CPPC	YFFY	LWWL	JQQJ	DXXD	ZHHZ	träumen	vertrauen	küssen	genießen	sonnig	gütig	töten	versagen	krank	gemein	sterben	gierig	53pct	acq_USunple_CSunple1_noRW	acq23456_noRW	3	24	0	0	300	300	918	46	0	1	1	blank2r.bmp	0	1	+	0	1	blank2r.bmp	252	1	LWWL	306	2	versagen	559	0	0	0	0	0	0	0	0	0	0	0	0	0	0	0	0	0	0	0	0	0	0	0	0	0	0	0	0	0	0	0	0	0	0	0	0	0	0	0
082619	10:54:22	11:00:58	395531	5.0.10.0	5_exp_noRW	112	Rpleas_acq	CS_A	CPPC	YFFY	LWWL	JQQJ	DXXD	ZHHZ	träumen	vertrauen	küssen	genießen	sonnig	gütig	töten	versagen	krank	gemein	sterben	gierig	47pct	acq_USpleas_CSpleas2_noRW	acq23456_noRW	3	25	0	0	300	300	508	50	0	1	1	blank2r.bmp	0	1	+	0	1	blank2r.bmp	252	1	YFFY	306	1	genießen	559	0	0	0	0	0	0	0	0	0	0	0	0	0	0	0	0	0	0	0	0	0	0	0	0	0	0	0	0	0	0	0	0	0	0	0	0	0	0	0
082619	10:54:22	11:00:59	397197	5.0.10.0	5_exp_noRW	112	Rpleas_acq	CS_A	CPPC	YFFY	LWWL	JQQJ	DXXD	ZHHZ	träumen	vertrauen	küssen	genießen	sonnig	gütig	töten	versagen	krank	gemein	sterben	gierig	47pct	acq_USunple_CSpleas2_noRW	acq23456_noRW	3	26	0	0	300	300	495	46	0	1	1	blank2r.bmp	0	1	+	0	1	blank2r.bmp	252	1	YFFY	306	2	sterben	559	0	0	0	0	0	0	0	0	0	0	0	0	0	0	0	0	0	0	0	0	0	0	0	0	0	0	0	0	0	0	0	0	0	0	0	0	0	0	0
082619	10:54:22	11:01:01	399143	5.0.10.0	5_exp_noRW	112	Rpleas_acq	CS_A	CPPC	YFFY	LWWL	JQQJ	DXXD	ZHHZ	träumen	vertrauen	küssen	genießen	sonnig	gütig	töten	versagen	krank	gemein	sterben	gierig	53pct	acq_USpleas_CSpleas1_noRW	acq23456_noRW	3	27	0	0	300	300	770	50	0	1	1	blank2r.bmp	0	1	+	0	1	blank2r.bmp	252	1	CPPC	306	2	vertrauen	559	0	0	0	0	0	0	0	0	0	0	0	0	0	0	0	0	0	0	0	0	0	0	0	0	0	0	0	0	0	0	0	0	0	0	0	0	0	0	0
082619	10:54:22	11:01:03	400889	5.0.10.0	5_exp_noRW	112	Rpleas_acq	CS_A	CPPC	YFFY	LWWL	JQQJ	DXXD	ZHHZ	träumen	vertrauen	küssen	genießen	sonnig	gütig	töten	versagen	krank	gemein	sterben	gierig	53pct	acq_USpleas_CSunple2_noRW	acq23456_noRW	3	28	0	0	300	300	569	50	0	1	1	blank2r.bmp	0	1	+	0	1	blank2r.bmp	252	1	JQQJ	306	1	genießen	559	0	0	0	0	0	0	0	0	0	0	0	0	0	0	0	0	0	0	0	0	0	0	0	0	0	0	0	0	0	0	0	0	0	0	0	0	0	0	0
082619	10:54:22	11:01:05	402461	5.0.10.0	5_exp_noRW	112	Rpleas_acq	CS_A	CPPC	YFFY	LWWL	JQQJ	DXXD	ZHHZ	träumen	vertrauen	küssen	genießen	sonnig	gütig	töten	versagen	krank	gemein	sterben	gierig	53pct	acq_USunple_CSunple1_noRW	acq23456_noRW	3	29	0	0	300	300	386	46	0	1	1	blank2r.bmp	0	1	+	0	1	blank2r.bmp	252	1	LWWL	306	3	krank	559	0	0	0	0	0	0	0	0	0	0	0	0	0	0	0	0	0	0	0	0	0	0	0	0	0	0	0	0	0	0	0	0	0	0	0	0	0	0	0
082619	10:54:22	11:01:06	404087	5.0.10.0	5_exp_noRW	112	Rpleas_acq	CS_A	CPPC	YFFY	LWWL	JQQJ	DXXD	ZHHZ	träumen	vertrauen	küssen	genießen	sonnig	gütig	töten	versagen	krank	gemein	sterben	gierig	47pct	acq_USpleas_CSpleas2_noRW	acq23456_noRW	3	30	0	0	300	300	455	50	0	1	1	blank2r.bmp	0	1	+	0	1	blank2r.bmp	252	1	YFFY	306	2	sonnig	559	0	0	0	0	0	0	0	0	0	0	0	0	0	0	0	0	0	0	0	0	0	0	0	0	0	0	0	0	0	0	0	0	0	0	0	0	0	0	0
082619	10:54:22	11:01:08	406033	5.0.10.0	5_exp_noRW	112	Rpleas_acq	CS_A	CPPC	YFFY	LWWL	JQQJ	DXXD	ZHHZ	träumen	vertrauen	küssen	genießen	sonnig	gütig	töten	versagen	krank	gemein	sterben	gierig	47pct	acq_USpleas_CSpleas2_noRW	acq23456_noRW	3	31	0	0	300	300	775	50	0	1	1	blank2r.bmp	0	1	+	0	1	blank2r.bmp	252	1	YFFY	306	3	gütig	559	0	0	0	0	0	0	0	0	0	0	0	0	0	0	0	0	0	0	0	0	0	0	0	0	0	0	0	0	0	0	0	0	0	0	0	0	0	0	0
082619	10:54:22	11:01:10	407926	5.0.10.0	5_exp_noRW	112	Rpleas_acq	CS_A	CPPC	YFFY	LWWL	JQQJ	DXXD	ZHHZ	träumen	vertrauen	küssen	genießen	sonnig	gütig	töten	versagen	krank	gemein	sterben	gierig	53pct	acq_USunple_CSunple2_noRW	acq23456_noRW	3	32	0	0	300	300	721	46	0	1	1	blank2r.bmp	0	1	+	0	1	blank2r.bmp	252	1	JQQJ	306	1	gemein	559	0	0	0	0	0	0	0	0	0	0	0	0	0	0	0	0	0	0	0	0	0	0	0	0	0	0	0	0	0	0	0	0	0	0	0	0	0	0	0
082619	10:54:22	11:01:12	409832	5.0.10.0	5_exp_noRW	112	Rpleas_acq	CS_A	CPPC	YFFY	LWWL	JQQJ	DXXD	ZHHZ	träumen	vertrauen	küssen	genießen	sonnig	gütig	töten	versagen	krank	gemein	sterben	gierig	47pct	acq_USpleas_CSpleas1_noRW	acq23456_noRW	3	33	0	0	300	300	733	50	0	1	1	blank2r.bmp	0	1	+	0	1	blank2r.bmp	252	1	CPPC	306	3	küssen	559	0	0	0	0	0	0	0	0	0	0	0	0	0	0	0	0	0	0	0	0	0	0	0	0	0	0	0	0	0	0	0	0	0	0	0	0	0	0	0
082619	10:54:22	11:01:14	411604	5.0.10.0	5_exp_noRW	112	Rpleas_acq	CS_A	CPPC	YFFY	LWWL	JQQJ	DXXD	ZHHZ	träumen	vertrauen	küssen	genießen	sonnig	gütig	töten	versagen	krank	gemein	sterben	gierig	53pct	acq_USunple_CSunple2_noRW	acq23456_noRW	3	34	0	0	300	300	603	46	0	1	1	blank2r.bmp	0	1	+	0	1	blank2r.bmp	252	1	JQQJ	306	3	gierig	559	0	0	0	0	0	0	0	0	0	0	0	0	0	0	0	0	0	0	0	0	0	0	0	0	0	0	0	0	0	0	0	0	0	0	0	0	0	0	0
082619	10:54:22	11:01:16	413364	5.0.10.0	5_exp_noRW	112	Rpleas_acq	CS_A	CPPC	YFFY	LWWL	JQQJ	DXXD	ZHHZ	träumen	vertrauen	küssen	genießen	sonnig	gütig	töten	versagen	krank	gemein	sterben	gierig	53pct	acq_USunple_CSpleas1_noRW	acq23456_noRW	3	35	0	0	300	300	586	46	0	1	1	blank2r.bmp	0	1	+	0	1	blank2r.bmp	252	1	CPPC	306	1	töten	559	0	0	0	0	0	0	0	0	0	0	0	0	0	0	0	0	0	0	0	0	0	0	0	0	0	0	0	0	0	0	0	0	0	0	0	0	0	0	0
082619	10:54:22	11:01:17	415203	5.0.10.0	5_exp_noRW	112	Rpleas_acq	CS_A	CPPC	YFFY	LWWL	JQQJ	DXXD	ZHHZ	träumen	vertrauen	küssen	genießen	sonnig	gütig	töten	versagen	krank	gemein	sterben	gierig	47pct	acq_USpleas_CSpleas1_noRW	acq23456_noRW	3	36	0	0	300	300	669	50	0	1	1	blank2r.bmp	0	1	+	0	1	blank2r.bmp	252	1	CPPC	306	1	träumen	559	0	0	0	0	0	0	0	0	0	0	0	0	0	0	0	0	0	0	0	0	0	0	0	0	0	0	0	0	0	0	0	0	0	0	0	0	0	0	0
082619	10:54:22	11:01:19	417055	5.0.10.0	5_exp_noRW	112	Rpleas_acq	CS_A	CPPC	YFFY	LWWL	JQQJ	DXXD	ZHHZ	träumen	vertrauen	küssen	genießen	sonnig	gütig	töten	versagen	krank	gemein	sterben	gierig	53pct	acq_USpleas_CSunple1_noRW	acq23456_noRW	3	37	0	0	300	300	691	50	0	1	1	blank2r.bmp	0	1	+	0	1	blank2r.bmp	252	1	LWWL	306	2	vertrauen	559	0	0	0	0	0	0	0	0	0	0	0	0	0	0	0	0	0	0	0	0	0	0	0	0	0	0	0	0	0	0	0	0	0	0	0	0	0	0	0
082619	10:54:22	11:01:21	418735	5.0.10.0	5_exp_noRW	112	Rpleas_acq	CS_A	CPPC	YFFY	LWWL	JQQJ	DXXD	ZHHZ	träumen	vertrauen	küssen	genießen	sonnig	gütig	töten	versagen	krank	gemein	sterben	gierig	47pct	acq_USpleas_CSpleas1_noRW	acq23456_noRW	3	38	0	0	300	300	493	50	0	1	1	blank2r.bmp	0	1	+	0	1	blank2r.bmp	252	1	CPPC	306	1	träumen	559	0	0	0	0	0	0	0	0	0	0	0	0	0	0	0	0	0	0	0	0	0	0	0	0	0	0	0	0	0	0	0	0	0	0	0	0	0	0	0
082619	10:54:22	11:01:23	420494	5.0.10.0	5_exp_noRW	112	Rpleas_acq	CS_A	CPPC	YFFY	LWWL	JQQJ	DXXD	ZHHZ	träumen	vertrauen	küssen	genießen	sonnig	gütig	töten	versagen	krank	gemein	sterben	gierig	47pct	acq_USunple_CSunple1_noRW	acq23456_noRW	3	39	0	0	300	300	587	46	0	1	1	blank2r.bmp	0	1	+	0	1	blank2r.bmp	252	1	LWWL	306	2	versagen	559	0	0	0	0	0	0	0	0	0	0	0	0	0	0	0	0	0	0	0	0	0	0	0	0	0	0	0	0	0	0	0	0	0	0	0	0	0	0	0
082619	10:54:22	11:01:24	422240	5.0.10.0	5_exp_noRW	112	Rpleas_acq	CS_A	CPPC	YFFY	LWWL	JQQJ	DXXD	ZHHZ	träumen	vertrauen	küssen	genießen	sonnig	gütig	töten	versagen	krank	gemein	sterben	gierig	47pct	acq_USpleas_CSpleas2_noRW	acq23456_noRW	3	40	0	0	300	300	576	50	0	1	1	blank2r.bmp	0	1	+	0	1	blank2r.bmp	252	1	YFFY	306	2	sonnig	559	0	0	0	0	0	0	0	0	0	0	0	0	0	0	0	0	0	0	0	0	0	0	0	0	0	0	0	0	0	0	0	0	0	0	0	0	0	0	0
082619	10:54:22	11:01:26	423959	5.0.10.0	5_exp_noRW	112	Rpleas_acq	CS_A	CPPC	YFFY	LWWL	JQQJ	DXXD	ZHHZ	träumen	vertrauen	küssen	genießen	sonnig	gütig	töten	versagen	krank	gemein	sterben	gierig	47pct	acq_USpleas_CSpleas2_noRW	acq23456_noRW	3	41	0	0	300	300	551	50	0	1	1	blank2r.bmp	0	1	+	0	1	blank2r.bmp	252	1	YFFY	306	3	gütig	559	0	0	0	0	0	0	0	0	0	0	0	0	0	0	0	0	0	0	0	0	0	0	0	0	0	0	0	0	0	0	0	0	0	0	0	0	0	0	0
082619	10:54:22	11:01:28	425732	5.0.10.0	5_exp_noRW	112	Rpleas_acq	CS_A	CPPC	YFFY	LWWL	JQQJ	DXXD	ZHHZ	träumen	vertrauen	küssen	genießen	sonnig	gütig	töten	versagen	krank	gemein	sterben	gierig	53pct	acq_USpleas_CSunple1_noRW	acq23456_noRW	3	42	0	0	300	300	606	50	0	1	1	blank2r.bmp	0	1	+	0	1	blank2r.bmp	252	1	LWWL	306	1	träumen	559	0	0	0	0	0	0	0	0	0	0	0	0	0	0	0	0	0	0	0	0	0	0	0	0	0	0	0	0	0	0	0	0	0	0	0	0	0	0	0
082619	10:54:22	11:01:30	427491	5.0.10.0	5_exp_noRW	112	Rpleas_acq	CS_A	CPPC	YFFY	LWWL	JQQJ	DXXD	ZHHZ	träumen	vertrauen	küssen	genießen	sonnig	gütig	töten	versagen	krank	gemein	sterben	gierig	47pct	acq_USunple_CSunple1_noRW	acq23456_noRW	3	43	0	0	300	300	585	46	0	1	1	blank2r.bmp	0	1	+	0	1	blank2r.bmp	252	1	LWWL	306	1	töten	559	0	0	0	0	0	0	0	0	0	0	0	0	0	0	0	0	0	0	0	0	0	0	0	0	0	0	0	0	0	0	0	0	0	0	0	0	0	0	0
082619	10:54:22	11:01:33	431170	5.0.10.0	5_exp_noRW	112	Rpleas_acq	CS_A	CPPC	YFFY	LWWL	JQQJ	DXXD	ZHHZ	träumen	vertrauen	küssen	genießen	sonnig	gütig	töten	versagen	krank	gemein	sterben	gierig	47pct	acq_USpleas_CSpleas2_noRW	acq23456_noRW	3	44	0	0	300	300	2000	0	0	0	1	blank2r.bmp	0	1	+	0	1	blank2r.bmp	252	1	YFFY	306	1	genießen	559	1	FEHLER	2598	1	Schneller!	2598	0	0	0	0	0	0	0	0	0	0	0	0	0	0	0	0	0	0	0	0	0	0	0	0	0	0	0	0	0	0	0	0	0
082619	10:54:22	11:01:35	432516	5.0.10.0	5_exp_noRW	112	Rpleas_acq	CS_A	CPPC	YFFY	LWWL	JQQJ	DXXD	ZHHZ	träumen	vertrauen	küssen	genießen	sonnig	gütig	töten	versagen	krank	gemein	sterben	gierig	53pct	acq_USunple_CSunple1_noRW	acq23456_noRW	3	45	0	0	300	300	441	46	0	1	1	blank2r.bmp	0	1	+	0	1	blank2r.bmp	252	1	LWWL	306	3	krank	559	0	0	0	0	0	0	0	0	0	0	0	0	0	0	0	0	0	0	0	0	0	0	0	0	0	0	0	0	0	0	0	0	0	0	0	0	0	0	0
082619	10:54:22	11:01:36	434102	5.0.10.0	5_exp_noRW	112	Rpleas_acq	CS_A	CPPC	YFFY	LWWL	JQQJ	DXXD	ZHHZ	träumen	vertrauen	küssen	genießen	sonnig	gütig	töten	versagen	krank	gemein	sterben	gierig	53pct	acq_USpleas_CSpleas1_noRW	acq23456_noRW	3	46	0	0	300	300	408	50	0	1	1	blank2r.bmp	0	1	+	0	1	blank2r.bmp	252	1	CPPC	306	3	küssen	559	0	0	0	0	0	0	0	0	0	0	0	0	0	0	0	0	0	0	0	0	0	0	0	0	0	0	0	0	0	0	0	0	0	0	0	0	0	0	0
082619	10:54:22	11:01:38	435834	5.0.10.0	5_exp_noRW	112	Rpleas_acq	CS_A	CPPC	YFFY	LWWL	JQQJ	DXXD	ZHHZ	träumen	vertrauen	küssen	genießen	sonnig	gütig	töten	versagen	krank	gemein	sterben	gierig	47pct	acq_USpleas_CSpleas1_noRW	acq23456_noRW	3	47	0	0	300	300	555	50	0	1	1	blank2r.bmp	0	1	+	0	1	blank2r.bmp	252	1	CPPC	306	2	vertrauen	559	0	0	0	0	0	0	0	0	0	0	0	0	0	0	0	0	0	0	0	0	0	0	0	0	0	0	0	0	0	0	0	0	0	0	0	0	0	0	0
082619	10:54:22	11:01:40	437567	5.0.10.0	5_exp_noRW	112	Rpleas_acq	CS_A	CPPC	YFFY	LWWL	JQQJ	DXXD	ZHHZ	träumen	vertrauen	küssen	genießen	sonnig	gütig	töten	versagen	krank	gemein	sterben	gierig	47pct	acq_USunple_CSunple1_noRW	acq23456_noRW	3	48	0	0	300	300	339	50	0	0	1	blank2r.bmp	0	1	+	0	1	blank2r.bmp	252	1	LWWL	306	3	krank	559	1	FEHLER	932	0	0	0	0	0	0	0	0	0	0	0	0	0	0	0	0	0	0	0	0	0	0	0	0	0	0	0	0	0	0	0	0	0	0	0	0
082619	10:54:22	11:01:41	439073	5.0.10.0	5_exp_noRW	112	Rpleas_acq	CS_A	CPPC	YFFY	LWWL	JQQJ	DXXD	ZHHZ	träumen	vertrauen	küssen	genießen	sonnig	gütig	töten	versagen	krank	gemein	sterben	gierig	47pct	acq_USunple_CSunple1_noRW	acq23456_noRW	3	49	0	0	300	300	545	46	0	1	1	blank2r.bmp	0	1	+	0	1	blank2r.bmp	252	1	LWWL	306	2	versagen	559	0	0	0	0	0	0	0	0	0	0	0	0	0	0	0	0	0	0	0	0	0	0	0	0	0	0	0	0	0	0	0	0	0	0	0	0	0	0	0
082619	10:54:22	11:01:43	440646	5.0.10.0	5_exp_noRW	112	Rpleas_acq	CS_A	CPPC	YFFY	LWWL	JQQJ	DXXD	ZHHZ	träumen	vertrauen	küssen	genießen	sonnig	gütig	töten	versagen	krank	gemein	sterben	gierig	47pct	acq_USunple_CSunple2_noRW	acq23456_noRW	3	50	0	0	300	300	404	46	0	1	1	blank2r.bmp	0	1	+	0	1	blank2r.bmp	252	1	JQQJ	306	2	sterben	559	0	0	0	0	0	0	0	0	0	0	0	0	0	0	0	0	0	0	0	0	0	0	0	0	0	0	0	0	0	0	0	0	0	0	0	0	0	0	0
082619	10:54:22	11:01:45	442352	5.0.10.0	5_exp_noRW	112	Rpleas_acq	CS_A	CPPC	YFFY	LWWL	JQQJ	DXXD	ZHHZ	träumen	vertrauen	küssen	genießen	sonnig	gütig	töten	versagen	krank	gemein	sterben	gierig	47pct	acq_USunple_CSpleas2_noRW	acq23456_noRW	3	51	0	0	300	300	540	46	0	1	1	blank2r.bmp	0	1	+	0	1	blank2r.bmp	252	1	YFFY	306	3	gierig	559	0	0	0	0	0	0	0	0	0	0	0	0	0	0	0	0	0	0	0	0	0	0	0	0	0	0	0	0	0	0	0	0	0	0	0	0	0	0	0
082619	10:54:22	11:01:46	444058	5.0.10.0	5_exp_noRW	112	Rpleas_acq	CS_A	CPPC	YFFY	LWWL	JQQJ	DXXD	ZHHZ	träumen	vertrauen	küssen	genießen	sonnig	gütig	töten	versagen	krank	gemein	sterben	gierig	53pct	acq_USpleas_CSunple2_noRW	acq23456_noRW	3	52	0	0	300	300	523	50	0	1	1	blank2r.bmp	0	1	+	0	1	blank2r.bmp	252	1	JQQJ	306	3	gütig	559	0	0	0	0	0	0	0	0	0	0	0	0	0	0	0	0	0	0	0	0	0	0	0	0	0	0	0	0	0	0	0	0	0	0	0	0	0	0	0
082619	10:54:22	11:01:48	445737	5.0.10.0	5_exp_noRW	112	Rpleas_acq	CS_A	CPPC	YFFY	LWWL	JQQJ	DXXD	ZHHZ	träumen	vertrauen	küssen	genießen	sonnig	gütig	töten	versagen	krank	gemein	sterben	gierig	47pct	acq_USpleas_CSpleas1_noRW	acq23456_noRW	3	53	0	0	300	300	504	50	0	1	1	blank2r.bmp	0	1	+	0	1	blank2r.bmp	252	1	CPPC	306	3	küssen	559	0	0	0	0	0	0	0	0	0	0	0	0	0	0	0	0	0	0	0	0	0	0	0	0	0	0	0	0	0	0	0	0	0	0	0	0	0	0	0
082619	10:54:22	11:01:50	447576	5.0.10.0	5_exp_noRW	112	Rpleas_acq	CS_A	CPPC	YFFY	LWWL	JQQJ	DXXD	ZHHZ	träumen	vertrauen	küssen	genießen	sonnig	gütig	töten	versagen	krank	gemein	sterben	gierig	47pct	acq_USunple_CSpleas1_noRW	acq23456_noRW	3	54	0	0	300	300	447	50	0	0	1	blank2r.bmp	0	1	+	0	1	blank2r.bmp	252	1	CPPC	306	3	krank	559	1	FEHLER	1039	0	0	0	0	0	0	0	0	0	0	0	0	0	0	0	0	0	0	0	0	0	0	0	0	0	0	0	0	0	0	0	0	0	0	0	0
082619	10:54:22	11:01:51	449042	5.0.10.0	5_exp_noRW	112	Rpleas_acq	CS_A	CPPC	YFFY	LWWL	JQQJ	DXXD	ZHHZ	träumen	vertrauen	küssen	genießen	sonnig	gütig	töten	versagen	krank	gemein	sterben	gierig	53pct	acq_USunple_CSunple2_noRW	acq23456_noRW	3	55	0	0	300	300	492	46	0	1	1	blank2r.bmp	0	1	+	0	1	blank2r.bmp	252	1	JQQJ	306	1	gemein	559	0	0	0	0	0	0	0	0	0	0	0	0	0	0	0	0	0	0	0	0	0	0	0	0	0	0	0	0	0	0	0	0	0	0	0	0	0	0	0
082619	10:54:22	11:01:53	450868	5.0.10.0	5_exp_noRW	112	Rpleas_acq	CS_A	CPPC	YFFY	LWWL	JQQJ	DXXD	ZHHZ	träumen	vertrauen	küssen	genießen	sonnig	gütig	töten	versagen	krank	gemein	sterben	gierig	53pct	acq_USpleas_CSpleas2_noRW	acq23456_noRW	3	56	0	0	300	300	656	50	0	1	1	blank2r.bmp	0	1	+	0	1	blank2r.bmp	252	1	YFFY	306	3	gütig	559	0	0	0	0	0	0	0	0	0	0	0	0	0	0	0	0	0	0	0	0	0	0	0	0	0	0	0	0	0	0	0	0	0	0	0	0	0	0	0
082619	10:54:22	11:01:55	452561	5.0.10.0	5_exp_noRW	112	Rpleas_acq	CS_A	CPPC	YFFY	LWWL	JQQJ	DXXD	ZHHZ	träumen	vertrauen	küssen	genießen	sonnig	gütig	töten	versagen	krank	gemein	sterben	gierig	53pct	acq_USunple_CSunple2_noRW	acq23456_noRW	3	57	0	0	300	300	518	46	0	1	1	blank2r.bmp	0	1	+	0	1	blank2r.bmp	252	1	JQQJ	306	3	gierig	559	0	0	0	0	0	0	0	0	0	0	0	0	0	0	0	0	0	0	0	0	0	0	0	0	0	0	0	0	0	0	0	0	0	0	0	0	0	0	0
082619	10:54:22	11:01:56	454307	5.0.10.0	5_exp_noRW	112	Rpleas_acq	CS_A	CPPC	YFFY	LWWL	JQQJ	DXXD	ZHHZ	träumen	vertrauen	küssen	genießen	sonnig	gütig	töten	versagen	krank	gemein	sterben	gierig	53pct	acq_USpleas_CSpleas2_noRW	acq23456_noRW	3	58	0	0	300	300	574	50	0	1	1	blank2r.bmp	0	1	+	0	1	blank2r.bmp	252	1	YFFY	306	1	genießen	559	0	0	0	0	0	0	0	0	0	0	0	0	0	0	0	0	0	0	0	0	0	0	0	0	0	0	0	0	0	0	0	0	0	0	0	0	0	0	0
082619	10:54:22	11:01:58	455999	5.0.10.0	5_exp_noRW	112	Rpleas_acq	CS_A	CPPC	YFFY	LWWL	JQQJ	DXXD	ZHHZ	träumen	vertrauen	küssen	genießen	sonnig	gütig	töten	versagen	krank	gemein	sterben	gierig	53pct	acq_USunple_CSunple2_noRW	acq23456_noRW	3	59	0	0	300	300	506	46	0	1	1	blank2r.bmp	0	1	+	0	1	blank2r.bmp	252	1	JQQJ	306	2	sterben	559	0	0	0	0	0	0	0	0	0	0	0	0	0	0	0	0	0	0	0	0	0	0	0	0	0	0	0	0	0	0	0	0	0	0	0	0	0	0	0
082619	10:54:22	11:02:00	457892	5.0.10.0	5_exp_noRW	112	Rpleas_acq	CS_A	CPPC	YFFY	LWWL	JQQJ	DXXD	ZHHZ	träumen	vertrauen	küssen	genießen	sonnig	gütig	töten	versagen	krank	gemein	sterben	gierig	47pct	acq_USpleas_CSpleas1_noRW	acq23456_noRW	3	60	0	0	300	300	729	50	0	1	1	blank2r.bmp	0	1	+	0	1	blank2r.bmp	252	1	CPPC	306	2	vertrauen	559	0	0	0	0	0	0	0	0	0	0	0	0	0	0	0	0	0	0	0	0	0	0	0	0	0	0	0	0	0	0	0	0	0	0	0	0	0	0	0
082619	10:54:22	11:02:02	459585	5.0.10.0	5_exp_noRW	112	Rpleas_acq	CS_A	CPPC	YFFY	LWWL	JQQJ	DXXD	ZHHZ	träumen	vertrauen	küssen	genießen	sonnig	gütig	töten	versagen	krank	gemein	sterben	gierig	47pct	acq_USunple_CSunple2_noRW	acq23456_noRW	3	61	0	0	300	300	505	46	0	1	1	blank2r.bmp	0	1	+	0	1	blank2r.bmp	252	1	JQQJ	306	1	gemein	559	0	0	0	0	0	0	0	0	0	0	0	0	0	0	0	0	0	0	0	0	0	0	0	0	0	0	0	0	0	0	0	0	0	0	0	0	0	0	0
082619	10:54:22	11:02:04	461424	5.0.10.0	5_exp_noRW	112	Rpleas_acq	CS_A	CPPC	YFFY	LWWL	JQQJ	DXXD	ZHHZ	träumen	vertrauen	küssen	genießen	sonnig	gütig	töten	versagen	krank	gemein	sterben	gierig	53pct	acq_USunple_CSunple1_noRW	acq23456_noRW	3	62	0	0	300	300	674	46	0	1	1	blank2r.bmp	0	1	+	0	1	blank2r.bmp	252	1	LWWL	306	1	töten	559	0	0	0	0	0	0	0	0	0	0	0	0	0	0	0	0	0	0	0	0	0	0	0	0	0	0	0	0	0	0	0	0	0	0	0	0	0	0	0
082619	10:54:22	11:02:05	463090	5.0.10.0	5_exp_noRW	112	Rpleas_acq	CS_A	CPPC	YFFY	LWWL	JQQJ	DXXD	ZHHZ	träumen	vertrauen	küssen	genießen	sonnig	gütig	töten	versagen	krank	gemein	sterben	gierig	47pct	acq_USpleas_CSpleas2_noRW	acq23456_noRW	3	63	0	0	300	300	481	50	0	1	1	blank2r.bmp	0	1	+	0	1	blank2r.bmp	252	1	YFFY	306	2	sonnig	559	0	0	0	0	0	0	0	0	0	0	0	0	0	0	0	0	0	0	0	0	0	0	0	0	0	0	0	0	0	0	0	0	0	0	0	0	0	0	0
082619	10:54:22	11:02:07	464716	5.0.10.0	5_exp_noRW	112	Rpleas_acq	CS_A	CPPC	YFFY	LWWL	JQQJ	DXXD	ZHHZ	träumen	vertrauen	küssen	genießen	sonnig	gütig	töten	versagen	krank	gemein	sterben	gierig	47pct	acq_USunple_CSunple1_noRW	acq23456_noRW	3	64	0	0	300	300	446	46	0	1	1	blank2r.bmp	0	1	+	0	1	blank2r.bmp	252	1	LWWL	306	3	krank	559	0	0	0	0	0	0	0	0	0	0	0	0	0	0	0	0	0	0	0	0	0	0	0	0	0	0	0	0	0	0	0	0	0	0	0	0	0	0	0
082619	10:54:22	11:02:08	466275	5.0.10.0	5_exp_noRW	112	Rpleas_acq	CS_A	CPPC	YFFY	LWWL	JQQJ	DXXD	ZHHZ	träumen	vertrauen	küssen	genießen	sonnig	gütig	töten	versagen	krank	gemein	sterben	gierig	53pct	acq_USpleas_CSpleas1_noRW	acq23456_noRW	3	65	0	0	300	300	388	50	0	1	1	blank2r.bmp	0	1	+	0	1	blank2r.bmp	252	1	CPPC	306	1	träumen	559	0	0	0	0	0	0	0	0	0	0	0	0	0	0	0	0	0	0	0	0	0	0	0	0	0	0	0	0	0	0	0	0	0	0	0	0	0	0	0
082619	10:54:22	11:02:10	467861	5.0.10.0	5_exp_noRW	112	Rpleas_acq	CS_A	CPPC	YFFY	LWWL	JQQJ	DXXD	ZHHZ	träumen	vertrauen	küssen	genießen	sonnig	gütig	töten	versagen	krank	gemein	sterben	gierig	47pct	acq_USunple_CSpleas2_noRW	acq23456_noRW	3	66	0	0	300	300	409	46	0	1	1	blank2r.bmp	0	1	+	0	1	blank2r.bmp	252	1	YFFY	306	1	gemein	559	0	0	0	0	0	0	0	0	0	0	0	0	0	0	0	0	0	0	0	0	0	0	0	0	0	0	0	0	0	0	0	0	0	0	0	0	0	0	0
082619	10:54:22	11:02:12	469514	5.0.10.0	5_exp_noRW	112	Rpleas_acq	CS_A	CPPC	YFFY	LWWL	JQQJ	DXXD	ZHHZ	träumen	vertrauen	küssen	genießen	sonnig	gütig	töten	versagen	krank	gemein	sterben	gierig	47pct	acq_USpleas_CSpleas1_noRW	acq23456_noRW	3	67	0	0	300	300	477	50	0	1	1	blank2r.bmp	0	1	+	0	1	blank2r.bmp	252	1	CPPC	306	1	träumen	559	0	0	0	0	0	0	0	0	0	0	0	0	0	0	0	0	0	0	0	0	0	0	0	0	0	0	0	0	0	0	0	0	0	0	0	0	0	0	0
082619	10:54:22	11:02:13	471207	5.0.10.0	5_exp_noRW	112	Rpleas_acq	CS_A	CPPC	YFFY	LWWL	JQQJ	DXXD	ZHHZ	träumen	vertrauen	küssen	genießen	sonnig	gütig	töten	versagen	krank	gemein	sterben	gierig	47pct	acq_USpleas_CSunple2_noRW	acq23456_noRW	3	68	0	0	300	300	513	50	0	1	1	blank2r.bmp	0	1	+	0	1	blank2r.bmp	252	1	JQQJ	306	2	sonnig	559	0	0	0	0	0	0	0	0	0	0	0	0	0	0	0	0	0	0	0	0	0	0	0	0	0	0	0	0	0	0	0	0	0	0	0	0	0	0	0
082619	10:54:22	11:02:15	472886	5.0.10.0	5_exp_noRW	112	Rpleas_acq	CS_A	CPPC	YFFY	LWWL	JQQJ	DXXD	ZHHZ	träumen	vertrauen	küssen	genießen	sonnig	gütig	töten	versagen	krank	gemein	sterben	gierig	53pct	acq_USpleas_CSpleas2_noRW	acq23456_noRW	3	69	0	0	300	300	512	50	0	1	1	blank2r.bmp	0	1	+	0	1	blank2r.bmp	252	1	YFFY	306	1	genießen	559	0	0	0	0	0	0	0	0	0	0	0	0	0	0	0	0	0	0	0	0	0	0	0	0	0	0	0	0	0	0	0	0	0	0	0	0	0	0	0
082619	10:54:22	11:02:17	474485	5.0.10.0	5_exp_noRW	112	Rpleas_acq	CS_A	CPPC	YFFY	LWWL	JQQJ	DXXD	ZHHZ	träumen	vertrauen	küssen	genießen	sonnig	gütig	töten	versagen	krank	gemein	sterben	gierig	47pct	acq_USunple_CSunple2_noRW	acq23456_noRW	3	70	0	0	300	300	414	46	0	1	1	blank2r.bmp	0	1	+	0	1	blank2r.bmp	252	1	JQQJ	306	1	gemein	559	0	0	0	0	0	0	0	0	0	0	0	0	0	0	0	0	0	0	0	0	0	0	0	0	0	0	0	0	0	0	0	0	0	0	0	0	0	0	0
082619	10:54:22	11:02:18	475991	5.0.10.0	5_exp_noRW	112	Rpleas_acq	CS_A	CPPC	YFFY	LWWL	JQQJ	DXXD	ZHHZ	träumen	vertrauen	küssen	genießen	sonnig	gütig	töten	versagen	krank	gemein	sterben	gierig	53pct	acq_USpleas_CSpleas2_noRW	acq23456_noRW	3	71	0	0	300	300	342	50	0	1	1	blank2r.bmp	0	1	+	0	1	blank2r.bmp	252	1	YFFY	306	2	sonnig	559	0	0	0	0	0	0	0	0	0	0	0	0	0	0	0	0	0	0	0	0	0	0	0	0	0	0	0	0	0	0	0	0	0	0	0	0	0	0	0
082619	10:54:22	11:02:20	477804	5.0.10.0	5_exp_noRW	112	Rpleas_acq	CS_A	CPPC	YFFY	LWWL	JQQJ	DXXD	ZHHZ	träumen	vertrauen	küssen	genießen	sonnig	gütig	töten	versagen	krank	gemein	sterben	gierig	53pct	acq_USpleas_CSpleas1_noRW	acq23456_noRW	3	72	0	0	300	300	636	50	0	1	1	blank2r.bmp	0	1	+	0	1	blank2r.bmp	252	1	CPPC	306	2	vertrauen	559	0	0	0	0	0	0	0	0	0	0	0	0	0	0	0	0	0	0	0	0	0	0	0	0	0	0	0	0	0	0	0	0	0	0	0	0	0	0	0
082619	10:54:22	11:02:22	479363	5.0.10.0	5_exp_noRW	112	Rpleas_acq	CS_A	CPPC	YFFY	LWWL	JQQJ	DXXD	ZHHZ	träumen	vertrauen	küssen	genießen	sonnig	gütig	töten	versagen	krank	gemein	sterben	gierig	53pct	acq_USunple_CSunple2_noRW	acq23456_noRW	3	73	0	0	300	300	383	46	0	1	1	blank2r.bmp	0	1	+	0	1	blank2r.bmp	252	1	JQQJ	306	2	sterben	559	0	0	0	0	0	0	0	0	0	0	0	0	0	0	0	0	0	0	0	0	0	0	0	0	0	0	0	0	0	0	0	0	0	0	0	0	0	0	0
082619	10:54:22	11:02:23	480989	5.0.10.0	5_exp_noRW	112	Rpleas_acq	CS_A	CPPC	YFFY	LWWL	JQQJ	DXXD	ZHHZ	träumen	vertrauen	küssen	genießen	sonnig	gütig	töten	versagen	krank	gemein	sterben	gierig	47pct	acq_USunple_CSunple1_noRW	acq23456_noRW	3	74	0	0	300	300	447	46	0	1	1	blank2r.bmp	0	1	+	0	1	blank2r.bmp	252	1	LWWL	306	2	versagen	559	0	0	0	0	0	0	0	0	0	0	0	0	0	0	0	0	0	0	0	0	0	0	0	0	0	0	0	0	0	0	0	0	0	0	0	0	0	0	0
082619	10:54:22	11:02:25	482642	5.0.10.0	5_exp_noRW	112	Rpleas_acq	CS_A	CPPC	YFFY	LWWL	JQQJ	DXXD	ZHHZ	träumen	vertrauen	küssen	genießen	sonnig	gütig	töten	versagen	krank	gemein	sterben	gierig	53pct	acq_USunple_CSunple1_noRW	acq23456_noRW	3	75	0	0	300	300	491	46	0	1	1	blank2r.bmp	0	1	+	0	1	blank2r.bmp	252	1	LWWL	306	1	töten	559	0	0	0	0	0	0	0	0	0	0	0	0	0	0	0	0	0	0	0	0	0	0	0	0	0	0	0	0	0	0	0	0	0	0	0	0	0	0	0
082619	10:54:22	11:02:27	484481	5.0.10.0	5_exp_noRW	112	Rpleas_acq	CS_A	CPPC	YFFY	LWWL	JQQJ	DXXD	ZHHZ	träumen	vertrauen	küssen	genießen	sonnig	gütig	töten	versagen	krank	gemein	sterben	gierig	47pct	acq_USunple_CSunple2_noRW	acq23456_noRW	3	76	0	0	300	300	643	46	0	1	1	blank2r.bmp	0	1	+	0	1	blank2r.bmp	252	1	JQQJ	306	3	gierig	559	0	0	0	0	0	0	0	0	0	0	0	0	0	0	0	0	0	0	0	0	0	0	0	0	0	0	0	0	0	0	0	0	0	0	0	0	0	0	0
082619	10:54:22	11:02:28	485987	5.0.10.0	5_exp_noRW	112	Rpleas_acq	CS_A	CPPC	YFFY	LWWL	JQQJ	DXXD	ZHHZ	träumen	vertrauen	küssen	genießen	sonnig	gütig	töten	versagen	krank	gemein	sterben	gierig	53pct	acq_USpleas_CSunple1_noRW	acq23456_noRW	3	77	0	0	300	300	336	50	0	1	1	blank2r.bmp	0	1	+	0	1	blank2r.bmp	252	1	LWWL	306	3	küssen	559	0	0	0	0	0	0	0	0	0	0	0	0	0	0	0	0	0	0	0	0	0	0	0	0	0	0	0	0	0	0	0	0	0	0	0	0	0	0	0
082619	10:54:22	11:02:30	487746	5.0.10.0	5_exp_noRW	112	Rpleas_acq	CS_A	CPPC	YFFY	LWWL	JQQJ	DXXD	ZHHZ	träumen	vertrauen	küssen	genießen	sonnig	gütig	töten	versagen	krank	gemein	sterben	gierig	47pct	acq_USpleas_CSpleas2_noRW	acq23456_noRW	3	78	0	0	300	300	575	50	0	1	1	blank2r.bmp	0	1	+	0	1	blank2r.bmp	252	1	YFFY	306	3	gütig	559	0	0	0	0	0	0	0	0	0	0	0	0	0	0	0	0	0	0	0	0	0	0	0	0	0	0	0	0	0	0	0	0	0	0	0	0	0	0	0
082619	10:54:22	11:02:32	489439	5.0.10.0	5_exp_noRW	112	Rpleas_acq	CS_A	CPPC	YFFY	LWWL	JQQJ	DXXD	ZHHZ	träumen	vertrauen	küssen	genießen	sonnig	gütig	töten	versagen	krank	gemein	sterben	gierig	53pct	acq_USpleas_CSpleas1_noRW	acq23456_noRW	3	79	0	0	300	300	521	50	0	1	1	blank2r.bmp	0	1	+	0	1	blank2r.bmp	252	1	CPPC	306	3	küssen	559	0	0	0	0	0	0	0	0	0	0	0	0	0	0	0	0	0	0	0	0	0	0	0	0	0	0	0	0	0	0	0	0	0	0	0	0	0	0	0
082619	10:54:22	11:02:33	491265	5.0.10.0	5_exp_noRW	112	Rpleas_acq	CS_A	CPPC	YFFY	LWWL	JQQJ	DXXD	ZHHZ	träumen	vertrauen	küssen	genießen	sonnig	gütig	töten	versagen	krank	gemein	sterben	gierig	47pct	acq_USunple_CSpleas1_noRW	acq23456_noRW	3	80	0	0	300	300	640	46	0	1	1	blank2r.bmp	0	1	+	0	1	blank2r.bmp	252	1	CPPC	306	2	versagen	559	0	0	0	0	0	0	0	0	0	0	0	0	0	0	0	0	0	0	0	0	0	0	0	0	0	0	0	0	0	0	0	0	0	0	0	0	0	0	0
082619	10:54:22	11:02:42	500021	5.0.10.0	5_exp_noRW	112	Rpleas_acq	CS_A	CPPC	YFFY	LWWL	JQQJ	DXXD	ZHHZ	träumen	vertrauen	küssen	genießen	sonnig	gütig	töten	versagen	krank	gemein	sterben	gierig	53pct	acq_USpleas_CSpleas1_noRW	acq23456_noRW	4	1	0	0	300	300	512	50	0	1	1	blank2r.bmp	0	1	+	0	1	blank2r.bmp	252	1	CPPC	306	2	vertrauen	559	0	0	0	0	0	0	0	0	0	0	0	0	0	0	0	0	0	0	0	0	0	0	0	0	0	0	0	0	0	0	0	0	0	0	0	0	0	0	0
