date	time	script.currenttime	script.elapsedtime	build	script.currentexpt	subject	expressions.LRpleas_acq	expressions.conditionCS_A	expressions.CSpleas_1	expressions.CSpleas_2	expressions.CSunple_1	expressions.CSunple_2	expressions.distractor_1	expressions.distractor_2	expressions.US_pleas1	expressions.US_pleas2	expressions.US_pleas3	expressions.US_pleas4	expressions.US_pleas5	expressions.US_pleas6	expressions.US_unple1	expressions.US_unple2	expressions.US_unple3	expressions.US_unple4	expressions.US_unple5	expressions.US_unple6	counter.positions_noRW	trialcode	blockcode	blocknum	trialnum	windowcenter	inwindow	pretrialpause	posttrialpause	latency	response	expressions.correctedscore	correct	stimulusnumber1	stimulusitem1	stimulusonset1	stimulusnumber2	stimulusitem2	stimulusonset2	stimulusnumber3	stimulusitem3	stimulusonset3	stimulusnumber4	stimulusitem4	stimulusonset4	stimulusnumber5	stimulusitem5	stimulusonset5	stimulusnumber6	stimulusitem6	stimulusonset6	stimulusnumber7	stimulusitem7	stimulusonset7	stimulusnumber8	stimulusitem8	stimulusonset8	stimulusnumber9	stimulusitem9	stimulusonset9	stimulusnumber10	stimulusitem10	stimulusonset10	stimulusnumber11	stimulusitem11	stimulusonset11	stimulusnumber12	stimulusitem12	stimulusonset12	stimulusnumber13	stimulusitem13	stimulusonset13	stimulusnumber14	stimulusitem14	stimulusonset14	stimulusnumber15	stimulusitem15	stimulusonset15	stimulusnumber16	stimulusitem16	stimulusonset16	stimulusnumber17	stimulusitem17	stimulusonset17	stimulusnumber18	stimulusitem18	stimulusonset18
071719	14:34:29	14:35:40	70024	5.0.10.0	5_exp_noRW	64	Rpleas_acq	CS_A	JQQJ	CPPC	ZHHZ	DXXD	YFFY	LWWL	sonnig	vertrauen	genießen	träumen	küssen	gütig	sterben	versagen	gemein	töten	krank	gierig	47pct	acq_USpleas_CSpleas2_noRW	acq1_noRW	1	1	0	0	300	300	1164	50	0	1	1	blank2r.bmp	0	1	+	0	1	blank2r.bmp	252	1	CPPC	306	3	gütig	559	0	0	0	0	0	0	0	0	0	0	0	0	0	0	0	0	0	0	0	0	0	0	0	0	0	0	0	0	0	0	0	0	0	0	0	0	0	0	0
071719	14:34:29	14:35:42	72130	5.0.10.0	5_exp_noRW	64	Rpleas_acq	CS_A	JQQJ	CPPC	ZHHZ	DXXD	YFFY	LWWL	sonnig	vertrauen	genießen	träumen	küssen	gütig	sterben	versagen	gemein	töten	krank	gierig	47pct	acq_USunple_CSunple1_noRW	acq1_noRW	1	2	0	0	300	300	944	46	0	1	1	blank2r.bmp	0	1	+	0	1	blank2r.bmp	252	1	ZHHZ	306	1	sterben	559	0	0	0	0	0	0	0	0	0	0	0	0	0	0	0	0	0	0	0	0	0	0	0	0	0	0	0	0	0	0	0	0	0	0	0	0	0	0	0
071719	14:34:29	14:35:44	74249	5.0.10.0	5_exp_noRW	64	Rpleas_acq	CS_A	JQQJ	CPPC	ZHHZ	DXXD	YFFY	LWWL	sonnig	vertrauen	genießen	träumen	küssen	gütig	sterben	versagen	gemein	töten	krank	gierig	47pct	acq_USpleas_CSunple1_noRW	acq1_noRW	1	3	0	0	300	300	942	50	0	1	1	blank2r.bmp	0	1	+	0	1	blank2r.bmp	252	1	ZHHZ	306	3	genießen	559	0	0	0	0	0	0	0	0	0	0	0	0	0	0	0	0	0	0	0	0	0	0	0	0	0	0	0	0	0	0	0	0	0	0	0	0	0	0	0
071719	14:34:29	14:35:46	76101	5.0.10.0	5_exp_noRW	64	Rpleas_acq	CS_A	JQQJ	CPPC	ZHHZ	DXXD	YFFY	LWWL	sonnig	vertrauen	genießen	träumen	küssen	gütig	sterben	versagen	gemein	töten	krank	gierig	47pct	acq_USunple_CSunple1_noRW	acq1_noRW	1	4	0	0	300	300	684	46	0	1	1	blank2r.bmp	0	1	+	0	1	blank2r.bmp	252	1	ZHHZ	306	3	gemein	559	0	0	0	0	0	0	0	0	0	0	0	0	0	0	0	0	0	0	0	0	0	0	0	0	0	0	0	0	0	0	0	0	0	0	0	0	0	0	0
071719	14:34:29	14:35:48	77887	5.0.10.0	5_exp_noRW	64	Rpleas_acq	CS_A	JQQJ	CPPC	ZHHZ	DXXD	YFFY	LWWL	sonnig	vertrauen	genießen	träumen	küssen	gütig	sterben	versagen	gemein	töten	krank	gierig	53pct	acq_USunple_CSunple2_noRW	acq1_noRW	1	5	0	0	300	300	600	46	0	1	1	blank2r.bmp	0	1	+	0	1	blank2r.bmp	252	1	DXXD	306	1	töten	559	0	0	0	0	0	0	0	0	0	0	0	0	0	0	0	0	0	0	0	0	0	0	0	0	0	0	0	0	0	0	0	0	0	0	0	0	0	0	0
071719	14:34:29	14:35:49	79620	5.0.10.0	5_exp_noRW	64	Rpleas_acq	CS_A	JQQJ	CPPC	ZHHZ	DXXD	YFFY	LWWL	sonnig	vertrauen	genießen	träumen	küssen	gütig	sterben	versagen	gemein	töten	krank	gierig	47pct	acq_USpleas_CSunple2_noRW	acq1_noRW	1	6	0	0	300	300	566	50	0	1	1	blank2r.bmp	0	1	+	0	1	blank2r.bmp	252	1	DXXD	306	1	träumen	559	0	0	0	0	0	0	0	0	0	0	0	0	0	0	0	0	0	0	0	0	0	0	0	0	0	0	0	0	0	0	0	0	0	0	0	0	0	0	0
071719	14:34:29	14:35:51	81273	5.0.10.0	5_exp_noRW	64	Rpleas_acq	CS_A	JQQJ	CPPC	ZHHZ	DXXD	YFFY	LWWL	sonnig	vertrauen	genießen	träumen	küssen	gütig	sterben	versagen	gemein	töten	krank	gierig	53pct	acq_USpleas_CSpleas1_noRW	acq1_noRW	1	7	0	0	300	300	486	50	0	1	1	blank2r.bmp	0	1	+	0	1	blank2r.bmp	252	1	JQQJ	306	1	sonnig	559	0	0	0	0	0	0	0	0	0	0	0	0	0	0	0	0	0	0	0	0	0	0	0	0	0	0	0	0	0	0	0	0	0	0	0	0	0	0	0
071719	14:34:29	14:35:53	82845	5.0.10.0	5_exp_noRW	64	Rpleas_acq	CS_A	JQQJ	CPPC	ZHHZ	DXXD	YFFY	LWWL	sonnig	vertrauen	genießen	träumen	küssen	gütig	sterben	versagen	gemein	töten	krank	gierig	53pct	acq_USunple_CSunple2_noRW	acq1_noRW	1	8	0	0	300	300	400	46	0	1	1	blank2r.bmp	0	1	+	0	1	blank2r.bmp	252	1	DXXD	306	2	krank	559	0	0	0	0	0	0	0	0	0	0	0	0	0	0	0	0	0	0	0	0	0	0	0	0	0	0	0	0	0	0	0	0	0	0	0	0	0	0	0
071719	14:34:29	14:35:54	84471	5.0.10.0	5_exp_noRW	64	Rpleas_acq	CS_A	JQQJ	CPPC	ZHHZ	DXXD	YFFY	LWWL	sonnig	vertrauen	genießen	träumen	küssen	gütig	sterben	versagen	gemein	töten	krank	gierig	53pct	acq_USunple_CSunple1_noRW	acq1_noRW	1	9	0	0	300	300	464	46	0	1	1	blank2r.bmp	0	1	+	0	1	blank2r.bmp	252	1	ZHHZ	306	2	versagen	559	0	0	0	0	0	0	0	0	0	0	0	0	0	0	0	0	0	0	0	0	0	0	0	0	0	0	0	0	0	0	0	0	0	0	0	0	0	0	0
071719	14:34:29	14:35:56	86324	5.0.10.0	5_exp_noRW	64	Rpleas_acq	CS_A	JQQJ	CPPC	ZHHZ	DXXD	YFFY	LWWL	sonnig	vertrauen	genießen	träumen	küssen	gütig	sterben	versagen	gemein	töten	krank	gierig	47pct	acq_USpleas_CSpleas2_noRW	acq1_noRW	1	10	0	0	300	300	451	46	0	0	1	blank2r.bmp	0	1	+	0	1	blank2r.bmp	252	1	CPPC	306	1	träumen	559	1	FEHLER	1052	0	0	0	0	0	0	0	0	0	0	0	0	0	0	0	0	0	0	0	0	0	0	0	0	0	0	0	0	0	0	0	0	0	0	0	0
071719	14:34:29	14:35:58	87763	5.0.10.0	5_exp_noRW	64	Rpleas_acq	CS_A	JQQJ	CPPC	ZHHZ	DXXD	YFFY	LWWL	sonnig	vertrauen	genießen	träumen	küssen	gütig	sterben	versagen	gemein	töten	krank	gierig	53pct	acq_USunple_CSpleas1_noRW	acq1_noRW	1	11	0	0	300	300	489	46	0	1	1	blank2r.bmp	0	1	+	0	1	blank2r.bmp	252	1	JQQJ	306	1	sterben	559	0	0	0	0	0	0	0	0	0	0	0	0	0	0	0	0	0	0	0	0	0	0	0	0	0	0	0	0	0	0	0	0	0	0	0	0	0	0	0
071719	14:34:29	14:35:59	89376	5.0.10.0	5_exp_noRW	64	Rpleas_acq	CS_A	JQQJ	CPPC	ZHHZ	DXXD	YFFY	LWWL	sonnig	vertrauen	genießen	träumen	küssen	gütig	sterben	versagen	gemein	töten	krank	gierig	47pct	acq_USunple_CSunple1_noRW	acq1_noRW	1	12	0	0	300	300	431	46	0	1	1	blank2r.bmp	0	1	+	0	1	blank2r.bmp	252	1	ZHHZ	306	1	sterben	559	0	0	0	0	0	0	0	0	0	0	0	0	0	0	0	0	0	0	0	0	0	0	0	0	0	0	0	0	0	0	0	0	0	0	0	0	0	0	0
071719	14:34:29	14:36:01	90922	5.0.10.0	5_exp_noRW	64	Rpleas_acq	CS_A	JQQJ	CPPC	ZHHZ	DXXD	YFFY	LWWL	sonnig	vertrauen	genießen	träumen	küssen	gütig	sterben	versagen	gemein	töten	krank	gierig	53pct	acq_USpleas_CSpleas1_noRW	acq1_noRW	1	13	0	0	300	300	368	50	0	1	1	blank2r.bmp	0	1	+	0	1	blank2r.bmp	252	1	JQQJ	306	2	vertrauen	559	0	0	0	0	0	0	0	0	0	0	0	0	0	0	0	0	0	0	0	0	0	0	0	0	0	0	0	0	0	0	0	0	0	0	0	0	0	0	0
071719	14:34:29	14:36:02	92615	5.0.10.0	5_exp_noRW	64	Rpleas_acq	CS_A	JQQJ	CPPC	ZHHZ	DXXD	YFFY	LWWL	sonnig	vertrauen	genießen	träumen	küssen	gütig	sterben	versagen	gemein	töten	krank	gierig	47pct	acq_USpleas_CSpleas2_noRW	acq1_noRW	1	14	0	0	300	300	507	50	0	1	1	blank2r.bmp	0	1	+	0	1	blank2r.bmp	252	1	CPPC	306	2	küssen	559	0	0	0	0	0	0	0	0	0	0	0	0	0	0	0	0	0	0	0	0	0	0	0	0	0	0	0	0	0	0	0	0	0	0	0	0	0	0	0
071719	14:34:29	14:36:04	94481	5.0.10.0	5_exp_noRW	64	Rpleas_acq	CS_A	JQQJ	CPPC	ZHHZ	DXXD	YFFY	LWWL	sonnig	vertrauen	genießen	träumen	küssen	gütig	sterben	versagen	gemein	töten	krank	gierig	53pct	acq_USunple_CSunple2_noRW	acq1_noRW	1	15	0	0	300	300	697	46	0	1	1	blank2r.bmp	0	1	+	0	1	blank2r.bmp	252	1	DXXD	306	3	gierig	559	0	0	0	0	0	0	0	0	0	0	0	0	0	0	0	0	0	0	0	0	0	0	0	0	0	0	0	0	0	0	0	0	0	0	0	0	0	0	0
071719	14:34:29	14:36:06	96200	5.0.10.0	5_exp_noRW	64	Rpleas_acq	CS_A	JQQJ	CPPC	ZHHZ	DXXD	YFFY	LWWL	sonnig	vertrauen	genießen	träumen	küssen	gütig	sterben	versagen	gemein	töten	krank	gierig	47pct	acq_USpleas_CSpleas1_noRW	acq1_noRW	1	16	0	0	300	300	534	50	0	1	1	blank2r.bmp	0	1	+	0	1	blank2r.bmp	252	1	JQQJ	306	3	genießen	559	0	0	0	0	0	0	0	0	0	0	0	0	0	0	0	0	0	0	0	0	0	0	0	0	0	0	0	0	0	0	0	0	0	0	0	0	0	0	0
071719	14:34:29	14:36:08	98052	5.0.10.0	5_exp_noRW	64	Rpleas_acq	CS_A	JQQJ	CPPC	ZHHZ	DXXD	YFFY	LWWL	sonnig	vertrauen	genießen	träumen	küssen	gütig	sterben	versagen	gemein	töten	krank	gierig	47pct	acq_USunple_CSpleas2_noRW	acq1_noRW	1	17	0	0	300	300	691	46	0	1	1	blank2r.bmp	0	1	+	0	1	blank2r.bmp	252	1	CPPC	306	3	gierig	559	0	0	0	0	0	0	0	0	0	0	0	0	0	0	0	0	0	0	0	0	0	0	0	0	0	0	0	0	0	0	0	0	0	0	0	0	0	0	0
071719	14:34:29	14:36:10	99825	5.0.10.0	5_exp_noRW	64	Rpleas_acq	CS_A	JQQJ	CPPC	ZHHZ	DXXD	YFFY	LWWL	sonnig	vertrauen	genießen	träumen	küssen	gütig	sterben	versagen	gemein	töten	krank	gierig	47pct	acq_USpleas_CSpleas2_noRW	acq1_noRW	1	18	0	0	300	300	585	50	0	1	1	blank2r.bmp	0	1	+	0	1	blank2r.bmp	252	1	CPPC	306	1	träumen	559	0	0	0	0	0	0	0	0	0	0	0	0	0	0	0	0	0	0	0	0	0	0	0	0	0	0	0	0	0	0	0	0	0	0	0	0	0	0	0
071719	14:34:29	14:36:11	101464	5.0.10.0	5_exp_noRW	64	Rpleas_acq	CS_A	JQQJ	CPPC	ZHHZ	DXXD	YFFY	LWWL	sonnig	vertrauen	genießen	träumen	küssen	gütig	sterben	versagen	gemein	töten	krank	gierig	47pct	acq_USunple_CSunple2_noRW	acq1_noRW	1	19	0	0	300	300	468	46	0	1	1	blank2r.bmp	0	1	+	0	1	blank2r.bmp	252	1	DXXD	306	2	krank	559	0	0	0	0	0	0	0	0	0	0	0	0	0	0	0	0	0	0	0	0	0	0	0	0	0	0	0	0	0	0	0	0	0	0	0	0	0	0	0
071719	14:34:29	14:36:13	103170	5.0.10.0	5_exp_noRW	64	Rpleas_acq	CS_A	JQQJ	CPPC	ZHHZ	DXXD	YFFY	LWWL	sonnig	vertrauen	genießen	träumen	küssen	gütig	sterben	versagen	gemein	töten	krank	gierig	53pct	acq_USpleas_CSpleas1_noRW	acq1_noRW	1	20	0	0	300	300	535	50	0	1	1	blank2r.bmp	0	1	+	0	1	blank2r.bmp	252	1	JQQJ	306	2	vertrauen	559	0	0	0	0	0	0	0	0	0	0	0	0	0	0	0	0	0	0	0	0	0	0	0	0	0	0	0	0	0	0	0	0	0	0	0	0	0	0	0
071719	14:34:29	14:36:15	104876	5.0.10.0	5_exp_noRW	64	Rpleas_acq	CS_A	JQQJ	CPPC	ZHHZ	DXXD	YFFY	LWWL	sonnig	vertrauen	genießen	träumen	küssen	gütig	sterben	versagen	gemein	töten	krank	gierig	47pct	acq_USunple_CSunple2_noRW	acq1_noRW	1	21	0	0	300	300	522	46	0	1	1	blank2r.bmp	0	1	+	0	1	blank2r.bmp	252	1	DXXD	306	3	gierig	559	0	0	0	0	0	0	0	0	0	0	0	0	0	0	0	0	0	0	0	0	0	0	0	0	0	0	0	0	0	0	0	0	0	0	0	0	0	0	0
071719	14:34:29	14:36:16	106636	5.0.10.0	5_exp_noRW	64	Rpleas_acq	CS_A	JQQJ	CPPC	ZHHZ	DXXD	YFFY	LWWL	sonnig	vertrauen	genießen	träumen	küssen	gütig	sterben	versagen	gemein	töten	krank	gierig	53pct	acq_USpleas_CSpleas1_noRW	acq1_noRW	1	22	0	0	300	300	589	50	0	1	1	blank2r.bmp	0	1	+	0	1	blank2r.bmp	252	1	JQQJ	306	1	sonnig	559	0	0	0	0	0	0	0	0	0	0	0	0	0	0	0	0	0	0	0	0	0	0	0	0	0	0	0	0	0	0	0	0	0	0	0	0	0	0	0
071719	14:34:29	14:36:18	108328	5.0.10.0	5_exp_noRW	64	Rpleas_acq	CS_A	JQQJ	CPPC	ZHHZ	DXXD	YFFY	LWWL	sonnig	vertrauen	genießen	träumen	küssen	gütig	sterben	versagen	gemein	töten	krank	gierig	53pct	acq_USunple_CSunple2_noRW	acq1_noRW	1	23	0	0	300	300	526	46	0	1	1	blank2r.bmp	0	1	+	0	1	blank2r.bmp	252	1	DXXD	306	1	töten	559	0	0	0	0	0	0	0	0	0	0	0	0	0	0	0	0	0	0	0	0	0	0	0	0	0	0	0	0	0	0	0	0	0	0	0	0	0	0	0
071719	14:34:29	14:36:20	110047	5.0.10.0	5_exp_noRW	64	Rpleas_acq	CS_A	JQQJ	CPPC	ZHHZ	DXXD	YFFY	LWWL	sonnig	vertrauen	genießen	träumen	küssen	gütig	sterben	versagen	gemein	töten	krank	gierig	53pct	acq_USpleas_CSpleas1_noRW	acq1_noRW	1	24	0	0	300	300	536	50	0	1	1	blank2r.bmp	0	1	+	0	1	blank2r.bmp	252	1	JQQJ	306	3	genießen	559	0	0	0	0	0	0	0	0	0	0	0	0	0	0	0	0	0	0	0	0	0	0	0	0	0	0	0	0	0	0	0	0	0	0	0	0	0	0	0
071719	14:34:29	14:36:22	111807	5.0.10.0	5_exp_noRW	64	Rpleas_acq	CS_A	JQQJ	CPPC	ZHHZ	DXXD	YFFY	LWWL	sonnig	vertrauen	genießen	träumen	küssen	gütig	sterben	versagen	gemein	töten	krank	gierig	53pct	acq_USunple_CSunple1_noRW	acq1_noRW	1	25	0	0	300	300	582	46	0	1	1	blank2r.bmp	0	1	+	0	1	blank2r.bmp	252	1	ZHHZ	306	2	versagen	559	0	0	0	0	0	0	0	0	0	0	0	0	0	0	0	0	0	0	0	0	0	0	0	0	0	0	0	0	0	0	0	0	0	0	0	0	0	0	0
071719	14:34:29	14:36:23	113473	5.0.10.0	5_exp_noRW	64	Rpleas_acq	CS_A	JQQJ	CPPC	ZHHZ	DXXD	YFFY	LWWL	sonnig	vertrauen	genießen	träumen	küssen	gütig	sterben	versagen	gemein	töten	krank	gierig	47pct	acq_USpleas_CSpleas1_noRW	acq1_noRW	1	26	0	0	300	300	488	50	0	1	1	blank2r.bmp	0	1	+	0	1	blank2r.bmp	252	1	JQQJ	306	3	genießen	559	0	0	0	0	0	0	0	0	0	0	0	0	0	0	0	0	0	0	0	0	0	0	0	0	0	0	0	0	0	0	0	0	0	0	0	0	0	0	0
071719	14:34:29	14:36:25	115192	5.0.10.0	5_exp_noRW	64	Rpleas_acq	CS_A	JQQJ	CPPC	ZHHZ	DXXD	YFFY	LWWL	sonnig	vertrauen	genießen	träumen	küssen	gütig	sterben	versagen	gemein	töten	krank	gierig	47pct	acq_USpleas_CSpleas1_noRW	acq1_noRW	1	27	0	0	300	300	541	50	0	1	1	blank2r.bmp	0	1	+	0	1	blank2r.bmp	252	1	JQQJ	306	2	vertrauen	559	0	0	0	0	0	0	0	0	0	0	0	0	0	0	0	0	0	0	0	0	0	0	0	0	0	0	0	0	0	0	0	0	0	0	0	0	0	0	0
071719	14:34:29	14:36:27	116791	5.0.10.0	5_exp_noRW	64	Rpleas_acq	CS_A	JQQJ	CPPC	ZHHZ	DXXD	YFFY	LWWL	sonnig	vertrauen	genießen	träumen	küssen	gütig	sterben	versagen	gemein	töten	krank	gierig	53pct	acq_USunple_CSunple2_noRW	acq1_noRW	1	28	0	0	300	300	416	46	0	1	1	blank2r.bmp	0	1	+	0	1	blank2r.bmp	252	1	DXXD	306	1	töten	559	0	0	0	0	0	0	0	0	0	0	0	0	0	0	0	0	0	0	0	0	0	0	0	0	0	0	0	0	0	0	0	0	0	0	0	0	0	0	0
071719	14:34:29	14:36:28	118377	5.0.10.0	5_exp_noRW	64	Rpleas_acq	CS_A	JQQJ	CPPC	ZHHZ	DXXD	YFFY	LWWL	sonnig	vertrauen	genießen	träumen	küssen	gütig	sterben	versagen	gemein	töten	krank	gierig	53pct	acq_USunple_CSunple2_noRW	acq1_noRW	1	29	0	0	300	300	422	46	0	1	1	blank2r.bmp	0	1	+	0	1	blank2r.bmp	252	1	DXXD	306	2	krank	559	0	0	0	0	0	0	0	0	0	0	0	0	0	0	0	0	0	0	0	0	0	0	0	0	0	0	0	0	0	0	0	0	0	0	0	0	0	0	0
071719	14:34:29	14:36:30	119923	5.0.10.0	5_exp_noRW	64	Rpleas_acq	CS_A	JQQJ	CPPC	ZHHZ	DXXD	YFFY	LWWL	sonnig	vertrauen	genießen	träumen	küssen	gütig	sterben	versagen	gemein	töten	krank	gierig	47pct	acq_USpleas_CSpleas2_noRW	acq1_noRW	1	30	0	0	300	300	365	50	0	1	1	blank2r.bmp	0	1	+	0	1	blank2r.bmp	252	1	CPPC	306	3	gütig	559	0	0	0	0	0	0	0	0	0	0	0	0	0	0	0	0	0	0	0	0	0	0	0	0	0	0	0	0	0	0	0	0	0	0	0	0	0	0	0
071719	14:34:29	14:36:31	121549	5.0.10.0	5_exp_noRW	64	Rpleas_acq	CS_A	JQQJ	CPPC	ZHHZ	DXXD	YFFY	LWWL	sonnig	vertrauen	genießen	träumen	küssen	gütig	sterben	versagen	gemein	töten	krank	gierig	53pct	acq_USpleas_CSpleas2_noRW	acq1_noRW	1	31	0	0	300	300	445	50	0	1	1	blank2r.bmp	0	1	+	0	1	blank2r.bmp	252	1	CPPC	306	2	küssen	559	0	0	0	0	0	0	0	0	0	0	0	0	0	0	0	0	0	0	0	0	0	0	0	0	0	0	0	0	0	0	0	0	0	0	0	0	0	0	0
071719	14:34:29	14:36:33	123175	5.0.10.0	5_exp_noRW	64	Rpleas_acq	CS_A	JQQJ	CPPC	ZHHZ	DXXD	YFFY	LWWL	sonnig	vertrauen	genießen	träumen	küssen	gütig	sterben	versagen	gemein	töten	krank	gierig	47pct	acq_USpleas_CSpleas2_noRW	acq1_noRW	1	32	0	0	300	300	457	50	0	1	1	blank2r.bmp	0	1	+	0	1	blank2r.bmp	252	1	CPPC	306	1	träumen	559	0	0	0	0	0	0	0	0	0	0	0	0	0	0	0	0	0	0	0	0	0	0	0	0	0	0	0	0	0	0	0	0	0	0	0	0	0	0	0
071719	14:34:29	14:36:35	124921	5.0.10.0	5_exp_noRW	64	Rpleas_acq	CS_A	JQQJ	CPPC	ZHHZ	DXXD	YFFY	LWWL	sonnig	vertrauen	genießen	träumen	küssen	gütig	sterben	versagen	gemein	töten	krank	gierig	53pct	acq_USunple_CSpleas2_noRW	acq1_noRW	1	33	0	0	300	300	371	50	0	0	1	blank2r.bmp	0	1	+	0	1	blank2r.bmp	252	1	CPPC	306	2	krank	559	1	FEHLER	959	0	0	0	0	0	0	0	0	0	0	0	0	0	0	0	0	0	0	0	0	0	0	0	0	0	0	0	0	0	0	0	0	0	0	0	0
071719	14:34:29	14:36:36	126361	5.0.10.0	5_exp_noRW	64	Rpleas_acq	CS_A	JQQJ	CPPC	ZHHZ	DXXD	YFFY	LWWL	sonnig	vertrauen	genießen	träumen	küssen	gütig	sterben	versagen	gemein	töten	krank	gierig	53pct	acq_USpleas_CSunple2_noRW	acq1_noRW	1	34	0	0	300	300	478	50	0	1	1	blank2r.bmp	0	1	+	0	1	blank2r.bmp	252	1	DXXD	306	2	küssen	559	0	0	0	0	0	0	0	0	0	0	0	0	0	0	0	0	0	0	0	0	0	0	0	0	0	0	0	0	0	0	0	0	0	0	0	0	0	0	0
071719	14:34:29	14:36:38	128013	5.0.10.0	5_exp_noRW	64	Rpleas_acq	CS_A	JQQJ	CPPC	ZHHZ	DXXD	YFFY	LWWL	sonnig	vertrauen	genießen	träumen	küssen	gütig	sterben	versagen	gemein	töten	krank	gierig	53pct	acq_USunple_CSunple1_noRW	acq1_noRW	1	35	0	0	300	300	468	46	0	1	1	blank2r.bmp	0	1	+	0	1	blank2r.bmp	252	1	ZHHZ	306	3	gemein	559	0	0	0	0	0	0	0	0	0	0	0	0	0	0	0	0	0	0	0	0	0	0	0	0	0	0	0	0	0	0	0	0	0	0	0	0	0	0	0
071719	14:34:29	14:36:40	129799	5.0.10.0	5_exp_noRW	64	Rpleas_acq	CS_A	JQQJ	CPPC	ZHHZ	DXXD	YFFY	LWWL	sonnig	vertrauen	genießen	träumen	küssen	gütig	sterben	versagen	gemein	töten	krank	gierig	53pct	acq_USpleas_CSunple1_noRW	acq1_noRW	1	36	0	0	300	300	612	50	0	1	1	blank2r.bmp	0	1	+	0	1	blank2r.bmp	252	1	ZHHZ	306	1	sonnig	559	0	0	0	0	0	0	0	0	0	0	0	0	0	0	0	0	0	0	0	0	0	0	0	0	0	0	0	0	0	0	0	0	0	0	0	0	0	0	0
071719	14:34:29	14:36:41	131612	5.0.10.0	5_exp_noRW	64	Rpleas_acq	CS_A	JQQJ	CPPC	ZHHZ	DXXD	YFFY	LWWL	sonnig	vertrauen	genießen	träumen	küssen	gütig	sterben	versagen	gemein	töten	krank	gierig	53pct	acq_USpleas_CSpleas2_noRW	acq1_noRW	1	37	0	0	300	300	636	50	0	1	1	blank2r.bmp	0	1	+	0	1	blank2r.bmp	252	1	CPPC	306	3	gütig	559	0	0	0	0	0	0	0	0	0	0	0	0	0	0	0	0	0	0	0	0	0	0	0	0	0	0	0	0	0	0	0	0	0	0	0	0	0	0	0
071719	14:34:29	14:36:43	133305	5.0.10.0	5_exp_noRW	64	Rpleas_acq	CS_A	JQQJ	CPPC	ZHHZ	DXXD	YFFY	LWWL	sonnig	vertrauen	genießen	träumen	küssen	gütig	sterben	versagen	gemein	töten	krank	gierig	47pct	acq_USunple_CSunple1_noRW	acq1_noRW	1	38	0	0	300	300	516	46	0	1	1	blank2r.bmp	0	1	+	0	1	blank2r.bmp	252	1	ZHHZ	306	2	versagen	559	0	0	0	0	0	0	0	0	0	0	0	0	0	0	0	0	0	0	0	0	0	0	0	0	0	0	0	0	0	0	0	0	0	0	0	0	0	0	0
071719	14:34:29	14:36:45	134931	5.0.10.0	5_exp_noRW	64	Rpleas_acq	CS_A	JQQJ	CPPC	ZHHZ	DXXD	YFFY	LWWL	sonnig	vertrauen	genießen	träumen	küssen	gütig	sterben	versagen	gemein	töten	krank	gierig	53pct	acq_USunple_CSpleas1_noRW	acq1_noRW	1	39	0	0	300	300	438	46	0	1	1	blank2r.bmp	0	1	+	0	1	blank2r.bmp	252	1	JQQJ	306	3	gemein	559	0	0	0	0	0	0	0	0	0	0	0	0	0	0	0	0	0	0	0	0	0	0	0	0	0	0	0	0	0	0	0	0	0	0	0	0	0	0	0
071719	14:34:29	14:36:46	136410	5.0.10.0	5_exp_noRW	64	Rpleas_acq	CS_A	JQQJ	CPPC	ZHHZ	DXXD	YFFY	LWWL	sonnig	vertrauen	genießen	träumen	küssen	gütig	sterben	versagen	gemein	töten	krank	gierig	47pct	acq_USunple_CSunple1_noRW	acq1_noRW	1	40	0	0	300	300	322	46	0	1	1	blank2r.bmp	0	1	+	0	1	blank2r.bmp	252	1	ZHHZ	306	3	gemein	559	0	0	0	0	0	0	0	0	0	0	0	0	0	0	0	0	0	0	0	0	0	0	0	0	0	0	0	0	0	0	0	0	0	0	0	0	0	0	0
071719	14:34:29	14:36:48	138063	5.0.10.0	5_exp_noRW	64	Rpleas_acq	CS_A	JQQJ	CPPC	ZHHZ	DXXD	YFFY	LWWL	sonnig	vertrauen	genießen	träumen	küssen	gütig	sterben	versagen	gemein	töten	krank	gierig	47pct	acq_USpleas_CSpleas2_noRW	acq1_noRW	1	41	0	0	300	300	469	50	0	1	1	blank2r.bmp	0	1	+	0	1	blank2r.bmp	252	1	CPPC	306	2	küssen	559	0	0	0	0	0	0	0	0	0	0	0	0	0	0	0	0	0	0	0	0	0	0	0	0	0	0	0	0	0	0	0	0	0	0	0	0	0	0	0
071719	14:34:29	14:36:49	139555	5.0.10.0	5_exp_noRW	64	Rpleas_acq	CS_A	JQQJ	CPPC	ZHHZ	DXXD	YFFY	LWWL	sonnig	vertrauen	genießen	träumen	küssen	gütig	sterben	versagen	gemein	töten	krank	gierig	53pct	acq_USunple_CSunple1_noRW	acq1_noRW	1	42	0	0	300	300	316	46	0	1	1	blank2r.bmp	0	1	+	0	1	blank2r.bmp	252	1	ZHHZ	306	1	sterben	559	0	0	0	0	0	0	0	0	0	0	0	0	0	0	0	0	0	0	0	0	0	0	0	0	0	0	0	0	0	0	0	0	0	0	0	0	0	0	0
071719	14:34:29	14:36:51	141181	5.0.10.0	5_exp_noRW	64	Rpleas_acq	CS_A	JQQJ	CPPC	ZHHZ	DXXD	YFFY	LWWL	sonnig	vertrauen	genießen	träumen	küssen	gütig	sterben	versagen	gemein	töten	krank	gierig	53pct	acq_USpleas_CSpleas1_noRW	acq1_noRW	1	43	0	0	300	300	448	50	0	1	1	blank2r.bmp	0	1	+	0	1	blank2r.bmp	252	1	JQQJ	306	1	sonnig	559	0	0	0	0	0	0	0	0	0	0	0	0	0	0	0	0	0	0	0	0	0	0	0	0	0	0	0	0	0	0	0	0	0	0	0	0	0	0	0
071719	14:34:29	14:36:53	142901	5.0.10.0	5_exp_noRW	64	Rpleas_acq	CS_A	JQQJ	CPPC	ZHHZ	DXXD	YFFY	LWWL	sonnig	vertrauen	genießen	träumen	küssen	gütig	sterben	versagen	gemein	töten	krank	gierig	47pct	acq_USunple_CSpleas1_noRW	acq1_noRW	1	44	0	0	300	300	534	46	0	1	1	blank2r.bmp	0	1	+	0	1	blank2r.bmp	252	1	JQQJ	306	2	versagen	559	0	0	0	0	0	0	0	0	0	0	0	0	0	0	0	0	0	0	0	0	0	0	0	0	0	0	0	0	0	0	0	0	0	0	0	0	0	0	0
071719	14:34:29	14:36:54	144433	5.0.10.0	5_exp_noRW	64	Rpleas_acq	CS_A	JQQJ	CPPC	ZHHZ	DXXD	YFFY	LWWL	sonnig	vertrauen	genießen	träumen	küssen	gütig	sterben	versagen	gemein	töten	krank	gierig	53pct	acq_USpleas_CSpleas2_noRW	acq1_noRW	1	45	0	0	300	300	353	50	0	1	1	blank2r.bmp	0	1	+	0	1	blank2r.bmp	252	1	CPPC	306	1	träumen	559	0	0	0	0	0	0	0	0	0	0	0	0	0	0	0	0	0	0	0	0	0	0	0	0	0	0	0	0	0	0	0	0	0	0	0	0	0	0	0
071719	14:34:29	14:36:56	146033	5.0.10.0	5_exp_noRW	64	Rpleas_acq	CS_A	JQQJ	CPPC	ZHHZ	DXXD	YFFY	LWWL	sonnig	vertrauen	genießen	träumen	küssen	gütig	sterben	versagen	gemein	töten	krank	gierig	47pct	acq_USunple_CSpleas2_noRW	acq1_noRW	1	46	0	0	300	300	434	46	0	1	1	blank2r.bmp	0	1	+	0	1	blank2r.bmp	252	1	CPPC	306	1	töten	559	0	0	0	0	0	0	0	0	0	0	0	0	0	0	0	0	0	0	0	0	0	0	0	0	0	0	0	0	0	0	0	0	0	0	0	0	0	0	0
071719	14:34:29	14:36:58	147685	5.0.10.0	5_exp_noRW	64	Rpleas_acq	CS_A	JQQJ	CPPC	ZHHZ	DXXD	YFFY	LWWL	sonnig	vertrauen	genießen	träumen	küssen	gütig	sterben	versagen	gemein	töten	krank	gierig	53pct	acq_USunple_CSunple2_noRW	acq1_noRW	1	47	0	0	300	300	466	46	0	1	1	blank2r.bmp	0	1	+	0	1	blank2r.bmp	252	1	DXXD	306	3	gierig	559	0	0	0	0	0	0	0	0	0	0	0	0	0	0	0	0	0	0	0	0	0	0	0	0	0	0	0	0	0	0	0	0	0	0	0	0	0	0	0
071719	14:34:29	14:36:59	149285	5.0.10.0	5_exp_noRW	64	Rpleas_acq	CS_A	JQQJ	CPPC	ZHHZ	DXXD	YFFY	LWWL	sonnig	vertrauen	genießen	träumen	küssen	gütig	sterben	versagen	gemein	töten	krank	gierig	47pct	acq_USpleas_CSpleas1_noRW	acq1_noRW	1	48	0	0	300	300	430	50	0	1	1	blank2r.bmp	0	1	+	0	1	blank2r.bmp	252	1	JQQJ	306	3	genießen	559	0	0	0	0	0	0	0	0	0	0	0	0	0	0	0	0	0	0	0	0	0	0	0	0	0	0	0	0	0	0	0	0	0	0	0	0	0	0	0
071719	14:34:29	14:37:01	150977	5.0.10.0	5_exp_noRW	64	Rpleas_acq	CS_A	JQQJ	CPPC	ZHHZ	DXXD	YFFY	LWWL	sonnig	vertrauen	genießen	träumen	küssen	gütig	sterben	versagen	gemein	töten	krank	gierig	53pct	acq_USpleas_CSpleas2_noRW	acq1_noRW	1	49	0	0	300	300	314	46	0	0	1	blank2r.bmp	0	1	+	0	1	blank2r.bmp	252	1	CPPC	306	3	gütig	559	1	FEHLER	906	0	0	0	0	0	0	0	0	0	0	0	0	0	0	0	0	0	0	0	0	0	0	0	0	0	0	0	0	0	0	0	0	0	0	0	0
071719	14:34:29	14:37:02	152497	5.0.10.0	5_exp_noRW	64	Rpleas_acq	CS_A	JQQJ	CPPC	ZHHZ	DXXD	YFFY	LWWL	sonnig	vertrauen	genießen	träumen	küssen	gütig	sterben	versagen	gemein	töten	krank	gierig	47pct	acq_USunple_CSunple1_noRW	acq1_noRW	1	50	0	0	300	300	556	46	0	1	1	blank2r.bmp	0	1	+	0	1	blank2r.bmp	252	1	ZHHZ	306	3	gemein	559	0	0	0	0	0	0	0	0	0	0	0	0	0	0	0	0	0	0	0	0	0	0	0	0	0	0	0	0	0	0	0	0	0	0	0	0	0	0	0
071719	14:34:29	14:37:04	154189	5.0.10.0	5_exp_noRW	64	Rpleas_acq	CS_A	JQQJ	CPPC	ZHHZ	DXXD	YFFY	LWWL	sonnig	vertrauen	genießen	träumen	küssen	gütig	sterben	versagen	gemein	töten	krank	gierig	47pct	acq_USunple_CSunple2_noRW	acq1_noRW	1	51	0	0	300	300	517	46	0	1	1	blank2r.bmp	0	1	+	0	1	blank2r.bmp	252	1	DXXD	306	2	krank	559	0	0	0	0	0	0	0	0	0	0	0	0	0	0	0	0	0	0	0	0	0	0	0	0	0	0	0	0	0	0	0	0	0	0	0	0	0	0	0
071719	14:34:29	14:37:06	155735	5.0.10.0	5_exp_noRW	64	Rpleas_acq	CS_A	JQQJ	CPPC	ZHHZ	DXXD	YFFY	LWWL	sonnig	vertrauen	genießen	träumen	küssen	gütig	sterben	versagen	gemein	töten	krank	gierig	47pct	acq_USpleas_CSpleas2_noRW	acq1_noRW	1	52	0	0	300	300	360	50	0	1	1	blank2r.bmp	0	1	+	0	1	blank2r.bmp	252	1	CPPC	306	2	küssen	559	0	0	0	0	0	0	0	0	0	0	0	0	0	0	0	0	0	0	0	0	0	0	0	0	0	0	0	0	0	0	0	0	0	0	0	0	0	0	0
071719	14:34:29	14:37:07	157321	5.0.10.0	5_exp_noRW	64	Rpleas_acq	CS_A	JQQJ	CPPC	ZHHZ	DXXD	YFFY	LWWL	sonnig	vertrauen	genießen	träumen	küssen	gütig	sterben	versagen	gemein	töten	krank	gierig	47pct	acq_USunple_CSunple2_noRW	acq1_noRW	1	53	0	0	300	300	414	46	0	1	1	blank2r.bmp	0	1	+	0	1	blank2r.bmp	252	1	DXXD	306	1	töten	559	0	0	0	0	0	0	0	0	0	0	0	0	0	0	0	0	0	0	0	0	0	0	0	0	0	0	0	0	0	0	0	0	0	0	0	0	0	0	0
071719	14:34:29	14:37:09	158881	5.0.10.0	5_exp_noRW	64	Rpleas_acq	CS_A	JQQJ	CPPC	ZHHZ	DXXD	YFFY	LWWL	sonnig	vertrauen	genießen	träumen	küssen	gütig	sterben	versagen	gemein	töten	krank	gierig	47pct	acq_USpleas_CSpleas1_noRW	acq1_noRW	1	54	0	0	300	300	386	50	0	1	1	blank2r.bmp	0	1	+	0	1	blank2r.bmp	252	1	JQQJ	306	1	sonnig	559	0	0	0	0	0	0	0	0	0	0	0	0	0	0	0	0	0	0	0	0	0	0	0	0	0	0	0	0	0	0	0	0	0	0	0	0	0	0	0
071719	14:34:29	14:37:10	160600	5.0.10.0	5_exp_noRW	64	Rpleas_acq	CS_A	JQQJ	CPPC	ZHHZ	DXXD	YFFY	LWWL	sonnig	vertrauen	genießen	träumen	küssen	gütig	sterben	versagen	gemein	töten	krank	gierig	47pct	acq_USpleas_CSunple1_noRW	acq1_noRW	1	55	0	0	300	300	556	50	0	1	1	blank2r.bmp	0	1	+	0	1	blank2r.bmp	252	1	ZHHZ	306	2	vertrauen	559	0	0	0	0	0	0	0	0	0	0	0	0	0	0	0	0	0	0	0	0	0	0	0	0	0	0	0	0	0	0	0	0	0	0	0	0	0	0	0
071719	14:34:29	14:37:12	162426	5.0.10.0	5_exp_noRW	64	Rpleas_acq	CS_A	JQQJ	CPPC	ZHHZ	DXXD	YFFY	LWWL	sonnig	vertrauen	genießen	träumen	küssen	gütig	sterben	versagen	gemein	töten	krank	gierig	53pct	acq_USpleas_CSpleas1_noRW	acq1_noRW	1	56	0	0	300	300	641	50	0	1	1	blank2r.bmp	0	1	+	0	1	blank2r.bmp	252	1	JQQJ	306	2	vertrauen	559	0	0	0	0	0	0	0	0	0	0	0	0	0	0	0	0	0	0	0	0	0	0	0	0	0	0	0	0	0	0	0	0	0	0	0	0	0	0	0
071719	14:34:29	14:37:14	164279	5.0.10.0	5_exp_noRW	64	Rpleas_acq	CS_A	JQQJ	CPPC	ZHHZ	DXXD	YFFY	LWWL	sonnig	vertrauen	genießen	träumen	küssen	gütig	sterben	versagen	gemein	töten	krank	gierig	53pct	acq_USpleas_CSunple2_noRW	acq1_noRW	1	57	0	0	300	300	684	50	0	1	1	blank2r.bmp	0	1	+	0	1	blank2r.bmp	252	1	DXXD	306	3	gütig	559	0	0	0	0	0	0	0	0	0	0	0	0	0	0	0	0	0	0	0	0	0	0	0	0	0	0	0	0	0	0	0	0	0	0	0	0	0	0	0
071719	14:34:29	14:37:16	165918	5.0.10.0	5_exp_noRW	64	Rpleas_acq	CS_A	JQQJ	CPPC	ZHHZ	DXXD	YFFY	LWWL	sonnig	vertrauen	genießen	träumen	küssen	gütig	sterben	versagen	gemein	töten	krank	gierig	47pct	acq_USunple_CSunple1_noRW	acq1_noRW	1	58	0	0	300	300	465	46	0	1	1	blank2r.bmp	0	1	+	0	1	blank2r.bmp	252	1	ZHHZ	306	1	sterben	559	0	0	0	0	0	0	0	0	0	0	0	0	0	0	0	0	0	0	0	0	0	0	0	0	0	0	0	0	0	0	0	0	0	0	0	0	0	0	0
071719	14:34:29	14:37:18	167797	5.0.10.0	5_exp_noRW	64	Rpleas_acq	CS_A	JQQJ	CPPC	ZHHZ	DXXD	YFFY	LWWL	sonnig	vertrauen	genießen	träumen	küssen	gütig	sterben	versagen	gemein	töten	krank	gierig	53pct	acq_USunple_CSunple1_noRW	acq1_noRW	1	59	0	0	300	300	498	50	0	0	1	blank2r.bmp	0	1	+	0	1	blank2r.bmp	252	1	ZHHZ	306	2	versagen	559	1	FEHLER	1092	0	0	0	0	0	0	0	0	0	0	0	0	0	0	0	0	0	0	0	0	0	0	0	0	0	0	0	0	0	0	0	0	0	0	0	0
071719	14:34:29	14:37:19	169343	5.0.10.0	5_exp_noRW	64	Rpleas_acq	CS_A	JQQJ	CPPC	ZHHZ	DXXD	YFFY	LWWL	sonnig	vertrauen	genießen	träumen	küssen	gütig	sterben	versagen	gemein	töten	krank	gierig	47pct	acq_USunple_CSunple2_noRW	acq1_noRW	1	60	0	0	300	300	593	46	0	1	1	blank2r.bmp	0	1	+	0	1	blank2r.bmp	252	1	DXXD	306	3	gierig	559	0	0	0	0	0	0	0	0	0	0	0	0	0	0	0	0	0	0	0	0	0	0	0	0	0	0	0	0	0	0	0	0	0	0	0	0	0	0	0
071719	14:34:29	14:37:21	171142	5.0.10.0	5_exp_noRW	64	Rpleas_acq	CS_A	JQQJ	CPPC	ZHHZ	DXXD	YFFY	LWWL	sonnig	vertrauen	genießen	träumen	küssen	gütig	sterben	versagen	gemein	töten	krank	gierig	53pct	acq_USpleas_CSpleas1_noRW	acq1_noRW	1	61	0	0	300	300	614	50	0	1	1	blank2r.bmp	0	1	+	0	1	blank2r.bmp	252	1	JQQJ	306	2	vertrauen	559	0	0	0	0	0	0	0	0	0	0	0	0	0	0	0	0	0	0	0	0	0	0	0	0	0	0	0	0	0	0	0	0	0	0	0	0	0	0	0
071719	14:34:29	14:37:23	172848	5.0.10.0	5_exp_noRW	64	Rpleas_acq	CS_A	JQQJ	CPPC	ZHHZ	DXXD	YFFY	LWWL	sonnig	vertrauen	genießen	träumen	küssen	gütig	sterben	versagen	gemein	töten	krank	gierig	47pct	acq_USpleas_CSpleas2_noRW	acq1_noRW	1	62	0	0	300	300	534	50	0	1	1	blank2r.bmp	0	1	+	0	1	blank2r.bmp	252	1	CPPC	306	1	träumen	559	0	0	0	0	0	0	0	0	0	0	0	0	0	0	0	0	0	0	0	0	0	0	0	0	0	0	0	0	0	0	0	0	0	0	0	0	0	0	0
071719	14:34:29	14:37:25	174714	5.0.10.0	5_exp_noRW	64	Rpleas_acq	CS_A	JQQJ	CPPC	ZHHZ	DXXD	YFFY	LWWL	sonnig	vertrauen	genießen	träumen	küssen	gütig	sterben	versagen	gemein	töten	krank	gierig	53pct	acq_USpleas_CSunple2_noRW	acq1_noRW	1	63	0	0	300	300	484	46	0	0	1	blank2r.bmp	0	1	+	0	1	blank2r.bmp	252	1	DXXD	306	3	gütig	559	1	FEHLER	1079	0	0	0	0	0	0	0	0	0	0	0	0	0	0	0	0	0	0	0	0	0	0	0	0	0	0	0	0	0	0	0	0	0	0	0	0
071719	14:34:29	14:37:27	176753	5.0.10.0	5_exp_noRW	64	Rpleas_acq	CS_A	JQQJ	CPPC	ZHHZ	DXXD	YFFY	LWWL	sonnig	vertrauen	genießen	träumen	küssen	gütig	sterben	versagen	gemein	töten	krank	gierig	47pct	acq_USunple_CSunple2_noRW	acq1_noRW	1	64	0	0	300	300	1089	46	0	1	1	blank2r.bmp	0	1	+	0	1	blank2r.bmp	252	1	DXXD	306	2	krank	559	0	0	0	0	0	0	0	0	0	0	0	0	0	0	0	0	0	0	0	0	0	0	0	0	0	0	0	0	0	0	0	0	0	0	0	0	0	0	0
071719	14:34:29	14:37:28	178513	5.0.10.0	5_exp_noRW	64	Rpleas_acq	CS_A	JQQJ	CPPC	ZHHZ	DXXD	YFFY	LWWL	sonnig	vertrauen	genießen	träumen	küssen	gütig	sterben	versagen	gemein	töten	krank	gierig	47pct	acq_USunple_CSunple2_noRW	acq1_noRW	1	65	0	0	300	300	584	46	0	1	1	blank2r.bmp	0	1	+	0	1	blank2r.bmp	252	1	DXXD	306	3	gierig	559	0	0	0	0	0	0	0	0	0	0	0	0	0	0	0	0	0	0	0	0	0	0	0	0	0	0	0	0	0	0	0	0	0	0	0	0	0	0	0
071719	14:34:29	14:37:30	180539	5.0.10.0	5_exp_noRW	64	Rpleas_acq	CS_A	JQQJ	CPPC	ZHHZ	DXXD	YFFY	LWWL	sonnig	vertrauen	genießen	träumen	küssen	gütig	sterben	versagen	gemein	töten	krank	gierig	47pct	acq_USpleas_CSpleas2_noRW	acq1_noRW	1	66	0	0	300	300	847	50	0	1	1	blank2r.bmp	0	1	+	0	1	blank2r.bmp	252	1	CPPC	306	3	gütig	559	0	0	0	0	0	0	0	0	0	0	0	0	0	0	0	0	0	0	0	0	0	0	0	0	0	0	0	0	0	0	0	0	0	0	0	0	0	0	0
071719	14:34:29	14:37:32	182178	5.0.10.0	5_exp_noRW	64	Rpleas_acq	CS_A	JQQJ	CPPC	ZHHZ	DXXD	YFFY	LWWL	sonnig	vertrauen	genießen	träumen	küssen	gütig	sterben	versagen	gemein	töten	krank	gierig	47pct	acq_USpleas_CSpleas2_noRW	acq1_noRW	1	67	0	0	300	300	457	50	0	1	1	blank2r.bmp	0	1	+	0	1	blank2r.bmp	252	1	CPPC	306	2	küssen	559	0	0	0	0	0	0	0	0	0	0	0	0	0	0	0	0	0	0	0	0	0	0	0	0	0	0	0	0	0	0	0	0	0	0	0	0	0	0	0
071719	14:34:29	14:37:34	183884	5.0.10.0	5_exp_noRW	64	Rpleas_acq	CS_A	JQQJ	CPPC	ZHHZ	DXXD	YFFY	LWWL	sonnig	vertrauen	genießen	träumen	küssen	gütig	sterben	versagen	gemein	töten	krank	gierig	53pct	acq_USunple_CSunple2_noRW	acq1_noRW	1	68	0	0	300	300	529	46	0	1	1	blank2r.bmp	0	1	+	0	1	blank2r.bmp	252	1	DXXD	306	1	töten	559	0	0	0	0	0	0	0	0	0	0	0	0	0	0	0	0	0	0	0	0	0	0	0	0	0	0	0	0	0	0	0	0	0	0	0	0	0	0	0
071719	14:34:29	14:37:35	185550	5.0.10.0	5_exp_noRW	64	Rpleas_acq	CS_A	JQQJ	CPPC	ZHHZ	DXXD	YFFY	LWWL	sonnig	vertrauen	genießen	träumen	küssen	gütig	sterben	versagen	gemein	töten	krank	gierig	53pct	acq_USunple_CSunple1_noRW	acq1_noRW	1	69	0	0	300	300	487	46	0	1	1	blank2r.bmp	0	1	+	0	1	blank2r.bmp	252	1	ZHHZ	306	1	sterben	559	0	0	0	0	0	0	0	0	0	0	0	0	0	0	0	0	0	0	0	0	0	0	0	0	0	0	0	0	0	0	0	0	0	0	0	0	0	0	0
071719	14:34:29	14:37:37	187442	5.0.10.0	5_exp_noRW	64	Rpleas_acq	CS_A	JQQJ	CPPC	ZHHZ	DXXD	YFFY	LWWL	sonnig	vertrauen	genießen	träumen	küssen	gütig	sterben	versagen	gemein	töten	krank	gierig	47pct	acq_USunple_CSunple2_noRW	acq1_noRW	1	70	0	0	300	300	710	46	0	1	1	blank2r.bmp	0	1	+	0	1	blank2r.bmp	252	1	DXXD	306	3	gierig	559	0	0	0	0	0	0	0	0	0	0	0	0	0	0	0	0	0	0	0	0	0	0	0	0	0	0	0	0	0	0	0	0	0	0	0	0	0	0	0
071719	14:34:29	14:37:39	189415	5.0.10.0	5_exp_noRW	64	Rpleas_acq	CS_A	JQQJ	CPPC	ZHHZ	DXXD	YFFY	LWWL	sonnig	vertrauen	genießen	träumen	küssen	gütig	sterben	versagen	gemein	töten	krank	gierig	47pct	acq_USpleas_CSunple1_noRW	acq1_noRW	1	71	0	0	300	300	799	50	0	1	1	blank2r.bmp	0	1	+	0	1	blank2r.bmp	252	1	ZHHZ	306	1	sonnig	559	0	0	0	0	0	0	0	0	0	0	0	0	0	0	0	0	0	0	0	0	0	0	0	0	0	0	0	0	0	0	0	0	0	0	0	0	0	0	0
071719	14:34:29	14:37:42	191747	5.0.10.0	5_exp_noRW	64	Rpleas_acq	CS_A	JQQJ	CPPC	ZHHZ	DXXD	YFFY	LWWL	sonnig	vertrauen	genießen	träumen	küssen	gütig	sterben	versagen	gemein	töten	krank	gierig	53pct	acq_USunple_CSpleas2_noRW	acq1_noRW	1	72	0	0	300	300	1164	46	0	1	1	blank2r.bmp	0	1	+	0	1	blank2r.bmp	252	1	CPPC	306	3	gierig	559	0	0	0	0	0	0	0	0	0	0	0	0	0	0	0	0	0	0	0	0	0	0	0	0	0	0	0	0	0	0	0	0	0	0	0	0	0	0	0
071719	14:34:29	14:37:44	194173	5.0.10.0	5_exp_noRW	64	Rpleas_acq	CS_A	JQQJ	CPPC	ZHHZ	DXXD	YFFY	LWWL	sonnig	vertrauen	genießen	träumen	küssen	gütig	sterben	versagen	gemein	töten	krank	gierig	47pct	acq_USpleas_CSpleas1_noRW	acq1_noRW	1	73	0	0	300	300	1262	50	0	1	1	blank2r.bmp	0	1	+	0	1	blank2r.bmp	252	1	JQQJ	306	1	sonnig	559	0	0	0	0	0	0	0	0	0	0	0	0	0	0	0	0	0	0	0	0	0	0	0	0	0	0	0	0	0	0	0	0	0	0	0	0	0	0	0
071719	14:34:29	14:37:46	195826	5.0.10.0	5_exp_noRW	64	Rpleas_acq	CS_A	JQQJ	CPPC	ZHHZ	DXXD	YFFY	LWWL	sonnig	vertrauen	genießen	träumen	küssen	gütig	sterben	versagen	gemein	töten	krank	gierig	47pct	acq_USpleas_CSpleas2_noRW	acq1_noRW	1	74	0	0	300	300	476	50	0	1	1	blank2r.bmp	0	1	+	0	1	blank2r.bmp	252	1	CPPC	306	2	küssen	559	0	0	0	0	0	0	0	0	0	0	0	0	0	0	0	0	0	0	0	0	0	0	0	0	0	0	0	0	0	0	0	0	0	0	0	0	0	0	0
071719	14:34:29	14:37:47	197465	5.0.10.0	5_exp_noRW	64	Rpleas_acq	CS_A	JQQJ	CPPC	ZHHZ	DXXD	YFFY	LWWL	sonnig	vertrauen	genießen	träumen	küssen	gütig	sterben	versagen	gemein	töten	krank	gierig	47pct	acq_USunple_CSunple1_noRW	acq1_noRW	1	75	0	0	300	300	464	46	0	1	1	blank2r.bmp	0	1	+	0	1	blank2r.bmp	252	1	ZHHZ	306	3	gemein	559	0	0	0	0	0	0	0	0	0	0	0	0	0	0	0	0	0	0	0	0	0	0	0	0	0	0	0	0	0	0	0	0	0	0	0	0	0	0	0
071719	14:34:29	14:37:49	199211	5.0.10.0	5_exp_noRW	64	Rpleas_acq	CS_A	JQQJ	CPPC	ZHHZ	DXXD	YFFY	LWWL	sonnig	vertrauen	genießen	träumen	küssen	gütig	sterben	versagen	gemein	töten	krank	gierig	53pct	acq_USpleas_CSpleas1_noRW	acq1_noRW	1	76	0	0	300	300	561	50	0	1	1	blank2r.bmp	0	1	+	0	1	blank2r.bmp	252	1	JQQJ	306	3	genießen	559	0	0	0	0	0	0	0	0	0	0	0	0	0	0	0	0	0	0	0	0	0	0	0	0	0	0	0	0	0	0	0	0	0	0	0	0	0	0	0
071719	14:34:29	14:37:51	200797	5.0.10.0	5_exp_noRW	64	Rpleas_acq	CS_A	JQQJ	CPPC	ZHHZ	DXXD	YFFY	LWWL	sonnig	vertrauen	genießen	träumen	küssen	gütig	sterben	versagen	gemein	töten	krank	gierig	53pct	acq_USpleas_CSpleas1_noRW	acq1_noRW	1	77	0	0	300	300	420	50	0	1	1	blank2r.bmp	0	1	+	0	1	blank2r.bmp	252	1	JQQJ	306	1	sonnig	559	0	0	0	0	0	0	0	0	0	0	0	0	0	0	0	0	0	0	0	0	0	0	0	0	0	0	0	0	0	0	0	0	0	0	0	0	0	0	0
071719	14:34:29	14:37:52	202476	5.0.10.0	5_exp_noRW	64	Rpleas_acq	CS_A	JQQJ	CPPC	ZHHZ	DXXD	YFFY	LWWL	sonnig	vertrauen	genießen	träumen	küssen	gütig	sterben	versagen	gemein	töten	krank	gierig	47pct	acq_USunple_CSpleas1_noRW	acq1_noRW	1	78	0	0	300	300	516	46	0	1	1	blank2r.bmp	0	1	+	0	1	blank2r.bmp	252	1	JQQJ	306	1	sterben	559	0	0	0	0	0	0	0	0	0	0	0	0	0	0	0	0	0	0	0	0	0	0	0	0	0	0	0	0	0	0	0	0	0	0	0	0	0	0	0
071719	14:34:29	14:37:54	204422	5.0.10.0	5_exp_noRW	64	Rpleas_acq	CS_A	JQQJ	CPPC	ZHHZ	DXXD	YFFY	LWWL	sonnig	vertrauen	genießen	träumen	küssen	gütig	sterben	versagen	gemein	töten	krank	gierig	53pct	acq_USunple_CSunple1_noRW	acq1_noRW	1	79	0	0	300	300	767	46	0	1	1	blank2r.bmp	0	1	+	0	1	blank2r.bmp	252	1	ZHHZ	306	2	versagen	559	0	0	0	0	0	0	0	0	0	0	0	0	0	0	0	0	0	0	0	0	0	0	0	0	0	0	0	0	0	0	0	0	0	0	0	0	0	0	0
071719	14:34:29	14:37:56	206061	5.0.10.0	5_exp_noRW	64	Rpleas_acq	CS_A	JQQJ	CPPC	ZHHZ	DXXD	YFFY	LWWL	sonnig	vertrauen	genießen	träumen	küssen	gütig	sterben	versagen	gemein	töten	krank	gierig	47pct	acq_USunple_CSunple1_noRW	acq1_noRW	1	80	0	0	300	300	462	46	0	1	1	blank2r.bmp	0	1	+	0	1	blank2r.bmp	252	1	ZHHZ	306	1	sterben	559	0	0	0	0	0	0	0	0	0	0	0	0	0	0	0	0	0	0	0	0	0	0	0	0	0	0	0	0	0	0	0	0	0	0	0	0	0	0	0
071719	14:34:29	14:38:14	224374	5.0.10.0	5_exp_noRW	64	Rpleas_acq	CS_A	JQQJ	CPPC	ZHHZ	DXXD	YFFY	LWWL	sonnig	vertrauen	genießen	träumen	küssen	gütig	sterben	versagen	gemein	töten	krank	gierig	53pct	acq_USunple_CSunple2_noRW	acq23456_noRW	2	1	0	0	300	300	455	46	0	1	1	blank2r.bmp	0	1	+	0	1	blank2r.bmp	252	1	DXXD	306	1	töten	559	0	0	0	0	0	0	0	0	0	0	0	0	0	0	0	0	0	0	0	0	0	0	0	0	0	0	0	0	0	0	0	0	0	0	0	0	0	0	0
071719	14:34:29	14:38:16	226107	5.0.10.0	5_exp_noRW	64	Rpleas_acq	CS_A	JQQJ	CPPC	ZHHZ	DXXD	YFFY	LWWL	sonnig	vertrauen	genießen	träumen	küssen	gütig	sterben	versagen	gemein	töten	krank	gierig	47pct	acq_USpleas_CSpleas1_noRW	acq23456_noRW	2	2	0	0	300	300	559	50	0	1	1	blank2r.bmp	0	1	+	0	1	blank2r.bmp	252	1	JQQJ	306	2	vertrauen	559	0	0	0	0	0	0	0	0	0	0	0	0	0	0	0	0	0	0	0	0	0	0	0	0	0	0	0	0	0	0	0	0	0	0	0	0	0	0	0
071719	14:34:29	14:38:18	227706	5.0.10.0	5_exp_noRW	64	Rpleas_acq	CS_A	JQQJ	CPPC	ZHHZ	DXXD	YFFY	LWWL	sonnig	vertrauen	genießen	träumen	küssen	gütig	sterben	versagen	gemein	töten	krank	gierig	47pct	acq_USunple_CSunple2_noRW	acq23456_noRW	2	3	0	0	300	300	434	46	0	1	1	blank2r.bmp	0	1	+	0	1	blank2r.bmp	252	1	DXXD	306	2	krank	559	0	0	0	0	0	0	0	0	0	0	0	0	0	0	0	0	0	0	0	0	0	0	0	0	0	0	0	0	0	0	0	0	0	0	0	0	0	0	0
071719	14:34:29	14:38:19	229292	5.0.10.0	5_exp_noRW	64	Rpleas_acq	CS_A	JQQJ	CPPC	ZHHZ	DXXD	YFFY	LWWL	sonnig	vertrauen	genießen	träumen	küssen	gütig	sterben	versagen	gemein	töten	krank	gierig	47pct	acq_USpleas_CSpleas1_noRW	acq23456_noRW	2	4	0	0	300	300	424	50	0	1	1	blank2r.bmp	0	1	+	0	1	blank2r.bmp	252	1	JQQJ	306	3	genießen	559	0	0	0	0	0	0	0	0	0	0	0	0	0	0	0	0	0	0	0	0	0	0	0	0	0	0	0	0	0	0	0	0	0	0	0	0	0	0	0
071719	14:34:29	14:38:21	230891	5.0.10.0	5_exp_noRW	64	Rpleas_acq	CS_A	JQQJ	CPPC	ZHHZ	DXXD	YFFY	LWWL	sonnig	vertrauen	genießen	träumen	küssen	gütig	sterben	versagen	gemein	töten	krank	gierig	47pct	acq_USunple_CSunple2_noRW	acq23456_noRW	2	5	0	0	300	300	423	46	0	1	1	blank2r.bmp	0	1	+	0	1	blank2r.bmp	252	1	DXXD	306	2	krank	559	0	0	0	0	0	0	0	0	0	0	0	0	0	0	0	0	0	0	0	0	0	0	0	0	0	0	0	0	0	0	0	0	0	0	0	0	0	0	0
071719	14:34:29	14:38:22	232517	5.0.10.0	5_exp_noRW	64	Rpleas_acq	CS_A	JQQJ	CPPC	ZHHZ	DXXD	YFFY	LWWL	sonnig	vertrauen	genießen	träumen	küssen	gütig	sterben	versagen	gemein	töten	krank	gierig	47pct	acq_USunple_CSpleas1_noRW	acq23456_noRW	2	6	0	0	300	300	450	46	0	1	1	blank2r.bmp	0	1	+	0	1	blank2r.bmp	252	1	JQQJ	306	3	gemein	559	0	0	0	0	0	0	0	0	0	0	0	0	0	0	0	0	0	0	0	0	0	0	0	0	0	0	0	0	0	0	0	0	0	0	0	0	0	0	0
071719	14:34:29	14:38:24	234063	5.0.10.0	5_exp_noRW	64	Rpleas_acq	CS_A	JQQJ	CPPC	ZHHZ	DXXD	YFFY	LWWL	sonnig	vertrauen	genießen	träumen	küssen	gütig	sterben	versagen	gemein	töten	krank	gierig	47pct	acq_USpleas_CSpleas2_noRW	acq23456_noRW	2	7	0	0	300	300	364	50	0	1	1	blank2r.bmp	0	1	+	0	1	blank2r.bmp	252	1	CPPC	306	3	gütig	559	0	0	0	0	0	0	0	0	0	0	0	0	0	0	0	0	0	0	0	0	0	0	0	0	0	0	0	0	0	0	0	0	0	0	0	0	0	0	0
071719	14:34:29	14:38:25	235623	5.0.10.0	5_exp_noRW	64	Rpleas_acq	CS_A	JQQJ	CPPC	ZHHZ	DXXD	YFFY	LWWL	sonnig	vertrauen	genießen	träumen	küssen	gütig	sterben	versagen	gemein	töten	krank	gierig	53pct	acq_USunple_CSunple2_noRW	acq23456_noRW	2	8	0	0	300	300	375	46	0	1	1	blank2r.bmp	0	1	+	0	1	blank2r.bmp	252	1	DXXD	306	1	töten	559	0	0	0	0	0	0	0	0	0	0	0	0	0	0	0	0	0	0	0	0	0	0	0	0	0	0	0	0	0	0	0	0	0	0	0	0	0	0	0
071719	14:34:29	14:38:27	237502	5.0.10.0	5_exp_noRW	64	Rpleas_acq	CS_A	JQQJ	CPPC	ZHHZ	DXXD	YFFY	LWWL	sonnig	vertrauen	genießen	träumen	küssen	gütig	sterben	versagen	gemein	töten	krank	gierig	53pct	acq_USunple_CSunple1_noRW	acq23456_noRW	2	9	0	0	300	300	718	46	0	1	1	blank2r.bmp	0	1	+	0	1	blank2r.bmp	252	1	ZHHZ	306	2	versagen	559	0	0	0	0	0	0	0	0	0	0	0	0	0	0	0	0	0	0	0	0	0	0	0	0	0	0	0	0	0	0	0	0	0	0	0	0	0	0	0
071719	14:34:29	14:38:29	239315	5.0.10.0	5_exp_noRW	64	Rpleas_acq	CS_A	JQQJ	CPPC	ZHHZ	DXXD	YFFY	LWWL	sonnig	vertrauen	genießen	träumen	küssen	gütig	sterben	versagen	gemein	töten	krank	gierig	47pct	acq_USunple_CSunple1_noRW	acq23456_noRW	2	10	0	0	300	300	624	46	0	1	1	blank2r.bmp	0	1	+	0	1	blank2r.bmp	252	1	ZHHZ	306	3	gemein	559	0	0	0	0	0	0	0	0	0	0	0	0	0	0	0	0	0	0	0	0	0	0	0	0	0	0	0	0	0	0	0	0	0	0	0	0	0	0	0
071719	14:34:29	14:38:31	240847	5.0.10.0	5_exp_noRW	64	Rpleas_acq	CS_A	JQQJ	CPPC	ZHHZ	DXXD	YFFY	LWWL	sonnig	vertrauen	genießen	träumen	küssen	gütig	sterben	versagen	gemein	töten	krank	gierig	53pct	acq_USpleas_CSpleas1_noRW	acq23456_noRW	2	11	0	0	300	300	347	50	0	1	1	blank2r.bmp	0	1	+	0	1	blank2r.bmp	252	1	JQQJ	306	3	genießen	559	0	0	0	0	0	0	0	0	0	0	0	0	0	0	0	0	0	0	0	0	0	0	0	0	0	0	0	0	0	0	0	0	0	0	0	0	0	0	0
071719	14:34:29	14:38:32	242420	5.0.10.0	5_exp_noRW	64	Rpleas_acq	CS_A	JQQJ	CPPC	ZHHZ	DXXD	YFFY	LWWL	sonnig	vertrauen	genießen	träumen	küssen	gütig	sterben	versagen	gemein	töten	krank	gierig	53pct	acq_USpleas_CSunple1_noRW	acq23456_noRW	2	12	0	0	300	300	406	50	0	1	1	blank2r.bmp	0	1	+	0	1	blank2r.bmp	252	1	ZHHZ	306	3	genießen	559	0	0	0	0	0	0	0	0	0	0	0	0	0	0	0	0	0	0	0	0	0	0	0	0	0	0	0	0	0	0	0	0	0	0	0	0	0	0	0
071719	14:34:29	14:38:34	243979	5.0.10.0	5_exp_noRW	64	Rpleas_acq	CS_A	JQQJ	CPPC	ZHHZ	DXXD	YFFY	LWWL	sonnig	vertrauen	genießen	träumen	küssen	gütig	sterben	versagen	gemein	töten	krank	gierig	53pct	acq_USunple_CSunple1_noRW	acq23456_noRW	2	13	0	0	300	300	391	46	0	1	1	blank2r.bmp	0	1	+	0	1	blank2r.bmp	252	1	ZHHZ	306	1	sterben	559	0	0	0	0	0	0	0	0	0	0	0	0	0	0	0	0	0	0	0	0	0	0	0	0	0	0	0	0	0	0	0	0	0	0	0	0	0	0	0
071719	14:34:29	14:38:35	245659	5.0.10.0	5_exp_noRW	64	Rpleas_acq	CS_A	JQQJ	CPPC	ZHHZ	DXXD	YFFY	LWWL	sonnig	vertrauen	genießen	träumen	küssen	gütig	sterben	versagen	gemein	töten	krank	gierig	47pct	acq_USpleas_CSpleas2_noRW	acq23456_noRW	2	14	0	0	300	300	510	50	0	1	1	blank2r.bmp	0	1	+	0	1	blank2r.bmp	252	1	CPPC	306	1	träumen	559	0	0	0	0	0	0	0	0	0	0	0	0	0	0	0	0	0	0	0	0	0	0	0	0	0	0	0	0	0	0	0	0	0	0	0	0	0	0	0
071719	14:34:29	14:38:37	247445	5.0.10.0	5_exp_noRW	64	Rpleas_acq	CS_A	JQQJ	CPPC	ZHHZ	DXXD	YFFY	LWWL	sonnig	vertrauen	genießen	träumen	küssen	gütig	sterben	versagen	gemein	töten	krank	gierig	53pct	acq_USpleas_CSpleas1_noRW	acq23456_noRW	2	15	0	0	300	300	607	50	0	1	1	blank2r.bmp	0	1	+	0	1	blank2r.bmp	252	1	JQQJ	306	2	vertrauen	559	0	0	0	0	0	0	0	0	0	0	0	0	0	0	0	0	0	0	0	0	0	0	0	0	0	0	0	0	0	0	0	0	0	0	0	0	0	0	0
071719	14:34:29	14:38:39	249430	5.0.10.0	5_exp_noRW	64	Rpleas_acq	CS_A	JQQJ	CPPC	ZHHZ	DXXD	YFFY	LWWL	sonnig	vertrauen	genießen	träumen	küssen	gütig	sterben	versagen	gemein	töten	krank	gierig	53pct	acq_USunple_CSunple1_noRW	acq23456_noRW	2	16	0	0	300	300	590	50	0	0	1	blank2r.bmp	0	1	+	0	1	blank2r.bmp	252	1	ZHHZ	306	2	versagen	559	1	FEHLER	1186	0	0	0	0	0	0	0	0	0	0	0	0	0	0	0	0	0	0	0	0	0	0	0	0	0	0	0	0	0	0	0	0	0	0	0	0
071719	14:34:29	14:38:41	251163	5.0.10.0	5_exp_noRW	64	Rpleas_acq	CS_A	JQQJ	CPPC	ZHHZ	DXXD	YFFY	LWWL	sonnig	vertrauen	genießen	träumen	küssen	gütig	sterben	versagen	gemein	töten	krank	gierig	47pct	acq_USpleas_CSpleas2_noRW	acq23456_noRW	2	17	0	0	300	300	777	50	0	1	1	blank2r.bmp	0	1	+	0	1	blank2r.bmp	252	1	CPPC	306	3	gütig	559	0	0	0	0	0	0	0	0	0	0	0	0	0	0	0	0	0	0	0	0	0	0	0	0	0	0	0	0	0	0	0	0	0	0	0	0	0	0	0
071719	14:34:29	14:38:43	252869	5.0.10.0	5_exp_noRW	64	Rpleas_acq	CS_A	JQQJ	CPPC	ZHHZ	DXXD	YFFY	LWWL	sonnig	vertrauen	genießen	träumen	küssen	gütig	sterben	versagen	gemein	töten	krank	gierig	53pct	acq_USpleas_CSunple2_noRW	acq23456_noRW	2	18	0	0	300	300	523	50	0	1	1	blank2r.bmp	0	1	+	0	1	blank2r.bmp	252	1	DXXD	306	2	küssen	559	0	0	0	0	0	0	0	0	0	0	0	0	0	0	0	0	0	0	0	0	0	0	0	0	0	0	0	0	0	0	0	0	0	0	0	0	0	0	0
071719	14:34:29	14:38:44	254455	5.0.10.0	5_exp_noRW	64	Rpleas_acq	CS_A	JQQJ	CPPC	ZHHZ	DXXD	YFFY	LWWL	sonnig	vertrauen	genießen	träumen	küssen	gütig	sterben	versagen	gemein	töten	krank	gierig	53pct	acq_USunple_CSpleas2_noRW	acq23456_noRW	2	19	0	0	300	300	413	46	0	1	1	blank2r.bmp	0	1	+	0	1	blank2r.bmp	252	1	CPPC	306	1	töten	559	0	0	0	0	0	0	0	0	0	0	0	0	0	0	0	0	0	0	0	0	0	0	0	0	0	0	0	0	0	0	0	0	0	0	0	0	0	0	0
071719	14:34:29	14:38:46	256134	5.0.10.0	5_exp_noRW	64	Rpleas_acq	CS_A	JQQJ	CPPC	ZHHZ	DXXD	YFFY	LWWL	sonnig	vertrauen	genießen	träumen	küssen	gütig	sterben	versagen	gemein	töten	krank	gierig	47pct	acq_USpleas_CSpleas2_noRW	acq23456_noRW	2	20	0	0	300	300	518	50	0	1	1	blank2r.bmp	0	1	+	0	1	blank2r.bmp	252	1	CPPC	306	1	träumen	559	0	0	0	0	0	0	0	0	0	0	0	0	0	0	0	0	0	0	0	0	0	0	0	0	0	0	0	0	0	0	0	0	0	0	0	0	0	0	0
071719	14:34:29	14:38:48	257800	5.0.10.0	5_exp_noRW	64	Rpleas_acq	CS_A	JQQJ	CPPC	ZHHZ	DXXD	YFFY	LWWL	sonnig	vertrauen	genießen	träumen	küssen	gütig	sterben	versagen	gemein	töten	krank	gierig	53pct	acq_USunple_CSunple1_noRW	acq23456_noRW	2	21	0	0	300	300	479	46	0	1	1	blank2r.bmp	0	1	+	0	1	blank2r.bmp	252	1	ZHHZ	306	3	gemein	559	0	0	0	0	0	0	0	0	0	0	0	0	0	0	0	0	0	0	0	0	0	0	0	0	0	0	0	0	0	0	0	0	0	0	0	0	0	0	0
071719	14:34:29	14:38:49	259413	5.0.10.0	5_exp_noRW	64	Rpleas_acq	CS_A	JQQJ	CPPC	ZHHZ	DXXD	YFFY	LWWL	sonnig	vertrauen	genießen	träumen	küssen	gütig	sterben	versagen	gemein	töten	krank	gierig	47pct	acq_USpleas_CSpleas2_noRW	acq23456_noRW	2	22	0	0	300	300	443	50	0	1	1	blank2r.bmp	0	1	+	0	1	blank2r.bmp	252	1	CPPC	306	2	küssen	559	0	0	0	0	0	0	0	0	0	0	0	0	0	0	0	0	0	0	0	0	0	0	0	0	0	0	0	0	0	0	0	0	0	0	0	0	0	0	0
071719	14:34:29	14:38:51	260946	5.0.10.0	5_exp_noRW	64	Rpleas_acq	CS_A	JQQJ	CPPC	ZHHZ	DXXD	YFFY	LWWL	sonnig	vertrauen	genießen	träumen	küssen	gütig	sterben	versagen	gemein	töten	krank	gierig	53pct	acq_USpleas_CSpleas2_noRW	acq23456_noRW	2	23	0	0	300	300	355	50	0	1	1	blank2r.bmp	0	1	+	0	1	blank2r.bmp	252	1	CPPC	306	3	gütig	559	0	0	0	0	0	0	0	0	0	0	0	0	0	0	0	0	0	0	0	0	0	0	0	0	0	0	0	0	0	0	0	0	0	0	0	0	0	0	0
071719	14:34:29	14:38:52	262532	5.0.10.0	5_exp_noRW	64	Rpleas_acq	CS_A	JQQJ	CPPC	ZHHZ	DXXD	YFFY	LWWL	sonnig	vertrauen	genießen	träumen	küssen	gütig	sterben	versagen	gemein	töten	krank	gierig	53pct	acq_USpleas_CSpleas1_noRW	acq23456_noRW	2	24	0	0	300	300	405	50	0	1	1	blank2r.bmp	0	1	+	0	1	blank2r.bmp	252	1	JQQJ	306	1	sonnig	559	0	0	0	0	0	0	0	0	0	0	0	0	0	0	0	0	0	0	0	0	0	0	0	0	0	0	0	0	0	0	0	0	0	0	0	0	0	0	0
071719	14:34:29	14:38:54	264171	5.0.10.0	5_exp_noRW	64	Rpleas_acq	CS_A	JQQJ	CPPC	ZHHZ	DXXD	YFFY	LWWL	sonnig	vertrauen	genießen	träumen	küssen	gütig	sterben	versagen	gemein	töten	krank	gierig	47pct	acq_USpleas_CSpleas1_noRW	acq23456_noRW	2	25	0	0	300	300	457	50	0	1	1	blank2r.bmp	0	1	+	0	1	blank2r.bmp	252	1	JQQJ	306	2	vertrauen	559	0	0	0	0	0	0	0	0	0	0	0	0	0	0	0	0	0	0	0	0	0	0	0	0	0	0	0	0	0	0	0	0	0	0	0	0	0	0	0
071719	14:34:29	14:38:56	265877	5.0.10.0	5_exp_noRW	64	Rpleas_acq	CS_A	JQQJ	CPPC	ZHHZ	DXXD	YFFY	LWWL	sonnig	vertrauen	genießen	träumen	küssen	gütig	sterben	versagen	gemein	töten	krank	gierig	53pct	acq_USunple_CSunple1_noRW	acq23456_noRW	2	26	0	0	300	300	523	46	0	1	1	blank2r.bmp	0	1	+	0	1	blank2r.bmp	252	1	ZHHZ	306	1	sterben	559	0	0	0	0	0	0	0	0	0	0	0	0	0	0	0	0	0	0	0	0	0	0	0	0	0	0	0	0	0	0	0	0	0	0	0	0	0	0	0
071719	14:34:29	14:38:57	267516	5.0.10.0	5_exp_noRW	64	Rpleas_acq	CS_A	JQQJ	CPPC	ZHHZ	DXXD	YFFY	LWWL	sonnig	vertrauen	genießen	träumen	küssen	gütig	sterben	versagen	gemein	töten	krank	gierig	47pct	acq_USunple_CSunple2_noRW	acq23456_noRW	2	27	0	0	300	300	463	46	0	1	1	blank2r.bmp	0	1	+	0	1	blank2r.bmp	252	1	DXXD	306	3	gierig	559	0	0	0	0	0	0	0	0	0	0	0	0	0	0	0	0	0	0	0	0	0	0	0	0	0	0	0	0	0	0	0	0	0	0	0	0	0	0	0
071719	14:34:29	14:38:59	269182	5.0.10.0	5_exp_noRW	64	Rpleas_acq	CS_A	JQQJ	CPPC	ZHHZ	DXXD	YFFY	LWWL	sonnig	vertrauen	genießen	träumen	küssen	gütig	sterben	versagen	gemein	töten	krank	gierig	47pct	acq_USpleas_CSpleas1_noRW	acq23456_noRW	2	28	0	0	300	300	492	50	0	1	1	blank2r.bmp	0	1	+	0	1	blank2r.bmp	252	1	JQQJ	306	3	genießen	559	0	0	0	0	0	0	0	0	0	0	0	0	0	0	0	0	0	0	0	0	0	0	0	0	0	0	0	0	0	0	0	0	0	0	0	0	0	0	0
071719	14:34:29	14:39:01	270875	5.0.10.0	5_exp_noRW	64	Rpleas_acq	CS_A	JQQJ	CPPC	ZHHZ	DXXD	YFFY	LWWL	sonnig	vertrauen	genießen	träumen	küssen	gütig	sterben	versagen	gemein	töten	krank	gierig	47pct	acq_USpleas_CSunple1_noRW	acq23456_noRW	2	29	0	0	300	300	514	50	0	1	1	blank2r.bmp	0	1	+	0	1	blank2r.bmp	252	1	ZHHZ	306	2	vertrauen	559	0	0	0	0	0	0	0	0	0	0	0	0	0	0	0	0	0	0	0	0	0	0	0	0	0	0	0	0	0	0	0	0	0	0	0	0	0	0	0
071719	14:34:29	14:39:02	272461	5.0.10.0	5_exp_noRW	64	Rpleas_acq	CS_A	JQQJ	CPPC	ZHHZ	DXXD	YFFY	LWWL	sonnig	vertrauen	genießen	träumen	küssen	gütig	sterben	versagen	gemein	töten	krank	gierig	53pct	acq_USunple_CSpleas2_noRW	acq23456_noRW	2	30	0	0	300	300	400	46	0	1	1	blank2r.bmp	0	1	+	0	1	blank2r.bmp	252	1	CPPC	306	2	krank	559	0	0	0	0	0	0	0	0	0	0	0	0	0	0	0	0	0	0	0	0	0	0	0	0	0	0	0	0	0	0	0	0	0	0	0	0	0	0	0
071719	14:34:29	14:39:04	274100	5.0.10.0	5_exp_noRW	64	Rpleas_acq	CS_A	JQQJ	CPPC	ZHHZ	DXXD	YFFY	LWWL	sonnig	vertrauen	genießen	träumen	küssen	gütig	sterben	versagen	gemein	töten	krank	gierig	53pct	acq_USunple_CSunple2_noRW	acq23456_noRW	2	31	0	0	300	300	467	46	0	1	1	blank2r.bmp	0	1	+	0	1	blank2r.bmp	252	1	DXXD	306	1	töten	559	0	0	0	0	0	0	0	0	0	0	0	0	0	0	0	0	0	0	0	0	0	0	0	0	0	0	0	0	0	0	0	0	0	0	0	0	0	0	0
071719	14:34:29	14:39:06	276033	5.0.10.0	5_exp_noRW	64	Rpleas_acq	CS_A	JQQJ	CPPC	ZHHZ	DXXD	YFFY	LWWL	sonnig	vertrauen	genießen	träumen	küssen	gütig	sterben	versagen	gemein	töten	krank	gierig	53pct	acq_USunple_CSunple1_noRW	acq23456_noRW	2	32	0	0	300	300	769	46	0	1	1	blank2r.bmp	0	1	+	0	1	blank2r.bmp	252	1	ZHHZ	306	3	gemein	559	0	0	0	0	0	0	0	0	0	0	0	0	0	0	0	0	0	0	0	0	0	0	0	0	0	0	0	0	0	0	0	0	0	0	0	0	0	0	0
071719	14:34:29	14:39:07	277645	5.0.10.0	5_exp_noRW	64	Rpleas_acq	CS_A	JQQJ	CPPC	ZHHZ	DXXD	YFFY	LWWL	sonnig	vertrauen	genießen	träumen	küssen	gütig	sterben	versagen	gemein	töten	krank	gierig	53pct	acq_USpleas_CSpleas1_noRW	acq23456_noRW	2	33	0	0	300	300	434	50	0	1	1	blank2r.bmp	0	1	+	0	1	blank2r.bmp	252	1	JQQJ	306	1	sonnig	559	0	0	0	0	0	0	0	0	0	0	0	0	0	0	0	0	0	0	0	0	0	0	0	0	0	0	0	0	0	0	0	0	0	0	0	0	0	0	0
071719	14:34:29	14:39:09	279245	5.0.10.0	5_exp_noRW	64	Rpleas_acq	CS_A	JQQJ	CPPC	ZHHZ	DXXD	YFFY	LWWL	sonnig	vertrauen	genießen	träumen	küssen	gütig	sterben	versagen	gemein	töten	krank	gierig	47pct	acq_USpleas_CSpleas2_noRW	acq23456_noRW	2	34	0	0	300	300	418	50	0	1	1	blank2r.bmp	0	1	+	0	1	blank2r.bmp	252	1	CPPC	306	2	küssen	559	0	0	0	0	0	0	0	0	0	0	0	0	0	0	0	0	0	0	0	0	0	0	0	0	0	0	0	0	0	0	0	0	0	0	0	0	0	0	0
071719	14:34:29	14:39:11	281057	5.0.10.0	5_exp_noRW	64	Rpleas_acq	CS_A	JQQJ	CPPC	ZHHZ	DXXD	YFFY	LWWL	sonnig	vertrauen	genießen	träumen	küssen	gütig	sterben	versagen	gemein	töten	krank	gierig	53pct	acq_USunple_CSunple2_noRW	acq23456_noRW	2	35	0	0	300	300	625	46	0	1	1	blank2r.bmp	0	1	+	0	1	blank2r.bmp	252	1	DXXD	306	3	gierig	559	0	0	0	0	0	0	0	0	0	0	0	0	0	0	0	0	0	0	0	0	0	0	0	0	0	0	0	0	0	0	0	0	0	0	0	0	0	0	0
071719	14:34:29	14:39:13	282777	5.0.10.0	5_exp_noRW	64	Rpleas_acq	CS_A	JQQJ	CPPC	ZHHZ	DXXD	YFFY	LWWL	sonnig	vertrauen	genießen	träumen	küssen	gütig	sterben	versagen	gemein	töten	krank	gierig	47pct	acq_USunple_CSunple1_noRW	acq23456_noRW	2	36	0	0	300	300	546	46	0	1	1	blank2r.bmp	0	1	+	0	1	blank2r.bmp	252	1	ZHHZ	306	2	versagen	559	0	0	0	0	0	0	0	0	0	0	0	0	0	0	0	0	0	0	0	0	0	0	0	0	0	0	0	0	0	0	0	0	0	0	0	0	0	0	0
071719	14:34:29	14:39:14	284336	5.0.10.0	5_exp_noRW	64	Rpleas_acq	CS_A	JQQJ	CPPC	ZHHZ	DXXD	YFFY	LWWL	sonnig	vertrauen	genießen	träumen	küssen	gütig	sterben	versagen	gemein	töten	krank	gierig	53pct	acq_USunple_CSunple2_noRW	acq23456_noRW	2	37	0	0	300	300	388	46	0	1	1	blank2r.bmp	0	1	+	0	1	blank2r.bmp	252	1	DXXD	306	2	krank	559	0	0	0	0	0	0	0	0	0	0	0	0	0	0	0	0	0	0	0	0	0	0	0	0	0	0	0	0	0	0	0	0	0	0	0	0	0	0	0
071719	14:34:29	14:39:16	286042	5.0.10.0	5_exp_noRW	64	Rpleas_acq	CS_A	JQQJ	CPPC	ZHHZ	DXXD	YFFY	LWWL	sonnig	vertrauen	genießen	träumen	küssen	gütig	sterben	versagen	gemein	töten	krank	gierig	47pct	acq_USpleas_CSunple2_noRW	acq23456_noRW	2	38	0	0	300	300	533	50	0	1	1	blank2r.bmp	0	1	+	0	1	blank2r.bmp	252	1	DXXD	306	1	träumen	559	0	0	0	0	0	0	0	0	0	0	0	0	0	0	0	0	0	0	0	0	0	0	0	0	0	0	0	0	0	0	0	0	0	0	0	0	0	0	0
071719	14:34:29	14:39:18	287708	5.0.10.0	5_exp_noRW	64	Rpleas_acq	CS_A	JQQJ	CPPC	ZHHZ	DXXD	YFFY	LWWL	sonnig	vertrauen	genießen	träumen	küssen	gütig	sterben	versagen	gemein	töten	krank	gierig	47pct	acq_USpleas_CSpleas2_noRW	acq23456_noRW	2	39	0	0	300	300	498	50	0	1	1	blank2r.bmp	0	1	+	0	1	blank2r.bmp	252	1	CPPC	306	1	träumen	559	0	0	0	0	0	0	0	0	0	0	0	0	0	0	0	0	0	0	0	0	0	0	0	0	0	0	0	0	0	0	0	0	0	0	0	0	0	0	0
071719	14:34:29	14:39:19	289307	5.0.10.0	5_exp_noRW	64	Rpleas_acq	CS_A	JQQJ	CPPC	ZHHZ	DXXD	YFFY	LWWL	sonnig	vertrauen	genießen	träumen	küssen	gütig	sterben	versagen	gemein	töten	krank	gierig	53pct	acq_USunple_CSpleas1_noRW	acq23456_noRW	2	40	0	0	300	300	430	46	0	1	1	blank2r.bmp	0	1	+	0	1	blank2r.bmp	252	1	JQQJ	306	2	versagen	559	0	0	0	0	0	0	0	0	0	0	0	0	0	0	0	0	0	0	0	0	0	0	0	0	0	0	0	0	0	0	0	0	0	0	0	0	0	0	0
071719	14:34:29	14:39:21	290920	5.0.10.0	5_exp_noRW	64	Rpleas_acq	CS_A	JQQJ	CPPC	ZHHZ	DXXD	YFFY	LWWL	sonnig	vertrauen	genießen	träumen	küssen	gütig	sterben	versagen	gemein	töten	krank	gierig	47pct	acq_USpleas_CSpleas1_noRW	acq23456_noRW	2	41	0	0	300	300	425	50	0	1	1	blank2r.bmp	0	1	+	0	1	blank2r.bmp	252	1	JQQJ	306	1	sonnig	559	0	0	0	0	0	0	0	0	0	0	0	0	0	0	0	0	0	0	0	0	0	0	0	0	0	0	0	0	0	0	0	0	0	0	0	0	0	0	0
071719	14:34:29	14:39:22	292506	5.0.10.0	5_exp_noRW	64	Rpleas_acq	CS_A	JQQJ	CPPC	ZHHZ	DXXD	YFFY	LWWL	sonnig	vertrauen	genießen	träumen	küssen	gütig	sterben	versagen	gemein	töten	krank	gierig	53pct	acq_USunple_CSpleas2_noRW	acq23456_noRW	2	42	0	0	300	300	413	46	0	1	1	blank2r.bmp	0	1	+	0	1	blank2r.bmp	252	1	CPPC	306	1	töten	559	0	0	0	0	0	0	0	0	0	0	0	0	0	0	0	0	0	0	0	0	0	0	0	0	0	0	0	0	0	0	0	0	0	0	0	0	0	0	0
071719	14:34:29	14:39:24	294239	5.0.10.0	5_exp_noRW	64	Rpleas_acq	CS_A	JQQJ	CPPC	ZHHZ	DXXD	YFFY	LWWL	sonnig	vertrauen	genießen	träumen	küssen	gütig	sterben	versagen	gemein	töten	krank	gierig	53pct	acq_USpleas_CSpleas2_noRW	acq23456_noRW	2	43	0	0	300	300	548	50	0	1	1	blank2r.bmp	0	1	+	0	1	blank2r.bmp	252	1	CPPC	306	3	gütig	559	0	0	0	0	0	0	0	0	0	0	0	0	0	0	0	0	0	0	0	0	0	0	0	0	0	0	0	0	0	0	0	0	0	0	0	0	0	0	0
071719	14:34:29	14:39:26	295825	5.0.10.0	5_exp_noRW	64	Rpleas_acq	CS_A	JQQJ	CPPC	ZHHZ	DXXD	YFFY	LWWL	sonnig	vertrauen	genießen	träumen	küssen	gütig	sterben	versagen	gemein	töten	krank	gierig	47pct	acq_USpleas_CSpleas2_noRW	acq23456_noRW	2	44	0	0	300	300	421	50	0	1	1	blank2r.bmp	0	1	+	0	1	blank2r.bmp	252	1	CPPC	306	2	küssen	559	0	0	0	0	0	0	0	0	0	0	0	0	0	0	0	0	0	0	0	0	0	0	0	0	0	0	0	0	0	0	0	0	0	0	0	0	0	0	0
071719	14:34:29	14:39:27	297464	5.0.10.0	5_exp_noRW	64	Rpleas_acq	CS_A	JQQJ	CPPC	ZHHZ	DXXD	YFFY	LWWL	sonnig	vertrauen	genießen	träumen	küssen	gütig	sterben	versagen	gemein	töten	krank	gierig	53pct	acq_USunple_CSunple1_noRW	acq23456_noRW	2	45	0	0	300	300	455	46	0	1	1	blank2r.bmp	0	1	+	0	1	blank2r.bmp	252	1	ZHHZ	306	1	sterben	559	0	0	0	0	0	0	0	0	0	0	0	0	0	0	0	0	0	0	0	0	0	0	0	0	0	0	0	0	0	0	0	0	0	0	0	0	0	0	0
071719	14:34:29	14:39:29	298997	5.0.10.0	5_exp_noRW	64	Rpleas_acq	CS_A	JQQJ	CPPC	ZHHZ	DXXD	YFFY	LWWL	sonnig	vertrauen	genießen	träumen	küssen	gütig	sterben	versagen	gemein	töten	krank	gierig	53pct	acq_USunple_CSunple2_noRW	acq23456_noRW	2	46	0	0	300	300	350	46	0	1	1	blank2r.bmp	0	1	+	0	1	blank2r.bmp	252	1	DXXD	306	1	töten	559	0	0	0	0	0	0	0	0	0	0	0	0	0	0	0	0	0	0	0	0	0	0	0	0	0	0	0	0	0	0	0	0	0	0	0	0	0	0	0
071719	14:34:29	14:39:31	300689	5.0.10.0	5_exp_noRW	64	Rpleas_acq	CS_A	JQQJ	CPPC	ZHHZ	DXXD	YFFY	LWWL	sonnig	vertrauen	genießen	träumen	küssen	gütig	sterben	versagen	gemein	töten	krank	gierig	47pct	acq_USpleas_CSpleas1_noRW	acq23456_noRW	2	47	0	0	300	300	525	50	0	1	1	blank2r.bmp	0	1	+	0	1	blank2r.bmp	252	1	JQQJ	306	3	genießen	559	0	0	0	0	0	0	0	0	0	0	0	0	0	0	0	0	0	0	0	0	0	0	0	0	0	0	0	0	0	0	0	0	0	0	0	0	0	0	0
071719	14:34:29	14:39:32	302249	5.0.10.0	5_exp_noRW	64	Rpleas_acq	CS_A	JQQJ	CPPC	ZHHZ	DXXD	YFFY	LWWL	sonnig	vertrauen	genießen	träumen	küssen	gütig	sterben	versagen	gemein	töten	krank	gierig	47pct	acq_USunple_CSunple2_noRW	acq23456_noRW	2	48	0	0	300	300	378	46	0	1	1	blank2r.bmp	0	1	+	0	1	blank2r.bmp	252	1	DXXD	306	2	krank	559	0	0	0	0	0	0	0	0	0	0	0	0	0	0	0	0	0	0	0	0	0	0	0	0	0	0	0	0	0	0	0	0	0	0	0	0	0	0	0
071719	14:34:29	14:39:34	304088	5.0.10.0	5_exp_noRW	64	Rpleas_acq	CS_A	JQQJ	CPPC	ZHHZ	DXXD	YFFY	LWWL	sonnig	vertrauen	genießen	träumen	küssen	gütig	sterben	versagen	gemein	töten	krank	gierig	53pct	acq_USunple_CSunple1_noRW	acq23456_noRW	2	49	0	0	300	300	448	50	0	0	1	blank2r.bmp	0	1	+	0	1	blank2r.bmp	252	1	ZHHZ	306	3	gemein	559	1	FEHLER	1039	0	0	0	0	0	0	0	0	0	0	0	0	0	0	0	0	0	0	0	0	0	0	0	0	0	0	0	0	0	0	0	0	0	0	0	0
071719	14:34:29	14:39:35	305527	5.0.10.0	5_exp_noRW	64	Rpleas_acq	CS_A	JQQJ	CPPC	ZHHZ	DXXD	YFFY	LWWL	sonnig	vertrauen	genießen	träumen	küssen	gütig	sterben	versagen	gemein	töten	krank	gierig	47pct	acq_USpleas_CSpleas2_noRW	acq23456_noRW	2	50	0	0	300	300	473	50	0	1	1	blank2r.bmp	0	1	+	0	1	blank2r.bmp	252	1	CPPC	306	1	träumen	559	0	0	0	0	0	0	0	0	0	0	0	0	0	0	0	0	0	0	0	0	0	0	0	0	0	0	0	0	0	0	0	0	0	0	0	0	0	0	0
071719	14:34:29	14:39:37	307233	5.0.10.0	5_exp_noRW	64	Rpleas_acq	CS_A	JQQJ	CPPC	ZHHZ	DXXD	YFFY	LWWL	sonnig	vertrauen	genießen	träumen	küssen	gütig	sterben	versagen	gemein	töten	krank	gierig	53pct	acq_USunple_CSpleas1_noRW	acq23456_noRW	2	51	0	0	300	300	530	46	0	1	1	blank2r.bmp	0	1	+	0	1	blank2r.bmp	252	1	JQQJ	306	2	versagen	559	0	0	0	0	0	0	0	0	0	0	0	0	0	0	0	0	0	0	0	0	0	0	0	0	0	0	0	0	0	0	0	0	0	0	0	0	0	0	0
071719	14:34:29	14:39:39	308873	5.0.10.0	5_exp_noRW	64	Rpleas_acq	CS_A	JQQJ	CPPC	ZHHZ	DXXD	YFFY	LWWL	sonnig	vertrauen	genießen	träumen	küssen	gütig	sterben	versagen	gemein	töten	krank	gierig	47pct	acq_USpleas_CSpleas2_noRW	acq23456_noRW	2	52	0	0	300	300	472	50	0	1	1	blank2r.bmp	0	1	+	0	1	blank2r.bmp	252	1	CPPC	306	2	küssen	559	0	0	0	0	0	0	0	0	0	0	0	0	0	0	0	0	0	0	0	0	0	0	0	0	0	0	0	0	0	0	0	0	0	0	0	0	0	0	0
071719	14:34:29	14:39:40	310499	5.0.10.0	5_exp_noRW	64	Rpleas_acq	CS_A	JQQJ	CPPC	ZHHZ	DXXD	YFFY	LWWL	sonnig	vertrauen	genießen	träumen	küssen	gütig	sterben	versagen	gemein	töten	krank	gierig	47pct	acq_USpleas_CSunple2_noRW	acq23456_noRW	2	53	0	0	300	300	460	50	0	1	1	blank2r.bmp	0	1	+	0	1	blank2r.bmp	252	1	DXXD	306	2	küssen	559	0	0	0	0	0	0	0	0	0	0	0	0	0	0	0	0	0	0	0	0	0	0	0	0	0	0	0	0	0	0	0	0	0	0	0	0	0	0	0
071719	14:34:29	14:39:42	312178	5.0.10.0	5_exp_noRW	64	Rpleas_acq	CS_A	JQQJ	CPPC	ZHHZ	DXXD	YFFY	LWWL	sonnig	vertrauen	genießen	träumen	küssen	gütig	sterben	versagen	gemein	töten	krank	gierig	53pct	acq_USunple_CSunple1_noRW	acq23456_noRW	2	54	0	0	300	300	495	46	0	1	1	blank2r.bmp	0	1	+	0	1	blank2r.bmp	252	1	ZHHZ	306	2	versagen	559	0	0	0	0	0	0	0	0	0	0	0	0	0	0	0	0	0	0	0	0	0	0	0	0	0	0	0	0	0	0	0	0	0	0	0	0	0	0	0
071719	14:34:29	14:39:44	313844	5.0.10.0	5_exp_noRW	64	Rpleas_acq	CS_A	JQQJ	CPPC	ZHHZ	DXXD	YFFY	LWWL	sonnig	vertrauen	genießen	träumen	küssen	gütig	sterben	versagen	gemein	töten	krank	gierig	47pct	acq_USpleas_CSpleas1_noRW	acq23456_noRW	2	55	0	0	300	300	479	50	0	1	1	blank2r.bmp	0	1	+	0	1	blank2r.bmp	252	1	JQQJ	306	2	vertrauen	559	0	0	0	0	0	0	0	0	0	0	0	0	0	0	0	0	0	0	0	0	0	0	0	0	0	0	0	0	0	0	0	0	0	0	0	0	0	0	0
071719	14:34:29	14:39:45	315430	5.0.10.0	5_exp_noRW	64	Rpleas_acq	CS_A	JQQJ	CPPC	ZHHZ	DXXD	YFFY	LWWL	sonnig	vertrauen	genießen	träumen	küssen	gütig	sterben	versagen	gemein	töten	krank	gierig	53pct	acq_USpleas_CSpleas1_noRW	acq23456_noRW	2	56	0	0	300	300	423	50	0	1	1	blank2r.bmp	0	1	+	0	1	blank2r.bmp	252	1	JQQJ	306	1	sonnig	559	0	0	0	0	0	0	0	0	0	0	0	0	0	0	0	0	0	0	0	0	0	0	0	0	0	0	0	0	0	0	0	0	0	0	0	0	0	0	0
071719	14:34:29	14:39:47	317149	5.0.10.0	5_exp_noRW	64	Rpleas_acq	CS_A	JQQJ	CPPC	ZHHZ	DXXD	YFFY	LWWL	sonnig	vertrauen	genießen	träumen	küssen	gütig	sterben	versagen	gemein	töten	krank	gierig	53pct	acq_USpleas_CSunple1_noRW	acq23456_noRW	2	57	0	0	300	300	541	50	0	1	1	blank2r.bmp	0	1	+	0	1	blank2r.bmp	252	1	ZHHZ	306	3	genießen	559	0	0	0	0	0	0	0	0	0	0	0	0	0	0	0	0	0	0	0	0	0	0	0	0	0	0	0	0	0	0	0	0	0	0	0	0	0	0	0
071719	14:34:29	14:39:49	318709	5.0.10.0	5_exp_noRW	64	Rpleas_acq	CS_A	JQQJ	CPPC	ZHHZ	DXXD	YFFY	LWWL	sonnig	vertrauen	genießen	träumen	küssen	gütig	sterben	versagen	gemein	töten	krank	gierig	47pct	acq_USunple_CSunple2_noRW	acq23456_noRW	2	58	0	0	300	300	379	46	0	1	1	blank2r.bmp	0	1	+	0	1	blank2r.bmp	252	1	DXXD	306	3	gierig	559	0	0	0	0	0	0	0	0	0	0	0	0	0	0	0	0	0	0	0	0	0	0	0	0	0	0	0	0	0	0	0	0	0	0	0	0	0	0	0
071719	14:34:29	14:39:50	320481	5.0.10.0	5_exp_noRW	64	Rpleas_acq	CS_A	JQQJ	CPPC	ZHHZ	DXXD	YFFY	LWWL	sonnig	vertrauen	genießen	träumen	küssen	gütig	sterben	versagen	gemein	töten	krank	gierig	47pct	acq_USunple_CSunple1_noRW	acq23456_noRW	2	59	0	0	300	300	588	46	0	1	1	blank2r.bmp	0	1	+	0	1	blank2r.bmp	252	1	ZHHZ	306	3	gemein	559	0	0	0	0	0	0	0	0	0	0	0	0	0	0	0	0	0	0	0	0	0	0	0	0	0	0	0	0	0	0	0	0	0	0	0	0	0	0	0
071719	14:34:29	14:39:52	322094	5.0.10.0	5_exp_noRW	64	Rpleas_acq	CS_A	JQQJ	CPPC	ZHHZ	DXXD	YFFY	LWWL	sonnig	vertrauen	genießen	träumen	küssen	gütig	sterben	versagen	gemein	töten	krank	gierig	53pct	acq_USunple_CSunple2_noRW	acq23456_noRW	2	60	0	0	300	300	444	46	0	1	1	blank2r.bmp	0	1	+	0	1	blank2r.bmp	252	1	DXXD	306	3	gierig	559	0	0	0	0	0	0	0	0	0	0	0	0	0	0	0	0	0	0	0	0	0	0	0	0	0	0	0	0	0	0	0	0	0	0	0	0	0	0	0
071719	14:34:29	14:39:54	323680	5.0.10.0	5_exp_noRW	64	Rpleas_acq	CS_A	JQQJ	CPPC	ZHHZ	DXXD	YFFY	LWWL	sonnig	vertrauen	genießen	träumen	küssen	gütig	sterben	versagen	gemein	töten	krank	gierig	53pct	acq_USunple_CSunple2_noRW	acq23456_noRW	2	61	0	0	300	300	404	46	0	1	1	blank2r.bmp	0	1	+	0	1	blank2r.bmp	252	1	DXXD	306	2	krank	559	0	0	0	0	0	0	0	0	0	0	0	0	0	0	0	0	0	0	0	0	0	0	0	0	0	0	0	0	0	0	0	0	0	0	0	0	0	0	0
071719	14:34:29	14:39:55	325333	5.0.10.0	5_exp_noRW	64	Rpleas_acq	CS_A	JQQJ	CPPC	ZHHZ	DXXD	YFFY	LWWL	sonnig	vertrauen	genießen	träumen	küssen	gütig	sterben	versagen	gemein	töten	krank	gierig	53pct	acq_USpleas_CSpleas1_noRW	acq23456_noRW	2	62	0	0	300	300	481	50	0	1	1	blank2r.bmp	0	1	+	0	1	blank2r.bmp	252	1	JQQJ	306	3	genießen	559	0	0	0	0	0	0	0	0	0	0	0	0	0	0	0	0	0	0	0	0	0	0	0	0	0	0	0	0	0	0	0	0	0	0	0	0	0	0	0
071719	14:34:29	14:39:57	327079	5.0.10.0	5_exp_noRW	64	Rpleas_acq	CS_A	JQQJ	CPPC	ZHHZ	DXXD	YFFY	LWWL	sonnig	vertrauen	genießen	träumen	küssen	gütig	sterben	versagen	gemein	töten	krank	gierig	47pct	acq_USunple_CSunple1_noRW	acq23456_noRW	2	63	0	0	300	300	584	46	0	1	1	blank2r.bmp	0	1	+	0	1	blank2r.bmp	252	1	ZHHZ	306	2	versagen	559	0	0	0	0	0	0	0	0	0	0	0	0	0	0	0	0	0	0	0	0	0	0	0	0	0	0	0	0	0	0	0	0	0	0	0	0	0	0	0
071719	14:34:29	14:39:58	328651	5.0.10.0	5_exp_noRW	64	Rpleas_acq	CS_A	JQQJ	CPPC	ZHHZ	DXXD	YFFY	LWWL	sonnig	vertrauen	genießen	träumen	küssen	gütig	sterben	versagen	gemein	töten	krank	gierig	47pct	acq_USunple_CSunple1_noRW	acq23456_noRW	2	64	0	0	300	300	388	46	0	1	1	blank2r.bmp	0	1	+	0	1	blank2r.bmp	252	1	ZHHZ	306	1	sterben	559	0	0	0	0	0	0	0	0	0	0	0	0	0	0	0	0	0	0	0	0	0	0	0	0	0	0	0	0	0	0	0	0	0	0	0	0	0	0	0
071719	14:34:29	14:40:00	330291	5.0.10.0	5_exp_noRW	64	Rpleas_acq	CS_A	JQQJ	CPPC	ZHHZ	DXXD	YFFY	LWWL	sonnig	vertrauen	genießen	träumen	küssen	gütig	sterben	versagen	gemein	töten	krank	gierig	47pct	acq_USpleas_CSpleas2_noRW	acq23456_noRW	2	65	0	0	300	300	453	50	0	1	1	blank2r.bmp	0	1	+	0	1	blank2r.bmp	252	1	CPPC	306	1	träumen	559	0	0	0	0	0	0	0	0	0	0	0	0	0	0	0	0	0	0	0	0	0	0	0	0	0	0	0	0	0	0	0	0	0	0	0	0	0	0	0
071719	14:34:29	14:40:02	331983	5.0.10.0	5_exp_noRW	64	Rpleas_acq	CS_A	JQQJ	CPPC	ZHHZ	DXXD	YFFY	LWWL	sonnig	vertrauen	genießen	träumen	küssen	gütig	sterben	versagen	gemein	töten	krank	gierig	53pct	acq_USpleas_CSpleas1_noRW	acq23456_noRW	2	66	0	0	300	300	521	50	0	1	1	blank2r.bmp	0	1	+	0	1	blank2r.bmp	252	1	JQQJ	306	2	vertrauen	559	0	0	0	0	0	0	0	0	0	0	0	0	0	0	0	0	0	0	0	0	0	0	0	0	0	0	0	0	0	0	0	0	0	0	0	0	0	0	0
071719	14:34:29	14:40:04	333716	5.0.10.0	5_exp_noRW	64	Rpleas_acq	CS_A	JQQJ	CPPC	ZHHZ	DXXD	YFFY	LWWL	sonnig	vertrauen	genießen	träumen	küssen	gütig	sterben	versagen	gemein	töten	krank	gierig	47pct	acq_USunple_CSpleas1_noRW	acq23456_noRW	2	67	0	0	300	300	571	46	0	1	1	blank2r.bmp	0	1	+	0	1	blank2r.bmp	252	1	JQQJ	306	1	sterben	559	0	0	0	0	0	0	0	0	0	0	0	0	0	0	0	0	0	0	0	0	0	0	0	0	0	0	0	0	0	0	0	0	0	0	0	0	0	0	0
071719	14:34:29	14:40:05	335448	5.0.10.0	5_exp_noRW	64	Rpleas_acq	CS_A	JQQJ	CPPC	ZHHZ	DXXD	YFFY	LWWL	sonnig	vertrauen	genießen	träumen	küssen	gütig	sterben	versagen	gemein	töten	krank	gierig	53pct	acq_USunple_CSunple1_noRW	acq23456_noRW	2	68	0	0	300	300	555	46	0	1	1	blank2r.bmp	0	1	+	0	1	blank2r.bmp	252	1	ZHHZ	306	3	gemein	559	0	0	0	0	0	0	0	0	0	0	0	0	0	0	0	0	0	0	0	0	0	0	0	0	0	0	0	0	0	0	0	0	0	0	0	0	0	0	0
071719	14:34:29	14:40:07	337168	5.0.10.0	5_exp_noRW	64	Rpleas_acq	CS_A	JQQJ	CPPC	ZHHZ	DXXD	YFFY	LWWL	sonnig	vertrauen	genießen	träumen	küssen	gütig	sterben	versagen	gemein	töten	krank	gierig	53pct	acq_USpleas_CSpleas2_noRW	acq23456_noRW	2	69	0	0	300	300	543	50	0	1	1	blank2r.bmp	0	1	+	0	1	blank2r.bmp	252	1	CPPC	306	3	gütig	559	0	0	0	0	0	0	0	0	0	0	0	0	0	0	0	0	0	0	0	0	0	0	0	0	0	0	0	0	0	0	0	0	0	0	0	0	0	0	0
071719	14:34:29	14:40:09	338714	5.0.10.0	5_exp_noRW	64	Rpleas_acq	CS_A	JQQJ	CPPC	ZHHZ	DXXD	YFFY	LWWL	sonnig	vertrauen	genießen	träumen	küssen	gütig	sterben	versagen	gemein	töten	krank	gierig	53pct	acq_USunple_CSunple2_noRW	acq23456_noRW	2	70	0	0	300	300	366	46	0	1	1	blank2r.bmp	0	1	+	0	1	blank2r.bmp	252	1	DXXD	306	1	töten	559	0	0	0	0	0	0	0	0	0	0	0	0	0	0	0	0	0	0	0	0	0	0	0	0	0	0	0	0	0	0	0	0	0	0	0	0	0	0	0
071719	14:34:29	14:40:10	340460	5.0.10.0	5_exp_noRW	64	Rpleas_acq	CS_A	JQQJ	CPPC	ZHHZ	DXXD	YFFY	LWWL	sonnig	vertrauen	genießen	träumen	küssen	gütig	sterben	versagen	gemein	töten	krank	gierig	53pct	acq_USpleas_CSpleas1_noRW	acq23456_noRW	2	71	0	0	300	300	356	46	0	0	1	blank2r.bmp	0	1	+	0	1	blank2r.bmp	252	1	JQQJ	306	3	genießen	559	1	FEHLER	946	0	0	0	0	0	0	0	0	0	0	0	0	0	0	0	0	0	0	0	0	0	0	0	0	0	0	0	0	0	0	0	0	0	0	0	0
071719	14:34:29	14:40:13	342792	5.0.10.0	5_exp_noRW	64	Rpleas_acq	CS_A	JQQJ	CPPC	ZHHZ	DXXD	YFFY	LWWL	sonnig	vertrauen	genießen	träumen	küssen	gütig	sterben	versagen	gemein	töten	krank	gierig	47pct	acq_USunple_CSunple1_noRW	acq23456_noRW	2	72	0	0	300	300	1359	46	0	1	1	blank2r.bmp	0	1	+	0	1	blank2r.bmp	252	1	ZHHZ	306	2	versagen	559	0	0	0	0	0	0	0	0	0	0	0	0	0	0	0	0	0	0	0	0	0	0	0	0	0	0	0	0	0	0	0	0	0	0	0	0	0	0	0
071719	14:34:29	14:40:14	344445	5.0.10.0	5_exp_noRW	64	Rpleas_acq	CS_A	JQQJ	CPPC	ZHHZ	DXXD	YFFY	LWWL	sonnig	vertrauen	genießen	träumen	küssen	gütig	sterben	versagen	gemein	töten	krank	gierig	53pct	acq_USpleas_CSpleas2_noRW	acq23456_noRW	2	73	0	0	300	300	485	50	0	1	1	blank2r.bmp	0	1	+	0	1	blank2r.bmp	252	1	CPPC	306	1	träumen	559	0	0	0	0	0	0	0	0	0	0	0	0	0	0	0	0	0	0	0	0	0	0	0	0	0	0	0	0	0	0	0	0	0	0	0	0	0	0	0
071719	14:34:29	14:40:16	345991	5.0.10.0	5_exp_noRW	64	Rpleas_acq	CS_A	JQQJ	CPPC	ZHHZ	DXXD	YFFY	LWWL	sonnig	vertrauen	genießen	träumen	küssen	gütig	sterben	versagen	gemein	töten	krank	gierig	53pct	acq_USunple_CSpleas2_noRW	acq23456_noRW	2	74	0	0	300	300	376	46	0	1	1	blank2r.bmp	0	1	+	0	1	blank2r.bmp	252	1	CPPC	306	2	krank	559	0	0	0	0	0	0	0	0	0	0	0	0	0	0	0	0	0	0	0	0	0	0	0	0	0	0	0	0	0	0	0	0	0	0	0	0	0	0	0
071719	14:34:29	14:40:17	347643	5.0.10.0	5_exp_noRW	64	Rpleas_acq	CS_A	JQQJ	CPPC	ZHHZ	DXXD	YFFY	LWWL	sonnig	vertrauen	genießen	träumen	küssen	gütig	sterben	versagen	gemein	töten	krank	gierig	53pct	acq_USunple_CSunple2_noRW	acq23456_noRW	2	75	0	0	300	300	487	46	0	1	1	blank2r.bmp	0	1	+	0	1	blank2r.bmp	252	1	DXXD	306	1	töten	559	0	0	0	0	0	0	0	0	0	0	0	0	0	0	0	0	0	0	0	0	0	0	0	0	0	0	0	0	0	0	0	0	0	0	0	0	0	0	0
071719	14:34:29	14:40:19	349176	5.0.10.0	5_exp_noRW	64	Rpleas_acq	CS_A	JQQJ	CPPC	ZHHZ	DXXD	YFFY	LWWL	sonnig	vertrauen	genießen	träumen	küssen	gütig	sterben	versagen	gemein	töten	krank	gierig	47pct	acq_USpleas_CSpleas2_noRW	acq23456_noRW	2	76	0	0	300	300	349	50	0	1	1	blank2r.bmp	0	1	+	0	1	blank2r.bmp	252	1	CPPC	306	2	küssen	559	0	0	0	0	0	0	0	0	0	0	0	0	0	0	0	0	0	0	0	0	0	0	0	0	0	0	0	0	0	0	0	0	0	0	0	0	0	0	0
071719	14:34:29	14:40:21	350802	5.0.10.0	5_exp_noRW	64	Rpleas_acq	CS_A	JQQJ	CPPC	ZHHZ	DXXD	YFFY	LWWL	sonnig	vertrauen	genießen	träumen	küssen	gütig	sterben	versagen	gemein	töten	krank	gierig	53pct	acq_USunple_CSunple2_noRW	acq23456_noRW	2	77	0	0	300	300	444	46	0	1	1	blank2r.bmp	0	1	+	0	1	blank2r.bmp	252	1	DXXD	306	2	krank	559	0	0	0	0	0	0	0	0	0	0	0	0	0	0	0	0	0	0	0	0	0	0	0	0	0	0	0	0	0	0	0	0	0	0	0	0	0	0	0
071719	14:34:29	14:40:22	352548	5.0.10.0	5_exp_noRW	64	Rpleas_acq	CS_A	JQQJ	CPPC	ZHHZ	DXXD	YFFY	LWWL	sonnig	vertrauen	genießen	träumen	küssen	gütig	sterben	versagen	gemein	töten	krank	gierig	47pct	acq_USpleas_CSunple2_noRW	acq23456_noRW	2	78	0	0	300	300	559	50	0	1	1	blank2r.bmp	0	1	+	0	1	blank2r.bmp	252	1	DXXD	306	3	gütig	559	0	0	0	0	0	0	0	0	0	0	0	0	0	0	0	0	0	0	0	0	0	0	0	0	0	0	0	0	0	0	0	0	0	0	0	0	0	0	0
071719	14:34:29	14:40:24	354187	5.0.10.0	5_exp_noRW	64	Rpleas_acq	CS_A	JQQJ	CPPC	ZHHZ	DXXD	YFFY	LWWL	sonnig	vertrauen	genießen	träumen	küssen	gütig	sterben	versagen	gemein	töten	krank	gierig	53pct	acq_USpleas_CSpleas1_noRW	acq23456_noRW	2	79	0	0	300	300	464	50	0	1	1	blank2r.bmp	0	1	+	0	1	blank2r.bmp	252	1	JQQJ	306	2	vertrauen	559	0	0	0	0	0	0	0	0	0	0	0	0	0	0	0	0	0	0	0	0	0	0	0	0	0	0	0	0	0	0	0	0	0	0	0	0	0	0	0
071719	14:34:29	14:40:26	355880	5.0.10.0	5_exp_noRW	64	Rpleas_acq	CS_A	JQQJ	CPPC	ZHHZ	DXXD	YFFY	LWWL	sonnig	vertrauen	genießen	träumen	küssen	gütig	sterben	versagen	gemein	töten	krank	gierig	53pct	acq_USpleas_CSunple1_noRW	acq23456_noRW	2	80	0	0	300	300	510	50	0	1	1	blank2r.bmp	0	1	+	0	1	blank2r.bmp	252	1	ZHHZ	306	1	sonnig	559	0	0	0	0	0	0	0	0	0	0	0	0	0	0	0	0	0	0	0	0	0	0	0	0	0	0	0	0	0	0	0	0	0	0	0	0	0	0	0
071719	14:34:29	14:40:34	363730	5.0.10.0	5_exp_noRW	64	Rpleas_acq	CS_A	JQQJ	CPPC	ZHHZ	DXXD	YFFY	LWWL	sonnig	vertrauen	genießen	träumen	küssen	gütig	sterben	versagen	gemein	töten	krank	gierig	53pct	acq_USpleas_CSpleas2_noRW	acq23456_noRW	3	1	0	0	300	300	451	50	0	1	1	blank2r.bmp	0	1	+	0	1	blank2r.bmp	252	1	CPPC	306	3	gütig	559	0	0	0	0	0	0	0	0	0	0	0	0	0	0	0	0	0	0	0	0	0	0	0	0	0	0	0	0	0	0	0	0	0	0	0	0	0	0	0
071719	14:34:29	14:40:35	365343	5.0.10.0	5_exp_noRW	64	Rpleas_acq	CS_A	JQQJ	CPPC	ZHHZ	DXXD	YFFY	LWWL	sonnig	vertrauen	genießen	träumen	küssen	gütig	sterben	versagen	gemein	töten	krank	gierig	47pct	acq_USpleas_CSunple2_noRW	acq23456_noRW	3	2	0	0	300	300	439	50	0	1	1	blank2r.bmp	0	1	+	0	1	blank2r.bmp	252	1	DXXD	306	1	träumen	559	0	0	0	0	0	0	0	0	0	0	0	0	0	0	0	0	0	0	0	0	0	0	0	0	0	0	0	0	0	0	0	0	0	0	0	0	0	0	0
071719	14:34:29	14:40:37	366916	5.0.10.0	5_exp_noRW	64	Rpleas_acq	CS_A	JQQJ	CPPC	ZHHZ	DXXD	YFFY	LWWL	sonnig	vertrauen	genießen	träumen	küssen	gütig	sterben	versagen	gemein	töten	krank	gierig	53pct	acq_USunple_CSunple1_noRW	acq23456_noRW	3	3	0	0	300	300	409	46	0	1	1	blank2r.bmp	0	1	+	0	1	blank2r.bmp	252	1	ZHHZ	306	1	sterben	559	0	0	0	0	0	0	0	0	0	0	0	0	0	0	0	0	0	0	0	0	0	0	0	0	0	0	0	0	0	0	0	0	0	0	0	0	0	0	0
071719	14:34:29	14:40:38	368528	5.0.10.0	5_exp_noRW	64	Rpleas_acq	CS_A	JQQJ	CPPC	ZHHZ	DXXD	YFFY	LWWL	sonnig	vertrauen	genießen	träumen	küssen	gütig	sterben	versagen	gemein	töten	krank	gierig	47pct	acq_USpleas_CSpleas1_noRW	acq23456_noRW	3	4	0	0	300	300	434	50	0	1	1	blank2r.bmp	0	1	+	0	1	blank2r.bmp	252	1	JQQJ	306	1	sonnig	559	0	0	0	0	0	0	0	0	0	0	0	0	0	0	0	0	0	0	0	0	0	0	0	0	0	0	0	0	0	0	0	0	0	0	0	0	0	0	0
071719	14:34:29	14:40:40	370421	5.0.10.0	5_exp_noRW	64	Rpleas_acq	CS_A	JQQJ	CPPC	ZHHZ	DXXD	YFFY	LWWL	sonnig	vertrauen	genießen	träumen	küssen	gütig	sterben	versagen	gemein	töten	krank	gierig	47pct	acq_USunple_CSunple2_noRW	acq23456_noRW	3	5	0	0	300	300	728	46	0	1	1	blank2r.bmp	0	1	+	0	1	blank2r.bmp	252	1	DXXD	306	3	gierig	559	0	0	0	0	0	0	0	0	0	0	0	0	0	0	0	0	0	0	0	0	0	0	0	0	0	0	0	0	0	0	0	0	0	0	0	0	0	0	0
071719	14:34:29	14:40:42	372393	5.0.10.0	5_exp_noRW	64	Rpleas_acq	CS_A	JQQJ	CPPC	ZHHZ	DXXD	YFFY	LWWL	sonnig	vertrauen	genießen	träumen	küssen	gütig	sterben	versagen	gemein	töten	krank	gierig	53pct	acq_USunple_CSpleas1_noRW	acq23456_noRW	3	6	0	0	300	300	785	46	0	1	1	blank2r.bmp	0	1	+	0	1	blank2r.bmp	252	1	JQQJ	306	3	gemein	559	0	0	0	0	0	0	0	0	0	0	0	0	0	0	0	0	0	0	0	0	0	0	0	0	0	0	0	0	0	0	0	0	0	0	0	0	0	0	0
071719	14:34:29	14:40:44	374366	5.0.10.0	5_exp_noRW	64	Rpleas_acq	CS_A	JQQJ	CPPC	ZHHZ	DXXD	YFFY	LWWL	sonnig	vertrauen	genießen	träumen	küssen	gütig	sterben	versagen	gemein	töten	krank	gierig	47pct	acq_USunple_CSpleas2_noRW	acq23456_noRW	3	7	0	0	300	300	788	46	0	1	1	blank2r.bmp	0	1	+	0	1	blank2r.bmp	252	1	CPPC	306	3	gierig	559	0	0	0	0	0	0	0	0	0	0	0	0	0	0	0	0	0	0	0	0	0	0	0	0	0	0	0	0	0	0	0	0	0	0	0	0	0	0	0
071719	14:34:29	14:40:46	375992	5.0.10.0	5_exp_noRW	64	Rpleas_acq	CS_A	JQQJ	CPPC	ZHHZ	DXXD	YFFY	LWWL	sonnig	vertrauen	genießen	träumen	küssen	gütig	sterben	versagen	gemein	töten	krank	gierig	47pct	acq_USpleas_CSunple1_noRW	acq23456_noRW	3	8	0	0	300	300	453	50	0	1	1	blank2r.bmp	0	1	+	0	1	blank2r.bmp	252	1	ZHHZ	306	2	vertrauen	559	0	0	0	0	0	0	0	0	0	0	0	0	0	0	0	0	0	0	0	0	0	0	0	0	0	0	0	0	0	0	0	0	0	0	0	0	0	0	0
071719	14:34:29	14:40:47	377671	5.0.10.0	5_exp_noRW	64	Rpleas_acq	CS_A	JQQJ	CPPC	ZHHZ	DXXD	YFFY	LWWL	sonnig	vertrauen	genießen	träumen	küssen	gütig	sterben	versagen	gemein	töten	krank	gierig	53pct	acq_USpleas_CSpleas1_noRW	acq23456_noRW	3	9	0	0	300	300	511	50	0	1	1	blank2r.bmp	0	1	+	0	1	blank2r.bmp	252	1	JQQJ	306	3	genießen	559	0	0	0	0	0	0	0	0	0	0	0	0	0	0	0	0	0	0	0	0	0	0	0	0	0	0	0	0	0	0	0	0	0	0	0	0	0	0	0
071719	14:34:29	14:40:49	379350	5.0.10.0	5_exp_noRW	64	Rpleas_acq	CS_A	JQQJ	CPPC	ZHHZ	DXXD	YFFY	LWWL	sonnig	vertrauen	genießen	träumen	küssen	gütig	sterben	versagen	gemein	töten	krank	gierig	53pct	acq_USpleas_CSpleas2_noRW	acq23456_noRW	3	10	0	0	300	300	509	50	0	1	1	blank2r.bmp	0	1	+	0	1	blank2r.bmp	252	1	CPPC	306	2	küssen	559	0	0	0	0	0	0	0	0	0	0	0	0	0	0	0	0	0	0	0	0	0	0	0	0	0	0	0	0	0	0	0	0	0	0	0	0	0	0	0
071719	14:34:29	14:40:51	380990	5.0.10.0	5_exp_noRW	64	Rpleas_acq	CS_A	JQQJ	CPPC	ZHHZ	DXXD	YFFY	LWWL	sonnig	vertrauen	genießen	träumen	küssen	gütig	sterben	versagen	gemein	töten	krank	gierig	47pct	acq_USunple_CSunple2_noRW	acq23456_noRW	3	11	0	0	300	300	452	46	0	1	1	blank2r.bmp	0	1	+	0	1	blank2r.bmp	252	1	DXXD	306	3	gierig	559	0	0	0	0	0	0	0	0	0	0	0	0	0	0	0	0	0	0	0	0	0	0	0	0	0	0	0	0	0	0	0	0	0	0	0	0	0	0	0
071719	14:34:29	14:40:52	382549	5.0.10.0	5_exp_noRW	64	Rpleas_acq	CS_A	JQQJ	CPPC	ZHHZ	DXXD	YFFY	LWWL	sonnig	vertrauen	genießen	träumen	küssen	gütig	sterben	versagen	gemein	töten	krank	gierig	47pct	acq_USpleas_CSpleas2_noRW	acq23456_noRW	3	12	0	0	300	300	386	50	0	1	1	blank2r.bmp	0	1	+	0	1	blank2r.bmp	252	1	CPPC	306	1	träumen	559	0	0	0	0	0	0	0	0	0	0	0	0	0	0	0	0	0	0	0	0	0	0	0	0	0	0	0	0	0	0	0	0	0	0	0	0	0	0	0
071719	14:34:29	14:40:54	384268	5.0.10.0	5_exp_noRW	64	Rpleas_acq	CS_A	JQQJ	CPPC	ZHHZ	DXXD	YFFY	LWWL	sonnig	vertrauen	genießen	träumen	küssen	gütig	sterben	versagen	gemein	töten	krank	gierig	53pct	acq_USunple_CSunple1_noRW	acq23456_noRW	3	13	0	0	300	300	536	46	0	1	1	blank2r.bmp	0	1	+	0	1	blank2r.bmp	252	1	ZHHZ	306	2	versagen	559	0	0	0	0	0	0	0	0	0	0	0	0	0	0	0	0	0	0	0	0	0	0	0	0	0	0	0	0	0	0	0	0	0	0	0	0	0	0	0
071719	14:34:29	14:40:56	385908	5.0.10.0	5_exp_noRW	64	Rpleas_acq	CS_A	JQQJ	CPPC	ZHHZ	DXXD	YFFY	LWWL	sonnig	vertrauen	genießen	träumen	küssen	gütig	sterben	versagen	gemein	töten	krank	gierig	53pct	acq_USpleas_CSpleas1_noRW	acq23456_noRW	3	14	0	0	300	300	466	50	0	1	1	blank2r.bmp	0	1	+	0	1	blank2r.bmp	252	1	JQQJ	306	1	sonnig	559	0	0	0	0	0	0	0	0	0	0	0	0	0	0	0	0	0	0	0	0	0	0	0	0	0	0	0	0	0	0	0	0	0	0	0	0	0	0	0
071719	14:34:29	14:40:57	387640	5.0.10.0	5_exp_noRW	64	Rpleas_acq	CS_A	JQQJ	CPPC	ZHHZ	DXXD	YFFY	LWWL	sonnig	vertrauen	genießen	träumen	küssen	gütig	sterben	versagen	gemein	töten	krank	gierig	53pct	acq_USpleas_CSpleas1_noRW	acq23456_noRW	3	15	0	0	300	300	563	50	0	1	1	blank2r.bmp	0	1	+	0	1	blank2r.bmp	252	1	JQQJ	306	2	vertrauen	559	0	0	0	0	0	0	0	0	0	0	0	0	0	0	0	0	0	0	0	0	0	0	0	0	0	0	0	0	0	0	0	0	0	0	0	0	0	0	0
071719	14:34:29	14:40:59	389320	5.0.10.0	5_exp_noRW	64	Rpleas_acq	CS_A	JQQJ	CPPC	ZHHZ	DXXD	YFFY	LWWL	sonnig	vertrauen	genießen	träumen	küssen	gütig	sterben	versagen	gemein	töten	krank	gierig	53pct	acq_USunple_CSunple1_noRW	acq23456_noRW	3	16	0	0	300	300	516	46	0	1	1	blank2r.bmp	0	1	+	0	1	blank2r.bmp	252	1	ZHHZ	306	1	sterben	559	0	0	0	0	0	0	0	0	0	0	0	0	0	0	0	0	0	0	0	0	0	0	0	0	0	0	0	0	0	0	0	0	0	0	0	0	0	0	0
071719	14:34:29	14:41:01	391092	5.0.10.0	5_exp_noRW	64	Rpleas_acq	CS_A	JQQJ	CPPC	ZHHZ	DXXD	YFFY	LWWL	sonnig	vertrauen	genießen	träumen	küssen	gütig	sterben	versagen	gemein	töten	krank	gierig	47pct	acq_USpleas_CSpleas2_noRW	acq23456_noRW	3	17	0	0	300	300	607	50	0	1	1	blank2r.bmp	0	1	+	0	1	blank2r.bmp	252	1	CPPC	306	3	gütig	559	0	0	0	0	0	0	0	0	0	0	0	0	0	0	0	0	0	0	0	0	0	0	0	0	0	0	0	0	0	0	0	0	0	0	0	0	0	0	0
071719	14:34:29	14:41:03	392878	5.0.10.0	5_exp_noRW	64	Rpleas_acq	CS_A	JQQJ	CPPC	ZHHZ	DXXD	YFFY	LWWL	sonnig	vertrauen	genießen	träumen	küssen	gütig	sterben	versagen	gemein	töten	krank	gierig	53pct	acq_USunple_CSunple2_noRW	acq23456_noRW	3	18	0	0	300	300	602	46	0	1	1	blank2r.bmp	0	1	+	0	1	blank2r.bmp	252	1	DXXD	306	1	töten	559	0	0	0	0	0	0	0	0	0	0	0	0	0	0	0	0	0	0	0	0	0	0	0	0	0	0	0	0	0	0	0	0	0	0	0	0	0	0	0
071719	14:34:29	14:41:04	394611	5.0.10.0	5_exp_noRW	64	Rpleas_acq	CS_A	JQQJ	CPPC	ZHHZ	DXXD	YFFY	LWWL	sonnig	vertrauen	genießen	träumen	küssen	gütig	sterben	versagen	gemein	töten	krank	gierig	53pct	acq_USunple_CSunple2_noRW	acq23456_noRW	3	19	0	0	300	300	570	46	0	1	1	blank2r.bmp	0	1	+	0	1	blank2r.bmp	252	1	DXXD	306	2	krank	559	0	0	0	0	0	0	0	0	0	0	0	0	0	0	0	0	0	0	0	0	0	0	0	0	0	0	0	0	0	0	0	0	0	0	0	0	0	0	0
071719	14:34:29	14:41:06	396663	5.0.10.0	5_exp_noRW	64	Rpleas_acq	CS_A	JQQJ	CPPC	ZHHZ	DXXD	YFFY	LWWL	sonnig	vertrauen	genießen	träumen	küssen	gütig	sterben	versagen	gemein	töten	krank	gierig	47pct	acq_USunple_CSunple1_noRW	acq23456_noRW	3	20	0	0	300	300	873	46	0	1	1	blank2r.bmp	0	1	+	0	1	blank2r.bmp	252	1	ZHHZ	306	3	gemein	559	0	0	0	0	0	0	0	0	0	0	0	0	0	0	0	0	0	0	0	0	0	0	0	0	0	0	0	0	0	0	0	0	0	0	0	0	0	0	0
071719	14:34:29	14:41:08	398316	5.0.10.0	5_exp_noRW	64	Rpleas_acq	CS_A	JQQJ	CPPC	ZHHZ	DXXD	YFFY	LWWL	sonnig	vertrauen	genießen	träumen	küssen	gütig	sterben	versagen	gemein	töten	krank	gierig	53pct	acq_USunple_CSpleas1_noRW	acq23456_noRW	3	21	0	0	300	300	477	46	0	1	1	blank2r.bmp	0	1	+	0	1	blank2r.bmp	252	1	JQQJ	306	1	sterben	559	0	0	0	0	0	0	0	0	0	0	0	0	0	0	0	0	0	0	0	0	0	0	0	0	0	0	0	0	0	0	0	0	0	0	0	0	0	0	0
071719	14:34:29	14:41:10	400129	5.0.10.0	5_exp_noRW	64	Rpleas_acq	CS_A	JQQJ	CPPC	ZHHZ	DXXD	YFFY	LWWL	sonnig	vertrauen	genießen	träumen	küssen	gütig	sterben	versagen	gemein	töten	krank	gierig	47pct	acq_USunple_CSunple1_noRW	acq23456_noRW	3	22	0	0	300	300	635	46	0	1	1	blank2r.bmp	0	1	+	0	1	blank2r.bmp	252	1	ZHHZ	306	3	gemein	559	0	0	0	0	0	0	0	0	0	0	0	0	0	0	0	0	0	0	0	0	0	0	0	0	0	0	0	0	0	0	0	0	0	0	0	0	0	0	0
071719	14:34:29	14:41:12	401755	5.0.10.0	5_exp_noRW	64	Rpleas_acq	CS_A	JQQJ	CPPC	ZHHZ	DXXD	YFFY	LWWL	sonnig	vertrauen	genießen	träumen	küssen	gütig	sterben	versagen	gemein	töten	krank	gierig	53pct	acq_USunple_CSunple2_noRW	acq23456_noRW	3	23	0	0	300	300	442	46	0	1	1	blank2r.bmp	0	1	+	0	1	blank2r.bmp	252	1	DXXD	306	2	krank	559	0	0	0	0	0	0	0	0	0	0	0	0	0	0	0	0	0	0	0	0	0	0	0	0	0	0	0	0	0	0	0	0	0	0	0	0	0	0	0
071719	14:34:29	14:41:13	403447	5.0.10.0	5_exp_noRW	64	Rpleas_acq	CS_A	JQQJ	CPPC	ZHHZ	DXXD	YFFY	LWWL	sonnig	vertrauen	genießen	träumen	küssen	gütig	sterben	versagen	gemein	töten	krank	gierig	47pct	acq_USpleas_CSpleas1_noRW	acq23456_noRW	3	24	0	0	300	300	519	50	0	1	1	blank2r.bmp	0	1	+	0	1	blank2r.bmp	252	1	JQQJ	306	3	genießen	559	0	0	0	0	0	0	0	0	0	0	0	0	0	0	0	0	0	0	0	0	0	0	0	0	0	0	0	0	0	0	0	0	0	0	0	0	0	0	0
071719	14:34:29	14:41:15	405153	5.0.10.0	5_exp_noRW	64	Rpleas_acq	CS_A	JQQJ	CPPC	ZHHZ	DXXD	YFFY	LWWL	sonnig	vertrauen	genießen	träumen	küssen	gütig	sterben	versagen	gemein	töten	krank	gierig	47pct	acq_USpleas_CSunple2_noRW	acq23456_noRW	3	25	0	0	300	300	534	50	0	1	1	blank2r.bmp	0	1	+	0	1	blank2r.bmp	252	1	DXXD	306	1	träumen	559	0	0	0	0	0	0	0	0	0	0	0	0	0	0	0	0	0	0	0	0	0	0	0	0	0	0	0	0	0	0	0	0	0	0	0	0	0	0	0
071719	14:34:29	14:41:17	406726	5.0.10.0	5_exp_noRW	64	Rpleas_acq	CS_A	JQQJ	CPPC	ZHHZ	DXXD	YFFY	LWWL	sonnig	vertrauen	genießen	träumen	küssen	gütig	sterben	versagen	gemein	töten	krank	gierig	47pct	acq_USpleas_CSunple1_noRW	acq23456_noRW	3	26	0	0	300	300	396	50	0	1	1	blank2r.bmp	0	1	+	0	1	blank2r.bmp	252	1	ZHHZ	306	1	sonnig	559	0	0	0	0	0	0	0	0	0	0	0	0	0	0	0	0	0	0	0	0	0	0	0	0	0	0	0	0	0	0	0	0	0	0	0	0	0	0	0
071719	14:34:29	14:41:19	408752	5.0.10.0	5_exp_noRW	64	Rpleas_acq	CS_A	JQQJ	CPPC	ZHHZ	DXXD	YFFY	LWWL	sonnig	vertrauen	genießen	träumen	küssen	gütig	sterben	versagen	gemein	töten	krank	gierig	47pct	acq_USunple_CSunple1_noRW	acq23456_noRW	3	27	0	0	300	300	842	46	0	1	1	blank2r.bmp	0	1	+	0	1	blank2r.bmp	252	1	ZHHZ	306	2	versagen	559	0	0	0	0	0	0	0	0	0	0	0	0	0	0	0	0	0	0	0	0	0	0	0	0	0	0	0	0	0	0	0	0	0	0	0	0	0	0	0
071719	14:34:29	14:41:20	410498	5.0.10.0	5_exp_noRW	64	Rpleas_acq	CS_A	JQQJ	CPPC	ZHHZ	DXXD	YFFY	LWWL	sonnig	vertrauen	genießen	träumen	küssen	gütig	sterben	versagen	gemein	töten	krank	gierig	53pct	acq_USpleas_CSpleas1_noRW	acq23456_noRW	3	28	0	0	300	300	570	50	0	1	1	blank2r.bmp	0	1	+	0	1	blank2r.bmp	252	1	JQQJ	306	2	vertrauen	559	0	0	0	0	0	0	0	0	0	0	0	0	0	0	0	0	0	0	0	0	0	0	0	0	0	0	0	0	0	0	0	0	0	0	0	0	0	0	0
071719	14:34:29	14:41:22	412310	5.0.10.0	5_exp_noRW	64	Rpleas_acq	CS_A	JQQJ	CPPC	ZHHZ	DXXD	YFFY	LWWL	sonnig	vertrauen	genießen	träumen	küssen	gütig	sterben	versagen	gemein	töten	krank	gierig	53pct	acq_USpleas_CSpleas1_noRW	acq23456_noRW	3	29	0	0	300	300	629	50	0	1	1	blank2r.bmp	0	1	+	0	1	blank2r.bmp	252	1	JQQJ	306	1	sonnig	559	0	0	0	0	0	0	0	0	0	0	0	0	0	0	0	0	0	0	0	0	0	0	0	0	0	0	0	0	0	0	0	0	0	0	0	0	0	0	0
071719	14:34:29	14:41:24	414043	5.0.10.0	5_exp_noRW	64	Rpleas_acq	CS_A	JQQJ	CPPC	ZHHZ	DXXD	YFFY	LWWL	sonnig	vertrauen	genießen	träumen	küssen	gütig	sterben	versagen	gemein	töten	krank	gierig	47pct	acq_USunple_CSunple1_noRW	acq23456_noRW	3	30	0	0	300	300	557	46	0	1	1	blank2r.bmp	0	1	+	0	1	blank2r.bmp	252	1	ZHHZ	306	1	sterben	559	0	0	0	0	0	0	0	0	0	0	0	0	0	0	0	0	0	0	0	0	0	0	0	0	0	0	0	0	0	0	0	0	0	0	0	0	0	0	0
071719	14:34:29	14:41:26	416295	5.0.10.0	5_exp_noRW	64	Rpleas_acq	CS_A	JQQJ	CPPC	ZHHZ	DXXD	YFFY	LWWL	sonnig	vertrauen	genießen	träumen	küssen	gütig	sterben	versagen	gemein	töten	krank	gierig	53pct	acq_USpleas_CSpleas2_noRW	acq23456_noRW	3	31	0	0	300	300	1067	50	0	1	1	blank2r.bmp	0	1	+	0	1	blank2r.bmp	252	1	CPPC	306	1	träumen	559	0	0	0	0	0	0	0	0	0	0	0	0	0	0	0	0	0	0	0	0	0	0	0	0	0	0	0	0	0	0	0	0	0	0	0	0	0	0	0
071719	14:34:29	14:41:28	418108	5.0.10.0	5_exp_noRW	64	Rpleas_acq	CS_A	JQQJ	CPPC	ZHHZ	DXXD	YFFY	LWWL	sonnig	vertrauen	genießen	träumen	küssen	gütig	sterben	versagen	gemein	töten	krank	gierig	47pct	acq_USunple_CSunple2_noRW	acq23456_noRW	3	32	0	0	300	300	643	46	0	1	1	blank2r.bmp	0	1	+	0	1	blank2r.bmp	252	1	DXXD	306	3	gierig	559	0	0	0	0	0	0	0	0	0	0	0	0	0	0	0	0	0	0	0	0	0	0	0	0	0	0	0	0	0	0	0	0	0	0	0	0	0	0	0
071719	14:34:29	14:41:30	419681	5.0.10.0	5_exp_noRW	64	Rpleas_acq	CS_A	JQQJ	CPPC	ZHHZ	DXXD	YFFY	LWWL	sonnig	vertrauen	genießen	träumen	küssen	gütig	sterben	versagen	gemein	töten	krank	gierig	53pct	acq_USpleas_CSpleas2_noRW	acq23456_noRW	3	33	0	0	300	300	411	50	0	1	1	blank2r.bmp	0	1	+	0	1	blank2r.bmp	252	1	CPPC	306	2	küssen	559	0	0	0	0	0	0	0	0	0	0	0	0	0	0	0	0	0	0	0	0	0	0	0	0	0	0	0	0	0	0	0	0	0	0	0	0	0	0	0
071719	14:34:29	14:41:31	421280	5.0.10.0	5_exp_noRW	64	Rpleas_acq	CS_A	JQQJ	CPPC	ZHHZ	DXXD	YFFY	LWWL	sonnig	vertrauen	genießen	träumen	küssen	gütig	sterben	versagen	gemein	töten	krank	gierig	53pct	acq_USunple_CSpleas2_noRW	acq23456_noRW	3	34	0	0	300	300	414	46	0	1	1	blank2r.bmp	0	1	+	0	1	blank2r.bmp	252	1	CPPC	306	2	krank	559	0	0	0	0	0	0	0	0	0	0	0	0	0	0	0	0	0	0	0	0	0	0	0	0	0	0	0	0	0	0	0	0	0	0	0	0	0	0	0
071719	14:34:29	14:41:33	422933	5.0.10.0	5_exp_noRW	64	Rpleas_acq	CS_A	JQQJ	CPPC	ZHHZ	DXXD	YFFY	LWWL	sonnig	vertrauen	genießen	träumen	küssen	gütig	sterben	versagen	gemein	töten	krank	gierig	53pct	acq_USunple_CSunple2_noRW	acq23456_noRW	3	35	0	0	300	300	469	46	0	1	1	blank2r.bmp	0	1	+	0	1	blank2r.bmp	252	1	DXXD	306	1	töten	559	0	0	0	0	0	0	0	0	0	0	0	0	0	0	0	0	0	0	0	0	0	0	0	0	0	0	0	0	0	0	0	0	0	0	0	0	0	0	0
071719	14:34:29	14:41:35	424852	5.0.10.0	5_exp_noRW	64	Rpleas_acq	CS_A	JQQJ	CPPC	ZHHZ	DXXD	YFFY	LWWL	sonnig	vertrauen	genießen	träumen	küssen	gütig	sterben	versagen	gemein	töten	krank	gierig	53pct	acq_USpleas_CSpleas2_noRW	acq23456_noRW	3	36	0	0	300	300	732	50	0	1	1	blank2r.bmp	0	1	+	0	1	blank2r.bmp	252	1	CPPC	306	3	gütig	559	0	0	0	0	0	0	0	0	0	0	0	0	0	0	0	0	0	0	0	0	0	0	0	0	0	0	0	0	0	0	0	0	0	0	0	0	0	0	0
071719	14:34:29	14:41:36	426598	5.0.10.0	5_exp_noRW	64	Rpleas_acq	CS_A	JQQJ	CPPC	ZHHZ	DXXD	YFFY	LWWL	sonnig	vertrauen	genießen	träumen	küssen	gütig	sterben	versagen	gemein	töten	krank	gierig	47pct	acq_USpleas_CSpleas2_noRW	acq23456_noRW	3	37	0	0	300	300	577	50	0	1	1	blank2r.bmp	0	1	+	0	1	blank2r.bmp	252	1	CPPC	306	3	gütig	559	0	0	0	0	0	0	0	0	0	0	0	0	0	0	0	0	0	0	0	0	0	0	0	0	0	0	0	0	0	0	0	0	0	0	0	0	0	0	0
071719	14:34:29	14:41:38	428557	5.0.10.0	5_exp_noRW	64	Rpleas_acq	CS_A	JQQJ	CPPC	ZHHZ	DXXD	YFFY	LWWL	sonnig	vertrauen	genießen	träumen	küssen	gütig	sterben	versagen	gemein	töten	krank	gierig	53pct	acq_USunple_CSunple2_noRW	acq23456_noRW	3	38	0	0	300	300	774	46	0	1	1	blank2r.bmp	0	1	+	0	1	blank2r.bmp	252	1	DXXD	306	3	gierig	559	0	0	0	0	0	0	0	0	0	0	0	0	0	0	0	0	0	0	0	0	0	0	0	0	0	0	0	0	0	0	0	0	0	0	0	0	0	0	0
071719	14:34:29	14:41:40	430263	5.0.10.0	5_exp_noRW	64	Rpleas_acq	CS_A	JQQJ	CPPC	ZHHZ	DXXD	YFFY	LWWL	sonnig	vertrauen	genießen	träumen	küssen	gütig	sterben	versagen	gemein	töten	krank	gierig	47pct	acq_USunple_CSunple1_noRW	acq23456_noRW	3	39	0	0	300	300	544	46	0	1	1	blank2r.bmp	0	1	+	0	1	blank2r.bmp	252	1	ZHHZ	306	1	sterben	559	0	0	0	0	0	0	0	0	0	0	0	0	0	0	0	0	0	0	0	0	0	0	0	0	0	0	0	0	0	0	0	0	0	0	0	0	0	0	0
071719	14:34:29	14:41:42	431982	5.0.10.0	5_exp_noRW	64	Rpleas_acq	CS_A	JQQJ	CPPC	ZHHZ	DXXD	YFFY	LWWL	sonnig	vertrauen	genießen	träumen	küssen	gütig	sterben	versagen	gemein	töten	krank	gierig	47pct	acq_USpleas_CSpleas1_noRW	acq23456_noRW	3	40	0	0	300	300	535	50	0	1	1	blank2r.bmp	0	1	+	0	1	blank2r.bmp	252	1	JQQJ	306	2	vertrauen	559	0	0	0	0	0	0	0	0	0	0	0	0	0	0	0	0	0	0	0	0	0	0	0	0	0	0	0	0	0	0	0	0	0	0	0	0	0	0	0
071719	14:34:29	14:41:44	433835	5.0.10.0	5_exp_noRW	64	Rpleas_acq	CS_A	JQQJ	CPPC	ZHHZ	DXXD	YFFY	LWWL	sonnig	vertrauen	genießen	träumen	küssen	gütig	sterben	versagen	gemein	töten	krank	gierig	47pct	acq_USunple_CSpleas1_noRW	acq23456_noRW	3	41	0	0	300	300	671	46	0	1	1	blank2r.bmp	0	1	+	0	1	blank2r.bmp	252	1	JQQJ	306	2	versagen	559	0	0	0	0	0	0	0	0	0	0	0	0	0	0	0	0	0	0	0	0	0	0	0	0	0	0	0	0	0	0	0	0	0	0	0	0	0	0	0
071719	14:34:29	14:41:45	435461	5.0.10.0	5_exp_noRW	64	Rpleas_acq	CS_A	JQQJ	CPPC	ZHHZ	DXXD	YFFY	LWWL	sonnig	vertrauen	genießen	träumen	küssen	gütig	sterben	versagen	gemein	töten	krank	gierig	47pct	acq_USpleas_CSpleas2_noRW	acq23456_noRW	3	42	0	0	300	300	438	50	0	1	1	blank2r.bmp	0	1	+	0	1	blank2r.bmp	252	1	CPPC	306	1	träumen	559	0	0	0	0	0	0	0	0	0	0	0	0	0	0	0	0	0	0	0	0	0	0	0	0	0	0	0	0	0	0	0	0	0	0	0	0	0	0	0
071719	14:34:29	14:41:47	437420	5.0.10.0	5_exp_noRW	64	Rpleas_acq	CS_A	JQQJ	CPPC	ZHHZ	DXXD	YFFY	LWWL	sonnig	vertrauen	genießen	träumen	küssen	gütig	sterben	versagen	gemein	töten	krank	gierig	53pct	acq_USpleas_CSunple2_noRW	acq23456_noRW	3	43	0	0	300	300	581	46	0	0	1	blank2r.bmp	0	1	+	0	1	blank2r.bmp	252	1	DXXD	306	3	gütig	559	1	FEHLER	1172	0	0	0	0	0	0	0	0	0	0	0	0	0	0	0	0	0	0	0	0	0	0	0	0	0	0	0	0	0	0	0	0	0	0	0	0
071719	14:34:29	14:41:49	439033	5.0.10.0	5_exp_noRW	64	Rpleas_acq	CS_A	JQQJ	CPPC	ZHHZ	DXXD	YFFY	LWWL	sonnig	vertrauen	genießen	träumen	küssen	gütig	sterben	versagen	gemein	töten	krank	gierig	47pct	acq_USunple_CSunple2_noRW	acq23456_noRW	3	44	0	0	300	300	648	46	0	1	1	blank2r.bmp	0	1	+	0	1	blank2r.bmp	252	1	DXXD	306	1	töten	559	0	0	0	0	0	0	0	0	0	0	0	0	0	0	0	0	0	0	0	0	0	0	0	0	0	0	0	0	0	0	0	0	0	0	0	0	0	0	0
071719	14:34:29	14:41:51	440699	5.0.10.0	5_exp_noRW	64	Rpleas_acq	CS_A	JQQJ	CPPC	ZHHZ	DXXD	YFFY	LWWL	sonnig	vertrauen	genießen	träumen	küssen	gütig	sterben	versagen	gemein	töten	krank	gierig	47pct	acq_USpleas_CSpleas2_noRW	acq23456_noRW	3	45	0	0	300	300	487	50	0	1	1	blank2r.bmp	0	1	+	0	1	blank2r.bmp	252	1	CPPC	306	2	küssen	559	0	0	0	0	0	0	0	0	0	0	0	0	0	0	0	0	0	0	0	0	0	0	0	0	0	0	0	0	0	0	0	0	0	0	0	0	0	0	0
071719	14:34:29	14:41:52	442391	5.0.10.0	5_exp_noRW	64	Rpleas_acq	CS_A	JQQJ	CPPC	ZHHZ	DXXD	YFFY	LWWL	sonnig	vertrauen	genießen	träumen	küssen	gütig	sterben	versagen	gemein	töten	krank	gierig	47pct	acq_USpleas_CSunple1_noRW	acq23456_noRW	3	46	0	0	300	300	507	50	0	1	1	blank2r.bmp	0	1	+	0	1	blank2r.bmp	252	1	ZHHZ	306	3	genießen	559	0	0	0	0	0	0	0	0	0	0	0	0	0	0	0	0	0	0	0	0	0	0	0	0	0	0	0	0	0	0	0	0	0	0	0	0	0	0	0
071719	14:34:29	14:41:54	444097	5.0.10.0	5_exp_noRW	64	Rpleas_acq	CS_A	JQQJ	CPPC	ZHHZ	DXXD	YFFY	LWWL	sonnig	vertrauen	genießen	träumen	küssen	gütig	sterben	versagen	gemein	töten	krank	gierig	53pct	acq_USunple_CSunple1_noRW	acq23456_noRW	3	47	0	0	300	300	537	46	0	1	1	blank2r.bmp	0	1	+	0	1	blank2r.bmp	252	1	ZHHZ	306	2	versagen	559	0	0	0	0	0	0	0	0	0	0	0	0	0	0	0	0	0	0	0	0	0	0	0	0	0	0	0	0	0	0	0	0	0	0	0	0	0	0	0
071719	14:34:29	14:41:56	445830	5.0.10.0	5_exp_noRW	64	Rpleas_acq	CS_A	JQQJ	CPPC	ZHHZ	DXXD	YFFY	LWWL	sonnig	vertrauen	genießen	träumen	küssen	gütig	sterben	versagen	gemein	töten	krank	gierig	47pct	acq_USunple_CSunple1_noRW	acq23456_noRW	3	48	0	0	300	300	563	46	0	1	1	blank2r.bmp	0	1	+	0	1	blank2r.bmp	252	1	ZHHZ	306	3	gemein	559	0	0	0	0	0	0	0	0	0	0	0	0	0	0	0	0	0	0	0	0	0	0	0	0	0	0	0	0	0	0	0	0	0	0	0	0	0	0	0
071719	14:34:29	14:41:57	447483	5.0.10.0	5_exp_noRW	64	Rpleas_acq	CS_A	JQQJ	CPPC	ZHHZ	DXXD	YFFY	LWWL	sonnig	vertrauen	genießen	träumen	küssen	gütig	sterben	versagen	gemein	töten	krank	gierig	53pct	acq_USpleas_CSpleas1_noRW	acq23456_noRW	3	49	0	0	300	300	480	50	0	1	1	blank2r.bmp	0	1	+	0	1	blank2r.bmp	252	1	JQQJ	306	1	sonnig	559	0	0	0	0	0	0	0	0	0	0	0	0	0	0	0	0	0	0	0	0	0	0	0	0	0	0	0	0	0	0	0	0	0	0	0	0	0	0	0
071719	14:34:29	14:41:59	449162	5.0.10.0	5_exp_noRW	64	Rpleas_acq	CS_A	JQQJ	CPPC	ZHHZ	DXXD	YFFY	LWWL	sonnig	vertrauen	genießen	träumen	küssen	gütig	sterben	versagen	gemein	töten	krank	gierig	53pct	acq_USunple_CSunple1_noRW	acq23456_noRW	3	50	0	0	300	300	517	46	0	1	1	blank2r.bmp	0	1	+	0	1	blank2r.bmp	252	1	ZHHZ	306	3	gemein	559	0	0	0	0	0	0	0	0	0	0	0	0	0	0	0	0	0	0	0	0	0	0	0	0	0	0	0	0	0	0	0	0	0	0	0	0	0	0	0
071719	14:34:29	14:42:01	451108	5.0.10.0	5_exp_noRW	64	Rpleas_acq	CS_A	JQQJ	CPPC	ZHHZ	DXXD	YFFY	LWWL	sonnig	vertrauen	genießen	träumen	küssen	gütig	sterben	versagen	gemein	töten	krank	gierig	53pct	acq_USpleas_CSpleas2_noRW	acq23456_noRW	3	51	0	0	300	300	784	50	0	1	1	blank2r.bmp	0	1	+	0	1	blank2r.bmp	252	1	CPPC	306	3	gütig	559	0	0	0	0	0	0	0	0	0	0	0	0	0	0	0	0	0	0	0	0	0	0	0	0	0	0	0	0	0	0	0	0	0	0	0	0	0	0	0
071719	14:34:29	14:42:03	452907	5.0.10.0	5_exp_noRW	64	Rpleas_acq	CS_A	JQQJ	CPPC	ZHHZ	DXXD	YFFY	LWWL	sonnig	vertrauen	genießen	träumen	küssen	gütig	sterben	versagen	gemein	töten	krank	gierig	53pct	acq_USpleas_CSpleas1_noRW	acq23456_noRW	3	52	0	0	300	300	616	50	0	1	1	blank2r.bmp	0	1	+	0	1	blank2r.bmp	252	1	JQQJ	306	3	genießen	559	0	0	0	0	0	0	0	0	0	0	0	0	0	0	0	0	0	0	0	0	0	0	0	0	0	0	0	0	0	0	0	0	0	0	0	0	0	0	0
071719	14:34:29	14:42:04	454573	5.0.10.0	5_exp_noRW	64	Rpleas_acq	CS_A	JQQJ	CPPC	ZHHZ	DXXD	YFFY	LWWL	sonnig	vertrauen	genießen	träumen	küssen	gütig	sterben	versagen	gemein	töten	krank	gierig	47pct	acq_USunple_CSunple2_noRW	acq23456_noRW	3	53	0	0	300	300	499	46	0	1	1	blank2r.bmp	0	1	+	0	1	blank2r.bmp	252	1	DXXD	306	2	krank	559	0	0	0	0	0	0	0	0	0	0	0	0	0	0	0	0	0	0	0	0	0	0	0	0	0	0	0	0	0	0	0	0	0	0	0	0	0	0	0
071719	14:34:29	14:42:06	456212	5.0.10.0	5_exp_noRW	64	Rpleas_acq	CS_A	JQQJ	CPPC	ZHHZ	DXXD	YFFY	LWWL	sonnig	vertrauen	genießen	träumen	küssen	gütig	sterben	versagen	gemein	töten	krank	gierig	53pct	acq_USpleas_CSpleas1_noRW	acq23456_noRW	3	54	0	0	300	300	458	50	0	1	1	blank2r.bmp	0	1	+	0	1	blank2r.bmp	252	1	JQQJ	306	3	genießen	559	0	0	0	0	0	0	0	0	0	0	0	0	0	0	0	0	0	0	0	0	0	0	0	0	0	0	0	0	0	0	0	0	0	0	0	0	0	0	0
071719	14:34:29	14:42:08	457905	5.0.10.0	5_exp_noRW	64	Rpleas_acq	CS_A	JQQJ	CPPC	ZHHZ	DXXD	YFFY	LWWL	sonnig	vertrauen	genießen	träumen	küssen	gütig	sterben	versagen	gemein	töten	krank	gierig	53pct	acq_USunple_CSunple2_noRW	acq23456_noRW	3	55	0	0	300	300	522	46	0	1	1	blank2r.bmp	0	1	+	0	1	blank2r.bmp	252	1	DXXD	306	1	töten	559	0	0	0	0	0	0	0	0	0	0	0	0	0	0	0	0	0	0	0	0	0	0	0	0	0	0	0	0	0	0	0	0	0	0	0	0	0	0	0
071719	14:34:29	14:42:10	459931	5.0.10.0	5_exp_noRW	64	Rpleas_acq	CS_A	JQQJ	CPPC	ZHHZ	DXXD	YFFY	LWWL	sonnig	vertrauen	genießen	träumen	küssen	gütig	sterben	versagen	gemein	töten	krank	gierig	53pct	acq_USpleas_CSpleas2_noRW	acq23456_noRW	3	56	0	0	300	300	862	50	0	1	1	blank2r.bmp	0	1	+	0	1	blank2r.bmp	252	1	CPPC	306	1	träumen	559	0	0	0	0	0	0	0	0	0	0	0	0	0	0	0	0	0	0	0	0	0	0	0	0	0	0	0	0	0	0	0	0	0	0	0	0	0	0	0
071719	14:34:29	14:42:12	461717	5.0.10.0	5_exp_noRW	64	Rpleas_acq	CS_A	JQQJ	CPPC	ZHHZ	DXXD	YFFY	LWWL	sonnig	vertrauen	genießen	träumen	küssen	gütig	sterben	versagen	gemein	töten	krank	gierig	53pct	acq_USpleas_CSpleas1_noRW	acq23456_noRW	3	57	0	0	300	300	600	50	0	1	1	blank2r.bmp	0	1	+	0	1	blank2r.bmp	252	1	JQQJ	306	2	vertrauen	559	0	0	0	0	0	0	0	0	0	0	0	0	0	0	0	0	0	0	0	0	0	0	0	0	0	0	0	0	0	0	0	0	0	0	0	0	0	0	0
071719	14:34:29	14:42:14	463982	5.0.10.0	5_exp_noRW	64	Rpleas_acq	CS_A	JQQJ	CPPC	ZHHZ	DXXD	YFFY	LWWL	sonnig	vertrauen	genießen	träumen	küssen	gütig	sterben	versagen	gemein	töten	krank	gierig	53pct	acq_USunple_CSunple2_noRW	acq23456_noRW	3	58	0	0	300	300	868	50	0	0	1	blank2r.bmp	0	1	+	0	1	blank2r.bmp	252	1	DXXD	306	3	gierig	559	1	FEHLER	1466	0	0	0	0	0	0	0	0	0	0	0	0	0	0	0	0	0	0	0	0	0	0	0	0	0	0	0	0	0	0	0	0	0	0	0	0
071719	14:34:29	14:42:15	465568	5.0.10.0	5_exp_noRW	64	Rpleas_acq	CS_A	JQQJ	CPPC	ZHHZ	DXXD	YFFY	LWWL	sonnig	vertrauen	genießen	träumen	küssen	gütig	sterben	versagen	gemein	töten	krank	gierig	47pct	acq_USunple_CSpleas2_noRW	acq23456_noRW	3	59	0	0	300	300	636	46	0	1	1	blank2r.bmp	0	1	+	0	1	blank2r.bmp	252	1	CPPC	306	3	gierig	559	0	0	0	0	0	0	0	0	0	0	0	0	0	0	0	0	0	0	0	0	0	0	0	0	0	0	0	0	0	0	0	0	0	0	0	0	0	0	0
071719	14:34:29	14:42:17	467488	5.0.10.0	5_exp_noRW	64	Rpleas_acq	CS_A	JQQJ	CPPC	ZHHZ	DXXD	YFFY	LWWL	sonnig	vertrauen	genießen	träumen	küssen	gütig	sterben	versagen	gemein	töten	krank	gierig	53pct	acq_USunple_CSunple1_noRW	acq23456_noRW	3	60	0	0	300	300	742	46	0	1	1	blank2r.bmp	0	1	+	0	1	blank2r.bmp	252	1	ZHHZ	306	2	versagen	559	0	0	0	0	0	0	0	0	0	0	0	0	0	0	0	0	0	0	0	0	0	0	0	0	0	0	0	0	0	0	0	0	0	0	0	0	0	0	0
071719	14:34:29	14:42:19	469154	5.0.10.0	5_exp_noRW	64	Rpleas_acq	CS_A	JQQJ	CPPC	ZHHZ	DXXD	YFFY	LWWL	sonnig	vertrauen	genießen	träumen	küssen	gütig	sterben	versagen	gemein	töten	krank	gierig	47pct	acq_USunple_CSunple2_noRW	acq23456_noRW	3	61	0	0	300	300	479	46	0	1	1	blank2r.bmp	0	1	+	0	1	blank2r.bmp	252	1	DXXD	306	2	krank	559	0	0	0	0	0	0	0	0	0	0	0	0	0	0	0	0	0	0	0	0	0	0	0	0	0	0	0	0	0	0	0	0	0	0	0	0	0	0	0
071719	14:34:29	14:42:21	470820	5.0.10.0	5_exp_noRW	64	Rpleas_acq	CS_A	JQQJ	CPPC	ZHHZ	DXXD	YFFY	LWWL	sonnig	vertrauen	genießen	träumen	küssen	gütig	sterben	versagen	gemein	töten	krank	gierig	47pct	acq_USpleas_CSpleas1_noRW	acq23456_noRW	3	62	0	0	300	300	497	50	0	1	1	blank2r.bmp	0	1	+	0	1	blank2r.bmp	252	1	JQQJ	306	1	sonnig	559	0	0	0	0	0	0	0	0	0	0	0	0	0	0	0	0	0	0	0	0	0	0	0	0	0	0	0	0	0	0	0	0	0	0	0	0	0	0	0
071719	14:34:29	14:42:22	472446	5.0.10.0	5_exp_noRW	64	Rpleas_acq	CS_A	JQQJ	CPPC	ZHHZ	DXXD	YFFY	LWWL	sonnig	vertrauen	genießen	träumen	küssen	gütig	sterben	versagen	gemein	töten	krank	gierig	47pct	acq_USpleas_CSpleas2_noRW	acq23456_noRW	3	63	0	0	300	300	463	50	0	1	1	blank2r.bmp	0	1	+	0	1	blank2r.bmp	252	1	CPPC	306	2	küssen	559	0	0	0	0	0	0	0	0	0	0	0	0	0	0	0	0	0	0	0	0	0	0	0	0	0	0	0	0	0	0	0	0	0	0	0	0	0	0	0
071719	14:34:29	14:42:24	474098	5.0.10.0	5_exp_noRW	64	Rpleas_acq	CS_A	JQQJ	CPPC	ZHHZ	DXXD	YFFY	LWWL	sonnig	vertrauen	genießen	träumen	küssen	gütig	sterben	versagen	gemein	töten	krank	gierig	53pct	acq_USunple_CSunple1_noRW	acq23456_noRW	3	64	0	0	300	300	469	46	0	1	1	blank2r.bmp	0	1	+	0	1	blank2r.bmp	252	1	ZHHZ	306	1	sterben	559	0	0	0	0	0	0	0	0	0	0	0	0	0	0	0	0	0	0	0	0	0	0	0	0	0	0	0	0	0	0	0	0	0	0	0	0	0	0	0
071719	14:34:29	14:42:26	476044	5.0.10.0	5_exp_noRW	64	Rpleas_acq	CS_A	JQQJ	CPPC	ZHHZ	DXXD	YFFY	LWWL	sonnig	vertrauen	genießen	träumen	küssen	gütig	sterben	versagen	gemein	töten	krank	gierig	53pct	acq_USunple_CSunple2_noRW	acq23456_noRW	3	65	0	0	300	300	571	50	0	0	1	blank2r.bmp	0	1	+	0	1	blank2r.bmp	252	1	DXXD	306	1	töten	559	1	FEHLER	1159	0	0	0	0	0	0	0	0	0	0	0	0	0	0	0	0	0	0	0	0	0	0	0	0	0	0	0	0	0	0	0	0	0	0	0	0
071719	14:34:29	14:42:27	477510	5.0.10.0	5_exp_noRW	64	Rpleas_acq	CS_A	JQQJ	CPPC	ZHHZ	DXXD	YFFY	LWWL	sonnig	vertrauen	genießen	träumen	küssen	gütig	sterben	versagen	gemein	töten	krank	gierig	47pct	acq_USpleas_CSunple2_noRW	acq23456_noRW	3	66	0	0	300	300	494	50	0	1	1	blank2r.bmp	0	1	+	0	1	blank2r.bmp	252	1	DXXD	306	2	küssen	559	0	0	0	0	0	0	0	0	0	0	0	0	0	0	0	0	0	0	0	0	0	0	0	0	0	0	0	0	0	0	0	0	0	0	0	0	0	0	0
071719	14:34:29	14:42:29	479176	5.0.10.0	5_exp_noRW	64	Rpleas_acq	CS_A	JQQJ	CPPC	ZHHZ	DXXD	YFFY	LWWL	sonnig	vertrauen	genießen	träumen	küssen	gütig	sterben	versagen	gemein	töten	krank	gierig	53pct	acq_USunple_CSpleas2_noRW	acq23456_noRW	3	67	0	0	300	300	504	46	0	1	1	blank2r.bmp	0	1	+	0	1	blank2r.bmp	252	1	CPPC	306	1	töten	559	0	0	0	0	0	0	0	0	0	0	0	0	0	0	0	0	0	0	0	0	0	0	0	0	0	0	0	0	0	0	0	0	0	0	0	0	0	0	0
071719	14:34:29	14:42:31	480842	5.0.10.0	5_exp_noRW	64	Rpleas_acq	CS_A	JQQJ	CPPC	ZHHZ	DXXD	YFFY	LWWL	sonnig	vertrauen	genießen	träumen	küssen	gütig	sterben	versagen	gemein	töten	krank	gierig	47pct	acq_USunple_CSunple1_noRW	acq23456_noRW	3	68	0	0	300	300	492	46	0	1	1	blank2r.bmp	0	1	+	0	1	blank2r.bmp	252	1	ZHHZ	306	1	sterben	559	0	0	0	0	0	0	0	0	0	0	0	0	0	0	0	0	0	0	0	0	0	0	0	0	0	0	0	0	0	0	0	0	0	0	0	0	0	0	0
071719	14:34:29	14:42:32	482575	5.0.10.0	5_exp_noRW	64	Rpleas_acq	CS_A	JQQJ	CPPC	ZHHZ	DXXD	YFFY	LWWL	sonnig	vertrauen	genießen	träumen	küssen	gütig	sterben	versagen	gemein	töten	krank	gierig	53pct	acq_USunple_CSpleas1_noRW	acq23456_noRW	3	69	0	0	300	300	555	46	0	1	1	blank2r.bmp	0	1	+	0	1	blank2r.bmp	252	1	JQQJ	306	3	gemein	559	0	0	0	0	0	0	0	0	0	0	0	0	0	0	0	0	0	0	0	0	0	0	0	0	0	0	0	0	0	0	0	0	0	0	0	0	0	0	0
071719	14:34:29	14:42:34	484134	5.0.10.0	5_exp_noRW	64	Rpleas_acq	CS_A	JQQJ	CPPC	ZHHZ	DXXD	YFFY	LWWL	sonnig	vertrauen	genießen	träumen	küssen	gütig	sterben	versagen	gemein	töten	krank	gierig	47pct	acq_USunple_CSunple2_noRW	acq23456_noRW	3	70	0	0	300	300	382	46	0	1	1	blank2r.bmp	0	1	+	0	1	blank2r.bmp	252	1	DXXD	306	2	krank	559	0	0	0	0	0	0	0	0	0	0	0	0	0	0	0	0	0	0	0	0	0	0	0	0	0	0	0	0	0	0	0	0	0	0	0	0	0	0	0
071719	14:34:29	14:42:36	485867	5.0.10.0	5_exp_noRW	64	Rpleas_acq	CS_A	JQQJ	CPPC	ZHHZ	DXXD	YFFY	LWWL	sonnig	vertrauen	genießen	träumen	küssen	gütig	sterben	versagen	gemein	töten	krank	gierig	47pct	acq_USpleas_CSpleas2_noRW	acq23456_noRW	3	71	0	0	300	300	546	50	0	1	1	blank2r.bmp	0	1	+	0	1	blank2r.bmp	252	1	CPPC	306	3	gütig	559	0	0	0	0	0	0	0	0	0	0	0	0	0	0	0	0	0	0	0	0	0	0	0	0	0	0	0	0	0	0	0	0	0	0	0	0	0	0	0
071719	14:34:29	14:42:37	487613	5.0.10.0	5_exp_noRW	64	Rpleas_acq	CS_A	JQQJ	CPPC	ZHHZ	DXXD	YFFY	LWWL	sonnig	vertrauen	genießen	träumen	küssen	gütig	sterben	versagen	gemein	töten	krank	gierig	53pct	acq_USpleas_CSpleas2_noRW	acq23456_noRW	3	72	0	0	300	300	559	50	0	1	1	blank2r.bmp	0	1	+	0	1	blank2r.bmp	252	1	CPPC	306	1	träumen	559	0	0	0	0	0	0	0	0	0	0	0	0	0	0	0	0	0	0	0	0	0	0	0	0	0	0	0	0	0	0	0	0	0	0	0	0	0	0	0
071719	14:34:29	14:42:39	489212	5.0.10.0	5_exp_noRW	64	Rpleas_acq	CS_A	JQQJ	CPPC	ZHHZ	DXXD	YFFY	LWWL	sonnig	vertrauen	genießen	träumen	küssen	gütig	sterben	versagen	gemein	töten	krank	gierig	53pct	acq_USpleas_CSpleas1_noRW	acq23456_noRW	3	73	0	0	300	300	422	50	0	1	1	blank2r.bmp	0	1	+	0	1	blank2r.bmp	252	1	JQQJ	306	1	sonnig	559	0	0	0	0	0	0	0	0	0	0	0	0	0	0	0	0	0	0	0	0	0	0	0	0	0	0	0	0	0	0	0	0	0	0	0	0	0	0	0
071719	14:34:29	14:42:41	490891	5.0.10.0	5_exp_noRW	64	Rpleas_acq	CS_A	JQQJ	CPPC	ZHHZ	DXXD	YFFY	LWWL	sonnig	vertrauen	genießen	träumen	küssen	gütig	sterben	versagen	gemein	töten	krank	gierig	53pct	acq_USpleas_CSpleas1_noRW	acq23456_noRW	3	74	0	0	300	300	501	50	0	1	1	blank2r.bmp	0	1	+	0	1	blank2r.bmp	252	1	JQQJ	306	2	vertrauen	559	0	0	0	0	0	0	0	0	0	0	0	0	0	0	0	0	0	0	0	0	0	0	0	0	0	0	0	0	0	0	0	0	0	0	0	0	0	0	0
071719	14:34:29	14:42:42	492557	5.0.10.0	5_exp_noRW	64	Rpleas_acq	CS_A	JQQJ	CPPC	ZHHZ	DXXD	YFFY	LWWL	sonnig	vertrauen	genießen	träumen	küssen	gütig	sterben	versagen	gemein	töten	krank	gierig	53pct	acq_USunple_CSunple1_noRW	acq23456_noRW	3	75	0	0	300	300	498	46	0	1	1	blank2r.bmp	0	1	+	0	1	blank2r.bmp	252	1	ZHHZ	306	3	gemein	559	0	0	0	0	0	0	0	0	0	0	0	0	0	0	0	0	0	0	0	0	0	0	0	0	0	0	0	0	0	0	0	0	0	0	0	0	0	0	0
071719	14:34:29	14:42:44	494183	5.0.10.0	5_exp_noRW	64	Rpleas_acq	CS_A	JQQJ	CPPC	ZHHZ	DXXD	YFFY	LWWL	sonnig	vertrauen	genießen	träumen	küssen	gütig	sterben	versagen	gemein	töten	krank	gierig	47pct	acq_USpleas_CSunple1_noRW	acq23456_noRW	3	76	0	0	300	300	445	50	0	1	1	blank2r.bmp	0	1	+	0	1	blank2r.bmp	252	1	ZHHZ	306	2	vertrauen	559	0	0	0	0	0	0	0	0	0	0	0	0	0	0	0	0	0	0	0	0	0	0	0	0	0	0	0	0	0	0	0	0	0	0	0	0	0	0	0
071719	14:34:29	14:42:46	495943	5.0.10.0	5_exp_noRW	64	Rpleas_acq	CS_A	JQQJ	CPPC	ZHHZ	DXXD	YFFY	LWWL	sonnig	vertrauen	genießen	träumen	küssen	gütig	sterben	versagen	gemein	töten	krank	gierig	53pct	acq_USunple_CSunple2_noRW	acq23456_noRW	3	77	0	0	300	300	587	46	0	1	1	blank2r.bmp	0	1	+	0	1	blank2r.bmp	252	1	DXXD	306	3	gierig	559	0	0	0	0	0	0	0	0	0	0	0	0	0	0	0	0	0	0	0	0	0	0	0	0	0	0	0	0	0	0	0	0	0	0	0	0	0	0	0
071719	14:34:29	14:42:47	497622	5.0.10.0	5_exp_noRW	64	Rpleas_acq	CS_A	JQQJ	CPPC	ZHHZ	DXXD	YFFY	LWWL	sonnig	vertrauen	genießen	träumen	küssen	gütig	sterben	versagen	gemein	töten	krank	gierig	47pct	acq_USpleas_CSpleas1_noRW	acq23456_noRW	3	78	0	0	300	300	496	50	0	1	1	blank2r.bmp	0	1	+	0	1	blank2r.bmp	252	1	JQQJ	306	3	genießen	559	0	0	0	0	0	0	0	0	0	0	0	0	0	0	0	0	0	0	0	0	0	0	0	0	0	0	0	0	0	0	0	0	0	0	0	0	0	0	0
071719	14:34:29	14:42:49	499275	5.0.10.0	5_exp_noRW	64	Rpleas_acq	CS_A	JQQJ	CPPC	ZHHZ	DXXD	YFFY	LWWL	sonnig	vertrauen	genießen	träumen	küssen	gütig	sterben	versagen	gemein	töten	krank	gierig	53pct	acq_USunple_CSunple1_noRW	acq23456_noRW	3	79	0	0	300	300	484	46	0	1	1	blank2r.bmp	0	1	+	0	1	blank2r.bmp	252	1	ZHHZ	306	2	versagen	559	0	0	0	0	0	0	0	0	0	0	0	0	0	0	0	0	0	0	0	0	0	0	0	0	0	0	0	0	0	0	0	0	0	0	0	0	0	0	0
071719	14:34:29	14:42:51	500874	5.0.10.0	5_exp_noRW	64	Rpleas_acq	CS_A	JQQJ	CPPC	ZHHZ	DXXD	YFFY	LWWL	sonnig	vertrauen	genießen	träumen	küssen	gütig	sterben	versagen	gemein	töten	krank	gierig	47pct	acq_USpleas_CSpleas2_noRW	acq23456_noRW	3	80	0	0	300	300	427	50	0	1	1	blank2r.bmp	0	1	+	0	1	blank2r.bmp	252	1	CPPC	306	2	küssen	559	0	0	0	0	0	0	0	0	0	0	0	0	0	0	0	0	0	0	0	0	0	0	0	0	0	0	0	0	0	0	0	0	0	0	0	0	0	0	0
071719	14:34:29	14:43:06	515775	5.0.10.0	5_exp_noRW	64	Rpleas_acq	CS_A	JQQJ	CPPC	ZHHZ	DXXD	YFFY	LWWL	sonnig	vertrauen	genießen	träumen	küssen	gütig	sterben	versagen	gemein	töten	krank	gierig	47pct	acq_USunple_CSunple2_noRW	acq23456_noRW	4	1	0	0	300	300	448	46	0	1	1	blank2r.bmp	0	1	+	0	1	blank2r.bmp	252	1	DXXD	306	2	krank	559	0	0	0	0	0	0	0	0	0	0	0	0	0	0	0	0	0	0	0	0	0	0	0	0	0	0	0	0	0	0	0	0	0	0	0	0	0	0	0
