date	time	script.currenttime	script.elapsedtime	build	script.currentexpt	subject	expressions.LRpleas_acq	expressions.conditionCS_A	expressions.CSpleas_1	expressions.CSpleas_2	expressions.CSunple_1	expressions.CSunple_2	expressions.distractor_1	expressions.distractor_2	expressions.US_pleas1	expressions.US_pleas2	expressions.US_pleas3	expressions.US_pleas4	expressions.US_pleas5	expressions.US_pleas6	expressions.US_unple1	expressions.US_unple2	expressions.US_unple3	expressions.US_unple4	expressions.US_unple5	expressions.US_unple6	counter.positions_noRW	trialcode	blockcode	blocknum	trialnum	windowcenter	inwindow	pretrialpause	posttrialpause	latency	response	expressions.correctedscore	correct	stimulusnumber1	stimulusitem1	stimulusonset1	stimulusnumber2	stimulusitem2	stimulusonset2	stimulusnumber3	stimulusitem3	stimulusonset3	stimulusnumber4	stimulusitem4	stimulusonset4	stimulusnumber5	stimulusitem5	stimulusonset5	stimulusnumber6	stimulusitem6	stimulusonset6	stimulusnumber7	stimulusitem7	stimulusonset7	stimulusnumber8	stimulusitem8	stimulusonset8	stimulusnumber9	stimulusitem9	stimulusonset9	stimulusnumber10	stimulusitem10	stimulusonset10	stimulusnumber11	stimulusitem11	stimulusonset11	stimulusnumber12	stimulusitem12	stimulusonset12	stimulusnumber13	stimulusitem13	stimulusonset13	stimulusnumber14	stimulusitem14	stimulusonset14	stimulusnumber15	stimulusitem15	stimulusonset15	stimulusnumber16	stimulusitem16	stimulusonset16	stimulusnumber17	stimulusitem17	stimulusonset17	stimulusnumber18	stimulusitem18	stimulusonset18
072919	16:43:19	16:44:51	90869	5.0.10.0	5_exp_RW	87	Rpleas_acq	CS_A	CPPC	JQQJ	YFFY	LWWL	DXXD	ZHHZ	vertrauen	gütig	sonnig	genießen	träumen	küssen	versagen	gierig	sterben	gemein	töten	krank	1	acq_USunple_CSunple1_RW	acq1_RW	1	1	0	0	300	300	1229	50	0	0	1	blank2r.bmp	0	1	+	0	1	blank2r.bmp	492	1	YFFY	492	1	blank2r.bmp	572	3	sterben	866	1	FEHLER	2132	0	0	0	0	0	0	0	0	0	0	0	0	0	0	0	0	0	0	0	0	0	0	0	0	0	0	0	0	0	0	0	0	0
072919	16:43:19	16:44:54	93548	5.0.10.0	5_exp_RW	87	Rpleas_acq	CS_A	CPPC	JQQJ	YFFY	LWWL	DXXD	ZHHZ	vertrauen	gütig	sonnig	genießen	träumen	küssen	versagen	gierig	sterben	gemein	töten	krank	1	acq_USpleas_CSpleas2_RW	acq1_RW	1	2	0	0	300	300	1403	50	0	1	1	blank2r.bmp	0	1	+	0	1	blank2r.bmp	492	1	JQQJ	492	1	blank2r.bmp	572	2	träumen	866	0	0	0	0	0	0	0	0	0	0	0	0	0	0	0	0	0	0	0	0	0	0	0	0	0	0	0	0	0	0	0	0	0	0	0	0
072919	16:43:19	16:44:56	96053	5.0.10.0	5_exp_RW	87	Rpleas_acq	CS_A	CPPC	JQQJ	YFFY	LWWL	DXXD	ZHHZ	vertrauen	gütig	sonnig	genießen	träumen	küssen	versagen	gierig	sterben	gemein	töten	krank	1	acq_USpleas_CSpleas2_RW	acq1_RW	1	3	0	0	300	300	1028	50	0	1	1	blank2r.bmp	0	1	+	0	1	blank2r.bmp	492	1	JQQJ	492	1	blank2r.bmp	572	1	genießen	866	0	0	0	0	0	0	0	0	0	0	0	0	0	0	0	0	0	0	0	0	0	0	0	0	0	0	0	0	0	0	0	0	0	0	0	0
072919	16:43:19	16:44:58	98159	5.0.10.0	5_exp_RW	87	Rpleas_acq	CS_A	CPPC	JQQJ	YFFY	LWWL	DXXD	ZHHZ	vertrauen	gütig	sonnig	genießen	träumen	küssen	versagen	gierig	sterben	gemein	töten	krank	1	acq_USpleas_CSpleas1_RW	acq1_RW	1	4	0	0	300	300	616	50	0	1	1	blank2r.bmp	0	1	+	0	1	blank2r.bmp	492	1	CPPC	492	1	blank2r.bmp	572	2	gütig	866	0	0	0	0	0	0	0	0	0	0	0	0	0	0	0	0	0	0	0	0	0	0	0	0	0	0	0	0	0	0	0	0	0	0	0	0
072919	16:43:19	16:45:01	100958	5.0.10.0	5_exp_RW	87	Rpleas_acq	CS_A	CPPC	JQQJ	YFFY	LWWL	DXXD	ZHHZ	vertrauen	gütig	sonnig	genießen	träumen	küssen	versagen	gierig	sterben	gemein	töten	krank	1	acq_USunple_CSunple2_RW	acq1_RW	1	5	0	0	300	300	1310	46	0	1	1	blank2r.bmp	0	1	+	0	1	blank2r.bmp	492	1	LWWL	492	1	blank2r.bmp	572	1	gemein	866	0	0	0	0	0	0	0	0	0	0	0	0	0	0	0	0	0	0	0	0	0	0	0	0	0	0	0	0	0	0	0	0	0	0	0	0
072919	16:43:19	16:45:03	103357	5.0.10.0	5_exp_RW	87	Rpleas_acq	CS_A	CPPC	JQQJ	YFFY	LWWL	DXXD	ZHHZ	vertrauen	gütig	sonnig	genießen	träumen	küssen	versagen	gierig	sterben	gemein	töten	krank	1	acq_USpleas_CSpleas1_RW	acq1_RW	1	6	0	0	300	300	716	46	0	0	1	blank2r.bmp	0	1	+	0	1	blank2r.bmp	492	1	CPPC	492	1	blank2r.bmp	572	1	vertrauen	866	1	FEHLER	1612	0	0	0	0	0	0	0	0	0	0	0	0	0	0	0	0	0	0	0	0	0	0	0	0	0	0	0	0	0	0	0	0	0
072919	16:43:19	16:45:06	105809	5.0.10.0	5_exp_RW	87	Rpleas_acq	CS_A	CPPC	JQQJ	YFFY	LWWL	DXXD	ZHHZ	vertrauen	gütig	sonnig	genießen	träumen	küssen	versagen	gierig	sterben	gemein	töten	krank	1	acq_USunple_CSunple2_RW	acq1_RW	1	7	0	0	300	300	978	50	0	0	1	blank2r.bmp	0	1	+	0	1	blank2r.bmp	492	1	LWWL	492	1	blank2r.bmp	572	3	krank	866	1	FEHLER	1879	0	0	0	0	0	0	0	0	0	0	0	0	0	0	0	0	0	0	0	0	0	0	0	0	0	0	0	0	0	0	0	0	0
072919	16:43:19	16:45:09	108608	5.0.10.0	5_exp_RW	87	Rpleas_acq	CS_A	CPPC	JQQJ	YFFY	LWWL	DXXD	ZHHZ	vertrauen	gütig	sonnig	genießen	träumen	küssen	versagen	gierig	sterben	gemein	töten	krank	1	acq_USpleas_CSpleas1_RW	acq1_RW	1	8	0	0	300	300	1530	50	0	1	1	blank2r.bmp	0	1	+	0	1	blank2r.bmp	492	1	CPPC	492	1	blank2r.bmp	572	3	sonnig	866	0	0	0	0	0	0	0	0	0	0	0	0	0	0	0	0	0	0	0	0	0	0	0	0	0	0	0	0	0	0	0	0	0	0	0	0
072919	16:43:19	16:45:14	114433	5.0.10.0	5_exp_RW	87	Rpleas_acq	CS_A	CPPC	JQQJ	YFFY	LWWL	DXXD	ZHHZ	vertrauen	gütig	sonnig	genießen	träumen	küssen	versagen	gierig	sterben	gemein	töten	krank	1	acq_USpleas_CSpleas2_RW	acq1_RW	1	9	0	0	300	300	4339	50	0	1	1	blank2r.bmp	0	1	+	0	1	blank2r.bmp	492	1	JQQJ	492	1	blank2r.bmp	572	3	küssen	866	0	0	0	0	0	0	0	0	0	0	0	0	0	0	0	0	0	0	0	0	0	0	0	0	0	0	0	0	0	0	0	0	0	0	0	0
072919	16:43:19	16:45:17	117032	5.0.10.0	5_exp_RW	87	Rpleas_acq	CS_A	CPPC	JQQJ	YFFY	LWWL	DXXD	ZHHZ	vertrauen	gütig	sonnig	genießen	träumen	küssen	versagen	gierig	sterben	gemein	töten	krank	1	acq_USunple_CSunple1_RW	acq1_RW	1	10	0	0	300	300	1117	46	0	1	1	blank2r.bmp	0	1	+	0	1	blank2r.bmp	492	1	YFFY	492	1	blank2r.bmp	572	1	versagen	866	0	0	0	0	0	0	0	0	0	0	0	0	0	0	0	0	0	0	0	0	0	0	0	0	0	0	0	0	0	0	0	0	0	0	0	0
072919	16:43:19	16:45:20	119457	5.0.10.0	5_exp_RW	87	Rpleas_acq	CS_A	CPPC	JQQJ	YFFY	LWWL	DXXD	ZHHZ	vertrauen	gütig	sonnig	genießen	träumen	küssen	versagen	gierig	sterben	gemein	töten	krank	1	acq_USpleas_CSpleas2_RW	acq1_RW	1	11	0	0	300	300	936	50	0	1	1	blank2r.bmp	0	1	+	0	1	blank2r.bmp	492	1	JQQJ	492	1	blank2r.bmp	572	3	küssen	866	0	0	0	0	0	0	0	0	0	0	0	0	0	0	0	0	0	0	0	0	0	0	0	0	0	0	0	0	0	0	0	0	0	0	0	0
072919	16:43:19	16:45:22	122109	5.0.10.0	5_exp_RW	87	Rpleas_acq	CS_A	CPPC	JQQJ	YFFY	LWWL	DXXD	ZHHZ	vertrauen	gütig	sonnig	genießen	träumen	küssen	versagen	gierig	sterben	gemein	töten	krank	1	acq_USpleas_CSpleas1_RW	acq1_RW	1	12	0	0	300	300	967	46	0	0	1	blank2r.bmp	0	1	+	0	1	blank2r.bmp	492	1	CPPC	492	1	blank2r.bmp	572	3	sonnig	866	1	FEHLER	1865	0	0	0	0	0	0	0	0	0	0	0	0	0	0	0	0	0	0	0	0	0	0	0	0	0	0	0	0	0	0	0	0	0
072919	16:43:19	16:45:25	124815	5.0.10.0	5_exp_RW	87	Rpleas_acq	CS_A	CPPC	JQQJ	YFFY	LWWL	DXXD	ZHHZ	vertrauen	gütig	sonnig	genießen	träumen	küssen	versagen	gierig	sterben	gemein	töten	krank	1	acq_USunple_CSunple1_RW	acq1_RW	1	13	0	0	300	300	1426	46	0	1	1	blank2r.bmp	0	1	+	0	1	blank2r.bmp	492	1	YFFY	492	1	blank2r.bmp	572	2	gierig	866	0	0	0	0	0	0	0	0	0	0	0	0	0	0	0	0	0	0	0	0	0	0	0	0	0	0	0	0	0	0	0	0	0	0	0	0
072919	16:43:19	16:45:27	127067	5.0.10.0	5_exp_RW	87	Rpleas_acq	CS_A	CPPC	JQQJ	YFFY	LWWL	DXXD	ZHHZ	vertrauen	gütig	sonnig	genießen	träumen	küssen	versagen	gierig	sterben	gemein	töten	krank	1	acq_USunple_CSunple2_RW	acq1_RW	1	14	0	0	300	300	564	50	0	0	1	blank2r.bmp	0	1	+	0	1	blank2r.bmp	492	1	LWWL	492	1	blank2r.bmp	572	2	töten	866	1	FEHLER	1466	0	0	0	0	0	0	0	0	0	0	0	0	0	0	0	0	0	0	0	0	0	0	0	0	0	0	0	0	0	0	0	0	0
072919	16:43:19	16:45:32	131599	5.0.10.0	5_exp_RW	87	Rpleas_acq	CS_A	CPPC	JQQJ	YFFY	LWWL	DXXD	ZHHZ	vertrauen	gütig	sonnig	genießen	träumen	küssen	versagen	gierig	sterben	gemein	töten	krank	1	acq_USunple_CSunple1_RW	acq1_RW	1	15	0	0	300	300	3266	46	0	1	1	blank2r.bmp	0	1	+	0	1	blank2r.bmp	492	1	YFFY	492	1	blank2r.bmp	572	1	versagen	866	0	0	0	0	0	0	0	0	0	0	0	0	0	0	0	0	0	0	0	0	0	0	0	0	0	0	0	0	0	0	0	0	0	0	0	0
072919	16:43:19	16:45:37	136917	5.0.10.0	5_exp_RW	87	Rpleas_acq	CS_A	CPPC	JQQJ	YFFY	LWWL	DXXD	ZHHZ	vertrauen	gütig	sonnig	genießen	träumen	küssen	versagen	gierig	sterben	gemein	töten	krank	1	acq_USunple_CSunple2_RW	acq1_RW	1	16	0	0	300	300	3849	46	0	1	1	blank2r.bmp	0	1	+	0	1	blank2r.bmp	492	1	LWWL	492	1	blank2r.bmp	572	1	gemein	866	0	0	0	0	0	0	0	0	0	0	0	0	0	0	0	0	0	0	0	0	0	0	0	0	0	0	0	0	0	0	0	0	0	0	0	0
072919	16:43:19	16:46:21	180659	5.0.10.0	5_exp_RW	87	Rpleas_acq	CS_A	CPPC	JQQJ	YFFY	LWWL	DXXD	ZHHZ	vertrauen	gütig	sonnig	genießen	träumen	küssen	versagen	gierig	sterben	gemein	töten	krank	1	acq_USunple_CSunple2_RW	acq2_RW	2	1	480	0	300	300	7419	50	0	0	1	blank2r.bmp	0	1	+	0	1	blank2r.bmp	492	1	LWWL	492	1	blank2r.bmp	572	3	krank	866	1	FEHLER	8623	1	!	1319	1	!	-1	0	0	0	0	0	0	0	0	0	0	0	0	0	0	0	0	0	0	0	0	0	0	0	0	0	0	0
072919	16:43:19	16:46:24	184164	5.0.10.0	5_exp_RW	87	Rpleas_acq	CS_A	CPPC	JQQJ	YFFY	LWWL	DXXD	ZHHZ	vertrauen	gütig	sonnig	genießen	träumen	küssen	versagen	gierig	sterben	gemein	töten	krank	1	acq_USpleas_CSpleas2_RW	acq2_RW	2	2	480	0	300	300	1722	46	0	0	1	blank2r.bmp	0	1	+	0	1	blank2r.bmp	492	1	JQQJ	492	1	blank2r.bmp	572	1	genießen	866	1	FEHLER	2932	1	!	1319	1	!	-1	0	0	0	0	0	0	0	0	0	0	0	0	0	0	0	0	0	0	0	0	0	0	0	0	0	0	0
072919	16:43:19	16:46:27	186883	5.0.10.0	5_exp_RW	87	Rpleas_acq	CS_A	CPPC	JQQJ	YFFY	LWWL	DXXD	ZHHZ	vertrauen	gütig	sonnig	genießen	träumen	küssen	versagen	gierig	sterben	gemein	töten	krank	1	acq_USpleas_CSpleas2_RW	acq2_RW	2	3	480	0	300	300	935	46	0	0	1	blank2r.bmp	0	1	+	0	1	blank2r.bmp	492	1	JQQJ	492	1	blank2r.bmp	572	2	träumen	866	1	FEHLER	2145	1	!	1319	1	!	-1	0	0	0	0	0	0	0	0	0	0	0	0	0	0	0	0	0	0	0	0	0	0	0	0	0	0	0
072919	16:43:19	16:46:30	189589	5.0.10.0	5_exp_RW	87	Rpleas_acq	CS_A	CPPC	JQQJ	YFFY	LWWL	DXXD	ZHHZ	vertrauen	gütig	sonnig	genießen	träumen	küssen	versagen	gierig	sterben	gemein	töten	krank	1	acq_USpleas_CSpleas1_RW	acq2_RW	2	4	480	0	300	300	923	46	0	0	1	blank2r.bmp	0	1	+	0	1	blank2r.bmp	492	1	CPPC	492	1	blank2r.bmp	572	1	vertrauen	866	1	FEHLER	2132	1	!	1319	1	!	-1	0	0	0	0	0	0	0	0	0	0	0	0	0	0	0	0	0	0	0	0	0	0	0	0	0	0	0
072919	16:43:19	16:46:32	192214	5.0.10.0	5_exp_RW	87	Rpleas_acq	CS_A	CPPC	JQQJ	YFFY	LWWL	DXXD	ZHHZ	vertrauen	gütig	sonnig	genießen	träumen	küssen	versagen	gierig	sterben	gemein	töten	krank	1	acq_USpleas_CSpleas2_RW	acq2_RW	2	5	480	0	300	300	827	46	0	0	1	blank2r.bmp	0	1	+	0	1	blank2r.bmp	492	1	JQQJ	492	1	blank2r.bmp	572	3	küssen	866	1	FEHLER	2039	1	!	1319	1	!	-1	0	0	0	0	0	0	0	0	0	0	0	0	0	0	0	0	0	0	0	0	0	0	0	0	0	0	0
072919	16:43:19	16:46:48	207701	5.0.10.0	5_exp_RW	87	Rpleas_acq	CS_A	CPPC	JQQJ	YFFY	LWWL	DXXD	ZHHZ	vertrauen	gütig	sonnig	genießen	träumen	küssen	versagen	gierig	sterben	gemein	töten	krank	1	acq_USpleas_CSpleas2_RW	acq2_RW	2	6	480	0	300	300	13932	50	0	1	1	blank2r.bmp	0	1	+	0	1	blank2r.bmp	492	1	JQQJ	492	1	blank2r.bmp	572	1	genießen	866	1	!	1319	1	!	-1	0	0	0	0	0	0	0	0	0	0	0	0	0	0	0	0	0	0	0	0	0	0	0	0	0	0	0	0	0	0
072919	16:43:19	16:46:53	213352	5.0.10.0	5_exp_RW	87	Rpleas_acq	CS_A	CPPC	JQQJ	YFFY	LWWL	DXXD	ZHHZ	vertrauen	gütig	sonnig	genießen	träumen	küssen	versagen	gierig	sterben	gemein	töten	krank	1	acq_USpleas_CSpleas1_RW	acq2_RW	2	7	480	0	300	300	3876	50	0	1	1	blank2r.bmp	0	1	+	0	1	blank2r.bmp	492	1	CPPC	492	1	blank2r.bmp	572	2	gütig	866	1	!	1319	1	!	-1	0	0	0	0	0	0	0	0	0	0	0	0	0	0	0	0	0	0	0	0	0	0	0	0	0	0	0	0	0	0
072919	16:43:19	16:46:57	217151	5.0.10.0	5_exp_RW	87	Rpleas_acq	CS_A	CPPC	JQQJ	YFFY	LWWL	DXXD	ZHHZ	vertrauen	gütig	sonnig	genießen	träumen	küssen	versagen	gierig	sterben	gemein	töten	krank	1	acq_USunple_CSunple2_RW	acq2_RW	2	8	480	0	300	300	2021	46	0	1	1	blank2r.bmp	0	1	+	0	1	blank2r.bmp	492	1	LWWL	492	1	blank2r.bmp	572	2	töten	866	1	!	1319	1	!	-1	0	0	0	0	0	0	0	0	0	0	0	0	0	0	0	0	0	0	0	0	0	0	0	0	0	0	0	0	0	0
072919	16:43:19	16:47:00	220163	5.0.10.0	5_exp_RW	87	Rpleas_acq	CS_A	CPPC	JQQJ	YFFY	LWWL	DXXD	ZHHZ	vertrauen	gütig	sonnig	genießen	träumen	küssen	versagen	gierig	sterben	gemein	töten	krank	1	acq_USunple_CSunple1_RW	acq2_RW	2	9	480	0	300	300	1000	50	0	0	1	blank2r.bmp	0	1	+	0	1	blank2r.bmp	492	1	YFFY	492	1	blank2r.bmp	572	2	gierig	866	1	FEHLER	2212	1	!	1319	1	!	-1	0	0	0	0	0	0	0	0	0	0	0	0	0	0	0	0	0	0	0	0	0	0	0	0	0	0	0
072919	16:43:19	16:47:04	223868	5.0.10.0	5_exp_RW	87	Rpleas_acq	CS_A	CPPC	JQQJ	YFFY	LWWL	DXXD	ZHHZ	vertrauen	gütig	sonnig	genießen	träumen	küssen	versagen	gierig	sterben	gemein	töten	krank	1	acq_USunple_CSunple1_RW	acq2_RW	2	10	480	0	300	300	2138	46	0	1	1	blank2r.bmp	0	1	+	0	1	blank2r.bmp	492	1	YFFY	492	1	blank2r.bmp	572	3	sterben	866	1	!	1319	1	!	-1	0	0	0	0	0	0	0	0	0	0	0	0	0	0	0	0	0	0	0	0	0	0	0	0	0	0	0	0	0	0
072919	16:43:19	16:47:07	226653	5.0.10.0	5_exp_RW	87	Rpleas_acq	CS_A	CPPC	JQQJ	YFFY	LWWL	DXXD	ZHHZ	vertrauen	gütig	sonnig	genießen	träumen	küssen	versagen	gierig	sterben	gemein	töten	krank	1	acq_USunple_CSunple1_RW	acq2_RW	2	11	480	0	300	300	989	46	0	1	1	blank2r.bmp	0	1	+	0	1	blank2r.bmp	492	1	YFFY	492	1	blank2r.bmp	572	3	sterben	866	1	!	1319	1	!	-1	0	0	0	0	0	0	0	0	0	0	0	0	0	0	0	0	0	0	0	0	0	0	0	0	0	0	0	0	0	0
072919	16:43:19	16:47:09	229319	5.0.10.0	5_exp_RW	87	Rpleas_acq	CS_A	CPPC	JQQJ	YFFY	LWWL	DXXD	ZHHZ	vertrauen	gütig	sonnig	genießen	träumen	küssen	versagen	gierig	sterben	gemein	töten	krank	1	acq_USpleas_CSpleas1_RW	acq2_RW	2	12	480	0	300	300	887	50	0	1	1	blank2r.bmp	0	1	+	0	1	blank2r.bmp	492	1	CPPC	492	1	blank2r.bmp	572	3	sonnig	866	1	!	1319	1	!	-1	0	0	0	0	0	0	0	0	0	0	0	0	0	0	0	0	0	0	0	0	0	0	0	0	0	0	0	0	0	0
072919	16:43:19	16:47:12	231838	5.0.10.0	5_exp_RW	87	Rpleas_acq	CS_A	CPPC	JQQJ	YFFY	LWWL	DXXD	ZHHZ	vertrauen	gütig	sonnig	genießen	träumen	küssen	versagen	gierig	sterben	gemein	töten	krank	1	acq_USpleas_CSpleas1_RW	acq2_RW	2	13	480	1	300	300	494	46	0	0	1	blank2r.bmp	0	1	+	0	1	blank2r.bmp	492	1	CPPC	492	1	blank2r.bmp	572	2	gütig	866	1	FEHLER	1719	1	!	1319	1	!	1399	0	0	0	0	0	0	0	0	0	0	0	0	0	0	0	0	0	0	0	0	0	0	0	0	0	0	0
072919	16:43:19	16:47:19	239048	5.0.10.0	5_exp_RW	87	Rpleas_acq	CS_A	CPPC	JQQJ	YFFY	LWWL	DXXD	ZHHZ	vertrauen	gütig	sonnig	genießen	träumen	küssen	versagen	gierig	sterben	gemein	töten	krank	1	acq_USpleas_CSpleas2_RW	acq2_RW	2	14	480	0	300	300	5661	50	0	1	1	blank2r.bmp	0	1	+	0	1	blank2r.bmp	492	1	JQQJ	492	1	blank2r.bmp	572	2	träumen	866	1	!	1319	1	!	-1	0	0	0	0	0	0	0	0	0	0	0	0	0	0	0	0	0	0	0	0	0	0	0	0	0	0	0	0	0	0
072919	16:43:19	16:47:22	241994	5.0.10.0	5_exp_RW	87	Rpleas_acq	CS_A	CPPC	JQQJ	YFFY	LWWL	DXXD	ZHHZ	vertrauen	gütig	sonnig	genießen	träumen	küssen	versagen	gierig	sterben	gemein	töten	krank	1	acq_USunple_CSunple1_RW	acq2_RW	2	15	480	0	300	300	1167	46	0	1	1	blank2r.bmp	0	1	+	0	1	blank2r.bmp	492	1	YFFY	492	1	blank2r.bmp	572	2	gierig	866	1	!	1319	1	!	-1	0	0	0	0	0	0	0	0	0	0	0	0	0	0	0	0	0	0	0	0	0	0	0	0	0	0	0	0	0	0
072919	16:43:19	16:47:25	244699	5.0.10.0	5_exp_RW	87	Rpleas_acq	CS_A	CPPC	JQQJ	YFFY	LWWL	DXXD	ZHHZ	vertrauen	gütig	sonnig	genießen	träumen	küssen	versagen	gierig	sterben	gemein	töten	krank	1	acq_USunple_CSunple2_RW	acq2_RW	2	16	480	0	300	300	694	50	0	0	1	blank2r.bmp	0	1	+	0	1	blank2r.bmp	492	1	LWWL	492	1	blank2r.bmp	572	3	krank	866	1	FEHLER	1905	1	!	1319	1	!	-1	0	0	0	0	0	0	0	0	0	0	0	0	0	0	0	0	0	0	0	0	0	0	0	0	0	0	0
072919	16:43:19	16:47:27	247005	5.0.10.0	5_exp_RW	87	Rpleas_acq	CS_A	CPPC	JQQJ	YFFY	LWWL	DXXD	ZHHZ	vertrauen	gütig	sonnig	genießen	träumen	küssen	versagen	gierig	sterben	gemein	töten	krank	1	acq_USunple_CSunple2_RW	acq2_RW	2	17	480	0	300	300	738	46	0	1	1	blank2r.bmp	0	1	+	0	1	blank2r.bmp	492	1	LWWL	492	1	blank2r.bmp	572	2	töten	866	1	!	1319	1	!	-1	0	0	0	0	0	0	0	0	0	0	0	0	0	0	0	0	0	0	0	0	0	0	0	0	0	0	0	0	0	0
072919	16:43:19	16:47:29	249164	5.0.10.0	5_exp_RW	87	Rpleas_acq	CS_A	CPPC	JQQJ	YFFY	LWWL	DXXD	ZHHZ	vertrauen	gütig	sonnig	genießen	träumen	küssen	versagen	gierig	sterben	gemein	töten	krank	1	acq_USunple_CSunple1_RW	acq2_RW	2	18	480	0	300	300	377	46	0	1	1	blank2r.bmp	0	1	+	0	1	blank2r.bmp	492	1	YFFY	492	1	blank2r.bmp	572	1	versagen	866	1	!	-1	1	!	-1	0	0	0	0	0	0	0	0	0	0	0	0	0	0	0	0	0	0	0	0	0	0	0	0	0	0	0	0	0	0
072919	16:43:19	16:47:32	251710	5.0.10.0	5_exp_RW	87	Rpleas_acq	CS_A	CPPC	JQQJ	YFFY	LWWL	DXXD	ZHHZ	vertrauen	gütig	sonnig	genießen	träumen	küssen	versagen	gierig	sterben	gemein	töten	krank	1	acq_USunple_CSunple1_RW	acq2_RW	2	19	480	0	300	300	767	46	0	1	1	blank2r.bmp	0	1	+	0	1	blank2r.bmp	492	1	YFFY	492	1	blank2r.bmp	572	3	sterben	866	1	!	1319	1	!	-1	0	0	0	0	0	0	0	0	0	0	0	0	0	0	0	0	0	0	0	0	0	0	0	0	0	0	0	0	0	0
072919	16:43:19	16:47:34	254069	5.0.10.0	5_exp_RW	87	Rpleas_acq	CS_A	CPPC	JQQJ	YFFY	LWWL	DXXD	ZHHZ	vertrauen	gütig	sonnig	genießen	träumen	küssen	versagen	gierig	sterben	gemein	töten	krank	1	acq_USpleas_CSpleas1_RW	acq2_RW	2	20	480	0	300	300	346	46	0	0	1	blank2r.bmp	0	1	+	0	1	blank2r.bmp	492	1	CPPC	492	1	blank2r.bmp	572	1	vertrauen	866	1	FEHLER	1559	1	!	-1	1	!	-1	0	0	0	0	0	0	0	0	0	0	0	0	0	0	0	0	0	0	0	0	0	0	0	0	0	0	0
072919	16:43:19	16:47:37	256775	5.0.10.0	5_exp_RW	87	Rpleas_acq	CS_A	CPPC	JQQJ	YFFY	LWWL	DXXD	ZHHZ	vertrauen	gütig	sonnig	genießen	träumen	küssen	versagen	gierig	sterben	gemein	töten	krank	1	acq_USpleas_CSpleas2_RW	acq2_RW	2	21	480	0	300	300	1148	50	0	1	1	blank2r.bmp	0	1	+	0	1	blank2r.bmp	492	1	JQQJ	492	1	blank2r.bmp	572	2	träumen	866	1	!	1319	1	!	-1	0	0	0	0	0	0	0	0	0	0	0	0	0	0	0	0	0	0	0	0	0	0	0	0	0	0	0	0	0	0
072919	16:43:19	16:47:40	260173	5.0.10.0	5_exp_RW	87	Rpleas_acq	CS_A	CPPC	JQQJ	YFFY	LWWL	DXXD	ZHHZ	vertrauen	gütig	sonnig	genießen	träumen	küssen	versagen	gierig	sterben	gemein	töten	krank	1	acq_USpleas_CSpleas1_RW	acq2_RW	2	22	480	0	300	300	1385	46	0	0	1	blank2r.bmp	0	1	+	0	1	blank2r.bmp	492	1	CPPC	492	1	blank2r.bmp	572	3	sonnig	866	1	FEHLER	2598	1	!	1319	1	!	-1	0	0	0	0	0	0	0	0	0	0	0	0	0	0	0	0	0	0	0	0	0	0	0	0	0	0	0
072919	16:43:19	16:47:43	263159	5.0.10.0	5_exp_RW	87	Rpleas_acq	CS_A	CPPC	JQQJ	YFFY	LWWL	DXXD	ZHHZ	vertrauen	gütig	sonnig	genießen	träumen	küssen	versagen	gierig	sterben	gemein	töten	krank	1	acq_USunple_CSunple2_RW	acq2_RW	2	23	480	0	300	300	1204	50	0	0	1	blank2r.bmp	0	1	+	0	1	blank2r.bmp	492	1	LWWL	492	1	blank2r.bmp	572	1	gemein	866	1	FEHLER	2412	1	!	1319	1	!	-1	0	0	0	0	0	0	0	0	0	0	0	0	0	0	0	0	0	0	0	0	0	0	0	0	0	0	0
072919	16:43:19	16:47:47	266917	5.0.10.0	5_exp_RW	87	Rpleas_acq	CS_A	CPPC	JQQJ	YFFY	LWWL	DXXD	ZHHZ	vertrauen	gütig	sonnig	genießen	träumen	küssen	versagen	gierig	sterben	gemein	töten	krank	1	acq_USunple_CSunple2_RW	acq2_RW	2	24	480	0	300	300	2198	46	0	1	1	blank2r.bmp	0	1	+	0	1	blank2r.bmp	492	1	LWWL	492	1	blank2r.bmp	572	2	töten	866	1	!	1319	1	!	-1	0	0	0	0	0	0	0	0	0	0	0	0	0	0	0	0	0	0	0	0	0	0	0	0	0	0	0	0	0	0
072919	16:43:19	16:48:01	280671	5.0.10.0	5_exp_RW	87	Rpleas_acq	CS_A	CPPC	JQQJ	YFFY	LWWL	DXXD	ZHHZ	vertrauen	gütig	sonnig	genießen	träumen	küssen	versagen	gierig	sterben	gemein	töten	krank	1	acq_USunple_CSunple2_RW	acq3_RW	3	1	453	0	300	300	2759	46	0	1	1	blank2r.bmp	0	1	+	0	1	blank2r.bmp	492	1	LWWL	492	1	blank2r.bmp	572	3	krank	866	1	!	1292	1	!	-1	0	0	0	0	0	0	0	0	0	0	0	0	0	0	0	0	0	0	0	0	0	0	0	0	0	0	0	0	0	0
072919	16:43:19	16:48:03	283070	5.0.10.0	5_exp_RW	87	Rpleas_acq	CS_A	CPPC	JQQJ	YFFY	LWWL	DXXD	ZHHZ	vertrauen	gütig	sonnig	genießen	träumen	küssen	versagen	gierig	sterben	gemein	töten	krank	1	acq_USunple_CSunple1_RW	acq3_RW	3	2	453	0	300	300	624	46	0	1	1	blank2r.bmp	0	1	+	0	1	blank2r.bmp	492	1	YFFY	492	1	blank2r.bmp	572	1	versagen	866	1	!	1292	1	!	-1	0	0	0	0	0	0	0	0	0	0	0	0	0	0	0	0	0	0	0	0	0	0	0	0	0	0	0	0	0	0
072919	16:43:19	16:48:05	285403	5.0.10.0	5_exp_RW	87	Rpleas_acq	CS_A	CPPC	JQQJ	YFFY	LWWL	DXXD	ZHHZ	vertrauen	gütig	sonnig	genießen	träumen	küssen	versagen	gierig	sterben	gemein	töten	krank	1	acq_USpleas_CSpleas1_RW	acq3_RW	3	3	453	1	300	300	509	50	0	1	1	blank2r.bmp	0	1	+	0	1	blank2r.bmp	492	1	CPPC	492	1	blank2r.bmp	572	2	gütig	866	1	!	1292	1	!	1412	0	0	0	0	0	0	0	0	0	0	0	0	0	0	0	0	0	0	0	0	0	0	0	0	0	0	0	0	0	0
072919	16:43:19	16:48:08	287669	5.0.10.0	5_exp_RW	87	Rpleas_acq	CS_A	CPPC	JQQJ	YFFY	LWWL	DXXD	ZHHZ	vertrauen	gütig	sonnig	genießen	träumen	küssen	versagen	gierig	sterben	gemein	töten	krank	1	acq_USpleas_CSpleas1_RW	acq3_RW	3	4	453	1	300	300	473	50	0	1	1	blank2r.bmp	0	1	+	0	1	blank2r.bmp	492	1	CPPC	492	1	blank2r.bmp	572	1	vertrauen	866	1	!	1292	1	!	1372	0	0	0	0	0	0	0	0	0	0	0	0	0	0	0	0	0	0	0	0	0	0	0	0	0	0	0	0	0	0
072919	16:43:19	16:48:10	290241	5.0.10.0	5_exp_RW	87	Rpleas_acq	CS_A	CPPC	JQQJ	YFFY	LWWL	DXXD	ZHHZ	vertrauen	gütig	sonnig	genießen	träumen	küssen	versagen	gierig	sterben	gemein	töten	krank	1	acq_USunple_CSunple1_RW	acq3_RW	3	5	453	0	300	300	571	50	0	0	1	blank2r.bmp	0	1	+	0	1	blank2r.bmp	492	1	YFFY	492	1	blank2r.bmp	572	2	gierig	866	1	FEHLER	1772	1	!	1292	1	!	-1	0	0	0	0	0	0	0	0	0	0	0	0	0	0	0	0	0	0	0	0	0	0	0	0	0	0	0
072919	16:43:19	16:48:13	292640	5.0.10.0	5_exp_RW	87	Rpleas_acq	CS_A	CPPC	JQQJ	YFFY	LWWL	DXXD	ZHHZ	vertrauen	gütig	sonnig	genießen	träumen	küssen	versagen	gierig	sterben	gemein	töten	krank	1	acq_USpleas_CSpleas2_RW	acq3_RW	3	6	453	0	300	300	619	46	0	0	1	blank2r.bmp	0	1	+	0	1	blank2r.bmp	492	1	JQQJ	492	1	blank2r.bmp	572	1	genießen	866	1	FEHLER	1825	1	!	1292	1	!	-1	0	0	0	0	0	0	0	0	0	0	0	0	0	0	0	0	0	0	0	0	0	0	0	0	0	0	0
072919	16:43:19	16:48:15	294812	5.0.10.0	5_exp_RW	87	Rpleas_acq	CS_A	CPPC	JQQJ	YFFY	LWWL	DXXD	ZHHZ	vertrauen	gütig	sonnig	genießen	träumen	küssen	versagen	gierig	sterben	gemein	töten	krank	1	acq_USunple_CSunple2_RW	acq3_RW	3	7	453	0	300	300	605	46	0	1	1	blank2r.bmp	0	1	+	0	1	blank2r.bmp	492	1	LWWL	492	1	blank2r.bmp	572	1	gemein	866	1	!	1292	1	!	-1	0	0	0	0	0	0	0	0	0	0	0	0	0	0	0	0	0	0	0	0	0	0	0	0	0	0	0	0	0	0
072919	16:43:19	16:48:17	297171	5.0.10.0	5_exp_RW	87	Rpleas_acq	CS_A	CPPC	JQQJ	YFFY	LWWL	DXXD	ZHHZ	vertrauen	gütig	sonnig	genießen	träumen	küssen	versagen	gierig	sterben	gemein	töten	krank	1	acq_USunple_CSunple1_RW	acq3_RW	3	8	453	0	300	300	573	46	0	1	1	blank2r.bmp	0	1	+	0	1	blank2r.bmp	492	1	YFFY	492	1	blank2r.bmp	572	1	versagen	866	1	!	1292	1	!	-1	0	0	0	0	0	0	0	0	0	0	0	0	0	0	0	0	0	0	0	0	0	0	0	0	0	0	0	0	0	0
072919	16:43:19	16:48:19	299304	5.0.10.0	5_exp_RW	87	Rpleas_acq	CS_A	CPPC	JQQJ	YFFY	LWWL	DXXD	ZHHZ	vertrauen	gütig	sonnig	genießen	träumen	küssen	versagen	gierig	sterben	gemein	töten	krank	1	acq_USunple_CSunple2_RW	acq3_RW	3	9	453	0	300	300	342	46	0	1	1	blank2r.bmp	0	1	+	0	1	blank2r.bmp	492	1	LWWL	492	1	blank2r.bmp	572	2	töten	866	1	!	-1	1	!	-1	0	0	0	0	0	0	0	0	0	0	0	0	0	0	0	0	0	0	0	0	0	0	0	0	0	0	0	0	0	0
072919	16:43:19	16:48:22	301876	5.0.10.0	5_exp_RW	87	Rpleas_acq	CS_A	CPPC	JQQJ	YFFY	LWWL	DXXD	ZHHZ	vertrauen	gütig	sonnig	genießen	träumen	küssen	versagen	gierig	sterben	gemein	töten	krank	1	acq_USunple_CSunple2_RW	acq3_RW	3	10	453	0	300	300	796	46	0	1	1	blank2r.bmp	0	1	+	0	1	blank2r.bmp	492	1	LWWL	492	1	blank2r.bmp	572	1	gemein	866	1	!	1292	1	!	-1	0	0	0	0	0	0	0	0	0	0	0	0	0	0	0	0	0	0	0	0	0	0	0	0	0	0	0	0	0	0
072919	16:43:19	16:48:24	304262	5.0.10.0	5_exp_RW	87	Rpleas_acq	CS_A	CPPC	JQQJ	YFFY	LWWL	DXXD	ZHHZ	vertrauen	gütig	sonnig	genießen	träumen	küssen	versagen	gierig	sterben	gemein	töten	krank	1	acq_USpleas_CSpleas2_RW	acq3_RW	3	11	453	0	300	300	605	50	0	1	1	blank2r.bmp	0	1	+	0	1	blank2r.bmp	492	1	JQQJ	492	1	blank2r.bmp	572	3	küssen	866	1	!	1292	1	!	-1	0	0	0	0	0	0	0	0	0	0	0	0	0	0	0	0	0	0	0	0	0	0	0	0	0	0	0	0	0	0
072919	16:43:19	16:48:27	306554	5.0.10.0	5_exp_RW	87	Rpleas_acq	CS_A	CPPC	JQQJ	YFFY	LWWL	DXXD	ZHHZ	vertrauen	gütig	sonnig	genießen	träumen	küssen	versagen	gierig	sterben	gemein	töten	krank	1	acq_USunple_CSunple2_RW	acq3_RW	3	12	453	1	300	300	488	46	0	1	1	blank2r.bmp	0	1	+	0	1	blank2r.bmp	492	1	LWWL	492	1	blank2r.bmp	572	3	krank	866	1	!	1292	1	!	1386	0	0	0	0	0	0	0	0	0	0	0	0	0	0	0	0	0	0	0	0	0	0	0	0	0	0	0	0	0	0
072919	16:43:19	16:48:29	309007	5.0.10.0	5_exp_RW	87	Rpleas_acq	CS_A	CPPC	JQQJ	YFFY	LWWL	DXXD	ZHHZ	vertrauen	gütig	sonnig	genießen	träumen	küssen	versagen	gierig	sterben	gemein	töten	krank	1	acq_USpleas_CSpleas2_RW	acq3_RW	3	13	453	0	300	300	689	50	0	1	1	blank2r.bmp	0	1	+	0	1	blank2r.bmp	492	1	JQQJ	492	1	blank2r.bmp	572	1	genießen	866	1	!	1292	1	!	-1	0	0	0	0	0	0	0	0	0	0	0	0	0	0	0	0	0	0	0	0	0	0	0	0	0	0	0	0	0	0
072919	16:43:19	16:48:31	311432	5.0.10.0	5_exp_RW	87	Rpleas_acq	CS_A	CPPC	JQQJ	YFFY	LWWL	DXXD	ZHHZ	vertrauen	gütig	sonnig	genießen	träumen	küssen	versagen	gierig	sterben	gemein	töten	krank	1	acq_USunple_CSunple1_RW	acq3_RW	3	14	453	1	300	300	399	50	0	0	1	blank2r.bmp	0	1	+	0	1	blank2r.bmp	492	1	YFFY	492	1	blank2r.bmp	572	2	gierig	866	1	FEHLER	1625	1	!	1292	1	!	1306	0	0	0	0	0	0	0	0	0	0	0	0	0	0	0	0	0	0	0	0	0	0	0	0	0	0	0
072919	16:43:19	16:48:34	314364	5.0.10.0	5_exp_RW	87	Rpleas_acq	CS_A	CPPC	JQQJ	YFFY	LWWL	DXXD	ZHHZ	vertrauen	gütig	sonnig	genießen	träumen	küssen	versagen	gierig	sterben	gemein	töten	krank	1	acq_USpleas_CSpleas1_RW	acq3_RW	3	15	453	0	300	300	1158	46	0	0	1	blank2r.bmp	0	1	+	0	1	blank2r.bmp	492	1	CPPC	492	1	blank2r.bmp	572	1	vertrauen	866	1	FEHLER	2359	1	!	1292	1	!	-1	0	0	0	0	0	0	0	0	0	0	0	0	0	0	0	0	0	0	0	0	0	0	0	0	0	0	0
072919	16:43:19	16:48:40	320202	5.0.10.0	5_exp_RW	87	Rpleas_acq	CS_A	CPPC	JQQJ	YFFY	LWWL	DXXD	ZHHZ	vertrauen	gütig	sonnig	genießen	träumen	küssen	versagen	gierig	sterben	gemein	töten	krank	1	acq_USpleas_CSpleas2_RW	acq3_RW	3	16	453	0	300	300	4287	50	0	1	1	blank2r.bmp	0	1	+	0	1	blank2r.bmp	492	1	JQQJ	492	1	blank2r.bmp	572	3	küssen	866	1	!	1292	1	!	-1	0	0	0	0	0	0	0	0	0	0	0	0	0	0	0	0	0	0	0	0	0	0	0	0	0	0	0	0	0	0
072919	16:43:19	16:48:43	322921	5.0.10.0	5_exp_RW	87	Rpleas_acq	CS_A	CPPC	JQQJ	YFFY	LWWL	DXXD	ZHHZ	vertrauen	gütig	sonnig	genießen	träumen	küssen	versagen	gierig	sterben	gemein	töten	krank	1	acq_USpleas_CSpleas1_RW	acq3_RW	3	17	453	0	300	300	715	46	0	0	1	blank2r.bmp	0	1	+	0	1	blank2r.bmp	492	1	CPPC	492	1	blank2r.bmp	572	2	gütig	866	1	FEHLER	1919	1	!	1292	1	!	-1	0	0	0	0	0	0	0	0	0	0	0	0	0	0	0	0	0	0	0	0	0	0	0	0	0	0	0
072919	16:43:19	16:48:46	326026	5.0.10.0	5_exp_RW	87	Rpleas_acq	CS_A	CPPC	JQQJ	YFFY	LWWL	DXXD	ZHHZ	vertrauen	gütig	sonnig	genießen	träumen	küssen	versagen	gierig	sterben	gemein	töten	krank	1	acq_USunple_CSunple1_RW	acq3_RW	3	18	453	0	300	300	1543	46	0	1	1	blank2r.bmp	0	1	+	0	1	blank2r.bmp	492	1	YFFY	492	1	blank2r.bmp	572	3	sterben	866	1	!	1292	1	!	-1	0	0	0	0	0	0	0	0	0	0	0	0	0	0	0	0	0	0	0	0	0	0	0	0	0	0	0	0	0	0
072919	16:43:19	16:48:48	328425	5.0.10.0	5_exp_RW	87	Rpleas_acq	CS_A	CPPC	JQQJ	YFFY	LWWL	DXXD	ZHHZ	vertrauen	gütig	sonnig	genießen	träumen	küssen	versagen	gierig	sterben	gemein	töten	krank	1	acq_USunple_CSunple1_RW	acq3_RW	3	19	453	0	300	300	621	46	0	1	1	blank2r.bmp	0	1	+	0	1	blank2r.bmp	492	1	YFFY	492	1	blank2r.bmp	572	3	sterben	866	1	!	1292	1	!	-1	0	0	0	0	0	0	0	0	0	0	0	0	0	0	0	0	0	0	0	0	0	0	0	0	0	0	0	0	0	0
072919	16:43:19	16:48:51	330558	5.0.10.0	5_exp_RW	87	Rpleas_acq	CS_A	CPPC	JQQJ	YFFY	LWWL	DXXD	ZHHZ	vertrauen	gütig	sonnig	genießen	träumen	küssen	versagen	gierig	sterben	gemein	töten	krank	1	acq_USunple_CSunple2_RW	acq3_RW	3	20	453	0	300	300	356	46	0	1	1	blank2r.bmp	0	1	+	0	1	blank2r.bmp	492	1	LWWL	492	1	blank2r.bmp	572	3	krank	866	1	!	-1	1	!	-1	0	0	0	0	0	0	0	0	0	0	0	0	0	0	0	0	0	0	0	0	0	0	0	0	0	0	0	0	0	0
072919	16:43:19	16:48:53	333023	5.0.10.0	5_exp_RW	87	Rpleas_acq	CS_A	CPPC	JQQJ	YFFY	LWWL	DXXD	ZHHZ	vertrauen	gütig	sonnig	genießen	träumen	küssen	versagen	gierig	sterben	gemein	töten	krank	1	acq_USpleas_CSpleas1_RW	acq3_RW	3	21	453	0	300	300	681	50	0	1	1	blank2r.bmp	0	1	+	0	1	blank2r.bmp	492	1	CPPC	492	1	blank2r.bmp	572	3	sonnig	866	1	!	1292	1	!	-1	0	0	0	0	0	0	0	0	0	0	0	0	0	0	0	0	0	0	0	0	0	0	0	0	0	0	0	0	0	0
072919	16:43:19	16:48:55	335409	5.0.10.0	5_exp_RW	87	Rpleas_acq	CS_A	CPPC	JQQJ	YFFY	LWWL	DXXD	ZHHZ	vertrauen	gütig	sonnig	genießen	träumen	küssen	versagen	gierig	sterben	gemein	töten	krank	1	acq_USpleas_CSpleas1_RW	acq3_RW	3	22	453	0	300	300	374	46	0	0	1	blank2r.bmp	0	1	+	0	1	blank2r.bmp	492	1	CPPC	492	1	blank2r.bmp	572	2	gütig	866	1	FEHLER	1586	1	!	-1	1	!	-1	0	0	0	0	0	0	0	0	0	0	0	0	0	0	0	0	0	0	0	0	0	0	0	0	0	0	0
072919	16:43:19	16:48:58	338021	5.0.10.0	5_exp_RW	87	Rpleas_acq	CS_A	CPPC	JQQJ	YFFY	LWWL	DXXD	ZHHZ	vertrauen	gütig	sonnig	genießen	träumen	küssen	versagen	gierig	sterben	gemein	töten	krank	1	acq_USpleas_CSpleas2_RW	acq3_RW	3	23	453	0	300	300	831	46	0	0	1	blank2r.bmp	0	1	+	0	1	blank2r.bmp	492	1	JQQJ	492	1	blank2r.bmp	572	2	träumen	866	1	FEHLER	2039	1	!	1292	1	!	-1	0	0	0	0	0	0	0	0	0	0	0	0	0	0	0	0	0	0	0	0	0	0	0	0	0	0	0
072919	16:43:19	16:49:00	340247	5.0.10.0	5_exp_RW	87	Rpleas_acq	CS_A	CPPC	JQQJ	YFFY	LWWL	DXXD	ZHHZ	vertrauen	gütig	sonnig	genießen	träumen	küssen	versagen	gierig	sterben	gemein	töten	krank	1	acq_USpleas_CSpleas2_RW	acq3_RW	3	24	453	0	300	300	658	50	0	1	1	blank2r.bmp	0	1	+	0	1	blank2r.bmp	492	1	JQQJ	492	1	blank2r.bmp	572	3	küssen	866	1	!	1292	1	!	-1	0	0	0	0	0	0	0	0	0	0	0	0	0	0	0	0	0	0	0	0	0	0	0	0	0	0	0	0	0	0
072919	16:43:19	16:49:17	357080	5.0.10.0	5_exp_RW	87	Rpleas_acq	CS_A	CPPC	JQQJ	YFFY	LWWL	DXXD	ZHHZ	vertrauen	gütig	sonnig	genießen	träumen	küssen	versagen	gierig	sterben	gemein	töten	krank	1	acq_USunple_CSunple2_RW	acq4567_RW	4	1	400	0	300	300	607	46	0	1	1	blank2r.bmp	0	1	+	0	1	blank2r.bmp	492	1	LWWL	492	1	blank2r.bmp	572	1	gemein	866	1	!	1239	1	!	-1	0	0	0	0	0	0	0	0	0	0	0	0	0	0	0	0	0	0	0	0	0	0	0	0	0	0	0	0	0	0
072919	16:43:19	16:49:19	359359	5.0.10.0	5_exp_RW	87	Rpleas_acq	CS_A	CPPC	JQQJ	YFFY	LWWL	DXXD	ZHHZ	vertrauen	gütig	sonnig	genießen	träumen	küssen	versagen	gierig	sterben	gemein	töten	krank	1	acq_USunple_CSunple1_RW	acq4567_RW	4	2	400	1	300	300	467	46	0	1	1	blank2r.bmp	0	1	+	0	1	blank2r.bmp	492	1	YFFY	492	1	blank2r.bmp	572	1	versagen	866	1	!	1239	1	!	1372	0	0	0	0	0	0	0	0	0	0	0	0	0	0	0	0	0	0	0	0	0	0	0	0	0	0	0	0	0	0
072919	16:43:19	16:49:22	361732	5.0.10.0	5_exp_RW	87	Rpleas_acq	CS_A	CPPC	JQQJ	YFFY	LWWL	DXXD	ZHHZ	vertrauen	gütig	sonnig	genießen	träumen	küssen	versagen	gierig	sterben	gemein	töten	krank	1	acq_USpleas_CSpleas2_RW	acq4567_RW	4	3	400	0	300	300	606	50	0	1	1	blank2r.bmp	0	1	+	0	1	blank2r.bmp	492	1	JQQJ	492	1	blank2r.bmp	572	2	träumen	866	1	!	1239	1	!	-1	0	0	0	0	0	0	0	0	0	0	0	0	0	0	0	0	0	0	0	0	0	0	0	0	0	0	0	0	0	0
072919	16:43:19	16:49:24	363891	5.0.10.0	5_exp_RW	87	Rpleas_acq	CS_A	CPPC	JQQJ	YFFY	LWWL	DXXD	ZHHZ	vertrauen	gütig	sonnig	genießen	träumen	küssen	versagen	gierig	sterben	gemein	töten	krank	1	acq_USpleas_CSpleas1_RW	acq4567_RW	4	4	400	1	300	300	351	50	0	1	1	blank2r.bmp	0	1	+	0	1	blank2r.bmp	492	1	CPPC	492	1	blank2r.bmp	572	3	sonnig	866	1	!	1239	1	!	1252	0	0	0	0	0	0	0	0	0	0	0	0	0	0	0	0	0	0	0	0	0	0	0	0	0	0	0	0	0	0
072919	16:43:19	16:49:26	366183	5.0.10.0	5_exp_RW	87	Rpleas_acq	CS_A	CPPC	JQQJ	YFFY	LWWL	DXXD	ZHHZ	vertrauen	gütig	sonnig	genießen	träumen	küssen	versagen	gierig	sterben	gemein	töten	krank	1	acq_USpleas_CSpleas1_RW	acq4567_RW	4	5	400	0	300	300	510	50	0	1	1	blank2r.bmp	0	1	+	0	1	blank2r.bmp	492	1	CPPC	492	1	blank2r.bmp	572	1	vertrauen	866	1	!	1239	1	!	-1	0	0	0	0	0	0	0	0	0	0	0	0	0	0	0	0	0	0	0	0	0	0	0	0	0	0	0	0	0	0
072919	16:43:19	16:49:28	368262	5.0.10.0	5_exp_RW	87	Rpleas_acq	CS_A	CPPC	JQQJ	YFFY	LWWL	DXXD	ZHHZ	vertrauen	gütig	sonnig	genießen	träumen	küssen	versagen	gierig	sterben	gemein	töten	krank	1	acq_USunple_CSunple1_RW	acq4567_RW	4	6	400	0	300	300	294	46	0	1	1	blank2r.bmp	0	1	+	0	1	blank2r.bmp	492	1	YFFY	492	1	blank2r.bmp	572	2	gierig	866	1	!	-1	1	!	-1	0	0	0	0	0	0	0	0	0	0	0	0	0	0	0	0	0	0	0	0	0	0	0	0	0	0	0	0	0	0
072919	16:43:19	16:49:31	370648	5.0.10.0	5_exp_RW	87	Rpleas_acq	CS_A	CPPC	JQQJ	YFFY	LWWL	DXXD	ZHHZ	vertrauen	gütig	sonnig	genießen	träumen	küssen	versagen	gierig	sterben	gemein	töten	krank	1	acq_USunple_CSunple2_RW	acq4567_RW	4	7	400	0	300	300	598	46	0	1	1	blank2r.bmp	0	1	+	0	1	blank2r.bmp	492	1	LWWL	492	1	blank2r.bmp	572	2	töten	866	1	!	1239	1	!	-1	0	0	0	0	0	0	0	0	0	0	0	0	0	0	0	0	0	0	0	0	0	0	0	0	0	0	0	0	0	0
072919	16:43:19	16:49:33	372927	5.0.10.0	5_exp_RW	87	Rpleas_acq	CS_A	CPPC	JQQJ	YFFY	LWWL	DXXD	ZHHZ	vertrauen	gütig	sonnig	genießen	träumen	küssen	versagen	gierig	sterben	gemein	töten	krank	1	acq_USunple_CSunple2_RW	acq4567_RW	4	8	400	0	300	300	479	46	0	1	1	blank2r.bmp	0	1	+	0	1	blank2r.bmp	492	1	LWWL	492	1	blank2r.bmp	572	1	gemein	866	1	!	1239	1	!	-1	0	0	0	0	0	0	0	0	0	0	0	0	0	0	0	0	0	0	0	0	0	0	0	0	0	0	0	0	0	0
072919	16:43:19	16:49:35	375206	5.0.10.0	5_exp_RW	87	Rpleas_acq	CS_A	CPPC	JQQJ	YFFY	LWWL	DXXD	ZHHZ	vertrauen	gütig	sonnig	genießen	träumen	küssen	versagen	gierig	sterben	gemein	töten	krank	1	acq_USpleas_CSpleas2_RW	acq4567_RW	4	9	400	0	300	300	496	50	0	1	1	blank2r.bmp	0	1	+	0	1	blank2r.bmp	492	1	JQQJ	492	1	blank2r.bmp	572	1	genießen	866	1	!	1239	1	!	-1	0	0	0	0	0	0	0	0	0	0	0	0	0	0	0	0	0	0	0	0	0	0	0	0	0	0	0	0	0	0
072919	16:43:19	16:49:38	377592	5.0.10.0	5_exp_RW	87	Rpleas_acq	CS_A	CPPC	JQQJ	YFFY	LWWL	DXXD	ZHHZ	vertrauen	gütig	sonnig	genießen	träumen	küssen	versagen	gierig	sterben	gemein	töten	krank	1	acq_USpleas_CSpleas1_RW	acq4567_RW	4	10	400	0	300	300	610	46	0	0	1	blank2r.bmp	0	1	+	0	1	blank2r.bmp	492	1	CPPC	492	1	blank2r.bmp	572	1	vertrauen	866	1	!	1239	1	!	-1	0	0	0	0	0	0	0	0	0	0	0	0	0	0	0	0	0	0	0	0	0	0	0	0	0	0	0	0	0	0
072919	16:43:19	16:49:43	382550	5.0.10.0	5_exp_RW	87	Rpleas_acq	CS_A	CPPC	JQQJ	YFFY	LWWL	DXXD	ZHHZ	vertrauen	gütig	sonnig	genießen	träumen	küssen	versagen	gierig	sterben	gemein	töten	krank	1	acq_USpleas_CSpleas1_RW	acq4567_RW	4	11	400	0	300	300	3170	50	0	1	1	blank2r.bmp	0	1	+	0	1	blank2r.bmp	492	1	CPPC	492	1	blank2r.bmp	572	2	gütig	866	1	!	1239	1	!	-1	0	0	0	0	0	0	0	0	0	0	0	0	0	0	0	0	0	0	0	0	0	0	0	0	0	0	0	0	0	0
072919	16:43:19	16:49:45	384669	5.0.10.0	5_exp_RW	87	Rpleas_acq	CS_A	CPPC	JQQJ	YFFY	LWWL	DXXD	ZHHZ	vertrauen	gütig	sonnig	genießen	träumen	küssen	versagen	gierig	sterben	gemein	töten	krank	1	acq_USpleas_CSpleas2_RW	acq4567_RW	4	12	400	0	300	300	328	46	0	0	1	blank2r.bmp	0	1	+	0	1	blank2r.bmp	492	1	JQQJ	492	1	blank2r.bmp	572	3	küssen	866	1	!	-1	1	!	-1	0	0	0	0	0	0	0	0	0	0	0	0	0	0	0	0	0	0	0	0	0	0	0	0	0	0	0	0	0	0
072919	16:43:19	16:49:48	388414	5.0.10.0	5_exp_RW	87	Rpleas_acq	CS_A	CPPC	JQQJ	YFFY	LWWL	DXXD	ZHHZ	vertrauen	gütig	sonnig	genießen	träumen	küssen	versagen	gierig	sterben	gemein	töten	krank	1	acq_USunple_CSunple2_RW	acq4567_RW	4	13	400	0	300	300	1964	50	0	0	1	blank2r.bmp	0	1	+	0	1	blank2r.bmp	492	1	LWWL	492	1	blank2r.bmp	572	3	krank	866	1	!	1239	1	!	-1	0	0	0	0	0	0	0	0	0	0	0	0	0	0	0	0	0	0	0	0	0	0	0	0	0	0	0	0	0	0
072919	16:43:19	16:49:51	390640	5.0.10.0	5_exp_RW	87	Rpleas_acq	CS_A	CPPC	JQQJ	YFFY	LWWL	DXXD	ZHHZ	vertrauen	gütig	sonnig	genießen	träumen	küssen	versagen	gierig	sterben	gemein	töten	krank	1	acq_USunple_CSunple1_RW	acq4567_RW	4	14	400	1	300	300	421	46	0	1	1	blank2r.bmp	0	1	+	0	1	blank2r.bmp	492	1	YFFY	492	1	blank2r.bmp	572	3	sterben	866	1	!	1239	1	!	1319	0	0	0	0	0	0	0	0	0	0	0	0	0	0	0	0	0	0	0	0	0	0	0	0	0	0	0	0	0	0
072919	16:43:19	16:49:53	393066	5.0.10.0	5_exp_RW	87	Rpleas_acq	CS_A	CPPC	JQQJ	YFFY	LWWL	DXXD	ZHHZ	vertrauen	gütig	sonnig	genießen	träumen	küssen	versagen	gierig	sterben	gemein	töten	krank	1	acq_USunple_CSunple2_RW	acq4567_RW	4	15	400	0	300	300	658	46	0	1	1	blank2r.bmp	0	1	+	0	1	blank2r.bmp	492	1	LWWL	492	1	blank2r.bmp	572	2	töten	866	1	!	1239	1	!	-1	0	0	0	0	0	0	0	0	0	0	0	0	0	0	0	0	0	0	0	0	0	0	0	0	0	0	0	0	0	0
072919	16:43:19	16:49:55	395265	5.0.10.0	5_exp_RW	87	Rpleas_acq	CS_A	CPPC	JQQJ	YFFY	LWWL	DXXD	ZHHZ	vertrauen	gütig	sonnig	genießen	träumen	küssen	versagen	gierig	sterben	gemein	töten	krank	1	acq_USunple_CSunple1_RW	acq4567_RW	4	16	400	1	300	300	384	46	0	1	1	blank2r.bmp	0	1	+	0	1	blank2r.bmp	492	1	YFFY	492	1	blank2r.bmp	572	1	versagen	866	1	!	1239	1	!	1279	0	0	0	0	0	0	0	0	0	0	0	0	0	0	0	0	0	0	0	0	0	0	0	0	0	0	0	0	0	0
072919	16:43:19	16:49:57	397424	5.0.10.0	5_exp_RW	87	Rpleas_acq	CS_A	CPPC	JQQJ	YFFY	LWWL	DXXD	ZHHZ	vertrauen	gütig	sonnig	genießen	träumen	küssen	versagen	gierig	sterben	gemein	töten	krank	1	acq_USpleas_CSpleas1_RW	acq4567_RW	4	17	400	1	300	300	360	50	0	1	1	blank2r.bmp	0	1	+	0	1	blank2r.bmp	492	1	CPPC	492	1	blank2r.bmp	572	3	sonnig	866	1	!	1239	1	!	1266	0	0	0	0	0	0	0	0	0	0	0	0	0	0	0	0	0	0	0	0	0	0	0	0	0	0	0	0	0	0
072919	16:43:19	16:50:00	399703	5.0.10.0	5_exp_RW	87	Rpleas_acq	CS_A	CPPC	JQQJ	YFFY	LWWL	DXXD	ZHHZ	vertrauen	gütig	sonnig	genießen	träumen	küssen	versagen	gierig	sterben	gemein	töten	krank	1	acq_USpleas_CSpleas2_RW	acq4567_RW	4	18	400	0	300	300	514	50	0	1	1	blank2r.bmp	0	1	+	0	1	blank2r.bmp	492	1	JQQJ	492	1	blank2r.bmp	572	2	träumen	866	1	!	1239	1	!	-1	0	0	0	0	0	0	0	0	0	0	0	0	0	0	0	0	0	0	0	0	0	0	0	0	0	0	0	0	0	0
072919	16:43:19	16:50:02	401755	5.0.10.0	5_exp_RW	87	Rpleas_acq	CS_A	CPPC	JQQJ	YFFY	LWWL	DXXD	ZHHZ	vertrauen	gütig	sonnig	genießen	träumen	küssen	versagen	gierig	sterben	gemein	töten	krank	1	acq_USunple_CSunple1_RW	acq4567_RW	4	19	400	0	300	300	268	50	0	0	1	blank2r.bmp	0	1	+	0	1	blank2r.bmp	492	1	YFFY	492	1	blank2r.bmp	572	2	gierig	866	1	!	-1	1	!	-1	0	0	0	0	0	0	0	0	0	0	0	0	0	0	0	0	0	0	0	0	0	0	0	0	0	0	0	0	0	0
072919	16:43:19	16:50:04	403861	5.0.10.0	5_exp_RW	87	Rpleas_acq	CS_A	CPPC	JQQJ	YFFY	LWWL	DXXD	ZHHZ	vertrauen	gütig	sonnig	genießen	träumen	küssen	versagen	gierig	sterben	gemein	töten	krank	1	acq_USpleas_CSpleas2_RW	acq4567_RW	4	20	400	0	300	300	326	46	0	0	1	blank2r.bmp	0	1	+	0	1	blank2r.bmp	492	1	JQQJ	492	1	blank2r.bmp	572	1	genießen	866	1	!	-1	1	!	-1	0	0	0	0	0	0	0	0	0	0	0	0	0	0	0	0	0	0	0	0	0	0	0	0	0	0	0	0	0	0
072919	16:43:19	16:50:07	406753	5.0.10.0	5_exp_RW	87	Rpleas_acq	CS_A	CPPC	JQQJ	YFFY	LWWL	DXXD	ZHHZ	vertrauen	gütig	sonnig	genießen	träumen	küssen	versagen	gierig	sterben	gemein	töten	krank	1	acq_USunple_CSunple1_RW	acq4567_RW	4	21	400	0	300	300	1108	46	0	1	1	blank2r.bmp	0	1	+	0	1	blank2r.bmp	492	1	YFFY	492	1	blank2r.bmp	572	3	sterben	866	1	!	1239	1	!	-1	0	0	0	0	0	0	0	0	0	0	0	0	0	0	0	0	0	0	0	0	0	0	0	0	0	0	0	0	0	0
072919	16:43:19	16:50:09	408912	5.0.10.0	5_exp_RW	87	Rpleas_acq	CS_A	CPPC	JQQJ	YFFY	LWWL	DXXD	ZHHZ	vertrauen	gütig	sonnig	genießen	träumen	küssen	versagen	gierig	sterben	gemein	töten	krank	1	acq_USunple_CSunple1_RW	acq4567_RW	4	22	400	1	300	300	357	46	0	1	1	blank2r.bmp	0	1	+	0	1	blank2r.bmp	492	1	YFFY	492	1	blank2r.bmp	572	1	versagen	866	1	!	1239	1	!	1252	0	0	0	0	0	0	0	0	0	0	0	0	0	0	0	0	0	0	0	0	0	0	0	0	0	0	0	0	0	0
072919	16:43:19	16:50:11	411125	5.0.10.0	5_exp_RW	87	Rpleas_acq	CS_A	CPPC	JQQJ	YFFY	LWWL	DXXD	ZHHZ	vertrauen	gütig	sonnig	genießen	träumen	küssen	versagen	gierig	sterben	gemein	töten	krank	1	acq_USpleas_CSpleas1_RW	acq4567_RW	4	23	400	1	300	300	410	46	0	0	1	blank2r.bmp	0	1	+	0	1	blank2r.bmp	492	1	CPPC	492	1	blank2r.bmp	572	1	vertrauen	866	1	!	1239	1	!	1306	0	0	0	0	0	0	0	0	0	0	0	0	0	0	0	0	0	0	0	0	0	0	0	0	0	0	0	0	0	0
072919	16:43:19	16:50:14	414084	5.0.10.0	5_exp_RW	87	Rpleas_acq	CS_A	CPPC	JQQJ	YFFY	LWWL	DXXD	ZHHZ	vertrauen	gütig	sonnig	genießen	träumen	küssen	versagen	gierig	sterben	gemein	töten	krank	1	acq_USpleas_CSpleas1_RW	acq4567_RW	4	24	400	0	300	300	1194	50	0	1	1	blank2r.bmp	0	1	+	0	1	blank2r.bmp	492	1	CPPC	492	1	blank2r.bmp	572	3	sonnig	866	1	!	1239	1	!	-1	0	0	0	0	0	0	0	0	0	0	0	0	0	0	0	0	0	0	0	0	0	0	0	0	0	0	0	0	0	0
072919	16:43:19	16:50:16	416376	5.0.10.0	5_exp_RW	87	Rpleas_acq	CS_A	CPPC	JQQJ	YFFY	LWWL	DXXD	ZHHZ	vertrauen	gütig	sonnig	genießen	träumen	küssen	versagen	gierig	sterben	gemein	töten	krank	1	acq_USunple_CSunple1_RW	acq4567_RW	4	25	400	0	300	300	508	46	0	1	1	blank2r.bmp	0	1	+	0	1	blank2r.bmp	492	1	YFFY	492	1	blank2r.bmp	572	2	gierig	866	1	!	1239	1	!	-1	0	0	0	0	0	0	0	0	0	0	0	0	0	0	0	0	0	0	0	0	0	0	0	0	0	0	0	0	0	0
072919	16:43:19	16:50:19	418549	5.0.10.0	5_exp_RW	87	Rpleas_acq	CS_A	CPPC	JQQJ	YFFY	LWWL	DXXD	ZHHZ	vertrauen	gütig	sonnig	genießen	träumen	küssen	versagen	gierig	sterben	gemein	töten	krank	1	acq_USpleas_CSpleas2_RW	acq4567_RW	4	26	400	1	300	300	365	46	0	0	1	blank2r.bmp	0	1	+	0	1	blank2r.bmp	492	1	JQQJ	492	1	blank2r.bmp	572	1	genießen	866	1	!	1239	1	!	1266	0	0	0	0	0	0	0	0	0	0	0	0	0	0	0	0	0	0	0	0	0	0	0	0	0	0	0	0	0	0
072919	16:43:19	16:50:23	422720	5.0.10.0	5_exp_RW	87	Rpleas_acq	CS_A	CPPC	JQQJ	YFFY	LWWL	DXXD	ZHHZ	vertrauen	gütig	sonnig	genießen	träumen	küssen	versagen	gierig	sterben	gemein	töten	krank	1	acq_USunple_CSunple2_RW	acq4567_RW	4	27	400	0	300	300	2407	46	0	1	1	blank2r.bmp	0	1	+	0	1	blank2r.bmp	492	1	LWWL	492	1	blank2r.bmp	572	1	gemein	866	1	!	1239	1	!	-1	0	0	0	0	0	0	0	0	0	0	0	0	0	0	0	0	0	0	0	0	0	0	0	0	0	0	0	0	0	0
072919	16:43:19	16:50:25	424973	5.0.10.0	5_exp_RW	87	Rpleas_acq	CS_A	CPPC	JQQJ	YFFY	LWWL	DXXD	ZHHZ	vertrauen	gütig	sonnig	genießen	träumen	küssen	versagen	gierig	sterben	gemein	töten	krank	1	acq_USpleas_CSpleas2_RW	acq4567_RW	4	28	400	1	300	300	436	50	0	1	1	blank2r.bmp	0	1	+	0	1	blank2r.bmp	492	1	JQQJ	492	1	blank2r.bmp	572	2	träumen	866	1	!	1239	1	!	1332	0	0	0	0	0	0	0	0	0	0	0	0	0	0	0	0	0	0	0	0	0	0	0	0	0	0	0	0	0	0
072919	16:43:19	16:50:27	427238	5.0.10.0	5_exp_RW	87	Rpleas_acq	CS_A	CPPC	JQQJ	YFFY	LWWL	DXXD	ZHHZ	vertrauen	gütig	sonnig	genießen	träumen	küssen	versagen	gierig	sterben	gemein	töten	krank	1	acq_USunple_CSunple1_RW	acq4567_RW	4	29	400	0	300	300	502	50	0	0	1	blank2r.bmp	0	1	+	0	1	blank2r.bmp	492	1	YFFY	492	1	blank2r.bmp	572	1	versagen	866	1	!	1239	1	!	-1	0	0	0	0	0	0	0	0	0	0	0	0	0	0	0	0	0	0	0	0	0	0	0	0	0	0	0	0	0	0
072919	16:43:19	16:50:30	430011	5.0.10.0	5_exp_RW	87	Rpleas_acq	CS_A	CPPC	JQQJ	YFFY	LWWL	DXXD	ZHHZ	vertrauen	gütig	sonnig	genießen	träumen	küssen	versagen	gierig	sterben	gemein	töten	krank	1	acq_USpleas_CSpleas1_RW	acq4567_RW	4	30	400	0	300	300	997	46	0	0	1	blank2r.bmp	0	1	+	0	1	blank2r.bmp	492	1	CPPC	492	1	blank2r.bmp	572	2	gütig	866	1	!	1239	1	!	-1	0	0	0	0	0	0	0	0	0	0	0	0	0	0	0	0	0	0	0	0	0	0	0	0	0	0	0	0	0	0
072919	16:43:19	16:50:34	433569	5.0.10.0	5_exp_RW	87	Rpleas_acq	CS_A	CPPC	JQQJ	YFFY	LWWL	DXXD	ZHHZ	vertrauen	gütig	sonnig	genießen	träumen	küssen	versagen	gierig	sterben	gemein	töten	krank	1	acq_USpleas_CSpleas1_RW	acq4567_RW	4	31	400	0	300	300	1773	50	0	1	1	blank2r.bmp	0	1	+	0	1	blank2r.bmp	492	1	CPPC	492	1	blank2r.bmp	572	2	gütig	866	1	!	1239	1	!	-1	0	0	0	0	0	0	0	0	0	0	0	0	0	0	0	0	0	0	0	0	0	0	0	0	0	0	0	0	0	0
072919	16:43:19	16:50:37	436848	5.0.10.0	5_exp_RW	87	Rpleas_acq	CS_A	CPPC	JQQJ	YFFY	LWWL	DXXD	ZHHZ	vertrauen	gütig	sonnig	genießen	träumen	küssen	versagen	gierig	sterben	gemein	töten	krank	1	acq_USpleas_CSpleas1_RW	acq4567_RW	4	32	400	0	300	300	1499	46	0	0	1	blank2r.bmp	0	1	+	0	1	blank2r.bmp	492	1	CPPC	492	1	blank2r.bmp	572	1	vertrauen	866	1	!	1239	1	!	-1	0	0	0	0	0	0	0	0	0	0	0	0	0	0	0	0	0	0	0	0	0	0	0	0	0	0	0	0	0	0
072919	16:43:19	16:50:40	439567	5.0.10.0	5_exp_RW	87	Rpleas_acq	CS_A	CPPC	JQQJ	YFFY	LWWL	DXXD	ZHHZ	vertrauen	gütig	sonnig	genießen	träumen	küssen	versagen	gierig	sterben	gemein	töten	krank	1	acq_USunple_CSunple2_RW	acq4567_RW	4	33	400	0	300	300	935	46	0	1	1	blank2r.bmp	0	1	+	0	1	blank2r.bmp	492	1	LWWL	492	1	blank2r.bmp	572	2	töten	866	1	!	1239	1	!	-1	0	0	0	0	0	0	0	0	0	0	0	0	0	0	0	0	0	0	0	0	0	0	0	0	0	0	0	0	0	0
072919	16:43:19	16:50:42	441832	5.0.10.0	5_exp_RW	87	Rpleas_acq	CS_A	CPPC	JQQJ	YFFY	LWWL	DXXD	ZHHZ	vertrauen	gütig	sonnig	genießen	träumen	küssen	versagen	gierig	sterben	gemein	töten	krank	1	acq_USpleas_CSpleas2_RW	acq4567_RW	4	34	400	0	300	300	491	50	0	1	1	blank2r.bmp	0	1	+	0	1	blank2r.bmp	492	1	JQQJ	492	1	blank2r.bmp	572	3	küssen	866	1	!	1239	1	!	-1	0	0	0	0	0	0	0	0	0	0	0	0	0	0	0	0	0	0	0	0	0	0	0	0	0	0	0	0	0	0
072919	16:43:19	16:50:44	444045	5.0.10.0	5_exp_RW	87	Rpleas_acq	CS_A	CPPC	JQQJ	YFFY	LWWL	DXXD	ZHHZ	vertrauen	gütig	sonnig	genießen	träumen	küssen	versagen	gierig	sterben	gemein	töten	krank	1	acq_USpleas_CSpleas2_RW	acq4567_RW	4	35	400	1	300	300	401	46	0	0	1	blank2r.bmp	0	1	+	0	1	blank2r.bmp	492	1	JQQJ	492	1	blank2r.bmp	572	3	küssen	866	1	!	1239	1	!	1306	0	0	0	0	0	0	0	0	0	0	0	0	0	0	0	0	0	0	0	0	0	0	0	0	0	0	0	0	0	0
072919	16:43:19	16:50:46	446057	5.0.10.0	5_exp_RW	87	Rpleas_acq	CS_A	CPPC	JQQJ	YFFY	LWWL	DXXD	ZHHZ	vertrauen	gütig	sonnig	genießen	träumen	küssen	versagen	gierig	sterben	gemein	töten	krank	1	acq_USunple_CSunple1_RW	acq4567_RW	4	36	400	0	300	300	251	50	0	0	1	blank2r.bmp	0	1	+	0	1	blank2r.bmp	492	1	YFFY	492	1	blank2r.bmp	572	2	gierig	866	1	!	-1	1	!	-1	0	0	0	0	0	0	0	0	0	0	0	0	0	0	0	0	0	0	0	0	0	0	0	0	0	0	0	0	0	0
072919	16:43:19	16:50:49	448603	5.0.10.0	5_exp_RW	87	Rpleas_acq	CS_A	CPPC	JQQJ	YFFY	LWWL	DXXD	ZHHZ	vertrauen	gütig	sonnig	genießen	träumen	küssen	versagen	gierig	sterben	gemein	töten	krank	1	acq_USunple_CSunple2_RW	acq4567_RW	4	37	400	0	300	300	754	46	0	1	1	blank2r.bmp	0	1	+	0	1	blank2r.bmp	492	1	LWWL	492	1	blank2r.bmp	572	3	krank	866	1	!	1239	1	!	-1	0	0	0	0	0	0	0	0	0	0	0	0	0	0	0	0	0	0	0	0	0	0	0	0	0	0	0	0	0	0
072919	16:43:19	16:50:51	450669	5.0.10.0	5_exp_RW	87	Rpleas_acq	CS_A	CPPC	JQQJ	YFFY	LWWL	DXXD	ZHHZ	vertrauen	gütig	sonnig	genießen	träumen	küssen	versagen	gierig	sterben	gemein	töten	krank	1	acq_USunple_CSunple2_RW	acq4567_RW	4	38	400	0	300	300	280	46	0	1	1	blank2r.bmp	0	1	+	0	1	blank2r.bmp	492	1	LWWL	492	1	blank2r.bmp	572	2	töten	866	1	!	-1	1	!	-1	0	0	0	0	0	0	0	0	0	0	0	0	0	0	0	0	0	0	0	0	0	0	0	0	0	0	0	0	0	0
072919	16:43:19	16:50:53	453108	5.0.10.0	5_exp_RW	87	Rpleas_acq	CS_A	CPPC	JQQJ	YFFY	LWWL	DXXD	ZHHZ	vertrauen	gütig	sonnig	genießen	träumen	küssen	versagen	gierig	sterben	gemein	töten	krank	1	acq_USpleas_CSpleas2_RW	acq4567_RW	4	39	400	0	300	300	661	50	0	1	1	blank2r.bmp	0	1	+	0	1	blank2r.bmp	492	1	JQQJ	492	1	blank2r.bmp	572	2	träumen	866	1	!	1239	1	!	-1	0	0	0	0	0	0	0	0	0	0	0	0	0	0	0	0	0	0	0	0	0	0	0	0	0	0	0	0	0	0
072919	16:43:19	16:50:56	455533	5.0.10.0	5_exp_RW	87	Rpleas_acq	CS_A	CPPC	JQQJ	YFFY	LWWL	DXXD	ZHHZ	vertrauen	gütig	sonnig	genießen	träumen	küssen	versagen	gierig	sterben	gemein	töten	krank	1	acq_USunple_CSunple2_RW	acq4567_RW	4	40	400	0	300	300	635	50	0	0	1	blank2r.bmp	0	1	+	0	1	blank2r.bmp	492	1	LWWL	492	1	blank2r.bmp	572	1	gemein	866	1	!	1239	1	!	-1	0	0	0	0	0	0	0	0	0	0	0	0	0	0	0	0	0	0	0	0	0	0	0	0	0	0	0	0	0	0
072919	16:43:19	16:50:58	457972	5.0.10.0	5_exp_RW	87	Rpleas_acq	CS_A	CPPC	JQQJ	YFFY	LWWL	DXXD	ZHHZ	vertrauen	gütig	sonnig	genießen	träumen	küssen	versagen	gierig	sterben	gemein	töten	krank	1	acq_USpleas_CSpleas1_RW	acq4567_RW	4	41	400	0	300	300	652	46	0	0	1	blank2r.bmp	0	1	+	0	1	blank2r.bmp	492	1	CPPC	492	1	blank2r.bmp	572	3	sonnig	866	1	!	1239	1	!	-1	0	0	0	0	0	0	0	0	0	0	0	0	0	0	0	0	0	0	0	0	0	0	0	0	0	0	0	0	0	0
072919	16:43:19	16:51:01	460625	5.0.10.0	5_exp_RW	87	Rpleas_acq	CS_A	CPPC	JQQJ	YFFY	LWWL	DXXD	ZHHZ	vertrauen	gütig	sonnig	genießen	träumen	küssen	versagen	gierig	sterben	gemein	töten	krank	1	acq_USunple_CSunple2_RW	acq4567_RW	4	42	400	0	300	300	876	46	0	1	1	blank2r.bmp	0	1	+	0	1	blank2r.bmp	492	1	LWWL	492	1	blank2r.bmp	572	3	krank	866	1	!	1239	1	!	-1	0	0	0	0	0	0	0	0	0	0	0	0	0	0	0	0	0	0	0	0	0	0	0	0	0	0	0	0	0	0
072919	16:43:19	16:51:03	462864	5.0.10.0	5_exp_RW	87	Rpleas_acq	CS_A	CPPC	JQQJ	YFFY	LWWL	DXXD	ZHHZ	vertrauen	gütig	sonnig	genießen	träumen	küssen	versagen	gierig	sterben	gemein	töten	krank	1	acq_USunple_CSunple2_RW	acq4567_RW	4	43	400	1	300	300	426	46	0	1	1	blank2r.bmp	0	1	+	0	1	blank2r.bmp	492	1	LWWL	492	1	blank2r.bmp	572	3	krank	866	1	!	1239	1	!	1332	0	0	0	0	0	0	0	0	0	0	0	0	0	0	0	0	0	0	0	0	0	0	0	0	0	0	0	0	0	0
072919	16:43:19	16:51:05	465116	5.0.10.0	5_exp_RW	87	Rpleas_acq	CS_A	CPPC	JQQJ	YFFY	LWWL	DXXD	ZHHZ	vertrauen	gütig	sonnig	genießen	träumen	küssen	versagen	gierig	sterben	gemein	töten	krank	1	acq_USunple_CSunple2_RW	acq4567_RW	4	44	400	0	300	300	479	46	0	1	1	blank2r.bmp	0	1	+	0	1	blank2r.bmp	492	1	LWWL	492	1	blank2r.bmp	572	1	gemein	866	1	!	1239	1	!	-1	0	0	0	0	0	0	0	0	0	0	0	0	0	0	0	0	0	0	0	0	0	0	0	0	0	0	0	0	0	0
072919	16:43:19	16:51:07	467275	5.0.10.0	5_exp_RW	87	Rpleas_acq	CS_A	CPPC	JQQJ	YFFY	LWWL	DXXD	ZHHZ	vertrauen	gütig	sonnig	genießen	träumen	küssen	versagen	gierig	sterben	gemein	töten	krank	1	acq_USunple_CSunple1_RW	acq4567_RW	4	45	400	1	300	300	346	46	0	1	1	blank2r.bmp	0	1	+	0	1	blank2r.bmp	492	1	YFFY	492	1	blank2r.bmp	572	3	sterben	866	1	!	1239	1	!	1252	0	0	0	0	0	0	0	0	0	0	0	0	0	0	0	0	0	0	0	0	0	0	0	0	0	0	0	0	0	0
072919	16:43:19	16:51:09	469315	5.0.10.0	5_exp_RW	87	Rpleas_acq	CS_A	CPPC	JQQJ	YFFY	LWWL	DXXD	ZHHZ	vertrauen	gütig	sonnig	genießen	träumen	küssen	versagen	gierig	sterben	gemein	töten	krank	1	acq_USpleas_CSpleas2_RW	acq4567_RW	4	46	400	0	300	300	274	46	0	0	1	blank2r.bmp	0	1	+	0	1	blank2r.bmp	492	1	JQQJ	492	1	blank2r.bmp	572	1	genießen	866	1	!	-1	1	!	-1	0	0	0	0	0	0	0	0	0	0	0	0	0	0	0	0	0	0	0	0	0	0	0	0	0	0	0	0	0	0
072919	16:43:19	16:51:12	471514	5.0.10.0	5_exp_RW	87	Rpleas_acq	CS_A	CPPC	JQQJ	YFFY	LWWL	DXXD	ZHHZ	vertrauen	gütig	sonnig	genießen	träumen	küssen	versagen	gierig	sterben	gemein	töten	krank	1	acq_USunple_CSunple2_RW	acq4567_RW	4	47	400	1	300	300	395	50	0	0	1	blank2r.bmp	0	1	+	0	1	blank2r.bmp	492	1	LWWL	492	1	blank2r.bmp	572	2	töten	866	1	!	1239	1	!	1292	0	0	0	0	0	0	0	0	0	0	0	0	0	0	0	0	0	0	0	0	0	0	0	0	0	0	0	0	0	0
072919	16:43:19	16:51:14	473899	5.0.10.0	5_exp_RW	87	Rpleas_acq	CS_A	CPPC	JQQJ	YFFY	LWWL	DXXD	ZHHZ	vertrauen	gütig	sonnig	genießen	träumen	küssen	versagen	gierig	sterben	gemein	töten	krank	1	acq_USunple_CSunple1_RW	acq4567_RW	4	48	400	0	300	300	605	46	0	1	1	blank2r.bmp	0	1	+	0	1	blank2r.bmp	492	1	YFFY	492	1	blank2r.bmp	572	3	sterben	866	1	!	1239	1	!	-1	0	0	0	0	0	0	0	0	0	0	0	0	0	0	0	0	0	0	0	0	0	0	0	0	0	0	0	0	0	0
072919	16:43:19	16:51:16	475978	5.0.10.0	5_exp_RW	87	Rpleas_acq	CS_A	CPPC	JQQJ	YFFY	LWWL	DXXD	ZHHZ	vertrauen	gütig	sonnig	genießen	träumen	küssen	versagen	gierig	sterben	gemein	töten	krank	1	acq_USpleas_CSpleas1_RW	acq4567_RW	4	49	400	0	300	300	292	46	0	0	1	blank2r.bmp	0	1	+	0	1	blank2r.bmp	492	1	CPPC	492	1	blank2r.bmp	572	2	gütig	866	1	!	-1	1	!	-1	0	0	0	0	0	0	0	0	0	0	0	0	0	0	0	0	0	0	0	0	0	0	0	0	0	0	0	0	0	0
072919	16:43:19	16:51:18	478258	5.0.10.0	5_exp_RW	87	Rpleas_acq	CS_A	CPPC	JQQJ	YFFY	LWWL	DXXD	ZHHZ	vertrauen	gütig	sonnig	genießen	träumen	küssen	versagen	gierig	sterben	gemein	töten	krank	1	acq_USunple_CSunple1_RW	acq4567_RW	4	50	400	0	300	300	479	46	0	1	1	blank2r.bmp	0	1	+	0	1	blank2r.bmp	492	1	YFFY	492	1	blank2r.bmp	572	1	versagen	866	1	!	1239	1	!	-1	0	0	0	0	0	0	0	0	0	0	0	0	0	0	0	0	0	0	0	0	0	0	0	0	0	0	0	0	0	0
072919	16:43:19	16:51:21	480470	5.0.10.0	5_exp_RW	87	Rpleas_acq	CS_A	CPPC	JQQJ	YFFY	LWWL	DXXD	ZHHZ	vertrauen	gütig	sonnig	genießen	träumen	küssen	versagen	gierig	sterben	gemein	töten	krank	1	acq_USpleas_CSpleas1_RW	acq4567_RW	4	51	400	1	300	300	408	50	0	1	1	blank2r.bmp	0	1	+	0	1	blank2r.bmp	492	1	CPPC	492	1	blank2r.bmp	572	1	vertrauen	866	1	!	1239	1	!	1306	0	0	0	0	0	0	0	0	0	0	0	0	0	0	0	0	0	0	0	0	0	0	0	0	0	0	0	0	0	0
072919	16:43:19	16:51:23	482722	5.0.10.0	5_exp_RW	87	Rpleas_acq	CS_A	CPPC	JQQJ	YFFY	LWWL	DXXD	ZHHZ	vertrauen	gütig	sonnig	genießen	träumen	küssen	versagen	gierig	sterben	gemein	töten	krank	1	acq_USpleas_CSpleas1_RW	acq4567_RW	4	52	400	0	300	300	483	50	0	1	1	blank2r.bmp	0	1	+	0	1	blank2r.bmp	492	1	CPPC	492	1	blank2r.bmp	572	3	sonnig	866	1	!	1239	1	!	-1	0	0	0	0	0	0	0	0	0	0	0	0	0	0	0	0	0	0	0	0	0	0	0	0	0	0	0	0	0	0
072919	16:43:19	16:51:25	484975	5.0.10.0	5_exp_RW	87	Rpleas_acq	CS_A	CPPC	JQQJ	YFFY	LWWL	DXXD	ZHHZ	vertrauen	gütig	sonnig	genießen	träumen	küssen	versagen	gierig	sterben	gemein	töten	krank	1	acq_USpleas_CSpleas2_RW	acq4567_RW	4	53	400	1	300	300	443	50	0	1	1	blank2r.bmp	0	1	+	0	1	blank2r.bmp	492	1	JQQJ	492	1	blank2r.bmp	572	1	genießen	866	1	!	1239	1	!	1346	0	0	0	0	0	0	0	0	0	0	0	0	0	0	0	0	0	0	0	0	0	0	0	0	0	0	0	0	0	0
072919	16:43:19	16:51:27	487321	5.0.10.0	5_exp_RW	87	Rpleas_acq	CS_A	CPPC	JQQJ	YFFY	LWWL	DXXD	ZHHZ	vertrauen	gütig	sonnig	genießen	träumen	küssen	versagen	gierig	sterben	gemein	töten	krank	1	acq_USunple_CSunple2_RW	acq4567_RW	4	54	400	0	300	300	578	46	0	1	1	blank2r.bmp	0	1	+	0	1	blank2r.bmp	492	1	LWWL	492	1	blank2r.bmp	572	1	gemein	866	1	!	1239	1	!	-1	0	0	0	0	0	0	0	0	0	0	0	0	0	0	0	0	0	0	0	0	0	0	0	0	0	0	0	0	0	0
072919	16:43:19	16:51:30	489546	5.0.10.0	5_exp_RW	87	Rpleas_acq	CS_A	CPPC	JQQJ	YFFY	LWWL	DXXD	ZHHZ	vertrauen	gütig	sonnig	genießen	träumen	küssen	versagen	gierig	sterben	gemein	töten	krank	1	acq_USpleas_CSpleas2_RW	acq4567_RW	4	55	400	1	300	300	417	46	0	0	1	blank2r.bmp	0	1	+	0	1	blank2r.bmp	492	1	JQQJ	492	1	blank2r.bmp	572	2	träumen	866	1	!	1239	1	!	1319	0	0	0	0	0	0	0	0	0	0	0	0	0	0	0	0	0	0	0	0	0	0	0	0	0	0	0	0	0	0
072919	16:43:19	16:51:33	493291	5.0.10.0	5_exp_RW	87	Rpleas_acq	CS_A	CPPC	JQQJ	YFFY	LWWL	DXXD	ZHHZ	vertrauen	gütig	sonnig	genießen	träumen	küssen	versagen	gierig	sterben	gemein	töten	krank	1	acq_USunple_CSunple1_RW	acq4567_RW	4	56	400	0	300	300	1965	46	0	1	1	blank2r.bmp	0	1	+	0	1	blank2r.bmp	492	1	YFFY	492	1	blank2r.bmp	572	2	gierig	866	1	!	1239	1	!	-1	0	0	0	0	0	0	0	0	0	0	0	0	0	0	0	0	0	0	0	0	0	0	0	0	0	0	0	0	0	0
072919	16:43:19	16:51:36	496144	5.0.10.0	5_exp_RW	87	Rpleas_acq	CS_A	CPPC	JQQJ	YFFY	LWWL	DXXD	ZHHZ	vertrauen	gütig	sonnig	genießen	träumen	küssen	versagen	gierig	sterben	gemein	töten	krank	1	acq_USpleas_CSpleas2_RW	acq4567_RW	4	57	400	0	300	300	1066	50	0	1	1	blank2r.bmp	0	1	+	0	1	blank2r.bmp	492	1	JQQJ	492	1	blank2r.bmp	572	3	küssen	866	1	!	1239	1	!	-1	0	0	0	0	0	0	0	0	0	0	0	0	0	0	0	0	0	0	0	0	0	0	0	0	0	0	0	0	0	0
072919	16:43:19	16:51:38	498343	5.0.10.0	5_exp_RW	87	Rpleas_acq	CS_A	CPPC	JQQJ	YFFY	LWWL	DXXD	ZHHZ	vertrauen	gütig	sonnig	genießen	träumen	küssen	versagen	gierig	sterben	gemein	töten	krank	1	acq_USunple_CSunple1_RW	acq4567_RW	4	58	400	1	300	300	392	46	0	1	1	blank2r.bmp	0	1	+	0	1	blank2r.bmp	492	1	YFFY	492	1	blank2r.bmp	572	3	sterben	866	1	!	1239	1	!	1292	0	0	0	0	0	0	0	0	0	0	0	0	0	0	0	0	0	0	0	0	0	0	0	0	0	0	0	0	0	0
072919	16:43:19	16:51:41	501142	5.0.10.0	5_exp_RW	87	Rpleas_acq	CS_A	CPPC	JQQJ	YFFY	LWWL	DXXD	ZHHZ	vertrauen	gütig	sonnig	genießen	träumen	küssen	versagen	gierig	sterben	gemein	töten	krank	1	acq_USpleas_CSpleas2_RW	acq4567_RW	4	59	400	0	300	300	1035	50	0	1	1	blank2r.bmp	0	1	+	0	1	blank2r.bmp	492	1	JQQJ	492	1	blank2r.bmp	572	1	genießen	866	1	!	1239	1	!	-1	0	0	0	0	0	0	0	0	0	0	0	0	0	0	0	0	0	0	0	0	0	0	0	0	0	0	0	0	0	0
072919	16:43:19	16:51:44	503634	5.0.10.0	5_exp_RW	87	Rpleas_acq	CS_A	CPPC	JQQJ	YFFY	LWWL	DXXD	ZHHZ	vertrauen	gütig	sonnig	genießen	träumen	küssen	versagen	gierig	sterben	gemein	töten	krank	1	acq_USpleas_CSpleas1_RW	acq4567_RW	4	60	400	0	300	300	695	50	0	1	1	blank2r.bmp	0	1	+	0	1	blank2r.bmp	492	1	CPPC	492	1	blank2r.bmp	572	1	vertrauen	866	1	!	1239	1	!	-1	0	0	0	0	0	0	0	0	0	0	0	0	0	0	0	0	0	0	0	0	0	0	0	0	0	0	0	0	0	0
072919	16:43:19	16:51:46	505833	5.0.10.0	5_exp_RW	87	Rpleas_acq	CS_A	CPPC	JQQJ	YFFY	LWWL	DXXD	ZHHZ	vertrauen	gütig	sonnig	genießen	träumen	küssen	versagen	gierig	sterben	gemein	töten	krank	1	acq_USpleas_CSpleas2_RW	acq4567_RW	4	61	400	1	300	300	399	46	0	0	1	blank2r.bmp	0	1	+	0	1	blank2r.bmp	492	1	JQQJ	492	1	blank2r.bmp	572	3	küssen	866	1	!	1239	1	!	1292	0	0	0	0	0	0	0	0	0	0	0	0	0	0	0	0	0	0	0	0	0	0	0	0	0	0	0	0	0	0
072919	16:43:19	16:51:48	508365	5.0.10.0	5_exp_RW	87	Rpleas_acq	CS_A	CPPC	JQQJ	YFFY	LWWL	DXXD	ZHHZ	vertrauen	gütig	sonnig	genießen	träumen	küssen	versagen	gierig	sterben	gemein	töten	krank	1	acq_USunple_CSunple1_RW	acq4567_RW	4	62	400	0	300	300	756	46	0	1	1	blank2r.bmp	0	1	+	0	1	blank2r.bmp	492	1	YFFY	492	1	blank2r.bmp	572	2	gierig	866	1	!	1239	1	!	-1	0	0	0	0	0	0	0	0	0	0	0	0	0	0	0	0	0	0	0	0	0	0	0	0	0	0	0	0	0	0
072919	16:43:19	16:51:51	510564	5.0.10.0	5_exp_RW	87	Rpleas_acq	CS_A	CPPC	JQQJ	YFFY	LWWL	DXXD	ZHHZ	vertrauen	gütig	sonnig	genießen	träumen	küssen	versagen	gierig	sterben	gemein	töten	krank	1	acq_USpleas_CSpleas2_RW	acq4567_RW	4	63	400	1	300	300	398	50	0	1	1	blank2r.bmp	0	1	+	0	1	blank2r.bmp	492	1	JQQJ	492	1	blank2r.bmp	572	2	träumen	866	1	!	1239	1	!	1292	0	0	0	0	0	0	0	0	0	0	0	0	0	0	0	0	0	0	0	0	0	0	0	0	0	0	0	0	0	0
072919	16:43:19	16:51:53	512710	5.0.10.0	5_exp_RW	87	Rpleas_acq	CS_A	CPPC	JQQJ	YFFY	LWWL	DXXD	ZHHZ	vertrauen	gütig	sonnig	genießen	träumen	küssen	versagen	gierig	sterben	gemein	töten	krank	1	acq_USpleas_CSpleas2_RW	acq4567_RW	4	64	400	1	300	300	346	50	0	1	1	blank2r.bmp	0	1	+	0	1	blank2r.bmp	492	1	JQQJ	492	1	blank2r.bmp	572	3	küssen	866	1	!	1239	1	!	1252	0	0	0	0	0	0	0	0	0	0	0	0	0	0	0	0	0	0	0	0	0	0	0	0	0	0	0	0	0	0
072919	16:43:19	16:51:55	514816	5.0.10.0	5_exp_RW	87	Rpleas_acq	CS_A	CPPC	JQQJ	YFFY	LWWL	DXXD	ZHHZ	vertrauen	gütig	sonnig	genießen	träumen	küssen	versagen	gierig	sterben	gemein	töten	krank	1	acq_USunple_CSunple2_RW	acq4567_RW	4	65	400	0	300	300	332	46	0	1	1	blank2r.bmp	0	1	+	0	1	blank2r.bmp	492	1	LWWL	492	1	blank2r.bmp	572	3	krank	866	1	!	-1	1	!	-1	0	0	0	0	0	0	0	0	0	0	0	0	0	0	0	0	0	0	0	0	0	0	0	0	0	0	0	0	0	0
072919	16:43:19	16:51:57	517095	5.0.10.0	5_exp_RW	87	Rpleas_acq	CS_A	CPPC	JQQJ	YFFY	LWWL	DXXD	ZHHZ	vertrauen	gütig	sonnig	genießen	träumen	küssen	versagen	gierig	sterben	gemein	töten	krank	1	acq_USpleas_CSpleas1_RW	acq4567_RW	4	66	400	0	300	300	505	50	0	1	1	blank2r.bmp	0	1	+	0	1	blank2r.bmp	492	1	CPPC	492	1	blank2r.bmp	572	3	sonnig	866	1	!	1239	1	!	-1	0	0	0	0	0	0	0	0	0	0	0	0	0	0	0	0	0	0	0	0	0	0	0	0	0	0	0	0	0	0
072919	16:43:19	16:52:00	519454	5.0.10.0	5_exp_RW	87	Rpleas_acq	CS_A	CPPC	JQQJ	YFFY	LWWL	DXXD	ZHHZ	vertrauen	gütig	sonnig	genießen	träumen	küssen	versagen	gierig	sterben	gemein	töten	krank	1	acq_USunple_CSunple2_RW	acq4567_RW	4	67	400	0	300	300	573	46	0	1	1	blank2r.bmp	0	1	+	0	1	blank2r.bmp	492	1	LWWL	492	1	blank2r.bmp	572	2	töten	866	1	!	1239	1	!	-1	0	0	0	0	0	0	0	0	0	0	0	0	0	0	0	0	0	0	0	0	0	0	0	0	0	0	0	0	0	0
072919	16:43:19	16:52:01	521453	5.0.10.0	5_exp_RW	87	Rpleas_acq	CS_A	CPPC	JQQJ	YFFY	LWWL	DXXD	ZHHZ	vertrauen	gütig	sonnig	genießen	träumen	küssen	versagen	gierig	sterben	gemein	töten	krank	1	acq_USpleas_CSpleas1_RW	acq4567_RW	4	68	400	0	300	300	211	46	0	0	1	blank2r.bmp	0	1	+	0	1	blank2r.bmp	492	1	CPPC	492	1	blank2r.bmp	572	2	gütig	866	1	!	-1	1	!	-1	0	0	0	0	0	0	0	0	0	0	0	0	0	0	0	0	0	0	0	0	0	0	0	0	0	0	0	0	0	0
072919	16:43:19	16:52:04	523826	5.0.10.0	5_exp_RW	87	Rpleas_acq	CS_A	CPPC	JQQJ	YFFY	LWWL	DXXD	ZHHZ	vertrauen	gütig	sonnig	genießen	träumen	küssen	versagen	gierig	sterben	gemein	töten	krank	1	acq_USunple_CSunple2_RW	acq4567_RW	4	69	400	0	300	300	586	50	0	0	1	blank2r.bmp	0	1	+	0	1	blank2r.bmp	492	1	LWWL	492	1	blank2r.bmp	572	1	gemein	866	1	!	1239	1	!	-1	0	0	0	0	0	0	0	0	0	0	0	0	0	0	0	0	0	0	0	0	0	0	0	0	0	0	0	0	0	0
072919	16:43:19	16:52:07	526531	5.0.10.0	5_exp_RW	87	Rpleas_acq	CS_A	CPPC	JQQJ	YFFY	LWWL	DXXD	ZHHZ	vertrauen	gütig	sonnig	genießen	träumen	küssen	versagen	gierig	sterben	gemein	töten	krank	1	acq_USpleas_CSpleas1_RW	acq4567_RW	4	70	400	0	300	300	922	46	0	0	1	blank2r.bmp	0	1	+	0	1	blank2r.bmp	492	1	CPPC	492	1	blank2r.bmp	572	2	gütig	866	1	!	1239	1	!	-1	0	0	0	0	0	0	0	0	0	0	0	0	0	0	0	0	0	0	0	0	0	0	0	0	0	0	0	0	0	0
072919	16:43:19	16:52:10	529983	5.0.10.0	5_exp_RW	87	Rpleas_acq	CS_A	CPPC	JQQJ	YFFY	LWWL	DXXD	ZHHZ	vertrauen	gütig	sonnig	genießen	träumen	küssen	versagen	gierig	sterben	gemein	töten	krank	1	acq_USpleas_CSpleas1_RW	acq4567_RW	4	71	400	0	300	300	1675	46	0	0	1	blank2r.bmp	0	1	+	0	1	blank2r.bmp	492	1	CPPC	492	1	blank2r.bmp	572	1	vertrauen	866	1	!	1239	1	!	-1	0	0	0	0	0	0	0	0	0	0	0	0	0	0	0	0	0	0	0	0	0	0	0	0	0	0	0	0	0	0
072919	16:43:19	16:52:13	532502	5.0.10.0	5_exp_RW	87	Rpleas_acq	CS_A	CPPC	JQQJ	YFFY	LWWL	DXXD	ZHHZ	vertrauen	gütig	sonnig	genießen	träumen	küssen	versagen	gierig	sterben	gemein	töten	krank	1	acq_USunple_CSunple1_RW	acq4567_RW	4	72	400	0	300	300	737	50	0	0	1	blank2r.bmp	0	1	+	0	1	blank2r.bmp	492	1	YFFY	492	1	blank2r.bmp	572	1	versagen	866	1	!	1239	1	!	-1	0	0	0	0	0	0	0	0	0	0	0	0	0	0	0	0	0	0	0	0	0	0	0	0	0	0	0	0	0	0
072919	16:43:19	16:52:15	534715	5.0.10.0	5_exp_RW	87	Rpleas_acq	CS_A	CPPC	JQQJ	YFFY	LWWL	DXXD	ZHHZ	vertrauen	gütig	sonnig	genießen	träumen	küssen	versagen	gierig	sterben	gemein	töten	krank	1	acq_USunple_CSunple1_RW	acq4567_RW	4	73	400	1	300	300	411	46	0	1	1	blank2r.bmp	0	1	+	0	1	blank2r.bmp	492	1	YFFY	492	1	blank2r.bmp	572	3	sterben	866	1	!	1239	1	!	1306	0	0	0	0	0	0	0	0	0	0	0	0	0	0	0	0	0	0	0	0	0	0	0	0	0	0	0	0	0	0
072919	16:43:19	16:52:17	536980	5.0.10.0	5_exp_RW	87	Rpleas_acq	CS_A	CPPC	JQQJ	YFFY	LWWL	DXXD	ZHHZ	vertrauen	gütig	sonnig	genießen	träumen	küssen	versagen	gierig	sterben	gemein	töten	krank	1	acq_USunple_CSunple2_RW	acq4567_RW	4	74	400	0	300	300	502	46	0	1	1	blank2r.bmp	0	1	+	0	1	blank2r.bmp	492	1	LWWL	492	1	blank2r.bmp	572	2	töten	866	1	!	1239	1	!	-1	0	0	0	0	0	0	0	0	0	0	0	0	0	0	0	0	0	0	0	0	0	0	0	0	0	0	0	0	0	0
072919	16:43:19	16:52:22	541472	5.0.10.0	5_exp_RW	87	Rpleas_acq	CS_A	CPPC	JQQJ	YFFY	LWWL	DXXD	ZHHZ	vertrauen	gütig	sonnig	genießen	träumen	küssen	versagen	gierig	sterben	gemein	töten	krank	1	acq_USunple_CSunple1_RW	acq4567_RW	4	75	400	0	300	300	2709	46	0	1	1	blank2r.bmp	0	1	+	0	1	blank2r.bmp	492	1	YFFY	492	1	blank2r.bmp	572	2	gierig	866	1	!	1239	1	!	-1	0	0	0	0	0	0	0	0	0	0	0	0	0	0	0	0	0	0	0	0	0	0	0	0	0	0	0	0	0	0
072919	16:43:19	16:52:26	546270	5.0.10.0	5_exp_RW	87	Rpleas_acq	CS_A	CPPC	JQQJ	YFFY	LWWL	DXXD	ZHHZ	vertrauen	gütig	sonnig	genießen	träumen	küssen	versagen	gierig	sterben	gemein	töten	krank	1	acq_USunple_CSunple1_RW	acq4567_RW	4	76	400	0	300	300	3011	46	0	1	1	blank2r.bmp	0	1	+	0	1	blank2r.bmp	492	1	YFFY	492	1	blank2r.bmp	572	1	versagen	866	1	!	1239	1	!	-1	0	0	0	0	0	0	0	0	0	0	0	0	0	0	0	0	0	0	0	0	0	0	0	0	0	0	0	0	0	0
072919	16:43:19	16:52:29	548576	5.0.10.0	5_exp_RW	87	Rpleas_acq	CS_A	CPPC	JQQJ	YFFY	LWWL	DXXD	ZHHZ	vertrauen	gütig	sonnig	genießen	träumen	küssen	versagen	gierig	sterben	gemein	töten	krank	1	acq_USpleas_CSpleas1_RW	acq4567_RW	4	77	400	0	300	300	517	50	0	1	1	blank2r.bmp	0	1	+	0	1	blank2r.bmp	492	1	CPPC	492	1	blank2r.bmp	572	3	sonnig	866	1	!	1239	1	!	-1	0	0	0	0	0	0	0	0	0	0	0	0	0	0	0	0	0	0	0	0	0	0	0	0	0	0	0	0	0	0
072919	16:43:19	16:52:31	550681	5.0.10.0	5_exp_RW	87	Rpleas_acq	CS_A	CPPC	JQQJ	YFFY	LWWL	DXXD	ZHHZ	vertrauen	gütig	sonnig	genießen	träumen	küssen	versagen	gierig	sterben	gemein	töten	krank	1	acq_USpleas_CSpleas2_RW	acq4567_RW	4	78	400	0	300	300	320	50	0	1	1	blank2r.bmp	0	1	+	0	1	blank2r.bmp	492	1	JQQJ	492	1	blank2r.bmp	572	1	genießen	866	1	!	-1	1	!	-1	0	0	0	0	0	0	0	0	0	0	0	0	0	0	0	0	0	0	0	0	0	0	0	0	0	0	0	0	0	0
072919	16:43:19	16:52:33	553014	5.0.10.0	5_exp_RW	87	Rpleas_acq	CS_A	CPPC	JQQJ	YFFY	LWWL	DXXD	ZHHZ	vertrauen	gütig	sonnig	genießen	träumen	küssen	versagen	gierig	sterben	gemein	töten	krank	1	acq_USunple_CSunple2_RW	acq4567_RW	4	79	400	0	300	300	550	46	0	1	1	blank2r.bmp	0	1	+	0	1	blank2r.bmp	492	1	LWWL	492	1	blank2r.bmp	572	3	krank	866	1	!	1239	1	!	-1	0	0	0	0	0	0	0	0	0	0	0	0	0	0	0	0	0	0	0	0	0	0	0	0	0	0	0	0	0	0
072919	16:43:19	16:52:35	555253	5.0.10.0	5_exp_RW	87	Rpleas_acq	CS_A	CPPC	JQQJ	YFFY	LWWL	DXXD	ZHHZ	vertrauen	gütig	sonnig	genießen	träumen	küssen	versagen	gierig	sterben	gemein	töten	krank	1	acq_USpleas_CSpleas2_RW	acq4567_RW	4	80	400	1	300	300	434	50	0	1	1	blank2r.bmp	0	1	+	0	1	blank2r.bmp	492	1	JQQJ	492	1	blank2r.bmp	572	2	träumen	866	1	!	1239	1	!	1332	0	0	0	0	0	0	0	0	0	0	0	0	0	0	0	0	0	0	0	0	0	0	0	0	0	0	0	0	0	0
072919	16:43:19	16:53:01	580989	5.0.10.0	5_exp_RW	87	Rpleas_acq	CS_A	CPPC	JQQJ	YFFY	LWWL	DXXD	ZHHZ	vertrauen	gütig	sonnig	genießen	träumen	küssen	versagen	gierig	sterben	gemein	töten	krank	1	acq_USunple_CSunple2_RW	acq4567_RW	5	1	400	0	300	300	584	46	0	1	1	blank2r.bmp	0	1	+	0	1	blank2r.bmp	492	1	LWWL	492	1	blank2r.bmp	572	3	krank	866	1	!	1239	1	!	-1	0	0	0	0	0	0	0	0	0	0	0	0	0	0	0	0	0	0	0	0	0	0	0	0	0	0	0	0	0	0
072919	16:43:19	16:53:03	583281	5.0.10.0	5_exp_RW	87	Rpleas_acq	CS_A	CPPC	JQQJ	YFFY	LWWL	DXXD	ZHHZ	vertrauen	gütig	sonnig	genießen	träumen	küssen	versagen	gierig	sterben	gemein	töten	krank	1	acq_USpleas_CSpleas2_RW	acq4567_RW	5	2	400	0	300	300	508	50	0	1	1	blank2r.bmp	0	1	+	0	1	blank2r.bmp	492	1	JQQJ	492	1	blank2r.bmp	572	2	träumen	866	1	!	1239	1	!	-1	0	0	0	0	0	0	0	0	0	0	0	0	0	0	0	0	0	0	0	0	0	0	0	0	0	0	0	0	0	0
072919	16:43:19	16:53:06	585587	5.0.10.0	5_exp_RW	87	Rpleas_acq	CS_A	CPPC	JQQJ	YFFY	LWWL	DXXD	ZHHZ	vertrauen	gütig	sonnig	genießen	träumen	küssen	versagen	gierig	sterben	gemein	töten	krank	1	acq_USunple_CSunple1_RW	acq4567_RW	5	3	400	0	300	300	523	50	0	0	1	blank2r.bmp	0	1	+	0	1	blank2r.bmp	492	1	YFFY	492	1	blank2r.bmp	572	2	gierig	866	1	!	1239	1	!	-1	0	0	0	0	0	0	0	0	0	0	0	0	0	0	0	0	0	0	0	0	0	0	0	0	0	0	0	0	0	0
072919	16:43:19	16:53:08	587853	5.0.10.0	5_exp_RW	87	Rpleas_acq	CS_A	CPPC	JQQJ	YFFY	LWWL	DXXD	ZHHZ	vertrauen	gütig	sonnig	genießen	träumen	küssen	versagen	gierig	sterben	gemein	töten	krank	1	acq_USpleas_CSpleas1_RW	acq4567_RW	5	4	400	1	300	300	460	50	0	1	1	blank2r.bmp	0	1	+	0	1	blank2r.bmp	492	1	CPPC	492	1	blank2r.bmp	572	3	sonnig	866	1	!	1239	1	!	1359	0	0	0	0	0	0	0	0	0	0	0	0	0	0	0	0	0	0	0	0	0	0	0	0	0	0	0	0	0	0
072919	16:43:19	16:53:10	590105	5.0.10.0	5_exp_RW	87	Rpleas_acq	CS_A	CPPC	JQQJ	YFFY	LWWL	DXXD	ZHHZ	vertrauen	gütig	sonnig	genießen	träumen	küssen	versagen	gierig	sterben	gemein	töten	krank	1	acq_USunple_CSunple1_RW	acq4567_RW	5	5	400	0	300	300	489	46	0	1	1	blank2r.bmp	0	1	+	0	1	blank2r.bmp	492	1	YFFY	492	1	blank2r.bmp	572	3	sterben	866	1	!	1239	1	!	-1	0	0	0	0	0	0	0	0	0	0	0	0	0	0	0	0	0	0	0	0	0	0	0	0	0	0	0	0	0	0
072919	16:43:19	16:53:12	592184	5.0.10.0	5_exp_RW	87	Rpleas_acq	CS_A	CPPC	JQQJ	YFFY	LWWL	DXXD	ZHHZ	vertrauen	gütig	sonnig	genießen	träumen	küssen	versagen	gierig	sterben	gemein	töten	krank	1	acq_USunple_CSunple1_RW	acq4567_RW	5	6	400	0	300	300	299	46	0	1	1	blank2r.bmp	0	1	+	0	1	blank2r.bmp	492	1	YFFY	492	1	blank2r.bmp	572	1	versagen	866	1	!	-1	1	!	-1	0	0	0	0	0	0	0	0	0	0	0	0	0	0	0	0	0	0	0	0	0	0	0	0	0	0	0	0	0	0
072919	16:43:19	16:53:14	594450	5.0.10.0	5_exp_RW	87	Rpleas_acq	CS_A	CPPC	JQQJ	YFFY	LWWL	DXXD	ZHHZ	vertrauen	gütig	sonnig	genießen	träumen	küssen	versagen	gierig	sterben	gemein	töten	krank	1	acq_USunple_CSunple2_RW	acq4567_RW	5	7	400	1	300	300	463	46	0	1	1	blank2r.bmp	0	1	+	0	1	blank2r.bmp	492	1	LWWL	492	1	blank2r.bmp	572	2	töten	866	1	!	1239	1	!	1359	0	0	0	0	0	0	0	0	0	0	0	0	0	0	0	0	0	0	0	0	0	0	0	0	0	0	0	0	0	0
072919	16:43:19	16:53:18	597489	5.0.10.0	5_exp_RW	87	Rpleas_acq	CS_A	CPPC	JQQJ	YFFY	LWWL	DXXD	ZHHZ	vertrauen	gütig	sonnig	genießen	träumen	küssen	versagen	gierig	sterben	gemein	töten	krank	1	acq_USunple_CSunple1_RW	acq4567_RW	5	8	400	0	300	300	1268	46	0	1	1	blank2r.bmp	0	1	+	0	1	blank2r.bmp	492	1	YFFY	492	1	blank2r.bmp	572	2	gierig	866	1	!	1239	1	!	-1	0	0	0	0	0	0	0	0	0	0	0	0	0	0	0	0	0	0	0	0	0	0	0	0	0	0	0	0	0	0
072919	16:43:19	16:53:20	599808	5.0.10.0	5_exp_RW	87	Rpleas_acq	CS_A	CPPC	JQQJ	YFFY	LWWL	DXXD	ZHHZ	vertrauen	gütig	sonnig	genießen	träumen	küssen	versagen	gierig	sterben	gemein	töten	krank	1	acq_USpleas_CSpleas2_RW	acq4567_RW	5	9	400	0	300	300	534	50	0	1	1	blank2r.bmp	0	1	+	0	1	blank2r.bmp	492	1	JQQJ	492	1	blank2r.bmp	572	3	küssen	866	1	!	1239	1	!	-1	0	0	0	0	0	0	0	0	0	0	0	0	0	0	0	0	0	0	0	0	0	0	0	0	0	0	0	0	0	0
072919	16:43:19	16:53:22	602034	5.0.10.0	5_exp_RW	87	Rpleas_acq	CS_A	CPPC	JQQJ	YFFY	LWWL	DXXD	ZHHZ	vertrauen	gütig	sonnig	genießen	träumen	küssen	versagen	gierig	sterben	gemein	töten	krank	1	acq_USunple_CSunple2_RW	acq4567_RW	5	10	400	1	300	300	422	46	0	1	1	blank2r.bmp	0	1	+	0	1	blank2r.bmp	492	1	LWWL	492	1	blank2r.bmp	572	1	gemein	866	1	!	1239	1	!	1319	0	0	0	0	0	0	0	0	0	0	0	0	0	0	0	0	0	0	0	0	0	0	0	0	0	0	0	0	0	0
072919	16:43:19	16:53:24	604406	5.0.10.0	5_exp_RW	87	Rpleas_acq	CS_A	CPPC	JQQJ	YFFY	LWWL	DXXD	ZHHZ	vertrauen	gütig	sonnig	genießen	träumen	küssen	versagen	gierig	sterben	gemein	töten	krank	1	acq_USpleas_CSpleas2_RW	acq4567_RW	5	11	400	0	300	300	599	50	0	1	1	blank2r.bmp	0	1	+	0	1	blank2r.bmp	492	1	JQQJ	492	1	blank2r.bmp	572	1	genießen	866	1	!	1239	1	!	-1	0	0	0	0	0	0	0	0	0	0	0	0	0	0	0	0	0	0	0	0	0	0	0	0	0	0	0	0	0	0
072919	16:43:19	16:53:27	606632	5.0.10.0	5_exp_RW	87	Rpleas_acq	CS_A	CPPC	JQQJ	YFFY	LWWL	DXXD	ZHHZ	vertrauen	gütig	sonnig	genießen	träumen	küssen	versagen	gierig	sterben	gemein	töten	krank	1	acq_USunple_CSunple2_RW	acq4567_RW	5	12	400	1	300	300	422	46	0	1	1	blank2r.bmp	0	1	+	0	1	blank2r.bmp	492	1	LWWL	492	1	blank2r.bmp	572	2	töten	866	1	!	1239	1	!	1319	0	0	0	0	0	0	0	0	0	0	0	0	0	0	0	0	0	0	0	0	0	0	0	0	0	0	0	0	0	0
072919	16:43:19	16:53:29	609191	5.0.10.0	5_exp_RW	87	Rpleas_acq	CS_A	CPPC	JQQJ	YFFY	LWWL	DXXD	ZHHZ	vertrauen	gütig	sonnig	genießen	träumen	küssen	versagen	gierig	sterben	gemein	töten	krank	1	acq_USunple_CSunple2_RW	acq4567_RW	5	13	400	0	300	300	793	46	0	1	1	blank2r.bmp	0	1	+	0	1	blank2r.bmp	492	1	LWWL	492	1	blank2r.bmp	572	1	gemein	866	1	!	1239	1	!	-1	0	0	0	0	0	0	0	0	0	0	0	0	0	0	0	0	0	0	0	0	0	0	0	0	0	0	0	0	0	0
072919	16:43:19	16:53:31	611390	5.0.10.0	5_exp_RW	87	Rpleas_acq	CS_A	CPPC	JQQJ	YFFY	LWWL	DXXD	ZHHZ	vertrauen	gütig	sonnig	genießen	träumen	küssen	versagen	gierig	sterben	gemein	töten	krank	1	acq_USpleas_CSpleas2_RW	acq4567_RW	5	14	400	1	300	300	389	50	0	1	1	blank2r.bmp	0	1	+	0	1	blank2r.bmp	492	1	JQQJ	492	1	blank2r.bmp	572	1	genießen	866	1	!	1239	1	!	1292	0	0	0	0	0	0	0	0	0	0	0	0	0	0	0	0	0	0	0	0	0	0	0	0	0	0	0	0	0	0
072919	16:43:19	16:53:34	613629	5.0.10.0	5_exp_RW	87	Rpleas_acq	CS_A	CPPC	JQQJ	YFFY	LWWL	DXXD	ZHHZ	vertrauen	gütig	sonnig	genießen	träumen	küssen	versagen	gierig	sterben	gemein	töten	krank	1	acq_USpleas_CSpleas1_RW	acq4567_RW	5	15	400	1	300	300	444	46	0	0	1	blank2r.bmp	0	1	+	0	1	blank2r.bmp	492	1	CPPC	492	1	blank2r.bmp	572	2	gütig	866	1	!	1239	1	!	1346	0	0	0	0	0	0	0	0	0	0	0	0	0	0	0	0	0	0	0	0	0	0	0	0	0	0	0	0	0	0
072919	16:43:19	16:53:36	615908	5.0.10.0	5_exp_RW	87	Rpleas_acq	CS_A	CPPC	JQQJ	YFFY	LWWL	DXXD	ZHHZ	vertrauen	gütig	sonnig	genießen	träumen	küssen	versagen	gierig	sterben	gemein	töten	krank	1	acq_USpleas_CSpleas1_RW	acq4567_RW	5	16	400	0	300	300	504	50	0	1	1	blank2r.bmp	0	1	+	0	1	blank2r.bmp	492	1	CPPC	492	1	blank2r.bmp	572	1	vertrauen	866	1	!	1239	1	!	-1	0	0	0	0	0	0	0	0	0	0	0	0	0	0	0	0	0	0	0	0	0	0	0	0	0	0	0	0	0	0
072919	16:43:19	16:53:38	618334	5.0.10.0	5_exp_RW	87	Rpleas_acq	CS_A	CPPC	JQQJ	YFFY	LWWL	DXXD	ZHHZ	vertrauen	gütig	sonnig	genießen	träumen	küssen	versagen	gierig	sterben	gemein	töten	krank	1	acq_USpleas_CSpleas2_RW	acq4567_RW	5	17	400	0	300	300	638	50	0	1	1	blank2r.bmp	0	1	+	0	1	blank2r.bmp	492	1	JQQJ	492	1	blank2r.bmp	572	2	träumen	866	1	!	1239	1	!	-1	0	0	0	0	0	0	0	0	0	0	0	0	0	0	0	0	0	0	0	0	0	0	0	0	0	0	0	0	0	0
072919	16:43:19	16:53:40	620360	5.0.10.0	5_exp_RW	87	Rpleas_acq	CS_A	CPPC	JQQJ	YFFY	LWWL	DXXD	ZHHZ	vertrauen	gütig	sonnig	genießen	träumen	küssen	versagen	gierig	sterben	gemein	töten	krank	1	acq_USpleas_CSpleas1_RW	acq4567_RW	5	18	400	0	300	300	241	46	0	0	1	blank2r.bmp	0	1	+	0	1	blank2r.bmp	492	1	CPPC	492	1	blank2r.bmp	572	3	sonnig	866	1	!	-1	1	!	-1	0	0	0	0	0	0	0	0	0	0	0	0	0	0	0	0	0	0	0	0	0	0	0	0	0	0	0	0	0	0
072919	16:43:19	16:53:43	622745	5.0.10.0	5_exp_RW	87	Rpleas_acq	CS_A	CPPC	JQQJ	YFFY	LWWL	DXXD	ZHHZ	vertrauen	gütig	sonnig	genießen	träumen	küssen	versagen	gierig	sterben	gemein	töten	krank	1	acq_USpleas_CSpleas1_RW	acq4567_RW	5	19	400	0	300	300	611	50	0	1	1	blank2r.bmp	0	1	+	0	1	blank2r.bmp	492	1	CPPC	492	1	blank2r.bmp	572	1	vertrauen	866	1	!	1239	1	!	-1	0	0	0	0	0	0	0	0	0	0	0	0	0	0	0	0	0	0	0	0	0	0	0	0	0	0	0	0	0	0
072919	16:43:19	16:53:45	625131	5.0.10.0	5_exp_RW	87	Rpleas_acq	CS_A	CPPC	JQQJ	YFFY	LWWL	DXXD	ZHHZ	vertrauen	gütig	sonnig	genießen	träumen	küssen	versagen	gierig	sterben	gemein	töten	krank	1	acq_USunple_CSunple1_RW	acq4567_RW	5	20	400	0	300	300	611	46	0	1	1	blank2r.bmp	0	1	+	0	1	blank2r.bmp	492	1	YFFY	492	1	blank2r.bmp	572	1	versagen	866	1	!	1239	1	!	-1	0	0	0	0	0	0	0	0	0	0	0	0	0	0	0	0	0	0	0	0	0	0	0	0	0	0	0	0	0	0
072919	16:43:19	16:53:47	627397	5.0.10.0	5_exp_RW	87	Rpleas_acq	CS_A	CPPC	JQQJ	YFFY	LWWL	DXXD	ZHHZ	vertrauen	gütig	sonnig	genießen	träumen	küssen	versagen	gierig	sterben	gemein	töten	krank	1	acq_USpleas_CSpleas2_RW	acq4567_RW	5	21	400	1	300	300	458	50	0	1	1	blank2r.bmp	0	1	+	0	1	blank2r.bmp	492	1	JQQJ	492	1	blank2r.bmp	572	3	küssen	866	1	!	1239	1	!	1359	0	0	0	0	0	0	0	0	0	0	0	0	0	0	0	0	0	0	0	0	0	0	0	0	0	0	0	0	0	0
072919	16:43:19	16:53:50	629716	5.0.10.0	5_exp_RW	87	Rpleas_acq	CS_A	CPPC	JQQJ	YFFY	LWWL	DXXD	ZHHZ	vertrauen	gütig	sonnig	genießen	träumen	küssen	versagen	gierig	sterben	gemein	töten	krank	1	acq_USunple_CSunple1_RW	acq4567_RW	5	22	400	0	300	300	548	46	0	1	1	blank2r.bmp	0	1	+	0	1	blank2r.bmp	492	1	YFFY	492	1	blank2r.bmp	572	3	sterben	866	1	!	1239	1	!	-1	0	0	0	0	0	0	0	0	0	0	0	0	0	0	0	0	0	0	0	0	0	0	0	0	0	0	0	0	0	0
072919	16:43:19	16:53:52	631808	5.0.10.0	5_exp_RW	87	Rpleas_acq	CS_A	CPPC	JQQJ	YFFY	LWWL	DXXD	ZHHZ	vertrauen	gütig	sonnig	genießen	träumen	küssen	versagen	gierig	sterben	gemein	töten	krank	1	acq_USpleas_CSpleas2_RW	acq4567_RW	5	23	400	0	300	300	302	46	0	0	1	blank2r.bmp	0	1	+	0	1	blank2r.bmp	492	1	JQQJ	492	1	blank2r.bmp	572	3	küssen	866	1	!	-1	1	!	-1	0	0	0	0	0	0	0	0	0	0	0	0	0	0	0	0	0	0	0	0	0	0	0	0	0	0	0	0	0	0
072919	16:43:19	16:53:54	633981	5.0.10.0	5_exp_RW	87	Rpleas_acq	CS_A	CPPC	JQQJ	YFFY	LWWL	DXXD	ZHHZ	vertrauen	gütig	sonnig	genießen	träumen	küssen	versagen	gierig	sterben	gemein	töten	krank	1	acq_USunple_CSunple2_RW	acq4567_RW	5	24	400	1	300	300	365	50	0	0	1	blank2r.bmp	0	1	+	0	1	blank2r.bmp	492	1	LWWL	492	1	blank2r.bmp	572	3	krank	866	1	!	1239	1	!	1266	0	0	0	0	0	0	0	0	0	0	0	0	0	0	0	0	0	0	0	0	0	0	0	0	0	0	0	0	0	0
072919	16:43:19	16:53:58	637539	5.0.10.0	5_exp_RW	87	Rpleas_acq	CS_A	CPPC	JQQJ	YFFY	LWWL	DXXD	ZHHZ	vertrauen	gütig	sonnig	genießen	träumen	küssen	versagen	gierig	sterben	gemein	töten	krank	1	acq_USpleas_CSpleas1_RW	acq4567_RW	5	25	400	0	300	300	1790	50	0	1	1	blank2r.bmp	0	1	+	0	1	blank2r.bmp	492	1	CPPC	492	1	blank2r.bmp	572	2	gütig	866	1	!	1239	1	!	-1	0	0	0	0	0	0	0	0	0	0	0	0	0	0	0	0	0	0	0	0	0	0	0	0	0	0	0	0	0	0
072919	16:43:19	16:54:00	640325	5.0.10.0	5_exp_RW	87	Rpleas_acq	CS_A	CPPC	JQQJ	YFFY	LWWL	DXXD	ZHHZ	vertrauen	gütig	sonnig	genießen	träumen	küssen	versagen	gierig	sterben	gemein	töten	krank	1	acq_USpleas_CSpleas1_RW	acq4567_RW	5	26	400	0	300	300	1008	50	0	1	1	blank2r.bmp	0	1	+	0	1	blank2r.bmp	492	1	CPPC	492	1	blank2r.bmp	572	2	gütig	866	1	!	1239	1	!	-1	0	0	0	0	0	0	0	0	0	0	0	0	0	0	0	0	0	0	0	0	0	0	0	0	0	0	0	0	0	0
072919	16:43:19	16:54:02	642404	5.0.10.0	5_exp_RW	87	Rpleas_acq	CS_A	CPPC	JQQJ	YFFY	LWWL	DXXD	ZHHZ	vertrauen	gütig	sonnig	genießen	träumen	küssen	versagen	gierig	sterben	gemein	töten	krank	1	acq_USunple_CSunple1_RW	acq4567_RW	5	27	400	0	300	300	303	46	0	1	1	blank2r.bmp	0	1	+	0	1	blank2r.bmp	492	1	YFFY	492	1	blank2r.bmp	572	1	versagen	866	1	!	-1	1	!	-1	0	0	0	0	0	0	0	0	0	0	0	0	0	0	0	0	0	0	0	0	0	0	0	0	0	0	0	0	0	0
072919	16:43:19	16:54:05	644790	5.0.10.0	5_exp_RW	87	Rpleas_acq	CS_A	CPPC	JQQJ	YFFY	LWWL	DXXD	ZHHZ	vertrauen	gütig	sonnig	genießen	träumen	küssen	versagen	gierig	sterben	gemein	töten	krank	1	acq_USunple_CSunple2_RW	acq4567_RW	5	28	400	0	300	300	609	46	0	1	1	blank2r.bmp	0	1	+	0	1	blank2r.bmp	492	1	LWWL	492	1	blank2r.bmp	572	3	krank	866	1	!	1239	1	!	-1	0	0	0	0	0	0	0	0	0	0	0	0	0	0	0	0	0	0	0	0	0	0	0	0	0	0	0	0	0	0
072919	16:43:19	16:54:07	647042	5.0.10.0	5_exp_RW	87	Rpleas_acq	CS_A	CPPC	JQQJ	YFFY	LWWL	DXXD	ZHHZ	vertrauen	gütig	sonnig	genießen	träumen	küssen	versagen	gierig	sterben	gemein	töten	krank	1	acq_USunple_CSunple2_RW	acq4567_RW	5	29	400	1	300	300	440	46	0	1	1	blank2r.bmp	0	1	+	0	1	blank2r.bmp	492	1	LWWL	492	1	blank2r.bmp	572	2	töten	866	1	!	1239	1	!	1346	0	0	0	0	0	0	0	0	0	0	0	0	0	0	0	0	0	0	0	0	0	0	0	0	0	0	0	0	0	0
072919	16:43:19	16:54:09	649334	5.0.10.0	5_exp_RW	87	Rpleas_acq	CS_A	CPPC	JQQJ	YFFY	LWWL	DXXD	ZHHZ	vertrauen	gütig	sonnig	genießen	träumen	küssen	versagen	gierig	sterben	gemein	töten	krank	1	acq_USunple_CSunple1_RW	acq4567_RW	5	30	400	0	300	300	524	46	0	1	1	blank2r.bmp	0	1	+	0	1	blank2r.bmp	492	1	YFFY	492	1	blank2r.bmp	572	2	gierig	866	1	!	1239	1	!	-1	0	0	0	0	0	0	0	0	0	0	0	0	0	0	0	0	0	0	0	0	0	0	0	0	0	0	0	0	0	0
072919	16:43:19	16:54:12	651574	5.0.10.0	5_exp_RW	87	Rpleas_acq	CS_A	CPPC	JQQJ	YFFY	LWWL	DXXD	ZHHZ	vertrauen	gütig	sonnig	genießen	träumen	küssen	versagen	gierig	sterben	gemein	töten	krank	1	acq_USpleas_CSpleas1_RW	acq4567_RW	5	31	400	1	300	300	435	50	0	1	1	blank2r.bmp	0	1	+	0	1	blank2r.bmp	492	1	CPPC	492	1	blank2r.bmp	572	1	vertrauen	866	1	!	1239	1	!	1332	0	0	0	0	0	0	0	0	0	0	0	0	0	0	0	0	0	0	0	0	0	0	0	0	0	0	0	0	0	0
072919	16:43:19	16:54:14	653893	5.0.10.0	5_exp_RW	87	Rpleas_acq	CS_A	CPPC	JQQJ	YFFY	LWWL	DXXD	ZHHZ	vertrauen	gütig	sonnig	genießen	träumen	küssen	versagen	gierig	sterben	gemein	töten	krank	1	acq_USunple_CSunple1_RW	acq4567_RW	5	32	400	0	300	300	547	46	0	1	1	blank2r.bmp	0	1	+	0	1	blank2r.bmp	492	1	YFFY	492	1	blank2r.bmp	572	3	sterben	866	1	!	1239	1	!	-1	0	0	0	0	0	0	0	0	0	0	0	0	0	0	0	0	0	0	0	0	0	0	0	0	0	0	0	0	0	0
072919	16:43:19	16:54:16	655932	5.0.10.0	5_exp_RW	87	Rpleas_acq	CS_A	CPPC	JQQJ	YFFY	LWWL	DXXD	ZHHZ	vertrauen	gütig	sonnig	genießen	träumen	küssen	versagen	gierig	sterben	gemein	töten	krank	1	acq_USpleas_CSpleas1_RW	acq4567_RW	5	33	400	0	300	300	253	50	0	1	1	blank2r.bmp	0	1	+	0	1	blank2r.bmp	492	1	CPPC	492	1	blank2r.bmp	572	3	sonnig	866	1	!	-1	1	!	-1	0	0	0	0	0	0	0	0	0	0	0	0	0	0	0	0	0	0	0	0	0	0	0	0	0	0	0	0	0	0
072919	16:43:19	16:54:18	657944	5.0.10.0	5_exp_RW	87	Rpleas_acq	CS_A	CPPC	JQQJ	YFFY	LWWL	DXXD	ZHHZ	vertrauen	gütig	sonnig	genießen	träumen	küssen	versagen	gierig	sterben	gemein	töten	krank	1	acq_USunple_CSunple1_RW	acq4567_RW	5	34	400	0	300	300	225	46	0	1	1	blank2r.bmp	0	1	+	0	1	blank2r.bmp	492	1	YFFY	492	1	blank2r.bmp	572	2	gierig	866	1	!	-1	1	!	-1	0	0	0	0	0	0	0	0	0	0	0	0	0	0	0	0	0	0	0	0	0	0	0	0	0	0	0	0	0	0
072919	16:43:19	16:54:20	660450	5.0.10.0	5_exp_RW	87	Rpleas_acq	CS_A	CPPC	JQQJ	YFFY	LWWL	DXXD	ZHHZ	vertrauen	gütig	sonnig	genießen	träumen	küssen	versagen	gierig	sterben	gemein	töten	krank	1	acq_USpleas_CSpleas2_RW	acq4567_RW	5	35	400	0	300	300	721	50	0	1	1	blank2r.bmp	0	1	+	0	1	blank2r.bmp	492	1	JQQJ	492	1	blank2r.bmp	572	2	träumen	866	1	!	1239	1	!	-1	0	0	0	0	0	0	0	0	0	0	0	0	0	0	0	0	0	0	0	0	0	0	0	0	0	0	0	0	0	0
072919	16:43:19	16:54:23	662716	5.0.10.0	5_exp_RW	87	Rpleas_acq	CS_A	CPPC	JQQJ	YFFY	LWWL	DXXD	ZHHZ	vertrauen	gütig	sonnig	genießen	träumen	küssen	versagen	gierig	sterben	gemein	töten	krank	1	acq_USunple_CSunple2_RW	acq4567_RW	5	36	400	0	300	300	491	46	0	1	1	blank2r.bmp	0	1	+	0	1	blank2r.bmp	492	1	LWWL	492	1	blank2r.bmp	572	1	gemein	866	1	!	1239	1	!	-1	0	0	0	0	0	0	0	0	0	0	0	0	0	0	0	0	0	0	0	0	0	0	0	0	0	0	0	0	0	0
072919	16:43:19	16:54:25	665088	5.0.10.0	5_exp_RW	87	Rpleas_acq	CS_A	CPPC	JQQJ	YFFY	LWWL	DXXD	ZHHZ	vertrauen	gütig	sonnig	genießen	träumen	küssen	versagen	gierig	sterben	gemein	töten	krank	1	acq_USpleas_CSpleas2_RW	acq4567_RW	5	37	400	0	300	300	591	46	0	0	1	blank2r.bmp	0	1	+	0	1	blank2r.bmp	492	1	JQQJ	492	1	blank2r.bmp	572	1	genießen	866	1	!	1239	1	!	-1	0	0	0	0	0	0	0	0	0	0	0	0	0	0	0	0	0	0	0	0	0	0	0	0	0	0	0	0	0	0
072919	16:43:19	16:54:27	667261	5.0.10.0	5_exp_RW	87	Rpleas_acq	CS_A	CPPC	JQQJ	YFFY	LWWL	DXXD	ZHHZ	vertrauen	gütig	sonnig	genießen	träumen	küssen	versagen	gierig	sterben	gemein	töten	krank	1	acq_USpleas_CSpleas1_RW	acq4567_RW	5	38	400	1	300	300	368	50	0	1	1	blank2r.bmp	0	1	+	0	1	blank2r.bmp	492	1	CPPC	492	1	blank2r.bmp	572	3	sonnig	866	1	!	1239	1	!	1266	0	0	0	0	0	0	0	0	0	0	0	0	0	0	0	0	0	0	0	0	0	0	0	0	0	0	0	0	0	0
072919	16:43:19	16:54:30	669686	5.0.10.0	5_exp_RW	87	Rpleas_acq	CS_A	CPPC	JQQJ	YFFY	LWWL	DXXD	ZHHZ	vertrauen	gütig	sonnig	genießen	träumen	küssen	versagen	gierig	sterben	gemein	töten	krank	1	acq_USunple_CSunple2_RW	acq4567_RW	5	39	400	0	300	300	644	46	0	1	1	blank2r.bmp	0	1	+	0	1	blank2r.bmp	492	1	LWWL	492	1	blank2r.bmp	572	1	gemein	866	1	!	1239	1	!	-1	0	0	0	0	0	0	0	0	0	0	0	0	0	0	0	0	0	0	0	0	0	0	0	0	0	0	0	0	0	0
072919	16:43:19	16:54:32	672032	5.0.10.0	5_exp_RW	87	Rpleas_acq	CS_A	CPPC	JQQJ	YFFY	LWWL	DXXD	ZHHZ	vertrauen	gütig	sonnig	genießen	träumen	küssen	versagen	gierig	sterben	gemein	töten	krank	1	acq_USpleas_CSpleas2_RW	acq4567_RW	5	40	400	0	300	300	571	46	0	0	1	blank2r.bmp	0	1	+	0	1	blank2r.bmp	492	1	JQQJ	492	1	blank2r.bmp	572	1	genießen	866	1	!	1239	1	!	-1	0	0	0	0	0	0	0	0	0	0	0	0	0	0	0	0	0	0	0	0	0	0	0	0	0	0	0	0	0	0
072919	16:43:19	16:54:34	674231	5.0.10.0	5_exp_RW	87	Rpleas_acq	CS_A	CPPC	JQQJ	YFFY	LWWL	DXXD	ZHHZ	vertrauen	gütig	sonnig	genießen	träumen	küssen	versagen	gierig	sterben	gemein	töten	krank	1	acq_USunple_CSunple1_RW	acq4567_RW	5	41	400	1	300	300	394	50	0	0	1	blank2r.bmp	0	1	+	0	1	blank2r.bmp	492	1	YFFY	492	1	blank2r.bmp	572	3	sterben	866	1	!	1239	1	!	1292	0	0	0	0	0	0	0	0	0	0	0	0	0	0	0	0	0	0	0	0	0	0	0	0	0	0	0	0	0	0
072919	16:43:19	16:54:37	676870	5.0.10.0	5_exp_RW	87	Rpleas_acq	CS_A	CPPC	JQQJ	YFFY	LWWL	DXXD	ZHHZ	vertrauen	gütig	sonnig	genießen	träumen	küssen	versagen	gierig	sterben	gemein	töten	krank	1	acq_USpleas_CSpleas1_RW	acq4567_RW	5	42	400	0	300	300	866	50	0	1	1	blank2r.bmp	0	1	+	0	1	blank2r.bmp	492	1	CPPC	492	1	blank2r.bmp	572	2	gütig	866	1	!	1239	1	!	-1	0	0	0	0	0	0	0	0	0	0	0	0	0	0	0	0	0	0	0	0	0	0	0	0	0	0	0	0	0	0
072919	16:43:19	16:54:39	679122	5.0.10.0	5_exp_RW	87	Rpleas_acq	CS_A	CPPC	JQQJ	YFFY	LWWL	DXXD	ZHHZ	vertrauen	gütig	sonnig	genießen	träumen	küssen	versagen	gierig	sterben	gemein	töten	krank	1	acq_USpleas_CSpleas2_RW	acq4567_RW	5	43	400	1	300	300	446	46	0	0	1	blank2r.bmp	0	1	+	0	1	blank2r.bmp	492	1	JQQJ	492	1	blank2r.bmp	572	2	träumen	866	1	!	1239	1	!	1346	0	0	0	0	0	0	0	0	0	0	0	0	0	0	0	0	0	0	0	0	0	0	0	0	0	0	0	0	0	0
072919	16:43:19	16:54:42	681761	5.0.10.0	5_exp_RW	87	Rpleas_acq	CS_A	CPPC	JQQJ	YFFY	LWWL	DXXD	ZHHZ	vertrauen	gütig	sonnig	genießen	träumen	küssen	versagen	gierig	sterben	gemein	töten	krank	1	acq_USunple_CSunple2_RW	acq4567_RW	5	44	400	0	300	300	869	46	0	1	1	blank2r.bmp	0	1	+	0	1	blank2r.bmp	492	1	LWWL	492	1	blank2r.bmp	572	3	krank	866	1	!	1239	1	!	-1	0	0	0	0	0	0	0	0	0	0	0	0	0	0	0	0	0	0	0	0	0	0	0	0	0	0	0	0	0	0
072919	16:43:19	16:54:45	684933	5.0.10.0	5_exp_RW	87	Rpleas_acq	CS_A	CPPC	JQQJ	YFFY	LWWL	DXXD	ZHHZ	vertrauen	gütig	sonnig	genießen	träumen	küssen	versagen	gierig	sterben	gemein	töten	krank	1	acq_USpleas_CSpleas1_RW	acq4567_RW	5	45	400	0	300	300	1385	50	0	1	1	blank2r.bmp	0	1	+	0	1	blank2r.bmp	492	1	CPPC	492	1	blank2r.bmp	572	1	vertrauen	866	1	!	1239	1	!	-1	0	0	0	0	0	0	0	0	0	0	0	0	0	0	0	0	0	0	0	0	0	0	0	0	0	0	0	0	0	0
072919	16:43:19	16:54:47	686959	5.0.10.0	5_exp_RW	87	Rpleas_acq	CS_A	CPPC	JQQJ	YFFY	LWWL	DXXD	ZHHZ	vertrauen	gütig	sonnig	genießen	träumen	küssen	versagen	gierig	sterben	gemein	töten	krank	1	acq_USpleas_CSpleas1_RW	acq4567_RW	5	46	400	0	300	300	239	46	0	0	1	blank2r.bmp	0	1	+	0	1	blank2r.bmp	492	1	CPPC	492	1	blank2r.bmp	572	2	gütig	866	1	!	-1	1	!	-1	0	0	0	0	0	0	0	0	0	0	0	0	0	0	0	0	0	0	0	0	0	0	0	0	0	0	0	0	0	0
072919	16:43:19	16:54:49	689025	5.0.10.0	5_exp_RW	87	Rpleas_acq	CS_A	CPPC	JQQJ	YFFY	LWWL	DXXD	ZHHZ	vertrauen	gütig	sonnig	genießen	träumen	küssen	versagen	gierig	sterben	gemein	töten	krank	1	acq_USpleas_CSpleas1_RW	acq4567_RW	5	47	400	0	300	300	291	50	0	1	1	blank2r.bmp	0	1	+	0	1	blank2r.bmp	492	1	CPPC	492	1	blank2r.bmp	572	1	vertrauen	866	1	!	-1	1	!	-1	0	0	0	0	0	0	0	0	0	0	0	0	0	0	0	0	0	0	0	0	0	0	0	0	0	0	0	0	0	0
072919	16:43:19	16:54:51	691277	5.0.10.0	5_exp_RW	87	Rpleas_acq	CS_A	CPPC	JQQJ	YFFY	LWWL	DXXD	ZHHZ	vertrauen	gütig	sonnig	genießen	träumen	küssen	versagen	gierig	sterben	gemein	töten	krank	1	acq_USpleas_CSpleas2_RW	acq4567_RW	5	48	400	1	300	300	437	50	0	1	1	blank2r.bmp	0	1	+	0	1	blank2r.bmp	492	1	JQQJ	492	1	blank2r.bmp	572	3	küssen	866	1	!	1239	1	!	1332	0	0	0	0	0	0	0	0	0	0	0	0	0	0	0	0	0	0	0	0	0	0	0	0	0	0	0	0	0	0
072919	16:43:19	16:54:54	693730	5.0.10.0	5_exp_RW	87	Rpleas_acq	CS_A	CPPC	JQQJ	YFFY	LWWL	DXXD	ZHHZ	vertrauen	gütig	sonnig	genießen	träumen	küssen	versagen	gierig	sterben	gemein	töten	krank	1	acq_USpleas_CSpleas2_RW	acq4567_RW	5	49	400	0	300	300	679	50	0	1	1	blank2r.bmp	0	1	+	0	1	blank2r.bmp	492	1	JQQJ	492	1	blank2r.bmp	572	2	träumen	866	1	!	1239	1	!	-1	0	0	0	0	0	0	0	0	0	0	0	0	0	0	0	0	0	0	0	0	0	0	0	0	0	0	0	0	0	0
072919	16:43:19	16:54:56	695836	5.0.10.0	5_exp_RW	87	Rpleas_acq	CS_A	CPPC	JQQJ	YFFY	LWWL	DXXD	ZHHZ	vertrauen	gütig	sonnig	genießen	träumen	küssen	versagen	gierig	sterben	gemein	töten	krank	1	acq_USunple_CSunple1_RW	acq4567_RW	5	50	400	0	300	300	323	46	0	1	1	blank2r.bmp	0	1	+	0	1	blank2r.bmp	492	1	YFFY	492	1	blank2r.bmp	572	1	versagen	866	1	!	-1	1	!	-1	0	0	0	0	0	0	0	0	0	0	0	0	0	0	0	0	0	0	0	0	0	0	0	0	0	0	0	0	0	0
072919	16:43:19	16:54:58	698221	5.0.10.0	5_exp_RW	87	Rpleas_acq	CS_A	CPPC	JQQJ	YFFY	LWWL	DXXD	ZHHZ	vertrauen	gütig	sonnig	genießen	träumen	küssen	versagen	gierig	sterben	gemein	töten	krank	1	acq_USpleas_CSpleas1_RW	acq4567_RW	5	51	400	0	300	300	603	50	0	1	1	blank2r.bmp	0	1	+	0	1	blank2r.bmp	492	1	CPPC	492	1	blank2r.bmp	572	3	sonnig	866	1	!	1239	1	!	-1	0	0	0	0	0	0	0	0	0	0	0	0	0	0	0	0	0	0	0	0	0	0	0	0	0	0	0	0	0	0
072919	16:43:19	16:55:01	700514	5.0.10.0	5_exp_RW	87	Rpleas_acq	CS_A	CPPC	JQQJ	YFFY	LWWL	DXXD	ZHHZ	vertrauen	gütig	sonnig	genießen	träumen	küssen	versagen	gierig	sterben	gemein	töten	krank	1	acq_USpleas_CSpleas2_RW	acq4567_RW	5	52	400	0	300	300	513	46	0	0	1	blank2r.bmp	0	1	+	0	1	blank2r.bmp	492	1	JQQJ	492	1	blank2r.bmp	572	1	genießen	866	1	!	1239	1	!	-1	0	0	0	0	0	0	0	0	0	0	0	0	0	0	0	0	0	0	0	0	0	0	0	0	0	0	0	0	0	0
072919	16:43:19	16:55:03	702593	5.0.10.0	5_exp_RW	87	Rpleas_acq	CS_A	CPPC	JQQJ	YFFY	LWWL	DXXD	ZHHZ	vertrauen	gütig	sonnig	genießen	träumen	küssen	versagen	gierig	sterben	gemein	töten	krank	1	acq_USunple_CSunple2_RW	acq4567_RW	5	53	400	0	300	300	301	50	0	0	1	blank2r.bmp	0	1	+	0	1	blank2r.bmp	492	1	LWWL	492	1	blank2r.bmp	572	2	töten	866	1	!	-1	1	!	-1	0	0	0	0	0	0	0	0	0	0	0	0	0	0	0	0	0	0	0	0	0	0	0	0	0	0	0	0	0	0
072919	16:43:19	16:55:09	709150	5.0.10.0	5_exp_RW	87	Rpleas_acq	CS_A	CPPC	JQQJ	YFFY	LWWL	DXXD	ZHHZ	vertrauen	gütig	sonnig	genießen	träumen	küssen	versagen	gierig	sterben	gemein	töten	krank	1	acq_USunple_CSunple2_RW	acq4567_RW	5	54	400	0	300	300	4770	50	0	0	1	blank2r.bmp	0	1	+	0	1	blank2r.bmp	492	1	LWWL	492	1	blank2r.bmp	572	2	töten	866	1	!	1239	1	!	-1	0	0	0	0	0	0	0	0	0	0	0	0	0	0	0	0	0	0	0	0	0	0	0	0	0	0	0	0	0	0
072919	16:43:19	16:55:12	711482	5.0.10.0	5_exp_RW	87	Rpleas_acq	CS_A	CPPC	JQQJ	YFFY	LWWL	DXXD	ZHHZ	vertrauen	gütig	sonnig	genießen	träumen	küssen	versagen	gierig	sterben	gemein	töten	krank	1	acq_USunple_CSunple1_RW	acq4567_RW	5	55	400	0	300	300	541	50	0	0	1	blank2r.bmp	0	1	+	0	1	blank2r.bmp	492	1	YFFY	492	1	blank2r.bmp	572	3	sterben	866	1	!	1239	1	!	-1	0	0	0	0	0	0	0	0	0	0	0	0	0	0	0	0	0	0	0	0	0	0	0	0	0	0	0	0	0	0
072919	16:43:19	16:55:14	713695	5.0.10.0	5_exp_RW	87	Rpleas_acq	CS_A	CPPC	JQQJ	YFFY	LWWL	DXXD	ZHHZ	vertrauen	gütig	sonnig	genießen	träumen	küssen	versagen	gierig	sterben	gemein	töten	krank	1	acq_USunple_CSunple1_RW	acq4567_RW	5	56	400	1	300	300	405	46	0	1	1	blank2r.bmp	0	1	+	0	1	blank2r.bmp	492	1	YFFY	492	1	blank2r.bmp	572	2	gierig	866	1	!	1239	1	!	1306	0	0	0	0	0	0	0	0	0	0	0	0	0	0	0	0	0	0	0	0	0	0	0	0	0	0	0	0	0	0
072919	16:43:19	16:55:16	715947	5.0.10.0	5_exp_RW	87	Rpleas_acq	CS_A	CPPC	JQQJ	YFFY	LWWL	DXXD	ZHHZ	vertrauen	gütig	sonnig	genießen	träumen	küssen	versagen	gierig	sterben	gemein	töten	krank	1	acq_USunple_CSunple1_RW	acq4567_RW	5	57	400	0	300	300	479	46	0	1	1	blank2r.bmp	0	1	+	0	1	blank2r.bmp	492	1	YFFY	492	1	blank2r.bmp	572	1	versagen	866	1	!	1239	1	!	-1	0	0	0	0	0	0	0	0	0	0	0	0	0	0	0	0	0	0	0	0	0	0	0	0	0	0	0	0	0	0
072919	16:43:19	16:55:18	718040	5.0.10.0	5_exp_RW	87	Rpleas_acq	CS_A	CPPC	JQQJ	YFFY	LWWL	DXXD	ZHHZ	vertrauen	gütig	sonnig	genießen	träumen	küssen	versagen	gierig	sterben	gemein	töten	krank	1	acq_USunple_CSunple2_RW	acq4567_RW	5	58	400	0	300	300	315	46	0	1	1	blank2r.bmp	0	1	+	0	1	blank2r.bmp	492	1	LWWL	492	1	blank2r.bmp	572	3	krank	866	1	!	-1	1	!	-1	0	0	0	0	0	0	0	0	0	0	0	0	0	0	0	0	0	0	0	0	0	0	0	0	0	0	0	0	0	0
072919	16:43:19	16:55:20	720226	5.0.10.0	5_exp_RW	87	Rpleas_acq	CS_A	CPPC	JQQJ	YFFY	LWWL	DXXD	ZHHZ	vertrauen	gütig	sonnig	genießen	träumen	küssen	versagen	gierig	sterben	gemein	töten	krank	1	acq_USpleas_CSpleas2_RW	acq4567_RW	5	59	400	1	300	300	370	46	0	0	1	blank2r.bmp	0	1	+	0	1	blank2r.bmp	492	1	JQQJ	492	1	blank2r.bmp	572	3	küssen	866	1	!	1239	1	!	1266	0	0	0	0	0	0	0	0	0	0	0	0	0	0	0	0	0	0	0	0	0	0	0	0	0	0	0	0	0	0
072919	16:43:19	16:55:23	722491	5.0.10.0	5_exp_RW	87	Rpleas_acq	CS_A	CPPC	JQQJ	YFFY	LWWL	DXXD	ZHHZ	vertrauen	gütig	sonnig	genießen	träumen	küssen	versagen	gierig	sterben	gemein	töten	krank	1	acq_USunple_CSunple2_RW	acq4567_RW	5	60	400	1	300	300	466	46	0	1	1	blank2r.bmp	0	1	+	0	1	blank2r.bmp	492	1	LWWL	492	1	blank2r.bmp	572	1	gemein	866	1	!	1239	1	!	1372	0	0	0	0	0	0	0	0	0	0	0	0	0	0	0	0	0	0	0	0	0	0	0	0	0	0	0	0	0	0
072919	16:43:19	16:55:25	724557	5.0.10.0	5_exp_RW	87	Rpleas_acq	CS_A	CPPC	JQQJ	YFFY	LWWL	DXXD	ZHHZ	vertrauen	gütig	sonnig	genießen	träumen	küssen	versagen	gierig	sterben	gemein	töten	krank	1	acq_USunple_CSunple2_RW	acq4567_RW	5	61	400	0	300	300	302	46	0	1	1	blank2r.bmp	0	1	+	0	1	blank2r.bmp	492	1	LWWL	492	1	blank2r.bmp	572	2	töten	866	1	!	-1	1	!	-1	0	0	0	0	0	0	0	0	0	0	0	0	0	0	0	0	0	0	0	0	0	0	0	0	0	0	0	0	0	0
072919	16:43:19	16:55:27	726796	5.0.10.0	5_exp_RW	87	Rpleas_acq	CS_A	CPPC	JQQJ	YFFY	LWWL	DXXD	ZHHZ	vertrauen	gütig	sonnig	genießen	träumen	küssen	versagen	gierig	sterben	gemein	töten	krank	1	acq_USunple_CSunple2_RW	acq4567_RW	5	62	400	1	300	300	429	46	0	1	1	blank2r.bmp	0	1	+	0	1	blank2r.bmp	492	1	LWWL	492	1	blank2r.bmp	572	1	gemein	866	1	!	1239	1	!	1332	0	0	0	0	0	0	0	0	0	0	0	0	0	0	0	0	0	0	0	0	0	0	0	0	0	0	0	0	0	0
072919	16:43:19	16:55:30	729675	5.0.10.0	5_exp_RW	87	Rpleas_acq	CS_A	CPPC	JQQJ	YFFY	LWWL	DXXD	ZHHZ	vertrauen	gütig	sonnig	genießen	träumen	küssen	versagen	gierig	sterben	gemein	töten	krank	1	acq_USunple_CSunple1_RW	acq4567_RW	5	63	400	0	300	300	1104	50	0	0	1	blank2r.bmp	0	1	+	0	1	blank2r.bmp	492	1	YFFY	492	1	blank2r.bmp	572	3	sterben	866	1	!	1239	1	!	-1	0	0	0	0	0	0	0	0	0	0	0	0	0	0	0	0	0	0	0	0	0	0	0	0	0	0	0	0	0	0
072919	16:43:19	16:55:32	731941	5.0.10.0	5_exp_RW	87	Rpleas_acq	CS_A	CPPC	JQQJ	YFFY	LWWL	DXXD	ZHHZ	vertrauen	gütig	sonnig	genießen	träumen	küssen	versagen	gierig	sterben	gemein	töten	krank	1	acq_USunple_CSunple2_RW	acq4567_RW	5	64	400	0	300	300	485	46	0	1	1	blank2r.bmp	0	1	+	0	1	blank2r.bmp	492	1	LWWL	492	1	blank2r.bmp	572	3	krank	866	1	!	1239	1	!	-1	0	0	0	0	0	0	0	0	0	0	0	0	0	0	0	0	0	0	0	0	0	0	0	0	0	0	0	0	0	0
072919	16:43:19	16:55:34	734220	5.0.10.0	5_exp_RW	87	Rpleas_acq	CS_A	CPPC	JQQJ	YFFY	LWWL	DXXD	ZHHZ	vertrauen	gütig	sonnig	genießen	träumen	küssen	versagen	gierig	sterben	gemein	töten	krank	1	acq_USpleas_CSpleas1_RW	acq4567_RW	5	65	400	0	300	300	485	50	0	1	1	blank2r.bmp	0	1	+	0	1	blank2r.bmp	492	1	CPPC	492	1	blank2r.bmp	572	1	vertrauen	866	1	!	1239	1	!	-1	0	0	0	0	0	0	0	0	0	0	0	0	0	0	0	0	0	0	0	0	0	0	0	0	0	0	0	0	0	0
072919	16:43:19	16:55:37	736526	5.0.10.0	5_exp_RW	87	Rpleas_acq	CS_A	CPPC	JQQJ	YFFY	LWWL	DXXD	ZHHZ	vertrauen	gütig	sonnig	genießen	träumen	küssen	versagen	gierig	sterben	gemein	töten	krank	1	acq_USpleas_CSpleas2_RW	acq4567_RW	5	66	400	0	300	300	520	50	0	1	1	blank2r.bmp	0	1	+	0	1	blank2r.bmp	492	1	JQQJ	492	1	blank2r.bmp	572	3	küssen	866	1	!	1239	1	!	-1	0	0	0	0	0	0	0	0	0	0	0	0	0	0	0	0	0	0	0	0	0	0	0	0	0	0	0	0	0	0
072919	16:43:19	16:55:39	738605	5.0.10.0	5_exp_RW	87	Rpleas_acq	CS_A	CPPC	JQQJ	YFFY	LWWL	DXXD	ZHHZ	vertrauen	gütig	sonnig	genießen	träumen	küssen	versagen	gierig	sterben	gemein	töten	krank	1	acq_USunple_CSunple2_RW	acq4567_RW	5	67	400	0	300	300	301	46	0	1	1	blank2r.bmp	0	1	+	0	1	blank2r.bmp	492	1	LWWL	492	1	blank2r.bmp	572	2	töten	866	1	!	-1	1	!	-1	0	0	0	0	0	0	0	0	0	0	0	0	0	0	0	0	0	0	0	0	0	0	0	0	0	0	0	0	0	0
072919	16:43:19	16:55:41	740964	5.0.10.0	5_exp_RW	87	Rpleas_acq	CS_A	CPPC	JQQJ	YFFY	LWWL	DXXD	ZHHZ	vertrauen	gütig	sonnig	genießen	träumen	küssen	versagen	gierig	sterben	gemein	töten	krank	1	acq_USpleas_CSpleas1_RW	acq4567_RW	5	68	400	0	300	300	576	46	0	0	1	blank2r.bmp	0	1	+	0	1	blank2r.bmp	492	1	CPPC	492	1	blank2r.bmp	572	2	gütig	866	1	!	1239	1	!	-1	0	0	0	0	0	0	0	0	0	0	0	0	0	0	0	0	0	0	0	0	0	0	0	0	0	0	0	0	0	0
072919	16:43:19	16:55:43	743003	5.0.10.0	5_exp_RW	87	Rpleas_acq	CS_A	CPPC	JQQJ	YFFY	LWWL	DXXD	ZHHZ	vertrauen	gütig	sonnig	genießen	träumen	küssen	versagen	gierig	sterben	gemein	töten	krank	1	acq_USpleas_CSpleas1_RW	acq4567_RW	5	69	400	0	300	300	253	46	0	0	1	blank2r.bmp	0	1	+	0	1	blank2r.bmp	492	1	CPPC	492	1	blank2r.bmp	572	3	sonnig	866	1	!	-1	1	!	-1	0	0	0	0	0	0	0	0	0	0	0	0	0	0	0	0	0	0	0	0	0	0	0	0	0	0	0	0	0	0
072919	16:43:19	16:55:45	745349	5.0.10.0	5_exp_RW	87	Rpleas_acq	CS_A	CPPC	JQQJ	YFFY	LWWL	DXXD	ZHHZ	vertrauen	gütig	sonnig	genießen	träumen	küssen	versagen	gierig	sterben	gemein	töten	krank	1	acq_USunple_CSunple1_RW	acq4567_RW	5	70	400	0	300	300	559	46	0	1	1	blank2r.bmp	0	1	+	0	1	blank2r.bmp	492	1	YFFY	492	1	blank2r.bmp	572	2	gierig	866	1	!	1239	1	!	-1	0	0	0	0	0	0	0	0	0	0	0	0	0	0	0	0	0	0	0	0	0	0	0	0	0	0	0	0	0	0
072919	16:43:19	16:55:48	747574	5.0.10.0	5_exp_RW	87	Rpleas_acq	CS_A	CPPC	JQQJ	YFFY	LWWL	DXXD	ZHHZ	vertrauen	gütig	sonnig	genießen	träumen	küssen	versagen	gierig	sterben	gemein	töten	krank	1	acq_USpleas_CSpleas2_RW	acq4567_RW	5	71	400	1	300	300	422	46	0	0	1	blank2r.bmp	0	1	+	0	1	blank2r.bmp	492	1	JQQJ	492	1	blank2r.bmp	572	1	genießen	866	1	!	1239	1	!	1319	0	0	0	0	0	0	0	0	0	0	0	0	0	0	0	0	0	0	0	0	0	0	0	0	0	0	0	0	0	0
072919	16:43:19	16:55:50	749960	5.0.10.0	5_exp_RW	87	Rpleas_acq	CS_A	CPPC	JQQJ	YFFY	LWWL	DXXD	ZHHZ	vertrauen	gütig	sonnig	genießen	träumen	küssen	versagen	gierig	sterben	gemein	töten	krank	1	acq_USpleas_CSpleas2_RW	acq4567_RW	5	72	400	0	300	300	623	50	0	1	1	blank2r.bmp	0	1	+	0	1	blank2r.bmp	492	1	JQQJ	492	1	blank2r.bmp	572	2	träumen	866	1	!	1239	1	!	-1	0	0	0	0	0	0	0	0	0	0	0	0	0	0	0	0	0	0	0	0	0	0	0	0	0	0	0	0	0	0
072919	16:43:19	16:55:52	752239	5.0.10.0	5_exp_RW	87	Rpleas_acq	CS_A	CPPC	JQQJ	YFFY	LWWL	DXXD	ZHHZ	vertrauen	gütig	sonnig	genießen	träumen	küssen	versagen	gierig	sterben	gemein	töten	krank	1	acq_USunple_CSunple1_RW	acq4567_RW	5	73	400	1	300	300	466	46	0	1	1	blank2r.bmp	0	1	+	0	1	blank2r.bmp	492	1	YFFY	492	1	blank2r.bmp	572	1	versagen	866	1	!	1239	1	!	1372	0	0	0	0	0	0	0	0	0	0	0	0	0	0	0	0	0	0	0	0	0	0	0	0	0	0	0	0	0	0
072919	16:43:19	16:55:57	756891	5.0.10.0	5_exp_RW	87	Rpleas_acq	CS_A	CPPC	JQQJ	YFFY	LWWL	DXXD	ZHHZ	vertrauen	gütig	sonnig	genießen	träumen	küssen	versagen	gierig	sterben	gemein	töten	krank	1	acq_USunple_CSunple1_RW	acq4567_RW	5	74	400	0	300	300	2890	50	0	0	1	blank2r.bmp	0	1	+	0	1	blank2r.bmp	492	1	YFFY	492	1	blank2r.bmp	572	1	versagen	866	1	!	1239	1	!	-1	0	0	0	0	0	0	0	0	0	0	0	0	0	0	0	0	0	0	0	0	0	0	0	0	0	0	0	0	0	0
072919	16:43:19	16:55:59	759316	5.0.10.0	5_exp_RW	87	Rpleas_acq	CS_A	CPPC	JQQJ	YFFY	LWWL	DXXD	ZHHZ	vertrauen	gütig	sonnig	genießen	träumen	küssen	versagen	gierig	sterben	gemein	töten	krank	1	acq_USpleas_CSpleas2_RW	acq4567_RW	5	75	400	0	300	300	648	50	0	1	1	blank2r.bmp	0	1	+	0	1	blank2r.bmp	492	1	JQQJ	492	1	blank2r.bmp	572	3	küssen	866	1	!	1239	1	!	-1	0	0	0	0	0	0	0	0	0	0	0	0	0	0	0	0	0	0	0	0	0	0	0	0	0	0	0	0	0	0
072919	16:43:19	16:56:01	761342	5.0.10.0	5_exp_RW	87	Rpleas_acq	CS_A	CPPC	JQQJ	YFFY	LWWL	DXXD	ZHHZ	vertrauen	gütig	sonnig	genießen	träumen	küssen	versagen	gierig	sterben	gemein	töten	krank	1	acq_USunple_CSunple2_RW	acq4567_RW	5	76	400	0	300	300	240	50	0	0	1	blank2r.bmp	0	1	+	0	1	blank2r.bmp	492	1	LWWL	492	1	blank2r.bmp	572	1	gemein	866	1	!	-1	1	!	-1	0	0	0	0	0	0	0	0	0	0	0	0	0	0	0	0	0	0	0	0	0	0	0	0	0	0	0	0	0	0
072919	16:43:19	16:56:03	763421	5.0.10.0	5_exp_RW	87	Rpleas_acq	CS_A	CPPC	JQQJ	YFFY	LWWL	DXXD	ZHHZ	vertrauen	gütig	sonnig	genießen	träumen	küssen	versagen	gierig	sterben	gemein	töten	krank	1	acq_USunple_CSunple1_RW	acq4567_RW	5	77	400	0	300	300	298	46	0	1	1	blank2r.bmp	0	1	+	0	1	blank2r.bmp	492	1	YFFY	492	1	blank2r.bmp	572	3	sterben	866	1	!	-1	1	!	-1	0	0	0	0	0	0	0	0	0	0	0	0	0	0	0	0	0	0	0	0	0	0	0	0	0	0	0	0	0	0
072919	16:43:19	16:56:06	765794	5.0.10.0	5_exp_RW	87	Rpleas_acq	CS_A	CPPC	JQQJ	YFFY	LWWL	DXXD	ZHHZ	vertrauen	gütig	sonnig	genießen	träumen	küssen	versagen	gierig	sterben	gemein	töten	krank	1	acq_USpleas_CSpleas1_RW	acq4567_RW	5	78	400	0	300	300	575	46	0	0	1	blank2r.bmp	0	1	+	0	1	blank2r.bmp	492	1	CPPC	492	1	blank2r.bmp	572	2	gütig	866	1	!	1239	1	!	-1	0	0	0	0	0	0	0	0	0	0	0	0	0	0	0	0	0	0	0	0	0	0	0	0	0	0	0	0	0	0
072919	16:43:19	16:56:08	768126	5.0.10.0	5_exp_RW	87	Rpleas_acq	CS_A	CPPC	JQQJ	YFFY	LWWL	DXXD	ZHHZ	vertrauen	gütig	sonnig	genießen	träumen	küssen	versagen	gierig	sterben	gemein	töten	krank	1	acq_USpleas_CSpleas1_RW	acq4567_RW	5	79	400	0	300	300	538	46	0	0	1	blank2r.bmp	0	1	+	0	1	blank2r.bmp	492	1	CPPC	492	1	blank2r.bmp	572	3	sonnig	866	1	!	1239	1	!	-1	0	0	0	0	0	0	0	0	0	0	0	0	0	0	0	0	0	0	0	0	0	0	0	0	0	0	0	0	0	0
072919	16:43:19	16:56:11	770792	5.0.10.0	5_exp_RW	87	Rpleas_acq	CS_A	CPPC	JQQJ	YFFY	LWWL	DXXD	ZHHZ	vertrauen	gütig	sonnig	genießen	träumen	küssen	versagen	gierig	sterben	gemein	töten	krank	1	acq_USpleas_CSpleas2_RW	acq4567_RW	5	80	400	0	300	300	878	50	0	1	1	blank2r.bmp	0	1	+	0	1	blank2r.bmp	492	1	JQQJ	492	1	blank2r.bmp	572	1	genießen	866	1	!	1239	1	!	-1	0	0	0	0	0	0	0	0	0	0	0	0	0	0	0	0	0	0	0	0	0	0	0	0	0	0	0	0	0	0
072919	16:43:19	16:56:31	790557	5.0.10.0	5_exp_RW	87	Rpleas_acq	CS_A	CPPC	JQQJ	YFFY	LWWL	DXXD	ZHHZ	vertrauen	gütig	sonnig	genießen	träumen	küssen	versagen	gierig	sterben	gemein	töten	krank	1	acq_USunple_CSunple1_RW	acq4567_RW	6	1	400	0	300	300	306	46	0	1	1	blank2r.bmp	0	1	+	0	1	blank2r.bmp	492	1	YFFY	492	1	blank2r.bmp	572	2	gierig	866	1	!	-1	1	!	-1	0	0	0	0	0	0	0	0	0	0	0	0	0	0	0	0	0	0	0	0	0	0	0	0	0	0	0	0	0	0
072919	16:43:19	16:56:36	795595	5.0.10.0	5_exp_RW	87	Rpleas_acq	CS_A	CPPC	JQQJ	YFFY	LWWL	DXXD	ZHHZ	vertrauen	gütig	sonnig	genießen	träumen	küssen	versagen	gierig	sterben	gemein	töten	krank	1	acq_USpleas_CSpleas1_RW	acq4567_RW	6	2	400	0	300	300	3258	50	0	1	1	blank2r.bmp	0	1	+	0	1	blank2r.bmp	492	1	CPPC	492	1	blank2r.bmp	572	1	vertrauen	866	1	!	1239	1	!	-1	0	0	0	0	0	0	0	0	0	0	0	0	0	0	0	0	0	0	0	0	0	0	0	0	0	0	0	0	0	0
072919	16:43:19	16:56:38	797687	5.0.10.0	5_exp_RW	87	Rpleas_acq	CS_A	CPPC	JQQJ	YFFY	LWWL	DXXD	ZHHZ	vertrauen	gütig	sonnig	genießen	träumen	küssen	versagen	gierig	sterben	gemein	töten	krank	1	acq_USpleas_CSpleas1_RW	acq4567_RW	6	3	400	0	300	300	313	46	0	0	1	blank2r.bmp	0	1	+	0	1	blank2r.bmp	492	1	CPPC	492	1	blank2r.bmp	572	1	vertrauen	866	1	!	-1	1	!	-1	0	0	0	0	0	0	0	0	0	0	0	0	0	0	0	0	0	0	0	0	0	0	0	0	0	0	0	0	0	0
072919	16:43:19	16:56:40	800393	5.0.10.0	5_exp_RW	87	Rpleas_acq	CS_A	CPPC	JQQJ	YFFY	LWWL	DXXD	ZHHZ	vertrauen	gütig	sonnig	genießen	träumen	küssen	versagen	gierig	sterben	gemein	töten	krank	1	acq_USpleas_CSpleas2_RW	acq4567_RW	6	4	400	0	300	300	924	50	0	1	1	blank2r.bmp	0	1	+	0	1	blank2r.bmp	492	1	JQQJ	492	1	blank2r.bmp	572	2	träumen	866	1	!	1239	1	!	-1	0	0	0	0	0	0	0	0	0	0	0	0	0	0	0	0	0	0	0	0	0	0	0	0	0	0	0	0	0	0
072919	16:43:19	16:56:43	802672	5.0.10.0	5_exp_RW	87	Rpleas_acq	CS_A	CPPC	JQQJ	YFFY	LWWL	DXXD	ZHHZ	vertrauen	gütig	sonnig	genießen	träumen	küssen	versagen	gierig	sterben	gemein	töten	krank	1	acq_USunple_CSunple1_RW	acq4567_RW	6	5	400	1	300	300	454	46	0	1	1	blank2r.bmp	0	1	+	0	1	blank2r.bmp	492	1	YFFY	492	1	blank2r.bmp	572	1	versagen	866	1	!	1239	1	!	1359	0	0	0	0	0	0	0	0	0	0	0	0	0	0	0	0	0	0	0	0	0	0	0	0	0	0	0	0	0	0
072919	16:43:19	16:56:45	804951	5.0.10.0	5_exp_RW	87	Rpleas_acq	CS_A	CPPC	JQQJ	YFFY	LWWL	DXXD	ZHHZ	vertrauen	gütig	sonnig	genießen	träumen	küssen	versagen	gierig	sterben	gemein	töten	krank	1	acq_USpleas_CSpleas1_RW	acq4567_RW	6	6	400	0	300	300	508	50	0	1	1	blank2r.bmp	0	1	+	0	1	blank2r.bmp	492	1	CPPC	492	1	blank2r.bmp	572	2	gütig	866	1	!	1239	1	!	-1	0	0	0	0	0	0	0	0	0	0	0	0	0	0	0	0	0	0	0	0	0	0	0	0	0	0	0	0	0	0
072919	16:43:19	16:56:47	807110	5.0.10.0	5_exp_RW	87	Rpleas_acq	CS_A	CPPC	JQQJ	YFFY	LWWL	DXXD	ZHHZ	vertrauen	gütig	sonnig	genießen	träumen	küssen	versagen	gierig	sterben	gemein	töten	krank	1	acq_USpleas_CSpleas1_RW	acq4567_RW	6	7	400	1	300	300	346	50	0	1	1	blank2r.bmp	0	1	+	0	1	blank2r.bmp	492	1	CPPC	492	1	blank2r.bmp	572	3	sonnig	866	1	!	1239	1	!	1252	0	0	0	0	0	0	0	0	0	0	0	0	0	0	0	0	0	0	0	0	0	0	0	0	0	0	0	0	0	0
072919	16:43:19	16:56:49	809203	5.0.10.0	5_exp_RW	87	Rpleas_acq	CS_A	CPPC	JQQJ	YFFY	LWWL	DXXD	ZHHZ	vertrauen	gütig	sonnig	genießen	träumen	küssen	versagen	gierig	sterben	gemein	töten	krank	1	acq_USpleas_CSpleas2_RW	acq4567_RW	6	8	400	0	300	300	320	50	0	1	1	blank2r.bmp	0	1	+	0	1	blank2r.bmp	492	1	JQQJ	492	1	blank2r.bmp	572	3	küssen	866	1	!	-1	1	!	-1	0	0	0	0	0	0	0	0	0	0	0	0	0	0	0	0	0	0	0	0	0	0	0	0	0	0	0	0	0	0
072919	16:43:19	16:56:52	811575	5.0.10.0	5_exp_RW	87	Rpleas_acq	CS_A	CPPC	JQQJ	YFFY	LWWL	DXXD	ZHHZ	vertrauen	gütig	sonnig	genießen	träumen	küssen	versagen	gierig	sterben	gemein	töten	krank	1	acq_USpleas_CSpleas2_RW	acq4567_RW	6	9	400	0	300	300	590	50	0	1	1	blank2r.bmp	0	1	+	0	1	blank2r.bmp	492	1	JQQJ	492	1	blank2r.bmp	572	2	träumen	866	1	!	1239	1	!	-1	0	0	0	0	0	0	0	0	0	0	0	0	0	0	0	0	0	0	0	0	0	0	0	0	0	0	0	0	0	0
072919	16:43:19	16:56:54	813601	5.0.10.0	5_exp_RW	87	Rpleas_acq	CS_A	CPPC	JQQJ	YFFY	LWWL	DXXD	ZHHZ	vertrauen	gütig	sonnig	genießen	träumen	küssen	versagen	gierig	sterben	gemein	töten	krank	1	acq_USunple_CSunple2_RW	acq4567_RW	6	10	400	0	300	300	250	46	0	1	1	blank2r.bmp	0	1	+	0	1	blank2r.bmp	492	1	LWWL	492	1	blank2r.bmp	572	3	krank	866	1	!	-1	1	!	-1	0	0	0	0	0	0	0	0	0	0	0	0	0	0	0	0	0	0	0	0	0	0	0	0	0	0	0	0	0	0
072919	16:43:19	16:56:56	815960	5.0.10.0	5_exp_RW	87	Rpleas_acq	CS_A	CPPC	JQQJ	YFFY	LWWL	DXXD	ZHHZ	vertrauen	gütig	sonnig	genießen	träumen	küssen	versagen	gierig	sterben	gemein	töten	krank	1	acq_USunple_CSunple2_RW	acq4567_RW	6	11	400	0	300	300	572	46	0	1	1	blank2r.bmp	0	1	+	0	1	blank2r.bmp	492	1	LWWL	492	1	blank2r.bmp	572	1	gemein	866	1	!	1239	1	!	-1	0	0	0	0	0	0	0	0	0	0	0	0	0	0	0	0	0	0	0	0	0	0	0	0	0	0	0	0	0	0
072919	16:43:19	16:56:59	818799	5.0.10.0	5_exp_RW	87	Rpleas_acq	CS_A	CPPC	JQQJ	YFFY	LWWL	DXXD	ZHHZ	vertrauen	gütig	sonnig	genießen	träumen	küssen	versagen	gierig	sterben	gemein	töten	krank	1	acq_USpleas_CSpleas2_RW	acq4567_RW	6	12	400	0	300	300	1056	50	0	1	1	blank2r.bmp	0	1	+	0	1	blank2r.bmp	492	1	JQQJ	492	1	blank2r.bmp	572	1	genießen	866	1	!	1239	1	!	-1	0	0	0	0	0	0	0	0	0	0	0	0	0	0	0	0	0	0	0	0	0	0	0	0	0	0	0	0	0	0
072919	16:43:19	16:57:01	821131	5.0.10.0	5_exp_RW	87	Rpleas_acq	CS_A	CPPC	JQQJ	YFFY	LWWL	DXXD	ZHHZ	vertrauen	gütig	sonnig	genießen	träumen	küssen	versagen	gierig	sterben	gemein	töten	krank	1	acq_USunple_CSunple2_RW	acq4567_RW	6	13	400	0	300	300	553	46	0	1	1	blank2r.bmp	0	1	+	0	1	blank2r.bmp	492	1	LWWL	492	1	blank2r.bmp	572	3	krank	866	1	!	1239	1	!	-1	0	0	0	0	0	0	0	0	0	0	0	0	0	0	0	0	0	0	0	0	0	0	0	0	0	0	0	0	0	0
