date	time	script.currenttime	script.elapsedtime	build	script.currentexpt	subject	expressions.LRpleas_acq	expressions.conditionCS_A	expressions.CSpleas_1	expressions.CSpleas_2	expressions.CSunple_1	expressions.CSunple_2	expressions.distractor_1	expressions.distractor_2	expressions.US_pleas1	expressions.US_pleas2	expressions.US_pleas3	expressions.US_pleas4	expressions.US_pleas5	expressions.US_pleas6	expressions.US_unple1	expressions.US_unple2	expressions.US_unple3	expressions.US_unple4	expressions.US_unple5	expressions.US_unple6	counter.positions_noRW	trialcode	blockcode	blocknum	trialnum	windowcenter	inwindow	pretrialpause	posttrialpause	latency	response	expressions.correctedscore	correct	stimulusnumber1	stimulusitem1	stimulusonset1	stimulusnumber2	stimulusitem2	stimulusonset2	stimulusnumber3	stimulusitem3	stimulusonset3	stimulusnumber4	stimulusitem4	stimulusonset4	stimulusnumber5	stimulusitem5	stimulusonset5	stimulusnumber6	stimulusitem6	stimulusonset6	stimulusnumber7	stimulusitem7	stimulusonset7	stimulusnumber8	stimulusitem8	stimulusonset8	stimulusnumber9	stimulusitem9	stimulusonset9	stimulusnumber10	stimulusitem10	stimulusonset10	stimulusnumber11	stimulusitem11	stimulusonset11	stimulusnumber12	stimulusitem12	stimulusonset12	stimulusnumber13	stimulusitem13	stimulusonset13	stimulusnumber14	stimulusitem14	stimulusonset14	stimulusnumber15	stimulusitem15	stimulusonset15	stimulusnumber16	stimulusitem16	stimulusonset16	stimulusnumber17	stimulusitem17	stimulusonset17	stimulusnumber18	stimulusitem18	stimulusonset18
082719	13:07:36	13:08:17	40462	5.0.10.0	5_exp_RW	119	Rpleas_acq	CS_B	YDDY	VKKV	BZZB	GWWG	JXXJ	MQQM	schön	spielen	retten	fair	ehrlich	treu	schlecht	strafen	rächen	faul	eitel	tot	1	acq_USunple_CSunple1_RW	acq1_RW	1	1	0	0	300	300	1902	46	0	1	1	blank2r.bmp	0	1	+	0	1	blank2r.bmp	492	1	BZZB	492	1	blank2r.bmp	572	3	rächen	866	0	0	0	0	0	0	0	0	0	0	0	0	0	0	0	0	0	0	0	0	0	0	0	0	0	0	0	0	0	0	0	0	0	0	0	0
082719	13:07:36	13:08:19	42874	5.0.10.0	5_exp_RW	119	Rpleas_acq	CS_B	YDDY	VKKV	BZZB	GWWG	JXXJ	MQQM	schön	spielen	retten	fair	ehrlich	treu	schlecht	strafen	rächen	faul	eitel	tot	1	acq_USpleas_CSpleas2_RW	acq1_RW	1	2	0	0	300	300	919	50	0	1	1	blank2r.bmp	0	1	+	0	1	blank2r.bmp	492	1	VKKV	492	1	blank2r.bmp	572	1	fair	866	0	0	0	0	0	0	0	0	0	0	0	0	0	0	0	0	0	0	0	0	0	0	0	0	0	0	0	0	0	0	0	0	0	0	0	0
082719	13:07:36	13:08:21	44954	5.0.10.0	5_exp_RW	119	Rpleas_acq	CS_B	YDDY	VKKV	BZZB	GWWG	JXXJ	MQQM	schön	spielen	retten	fair	ehrlich	treu	schlecht	strafen	rächen	faul	eitel	tot	1	acq_USunple_CSunple2_RW	acq1_RW	1	3	0	0	300	300	599	46	0	1	1	blank2r.bmp	0	1	+	0	1	blank2r.bmp	492	1	GWWG	492	1	blank2r.bmp	572	1	faul	866	0	0	0	0	0	0	0	0	0	0	0	0	0	0	0	0	0	0	0	0	0	0	0	0	0	0	0	0	0	0	0	0	0	0	0	0
082719	13:07:36	13:08:23	47073	5.0.10.0	5_exp_RW	119	Rpleas_acq	CS_B	YDDY	VKKV	BZZB	GWWG	JXXJ	MQQM	schön	spielen	retten	fair	ehrlich	treu	schlecht	strafen	rächen	faul	eitel	tot	1	acq_USpleas_CSpleas1_RW	acq1_RW	1	4	0	0	300	300	650	50	0	1	1	blank2r.bmp	0	1	+	0	1	blank2r.bmp	492	1	YDDY	492	1	blank2r.bmp	572	3	retten	866	0	0	0	0	0	0	0	0	0	0	0	0	0	0	0	0	0	0	0	0	0	0	0	0	0	0	0	0	0	0	0	0	0	0	0	0
082719	13:07:36	13:08:26	49178	5.0.10.0	5_exp_RW	119	Rpleas_acq	CS_B	YDDY	VKKV	BZZB	GWWG	JXXJ	MQQM	schön	spielen	retten	fair	ehrlich	treu	schlecht	strafen	rächen	faul	eitel	tot	1	acq_USpleas_CSpleas1_RW	acq1_RW	1	5	0	0	300	300	624	50	0	1	1	blank2r.bmp	0	1	+	0	1	blank2r.bmp	492	1	YDDY	492	1	blank2r.bmp	572	2	spielen	866	0	0	0	0	0	0	0	0	0	0	0	0	0	0	0	0	0	0	0	0	0	0	0	0	0	0	0	0	0	0	0	0	0	0	0	0
082719	13:07:36	13:08:28	51178	5.0.10.0	5_exp_RW	119	Rpleas_acq	CS_B	YDDY	VKKV	BZZB	GWWG	JXXJ	MQQM	schön	spielen	retten	fair	ehrlich	treu	schlecht	strafen	rächen	faul	eitel	tot	1	acq_USpleas_CSpleas2_RW	acq1_RW	1	6	0	0	300	300	517	50	0	1	1	blank2r.bmp	0	1	+	0	1	blank2r.bmp	492	1	VKKV	492	1	blank2r.bmp	572	3	treu	866	0	0	0	0	0	0	0	0	0	0	0	0	0	0	0	0	0	0	0	0	0	0	0	0	0	0	0	0	0	0	0	0	0	0	0	0
082719	13:07:36	13:08:30	53443	5.0.10.0	5_exp_RW	119	Rpleas_acq	CS_B	YDDY	VKKV	BZZB	GWWG	JXXJ	MQQM	schön	spielen	retten	fair	ehrlich	treu	schlecht	strafen	rächen	faul	eitel	tot	1	acq_USunple_CSunple2_RW	acq1_RW	1	7	0	0	300	300	776	46	0	1	1	blank2r.bmp	0	1	+	0	1	blank2r.bmp	492	1	GWWG	492	1	blank2r.bmp	572	2	eitel	866	0	0	0	0	0	0	0	0	0	0	0	0	0	0	0	0	0	0	0	0	0	0	0	0	0	0	0	0	0	0	0	0	0	0	0	0
082719	13:07:36	13:08:32	55562	5.0.10.0	5_exp_RW	119	Rpleas_acq	CS_B	YDDY	VKKV	BZZB	GWWG	JXXJ	MQQM	schön	spielen	retten	fair	ehrlich	treu	schlecht	strafen	rächen	faul	eitel	tot	1	acq_USunple_CSunple1_RW	acq1_RW	1	8	0	0	300	300	629	46	0	1	1	blank2r.bmp	0	1	+	0	1	blank2r.bmp	492	1	BZZB	492	1	blank2r.bmp	572	2	strafen	866	0	0	0	0	0	0	0	0	0	0	0	0	0	0	0	0	0	0	0	0	0	0	0	0	0	0	0	0	0	0	0	0	0	0	0	0
082719	13:07:36	13:08:34	57508	5.0.10.0	5_exp_RW	119	Rpleas_acq	CS_B	YDDY	VKKV	BZZB	GWWG	JXXJ	MQQM	schön	spielen	retten	fair	ehrlich	treu	schlecht	strafen	rächen	faul	eitel	tot	1	acq_USunple_CSunple1_RW	acq1_RW	1	9	0	0	300	300	454	46	0	1	1	blank2r.bmp	0	1	+	0	1	blank2r.bmp	492	1	BZZB	492	1	blank2r.bmp	572	1	schlecht	866	0	0	0	0	0	0	0	0	0	0	0	0	0	0	0	0	0	0	0	0	0	0	0	0	0	0	0	0	0	0	0	0	0	0	0	0
082719	13:07:36	13:08:36	59467	5.0.10.0	5_exp_RW	119	Rpleas_acq	CS_B	YDDY	VKKV	BZZB	GWWG	JXXJ	MQQM	schön	spielen	retten	fair	ehrlich	treu	schlecht	strafen	rächen	faul	eitel	tot	1	acq_USunple_CSunple2_RW	acq1_RW	1	10	0	0	300	300	484	46	0	1	1	blank2r.bmp	0	1	+	0	1	blank2r.bmp	492	1	GWWG	492	1	blank2r.bmp	572	3	tot	866	0	0	0	0	0	0	0	0	0	0	0	0	0	0	0	0	0	0	0	0	0	0	0	0	0	0	0	0	0	0	0	0	0	0	0	0
082719	13:07:36	13:08:38	61586	5.0.10.0	5_exp_RW	119	Rpleas_acq	CS_B	YDDY	VKKV	BZZB	GWWG	JXXJ	MQQM	schön	spielen	retten	fair	ehrlich	treu	schlecht	strafen	rächen	faul	eitel	tot	1	acq_USpleas_CSpleas1_RW	acq1_RW	1	11	0	0	300	300	642	50	0	1	1	blank2r.bmp	0	1	+	0	1	blank2r.bmp	492	1	YDDY	492	1	blank2r.bmp	572	1	schön	866	0	0	0	0	0	0	0	0	0	0	0	0	0	0	0	0	0	0	0	0	0	0	0	0	0	0	0	0	0	0	0	0	0	0	0	0
082719	13:07:36	13:08:40	63626	5.0.10.0	5_exp_RW	119	Rpleas_acq	CS_B	YDDY	VKKV	BZZB	GWWG	JXXJ	MQQM	schön	spielen	retten	fair	ehrlich	treu	schlecht	strafen	rächen	faul	eitel	tot	1	acq_USpleas_CSpleas1_RW	acq1_RW	1	12	0	0	300	300	551	50	0	1	1	blank2r.bmp	0	1	+	0	1	blank2r.bmp	492	1	YDDY	492	1	blank2r.bmp	572	3	retten	866	0	0	0	0	0	0	0	0	0	0	0	0	0	0	0	0	0	0	0	0	0	0	0	0	0	0	0	0	0	0	0	0	0	0	0	0
082719	13:07:36	13:08:42	65611	5.0.10.0	5_exp_RW	119	Rpleas_acq	CS_B	YDDY	VKKV	BZZB	GWWG	JXXJ	MQQM	schön	spielen	retten	fair	ehrlich	treu	schlecht	strafen	rächen	faul	eitel	tot	1	acq_USpleas_CSpleas2_RW	acq1_RW	1	13	0	0	300	300	501	50	0	1	1	blank2r.bmp	0	1	+	0	1	blank2r.bmp	492	1	VKKV	492	1	blank2r.bmp	572	2	ehrlich	866	0	0	0	0	0	0	0	0	0	0	0	0	0	0	0	0	0	0	0	0	0	0	0	0	0	0	0	0	0	0	0	0	0	0	0	0
082719	13:07:36	13:08:44	67784	5.0.10.0	5_exp_RW	119	Rpleas_acq	CS_B	YDDY	VKKV	BZZB	GWWG	JXXJ	MQQM	schön	spielen	retten	fair	ehrlich	treu	schlecht	strafen	rächen	faul	eitel	tot	1	acq_USunple_CSunple1_RW	acq1_RW	1	14	0	0	300	300	681	46	0	1	1	blank2r.bmp	0	1	+	0	1	blank2r.bmp	492	1	BZZB	492	1	blank2r.bmp	572	2	strafen	866	0	0	0	0	0	0	0	0	0	0	0	0	0	0	0	0	0	0	0	0	0	0	0	0	0	0	0	0	0	0	0	0	0	0	0	0
082719	13:07:36	13:08:46	69783	5.0.10.0	5_exp_RW	119	Rpleas_acq	CS_B	YDDY	VKKV	BZZB	GWWG	JXXJ	MQQM	schön	spielen	retten	fair	ehrlich	treu	schlecht	strafen	rächen	faul	eitel	tot	1	acq_USunple_CSunple2_RW	acq1_RW	1	15	0	0	300	300	529	46	0	1	1	blank2r.bmp	0	1	+	0	1	blank2r.bmp	492	1	GWWG	492	1	blank2r.bmp	572	1	faul	866	0	0	0	0	0	0	0	0	0	0	0	0	0	0	0	0	0	0	0	0	0	0	0	0	0	0	0	0	0	0	0	0	0	0	0	0
082719	13:07:36	13:08:48	71915	5.0.10.0	5_exp_RW	119	Rpleas_acq	CS_B	YDDY	VKKV	BZZB	GWWG	JXXJ	MQQM	schön	spielen	retten	fair	ehrlich	treu	schlecht	strafen	rächen	faul	eitel	tot	1	acq_USpleas_CSpleas2_RW	acq1_RW	1	16	0	0	300	300	644	50	0	1	1	blank2r.bmp	0	1	+	0	1	blank2r.bmp	492	1	VKKV	492	1	blank2r.bmp	572	1	fair	866	0	0	0	0	0	0	0	0	0	0	0	0	0	0	0	0	0	0	0	0	0	0	0	0	0	0	0	0	0	0	0	0	0	0	0	0
082719	13:07:36	13:08:55	78926	5.0.10.0	5_exp_RW	119	Rpleas_acq	CS_B	YDDY	VKKV	BZZB	GWWG	JXXJ	MQQM	schön	spielen	retten	fair	ehrlich	treu	schlecht	strafen	rächen	faul	eitel	tot	1	acq_USunple_CSunple2_RW	acq2_RW	2	1	480	1	300	300	507	46	0	1	1	blank2r.bmp	0	1	+	0	1	blank2r.bmp	492	1	GWWG	492	1	blank2r.bmp	572	3	tot	866	1	!	1319	1	!	1412	0	0	0	0	0	0	0	0	0	0	0	0	0	0	0	0	0	0	0	0	0	0	0	0	0	0	0	0	0	0
082719	13:07:36	13:08:58	81218	5.0.10.0	5_exp_RW	119	Rpleas_acq	CS_B	YDDY	VKKV	BZZB	GWWG	JXXJ	MQQM	schön	spielen	retten	fair	ehrlich	treu	schlecht	strafen	rächen	faul	eitel	tot	1	acq_USpleas_CSpleas1_RW	acq2_RW	2	2	480	1	300	300	494	50	0	1	1	blank2r.bmp	0	1	+	0	1	blank2r.bmp	492	1	YDDY	492	1	blank2r.bmp	572	2	spielen	866	1	!	1319	1	!	1399	0	0	0	0	0	0	0	0	0	0	0	0	0	0	0	0	0	0	0	0	0	0	0	0	0	0	0	0	0	0
082719	13:07:36	13:09:00	83391	5.0.10.0	5_exp_RW	119	Rpleas_acq	CS_B	YDDY	VKKV	BZZB	GWWG	JXXJ	MQQM	schön	spielen	retten	fair	ehrlich	treu	schlecht	strafen	rächen	faul	eitel	tot	1	acq_USpleas_CSpleas1_RW	acq2_RW	2	3	480	0	300	300	409	50	0	1	1	blank2r.bmp	0	1	+	0	1	blank2r.bmp	492	1	YDDY	492	1	blank2r.bmp	572	1	schön	866	1	!	-1	1	!	-1	0	0	0	0	0	0	0	0	0	0	0	0	0	0	0	0	0	0	0	0	0	0	0	0	0	0	0	0	0	0
082719	13:07:36	13:09:02	85736	5.0.10.0	5_exp_RW	119	Rpleas_acq	CS_B	YDDY	VKKV	BZZB	GWWG	JXXJ	MQQM	schön	spielen	retten	fair	ehrlich	treu	schlecht	strafen	rächen	faul	eitel	tot	1	acq_USpleas_CSpleas1_RW	acq2_RW	2	4	480	0	300	300	564	50	0	1	1	blank2r.bmp	0	1	+	0	1	blank2r.bmp	492	1	YDDY	492	1	blank2r.bmp	572	3	retten	866	1	!	1319	1	!	-1	0	0	0	0	0	0	0	0	0	0	0	0	0	0	0	0	0	0	0	0	0	0	0	0	0	0	0	0	0	0
082719	13:07:36	13:09:04	87895	5.0.10.0	5_exp_RW	119	Rpleas_acq	CS_B	YDDY	VKKV	BZZB	GWWG	JXXJ	MQQM	schön	spielen	retten	fair	ehrlich	treu	schlecht	strafen	rächen	faul	eitel	tot	1	acq_USunple_CSunple1_RW	acq2_RW	2	5	480	0	300	300	373	46	0	1	1	blank2r.bmp	0	1	+	0	1	blank2r.bmp	492	1	BZZB	492	1	blank2r.bmp	572	1	schlecht	866	1	!	-1	1	!	-1	0	0	0	0	0	0	0	0	0	0	0	0	0	0	0	0	0	0	0	0	0	0	0	0	0	0	0	0	0	0
082719	13:07:36	13:09:06	90054	5.0.10.0	5_exp_RW	119	Rpleas_acq	CS_B	YDDY	VKKV	BZZB	GWWG	JXXJ	MQQM	schön	spielen	retten	fair	ehrlich	treu	schlecht	strafen	rächen	faul	eitel	tot	1	acq_USpleas_CSpleas2_RW	acq2_RW	2	6	480	0	300	300	372	50	0	1	1	blank2r.bmp	0	1	+	0	1	blank2r.bmp	492	1	VKKV	492	1	blank2r.bmp	572	2	ehrlich	866	1	!	-1	1	!	-1	0	0	0	0	0	0	0	0	0	0	0	0	0	0	0	0	0	0	0	0	0	0	0	0	0	0	0	0	0	0
082719	13:07:36	13:09:08	92160	5.0.10.0	5_exp_RW	119	Rpleas_acq	CS_B	YDDY	VKKV	BZZB	GWWG	JXXJ	MQQM	schön	spielen	retten	fair	ehrlich	treu	schlecht	strafen	rächen	faul	eitel	tot	1	acq_USunple_CSunple1_RW	acq2_RW	2	7	480	0	300	300	331	46	0	1	1	blank2r.bmp	0	1	+	0	1	blank2r.bmp	492	1	BZZB	492	1	blank2r.bmp	572	3	rächen	866	1	!	-1	1	!	-1	0	0	0	0	0	0	0	0	0	0	0	0	0	0	0	0	0	0	0	0	0	0	0	0	0	0	0	0	0	0
082719	13:07:36	13:09:11	94626	5.0.10.0	5_exp_RW	119	Rpleas_acq	CS_B	YDDY	VKKV	BZZB	GWWG	JXXJ	MQQM	schön	spielen	retten	fair	ehrlich	treu	schlecht	strafen	rächen	faul	eitel	tot	1	acq_USunple_CSunple2_RW	acq2_RW	2	8	480	1	300	300	439	50	0	0	1	blank2r.bmp	0	1	+	0	1	blank2r.bmp	492	1	GWWG	492	1	blank2r.bmp	572	2	eitel	866	1	FEHLER	1665	1	!	1319	1	!	1346	0	0	0	0	0	0	0	0	0	0	0	0	0	0	0	0	0	0	0	0	0	0	0	0	0	0	0
082719	13:07:36	13:09:13	96945	5.0.10.0	5_exp_RW	119	Rpleas_acq	CS_B	YDDY	VKKV	BZZB	GWWG	JXXJ	MQQM	schön	spielen	retten	fair	ehrlich	treu	schlecht	strafen	rächen	faul	eitel	tot	1	acq_USunple_CSunple2_RW	acq2_RW	2	9	480	0	300	300	759	46	0	1	1	blank2r.bmp	0	1	+	0	1	blank2r.bmp	492	1	GWWG	492	1	blank2r.bmp	572	1	faul	866	1	!	1319	1	!	-1	0	0	0	0	0	0	0	0	0	0	0	0	0	0	0	0	0	0	0	0	0	0	0	0	0	0	0	0	0	0
082719	13:07:36	13:09:16	99184	5.0.10.0	5_exp_RW	119	Rpleas_acq	CS_B	YDDY	VKKV	BZZB	GWWG	JXXJ	MQQM	schön	spielen	retten	fair	ehrlich	treu	schlecht	strafen	rächen	faul	eitel	tot	1	acq_USunple_CSunple2_RW	acq2_RW	2	10	480	1	300	300	433	46	0	1	1	blank2r.bmp	0	1	+	0	1	blank2r.bmp	492	1	GWWG	492	1	blank2r.bmp	572	3	tot	866	1	!	1319	1	!	1332	0	0	0	0	0	0	0	0	0	0	0	0	0	0	0	0	0	0	0	0	0	0	0	0	0	0	0	0	0	0
082719	13:07:36	13:09:18	101503	5.0.10.0	5_exp_RW	119	Rpleas_acq	CS_B	YDDY	VKKV	BZZB	GWWG	JXXJ	MQQM	schön	spielen	retten	fair	ehrlich	treu	schlecht	strafen	rächen	faul	eitel	tot	1	acq_USunple_CSunple1_RW	acq2_RW	2	11	480	1	300	300	517	46	0	1	1	blank2r.bmp	0	1	+	0	1	blank2r.bmp	492	1	BZZB	492	1	blank2r.bmp	572	2	strafen	866	1	!	1319	1	!	1412	0	0	0	0	0	0	0	0	0	0	0	0	0	0	0	0	0	0	0	0	0	0	0	0	0	0	0	0	0	0
082719	13:07:36	13:09:20	103662	5.0.10.0	5_exp_RW	119	Rpleas_acq	CS_B	YDDY	VKKV	BZZB	GWWG	JXXJ	MQQM	schön	spielen	retten	fair	ehrlich	treu	schlecht	strafen	rächen	faul	eitel	tot	1	acq_USpleas_CSpleas1_RW	acq2_RW	2	12	480	0	300	300	396	50	0	1	1	blank2r.bmp	0	1	+	0	1	blank2r.bmp	492	1	YDDY	492	1	blank2r.bmp	572	1	schön	866	1	!	-1	1	!	-1	0	0	0	0	0	0	0	0	0	0	0	0	0	0	0	0	0	0	0	0	0	0	0	0	0	0	0	0	0	0
082719	13:07:36	13:09:22	105808	5.0.10.0	5_exp_RW	119	Rpleas_acq	CS_B	YDDY	VKKV	BZZB	GWWG	JXXJ	MQQM	schön	spielen	retten	fair	ehrlich	treu	schlecht	strafen	rächen	faul	eitel	tot	1	acq_USunple_CSunple1_RW	acq2_RW	2	13	480	0	300	300	348	46	0	1	1	blank2r.bmp	0	1	+	0	1	blank2r.bmp	492	1	BZZB	492	1	blank2r.bmp	572	3	rächen	866	1	!	-1	1	!	-1	0	0	0	0	0	0	0	0	0	0	0	0	0	0	0	0	0	0	0	0	0	0	0	0	0	0	0	0	0	0
082719	13:07:36	13:09:24	108047	5.0.10.0	5_exp_RW	119	Rpleas_acq	CS_B	YDDY	VKKV	BZZB	GWWG	JXXJ	MQQM	schön	spielen	retten	fair	ehrlich	treu	schlecht	strafen	rächen	faul	eitel	tot	1	acq_USpleas_CSpleas1_RW	acq2_RW	2	14	480	1	300	300	426	50	0	1	1	blank2r.bmp	0	1	+	0	1	blank2r.bmp	492	1	YDDY	492	1	blank2r.bmp	572	2	spielen	866	1	!	1319	1	!	1332	0	0	0	0	0	0	0	0	0	0	0	0	0	0	0	0	0	0	0	0	0	0	0	0	0	0	0	0	0	0
082719	13:07:36	13:09:27	110326	5.0.10.0	5_exp_RW	119	Rpleas_acq	CS_B	YDDY	VKKV	BZZB	GWWG	JXXJ	MQQM	schön	spielen	retten	fair	ehrlich	treu	schlecht	strafen	rächen	faul	eitel	tot	1	acq_USunple_CSunple2_RW	acq2_RW	2	15	480	1	300	300	485	46	0	1	1	blank2r.bmp	0	1	+	0	1	blank2r.bmp	492	1	GWWG	492	1	blank2r.bmp	572	2	eitel	866	1	!	1319	1	!	1386	0	0	0	0	0	0	0	0	0	0	0	0	0	0	0	0	0	0	0	0	0	0	0	0	0	0	0	0	0	0
082719	13:07:36	13:09:29	112552	5.0.10.0	5_exp_RW	119	Rpleas_acq	CS_B	YDDY	VKKV	BZZB	GWWG	JXXJ	MQQM	schön	spielen	retten	fair	ehrlich	treu	schlecht	strafen	rächen	faul	eitel	tot	1	acq_USpleas_CSpleas2_RW	acq2_RW	2	16	480	1	300	300	426	50	0	1	1	blank2r.bmp	0	1	+	0	1	blank2r.bmp	492	1	VKKV	492	1	blank2r.bmp	572	3	treu	866	1	!	1319	1	!	1332	0	0	0	0	0	0	0	0	0	0	0	0	0	0	0	0	0	0	0	0	0	0	0	0	0	0	0	0	0	0
082719	13:07:36	13:09:31	114817	5.0.10.0	5_exp_RW	119	Rpleas_acq	CS_B	YDDY	VKKV	BZZB	GWWG	JXXJ	MQQM	schön	spielen	retten	fair	ehrlich	treu	schlecht	strafen	rächen	faul	eitel	tot	1	acq_USunple_CSunple1_RW	acq2_RW	2	17	480	1	300	300	453	46	0	1	1	blank2r.bmp	0	1	+	0	1	blank2r.bmp	492	1	BZZB	492	1	blank2r.bmp	572	1	schlecht	866	1	!	1319	1	!	1359	0	0	0	0	0	0	0	0	0	0	0	0	0	0	0	0	0	0	0	0	0	0	0	0	0	0	0	0	0	0
082719	13:07:36	13:09:34	117190	5.0.10.0	5_exp_RW	119	Rpleas_acq	CS_B	YDDY	VKKV	BZZB	GWWG	JXXJ	MQQM	schön	spielen	retten	fair	ehrlich	treu	schlecht	strafen	rächen	faul	eitel	tot	1	acq_USpleas_CSpleas2_RW	acq2_RW	2	18	480	0	300	300	611	50	0	1	1	blank2r.bmp	0	1	+	0	1	blank2r.bmp	492	1	VKKV	492	1	blank2r.bmp	572	1	fair	866	1	!	1319	1	!	-1	0	0	0	0	0	0	0	0	0	0	0	0	0	0	0	0	0	0	0	0	0	0	0	0	0	0	0	0	0	0
082719	13:07:36	13:09:36	119469	5.0.10.0	5_exp_RW	119	Rpleas_acq	CS_B	YDDY	VKKV	BZZB	GWWG	JXXJ	MQQM	schön	spielen	retten	fair	ehrlich	treu	schlecht	strafen	rächen	faul	eitel	tot	1	acq_USpleas_CSpleas2_RW	acq2_RW	2	19	480	1	300	300	467	50	0	1	1	blank2r.bmp	0	1	+	0	1	blank2r.bmp	492	1	VKKV	492	1	blank2r.bmp	572	3	treu	866	1	!	1319	1	!	1372	0	0	0	0	0	0	0	0	0	0	0	0	0	0	0	0	0	0	0	0	0	0	0	0	0	0	0	0	0	0
082719	13:07:36	13:09:38	121708	5.0.10.0	5_exp_RW	119	Rpleas_acq	CS_B	YDDY	VKKV	BZZB	GWWG	JXXJ	MQQM	schön	spielen	retten	fair	ehrlich	treu	schlecht	strafen	rächen	faul	eitel	tot	1	acq_USpleas_CSpleas2_RW	acq2_RW	2	20	480	1	300	300	450	50	0	1	1	blank2r.bmp	0	1	+	0	1	blank2r.bmp	492	1	VKKV	492	1	blank2r.bmp	572	2	ehrlich	866	1	!	1319	1	!	1346	0	0	0	0	0	0	0	0	0	0	0	0	0	0	0	0	0	0	0	0	0	0	0	0	0	0	0	0	0	0
082719	13:07:36	13:09:40	123813	5.0.10.0	5_exp_RW	119	Rpleas_acq	CS_B	YDDY	VKKV	BZZB	GWWG	JXXJ	MQQM	schön	spielen	retten	fair	ehrlich	treu	schlecht	strafen	rächen	faul	eitel	tot	1	acq_USpleas_CSpleas1_RW	acq2_RW	2	21	480	0	300	300	336	50	0	1	1	blank2r.bmp	0	1	+	0	1	blank2r.bmp	492	1	YDDY	492	1	blank2r.bmp	572	2	spielen	866	1	!	-1	1	!	-1	0	0	0	0	0	0	0	0	0	0	0	0	0	0	0	0	0	0	0	0	0	0	0	0	0	0	0	0	0	0
082719	13:07:36	13:09:42	126132	5.0.10.0	5_exp_RW	119	Rpleas_acq	CS_B	YDDY	VKKV	BZZB	GWWG	JXXJ	MQQM	schön	spielen	retten	fair	ehrlich	treu	schlecht	strafen	rächen	faul	eitel	tot	1	acq_USunple_CSunple2_RW	acq2_RW	2	22	480	1	300	300	511	46	0	1	1	blank2r.bmp	0	1	+	0	1	blank2r.bmp	492	1	GWWG	492	1	blank2r.bmp	572	2	eitel	866	1	!	1319	1	!	1412	0	0	0	0	0	0	0	0	0	0	0	0	0	0	0	0	0	0	0	0	0	0	0	0	0	0	0	0	0	0
082719	13:07:36	13:09:45	128385	5.0.10.0	5_exp_RW	119	Rpleas_acq	CS_B	YDDY	VKKV	BZZB	GWWG	JXXJ	MQQM	schön	spielen	retten	fair	ehrlich	treu	schlecht	strafen	rächen	faul	eitel	tot	1	acq_USpleas_CSpleas2_RW	acq2_RW	2	23	480	1	300	300	457	50	0	1	1	blank2r.bmp	0	1	+	0	1	blank2r.bmp	492	1	VKKV	492	1	blank2r.bmp	572	1	fair	866	1	!	1319	1	!	1359	0	0	0	0	0	0	0	0	0	0	0	0	0	0	0	0	0	0	0	0	0	0	0	0	0	0	0	0	0	0
082719	13:07:36	13:09:47	130531	5.0.10.0	5_exp_RW	119	Rpleas_acq	CS_B	YDDY	VKKV	BZZB	GWWG	JXXJ	MQQM	schön	spielen	retten	fair	ehrlich	treu	schlecht	strafen	rächen	faul	eitel	tot	1	acq_USunple_CSunple1_RW	acq2_RW	2	24	480	0	300	300	384	46	0	1	1	blank2r.bmp	0	1	+	0	1	blank2r.bmp	492	1	BZZB	492	1	blank2r.bmp	572	1	schlecht	866	1	!	-1	1	!	-1	0	0	0	0	0	0	0	0	0	0	0	0	0	0	0	0	0	0	0	0	0	0	0	0	0	0	0	0	0	0
082719	13:07:36	13:09:57	140433	5.0.10.0	5_exp_RW	119	Rpleas_acq	CS_B	YDDY	VKKV	BZZB	GWWG	JXXJ	MQQM	schön	spielen	retten	fair	ehrlich	treu	schlecht	strafen	rächen	faul	eitel	tot	1	acq_USpleas_CSpleas1_RW	acq3_RW	3	1	453	1	300	300	441	50	0	1	1	blank2r.bmp	0	1	+	0	1	blank2r.bmp	492	1	YDDY	492	1	blank2r.bmp	572	1	schön	866	1	!	1292	1	!	1346	0	0	0	0	0	0	0	0	0	0	0	0	0	0	0	0	0	0	0	0	0	0	0	0	0	0	0	0	0	0
082719	13:07:36	13:09:59	142765	5.0.10.0	5_exp_RW	119	Rpleas_acq	CS_B	YDDY	VKKV	BZZB	GWWG	JXXJ	MQQM	schön	spielen	retten	fair	ehrlich	treu	schlecht	strafen	rächen	faul	eitel	tot	1	acq_USpleas_CSpleas2_RW	acq3_RW	3	2	453	0	300	300	334	46	0	0	1	blank2r.bmp	0	1	+	0	1	blank2r.bmp	492	1	VKKV	492	1	blank2r.bmp	572	2	ehrlich	866	1	FEHLER	1546	1	!	-1	1	!	-1	0	0	0	0	0	0	0	0	0	0	0	0	0	0	0	0	0	0	0	0	0	0	0	0	0	0	0
082719	13:07:36	13:10:01	144805	5.0.10.0	5_exp_RW	119	Rpleas_acq	CS_B	YDDY	VKKV	BZZB	GWWG	JXXJ	MQQM	schön	spielen	retten	fair	ehrlich	treu	schlecht	strafen	rächen	faul	eitel	tot	1	acq_USunple_CSunple1_RW	acq3_RW	3	3	453	1	300	300	456	46	0	1	1	blank2r.bmp	0	1	+	0	1	blank2r.bmp	492	1	BZZB	492	1	blank2r.bmp	572	2	strafen	866	1	!	1292	1	!	1359	0	0	0	0	0	0	0	0	0	0	0	0	0	0	0	0	0	0	0	0	0	0	0	0	0	0	0	0	0	0
082719	13:07:36	13:10:03	147110	5.0.10.0	5_exp_RW	119	Rpleas_acq	CS_B	YDDY	VKKV	BZZB	GWWG	JXXJ	MQQM	schön	spielen	retten	fair	ehrlich	treu	schlecht	strafen	rächen	faul	eitel	tot	1	acq_USunple_CSunple1_RW	acq3_RW	3	4	453	1	300	300	514	46	0	1	1	blank2r.bmp	0	1	+	0	1	blank2r.bmp	492	1	BZZB	492	1	blank2r.bmp	572	3	rächen	866	1	!	1292	1	!	1412	0	0	0	0	0	0	0	0	0	0	0	0	0	0	0	0	0	0	0	0	0	0	0	0	0	0	0	0	0	0
082719	13:07:36	13:10:06	149363	5.0.10.0	5_exp_RW	119	Rpleas_acq	CS_B	YDDY	VKKV	BZZB	GWWG	JXXJ	MQQM	schön	spielen	retten	fair	ehrlich	treu	schlecht	strafen	rächen	faul	eitel	tot	1	acq_USunple_CSunple2_RW	acq3_RW	3	5	453	1	300	300	453	46	0	1	1	blank2r.bmp	0	1	+	0	1	blank2r.bmp	492	1	GWWG	492	1	blank2r.bmp	572	3	tot	866	1	!	1292	1	!	1359	0	0	0	0	0	0	0	0	0	0	0	0	0	0	0	0	0	0	0	0	0	0	0	0	0	0	0	0	0	0
082719	13:07:36	13:10:08	151722	5.0.10.0	5_exp_RW	119	Rpleas_acq	CS_B	YDDY	VKKV	BZZB	GWWG	JXXJ	MQQM	schön	spielen	retten	fair	ehrlich	treu	schlecht	strafen	rächen	faul	eitel	tot	1	acq_USunple_CSunple2_RW	acq3_RW	3	6	453	0	300	300	369	50	0	0	1	blank2r.bmp	0	1	+	0	1	blank2r.bmp	492	1	GWWG	492	1	blank2r.bmp	572	1	faul	866	1	FEHLER	1572	1	!	-1	1	!	-1	0	0	0	0	0	0	0	0	0	0	0	0	0	0	0	0	0	0	0	0	0	0	0	0	0	0	0
082719	13:07:36	13:10:10	153881	5.0.10.0	5_exp_RW	119	Rpleas_acq	CS_B	YDDY	VKKV	BZZB	GWWG	JXXJ	MQQM	schön	spielen	retten	fair	ehrlich	treu	schlecht	strafen	rächen	faul	eitel	tot	1	acq_USpleas_CSpleas2_RW	acq3_RW	3	7	453	0	300	300	382	46	0	0	1	blank2r.bmp	0	1	+	0	1	blank2r.bmp	492	1	VKKV	492	1	blank2r.bmp	572	3	treu	866	1	FEHLER	1585	1	!	-1	1	!	-1	0	0	0	0	0	0	0	0	0	0	0	0	0	0	0	0	0	0	0	0	0	0	0	0	0	0	0
082719	13:07:36	13:10:13	156266	5.0.10.0	5_exp_RW	119	Rpleas_acq	CS_B	YDDY	VKKV	BZZB	GWWG	JXXJ	MQQM	schön	spielen	retten	fair	ehrlich	treu	schlecht	strafen	rächen	faul	eitel	tot	1	acq_USunple_CSunple2_RW	acq3_RW	3	8	453	0	300	300	835	46	0	1	1	blank2r.bmp	0	1	+	0	1	blank2r.bmp	492	1	GWWG	492	1	blank2r.bmp	572	2	eitel	866	1	!	1292	1	!	-1	0	0	0	0	0	0	0	0	0	0	0	0	0	0	0	0	0	0	0	0	0	0	0	0	0	0	0	0	0	0
082719	13:07:36	13:10:15	158599	5.0.10.0	5_exp_RW	119	Rpleas_acq	CS_B	YDDY	VKKV	BZZB	GWWG	JXXJ	MQQM	schön	spielen	retten	fair	ehrlich	treu	schlecht	strafen	rächen	faul	eitel	tot	1	acq_USpleas_CSpleas2_RW	acq3_RW	3	9	453	0	300	300	532	50	0	1	1	blank2r.bmp	0	1	+	0	1	blank2r.bmp	492	1	VKKV	492	1	blank2r.bmp	572	2	ehrlich	866	1	!	1292	1	!	-1	0	0	0	0	0	0	0	0	0	0	0	0	0	0	0	0	0	0	0	0	0	0	0	0	0	0	0	0	0	0
082719	13:07:36	13:10:17	160904	5.0.10.0	5_exp_RW	119	Rpleas_acq	CS_B	YDDY	VKKV	BZZB	GWWG	JXXJ	MQQM	schön	spielen	retten	fair	ehrlich	treu	schlecht	strafen	rächen	faul	eitel	tot	1	acq_USpleas_CSpleas2_RW	acq3_RW	3	10	453	1	300	300	503	50	0	1	1	blank2r.bmp	0	1	+	0	1	blank2r.bmp	492	1	VKKV	492	1	blank2r.bmp	572	1	fair	866	1	!	1292	1	!	1399	0	0	0	0	0	0	0	0	0	0	0	0	0	0	0	0	0	0	0	0	0	0	0	0	0	0	0	0	0	0
082719	13:07:36	13:10:20	163183	5.0.10.0	5_exp_RW	119	Rpleas_acq	CS_B	YDDY	VKKV	BZZB	GWWG	JXXJ	MQQM	schön	spielen	retten	fair	ehrlich	treu	schlecht	strafen	rächen	faul	eitel	tot	1	acq_USunple_CSunple1_RW	acq3_RW	3	11	453	1	300	300	484	46	0	1	1	blank2r.bmp	0	1	+	0	1	blank2r.bmp	492	1	BZZB	492	1	blank2r.bmp	572	2	strafen	866	1	!	1292	1	!	1386	0	0	0	0	0	0	0	0	0	0	0	0	0	0	0	0	0	0	0	0	0	0	0	0	0	0	0	0	0	0
082719	13:07:36	13:10:22	165409	5.0.10.0	5_exp_RW	119	Rpleas_acq	CS_B	YDDY	VKKV	BZZB	GWWG	JXXJ	MQQM	schön	spielen	retten	fair	ehrlich	treu	schlecht	strafen	rächen	faul	eitel	tot	1	acq_USpleas_CSpleas1_RW	acq3_RW	3	12	453	1	300	300	436	50	0	1	1	blank2r.bmp	0	1	+	0	1	blank2r.bmp	492	1	YDDY	492	1	blank2r.bmp	572	3	retten	866	1	!	1292	1	!	1332	0	0	0	0	0	0	0	0	0	0	0	0	0	0	0	0	0	0	0	0	0	0	0	0	0	0	0	0	0	0
082719	13:07:36	13:10:24	167941	5.0.10.0	5_exp_RW	119	Rpleas_acq	CS_B	YDDY	VKKV	BZZB	GWWG	JXXJ	MQQM	schön	spielen	retten	fair	ehrlich	treu	schlecht	strafen	rächen	faul	eitel	tot	1	acq_USunple_CSunple1_RW	acq3_RW	3	13	453	0	300	300	547	50	0	0	1	blank2r.bmp	0	1	+	0	1	blank2r.bmp	492	1	BZZB	492	1	blank2r.bmp	572	1	schlecht	866	1	FEHLER	1759	1	!	1292	1	!	-1	0	0	0	0	0	0	0	0	0	0	0	0	0	0	0	0	0	0	0	0	0	0	0	0	0	0	0
082719	13:07:36	13:10:26	169994	5.0.10.0	5_exp_RW	119	Rpleas_acq	CS_B	YDDY	VKKV	BZZB	GWWG	JXXJ	MQQM	schön	spielen	retten	fair	ehrlich	treu	schlecht	strafen	rächen	faul	eitel	tot	1	acq_USunple_CSunple1_RW	acq3_RW	3	14	453	1	300	300	457	46	0	1	1	blank2r.bmp	0	1	+	0	1	blank2r.bmp	492	1	BZZB	492	1	blank2r.bmp	572	3	rächen	866	1	!	1292	1	!	1359	0	0	0	0	0	0	0	0	0	0	0	0	0	0	0	0	0	0	0	0	0	0	0	0	0	0	0	0	0	0
082719	13:07:36	13:10:29	172220	5.0.10.0	5_exp_RW	119	Rpleas_acq	CS_B	YDDY	VKKV	BZZB	GWWG	JXXJ	MQQM	schön	spielen	retten	fair	ehrlich	treu	schlecht	strafen	rächen	faul	eitel	tot	1	acq_USpleas_CSpleas2_RW	acq3_RW	3	15	453	1	300	300	431	50	0	1	1	blank2r.bmp	0	1	+	0	1	blank2r.bmp	492	1	VKKV	492	1	blank2r.bmp	572	3	treu	866	1	!	1292	1	!	1332	0	0	0	0	0	0	0	0	0	0	0	0	0	0	0	0	0	0	0	0	0	0	0	0	0	0	0	0	0	0
082719	13:07:36	13:10:31	174485	5.0.10.0	5_exp_RW	119	Rpleas_acq	CS_B	YDDY	VKKV	BZZB	GWWG	JXXJ	MQQM	schön	spielen	retten	fair	ehrlich	treu	schlecht	strafen	rächen	faul	eitel	tot	1	acq_USpleas_CSpleas2_RW	acq3_RW	3	16	453	1	300	300	473	50	0	1	1	blank2r.bmp	0	1	+	0	1	blank2r.bmp	492	1	VKKV	492	1	blank2r.bmp	572	1	fair	866	1	!	1292	1	!	1372	0	0	0	0	0	0	0	0	0	0	0	0	0	0	0	0	0	0	0	0	0	0	0	0	0	0	0	0	0	0
082719	13:07:36	13:10:33	176471	5.0.10.0	5_exp_RW	119	Rpleas_acq	CS_B	YDDY	VKKV	BZZB	GWWG	JXXJ	MQQM	schön	spielen	retten	fair	ehrlich	treu	schlecht	strafen	rächen	faul	eitel	tot	1	acq_USunple_CSunple1_RW	acq3_RW	3	17	453	0	300	300	223	46	0	1	1	blank2r.bmp	0	1	+	0	1	blank2r.bmp	492	1	BZZB	492	1	blank2r.bmp	572	3	rächen	866	1	!	-1	1	!	-1	0	0	0	0	0	0	0	0	0	0	0	0	0	0	0	0	0	0	0	0	0	0	0	0	0	0	0	0	0	0
082719	13:07:36	13:10:35	178604	5.0.10.0	5_exp_RW	119	Rpleas_acq	CS_B	YDDY	VKKV	BZZB	GWWG	JXXJ	MQQM	schön	spielen	retten	fair	ehrlich	treu	schlecht	strafen	rächen	faul	eitel	tot	1	acq_USunple_CSunple2_RW	acq3_RW	3	18	453	0	300	300	353	46	0	1	1	blank2r.bmp	0	1	+	0	1	blank2r.bmp	492	1	GWWG	492	1	blank2r.bmp	572	3	tot	866	1	!	-1	1	!	-1	0	0	0	0	0	0	0	0	0	0	0	0	0	0	0	0	0	0	0	0	0	0	0	0	0	0	0	0	0	0
082719	13:07:36	13:10:37	180843	5.0.10.0	5_exp_RW	119	Rpleas_acq	CS_B	YDDY	VKKV	BZZB	GWWG	JXXJ	MQQM	schön	spielen	retten	fair	ehrlich	treu	schlecht	strafen	rächen	faul	eitel	tot	1	acq_USpleas_CSpleas1_RW	acq3_RW	3	19	453	1	300	300	414	50	0	1	1	blank2r.bmp	0	1	+	0	1	blank2r.bmp	492	1	YDDY	492	1	blank2r.bmp	572	2	spielen	866	1	!	1292	1	!	1319	0	0	0	0	0	0	0	0	0	0	0	0	0	0	0	0	0	0	0	0	0	0	0	0	0	0	0	0	0	0
082719	13:07:36	13:10:40	183255	5.0.10.0	5_exp_RW	119	Rpleas_acq	CS_B	YDDY	VKKV	BZZB	GWWG	JXXJ	MQQM	schön	spielen	retten	fair	ehrlich	treu	schlecht	strafen	rächen	faul	eitel	tot	1	acq_USpleas_CSpleas1_RW	acq3_RW	3	20	453	1	300	300	399	46	0	0	1	blank2r.bmp	0	1	+	0	1	blank2r.bmp	492	1	YDDY	492	1	blank2r.bmp	572	3	retten	866	1	FEHLER	1625	1	!	1292	1	!	1306	0	0	0	0	0	0	0	0	0	0	0	0	0	0	0	0	0	0	0	0	0	0	0	0	0	0	0
082719	13:07:36	13:10:42	185174	5.0.10.0	5_exp_RW	119	Rpleas_acq	CS_B	YDDY	VKKV	BZZB	GWWG	JXXJ	MQQM	schön	spielen	retten	fair	ehrlich	treu	schlecht	strafen	rächen	faul	eitel	tot	1	acq_USpleas_CSpleas1_RW	acq3_RW	3	21	453	0	300	300	368	50	0	1	1	blank2r.bmp	0	1	+	0	1	blank2r.bmp	492	1	YDDY	492	1	blank2r.bmp	572	1	schön	866	1	!	-1	1	!	-1	0	0	0	0	0	0	0	0	0	0	0	0	0	0	0	0	0	0	0	0	0	0	0	0	0	0	0	0	0	0
082719	13:07:36	13:10:44	187413	5.0.10.0	5_exp_RW	119	Rpleas_acq	CS_B	YDDY	VKKV	BZZB	GWWG	JXXJ	MQQM	schön	spielen	retten	fair	ehrlich	treu	schlecht	strafen	rächen	faul	eitel	tot	1	acq_USunple_CSunple2_RW	acq3_RW	3	22	453	1	300	300	432	46	0	1	1	blank2r.bmp	0	1	+	0	1	blank2r.bmp	492	1	GWWG	492	1	blank2r.bmp	572	1	faul	866	1	!	1292	1	!	1332	0	0	0	0	0	0	0	0	0	0	0	0	0	0	0	0	0	0	0	0	0	0	0	0	0	0	0	0	0	0
082719	13:07:36	13:10:46	190012	5.0.10.0	5_exp_RW	119	Rpleas_acq	CS_B	YDDY	VKKV	BZZB	GWWG	JXXJ	MQQM	schön	spielen	retten	fair	ehrlich	treu	schlecht	strafen	rächen	faul	eitel	tot	1	acq_USunple_CSunple2_RW	acq3_RW	3	23	453	0	300	300	598	50	0	0	1	blank2r.bmp	0	1	+	0	1	blank2r.bmp	492	1	GWWG	492	1	blank2r.bmp	572	2	eitel	866	1	FEHLER	1812	1	!	1292	1	!	-1	0	0	0	0	0	0	0	0	0	0	0	0	0	0	0	0	0	0	0	0	0	0	0	0	0	0	0
082719	13:07:36	13:10:48	191998	5.0.10.0	5_exp_RW	119	Rpleas_acq	CS_B	YDDY	VKKV	BZZB	GWWG	JXXJ	MQQM	schön	spielen	retten	fair	ehrlich	treu	schlecht	strafen	rächen	faul	eitel	tot	1	acq_USpleas_CSpleas1_RW	acq3_RW	3	24	453	1	300	300	399	50	0	1	1	blank2r.bmp	0	1	+	0	1	blank2r.bmp	492	1	YDDY	492	1	blank2r.bmp	572	1	schön	866	1	!	1292	1	!	1306	0	0	0	0	0	0	0	0	0	0	0	0	0	0	0	0	0	0	0	0	0	0	0	0	0	0	0	0	0	0
082719	13:07:36	13:10:56	199342	5.0.10.0	5_exp_RW	119	Rpleas_acq	CS_B	YDDY	VKKV	BZZB	GWWG	JXXJ	MQQM	schön	spielen	retten	fair	ehrlich	treu	schlecht	strafen	rächen	faul	eitel	tot	1	acq_USunple_CSunple2_RW	acq4567_RW	4	1	400	0	300	300	603	46	0	1	1	blank2r.bmp	0	1	+	0	1	blank2r.bmp	492	1	GWWG	492	1	blank2r.bmp	572	1	faul	866	1	!	1239	1	!	-1	0	0	0	0	0	0	0	0	0	0	0	0	0	0	0	0	0	0	0	0	0	0	0	0	0	0	0	0	0	0
082719	13:07:36	13:10:58	201594	5.0.10.0	5_exp_RW	119	Rpleas_acq	CS_B	YDDY	VKKV	BZZB	GWWG	JXXJ	MQQM	schön	spielen	retten	fair	ehrlich	treu	schlecht	strafen	rächen	faul	eitel	tot	1	acq_USpleas_CSpleas1_RW	acq4567_RW	4	2	400	1	300	300	443	50	0	1	1	blank2r.bmp	0	1	+	0	1	blank2r.bmp	492	1	YDDY	492	1	blank2r.bmp	572	2	spielen	866	1	!	1239	1	!	1346	0	0	0	0	0	0	0	0	0	0	0	0	0	0	0	0	0	0	0	0	0	0	0	0	0	0	0	0	0	0
082719	13:07:36	13:11:00	203846	5.0.10.0	5_exp_RW	119	Rpleas_acq	CS_B	YDDY	VKKV	BZZB	GWWG	JXXJ	MQQM	schön	spielen	retten	fair	ehrlich	treu	schlecht	strafen	rächen	faul	eitel	tot	1	acq_USunple_CSunple1_RW	acq4567_RW	4	3	400	1	300	300	460	46	0	1	1	blank2r.bmp	0	1	+	0	1	blank2r.bmp	492	1	BZZB	492	1	blank2r.bmp	572	1	schlecht	866	1	!	1239	1	!	1359	0	0	0	0	0	0	0	0	0	0	0	0	0	0	0	0	0	0	0	0	0	0	0	0	0	0	0	0	0	0
082719	13:07:36	13:11:03	206192	5.0.10.0	5_exp_RW	119	Rpleas_acq	CS_B	YDDY	VKKV	BZZB	GWWG	JXXJ	MQQM	schön	spielen	retten	fair	ehrlich	treu	schlecht	strafen	rächen	faul	eitel	tot	1	acq_USpleas_CSpleas2_RW	acq4567_RW	4	4	400	0	300	300	573	50	0	1	1	blank2r.bmp	0	1	+	0	1	blank2r.bmp	492	1	VKKV	492	1	blank2r.bmp	572	2	ehrlich	866	1	!	1239	1	!	-1	0	0	0	0	0	0	0	0	0	0	0	0	0	0	0	0	0	0	0	0	0	0	0	0	0	0	0	0	0	0
082719	13:07:36	13:11:05	208471	5.0.10.0	5_exp_RW	119	Rpleas_acq	CS_B	YDDY	VKKV	BZZB	GWWG	JXXJ	MQQM	schön	spielen	retten	fair	ehrlich	treu	schlecht	strafen	rächen	faul	eitel	tot	1	acq_USpleas_CSpleas1_RW	acq4567_RW	4	5	400	0	300	300	479	50	0	1	1	blank2r.bmp	0	1	+	0	1	blank2r.bmp	492	1	YDDY	492	1	blank2r.bmp	572	3	retten	866	1	!	1239	1	!	-1	0	0	0	0	0	0	0	0	0	0	0	0	0	0	0	0	0	0	0	0	0	0	0	0	0	0	0	0	0	0
082719	13:07:36	13:11:07	210563	5.0.10.0	5_exp_RW	119	Rpleas_acq	CS_B	YDDY	VKKV	BZZB	GWWG	JXXJ	MQQM	schön	spielen	retten	fair	ehrlich	treu	schlecht	strafen	rächen	faul	eitel	tot	1	acq_USpleas_CSpleas1_RW	acq4567_RW	4	6	400	0	300	300	325	50	0	1	1	blank2r.bmp	0	1	+	0	1	blank2r.bmp	492	1	YDDY	492	1	blank2r.bmp	572	1	schön	866	1	!	-1	1	!	-1	0	0	0	0	0	0	0	0	0	0	0	0	0	0	0	0	0	0	0	0	0	0	0	0	0	0	0	0	0	0
082719	13:07:36	13:11:09	212723	5.0.10.0	5_exp_RW	119	Rpleas_acq	CS_B	YDDY	VKKV	BZZB	GWWG	JXXJ	MQQM	schön	spielen	retten	fair	ehrlich	treu	schlecht	strafen	rächen	faul	eitel	tot	1	acq_USunple_CSunple1_RW	acq4567_RW	4	7	400	1	300	300	346	50	0	0	1	blank2r.bmp	0	1	+	0	1	blank2r.bmp	492	1	BZZB	492	1	blank2r.bmp	572	2	strafen	866	1	!	1239	1	!	1252	0	0	0	0	0	0	0	0	0	0	0	0	0	0	0	0	0	0	0	0	0	0	0	0	0	0	0	0	0	0
082719	13:07:36	13:11:11	214962	5.0.10.0	5_exp_RW	119	Rpleas_acq	CS_B	YDDY	VKKV	BZZB	GWWG	JXXJ	MQQM	schön	spielen	retten	fair	ehrlich	treu	schlecht	strafen	rächen	faul	eitel	tot	1	acq_USunple_CSunple1_RW	acq4567_RW	4	8	400	1	300	300	444	46	0	1	1	blank2r.bmp	0	1	+	0	1	blank2r.bmp	492	1	BZZB	492	1	blank2r.bmp	572	3	rächen	866	1	!	1239	1	!	1346	0	0	0	0	0	0	0	0	0	0	0	0	0	0	0	0	0	0	0	0	0	0	0	0	0	0	0	0	0	0
082719	13:07:36	13:11:14	217214	5.0.10.0	5_exp_RW	119	Rpleas_acq	CS_B	YDDY	VKKV	BZZB	GWWG	JXXJ	MQQM	schön	spielen	retten	fair	ehrlich	treu	schlecht	strafen	rächen	faul	eitel	tot	1	acq_USpleas_CSpleas2_RW	acq4567_RW	4	9	400	0	300	300	479	50	0	1	1	blank2r.bmp	0	1	+	0	1	blank2r.bmp	492	1	VKKV	492	1	blank2r.bmp	572	3	treu	866	1	!	1239	1	!	-1	0	0	0	0	0	0	0	0	0	0	0	0	0	0	0	0	0	0	0	0	0	0	0	0	0	0	0	0	0	0
082719	13:07:36	13:11:16	219466	5.0.10.0	5_exp_RW	119	Rpleas_acq	CS_B	YDDY	VKKV	BZZB	GWWG	JXXJ	MQQM	schön	spielen	retten	fair	ehrlich	treu	schlecht	strafen	rächen	faul	eitel	tot	1	acq_USpleas_CSpleas1_RW	acq4567_RW	4	10	400	1	300	300	426	46	0	0	1	blank2r.bmp	0	1	+	0	1	blank2r.bmp	492	1	YDDY	492	1	blank2r.bmp	572	3	retten	866	1	!	1239	1	!	1332	0	0	0	0	0	0	0	0	0	0	0	0	0	0	0	0	0	0	0	0	0	0	0	0	0	0	0	0	0	0
082719	13:07:36	13:11:18	221772	5.0.10.0	5_exp_RW	119	Rpleas_acq	CS_B	YDDY	VKKV	BZZB	GWWG	JXXJ	MQQM	schön	spielen	retten	fair	ehrlich	treu	schlecht	strafen	rächen	faul	eitel	tot	1	acq_USpleas_CSpleas1_RW	acq4567_RW	4	11	400	0	300	300	534	50	0	1	1	blank2r.bmp	0	1	+	0	1	blank2r.bmp	492	1	YDDY	492	1	blank2r.bmp	572	2	spielen	866	1	!	1239	1	!	-1	0	0	0	0	0	0	0	0	0	0	0	0	0	0	0	0	0	0	0	0	0	0	0	0	0	0	0	0	0	0
082719	13:07:36	13:11:20	224024	5.0.10.0	5_exp_RW	119	Rpleas_acq	CS_B	YDDY	VKKV	BZZB	GWWG	JXXJ	MQQM	schön	spielen	retten	fair	ehrlich	treu	schlecht	strafen	rächen	faul	eitel	tot	1	acq_USpleas_CSpleas2_RW	acq4567_RW	4	12	400	1	300	300	443	46	0	0	1	blank2r.bmp	0	1	+	0	1	blank2r.bmp	492	1	VKKV	492	1	blank2r.bmp	572	1	fair	866	1	!	1239	1	!	1346	0	0	0	0	0	0	0	0	0	0	0	0	0	0	0	0	0	0	0	0	0	0	0	0	0	0	0	0	0	0
082719	13:07:36	13:11:23	226277	5.0.10.0	5_exp_RW	119	Rpleas_acq	CS_B	YDDY	VKKV	BZZB	GWWG	JXXJ	MQQM	schön	spielen	retten	fair	ehrlich	treu	schlecht	strafen	rächen	faul	eitel	tot	1	acq_USunple_CSunple2_RW	acq4567_RW	4	13	400	0	300	300	479	46	0	1	1	blank2r.bmp	0	1	+	0	1	blank2r.bmp	492	1	GWWG	492	1	blank2r.bmp	572	3	tot	866	1	!	1239	1	!	-1	0	0	0	0	0	0	0	0	0	0	0	0	0	0	0	0	0	0	0	0	0	0	0	0	0	0	0	0	0	0
082719	13:07:36	13:11:25	228542	5.0.10.0	5_exp_RW	119	Rpleas_acq	CS_B	YDDY	VKKV	BZZB	GWWG	JXXJ	MQQM	schön	spielen	retten	fair	ehrlich	treu	schlecht	strafen	rächen	faul	eitel	tot	1	acq_USunple_CSunple2_RW	acq4567_RW	4	14	400	0	300	300	501	46	0	1	1	blank2r.bmp	0	1	+	0	1	blank2r.bmp	492	1	GWWG	492	1	blank2r.bmp	572	3	tot	866	1	!	1239	1	!	-1	0	0	0	0	0	0	0	0	0	0	0	0	0	0	0	0	0	0	0	0	0	0	0	0	0	0	0	0	0	0
082719	13:07:36	13:11:27	230755	5.0.10.0	5_exp_RW	119	Rpleas_acq	CS_B	YDDY	VKKV	BZZB	GWWG	JXXJ	MQQM	schön	spielen	retten	fair	ehrlich	treu	schlecht	strafen	rächen	faul	eitel	tot	1	acq_USunple_CSunple1_RW	acq4567_RW	4	15	400	1	300	300	399	46	0	1	1	blank2r.bmp	0	1	+	0	1	blank2r.bmp	492	1	BZZB	492	1	blank2r.bmp	572	2	strafen	866	1	!	1239	1	!	1306	0	0	0	0	0	0	0	0	0	0	0	0	0	0	0	0	0	0	0	0	0	0	0	0	0	0	0	0	0	0
082719	13:07:36	13:11:30	233247	5.0.10.0	5_exp_RW	119	Rpleas_acq	CS_B	YDDY	VKKV	BZZB	GWWG	JXXJ	MQQM	schön	spielen	retten	fair	ehrlich	treu	schlecht	strafen	rächen	faul	eitel	tot	1	acq_USunple_CSunple1_RW	acq4567_RW	4	16	400	0	300	300	721	50	0	0	1	blank2r.bmp	0	1	+	0	1	blank2r.bmp	492	1	BZZB	492	1	blank2r.bmp	572	1	schlecht	866	1	!	1239	1	!	-1	0	0	0	0	0	0	0	0	0	0	0	0	0	0	0	0	0	0	0	0	0	0	0	0	0	0	0	0	0	0
082719	13:07:36	13:11:32	235473	5.0.10.0	5_exp_RW	119	Rpleas_acq	CS_B	YDDY	VKKV	BZZB	GWWG	JXXJ	MQQM	schön	spielen	retten	fair	ehrlich	treu	schlecht	strafen	rächen	faul	eitel	tot	1	acq_USpleas_CSpleas2_RW	acq4567_RW	4	17	400	1	300	300	418	46	0	0	1	blank2r.bmp	0	1	+	0	1	blank2r.bmp	492	1	VKKV	492	1	blank2r.bmp	572	2	ehrlich	866	1	!	1239	1	!	1319	0	0	0	0	0	0	0	0	0	0	0	0	0	0	0	0	0	0	0	0	0	0	0	0	0	0	0	0	0	0
082719	13:07:36	13:11:34	237699	5.0.10.0	5_exp_RW	119	Rpleas_acq	CS_B	YDDY	VKKV	BZZB	GWWG	JXXJ	MQQM	schön	spielen	retten	fair	ehrlich	treu	schlecht	strafen	rächen	faul	eitel	tot	1	acq_USpleas_CSpleas2_RW	acq4567_RW	4	18	400	1	300	300	436	46	0	0	1	blank2r.bmp	0	1	+	0	1	blank2r.bmp	492	1	VKKV	492	1	blank2r.bmp	572	3	treu	866	1	!	1239	1	!	1332	0	0	0	0	0	0	0	0	0	0	0	0	0	0	0	0	0	0	0	0	0	0	0	0	0	0	0	0	0	0
082719	13:07:36	13:11:37	240311	5.0.10.0	5_exp_RW	119	Rpleas_acq	CS_B	YDDY	VKKV	BZZB	GWWG	JXXJ	MQQM	schön	spielen	retten	fair	ehrlich	treu	schlecht	strafen	rächen	faul	eitel	tot	1	acq_USunple_CSunple2_RW	acq4567_RW	4	19	400	0	300	300	847	46	0	1	1	blank2r.bmp	0	1	+	0	1	blank2r.bmp	492	1	GWWG	492	1	blank2r.bmp	572	1	faul	866	1	!	1239	1	!	-1	0	0	0	0	0	0	0	0	0	0	0	0	0	0	0	0	0	0	0	0	0	0	0	0	0	0	0	0	0	0
082719	13:07:36	13:11:40	243563	5.0.10.0	5_exp_RW	119	Rpleas_acq	CS_B	YDDY	VKKV	BZZB	GWWG	JXXJ	MQQM	schön	spielen	retten	fair	ehrlich	treu	schlecht	strafen	rächen	faul	eitel	tot	1	acq_USunple_CSunple2_RW	acq4567_RW	4	20	400	0	300	300	1469	46	0	1	1	blank2r.bmp	0	1	+	0	1	blank2r.bmp	492	1	GWWG	492	1	blank2r.bmp	572	2	eitel	866	1	!	1239	1	!	-1	0	0	0	0	0	0	0	0	0	0	0	0	0	0	0	0	0	0	0	0	0	0	0	0	0	0	0	0	0	0
082719	13:07:36	13:11:42	245842	5.0.10.0	5_exp_RW	119	Rpleas_acq	CS_B	YDDY	VKKV	BZZB	GWWG	JXXJ	MQQM	schön	spielen	retten	fair	ehrlich	treu	schlecht	strafen	rächen	faul	eitel	tot	1	acq_USunple_CSunple1_RW	acq4567_RW	4	21	400	0	300	300	479	46	0	1	1	blank2r.bmp	0	1	+	0	1	blank2r.bmp	492	1	BZZB	492	1	blank2r.bmp	572	2	strafen	866	1	!	1239	1	!	-1	0	0	0	0	0	0	0	0	0	0	0	0	0	0	0	0	0	0	0	0	0	0	0	0	0	0	0	0	0	0
082719	13:07:36	13:11:45	248214	5.0.10.0	5_exp_RW	119	Rpleas_acq	CS_B	YDDY	VKKV	BZZB	GWWG	JXXJ	MQQM	schön	spielen	retten	fair	ehrlich	treu	schlecht	strafen	rächen	faul	eitel	tot	1	acq_USpleas_CSpleas1_RW	acq4567_RW	4	22	400	0	300	300	591	50	0	1	1	blank2r.bmp	0	1	+	0	1	blank2r.bmp	492	1	YDDY	492	1	blank2r.bmp	572	1	schön	866	1	!	1239	1	!	-1	0	0	0	0	0	0	0	0	0	0	0	0	0	0	0	0	0	0	0	0	0	0	0	0	0	0	0	0	0	0
082719	13:07:36	13:11:47	250493	5.0.10.0	5_exp_RW	119	Rpleas_acq	CS_B	YDDY	VKKV	BZZB	GWWG	JXXJ	MQQM	schön	spielen	retten	fair	ehrlich	treu	schlecht	strafen	rächen	faul	eitel	tot	1	acq_USpleas_CSpleas2_RW	acq4567_RW	4	23	400	1	300	300	466	50	0	1	1	blank2r.bmp	0	1	+	0	1	blank2r.bmp	492	1	VKKV	492	1	blank2r.bmp	572	3	treu	866	1	!	1239	1	!	1372	0	0	0	0	0	0	0	0	0	0	0	0	0	0	0	0	0	0	0	0	0	0	0	0	0	0	0	0	0	0
082719	13:07:36	13:11:49	252652	5.0.10.0	5_exp_RW	119	Rpleas_acq	CS_B	YDDY	VKKV	BZZB	GWWG	JXXJ	MQQM	schön	spielen	retten	fair	ehrlich	treu	schlecht	strafen	rächen	faul	eitel	tot	1	acq_USpleas_CSpleas1_RW	acq4567_RW	4	24	400	1	300	300	366	50	0	1	1	blank2r.bmp	0	1	+	0	1	blank2r.bmp	492	1	YDDY	492	1	blank2r.bmp	572	2	spielen	866	1	!	1239	1	!	1266	0	0	0	0	0	0	0	0	0	0	0	0	0	0	0	0	0	0	0	0	0	0	0	0	0	0	0	0	0	0
082719	13:07:36	13:11:51	254891	5.0.10.0	5_exp_RW	119	Rpleas_acq	CS_B	YDDY	VKKV	BZZB	GWWG	JXXJ	MQQM	schön	spielen	retten	fair	ehrlich	treu	schlecht	strafen	rächen	faul	eitel	tot	1	acq_USpleas_CSpleas2_RW	acq4567_RW	4	25	400	1	300	300	442	50	0	1	1	blank2r.bmp	0	1	+	0	1	blank2r.bmp	492	1	VKKV	492	1	blank2r.bmp	572	2	ehrlich	866	1	!	1239	1	!	1346	0	0	0	0	0	0	0	0	0	0	0	0	0	0	0	0	0	0	0	0	0	0	0	0	0	0	0	0	0	0
082719	13:07:36	13:11:53	257157	5.0.10.0	5_exp_RW	119	Rpleas_acq	CS_B	YDDY	VKKV	BZZB	GWWG	JXXJ	MQQM	schön	spielen	retten	fair	ehrlich	treu	schlecht	strafen	rächen	faul	eitel	tot	1	acq_USpleas_CSpleas2_RW	acq4567_RW	4	26	400	0	300	300	501	50	0	1	1	blank2r.bmp	0	1	+	0	1	blank2r.bmp	492	1	VKKV	492	1	blank2r.bmp	572	1	fair	866	1	!	1239	1	!	-1	0	0	0	0	0	0	0	0	0	0	0	0	0	0	0	0	0	0	0	0	0	0	0	0	0	0	0	0	0	0
082719	13:07:36	13:11:56	259423	5.0.10.0	5_exp_RW	119	Rpleas_acq	CS_B	YDDY	VKKV	BZZB	GWWG	JXXJ	MQQM	schön	spielen	retten	fair	ehrlich	treu	schlecht	strafen	rächen	faul	eitel	tot	1	acq_USunple_CSunple2_RW	acq4567_RW	4	27	400	1	300	300	457	46	0	1	1	blank2r.bmp	0	1	+	0	1	blank2r.bmp	492	1	GWWG	492	1	blank2r.bmp	572	3	tot	866	1	!	1239	1	!	1359	0	0	0	0	0	0	0	0	0	0	0	0	0	0	0	0	0	0	0	0	0	0	0	0	0	0	0	0	0	0
082719	13:07:36	13:11:58	261608	5.0.10.0	5_exp_RW	119	Rpleas_acq	CS_B	YDDY	VKKV	BZZB	GWWG	JXXJ	MQQM	schön	spielen	retten	fair	ehrlich	treu	schlecht	strafen	rächen	faul	eitel	tot	1	acq_USpleas_CSpleas2_RW	acq4567_RW	4	28	400	1	300	300	393	50	0	1	1	blank2r.bmp	0	1	+	0	1	blank2r.bmp	492	1	VKKV	492	1	blank2r.bmp	572	2	ehrlich	866	1	!	1239	1	!	1292	0	0	0	0	0	0	0	0	0	0	0	0	0	0	0	0	0	0	0	0	0	0	0	0	0	0	0	0	0	0
082719	13:07:36	13:12:00	263901	5.0.10.0	5_exp_RW	119	Rpleas_acq	CS_B	YDDY	VKKV	BZZB	GWWG	JXXJ	MQQM	schön	spielen	retten	fair	ehrlich	treu	schlecht	strafen	rächen	faul	eitel	tot	1	acq_USunple_CSunple2_RW	acq4567_RW	4	29	400	0	300	300	515	50	0	0	1	blank2r.bmp	0	1	+	0	1	blank2r.bmp	492	1	GWWG	492	1	blank2r.bmp	572	2	eitel	866	1	!	1239	1	!	-1	0	0	0	0	0	0	0	0	0	0	0	0	0	0	0	0	0	0	0	0	0	0	0	0	0	0	0	0	0	0
082719	13:07:36	13:12:03	266313	5.0.10.0	5_exp_RW	119	Rpleas_acq	CS_B	YDDY	VKKV	BZZB	GWWG	JXXJ	MQQM	schön	spielen	retten	fair	ehrlich	treu	schlecht	strafen	rächen	faul	eitel	tot	1	acq_USunple_CSunple1_RW	acq4567_RW	4	30	400	0	300	300	625	46	0	1	1	blank2r.bmp	0	1	+	0	1	blank2r.bmp	492	1	BZZB	492	1	blank2r.bmp	572	3	rächen	866	1	!	1239	1	!	-1	0	0	0	0	0	0	0	0	0	0	0	0	0	0	0	0	0	0	0	0	0	0	0	0	0	0	0	0	0	0
082719	13:07:36	13:12:05	268539	5.0.10.0	5_exp_RW	119	Rpleas_acq	CS_B	YDDY	VKKV	BZZB	GWWG	JXXJ	MQQM	schön	spielen	retten	fair	ehrlich	treu	schlecht	strafen	rächen	faul	eitel	tot	1	acq_USpleas_CSpleas1_RW	acq4567_RW	4	31	400	1	300	300	415	50	0	1	1	blank2r.bmp	0	1	+	0	1	blank2r.bmp	492	1	YDDY	492	1	blank2r.bmp	572	3	retten	866	1	!	1239	1	!	1319	0	0	0	0	0	0	0	0	0	0	0	0	0	0	0	0	0	0	0	0	0	0	0	0	0	0	0	0	0	0
082719	13:07:36	13:12:07	270791	5.0.10.0	5_exp_RW	119	Rpleas_acq	CS_B	YDDY	VKKV	BZZB	GWWG	JXXJ	MQQM	schön	spielen	retten	fair	ehrlich	treu	schlecht	strafen	rächen	faul	eitel	tot	1	acq_USunple_CSunple2_RW	acq4567_RW	4	32	400	0	300	300	479	46	0	1	1	blank2r.bmp	0	1	+	0	1	blank2r.bmp	492	1	GWWG	492	1	blank2r.bmp	572	1	faul	866	1	!	1239	1	!	-1	0	0	0	0	0	0	0	0	0	0	0	0	0	0	0	0	0	0	0	0	0	0	0	0	0	0	0	0	0	0
082719	13:07:36	13:12:09	273057	5.0.10.0	5_exp_RW	119	Rpleas_acq	CS_B	YDDY	VKKV	BZZB	GWWG	JXXJ	MQQM	schön	spielen	retten	fair	ehrlich	treu	schlecht	strafen	rächen	faul	eitel	tot	1	acq_USunple_CSunple1_RW	acq4567_RW	4	33	400	1	300	300	457	46	0	1	1	blank2r.bmp	0	1	+	0	1	blank2r.bmp	492	1	BZZB	492	1	blank2r.bmp	572	1	schlecht	866	1	!	1239	1	!	1359	0	0	0	0	0	0	0	0	0	0	0	0	0	0	0	0	0	0	0	0	0	0	0	0	0	0	0	0	0	0
082719	13:07:36	13:12:12	275283	5.0.10.0	5_exp_RW	119	Rpleas_acq	CS_B	YDDY	VKKV	BZZB	GWWG	JXXJ	MQQM	schön	spielen	retten	fair	ehrlich	treu	schlecht	strafen	rächen	faul	eitel	tot	1	acq_USunple_CSunple1_RW	acq4567_RW	4	34	400	1	300	300	430	46	0	1	1	blank2r.bmp	0	1	+	0	1	blank2r.bmp	492	1	BZZB	492	1	blank2r.bmp	572	3	rächen	866	1	!	1239	1	!	1332	0	0	0	0	0	0	0	0	0	0	0	0	0	0	0	0	0	0	0	0	0	0	0	0	0	0	0	0	0	0
082719	13:07:36	13:12:14	277695	5.0.10.0	5_exp_RW	119	Rpleas_acq	CS_B	YDDY	VKKV	BZZB	GWWG	JXXJ	MQQM	schön	spielen	retten	fair	ehrlich	treu	schlecht	strafen	rächen	faul	eitel	tot	1	acq_USunple_CSunple2_RW	acq4567_RW	4	35	400	0	300	300	645	50	0	0	1	blank2r.bmp	0	1	+	0	1	blank2r.bmp	492	1	GWWG	492	1	blank2r.bmp	572	2	eitel	866	1	!	1239	1	!	-1	0	0	0	0	0	0	0	0	0	0	0	0	0	0	0	0	0	0	0	0	0	0	0	0	0	0	0	0	0	0
082719	13:07:36	13:12:16	280067	5.0.10.0	5_exp_RW	119	Rpleas_acq	CS_B	YDDY	VKKV	BZZB	GWWG	JXXJ	MQQM	schön	spielen	retten	fair	ehrlich	treu	schlecht	strafen	rächen	faul	eitel	tot	1	acq_USpleas_CSpleas1_RW	acq4567_RW	4	36	400	0	300	300	578	50	0	1	1	blank2r.bmp	0	1	+	0	1	blank2r.bmp	492	1	YDDY	492	1	blank2r.bmp	572	2	spielen	866	1	!	1239	1	!	-1	0	0	0	0	0	0	0	0	0	0	0	0	0	0	0	0	0	0	0	0	0	0	0	0	0	0	0	0	0	0
082719	13:07:36	13:12:19	282360	5.0.10.0	5_exp_RW	119	Rpleas_acq	CS_B	YDDY	VKKV	BZZB	GWWG	JXXJ	MQQM	schön	spielen	retten	fair	ehrlich	treu	schlecht	strafen	rächen	faul	eitel	tot	1	acq_USunple_CSunple2_RW	acq4567_RW	4	37	400	0	300	300	496	46	0	1	1	blank2r.bmp	0	1	+	0	1	blank2r.bmp	492	1	GWWG	492	1	blank2r.bmp	572	3	tot	866	1	!	1239	1	!	-1	0	0	0	0	0	0	0	0	0	0	0	0	0	0	0	0	0	0	0	0	0	0	0	0	0	0	0	0	0	0
082719	13:07:36	13:12:21	284652	5.0.10.0	5_exp_RW	119	Rpleas_acq	CS_B	YDDY	VKKV	BZZB	GWWG	JXXJ	MQQM	schön	spielen	retten	fair	ehrlich	treu	schlecht	strafen	rächen	faul	eitel	tot	1	acq_USunple_CSunple1_RW	acq4567_RW	4	38	400	0	300	300	494	46	0	1	1	blank2r.bmp	0	1	+	0	1	blank2r.bmp	492	1	BZZB	492	1	blank2r.bmp	572	2	strafen	866	1	!	1239	1	!	-1	0	0	0	0	0	0	0	0	0	0	0	0	0	0	0	0	0	0	0	0	0	0	0	0	0	0	0	0	0	0
082719	13:07:36	13:12:23	287104	5.0.10.0	5_exp_RW	119	Rpleas_acq	CS_B	YDDY	VKKV	BZZB	GWWG	JXXJ	MQQM	schön	spielen	retten	fair	ehrlich	treu	schlecht	strafen	rächen	faul	eitel	tot	1	acq_USpleas_CSpleas1_RW	acq4567_RW	4	39	400	0	300	300	653	50	0	1	1	blank2r.bmp	0	1	+	0	1	blank2r.bmp	492	1	YDDY	492	1	blank2r.bmp	572	3	retten	866	1	!	1239	1	!	-1	0	0	0	0	0	0	0	0	0	0	0	0	0	0	0	0	0	0	0	0	0	0	0	0	0	0	0	0	0	0
082719	13:07:36	13:12:26	289357	5.0.10.0	5_exp_RW	119	Rpleas_acq	CS_B	YDDY	VKKV	BZZB	GWWG	JXXJ	MQQM	schön	spielen	retten	fair	ehrlich	treu	schlecht	strafen	rächen	faul	eitel	tot	1	acq_USpleas_CSpleas2_RW	acq4567_RW	4	40	400	1	300	300	439	50	0	1	1	blank2r.bmp	0	1	+	0	1	blank2r.bmp	492	1	VKKV	492	1	blank2r.bmp	572	3	treu	866	1	!	1239	1	!	1346	0	0	0	0	0	0	0	0	0	0	0	0	0	0	0	0	0	0	0	0	0	0	0	0	0	0	0	0	0	0
082719	13:07:36	13:12:28	291556	5.0.10.0	5_exp_RW	119	Rpleas_acq	CS_B	YDDY	VKKV	BZZB	GWWG	JXXJ	MQQM	schön	spielen	retten	fair	ehrlich	treu	schlecht	strafen	rächen	faul	eitel	tot	1	acq_USpleas_CSpleas2_RW	acq4567_RW	4	41	400	1	300	300	409	50	0	1	1	blank2r.bmp	0	1	+	0	1	blank2r.bmp	492	1	VKKV	492	1	blank2r.bmp	572	1	fair	866	1	!	1239	1	!	1306	0	0	0	0	0	0	0	0	0	0	0	0	0	0	0	0	0	0	0	0	0	0	0	0	0	0	0	0	0	0
082719	13:07:36	13:12:30	293808	5.0.10.0	5_exp_RW	119	Rpleas_acq	CS_B	YDDY	VKKV	BZZB	GWWG	JXXJ	MQQM	schön	spielen	retten	fair	ehrlich	treu	schlecht	strafen	rächen	faul	eitel	tot	1	acq_USunple_CSunple2_RW	acq4567_RW	4	42	400	0	300	300	479	46	0	1	1	blank2r.bmp	0	1	+	0	1	blank2r.bmp	492	1	GWWG	492	1	blank2r.bmp	572	1	faul	866	1	!	1239	1	!	-1	0	0	0	0	0	0	0	0	0	0	0	0	0	0	0	0	0	0	0	0	0	0	0	0	0	0	0	0	0	0
082719	13:07:36	13:12:33	296247	5.0.10.0	5_exp_RW	119	Rpleas_acq	CS_B	YDDY	VKKV	BZZB	GWWG	JXXJ	MQQM	schön	spielen	retten	fair	ehrlich	treu	schlecht	strafen	rächen	faul	eitel	tot	1	acq_USunple_CSunple2_RW	acq4567_RW	4	43	400	0	300	300	655	50	0	0	1	blank2r.bmp	0	1	+	0	1	blank2r.bmp	492	1	GWWG	492	1	blank2r.bmp	572	2	eitel	866	1	!	1239	1	!	-1	0	0	0	0	0	0	0	0	0	0	0	0	0	0	0	0	0	0	0	0	0	0	0	0	0	0	0	0	0	0
082719	13:07:36	13:12:35	298673	5.0.10.0	5_exp_RW	119	Rpleas_acq	CS_B	YDDY	VKKV	BZZB	GWWG	JXXJ	MQQM	schön	spielen	retten	fair	ehrlich	treu	schlecht	strafen	rächen	faul	eitel	tot	1	acq_USunple_CSunple2_RW	acq4567_RW	4	44	400	0	300	300	641	46	0	1	1	blank2r.bmp	0	1	+	0	1	blank2r.bmp	492	1	GWWG	492	1	blank2r.bmp	572	1	faul	866	1	!	1239	1	!	-1	0	0	0	0	0	0	0	0	0	0	0	0	0	0	0	0	0	0	0	0	0	0	0	0	0	0	0	0	0	0
082719	13:07:36	13:12:37	300859	5.0.10.0	5_exp_RW	119	Rpleas_acq	CS_B	YDDY	VKKV	BZZB	GWWG	JXXJ	MQQM	schön	spielen	retten	fair	ehrlich	treu	schlecht	strafen	rächen	faul	eitel	tot	1	acq_USpleas_CSpleas1_RW	acq4567_RW	4	45	400	1	300	300	380	50	0	1	1	blank2r.bmp	0	1	+	0	1	blank2r.bmp	492	1	YDDY	492	1	blank2r.bmp	572	1	schön	866	1	!	1239	1	!	1279	0	0	0	0	0	0	0	0	0	0	0	0	0	0	0	0	0	0	0	0	0	0	0	0	0	0	0	0	0	0
082719	13:07:36	13:12:40	303284	5.0.10.0	5_exp_RW	119	Rpleas_acq	CS_B	YDDY	VKKV	BZZB	GWWG	JXXJ	MQQM	schön	spielen	retten	fair	ehrlich	treu	schlecht	strafen	rächen	faul	eitel	tot	1	acq_USpleas_CSpleas2_RW	acq4567_RW	4	46	400	0	300	300	643	50	0	1	1	blank2r.bmp	0	1	+	0	1	blank2r.bmp	492	1	VKKV	492	1	blank2r.bmp	572	1	fair	866	1	!	1239	1	!	-1	0	0	0	0	0	0	0	0	0	0	0	0	0	0	0	0	0	0	0	0	0	0	0	0	0	0	0	0	0	0
082719	13:07:36	13:12:42	305550	5.0.10.0	5_exp_RW	119	Rpleas_acq	CS_B	YDDY	VKKV	BZZB	GWWG	JXXJ	MQQM	schön	spielen	retten	fair	ehrlich	treu	schlecht	strafen	rächen	faul	eitel	tot	1	acq_USunple_CSunple1_RW	acq4567_RW	4	47	400	1	300	300	453	46	0	1	1	blank2r.bmp	0	1	+	0	1	blank2r.bmp	492	1	BZZB	492	1	blank2r.bmp	572	1	schlecht	866	1	!	1239	1	!	1359	0	0	0	0	0	0	0	0	0	0	0	0	0	0	0	0	0	0	0	0	0	0	0	0	0	0	0	0	0	0
082719	13:07:36	13:12:44	307762	5.0.10.0	5_exp_RW	119	Rpleas_acq	CS_B	YDDY	VKKV	BZZB	GWWG	JXXJ	MQQM	schön	spielen	retten	fair	ehrlich	treu	schlecht	strafen	rächen	faul	eitel	tot	1	acq_USpleas_CSpleas2_RW	acq4567_RW	4	48	400	1	300	300	424	50	0	1	1	blank2r.bmp	0	1	+	0	1	blank2r.bmp	492	1	VKKV	492	1	blank2r.bmp	572	3	treu	866	1	!	1239	1	!	1319	0	0	0	0	0	0	0	0	0	0	0	0	0	0	0	0	0	0	0	0	0	0	0	0	0	0	0	0	0	0
082719	13:07:36	13:12:46	309975	5.0.10.0	5_exp_RW	119	Rpleas_acq	CS_B	YDDY	VKKV	BZZB	GWWG	JXXJ	MQQM	schön	spielen	retten	fair	ehrlich	treu	schlecht	strafen	rächen	faul	eitel	tot	1	acq_USunple_CSunple2_RW	acq4567_RW	4	49	400	1	300	300	421	46	0	1	1	blank2r.bmp	0	1	+	0	1	blank2r.bmp	492	1	GWWG	492	1	blank2r.bmp	572	3	tot	866	1	!	1239	1	!	1319	0	0	0	0	0	0	0	0	0	0	0	0	0	0	0	0	0	0	0	0	0	0	0	0	0	0	0	0	0	0
082719	13:07:36	13:12:48	312067	5.0.10.0	5_exp_RW	119	Rpleas_acq	CS_B	YDDY	VKKV	BZZB	GWWG	JXXJ	MQQM	schön	spielen	retten	fair	ehrlich	treu	schlecht	strafen	rächen	faul	eitel	tot	1	acq_USpleas_CSpleas1_RW	acq4567_RW	4	50	400	0	300	300	327	50	0	1	1	blank2r.bmp	0	1	+	0	1	blank2r.bmp	492	1	YDDY	492	1	blank2r.bmp	572	2	spielen	866	1	!	-1	1	!	-1	0	0	0	0	0	0	0	0	0	0	0	0	0	0	0	0	0	0	0	0	0	0	0	0	0	0	0	0	0	0
082719	13:07:36	13:12:51	314333	5.0.10.0	5_exp_RW	119	Rpleas_acq	CS_B	YDDY	VKKV	BZZB	GWWG	JXXJ	MQQM	schön	spielen	retten	fair	ehrlich	treu	schlecht	strafen	rächen	faul	eitel	tot	1	acq_USunple_CSunple1_RW	acq4567_RW	4	51	400	1	300	300	457	46	0	1	1	blank2r.bmp	0	1	+	0	1	blank2r.bmp	492	1	BZZB	492	1	blank2r.bmp	572	1	schlecht	866	1	!	1239	1	!	1359	0	0	0	0	0	0	0	0	0	0	0	0	0	0	0	0	0	0	0	0	0	0	0	0	0	0	0	0	0	0
082719	13:07:36	13:12:53	316585	5.0.10.0	5_exp_RW	119	Rpleas_acq	CS_B	YDDY	VKKV	BZZB	GWWG	JXXJ	MQQM	schön	spielen	retten	fair	ehrlich	treu	schlecht	strafen	rächen	faul	eitel	tot	1	acq_USunple_CSunple1_RW	acq4567_RW	4	52	400	0	300	300	479	50	0	0	1	blank2r.bmp	0	1	+	0	1	blank2r.bmp	492	1	BZZB	492	1	blank2r.bmp	572	2	strafen	866	1	!	1239	1	!	-1	0	0	0	0	0	0	0	0	0	0	0	0	0	0	0	0	0	0	0	0	0	0	0	0	0	0	0	0	0	0
082719	13:07:36	13:12:55	319024	5.0.10.0	5_exp_RW	119	Rpleas_acq	CS_B	YDDY	VKKV	BZZB	GWWG	JXXJ	MQQM	schön	spielen	retten	fair	ehrlich	treu	schlecht	strafen	rächen	faul	eitel	tot	1	acq_USpleas_CSpleas1_RW	acq4567_RW	4	53	400	0	300	300	645	50	0	1	1	blank2r.bmp	0	1	+	0	1	blank2r.bmp	492	1	YDDY	492	1	blank2r.bmp	572	3	retten	866	1	!	1239	1	!	-1	0	0	0	0	0	0	0	0	0	0	0	0	0	0	0	0	0	0	0	0	0	0	0	0	0	0	0	0	0	0
082719	13:07:36	13:12:58	321303	5.0.10.0	5_exp_RW	119	Rpleas_acq	CS_B	YDDY	VKKV	BZZB	GWWG	JXXJ	MQQM	schön	spielen	retten	fair	ehrlich	treu	schlecht	strafen	rächen	faul	eitel	tot	1	acq_USpleas_CSpleas2_RW	acq4567_RW	4	54	400	0	300	300	503	50	0	1	1	blank2r.bmp	0	1	+	0	1	blank2r.bmp	492	1	VKKV	492	1	blank2r.bmp	572	2	ehrlich	866	1	!	1239	1	!	-1	0	0	0	0	0	0	0	0	0	0	0	0	0	0	0	0	0	0	0	0	0	0	0	0	0	0	0	0	0	0
082719	13:07:36	13:13:00	323609	5.0.10.0	5_exp_RW	119	Rpleas_acq	CS_B	YDDY	VKKV	BZZB	GWWG	JXXJ	MQQM	schön	spielen	retten	fair	ehrlich	treu	schlecht	strafen	rächen	faul	eitel	tot	1	acq_USunple_CSunple1_RW	acq4567_RW	4	55	400	0	300	300	528	46	0	1	1	blank2r.bmp	0	1	+	0	1	blank2r.bmp	492	1	BZZB	492	1	blank2r.bmp	572	3	rächen	866	1	!	1239	1	!	-1	0	0	0	0	0	0	0	0	0	0	0	0	0	0	0	0	0	0	0	0	0	0	0	0	0	0	0	0	0	0
082719	13:07:36	13:13:02	325888	5.0.10.0	5_exp_RW	119	Rpleas_acq	CS_B	YDDY	VKKV	BZZB	GWWG	JXXJ	MQQM	schön	spielen	retten	fair	ehrlich	treu	schlecht	strafen	rächen	faul	eitel	tot	1	acq_USunple_CSunple1_RW	acq4567_RW	4	56	400	0	300	300	503	46	0	1	1	blank2r.bmp	0	1	+	0	1	blank2r.bmp	492	1	BZZB	492	1	blank2r.bmp	572	3	rächen	866	1	!	1239	1	!	-1	0	0	0	0	0	0	0	0	0	0	0	0	0	0	0	0	0	0	0	0	0	0	0	0	0	0	0	0	0	0
082719	13:07:36	13:13:04	328074	5.0.10.0	5_exp_RW	119	Rpleas_acq	CS_B	YDDY	VKKV	BZZB	GWWG	JXXJ	MQQM	schön	spielen	retten	fair	ehrlich	treu	schlecht	strafen	rächen	faul	eitel	tot	1	acq_USpleas_CSpleas1_RW	acq4567_RW	4	57	400	1	300	300	382	50	0	1	1	blank2r.bmp	0	1	+	0	1	blank2r.bmp	492	1	YDDY	492	1	blank2r.bmp	572	1	schön	866	1	!	1239	1	!	1279	0	0	0	0	0	0	0	0	0	0	0	0	0	0	0	0	0	0	0	0	0	0	0	0	0	0	0	0	0	0
082719	13:07:36	13:13:07	330366	5.0.10.0	5_exp_RW	119	Rpleas_acq	CS_B	YDDY	VKKV	BZZB	GWWG	JXXJ	MQQM	schön	spielen	retten	fair	ehrlich	treu	schlecht	strafen	rächen	faul	eitel	tot	1	acq_USpleas_CSpleas1_RW	acq4567_RW	4	58	400	0	300	300	520	50	0	1	1	blank2r.bmp	0	1	+	0	1	blank2r.bmp	492	1	YDDY	492	1	blank2r.bmp	572	3	retten	866	1	!	1239	1	!	-1	0	0	0	0	0	0	0	0	0	0	0	0	0	0	0	0	0	0	0	0	0	0	0	0	0	0	0	0	0	0
082719	13:07:36	13:13:09	332738	5.0.10.0	5_exp_RW	119	Rpleas_acq	CS_B	YDDY	VKKV	BZZB	GWWG	JXXJ	MQQM	schön	spielen	retten	fair	ehrlich	treu	schlecht	strafen	rächen	faul	eitel	tot	1	acq_USpleas_CSpleas2_RW	acq4567_RW	4	59	400	0	300	300	592	50	0	1	1	blank2r.bmp	0	1	+	0	1	blank2r.bmp	492	1	VKKV	492	1	blank2r.bmp	572	1	fair	866	1	!	1239	1	!	-1	0	0	0	0	0	0	0	0	0	0	0	0	0	0	0	0	0	0	0	0	0	0	0	0	0	0	0	0	0	0
082719	13:07:36	13:13:11	334911	5.0.10.0	5_exp_RW	119	Rpleas_acq	CS_B	YDDY	VKKV	BZZB	GWWG	JXXJ	MQQM	schön	spielen	retten	fair	ehrlich	treu	schlecht	strafen	rächen	faul	eitel	tot	1	acq_USunple_CSunple2_RW	acq4567_RW	4	60	400	1	300	300	362	46	0	1	1	blank2r.bmp	0	1	+	0	1	blank2r.bmp	492	1	GWWG	492	1	blank2r.bmp	572	1	faul	866	1	!	1239	1	!	1266	0	0	0	0	0	0	0	0	0	0	0	0	0	0	0	0	0	0	0	0	0	0	0	0	0	0	0	0	0	0
082719	13:07:36	13:13:13	337137	5.0.10.0	5_exp_RW	119	Rpleas_acq	CS_B	YDDY	VKKV	BZZB	GWWG	JXXJ	MQQM	schön	spielen	retten	fair	ehrlich	treu	schlecht	strafen	rächen	faul	eitel	tot	1	acq_USunple_CSunple2_RW	acq4567_RW	4	61	400	1	300	300	437	46	0	1	1	blank2r.bmp	0	1	+	0	1	blank2r.bmp	492	1	GWWG	492	1	blank2r.bmp	572	3	tot	866	1	!	1239	1	!	1332	0	0	0	0	0	0	0	0	0	0	0	0	0	0	0	0	0	0	0	0	0	0	0	0	0	0	0	0	0	0
082719	13:07:36	13:13:16	339389	5.0.10.0	5_exp_RW	119	Rpleas_acq	CS_B	YDDY	VKKV	BZZB	GWWG	JXXJ	MQQM	schön	spielen	retten	fair	ehrlich	treu	schlecht	strafen	rächen	faul	eitel	tot	1	acq_USpleas_CSpleas1_RW	acq4567_RW	4	62	400	0	300	300	479	50	0	1	1	blank2r.bmp	0	1	+	0	1	blank2r.bmp	492	1	YDDY	492	1	blank2r.bmp	572	2	spielen	866	1	!	1239	1	!	-1	0	0	0	0	0	0	0	0	0	0	0	0	0	0	0	0	0	0	0	0	0	0	0	0	0	0	0	0	0	0
082719	13:07:36	13:13:18	341828	5.0.10.0	5_exp_RW	119	Rpleas_acq	CS_B	YDDY	VKKV	BZZB	GWWG	JXXJ	MQQM	schön	spielen	retten	fair	ehrlich	treu	schlecht	strafen	rächen	faul	eitel	tot	1	acq_USunple_CSunple2_RW	acq4567_RW	4	63	400	0	300	300	657	46	0	1	1	blank2r.bmp	0	1	+	0	1	blank2r.bmp	492	1	GWWG	492	1	blank2r.bmp	572	2	eitel	866	1	!	1239	1	!	-1	0	0	0	0	0	0	0	0	0	0	0	0	0	0	0	0	0	0	0	0	0	0	0	0	0	0	0	0	0	0
082719	13:07:36	13:13:20	344094	5.0.10.0	5_exp_RW	119	Rpleas_acq	CS_B	YDDY	VKKV	BZZB	GWWG	JXXJ	MQQM	schön	spielen	retten	fair	ehrlich	treu	schlecht	strafen	rächen	faul	eitel	tot	1	acq_USunple_CSunple1_RW	acq4567_RW	4	64	400	1	300	300	458	46	0	1	1	blank2r.bmp	0	1	+	0	1	blank2r.bmp	492	1	BZZB	492	1	blank2r.bmp	572	2	strafen	866	1	!	1239	1	!	1359	0	0	0	0	0	0	0	0	0	0	0	0	0	0	0	0	0	0	0	0	0	0	0	0	0	0	0	0	0	0
082719	13:07:36	13:13:23	346426	5.0.10.0	5_exp_RW	119	Rpleas_acq	CS_B	YDDY	VKKV	BZZB	GWWG	JXXJ	MQQM	schön	spielen	retten	fair	ehrlich	treu	schlecht	strafen	rächen	faul	eitel	tot	1	acq_USpleas_CSpleas2_RW	acq4567_RW	4	65	400	0	300	300	566	50	0	1	1	blank2r.bmp	0	1	+	0	1	blank2r.bmp	492	1	VKKV	492	1	blank2r.bmp	572	2	ehrlich	866	1	!	1239	1	!	-1	0	0	0	0	0	0	0	0	0	0	0	0	0	0	0	0	0	0	0	0	0	0	0	0	0	0	0	0	0	0
082719	13:07:36	13:13:25	348678	5.0.10.0	5_exp_RW	119	Rpleas_acq	CS_B	YDDY	VKKV	BZZB	GWWG	JXXJ	MQQM	schön	spielen	retten	fair	ehrlich	treu	schlecht	strafen	rächen	faul	eitel	tot	1	acq_USunple_CSunple2_RW	acq4567_RW	4	66	400	1	300	300	442	50	0	0	1	blank2r.bmp	0	1	+	0	1	blank2r.bmp	492	1	GWWG	492	1	blank2r.bmp	572	2	eitel	866	1	!	1239	1	!	1346	0	0	0	0	0	0	0	0	0	0	0	0	0	0	0	0	0	0	0	0	0	0	0	0	0	0	0	0	0	0
082719	13:07:36	13:13:27	350997	5.0.10.0	5_exp_RW	119	Rpleas_acq	CS_B	YDDY	VKKV	BZZB	GWWG	JXXJ	MQQM	schön	spielen	retten	fair	ehrlich	treu	schlecht	strafen	rächen	faul	eitel	tot	1	acq_USunple_CSunple1_RW	acq4567_RW	4	67	400	0	300	300	556	46	0	1	1	blank2r.bmp	0	1	+	0	1	blank2r.bmp	492	1	BZZB	492	1	blank2r.bmp	572	1	schlecht	866	1	!	1239	1	!	-1	0	0	0	0	0	0	0	0	0	0	0	0	0	0	0	0	0	0	0	0	0	0	0	0	0	0	0	0	0	0
082719	13:07:36	13:13:30	353183	5.0.10.0	5_exp_RW	119	Rpleas_acq	CS_B	YDDY	VKKV	BZZB	GWWG	JXXJ	MQQM	schön	spielen	retten	fair	ehrlich	treu	schlecht	strafen	rächen	faul	eitel	tot	1	acq_USunple_CSunple1_RW	acq4567_RW	4	68	400	1	300	300	384	46	0	1	1	blank2r.bmp	0	1	+	0	1	blank2r.bmp	492	1	BZZB	492	1	blank2r.bmp	572	1	schlecht	866	1	!	1239	1	!	1279	0	0	0	0	0	0	0	0	0	0	0	0	0	0	0	0	0	0	0	0	0	0	0	0	0	0	0	0	0	0
082719	13:07:36	13:13:32	355435	5.0.10.0	5_exp_RW	119	Rpleas_acq	CS_B	YDDY	VKKV	BZZB	GWWG	JXXJ	MQQM	schön	spielen	retten	fair	ehrlich	treu	schlecht	strafen	rächen	faul	eitel	tot	1	acq_USunple_CSunple2_RW	acq4567_RW	4	69	400	0	300	300	486	46	0	1	1	blank2r.bmp	0	1	+	0	1	blank2r.bmp	492	1	GWWG	492	1	blank2r.bmp	572	1	faul	866	1	!	1239	1	!	-1	0	0	0	0	0	0	0	0	0	0	0	0	0	0	0	0	0	0	0	0	0	0	0	0	0	0	0	0	0	0
082719	13:07:36	13:13:34	357781	5.0.10.0	5_exp_RW	119	Rpleas_acq	CS_B	YDDY	VKKV	BZZB	GWWG	JXXJ	MQQM	schön	spielen	retten	fair	ehrlich	treu	schlecht	strafen	rächen	faul	eitel	tot	1	acq_USpleas_CSpleas2_RW	acq4567_RW	4	70	400	0	300	300	558	50	0	1	1	blank2r.bmp	0	1	+	0	1	blank2r.bmp	492	1	VKKV	492	1	blank2r.bmp	572	3	treu	866	1	!	1239	1	!	-1	0	0	0	0	0	0	0	0	0	0	0	0	0	0	0	0	0	0	0	0	0	0	0	0	0	0	0	0	0	0
082719	13:07:36	13:13:36	360087	5.0.10.0	5_exp_RW	119	Rpleas_acq	CS_B	YDDY	VKKV	BZZB	GWWG	JXXJ	MQQM	schön	spielen	retten	fair	ehrlich	treu	schlecht	strafen	rächen	faul	eitel	tot	1	acq_USunple_CSunple1_RW	acq4567_RW	4	71	400	0	300	300	529	46	0	1	1	blank2r.bmp	0	1	+	0	1	blank2r.bmp	492	1	BZZB	492	1	blank2r.bmp	572	3	rächen	866	1	!	1239	1	!	-1	0	0	0	0	0	0	0	0	0	0	0	0	0	0	0	0	0	0	0	0	0	0	0	0	0	0	0	0	0	0
082719	13:07:36	13:13:39	362486	5.0.10.0	5_exp_RW	119	Rpleas_acq	CS_B	YDDY	VKKV	BZZB	GWWG	JXXJ	MQQM	schön	spielen	retten	fair	ehrlich	treu	schlecht	strafen	rächen	faul	eitel	tot	1	acq_USpleas_CSpleas2_RW	acq4567_RW	4	72	400	0	300	300	615	50	0	1	1	blank2r.bmp	0	1	+	0	1	blank2r.bmp	492	1	VKKV	492	1	blank2r.bmp	572	1	fair	866	1	!	1239	1	!	-1	0	0	0	0	0	0	0	0	0	0	0	0	0	0	0	0	0	0	0	0	0	0	0	0	0	0	0	0	0	0
082719	13:07:36	13:13:41	364738	5.0.10.0	5_exp_RW	119	Rpleas_acq	CS_B	YDDY	VKKV	BZZB	GWWG	JXXJ	MQQM	schön	spielen	retten	fair	ehrlich	treu	schlecht	strafen	rächen	faul	eitel	tot	1	acq_USpleas_CSpleas2_RW	acq4567_RW	4	73	400	1	300	300	445	50	0	1	1	blank2r.bmp	0	1	+	0	1	blank2r.bmp	492	1	VKKV	492	1	blank2r.bmp	572	3	treu	866	1	!	1239	1	!	1346	0	0	0	0	0	0	0	0	0	0	0	0	0	0	0	0	0	0	0	0	0	0	0	0	0	0	0	0	0	0
082719	13:07:36	13:13:43	367004	5.0.10.0	5_exp_RW	119	Rpleas_acq	CS_B	YDDY	VKKV	BZZB	GWWG	JXXJ	MQQM	schön	spielen	retten	fair	ehrlich	treu	schlecht	strafen	rächen	faul	eitel	tot	1	acq_USunple_CSunple1_RW	acq4567_RW	4	74	400	0	300	300	496	46	0	1	1	blank2r.bmp	0	1	+	0	1	blank2r.bmp	492	1	BZZB	492	1	blank2r.bmp	572	2	strafen	866	1	!	1239	1	!	-1	0	0	0	0	0	0	0	0	0	0	0	0	0	0	0	0	0	0	0	0	0	0	0	0	0	0	0	0	0	0
082719	13:07:36	13:13:46	369323	5.0.10.0	5_exp_RW	119	Rpleas_acq	CS_B	YDDY	VKKV	BZZB	GWWG	JXXJ	MQQM	schön	spielen	retten	fair	ehrlich	treu	schlecht	strafen	rächen	faul	eitel	tot	1	acq_USpleas_CSpleas1_RW	acq4567_RW	4	75	400	0	300	300	520	50	0	1	1	blank2r.bmp	0	1	+	0	1	blank2r.bmp	492	1	YDDY	492	1	blank2r.bmp	572	1	schön	866	1	!	1239	1	!	-1	0	0	0	0	0	0	0	0	0	0	0	0	0	0	0	0	0	0	0	0	0	0	0	0	0	0	0	0	0	0
082719	13:07:36	13:13:48	371629	5.0.10.0	5_exp_RW	119	Rpleas_acq	CS_B	YDDY	VKKV	BZZB	GWWG	JXXJ	MQQM	schön	spielen	retten	fair	ehrlich	treu	schlecht	strafen	rächen	faul	eitel	tot	1	acq_USunple_CSunple2_RW	acq4567_RW	4	76	400	0	300	300	519	46	0	1	1	blank2r.bmp	0	1	+	0	1	blank2r.bmp	492	1	GWWG	492	1	blank2r.bmp	572	3	tot	866	1	!	1239	1	!	-1	0	0	0	0	0	0	0	0	0	0	0	0	0	0	0	0	0	0	0	0	0	0	0	0	0	0	0	0	0	0
082719	13:07:36	13:13:50	373881	5.0.10.0	5_exp_RW	119	Rpleas_acq	CS_B	YDDY	VKKV	BZZB	GWWG	JXXJ	MQQM	schön	spielen	retten	fair	ehrlich	treu	schlecht	strafen	rächen	faul	eitel	tot	1	acq_USpleas_CSpleas1_RW	acq4567_RW	4	77	400	1	300	300	447	50	0	1	1	blank2r.bmp	0	1	+	0	1	blank2r.bmp	492	1	YDDY	492	1	blank2r.bmp	572	2	spielen	866	1	!	1239	1	!	1346	0	0	0	0	0	0	0	0	0	0	0	0	0	0	0	0	0	0	0	0	0	0	0	0	0	0	0	0	0	0
082719	13:07:36	13:13:52	376093	5.0.10.0	5_exp_RW	119	Rpleas_acq	CS_B	YDDY	VKKV	BZZB	GWWG	JXXJ	MQQM	schön	spielen	retten	fair	ehrlich	treu	schlecht	strafen	rächen	faul	eitel	tot	1	acq_USpleas_CSpleas1_RW	acq4567_RW	4	78	400	1	300	300	411	50	0	1	1	blank2r.bmp	0	1	+	0	1	blank2r.bmp	492	1	YDDY	492	1	blank2r.bmp	572	1	schön	866	1	!	1239	1	!	1306	0	0	0	0	0	0	0	0	0	0	0	0	0	0	0	0	0	0	0	0	0	0	0	0	0	0	0	0	0	0
082719	13:07:36	13:13:55	378332	5.0.10.0	5_exp_RW	119	Rpleas_acq	CS_B	YDDY	VKKV	BZZB	GWWG	JXXJ	MQQM	schön	spielen	retten	fair	ehrlich	treu	schlecht	strafen	rächen	faul	eitel	tot	1	acq_USpleas_CSpleas2_RW	acq4567_RW	4	79	400	1	300	300	446	50	0	1	1	blank2r.bmp	0	1	+	0	1	blank2r.bmp	492	1	VKKV	492	1	blank2r.bmp	572	2	ehrlich	866	1	!	1239	1	!	1346	0	0	0	0	0	0	0	0	0	0	0	0	0	0	0	0	0	0	0	0	0	0	0	0	0	0	0	0	0	0
082719	13:07:36	13:13:57	380638	5.0.10.0	5_exp_RW	119	Rpleas_acq	CS_B	YDDY	VKKV	BZZB	GWWG	JXXJ	MQQM	schön	spielen	retten	fair	ehrlich	treu	schlecht	strafen	rächen	faul	eitel	tot	1	acq_USpleas_CSpleas1_RW	acq4567_RW	4	80	400	0	300	300	536	50	0	1	1	blank2r.bmp	0	1	+	0	1	blank2r.bmp	492	1	YDDY	492	1	blank2r.bmp	572	3	retten	866	1	!	1239	1	!	-1	0	0	0	0	0	0	0	0	0	0	0	0	0	0	0	0	0	0	0	0	0	0	0	0	0	0	0	0	0	0
082719	13:07:36	13:14:11	394232	5.0.10.0	5_exp_RW	119	Rpleas_acq	CS_B	YDDY	VKKV	BZZB	GWWG	JXXJ	MQQM	schön	spielen	retten	fair	ehrlich	treu	schlecht	strafen	rächen	faul	eitel	tot	1	acq_USunple_CSunple1_RW	acq4567_RW	5	1	400	0	300	300	782	46	0	1	1	blank2r.bmp	0	1	+	0	1	blank2r.bmp	492	1	BZZB	492	1	blank2r.bmp	572	3	rächen	866	1	!	1239	1	!	-1	0	0	0	0	0	0	0	0	0	0	0	0	0	0	0	0	0	0	0	0	0	0	0	0	0	0	0	0	0	0
082719	13:07:36	13:14:13	396458	5.0.10.0	5_exp_RW	119	Rpleas_acq	CS_B	YDDY	VKKV	BZZB	GWWG	JXXJ	MQQM	schön	spielen	retten	fair	ehrlich	treu	schlecht	strafen	rächen	faul	eitel	tot	1	acq_USpleas_CSpleas1_RW	acq4567_RW	5	2	400	1	300	300	419	50	0	1	1	blank2r.bmp	0	1	+	0	1	blank2r.bmp	492	1	YDDY	492	1	blank2r.bmp	572	1	schön	866	1	!	1239	1	!	1319	0	0	0	0	0	0	0	0	0	0	0	0	0	0	0	0	0	0	0	0	0	0	0	0	0	0	0	0	0	0
082719	13:07:36	13:14:15	398857	5.0.10.0	5_exp_RW	119	Rpleas_acq	CS_B	YDDY	VKKV	BZZB	GWWG	JXXJ	MQQM	schön	spielen	retten	fair	ehrlich	treu	schlecht	strafen	rächen	faul	eitel	tot	1	acq_USunple_CSunple1_RW	acq4567_RW	5	3	400	0	300	300	625	46	0	1	1	blank2r.bmp	0	1	+	0	1	blank2r.bmp	492	1	BZZB	492	1	blank2r.bmp	572	1	schlecht	866	1	!	1239	1	!	-1	0	0	0	0	0	0	0	0	0	0	0	0	0	0	0	0	0	0	0	0	0	0	0	0	0	0	0	0	0	0
082719	13:07:36	13:14:18	401336	5.0.10.0	5_exp_RW	119	Rpleas_acq	CS_B	YDDY	VKKV	BZZB	GWWG	JXXJ	MQQM	schön	spielen	retten	fair	ehrlich	treu	schlecht	strafen	rächen	faul	eitel	tot	1	acq_USpleas_CSpleas1_RW	acq4567_RW	5	4	400	0	300	300	701	50	0	1	1	blank2r.bmp	0	1	+	0	1	blank2r.bmp	492	1	YDDY	492	1	blank2r.bmp	572	3	retten	866	1	!	1239	1	!	-1	0	0	0	0	0	0	0	0	0	0	0	0	0	0	0	0	0	0	0	0	0	0	0	0	0	0	0	0	0	0
082719	13:07:36	13:14:20	403802	5.0.10.0	5_exp_RW	119	Rpleas_acq	CS_B	YDDY	VKKV	BZZB	GWWG	JXXJ	MQQM	schön	spielen	retten	fair	ehrlich	treu	schlecht	strafen	rächen	faul	eitel	tot	1	acq_USunple_CSunple2_RW	acq4567_RW	5	5	400	0	300	300	680	46	0	1	1	blank2r.bmp	0	1	+	0	1	blank2r.bmp	492	1	GWWG	492	1	blank2r.bmp	572	1	faul	866	1	!	1239	1	!	-1	0	0	0	0	0	0	0	0	0	0	0	0	0	0	0	0	0	0	0	0	0	0	0	0	0	0	0	0	0	0
082719	13:07:36	13:14:22	405961	5.0.10.0	5_exp_RW	119	Rpleas_acq	CS_B	YDDY	VKKV	BZZB	GWWG	JXXJ	MQQM	schön	spielen	retten	fair	ehrlich	treu	schlecht	strafen	rächen	faul	eitel	tot	1	acq_USpleas_CSpleas1_RW	acq4567_RW	5	6	400	1	300	300	346	50	0	1	1	blank2r.bmp	0	1	+	0	1	blank2r.bmp	492	1	YDDY	492	1	blank2r.bmp	572	2	spielen	866	1	!	1239	1	!	1252	0	0	0	0	0	0	0	0	0	0	0	0	0	0	0	0	0	0	0	0	0	0	0	0	0	0	0	0	0	0
082719	13:07:36	13:14:25	408333	5.0.10.0	5_exp_RW	119	Rpleas_acq	CS_B	YDDY	VKKV	BZZB	GWWG	JXXJ	MQQM	schön	spielen	retten	fair	ehrlich	treu	schlecht	strafen	rächen	faul	eitel	tot	1	acq_USpleas_CSpleas2_RW	acq4567_RW	5	7	400	0	300	300	598	50	0	1	1	blank2r.bmp	0	1	+	0	1	blank2r.bmp	492	1	VKKV	492	1	blank2r.bmp	572	2	ehrlich	866	1	!	1239	1	!	-1	0	0	0	0	0	0	0	0	0	0	0	0	0	0	0	0	0	0	0	0	0	0	0	0	0	0	0	0	0	0
082719	13:07:36	13:14:27	410545	5.0.10.0	5_exp_RW	119	Rpleas_acq	CS_B	YDDY	VKKV	BZZB	GWWG	JXXJ	MQQM	schön	spielen	retten	fair	ehrlich	treu	schlecht	strafen	rächen	faul	eitel	tot	1	acq_USunple_CSunple2_RW	acq4567_RW	5	8	400	1	300	300	402	46	0	1	1	blank2r.bmp	0	1	+	0	1	blank2r.bmp	492	1	GWWG	492	1	blank2r.bmp	572	3	tot	866	1	!	1239	1	!	1306	0	0	0	0	0	0	0	0	0	0	0	0	0	0	0	0	0	0	0	0	0	0	0	0	0	0	0	0	0	0
082719	13:07:36	13:14:29	412798	5.0.10.0	5_exp_RW	119	Rpleas_acq	CS_B	YDDY	VKKV	BZZB	GWWG	JXXJ	MQQM	schön	spielen	retten	fair	ehrlich	treu	schlecht	strafen	rächen	faul	eitel	tot	1	acq_USunple_CSunple2_RW	acq4567_RW	5	9	400	0	300	300	489	50	0	0	1	blank2r.bmp	0	1	+	0	1	blank2r.bmp	492	1	GWWG	492	1	blank2r.bmp	572	2	eitel	866	1	!	1239	1	!	-1	0	0	0	0	0	0	0	0	0	0	0	0	0	0	0	0	0	0	0	0	0	0	0	0	0	0	0	0	0	0
082719	13:07:36	13:14:32	415450	5.0.10.0	5_exp_RW	119	Rpleas_acq	CS_B	YDDY	VKKV	BZZB	GWWG	JXXJ	MQQM	schön	spielen	retten	fair	ehrlich	treu	schlecht	strafen	rächen	faul	eitel	tot	1	acq_USpleas_CSpleas2_RW	acq4567_RW	5	10	400	0	300	300	866	50	0	1	1	blank2r.bmp	0	1	+	0	1	blank2r.bmp	492	1	VKKV	492	1	blank2r.bmp	572	1	fair	866	1	!	1239	1	!	-1	0	0	0	0	0	0	0	0	0	0	0	0	0	0	0	0	0	0	0	0	0	0	0	0	0	0	0	0	0	0
082719	13:07:36	13:14:34	417622	5.0.10.0	5_exp_RW	119	Rpleas_acq	CS_B	YDDY	VKKV	BZZB	GWWG	JXXJ	MQQM	schön	spielen	retten	fair	ehrlich	treu	schlecht	strafen	rächen	faul	eitel	tot	1	acq_USunple_CSunple1_RW	acq4567_RW	5	11	400	1	300	300	363	46	0	1	1	blank2r.bmp	0	1	+	0	1	blank2r.bmp	492	1	BZZB	492	1	blank2r.bmp	572	2	strafen	866	1	!	1239	1	!	1266	0	0	0	0	0	0	0	0	0	0	0	0	0	0	0	0	0	0	0	0	0	0	0	0	0	0	0	0	0	0
082719	13:07:36	13:14:36	419822	5.0.10.0	5_exp_RW	119	Rpleas_acq	CS_B	YDDY	VKKV	BZZB	GWWG	JXXJ	MQQM	schön	spielen	retten	fair	ehrlich	treu	schlecht	strafen	rächen	faul	eitel	tot	1	acq_USpleas_CSpleas1_RW	acq4567_RW	5	12	400	1	300	300	389	50	0	1	1	blank2r.bmp	0	1	+	0	1	blank2r.bmp	492	1	YDDY	492	1	blank2r.bmp	572	1	schön	866	1	!	1239	1	!	1292	0	0	0	0	0	0	0	0	0	0	0	0	0	0	0	0	0	0	0	0	0	0	0	0	0	0	0	0	0	0
082719	13:07:36	13:14:38	421967	5.0.10.0	5_exp_RW	119	Rpleas_acq	CS_B	YDDY	VKKV	BZZB	GWWG	JXXJ	MQQM	schön	spielen	retten	fair	ehrlich	treu	schlecht	strafen	rächen	faul	eitel	tot	1	acq_USpleas_CSpleas1_RW	acq4567_RW	5	13	400	1	300	300	349	50	0	1	1	blank2r.bmp	0	1	+	0	1	blank2r.bmp	492	1	YDDY	492	1	blank2r.bmp	572	2	spielen	866	1	!	1239	1	!	1252	0	0	0	0	0	0	0	0	0	0	0	0	0	0	0	0	0	0	0	0	0	0	0	0	0	0	0	0	0	0
082719	13:07:36	13:14:41	424193	5.0.10.0	5_exp_RW	119	Rpleas_acq	CS_B	YDDY	VKKV	BZZB	GWWG	JXXJ	MQQM	schön	spielen	retten	fair	ehrlich	treu	schlecht	strafen	rächen	faul	eitel	tot	1	acq_USunple_CSunple1_RW	acq4567_RW	5	14	400	1	300	300	426	46	0	1	1	blank2r.bmp	0	1	+	0	1	blank2r.bmp	492	1	BZZB	492	1	blank2r.bmp	572	3	rächen	866	1	!	1239	1	!	1332	0	0	0	0	0	0	0	0	0	0	0	0	0	0	0	0	0	0	0	0	0	0	0	0	0	0	0	0	0	0
082719	13:07:36	13:14:43	426352	5.0.10.0	5_exp_RW	119	Rpleas_acq	CS_B	YDDY	VKKV	BZZB	GWWG	JXXJ	MQQM	schön	spielen	retten	fair	ehrlich	treu	schlecht	strafen	rächen	faul	eitel	tot	1	acq_USpleas_CSpleas2_RW	acq4567_RW	5	15	400	1	300	300	371	50	0	1	1	blank2r.bmp	0	1	+	0	1	blank2r.bmp	492	1	VKKV	492	1	blank2r.bmp	572	3	treu	866	1	!	1239	1	!	1266	0	0	0	0	0	0	0	0	0	0	0	0	0	0	0	0	0	0	0	0	0	0	0	0	0	0	0	0	0	0
082719	13:07:36	13:14:45	428604	5.0.10.0	5_exp_RW	119	Rpleas_acq	CS_B	YDDY	VKKV	BZZB	GWWG	JXXJ	MQQM	schön	spielen	retten	fair	ehrlich	treu	schlecht	strafen	rächen	faul	eitel	tot	1	acq_USunple_CSunple1_RW	acq4567_RW	5	16	400	0	300	300	479	46	0	1	1	blank2r.bmp	0	1	+	0	1	blank2r.bmp	492	1	BZZB	492	1	blank2r.bmp	572	1	schlecht	866	1	!	1239	1	!	-1	0	0	0	0	0	0	0	0	0	0	0	0	0	0	0	0	0	0	0	0	0	0	0	0	0	0	0	0	0	0
082719	13:07:36	13:14:47	430870	5.0.10.0	5_exp_RW	119	Rpleas_acq	CS_B	YDDY	VKKV	BZZB	GWWG	JXXJ	MQQM	schön	spielen	retten	fair	ehrlich	treu	schlecht	strafen	rächen	faul	eitel	tot	1	acq_USpleas_CSpleas2_RW	acq4567_RW	5	17	400	0	300	300	479	50	0	1	1	blank2r.bmp	0	1	+	0	1	blank2r.bmp	492	1	VKKV	492	1	blank2r.bmp	572	1	fair	866	1	!	1239	1	!	-1	0	0	0	0	0	0	0	0	0	0	0	0	0	0	0	0	0	0	0	0	0	0	0	0	0	0	0	0	0	0
082719	13:07:36	13:14:49	433136	5.0.10.0	5_exp_RW	119	Rpleas_acq	CS_B	YDDY	VKKV	BZZB	GWWG	JXXJ	MQQM	schön	spielen	retten	fair	ehrlich	treu	schlecht	strafen	rächen	faul	eitel	tot	1	acq_USunple_CSunple2_RW	acq4567_RW	5	18	400	1	300	300	439	46	0	1	1	blank2r.bmp	0	1	+	0	1	blank2r.bmp	492	1	GWWG	492	1	blank2r.bmp	572	1	faul	866	1	!	1239	1	!	1346	0	0	0	0	0	0	0	0	0	0	0	0	0	0	0	0	0	0	0	0	0	0	0	0	0	0	0	0	0	0
082719	13:07:36	13:14:52	435282	5.0.10.0	5_exp_RW	119	Rpleas_acq	CS_B	YDDY	VKKV	BZZB	GWWG	JXXJ	MQQM	schön	spielen	retten	fair	ehrlich	treu	schlecht	strafen	rächen	faul	eitel	tot	1	acq_USunple_CSunple2_RW	acq4567_RW	5	19	400	1	300	300	346	46	0	1	1	blank2r.bmp	0	1	+	0	1	blank2r.bmp	492	1	GWWG	492	1	blank2r.bmp	572	2	eitel	866	1	!	1239	1	!	1252	0	0	0	0	0	0	0	0	0	0	0	0	0	0	0	0	0	0	0	0	0	0	0	0	0	0	0	0	0	0
082719	13:07:36	13:14:54	437467	5.0.10.0	5_exp_RW	119	Rpleas_acq	CS_B	YDDY	VKKV	BZZB	GWWG	JXXJ	MQQM	schön	spielen	retten	fair	ehrlich	treu	schlecht	strafen	rächen	faul	eitel	tot	1	acq_USpleas_CSpleas2_RW	acq4567_RW	5	20	400	1	300	300	373	46	0	0	1	blank2r.bmp	0	1	+	0	1	blank2r.bmp	492	1	VKKV	492	1	blank2r.bmp	572	2	ehrlich	866	1	!	1239	1	!	1279	0	0	0	0	0	0	0	0	0	0	0	0	0	0	0	0	0	0	0	0	0	0	0	0	0	0	0	0	0	0
082719	13:07:36	13:14:57	440346	5.0.10.0	5_exp_RW	119	Rpleas_acq	CS_B	YDDY	VKKV	BZZB	GWWG	JXXJ	MQQM	schön	spielen	retten	fair	ehrlich	treu	schlecht	strafen	rächen	faul	eitel	tot	1	acq_USpleas_CSpleas1_RW	acq4567_RW	5	21	400	0	300	300	1098	50	0	1	1	blank2r.bmp	0	1	+	0	1	blank2r.bmp	492	1	YDDY	492	1	blank2r.bmp	572	3	retten	866	1	!	1239	1	!	-1	0	0	0	0	0	0	0	0	0	0	0	0	0	0	0	0	0	0	0	0	0	0	0	0	0	0	0	0	0	0
082719	13:07:36	13:14:59	442612	5.0.10.0	5_exp_RW	119	Rpleas_acq	CS_B	YDDY	VKKV	BZZB	GWWG	JXXJ	MQQM	schön	spielen	retten	fair	ehrlich	treu	schlecht	strafen	rächen	faul	eitel	tot	1	acq_USpleas_CSpleas2_RW	acq4567_RW	5	22	400	1	300	300	459	50	0	1	1	blank2r.bmp	0	1	+	0	1	blank2r.bmp	492	1	VKKV	492	1	blank2r.bmp	572	3	treu	866	1	!	1239	1	!	1359	0	0	0	0	0	0	0	0	0	0	0	0	0	0	0	0	0	0	0	0	0	0	0	0	0	0	0	0	0	0
082719	13:07:36	13:15:01	444611	5.0.10.0	5_exp_RW	119	Rpleas_acq	CS_B	YDDY	VKKV	BZZB	GWWG	JXXJ	MQQM	schön	spielen	retten	fair	ehrlich	treu	schlecht	strafen	rächen	faul	eitel	tot	1	acq_USpleas_CSpleas2_RW	acq4567_RW	5	23	400	0	300	300	229	50	0	1	1	blank2r.bmp	0	1	+	0	1	blank2r.bmp	492	1	VKKV	492	1	blank2r.bmp	572	2	ehrlich	866	1	!	-1	1	!	-1	0	0	0	0	0	0	0	0	0	0	0	0	0	0	0	0	0	0	0	0	0	0	0	0	0	0	0	0	0	0
082719	13:07:36	13:15:03	447063	5.0.10.0	5_exp_RW	119	Rpleas_acq	CS_B	YDDY	VKKV	BZZB	GWWG	JXXJ	MQQM	schön	spielen	retten	fair	ehrlich	treu	schlecht	strafen	rächen	faul	eitel	tot	1	acq_USunple_CSunple1_RW	acq4567_RW	5	24	400	0	300	300	665	46	0	1	1	blank2r.bmp	0	1	+	0	1	blank2r.bmp	492	1	BZZB	492	1	blank2r.bmp	572	2	strafen	866	1	!	1239	1	!	-1	0	0	0	0	0	0	0	0	0	0	0	0	0	0	0	0	0	0	0	0	0	0	0	0	0	0	0	0	0	0
082719	13:07:36	13:15:05	449129	5.0.10.0	5_exp_RW	119	Rpleas_acq	CS_B	YDDY	VKKV	BZZB	GWWG	JXXJ	MQQM	schön	spielen	retten	fair	ehrlich	treu	schlecht	strafen	rächen	faul	eitel	tot	1	acq_USpleas_CSpleas2_RW	acq4567_RW	5	25	400	0	300	300	270	50	0	1	1	blank2r.bmp	0	1	+	0	1	blank2r.bmp	492	1	VKKV	492	1	blank2r.bmp	572	3	treu	866	1	!	-1	1	!	-1	0	0	0	0	0	0	0	0	0	0	0	0	0	0	0	0	0	0	0	0	0	0	0	0	0	0	0	0	0	0
082719	13:07:36	13:15:08	451395	5.0.10.0	5_exp_RW	119	Rpleas_acq	CS_B	YDDY	VKKV	BZZB	GWWG	JXXJ	MQQM	schön	spielen	retten	fair	ehrlich	treu	schlecht	strafen	rächen	faul	eitel	tot	1	acq_USunple_CSunple1_RW	acq4567_RW	5	26	400	0	300	300	488	46	0	1	1	blank2r.bmp	0	1	+	0	1	blank2r.bmp	492	1	BZZB	492	1	blank2r.bmp	572	3	rächen	866	1	!	1239	1	!	-1	0	0	0	0	0	0	0	0	0	0	0	0	0	0	0	0	0	0	0	0	0	0	0	0	0	0	0	0	0	0
082719	13:07:36	13:15:10	453434	5.0.10.0	5_exp_RW	119	Rpleas_acq	CS_B	YDDY	VKKV	BZZB	GWWG	JXXJ	MQQM	schön	spielen	retten	fair	ehrlich	treu	schlecht	strafen	rächen	faul	eitel	tot	1	acq_USpleas_CSpleas2_RW	acq4567_RW	5	27	400	0	300	300	253	50	0	1	1	blank2r.bmp	0	1	+	0	1	blank2r.bmp	492	1	VKKV	492	1	blank2r.bmp	572	1	fair	866	1	!	-1	1	!	-1	0	0	0	0	0	0	0	0	0	0	0	0	0	0	0	0	0	0	0	0	0	0	0	0	0	0	0	0	0	0
082719	13:07:36	13:15:12	455660	5.0.10.0	5_exp_RW	119	Rpleas_acq	CS_B	YDDY	VKKV	BZZB	GWWG	JXXJ	MQQM	schön	spielen	retten	fair	ehrlich	treu	schlecht	strafen	rächen	faul	eitel	tot	1	acq_USunple_CSunple1_RW	acq4567_RW	5	28	400	1	300	300	425	46	0	1	1	blank2r.bmp	0	1	+	0	1	blank2r.bmp	492	1	BZZB	492	1	blank2r.bmp	572	2	strafen	866	1	!	1239	1	!	1319	0	0	0	0	0	0	0	0	0	0	0	0	0	0	0	0	0	0	0	0	0	0	0	0	0	0	0	0	0	0
082719	13:07:36	13:15:14	457925	5.0.10.0	5_exp_RW	119	Rpleas_acq	CS_B	YDDY	VKKV	BZZB	GWWG	JXXJ	MQQM	schön	spielen	retten	fair	ehrlich	treu	schlecht	strafen	rächen	faul	eitel	tot	1	acq_USunple_CSunple1_RW	acq4567_RW	5	29	400	0	300	300	504	46	0	1	1	blank2r.bmp	0	1	+	0	1	blank2r.bmp	492	1	BZZB	492	1	blank2r.bmp	572	1	schlecht	866	1	!	1239	1	!	-1	0	0	0	0	0	0	0	0	0	0	0	0	0	0	0	0	0	0	0	0	0	0	0	0	0	0	0	0	0	0
082719	13:07:36	13:15:16	460151	5.0.10.0	5_exp_RW	119	Rpleas_acq	CS_B	YDDY	VKKV	BZZB	GWWG	JXXJ	MQQM	schön	spielen	retten	fair	ehrlich	treu	schlecht	strafen	rächen	faul	eitel	tot	1	acq_USpleas_CSpleas1_RW	acq4567_RW	5	30	400	1	300	300	413	50	0	1	1	blank2r.bmp	0	1	+	0	1	blank2r.bmp	492	1	YDDY	492	1	blank2r.bmp	572	1	schön	866	1	!	1239	1	!	1319	0	0	0	0	0	0	0	0	0	0	0	0	0	0	0	0	0	0	0	0	0	0	0	0	0	0	0	0	0	0
082719	13:07:36	13:15:19	462923	5.0.10.0	5_exp_RW	119	Rpleas_acq	CS_B	YDDY	VKKV	BZZB	GWWG	JXXJ	MQQM	schön	spielen	retten	fair	ehrlich	treu	schlecht	strafen	rächen	faul	eitel	tot	1	acq_USpleas_CSpleas1_RW	acq4567_RW	5	31	400	0	300	300	1008	50	0	1	1	blank2r.bmp	0	1	+	0	1	blank2r.bmp	492	1	YDDY	492	1	blank2r.bmp	572	3	retten	866	1	!	1239	1	!	-1	0	0	0	0	0	0	0	0	0	0	0	0	0	0	0	0	0	0	0	0	0	0	0	0	0	0	0	0	0	0
082719	13:07:36	13:15:22	465202	5.0.10.0	5_exp_RW	119	Rpleas_acq	CS_B	YDDY	VKKV	BZZB	GWWG	JXXJ	MQQM	schön	spielen	retten	fair	ehrlich	treu	schlecht	strafen	rächen	faul	eitel	tot	1	acq_USunple_CSunple2_RW	acq4567_RW	5	32	400	0	300	300	492	46	0	1	1	blank2r.bmp	0	1	+	0	1	blank2r.bmp	492	1	GWWG	492	1	blank2r.bmp	572	3	tot	866	1	!	1239	1	!	-1	0	0	0	0	0	0	0	0	0	0	0	0	0	0	0	0	0	0	0	0	0	0	0	0	0	0	0	0	0	0
082719	13:07:36	13:15:24	467441	5.0.10.0	5_exp_RW	119	Rpleas_acq	CS_B	YDDY	VKKV	BZZB	GWWG	JXXJ	MQQM	schön	spielen	retten	fair	ehrlich	treu	schlecht	strafen	rächen	faul	eitel	tot	1	acq_USpleas_CSpleas1_RW	acq4567_RW	5	33	400	1	300	300	427	50	0	1	1	blank2r.bmp	0	1	+	0	1	blank2r.bmp	492	1	YDDY	492	1	blank2r.bmp	572	2	spielen	866	1	!	1239	1	!	1332	0	0	0	0	0	0	0	0	0	0	0	0	0	0	0	0	0	0	0	0	0	0	0	0	0	0	0	0	0	0
082719	13:07:36	13:15:26	469680	5.0.10.0	5_exp_RW	119	Rpleas_acq	CS_B	YDDY	VKKV	BZZB	GWWG	JXXJ	MQQM	schön	spielen	retten	fair	ehrlich	treu	schlecht	strafen	rächen	faul	eitel	tot	1	acq_USunple_CSunple2_RW	acq4567_RW	5	34	400	1	300	300	451	46	0	1	1	blank2r.bmp	0	1	+	0	1	blank2r.bmp	492	1	GWWG	492	1	blank2r.bmp	572	3	tot	866	1	!	1239	1	!	1346	0	0	0	0	0	0	0	0	0	0	0	0	0	0	0	0	0	0	0	0	0	0	0	0	0	0	0	0	0	0
082719	13:07:36	13:15:28	471946	5.0.10.0	5_exp_RW	119	Rpleas_acq	CS_B	YDDY	VKKV	BZZB	GWWG	JXXJ	MQQM	schön	spielen	retten	fair	ehrlich	treu	schlecht	strafen	rächen	faul	eitel	tot	1	acq_USunple_CSunple2_RW	acq4567_RW	5	35	400	0	300	300	479	50	0	0	1	blank2r.bmp	0	1	+	0	1	blank2r.bmp	492	1	GWWG	492	1	blank2r.bmp	572	2	eitel	866	1	!	1239	1	!	-1	0	0	0	0	0	0	0	0	0	0	0	0	0	0	0	0	0	0	0	0	0	0	0	0	0	0	0	0	0	0
082719	13:07:36	13:15:31	474212	5.0.10.0	5_exp_RW	119	Rpleas_acq	CS_B	YDDY	VKKV	BZZB	GWWG	JXXJ	MQQM	schön	spielen	retten	fair	ehrlich	treu	schlecht	strafen	rächen	faul	eitel	tot	1	acq_USunple_CSunple2_RW	acq4567_RW	5	36	400	1	300	300	457	46	0	1	1	blank2r.bmp	0	1	+	0	1	blank2r.bmp	492	1	GWWG	492	1	blank2r.bmp	572	1	faul	866	1	!	1239	1	!	1359	0	0	0	0	0	0	0	0	0	0	0	0	0	0	0	0	0	0	0	0	0	0	0	0	0	0	0	0	0	0
082719	13:07:36	13:15:33	476478	5.0.10.0	5_exp_RW	119	Rpleas_acq	CS_B	YDDY	VKKV	BZZB	GWWG	JXXJ	MQQM	schön	spielen	retten	fair	ehrlich	treu	schlecht	strafen	rächen	faul	eitel	tot	1	acq_USpleas_CSpleas2_RW	acq4567_RW	5	37	400	0	300	300	502	50	0	1	1	blank2r.bmp	0	1	+	0	1	blank2r.bmp	492	1	VKKV	492	1	blank2r.bmp	572	2	ehrlich	866	1	!	1239	1	!	-1	0	0	0	0	0	0	0	0	0	0	0	0	0	0	0	0	0	0	0	0	0	0	0	0	0	0	0	0	0	0
082719	13:07:36	13:15:35	478663	5.0.10.0	5_exp_RW	119	Rpleas_acq	CS_B	YDDY	VKKV	BZZB	GWWG	JXXJ	MQQM	schön	spielen	retten	fair	ehrlich	treu	schlecht	strafen	rächen	faul	eitel	tot	1	acq_USunple_CSunple1_RW	acq4567_RW	5	38	400	1	300	300	383	46	0	1	1	blank2r.bmp	0	1	+	0	1	blank2r.bmp	492	1	BZZB	492	1	blank2r.bmp	572	1	schlecht	866	1	!	1239	1	!	1279	0	0	0	0	0	0	0	0	0	0	0	0	0	0	0	0	0	0	0	0	0	0	0	0	0	0	0	0	0	0
082719	13:07:36	13:15:37	480889	5.0.10.0	5_exp_RW	119	Rpleas_acq	CS_B	YDDY	VKKV	BZZB	GWWG	JXXJ	MQQM	schön	spielen	retten	fair	ehrlich	treu	schlecht	strafen	rächen	faul	eitel	tot	1	acq_USunple_CSunple2_RW	acq4567_RW	5	39	400	1	300	300	433	46	0	1	1	blank2r.bmp	0	1	+	0	1	blank2r.bmp	492	1	GWWG	492	1	blank2r.bmp	572	3	tot	866	1	!	1239	1	!	1332	0	0	0	0	0	0	0	0	0	0	0	0	0	0	0	0	0	0	0	0	0	0	0	0	0	0	0	0	0	0
082719	13:07:36	13:15:40	483208	5.0.10.0	5_exp_RW	119	Rpleas_acq	CS_B	YDDY	VKKV	BZZB	GWWG	JXXJ	MQQM	schön	spielen	retten	fair	ehrlich	treu	schlecht	strafen	rächen	faul	eitel	tot	1	acq_USpleas_CSpleas1_RW	acq4567_RW	5	40	400	0	300	300	555	50	0	1	1	blank2r.bmp	0	1	+	0	1	blank2r.bmp	492	1	YDDY	492	1	blank2r.bmp	572	3	retten	866	1	!	1239	1	!	-1	0	0	0	0	0	0	0	0	0	0	0	0	0	0	0	0	0	0	0	0	0	0	0	0	0	0	0	0	0	0
082719	13:07:36	13:15:42	485394	5.0.10.0	5_exp_RW	119	Rpleas_acq	CS_B	YDDY	VKKV	BZZB	GWWG	JXXJ	MQQM	schön	spielen	retten	fair	ehrlich	treu	schlecht	strafen	rächen	faul	eitel	tot	1	acq_USpleas_CSpleas1_RW	acq4567_RW	5	41	400	1	300	300	371	50	0	1	1	blank2r.bmp	0	1	+	0	1	blank2r.bmp	492	1	YDDY	492	1	blank2r.bmp	572	2	spielen	866	1	!	1239	1	!	1266	0	0	0	0	0	0	0	0	0	0	0	0	0	0	0	0	0	0	0	0	0	0	0	0	0	0	0	0	0	0
082719	13:07:36	13:15:44	487473	5.0.10.0	5_exp_RW	119	Rpleas_acq	CS_B	YDDY	VKKV	BZZB	GWWG	JXXJ	MQQM	schön	spielen	retten	fair	ehrlich	treu	schlecht	strafen	rächen	faul	eitel	tot	1	acq_USpleas_CSpleas2_RW	acq4567_RW	5	42	400	0	300	300	307	50	0	1	1	blank2r.bmp	0	1	+	0	1	blank2r.bmp	492	1	VKKV	492	1	blank2r.bmp	572	3	treu	866	1	!	-1	1	!	-1	0	0	0	0	0	0	0	0	0	0	0	0	0	0	0	0	0	0	0	0	0	0	0	0	0	0	0	0	0	0
082719	13:07:36	13:15:46	489579	5.0.10.0	5_exp_RW	119	Rpleas_acq	CS_B	YDDY	VKKV	BZZB	GWWG	JXXJ	MQQM	schön	spielen	retten	fair	ehrlich	treu	schlecht	strafen	rächen	faul	eitel	tot	1	acq_USpleas_CSpleas2_RW	acq4567_RW	5	43	400	0	300	300	318	50	0	1	1	blank2r.bmp	0	1	+	0	1	blank2r.bmp	492	1	VKKV	492	1	blank2r.bmp	572	1	fair	866	1	!	-1	1	!	-1	0	0	0	0	0	0	0	0	0	0	0	0	0	0	0	0	0	0	0	0	0	0	0	0	0	0	0	0	0	0
082719	13:07:36	13:15:48	491844	5.0.10.0	5_exp_RW	119	Rpleas_acq	CS_B	YDDY	VKKV	BZZB	GWWG	JXXJ	MQQM	schön	spielen	retten	fair	ehrlich	treu	schlecht	strafen	rächen	faul	eitel	tot	1	acq_USpleas_CSpleas2_RW	acq4567_RW	5	44	400	1	300	300	457	50	0	1	1	blank2r.bmp	0	1	+	0	1	blank2r.bmp	492	1	VKKV	492	1	blank2r.bmp	572	1	fair	866	1	!	1239	1	!	1359	0	0	0	0	0	0	0	0	0	0	0	0	0	0	0	0	0	0	0	0	0	0	0	0	0	0	0	0	0	0
082719	13:07:36	13:15:50	493937	5.0.10.0	5_exp_RW	119	Rpleas_acq	CS_B	YDDY	VKKV	BZZB	GWWG	JXXJ	MQQM	schön	spielen	retten	fair	ehrlich	treu	schlecht	strafen	rächen	faul	eitel	tot	1	acq_USpleas_CSpleas1_RW	acq4567_RW	5	45	400	0	300	300	322	50	0	1	1	blank2r.bmp	0	1	+	0	1	blank2r.bmp	492	1	YDDY	492	1	blank2r.bmp	572	1	schön	866	1	!	-1	1	!	-1	0	0	0	0	0	0	0	0	0	0	0	0	0	0	0	0	0	0	0	0	0	0	0	0	0	0	0	0	0	0
082719	13:07:36	13:15:52	495963	5.0.10.0	5_exp_RW	119	Rpleas_acq	CS_B	YDDY	VKKV	BZZB	GWWG	JXXJ	MQQM	schön	spielen	retten	fair	ehrlich	treu	schlecht	strafen	rächen	faul	eitel	tot	1	acq_USpleas_CSpleas1_RW	acq4567_RW	5	46	400	0	300	300	251	50	0	1	1	blank2r.bmp	0	1	+	0	1	blank2r.bmp	492	1	YDDY	492	1	blank2r.bmp	572	2	spielen	866	1	!	-1	1	!	-1	0	0	0	0	0	0	0	0	0	0	0	0	0	0	0	0	0	0	0	0	0	0	0	0	0	0	0	0	0	0
082719	13:07:36	13:15:54	498082	5.0.10.0	5_exp_RW	119	Rpleas_acq	CS_B	YDDY	VKKV	BZZB	GWWG	JXXJ	MQQM	schön	spielen	retten	fair	ehrlich	treu	schlecht	strafen	rächen	faul	eitel	tot	1	acq_USunple_CSunple1_RW	acq4567_RW	5	47	400	0	300	300	332	50	0	0	1	blank2r.bmp	0	1	+	0	1	blank2r.bmp	492	1	BZZB	492	1	blank2r.bmp	572	3	rächen	866	1	!	-1	1	!	-1	0	0	0	0	0	0	0	0	0	0	0	0	0	0	0	0	0	0	0	0	0	0	0	0	0	0	0	0	0	0
082719	13:07:36	13:15:57	500494	5.0.10.0	5_exp_RW	119	Rpleas_acq	CS_B	YDDY	VKKV	BZZB	GWWG	JXXJ	MQQM	schön	spielen	retten	fair	ehrlich	treu	schlecht	strafen	rächen	faul	eitel	tot	1	acq_USpleas_CSpleas1_RW	acq4567_RW	5	48	400	0	300	300	630	50	0	1	1	blank2r.bmp	0	1	+	0	1	blank2r.bmp	492	1	YDDY	492	1	blank2r.bmp	572	3	retten	866	1	!	1239	1	!	-1	0	0	0	0	0	0	0	0	0	0	0	0	0	0	0	0	0	0	0	0	0	0	0	0	0	0	0	0	0	0
082719	13:07:36	13:15:59	502813	5.0.10.0	5_exp_RW	119	Rpleas_acq	CS_B	YDDY	VKKV	BZZB	GWWG	JXXJ	MQQM	schön	spielen	retten	fair	ehrlich	treu	schlecht	strafen	rächen	faul	eitel	tot	1	acq_USunple_CSunple1_RW	acq4567_RW	5	49	400	0	300	300	535	46	0	1	1	blank2r.bmp	0	1	+	0	1	blank2r.bmp	492	1	BZZB	492	1	blank2r.bmp	572	2	strafen	866	1	!	1239	1	!	-1	0	0	0	0	0	0	0	0	0	0	0	0	0	0	0	0	0	0	0	0	0	0	0	0	0	0	0	0	0	0
082719	13:07:36	13:16:01	505039	5.0.10.0	5_exp_RW	119	Rpleas_acq	CS_B	YDDY	VKKV	BZZB	GWWG	JXXJ	MQQM	schön	spielen	retten	fair	ehrlich	treu	schlecht	strafen	rächen	faul	eitel	tot	1	acq_USunple_CSunple2_RW	acq4567_RW	5	50	400	1	300	300	423	46	0	1	1	blank2r.bmp	0	1	+	0	1	blank2r.bmp	492	1	GWWG	492	1	blank2r.bmp	572	1	faul	866	1	!	1239	1	!	1319	0	0	0	0	0	0	0	0	0	0	0	0	0	0	0	0	0	0	0	0	0	0	0	0	0	0	0	0	0	0
082719	13:07:36	13:16:04	507185	5.0.10.0	5_exp_RW	119	Rpleas_acq	CS_B	YDDY	VKKV	BZZB	GWWG	JXXJ	MQQM	schön	spielen	retten	fair	ehrlich	treu	schlecht	strafen	rächen	faul	eitel	tot	1	acq_USunple_CSunple1_RW	acq4567_RW	5	51	400	1	300	300	346	46	0	1	1	blank2r.bmp	0	1	+	0	1	blank2r.bmp	492	1	BZZB	492	1	blank2r.bmp	572	2	strafen	866	1	!	1239	1	!	1252	0	0	0	0	0	0	0	0	0	0	0	0	0	0	0	0	0	0	0	0	0	0	0	0	0	0	0	0	0	0
082719	13:07:36	13:16:06	509397	5.0.10.0	5_exp_RW	119	Rpleas_acq	CS_B	YDDY	VKKV	BZZB	GWWG	JXXJ	MQQM	schön	spielen	retten	fair	ehrlich	treu	schlecht	strafen	rächen	faul	eitel	tot	1	acq_USunple_CSunple2_RW	acq4567_RW	5	52	400	1	300	300	422	50	0	0	1	blank2r.bmp	0	1	+	0	1	blank2r.bmp	492	1	GWWG	492	1	blank2r.bmp	572	2	eitel	866	1	!	1239	1	!	1319	0	0	0	0	0	0	0	0	0	0	0	0	0	0	0	0	0	0	0	0	0	0	0	0	0	0	0	0	0	0
082719	13:07:36	13:16:08	511663	5.0.10.0	5_exp_RW	119	Rpleas_acq	CS_B	YDDY	VKKV	BZZB	GWWG	JXXJ	MQQM	schön	spielen	retten	fair	ehrlich	treu	schlecht	strafen	rächen	faul	eitel	tot	1	acq_USpleas_CSpleas2_RW	acq4567_RW	5	53	400	0	300	300	487	50	0	1	1	blank2r.bmp	0	1	+	0	1	blank2r.bmp	492	1	VKKV	492	1	blank2r.bmp	572	3	treu	866	1	!	1239	1	!	-1	0	0	0	0	0	0	0	0	0	0	0	0	0	0	0	0	0	0	0	0	0	0	0	0	0	0	0	0	0	0
082719	13:07:36	13:16:10	513942	5.0.10.0	5_exp_RW	119	Rpleas_acq	CS_B	YDDY	VKKV	BZZB	GWWG	JXXJ	MQQM	schön	spielen	retten	fair	ehrlich	treu	schlecht	strafen	rächen	faul	eitel	tot	1	acq_USunple_CSunple1_RW	acq4567_RW	5	54	400	0	300	300	479	46	0	1	1	blank2r.bmp	0	1	+	0	1	blank2r.bmp	492	1	BZZB	492	1	blank2r.bmp	572	1	schlecht	866	1	!	1239	1	!	-1	0	0	0	0	0	0	0	0	0	0	0	0	0	0	0	0	0	0	0	0	0	0	0	0	0	0	0	0	0	0
082719	13:07:36	13:16:13	516247	5.0.10.0	5_exp_RW	119	Rpleas_acq	CS_B	YDDY	VKKV	BZZB	GWWG	JXXJ	MQQM	schön	spielen	retten	fair	ehrlich	treu	schlecht	strafen	rächen	faul	eitel	tot	1	acq_USunple_CSunple1_RW	acq4567_RW	5	55	400	0	300	300	529	46	0	1	1	blank2r.bmp	0	1	+	0	1	blank2r.bmp	492	1	BZZB	492	1	blank2r.bmp	572	3	rächen	866	1	!	1239	1	!	-1	0	0	0	0	0	0	0	0	0	0	0	0	0	0	0	0	0	0	0	0	0	0	0	0	0	0	0	0	0	0
082719	13:07:36	13:16:15	518340	5.0.10.0	5_exp_RW	119	Rpleas_acq	CS_B	YDDY	VKKV	BZZB	GWWG	JXXJ	MQQM	schön	spielen	retten	fair	ehrlich	treu	schlecht	strafen	rächen	faul	eitel	tot	1	acq_USunple_CSunple2_RW	acq4567_RW	5	56	400	0	300	300	296	46	0	1	1	blank2r.bmp	0	1	+	0	1	blank2r.bmp	492	1	GWWG	492	1	blank2r.bmp	572	3	tot	866	1	!	-1	1	!	-1	0	0	0	0	0	0	0	0	0	0	0	0	0	0	0	0	0	0	0	0	0	0	0	0	0	0	0	0	0	0
082719	13:07:36	13:16:17	520566	5.0.10.0	5_exp_RW	119	Rpleas_acq	CS_B	YDDY	VKKV	BZZB	GWWG	JXXJ	MQQM	schön	spielen	retten	fair	ehrlich	treu	schlecht	strafen	rächen	faul	eitel	tot	1	acq_USunple_CSunple2_RW	acq4567_RW	5	57	400	1	300	300	409	46	0	1	1	blank2r.bmp	0	1	+	0	1	blank2r.bmp	492	1	GWWG	492	1	blank2r.bmp	572	1	faul	866	1	!	1239	1	!	1306	0	0	0	0	0	0	0	0	0	0	0	0	0	0	0	0	0	0	0	0	0	0	0	0	0	0	0	0	0	0
082719	13:07:36	13:16:19	522725	5.0.10.0	5_exp_RW	119	Rpleas_acq	CS_B	YDDY	VKKV	BZZB	GWWG	JXXJ	MQQM	schön	spielen	retten	fair	ehrlich	treu	schlecht	strafen	rächen	faul	eitel	tot	1	acq_USpleas_CSpleas2_RW	acq4567_RW	5	58	400	1	300	300	372	50	0	1	1	blank2r.bmp	0	1	+	0	1	blank2r.bmp	492	1	VKKV	492	1	blank2r.bmp	572	2	ehrlich	866	1	!	1239	1	!	1266	0	0	0	0	0	0	0	0	0	0	0	0	0	0	0	0	0	0	0	0	0	0	0	0	0	0	0	0	0	0
082719	13:07:36	13:16:21	524910	5.0.10.0	5_exp_RW	119	Rpleas_acq	CS_B	YDDY	VKKV	BZZB	GWWG	JXXJ	MQQM	schön	spielen	retten	fair	ehrlich	treu	schlecht	strafen	rächen	faul	eitel	tot	1	acq_USunple_CSunple2_RW	acq4567_RW	5	59	400	1	300	300	398	50	0	0	1	blank2r.bmp	0	1	+	0	1	blank2r.bmp	492	1	GWWG	492	1	blank2r.bmp	572	2	eitel	866	1	!	1239	1	!	1292	0	0	0	0	0	0	0	0	0	0	0	0	0	0	0	0	0	0	0	0	0	0	0	0	0	0	0	0	0	0
082719	13:07:36	13:16:23	527003	5.0.10.0	5_exp_RW	119	Rpleas_acq	CS_B	YDDY	VKKV	BZZB	GWWG	JXXJ	MQQM	schön	spielen	retten	fair	ehrlich	treu	schlecht	strafen	rächen	faul	eitel	tot	1	acq_USpleas_CSpleas1_RW	acq4567_RW	5	60	400	0	300	300	322	50	0	1	1	blank2r.bmp	0	1	+	0	1	blank2r.bmp	492	1	YDDY	492	1	blank2r.bmp	572	1	schön	866	1	!	-1	1	!	-1	0	0	0	0	0	0	0	0	0	0	0	0	0	0	0	0	0	0	0	0	0	0	0	0	0	0	0	0	0	0
082719	13:07:36	13:16:26	529269	5.0.10.0	5_exp_RW	119	Rpleas_acq	CS_B	YDDY	VKKV	BZZB	GWWG	JXXJ	MQQM	schön	spielen	retten	fair	ehrlich	treu	schlecht	strafen	rächen	faul	eitel	tot	1	acq_USunple_CSunple1_RW	acq4567_RW	5	61	400	1	300	300	465	46	0	1	1	blank2r.bmp	0	1	+	0	1	blank2r.bmp	492	1	BZZB	492	1	blank2r.bmp	572	1	schlecht	866	1	!	1239	1	!	1359	0	0	0	0	0	0	0	0	0	0	0	0	0	0	0	0	0	0	0	0	0	0	0	0	0	0	0	0	0	0
082719	13:07:36	13:16:28	531508	5.0.10.0	5_exp_RW	119	Rpleas_acq	CS_B	YDDY	VKKV	BZZB	GWWG	JXXJ	MQQM	schön	spielen	retten	fair	ehrlich	treu	schlecht	strafen	rächen	faul	eitel	tot	1	acq_USunple_CSunple2_RW	acq4567_RW	5	62	400	1	300	300	447	50	0	0	1	blank2r.bmp	0	1	+	0	1	blank2r.bmp	492	1	GWWG	492	1	blank2r.bmp	572	2	eitel	866	1	!	1239	1	!	1346	0	0	0	0	0	0	0	0	0	0	0	0	0	0	0	0	0	0	0	0	0	0	0	0	0	0	0	0	0	0
082719	13:07:36	13:16:30	533720	5.0.10.0	5_exp_RW	119	Rpleas_acq	CS_B	YDDY	VKKV	BZZB	GWWG	JXXJ	MQQM	schön	spielen	retten	fair	ehrlich	treu	schlecht	strafen	rächen	faul	eitel	tot	1	acq_USpleas_CSpleas1_RW	acq4567_RW	5	63	400	1	300	300	416	50	0	1	1	blank2r.bmp	0	1	+	0	1	blank2r.bmp	492	1	YDDY	492	1	blank2r.bmp	572	3	retten	866	1	!	1239	1	!	1319	0	0	0	0	0	0	0	0	0	0	0	0	0	0	0	0	0	0	0	0	0	0	0	0	0	0	0	0	0	0
082719	13:07:36	13:16:32	535759	5.0.10.0	5_exp_RW	119	Rpleas_acq	CS_B	YDDY	VKKV	BZZB	GWWG	JXXJ	MQQM	schön	spielen	retten	fair	ehrlich	treu	schlecht	strafen	rächen	faul	eitel	tot	1	acq_USpleas_CSpleas1_RW	acq4567_RW	5	64	400	0	300	300	267	50	0	1	1	blank2r.bmp	0	1	+	0	1	blank2r.bmp	492	1	YDDY	492	1	blank2r.bmp	572	2	spielen	866	1	!	-1	1	!	-1	0	0	0	0	0	0	0	0	0	0	0	0	0	0	0	0	0	0	0	0	0	0	0	0	0	0	0	0	0	0
082719	13:07:36	13:16:34	537932	5.0.10.0	5_exp_RW	119	Rpleas_acq	CS_B	YDDY	VKKV	BZZB	GWWG	JXXJ	MQQM	schön	spielen	retten	fair	ehrlich	treu	schlecht	strafen	rächen	faul	eitel	tot	1	acq_USunple_CSunple1_RW	acq4567_RW	5	65	400	1	300	300	364	46	0	1	1	blank2r.bmp	0	1	+	0	1	blank2r.bmp	492	1	BZZB	492	1	blank2r.bmp	572	3	rächen	866	1	!	1239	1	!	1266	0	0	0	0	0	0	0	0	0	0	0	0	0	0	0	0	0	0	0	0	0	0	0	0	0	0	0	0	0	0
082719	13:07:36	13:16:36	540024	5.0.10.0	5_exp_RW	119	Rpleas_acq	CS_B	YDDY	VKKV	BZZB	GWWG	JXXJ	MQQM	schön	spielen	retten	fair	ehrlich	treu	schlecht	strafen	rächen	faul	eitel	tot	1	acq_USpleas_CSpleas2_RW	acq4567_RW	5	66	400	0	300	300	324	50	0	1	1	blank2r.bmp	0	1	+	0	1	blank2r.bmp	492	1	VKKV	492	1	blank2r.bmp	572	1	fair	866	1	!	-1	1	!	-1	0	0	0	0	0	0	0	0	0	0	0	0	0	0	0	0	0	0	0	0	0	0	0	0	0	0	0	0	0	0
082719	13:07:36	13:16:39	542276	5.0.10.0	5_exp_RW	119	Rpleas_acq	CS_B	YDDY	VKKV	BZZB	GWWG	JXXJ	MQQM	schön	spielen	retten	fair	ehrlich	treu	schlecht	strafen	rächen	faul	eitel	tot	1	acq_USpleas_CSpleas2_RW	acq4567_RW	5	67	400	1	300	300	449	50	0	1	1	blank2r.bmp	0	1	+	0	1	blank2r.bmp	492	1	VKKV	492	1	blank2r.bmp	572	3	treu	866	1	!	1239	1	!	1346	0	0	0	0	0	0	0	0	0	0	0	0	0	0	0	0	0	0	0	0	0	0	0	0	0	0	0	0	0	0
082719	13:07:36	13:16:41	544502	5.0.10.0	5_exp_RW	119	Rpleas_acq	CS_B	YDDY	VKKV	BZZB	GWWG	JXXJ	MQQM	schön	spielen	retten	fair	ehrlich	treu	schlecht	strafen	rächen	faul	eitel	tot	1	acq_USunple_CSunple2_RW	acq4567_RW	5	68	400	1	300	300	431	46	0	1	1	blank2r.bmp	0	1	+	0	1	blank2r.bmp	492	1	GWWG	492	1	blank2r.bmp	572	3	tot	866	1	!	1239	1	!	1332	0	0	0	0	0	0	0	0	0	0	0	0	0	0	0	0	0	0	0	0	0	0	0	0	0	0	0	0	0	0
082719	13:07:36	13:16:43	546794	5.0.10.0	5_exp_RW	119	Rpleas_acq	CS_B	YDDY	VKKV	BZZB	GWWG	JXXJ	MQQM	schön	spielen	retten	fair	ehrlich	treu	schlecht	strafen	rächen	faul	eitel	tot	1	acq_USunple_CSunple1_RW	acq4567_RW	5	69	400	0	300	300	525	50	0	0	1	blank2r.bmp	0	1	+	0	1	blank2r.bmp	492	1	BZZB	492	1	blank2r.bmp	572	2	strafen	866	1	!	1239	1	!	-1	0	0	0	0	0	0	0	0	0	0	0	0	0	0	0	0	0	0	0	0	0	0	0	0	0	0	0	0	0	0
082719	13:07:36	13:16:45	548900	5.0.10.0	5_exp_RW	119	Rpleas_acq	CS_B	YDDY	VKKV	BZZB	GWWG	JXXJ	MQQM	schön	spielen	retten	fair	ehrlich	treu	schlecht	strafen	rächen	faul	eitel	tot	1	acq_USpleas_CSpleas1_RW	acq4567_RW	5	70	400	0	300	300	327	50	0	1	1	blank2r.bmp	0	1	+	0	1	blank2r.bmp	492	1	YDDY	492	1	blank2r.bmp	572	1	schön	866	1	!	-1	1	!	-1	0	0	0	0	0	0	0	0	0	0	0	0	0	0	0	0	0	0	0	0	0	0	0	0	0	0	0	0	0	0
082719	13:07:36	13:16:48	551179	5.0.10.0	5_exp_RW	119	Rpleas_acq	CS_B	YDDY	VKKV	BZZB	GWWG	JXXJ	MQQM	schön	spielen	retten	fair	ehrlich	treu	schlecht	strafen	rächen	faul	eitel	tot	1	acq_USunple_CSunple2_RW	acq4567_RW	5	71	400	1	300	300	460	46	0	1	1	blank2r.bmp	0	1	+	0	1	blank2r.bmp	492	1	GWWG	492	1	blank2r.bmp	572	1	faul	866	1	!	1239	1	!	1359	0	0	0	0	0	0	0	0	0	0	0	0	0	0	0	0	0	0	0	0	0	0	0	0	0	0	0	0	0	0
082719	13:07:36	13:16:50	553485	5.0.10.0	5_exp_RW	119	Rpleas_acq	CS_B	YDDY	VKKV	BZZB	GWWG	JXXJ	MQQM	schön	spielen	retten	fair	ehrlich	treu	schlecht	strafen	rächen	faul	eitel	tot	1	acq_USpleas_CSpleas2_RW	acq4567_RW	5	72	400	0	300	300	537	50	0	1	1	blank2r.bmp	0	1	+	0	1	blank2r.bmp	492	1	VKKV	492	1	blank2r.bmp	572	2	ehrlich	866	1	!	1239	1	!	-1	0	0	0	0	0	0	0	0	0	0	0	0	0	0	0	0	0	0	0	0	0	0	0	0	0	0	0	0	0	0
082719	13:07:36	13:16:52	555751	5.0.10.0	5_exp_RW	119	Rpleas_acq	CS_B	YDDY	VKKV	BZZB	GWWG	JXXJ	MQQM	schön	spielen	retten	fair	ehrlich	treu	schlecht	strafen	rächen	faul	eitel	tot	1	acq_USunple_CSunple2_RW	acq4567_RW	5	73	400	1	300	300	444	50	0	0	1	blank2r.bmp	0	1	+	0	1	blank2r.bmp	492	1	GWWG	492	1	blank2r.bmp	572	2	eitel	866	1	!	1239	1	!	1346	0	0	0	0	0	0	0	0	0	0	0	0	0	0	0	0	0	0	0	0	0	0	0	0	0	0	0	0	0	0
082719	13:07:36	13:16:54	557896	5.0.10.0	5_exp_RW	119	Rpleas_acq	CS_B	YDDY	VKKV	BZZB	GWWG	JXXJ	MQQM	schön	spielen	retten	fair	ehrlich	treu	schlecht	strafen	rächen	faul	eitel	tot	1	acq_USpleas_CSpleas1_RW	acq4567_RW	5	74	400	1	300	300	356	50	0	1	1	blank2r.bmp	0	1	+	0	1	blank2r.bmp	492	1	YDDY	492	1	blank2r.bmp	572	2	spielen	866	1	!	1239	1	!	1252	0	0	0	0	0	0	0	0	0	0	0	0	0	0	0	0	0	0	0	0	0	0	0	0	0	0	0	0	0	0
082719	13:07:36	13:16:56	560069	5.0.10.0	5_exp_RW	119	Rpleas_acq	CS_B	YDDY	VKKV	BZZB	GWWG	JXXJ	MQQM	schön	spielen	retten	fair	ehrlich	treu	schlecht	strafen	rächen	faul	eitel	tot	1	acq_USpleas_CSpleas2_RW	acq4567_RW	5	75	400	1	300	300	371	50	0	1	1	blank2r.bmp	0	1	+	0	1	blank2r.bmp	492	1	VKKV	492	1	blank2r.bmp	572	2	ehrlich	866	1	!	1239	1	!	1266	0	0	0	0	0	0	0	0	0	0	0	0	0	0	0	0	0	0	0	0	0	0	0	0	0	0	0	0	0	0
082719	13:07:36	13:16:58	562095	5.0.10.0	5_exp_RW	119	Rpleas_acq	CS_B	YDDY	VKKV	BZZB	GWWG	JXXJ	MQQM	schön	spielen	retten	fair	ehrlich	treu	schlecht	strafen	rächen	faul	eitel	tot	1	acq_USpleas_CSpleas1_RW	acq4567_RW	5	76	400	0	300	300	264	50	0	1	1	blank2r.bmp	0	1	+	0	1	blank2r.bmp	492	1	YDDY	492	1	blank2r.bmp	572	1	schön	866	1	!	-1	1	!	-1	0	0	0	0	0	0	0	0	0	0	0	0	0	0	0	0	0	0	0	0	0	0	0	0	0	0	0	0	0	0
082719	13:07:36	13:17:00	564080	5.0.10.0	5_exp_RW	119	Rpleas_acq	CS_B	YDDY	VKKV	BZZB	GWWG	JXXJ	MQQM	schön	spielen	retten	fair	ehrlich	treu	schlecht	strafen	rächen	faul	eitel	tot	1	acq_USpleas_CSpleas2_RW	acq4567_RW	5	77	400	0	300	300	201	50	0	1	1	blank2r.bmp	0	1	+	0	1	blank2r.bmp	492	1	VKKV	492	1	blank2r.bmp	572	3	treu	866	1	!	-1	1	!	-1	0	0	0	0	0	0	0	0	0	0	0	0	0	0	0	0	0	0	0	0	0	0	0	0	0	0	0	0	0	0
082719	13:07:36	13:17:02	566146	5.0.10.0	5_exp_RW	119	Rpleas_acq	CS_B	YDDY	VKKV	BZZB	GWWG	JXXJ	MQQM	schön	spielen	retten	fair	ehrlich	treu	schlecht	strafen	rächen	faul	eitel	tot	1	acq_USunple_CSunple1_RW	acq4567_RW	5	78	400	0	300	300	280	50	0	0	1	blank2r.bmp	0	1	+	0	1	blank2r.bmp	492	1	BZZB	492	1	blank2r.bmp	572	3	rächen	866	1	!	-1	1	!	-1	0	0	0	0	0	0	0	0	0	0	0	0	0	0	0	0	0	0	0	0	0	0	0	0	0	0	0	0	0	0
082719	13:07:36	13:17:05	568385	5.0.10.0	5_exp_RW	119	Rpleas_acq	CS_B	YDDY	VKKV	BZZB	GWWG	JXXJ	MQQM	schön	spielen	retten	fair	ehrlich	treu	schlecht	strafen	rächen	faul	eitel	tot	1	acq_USunple_CSunple1_RW	acq4567_RW	5	79	400	1	300	300	426	46	0	1	1	blank2r.bmp	0	1	+	0	1	blank2r.bmp	492	1	BZZB	492	1	blank2r.bmp	572	1	schlecht	866	1	!	1239	1	!	1332	0	0	0	0	0	0	0	0	0	0	0	0	0	0	0	0	0	0	0	0	0	0	0	0	0	0	0	0	0	0
082719	13:07:36	13:17:07	570638	5.0.10.0	5_exp_RW	119	Rpleas_acq	CS_B	YDDY	VKKV	BZZB	GWWG	JXXJ	MQQM	schön	spielen	retten	fair	ehrlich	treu	schlecht	strafen	rächen	faul	eitel	tot	1	acq_USunple_CSunple2_RW	acq4567_RW	5	80	400	0	300	300	479	46	0	1	1	blank2r.bmp	0	1	+	0	1	blank2r.bmp	492	1	GWWG	492	1	blank2r.bmp	572	3	tot	866	1	!	1239	1	!	-1	0	0	0	0	0	0	0	0	0	0	0	0	0	0	0	0	0	0	0	0	0	0	0	0	0	0	0	0	0	0
082719	13:07:36	13:17:14	577395	5.0.10.0	5_exp_RW	119	Rpleas_acq	CS_B	YDDY	VKKV	BZZB	GWWG	JXXJ	MQQM	schön	spielen	retten	fair	ehrlich	treu	schlecht	strafen	rächen	faul	eitel	tot	1	acq_USunple_CSunple1_RW	acq4567_RW	6	1	400	1	300	300	399	46	0	1	1	blank2r.bmp	0	1	+	0	1	blank2r.bmp	492	1	BZZB	492	1	blank2r.bmp	572	2	strafen	866	1	!	1239	1	!	1306	0	0	0	0	0	0	0	0	0	0	0	0	0	0	0	0	0	0	0	0	0	0	0	0	0	0	0	0	0	0
082719	13:07:36	13:17:16	579461	5.0.10.0	5_exp_RW	119	Rpleas_acq	CS_B	YDDY	VKKV	BZZB	GWWG	JXXJ	MQQM	schön	spielen	retten	fair	ehrlich	treu	schlecht	strafen	rächen	faul	eitel	tot	1	acq_USpleas_CSpleas2_RW	acq4567_RW	6	2	400	0	300	300	294	46	0	0	1	blank2r.bmp	0	1	+	0	1	blank2r.bmp	492	1	VKKV	492	1	blank2r.bmp	572	1	fair	866	1	!	-1	1	!	-1	0	0	0	0	0	0	0	0	0	0	0	0	0	0	0	0	0	0	0	0	0	0	0	0	0	0	0	0	0	0
082719	13:07:36	13:17:18	581686	5.0.10.0	5_exp_RW	119	Rpleas_acq	CS_B	YDDY	VKKV	BZZB	GWWG	JXXJ	MQQM	schön	spielen	retten	fair	ehrlich	treu	schlecht	strafen	rächen	faul	eitel	tot	1	acq_USpleas_CSpleas2_RW	acq4567_RW	6	3	400	1	300	300	421	50	0	1	1	blank2r.bmp	0	1	+	0	1	blank2r.bmp	492	1	VKKV	492	1	blank2r.bmp	572	1	fair	866	1	!	1239	1	!	1319	0	0	0	0	0	0	0	0	0	0	0	0	0	0	0	0	0	0	0	0	0	0	0	0	0	0	0	0	0	0
082719	13:07:36	13:17:20	584072	5.0.10.0	5_exp_RW	119	Rpleas_acq	CS_B	YDDY	VKKV	BZZB	GWWG	JXXJ	MQQM	schön	spielen	retten	fair	ehrlich	treu	schlecht	strafen	rächen	faul	eitel	tot	1	acq_USunple_CSunple1_RW	acq4567_RW	6	4	400	0	300	300	605	46	0	1	1	blank2r.bmp	0	1	+	0	1	blank2r.bmp	492	1	BZZB	492	1	blank2r.bmp	572	3	rächen	866	1	!	1239	1	!	-1	0	0	0	0	0	0	0	0	0	0	0	0	0	0	0	0	0	0	0	0	0	0	0	0	0	0	0	0	0	0
082719	13:07:36	13:17:23	586404	5.0.10.0	5_exp_RW	119	Rpleas_acq	CS_B	YDDY	VKKV	BZZB	GWWG	JXXJ	MQQM	schön	spielen	retten	fair	ehrlich	treu	schlecht	strafen	rächen	faul	eitel	tot	1	acq_USpleas_CSpleas1_RW	acq4567_RW	6	5	400	0	300	300	548	50	0	1	1	blank2r.bmp	0	1	+	0	1	blank2r.bmp	492	1	YDDY	492	1	blank2r.bmp	572	3	retten	866	1	!	1239	1	!	-1	0	0	0	0	0	0	0	0	0	0	0	0	0	0	0	0	0	0	0	0	0	0	0	0	0	0	0	0	0	0
082719	13:07:36	13:17:25	588603	5.0.10.0	5_exp_RW	119	Rpleas_acq	CS_B	YDDY	VKKV	BZZB	GWWG	JXXJ	MQQM	schön	spielen	retten	fair	ehrlich	treu	schlecht	strafen	rächen	faul	eitel	tot	1	acq_USpleas_CSpleas1_RW	acq4567_RW	6	6	400	1	300	300	393	50	0	1	1	blank2r.bmp	0	1	+	0	1	blank2r.bmp	492	1	YDDY	492	1	blank2r.bmp	572	1	schön	866	1	!	1239	1	!	1292	0	0	0	0	0	0	0	0	0	0	0	0	0	0	0	0	0	0	0	0	0	0	0	0	0	0	0	0	0	0
082719	13:07:36	13:17:27	590856	5.0.10.0	5_exp_RW	119	Rpleas_acq	CS_B	YDDY	VKKV	BZZB	GWWG	JXXJ	MQQM	schön	spielen	retten	fair	ehrlich	treu	schlecht	strafen	rächen	faul	eitel	tot	1	acq_USunple_CSunple1_RW	acq4567_RW	6	7	400	0	300	300	488	46	0	1	1	blank2r.bmp	0	1	+	0	1	blank2r.bmp	492	1	BZZB	492	1	blank2r.bmp	572	1	schlecht	866	1	!	1239	1	!	-1	0	0	0	0	0	0	0	0	0	0	0	0	0	0	0	0	0	0	0	0	0	0	0	0	0	0	0	0	0	0
082719	13:07:36	13:17:29	593081	5.0.10.0	5_exp_RW	119	Rpleas_acq	CS_B	YDDY	VKKV	BZZB	GWWG	JXXJ	MQQM	schön	spielen	retten	fair	ehrlich	treu	schlecht	strafen	rächen	faul	eitel	tot	1	acq_USpleas_CSpleas2_RW	acq4567_RW	6	8	400	1	300	300	421	50	0	1	1	blank2r.bmp	0	1	+	0	1	blank2r.bmp	492	1	VKKV	492	1	blank2r.bmp	572	2	ehrlich	866	1	!	1239	1	!	1319	0	0	0	0	0	0	0	0	0	0	0	0	0	0	0	0	0	0	0	0	0	0	0	0	0	0	0	0	0	0
082719	13:07:36	13:17:32	595427	5.0.10.0	5_exp_RW	119	Rpleas_acq	CS_B	YDDY	VKKV	BZZB	GWWG	JXXJ	MQQM	schön	spielen	retten	fair	ehrlich	treu	schlecht	strafen	rächen	faul	eitel	tot	1	acq_USunple_CSunple1_RW	acq4567_RW	6	9	400	0	300	300	575	46	0	1	1	blank2r.bmp	0	1	+	0	1	blank2r.bmp	492	1	BZZB	492	1	blank2r.bmp	572	2	strafen	866	1	!	1239	1	!	-1	0	0	0	0	0	0	0	0	0	0	0	0	0	0	0	0	0	0	0	0	0	0	0	0	0	0	0	0	0	0
082719	13:07:36	13:17:34	597640	5.0.10.0	5_exp_RW	119	Rpleas_acq	CS_B	YDDY	VKKV	BZZB	GWWG	JXXJ	MQQM	schön	spielen	retten	fair	ehrlich	treu	schlecht	strafen	rächen	faul	eitel	tot	1	acq_USpleas_CSpleas1_RW	acq4567_RW	6	10	400	1	300	300	401	50	0	1	1	blank2r.bmp	0	1	+	0	1	blank2r.bmp	492	1	YDDY	492	1	blank2r.bmp	572	2	spielen	866	1	!	1239	1	!	1306	0	0	0	0	0	0	0	0	0	0	0	0	0	0	0	0	0	0	0	0	0	0	0	0	0	0	0	0	0	0
082719	13:07:36	13:17:36	599785	5.0.10.0	5_exp_RW	119	Rpleas_acq	CS_B	YDDY	VKKV	BZZB	GWWG	JXXJ	MQQM	schön	spielen	retten	fair	ehrlich	treu	schlecht	strafen	rächen	faul	eitel	tot	1	acq_USunple_CSunple2_RW	acq4567_RW	6	11	400	1	300	300	354	46	0	1	1	blank2r.bmp	0	1	+	0	1	blank2r.bmp	492	1	GWWG	492	1	blank2r.bmp	572	1	faul	866	1	!	1239	1	!	1252	0	0	0	0	0	0	0	0	0	0	0	0	0	0	0	0	0	0	0	0	0	0	0	0	0	0	0	0	0	0
082719	13:07:36	13:17:38	602038	5.0.10.0	5_exp_RW	119	Rpleas_acq	CS_B	YDDY	VKKV	BZZB	GWWG	JXXJ	MQQM	schön	spielen	retten	fair	ehrlich	treu	schlecht	strafen	rächen	faul	eitel	tot	1	acq_USunple_CSunple1_RW	acq4567_RW	6	12	400	0	300	300	492	46	0	1	1	blank2r.bmp	0	1	+	0	1	blank2r.bmp	492	1	BZZB	492	1	blank2r.bmp	572	1	schlecht	866	1	!	1239	1	!	-1	0	0	0	0	0	0	0	0	0	0	0	0	0	0	0	0	0	0	0	0	0	0	0	0	0	0	0	0	0	0
082719	13:07:36	13:17:40	603970	5.0.10.0	5_exp_RW	119	Rpleas_acq	CS_B	YDDY	VKKV	BZZB	GWWG	JXXJ	MQQM	schön	spielen	retten	fair	ehrlich	treu	schlecht	strafen	rächen	faul	eitel	tot	1	acq_USpleas_CSpleas2_RW	acq4567_RW	6	13	400	0	300	300	155	50	0	1	1	blank2r.bmp	0	1	+	0	1	blank2r.bmp	492	1	VKKV	492	1	blank2r.bmp	572	3	treu	866	1	!	-1	1	!	-1	0	0	0	0	0	0	0	0	0	0	0	0	0	0	0	0	0	0	0	0	0	0	0	0	0	0	0	0	0	0
082719	13:07:36	13:17:42	605943	5.0.10.0	5_exp_RW	119	Rpleas_acq	CS_B	YDDY	VKKV	BZZB	GWWG	JXXJ	MQQM	schön	spielen	retten	fair	ehrlich	treu	schlecht	strafen	rächen	faul	eitel	tot	1	acq_USunple_CSunple2_RW	acq4567_RW	6	14	400	0	300	300	185	46	0	1	1	blank2r.bmp	0	1	+	0	1	blank2r.bmp	492	1	GWWG	492	1	blank2r.bmp	572	2	eitel	866	1	!	-1	1	!	-1	0	0	0	0	0	0	0	0	0	0	0	0	0	0	0	0	0	0	0	0	0	0	0	0	0	0	0	0	0	0
082719	13:07:36	13:17:44	608022	5.0.10.0	5_exp_RW	119	Rpleas_acq	CS_B	YDDY	VKKV	BZZB	GWWG	JXXJ	MQQM	schön	spielen	retten	fair	ehrlich	treu	schlecht	strafen	rächen	faul	eitel	tot	1	acq_USpleas_CSpleas1_RW	acq4567_RW	6	15	400	0	300	300	294	50	0	1	1	blank2r.bmp	0	1	+	0	1	blank2r.bmp	492	1	YDDY	492	1	blank2r.bmp	572	3	retten	866	1	!	-1	1	!	-1	0	0	0	0	0	0	0	0	0	0	0	0	0	0	0	0	0	0	0	0	0	0	0	0	0	0	0	0	0	0
082719	13:07:36	13:17:47	610301	5.0.10.0	5_exp_RW	119	Rpleas_acq	CS_B	YDDY	VKKV	BZZB	GWWG	JXXJ	MQQM	schön	spielen	retten	fair	ehrlich	treu	schlecht	strafen	rächen	faul	eitel	tot	1	acq_USunple_CSunple2_RW	acq4567_RW	6	16	400	0	300	300	479	50	0	0	1	blank2r.bmp	0	1	+	0	1	blank2r.bmp	492	1	GWWG	492	1	blank2r.bmp	572	1	faul	866	1	!	1239	1	!	-1	0	0	0	0	0	0	0	0	0	0	0	0	0	0	0	0	0	0	0	0	0	0	0	0	0	0	0	0	0	0
082719	13:07:36	13:17:49	612540	5.0.10.0	5_exp_RW	119	Rpleas_acq	CS_B	YDDY	VKKV	BZZB	GWWG	JXXJ	MQQM	schön	spielen	retten	fair	ehrlich	treu	schlecht	strafen	rächen	faul	eitel	tot	1	acq_USunple_CSunple2_RW	acq4567_RW	6	17	400	1	300	300	422	46	0	1	1	blank2r.bmp	0	1	+	0	1	blank2r.bmp	492	1	GWWG	492	1	blank2r.bmp	572	3	tot	866	1	!	1239	1	!	1319	0	0	0	0	0	0	0	0	0	0	0	0	0	0	0	0	0	0	0	0	0	0	0	0	0	0	0	0	0	0
082719	13:07:36	13:17:51	614686	5.0.10.0	5_exp_RW	119	Rpleas_acq	CS_B	YDDY	VKKV	BZZB	GWWG	JXXJ	MQQM	schön	spielen	retten	fair	ehrlich	treu	schlecht	strafen	rächen	faul	eitel	tot	1	acq_USpleas_CSpleas2_RW	acq4567_RW	6	18	400	1	300	300	350	50	0	1	1	blank2r.bmp	0	1	+	0	1	blank2r.bmp	492	1	VKKV	492	1	blank2r.bmp	572	3	treu	866	1	!	1239	1	!	1252	0	0	0	0	0	0	0	0	0	0	0	0	0	0	0	0	0	0	0	0	0	0	0	0	0	0	0	0	0	0
082719	13:07:36	13:17:53	616738	5.0.10.0	5_exp_RW	119	Rpleas_acq	CS_B	YDDY	VKKV	BZZB	GWWG	JXXJ	MQQM	schön	spielen	retten	fair	ehrlich	treu	schlecht	strafen	rächen	faul	eitel	tot	1	acq_USunple_CSunple2_RW	acq4567_RW	6	19	400	0	300	300	286	50	0	0	1	blank2r.bmp	0	1	+	0	1	blank2r.bmp	492	1	GWWG	492	1	blank2r.bmp	572	1	faul	866	1	!	-1	1	!	-1	0	0	0	0	0	0	0	0	0	0	0	0	0	0	0	0	0	0	0	0	0	0	0	0	0	0	0	0	0	0
082719	13:07:36	13:17:55	618964	5.0.10.0	5_exp_RW	119	Rpleas_acq	CS_B	YDDY	VKKV	BZZB	GWWG	JXXJ	MQQM	schön	spielen	retten	fair	ehrlich	treu	schlecht	strafen	rächen	faul	eitel	tot	1	acq_USpleas_CSpleas1_RW	acq4567_RW	6	20	400	1	300	300	415	50	0	1	1	blank2r.bmp	0	1	+	0	1	blank2r.bmp	492	1	YDDY	492	1	blank2r.bmp	572	1	schön	866	1	!	1239	1	!	1319	0	0	0	0	0	0	0	0	0	0	0	0	0	0	0	0	0	0	0	0	0	0	0	0	0	0	0	0	0	0
