date	time	script.currenttime	script.elapsedtime	build	script.currentexpt	subject	expressions.LRpleas_acq	expressions.conditionCS_A	expressions.CSpleas_1	expressions.CSpleas_2	expressions.CSunple_1	expressions.CSunple_2	expressions.distractor_1	expressions.distractor_2	expressions.US_pleas1	expressions.US_pleas2	expressions.US_pleas3	expressions.US_pleas4	expressions.US_pleas5	expressions.US_pleas6	expressions.US_unple1	expressions.US_unple2	expressions.US_unple3	expressions.US_unple4	expressions.US_unple5	expressions.US_unple6	counter.positions_noRW	trialcode	blockcode	blocknum	trialnum	windowcenter	inwindow	pretrialpause	posttrialpause	latency	response	expressions.correctedscore	correct	stimulusnumber1	stimulusitem1	stimulusonset1	stimulusnumber2	stimulusitem2	stimulusonset2	stimulusnumber3	stimulusitem3	stimulusonset3	stimulusnumber4	stimulusitem4	stimulusonset4	stimulusnumber5	stimulusitem5	stimulusonset5	stimulusnumber6	stimulusitem6	stimulusonset6	stimulusnumber7	stimulusitem7	stimulusonset7	stimulusnumber8	stimulusitem8	stimulusonset8	stimulusnumber9	stimulusitem9	stimulusonset9	stimulusnumber10	stimulusitem10	stimulusonset10	stimulusnumber11	stimulusitem11	stimulusonset11	stimulusnumber12	stimulusitem12	stimulusonset12	stimulusnumber13	stimulusitem13	stimulusonset13	stimulusnumber14	stimulusitem14	stimulusonset14	stimulusnumber15	stimulusitem15	stimulusonset15	stimulusnumber16	stimulusitem16	stimulusonset16	stimulusnumber17	stimulusitem17	stimulusonset17	stimulusnumber18	stimulusitem18	stimulusonset18
081219	10:06:12	10:06:58	44901	5.0.10.0	5_exp_RW	93	Rpleas_acq	CS_B	YDDY	BZZB	JXXJ	GWWG	MQQM	VKKV	fair	ehrlich	retten	schön	treu	spielen	faul	eitel	rächen	schlecht	tot	strafen	1	acq_USunple_CSunple1_RW	acq1_RW	1	1	0	0	300	300	3776	46	0	1	1	blank2r.bmp	0	1	+	0	1	blank2r.bmp	492	1	JXXJ	492	1	blank2r.bmp	572	3	rächen	866	0	0	0	0	0	0	0	0	0	0	0	0	0	0	0	0	0	0	0	0	0	0	0	0	0	0	0	0	0	0	0	0	0	0	0	0
081219	10:06:12	10:07:00	47140	5.0.10.0	5_exp_RW	93	Rpleas_acq	CS_B	YDDY	BZZB	JXXJ	GWWG	MQQM	VKKV	fair	ehrlich	retten	schön	treu	spielen	faul	eitel	rächen	schlecht	tot	strafen	1	acq_USunple_CSunple2_RW	acq1_RW	1	2	0	0	300	300	754	46	0	1	1	blank2r.bmp	0	1	+	0	1	blank2r.bmp	492	1	GWWG	492	1	blank2r.bmp	572	3	strafen	866	0	0	0	0	0	0	0	0	0	0	0	0	0	0	0	0	0	0	0	0	0	0	0	0	0	0	0	0	0	0	0	0	0	0	0	0
081219	10:06:12	10:07:02	49112	5.0.10.0	5_exp_RW	93	Rpleas_acq	CS_B	YDDY	BZZB	JXXJ	GWWG	MQQM	VKKV	fair	ehrlich	retten	schön	treu	spielen	faul	eitel	rächen	schlecht	tot	strafen	1	acq_USunple_CSunple2_RW	acq1_RW	1	3	0	0	300	300	494	46	0	1	1	blank2r.bmp	0	1	+	0	1	blank2r.bmp	492	1	GWWG	492	1	blank2r.bmp	572	1	schlecht	866	0	0	0	0	0	0	0	0	0	0	0	0	0	0	0	0	0	0	0	0	0	0	0	0	0	0	0	0	0	0	0	0	0	0	0	0
081219	10:06:12	10:07:04	51511	5.0.10.0	5_exp_RW	93	Rpleas_acq	CS_B	YDDY	BZZB	JXXJ	GWWG	MQQM	VKKV	fair	ehrlich	retten	schön	treu	spielen	faul	eitel	rächen	schlecht	tot	strafen	1	acq_USunple_CSunple1_RW	acq1_RW	1	4	0	0	300	300	919	46	0	1	1	blank2r.bmp	0	1	+	0	1	blank2r.bmp	492	1	JXXJ	492	1	blank2r.bmp	572	2	eitel	866	0	0	0	0	0	0	0	0	0	0	0	0	0	0	0	0	0	0	0	0	0	0	0	0	0	0	0	0	0	0	0	0	0	0	0	0
081219	10:06:12	10:07:06	53604	5.0.10.0	5_exp_RW	93	Rpleas_acq	CS_B	YDDY	BZZB	JXXJ	GWWG	MQQM	VKKV	fair	ehrlich	retten	schön	treu	spielen	faul	eitel	rächen	schlecht	tot	strafen	1	acq_USpleas_CSpleas1_RW	acq1_RW	1	5	0	0	300	300	624	50	0	1	1	blank2r.bmp	0	1	+	0	1	blank2r.bmp	492	1	YDDY	492	1	blank2r.bmp	572	3	retten	866	0	0	0	0	0	0	0	0	0	0	0	0	0	0	0	0	0	0	0	0	0	0	0	0	0	0	0	0	0	0	0	0	0	0	0	0
081219	10:06:12	10:07:08	55750	5.0.10.0	5_exp_RW	93	Rpleas_acq	CS_B	YDDY	BZZB	JXXJ	GWWG	MQQM	VKKV	fair	ehrlich	retten	schön	treu	spielen	faul	eitel	rächen	schlecht	tot	strafen	1	acq_USunple_CSunple2_RW	acq1_RW	1	6	0	0	300	300	655	46	0	1	1	blank2r.bmp	0	1	+	0	1	blank2r.bmp	492	1	GWWG	492	1	blank2r.bmp	572	2	tot	866	0	0	0	0	0	0	0	0	0	0	0	0	0	0	0	0	0	0	0	0	0	0	0	0	0	0	0	0	0	0	0	0	0	0	0	0
081219	10:06:12	10:07:10	57722	5.0.10.0	5_exp_RW	93	Rpleas_acq	CS_B	YDDY	BZZB	JXXJ	GWWG	MQQM	VKKV	fair	ehrlich	retten	schön	treu	spielen	faul	eitel	rächen	schlecht	tot	strafen	1	acq_USpleas_CSpleas1_RW	acq1_RW	1	7	0	0	300	300	504	50	0	1	1	blank2r.bmp	0	1	+	0	1	blank2r.bmp	492	1	YDDY	492	1	blank2r.bmp	572	2	ehrlich	866	0	0	0	0	0	0	0	0	0	0	0	0	0	0	0	0	0	0	0	0	0	0	0	0	0	0	0	0	0	0	0	0	0	0	0	0
081219	10:06:12	10:07:12	59628	5.0.10.0	5_exp_RW	93	Rpleas_acq	CS_B	YDDY	BZZB	JXXJ	GWWG	MQQM	VKKV	fair	ehrlich	retten	schön	treu	spielen	faul	eitel	rächen	schlecht	tot	strafen	1	acq_USpleas_CSpleas1_RW	acq1_RW	1	8	0	0	300	300	423	50	0	1	1	blank2r.bmp	0	1	+	0	1	blank2r.bmp	492	1	YDDY	492	1	blank2r.bmp	572	1	fair	866	0	0	0	0	0	0	0	0	0	0	0	0	0	0	0	0	0	0	0	0	0	0	0	0	0	0	0	0	0	0	0	0	0	0	0	0
081219	10:06:12	10:07:14	61681	5.0.10.0	5_exp_RW	93	Rpleas_acq	CS_B	YDDY	BZZB	JXXJ	GWWG	MQQM	VKKV	fair	ehrlich	retten	schön	treu	spielen	faul	eitel	rächen	schlecht	tot	strafen	1	acq_USunple_CSunple1_RW	acq1_RW	1	9	0	0	300	300	559	46	0	1	1	blank2r.bmp	0	1	+	0	1	blank2r.bmp	492	1	JXXJ	492	1	blank2r.bmp	572	1	faul	866	0	0	0	0	0	0	0	0	0	0	0	0	0	0	0	0	0	0	0	0	0	0	0	0	0	0	0	0	0	0	0	0	0	0	0	0
081219	10:06:12	10:07:16	63520	5.0.10.0	5_exp_RW	93	Rpleas_acq	CS_B	YDDY	BZZB	JXXJ	GWWG	MQQM	VKKV	fair	ehrlich	retten	schön	treu	spielen	faul	eitel	rächen	schlecht	tot	strafen	1	acq_USpleas_CSpleas2_RW	acq1_RW	1	10	0	0	300	300	363	50	0	1	1	blank2r.bmp	0	1	+	0	1	blank2r.bmp	492	1	BZZB	492	1	blank2r.bmp	572	3	spielen	866	0	0	0	0	0	0	0	0	0	0	0	0	0	0	0	0	0	0	0	0	0	0	0	0	0	0	0	0	0	0	0	0	0	0	0	0
081219	10:06:12	10:07:18	65586	5.0.10.0	5_exp_RW	93	Rpleas_acq	CS_B	YDDY	BZZB	JXXJ	GWWG	MQQM	VKKV	fair	ehrlich	retten	schön	treu	spielen	faul	eitel	rächen	schlecht	tot	strafen	1	acq_USunple_CSunple1_RW	acq1_RW	1	11	0	0	300	300	593	46	0	1	1	blank2r.bmp	0	1	+	0	1	blank2r.bmp	492	1	JXXJ	492	1	blank2r.bmp	572	3	rächen	866	0	0	0	0	0	0	0	0	0	0	0	0	0	0	0	0	0	0	0	0	0	0	0	0	0	0	0	0	0	0	0	0	0	0	0	0
081219	10:06:12	10:07:20	67505	5.0.10.0	5_exp_RW	93	Rpleas_acq	CS_B	YDDY	BZZB	JXXJ	GWWG	MQQM	VKKV	fair	ehrlich	retten	schön	treu	spielen	faul	eitel	rächen	schlecht	tot	strafen	1	acq_USpleas_CSpleas2_RW	acq1_RW	1	12	0	0	300	300	434	50	0	1	1	blank2r.bmp	0	1	+	0	1	blank2r.bmp	492	1	BZZB	492	1	blank2r.bmp	572	1	schön	866	0	0	0	0	0	0	0	0	0	0	0	0	0	0	0	0	0	0	0	0	0	0	0	0	0	0	0	0	0	0	0	0	0	0	0	0
081219	10:06:12	10:07:24	71090	5.0.10.0	5_exp_RW	93	Rpleas_acq	CS_B	YDDY	BZZB	JXXJ	GWWG	MQQM	VKKV	fair	ehrlich	retten	schön	treu	spielen	faul	eitel	rächen	schlecht	tot	strafen	1	acq_USpleas_CSpleas2_RW	acq1_RW	1	13	0	0	300	300	2091	50	0	1	1	blank2r.bmp	0	1	+	0	1	blank2r.bmp	492	1	BZZB	492	1	blank2r.bmp	572	2	treu	866	0	0	0	0	0	0	0	0	0	0	0	0	0	0	0	0	0	0	0	0	0	0	0	0	0	0	0	0	0	0	0	0	0	0	0	0
081219	10:06:12	10:07:26	73036	5.0.10.0	5_exp_RW	93	Rpleas_acq	CS_B	YDDY	BZZB	JXXJ	GWWG	MQQM	VKKV	fair	ehrlich	retten	schön	treu	spielen	faul	eitel	rächen	schlecht	tot	strafen	1	acq_USpleas_CSpleas2_RW	acq1_RW	1	14	0	0	300	300	466	50	0	1	1	blank2r.bmp	0	1	+	0	1	blank2r.bmp	492	1	BZZB	492	1	blank2r.bmp	572	2	treu	866	0	0	0	0	0	0	0	0	0	0	0	0	0	0	0	0	0	0	0	0	0	0	0	0	0	0	0	0	0	0	0	0	0	0	0	0
081219	10:06:12	10:07:28	74982	5.0.10.0	5_exp_RW	93	Rpleas_acq	CS_B	YDDY	BZZB	JXXJ	GWWG	MQQM	VKKV	fair	ehrlich	retten	schön	treu	spielen	faul	eitel	rächen	schlecht	tot	strafen	1	acq_USpleas_CSpleas1_RW	acq1_RW	1	15	0	0	300	300	465	50	0	1	1	blank2r.bmp	0	1	+	0	1	blank2r.bmp	492	1	YDDY	492	1	blank2r.bmp	572	1	fair	866	0	0	0	0	0	0	0	0	0	0	0	0	0	0	0	0	0	0	0	0	0	0	0	0	0	0	0	0	0	0	0	0	0	0	0	0
081219	10:06:12	10:07:30	77061	5.0.10.0	5_exp_RW	93	Rpleas_acq	CS_B	YDDY	BZZB	JXXJ	GWWG	MQQM	VKKV	fair	ehrlich	retten	schön	treu	spielen	faul	eitel	rächen	schlecht	tot	strafen	1	acq_USunple_CSunple2_RW	acq1_RW	1	16	0	0	300	300	585	46	0	1	1	blank2r.bmp	0	1	+	0	1	blank2r.bmp	492	1	GWWG	492	1	blank2r.bmp	572	1	schlecht	866	0	0	0	0	0	0	0	0	0	0	0	0	0	0	0	0	0	0	0	0	0	0	0	0	0	0	0	0	0	0	0	0	0	0	0	0
081219	10:06:12	10:07:52	99678	5.0.10.0	5_exp_RW	93	Rpleas_acq	CS_B	YDDY	BZZB	JXXJ	GWWG	MQQM	VKKV	fair	ehrlich	retten	schön	treu	spielen	faul	eitel	rächen	schlecht	tot	strafen	1	acq_USunple_CSunple1_RW	acq2_RW	2	1	480	0	300	300	3282	46	0	1	1	blank2r.bmp	0	1	+	0	1	blank2r.bmp	492	1	JXXJ	492	1	blank2r.bmp	572	2	eitel	866	1	!	1319	1	!	-1	0	0	0	0	0	0	0	0	0	0	0	0	0	0	0	0	0	0	0	0	0	0	0	0	0	0	0	0	0	0
081219	10:06:12	10:07:55	102117	5.0.10.0	5_exp_RW	93	Rpleas_acq	CS_B	YDDY	BZZB	JXXJ	GWWG	MQQM	VKKV	fair	ehrlich	retten	schön	treu	spielen	faul	eitel	rächen	schlecht	tot	strafen	1	acq_USpleas_CSpleas1_RW	acq2_RW	2	2	480	0	300	300	638	50	0	1	1	blank2r.bmp	0	1	+	0	1	blank2r.bmp	492	1	YDDY	492	1	blank2r.bmp	572	3	retten	866	1	!	1319	1	!	-1	0	0	0	0	0	0	0	0	0	0	0	0	0	0	0	0	0	0	0	0	0	0	0	0	0	0	0	0	0	0
081219	10:06:12	10:07:57	104490	5.0.10.0	5_exp_RW	93	Rpleas_acq	CS_B	YDDY	BZZB	JXXJ	GWWG	MQQM	VKKV	fair	ehrlich	retten	schön	treu	spielen	faul	eitel	rächen	schlecht	tot	strafen	1	acq_USpleas_CSpleas1_RW	acq2_RW	2	3	480	0	300	300	594	50	0	1	1	blank2r.bmp	0	1	+	0	1	blank2r.bmp	492	1	YDDY	492	1	blank2r.bmp	572	2	ehrlich	866	1	!	1319	1	!	-1	0	0	0	0	0	0	0	0	0	0	0	0	0	0	0	0	0	0	0	0	0	0	0	0	0	0	0	0	0	0
081219	10:06:12	10:07:59	106862	5.0.10.0	5_exp_RW	93	Rpleas_acq	CS_B	YDDY	BZZB	JXXJ	GWWG	MQQM	VKKV	fair	ehrlich	retten	schön	treu	spielen	faul	eitel	rächen	schlecht	tot	strafen	1	acq_USunple_CSunple2_RW	acq2_RW	2	4	480	0	300	300	591	46	0	1	1	blank2r.bmp	0	1	+	0	1	blank2r.bmp	492	1	GWWG	492	1	blank2r.bmp	572	3	strafen	866	1	!	1319	1	!	-1	0	0	0	0	0	0	0	0	0	0	0	0	0	0	0	0	0	0	0	0	0	0	0	0	0	0	0	0	0	0
081219	10:06:12	10:08:02	109115	5.0.10.0	5_exp_RW	93	Rpleas_acq	CS_B	YDDY	BZZB	JXXJ	GWWG	MQQM	VKKV	fair	ehrlich	retten	schön	treu	spielen	faul	eitel	rächen	schlecht	tot	strafen	1	acq_USunple_CSunple2_RW	acq2_RW	2	5	480	1	300	300	440	46	0	1	1	blank2r.bmp	0	1	+	0	1	blank2r.bmp	492	1	GWWG	492	1	blank2r.bmp	572	2	tot	866	1	!	1319	1	!	1346	0	0	0	0	0	0	0	0	0	0	0	0	0	0	0	0	0	0	0	0	0	0	0	0	0	0	0	0	0	0
081219	10:06:12	10:08:04	111487	5.0.10.0	5_exp_RW	93	Rpleas_acq	CS_B	YDDY	BZZB	JXXJ	GWWG	MQQM	VKKV	fair	ehrlich	retten	schön	treu	spielen	faul	eitel	rächen	schlecht	tot	strafen	1	acq_USpleas_CSpleas2_RW	acq2_RW	2	6	480	0	300	300	596	50	0	1	1	blank2r.bmp	0	1	+	0	1	blank2r.bmp	492	1	BZZB	492	1	blank2r.bmp	572	1	schön	866	1	!	1319	1	!	-1	0	0	0	0	0	0	0	0	0	0	0	0	0	0	0	0	0	0	0	0	0	0	0	0	0	0	0	0	0	0
081219	10:06:12	10:08:06	113846	5.0.10.0	5_exp_RW	93	Rpleas_acq	CS_B	YDDY	BZZB	JXXJ	GWWG	MQQM	VKKV	fair	ehrlich	retten	schön	treu	spielen	faul	eitel	rächen	schlecht	tot	strafen	1	acq_USunple_CSunple1_RW	acq2_RW	2	7	480	1	300	300	535	46	0	1	1	blank2r.bmp	0	1	+	0	1	blank2r.bmp	492	1	JXXJ	492	1	blank2r.bmp	572	1	faul	866	1	!	1319	1	!	1439	0	0	0	0	0	0	0	0	0	0	0	0	0	0	0	0	0	0	0	0	0	0	0	0	0	0	0	0	0	0
081219	10:06:12	10:08:09	116072	5.0.10.0	5_exp_RW	93	Rpleas_acq	CS_B	YDDY	BZZB	JXXJ	GWWG	MQQM	VKKV	fair	ehrlich	retten	schön	treu	spielen	faul	eitel	rächen	schlecht	tot	strafen	1	acq_USunple_CSunple1_RW	acq2_RW	2	8	480	1	300	300	426	46	0	1	1	blank2r.bmp	0	1	+	0	1	blank2r.bmp	492	1	JXXJ	492	1	blank2r.bmp	572	3	rächen	866	1	!	1319	1	!	1332	0	0	0	0	0	0	0	0	0	0	0	0	0	0	0	0	0	0	0	0	0	0	0	0	0	0	0	0	0	0
081219	10:06:12	10:08:11	118364	5.0.10.0	5_exp_RW	93	Rpleas_acq	CS_B	YDDY	BZZB	JXXJ	GWWG	MQQM	VKKV	fair	ehrlich	retten	schön	treu	spielen	faul	eitel	rächen	schlecht	tot	strafen	1	acq_USunple_CSunple2_RW	acq2_RW	2	9	480	1	300	300	487	46	0	1	1	blank2r.bmp	0	1	+	0	1	blank2r.bmp	492	1	GWWG	492	1	blank2r.bmp	572	2	tot	866	1	!	1319	1	!	1386	0	0	0	0	0	0	0	0	0	0	0	0	0	0	0	0	0	0	0	0	0	0	0	0	0	0	0	0	0	0
081219	10:06:12	10:08:13	120710	5.0.10.0	5_exp_RW	93	Rpleas_acq	CS_B	YDDY	BZZB	JXXJ	GWWG	MQQM	VKKV	fair	ehrlich	retten	schön	treu	spielen	faul	eitel	rächen	schlecht	tot	strafen	1	acq_USunple_CSunple2_RW	acq2_RW	2	10	480	0	300	300	566	46	0	1	1	blank2r.bmp	0	1	+	0	1	blank2r.bmp	492	1	GWWG	492	1	blank2r.bmp	572	3	strafen	866	1	!	1319	1	!	-1	0	0	0	0	0	0	0	0	0	0	0	0	0	0	0	0	0	0	0	0	0	0	0	0	0	0	0	0	0	0
081219	10:06:12	10:08:15	122856	5.0.10.0	5_exp_RW	93	Rpleas_acq	CS_B	YDDY	BZZB	JXXJ	GWWG	MQQM	VKKV	fair	ehrlich	retten	schön	treu	spielen	faul	eitel	rächen	schlecht	tot	strafen	1	acq_USpleas_CSpleas2_RW	acq2_RW	2	11	480	0	300	300	365	50	0	1	1	blank2r.bmp	0	1	+	0	1	blank2r.bmp	492	1	BZZB	492	1	blank2r.bmp	572	3	spielen	866	1	!	-1	1	!	-1	0	0	0	0	0	0	0	0	0	0	0	0	0	0	0	0	0	0	0	0	0	0	0	0	0	0	0	0	0	0
081219	10:06:12	10:08:18	125308	5.0.10.0	5_exp_RW	93	Rpleas_acq	CS_B	YDDY	BZZB	JXXJ	GWWG	MQQM	VKKV	fair	ehrlich	retten	schön	treu	spielen	faul	eitel	rächen	schlecht	tot	strafen	1	acq_USpleas_CSpleas1_RW	acq2_RW	2	12	480	1	300	300	437	46	0	0	1	blank2r.bmp	0	1	+	0	1	blank2r.bmp	492	1	YDDY	492	1	blank2r.bmp	572	1	fair	866	1	FEHLER	1652	1	!	1319	1	!	1332	0	0	0	0	0	0	0	0	0	0	0	0	0	0	0	0	0	0	0	0	0	0	0	0	0	0	0
081219	10:06:12	10:08:21	128653	5.0.10.0	5_exp_RW	93	Rpleas_acq	CS_B	YDDY	BZZB	JXXJ	GWWG	MQQM	VKKV	fair	ehrlich	retten	schön	treu	spielen	faul	eitel	rächen	schlecht	tot	strafen	1	acq_USunple_CSunple1_RW	acq2_RW	2	13	480	0	300	300	1792	46	0	1	1	blank2r.bmp	0	1	+	0	1	blank2r.bmp	492	1	JXXJ	492	1	blank2r.bmp	572	1	faul	866	1	!	1319	1	!	-1	0	0	0	0	0	0	0	0	0	0	0	0	0	0	0	0	0	0	0	0	0	0	0	0	0	0	0	0	0	0
081219	10:06:12	10:08:24	130959	5.0.10.0	5_exp_RW	93	Rpleas_acq	CS_B	YDDY	BZZB	JXXJ	GWWG	MQQM	VKKV	fair	ehrlich	retten	schön	treu	spielen	faul	eitel	rächen	schlecht	tot	strafen	1	acq_USpleas_CSpleas2_RW	acq2_RW	2	14	480	1	300	300	499	50	0	1	1	blank2r.bmp	0	1	+	0	1	blank2r.bmp	492	1	BZZB	492	1	blank2r.bmp	572	2	treu	866	1	!	1319	1	!	1399	0	0	0	0	0	0	0	0	0	0	0	0	0	0	0	0	0	0	0	0	0	0	0	0	0	0	0	0	0	0
081219	10:06:12	10:08:26	133211	5.0.10.0	5_exp_RW	93	Rpleas_acq	CS_B	YDDY	BZZB	JXXJ	GWWG	MQQM	VKKV	fair	ehrlich	retten	schön	treu	spielen	faul	eitel	rächen	schlecht	tot	strafen	1	acq_USunple_CSunple2_RW	acq2_RW	2	15	480	1	300	300	463	46	0	1	1	blank2r.bmp	0	1	+	0	1	blank2r.bmp	492	1	GWWG	492	1	blank2r.bmp	572	1	schlecht	866	1	!	1319	1	!	1359	0	0	0	0	0	0	0	0	0	0	0	0	0	0	0	0	0	0	0	0	0	0	0	0	0	0	0	0	0	0
081219	10:06:12	10:08:28	135490	5.0.10.0	5_exp_RW	93	Rpleas_acq	CS_B	YDDY	BZZB	JXXJ	GWWG	MQQM	VKKV	fair	ehrlich	retten	schön	treu	spielen	faul	eitel	rächen	schlecht	tot	strafen	1	acq_USpleas_CSpleas2_RW	acq2_RW	2	16	480	1	300	300	483	50	0	1	1	blank2r.bmp	0	1	+	0	1	blank2r.bmp	492	1	BZZB	492	1	blank2r.bmp	572	1	schön	866	1	!	1319	1	!	1386	0	0	0	0	0	0	0	0	0	0	0	0	0	0	0	0	0	0	0	0	0	0	0	0	0	0	0	0	0	0
081219	10:06:12	10:08:30	137823	5.0.10.0	5_exp_RW	93	Rpleas_acq	CS_B	YDDY	BZZB	JXXJ	GWWG	MQQM	VKKV	fair	ehrlich	retten	schön	treu	spielen	faul	eitel	rächen	schlecht	tot	strafen	1	acq_USpleas_CSpleas1_RW	acq2_RW	2	17	480	0	300	300	565	50	0	1	1	blank2r.bmp	0	1	+	0	1	blank2r.bmp	492	1	YDDY	492	1	blank2r.bmp	572	2	ehrlich	866	1	!	1319	1	!	-1	0	0	0	0	0	0	0	0	0	0	0	0	0	0	0	0	0	0	0	0	0	0	0	0	0	0	0	0	0	0
081219	10:06:12	10:08:33	139942	5.0.10.0	5_exp_RW	93	Rpleas_acq	CS_B	YDDY	BZZB	JXXJ	GWWG	MQQM	VKKV	fair	ehrlich	retten	schön	treu	spielen	faul	eitel	rächen	schlecht	tot	strafen	1	acq_USpleas_CSpleas2_RW	acq2_RW	2	18	480	0	300	300	342	50	0	1	1	blank2r.bmp	0	1	+	0	1	blank2r.bmp	492	1	BZZB	492	1	blank2r.bmp	572	3	spielen	866	1	!	-1	1	!	-1	0	0	0	0	0	0	0	0	0	0	0	0	0	0	0	0	0	0	0	0	0	0	0	0	0	0	0	0	0	0
081219	10:06:12	10:08:35	142194	5.0.10.0	5_exp_RW	93	Rpleas_acq	CS_B	YDDY	BZZB	JXXJ	GWWG	MQQM	VKKV	fair	ehrlich	retten	schön	treu	spielen	faul	eitel	rächen	schlecht	tot	strafen	1	acq_USpleas_CSpleas1_RW	acq2_RW	2	19	480	1	300	300	426	50	0	1	1	blank2r.bmp	0	1	+	0	1	blank2r.bmp	492	1	YDDY	492	1	blank2r.bmp	572	3	retten	866	1	!	1319	1	!	1332	0	0	0	0	0	0	0	0	0	0	0	0	0	0	0	0	0	0	0	0	0	0	0	0	0	0	0	0	0	0
081219	10:06:12	10:08:37	144500	5.0.10.0	5_exp_RW	93	Rpleas_acq	CS_B	YDDY	BZZB	JXXJ	GWWG	MQQM	VKKV	fair	ehrlich	retten	schön	treu	spielen	faul	eitel	rächen	schlecht	tot	strafen	1	acq_USpleas_CSpleas2_RW	acq2_RW	2	20	480	1	300	300	508	50	0	1	1	blank2r.bmp	0	1	+	0	1	blank2r.bmp	492	1	BZZB	492	1	blank2r.bmp	572	3	spielen	866	1	!	1319	1	!	1412	0	0	0	0	0	0	0	0	0	0	0	0	0	0	0	0	0	0	0	0	0	0	0	0	0	0	0	0	0	0
081219	10:06:12	10:08:39	146832	5.0.10.0	5_exp_RW	93	Rpleas_acq	CS_B	YDDY	BZZB	JXXJ	GWWG	MQQM	VKKV	fair	ehrlich	retten	schön	treu	spielen	faul	eitel	rächen	schlecht	tot	strafen	1	acq_USunple_CSunple1_RW	acq2_RW	2	21	480	0	300	300	571	46	0	1	1	blank2r.bmp	0	1	+	0	1	blank2r.bmp	492	1	JXXJ	492	1	blank2r.bmp	572	2	eitel	866	1	!	1319	1	!	-1	0	0	0	0	0	0	0	0	0	0	0	0	0	0	0	0	0	0	0	0	0	0	0	0	0	0	0	0	0	0
081219	10:06:12	10:08:42	149125	5.0.10.0	5_exp_RW	93	Rpleas_acq	CS_B	YDDY	BZZB	JXXJ	GWWG	MQQM	VKKV	fair	ehrlich	retten	schön	treu	spielen	faul	eitel	rächen	schlecht	tot	strafen	1	acq_USunple_CSunple1_RW	acq2_RW	2	22	480	1	300	300	490	46	0	1	1	blank2r.bmp	0	1	+	0	1	blank2r.bmp	492	1	JXXJ	492	1	blank2r.bmp	572	1	faul	866	1	!	1319	1	!	1386	0	0	0	0	0	0	0	0	0	0	0	0	0	0	0	0	0	0	0	0	0	0	0	0	0	0	0	0	0	0
081219	10:06:12	10:08:44	151457	5.0.10.0	5_exp_RW	93	Rpleas_acq	CS_B	YDDY	BZZB	JXXJ	GWWG	MQQM	VKKV	fair	ehrlich	retten	schön	treu	spielen	faul	eitel	rächen	schlecht	tot	strafen	1	acq_USpleas_CSpleas1_RW	acq2_RW	2	23	480	1	300	300	533	50	0	1	1	blank2r.bmp	0	1	+	0	1	blank2r.bmp	492	1	YDDY	492	1	blank2r.bmp	572	3	retten	866	1	!	1319	1	!	1439	0	0	0	0	0	0	0	0	0	0	0	0	0	0	0	0	0	0	0	0	0	0	0	0	0	0	0	0	0	0
081219	10:06:12	10:08:46	153696	5.0.10.0	5_exp_RW	93	Rpleas_acq	CS_B	YDDY	BZZB	JXXJ	GWWG	MQQM	VKKV	fair	ehrlich	retten	schön	treu	spielen	faul	eitel	rächen	schlecht	tot	strafen	1	acq_USunple_CSunple2_RW	acq2_RW	2	24	480	1	300	300	450	46	0	1	1	blank2r.bmp	0	1	+	0	1	blank2r.bmp	492	1	GWWG	492	1	blank2r.bmp	572	3	strafen	866	1	!	1319	1	!	1346	0	0	0	0	0	0	0	0	0	0	0	0	0	0	0	0	0	0	0	0	0	0	0	0	0	0	0	0	0	0
081219	10:06:12	10:08:58	165691	5.0.10.0	5_exp_RW	93	Rpleas_acq	CS_B	YDDY	BZZB	JXXJ	GWWG	MQQM	VKKV	fair	ehrlich	retten	schön	treu	spielen	faul	eitel	rächen	schlecht	tot	strafen	1	acq_USpleas_CSpleas1_RW	acq3_RW	3	1	453	1	300	300	446	50	0	1	1	blank2r.bmp	0	1	+	0	1	blank2r.bmp	492	1	YDDY	492	1	blank2r.bmp	572	1	fair	866	1	!	1292	1	!	1346	0	0	0	0	0	0	0	0	0	0	0	0	0	0	0	0	0	0	0	0	0	0	0	0	0	0	0	0	0	0
081219	10:06:12	10:09:01	168010	5.0.10.0	5_exp_RW	93	Rpleas_acq	CS_B	YDDY	BZZB	JXXJ	GWWG	MQQM	VKKV	fair	ehrlich	retten	schön	treu	spielen	faul	eitel	rächen	schlecht	tot	strafen	1	acq_USunple_CSunple2_RW	acq3_RW	3	2	453	0	300	300	556	46	0	1	1	blank2r.bmp	0	1	+	0	1	blank2r.bmp	492	1	GWWG	492	1	blank2r.bmp	572	2	tot	866	1	!	1292	1	!	-1	0	0	0	0	0	0	0	0	0	0	0	0	0	0	0	0	0	0	0	0	0	0	0	0	0	0	0	0	0	0
081219	10:06:12	10:09:03	170276	5.0.10.0	5_exp_RW	93	Rpleas_acq	CS_B	YDDY	BZZB	JXXJ	GWWG	MQQM	VKKV	fair	ehrlich	retten	schön	treu	spielen	faul	eitel	rächen	schlecht	tot	strafen	1	acq_USunple_CSunple1_RW	acq3_RW	3	3	453	1	300	300	459	46	0	1	1	blank2r.bmp	0	1	+	0	1	blank2r.bmp	492	1	JXXJ	492	1	blank2r.bmp	572	2	eitel	866	1	!	1292	1	!	1359	0	0	0	0	0	0	0	0	0	0	0	0	0	0	0	0	0	0	0	0	0	0	0	0	0	0	0	0	0	0
081219	10:06:12	10:09:05	172542	5.0.10.0	5_exp_RW	93	Rpleas_acq	CS_B	YDDY	BZZB	JXXJ	GWWG	MQQM	VKKV	fair	ehrlich	retten	schön	treu	spielen	faul	eitel	rächen	schlecht	tot	strafen	1	acq_USpleas_CSpleas1_RW	acq3_RW	3	4	453	1	300	300	468	50	0	1	1	blank2r.bmp	0	1	+	0	1	blank2r.bmp	492	1	YDDY	492	1	blank2r.bmp	572	2	ehrlich	866	1	!	1292	1	!	1372	0	0	0	0	0	0	0	0	0	0	0	0	0	0	0	0	0	0	0	0	0	0	0	0	0	0	0	0	0	0
081219	10:06:12	10:09:07	174821	5.0.10.0	5_exp_RW	93	Rpleas_acq	CS_B	YDDY	BZZB	JXXJ	GWWG	MQQM	VKKV	fair	ehrlich	retten	schön	treu	spielen	faul	eitel	rächen	schlecht	tot	strafen	1	acq_USpleas_CSpleas2_RW	acq3_RW	3	5	453	1	300	300	471	50	0	1	1	blank2r.bmp	0	1	+	0	1	blank2r.bmp	492	1	BZZB	492	1	blank2r.bmp	572	1	schön	866	1	!	1292	1	!	1372	0	0	0	0	0	0	0	0	0	0	0	0	0	0	0	0	0	0	0	0	0	0	0	0	0	0	0	0	0	0
081219	10:06:12	10:09:10	177153	5.0.10.0	5_exp_RW	93	Rpleas_acq	CS_B	YDDY	BZZB	JXXJ	GWWG	MQQM	VKKV	fair	ehrlich	retten	schön	treu	spielen	faul	eitel	rächen	schlecht	tot	strafen	1	acq_USpleas_CSpleas2_RW	acq3_RW	3	6	453	0	300	300	553	50	0	1	1	blank2r.bmp	0	1	+	0	1	blank2r.bmp	492	1	BZZB	492	1	blank2r.bmp	572	2	treu	866	1	!	1292	1	!	-1	0	0	0	0	0	0	0	0	0	0	0	0	0	0	0	0	0	0	0	0	0	0	0	0	0	0	0	0	0	0
081219	10:06:12	10:09:12	179526	5.0.10.0	5_exp_RW	93	Rpleas_acq	CS_B	YDDY	BZZB	JXXJ	GWWG	MQQM	VKKV	fair	ehrlich	retten	schön	treu	spielen	faul	eitel	rächen	schlecht	tot	strafen	1	acq_USunple_CSunple2_RW	acq3_RW	3	7	453	0	300	300	592	46	0	1	1	blank2r.bmp	0	1	+	0	1	blank2r.bmp	492	1	GWWG	492	1	blank2r.bmp	572	1	schlecht	866	1	!	1292	1	!	-1	0	0	0	0	0	0	0	0	0	0	0	0	0	0	0	0	0	0	0	0	0	0	0	0	0	0	0	0	0	0
081219	10:06:12	10:09:14	181818	5.0.10.0	5_exp_RW	93	Rpleas_acq	CS_B	YDDY	BZZB	JXXJ	GWWG	MQQM	VKKV	fair	ehrlich	retten	schön	treu	spielen	faul	eitel	rächen	schlecht	tot	strafen	1	acq_USpleas_CSpleas1_RW	acq3_RW	3	8	453	1	300	300	480	50	0	1	1	blank2r.bmp	0	1	+	0	1	blank2r.bmp	492	1	YDDY	492	1	blank2r.bmp	572	1	fair	866	1	!	1292	1	!	1386	0	0	0	0	0	0	0	0	0	0	0	0	0	0	0	0	0	0	0	0	0	0	0	0	0	0	0	0	0	0
081219	10:06:12	10:09:17	184097	5.0.10.0	5_exp_RW	93	Rpleas_acq	CS_B	YDDY	BZZB	JXXJ	GWWG	MQQM	VKKV	fair	ehrlich	retten	schön	treu	spielen	faul	eitel	rächen	schlecht	tot	strafen	1	acq_USunple_CSunple1_RW	acq3_RW	3	9	453	1	300	300	487	46	0	1	1	blank2r.bmp	0	1	+	0	1	blank2r.bmp	492	1	JXXJ	492	1	blank2r.bmp	572	3	rächen	866	1	!	1292	1	!	1386	0	0	0	0	0	0	0	0	0	0	0	0	0	0	0	0	0	0	0	0	0	0	0	0	0	0	0	0	0	0
081219	10:06:12	10:09:19	186403	5.0.10.0	5_exp_RW	93	Rpleas_acq	CS_B	YDDY	BZZB	JXXJ	GWWG	MQQM	VKKV	fair	ehrlich	retten	schön	treu	spielen	faul	eitel	rächen	schlecht	tot	strafen	1	acq_USpleas_CSpleas2_RW	acq3_RW	3	10	453	0	300	300	532	50	0	1	1	blank2r.bmp	0	1	+	0	1	blank2r.bmp	492	1	BZZB	492	1	blank2r.bmp	572	3	spielen	866	1	!	1292	1	!	-1	0	0	0	0	0	0	0	0	0	0	0	0	0	0	0	0	0	0	0	0	0	0	0	0	0	0	0	0	0	0
081219	10:06:12	10:09:21	188735	5.0.10.0	5_exp_RW	93	Rpleas_acq	CS_B	YDDY	BZZB	JXXJ	GWWG	MQQM	VKKV	fair	ehrlich	retten	schön	treu	spielen	faul	eitel	rächen	schlecht	tot	strafen	1	acq_USunple_CSunple2_RW	acq3_RW	3	11	453	0	300	300	320	50	0	0	1	blank2r.bmp	0	1	+	0	1	blank2r.bmp	492	1	GWWG	492	1	blank2r.bmp	572	3	strafen	866	1	FEHLER	1532	1	!	-1	1	!	-1	0	0	0	0	0	0	0	0	0	0	0	0	0	0	0	0	0	0	0	0	0	0	0	0	0	0	0
081219	10:06:12	10:09:23	190801	5.0.10.0	5_exp_RW	93	Rpleas_acq	CS_B	YDDY	BZZB	JXXJ	GWWG	MQQM	VKKV	fair	ehrlich	retten	schön	treu	spielen	faul	eitel	rächen	schlecht	tot	strafen	1	acq_USunple_CSunple1_RW	acq3_RW	3	12	453	1	300	300	488	46	0	1	1	blank2r.bmp	0	1	+	0	1	blank2r.bmp	492	1	JXXJ	492	1	blank2r.bmp	572	1	faul	866	1	!	1292	1	!	1386	0	0	0	0	0	0	0	0	0	0	0	0	0	0	0	0	0	0	0	0	0	0	0	0	0	0	0	0	0	0
081219	10:06:12	10:09:26	193000	5.0.10.0	5_exp_RW	93	Rpleas_acq	CS_B	YDDY	BZZB	JXXJ	GWWG	MQQM	VKKV	fair	ehrlich	retten	schön	treu	spielen	faul	eitel	rächen	schlecht	tot	strafen	1	acq_USunple_CSunple2_RW	acq3_RW	3	13	453	1	300	300	400	46	0	1	1	blank2r.bmp	0	1	+	0	1	blank2r.bmp	492	1	GWWG	492	1	blank2r.bmp	572	2	tot	866	1	!	1292	1	!	1306	0	0	0	0	0	0	0	0	0	0	0	0	0	0	0	0	0	0	0	0	0	0	0	0	0	0	0	0	0	0
081219	10:06:12	10:09:28	195199	5.0.10.0	5_exp_RW	93	Rpleas_acq	CS_B	YDDY	BZZB	JXXJ	GWWG	MQQM	VKKV	fair	ehrlich	retten	schön	treu	spielen	faul	eitel	rächen	schlecht	tot	strafen	1	acq_USpleas_CSpleas2_RW	acq3_RW	3	14	453	1	300	300	399	50	0	1	1	blank2r.bmp	0	1	+	0	1	blank2r.bmp	492	1	BZZB	492	1	blank2r.bmp	572	1	schön	866	1	!	1292	1	!	1306	0	0	0	0	0	0	0	0	0	0	0	0	0	0	0	0	0	0	0	0	0	0	0	0	0	0	0	0	0	0
081219	10:06:12	10:09:30	197318	5.0.10.0	5_exp_RW	93	Rpleas_acq	CS_B	YDDY	BZZB	JXXJ	GWWG	MQQM	VKKV	fair	ehrlich	retten	schön	treu	spielen	faul	eitel	rächen	schlecht	tot	strafen	1	acq_USpleas_CSpleas1_RW	acq3_RW	3	15	453	0	300	300	347	50	0	1	1	blank2r.bmp	0	1	+	0	1	blank2r.bmp	492	1	YDDY	492	1	blank2r.bmp	572	2	ehrlich	866	1	!	-1	1	!	-1	0	0	0	0	0	0	0	0	0	0	0	0	0	0	0	0	0	0	0	0	0	0	0	0	0	0	0	0	0	0
081219	10:06:12	10:09:32	199611	5.0.10.0	5_exp_RW	93	Rpleas_acq	CS_B	YDDY	BZZB	JXXJ	GWWG	MQQM	VKKV	fair	ehrlich	retten	schön	treu	spielen	faul	eitel	rächen	schlecht	tot	strafen	1	acq_USunple_CSunple1_RW	acq3_RW	3	16	453	1	300	300	467	46	0	1	1	blank2r.bmp	0	1	+	0	1	blank2r.bmp	492	1	JXXJ	492	1	blank2r.bmp	572	2	eitel	866	1	!	1292	1	!	1372	0	0	0	0	0	0	0	0	0	0	0	0	0	0	0	0	0	0	0	0	0	0	0	0	0	0	0	0	0	0
081219	10:06:12	10:09:34	201823	5.0.10.0	5_exp_RW	93	Rpleas_acq	CS_B	YDDY	BZZB	JXXJ	GWWG	MQQM	VKKV	fair	ehrlich	retten	schön	treu	spielen	faul	eitel	rächen	schlecht	tot	strafen	1	acq_USunple_CSunple1_RW	acq3_RW	3	17	453	1	300	300	422	46	0	1	1	blank2r.bmp	0	1	+	0	1	blank2r.bmp	492	1	JXXJ	492	1	blank2r.bmp	572	3	rächen	866	1	!	1292	1	!	1319	0	0	0	0	0	0	0	0	0	0	0	0	0	0	0	0	0	0	0	0	0	0	0	0	0	0	0	0	0	0
081219	10:06:12	10:09:37	204129	5.0.10.0	5_exp_RW	93	Rpleas_acq	CS_B	YDDY	BZZB	JXXJ	GWWG	MQQM	VKKV	fair	ehrlich	retten	schön	treu	spielen	faul	eitel	rächen	schlecht	tot	strafen	1	acq_USunple_CSunple2_RW	acq3_RW	3	18	453	1	300	300	501	46	0	1	1	blank2r.bmp	0	1	+	0	1	blank2r.bmp	492	1	GWWG	492	1	blank2r.bmp	572	1	schlecht	866	1	!	1292	1	!	1399	0	0	0	0	0	0	0	0	0	0	0	0	0	0	0	0	0	0	0	0	0	0	0	0	0	0	0	0	0	0
081219	10:06:12	10:09:39	206555	5.0.10.0	5_exp_RW	93	Rpleas_acq	CS_B	YDDY	BZZB	JXXJ	GWWG	MQQM	VKKV	fair	ehrlich	retten	schön	treu	spielen	faul	eitel	rächen	schlecht	tot	strafen	1	acq_USpleas_CSpleas1_RW	acq3_RW	3	19	453	1	300	300	417	46	0	0	1	blank2r.bmp	0	1	+	0	1	blank2r.bmp	492	1	YDDY	492	1	blank2r.bmp	572	3	retten	866	1	FEHLER	1639	1	!	1292	1	!	1319	0	0	0	0	0	0	0	0	0	0	0	0	0	0	0	0	0	0	0	0	0	0	0	0	0	0	0
081219	10:06:12	10:09:41	208607	5.0.10.0	5_exp_RW	93	Rpleas_acq	CS_B	YDDY	BZZB	JXXJ	GWWG	MQQM	VKKV	fair	ehrlich	retten	schön	treu	spielen	faul	eitel	rächen	schlecht	tot	strafen	1	acq_USunple_CSunple2_RW	acq3_RW	3	20	453	1	300	300	477	46	0	1	1	blank2r.bmp	0	1	+	0	1	blank2r.bmp	492	1	GWWG	492	1	blank2r.bmp	572	2	tot	866	1	!	1292	1	!	1372	0	0	0	0	0	0	0	0	0	0	0	0	0	0	0	0	0	0	0	0	0	0	0	0	0	0	0	0	0	0
081219	10:06:12	10:09:43	210873	5.0.10.0	5_exp_RW	93	Rpleas_acq	CS_B	YDDY	BZZB	JXXJ	GWWG	MQQM	VKKV	fair	ehrlich	retten	schön	treu	spielen	faul	eitel	rächen	schlecht	tot	strafen	1	acq_USpleas_CSpleas1_RW	acq3_RW	3	21	453	1	300	300	474	50	0	1	1	blank2r.bmp	0	1	+	0	1	blank2r.bmp	492	1	YDDY	492	1	blank2r.bmp	572	2	ehrlich	866	1	!	1292	1	!	1372	0	0	0	0	0	0	0	0	0	0	0	0	0	0	0	0	0	0	0	0	0	0	0	0	0	0	0	0	0	0
081219	10:06:12	10:09:46	213245	5.0.10.0	5_exp_RW	93	Rpleas_acq	CS_B	YDDY	BZZB	JXXJ	GWWG	MQQM	VKKV	fair	ehrlich	retten	schön	treu	spielen	faul	eitel	rächen	schlecht	tot	strafen	1	acq_USpleas_CSpleas2_RW	acq3_RW	3	22	453	0	300	300	608	50	0	1	1	blank2r.bmp	0	1	+	0	1	blank2r.bmp	492	1	BZZB	492	1	blank2r.bmp	572	2	treu	866	1	!	1292	1	!	-1	0	0	0	0	0	0	0	0	0	0	0	0	0	0	0	0	0	0	0	0	0	0	0	0	0	0	0	0	0	0
081219	10:06:12	10:09:48	215471	5.0.10.0	5_exp_RW	93	Rpleas_acq	CS_B	YDDY	BZZB	JXXJ	GWWG	MQQM	VKKV	fair	ehrlich	retten	schön	treu	spielen	faul	eitel	rächen	schlecht	tot	strafen	1	acq_USunple_CSunple1_RW	acq3_RW	3	23	453	1	300	300	399	46	0	1	1	blank2r.bmp	0	1	+	0	1	blank2r.bmp	492	1	JXXJ	492	1	blank2r.bmp	572	1	faul	866	1	!	1292	1	!	1306	0	0	0	0	0	0	0	0	0	0	0	0	0	0	0	0	0	0	0	0	0	0	0	0	0	0	0	0	0	0
081219	10:06:12	10:09:50	217817	5.0.10.0	5_exp_RW	93	Rpleas_acq	CS_B	YDDY	BZZB	JXXJ	GWWG	MQQM	VKKV	fair	ehrlich	retten	schön	treu	spielen	faul	eitel	rächen	schlecht	tot	strafen	1	acq_USpleas_CSpleas2_RW	acq3_RW	3	24	453	0	300	300	577	50	0	1	1	blank2r.bmp	0	1	+	0	1	blank2r.bmp	492	1	BZZB	492	1	blank2r.bmp	572	2	treu	866	1	!	1292	1	!	-1	0	0	0	0	0	0	0	0	0	0	0	0	0	0	0	0	0	0	0	0	0	0	0	0	0	0	0	0	0	0
081219	10:06:12	10:10:06	233877	5.0.10.0	5_exp_RW	93	Rpleas_acq	CS_B	YDDY	BZZB	JXXJ	GWWG	MQQM	VKKV	fair	ehrlich	retten	schön	treu	spielen	faul	eitel	rächen	schlecht	tot	strafen	1	acq_USunple_CSunple1_RW	acq4567_RW	4	1	400	0	300	300	568	46	0	1	1	blank2r.bmp	0	1	+	0	1	blank2r.bmp	492	1	JXXJ	492	1	blank2r.bmp	572	2	eitel	866	1	!	1239	1	!	-1	0	0	0	0	0	0	0	0	0	0	0	0	0	0	0	0	0	0	0	0	0	0	0	0	0	0	0	0	0	0
081219	10:06:12	10:10:09	236143	5.0.10.0	5_exp_RW	93	Rpleas_acq	CS_B	YDDY	BZZB	JXXJ	GWWG	MQQM	VKKV	fair	ehrlich	retten	schön	treu	spielen	faul	eitel	rächen	schlecht	tot	strafen	1	acq_USunple_CSunple1_RW	acq4567_RW	4	2	400	0	300	300	479	46	0	1	1	blank2r.bmp	0	1	+	0	1	blank2r.bmp	492	1	JXXJ	492	1	blank2r.bmp	572	3	rächen	866	1	!	1239	1	!	-1	0	0	0	0	0	0	0	0	0	0	0	0	0	0	0	0	0	0	0	0	0	0	0	0	0	0	0	0	0	0
081219	10:06:12	10:10:11	238328	5.0.10.0	5_exp_RW	93	Rpleas_acq	CS_B	YDDY	BZZB	JXXJ	GWWG	MQQM	VKKV	fair	ehrlich	retten	schön	treu	spielen	faul	eitel	rächen	schlecht	tot	strafen	1	acq_USunple_CSunple1_RW	acq4567_RW	4	3	400	1	300	300	381	50	0	0	1	blank2r.bmp	0	1	+	0	1	blank2r.bmp	492	1	JXXJ	492	1	blank2r.bmp	572	3	rächen	866	1	!	1239	1	!	1279	0	0	0	0	0	0	0	0	0	0	0	0	0	0	0	0	0	0	0	0	0	0	0	0	0	0	0	0	0	0
081219	10:06:12	10:10:16	243326	5.0.10.0	5_exp_RW	93	Rpleas_acq	CS_B	YDDY	BZZB	JXXJ	GWWG	MQQM	VKKV	fair	ehrlich	retten	schön	treu	spielen	faul	eitel	rächen	schlecht	tot	strafen	1	acq_USpleas_CSpleas1_RW	acq4567_RW	4	4	400	0	300	300	3219	50	0	1	1	blank2r.bmp	0	1	+	0	1	blank2r.bmp	492	1	YDDY	492	1	blank2r.bmp	572	1	fair	866	1	!	1239	1	!	-1	0	0	0	0	0	0	0	0	0	0	0	0	0	0	0	0	0	0	0	0	0	0	0	0	0	0	0	0	0	0
081219	10:06:12	10:10:18	245552	5.0.10.0	5_exp_RW	93	Rpleas_acq	CS_B	YDDY	BZZB	JXXJ	GWWG	MQQM	VKKV	fair	ehrlich	retten	schön	treu	spielen	faul	eitel	rächen	schlecht	tot	strafen	1	acq_USpleas_CSpleas2_RW	acq4567_RW	4	5	400	1	300	300	418	50	0	1	1	blank2r.bmp	0	1	+	0	1	blank2r.bmp	492	1	BZZB	492	1	blank2r.bmp	572	1	schön	866	1	!	1239	1	!	1319	0	0	0	0	0	0	0	0	0	0	0	0	0	0	0	0	0	0	0	0	0	0	0	0	0	0	0	0	0	0
081219	10:06:12	10:10:20	247738	5.0.10.0	5_exp_RW	93	Rpleas_acq	CS_B	YDDY	BZZB	JXXJ	GWWG	MQQM	VKKV	fair	ehrlich	retten	schön	treu	spielen	faul	eitel	rächen	schlecht	tot	strafen	1	acq_USunple_CSunple2_RW	acq4567_RW	4	6	400	1	300	300	395	50	0	0	1	blank2r.bmp	0	1	+	0	1	blank2r.bmp	492	1	GWWG	492	1	blank2r.bmp	572	3	strafen	866	1	!	1239	1	!	1292	0	0	0	0	0	0	0	0	0	0	0	0	0	0	0	0	0	0	0	0	0	0	0	0	0	0	0	0	0	0
081219	10:06:12	10:10:24	251016	5.0.10.0	5_exp_RW	93	Rpleas_acq	CS_B	YDDY	BZZB	JXXJ	GWWG	MQQM	VKKV	fair	ehrlich	retten	schön	treu	spielen	faul	eitel	rächen	schlecht	tot	strafen	1	acq_USunple_CSunple1_RW	acq4567_RW	4	7	400	0	300	300	1513	46	0	1	1	blank2r.bmp	0	1	+	0	1	blank2r.bmp	492	1	JXXJ	492	1	blank2r.bmp	572	1	faul	866	1	!	1239	1	!	-1	0	0	0	0	0	0	0	0	0	0	0	0	0	0	0	0	0	0	0	0	0	0	0	0	0	0	0	0	0	0
081219	10:06:12	10:10:26	253109	5.0.10.0	5_exp_RW	93	Rpleas_acq	CS_B	YDDY	BZZB	JXXJ	GWWG	MQQM	VKKV	fair	ehrlich	retten	schön	treu	spielen	faul	eitel	rächen	schlecht	tot	strafen	1	acq_USunple_CSunple1_RW	acq4567_RW	4	8	400	0	300	300	305	46	0	1	1	blank2r.bmp	0	1	+	0	1	blank2r.bmp	492	1	JXXJ	492	1	blank2r.bmp	572	2	eitel	866	1	!	-1	1	!	-1	0	0	0	0	0	0	0	0	0	0	0	0	0	0	0	0	0	0	0	0	0	0	0	0	0	0	0	0	0	0
081219	10:06:12	10:10:28	255188	5.0.10.0	5_exp_RW	93	Rpleas_acq	CS_B	YDDY	BZZB	JXXJ	GWWG	MQQM	VKKV	fair	ehrlich	retten	schön	treu	spielen	faul	eitel	rächen	schlecht	tot	strafen	1	acq_USunple_CSunple2_RW	acq4567_RW	4	9	400	0	300	300	293	50	0	0	1	blank2r.bmp	0	1	+	0	1	blank2r.bmp	492	1	GWWG	492	1	blank2r.bmp	572	1	schlecht	866	1	!	-1	1	!	-1	0	0	0	0	0	0	0	0	0	0	0	0	0	0	0	0	0	0	0	0	0	0	0	0	0	0	0	0	0	0
081219	10:06:12	10:10:30	257480	5.0.10.0	5_exp_RW	93	Rpleas_acq	CS_B	YDDY	BZZB	JXXJ	GWWG	MQQM	VKKV	fair	ehrlich	retten	schön	treu	spielen	faul	eitel	rächen	schlecht	tot	strafen	1	acq_USpleas_CSpleas2_RW	acq4567_RW	4	10	400	0	300	300	506	50	0	1	1	blank2r.bmp	0	1	+	0	1	blank2r.bmp	492	1	BZZB	492	1	blank2r.bmp	572	3	spielen	866	1	!	1239	1	!	-1	0	0	0	0	0	0	0	0	0	0	0	0	0	0	0	0	0	0	0	0	0	0	0	0	0	0	0	0	0	0
081219	10:06:12	10:10:32	259440	5.0.10.0	5_exp_RW	93	Rpleas_acq	CS_B	YDDY	BZZB	JXXJ	GWWG	MQQM	VKKV	fair	ehrlich	retten	schön	treu	spielen	faul	eitel	rächen	schlecht	tot	strafen	1	acq_USpleas_CSpleas2_RW	acq4567_RW	4	11	400	0	300	300	175	46	0	0	1	blank2r.bmp	0	1	+	0	1	blank2r.bmp	492	1	BZZB	492	1	blank2r.bmp	572	2	treu	866	1	!	-1	1	!	-1	0	0	0	0	0	0	0	0	0	0	0	0	0	0	0	0	0	0	0	0	0	0	0	0	0	0	0	0	0	0
081219	10:06:12	10:10:36	262918	5.0.10.0	5_exp_RW	93	Rpleas_acq	CS_B	YDDY	BZZB	JXXJ	GWWG	MQQM	VKKV	fair	ehrlich	retten	schön	treu	spielen	faul	eitel	rächen	schlecht	tot	strafen	1	acq_USpleas_CSpleas2_RW	acq4567_RW	4	12	400	0	300	300	1696	50	0	1	1	blank2r.bmp	0	1	+	0	1	blank2r.bmp	492	1	BZZB	492	1	blank2r.bmp	572	1	schön	866	1	!	1239	1	!	-1	0	0	0	0	0	0	0	0	0	0	0	0	0	0	0	0	0	0	0	0	0	0	0	0	0	0	0	0	0	0
081219	10:06:12	10:10:38	265197	5.0.10.0	5_exp_RW	93	Rpleas_acq	CS_B	YDDY	BZZB	JXXJ	GWWG	MQQM	VKKV	fair	ehrlich	retten	schön	treu	spielen	faul	eitel	rächen	schlecht	tot	strafen	1	acq_USunple_CSunple2_RW	acq4567_RW	4	13	400	1	300	300	466	46	0	1	1	blank2r.bmp	0	1	+	0	1	blank2r.bmp	492	1	GWWG	492	1	blank2r.bmp	572	1	schlecht	866	1	!	1239	1	!	1372	0	0	0	0	0	0	0	0	0	0	0	0	0	0	0	0	0	0	0	0	0	0	0	0	0	0	0	0	0	0
081219	10:06:12	10:10:40	267450	5.0.10.0	5_exp_RW	93	Rpleas_acq	CS_B	YDDY	BZZB	JXXJ	GWWG	MQQM	VKKV	fair	ehrlich	retten	schön	treu	spielen	faul	eitel	rächen	schlecht	tot	strafen	1	acq_USunple_CSunple2_RW	acq4567_RW	4	14	400	1	300	300	458	46	0	1	1	blank2r.bmp	0	1	+	0	1	blank2r.bmp	492	1	GWWG	492	1	blank2r.bmp	572	2	tot	866	1	!	1239	1	!	1359	0	0	0	0	0	0	0	0	0	0	0	0	0	0	0	0	0	0	0	0	0	0	0	0	0	0	0	0	0	0
081219	10:06:12	10:10:42	269476	5.0.10.0	5_exp_RW	93	Rpleas_acq	CS_B	YDDY	BZZB	JXXJ	GWWG	MQQM	VKKV	fair	ehrlich	retten	schön	treu	spielen	faul	eitel	rächen	schlecht	tot	strafen	1	acq_USpleas_CSpleas1_RW	acq4567_RW	4	15	400	0	300	300	259	46	0	0	1	blank2r.bmp	0	1	+	0	1	blank2r.bmp	492	1	YDDY	492	1	blank2r.bmp	572	3	retten	866	1	!	-1	1	!	-1	0	0	0	0	0	0	0	0	0	0	0	0	0	0	0	0	0	0	0	0	0	0	0	0	0	0	0	0	0	0
081219	10:06:12	10:10:45	272688	5.0.10.0	5_exp_RW	93	Rpleas_acq	CS_B	YDDY	BZZB	JXXJ	GWWG	MQQM	VKKV	fair	ehrlich	retten	schön	treu	spielen	faul	eitel	rächen	schlecht	tot	strafen	1	acq_USpleas_CSpleas1_RW	acq4567_RW	4	16	400	0	300	300	1427	50	0	1	1	blank2r.bmp	0	1	+	0	1	blank2r.bmp	492	1	YDDY	492	1	blank2r.bmp	572	3	retten	866	1	!	1239	1	!	-1	0	0	0	0	0	0	0	0	0	0	0	0	0	0	0	0	0	0	0	0	0	0	0	0	0	0	0	0	0	0
081219	10:06:12	10:10:48	275580	5.0.10.0	5_exp_RW	93	Rpleas_acq	CS_B	YDDY	BZZB	JXXJ	GWWG	MQQM	VKKV	fair	ehrlich	retten	schön	treu	spielen	faul	eitel	rächen	schlecht	tot	strafen	1	acq_USpleas_CSpleas2_RW	acq4567_RW	4	17	400	0	300	300	1105	50	0	1	1	blank2r.bmp	0	1	+	0	1	blank2r.bmp	492	1	BZZB	492	1	blank2r.bmp	572	3	spielen	866	1	!	1239	1	!	-1	0	0	0	0	0	0	0	0	0	0	0	0	0	0	0	0	0	0	0	0	0	0	0	0	0	0	0	0	0	0
081219	10:06:12	10:10:50	277526	5.0.10.0	5_exp_RW	93	Rpleas_acq	CS_B	YDDY	BZZB	JXXJ	GWWG	MQQM	VKKV	fair	ehrlich	retten	schön	treu	spielen	faul	eitel	rächen	schlecht	tot	strafen	1	acq_USunple_CSunple2_RW	acq4567_RW	4	18	400	0	300	300	170	50	0	0	1	blank2r.bmp	0	1	+	0	1	blank2r.bmp	492	1	GWWG	492	1	blank2r.bmp	572	3	strafen	866	1	!	-1	1	!	-1	0	0	0	0	0	0	0	0	0	0	0	0	0	0	0	0	0	0	0	0	0	0	0	0	0	0	0	0	0	0
081219	10:06:12	10:10:52	279485	5.0.10.0	5_exp_RW	93	Rpleas_acq	CS_B	YDDY	BZZB	JXXJ	GWWG	MQQM	VKKV	fair	ehrlich	retten	schön	treu	spielen	faul	eitel	rächen	schlecht	tot	strafen	1	acq_USpleas_CSpleas1_RW	acq4567_RW	4	19	400	0	300	300	183	50	0	1	1	blank2r.bmp	0	1	+	0	1	blank2r.bmp	492	1	YDDY	492	1	blank2r.bmp	572	1	fair	866	1	!	-1	1	!	-1	0	0	0	0	0	0	0	0	0	0	0	0	0	0	0	0	0	0	0	0	0	0	0	0	0	0	0	0	0	0
081219	10:06:12	10:10:54	281444	5.0.10.0	5_exp_RW	93	Rpleas_acq	CS_B	YDDY	BZZB	JXXJ	GWWG	MQQM	VKKV	fair	ehrlich	retten	schön	treu	spielen	faul	eitel	rächen	schlecht	tot	strafen	1	acq_USpleas_CSpleas1_RW	acq4567_RW	4	20	400	0	300	300	178	46	0	0	1	blank2r.bmp	0	1	+	0	1	blank2r.bmp	492	1	YDDY	492	1	blank2r.bmp	572	2	ehrlich	866	1	!	-1	1	!	-1	0	0	0	0	0	0	0	0	0	0	0	0	0	0	0	0	0	0	0	0	0	0	0	0	0	0	0	0	0	0
081219	10:06:12	10:10:56	283603	5.0.10.0	5_exp_RW	93	Rpleas_acq	CS_B	YDDY	BZZB	JXXJ	GWWG	MQQM	VKKV	fair	ehrlich	retten	schön	treu	spielen	faul	eitel	rächen	schlecht	tot	strafen	1	acq_USpleas_CSpleas2_RW	acq4567_RW	4	21	400	1	300	300	353	50	0	1	1	blank2r.bmp	0	1	+	0	1	blank2r.bmp	492	1	BZZB	492	1	blank2r.bmp	572	1	schön	866	1	!	1239	1	!	1252	0	0	0	0	0	0	0	0	0	0	0	0	0	0	0	0	0	0	0	0	0	0	0	0	0	0	0	0	0	0
081219	10:06:12	10:10:59	286482	5.0.10.0	5_exp_RW	93	Rpleas_acq	CS_B	YDDY	BZZB	JXXJ	GWWG	MQQM	VKKV	fair	ehrlich	retten	schön	treu	spielen	faul	eitel	rächen	schlecht	tot	strafen	1	acq_USpleas_CSpleas2_RW	acq4567_RW	4	22	400	0	300	300	1114	50	0	1	1	blank2r.bmp	0	1	+	0	1	blank2r.bmp	492	1	BZZB	492	1	blank2r.bmp	572	3	spielen	866	1	!	1239	1	!	-1	0	0	0	0	0	0	0	0	0	0	0	0	0	0	0	0	0	0	0	0	0	0	0	0	0	0	0	0	0	0
081219	10:06:12	10:11:01	288588	5.0.10.0	5_exp_RW	93	Rpleas_acq	CS_B	YDDY	BZZB	JXXJ	GWWG	MQQM	VKKV	fair	ehrlich	retten	schön	treu	spielen	faul	eitel	rächen	schlecht	tot	strafen	1	acq_USunple_CSunple1_RW	acq4567_RW	4	23	400	0	300	300	322	46	0	1	1	blank2r.bmp	0	1	+	0	1	blank2r.bmp	492	1	JXXJ	492	1	blank2r.bmp	572	2	eitel	866	1	!	-1	1	!	-1	0	0	0	0	0	0	0	0	0	0	0	0	0	0	0	0	0	0	0	0	0	0	0	0	0	0	0	0	0	0
081219	10:06:12	10:11:03	290680	5.0.10.0	5_exp_RW	93	Rpleas_acq	CS_B	YDDY	BZZB	JXXJ	GWWG	MQQM	VKKV	fair	ehrlich	retten	schön	treu	spielen	faul	eitel	rächen	schlecht	tot	strafen	1	acq_USpleas_CSpleas1_RW	acq4567_RW	4	24	400	0	300	300	306	50	0	1	1	blank2r.bmp	0	1	+	0	1	blank2r.bmp	492	1	YDDY	492	1	blank2r.bmp	572	3	retten	866	1	!	-1	1	!	-1	0	0	0	0	0	0	0	0	0	0	0	0	0	0	0	0	0	0	0	0	0	0	0	0	0	0	0	0	0	0
081219	10:06:12	10:11:06	292999	5.0.10.0	5_exp_RW	93	Rpleas_acq	CS_B	YDDY	BZZB	JXXJ	GWWG	MQQM	VKKV	fair	ehrlich	retten	schön	treu	spielen	faul	eitel	rächen	schlecht	tot	strafen	1	acq_USunple_CSunple2_RW	acq4567_RW	4	25	400	0	300	300	539	46	0	1	1	blank2r.bmp	0	1	+	0	1	blank2r.bmp	492	1	GWWG	492	1	blank2r.bmp	572	2	tot	866	1	!	1239	1	!	-1	0	0	0	0	0	0	0	0	0	0	0	0	0	0	0	0	0	0	0	0	0	0	0	0	0	0	0	0	0	0
081219	10:06:12	10:11:08	294958	5.0.10.0	5_exp_RW	93	Rpleas_acq	CS_B	YDDY	BZZB	JXXJ	GWWG	MQQM	VKKV	fair	ehrlich	retten	schön	treu	spielen	faul	eitel	rächen	schlecht	tot	strafen	1	acq_USpleas_CSpleas1_RW	acq4567_RW	4	26	400	0	300	300	182	50	0	1	1	blank2r.bmp	0	1	+	0	1	blank2r.bmp	492	1	YDDY	492	1	blank2r.bmp	572	1	fair	866	1	!	-1	1	!	-1	0	0	0	0	0	0	0	0	0	0	0	0	0	0	0	0	0	0	0	0	0	0	0	0	0	0	0	0	0	0
081219	10:06:12	10:11:10	297064	5.0.10.0	5_exp_RW	93	Rpleas_acq	CS_B	YDDY	BZZB	JXXJ	GWWG	MQQM	VKKV	fair	ehrlich	retten	schön	treu	spielen	faul	eitel	rächen	schlecht	tot	strafen	1	acq_USunple_CSunple1_RW	acq4567_RW	4	27	400	0	300	300	317	50	0	0	1	blank2r.bmp	0	1	+	0	1	blank2r.bmp	492	1	JXXJ	492	1	blank2r.bmp	572	3	rächen	866	1	!	-1	1	!	-1	0	0	0	0	0	0	0	0	0	0	0	0	0	0	0	0	0	0	0	0	0	0	0	0	0	0	0	0	0	0
081219	10:06:12	10:11:13	300010	5.0.10.0	5_exp_RW	93	Rpleas_acq	CS_B	YDDY	BZZB	JXXJ	GWWG	MQQM	VKKV	fair	ehrlich	retten	schön	treu	spielen	faul	eitel	rächen	schlecht	tot	strafen	1	acq_USunple_CSunple1_RW	acq4567_RW	4	28	400	0	300	300	1145	46	0	1	1	blank2r.bmp	0	1	+	0	1	blank2r.bmp	492	1	JXXJ	492	1	blank2r.bmp	572	1	faul	866	1	!	1239	1	!	-1	0	0	0	0	0	0	0	0	0	0	0	0	0	0	0	0	0	0	0	0	0	0	0	0	0	0	0	0	0	0
081219	10:06:12	10:11:15	302102	5.0.10.0	5_exp_RW	93	Rpleas_acq	CS_B	YDDY	BZZB	JXXJ	GWWG	MQQM	VKKV	fair	ehrlich	retten	schön	treu	spielen	faul	eitel	rächen	schlecht	tot	strafen	1	acq_USunple_CSunple1_RW	acq4567_RW	4	29	400	0	300	300	314	50	0	0	1	blank2r.bmp	0	1	+	0	1	blank2r.bmp	492	1	JXXJ	492	1	blank2r.bmp	572	3	rächen	866	1	!	-1	1	!	-1	0	0	0	0	0	0	0	0	0	0	0	0	0	0	0	0	0	0	0	0	0	0	0	0	0	0	0	0	0	0
081219	10:06:12	10:11:17	304395	5.0.10.0	5_exp_RW	93	Rpleas_acq	CS_B	YDDY	BZZB	JXXJ	GWWG	MQQM	VKKV	fair	ehrlich	retten	schön	treu	spielen	faul	eitel	rächen	schlecht	tot	strafen	1	acq_USpleas_CSpleas1_RW	acq4567_RW	4	30	400	0	300	300	497	50	0	1	1	blank2r.bmp	0	1	+	0	1	blank2r.bmp	492	1	YDDY	492	1	blank2r.bmp	572	2	ehrlich	866	1	!	1239	1	!	-1	0	0	0	0	0	0	0	0	0	0	0	0	0	0	0	0	0	0	0	0	0	0	0	0	0	0	0	0	0	0
081219	10:06:12	10:11:19	306727	5.0.10.0	5_exp_RW	93	Rpleas_acq	CS_B	YDDY	BZZB	JXXJ	GWWG	MQQM	VKKV	fair	ehrlich	retten	schön	treu	spielen	faul	eitel	rächen	schlecht	tot	strafen	1	acq_USpleas_CSpleas1_RW	acq4567_RW	4	31	400	0	300	300	542	50	0	1	1	blank2r.bmp	0	1	+	0	1	blank2r.bmp	492	1	YDDY	492	1	blank2r.bmp	572	3	retten	866	1	!	1239	1	!	-1	0	0	0	0	0	0	0	0	0	0	0	0	0	0	0	0	0	0	0	0	0	0	0	0	0	0	0	0	0	0
081219	10:06:12	10:11:22	309126	5.0.10.0	5_exp_RW	93	Rpleas_acq	CS_B	YDDY	BZZB	JXXJ	GWWG	MQQM	VKKV	fair	ehrlich	retten	schön	treu	spielen	faul	eitel	rächen	schlecht	tot	strafen	1	acq_USpleas_CSpleas2_RW	acq4567_RW	4	32	400	0	300	300	621	50	0	1	1	blank2r.bmp	0	1	+	0	1	blank2r.bmp	492	1	BZZB	492	1	blank2r.bmp	572	2	treu	866	1	!	1239	1	!	-1	0	0	0	0	0	0	0	0	0	0	0	0	0	0	0	0	0	0	0	0	0	0	0	0	0	0	0	0	0	0
081219	10:06:12	10:11:24	311378	5.0.10.0	5_exp_RW	93	Rpleas_acq	CS_B	YDDY	BZZB	JXXJ	GWWG	MQQM	VKKV	fair	ehrlich	retten	schön	treu	spielen	faul	eitel	rächen	schlecht	tot	strafen	1	acq_USpleas_CSpleas2_RW	acq4567_RW	4	33	400	1	300	300	447	50	0	1	1	blank2r.bmp	0	1	+	0	1	blank2r.bmp	492	1	BZZB	492	1	blank2r.bmp	572	1	schön	866	1	!	1239	1	!	1346	0	0	0	0	0	0	0	0	0	0	0	0	0	0	0	0	0	0	0	0	0	0	0	0	0	0	0	0	0	0
081219	10:06:12	10:11:26	313657	5.0.10.0	5_exp_RW	93	Rpleas_acq	CS_B	YDDY	BZZB	JXXJ	GWWG	MQQM	VKKV	fair	ehrlich	retten	schön	treu	spielen	faul	eitel	rächen	schlecht	tot	strafen	1	acq_USpleas_CSpleas1_RW	acq4567_RW	4	34	400	0	300	300	511	50	0	1	1	blank2r.bmp	0	1	+	0	1	blank2r.bmp	492	1	YDDY	492	1	blank2r.bmp	572	2	ehrlich	866	1	!	1239	1	!	-1	0	0	0	0	0	0	0	0	0	0	0	0	0	0	0	0	0	0	0	0	0	0	0	0	0	0	0	0	0	0
081219	10:06:12	10:11:28	315657	5.0.10.0	5_exp_RW	93	Rpleas_acq	CS_B	YDDY	BZZB	JXXJ	GWWG	MQQM	VKKV	fair	ehrlich	retten	schön	treu	spielen	faul	eitel	rächen	schlecht	tot	strafen	1	acq_USpleas_CSpleas2_RW	acq4567_RW	4	35	400	0	300	300	222	46	0	0	1	blank2r.bmp	0	1	+	0	1	blank2r.bmp	492	1	BZZB	492	1	blank2r.bmp	572	3	spielen	866	1	!	-1	1	!	-1	0	0	0	0	0	0	0	0	0	0	0	0	0	0	0	0	0	0	0	0	0	0	0	0	0	0	0	0	0	0
081219	10:06:12	10:11:30	317829	5.0.10.0	5_exp_RW	93	Rpleas_acq	CS_B	YDDY	BZZB	JXXJ	GWWG	MQQM	VKKV	fair	ehrlich	retten	schön	treu	spielen	faul	eitel	rächen	schlecht	tot	strafen	1	acq_USunple_CSunple2_RW	acq4567_RW	4	36	400	1	300	300	366	50	0	0	1	blank2r.bmp	0	1	+	0	1	blank2r.bmp	492	1	GWWG	492	1	blank2r.bmp	572	1	schlecht	866	1	!	1239	1	!	1266	0	0	0	0	0	0	0	0	0	0	0	0	0	0	0	0	0	0	0	0	0	0	0	0	0	0	0	0	0	0
081219	10:06:12	10:11:33	320108	5.0.10.0	5_exp_RW	93	Rpleas_acq	CS_B	YDDY	BZZB	JXXJ	GWWG	MQQM	VKKV	fair	ehrlich	retten	schön	treu	spielen	faul	eitel	rächen	schlecht	tot	strafen	1	acq_USunple_CSunple2_RW	acq4567_RW	4	37	400	0	300	300	509	46	0	1	1	blank2r.bmp	0	1	+	0	1	blank2r.bmp	492	1	GWWG	492	1	blank2r.bmp	572	3	strafen	866	1	!	1239	1	!	-1	0	0	0	0	0	0	0	0	0	0	0	0	0	0	0	0	0	0	0	0	0	0	0	0	0	0	0	0	0	0
081219	10:06:12	10:11:35	322321	5.0.10.0	5_exp_RW	93	Rpleas_acq	CS_B	YDDY	BZZB	JXXJ	GWWG	MQQM	VKKV	fair	ehrlich	retten	schön	treu	spielen	faul	eitel	rächen	schlecht	tot	strafen	1	acq_USunple_CSunple1_RW	acq4567_RW	4	38	400	1	300	300	405	46	0	1	1	blank2r.bmp	0	1	+	0	1	blank2r.bmp	492	1	JXXJ	492	1	blank2r.bmp	572	1	faul	866	1	!	1239	1	!	1306	0	0	0	0	0	0	0	0	0	0	0	0	0	0	0	0	0	0	0	0	0	0	0	0	0	0	0	0	0	0
081219	10:06:12	10:11:37	324573	5.0.10.0	5_exp_RW	93	Rpleas_acq	CS_B	YDDY	BZZB	JXXJ	GWWG	MQQM	VKKV	fair	ehrlich	retten	schön	treu	spielen	faul	eitel	rächen	schlecht	tot	strafen	1	acq_USunple_CSunple2_RW	acq4567_RW	4	39	400	1	300	300	461	46	0	1	1	blank2r.bmp	0	1	+	0	1	blank2r.bmp	492	1	GWWG	492	1	blank2r.bmp	572	2	tot	866	1	!	1239	1	!	1359	0	0	0	0	0	0	0	0	0	0	0	0	0	0	0	0	0	0	0	0	0	0	0	0	0	0	0	0	0	0
081219	10:06:12	10:11:39	326852	5.0.10.0	5_exp_RW	93	Rpleas_acq	CS_B	YDDY	BZZB	JXXJ	GWWG	MQQM	VKKV	fair	ehrlich	retten	schön	treu	spielen	faul	eitel	rächen	schlecht	tot	strafen	1	acq_USunple_CSunple2_RW	acq4567_RW	4	40	400	0	300	300	507	46	0	1	1	blank2r.bmp	0	1	+	0	1	blank2r.bmp	492	1	GWWG	492	1	blank2r.bmp	572	1	schlecht	866	1	!	1239	1	!	-1	0	0	0	0	0	0	0	0	0	0	0	0	0	0	0	0	0	0	0	0	0	0	0	0	0	0	0	0	0	0
081219	10:06:12	10:11:42	329184	5.0.10.0	5_exp_RW	93	Rpleas_acq	CS_B	YDDY	BZZB	JXXJ	GWWG	MQQM	VKKV	fair	ehrlich	retten	schön	treu	spielen	faul	eitel	rächen	schlecht	tot	strafen	1	acq_USunple_CSunple2_RW	acq4567_RW	4	41	400	0	300	300	547	46	0	1	1	blank2r.bmp	0	1	+	0	1	blank2r.bmp	492	1	GWWG	492	1	blank2r.bmp	572	3	strafen	866	1	!	1239	1	!	-1	0	0	0	0	0	0	0	0	0	0	0	0	0	0	0	0	0	0	0	0	0	0	0	0	0	0	0	0	0	0
081219	10:06:12	10:11:44	331477	5.0.10.0	5_exp_RW	93	Rpleas_acq	CS_B	YDDY	BZZB	JXXJ	GWWG	MQQM	VKKV	fair	ehrlich	retten	schön	treu	spielen	faul	eitel	rächen	schlecht	tot	strafen	1	acq_USunple_CSunple1_RW	acq4567_RW	4	42	400	0	300	300	495	46	0	1	1	blank2r.bmp	0	1	+	0	1	blank2r.bmp	492	1	JXXJ	492	1	blank2r.bmp	572	2	eitel	866	1	!	1239	1	!	-1	0	0	0	0	0	0	0	0	0	0	0	0	0	0	0	0	0	0	0	0	0	0	0	0	0	0	0	0	0	0
081219	10:06:12	10:11:46	333543	5.0.10.0	5_exp_RW	93	Rpleas_acq	CS_B	YDDY	BZZB	JXXJ	GWWG	MQQM	VKKV	fair	ehrlich	retten	schön	treu	spielen	faul	eitel	rächen	schlecht	tot	strafen	1	acq_USpleas_CSpleas1_RW	acq4567_RW	4	43	400	0	300	300	266	46	0	0	1	blank2r.bmp	0	1	+	0	1	blank2r.bmp	492	1	YDDY	492	1	blank2r.bmp	572	1	fair	866	1	!	-1	1	!	-1	0	0	0	0	0	0	0	0	0	0	0	0	0	0	0	0	0	0	0	0	0	0	0	0	0	0	0	0	0	0
081219	10:06:12	10:11:48	335622	5.0.10.0	5_exp_RW	93	Rpleas_acq	CS_B	YDDY	BZZB	JXXJ	GWWG	MQQM	VKKV	fair	ehrlich	retten	schön	treu	spielen	faul	eitel	rächen	schlecht	tot	strafen	1	acq_USpleas_CSpleas2_RW	acq4567_RW	4	44	400	0	300	300	298	50	0	1	1	blank2r.bmp	0	1	+	0	1	blank2r.bmp	492	1	BZZB	492	1	blank2r.bmp	572	2	treu	866	1	!	-1	1	!	-1	0	0	0	0	0	0	0	0	0	0	0	0	0	0	0	0	0	0	0	0	0	0	0	0	0	0	0	0	0	0
081219	10:06:12	10:11:51	337888	5.0.10.0	5_exp_RW	93	Rpleas_acq	CS_B	YDDY	BZZB	JXXJ	GWWG	MQQM	VKKV	fair	ehrlich	retten	schön	treu	spielen	faul	eitel	rächen	schlecht	tot	strafen	1	acq_USpleas_CSpleas2_RW	acq4567_RW	4	45	400	0	300	300	479	50	0	1	1	blank2r.bmp	0	1	+	0	1	blank2r.bmp	492	1	BZZB	492	1	blank2r.bmp	572	2	treu	866	1	!	1239	1	!	-1	0	0	0	0	0	0	0	0	0	0	0	0	0	0	0	0	0	0	0	0	0	0	0	0	0	0	0	0	0	0
081219	10:06:12	10:11:53	339967	5.0.10.0	5_exp_RW	93	Rpleas_acq	CS_B	YDDY	BZZB	JXXJ	GWWG	MQQM	VKKV	fair	ehrlich	retten	schön	treu	spielen	faul	eitel	rächen	schlecht	tot	strafen	1	acq_USpleas_CSpleas1_RW	acq4567_RW	4	46	400	0	300	300	287	50	0	1	1	blank2r.bmp	0	1	+	0	1	blank2r.bmp	492	1	YDDY	492	1	blank2r.bmp	572	1	fair	866	1	!	-1	1	!	-1	0	0	0	0	0	0	0	0	0	0	0	0	0	0	0	0	0	0	0	0	0	0	0	0	0	0	0	0	0	0
081219	10:06:12	10:11:56	343085	5.0.10.0	5_exp_RW	93	Rpleas_acq	CS_B	YDDY	BZZB	JXXJ	GWWG	MQQM	VKKV	fair	ehrlich	retten	schön	treu	spielen	faul	eitel	rächen	schlecht	tot	strafen	1	acq_USpleas_CSpleas2_RW	acq4567_RW	4	47	400	0	300	300	1342	50	0	1	1	blank2r.bmp	0	1	+	0	1	blank2r.bmp	492	1	BZZB	492	1	blank2r.bmp	572	3	spielen	866	1	!	1239	1	!	-1	0	0	0	0	0	0	0	0	0	0	0	0	0	0	0	0	0	0	0	0	0	0	0	0	0	0	0	0	0	0
081219	10:06:12	10:11:58	345245	5.0.10.0	5_exp_RW	93	Rpleas_acq	CS_B	YDDY	BZZB	JXXJ	GWWG	MQQM	VKKV	fair	ehrlich	retten	schön	treu	spielen	faul	eitel	rächen	schlecht	tot	strafen	1	acq_USpleas_CSpleas1_RW	acq4567_RW	4	48	400	1	300	300	359	46	0	0	1	blank2r.bmp	0	1	+	0	1	blank2r.bmp	492	1	YDDY	492	1	blank2r.bmp	572	3	retten	866	1	!	1239	1	!	1252	0	0	0	0	0	0	0	0	0	0	0	0	0	0	0	0	0	0	0	0	0	0	0	0	0	0	0	0	0	0
081219	10:06:12	10:12:00	347417	5.0.10.0	5_exp_RW	93	Rpleas_acq	CS_B	YDDY	BZZB	JXXJ	GWWG	MQQM	VKKV	fair	ehrlich	retten	schön	treu	spielen	faul	eitel	rächen	schlecht	tot	strafen	1	acq_USunple_CSunple1_RW	acq4567_RW	4	49	400	1	300	300	383	50	0	0	1	blank2r.bmp	0	1	+	0	1	blank2r.bmp	492	1	JXXJ	492	1	blank2r.bmp	572	1	faul	866	1	!	1239	1	!	1279	0	0	0	0	0	0	0	0	0	0	0	0	0	0	0	0	0	0	0	0	0	0	0	0	0	0	0	0	0	0
081219	10:06:12	10:12:02	349470	5.0.10.0	5_exp_RW	93	Rpleas_acq	CS_B	YDDY	BZZB	JXXJ	GWWG	MQQM	VKKV	fair	ehrlich	retten	schön	treu	spielen	faul	eitel	rächen	schlecht	tot	strafen	1	acq_USunple_CSunple2_RW	acq4567_RW	4	50	400	0	300	300	274	50	0	0	1	blank2r.bmp	0	1	+	0	1	blank2r.bmp	492	1	GWWG	492	1	blank2r.bmp	572	2	tot	866	1	!	-1	1	!	-1	0	0	0	0	0	0	0	0	0	0	0	0	0	0	0	0	0	0	0	0	0	0	0	0	0	0	0	0	0	0
081219	10:06:12	10:12:04	351749	5.0.10.0	5_exp_RW	93	Rpleas_acq	CS_B	YDDY	BZZB	JXXJ	GWWG	MQQM	VKKV	fair	ehrlich	retten	schön	treu	spielen	faul	eitel	rächen	schlecht	tot	strafen	1	acq_USunple_CSunple2_RW	acq4567_RW	4	51	400	0	300	300	504	46	0	1	1	blank2r.bmp	0	1	+	0	1	blank2r.bmp	492	1	GWWG	492	1	blank2r.bmp	572	1	schlecht	866	1	!	1239	1	!	-1	0	0	0	0	0	0	0	0	0	0	0	0	0	0	0	0	0	0	0	0	0	0	0	0	0	0	0	0	0	0
081219	10:06:12	10:12:06	353841	5.0.10.0	5_exp_RW	93	Rpleas_acq	CS_B	YDDY	BZZB	JXXJ	GWWG	MQQM	VKKV	fair	ehrlich	retten	schön	treu	spielen	faul	eitel	rächen	schlecht	tot	strafen	1	acq_USpleas_CSpleas2_RW	acq4567_RW	4	52	400	0	300	300	316	50	0	1	1	blank2r.bmp	0	1	+	0	1	blank2r.bmp	492	1	BZZB	492	1	blank2r.bmp	572	1	schön	866	1	!	-1	1	!	-1	0	0	0	0	0	0	0	0	0	0	0	0	0	0	0	0	0	0	0	0	0	0	0	0	0	0	0	0	0	0
081219	10:06:12	10:12:10	356906	5.0.10.0	5_exp_RW	93	Rpleas_acq	CS_B	YDDY	BZZB	JXXJ	GWWG	MQQM	VKKV	fair	ehrlich	retten	schön	treu	spielen	faul	eitel	rächen	schlecht	tot	strafen	1	acq_USpleas_CSpleas1_RW	acq4567_RW	4	53	400	0	300	300	1281	50	0	1	1	blank2r.bmp	0	1	+	0	1	blank2r.bmp	492	1	YDDY	492	1	blank2r.bmp	572	2	ehrlich	866	1	!	1239	1	!	-1	0	0	0	0	0	0	0	0	0	0	0	0	0	0	0	0	0	0	0	0	0	0	0	0	0	0	0	0	0	0
081219	10:06:12	10:12:12	359119	5.0.10.0	5_exp_RW	93	Rpleas_acq	CS_B	YDDY	BZZB	JXXJ	GWWG	MQQM	VKKV	fair	ehrlich	retten	schön	treu	spielen	faul	eitel	rächen	schlecht	tot	strafen	1	acq_USunple_CSunple1_RW	acq4567_RW	4	54	400	1	300	300	402	50	0	0	1	blank2r.bmp	0	1	+	0	1	blank2r.bmp	492	1	JXXJ	492	1	blank2r.bmp	572	2	eitel	866	1	!	1239	1	!	1306	0	0	0	0	0	0	0	0	0	0	0	0	0	0	0	0	0	0	0	0	0	0	0	0	0	0	0	0	0	0
081219	10:06:12	10:12:14	361371	5.0.10.0	5_exp_RW	93	Rpleas_acq	CS_B	YDDY	BZZB	JXXJ	GWWG	MQQM	VKKV	fair	ehrlich	retten	schön	treu	spielen	faul	eitel	rächen	schlecht	tot	strafen	1	acq_USunple_CSunple2_RW	acq4567_RW	4	55	400	1	300	300	457	46	0	1	1	blank2r.bmp	0	1	+	0	1	blank2r.bmp	492	1	GWWG	492	1	blank2r.bmp	572	3	strafen	866	1	!	1239	1	!	1359	0	0	0	0	0	0	0	0	0	0	0	0	0	0	0	0	0	0	0	0	0	0	0	0	0	0	0	0	0	0
081219	10:06:12	10:12:16	363624	5.0.10.0	5_exp_RW	93	Rpleas_acq	CS_B	YDDY	BZZB	JXXJ	GWWG	MQQM	VKKV	fair	ehrlich	retten	schön	treu	spielen	faul	eitel	rächen	schlecht	tot	strafen	1	acq_USpleas_CSpleas1_RW	acq4567_RW	4	56	400	0	300	300	479	50	0	1	1	blank2r.bmp	0	1	+	0	1	blank2r.bmp	492	1	YDDY	492	1	blank2r.bmp	572	3	retten	866	1	!	1239	1	!	-1	0	0	0	0	0	0	0	0	0	0	0	0	0	0	0	0	0	0	0	0	0	0	0	0	0	0	0	0	0	0
081219	10:06:12	10:12:18	365823	5.0.10.0	5_exp_RW	93	Rpleas_acq	CS_B	YDDY	BZZB	JXXJ	GWWG	MQQM	VKKV	fair	ehrlich	retten	schön	treu	spielen	faul	eitel	rächen	schlecht	tot	strafen	1	acq_USunple_CSunple2_RW	acq4567_RW	4	57	400	1	300	300	395	46	0	1	1	blank2r.bmp	0	1	+	0	1	blank2r.bmp	492	1	GWWG	492	1	blank2r.bmp	572	1	schlecht	866	1	!	1239	1	!	1292	0	0	0	0	0	0	0	0	0	0	0	0	0	0	0	0	0	0	0	0	0	0	0	0	0	0	0	0	0	0
081219	10:06:12	10:12:21	368102	5.0.10.0	5_exp_RW	93	Rpleas_acq	CS_B	YDDY	BZZB	JXXJ	GWWG	MQQM	VKKV	fair	ehrlich	retten	schön	treu	spielen	faul	eitel	rächen	schlecht	tot	strafen	1	acq_USunple_CSunple1_RW	acq4567_RW	4	58	400	0	300	300	508	46	0	1	1	blank2r.bmp	0	1	+	0	1	blank2r.bmp	492	1	JXXJ	492	1	blank2r.bmp	572	3	rächen	866	1	!	1239	1	!	-1	0	0	0	0	0	0	0	0	0	0	0	0	0	0	0	0	0	0	0	0	0	0	0	0	0	0	0	0	0	0
081219	10:06:12	10:12:23	370194	5.0.10.0	5_exp_RW	93	Rpleas_acq	CS_B	YDDY	BZZB	JXXJ	GWWG	MQQM	VKKV	fair	ehrlich	retten	schön	treu	spielen	faul	eitel	rächen	schlecht	tot	strafen	1	acq_USpleas_CSpleas2_RW	acq4567_RW	4	59	400	0	300	300	316	50	0	1	1	blank2r.bmp	0	1	+	0	1	blank2r.bmp	492	1	BZZB	492	1	blank2r.bmp	572	3	spielen	866	1	!	-1	1	!	-1	0	0	0	0	0	0	0	0	0	0	0	0	0	0	0	0	0	0	0	0	0	0	0	0	0	0	0	0	0	0
081219	10:06:12	10:12:25	372247	5.0.10.0	5_exp_RW	93	Rpleas_acq	CS_B	YDDY	BZZB	JXXJ	GWWG	MQQM	VKKV	fair	ehrlich	retten	schön	treu	spielen	faul	eitel	rächen	schlecht	tot	strafen	1	acq_USunple_CSunple1_RW	acq4567_RW	4	60	400	0	300	300	262	50	0	0	1	blank2r.bmp	0	1	+	0	1	blank2r.bmp	492	1	JXXJ	492	1	blank2r.bmp	572	1	faul	866	1	!	-1	1	!	-1	0	0	0	0	0	0	0	0	0	0	0	0	0	0	0	0	0	0	0	0	0	0	0	0	0	0	0	0	0	0
081219	10:06:12	10:12:27	374646	5.0.10.0	5_exp_RW	93	Rpleas_acq	CS_B	YDDY	BZZB	JXXJ	GWWG	MQQM	VKKV	fair	ehrlich	retten	schön	treu	spielen	faul	eitel	rächen	schlecht	tot	strafen	1	acq_USpleas_CSpleas2_RW	acq4567_RW	4	61	400	0	300	300	616	50	0	1	1	blank2r.bmp	0	1	+	0	1	blank2r.bmp	492	1	BZZB	492	1	blank2r.bmp	572	1	schön	866	1	!	1239	1	!	-1	0	0	0	0	0	0	0	0	0	0	0	0	0	0	0	0	0	0	0	0	0	0	0	0	0	0	0	0	0	0
081219	10:06:12	10:12:29	376845	5.0.10.0	5_exp_RW	93	Rpleas_acq	CS_B	YDDY	BZZB	JXXJ	GWWG	MQQM	VKKV	fair	ehrlich	retten	schön	treu	spielen	faul	eitel	rächen	schlecht	tot	strafen	1	acq_USunple_CSunple1_RW	acq4567_RW	4	62	400	1	300	300	391	46	0	1	1	blank2r.bmp	0	1	+	0	1	blank2r.bmp	492	1	JXXJ	492	1	blank2r.bmp	572	2	eitel	866	1	!	1239	1	!	1292	0	0	0	0	0	0	0	0	0	0	0	0	0	0	0	0	0	0	0	0	0	0	0	0	0	0	0	0	0	0
081219	10:06:12	10:12:32	379257	5.0.10.0	5_exp_RW	93	Rpleas_acq	CS_B	YDDY	BZZB	JXXJ	GWWG	MQQM	VKKV	fair	ehrlich	retten	schön	treu	spielen	faul	eitel	rächen	schlecht	tot	strafen	1	acq_USpleas_CSpleas1_RW	acq4567_RW	4	63	400	0	300	300	643	50	0	1	1	blank2r.bmp	0	1	+	0	1	blank2r.bmp	492	1	YDDY	492	1	blank2r.bmp	572	2	ehrlich	866	1	!	1239	1	!	-1	0	0	0	0	0	0	0	0	0	0	0	0	0	0	0	0	0	0	0	0	0	0	0	0	0	0	0	0	0	0
081219	10:06:12	10:12:34	381336	5.0.10.0	5_exp_RW	93	Rpleas_acq	CS_B	YDDY	BZZB	JXXJ	GWWG	MQQM	VKKV	fair	ehrlich	retten	schön	treu	spielen	faul	eitel	rächen	schlecht	tot	strafen	1	acq_USpleas_CSpleas2_RW	acq4567_RW	4	64	400	0	300	300	298	50	0	1	1	blank2r.bmp	0	1	+	0	1	blank2r.bmp	492	1	BZZB	492	1	blank2r.bmp	572	2	treu	866	1	!	-1	1	!	-1	0	0	0	0	0	0	0	0	0	0	0	0	0	0	0	0	0	0	0	0	0	0	0	0	0	0	0	0	0	0
081219	10:06:12	10:12:36	383656	5.0.10.0	5_exp_RW	93	Rpleas_acq	CS_B	YDDY	BZZB	JXXJ	GWWG	MQQM	VKKV	fair	ehrlich	retten	schön	treu	spielen	faul	eitel	rächen	schlecht	tot	strafen	1	acq_USunple_CSunple2_RW	acq4567_RW	4	65	400	0	300	300	543	46	0	1	1	blank2r.bmp	0	1	+	0	1	blank2r.bmp	492	1	GWWG	492	1	blank2r.bmp	572	3	strafen	866	1	!	1239	1	!	-1	0	0	0	0	0	0	0	0	0	0	0	0	0	0	0	0	0	0	0	0	0	0	0	0	0	0	0	0	0	0
081219	10:06:12	10:12:38	385868	5.0.10.0	5_exp_RW	93	Rpleas_acq	CS_B	YDDY	BZZB	JXXJ	GWWG	MQQM	VKKV	fair	ehrlich	retten	schön	treu	spielen	faul	eitel	rächen	schlecht	tot	strafen	1	acq_USpleas_CSpleas2_RW	acq4567_RW	4	66	400	1	300	300	401	50	0	1	1	blank2r.bmp	0	1	+	0	1	blank2r.bmp	492	1	BZZB	492	1	blank2r.bmp	572	3	spielen	866	1	!	1239	1	!	1306	0	0	0	0	0	0	0	0	0	0	0	0	0	0	0	0	0	0	0	0	0	0	0	0	0	0	0	0	0	0
081219	10:06:12	10:12:41	388040	5.0.10.0	5_exp_RW	93	Rpleas_acq	CS_B	YDDY	BZZB	JXXJ	GWWG	MQQM	VKKV	fair	ehrlich	retten	schön	treu	spielen	faul	eitel	rächen	schlecht	tot	strafen	1	acq_USunple_CSunple1_RW	acq4567_RW	4	67	400	1	300	300	383	46	0	1	1	blank2r.bmp	0	1	+	0	1	blank2r.bmp	492	1	JXXJ	492	1	blank2r.bmp	572	3	rächen	866	1	!	1239	1	!	1279	0	0	0	0	0	0	0	0	0	0	0	0	0	0	0	0	0	0	0	0	0	0	0	0	0	0	0	0	0	0
081219	10:06:12	10:12:43	390199	5.0.10.0	5_exp_RW	93	Rpleas_acq	CS_B	YDDY	BZZB	JXXJ	GWWG	MQQM	VKKV	fair	ehrlich	retten	schön	treu	spielen	faul	eitel	rächen	schlecht	tot	strafen	1	acq_USpleas_CSpleas1_RW	acq4567_RW	4	68	400	1	300	300	355	46	0	0	1	blank2r.bmp	0	1	+	0	1	blank2r.bmp	492	1	YDDY	492	1	blank2r.bmp	572	1	fair	866	1	!	1239	1	!	1252	0	0	0	0	0	0	0	0	0	0	0	0	0	0	0	0	0	0	0	0	0	0	0	0	0	0	0	0	0	0
081219	10:06:12	10:12:45	392385	5.0.10.0	5_exp_RW	93	Rpleas_acq	CS_B	YDDY	BZZB	JXXJ	GWWG	MQQM	VKKV	fair	ehrlich	retten	schön	treu	spielen	faul	eitel	rächen	schlecht	tot	strafen	1	acq_USunple_CSunple2_RW	acq4567_RW	4	69	400	1	300	300	392	46	0	1	1	blank2r.bmp	0	1	+	0	1	blank2r.bmp	492	1	GWWG	492	1	blank2r.bmp	572	2	tot	866	1	!	1239	1	!	1292	0	0	0	0	0	0	0	0	0	0	0	0	0	0	0	0	0	0	0	0	0	0	0	0	0	0	0	0	0	0
081219	10:06:12	10:12:47	394584	5.0.10.0	5_exp_RW	93	Rpleas_acq	CS_B	YDDY	BZZB	JXXJ	GWWG	MQQM	VKKV	fair	ehrlich	retten	schön	treu	spielen	faul	eitel	rächen	schlecht	tot	strafen	1	acq_USunple_CSunple2_RW	acq4567_RW	4	70	400	1	300	300	403	50	0	0	1	blank2r.bmp	0	1	+	0	1	blank2r.bmp	492	1	GWWG	492	1	blank2r.bmp	572	1	schlecht	866	1	!	1239	1	!	1306	0	0	0	0	0	0	0	0	0	0	0	0	0	0	0	0	0	0	0	0	0	0	0	0	0	0	0	0	0	0
081219	10:06:12	10:12:49	396837	5.0.10.0	5_exp_RW	93	Rpleas_acq	CS_B	YDDY	BZZB	JXXJ	GWWG	MQQM	VKKV	fair	ehrlich	retten	schön	treu	spielen	faul	eitel	rächen	schlecht	tot	strafen	1	acq_USpleas_CSpleas2_RW	acq4567_RW	4	71	400	0	300	300	484	50	0	1	1	blank2r.bmp	0	1	+	0	1	blank2r.bmp	492	1	BZZB	492	1	blank2r.bmp	572	1	schön	866	1	!	1239	1	!	-1	0	0	0	0	0	0	0	0	0	0	0	0	0	0	0	0	0	0	0	0	0	0	0	0	0	0	0	0	0	0
081219	10:06:12	10:12:52	399063	5.0.10.0	5_exp_RW	93	Rpleas_acq	CS_B	YDDY	BZZB	JXXJ	GWWG	MQQM	VKKV	fair	ehrlich	retten	schön	treu	spielen	faul	eitel	rächen	schlecht	tot	strafen	1	acq_USunple_CSunple2_RW	acq4567_RW	4	72	400	1	300	300	413	46	0	1	1	blank2r.bmp	0	1	+	0	1	blank2r.bmp	492	1	GWWG	492	1	blank2r.bmp	572	2	tot	866	1	!	1239	1	!	1319	0	0	0	0	0	0	0	0	0	0	0	0	0	0	0	0	0	0	0	0	0	0	0	0	0	0	0	0	0	0
081219	10:06:12	10:12:54	401342	5.0.10.0	5_exp_RW	93	Rpleas_acq	CS_B	YDDY	BZZB	JXXJ	GWWG	MQQM	VKKV	fair	ehrlich	retten	schön	treu	spielen	faul	eitel	rächen	schlecht	tot	strafen	1	acq_USunple_CSunple2_RW	acq4567_RW	4	73	400	0	300	300	512	46	0	1	1	blank2r.bmp	0	1	+	0	1	blank2r.bmp	492	1	GWWG	492	1	blank2r.bmp	572	3	strafen	866	1	!	1239	1	!	-1	0	0	0	0	0	0	0	0	0	0	0	0	0	0	0	0	0	0	0	0	0	0	0	0	0	0	0	0	0	0
081219	10:06:12	10:12:57	404367	5.0.10.0	5_exp_RW	93	Rpleas_acq	CS_B	YDDY	BZZB	JXXJ	GWWG	MQQM	VKKV	fair	ehrlich	retten	schön	treu	spielen	faul	eitel	rächen	schlecht	tot	strafen	1	acq_USpleas_CSpleas2_RW	acq4567_RW	4	74	400	0	300	300	1250	50	0	1	1	blank2r.bmp	0	1	+	0	1	blank2r.bmp	492	1	BZZB	492	1	blank2r.bmp	572	2	treu	866	1	!	1239	1	!	-1	0	0	0	0	0	0	0	0	0	0	0	0	0	0	0	0	0	0	0	0	0	0	0	0	0	0	0	0	0	0
081219	10:06:12	10:12:59	406433	5.0.10.0	5_exp_RW	93	Rpleas_acq	CS_B	YDDY	BZZB	JXXJ	GWWG	MQQM	VKKV	fair	ehrlich	retten	schön	treu	spielen	faul	eitel	rächen	schlecht	tot	strafen	1	acq_USunple_CSunple1_RW	acq4567_RW	4	75	400	0	300	300	281	50	0	0	1	blank2r.bmp	0	1	+	0	1	blank2r.bmp	492	1	JXXJ	492	1	blank2r.bmp	572	1	faul	866	1	!	-1	1	!	-1	0	0	0	0	0	0	0	0	0	0	0	0	0	0	0	0	0	0	0	0	0	0	0	0	0	0	0	0	0	0
081219	10:06:12	10:13:01	408685	5.0.10.0	5_exp_RW	93	Rpleas_acq	CS_B	YDDY	BZZB	JXXJ	GWWG	MQQM	VKKV	fair	ehrlich	retten	schön	treu	spielen	faul	eitel	rächen	schlecht	tot	strafen	1	acq_USpleas_CSpleas1_RW	acq4567_RW	4	76	400	1	300	300	436	50	0	1	1	blank2r.bmp	0	1	+	0	1	blank2r.bmp	492	1	YDDY	492	1	blank2r.bmp	572	1	fair	866	1	!	1239	1	!	1332	0	0	0	0	0	0	0	0	0	0	0	0	0	0	0	0	0	0	0	0	0	0	0	0	0	0	0	0	0	0
081219	10:06:12	10:13:04	410924	5.0.10.0	5_exp_RW	93	Rpleas_acq	CS_B	YDDY	BZZB	JXXJ	GWWG	MQQM	VKKV	fair	ehrlich	retten	schön	treu	spielen	faul	eitel	rächen	schlecht	tot	strafen	1	acq_USpleas_CSpleas1_RW	acq4567_RW	4	77	400	1	300	300	450	50	0	1	1	blank2r.bmp	0	1	+	0	1	blank2r.bmp	492	1	YDDY	492	1	blank2r.bmp	572	2	ehrlich	866	1	!	1239	1	!	1346	0	0	0	0	0	0	0	0	0	0	0	0	0	0	0	0	0	0	0	0	0	0	0	0	0	0	0	0	0	0
081219	10:06:12	10:13:06	413030	5.0.10.0	5_exp_RW	93	Rpleas_acq	CS_B	YDDY	BZZB	JXXJ	GWWG	MQQM	VKKV	fair	ehrlich	retten	schön	treu	spielen	faul	eitel	rächen	schlecht	tot	strafen	1	acq_USpleas_CSpleas1_RW	acq4567_RW	4	78	400	0	300	300	328	50	0	1	1	blank2r.bmp	0	1	+	0	1	blank2r.bmp	492	1	YDDY	492	1	blank2r.bmp	572	3	retten	866	1	!	-1	1	!	-1	0	0	0	0	0	0	0	0	0	0	0	0	0	0	0	0	0	0	0	0	0	0	0	0	0	0	0	0	0	0
081219	10:06:12	10:13:08	415296	5.0.10.0	5_exp_RW	93	Rpleas_acq	CS_B	YDDY	BZZB	JXXJ	GWWG	MQQM	VKKV	fair	ehrlich	retten	schön	treu	spielen	faul	eitel	rächen	schlecht	tot	strafen	1	acq_USunple_CSunple1_RW	acq4567_RW	4	79	400	0	300	300	479	46	0	1	1	blank2r.bmp	0	1	+	0	1	blank2r.bmp	492	1	JXXJ	492	1	blank2r.bmp	572	3	rächen	866	1	!	1239	1	!	-1	0	0	0	0	0	0	0	0	0	0	0	0	0	0	0	0	0	0	0	0	0	0	0	0	0	0	0	0	0	0
081219	10:06:12	10:13:10	417495	5.0.10.0	5_exp_RW	93	Rpleas_acq	CS_B	YDDY	BZZB	JXXJ	GWWG	MQQM	VKKV	fair	ehrlich	retten	schön	treu	spielen	faul	eitel	rächen	schlecht	tot	strafen	1	acq_USunple_CSunple1_RW	acq4567_RW	4	80	400	1	300	300	389	50	0	0	1	blank2r.bmp	0	1	+	0	1	blank2r.bmp	492	1	JXXJ	492	1	blank2r.bmp	572	2	eitel	866	1	!	1239	1	!	1292	0	0	0	0	0	0	0	0	0	0	0	0	0	0	0	0	0	0	0	0	0	0	0	0	0	0	0	0	0	0
081219	10:06:12	10:13:20	427757	5.0.10.0	5_exp_RW	93	Rpleas_acq	CS_B	YDDY	BZZB	JXXJ	GWWG	MQQM	VKKV	fair	ehrlich	retten	schön	treu	spielen	faul	eitel	rächen	schlecht	tot	strafen	1	acq_USpleas_CSpleas2_RW	acq4567_RW	5	1	400	1	300	300	400	50	0	1	1	blank2r.bmp	0	1	+	0	1	blank2r.bmp	492	1	BZZB	492	1	blank2r.bmp	572	3	spielen	866	1	!	1239	1	!	1306	0	0	0	0	0	0	0	0	0	0	0	0	0	0	0	0	0	0	0	0	0	0	0	0	0	0	0	0	0	0
081219	10:06:12	10:13:23	430010	5.0.10.0	5_exp_RW	93	Rpleas_acq	CS_B	YDDY	BZZB	JXXJ	GWWG	MQQM	VKKV	fair	ehrlich	retten	schön	treu	spielen	faul	eitel	rächen	schlecht	tot	strafen	1	acq_USunple_CSunple2_RW	acq4567_RW	5	2	400	1	300	300	441	46	0	1	1	blank2r.bmp	0	1	+	0	1	blank2r.bmp	492	1	GWWG	492	1	blank2r.bmp	572	2	tot	866	1	!	1239	1	!	1346	0	0	0	0	0	0	0	0	0	0	0	0	0	0	0	0	0	0	0	0	0	0	0	0	0	0	0	0	0	0
081219	10:06:12	10:13:25	432302	5.0.10.0	5_exp_RW	93	Rpleas_acq	CS_B	YDDY	BZZB	JXXJ	GWWG	MQQM	VKKV	fair	ehrlich	retten	schön	treu	spielen	faul	eitel	rächen	schlecht	tot	strafen	1	acq_USpleas_CSpleas2_RW	acq4567_RW	5	3	400	0	300	300	531	46	0	0	1	blank2r.bmp	0	1	+	0	1	blank2r.bmp	492	1	BZZB	492	1	blank2r.bmp	572	2	treu	866	1	!	1239	1	!	-1	0	0	0	0	0	0	0	0	0	0	0	0	0	0	0	0	0	0	0	0	0	0	0	0	0	0	0	0	0	0
081219	10:06:12	10:13:27	434488	5.0.10.0	5_exp_RW	93	Rpleas_acq	CS_B	YDDY	BZZB	JXXJ	GWWG	MQQM	VKKV	fair	ehrlich	retten	schön	treu	spielen	faul	eitel	rächen	schlecht	tot	strafen	1	acq_USpleas_CSpleas2_RW	acq4567_RW	5	4	400	1	300	300	383	50	0	1	1	blank2r.bmp	0	1	+	0	1	blank2r.bmp	492	1	BZZB	492	1	blank2r.bmp	572	1	schön	866	1	!	1239	1	!	1279	0	0	0	0	0	0	0	0	0	0	0	0	0	0	0	0	0	0	0	0	0	0	0	0	0	0	0	0	0	0
081219	10:06:12	10:13:29	436580	5.0.10.0	5_exp_RW	93	Rpleas_acq	CS_B	YDDY	BZZB	JXXJ	GWWG	MQQM	VKKV	fair	ehrlich	retten	schön	treu	spielen	faul	eitel	rächen	schlecht	tot	strafen	1	acq_USunple_CSunple2_RW	acq4567_RW	5	5	400	0	300	300	320	46	0	1	1	blank2r.bmp	0	1	+	0	1	blank2r.bmp	492	1	GWWG	492	1	blank2r.bmp	572	1	schlecht	866	1	!	-1	1	!	-1	0	0	0	0	0	0	0	0	0	0	0	0	0	0	0	0	0	0	0	0	0	0	0	0	0	0	0	0	0	0
081219	10:06:12	10:13:31	438780	5.0.10.0	5_exp_RW	93	Rpleas_acq	CS_B	YDDY	BZZB	JXXJ	GWWG	MQQM	VKKV	fair	ehrlich	retten	schön	treu	spielen	faul	eitel	rächen	schlecht	tot	strafen	1	acq_USpleas_CSpleas2_RW	acq4567_RW	5	6	400	1	300	300	391	50	0	1	1	blank2r.bmp	0	1	+	0	1	blank2r.bmp	492	1	BZZB	492	1	blank2r.bmp	572	1	schön	866	1	!	1239	1	!	1292	0	0	0	0	0	0	0	0	0	0	0	0	0	0	0	0	0	0	0	0	0	0	0	0	0	0	0	0	0	0
081219	10:06:12	10:13:34	440965	5.0.10.0	5_exp_RW	93	Rpleas_acq	CS_B	YDDY	BZZB	JXXJ	GWWG	MQQM	VKKV	fair	ehrlich	retten	schön	treu	spielen	faul	eitel	rächen	schlecht	tot	strafen	1	acq_USpleas_CSpleas1_RW	acq4567_RW	5	7	400	1	300	300	396	50	0	1	1	blank2r.bmp	0	1	+	0	1	blank2r.bmp	492	1	YDDY	492	1	blank2r.bmp	572	1	fair	866	1	!	1239	1	!	1292	0	0	0	0	0	0	0	0	0	0	0	0	0	0	0	0	0	0	0	0	0	0	0	0	0	0	0	0	0	0
081219	10:06:12	10:13:36	443258	5.0.10.0	5_exp_RW	93	Rpleas_acq	CS_B	YDDY	BZZB	JXXJ	GWWG	MQQM	VKKV	fair	ehrlich	retten	schön	treu	spielen	faul	eitel	rächen	schlecht	tot	strafen	1	acq_USpleas_CSpleas1_RW	acq4567_RW	5	8	400	0	300	300	521	50	0	1	1	blank2r.bmp	0	1	+	0	1	blank2r.bmp	492	1	YDDY	492	1	blank2r.bmp	572	3	retten	866	1	!	1239	1	!	-1	0	0	0	0	0	0	0	0	0	0	0	0	0	0	0	0	0	0	0	0	0	0	0	0	0	0	0	0	0	0
081219	10:06:12	10:13:38	445497	5.0.10.0	5_exp_RW	93	Rpleas_acq	CS_B	YDDY	BZZB	JXXJ	GWWG	MQQM	VKKV	fair	ehrlich	retten	schön	treu	spielen	faul	eitel	rächen	schlecht	tot	strafen	1	acq_USpleas_CSpleas1_RW	acq4567_RW	5	9	400	1	300	300	438	50	0	1	1	blank2r.bmp	0	1	+	0	1	blank2r.bmp	492	1	YDDY	492	1	blank2r.bmp	572	2	ehrlich	866	1	!	1239	1	!	1332	0	0	0	0	0	0	0	0	0	0	0	0	0	0	0	0	0	0	0	0	0	0	0	0	0	0	0	0	0	0
081219	10:06:12	10:13:40	447696	5.0.10.0	5_exp_RW	93	Rpleas_acq	CS_B	YDDY	BZZB	JXXJ	GWWG	MQQM	VKKV	fair	ehrlich	retten	schön	treu	spielen	faul	eitel	rächen	schlecht	tot	strafen	1	acq_USpleas_CSpleas1_RW	acq4567_RW	5	10	400	1	300	300	401	50	0	1	1	blank2r.bmp	0	1	+	0	1	blank2r.bmp	492	1	YDDY	492	1	blank2r.bmp	572	2	ehrlich	866	1	!	1239	1	!	1306	0	0	0	0	0	0	0	0	0	0	0	0	0	0	0	0	0	0	0	0	0	0	0	0	0	0	0	0	0	0
081219	10:06:12	10:13:43	449935	5.0.10.0	5_exp_RW	93	Rpleas_acq	CS_B	YDDY	BZZB	JXXJ	GWWG	MQQM	VKKV	fair	ehrlich	retten	schön	treu	spielen	faul	eitel	rächen	schlecht	tot	strafen	1	acq_USunple_CSunple2_RW	acq4567_RW	5	11	400	1	300	300	443	46	0	1	1	blank2r.bmp	0	1	+	0	1	blank2r.bmp	492	1	GWWG	492	1	blank2r.bmp	572	3	strafen	866	1	!	1239	1	!	1346	0	0	0	0	0	0	0	0	0	0	0	0	0	0	0	0	0	0	0	0	0	0	0	0	0	0	0	0	0	0
081219	10:06:12	10:13:45	451948	5.0.10.0	5_exp_RW	93	Rpleas_acq	CS_B	YDDY	BZZB	JXXJ	GWWG	MQQM	VKKV	fair	ehrlich	retten	schön	treu	spielen	faul	eitel	rächen	schlecht	tot	strafen	1	acq_USunple_CSunple1_RW	acq4567_RW	5	12	400	0	300	300	242	50	0	0	1	blank2r.bmp	0	1	+	0	1	blank2r.bmp	492	1	JXXJ	492	1	blank2r.bmp	572	3	rächen	866	1	!	-1	1	!	-1	0	0	0	0	0	0	0	0	0	0	0	0	0	0	0	0	0	0	0	0	0	0	0	0	0	0	0	0	0	0
081219	10:06:12	10:13:47	454253	5.0.10.0	5_exp_RW	93	Rpleas_acq	CS_B	YDDY	BZZB	JXXJ	GWWG	MQQM	VKKV	fair	ehrlich	retten	schön	treu	spielen	faul	eitel	rächen	schlecht	tot	strafen	1	acq_USunple_CSunple1_RW	acq4567_RW	5	13	400	0	300	300	525	46	0	1	1	blank2r.bmp	0	1	+	0	1	blank2r.bmp	492	1	JXXJ	492	1	blank2r.bmp	572	1	faul	866	1	!	1239	1	!	-1	0	0	0	0	0	0	0	0	0	0	0	0	0	0	0	0	0	0	0	0	0	0	0	0	0	0	0	0	0	0
081219	10:06:12	10:13:49	456346	5.0.10.0	5_exp_RW	93	Rpleas_acq	CS_B	YDDY	BZZB	JXXJ	GWWG	MQQM	VKKV	fair	ehrlich	retten	schön	treu	spielen	faul	eitel	rächen	schlecht	tot	strafen	1	acq_USunple_CSunple2_RW	acq4567_RW	5	14	400	0	300	300	308	50	0	0	1	blank2r.bmp	0	1	+	0	1	blank2r.bmp	492	1	GWWG	492	1	blank2r.bmp	572	3	strafen	866	1	!	-1	1	!	-1	0	0	0	0	0	0	0	0	0	0	0	0	0	0	0	0	0	0	0	0	0	0	0	0	0	0	0	0	0	0
081219	10:06:12	10:13:51	458638	5.0.10.0	5_exp_RW	93	Rpleas_acq	CS_B	YDDY	BZZB	JXXJ	GWWG	MQQM	VKKV	fair	ehrlich	retten	schön	treu	spielen	faul	eitel	rächen	schlecht	tot	strafen	1	acq_USpleas_CSpleas1_RW	acq4567_RW	5	15	400	0	300	300	505	50	0	1	1	blank2r.bmp	0	1	+	0	1	blank2r.bmp	492	1	YDDY	492	1	blank2r.bmp	572	1	fair	866	1	!	1239	1	!	-1	0	0	0	0	0	0	0	0	0	0	0	0	0	0	0	0	0	0	0	0	0	0	0	0	0	0	0	0	0	0
081219	10:06:12	10:13:53	460864	5.0.10.0	5_exp_RW	93	Rpleas_acq	CS_B	YDDY	BZZB	JXXJ	GWWG	MQQM	VKKV	fair	ehrlich	retten	schön	treu	spielen	faul	eitel	rächen	schlecht	tot	strafen	1	acq_USunple_CSunple1_RW	acq4567_RW	5	16	400	1	300	300	420	50	0	0	1	blank2r.bmp	0	1	+	0	1	blank2r.bmp	492	1	JXXJ	492	1	blank2r.bmp	572	2	eitel	866	1	!	1239	1	!	1319	0	0	0	0	0	0	0	0	0	0	0	0	0	0	0	0	0	0	0	0	0	0	0	0	0	0	0	0	0	0
081219	10:06:12	10:13:56	463116	5.0.10.0	5_exp_RW	93	Rpleas_acq	CS_B	YDDY	BZZB	JXXJ	GWWG	MQQM	VKKV	fair	ehrlich	retten	schön	treu	spielen	faul	eitel	rächen	schlecht	tot	strafen	1	acq_USpleas_CSpleas2_RW	acq4567_RW	5	17	400	1	300	300	456	50	0	1	1	blank2r.bmp	0	1	+	0	1	blank2r.bmp	492	1	BZZB	492	1	blank2r.bmp	572	2	treu	866	1	!	1239	1	!	1359	0	0	0	0	0	0	0	0	0	0	0	0	0	0	0	0	0	0	0	0	0	0	0	0	0	0	0	0	0	0
081219	10:06:12	10:13:58	465369	5.0.10.0	5_exp_RW	93	Rpleas_acq	CS_B	YDDY	BZZB	JXXJ	GWWG	MQQM	VKKV	fair	ehrlich	retten	schön	treu	spielen	faul	eitel	rächen	schlecht	tot	strafen	1	acq_USunple_CSunple1_RW	acq4567_RW	5	18	400	1	300	300	456	50	0	0	1	blank2r.bmp	0	1	+	0	1	blank2r.bmp	492	1	JXXJ	492	1	blank2r.bmp	572	2	eitel	866	1	!	1239	1	!	1359	0	0	0	0	0	0	0	0	0	0	0	0	0	0	0	0	0	0	0	0	0	0	0	0	0	0	0	0	0	0
081219	10:06:12	10:14:00	467688	5.0.10.0	5_exp_RW	93	Rpleas_acq	CS_B	YDDY	BZZB	JXXJ	GWWG	MQQM	VKKV	fair	ehrlich	retten	schön	treu	spielen	faul	eitel	rächen	schlecht	tot	strafen	1	acq_USunple_CSunple1_RW	acq4567_RW	5	19	400	0	300	300	542	46	0	1	1	blank2r.bmp	0	1	+	0	1	blank2r.bmp	492	1	JXXJ	492	1	blank2r.bmp	572	3	rächen	866	1	!	1239	1	!	-1	0	0	0	0	0	0	0	0	0	0	0	0	0	0	0	0	0	0	0	0	0	0	0	0	0	0	0	0	0	0
081219	10:06:12	10:14:03	469954	5.0.10.0	5_exp_RW	93	Rpleas_acq	CS_B	YDDY	BZZB	JXXJ	GWWG	MQQM	VKKV	fair	ehrlich	retten	schön	treu	spielen	faul	eitel	rächen	schlecht	tot	strafen	1	acq_USunple_CSunple2_RW	acq4567_RW	5	20	400	0	300	300	479	46	0	1	1	blank2r.bmp	0	1	+	0	1	blank2r.bmp	492	1	GWWG	492	1	blank2r.bmp	572	1	schlecht	866	1	!	1239	1	!	-1	0	0	0	0	0	0	0	0	0	0	0	0	0	0	0	0	0	0	0	0	0	0	0	0	0	0	0	0	0	0
081219	10:06:12	10:14:05	472219	5.0.10.0	5_exp_RW	93	Rpleas_acq	CS_B	YDDY	BZZB	JXXJ	GWWG	MQQM	VKKV	fair	ehrlich	retten	schön	treu	spielen	faul	eitel	rächen	schlecht	tot	strafen	1	acq_USunple_CSunple1_RW	acq4567_RW	5	21	400	0	300	300	479	46	0	1	1	blank2r.bmp	0	1	+	0	1	blank2r.bmp	492	1	JXXJ	492	1	blank2r.bmp	572	1	faul	866	1	!	1239	1	!	-1	0	0	0	0	0	0	0	0	0	0	0	0	0	0	0	0	0	0	0	0	0	0	0	0	0	0	0	0	0	0
081219	10:06:12	10:14:07	474432	5.0.10.0	5_exp_RW	93	Rpleas_acq	CS_B	YDDY	BZZB	JXXJ	GWWG	MQQM	VKKV	fair	ehrlich	retten	schön	treu	spielen	faul	eitel	rächen	schlecht	tot	strafen	1	acq_USunple_CSunple2_RW	acq4567_RW	5	22	400	1	300	300	392	46	0	1	1	blank2r.bmp	0	1	+	0	1	blank2r.bmp	492	1	GWWG	492	1	blank2r.bmp	572	2	tot	866	1	!	1239	1	!	1292	0	0	0	0	0	0	0	0	0	0	0	0	0	0	0	0	0	0	0	0	0	0	0	0	0	0	0	0	0	0
081219	10:06:12	10:14:09	476697	5.0.10.0	5_exp_RW	93	Rpleas_acq	CS_B	YDDY	BZZB	JXXJ	GWWG	MQQM	VKKV	fair	ehrlich	retten	schön	treu	spielen	faul	eitel	rächen	schlecht	tot	strafen	1	acq_USpleas_CSpleas2_RW	acq4567_RW	5	23	400	0	300	300	479	50	0	1	1	blank2r.bmp	0	1	+	0	1	blank2r.bmp	492	1	BZZB	492	1	blank2r.bmp	572	3	spielen	866	1	!	1239	1	!	-1	0	0	0	0	0	0	0	0	0	0	0	0	0	0	0	0	0	0	0	0	0	0	0	0	0	0	0	0	0	0
081219	10:06:12	10:14:12	478963	5.0.10.0	5_exp_RW	93	Rpleas_acq	CS_B	YDDY	BZZB	JXXJ	GWWG	MQQM	VKKV	fair	ehrlich	retten	schön	treu	spielen	faul	eitel	rächen	schlecht	tot	strafen	1	acq_USunple_CSunple2_RW	acq4567_RW	5	24	400	0	300	300	479	46	0	1	1	blank2r.bmp	0	1	+	0	1	blank2r.bmp	492	1	GWWG	492	1	blank2r.bmp	572	1	schlecht	866	1	!	1239	1	!	-1	0	0	0	0	0	0	0	0	0	0	0	0	0	0	0	0	0	0	0	0	0	0	0	0	0	0	0	0	0	0
081219	10:06:12	10:14:14	481122	5.0.10.0	5_exp_RW	93	Rpleas_acq	CS_B	YDDY	BZZB	JXXJ	GWWG	MQQM	VKKV	fair	ehrlich	retten	schön	treu	spielen	faul	eitel	rächen	schlecht	tot	strafen	1	acq_USpleas_CSpleas1_RW	acq4567_RW	5	25	400	1	300	300	346	50	0	1	1	blank2r.bmp	0	1	+	0	1	blank2r.bmp	492	1	YDDY	492	1	blank2r.bmp	572	3	retten	866	1	!	1239	1	!	1252	0	0	0	0	0	0	0	0	0	0	0	0	0	0	0	0	0	0	0	0	0	0	0	0	0	0	0	0	0	0
081219	10:06:12	10:14:16	483388	5.0.10.0	5_exp_RW	93	Rpleas_acq	CS_B	YDDY	BZZB	JXXJ	GWWG	MQQM	VKKV	fair	ehrlich	retten	schön	treu	spielen	faul	eitel	rächen	schlecht	tot	strafen	1	acq_USunple_CSunple2_RW	acq4567_RW	5	26	400	1	300	300	464	46	0	1	1	blank2r.bmp	0	1	+	0	1	blank2r.bmp	492	1	GWWG	492	1	blank2r.bmp	572	3	strafen	866	1	!	1239	1	!	1359	0	0	0	0	0	0	0	0	0	0	0	0	0	0	0	0	0	0	0	0	0	0	0	0	0	0	0	0	0	0
081219	10:06:12	10:14:18	485627	5.0.10.0	5_exp_RW	93	Rpleas_acq	CS_B	YDDY	BZZB	JXXJ	GWWG	MQQM	VKKV	fair	ehrlich	retten	schön	treu	spielen	faul	eitel	rächen	schlecht	tot	strafen	1	acq_USunple_CSunple2_RW	acq4567_RW	5	27	400	1	300	300	442	46	0	1	1	blank2r.bmp	0	1	+	0	1	blank2r.bmp	492	1	GWWG	492	1	blank2r.bmp	572	2	tot	866	1	!	1239	1	!	1346	0	0	0	0	0	0	0	0	0	0	0	0	0	0	0	0	0	0	0	0	0	0	0	0	0	0	0	0	0	0
081219	10:06:12	10:14:20	487840	5.0.10.0	5_exp_RW	93	Rpleas_acq	CS_B	YDDY	BZZB	JXXJ	GWWG	MQQM	VKKV	fair	ehrlich	retten	schön	treu	spielen	faul	eitel	rächen	schlecht	tot	strafen	1	acq_USpleas_CSpleas1_RW	acq4567_RW	5	28	400	1	300	300	415	50	0	1	1	blank2r.bmp	0	1	+	0	1	blank2r.bmp	492	1	YDDY	492	1	blank2r.bmp	572	1	fair	866	1	!	1239	1	!	1319	0	0	0	0	0	0	0	0	0	0	0	0	0	0	0	0	0	0	0	0	0	0	0	0	0	0	0	0	0	0
081219	10:06:12	10:14:23	489985	5.0.10.0	5_exp_RW	93	Rpleas_acq	CS_B	YDDY	BZZB	JXXJ	GWWG	MQQM	VKKV	fair	ehrlich	retten	schön	treu	spielen	faul	eitel	rächen	schlecht	tot	strafen	1	acq_USunple_CSunple1_RW	acq4567_RW	5	29	400	1	300	300	357	46	0	1	1	blank2r.bmp	0	1	+	0	1	blank2r.bmp	492	1	JXXJ	492	1	blank2r.bmp	572	3	rächen	866	1	!	1239	1	!	1252	0	0	0	0	0	0	0	0	0	0	0	0	0	0	0	0	0	0	0	0	0	0	0	0	0	0	0	0	0	0
081219	10:06:12	10:14:25	492331	5.0.10.0	5_exp_RW	93	Rpleas_acq	CS_B	YDDY	BZZB	JXXJ	GWWG	MQQM	VKKV	fair	ehrlich	retten	schön	treu	spielen	faul	eitel	rächen	schlecht	tot	strafen	1	acq_USunple_CSunple1_RW	acq4567_RW	5	30	400	0	300	300	565	46	0	1	1	blank2r.bmp	0	1	+	0	1	blank2r.bmp	492	1	JXXJ	492	1	blank2r.bmp	572	2	eitel	866	1	!	1239	1	!	-1	0	0	0	0	0	0	0	0	0	0	0	0	0	0	0	0	0	0	0	0	0	0	0	0	0	0	0	0	0	0
081219	10:06:12	10:14:27	494570	5.0.10.0	5_exp_RW	93	Rpleas_acq	CS_B	YDDY	BZZB	JXXJ	GWWG	MQQM	VKKV	fair	ehrlich	retten	schön	treu	spielen	faul	eitel	rächen	schlecht	tot	strafen	1	acq_USpleas_CSpleas2_RW	acq4567_RW	5	31	400	1	300	300	431	50	0	1	1	blank2r.bmp	0	1	+	0	1	blank2r.bmp	492	1	BZZB	492	1	blank2r.bmp	572	1	schön	866	1	!	1239	1	!	1332	0	0	0	0	0	0	0	0	0	0	0	0	0	0	0	0	0	0	0	0	0	0	0	0	0	0	0	0	0	0
081219	10:06:12	10:14:29	496769	5.0.10.0	5_exp_RW	93	Rpleas_acq	CS_B	YDDY	BZZB	JXXJ	GWWG	MQQM	VKKV	fair	ehrlich	retten	schön	treu	spielen	faul	eitel	rächen	schlecht	tot	strafen	1	acq_USunple_CSunple2_RW	acq4567_RW	5	32	400	1	300	300	398	46	0	1	1	blank2r.bmp	0	1	+	0	1	blank2r.bmp	492	1	GWWG	492	1	blank2r.bmp	572	2	tot	866	1	!	1239	1	!	1292	0	0	0	0	0	0	0	0	0	0	0	0	0	0	0	0	0	0	0	0	0	0	0	0	0	0	0	0	0	0
081219	10:06:12	10:14:32	498928	5.0.10.0	5_exp_RW	93	Rpleas_acq	CS_B	YDDY	BZZB	JXXJ	GWWG	MQQM	VKKV	fair	ehrlich	retten	schön	treu	spielen	faul	eitel	rächen	schlecht	tot	strafen	1	acq_USpleas_CSpleas2_RW	acq4567_RW	5	33	400	1	300	300	346	50	0	1	1	blank2r.bmp	0	1	+	0	1	blank2r.bmp	492	1	BZZB	492	1	blank2r.bmp	572	3	spielen	866	1	!	1239	1	!	1252	0	0	0	0	0	0	0	0	0	0	0	0	0	0	0	0	0	0	0	0	0	0	0	0	0	0	0	0	0	0
081219	10:06:12	10:14:34	501207	5.0.10.0	5_exp_RW	93	Rpleas_acq	CS_B	YDDY	BZZB	JXXJ	GWWG	MQQM	VKKV	fair	ehrlich	retten	schön	treu	spielen	faul	eitel	rächen	schlecht	tot	strafen	1	acq_USunple_CSunple1_RW	acq4567_RW	5	34	400	0	300	300	509	50	0	0	1	blank2r.bmp	0	1	+	0	1	blank2r.bmp	492	1	JXXJ	492	1	blank2r.bmp	572	1	faul	866	1	!	1239	1	!	-1	0	0	0	0	0	0	0	0	0	0	0	0	0	0	0	0	0	0	0	0	0	0	0	0	0	0	0	0	0	0
081219	10:06:12	10:14:36	503366	5.0.10.0	5_exp_RW	93	Rpleas_acq	CS_B	YDDY	BZZB	JXXJ	GWWG	MQQM	VKKV	fair	ehrlich	retten	schön	treu	spielen	faul	eitel	rächen	schlecht	tot	strafen	1	acq_USpleas_CSpleas2_RW	acq4567_RW	5	35	400	1	300	300	346	50	0	1	1	blank2r.bmp	0	1	+	0	1	blank2r.bmp	492	1	BZZB	492	1	blank2r.bmp	572	2	treu	866	1	!	1239	1	!	1252	0	0	0	0	0	0	0	0	0	0	0	0	0	0	0	0	0	0	0	0	0	0	0	0	0	0	0	0	0	0
081219	10:06:12	10:14:38	505646	5.0.10.0	5_exp_RW	93	Rpleas_acq	CS_B	YDDY	BZZB	JXXJ	GWWG	MQQM	VKKV	fair	ehrlich	retten	schön	treu	spielen	faul	eitel	rächen	schlecht	tot	strafen	1	acq_USpleas_CSpleas2_RW	acq4567_RW	5	36	400	0	300	300	508	50	0	1	1	blank2r.bmp	0	1	+	0	1	blank2r.bmp	492	1	BZZB	492	1	blank2r.bmp	572	3	spielen	866	1	!	1239	1	!	-1	0	0	0	0	0	0	0	0	0	0	0	0	0	0	0	0	0	0	0	0	0	0	0	0	0	0	0	0	0	0
081219	10:06:12	10:14:40	507871	5.0.10.0	5_exp_RW	93	Rpleas_acq	CS_B	YDDY	BZZB	JXXJ	GWWG	MQQM	VKKV	fair	ehrlich	retten	schön	treu	spielen	faul	eitel	rächen	schlecht	tot	strafen	1	acq_USunple_CSunple1_RW	acq4567_RW	5	37	400	1	300	300	417	46	0	1	1	blank2r.bmp	0	1	+	0	1	blank2r.bmp	492	1	JXXJ	492	1	blank2r.bmp	572	3	rächen	866	1	!	1239	1	!	1319	0	0	0	0	0	0	0	0	0	0	0	0	0	0	0	0	0	0	0	0	0	0	0	0	0	0	0	0	0	0
081219	10:06:12	10:14:43	510150	5.0.10.0	5_exp_RW	93	Rpleas_acq	CS_B	YDDY	BZZB	JXXJ	GWWG	MQQM	VKKV	fair	ehrlich	retten	schön	treu	spielen	faul	eitel	rächen	schlecht	tot	strafen	1	acq_USpleas_CSpleas1_RW	acq4567_RW	5	38	400	0	300	300	509	50	0	1	1	blank2r.bmp	0	1	+	0	1	blank2r.bmp	492	1	YDDY	492	1	blank2r.bmp	572	2	ehrlich	866	1	!	1239	1	!	-1	0	0	0	0	0	0	0	0	0	0	0	0	0	0	0	0	0	0	0	0	0	0	0	0	0	0	0	0	0	0
081219	10:06:12	10:14:45	512256	5.0.10.0	5_exp_RW	93	Rpleas_acq	CS_B	YDDY	BZZB	JXXJ	GWWG	MQQM	VKKV	fair	ehrlich	retten	schön	treu	spielen	faul	eitel	rächen	schlecht	tot	strafen	1	acq_USpleas_CSpleas1_RW	acq4567_RW	5	39	400	0	300	300	319	46	0	0	1	blank2r.bmp	0	1	+	0	1	blank2r.bmp	492	1	YDDY	492	1	blank2r.bmp	572	3	retten	866	1	!	-1	1	!	-1	0	0	0	0	0	0	0	0	0	0	0	0	0	0	0	0	0	0	0	0	0	0	0	0	0	0	0	0	0	0
081219	10:06:12	10:14:47	514442	5.0.10.0	5_exp_RW	93	Rpleas_acq	CS_B	YDDY	BZZB	JXXJ	GWWG	MQQM	VKKV	fair	ehrlich	retten	schön	treu	spielen	faul	eitel	rächen	schlecht	tot	strafen	1	acq_USpleas_CSpleas1_RW	acq4567_RW	5	40	400	1	300	300	382	50	0	1	1	blank2r.bmp	0	1	+	0	1	blank2r.bmp	492	1	YDDY	492	1	blank2r.bmp	572	3	retten	866	1	!	1239	1	!	1279	0	0	0	0	0	0	0	0	0	0	0	0	0	0	0	0	0	0	0	0	0	0	0	0	0	0	0	0	0	0
081219	10:06:12	10:14:49	516814	5.0.10.0	5_exp_RW	93	Rpleas_acq	CS_B	YDDY	BZZB	JXXJ	GWWG	MQQM	VKKV	fair	ehrlich	retten	schön	treu	spielen	faul	eitel	rächen	schlecht	tot	strafen	1	acq_USunple_CSunple1_RW	acq4567_RW	5	41	400	0	300	300	608	46	0	1	1	blank2r.bmp	0	1	+	0	1	blank2r.bmp	492	1	JXXJ	492	1	blank2r.bmp	572	1	faul	866	1	!	1239	1	!	-1	0	0	0	0	0	0	0	0	0	0	0	0	0	0	0	0	0	0	0	0	0	0	0	0	0	0	0	0	0	0
081219	10:06:12	10:14:52	519027	5.0.10.0	5_exp_RW	93	Rpleas_acq	CS_B	YDDY	BZZB	JXXJ	GWWG	MQQM	VKKV	fair	ehrlich	retten	schön	treu	spielen	faul	eitel	rächen	schlecht	tot	strafen	1	acq_USpleas_CSpleas1_RW	acq4567_RW	5	42	400	1	300	300	399	50	0	1	1	blank2r.bmp	0	1	+	0	1	blank2r.bmp	492	1	YDDY	492	1	blank2r.bmp	572	1	fair	866	1	!	1239	1	!	1306	0	0	0	0	0	0	0	0	0	0	0	0	0	0	0	0	0	0	0	0	0	0	0	0	0	0	0	0	0	0
081219	10:06:12	10:14:54	521173	5.0.10.0	5_exp_RW	93	Rpleas_acq	CS_B	YDDY	BZZB	JXXJ	GWWG	MQQM	VKKV	fair	ehrlich	retten	schön	treu	spielen	faul	eitel	rächen	schlecht	tot	strafen	1	acq_USpleas_CSpleas2_RW	acq4567_RW	5	43	400	1	300	300	346	50	0	1	1	blank2r.bmp	0	1	+	0	1	blank2r.bmp	492	1	BZZB	492	1	blank2r.bmp	572	2	treu	866	1	!	1239	1	!	1252	0	0	0	0	0	0	0	0	0	0	0	0	0	0	0	0	0	0	0	0	0	0	0	0	0	0	0	0	0	0
081219	10:06:12	10:14:56	523425	5.0.10.0	5_exp_RW	93	Rpleas_acq	CS_B	YDDY	BZZB	JXXJ	GWWG	MQQM	VKKV	fair	ehrlich	retten	schön	treu	spielen	faul	eitel	rächen	schlecht	tot	strafen	1	acq_USpleas_CSpleas2_RW	acq4567_RW	5	44	400	0	300	300	485	50	0	1	1	blank2r.bmp	0	1	+	0	1	blank2r.bmp	492	1	BZZB	492	1	blank2r.bmp	572	1	schön	866	1	!	1239	1	!	-1	0	0	0	0	0	0	0	0	0	0	0	0	0	0	0	0	0	0	0	0	0	0	0	0	0	0	0	0	0	0
081219	10:06:12	10:14:58	525397	5.0.10.0	5_exp_RW	93	Rpleas_acq	CS_B	YDDY	BZZB	JXXJ	GWWG	MQQM	VKKV	fair	ehrlich	retten	schön	treu	spielen	faul	eitel	rächen	schlecht	tot	strafen	1	acq_USunple_CSunple1_RW	acq4567_RW	5	45	400	0	300	300	185	46	0	1	1	blank2r.bmp	0	1	+	0	1	blank2r.bmp	492	1	JXXJ	492	1	blank2r.bmp	572	2	eitel	866	1	!	-1	1	!	-1	0	0	0	0	0	0	0	0	0	0	0	0	0	0	0	0	0	0	0	0	0	0	0	0	0	0	0	0	0	0
081219	10:06:12	10:15:00	527610	5.0.10.0	5_exp_RW	93	Rpleas_acq	CS_B	YDDY	BZZB	JXXJ	GWWG	MQQM	VKKV	fair	ehrlich	retten	schön	treu	spielen	faul	eitel	rächen	schlecht	tot	strafen	1	acq_USpleas_CSpleas2_RW	acq4567_RW	5	46	400	1	300	300	387	50	0	1	1	blank2r.bmp	0	1	+	0	1	blank2r.bmp	492	1	BZZB	492	1	blank2r.bmp	572	1	schön	866	1	!	1239	1	!	1292	0	0	0	0	0	0	0	0	0	0	0	0	0	0	0	0	0	0	0	0	0	0	0	0	0	0	0	0	0	0
081219	10:06:12	10:15:02	529862	5.0.10.0	5_exp_RW	93	Rpleas_acq	CS_B	YDDY	BZZB	JXXJ	GWWG	MQQM	VKKV	fair	ehrlich	retten	schön	treu	spielen	faul	eitel	rächen	schlecht	tot	strafen	1	acq_USunple_CSunple2_RW	acq4567_RW	5	47	400	1	300	300	451	46	0	1	1	blank2r.bmp	0	1	+	0	1	blank2r.bmp	492	1	GWWG	492	1	blank2r.bmp	572	3	strafen	866	1	!	1239	1	!	1346	0	0	0	0	0	0	0	0	0	0	0	0	0	0	0	0	0	0	0	0	0	0	0	0	0	0	0	0	0	0
081219	10:06:12	10:15:05	532115	5.0.10.0	5_exp_RW	93	Rpleas_acq	CS_B	YDDY	BZZB	JXXJ	GWWG	MQQM	VKKV	fair	ehrlich	retten	schön	treu	spielen	faul	eitel	rächen	schlecht	tot	strafen	1	acq_USpleas_CSpleas1_RW	acq4567_RW	5	48	400	0	300	300	479	50	0	1	1	blank2r.bmp	0	1	+	0	1	blank2r.bmp	492	1	YDDY	492	1	blank2r.bmp	572	2	ehrlich	866	1	!	1239	1	!	-1	0	0	0	0	0	0	0	0	0	0	0	0	0	0	0	0	0	0	0	0	0	0	0	0	0	0	0	0	0	0
081219	10:06:12	10:15:07	534314	5.0.10.0	5_exp_RW	93	Rpleas_acq	CS_B	YDDY	BZZB	JXXJ	GWWG	MQQM	VKKV	fair	ehrlich	retten	schön	treu	spielen	faul	eitel	rächen	schlecht	tot	strafen	1	acq_USunple_CSunple2_RW	acq4567_RW	5	49	400	1	300	300	398	50	0	0	1	blank2r.bmp	0	1	+	0	1	blank2r.bmp	492	1	GWWG	492	1	blank2r.bmp	572	1	schlecht	866	1	!	1239	1	!	1292	0	0	0	0	0	0	0	0	0	0	0	0	0	0	0	0	0	0	0	0	0	0	0	0	0	0	0	0	0	0
081219	10:06:12	10:15:10	537446	5.0.10.0	5_exp_RW	93	Rpleas_acq	CS_B	YDDY	BZZB	JXXJ	GWWG	MQQM	VKKV	fair	ehrlich	retten	schön	treu	spielen	faul	eitel	rächen	schlecht	tot	strafen	1	acq_USunple_CSunple2_RW	acq4567_RW	5	50	400	0	300	300	1358	46	0	1	1	blank2r.bmp	0	1	+	0	1	blank2r.bmp	492	1	GWWG	492	1	blank2r.bmp	572	3	strafen	866	1	!	1239	1	!	-1	0	0	0	0	0	0	0	0	0	0	0	0	0	0	0	0	0	0	0	0	0	0	0	0	0	0	0	0	0	0
081219	10:06:12	10:15:12	539632	5.0.10.0	5_exp_RW	93	Rpleas_acq	CS_B	YDDY	BZZB	JXXJ	GWWG	MQQM	VKKV	fair	ehrlich	retten	schön	treu	spielen	faul	eitel	rächen	schlecht	tot	strafen	1	acq_USunple_CSunple1_RW	acq4567_RW	5	51	400	1	300	300	380	50	0	0	1	blank2r.bmp	0	1	+	0	1	blank2r.bmp	492	1	JXXJ	492	1	blank2r.bmp	572	3	rächen	866	1	!	1239	1	!	1279	0	0	0	0	0	0	0	0	0	0	0	0	0	0	0	0	0	0	0	0	0	0	0	0	0	0	0	0	0	0
081219	10:06:12	10:15:14	541777	5.0.10.0	5_exp_RW	93	Rpleas_acq	CS_B	YDDY	BZZB	JXXJ	GWWG	MQQM	VKKV	fair	ehrlich	retten	schön	treu	spielen	faul	eitel	rächen	schlecht	tot	strafen	1	acq_USunple_CSunple1_RW	acq4567_RW	5	52	400	1	300	300	354	50	0	0	1	blank2r.bmp	0	1	+	0	1	blank2r.bmp	492	1	JXXJ	492	1	blank2r.bmp	572	2	eitel	866	1	!	1239	1	!	1252	0	0	0	0	0	0	0	0	0	0	0	0	0	0	0	0	0	0	0	0	0	0	0	0	0	0	0	0	0	0
081219	10:06:12	10:15:17	544043	5.0.10.0	5_exp_RW	93	Rpleas_acq	CS_B	YDDY	BZZB	JXXJ	GWWG	MQQM	VKKV	fair	ehrlich	retten	schön	treu	spielen	faul	eitel	rächen	schlecht	tot	strafen	1	acq_USpleas_CSpleas2_RW	acq4567_RW	5	53	400	0	300	300	480	50	0	1	1	blank2r.bmp	0	1	+	0	1	blank2r.bmp	492	1	BZZB	492	1	blank2r.bmp	572	2	treu	866	1	!	1239	1	!	-1	0	0	0	0	0	0	0	0	0	0	0	0	0	0	0	0	0	0	0	0	0	0	0	0	0	0	0	0	0	0
081219	10:06:12	10:15:19	546136	5.0.10.0	5_exp_RW	93	Rpleas_acq	CS_B	YDDY	BZZB	JXXJ	GWWG	MQQM	VKKV	fair	ehrlich	retten	schön	treu	spielen	faul	eitel	rächen	schlecht	tot	strafen	1	acq_USpleas_CSpleas1_RW	acq4567_RW	5	54	400	0	300	300	309	46	0	0	1	blank2r.bmp	0	1	+	0	1	blank2r.bmp	492	1	YDDY	492	1	blank2r.bmp	572	2	ehrlich	866	1	!	-1	1	!	-1	0	0	0	0	0	0	0	0	0	0	0	0	0	0	0	0	0	0	0	0	0	0	0	0	0	0	0	0	0	0
081219	10:06:12	10:15:21	548748	5.0.10.0	5_exp_RW	93	Rpleas_acq	CS_B	YDDY	BZZB	JXXJ	GWWG	MQQM	VKKV	fair	ehrlich	retten	schön	treu	spielen	faul	eitel	rächen	schlecht	tot	strafen	1	acq_USunple_CSunple2_RW	acq4567_RW	5	55	400	0	300	300	826	46	0	1	1	blank2r.bmp	0	1	+	0	1	blank2r.bmp	492	1	GWWG	492	1	blank2r.bmp	572	2	tot	866	1	!	1239	1	!	-1	0	0	0	0	0	0	0	0	0	0	0	0	0	0	0	0	0	0	0	0	0	0	0	0	0	0	0	0	0	0
081219	10:06:12	10:15:24	551134	5.0.10.0	5_exp_RW	93	Rpleas_acq	CS_B	YDDY	BZZB	JXXJ	GWWG	MQQM	VKKV	fair	ehrlich	retten	schön	treu	spielen	faul	eitel	rächen	schlecht	tot	strafen	1	acq_USunple_CSunple1_RW	acq4567_RW	5	56	400	0	300	300	605	46	0	1	1	blank2r.bmp	0	1	+	0	1	blank2r.bmp	492	1	JXXJ	492	1	blank2r.bmp	572	1	faul	866	1	!	1239	1	!	-1	0	0	0	0	0	0	0	0	0	0	0	0	0	0	0	0	0	0	0	0	0	0	0	0	0	0	0	0	0	0
081219	10:06:12	10:15:26	553373	5.0.10.0	5_exp_RW	93	Rpleas_acq	CS_B	YDDY	BZZB	JXXJ	GWWG	MQQM	VKKV	fair	ehrlich	retten	schön	treu	spielen	faul	eitel	rächen	schlecht	tot	strafen	1	acq_USunple_CSunple2_RW	acq4567_RW	5	57	400	1	300	300	430	46	0	1	1	blank2r.bmp	0	1	+	0	1	blank2r.bmp	492	1	GWWG	492	1	blank2r.bmp	572	1	schlecht	866	1	!	1239	1	!	1332	0	0	0	0	0	0	0	0	0	0	0	0	0	0	0	0	0	0	0	0	0	0	0	0	0	0	0	0	0	0
081219	10:06:12	10:15:28	555518	5.0.10.0	5_exp_RW	93	Rpleas_acq	CS_B	YDDY	BZZB	JXXJ	GWWG	MQQM	VKKV	fair	ehrlich	retten	schön	treu	spielen	faul	eitel	rächen	schlecht	tot	strafen	1	acq_USpleas_CSpleas1_RW	acq4567_RW	5	58	400	1	300	300	353	50	0	1	1	blank2r.bmp	0	1	+	0	1	blank2r.bmp	492	1	YDDY	492	1	blank2r.bmp	572	1	fair	866	1	!	1239	1	!	1252	0	0	0	0	0	0	0	0	0	0	0	0	0	0	0	0	0	0	0	0	0	0	0	0	0	0	0	0	0	0
081219	10:06:12	10:15:30	557678	5.0.10.0	5_exp_RW	93	Rpleas_acq	CS_B	YDDY	BZZB	JXXJ	GWWG	MQQM	VKKV	fair	ehrlich	retten	schön	treu	spielen	faul	eitel	rächen	schlecht	tot	strafen	1	acq_USpleas_CSpleas2_RW	acq4567_RW	5	59	400	1	300	300	346	50	0	1	1	blank2r.bmp	0	1	+	0	1	blank2r.bmp	492	1	BZZB	492	1	blank2r.bmp	572	3	spielen	866	1	!	1239	1	!	1252	0	0	0	0	0	0	0	0	0	0	0	0	0	0	0	0	0	0	0	0	0	0	0	0	0	0	0	0	0	0
081219	10:06:12	10:15:32	559770	5.0.10.0	5_exp_RW	93	Rpleas_acq	CS_B	YDDY	BZZB	JXXJ	GWWG	MQQM	VKKV	fair	ehrlich	retten	schön	treu	spielen	faul	eitel	rächen	schlecht	tot	strafen	1	acq_USpleas_CSpleas1_RW	acq4567_RW	5	60	400	0	300	300	313	46	0	0	1	blank2r.bmp	0	1	+	0	1	blank2r.bmp	492	1	YDDY	492	1	blank2r.bmp	572	3	retten	866	1	!	-1	1	!	-1	0	0	0	0	0	0	0	0	0	0	0	0	0	0	0	0	0	0	0	0	0	0	0	0	0	0	0	0	0	0
081219	10:06:12	10:15:35	562036	5.0.10.0	5_exp_RW	93	Rpleas_acq	CS_B	YDDY	BZZB	JXXJ	GWWG	MQQM	VKKV	fair	ehrlich	retten	schön	treu	spielen	faul	eitel	rächen	schlecht	tot	strafen	1	acq_USunple_CSunple2_RW	acq4567_RW	5	61	400	0	300	300	494	46	0	1	1	blank2r.bmp	0	1	+	0	1	blank2r.bmp	492	1	GWWG	492	1	blank2r.bmp	572	3	strafen	866	1	!	1239	1	!	-1	0	0	0	0	0	0	0	0	0	0	0	0	0	0	0	0	0	0	0	0	0	0	0	0	0	0	0	0	0	0
081219	10:06:12	10:15:37	564262	5.0.10.0	5_exp_RW	93	Rpleas_acq	CS_B	YDDY	BZZB	JXXJ	GWWG	MQQM	VKKV	fair	ehrlich	retten	schön	treu	spielen	faul	eitel	rächen	schlecht	tot	strafen	1	acq_USunple_CSunple1_RW	acq4567_RW	5	62	400	1	300	300	420	46	0	1	1	blank2r.bmp	0	1	+	0	1	blank2r.bmp	492	1	JXXJ	492	1	blank2r.bmp	572	3	rächen	866	1	!	1239	1	!	1319	0	0	0	0	0	0	0	0	0	0	0	0	0	0	0	0	0	0	0	0	0	0	0	0	0	0	0	0	0	0
081219	10:06:12	10:15:39	566514	5.0.10.0	5_exp_RW	93	Rpleas_acq	CS_B	YDDY	BZZB	JXXJ	GWWG	MQQM	VKKV	fair	ehrlich	retten	schön	treu	spielen	faul	eitel	rächen	schlecht	tot	strafen	1	acq_USpleas_CSpleas2_RW	acq4567_RW	5	63	400	0	300	300	479	50	0	1	1	blank2r.bmp	0	1	+	0	1	blank2r.bmp	492	1	BZZB	492	1	blank2r.bmp	572	1	schön	866	1	!	1239	1	!	-1	0	0	0	0	0	0	0	0	0	0	0	0	0	0	0	0	0	0	0	0	0	0	0	0	0	0	0	0	0	0
081219	10:06:12	10:15:41	568686	5.0.10.0	5_exp_RW	93	Rpleas_acq	CS_B	YDDY	BZZB	JXXJ	GWWG	MQQM	VKKV	fair	ehrlich	retten	schön	treu	spielen	faul	eitel	rächen	schlecht	tot	strafen	1	acq_USunple_CSunple1_RW	acq4567_RW	5	64	400	1	300	300	371	46	0	1	1	blank2r.bmp	0	1	+	0	1	blank2r.bmp	492	1	JXXJ	492	1	blank2r.bmp	572	2	eitel	866	1	!	1239	1	!	1266	0	0	0	0	0	0	0	0	0	0	0	0	0	0	0	0	0	0	0	0	0	0	0	0	0	0	0	0	0	0
081219	10:06:12	10:15:43	570779	5.0.10.0	5_exp_RW	93	Rpleas_acq	CS_B	YDDY	BZZB	JXXJ	GWWG	MQQM	VKKV	fair	ehrlich	retten	schön	treu	spielen	faul	eitel	rächen	schlecht	tot	strafen	1	acq_USunple_CSunple2_RW	acq4567_RW	5	65	400	0	300	300	315	50	0	0	1	blank2r.bmp	0	1	+	0	1	blank2r.bmp	492	1	GWWG	492	1	blank2r.bmp	572	2	tot	866	1	!	-1	1	!	-1	0	0	0	0	0	0	0	0	0	0	0	0	0	0	0	0	0	0	0	0	0	0	0	0	0	0	0	0	0	0
081219	10:06:12	10:15:46	573031	5.0.10.0	5_exp_RW	93	Rpleas_acq	CS_B	YDDY	BZZB	JXXJ	GWWG	MQQM	VKKV	fair	ehrlich	retten	schön	treu	spielen	faul	eitel	rächen	schlecht	tot	strafen	1	acq_USpleas_CSpleas1_RW	acq4567_RW	5	66	400	1	300	300	435	50	0	1	1	blank2r.bmp	0	1	+	0	1	blank2r.bmp	492	1	YDDY	492	1	blank2r.bmp	572	2	ehrlich	866	1	!	1239	1	!	1332	0	0	0	0	0	0	0	0	0	0	0	0	0	0	0	0	0	0	0	0	0	0	0	0	0	0	0	0	0	0
081219	10:06:12	10:15:48	575217	5.0.10.0	5_exp_RW	93	Rpleas_acq	CS_B	YDDY	BZZB	JXXJ	GWWG	MQQM	VKKV	fair	ehrlich	retten	schön	treu	spielen	faul	eitel	rächen	schlecht	tot	strafen	1	acq_USpleas_CSpleas2_RW	acq4567_RW	5	67	400	1	300	300	395	50	0	1	1	blank2r.bmp	0	1	+	0	1	blank2r.bmp	492	1	BZZB	492	1	blank2r.bmp	572	3	spielen	866	1	!	1239	1	!	1292	0	0	0	0	0	0	0	0	0	0	0	0	0	0	0	0	0	0	0	0	0	0	0	0	0	0	0	0	0	0
081219	10:06:12	10:15:50	577296	5.0.10.0	5_exp_RW	93	Rpleas_acq	CS_B	YDDY	BZZB	JXXJ	GWWG	MQQM	VKKV	fair	ehrlich	retten	schön	treu	spielen	faul	eitel	rächen	schlecht	tot	strafen	1	acq_USunple_CSunple1_RW	acq4567_RW	5	68	400	0	300	300	307	50	0	0	1	blank2r.bmp	0	1	+	0	1	blank2r.bmp	492	1	JXXJ	492	1	blank2r.bmp	572	1	faul	866	1	!	-1	1	!	-1	0	0	0	0	0	0	0	0	0	0	0	0	0	0	0	0	0	0	0	0	0	0	0	0	0	0	0	0	0	0
081219	10:06:12	10:15:52	579522	5.0.10.0	5_exp_RW	93	Rpleas_acq	CS_B	YDDY	BZZB	JXXJ	GWWG	MQQM	VKKV	fair	ehrlich	retten	schön	treu	spielen	faul	eitel	rächen	schlecht	tot	strafen	1	acq_USunple_CSunple2_RW	acq4567_RW	5	69	400	1	300	300	412	50	0	0	1	blank2r.bmp	0	1	+	0	1	blank2r.bmp	492	1	GWWG	492	1	blank2r.bmp	572	1	schlecht	866	1	!	1239	1	!	1319	0	0	0	0	0	0	0	0	0	0	0	0	0	0	0	0	0	0	0	0	0	0	0	0	0	0	0	0	0	0
081219	10:06:12	10:15:54	581668	5.0.10.0	5_exp_RW	93	Rpleas_acq	CS_B	YDDY	BZZB	JXXJ	GWWG	MQQM	VKKV	fair	ehrlich	retten	schön	treu	spielen	faul	eitel	rächen	schlecht	tot	strafen	1	acq_USpleas_CSpleas2_RW	acq4567_RW	5	70	400	1	300	300	353	46	0	0	1	blank2r.bmp	0	1	+	0	1	blank2r.bmp	492	1	BZZB	492	1	blank2r.bmp	572	2	treu	866	1	!	1239	1	!	1252	0	0	0	0	0	0	0	0	0	0	0	0	0	0	0	0	0	0	0	0	0	0	0	0	0	0	0	0	0	0
081219	10:06:12	10:15:56	583814	5.0.10.0	5_exp_RW	93	Rpleas_acq	CS_B	YDDY	BZZB	JXXJ	GWWG	MQQM	VKKV	fair	ehrlich	retten	schön	treu	spielen	faul	eitel	rächen	schlecht	tot	strafen	1	acq_USpleas_CSpleas1_RW	acq4567_RW	5	71	400	1	300	300	346	50	0	1	1	blank2r.bmp	0	1	+	0	1	blank2r.bmp	492	1	YDDY	492	1	blank2r.bmp	572	1	fair	866	1	!	1239	1	!	1252	0	0	0	0	0	0	0	0	0	0	0	0	0	0	0	0	0	0	0	0	0	0	0	0	0	0	0	0	0	0
081219	10:06:12	10:15:59	586066	5.0.10.0	5_exp_RW	93	Rpleas_acq	CS_B	YDDY	BZZB	JXXJ	GWWG	MQQM	VKKV	fair	ehrlich	retten	schön	treu	spielen	faul	eitel	rächen	schlecht	tot	strafen	1	acq_USpleas_CSpleas1_RW	acq4567_RW	5	72	400	1	300	300	457	46	0	0	1	blank2r.bmp	0	1	+	0	1	blank2r.bmp	492	1	YDDY	492	1	blank2r.bmp	572	3	retten	866	1	!	1239	1	!	1359	0	0	0	0	0	0	0	0	0	0	0	0	0	0	0	0	0	0	0	0	0	0	0	0	0	0	0	0	0	0
081219	10:06:12	10:16:01	588318	5.0.10.0	5_exp_RW	93	Rpleas_acq	CS_B	YDDY	BZZB	JXXJ	GWWG	MQQM	VKKV	fair	ehrlich	retten	schön	treu	spielen	faul	eitel	rächen	schlecht	tot	strafen	1	acq_USunple_CSunple1_RW	acq4567_RW	5	73	400	0	300	300	486	46	0	1	1	blank2r.bmp	0	1	+	0	1	blank2r.bmp	492	1	JXXJ	492	1	blank2r.bmp	572	1	faul	866	1	!	1239	1	!	-1	0	0	0	0	0	0	0	0	0	0	0	0	0	0	0	0	0	0	0	0	0	0	0	0	0	0	0	0	0	0
081219	10:06:12	10:16:03	590531	5.0.10.0	5_exp_RW	93	Rpleas_acq	CS_B	YDDY	BZZB	JXXJ	GWWG	MQQM	VKKV	fair	ehrlich	retten	schön	treu	spielen	faul	eitel	rächen	schlecht	tot	strafen	1	acq_USpleas_CSpleas2_RW	acq4567_RW	5	74	400	1	300	300	402	50	0	1	1	blank2r.bmp	0	1	+	0	1	blank2r.bmp	492	1	BZZB	492	1	blank2r.bmp	572	1	schön	866	1	!	1239	1	!	1306	0	0	0	0	0	0	0	0	0	0	0	0	0	0	0	0	0	0	0	0	0	0	0	0	0	0	0	0	0	0
081219	10:06:12	10:16:05	592703	5.0.10.0	5_exp_RW	93	Rpleas_acq	CS_B	YDDY	BZZB	JXXJ	GWWG	MQQM	VKKV	fair	ehrlich	retten	schön	treu	spielen	faul	eitel	rächen	schlecht	tot	strafen	1	acq_USunple_CSunple2_RW	acq4567_RW	5	75	400	1	300	300	380	46	0	1	1	blank2r.bmp	0	1	+	0	1	blank2r.bmp	492	1	GWWG	492	1	blank2r.bmp	572	1	schlecht	866	1	!	1239	1	!	1279	0	0	0	0	0	0	0	0	0	0	0	0	0	0	0	0	0	0	0	0	0	0	0	0	0	0	0	0	0	0
081219	10:06:12	10:16:07	594849	5.0.10.0	5_exp_RW	93	Rpleas_acq	CS_B	YDDY	BZZB	JXXJ	GWWG	MQQM	VKKV	fair	ehrlich	retten	schön	treu	spielen	faul	eitel	rächen	schlecht	tot	strafen	1	acq_USpleas_CSpleas1_RW	acq4567_RW	5	76	400	1	300	300	350	46	0	0	1	blank2r.bmp	0	1	+	0	1	blank2r.bmp	492	1	YDDY	492	1	blank2r.bmp	572	2	ehrlich	866	1	!	1239	1	!	1252	0	0	0	0	0	0	0	0	0	0	0	0	0	0	0	0	0	0	0	0	0	0	0	0	0	0	0	0	0	0
081219	10:06:12	10:16:10	597035	5.0.10.0	5_exp_RW	93	Rpleas_acq	CS_B	YDDY	BZZB	JXXJ	GWWG	MQQM	VKKV	fair	ehrlich	retten	schön	treu	spielen	faul	eitel	rächen	schlecht	tot	strafen	1	acq_USunple_CSunple2_RW	acq4567_RW	5	77	400	1	300	300	390	46	0	1	1	blank2r.bmp	0	1	+	0	1	blank2r.bmp	492	1	GWWG	492	1	blank2r.bmp	572	3	strafen	866	1	!	1239	1	!	1292	0	0	0	0	0	0	0	0	0	0	0	0	0	0	0	0	0	0	0	0	0	0	0	0	0	0	0	0	0	0
081219	10:06:12	10:16:12	599274	5.0.10.0	5_exp_RW	93	Rpleas_acq	CS_B	YDDY	BZZB	JXXJ	GWWG	MQQM	VKKV	fair	ehrlich	retten	schön	treu	spielen	faul	eitel	rächen	schlecht	tot	strafen	1	acq_USpleas_CSpleas2_RW	acq4567_RW	5	78	400	1	300	300	440	50	0	1	1	blank2r.bmp	0	1	+	0	1	blank2r.bmp	492	1	BZZB	492	1	blank2r.bmp	572	2	treu	866	1	!	1239	1	!	1346	0	0	0	0	0	0	0	0	0	0	0	0	0	0	0	0	0	0	0	0	0	0	0	0	0	0	0	0	0	0
081219	10:06:12	10:16:14	601366	5.0.10.0	5_exp_RW	93	Rpleas_acq	CS_B	YDDY	BZZB	JXXJ	GWWG	MQQM	VKKV	fair	ehrlich	retten	schön	treu	spielen	faul	eitel	rächen	schlecht	tot	strafen	1	acq_USpleas_CSpleas1_RW	acq4567_RW	5	79	400	0	300	300	329	50	0	1	1	blank2r.bmp	0	1	+	0	1	blank2r.bmp	492	1	YDDY	492	1	blank2r.bmp	572	3	retten	866	1	!	-1	1	!	-1	0	0	0	0	0	0	0	0	0	0	0	0	0	0	0	0	0	0	0	0	0	0	0	0	0	0	0	0	0	0
081219	10:06:12	10:16:16	603446	5.0.10.0	5_exp_RW	93	Rpleas_acq	CS_B	YDDY	BZZB	JXXJ	GWWG	MQQM	VKKV	fair	ehrlich	retten	schön	treu	spielen	faul	eitel	rächen	schlecht	tot	strafen	1	acq_USunple_CSunple1_RW	acq4567_RW	5	80	400	0	300	300	300	46	0	1	1	blank2r.bmp	0	1	+	0	1	blank2r.bmp	492	1	JXXJ	492	1	blank2r.bmp	572	3	rächen	866	1	!	-1	1	!	-1	0	0	0	0	0	0	0	0	0	0	0	0	0	0	0	0	0	0	0	0	0	0	0	0	0	0	0	0	0	0
081219	10:06:12	10:16:24	611549	5.0.10.0	5_exp_RW	93	Rpleas_acq	CS_B	YDDY	BZZB	JXXJ	GWWG	MQQM	VKKV	fair	ehrlich	retten	schön	treu	spielen	faul	eitel	rächen	schlecht	tot	strafen	1	acq_USpleas_CSpleas1_RW	acq4567_RW	6	1	400	1	300	300	375	50	0	1	1	blank2r.bmp	0	1	+	0	1	blank2r.bmp	492	1	YDDY	492	1	blank2r.bmp	572	1	fair	866	1	!	1239	1	!	1279	0	0	0	0	0	0	0	0	0	0	0	0	0	0	0	0	0	0	0	0	0	0	0	0	0	0	0	0	0	0
081219	10:06:12	10:16:26	613695	5.0.10.0	5_exp_RW	93	Rpleas_acq	CS_B	YDDY	BZZB	JXXJ	GWWG	MQQM	VKKV	fair	ehrlich	retten	schön	treu	spielen	faul	eitel	rächen	schlecht	tot	strafen	1	acq_USunple_CSunple2_RW	acq4567_RW	6	2	400	1	300	300	346	50	0	0	1	blank2r.bmp	0	1	+	0	1	blank2r.bmp	492	1	GWWG	492	1	blank2r.bmp	572	2	tot	866	1	!	1239	1	!	1252	0	0	0	0	0	0	0	0	0	0	0	0	0	0	0	0	0	0	0	0	0	0	0	0	0	0	0	0	0	0
081219	10:06:12	10:16:29	615947	5.0.10.0	5_exp_RW	93	Rpleas_acq	CS_B	YDDY	BZZB	JXXJ	GWWG	MQQM	VKKV	fair	ehrlich	retten	schön	treu	spielen	faul	eitel	rächen	schlecht	tot	strafen	1	acq_USpleas_CSpleas2_RW	acq4567_RW	6	3	400	0	300	300	479	50	0	1	1	blank2r.bmp	0	1	+	0	1	blank2r.bmp	492	1	BZZB	492	1	blank2r.bmp	572	3	spielen	866	1	!	1239	1	!	-1	0	0	0	0	0	0	0	0	0	0	0	0	0	0	0	0	0	0	0	0	0	0	0	0	0	0	0	0	0	0
081219	10:06:12	10:16:31	618226	5.0.10.0	5_exp_RW	93	Rpleas_acq	CS_B	YDDY	BZZB	JXXJ	GWWG	MQQM	VKKV	fair	ehrlich	retten	schön	treu	spielen	faul	eitel	rächen	schlecht	tot	strafen	1	acq_USunple_CSunple1_RW	acq4567_RW	6	4	400	0	300	300	499	46	0	1	1	blank2r.bmp	0	1	+	0	1	blank2r.bmp	492	1	JXXJ	492	1	blank2r.bmp	572	2	eitel	866	1	!	1239	1	!	-1	0	0	0	0	0	0	0	0	0	0	0	0	0	0	0	0	0	0	0	0	0	0	0	0	0	0	0	0	0	0
081219	10:06:12	10:16:33	620305	5.0.10.0	5_exp_RW	93	Rpleas_acq	CS_B	YDDY	BZZB	JXXJ	GWWG	MQQM	VKKV	fair	ehrlich	retten	schön	treu	spielen	faul	eitel	rächen	schlecht	tot	strafen	1	acq_USpleas_CSpleas2_RW	acq4567_RW	6	5	400	0	300	300	297	50	0	1	1	blank2r.bmp	0	1	+	0	1	blank2r.bmp	492	1	BZZB	492	1	blank2r.bmp	572	1	schön	866	1	!	-1	1	!	-1	0	0	0	0	0	0	0	0	0	0	0	0	0	0	0	0	0	0	0	0	0	0	0	0	0	0	0	0	0	0
081219	10:06:12	10:16:35	622518	5.0.10.0	5_exp_RW	93	Rpleas_acq	CS_B	YDDY	BZZB	JXXJ	GWWG	MQQM	VKKV	fair	ehrlich	retten	schön	treu	spielen	faul	eitel	rächen	schlecht	tot	strafen	1	acq_USunple_CSunple2_RW	acq4567_RW	6	6	400	1	300	300	402	46	0	1	1	blank2r.bmp	0	1	+	0	1	blank2r.bmp	492	1	GWWG	492	1	blank2r.bmp	572	3	strafen	866	1	!	1239	1	!	1306	0	0	0	0	0	0	0	0	0	0	0	0	0	0	0	0	0	0	0	0	0	0	0	0	0	0	0	0	0	0
081219	10:06:12	10:16:37	624677	5.0.10.0	5_exp_RW	93	Rpleas_acq	CS_B	YDDY	BZZB	JXXJ	GWWG	MQQM	VKKV	fair	ehrlich	retten	schön	treu	spielen	faul	eitel	rächen	schlecht	tot	strafen	1	acq_USunple_CSunple2_RW	acq4567_RW	6	7	400	1	300	300	369	46	0	1	1	blank2r.bmp	0	1	+	0	1	blank2r.bmp	492	1	GWWG	492	1	blank2r.bmp	572	1	schlecht	866	1	!	1239	1	!	1266	0	0	0	0	0	0	0	0	0	0	0	0	0	0	0	0	0	0	0	0	0	0	0	0	0	0	0	0	0	0
081219	10:06:12	10:16:39	626836	5.0.10.0	5_exp_RW	93	Rpleas_acq	CS_B	YDDY	BZZB	JXXJ	GWWG	MQQM	VKKV	fair	ehrlich	retten	schön	treu	spielen	faul	eitel	rächen	schlecht	tot	strafen	1	acq_USunple_CSunple1_RW	acq4567_RW	6	8	400	1	300	300	368	46	0	1	1	blank2r.bmp	0	1	+	0	1	blank2r.bmp	492	1	JXXJ	492	1	blank2r.bmp	572	3	rächen	866	1	!	1239	1	!	1266	0	0	0	0	0	0	0	0	0	0	0	0	0	0	0	0	0	0	0	0	0	0	0	0	0	0	0	0	0	0
081219	10:06:12	10:16:42	629035	5.0.10.0	5_exp_RW	93	Rpleas_acq	CS_B	YDDY	BZZB	JXXJ	GWWG	MQQM	VKKV	fair	ehrlich	retten	schön	treu	spielen	faul	eitel	rächen	schlecht	tot	strafen	1	acq_USunple_CSunple1_RW	acq4567_RW	6	9	400	1	300	300	411	46	0	1	1	blank2r.bmp	0	1	+	0	1	blank2r.bmp	492	1	JXXJ	492	1	blank2r.bmp	572	1	faul	866	1	!	1239	1	!	1306	0	0	0	0	0	0	0	0	0	0	0	0	0	0	0	0	0	0	0	0	0	0	0	0	0	0	0	0	0	0
081219	10:06:12	10:16:44	631101	5.0.10.0	5_exp_RW	93	Rpleas_acq	CS_B	YDDY	BZZB	JXXJ	GWWG	MQQM	VKKV	fair	ehrlich	retten	schön	treu	spielen	faul	eitel	rächen	schlecht	tot	strafen	1	acq_USpleas_CSpleas1_RW	acq4567_RW	6	10	400	0	300	300	296	50	0	1	1	blank2r.bmp	0	1	+	0	1	blank2r.bmp	492	1	YDDY	492	1	blank2r.bmp	572	2	ehrlich	866	1	!	-1	1	!	-1	0	0	0	0	0	0	0	0	0	0	0	0	0	0	0	0	0	0	0	0	0	0	0	0	0	0	0	0	0	0
081219	10:06:12	10:16:46	633567	5.0.10.0	5_exp_RW	93	Rpleas_acq	CS_B	YDDY	BZZB	JXXJ	GWWG	MQQM	VKKV	fair	ehrlich	retten	schön	treu	spielen	faul	eitel	rächen	schlecht	tot	strafen	1	acq_USpleas_CSpleas1_RW	acq4567_RW	6	11	400	0	300	300	688	50	0	1	1	blank2r.bmp	0	1	+	0	1	blank2r.bmp	492	1	YDDY	492	1	blank2r.bmp	572	3	retten	866	1	!	1239	1	!	-1	0	0	0	0	0	0	0	0	0	0	0	0	0	0	0	0	0	0	0	0	0	0	0	0	0	0	0	0	0	0
081219	10:06:12	10:16:48	635672	5.0.10.0	5_exp_RW	93	Rpleas_acq	CS_B	YDDY	BZZB	JXXJ	GWWG	MQQM	VKKV	fair	ehrlich	retten	schön	treu	spielen	faul	eitel	rächen	schlecht	tot	strafen	1	acq_USpleas_CSpleas1_RW	acq4567_RW	6	12	400	0	300	300	330	50	0	1	1	blank2r.bmp	0	1	+	0	1	blank2r.bmp	492	1	YDDY	492	1	blank2r.bmp	572	1	fair	866	1	!	-1	1	!	-1	0	0	0	0	0	0	0	0	0	0	0	0	0	0	0	0	0	0	0	0	0	0	0	0	0	0	0	0	0	0
081219	10:06:12	10:16:51	637898	5.0.10.0	5_exp_RW	93	Rpleas_acq	CS_B	YDDY	BZZB	JXXJ	GWWG	MQQM	VKKV	fair	ehrlich	retten	schön	treu	spielen	faul	eitel	rächen	schlecht	tot	strafen	1	acq_USunple_CSunple2_RW	acq4567_RW	6	13	400	1	300	300	416	46	0	1	1	blank2r.bmp	0	1	+	0	1	blank2r.bmp	492	1	GWWG	492	1	blank2r.bmp	572	2	tot	866	1	!	1239	1	!	1319	0	0	0	0	0	0	0	0	0	0	0	0	0	0	0	0	0	0	0	0	0	0	0	0	0	0	0	0	0	0
081219	10:06:12	10:16:53	639977	5.0.10.0	5_exp_RW	93	Rpleas_acq	CS_B	YDDY	BZZB	JXXJ	GWWG	MQQM	VKKV	fair	ehrlich	retten	schön	treu	spielen	faul	eitel	rächen	schlecht	tot	strafen	1	acq_USpleas_CSpleas2_RW	acq4567_RW	6	14	400	0	300	300	307	50	0	1	1	blank2r.bmp	0	1	+	0	1	blank2r.bmp	492	1	BZZB	492	1	blank2r.bmp	572	3	spielen	866	1	!	-1	1	!	-1	0	0	0	0	0	0	0	0	0	0	0	0	0	0	0	0	0	0	0	0	0	0	0	0	0	0	0	0	0	0
081219	10:06:12	10:16:55	642083	5.0.10.0	5_exp_RW	93	Rpleas_acq	CS_B	YDDY	BZZB	JXXJ	GWWG	MQQM	VKKV	fair	ehrlich	retten	schön	treu	spielen	faul	eitel	rächen	schlecht	tot	strafen	1	acq_USpleas_CSpleas1_RW	acq4567_RW	6	15	400	0	300	300	320	50	0	1	1	blank2r.bmp	0	1	+	0	1	blank2r.bmp	492	1	YDDY	492	1	blank2r.bmp	572	3	retten	866	1	!	-1	1	!	-1	0	0	0	0	0	0	0	0	0	0	0	0	0	0	0	0	0	0	0	0	0	0	0	0	0	0	0	0	0	0
081219	10:06:12	10:16:57	644549	5.0.10.0	5_exp_RW	93	Rpleas_acq	CS_B	YDDY	BZZB	JXXJ	GWWG	MQQM	VKKV	fair	ehrlich	retten	schön	treu	spielen	faul	eitel	rächen	schlecht	tot	strafen	1	acq_USunple_CSunple1_RW	acq4567_RW	6	16	400	0	300	300	690	46	0	1	1	blank2r.bmp	0	1	+	0	1	blank2r.bmp	492	1	JXXJ	492	1	blank2r.bmp	572	2	eitel	866	1	!	1239	1	!	-1	0	0	0	0	0	0	0	0	0	0	0	0	0	0	0	0	0	0	0	0	0	0	0	0	0	0	0	0	0	0
081219	10:06:12	10:16:59	646854	5.0.10.0	5_exp_RW	93	Rpleas_acq	CS_B	YDDY	BZZB	JXXJ	GWWG	MQQM	VKKV	fair	ehrlich	retten	schön	treu	spielen	faul	eitel	rächen	schlecht	tot	strafen	1	acq_USpleas_CSpleas2_RW	acq4567_RW	6	17	400	0	300	300	525	50	0	1	1	blank2r.bmp	0	1	+	0	1	blank2r.bmp	492	1	BZZB	492	1	blank2r.bmp	572	2	treu	866	1	!	1239	1	!	-1	0	0	0	0	0	0	0	0	0	0	0	0	0	0	0	0	0	0	0	0	0	0	0	0	0	0	0	0	0	0
081219	10:06:12	10:17:02	649014	5.0.10.0	5_exp_RW	93	Rpleas_acq	CS_B	YDDY	BZZB	JXXJ	GWWG	MQQM	VKKV	fair	ehrlich	retten	schön	treu	spielen	faul	eitel	rächen	schlecht	tot	strafen	1	acq_USunple_CSunple1_RW	acq4567_RW	6	18	400	1	300	300	352	50	0	0	1	blank2r.bmp	0	1	+	0	1	blank2r.bmp	492	1	JXXJ	492	1	blank2r.bmp	572	2	eitel	866	1	!	1239	1	!	1252	0	0	0	0	0	0	0	0	0	0	0	0	0	0	0	0	0	0	0	0	0	0	0	0	0	0	0	0	0	0
081219	10:06:12	10:17:04	651266	5.0.10.0	5_exp_RW	93	Rpleas_acq	CS_B	YDDY	BZZB	JXXJ	GWWG	MQQM	VKKV	fair	ehrlich	retten	schön	treu	spielen	faul	eitel	rächen	schlecht	tot	strafen	1	acq_USunple_CSunple2_RW	acq4567_RW	6	19	400	0	300	300	479	46	0	1	1	blank2r.bmp	0	1	+	0	1	blank2r.bmp	492	1	GWWG	492	1	blank2r.bmp	572	2	tot	866	1	!	1239	1	!	-1	0	0	0	0	0	0	0	0	0	0	0	0	0	0	0	0	0	0	0	0	0	0	0	0	0	0	0	0	0	0
081219	10:06:12	10:17:06	653345	5.0.10.0	5_exp_RW	93	Rpleas_acq	CS_B	YDDY	BZZB	JXXJ	GWWG	MQQM	VKKV	fair	ehrlich	retten	schön	treu	spielen	faul	eitel	rächen	schlecht	tot	strafen	1	acq_USpleas_CSpleas2_RW	acq4567_RW	6	20	400	0	300	300	303	50	0	1	1	blank2r.bmp	0	1	+	0	1	blank2r.bmp	492	1	BZZB	492	1	blank2r.bmp	572	2	treu	866	1	!	-1	1	!	-1	0	0	0	0	0	0	0	0	0	0	0	0	0	0	0	0	0	0	0	0	0	0	0	0	0	0	0	0	0	0
081219	10:06:12	10:17:08	655504	5.0.10.0	5_exp_RW	93	Rpleas_acq	CS_B	YDDY	BZZB	JXXJ	GWWG	MQQM	VKKV	fair	ehrlich	retten	schön	treu	spielen	faul	eitel	rächen	schlecht	tot	strafen	1	acq_USunple_CSunple1_RW	acq4567_RW	6	21	400	1	300	300	349	50	0	0	1	blank2r.bmp	0	1	+	0	1	blank2r.bmp	492	1	JXXJ	492	1	blank2r.bmp	572	3	rächen	866	1	!	1239	1	!	1252	0	0	0	0	0	0	0	0	0	0	0	0	0	0	0	0	0	0	0	0	0	0	0	0	0	0	0	0	0	0
