date	time	script.currenttime	script.elapsedtime	build	script.currentexpt	subject	expressions.LRpleas_acq	expressions.conditionCS_A	expressions.CSpleas_1	expressions.CSpleas_2	expressions.CSunple_1	expressions.CSunple_2	expressions.distractor_1	expressions.distractor_2	expressions.US_pleas1	expressions.US_pleas2	expressions.US_pleas3	expressions.US_pleas4	expressions.US_pleas5	expressions.US_pleas6	expressions.US_unple1	expressions.US_unple2	expressions.US_unple3	expressions.US_unple4	expressions.US_unple5	expressions.US_unple6	counter.positions_noRW	trialcode	blockcode	blocknum	trialnum	windowcenter	inwindow	pretrialpause	posttrialpause	latency	response	expressions.correctedscore	correct	stimulusnumber1	stimulusitem1	stimulusonset1	stimulusnumber2	stimulusitem2	stimulusonset2	stimulusnumber3	stimulusitem3	stimulusonset3	stimulusnumber4	stimulusitem4	stimulusonset4	stimulusnumber5	stimulusitem5	stimulusonset5	stimulusnumber6	stimulusitem6	stimulusonset6	stimulusnumber7	stimulusitem7	stimulusonset7	stimulusnumber8	stimulusitem8	stimulusonset8	stimulusnumber9	stimulusitem9	stimulusonset9	stimulusnumber10	stimulusitem10	stimulusonset10	stimulusnumber11	stimulusitem11	stimulusonset11	stimulusnumber12	stimulusitem12	stimulusonset12	stimulusnumber13	stimulusitem13	stimulusonset13	stimulusnumber14	stimulusitem14	stimulusonset14	stimulusnumber15	stimulusitem15	stimulusonset15	stimulusnumber16	stimulusitem16	stimulusonset16	stimulusnumber17	stimulusitem17	stimulusonset17	stimulusnumber18	stimulusitem18	stimulusonset18
070919	10:03:46	10:05:27	100118	5.0.10.0	5_exp_RW	27	Rpleas_acq	CS_A	ZHHZ	LWWL	DXXD	YFFY	CPPC	JQQJ	vertrauen	küssen	genießen	sonnig	träumen	gütig	versagen	krank	gemein	sterben	töten	gierig	1	acq_USpleas_CSpleas2_RW	acq1_RW	1	1	0	0	300	300	2258	50	0	1	1	blank2r.bmp	0	1	+	0	1	blank2r.bmp	492	1	LWWL	492	1	blank2r.bmp	572	3	gütig	866	0	0	0	0	0	0	0	0	0	0	0	0	0	0	0	0	0	0	0	0	0	0	0	0	0	0	0	0	0	0	0	0	0	0	0	0
070919	10:03:46	10:05:29	102424	5.0.10.0	5_exp_RW	27	Rpleas_acq	CS_A	ZHHZ	LWWL	DXXD	YFFY	CPPC	JQQJ	vertrauen	küssen	genießen	sonnig	träumen	gütig	versagen	krank	gemein	sterben	töten	gierig	1	acq_USpleas_CSpleas1_RW	acq1_RW	1	2	0	0	300	300	827	50	0	1	1	blank2r.bmp	0	1	+	0	1	blank2r.bmp	492	1	ZHHZ	492	1	blank2r.bmp	572	3	genießen	866	0	0	0	0	0	0	0	0	0	0	0	0	0	0	0	0	0	0	0	0	0	0	0	0	0	0	0	0	0	0	0	0	0	0	0	0
070919	10:03:46	10:05:31	104663	5.0.10.0	5_exp_RW	27	Rpleas_acq	CS_A	ZHHZ	LWWL	DXXD	YFFY	CPPC	JQQJ	vertrauen	küssen	genießen	sonnig	träumen	gütig	versagen	krank	gemein	sterben	töten	gierig	1	acq_USunple_CSunple1_RW	acq1_RW	1	3	0	0	300	300	753	46	0	1	1	blank2r.bmp	0	1	+	0	1	blank2r.bmp	492	1	DXXD	492	1	blank2r.bmp	572	2	krank	866	0	0	0	0	0	0	0	0	0	0	0	0	0	0	0	0	0	0	0	0	0	0	0	0	0	0	0	0	0	0	0	0	0	0	0	0
070919	10:03:46	10:05:33	106702	5.0.10.0	5_exp_RW	27	Rpleas_acq	CS_A	ZHHZ	LWWL	DXXD	YFFY	CPPC	JQQJ	vertrauen	küssen	genießen	sonnig	träumen	gütig	versagen	krank	gemein	sterben	töten	gierig	1	acq_USpleas_CSpleas1_RW	acq1_RW	1	4	0	0	300	300	552	50	0	1	1	blank2r.bmp	0	1	+	0	1	blank2r.bmp	492	1	ZHHZ	492	1	blank2r.bmp	572	2	küssen	866	0	0	0	0	0	0	0	0	0	0	0	0	0	0	0	0	0	0	0	0	0	0	0	0	0	0	0	0	0	0	0	0	0	0	0	0
070919	10:03:46	10:05:35	108835	5.0.10.0	5_exp_RW	27	Rpleas_acq	CS_A	ZHHZ	LWWL	DXXD	YFFY	CPPC	JQQJ	vertrauen	küssen	genießen	sonnig	träumen	gütig	versagen	krank	gemein	sterben	töten	gierig	1	acq_USunple_CSunple2_RW	acq1_RW	1	5	0	0	300	300	658	46	0	1	1	blank2r.bmp	0	1	+	0	1	blank2r.bmp	492	1	YFFY	492	1	blank2r.bmp	572	2	töten	866	0	0	0	0	0	0	0	0	0	0	0	0	0	0	0	0	0	0	0	0	0	0	0	0	0	0	0	0	0	0	0	0	0	0	0	0
070919	10:03:46	10:05:38	111100	5.0.10.0	5_exp_RW	27	Rpleas_acq	CS_A	ZHHZ	LWWL	DXXD	YFFY	CPPC	JQQJ	vertrauen	küssen	genießen	sonnig	träumen	gütig	versagen	krank	gemein	sterben	töten	gierig	1	acq_USunple_CSunple1_RW	acq1_RW	1	6	0	0	300	300	773	46	0	1	1	blank2r.bmp	0	1	+	0	1	blank2r.bmp	492	1	DXXD	492	1	blank2r.bmp	572	1	versagen	866	0	0	0	0	0	0	0	0	0	0	0	0	0	0	0	0	0	0	0	0	0	0	0	0	0	0	0	0	0	0	0	0	0	0	0	0
070919	10:03:46	10:05:40	113246	5.0.10.0	5_exp_RW	27	Rpleas_acq	CS_A	ZHHZ	LWWL	DXXD	YFFY	CPPC	JQQJ	vertrauen	küssen	genießen	sonnig	träumen	gütig	versagen	krank	gemein	sterben	töten	gierig	1	acq_USunple_CSunple2_RW	acq1_RW	1	7	0	0	300	300	678	46	0	1	1	blank2r.bmp	0	1	+	0	1	blank2r.bmp	492	1	YFFY	492	1	blank2r.bmp	572	3	gierig	866	0	0	0	0	0	0	0	0	0	0	0	0	0	0	0	0	0	0	0	0	0	0	0	0	0	0	0	0	0	0	0	0	0	0	0	0
070919	10:03:46	10:05:42	115419	5.0.10.0	5_exp_RW	27	Rpleas_acq	CS_A	ZHHZ	LWWL	DXXD	YFFY	CPPC	JQQJ	vertrauen	küssen	genießen	sonnig	träumen	gütig	versagen	krank	gemein	sterben	töten	gierig	1	acq_USpleas_CSpleas2_RW	acq1_RW	1	8	0	0	300	300	686	50	0	1	1	blank2r.bmp	0	1	+	0	1	blank2r.bmp	492	1	LWWL	492	1	blank2r.bmp	572	2	träumen	866	0	0	0	0	0	0	0	0	0	0	0	0	0	0	0	0	0	0	0	0	0	0	0	0	0	0	0	0	0	0	0	0	0	0	0	0
070919	10:03:46	10:05:44	117391	5.0.10.0	5_exp_RW	27	Rpleas_acq	CS_A	ZHHZ	LWWL	DXXD	YFFY	CPPC	JQQJ	vertrauen	küssen	genießen	sonnig	träumen	gütig	versagen	krank	gemein	sterben	töten	gierig	1	acq_USunple_CSunple1_RW	acq1_RW	1	9	0	0	300	300	491	46	0	1	1	blank2r.bmp	0	1	+	0	1	blank2r.bmp	492	1	DXXD	492	1	blank2r.bmp	572	3	gemein	866	0	0	0	0	0	0	0	0	0	0	0	0	0	0	0	0	0	0	0	0	0	0	0	0	0	0	0	0	0	0	0	0	0	0	0	0
070919	10:03:46	10:05:46	119497	5.0.10.0	5_exp_RW	27	Rpleas_acq	CS_A	ZHHZ	LWWL	DXXD	YFFY	CPPC	JQQJ	vertrauen	küssen	genießen	sonnig	träumen	gütig	versagen	krank	gemein	sterben	töten	gierig	1	acq_USunple_CSunple1_RW	acq1_RW	1	10	0	0	300	300	614	46	0	1	1	blank2r.bmp	0	1	+	0	1	blank2r.bmp	492	1	DXXD	492	1	blank2r.bmp	572	3	gemein	866	0	0	0	0	0	0	0	0	0	0	0	0	0	0	0	0	0	0	0	0	0	0	0	0	0	0	0	0	0	0	0	0	0	0	0	0
070919	10:03:46	10:05:48	121589	5.0.10.0	5_exp_RW	27	Rpleas_acq	CS_A	ZHHZ	LWWL	DXXD	YFFY	CPPC	JQQJ	vertrauen	küssen	genießen	sonnig	träumen	gütig	versagen	krank	gemein	sterben	töten	gierig	1	acq_USpleas_CSpleas2_RW	acq1_RW	1	11	0	0	300	300	617	50	0	1	1	blank2r.bmp	0	1	+	0	1	blank2r.bmp	492	1	LWWL	492	1	blank2r.bmp	572	1	sonnig	866	0	0	0	0	0	0	0	0	0	0	0	0	0	0	0	0	0	0	0	0	0	0	0	0	0	0	0	0	0	0	0	0	0	0	0	0
070919	10:03:46	10:05:50	123908	5.0.10.0	5_exp_RW	27	Rpleas_acq	CS_A	ZHHZ	LWWL	DXXD	YFFY	CPPC	JQQJ	vertrauen	küssen	genießen	sonnig	träumen	gütig	versagen	krank	gemein	sterben	töten	gierig	1	acq_USpleas_CSpleas1_RW	acq1_RW	1	12	0	0	300	300	849	50	0	1	1	blank2r.bmp	0	1	+	0	1	blank2r.bmp	492	1	ZHHZ	492	1	blank2r.bmp	572	1	vertrauen	866	0	0	0	0	0	0	0	0	0	0	0	0	0	0	0	0	0	0	0	0	0	0	0	0	0	0	0	0	0	0	0	0	0	0	0	0
070919	10:03:46	10:05:53	126174	5.0.10.0	5_exp_RW	27	Rpleas_acq	CS_A	ZHHZ	LWWL	DXXD	YFFY	CPPC	JQQJ	vertrauen	küssen	genießen	sonnig	träumen	gütig	versagen	krank	gemein	sterben	töten	gierig	1	acq_USunple_CSunple2_RW	acq1_RW	1	13	0	0	300	300	788	46	0	1	1	blank2r.bmp	0	1	+	0	1	blank2r.bmp	492	1	YFFY	492	1	blank2r.bmp	572	1	sterben	866	0	0	0	0	0	0	0	0	0	0	0	0	0	0	0	0	0	0	0	0	0	0	0	0	0	0	0	0	0	0	0	0	0	0	0	0
070919	10:03:46	10:05:55	128720	5.0.10.0	5_exp_RW	27	Rpleas_acq	CS_A	ZHHZ	LWWL	DXXD	YFFY	CPPC	JQQJ	vertrauen	küssen	genießen	sonnig	träumen	gütig	versagen	krank	gemein	sterben	töten	gierig	1	acq_USpleas_CSpleas1_RW	acq1_RW	1	14	0	0	300	300	1075	50	0	1	1	blank2r.bmp	0	1	+	0	1	blank2r.bmp	492	1	ZHHZ	492	1	blank2r.bmp	572	3	genießen	866	0	0	0	0	0	0	0	0	0	0	0	0	0	0	0	0	0	0	0	0	0	0	0	0	0	0	0	0	0	0	0	0	0	0	0	0
070919	10:03:46	10:05:57	130759	5.0.10.0	5_exp_RW	27	Rpleas_acq	CS_A	ZHHZ	LWWL	DXXD	YFFY	CPPC	JQQJ	vertrauen	küssen	genießen	sonnig	träumen	gütig	versagen	krank	gemein	sterben	töten	gierig	1	acq_USpleas_CSpleas2_RW	acq1_RW	1	15	0	0	300	300	545	50	0	1	1	blank2r.bmp	0	1	+	0	1	blank2r.bmp	492	1	LWWL	492	1	blank2r.bmp	572	1	sonnig	866	0	0	0	0	0	0	0	0	0	0	0	0	0	0	0	0	0	0	0	0	0	0	0	0	0	0	0	0	0	0	0	0	0	0	0	0
070919	10:03:46	10:05:59	132732	5.0.10.0	5_exp_RW	27	Rpleas_acq	CS_A	ZHHZ	LWWL	DXXD	YFFY	CPPC	JQQJ	vertrauen	küssen	genießen	sonnig	träumen	gütig	versagen	krank	gemein	sterben	töten	gierig	1	acq_USunple_CSunple2_RW	acq1_RW	1	16	0	0	300	300	498	46	0	1	1	blank2r.bmp	0	1	+	0	1	blank2r.bmp	492	1	YFFY	492	1	blank2r.bmp	572	1	sterben	866	0	0	0	0	0	0	0	0	0	0	0	0	0	0	0	0	0	0	0	0	0	0	0	0	0	0	0	0	0	0	0	0	0	0	0	0
070919	10:03:46	10:06:29	162799	5.0.10.0	5_exp_RW	27	Rpleas_acq	CS_A	ZHHZ	LWWL	DXXD	YFFY	CPPC	JQQJ	vertrauen	küssen	genießen	sonnig	träumen	gütig	versagen	krank	gemein	sterben	töten	gierig	1	acq_USpleas_CSpleas1_RW	acq2_RW	2	1	480	0	300	300	1443	50	0	1	1	blank2r.bmp	0	1	+	0	1	blank2r.bmp	492	1	ZHHZ	492	1	blank2r.bmp	572	1	vertrauen	866	1	!	1319	1	!	-1	0	0	0	0	0	0	0	0	0	0	0	0	0	0	0	0	0	0	0	0	0	0	0	0	0	0	0	0	0	0
070919	10:03:46	10:06:32	165318	5.0.10.0	5_exp_RW	27	Rpleas_acq	CS_A	ZHHZ	LWWL	DXXD	YFFY	CPPC	JQQJ	vertrauen	küssen	genießen	sonnig	träumen	gütig	versagen	krank	gemein	sterben	töten	gierig	1	acq_USpleas_CSpleas1_RW	acq2_RW	2	2	480	0	300	300	722	50	0	1	1	blank2r.bmp	0	1	+	0	1	blank2r.bmp	492	1	ZHHZ	492	1	blank2r.bmp	572	2	küssen	866	1	!	1319	1	!	-1	0	0	0	0	0	0	0	0	0	0	0	0	0	0	0	0	0	0	0	0	0	0	0	0	0	0	0	0	0	0
070919	10:03:46	10:06:34	167810	5.0.10.0	5_exp_RW	27	Rpleas_acq	CS_A	ZHHZ	LWWL	DXXD	YFFY	CPPC	JQQJ	vertrauen	küssen	genießen	sonnig	träumen	gütig	versagen	krank	gemein	sterben	töten	gierig	1	acq_USpleas_CSpleas2_RW	acq2_RW	2	3	480	0	300	300	714	50	0	1	1	blank2r.bmp	0	1	+	0	1	blank2r.bmp	492	1	LWWL	492	1	blank2r.bmp	572	2	träumen	866	1	!	1319	1	!	-1	0	0	0	0	0	0	0	0	0	0	0	0	0	0	0	0	0	0	0	0	0	0	0	0	0	0	0	0	0	0
070919	10:03:46	10:06:37	169983	5.0.10.0	5_exp_RW	27	Rpleas_acq	CS_A	ZHHZ	LWWL	DXXD	YFFY	CPPC	JQQJ	vertrauen	küssen	genießen	sonnig	träumen	gütig	versagen	krank	gemein	sterben	töten	gierig	1	acq_USunple_CSunple2_RW	acq2_RW	2	4	480	0	300	300	394	46	0	1	1	blank2r.bmp	0	1	+	0	1	blank2r.bmp	492	1	YFFY	492	1	blank2r.bmp	572	2	töten	866	1	!	-1	1	!	-1	0	0	0	0	0	0	0	0	0	0	0	0	0	0	0	0	0	0	0	0	0	0	0	0	0	0	0	0	0	0
070919	10:03:46	10:06:39	172489	5.0.10.0	5_exp_RW	27	Rpleas_acq	CS_A	ZHHZ	LWWL	DXXD	YFFY	CPPC	JQQJ	vertrauen	küssen	genießen	sonnig	träumen	gütig	versagen	krank	gemein	sterben	töten	gierig	1	acq_USunple_CSunple2_RW	acq2_RW	2	5	480	0	300	300	726	46	0	1	1	blank2r.bmp	0	1	+	0	1	blank2r.bmp	492	1	YFFY	492	1	blank2r.bmp	572	3	gierig	866	1	!	1319	1	!	-1	0	0	0	0	0	0	0	0	0	0	0	0	0	0	0	0	0	0	0	0	0	0	0	0	0	0	0	0	0	0
070919	10:03:46	10:06:41	174741	5.0.10.0	5_exp_RW	27	Rpleas_acq	CS_A	ZHHZ	LWWL	DXXD	YFFY	CPPC	JQQJ	vertrauen	küssen	genießen	sonnig	träumen	gütig	versagen	krank	gemein	sterben	töten	gierig	1	acq_USpleas_CSpleas1_RW	acq2_RW	2	6	480	1	300	300	443	50	0	1	1	blank2r.bmp	0	1	+	0	1	blank2r.bmp	492	1	ZHHZ	492	1	blank2r.bmp	572	2	küssen	866	1	!	1319	1	!	1346	0	0	0	0	0	0	0	0	0	0	0	0	0	0	0	0	0	0	0	0	0	0	0	0	0	0	0	0	0	0
070919	10:03:46	10:06:43	176967	5.0.10.0	5_exp_RW	27	Rpleas_acq	CS_A	ZHHZ	LWWL	DXXD	YFFY	CPPC	JQQJ	vertrauen	küssen	genießen	sonnig	träumen	gütig	versagen	krank	gemein	sterben	töten	gierig	1	acq_USunple_CSunple1_RW	acq2_RW	2	7	480	1	300	300	430	46	0	1	1	blank2r.bmp	0	1	+	0	1	blank2r.bmp	492	1	DXXD	492	1	blank2r.bmp	572	1	versagen	866	1	!	1319	1	!	1332	0	0	0	0	0	0	0	0	0	0	0	0	0	0	0	0	0	0	0	0	0	0	0	0	0	0	0	0	0	0
070919	10:03:46	10:06:46	179366	5.0.10.0	5_exp_RW	27	Rpleas_acq	CS_A	ZHHZ	LWWL	DXXD	YFFY	CPPC	JQQJ	vertrauen	küssen	genießen	sonnig	träumen	gütig	versagen	krank	gemein	sterben	töten	gierig	1	acq_USpleas_CSpleas1_RW	acq2_RW	2	8	480	0	300	300	631	50	0	1	1	blank2r.bmp	0	1	+	0	1	blank2r.bmp	492	1	ZHHZ	492	1	blank2r.bmp	572	3	genießen	866	1	!	1319	1	!	-1	0	0	0	0	0	0	0	0	0	0	0	0	0	0	0	0	0	0	0	0	0	0	0	0	0	0	0	0	0	0
070919	10:03:46	10:06:48	181591	5.0.10.0	5_exp_RW	27	Rpleas_acq	CS_A	ZHHZ	LWWL	DXXD	YFFY	CPPC	JQQJ	vertrauen	küssen	genießen	sonnig	träumen	gütig	versagen	krank	gemein	sterben	töten	gierig	1	acq_USpleas_CSpleas2_RW	acq2_RW	2	9	480	0	300	300	202	46	0	0	1	blank2r.bmp	0	1	+	0	1	blank2r.bmp	492	1	LWWL	492	1	blank2r.bmp	572	3	gütig	866	1	FEHLER	1412	1	!	-1	1	!	-1	0	0	0	0	0	0	0	0	0	0	0	0	0	0	0	0	0	0	0	0	0	0	0	0	0	0	0
070919	10:03:46	10:06:50	183471	5.0.10.0	5_exp_RW	27	Rpleas_acq	CS_A	ZHHZ	LWWL	DXXD	YFFY	CPPC	JQQJ	vertrauen	küssen	genießen	sonnig	träumen	gütig	versagen	krank	gemein	sterben	töten	gierig	1	acq_USpleas_CSpleas1_RW	acq2_RW	2	10	480	0	300	300	322	50	0	1	1	blank2r.bmp	0	1	+	0	1	blank2r.bmp	492	1	ZHHZ	492	1	blank2r.bmp	572	1	vertrauen	866	1	!	-1	1	!	-1	0	0	0	0	0	0	0	0	0	0	0	0	0	0	0	0	0	0	0	0	0	0	0	0	0	0	0	0	0	0
070919	10:03:46	10:06:52	185736	5.0.10.0	5_exp_RW	27	Rpleas_acq	CS_A	ZHHZ	LWWL	DXXD	YFFY	CPPC	JQQJ	vertrauen	küssen	genießen	sonnig	träumen	gütig	versagen	krank	gemein	sterben	töten	gierig	1	acq_USpleas_CSpleas2_RW	acq2_RW	2	11	480	1	300	300	462	50	0	1	1	blank2r.bmp	0	1	+	0	1	blank2r.bmp	492	1	LWWL	492	1	blank2r.bmp	572	2	träumen	866	1	!	1319	1	!	1359	0	0	0	0	0	0	0	0	0	0	0	0	0	0	0	0	0	0	0	0	0	0	0	0	0	0	0	0	0	0
070919	10:03:46	10:06:54	187842	5.0.10.0	5_exp_RW	27	Rpleas_acq	CS_A	ZHHZ	LWWL	DXXD	YFFY	CPPC	JQQJ	vertrauen	küssen	genießen	sonnig	träumen	gütig	versagen	krank	gemein	sterben	töten	gierig	1	acq_USunple_CSunple1_RW	acq2_RW	2	12	480	0	300	300	334	46	0	1	1	blank2r.bmp	0	1	+	0	1	blank2r.bmp	492	1	DXXD	492	1	blank2r.bmp	572	2	krank	866	1	!	-1	1	!	-1	0	0	0	0	0	0	0	0	0	0	0	0	0	0	0	0	0	0	0	0	0	0	0	0	0	0	0	0	0	0
070919	10:03:46	10:06:57	190255	5.0.10.0	5_exp_RW	27	Rpleas_acq	CS_A	ZHHZ	LWWL	DXXD	YFFY	CPPC	JQQJ	vertrauen	küssen	genießen	sonnig	träumen	gütig	versagen	krank	gemein	sterben	töten	gierig	1	acq_USunple_CSunple1_RW	acq2_RW	2	13	480	0	300	300	629	46	0	1	1	blank2r.bmp	0	1	+	0	1	blank2r.bmp	492	1	DXXD	492	1	blank2r.bmp	572	1	versagen	866	1	!	1319	1	!	-1	0	0	0	0	0	0	0	0	0	0	0	0	0	0	0	0	0	0	0	0	0	0	0	0	0	0	0	0	0	0
070919	10:03:46	10:06:59	192307	5.0.10.0	5_exp_RW	27	Rpleas_acq	CS_A	ZHHZ	LWWL	DXXD	YFFY	CPPC	JQQJ	vertrauen	küssen	genießen	sonnig	träumen	gütig	versagen	krank	gemein	sterben	töten	gierig	1	acq_USunple_CSunple2_RW	acq2_RW	2	14	480	0	300	300	264	46	0	1	1	blank2r.bmp	0	1	+	0	1	blank2r.bmp	492	1	YFFY	492	1	blank2r.bmp	572	3	gierig	866	1	!	-1	1	!	-1	0	0	0	0	0	0	0	0	0	0	0	0	0	0	0	0	0	0	0	0	0	0	0	0	0	0	0	0	0	0
070919	10:03:46	10:07:01	194559	5.0.10.0	5_exp_RW	27	Rpleas_acq	CS_A	ZHHZ	LWWL	DXXD	YFFY	CPPC	JQQJ	vertrauen	küssen	genießen	sonnig	träumen	gütig	versagen	krank	gemein	sterben	töten	gierig	1	acq_USunple_CSunple2_RW	acq2_RW	2	15	480	1	300	300	451	46	0	1	1	blank2r.bmp	0	1	+	0	1	blank2r.bmp	492	1	YFFY	492	1	blank2r.bmp	572	2	töten	866	1	!	1319	1	!	1346	0	0	0	0	0	0	0	0	0	0	0	0	0	0	0	0	0	0	0	0	0	0	0	0	0	0	0	0	0	0
070919	10:03:46	10:07:03	196905	5.0.10.0	5_exp_RW	27	Rpleas_acq	CS_A	ZHHZ	LWWL	DXXD	YFFY	CPPC	JQQJ	vertrauen	küssen	genießen	sonnig	träumen	gütig	versagen	krank	gemein	sterben	töten	gierig	1	acq_USpleas_CSpleas2_RW	acq2_RW	2	16	480	0	300	300	355	46	0	0	1	blank2r.bmp	0	1	+	0	1	blank2r.bmp	492	1	LWWL	492	1	blank2r.bmp	572	3	gütig	866	1	FEHLER	1559	1	!	-1	1	!	-1	0	0	0	0	0	0	0	0	0	0	0	0	0	0	0	0	0	0	0	0	0	0	0	0	0	0	0
070919	10:03:46	10:07:06	199064	5.0.10.0	5_exp_RW	27	Rpleas_acq	CS_A	ZHHZ	LWWL	DXXD	YFFY	CPPC	JQQJ	vertrauen	küssen	genießen	sonnig	träumen	gütig	versagen	krank	gemein	sterben	töten	gierig	1	acq_USunple_CSunple2_RW	acq2_RW	2	17	480	0	300	300	372	50	0	0	1	blank2r.bmp	0	1	+	0	1	blank2r.bmp	492	1	YFFY	492	1	blank2r.bmp	572	1	sterben	866	1	FEHLER	1586	1	!	-1	1	!	-1	0	0	0	0	0	0	0	0	0	0	0	0	0	0	0	0	0	0	0	0	0	0	0	0	0	0	0
070919	10:03:46	10:07:08	201237	5.0.10.0	5_exp_RW	27	Rpleas_acq	CS_A	ZHHZ	LWWL	DXXD	YFFY	CPPC	JQQJ	vertrauen	küssen	genießen	sonnig	träumen	gütig	versagen	krank	gemein	sterben	töten	gierig	1	acq_USpleas_CSpleas2_RW	acq2_RW	2	18	480	0	300	300	396	46	0	0	1	blank2r.bmp	0	1	+	0	1	blank2r.bmp	492	1	LWWL	492	1	blank2r.bmp	572	1	sonnig	866	1	FEHLER	1599	1	!	-1	1	!	-1	0	0	0	0	0	0	0	0	0	0	0	0	0	0	0	0	0	0	0	0	0	0	0	0	0	0	0
070919	10:03:46	10:07:10	203356	5.0.10.0	5_exp_RW	27	Rpleas_acq	CS_A	ZHHZ	LWWL	DXXD	YFFY	CPPC	JQQJ	vertrauen	küssen	genießen	sonnig	träumen	gütig	versagen	krank	gemein	sterben	töten	gierig	1	acq_USunple_CSunple2_RW	acq2_RW	2	19	480	0	300	300	559	46	0	1	1	blank2r.bmp	0	1	+	0	1	blank2r.bmp	492	1	YFFY	492	1	blank2r.bmp	572	2	töten	866	1	!	1319	1	!	-1	0	0	0	0	0	0	0	0	0	0	0	0	0	0	0	0	0	0	0	0	0	0	0	0	0	0	0	0	0	0
070919	10:03:46	10:07:12	205702	5.0.10.0	5_exp_RW	27	Rpleas_acq	CS_A	ZHHZ	LWWL	DXXD	YFFY	CPPC	JQQJ	vertrauen	küssen	genießen	sonnig	träumen	gütig	versagen	krank	gemein	sterben	töten	gierig	1	acq_USpleas_CSpleas1_RW	acq2_RW	2	20	480	1	300	300	535	50	0	1	1	blank2r.bmp	0	1	+	0	1	blank2r.bmp	492	1	ZHHZ	492	1	blank2r.bmp	572	1	vertrauen	866	1	!	1319	1	!	1439	0	0	0	0	0	0	0	0	0	0	0	0	0	0	0	0	0	0	0	0	0	0	0	0	0	0	0	0	0	0
070919	10:03:46	10:07:14	207834	5.0.10.0	5_exp_RW	27	Rpleas_acq	CS_A	ZHHZ	LWWL	DXXD	YFFY	CPPC	JQQJ	vertrauen	küssen	genießen	sonnig	träumen	gütig	versagen	krank	gemein	sterben	töten	gierig	1	acq_USpleas_CSpleas2_RW	acq2_RW	2	21	480	0	300	300	369	50	0	1	1	blank2r.bmp	0	1	+	0	1	blank2r.bmp	492	1	LWWL	492	1	blank2r.bmp	572	3	gütig	866	1	!	-1	1	!	-1	0	0	0	0	0	0	0	0	0	0	0	0	0	0	0	0	0	0	0	0	0	0	0	0	0	0	0	0	0	0
070919	10:03:46	10:07:17	210193	5.0.10.0	5_exp_RW	27	Rpleas_acq	CS_A	ZHHZ	LWWL	DXXD	YFFY	CPPC	JQQJ	vertrauen	küssen	genießen	sonnig	träumen	gütig	versagen	krank	gemein	sterben	töten	gierig	1	acq_USunple_CSunple1_RW	acq2_RW	2	22	480	0	300	300	579	46	0	1	1	blank2r.bmp	0	1	+	0	1	blank2r.bmp	492	1	DXXD	492	1	blank2r.bmp	572	2	krank	866	1	!	1319	1	!	-1	0	0	0	0	0	0	0	0	0	0	0	0	0	0	0	0	0	0	0	0	0	0	0	0	0	0	0	0	0	0
070919	10:03:46	10:07:19	212592	5.0.10.0	5_exp_RW	27	Rpleas_acq	CS_A	ZHHZ	LWWL	DXXD	YFFY	CPPC	JQQJ	vertrauen	küssen	genießen	sonnig	träumen	gütig	versagen	krank	gemein	sterben	töten	gierig	1	acq_USunple_CSunple1_RW	acq2_RW	2	23	480	0	300	300	623	46	0	1	1	blank2r.bmp	0	1	+	0	1	blank2r.bmp	492	1	DXXD	492	1	blank2r.bmp	572	3	gemein	866	1	!	1319	1	!	-1	0	0	0	0	0	0	0	0	0	0	0	0	0	0	0	0	0	0	0	0	0	0	0	0	0	0	0	0	0	0
070919	10:03:46	10:07:21	214605	5.0.10.0	5_exp_RW	27	Rpleas_acq	CS_A	ZHHZ	LWWL	DXXD	YFFY	CPPC	JQQJ	vertrauen	küssen	genießen	sonnig	träumen	gütig	versagen	krank	gemein	sterben	töten	gierig	1	acq_USunple_CSunple1_RW	acq2_RW	2	24	480	0	300	300	237	46	0	1	1	blank2r.bmp	0	1	+	0	1	blank2r.bmp	492	1	DXXD	492	1	blank2r.bmp	572	3	gemein	866	1	!	-1	1	!	-1	0	0	0	0	0	0	0	0	0	0	0	0	0	0	0	0	0	0	0	0	0	0	0	0	0	0	0	0	0	0
070919	10:03:46	10:07:41	234570	5.0.10.0	5_exp_RW	27	Rpleas_acq	CS_A	ZHHZ	LWWL	DXXD	YFFY	CPPC	JQQJ	vertrauen	küssen	genießen	sonnig	träumen	gütig	versagen	krank	gemein	sterben	töten	gierig	1	acq_USunple_CSunple1_RW	acq3_RW	3	1	453	1	300	300	436	46	0	1	1	blank2r.bmp	0	1	+	0	1	blank2r.bmp	492	1	DXXD	492	1	blank2r.bmp	572	1	versagen	866	1	!	1292	1	!	1332	0	0	0	0	0	0	0	0	0	0	0	0	0	0	0	0	0	0	0	0	0	0	0	0	0	0	0	0	0	0
070919	10:03:46	10:07:43	236649	5.0.10.0	5_exp_RW	27	Rpleas_acq	CS_A	ZHHZ	LWWL	DXXD	YFFY	CPPC	JQQJ	vertrauen	küssen	genießen	sonnig	träumen	gütig	versagen	krank	gemein	sterben	töten	gierig	1	acq_USunple_CSunple2_RW	acq3_RW	3	2	453	0	300	300	316	46	0	1	1	blank2r.bmp	0	1	+	0	1	blank2r.bmp	492	1	YFFY	492	1	blank2r.bmp	572	1	sterben	866	1	!	-1	1	!	-1	0	0	0	0	0	0	0	0	0	0	0	0	0	0	0	0	0	0	0	0	0	0	0	0	0	0	0	0	0	0
070919	10:03:46	10:07:46	239075	5.0.10.0	5_exp_RW	27	Rpleas_acq	CS_A	ZHHZ	LWWL	DXXD	YFFY	CPPC	JQQJ	vertrauen	küssen	genießen	sonnig	träumen	gütig	versagen	krank	gemein	sterben	töten	gierig	1	acq_USunple_CSunple2_RW	acq3_RW	3	3	453	0	300	300	626	46	0	1	1	blank2r.bmp	0	1	+	0	1	blank2r.bmp	492	1	YFFY	492	1	blank2r.bmp	572	3	gierig	866	1	!	1292	1	!	-1	0	0	0	0	0	0	0	0	0	0	0	0	0	0	0	0	0	0	0	0	0	0	0	0	0	0	0	0	0	0
070919	10:03:46	10:07:48	241207	5.0.10.0	5_exp_RW	27	Rpleas_acq	CS_A	ZHHZ	LWWL	DXXD	YFFY	CPPC	JQQJ	vertrauen	küssen	genießen	sonnig	träumen	gütig	versagen	krank	gemein	sterben	töten	gierig	1	acq_USpleas_CSpleas1_RW	acq3_RW	3	4	453	0	300	300	352	50	0	1	1	blank2r.bmp	0	1	+	0	1	blank2r.bmp	492	1	ZHHZ	492	1	blank2r.bmp	572	2	küssen	866	1	!	-1	1	!	-1	0	0	0	0	0	0	0	0	0	0	0	0	0	0	0	0	0	0	0	0	0	0	0	0	0	0	0	0	0	0
070919	10:03:46	10:07:50	243633	5.0.10.0	5_exp_RW	27	Rpleas_acq	CS_A	ZHHZ	LWWL	DXXD	YFFY	CPPC	JQQJ	vertrauen	küssen	genießen	sonnig	träumen	gütig	versagen	krank	gemein	sterben	töten	gierig	1	acq_USpleas_CSpleas2_RW	acq3_RW	3	5	453	1	300	300	399	46	0	0	1	blank2r.bmp	0	1	+	0	1	blank2r.bmp	492	1	LWWL	492	1	blank2r.bmp	572	2	träumen	866	1	FEHLER	1625	1	!	1292	1	!	1306	0	0	0	0	0	0	0	0	0	0	0	0	0	0	0	0	0	0	0	0	0	0	0	0	0	0	0
070919	10:03:46	10:07:52	245619	5.0.10.0	5_exp_RW	27	Rpleas_acq	CS_A	ZHHZ	LWWL	DXXD	YFFY	CPPC	JQQJ	vertrauen	küssen	genießen	sonnig	träumen	gütig	versagen	krank	gemein	sterben	töten	gierig	1	acq_USpleas_CSpleas2_RW	acq3_RW	3	6	453	1	300	300	399	50	0	1	1	blank2r.bmp	0	1	+	0	1	blank2r.bmp	492	1	LWWL	492	1	blank2r.bmp	572	1	sonnig	866	1	!	1292	1	!	1306	0	0	0	0	0	0	0	0	0	0	0	0	0	0	0	0	0	0	0	0	0	0	0	0	0	0	0	0	0	0
070919	10:03:46	10:07:55	247978	5.0.10.0	5_exp_RW	27	Rpleas_acq	CS_A	ZHHZ	LWWL	DXXD	YFFY	CPPC	JQQJ	vertrauen	küssen	genießen	sonnig	träumen	gütig	versagen	krank	gemein	sterben	töten	gierig	1	acq_USunple_CSunple1_RW	acq3_RW	3	7	453	0	300	300	595	46	0	1	1	blank2r.bmp	0	1	+	0	1	blank2r.bmp	492	1	DXXD	492	1	blank2r.bmp	572	2	krank	866	1	!	1292	1	!	-1	0	0	0	0	0	0	0	0	0	0	0	0	0	0	0	0	0	0	0	0	0	0	0	0	0	0	0	0	0	0
070919	10:03:46	10:07:57	250363	5.0.10.0	5_exp_RW	27	Rpleas_acq	CS_A	ZHHZ	LWWL	DXXD	YFFY	CPPC	JQQJ	vertrauen	küssen	genießen	sonnig	träumen	gütig	versagen	krank	gemein	sterben	töten	gierig	1	acq_USunple_CSunple2_RW	acq3_RW	3	8	453	0	300	300	610	46	0	1	1	blank2r.bmp	0	1	+	0	1	blank2r.bmp	492	1	YFFY	492	1	blank2r.bmp	572	1	sterben	866	1	!	1292	1	!	-1	0	0	0	0	0	0	0	0	0	0	0	0	0	0	0	0	0	0	0	0	0	0	0	0	0	0	0	0	0	0
070919	10:03:46	10:07:59	252576	5.0.10.0	5_exp_RW	27	Rpleas_acq	CS_A	ZHHZ	LWWL	DXXD	YFFY	CPPC	JQQJ	vertrauen	küssen	genießen	sonnig	träumen	gütig	versagen	krank	gemein	sterben	töten	gierig	1	acq_USunple_CSunple1_RW	acq3_RW	3	9	453	1	300	300	409	46	0	1	1	blank2r.bmp	0	1	+	0	1	blank2r.bmp	492	1	DXXD	492	1	blank2r.bmp	572	2	krank	866	1	!	1292	1	!	1306	0	0	0	0	0	0	0	0	0	0	0	0	0	0	0	0	0	0	0	0	0	0	0	0	0	0	0	0	0	0
070919	10:03:46	10:08:01	254841	5.0.10.0	5_exp_RW	27	Rpleas_acq	CS_A	ZHHZ	LWWL	DXXD	YFFY	CPPC	JQQJ	vertrauen	küssen	genießen	sonnig	träumen	gütig	versagen	krank	gemein	sterben	töten	gierig	1	acq_USpleas_CSpleas1_RW	acq3_RW	3	10	453	0	300	300	285	46	0	0	1	blank2r.bmp	0	1	+	0	1	blank2r.bmp	492	1	ZHHZ	492	1	blank2r.bmp	572	3	genießen	866	1	FEHLER	1492	1	!	-1	1	!	-1	0	0	0	0	0	0	0	0	0	0	0	0	0	0	0	0	0	0	0	0	0	0	0	0	0	0	0
070919	10:03:46	10:08:03	256947	5.0.10.0	5_exp_RW	27	Rpleas_acq	CS_A	ZHHZ	LWWL	DXXD	YFFY	CPPC	JQQJ	vertrauen	küssen	genießen	sonnig	träumen	gütig	versagen	krank	gemein	sterben	töten	gierig	1	acq_USunple_CSunple2_RW	acq3_RW	3	11	453	1	300	300	509	46	0	1	1	blank2r.bmp	0	1	+	0	1	blank2r.bmp	492	1	YFFY	492	1	blank2r.bmp	572	3	gierig	866	1	!	1292	1	!	1412	0	0	0	0	0	0	0	0	0	0	0	0	0	0	0	0	0	0	0	0	0	0	0	0	0	0	0	0	0	0
070919	10:03:46	10:08:06	259266	5.0.10.0	5_exp_RW	27	Rpleas_acq	CS_A	ZHHZ	LWWL	DXXD	YFFY	CPPC	JQQJ	vertrauen	küssen	genießen	sonnig	träumen	gütig	versagen	krank	gemein	sterben	töten	gierig	1	acq_USpleas_CSpleas2_RW	acq3_RW	3	12	453	0	300	300	326	46	0	0	1	blank2r.bmp	0	1	+	0	1	blank2r.bmp	492	1	LWWL	492	1	blank2r.bmp	572	3	gütig	866	1	FEHLER	1532	1	!	-1	1	!	-1	0	0	0	0	0	0	0	0	0	0	0	0	0	0	0	0	0	0	0	0	0	0	0	0	0	0	0
070919	10:03:46	10:08:08	261425	5.0.10.0	5_exp_RW	27	Rpleas_acq	CS_A	ZHHZ	LWWL	DXXD	YFFY	CPPC	JQQJ	vertrauen	küssen	genießen	sonnig	träumen	gütig	versagen	krank	gemein	sterben	töten	gierig	1	acq_USunple_CSunple1_RW	acq3_RW	3	13	453	0	300	300	381	50	0	0	1	blank2r.bmp	0	1	+	0	1	blank2r.bmp	492	1	DXXD	492	1	blank2r.bmp	572	3	gemein	866	1	FEHLER	1585	1	!	-1	1	!	-1	0	0	0	0	0	0	0	0	0	0	0	0	0	0	0	0	0	0	0	0	0	0	0	0	0	0	0
070919	10:03:46	10:08:14	267796	5.0.10.0	5_exp_RW	27	Rpleas_acq	CS_A	ZHHZ	LWWL	DXXD	YFFY	CPPC	JQQJ	vertrauen	küssen	genießen	sonnig	träumen	gütig	versagen	krank	gemein	sterben	töten	gierig	1	acq_USpleas_CSpleas1_RW	acq3_RW	3	14	453	0	300	300	4813	50	0	1	1	blank2r.bmp	0	1	+	0	1	blank2r.bmp	492	1	ZHHZ	492	1	blank2r.bmp	572	3	genießen	866	1	!	1292	1	!	-1	0	0	0	0	0	0	0	0	0	0	0	0	0	0	0	0	0	0	0	0	0	0	0	0	0	0	0	0	0	0
070919	10:03:46	10:08:17	270049	5.0.10.0	5_exp_RW	27	Rpleas_acq	CS_A	ZHHZ	LWWL	DXXD	YFFY	CPPC	JQQJ	vertrauen	küssen	genießen	sonnig	träumen	gütig	versagen	krank	gemein	sterben	töten	gierig	1	acq_USunple_CSunple2_RW	acq3_RW	3	15	453	1	300	300	446	46	0	1	1	blank2r.bmp	0	1	+	0	1	blank2r.bmp	492	1	YFFY	492	1	blank2r.bmp	572	2	töten	866	1	!	1292	1	!	1346	0	0	0	0	0	0	0	0	0	0	0	0	0	0	0	0	0	0	0	0	0	0	0	0	0	0	0	0	0	0
070919	10:03:46	10:08:19	272634	5.0.10.0	5_exp_RW	27	Rpleas_acq	CS_A	ZHHZ	LWWL	DXXD	YFFY	CPPC	JQQJ	vertrauen	küssen	genießen	sonnig	träumen	gütig	versagen	krank	gemein	sterben	töten	gierig	1	acq_USpleas_CSpleas1_RW	acq3_RW	3	16	453	0	300	300	586	46	0	0	1	blank2r.bmp	0	1	+	0	1	blank2r.bmp	492	1	ZHHZ	492	1	blank2r.bmp	572	1	vertrauen	866	1	FEHLER	1799	1	!	1292	1	!	-1	0	0	0	0	0	0	0	0	0	0	0	0	0	0	0	0	0	0	0	0	0	0	0	0	0	0	0
070919	10:03:46	10:08:21	274647	5.0.10.0	5_exp_RW	27	Rpleas_acq	CS_A	ZHHZ	LWWL	DXXD	YFFY	CPPC	JQQJ	vertrauen	küssen	genießen	sonnig	träumen	gütig	versagen	krank	gemein	sterben	töten	gierig	1	acq_USunple_CSunple2_RW	acq3_RW	3	17	453	1	300	300	429	46	0	1	1	blank2r.bmp	0	1	+	0	1	blank2r.bmp	492	1	YFFY	492	1	blank2r.bmp	572	3	gierig	866	1	!	1292	1	!	1332	0	0	0	0	0	0	0	0	0	0	0	0	0	0	0	0	0	0	0	0	0	0	0	0	0	0	0	0	0	0
070919	10:03:46	10:08:23	276779	5.0.10.0	5_exp_RW	27	Rpleas_acq	CS_A	ZHHZ	LWWL	DXXD	YFFY	CPPC	JQQJ	vertrauen	küssen	genießen	sonnig	träumen	gütig	versagen	krank	gemein	sterben	töten	gierig	1	acq_USpleas_CSpleas2_RW	acq3_RW	3	18	453	0	300	300	371	50	0	1	1	blank2r.bmp	0	1	+	0	1	blank2r.bmp	492	1	LWWL	492	1	blank2r.bmp	572	1	sonnig	866	1	!	-1	1	!	-1	0	0	0	0	0	0	0	0	0	0	0	0	0	0	0	0	0	0	0	0	0	0	0	0	0	0	0	0	0	0
070919	10:03:46	10:08:25	278925	5.0.10.0	5_exp_RW	27	Rpleas_acq	CS_A	ZHHZ	LWWL	DXXD	YFFY	CPPC	JQQJ	vertrauen	küssen	genießen	sonnig	träumen	gütig	versagen	krank	gemein	sterben	töten	gierig	1	acq_USpleas_CSpleas1_RW	acq3_RW	3	19	453	0	300	300	360	50	0	1	1	blank2r.bmp	0	1	+	0	1	blank2r.bmp	492	1	ZHHZ	492	1	blank2r.bmp	572	2	küssen	866	1	!	-1	1	!	-1	0	0	0	0	0	0	0	0	0	0	0	0	0	0	0	0	0	0	0	0	0	0	0	0	0	0	0	0	0	0
070919	10:03:46	10:08:28	281231	5.0.10.0	5_exp_RW	27	Rpleas_acq	CS_A	ZHHZ	LWWL	DXXD	YFFY	CPPC	JQQJ	vertrauen	küssen	genießen	sonnig	träumen	gütig	versagen	krank	gemein	sterben	töten	gierig	1	acq_USunple_CSunple1_RW	acq3_RW	3	20	453	1	300	300	479	46	0	1	1	blank2r.bmp	0	1	+	0	1	blank2r.bmp	492	1	DXXD	492	1	blank2r.bmp	572	1	versagen	866	1	!	1292	1	!	1386	0	0	0	0	0	0	0	0	0	0	0	0	0	0	0	0	0	0	0	0	0	0	0	0	0	0	0	0	0	0
070919	10:03:46	10:08:30	283590	5.0.10.0	5_exp_RW	27	Rpleas_acq	CS_A	ZHHZ	LWWL	DXXD	YFFY	CPPC	JQQJ	vertrauen	küssen	genießen	sonnig	träumen	gütig	versagen	krank	gemein	sterben	töten	gierig	1	acq_USpleas_CSpleas1_RW	acq3_RW	3	21	453	0	300	300	584	50	0	1	1	blank2r.bmp	0	1	+	0	1	blank2r.bmp	492	1	ZHHZ	492	1	blank2r.bmp	572	3	genießen	866	1	!	1292	1	!	-1	0	0	0	0	0	0	0	0	0	0	0	0	0	0	0	0	0	0	0	0	0	0	0	0	0	0	0	0	0	0
070919	10:03:46	10:08:32	285962	5.0.10.0	5_exp_RW	27	Rpleas_acq	CS_A	ZHHZ	LWWL	DXXD	YFFY	CPPC	JQQJ	vertrauen	küssen	genießen	sonnig	träumen	gütig	versagen	krank	gemein	sterben	töten	gierig	1	acq_USunple_CSunple1_RW	acq3_RW	3	22	453	0	300	300	580	46	0	1	1	blank2r.bmp	0	1	+	0	1	blank2r.bmp	492	1	DXXD	492	1	blank2r.bmp	572	3	gemein	866	1	!	1292	1	!	-1	0	0	0	0	0	0	0	0	0	0	0	0	0	0	0	0	0	0	0	0	0	0	0	0	0	0	0	0	0	0
070919	10:03:46	10:08:35	288188	5.0.10.0	5_exp_RW	27	Rpleas_acq	CS_A	ZHHZ	LWWL	DXXD	YFFY	CPPC	JQQJ	vertrauen	küssen	genießen	sonnig	träumen	gütig	versagen	krank	gemein	sterben	töten	gierig	1	acq_USpleas_CSpleas2_RW	acq3_RW	3	23	453	1	300	300	417	50	0	1	1	blank2r.bmp	0	1	+	0	1	blank2r.bmp	492	1	LWWL	492	1	blank2r.bmp	572	2	träumen	866	1	!	1292	1	!	1319	0	0	0	0	0	0	0	0	0	0	0	0	0	0	0	0	0	0	0	0	0	0	0	0	0	0	0	0	0	0
070919	10:03:46	10:08:37	290334	5.0.10.0	5_exp_RW	27	Rpleas_acq	CS_A	ZHHZ	LWWL	DXXD	YFFY	CPPC	JQQJ	vertrauen	küssen	genießen	sonnig	träumen	gütig	versagen	krank	gemein	sterben	töten	gierig	1	acq_USpleas_CSpleas2_RW	acq3_RW	3	24	453	0	300	300	369	50	0	1	1	blank2r.bmp	0	1	+	0	1	blank2r.bmp	492	1	LWWL	492	1	blank2r.bmp	572	2	träumen	866	1	!	-1	1	!	-1	0	0	0	0	0	0	0	0	0	0	0	0	0	0	0	0	0	0	0	0	0	0	0	0	0	0	0	0	0	0
070919	10:03:46	10:09:03	316709	5.0.10.0	5_exp_RW	27	Rpleas_acq	CS_A	ZHHZ	LWWL	DXXD	YFFY	CPPC	JQQJ	vertrauen	küssen	genießen	sonnig	träumen	gütig	versagen	krank	gemein	sterben	töten	gierig	1	acq_USunple_CSunple2_RW	acq4567_RW	4	1	400	1	300	300	426	46	0	1	1	blank2r.bmp	0	1	+	0	1	blank2r.bmp	492	1	YFFY	492	1	blank2r.bmp	572	2	töten	866	1	!	1239	1	!	1332	0	0	0	0	0	0	0	0	0	0	0	0	0	0	0	0	0	0	0	0	0	0	0	0	0	0	0	0	0	0
070919	10:03:46	10:09:05	318869	5.0.10.0	5_exp_RW	27	Rpleas_acq	CS_A	ZHHZ	LWWL	DXXD	YFFY	CPPC	JQQJ	vertrauen	küssen	genießen	sonnig	träumen	gütig	versagen	krank	gemein	sterben	töten	gierig	1	acq_USunple_CSunple1_RW	acq4567_RW	4	2	400	1	300	300	367	46	0	1	1	blank2r.bmp	0	1	+	0	1	blank2r.bmp	492	1	DXXD	492	1	blank2r.bmp	572	2	krank	866	1	!	1239	1	!	1266	0	0	0	0	0	0	0	0	0	0	0	0	0	0	0	0	0	0	0	0	0	0	0	0	0	0	0	0	0	0
070919	10:03:46	10:09:08	321148	5.0.10.0	5_exp_RW	27	Rpleas_acq	CS_A	ZHHZ	LWWL	DXXD	YFFY	CPPC	JQQJ	vertrauen	küssen	genießen	sonnig	träumen	gütig	versagen	krank	gemein	sterben	töten	gierig	1	acq_USpleas_CSpleas2_RW	acq4567_RW	4	3	400	0	300	300	507	50	0	1	1	blank2r.bmp	0	1	+	0	1	blank2r.bmp	492	1	LWWL	492	1	blank2r.bmp	572	1	sonnig	866	1	!	1239	1	!	-1	0	0	0	0	0	0	0	0	0	0	0	0	0	0	0	0	0	0	0	0	0	0	0	0	0	0	0	0	0	0
070919	10:03:46	10:09:10	323413	5.0.10.0	5_exp_RW	27	Rpleas_acq	CS_A	ZHHZ	LWWL	DXXD	YFFY	CPPC	JQQJ	vertrauen	küssen	genießen	sonnig	träumen	gütig	versagen	krank	gemein	sterben	töten	gierig	1	acq_USpleas_CSpleas1_RW	acq4567_RW	4	4	400	0	300	300	489	50	0	1	1	blank2r.bmp	0	1	+	0	1	blank2r.bmp	492	1	ZHHZ	492	1	blank2r.bmp	572	1	vertrauen	866	1	!	1239	1	!	-1	0	0	0	0	0	0	0	0	0	0	0	0	0	0	0	0	0	0	0	0	0	0	0	0	0	0	0	0	0	0
070919	10:03:46	10:09:12	325666	5.0.10.0	5_exp_RW	27	Rpleas_acq	CS_A	ZHHZ	LWWL	DXXD	YFFY	CPPC	JQQJ	vertrauen	küssen	genießen	sonnig	träumen	gütig	versagen	krank	gemein	sterben	töten	gierig	1	acq_USunple_CSunple1_RW	acq4567_RW	4	5	400	1	300	300	451	46	0	1	1	blank2r.bmp	0	1	+	0	1	blank2r.bmp	492	1	DXXD	492	1	blank2r.bmp	572	1	versagen	866	1	!	1239	1	!	1346	0	0	0	0	0	0	0	0	0	0	0	0	0	0	0	0	0	0	0	0	0	0	0	0	0	0	0	0	0	0
070919	10:03:46	10:09:14	327732	5.0.10.0	5_exp_RW	27	Rpleas_acq	CS_A	ZHHZ	LWWL	DXXD	YFFY	CPPC	JQQJ	vertrauen	küssen	genießen	sonnig	träumen	gütig	versagen	krank	gemein	sterben	töten	gierig	1	acq_USunple_CSunple1_RW	acq4567_RW	4	6	400	0	300	300	292	46	0	1	1	blank2r.bmp	0	1	+	0	1	blank2r.bmp	492	1	DXXD	492	1	blank2r.bmp	572	2	krank	866	1	!	-1	1	!	-1	0	0	0	0	0	0	0	0	0	0	0	0	0	0	0	0	0	0	0	0	0	0	0	0	0	0	0	0	0	0
070919	10:03:46	10:09:16	329944	5.0.10.0	5_exp_RW	27	Rpleas_acq	CS_A	ZHHZ	LWWL	DXXD	YFFY	CPPC	JQQJ	vertrauen	küssen	genießen	sonnig	träumen	gütig	versagen	krank	gemein	sterben	töten	gierig	1	acq_USunple_CSunple2_RW	acq4567_RW	4	7	400	1	300	300	404	46	0	1	1	blank2r.bmp	0	1	+	0	1	blank2r.bmp	492	1	YFFY	492	1	blank2r.bmp	572	1	sterben	866	1	!	1239	1	!	1306	0	0	0	0	0	0	0	0	0	0	0	0	0	0	0	0	0	0	0	0	0	0	0	0	0	0	0	0	0	0
070919	10:03:46	10:09:19	332196	5.0.10.0	5_exp_RW	27	Rpleas_acq	CS_A	ZHHZ	LWWL	DXXD	YFFY	CPPC	JQQJ	vertrauen	küssen	genießen	sonnig	träumen	gütig	versagen	krank	gemein	sterben	töten	gierig	1	acq_USunple_CSunple2_RW	acq4567_RW	4	8	400	0	300	300	479	46	0	1	1	blank2r.bmp	0	1	+	0	1	blank2r.bmp	492	1	YFFY	492	1	blank2r.bmp	572	2	töten	866	1	!	1239	1	!	-1	0	0	0	0	0	0	0	0	0	0	0	0	0	0	0	0	0	0	0	0	0	0	0	0	0	0	0	0	0	0
070919	10:03:46	10:09:21	334302	5.0.10.0	5_exp_RW	27	Rpleas_acq	CS_A	ZHHZ	LWWL	DXXD	YFFY	CPPC	JQQJ	vertrauen	küssen	genießen	sonnig	träumen	gütig	versagen	krank	gemein	sterben	töten	gierig	1	acq_USunple_CSunple1_RW	acq4567_RW	4	9	400	0	300	300	329	50	0	0	1	blank2r.bmp	0	1	+	0	1	blank2r.bmp	492	1	DXXD	492	1	blank2r.bmp	572	3	gemein	866	1	!	-1	1	!	-1	0	0	0	0	0	0	0	0	0	0	0	0	0	0	0	0	0	0	0	0	0	0	0	0	0	0	0	0	0	0
070919	10:03:46	10:09:23	336461	5.0.10.0	5_exp_RW	27	Rpleas_acq	CS_A	ZHHZ	LWWL	DXXD	YFFY	CPPC	JQQJ	vertrauen	küssen	genießen	sonnig	träumen	gütig	versagen	krank	gemein	sterben	töten	gierig	1	acq_USpleas_CSpleas1_RW	acq4567_RW	4	10	400	1	300	300	359	46	0	0	1	blank2r.bmp	0	1	+	0	1	blank2r.bmp	492	1	ZHHZ	492	1	blank2r.bmp	572	2	küssen	866	1	!	1239	1	!	1252	0	0	0	0	0	0	0	0	0	0	0	0	0	0	0	0	0	0	0	0	0	0	0	0	0	0	0	0	0	0
070919	10:03:46	10:09:25	338714	5.0.10.0	5_exp_RW	27	Rpleas_acq	CS_A	ZHHZ	LWWL	DXXD	YFFY	CPPC	JQQJ	vertrauen	küssen	genießen	sonnig	träumen	gütig	versagen	krank	gemein	sterben	töten	gierig	1	acq_USunple_CSunple2_RW	acq4567_RW	4	11	400	0	300	300	483	46	0	1	1	blank2r.bmp	0	1	+	0	1	blank2r.bmp	492	1	YFFY	492	1	blank2r.bmp	572	3	gierig	866	1	!	1239	1	!	-1	0	0	0	0	0	0	0	0	0	0	0	0	0	0	0	0	0	0	0	0	0	0	0	0	0	0	0	0	0	0
070919	10:03:46	10:09:27	340913	5.0.10.0	5_exp_RW	27	Rpleas_acq	CS_A	ZHHZ	LWWL	DXXD	YFFY	CPPC	JQQJ	vertrauen	küssen	genießen	sonnig	träumen	gütig	versagen	krank	gemein	sterben	töten	gierig	1	acq_USpleas_CSpleas1_RW	acq4567_RW	4	12	400	1	300	300	390	46	0	0	1	blank2r.bmp	0	1	+	0	1	blank2r.bmp	492	1	ZHHZ	492	1	blank2r.bmp	572	1	vertrauen	866	1	!	1239	1	!	1292	0	0	0	0	0	0	0	0	0	0	0	0	0	0	0	0	0	0	0	0	0	0	0	0	0	0	0	0	0	0
070919	10:03:46	10:09:30	343378	5.0.10.0	5_exp_RW	27	Rpleas_acq	CS_A	ZHHZ	LWWL	DXXD	YFFY	CPPC	JQQJ	vertrauen	küssen	genießen	sonnig	träumen	gütig	versagen	krank	gemein	sterben	töten	gierig	1	acq_USpleas_CSpleas1_RW	acq4567_RW	4	13	400	0	300	300	692	50	0	1	1	blank2r.bmp	0	1	+	0	1	blank2r.bmp	492	1	ZHHZ	492	1	blank2r.bmp	572	3	genießen	866	1	!	1239	1	!	-1	0	0	0	0	0	0	0	0	0	0	0	0	0	0	0	0	0	0	0	0	0	0	0	0	0	0	0	0	0	0
070919	10:03:46	10:09:32	345564	5.0.10.0	5_exp_RW	27	Rpleas_acq	CS_A	ZHHZ	LWWL	DXXD	YFFY	CPPC	JQQJ	vertrauen	küssen	genießen	sonnig	träumen	gütig	versagen	krank	gemein	sterben	töten	gierig	1	acq_USpleas_CSpleas1_RW	acq4567_RW	4	14	400	1	300	300	380	50	0	1	1	blank2r.bmp	0	1	+	0	1	blank2r.bmp	492	1	ZHHZ	492	1	blank2r.bmp	572	2	küssen	866	1	!	1239	1	!	1279	0	0	0	0	0	0	0	0	0	0	0	0	0	0	0	0	0	0	0	0	0	0	0	0	0	0	0	0	0	0
070919	10:03:46	10:09:34	347763	5.0.10.0	5_exp_RW	27	Rpleas_acq	CS_A	ZHHZ	LWWL	DXXD	YFFY	CPPC	JQQJ	vertrauen	küssen	genießen	sonnig	träumen	gütig	versagen	krank	gemein	sterben	töten	gierig	1	acq_USpleas_CSpleas2_RW	acq4567_RW	4	15	400	1	300	300	396	46	0	0	1	blank2r.bmp	0	1	+	0	1	blank2r.bmp	492	1	LWWL	492	1	blank2r.bmp	572	3	gütig	866	1	!	1239	1	!	1292	0	0	0	0	0	0	0	0	0	0	0	0	0	0	0	0	0	0	0	0	0	0	0	0	0	0	0	0	0	0
070919	10:03:46	10:09:36	349976	5.0.10.0	5_exp_RW	27	Rpleas_acq	CS_A	ZHHZ	LWWL	DXXD	YFFY	CPPC	JQQJ	vertrauen	küssen	genießen	sonnig	träumen	gütig	versagen	krank	gemein	sterben	töten	gierig	1	acq_USpleas_CSpleas2_RW	acq4567_RW	4	16	400	1	300	300	406	46	0	0	1	blank2r.bmp	0	1	+	0	1	blank2r.bmp	492	1	LWWL	492	1	blank2r.bmp	572	2	träumen	866	1	!	1239	1	!	1306	0	0	0	0	0	0	0	0	0	0	0	0	0	0	0	0	0	0	0	0	0	0	0	0	0	0	0	0	0	0
070919	10:03:46	10:09:39	352162	5.0.10.0	5_exp_RW	27	Rpleas_acq	CS_A	ZHHZ	LWWL	DXXD	YFFY	CPPC	JQQJ	vertrauen	küssen	genießen	sonnig	träumen	gütig	versagen	krank	gemein	sterben	töten	gierig	1	acq_USunple_CSunple1_RW	acq4567_RW	4	17	400	1	300	300	398	46	0	1	1	blank2r.bmp	0	1	+	0	1	blank2r.bmp	492	1	DXXD	492	1	blank2r.bmp	572	1	versagen	866	1	!	1239	1	!	1292	0	0	0	0	0	0	0	0	0	0	0	0	0	0	0	0	0	0	0	0	0	0	0	0	0	0	0	0	0	0
070919	10:03:46	10:09:41	354427	5.0.10.0	5_exp_RW	27	Rpleas_acq	CS_A	ZHHZ	LWWL	DXXD	YFFY	CPPC	JQQJ	vertrauen	küssen	genießen	sonnig	träumen	gütig	versagen	krank	gemein	sterben	töten	gierig	1	acq_USunple_CSunple2_RW	acq4567_RW	4	18	400	0	300	300	493	46	0	1	1	blank2r.bmp	0	1	+	0	1	blank2r.bmp	492	1	YFFY	492	1	blank2r.bmp	572	1	sterben	866	1	!	1239	1	!	-1	0	0	0	0	0	0	0	0	0	0	0	0	0	0	0	0	0	0	0	0	0	0	0	0	0	0	0	0	0	0
070919	10:03:46	10:09:43	356466	5.0.10.0	5_exp_RW	27	Rpleas_acq	CS_A	ZHHZ	LWWL	DXXD	YFFY	CPPC	JQQJ	vertrauen	küssen	genießen	sonnig	träumen	gütig	versagen	krank	gemein	sterben	töten	gierig	1	acq_USpleas_CSpleas2_RW	acq4567_RW	4	19	400	0	300	300	249	46	0	0	1	blank2r.bmp	0	1	+	0	1	blank2r.bmp	492	1	LWWL	492	1	blank2r.bmp	572	1	sonnig	866	1	!	-1	1	!	-1	0	0	0	0	0	0	0	0	0	0	0	0	0	0	0	0	0	0	0	0	0	0	0	0	0	0	0	0	0	0
070919	10:03:46	10:09:47	360891	5.0.10.0	5_exp_RW	27	Rpleas_acq	CS_A	ZHHZ	LWWL	DXXD	YFFY	CPPC	JQQJ	vertrauen	küssen	genießen	sonnig	träumen	gütig	versagen	krank	gemein	sterben	töten	gierig	1	acq_USpleas_CSpleas2_RW	acq4567_RW	4	20	400	0	300	300	2649	50	0	1	1	blank2r.bmp	0	1	+	0	1	blank2r.bmp	492	1	LWWL	492	1	blank2r.bmp	572	3	gütig	866	1	!	1239	1	!	-1	0	0	0	0	0	0	0	0	0	0	0	0	0	0	0	0	0	0	0	0	0	0	0	0	0	0	0	0	0	0
070919	10:03:46	10:09:50	363130	5.0.10.0	5_exp_RW	27	Rpleas_acq	CS_A	ZHHZ	LWWL	DXXD	YFFY	CPPC	JQQJ	vertrauen	küssen	genießen	sonnig	träumen	gütig	versagen	krank	gemein	sterben	töten	gierig	1	acq_USunple_CSunple1_RW	acq4567_RW	4	21	400	1	300	300	425	46	0	1	1	blank2r.bmp	0	1	+	0	1	blank2r.bmp	492	1	DXXD	492	1	blank2r.bmp	572	1	versagen	866	1	!	1239	1	!	1332	0	0	0	0	0	0	0	0	0	0	0	0	0	0	0	0	0	0	0	0	0	0	0	0	0	0	0	0	0	0
070919	10:03:46	10:09:52	365210	5.0.10.0	5_exp_RW	27	Rpleas_acq	CS_A	ZHHZ	LWWL	DXXD	YFFY	CPPC	JQQJ	vertrauen	küssen	genießen	sonnig	träumen	gütig	versagen	krank	gemein	sterben	töten	gierig	1	acq_USunple_CSunple2_RW	acq4567_RW	4	22	400	0	300	300	300	46	0	1	1	blank2r.bmp	0	1	+	0	1	blank2r.bmp	492	1	YFFY	492	1	blank2r.bmp	572	3	gierig	866	1	!	-1	1	!	-1	0	0	0	0	0	0	0	0	0	0	0	0	0	0	0	0	0	0	0	0	0	0	0	0	0	0	0	0	0	0
070919	10:03:46	10:09:54	367369	5.0.10.0	5_exp_RW	27	Rpleas_acq	CS_A	ZHHZ	LWWL	DXXD	YFFY	CPPC	JQQJ	vertrauen	küssen	genießen	sonnig	träumen	gütig	versagen	krank	gemein	sterben	töten	gierig	1	acq_USunple_CSunple1_RW	acq4567_RW	4	23	400	1	300	300	357	50	0	0	1	blank2r.bmp	0	1	+	0	1	blank2r.bmp	492	1	DXXD	492	1	blank2r.bmp	572	3	gemein	866	1	!	1239	1	!	1252	0	0	0	0	0	0	0	0	0	0	0	0	0	0	0	0	0	0	0	0	0	0	0	0	0	0	0	0	0	0
070919	10:03:46	10:09:57	370168	5.0.10.0	5_exp_RW	27	Rpleas_acq	CS_A	ZHHZ	LWWL	DXXD	YFFY	CPPC	JQQJ	vertrauen	küssen	genießen	sonnig	träumen	gütig	versagen	krank	gemein	sterben	töten	gierig	1	acq_USpleas_CSpleas2_RW	acq4567_RW	4	24	400	0	300	300	1025	50	0	1	1	blank2r.bmp	0	1	+	0	1	blank2r.bmp	492	1	LWWL	492	1	blank2r.bmp	572	2	träumen	866	1	!	1239	1	!	-1	0	0	0	0	0	0	0	0	0	0	0	0	0	0	0	0	0	0	0	0	0	0	0	0	0	0	0	0	0	0
070919	10:03:46	10:09:59	372447	5.0.10.0	5_exp_RW	27	Rpleas_acq	CS_A	ZHHZ	LWWL	DXXD	YFFY	CPPC	JQQJ	vertrauen	küssen	genießen	sonnig	träumen	gütig	versagen	krank	gemein	sterben	töten	gierig	1	acq_USunple_CSunple2_RW	acq4567_RW	4	25	400	0	300	300	488	46	0	1	1	blank2r.bmp	0	1	+	0	1	blank2r.bmp	492	1	YFFY	492	1	blank2r.bmp	572	1	sterben	866	1	!	1239	1	!	-1	0	0	0	0	0	0	0	0	0	0	0	0	0	0	0	0	0	0	0	0	0	0	0	0	0	0	0	0	0	0
070919	10:03:46	10:10:01	374806	5.0.10.0	5_exp_RW	27	Rpleas_acq	CS_A	ZHHZ	LWWL	DXXD	YFFY	CPPC	JQQJ	vertrauen	küssen	genießen	sonnig	träumen	gütig	versagen	krank	gemein	sterben	töten	gierig	1	acq_USpleas_CSpleas1_RW	acq4567_RW	4	26	400	0	300	300	561	50	0	1	1	blank2r.bmp	0	1	+	0	1	blank2r.bmp	492	1	ZHHZ	492	1	blank2r.bmp	572	3	genießen	866	1	!	1239	1	!	-1	0	0	0	0	0	0	0	0	0	0	0	0	0	0	0	0	0	0	0	0	0	0	0	0	0	0	0	0	0	0
070919	10:03:46	10:10:04	376965	5.0.10.0	5_exp_RW	27	Rpleas_acq	CS_A	ZHHZ	LWWL	DXXD	YFFY	CPPC	JQQJ	vertrauen	küssen	genießen	sonnig	träumen	gütig	versagen	krank	gemein	sterben	töten	gierig	1	acq_USunple_CSunple2_RW	acq4567_RW	4	27	400	1	300	300	347	46	0	1	1	blank2r.bmp	0	1	+	0	1	blank2r.bmp	492	1	YFFY	492	1	blank2r.bmp	572	2	töten	866	1	!	1239	1	!	1252	0	0	0	0	0	0	0	0	0	0	0	0	0	0	0	0	0	0	0	0	0	0	0	0	0	0	0	0	0	0
070919	10:03:46	10:10:06	379244	5.0.10.0	5_exp_RW	27	Rpleas_acq	CS_A	ZHHZ	LWWL	DXXD	YFFY	CPPC	JQQJ	vertrauen	küssen	genießen	sonnig	träumen	gütig	versagen	krank	gemein	sterben	töten	gierig	1	acq_USpleas_CSpleas1_RW	acq4567_RW	4	28	400	0	300	300	509	50	0	1	1	blank2r.bmp	0	1	+	0	1	blank2r.bmp	492	1	ZHHZ	492	1	blank2r.bmp	572	2	küssen	866	1	!	1239	1	!	-1	0	0	0	0	0	0	0	0	0	0	0	0	0	0	0	0	0	0	0	0	0	0	0	0	0	0	0	0	0	0
070919	10:03:46	10:10:08	381443	5.0.10.0	5_exp_RW	27	Rpleas_acq	CS_A	ZHHZ	LWWL	DXXD	YFFY	CPPC	JQQJ	vertrauen	küssen	genießen	sonnig	träumen	gütig	versagen	krank	gemein	sterben	töten	gierig	1	acq_USunple_CSunple1_RW	acq4567_RW	4	29	400	1	300	300	389	46	0	1	1	blank2r.bmp	0	1	+	0	1	blank2r.bmp	492	1	DXXD	492	1	blank2r.bmp	572	2	krank	866	1	!	1239	1	!	1292	0	0	0	0	0	0	0	0	0	0	0	0	0	0	0	0	0	0	0	0	0	0	0	0	0	0	0	0	0	0
070919	10:03:46	10:10:11	384788	5.0.10.0	5_exp_RW	27	Rpleas_acq	CS_A	ZHHZ	LWWL	DXXD	YFFY	CPPC	JQQJ	vertrauen	küssen	genießen	sonnig	träumen	gütig	versagen	krank	gemein	sterben	töten	gierig	1	acq_USunple_CSunple2_RW	acq4567_RW	4	30	400	0	300	300	1580	46	0	1	1	blank2r.bmp	0	1	+	0	1	blank2r.bmp	492	1	YFFY	492	1	blank2r.bmp	572	3	gierig	866	1	!	1239	1	!	-1	0	0	0	0	0	0	0	0	0	0	0	0	0	0	0	0	0	0	0	0	0	0	0	0	0	0	0	0	0	0
070919	10:03:46	10:10:14	387027	5.0.10.0	5_exp_RW	27	Rpleas_acq	CS_A	ZHHZ	LWWL	DXXD	YFFY	CPPC	JQQJ	vertrauen	küssen	genießen	sonnig	träumen	gütig	versagen	krank	gemein	sterben	töten	gierig	1	acq_USpleas_CSpleas1_RW	acq4567_RW	4	31	400	1	300	300	431	50	0	1	1	blank2r.bmp	0	1	+	0	1	blank2r.bmp	492	1	ZHHZ	492	1	blank2r.bmp	572	1	vertrauen	866	1	!	1239	1	!	1332	0	0	0	0	0	0	0	0	0	0	0	0	0	0	0	0	0	0	0	0	0	0	0	0	0	0	0	0	0	0
070919	10:03:46	10:10:16	389213	5.0.10.0	5_exp_RW	27	Rpleas_acq	CS_A	ZHHZ	LWWL	DXXD	YFFY	CPPC	JQQJ	vertrauen	küssen	genießen	sonnig	träumen	gütig	versagen	krank	gemein	sterben	töten	gierig	1	acq_USunple_CSunple2_RW	acq4567_RW	4	32	400	1	300	300	390	46	0	1	1	blank2r.bmp	0	1	+	0	1	blank2r.bmp	492	1	YFFY	492	1	blank2r.bmp	572	1	sterben	866	1	!	1239	1	!	1292	0	0	0	0	0	0	0	0	0	0	0	0	0	0	0	0	0	0	0	0	0	0	0	0	0	0	0	0	0	0
070919	10:03:46	10:10:18	391372	5.0.10.0	5_exp_RW	27	Rpleas_acq	CS_A	ZHHZ	LWWL	DXXD	YFFY	CPPC	JQQJ	vertrauen	küssen	genießen	sonnig	träumen	gütig	versagen	krank	gemein	sterben	töten	gierig	1	acq_USpleas_CSpleas2_RW	acq4567_RW	4	33	400	1	300	300	346	50	0	1	1	blank2r.bmp	0	1	+	0	1	blank2r.bmp	492	1	LWWL	492	1	blank2r.bmp	572	1	sonnig	866	1	!	1239	1	!	1252	0	0	0	0	0	0	0	0	0	0	0	0	0	0	0	0	0	0	0	0	0	0	0	0	0	0	0	0	0	0
070919	10:03:46	10:10:20	393478	5.0.10.0	5_exp_RW	27	Rpleas_acq	CS_A	ZHHZ	LWWL	DXXD	YFFY	CPPC	JQQJ	vertrauen	küssen	genießen	sonnig	träumen	gütig	versagen	krank	gemein	sterben	töten	gierig	1	acq_USpleas_CSpleas1_RW	acq4567_RW	4	34	400	0	300	300	332	50	0	1	1	blank2r.bmp	0	1	+	0	1	blank2r.bmp	492	1	ZHHZ	492	1	blank2r.bmp	572	3	genießen	866	1	!	-1	1	!	-1	0	0	0	0	0	0	0	0	0	0	0	0	0	0	0	0	0	0	0	0	0	0	0	0	0	0	0	0	0	0
070919	10:03:46	10:10:22	395557	5.0.10.0	5_exp_RW	27	Rpleas_acq	CS_A	ZHHZ	LWWL	DXXD	YFFY	CPPC	JQQJ	vertrauen	küssen	genießen	sonnig	träumen	gütig	versagen	krank	gemein	sterben	töten	gierig	1	acq_USpleas_CSpleas2_RW	acq4567_RW	4	35	400	0	300	300	294	50	0	1	1	blank2r.bmp	0	1	+	0	1	blank2r.bmp	492	1	LWWL	492	1	blank2r.bmp	572	3	gütig	866	1	!	-1	1	!	-1	0	0	0	0	0	0	0	0	0	0	0	0	0	0	0	0	0	0	0	0	0	0	0	0	0	0	0	0	0	0
070919	10:03:46	10:10:24	397716	5.0.10.0	5_exp_RW	27	Rpleas_acq	CS_A	ZHHZ	LWWL	DXXD	YFFY	CPPC	JQQJ	vertrauen	küssen	genießen	sonnig	träumen	gütig	versagen	krank	gemein	sterben	töten	gierig	1	acq_USpleas_CSpleas2_RW	acq4567_RW	4	36	400	1	300	300	349	50	0	1	1	blank2r.bmp	0	1	+	0	1	blank2r.bmp	492	1	LWWL	492	1	blank2r.bmp	572	1	sonnig	866	1	!	1239	1	!	1252	0	0	0	0	0	0	0	0	0	0	0	0	0	0	0	0	0	0	0	0	0	0	0	0	0	0	0	0	0	0
070919	10:03:46	10:10:26	399782	5.0.10.0	5_exp_RW	27	Rpleas_acq	CS_A	ZHHZ	LWWL	DXXD	YFFY	CPPC	JQQJ	vertrauen	küssen	genießen	sonnig	träumen	gütig	versagen	krank	gemein	sterben	töten	gierig	1	acq_USpleas_CSpleas1_RW	acq4567_RW	4	37	400	0	300	300	282	50	0	1	1	blank2r.bmp	0	1	+	0	1	blank2r.bmp	492	1	ZHHZ	492	1	blank2r.bmp	572	2	küssen	866	1	!	-1	1	!	-1	0	0	0	0	0	0	0	0	0	0	0	0	0	0	0	0	0	0	0	0	0	0	0	0	0	0	0	0	0	0
070919	10:03:46	10:10:28	401941	5.0.10.0	5_exp_RW	27	Rpleas_acq	CS_A	ZHHZ	LWWL	DXXD	YFFY	CPPC	JQQJ	vertrauen	küssen	genießen	sonnig	träumen	gütig	versagen	krank	gemein	sterben	töten	gierig	1	acq_USpleas_CSpleas2_RW	acq4567_RW	4	38	400	1	300	300	355	50	0	1	1	blank2r.bmp	0	1	+	0	1	blank2r.bmp	492	1	LWWL	492	1	blank2r.bmp	572	2	träumen	866	1	!	1239	1	!	1252	0	0	0	0	0	0	0	0	0	0	0	0	0	0	0	0	0	0	0	0	0	0	0	0	0	0	0	0	0	0
070919	10:03:46	10:10:31	404180	5.0.10.0	5_exp_RW	27	Rpleas_acq	CS_A	ZHHZ	LWWL	DXXD	YFFY	CPPC	JQQJ	vertrauen	küssen	genießen	sonnig	träumen	gütig	versagen	krank	gemein	sterben	töten	gierig	1	acq_USunple_CSunple1_RW	acq4567_RW	4	39	400	1	300	300	449	46	0	1	1	blank2r.bmp	0	1	+	0	1	blank2r.bmp	492	1	DXXD	492	1	blank2r.bmp	572	3	gemein	866	1	!	1239	1	!	1346	0	0	0	0	0	0	0	0	0	0	0	0	0	0	0	0	0	0	0	0	0	0	0	0	0	0	0	0	0	0
070919	10:03:46	10:10:33	406246	5.0.10.0	5_exp_RW	27	Rpleas_acq	CS_A	ZHHZ	LWWL	DXXD	YFFY	CPPC	JQQJ	vertrauen	küssen	genießen	sonnig	träumen	gütig	versagen	krank	gemein	sterben	töten	gierig	1	acq_USunple_CSunple1_RW	acq4567_RW	4	40	400	0	300	300	300	46	0	1	1	blank2r.bmp	0	1	+	0	1	blank2r.bmp	492	1	DXXD	492	1	blank2r.bmp	572	1	versagen	866	1	!	-1	1	!	-1	0	0	0	0	0	0	0	0	0	0	0	0	0	0	0	0	0	0	0	0	0	0	0	0	0	0	0	0	0	0
070919	10:03:46	10:10:35	408285	5.0.10.0	5_exp_RW	27	Rpleas_acq	CS_A	ZHHZ	LWWL	DXXD	YFFY	CPPC	JQQJ	vertrauen	küssen	genießen	sonnig	träumen	gütig	versagen	krank	gemein	sterben	töten	gierig	1	acq_USunple_CSunple2_RW	acq4567_RW	4	41	400	0	300	300	261	46	0	1	1	blank2r.bmp	0	1	+	0	1	blank2r.bmp	492	1	YFFY	492	1	blank2r.bmp	572	2	töten	866	1	!	-1	1	!	-1	0	0	0	0	0	0	0	0	0	0	0	0	0	0	0	0	0	0	0	0	0	0	0	0	0	0	0	0	0	0
070919	10:03:46	10:10:37	410311	5.0.10.0	5_exp_RW	27	Rpleas_acq	CS_A	ZHHZ	LWWL	DXXD	YFFY	CPPC	JQQJ	vertrauen	küssen	genießen	sonnig	träumen	gütig	versagen	krank	gemein	sterben	töten	gierig	1	acq_USunple_CSunple1_RW	acq4567_RW	4	42	400	0	300	300	238	46	0	1	1	blank2r.bmp	0	1	+	0	1	blank2r.bmp	492	1	DXXD	492	1	blank2r.bmp	572	2	krank	866	1	!	-1	1	!	-1	0	0	0	0	0	0	0	0	0	0	0	0	0	0	0	0	0	0	0	0	0	0	0	0	0	0	0	0	0	0
070919	10:03:46	10:10:39	412324	5.0.10.0	5_exp_RW	27	Rpleas_acq	CS_A	ZHHZ	LWWL	DXXD	YFFY	CPPC	JQQJ	vertrauen	küssen	genießen	sonnig	träumen	gütig	versagen	krank	gemein	sterben	töten	gierig	1	acq_USpleas_CSpleas2_RW	acq4567_RW	4	43	400	0	300	300	226	46	0	0	1	blank2r.bmp	0	1	+	0	1	blank2r.bmp	492	1	LWWL	492	1	blank2r.bmp	572	3	gütig	866	1	!	-1	1	!	-1	0	0	0	0	0	0	0	0	0	0	0	0	0	0	0	0	0	0	0	0	0	0	0	0	0	0	0	0	0	0
070919	10:03:46	10:10:41	414389	5.0.10.0	5_exp_RW	27	Rpleas_acq	CS_A	ZHHZ	LWWL	DXXD	YFFY	CPPC	JQQJ	vertrauen	küssen	genießen	sonnig	träumen	gütig	versagen	krank	gemein	sterben	töten	gierig	1	acq_USpleas_CSpleas2_RW	acq4567_RW	4	44	400	0	300	300	280	46	0	0	1	blank2r.bmp	0	1	+	0	1	blank2r.bmp	492	1	LWWL	492	1	blank2r.bmp	572	2	träumen	866	1	!	-1	1	!	-1	0	0	0	0	0	0	0	0	0	0	0	0	0	0	0	0	0	0	0	0	0	0	0	0	0	0	0	0	0	0
070919	10:03:46	10:10:44	417655	5.0.10.0	5_exp_RW	27	Rpleas_acq	CS_A	ZHHZ	LWWL	DXXD	YFFY	CPPC	JQQJ	vertrauen	küssen	genießen	sonnig	träumen	gütig	versagen	krank	gemein	sterben	töten	gierig	1	acq_USunple_CSunple1_RW	acq4567_RW	4	45	400	0	300	300	1480	46	0	1	1	blank2r.bmp	0	1	+	0	1	blank2r.bmp	492	1	DXXD	492	1	blank2r.bmp	572	2	krank	866	1	!	1239	1	!	-1	0	0	0	0	0	0	0	0	0	0	0	0	0	0	0	0	0	0	0	0	0	0	0	0	0	0	0	0	0	0
070919	10:03:46	10:10:46	419894	5.0.10.0	5_exp_RW	27	Rpleas_acq	CS_A	ZHHZ	LWWL	DXXD	YFFY	CPPC	JQQJ	vertrauen	küssen	genießen	sonnig	träumen	gütig	versagen	krank	gemein	sterben	töten	gierig	1	acq_USpleas_CSpleas1_RW	acq4567_RW	4	46	400	1	300	300	412	50	0	1	1	blank2r.bmp	0	1	+	0	1	blank2r.bmp	492	1	ZHHZ	492	1	blank2r.bmp	572	1	vertrauen	866	1	!	1239	1	!	1319	0	0	0	0	0	0	0	0	0	0	0	0	0	0	0	0	0	0	0	0	0	0	0	0	0	0	0	0	0	0
070919	10:03:46	10:10:49	422053	5.0.10.0	5_exp_RW	27	Rpleas_acq	CS_A	ZHHZ	LWWL	DXXD	YFFY	CPPC	JQQJ	vertrauen	küssen	genießen	sonnig	träumen	gütig	versagen	krank	gemein	sterben	töten	gierig	1	acq_USunple_CSunple1_RW	acq4567_RW	4	47	400	1	300	300	367	50	0	0	1	blank2r.bmp	0	1	+	0	1	blank2r.bmp	492	1	DXXD	492	1	blank2r.bmp	572	3	gemein	866	1	!	1239	1	!	1266	0	0	0	0	0	0	0	0	0	0	0	0	0	0	0	0	0	0	0	0	0	0	0	0	0	0	0	0	0	0
070919	10:03:46	10:10:51	424225	5.0.10.0	5_exp_RW	27	Rpleas_acq	CS_A	ZHHZ	LWWL	DXXD	YFFY	CPPC	JQQJ	vertrauen	küssen	genießen	sonnig	träumen	gütig	versagen	krank	gemein	sterben	töten	gierig	1	acq_USunple_CSunple2_RW	acq4567_RW	4	48	400	1	300	300	380	46	0	1	1	blank2r.bmp	0	1	+	0	1	blank2r.bmp	492	1	YFFY	492	1	blank2r.bmp	572	2	töten	866	1	!	1239	1	!	1279	0	0	0	0	0	0	0	0	0	0	0	0	0	0	0	0	0	0	0	0	0	0	0	0	0	0	0	0	0	0
070919	10:03:46	10:10:53	426438	5.0.10.0	5_exp_RW	27	Rpleas_acq	CS_A	ZHHZ	LWWL	DXXD	YFFY	CPPC	JQQJ	vertrauen	küssen	genießen	sonnig	träumen	gütig	versagen	krank	gemein	sterben	töten	gierig	1	acq_USunple_CSunple1_RW	acq4567_RW	4	49	400	1	300	300	424	46	0	1	1	blank2r.bmp	0	1	+	0	1	blank2r.bmp	492	1	DXXD	492	1	blank2r.bmp	572	1	versagen	866	1	!	1239	1	!	1319	0	0	0	0	0	0	0	0	0	0	0	0	0	0	0	0	0	0	0	0	0	0	0	0	0	0	0	0	0	0
070919	10:03:46	10:10:55	428584	5.0.10.0	5_exp_RW	27	Rpleas_acq	CS_A	ZHHZ	LWWL	DXXD	YFFY	CPPC	JQQJ	vertrauen	küssen	genießen	sonnig	träumen	gütig	versagen	krank	gemein	sterben	töten	gierig	1	acq_USunple_CSunple2_RW	acq4567_RW	4	50	400	1	300	300	346	46	0	1	1	blank2r.bmp	0	1	+	0	1	blank2r.bmp	492	1	YFFY	492	1	blank2r.bmp	572	1	sterben	866	1	!	1239	1	!	1252	0	0	0	0	0	0	0	0	0	0	0	0	0	0	0	0	0	0	0	0	0	0	0	0	0	0	0	0	0	0
070919	10:03:46	10:10:57	430596	5.0.10.0	5_exp_RW	27	Rpleas_acq	CS_A	ZHHZ	LWWL	DXXD	YFFY	CPPC	JQQJ	vertrauen	küssen	genießen	sonnig	träumen	gütig	versagen	krank	gemein	sterben	töten	gierig	1	acq_USunple_CSunple1_RW	acq4567_RW	4	51	400	0	300	300	245	46	0	1	1	blank2r.bmp	0	1	+	0	1	blank2r.bmp	492	1	DXXD	492	1	blank2r.bmp	572	2	krank	866	1	!	-1	1	!	-1	0	0	0	0	0	0	0	0	0	0	0	0	0	0	0	0	0	0	0	0	0	0	0	0	0	0	0	0	0	0
070919	10:03:46	10:10:59	432755	5.0.10.0	5_exp_RW	27	Rpleas_acq	CS_A	ZHHZ	LWWL	DXXD	YFFY	CPPC	JQQJ	vertrauen	küssen	genießen	sonnig	träumen	gütig	versagen	krank	gemein	sterben	töten	gierig	1	acq_USunple_CSunple2_RW	acq4567_RW	4	52	400	1	300	300	358	46	0	1	1	blank2r.bmp	0	1	+	0	1	blank2r.bmp	492	1	YFFY	492	1	blank2r.bmp	572	3	gierig	866	1	!	1239	1	!	1252	0	0	0	0	0	0	0	0	0	0	0	0	0	0	0	0	0	0	0	0	0	0	0	0	0	0	0	0	0	0
070919	10:03:46	10:11:01	434781	5.0.10.0	5_exp_RW	27	Rpleas_acq	CS_A	ZHHZ	LWWL	DXXD	YFFY	CPPC	JQQJ	vertrauen	küssen	genießen	sonnig	träumen	gütig	versagen	krank	gemein	sterben	töten	gierig	1	acq_USpleas_CSpleas2_RW	acq4567_RW	4	53	400	0	300	300	255	46	0	0	1	blank2r.bmp	0	1	+	0	1	blank2r.bmp	492	1	LWWL	492	1	blank2r.bmp	572	3	gütig	866	1	!	-1	1	!	-1	0	0	0	0	0	0	0	0	0	0	0	0	0	0	0	0	0	0	0	0	0	0	0	0	0	0	0	0	0	0
070919	10:03:46	10:11:04	437033	5.0.10.0	5_exp_RW	27	Rpleas_acq	CS_A	ZHHZ	LWWL	DXXD	YFFY	CPPC	JQQJ	vertrauen	küssen	genießen	sonnig	träumen	gütig	versagen	krank	gemein	sterben	töten	gierig	1	acq_USpleas_CSpleas1_RW	acq4567_RW	4	54	400	1	300	300	451	46	0	0	1	blank2r.bmp	0	1	+	0	1	blank2r.bmp	492	1	ZHHZ	492	1	blank2r.bmp	572	3	genießen	866	1	!	1239	1	!	1346	0	0	0	0	0	0	0	0	0	0	0	0	0	0	0	0	0	0	0	0	0	0	0	0	0	0	0	0	0	0
070919	10:03:46	10:11:06	439179	5.0.10.0	5_exp_RW	27	Rpleas_acq	CS_A	ZHHZ	LWWL	DXXD	YFFY	CPPC	JQQJ	vertrauen	küssen	genießen	sonnig	träumen	gütig	versagen	krank	gemein	sterben	töten	gierig	1	acq_USpleas_CSpleas1_RW	acq4567_RW	4	55	400	1	300	300	346	50	0	1	1	blank2r.bmp	0	1	+	0	1	blank2r.bmp	492	1	ZHHZ	492	1	blank2r.bmp	572	2	küssen	866	1	!	1239	1	!	1252	0	0	0	0	0	0	0	0	0	0	0	0	0	0	0	0	0	0	0	0	0	0	0	0	0	0	0	0	0	0
070919	10:03:46	10:11:08	441378	5.0.10.0	5_exp_RW	27	Rpleas_acq	CS_A	ZHHZ	LWWL	DXXD	YFFY	CPPC	JQQJ	vertrauen	küssen	genießen	sonnig	träumen	gütig	versagen	krank	gemein	sterben	töten	gierig	1	acq_USpleas_CSpleas2_RW	acq4567_RW	4	56	400	1	300	300	386	50	0	1	1	blank2r.bmp	0	1	+	0	1	blank2r.bmp	492	1	LWWL	492	1	blank2r.bmp	572	1	sonnig	866	1	!	1239	1	!	1292	0	0	0	0	0	0	0	0	0	0	0	0	0	0	0	0	0	0	0	0	0	0	0	0	0	0	0	0	0	0
070919	10:03:46	10:11:10	443444	5.0.10.0	5_exp_RW	27	Rpleas_acq	CS_A	ZHHZ	LWWL	DXXD	YFFY	CPPC	JQQJ	vertrauen	küssen	genießen	sonnig	träumen	gütig	versagen	krank	gemein	sterben	töten	gierig	1	acq_USunple_CSunple2_RW	acq4567_RW	4	57	400	0	300	300	288	50	0	0	1	blank2r.bmp	0	1	+	0	1	blank2r.bmp	492	1	YFFY	492	1	blank2r.bmp	572	2	töten	866	1	!	-1	1	!	-1	0	0	0	0	0	0	0	0	0	0	0	0	0	0	0	0	0	0	0	0	0	0	0	0	0	0	0	0	0	0
070919	10:03:46	10:11:12	445683	5.0.10.0	5_exp_RW	27	Rpleas_acq	CS_A	ZHHZ	LWWL	DXXD	YFFY	CPPC	JQQJ	vertrauen	küssen	genießen	sonnig	träumen	gütig	versagen	krank	gemein	sterben	töten	gierig	1	acq_USpleas_CSpleas1_RW	acq4567_RW	4	58	400	1	300	300	431	50	0	1	1	blank2r.bmp	0	1	+	0	1	blank2r.bmp	492	1	ZHHZ	492	1	blank2r.bmp	572	1	vertrauen	866	1	!	1239	1	!	1332	0	0	0	0	0	0	0	0	0	0	0	0	0	0	0	0	0	0	0	0	0	0	0	0	0	0	0	0	0	0
070919	10:03:46	10:11:14	447829	5.0.10.0	5_exp_RW	27	Rpleas_acq	CS_A	ZHHZ	LWWL	DXXD	YFFY	CPPC	JQQJ	vertrauen	küssen	genießen	sonnig	träumen	gütig	versagen	krank	gemein	sterben	töten	gierig	1	acq_USpleas_CSpleas2_RW	acq4567_RW	4	59	400	1	300	300	346	50	0	1	1	blank2r.bmp	0	1	+	0	1	blank2r.bmp	492	1	LWWL	492	1	blank2r.bmp	572	2	träumen	866	1	!	1239	1	!	1252	0	0	0	0	0	0	0	0	0	0	0	0	0	0	0	0	0	0	0	0	0	0	0	0	0	0	0	0	0	0
070919	10:03:46	10:11:16	449908	5.0.10.0	5_exp_RW	27	Rpleas_acq	CS_A	ZHHZ	LWWL	DXXD	YFFY	CPPC	JQQJ	vertrauen	küssen	genießen	sonnig	träumen	gütig	versagen	krank	gemein	sterben	töten	gierig	1	acq_USpleas_CSpleas1_RW	acq4567_RW	4	60	400	0	300	300	312	50	0	1	1	blank2r.bmp	0	1	+	0	1	blank2r.bmp	492	1	ZHHZ	492	1	blank2r.bmp	572	3	genießen	866	1	!	-1	1	!	-1	0	0	0	0	0	0	0	0	0	0	0	0	0	0	0	0	0	0	0	0	0	0	0	0	0	0	0	0	0	0
070919	10:03:46	10:11:19	451974	5.0.10.0	5_exp_RW	27	Rpleas_acq	CS_A	ZHHZ	LWWL	DXXD	YFFY	CPPC	JQQJ	vertrauen	küssen	genießen	sonnig	träumen	gütig	versagen	krank	gemein	sterben	töten	gierig	1	acq_USpleas_CSpleas1_RW	acq4567_RW	4	61	400	0	300	300	284	50	0	1	1	blank2r.bmp	0	1	+	0	1	blank2r.bmp	492	1	ZHHZ	492	1	blank2r.bmp	572	2	küssen	866	1	!	-1	1	!	-1	0	0	0	0	0	0	0	0	0	0	0	0	0	0	0	0	0	0	0	0	0	0	0	0	0	0	0	0	0	0
070919	10:03:46	10:11:21	454213	5.0.10.0	5_exp_RW	27	Rpleas_acq	CS_A	ZHHZ	LWWL	DXXD	YFFY	CPPC	JQQJ	vertrauen	küssen	genießen	sonnig	träumen	gütig	versagen	krank	gemein	sterben	töten	gierig	1	acq_USpleas_CSpleas2_RW	acq4567_RW	4	62	400	1	300	300	420	50	0	1	1	blank2r.bmp	0	1	+	0	1	blank2r.bmp	492	1	LWWL	492	1	blank2r.bmp	572	3	gütig	866	1	!	1239	1	!	1319	0	0	0	0	0	0	0	0	0	0	0	0	0	0	0	0	0	0	0	0	0	0	0	0	0	0	0	0	0	0
070919	10:03:46	10:11:23	456465	5.0.10.0	5_exp_RW	27	Rpleas_acq	CS_A	ZHHZ	LWWL	DXXD	YFFY	CPPC	JQQJ	vertrauen	küssen	genießen	sonnig	träumen	gütig	versagen	krank	gemein	sterben	töten	gierig	1	acq_USunple_CSunple2_RW	acq4567_RW	4	63	400	0	300	300	479	46	0	1	1	blank2r.bmp	0	1	+	0	1	blank2r.bmp	492	1	YFFY	492	1	blank2r.bmp	572	1	sterben	866	1	!	1239	1	!	-1	0	0	0	0	0	0	0	0	0	0	0	0	0	0	0	0	0	0	0	0	0	0	0	0	0	0	0	0	0	0
070919	10:03:46	10:11:25	458638	5.0.10.0	5_exp_RW	27	Rpleas_acq	CS_A	ZHHZ	LWWL	DXXD	YFFY	CPPC	JQQJ	vertrauen	küssen	genießen	sonnig	träumen	gütig	versagen	krank	gemein	sterben	töten	gierig	1	acq_USunple_CSunple1_RW	acq4567_RW	4	64	400	1	300	300	369	46	0	1	1	blank2r.bmp	0	1	+	0	1	blank2r.bmp	492	1	DXXD	492	1	blank2r.bmp	572	3	gemein	866	1	!	1239	1	!	1266	0	0	0	0	0	0	0	0	0	0	0	0	0	0	0	0	0	0	0	0	0	0	0	0	0	0	0	0	0	0
070919	10:03:46	10:11:27	460864	5.0.10.0	5_exp_RW	27	Rpleas_acq	CS_A	ZHHZ	LWWL	DXXD	YFFY	CPPC	JQQJ	vertrauen	küssen	genießen	sonnig	träumen	gütig	versagen	krank	gemein	sterben	töten	gierig	1	acq_USpleas_CSpleas2_RW	acq4567_RW	4	65	400	1	300	300	432	50	0	1	1	blank2r.bmp	0	1	+	0	1	blank2r.bmp	492	1	LWWL	492	1	blank2r.bmp	572	1	sonnig	866	1	!	1239	1	!	1332	0	0	0	0	0	0	0	0	0	0	0	0	0	0	0	0	0	0	0	0	0	0	0	0	0	0	0	0	0	0
070919	10:03:46	10:11:29	462943	5.0.10.0	5_exp_RW	27	Rpleas_acq	CS_A	ZHHZ	LWWL	DXXD	YFFY	CPPC	JQQJ	vertrauen	küssen	genießen	sonnig	träumen	gütig	versagen	krank	gemein	sterben	töten	gierig	1	acq_USunple_CSunple1_RW	acq4567_RW	4	66	400	0	300	300	298	46	0	1	1	blank2r.bmp	0	1	+	0	1	blank2r.bmp	492	1	DXXD	492	1	blank2r.bmp	572	1	versagen	866	1	!	-1	1	!	-1	0	0	0	0	0	0	0	0	0	0	0	0	0	0	0	0	0	0	0	0	0	0	0	0	0	0	0	0	0	0
070919	10:03:46	10:11:32	465155	5.0.10.0	5_exp_RW	27	Rpleas_acq	CS_A	ZHHZ	LWWL	DXXD	YFFY	CPPC	JQQJ	vertrauen	küssen	genießen	sonnig	träumen	gütig	versagen	krank	gemein	sterben	töten	gierig	1	acq_USunple_CSunple2_RW	acq4567_RW	4	67	400	1	300	300	410	50	0	0	1	blank2r.bmp	0	1	+	0	1	blank2r.bmp	492	1	YFFY	492	1	blank2r.bmp	572	3	gierig	866	1	!	1239	1	!	1306	0	0	0	0	0	0	0	0	0	0	0	0	0	0	0	0	0	0	0	0	0	0	0	0	0	0	0	0	0	0
070919	10:03:46	10:11:34	467408	5.0.10.0	5_exp_RW	27	Rpleas_acq	CS_A	ZHHZ	LWWL	DXXD	YFFY	CPPC	JQQJ	vertrauen	küssen	genießen	sonnig	träumen	gütig	versagen	krank	gemein	sterben	töten	gierig	1	acq_USunple_CSunple2_RW	acq4567_RW	4	68	400	0	300	300	479	46	0	1	1	blank2r.bmp	0	1	+	0	1	blank2r.bmp	492	1	YFFY	492	1	blank2r.bmp	572	2	töten	866	1	!	1239	1	!	-1	0	0	0	0	0	0	0	0	0	0	0	0	0	0	0	0	0	0	0	0	0	0	0	0	0	0	0	0	0	0
070919	10:03:46	10:11:36	469620	5.0.10.0	5_exp_RW	27	Rpleas_acq	CS_A	ZHHZ	LWWL	DXXD	YFFY	CPPC	JQQJ	vertrauen	küssen	genießen	sonnig	träumen	gütig	versagen	krank	gemein	sterben	töten	gierig	1	acq_USpleas_CSpleas1_RW	acq4567_RW	4	69	400	1	300	300	403	50	0	1	1	blank2r.bmp	0	1	+	0	1	blank2r.bmp	492	1	ZHHZ	492	1	blank2r.bmp	572	1	vertrauen	866	1	!	1239	1	!	1306	0	0	0	0	0	0	0	0	0	0	0	0	0	0	0	0	0	0	0	0	0	0	0	0	0	0	0	0	0	0
070919	10:03:46	10:11:38	471793	5.0.10.0	5_exp_RW	27	Rpleas_acq	CS_A	ZHHZ	LWWL	DXXD	YFFY	CPPC	JQQJ	vertrauen	küssen	genießen	sonnig	träumen	gütig	versagen	krank	gemein	sterben	töten	gierig	1	acq_USunple_CSunple1_RW	acq4567_RW	4	70	400	1	300	300	373	46	0	1	1	blank2r.bmp	0	1	+	0	1	blank2r.bmp	492	1	DXXD	492	1	blank2r.bmp	572	2	krank	866	1	!	1239	1	!	1279	0	0	0	0	0	0	0	0	0	0	0	0	0	0	0	0	0	0	0	0	0	0	0	0	0	0	0	0	0	0
070919	10:03:46	10:11:40	473872	5.0.10.0	5_exp_RW	27	Rpleas_acq	CS_A	ZHHZ	LWWL	DXXD	YFFY	CPPC	JQQJ	vertrauen	küssen	genießen	sonnig	träumen	gütig	versagen	krank	gemein	sterben	töten	gierig	1	acq_USunple_CSunple1_RW	acq4567_RW	4	71	400	0	300	300	317	46	0	1	1	blank2r.bmp	0	1	+	0	1	blank2r.bmp	492	1	DXXD	492	1	blank2r.bmp	572	1	versagen	866	1	!	-1	1	!	-1	0	0	0	0	0	0	0	0	0	0	0	0	0	0	0	0	0	0	0	0	0	0	0	0	0	0	0	0	0	0
070919	10:03:46	10:11:43	476031	5.0.10.0	5_exp_RW	27	Rpleas_acq	CS_A	ZHHZ	LWWL	DXXD	YFFY	CPPC	JQQJ	vertrauen	küssen	genießen	sonnig	träumen	gütig	versagen	krank	gemein	sterben	töten	gierig	1	acq_USpleas_CSpleas1_RW	acq4567_RW	4	72	400	1	300	300	352	50	0	1	1	blank2r.bmp	0	1	+	0	1	blank2r.bmp	492	1	ZHHZ	492	1	blank2r.bmp	572	2	küssen	866	1	!	1239	1	!	1252	0	0	0	0	0	0	0	0	0	0	0	0	0	0	0	0	0	0	0	0	0	0	0	0	0	0	0	0	0	0
070919	10:03:46	10:11:45	478070	5.0.10.0	5_exp_RW	27	Rpleas_acq	CS_A	ZHHZ	LWWL	DXXD	YFFY	CPPC	JQQJ	vertrauen	küssen	genießen	sonnig	träumen	gütig	versagen	krank	gemein	sterben	töten	gierig	1	acq_USpleas_CSpleas2_RW	acq4567_RW	4	73	400	0	300	300	276	46	0	0	1	blank2r.bmp	0	1	+	0	1	blank2r.bmp	492	1	LWWL	492	1	blank2r.bmp	572	1	sonnig	866	1	!	-1	1	!	-1	0	0	0	0	0	0	0	0	0	0	0	0	0	0	0	0	0	0	0	0	0	0	0	0	0	0	0	0	0	0
070919	10:03:46	10:11:47	480349	5.0.10.0	5_exp_RW	27	Rpleas_acq	CS_A	ZHHZ	LWWL	DXXD	YFFY	CPPC	JQQJ	vertrauen	küssen	genießen	sonnig	träumen	gütig	versagen	krank	gemein	sterben	töten	gierig	1	acq_USpleas_CSpleas1_RW	acq4567_RW	4	74	400	0	300	300	492	50	0	1	1	blank2r.bmp	0	1	+	0	1	blank2r.bmp	492	1	ZHHZ	492	1	blank2r.bmp	572	1	vertrauen	866	1	!	1239	1	!	-1	0	0	0	0	0	0	0	0	0	0	0	0	0	0	0	0	0	0	0	0	0	0	0	0	0	0	0	0	0	0
070919	10:03:46	10:11:49	482561	5.0.10.0	5_exp_RW	27	Rpleas_acq	CS_A	ZHHZ	LWWL	DXXD	YFFY	CPPC	JQQJ	vertrauen	küssen	genießen	sonnig	träumen	gütig	versagen	krank	gemein	sterben	töten	gierig	1	acq_USunple_CSunple2_RW	acq4567_RW	4	75	400	1	300	300	391	46	0	1	1	blank2r.bmp	0	1	+	0	1	blank2r.bmp	492	1	YFFY	492	1	blank2r.bmp	572	1	sterben	866	1	!	1239	1	!	1292	0	0	0	0	0	0	0	0	0	0	0	0	0	0	0	0	0	0	0	0	0	0	0	0	0	0	0	0	0	0
070919	10:03:46	10:11:51	484841	5.0.10.0	5_exp_RW	27	Rpleas_acq	CS_A	ZHHZ	LWWL	DXXD	YFFY	CPPC	JQQJ	vertrauen	küssen	genießen	sonnig	träumen	gütig	versagen	krank	gemein	sterben	töten	gierig	1	acq_USunple_CSunple1_RW	acq4567_RW	4	76	400	0	300	300	506	46	0	1	1	blank2r.bmp	0	1	+	0	1	blank2r.bmp	492	1	DXXD	492	1	blank2r.bmp	572	3	gemein	866	1	!	1239	1	!	-1	0	0	0	0	0	0	0	0	0	0	0	0	0	0	0	0	0	0	0	0	0	0	0	0	0	0	0	0	0	0
070919	10:03:46	10:11:54	487013	5.0.10.0	5_exp_RW	27	Rpleas_acq	CS_A	ZHHZ	LWWL	DXXD	YFFY	CPPC	JQQJ	vertrauen	küssen	genießen	sonnig	träumen	gütig	versagen	krank	gemein	sterben	töten	gierig	1	acq_USpleas_CSpleas1_RW	acq4567_RW	4	77	400	1	300	300	370	50	0	1	1	blank2r.bmp	0	1	+	0	1	blank2r.bmp	492	1	ZHHZ	492	1	blank2r.bmp	572	3	genießen	866	1	!	1239	1	!	1266	0	0	0	0	0	0	0	0	0	0	0	0	0	0	0	0	0	0	0	0	0	0	0	0	0	0	0	0	0	0
070919	10:03:46	10:11:56	489159	5.0.10.0	5_exp_RW	27	Rpleas_acq	CS_A	ZHHZ	LWWL	DXXD	YFFY	CPPC	JQQJ	vertrauen	küssen	genießen	sonnig	träumen	gütig	versagen	krank	gemein	sterben	töten	gierig	1	acq_USpleas_CSpleas2_RW	acq4567_RW	4	78	400	1	300	300	346	46	0	0	1	blank2r.bmp	0	1	+	0	1	blank2r.bmp	492	1	LWWL	492	1	blank2r.bmp	572	3	gütig	866	1	!	1239	1	!	1252	0	0	0	0	0	0	0	0	0	0	0	0	0	0	0	0	0	0	0	0	0	0	0	0	0	0	0	0	0	0
070919	10:03:46	10:11:58	491398	5.0.10.0	5_exp_RW	27	Rpleas_acq	CS_A	ZHHZ	LWWL	DXXD	YFFY	CPPC	JQQJ	vertrauen	küssen	genießen	sonnig	träumen	gütig	versagen	krank	gemein	sterben	töten	gierig	1	acq_USunple_CSunple2_RW	acq4567_RW	4	79	400	1	300	300	441	46	0	1	1	blank2r.bmp	0	1	+	0	1	blank2r.bmp	492	1	YFFY	492	1	blank2r.bmp	572	3	gierig	866	1	!	1239	1	!	1346	0	0	0	0	0	0	0	0	0	0	0	0	0	0	0	0	0	0	0	0	0	0	0	0	0	0	0	0	0	0
070919	10:03:46	10:12:00	493477	5.0.10.0	5_exp_RW	27	Rpleas_acq	CS_A	ZHHZ	LWWL	DXXD	YFFY	CPPC	JQQJ	vertrauen	küssen	genießen	sonnig	träumen	gütig	versagen	krank	gemein	sterben	töten	gierig	1	acq_USpleas_CSpleas2_RW	acq4567_RW	4	80	400	0	300	300	307	46	0	0	1	blank2r.bmp	0	1	+	0	1	blank2r.bmp	492	1	LWWL	492	1	blank2r.bmp	572	2	träumen	866	1	!	-1	1	!	-1	0	0	0	0	0	0	0	0	0	0	0	0	0	0	0	0	0	0	0	0	0	0	0	0	0	0	0	0	0	0
070919	10:03:46	10:12:26	519280	5.0.10.0	5_exp_RW	27	Rpleas_acq	CS_A	ZHHZ	LWWL	DXXD	YFFY	CPPC	JQQJ	vertrauen	küssen	genießen	sonnig	träumen	gütig	versagen	krank	gemein	sterben	töten	gierig	1	acq_USunple_CSunple1_RW	acq4567_RW	5	1	400	0	300	300	479	46	0	1	1	blank2r.bmp	0	1	+	0	1	blank2r.bmp	492	1	DXXD	492	1	blank2r.bmp	572	1	versagen	866	1	!	1239	1	!	-1	0	0	0	0	0	0	0	0	0	0	0	0	0	0	0	0	0	0	0	0	0	0	0	0	0	0	0	0	0	0
070919	10:03:46	10:12:28	521506	5.0.10.0	5_exp_RW	27	Rpleas_acq	CS_A	ZHHZ	LWWL	DXXD	YFFY	CPPC	JQQJ	vertrauen	küssen	genießen	sonnig	träumen	gütig	versagen	krank	gemein	sterben	töten	gierig	1	acq_USpleas_CSpleas2_RW	acq4567_RW	5	2	400	1	300	300	413	50	0	1	1	blank2r.bmp	0	1	+	0	1	blank2r.bmp	492	1	LWWL	492	1	blank2r.bmp	572	1	sonnig	866	1	!	1239	1	!	1319	0	0	0	0	0	0	0	0	0	0	0	0	0	0	0	0	0	0	0	0	0	0	0	0	0	0	0	0	0	0
070919	10:03:46	10:12:30	523571	5.0.10.0	5_exp_RW	27	Rpleas_acq	CS_A	ZHHZ	LWWL	DXXD	YFFY	CPPC	JQQJ	vertrauen	küssen	genießen	sonnig	träumen	gütig	versagen	krank	gemein	sterben	töten	gierig	1	acq_USpleas_CSpleas1_RW	acq4567_RW	5	3	400	0	300	300	301	50	0	1	1	blank2r.bmp	0	1	+	0	1	blank2r.bmp	492	1	ZHHZ	492	1	blank2r.bmp	572	1	vertrauen	866	1	!	-1	1	!	-1	0	0	0	0	0	0	0	0	0	0	0	0	0	0	0	0	0	0	0	0	0	0	0	0	0	0	0	0	0	0
070919	10:03:46	10:12:32	525810	5.0.10.0	5_exp_RW	27	Rpleas_acq	CS_A	ZHHZ	LWWL	DXXD	YFFY	CPPC	JQQJ	vertrauen	küssen	genießen	sonnig	träumen	gütig	versagen	krank	gemein	sterben	töten	gierig	1	acq_USunple_CSunple2_RW	acq4567_RW	5	4	400	1	300	300	434	46	0	1	1	blank2r.bmp	0	1	+	0	1	blank2r.bmp	492	1	YFFY	492	1	blank2r.bmp	572	1	sterben	866	1	!	1239	1	!	1332	0	0	0	0	0	0	0	0	0	0	0	0	0	0	0	0	0	0	0	0	0	0	0	0	0	0	0	0	0	0
070919	10:03:46	10:12:34	527970	5.0.10.0	5_exp_RW	27	Rpleas_acq	CS_A	ZHHZ	LWWL	DXXD	YFFY	CPPC	JQQJ	vertrauen	küssen	genießen	sonnig	träumen	gütig	versagen	krank	gemein	sterben	töten	gierig	1	acq_USpleas_CSpleas1_RW	acq4567_RW	5	5	400	1	300	300	361	46	0	0	1	blank2r.bmp	0	1	+	0	1	blank2r.bmp	492	1	ZHHZ	492	1	blank2r.bmp	572	2	küssen	866	1	!	1239	1	!	1266	0	0	0	0	0	0	0	0	0	0	0	0	0	0	0	0	0	0	0	0	0	0	0	0	0	0	0	0	0	0
070919	10:03:46	10:12:37	530542	5.0.10.0	5_exp_RW	27	Rpleas_acq	CS_A	ZHHZ	LWWL	DXXD	YFFY	CPPC	JQQJ	vertrauen	küssen	genießen	sonnig	träumen	gütig	versagen	krank	gemein	sterben	töten	gierig	1	acq_USunple_CSunple2_RW	acq4567_RW	5	6	400	0	300	300	806	46	0	1	1	blank2r.bmp	0	1	+	0	1	blank2r.bmp	492	1	YFFY	492	1	blank2r.bmp	572	3	gierig	866	1	!	1239	1	!	-1	0	0	0	0	0	0	0	0	0	0	0	0	0	0	0	0	0	0	0	0	0	0	0	0	0	0	0	0	0	0
070919	10:03:46	10:12:39	532701	5.0.10.0	5_exp_RW	27	Rpleas_acq	CS_A	ZHHZ	LWWL	DXXD	YFFY	CPPC	JQQJ	vertrauen	küssen	genießen	sonnig	träumen	gütig	versagen	krank	gemein	sterben	töten	gierig	1	acq_USunple_CSunple1_RW	acq4567_RW	5	7	400	1	300	300	346	46	0	1	1	blank2r.bmp	0	1	+	0	1	blank2r.bmp	492	1	DXXD	492	1	blank2r.bmp	572	2	krank	866	1	!	1239	1	!	1252	0	0	0	0	0	0	0	0	0	0	0	0	0	0	0	0	0	0	0	0	0	0	0	0	0	0	0	0	0	0
070919	10:03:46	10:12:41	534873	5.0.10.0	5_exp_RW	27	Rpleas_acq	CS_A	ZHHZ	LWWL	DXXD	YFFY	CPPC	JQQJ	vertrauen	küssen	genießen	sonnig	träumen	gütig	versagen	krank	gemein	sterben	töten	gierig	1	acq_USpleas_CSpleas1_RW	acq4567_RW	5	8	400	1	300	300	361	46	0	0	1	blank2r.bmp	0	1	+	0	1	blank2r.bmp	492	1	ZHHZ	492	1	blank2r.bmp	572	3	genießen	866	1	!	1239	1	!	1266	0	0	0	0	0	0	0	0	0	0	0	0	0	0	0	0	0	0	0	0	0	0	0	0	0	0	0	0	0	0
070919	10:03:46	10:12:43	536966	5.0.10.0	5_exp_RW	27	Rpleas_acq	CS_A	ZHHZ	LWWL	DXXD	YFFY	CPPC	JQQJ	vertrauen	küssen	genießen	sonnig	träumen	gütig	versagen	krank	gemein	sterben	töten	gierig	1	acq_USunple_CSunple1_RW	acq4567_RW	5	9	400	0	300	300	321	50	0	0	1	blank2r.bmp	0	1	+	0	1	blank2r.bmp	492	1	DXXD	492	1	blank2r.bmp	572	3	gemein	866	1	!	-1	1	!	-1	0	0	0	0	0	0	0	0	0	0	0	0	0	0	0	0	0	0	0	0	0	0	0	0	0	0	0	0	0	0
070919	10:03:46	10:12:46	539285	5.0.10.0	5_exp_RW	27	Rpleas_acq	CS_A	ZHHZ	LWWL	DXXD	YFFY	CPPC	JQQJ	vertrauen	küssen	genießen	sonnig	träumen	gütig	versagen	krank	gemein	sterben	töten	gierig	1	acq_USunple_CSunple1_RW	acq4567_RW	5	10	400	0	300	300	541	46	0	1	1	blank2r.bmp	0	1	+	0	1	blank2r.bmp	492	1	DXXD	492	1	blank2r.bmp	572	3	gemein	866	1	!	1239	1	!	-1	0	0	0	0	0	0	0	0	0	0	0	0	0	0	0	0	0	0	0	0	0	0	0	0	0	0	0	0	0	0
070919	10:03:46	10:12:48	541551	5.0.10.0	5_exp_RW	27	Rpleas_acq	CS_A	ZHHZ	LWWL	DXXD	YFFY	CPPC	JQQJ	vertrauen	küssen	genießen	sonnig	träumen	gütig	versagen	krank	gemein	sterben	töten	gierig	1	acq_USpleas_CSpleas2_RW	acq4567_RW	5	11	400	0	300	300	479	50	0	1	1	blank2r.bmp	0	1	+	0	1	blank2r.bmp	492	1	LWWL	492	1	blank2r.bmp	572	3	gütig	866	1	!	1239	1	!	-1	0	0	0	0	0	0	0	0	0	0	0	0	0	0	0	0	0	0	0	0	0	0	0	0	0	0	0	0	0	0
070919	10:03:46	10:12:51	544270	5.0.10.0	5_exp_RW	27	Rpleas_acq	CS_A	ZHHZ	LWWL	DXXD	YFFY	CPPC	JQQJ	vertrauen	küssen	genießen	sonnig	träumen	gütig	versagen	krank	gemein	sterben	töten	gierig	1	acq_USunple_CSunple2_RW	acq4567_RW	5	12	400	0	300	300	935	46	0	1	1	blank2r.bmp	0	1	+	0	1	blank2r.bmp	492	1	YFFY	492	1	blank2r.bmp	572	2	töten	866	1	!	1239	1	!	-1	0	0	0	0	0	0	0	0	0	0	0	0	0	0	0	0	0	0	0	0	0	0	0	0	0	0	0	0	0	0
070919	10:03:46	10:12:53	546535	5.0.10.0	5_exp_RW	27	Rpleas_acq	CS_A	ZHHZ	LWWL	DXXD	YFFY	CPPC	JQQJ	vertrauen	küssen	genießen	sonnig	träumen	gütig	versagen	krank	gemein	sterben	töten	gierig	1	acq_USpleas_CSpleas2_RW	acq4567_RW	5	13	400	0	300	300	479	50	0	1	1	blank2r.bmp	0	1	+	0	1	blank2r.bmp	492	1	LWWL	492	1	blank2r.bmp	572	2	träumen	866	1	!	1239	1	!	-1	0	0	0	0	0	0	0	0	0	0	0	0	0	0	0	0	0	0	0	0	0	0	0	0	0	0	0	0	0	0
070919	10:03:46	10:12:55	548801	5.0.10.0	5_exp_RW	27	Rpleas_acq	CS_A	ZHHZ	LWWL	DXXD	YFFY	CPPC	JQQJ	vertrauen	küssen	genießen	sonnig	träumen	gütig	versagen	krank	gemein	sterben	töten	gierig	1	acq_USpleas_CSpleas1_RW	acq4567_RW	5	14	400	0	300	300	479	50	0	1	1	blank2r.bmp	0	1	+	0	1	blank2r.bmp	492	1	ZHHZ	492	1	blank2r.bmp	572	3	genießen	866	1	!	1239	1	!	-1	0	0	0	0	0	0	0	0	0	0	0	0	0	0	0	0	0	0	0	0	0	0	0	0	0	0	0	0	0	0
070919	10:03:46	10:12:58	550973	5.0.10.0	5_exp_RW	27	Rpleas_acq	CS_A	ZHHZ	LWWL	DXXD	YFFY	CPPC	JQQJ	vertrauen	küssen	genießen	sonnig	träumen	gütig	versagen	krank	gemein	sterben	töten	gierig	1	acq_USpleas_CSpleas2_RW	acq4567_RW	5	15	400	1	300	300	370	50	0	1	1	blank2r.bmp	0	1	+	0	1	blank2r.bmp	492	1	LWWL	492	1	blank2r.bmp	572	1	sonnig	866	1	!	1239	1	!	1266	0	0	0	0	0	0	0	0	0	0	0	0	0	0	0	0	0	0	0	0	0	0	0	0	0	0	0	0	0	0
070919	10:03:46	10:13:00	553133	5.0.10.0	5_exp_RW	27	Rpleas_acq	CS_A	ZHHZ	LWWL	DXXD	YFFY	CPPC	JQQJ	vertrauen	küssen	genießen	sonnig	träumen	gütig	versagen	krank	gemein	sterben	töten	gierig	1	acq_USpleas_CSpleas1_RW	acq4567_RW	5	16	400	1	300	300	364	50	0	1	1	blank2r.bmp	0	1	+	0	1	blank2r.bmp	492	1	ZHHZ	492	1	blank2r.bmp	572	1	vertrauen	866	1	!	1239	1	!	1266	0	0	0	0	0	0	0	0	0	0	0	0	0	0	0	0	0	0	0	0	0	0	0	0	0	0	0	0	0	0
070919	10:03:46	10:13:02	555238	5.0.10.0	5_exp_RW	27	Rpleas_acq	CS_A	ZHHZ	LWWL	DXXD	YFFY	CPPC	JQQJ	vertrauen	küssen	genießen	sonnig	träumen	gütig	versagen	krank	gemein	sterben	töten	gierig	1	acq_USpleas_CSpleas2_RW	acq4567_RW	5	17	400	0	300	300	333	50	0	1	1	blank2r.bmp	0	1	+	0	1	blank2r.bmp	492	1	LWWL	492	1	blank2r.bmp	572	2	träumen	866	1	!	-1	1	!	-1	0	0	0	0	0	0	0	0	0	0	0	0	0	0	0	0	0	0	0	0	0	0	0	0	0	0	0	0	0	0
070919	10:03:46	10:13:04	557491	5.0.10.0	5_exp_RW	27	Rpleas_acq	CS_A	ZHHZ	LWWL	DXXD	YFFY	CPPC	JQQJ	vertrauen	küssen	genießen	sonnig	träumen	gütig	versagen	krank	gemein	sterben	töten	gierig	1	acq_USunple_CSunple1_RW	acq4567_RW	5	18	400	1	300	300	448	46	0	1	1	blank2r.bmp	0	1	+	0	1	blank2r.bmp	492	1	DXXD	492	1	blank2r.bmp	572	2	krank	866	1	!	1239	1	!	1346	0	0	0	0	0	0	0	0	0	0	0	0	0	0	0	0	0	0	0	0	0	0	0	0	0	0	0	0	0	0
070919	10:03:46	10:13:06	559597	5.0.10.0	5_exp_RW	27	Rpleas_acq	CS_A	ZHHZ	LWWL	DXXD	YFFY	CPPC	JQQJ	vertrauen	küssen	genießen	sonnig	träumen	gütig	versagen	krank	gemein	sterben	töten	gierig	1	acq_USunple_CSunple2_RW	acq4567_RW	5	19	400	0	300	300	331	46	0	1	1	blank2r.bmp	0	1	+	0	1	blank2r.bmp	492	1	YFFY	492	1	blank2r.bmp	572	1	sterben	866	1	!	-1	1	!	-1	0	0	0	0	0	0	0	0	0	0	0	0	0	0	0	0	0	0	0	0	0	0	0	0	0	0	0	0	0	0
070919	10:03:46	10:13:08	561636	5.0.10.0	5_exp_RW	27	Rpleas_acq	CS_A	ZHHZ	LWWL	DXXD	YFFY	CPPC	JQQJ	vertrauen	küssen	genießen	sonnig	träumen	gütig	versagen	krank	gemein	sterben	töten	gierig	1	acq_USunple_CSunple2_RW	acq4567_RW	5	20	400	0	300	300	255	46	0	1	1	blank2r.bmp	0	1	+	0	1	blank2r.bmp	492	1	YFFY	492	1	blank2r.bmp	572	3	gierig	866	1	!	-1	1	!	-1	0	0	0	0	0	0	0	0	0	0	0	0	0	0	0	0	0	0	0	0	0	0	0	0	0	0	0	0	0	0
070919	10:03:46	10:13:11	564021	5.0.10.0	5_exp_RW	27	Rpleas_acq	CS_A	ZHHZ	LWWL	DXXD	YFFY	CPPC	JQQJ	vertrauen	küssen	genießen	sonnig	träumen	gütig	versagen	krank	gemein	sterben	töten	gierig	1	acq_USpleas_CSpleas1_RW	acq4567_RW	5	21	400	0	300	300	600	50	0	1	1	blank2r.bmp	0	1	+	0	1	blank2r.bmp	492	1	ZHHZ	492	1	blank2r.bmp	572	2	küssen	866	1	!	1239	1	!	-1	0	0	0	0	0	0	0	0	0	0	0	0	0	0	0	0	0	0	0	0	0	0	0	0	0	0	0	0	0	0
070919	10:03:46	10:13:13	566314	5.0.10.0	5_exp_RW	27	Rpleas_acq	CS_A	ZHHZ	LWWL	DXXD	YFFY	CPPC	JQQJ	vertrauen	küssen	genießen	sonnig	träumen	gütig	versagen	krank	gemein	sterben	töten	gierig	1	acq_USunple_CSunple1_RW	acq4567_RW	5	22	400	0	300	300	508	46	0	1	1	blank2r.bmp	0	1	+	0	1	blank2r.bmp	492	1	DXXD	492	1	blank2r.bmp	572	1	versagen	866	1	!	1239	1	!	-1	0	0	0	0	0	0	0	0	0	0	0	0	0	0	0	0	0	0	0	0	0	0	0	0	0	0	0	0	0	0
070919	10:03:46	10:13:15	568686	5.0.10.0	5_exp_RW	27	Rpleas_acq	CS_A	ZHHZ	LWWL	DXXD	YFFY	CPPC	JQQJ	vertrauen	küssen	genießen	sonnig	träumen	gütig	versagen	krank	gemein	sterben	töten	gierig	1	acq_USunple_CSunple1_RW	acq4567_RW	5	23	400	0	300	300	593	46	0	1	1	blank2r.bmp	0	1	+	0	1	blank2r.bmp	492	1	DXXD	492	1	blank2r.bmp	572	2	krank	866	1	!	1239	1	!	-1	0	0	0	0	0	0	0	0	0	0	0	0	0	0	0	0	0	0	0	0	0	0	0	0	0	0	0	0	0	0
070919	10:03:46	10:13:17	570845	5.0.10.0	5_exp_RW	27	Rpleas_acq	CS_A	ZHHZ	LWWL	DXXD	YFFY	CPPC	JQQJ	vertrauen	küssen	genießen	sonnig	träumen	gütig	versagen	krank	gemein	sterben	töten	gierig	1	acq_USunple_CSunple2_RW	acq4567_RW	5	24	400	1	300	300	354	46	0	1	1	blank2r.bmp	0	1	+	0	1	blank2r.bmp	492	1	YFFY	492	1	blank2r.bmp	572	2	töten	866	1	!	1239	1	!	1252	0	0	0	0	0	0	0	0	0	0	0	0	0	0	0	0	0	0	0	0	0	0	0	0	0	0	0	0	0	0
070919	10:03:46	10:13:19	572898	5.0.10.0	5_exp_RW	27	Rpleas_acq	CS_A	ZHHZ	LWWL	DXXD	YFFY	CPPC	JQQJ	vertrauen	küssen	genießen	sonnig	träumen	gütig	versagen	krank	gemein	sterben	töten	gierig	1	acq_USpleas_CSpleas2_RW	acq4567_RW	5	25	400	0	300	300	291	46	0	0	1	blank2r.bmp	0	1	+	0	1	blank2r.bmp	492	1	LWWL	492	1	blank2r.bmp	572	3	gütig	866	1	!	-1	1	!	-1	0	0	0	0	0	0	0	0	0	0	0	0	0	0	0	0	0	0	0	0	0	0	0	0	0	0	0	0	0	0
070919	10:03:46	10:13:22	575084	5.0.10.0	5_exp_RW	27	Rpleas_acq	CS_A	ZHHZ	LWWL	DXXD	YFFY	CPPC	JQQJ	vertrauen	küssen	genießen	sonnig	träumen	gütig	versagen	krank	gemein	sterben	töten	gierig	1	acq_USpleas_CSpleas1_RW	acq4567_RW	5	26	400	1	300	300	384	50	0	1	1	blank2r.bmp	0	1	+	0	1	blank2r.bmp	492	1	ZHHZ	492	1	blank2r.bmp	572	1	vertrauen	866	1	!	1239	1	!	1279	0	0	0	0	0	0	0	0	0	0	0	0	0	0	0	0	0	0	0	0	0	0	0	0	0	0	0	0	0	0
070919	10:03:46	10:13:24	577269	5.0.10.0	5_exp_RW	27	Rpleas_acq	CS_A	ZHHZ	LWWL	DXXD	YFFY	CPPC	JQQJ	vertrauen	küssen	genießen	sonnig	träumen	gütig	versagen	krank	gemein	sterben	töten	gierig	1	acq_USunple_CSunple2_RW	acq4567_RW	5	27	400	1	300	300	393	46	0	1	1	blank2r.bmp	0	1	+	0	1	blank2r.bmp	492	1	YFFY	492	1	blank2r.bmp	572	2	töten	866	1	!	1239	1	!	1292	0	0	0	0	0	0	0	0	0	0	0	0	0	0	0	0	0	0	0	0	0	0	0	0	0	0	0	0	0	0
070919	10:03:46	10:13:26	579535	5.0.10.0	5_exp_RW	27	Rpleas_acq	CS_A	ZHHZ	LWWL	DXXD	YFFY	CPPC	JQQJ	vertrauen	küssen	genießen	sonnig	träumen	gütig	versagen	krank	gemein	sterben	töten	gierig	1	acq_USunple_CSunple1_RW	acq4567_RW	5	28	400	1	300	300	454	46	0	1	1	blank2r.bmp	0	1	+	0	1	blank2r.bmp	492	1	DXXD	492	1	blank2r.bmp	572	1	versagen	866	1	!	1239	1	!	1359	0	0	0	0	0	0	0	0	0	0	0	0	0	0	0	0	0	0	0	0	0	0	0	0	0	0	0	0	0	0
070919	10:03:46	10:13:28	581788	5.0.10.0	5_exp_RW	27	Rpleas_acq	CS_A	ZHHZ	LWWL	DXXD	YFFY	CPPC	JQQJ	vertrauen	küssen	genießen	sonnig	träumen	gütig	versagen	krank	gemein	sterben	töten	gierig	1	acq_USpleas_CSpleas2_RW	acq4567_RW	5	29	400	0	300	300	486	50	0	1	1	blank2r.bmp	0	1	+	0	1	blank2r.bmp	492	1	LWWL	492	1	blank2r.bmp	572	1	sonnig	866	1	!	1239	1	!	-1	0	0	0	0	0	0	0	0	0	0	0	0	0	0	0	0	0	0	0	0	0	0	0	0	0	0	0	0	0	0
070919	10:03:46	10:13:30	583947	5.0.10.0	5_exp_RW	27	Rpleas_acq	CS_A	ZHHZ	LWWL	DXXD	YFFY	CPPC	JQQJ	vertrauen	küssen	genießen	sonnig	träumen	gütig	versagen	krank	gemein	sterben	töten	gierig	1	acq_USunple_CSunple1_RW	acq4567_RW	5	30	400	1	300	300	349	46	0	1	1	blank2r.bmp	0	1	+	0	1	blank2r.bmp	492	1	DXXD	492	1	blank2r.bmp	572	3	gemein	866	1	!	1239	1	!	1252	0	0	0	0	0	0	0	0	0	0	0	0	0	0	0	0	0	0	0	0	0	0	0	0	0	0	0	0	0	0
070919	10:03:46	10:13:33	586199	5.0.10.0	5_exp_RW	27	Rpleas_acq	CS_A	ZHHZ	LWWL	DXXD	YFFY	CPPC	JQQJ	vertrauen	küssen	genießen	sonnig	träumen	gütig	versagen	krank	gemein	sterben	töten	gierig	1	acq_USunple_CSunple2_RW	acq4567_RW	5	31	400	1	300	300	447	46	0	1	1	blank2r.bmp	0	1	+	0	1	blank2r.bmp	492	1	YFFY	492	1	blank2r.bmp	572	1	sterben	866	1	!	1239	1	!	1346	0	0	0	0	0	0	0	0	0	0	0	0	0	0	0	0	0	0	0	0	0	0	0	0	0	0	0	0	0	0
070919	10:03:46	10:13:35	588345	5.0.10.0	5_exp_RW	27	Rpleas_acq	CS_A	ZHHZ	LWWL	DXXD	YFFY	CPPC	JQQJ	vertrauen	küssen	genießen	sonnig	träumen	gütig	versagen	krank	gemein	sterben	töten	gierig	1	acq_USunple_CSunple2_RW	acq4567_RW	5	32	400	1	300	300	352	46	0	1	1	blank2r.bmp	0	1	+	0	1	blank2r.bmp	492	1	YFFY	492	1	blank2r.bmp	572	3	gierig	866	1	!	1239	1	!	1252	0	0	0	0	0	0	0	0	0	0	0	0	0	0	0	0	0	0	0	0	0	0	0	0	0	0	0	0	0	0
070919	10:03:46	10:13:37	590517	5.0.10.0	5_exp_RW	27	Rpleas_acq	CS_A	ZHHZ	LWWL	DXXD	YFFY	CPPC	JQQJ	vertrauen	küssen	genießen	sonnig	träumen	gütig	versagen	krank	gemein	sterben	töten	gierig	1	acq_USpleas_CSpleas1_RW	acq4567_RW	5	33	400	1	300	300	385	50	0	1	1	blank2r.bmp	0	1	+	0	1	blank2r.bmp	492	1	ZHHZ	492	1	blank2r.bmp	572	2	küssen	866	1	!	1239	1	!	1279	0	0	0	0	0	0	0	0	0	0	0	0	0	0	0	0	0	0	0	0	0	0	0	0	0	0	0	0	0	0
070919	10:03:46	10:13:39	592570	5.0.10.0	5_exp_RW	27	Rpleas_acq	CS_A	ZHHZ	LWWL	DXXD	YFFY	CPPC	JQQJ	vertrauen	küssen	genießen	sonnig	träumen	gütig	versagen	krank	gemein	sterben	töten	gierig	1	acq_USunple_CSunple2_RW	acq4567_RW	5	34	400	0	300	300	279	46	0	1	1	blank2r.bmp	0	1	+	0	1	blank2r.bmp	492	1	YFFY	492	1	blank2r.bmp	572	1	sterben	866	1	!	-1	1	!	-1	0	0	0	0	0	0	0	0	0	0	0	0	0	0	0	0	0	0	0	0	0	0	0	0	0	0	0	0	0	0
070919	10:03:46	10:13:41	594929	5.0.10.0	5_exp_RW	27	Rpleas_acq	CS_A	ZHHZ	LWWL	DXXD	YFFY	CPPC	JQQJ	vertrauen	küssen	genießen	sonnig	träumen	gütig	versagen	krank	gemein	sterben	töten	gierig	1	acq_USpleas_CSpleas1_RW	acq4567_RW	5	35	400	0	300	300	580	50	0	1	1	blank2r.bmp	0	1	+	0	1	blank2r.bmp	492	1	ZHHZ	492	1	blank2r.bmp	572	3	genießen	866	1	!	1239	1	!	-1	0	0	0	0	0	0	0	0	0	0	0	0	0	0	0	0	0	0	0	0	0	0	0	0	0	0	0	0	0	0
070919	10:03:46	10:13:44	597101	5.0.10.0	5_exp_RW	27	Rpleas_acq	CS_A	ZHHZ	LWWL	DXXD	YFFY	CPPC	JQQJ	vertrauen	küssen	genießen	sonnig	träumen	gütig	versagen	krank	gemein	sterben	töten	gierig	1	acq_USpleas_CSpleas1_RW	acq4567_RW	5	36	400	1	300	300	366	50	0	1	1	blank2r.bmp	0	1	+	0	1	blank2r.bmp	492	1	ZHHZ	492	1	blank2r.bmp	572	3	genießen	866	1	!	1239	1	!	1266	0	0	0	0	0	0	0	0	0	0	0	0	0	0	0	0	0	0	0	0	0	0	0	0	0	0	0	0	0	0
070919	10:03:46	10:13:46	599247	5.0.10.0	5_exp_RW	27	Rpleas_acq	CS_A	ZHHZ	LWWL	DXXD	YFFY	CPPC	JQQJ	vertrauen	küssen	genießen	sonnig	träumen	gütig	versagen	krank	gemein	sterben	töten	gierig	1	acq_USpleas_CSpleas2_RW	acq4567_RW	5	37	400	1	300	300	346	50	0	1	1	blank2r.bmp	0	1	+	0	1	blank2r.bmp	492	1	LWWL	492	1	blank2r.bmp	572	2	träumen	866	1	!	1239	1	!	1252	0	0	0	0	0	0	0	0	0	0	0	0	0	0	0	0	0	0	0	0	0	0	0	0	0	0	0	0	0	0
070919	10:03:46	10:13:48	601459	5.0.10.0	5_exp_RW	27	Rpleas_acq	CS_A	ZHHZ	LWWL	DXXD	YFFY	CPPC	JQQJ	vertrauen	küssen	genießen	sonnig	träumen	gütig	versagen	krank	gemein	sterben	töten	gierig	1	acq_USpleas_CSpleas2_RW	acq4567_RW	5	38	400	1	300	300	413	50	0	1	1	blank2r.bmp	0	1	+	0	1	blank2r.bmp	492	1	LWWL	492	1	blank2r.bmp	572	3	gütig	866	1	!	1239	1	!	1319	0	0	0	0	0	0	0	0	0	0	0	0	0	0	0	0	0	0	0	0	0	0	0	0	0	0	0	0	0	0
070919	10:03:46	10:13:50	603792	5.0.10.0	5_exp_RW	27	Rpleas_acq	CS_A	ZHHZ	LWWL	DXXD	YFFY	CPPC	JQQJ	vertrauen	küssen	genießen	sonnig	träumen	gütig	versagen	krank	gemein	sterben	töten	gierig	1	acq_USunple_CSunple1_RW	acq4567_RW	5	39	400	0	300	300	562	46	0	1	1	blank2r.bmp	0	1	+	0	1	blank2r.bmp	492	1	DXXD	492	1	blank2r.bmp	572	1	versagen	866	1	!	1239	1	!	-1	0	0	0	0	0	0	0	0	0	0	0	0	0	0	0	0	0	0	0	0	0	0	0	0	0	0	0	0	0	0
070919	10:03:46	10:13:52	605831	5.0.10.0	5_exp_RW	27	Rpleas_acq	CS_A	ZHHZ	LWWL	DXXD	YFFY	CPPC	JQQJ	vertrauen	küssen	genießen	sonnig	träumen	gütig	versagen	krank	gemein	sterben	töten	gierig	1	acq_USpleas_CSpleas2_RW	acq4567_RW	5	40	400	0	300	300	245	46	0	0	1	blank2r.bmp	0	1	+	0	1	blank2r.bmp	492	1	LWWL	492	1	blank2r.bmp	572	2	träumen	866	1	!	-1	1	!	-1	0	0	0	0	0	0	0	0	0	0	0	0	0	0	0	0	0	0	0	0	0	0	0	0	0	0	0	0	0	0
070919	10:03:46	10:13:54	607923	5.0.10.0	5_exp_RW	27	Rpleas_acq	CS_A	ZHHZ	LWWL	DXXD	YFFY	CPPC	JQQJ	vertrauen	küssen	genießen	sonnig	träumen	gütig	versagen	krank	gemein	sterben	töten	gierig	1	acq_USpleas_CSpleas2_RW	acq4567_RW	5	41	400	0	300	300	311	46	0	0	1	blank2r.bmp	0	1	+	0	1	blank2r.bmp	492	1	LWWL	492	1	blank2r.bmp	572	3	gütig	866	1	!	-1	1	!	-1	0	0	0	0	0	0	0	0	0	0	0	0	0	0	0	0	0	0	0	0	0	0	0	0	0	0	0	0	0	0
070919	10:03:46	10:13:57	610096	5.0.10.0	5_exp_RW	27	Rpleas_acq	CS_A	ZHHZ	LWWL	DXXD	YFFY	CPPC	JQQJ	vertrauen	küssen	genießen	sonnig	träumen	gütig	versagen	krank	gemein	sterben	töten	gierig	1	acq_USunple_CSunple1_RW	acq4567_RW	5	42	400	1	300	300	365	46	0	1	1	blank2r.bmp	0	1	+	0	1	blank2r.bmp	492	1	DXXD	492	1	blank2r.bmp	572	3	gemein	866	1	!	1239	1	!	1266	0	0	0	0	0	0	0	0	0	0	0	0	0	0	0	0	0	0	0	0	0	0	0	0	0	0	0	0	0	0
070919	10:03:46	10:13:59	612282	5.0.10.0	5_exp_RW	27	Rpleas_acq	CS_A	ZHHZ	LWWL	DXXD	YFFY	CPPC	JQQJ	vertrauen	küssen	genießen	sonnig	träumen	gütig	versagen	krank	gemein	sterben	töten	gierig	1	acq_USunple_CSunple2_RW	acq4567_RW	5	43	400	1	300	300	386	46	0	1	1	blank2r.bmp	0	1	+	0	1	blank2r.bmp	492	1	YFFY	492	1	blank2r.bmp	572	2	töten	866	1	!	1239	1	!	1292	0	0	0	0	0	0	0	0	0	0	0	0	0	0	0	0	0	0	0	0	0	0	0	0	0	0	0	0	0	0
070919	10:03:46	10:14:01	614481	5.0.10.0	5_exp_RW	27	Rpleas_acq	CS_A	ZHHZ	LWWL	DXXD	YFFY	CPPC	JQQJ	vertrauen	küssen	genießen	sonnig	träumen	gütig	versagen	krank	gemein	sterben	töten	gierig	1	acq_USunple_CSunple2_RW	acq4567_RW	5	44	400	1	300	300	407	46	0	1	1	blank2r.bmp	0	1	+	0	1	blank2r.bmp	492	1	YFFY	492	1	blank2r.bmp	572	3	gierig	866	1	!	1239	1	!	1306	0	0	0	0	0	0	0	0	0	0	0	0	0	0	0	0	0	0	0	0	0	0	0	0	0	0	0	0	0	0
070919	10:03:46	10:14:03	616653	5.0.10.0	5_exp_RW	27	Rpleas_acq	CS_A	ZHHZ	LWWL	DXXD	YFFY	CPPC	JQQJ	vertrauen	küssen	genießen	sonnig	träumen	gütig	versagen	krank	gemein	sterben	töten	gierig	1	acq_USpleas_CSpleas2_RW	acq4567_RW	5	45	400	1	300	300	379	50	0	1	1	blank2r.bmp	0	1	+	0	1	blank2r.bmp	492	1	LWWL	492	1	blank2r.bmp	572	1	sonnig	866	1	!	1239	1	!	1279	0	0	0	0	0	0	0	0	0	0	0	0	0	0	0	0	0	0	0	0	0	0	0	0	0	0	0	0	0	0
070919	10:03:46	10:14:05	618826	5.0.10.0	5_exp_RW	27	Rpleas_acq	CS_A	ZHHZ	LWWL	DXXD	YFFY	CPPC	JQQJ	vertrauen	küssen	genießen	sonnig	träumen	gütig	versagen	krank	gemein	sterben	töten	gierig	1	acq_USpleas_CSpleas2_RW	acq4567_RW	5	46	400	1	300	300	385	50	0	1	1	blank2r.bmp	0	1	+	0	1	blank2r.bmp	492	1	LWWL	492	1	blank2r.bmp	572	3	gütig	866	1	!	1239	1	!	1279	0	0	0	0	0	0	0	0	0	0	0	0	0	0	0	0	0	0	0	0	0	0	0	0	0	0	0	0	0	0
070919	10:03:46	10:14:08	620971	5.0.10.0	5_exp_RW	27	Rpleas_acq	CS_A	ZHHZ	LWWL	DXXD	YFFY	CPPC	JQQJ	vertrauen	küssen	genießen	sonnig	träumen	gütig	versagen	krank	gemein	sterben	töten	gierig	1	acq_USpleas_CSpleas1_RW	acq4567_RW	5	47	400	1	300	300	349	50	0	1	1	blank2r.bmp	0	1	+	0	1	blank2r.bmp	492	1	ZHHZ	492	1	blank2r.bmp	572	2	küssen	866	1	!	1239	1	!	1252	0	0	0	0	0	0	0	0	0	0	0	0	0	0	0	0	0	0	0	0	0	0	0	0	0	0	0	0	0	0
070919	10:03:46	10:14:10	623264	5.0.10.0	5_exp_RW	27	Rpleas_acq	CS_A	ZHHZ	LWWL	DXXD	YFFY	CPPC	JQQJ	vertrauen	küssen	genießen	sonnig	träumen	gütig	versagen	krank	gemein	sterben	töten	gierig	1	acq_USunple_CSunple2_RW	acq4567_RW	5	48	400	0	300	300	521	46	0	1	1	blank2r.bmp	0	1	+	0	1	blank2r.bmp	492	1	YFFY	492	1	blank2r.bmp	572	3	gierig	866	1	!	1239	1	!	-1	0	0	0	0	0	0	0	0	0	0	0	0	0	0	0	0	0	0	0	0	0	0	0	0	0	0	0	0	0	0
070919	10:03:46	10:14:12	625969	5.0.10.0	5_exp_RW	27	Rpleas_acq	CS_A	ZHHZ	LWWL	DXXD	YFFY	CPPC	JQQJ	vertrauen	küssen	genießen	sonnig	träumen	gütig	versagen	krank	gemein	sterben	töten	gierig	1	acq_USpleas_CSpleas1_RW	acq4567_RW	5	49	400	0	300	300	927	50	0	1	1	blank2r.bmp	0	1	+	0	1	blank2r.bmp	492	1	ZHHZ	492	1	blank2r.bmp	572	1	vertrauen	866	1	!	1239	1	!	-1	0	0	0	0	0	0	0	0	0	0	0	0	0	0	0	0	0	0	0	0	0	0	0	0	0	0	0	0	0	0
070919	10:03:46	10:14:15	628089	5.0.10.0	5_exp_RW	27	Rpleas_acq	CS_A	ZHHZ	LWWL	DXXD	YFFY	CPPC	JQQJ	vertrauen	küssen	genießen	sonnig	träumen	gütig	versagen	krank	gemein	sterben	töten	gierig	1	acq_USunple_CSunple1_RW	acq4567_RW	5	50	400	0	300	300	333	46	0	1	1	blank2r.bmp	0	1	+	0	1	blank2r.bmp	492	1	DXXD	492	1	blank2r.bmp	572	2	krank	866	1	!	-1	1	!	-1	0	0	0	0	0	0	0	0	0	0	0	0	0	0	0	0	0	0	0	0	0	0	0	0	0	0	0	0	0	0
070919	10:03:46	10:14:17	630354	5.0.10.0	5_exp_RW	27	Rpleas_acq	CS_A	ZHHZ	LWWL	DXXD	YFFY	CPPC	JQQJ	vertrauen	küssen	genießen	sonnig	träumen	gütig	versagen	krank	gemein	sterben	töten	gierig	1	acq_USpleas_CSpleas2_RW	acq4567_RW	5	51	400	1	300	300	458	50	0	1	1	blank2r.bmp	0	1	+	0	1	blank2r.bmp	492	1	LWWL	492	1	blank2r.bmp	572	2	träumen	866	1	!	1239	1	!	1359	0	0	0	0	0	0	0	0	0	0	0	0	0	0	0	0	0	0	0	0	0	0	0	0	0	0	0	0	0	0
070919	10:03:46	10:14:19	632393	5.0.10.0	5_exp_RW	27	Rpleas_acq	CS_A	ZHHZ	LWWL	DXXD	YFFY	CPPC	JQQJ	vertrauen	küssen	genießen	sonnig	träumen	gütig	versagen	krank	gemein	sterben	töten	gierig	1	acq_USpleas_CSpleas1_RW	acq4567_RW	5	52	400	0	300	300	278	46	0	0	1	blank2r.bmp	0	1	+	0	1	blank2r.bmp	492	1	ZHHZ	492	1	blank2r.bmp	572	2	küssen	866	1	!	-1	1	!	-1	0	0	0	0	0	0	0	0	0	0	0	0	0	0	0	0	0	0	0	0	0	0	0	0	0	0	0	0	0	0
070919	10:03:46	10:14:21	634553	5.0.10.0	5_exp_RW	27	Rpleas_acq	CS_A	ZHHZ	LWWL	DXXD	YFFY	CPPC	JQQJ	vertrauen	küssen	genießen	sonnig	träumen	gütig	versagen	krank	gemein	sterben	töten	gierig	1	acq_USunple_CSunple2_RW	acq4567_RW	5	53	400	1	300	300	346	46	0	1	1	blank2r.bmp	0	1	+	0	1	blank2r.bmp	492	1	YFFY	492	1	blank2r.bmp	572	1	sterben	866	1	!	1239	1	!	1252	0	0	0	0	0	0	0	0	0	0	0	0	0	0	0	0	0	0	0	0	0	0	0	0	0	0	0	0	0	0
070919	10:03:46	10:14:23	636818	5.0.10.0	5_exp_RW	27	Rpleas_acq	CS_A	ZHHZ	LWWL	DXXD	YFFY	CPPC	JQQJ	vertrauen	küssen	genießen	sonnig	träumen	gütig	versagen	krank	gemein	sterben	töten	gierig	1	acq_USpleas_CSpleas1_RW	acq4567_RW	5	54	400	1	300	300	459	50	0	1	1	blank2r.bmp	0	1	+	0	1	blank2r.bmp	492	1	ZHHZ	492	1	blank2r.bmp	572	3	genießen	866	1	!	1239	1	!	1359	0	0	0	0	0	0	0	0	0	0	0	0	0	0	0	0	0	0	0	0	0	0	0	0	0	0	0	0	0	0
070919	10:03:46	10:14:25	638964	5.0.10.0	5_exp_RW	27	Rpleas_acq	CS_A	ZHHZ	LWWL	DXXD	YFFY	CPPC	JQQJ	vertrauen	küssen	genießen	sonnig	träumen	gütig	versagen	krank	gemein	sterben	töten	gierig	1	acq_USpleas_CSpleas1_RW	acq4567_RW	5	55	400	1	300	300	346	50	0	1	1	blank2r.bmp	0	1	+	0	1	blank2r.bmp	492	1	ZHHZ	492	1	blank2r.bmp	572	1	vertrauen	866	1	!	1239	1	!	1252	0	0	0	0	0	0	0	0	0	0	0	0	0	0	0	0	0	0	0	0	0	0	0	0	0	0	0	0	0	0
070919	10:03:46	10:14:28	641003	5.0.10.0	5_exp_RW	27	Rpleas_acq	CS_A	ZHHZ	LWWL	DXXD	YFFY	CPPC	JQQJ	vertrauen	küssen	genießen	sonnig	träumen	gütig	versagen	krank	gemein	sterben	töten	gierig	1	acq_USunple_CSunple1_RW	acq4567_RW	5	56	400	0	300	300	270	50	0	0	1	blank2r.bmp	0	1	+	0	1	blank2r.bmp	492	1	DXXD	492	1	blank2r.bmp	572	2	krank	866	1	!	-1	1	!	-1	0	0	0	0	0	0	0	0	0	0	0	0	0	0	0	0	0	0	0	0	0	0	0	0	0	0	0	0	0	0
070919	10:03:46	10:14:30	643029	5.0.10.0	5_exp_RW	27	Rpleas_acq	CS_A	ZHHZ	LWWL	DXXD	YFFY	CPPC	JQQJ	vertrauen	küssen	genießen	sonnig	träumen	gütig	versagen	krank	gemein	sterben	töten	gierig	1	acq_USunple_CSunple1_RW	acq4567_RW	5	57	400	0	300	300	240	46	0	1	1	blank2r.bmp	0	1	+	0	1	blank2r.bmp	492	1	DXXD	492	1	blank2r.bmp	572	3	gemein	866	1	!	-1	1	!	-1	0	0	0	0	0	0	0	0	0	0	0	0	0	0	0	0	0	0	0	0	0	0	0	0	0	0	0	0	0	0
070919	10:03:46	10:14:32	645295	5.0.10.0	5_exp_RW	27	Rpleas_acq	CS_A	ZHHZ	LWWL	DXXD	YFFY	CPPC	JQQJ	vertrauen	küssen	genießen	sonnig	träumen	gütig	versagen	krank	gemein	sterben	töten	gierig	1	acq_USpleas_CSpleas2_RW	acq4567_RW	5	58	400	1	300	300	453	50	0	1	1	blank2r.bmp	0	1	+	0	1	blank2r.bmp	492	1	LWWL	492	1	blank2r.bmp	572	1	sonnig	866	1	!	1239	1	!	1359	0	0	0	0	0	0	0	0	0	0	0	0	0	0	0	0	0	0	0	0	0	0	0	0	0	0	0	0	0	0
070919	10:03:46	10:14:34	647494	5.0.10.0	5_exp_RW	27	Rpleas_acq	CS_A	ZHHZ	LWWL	DXXD	YFFY	CPPC	JQQJ	vertrauen	küssen	genießen	sonnig	träumen	gütig	versagen	krank	gemein	sterben	töten	gierig	1	acq_USunple_CSunple1_RW	acq4567_RW	5	59	400	1	300	300	409	46	0	1	1	blank2r.bmp	0	1	+	0	1	blank2r.bmp	492	1	DXXD	492	1	blank2r.bmp	572	1	versagen	866	1	!	1239	1	!	1306	0	0	0	0	0	0	0	0	0	0	0	0	0	0	0	0	0	0	0	0	0	0	0	0	0	0	0	0	0	0
070919	10:03:46	10:14:36	649720	5.0.10.0	5_exp_RW	27	Rpleas_acq	CS_A	ZHHZ	LWWL	DXXD	YFFY	CPPC	JQQJ	vertrauen	küssen	genießen	sonnig	träumen	gütig	versagen	krank	gemein	sterben	töten	gierig	1	acq_USunple_CSunple2_RW	acq4567_RW	5	60	400	1	300	300	437	46	0	1	1	blank2r.bmp	0	1	+	0	1	blank2r.bmp	492	1	YFFY	492	1	blank2r.bmp	572	2	töten	866	1	!	1239	1	!	1332	0	0	0	0	0	0	0	0	0	0	0	0	0	0	0	0	0	0	0	0	0	0	0	0	0	0	0	0	0	0
070919	10:03:46	10:14:39	652092	5.0.10.0	5_exp_RW	27	Rpleas_acq	CS_A	ZHHZ	LWWL	DXXD	YFFY	CPPC	JQQJ	vertrauen	küssen	genießen	sonnig	träumen	gütig	versagen	krank	gemein	sterben	töten	gierig	1	acq_USpleas_CSpleas1_RW	acq4567_RW	5	61	400	0	300	300	608	50	0	1	1	blank2r.bmp	0	1	+	0	1	blank2r.bmp	492	1	ZHHZ	492	1	blank2r.bmp	572	3	genießen	866	1	!	1239	1	!	-1	0	0	0	0	0	0	0	0	0	0	0	0	0	0	0	0	0	0	0	0	0	0	0	0	0	0	0	0	0	0
070919	10:03:46	10:14:41	654344	5.0.10.0	5_exp_RW	27	Rpleas_acq	CS_A	ZHHZ	LWWL	DXXD	YFFY	CPPC	JQQJ	vertrauen	küssen	genießen	sonnig	träumen	gütig	versagen	krank	gemein	sterben	töten	gierig	1	acq_USunple_CSunple1_RW	acq4567_RW	5	62	400	1	300	300	442	46	0	1	1	blank2r.bmp	0	1	+	0	1	blank2r.bmp	492	1	DXXD	492	1	blank2r.bmp	572	3	gemein	866	1	!	1239	1	!	1346	0	0	0	0	0	0	0	0	0	0	0	0	0	0	0	0	0	0	0	0	0	0	0	0	0	0	0	0	0	0
070919	10:03:46	10:14:43	656504	5.0.10.0	5_exp_RW	27	Rpleas_acq	CS_A	ZHHZ	LWWL	DXXD	YFFY	CPPC	JQQJ	vertrauen	küssen	genießen	sonnig	träumen	gütig	versagen	krank	gemein	sterben	töten	gierig	1	acq_USunple_CSunple2_RW	acq4567_RW	5	63	400	1	300	300	361	46	0	1	1	blank2r.bmp	0	1	+	0	1	blank2r.bmp	492	1	YFFY	492	1	blank2r.bmp	572	3	gierig	866	1	!	1239	1	!	1266	0	0	0	0	0	0	0	0	0	0	0	0	0	0	0	0	0	0	0	0	0	0	0	0	0	0	0	0	0	0
070919	10:03:46	10:14:45	658596	5.0.10.0	5_exp_RW	27	Rpleas_acq	CS_A	ZHHZ	LWWL	DXXD	YFFY	CPPC	JQQJ	vertrauen	küssen	genießen	sonnig	träumen	gütig	versagen	krank	gemein	sterben	töten	gierig	1	acq_USpleas_CSpleas1_RW	acq4567_RW	5	64	400	0	300	300	329	46	0	0	1	blank2r.bmp	0	1	+	0	1	blank2r.bmp	492	1	ZHHZ	492	1	blank2r.bmp	572	2	küssen	866	1	!	-1	1	!	-1	0	0	0	0	0	0	0	0	0	0	0	0	0	0	0	0	0	0	0	0	0	0	0	0	0	0	0	0	0	0
070919	10:03:46	10:14:47	660689	5.0.10.0	5_exp_RW	27	Rpleas_acq	CS_A	ZHHZ	LWWL	DXXD	YFFY	CPPC	JQQJ	vertrauen	küssen	genießen	sonnig	träumen	gütig	versagen	krank	gemein	sterben	töten	gierig	1	acq_USunple_CSunple1_RW	acq4567_RW	5	65	400	0	300	300	313	50	0	0	1	blank2r.bmp	0	1	+	0	1	blank2r.bmp	492	1	DXXD	492	1	blank2r.bmp	572	2	krank	866	1	!	-1	1	!	-1	0	0	0	0	0	0	0	0	0	0	0	0	0	0	0	0	0	0	0	0	0	0	0	0	0	0	0	0	0	0
070919	10:03:46	10:14:49	662928	5.0.10.0	5_exp_RW	27	Rpleas_acq	CS_A	ZHHZ	LWWL	DXXD	YFFY	CPPC	JQQJ	vertrauen	küssen	genießen	sonnig	träumen	gütig	versagen	krank	gemein	sterben	töten	gierig	1	acq_USunple_CSunple2_RW	acq4567_RW	5	66	400	1	300	300	434	46	0	1	1	blank2r.bmp	0	1	+	0	1	blank2r.bmp	492	1	YFFY	492	1	blank2r.bmp	572	1	sterben	866	1	!	1239	1	!	1332	0	0	0	0	0	0	0	0	0	0	0	0	0	0	0	0	0	0	0	0	0	0	0	0	0	0	0	0	0	0
070919	10:03:46	10:14:52	665167	5.0.10.0	5_exp_RW	27	Rpleas_acq	CS_A	ZHHZ	LWWL	DXXD	YFFY	CPPC	JQQJ	vertrauen	küssen	genießen	sonnig	träumen	gütig	versagen	krank	gemein	sterben	töten	gierig	1	acq_USpleas_CSpleas1_RW	acq4567_RW	5	67	400	1	300	300	443	46	0	0	1	blank2r.bmp	0	1	+	0	1	blank2r.bmp	492	1	ZHHZ	492	1	blank2r.bmp	572	1	vertrauen	866	1	!	1239	1	!	1346	0	0	0	0	0	0	0	0	0	0	0	0	0	0	0	0	0	0	0	0	0	0	0	0	0	0	0	0	0	0
070919	10:03:46	10:14:54	667326	5.0.10.0	5_exp_RW	27	Rpleas_acq	CS_A	ZHHZ	LWWL	DXXD	YFFY	CPPC	JQQJ	vertrauen	küssen	genießen	sonnig	träumen	gütig	versagen	krank	gemein	sterben	töten	gierig	1	acq_USpleas_CSpleas1_RW	acq4567_RW	5	68	400	1	300	300	365	50	0	1	1	blank2r.bmp	0	1	+	0	1	blank2r.bmp	492	1	ZHHZ	492	1	blank2r.bmp	572	2	küssen	866	1	!	1239	1	!	1266	0	0	0	0	0	0	0	0	0	0	0	0	0	0	0	0	0	0	0	0	0	0	0	0	0	0	0	0	0	0
070919	10:03:46	10:14:56	669485	5.0.10.0	5_exp_RW	27	Rpleas_acq	CS_A	ZHHZ	LWWL	DXXD	YFFY	CPPC	JQQJ	vertrauen	küssen	genießen	sonnig	träumen	gütig	versagen	krank	gemein	sterben	töten	gierig	1	acq_USunple_CSunple2_RW	acq4567_RW	5	69	400	1	300	300	372	46	0	1	1	blank2r.bmp	0	1	+	0	1	blank2r.bmp	492	1	YFFY	492	1	blank2r.bmp	572	2	töten	866	1	!	1239	1	!	1266	0	0	0	0	0	0	0	0	0	0	0	0	0	0	0	0	0	0	0	0	0	0	0	0	0	0	0	0	0	0
070919	10:03:46	10:14:58	671751	5.0.10.0	5_exp_RW	27	Rpleas_acq	CS_A	ZHHZ	LWWL	DXXD	YFFY	CPPC	JQQJ	vertrauen	küssen	genießen	sonnig	träumen	gütig	versagen	krank	gemein	sterben	töten	gierig	1	acq_USunple_CSunple1_RW	acq4567_RW	5	70	400	0	300	300	500	46	0	1	1	blank2r.bmp	0	1	+	0	1	blank2r.bmp	492	1	DXXD	492	1	blank2r.bmp	572	1	versagen	866	1	!	1239	1	!	-1	0	0	0	0	0	0	0	0	0	0	0	0	0	0	0	0	0	0	0	0	0	0	0	0	0	0	0	0	0	0
070919	10:03:46	10:15:00	673910	5.0.10.0	5_exp_RW	27	Rpleas_acq	CS_A	ZHHZ	LWWL	DXXD	YFFY	CPPC	JQQJ	vertrauen	küssen	genießen	sonnig	träumen	gütig	versagen	krank	gemein	sterben	töten	gierig	1	acq_USunple_CSunple1_RW	acq4567_RW	5	71	400	1	300	300	346	46	0	1	1	blank2r.bmp	0	1	+	0	1	blank2r.bmp	492	1	DXXD	492	1	blank2r.bmp	572	2	krank	866	1	!	1239	1	!	1252	0	0	0	0	0	0	0	0	0	0	0	0	0	0	0	0	0	0	0	0	0	0	0	0	0	0	0	0	0	0
070919	10:03:46	10:15:03	675976	5.0.10.0	5_exp_RW	27	Rpleas_acq	CS_A	ZHHZ	LWWL	DXXD	YFFY	CPPC	JQQJ	vertrauen	küssen	genießen	sonnig	träumen	gütig	versagen	krank	gemein	sterben	töten	gierig	1	acq_USunple_CSunple2_RW	acq4567_RW	5	72	400	0	300	300	304	46	0	1	1	blank2r.bmp	0	1	+	0	1	blank2r.bmp	492	1	YFFY	492	1	blank2r.bmp	572	3	gierig	866	1	!	-1	1	!	-1	0	0	0	0	0	0	0	0	0	0	0	0	0	0	0	0	0	0	0	0	0	0	0	0	0	0	0	0	0	0
070919	10:03:46	10:15:05	678268	5.0.10.0	5_exp_RW	27	Rpleas_acq	CS_A	ZHHZ	LWWL	DXXD	YFFY	CPPC	JQQJ	vertrauen	küssen	genießen	sonnig	träumen	gütig	versagen	krank	gemein	sterben	töten	gierig	1	acq_USpleas_CSpleas2_RW	acq4567_RW	5	73	400	0	300	300	506	50	0	1	1	blank2r.bmp	0	1	+	0	1	blank2r.bmp	492	1	LWWL	492	1	blank2r.bmp	572	2	träumen	866	1	!	1239	1	!	-1	0	0	0	0	0	0	0	0	0	0	0	0	0	0	0	0	0	0	0	0	0	0	0	0	0	0	0	0	0	0
070919	10:03:46	10:15:07	680454	5.0.10.0	5_exp_RW	27	Rpleas_acq	CS_A	ZHHZ	LWWL	DXXD	YFFY	CPPC	JQQJ	vertrauen	küssen	genießen	sonnig	träumen	gütig	versagen	krank	gemein	sterben	töten	gierig	1	acq_USunple_CSunple1_RW	acq4567_RW	5	74	400	1	300	300	376	46	0	1	1	blank2r.bmp	0	1	+	0	1	blank2r.bmp	492	1	DXXD	492	1	blank2r.bmp	572	1	versagen	866	1	!	1239	1	!	1279	0	0	0	0	0	0	0	0	0	0	0	0	0	0	0	0	0	0	0	0	0	0	0	0	0	0	0	0	0	0
070919	10:03:46	10:15:09	682546	5.0.10.0	5_exp_RW	27	Rpleas_acq	CS_A	ZHHZ	LWWL	DXXD	YFFY	CPPC	JQQJ	vertrauen	küssen	genießen	sonnig	träumen	gütig	versagen	krank	gemein	sterben	töten	gierig	1	acq_USpleas_CSpleas1_RW	acq4567_RW	5	75	400	0	300	300	323	50	0	1	1	blank2r.bmp	0	1	+	0	1	blank2r.bmp	492	1	ZHHZ	492	1	blank2r.bmp	572	3	genießen	866	1	!	-1	1	!	-1	0	0	0	0	0	0	0	0	0	0	0	0	0	0	0	0	0	0	0	0	0	0	0	0	0	0	0	0	0	0
070919	10:03:46	10:15:11	684759	5.0.10.0	5_exp_RW	27	Rpleas_acq	CS_A	ZHHZ	LWWL	DXXD	YFFY	CPPC	JQQJ	vertrauen	küssen	genießen	sonnig	träumen	gütig	versagen	krank	gemein	sterben	töten	gierig	1	acq_USpleas_CSpleas2_RW	acq4567_RW	5	76	400	1	300	300	410	50	0	1	1	blank2r.bmp	0	1	+	0	1	blank2r.bmp	492	1	LWWL	492	1	blank2r.bmp	572	1	sonnig	866	1	!	1239	1	!	1306	0	0	0	0	0	0	0	0	0	0	0	0	0	0	0	0	0	0	0	0	0	0	0	0	0	0	0	0	0	0
070919	10:03:46	10:15:14	687011	5.0.10.0	5_exp_RW	27	Rpleas_acq	CS_A	ZHHZ	LWWL	DXXD	YFFY	CPPC	JQQJ	vertrauen	küssen	genießen	sonnig	träumen	gütig	versagen	krank	gemein	sterben	töten	gierig	1	acq_USunple_CSunple2_RW	acq4567_RW	5	77	400	1	300	300	453	46	0	1	1	blank2r.bmp	0	1	+	0	1	blank2r.bmp	492	1	YFFY	492	1	blank2r.bmp	572	1	sterben	866	1	!	1239	1	!	1359	0	0	0	0	0	0	0	0	0	0	0	0	0	0	0	0	0	0	0	0	0	0	0	0	0	0	0	0	0	0
070919	10:03:46	10:15:16	689024	5.0.10.0	5_exp_RW	27	Rpleas_acq	CS_A	ZHHZ	LWWL	DXXD	YFFY	CPPC	JQQJ	vertrauen	küssen	genießen	sonnig	träumen	gütig	versagen	krank	gemein	sterben	töten	gierig	1	acq_USpleas_CSpleas2_RW	acq4567_RW	5	78	400	0	300	300	244	46	0	0	1	blank2r.bmp	0	1	+	0	1	blank2r.bmp	492	1	LWWL	492	1	blank2r.bmp	572	3	gütig	866	1	!	-1	1	!	-1	0	0	0	0	0	0	0	0	0	0	0	0	0	0	0	0	0	0	0	0	0	0	0	0	0	0	0	0	0	0
070919	10:03:46	10:15:18	691276	5.0.10.0	5_exp_RW	27	Rpleas_acq	CS_A	ZHHZ	LWWL	DXXD	YFFY	CPPC	JQQJ	vertrauen	küssen	genießen	sonnig	träumen	gütig	versagen	krank	gemein	sterben	töten	gierig	1	acq_USpleas_CSpleas2_RW	acq4567_RW	5	79	400	1	300	300	451	50	0	1	1	blank2r.bmp	0	1	+	0	1	blank2r.bmp	492	1	LWWL	492	1	blank2r.bmp	572	3	gütig	866	1	!	1239	1	!	1346	0	0	0	0	0	0	0	0	0	0	0	0	0	0	0	0	0	0	0	0	0	0	0	0	0	0	0	0	0	0
070919	10:03:46	10:15:20	693502	5.0.10.0	5_exp_RW	27	Rpleas_acq	CS_A	ZHHZ	LWWL	DXXD	YFFY	CPPC	JQQJ	vertrauen	küssen	genießen	sonnig	träumen	gütig	versagen	krank	gemein	sterben	töten	gierig	1	acq_USpleas_CSpleas2_RW	acq4567_RW	5	80	400	1	300	300	425	46	0	0	1	blank2r.bmp	0	1	+	0	1	blank2r.bmp	492	1	LWWL	492	1	blank2r.bmp	572	2	träumen	866	1	!	1239	1	!	1332	0	0	0	0	0	0	0	0	0	0	0	0	0	0	0	0	0	0	0	0	0	0	0	0	0	0	0	0	0	0
070919	10:03:46	10:15:33	705977	5.0.10.0	5_exp_RW	27	Rpleas_acq	CS_A	ZHHZ	LWWL	DXXD	YFFY	CPPC	JQQJ	vertrauen	küssen	genießen	sonnig	träumen	gütig	versagen	krank	gemein	sterben	töten	gierig	1	acq_USunple_CSunple1_RW	acq4567_RW	6	1	400	0	300	300	543	46	0	1	1	blank2r.bmp	0	1	+	0	1	blank2r.bmp	492	1	DXXD	492	1	blank2r.bmp	572	3	gemein	866	1	!	1239	1	!	-1	0	0	0	0	0	0	0	0	0	0	0	0	0	0	0	0	0	0	0	0	0	0	0	0	0	0	0	0	0	0
070919	10:03:46	10:15:35	708082	5.0.10.0	5_exp_RW	27	Rpleas_acq	CS_A	ZHHZ	LWWL	DXXD	YFFY	CPPC	JQQJ	vertrauen	küssen	genießen	sonnig	träumen	gütig	versagen	krank	gemein	sterben	töten	gierig	1	acq_USunple_CSunple2_RW	acq4567_RW	6	2	400	0	300	300	318	46	0	1	1	blank2r.bmp	0	1	+	0	1	blank2r.bmp	492	1	YFFY	492	1	blank2r.bmp	572	2	töten	866	1	!	-1	1	!	-1	0	0	0	0	0	0	0	0	0	0	0	0	0	0	0	0	0	0	0	0	0	0	0	0	0	0	0	0	0	0
070919	10:03:46	10:15:37	710242	5.0.10.0	5_exp_RW	27	Rpleas_acq	CS_A	ZHHZ	LWWL	DXXD	YFFY	CPPC	JQQJ	vertrauen	küssen	genießen	sonnig	träumen	gütig	versagen	krank	gemein	sterben	töten	gierig	1	acq_USunple_CSunple1_RW	acq4567_RW	6	3	400	1	300	300	346	46	0	1	1	blank2r.bmp	0	1	+	0	1	blank2r.bmp	492	1	DXXD	492	1	blank2r.bmp	572	2	krank	866	1	!	1239	1	!	1252	0	0	0	0	0	0	0	0	0	0	0	0	0	0	0	0	0	0	0	0	0	0	0	0	0	0	0	0	0	0
070919	10:03:46	10:15:39	712334	5.0.10.0	5_exp_RW	27	Rpleas_acq	CS_A	ZHHZ	LWWL	DXXD	YFFY	CPPC	JQQJ	vertrauen	küssen	genießen	sonnig	träumen	gütig	versagen	krank	gemein	sterben	töten	gierig	1	acq_USpleas_CSpleas1_RW	acq4567_RW	6	4	400	0	300	300	321	46	0	0	1	blank2r.bmp	0	1	+	0	1	blank2r.bmp	492	1	ZHHZ	492	1	blank2r.bmp	572	1	vertrauen	866	1	!	-1	1	!	-1	0	0	0	0	0	0	0	0	0	0	0	0	0	0	0	0	0	0	0	0	0	0	0	0	0	0	0	0	0	0
070919	10:03:46	10:15:41	714520	5.0.10.0	5_exp_RW	27	Rpleas_acq	CS_A	ZHHZ	LWWL	DXXD	YFFY	CPPC	JQQJ	vertrauen	küssen	genießen	sonnig	träumen	gütig	versagen	krank	gemein	sterben	töten	gierig	1	acq_USpleas_CSpleas1_RW	acq4567_RW	6	5	400	1	300	300	383	46	0	0	1	blank2r.bmp	0	1	+	0	1	blank2r.bmp	492	1	ZHHZ	492	1	blank2r.bmp	572	2	küssen	866	1	!	1239	1	!	1279	0	0	0	0	0	0	0	0	0	0	0	0	0	0	0	0	0	0	0	0	0	0	0	0	0	0	0	0	0	0
070919	10:03:46	10:15:43	716719	5.0.10.0	5_exp_RW	27	Rpleas_acq	CS_A	ZHHZ	LWWL	DXXD	YFFY	CPPC	JQQJ	vertrauen	küssen	genießen	sonnig	träumen	gütig	versagen	krank	gemein	sterben	töten	gierig	1	acq_USpleas_CSpleas1_RW	acq4567_RW	6	6	400	1	300	300	401	46	0	0	1	blank2r.bmp	0	1	+	0	1	blank2r.bmp	492	1	ZHHZ	492	1	blank2r.bmp	572	3	genießen	866	1	!	1239	1	!	1306	0	0	0	0	0	0	0	0	0	0	0	0	0	0	0	0	0	0	0	0	0	0	0	0	0	0	0	0	0	0
070919	10:03:46	10:15:45	718945	5.0.10.0	5_exp_RW	27	Rpleas_acq	CS_A	ZHHZ	LWWL	DXXD	YFFY	CPPC	JQQJ	vertrauen	küssen	genießen	sonnig	träumen	gütig	versagen	krank	gemein	sterben	töten	gierig	1	acq_USpleas_CSpleas2_RW	acq4567_RW	6	7	400	1	300	300	432	50	0	1	1	blank2r.bmp	0	1	+	0	1	blank2r.bmp	492	1	LWWL	492	1	blank2r.bmp	572	1	sonnig	866	1	!	1239	1	!	1332	0	0	0	0	0	0	0	0	0	0	0	0	0	0	0	0	0	0	0	0	0	0	0	0	0	0	0	0	0	0
070919	10:03:46	10:15:48	721690	5.0.10.0	5_exp_RW	27	Rpleas_acq	CS_A	ZHHZ	LWWL	DXXD	YFFY	CPPC	JQQJ	vertrauen	küssen	genießen	sonnig	träumen	gütig	versagen	krank	gemein	sterben	töten	gierig	1	acq_USunple_CSunple2_RW	acq4567_RW	6	8	400	0	300	300	973	46	0	1	1	blank2r.bmp	0	1	+	0	1	blank2r.bmp	492	1	YFFY	492	1	blank2r.bmp	572	2	töten	866	1	!	1239	1	!	-1	0	0	0	0	0	0	0	0	0	0	0	0	0	0	0	0	0	0	0	0	0	0	0	0	0	0	0	0	0	0
070919	10:03:46	10:15:50	723756	5.0.10.0	5_exp_RW	27	Rpleas_acq	CS_A	ZHHZ	LWWL	DXXD	YFFY	CPPC	JQQJ	vertrauen	küssen	genießen	sonnig	träumen	gütig	versagen	krank	gemein	sterben	töten	gierig	1	acq_USpleas_CSpleas1_RW	acq4567_RW	6	9	400	0	300	300	284	46	0	0	1	blank2r.bmp	0	1	+	0	1	blank2r.bmp	492	1	ZHHZ	492	1	blank2r.bmp	572	1	vertrauen	866	1	!	-1	1	!	-1	0	0	0	0	0	0	0	0	0	0	0	0	0	0	0	0	0	0	0	0	0	0	0	0	0	0	0	0	0	0
070919	10:03:46	10:15:52	725928	5.0.10.0	5_exp_RW	27	Rpleas_acq	CS_A	ZHHZ	LWWL	DXXD	YFFY	CPPC	JQQJ	vertrauen	küssen	genießen	sonnig	träumen	gütig	versagen	krank	gemein	sterben	töten	gierig	1	acq_USpleas_CSpleas2_RW	acq4567_RW	6	10	400	1	300	300	346	50	0	1	1	blank2r.bmp	0	1	+	0	1	blank2r.bmp	492	1	LWWL	492	1	blank2r.bmp	572	1	sonnig	866	1	!	1239	1	!	1252	0	0	0	0	0	0	0	0	0	0	0	0	0	0	0	0	0	0	0	0	0	0	0	0	0	0	0	0	0	0
070919	10:03:46	10:15:55	728021	5.0.10.0	5_exp_RW	27	Rpleas_acq	CS_A	ZHHZ	LWWL	DXXD	YFFY	CPPC	JQQJ	vertrauen	küssen	genießen	sonnig	träumen	gütig	versagen	krank	gemein	sterben	töten	gierig	1	acq_USpleas_CSpleas2_RW	acq4567_RW	6	11	400	0	300	300	323	50	0	1	1	blank2r.bmp	0	1	+	0	1	blank2r.bmp	492	1	LWWL	492	1	blank2r.bmp	572	2	träumen	866	1	!	-1	1	!	-1	0	0	0	0	0	0	0	0	0	0	0	0	0	0	0	0	0	0	0	0	0	0	0	0	0	0	0	0	0	0
070919	10:03:46	10:15:57	730180	5.0.10.0	5_exp_RW	27	Rpleas_acq	CS_A	ZHHZ	LWWL	DXXD	YFFY	CPPC	JQQJ	vertrauen	küssen	genießen	sonnig	träumen	gütig	versagen	krank	gemein	sterben	töten	gierig	1	acq_USunple_CSunple2_RW	acq4567_RW	6	12	400	1	300	300	346	46	0	1	1	blank2r.bmp	0	1	+	0	1	blank2r.bmp	492	1	YFFY	492	1	blank2r.bmp	572	3	gierig	866	1	!	1239	1	!	1252	0	0	0	0	0	0	0	0	0	0	0	0	0	0	0	0	0	0	0	0	0	0	0	0	0	0	0	0	0	0
070919	10:03:46	10:15:59	732366	5.0.10.0	5_exp_RW	27	Rpleas_acq	CS_A	ZHHZ	LWWL	DXXD	YFFY	CPPC	JQQJ	vertrauen	küssen	genießen	sonnig	träumen	gütig	versagen	krank	gemein	sterben	töten	gierig	1	acq_USunple_CSunple1_RW	acq4567_RW	6	13	400	1	300	300	373	50	0	0	1	blank2r.bmp	0	1	+	0	1	blank2r.bmp	492	1	DXXD	492	1	blank2r.bmp	572	3	gemein	866	1	!	1239	1	!	1279	0	0	0	0	0	0	0	0	0	0	0	0	0	0	0	0	0	0	0	0	0	0	0	0	0	0	0	0	0	0
