date	time	script.currenttime	script.elapsedtime	build	script.currentexpt	subject	expressions.LRpleas_acq	expressions.conditionCS_A	expressions.CSpleas_1	expressions.CSpleas_2	expressions.CSunple_1	expressions.CSunple_2	expressions.distractor_1	expressions.distractor_2	expressions.US_pleas1	expressions.US_pleas2	expressions.US_pleas3	expressions.US_pleas4	expressions.US_pleas5	expressions.US_pleas6	expressions.US_unple1	expressions.US_unple2	expressions.US_unple3	expressions.US_unple4	expressions.US_unple5	expressions.US_unple6	counter.positions_noRW	trialcode	blockcode	blocknum	trialnum	windowcenter	inwindow	pretrialpause	posttrialpause	latency	response	expressions.correctedscore	correct	stimulusnumber1	stimulusitem1	stimulusonset1	stimulusnumber2	stimulusitem2	stimulusonset2	stimulusnumber3	stimulusitem3	stimulusonset3	stimulusnumber4	stimulusitem4	stimulusonset4	stimulusnumber5	stimulusitem5	stimulusonset5	stimulusnumber6	stimulusitem6	stimulusonset6	stimulusnumber7	stimulusitem7	stimulusonset7	stimulusnumber8	stimulusitem8	stimulusonset8	stimulusnumber9	stimulusitem9	stimulusonset9	stimulusnumber10	stimulusitem10	stimulusonset10	stimulusnumber11	stimulusitem11	stimulusonset11	stimulusnumber12	stimulusitem12	stimulusonset12	stimulusnumber13	stimulusitem13	stimulusonset13	stimulusnumber14	stimulusitem14	stimulusonset14	stimulusnumber15	stimulusitem15	stimulusonset15	stimulusnumber16	stimulusitem16	stimulusonset16	stimulusnumber17	stimulusitem17	stimulusonset17	stimulusnumber18	stimulusitem18	stimulusonset18
070819	16:57:16	17:00:06	169539	5.0.10.0	5_exp_noRW	24	Rpleas_acq	CS_B	YDDY	MQQM	GWWG	BZZB	JXXJ	VKKV	fair	spielen	ehrlich	treu	retten	schön	faul	strafen	eitel	tot	rächen	schlecht	47pct	acq_USunple_CSunple2_noRW	acq1_noRW	1	1	0	0	300	300	2000	0	0	0	1	blank2r.bmp	0	1	+	0	1	blank2r.bmp	252	1	BZZB	306	1	tot	559	1	FEHLER	2598	1	Schneller!	2598	0	0	0	0	0	0	0	0	0	0	0	0	0	0	0	0	0	0	0	0	0	0	0	0	0	0	0	0	0	0	0	0	0
070819	16:57:16	17:00:08	171578	5.0.10.0	5_exp_noRW	24	Rpleas_acq	CS_B	YDDY	MQQM	GWWG	BZZB	JXXJ	VKKV	fair	spielen	ehrlich	treu	retten	schön	faul	strafen	eitel	tot	rächen	schlecht	53pct	acq_USunple_CSunple2_noRW	acq1_noRW	1	2	0	0	300	300	1143	46	0	1	1	blank2r.bmp	0	1	+	0	1	blank2r.bmp	252	1	BZZB	306	2	rächen	559	0	0	0	0	0	0	0	0	0	0	0	0	0	0	0	0	0	0	0	0	0	0	0	0	0	0	0	0	0	0	0	0	0	0	0	0	0	0	0
070819	16:57:16	17:00:11	173657	5.0.10.0	5_exp_noRW	24	Rpleas_acq	CS_B	YDDY	MQQM	GWWG	BZZB	JXXJ	VKKV	fair	spielen	ehrlich	treu	retten	schön	faul	strafen	eitel	tot	rächen	schlecht	47pct	acq_USpleas_CSpleas2_noRW	acq1_noRW	1	3	0	0	300	300	878	50	0	1	1	blank2r.bmp	0	1	+	0	1	blank2r.bmp	252	1	MQQM	306	1	treu	559	0	0	0	0	0	0	0	0	0	0	0	0	0	0	0	0	0	0	0	0	0	0	0	0	0	0	0	0	0	0	0	0	0	0	0	0	0	0	0
070819	16:57:16	17:00:12	175310	5.0.10.0	5_exp_noRW	24	Rpleas_acq	CS_B	YDDY	MQQM	GWWG	BZZB	JXXJ	VKKV	fair	spielen	ehrlich	treu	retten	schön	faul	strafen	eitel	tot	rächen	schlecht	47pct	acq_USunple_CSunple1_noRW	acq1_noRW	1	4	0	0	300	300	490	46	0	1	1	blank2r.bmp	0	1	+	0	1	blank2r.bmp	252	1	GWWG	306	1	faul	559	0	0	0	0	0	0	0	0	0	0	0	0	0	0	0	0	0	0	0	0	0	0	0	0	0	0	0	0	0	0	0	0	0	0	0	0	0	0	0
070819	16:57:16	17:00:14	177136	5.0.10.0	5_exp_noRW	24	Rpleas_acq	CS_B	YDDY	MQQM	GWWG	BZZB	JXXJ	VKKV	fair	spielen	ehrlich	treu	retten	schön	faul	strafen	eitel	tot	rächen	schlecht	53pct	acq_USunple_CSunple1_noRW	acq1_noRW	1	5	0	0	300	300	639	46	0	1	1	blank2r.bmp	0	1	+	0	1	blank2r.bmp	252	1	GWWG	306	2	strafen	559	0	0	0	0	0	0	0	0	0	0	0	0	0	0	0	0	0	0	0	0	0	0	0	0	0	0	0	0	0	0	0	0	0	0	0	0	0	0	0
070819	16:57:16	17:00:16	179001	5.0.10.0	5_exp_noRW	24	Rpleas_acq	CS_B	YDDY	MQQM	GWWG	BZZB	JXXJ	VKKV	fair	spielen	ehrlich	treu	retten	schön	faul	strafen	eitel	tot	rächen	schlecht	47pct	acq_USunple_CSpleas2_noRW	acq1_noRW	1	6	0	0	300	300	700	46	0	1	1	blank2r.bmp	0	1	+	0	1	blank2r.bmp	252	1	MQQM	306	2	rächen	559	0	0	0	0	0	0	0	0	0	0	0	0	0	0	0	0	0	0	0	0	0	0	0	0	0	0	0	0	0	0	0	0	0	0	0	0	0	0	0
070819	16:57:16	17:00:18	180707	5.0.10.0	5_exp_noRW	24	Rpleas_acq	CS_B	YDDY	MQQM	GWWG	BZZB	JXXJ	VKKV	fair	spielen	ehrlich	treu	retten	schön	faul	strafen	eitel	tot	rächen	schlecht	47pct	acq_USpleas_CSpleas2_noRW	acq1_noRW	1	7	0	0	300	300	524	50	0	1	1	blank2r.bmp	0	1	+	0	1	blank2r.bmp	252	1	MQQM	306	3	schön	559	0	0	0	0	0	0	0	0	0	0	0	0	0	0	0	0	0	0	0	0	0	0	0	0	0	0	0	0	0	0	0	0	0	0	0	0	0	0	0
070819	16:57:16	17:00:20	182893	5.0.10.0	5_exp_noRW	24	Rpleas_acq	CS_B	YDDY	MQQM	GWWG	BZZB	JXXJ	VKKV	fair	spielen	ehrlich	treu	retten	schön	faul	strafen	eitel	tot	rächen	schlecht	47pct	acq_USpleas_CSpleas2_noRW	acq1_noRW	1	8	0	0	300	300	1022	50	0	1	1	blank2r.bmp	0	1	+	0	1	blank2r.bmp	252	1	MQQM	306	2	retten	559	0	0	0	0	0	0	0	0	0	0	0	0	0	0	0	0	0	0	0	0	0	0	0	0	0	0	0	0	0	0	0	0	0	0	0	0	0	0	0
070819	16:57:16	17:00:21	184626	5.0.10.0	5_exp_noRW	24	Rpleas_acq	CS_B	YDDY	MQQM	GWWG	BZZB	JXXJ	VKKV	fair	spielen	ehrlich	treu	retten	schön	faul	strafen	eitel	tot	rächen	schlecht	53pct	acq_USpleas_CSunple2_noRW	acq1_noRW	1	9	0	0	300	300	554	50	0	1	1	blank2r.bmp	0	1	+	0	1	blank2r.bmp	252	1	BZZB	306	2	retten	559	0	0	0	0	0	0	0	0	0	0	0	0	0	0	0	0	0	0	0	0	0	0	0	0	0	0	0	0	0	0	0	0	0	0	0	0	0	0	0
070819	16:57:16	17:00:23	186598	5.0.10.0	5_exp_noRW	24	Rpleas_acq	CS_B	YDDY	MQQM	GWWG	BZZB	JXXJ	VKKV	fair	spielen	ehrlich	treu	retten	schön	faul	strafen	eitel	tot	rächen	schlecht	47pct	acq_USpleas_CSpleas1_noRW	acq1_noRW	1	10	0	0	300	300	791	50	0	1	1	blank2r.bmp	0	1	+	0	1	blank2r.bmp	252	1	YDDY	306	2	spielen	559	0	0	0	0	0	0	0	0	0	0	0	0	0	0	0	0	0	0	0	0	0	0	0	0	0	0	0	0	0	0	0	0	0	0	0	0	0	0	0
070819	16:57:16	17:00:25	188464	5.0.10.0	5_exp_noRW	24	Rpleas_acq	CS_B	YDDY	MQQM	GWWG	BZZB	JXXJ	VKKV	fair	spielen	ehrlich	treu	retten	schön	faul	strafen	eitel	tot	rächen	schlecht	47pct	acq_USunple_CSunple1_noRW	acq1_noRW	1	11	0	0	300	300	687	46	0	1	1	blank2r.bmp	0	1	+	0	1	blank2r.bmp	252	1	GWWG	306	3	eitel	559	0	0	0	0	0	0	0	0	0	0	0	0	0	0	0	0	0	0	0	0	0	0	0	0	0	0	0	0	0	0	0	0	0	0	0	0	0	0	0
070819	16:57:16	17:00:27	190183	5.0.10.0	5_exp_noRW	24	Rpleas_acq	CS_B	YDDY	MQQM	GWWG	BZZB	JXXJ	VKKV	fair	spielen	ehrlich	treu	retten	schön	faul	strafen	eitel	tot	rächen	schlecht	47pct	acq_USpleas_CSpleas1_noRW	acq1_noRW	1	12	0	0	300	300	539	50	0	1	1	blank2r.bmp	0	1	+	0	1	blank2r.bmp	252	1	YDDY	306	1	fair	559	0	0	0	0	0	0	0	0	0	0	0	0	0	0	0	0	0	0	0	0	0	0	0	0	0	0	0	0	0	0	0	0	0	0	0	0	0	0	0
070819	16:57:16	17:00:29	192569	5.0.10.0	5_exp_noRW	24	Rpleas_acq	CS_B	YDDY	MQQM	GWWG	BZZB	JXXJ	VKKV	fair	spielen	ehrlich	treu	retten	schön	faul	strafen	eitel	tot	rächen	schlecht	47pct	acq_USunple_CSunple2_noRW	acq1_noRW	1	13	0	0	300	300	991	50	0	0	1	blank2r.bmp	0	1	+	0	1	blank2r.bmp	252	1	BZZB	306	3	schlecht	559	1	FEHLER	1585	0	0	0	0	0	0	0	0	0	0	0	0	0	0	0	0	0	0	0	0	0	0	0	0	0	0	0	0	0	0	0	0	0	0	0	0
070819	16:57:16	17:00:31	194621	5.0.10.0	5_exp_noRW	24	Rpleas_acq	CS_B	YDDY	MQQM	GWWG	BZZB	JXXJ	VKKV	fair	spielen	ehrlich	treu	retten	schön	faul	strafen	eitel	tot	rächen	schlecht	47pct	acq_USunple_CSunple2_noRW	acq1_noRW	1	14	0	0	300	300	1098	46	0	1	1	blank2r.bmp	0	1	+	0	1	blank2r.bmp	252	1	BZZB	306	2	rächen	559	0	0	0	0	0	0	0	0	0	0	0	0	0	0	0	0	0	0	0	0	0	0	0	0	0	0	0	0	0	0	0	0	0	0	0	0	0	0	0
070819	16:57:16	17:00:33	196447	5.0.10.0	5_exp_noRW	24	Rpleas_acq	CS_B	YDDY	MQQM	GWWG	BZZB	JXXJ	VKKV	fair	spielen	ehrlich	treu	retten	schön	faul	strafen	eitel	tot	rächen	schlecht	53pct	acq_USpleas_CSpleas1_noRW	acq1_noRW	1	15	0	0	300	300	656	50	0	1	1	blank2r.bmp	0	1	+	0	1	blank2r.bmp	252	1	YDDY	306	3	ehrlich	559	0	0	0	0	0	0	0	0	0	0	0	0	0	0	0	0	0	0	0	0	0	0	0	0	0	0	0	0	0	0	0	0	0	0	0	0	0	0	0
070819	16:57:16	17:00:35	198540	5.0.10.0	5_exp_noRW	24	Rpleas_acq	CS_B	YDDY	MQQM	GWWG	BZZB	JXXJ	VKKV	fair	spielen	ehrlich	treu	retten	schön	faul	strafen	eitel	tot	rächen	schlecht	53pct	acq_USpleas_CSpleas2_noRW	acq1_noRW	1	16	0	0	300	300	930	50	0	1	1	blank2r.bmp	0	1	+	0	1	blank2r.bmp	252	1	MQQM	306	3	schön	559	0	0	0	0	0	0	0	0	0	0	0	0	0	0	0	0	0	0	0	0	0	0	0	0	0	0	0	0	0	0	0	0	0	0	0	0	0	0	0
070819	16:57:16	17:00:37	200232	5.0.10.0	5_exp_noRW	24	Rpleas_acq	CS_B	YDDY	MQQM	GWWG	BZZB	JXXJ	VKKV	fair	spielen	ehrlich	treu	retten	schön	faul	strafen	eitel	tot	rächen	schlecht	47pct	acq_USpleas_CSunple1_noRW	acq1_noRW	1	17	0	0	300	300	515	50	0	1	1	blank2r.bmp	0	1	+	0	1	blank2r.bmp	252	1	GWWG	306	2	spielen	559	0	0	0	0	0	0	0	0	0	0	0	0	0	0	0	0	0	0	0	0	0	0	0	0	0	0	0	0	0	0	0	0	0	0	0	0	0	0	0
070819	16:57:16	17:00:39	201991	5.0.10.0	5_exp_noRW	24	Rpleas_acq	CS_B	YDDY	MQQM	GWWG	BZZB	JXXJ	VKKV	fair	spielen	ehrlich	treu	retten	schön	faul	strafen	eitel	tot	rächen	schlecht	47pct	acq_USunple_CSpleas1_noRW	acq1_noRW	1	18	0	0	300	300	576	46	0	1	1	blank2r.bmp	0	1	+	0	1	blank2r.bmp	252	1	YDDY	306	3	eitel	559	0	0	0	0	0	0	0	0	0	0	0	0	0	0	0	0	0	0	0	0	0	0	0	0	0	0	0	0	0	0	0	0	0	0	0	0	0	0	0
070819	16:57:16	17:00:41	203844	5.0.10.0	5_exp_noRW	24	Rpleas_acq	CS_B	YDDY	MQQM	GWWG	BZZB	JXXJ	VKKV	fair	spielen	ehrlich	treu	retten	schön	faul	strafen	eitel	tot	rächen	schlecht	53pct	acq_USpleas_CSpleas1_noRW	acq1_noRW	1	19	0	0	300	300	670	50	0	1	1	blank2r.bmp	0	1	+	0	1	blank2r.bmp	252	1	YDDY	306	3	ehrlich	559	0	0	0	0	0	0	0	0	0	0	0	0	0	0	0	0	0	0	0	0	0	0	0	0	0	0	0	0	0	0	0	0	0	0	0	0	0	0	0
070819	16:57:16	17:00:42	205577	5.0.10.0	5_exp_noRW	24	Rpleas_acq	CS_B	YDDY	MQQM	GWWG	BZZB	JXXJ	VKKV	fair	spielen	ehrlich	treu	retten	schön	faul	strafen	eitel	tot	rächen	schlecht	47pct	acq_USunple_CSunple1_noRW	acq1_noRW	1	20	0	0	300	300	554	46	0	1	1	blank2r.bmp	0	1	+	0	1	blank2r.bmp	252	1	GWWG	306	2	strafen	559	0	0	0	0	0	0	0	0	0	0	0	0	0	0	0	0	0	0	0	0	0	0	0	0	0	0	0	0	0	0	0	0	0	0	0	0	0	0	0
070819	16:57:16	17:00:44	207216	5.0.10.0	5_exp_noRW	24	Rpleas_acq	CS_B	YDDY	MQQM	GWWG	BZZB	JXXJ	VKKV	fair	spielen	ehrlich	treu	retten	schön	faul	strafen	eitel	tot	rächen	schlecht	47pct	acq_USunple_CSunple2_noRW	acq1_noRW	1	21	0	0	300	300	463	46	0	1	1	blank2r.bmp	0	1	+	0	1	blank2r.bmp	252	1	BZZB	306	3	schlecht	559	0	0	0	0	0	0	0	0	0	0	0	0	0	0	0	0	0	0	0	0	0	0	0	0	0	0	0	0	0	0	0	0	0	0	0	0	0	0	0
070819	16:57:16	17:00:46	208802	5.0.10.0	5_exp_noRW	24	Rpleas_acq	CS_B	YDDY	MQQM	GWWG	BZZB	JXXJ	VKKV	fair	spielen	ehrlich	treu	retten	schön	faul	strafen	eitel	tot	rächen	schlecht	47pct	acq_USunple_CSunple2_noRW	acq1_noRW	1	22	0	0	300	300	403	46	0	1	1	blank2r.bmp	0	1	+	0	1	blank2r.bmp	252	1	BZZB	306	1	tot	559	0	0	0	0	0	0	0	0	0	0	0	0	0	0	0	0	0	0	0	0	0	0	0	0	0	0	0	0	0	0	0	0	0	0	0	0	0	0	0
070819	16:57:16	17:00:47	210335	5.0.10.0	5_exp_noRW	24	Rpleas_acq	CS_B	YDDY	MQQM	GWWG	BZZB	JXXJ	VKKV	fair	spielen	ehrlich	treu	retten	schön	faul	strafen	eitel	tot	rächen	schlecht	47pct	acq_USpleas_CSpleas1_noRW	acq1_noRW	1	23	0	0	300	300	364	50	0	1	1	blank2r.bmp	0	1	+	0	1	blank2r.bmp	252	1	YDDY	306	2	spielen	559	0	0	0	0	0	0	0	0	0	0	0	0	0	0	0	0	0	0	0	0	0	0	0	0	0	0	0	0	0	0	0	0	0	0	0	0	0	0	0
070819	16:57:16	17:00:49	212160	5.0.10.0	5_exp_noRW	24	Rpleas_acq	CS_B	YDDY	MQQM	GWWG	BZZB	JXXJ	VKKV	fair	spielen	ehrlich	treu	retten	schön	faul	strafen	eitel	tot	rächen	schlecht	47pct	acq_USpleas_CSpleas2_noRW	acq1_noRW	1	24	0	0	300	300	434	46	0	0	1	blank2r.bmp	0	1	+	0	1	blank2r.bmp	252	1	MQQM	306	1	treu	559	1	FEHLER	1026	0	0	0	0	0	0	0	0	0	0	0	0	0	0	0	0	0	0	0	0	0	0	0	0	0	0	0	0	0	0	0	0	0	0	0	0
070819	16:57:16	17:00:51	213693	5.0.10.0	5_exp_noRW	24	Rpleas_acq	CS_B	YDDY	MQQM	GWWG	BZZB	JXXJ	VKKV	fair	spielen	ehrlich	treu	retten	schön	faul	strafen	eitel	tot	rächen	schlecht	47pct	acq_USunple_CSunple2_noRW	acq1_noRW	1	25	0	0	300	300	563	46	0	1	1	blank2r.bmp	0	1	+	0	1	blank2r.bmp	252	1	BZZB	306	2	rächen	559	0	0	0	0	0	0	0	0	0	0	0	0	0	0	0	0	0	0	0	0	0	0	0	0	0	0	0	0	0	0	0	0	0	0	0	0	0	0	0
070819	16:57:16	17:00:52	215426	5.0.10.0	5_exp_noRW	24	Rpleas_acq	CS_B	YDDY	MQQM	GWWG	BZZB	JXXJ	VKKV	fair	spielen	ehrlich	treu	retten	schön	faul	strafen	eitel	tot	rächen	schlecht	53pct	acq_USunple_CSunple1_noRW	acq1_noRW	1	26	0	0	300	300	550	46	0	1	1	blank2r.bmp	0	1	+	0	1	blank2r.bmp	252	1	GWWG	306	3	eitel	559	0	0	0	0	0	0	0	0	0	0	0	0	0	0	0	0	0	0	0	0	0	0	0	0	0	0	0	0	0	0	0	0	0	0	0	0	0	0	0
070819	16:57:16	17:00:54	217225	5.0.10.0	5_exp_noRW	24	Rpleas_acq	CS_B	YDDY	MQQM	GWWG	BZZB	JXXJ	VKKV	fair	spielen	ehrlich	treu	retten	schön	faul	strafen	eitel	tot	rächen	schlecht	53pct	acq_USunple_CSunple1_noRW	acq1_noRW	1	27	0	0	300	300	621	46	0	1	1	blank2r.bmp	0	1	+	0	1	blank2r.bmp	252	1	GWWG	306	1	faul	559	0	0	0	0	0	0	0	0	0	0	0	0	0	0	0	0	0	0	0	0	0	0	0	0	0	0	0	0	0	0	0	0	0	0	0	0	0	0	0
070819	16:57:16	17:00:56	218851	5.0.10.0	5_exp_noRW	24	Rpleas_acq	CS_B	YDDY	MQQM	GWWG	BZZB	JXXJ	VKKV	fair	spielen	ehrlich	treu	retten	schön	faul	strafen	eitel	tot	rächen	schlecht	47pct	acq_USpleas_CSpleas2_noRW	acq1_noRW	1	28	0	0	300	300	446	50	0	1	1	blank2r.bmp	0	1	+	0	1	blank2r.bmp	252	1	MQQM	306	2	retten	559	0	0	0	0	0	0	0	0	0	0	0	0	0	0	0	0	0	0	0	0	0	0	0	0	0	0	0	0	0	0	0	0	0	0	0	0	0	0	0
070819	16:57:16	17:00:57	220597	5.0.10.0	5_exp_noRW	24	Rpleas_acq	CS_B	YDDY	MQQM	GWWG	BZZB	JXXJ	VKKV	fair	spielen	ehrlich	treu	retten	schön	faul	strafen	eitel	tot	rächen	schlecht	53pct	acq_USunple_CSunple2_noRW	acq1_noRW	1	29	0	0	300	300	566	46	0	1	1	blank2r.bmp	0	1	+	0	1	blank2r.bmp	252	1	BZZB	306	3	schlecht	559	0	0	0	0	0	0	0	0	0	0	0	0	0	0	0	0	0	0	0	0	0	0	0	0	0	0	0	0	0	0	0	0	0	0	0	0	0	0	0
070819	16:57:16	17:00:59	222303	5.0.10.0	5_exp_noRW	24	Rpleas_acq	CS_B	YDDY	MQQM	GWWG	BZZB	JXXJ	VKKV	fair	spielen	ehrlich	treu	retten	schön	faul	strafen	eitel	tot	rächen	schlecht	53pct	acq_USpleas_CSpleas1_noRW	acq1_noRW	1	30	0	0	300	300	523	50	0	1	1	blank2r.bmp	0	1	+	0	1	blank2r.bmp	252	1	YDDY	306	1	fair	559	0	0	0	0	0	0	0	0	0	0	0	0	0	0	0	0	0	0	0	0	0	0	0	0	0	0	0	0	0	0	0	0	0	0	0	0	0	0	0
070819	16:57:16	17:01:01	223995	5.0.10.0	5_exp_noRW	24	Rpleas_acq	CS_B	YDDY	MQQM	GWWG	BZZB	JXXJ	VKKV	fair	spielen	ehrlich	treu	retten	schön	faul	strafen	eitel	tot	rächen	schlecht	47pct	acq_USunple_CSpleas1_noRW	acq1_noRW	1	31	0	0	300	300	504	46	0	1	1	blank2r.bmp	0	1	+	0	1	blank2r.bmp	252	1	YDDY	306	2	strafen	559	0	0	0	0	0	0	0	0	0	0	0	0	0	0	0	0	0	0	0	0	0	0	0	0	0	0	0	0	0	0	0	0	0	0	0	0	0	0	0
070819	16:57:16	17:01:02	225648	5.0.10.0	5_exp_noRW	24	Rpleas_acq	CS_B	YDDY	MQQM	GWWG	BZZB	JXXJ	VKKV	fair	spielen	ehrlich	treu	retten	schön	faul	strafen	eitel	tot	rächen	schlecht	53pct	acq_USunple_CSpleas2_noRW	acq1_noRW	1	32	0	0	300	300	488	46	0	1	1	blank2r.bmp	0	1	+	0	1	blank2r.bmp	252	1	MQQM	306	3	schlecht	559	0	0	0	0	0	0	0	0	0	0	0	0	0	0	0	0	0	0	0	0	0	0	0	0	0	0	0	0	0	0	0	0	0	0	0	0	0	0	0
070819	16:57:16	17:01:04	227247	5.0.10.0	5_exp_noRW	24	Rpleas_acq	CS_B	YDDY	MQQM	GWWG	BZZB	JXXJ	VKKV	fair	spielen	ehrlich	treu	retten	schön	faul	strafen	eitel	tot	rächen	schlecht	47pct	acq_USpleas_CSunple2_noRW	acq1_noRW	1	33	0	0	300	300	428	50	0	1	1	blank2r.bmp	0	1	+	0	1	blank2r.bmp	252	1	BZZB	306	1	treu	559	0	0	0	0	0	0	0	0	0	0	0	0	0	0	0	0	0	0	0	0	0	0	0	0	0	0	0	0	0	0	0	0	0	0	0	0	0	0	0
070819	16:57:16	17:01:06	228940	5.0.10.0	5_exp_noRW	24	Rpleas_acq	CS_B	YDDY	MQQM	GWWG	BZZB	JXXJ	VKKV	fair	spielen	ehrlich	treu	retten	schön	faul	strafen	eitel	tot	rächen	schlecht	47pct	acq_USpleas_CSpleas2_noRW	acq1_noRW	1	34	0	0	300	300	517	50	0	1	1	blank2r.bmp	0	1	+	0	1	blank2r.bmp	252	1	MQQM	306	1	treu	559	0	0	0	0	0	0	0	0	0	0	0	0	0	0	0	0	0	0	0	0	0	0	0	0	0	0	0	0	0	0	0	0	0	0	0	0	0	0	0
070819	16:57:16	17:01:07	230579	5.0.10.0	5_exp_noRW	24	Rpleas_acq	CS_B	YDDY	MQQM	GWWG	BZZB	JXXJ	VKKV	fair	spielen	ehrlich	treu	retten	schön	faul	strafen	eitel	tot	rächen	schlecht	47pct	acq_USpleas_CSpleas1_noRW	acq1_noRW	1	35	0	0	300	300	459	50	0	1	1	blank2r.bmp	0	1	+	0	1	blank2r.bmp	252	1	YDDY	306	3	ehrlich	559	0	0	0	0	0	0	0	0	0	0	0	0	0	0	0	0	0	0	0	0	0	0	0	0	0	0	0	0	0	0	0	0	0	0	0	0	0	0	0
070819	16:57:16	17:01:09	232138	5.0.10.0	5_exp_noRW	24	Rpleas_acq	CS_B	YDDY	MQQM	GWWG	BZZB	JXXJ	VKKV	fair	spielen	ehrlich	treu	retten	schön	faul	strafen	eitel	tot	rächen	schlecht	53pct	acq_USunple_CSunple1_noRW	acq1_noRW	1	36	0	0	300	300	395	46	0	1	1	blank2r.bmp	0	1	+	0	1	blank2r.bmp	252	1	GWWG	306	2	strafen	559	0	0	0	0	0	0	0	0	0	0	0	0	0	0	0	0	0	0	0	0	0	0	0	0	0	0	0	0	0	0	0	0	0	0	0	0	0	0	0
070819	16:57:16	17:01:11	233871	5.0.10.0	5_exp_noRW	24	Rpleas_acq	CS_B	YDDY	MQQM	GWWG	BZZB	JXXJ	VKKV	fair	spielen	ehrlich	treu	retten	schön	faul	strafen	eitel	tot	rächen	schlecht	53pct	acq_USunple_CSunple1_noRW	acq1_noRW	1	37	0	0	300	300	552	46	0	1	1	blank2r.bmp	0	1	+	0	1	blank2r.bmp	252	1	GWWG	306	3	eitel	559	0	0	0	0	0	0	0	0	0	0	0	0	0	0	0	0	0	0	0	0	0	0	0	0	0	0	0	0	0	0	0	0	0	0	0	0	0	0	0
070819	16:57:16	17:01:12	235377	5.0.10.0	5_exp_noRW	24	Rpleas_acq	CS_B	YDDY	MQQM	GWWG	BZZB	JXXJ	VKKV	fair	spielen	ehrlich	treu	retten	schön	faul	strafen	eitel	tot	rächen	schlecht	47pct	acq_USpleas_CSunple1_noRW	acq1_noRW	1	38	0	0	300	300	333	50	0	1	1	blank2r.bmp	0	1	+	0	1	blank2r.bmp	252	1	GWWG	306	3	ehrlich	559	0	0	0	0	0	0	0	0	0	0	0	0	0	0	0	0	0	0	0	0	0	0	0	0	0	0	0	0	0	0	0	0	0	0	0	0	0	0	0
070819	16:57:16	17:01:14	237296	5.0.10.0	5_exp_noRW	24	Rpleas_acq	CS_B	YDDY	MQQM	GWWG	BZZB	JXXJ	VKKV	fair	spielen	ehrlich	treu	retten	schön	faul	strafen	eitel	tot	rächen	schlecht	47pct	acq_USpleas_CSpleas2_noRW	acq1_noRW	1	39	0	0	300	300	740	50	0	1	1	blank2r.bmp	0	1	+	0	1	blank2r.bmp	252	1	MQQM	306	2	retten	559	0	0	0	0	0	0	0	0	0	0	0	0	0	0	0	0	0	0	0	0	0	0	0	0	0	0	0	0	0	0	0	0	0	0	0	0	0	0	0
070819	16:57:16	17:01:16	238895	5.0.10.0	5_exp_noRW	24	Rpleas_acq	CS_B	YDDY	MQQM	GWWG	BZZB	JXXJ	VKKV	fair	spielen	ehrlich	treu	retten	schön	faul	strafen	eitel	tot	rächen	schlecht	47pct	acq_USpleas_CSpleas1_noRW	acq1_noRW	1	40	0	0	300	300	423	50	0	1	1	blank2r.bmp	0	1	+	0	1	blank2r.bmp	252	1	YDDY	306	2	spielen	559	0	0	0	0	0	0	0	0	0	0	0	0	0	0	0	0	0	0	0	0	0	0	0	0	0	0	0	0	0	0	0	0	0	0	0	0	0	0	0
070819	16:57:16	17:01:17	240481	5.0.10.0	5_exp_noRW	24	Rpleas_acq	CS_B	YDDY	MQQM	GWWG	BZZB	JXXJ	VKKV	fair	spielen	ehrlich	treu	retten	schön	faul	strafen	eitel	tot	rächen	schlecht	47pct	acq_USpleas_CSpleas1_noRW	acq1_noRW	1	41	0	0	300	300	403	50	0	1	1	blank2r.bmp	0	1	+	0	1	blank2r.bmp	252	1	YDDY	306	1	fair	559	0	0	0	0	0	0	0	0	0	0	0	0	0	0	0	0	0	0	0	0	0	0	0	0	0	0	0	0	0	0	0	0	0	0	0	0	0	0	0
070819	16:57:16	17:01:19	241987	5.0.10.0	5_exp_noRW	24	Rpleas_acq	CS_B	YDDY	MQQM	GWWG	BZZB	JXXJ	VKKV	fair	spielen	ehrlich	treu	retten	schön	faul	strafen	eitel	tot	rächen	schlecht	47pct	acq_USpleas_CSpleas1_noRW	acq1_noRW	1	42	0	0	300	300	334	50	0	1	1	blank2r.bmp	0	1	+	0	1	blank2r.bmp	252	1	YDDY	306	1	fair	559	0	0	0	0	0	0	0	0	0	0	0	0	0	0	0	0	0	0	0	0	0	0	0	0	0	0	0	0	0	0	0	0	0	0	0	0	0	0	0
070819	16:57:16	17:01:20	243533	5.0.10.0	5_exp_noRW	24	Rpleas_acq	CS_B	YDDY	MQQM	GWWG	BZZB	JXXJ	VKKV	fair	spielen	ehrlich	treu	retten	schön	faul	strafen	eitel	tot	rächen	schlecht	47pct	acq_USpleas_CSpleas2_noRW	acq1_noRW	1	43	0	0	300	300	377	50	0	1	1	blank2r.bmp	0	1	+	0	1	blank2r.bmp	252	1	MQQM	306	3	schön	559	0	0	0	0	0	0	0	0	0	0	0	0	0	0	0	0	0	0	0	0	0	0	0	0	0	0	0	0	0	0	0	0	0	0	0	0	0	0	0
070819	16:57:16	17:01:22	245133	5.0.10.0	5_exp_noRW	24	Rpleas_acq	CS_B	YDDY	MQQM	GWWG	BZZB	JXXJ	VKKV	fair	spielen	ehrlich	treu	retten	schön	faul	strafen	eitel	tot	rächen	schlecht	53pct	acq_USunple_CSpleas2_noRW	acq1_noRW	1	44	0	0	300	300	420	46	0	1	1	blank2r.bmp	0	1	+	0	1	blank2r.bmp	252	1	MQQM	306	1	tot	559	0	0	0	0	0	0	0	0	0	0	0	0	0	0	0	0	0	0	0	0	0	0	0	0	0	0	0	0	0	0	0	0	0	0	0	0	0	0	0
070819	16:57:16	17:01:24	246772	5.0.10.0	5_exp_noRW	24	Rpleas_acq	CS_B	YDDY	MQQM	GWWG	BZZB	JXXJ	VKKV	fair	spielen	ehrlich	treu	retten	schön	faul	strafen	eitel	tot	rächen	schlecht	47pct	acq_USunple_CSunple1_noRW	acq1_noRW	1	45	0	0	300	300	470	46	0	1	1	blank2r.bmp	0	1	+	0	1	blank2r.bmp	252	1	GWWG	306	1	faul	559	0	0	0	0	0	0	0	0	0	0	0	0	0	0	0	0	0	0	0	0	0	0	0	0	0	0	0	0	0	0	0	0	0	0	0	0	0	0	0
070819	16:57:16	17:01:25	248491	5.0.10.0	5_exp_noRW	24	Rpleas_acq	CS_B	YDDY	MQQM	GWWG	BZZB	JXXJ	VKKV	fair	spielen	ehrlich	treu	retten	schön	faul	strafen	eitel	tot	rächen	schlecht	47pct	acq_USpleas_CSpleas2_noRW	acq1_noRW	1	46	0	0	300	300	551	50	0	1	1	blank2r.bmp	0	1	+	0	1	blank2r.bmp	252	1	MQQM	306	1	treu	559	0	0	0	0	0	0	0	0	0	0	0	0	0	0	0	0	0	0	0	0	0	0	0	0	0	0	0	0	0	0	0	0	0	0	0	0	0	0	0
070819	16:57:16	17:01:27	250171	5.0.10.0	5_exp_noRW	24	Rpleas_acq	CS_B	YDDY	MQQM	GWWG	BZZB	JXXJ	VKKV	fair	spielen	ehrlich	treu	retten	schön	faul	strafen	eitel	tot	rächen	schlecht	47pct	acq_USunple_CSunple1_noRW	acq1_noRW	1	47	0	0	300	300	498	46	0	1	1	blank2r.bmp	0	1	+	0	1	blank2r.bmp	252	1	GWWG	306	3	eitel	559	0	0	0	0	0	0	0	0	0	0	0	0	0	0	0	0	0	0	0	0	0	0	0	0	0	0	0	0	0	0	0	0	0	0	0	0	0	0	0
070819	16:57:16	17:01:29	252063	5.0.10.0	5_exp_noRW	24	Rpleas_acq	CS_B	YDDY	MQQM	GWWG	BZZB	JXXJ	VKKV	fair	spielen	ehrlich	treu	retten	schön	faul	strafen	eitel	tot	rächen	schlecht	53pct	acq_USunple_CSpleas1_noRW	acq1_noRW	1	48	0	0	300	300	515	50	0	0	1	blank2r.bmp	0	1	+	0	1	blank2r.bmp	252	1	YDDY	306	1	faul	559	1	FEHLER	1106	0	0	0	0	0	0	0	0	0	0	0	0	0	0	0	0	0	0	0	0	0	0	0	0	0	0	0	0	0	0	0	0	0	0	0	0
070819	16:57:16	17:01:30	253556	5.0.10.0	5_exp_noRW	24	Rpleas_acq	CS_B	YDDY	MQQM	GWWG	BZZB	JXXJ	VKKV	fair	spielen	ehrlich	treu	retten	schön	faul	strafen	eitel	tot	rächen	schlecht	53pct	acq_USunple_CSunple1_noRW	acq1_noRW	1	49	0	0	300	300	519	46	0	1	1	blank2r.bmp	0	1	+	0	1	blank2r.bmp	252	1	GWWG	306	1	faul	559	0	0	0	0	0	0	0	0	0	0	0	0	0	0	0	0	0	0	0	0	0	0	0	0	0	0	0	0	0	0	0	0	0	0	0	0	0	0	0
070819	16:57:16	17:01:32	255102	5.0.10.0	5_exp_noRW	24	Rpleas_acq	CS_B	YDDY	MQQM	GWWG	BZZB	JXXJ	VKKV	fair	spielen	ehrlich	treu	retten	schön	faul	strafen	eitel	tot	rächen	schlecht	53pct	acq_USunple_CSunple2_noRW	acq1_noRW	1	50	0	0	300	300	374	46	0	1	1	blank2r.bmp	0	1	+	0	1	blank2r.bmp	252	1	BZZB	306	1	tot	559	0	0	0	0	0	0	0	0	0	0	0	0	0	0	0	0	0	0	0	0	0	0	0	0	0	0	0	0	0	0	0	0	0	0	0	0	0	0	0
070819	16:57:16	17:01:34	256901	5.0.10.0	5_exp_noRW	24	Rpleas_acq	CS_B	YDDY	MQQM	GWWG	BZZB	JXXJ	VKKV	fair	spielen	ehrlich	treu	retten	schön	faul	strafen	eitel	tot	rächen	schlecht	47pct	acq_USunple_CSunple2_noRW	acq1_noRW	1	51	0	0	300	300	634	46	0	1	1	blank2r.bmp	0	1	+	0	1	blank2r.bmp	252	1	BZZB	306	2	rächen	559	0	0	0	0	0	0	0	0	0	0	0	0	0	0	0	0	0	0	0	0	0	0	0	0	0	0	0	0	0	0	0	0	0	0	0	0	0	0	0
070819	16:57:16	17:01:35	258527	5.0.10.0	5_exp_noRW	24	Rpleas_acq	CS_B	YDDY	MQQM	GWWG	BZZB	JXXJ	VKKV	fair	spielen	ehrlich	treu	retten	schön	faul	strafen	eitel	tot	rächen	schlecht	47pct	acq_USpleas_CSpleas2_noRW	acq1_noRW	1	52	0	0	300	300	439	50	0	1	1	blank2r.bmp	0	1	+	0	1	blank2r.bmp	252	1	MQQM	306	3	schön	559	0	0	0	0	0	0	0	0	0	0	0	0	0	0	0	0	0	0	0	0	0	0	0	0	0	0	0	0	0	0	0	0	0	0	0	0	0	0	0
070819	16:57:16	17:01:37	260206	5.0.10.0	5_exp_noRW	24	Rpleas_acq	CS_B	YDDY	MQQM	GWWG	BZZB	JXXJ	VKKV	fair	spielen	ehrlich	treu	retten	schön	faul	strafen	eitel	tot	rächen	schlecht	53pct	acq_USunple_CSunple2_noRW	acq1_noRW	1	53	0	0	300	300	500	46	0	1	1	blank2r.bmp	0	1	+	0	1	blank2r.bmp	252	1	BZZB	306	1	tot	559	0	0	0	0	0	0	0	0	0	0	0	0	0	0	0	0	0	0	0	0	0	0	0	0	0	0	0	0	0	0	0	0	0	0	0	0	0	0	0
070819	16:57:16	17:01:39	261872	5.0.10.0	5_exp_noRW	24	Rpleas_acq	CS_B	YDDY	MQQM	GWWG	BZZB	JXXJ	VKKV	fair	spielen	ehrlich	treu	retten	schön	faul	strafen	eitel	tot	rächen	schlecht	53pct	acq_USpleas_CSpleas1_noRW	acq1_noRW	1	54	0	0	300	300	478	50	0	1	1	blank2r.bmp	0	1	+	0	1	blank2r.bmp	252	1	YDDY	306	2	spielen	559	0	0	0	0	0	0	0	0	0	0	0	0	0	0	0	0	0	0	0	0	0	0	0	0	0	0	0	0	0	0	0	0	0	0	0	0	0	0	0
070819	16:57:16	17:01:40	263498	5.0.10.0	5_exp_noRW	24	Rpleas_acq	CS_B	YDDY	MQQM	GWWG	BZZB	JXXJ	VKKV	fair	spielen	ehrlich	treu	retten	schön	faul	strafen	eitel	tot	rächen	schlecht	53pct	acq_USpleas_CSpleas2_noRW	acq1_noRW	1	55	0	0	300	300	454	50	0	1	1	blank2r.bmp	0	1	+	0	1	blank2r.bmp	252	1	MQQM	306	2	retten	559	0	0	0	0	0	0	0	0	0	0	0	0	0	0	0	0	0	0	0	0	0	0	0	0	0	0	0	0	0	0	0	0	0	0	0	0	0	0	0
070819	16:57:16	17:01:42	265097	5.0.10.0	5_exp_noRW	24	Rpleas_acq	CS_B	YDDY	MQQM	GWWG	BZZB	JXXJ	VKKV	fair	spielen	ehrlich	treu	retten	schön	faul	strafen	eitel	tot	rächen	schlecht	53pct	acq_USpleas_CSpleas1_noRW	acq1_noRW	1	56	0	0	300	300	429	50	0	1	1	blank2r.bmp	0	1	+	0	1	blank2r.bmp	252	1	YDDY	306	3	ehrlich	559	0	0	0	0	0	0	0	0	0	0	0	0	0	0	0	0	0	0	0	0	0	0	0	0	0	0	0	0	0	0	0	0	0	0	0	0	0	0	0
070819	16:57:16	17:01:44	266883	5.0.10.0	5_exp_noRW	24	Rpleas_acq	CS_B	YDDY	MQQM	GWWG	BZZB	JXXJ	VKKV	fair	spielen	ehrlich	treu	retten	schön	faul	strafen	eitel	tot	rächen	schlecht	47pct	acq_USunple_CSunple1_noRW	acq1_noRW	1	57	0	0	300	300	405	50	0	0	1	blank2r.bmp	0	1	+	0	1	blank2r.bmp	252	1	GWWG	306	2	strafen	559	1	FEHLER	999	0	0	0	0	0	0	0	0	0	0	0	0	0	0	0	0	0	0	0	0	0	0	0	0	0	0	0	0	0	0	0	0	0	0	0	0
070819	16:57:16	17:01:45	268269	5.0.10.0	5_exp_noRW	24	Rpleas_acq	CS_B	YDDY	MQQM	GWWG	BZZB	JXXJ	VKKV	fair	spielen	ehrlich	treu	retten	schön	faul	strafen	eitel	tot	rächen	schlecht	53pct	acq_USpleas_CSunple1_noRW	acq1_noRW	1	58	0	0	300	300	423	50	0	1	1	blank2r.bmp	0	1	+	0	1	blank2r.bmp	252	1	GWWG	306	1	fair	559	0	0	0	0	0	0	0	0	0	0	0	0	0	0	0	0	0	0	0	0	0	0	0	0	0	0	0	0	0	0	0	0	0	0	0	0	0	0	0
070819	16:57:16	17:01:47	270069	5.0.10.0	5_exp_noRW	24	Rpleas_acq	CS_B	YDDY	MQQM	GWWG	BZZB	JXXJ	VKKV	fair	spielen	ehrlich	treu	retten	schön	faul	strafen	eitel	tot	rächen	schlecht	53pct	acq_USunple_CSunple2_noRW	acq1_noRW	1	59	0	0	300	300	615	46	0	1	1	blank2r.bmp	0	1	+	0	1	blank2r.bmp	252	1	BZZB	306	3	schlecht	559	0	0	0	0	0	0	0	0	0	0	0	0	0	0	0	0	0	0	0	0	0	0	0	0	0	0	0	0	0	0	0	0	0	0	0	0	0	0	0
070819	16:57:16	17:01:49	272014	5.0.10.0	5_exp_noRW	24	Rpleas_acq	CS_B	YDDY	MQQM	GWWG	BZZB	JXXJ	VKKV	fair	spielen	ehrlich	treu	retten	schön	faul	strafen	eitel	tot	rächen	schlecht	53pct	acq_USpleas_CSunple2_noRW	acq1_noRW	1	60	0	0	300	300	766	50	0	1	1	blank2r.bmp	0	1	+	0	1	blank2r.bmp	252	1	BZZB	306	3	schön	559	0	0	0	0	0	0	0	0	0	0	0	0	0	0	0	0	0	0	0	0	0	0	0	0	0	0	0	0	0	0	0	0	0	0	0	0	0	0	0
070819	16:57:16	17:01:50	273640	5.0.10.0	5_exp_noRW	24	Rpleas_acq	CS_B	YDDY	MQQM	GWWG	BZZB	JXXJ	VKKV	fair	spielen	ehrlich	treu	retten	schön	faul	strafen	eitel	tot	rächen	schlecht	53pct	acq_USunple_CSunple1_noRW	acq1_noRW	1	61	0	0	300	300	437	46	0	1	1	blank2r.bmp	0	1	+	0	1	blank2r.bmp	252	1	GWWG	306	1	faul	559	0	0	0	0	0	0	0	0	0	0	0	0	0	0	0	0	0	0	0	0	0	0	0	0	0	0	0	0	0	0	0	0	0	0	0	0	0	0	0
070819	16:57:16	17:01:52	275346	5.0.10.0	5_exp_noRW	24	Rpleas_acq	CS_B	YDDY	MQQM	GWWG	BZZB	JXXJ	VKKV	fair	spielen	ehrlich	treu	retten	schön	faul	strafen	eitel	tot	rächen	schlecht	47pct	acq_USunple_CSunple2_noRW	acq1_noRW	1	62	0	0	300	300	533	46	0	1	1	blank2r.bmp	0	1	+	0	1	blank2r.bmp	252	1	BZZB	306	3	schlecht	559	0	0	0	0	0	0	0	0	0	0	0	0	0	0	0	0	0	0	0	0	0	0	0	0	0	0	0	0	0	0	0	0	0	0	0	0	0	0	0
070819	16:57:16	17:01:54	276879	5.0.10.0	5_exp_noRW	24	Rpleas_acq	CS_B	YDDY	MQQM	GWWG	BZZB	JXXJ	VKKV	fair	spielen	ehrlich	treu	retten	schön	faul	strafen	eitel	tot	rächen	schlecht	47pct	acq_USunple_CSunple2_noRW	acq1_noRW	1	63	0	0	300	300	357	46	0	1	1	blank2r.bmp	0	1	+	0	1	blank2r.bmp	252	1	BZZB	306	2	rächen	559	0	0	0	0	0	0	0	0	0	0	0	0	0	0	0	0	0	0	0	0	0	0	0	0	0	0	0	0	0	0	0	0	0	0	0	0	0	0	0
070819	16:57:16	17:01:55	278452	5.0.10.0	5_exp_noRW	24	Rpleas_acq	CS_B	YDDY	MQQM	GWWG	BZZB	JXXJ	VKKV	fair	spielen	ehrlich	treu	retten	schön	faul	strafen	eitel	tot	rächen	schlecht	47pct	acq_USunple_CSunple1_noRW	acq1_noRW	1	64	0	0	300	300	403	46	0	1	1	blank2r.bmp	0	1	+	0	1	blank2r.bmp	252	1	GWWG	306	2	strafen	559	0	0	0	0	0	0	0	0	0	0	0	0	0	0	0	0	0	0	0	0	0	0	0	0	0	0	0	0	0	0	0	0	0	0	0	0	0	0	0
070819	16:57:16	17:01:57	280104	5.0.10.0	5_exp_noRW	24	Rpleas_acq	CS_B	YDDY	MQQM	GWWG	BZZB	JXXJ	VKKV	fair	spielen	ehrlich	treu	retten	schön	faul	strafen	eitel	tot	rächen	schlecht	53pct	acq_USpleas_CSpleas1_noRW	acq1_noRW	1	65	0	0	300	300	490	50	0	1	1	blank2r.bmp	0	1	+	0	1	blank2r.bmp	252	1	YDDY	306	1	fair	559	0	0	0	0	0	0	0	0	0	0	0	0	0	0	0	0	0	0	0	0	0	0	0	0	0	0	0	0	0	0	0	0	0	0	0	0	0	0	0
070819	16:57:16	17:01:59	281930	5.0.10.0	5_exp_noRW	24	Rpleas_acq	CS_B	YDDY	MQQM	GWWG	BZZB	JXXJ	VKKV	fair	spielen	ehrlich	treu	retten	schön	faul	strafen	eitel	tot	rächen	schlecht	53pct	acq_USunple_CSpleas1_noRW	acq1_noRW	1	66	0	0	300	300	649	46	0	1	1	blank2r.bmp	0	1	+	0	1	blank2r.bmp	252	1	YDDY	306	2	strafen	559	0	0	0	0	0	0	0	0	0	0	0	0	0	0	0	0	0	0	0	0	0	0	0	0	0	0	0	0	0	0	0	0	0	0	0	0	0	0	0
070819	16:57:16	17:02:00	283463	5.0.10.0	5_exp_noRW	24	Rpleas_acq	CS_B	YDDY	MQQM	GWWG	BZZB	JXXJ	VKKV	fair	spielen	ehrlich	treu	retten	schön	faul	strafen	eitel	tot	rächen	schlecht	53pct	acq_USpleas_CSpleas2_noRW	acq1_noRW	1	67	0	0	300	300	352	50	0	1	1	blank2r.bmp	0	1	+	0	1	blank2r.bmp	252	1	MQQM	306	3	schön	559	0	0	0	0	0	0	0	0	0	0	0	0	0	0	0	0	0	0	0	0	0	0	0	0	0	0	0	0	0	0	0	0	0	0	0	0	0	0	0
070819	16:57:16	17:02:02	285062	5.0.10.0	5_exp_noRW	24	Rpleas_acq	CS_B	YDDY	MQQM	GWWG	BZZB	JXXJ	VKKV	fair	spielen	ehrlich	treu	retten	schön	faul	strafen	eitel	tot	rächen	schlecht	53pct	acq_USpleas_CSpleas1_noRW	acq1_noRW	1	68	0	0	300	300	417	50	0	1	1	blank2r.bmp	0	1	+	0	1	blank2r.bmp	252	1	YDDY	306	3	ehrlich	559	0	0	0	0	0	0	0	0	0	0	0	0	0	0	0	0	0	0	0	0	0	0	0	0	0	0	0	0	0	0	0	0	0	0	0	0	0	0	0
070819	16:57:16	17:02:03	286608	5.0.10.0	5_exp_noRW	24	Rpleas_acq	CS_B	YDDY	MQQM	GWWG	BZZB	JXXJ	VKKV	fair	spielen	ehrlich	treu	retten	schön	faul	strafen	eitel	tot	rächen	schlecht	47pct	acq_USpleas_CSpleas1_noRW	acq1_noRW	1	69	0	0	300	300	360	50	0	1	1	blank2r.bmp	0	1	+	0	1	blank2r.bmp	252	1	YDDY	306	2	spielen	559	0	0	0	0	0	0	0	0	0	0	0	0	0	0	0	0	0	0	0	0	0	0	0	0	0	0	0	0	0	0	0	0	0	0	0	0	0	0	0
070819	16:57:16	17:02:05	288167	5.0.10.0	5_exp_noRW	24	Rpleas_acq	CS_B	YDDY	MQQM	GWWG	BZZB	JXXJ	VKKV	fair	spielen	ehrlich	treu	retten	schön	faul	strafen	eitel	tot	rächen	schlecht	47pct	acq_USpleas_CSpleas2_noRW	acq1_noRW	1	70	0	0	300	300	390	50	0	1	1	blank2r.bmp	0	1	+	0	1	blank2r.bmp	252	1	MQQM	306	2	retten	559	0	0	0	0	0	0	0	0	0	0	0	0	0	0	0	0	0	0	0	0	0	0	0	0	0	0	0	0	0	0	0	0	0	0	0	0	0	0	0
070819	16:57:16	17:02:07	289807	5.0.10.0	5_exp_noRW	24	Rpleas_acq	CS_B	YDDY	MQQM	GWWG	BZZB	JXXJ	VKKV	fair	spielen	ehrlich	treu	retten	schön	faul	strafen	eitel	tot	rächen	schlecht	47pct	acq_USpleas_CSpleas2_noRW	acq1_noRW	1	71	0	0	300	300	474	50	0	1	1	blank2r.bmp	0	1	+	0	1	blank2r.bmp	252	1	MQQM	306	1	treu	559	0	0	0	0	0	0	0	0	0	0	0	0	0	0	0	0	0	0	0	0	0	0	0	0	0	0	0	0	0	0	0	0	0	0	0	0	0	0	0
070819	16:57:16	17:02:08	291339	5.0.10.0	5_exp_noRW	24	Rpleas_acq	CS_B	YDDY	MQQM	GWWG	BZZB	JXXJ	VKKV	fair	spielen	ehrlich	treu	retten	schön	faul	strafen	eitel	tot	rächen	schlecht	47pct	acq_USpleas_CSunple2_noRW	acq1_noRW	1	72	0	0	300	300	364	50	0	1	1	blank2r.bmp	0	1	+	0	1	blank2r.bmp	252	1	BZZB	306	3	schön	559	0	0	0	0	0	0	0	0	0	0	0	0	0	0	0	0	0	0	0	0	0	0	0	0	0	0	0	0	0	0	0	0	0	0	0	0	0	0	0
070819	16:57:16	17:02:10	292805	5.0.10.0	5_exp_noRW	24	Rpleas_acq	CS_B	YDDY	MQQM	GWWG	BZZB	JXXJ	VKKV	fair	spielen	ehrlich	treu	retten	schön	faul	strafen	eitel	tot	rächen	schlecht	53pct	acq_USpleas_CSpleas2_noRW	acq1_noRW	1	73	0	0	300	300	301	50	0	1	1	blank2r.bmp	0	1	+	0	1	blank2r.bmp	252	1	MQQM	306	3	schön	559	0	0	0	0	0	0	0	0	0	0	0	0	0	0	0	0	0	0	0	0	0	0	0	0	0	0	0	0	0	0	0	0	0	0	0	0	0	0	0
070819	16:57:16	17:02:11	294351	5.0.10.0	5_exp_noRW	24	Rpleas_acq	CS_B	YDDY	MQQM	GWWG	BZZB	JXXJ	VKKV	fair	spielen	ehrlich	treu	retten	schön	faul	strafen	eitel	tot	rächen	schlecht	53pct	acq_USpleas_CSunple1_noRW	acq1_noRW	1	74	0	0	300	300	361	50	0	1	1	blank2r.bmp	0	1	+	0	1	blank2r.bmp	252	1	GWWG	306	2	spielen	559	0	0	0	0	0	0	0	0	0	0	0	0	0	0	0	0	0	0	0	0	0	0	0	0	0	0	0	0	0	0	0	0	0	0	0	0	0	0	0
070819	16:57:16	17:02:13	295884	5.0.10.0	5_exp_noRW	24	Rpleas_acq	CS_B	YDDY	MQQM	GWWG	BZZB	JXXJ	VKKV	fair	spielen	ehrlich	treu	retten	schön	faul	strafen	eitel	tot	rächen	schlecht	47pct	acq_USunple_CSunple2_noRW	acq1_noRW	1	75	0	0	300	300	359	46	0	1	1	blank2r.bmp	0	1	+	0	1	blank2r.bmp	252	1	BZZB	306	1	tot	559	0	0	0	0	0	0	0	0	0	0	0	0	0	0	0	0	0	0	0	0	0	0	0	0	0	0	0	0	0	0	0	0	0	0	0	0	0	0	0
070819	16:57:16	17:02:14	297363	5.0.10.0	5_exp_noRW	24	Rpleas_acq	CS_B	YDDY	MQQM	GWWG	BZZB	JXXJ	VKKV	fair	spielen	ehrlich	treu	retten	schön	faul	strafen	eitel	tot	rächen	schlecht	47pct	acq_USpleas_CSpleas1_noRW	acq1_noRW	1	76	0	0	300	300	313	50	0	1	1	blank2r.bmp	0	1	+	0	1	blank2r.bmp	252	1	YDDY	306	1	fair	559	0	0	0	0	0	0	0	0	0	0	0	0	0	0	0	0	0	0	0	0	0	0	0	0	0	0	0	0	0	0	0	0	0	0	0	0	0	0	0
070819	16:57:16	17:02:16	298883	5.0.10.0	5_exp_noRW	24	Rpleas_acq	CS_B	YDDY	MQQM	GWWG	BZZB	JXXJ	VKKV	fair	spielen	ehrlich	treu	retten	schön	faul	strafen	eitel	tot	rächen	schlecht	47pct	acq_USunple_CSpleas2_noRW	acq1_noRW	1	77	0	0	300	300	332	46	0	1	1	blank2r.bmp	0	1	+	0	1	blank2r.bmp	252	1	MQQM	306	1	tot	559	0	0	0	0	0	0	0	0	0	0	0	0	0	0	0	0	0	0	0	0	0	0	0	0	0	0	0	0	0	0	0	0	0	0	0	0	0	0	0
070819	16:57:16	17:02:17	300509	5.0.10.0	5_exp_noRW	24	Rpleas_acq	CS_B	YDDY	MQQM	GWWG	BZZB	JXXJ	VKKV	fair	spielen	ehrlich	treu	retten	schön	faul	strafen	eitel	tot	rächen	schlecht	53pct	acq_USunple_CSunple2_noRW	acq1_noRW	1	78	0	0	300	300	442	46	0	1	1	blank2r.bmp	0	1	+	0	1	blank2r.bmp	252	1	BZZB	306	2	rächen	559	0	0	0	0	0	0	0	0	0	0	0	0	0	0	0	0	0	0	0	0	0	0	0	0	0	0	0	0	0	0	0	0	0	0	0	0	0	0	0
070819	16:57:16	17:02:19	302255	5.0.10.0	5_exp_noRW	24	Rpleas_acq	CS_B	YDDY	MQQM	GWWG	BZZB	JXXJ	VKKV	fair	spielen	ehrlich	treu	retten	schön	faul	strafen	eitel	tot	rächen	schlecht	53pct	acq_USunple_CSunple1_noRW	acq1_noRW	1	79	0	0	300	300	578	46	0	1	1	blank2r.bmp	0	1	+	0	1	blank2r.bmp	252	1	GWWG	306	3	eitel	559	0	0	0	0	0	0	0	0	0	0	0	0	0	0	0	0	0	0	0	0	0	0	0	0	0	0	0	0	0	0	0	0	0	0	0	0	0	0	0
070819	16:57:16	17:02:21	303881	5.0.10.0	5_exp_noRW	24	Rpleas_acq	CS_B	YDDY	MQQM	GWWG	BZZB	JXXJ	VKKV	fair	spielen	ehrlich	treu	retten	schön	faul	strafen	eitel	tot	rächen	schlecht	53pct	acq_USunple_CSunple1_noRW	acq1_noRW	1	80	0	0	300	300	460	46	0	1	1	blank2r.bmp	0	1	+	0	1	blank2r.bmp	252	1	GWWG	306	2	strafen	559	0	0	0	0	0	0	0	0	0	0	0	0	0	0	0	0	0	0	0	0	0	0	0	0	0	0	0	0	0	0	0	0	0	0	0	0	0	0	0
070819	16:57:16	17:02:34	317328	5.0.10.0	5_exp_noRW	24	Rpleas_acq	CS_B	YDDY	MQQM	GWWG	BZZB	JXXJ	VKKV	fair	spielen	ehrlich	treu	retten	schön	faul	strafen	eitel	tot	rächen	schlecht	53pct	acq_USpleas_CSpleas2_noRW	acq23456_noRW	2	1	0	0	300	300	631	50	0	1	1	blank2r.bmp	0	1	+	0	1	blank2r.bmp	252	1	MQQM	306	2	retten	559	0	0	0	0	0	0	0	0	0	0	0	0	0	0	0	0	0	0	0	0	0	0	0	0	0	0	0	0	0	0	0	0	0	0	0	0	0	0	0
070819	16:57:16	17:02:36	318981	5.0.10.0	5_exp_noRW	24	Rpleas_acq	CS_B	YDDY	MQQM	GWWG	BZZB	JXXJ	VKKV	fair	spielen	ehrlich	treu	retten	schön	faul	strafen	eitel	tot	rächen	schlecht	47pct	acq_USunple_CSunple1_noRW	acq23456_noRW	2	2	0	0	300	300	479	46	0	1	1	blank2r.bmp	0	1	+	0	1	blank2r.bmp	252	1	GWWG	306	3	eitel	559	0	0	0	0	0	0	0	0	0	0	0	0	0	0	0	0	0	0	0	0	0	0	0	0	0	0	0	0	0	0	0	0	0	0	0	0	0	0	0
070819	16:57:16	17:02:38	320900	5.0.10.0	5_exp_noRW	24	Rpleas_acq	CS_B	YDDY	MQQM	GWWG	BZZB	JXXJ	VKKV	fair	spielen	ehrlich	treu	retten	schön	faul	strafen	eitel	tot	rächen	schlecht	53pct	acq_USunple_CSunple2_noRW	acq23456_noRW	2	3	0	0	300	300	749	46	0	1	1	blank2r.bmp	0	1	+	0	1	blank2r.bmp	252	1	BZZB	306	3	schlecht	559	0	0	0	0	0	0	0	0	0	0	0	0	0	0	0	0	0	0	0	0	0	0	0	0	0	0	0	0	0	0	0	0	0	0	0	0	0	0	0
070819	16:57:16	17:02:39	322459	5.0.10.0	5_exp_noRW	24	Rpleas_acq	CS_B	YDDY	MQQM	GWWG	BZZB	JXXJ	VKKV	fair	spielen	ehrlich	treu	retten	schön	faul	strafen	eitel	tot	rächen	schlecht	47pct	acq_USunple_CSunple1_noRW	acq23456_noRW	2	4	0	0	300	300	392	46	0	1	1	blank2r.bmp	0	1	+	0	1	blank2r.bmp	252	1	GWWG	306	1	faul	559	0	0	0	0	0	0	0	0	0	0	0	0	0	0	0	0	0	0	0	0	0	0	0	0	0	0	0	0	0	0	0	0	0	0	0	0	0	0	0
070819	16:57:16	17:02:41	324205	5.0.10.0	5_exp_noRW	24	Rpleas_acq	CS_B	YDDY	MQQM	GWWG	BZZB	JXXJ	VKKV	fair	spielen	ehrlich	treu	retten	schön	faul	strafen	eitel	tot	rächen	schlecht	47pct	acq_USpleas_CSpleas1_noRW	acq23456_noRW	2	5	0	0	300	300	575	50	0	1	1	blank2r.bmp	0	1	+	0	1	blank2r.bmp	252	1	YDDY	306	2	spielen	559	0	0	0	0	0	0	0	0	0	0	0	0	0	0	0	0	0	0	0	0	0	0	0	0	0	0	0	0	0	0	0	0	0	0	0	0	0	0	0
070819	16:57:16	17:02:43	325898	5.0.10.0	5_exp_noRW	24	Rpleas_acq	CS_B	YDDY	MQQM	GWWG	BZZB	JXXJ	VKKV	fair	spielen	ehrlich	treu	retten	schön	faul	strafen	eitel	tot	rächen	schlecht	53pct	acq_USunple_CSunple1_noRW	acq23456_noRW	2	6	0	0	300	300	520	46	0	1	1	blank2r.bmp	0	1	+	0	1	blank2r.bmp	252	1	GWWG	306	3	eitel	559	0	0	0	0	0	0	0	0	0	0	0	0	0	0	0	0	0	0	0	0	0	0	0	0	0	0	0	0	0	0	0	0	0	0	0	0	0	0	0
070819	16:57:16	17:02:44	327644	5.0.10.0	5_exp_noRW	24	Rpleas_acq	CS_B	YDDY	MQQM	GWWG	BZZB	JXXJ	VKKV	fair	spielen	ehrlich	treu	retten	schön	faul	strafen	eitel	tot	rächen	schlecht	47pct	acq_USunple_CSunple2_noRW	acq23456_noRW	2	7	0	0	300	300	559	46	0	1	1	blank2r.bmp	0	1	+	0	1	blank2r.bmp	252	1	BZZB	306	1	tot	559	0	0	0	0	0	0	0	0	0	0	0	0	0	0	0	0	0	0	0	0	0	0	0	0	0	0	0	0	0	0	0	0	0	0	0	0	0	0	0
070819	16:57:16	17:02:46	329390	5.0.10.0	5_exp_noRW	24	Rpleas_acq	CS_B	YDDY	MQQM	GWWG	BZZB	JXXJ	VKKV	fair	spielen	ehrlich	treu	retten	schön	faul	strafen	eitel	tot	rächen	schlecht	53pct	acq_USpleas_CSunple2_noRW	acq23456_noRW	2	8	0	0	300	300	572	50	0	1	1	blank2r.bmp	0	1	+	0	1	blank2r.bmp	252	1	BZZB	306	1	treu	559	0	0	0	0	0	0	0	0	0	0	0	0	0	0	0	0	0	0	0	0	0	0	0	0	0	0	0	0	0	0	0	0	0	0	0	0	0	0	0
070819	16:57:16	17:02:48	331349	5.0.10.0	5_exp_noRW	24	Rpleas_acq	CS_B	YDDY	MQQM	GWWG	BZZB	JXXJ	VKKV	fair	spielen	ehrlich	treu	retten	schön	faul	strafen	eitel	tot	rächen	schlecht	53pct	acq_USpleas_CSunple1_noRW	acq23456_noRW	2	9	0	0	300	300	796	50	0	1	1	blank2r.bmp	0	1	+	0	1	blank2r.bmp	252	1	GWWG	306	3	ehrlich	559	0	0	0	0	0	0	0	0	0	0	0	0	0	0	0	0	0	0	0	0	0	0	0	0	0	0	0	0	0	0	0	0	0	0	0	0	0	0	0
070819	16:57:16	17:02:50	333215	5.0.10.0	5_exp_noRW	24	Rpleas_acq	CS_B	YDDY	MQQM	GWWG	BZZB	JXXJ	VKKV	fair	spielen	ehrlich	treu	retten	schön	faul	strafen	eitel	tot	rächen	schlecht	47pct	acq_USpleas_CSpleas1_noRW	acq23456_noRW	2	10	0	0	300	300	687	50	0	1	1	blank2r.bmp	0	1	+	0	1	blank2r.bmp	252	1	YDDY	306	3	ehrlich	559	0	0	0	0	0	0	0	0	0	0	0	0	0	0	0	0	0	0	0	0	0	0	0	0	0	0	0	0	0	0	0	0	0	0	0	0	0	0	0
070819	16:57:16	17:02:52	334934	5.0.10.0	5_exp_noRW	24	Rpleas_acq	CS_B	YDDY	MQQM	GWWG	BZZB	JXXJ	VKKV	fair	spielen	ehrlich	treu	retten	schön	faul	strafen	eitel	tot	rächen	schlecht	53pct	acq_USpleas_CSpleas2_noRW	acq23456_noRW	2	11	0	0	300	300	535	50	0	1	1	blank2r.bmp	0	1	+	0	1	blank2r.bmp	252	1	MQQM	306	1	treu	559	0	0	0	0	0	0	0	0	0	0	0	0	0	0	0	0	0	0	0	0	0	0	0	0	0	0	0	0	0	0	0	0	0	0	0	0	0	0	0
070819	16:57:16	17:02:54	336746	5.0.10.0	5_exp_noRW	24	Rpleas_acq	CS_B	YDDY	MQQM	GWWG	BZZB	JXXJ	VKKV	fair	spielen	ehrlich	treu	retten	schön	faul	strafen	eitel	tot	rächen	schlecht	47pct	acq_USunple_CSunple2_noRW	acq23456_noRW	2	12	0	0	300	300	633	46	0	1	1	blank2r.bmp	0	1	+	0	1	blank2r.bmp	252	1	BZZB	306	2	rächen	559	0	0	0	0	0	0	0	0	0	0	0	0	0	0	0	0	0	0	0	0	0	0	0	0	0	0	0	0	0	0	0	0	0	0	0	0	0	0	0
070819	16:57:16	17:02:55	338439	5.0.10.0	5_exp_noRW	24	Rpleas_acq	CS_B	YDDY	MQQM	GWWG	BZZB	JXXJ	VKKV	fair	spielen	ehrlich	treu	retten	schön	faul	strafen	eitel	tot	rächen	schlecht	53pct	acq_USpleas_CSpleas2_noRW	acq23456_noRW	2	13	0	0	300	300	530	50	0	1	1	blank2r.bmp	0	1	+	0	1	blank2r.bmp	252	1	MQQM	306	1	treu	559	0	0	0	0	0	0	0	0	0	0	0	0	0	0	0	0	0	0	0	0	0	0	0	0	0	0	0	0	0	0	0	0	0	0	0	0	0	0	0
070819	16:57:16	17:02:57	340172	5.0.10.0	5_exp_noRW	24	Rpleas_acq	CS_B	YDDY	MQQM	GWWG	BZZB	JXXJ	VKKV	fair	spielen	ehrlich	treu	retten	schön	faul	strafen	eitel	tot	rächen	schlecht	53pct	acq_USunple_CSunple2_noRW	acq23456_noRW	2	14	0	0	300	300	548	46	0	1	1	blank2r.bmp	0	1	+	0	1	blank2r.bmp	252	1	BZZB	306	1	tot	559	0	0	0	0	0	0	0	0	0	0	0	0	0	0	0	0	0	0	0	0	0	0	0	0	0	0	0	0	0	0	0	0	0	0	0	0	0	0	0
070819	16:57:16	17:02:59	341838	5.0.10.0	5_exp_noRW	24	Rpleas_acq	CS_B	YDDY	MQQM	GWWG	BZZB	JXXJ	VKKV	fair	spielen	ehrlich	treu	retten	schön	faul	strafen	eitel	tot	rächen	schlecht	47pct	acq_USunple_CSunple1_noRW	acq23456_noRW	2	15	0	0	300	300	488	46	0	1	1	blank2r.bmp	0	1	+	0	1	blank2r.bmp	252	1	GWWG	306	2	strafen	559	0	0	0	0	0	0	0	0	0	0	0	0	0	0	0	0	0	0	0	0	0	0	0	0	0	0	0	0	0	0	0	0	0	0	0	0	0	0	0
070819	16:57:16	17:03:00	343410	5.0.10.0	5_exp_noRW	24	Rpleas_acq	CS_B	YDDY	MQQM	GWWG	BZZB	JXXJ	VKKV	fair	spielen	ehrlich	treu	retten	schön	faul	strafen	eitel	tot	rächen	schlecht	53pct	acq_USpleas_CSpleas2_noRW	acq23456_noRW	2	16	0	0	300	300	388	50	0	1	1	blank2r.bmp	0	1	+	0	1	blank2r.bmp	252	1	MQQM	306	2	retten	559	0	0	0	0	0	0	0	0	0	0	0	0	0	0	0	0	0	0	0	0	0	0	0	0	0	0	0	0	0	0	0	0	0	0	0	0	0	0	0
070819	16:57:16	17:03:02	345089	5.0.10.0	5_exp_noRW	24	Rpleas_acq	CS_B	YDDY	MQQM	GWWG	BZZB	JXXJ	VKKV	fair	spielen	ehrlich	treu	retten	schön	faul	strafen	eitel	tot	rächen	schlecht	53pct	acq_USpleas_CSpleas1_noRW	acq23456_noRW	2	17	0	0	300	300	512	50	0	1	1	blank2r.bmp	0	1	+	0	1	blank2r.bmp	252	1	YDDY	306	3	ehrlich	559	0	0	0	0	0	0	0	0	0	0	0	0	0	0	0	0	0	0	0	0	0	0	0	0	0	0	0	0	0	0	0	0	0	0	0	0	0	0	0
070819	16:57:16	17:03:04	346862	5.0.10.0	5_exp_noRW	24	Rpleas_acq	CS_B	YDDY	MQQM	GWWG	BZZB	JXXJ	VKKV	fair	spielen	ehrlich	treu	retten	schön	faul	strafen	eitel	tot	rächen	schlecht	47pct	acq_USunple_CSpleas1_noRW	acq23456_noRW	2	18	0	0	300	300	377	50	0	0	1	blank2r.bmp	0	1	+	0	1	blank2r.bmp	252	1	YDDY	306	3	eitel	559	1	FEHLER	972	0	0	0	0	0	0	0	0	0	0	0	0	0	0	0	0	0	0	0	0	0	0	0	0	0	0	0	0	0	0	0	0	0	0	0	0
070819	16:57:16	17:03:05	348168	5.0.10.0	5_exp_noRW	24	Rpleas_acq	CS_B	YDDY	MQQM	GWWG	BZZB	JXXJ	VKKV	fair	spielen	ehrlich	treu	retten	schön	faul	strafen	eitel	tot	rächen	schlecht	47pct	acq_USunple_CSpleas2_noRW	acq23456_noRW	2	19	0	0	300	300	336	46	0	1	1	blank2r.bmp	0	1	+	0	1	blank2r.bmp	252	1	MQQM	306	3	schlecht	559	0	0	0	0	0	0	0	0	0	0	0	0	0	0	0	0	0	0	0	0	0	0	0	0	0	0	0	0	0	0	0	0	0	0	0	0	0	0	0
070819	16:57:16	17:03:07	349701	5.0.10.0	5_exp_noRW	24	Rpleas_acq	CS_B	YDDY	MQQM	GWWG	BZZB	JXXJ	VKKV	fair	spielen	ehrlich	treu	retten	schön	faul	strafen	eitel	tot	rächen	schlecht	53pct	acq_USpleas_CSpleas1_noRW	acq23456_noRW	2	20	0	0	300	300	370	50	0	1	1	blank2r.bmp	0	1	+	0	1	blank2r.bmp	252	1	YDDY	306	2	spielen	559	0	0	0	0	0	0	0	0	0	0	0	0	0	0	0	0	0	0	0	0	0	0	0	0	0	0	0	0	0	0	0	0	0	0	0	0	0	0	0
070819	16:57:16	17:03:08	351353	5.0.10.0	5_exp_noRW	24	Rpleas_acq	CS_B	YDDY	MQQM	GWWG	BZZB	JXXJ	VKKV	fair	spielen	ehrlich	treu	retten	schön	faul	strafen	eitel	tot	rächen	schlecht	47pct	acq_USunple_CSpleas2_noRW	acq23456_noRW	2	21	0	0	300	300	471	46	0	1	1	blank2r.bmp	0	1	+	0	1	blank2r.bmp	252	1	MQQM	306	2	rächen	559	0	0	0	0	0	0	0	0	0	0	0	0	0	0	0	0	0	0	0	0	0	0	0	0	0	0	0	0	0	0	0	0	0	0	0	0	0	0	0
070819	16:57:16	17:03:10	352913	5.0.10.0	5_exp_noRW	24	Rpleas_acq	CS_B	YDDY	MQQM	GWWG	BZZB	JXXJ	VKKV	fair	spielen	ehrlich	treu	retten	schön	faul	strafen	eitel	tot	rächen	schlecht	47pct	acq_USunple_CSunple1_noRW	acq23456_noRW	2	22	0	0	300	300	382	46	0	1	1	blank2r.bmp	0	1	+	0	1	blank2r.bmp	252	1	GWWG	306	1	faul	559	0	0	0	0	0	0	0	0	0	0	0	0	0	0	0	0	0	0	0	0	0	0	0	0	0	0	0	0	0	0	0	0	0	0	0	0	0	0	0
070819	16:57:16	17:03:11	354499	5.0.10.0	5_exp_noRW	24	Rpleas_acq	CS_B	YDDY	MQQM	GWWG	BZZB	JXXJ	VKKV	fair	spielen	ehrlich	treu	retten	schön	faul	strafen	eitel	tot	rächen	schlecht	47pct	acq_USpleas_CSpleas2_noRW	acq23456_noRW	2	23	0	0	300	300	410	50	0	1	1	blank2r.bmp	0	1	+	0	1	blank2r.bmp	252	1	MQQM	306	3	schön	559	0	0	0	0	0	0	0	0	0	0	0	0	0	0	0	0	0	0	0	0	0	0	0	0	0	0	0	0	0	0	0	0	0	0	0	0	0	0	0
070819	16:57:16	17:03:13	356351	5.0.10.0	5_exp_noRW	24	Rpleas_acq	CS_B	YDDY	MQQM	GWWG	BZZB	JXXJ	VKKV	fair	spielen	ehrlich	treu	retten	schön	faul	strafen	eitel	tot	rächen	schlecht	47pct	acq_USunple_CSpleas1_noRW	acq23456_noRW	2	24	0	0	300	300	668	46	0	1	1	blank2r.bmp	0	1	+	0	1	blank2r.bmp	252	1	YDDY	306	1	faul	559	0	0	0	0	0	0	0	0	0	0	0	0	0	0	0	0	0	0	0	0	0	0	0	0	0	0	0	0	0	0	0	0	0	0	0	0	0	0	0
070819	16:57:16	17:03:15	357911	5.0.10.0	5_exp_noRW	24	Rpleas_acq	CS_B	YDDY	MQQM	GWWG	BZZB	JXXJ	VKKV	fair	spielen	ehrlich	treu	retten	schön	faul	strafen	eitel	tot	rächen	schlecht	47pct	acq_USpleas_CSpleas1_noRW	acq23456_noRW	2	25	0	0	300	300	380	50	0	1	1	blank2r.bmp	0	1	+	0	1	blank2r.bmp	252	1	YDDY	306	1	fair	559	0	0	0	0	0	0	0	0	0	0	0	0	0	0	0	0	0	0	0	0	0	0	0	0	0	0	0	0	0	0	0	0	0	0	0	0	0	0	0
070819	16:57:16	17:03:16	359630	5.0.10.0	5_exp_noRW	24	Rpleas_acq	CS_B	YDDY	MQQM	GWWG	BZZB	JXXJ	VKKV	fair	spielen	ehrlich	treu	retten	schön	faul	strafen	eitel	tot	rächen	schlecht	47pct	acq_USunple_CSunple1_noRW	acq23456_noRW	2	26	0	0	300	300	538	46	0	1	1	blank2r.bmp	0	1	+	0	1	blank2r.bmp	252	1	GWWG	306	2	strafen	559	0	0	0	0	0	0	0	0	0	0	0	0	0	0	0	0	0	0	0	0	0	0	0	0	0	0	0	0	0	0	0	0	0	0	0	0	0	0	0
070819	16:57:16	17:03:19	361842	5.0.10.0	5_exp_noRW	24	Rpleas_acq	CS_B	YDDY	MQQM	GWWG	BZZB	JXXJ	VKKV	fair	spielen	ehrlich	treu	retten	schön	faul	strafen	eitel	tot	rächen	schlecht	53pct	acq_USunple_CSunple2_noRW	acq23456_noRW	2	27	0	0	300	300	1040	46	0	1	1	blank2r.bmp	0	1	+	0	1	blank2r.bmp	252	1	BZZB	306	3	schlecht	559	0	0	0	0	0	0	0	0	0	0	0	0	0	0	0	0	0	0	0	0	0	0	0	0	0	0	0	0	0	0	0	0	0	0	0	0	0	0	0
070819	16:57:16	17:03:21	363735	5.0.10.0	5_exp_noRW	24	Rpleas_acq	CS_B	YDDY	MQQM	GWWG	BZZB	JXXJ	VKKV	fair	spielen	ehrlich	treu	retten	schön	faul	strafen	eitel	tot	rächen	schlecht	47pct	acq_USpleas_CSpleas2_noRW	acq23456_noRW	2	28	0	0	300	300	709	50	0	1	1	blank2r.bmp	0	1	+	0	1	blank2r.bmp	252	1	MQQM	306	2	retten	559	0	0	0	0	0	0	0	0	0	0	0	0	0	0	0	0	0	0	0	0	0	0	0	0	0	0	0	0	0	0	0	0	0	0	0	0	0	0	0
070819	16:57:16	17:03:22	365427	5.0.10.0	5_exp_noRW	24	Rpleas_acq	CS_B	YDDY	MQQM	GWWG	BZZB	JXXJ	VKKV	fair	spielen	ehrlich	treu	retten	schön	faul	strafen	eitel	tot	rächen	schlecht	53pct	acq_USunple_CSunple1_noRW	acq23456_noRW	2	29	0	0	300	300	518	46	0	1	1	blank2r.bmp	0	1	+	0	1	blank2r.bmp	252	1	GWWG	306	1	faul	559	0	0	0	0	0	0	0	0	0	0	0	0	0	0	0	0	0	0	0	0	0	0	0	0	0	0	0	0	0	0	0	0	0	0	0	0	0	0	0
070819	16:57:16	17:03:24	367346	5.0.10.0	5_exp_noRW	24	Rpleas_acq	CS_B	YDDY	MQQM	GWWG	BZZB	JXXJ	VKKV	fair	spielen	ehrlich	treu	retten	schön	faul	strafen	eitel	tot	rächen	schlecht	47pct	acq_USpleas_CSpleas1_noRW	acq23456_noRW	2	30	0	0	300	300	748	50	0	1	1	blank2r.bmp	0	1	+	0	1	blank2r.bmp	252	1	YDDY	306	1	fair	559	0	0	0	0	0	0	0	0	0	0	0	0	0	0	0	0	0	0	0	0	0	0	0	0	0	0	0	0	0	0	0	0	0	0	0	0	0	0	0
070819	16:57:16	17:03:26	368906	5.0.10.0	5_exp_noRW	24	Rpleas_acq	CS_B	YDDY	MQQM	GWWG	BZZB	JXXJ	VKKV	fair	spielen	ehrlich	treu	retten	schön	faul	strafen	eitel	tot	rächen	schlecht	47pct	acq_USpleas_CSunple1_noRW	acq23456_noRW	2	31	0	0	300	300	374	50	0	1	1	blank2r.bmp	0	1	+	0	1	blank2r.bmp	252	1	GWWG	306	1	fair	559	0	0	0	0	0	0	0	0	0	0	0	0	0	0	0	0	0	0	0	0	0	0	0	0	0	0	0	0	0	0	0	0	0	0	0	0	0	0	0
070819	16:57:16	17:03:28	370732	5.0.10.0	5_exp_noRW	24	Rpleas_acq	CS_B	YDDY	MQQM	GWWG	BZZB	JXXJ	VKKV	fair	spielen	ehrlich	treu	retten	schön	faul	strafen	eitel	tot	rächen	schlecht	47pct	acq_USpleas_CSpleas2_noRW	acq23456_noRW	2	32	0	0	300	300	642	50	0	1	1	blank2r.bmp	0	1	+	0	1	blank2r.bmp	252	1	MQQM	306	1	treu	559	0	0	0	0	0	0	0	0	0	0	0	0	0	0	0	0	0	0	0	0	0	0	0	0	0	0	0	0	0	0	0	0	0	0	0	0	0	0	0
070819	16:57:16	17:03:29	372611	5.0.10.0	5_exp_noRW	24	Rpleas_acq	CS_B	YDDY	MQQM	GWWG	BZZB	JXXJ	VKKV	fair	spielen	ehrlich	treu	retten	schön	faul	strafen	eitel	tot	rächen	schlecht	53pct	acq_USpleas_CSpleas1_noRW	acq23456_noRW	2	33	0	0	300	300	702	50	0	1	1	blank2r.bmp	0	1	+	0	1	blank2r.bmp	252	1	YDDY	306	2	spielen	559	0	0	0	0	0	0	0	0	0	0	0	0	0	0	0	0	0	0	0	0	0	0	0	0	0	0	0	0	0	0	0	0	0	0	0	0	0	0	0
070819	16:57:16	17:03:31	374197	5.0.10.0	5_exp_noRW	24	Rpleas_acq	CS_B	YDDY	MQQM	GWWG	BZZB	JXXJ	VKKV	fair	spielen	ehrlich	treu	retten	schön	faul	strafen	eitel	tot	rächen	schlecht	53pct	acq_USpleas_CSpleas1_noRW	acq23456_noRW	2	34	0	0	300	300	405	50	0	1	1	blank2r.bmp	0	1	+	0	1	blank2r.bmp	252	1	YDDY	306	3	ehrlich	559	0	0	0	0	0	0	0	0	0	0	0	0	0	0	0	0	0	0	0	0	0	0	0	0	0	0	0	0	0	0	0	0	0	0	0	0	0	0	0
070819	16:57:16	17:03:33	375836	5.0.10.0	5_exp_noRW	24	Rpleas_acq	CS_B	YDDY	MQQM	GWWG	BZZB	JXXJ	VKKV	fair	spielen	ehrlich	treu	retten	schön	faul	strafen	eitel	tot	rächen	schlecht	47pct	acq_USunple_CSunple2_noRW	acq23456_noRW	2	35	0	0	300	300	460	46	0	1	1	blank2r.bmp	0	1	+	0	1	blank2r.bmp	252	1	BZZB	306	2	rächen	559	0	0	0	0	0	0	0	0	0	0	0	0	0	0	0	0	0	0	0	0	0	0	0	0	0	0	0	0	0	0	0	0	0	0	0	0	0	0	0
070819	16:57:16	17:03:34	377462	5.0.10.0	5_exp_noRW	24	Rpleas_acq	CS_B	YDDY	MQQM	GWWG	BZZB	JXXJ	VKKV	fair	spielen	ehrlich	treu	retten	schön	faul	strafen	eitel	tot	rächen	schlecht	53pct	acq_USpleas_CSunple2_noRW	acq23456_noRW	2	36	0	0	300	300	445	50	0	1	1	blank2r.bmp	0	1	+	0	1	blank2r.bmp	252	1	BZZB	306	2	retten	559	0	0	0	0	0	0	0	0	0	0	0	0	0	0	0	0	0	0	0	0	0	0	0	0	0	0	0	0	0	0	0	0	0	0	0	0	0	0	0
070819	16:57:16	17:03:36	378995	5.0.10.0	5_exp_noRW	24	Rpleas_acq	CS_B	YDDY	MQQM	GWWG	BZZB	JXXJ	VKKV	fair	spielen	ehrlich	treu	retten	schön	faul	strafen	eitel	tot	rächen	schlecht	47pct	acq_USunple_CSunple2_noRW	acq23456_noRW	2	37	0	0	300	300	363	46	0	1	1	blank2r.bmp	0	1	+	0	1	blank2r.bmp	252	1	BZZB	306	1	tot	559	0	0	0	0	0	0	0	0	0	0	0	0	0	0	0	0	0	0	0	0	0	0	0	0	0	0	0	0	0	0	0	0	0	0	0	0	0	0	0
070819	16:57:16	17:03:38	380661	5.0.10.0	5_exp_noRW	24	Rpleas_acq	CS_B	YDDY	MQQM	GWWG	BZZB	JXXJ	VKKV	fair	spielen	ehrlich	treu	retten	schön	faul	strafen	eitel	tot	rächen	schlecht	53pct	acq_USunple_CSunple1_noRW	acq23456_noRW	2	38	0	0	300	300	498	46	0	1	1	blank2r.bmp	0	1	+	0	1	blank2r.bmp	252	1	GWWG	306	3	eitel	559	0	0	0	0	0	0	0	0	0	0	0	0	0	0	0	0	0	0	0	0	0	0	0	0	0	0	0	0	0	0	0	0	0	0	0	0	0	0	0
070819	16:57:16	17:03:39	382140	5.0.10.0	5_exp_noRW	24	Rpleas_acq	CS_B	YDDY	MQQM	GWWG	BZZB	JXXJ	VKKV	fair	spielen	ehrlich	treu	retten	schön	faul	strafen	eitel	tot	rächen	schlecht	53pct	acq_USpleas_CSpleas2_noRW	acq23456_noRW	2	39	0	0	300	300	307	50	0	1	1	blank2r.bmp	0	1	+	0	1	blank2r.bmp	252	1	MQQM	306	3	schön	559	0	0	0	0	0	0	0	0	0	0	0	0	0	0	0	0	0	0	0	0	0	0	0	0	0	0	0	0	0	0	0	0	0	0	0	0	0	0	0
070819	16:57:16	17:03:41	383886	5.0.10.0	5_exp_noRW	24	Rpleas_acq	CS_B	YDDY	MQQM	GWWG	BZZB	JXXJ	VKKV	fair	spielen	ehrlich	treu	retten	schön	faul	strafen	eitel	tot	rächen	schlecht	53pct	acq_USunple_CSunple2_noRW	acq23456_noRW	2	40	0	0	300	300	580	46	0	1	1	blank2r.bmp	0	1	+	0	1	blank2r.bmp	252	1	BZZB	306	3	schlecht	559	0	0	0	0	0	0	0	0	0	0	0	0	0	0	0	0	0	0	0	0	0	0	0	0	0	0	0	0	0	0	0	0	0	0	0	0	0	0	0
070819	16:57:16	17:03:42	385432	5.0.10.0	5_exp_noRW	24	Rpleas_acq	CS_B	YDDY	MQQM	GWWG	BZZB	JXXJ	VKKV	fair	spielen	ehrlich	treu	retten	schön	faul	strafen	eitel	tot	rächen	schlecht	47pct	acq_USpleas_CSpleas2_noRW	acq23456_noRW	2	41	0	0	300	300	372	50	0	1	1	blank2r.bmp	0	1	+	0	1	blank2r.bmp	252	1	MQQM	306	2	retten	559	0	0	0	0	0	0	0	0	0	0	0	0	0	0	0	0	0	0	0	0	0	0	0	0	0	0	0	0	0	0	0	0	0	0	0	0	0	0	0
070819	16:57:16	17:03:44	386951	5.0.10.0	5_exp_noRW	24	Rpleas_acq	CS_B	YDDY	MQQM	GWWG	BZZB	JXXJ	VKKV	fair	spielen	ehrlich	treu	retten	schön	faul	strafen	eitel	tot	rächen	schlecht	47pct	acq_USunple_CSunple1_noRW	acq23456_noRW	2	42	0	0	300	300	353	46	0	1	1	blank2r.bmp	0	1	+	0	1	blank2r.bmp	252	1	GWWG	306	1	faul	559	0	0	0	0	0	0	0	0	0	0	0	0	0	0	0	0	0	0	0	0	0	0	0	0	0	0	0	0	0	0	0	0	0	0	0	0	0	0	0
070819	16:57:16	17:03:45	388577	5.0.10.0	5_exp_noRW	24	Rpleas_acq	CS_B	YDDY	MQQM	GWWG	BZZB	JXXJ	VKKV	fair	spielen	ehrlich	treu	retten	schön	faul	strafen	eitel	tot	rächen	schlecht	47pct	acq_USpleas_CSpleas1_noRW	acq23456_noRW	2	43	0	0	300	300	447	50	0	1	1	blank2r.bmp	0	1	+	0	1	blank2r.bmp	252	1	YDDY	306	2	spielen	559	0	0	0	0	0	0	0	0	0	0	0	0	0	0	0	0	0	0	0	0	0	0	0	0	0	0	0	0	0	0	0	0	0	0	0	0	0	0	0
070819	16:57:16	17:03:47	390177	5.0.10.0	5_exp_noRW	24	Rpleas_acq	CS_B	YDDY	MQQM	GWWG	BZZB	JXXJ	VKKV	fair	spielen	ehrlich	treu	retten	schön	faul	strafen	eitel	tot	rächen	schlecht	53pct	acq_USunple_CSpleas2_noRW	acq23456_noRW	2	44	0	0	300	300	423	46	0	1	1	blank2r.bmp	0	1	+	0	1	blank2r.bmp	252	1	MQQM	306	3	schlecht	559	0	0	0	0	0	0	0	0	0	0	0	0	0	0	0	0	0	0	0	0	0	0	0	0	0	0	0	0	0	0	0	0	0	0	0	0	0	0	0
070819	16:57:16	17:03:49	391869	5.0.10.0	5_exp_noRW	24	Rpleas_acq	CS_B	YDDY	MQQM	GWWG	BZZB	JXXJ	VKKV	fair	spielen	ehrlich	treu	retten	schön	faul	strafen	eitel	tot	rächen	schlecht	47pct	acq_USunple_CSunple1_noRW	acq23456_noRW	2	45	0	0	300	300	509	46	0	1	1	blank2r.bmp	0	1	+	0	1	blank2r.bmp	252	1	GWWG	306	2	strafen	559	0	0	0	0	0	0	0	0	0	0	0	0	0	0	0	0	0	0	0	0	0	0	0	0	0	0	0	0	0	0	0	0	0	0	0	0	0	0	0
070819	16:57:16	17:03:50	393508	5.0.10.0	5_exp_noRW	24	Rpleas_acq	CS_B	YDDY	MQQM	GWWG	BZZB	JXXJ	VKKV	fair	spielen	ehrlich	treu	retten	schön	faul	strafen	eitel	tot	rächen	schlecht	47pct	acq_USpleas_CSunple1_noRW	acq23456_noRW	2	46	0	0	300	300	458	50	0	1	1	blank2r.bmp	0	1	+	0	1	blank2r.bmp	252	1	GWWG	306	3	ehrlich	559	0	0	0	0	0	0	0	0	0	0	0	0	0	0	0	0	0	0	0	0	0	0	0	0	0	0	0	0	0	0	0	0	0	0	0	0	0	0	0
070819	16:57:16	17:03:52	395321	5.0.10.0	5_exp_noRW	24	Rpleas_acq	CS_B	YDDY	MQQM	GWWG	BZZB	JXXJ	VKKV	fair	spielen	ehrlich	treu	retten	schön	faul	strafen	eitel	tot	rächen	schlecht	47pct	acq_USpleas_CSpleas1_noRW	acq23456_noRW	2	47	0	0	300	300	424	46	0	0	1	blank2r.bmp	0	1	+	0	1	blank2r.bmp	252	1	YDDY	306	1	fair	559	1	FEHLER	1012	0	0	0	0	0	0	0	0	0	0	0	0	0	0	0	0	0	0	0	0	0	0	0	0	0	0	0	0	0	0	0	0	0	0	0	0
070819	16:57:16	17:03:54	396720	5.0.10.0	5_exp_noRW	24	Rpleas_acq	CS_B	YDDY	MQQM	GWWG	BZZB	JXXJ	VKKV	fair	spielen	ehrlich	treu	retten	schön	faul	strafen	eitel	tot	rächen	schlecht	47pct	acq_USpleas_CSunple2_noRW	acq23456_noRW	2	48	0	0	300	300	428	50	0	1	1	blank2r.bmp	0	1	+	0	1	blank2r.bmp	252	1	BZZB	306	3	schön	559	0	0	0	0	0	0	0	0	0	0	0	0	0	0	0	0	0	0	0	0	0	0	0	0	0	0	0	0	0	0	0	0	0	0	0	0	0	0	0
070819	16:57:16	17:03:55	398466	5.0.10.0	5_exp_noRW	24	Rpleas_acq	CS_B	YDDY	MQQM	GWWG	BZZB	JXXJ	VKKV	fair	spielen	ehrlich	treu	retten	schön	faul	strafen	eitel	tot	rächen	schlecht	53pct	acq_USunple_CSpleas1_noRW	acq23456_noRW	2	49	0	0	300	300	347	50	0	0	1	blank2r.bmp	0	1	+	0	1	blank2r.bmp	252	1	YDDY	306	1	faul	559	1	FEHLER	946	0	0	0	0	0	0	0	0	0	0	0	0	0	0	0	0	0	0	0	0	0	0	0	0	0	0	0	0	0	0	0	0	0	0	0	0
070819	16:57:16	17:03:57	399812	5.0.10.0	5_exp_noRW	24	Rpleas_acq	CS_B	YDDY	MQQM	GWWG	BZZB	JXXJ	VKKV	fair	spielen	ehrlich	treu	retten	schön	faul	strafen	eitel	tot	rächen	schlecht	53pct	acq_USpleas_CSpleas1_noRW	acq23456_noRW	2	50	0	0	300	300	386	50	0	1	1	blank2r.bmp	0	1	+	0	1	blank2r.bmp	252	1	YDDY	306	3	ehrlich	559	0	0	0	0	0	0	0	0	0	0	0	0	0	0	0	0	0	0	0	0	0	0	0	0	0	0	0	0	0	0	0	0	0	0	0	0	0	0	0
070819	16:57:16	17:03:58	401385	5.0.10.0	5_exp_noRW	24	Rpleas_acq	CS_B	YDDY	MQQM	GWWG	BZZB	JXXJ	VKKV	fair	spielen	ehrlich	treu	retten	schön	faul	strafen	eitel	tot	rächen	schlecht	53pct	acq_USunple_CSunple2_noRW	acq23456_noRW	2	51	0	0	300	300	396	46	0	1	1	blank2r.bmp	0	1	+	0	1	blank2r.bmp	252	1	BZZB	306	3	schlecht	559	0	0	0	0	0	0	0	0	0	0	0	0	0	0	0	0	0	0	0	0	0	0	0	0	0	0	0	0	0	0	0	0	0	0	0	0	0	0	0
070819	16:57:16	17:04:00	403011	5.0.10.0	5_exp_noRW	24	Rpleas_acq	CS_B	YDDY	MQQM	GWWG	BZZB	JXXJ	VKKV	fair	spielen	ehrlich	treu	retten	schön	faul	strafen	eitel	tot	rächen	schlecht	53pct	acq_USpleas_CSpleas2_noRW	acq23456_noRW	2	52	0	0	300	300	441	50	0	1	1	blank2r.bmp	0	1	+	0	1	blank2r.bmp	252	1	MQQM	306	3	schön	559	0	0	0	0	0	0	0	0	0	0	0	0	0	0	0	0	0	0	0	0	0	0	0	0	0	0	0	0	0	0	0	0	0	0	0	0	0	0	0
070819	16:57:16	17:04:01	404530	5.0.10.0	5_exp_noRW	24	Rpleas_acq	CS_B	YDDY	MQQM	GWWG	BZZB	JXXJ	VKKV	fair	spielen	ehrlich	treu	retten	schön	faul	strafen	eitel	tot	rächen	schlecht	53pct	acq_USunple_CSunple1_noRW	acq23456_noRW	2	53	0	0	300	300	344	46	0	1	1	blank2r.bmp	0	1	+	0	1	blank2r.bmp	252	1	GWWG	306	3	eitel	559	0	0	0	0	0	0	0	0	0	0	0	0	0	0	0	0	0	0	0	0	0	0	0	0	0	0	0	0	0	0	0	0	0	0	0	0	0	0	0
070819	16:57:16	17:04:03	406196	5.0.10.0	5_exp_noRW	24	Rpleas_acq	CS_B	YDDY	MQQM	GWWG	BZZB	JXXJ	VKKV	fair	spielen	ehrlich	treu	retten	schön	faul	strafen	eitel	tot	rächen	schlecht	53pct	acq_USunple_CSunple2_noRW	acq23456_noRW	2	54	0	0	300	300	492	46	0	1	1	blank2r.bmp	0	1	+	0	1	blank2r.bmp	252	1	BZZB	306	1	tot	559	0	0	0	0	0	0	0	0	0	0	0	0	0	0	0	0	0	0	0	0	0	0	0	0	0	0	0	0	0	0	0	0	0	0	0	0	0	0	0
070819	16:57:16	17:04:05	407849	5.0.10.0	5_exp_noRW	24	Rpleas_acq	CS_B	YDDY	MQQM	GWWG	BZZB	JXXJ	VKKV	fair	spielen	ehrlich	treu	retten	schön	faul	strafen	eitel	tot	rächen	schlecht	47pct	acq_USunple_CSunple2_noRW	acq23456_noRW	2	55	0	0	300	300	488	46	0	1	1	blank2r.bmp	0	1	+	0	1	blank2r.bmp	252	1	BZZB	306	2	rächen	559	0	0	0	0	0	0	0	0	0	0	0	0	0	0	0	0	0	0	0	0	0	0	0	0	0	0	0	0	0	0	0	0	0	0	0	0	0	0	0
070819	16:57:16	17:04:06	409342	5.0.10.0	5_exp_noRW	24	Rpleas_acq	CS_B	YDDY	MQQM	GWWG	BZZB	JXXJ	VKKV	fair	spielen	ehrlich	treu	retten	schön	faul	strafen	eitel	tot	rächen	schlecht	53pct	acq_USpleas_CSpleas1_noRW	acq23456_noRW	2	56	0	0	300	300	326	50	0	1	1	blank2r.bmp	0	1	+	0	1	blank2r.bmp	252	1	YDDY	306	3	ehrlich	559	0	0	0	0	0	0	0	0	0	0	0	0	0	0	0	0	0	0	0	0	0	0	0	0	0	0	0	0	0	0	0	0	0	0	0	0	0	0	0
070819	16:57:16	17:04:08	410834	5.0.10.0	5_exp_noRW	24	Rpleas_acq	CS_B	YDDY	MQQM	GWWG	BZZB	JXXJ	VKKV	fair	spielen	ehrlich	treu	retten	schön	faul	strafen	eitel	tot	rächen	schlecht	53pct	acq_USunple_CSunple2_noRW	acq23456_noRW	2	57	0	0	300	300	315	46	0	1	1	blank2r.bmp	0	1	+	0	1	blank2r.bmp	252	1	BZZB	306	3	schlecht	559	0	0	0	0	0	0	0	0	0	0	0	0	0	0	0	0	0	0	0	0	0	0	0	0	0	0	0	0	0	0	0	0	0	0	0	0	0	0	0
070819	16:57:16	17:04:09	412367	5.0.10.0	5_exp_noRW	24	Rpleas_acq	CS_B	YDDY	MQQM	GWWG	BZZB	JXXJ	VKKV	fair	spielen	ehrlich	treu	retten	schön	faul	strafen	eitel	tot	rächen	schlecht	53pct	acq_USunple_CSunple1_noRW	acq23456_noRW	2	58	0	0	300	300	351	46	0	1	1	blank2r.bmp	0	1	+	0	1	blank2r.bmp	252	1	GWWG	306	1	faul	559	0	0	0	0	0	0	0	0	0	0	0	0	0	0	0	0	0	0	0	0	0	0	0	0	0	0	0	0	0	0	0	0	0	0	0	0	0	0	0
070819	16:57:16	17:04:11	414113	5.0.10.0	5_exp_noRW	24	Rpleas_acq	CS_B	YDDY	MQQM	GWWG	BZZB	JXXJ	VKKV	fair	spielen	ehrlich	treu	retten	schön	faul	strafen	eitel	tot	rächen	schlecht	47pct	acq_USpleas_CSpleas2_noRW	acq23456_noRW	2	59	0	0	300	300	558	50	0	1	1	blank2r.bmp	0	1	+	0	1	blank2r.bmp	252	1	MQQM	306	1	treu	559	0	0	0	0	0	0	0	0	0	0	0	0	0	0	0	0	0	0	0	0	0	0	0	0	0	0	0	0	0	0	0	0	0	0	0	0	0	0	0
070819	16:57:16	17:04:13	416005	5.0.10.0	5_exp_noRW	24	Rpleas_acq	CS_B	YDDY	MQQM	GWWG	BZZB	JXXJ	VKKV	fair	spielen	ehrlich	treu	retten	schön	faul	strafen	eitel	tot	rächen	schlecht	53pct	acq_USpleas_CSpleas2_noRW	acq23456_noRW	2	60	0	0	300	300	515	46	0	0	1	blank2r.bmp	0	1	+	0	1	blank2r.bmp	252	1	MQQM	306	2	retten	559	1	FEHLER	1106	0	0	0	0	0	0	0	0	0	0	0	0	0	0	0	0	0	0	0	0	0	0	0	0	0	0	0	0	0	0	0	0	0	0	0	0
070819	16:57:16	17:04:14	417511	5.0.10.0	5_exp_noRW	24	Rpleas_acq	CS_B	YDDY	MQQM	GWWG	BZZB	JXXJ	VKKV	fair	spielen	ehrlich	treu	retten	schön	faul	strafen	eitel	tot	rächen	schlecht	53pct	acq_USpleas_CSpleas2_noRW	acq23456_noRW	2	61	0	0	300	300	542	50	0	1	1	blank2r.bmp	0	1	+	0	1	blank2r.bmp	252	1	MQQM	306	3	schön	559	0	0	0	0	0	0	0	0	0	0	0	0	0	0	0	0	0	0	0	0	0	0	0	0	0	0	0	0	0	0	0	0	0	0	0	0	0	0	0
070819	16:57:16	17:04:16	419204	5.0.10.0	5_exp_noRW	24	Rpleas_acq	CS_B	YDDY	MQQM	GWWG	BZZB	JXXJ	VKKV	fair	spielen	ehrlich	treu	retten	schön	faul	strafen	eitel	tot	rächen	schlecht	47pct	acq_USpleas_CSunple2_noRW	acq23456_noRW	2	62	0	0	300	300	509	50	0	1	1	blank2r.bmp	0	1	+	0	1	blank2r.bmp	252	1	BZZB	306	1	treu	559	0	0	0	0	0	0	0	0	0	0	0	0	0	0	0	0	0	0	0	0	0	0	0	0	0	0	0	0	0	0	0	0	0	0	0	0	0	0	0
070819	16:57:16	17:04:18	420950	5.0.10.0	5_exp_noRW	24	Rpleas_acq	CS_B	YDDY	MQQM	GWWG	BZZB	JXXJ	VKKV	fair	spielen	ehrlich	treu	retten	schön	faul	strafen	eitel	tot	rächen	schlecht	47pct	acq_USunple_CSunple1_noRW	acq23456_noRW	2	63	0	0	300	300	370	50	0	0	1	blank2r.bmp	0	1	+	0	1	blank2r.bmp	252	1	GWWG	306	3	eitel	559	1	FEHLER	959	0	0	0	0	0	0	0	0	0	0	0	0	0	0	0	0	0	0	0	0	0	0	0	0	0	0	0	0	0	0	0	0	0	0	0	0
070819	16:57:16	17:04:20	422776	5.0.10.0	5_exp_noRW	24	Rpleas_acq	CS_B	YDDY	MQQM	GWWG	BZZB	JXXJ	VKKV	fair	spielen	ehrlich	treu	retten	schön	faul	strafen	eitel	tot	rächen	schlecht	47pct	acq_USpleas_CSpleas1_noRW	acq23456_noRW	2	64	0	0	300	300	862	50	0	1	1	blank2r.bmp	0	1	+	0	1	blank2r.bmp	252	1	YDDY	306	2	spielen	559	0	0	0	0	0	0	0	0	0	0	0	0	0	0	0	0	0	0	0	0	0	0	0	0	0	0	0	0	0	0	0	0	0	0	0	0	0	0	0
070819	16:57:16	17:04:21	424602	5.0.10.0	5_exp_noRW	24	Rpleas_acq	CS_B	YDDY	MQQM	GWWG	BZZB	JXXJ	VKKV	fair	spielen	ehrlich	treu	retten	schön	faul	strafen	eitel	tot	rächen	schlecht	53pct	acq_USpleas_CSpleas1_noRW	acq23456_noRW	2	65	0	0	300	300	440	46	0	0	1	blank2r.bmp	0	1	+	0	1	blank2r.bmp	252	1	YDDY	306	1	fair	559	1	FEHLER	1039	0	0	0	0	0	0	0	0	0	0	0	0	0	0	0	0	0	0	0	0	0	0	0	0	0	0	0	0	0	0	0	0	0	0	0	0
070819	16:57:16	17:04:23	426254	5.0.10.0	5_exp_noRW	24	Rpleas_acq	CS_B	YDDY	MQQM	GWWG	BZZB	JXXJ	VKKV	fair	spielen	ehrlich	treu	retten	schön	faul	strafen	eitel	tot	rächen	schlecht	47pct	acq_USunple_CSunple2_noRW	acq23456_noRW	2	66	0	0	300	300	487	50	0	0	1	blank2r.bmp	0	1	+	0	1	blank2r.bmp	252	1	BZZB	306	2	rächen	559	1	FEHLER	1079	0	0	0	0	0	0	0	0	0	0	0	0	0	0	0	0	0	0	0	0	0	0	0	0	0	0	0	0	0	0	0	0	0	0	0	0
070819	16:57:16	17:04:25	427960	5.0.10.0	5_exp_noRW	24	Rpleas_acq	CS_B	YDDY	MQQM	GWWG	BZZB	JXXJ	VKKV	fair	spielen	ehrlich	treu	retten	schön	faul	strafen	eitel	tot	rächen	schlecht	53pct	acq_USpleas_CSpleas2_noRW	acq23456_noRW	2	67	0	0	300	300	735	50	0	1	1	blank2r.bmp	0	1	+	0	1	blank2r.bmp	252	1	MQQM	306	1	treu	559	0	0	0	0	0	0	0	0	0	0	0	0	0	0	0	0	0	0	0	0	0	0	0	0	0	0	0	0	0	0	0	0	0	0	0	0	0	0	0
070819	16:57:16	17:04:27	429746	5.0.10.0	5_exp_noRW	24	Rpleas_acq	CS_B	YDDY	MQQM	GWWG	BZZB	JXXJ	VKKV	fair	spielen	ehrlich	treu	retten	schön	faul	strafen	eitel	tot	rächen	schlecht	53pct	acq_USpleas_CSpleas1_noRW	acq23456_noRW	2	68	0	0	300	300	615	50	0	1	1	blank2r.bmp	0	1	+	0	1	blank2r.bmp	252	1	YDDY	306	1	fair	559	0	0	0	0	0	0	0	0	0	0	0	0	0	0	0	0	0	0	0	0	0	0	0	0	0	0	0	0	0	0	0	0	0	0	0	0	0	0	0
070819	16:57:16	17:04:28	431532	5.0.10.0	5_exp_noRW	24	Rpleas_acq	CS_B	YDDY	MQQM	GWWG	BZZB	JXXJ	VKKV	fair	spielen	ehrlich	treu	retten	schön	faul	strafen	eitel	tot	rächen	schlecht	47pct	acq_USunple_CSpleas1_noRW	acq23456_noRW	2	69	0	0	300	300	608	46	0	1	1	blank2r.bmp	0	1	+	0	1	blank2r.bmp	252	1	YDDY	306	3	eitel	559	0	0	0	0	0	0	0	0	0	0	0	0	0	0	0	0	0	0	0	0	0	0	0	0	0	0	0	0	0	0	0	0	0	0	0	0	0	0	0
070819	16:57:16	17:04:30	433305	5.0.10.0	5_exp_noRW	24	Rpleas_acq	CS_B	YDDY	MQQM	GWWG	BZZB	JXXJ	VKKV	fair	spielen	ehrlich	treu	retten	schön	faul	strafen	eitel	tot	rächen	schlecht	47pct	acq_USunple_CSunple1_noRW	acq23456_noRW	2	70	0	0	300	300	593	46	0	1	1	blank2r.bmp	0	1	+	0	1	blank2r.bmp	252	1	GWWG	306	2	strafen	559	0	0	0	0	0	0	0	0	0	0	0	0	0	0	0	0	0	0	0	0	0	0	0	0	0	0	0	0	0	0	0	0	0	0	0	0	0	0	0
070819	16:57:16	17:04:32	434997	5.0.10.0	5_exp_noRW	24	Rpleas_acq	CS_B	YDDY	MQQM	GWWG	BZZB	JXXJ	VKKV	fair	spielen	ehrlich	treu	retten	schön	faul	strafen	eitel	tot	rächen	schlecht	53pct	acq_USunple_CSunple1_noRW	acq23456_noRW	2	71	0	0	300	300	511	46	0	1	1	blank2r.bmp	0	1	+	0	1	blank2r.bmp	252	1	GWWG	306	1	faul	559	0	0	0	0	0	0	0	0	0	0	0	0	0	0	0	0	0	0	0	0	0	0	0	0	0	0	0	0	0	0	0	0	0	0	0	0	0	0	0
070819	16:57:16	17:04:34	436690	5.0.10.0	5_exp_noRW	24	Rpleas_acq	CS_B	YDDY	MQQM	GWWG	BZZB	JXXJ	VKKV	fair	spielen	ehrlich	treu	retten	schön	faul	strafen	eitel	tot	rächen	schlecht	53pct	acq_USpleas_CSpleas2_noRW	acq23456_noRW	2	72	0	0	300	300	508	50	0	1	1	blank2r.bmp	0	1	+	0	1	blank2r.bmp	252	1	MQQM	306	1	treu	559	0	0	0	0	0	0	0	0	0	0	0	0	0	0	0	0	0	0	0	0	0	0	0	0	0	0	0	0	0	0	0	0	0	0	0	0	0	0	0
070819	16:57:16	17:04:35	438289	5.0.10.0	5_exp_noRW	24	Rpleas_acq	CS_B	YDDY	MQQM	GWWG	BZZB	JXXJ	VKKV	fair	spielen	ehrlich	treu	retten	schön	faul	strafen	eitel	tot	rächen	schlecht	53pct	acq_USpleas_CSpleas1_noRW	acq23456_noRW	2	73	0	0	300	300	421	50	0	1	1	blank2r.bmp	0	1	+	0	1	blank2r.bmp	252	1	YDDY	306	2	spielen	559	0	0	0	0	0	0	0	0	0	0	0	0	0	0	0	0	0	0	0	0	0	0	0	0	0	0	0	0	0	0	0	0	0	0	0	0	0	0	0
070819	16:57:16	17:04:37	439915	5.0.10.0	5_exp_noRW	24	Rpleas_acq	CS_B	YDDY	MQQM	GWWG	BZZB	JXXJ	VKKV	fair	spielen	ehrlich	treu	retten	schön	faul	strafen	eitel	tot	rächen	schlecht	47pct	acq_USunple_CSunple2_noRW	acq23456_noRW	2	74	0	0	300	300	446	46	0	1	1	blank2r.bmp	0	1	+	0	1	blank2r.bmp	252	1	BZZB	306	1	tot	559	0	0	0	0	0	0	0	0	0	0	0	0	0	0	0	0	0	0	0	0	0	0	0	0	0	0	0	0	0	0	0	0	0	0	0	0	0	0	0
070819	16:57:16	17:04:38	441634	5.0.10.0	5_exp_noRW	24	Rpleas_acq	CS_B	YDDY	MQQM	GWWG	BZZB	JXXJ	VKKV	fair	spielen	ehrlich	treu	retten	schön	faul	strafen	eitel	tot	rächen	schlecht	47pct	acq_USpleas_CSpleas2_noRW	acq23456_noRW	2	75	0	0	300	300	537	50	0	1	1	blank2r.bmp	0	1	+	0	1	blank2r.bmp	252	1	MQQM	306	2	retten	559	0	0	0	0	0	0	0	0	0	0	0	0	0	0	0	0	0	0	0	0	0	0	0	0	0	0	0	0	0	0	0	0	0	0	0	0	0	0	0
070819	16:57:16	17:04:40	443340	5.0.10.0	5_exp_noRW	24	Rpleas_acq	CS_B	YDDY	MQQM	GWWG	BZZB	JXXJ	VKKV	fair	spielen	ehrlich	treu	retten	schön	faul	strafen	eitel	tot	rächen	schlecht	53pct	acq_USunple_CSunple1_noRW	acq23456_noRW	2	76	0	0	300	300	518	46	0	1	1	blank2r.bmp	0	1	+	0	1	blank2r.bmp	252	1	GWWG	306	3	eitel	559	0	0	0	0	0	0	0	0	0	0	0	0	0	0	0	0	0	0	0	0	0	0	0	0	0	0	0	0	0	0	0	0	0	0	0	0	0	0	0
070819	16:57:16	17:04:42	444900	5.0.10.0	5_exp_noRW	24	Rpleas_acq	CS_B	YDDY	MQQM	GWWG	BZZB	JXXJ	VKKV	fair	spielen	ehrlich	treu	retten	schön	faul	strafen	eitel	tot	rächen	schlecht	53pct	acq_USunple_CSunple2_noRW	acq23456_noRW	2	77	0	0	300	300	391	46	0	1	1	blank2r.bmp	0	1	+	0	1	blank2r.bmp	252	1	BZZB	306	1	tot	559	0	0	0	0	0	0	0	0	0	0	0	0	0	0	0	0	0	0	0	0	0	0	0	0	0	0	0	0	0	0	0	0	0	0	0	0	0	0	0
070819	16:57:16	17:04:43	446499	5.0.10.0	5_exp_noRW	24	Rpleas_acq	CS_B	YDDY	MQQM	GWWG	BZZB	JXXJ	VKKV	fair	spielen	ehrlich	treu	retten	schön	faul	strafen	eitel	tot	rächen	schlecht	47pct	acq_USpleas_CSunple1_noRW	acq23456_noRW	2	78	0	0	300	300	434	50	0	1	1	blank2r.bmp	0	1	+	0	1	blank2r.bmp	252	1	GWWG	306	2	spielen	559	0	0	0	0	0	0	0	0	0	0	0	0	0	0	0	0	0	0	0	0	0	0	0	0	0	0	0	0	0	0	0	0	0	0	0	0	0	0	0
070819	16:57:16	17:04:45	448138	5.0.10.0	5_exp_noRW	24	Rpleas_acq	CS_B	YDDY	MQQM	GWWG	BZZB	JXXJ	VKKV	fair	spielen	ehrlich	treu	retten	schön	faul	strafen	eitel	tot	rächen	schlecht	47pct	acq_USunple_CSunple2_noRW	acq23456_noRW	2	79	0	0	300	300	462	46	0	1	1	blank2r.bmp	0	1	+	0	1	blank2r.bmp	252	1	BZZB	306	3	schlecht	559	0	0	0	0	0	0	0	0	0	0	0	0	0	0	0	0	0	0	0	0	0	0	0	0	0	0	0	0	0	0	0	0	0	0	0	0	0	0	0
070819	16:57:16	17:04:47	449711	5.0.10.0	5_exp_noRW	24	Rpleas_acq	CS_B	YDDY	MQQM	GWWG	BZZB	JXXJ	VKKV	fair	spielen	ehrlich	treu	retten	schön	faul	strafen	eitel	tot	rächen	schlecht	53pct	acq_USunple_CSpleas2_noRW	acq23456_noRW	2	80	0	0	300	300	396	46	0	1	1	blank2r.bmp	0	1	+	0	1	blank2r.bmp	252	1	MQQM	306	2	rächen	559	0	0	0	0	0	0	0	0	0	0	0	0	0	0	0	0	0	0	0	0	0	0	0	0	0	0	0	0	0	0	0	0	0	0	0	0	0	0	0
070819	16:57:16	17:05:32	495504	5.0.10.0	5_exp_noRW	24	Rpleas_acq	CS_B	YDDY	MQQM	GWWG	BZZB	JXXJ	VKKV	fair	spielen	ehrlich	treu	retten	schön	faul	strafen	eitel	tot	rächen	schlecht	47pct	acq_USpleas_CSpleas2_noRW	acq23456_noRW	3	1	0	0	300	300	385	50	0	1	1	blank2r.bmp	0	1	+	0	1	blank2r.bmp	252	1	MQQM	306	3	schön	559	0	0	0	0	0	0	0	0	0	0	0	0	0	0	0	0	0	0	0	0	0	0	0	0	0	0	0	0	0	0	0	0	0	0	0	0	0	0	0
070819	16:57:16	17:05:34	497157	5.0.10.0	5_exp_noRW	24	Rpleas_acq	CS_B	YDDY	MQQM	GWWG	BZZB	JXXJ	VKKV	fair	spielen	ehrlich	treu	retten	schön	faul	strafen	eitel	tot	rächen	schlecht	53pct	acq_USunple_CSunple2_noRW	acq23456_noRW	3	2	0	0	300	300	488	46	0	1	1	blank2r.bmp	0	1	+	0	1	blank2r.bmp	252	1	BZZB	306	2	rächen	559	0	0	0	0	0	0	0	0	0	0	0	0	0	0	0	0	0	0	0	0	0	0	0	0	0	0	0	0	0	0	0	0	0	0	0	0	0	0	0
070819	16:57:16	17:05:36	498730	5.0.10.0	5_exp_noRW	24	Rpleas_acq	CS_B	YDDY	MQQM	GWWG	BZZB	JXXJ	VKKV	fair	spielen	ehrlich	treu	retten	schön	faul	strafen	eitel	tot	rächen	schlecht	53pct	acq_USpleas_CSpleas2_noRW	acq23456_noRW	3	3	0	0	300	300	387	50	0	1	1	blank2r.bmp	0	1	+	0	1	blank2r.bmp	252	1	MQQM	306	2	retten	559	0	0	0	0	0	0	0	0	0	0	0	0	0	0	0	0	0	0	0	0	0	0	0	0	0	0	0	0	0	0	0	0	0	0	0	0	0	0	0
070819	16:57:16	17:05:37	500302	5.0.10.0	5_exp_noRW	24	Rpleas_acq	CS_B	YDDY	MQQM	GWWG	BZZB	JXXJ	VKKV	fair	spielen	ehrlich	treu	retten	schön	faul	strafen	eitel	tot	rächen	schlecht	53pct	acq_USunple_CSunple2_noRW	acq23456_noRW	3	4	0	0	300	300	399	46	0	1	1	blank2r.bmp	0	1	+	0	1	blank2r.bmp	252	1	BZZB	306	1	tot	559	0	0	0	0	0	0	0	0	0	0	0	0	0	0	0	0	0	0	0	0	0	0	0	0	0	0	0	0	0	0	0	0	0	0	0	0	0	0	0
070819	16:57:16	17:05:39	501915	5.0.10.0	5_exp_noRW	24	Rpleas_acq	CS_B	YDDY	MQQM	GWWG	BZZB	JXXJ	VKKV	fair	spielen	ehrlich	treu	retten	schön	faul	strafen	eitel	tot	rächen	schlecht	53pct	acq_USunple_CSunple1_noRW	acq23456_noRW	3	5	0	0	300	300	432	46	0	1	1	blank2r.bmp	0	1	+	0	1	blank2r.bmp	252	1	GWWG	306	2	strafen	559	0	0	0	0	0	0	0	0	0	0	0	0	0	0	0	0	0	0	0	0	0	0	0	0	0	0	0	0	0	0	0	0	0	0	0	0	0	0	0
070819	16:57:16	17:05:40	503634	5.0.10.0	5_exp_noRW	24	Rpleas_acq	CS_B	YDDY	MQQM	GWWG	BZZB	JXXJ	VKKV	fair	spielen	ehrlich	treu	retten	schön	faul	strafen	eitel	tot	rächen	schlecht	47pct	acq_USpleas_CSunple2_noRW	acq23456_noRW	3	6	0	0	300	300	547	50	0	1	1	blank2r.bmp	0	1	+	0	1	blank2r.bmp	252	1	BZZB	306	2	retten	559	0	0	0	0	0	0	0	0	0	0	0	0	0	0	0	0	0	0	0	0	0	0	0	0	0	0	0	0	0	0	0	0	0	0	0	0	0	0	0
070819	16:57:16	17:05:42	505353	5.0.10.0	5_exp_noRW	24	Rpleas_acq	CS_B	YDDY	MQQM	GWWG	BZZB	JXXJ	VKKV	fair	spielen	ehrlich	treu	retten	schön	faul	strafen	eitel	tot	rächen	schlecht	53pct	acq_USpleas_CSpleas1_noRW	acq23456_noRW	3	7	0	0	300	300	550	50	0	1	1	blank2r.bmp	0	1	+	0	1	blank2r.bmp	252	1	YDDY	306	3	ehrlich	559	0	0	0	0	0	0	0	0	0	0	0	0	0	0	0	0	0	0	0	0	0	0	0	0	0	0	0	0	0	0	0	0	0	0	0	0	0	0	0
070819	16:57:16	17:05:44	507073	5.0.10.0	5_exp_noRW	24	Rpleas_acq	CS_B	YDDY	MQQM	GWWG	BZZB	JXXJ	VKKV	fair	spielen	ehrlich	treu	retten	schön	faul	strafen	eitel	tot	rächen	schlecht	47pct	acq_USpleas_CSpleas1_noRW	acq23456_noRW	3	8	0	0	300	300	536	50	0	1	1	blank2r.bmp	0	1	+	0	1	blank2r.bmp	252	1	YDDY	306	2	spielen	559	0	0	0	0	0	0	0	0	0	0	0	0	0	0	0	0	0	0	0	0	0	0	0	0	0	0	0	0	0	0	0	0	0	0	0	0	0	0	0
070819	16:57:16	17:05:46	508672	5.0.10.0	5_exp_noRW	24	Rpleas_acq	CS_B	YDDY	MQQM	GWWG	BZZB	JXXJ	VKKV	fair	spielen	ehrlich	treu	retten	schön	faul	strafen	eitel	tot	rächen	schlecht	47pct	acq_USunple_CSunple2_noRW	acq23456_noRW	3	9	0	0	300	300	424	46	0	1	1	blank2r.bmp	0	1	+	0	1	blank2r.bmp	252	1	BZZB	306	2	rächen	559	0	0	0	0	0	0	0	0	0	0	0	0	0	0	0	0	0	0	0	0	0	0	0	0	0	0	0	0	0	0	0	0	0	0	0	0	0	0	0
070819	16:57:16	17:05:47	510365	5.0.10.0	5_exp_noRW	24	Rpleas_acq	CS_B	YDDY	MQQM	GWWG	BZZB	JXXJ	VKKV	fair	spielen	ehrlich	treu	retten	schön	faul	strafen	eitel	tot	rächen	schlecht	53pct	acq_USpleas_CSunple1_noRW	acq23456_noRW	3	10	0	0	300	300	511	50	0	1	1	blank2r.bmp	0	1	+	0	1	blank2r.bmp	252	1	GWWG	306	1	fair	559	0	0	0	0	0	0	0	0	0	0	0	0	0	0	0	0	0	0	0	0	0	0	0	0	0	0	0	0	0	0	0	0	0	0	0	0	0	0	0
070819	16:57:16	17:05:49	511911	5.0.10.0	5_exp_noRW	24	Rpleas_acq	CS_B	YDDY	MQQM	GWWG	BZZB	JXXJ	VKKV	fair	spielen	ehrlich	treu	retten	schön	faul	strafen	eitel	tot	rächen	schlecht	47pct	acq_USunple_CSunple2_noRW	acq23456_noRW	3	11	0	0	300	300	369	46	0	1	1	blank2r.bmp	0	1	+	0	1	blank2r.bmp	252	1	BZZB	306	3	schlecht	559	0	0	0	0	0	0	0	0	0	0	0	0	0	0	0	0	0	0	0	0	0	0	0	0	0	0	0	0	0	0	0	0	0	0	0	0	0	0	0
070819	16:57:16	17:05:50	513576	5.0.10.0	5_exp_noRW	24	Rpleas_acq	CS_B	YDDY	MQQM	GWWG	BZZB	JXXJ	VKKV	fair	spielen	ehrlich	treu	retten	schön	faul	strafen	eitel	tot	rächen	schlecht	47pct	acq_USunple_CSunple1_noRW	acq23456_noRW	3	12	0	0	300	300	488	46	0	1	1	blank2r.bmp	0	1	+	0	1	blank2r.bmp	252	1	GWWG	306	2	strafen	559	0	0	0	0	0	0	0	0	0	0	0	0	0	0	0	0	0	0	0	0	0	0	0	0	0	0	0	0	0	0	0	0	0	0	0	0	0	0	0
070819	16:57:16	17:05:52	515162	5.0.10.0	5_exp_noRW	24	Rpleas_acq	CS_B	YDDY	MQQM	GWWG	BZZB	JXXJ	VKKV	fair	spielen	ehrlich	treu	retten	schön	faul	strafen	eitel	tot	rächen	schlecht	53pct	acq_USunple_CSpleas2_noRW	acq23456_noRW	3	13	0	0	300	300	408	46	0	1	1	blank2r.bmp	0	1	+	0	1	blank2r.bmp	252	1	MQQM	306	1	tot	559	0	0	0	0	0	0	0	0	0	0	0	0	0	0	0	0	0	0	0	0	0	0	0	0	0	0	0	0	0	0	0	0	0	0	0	0	0	0	0
070819	16:57:16	17:05:54	516868	5.0.10.0	5_exp_noRW	24	Rpleas_acq	CS_B	YDDY	MQQM	GWWG	BZZB	JXXJ	VKKV	fair	spielen	ehrlich	treu	retten	schön	faul	strafen	eitel	tot	rächen	schlecht	53pct	acq_USpleas_CSpleas2_noRW	acq23456_noRW	3	14	0	0	300	300	518	50	0	1	1	blank2r.bmp	0	1	+	0	1	blank2r.bmp	252	1	MQQM	306	1	treu	559	0	0	0	0	0	0	0	0	0	0	0	0	0	0	0	0	0	0	0	0	0	0	0	0	0	0	0	0	0	0	0	0	0	0	0	0	0	0	0
070819	16:57:16	17:05:55	518508	5.0.10.0	5_exp_noRW	24	Rpleas_acq	CS_B	YDDY	MQQM	GWWG	BZZB	JXXJ	VKKV	fair	spielen	ehrlich	treu	retten	schön	faul	strafen	eitel	tot	rächen	schlecht	53pct	acq_USpleas_CSpleas1_noRW	acq23456_noRW	3	15	0	0	300	300	466	50	0	1	1	blank2r.bmp	0	1	+	0	1	blank2r.bmp	252	1	YDDY	306	1	fair	559	0	0	0	0	0	0	0	0	0	0	0	0	0	0	0	0	0	0	0	0	0	0	0	0	0	0	0	0	0	0	0	0	0	0	0	0	0	0	0
070819	16:57:16	17:05:57	520174	5.0.10.0	5_exp_noRW	24	Rpleas_acq	CS_B	YDDY	MQQM	GWWG	BZZB	JXXJ	VKKV	fair	spielen	ehrlich	treu	retten	schön	faul	strafen	eitel	tot	rächen	schlecht	47pct	acq_USpleas_CSpleas1_noRW	acq23456_noRW	3	16	0	0	300	300	481	50	0	1	1	blank2r.bmp	0	1	+	0	1	blank2r.bmp	252	1	YDDY	306	3	ehrlich	559	0	0	0	0	0	0	0	0	0	0	0	0	0	0	0	0	0	0	0	0	0	0	0	0	0	0	0	0	0	0	0	0	0	0	0	0	0	0	0
070819	16:57:16	17:05:59	521853	5.0.10.0	5_exp_noRW	24	Rpleas_acq	CS_B	YDDY	MQQM	GWWG	BZZB	JXXJ	VKKV	fair	spielen	ehrlich	treu	retten	schön	faul	strafen	eitel	tot	rächen	schlecht	53pct	acq_USunple_CSunple1_noRW	acq23456_noRW	3	17	0	0	300	300	505	46	0	1	1	blank2r.bmp	0	1	+	0	1	blank2r.bmp	252	1	GWWG	306	1	faul	559	0	0	0	0	0	0	0	0	0	0	0	0	0	0	0	0	0	0	0	0	0	0	0	0	0	0	0	0	0	0	0	0	0	0	0	0	0	0	0
070819	16:57:16	17:06:00	523426	5.0.10.0	5_exp_noRW	24	Rpleas_acq	CS_B	YDDY	MQQM	GWWG	BZZB	JXXJ	VKKV	fair	spielen	ehrlich	treu	retten	schön	faul	strafen	eitel	tot	rächen	schlecht	53pct	acq_USpleas_CSpleas2_noRW	acq23456_noRW	3	18	0	0	300	300	406	50	0	1	1	blank2r.bmp	0	1	+	0	1	blank2r.bmp	252	1	MQQM	306	3	schön	559	0	0	0	0	0	0	0	0	0	0	0	0	0	0	0	0	0	0	0	0	0	0	0	0	0	0	0	0	0	0	0	0	0	0	0	0	0	0	0
070819	16:57:16	17:06:02	525078	5.0.10.0	5_exp_noRW	24	Rpleas_acq	CS_B	YDDY	MQQM	GWWG	BZZB	JXXJ	VKKV	fair	spielen	ehrlich	treu	retten	schön	faul	strafen	eitel	tot	rächen	schlecht	47pct	acq_USunple_CSunple1_noRW	acq23456_noRW	3	19	0	0	300	300	482	46	0	1	1	blank2r.bmp	0	1	+	0	1	blank2r.bmp	252	1	GWWG	306	3	eitel	559	0	0	0	0	0	0	0	0	0	0	0	0	0	0	0	0	0	0	0	0	0	0	0	0	0	0	0	0	0	0	0	0	0	0	0	0	0	0	0
070819	16:57:16	17:06:04	526704	5.0.10.0	5_exp_noRW	24	Rpleas_acq	CS_B	YDDY	MQQM	GWWG	BZZB	JXXJ	VKKV	fair	spielen	ehrlich	treu	retten	schön	faul	strafen	eitel	tot	rächen	schlecht	47pct	acq_USunple_CSpleas1_noRW	acq23456_noRW	3	20	0	0	300	300	457	46	0	1	1	blank2r.bmp	0	1	+	0	1	blank2r.bmp	252	1	YDDY	306	2	strafen	559	0	0	0	0	0	0	0	0	0	0	0	0	0	0	0	0	0	0	0	0	0	0	0	0	0	0	0	0	0	0	0	0	0	0	0	0	0	0	0
070819	16:57:16	17:06:05	528423	5.0.10.0	5_exp_noRW	24	Rpleas_acq	CS_B	YDDY	MQQM	GWWG	BZZB	JXXJ	VKKV	fair	spielen	ehrlich	treu	retten	schön	faul	strafen	eitel	tot	rächen	schlecht	47pct	acq_USpleas_CSpleas2_noRW	acq23456_noRW	3	21	0	0	300	300	556	50	0	1	1	blank2r.bmp	0	1	+	0	1	blank2r.bmp	252	1	MQQM	306	1	treu	559	0	0	0	0	0	0	0	0	0	0	0	0	0	0	0	0	0	0	0	0	0	0	0	0	0	0	0	0	0	0	0	0	0	0	0	0	0	0	0
070819	16:57:16	17:06:07	529996	5.0.10.0	5_exp_noRW	24	Rpleas_acq	CS_B	YDDY	MQQM	GWWG	BZZB	JXXJ	VKKV	fair	spielen	ehrlich	treu	retten	schön	faul	strafen	eitel	tot	rächen	schlecht	53pct	acq_USpleas_CSpleas1_noRW	acq23456_noRW	3	22	0	0	300	300	390	50	0	1	1	blank2r.bmp	0	1	+	0	1	blank2r.bmp	252	1	YDDY	306	2	spielen	559	0	0	0	0	0	0	0	0	0	0	0	0	0	0	0	0	0	0	0	0	0	0	0	0	0	0	0	0	0	0	0	0	0	0	0	0	0	0	0
070819	16:57:16	17:06:08	531635	5.0.10.0	5_exp_noRW	24	Rpleas_acq	CS_B	YDDY	MQQM	GWWG	BZZB	JXXJ	VKKV	fair	spielen	ehrlich	treu	retten	schön	faul	strafen	eitel	tot	rächen	schlecht	53pct	acq_USunple_CSunple2_noRW	acq23456_noRW	3	23	0	0	300	300	474	46	0	1	1	blank2r.bmp	0	1	+	0	1	blank2r.bmp	252	1	BZZB	306	3	schlecht	559	0	0	0	0	0	0	0	0	0	0	0	0	0	0	0	0	0	0	0	0	0	0	0	0	0	0	0	0	0	0	0	0	0	0	0	0	0	0	0
070819	16:57:16	17:06:10	533261	5.0.10.0	5_exp_noRW	24	Rpleas_acq	CS_B	YDDY	MQQM	GWWG	BZZB	JXXJ	VKKV	fair	spielen	ehrlich	treu	retten	schön	faul	strafen	eitel	tot	rächen	schlecht	53pct	acq_USpleas_CSunple1_noRW	acq23456_noRW	3	24	0	0	300	300	442	50	0	1	1	blank2r.bmp	0	1	+	0	1	blank2r.bmp	252	1	GWWG	306	1	fair	559	0	0	0	0	0	0	0	0	0	0	0	0	0	0	0	0	0	0	0	0	0	0	0	0	0	0	0	0	0	0	0	0	0	0	0	0	0	0	0
070819	16:57:16	17:06:12	534874	5.0.10.0	5_exp_noRW	24	Rpleas_acq	CS_B	YDDY	MQQM	GWWG	BZZB	JXXJ	VKKV	fair	spielen	ehrlich	treu	retten	schön	faul	strafen	eitel	tot	rächen	schlecht	53pct	acq_USunple_CSunple2_noRW	acq23456_noRW	3	25	0	0	300	300	437	46	0	1	1	blank2r.bmp	0	1	+	0	1	blank2r.bmp	252	1	BZZB	306	1	tot	559	0	0	0	0	0	0	0	0	0	0	0	0	0	0	0	0	0	0	0	0	0	0	0	0	0	0	0	0	0	0	0	0	0	0	0	0	0	0	0
070819	16:57:16	17:06:13	536473	5.0.10.0	5_exp_noRW	24	Rpleas_acq	CS_B	YDDY	MQQM	GWWG	BZZB	JXXJ	VKKV	fair	spielen	ehrlich	treu	retten	schön	faul	strafen	eitel	tot	rächen	schlecht	47pct	acq_USunple_CSunple2_noRW	acq23456_noRW	3	26	0	0	300	300	434	46	0	1	1	blank2r.bmp	0	1	+	0	1	blank2r.bmp	252	1	BZZB	306	2	rächen	559	0	0	0	0	0	0	0	0	0	0	0	0	0	0	0	0	0	0	0	0	0	0	0	0	0	0	0	0	0	0	0	0	0	0	0	0	0	0	0
070819	16:57:16	17:06:15	538046	5.0.10.0	5_exp_noRW	24	Rpleas_acq	CS_B	YDDY	MQQM	GWWG	BZZB	JXXJ	VKKV	fair	spielen	ehrlich	treu	retten	schön	faul	strafen	eitel	tot	rächen	schlecht	53pct	acq_USunple_CSpleas1_noRW	acq23456_noRW	3	27	0	0	300	300	385	46	0	1	1	blank2r.bmp	0	1	+	0	1	blank2r.bmp	252	1	YDDY	306	1	faul	559	0	0	0	0	0	0	0	0	0	0	0	0	0	0	0	0	0	0	0	0	0	0	0	0	0	0	0	0	0	0	0	0	0	0	0	0	0	0	0
070819	16:57:16	17:06:16	539619	5.0.10.0	5_exp_noRW	24	Rpleas_acq	CS_B	YDDY	MQQM	GWWG	BZZB	JXXJ	VKKV	fair	spielen	ehrlich	treu	retten	schön	faul	strafen	eitel	tot	rächen	schlecht	47pct	acq_USunple_CSunple1_noRW	acq23456_noRW	3	28	0	0	300	300	409	46	0	1	1	blank2r.bmp	0	1	+	0	1	blank2r.bmp	252	1	GWWG	306	1	faul	559	0	0	0	0	0	0	0	0	0	0	0	0	0	0	0	0	0	0	0	0	0	0	0	0	0	0	0	0	0	0	0	0	0	0	0	0	0	0	0
070819	16:57:16	17:06:18	541218	5.0.10.0	5_exp_noRW	24	Rpleas_acq	CS_B	YDDY	MQQM	GWWG	BZZB	JXXJ	VKKV	fair	spielen	ehrlich	treu	retten	schön	faul	strafen	eitel	tot	rächen	schlecht	47pct	acq_USunple_CSunple1_noRW	acq23456_noRW	3	29	0	0	300	300	422	46	0	1	1	blank2r.bmp	0	1	+	0	1	blank2r.bmp	252	1	GWWG	306	3	eitel	559	0	0	0	0	0	0	0	0	0	0	0	0	0	0	0	0	0	0	0	0	0	0	0	0	0	0	0	0	0	0	0	0	0	0	0	0	0	0	0
070819	16:57:16	17:06:20	542830	5.0.10.0	5_exp_noRW	24	Rpleas_acq	CS_B	YDDY	MQQM	GWWG	BZZB	JXXJ	VKKV	fair	spielen	ehrlich	treu	retten	schön	faul	strafen	eitel	tot	rächen	schlecht	53pct	acq_USpleas_CSpleas1_noRW	acq23456_noRW	3	30	0	0	300	300	432	50	0	1	1	blank2r.bmp	0	1	+	0	1	blank2r.bmp	252	1	YDDY	306	3	ehrlich	559	0	0	0	0	0	0	0	0	0	0	0	0	0	0	0	0	0	0	0	0	0	0	0	0	0	0	0	0	0	0	0	0	0	0	0	0	0	0	0
070819	16:57:16	17:06:21	544416	5.0.10.0	5_exp_noRW	24	Rpleas_acq	CS_B	YDDY	MQQM	GWWG	BZZB	JXXJ	VKKV	fair	spielen	ehrlich	treu	retten	schön	faul	strafen	eitel	tot	rächen	schlecht	47pct	acq_USpleas_CSunple2_noRW	acq23456_noRW	3	31	0	0	300	300	422	50	0	1	1	blank2r.bmp	0	1	+	0	1	blank2r.bmp	252	1	BZZB	306	3	schön	559	0	0	0	0	0	0	0	0	0	0	0	0	0	0	0	0	0	0	0	0	0	0	0	0	0	0	0	0	0	0	0	0	0	0	0	0	0	0	0
070819	16:57:16	17:06:23	546016	5.0.10.0	5_exp_noRW	24	Rpleas_acq	CS_B	YDDY	MQQM	GWWG	BZZB	JXXJ	VKKV	fair	spielen	ehrlich	treu	retten	schön	faul	strafen	eitel	tot	rächen	schlecht	53pct	acq_USpleas_CSpleas2_noRW	acq23456_noRW	3	32	0	0	300	300	423	50	0	1	1	blank2r.bmp	0	1	+	0	1	blank2r.bmp	252	1	MQQM	306	3	schön	559	0	0	0	0	0	0	0	0	0	0	0	0	0	0	0	0	0	0	0	0	0	0	0	0	0	0	0	0	0	0	0	0	0	0	0	0	0	0	0
070819	16:57:16	17:06:24	547642	5.0.10.0	5_exp_noRW	24	Rpleas_acq	CS_B	YDDY	MQQM	GWWG	BZZB	JXXJ	VKKV	fair	spielen	ehrlich	treu	retten	schön	faul	strafen	eitel	tot	rächen	schlecht	53pct	acq_USpleas_CSpleas2_noRW	acq23456_noRW	3	33	0	0	300	300	441	50	0	1	1	blank2r.bmp	0	1	+	0	1	blank2r.bmp	252	1	MQQM	306	2	retten	559	0	0	0	0	0	0	0	0	0	0	0	0	0	0	0	0	0	0	0	0	0	0	0	0	0	0	0	0	0	0	0	0	0	0	0	0	0	0	0
070819	16:57:16	17:06:26	549201	5.0.10.0	5_exp_noRW	24	Rpleas_acq	CS_B	YDDY	MQQM	GWWG	BZZB	JXXJ	VKKV	fair	spielen	ehrlich	treu	retten	schön	faul	strafen	eitel	tot	rächen	schlecht	53pct	acq_USunple_CSunple1_noRW	acq23456_noRW	3	34	0	0	300	300	384	46	0	1	1	blank2r.bmp	0	1	+	0	1	blank2r.bmp	252	1	GWWG	306	2	strafen	559	0	0	0	0	0	0	0	0	0	0	0	0	0	0	0	0	0	0	0	0	0	0	0	0	0	0	0	0	0	0	0	0	0	0	0	0	0	0	0
070819	16:57:16	17:06:28	550894	5.0.10.0	5_exp_noRW	24	Rpleas_acq	CS_B	YDDY	MQQM	GWWG	BZZB	JXXJ	VKKV	fair	spielen	ehrlich	treu	retten	schön	faul	strafen	eitel	tot	rächen	schlecht	53pct	acq_USunple_CSunple2_noRW	acq23456_noRW	3	35	0	0	300	300	521	46	0	1	1	blank2r.bmp	0	1	+	0	1	blank2r.bmp	252	1	BZZB	306	3	schlecht	559	0	0	0	0	0	0	0	0	0	0	0	0	0	0	0	0	0	0	0	0	0	0	0	0	0	0	0	0	0	0	0	0	0	0	0	0	0	0	0
070819	16:57:16	17:06:29	552520	5.0.10.0	5_exp_noRW	24	Rpleas_acq	CS_B	YDDY	MQQM	GWWG	BZZB	JXXJ	VKKV	fair	spielen	ehrlich	treu	retten	schön	faul	strafen	eitel	tot	rächen	schlecht	47pct	acq_USunple_CSpleas2_noRW	acq23456_noRW	3	36	0	0	300	300	438	46	0	1	1	blank2r.bmp	0	1	+	0	1	blank2r.bmp	252	1	MQQM	306	3	schlecht	559	0	0	0	0	0	0	0	0	0	0	0	0	0	0	0	0	0	0	0	0	0	0	0	0	0	0	0	0	0	0	0	0	0	0	0	0	0	0	0
070819	16:57:16	17:06:31	554092	5.0.10.0	5_exp_noRW	24	Rpleas_acq	CS_B	YDDY	MQQM	GWWG	BZZB	JXXJ	VKKV	fair	spielen	ehrlich	treu	retten	schön	faul	strafen	eitel	tot	rächen	schlecht	53pct	acq_USunple_CSunple1_noRW	acq23456_noRW	3	37	0	0	300	300	408	46	0	1	1	blank2r.bmp	0	1	+	0	1	blank2r.bmp	252	1	GWWG	306	1	faul	559	0	0	0	0	0	0	0	0	0	0	0	0	0	0	0	0	0	0	0	0	0	0	0	0	0	0	0	0	0	0	0	0	0	0	0	0	0	0	0
070819	16:57:16	17:06:33	555825	5.0.10.0	5_exp_noRW	24	Rpleas_acq	CS_B	YDDY	MQQM	GWWG	BZZB	JXXJ	VKKV	fair	spielen	ehrlich	treu	retten	schön	faul	strafen	eitel	tot	rächen	schlecht	47pct	acq_USpleas_CSpleas1_noRW	acq23456_noRW	3	38	0	0	300	300	559	50	0	1	1	blank2r.bmp	0	1	+	0	1	blank2r.bmp	252	1	YDDY	306	1	fair	559	0	0	0	0	0	0	0	0	0	0	0	0	0	0	0	0	0	0	0	0	0	0	0	0	0	0	0	0	0	0	0	0	0	0	0	0	0	0	0
070819	16:57:16	17:06:34	557384	5.0.10.0	5_exp_noRW	24	Rpleas_acq	CS_B	YDDY	MQQM	GWWG	BZZB	JXXJ	VKKV	fair	spielen	ehrlich	treu	retten	schön	faul	strafen	eitel	tot	rächen	schlecht	47pct	acq_USpleas_CSpleas1_noRW	acq23456_noRW	3	39	0	0	300	300	393	50	0	1	1	blank2r.bmp	0	1	+	0	1	blank2r.bmp	252	1	YDDY	306	2	spielen	559	0	0	0	0	0	0	0	0	0	0	0	0	0	0	0	0	0	0	0	0	0	0	0	0	0	0	0	0	0	0	0	0	0	0	0	0	0	0	0
070819	16:57:16	17:06:36	559103	5.0.10.0	5_exp_noRW	24	Rpleas_acq	CS_B	YDDY	MQQM	GWWG	BZZB	JXXJ	VKKV	fair	spielen	ehrlich	treu	retten	schön	faul	strafen	eitel	tot	rächen	schlecht	53pct	acq_USpleas_CSpleas2_noRW	acq23456_noRW	3	40	0	0	300	300	545	50	0	1	1	blank2r.bmp	0	1	+	0	1	blank2r.bmp	252	1	MQQM	306	2	retten	559	0	0	0	0	0	0	0	0	0	0	0	0	0	0	0	0	0	0	0	0	0	0	0	0	0	0	0	0	0	0	0	0	0	0	0	0	0	0	0
070819	16:57:16	17:06:38	560716	5.0.10.0	5_exp_noRW	24	Rpleas_acq	CS_B	YDDY	MQQM	GWWG	BZZB	JXXJ	VKKV	fair	spielen	ehrlich	treu	retten	schön	faul	strafen	eitel	tot	rächen	schlecht	53pct	acq_USpleas_CSpleas1_noRW	acq23456_noRW	3	41	0	0	300	300	446	50	0	1	1	blank2r.bmp	0	1	+	0	1	blank2r.bmp	252	1	YDDY	306	3	ehrlich	559	0	0	0	0	0	0	0	0	0	0	0	0	0	0	0	0	0	0	0	0	0	0	0	0	0	0	0	0	0	0	0	0	0	0	0	0	0	0	0
070819	16:57:16	17:06:39	562409	5.0.10.0	5_exp_noRW	24	Rpleas_acq	CS_B	YDDY	MQQM	GWWG	BZZB	JXXJ	VKKV	fair	spielen	ehrlich	treu	retten	schön	faul	strafen	eitel	tot	rächen	schlecht	47pct	acq_USunple_CSunple1_noRW	acq23456_noRW	3	42	0	0	300	300	511	46	0	1	1	blank2r.bmp	0	1	+	0	1	blank2r.bmp	252	1	GWWG	306	3	eitel	559	0	0	0	0	0	0	0	0	0	0	0	0	0	0	0	0	0	0	0	0	0	0	0	0	0	0	0	0	0	0	0	0	0	0	0	0	0	0	0
070819	16:57:16	17:06:41	564155	5.0.10.0	5_exp_noRW	24	Rpleas_acq	CS_B	YDDY	MQQM	GWWG	BZZB	JXXJ	VKKV	fair	spielen	ehrlich	treu	retten	schön	faul	strafen	eitel	tot	rächen	schlecht	53pct	acq_USpleas_CSpleas1_noRW	acq23456_noRW	3	43	0	0	300	300	572	50	0	1	1	blank2r.bmp	0	1	+	0	1	blank2r.bmp	252	1	YDDY	306	1	fair	559	0	0	0	0	0	0	0	0	0	0	0	0	0	0	0	0	0	0	0	0	0	0	0	0	0	0	0	0	0	0	0	0	0	0	0	0	0	0	0
070819	16:57:16	17:06:43	565754	5.0.10.0	5_exp_noRW	24	Rpleas_acq	CS_B	YDDY	MQQM	GWWG	BZZB	JXXJ	VKKV	fair	spielen	ehrlich	treu	retten	schön	faul	strafen	eitel	tot	rächen	schlecht	53pct	acq_USunple_CSpleas2_noRW	acq23456_noRW	3	44	0	0	300	300	430	46	0	1	1	blank2r.bmp	0	1	+	0	1	blank2r.bmp	252	1	MQQM	306	2	rächen	559	0	0	0	0	0	0	0	0	0	0	0	0	0	0	0	0	0	0	0	0	0	0	0	0	0	0	0	0	0	0	0	0	0	0	0	0	0	0	0
070819	16:57:16	17:06:44	567446	5.0.10.0	5_exp_noRW	24	Rpleas_acq	CS_B	YDDY	MQQM	GWWG	BZZB	JXXJ	VKKV	fair	spielen	ehrlich	treu	retten	schön	faul	strafen	eitel	tot	rächen	schlecht	47pct	acq_USunple_CSunple2_noRW	acq23456_noRW	3	45	0	0	300	300	504	46	0	1	1	blank2r.bmp	0	1	+	0	1	blank2r.bmp	252	1	BZZB	306	2	rächen	559	0	0	0	0	0	0	0	0	0	0	0	0	0	0	0	0	0	0	0	0	0	0	0	0	0	0	0	0	0	0	0	0	0	0	0	0	0	0	0
070819	16:57:16	17:06:46	568992	5.0.10.0	5_exp_noRW	24	Rpleas_acq	CS_B	YDDY	MQQM	GWWG	BZZB	JXXJ	VKKV	fair	spielen	ehrlich	treu	retten	schön	faul	strafen	eitel	tot	rächen	schlecht	47pct	acq_USunple_CSunple2_noRW	acq23456_noRW	3	46	0	0	300	300	378	46	0	1	1	blank2r.bmp	0	1	+	0	1	blank2r.bmp	252	1	BZZB	306	1	tot	559	0	0	0	0	0	0	0	0	0	0	0	0	0	0	0	0	0	0	0	0	0	0	0	0	0	0	0	0	0	0	0	0	0	0	0	0	0	0	0
070819	16:57:16	17:06:47	570538	5.0.10.0	5_exp_noRW	24	Rpleas_acq	CS_B	YDDY	MQQM	GWWG	BZZB	JXXJ	VKKV	fair	spielen	ehrlich	treu	retten	schön	faul	strafen	eitel	tot	rächen	schlecht	47pct	acq_USpleas_CSpleas1_noRW	acq23456_noRW	3	47	0	0	300	300	381	50	0	1	1	blank2r.bmp	0	1	+	0	1	blank2r.bmp	252	1	YDDY	306	3	ehrlich	559	0	0	0	0	0	0	0	0	0	0	0	0	0	0	0	0	0	0	0	0	0	0	0	0	0	0	0	0	0	0	0	0	0	0	0	0	0	0	0
070819	16:57:16	17:06:49	572178	5.0.10.0	5_exp_noRW	24	Rpleas_acq	CS_B	YDDY	MQQM	GWWG	BZZB	JXXJ	VKKV	fair	spielen	ehrlich	treu	retten	schön	faul	strafen	eitel	tot	rächen	schlecht	47pct	acq_USpleas_CSpleas2_noRW	acq23456_noRW	3	48	0	0	300	300	464	50	0	1	1	blank2r.bmp	0	1	+	0	1	blank2r.bmp	252	1	MQQM	306	3	schön	559	0	0	0	0	0	0	0	0	0	0	0	0	0	0	0	0	0	0	0	0	0	0	0	0	0	0	0	0	0	0	0	0	0	0	0	0	0	0	0
070819	16:57:16	17:06:51	573804	5.0.10.0	5_exp_noRW	24	Rpleas_acq	CS_B	YDDY	MQQM	GWWG	BZZB	JXXJ	VKKV	fair	spielen	ehrlich	treu	retten	schön	faul	strafen	eitel	tot	rächen	schlecht	53pct	acq_USpleas_CSpleas1_noRW	acq23456_noRW	3	49	0	0	300	300	438	50	0	1	1	blank2r.bmp	0	1	+	0	1	blank2r.bmp	252	1	YDDY	306	1	fair	559	0	0	0	0	0	0	0	0	0	0	0	0	0	0	0	0	0	0	0	0	0	0	0	0	0	0	0	0	0	0	0	0	0	0	0	0	0	0	0
070819	16:57:16	17:06:52	575443	5.0.10.0	5_exp_noRW	24	Rpleas_acq	CS_B	YDDY	MQQM	GWWG	BZZB	JXXJ	VKKV	fair	spielen	ehrlich	treu	retten	schön	faul	strafen	eitel	tot	rächen	schlecht	47pct	acq_USpleas_CSpleas2_noRW	acq23456_noRW	3	50	0	0	300	300	474	50	0	1	1	blank2r.bmp	0	1	+	0	1	blank2r.bmp	252	1	MQQM	306	1	treu	559	0	0	0	0	0	0	0	0	0	0	0	0	0	0	0	0	0	0	0	0	0	0	0	0	0	0	0	0	0	0	0	0	0	0	0	0	0	0	0
070819	16:57:16	17:06:54	577176	5.0.10.0	5_exp_noRW	24	Rpleas_acq	CS_B	YDDY	MQQM	GWWG	BZZB	JXXJ	VKKV	fair	spielen	ehrlich	treu	retten	schön	faul	strafen	eitel	tot	rächen	schlecht	47pct	acq_USunple_CSunple2_noRW	acq23456_noRW	3	51	0	0	300	300	551	46	0	1	1	blank2r.bmp	0	1	+	0	1	blank2r.bmp	252	1	BZZB	306	2	rächen	559	0	0	0	0	0	0	0	0	0	0	0	0	0	0	0	0	0	0	0	0	0	0	0	0	0	0	0	0	0	0	0	0	0	0	0	0	0	0	0
070819	16:57:16	17:06:56	578748	5.0.10.0	5_exp_noRW	24	Rpleas_acq	CS_B	YDDY	MQQM	GWWG	BZZB	JXXJ	VKKV	fair	spielen	ehrlich	treu	retten	schön	faul	strafen	eitel	tot	rächen	schlecht	47pct	acq_USunple_CSunple1_noRW	acq23456_noRW	3	52	0	0	300	300	393	46	0	1	1	blank2r.bmp	0	1	+	0	1	blank2r.bmp	252	1	GWWG	306	2	strafen	559	0	0	0	0	0	0	0	0	0	0	0	0	0	0	0	0	0	0	0	0	0	0	0	0	0	0	0	0	0	0	0	0	0	0	0	0	0	0	0
070819	16:57:16	17:06:57	580361	5.0.10.0	5_exp_noRW	24	Rpleas_acq	CS_B	YDDY	MQQM	GWWG	BZZB	JXXJ	VKKV	fair	spielen	ehrlich	treu	retten	schön	faul	strafen	eitel	tot	rächen	schlecht	53pct	acq_USpleas_CSunple1_noRW	acq23456_noRW	3	53	0	0	300	300	432	50	0	1	1	blank2r.bmp	0	1	+	0	1	blank2r.bmp	252	1	GWWG	306	3	ehrlich	559	0	0	0	0	0	0	0	0	0	0	0	0	0	0	0	0	0	0	0	0	0	0	0	0	0	0	0	0	0	0	0	0	0	0	0	0	0	0	0
070819	16:57:16	17:06:59	582013	5.0.10.0	5_exp_noRW	24	Rpleas_acq	CS_B	YDDY	MQQM	GWWG	BZZB	JXXJ	VKKV	fair	spielen	ehrlich	treu	retten	schön	faul	strafen	eitel	tot	rächen	schlecht	53pct	acq_USunple_CSunple1_noRW	acq23456_noRW	3	54	0	0	300	300	476	46	0	1	1	blank2r.bmp	0	1	+	0	1	blank2r.bmp	252	1	GWWG	306	2	strafen	559	0	0	0	0	0	0	0	0	0	0	0	0	0	0	0	0	0	0	0	0	0	0	0	0	0	0	0	0	0	0	0	0	0	0	0	0	0	0	0
070819	16:57:16	17:07:01	583813	5.0.10.0	5_exp_noRW	24	Rpleas_acq	CS_B	YDDY	MQQM	GWWG	BZZB	JXXJ	VKKV	fair	spielen	ehrlich	treu	retten	schön	faul	strafen	eitel	tot	rächen	schlecht	53pct	acq_USunple_CSunple1_noRW	acq23456_noRW	3	55	0	0	300	300	617	46	0	1	1	blank2r.bmp	0	1	+	0	1	blank2r.bmp	252	1	GWWG	306	3	eitel	559	0	0	0	0	0	0	0	0	0	0	0	0	0	0	0	0	0	0	0	0	0	0	0	0	0	0	0	0	0	0	0	0	0	0	0	0	0	0	0
070819	16:57:16	17:07:02	585505	5.0.10.0	5_exp_noRW	24	Rpleas_acq	CS_B	YDDY	MQQM	GWWG	BZZB	JXXJ	VKKV	fair	spielen	ehrlich	treu	retten	schön	faul	strafen	eitel	tot	rächen	schlecht	47pct	acq_USpleas_CSunple2_noRW	acq23456_noRW	3	56	0	0	300	300	529	50	0	1	1	blank2r.bmp	0	1	+	0	1	blank2r.bmp	252	1	BZZB	306	2	retten	559	0	0	0	0	0	0	0	0	0	0	0	0	0	0	0	0	0	0	0	0	0	0	0	0	0	0	0	0	0	0	0	0	0	0	0	0	0	0	0
070819	16:57:16	17:07:04	587411	5.0.10.0	5_exp_noRW	24	Rpleas_acq	CS_B	YDDY	MQQM	GWWG	BZZB	JXXJ	VKKV	fair	spielen	ehrlich	treu	retten	schön	faul	strafen	eitel	tot	rächen	schlecht	47pct	acq_USpleas_CSpleas2_noRW	acq23456_noRW	3	57	0	0	300	300	512	46	0	0	1	blank2r.bmp	0	1	+	0	1	blank2r.bmp	252	1	MQQM	306	3	schön	559	1	FEHLER	1106	0	0	0	0	0	0	0	0	0	0	0	0	0	0	0	0	0	0	0	0	0	0	0	0	0	0	0	0	0	0	0	0	0	0	0	0
070819	16:57:16	17:07:06	589450	5.0.10.0	5_exp_noRW	24	Rpleas_acq	CS_B	YDDY	MQQM	GWWG	BZZB	JXXJ	VKKV	fair	spielen	ehrlich	treu	retten	schön	faul	strafen	eitel	tot	rächen	schlecht	47pct	acq_USpleas_CSpleas2_noRW	acq23456_noRW	3	58	0	0	300	300	1083	50	0	1	1	blank2r.bmp	0	1	+	0	1	blank2r.bmp	252	1	MQQM	306	2	retten	559	0	0	0	0	0	0	0	0	0	0	0	0	0	0	0	0	0	0	0	0	0	0	0	0	0	0	0	0	0	0	0	0	0	0	0	0	0	0	0
070819	16:57:16	17:07:08	591143	5.0.10.0	5_exp_noRW	24	Rpleas_acq	CS_B	YDDY	MQQM	GWWG	BZZB	JXXJ	VKKV	fair	spielen	ehrlich	treu	retten	schön	faul	strafen	eitel	tot	rächen	schlecht	47pct	acq_USunple_CSunple2_noRW	acq23456_noRW	3	59	0	0	300	300	508	46	0	1	1	blank2r.bmp	0	1	+	0	1	blank2r.bmp	252	1	BZZB	306	1	tot	559	0	0	0	0	0	0	0	0	0	0	0	0	0	0	0	0	0	0	0	0	0	0	0	0	0	0	0	0	0	0	0	0	0	0	0	0	0	0	0
070819	16:57:16	17:07:10	592915	5.0.10.0	5_exp_noRW	24	Rpleas_acq	CS_B	YDDY	MQQM	GWWG	BZZB	JXXJ	VKKV	fair	spielen	ehrlich	treu	retten	schön	faul	strafen	eitel	tot	rächen	schlecht	47pct	acq_USunple_CSpleas1_noRW	acq23456_noRW	3	60	0	0	300	300	603	46	0	1	1	blank2r.bmp	0	1	+	0	1	blank2r.bmp	252	1	YDDY	306	3	eitel	559	0	0	0	0	0	0	0	0	0	0	0	0	0	0	0	0	0	0	0	0	0	0	0	0	0	0	0	0	0	0	0	0	0	0	0	0	0	0	0
070819	16:57:16	17:07:12	594728	5.0.10.0	5_exp_noRW	24	Rpleas_acq	CS_B	YDDY	MQQM	GWWG	BZZB	JXXJ	VKKV	fair	spielen	ehrlich	treu	retten	schön	faul	strafen	eitel	tot	rächen	schlecht	47pct	acq_USunple_CSunple1_noRW	acq23456_noRW	3	61	0	0	300	300	634	46	0	1	1	blank2r.bmp	0	1	+	0	1	blank2r.bmp	252	1	GWWG	306	1	faul	559	0	0	0	0	0	0	0	0	0	0	0	0	0	0	0	0	0	0	0	0	0	0	0	0	0	0	0	0	0	0	0	0	0	0	0	0	0	0	0
070819	16:57:16	17:07:13	596407	5.0.10.0	5_exp_noRW	24	Rpleas_acq	CS_B	YDDY	MQQM	GWWG	BZZB	JXXJ	VKKV	fair	spielen	ehrlich	treu	retten	schön	faul	strafen	eitel	tot	rächen	schlecht	47pct	acq_USpleas_CSpleas2_noRW	acq23456_noRW	3	62	0	0	300	300	494	50	0	1	1	blank2r.bmp	0	1	+	0	1	blank2r.bmp	252	1	MQQM	306	1	treu	559	0	0	0	0	0	0	0	0	0	0	0	0	0	0	0	0	0	0	0	0	0	0	0	0	0	0	0	0	0	0	0	0	0	0	0	0	0	0	0
070819	16:57:16	17:07:15	598126	5.0.10.0	5_exp_noRW	24	Rpleas_acq	CS_B	YDDY	MQQM	GWWG	BZZB	JXXJ	VKKV	fair	spielen	ehrlich	treu	retten	schön	faul	strafen	eitel	tot	rächen	schlecht	53pct	acq_USpleas_CSpleas1_noRW	acq23456_noRW	3	63	0	0	300	300	555	50	0	1	1	blank2r.bmp	0	1	+	0	1	blank2r.bmp	252	1	YDDY	306	2	spielen	559	0	0	0	0	0	0	0	0	0	0	0	0	0	0	0	0	0	0	0	0	0	0	0	0	0	0	0	0	0	0	0	0	0	0	0	0	0	0	0
070819	16:57:16	17:07:17	599859	5.0.10.0	5_exp_noRW	24	Rpleas_acq	CS_B	YDDY	MQQM	GWWG	BZZB	JXXJ	VKKV	fair	spielen	ehrlich	treu	retten	schön	faul	strafen	eitel	tot	rächen	schlecht	47pct	acq_USunple_CSunple1_noRW	acq23456_noRW	3	64	0	0	300	300	549	46	0	1	1	blank2r.bmp	0	1	+	0	1	blank2r.bmp	252	1	GWWG	306	1	faul	559	0	0	0	0	0	0	0	0	0	0	0	0	0	0	0	0	0	0	0	0	0	0	0	0	0	0	0	0	0	0	0	0	0	0	0	0	0	0	0
070819	16:57:16	17:07:18	601632	5.0.10.0	5_exp_noRW	24	Rpleas_acq	CS_B	YDDY	MQQM	GWWG	BZZB	JXXJ	VKKV	fair	spielen	ehrlich	treu	retten	schön	faul	strafen	eitel	tot	rächen	schlecht	47pct	acq_USunple_CSunple1_noRW	acq23456_noRW	3	65	0	0	300	300	589	46	0	1	1	blank2r.bmp	0	1	+	0	1	blank2r.bmp	252	1	GWWG	306	3	eitel	559	0	0	0	0	0	0	0	0	0	0	0	0	0	0	0	0	0	0	0	0	0	0	0	0	0	0	0	0	0	0	0	0	0	0	0	0	0	0	0
070819	16:57:16	17:07:20	603511	5.0.10.0	5_exp_noRW	24	Rpleas_acq	CS_B	YDDY	MQQM	GWWG	BZZB	JXXJ	VKKV	fair	spielen	ehrlich	treu	retten	schön	faul	strafen	eitel	tot	rächen	schlecht	53pct	acq_USpleas_CSpleas1_noRW	acq23456_noRW	3	66	0	0	300	300	713	50	0	1	1	blank2r.bmp	0	1	+	0	1	blank2r.bmp	252	1	YDDY	306	1	fair	559	0	0	0	0	0	0	0	0	0	0	0	0	0	0	0	0	0	0	0	0	0	0	0	0	0	0	0	0	0	0	0	0	0	0	0	0	0	0	0
070819	16:57:16	17:07:22	605070	5.0.10.0	5_exp_noRW	24	Rpleas_acq	CS_B	YDDY	MQQM	GWWG	BZZB	JXXJ	VKKV	fair	spielen	ehrlich	treu	retten	schön	faul	strafen	eitel	tot	rächen	schlecht	53pct	acq_USpleas_CSpleas2_noRW	acq23456_noRW	3	67	0	0	300	300	380	50	0	1	1	blank2r.bmp	0	1	+	0	1	blank2r.bmp	252	1	MQQM	306	2	retten	559	0	0	0	0	0	0	0	0	0	0	0	0	0	0	0	0	0	0	0	0	0	0	0	0	0	0	0	0	0	0	0	0	0	0	0	0	0	0	0
070819	16:57:16	17:07:24	606696	5.0.10.0	5_exp_noRW	24	Rpleas_acq	CS_B	YDDY	MQQM	GWWG	BZZB	JXXJ	VKKV	fair	spielen	ehrlich	treu	retten	schön	faul	strafen	eitel	tot	rächen	schlecht	53pct	acq_USunple_CSunple2_noRW	acq23456_noRW	3	68	0	0	300	300	437	46	0	1	1	blank2r.bmp	0	1	+	0	1	blank2r.bmp	252	1	BZZB	306	3	schlecht	559	0	0	0	0	0	0	0	0	0	0	0	0	0	0	0	0	0	0	0	0	0	0	0	0	0	0	0	0	0	0	0	0	0	0	0	0	0	0	0
070819	16:57:16	17:07:25	608269	5.0.10.0	5_exp_noRW	24	Rpleas_acq	CS_B	YDDY	MQQM	GWWG	BZZB	JXXJ	VKKV	fair	spielen	ehrlich	treu	retten	schön	faul	strafen	eitel	tot	rächen	schlecht	53pct	acq_USunple_CSunple2_noRW	acq23456_noRW	3	69	0	0	300	300	399	46	0	1	1	blank2r.bmp	0	1	+	0	1	blank2r.bmp	252	1	BZZB	306	1	tot	559	0	0	0	0	0	0	0	0	0	0	0	0	0	0	0	0	0	0	0	0	0	0	0	0	0	0	0	0	0	0	0	0	0	0	0	0	0	0	0
070819	16:57:16	17:07:27	610135	5.0.10.0	5_exp_noRW	24	Rpleas_acq	CS_B	YDDY	MQQM	GWWG	BZZB	JXXJ	VKKV	fair	spielen	ehrlich	treu	retten	schön	faul	strafen	eitel	tot	rächen	schlecht	47pct	acq_USunple_CSunple1_noRW	acq23456_noRW	3	70	0	0	300	300	470	50	0	0	1	blank2r.bmp	0	1	+	0	1	blank2r.bmp	252	1	GWWG	306	2	strafen	559	1	FEHLER	1066	0	0	0	0	0	0	0	0	0	0	0	0	0	0	0	0	0	0	0	0	0	0	0	0	0	0	0	0	0	0	0	0	0	0	0	0
070819	16:57:16	17:07:28	611507	5.0.10.0	5_exp_noRW	24	Rpleas_acq	CS_B	YDDY	MQQM	GWWG	BZZB	JXXJ	VKKV	fair	spielen	ehrlich	treu	retten	schön	faul	strafen	eitel	tot	rächen	schlecht	53pct	acq_USpleas_CSpleas2_noRW	acq23456_noRW	3	71	0	0	300	300	400	50	0	1	1	blank2r.bmp	0	1	+	0	1	blank2r.bmp	252	1	MQQM	306	1	treu	559	0	0	0	0	0	0	0	0	0	0	0	0	0	0	0	0	0	0	0	0	0	0	0	0	0	0	0	0	0	0	0	0	0	0	0	0	0	0	0
070819	16:57:16	17:07:30	613267	5.0.10.0	5_exp_noRW	24	Rpleas_acq	CS_B	YDDY	MQQM	GWWG	BZZB	JXXJ	VKKV	fair	spielen	ehrlich	treu	retten	schön	faul	strafen	eitel	tot	rächen	schlecht	47pct	acq_USunple_CSpleas1_noRW	acq23456_noRW	3	72	0	0	300	300	596	46	0	1	1	blank2r.bmp	0	1	+	0	1	blank2r.bmp	252	1	YDDY	306	2	strafen	559	0	0	0	0	0	0	0	0	0	0	0	0	0	0	0	0	0	0	0	0	0	0	0	0	0	0	0	0	0	0	0	0	0	0	0	0	0	0	0
070819	16:57:16	17:07:32	614933	5.0.10.0	5_exp_noRW	24	Rpleas_acq	CS_B	YDDY	MQQM	GWWG	BZZB	JXXJ	VKKV	fair	spielen	ehrlich	treu	retten	schön	faul	strafen	eitel	tot	rächen	schlecht	53pct	acq_USunple_CSpleas2_noRW	acq23456_noRW	3	73	0	0	300	300	482	46	0	1	1	blank2r.bmp	0	1	+	0	1	blank2r.bmp	252	1	MQQM	306	1	tot	559	0	0	0	0	0	0	0	0	0	0	0	0	0	0	0	0	0	0	0	0	0	0	0	0	0	0	0	0	0	0	0	0	0	0	0	0	0	0	0
070819	16:57:16	17:07:33	616572	5.0.10.0	5_exp_noRW	24	Rpleas_acq	CS_B	YDDY	MQQM	GWWG	BZZB	JXXJ	VKKV	fair	spielen	ehrlich	treu	retten	schön	faul	strafen	eitel	tot	rächen	schlecht	53pct	acq_USpleas_CSpleas1_noRW	acq23456_noRW	3	74	0	0	300	300	477	50	0	1	1	blank2r.bmp	0	1	+	0	1	blank2r.bmp	252	1	YDDY	306	3	ehrlich	559	0	0	0	0	0	0	0	0	0	0	0	0	0	0	0	0	0	0	0	0	0	0	0	0	0	0	0	0	0	0	0	0	0	0	0	0	0	0	0
070819	16:57:16	17:07:35	618211	5.0.10.0	5_exp_noRW	24	Rpleas_acq	CS_B	YDDY	MQQM	GWWG	BZZB	JXXJ	VKKV	fair	spielen	ehrlich	treu	retten	schön	faul	strafen	eitel	tot	rächen	schlecht	47pct	acq_USpleas_CSunple2_noRW	acq23456_noRW	3	75	0	0	300	300	455	50	0	1	1	blank2r.bmp	0	1	+	0	1	blank2r.bmp	252	1	BZZB	306	1	treu	559	0	0	0	0	0	0	0	0	0	0	0	0	0	0	0	0	0	0	0	0	0	0	0	0	0	0	0	0	0	0	0	0	0	0	0	0	0	0	0
070819	16:57:16	17:07:37	619810	5.0.10.0	5_exp_noRW	24	Rpleas_acq	CS_B	YDDY	MQQM	GWWG	BZZB	JXXJ	VKKV	fair	spielen	ehrlich	treu	retten	schön	faul	strafen	eitel	tot	rächen	schlecht	47pct	acq_USpleas_CSpleas1_noRW	acq23456_noRW	3	76	0	0	300	300	432	50	0	1	1	blank2r.bmp	0	1	+	0	1	blank2r.bmp	252	1	YDDY	306	2	spielen	559	0	0	0	0	0	0	0	0	0	0	0	0	0	0	0	0	0	0	0	0	0	0	0	0	0	0	0	0	0	0	0	0	0	0	0	0	0	0	0
070819	16:57:16	17:07:38	621610	5.0.10.0	5_exp_noRW	24	Rpleas_acq	CS_B	YDDY	MQQM	GWWG	BZZB	JXXJ	VKKV	fair	spielen	ehrlich	treu	retten	schön	faul	strafen	eitel	tot	rächen	schlecht	53pct	acq_USpleas_CSpleas2_noRW	acq23456_noRW	3	77	0	0	300	300	616	50	0	1	1	blank2r.bmp	0	1	+	0	1	blank2r.bmp	252	1	MQQM	306	3	schön	559	0	0	0	0	0	0	0	0	0	0	0	0	0	0	0	0	0	0	0	0	0	0	0	0	0	0	0	0	0	0	0	0	0	0	0	0	0	0	0
070819	16:57:16	17:07:40	623142	5.0.10.0	5_exp_noRW	24	Rpleas_acq	CS_B	YDDY	MQQM	GWWG	BZZB	JXXJ	VKKV	fair	spielen	ehrlich	treu	retten	schön	faul	strafen	eitel	tot	rächen	schlecht	47pct	acq_USpleas_CSunple1_noRW	acq23456_noRW	3	78	0	0	300	300	369	50	0	1	1	blank2r.bmp	0	1	+	0	1	blank2r.bmp	252	1	GWWG	306	2	spielen	559	0	0	0	0	0	0	0	0	0	0	0	0	0	0	0	0	0	0	0	0	0	0	0	0	0	0	0	0	0	0	0	0	0	0	0	0	0	0	0
070819	16:57:16	17:07:42	624768	5.0.10.0	5_exp_noRW	24	Rpleas_acq	CS_B	YDDY	MQQM	GWWG	BZZB	JXXJ	VKKV	fair	spielen	ehrlich	treu	retten	schön	faul	strafen	eitel	tot	rächen	schlecht	47pct	acq_USunple_CSunple2_noRW	acq23456_noRW	3	79	0	0	300	300	442	46	0	1	1	blank2r.bmp	0	1	+	0	1	blank2r.bmp	252	1	BZZB	306	3	schlecht	559	0	0	0	0	0	0	0	0	0	0	0	0	0	0	0	0	0	0	0	0	0	0	0	0	0	0	0	0	0	0	0	0	0	0	0	0	0	0	0
070819	16:57:16	17:07:43	626461	5.0.10.0	5_exp_noRW	24	Rpleas_acq	CS_B	YDDY	MQQM	GWWG	BZZB	JXXJ	VKKV	fair	spielen	ehrlich	treu	retten	schön	faul	strafen	eitel	tot	rächen	schlecht	47pct	acq_USunple_CSunple2_noRW	acq23456_noRW	3	80	0	0	300	300	517	46	0	1	1	blank2r.bmp	0	1	+	0	1	blank2r.bmp	252	1	BZZB	306	2	rächen	559	0	0	0	0	0	0	0	0	0	0	0	0	0	0	0	0	0	0	0	0	0	0	0	0	0	0	0	0	0	0	0	0	0	0	0	0	0	0	0
070819	16:57:16	17:07:52	635457	5.0.10.0	5_exp_noRW	24	Rpleas_acq	CS_B	YDDY	MQQM	GWWG	BZZB	JXXJ	VKKV	fair	spielen	ehrlich	treu	retten	schön	faul	strafen	eitel	tot	rächen	schlecht	47pct	acq_USpleas_CSpleas1_noRW	acq23456_noRW	4	1	0	0	300	300	632	50	0	1	1	blank2r.bmp	0	1	+	0	1	blank2r.bmp	252	1	YDDY	306	3	ehrlich	559	0	0	0	0	0	0	0	0	0	0	0	0	0	0	0	0	0	0	0	0	0	0	0	0	0	0	0	0	0	0	0	0	0	0	0	0	0	0	0
070819	16:57:16	17:07:54	637123	5.0.10.0	5_exp_noRW	24	Rpleas_acq	CS_B	YDDY	MQQM	GWWG	BZZB	JXXJ	VKKV	fair	spielen	ehrlich	treu	retten	schön	faul	strafen	eitel	tot	rächen	schlecht	47pct	acq_USpleas_CSpleas2_noRW	acq23456_noRW	4	2	0	0	300	300	489	50	0	1	1	blank2r.bmp	0	1	+	0	1	blank2r.bmp	252	1	MQQM	306	2	retten	559	0	0	0	0	0	0	0	0	0	0	0	0	0	0	0	0	0	0	0	0	0	0	0	0	0	0	0	0	0	0	0	0	0	0	0	0	0	0	0
070819	16:57:16	17:07:56	638762	5.0.10.0	5_exp_noRW	24	Rpleas_acq	CS_B	YDDY	MQQM	GWWG	BZZB	JXXJ	VKKV	fair	spielen	ehrlich	treu	retten	schön	faul	strafen	eitel	tot	rächen	schlecht	47pct	acq_USunple_CSunple1_noRW	acq23456_noRW	4	3	0	0	300	300	452	46	0	1	1	blank2r.bmp	0	1	+	0	1	blank2r.bmp	252	1	GWWG	306	3	eitel	559	0	0	0	0	0	0	0	0	0	0	0	0	0	0	0	0	0	0	0	0	0	0	0	0	0	0	0	0	0	0	0	0	0	0	0	0	0	0	0
070819	16:57:16	17:07:58	640655	5.0.10.0	5_exp_noRW	24	Rpleas_acq	CS_B	YDDY	MQQM	GWWG	BZZB	JXXJ	VKKV	fair	spielen	ehrlich	treu	retten	schön	faul	strafen	eitel	tot	rächen	schlecht	53pct	acq_USunple_CSunple2_noRW	acq23456_noRW	4	4	0	0	300	300	507	50	0	0	1	blank2r.bmp	0	1	+	0	1	blank2r.bmp	252	1	BZZB	306	3	schlecht	559	1	FEHLER	1106	0	0	0	0	0	0	0	0	0	0	0	0	0	0	0	0	0	0	0	0	0	0	0	0	0	0	0	0	0	0	0	0	0	0	0	0
070819	16:57:16	17:07:59	642187	5.0.10.0	5_exp_noRW	24	Rpleas_acq	CS_B	YDDY	MQQM	GWWG	BZZB	JXXJ	VKKV	fair	spielen	ehrlich	treu	retten	schön	faul	strafen	eitel	tot	rächen	schlecht	47pct	acq_USunple_CSunple1_noRW	acq23456_noRW	4	5	0	0	300	300	578	46	0	1	1	blank2r.bmp	0	1	+	0	1	blank2r.bmp	252	1	GWWG	306	2	strafen	559	0	0	0	0	0	0	0	0	0	0	0	0	0	0	0	0	0	0	0	0	0	0	0	0	0	0	0	0	0	0	0	0	0	0	0	0	0	0	0
070819	16:57:16	17:08:01	643827	5.0.10.0	5_exp_noRW	24	Rpleas_acq	CS_B	YDDY	MQQM	GWWG	BZZB	JXXJ	VKKV	fair	spielen	ehrlich	treu	retten	schön	faul	strafen	eitel	tot	rächen	schlecht	47pct	acq_USunple_CSunple2_noRW	acq23456_noRW	4	6	0	0	300	300	475	46	0	1	1	blank2r.bmp	0	1	+	0	1	blank2r.bmp	252	1	BZZB	306	2	rächen	559	0	0	0	0	0	0	0	0	0	0	0	0	0	0	0	0	0	0	0	0	0	0	0	0	0	0	0	0	0	0	0	0	0	0	0	0	0	0	0
070819	16:57:16	17:08:02	645559	5.0.10.0	5_exp_noRW	24	Rpleas_acq	CS_B	YDDY	MQQM	GWWG	BZZB	JXXJ	VKKV	fair	spielen	ehrlich	treu	retten	schön	faul	strafen	eitel	tot	rächen	schlecht	53pct	acq_USpleas_CSpleas2_noRW	acq23456_noRW	4	7	0	0	300	300	555	50	0	1	1	blank2r.bmp	0	1	+	0	1	blank2r.bmp	252	1	MQQM	306	1	treu	559	0	0	0	0	0	0	0	0	0	0	0	0	0	0	0	0	0	0	0	0	0	0	0	0	0	0	0	0	0	0	0	0	0	0	0	0	0	0	0
070819	16:57:16	17:08:04	647225	5.0.10.0	5_exp_noRW	24	Rpleas_acq	CS_B	YDDY	MQQM	GWWG	BZZB	JXXJ	VKKV	fair	spielen	ehrlich	treu	retten	schön	faul	strafen	eitel	tot	rächen	schlecht	53pct	acq_USunple_CSpleas1_noRW	acq23456_noRW	4	8	0	0	300	300	489	46	0	1	1	blank2r.bmp	0	1	+	0	1	blank2r.bmp	252	1	YDDY	306	3	eitel	559	0	0	0	0	0	0	0	0	0	0	0	0	0	0	0	0	0	0	0	0	0	0	0	0	0	0	0	0	0	0	0	0	0	0	0	0	0	0	0
070819	16:57:16	17:08:06	649211	5.0.10.0	5_exp_noRW	24	Rpleas_acq	CS_B	YDDY	MQQM	GWWG	BZZB	JXXJ	VKKV	fair	spielen	ehrlich	treu	retten	schön	faul	strafen	eitel	tot	rächen	schlecht	47pct	acq_USunple_CSunple1_noRW	acq23456_noRW	4	9	0	0	300	300	804	46	0	1	1	blank2r.bmp	0	1	+	0	1	blank2r.bmp	252	1	GWWG	306	1	faul	559	0	0	0	0	0	0	0	0	0	0	0	0	0	0	0	0	0	0	0	0	0	0	0	0	0	0	0	0	0	0	0	0	0	0	0	0	0	0	0
