date	time	script.currenttime	script.elapsedtime	build	script.currentexpt	subject	expressions.LRpleas_acq	expressions.conditionCS_A	expressions.CSpleas_1	expressions.CSpleas_2	expressions.CSunple_1	expressions.CSunple_2	expressions.distractor_1	expressions.distractor_2	expressions.US_pleas1	expressions.US_pleas2	expressions.US_pleas3	expressions.US_pleas4	expressions.US_pleas5	expressions.US_pleas6	expressions.US_unple1	expressions.US_unple2	expressions.US_unple3	expressions.US_unple4	expressions.US_unple5	expressions.US_unple6	counter.positions_noRW	trialcode	blockcode	blocknum	trialnum	windowcenter	inwindow	pretrialpause	posttrialpause	latency	response	expressions.correctedscore	correct	stimulusnumber1	stimulusitem1	stimulusonset1	stimulusnumber2	stimulusitem2	stimulusonset2	stimulusnumber3	stimulusitem3	stimulusonset3	stimulusnumber4	stimulusitem4	stimulusonset4	stimulusnumber5	stimulusitem5	stimulusonset5	stimulusnumber6	stimulusitem6	stimulusonset6	stimulusnumber7	stimulusitem7	stimulusonset7	stimulusnumber8	stimulusitem8	stimulusonset8	stimulusnumber9	stimulusitem9	stimulusonset9	stimulusnumber10	stimulusitem10	stimulusonset10	stimulusnumber11	stimulusitem11	stimulusonset11	stimulusnumber12	stimulusitem12	stimulusonset12	stimulusnumber13	stimulusitem13	stimulusonset13	stimulusnumber14	stimulusitem14	stimulusonset14	stimulusnumber15	stimulusitem15	stimulusonset15	stimulusnumber16	stimulusitem16	stimulusonset16	stimulusnumber17	stimulusitem17	stimulusonset17	stimulusnumber18	stimulusitem18	stimulusonset18
081219	16:41:57	16:43:12	73729	5.0.10.0	5_exp_RW	97	Rpleas_acq	CS_A	DXXD	CPPC	YFFY	JQQJ	LWWL	ZHHZ	träumen	gütig	sonnig	küssen	vertrauen	genießen	töten	gierig	sterben	krank	versagen	gemein	1	acq_USunple_CSunple2_RW	acq1_RW	1	1	0	0	300	300	689	46	0	1	1	blank2r.bmp	0	1	+	0	1	blank2r.bmp	492	1	JQQJ	492	1	blank2r.bmp	572	3	gemein	866	0	0	0	0	0	0	0	0	0	0	0	0	0	0	0	0	0	0	0	0	0	0	0	0	0	0	0	0	0	0	0	0	0	0	0	0
081219	16:41:57	16:43:14	76061	5.0.10.0	5_exp_RW	97	Rpleas_acq	CS_A	DXXD	CPPC	YFFY	JQQJ	LWWL	ZHHZ	träumen	gütig	sonnig	küssen	vertrauen	genießen	töten	gierig	sterben	krank	versagen	gemein	1	acq_USunple_CSunple2_RW	acq1_RW	1	2	0	0	300	300	846	46	0	1	1	blank2r.bmp	0	1	+	0	1	blank2r.bmp	492	1	JQQJ	492	1	blank2r.bmp	572	2	versagen	866	0	0	0	0	0	0	0	0	0	0	0	0	0	0	0	0	0	0	0	0	0	0	0	0	0	0	0	0	0	0	0	0	0	0	0	0
081219	16:41:57	16:43:16	78127	5.0.10.0	5_exp_RW	97	Rpleas_acq	CS_A	DXXD	CPPC	YFFY	JQQJ	LWWL	ZHHZ	träumen	gütig	sonnig	küssen	vertrauen	genießen	töten	gierig	sterben	krank	versagen	gemein	1	acq_USpleas_CSpleas2_RW	acq1_RW	1	3	0	0	300	300	593	50	0	1	1	blank2r.bmp	0	1	+	0	1	blank2r.bmp	492	1	CPPC	492	1	blank2r.bmp	572	2	vertrauen	866	0	0	0	0	0	0	0	0	0	0	0	0	0	0	0	0	0	0	0	0	0	0	0	0	0	0	0	0	0	0	0	0	0	0	0	0
081219	16:41:57	16:43:18	80033	5.0.10.0	5_exp_RW	97	Rpleas_acq	CS_A	DXXD	CPPC	YFFY	JQQJ	LWWL	ZHHZ	träumen	gütig	sonnig	küssen	vertrauen	genießen	töten	gierig	sterben	krank	versagen	gemein	1	acq_USpleas_CSpleas1_RW	acq1_RW	1	4	0	0	300	300	423	50	0	1	1	blank2r.bmp	0	1	+	0	1	blank2r.bmp	492	1	DXXD	492	1	blank2r.bmp	572	3	sonnig	866	0	0	0	0	0	0	0	0	0	0	0	0	0	0	0	0	0	0	0	0	0	0	0	0	0	0	0	0	0	0	0	0	0	0	0	0
081219	16:41:57	16:43:20	81912	5.0.10.0	5_exp_RW	97	Rpleas_acq	CS_A	DXXD	CPPC	YFFY	JQQJ	LWWL	ZHHZ	träumen	gütig	sonnig	küssen	vertrauen	genießen	töten	gierig	sterben	krank	versagen	gemein	1	acq_USpleas_CSpleas2_RW	acq1_RW	1	5	0	0	300	300	385	50	0	1	1	blank2r.bmp	0	1	+	0	1	blank2r.bmp	492	1	CPPC	492	1	blank2r.bmp	572	3	genießen	866	0	0	0	0	0	0	0	0	0	0	0	0	0	0	0	0	0	0	0	0	0	0	0	0	0	0	0	0	0	0	0	0	0	0	0	0
081219	16:41:57	16:43:22	84205	5.0.10.0	5_exp_RW	97	Rpleas_acq	CS_A	DXXD	CPPC	YFFY	JQQJ	LWWL	ZHHZ	träumen	gütig	sonnig	küssen	vertrauen	genießen	töten	gierig	sterben	krank	versagen	gemein	1	acq_USpleas_CSpleas1_RW	acq1_RW	1	6	0	0	300	300	813	50	0	1	1	blank2r.bmp	0	1	+	0	1	blank2r.bmp	492	1	DXXD	492	1	blank2r.bmp	572	2	gütig	866	0	0	0	0	0	0	0	0	0	0	0	0	0	0	0	0	0	0	0	0	0	0	0	0	0	0	0	0	0	0	0	0	0	0	0	0
081219	16:41:57	16:43:24	86044	5.0.10.0	5_exp_RW	97	Rpleas_acq	CS_A	DXXD	CPPC	YFFY	JQQJ	LWWL	ZHHZ	träumen	gütig	sonnig	küssen	vertrauen	genießen	töten	gierig	sterben	krank	versagen	gemein	1	acq_USunple_CSunple1_RW	acq1_RW	1	7	0	0	300	300	370	46	0	1	1	blank2r.bmp	0	1	+	0	1	blank2r.bmp	492	1	YFFY	492	1	blank2r.bmp	572	1	töten	866	0	0	0	0	0	0	0	0	0	0	0	0	0	0	0	0	0	0	0	0	0	0	0	0	0	0	0	0	0	0	0	0	0	0	0	0
081219	16:41:57	16:43:26	87950	5.0.10.0	5_exp_RW	97	Rpleas_acq	CS_A	DXXD	CPPC	YFFY	JQQJ	LWWL	ZHHZ	träumen	gütig	sonnig	küssen	vertrauen	genießen	töten	gierig	sterben	krank	versagen	gemein	1	acq_USunple_CSunple1_RW	acq1_RW	1	8	0	0	300	300	414	46	0	1	1	blank2r.bmp	0	1	+	0	1	blank2r.bmp	492	1	YFFY	492	1	blank2r.bmp	572	2	gierig	866	0	0	0	0	0	0	0	0	0	0	0	0	0	0	0	0	0	0	0	0	0	0	0	0	0	0	0	0	0	0	0	0	0	0	0	0
081219	16:41:57	16:43:28	90056	5.0.10.0	5_exp_RW	97	Rpleas_acq	CS_A	DXXD	CPPC	YFFY	JQQJ	LWWL	ZHHZ	träumen	gütig	sonnig	küssen	vertrauen	genießen	töten	gierig	sterben	krank	versagen	gemein	1	acq_USunple_CSunple2_RW	acq1_RW	1	9	0	0	300	300	626	46	0	1	1	blank2r.bmp	0	1	+	0	1	blank2r.bmp	492	1	JQQJ	492	1	blank2r.bmp	572	1	krank	866	0	0	0	0	0	0	0	0	0	0	0	0	0	0	0	0	0	0	0	0	0	0	0	0	0	0	0	0	0	0	0	0	0	0	0	0
081219	16:41:57	16:43:30	91935	5.0.10.0	5_exp_RW	97	Rpleas_acq	CS_A	DXXD	CPPC	YFFY	JQQJ	LWWL	ZHHZ	träumen	gütig	sonnig	küssen	vertrauen	genießen	töten	gierig	sterben	krank	versagen	gemein	1	acq_USunple_CSunple1_RW	acq1_RW	1	10	0	0	300	300	411	46	0	1	1	blank2r.bmp	0	1	+	0	1	blank2r.bmp	492	1	YFFY	492	1	blank2r.bmp	572	3	sterben	866	0	0	0	0	0	0	0	0	0	0	0	0	0	0	0	0	0	0	0	0	0	0	0	0	0	0	0	0	0	0	0	0	0	0	0	0
081219	16:41:57	16:43:32	93907	5.0.10.0	5_exp_RW	97	Rpleas_acq	CS_A	DXXD	CPPC	YFFY	JQQJ	LWWL	ZHHZ	träumen	gütig	sonnig	küssen	vertrauen	genießen	töten	gierig	sterben	krank	versagen	gemein	1	acq_USunple_CSunple1_RW	acq1_RW	1	11	0	0	300	300	478	46	0	1	1	blank2r.bmp	0	1	+	0	1	blank2r.bmp	492	1	YFFY	492	1	blank2r.bmp	572	2	gierig	866	0	0	0	0	0	0	0	0	0	0	0	0	0	0	0	0	0	0	0	0	0	0	0	0	0	0	0	0	0	0	0	0	0	0	0	0
081219	16:41:57	16:43:34	95827	5.0.10.0	5_exp_RW	97	Rpleas_acq	CS_A	DXXD	CPPC	YFFY	JQQJ	LWWL	ZHHZ	träumen	gütig	sonnig	küssen	vertrauen	genießen	töten	gierig	sterben	krank	versagen	gemein	1	acq_USpleas_CSpleas2_RW	acq1_RW	1	12	0	0	300	300	447	50	0	1	1	blank2r.bmp	0	1	+	0	1	blank2r.bmp	492	1	CPPC	492	1	blank2r.bmp	572	1	küssen	866	0	0	0	0	0	0	0	0	0	0	0	0	0	0	0	0	0	0	0	0	0	0	0	0	0	0	0	0	0	0	0	0	0	0	0	0
081219	16:41:57	16:43:36	97866	5.0.10.0	5_exp_RW	97	Rpleas_acq	CS_A	DXXD	CPPC	YFFY	JQQJ	LWWL	ZHHZ	träumen	gütig	sonnig	küssen	vertrauen	genießen	töten	gierig	sterben	krank	versagen	gemein	1	acq_USpleas_CSpleas2_RW	acq1_RW	1	13	0	0	300	300	569	50	0	1	1	blank2r.bmp	0	1	+	0	1	blank2r.bmp	492	1	CPPC	492	1	blank2r.bmp	572	2	vertrauen	866	0	0	0	0	0	0	0	0	0	0	0	0	0	0	0	0	0	0	0	0	0	0	0	0	0	0	0	0	0	0	0	0	0	0	0	0
081219	16:41:57	16:43:38	99812	5.0.10.0	5_exp_RW	97	Rpleas_acq	CS_A	DXXD	CPPC	YFFY	JQQJ	LWWL	ZHHZ	träumen	gütig	sonnig	küssen	vertrauen	genießen	töten	gierig	sterben	krank	versagen	gemein	1	acq_USunple_CSunple2_RW	acq1_RW	1	14	0	0	300	300	458	46	0	1	1	blank2r.bmp	0	1	+	0	1	blank2r.bmp	492	1	JQQJ	492	1	blank2r.bmp	572	1	krank	866	0	0	0	0	0	0	0	0	0	0	0	0	0	0	0	0	0	0	0	0	0	0	0	0	0	0	0	0	0	0	0	0	0	0	0	0
081219	16:41:57	16:43:40	102491	5.0.10.0	5_exp_RW	97	Rpleas_acq	CS_A	DXXD	CPPC	YFFY	JQQJ	LWWL	ZHHZ	träumen	gütig	sonnig	küssen	vertrauen	genießen	töten	gierig	sterben	krank	versagen	gemein	1	acq_USpleas_CSpleas1_RW	acq1_RW	1	15	0	0	300	300	1185	50	0	1	1	blank2r.bmp	0	1	+	0	1	blank2r.bmp	492	1	DXXD	492	1	blank2r.bmp	572	1	träumen	866	0	0	0	0	0	0	0	0	0	0	0	0	0	0	0	0	0	0	0	0	0	0	0	0	0	0	0	0	0	0	0	0	0	0	0	0
081219	16:41:57	16:43:42	104543	5.0.10.0	5_exp_RW	97	Rpleas_acq	CS_A	DXXD	CPPC	YFFY	JQQJ	LWWL	ZHHZ	träumen	gütig	sonnig	küssen	vertrauen	genießen	töten	gierig	sterben	krank	versagen	gemein	1	acq_USpleas_CSpleas1_RW	acq1_RW	1	16	0	0	300	300	572	50	0	1	1	blank2r.bmp	0	1	+	0	1	blank2r.bmp	492	1	DXXD	492	1	blank2r.bmp	572	3	sonnig	866	0	0	0	0	0	0	0	0	0	0	0	0	0	0	0	0	0	0	0	0	0	0	0	0	0	0	0	0	0	0	0	0	0	0	0	0
081219	16:41:57	16:44:26	148285	5.0.10.0	5_exp_RW	97	Rpleas_acq	CS_A	DXXD	CPPC	YFFY	JQQJ	LWWL	ZHHZ	träumen	gütig	sonnig	küssen	vertrauen	genießen	töten	gierig	sterben	krank	versagen	gemein	1	acq_USunple_CSunple2_RW	acq2_RW	2	1	480	0	300	300	895	46	0	1	1	blank2r.bmp	0	1	+	0	1	blank2r.bmp	492	1	JQQJ	492	1	blank2r.bmp	572	2	versagen	866	1	!	1319	1	!	-1	0	0	0	0	0	0	0	0	0	0	0	0	0	0	0	0	0	0	0	0	0	0	0	0	0	0	0	0	0	0
081219	16:41:57	16:44:28	150551	5.0.10.0	5_exp_RW	97	Rpleas_acq	CS_A	DXXD	CPPC	YFFY	JQQJ	LWWL	ZHHZ	träumen	gütig	sonnig	küssen	vertrauen	genießen	töten	gierig	sterben	krank	versagen	gemein	1	acq_USunple_CSunple1_RW	acq2_RW	2	2	480	1	300	300	448	46	0	1	1	blank2r.bmp	0	1	+	0	1	blank2r.bmp	492	1	YFFY	492	1	blank2r.bmp	572	1	töten	866	1	!	1319	1	!	1346	0	0	0	0	0	0	0	0	0	0	0	0	0	0	0	0	0	0	0	0	0	0	0	0	0	0	0	0	0	0
081219	16:41:57	16:44:31	152777	5.0.10.0	5_exp_RW	97	Rpleas_acq	CS_A	DXXD	CPPC	YFFY	JQQJ	LWWL	ZHHZ	träumen	gütig	sonnig	küssen	vertrauen	genießen	töten	gierig	sterben	krank	versagen	gemein	1	acq_USpleas_CSpleas2_RW	acq2_RW	2	3	480	1	300	300	426	50	0	1	1	blank2r.bmp	0	1	+	0	1	blank2r.bmp	492	1	CPPC	492	1	blank2r.bmp	572	3	genießen	866	1	!	1319	1	!	1332	0	0	0	0	0	0	0	0	0	0	0	0	0	0	0	0	0	0	0	0	0	0	0	0	0	0	0	0	0	0
081219	16:41:57	16:44:33	155109	5.0.10.0	5_exp_RW	97	Rpleas_acq	CS_A	DXXD	CPPC	YFFY	JQQJ	LWWL	ZHHZ	träumen	gütig	sonnig	küssen	vertrauen	genießen	töten	gierig	sterben	krank	versagen	gemein	1	acq_USunple_CSunple2_RW	acq2_RW	2	4	480	1	300	300	520	46	0	1	1	blank2r.bmp	0	1	+	0	1	blank2r.bmp	492	1	JQQJ	492	1	blank2r.bmp	572	3	gemein	866	1	!	1319	1	!	1426	0	0	0	0	0	0	0	0	0	0	0	0	0	0	0	0	0	0	0	0	0	0	0	0	0	0	0	0	0	0
081219	16:41:57	16:44:35	157255	5.0.10.0	5_exp_RW	97	Rpleas_acq	CS_A	DXXD	CPPC	YFFY	JQQJ	LWWL	ZHHZ	träumen	gütig	sonnig	küssen	vertrauen	genießen	töten	gierig	sterben	krank	versagen	gemein	1	acq_USpleas_CSpleas2_RW	acq2_RW	2	5	480	0	300	300	379	50	0	1	1	blank2r.bmp	0	1	+	0	1	blank2r.bmp	492	1	CPPC	492	1	blank2r.bmp	572	1	küssen	866	1	!	-1	1	!	-1	0	0	0	0	0	0	0	0	0	0	0	0	0	0	0	0	0	0	0	0	0	0	0	0	0	0	0	0	0	0
081219	16:41:57	16:44:38	159707	5.0.10.0	5_exp_RW	97	Rpleas_acq	CS_A	DXXD	CPPC	YFFY	JQQJ	LWWL	ZHHZ	träumen	gütig	sonnig	küssen	vertrauen	genießen	töten	gierig	sterben	krank	versagen	gemein	1	acq_USunple_CSunple2_RW	acq2_RW	2	6	480	0	300	300	658	46	0	1	1	blank2r.bmp	0	1	+	0	1	blank2r.bmp	492	1	JQQJ	492	1	blank2r.bmp	572	2	versagen	866	1	!	1319	1	!	-1	0	0	0	0	0	0	0	0	0	0	0	0	0	0	0	0	0	0	0	0	0	0	0	0	0	0	0	0	0	0
081219	16:41:57	16:44:40	162159	5.0.10.0	5_exp_RW	97	Rpleas_acq	CS_A	DXXD	CPPC	YFFY	JQQJ	LWWL	ZHHZ	träumen	gütig	sonnig	küssen	vertrauen	genießen	töten	gierig	sterben	krank	versagen	gemein	1	acq_USunple_CSunple1_RW	acq2_RW	2	7	480	1	300	300	426	50	0	0	1	blank2r.bmp	0	1	+	0	1	blank2r.bmp	492	1	YFFY	492	1	blank2r.bmp	572	3	sterben	866	1	FEHLER	1652	1	!	1319	1	!	1332	0	0	0	0	0	0	0	0	0	0	0	0	0	0	0	0	0	0	0	0	0	0	0	0	0	0	0
081219	16:41:57	16:44:42	164172	5.0.10.0	5_exp_RW	97	Rpleas_acq	CS_A	DXXD	CPPC	YFFY	JQQJ	LWWL	ZHHZ	träumen	gütig	sonnig	küssen	vertrauen	genießen	töten	gierig	sterben	krank	versagen	gemein	1	acq_USpleas_CSpleas1_RW	acq2_RW	2	8	480	1	300	300	435	50	0	1	1	blank2r.bmp	0	1	+	0	1	blank2r.bmp	492	1	DXXD	492	1	blank2r.bmp	572	1	träumen	866	1	!	1319	1	!	1332	0	0	0	0	0	0	0	0	0	0	0	0	0	0	0	0	0	0	0	0	0	0	0	0	0	0	0	0	0	0
081219	16:41:57	16:44:44	166558	5.0.10.0	5_exp_RW	97	Rpleas_acq	CS_A	DXXD	CPPC	YFFY	JQQJ	LWWL	ZHHZ	träumen	gütig	sonnig	küssen	vertrauen	genießen	töten	gierig	sterben	krank	versagen	gemein	1	acq_USunple_CSunple1_RW	acq2_RW	2	9	480	0	300	300	393	50	0	0	1	blank2r.bmp	0	1	+	0	1	blank2r.bmp	492	1	YFFY	492	1	blank2r.bmp	572	1	töten	866	1	FEHLER	1599	1	!	-1	1	!	-1	0	0	0	0	0	0	0	0	0	0	0	0	0	0	0	0	0	0	0	0	0	0	0	0	0	0	0
081219	16:41:57	16:44:46	168584	5.0.10.0	5_exp_RW	97	Rpleas_acq	CS_A	DXXD	CPPC	YFFY	JQQJ	LWWL	ZHHZ	träumen	gütig	sonnig	küssen	vertrauen	genießen	töten	gierig	sterben	krank	versagen	gemein	1	acq_USpleas_CSpleas2_RW	acq2_RW	2	10	480	1	300	300	450	50	0	1	1	blank2r.bmp	0	1	+	0	1	blank2r.bmp	492	1	CPPC	492	1	blank2r.bmp	572	2	vertrauen	866	1	!	1319	1	!	1346	0	0	0	0	0	0	0	0	0	0	0	0	0	0	0	0	0	0	0	0	0	0	0	0	0	0	0	0	0	0
081219	16:41:57	16:44:49	170969	5.0.10.0	5_exp_RW	97	Rpleas_acq	CS_A	DXXD	CPPC	YFFY	JQQJ	LWWL	ZHHZ	träumen	gütig	sonnig	küssen	vertrauen	genießen	töten	gierig	sterben	krank	versagen	gemein	1	acq_USpleas_CSpleas2_RW	acq2_RW	2	11	480	0	300	300	623	50	0	1	1	blank2r.bmp	0	1	+	0	1	blank2r.bmp	492	1	CPPC	492	1	blank2r.bmp	572	3	genießen	866	1	!	1319	1	!	-1	0	0	0	0	0	0	0	0	0	0	0	0	0	0	0	0	0	0	0	0	0	0	0	0	0	0	0	0	0	0
081219	16:41:57	16:44:51	173235	5.0.10.0	5_exp_RW	97	Rpleas_acq	CS_A	DXXD	CPPC	YFFY	JQQJ	LWWL	ZHHZ	träumen	gütig	sonnig	küssen	vertrauen	genießen	töten	gierig	sterben	krank	versagen	gemein	1	acq_USpleas_CSpleas1_RW	acq2_RW	2	12	480	1	300	300	441	50	0	1	1	blank2r.bmp	0	1	+	0	1	blank2r.bmp	492	1	DXXD	492	1	blank2r.bmp	572	2	gütig	866	1	!	1319	1	!	1346	0	0	0	0	0	0	0	0	0	0	0	0	0	0	0	0	0	0	0	0	0	0	0	0	0	0	0	0	0	0
081219	16:41:57	16:44:53	175461	5.0.10.0	5_exp_RW	97	Rpleas_acq	CS_A	DXXD	CPPC	YFFY	JQQJ	LWWL	ZHHZ	träumen	gütig	sonnig	küssen	vertrauen	genießen	töten	gierig	sterben	krank	versagen	gemein	1	acq_USpleas_CSpleas2_RW	acq2_RW	2	13	480	0	300	300	231	46	0	0	1	blank2r.bmp	0	1	+	0	1	blank2r.bmp	492	1	CPPC	492	1	blank2r.bmp	572	1	küssen	866	1	FEHLER	1439	1	!	-1	1	!	-1	0	0	0	0	0	0	0	0	0	0	0	0	0	0	0	0	0	0	0	0	0	0	0	0	0	0	0
081219	16:41:57	16:44:55	177500	5.0.10.0	5_exp_RW	97	Rpleas_acq	CS_A	DXXD	CPPC	YFFY	JQQJ	LWWL	ZHHZ	träumen	gütig	sonnig	küssen	vertrauen	genießen	töten	gierig	sterben	krank	versagen	gemein	1	acq_USpleas_CSpleas1_RW	acq2_RW	2	14	480	1	300	300	458	50	0	1	1	blank2r.bmp	0	1	+	0	1	blank2r.bmp	492	1	DXXD	492	1	blank2r.bmp	572	1	träumen	866	1	!	1319	1	!	1359	0	0	0	0	0	0	0	0	0	0	0	0	0	0	0	0	0	0	0	0	0	0	0	0	0	0	0	0	0	0
081219	16:41:57	16:44:58	179659	5.0.10.0	5_exp_RW	97	Rpleas_acq	CS_A	DXXD	CPPC	YFFY	JQQJ	LWWL	ZHHZ	träumen	gütig	sonnig	küssen	vertrauen	genießen	töten	gierig	sterben	krank	versagen	gemein	1	acq_USpleas_CSpleas1_RW	acq2_RW	2	15	480	0	300	300	388	50	0	1	1	blank2r.bmp	0	1	+	0	1	blank2r.bmp	492	1	DXXD	492	1	blank2r.bmp	572	2	gütig	866	1	!	-1	1	!	-1	0	0	0	0	0	0	0	0	0	0	0	0	0	0	0	0	0	0	0	0	0	0	0	0	0	0	0	0	0	0
081219	16:41:57	16:45:00	181965	5.0.10.0	5_exp_RW	97	Rpleas_acq	CS_A	DXXD	CPPC	YFFY	JQQJ	LWWL	ZHHZ	träumen	gütig	sonnig	küssen	vertrauen	genießen	töten	gierig	sterben	krank	versagen	gemein	1	acq_USunple_CSunple2_RW	acq2_RW	2	16	480	1	300	300	496	46	0	1	1	blank2r.bmp	0	1	+	0	1	blank2r.bmp	492	1	JQQJ	492	1	blank2r.bmp	572	3	gemein	866	1	!	1319	1	!	1399	0	0	0	0	0	0	0	0	0	0	0	0	0	0	0	0	0	0	0	0	0	0	0	0	0	0	0	0	0	0
081219	16:41:57	16:45:02	184417	5.0.10.0	5_exp_RW	97	Rpleas_acq	CS_A	DXXD	CPPC	YFFY	JQQJ	LWWL	ZHHZ	träumen	gütig	sonnig	küssen	vertrauen	genießen	töten	gierig	sterben	krank	versagen	gemein	1	acq_USunple_CSunple2_RW	acq2_RW	2	17	480	1	300	300	431	50	0	0	1	blank2r.bmp	0	1	+	0	1	blank2r.bmp	492	1	JQQJ	492	1	blank2r.bmp	572	1	krank	866	1	FEHLER	1652	1	!	1319	1	!	1332	0	0	0	0	0	0	0	0	0	0	0	0	0	0	0	0	0	0	0	0	0	0	0	0	0	0	0
081219	16:41:57	16:45:04	186603	5.0.10.0	5_exp_RW	97	Rpleas_acq	CS_A	DXXD	CPPC	YFFY	JQQJ	LWWL	ZHHZ	träumen	gütig	sonnig	küssen	vertrauen	genießen	töten	gierig	sterben	krank	versagen	gemein	1	acq_USpleas_CSpleas1_RW	acq2_RW	2	18	480	0	300	300	630	50	0	1	1	blank2r.bmp	0	1	+	0	1	blank2r.bmp	492	1	DXXD	492	1	blank2r.bmp	572	3	sonnig	866	1	!	1319	1	!	-1	0	0	0	0	0	0	0	0	0	0	0	0	0	0	0	0	0	0	0	0	0	0	0	0	0	0	0	0	0	0
081219	16:41:57	16:45:07	188962	5.0.10.0	5_exp_RW	97	Rpleas_acq	CS_A	DXXD	CPPC	YFFY	JQQJ	LWWL	ZHHZ	träumen	gütig	sonnig	küssen	vertrauen	genießen	töten	gierig	sterben	krank	versagen	gemein	1	acq_USunple_CSunple1_RW	acq2_RW	2	19	480	0	300	300	351	50	0	0	1	blank2r.bmp	0	1	+	0	1	blank2r.bmp	492	1	YFFY	492	1	blank2r.bmp	572	2	gierig	866	1	FEHLER	1559	1	!	-1	1	!	-1	0	0	0	0	0	0	0	0	0	0	0	0	0	0	0	0	0	0	0	0	0	0	0	0	0	0	0
081219	16:41:57	16:45:09	191148	5.0.10.0	5_exp_RW	97	Rpleas_acq	CS_A	DXXD	CPPC	YFFY	JQQJ	LWWL	ZHHZ	träumen	gütig	sonnig	küssen	vertrauen	genießen	töten	gierig	sterben	krank	versagen	gemein	1	acq_USpleas_CSpleas1_RW	acq2_RW	2	20	480	0	300	300	398	46	0	0	1	blank2r.bmp	0	1	+	0	1	blank2r.bmp	492	1	DXXD	492	1	blank2r.bmp	572	1	träumen	866	1	FEHLER	1612	1	!	-1	1	!	-1	0	0	0	0	0	0	0	0	0	0	0	0	0	0	0	0	0	0	0	0	0	0	0	0	0	0	0
081219	16:41:57	16:45:11	193427	5.0.10.0	5_exp_RW	97	Rpleas_acq	CS_A	DXXD	CPPC	YFFY	JQQJ	LWWL	ZHHZ	träumen	gütig	sonnig	küssen	vertrauen	genießen	töten	gierig	sterben	krank	versagen	gemein	1	acq_USunple_CSunple1_RW	acq2_RW	2	21	480	1	300	300	469	50	0	0	1	blank2r.bmp	0	1	+	0	1	blank2r.bmp	492	1	YFFY	492	1	blank2r.bmp	572	3	sterben	866	1	FEHLER	1692	1	!	1319	1	!	1372	0	0	0	0	0	0	0	0	0	0	0	0	0	0	0	0	0	0	0	0	0	0	0	0	0	0	0
081219	16:41:57	16:45:13	195479	5.0.10.0	5_exp_RW	97	Rpleas_acq	CS_A	DXXD	CPPC	YFFY	JQQJ	LWWL	ZHHZ	träumen	gütig	sonnig	küssen	vertrauen	genießen	töten	gierig	sterben	krank	versagen	gemein	1	acq_USunple_CSunple1_RW	acq2_RW	2	22	480	1	300	300	473	46	0	1	1	blank2r.bmp	0	1	+	0	1	blank2r.bmp	492	1	YFFY	492	1	blank2r.bmp	572	1	töten	866	1	!	1319	1	!	1372	0	0	0	0	0	0	0	0	0	0	0	0	0	0	0	0	0	0	0	0	0	0	0	0	0	0	0	0	0	0
081219	16:41:57	16:45:16	197772	5.0.10.0	5_exp_RW	97	Rpleas_acq	CS_A	DXXD	CPPC	YFFY	JQQJ	LWWL	ZHHZ	träumen	gütig	sonnig	küssen	vertrauen	genießen	töten	gierig	sterben	krank	versagen	gemein	1	acq_USpleas_CSpleas2_RW	acq2_RW	2	23	480	1	300	300	503	50	0	1	1	blank2r.bmp	0	1	+	0	1	blank2r.bmp	492	1	CPPC	492	1	blank2r.bmp	572	1	küssen	866	1	!	1319	1	!	1399	0	0	0	0	0	0	0	0	0	0	0	0	0	0	0	0	0	0	0	0	0	0	0	0	0	0	0	0	0	0
081219	16:41:57	16:45:18	200064	5.0.10.0	5_exp_RW	97	Rpleas_acq	CS_A	DXXD	CPPC	YFFY	JQQJ	LWWL	ZHHZ	träumen	gütig	sonnig	küssen	vertrauen	genießen	töten	gierig	sterben	krank	versagen	gemein	1	acq_USunple_CSunple2_RW	acq2_RW	2	24	480	1	300	300	492	46	0	1	1	blank2r.bmp	0	1	+	0	1	blank2r.bmp	492	1	JQQJ	492	1	blank2r.bmp	572	1	krank	866	1	!	1319	1	!	1399	0	0	0	0	0	0	0	0	0	0	0	0	0	0	0	0	0	0	0	0	0	0	0	0	0	0	0	0	0	0
081219	16:41:57	16:45:32	214271	5.0.10.0	5_exp_RW	97	Rpleas_acq	CS_A	DXXD	CPPC	YFFY	JQQJ	LWWL	ZHHZ	träumen	gütig	sonnig	küssen	vertrauen	genießen	töten	gierig	sterben	krank	versagen	gemein	1	acq_USpleas_CSpleas2_RW	acq3_RW	3	1	453	1	300	300	447	50	0	1	1	blank2r.bmp	0	1	+	0	1	blank2r.bmp	492	1	CPPC	492	1	blank2r.bmp	572	3	genießen	866	1	!	1292	1	!	1346	0	0	0	0	0	0	0	0	0	0	0	0	0	0	0	0	0	0	0	0	0	0	0	0	0	0	0	0	0	0
081219	16:41:57	16:45:34	216591	5.0.10.0	5_exp_RW	97	Rpleas_acq	CS_A	DXXD	CPPC	YFFY	JQQJ	LWWL	ZHHZ	träumen	gütig	sonnig	küssen	vertrauen	genießen	töten	gierig	sterben	krank	versagen	gemein	1	acq_USunple_CSunple1_RW	acq3_RW	3	2	453	0	300	300	540	46	0	1	1	blank2r.bmp	0	1	+	0	1	blank2r.bmp	492	1	YFFY	492	1	blank2r.bmp	572	2	gierig	866	1	!	1292	1	!	-1	0	0	0	0	0	0	0	0	0	0	0	0	0	0	0	0	0	0	0	0	0	0	0	0	0	0	0	0	0	0
081219	16:41:57	16:45:37	218856	5.0.10.0	5_exp_RW	97	Rpleas_acq	CS_A	DXXD	CPPC	YFFY	JQQJ	LWWL	ZHHZ	träumen	gütig	sonnig	küssen	vertrauen	genießen	töten	gierig	sterben	krank	versagen	gemein	1	acq_USunple_CSunple2_RW	acq3_RW	3	3	453	1	300	300	464	46	0	1	1	blank2r.bmp	0	1	+	0	1	blank2r.bmp	492	1	JQQJ	492	1	blank2r.bmp	572	3	gemein	866	1	!	1292	1	!	1359	0	0	0	0	0	0	0	0	0	0	0	0	0	0	0	0	0	0	0	0	0	0	0	0	0	0	0	0	0	0
081219	16:41:57	16:45:39	221189	5.0.10.0	5_exp_RW	97	Rpleas_acq	CS_A	DXXD	CPPC	YFFY	JQQJ	LWWL	ZHHZ	träumen	gütig	sonnig	küssen	vertrauen	genießen	töten	gierig	sterben	krank	versagen	gemein	1	acq_USunple_CSunple2_RW	acq3_RW	3	4	453	0	300	300	552	46	0	1	1	blank2r.bmp	0	1	+	0	1	blank2r.bmp	492	1	JQQJ	492	1	blank2r.bmp	572	2	versagen	866	1	!	1292	1	!	-1	0	0	0	0	0	0	0	0	0	0	0	0	0	0	0	0	0	0	0	0	0	0	0	0	0	0	0	0	0	0
081219	16:41:57	16:45:41	223454	5.0.10.0	5_exp_RW	97	Rpleas_acq	CS_A	DXXD	CPPC	YFFY	JQQJ	LWWL	ZHHZ	träumen	gütig	sonnig	küssen	vertrauen	genießen	töten	gierig	sterben	krank	versagen	gemein	1	acq_USunple_CSunple1_RW	acq3_RW	3	5	453	1	300	300	460	46	0	1	1	blank2r.bmp	0	1	+	0	1	blank2r.bmp	492	1	YFFY	492	1	blank2r.bmp	572	3	sterben	866	1	!	1292	1	!	1359	0	0	0	0	0	0	0	0	0	0	0	0	0	0	0	0	0	0	0	0	0	0	0	0	0	0	0	0	0	0
081219	16:41:57	16:45:43	225520	5.0.10.0	5_exp_RW	97	Rpleas_acq	CS_A	DXXD	CPPC	YFFY	JQQJ	LWWL	ZHHZ	träumen	gütig	sonnig	küssen	vertrauen	genießen	töten	gierig	sterben	krank	versagen	gemein	1	acq_USpleas_CSpleas1_RW	acq3_RW	3	6	453	0	300	300	301	50	0	1	1	blank2r.bmp	0	1	+	0	1	blank2r.bmp	492	1	DXXD	492	1	blank2r.bmp	572	3	sonnig	866	1	!	-1	1	!	-1	0	0	0	0	0	0	0	0	0	0	0	0	0	0	0	0	0	0	0	0	0	0	0	0	0	0	0	0	0	0
081219	16:41:57	16:45:46	227853	5.0.10.0	5_exp_RW	97	Rpleas_acq	CS_A	DXXD	CPPC	YFFY	JQQJ	LWWL	ZHHZ	träumen	gütig	sonnig	küssen	vertrauen	genießen	töten	gierig	sterben	krank	versagen	gemein	1	acq_USunple_CSunple2_RW	acq3_RW	3	7	453	1	300	300	517	46	0	1	1	blank2r.bmp	0	1	+	0	1	blank2r.bmp	492	1	JQQJ	492	1	blank2r.bmp	572	1	krank	866	1	!	1292	1	!	1412	0	0	0	0	0	0	0	0	0	0	0	0	0	0	0	0	0	0	0	0	0	0	0	0	0	0	0	0	0	0
081219	16:41:57	16:45:48	230238	5.0.10.0	5_exp_RW	97	Rpleas_acq	CS_A	DXXD	CPPC	YFFY	JQQJ	LWWL	ZHHZ	träumen	gütig	sonnig	küssen	vertrauen	genießen	töten	gierig	sterben	krank	versagen	gemein	1	acq_USpleas_CSpleas1_RW	acq3_RW	3	8	453	0	300	300	618	50	0	1	1	blank2r.bmp	0	1	+	0	1	blank2r.bmp	492	1	DXXD	492	1	blank2r.bmp	572	2	gütig	866	1	!	1292	1	!	-1	0	0	0	0	0	0	0	0	0	0	0	0	0	0	0	0	0	0	0	0	0	0	0	0	0	0	0	0	0	0
081219	16:41:57	16:45:50	232571	5.0.10.0	5_exp_RW	97	Rpleas_acq	CS_A	DXXD	CPPC	YFFY	JQQJ	LWWL	ZHHZ	träumen	gütig	sonnig	küssen	vertrauen	genießen	töten	gierig	sterben	krank	versagen	gemein	1	acq_USpleas_CSpleas2_RW	acq3_RW	3	9	453	0	300	300	552	50	0	1	1	blank2r.bmp	0	1	+	0	1	blank2r.bmp	492	1	CPPC	492	1	blank2r.bmp	572	2	vertrauen	866	1	!	1292	1	!	-1	0	0	0	0	0	0	0	0	0	0	0	0	0	0	0	0	0	0	0	0	0	0	0	0	0	0	0	0	0	0
081219	16:41:57	16:45:52	234636	5.0.10.0	5_exp_RW	97	Rpleas_acq	CS_A	DXXD	CPPC	YFFY	JQQJ	LWWL	ZHHZ	träumen	gütig	sonnig	küssen	vertrauen	genießen	töten	gierig	sterben	krank	versagen	gemein	1	acq_USunple_CSunple2_RW	acq3_RW	3	10	453	0	300	300	289	46	0	1	1	blank2r.bmp	0	1	+	0	1	blank2r.bmp	492	1	JQQJ	492	1	blank2r.bmp	572	2	versagen	866	1	!	-1	1	!	-1	0	0	0	0	0	0	0	0	0	0	0	0	0	0	0	0	0	0	0	0	0	0	0	0	0	0	0	0	0	0
081219	16:41:57	16:45:55	236849	5.0.10.0	5_exp_RW	97	Rpleas_acq	CS_A	DXXD	CPPC	YFFY	JQQJ	LWWL	ZHHZ	träumen	gütig	sonnig	küssen	vertrauen	genießen	töten	gierig	sterben	krank	versagen	gemein	1	acq_USunple_CSunple1_RW	acq3_RW	3	11	453	1	300	300	399	46	0	1	1	blank2r.bmp	0	1	+	0	1	blank2r.bmp	492	1	YFFY	492	1	blank2r.bmp	572	3	sterben	866	1	!	1292	1	!	1306	0	0	0	0	0	0	0	0	0	0	0	0	0	0	0	0	0	0	0	0	0	0	0	0	0	0	0	0	0	0
081219	16:41:57	16:45:57	239141	5.0.10.0	5_exp_RW	97	Rpleas_acq	CS_A	DXXD	CPPC	YFFY	JQQJ	LWWL	ZHHZ	träumen	gütig	sonnig	küssen	vertrauen	genießen	töten	gierig	sterben	krank	versagen	gemein	1	acq_USpleas_CSpleas1_RW	acq3_RW	3	12	453	1	300	300	492	50	0	1	1	blank2r.bmp	0	1	+	0	1	blank2r.bmp	492	1	DXXD	492	1	blank2r.bmp	572	2	gütig	866	1	!	1292	1	!	1399	0	0	0	0	0	0	0	0	0	0	0	0	0	0	0	0	0	0	0	0	0	0	0	0	0	0	0	0	0	0
081219	16:41:57	16:45:59	241340	5.0.10.0	5_exp_RW	97	Rpleas_acq	CS_A	DXXD	CPPC	YFFY	JQQJ	LWWL	ZHHZ	träumen	gütig	sonnig	küssen	vertrauen	genießen	töten	gierig	sterben	krank	versagen	gemein	1	acq_USunple_CSunple1_RW	acq3_RW	3	13	453	1	300	300	399	46	0	1	1	blank2r.bmp	0	1	+	0	1	blank2r.bmp	492	1	YFFY	492	1	blank2r.bmp	572	2	gierig	866	1	!	1292	1	!	1306	0	0	0	0	0	0	0	0	0	0	0	0	0	0	0	0	0	0	0	0	0	0	0	0	0	0	0	0	0	0
081219	16:41:57	16:46:01	243579	5.0.10.0	5_exp_RW	97	Rpleas_acq	CS_A	DXXD	CPPC	YFFY	JQQJ	LWWL	ZHHZ	träumen	gütig	sonnig	küssen	vertrauen	genießen	töten	gierig	sterben	krank	versagen	gemein	1	acq_USpleas_CSpleas2_RW	acq3_RW	3	14	453	1	300	300	446	50	0	1	1	blank2r.bmp	0	1	+	0	1	blank2r.bmp	492	1	CPPC	492	1	blank2r.bmp	572	1	küssen	866	1	!	1292	1	!	1346	0	0	0	0	0	0	0	0	0	0	0	0	0	0	0	0	0	0	0	0	0	0	0	0	0	0	0	0	0	0
081219	16:41:57	16:46:04	245792	5.0.10.0	5_exp_RW	97	Rpleas_acq	CS_A	DXXD	CPPC	YFFY	JQQJ	LWWL	ZHHZ	träumen	gütig	sonnig	küssen	vertrauen	genießen	töten	gierig	sterben	krank	versagen	gemein	1	acq_USunple_CSunple1_RW	acq3_RW	3	15	453	1	300	300	419	46	0	1	1	blank2r.bmp	0	1	+	0	1	blank2r.bmp	492	1	YFFY	492	1	blank2r.bmp	572	1	töten	866	1	!	1292	1	!	1319	0	0	0	0	0	0	0	0	0	0	0	0	0	0	0	0	0	0	0	0	0	0	0	0	0	0	0	0	0	0
081219	16:41:57	16:46:06	248111	5.0.10.0	5_exp_RW	97	Rpleas_acq	CS_A	DXXD	CPPC	YFFY	JQQJ	LWWL	ZHHZ	träumen	gütig	sonnig	küssen	vertrauen	genießen	töten	gierig	sterben	krank	versagen	gemein	1	acq_USpleas_CSpleas1_RW	acq3_RW	3	16	453	0	300	300	557	50	0	1	1	blank2r.bmp	0	1	+	0	1	blank2r.bmp	492	1	DXXD	492	1	blank2r.bmp	572	1	träumen	866	1	!	1292	1	!	-1	0	0	0	0	0	0	0	0	0	0	0	0	0	0	0	0	0	0	0	0	0	0	0	0	0	0	0	0	0	0
081219	16:41:57	16:46:08	250257	5.0.10.0	5_exp_RW	97	Rpleas_acq	CS_A	DXXD	CPPC	YFFY	JQQJ	LWWL	ZHHZ	träumen	gütig	sonnig	küssen	vertrauen	genießen	töten	gierig	sterben	krank	versagen	gemein	1	acq_USunple_CSunple1_RW	acq3_RW	3	17	453	0	300	300	349	46	0	1	1	blank2r.bmp	0	1	+	0	1	blank2r.bmp	492	1	YFFY	492	1	blank2r.bmp	572	3	sterben	866	1	!	-1	1	!	-1	0	0	0	0	0	0	0	0	0	0	0	0	0	0	0	0	0	0	0	0	0	0	0	0	0	0	0	0	0	0
081219	16:41:57	16:46:10	252602	5.0.10.0	5_exp_RW	97	Rpleas_acq	CS_A	DXXD	CPPC	YFFY	JQQJ	LWWL	ZHHZ	träumen	gütig	sonnig	küssen	vertrauen	genießen	töten	gierig	sterben	krank	versagen	gemein	1	acq_USpleas_CSpleas2_RW	acq3_RW	3	18	453	0	300	300	561	50	0	1	1	blank2r.bmp	0	1	+	0	1	blank2r.bmp	492	1	CPPC	492	1	blank2r.bmp	572	2	vertrauen	866	1	!	1292	1	!	-1	0	0	0	0	0	0	0	0	0	0	0	0	0	0	0	0	0	0	0	0	0	0	0	0	0	0	0	0	0	0
081219	16:41:57	16:46:13	254975	5.0.10.0	5_exp_RW	97	Rpleas_acq	CS_A	DXXD	CPPC	YFFY	JQQJ	LWWL	ZHHZ	träumen	gütig	sonnig	küssen	vertrauen	genießen	töten	gierig	sterben	krank	versagen	gemein	1	acq_USpleas_CSpleas1_RW	acq3_RW	3	19	453	0	300	300	574	50	0	1	1	blank2r.bmp	0	1	+	0	1	blank2r.bmp	492	1	DXXD	492	1	blank2r.bmp	572	3	sonnig	866	1	!	1292	1	!	-1	0	0	0	0	0	0	0	0	0	0	0	0	0	0	0	0	0	0	0	0	0	0	0	0	0	0	0	0	0	0
081219	16:41:57	16:46:15	257201	5.0.10.0	5_exp_RW	97	Rpleas_acq	CS_A	DXXD	CPPC	YFFY	JQQJ	LWWL	ZHHZ	träumen	gütig	sonnig	küssen	vertrauen	genießen	töten	gierig	sterben	krank	versagen	gemein	1	acq_USunple_CSunple2_RW	acq3_RW	3	20	453	1	300	300	412	46	0	1	1	blank2r.bmp	0	1	+	0	1	blank2r.bmp	492	1	JQQJ	492	1	blank2r.bmp	572	3	gemein	866	1	!	1292	1	!	1306	0	0	0	0	0	0	0	0	0	0	0	0	0	0	0	0	0	0	0	0	0	0	0	0	0	0	0	0	0	0
081219	16:41:57	16:46:17	259453	5.0.10.0	5_exp_RW	97	Rpleas_acq	CS_A	DXXD	CPPC	YFFY	JQQJ	LWWL	ZHHZ	träumen	gütig	sonnig	küssen	vertrauen	genießen	töten	gierig	sterben	krank	versagen	gemein	1	acq_USpleas_CSpleas1_RW	acq3_RW	3	21	453	1	300	300	458	50	0	1	1	blank2r.bmp	0	1	+	0	1	blank2r.bmp	492	1	DXXD	492	1	blank2r.bmp	572	2	gütig	866	1	!	1292	1	!	1359	0	0	0	0	0	0	0	0	0	0	0	0	0	0	0	0	0	0	0	0	0	0	0	0	0	0	0	0	0	0
081219	16:41:57	16:46:20	261665	5.0.10.0	5_exp_RW	97	Rpleas_acq	CS_A	DXXD	CPPC	YFFY	JQQJ	LWWL	ZHHZ	träumen	gütig	sonnig	küssen	vertrauen	genießen	töten	gierig	sterben	krank	versagen	gemein	1	acq_USpleas_CSpleas2_RW	acq3_RW	3	22	453	0	300	300	234	46	0	0	1	blank2r.bmp	0	1	+	0	1	blank2r.bmp	492	1	CPPC	492	1	blank2r.bmp	572	3	genießen	866	1	FEHLER	1439	1	!	-1	1	!	-1	0	0	0	0	0	0	0	0	0	0	0	0	0	0	0	0	0	0	0	0	0	0	0	0	0	0	0
081219	16:41:57	16:46:22	263665	5.0.10.0	5_exp_RW	97	Rpleas_acq	CS_A	DXXD	CPPC	YFFY	JQQJ	LWWL	ZHHZ	träumen	gütig	sonnig	küssen	vertrauen	genießen	töten	gierig	sterben	krank	versagen	gemein	1	acq_USpleas_CSpleas2_RW	acq3_RW	3	23	453	1	300	300	406	50	0	1	1	blank2r.bmp	0	1	+	0	1	blank2r.bmp	492	1	CPPC	492	1	blank2r.bmp	572	2	vertrauen	866	1	!	1292	1	!	1306	0	0	0	0	0	0	0	0	0	0	0	0	0	0	0	0	0	0	0	0	0	0	0	0	0	0	0	0	0	0
081219	16:41:57	16:46:24	265770	5.0.10.0	5_exp_RW	97	Rpleas_acq	CS_A	DXXD	CPPC	YFFY	JQQJ	LWWL	ZHHZ	träumen	gütig	sonnig	küssen	vertrauen	genießen	töten	gierig	sterben	krank	versagen	gemein	1	acq_USunple_CSunple2_RW	acq3_RW	3	24	453	0	300	300	333	46	0	1	1	blank2r.bmp	0	1	+	0	1	blank2r.bmp	492	1	JQQJ	492	1	blank2r.bmp	572	2	versagen	866	1	!	-1	1	!	-1	0	0	0	0	0	0	0	0	0	0	0	0	0	0	0	0	0	0	0	0	0	0	0	0	0	0	0	0	0	0
081219	16:41:57	16:46:46	288161	5.0.10.0	5_exp_RW	97	Rpleas_acq	CS_A	DXXD	CPPC	YFFY	JQQJ	LWWL	ZHHZ	träumen	gütig	sonnig	küssen	vertrauen	genießen	töten	gierig	sterben	krank	versagen	gemein	1	acq_USunple_CSunple1_RW	acq4567_RW	4	1	400	0	300	300	321	46	0	1	1	blank2r.bmp	0	1	+	0	1	blank2r.bmp	492	1	YFFY	492	1	blank2r.bmp	572	2	gierig	866	1	!	-1	1	!	-1	0	0	0	0	0	0	0	0	0	0	0	0	0	0	0	0	0	0	0	0	0	0	0	0	0	0	0	0	0	0
081219	16:41:57	16:46:48	290280	5.0.10.0	5_exp_RW	97	Rpleas_acq	CS_A	DXXD	CPPC	YFFY	JQQJ	LWWL	ZHHZ	träumen	gütig	sonnig	küssen	vertrauen	genießen	töten	gierig	sterben	krank	versagen	gemein	1	acq_USunple_CSunple1_RW	acq4567_RW	4	2	400	0	300	300	332	50	0	0	1	blank2r.bmp	0	1	+	0	1	blank2r.bmp	492	1	YFFY	492	1	blank2r.bmp	572	1	töten	866	1	!	-1	1	!	-1	0	0	0	0	0	0	0	0	0	0	0	0	0	0	0	0	0	0	0	0	0	0	0	0	0	0	0	0	0	0
081219	16:41:57	16:46:50	292519	5.0.10.0	5_exp_RW	97	Rpleas_acq	CS_A	DXXD	CPPC	YFFY	JQQJ	LWWL	ZHHZ	träumen	gütig	sonnig	küssen	vertrauen	genießen	töten	gierig	sterben	krank	versagen	gemein	1	acq_USunple_CSunple2_RW	acq4567_RW	4	3	400	1	300	300	437	46	0	1	1	blank2r.bmp	0	1	+	0	1	blank2r.bmp	492	1	JQQJ	492	1	blank2r.bmp	572	1	krank	866	1	!	1239	1	!	1332	0	0	0	0	0	0	0	0	0	0	0	0	0	0	0	0	0	0	0	0	0	0	0	0	0	0	0	0	0	0
081219	16:41:57	16:46:53	294839	5.0.10.0	5_exp_RW	97	Rpleas_acq	CS_A	DXXD	CPPC	YFFY	JQQJ	LWWL	ZHHZ	träumen	gütig	sonnig	küssen	vertrauen	genießen	töten	gierig	sterben	krank	versagen	gemein	1	acq_USpleas_CSpleas1_RW	acq4567_RW	4	4	400	0	300	300	544	50	0	1	1	blank2r.bmp	0	1	+	0	1	blank2r.bmp	492	1	DXXD	492	1	blank2r.bmp	572	3	sonnig	866	1	!	1239	1	!	-1	0	0	0	0	0	0	0	0	0	0	0	0	0	0	0	0	0	0	0	0	0	0	0	0	0	0	0	0	0	0
081219	16:41:57	16:46:55	297051	5.0.10.0	5_exp_RW	97	Rpleas_acq	CS_A	DXXD	CPPC	YFFY	JQQJ	LWWL	ZHHZ	träumen	gütig	sonnig	küssen	vertrauen	genießen	töten	gierig	sterben	krank	versagen	gemein	1	acq_USunple_CSunple2_RW	acq4567_RW	4	5	400	1	300	300	402	46	0	1	1	blank2r.bmp	0	1	+	0	1	blank2r.bmp	492	1	JQQJ	492	1	blank2r.bmp	572	3	gemein	866	1	!	1239	1	!	1306	0	0	0	0	0	0	0	0	0	0	0	0	0	0	0	0	0	0	0	0	0	0	0	0	0	0	0	0	0	0
081219	16:41:57	16:46:57	299343	5.0.10.0	5_exp_RW	97	Rpleas_acq	CS_A	DXXD	CPPC	YFFY	JQQJ	LWWL	ZHHZ	träumen	gütig	sonnig	küssen	vertrauen	genießen	töten	gierig	sterben	krank	versagen	gemein	1	acq_USpleas_CSpleas2_RW	acq4567_RW	4	6	400	0	300	300	521	50	0	1	1	blank2r.bmp	0	1	+	0	1	blank2r.bmp	492	1	CPPC	492	1	blank2r.bmp	572	3	genießen	866	1	!	1239	1	!	-1	0	0	0	0	0	0	0	0	0	0	0	0	0	0	0	0	0	0	0	0	0	0	0	0	0	0	0	0	0	0
081219	16:41:57	16:46:59	301582	5.0.10.0	5_exp_RW	97	Rpleas_acq	CS_A	DXXD	CPPC	YFFY	JQQJ	LWWL	ZHHZ	träumen	gütig	sonnig	küssen	vertrauen	genießen	töten	gierig	sterben	krank	versagen	gemein	1	acq_USpleas_CSpleas1_RW	acq4567_RW	4	7	400	1	300	300	432	50	0	1	1	blank2r.bmp	0	1	+	0	1	blank2r.bmp	492	1	DXXD	492	1	blank2r.bmp	572	1	träumen	866	1	!	1239	1	!	1332	0	0	0	0	0	0	0	0	0	0	0	0	0	0	0	0	0	0	0	0	0	0	0	0	0	0	0	0	0	0
081219	16:41:57	16:47:02	303675	5.0.10.0	5_exp_RW	97	Rpleas_acq	CS_A	DXXD	CPPC	YFFY	JQQJ	LWWL	ZHHZ	träumen	gütig	sonnig	küssen	vertrauen	genießen	töten	gierig	sterben	krank	versagen	gemein	1	acq_USunple_CSunple2_RW	acq4567_RW	4	8	400	0	300	300	331	46	0	1	1	blank2r.bmp	0	1	+	0	1	blank2r.bmp	492	1	JQQJ	492	1	blank2r.bmp	572	2	versagen	866	1	!	-1	1	!	-1	0	0	0	0	0	0	0	0	0	0	0	0	0	0	0	0	0	0	0	0	0	0	0	0	0	0	0	0	0	0
081219	16:41:57	16:47:04	306021	5.0.10.0	5_exp_RW	97	Rpleas_acq	CS_A	DXXD	CPPC	YFFY	JQQJ	LWWL	ZHHZ	träumen	gütig	sonnig	küssen	vertrauen	genießen	töten	gierig	sterben	krank	versagen	gemein	1	acq_USpleas_CSpleas1_RW	acq4567_RW	4	9	400	0	300	300	567	50	0	1	1	blank2r.bmp	0	1	+	0	1	blank2r.bmp	492	1	DXXD	492	1	blank2r.bmp	572	2	gütig	866	1	!	1239	1	!	-1	0	0	0	0	0	0	0	0	0	0	0	0	0	0	0	0	0	0	0	0	0	0	0	0	0	0	0	0	0	0
081219	16:41:57	16:47:06	308286	5.0.10.0	5_exp_RW	97	Rpleas_acq	CS_A	DXXD	CPPC	YFFY	JQQJ	LWWL	ZHHZ	träumen	gütig	sonnig	küssen	vertrauen	genießen	töten	gierig	sterben	krank	versagen	gemein	1	acq_USunple_CSunple2_RW	acq4567_RW	4	10	400	0	300	300	492	46	0	1	1	blank2r.bmp	0	1	+	0	1	blank2r.bmp	492	1	JQQJ	492	1	blank2r.bmp	572	3	gemein	866	1	!	1239	1	!	-1	0	0	0	0	0	0	0	0	0	0	0	0	0	0	0	0	0	0	0	0	0	0	0	0	0	0	0	0	0	0
081219	16:41:57	16:47:08	310525	5.0.10.0	5_exp_RW	97	Rpleas_acq	CS_A	DXXD	CPPC	YFFY	JQQJ	LWWL	ZHHZ	träumen	gütig	sonnig	küssen	vertrauen	genießen	töten	gierig	sterben	krank	versagen	gemein	1	acq_USpleas_CSpleas2_RW	acq4567_RW	4	11	400	1	300	300	433	50	0	1	1	blank2r.bmp	0	1	+	0	1	blank2r.bmp	492	1	CPPC	492	1	blank2r.bmp	572	1	küssen	866	1	!	1239	1	!	1332	0	0	0	0	0	0	0	0	0	0	0	0	0	0	0	0	0	0	0	0	0	0	0	0	0	0	0	0	0	0
081219	16:41:57	16:47:11	312711	5.0.10.0	5_exp_RW	97	Rpleas_acq	CS_A	DXXD	CPPC	YFFY	JQQJ	LWWL	ZHHZ	träumen	gütig	sonnig	küssen	vertrauen	genießen	töten	gierig	sterben	krank	versagen	gemein	1	acq_USpleas_CSpleas1_RW	acq4567_RW	4	12	400	1	300	300	392	46	0	0	1	blank2r.bmp	0	1	+	0	1	blank2r.bmp	492	1	DXXD	492	1	blank2r.bmp	572	1	träumen	866	1	!	1239	1	!	1292	0	0	0	0	0	0	0	0	0	0	0	0	0	0	0	0	0	0	0	0	0	0	0	0	0	0	0	0	0	0
081219	16:41:57	16:47:13	314777	5.0.10.0	5_exp_RW	97	Rpleas_acq	CS_A	DXXD	CPPC	YFFY	JQQJ	LWWL	ZHHZ	träumen	gütig	sonnig	küssen	vertrauen	genießen	töten	gierig	sterben	krank	versagen	gemein	1	acq_USunple_CSunple1_RW	acq4567_RW	4	13	400	0	300	300	303	46	0	1	1	blank2r.bmp	0	1	+	0	1	blank2r.bmp	492	1	YFFY	492	1	blank2r.bmp	572	2	gierig	866	1	!	-1	1	!	-1	0	0	0	0	0	0	0	0	0	0	0	0	0	0	0	0	0	0	0	0	0	0	0	0	0	0	0	0	0	0
081219	16:41:57	16:47:15	317029	5.0.10.0	5_exp_RW	97	Rpleas_acq	CS_A	DXXD	CPPC	YFFY	JQQJ	LWWL	ZHHZ	träumen	gütig	sonnig	küssen	vertrauen	genießen	töten	gierig	sterben	krank	versagen	gemein	1	acq_USunple_CSunple2_RW	acq4567_RW	4	14	400	1	300	300	441	46	0	1	1	blank2r.bmp	0	1	+	0	1	blank2r.bmp	492	1	JQQJ	492	1	blank2r.bmp	572	1	krank	866	1	!	1239	1	!	1346	0	0	0	0	0	0	0	0	0	0	0	0	0	0	0	0	0	0	0	0	0	0	0	0	0	0	0	0	0	0
081219	16:41:57	16:47:17	319229	5.0.10.0	5_exp_RW	97	Rpleas_acq	CS_A	DXXD	CPPC	YFFY	JQQJ	LWWL	ZHHZ	träumen	gütig	sonnig	küssen	vertrauen	genießen	töten	gierig	sterben	krank	versagen	gemein	1	acq_USpleas_CSpleas2_RW	acq4567_RW	4	15	400	1	300	300	403	50	0	1	1	blank2r.bmp	0	1	+	0	1	blank2r.bmp	492	1	CPPC	492	1	blank2r.bmp	572	2	vertrauen	866	1	!	1239	1	!	1306	0	0	0	0	0	0	0	0	0	0	0	0	0	0	0	0	0	0	0	0	0	0	0	0	0	0	0	0	0	0
081219	16:41:57	16:47:19	321441	5.0.10.0	5_exp_RW	97	Rpleas_acq	CS_A	DXXD	CPPC	YFFY	JQQJ	LWWL	ZHHZ	träumen	gütig	sonnig	küssen	vertrauen	genießen	töten	gierig	sterben	krank	versagen	gemein	1	acq_USunple_CSunple1_RW	acq4567_RW	4	16	400	1	300	300	410	46	0	1	1	blank2r.bmp	0	1	+	0	1	blank2r.bmp	492	1	YFFY	492	1	blank2r.bmp	572	3	sterben	866	1	!	1239	1	!	1306	0	0	0	0	0	0	0	0	0	0	0	0	0	0	0	0	0	0	0	0	0	0	0	0	0	0	0	0	0	0
081219	16:41:57	16:47:22	323653	5.0.10.0	5_exp_RW	97	Rpleas_acq	CS_A	DXXD	CPPC	YFFY	JQQJ	LWWL	ZHHZ	träumen	gütig	sonnig	küssen	vertrauen	genießen	töten	gierig	sterben	krank	versagen	gemein	1	acq_USpleas_CSpleas1_RW	acq4567_RW	4	17	400	1	300	300	404	46	0	0	1	blank2r.bmp	0	1	+	0	1	blank2r.bmp	492	1	DXXD	492	1	blank2r.bmp	572	3	sonnig	866	1	!	1239	1	!	1306	0	0	0	0	0	0	0	0	0	0	0	0	0	0	0	0	0	0	0	0	0	0	0	0	0	0	0	0	0	0
081219	16:41:57	16:47:24	325799	5.0.10.0	5_exp_RW	97	Rpleas_acq	CS_A	DXXD	CPPC	YFFY	JQQJ	LWWL	ZHHZ	träumen	gütig	sonnig	küssen	vertrauen	genießen	töten	gierig	sterben	krank	versagen	gemein	1	acq_USunple_CSunple1_RW	acq4567_RW	4	18	400	1	300	300	355	50	0	0	1	blank2r.bmp	0	1	+	0	1	blank2r.bmp	492	1	YFFY	492	1	blank2r.bmp	572	1	töten	866	1	!	1239	1	!	1252	0	0	0	0	0	0	0	0	0	0	0	0	0	0	0	0	0	0	0	0	0	0	0	0	0	0	0	0	0	0
081219	16:41:57	16:47:26	328052	5.0.10.0	5_exp_RW	97	Rpleas_acq	CS_A	DXXD	CPPC	YFFY	JQQJ	LWWL	ZHHZ	träumen	gütig	sonnig	küssen	vertrauen	genießen	töten	gierig	sterben	krank	versagen	gemein	1	acq_USpleas_CSpleas2_RW	acq4567_RW	4	19	400	0	300	300	486	46	0	0	1	blank2r.bmp	0	1	+	0	1	blank2r.bmp	492	1	CPPC	492	1	blank2r.bmp	572	3	genießen	866	1	!	1239	1	!	-1	0	0	0	0	0	0	0	0	0	0	0	0	0	0	0	0	0	0	0	0	0	0	0	0	0	0	0	0	0	0
081219	16:41:57	16:47:28	330304	5.0.10.0	5_exp_RW	97	Rpleas_acq	CS_A	DXXD	CPPC	YFFY	JQQJ	LWWL	ZHHZ	träumen	gütig	sonnig	küssen	vertrauen	genießen	töten	gierig	sterben	krank	versagen	gemein	1	acq_USpleas_CSpleas2_RW	acq4567_RW	4	20	400	1	300	300	440	50	0	1	1	blank2r.bmp	0	1	+	0	1	blank2r.bmp	492	1	CPPC	492	1	blank2r.bmp	572	1	küssen	866	1	!	1239	1	!	1346	0	0	0	0	0	0	0	0	0	0	0	0	0	0	0	0	0	0	0	0	0	0	0	0	0	0	0	0	0	0
081219	16:41:57	16:47:30	332476	5.0.10.0	5_exp_RW	97	Rpleas_acq	CS_A	DXXD	CPPC	YFFY	JQQJ	LWWL	ZHHZ	träumen	gütig	sonnig	küssen	vertrauen	genießen	töten	gierig	sterben	krank	versagen	gemein	1	acq_USpleas_CSpleas2_RW	acq4567_RW	4	21	400	1	300	300	367	46	0	0	1	blank2r.bmp	0	1	+	0	1	blank2r.bmp	492	1	CPPC	492	1	blank2r.bmp	572	1	küssen	866	1	!	1239	1	!	1266	0	0	0	0	0	0	0	0	0	0	0	0	0	0	0	0	0	0	0	0	0	0	0	0	0	0	0	0	0	0
081219	16:41:57	16:47:33	334862	5.0.10.0	5_exp_RW	97	Rpleas_acq	CS_A	DXXD	CPPC	YFFY	JQQJ	LWWL	ZHHZ	träumen	gütig	sonnig	küssen	vertrauen	genießen	töten	gierig	sterben	krank	versagen	gemein	1	acq_USunple_CSunple2_RW	acq4567_RW	4	22	400	0	300	300	617	46	0	1	1	blank2r.bmp	0	1	+	0	1	blank2r.bmp	492	1	JQQJ	492	1	blank2r.bmp	572	2	versagen	866	1	!	1239	1	!	-1	0	0	0	0	0	0	0	0	0	0	0	0	0	0	0	0	0	0	0	0	0	0	0	0	0	0	0	0	0	0
081219	16:41:57	16:47:35	337181	5.0.10.0	5_exp_RW	97	Rpleas_acq	CS_A	DXXD	CPPC	YFFY	JQQJ	LWWL	ZHHZ	träumen	gütig	sonnig	küssen	vertrauen	genießen	töten	gierig	sterben	krank	versagen	gemein	1	acq_USpleas_CSpleas2_RW	acq4567_RW	4	23	400	0	300	300	520	46	0	0	1	blank2r.bmp	0	1	+	0	1	blank2r.bmp	492	1	CPPC	492	1	blank2r.bmp	572	3	genießen	866	1	!	1239	1	!	-1	0	0	0	0	0	0	0	0	0	0	0	0	0	0	0	0	0	0	0	0	0	0	0	0	0	0	0	0	0	0
081219	16:41:57	16:47:37	339514	5.0.10.0	5_exp_RW	97	Rpleas_acq	CS_A	DXXD	CPPC	YFFY	JQQJ	LWWL	ZHHZ	träumen	gütig	sonnig	küssen	vertrauen	genießen	töten	gierig	sterben	krank	versagen	gemein	1	acq_USunple_CSunple2_RW	acq4567_RW	4	24	400	0	300	300	555	46	0	1	1	blank2r.bmp	0	1	+	0	1	blank2r.bmp	492	1	JQQJ	492	1	blank2r.bmp	572	3	gemein	866	1	!	1239	1	!	-1	0	0	0	0	0	0	0	0	0	0	0	0	0	0	0	0	0	0	0	0	0	0	0	0	0	0	0	0	0	0
081219	16:41:57	16:47:40	341713	5.0.10.0	5_exp_RW	97	Rpleas_acq	CS_A	DXXD	CPPC	YFFY	JQQJ	LWWL	ZHHZ	träumen	gütig	sonnig	küssen	vertrauen	genießen	töten	gierig	sterben	krank	versagen	gemein	1	acq_USunple_CSunple1_RW	acq4567_RW	4	25	400	1	300	300	388	46	0	1	1	blank2r.bmp	0	1	+	0	1	blank2r.bmp	492	1	YFFY	492	1	blank2r.bmp	572	1	töten	866	1	!	1239	1	!	1292	0	0	0	0	0	0	0	0	0	0	0	0	0	0	0	0	0	0	0	0	0	0	0	0	0	0	0	0	0	0
081219	16:41:57	16:47:42	343912	5.0.10.0	5_exp_RW	97	Rpleas_acq	CS_A	DXXD	CPPC	YFFY	JQQJ	LWWL	ZHHZ	träumen	gütig	sonnig	küssen	vertrauen	genießen	töten	gierig	sterben	krank	versagen	gemein	1	acq_USpleas_CSpleas1_RW	acq4567_RW	4	26	400	1	300	300	407	50	0	1	1	blank2r.bmp	0	1	+	0	1	blank2r.bmp	492	1	DXXD	492	1	blank2r.bmp	572	3	sonnig	866	1	!	1239	1	!	1306	0	0	0	0	0	0	0	0	0	0	0	0	0	0	0	0	0	0	0	0	0	0	0	0	0	0	0	0	0	0
081219	16:41:57	16:47:44	346231	5.0.10.0	5_exp_RW	97	Rpleas_acq	CS_A	DXXD	CPPC	YFFY	JQQJ	LWWL	ZHHZ	träumen	gütig	sonnig	küssen	vertrauen	genießen	töten	gierig	sterben	krank	versagen	gemein	1	acq_USunple_CSunple2_RW	acq4567_RW	4	27	400	0	300	300	558	46	0	1	1	blank2r.bmp	0	1	+	0	1	blank2r.bmp	492	1	JQQJ	492	1	blank2r.bmp	572	1	krank	866	1	!	1239	1	!	-1	0	0	0	0	0	0	0	0	0	0	0	0	0	0	0	0	0	0	0	0	0	0	0	0	0	0	0	0	0	0
081219	16:41:57	16:47:46	348563	5.0.10.0	5_exp_RW	97	Rpleas_acq	CS_A	DXXD	CPPC	YFFY	JQQJ	LWWL	ZHHZ	träumen	gütig	sonnig	küssen	vertrauen	genießen	töten	gierig	sterben	krank	versagen	gemein	1	acq_USpleas_CSpleas2_RW	acq4567_RW	4	28	400	0	300	300	547	46	0	0	1	blank2r.bmp	0	1	+	0	1	blank2r.bmp	492	1	CPPC	492	1	blank2r.bmp	572	2	vertrauen	866	1	!	1239	1	!	-1	0	0	0	0	0	0	0	0	0	0	0	0	0	0	0	0	0	0	0	0	0	0	0	0	0	0	0	0	0	0
081219	16:41:57	16:47:49	350949	5.0.10.0	5_exp_RW	97	Rpleas_acq	CS_A	DXXD	CPPC	YFFY	JQQJ	LWWL	ZHHZ	träumen	gütig	sonnig	küssen	vertrauen	genießen	töten	gierig	sterben	krank	versagen	gemein	1	acq_USunple_CSunple1_RW	acq4567_RW	4	29	400	0	300	300	602	46	0	1	1	blank2r.bmp	0	1	+	0	1	blank2r.bmp	492	1	YFFY	492	1	blank2r.bmp	572	3	sterben	866	1	!	1239	1	!	-1	0	0	0	0	0	0	0	0	0	0	0	0	0	0	0	0	0	0	0	0	0	0	0	0	0	0	0	0	0	0
081219	16:41:57	16:47:51	353295	5.0.10.0	5_exp_RW	97	Rpleas_acq	CS_A	DXXD	CPPC	YFFY	JQQJ	LWWL	ZHHZ	träumen	gütig	sonnig	küssen	vertrauen	genießen	töten	gierig	sterben	krank	versagen	gemein	1	acq_USunple_CSunple1_RW	acq4567_RW	4	30	400	0	300	300	562	50	0	0	1	blank2r.bmp	0	1	+	0	1	blank2r.bmp	492	1	YFFY	492	1	blank2r.bmp	572	2	gierig	866	1	!	1239	1	!	-1	0	0	0	0	0	0	0	0	0	0	0	0	0	0	0	0	0	0	0	0	0	0	0	0	0	0	0	0	0	0
081219	16:41:57	16:47:53	355587	5.0.10.0	5_exp_RW	97	Rpleas_acq	CS_A	DXXD	CPPC	YFFY	JQQJ	LWWL	ZHHZ	träumen	gütig	sonnig	küssen	vertrauen	genießen	töten	gierig	sterben	krank	versagen	gemein	1	acq_USunple_CSunple2_RW	acq4567_RW	4	31	400	0	300	300	514	46	0	1	1	blank2r.bmp	0	1	+	0	1	blank2r.bmp	492	1	JQQJ	492	1	blank2r.bmp	572	2	versagen	866	1	!	1239	1	!	-1	0	0	0	0	0	0	0	0	0	0	0	0	0	0	0	0	0	0	0	0	0	0	0	0	0	0	0	0	0	0
081219	16:41:57	16:47:56	357879	5.0.10.0	5_exp_RW	97	Rpleas_acq	CS_A	DXXD	CPPC	YFFY	JQQJ	LWWL	ZHHZ	träumen	gütig	sonnig	küssen	vertrauen	genießen	töten	gierig	sterben	krank	versagen	gemein	1	acq_USunple_CSunple1_RW	acq4567_RW	4	32	400	0	300	300	508	46	0	1	1	blank2r.bmp	0	1	+	0	1	blank2r.bmp	492	1	YFFY	492	1	blank2r.bmp	572	2	gierig	866	1	!	1239	1	!	-1	0	0	0	0	0	0	0	0	0	0	0	0	0	0	0	0	0	0	0	0	0	0	0	0	0	0	0	0	0	0
081219	16:41:57	16:47:58	360052	5.0.10.0	5_exp_RW	97	Rpleas_acq	CS_A	DXXD	CPPC	YFFY	JQQJ	LWWL	ZHHZ	träumen	gütig	sonnig	küssen	vertrauen	genießen	töten	gierig	sterben	krank	versagen	gemein	1	acq_USpleas_CSpleas2_RW	acq4567_RW	4	33	400	1	300	300	361	50	0	1	1	blank2r.bmp	0	1	+	0	1	blank2r.bmp	492	1	CPPC	492	1	blank2r.bmp	572	2	vertrauen	866	1	!	1239	1	!	1266	0	0	0	0	0	0	0	0	0	0	0	0	0	0	0	0	0	0	0	0	0	0	0	0	0	0	0	0	0	0
081219	16:41:57	16:48:00	362118	5.0.10.0	5_exp_RW	97	Rpleas_acq	CS_A	DXXD	CPPC	YFFY	JQQJ	LWWL	ZHHZ	träumen	gütig	sonnig	küssen	vertrauen	genießen	töten	gierig	sterben	krank	versagen	gemein	1	acq_USpleas_CSpleas1_RW	acq4567_RW	4	34	400	0	300	300	288	50	0	1	1	blank2r.bmp	0	1	+	0	1	blank2r.bmp	492	1	DXXD	492	1	blank2r.bmp	572	1	träumen	866	1	!	-1	1	!	-1	0	0	0	0	0	0	0	0	0	0	0	0	0	0	0	0	0	0	0	0	0	0	0	0	0	0	0	0	0	0
081219	16:41:57	16:48:02	364303	5.0.10.0	5_exp_RW	97	Rpleas_acq	CS_A	DXXD	CPPC	YFFY	JQQJ	LWWL	ZHHZ	träumen	gütig	sonnig	küssen	vertrauen	genießen	töten	gierig	sterben	krank	versagen	gemein	1	acq_USpleas_CSpleas1_RW	acq4567_RW	4	35	400	1	300	300	373	46	0	0	1	blank2r.bmp	0	1	+	0	1	blank2r.bmp	492	1	DXXD	492	1	blank2r.bmp	572	2	gütig	866	1	!	1239	1	!	1279	0	0	0	0	0	0	0	0	0	0	0	0	0	0	0	0	0	0	0	0	0	0	0	0	0	0	0	0	0	0
081219	16:41:57	16:48:04	366463	5.0.10.0	5_exp_RW	97	Rpleas_acq	CS_A	DXXD	CPPC	YFFY	JQQJ	LWWL	ZHHZ	träumen	gütig	sonnig	küssen	vertrauen	genießen	töten	gierig	sterben	krank	versagen	gemein	1	acq_USunple_CSunple2_RW	acq4567_RW	4	36	400	1	300	300	371	46	0	1	1	blank2r.bmp	0	1	+	0	1	blank2r.bmp	492	1	JQQJ	492	1	blank2r.bmp	572	1	krank	866	1	!	1239	1	!	1266	0	0	0	0	0	0	0	0	0	0	0	0	0	0	0	0	0	0	0	0	0	0	0	0	0	0	0	0	0	0
081219	16:41:57	16:48:07	368795	5.0.10.0	5_exp_RW	97	Rpleas_acq	CS_A	DXXD	CPPC	YFFY	JQQJ	LWWL	ZHHZ	träumen	gütig	sonnig	küssen	vertrauen	genießen	töten	gierig	sterben	krank	versagen	gemein	1	acq_USunple_CSunple1_RW	acq4567_RW	4	37	400	0	300	300	566	46	0	1	1	blank2r.bmp	0	1	+	0	1	blank2r.bmp	492	1	YFFY	492	1	blank2r.bmp	572	3	sterben	866	1	!	1239	1	!	-1	0	0	0	0	0	0	0	0	0	0	0	0	0	0	0	0	0	0	0	0	0	0	0	0	0	0	0	0	0	0
081219	16:41:57	16:48:09	370834	5.0.10.0	5_exp_RW	97	Rpleas_acq	CS_A	DXXD	CPPC	YFFY	JQQJ	LWWL	ZHHZ	träumen	gütig	sonnig	küssen	vertrauen	genießen	töten	gierig	sterben	krank	versagen	gemein	1	acq_USpleas_CSpleas1_RW	acq4567_RW	4	38	400	0	300	300	263	50	0	1	1	blank2r.bmp	0	1	+	0	1	blank2r.bmp	492	1	DXXD	492	1	blank2r.bmp	572	2	gütig	866	1	!	-1	1	!	-1	0	0	0	0	0	0	0	0	0	0	0	0	0	0	0	0	0	0	0	0	0	0	0	0	0	0	0	0	0	0
081219	16:41:57	16:48:11	372900	5.0.10.0	5_exp_RW	97	Rpleas_acq	CS_A	DXXD	CPPC	YFFY	JQQJ	LWWL	ZHHZ	träumen	gütig	sonnig	küssen	vertrauen	genießen	töten	gierig	sterben	krank	versagen	gemein	1	acq_USpleas_CSpleas2_RW	acq4567_RW	4	39	400	0	300	300	270	46	0	0	1	blank2r.bmp	0	1	+	0	1	blank2r.bmp	492	1	CPPC	492	1	blank2r.bmp	572	3	genießen	866	1	!	-1	1	!	-1	0	0	0	0	0	0	0	0	0	0	0	0	0	0	0	0	0	0	0	0	0	0	0	0	0	0	0	0	0	0
081219	16:41:57	16:48:13	375126	5.0.10.0	5_exp_RW	97	Rpleas_acq	CS_A	DXXD	CPPC	YFFY	JQQJ	LWWL	ZHHZ	träumen	gütig	sonnig	küssen	vertrauen	genießen	töten	gierig	sterben	krank	versagen	gemein	1	acq_USpleas_CSpleas1_RW	acq4567_RW	4	40	400	1	300	300	416	46	0	0	1	blank2r.bmp	0	1	+	0	1	blank2r.bmp	492	1	DXXD	492	1	blank2r.bmp	572	1	träumen	866	1	!	1239	1	!	1319	0	0	0	0	0	0	0	0	0	0	0	0	0	0	0	0	0	0	0	0	0	0	0	0	0	0	0	0	0	0
081219	16:41:57	16:48:15	377285	5.0.10.0	5_exp_RW	97	Rpleas_acq	CS_A	DXXD	CPPC	YFFY	JQQJ	LWWL	ZHHZ	träumen	gütig	sonnig	küssen	vertrauen	genießen	töten	gierig	sterben	krank	versagen	gemein	1	acq_USpleas_CSpleas2_RW	acq4567_RW	4	41	400	1	300	300	366	46	0	0	1	blank2r.bmp	0	1	+	0	1	blank2r.bmp	492	1	CPPC	492	1	blank2r.bmp	572	1	küssen	866	1	!	1239	1	!	1266	0	0	0	0	0	0	0	0	0	0	0	0	0	0	0	0	0	0	0	0	0	0	0	0	0	0	0	0	0	0
081219	16:41:57	16:48:17	379484	5.0.10.0	5_exp_RW	97	Rpleas_acq	CS_A	DXXD	CPPC	YFFY	JQQJ	LWWL	ZHHZ	träumen	gütig	sonnig	küssen	vertrauen	genießen	töten	gierig	sterben	krank	versagen	gemein	1	acq_USunple_CSunple2_RW	acq4567_RW	4	42	400	1	300	300	402	46	0	1	1	blank2r.bmp	0	1	+	0	1	blank2r.bmp	492	1	JQQJ	492	1	blank2r.bmp	572	3	gemein	866	1	!	1239	1	!	1306	0	0	0	0	0	0	0	0	0	0	0	0	0	0	0	0	0	0	0	0	0	0	0	0	0	0	0	0	0	0
081219	16:41:57	16:48:20	381736	5.0.10.0	5_exp_RW	97	Rpleas_acq	CS_A	DXXD	CPPC	YFFY	JQQJ	LWWL	ZHHZ	träumen	gütig	sonnig	küssen	vertrauen	genießen	töten	gierig	sterben	krank	versagen	gemein	1	acq_USunple_CSunple1_RW	acq4567_RW	4	43	400	0	300	300	479	46	0	1	1	blank2r.bmp	0	1	+	0	1	blank2r.bmp	492	1	YFFY	492	1	blank2r.bmp	572	1	töten	866	1	!	1239	1	!	-1	0	0	0	0	0	0	0	0	0	0	0	0	0	0	0	0	0	0	0	0	0	0	0	0	0	0	0	0	0	0
081219	16:41:57	16:48:22	383962	5.0.10.0	5_exp_RW	97	Rpleas_acq	CS_A	DXXD	CPPC	YFFY	JQQJ	LWWL	ZHHZ	träumen	gütig	sonnig	küssen	vertrauen	genießen	töten	gierig	sterben	krank	versagen	gemein	1	acq_USpleas_CSpleas1_RW	acq4567_RW	4	44	400	1	300	300	421	50	0	1	1	blank2r.bmp	0	1	+	0	1	blank2r.bmp	492	1	DXXD	492	1	blank2r.bmp	572	3	sonnig	866	1	!	1239	1	!	1319	0	0	0	0	0	0	0	0	0	0	0	0	0	0	0	0	0	0	0	0	0	0	0	0	0	0	0	0	0	0
081219	16:41:57	16:48:24	386174	5.0.10.0	5_exp_RW	97	Rpleas_acq	CS_A	DXXD	CPPC	YFFY	JQQJ	LWWL	ZHHZ	träumen	gütig	sonnig	küssen	vertrauen	genießen	töten	gierig	sterben	krank	versagen	gemein	1	acq_USpleas_CSpleas1_RW	acq4567_RW	4	45	400	1	300	300	416	46	0	0	1	blank2r.bmp	0	1	+	0	1	blank2r.bmp	492	1	DXXD	492	1	blank2r.bmp	572	2	gütig	866	1	!	1239	1	!	1319	0	0	0	0	0	0	0	0	0	0	0	0	0	0	0	0	0	0	0	0	0	0	0	0	0	0	0	0	0	0
081219	16:41:57	16:48:26	388467	5.0.10.0	5_exp_RW	97	Rpleas_acq	CS_A	DXXD	CPPC	YFFY	JQQJ	LWWL	ZHHZ	träumen	gütig	sonnig	küssen	vertrauen	genießen	töten	gierig	sterben	krank	versagen	gemein	1	acq_USunple_CSunple1_RW	acq4567_RW	4	46	400	0	300	300	519	46	0	1	1	blank2r.bmp	0	1	+	0	1	blank2r.bmp	492	1	YFFY	492	1	blank2r.bmp	572	2	gierig	866	1	!	1239	1	!	-1	0	0	0	0	0	0	0	0	0	0	0	0	0	0	0	0	0	0	0	0	0	0	0	0	0	0	0	0	0	0
081219	16:41:57	16:48:28	390519	5.0.10.0	5_exp_RW	97	Rpleas_acq	CS_A	DXXD	CPPC	YFFY	JQQJ	LWWL	ZHHZ	träumen	gütig	sonnig	küssen	vertrauen	genießen	töten	gierig	sterben	krank	versagen	gemein	1	acq_USpleas_CSpleas2_RW	acq4567_RW	4	47	400	0	300	300	269	50	0	1	1	blank2r.bmp	0	1	+	0	1	blank2r.bmp	492	1	CPPC	492	1	blank2r.bmp	572	2	vertrauen	866	1	!	-1	1	!	-1	0	0	0	0	0	0	0	0	0	0	0	0	0	0	0	0	0	0	0	0	0	0	0	0	0	0	0	0	0	0
081219	16:41:57	16:48:31	392718	5.0.10.0	5_exp_RW	97	Rpleas_acq	CS_A	DXXD	CPPC	YFFY	JQQJ	LWWL	ZHHZ	träumen	gütig	sonnig	küssen	vertrauen	genießen	töten	gierig	sterben	krank	versagen	gemein	1	acq_USpleas_CSpleas1_RW	acq4567_RW	4	48	400	1	300	300	391	50	0	1	1	blank2r.bmp	0	1	+	0	1	blank2r.bmp	492	1	DXXD	492	1	blank2r.bmp	572	3	sonnig	866	1	!	1239	1	!	1292	0	0	0	0	0	0	0	0	0	0	0	0	0	0	0	0	0	0	0	0	0	0	0	0	0	0	0	0	0	0
081219	16:41:57	16:48:33	394811	5.0.10.0	5_exp_RW	97	Rpleas_acq	CS_A	DXXD	CPPC	YFFY	JQQJ	LWWL	ZHHZ	träumen	gütig	sonnig	küssen	vertrauen	genießen	töten	gierig	sterben	krank	versagen	gemein	1	acq_USpleas_CSpleas2_RW	acq4567_RW	4	49	400	0	300	300	307	46	0	0	1	blank2r.bmp	0	1	+	0	1	blank2r.bmp	492	1	CPPC	492	1	blank2r.bmp	572	3	genießen	866	1	!	-1	1	!	-1	0	0	0	0	0	0	0	0	0	0	0	0	0	0	0	0	0	0	0	0	0	0	0	0	0	0	0	0	0	0
081219	16:41:57	16:48:35	397197	5.0.10.0	5_exp_RW	97	Rpleas_acq	CS_A	DXXD	CPPC	YFFY	JQQJ	LWWL	ZHHZ	träumen	gütig	sonnig	küssen	vertrauen	genießen	töten	gierig	sterben	krank	versagen	gemein	1	acq_USunple_CSunple1_RW	acq4567_RW	4	50	400	0	300	300	591	46	0	1	1	blank2r.bmp	0	1	+	0	1	blank2r.bmp	492	1	YFFY	492	1	blank2r.bmp	572	3	sterben	866	1	!	1239	1	!	-1	0	0	0	0	0	0	0	0	0	0	0	0	0	0	0	0	0	0	0	0	0	0	0	0	0	0	0	0	0	0
081219	16:41:57	16:48:41	402808	5.0.10.0	5_exp_RW	97	Rpleas_acq	CS_A	DXXD	CPPC	YFFY	JQQJ	LWWL	ZHHZ	träumen	gütig	sonnig	küssen	vertrauen	genießen	töten	gierig	sterben	krank	versagen	gemein	1	acq_USunple_CSunple2_RW	acq4567_RW	4	51	400	0	300	300	3824	46	0	1	1	blank2r.bmp	0	1	+	0	1	blank2r.bmp	492	1	JQQJ	492	1	blank2r.bmp	572	1	krank	866	1	!	1239	1	!	-1	0	0	0	0	0	0	0	0	0	0	0	0	0	0	0	0	0	0	0	0	0	0	0	0	0	0	0	0	0	0
081219	16:41:57	16:48:43	405073	5.0.10.0	5_exp_RW	97	Rpleas_acq	CS_A	DXXD	CPPC	YFFY	JQQJ	LWWL	ZHHZ	träumen	gütig	sonnig	küssen	vertrauen	genießen	töten	gierig	sterben	krank	versagen	gemein	1	acq_USpleas_CSpleas2_RW	acq4567_RW	4	52	400	0	300	300	479	50	0	1	1	blank2r.bmp	0	1	+	0	1	blank2r.bmp	492	1	CPPC	492	1	blank2r.bmp	572	1	küssen	866	1	!	1239	1	!	-1	0	0	0	0	0	0	0	0	0	0	0	0	0	0	0	0	0	0	0	0	0	0	0	0	0	0	0	0	0	0
081219	16:41:57	16:48:45	407059	5.0.10.0	5_exp_RW	97	Rpleas_acq	CS_A	DXXD	CPPC	YFFY	JQQJ	LWWL	ZHHZ	träumen	gütig	sonnig	küssen	vertrauen	genießen	töten	gierig	sterben	krank	versagen	gemein	1	acq_USpleas_CSpleas2_RW	acq4567_RW	4	53	400	0	300	300	199	46	0	0	1	blank2r.bmp	0	1	+	0	1	blank2r.bmp	492	1	CPPC	492	1	blank2r.bmp	572	1	küssen	866	1	!	-1	1	!	-1	0	0	0	0	0	0	0	0	0	0	0	0	0	0	0	0	0	0	0	0	0	0	0	0	0	0	0	0	0	0
081219	16:41:57	16:48:47	409098	5.0.10.0	5_exp_RW	97	Rpleas_acq	CS_A	DXXD	CPPC	YFFY	JQQJ	LWWL	ZHHZ	träumen	gütig	sonnig	küssen	vertrauen	genießen	töten	gierig	sterben	krank	versagen	gemein	1	acq_USpleas_CSpleas1_RW	acq4567_RW	4	54	400	0	300	300	255	46	0	0	1	blank2r.bmp	0	1	+	0	1	blank2r.bmp	492	1	DXXD	492	1	blank2r.bmp	572	1	träumen	866	1	!	-1	1	!	-1	0	0	0	0	0	0	0	0	0	0	0	0	0	0	0	0	0	0	0	0	0	0	0	0	0	0	0	0	0	0
081219	16:41:57	16:48:49	411364	5.0.10.0	5_exp_RW	97	Rpleas_acq	CS_A	DXXD	CPPC	YFFY	JQQJ	LWWL	ZHHZ	träumen	gütig	sonnig	küssen	vertrauen	genießen	töten	gierig	sterben	krank	versagen	gemein	1	acq_USunple_CSunple2_RW	acq4567_RW	4	55	400	1	300	300	465	46	0	1	1	blank2r.bmp	0	1	+	0	1	blank2r.bmp	492	1	JQQJ	492	1	blank2r.bmp	572	2	versagen	866	1	!	1239	1	!	1359	0	0	0	0	0	0	0	0	0	0	0	0	0	0	0	0	0	0	0	0	0	0	0	0	0	0	0	0	0	0
081219	16:41:57	16:48:51	413550	5.0.10.0	5_exp_RW	97	Rpleas_acq	CS_A	DXXD	CPPC	YFFY	JQQJ	LWWL	ZHHZ	träumen	gütig	sonnig	küssen	vertrauen	genießen	töten	gierig	sterben	krank	versagen	gemein	1	acq_USunple_CSunple1_RW	acq4567_RW	4	56	400	1	300	300	398	46	0	1	1	blank2r.bmp	0	1	+	0	1	blank2r.bmp	492	1	YFFY	492	1	blank2r.bmp	572	1	töten	866	1	!	1239	1	!	1292	0	0	0	0	0	0	0	0	0	0	0	0	0	0	0	0	0	0	0	0	0	0	0	0	0	0	0	0	0	0
081219	16:41:57	16:48:54	415842	5.0.10.0	5_exp_RW	97	Rpleas_acq	CS_A	DXXD	CPPC	YFFY	JQQJ	LWWL	ZHHZ	träumen	gütig	sonnig	küssen	vertrauen	genießen	töten	gierig	sterben	krank	versagen	gemein	1	acq_USpleas_CSpleas1_RW	acq4567_RW	4	57	400	0	300	300	520	50	0	1	1	blank2r.bmp	0	1	+	0	1	blank2r.bmp	492	1	DXXD	492	1	blank2r.bmp	572	2	gütig	866	1	!	1239	1	!	-1	0	0	0	0	0	0	0	0	0	0	0	0	0	0	0	0	0	0	0	0	0	0	0	0	0	0	0	0	0	0
081219	16:41:57	16:48:56	418015	5.0.10.0	5_exp_RW	97	Rpleas_acq	CS_A	DXXD	CPPC	YFFY	JQQJ	LWWL	ZHHZ	träumen	gütig	sonnig	küssen	vertrauen	genießen	töten	gierig	sterben	krank	versagen	gemein	1	acq_USunple_CSunple2_RW	acq4567_RW	4	58	400	1	300	300	360	50	0	0	1	blank2r.bmp	0	1	+	0	1	blank2r.bmp	492	1	JQQJ	492	1	blank2r.bmp	572	3	gemein	866	1	!	1239	1	!	1266	0	0	0	0	0	0	0	0	0	0	0	0	0	0	0	0	0	0	0	0	0	0	0	0	0	0	0	0	0	0
081219	16:41:57	16:48:58	420267	5.0.10.0	5_exp_RW	97	Rpleas_acq	CS_A	DXXD	CPPC	YFFY	JQQJ	LWWL	ZHHZ	träumen	gütig	sonnig	küssen	vertrauen	genießen	töten	gierig	sterben	krank	versagen	gemein	1	acq_USunple_CSunple2_RW	acq4567_RW	4	59	400	1	300	300	459	46	0	1	1	blank2r.bmp	0	1	+	0	1	blank2r.bmp	492	1	JQQJ	492	1	blank2r.bmp	572	1	krank	866	1	!	1239	1	!	1359	0	0	0	0	0	0	0	0	0	0	0	0	0	0	0	0	0	0	0	0	0	0	0	0	0	0	0	0	0	0
081219	16:41:57	16:49:00	422533	5.0.10.0	5_exp_RW	97	Rpleas_acq	CS_A	DXXD	CPPC	YFFY	JQQJ	LWWL	ZHHZ	träumen	gütig	sonnig	küssen	vertrauen	genießen	töten	gierig	sterben	krank	versagen	gemein	1	acq_USunple_CSunple1_RW	acq4567_RW	4	60	400	0	300	300	485	46	0	1	1	blank2r.bmp	0	1	+	0	1	blank2r.bmp	492	1	YFFY	492	1	blank2r.bmp	572	3	sterben	866	1	!	1239	1	!	-1	0	0	0	0	0	0	0	0	0	0	0	0	0	0	0	0	0	0	0	0	0	0	0	0	0	0	0	0	0	0
081219	16:41:57	16:49:03	424705	5.0.10.0	5_exp_RW	97	Rpleas_acq	CS_A	DXXD	CPPC	YFFY	JQQJ	LWWL	ZHHZ	träumen	gütig	sonnig	küssen	vertrauen	genießen	töten	gierig	sterben	krank	versagen	gemein	1	acq_USunple_CSunple1_RW	acq4567_RW	4	61	400	1	300	300	354	46	0	1	1	blank2r.bmp	0	1	+	0	1	blank2r.bmp	492	1	YFFY	492	1	blank2r.bmp	572	1	töten	866	1	!	1239	1	!	1252	0	0	0	0	0	0	0	0	0	0	0	0	0	0	0	0	0	0	0	0	0	0	0	0	0	0	0	0	0	0
081219	16:41:57	16:49:05	426958	5.0.10.0	5_exp_RW	97	Rpleas_acq	CS_A	DXXD	CPPC	YFFY	JQQJ	LWWL	ZHHZ	träumen	gütig	sonnig	küssen	vertrauen	genießen	töten	gierig	sterben	krank	versagen	gemein	1	acq_USunple_CSunple2_RW	acq4567_RW	4	62	400	0	300	300	479	46	0	1	1	blank2r.bmp	0	1	+	0	1	blank2r.bmp	492	1	JQQJ	492	1	blank2r.bmp	572	3	gemein	866	1	!	1239	1	!	-1	0	0	0	0	0	0	0	0	0	0	0	0	0	0	0	0	0	0	0	0	0	0	0	0	0	0	0	0	0	0
081219	16:41:57	16:49:07	429224	5.0.10.0	5_exp_RW	97	Rpleas_acq	CS_A	DXXD	CPPC	YFFY	JQQJ	LWWL	ZHHZ	träumen	gütig	sonnig	küssen	vertrauen	genießen	töten	gierig	sterben	krank	versagen	gemein	1	acq_USpleas_CSpleas1_RW	acq4567_RW	4	63	400	1	300	300	452	50	0	1	1	blank2r.bmp	0	1	+	0	1	blank2r.bmp	492	1	DXXD	492	1	blank2r.bmp	572	3	sonnig	866	1	!	1239	1	!	1359	0	0	0	0	0	0	0	0	0	0	0	0	0	0	0	0	0	0	0	0	0	0	0	0	0	0	0	0	0	0
081219	16:41:57	16:49:09	431503	5.0.10.0	5_exp_RW	97	Rpleas_acq	CS_A	DXXD	CPPC	YFFY	JQQJ	LWWL	ZHHZ	träumen	gütig	sonnig	küssen	vertrauen	genießen	töten	gierig	sterben	krank	versagen	gemein	1	acq_USunple_CSunple1_RW	acq4567_RW	4	64	400	0	300	300	502	46	0	1	1	blank2r.bmp	0	1	+	0	1	blank2r.bmp	492	1	YFFY	492	1	blank2r.bmp	572	2	gierig	866	1	!	1239	1	!	-1	0	0	0	0	0	0	0	0	0	0	0	0	0	0	0	0	0	0	0	0	0	0	0	0	0	0	0	0	0	0
081219	16:41:57	16:49:11	433622	5.0.10.0	5_exp_RW	97	Rpleas_acq	CS_A	DXXD	CPPC	YFFY	JQQJ	LWWL	ZHHZ	träumen	gütig	sonnig	küssen	vertrauen	genießen	töten	gierig	sterben	krank	versagen	gemein	1	acq_USunple_CSunple2_RW	acq4567_RW	4	65	400	0	300	300	328	46	0	1	1	blank2r.bmp	0	1	+	0	1	blank2r.bmp	492	1	JQQJ	492	1	blank2r.bmp	572	2	versagen	866	1	!	-1	1	!	-1	0	0	0	0	0	0	0	0	0	0	0	0	0	0	0	0	0	0	0	0	0	0	0	0	0	0	0	0	0	0
081219	16:41:57	16:49:14	435821	5.0.10.0	5_exp_RW	97	Rpleas_acq	CS_A	DXXD	CPPC	YFFY	JQQJ	LWWL	ZHHZ	träumen	gütig	sonnig	küssen	vertrauen	genießen	töten	gierig	sterben	krank	versagen	gemein	1	acq_USpleas_CSpleas1_RW	acq4567_RW	4	66	400	1	300	300	389	50	0	1	1	blank2r.bmp	0	1	+	0	1	blank2r.bmp	492	1	DXXD	492	1	blank2r.bmp	572	1	träumen	866	1	!	1239	1	!	1292	0	0	0	0	0	0	0	0	0	0	0	0	0	0	0	0	0	0	0	0	0	0	0	0	0	0	0	0	0	0
081219	16:41:57	16:49:16	438060	5.0.10.0	5_exp_RW	97	Rpleas_acq	CS_A	DXXD	CPPC	YFFY	JQQJ	LWWL	ZHHZ	träumen	gütig	sonnig	küssen	vertrauen	genießen	töten	gierig	sterben	krank	versagen	gemein	1	acq_USpleas_CSpleas2_RW	acq4567_RW	4	67	400	1	300	300	426	46	0	0	1	blank2r.bmp	0	1	+	0	1	blank2r.bmp	492	1	CPPC	492	1	blank2r.bmp	572	3	genießen	866	1	!	1239	1	!	1332	0	0	0	0	0	0	0	0	0	0	0	0	0	0	0	0	0	0	0	0	0	0	0	0	0	0	0	0	0	0
081219	16:41:57	16:49:18	440099	5.0.10.0	5_exp_RW	97	Rpleas_acq	CS_A	DXXD	CPPC	YFFY	JQQJ	LWWL	ZHHZ	träumen	gütig	sonnig	küssen	vertrauen	genießen	töten	gierig	sterben	krank	versagen	gemein	1	acq_USunple_CSunple2_RW	acq4567_RW	4	68	400	0	300	300	276	50	0	0	1	blank2r.bmp	0	1	+	0	1	blank2r.bmp	492	1	JQQJ	492	1	blank2r.bmp	572	3	gemein	866	1	!	-1	1	!	-1	0	0	0	0	0	0	0	0	0	0	0	0	0	0	0	0	0	0	0	0	0	0	0	0	0	0	0	0	0	0
081219	16:41:57	16:49:20	442138	5.0.10.0	5_exp_RW	97	Rpleas_acq	CS_A	DXXD	CPPC	YFFY	JQQJ	LWWL	ZHHZ	träumen	gütig	sonnig	küssen	vertrauen	genießen	töten	gierig	sterben	krank	versagen	gemein	1	acq_USpleas_CSpleas1_RW	acq4567_RW	4	69	400	0	300	300	252	46	0	0	1	blank2r.bmp	0	1	+	0	1	blank2r.bmp	492	1	DXXD	492	1	blank2r.bmp	572	3	sonnig	866	1	!	-1	1	!	-1	0	0	0	0	0	0	0	0	0	0	0	0	0	0	0	0	0	0	0	0	0	0	0	0	0	0	0	0	0	0
081219	16:41:57	16:49:22	444444	5.0.10.0	5_exp_RW	97	Rpleas_acq	CS_A	DXXD	CPPC	YFFY	JQQJ	LWWL	ZHHZ	träumen	gütig	sonnig	küssen	vertrauen	genießen	töten	gierig	sterben	krank	versagen	gemein	1	acq_USpleas_CSpleas2_RW	acq4567_RW	4	70	400	0	300	300	529	50	0	1	1	blank2r.bmp	0	1	+	0	1	blank2r.bmp	492	1	CPPC	492	1	blank2r.bmp	572	2	vertrauen	866	1	!	1239	1	!	-1	0	0	0	0	0	0	0	0	0	0	0	0	0	0	0	0	0	0	0	0	0	0	0	0	0	0	0	0	0	0
081219	16:41:57	16:49:24	446536	5.0.10.0	5_exp_RW	97	Rpleas_acq	CS_A	DXXD	CPPC	YFFY	JQQJ	LWWL	ZHHZ	träumen	gütig	sonnig	küssen	vertrauen	genießen	töten	gierig	sterben	krank	versagen	gemein	1	acq_USunple_CSunple2_RW	acq4567_RW	4	71	400	0	300	300	317	46	0	1	1	blank2r.bmp	0	1	+	0	1	blank2r.bmp	492	1	JQQJ	492	1	blank2r.bmp	572	1	krank	866	1	!	-1	1	!	-1	0	0	0	0	0	0	0	0	0	0	0	0	0	0	0	0	0	0	0	0	0	0	0	0	0	0	0	0	0	0
081219	16:41:57	16:49:27	448789	5.0.10.0	5_exp_RW	97	Rpleas_acq	CS_A	DXXD	CPPC	YFFY	JQQJ	LWWL	ZHHZ	träumen	gütig	sonnig	küssen	vertrauen	genießen	töten	gierig	sterben	krank	versagen	gemein	1	acq_USpleas_CSpleas1_RW	acq4567_RW	4	72	400	1	300	300	443	50	0	1	1	blank2r.bmp	0	1	+	0	1	blank2r.bmp	492	1	DXXD	492	1	blank2r.bmp	572	2	gütig	866	1	!	1239	1	!	1346	0	0	0	0	0	0	0	0	0	0	0	0	0	0	0	0	0	0	0	0	0	0	0	0	0	0	0	0	0	0
081219	16:41:57	16:49:29	450948	5.0.10.0	5_exp_RW	97	Rpleas_acq	CS_A	DXXD	CPPC	YFFY	JQQJ	LWWL	ZHHZ	träumen	gütig	sonnig	küssen	vertrauen	genießen	töten	gierig	sterben	krank	versagen	gemein	1	acq_USunple_CSunple1_RW	acq4567_RW	4	73	400	1	300	300	364	46	0	1	1	blank2r.bmp	0	1	+	0	1	blank2r.bmp	492	1	YFFY	492	1	blank2r.bmp	572	3	sterben	866	1	!	1239	1	!	1266	0	0	0	0	0	0	0	0	0	0	0	0	0	0	0	0	0	0	0	0	0	0	0	0	0	0	0	0	0	0
081219	16:41:57	16:49:31	453200	5.0.10.0	5_exp_RW	97	Rpleas_acq	CS_A	DXXD	CPPC	YFFY	JQQJ	LWWL	ZHHZ	träumen	gütig	sonnig	küssen	vertrauen	genießen	töten	gierig	sterben	krank	versagen	gemein	1	acq_USunple_CSunple1_RW	acq4567_RW	4	74	400	0	300	300	479	46	0	1	1	blank2r.bmp	0	1	+	0	1	blank2r.bmp	492	1	YFFY	492	1	blank2r.bmp	572	1	töten	866	1	!	1239	1	!	-1	0	0	0	0	0	0	0	0	0	0	0	0	0	0	0	0	0	0	0	0	0	0	0	0	0	0	0	0	0	0
081219	16:41:57	16:49:33	455266	5.0.10.0	5_exp_RW	97	Rpleas_acq	CS_A	DXXD	CPPC	YFFY	JQQJ	LWWL	ZHHZ	träumen	gütig	sonnig	küssen	vertrauen	genießen	töten	gierig	sterben	krank	versagen	gemein	1	acq_USunple_CSunple2_RW	acq4567_RW	4	75	400	0	300	300	289	50	0	0	1	blank2r.bmp	0	1	+	0	1	blank2r.bmp	492	1	JQQJ	492	1	blank2r.bmp	572	2	versagen	866	1	!	-1	1	!	-1	0	0	0	0	0	0	0	0	0	0	0	0	0	0	0	0	0	0	0	0	0	0	0	0	0	0	0	0	0	0
081219	16:41:57	16:49:35	457639	5.0.10.0	5_exp_RW	97	Rpleas_acq	CS_A	DXXD	CPPC	YFFY	JQQJ	LWWL	ZHHZ	träumen	gütig	sonnig	küssen	vertrauen	genießen	töten	gierig	sterben	krank	versagen	gemein	1	acq_USpleas_CSpleas1_RW	acq4567_RW	4	76	400	0	300	300	586	50	0	1	1	blank2r.bmp	0	1	+	0	1	blank2r.bmp	492	1	DXXD	492	1	blank2r.bmp	572	1	träumen	866	1	!	1239	1	!	-1	0	0	0	0	0	0	0	0	0	0	0	0	0	0	0	0	0	0	0	0	0	0	0	0	0	0	0	0	0	0
081219	16:41:57	16:49:38	459891	5.0.10.0	5_exp_RW	97	Rpleas_acq	CS_A	DXXD	CPPC	YFFY	JQQJ	LWWL	ZHHZ	träumen	gütig	sonnig	küssen	vertrauen	genießen	töten	gierig	sterben	krank	versagen	gemein	1	acq_USunple_CSunple1_RW	acq4567_RW	4	77	400	1	300	300	451	46	0	1	1	blank2r.bmp	0	1	+	0	1	blank2r.bmp	492	1	YFFY	492	1	blank2r.bmp	572	2	gierig	866	1	!	1239	1	!	1346	0	0	0	0	0	0	0	0	0	0	0	0	0	0	0	0	0	0	0	0	0	0	0	0	0	0	0	0	0	0
081219	16:41:57	16:49:40	462130	5.0.10.0	5_exp_RW	97	Rpleas_acq	CS_A	DXXD	CPPC	YFFY	JQQJ	LWWL	ZHHZ	träumen	gütig	sonnig	küssen	vertrauen	genießen	töten	gierig	sterben	krank	versagen	gemein	1	acq_USpleas_CSpleas2_RW	acq4567_RW	4	78	400	1	300	300	438	50	0	1	1	blank2r.bmp	0	1	+	0	1	blank2r.bmp	492	1	CPPC	492	1	blank2r.bmp	572	3	genießen	866	1	!	1239	1	!	1332	0	0	0	0	0	0	0	0	0	0	0	0	0	0	0	0	0	0	0	0	0	0	0	0	0	0	0	0	0	0
081219	16:41:57	16:49:42	464356	5.0.10.0	5_exp_RW	97	Rpleas_acq	CS_A	DXXD	CPPC	YFFY	JQQJ	LWWL	ZHHZ	träumen	gütig	sonnig	küssen	vertrauen	genießen	töten	gierig	sterben	krank	versagen	gemein	1	acq_USpleas_CSpleas2_RW	acq4567_RW	4	79	400	1	300	300	430	50	0	1	1	blank2r.bmp	0	1	+	0	1	blank2r.bmp	492	1	CPPC	492	1	blank2r.bmp	572	2	vertrauen	866	1	!	1239	1	!	1332	0	0	0	0	0	0	0	0	0	0	0	0	0	0	0	0	0	0	0	0	0	0	0	0	0	0	0	0	0	0
081219	16:41:57	16:49:45	466648	5.0.10.0	5_exp_RW	97	Rpleas_acq	CS_A	DXXD	CPPC	YFFY	JQQJ	LWWL	ZHHZ	träumen	gütig	sonnig	küssen	vertrauen	genießen	töten	gierig	sterben	krank	versagen	gemein	1	acq_USpleas_CSpleas2_RW	acq4567_RW	4	80	400	0	300	300	525	50	0	1	1	blank2r.bmp	0	1	+	0	1	blank2r.bmp	492	1	CPPC	492	1	blank2r.bmp	572	1	küssen	866	1	!	1239	1	!	-1	0	0	0	0	0	0	0	0	0	0	0	0	0	0	0	0	0	0	0	0	0	0	0	0	0	0	0	0	0	0
081219	16:41:57	16:50:18	499648	5.0.10.0	5_exp_RW	97	Rpleas_acq	CS_A	DXXD	CPPC	YFFY	JQQJ	LWWL	ZHHZ	träumen	gütig	sonnig	küssen	vertrauen	genießen	töten	gierig	sterben	krank	versagen	gemein	1	acq_USunple_CSunple1_RW	acq4567_RW	5	1	400	0	300	300	4426	46	0	1	1	blank2r.bmp	0	1	+	0	1	blank2r.bmp	492	1	YFFY	492	1	blank2r.bmp	572	2	gierig	866	1	!	1239	1	!	-1	0	0	0	0	0	0	0	0	0	0	0	0	0	0	0	0	0	0	0	0	0	0	0	0	0	0	0	0	0	0
081219	16:41:57	16:50:20	501887	5.0.10.0	5_exp_RW	97	Rpleas_acq	CS_A	DXXD	CPPC	YFFY	JQQJ	LWWL	ZHHZ	träumen	gütig	sonnig	küssen	vertrauen	genießen	töten	gierig	sterben	krank	versagen	gemein	1	acq_USunple_CSunple1_RW	acq4567_RW	5	2	400	1	300	300	430	46	0	1	1	blank2r.bmp	0	1	+	0	1	blank2r.bmp	492	1	YFFY	492	1	blank2r.bmp	572	3	sterben	866	1	!	1239	1	!	1332	0	0	0	0	0	0	0	0	0	0	0	0	0	0	0	0	0	0	0	0	0	0	0	0	0	0	0	0	0	0
081219	16:41:57	16:50:22	504073	5.0.10.0	5_exp_RW	97	Rpleas_acq	CS_A	DXXD	CPPC	YFFY	JQQJ	LWWL	ZHHZ	träumen	gütig	sonnig	küssen	vertrauen	genießen	töten	gierig	sterben	krank	versagen	gemein	1	acq_USpleas_CSpleas1_RW	acq4567_RW	5	3	400	1	300	300	377	50	0	1	1	blank2r.bmp	0	1	+	0	1	blank2r.bmp	492	1	DXXD	492	1	blank2r.bmp	572	3	sonnig	866	1	!	1239	1	!	1279	0	0	0	0	0	0	0	0	0	0	0	0	0	0	0	0	0	0	0	0	0	0	0	0	0	0	0	0	0	0
081219	16:41:57	16:50:24	506245	5.0.10.0	5_exp_RW	97	Rpleas_acq	CS_A	DXXD	CPPC	YFFY	JQQJ	LWWL	ZHHZ	träumen	gütig	sonnig	küssen	vertrauen	genießen	töten	gierig	sterben	krank	versagen	gemein	1	acq_USunple_CSunple2_RW	acq4567_RW	5	4	400	1	300	300	382	46	0	1	1	blank2r.bmp	0	1	+	0	1	blank2r.bmp	492	1	JQQJ	492	1	blank2r.bmp	572	3	gemein	866	1	!	1239	1	!	1279	0	0	0	0	0	0	0	0	0	0	0	0	0	0	0	0	0	0	0	0	0	0	0	0	0	0	0	0	0	0
081219	16:41:57	16:50:33	515548	5.0.10.0	5_exp_RW	97	Rpleas_acq	CS_A	DXXD	CPPC	YFFY	JQQJ	LWWL	ZHHZ	träumen	gütig	sonnig	küssen	vertrauen	genießen	töten	gierig	sterben	krank	versagen	gemein	1	acq_USunple_CSunple2_RW	acq4567_RW	5	5	400	0	300	300	7537	46	0	1	1	blank2r.bmp	0	1	+	0	1	blank2r.bmp	492	1	JQQJ	492	1	blank2r.bmp	572	1	krank	866	1	!	1239	1	!	-1	0	0	0	0	0	0	0	0	0	0	0	0	0	0	0	0	0	0	0	0	0	0	0	0	0	0	0	0	0	0
081219	16:41:57	16:50:36	517747	5.0.10.0	5_exp_RW	97	Rpleas_acq	CS_A	DXXD	CPPC	YFFY	JQQJ	LWWL	ZHHZ	träumen	gütig	sonnig	küssen	vertrauen	genießen	töten	gierig	sterben	krank	versagen	gemein	1	acq_USunple_CSunple1_RW	acq4567_RW	5	6	400	1	300	300	393	46	0	1	1	blank2r.bmp	0	1	+	0	1	blank2r.bmp	492	1	YFFY	492	1	blank2r.bmp	572	1	töten	866	1	!	1239	1	!	1292	0	0	0	0	0	0	0	0	0	0	0	0	0	0	0	0	0	0	0	0	0	0	0	0	0	0	0	0	0	0
081219	16:41:57	16:50:38	519853	5.0.10.0	5_exp_RW	97	Rpleas_acq	CS_A	DXXD	CPPC	YFFY	JQQJ	LWWL	ZHHZ	träumen	gütig	sonnig	küssen	vertrauen	genießen	töten	gierig	sterben	krank	versagen	gemein	1	acq_USpleas_CSpleas2_RW	acq4567_RW	5	7	400	0	300	300	333	46	0	0	1	blank2r.bmp	0	1	+	0	1	blank2r.bmp	492	1	CPPC	492	1	blank2r.bmp	572	3	genießen	866	1	!	-1	1	!	-1	0	0	0	0	0	0	0	0	0	0	0	0	0	0	0	0	0	0	0	0	0	0	0	0	0	0	0	0	0	0
081219	16:41:57	16:50:40	521932	5.0.10.0	5_exp_RW	97	Rpleas_acq	CS_A	DXXD	CPPC	YFFY	JQQJ	LWWL	ZHHZ	träumen	gütig	sonnig	küssen	vertrauen	genießen	töten	gierig	sterben	krank	versagen	gemein	1	acq_USunple_CSunple2_RW	acq4567_RW	5	8	400	0	300	300	301	50	0	0	1	blank2r.bmp	0	1	+	0	1	blank2r.bmp	492	1	JQQJ	492	1	blank2r.bmp	572	2	versagen	866	1	!	-1	1	!	-1	0	0	0	0	0	0	0	0	0	0	0	0	0	0	0	0	0	0	0	0	0	0	0	0	0	0	0	0	0	0
081219	16:41:57	16:50:42	524265	5.0.10.0	5_exp_RW	97	Rpleas_acq	CS_A	DXXD	CPPC	YFFY	JQQJ	LWWL	ZHHZ	träumen	gütig	sonnig	küssen	vertrauen	genießen	töten	gierig	sterben	krank	versagen	gemein	1	acq_USunple_CSunple1_RW	acq4567_RW	5	9	400	0	300	300	546	46	0	1	1	blank2r.bmp	0	1	+	0	1	blank2r.bmp	492	1	YFFY	492	1	blank2r.bmp	572	2	gierig	866	1	!	1239	1	!	-1	0	0	0	0	0	0	0	0	0	0	0	0	0	0	0	0	0	0	0	0	0	0	0	0	0	0	0	0	0	0
081219	16:41:57	16:50:44	526544	5.0.10.0	5_exp_RW	97	Rpleas_acq	CS_A	DXXD	CPPC	YFFY	JQQJ	LWWL	ZHHZ	träumen	gütig	sonnig	küssen	vertrauen	genießen	töten	gierig	sterben	krank	versagen	gemein	1	acq_USunple_CSunple1_RW	acq4567_RW	5	10	400	0	300	300	495	46	0	1	1	blank2r.bmp	0	1	+	0	1	blank2r.bmp	492	1	YFFY	492	1	blank2r.bmp	572	3	sterben	866	1	!	1239	1	!	-1	0	0	0	0	0	0	0	0	0	0	0	0	0	0	0	0	0	0	0	0	0	0	0	0	0	0	0	0	0	0
081219	16:41:57	16:50:46	528636	5.0.10.0	5_exp_RW	97	Rpleas_acq	CS_A	DXXD	CPPC	YFFY	JQQJ	LWWL	ZHHZ	träumen	gütig	sonnig	küssen	vertrauen	genießen	töten	gierig	sterben	krank	versagen	gemein	1	acq_USpleas_CSpleas2_RW	acq4567_RW	5	11	400	0	300	300	314	50	0	1	1	blank2r.bmp	0	1	+	0	1	blank2r.bmp	492	1	CPPC	492	1	blank2r.bmp	572	2	vertrauen	866	1	!	-1	1	!	-1	0	0	0	0	0	0	0	0	0	0	0	0	0	0	0	0	0	0	0	0	0	0	0	0	0	0	0	0	0	0
081219	16:41:57	16:50:49	530822	5.0.10.0	5_exp_RW	97	Rpleas_acq	CS_A	DXXD	CPPC	YFFY	JQQJ	LWWL	ZHHZ	träumen	gütig	sonnig	küssen	vertrauen	genießen	töten	gierig	sterben	krank	versagen	gemein	1	acq_USpleas_CSpleas2_RW	acq4567_RW	5	12	400	1	300	300	373	50	0	1	1	blank2r.bmp	0	1	+	0	1	blank2r.bmp	492	1	CPPC	492	1	blank2r.bmp	572	1	küssen	866	1	!	1239	1	!	1279	0	0	0	0	0	0	0	0	0	0	0	0	0	0	0	0	0	0	0	0	0	0	0	0	0	0	0	0	0	0
081219	16:41:57	16:50:51	533074	5.0.10.0	5_exp_RW	97	Rpleas_acq	CS_A	DXXD	CPPC	YFFY	JQQJ	LWWL	ZHHZ	träumen	gütig	sonnig	küssen	vertrauen	genießen	töten	gierig	sterben	krank	versagen	gemein	1	acq_USpleas_CSpleas2_RW	acq4567_RW	5	13	400	0	300	300	479	50	0	1	1	blank2r.bmp	0	1	+	0	1	blank2r.bmp	492	1	CPPC	492	1	blank2r.bmp	572	3	genießen	866	1	!	1239	1	!	-1	0	0	0	0	0	0	0	0	0	0	0	0	0	0	0	0	0	0	0	0	0	0	0	0	0	0	0	0	0	0
081219	16:41:57	16:50:53	535233	5.0.10.0	5_exp_RW	97	Rpleas_acq	CS_A	DXXD	CPPC	YFFY	JQQJ	LWWL	ZHHZ	träumen	gütig	sonnig	küssen	vertrauen	genießen	töten	gierig	sterben	krank	versagen	gemein	1	acq_USpleas_CSpleas1_RW	acq4567_RW	5	14	400	1	300	300	356	50	0	1	1	blank2r.bmp	0	1	+	0	1	blank2r.bmp	492	1	DXXD	492	1	blank2r.bmp	572	2	gütig	866	1	!	1239	1	!	1252	0	0	0	0	0	0	0	0	0	0	0	0	0	0	0	0	0	0	0	0	0	0	0	0	0	0	0	0	0	0
081219	16:41:57	16:50:55	537299	5.0.10.0	5_exp_RW	97	Rpleas_acq	CS_A	DXXD	CPPC	YFFY	JQQJ	LWWL	ZHHZ	träumen	gütig	sonnig	küssen	vertrauen	genießen	töten	gierig	sterben	krank	versagen	gemein	1	acq_USpleas_CSpleas2_RW	acq4567_RW	5	15	400	0	300	300	292	46	0	0	1	blank2r.bmp	0	1	+	0	1	blank2r.bmp	492	1	CPPC	492	1	blank2r.bmp	572	2	vertrauen	866	1	!	-1	1	!	-1	0	0	0	0	0	0	0	0	0	0	0	0	0	0	0	0	0	0	0	0	0	0	0	0	0	0	0	0	0	0
081219	16:41:57	16:50:57	539458	5.0.10.0	5_exp_RW	97	Rpleas_acq	CS_A	DXXD	CPPC	YFFY	JQQJ	LWWL	ZHHZ	träumen	gütig	sonnig	küssen	vertrauen	genießen	töten	gierig	sterben	krank	versagen	gemein	1	acq_USpleas_CSpleas1_RW	acq4567_RW	5	16	400	1	300	300	346	46	0	0	1	blank2r.bmp	0	1	+	0	1	blank2r.bmp	492	1	DXXD	492	1	blank2r.bmp	572	1	träumen	866	1	!	1239	1	!	1252	0	0	0	0	0	0	0	0	0	0	0	0	0	0	0	0	0	0	0	0	0	0	0	0	0	0	0	0	0	0
081219	16:41:57	16:51:00	541711	5.0.10.0	5_exp_RW	97	Rpleas_acq	CS_A	DXXD	CPPC	YFFY	JQQJ	LWWL	ZHHZ	träumen	gütig	sonnig	küssen	vertrauen	genießen	töten	gierig	sterben	krank	versagen	gemein	1	acq_USpleas_CSpleas1_RW	acq4567_RW	5	17	400	1	300	300	456	46	0	0	1	blank2r.bmp	0	1	+	0	1	blank2r.bmp	492	1	DXXD	492	1	blank2r.bmp	572	3	sonnig	866	1	!	1239	1	!	1359	0	0	0	0	0	0	0	0	0	0	0	0	0	0	0	0	0	0	0	0	0	0	0	0	0	0	0	0	0	0
081219	16:41:57	16:51:02	543750	5.0.10.0	5_exp_RW	97	Rpleas_acq	CS_A	DXXD	CPPC	YFFY	JQQJ	LWWL	ZHHZ	träumen	gütig	sonnig	küssen	vertrauen	genießen	töten	gierig	sterben	krank	versagen	gemein	1	acq_USunple_CSunple2_RW	acq4567_RW	5	18	400	0	300	300	270	46	0	1	1	blank2r.bmp	0	1	+	0	1	blank2r.bmp	492	1	JQQJ	492	1	blank2r.bmp	572	1	krank	866	1	!	-1	1	!	-1	0	0	0	0	0	0	0	0	0	0	0	0	0	0	0	0	0	0	0	0	0	0	0	0	0	0	0	0	0	0
081219	16:41:57	16:51:04	546016	5.0.10.0	5_exp_RW	97	Rpleas_acq	CS_A	DXXD	CPPC	YFFY	JQQJ	LWWL	ZHHZ	träumen	gütig	sonnig	küssen	vertrauen	genießen	töten	gierig	sterben	krank	versagen	gemein	1	acq_USunple_CSunple2_RW	acq4567_RW	5	19	400	0	300	300	483	46	0	1	1	blank2r.bmp	0	1	+	0	1	blank2r.bmp	492	1	JQQJ	492	1	blank2r.bmp	572	2	versagen	866	1	!	1239	1	!	-1	0	0	0	0	0	0	0	0	0	0	0	0	0	0	0	0	0	0	0	0	0	0	0	0	0	0	0	0	0	0
081219	16:41:57	16:51:06	548055	5.0.10.0	5_exp_RW	97	Rpleas_acq	CS_A	DXXD	CPPC	YFFY	JQQJ	LWWL	ZHHZ	träumen	gütig	sonnig	küssen	vertrauen	genießen	töten	gierig	sterben	krank	versagen	gemein	1	acq_USpleas_CSpleas1_RW	acq4567_RW	5	20	400	0	300	300	252	50	0	1	1	blank2r.bmp	0	1	+	0	1	blank2r.bmp	492	1	DXXD	492	1	blank2r.bmp	572	1	träumen	866	1	!	-1	1	!	-1	0	0	0	0	0	0	0	0	0	0	0	0	0	0	0	0	0	0	0	0	0	0	0	0	0	0	0	0	0	0
081219	16:41:57	16:51:08	550214	5.0.10.0	5_exp_RW	97	Rpleas_acq	CS_A	DXXD	CPPC	YFFY	JQQJ	LWWL	ZHHZ	träumen	gütig	sonnig	küssen	vertrauen	genießen	töten	gierig	sterben	krank	versagen	gemein	1	acq_USunple_CSunple2_RW	acq4567_RW	5	21	400	1	300	300	346	46	0	1	1	blank2r.bmp	0	1	+	0	1	blank2r.bmp	492	1	JQQJ	492	1	blank2r.bmp	572	3	gemein	866	1	!	1239	1	!	1252	0	0	0	0	0	0	0	0	0	0	0	0	0	0	0	0	0	0	0	0	0	0	0	0	0	0	0	0	0	0
081219	16:41:57	16:51:10	552466	5.0.10.0	5_exp_RW	97	Rpleas_acq	CS_A	DXXD	CPPC	YFFY	JQQJ	LWWL	ZHHZ	träumen	gütig	sonnig	küssen	vertrauen	genießen	töten	gierig	sterben	krank	versagen	gemein	1	acq_USpleas_CSpleas1_RW	acq4567_RW	5	22	400	1	300	300	443	50	0	1	1	blank2r.bmp	0	1	+	0	1	blank2r.bmp	492	1	DXXD	492	1	blank2r.bmp	572	2	gütig	866	1	!	1239	1	!	1346	0	0	0	0	0	0	0	0	0	0	0	0	0	0	0	0	0	0	0	0	0	0	0	0	0	0	0	0	0	0
081219	16:41:57	16:51:12	554519	5.0.10.0	5_exp_RW	97	Rpleas_acq	CS_A	DXXD	CPPC	YFFY	JQQJ	LWWL	ZHHZ	träumen	gütig	sonnig	küssen	vertrauen	genießen	töten	gierig	sterben	krank	versagen	gemein	1	acq_USpleas_CSpleas2_RW	acq4567_RW	5	23	400	0	300	300	281	46	0	0	1	blank2r.bmp	0	1	+	0	1	blank2r.bmp	492	1	CPPC	492	1	blank2r.bmp	572	1	küssen	866	1	!	-1	1	!	-1	0	0	0	0	0	0	0	0	0	0	0	0	0	0	0	0	0	0	0	0	0	0	0	0	0	0	0	0	0	0
081219	16:41:57	16:51:15	556785	5.0.10.0	5_exp_RW	97	Rpleas_acq	CS_A	DXXD	CPPC	YFFY	JQQJ	LWWL	ZHHZ	träumen	gütig	sonnig	küssen	vertrauen	genießen	töten	gierig	sterben	krank	versagen	gemein	1	acq_USunple_CSunple2_RW	acq4567_RW	5	24	400	1	300	300	454	46	0	1	1	blank2r.bmp	0	1	+	0	1	blank2r.bmp	492	1	JQQJ	492	1	blank2r.bmp	572	2	versagen	866	1	!	1239	1	!	1359	0	0	0	0	0	0	0	0	0	0	0	0	0	0	0	0	0	0	0	0	0	0	0	0	0	0	0	0	0	0
081219	16:41:57	16:51:17	558997	5.0.10.0	5_exp_RW	97	Rpleas_acq	CS_A	DXXD	CPPC	YFFY	JQQJ	LWWL	ZHHZ	träumen	gütig	sonnig	küssen	vertrauen	genießen	töten	gierig	sterben	krank	versagen	gemein	1	acq_USpleas_CSpleas2_RW	acq4567_RW	5	25	400	1	300	300	414	50	0	1	1	blank2r.bmp	0	1	+	0	1	blank2r.bmp	492	1	CPPC	492	1	blank2r.bmp	572	3	genießen	866	1	!	1239	1	!	1319	0	0	0	0	0	0	0	0	0	0	0	0	0	0	0	0	0	0	0	0	0	0	0	0	0	0	0	0	0	0
081219	16:41:57	16:51:19	561090	5.0.10.0	5_exp_RW	97	Rpleas_acq	CS_A	DXXD	CPPC	YFFY	JQQJ	LWWL	ZHHZ	träumen	gütig	sonnig	küssen	vertrauen	genießen	töten	gierig	sterben	krank	versagen	gemein	1	acq_USpleas_CSpleas1_RW	acq4567_RW	5	26	400	0	300	300	314	46	0	0	1	blank2r.bmp	0	1	+	0	1	blank2r.bmp	492	1	DXXD	492	1	blank2r.bmp	572	1	träumen	866	1	!	-1	1	!	-1	0	0	0	0	0	0	0	0	0	0	0	0	0	0	0	0	0	0	0	0	0	0	0	0	0	0	0	0	0	0
081219	16:41:57	16:51:21	563195	5.0.10.0	5_exp_RW	97	Rpleas_acq	CS_A	DXXD	CPPC	YFFY	JQQJ	LWWL	ZHHZ	träumen	gütig	sonnig	küssen	vertrauen	genießen	töten	gierig	sterben	krank	versagen	gemein	1	acq_USpleas_CSpleas1_RW	acq4567_RW	5	27	400	0	300	300	308	50	0	1	1	blank2r.bmp	0	1	+	0	1	blank2r.bmp	492	1	DXXD	492	1	blank2r.bmp	572	2	gütig	866	1	!	-1	1	!	-1	0	0	0	0	0	0	0	0	0	0	0	0	0	0	0	0	0	0	0	0	0	0	0	0	0	0	0	0	0	0
081219	16:41:57	16:51:23	565315	5.0.10.0	5_exp_RW	97	Rpleas_acq	CS_A	DXXD	CPPC	YFFY	JQQJ	LWWL	ZHHZ	träumen	gütig	sonnig	küssen	vertrauen	genießen	töten	gierig	sterben	krank	versagen	gemein	1	acq_USunple_CSunple2_RW	acq4567_RW	5	28	400	0	300	300	327	46	0	1	1	blank2r.bmp	0	1	+	0	1	blank2r.bmp	492	1	JQQJ	492	1	blank2r.bmp	572	1	krank	866	1	!	-1	1	!	-1	0	0	0	0	0	0	0	0	0	0	0	0	0	0	0	0	0	0	0	0	0	0	0	0	0	0	0	0	0	0
081219	16:41:57	16:51:25	567540	5.0.10.0	5_exp_RW	97	Rpleas_acq	CS_A	DXXD	CPPC	YFFY	JQQJ	LWWL	ZHHZ	träumen	gütig	sonnig	küssen	vertrauen	genießen	töten	gierig	sterben	krank	versagen	gemein	1	acq_USpleas_CSpleas2_RW	acq4567_RW	5	29	400	1	300	300	422	50	0	1	1	blank2r.bmp	0	1	+	0	1	blank2r.bmp	492	1	CPPC	492	1	blank2r.bmp	572	2	vertrauen	866	1	!	1239	1	!	1319	0	0	0	0	0	0	0	0	0	0	0	0	0	0	0	0	0	0	0	0	0	0	0	0	0	0	0	0	0	0
081219	16:41:57	16:51:28	569726	5.0.10.0	5_exp_RW	97	Rpleas_acq	CS_A	DXXD	CPPC	YFFY	JQQJ	LWWL	ZHHZ	träumen	gütig	sonnig	küssen	vertrauen	genießen	töten	gierig	sterben	krank	versagen	gemein	1	acq_USunple_CSunple1_RW	acq4567_RW	5	30	400	1	300	300	391	46	0	1	1	blank2r.bmp	0	1	+	0	1	blank2r.bmp	492	1	YFFY	492	1	blank2r.bmp	572	1	töten	866	1	!	1239	1	!	1292	0	0	0	0	0	0	0	0	0	0	0	0	0	0	0	0	0	0	0	0	0	0	0	0	0	0	0	0	0	0
081219	16:41:57	16:51:30	571965	5.0.10.0	5_exp_RW	97	Rpleas_acq	CS_A	DXXD	CPPC	YFFY	JQQJ	LWWL	ZHHZ	träumen	gütig	sonnig	küssen	vertrauen	genießen	töten	gierig	sterben	krank	versagen	gemein	1	acq_USunple_CSunple1_RW	acq4567_RW	5	31	400	1	300	300	448	46	0	1	1	blank2r.bmp	0	1	+	0	1	blank2r.bmp	492	1	YFFY	492	1	blank2r.bmp	572	1	töten	866	1	!	1239	1	!	1346	0	0	0	0	0	0	0	0	0	0	0	0	0	0	0	0	0	0	0	0	0	0	0	0	0	0	0	0	0	0
081219	16:41:57	16:51:32	574244	5.0.10.0	5_exp_RW	97	Rpleas_acq	CS_A	DXXD	CPPC	YFFY	JQQJ	LWWL	ZHHZ	träumen	gütig	sonnig	küssen	vertrauen	genießen	töten	gierig	sterben	krank	versagen	gemein	1	acq_USpleas_CSpleas1_RW	acq4567_RW	5	32	400	0	300	300	510	50	0	1	1	blank2r.bmp	0	1	+	0	1	blank2r.bmp	492	1	DXXD	492	1	blank2r.bmp	572	3	sonnig	866	1	!	1239	1	!	-1	0	0	0	0	0	0	0	0	0	0	0	0	0	0	0	0	0	0	0	0	0	0	0	0	0	0	0	0	0	0
081219	16:41:57	16:51:34	576457	5.0.10.0	5_exp_RW	97	Rpleas_acq	CS_A	DXXD	CPPC	YFFY	JQQJ	LWWL	ZHHZ	träumen	gütig	sonnig	küssen	vertrauen	genießen	töten	gierig	sterben	krank	versagen	gemein	1	acq_USpleas_CSpleas2_RW	acq4567_RW	5	33	400	1	300	300	407	46	0	0	1	blank2r.bmp	0	1	+	0	1	blank2r.bmp	492	1	CPPC	492	1	blank2r.bmp	572	1	küssen	866	1	!	1239	1	!	1306	0	0	0	0	0	0	0	0	0	0	0	0	0	0	0	0	0	0	0	0	0	0	0	0	0	0	0	0	0	0
081219	16:41:57	16:51:36	578616	5.0.10.0	5_exp_RW	97	Rpleas_acq	CS_A	DXXD	CPPC	YFFY	JQQJ	LWWL	ZHHZ	träumen	gütig	sonnig	küssen	vertrauen	genießen	töten	gierig	sterben	krank	versagen	gemein	1	acq_USunple_CSunple1_RW	acq4567_RW	5	34	400	1	300	300	361	50	0	0	1	blank2r.bmp	0	1	+	0	1	blank2r.bmp	492	1	YFFY	492	1	blank2r.bmp	572	3	sterben	866	1	!	1239	1	!	1266	0	0	0	0	0	0	0	0	0	0	0	0	0	0	0	0	0	0	0	0	0	0	0	0	0	0	0	0	0	0
081219	16:41:57	16:51:39	580655	5.0.10.0	5_exp_RW	97	Rpleas_acq	CS_A	DXXD	CPPC	YFFY	JQQJ	LWWL	ZHHZ	träumen	gütig	sonnig	küssen	vertrauen	genießen	töten	gierig	sterben	krank	versagen	gemein	1	acq_USunple_CSunple2_RW	acq4567_RW	5	35	400	0	300	300	272	46	0	1	1	blank2r.bmp	0	1	+	0	1	blank2r.bmp	492	1	JQQJ	492	1	blank2r.bmp	572	3	gemein	866	1	!	-1	1	!	-1	0	0	0	0	0	0	0	0	0	0	0	0	0	0	0	0	0	0	0	0	0	0	0	0	0	0	0	0	0	0
081219	16:41:57	16:51:41	582881	5.0.10.0	5_exp_RW	97	Rpleas_acq	CS_A	DXXD	CPPC	YFFY	JQQJ	LWWL	ZHHZ	träumen	gütig	sonnig	küssen	vertrauen	genießen	töten	gierig	sterben	krank	versagen	gemein	1	acq_USunple_CSunple1_RW	acq4567_RW	5	36	400	1	300	300	413	46	0	1	1	blank2r.bmp	0	1	+	0	1	blank2r.bmp	492	1	YFFY	492	1	blank2r.bmp	572	2	gierig	866	1	!	1239	1	!	1319	0	0	0	0	0	0	0	0	0	0	0	0	0	0	0	0	0	0	0	0	0	0	0	0	0	0	0	0	0	0
081219	16:41:57	16:51:43	585146	5.0.10.0	5_exp_RW	97	Rpleas_acq	CS_A	DXXD	CPPC	YFFY	JQQJ	LWWL	ZHHZ	träumen	gütig	sonnig	küssen	vertrauen	genießen	töten	gierig	sterben	krank	versagen	gemein	1	acq_USunple_CSunple2_RW	acq4567_RW	5	37	400	0	300	300	479	46	0	1	1	blank2r.bmp	0	1	+	0	1	blank2r.bmp	492	1	JQQJ	492	1	blank2r.bmp	572	2	versagen	866	1	!	1239	1	!	-1	0	0	0	0	0	0	0	0	0	0	0	0	0	0	0	0	0	0	0	0	0	0	0	0	0	0	0	0	0	0
081219	16:41:57	16:51:45	587252	5.0.10.0	5_exp_RW	97	Rpleas_acq	CS_A	DXXD	CPPC	YFFY	JQQJ	LWWL	ZHHZ	träumen	gütig	sonnig	küssen	vertrauen	genießen	töten	gierig	sterben	krank	versagen	gemein	1	acq_USpleas_CSpleas2_RW	acq4567_RW	5	38	400	0	300	300	310	46	0	0	1	blank2r.bmp	0	1	+	0	1	blank2r.bmp	492	1	CPPC	492	1	blank2r.bmp	572	2	vertrauen	866	1	!	-1	1	!	-1	0	0	0	0	0	0	0	0	0	0	0	0	0	0	0	0	0	0	0	0	0	0	0	0	0	0	0	0	0	0
081219	16:41:57	16:51:47	589345	5.0.10.0	5_exp_RW	97	Rpleas_acq	CS_A	DXXD	CPPC	YFFY	JQQJ	LWWL	ZHHZ	träumen	gütig	sonnig	küssen	vertrauen	genießen	töten	gierig	sterben	krank	versagen	gemein	1	acq_USpleas_CSpleas1_RW	acq4567_RW	5	39	400	0	300	300	294	50	0	1	1	blank2r.bmp	0	1	+	0	1	blank2r.bmp	492	1	DXXD	492	1	blank2r.bmp	572	2	gütig	866	1	!	-1	1	!	-1	0	0	0	0	0	0	0	0	0	0	0	0	0	0	0	0	0	0	0	0	0	0	0	0	0	0	0	0	0	0
081219	16:41:57	16:51:50	591717	5.0.10.0	5_exp_RW	97	Rpleas_acq	CS_A	DXXD	CPPC	YFFY	JQQJ	LWWL	ZHHZ	träumen	gütig	sonnig	küssen	vertrauen	genießen	töten	gierig	sterben	krank	versagen	gemein	1	acq_USunple_CSunple1_RW	acq4567_RW	5	40	400	0	300	300	594	46	0	1	1	blank2r.bmp	0	1	+	0	1	blank2r.bmp	492	1	YFFY	492	1	blank2r.bmp	572	2	gierig	866	1	!	1239	1	!	-1	0	0	0	0	0	0	0	0	0	0	0	0	0	0	0	0	0	0	0	0	0	0	0	0	0	0	0	0	0	0
081219	16:41:57	16:51:52	593983	5.0.10.0	5_exp_RW	97	Rpleas_acq	CS_A	DXXD	CPPC	YFFY	JQQJ	LWWL	ZHHZ	träumen	gütig	sonnig	küssen	vertrauen	genießen	töten	gierig	sterben	krank	versagen	gemein	1	acq_USunple_CSunple1_RW	acq4567_RW	5	41	400	0	300	300	491	46	0	1	1	blank2r.bmp	0	1	+	0	1	blank2r.bmp	492	1	YFFY	492	1	blank2r.bmp	572	3	sterben	866	1	!	1239	1	!	-1	0	0	0	0	0	0	0	0	0	0	0	0	0	0	0	0	0	0	0	0	0	0	0	0	0	0	0	0	0	0
081219	16:41:57	16:51:54	596195	5.0.10.0	5_exp_RW	97	Rpleas_acq	CS_A	DXXD	CPPC	YFFY	JQQJ	LWWL	ZHHZ	träumen	gütig	sonnig	küssen	vertrauen	genießen	töten	gierig	sterben	krank	versagen	gemein	1	acq_USpleas_CSpleas1_RW	acq4567_RW	5	42	400	1	300	300	400	50	0	1	1	blank2r.bmp	0	1	+	0	1	blank2r.bmp	492	1	DXXD	492	1	blank2r.bmp	572	1	träumen	866	1	!	1239	1	!	1306	0	0	0	0	0	0	0	0	0	0	0	0	0	0	0	0	0	0	0	0	0	0	0	0	0	0	0	0	0	0
081219	16:41:57	16:51:56	598434	5.0.10.0	5_exp_RW	97	Rpleas_acq	CS_A	DXXD	CPPC	YFFY	JQQJ	LWWL	ZHHZ	träumen	gütig	sonnig	küssen	vertrauen	genießen	töten	gierig	sterben	krank	versagen	gemein	1	acq_USpleas_CSpleas2_RW	acq4567_RW	5	43	400	1	300	300	444	46	0	0	1	blank2r.bmp	0	1	+	0	1	blank2r.bmp	492	1	CPPC	492	1	blank2r.bmp	572	1	küssen	866	1	!	1239	1	!	1346	0	0	0	0	0	0	0	0	0	0	0	0	0	0	0	0	0	0	0	0	0	0	0	0	0	0	0	0	0	0
081219	16:41:57	16:51:58	600633	5.0.10.0	5_exp_RW	97	Rpleas_acq	CS_A	DXXD	CPPC	YFFY	JQQJ	LWWL	ZHHZ	träumen	gütig	sonnig	küssen	vertrauen	genießen	töten	gierig	sterben	krank	versagen	gemein	1	acq_USunple_CSunple2_RW	acq4567_RW	5	44	400	1	300	300	391	46	0	1	1	blank2r.bmp	0	1	+	0	1	blank2r.bmp	492	1	JQQJ	492	1	blank2r.bmp	572	3	gemein	866	1	!	1239	1	!	1292	0	0	0	0	0	0	0	0	0	0	0	0	0	0	0	0	0	0	0	0	0	0	0	0	0	0	0	0	0	0
081219	16:41:57	16:52:01	602886	5.0.10.0	5_exp_RW	97	Rpleas_acq	CS_A	DXXD	CPPC	YFFY	JQQJ	LWWL	ZHHZ	träumen	gütig	sonnig	küssen	vertrauen	genießen	töten	gierig	sterben	krank	versagen	gemein	1	acq_USunple_CSunple1_RW	acq4567_RW	5	45	400	1	300	300	443	50	0	0	1	blank2r.bmp	0	1	+	0	1	blank2r.bmp	492	1	YFFY	492	1	blank2r.bmp	572	1	töten	866	1	!	1239	1	!	1346	0	0	0	0	0	0	0	0	0	0	0	0	0	0	0	0	0	0	0	0	0	0	0	0	0	0	0	0	0	0
081219	16:41:57	16:52:03	605125	5.0.10.0	5_exp_RW	97	Rpleas_acq	CS_A	DXXD	CPPC	YFFY	JQQJ	LWWL	ZHHZ	träumen	gütig	sonnig	küssen	vertrauen	genießen	töten	gierig	sterben	krank	versagen	gemein	1	acq_USpleas_CSpleas1_RW	acq4567_RW	5	46	400	1	300	300	443	50	0	1	1	blank2r.bmp	0	1	+	0	1	blank2r.bmp	492	1	DXXD	492	1	blank2r.bmp	572	3	sonnig	866	1	!	1239	1	!	1346	0	0	0	0	0	0	0	0	0	0	0	0	0	0	0	0	0	0	0	0	0	0	0	0	0	0	0	0	0	0
081219	16:41:57	16:52:05	607271	5.0.10.0	5_exp_RW	97	Rpleas_acq	CS_A	DXXD	CPPC	YFFY	JQQJ	LWWL	ZHHZ	träumen	gütig	sonnig	küssen	vertrauen	genießen	töten	gierig	sterben	krank	versagen	gemein	1	acq_USpleas_CSpleas1_RW	acq4567_RW	5	47	400	1	300	300	346	46	0	0	1	blank2r.bmp	0	1	+	0	1	blank2r.bmp	492	1	DXXD	492	1	blank2r.bmp	572	3	sonnig	866	1	!	1239	1	!	1252	0	0	0	0	0	0	0	0	0	0	0	0	0	0	0	0	0	0	0	0	0	0	0	0	0	0	0	0	0	0
081219	16:41:57	16:52:07	609563	5.0.10.0	5_exp_RW	97	Rpleas_acq	CS_A	DXXD	CPPC	YFFY	JQQJ	LWWL	ZHHZ	träumen	gütig	sonnig	küssen	vertrauen	genießen	töten	gierig	sterben	krank	versagen	gemein	1	acq_USunple_CSunple1_RW	acq4567_RW	5	48	400	0	300	300	524	46	0	1	1	blank2r.bmp	0	1	+	0	1	blank2r.bmp	492	1	YFFY	492	1	blank2r.bmp	572	2	gierig	866	1	!	1239	1	!	-1	0	0	0	0	0	0	0	0	0	0	0	0	0	0	0	0	0	0	0	0	0	0	0	0	0	0	0	0	0	0
081219	16:41:57	16:52:10	611776	5.0.10.0	5_exp_RW	97	Rpleas_acq	CS_A	DXXD	CPPC	YFFY	JQQJ	LWWL	ZHHZ	träumen	gütig	sonnig	küssen	vertrauen	genießen	töten	gierig	sterben	krank	versagen	gemein	1	acq_USunple_CSunple2_RW	acq4567_RW	5	49	400	1	300	300	410	50	0	0	1	blank2r.bmp	0	1	+	0	1	blank2r.bmp	492	1	JQQJ	492	1	blank2r.bmp	572	1	krank	866	1	!	1239	1	!	1306	0	0	0	0	0	0	0	0	0	0	0	0	0	0	0	0	0	0	0	0	0	0	0	0	0	0	0	0	0	0
081219	16:41:57	16:52:12	614028	5.0.10.0	5_exp_RW	97	Rpleas_acq	CS_A	DXXD	CPPC	YFFY	JQQJ	LWWL	ZHHZ	träumen	gütig	sonnig	küssen	vertrauen	genießen	töten	gierig	sterben	krank	versagen	gemein	1	acq_USunple_CSunple1_RW	acq4567_RW	5	50	400	0	300	300	479	46	0	1	1	blank2r.bmp	0	1	+	0	1	blank2r.bmp	492	1	YFFY	492	1	blank2r.bmp	572	1	töten	866	1	!	1239	1	!	-1	0	0	0	0	0	0	0	0	0	0	0	0	0	0	0	0	0	0	0	0	0	0	0	0	0	0	0	0	0	0
081219	16:41:57	16:52:14	616214	5.0.10.0	5_exp_RW	97	Rpleas_acq	CS_A	DXXD	CPPC	YFFY	JQQJ	LWWL	ZHHZ	träumen	gütig	sonnig	küssen	vertrauen	genießen	töten	gierig	sterben	krank	versagen	gemein	1	acq_USpleas_CSpleas1_RW	acq4567_RW	5	51	400	1	300	300	372	46	0	0	1	blank2r.bmp	0	1	+	0	1	blank2r.bmp	492	1	DXXD	492	1	blank2r.bmp	572	1	träumen	866	1	!	1239	1	!	1279	0	0	0	0	0	0	0	0	0	0	0	0	0	0	0	0	0	0	0	0	0	0	0	0	0	0	0	0	0	0
081219	16:41:57	16:52:16	618426	5.0.10.0	5_exp_RW	97	Rpleas_acq	CS_A	DXXD	CPPC	YFFY	JQQJ	LWWL	ZHHZ	träumen	gütig	sonnig	küssen	vertrauen	genießen	töten	gierig	sterben	krank	versagen	gemein	1	acq_USpleas_CSpleas2_RW	acq4567_RW	5	52	400	1	300	300	419	50	0	1	1	blank2r.bmp	0	1	+	0	1	blank2r.bmp	492	1	CPPC	492	1	blank2r.bmp	572	3	genießen	866	1	!	1239	1	!	1319	0	0	0	0	0	0	0	0	0	0	0	0	0	0	0	0	0	0	0	0	0	0	0	0	0	0	0	0	0	0
081219	16:41:57	16:52:19	620785	5.0.10.0	5_exp_RW	97	Rpleas_acq	CS_A	DXXD	CPPC	YFFY	JQQJ	LWWL	ZHHZ	träumen	gütig	sonnig	küssen	vertrauen	genießen	töten	gierig	sterben	krank	versagen	gemein	1	acq_USpleas_CSpleas2_RW	acq4567_RW	5	53	400	0	300	300	592	50	0	1	1	blank2r.bmp	0	1	+	0	1	blank2r.bmp	492	1	CPPC	492	1	blank2r.bmp	572	3	genießen	866	1	!	1239	1	!	-1	0	0	0	0	0	0	0	0	0	0	0	0	0	0	0	0	0	0	0	0	0	0	0	0	0	0	0	0	0	0
081219	16:41:57	16:52:21	623024	5.0.10.0	5_exp_RW	97	Rpleas_acq	CS_A	DXXD	CPPC	YFFY	JQQJ	LWWL	ZHHZ	träumen	gütig	sonnig	küssen	vertrauen	genießen	töten	gierig	sterben	krank	versagen	gemein	1	acq_USpleas_CSpleas2_RW	acq4567_RW	5	54	400	1	300	300	438	50	0	1	1	blank2r.bmp	0	1	+	0	1	blank2r.bmp	492	1	CPPC	492	1	blank2r.bmp	572	1	küssen	866	1	!	1239	1	!	1332	0	0	0	0	0	0	0	0	0	0	0	0	0	0	0	0	0	0	0	0	0	0	0	0	0	0	0	0	0	0
081219	16:41:57	16:52:23	625210	5.0.10.0	5_exp_RW	97	Rpleas_acq	CS_A	DXXD	CPPC	YFFY	JQQJ	LWWL	ZHHZ	träumen	gütig	sonnig	küssen	vertrauen	genießen	töten	gierig	sterben	krank	versagen	gemein	1	acq_USunple_CSunple2_RW	acq4567_RW	5	55	400	1	300	300	397	46	0	1	1	blank2r.bmp	0	1	+	0	1	blank2r.bmp	492	1	JQQJ	492	1	blank2r.bmp	572	2	versagen	866	1	!	1239	1	!	1292	0	0	0	0	0	0	0	0	0	0	0	0	0	0	0	0	0	0	0	0	0	0	0	0	0	0	0	0	0	0
081219	16:41:57	16:52:25	627542	5.0.10.0	5_exp_RW	97	Rpleas_acq	CS_A	DXXD	CPPC	YFFY	JQQJ	LWWL	ZHHZ	träumen	gütig	sonnig	küssen	vertrauen	genießen	töten	gierig	sterben	krank	versagen	gemein	1	acq_USpleas_CSpleas1_RW	acq4567_RW	5	56	400	0	300	300	564	50	0	1	1	blank2r.bmp	0	1	+	0	1	blank2r.bmp	492	1	DXXD	492	1	blank2r.bmp	572	2	gütig	866	1	!	1239	1	!	-1	0	0	0	0	0	0	0	0	0	0	0	0	0	0	0	0	0	0	0	0	0	0	0	0	0	0	0	0	0	0
081219	16:41:57	16:52:28	629781	5.0.10.0	5_exp_RW	97	Rpleas_acq	CS_A	DXXD	CPPC	YFFY	JQQJ	LWWL	ZHHZ	träumen	gütig	sonnig	küssen	vertrauen	genießen	töten	gierig	sterben	krank	versagen	gemein	1	acq_USunple_CSunple2_RW	acq4567_RW	5	57	400	1	300	300	437	50	0	0	1	blank2r.bmp	0	1	+	0	1	blank2r.bmp	492	1	JQQJ	492	1	blank2r.bmp	572	3	gemein	866	1	!	1239	1	!	1332	0	0	0	0	0	0	0	0	0	0	0	0	0	0	0	0	0	0	0	0	0	0	0	0	0	0	0	0	0	0
081219	16:41:57	16:52:30	631927	5.0.10.0	5_exp_RW	97	Rpleas_acq	CS_A	DXXD	CPPC	YFFY	JQQJ	LWWL	ZHHZ	träumen	gütig	sonnig	küssen	vertrauen	genießen	töten	gierig	sterben	krank	versagen	gemein	1	acq_USunple_CSunple2_RW	acq4567_RW	5	58	400	1	300	300	346	46	0	1	1	blank2r.bmp	0	1	+	0	1	blank2r.bmp	492	1	JQQJ	492	1	blank2r.bmp	572	1	krank	866	1	!	1239	1	!	1252	0	0	0	0	0	0	0	0	0	0	0	0	0	0	0	0	0	0	0	0	0	0	0	0	0	0	0	0	0	0
081219	16:41:57	16:52:32	634166	5.0.10.0	5_exp_RW	97	Rpleas_acq	CS_A	DXXD	CPPC	YFFY	JQQJ	LWWL	ZHHZ	träumen	gütig	sonnig	küssen	vertrauen	genießen	töten	gierig	sterben	krank	versagen	gemein	1	acq_USunple_CSunple1_RW	acq4567_RW	5	59	400	1	300	300	433	46	0	1	1	blank2r.bmp	0	1	+	0	1	blank2r.bmp	492	1	YFFY	492	1	blank2r.bmp	572	3	sterben	866	1	!	1239	1	!	1332	0	0	0	0	0	0	0	0	0	0	0	0	0	0	0	0	0	0	0	0	0	0	0	0	0	0	0	0	0	0
081219	16:41:57	16:52:34	636472	5.0.10.0	5_exp_RW	97	Rpleas_acq	CS_A	DXXD	CPPC	YFFY	JQQJ	LWWL	ZHHZ	träumen	gütig	sonnig	küssen	vertrauen	genießen	töten	gierig	sterben	krank	versagen	gemein	1	acq_USpleas_CSpleas2_RW	acq4567_RW	5	60	400	0	300	300	536	50	0	1	1	blank2r.bmp	0	1	+	0	1	blank2r.bmp	492	1	CPPC	492	1	blank2r.bmp	572	2	vertrauen	866	1	!	1239	1	!	-1	0	0	0	0	0	0	0	0	0	0	0	0	0	0	0	0	0	0	0	0	0	0	0	0	0	0	0	0	0	0
081219	16:41:57	16:52:37	638738	5.0.10.0	5_exp_RW	97	Rpleas_acq	CS_A	DXXD	CPPC	YFFY	JQQJ	LWWL	ZHHZ	träumen	gütig	sonnig	küssen	vertrauen	genießen	töten	gierig	sterben	krank	versagen	gemein	1	acq_USunple_CSunple2_RW	acq4567_RW	5	61	400	0	300	300	479	46	0	1	1	blank2r.bmp	0	1	+	0	1	blank2r.bmp	492	1	JQQJ	492	1	blank2r.bmp	572	3	gemein	866	1	!	1239	1	!	-1	0	0	0	0	0	0	0	0	0	0	0	0	0	0	0	0	0	0	0	0	0	0	0	0	0	0	0	0	0	0
081219	16:41:57	16:52:39	640937	5.0.10.0	5_exp_RW	97	Rpleas_acq	CS_A	DXXD	CPPC	YFFY	JQQJ	LWWL	ZHHZ	träumen	gütig	sonnig	küssen	vertrauen	genießen	töten	gierig	sterben	krank	versagen	gemein	1	acq_USunple_CSunple2_RW	acq4567_RW	5	62	400	1	300	300	392	46	0	1	1	blank2r.bmp	0	1	+	0	1	blank2r.bmp	492	1	JQQJ	492	1	blank2r.bmp	572	1	krank	866	1	!	1239	1	!	1292	0	0	0	0	0	0	0	0	0	0	0	0	0	0	0	0	0	0	0	0	0	0	0	0	0	0	0	0	0	0
081219	16:41:57	16:52:41	643403	5.0.10.0	5_exp_RW	97	Rpleas_acq	CS_A	DXXD	CPPC	YFFY	JQQJ	LWWL	ZHHZ	träumen	gütig	sonnig	küssen	vertrauen	genießen	töten	gierig	sterben	krank	versagen	gemein	1	acq_USpleas_CSpleas2_RW	acq4567_RW	5	63	400	0	300	300	697	50	0	1	1	blank2r.bmp	0	1	+	0	1	blank2r.bmp	492	1	CPPC	492	1	blank2r.bmp	572	2	vertrauen	866	1	!	1239	1	!	-1	0	0	0	0	0	0	0	0	0	0	0	0	0	0	0	0	0	0	0	0	0	0	0	0	0	0	0	0	0	0
081219	16:41:57	16:52:44	645668	5.0.10.0	5_exp_RW	97	Rpleas_acq	CS_A	DXXD	CPPC	YFFY	JQQJ	LWWL	ZHHZ	träumen	gütig	sonnig	küssen	vertrauen	genießen	töten	gierig	sterben	krank	versagen	gemein	1	acq_USpleas_CSpleas1_RW	acq4567_RW	5	64	400	1	300	300	452	46	0	0	1	blank2r.bmp	0	1	+	0	1	blank2r.bmp	492	1	DXXD	492	1	blank2r.bmp	572	1	träumen	866	1	!	1239	1	!	1359	0	0	0	0	0	0	0	0	0	0	0	0	0	0	0	0	0	0	0	0	0	0	0	0	0	0	0	0	0	0
081219	16:41:57	16:52:46	647854	5.0.10.0	5_exp_RW	97	Rpleas_acq	CS_A	DXXD	CPPC	YFFY	JQQJ	LWWL	ZHHZ	träumen	gütig	sonnig	küssen	vertrauen	genießen	töten	gierig	sterben	krank	versagen	gemein	1	acq_USpleas_CSpleas2_RW	acq4567_RW	5	65	400	1	300	300	396	46	0	0	1	blank2r.bmp	0	1	+	0	1	blank2r.bmp	492	1	CPPC	492	1	blank2r.bmp	572	1	küssen	866	1	!	1239	1	!	1292	0	0	0	0	0	0	0	0	0	0	0	0	0	0	0	0	0	0	0	0	0	0	0	0	0	0	0	0	0	0
081219	16:41:57	16:52:48	649920	5.0.10.0	5_exp_RW	97	Rpleas_acq	CS_A	DXXD	CPPC	YFFY	JQQJ	LWWL	ZHHZ	träumen	gütig	sonnig	küssen	vertrauen	genießen	töten	gierig	sterben	krank	versagen	gemein	1	acq_USpleas_CSpleas1_RW	acq4567_RW	5	66	400	0	300	300	288	46	0	0	1	blank2r.bmp	0	1	+	0	1	blank2r.bmp	492	1	DXXD	492	1	blank2r.bmp	572	3	sonnig	866	1	!	-1	1	!	-1	0	0	0	0	0	0	0	0	0	0	0	0	0	0	0	0	0	0	0	0	0	0	0	0	0	0	0	0	0	0
081219	16:41:57	16:52:50	652106	5.0.10.0	5_exp_RW	97	Rpleas_acq	CS_A	DXXD	CPPC	YFFY	JQQJ	LWWL	ZHHZ	träumen	gütig	sonnig	küssen	vertrauen	genießen	töten	gierig	sterben	krank	versagen	gemein	1	acq_USpleas_CSpleas1_RW	acq4567_RW	5	67	400	1	300	300	376	46	0	0	1	blank2r.bmp	0	1	+	0	1	blank2r.bmp	492	1	DXXD	492	1	blank2r.bmp	572	2	gütig	866	1	!	1239	1	!	1279	0	0	0	0	0	0	0	0	0	0	0	0	0	0	0	0	0	0	0	0	0	0	0	0	0	0	0	0	0	0
081219	16:41:57	16:52:52	654305	5.0.10.0	5_exp_RW	97	Rpleas_acq	CS_A	DXXD	CPPC	YFFY	JQQJ	LWWL	ZHHZ	träumen	gütig	sonnig	küssen	vertrauen	genießen	töten	gierig	sterben	krank	versagen	gemein	1	acq_USunple_CSunple1_RW	acq4567_RW	5	68	400	1	300	300	404	50	0	0	1	blank2r.bmp	0	1	+	0	1	blank2r.bmp	492	1	YFFY	492	1	blank2r.bmp	572	1	töten	866	1	!	1239	1	!	1306	0	0	0	0	0	0	0	0	0	0	0	0	0	0	0	0	0	0	0	0	0	0	0	0	0	0	0	0	0	0
081219	16:41:57	16:52:55	656717	5.0.10.0	5_exp_RW	97	Rpleas_acq	CS_A	DXXD	CPPC	YFFY	JQQJ	LWWL	ZHHZ	träumen	gütig	sonnig	küssen	vertrauen	genießen	töten	gierig	sterben	krank	versagen	gemein	1	acq_USunple_CSunple1_RW	acq4567_RW	5	69	400	0	300	300	638	46	0	1	1	blank2r.bmp	0	1	+	0	1	blank2r.bmp	492	1	YFFY	492	1	blank2r.bmp	572	2	gierig	866	1	!	1239	1	!	-1	0	0	0	0	0	0	0	0	0	0	0	0	0	0	0	0	0	0	0	0	0	0	0	0	0	0	0	0	0	0
081219	16:41:57	16:52:57	659010	5.0.10.0	5_exp_RW	97	Rpleas_acq	CS_A	DXXD	CPPC	YFFY	JQQJ	LWWL	ZHHZ	träumen	gütig	sonnig	küssen	vertrauen	genießen	töten	gierig	sterben	krank	versagen	gemein	1	acq_USunple_CSunple2_RW	acq4567_RW	5	70	400	0	300	300	498	46	0	1	1	blank2r.bmp	0	1	+	0	1	blank2r.bmp	492	1	JQQJ	492	1	blank2r.bmp	572	2	versagen	866	1	!	1239	1	!	-1	0	0	0	0	0	0	0	0	0	0	0	0	0	0	0	0	0	0	0	0	0	0	0	0	0	0	0	0	0	0
081219	16:41:57	16:52:59	661249	5.0.10.0	5_exp_RW	97	Rpleas_acq	CS_A	DXXD	CPPC	YFFY	JQQJ	LWWL	ZHHZ	träumen	gütig	sonnig	küssen	vertrauen	genießen	töten	gierig	sterben	krank	versagen	gemein	1	acq_USunple_CSunple1_RW	acq4567_RW	5	71	400	1	300	300	432	50	0	0	1	blank2r.bmp	0	1	+	0	1	blank2r.bmp	492	1	YFFY	492	1	blank2r.bmp	572	3	sterben	866	1	!	1239	1	!	1332	0	0	0	0	0	0	0	0	0	0	0	0	0	0	0	0	0	0	0	0	0	0	0	0	0	0	0	0	0	0
081219	16:41:57	16:53:01	663568	5.0.10.0	5_exp_RW	97	Rpleas_acq	CS_A	DXXD	CPPC	YFFY	JQQJ	LWWL	ZHHZ	träumen	gütig	sonnig	küssen	vertrauen	genießen	töten	gierig	sterben	krank	versagen	gemein	1	acq_USunple_CSunple2_RW	acq4567_RW	5	72	400	0	300	300	550	46	0	1	1	blank2r.bmp	0	1	+	0	1	blank2r.bmp	492	1	JQQJ	492	1	blank2r.bmp	572	2	versagen	866	1	!	1239	1	!	-1	0	0	0	0	0	0	0	0	0	0	0	0	0	0	0	0	0	0	0	0	0	0	0	0	0	0	0	0	0	0
081219	16:41:57	16:53:04	665727	5.0.10.0	5_exp_RW	97	Rpleas_acq	CS_A	DXXD	CPPC	YFFY	JQQJ	LWWL	ZHHZ	träumen	gütig	sonnig	küssen	vertrauen	genießen	töten	gierig	sterben	krank	versagen	gemein	1	acq_USpleas_CSpleas2_RW	acq4567_RW	5	73	400	1	300	300	355	50	0	1	1	blank2r.bmp	0	1	+	0	1	blank2r.bmp	492	1	CPPC	492	1	blank2r.bmp	572	3	genießen	866	1	!	1239	1	!	1252	0	0	0	0	0	0	0	0	0	0	0	0	0	0	0	0	0	0	0	0	0	0	0	0	0	0	0	0	0	0
081219	16:41:57	16:53:06	668179	5.0.10.0	5_exp_RW	97	Rpleas_acq	CS_A	DXXD	CPPC	YFFY	JQQJ	LWWL	ZHHZ	träumen	gütig	sonnig	küssen	vertrauen	genießen	töten	gierig	sterben	krank	versagen	gemein	1	acq_USpleas_CSpleas2_RW	acq4567_RW	5	74	400	0	300	300	681	50	0	1	1	blank2r.bmp	0	1	+	0	1	blank2r.bmp	492	1	CPPC	492	1	blank2r.bmp	572	1	küssen	866	1	!	1239	1	!	-1	0	0	0	0	0	0	0	0	0	0	0	0	0	0	0	0	0	0	0	0	0	0	0	0	0	0	0	0	0	0
081219	16:41:57	16:53:08	670538	5.0.10.0	5_exp_RW	97	Rpleas_acq	CS_A	DXXD	CPPC	YFFY	JQQJ	LWWL	ZHHZ	träumen	gütig	sonnig	küssen	vertrauen	genießen	töten	gierig	sterben	krank	versagen	gemein	1	acq_USunple_CSunple2_RW	acq4567_RW	5	75	400	0	300	300	577	46	0	1	1	blank2r.bmp	0	1	+	0	1	blank2r.bmp	492	1	JQQJ	492	1	blank2r.bmp	572	3	gemein	866	1	!	1239	1	!	-1	0	0	0	0	0	0	0	0	0	0	0	0	0	0	0	0	0	0	0	0	0	0	0	0	0	0	0	0	0	0
081219	16:41:57	16:53:11	672817	5.0.10.0	5_exp_RW	97	Rpleas_acq	CS_A	DXXD	CPPC	YFFY	JQQJ	LWWL	ZHHZ	träumen	gütig	sonnig	küssen	vertrauen	genießen	töten	gierig	sterben	krank	versagen	gemein	1	acq_USpleas_CSpleas1_RW	acq4567_RW	5	76	400	0	300	300	479	50	0	1	1	blank2r.bmp	0	1	+	0	1	blank2r.bmp	492	1	DXXD	492	1	blank2r.bmp	572	1	träumen	866	1	!	1239	1	!	-1	0	0	0	0	0	0	0	0	0	0	0	0	0	0	0	0	0	0	0	0	0	0	0	0	0	0	0	0	0	0
081219	16:41:57	16:53:13	674990	5.0.10.0	5_exp_RW	97	Rpleas_acq	CS_A	DXXD	CPPC	YFFY	JQQJ	LWWL	ZHHZ	träumen	gütig	sonnig	küssen	vertrauen	genießen	töten	gierig	sterben	krank	versagen	gemein	1	acq_USunple_CSunple1_RW	acq4567_RW	5	77	400	1	300	300	349	46	0	1	1	blank2r.bmp	0	1	+	0	1	blank2r.bmp	492	1	YFFY	492	1	blank2r.bmp	572	2	gierig	866	1	!	1239	1	!	1252	0	0	0	0	0	0	0	0	0	0	0	0	0	0	0	0	0	0	0	0	0	0	0	0	0	0	0	0	0	0
081219	16:41:57	16:53:15	677295	5.0.10.0	5_exp_RW	97	Rpleas_acq	CS_A	DXXD	CPPC	YFFY	JQQJ	LWWL	ZHHZ	träumen	gütig	sonnig	küssen	vertrauen	genießen	töten	gierig	sterben	krank	versagen	gemein	1	acq_USpleas_CSpleas2_RW	acq4567_RW	5	78	400	0	300	300	542	50	0	1	1	blank2r.bmp	0	1	+	0	1	blank2r.bmp	492	1	CPPC	492	1	blank2r.bmp	572	3	genießen	866	1	!	1239	1	!	-1	0	0	0	0	0	0	0	0	0	0	0	0	0	0	0	0	0	0	0	0	0	0	0	0	0	0	0	0	0	0
081219	16:41:57	16:53:17	679481	5.0.10.0	5_exp_RW	97	Rpleas_acq	CS_A	DXXD	CPPC	YFFY	JQQJ	LWWL	ZHHZ	träumen	gütig	sonnig	küssen	vertrauen	genießen	töten	gierig	sterben	krank	versagen	gemein	1	acq_USpleas_CSpleas1_RW	acq4567_RW	5	79	400	1	300	300	382	50	0	1	1	blank2r.bmp	0	1	+	0	1	blank2r.bmp	492	1	DXXD	492	1	blank2r.bmp	572	2	gütig	866	1	!	1239	1	!	1279	0	0	0	0	0	0	0	0	0	0	0	0	0	0	0	0	0	0	0	0	0	0	0	0	0	0	0	0	0	0
081219	16:41:57	16:53:19	681574	5.0.10.0	5_exp_RW	97	Rpleas_acq	CS_A	DXXD	CPPC	YFFY	JQQJ	LWWL	ZHHZ	träumen	gütig	sonnig	küssen	vertrauen	genießen	töten	gierig	sterben	krank	versagen	gemein	1	acq_USunple_CSunple1_RW	acq4567_RW	5	80	400	0	300	300	331	46	0	1	1	blank2r.bmp	0	1	+	0	1	blank2r.bmp	492	1	YFFY	492	1	blank2r.bmp	572	1	töten	866	1	!	-1	1	!	-1	0	0	0	0	0	0	0	0	0	0	0	0	0	0	0	0	0	0	0	0	0	0	0	0	0	0	0	0	0	0
081219	16:41:57	16:53:55	716986	5.0.10.0	5_exp_RW	97	Rpleas_acq	CS_A	DXXD	CPPC	YFFY	JQQJ	LWWL	ZHHZ	träumen	gütig	sonnig	küssen	vertrauen	genießen	töten	gierig	sterben	krank	versagen	gemein	1	acq_USunple_CSunple2_RW	acq4567_RW	6	1	400	1	300	300	393	50	0	0	1	blank2r.bmp	0	1	+	0	1	blank2r.bmp	492	1	JQQJ	492	1	blank2r.bmp	572	1	krank	866	1	!	1239	1	!	1292	0	0	0	0	0	0	0	0	0	0	0	0	0	0	0	0	0	0	0	0	0	0	0	0	0	0	0	0	0	0
081219	16:41:57	16:53:57	719225	5.0.10.0	5_exp_RW	97	Rpleas_acq	CS_A	DXXD	CPPC	YFFY	JQQJ	LWWL	ZHHZ	träumen	gütig	sonnig	küssen	vertrauen	genießen	töten	gierig	sterben	krank	versagen	gemein	1	acq_USunple_CSunple1_RW	acq4567_RW	6	2	400	1	300	300	447	46	0	1	1	blank2r.bmp	0	1	+	0	1	blank2r.bmp	492	1	YFFY	492	1	blank2r.bmp	572	3	sterben	866	1	!	1239	1	!	1346	0	0	0	0	0	0	0	0	0	0	0	0	0	0	0	0	0	0	0	0	0	0	0	0	0	0	0	0	0	0
081219	16:41:57	16:53:59	721384	5.0.10.0	5_exp_RW	97	Rpleas_acq	CS_A	DXXD	CPPC	YFFY	JQQJ	LWWL	ZHHZ	träumen	gütig	sonnig	küssen	vertrauen	genießen	töten	gierig	sterben	krank	versagen	gemein	1	acq_USpleas_CSpleas1_RW	acq4567_RW	6	3	400	1	300	300	346	46	0	0	1	blank2r.bmp	0	1	+	0	1	blank2r.bmp	492	1	DXXD	492	1	blank2r.bmp	572	3	sonnig	866	1	!	1239	1	!	1252	0	0	0	0	0	0	0	0	0	0	0	0	0	0	0	0	0	0	0	0	0	0	0	0	0	0	0	0	0	0
081219	16:41:57	16:54:02	723663	5.0.10.0	5_exp_RW	97	Rpleas_acq	CS_A	DXXD	CPPC	YFFY	JQQJ	LWWL	ZHHZ	träumen	gütig	sonnig	küssen	vertrauen	genießen	töten	gierig	sterben	krank	versagen	gemein	1	acq_USpleas_CSpleas1_RW	acq4567_RW	6	4	400	0	300	300	509	46	0	0	1	blank2r.bmp	0	1	+	0	1	blank2r.bmp	492	1	DXXD	492	1	blank2r.bmp	572	2	gütig	866	1	!	1239	1	!	-1	0	0	0	0	0	0	0	0	0	0	0	0	0	0	0	0	0	0	0	0	0	0	0	0	0	0	0	0	0	0
081219	16:41:57	16:54:04	725929	5.0.10.0	5_exp_RW	97	Rpleas_acq	CS_A	DXXD	CPPC	YFFY	JQQJ	LWWL	ZHHZ	träumen	gütig	sonnig	küssen	vertrauen	genießen	töten	gierig	sterben	krank	versagen	gemein	1	acq_USunple_CSunple1_RW	acq4567_RW	6	5	400	0	300	300	483	46	0	1	1	blank2r.bmp	0	1	+	0	1	blank2r.bmp	492	1	YFFY	492	1	blank2r.bmp	572	3	sterben	866	1	!	1239	1	!	-1	0	0	0	0	0	0	0	0	0	0	0	0	0	0	0	0	0	0	0	0	0	0	0	0	0	0	0	0	0	0
081219	16:41:57	16:54:06	728195	5.0.10.0	5_exp_RW	97	Rpleas_acq	CS_A	DXXD	CPPC	YFFY	JQQJ	LWWL	ZHHZ	träumen	gütig	sonnig	küssen	vertrauen	genießen	töten	gierig	sterben	krank	versagen	gemein	1	acq_USpleas_CSpleas2_RW	acq4567_RW	6	6	400	1	300	300	461	50	0	1	1	blank2r.bmp	0	1	+	0	1	blank2r.bmp	492	1	CPPC	492	1	blank2r.bmp	572	2	vertrauen	866	1	!	1239	1	!	1359	0	0	0	0	0	0	0	0	0	0	0	0	0	0	0	0	0	0	0	0	0	0	0	0	0	0	0	0	0	0
081219	16:41:57	16:54:08	730287	5.0.10.0	5_exp_RW	97	Rpleas_acq	CS_A	DXXD	CPPC	YFFY	JQQJ	LWWL	ZHHZ	träumen	gütig	sonnig	küssen	vertrauen	genießen	töten	gierig	sterben	krank	versagen	gemein	1	acq_USunple_CSunple2_RW	acq4567_RW	6	7	400	0	300	300	308	46	0	1	1	blank2r.bmp	0	1	+	0	1	blank2r.bmp	492	1	JQQJ	492	1	blank2r.bmp	572	1	krank	866	1	!	-1	1	!	-1	0	0	0	0	0	0	0	0	0	0	0	0	0	0	0	0	0	0	0	0	0	0	0	0	0	0	0	0	0	0
081219	16:41:57	16:54:10	732513	5.0.10.0	5_exp_RW	97	Rpleas_acq	CS_A	DXXD	CPPC	YFFY	JQQJ	LWWL	ZHHZ	träumen	gütig	sonnig	küssen	vertrauen	genießen	töten	gierig	sterben	krank	versagen	gemein	1	acq_USunple_CSunple2_RW	acq4567_RW	6	8	400	1	300	300	406	46	0	1	1	blank2r.bmp	0	1	+	0	1	blank2r.bmp	492	1	JQQJ	492	1	blank2r.bmp	572	2	versagen	866	1	!	1239	1	!	1306	0	0	0	0	0	0	0	0	0	0	0	0	0	0	0	0	0	0	0	0	0	0	0	0	0	0	0	0	0	0
081219	16:41:57	16:54:13	734792	5.0.10.0	5_exp_RW	97	Rpleas_acq	CS_A	DXXD	CPPC	YFFY	JQQJ	LWWL	ZHHZ	träumen	gütig	sonnig	küssen	vertrauen	genießen	töten	gierig	sterben	krank	versagen	gemein	1	acq_USpleas_CSpleas1_RW	acq4567_RW	6	9	400	0	300	300	509	50	0	1	1	blank2r.bmp	0	1	+	0	1	blank2r.bmp	492	1	DXXD	492	1	blank2r.bmp	572	3	sonnig	866	1	!	1239	1	!	-1	0	0	0	0	0	0	0	0	0	0	0	0	0	0	0	0	0	0	0	0	0	0	0	0	0	0	0	0	0	0
081219	16:41:57	16:54:15	737058	5.0.10.0	5_exp_RW	97	Rpleas_acq	CS_A	DXXD	CPPC	YFFY	JQQJ	LWWL	ZHHZ	träumen	gütig	sonnig	küssen	vertrauen	genießen	töten	gierig	sterben	krank	versagen	gemein	1	acq_USpleas_CSpleas1_RW	acq4567_RW	6	10	400	1	300	300	464	46	0	0	1	blank2r.bmp	0	1	+	0	1	blank2r.bmp	492	1	DXXD	492	1	blank2r.bmp	572	1	träumen	866	1	!	1239	1	!	1359	0	0	0	0	0	0	0	0	0	0	0	0	0	0	0	0	0	0	0	0	0	0	0	0	0	0	0	0	0	0
081219	16:41:57	16:54:17	739363	5.0.10.0	5_exp_RW	97	Rpleas_acq	CS_A	DXXD	CPPC	YFFY	JQQJ	LWWL	ZHHZ	träumen	gütig	sonnig	küssen	vertrauen	genießen	töten	gierig	sterben	krank	versagen	gemein	1	acq_USpleas_CSpleas2_RW	acq4567_RW	6	11	400	0	300	300	540	50	0	1	1	blank2r.bmp	0	1	+	0	1	blank2r.bmp	492	1	CPPC	492	1	blank2r.bmp	572	2	vertrauen	866	1	!	1239	1	!	-1	0	0	0	0	0	0	0	0	0	0	0	0	0	0	0	0	0	0	0	0	0	0	0	0	0	0	0	0	0	0
081219	16:41:57	16:54:19	741629	5.0.10.0	5_exp_RW	97	Rpleas_acq	CS_A	DXXD	CPPC	YFFY	JQQJ	LWWL	ZHHZ	träumen	gütig	sonnig	küssen	vertrauen	genießen	töten	gierig	sterben	krank	versagen	gemein	1	acq_USunple_CSunple2_RW	acq4567_RW	6	12	400	0	300	300	479	46	0	1	1	blank2r.bmp	0	1	+	0	1	blank2r.bmp	492	1	JQQJ	492	1	blank2r.bmp	572	3	gemein	866	1	!	1239	1	!	-1	0	0	0	0	0	0	0	0	0	0	0	0	0	0	0	0	0	0	0	0	0	0	0	0	0	0	0	0	0	0
081219	16:41:57	16:54:22	744001	5.0.10.0	5_exp_RW	97	Rpleas_acq	CS_A	DXXD	CPPC	YFFY	JQQJ	LWWL	ZHHZ	träumen	gütig	sonnig	küssen	vertrauen	genießen	töten	gierig	sterben	krank	versagen	gemein	1	acq_USpleas_CSpleas2_RW	acq4567_RW	6	13	400	0	300	300	573	50	0	1	1	blank2r.bmp	0	1	+	0	1	blank2r.bmp	492	1	CPPC	492	1	blank2r.bmp	572	3	genießen	866	1	!	1239	1	!	-1	0	0	0	0	0	0	0	0	0	0	0	0	0	0	0	0	0	0	0	0	0	0	0	0	0	0	0	0	0	0
