date	time	script.currenttime	script.elapsedtime	build	script.currentexpt	subject	expressions.LRpleas_acq	expressions.conditionCS_A	expressions.CSpleas_1	expressions.CSpleas_2	expressions.CSunple_1	expressions.CSunple_2	expressions.distractor_1	expressions.distractor_2	expressions.US_pleas1	expressions.US_pleas2	expressions.US_pleas3	expressions.US_pleas4	expressions.US_pleas5	expressions.US_pleas6	expressions.US_unple1	expressions.US_unple2	expressions.US_unple3	expressions.US_unple4	expressions.US_unple5	expressions.US_unple6	counter.positions_noRW	trialcode	blockcode	blocknum	trialnum	windowcenter	inwindow	pretrialpause	posttrialpause	latency	response	expressions.correctedscore	correct	stimulusnumber1	stimulusitem1	stimulusonset1	stimulusnumber2	stimulusitem2	stimulusonset2	stimulusnumber3	stimulusitem3	stimulusonset3	stimulusnumber4	stimulusitem4	stimulusonset4	stimulusnumber5	stimulusitem5	stimulusonset5	stimulusnumber6	stimulusitem6	stimulusonset6	stimulusnumber7	stimulusitem7	stimulusonset7	stimulusnumber8	stimulusitem8	stimulusonset8	stimulusnumber9	stimulusitem9	stimulusonset9	stimulusnumber10	stimulusitem10	stimulusonset10	stimulusnumber11	stimulusitem11	stimulusonset11	stimulusnumber12	stimulusitem12	stimulusonset12	stimulusnumber13	stimulusitem13	stimulusonset13	stimulusnumber14	stimulusitem14	stimulusonset14	stimulusnumber15	stimulusitem15	stimulusonset15	stimulusnumber16	stimulusitem16	stimulusonset16	stimulusnumber17	stimulusitem17	stimulusonset17	stimulusnumber18	stimulusitem18	stimulusonset18
071619	11:43:11	11:44:42	90415	5.0.10.0	5_exp_noRW	54	Rpleas_acq	CS_B	GWWG	YDDY	VKKV	BZZB	JXXJ	MQQM	spielen	treu	schön	fair	ehrlich	retten	strafen	tot	schlecht	faul	eitel	rächen	53pct	acq_USunple_CSpleas1_noRW	acq1_noRW	1	1	0	0	300	300	1127	46	0	1	1	blank2r.bmp	0	1	+	0	1	blank2r.bmp	252	1	GWWG	306	2	tot	559	0	0	0	0	0	0	0	0	0	0	0	0	0	0	0	0	0	0	0	0	0	0	0	0	0	0	0	0	0	0	0	0	0	0	0	0	0	0	0
071619	11:43:11	11:44:44	92414	5.0.10.0	5_exp_noRW	54	Rpleas_acq	CS_B	GWWG	YDDY	VKKV	BZZB	JXXJ	MQQM	spielen	treu	schön	fair	ehrlich	retten	strafen	tot	schlecht	faul	eitel	rächen	47pct	acq_USpleas_CSpleas1_noRW	acq1_noRW	1	2	0	0	300	300	820	50	0	1	1	blank2r.bmp	0	1	+	0	1	blank2r.bmp	252	1	GWWG	306	3	schön	559	0	0	0	0	0	0	0	0	0	0	0	0	0	0	0	0	0	0	0	0	0	0	0	0	0	0	0	0	0	0	0	0	0	0	0	0	0	0	0
071619	11:43:11	11:44:46	94506	5.0.10.0	5_exp_noRW	54	Rpleas_acq	CS_B	GWWG	YDDY	VKKV	BZZB	JXXJ	MQQM	spielen	treu	schön	fair	ehrlich	retten	strafen	tot	schlecht	faul	eitel	rächen	47pct	acq_USunple_CSunple2_noRW	acq1_noRW	1	3	0	0	300	300	911	46	0	1	1	blank2r.bmp	0	1	+	0	1	blank2r.bmp	252	1	BZZB	306	2	eitel	559	0	0	0	0	0	0	0	0	0	0	0	0	0	0	0	0	0	0	0	0	0	0	0	0	0	0	0	0	0	0	0	0	0	0	0	0	0	0	0
071619	11:43:11	11:44:48	96239	5.0.10.0	5_exp_noRW	54	Rpleas_acq	CS_B	GWWG	YDDY	VKKV	BZZB	JXXJ	MQQM	spielen	treu	schön	fair	ehrlich	retten	strafen	tot	schlecht	faul	eitel	rächen	47pct	acq_USunple_CSunple1_noRW	acq1_noRW	1	4	0	0	300	300	550	46	0	1	1	blank2r.bmp	0	1	+	0	1	blank2r.bmp	252	1	VKKV	306	1	strafen	559	0	0	0	0	0	0	0	0	0	0	0	0	0	0	0	0	0	0	0	0	0	0	0	0	0	0	0	0	0	0	0	0	0	0	0	0	0	0	0
071619	11:43:11	11:44:50	98038	5.0.10.0	5_exp_noRW	54	Rpleas_acq	CS_B	GWWG	YDDY	VKKV	BZZB	JXXJ	MQQM	spielen	treu	schön	fair	ehrlich	retten	strafen	tot	schlecht	faul	eitel	rächen	53pct	acq_USpleas_CSpleas2_noRW	acq1_noRW	1	5	0	0	300	300	626	50	0	1	1	blank2r.bmp	0	1	+	0	1	blank2r.bmp	252	1	YDDY	306	3	retten	559	0	0	0	0	0	0	0	0	0	0	0	0	0	0	0	0	0	0	0	0	0	0	0	0	0	0	0	0	0	0	0	0	0	0	0	0	0	0	0
071619	11:43:11	11:44:51	99651	5.0.10.0	5_exp_noRW	54	Rpleas_acq	CS_B	GWWG	YDDY	VKKV	BZZB	JXXJ	MQQM	spielen	treu	schön	fair	ehrlich	retten	strafen	tot	schlecht	faul	eitel	rächen	47pct	acq_USunple_CSunple1_noRW	acq1_noRW	1	6	0	0	300	300	444	46	0	1	1	blank2r.bmp	0	1	+	0	1	blank2r.bmp	252	1	VKKV	306	2	tot	559	0	0	0	0	0	0	0	0	0	0	0	0	0	0	0	0	0	0	0	0	0	0	0	0	0	0	0	0	0	0	0	0	0	0	0	0	0	0	0
071619	11:43:11	11:44:53	101330	5.0.10.0	5_exp_noRW	54	Rpleas_acq	CS_B	GWWG	YDDY	VKKV	BZZB	JXXJ	MQQM	spielen	treu	schön	fair	ehrlich	retten	strafen	tot	schlecht	faul	eitel	rächen	53pct	acq_USunple_CSunple2_noRW	acq1_noRW	1	7	0	0	300	300	499	46	0	1	1	blank2r.bmp	0	1	+	0	1	blank2r.bmp	252	1	BZZB	306	3	rächen	559	0	0	0	0	0	0	0	0	0	0	0	0	0	0	0	0	0	0	0	0	0	0	0	0	0	0	0	0	0	0	0	0	0	0	0	0	0	0	0
071619	11:43:11	11:44:55	102983	5.0.10.0	5_exp_noRW	54	Rpleas_acq	CS_B	GWWG	YDDY	VKKV	BZZB	JXXJ	MQQM	spielen	treu	schön	fair	ehrlich	retten	strafen	tot	schlecht	faul	eitel	rächen	53pct	acq_USpleas_CSpleas1_noRW	acq1_noRW	1	8	0	0	300	300	465	50	0	1	1	blank2r.bmp	0	1	+	0	1	blank2r.bmp	252	1	GWWG	306	2	treu	559	0	0	0	0	0	0	0	0	0	0	0	0	0	0	0	0	0	0	0	0	0	0	0	0	0	0	0	0	0	0	0	0	0	0	0	0	0	0	0
071619	11:43:11	11:44:56	104675	5.0.10.0	5_exp_noRW	54	Rpleas_acq	CS_B	GWWG	YDDY	VKKV	BZZB	JXXJ	MQQM	spielen	treu	schön	fair	ehrlich	retten	strafen	tot	schlecht	faul	eitel	rächen	53pct	acq_USpleas_CSpleas2_noRW	acq1_noRW	1	9	0	0	300	300	523	50	0	1	1	blank2r.bmp	0	1	+	0	1	blank2r.bmp	252	1	YDDY	306	2	ehrlich	559	0	0	0	0	0	0	0	0	0	0	0	0	0	0	0	0	0	0	0	0	0	0	0	0	0	0	0	0	0	0	0	0	0	0	0	0	0	0	0
071619	11:43:11	11:44:58	106275	5.0.10.0	5_exp_noRW	54	Rpleas_acq	CS_B	GWWG	YDDY	VKKV	BZZB	JXXJ	MQQM	spielen	treu	schön	fair	ehrlich	retten	strafen	tot	schlecht	faul	eitel	rächen	53pct	acq_USunple_CSunple2_noRW	acq1_noRW	1	10	0	0	300	300	415	46	0	1	1	blank2r.bmp	0	1	+	0	1	blank2r.bmp	252	1	BZZB	306	1	faul	559	0	0	0	0	0	0	0	0	0	0	0	0	0	0	0	0	0	0	0	0	0	0	0	0	0	0	0	0	0	0	0	0	0	0	0	0	0	0	0
071619	11:43:11	11:44:59	107861	5.0.10.0	5_exp_noRW	54	Rpleas_acq	CS_B	GWWG	YDDY	VKKV	BZZB	JXXJ	MQQM	spielen	treu	schön	fair	ehrlich	retten	strafen	tot	schlecht	faul	eitel	rächen	53pct	acq_USpleas_CSunple1_noRW	acq1_noRW	1	11	0	0	300	300	415	50	0	1	1	blank2r.bmp	0	1	+	0	1	blank2r.bmp	252	1	VKKV	306	1	spielen	559	0	0	0	0	0	0	0	0	0	0	0	0	0	0	0	0	0	0	0	0	0	0	0	0	0	0	0	0	0	0	0	0	0	0	0	0	0	0	0
071619	11:43:11	11:45:01	109607	5.0.10.0	5_exp_noRW	54	Rpleas_acq	CS_B	GWWG	YDDY	VKKV	BZZB	JXXJ	MQQM	spielen	treu	schön	fair	ehrlich	retten	strafen	tot	schlecht	faul	eitel	rächen	47pct	acq_USpleas_CSpleas2_noRW	acq1_noRW	1	12	0	0	300	300	572	50	0	1	1	blank2r.bmp	0	1	+	0	1	blank2r.bmp	252	1	YDDY	306	1	fair	559	0	0	0	0	0	0	0	0	0	0	0	0	0	0	0	0	0	0	0	0	0	0	0	0	0	0	0	0	0	0	0	0	0	0	0	0	0	0	0
071619	11:43:11	11:45:03	111299	5.0.10.0	5_exp_noRW	54	Rpleas_acq	CS_B	GWWG	YDDY	VKKV	BZZB	JXXJ	MQQM	spielen	treu	schön	fair	ehrlich	retten	strafen	tot	schlecht	faul	eitel	rächen	47pct	acq_USunple_CSunple2_noRW	acq1_noRW	1	13	0	0	300	300	511	46	0	1	1	blank2r.bmp	0	1	+	0	1	blank2r.bmp	252	1	BZZB	306	3	rächen	559	0	0	0	0	0	0	0	0	0	0	0	0	0	0	0	0	0	0	0	0	0	0	0	0	0	0	0	0	0	0	0	0	0	0	0	0	0	0	0
071619	11:43:11	11:45:05	112979	5.0.10.0	5_exp_noRW	54	Rpleas_acq	CS_B	GWWG	YDDY	VKKV	BZZB	JXXJ	MQQM	spielen	treu	schön	fair	ehrlich	retten	strafen	tot	schlecht	faul	eitel	rächen	47pct	acq_USpleas_CSpleas1_noRW	acq1_noRW	1	14	0	0	300	300	499	50	0	1	1	blank2r.bmp	0	1	+	0	1	blank2r.bmp	252	1	GWWG	306	1	spielen	559	0	0	0	0	0	0	0	0	0	0	0	0	0	0	0	0	0	0	0	0	0	0	0	0	0	0	0	0	0	0	0	0	0	0	0	0	0	0	0
071619	11:43:11	11:45:06	114565	5.0.10.0	5_exp_noRW	54	Rpleas_acq	CS_B	GWWG	YDDY	VKKV	BZZB	JXXJ	MQQM	spielen	treu	schön	fair	ehrlich	retten	strafen	tot	schlecht	faul	eitel	rächen	53pct	acq_USunple_CSunple1_noRW	acq1_noRW	1	15	0	0	300	300	415	46	0	1	1	blank2r.bmp	0	1	+	0	1	blank2r.bmp	252	1	VKKV	306	3	schlecht	559	0	0	0	0	0	0	0	0	0	0	0	0	0	0	0	0	0	0	0	0	0	0	0	0	0	0	0	0	0	0	0	0	0	0	0	0	0	0	0
071619	11:43:11	11:45:08	116191	5.0.10.0	5_exp_noRW	54	Rpleas_acq	CS_B	GWWG	YDDY	VKKV	BZZB	JXXJ	MQQM	spielen	treu	schön	fair	ehrlich	retten	strafen	tot	schlecht	faul	eitel	rächen	53pct	acq_USpleas_CSpleas1_noRW	acq1_noRW	1	16	0	0	300	300	445	50	0	1	1	blank2r.bmp	0	1	+	0	1	blank2r.bmp	252	1	GWWG	306	3	schön	559	0	0	0	0	0	0	0	0	0	0	0	0	0	0	0	0	0	0	0	0	0	0	0	0	0	0	0	0	0	0	0	0	0	0	0	0	0	0	0
071619	11:43:11	11:45:10	117910	5.0.10.0	5_exp_noRW	54	Rpleas_acq	CS_B	GWWG	YDDY	VKKV	BZZB	JXXJ	MQQM	spielen	treu	schön	fair	ehrlich	retten	strafen	tot	schlecht	faul	eitel	rächen	47pct	acq_USpleas_CSunple2_noRW	acq1_noRW	1	17	0	0	300	300	554	50	0	1	1	blank2r.bmp	0	1	+	0	1	blank2r.bmp	252	1	BZZB	306	1	fair	559	0	0	0	0	0	0	0	0	0	0	0	0	0	0	0	0	0	0	0	0	0	0	0	0	0	0	0	0	0	0	0	0	0	0	0	0	0	0	0
071619	11:43:11	11:45:11	119523	5.0.10.0	5_exp_noRW	54	Rpleas_acq	CS_B	GWWG	YDDY	VKKV	BZZB	JXXJ	MQQM	spielen	treu	schön	fair	ehrlich	retten	strafen	tot	schlecht	faul	eitel	rächen	47pct	acq_USunple_CSpleas2_noRW	acq1_noRW	1	18	0	0	300	300	444	46	0	1	1	blank2r.bmp	0	1	+	0	1	blank2r.bmp	252	1	YDDY	306	1	faul	559	0	0	0	0	0	0	0	0	0	0	0	0	0	0	0	0	0	0	0	0	0	0	0	0	0	0	0	0	0	0	0	0	0	0	0	0	0	0	0
071619	11:43:11	11:45:13	121149	5.0.10.0	5_exp_noRW	54	Rpleas_acq	CS_B	GWWG	YDDY	VKKV	BZZB	JXXJ	MQQM	spielen	treu	schön	fair	ehrlich	retten	strafen	tot	schlecht	faul	eitel	rächen	53pct	acq_USpleas_CSpleas2_noRW	acq1_noRW	1	19	0	0	300	300	441	50	0	1	1	blank2r.bmp	0	1	+	0	1	blank2r.bmp	252	1	YDDY	306	1	fair	559	0	0	0	0	0	0	0	0	0	0	0	0	0	0	0	0	0	0	0	0	0	0	0	0	0	0	0	0	0	0	0	0	0	0	0	0	0	0	0
071619	11:43:11	11:45:14	122668	5.0.10.0	5_exp_noRW	54	Rpleas_acq	CS_B	GWWG	YDDY	VKKV	BZZB	JXXJ	MQQM	spielen	treu	schön	fair	ehrlich	retten	strafen	tot	schlecht	faul	eitel	rächen	47pct	acq_USunple_CSunple1_noRW	acq1_noRW	1	20	0	0	300	300	340	46	0	1	1	blank2r.bmp	0	1	+	0	1	blank2r.bmp	252	1	VKKV	306	3	schlecht	559	0	0	0	0	0	0	0	0	0	0	0	0	0	0	0	0	0	0	0	0	0	0	0	0	0	0	0	0	0	0	0	0	0	0	0	0	0	0	0
071619	11:43:11	11:45:16	124254	5.0.10.0	5_exp_noRW	54	Rpleas_acq	CS_B	GWWG	YDDY	VKKV	BZZB	JXXJ	MQQM	spielen	treu	schön	fair	ehrlich	retten	strafen	tot	schlecht	faul	eitel	rächen	53pct	acq_USpleas_CSpleas2_noRW	acq1_noRW	1	21	0	0	300	300	415	50	0	1	1	blank2r.bmp	0	1	+	0	1	blank2r.bmp	252	1	YDDY	306	3	retten	559	0	0	0	0	0	0	0	0	0	0	0	0	0	0	0	0	0	0	0	0	0	0	0	0	0	0	0	0	0	0	0	0	0	0	0	0	0	0	0
071619	11:43:11	11:45:17	125880	5.0.10.0	5_exp_noRW	54	Rpleas_acq	CS_B	GWWG	YDDY	VKKV	BZZB	JXXJ	MQQM	spielen	treu	schön	fair	ehrlich	retten	strafen	tot	schlecht	faul	eitel	rächen	47pct	acq_USunple_CSpleas1_noRW	acq1_noRW	1	22	0	0	300	300	440	46	0	1	1	blank2r.bmp	0	1	+	0	1	blank2r.bmp	252	1	GWWG	306	3	schlecht	559	0	0	0	0	0	0	0	0	0	0	0	0	0	0	0	0	0	0	0	0	0	0	0	0	0	0	0	0	0	0	0	0	0	0	0	0	0	0	0
071619	11:43:11	11:45:19	127546	5.0.10.0	5_exp_noRW	54	Rpleas_acq	CS_B	GWWG	YDDY	VKKV	BZZB	JXXJ	MQQM	spielen	treu	schön	fair	ehrlich	retten	strafen	tot	schlecht	faul	eitel	rächen	47pct	acq_USpleas_CSpleas1_noRW	acq1_noRW	1	23	0	0	300	300	502	50	0	1	1	blank2r.bmp	0	1	+	0	1	blank2r.bmp	252	1	GWWG	306	1	spielen	559	0	0	0	0	0	0	0	0	0	0	0	0	0	0	0	0	0	0	0	0	0	0	0	0	0	0	0	0	0	0	0	0	0	0	0	0	0	0	0
071619	11:43:11	11:45:21	129225	5.0.10.0	5_exp_noRW	54	Rpleas_acq	CS_B	GWWG	YDDY	VKKV	BZZB	JXXJ	MQQM	spielen	treu	schön	fair	ehrlich	retten	strafen	tot	schlecht	faul	eitel	rächen	53pct	acq_USpleas_CSpleas2_noRW	acq1_noRW	1	24	0	0	300	300	500	50	0	1	1	blank2r.bmp	0	1	+	0	1	blank2r.bmp	252	1	YDDY	306	2	ehrlich	559	0	0	0	0	0	0	0	0	0	0	0	0	0	0	0	0	0	0	0	0	0	0	0	0	0	0	0	0	0	0	0	0	0	0	0	0	0	0	0
071619	11:43:11	11:45:22	130824	5.0.10.0	5_exp_noRW	54	Rpleas_acq	CS_B	GWWG	YDDY	VKKV	BZZB	JXXJ	MQQM	spielen	treu	schön	fair	ehrlich	retten	strafen	tot	schlecht	faul	eitel	rächen	53pct	acq_USpleas_CSpleas2_noRW	acq1_noRW	1	25	0	0	300	300	417	50	0	1	1	blank2r.bmp	0	1	+	0	1	blank2r.bmp	252	1	YDDY	306	2	ehrlich	559	0	0	0	0	0	0	0	0	0	0	0	0	0	0	0	0	0	0	0	0	0	0	0	0	0	0	0	0	0	0	0	0	0	0	0	0	0	0	0
071619	11:43:11	11:45:24	132357	5.0.10.0	5_exp_noRW	54	Rpleas_acq	CS_B	GWWG	YDDY	VKKV	BZZB	JXXJ	MQQM	spielen	treu	schön	fair	ehrlich	retten	strafen	tot	schlecht	faul	eitel	rächen	53pct	acq_USunple_CSunple1_noRW	acq1_noRW	1	26	0	0	300	300	361	46	0	1	1	blank2r.bmp	0	1	+	0	1	blank2r.bmp	252	1	VKKV	306	1	strafen	559	0	0	0	0	0	0	0	0	0	0	0	0	0	0	0	0	0	0	0	0	0	0	0	0	0	0	0	0	0	0	0	0	0	0	0	0	0	0	0
071619	11:43:11	11:45:26	134010	5.0.10.0	5_exp_noRW	54	Rpleas_acq	CS_B	GWWG	YDDY	VKKV	BZZB	JXXJ	MQQM	spielen	treu	schön	fair	ehrlich	retten	strafen	tot	schlecht	faul	eitel	rächen	53pct	acq_USunple_CSunple1_noRW	acq1_noRW	1	27	0	0	300	300	486	46	0	1	1	blank2r.bmp	0	1	+	0	1	blank2r.bmp	252	1	VKKV	306	2	tot	559	0	0	0	0	0	0	0	0	0	0	0	0	0	0	0	0	0	0	0	0	0	0	0	0	0	0	0	0	0	0	0	0	0	0	0	0	0	0	0
071619	11:43:11	11:45:27	135623	5.0.10.0	5_exp_noRW	54	Rpleas_acq	CS_B	GWWG	YDDY	VKKV	BZZB	JXXJ	MQQM	spielen	treu	schön	fair	ehrlich	retten	strafen	tot	schlecht	faul	eitel	rächen	47pct	acq_USpleas_CSpleas1_noRW	acq1_noRW	1	28	0	0	300	300	448	50	0	1	1	blank2r.bmp	0	1	+	0	1	blank2r.bmp	252	1	GWWG	306	2	treu	559	0	0	0	0	0	0	0	0	0	0	0	0	0	0	0	0	0	0	0	0	0	0	0	0	0	0	0	0	0	0	0	0	0	0	0	0	0	0	0
071619	11:43:11	11:45:29	137195	5.0.10.0	5_exp_noRW	54	Rpleas_acq	CS_B	GWWG	YDDY	VKKV	BZZB	JXXJ	MQQM	spielen	treu	schön	fair	ehrlich	retten	strafen	tot	schlecht	faul	eitel	rächen	47pct	acq_USpleas_CSunple1_noRW	acq1_noRW	1	29	0	0	300	300	388	50	0	1	1	blank2r.bmp	0	1	+	0	1	blank2r.bmp	252	1	VKKV	306	2	treu	559	0	0	0	0	0	0	0	0	0	0	0	0	0	0	0	0	0	0	0	0	0	0	0	0	0	0	0	0	0	0	0	0	0	0	0	0	0	0	0
071619	11:43:11	11:45:30	138795	5.0.10.0	5_exp_noRW	54	Rpleas_acq	CS_B	GWWG	YDDY	VKKV	BZZB	JXXJ	MQQM	spielen	treu	schön	fair	ehrlich	retten	strafen	tot	schlecht	faul	eitel	rächen	53pct	acq_USpleas_CSunple2_noRW	acq1_noRW	1	30	0	0	300	300	438	50	0	1	1	blank2r.bmp	0	1	+	0	1	blank2r.bmp	252	1	BZZB	306	2	ehrlich	559	0	0	0	0	0	0	0	0	0	0	0	0	0	0	0	0	0	0	0	0	0	0	0	0	0	0	0	0	0	0	0	0	0	0	0	0	0	0	0
071619	11:43:11	11:45:33	141127	5.0.10.0	5_exp_noRW	54	Rpleas_acq	CS_B	GWWG	YDDY	VKKV	BZZB	JXXJ	MQQM	spielen	treu	schön	fair	ehrlich	retten	strafen	tot	schlecht	faul	eitel	rächen	47pct	acq_USunple_CSunple2_noRW	acq1_noRW	1	31	0	0	300	300	1159	46	0	1	1	blank2r.bmp	0	1	+	0	1	blank2r.bmp	252	1	BZZB	306	1	faul	559	0	0	0	0	0	0	0	0	0	0	0	0	0	0	0	0	0	0	0	0	0	0	0	0	0	0	0	0	0	0	0	0	0	0	0	0	0	0	0
071619	11:43:11	11:45:34	142726	5.0.10.0	5_exp_noRW	54	Rpleas_acq	CS_B	GWWG	YDDY	VKKV	BZZB	JXXJ	MQQM	spielen	treu	schön	fair	ehrlich	retten	strafen	tot	schlecht	faul	eitel	rächen	53pct	acq_USunple_CSunple2_noRW	acq1_noRW	1	32	0	0	300	300	434	46	0	1	1	blank2r.bmp	0	1	+	0	1	blank2r.bmp	252	1	BZZB	306	2	eitel	559	0	0	0	0	0	0	0	0	0	0	0	0	0	0	0	0	0	0	0	0	0	0	0	0	0	0	0	0	0	0	0	0	0	0	0	0	0	0	0
071619	11:43:11	11:45:36	144312	5.0.10.0	5_exp_noRW	54	Rpleas_acq	CS_B	GWWG	YDDY	VKKV	BZZB	JXXJ	MQQM	spielen	treu	schön	fair	ehrlich	retten	strafen	tot	schlecht	faul	eitel	rächen	47pct	acq_USunple_CSunple2_noRW	acq1_noRW	1	33	0	0	300	300	421	46	0	1	1	blank2r.bmp	0	1	+	0	1	blank2r.bmp	252	1	BZZB	306	2	eitel	559	0	0	0	0	0	0	0	0	0	0	0	0	0	0	0	0	0	0	0	0	0	0	0	0	0	0	0	0	0	0	0	0	0	0	0	0	0	0	0
071619	11:43:11	11:45:37	145872	5.0.10.0	5_exp_noRW	54	Rpleas_acq	CS_B	GWWG	YDDY	VKKV	BZZB	JXXJ	MQQM	spielen	treu	schön	fair	ehrlich	retten	strafen	tot	schlecht	faul	eitel	rächen	53pct	acq_USpleas_CSpleas1_noRW	acq1_noRW	1	34	0	0	300	300	374	50	0	1	1	blank2r.bmp	0	1	+	0	1	blank2r.bmp	252	1	GWWG	306	1	spielen	559	0	0	0	0	0	0	0	0	0	0	0	0	0	0	0	0	0	0	0	0	0	0	0	0	0	0	0	0	0	0	0	0	0	0	0	0	0	0	0
071619	11:43:11	11:45:39	147604	5.0.10.0	5_exp_noRW	54	Rpleas_acq	CS_B	GWWG	YDDY	VKKV	BZZB	JXXJ	MQQM	spielen	treu	schön	fair	ehrlich	retten	strafen	tot	schlecht	faul	eitel	rächen	53pct	acq_USpleas_CSpleas1_noRW	acq1_noRW	1	35	0	0	300	300	562	50	0	1	1	blank2r.bmp	0	1	+	0	1	blank2r.bmp	252	1	GWWG	306	2	treu	559	0	0	0	0	0	0	0	0	0	0	0	0	0	0	0	0	0	0	0	0	0	0	0	0	0	0	0	0	0	0	0	0	0	0	0	0	0	0	0
071619	11:43:11	11:45:41	149297	5.0.10.0	5_exp_noRW	54	Rpleas_acq	CS_B	GWWG	YDDY	VKKV	BZZB	JXXJ	MQQM	spielen	treu	schön	fair	ehrlich	retten	strafen	tot	schlecht	faul	eitel	rächen	47pct	acq_USunple_CSunple1_noRW	acq1_noRW	1	36	0	0	300	300	505	46	0	1	1	blank2r.bmp	0	1	+	0	1	blank2r.bmp	252	1	VKKV	306	1	strafen	559	0	0	0	0	0	0	0	0	0	0	0	0	0	0	0	0	0	0	0	0	0	0	0	0	0	0	0	0	0	0	0	0	0	0	0	0	0	0	0
071619	11:43:11	11:45:42	150883	5.0.10.0	5_exp_noRW	54	Rpleas_acq	CS_B	GWWG	YDDY	VKKV	BZZB	JXXJ	MQQM	spielen	treu	schön	fair	ehrlich	retten	strafen	tot	schlecht	faul	eitel	rächen	47pct	acq_USunple_CSunple1_noRW	acq1_noRW	1	37	0	0	300	300	419	46	0	1	1	blank2r.bmp	0	1	+	0	1	blank2r.bmp	252	1	VKKV	306	2	tot	559	0	0	0	0	0	0	0	0	0	0	0	0	0	0	0	0	0	0	0	0	0	0	0	0	0	0	0	0	0	0	0	0	0	0	0	0	0	0	0
071619	11:43:11	11:45:44	152495	5.0.10.0	5_exp_noRW	54	Rpleas_acq	CS_B	GWWG	YDDY	VKKV	BZZB	JXXJ	MQQM	spielen	treu	schön	fair	ehrlich	retten	strafen	tot	schlecht	faul	eitel	rächen	53pct	acq_USunple_CSpleas2_noRW	acq1_noRW	1	38	0	0	300	300	431	46	0	1	1	blank2r.bmp	0	1	+	0	1	blank2r.bmp	252	1	YDDY	306	2	eitel	559	0	0	0	0	0	0	0	0	0	0	0	0	0	0	0	0	0	0	0	0	0	0	0	0	0	0	0	0	0	0	0	0	0	0	0	0	0	0	0
071619	11:43:11	11:45:46	154081	5.0.10.0	5_exp_noRW	54	Rpleas_acq	CS_B	GWWG	YDDY	VKKV	BZZB	JXXJ	MQQM	spielen	treu	schön	fair	ehrlich	retten	strafen	tot	schlecht	faul	eitel	rächen	47pct	acq_USpleas_CSpleas2_noRW	acq1_noRW	1	39	0	0	300	300	423	50	0	1	1	blank2r.bmp	0	1	+	0	1	blank2r.bmp	252	1	YDDY	306	3	retten	559	0	0	0	0	0	0	0	0	0	0	0	0	0	0	0	0	0	0	0	0	0	0	0	0	0	0	0	0	0	0	0	0	0	0	0	0	0	0	0
071619	11:43:11	11:45:47	155681	5.0.10.0	5_exp_noRW	54	Rpleas_acq	CS_B	GWWG	YDDY	VKKV	BZZB	JXXJ	MQQM	spielen	treu	schön	fair	ehrlich	retten	strafen	tot	schlecht	faul	eitel	rächen	53pct	acq_USunple_CSunple2_noRW	acq1_noRW	1	40	0	0	300	300	412	46	0	1	1	blank2r.bmp	0	1	+	0	1	blank2r.bmp	252	1	BZZB	306	1	faul	559	0	0	0	0	0	0	0	0	0	0	0	0	0	0	0	0	0	0	0	0	0	0	0	0	0	0	0	0	0	0	0	0	0	0	0	0	0	0	0
071619	11:43:11	11:45:49	157107	5.0.10.0	5_exp_noRW	54	Rpleas_acq	CS_B	GWWG	YDDY	VKKV	BZZB	JXXJ	MQQM	spielen	treu	schön	fair	ehrlich	retten	strafen	tot	schlecht	faul	eitel	rächen	53pct	acq_USunple_CSunple2_noRW	acq1_noRW	1	41	0	0	300	300	261	46	0	1	1	blank2r.bmp	0	1	+	0	1	blank2r.bmp	252	1	BZZB	306	3	rächen	559	0	0	0	0	0	0	0	0	0	0	0	0	0	0	0	0	0	0	0	0	0	0	0	0	0	0	0	0	0	0	0	0	0	0	0	0	0	0	0
071619	11:43:11	11:45:50	158626	5.0.10.0	5_exp_noRW	54	Rpleas_acq	CS_B	GWWG	YDDY	VKKV	BZZB	JXXJ	MQQM	spielen	treu	schön	fair	ehrlich	retten	strafen	tot	schlecht	faul	eitel	rächen	47pct	acq_USpleas_CSpleas1_noRW	acq1_noRW	1	42	0	0	300	300	339	50	0	1	1	blank2r.bmp	0	1	+	0	1	blank2r.bmp	252	1	GWWG	306	3	schön	559	0	0	0	0	0	0	0	0	0	0	0	0	0	0	0	0	0	0	0	0	0	0	0	0	0	0	0	0	0	0	0	0	0	0	0	0	0	0	0
071619	11:43:11	11:45:52	160146	5.0.10.0	5_exp_noRW	54	Rpleas_acq	CS_B	GWWG	YDDY	VKKV	BZZB	JXXJ	MQQM	spielen	treu	schön	fair	ehrlich	retten	strafen	tot	schlecht	faul	eitel	rächen	47pct	acq_USunple_CSunple2_noRW	acq1_noRW	1	43	0	0	300	300	353	46	0	1	1	blank2r.bmp	0	1	+	0	1	blank2r.bmp	252	1	BZZB	306	3	rächen	559	0	0	0	0	0	0	0	0	0	0	0	0	0	0	0	0	0	0	0	0	0	0	0	0	0	0	0	0	0	0	0	0	0	0	0	0	0	0	0
071619	11:43:11	11:45:53	161598	5.0.10.0	5_exp_noRW	54	Rpleas_acq	CS_B	GWWG	YDDY	VKKV	BZZB	JXXJ	MQQM	spielen	treu	schön	fair	ehrlich	retten	strafen	tot	schlecht	faul	eitel	rächen	47pct	acq_USunple_CSunple1_noRW	acq1_noRW	1	44	0	0	300	300	269	46	0	1	1	blank2r.bmp	0	1	+	0	1	blank2r.bmp	252	1	VKKV	306	3	schlecht	559	0	0	0	0	0	0	0	0	0	0	0	0	0	0	0	0	0	0	0	0	0	0	0	0	0	0	0	0	0	0	0	0	0	0	0	0	0	0	0
071619	11:43:11	11:45:55	163198	5.0.10.0	5_exp_noRW	54	Rpleas_acq	CS_B	GWWG	YDDY	VKKV	BZZB	JXXJ	MQQM	spielen	treu	schön	fair	ehrlich	retten	strafen	tot	schlecht	faul	eitel	rächen	53pct	acq_USpleas_CSpleas2_noRW	acq1_noRW	1	45	0	0	300	300	414	50	0	1	1	blank2r.bmp	0	1	+	0	1	blank2r.bmp	252	1	YDDY	306	1	fair	559	0	0	0	0	0	0	0	0	0	0	0	0	0	0	0	0	0	0	0	0	0	0	0	0	0	0	0	0	0	0	0	0	0	0	0	0	0	0	0
071619	11:43:11	11:45:56	164784	5.0.10.0	5_exp_noRW	54	Rpleas_acq	CS_B	GWWG	YDDY	VKKV	BZZB	JXXJ	MQQM	spielen	treu	schön	fair	ehrlich	retten	strafen	tot	schlecht	faul	eitel	rächen	47pct	acq_USpleas_CSpleas1_noRW	acq1_noRW	1	46	0	0	300	300	412	50	0	1	1	blank2r.bmp	0	1	+	0	1	blank2r.bmp	252	1	GWWG	306	2	treu	559	0	0	0	0	0	0	0	0	0	0	0	0	0	0	0	0	0	0	0	0	0	0	0	0	0	0	0	0	0	0	0	0	0	0	0	0	0	0	0
071619	11:43:11	11:45:58	166263	5.0.10.0	5_exp_noRW	54	Rpleas_acq	CS_B	GWWG	YDDY	VKKV	BZZB	JXXJ	MQQM	spielen	treu	schön	fair	ehrlich	retten	strafen	tot	schlecht	faul	eitel	rächen	47pct	acq_USunple_CSunple1_noRW	acq1_noRW	1	47	0	0	300	300	298	46	0	1	1	blank2r.bmp	0	1	+	0	1	blank2r.bmp	252	1	VKKV	306	1	strafen	559	0	0	0	0	0	0	0	0	0	0	0	0	0	0	0	0	0	0	0	0	0	0	0	0	0	0	0	0	0	0	0	0	0	0	0	0	0	0	0
071619	11:43:11	11:45:59	167769	5.0.10.0	5_exp_noRW	54	Rpleas_acq	CS_B	GWWG	YDDY	VKKV	BZZB	JXXJ	MQQM	spielen	treu	schön	fair	ehrlich	retten	strafen	tot	schlecht	faul	eitel	rächen	47pct	acq_USunple_CSunple2_noRW	acq1_noRW	1	48	0	0	300	300	325	46	0	1	1	blank2r.bmp	0	1	+	0	1	blank2r.bmp	252	1	BZZB	306	1	faul	559	0	0	0	0	0	0	0	0	0	0	0	0	0	0	0	0	0	0	0	0	0	0	0	0	0	0	0	0	0	0	0	0	0	0	0	0	0	0	0
071619	11:43:11	11:46:01	169182	5.0.10.0	5_exp_noRW	54	Rpleas_acq	CS_B	GWWG	YDDY	VKKV	BZZB	JXXJ	MQQM	spielen	treu	schön	fair	ehrlich	retten	strafen	tot	schlecht	faul	eitel	rächen	47pct	acq_USunple_CSunple1_noRW	acq1_noRW	1	49	0	0	300	300	242	46	0	1	1	blank2r.bmp	0	1	+	0	1	blank2r.bmp	252	1	VKKV	306	2	tot	559	0	0	0	0	0	0	0	0	0	0	0	0	0	0	0	0	0	0	0	0	0	0	0	0	0	0	0	0	0	0	0	0	0	0	0	0	0	0	0
071619	11:43:11	11:46:02	170781	5.0.10.0	5_exp_noRW	54	Rpleas_acq	CS_B	GWWG	YDDY	VKKV	BZZB	JXXJ	MQQM	spielen	treu	schön	fair	ehrlich	retten	strafen	tot	schlecht	faul	eitel	rächen	53pct	acq_USpleas_CSpleas1_noRW	acq1_noRW	1	50	0	0	300	300	423	50	0	1	1	blank2r.bmp	0	1	+	0	1	blank2r.bmp	252	1	GWWG	306	1	spielen	559	0	0	0	0	0	0	0	0	0	0	0	0	0	0	0	0	0	0	0	0	0	0	0	0	0	0	0	0	0	0	0	0	0	0	0	0	0	0	0
071619	11:43:11	11:46:04	172407	5.0.10.0	5_exp_noRW	54	Rpleas_acq	CS_B	GWWG	YDDY	VKKV	BZZB	JXXJ	MQQM	spielen	treu	schön	fair	ehrlich	retten	strafen	tot	schlecht	faul	eitel	rächen	47pct	acq_USpleas_CSpleas2_noRW	acq1_noRW	1	51	0	0	300	300	445	50	0	1	1	blank2r.bmp	0	1	+	0	1	blank2r.bmp	252	1	YDDY	306	2	ehrlich	559	0	0	0	0	0	0	0	0	0	0	0	0	0	0	0	0	0	0	0	0	0	0	0	0	0	0	0	0	0	0	0	0	0	0	0	0	0	0	0
071619	11:43:11	11:46:06	173953	5.0.10.0	5_exp_noRW	54	Rpleas_acq	CS_B	GWWG	YDDY	VKKV	BZZB	JXXJ	MQQM	spielen	treu	schön	fair	ehrlich	retten	strafen	tot	schlecht	faul	eitel	rächen	53pct	acq_USpleas_CSpleas2_noRW	acq1_noRW	1	52	0	0	300	300	368	50	0	1	1	blank2r.bmp	0	1	+	0	1	blank2r.bmp	252	1	YDDY	306	1	fair	559	0	0	0	0	0	0	0	0	0	0	0	0	0	0	0	0	0	0	0	0	0	0	0	0	0	0	0	0	0	0	0	0	0	0	0	0	0	0	0
071619	11:43:11	11:46:07	175539	5.0.10.0	5_exp_noRW	54	Rpleas_acq	CS_B	GWWG	YDDY	VKKV	BZZB	JXXJ	MQQM	spielen	treu	schön	fair	ehrlich	retten	strafen	tot	schlecht	faul	eitel	rächen	53pct	acq_USunple_CSunple1_noRW	acq1_noRW	1	53	0	0	300	300	401	46	0	1	1	blank2r.bmp	0	1	+	0	1	blank2r.bmp	252	1	VKKV	306	3	schlecht	559	0	0	0	0	0	0	0	0	0	0	0	0	0	0	0	0	0	0	0	0	0	0	0	0	0	0	0	0	0	0	0	0	0	0	0	0	0	0	0
071619	11:43:11	11:46:09	177538	5.0.10.0	5_exp_noRW	54	Rpleas_acq	CS_B	GWWG	YDDY	VKKV	BZZB	JXXJ	MQQM	spielen	treu	schön	fair	ehrlich	retten	strafen	tot	schlecht	faul	eitel	rächen	47pct	acq_USpleas_CSunple1_noRW	acq1_noRW	1	54	0	0	300	300	837	50	0	1	1	blank2r.bmp	0	1	+	0	1	blank2r.bmp	252	1	VKKV	306	3	schön	559	0	0	0	0	0	0	0	0	0	0	0	0	0	0	0	0	0	0	0	0	0	0	0	0	0	0	0	0	0	0	0	0	0	0	0	0	0	0	0
071619	11:43:11	11:46:11	179004	5.0.10.0	5_exp_noRW	54	Rpleas_acq	CS_B	GWWG	YDDY	VKKV	BZZB	JXXJ	MQQM	spielen	treu	schön	fair	ehrlich	retten	strafen	tot	schlecht	faul	eitel	rächen	47pct	acq_USunple_CSunple2_noRW	acq1_noRW	1	55	0	0	300	300	287	46	0	1	1	blank2r.bmp	0	1	+	0	1	blank2r.bmp	252	1	BZZB	306	2	eitel	559	0	0	0	0	0	0	0	0	0	0	0	0	0	0	0	0	0	0	0	0	0	0	0	0	0	0	0	0	0	0	0	0	0	0	0	0	0	0	0
071619	11:43:11	11:46:12	180550	5.0.10.0	5_exp_noRW	54	Rpleas_acq	CS_B	GWWG	YDDY	VKKV	BZZB	JXXJ	MQQM	spielen	treu	schön	fair	ehrlich	retten	strafen	tot	schlecht	faul	eitel	rächen	53pct	acq_USunple_CSpleas2_noRW	acq1_noRW	1	56	0	0	300	300	366	46	0	1	1	blank2r.bmp	0	1	+	0	1	blank2r.bmp	252	1	YDDY	306	3	rächen	559	0	0	0	0	0	0	0	0	0	0	0	0	0	0	0	0	0	0	0	0	0	0	0	0	0	0	0	0	0	0	0	0	0	0	0	0	0	0	0
071619	11:43:11	11:46:14	182283	5.0.10.0	5_exp_noRW	54	Rpleas_acq	CS_B	GWWG	YDDY	VKKV	BZZB	JXXJ	MQQM	spielen	treu	schön	fair	ehrlich	retten	strafen	tot	schlecht	faul	eitel	rächen	47pct	acq_USpleas_CSunple2_noRW	acq1_noRW	1	57	0	0	300	300	545	50	0	1	1	blank2r.bmp	0	1	+	0	1	blank2r.bmp	252	1	BZZB	306	3	retten	559	0	0	0	0	0	0	0	0	0	0	0	0	0	0	0	0	0	0	0	0	0	0	0	0	0	0	0	0	0	0	0	0	0	0	0	0	0	0	0
071619	11:43:11	11:46:15	183869	5.0.10.0	5_exp_noRW	54	Rpleas_acq	CS_B	GWWG	YDDY	VKKV	BZZB	JXXJ	MQQM	spielen	treu	schön	fair	ehrlich	retten	strafen	tot	schlecht	faul	eitel	rächen	53pct	acq_USpleas_CSpleas2_noRW	acq1_noRW	1	58	0	0	300	300	418	50	0	1	1	blank2r.bmp	0	1	+	0	1	blank2r.bmp	252	1	YDDY	306	3	retten	559	0	0	0	0	0	0	0	0	0	0	0	0	0	0	0	0	0	0	0	0	0	0	0	0	0	0	0	0	0	0	0	0	0	0	0	0	0	0	0
071619	11:43:11	11:46:17	185468	5.0.10.0	5_exp_noRW	54	Rpleas_acq	CS_B	GWWG	YDDY	VKKV	BZZB	JXXJ	MQQM	spielen	treu	schön	fair	ehrlich	retten	strafen	tot	schlecht	faul	eitel	rächen	47pct	acq_USunple_CSpleas1_noRW	acq1_noRW	1	59	0	0	300	300	434	46	0	1	1	blank2r.bmp	0	1	+	0	1	blank2r.bmp	252	1	GWWG	306	1	strafen	559	0	0	0	0	0	0	0	0	0	0	0	0	0	0	0	0	0	0	0	0	0	0	0	0	0	0	0	0	0	0	0	0	0	0	0	0	0	0	0
071619	11:43:11	11:46:19	187041	5.0.10.0	5_exp_noRW	54	Rpleas_acq	CS_B	GWWG	YDDY	VKKV	BZZB	JXXJ	MQQM	spielen	treu	schön	fair	ehrlich	retten	strafen	tot	schlecht	faul	eitel	rächen	53pct	acq_USpleas_CSpleas1_noRW	acq1_noRW	1	60	0	0	300	300	396	50	0	1	1	blank2r.bmp	0	1	+	0	1	blank2r.bmp	252	1	GWWG	306	3	schön	559	0	0	0	0	0	0	0	0	0	0	0	0	0	0	0	0	0	0	0	0	0	0	0	0	0	0	0	0	0	0	0	0	0	0	0	0	0	0	0
071619	11:43:11	11:46:20	188520	5.0.10.0	5_exp_noRW	54	Rpleas_acq	CS_B	GWWG	YDDY	VKKV	BZZB	JXXJ	MQQM	spielen	treu	schön	fair	ehrlich	retten	strafen	tot	schlecht	faul	eitel	rächen	47pct	acq_USpleas_CSpleas1_noRW	acq1_noRW	1	61	0	0	300	300	303	50	0	1	1	blank2r.bmp	0	1	+	0	1	blank2r.bmp	252	1	GWWG	306	1	spielen	559	0	0	0	0	0	0	0	0	0	0	0	0	0	0	0	0	0	0	0	0	0	0	0	0	0	0	0	0	0	0	0	0	0	0	0	0	0	0	0
071619	11:43:11	11:46:22	190253	5.0.10.0	5_exp_noRW	54	Rpleas_acq	CS_B	GWWG	YDDY	VKKV	BZZB	JXXJ	MQQM	spielen	treu	schön	fair	ehrlich	retten	strafen	tot	schlecht	faul	eitel	rächen	47pct	acq_USpleas_CSpleas1_noRW	acq1_noRW	1	62	0	0	300	300	342	46	0	0	1	blank2r.bmp	0	1	+	0	1	blank2r.bmp	252	1	GWWG	306	2	treu	559	1	FEHLER	932	0	0	0	0	0	0	0	0	0	0	0	0	0	0	0	0	0	0	0	0	0	0	0	0	0	0	0	0	0	0	0	0	0	0	0	0
071619	11:43:11	11:46:23	191706	5.0.10.0	5_exp_noRW	54	Rpleas_acq	CS_B	GWWG	YDDY	VKKV	BZZB	JXXJ	MQQM	spielen	treu	schön	fair	ehrlich	retten	strafen	tot	schlecht	faul	eitel	rächen	47pct	acq_USpleas_CSpleas1_noRW	acq1_noRW	1	63	0	0	300	300	483	50	0	1	1	blank2r.bmp	0	1	+	0	1	blank2r.bmp	252	1	GWWG	306	3	schön	559	0	0	0	0	0	0	0	0	0	0	0	0	0	0	0	0	0	0	0	0	0	0	0	0	0	0	0	0	0	0	0	0	0	0	0	0	0	0	0
071619	11:43:11	11:46:25	193318	5.0.10.0	5_exp_noRW	54	Rpleas_acq	CS_B	GWWG	YDDY	VKKV	BZZB	JXXJ	MQQM	spielen	treu	schön	fair	ehrlich	retten	strafen	tot	schlecht	faul	eitel	rächen	53pct	acq_USunple_CSunple1_noRW	acq1_noRW	1	64	0	0	300	300	433	46	0	1	1	blank2r.bmp	0	1	+	0	1	blank2r.bmp	252	1	VKKV	306	1	strafen	559	0	0	0	0	0	0	0	0	0	0	0	0	0	0	0	0	0	0	0	0	0	0	0	0	0	0	0	0	0	0	0	0	0	0	0	0	0	0	0
071619	11:43:11	11:46:26	194864	5.0.10.0	5_exp_noRW	54	Rpleas_acq	CS_B	GWWG	YDDY	VKKV	BZZB	JXXJ	MQQM	spielen	treu	schön	fair	ehrlich	retten	strafen	tot	schlecht	faul	eitel	rächen	47pct	acq_USunple_CSunple1_noRW	acq1_noRW	1	65	0	0	300	300	379	46	0	1	1	blank2r.bmp	0	1	+	0	1	blank2r.bmp	252	1	VKKV	306	3	schlecht	559	0	0	0	0	0	0	0	0	0	0	0	0	0	0	0	0	0	0	0	0	0	0	0	0	0	0	0	0	0	0	0	0	0	0	0	0	0	0	0
071619	11:43:11	11:46:28	196504	5.0.10.0	5_exp_noRW	54	Rpleas_acq	CS_B	GWWG	YDDY	VKKV	BZZB	JXXJ	MQQM	spielen	treu	schön	fair	ehrlich	retten	strafen	tot	schlecht	faul	eitel	rächen	47pct	acq_USunple_CSunple2_noRW	acq1_noRW	1	66	0	0	300	300	478	46	0	1	1	blank2r.bmp	0	1	+	0	1	blank2r.bmp	252	1	BZZB	306	2	eitel	559	0	0	0	0	0	0	0	0	0	0	0	0	0	0	0	0	0	0	0	0	0	0	0	0	0	0	0	0	0	0	0	0	0	0	0	0	0	0	0
071619	11:43:11	11:46:30	198183	5.0.10.0	5_exp_noRW	54	Rpleas_acq	CS_B	GWWG	YDDY	VKKV	BZZB	JXXJ	MQQM	spielen	treu	schön	fair	ehrlich	retten	strafen	tot	schlecht	faul	eitel	rächen	47pct	acq_USpleas_CSpleas2_noRW	acq1_noRW	1	67	0	0	300	300	503	50	0	1	1	blank2r.bmp	0	1	+	0	1	blank2r.bmp	252	1	YDDY	306	1	fair	559	0	0	0	0	0	0	0	0	0	0	0	0	0	0	0	0	0	0	0	0	0	0	0	0	0	0	0	0	0	0	0	0	0	0	0	0	0	0	0
071619	11:43:11	11:46:31	199809	5.0.10.0	5_exp_noRW	54	Rpleas_acq	CS_B	GWWG	YDDY	VKKV	BZZB	JXXJ	MQQM	spielen	treu	schön	fair	ehrlich	retten	strafen	tot	schlecht	faul	eitel	rächen	47pct	acq_USunple_CSunple2_noRW	acq1_noRW	1	68	0	0	300	300	447	46	0	1	1	blank2r.bmp	0	1	+	0	1	blank2r.bmp	252	1	BZZB	306	1	faul	559	0	0	0	0	0	0	0	0	0	0	0	0	0	0	0	0	0	0	0	0	0	0	0	0	0	0	0	0	0	0	0	0	0	0	0	0	0	0	0
071619	11:43:11	11:46:33	201422	5.0.10.0	5_exp_noRW	54	Rpleas_acq	CS_B	GWWG	YDDY	VKKV	BZZB	JXXJ	MQQM	spielen	treu	schön	fair	ehrlich	retten	strafen	tot	schlecht	faul	eitel	rächen	53pct	acq_USpleas_CSpleas2_noRW	acq1_noRW	1	69	0	0	300	300	440	50	0	1	1	blank2r.bmp	0	1	+	0	1	blank2r.bmp	252	1	YDDY	306	2	ehrlich	559	0	0	0	0	0	0	0	0	0	0	0	0	0	0	0	0	0	0	0	0	0	0	0	0	0	0	0	0	0	0	0	0	0	0	0	0	0	0	0
071619	11:43:11	11:46:35	203367	5.0.10.0	5_exp_noRW	54	Rpleas_acq	CS_B	GWWG	YDDY	VKKV	BZZB	JXXJ	MQQM	spielen	treu	schön	fair	ehrlich	retten	strafen	tot	schlecht	faul	eitel	rächen	47pct	acq_USpleas_CSunple2_noRW	acq1_noRW	1	70	0	0	300	300	776	50	0	1	1	blank2r.bmp	0	1	+	0	1	blank2r.bmp	252	1	BZZB	306	1	fair	559	0	0	0	0	0	0	0	0	0	0	0	0	0	0	0	0	0	0	0	0	0	0	0	0	0	0	0	0	0	0	0	0	0	0	0	0	0	0	0
071619	11:43:11	11:46:37	204954	5.0.10.0	5_exp_noRW	54	Rpleas_acq	CS_B	GWWG	YDDY	VKKV	BZZB	JXXJ	MQQM	spielen	treu	schön	fair	ehrlich	retten	strafen	tot	schlecht	faul	eitel	rächen	53pct	acq_USunple_CSpleas2_noRW	acq1_noRW	1	71	0	0	300	300	420	46	0	1	1	blank2r.bmp	0	1	+	0	1	blank2r.bmp	252	1	YDDY	306	3	rächen	559	0	0	0	0	0	0	0	0	0	0	0	0	0	0	0	0	0	0	0	0	0	0	0	0	0	0	0	0	0	0	0	0	0	0	0	0	0	0	0
071619	11:43:11	11:46:38	206553	5.0.10.0	5_exp_noRW	54	Rpleas_acq	CS_B	GWWG	YDDY	VKKV	BZZB	JXXJ	MQQM	spielen	treu	schön	fair	ehrlich	retten	strafen	tot	schlecht	faul	eitel	rächen	47pct	acq_USpleas_CSpleas2_noRW	acq1_noRW	1	72	0	0	300	300	423	50	0	1	1	blank2r.bmp	0	1	+	0	1	blank2r.bmp	252	1	YDDY	306	3	retten	559	0	0	0	0	0	0	0	0	0	0	0	0	0	0	0	0	0	0	0	0	0	0	0	0	0	0	0	0	0	0	0	0	0	0	0	0	0	0	0
071619	11:43:11	11:46:40	208126	5.0.10.0	5_exp_noRW	54	Rpleas_acq	CS_B	GWWG	YDDY	VKKV	BZZB	JXXJ	MQQM	spielen	treu	schön	fair	ehrlich	retten	strafen	tot	schlecht	faul	eitel	rächen	53pct	acq_USunple_CSunple1_noRW	acq1_noRW	1	73	0	0	300	300	396	46	0	1	1	blank2r.bmp	0	1	+	0	1	blank2r.bmp	252	1	VKKV	306	2	tot	559	0	0	0	0	0	0	0	0	0	0	0	0	0	0	0	0	0	0	0	0	0	0	0	0	0	0	0	0	0	0	0	0	0	0	0	0	0	0	0
071619	11:43:11	11:46:41	209712	5.0.10.0	5_exp_noRW	54	Rpleas_acq	CS_B	GWWG	YDDY	VKKV	BZZB	JXXJ	MQQM	spielen	treu	schön	fair	ehrlich	retten	strafen	tot	schlecht	faul	eitel	rächen	53pct	acq_USpleas_CSpleas2_noRW	acq1_noRW	1	74	0	0	300	300	410	50	0	1	1	blank2r.bmp	0	1	+	0	1	blank2r.bmp	252	1	YDDY	306	2	ehrlich	559	0	0	0	0	0	0	0	0	0	0	0	0	0	0	0	0	0	0	0	0	0	0	0	0	0	0	0	0	0	0	0	0	0	0	0	0	0	0	0
071619	11:43:11	11:46:43	211297	5.0.10.0	5_exp_noRW	54	Rpleas_acq	CS_B	GWWG	YDDY	VKKV	BZZB	JXXJ	MQQM	spielen	treu	schön	fair	ehrlich	retten	strafen	tot	schlecht	faul	eitel	rächen	47pct	acq_USpleas_CSunple1_noRW	acq1_noRW	1	75	0	0	300	300	404	50	0	1	1	blank2r.bmp	0	1	+	0	1	blank2r.bmp	252	1	VKKV	306	2	treu	559	0	0	0	0	0	0	0	0	0	0	0	0	0	0	0	0	0	0	0	0	0	0	0	0	0	0	0	0	0	0	0	0	0	0	0	0	0	0	0
071619	11:43:11	11:46:44	212870	5.0.10.0	5_exp_noRW	54	Rpleas_acq	CS_B	GWWG	YDDY	VKKV	BZZB	JXXJ	MQQM	spielen	treu	schön	fair	ehrlich	retten	strafen	tot	schlecht	faul	eitel	rächen	53pct	acq_USunple_CSunple2_noRW	acq1_noRW	1	76	0	0	300	300	385	46	0	1	1	blank2r.bmp	0	1	+	0	1	blank2r.bmp	252	1	BZZB	306	3	rächen	559	0	0	0	0	0	0	0	0	0	0	0	0	0	0	0	0	0	0	0	0	0	0	0	0	0	0	0	0	0	0	0	0	0	0	0	0	0	0	0
071619	11:43:11	11:46:46	214376	5.0.10.0	5_exp_noRW	54	Rpleas_acq	CS_B	GWWG	YDDY	VKKV	BZZB	JXXJ	MQQM	spielen	treu	schön	fair	ehrlich	retten	strafen	tot	schlecht	faul	eitel	rächen	53pct	acq_USunple_CSunple2_noRW	acq1_noRW	1	77	0	0	300	300	337	46	0	1	1	blank2r.bmp	0	1	+	0	1	blank2r.bmp	252	1	BZZB	306	3	rächen	559	0	0	0	0	0	0	0	0	0	0	0	0	0	0	0	0	0	0	0	0	0	0	0	0	0	0	0	0	0	0	0	0	0	0	0	0	0	0	0
071619	11:43:11	11:46:48	216016	5.0.10.0	5_exp_noRW	54	Rpleas_acq	CS_B	GWWG	YDDY	VKKV	BZZB	JXXJ	MQQM	spielen	treu	schön	fair	ehrlich	retten	strafen	tot	schlecht	faul	eitel	rächen	53pct	acq_USunple_CSpleas1_noRW	acq1_noRW	1	78	0	0	300	300	475	46	0	1	1	blank2r.bmp	0	1	+	0	1	blank2r.bmp	252	1	GWWG	306	1	strafen	559	0	0	0	0	0	0	0	0	0	0	0	0	0	0	0	0	0	0	0	0	0	0	0	0	0	0	0	0	0	0	0	0	0	0	0	0	0	0	0
071619	11:43:11	11:46:49	217588	5.0.10.0	5_exp_noRW	54	Rpleas_acq	CS_B	GWWG	YDDY	VKKV	BZZB	JXXJ	MQQM	spielen	treu	schön	fair	ehrlich	retten	strafen	tot	schlecht	faul	eitel	rächen	47pct	acq_USunple_CSunple1_noRW	acq1_noRW	1	79	0	0	300	300	403	46	0	1	1	blank2r.bmp	0	1	+	0	1	blank2r.bmp	252	1	VKKV	306	1	strafen	559	0	0	0	0	0	0	0	0	0	0	0	0	0	0	0	0	0	0	0	0	0	0	0	0	0	0	0	0	0	0	0	0	0	0	0	0	0	0	0
071619	11:43:11	11:46:51	219174	5.0.10.0	5_exp_noRW	54	Rpleas_acq	CS_B	GWWG	YDDY	VKKV	BZZB	JXXJ	MQQM	spielen	treu	schön	fair	ehrlich	retten	strafen	tot	schlecht	faul	eitel	rächen	47pct	acq_USpleas_CSpleas1_noRW	acq1_noRW	1	80	0	0	300	300	399	50	0	1	1	blank2r.bmp	0	1	+	0	1	blank2r.bmp	252	1	GWWG	306	3	schön	559	0	0	0	0	0	0	0	0	0	0	0	0	0	0	0	0	0	0	0	0	0	0	0	0	0	0	0	0	0	0	0	0	0	0	0	0	0	0	0
071619	11:43:11	11:46:59	227038	5.0.10.0	5_exp_noRW	54	Rpleas_acq	CS_B	GWWG	YDDY	VKKV	BZZB	JXXJ	MQQM	spielen	treu	schön	fair	ehrlich	retten	strafen	tot	schlecht	faul	eitel	rächen	47pct	acq_USpleas_CSpleas2_noRW	acq23456_noRW	2	1	0	0	300	300	1180	50	0	1	1	blank2r.bmp	0	1	+	0	1	blank2r.bmp	252	1	YDDY	306	1	fair	559	0	0	0	0	0	0	0	0	0	0	0	0	0	0	0	0	0	0	0	0	0	0	0	0	0	0	0	0	0	0	0	0	0	0	0	0	0	0	0
071619	11:43:11	11:47:00	228624	5.0.10.0	5_exp_noRW	54	Rpleas_acq	CS_B	GWWG	YDDY	VKKV	BZZB	JXXJ	MQQM	spielen	treu	schön	fair	ehrlich	retten	strafen	tot	schlecht	faul	eitel	rächen	47pct	acq_USunple_CSunple2_noRW	acq23456_noRW	2	2	0	0	300	300	409	46	0	1	1	blank2r.bmp	0	1	+	0	1	blank2r.bmp	252	1	BZZB	306	1	faul	559	0	0	0	0	0	0	0	0	0	0	0	0	0	0	0	0	0	0	0	0	0	0	0	0	0	0	0	0	0	0	0	0	0	0	0	0	0	0	0
071619	11:43:11	11:47:02	230196	5.0.10.0	5_exp_noRW	54	Rpleas_acq	CS_B	GWWG	YDDY	VKKV	BZZB	JXXJ	MQQM	spielen	treu	schön	fair	ehrlich	retten	strafen	tot	schlecht	faul	eitel	rächen	47pct	acq_USunple_CSunple1_noRW	acq23456_noRW	2	3	0	0	300	300	385	46	0	1	1	blank2r.bmp	0	1	+	0	1	blank2r.bmp	252	1	VKKV	306	3	schlecht	559	0	0	0	0	0	0	0	0	0	0	0	0	0	0	0	0	0	0	0	0	0	0	0	0	0	0	0	0	0	0	0	0	0	0	0	0	0	0	0
071619	11:43:11	11:47:03	231889	5.0.10.0	5_exp_noRW	54	Rpleas_acq	CS_B	GWWG	YDDY	VKKV	BZZB	JXXJ	MQQM	spielen	treu	schön	fair	ehrlich	retten	strafen	tot	schlecht	faul	eitel	rächen	53pct	acq_USpleas_CSpleas2_noRW	acq23456_noRW	2	4	0	0	300	300	526	50	0	1	1	blank2r.bmp	0	1	+	0	1	blank2r.bmp	252	1	YDDY	306	3	retten	559	0	0	0	0	0	0	0	0	0	0	0	0	0	0	0	0	0	0	0	0	0	0	0	0	0	0	0	0	0	0	0	0	0	0	0	0	0	0	0
071619	11:43:11	11:47:05	233555	5.0.10.0	5_exp_noRW	54	Rpleas_acq	CS_B	GWWG	YDDY	VKKV	BZZB	JXXJ	MQQM	spielen	treu	schön	fair	ehrlich	retten	strafen	tot	schlecht	faul	eitel	rächen	53pct	acq_USpleas_CSunple2_noRW	acq23456_noRW	2	5	0	0	300	300	481	50	0	1	1	blank2r.bmp	0	1	+	0	1	blank2r.bmp	252	1	BZZB	306	2	ehrlich	559	0	0	0	0	0	0	0	0	0	0	0	0	0	0	0	0	0	0	0	0	0	0	0	0	0	0	0	0	0	0	0	0	0	0	0	0	0	0	0
071619	11:43:11	11:47:07	235341	5.0.10.0	5_exp_noRW	54	Rpleas_acq	CS_B	GWWG	YDDY	VKKV	BZZB	JXXJ	MQQM	spielen	treu	schön	fair	ehrlich	retten	strafen	tot	schlecht	faul	eitel	rächen	47pct	acq_USunple_CSunple2_noRW	acq23456_noRW	2	6	0	0	300	300	618	46	0	1	1	blank2r.bmp	0	1	+	0	1	blank2r.bmp	252	1	BZZB	306	2	eitel	559	0	0	0	0	0	0	0	0	0	0	0	0	0	0	0	0	0	0	0	0	0	0	0	0	0	0	0	0	0	0	0	0	0	0	0	0	0	0	0
071619	11:43:11	11:47:09	237367	5.0.10.0	5_exp_noRW	54	Rpleas_acq	CS_B	GWWG	YDDY	VKKV	BZZB	JXXJ	MQQM	spielen	treu	schön	fair	ehrlich	retten	strafen	tot	schlecht	faul	eitel	rächen	53pct	acq_USunple_CSunple2_noRW	acq23456_noRW	2	7	0	0	300	300	844	46	0	1	1	blank2r.bmp	0	1	+	0	1	blank2r.bmp	252	1	BZZB	306	1	faul	559	0	0	0	0	0	0	0	0	0	0	0	0	0	0	0	0	0	0	0	0	0	0	0	0	0	0	0	0	0	0	0	0	0	0	0	0	0	0	0
071619	11:43:11	11:47:11	238939	5.0.10.0	5_exp_noRW	54	Rpleas_acq	CS_B	GWWG	YDDY	VKKV	BZZB	JXXJ	MQQM	spielen	treu	schön	fair	ehrlich	retten	strafen	tot	schlecht	faul	eitel	rächen	47pct	acq_USpleas_CSpleas2_noRW	acq23456_noRW	2	8	0	0	300	300	397	50	0	1	1	blank2r.bmp	0	1	+	0	1	blank2r.bmp	252	1	YDDY	306	3	retten	559	0	0	0	0	0	0	0	0	0	0	0	0	0	0	0	0	0	0	0	0	0	0	0	0	0	0	0	0	0	0	0	0	0	0	0	0	0	0	0
071619	11:43:11	11:47:12	240592	5.0.10.0	5_exp_noRW	54	Rpleas_acq	CS_B	GWWG	YDDY	VKKV	BZZB	JXXJ	MQQM	spielen	treu	schön	fair	ehrlich	retten	strafen	tot	schlecht	faul	eitel	rächen	47pct	acq_USpleas_CSpleas1_noRW	acq23456_noRW	2	9	0	0	300	300	472	50	0	1	1	blank2r.bmp	0	1	+	0	1	blank2r.bmp	252	1	GWWG	306	2	treu	559	0	0	0	0	0	0	0	0	0	0	0	0	0	0	0	0	0	0	0	0	0	0	0	0	0	0	0	0	0	0	0	0	0	0	0	0	0	0	0
071619	11:43:11	11:47:14	242218	5.0.10.0	5_exp_noRW	54	Rpleas_acq	CS_B	GWWG	YDDY	VKKV	BZZB	JXXJ	MQQM	spielen	treu	schön	fair	ehrlich	retten	strafen	tot	schlecht	faul	eitel	rächen	53pct	acq_USunple_CSunple1_noRW	acq23456_noRW	2	10	0	0	300	300	446	46	0	1	1	blank2r.bmp	0	1	+	0	1	blank2r.bmp	252	1	VKKV	306	2	tot	559	0	0	0	0	0	0	0	0	0	0	0	0	0	0	0	0	0	0	0	0	0	0	0	0	0	0	0	0	0	0	0	0	0	0	0	0	0	0	0
071619	11:43:11	11:47:16	243911	5.0.10.0	5_exp_noRW	54	Rpleas_acq	CS_B	GWWG	YDDY	VKKV	BZZB	JXXJ	MQQM	spielen	treu	schön	fair	ehrlich	retten	strafen	tot	schlecht	faul	eitel	rächen	47pct	acq_USunple_CSpleas2_noRW	acq23456_noRW	2	11	0	0	300	300	507	46	0	1	1	blank2r.bmp	0	1	+	0	1	blank2r.bmp	252	1	YDDY	306	2	eitel	559	0	0	0	0	0	0	0	0	0	0	0	0	0	0	0	0	0	0	0	0	0	0	0	0	0	0	0	0	0	0	0	0	0	0	0	0	0	0	0
071619	11:43:11	11:47:17	245537	5.0.10.0	5_exp_noRW	54	Rpleas_acq	CS_B	GWWG	YDDY	VKKV	BZZB	JXXJ	MQQM	spielen	treu	schön	fair	ehrlich	retten	strafen	tot	schlecht	faul	eitel	rächen	53pct	acq_USpleas_CSpleas1_noRW	acq23456_noRW	2	12	0	0	300	300	462	50	0	1	1	blank2r.bmp	0	1	+	0	1	blank2r.bmp	252	1	GWWG	306	1	spielen	559	0	0	0	0	0	0	0	0	0	0	0	0	0	0	0	0	0	0	0	0	0	0	0	0	0	0	0	0	0	0	0	0	0	0	0	0	0	0	0
071619	11:43:11	11:47:19	247123	5.0.10.0	5_exp_noRW	54	Rpleas_acq	CS_B	GWWG	YDDY	VKKV	BZZB	JXXJ	MQQM	spielen	treu	schön	fair	ehrlich	retten	strafen	tot	schlecht	faul	eitel	rächen	47pct	acq_USunple_CSpleas1_noRW	acq23456_noRW	2	13	0	0	300	300	407	46	0	1	1	blank2r.bmp	0	1	+	0	1	blank2r.bmp	252	1	GWWG	306	3	schlecht	559	0	0	0	0	0	0	0	0	0	0	0	0	0	0	0	0	0	0	0	0	0	0	0	0	0	0	0	0	0	0	0	0	0	0	0	0	0	0	0
071619	11:43:11	11:47:20	248775	5.0.10.0	5_exp_noRW	54	Rpleas_acq	CS_B	GWWG	YDDY	VKKV	BZZB	JXXJ	MQQM	spielen	treu	schön	fair	ehrlich	retten	strafen	tot	schlecht	faul	eitel	rächen	53pct	acq_USunple_CSunple1_noRW	acq23456_noRW	2	14	0	0	300	300	485	46	0	1	1	blank2r.bmp	0	1	+	0	1	blank2r.bmp	252	1	VKKV	306	3	schlecht	559	0	0	0	0	0	0	0	0	0	0	0	0	0	0	0	0	0	0	0	0	0	0	0	0	0	0	0	0	0	0	0	0	0	0	0	0	0	0	0
071619	11:43:11	11:47:22	250468	5.0.10.0	5_exp_noRW	54	Rpleas_acq	CS_B	GWWG	YDDY	VKKV	BZZB	JXXJ	MQQM	spielen	treu	schön	fair	ehrlich	retten	strafen	tot	schlecht	faul	eitel	rächen	47pct	acq_USpleas_CSunple1_noRW	acq23456_noRW	2	15	0	0	300	300	529	50	0	1	1	blank2r.bmp	0	1	+	0	1	blank2r.bmp	252	1	VKKV	306	3	schön	559	0	0	0	0	0	0	0	0	0	0	0	0	0	0	0	0	0	0	0	0	0	0	0	0	0	0	0	0	0	0	0	0	0	0	0	0	0	0	0
071619	11:43:11	11:47:24	252147	5.0.10.0	5_exp_noRW	54	Rpleas_acq	CS_B	GWWG	YDDY	VKKV	BZZB	JXXJ	MQQM	spielen	treu	schön	fair	ehrlich	retten	strafen	tot	schlecht	faul	eitel	rächen	53pct	acq_USpleas_CSpleas2_noRW	acq23456_noRW	2	16	0	0	300	300	492	50	0	1	1	blank2r.bmp	0	1	+	0	1	blank2r.bmp	252	1	YDDY	306	1	fair	559	0	0	0	0	0	0	0	0	0	0	0	0	0	0	0	0	0	0	0	0	0	0	0	0	0	0	0	0	0	0	0	0	0	0	0	0	0	0	0
071619	11:43:11	11:47:25	253800	5.0.10.0	5_exp_noRW	54	Rpleas_acq	CS_B	GWWG	YDDY	VKKV	BZZB	JXXJ	MQQM	spielen	treu	schön	fair	ehrlich	retten	strafen	tot	schlecht	faul	eitel	rächen	53pct	acq_USpleas_CSpleas1_noRW	acq23456_noRW	2	17	0	0	300	300	487	50	0	1	1	blank2r.bmp	0	1	+	0	1	blank2r.bmp	252	1	GWWG	306	1	spielen	559	0	0	0	0	0	0	0	0	0	0	0	0	0	0	0	0	0	0	0	0	0	0	0	0	0	0	0	0	0	0	0	0	0	0	0	0	0	0	0
071619	11:43:11	11:47:27	255452	5.0.10.0	5_exp_noRW	54	Rpleas_acq	CS_B	GWWG	YDDY	VKKV	BZZB	JXXJ	MQQM	spielen	treu	schön	fair	ehrlich	retten	strafen	tot	schlecht	faul	eitel	rächen	47pct	acq_USunple_CSunple2_noRW	acq23456_noRW	2	18	0	0	300	300	479	46	0	1	1	blank2r.bmp	0	1	+	0	1	blank2r.bmp	252	1	BZZB	306	2	eitel	559	0	0	0	0	0	0	0	0	0	0	0	0	0	0	0	0	0	0	0	0	0	0	0	0	0	0	0	0	0	0	0	0	0	0	0	0	0	0	0
071619	11:43:11	11:47:29	257198	5.0.10.0	5_exp_noRW	54	Rpleas_acq	CS_B	GWWG	YDDY	VKKV	BZZB	JXXJ	MQQM	spielen	treu	schön	fair	ehrlich	retten	strafen	tot	schlecht	faul	eitel	rächen	47pct	acq_USpleas_CSpleas1_noRW	acq23456_noRW	2	19	0	0	300	300	576	50	0	1	1	blank2r.bmp	0	1	+	0	1	blank2r.bmp	252	1	GWWG	306	2	treu	559	0	0	0	0	0	0	0	0	0	0	0	0	0	0	0	0	0	0	0	0	0	0	0	0	0	0	0	0	0	0	0	0	0	0	0	0	0	0	0
071619	11:43:11	11:47:30	258878	5.0.10.0	5_exp_noRW	54	Rpleas_acq	CS_B	GWWG	YDDY	VKKV	BZZB	JXXJ	MQQM	spielen	treu	schön	fair	ehrlich	retten	strafen	tot	schlecht	faul	eitel	rächen	53pct	acq_USunple_CSunple1_noRW	acq23456_noRW	2	20	0	0	300	300	513	46	0	1	1	blank2r.bmp	0	1	+	0	1	blank2r.bmp	252	1	VKKV	306	2	tot	559	0	0	0	0	0	0	0	0	0	0	0	0	0	0	0	0	0	0	0	0	0	0	0	0	0	0	0	0	0	0	0	0	0	0	0	0	0	0	0
071619	11:43:11	11:47:32	260570	5.0.10.0	5_exp_noRW	54	Rpleas_acq	CS_B	GWWG	YDDY	VKKV	BZZB	JXXJ	MQQM	spielen	treu	schön	fair	ehrlich	retten	strafen	tot	schlecht	faul	eitel	rächen	47pct	acq_USpleas_CSpleas2_noRW	acq23456_noRW	2	21	0	0	300	300	511	50	0	1	1	blank2r.bmp	0	1	+	0	1	blank2r.bmp	252	1	YDDY	306	2	ehrlich	559	0	0	0	0	0	0	0	0	0	0	0	0	0	0	0	0	0	0	0	0	0	0	0	0	0	0	0	0	0	0	0	0	0	0	0	0	0	0	0
071619	11:43:11	11:47:34	262383	5.0.10.0	5_exp_noRW	54	Rpleas_acq	CS_B	GWWG	YDDY	VKKV	BZZB	JXXJ	MQQM	spielen	treu	schön	fair	ehrlich	retten	strafen	tot	schlecht	faul	eitel	rächen	53pct	acq_USunple_CSunple1_noRW	acq23456_noRW	2	22	0	0	300	300	638	46	0	1	1	blank2r.bmp	0	1	+	0	1	blank2r.bmp	252	1	VKKV	306	1	strafen	559	0	0	0	0	0	0	0	0	0	0	0	0	0	0	0	0	0	0	0	0	0	0	0	0	0	0	0	0	0	0	0	0	0	0	0	0	0	0	0
071619	11:43:11	11:47:36	264062	5.0.10.0	5_exp_noRW	54	Rpleas_acq	CS_B	GWWG	YDDY	VKKV	BZZB	JXXJ	MQQM	spielen	treu	schön	fair	ehrlich	retten	strafen	tot	schlecht	faul	eitel	rächen	53pct	acq_USunple_CSunple2_noRW	acq23456_noRW	2	23	0	0	300	300	511	46	0	1	1	blank2r.bmp	0	1	+	0	1	blank2r.bmp	252	1	BZZB	306	3	rächen	559	0	0	0	0	0	0	0	0	0	0	0	0	0	0	0	0	0	0	0	0	0	0	0	0	0	0	0	0	0	0	0	0	0	0	0	0	0	0	0
071619	11:43:11	11:47:37	265755	5.0.10.0	5_exp_noRW	54	Rpleas_acq	CS_B	GWWG	YDDY	VKKV	BZZB	JXXJ	MQQM	spielen	treu	schön	fair	ehrlich	retten	strafen	tot	schlecht	faul	eitel	rächen	53pct	acq_USpleas_CSunple1_noRW	acq23456_noRW	2	24	0	0	300	300	525	50	0	1	1	blank2r.bmp	0	1	+	0	1	blank2r.bmp	252	1	VKKV	306	1	spielen	559	0	0	0	0	0	0	0	0	0	0	0	0	0	0	0	0	0	0	0	0	0	0	0	0	0	0	0	0	0	0	0	0	0	0	0	0	0	0	0
071619	11:43:11	11:47:39	267514	5.0.10.0	5_exp_noRW	54	Rpleas_acq	CS_B	GWWG	YDDY	VKKV	BZZB	JXXJ	MQQM	spielen	treu	schön	fair	ehrlich	retten	strafen	tot	schlecht	faul	eitel	rächen	53pct	acq_USunple_CSpleas2_noRW	acq23456_noRW	2	25	0	0	300	300	572	46	0	1	1	blank2r.bmp	0	1	+	0	1	blank2r.bmp	252	1	YDDY	306	1	faul	559	0	0	0	0	0	0	0	0	0	0	0	0	0	0	0	0	0	0	0	0	0	0	0	0	0	0	0	0	0	0	0	0	0	0	0	0	0	0	0
071619	11:43:11	11:47:41	269233	5.0.10.0	5_exp_noRW	54	Rpleas_acq	CS_B	GWWG	YDDY	VKKV	BZZB	JXXJ	MQQM	spielen	treu	schön	fair	ehrlich	retten	strafen	tot	schlecht	faul	eitel	rächen	47pct	acq_USpleas_CSpleas2_noRW	acq23456_noRW	2	26	0	0	300	300	554	50	0	1	1	blank2r.bmp	0	1	+	0	1	blank2r.bmp	252	1	YDDY	306	2	ehrlich	559	0	0	0	0	0	0	0	0	0	0	0	0	0	0	0	0	0	0	0	0	0	0	0	0	0	0	0	0	0	0	0	0	0	0	0	0	0	0	0
071619	11:43:11	11:47:42	270886	5.0.10.0	5_exp_noRW	54	Rpleas_acq	CS_B	GWWG	YDDY	VKKV	BZZB	JXXJ	MQQM	spielen	treu	schön	fair	ehrlich	retten	strafen	tot	schlecht	faul	eitel	rächen	53pct	acq_USunple_CSunple1_noRW	acq23456_noRW	2	27	0	0	300	300	475	46	0	1	1	blank2r.bmp	0	1	+	0	1	blank2r.bmp	252	1	VKKV	306	3	schlecht	559	0	0	0	0	0	0	0	0	0	0	0	0	0	0	0	0	0	0	0	0	0	0	0	0	0	0	0	0	0	0	0	0	0	0	0	0	0	0	0
071619	11:43:11	11:47:44	272512	5.0.10.0	5_exp_noRW	54	Rpleas_acq	CS_B	GWWG	YDDY	VKKV	BZZB	JXXJ	MQQM	spielen	treu	schön	fair	ehrlich	retten	strafen	tot	schlecht	faul	eitel	rächen	53pct	acq_USpleas_CSpleas1_noRW	acq23456_noRW	2	28	0	0	300	300	449	50	0	1	1	blank2r.bmp	0	1	+	0	1	blank2r.bmp	252	1	GWWG	306	3	schön	559	0	0	0	0	0	0	0	0	0	0	0	0	0	0	0	0	0	0	0	0	0	0	0	0	0	0	0	0	0	0	0	0	0	0	0	0	0	0	0
071619	11:43:11	11:47:47	275364	5.0.10.0	5_exp_noRW	54	Rpleas_acq	CS_B	GWWG	YDDY	VKKV	BZZB	JXXJ	MQQM	spielen	treu	schön	fair	ehrlich	retten	strafen	tot	schlecht	faul	eitel	rächen	53pct	acq_USpleas_CSpleas2_noRW	acq23456_noRW	2	29	0	0	300	300	1677	50	0	1	1	blank2r.bmp	0	1	+	0	1	blank2r.bmp	252	1	YDDY	306	1	fair	559	0	0	0	0	0	0	0	0	0	0	0	0	0	0	0	0	0	0	0	0	0	0	0	0	0	0	0	0	0	0	0	0	0	0	0	0	0	0	0
071619	11:43:11	11:47:49	276950	5.0.10.0	5_exp_noRW	54	Rpleas_acq	CS_B	GWWG	YDDY	VKKV	BZZB	JXXJ	MQQM	spielen	treu	schön	fair	ehrlich	retten	strafen	tot	schlecht	faul	eitel	rächen	53pct	acq_USunple_CSunple2_noRW	acq23456_noRW	2	30	0	0	300	300	400	46	0	1	1	blank2r.bmp	0	1	+	0	1	blank2r.bmp	252	1	BZZB	306	3	rächen	559	0	0	0	0	0	0	0	0	0	0	0	0	0	0	0	0	0	0	0	0	0	0	0	0	0	0	0	0	0	0	0	0	0	0	0	0	0	0	0
071619	11:43:11	11:47:50	278523	5.0.10.0	5_exp_noRW	54	Rpleas_acq	CS_B	GWWG	YDDY	VKKV	BZZB	JXXJ	MQQM	spielen	treu	schön	fair	ehrlich	retten	strafen	tot	schlecht	faul	eitel	rächen	53pct	acq_USpleas_CSpleas1_noRW	acq23456_noRW	2	31	0	0	300	300	403	50	0	1	1	blank2r.bmp	0	1	+	0	1	blank2r.bmp	252	1	GWWG	306	1	spielen	559	0	0	0	0	0	0	0	0	0	0	0	0	0	0	0	0	0	0	0	0	0	0	0	0	0	0	0	0	0	0	0	0	0	0	0	0	0	0	0
071619	11:43:11	11:47:52	280122	5.0.10.0	5_exp_noRW	54	Rpleas_acq	CS_B	GWWG	YDDY	VKKV	BZZB	JXXJ	MQQM	spielen	treu	schön	fair	ehrlich	retten	strafen	tot	schlecht	faul	eitel	rächen	53pct	acq_USpleas_CSpleas2_noRW	acq23456_noRW	2	32	0	0	300	300	434	50	0	1	1	blank2r.bmp	0	1	+	0	1	blank2r.bmp	252	1	YDDY	306	3	retten	559	0	0	0	0	0	0	0	0	0	0	0	0	0	0	0	0	0	0	0	0	0	0	0	0	0	0	0	0	0	0	0	0	0	0	0	0	0	0	0
071619	11:43:11	11:47:53	281708	5.0.10.0	5_exp_noRW	54	Rpleas_acq	CS_B	GWWG	YDDY	VKKV	BZZB	JXXJ	MQQM	spielen	treu	schön	fair	ehrlich	retten	strafen	tot	schlecht	faul	eitel	rächen	53pct	acq_USpleas_CSpleas1_noRW	acq23456_noRW	2	33	0	0	300	300	405	50	0	1	1	blank2r.bmp	0	1	+	0	1	blank2r.bmp	252	1	GWWG	306	3	schön	559	0	0	0	0	0	0	0	0	0	0	0	0	0	0	0	0	0	0	0	0	0	0	0	0	0	0	0	0	0	0	0	0	0	0	0	0	0	0	0
071619	11:43:11	11:47:55	283254	5.0.10.0	5_exp_noRW	54	Rpleas_acq	CS_B	GWWG	YDDY	VKKV	BZZB	JXXJ	MQQM	spielen	treu	schön	fair	ehrlich	retten	strafen	tot	schlecht	faul	eitel	rächen	47pct	acq_USunple_CSunple1_noRW	acq23456_noRW	2	34	0	0	300	300	380	46	0	1	1	blank2r.bmp	0	1	+	0	1	blank2r.bmp	252	1	VKKV	306	2	tot	559	0	0	0	0	0	0	0	0	0	0	0	0	0	0	0	0	0	0	0	0	0	0	0	0	0	0	0	0	0	0	0	0	0	0	0	0	0	0	0
071619	11:43:11	11:47:56	284840	5.0.10.0	5_exp_noRW	54	Rpleas_acq	CS_B	GWWG	YDDY	VKKV	BZZB	JXXJ	MQQM	spielen	treu	schön	fair	ehrlich	retten	strafen	tot	schlecht	faul	eitel	rächen	53pct	acq_USpleas_CSunple2_noRW	acq23456_noRW	2	35	0	0	300	300	421	50	0	1	1	blank2r.bmp	0	1	+	0	1	blank2r.bmp	252	1	BZZB	306	3	retten	559	0	0	0	0	0	0	0	0	0	0	0	0	0	0	0	0	0	0	0	0	0	0	0	0	0	0	0	0	0	0	0	0	0	0	0	0	0	0	0
071619	11:43:11	11:47:58	286546	5.0.10.0	5_exp_noRW	54	Rpleas_acq	CS_B	GWWG	YDDY	VKKV	BZZB	JXXJ	MQQM	spielen	treu	schön	fair	ehrlich	retten	strafen	tot	schlecht	faul	eitel	rächen	53pct	acq_USunple_CSunple2_noRW	acq23456_noRW	2	36	0	0	300	300	525	46	0	1	1	blank2r.bmp	0	1	+	0	1	blank2r.bmp	252	1	BZZB	306	1	faul	559	0	0	0	0	0	0	0	0	0	0	0	0	0	0	0	0	0	0	0	0	0	0	0	0	0	0	0	0	0	0	0	0	0	0	0	0	0	0	0
071619	11:43:11	11:48:00	288172	5.0.10.0	5_exp_noRW	54	Rpleas_acq	CS_B	GWWG	YDDY	VKKV	BZZB	JXXJ	MQQM	spielen	treu	schön	fair	ehrlich	retten	strafen	tot	schlecht	faul	eitel	rächen	53pct	acq_USunple_CSunple1_noRW	acq23456_noRW	2	37	0	0	300	300	464	46	0	1	1	blank2r.bmp	0	1	+	0	1	blank2r.bmp	252	1	VKKV	306	1	strafen	559	0	0	0	0	0	0	0	0	0	0	0	0	0	0	0	0	0	0	0	0	0	0	0	0	0	0	0	0	0	0	0	0	0	0	0	0	0	0	0
071619	11:43:11	11:48:01	289811	5.0.10.0	5_exp_noRW	54	Rpleas_acq	CS_B	GWWG	YDDY	VKKV	BZZB	JXXJ	MQQM	spielen	treu	schön	fair	ehrlich	retten	strafen	tot	schlecht	faul	eitel	rächen	53pct	acq_USunple_CSunple2_noRW	acq23456_noRW	2	38	0	0	300	300	454	46	0	1	1	blank2r.bmp	0	1	+	0	1	blank2r.bmp	252	1	BZZB	306	2	eitel	559	0	0	0	0	0	0	0	0	0	0	0	0	0	0	0	0	0	0	0	0	0	0	0	0	0	0	0	0	0	0	0	0	0	0	0	0	0	0	0
071619	11:43:11	11:48:03	291544	5.0.10.0	5_exp_noRW	54	Rpleas_acq	CS_B	GWWG	YDDY	VKKV	BZZB	JXXJ	MQQM	spielen	treu	schön	fair	ehrlich	retten	strafen	tot	schlecht	faul	eitel	rächen	53pct	acq_USpleas_CSpleas1_noRW	acq23456_noRW	2	39	0	0	300	300	570	50	0	1	1	blank2r.bmp	0	1	+	0	1	blank2r.bmp	252	1	GWWG	306	2	treu	559	0	0	0	0	0	0	0	0	0	0	0	0	0	0	0	0	0	0	0	0	0	0	0	0	0	0	0	0	0	0	0	0	0	0	0	0	0	0	0
071619	11:43:11	11:48:05	293263	5.0.10.0	5_exp_noRW	54	Rpleas_acq	CS_B	GWWG	YDDY	VKKV	BZZB	JXXJ	MQQM	spielen	treu	schön	fair	ehrlich	retten	strafen	tot	schlecht	faul	eitel	rächen	53pct	acq_USunple_CSpleas1_noRW	acq23456_noRW	2	40	0	0	300	300	542	46	0	1	1	blank2r.bmp	0	1	+	0	1	blank2r.bmp	252	1	GWWG	306	2	tot	559	0	0	0	0	0	0	0	0	0	0	0	0	0	0	0	0	0	0	0	0	0	0	0	0	0	0	0	0	0	0	0	0	0	0	0	0	0	0	0
071619	11:43:11	11:48:06	294849	5.0.10.0	5_exp_noRW	54	Rpleas_acq	CS_B	GWWG	YDDY	VKKV	BZZB	JXXJ	MQQM	spielen	treu	schön	fair	ehrlich	retten	strafen	tot	schlecht	faul	eitel	rächen	53pct	acq_USpleas_CSpleas2_noRW	acq23456_noRW	2	41	0	0	300	300	400	50	0	1	1	blank2r.bmp	0	1	+	0	1	blank2r.bmp	252	1	YDDY	306	2	ehrlich	559	0	0	0	0	0	0	0	0	0	0	0	0	0	0	0	0	0	0	0	0	0	0	0	0	0	0	0	0	0	0	0	0	0	0	0	0	0	0	0
071619	11:43:11	11:48:08	296462	5.0.10.0	5_exp_noRW	54	Rpleas_acq	CS_B	GWWG	YDDY	VKKV	BZZB	JXXJ	MQQM	spielen	treu	schön	fair	ehrlich	retten	strafen	tot	schlecht	faul	eitel	rächen	47pct	acq_USpleas_CSpleas1_noRW	acq23456_noRW	2	42	0	0	300	300	439	50	0	1	1	blank2r.bmp	0	1	+	0	1	blank2r.bmp	252	1	GWWG	306	3	schön	559	0	0	0	0	0	0	0	0	0	0	0	0	0	0	0	0	0	0	0	0	0	0	0	0	0	0	0	0	0	0	0	0	0	0	0	0	0	0	0
071619	11:43:11	11:48:10	298035	5.0.10.0	5_exp_noRW	54	Rpleas_acq	CS_B	GWWG	YDDY	VKKV	BZZB	JXXJ	MQQM	spielen	treu	schön	fair	ehrlich	retten	strafen	tot	schlecht	faul	eitel	rächen	47pct	acq_USunple_CSunple1_noRW	acq23456_noRW	2	43	0	0	300	300	387	46	0	1	1	blank2r.bmp	0	1	+	0	1	blank2r.bmp	252	1	VKKV	306	3	schlecht	559	0	0	0	0	0	0	0	0	0	0	0	0	0	0	0	0	0	0	0	0	0	0	0	0	0	0	0	0	0	0	0	0	0	0	0	0	0	0	0
071619	11:43:11	11:48:11	299581	5.0.10.0	5_exp_noRW	54	Rpleas_acq	CS_B	GWWG	YDDY	VKKV	BZZB	JXXJ	MQQM	spielen	treu	schön	fair	ehrlich	retten	strafen	tot	schlecht	faul	eitel	rächen	47pct	acq_USunple_CSpleas1_noRW	acq23456_noRW	2	44	0	0	300	300	369	46	0	1	1	blank2r.bmp	0	1	+	0	1	blank2r.bmp	252	1	GWWG	306	1	strafen	559	0	0	0	0	0	0	0	0	0	0	0	0	0	0	0	0	0	0	0	0	0	0	0	0	0	0	0	0	0	0	0	0	0	0	0	0	0	0	0
071619	11:43:11	11:48:13	301180	5.0.10.0	5_exp_noRW	54	Rpleas_acq	CS_B	GWWG	YDDY	VKKV	BZZB	JXXJ	MQQM	spielen	treu	schön	fair	ehrlich	retten	strafen	tot	schlecht	faul	eitel	rächen	47pct	acq_USunple_CSunple1_noRW	acq23456_noRW	2	45	0	0	300	300	420	46	0	1	1	blank2r.bmp	0	1	+	0	1	blank2r.bmp	252	1	VKKV	306	1	strafen	559	0	0	0	0	0	0	0	0	0	0	0	0	0	0	0	0	0	0	0	0	0	0	0	0	0	0	0	0	0	0	0	0	0	0	0	0	0	0	0
071619	11:43:11	11:48:14	302753	5.0.10.0	5_exp_noRW	54	Rpleas_acq	CS_B	GWWG	YDDY	VKKV	BZZB	JXXJ	MQQM	spielen	treu	schön	fair	ehrlich	retten	strafen	tot	schlecht	faul	eitel	rächen	53pct	acq_USpleas_CSpleas2_noRW	acq23456_noRW	2	46	0	0	300	300	391	50	0	1	1	blank2r.bmp	0	1	+	0	1	blank2r.bmp	252	1	YDDY	306	1	fair	559	0	0	0	0	0	0	0	0	0	0	0	0	0	0	0	0	0	0	0	0	0	0	0	0	0	0	0	0	0	0	0	0	0	0	0	0	0	0	0
071619	11:43:11	11:48:16	304405	5.0.10.0	5_exp_noRW	54	Rpleas_acq	CS_B	GWWG	YDDY	VKKV	BZZB	JXXJ	MQQM	spielen	treu	schön	fair	ehrlich	retten	strafen	tot	schlecht	faul	eitel	rächen	53pct	acq_USpleas_CSpleas1_noRW	acq23456_noRW	2	47	0	0	300	300	478	50	0	1	1	blank2r.bmp	0	1	+	0	1	blank2r.bmp	252	1	GWWG	306	1	spielen	559	0	0	0	0	0	0	0	0	0	0	0	0	0	0	0	0	0	0	0	0	0	0	0	0	0	0	0	0	0	0	0	0	0	0	0	0	0	0	0
071619	11:43:11	11:48:18	305965	5.0.10.0	5_exp_noRW	54	Rpleas_acq	CS_B	GWWG	YDDY	VKKV	BZZB	JXXJ	MQQM	spielen	treu	schön	fair	ehrlich	retten	strafen	tot	schlecht	faul	eitel	rächen	53pct	acq_USunple_CSunple2_noRW	acq23456_noRW	2	48	0	0	300	300	391	46	0	1	1	blank2r.bmp	0	1	+	0	1	blank2r.bmp	252	1	BZZB	306	1	faul	559	0	0	0	0	0	0	0	0	0	0	0	0	0	0	0	0	0	0	0	0	0	0	0	0	0	0	0	0	0	0	0	0	0	0	0	0	0	0	0
071619	11:43:11	11:48:19	307577	5.0.10.0	5_exp_noRW	54	Rpleas_acq	CS_B	GWWG	YDDY	VKKV	BZZB	JXXJ	MQQM	spielen	treu	schön	fair	ehrlich	retten	strafen	tot	schlecht	faul	eitel	rächen	47pct	acq_USunple_CSunple1_noRW	acq23456_noRW	2	49	0	0	300	300	449	46	0	1	1	blank2r.bmp	0	1	+	0	1	blank2r.bmp	252	1	VKKV	306	2	tot	559	0	0	0	0	0	0	0	0	0	0	0	0	0	0	0	0	0	0	0	0	0	0	0	0	0	0	0	0	0	0	0	0	0	0	0	0	0	0	0
071619	11:43:11	11:48:21	309350	5.0.10.0	5_exp_noRW	54	Rpleas_acq	CS_B	GWWG	YDDY	VKKV	BZZB	JXXJ	MQQM	spielen	treu	schön	fair	ehrlich	retten	strafen	tot	schlecht	faul	eitel	rächen	47pct	acq_USpleas_CSpleas1_noRW	acq23456_noRW	2	50	0	0	300	300	595	50	0	1	1	blank2r.bmp	0	1	+	0	1	blank2r.bmp	252	1	GWWG	306	2	treu	559	0	0	0	0	0	0	0	0	0	0	0	0	0	0	0	0	0	0	0	0	0	0	0	0	0	0	0	0	0	0	0	0	0	0	0	0	0	0	0
071619	11:43:11	11:48:23	311029	5.0.10.0	5_exp_noRW	54	Rpleas_acq	CS_B	GWWG	YDDY	VKKV	BZZB	JXXJ	MQQM	spielen	treu	schön	fair	ehrlich	retten	strafen	tot	schlecht	faul	eitel	rächen	53pct	acq_USpleas_CSunple2_noRW	acq23456_noRW	2	51	0	0	300	300	508	50	0	1	1	blank2r.bmp	0	1	+	0	1	blank2r.bmp	252	1	BZZB	306	2	ehrlich	559	0	0	0	0	0	0	0	0	0	0	0	0	0	0	0	0	0	0	0	0	0	0	0	0	0	0	0	0	0	0	0	0	0	0	0	0	0	0	0
071619	11:43:11	11:48:24	312788	5.0.10.0	5_exp_noRW	54	Rpleas_acq	CS_B	GWWG	YDDY	VKKV	BZZB	JXXJ	MQQM	spielen	treu	schön	fair	ehrlich	retten	strafen	tot	schlecht	faul	eitel	rächen	47pct	acq_USunple_CSpleas2_noRW	acq23456_noRW	2	52	0	0	300	300	583	46	0	1	1	blank2r.bmp	0	1	+	0	1	blank2r.bmp	252	1	YDDY	306	1	faul	559	0	0	0	0	0	0	0	0	0	0	0	0	0	0	0	0	0	0	0	0	0	0	0	0	0	0	0	0	0	0	0	0	0	0	0	0	0	0	0
071619	11:43:11	11:48:26	314441	5.0.10.0	5_exp_noRW	54	Rpleas_acq	CS_B	GWWG	YDDY	VKKV	BZZB	JXXJ	MQQM	spielen	treu	schön	fair	ehrlich	retten	strafen	tot	schlecht	faul	eitel	rächen	53pct	acq_USpleas_CSunple1_noRW	acq23456_noRW	2	53	0	0	300	300	468	50	0	1	1	blank2r.bmp	0	1	+	0	1	blank2r.bmp	252	1	VKKV	306	2	treu	559	0	0	0	0	0	0	0	0	0	0	0	0	0	0	0	0	0	0	0	0	0	0	0	0	0	0	0	0	0	0	0	0	0	0	0	0	0	0	0
071619	11:43:11	11:48:28	316027	5.0.10.0	5_exp_noRW	54	Rpleas_acq	CS_B	GWWG	YDDY	VKKV	BZZB	JXXJ	MQQM	spielen	treu	schön	fair	ehrlich	retten	strafen	tot	schlecht	faul	eitel	rächen	53pct	acq_USpleas_CSpleas1_noRW	acq23456_noRW	2	54	0	0	300	300	424	50	0	1	1	blank2r.bmp	0	1	+	0	1	blank2r.bmp	252	1	GWWG	306	2	treu	559	0	0	0	0	0	0	0	0	0	0	0	0	0	0	0	0	0	0	0	0	0	0	0	0	0	0	0	0	0	0	0	0	0	0	0	0	0	0	0
071619	11:43:11	11:48:29	317626	5.0.10.0	5_exp_noRW	54	Rpleas_acq	CS_B	GWWG	YDDY	VKKV	BZZB	JXXJ	MQQM	spielen	treu	schön	fair	ehrlich	retten	strafen	tot	schlecht	faul	eitel	rächen	53pct	acq_USunple_CSunple1_noRW	acq23456_noRW	2	55	0	0	300	300	401	46	0	1	1	blank2r.bmp	0	1	+	0	1	blank2r.bmp	252	1	VKKV	306	3	schlecht	559	0	0	0	0	0	0	0	0	0	0	0	0	0	0	0	0	0	0	0	0	0	0	0	0	0	0	0	0	0	0	0	0	0	0	0	0	0	0	0
071619	11:43:11	11:48:31	319372	5.0.10.0	5_exp_noRW	54	Rpleas_acq	CS_B	GWWG	YDDY	VKKV	BZZB	JXXJ	MQQM	spielen	treu	schön	fair	ehrlich	retten	strafen	tot	schlecht	faul	eitel	rächen	53pct	acq_USpleas_CSpleas2_noRW	acq23456_noRW	2	56	0	0	300	300	574	50	0	1	1	blank2r.bmp	0	1	+	0	1	blank2r.bmp	252	1	YDDY	306	3	retten	559	0	0	0	0	0	0	0	0	0	0	0	0	0	0	0	0	0	0	0	0	0	0	0	0	0	0	0	0	0	0	0	0	0	0	0	0	0	0	0
071619	11:43:11	11:48:32	320892	5.0.10.0	5_exp_noRW	54	Rpleas_acq	CS_B	GWWG	YDDY	VKKV	BZZB	JXXJ	MQQM	spielen	treu	schön	fair	ehrlich	retten	strafen	tot	schlecht	faul	eitel	rächen	53pct	acq_USpleas_CSpleas2_noRW	acq23456_noRW	2	57	0	0	300	300	354	50	0	1	1	blank2r.bmp	0	1	+	0	1	blank2r.bmp	252	1	YDDY	306	3	retten	559	0	0	0	0	0	0	0	0	0	0	0	0	0	0	0	0	0	0	0	0	0	0	0	0	0	0	0	0	0	0	0	0	0	0	0	0	0	0	0
071619	11:43:11	11:48:34	322491	5.0.10.0	5_exp_noRW	54	Rpleas_acq	CS_B	GWWG	YDDY	VKKV	BZZB	JXXJ	MQQM	spielen	treu	schön	fair	ehrlich	retten	strafen	tot	schlecht	faul	eitel	rächen	53pct	acq_USunple_CSunple2_noRW	acq23456_noRW	2	58	0	0	300	300	418	46	0	1	1	blank2r.bmp	0	1	+	0	1	blank2r.bmp	252	1	BZZB	306	3	rächen	559	0	0	0	0	0	0	0	0	0	0	0	0	0	0	0	0	0	0	0	0	0	0	0	0	0	0	0	0	0	0	0	0	0	0	0	0	0	0	0
071619	11:43:11	11:48:36	324077	5.0.10.0	5_exp_noRW	54	Rpleas_acq	CS_B	GWWG	YDDY	VKKV	BZZB	JXXJ	MQQM	spielen	treu	schön	fair	ehrlich	retten	strafen	tot	schlecht	faul	eitel	rächen	47pct	acq_USunple_CSunple2_noRW	acq23456_noRW	2	59	0	0	300	300	411	46	0	1	1	blank2r.bmp	0	1	+	0	1	blank2r.bmp	252	1	BZZB	306	2	eitel	559	0	0	0	0	0	0	0	0	0	0	0	0	0	0	0	0	0	0	0	0	0	0	0	0	0	0	0	0	0	0	0	0	0	0	0	0	0	0	0
071619	11:43:11	11:48:37	325623	5.0.10.0	5_exp_noRW	54	Rpleas_acq	CS_B	GWWG	YDDY	VKKV	BZZB	JXXJ	MQQM	spielen	treu	schön	fair	ehrlich	retten	strafen	tot	schlecht	faul	eitel	rächen	47pct	acq_USunple_CSunple2_noRW	acq23456_noRW	2	60	0	0	300	300	370	46	0	1	1	blank2r.bmp	0	1	+	0	1	blank2r.bmp	252	1	BZZB	306	2	eitel	559	0	0	0	0	0	0	0	0	0	0	0	0	0	0	0	0	0	0	0	0	0	0	0	0	0	0	0	0	0	0	0	0	0	0	0	0	0	0	0
071619	11:43:11	11:48:39	327222	5.0.10.0	5_exp_noRW	54	Rpleas_acq	CS_B	GWWG	YDDY	VKKV	BZZB	JXXJ	MQQM	spielen	treu	schön	fair	ehrlich	retten	strafen	tot	schlecht	faul	eitel	rächen	53pct	acq_USunple_CSunple1_noRW	acq23456_noRW	2	61	0	0	300	300	419	46	0	1	1	blank2r.bmp	0	1	+	0	1	blank2r.bmp	252	1	VKKV	306	1	strafen	559	0	0	0	0	0	0	0	0	0	0	0	0	0	0	0	0	0	0	0	0	0	0	0	0	0	0	0	0	0	0	0	0	0	0	0	0	0	0	0
071619	11:43:11	11:48:40	328888	5.0.10.0	5_exp_noRW	54	Rpleas_acq	CS_B	GWWG	YDDY	VKKV	BZZB	JXXJ	MQQM	spielen	treu	schön	fair	ehrlich	retten	strafen	tot	schlecht	faul	eitel	rächen	53pct	acq_USpleas_CSpleas2_noRW	acq23456_noRW	2	62	0	0	300	300	479	50	0	1	1	blank2r.bmp	0	1	+	0	1	blank2r.bmp	252	1	YDDY	306	1	fair	559	0	0	0	0	0	0	0	0	0	0	0	0	0	0	0	0	0	0	0	0	0	0	0	0	0	0	0	0	0	0	0	0	0	0	0	0	0	0	0
071619	11:43:11	11:48:42	330541	5.0.10.0	5_exp_noRW	54	Rpleas_acq	CS_B	GWWG	YDDY	VKKV	BZZB	JXXJ	MQQM	spielen	treu	schön	fair	ehrlich	retten	strafen	tot	schlecht	faul	eitel	rächen	47pct	acq_USpleas_CSpleas2_noRW	acq23456_noRW	2	63	0	0	300	300	487	50	0	1	1	blank2r.bmp	0	1	+	0	1	blank2r.bmp	252	1	YDDY	306	2	ehrlich	559	0	0	0	0	0	0	0	0	0	0	0	0	0	0	0	0	0	0	0	0	0	0	0	0	0	0	0	0	0	0	0	0	0	0	0	0	0	0	0
071619	11:43:11	11:48:44	332154	5.0.10.0	5_exp_noRW	54	Rpleas_acq	CS_B	GWWG	YDDY	VKKV	BZZB	JXXJ	MQQM	spielen	treu	schön	fair	ehrlich	retten	strafen	tot	schlecht	faul	eitel	rächen	53pct	acq_USpleas_CSpleas1_noRW	acq23456_noRW	2	64	0	0	300	300	436	50	0	1	1	blank2r.bmp	0	1	+	0	1	blank2r.bmp	252	1	GWWG	306	1	spielen	559	0	0	0	0	0	0	0	0	0	0	0	0	0	0	0	0	0	0	0	0	0	0	0	0	0	0	0	0	0	0	0	0	0	0	0	0	0	0	0
071619	11:43:11	11:48:45	333740	5.0.10.0	5_exp_noRW	54	Rpleas_acq	CS_B	GWWG	YDDY	VKKV	BZZB	JXXJ	MQQM	spielen	treu	schön	fair	ehrlich	retten	strafen	tot	schlecht	faul	eitel	rächen	47pct	acq_USunple_CSpleas2_noRW	acq23456_noRW	2	65	0	0	300	300	400	46	0	1	1	blank2r.bmp	0	1	+	0	1	blank2r.bmp	252	1	YDDY	306	2	eitel	559	0	0	0	0	0	0	0	0	0	0	0	0	0	0	0	0	0	0	0	0	0	0	0	0	0	0	0	0	0	0	0	0	0	0	0	0	0	0	0
071619	11:43:11	11:48:47	335286	5.0.10.0	5_exp_noRW	54	Rpleas_acq	CS_B	GWWG	YDDY	VKKV	BZZB	JXXJ	MQQM	spielen	treu	schön	fair	ehrlich	retten	strafen	tot	schlecht	faul	eitel	rächen	47pct	acq_USpleas_CSpleas1_noRW	acq23456_noRW	2	66	0	0	300	300	382	50	0	1	1	blank2r.bmp	0	1	+	0	1	blank2r.bmp	252	1	GWWG	306	3	schön	559	0	0	0	0	0	0	0	0	0	0	0	0	0	0	0	0	0	0	0	0	0	0	0	0	0	0	0	0	0	0	0	0	0	0	0	0	0	0	0
071619	11:43:11	11:48:48	336858	5.0.10.0	5_exp_noRW	54	Rpleas_acq	CS_B	GWWG	YDDY	VKKV	BZZB	JXXJ	MQQM	spielen	treu	schön	fair	ehrlich	retten	strafen	tot	schlecht	faul	eitel	rächen	47pct	acq_USpleas_CSunple1_noRW	acq23456_noRW	2	67	0	0	300	300	389	50	0	1	1	blank2r.bmp	0	1	+	0	1	blank2r.bmp	252	1	VKKV	306	1	spielen	559	0	0	0	0	0	0	0	0	0	0	0	0	0	0	0	0	0	0	0	0	0	0	0	0	0	0	0	0	0	0	0	0	0	0	0	0	0	0	0
071619	11:43:11	11:48:50	338351	5.0.10.0	5_exp_noRW	54	Rpleas_acq	CS_B	GWWG	YDDY	VKKV	BZZB	JXXJ	MQQM	spielen	treu	schön	fair	ehrlich	retten	strafen	tot	schlecht	faul	eitel	rächen	47pct	acq_USunple_CSunple1_noRW	acq23456_noRW	2	68	0	0	300	300	327	46	0	1	1	blank2r.bmp	0	1	+	0	1	blank2r.bmp	252	1	VKKV	306	2	tot	559	0	0	0	0	0	0	0	0	0	0	0	0	0	0	0	0	0	0	0	0	0	0	0	0	0	0	0	0	0	0	0	0	0	0	0	0	0	0	0
071619	11:43:11	11:48:52	339977	5.0.10.0	5_exp_noRW	54	Rpleas_acq	CS_B	GWWG	YDDY	VKKV	BZZB	JXXJ	MQQM	spielen	treu	schön	fair	ehrlich	retten	strafen	tot	schlecht	faul	eitel	rächen	53pct	acq_USunple_CSunple2_noRW	acq23456_noRW	2	69	0	0	300	300	462	46	0	1	1	blank2r.bmp	0	1	+	0	1	blank2r.bmp	252	1	BZZB	306	3	rächen	559	0	0	0	0	0	0	0	0	0	0	0	0	0	0	0	0	0	0	0	0	0	0	0	0	0	0	0	0	0	0	0	0	0	0	0	0	0	0	0
071619	11:43:11	11:48:53	341683	5.0.10.0	5_exp_noRW	54	Rpleas_acq	CS_B	GWWG	YDDY	VKKV	BZZB	JXXJ	MQQM	spielen	treu	schön	fair	ehrlich	retten	strafen	tot	schlecht	faul	eitel	rächen	53pct	acq_USunple_CSunple1_noRW	acq23456_noRW	2	70	0	0	300	300	520	46	0	1	1	blank2r.bmp	0	1	+	0	1	blank2r.bmp	252	1	VKKV	306	3	schlecht	559	0	0	0	0	0	0	0	0	0	0	0	0	0	0	0	0	0	0	0	0	0	0	0	0	0	0	0	0	0	0	0	0	0	0	0	0	0	0	0
071619	11:43:11	11:48:55	343309	5.0.10.0	5_exp_noRW	54	Rpleas_acq	CS_B	GWWG	YDDY	VKKV	BZZB	JXXJ	MQQM	spielen	treu	schön	fair	ehrlich	retten	strafen	tot	schlecht	faul	eitel	rächen	47pct	acq_USunple_CSunple2_noRW	acq23456_noRW	2	71	0	0	300	300	452	46	0	1	1	blank2r.bmp	0	1	+	0	1	blank2r.bmp	252	1	BZZB	306	1	faul	559	0	0	0	0	0	0	0	0	0	0	0	0	0	0	0	0	0	0	0	0	0	0	0	0	0	0	0	0	0	0	0	0	0	0	0	0	0	0	0
071619	11:43:11	11:48:57	344948	5.0.10.0	5_exp_noRW	54	Rpleas_acq	CS_B	GWWG	YDDY	VKKV	BZZB	JXXJ	MQQM	spielen	treu	schön	fair	ehrlich	retten	strafen	tot	schlecht	faul	eitel	rächen	53pct	acq_USpleas_CSpleas2_noRW	acq23456_noRW	2	72	0	0	300	300	459	50	0	1	1	blank2r.bmp	0	1	+	0	1	blank2r.bmp	252	1	YDDY	306	3	retten	559	0	0	0	0	0	0	0	0	0	0	0	0	0	0	0	0	0	0	0	0	0	0	0	0	0	0	0	0	0	0	0	0	0	0	0	0	0	0	0
071619	11:43:11	11:48:58	346521	5.0.10.0	5_exp_noRW	54	Rpleas_acq	CS_B	GWWG	YDDY	VKKV	BZZB	JXXJ	MQQM	spielen	treu	schön	fair	ehrlich	retten	strafen	tot	schlecht	faul	eitel	rächen	47pct	acq_USunple_CSunple2_noRW	acq23456_noRW	2	73	0	0	300	300	404	46	0	1	1	blank2r.bmp	0	1	+	0	1	blank2r.bmp	252	1	BZZB	306	3	rächen	559	0	0	0	0	0	0	0	0	0	0	0	0	0	0	0	0	0	0	0	0	0	0	0	0	0	0	0	0	0	0	0	0	0	0	0	0	0	0	0
071619	11:43:11	11:49:00	348147	5.0.10.0	5_exp_noRW	54	Rpleas_acq	CS_B	GWWG	YDDY	VKKV	BZZB	JXXJ	MQQM	spielen	treu	schön	fair	ehrlich	retten	strafen	tot	schlecht	faul	eitel	rächen	47pct	acq_USunple_CSpleas1_noRW	acq23456_noRW	2	74	0	0	300	300	444	46	0	1	1	blank2r.bmp	0	1	+	0	1	blank2r.bmp	252	1	GWWG	306	3	schlecht	559	0	0	0	0	0	0	0	0	0	0	0	0	0	0	0	0	0	0	0	0	0	0	0	0	0	0	0	0	0	0	0	0	0	0	0	0	0	0	0
071619	11:43:11	11:49:01	349773	5.0.10.0	5_exp_noRW	54	Rpleas_acq	CS_B	GWWG	YDDY	VKKV	BZZB	JXXJ	MQQM	spielen	treu	schön	fair	ehrlich	retten	strafen	tot	schlecht	faul	eitel	rächen	53pct	acq_USpleas_CSunple2_noRW	acq23456_noRW	2	75	0	0	300	300	459	50	0	1	1	blank2r.bmp	0	1	+	0	1	blank2r.bmp	252	1	BZZB	306	1	fair	559	0	0	0	0	0	0	0	0	0	0	0	0	0	0	0	0	0	0	0	0	0	0	0	0	0	0	0	0	0	0	0	0	0	0	0	0	0	0	0
071619	11:43:11	11:49:03	351332	5.0.10.0	5_exp_noRW	54	Rpleas_acq	CS_B	GWWG	YDDY	VKKV	BZZB	JXXJ	MQQM	spielen	treu	schön	fair	ehrlich	retten	strafen	tot	schlecht	faul	eitel	rächen	47pct	acq_USpleas_CSpleas2_noRW	acq23456_noRW	2	76	0	0	300	300	395	50	0	1	1	blank2r.bmp	0	1	+	0	1	blank2r.bmp	252	1	YDDY	306	2	ehrlich	559	0	0	0	0	0	0	0	0	0	0	0	0	0	0	0	0	0	0	0	0	0	0	0	0	0	0	0	0	0	0	0	0	0	0	0	0	0	0	0
071619	11:43:11	11:49:04	352812	5.0.10.0	5_exp_noRW	54	Rpleas_acq	CS_B	GWWG	YDDY	VKKV	BZZB	JXXJ	MQQM	spielen	treu	schön	fair	ehrlich	retten	strafen	tot	schlecht	faul	eitel	rächen	53pct	acq_USpleas_CSpleas1_noRW	acq23456_noRW	2	77	0	0	300	300	295	50	0	1	1	blank2r.bmp	0	1	+	0	1	blank2r.bmp	252	1	GWWG	306	3	schön	559	0	0	0	0	0	0	0	0	0	0	0	0	0	0	0	0	0	0	0	0	0	0	0	0	0	0	0	0	0	0	0	0	0	0	0	0	0	0	0
071619	11:43:11	11:49:06	354304	5.0.10.0	5_exp_noRW	54	Rpleas_acq	CS_B	GWWG	YDDY	VKKV	BZZB	JXXJ	MQQM	spielen	treu	schön	fair	ehrlich	retten	strafen	tot	schlecht	faul	eitel	rächen	53pct	acq_USunple_CSunple1_noRW	acq23456_noRW	2	78	0	0	300	300	324	46	0	1	1	blank2r.bmp	0	1	+	0	1	blank2r.bmp	252	1	VKKV	306	2	tot	559	0	0	0	0	0	0	0	0	0	0	0	0	0	0	0	0	0	0	0	0	0	0	0	0	0	0	0	0	0	0	0	0	0	0	0	0	0	0	0
071619	11:43:11	11:49:07	355877	5.0.10.0	5_exp_noRW	54	Rpleas_acq	CS_B	GWWG	YDDY	VKKV	BZZB	JXXJ	MQQM	spielen	treu	schön	fair	ehrlich	retten	strafen	tot	schlecht	faul	eitel	rächen	47pct	acq_USunple_CSunple2_noRW	acq23456_noRW	2	79	0	0	300	300	388	46	0	1	1	blank2r.bmp	0	1	+	0	1	blank2r.bmp	252	1	BZZB	306	1	faul	559	0	0	0	0	0	0	0	0	0	0	0	0	0	0	0	0	0	0	0	0	0	0	0	0	0	0	0	0	0	0	0	0	0	0	0	0	0	0	0
071619	11:43:11	11:49:09	357876	5.0.10.0	5_exp_noRW	54	Rpleas_acq	CS_B	GWWG	YDDY	VKKV	BZZB	JXXJ	MQQM	spielen	treu	schön	fair	ehrlich	retten	strafen	tot	schlecht	faul	eitel	rächen	47pct	acq_USpleas_CSpleas1_noRW	acq23456_noRW	2	80	0	0	300	300	826	50	0	1	1	blank2r.bmp	0	1	+	0	1	blank2r.bmp	252	1	GWWG	306	2	treu	559	0	0	0	0	0	0	0	0	0	0	0	0	0	0	0	0	0	0	0	0	0	0	0	0	0	0	0	0	0	0	0	0	0	0	0	0	0	0	0
071619	11:43:11	11:49:19	367672	5.0.10.0	5_exp_noRW	54	Rpleas_acq	CS_B	GWWG	YDDY	VKKV	BZZB	JXXJ	MQQM	spielen	treu	schön	fair	ehrlich	retten	strafen	tot	schlecht	faul	eitel	rächen	53pct	acq_USpleas_CSunple2_noRW	acq23456_noRW	3	1	0	0	300	300	1011	50	0	1	1	blank2r.bmp	0	1	+	0	1	blank2r.bmp	252	1	BZZB	306	3	retten	559	0	0	0	0	0	0	0	0	0	0	0	0	0	0	0	0	0	0	0	0	0	0	0	0	0	0	0	0	0	0	0	0	0	0	0	0	0	0	0
071619	11:43:11	11:49:21	369258	5.0.10.0	5_exp_noRW	54	Rpleas_acq	CS_B	GWWG	YDDY	VKKV	BZZB	JXXJ	MQQM	spielen	treu	schön	fair	ehrlich	retten	strafen	tot	schlecht	faul	eitel	rächen	47pct	acq_USpleas_CSpleas1_noRW	acq23456_noRW	3	2	0	0	300	300	408	50	0	1	1	blank2r.bmp	0	1	+	0	1	blank2r.bmp	252	1	GWWG	306	1	spielen	559	0	0	0	0	0	0	0	0	0	0	0	0	0	0	0	0	0	0	0	0	0	0	0	0	0	0	0	0	0	0	0	0	0	0	0	0	0	0	0
071619	11:43:11	11:49:22	370857	5.0.10.0	5_exp_noRW	54	Rpleas_acq	CS_B	GWWG	YDDY	VKKV	BZZB	JXXJ	MQQM	spielen	treu	schön	fair	ehrlich	retten	strafen	tot	schlecht	faul	eitel	rächen	47pct	acq_USunple_CSunple2_noRW	acq23456_noRW	3	3	0	0	300	300	414	46	0	1	1	blank2r.bmp	0	1	+	0	1	blank2r.bmp	252	1	BZZB	306	2	eitel	559	0	0	0	0	0	0	0	0	0	0	0	0	0	0	0	0	0	0	0	0	0	0	0	0	0	0	0	0	0	0	0	0	0	0	0	0	0	0	0
071619	11:43:11	11:49:24	372457	5.0.10.0	5_exp_noRW	54	Rpleas_acq	CS_B	GWWG	YDDY	VKKV	BZZB	JXXJ	MQQM	spielen	treu	schön	fair	ehrlich	retten	strafen	tot	schlecht	faul	eitel	rächen	47pct	acq_USpleas_CSpleas2_noRW	acq23456_noRW	3	4	0	0	300	300	417	50	0	1	1	blank2r.bmp	0	1	+	0	1	blank2r.bmp	252	1	YDDY	306	1	fair	559	0	0	0	0	0	0	0	0	0	0	0	0	0	0	0	0	0	0	0	0	0	0	0	0	0	0	0	0	0	0	0	0	0	0	0	0	0	0	0
071619	11:43:11	11:49:26	374056	5.0.10.0	5_exp_noRW	54	Rpleas_acq	CS_B	GWWG	YDDY	VKKV	BZZB	JXXJ	MQQM	spielen	treu	schön	fair	ehrlich	retten	strafen	tot	schlecht	faul	eitel	rächen	53pct	acq_USpleas_CSpleas1_noRW	acq23456_noRW	3	5	0	0	300	300	434	50	0	1	1	blank2r.bmp	0	1	+	0	1	blank2r.bmp	252	1	GWWG	306	2	treu	559	0	0	0	0	0	0	0	0	0	0	0	0	0	0	0	0	0	0	0	0	0	0	0	0	0	0	0	0	0	0	0	0	0	0	0	0	0	0	0
071619	11:43:11	11:49:27	375535	5.0.10.0	5_exp_noRW	54	Rpleas_acq	CS_B	GWWG	YDDY	VKKV	BZZB	JXXJ	MQQM	spielen	treu	schön	fair	ehrlich	retten	strafen	tot	schlecht	faul	eitel	rächen	53pct	acq_USpleas_CSpleas1_noRW	acq23456_noRW	3	6	0	0	300	300	299	50	0	1	1	blank2r.bmp	0	1	+	0	1	blank2r.bmp	252	1	GWWG	306	3	schön	559	0	0	0	0	0	0	0	0	0	0	0	0	0	0	0	0	0	0	0	0	0	0	0	0	0	0	0	0	0	0	0	0	0	0	0	0	0	0	0
071619	11:43:11	11:49:29	377055	5.0.10.0	5_exp_noRW	54	Rpleas_acq	CS_B	GWWG	YDDY	VKKV	BZZB	JXXJ	MQQM	spielen	treu	schön	fair	ehrlich	retten	strafen	tot	schlecht	faul	eitel	rächen	53pct	acq_USunple_CSunple1_noRW	acq23456_noRW	3	7	0	0	300	300	343	46	0	1	1	blank2r.bmp	0	1	+	0	1	blank2r.bmp	252	1	VKKV	306	1	strafen	559	0	0	0	0	0	0	0	0	0	0	0	0	0	0	0	0	0	0	0	0	0	0	0	0	0	0	0	0	0	0	0	0	0	0	0	0	0	0	0
071619	11:43:11	11:49:30	378548	5.0.10.0	5_exp_noRW	54	Rpleas_acq	CS_B	GWWG	YDDY	VKKV	BZZB	JXXJ	MQQM	spielen	treu	schön	fair	ehrlich	retten	strafen	tot	schlecht	faul	eitel	rächen	53pct	acq_USpleas_CSpleas2_noRW	acq23456_noRW	3	8	0	0	300	300	316	50	0	1	1	blank2r.bmp	0	1	+	0	1	blank2r.bmp	252	1	YDDY	306	3	retten	559	0	0	0	0	0	0	0	0	0	0	0	0	0	0	0	0	0	0	0	0	0	0	0	0	0	0	0	0	0	0	0	0	0	0	0	0	0	0	0
071619	11:43:11	11:49:32	380187	5.0.10.0	5_exp_noRW	54	Rpleas_acq	CS_B	GWWG	YDDY	VKKV	BZZB	JXXJ	MQQM	spielen	treu	schön	fair	ehrlich	retten	strafen	tot	schlecht	faul	eitel	rächen	47pct	acq_USpleas_CSpleas2_noRW	acq23456_noRW	3	9	0	0	300	300	458	50	0	1	1	blank2r.bmp	0	1	+	0	1	blank2r.bmp	252	1	YDDY	306	2	ehrlich	559	0	0	0	0	0	0	0	0	0	0	0	0	0	0	0	0	0	0	0	0	0	0	0	0	0	0	0	0	0	0	0	0	0	0	0	0	0	0	0
071619	11:43:11	11:49:33	381720	5.0.10.0	5_exp_noRW	54	Rpleas_acq	CS_B	GWWG	YDDY	VKKV	BZZB	JXXJ	MQQM	spielen	treu	schön	fair	ehrlich	retten	strafen	tot	schlecht	faul	eitel	rächen	47pct	acq_USpleas_CSpleas2_noRW	acq23456_noRW	3	10	0	0	300	300	358	50	0	1	1	blank2r.bmp	0	1	+	0	1	blank2r.bmp	252	1	YDDY	306	1	fair	559	0	0	0	0	0	0	0	0	0	0	0	0	0	0	0	0	0	0	0	0	0	0	0	0	0	0	0	0	0	0	0	0	0	0	0	0	0	0	0
071619	11:43:11	11:49:35	383532	5.0.10.0	5_exp_noRW	54	Rpleas_acq	CS_B	GWWG	YDDY	VKKV	BZZB	JXXJ	MQQM	spielen	treu	schön	fair	ehrlich	retten	strafen	tot	schlecht	faul	eitel	rächen	53pct	acq_USunple_CSunple2_noRW	acq23456_noRW	3	11	0	0	300	300	412	50	0	0	1	blank2r.bmp	0	1	+	0	1	blank2r.bmp	252	1	BZZB	306	1	faul	559	1	FEHLER	1012	0	0	0	0	0	0	0	0	0	0	0	0	0	0	0	0	0	0	0	0	0	0	0	0	0	0	0	0	0	0	0	0	0	0	0	0
071619	11:43:11	11:49:37	385038	5.0.10.0	5_exp_noRW	54	Rpleas_acq	CS_B	GWWG	YDDY	VKKV	BZZB	JXXJ	MQQM	spielen	treu	schön	fair	ehrlich	retten	strafen	tot	schlecht	faul	eitel	rächen	47pct	acq_USunple_CSunple1_noRW	acq23456_noRW	3	12	0	0	300	300	555	46	0	1	1	blank2r.bmp	0	1	+	0	1	blank2r.bmp	252	1	VKKV	306	3	schlecht	559	0	0	0	0	0	0	0	0	0	0	0	0	0	0	0	0	0	0	0	0	0	0	0	0	0	0	0	0	0	0	0	0	0	0	0	0	0	0	0
071619	11:43:11	11:49:38	386717	5.0.10.0	5_exp_noRW	54	Rpleas_acq	CS_B	GWWG	YDDY	VKKV	BZZB	JXXJ	MQQM	spielen	treu	schön	fair	ehrlich	retten	strafen	tot	schlecht	faul	eitel	rächen	53pct	acq_USunple_CSunple2_noRW	acq23456_noRW	3	13	0	0	300	300	495	46	0	1	1	blank2r.bmp	0	1	+	0	1	blank2r.bmp	252	1	BZZB	306	2	eitel	559	0	0	0	0	0	0	0	0	0	0	0	0	0	0	0	0	0	0	0	0	0	0	0	0	0	0	0	0	0	0	0	0	0	0	0	0	0	0	0
071619	11:43:11	11:49:40	388317	5.0.10.0	5_exp_noRW	54	Rpleas_acq	CS_B	GWWG	YDDY	VKKV	BZZB	JXXJ	MQQM	spielen	treu	schön	fair	ehrlich	retten	strafen	tot	schlecht	faul	eitel	rächen	53pct	acq_USunple_CSpleas1_noRW	acq23456_noRW	3	14	0	0	300	300	433	46	0	1	1	blank2r.bmp	0	1	+	0	1	blank2r.bmp	252	1	GWWG	306	2	tot	559	0	0	0	0	0	0	0	0	0	0	0	0	0	0	0	0	0	0	0	0	0	0	0	0	0	0	0	0	0	0	0	0	0	0	0	0	0	0	0
071619	11:43:11	11:49:41	389796	5.0.10.0	5_exp_noRW	54	Rpleas_acq	CS_B	GWWG	YDDY	VKKV	BZZB	JXXJ	MQQM	spielen	treu	schön	fair	ehrlich	retten	strafen	tot	schlecht	faul	eitel	rächen	53pct	acq_USunple_CSunple1_noRW	acq23456_noRW	3	15	0	0	300	300	305	46	0	1	1	blank2r.bmp	0	1	+	0	1	blank2r.bmp	252	1	VKKV	306	2	tot	559	0	0	0	0	0	0	0	0	0	0	0	0	0	0	0	0	0	0	0	0	0	0	0	0	0	0	0	0	0	0	0	0	0	0	0	0	0	0	0
071619	11:43:11	11:49:43	391356	5.0.10.0	5_exp_noRW	54	Rpleas_acq	CS_B	GWWG	YDDY	VKKV	BZZB	JXXJ	MQQM	spielen	treu	schön	fair	ehrlich	retten	strafen	tot	schlecht	faul	eitel	rächen	53pct	acq_USunple_CSpleas2_noRW	acq23456_noRW	3	16	0	0	300	300	379	46	0	1	1	blank2r.bmp	0	1	+	0	1	blank2r.bmp	252	1	YDDY	306	3	rächen	559	0	0	0	0	0	0	0	0	0	0	0	0	0	0	0	0	0	0	0	0	0	0	0	0	0	0	0	0	0	0	0	0	0	0	0	0	0	0	0
071619	11:43:11	11:49:45	393088	5.0.10.0	5_exp_noRW	54	Rpleas_acq	CS_B	GWWG	YDDY	VKKV	BZZB	JXXJ	MQQM	spielen	treu	schön	fair	ehrlich	retten	strafen	tot	schlecht	faul	eitel	rächen	53pct	acq_USpleas_CSpleas1_noRW	acq23456_noRW	3	17	0	0	300	300	334	46	0	0	1	blank2r.bmp	0	1	+	0	1	blank2r.bmp	252	1	GWWG	306	1	spielen	559	1	FEHLER	932	0	0	0	0	0	0	0	0	0	0	0	0	0	0	0	0	0	0	0	0	0	0	0	0	0	0	0	0	0	0	0	0	0	0	0	0
071619	11:43:11	11:49:46	394541	5.0.10.0	5_exp_noRW	54	Rpleas_acq	CS_B	GWWG	YDDY	VKKV	BZZB	JXXJ	MQQM	spielen	treu	schön	fair	ehrlich	retten	strafen	tot	schlecht	faul	eitel	rächen	53pct	acq_USpleas_CSunple1_noRW	acq23456_noRW	3	18	0	0	300	300	495	50	0	1	1	blank2r.bmp	0	1	+	0	1	blank2r.bmp	252	1	VKKV	306	3	schön	559	0	0	0	0	0	0	0	0	0	0	0	0	0	0	0	0	0	0	0	0	0	0	0	0	0	0	0	0	0	0	0	0	0	0	0	0	0	0	0
071619	11:43:11	11:49:48	396393	5.0.10.0	5_exp_noRW	54	Rpleas_acq	CS_B	GWWG	YDDY	VKKV	BZZB	JXXJ	MQQM	spielen	treu	schön	fair	ehrlich	retten	strafen	tot	schlecht	faul	eitel	rächen	47pct	acq_USunple_CSunple1_noRW	acq23456_noRW	3	19	0	0	300	300	683	46	0	1	1	blank2r.bmp	0	1	+	0	1	blank2r.bmp	252	1	VKKV	306	1	strafen	559	0	0	0	0	0	0	0	0	0	0	0	0	0	0	0	0	0	0	0	0	0	0	0	0	0	0	0	0	0	0	0	0	0	0	0	0	0	0	0
071619	11:43:11	11:49:50	398806	5.0.10.0	5_exp_noRW	54	Rpleas_acq	CS_B	GWWG	YDDY	VKKV	BZZB	JXXJ	MQQM	spielen	treu	schön	fair	ehrlich	retten	strafen	tot	schlecht	faul	eitel	rächen	53pct	acq_USunple_CSunple2_noRW	acq23456_noRW	3	20	0	0	300	300	1228	46	0	1	1	blank2r.bmp	0	1	+	0	1	blank2r.bmp	252	1	BZZB	306	3	rächen	559	0	0	0	0	0	0	0	0	0	0	0	0	0	0	0	0	0	0	0	0	0	0	0	0	0	0	0	0	0	0	0	0	0	0	0	0	0	0	0
071619	11:43:11	11:49:52	400605	5.0.10.0	5_exp_noRW	54	Rpleas_acq	CS_B	GWWG	YDDY	VKKV	BZZB	JXXJ	MQQM	spielen	treu	schön	fair	ehrlich	retten	strafen	tot	schlecht	faul	eitel	rächen	53pct	acq_USunple_CSunple1_noRW	acq23456_noRW	3	21	0	0	300	300	632	46	0	1	1	blank2r.bmp	0	1	+	0	1	blank2r.bmp	252	1	VKKV	306	1	strafen	559	0	0	0	0	0	0	0	0	0	0	0	0	0	0	0	0	0	0	0	0	0	0	0	0	0	0	0	0	0	0	0	0	0	0	0	0	0	0	0
071619	11:43:11	11:49:54	402258	5.0.10.0	5_exp_noRW	54	Rpleas_acq	CS_B	GWWG	YDDY	VKKV	BZZB	JXXJ	MQQM	spielen	treu	schön	fair	ehrlich	retten	strafen	tot	schlecht	faul	eitel	rächen	47pct	acq_USpleas_CSpleas2_noRW	acq23456_noRW	3	22	0	0	300	300	469	50	0	1	1	blank2r.bmp	0	1	+	0	1	blank2r.bmp	252	1	YDDY	306	3	retten	559	0	0	0	0	0	0	0	0	0	0	0	0	0	0	0	0	0	0	0	0	0	0	0	0	0	0	0	0	0	0	0	0	0	0	0	0	0	0	0
071619	11:43:11	11:49:55	403884	5.0.10.0	5_exp_noRW	54	Rpleas_acq	CS_B	GWWG	YDDY	VKKV	BZZB	JXXJ	MQQM	spielen	treu	schön	fair	ehrlich	retten	strafen	tot	schlecht	faul	eitel	rächen	47pct	acq_USpleas_CSpleas1_noRW	acq23456_noRW	3	23	0	0	300	300	446	50	0	1	1	blank2r.bmp	0	1	+	0	1	blank2r.bmp	252	1	GWWG	306	1	spielen	559	0	0	0	0	0	0	0	0	0	0	0	0	0	0	0	0	0	0	0	0	0	0	0	0	0	0	0	0	0	0	0	0	0	0	0	0	0	0	0
071619	11:43:11	11:49:57	405576	5.0.10.0	5_exp_noRW	54	Rpleas_acq	CS_B	GWWG	YDDY	VKKV	BZZB	JXXJ	MQQM	spielen	treu	schön	fair	ehrlich	retten	strafen	tot	schlecht	faul	eitel	rächen	53pct	acq_USpleas_CSpleas2_noRW	acq23456_noRW	3	24	0	0	300	300	527	50	0	1	1	blank2r.bmp	0	1	+	0	1	blank2r.bmp	252	1	YDDY	306	2	ehrlich	559	0	0	0	0	0	0	0	0	0	0	0	0	0	0	0	0	0	0	0	0	0	0	0	0	0	0	0	0	0	0	0	0	0	0	0	0	0	0	0
071619	11:43:11	11:49:59	407242	5.0.10.0	5_exp_noRW	54	Rpleas_acq	CS_B	GWWG	YDDY	VKKV	BZZB	JXXJ	MQQM	spielen	treu	schön	fair	ehrlich	retten	strafen	tot	schlecht	faul	eitel	rächen	47pct	acq_USunple_CSunple2_noRW	acq23456_noRW	3	25	0	0	300	300	488	46	0	1	1	blank2r.bmp	0	1	+	0	1	blank2r.bmp	252	1	BZZB	306	3	rächen	559	0	0	0	0	0	0	0	0	0	0	0	0	0	0	0	0	0	0	0	0	0	0	0	0	0	0	0	0	0	0	0	0	0	0	0	0	0	0	0
071619	11:43:11	11:50:01	409201	5.0.10.0	5_exp_noRW	54	Rpleas_acq	CS_B	GWWG	YDDY	VKKV	BZZB	JXXJ	MQQM	spielen	treu	schön	fair	ehrlich	retten	strafen	tot	schlecht	faul	eitel	rächen	53pct	acq_USpleas_CSpleas2_noRW	acq23456_noRW	3	26	0	0	300	300	784	50	0	1	1	blank2r.bmp	0	1	+	0	1	blank2r.bmp	252	1	YDDY	306	1	fair	559	0	0	0	0	0	0	0	0	0	0	0	0	0	0	0	0	0	0	0	0	0	0	0	0	0	0	0	0	0	0	0	0	0	0	0	0	0	0	0
071619	11:43:11	11:50:02	410747	5.0.10.0	5_exp_noRW	54	Rpleas_acq	CS_B	GWWG	YDDY	VKKV	BZZB	JXXJ	MQQM	spielen	treu	schön	fair	ehrlich	retten	strafen	tot	schlecht	faul	eitel	rächen	47pct	acq_USpleas_CSpleas2_noRW	acq23456_noRW	3	27	0	0	300	300	363	50	0	1	1	blank2r.bmp	0	1	+	0	1	blank2r.bmp	252	1	YDDY	306	1	fair	559	0	0	0	0	0	0	0	0	0	0	0	0	0	0	0	0	0	0	0	0	0	0	0	0	0	0	0	0	0	0	0	0	0	0	0	0	0	0	0
071619	11:43:11	11:50:04	412240	5.0.10.0	5_exp_noRW	54	Rpleas_acq	CS_B	GWWG	YDDY	VKKV	BZZB	JXXJ	MQQM	spielen	treu	schön	fair	ehrlich	retten	strafen	tot	schlecht	faul	eitel	rächen	53pct	acq_USpleas_CSpleas1_noRW	acq23456_noRW	3	28	0	0	300	300	325	50	0	1	1	blank2r.bmp	0	1	+	0	1	blank2r.bmp	252	1	GWWG	306	3	schön	559	0	0	0	0	0	0	0	0	0	0	0	0	0	0	0	0	0	0	0	0	0	0	0	0	0	0	0	0	0	0	0	0	0	0	0	0	0	0	0
071619	11:43:11	11:50:05	413826	5.0.10.0	5_exp_noRW	54	Rpleas_acq	CS_B	GWWG	YDDY	VKKV	BZZB	JXXJ	MQQM	spielen	treu	schön	fair	ehrlich	retten	strafen	tot	schlecht	faul	eitel	rächen	47pct	acq_USunple_CSpleas1_noRW	acq23456_noRW	3	29	0	0	300	300	405	46	0	1	1	blank2r.bmp	0	1	+	0	1	blank2r.bmp	252	1	GWWG	306	2	tot	559	0	0	0	0	0	0	0	0	0	0	0	0	0	0	0	0	0	0	0	0	0	0	0	0	0	0	0	0	0	0	0	0	0	0	0	0	0	0	0
071619	11:43:11	11:50:07	415346	5.0.10.0	5_exp_noRW	54	Rpleas_acq	CS_B	GWWG	YDDY	VKKV	BZZB	JXXJ	MQQM	spielen	treu	schön	fair	ehrlich	retten	strafen	tot	schlecht	faul	eitel	rächen	53pct	acq_USunple_CSunple1_noRW	acq23456_noRW	3	30	0	0	300	300	354	46	0	1	1	blank2r.bmp	0	1	+	0	1	blank2r.bmp	252	1	VKKV	306	3	schlecht	559	0	0	0	0	0	0	0	0	0	0	0	0	0	0	0	0	0	0	0	0	0	0	0	0	0	0	0	0	0	0	0	0	0	0	0	0	0	0	0
071619	11:43:11	11:50:09	416958	5.0.10.0	5_exp_noRW	54	Rpleas_acq	CS_B	GWWG	YDDY	VKKV	BZZB	JXXJ	MQQM	spielen	treu	schön	fair	ehrlich	retten	strafen	tot	schlecht	faul	eitel	rächen	47pct	acq_USunple_CSpleas2_noRW	acq23456_noRW	3	31	0	0	300	300	425	46	0	1	1	blank2r.bmp	0	1	+	0	1	blank2r.bmp	252	1	YDDY	306	1	faul	559	0	0	0	0	0	0	0	0	0	0	0	0	0	0	0	0	0	0	0	0	0	0	0	0	0	0	0	0	0	0	0	0	0	0	0	0	0	0	0
071619	11:43:11	11:50:10	418504	5.0.10.0	5_exp_noRW	54	Rpleas_acq	CS_B	GWWG	YDDY	VKKV	BZZB	JXXJ	MQQM	spielen	treu	schön	fair	ehrlich	retten	strafen	tot	schlecht	faul	eitel	rächen	47pct	acq_USunple_CSunple2_noRW	acq23456_noRW	3	32	0	0	300	300	382	46	0	1	1	blank2r.bmp	0	1	+	0	1	blank2r.bmp	252	1	BZZB	306	1	faul	559	0	0	0	0	0	0	0	0	0	0	0	0	0	0	0	0	0	0	0	0	0	0	0	0	0	0	0	0	0	0	0	0	0	0	0	0	0	0	0
071619	11:43:11	11:50:12	420184	5.0.10.0	5_exp_noRW	54	Rpleas_acq	CS_B	GWWG	YDDY	VKKV	BZZB	JXXJ	MQQM	spielen	treu	schön	fair	ehrlich	retten	strafen	tot	schlecht	faul	eitel	rächen	47pct	acq_USunple_CSunple2_noRW	acq23456_noRW	3	33	0	0	300	300	499	46	0	1	1	blank2r.bmp	0	1	+	0	1	blank2r.bmp	252	1	BZZB	306	2	eitel	559	0	0	0	0	0	0	0	0	0	0	0	0	0	0	0	0	0	0	0	0	0	0	0	0	0	0	0	0	0	0	0	0	0	0	0	0	0	0	0
071619	11:43:11	11:50:13	421836	5.0.10.0	5_exp_noRW	54	Rpleas_acq	CS_B	GWWG	YDDY	VKKV	BZZB	JXXJ	MQQM	spielen	treu	schön	fair	ehrlich	retten	strafen	tot	schlecht	faul	eitel	rächen	53pct	acq_USpleas_CSunple2_noRW	acq23456_noRW	3	34	0	0	300	300	468	50	0	1	1	blank2r.bmp	0	1	+	0	1	blank2r.bmp	252	1	BZZB	306	2	ehrlich	559	0	0	0	0	0	0	0	0	0	0	0	0	0	0	0	0	0	0	0	0	0	0	0	0	0	0	0	0	0	0	0	0	0	0	0	0	0	0	0
071619	11:43:11	11:50:15	423395	5.0.10.0	5_exp_noRW	54	Rpleas_acq	CS_B	GWWG	YDDY	VKKV	BZZB	JXXJ	MQQM	spielen	treu	schön	fair	ehrlich	retten	strafen	tot	schlecht	faul	eitel	rächen	47pct	acq_USpleas_CSpleas1_noRW	acq23456_noRW	3	35	0	0	300	300	376	50	0	1	1	blank2r.bmp	0	1	+	0	1	blank2r.bmp	252	1	GWWG	306	2	treu	559	0	0	0	0	0	0	0	0	0	0	0	0	0	0	0	0	0	0	0	0	0	0	0	0	0	0	0	0	0	0	0	0	0	0	0	0	0	0	0
071619	11:43:11	11:50:17	424955	5.0.10.0	5_exp_noRW	54	Rpleas_acq	CS_B	GWWG	YDDY	VKKV	BZZB	JXXJ	MQQM	spielen	treu	schön	fair	ehrlich	retten	strafen	tot	schlecht	faul	eitel	rächen	53pct	acq_USunple_CSunple1_noRW	acq23456_noRW	3	36	0	0	300	300	380	46	0	1	1	blank2r.bmp	0	1	+	0	1	blank2r.bmp	252	1	VKKV	306	2	tot	559	0	0	0	0	0	0	0	0	0	0	0	0	0	0	0	0	0	0	0	0	0	0	0	0	0	0	0	0	0	0	0	0	0	0	0	0	0	0	0
071619	11:43:11	11:50:18	426541	5.0.10.0	5_exp_noRW	54	Rpleas_acq	CS_B	GWWG	YDDY	VKKV	BZZB	JXXJ	MQQM	spielen	treu	schön	fair	ehrlich	retten	strafen	tot	schlecht	faul	eitel	rächen	53pct	acq_USpleas_CSpleas1_noRW	acq23456_noRW	3	37	0	0	300	300	404	50	0	1	1	blank2r.bmp	0	1	+	0	1	blank2r.bmp	252	1	GWWG	306	3	schön	559	0	0	0	0	0	0	0	0	0	0	0	0	0	0	0	0	0	0	0	0	0	0	0	0	0	0	0	0	0	0	0	0	0	0	0	0	0	0	0
071619	11:43:11	11:50:20	428020	5.0.10.0	5_exp_noRW	54	Rpleas_acq	CS_B	GWWG	YDDY	VKKV	BZZB	JXXJ	MQQM	spielen	treu	schön	fair	ehrlich	retten	strafen	tot	schlecht	faul	eitel	rächen	53pct	acq_USpleas_CSunple1_noRW	acq23456_noRW	3	38	0	0	300	300	316	50	0	1	1	blank2r.bmp	0	1	+	0	1	blank2r.bmp	252	1	VKKV	306	3	schön	559	0	0	0	0	0	0	0	0	0	0	0	0	0	0	0	0	0	0	0	0	0	0	0	0	0	0	0	0	0	0	0	0	0	0	0	0	0	0	0
071619	11:43:11	11:50:21	429473	5.0.10.0	5_exp_noRW	54	Rpleas_acq	CS_B	GWWG	YDDY	VKKV	BZZB	JXXJ	MQQM	spielen	treu	schön	fair	ehrlich	retten	strafen	tot	schlecht	faul	eitel	rächen	47pct	acq_USunple_CSunple2_noRW	acq23456_noRW	3	39	0	0	300	300	276	46	0	1	1	blank2r.bmp	0	1	+	0	1	blank2r.bmp	252	1	BZZB	306	2	eitel	559	0	0	0	0	0	0	0	0	0	0	0	0	0	0	0	0	0	0	0	0	0	0	0	0	0	0	0	0	0	0	0	0	0	0	0	0	0	0	0
071619	11:43:11	11:50:23	431059	5.0.10.0	5_exp_noRW	54	Rpleas_acq	CS_B	GWWG	YDDY	VKKV	BZZB	JXXJ	MQQM	spielen	treu	schön	fair	ehrlich	retten	strafen	tot	schlecht	faul	eitel	rächen	47pct	acq_USunple_CSunple1_noRW	acq23456_noRW	3	40	0	0	300	300	405	46	0	1	1	blank2r.bmp	0	1	+	0	1	blank2r.bmp	252	1	VKKV	306	3	schlecht	559	0	0	0	0	0	0	0	0	0	0	0	0	0	0	0	0	0	0	0	0	0	0	0	0	0	0	0	0	0	0	0	0	0	0	0	0	0	0	0
071619	11:43:11	11:50:24	432658	5.0.10.0	5_exp_noRW	54	Rpleas_acq	CS_B	GWWG	YDDY	VKKV	BZZB	JXXJ	MQQM	spielen	treu	schön	fair	ehrlich	retten	strafen	tot	schlecht	faul	eitel	rächen	53pct	acq_USunple_CSpleas1_noRW	acq23456_noRW	3	41	0	0	300	300	437	46	0	1	1	blank2r.bmp	0	1	+	0	1	blank2r.bmp	252	1	GWWG	306	3	schlecht	559	0	0	0	0	0	0	0	0	0	0	0	0	0	0	0	0	0	0	0	0	0	0	0	0	0	0	0	0	0	0	0	0	0	0	0	0	0	0	0
071619	11:43:11	11:50:26	434218	5.0.10.0	5_exp_noRW	54	Rpleas_acq	CS_B	GWWG	YDDY	VKKV	BZZB	JXXJ	MQQM	spielen	treu	schön	fair	ehrlich	retten	strafen	tot	schlecht	faul	eitel	rächen	53pct	acq_USpleas_CSpleas1_noRW	acq23456_noRW	3	42	0	0	300	300	381	50	0	1	1	blank2r.bmp	0	1	+	0	1	blank2r.bmp	252	1	GWWG	306	1	spielen	559	0	0	0	0	0	0	0	0	0	0	0	0	0	0	0	0	0	0	0	0	0	0	0	0	0	0	0	0	0	0	0	0	0	0	0	0	0	0	0
071619	11:43:11	11:50:28	436537	5.0.10.0	5_exp_noRW	54	Rpleas_acq	CS_B	GWWG	YDDY	VKKV	BZZB	JXXJ	MQQM	spielen	treu	schön	fair	ehrlich	retten	strafen	tot	schlecht	faul	eitel	rächen	53pct	acq_USpleas_CSpleas2_noRW	acq23456_noRW	3	43	0	0	300	300	1136	50	0	1	1	blank2r.bmp	0	1	+	0	1	blank2r.bmp	252	1	YDDY	306	2	ehrlich	559	0	0	0	0	0	0	0	0	0	0	0	0	0	0	0	0	0	0	0	0	0	0	0	0	0	0	0	0	0	0	0	0	0	0	0	0	0	0	0
071619	11:43:11	11:50:30	438109	5.0.10.0	5_exp_noRW	54	Rpleas_acq	CS_B	GWWG	YDDY	VKKV	BZZB	JXXJ	MQQM	spielen	treu	schön	fair	ehrlich	retten	strafen	tot	schlecht	faul	eitel	rächen	53pct	acq_USpleas_CSpleas1_noRW	acq23456_noRW	3	44	0	0	300	300	405	50	0	1	1	blank2r.bmp	0	1	+	0	1	blank2r.bmp	252	1	GWWG	306	2	treu	559	0	0	0	0	0	0	0	0	0	0	0	0	0	0	0	0	0	0	0	0	0	0	0	0	0	0	0	0	0	0	0	0	0	0	0	0	0	0	0
071619	11:43:11	11:50:33	441814	5.0.10.0	5_exp_noRW	54	Rpleas_acq	CS_B	GWWG	YDDY	VKKV	BZZB	JXXJ	MQQM	spielen	treu	schön	fair	ehrlich	retten	strafen	tot	schlecht	faul	eitel	rächen	47pct	acq_USpleas_CSpleas2_noRW	acq23456_noRW	3	45	0	0	300	300	2000	0	0	0	1	blank2r.bmp	0	1	+	0	1	blank2r.bmp	252	1	YDDY	306	3	retten	559	1	FEHLER	2598	1	Schneller!	2598	0	0	0	0	0	0	0	0	0	0	0	0	0	0	0	0	0	0	0	0	0	0	0	0	0	0	0	0	0	0	0	0	0
071619	11:43:11	11:50:35	443174	5.0.10.0	5_exp_noRW	54	Rpleas_acq	CS_B	GWWG	YDDY	VKKV	BZZB	JXXJ	MQQM	spielen	treu	schön	fair	ehrlich	retten	strafen	tot	schlecht	faul	eitel	rächen	53pct	acq_USunple_CSpleas2_noRW	acq23456_noRW	3	46	0	0	300	300	459	46	0	1	1	blank2r.bmp	0	1	+	0	1	blank2r.bmp	252	1	YDDY	306	2	eitel	559	0	0	0	0	0	0	0	0	0	0	0	0	0	0	0	0	0	0	0	0	0	0	0	0	0	0	0	0	0	0	0	0	0	0	0	0	0	0	0
071619	11:43:11	11:50:36	444773	5.0.10.0	5_exp_noRW	54	Rpleas_acq	CS_B	GWWG	YDDY	VKKV	BZZB	JXXJ	MQQM	spielen	treu	schön	fair	ehrlich	retten	strafen	tot	schlecht	faul	eitel	rächen	47pct	acq_USunple_CSunple2_noRW	acq23456_noRW	3	47	0	0	300	300	421	46	0	1	1	blank2r.bmp	0	1	+	0	1	blank2r.bmp	252	1	BZZB	306	1	faul	559	0	0	0	0	0	0	0	0	0	0	0	0	0	0	0	0	0	0	0	0	0	0	0	0	0	0	0	0	0	0	0	0	0	0	0	0	0	0	0
071619	11:43:11	11:50:38	446466	5.0.10.0	5_exp_noRW	54	Rpleas_acq	CS_B	GWWG	YDDY	VKKV	BZZB	JXXJ	MQQM	spielen	treu	schön	fair	ehrlich	retten	strafen	tot	schlecht	faul	eitel	rächen	47pct	acq_USpleas_CSunple2_noRW	acq23456_noRW	3	48	0	0	300	300	313	46	0	0	1	blank2r.bmp	0	1	+	0	1	blank2r.bmp	252	1	BZZB	306	1	fair	559	1	FEHLER	906	0	0	0	0	0	0	0	0	0	0	0	0	0	0	0	0	0	0	0	0	0	0	0	0	0	0	0	0	0	0	0	0	0	0	0	0
071619	11:43:11	11:50:40	447919	5.0.10.0	5_exp_noRW	54	Rpleas_acq	CS_B	GWWG	YDDY	VKKV	BZZB	JXXJ	MQQM	spielen	treu	schön	fair	ehrlich	retten	strafen	tot	schlecht	faul	eitel	rächen	47pct	acq_USunple_CSunple2_noRW	acq23456_noRW	3	49	0	0	300	300	484	46	0	1	1	blank2r.bmp	0	1	+	0	1	blank2r.bmp	252	1	BZZB	306	3	rächen	559	0	0	0	0	0	0	0	0	0	0	0	0	0	0	0	0	0	0	0	0	0	0	0	0	0	0	0	0	0	0	0	0	0	0	0	0	0	0	0
071619	11:43:11	11:50:41	449491	5.0.10.0	5_exp_noRW	54	Rpleas_acq	CS_B	GWWG	YDDY	VKKV	BZZB	JXXJ	MQQM	spielen	treu	schön	fair	ehrlich	retten	strafen	tot	schlecht	faul	eitel	rächen	47pct	acq_USunple_CSunple2_noRW	acq23456_noRW	3	50	0	0	300	300	390	46	0	1	1	blank2r.bmp	0	1	+	0	1	blank2r.bmp	252	1	BZZB	306	3	rächen	559	0	0	0	0	0	0	0	0	0	0	0	0	0	0	0	0	0	0	0	0	0	0	0	0	0	0	0	0	0	0	0	0	0	0	0	0	0	0	0
071619	11:43:11	11:50:43	451091	5.0.10.0	5_exp_noRW	54	Rpleas_acq	CS_B	GWWG	YDDY	VKKV	BZZB	JXXJ	MQQM	spielen	treu	schön	fair	ehrlich	retten	strafen	tot	schlecht	faul	eitel	rächen	53pct	acq_USpleas_CSpleas2_noRW	acq23456_noRW	3	51	0	0	300	300	417	50	0	1	1	blank2r.bmp	0	1	+	0	1	blank2r.bmp	252	1	YDDY	306	1	fair	559	0	0	0	0	0	0	0	0	0	0	0	0	0	0	0	0	0	0	0	0	0	0	0	0	0	0	0	0	0	0	0	0	0	0	0	0	0	0	0
071619	11:43:11	11:50:44	452610	5.0.10.0	5_exp_noRW	54	Rpleas_acq	CS_B	GWWG	YDDY	VKKV	BZZB	JXXJ	MQQM	spielen	treu	schön	fair	ehrlich	retten	strafen	tot	schlecht	faul	eitel	rächen	47pct	acq_USpleas_CSpleas1_noRW	acq23456_noRW	3	52	0	0	300	300	349	50	0	1	1	blank2r.bmp	0	1	+	0	1	blank2r.bmp	252	1	GWWG	306	3	schön	559	0	0	0	0	0	0	0	0	0	0	0	0	0	0	0	0	0	0	0	0	0	0	0	0	0	0	0	0	0	0	0	0	0	0	0	0	0	0	0
071619	11:43:11	11:50:47	454916	5.0.10.0	5_exp_noRW	54	Rpleas_acq	CS_B	GWWG	YDDY	VKKV	BZZB	JXXJ	MQQM	spielen	treu	schön	fair	ehrlich	retten	strafen	tot	schlecht	faul	eitel	rächen	53pct	acq_USunple_CSunple1_noRW	acq23456_noRW	3	53	0	0	300	300	1133	46	0	1	1	blank2r.bmp	0	1	+	0	1	blank2r.bmp	252	1	VKKV	306	1	strafen	559	0	0	0	0	0	0	0	0	0	0	0	0	0	0	0	0	0	0	0	0	0	0	0	0	0	0	0	0	0	0	0	0	0	0	0	0	0	0	0
071619	11:43:11	11:50:48	456542	5.0.10.0	5_exp_noRW	54	Rpleas_acq	CS_B	GWWG	YDDY	VKKV	BZZB	JXXJ	MQQM	spielen	treu	schön	fair	ehrlich	retten	strafen	tot	schlecht	faul	eitel	rächen	47pct	acq_USpleas_CSpleas2_noRW	acq23456_noRW	3	54	0	0	300	300	457	50	0	1	1	blank2r.bmp	0	1	+	0	1	blank2r.bmp	252	1	YDDY	306	2	ehrlich	559	0	0	0	0	0	0	0	0	0	0	0	0	0	0	0	0	0	0	0	0	0	0	0	0	0	0	0	0	0	0	0	0	0	0	0	0	0	0	0
071619	11:43:11	11:50:50	458141	5.0.10.0	5_exp_noRW	54	Rpleas_acq	CS_B	GWWG	YDDY	VKKV	BZZB	JXXJ	MQQM	spielen	treu	schön	fair	ehrlich	retten	strafen	tot	schlecht	faul	eitel	rächen	47pct	acq_USunple_CSunple1_noRW	acq23456_noRW	3	55	0	0	300	300	438	46	0	1	1	blank2r.bmp	0	1	+	0	1	blank2r.bmp	252	1	VKKV	306	2	tot	559	0	0	0	0	0	0	0	0	0	0	0	0	0	0	0	0	0	0	0	0	0	0	0	0	0	0	0	0	0	0	0	0	0	0	0	0	0	0	0
071619	11:43:11	11:50:52	460007	5.0.10.0	5_exp_noRW	54	Rpleas_acq	CS_B	GWWG	YDDY	VKKV	BZZB	JXXJ	MQQM	spielen	treu	schön	fair	ehrlich	retten	strafen	tot	schlecht	faul	eitel	rächen	47pct	acq_USunple_CSunple1_noRW	acq23456_noRW	3	56	0	0	300	300	461	50	0	0	1	blank2r.bmp	0	1	+	0	1	blank2r.bmp	252	1	VKKV	306	1	strafen	559	1	FEHLER	1052	0	0	0	0	0	0	0	0	0	0	0	0	0	0	0	0	0	0	0	0	0	0	0	0	0	0	0	0	0	0	0	0	0	0	0	0
071619	11:43:11	11:50:53	461460	5.0.10.0	5_exp_noRW	54	Rpleas_acq	CS_B	GWWG	YDDY	VKKV	BZZB	JXXJ	MQQM	spielen	treu	schön	fair	ehrlich	retten	strafen	tot	schlecht	faul	eitel	rächen	47pct	acq_USunple_CSunple2_noRW	acq23456_noRW	3	57	0	0	300	300	493	46	0	1	1	blank2r.bmp	0	1	+	0	1	blank2r.bmp	252	1	BZZB	306	2	eitel	559	0	0	0	0	0	0	0	0	0	0	0	0	0	0	0	0	0	0	0	0	0	0	0	0	0	0	0	0	0	0	0	0	0	0	0	0	0	0	0
071619	11:43:11	11:50:55	463139	5.0.10.0	5_exp_noRW	54	Rpleas_acq	CS_B	GWWG	YDDY	VKKV	BZZB	JXXJ	MQQM	spielen	treu	schön	fair	ehrlich	retten	strafen	tot	schlecht	faul	eitel	rächen	53pct	acq_USpleas_CSpleas1_noRW	acq23456_noRW	3	58	0	0	300	300	504	50	0	1	1	blank2r.bmp	0	1	+	0	1	blank2r.bmp	252	1	GWWG	306	2	treu	559	0	0	0	0	0	0	0	0	0	0	0	0	0	0	0	0	0	0	0	0	0	0	0	0	0	0	0	0	0	0	0	0	0	0	0	0	0	0	0
071619	11:43:11	11:50:56	464805	5.0.10.0	5_exp_noRW	54	Rpleas_acq	CS_B	GWWG	YDDY	VKKV	BZZB	JXXJ	MQQM	spielen	treu	schön	fair	ehrlich	retten	strafen	tot	schlecht	faul	eitel	rächen	47pct	acq_USpleas_CSunple1_noRW	acq23456_noRW	3	59	0	0	300	300	487	50	0	1	1	blank2r.bmp	0	1	+	0	1	blank2r.bmp	252	1	VKKV	306	2	treu	559	0	0	0	0	0	0	0	0	0	0	0	0	0	0	0	0	0	0	0	0	0	0	0	0	0	0	0	0	0	0	0	0	0	0	0	0	0	0	0
071619	11:43:11	11:50:58	466484	5.0.10.0	5_exp_noRW	54	Rpleas_acq	CS_B	GWWG	YDDY	VKKV	BZZB	JXXJ	MQQM	spielen	treu	schön	fair	ehrlich	retten	strafen	tot	schlecht	faul	eitel	rächen	53pct	acq_USunple_CSunple1_noRW	acq23456_noRW	3	60	0	0	300	300	510	46	0	1	1	blank2r.bmp	0	1	+	0	1	blank2r.bmp	252	1	VKKV	306	3	schlecht	559	0	0	0	0	0	0	0	0	0	0	0	0	0	0	0	0	0	0	0	0	0	0	0	0	0	0	0	0	0	0	0	0	0	0	0	0	0	0	0
071619	11:43:11	11:51:00	468737	5.0.10.0	5_exp_noRW	54	Rpleas_acq	CS_B	GWWG	YDDY	VKKV	BZZB	JXXJ	MQQM	spielen	treu	schön	fair	ehrlich	retten	strafen	tot	schlecht	faul	eitel	rächen	47pct	acq_USunple_CSpleas1_noRW	acq23456_noRW	3	61	0	0	300	300	1072	46	0	1	1	blank2r.bmp	0	1	+	0	1	blank2r.bmp	252	1	GWWG	306	1	strafen	559	0	0	0	0	0	0	0	0	0	0	0	0	0	0	0	0	0	0	0	0	0	0	0	0	0	0	0	0	0	0	0	0	0	0	0	0	0	0	0
071619	11:43:11	11:51:02	470269	5.0.10.0	5_exp_noRW	54	Rpleas_acq	CS_B	GWWG	YDDY	VKKV	BZZB	JXXJ	MQQM	spielen	treu	schön	fair	ehrlich	retten	strafen	tot	schlecht	faul	eitel	rächen	53pct	acq_USunple_CSunple1_noRW	acq23456_noRW	3	62	0	0	300	300	358	46	0	1	1	blank2r.bmp	0	1	+	0	1	blank2r.bmp	252	1	VKKV	306	2	tot	559	0	0	0	0	0	0	0	0	0	0	0	0	0	0	0	0	0	0	0	0	0	0	0	0	0	0	0	0	0	0	0	0	0	0	0	0	0	0	0
071619	11:43:11	11:51:04	471895	5.0.10.0	5_exp_noRW	54	Rpleas_acq	CS_B	GWWG	YDDY	VKKV	BZZB	JXXJ	MQQM	spielen	treu	schön	fair	ehrlich	retten	strafen	tot	schlecht	faul	eitel	rächen	53pct	acq_USpleas_CSpleas1_noRW	acq23456_noRW	3	63	0	0	300	300	455	50	0	1	1	blank2r.bmp	0	1	+	0	1	blank2r.bmp	252	1	GWWG	306	1	spielen	559	0	0	0	0	0	0	0	0	0	0	0	0	0	0	0	0	0	0	0	0	0	0	0	0	0	0	0	0	0	0	0	0	0	0	0	0	0	0	0
071619	11:43:11	11:51:05	473455	5.0.10.0	5_exp_noRW	54	Rpleas_acq	CS_B	GWWG	YDDY	VKKV	BZZB	JXXJ	MQQM	spielen	treu	schön	fair	ehrlich	retten	strafen	tot	schlecht	faul	eitel	rächen	53pct	acq_USunple_CSunple1_noRW	acq23456_noRW	3	64	0	0	300	300	373	46	0	1	1	blank2r.bmp	0	1	+	0	1	blank2r.bmp	252	1	VKKV	306	1	strafen	559	0	0	0	0	0	0	0	0	0	0	0	0	0	0	0	0	0	0	0	0	0	0	0	0	0	0	0	0	0	0	0	0	0	0	0	0	0	0	0
071619	11:43:11	11:51:07	475347	5.0.10.0	5_exp_noRW	54	Rpleas_acq	CS_B	GWWG	YDDY	VKKV	BZZB	JXXJ	MQQM	spielen	treu	schön	fair	ehrlich	retten	strafen	tot	schlecht	faul	eitel	rächen	53pct	acq_USunple_CSunple2_noRW	acq23456_noRW	3	65	0	0	300	300	722	46	0	1	1	blank2r.bmp	0	1	+	0	1	blank2r.bmp	252	1	BZZB	306	1	faul	559	0	0	0	0	0	0	0	0	0	0	0	0	0	0	0	0	0	0	0	0	0	0	0	0	0	0	0	0	0	0	0	0	0	0	0	0	0	0	0
071619	11:43:11	11:51:09	476933	5.0.10.0	5_exp_noRW	54	Rpleas_acq	CS_B	GWWG	YDDY	VKKV	BZZB	JXXJ	MQQM	spielen	treu	schön	fair	ehrlich	retten	strafen	tot	schlecht	faul	eitel	rächen	53pct	acq_USunple_CSunple1_noRW	acq23456_noRW	3	66	0	0	300	300	414	46	0	1	1	blank2r.bmp	0	1	+	0	1	blank2r.bmp	252	1	VKKV	306	2	tot	559	0	0	0	0	0	0	0	0	0	0	0	0	0	0	0	0	0	0	0	0	0	0	0	0	0	0	0	0	0	0	0	0	0	0	0	0	0	0	0
071619	11:43:11	11:51:10	478546	5.0.10.0	5_exp_noRW	54	Rpleas_acq	CS_B	GWWG	YDDY	VKKV	BZZB	JXXJ	MQQM	spielen	treu	schön	fair	ehrlich	retten	strafen	tot	schlecht	faul	eitel	rächen	53pct	acq_USunple_CSunple2_noRW	acq23456_noRW	3	67	0	0	300	300	435	46	0	1	1	blank2r.bmp	0	1	+	0	1	blank2r.bmp	252	1	BZZB	306	3	rächen	559	0	0	0	0	0	0	0	0	0	0	0	0	0	0	0	0	0	0	0	0	0	0	0	0	0	0	0	0	0	0	0	0	0	0	0	0	0	0	0
071619	11:43:11	11:51:12	480212	5.0.10.0	5_exp_noRW	54	Rpleas_acq	CS_B	GWWG	YDDY	VKKV	BZZB	JXXJ	MQQM	spielen	treu	schön	fair	ehrlich	retten	strafen	tot	schlecht	faul	eitel	rächen	53pct	acq_USpleas_CSpleas2_noRW	acq23456_noRW	3	68	0	0	300	300	501	50	0	1	1	blank2r.bmp	0	1	+	0	1	blank2r.bmp	252	1	YDDY	306	3	retten	559	0	0	0	0	0	0	0	0	0	0	0	0	0	0	0	0	0	0	0	0	0	0	0	0	0	0	0	0	0	0	0	0	0	0	0	0	0	0	0
071619	11:43:11	11:51:14	482064	5.0.10.0	5_exp_noRW	54	Rpleas_acq	CS_B	GWWG	YDDY	VKKV	BZZB	JXXJ	MQQM	spielen	treu	schön	fair	ehrlich	retten	strafen	tot	schlecht	faul	eitel	rächen	47pct	acq_USunple_CSunple1_noRW	acq23456_noRW	3	69	0	0	300	300	666	46	0	1	1	blank2r.bmp	0	1	+	0	1	blank2r.bmp	252	1	VKKV	306	3	schlecht	559	0	0	0	0	0	0	0	0	0	0	0	0	0	0	0	0	0	0	0	0	0	0	0	0	0	0	0	0	0	0	0	0	0	0	0	0	0	0	0
071619	11:43:11	11:51:15	483717	5.0.10.0	5_exp_noRW	54	Rpleas_acq	CS_B	GWWG	YDDY	VKKV	BZZB	JXXJ	MQQM	spielen	treu	schön	fair	ehrlich	retten	strafen	tot	schlecht	faul	eitel	rächen	47pct	acq_USpleas_CSpleas1_noRW	acq23456_noRW	3	70	0	0	300	300	484	50	0	1	1	blank2r.bmp	0	1	+	0	1	blank2r.bmp	252	1	GWWG	306	1	spielen	559	0	0	0	0	0	0	0	0	0	0	0	0	0	0	0	0	0	0	0	0	0	0	0	0	0	0	0	0	0	0	0	0	0	0	0	0	0	0	0
071619	11:43:11	11:51:17	485529	5.0.10.0	5_exp_noRW	54	Rpleas_acq	CS_B	GWWG	YDDY	VKKV	BZZB	JXXJ	MQQM	spielen	treu	schön	fair	ehrlich	retten	strafen	tot	schlecht	faul	eitel	rächen	53pct	acq_USpleas_CSunple1_noRW	acq23456_noRW	3	71	0	0	300	300	629	50	0	1	1	blank2r.bmp	0	1	+	0	1	blank2r.bmp	252	1	VKKV	306	1	spielen	559	0	0	0	0	0	0	0	0	0	0	0	0	0	0	0	0	0	0	0	0	0	0	0	0	0	0	0	0	0	0	0	0	0	0	0	0	0	0	0
071619	11:43:11	11:51:19	487235	5.0.10.0	5_exp_noRW	54	Rpleas_acq	CS_B	GWWG	YDDY	VKKV	BZZB	JXXJ	MQQM	spielen	treu	schön	fair	ehrlich	retten	strafen	tot	schlecht	faul	eitel	rächen	47pct	acq_USunple_CSpleas2_noRW	acq23456_noRW	3	72	0	0	300	300	524	46	0	1	1	blank2r.bmp	0	1	+	0	1	blank2r.bmp	252	1	YDDY	306	3	rächen	559	0	0	0	0	0	0	0	0	0	0	0	0	0	0	0	0	0	0	0	0	0	0	0	0	0	0	0	0	0	0	0	0	0	0	0	0	0	0	0
071619	11:43:11	11:51:23	490914	5.0.10.0	5_exp_noRW	54	Rpleas_acq	CS_B	GWWG	YDDY	VKKV	BZZB	JXXJ	MQQM	spielen	treu	schön	fair	ehrlich	retten	strafen	tot	schlecht	faul	eitel	rächen	47pct	acq_USpleas_CSpleas2_noRW	acq23456_noRW	3	73	0	0	300	300	2000	0	0	0	1	blank2r.bmp	0	1	+	0	1	blank2r.bmp	252	1	YDDY	306	2	ehrlich	559	1	FEHLER	2598	1	Schneller!	2598	0	0	0	0	0	0	0	0	0	0	0	0	0	0	0	0	0	0	0	0	0	0	0	0	0	0	0	0	0	0	0	0	0
071619	11:43:11	11:51:24	492300	5.0.10.0	5_exp_noRW	54	Rpleas_acq	CS_B	GWWG	YDDY	VKKV	BZZB	JXXJ	MQQM	spielen	treu	schön	fair	ehrlich	retten	strafen	tot	schlecht	faul	eitel	rächen	47pct	acq_USpleas_CSpleas2_noRW	acq23456_noRW	3	74	0	0	300	300	489	50	0	1	1	blank2r.bmp	0	1	+	0	1	blank2r.bmp	252	1	YDDY	306	3	retten	559	0	0	0	0	0	0	0	0	0	0	0	0	0	0	0	0	0	0	0	0	0	0	0	0	0	0	0	0	0	0	0	0	0	0	0	0	0	0	0
071619	11:43:11	11:51:26	494099	5.0.10.0	5_exp_noRW	54	Rpleas_acq	CS_B	GWWG	YDDY	VKKV	BZZB	JXXJ	MQQM	spielen	treu	schön	fair	ehrlich	retten	strafen	tot	schlecht	faul	eitel	rächen	53pct	acq_USpleas_CSpleas1_noRW	acq23456_noRW	3	75	0	0	300	300	400	46	0	0	1	blank2r.bmp	0	1	+	0	1	blank2r.bmp	252	1	GWWG	306	2	treu	559	1	FEHLER	999	0	0	0	0	0	0	0	0	0	0	0	0	0	0	0	0	0	0	0	0	0	0	0	0	0	0	0	0	0	0	0	0	0	0	0	0
071619	11:43:11	11:51:27	495752	5.0.10.0	5_exp_noRW	54	Rpleas_acq	CS_B	GWWG	YDDY	VKKV	BZZB	JXXJ	MQQM	spielen	treu	schön	fair	ehrlich	retten	strafen	tot	schlecht	faul	eitel	rächen	47pct	acq_USpleas_CSunple2_noRW	acq23456_noRW	3	76	0	0	300	300	704	50	0	1	1	blank2r.bmp	0	1	+	0	1	blank2r.bmp	252	1	BZZB	306	3	retten	559	0	0	0	0	0	0	0	0	0	0	0	0	0	0	0	0	0	0	0	0	0	0	0	0	0	0	0	0	0	0	0	0	0	0	0	0	0	0	0
071619	11:43:11	11:51:29	497631	5.0.10.0	5_exp_noRW	54	Rpleas_acq	CS_B	GWWG	YDDY	VKKV	BZZB	JXXJ	MQQM	spielen	treu	schön	fair	ehrlich	retten	strafen	tot	schlecht	faul	eitel	rächen	53pct	acq_USunple_CSunple2_noRW	acq23456_noRW	3	77	0	0	300	300	716	46	0	1	1	blank2r.bmp	0	1	+	0	1	blank2r.bmp	252	1	BZZB	306	2	eitel	559	0	0	0	0	0	0	0	0	0	0	0	0	0	0	0	0	0	0	0	0	0	0	0	0	0	0	0	0	0	0	0	0	0	0	0	0	0	0	0
071619	11:43:11	11:51:31	499684	5.0.10.0	5_exp_noRW	54	Rpleas_acq	CS_B	GWWG	YDDY	VKKV	BZZB	JXXJ	MQQM	spielen	treu	schön	fair	ehrlich	retten	strafen	tot	schlecht	faul	eitel	rächen	53pct	acq_USunple_CSunple2_noRW	acq23456_noRW	3	78	0	0	300	300	866	46	0	1	1	blank2r.bmp	0	1	+	0	1	blank2r.bmp	252	1	BZZB	306	1	faul	559	0	0	0	0	0	0	0	0	0	0	0	0	0	0	0	0	0	0	0	0	0	0	0	0	0	0	0	0	0	0	0	0	0	0	0	0	0	0	0
071619	11:43:11	11:51:33	501390	5.0.10.0	5_exp_noRW	54	Rpleas_acq	CS_B	GWWG	YDDY	VKKV	BZZB	JXXJ	MQQM	spielen	treu	schön	fair	ehrlich	retten	strafen	tot	schlecht	faul	eitel	rächen	53pct	acq_USpleas_CSpleas2_noRW	acq23456_noRW	3	79	0	0	300	300	538	50	0	1	1	blank2r.bmp	0	1	+	0	1	blank2r.bmp	252	1	YDDY	306	1	fair	559	0	0	0	0	0	0	0	0	0	0	0	0	0	0	0	0	0	0	0	0	0	0	0	0	0	0	0	0	0	0	0	0	0	0	0	0	0	0	0
071619	11:43:11	11:51:35	503069	5.0.10.0	5_exp_noRW	54	Rpleas_acq	CS_B	GWWG	YDDY	VKKV	BZZB	JXXJ	MQQM	spielen	treu	schön	fair	ehrlich	retten	strafen	tot	schlecht	faul	eitel	rächen	47pct	acq_USpleas_CSpleas1_noRW	acq23456_noRW	3	80	0	0	300	300	513	50	0	1	1	blank2r.bmp	0	1	+	0	1	blank2r.bmp	252	1	GWWG	306	3	schön	559	0	0	0	0	0	0	0	0	0	0	0	0	0	0	0	0	0	0	0	0	0	0	0	0	0	0	0	0	0	0	0	0	0	0	0	0	0	0	0
071619	11:43:11	11:51:42	510106	5.0.10.0	5_exp_noRW	54	Rpleas_acq	CS_B	GWWG	YDDY	VKKV	BZZB	JXXJ	MQQM	spielen	treu	schön	fair	ehrlich	retten	strafen	tot	schlecht	faul	eitel	rächen	53pct	acq_USunple_CSunple1_noRW	acq23456_noRW	4	1	0	0	300	300	391	46	0	1	1	blank2r.bmp	0	1	+	0	1	blank2r.bmp	252	1	VKKV	306	1	strafen	559	0	0	0	0	0	0	0	0	0	0	0	0	0	0	0	0	0	0	0	0	0	0	0	0	0	0	0	0	0	0	0	0	0	0	0	0	0	0	0
071619	11:43:11	11:51:43	511772	5.0.10.0	5_exp_noRW	54	Rpleas_acq	CS_B	GWWG	YDDY	VKKV	BZZB	JXXJ	MQQM	spielen	treu	schön	fair	ehrlich	retten	strafen	tot	schlecht	faul	eitel	rächen	53pct	acq_USpleas_CSpleas1_noRW	acq23456_noRW	4	2	0	0	300	300	491	50	0	1	1	blank2r.bmp	0	1	+	0	1	blank2r.bmp	252	1	GWWG	306	1	spielen	559	0	0	0	0	0	0	0	0	0	0	0	0	0	0	0	0	0	0	0	0	0	0	0	0	0	0	0	0	0	0	0	0	0	0	0	0	0	0	0
071619	11:43:11	11:51:45	513784	5.0.10.0	5_exp_noRW	54	Rpleas_acq	CS_B	GWWG	YDDY	VKKV	BZZB	JXXJ	MQQM	spielen	treu	schön	fair	ehrlich	retten	strafen	tot	schlecht	faul	eitel	rächen	53pct	acq_USunple_CSunple2_noRW	acq23456_noRW	4	3	0	0	300	300	836	46	0	1	1	blank2r.bmp	0	1	+	0	1	blank2r.bmp	252	1	BZZB	306	3	rächen	559	0	0	0	0	0	0	0	0	0	0	0	0	0	0	0	0	0	0	0	0	0	0	0	0	0	0	0	0	0	0	0	0	0	0	0	0	0	0	0
071619	11:43:11	11:51:47	515384	5.0.10.0	5_exp_noRW	54	Rpleas_acq	CS_B	GWWG	YDDY	VKKV	BZZB	JXXJ	MQQM	spielen	treu	schön	fair	ehrlich	retten	strafen	tot	schlecht	faul	eitel	rächen	47pct	acq_USunple_CSunple1_noRW	acq23456_noRW	4	4	0	0	300	300	414	46	0	1	1	blank2r.bmp	0	1	+	0	1	blank2r.bmp	252	1	VKKV	306	2	tot	559	0	0	0	0	0	0	0	0	0	0	0	0	0	0	0	0	0	0	0	0	0	0	0	0	0	0	0	0	0	0	0	0	0	0	0	0	0	0	0
071619	11:43:11	11:51:49	516943	5.0.10.0	5_exp_noRW	54	Rpleas_acq	CS_B	GWWG	YDDY	VKKV	BZZB	JXXJ	MQQM	spielen	treu	schön	fair	ehrlich	retten	strafen	tot	schlecht	faul	eitel	rächen	47pct	acq_USunple_CSpleas1_noRW	acq23456_noRW	4	5	0	0	300	300	393	46	0	1	1	blank2r.bmp	0	1	+	0	1	blank2r.bmp	252	1	GWWG	306	3	schlecht	559	0	0	0	0	0	0	0	0	0	0	0	0	0	0	0	0	0	0	0	0	0	0	0	0	0	0	0	0	0	0	0	0	0	0	0	0	0	0	0
071619	11:43:11	11:51:50	518569	5.0.10.0	5_exp_noRW	54	Rpleas_acq	CS_B	GWWG	YDDY	VKKV	BZZB	JXXJ	MQQM	spielen	treu	schön	fair	ehrlich	retten	strafen	tot	schlecht	faul	eitel	rächen	47pct	acq_USpleas_CSunple2_noRW	acq23456_noRW	4	6	0	0	300	300	442	50	0	1	1	blank2r.bmp	0	1	+	0	1	blank2r.bmp	252	1	BZZB	306	1	fair	559	0	0	0	0	0	0	0	0	0	0	0	0	0	0	0	0	0	0	0	0	0	0	0	0	0	0	0	0	0	0	0	0	0	0	0	0	0	0	0
071619	11:43:11	11:51:52	520128	5.0.10.0	5_exp_noRW	54	Rpleas_acq	CS_B	GWWG	YDDY	VKKV	BZZB	JXXJ	MQQM	spielen	treu	schön	fair	ehrlich	retten	strafen	tot	schlecht	faul	eitel	rächen	47pct	acq_USunple_CSunple2_noRW	acq23456_noRW	4	7	0	0	300	300	375	46	0	1	1	blank2r.bmp	0	1	+	0	1	blank2r.bmp	252	1	BZZB	306	2	eitel	559	0	0	0	0	0	0	0	0	0	0	0	0	0	0	0	0	0	0	0	0	0	0	0	0	0	0	0	0	0	0	0	0	0	0	0	0	0	0	0
071619	11:43:11	11:51:53	521848	5.0.10.0	5_exp_noRW	54	Rpleas_acq	CS_B	GWWG	YDDY	VKKV	BZZB	JXXJ	MQQM	spielen	treu	schön	fair	ehrlich	retten	strafen	tot	schlecht	faul	eitel	rächen	53pct	acq_USunple_CSunple2_noRW	acq23456_noRW	4	8	0	0	300	300	539	46	0	1	1	blank2r.bmp	0	1	+	0	1	blank2r.bmp	252	1	BZZB	306	1	faul	559	0	0	0	0	0	0	0	0	0	0	0	0	0	0	0	0	0	0	0	0	0	0	0	0	0	0	0	0	0	0	0	0	0	0	0	0	0	0	0
071619	11:43:11	11:51:55	523540	5.0.10.0	5_exp_noRW	54	Rpleas_acq	CS_B	GWWG	YDDY	VKKV	BZZB	JXXJ	MQQM	spielen	treu	schön	fair	ehrlich	retten	strafen	tot	schlecht	faul	eitel	rächen	47pct	acq_USunple_CSunple2_noRW	acq23456_noRW	4	9	0	0	300	300	517	46	0	1	1	blank2r.bmp	0	1	+	0	1	blank2r.bmp	252	1	BZZB	306	3	rächen	559	0	0	0	0	0	0	0	0	0	0	0	0	0	0	0	0	0	0	0	0	0	0	0	0	0	0	0	0	0	0	0	0	0	0	0	0	0	0	0
