date	time	script.currenttime	script.elapsedtime	build	script.currentexpt	subject	expressions.LRpleas_acq	expressions.conditionCS_A	expressions.CSpleas_1	expressions.CSpleas_2	expressions.CSunple_1	expressions.CSunple_2	expressions.distractor_1	expressions.distractor_2	expressions.US_pleas1	expressions.US_pleas2	expressions.US_pleas3	expressions.US_pleas4	expressions.US_pleas5	expressions.US_pleas6	expressions.US_unple1	expressions.US_unple2	expressions.US_unple3	expressions.US_unple4	expressions.US_unple5	expressions.US_unple6	counter.positions_noRW	trialcode	blockcode	blocknum	trialnum	windowcenter	inwindow	pretrialpause	posttrialpause	latency	response	expressions.correctedscore	correct	stimulusnumber1	stimulusitem1	stimulusonset1	stimulusnumber2	stimulusitem2	stimulusonset2	stimulusnumber3	stimulusitem3	stimulusonset3	stimulusnumber4	stimulusitem4	stimulusonset4	stimulusnumber5	stimulusitem5	stimulusonset5	stimulusnumber6	stimulusitem6	stimulusonset6	stimulusnumber7	stimulusitem7	stimulusonset7	stimulusnumber8	stimulusitem8	stimulusonset8	stimulusnumber9	stimulusitem9	stimulusonset9	stimulusnumber10	stimulusitem10	stimulusonset10	stimulusnumber11	stimulusitem11	stimulusonset11	stimulusnumber12	stimulusitem12	stimulusonset12	stimulusnumber13	stimulusitem13	stimulusonset13	stimulusnumber14	stimulusitem14	stimulusonset14	stimulusnumber15	stimulusitem15	stimulusonset15	stimulusnumber16	stimulusitem16	stimulusonset16	stimulusnumber17	stimulusitem17	stimulusonset17	stimulusnumber18	stimulusitem18	stimulusonset18
071719	16:50:01	16:51:06	63173	5.0.10.0	5_exp_noRW	70	Rpleas_acq	CS_A	ZHHZ	YFFY	CPPC	DXXD	JQQJ	LWWL	küssen	genießen	träumen	gütig	vertrauen	sonnig	krank	gemein	töten	gierig	versagen	sterben	53pct	acq_USunple_CSpleas1_noRW	acq1_noRW	1	1	0	0	300	300	2000	0	0	0	1	blank2r.bmp	0	1	+	0	1	blank2r.bmp	252	1	ZHHZ	306	3	töten	559	1	FEHLER	2598	1	Schneller!	2598	0	0	0	0	0	0	0	0	0	0	0	0	0	0	0	0	0	0	0	0	0	0	0	0	0	0	0	0	0	0	0	0	0
071719	16:50:01	16:51:10	66598	5.0.10.0	5_exp_noRW	70	Rpleas_acq	CS_A	ZHHZ	YFFY	CPPC	DXXD	JQQJ	LWWL	küssen	genießen	träumen	gütig	vertrauen	sonnig	krank	gemein	töten	gierig	versagen	sterben	53pct	acq_USunple_CSunple1_noRW	acq1_noRW	1	2	0	0	300	300	2000	0	0	0	1	blank2r.bmp	0	1	+	0	1	blank2r.bmp	252	1	CPPC	306	3	töten	559	1	FEHLER	2598	1	Schneller!	2598	0	0	0	0	0	0	0	0	0	0	0	0	0	0	0	0	0	0	0	0	0	0	0	0	0	0	0	0	0	0	0	0	0
071719	16:50:01	16:51:11	68277	5.0.10.0	5_exp_noRW	70	Rpleas_acq	CS_A	ZHHZ	YFFY	CPPC	DXXD	JQQJ	LWWL	küssen	genießen	träumen	gütig	vertrauen	sonnig	krank	gemein	töten	gierig	versagen	sterben	53pct	acq_USunple_CSpleas2_noRW	acq1_noRW	1	3	0	0	300	300	788	46	0	1	1	blank2r.bmp	0	1	+	0	1	blank2r.bmp	252	1	YFFY	306	1	gierig	559	0	0	0	0	0	0	0	0	0	0	0	0	0	0	0	0	0	0	0	0	0	0	0	0	0	0	0	0	0	0	0	0	0	0	0	0	0	0	0
071719	16:50:01	16:51:13	70316	5.0.10.0	5_exp_noRW	70	Rpleas_acq	CS_A	ZHHZ	YFFY	CPPC	DXXD	JQQJ	LWWL	küssen	genießen	träumen	gütig	vertrauen	sonnig	krank	gemein	töten	gierig	versagen	sterben	53pct	acq_USpleas_CSpleas2_noRW	acq1_noRW	1	4	0	0	300	300	854	50	0	1	1	blank2r.bmp	0	1	+	0	1	blank2r.bmp	252	1	YFFY	306	2	vertrauen	559	0	0	0	0	0	0	0	0	0	0	0	0	0	0	0	0	0	0	0	0	0	0	0	0	0	0	0	0	0	0	0	0	0	0	0	0	0	0	0
071719	16:50:01	16:51:15	72169	5.0.10.0	5_exp_noRW	70	Rpleas_acq	CS_A	ZHHZ	YFFY	CPPC	DXXD	JQQJ	LWWL	küssen	genießen	träumen	gütig	vertrauen	sonnig	krank	gemein	töten	gierig	versagen	sterben	47pct	acq_USunple_CSunple1_noRW	acq1_noRW	1	5	0	0	300	300	683	46	0	1	1	blank2r.bmp	0	1	+	0	1	blank2r.bmp	252	1	CPPC	306	1	krank	559	0	0	0	0	0	0	0	0	0	0	0	0	0	0	0	0	0	0	0	0	0	0	0	0	0	0	0	0	0	0	0	0	0	0	0	0	0	0	0
071719	16:50:01	16:51:17	74075	5.0.10.0	5_exp_noRW	70	Rpleas_acq	CS_A	ZHHZ	YFFY	CPPC	DXXD	JQQJ	LWWL	küssen	genießen	träumen	gütig	vertrauen	sonnig	krank	gemein	töten	gierig	versagen	sterben	47pct	acq_USpleas_CSpleas2_noRW	acq1_noRW	1	6	0	0	300	300	737	50	0	1	1	blank2r.bmp	0	1	+	0	1	blank2r.bmp	252	1	YFFY	306	1	gütig	559	0	0	0	0	0	0	0	0	0	0	0	0	0	0	0	0	0	0	0	0	0	0	0	0	0	0	0	0	0	0	0	0	0	0	0	0	0	0	0
071719	16:50:01	16:51:19	76167	5.0.10.0	5_exp_noRW	70	Rpleas_acq	CS_A	ZHHZ	YFFY	CPPC	DXXD	JQQJ	LWWL	küssen	genießen	träumen	gütig	vertrauen	sonnig	krank	gemein	töten	gierig	versagen	sterben	53pct	acq_USunple_CSunple1_noRW	acq1_noRW	1	7	0	0	300	300	930	46	0	1	1	blank2r.bmp	0	1	+	0	1	blank2r.bmp	252	1	CPPC	306	2	gemein	559	0	0	0	0	0	0	0	0	0	0	0	0	0	0	0	0	0	0	0	0	0	0	0	0	0	0	0	0	0	0	0	0	0	0	0	0	0	0	0
071719	16:50:01	16:51:21	78126	5.0.10.0	5_exp_noRW	70	Rpleas_acq	CS_A	ZHHZ	YFFY	CPPC	DXXD	JQQJ	LWWL	küssen	genießen	träumen	gütig	vertrauen	sonnig	krank	gemein	töten	gierig	versagen	sterben	47pct	acq_USpleas_CSpleas1_noRW	acq1_noRW	1	8	0	0	300	300	781	50	0	1	1	blank2r.bmp	0	1	+	0	1	blank2r.bmp	252	1	ZHHZ	306	2	genießen	559	0	0	0	0	0	0	0	0	0	0	0	0	0	0	0	0	0	0	0	0	0	0	0	0	0	0	0	0	0	0	0	0	0	0	0	0	0	0	0
071719	16:50:01	16:51:23	79979	5.0.10.0	5_exp_noRW	70	Rpleas_acq	CS_A	ZHHZ	YFFY	CPPC	DXXD	JQQJ	LWWL	küssen	genießen	träumen	gütig	vertrauen	sonnig	krank	gemein	töten	gierig	versagen	sterben	53pct	acq_USpleas_CSpleas1_noRW	acq1_noRW	1	9	0	0	300	300	686	50	0	1	1	blank2r.bmp	0	1	+	0	1	blank2r.bmp	252	1	ZHHZ	306	3	träumen	559	0	0	0	0	0	0	0	0	0	0	0	0	0	0	0	0	0	0	0	0	0	0	0	0	0	0	0	0	0	0	0	0	0	0	0	0	0	0	0
071719	16:50:01	16:51:25	81805	5.0.10.0	5_exp_noRW	70	Rpleas_acq	CS_A	ZHHZ	YFFY	CPPC	DXXD	JQQJ	LWWL	küssen	genießen	träumen	gütig	vertrauen	sonnig	krank	gemein	töten	gierig	versagen	sterben	47pct	acq_USpleas_CSunple1_noRW	acq1_noRW	1	10	0	0	300	300	640	50	0	1	1	blank2r.bmp	0	1	+	0	1	blank2r.bmp	252	1	CPPC	306	1	küssen	559	0	0	0	0	0	0	0	0	0	0	0	0	0	0	0	0	0	0	0	0	0	0	0	0	0	0	0	0	0	0	0	0	0	0	0	0	0	0	0
071719	16:50:01	16:51:27	83577	5.0.10.0	5_exp_noRW	70	Rpleas_acq	CS_A	ZHHZ	YFFY	CPPC	DXXD	JQQJ	LWWL	küssen	genießen	träumen	gütig	vertrauen	sonnig	krank	gemein	töten	gierig	versagen	sterben	53pct	acq_USpleas_CSunple2_noRW	acq1_noRW	1	11	0	0	300	300	593	50	0	1	1	blank2r.bmp	0	1	+	0	1	blank2r.bmp	252	1	DXXD	306	3	sonnig	559	0	0	0	0	0	0	0	0	0	0	0	0	0	0	0	0	0	0	0	0	0	0	0	0	0	0	0	0	0	0	0	0	0	0	0	0	0	0	0
071719	16:50:01	16:51:29	85430	5.0.10.0	5_exp_noRW	70	Rpleas_acq	CS_A	ZHHZ	YFFY	CPPC	DXXD	JQQJ	LWWL	küssen	genießen	träumen	gütig	vertrauen	sonnig	krank	gemein	töten	gierig	versagen	sterben	53pct	acq_USunple_CSunple2_noRW	acq1_noRW	1	12	0	0	300	300	670	46	0	1	1	blank2r.bmp	0	1	+	0	1	blank2r.bmp	252	1	DXXD	306	3	sterben	559	0	0	0	0	0	0	0	0	0	0	0	0	0	0	0	0	0	0	0	0	0	0	0	0	0	0	0	0	0	0	0	0	0	0	0	0	0	0	0
071719	16:50:01	16:51:30	87296	5.0.10.0	5_exp_noRW	70	Rpleas_acq	CS_A	ZHHZ	YFFY	CPPC	DXXD	JQQJ	LWWL	küssen	genießen	träumen	gütig	vertrauen	sonnig	krank	gemein	töten	gierig	versagen	sterben	47pct	acq_USpleas_CSpleas2_noRW	acq1_noRW	1	13	0	0	300	300	692	50	0	1	1	blank2r.bmp	0	1	+	0	1	blank2r.bmp	252	1	YFFY	306	3	sonnig	559	0	0	0	0	0	0	0	0	0	0	0	0	0	0	0	0	0	0	0	0	0	0	0	0	0	0	0	0	0	0	0	0	0	0	0	0	0	0	0
071719	16:50:01	16:51:32	89335	5.0.10.0	5_exp_noRW	70	Rpleas_acq	CS_A	ZHHZ	YFFY	CPPC	DXXD	JQQJ	LWWL	küssen	genießen	träumen	gütig	vertrauen	sonnig	krank	gemein	töten	gierig	versagen	sterben	53pct	acq_USunple_CSunple2_noRW	acq1_noRW	1	14	0	0	300	300	859	46	0	1	1	blank2r.bmp	0	1	+	0	1	blank2r.bmp	252	1	DXXD	306	1	gierig	559	0	0	0	0	0	0	0	0	0	0	0	0	0	0	0	0	0	0	0	0	0	0	0	0	0	0	0	0	0	0	0	0	0	0	0	0	0	0	0
071719	16:50:01	16:51:34	91041	5.0.10.0	5_exp_noRW	70	Rpleas_acq	CS_A	ZHHZ	YFFY	CPPC	DXXD	JQQJ	LWWL	küssen	genießen	träumen	gütig	vertrauen	sonnig	krank	gemein	töten	gierig	versagen	sterben	47pct	acq_USpleas_CSpleas1_noRW	acq1_noRW	1	15	0	0	300	300	520	50	0	1	1	blank2r.bmp	0	1	+	0	1	blank2r.bmp	252	1	ZHHZ	306	1	küssen	559	0	0	0	0	0	0	0	0	0	0	0	0	0	0	0	0	0	0	0	0	0	0	0	0	0	0	0	0	0	0	0	0	0	0	0	0	0	0	0
071719	16:50:01	16:51:36	92867	5.0.10.0	5_exp_noRW	70	Rpleas_acq	CS_A	ZHHZ	YFFY	CPPC	DXXD	JQQJ	LWWL	küssen	genießen	träumen	gütig	vertrauen	sonnig	krank	gemein	töten	gierig	versagen	sterben	47pct	acq_USpleas_CSpleas2_noRW	acq1_noRW	1	16	0	0	300	300	662	50	0	1	1	blank2r.bmp	0	1	+	0	1	blank2r.bmp	252	1	YFFY	306	1	gütig	559	0	0	0	0	0	0	0	0	0	0	0	0	0	0	0	0	0	0	0	0	0	0	0	0	0	0	0	0	0	0	0	0	0	0	0	0	0	0	0
071719	16:50:01	16:51:38	94706	5.0.10.0	5_exp_noRW	70	Rpleas_acq	CS_A	ZHHZ	YFFY	CPPC	DXXD	JQQJ	LWWL	küssen	genießen	träumen	gütig	vertrauen	sonnig	krank	gemein	töten	gierig	versagen	sterben	53pct	acq_USunple_CSunple1_noRW	acq1_noRW	1	17	0	0	300	300	665	46	0	1	1	blank2r.bmp	0	1	+	0	1	blank2r.bmp	252	1	CPPC	306	2	gemein	559	0	0	0	0	0	0	0	0	0	0	0	0	0	0	0	0	0	0	0	0	0	0	0	0	0	0	0	0	0	0	0	0	0	0	0	0	0	0	0
071719	16:50:01	16:51:40	96612	5.0.10.0	5_exp_noRW	70	Rpleas_acq	CS_A	ZHHZ	YFFY	CPPC	DXXD	JQQJ	LWWL	küssen	genießen	träumen	gütig	vertrauen	sonnig	krank	gemein	töten	gierig	versagen	sterben	53pct	acq_USunple_CSunple2_noRW	acq1_noRW	1	18	0	0	300	300	730	46	0	1	1	blank2r.bmp	0	1	+	0	1	blank2r.bmp	252	1	DXXD	306	2	versagen	559	0	0	0	0	0	0	0	0	0	0	0	0	0	0	0	0	0	0	0	0	0	0	0	0	0	0	0	0	0	0	0	0	0	0	0	0	0	0	0
071719	16:50:01	16:51:42	98398	5.0.10.0	5_exp_noRW	70	Rpleas_acq	CS_A	ZHHZ	YFFY	CPPC	DXXD	JQQJ	LWWL	küssen	genießen	träumen	gütig	vertrauen	sonnig	krank	gemein	töten	gierig	versagen	sterben	47pct	acq_USpleas_CSpleas1_noRW	acq1_noRW	1	19	0	0	300	300	595	50	0	1	1	blank2r.bmp	0	1	+	0	1	blank2r.bmp	252	1	ZHHZ	306	1	küssen	559	0	0	0	0	0	0	0	0	0	0	0	0	0	0	0	0	0	0	0	0	0	0	0	0	0	0	0	0	0	0	0	0	0	0	0	0	0	0	0
071719	16:50:01	16:51:43	100223	5.0.10.0	5_exp_noRW	70	Rpleas_acq	CS_A	ZHHZ	YFFY	CPPC	DXXD	JQQJ	LWWL	küssen	genießen	träumen	gütig	vertrauen	sonnig	krank	gemein	töten	gierig	versagen	sterben	47pct	acq_USunple_CSunple2_noRW	acq1_noRW	1	20	0	0	300	300	648	46	0	1	1	blank2r.bmp	0	1	+	0	1	blank2r.bmp	252	1	DXXD	306	3	sterben	559	0	0	0	0	0	0	0	0	0	0	0	0	0	0	0	0	0	0	0	0	0	0	0	0	0	0	0	0	0	0	0	0	0	0	0	0	0	0	0
071719	16:50:01	16:51:45	102116	5.0.10.0	5_exp_noRW	70	Rpleas_acq	CS_A	ZHHZ	YFFY	CPPC	DXXD	JQQJ	LWWL	küssen	genießen	träumen	gütig	vertrauen	sonnig	krank	gemein	töten	gierig	versagen	sterben	53pct	acq_USunple_CSunple2_noRW	acq1_noRW	1	21	0	0	300	300	709	46	0	1	1	blank2r.bmp	0	1	+	0	1	blank2r.bmp	252	1	DXXD	306	2	versagen	559	0	0	0	0	0	0	0	0	0	0	0	0	0	0	0	0	0	0	0	0	0	0	0	0	0	0	0	0	0	0	0	0	0	0	0	0	0	0	0
071719	16:50:01	16:51:47	103982	5.0.10.0	5_exp_noRW	70	Rpleas_acq	CS_A	ZHHZ	YFFY	CPPC	DXXD	JQQJ	LWWL	küssen	genießen	träumen	gütig	vertrauen	sonnig	krank	gemein	töten	gierig	versagen	sterben	53pct	acq_USpleas_CSunple1_noRW	acq1_noRW	1	22	0	0	300	300	689	50	0	1	1	blank2r.bmp	0	1	+	0	1	blank2r.bmp	252	1	CPPC	306	3	träumen	559	0	0	0	0	0	0	0	0	0	0	0	0	0	0	0	0	0	0	0	0	0	0	0	0	0	0	0	0	0	0	0	0	0	0	0	0	0	0	0
071719	16:50:01	16:51:49	105768	5.0.10.0	5_exp_noRW	70	Rpleas_acq	CS_A	ZHHZ	YFFY	CPPC	DXXD	JQQJ	LWWL	küssen	genießen	träumen	gütig	vertrauen	sonnig	krank	gemein	töten	gierig	versagen	sterben	53pct	acq_USunple_CSpleas2_noRW	acq1_noRW	1	23	0	0	300	300	610	46	0	1	1	blank2r.bmp	0	1	+	0	1	blank2r.bmp	252	1	YFFY	306	3	sterben	559	0	0	0	0	0	0	0	0	0	0	0	0	0	0	0	0	0	0	0	0	0	0	0	0	0	0	0	0	0	0	0	0	0	0	0	0	0	0	0
071719	16:50:01	16:51:51	107860	5.0.10.0	5_exp_noRW	70	Rpleas_acq	CS_A	ZHHZ	YFFY	CPPC	DXXD	JQQJ	LWWL	küssen	genießen	träumen	gütig	vertrauen	sonnig	krank	gemein	töten	gierig	versagen	sterben	47pct	acq_USpleas_CSpleas1_noRW	acq1_noRW	1	24	0	0	300	300	919	50	0	1	1	blank2r.bmp	0	1	+	0	1	blank2r.bmp	252	1	ZHHZ	306	3	träumen	559	0	0	0	0	0	0	0	0	0	0	0	0	0	0	0	0	0	0	0	0	0	0	0	0	0	0	0	0	0	0	0	0	0	0	0	0	0	0	0
071719	16:50:01	16:51:53	109606	5.0.10.0	5_exp_noRW	70	Rpleas_acq	CS_A	ZHHZ	YFFY	CPPC	DXXD	JQQJ	LWWL	küssen	genießen	träumen	gütig	vertrauen	sonnig	krank	gemein	töten	gierig	versagen	sterben	53pct	acq_USunple_CSunple1_noRW	acq1_noRW	1	25	0	0	300	300	577	46	0	1	1	blank2r.bmp	0	1	+	0	1	blank2r.bmp	252	1	CPPC	306	1	krank	559	0	0	0	0	0	0	0	0	0	0	0	0	0	0	0	0	0	0	0	0	0	0	0	0	0	0	0	0	0	0	0	0	0	0	0	0	0	0	0
071719	16:50:01	16:51:55	111432	5.0.10.0	5_exp_noRW	70	Rpleas_acq	CS_A	ZHHZ	YFFY	CPPC	DXXD	JQQJ	LWWL	küssen	genießen	träumen	gütig	vertrauen	sonnig	krank	gemein	töten	gierig	versagen	sterben	47pct	acq_USunple_CSunple1_noRW	acq1_noRW	1	26	0	0	300	300	662	46	0	1	1	blank2r.bmp	0	1	+	0	1	blank2r.bmp	252	1	CPPC	306	3	töten	559	0	0	0	0	0	0	0	0	0	0	0	0	0	0	0	0	0	0	0	0	0	0	0	0	0	0	0	0	0	0	0	0	0	0	0	0	0	0	0
071719	16:50:01	16:51:56	113031	5.0.10.0	5_exp_noRW	70	Rpleas_acq	CS_A	ZHHZ	YFFY	CPPC	DXXD	JQQJ	LWWL	küssen	genießen	träumen	gütig	vertrauen	sonnig	krank	gemein	töten	gierig	versagen	sterben	53pct	acq_USpleas_CSpleas2_noRW	acq1_noRW	1	27	0	0	300	300	438	50	0	1	1	blank2r.bmp	0	1	+	0	1	blank2r.bmp	252	1	YFFY	306	3	sonnig	559	0	0	0	0	0	0	0	0	0	0	0	0	0	0	0	0	0	0	0	0	0	0	0	0	0	0	0	0	0	0	0	0	0	0	0	0	0	0	0
071719	16:50:01	16:51:58	114791	5.0.10.0	5_exp_noRW	70	Rpleas_acq	CS_A	ZHHZ	YFFY	CPPC	DXXD	JQQJ	LWWL	küssen	genießen	träumen	gütig	vertrauen	sonnig	krank	gemein	töten	gierig	versagen	sterben	53pct	acq_USunple_CSunple2_noRW	acq1_noRW	1	28	0	0	300	300	573	46	0	1	1	blank2r.bmp	0	1	+	0	1	blank2r.bmp	252	1	DXXD	306	1	gierig	559	0	0	0	0	0	0	0	0	0	0	0	0	0	0	0	0	0	0	0	0	0	0	0	0	0	0	0	0	0	0	0	0	0	0	0	0	0	0	0
071719	16:50:01	16:52:00	117070	5.0.10.0	5_exp_noRW	70	Rpleas_acq	CS_A	ZHHZ	YFFY	CPPC	DXXD	JQQJ	LWWL	küssen	genießen	träumen	gütig	vertrauen	sonnig	krank	gemein	töten	gierig	versagen	sterben	53pct	acq_USunple_CSunple1_noRW	acq1_noRW	1	29	0	0	300	300	1113	46	0	1	1	blank2r.bmp	0	1	+	0	1	blank2r.bmp	252	1	CPPC	306	2	gemein	559	0	0	0	0	0	0	0	0	0	0	0	0	0	0	0	0	0	0	0	0	0	0	0	0	0	0	0	0	0	0	0	0	0	0	0	0	0	0	0
071719	16:50:01	16:52:02	118776	5.0.10.0	5_exp_noRW	70	Rpleas_acq	CS_A	ZHHZ	YFFY	CPPC	DXXD	JQQJ	LWWL	küssen	genießen	träumen	gütig	vertrauen	sonnig	krank	gemein	töten	gierig	versagen	sterben	47pct	acq_USunple_CSunple2_noRW	acq1_noRW	1	30	0	0	300	300	531	46	0	1	1	blank2r.bmp	0	1	+	0	1	blank2r.bmp	252	1	DXXD	306	1	gierig	559	0	0	0	0	0	0	0	0	0	0	0	0	0	0	0	0	0	0	0	0	0	0	0	0	0	0	0	0	0	0	0	0	0	0	0	0	0	0	0
071719	16:50:01	16:52:04	120428	5.0.10.0	5_exp_noRW	70	Rpleas_acq	CS_A	ZHHZ	YFFY	CPPC	DXXD	JQQJ	LWWL	küssen	genießen	träumen	gütig	vertrauen	sonnig	krank	gemein	töten	gierig	versagen	sterben	47pct	acq_USunple_CSpleas1_noRW	acq1_noRW	1	31	0	0	300	300	473	46	0	1	1	blank2r.bmp	0	1	+	0	1	blank2r.bmp	252	1	ZHHZ	306	2	gemein	559	0	0	0	0	0	0	0	0	0	0	0	0	0	0	0	0	0	0	0	0	0	0	0	0	0	0	0	0	0	0	0	0	0	0	0	0	0	0	0
071719	16:50:01	16:52:05	122188	5.0.10.0	5_exp_noRW	70	Rpleas_acq	CS_A	ZHHZ	YFFY	CPPC	DXXD	JQQJ	LWWL	küssen	genießen	träumen	gütig	vertrauen	sonnig	krank	gemein	töten	gierig	versagen	sterben	53pct	acq_USpleas_CSpleas2_noRW	acq1_noRW	1	32	0	0	300	300	577	50	0	1	1	blank2r.bmp	0	1	+	0	1	blank2r.bmp	252	1	YFFY	306	2	vertrauen	559	0	0	0	0	0	0	0	0	0	0	0	0	0	0	0	0	0	0	0	0	0	0	0	0	0	0	0	0	0	0	0	0	0	0	0	0	0	0	0
071719	16:50:01	16:52:07	123827	5.0.10.0	5_exp_noRW	70	Rpleas_acq	CS_A	ZHHZ	YFFY	CPPC	DXXD	JQQJ	LWWL	küssen	genießen	träumen	gütig	vertrauen	sonnig	krank	gemein	töten	gierig	versagen	sterben	47pct	acq_USunple_CSunple1_noRW	acq1_noRW	1	33	0	0	300	300	457	46	0	1	1	blank2r.bmp	0	1	+	0	1	blank2r.bmp	252	1	CPPC	306	1	krank	559	0	0	0	0	0	0	0	0	0	0	0	0	0	0	0	0	0	0	0	0	0	0	0	0	0	0	0	0	0	0	0	0	0	0	0	0	0	0	0
071719	16:50:01	16:52:09	125480	5.0.10.0	5_exp_noRW	70	Rpleas_acq	CS_A	ZHHZ	YFFY	CPPC	DXXD	JQQJ	LWWL	küssen	genießen	träumen	gütig	vertrauen	sonnig	krank	gemein	töten	gierig	versagen	sterben	47pct	acq_USpleas_CSpleas1_noRW	acq1_noRW	1	34	0	0	300	300	477	50	0	1	1	blank2r.bmp	0	1	+	0	1	blank2r.bmp	252	1	ZHHZ	306	2	genießen	559	0	0	0	0	0	0	0	0	0	0	0	0	0	0	0	0	0	0	0	0	0	0	0	0	0	0	0	0	0	0	0	0	0	0	0	0	0	0	0
071719	16:50:01	16:52:10	127279	5.0.10.0	5_exp_noRW	70	Rpleas_acq	CS_A	ZHHZ	YFFY	CPPC	DXXD	JQQJ	LWWL	küssen	genießen	träumen	gütig	vertrauen	sonnig	krank	gemein	töten	gierig	versagen	sterben	47pct	acq_USpleas_CSpleas1_noRW	acq1_noRW	1	35	0	0	300	300	615	50	0	1	1	blank2r.bmp	0	1	+	0	1	blank2r.bmp	252	1	ZHHZ	306	3	träumen	559	0	0	0	0	0	0	0	0	0	0	0	0	0	0	0	0	0	0	0	0	0	0	0	0	0	0	0	0	0	0	0	0	0	0	0	0	0	0	0
071719	16:50:01	16:52:12	128851	5.0.10.0	5_exp_noRW	70	Rpleas_acq	CS_A	ZHHZ	YFFY	CPPC	DXXD	JQQJ	LWWL	küssen	genießen	träumen	gütig	vertrauen	sonnig	krank	gemein	töten	gierig	versagen	sterben	53pct	acq_USpleas_CSpleas1_noRW	acq1_noRW	1	36	0	0	300	300	401	50	0	1	1	blank2r.bmp	0	1	+	0	1	blank2r.bmp	252	1	ZHHZ	306	1	küssen	559	0	0	0	0	0	0	0	0	0	0	0	0	0	0	0	0	0	0	0	0	0	0	0	0	0	0	0	0	0	0	0	0	0	0	0	0	0	0	0
071719	16:50:01	16:52:14	130584	5.0.10.0	5_exp_noRW	70	Rpleas_acq	CS_A	ZHHZ	YFFY	CPPC	DXXD	JQQJ	LWWL	küssen	genießen	träumen	gütig	vertrauen	sonnig	krank	gemein	töten	gierig	versagen	sterben	53pct	acq_USunple_CSunple2_noRW	acq1_noRW	1	37	0	0	300	300	553	46	0	1	1	blank2r.bmp	0	1	+	0	1	blank2r.bmp	252	1	DXXD	306	3	sterben	559	0	0	0	0	0	0	0	0	0	0	0	0	0	0	0	0	0	0	0	0	0	0	0	0	0	0	0	0	0	0	0	0	0	0	0	0	0	0	0
071719	16:50:01	16:52:16	132463	5.0.10.0	5_exp_noRW	70	Rpleas_acq	CS_A	ZHHZ	YFFY	CPPC	DXXD	JQQJ	LWWL	küssen	genießen	träumen	gütig	vertrauen	sonnig	krank	gemein	töten	gierig	versagen	sterben	53pct	acq_USpleas_CSpleas2_noRW	acq1_noRW	1	38	0	0	300	300	696	50	0	1	1	blank2r.bmp	0	1	+	0	1	blank2r.bmp	252	1	YFFY	306	2	vertrauen	559	0	0	0	0	0	0	0	0	0	0	0	0	0	0	0	0	0	0	0	0	0	0	0	0	0	0	0	0	0	0	0	0	0	0	0	0	0	0	0
071719	16:50:01	16:52:18	134982	5.0.10.0	5_exp_noRW	70	Rpleas_acq	CS_A	ZHHZ	YFFY	CPPC	DXXD	JQQJ	LWWL	küssen	genießen	träumen	gütig	vertrauen	sonnig	krank	gemein	töten	gierig	versagen	sterben	53pct	acq_USpleas_CSpleas2_noRW	acq1_noRW	1	39	0	0	300	300	1142	46	0	0	1	blank2r.bmp	0	1	+	0	1	blank2r.bmp	252	1	YFFY	306	1	gütig	559	1	FEHLER	1732	0	0	0	0	0	0	0	0	0	0	0	0	0	0	0	0	0	0	0	0	0	0	0	0	0	0	0	0	0	0	0	0	0	0	0	0
071719	16:50:01	16:52:20	136515	5.0.10.0	5_exp_noRW	70	Rpleas_acq	CS_A	ZHHZ	YFFY	CPPC	DXXD	JQQJ	LWWL	küssen	genießen	träumen	gütig	vertrauen	sonnig	krank	gemein	töten	gierig	versagen	sterben	47pct	acq_USpleas_CSunple2_noRW	acq1_noRW	1	40	0	0	300	300	551	50	0	1	1	blank2r.bmp	0	1	+	0	1	blank2r.bmp	252	1	DXXD	306	2	vertrauen	559	0	0	0	0	0	0	0	0	0	0	0	0	0	0	0	0	0	0	0	0	0	0	0	0	0	0	0	0	0	0	0	0	0	0	0	0	0	0	0
071719	16:50:01	16:52:22	139114	5.0.10.0	5_exp_noRW	70	Rpleas_acq	CS_A	ZHHZ	YFFY	CPPC	DXXD	JQQJ	LWWL	küssen	genießen	träumen	gütig	vertrauen	sonnig	krank	gemein	töten	gierig	versagen	sterben	47pct	acq_USpleas_CSpleas2_noRW	acq1_noRW	1	41	0	0	300	300	1429	50	0	1	1	blank2r.bmp	0	1	+	0	1	blank2r.bmp	252	1	YFFY	306	3	sonnig	559	0	0	0	0	0	0	0	0	0	0	0	0	0	0	0	0	0	0	0	0	0	0	0	0	0	0	0	0	0	0	0	0	0	0	0	0	0	0	0
071719	16:50:01	16:52:24	140913	5.0.10.0	5_exp_noRW	70	Rpleas_acq	CS_A	ZHHZ	YFFY	CPPC	DXXD	JQQJ	LWWL	küssen	genießen	träumen	gütig	vertrauen	sonnig	krank	gemein	töten	gierig	versagen	sterben	47pct	acq_USpleas_CSpleas1_noRW	acq1_noRW	1	42	0	0	300	300	614	50	0	1	1	blank2r.bmp	0	1	+	0	1	blank2r.bmp	252	1	ZHHZ	306	2	genießen	559	0	0	0	0	0	0	0	0	0	0	0	0	0	0	0	0	0	0	0	0	0	0	0	0	0	0	0	0	0	0	0	0	0	0	0	0	0	0	0
071719	16:50:01	16:52:26	142632	5.0.10.0	5_exp_noRW	70	Rpleas_acq	CS_A	ZHHZ	YFFY	CPPC	DXXD	JQQJ	LWWL	küssen	genießen	träumen	gütig	vertrauen	sonnig	krank	gemein	töten	gierig	versagen	sterben	47pct	acq_USunple_CSpleas1_noRW	acq1_noRW	1	43	0	0	300	300	533	46	0	1	1	blank2r.bmp	0	1	+	0	1	blank2r.bmp	252	1	ZHHZ	306	1	krank	559	0	0	0	0	0	0	0	0	0	0	0	0	0	0	0	0	0	0	0	0	0	0	0	0	0	0	0	0	0	0	0	0	0	0	0	0	0	0	0
071719	16:50:01	16:52:28	144365	5.0.10.0	5_exp_noRW	70	Rpleas_acq	CS_A	ZHHZ	YFFY	CPPC	DXXD	JQQJ	LWWL	küssen	genießen	träumen	gütig	vertrauen	sonnig	krank	gemein	töten	gierig	versagen	sterben	53pct	acq_USunple_CSunple1_noRW	acq1_noRW	1	44	0	0	300	300	563	46	0	1	1	blank2r.bmp	0	1	+	0	1	blank2r.bmp	252	1	CPPC	306	3	töten	559	0	0	0	0	0	0	0	0	0	0	0	0	0	0	0	0	0	0	0	0	0	0	0	0	0	0	0	0	0	0	0	0	0	0	0	0	0	0	0
071719	16:50:01	16:52:29	146284	5.0.10.0	5_exp_noRW	70	Rpleas_acq	CS_A	ZHHZ	YFFY	CPPC	DXXD	JQQJ	LWWL	küssen	genießen	träumen	gütig	vertrauen	sonnig	krank	gemein	töten	gierig	versagen	sterben	53pct	acq_USpleas_CSpleas1_noRW	acq1_noRW	1	45	0	0	300	300	754	50	0	1	1	blank2r.bmp	0	1	+	0	1	blank2r.bmp	252	1	ZHHZ	306	2	genießen	559	0	0	0	0	0	0	0	0	0	0	0	0	0	0	0	0	0	0	0	0	0	0	0	0	0	0	0	0	0	0	0	0	0	0	0	0	0	0	0
071719	16:50:01	16:52:31	148017	5.0.10.0	5_exp_noRW	70	Rpleas_acq	CS_A	ZHHZ	YFFY	CPPC	DXXD	JQQJ	LWWL	küssen	genießen	träumen	gütig	vertrauen	sonnig	krank	gemein	töten	gierig	versagen	sterben	47pct	acq_USunple_CSunple1_noRW	acq1_noRW	1	46	0	0	300	300	555	46	0	1	1	blank2r.bmp	0	1	+	0	1	blank2r.bmp	252	1	CPPC	306	3	töten	559	0	0	0	0	0	0	0	0	0	0	0	0	0	0	0	0	0	0	0	0	0	0	0	0	0	0	0	0	0	0	0	0	0	0	0	0	0	0	0
071719	16:50:01	16:52:33	149696	5.0.10.0	5_exp_noRW	70	Rpleas_acq	CS_A	ZHHZ	YFFY	CPPC	DXXD	JQQJ	LWWL	küssen	genießen	träumen	gütig	vertrauen	sonnig	krank	gemein	töten	gierig	versagen	sterben	53pct	acq_USpleas_CSpleas1_noRW	acq1_noRW	1	47	0	0	300	300	496	50	0	1	1	blank2r.bmp	0	1	+	0	1	blank2r.bmp	252	1	ZHHZ	306	3	träumen	559	0	0	0	0	0	0	0	0	0	0	0	0	0	0	0	0	0	0	0	0	0	0	0	0	0	0	0	0	0	0	0	0	0	0	0	0	0	0	0
071719	16:50:01	16:52:35	151735	5.0.10.0	5_exp_noRW	70	Rpleas_acq	CS_A	ZHHZ	YFFY	CPPC	DXXD	JQQJ	LWWL	küssen	genießen	träumen	gütig	vertrauen	sonnig	krank	gemein	töten	gierig	versagen	sterben	47pct	acq_USpleas_CSunple2_noRW	acq1_noRW	1	48	0	0	300	300	870	50	0	1	1	blank2r.bmp	0	1	+	0	1	blank2r.bmp	252	1	DXXD	306	1	gütig	559	0	0	0	0	0	0	0	0	0	0	0	0	0	0	0	0	0	0	0	0	0	0	0	0	0	0	0	0	0	0	0	0	0	0	0	0	0	0	0
071719	16:50:01	16:52:37	153414	5.0.10.0	5_exp_noRW	70	Rpleas_acq	CS_A	ZHHZ	YFFY	CPPC	DXXD	JQQJ	LWWL	küssen	genießen	träumen	gütig	vertrauen	sonnig	krank	gemein	töten	gierig	versagen	sterben	47pct	acq_USpleas_CSunple1_noRW	acq1_noRW	1	49	0	0	300	300	500	50	0	1	1	blank2r.bmp	0	1	+	0	1	blank2r.bmp	252	1	CPPC	306	2	genießen	559	0	0	0	0	0	0	0	0	0	0	0	0	0	0	0	0	0	0	0	0	0	0	0	0	0	0	0	0	0	0	0	0	0	0	0	0	0	0	0
071719	16:50:01	16:52:38	155320	5.0.10.0	5_exp_noRW	70	Rpleas_acq	CS_A	ZHHZ	YFFY	CPPC	DXXD	JQQJ	LWWL	küssen	genießen	träumen	gütig	vertrauen	sonnig	krank	gemein	töten	gierig	versagen	sterben	47pct	acq_USpleas_CSpleas2_noRW	acq1_noRW	1	50	0	0	300	300	723	50	0	1	1	blank2r.bmp	0	1	+	0	1	blank2r.bmp	252	1	YFFY	306	1	gütig	559	0	0	0	0	0	0	0	0	0	0	0	0	0	0	0	0	0	0	0	0	0	0	0	0	0	0	0	0	0	0	0	0	0	0	0	0	0	0	0
071719	16:50:01	16:52:40	156973	5.0.10.0	5_exp_noRW	70	Rpleas_acq	CS_A	ZHHZ	YFFY	CPPC	DXXD	JQQJ	LWWL	küssen	genießen	träumen	gütig	vertrauen	sonnig	krank	gemein	töten	gierig	versagen	sterben	47pct	acq_USunple_CSunple2_noRW	acq1_noRW	1	51	0	0	300	300	481	46	0	1	1	blank2r.bmp	0	1	+	0	1	blank2r.bmp	252	1	DXXD	306	2	versagen	559	0	0	0	0	0	0	0	0	0	0	0	0	0	0	0	0	0	0	0	0	0	0	0	0	0	0	0	0	0	0	0	0	0	0	0	0	0	0	0
071719	16:50:01	16:52:42	158692	5.0.10.0	5_exp_noRW	70	Rpleas_acq	CS_A	ZHHZ	YFFY	CPPC	DXXD	JQQJ	LWWL	küssen	genießen	träumen	gütig	vertrauen	sonnig	krank	gemein	töten	gierig	versagen	sterben	53pct	acq_USunple_CSunple2_noRW	acq1_noRW	1	52	0	0	300	300	548	46	0	1	1	blank2r.bmp	0	1	+	0	1	blank2r.bmp	252	1	DXXD	306	1	gierig	559	0	0	0	0	0	0	0	0	0	0	0	0	0	0	0	0	0	0	0	0	0	0	0	0	0	0	0	0	0	0	0	0	0	0	0	0	0	0	0
071719	16:50:01	16:52:44	160371	5.0.10.0	5_exp_noRW	70	Rpleas_acq	CS_A	ZHHZ	YFFY	CPPC	DXXD	JQQJ	LWWL	küssen	genießen	träumen	gütig	vertrauen	sonnig	krank	gemein	töten	gierig	versagen	sterben	53pct	acq_USpleas_CSpleas2_noRW	acq1_noRW	1	53	0	0	300	300	504	50	0	1	1	blank2r.bmp	0	1	+	0	1	blank2r.bmp	252	1	YFFY	306	3	sonnig	559	0	0	0	0	0	0	0	0	0	0	0	0	0	0	0	0	0	0	0	0	0	0	0	0	0	0	0	0	0	0	0	0	0	0	0	0	0	0	0
071719	16:50:01	16:52:45	162011	5.0.10.0	5_exp_noRW	70	Rpleas_acq	CS_A	ZHHZ	YFFY	CPPC	DXXD	JQQJ	LWWL	küssen	genießen	träumen	gütig	vertrauen	sonnig	krank	gemein	töten	gierig	versagen	sterben	47pct	acq_USpleas_CSpleas1_noRW	acq1_noRW	1	54	0	0	300	300	462	50	0	1	1	blank2r.bmp	0	1	+	0	1	blank2r.bmp	252	1	ZHHZ	306	1	küssen	559	0	0	0	0	0	0	0	0	0	0	0	0	0	0	0	0	0	0	0	0	0	0	0	0	0	0	0	0	0	0	0	0	0	0	0	0	0	0	0
071719	16:50:01	16:52:47	163810	5.0.10.0	5_exp_noRW	70	Rpleas_acq	CS_A	ZHHZ	YFFY	CPPC	DXXD	JQQJ	LWWL	küssen	genießen	träumen	gütig	vertrauen	sonnig	krank	gemein	töten	gierig	versagen	sterben	47pct	acq_USunple_CSunple2_noRW	acq1_noRW	1	55	0	0	300	300	619	46	0	1	1	blank2r.bmp	0	1	+	0	1	blank2r.bmp	252	1	DXXD	306	2	versagen	559	0	0	0	0	0	0	0	0	0	0	0	0	0	0	0	0	0	0	0	0	0	0	0	0	0	0	0	0	0	0	0	0	0	0	0	0	0	0	0
071719	16:50:01	16:52:49	165809	5.0.10.0	5_exp_noRW	70	Rpleas_acq	CS_A	ZHHZ	YFFY	CPPC	DXXD	JQQJ	LWWL	küssen	genießen	träumen	gütig	vertrauen	sonnig	krank	gemein	töten	gierig	versagen	sterben	53pct	acq_USunple_CSunple2_noRW	acq1_noRW	1	56	0	0	300	300	605	50	0	0	1	blank2r.bmp	0	1	+	0	1	blank2r.bmp	252	1	DXXD	306	3	sterben	559	1	FEHLER	1199	0	0	0	0	0	0	0	0	0	0	0	0	0	0	0	0	0	0	0	0	0	0	0	0	0	0	0	0	0	0	0	0	0	0	0	0
071719	16:50:01	16:52:50	167262	5.0.10.0	5_exp_noRW	70	Rpleas_acq	CS_A	ZHHZ	YFFY	CPPC	DXXD	JQQJ	LWWL	küssen	genießen	träumen	gütig	vertrauen	sonnig	krank	gemein	töten	gierig	versagen	sterben	47pct	acq_USunple_CSunple1_noRW	acq1_noRW	1	57	0	0	300	300	504	46	0	1	1	blank2r.bmp	0	1	+	0	1	blank2r.bmp	252	1	CPPC	306	1	krank	559	0	0	0	0	0	0	0	0	0	0	0	0	0	0	0	0	0	0	0	0	0	0	0	0	0	0	0	0	0	0	0	0	0	0	0	0	0	0	0
071719	16:50:01	16:52:52	169034	5.0.10.0	5_exp_noRW	70	Rpleas_acq	CS_A	ZHHZ	YFFY	CPPC	DXXD	JQQJ	LWWL	küssen	genießen	träumen	gütig	vertrauen	sonnig	krank	gemein	töten	gierig	versagen	sterben	53pct	acq_USpleas_CSpleas2_noRW	acq1_noRW	1	58	0	0	300	300	605	50	0	1	1	blank2r.bmp	0	1	+	0	1	blank2r.bmp	252	1	YFFY	306	2	vertrauen	559	0	0	0	0	0	0	0	0	0	0	0	0	0	0	0	0	0	0	0	0	0	0	0	0	0	0	0	0	0	0	0	0	0	0	0	0	0	0	0
071719	16:50:01	16:52:54	171007	5.0.10.0	5_exp_noRW	70	Rpleas_acq	CS_A	ZHHZ	YFFY	CPPC	DXXD	JQQJ	LWWL	küssen	genießen	träumen	gütig	vertrauen	sonnig	krank	gemein	töten	gierig	versagen	sterben	53pct	acq_USunple_CSunple1_noRW	acq1_noRW	1	59	0	0	300	300	786	46	0	1	1	blank2r.bmp	0	1	+	0	1	blank2r.bmp	252	1	CPPC	306	2	gemein	559	0	0	0	0	0	0	0	0	0	0	0	0	0	0	0	0	0	0	0	0	0	0	0	0	0	0	0	0	0	0	0	0	0	0	0	0	0	0	0
071719	16:50:01	16:52:56	172926	5.0.10.0	5_exp_noRW	70	Rpleas_acq	CS_A	ZHHZ	YFFY	CPPC	DXXD	JQQJ	LWWL	küssen	genießen	träumen	gütig	vertrauen	sonnig	krank	gemein	töten	gierig	versagen	sterben	53pct	acq_USunple_CSpleas2_noRW	acq1_noRW	1	60	0	0	300	300	748	46	0	1	1	blank2r.bmp	0	1	+	0	1	blank2r.bmp	252	1	YFFY	306	2	versagen	559	0	0	0	0	0	0	0	0	0	0	0	0	0	0	0	0	0	0	0	0	0	0	0	0	0	0	0	0	0	0	0	0	0	0	0	0	0	0	0
071719	16:50:01	16:52:58	174699	5.0.10.0	5_exp_noRW	70	Rpleas_acq	CS_A	ZHHZ	YFFY	CPPC	DXXD	JQQJ	LWWL	küssen	genießen	träumen	gütig	vertrauen	sonnig	krank	gemein	töten	gierig	versagen	sterben	47pct	acq_USpleas_CSpleas1_noRW	acq1_noRW	1	61	0	0	300	300	608	50	0	1	1	blank2r.bmp	0	1	+	0	1	blank2r.bmp	252	1	ZHHZ	306	2	genießen	559	0	0	0	0	0	0	0	0	0	0	0	0	0	0	0	0	0	0	0	0	0	0	0	0	0	0	0	0	0	0	0	0	0	0	0	0	0	0	0
071719	16:50:01	16:53:00	176884	5.0.10.0	5_exp_noRW	70	Rpleas_acq	CS_A	ZHHZ	YFFY	CPPC	DXXD	JQQJ	LWWL	küssen	genießen	träumen	gütig	vertrauen	sonnig	krank	gemein	töten	gierig	versagen	sterben	47pct	acq_USunple_CSpleas1_noRW	acq1_noRW	1	62	0	0	300	300	808	50	0	0	1	blank2r.bmp	0	1	+	0	1	blank2r.bmp	252	1	ZHHZ	306	3	töten	559	1	FEHLER	1399	0	0	0	0	0	0	0	0	0	0	0	0	0	0	0	0	0	0	0	0	0	0	0	0	0	0	0	0	0	0	0	0	0	0	0	0
071719	16:50:01	16:53:02	178830	5.0.10.0	5_exp_noRW	70	Rpleas_acq	CS_A	ZHHZ	YFFY	CPPC	DXXD	JQQJ	LWWL	küssen	genießen	träumen	gütig	vertrauen	sonnig	krank	gemein	töten	gierig	versagen	sterben	53pct	acq_USunple_CSpleas2_noRW	acq1_noRW	1	63	0	0	300	300	984	46	0	1	1	blank2r.bmp	0	1	+	0	1	blank2r.bmp	252	1	YFFY	306	3	sterben	559	0	0	0	0	0	0	0	0	0	0	0	0	0	0	0	0	0	0	0	0	0	0	0	0	0	0	0	0	0	0	0	0	0	0	0	0	0	0	0
071719	16:50:01	16:53:04	180456	5.0.10.0	5_exp_noRW	70	Rpleas_acq	CS_A	ZHHZ	YFFY	CPPC	DXXD	JQQJ	LWWL	küssen	genießen	träumen	gütig	vertrauen	sonnig	krank	gemein	töten	gierig	versagen	sterben	53pct	acq_USunple_CSunple1_noRW	acq1_noRW	1	64	0	0	300	300	444	46	0	1	1	blank2r.bmp	0	1	+	0	1	blank2r.bmp	252	1	CPPC	306	1	krank	559	0	0	0	0	0	0	0	0	0	0	0	0	0	0	0	0	0	0	0	0	0	0	0	0	0	0	0	0	0	0	0	0	0	0	0	0	0	0	0
071719	16:50:01	16:53:05	182256	5.0.10.0	5_exp_noRW	70	Rpleas_acq	CS_A	ZHHZ	YFFY	CPPC	DXXD	JQQJ	LWWL	küssen	genießen	träumen	gütig	vertrauen	sonnig	krank	gemein	töten	gierig	versagen	sterben	47pct	acq_USpleas_CSpleas2_noRW	acq1_noRW	1	65	0	0	300	300	620	50	0	1	1	blank2r.bmp	0	1	+	0	1	blank2r.bmp	252	1	YFFY	306	2	vertrauen	559	0	0	0	0	0	0	0	0	0	0	0	0	0	0	0	0	0	0	0	0	0	0	0	0	0	0	0	0	0	0	0	0	0	0	0	0	0	0	0
071719	16:50:01	16:53:07	183908	5.0.10.0	5_exp_noRW	70	Rpleas_acq	CS_A	ZHHZ	YFFY	CPPC	DXXD	JQQJ	LWWL	küssen	genießen	träumen	gütig	vertrauen	sonnig	krank	gemein	töten	gierig	versagen	sterben	53pct	acq_USunple_CSunple2_noRW	acq1_noRW	1	66	0	0	300	300	479	46	0	1	1	blank2r.bmp	0	1	+	0	1	blank2r.bmp	252	1	DXXD	306	2	versagen	559	0	0	0	0	0	0	0	0	0	0	0	0	0	0	0	0	0	0	0	0	0	0	0	0	0	0	0	0	0	0	0	0	0	0	0	0	0	0	0
071719	16:50:01	16:53:09	185827	5.0.10.0	5_exp_noRW	70	Rpleas_acq	CS_A	ZHHZ	YFFY	CPPC	DXXD	JQQJ	LWWL	küssen	genießen	träumen	gütig	vertrauen	sonnig	krank	gemein	töten	gierig	versagen	sterben	47pct	acq_USpleas_CSpleas2_noRW	acq1_noRW	1	67	0	0	300	300	746	50	0	1	1	blank2r.bmp	0	1	+	0	1	blank2r.bmp	252	1	YFFY	306	1	gütig	559	0	0	0	0	0	0	0	0	0	0	0	0	0	0	0	0	0	0	0	0	0	0	0	0	0	0	0	0	0	0	0	0	0	0	0	0	0	0	0
071719	16:50:01	16:53:11	187600	5.0.10.0	5_exp_noRW	70	Rpleas_acq	CS_A	ZHHZ	YFFY	CPPC	DXXD	JQQJ	LWWL	küssen	genießen	träumen	gütig	vertrauen	sonnig	krank	gemein	töten	gierig	versagen	sterben	53pct	acq_USpleas_CSunple2_noRW	acq1_noRW	1	68	0	0	300	300	609	50	0	1	1	blank2r.bmp	0	1	+	0	1	blank2r.bmp	252	1	DXXD	306	2	vertrauen	559	0	0	0	0	0	0	0	0	0	0	0	0	0	0	0	0	0	0	0	0	0	0	0	0	0	0	0	0	0	0	0	0	0	0	0	0	0	0	0
071719	16:50:01	16:53:12	189239	5.0.10.0	5_exp_noRW	70	Rpleas_acq	CS_A	ZHHZ	YFFY	CPPC	DXXD	JQQJ	LWWL	küssen	genießen	träumen	gütig	vertrauen	sonnig	krank	gemein	töten	gierig	versagen	sterben	53pct	acq_USpleas_CSunple1_noRW	acq1_noRW	1	69	0	0	300	300	460	50	0	1	1	blank2r.bmp	0	1	+	0	1	blank2r.bmp	252	1	CPPC	306	1	küssen	559	0	0	0	0	0	0	0	0	0	0	0	0	0	0	0	0	0	0	0	0	0	0	0	0	0	0	0	0	0	0	0	0	0	0	0	0	0	0	0
071719	16:50:01	16:53:14	191025	5.0.10.0	5_exp_noRW	70	Rpleas_acq	CS_A	ZHHZ	YFFY	CPPC	DXXD	JQQJ	LWWL	küssen	genießen	träumen	gütig	vertrauen	sonnig	krank	gemein	töten	gierig	versagen	sterben	53pct	acq_USunple_CSunple2_noRW	acq1_noRW	1	70	0	0	300	300	599	46	0	1	1	blank2r.bmp	0	1	+	0	1	blank2r.bmp	252	1	DXXD	306	1	gierig	559	0	0	0	0	0	0	0	0	0	0	0	0	0	0	0	0	0	0	0	0	0	0	0	0	0	0	0	0	0	0	0	0	0	0	0	0	0	0	0
071719	16:50:01	16:53:16	192691	5.0.10.0	5_exp_noRW	70	Rpleas_acq	CS_A	ZHHZ	YFFY	CPPC	DXXD	JQQJ	LWWL	küssen	genießen	träumen	gütig	vertrauen	sonnig	krank	gemein	töten	gierig	versagen	sterben	47pct	acq_USpleas_CSpleas1_noRW	acq1_noRW	1	71	0	0	300	300	502	50	0	1	1	blank2r.bmp	0	1	+	0	1	blank2r.bmp	252	1	ZHHZ	306	1	küssen	559	0	0	0	0	0	0	0	0	0	0	0	0	0	0	0	0	0	0	0	0	0	0	0	0	0	0	0	0	0	0	0	0	0	0	0	0	0	0	0
071719	16:50:01	16:53:18	194530	5.0.10.0	5_exp_noRW	70	Rpleas_acq	CS_A	ZHHZ	YFFY	CPPC	DXXD	JQQJ	LWWL	küssen	genießen	träumen	gütig	vertrauen	sonnig	krank	gemein	töten	gierig	versagen	sterben	47pct	acq_USpleas_CSpleas1_noRW	acq1_noRW	1	72	0	0	300	300	669	50	0	1	1	blank2r.bmp	0	1	+	0	1	blank2r.bmp	252	1	ZHHZ	306	3	träumen	559	0	0	0	0	0	0	0	0	0	0	0	0	0	0	0	0	0	0	0	0	0	0	0	0	0	0	0	0	0	0	0	0	0	0	0	0	0	0	0
071719	16:50:01	16:53:19	196090	5.0.10.0	5_exp_noRW	70	Rpleas_acq	CS_A	ZHHZ	YFFY	CPPC	DXXD	JQQJ	LWWL	küssen	genießen	träumen	gütig	vertrauen	sonnig	krank	gemein	töten	gierig	versagen	sterben	47pct	acq_USpleas_CSpleas1_noRW	acq1_noRW	1	73	0	0	300	300	390	50	0	1	1	blank2r.bmp	0	1	+	0	1	blank2r.bmp	252	1	ZHHZ	306	3	träumen	559	0	0	0	0	0	0	0	0	0	0	0	0	0	0	0	0	0	0	0	0	0	0	0	0	0	0	0	0	0	0	0	0	0	0	0	0	0	0	0
071719	16:50:01	16:53:21	197822	5.0.10.0	5_exp_noRW	70	Rpleas_acq	CS_A	ZHHZ	YFFY	CPPC	DXXD	JQQJ	LWWL	küssen	genießen	träumen	gütig	vertrauen	sonnig	krank	gemein	töten	gierig	versagen	sterben	53pct	acq_USpleas_CSpleas2_noRW	acq1_noRW	1	74	0	0	300	300	546	50	0	1	1	blank2r.bmp	0	1	+	0	1	blank2r.bmp	252	1	YFFY	306	3	sonnig	559	0	0	0	0	0	0	0	0	0	0	0	0	0	0	0	0	0	0	0	0	0	0	0	0	0	0	0	0	0	0	0	0	0	0	0	0	0	0	0
071719	16:50:01	16:53:23	199528	5.0.10.0	5_exp_noRW	70	Rpleas_acq	CS_A	ZHHZ	YFFY	CPPC	DXXD	JQQJ	LWWL	küssen	genießen	träumen	gütig	vertrauen	sonnig	krank	gemein	töten	gierig	versagen	sterben	47pct	acq_USpleas_CSpleas2_noRW	acq1_noRW	1	75	0	0	300	300	532	50	0	1	1	blank2r.bmp	0	1	+	0	1	blank2r.bmp	252	1	YFFY	306	2	vertrauen	559	0	0	0	0	0	0	0	0	0	0	0	0	0	0	0	0	0	0	0	0	0	0	0	0	0	0	0	0	0	0	0	0	0	0	0	0	0	0	0
071719	16:50:01	16:53:24	201181	5.0.10.0	5_exp_noRW	70	Rpleas_acq	CS_A	ZHHZ	YFFY	CPPC	DXXD	JQQJ	LWWL	küssen	genießen	träumen	gütig	vertrauen	sonnig	krank	gemein	töten	gierig	versagen	sterben	53pct	acq_USunple_CSunple1_noRW	acq1_noRW	1	76	0	0	300	300	491	46	0	1	1	blank2r.bmp	0	1	+	0	1	blank2r.bmp	252	1	CPPC	306	2	gemein	559	0	0	0	0	0	0	0	0	0	0	0	0	0	0	0	0	0	0	0	0	0	0	0	0	0	0	0	0	0	0	0	0	0	0	0	0	0	0	0
071719	16:50:01	16:53:26	203073	5.0.10.0	5_exp_noRW	70	Rpleas_acq	CS_A	ZHHZ	YFFY	CPPC	DXXD	JQQJ	LWWL	küssen	genießen	träumen	gütig	vertrauen	sonnig	krank	gemein	töten	gierig	versagen	sterben	47pct	acq_USunple_CSunple2_noRW	acq1_noRW	1	77	0	0	300	300	715	46	0	1	1	blank2r.bmp	0	1	+	0	1	blank2r.bmp	252	1	DXXD	306	3	sterben	559	0	0	0	0	0	0	0	0	0	0	0	0	0	0	0	0	0	0	0	0	0	0	0	0	0	0	0	0	0	0	0	0	0	0	0	0	0	0	0
071719	16:50:01	16:53:28	204779	5.0.10.0	5_exp_noRW	70	Rpleas_acq	CS_A	ZHHZ	YFFY	CPPC	DXXD	JQQJ	LWWL	küssen	genießen	träumen	gütig	vertrauen	sonnig	krank	gemein	töten	gierig	versagen	sterben	53pct	acq_USunple_CSunple2_noRW	acq1_noRW	1	78	0	0	300	300	520	46	0	1	1	blank2r.bmp	0	1	+	0	1	blank2r.bmp	252	1	DXXD	306	1	gierig	559	0	0	0	0	0	0	0	0	0	0	0	0	0	0	0	0	0	0	0	0	0	0	0	0	0	0	0	0	0	0	0	0	0	0	0	0	0	0	0
071719	16:50:01	16:53:30	206432	5.0.10.0	5_exp_noRW	70	Rpleas_acq	CS_A	ZHHZ	YFFY	CPPC	DXXD	JQQJ	LWWL	küssen	genießen	träumen	gütig	vertrauen	sonnig	krank	gemein	töten	gierig	versagen	sterben	47pct	acq_USunple_CSunple1_noRW	acq1_noRW	1	79	0	0	300	300	485	46	0	1	1	blank2r.bmp	0	1	+	0	1	blank2r.bmp	252	1	CPPC	306	3	töten	559	0	0	0	0	0	0	0	0	0	0	0	0	0	0	0	0	0	0	0	0	0	0	0	0	0	0	0	0	0	0	0	0	0	0	0	0	0	0	0
071719	16:50:01	16:53:31	207965	5.0.10.0	5_exp_noRW	70	Rpleas_acq	CS_A	ZHHZ	YFFY	CPPC	DXXD	JQQJ	LWWL	küssen	genießen	träumen	gütig	vertrauen	sonnig	krank	gemein	töten	gierig	versagen	sterben	53pct	acq_USunple_CSunple1_noRW	acq1_noRW	1	80	0	0	300	300	347	46	0	1	1	blank2r.bmp	0	1	+	0	1	blank2r.bmp	252	1	CPPC	306	3	töten	559	0	0	0	0	0	0	0	0	0	0	0	0	0	0	0	0	0	0	0	0	0	0	0	0	0	0	0	0	0	0	0	0	0	0	0	0	0	0	0
071719	16:50:01	16:53:51	227890	5.0.10.0	5_exp_noRW	70	Rpleas_acq	CS_A	ZHHZ	YFFY	CPPC	DXXD	JQQJ	LWWL	küssen	genießen	träumen	gütig	vertrauen	sonnig	krank	gemein	töten	gierig	versagen	sterben	53pct	acq_USunple_CSunple1_noRW	acq23456_noRW	2	1	0	0	300	300	551	46	0	1	1	blank2r.bmp	0	1	+	0	1	blank2r.bmp	252	1	CPPC	306	1	krank	559	0	0	0	0	0	0	0	0	0	0	0	0	0	0	0	0	0	0	0	0	0	0	0	0	0	0	0	0	0	0	0	0	0	0	0	0	0	0	0
071719	16:50:01	16:53:53	229982	5.0.10.0	5_exp_noRW	70	Rpleas_acq	CS_A	ZHHZ	YFFY	CPPC	DXXD	JQQJ	LWWL	küssen	genießen	träumen	gütig	vertrauen	sonnig	krank	gemein	töten	gierig	versagen	sterben	47pct	acq_USpleas_CSpleas2_noRW	acq23456_noRW	2	2	0	0	300	300	911	50	0	1	1	blank2r.bmp	0	1	+	0	1	blank2r.bmp	252	1	YFFY	306	1	gütig	559	0	0	0	0	0	0	0	0	0	0	0	0	0	0	0	0	0	0	0	0	0	0	0	0	0	0	0	0	0	0	0	0	0	0	0	0	0	0	0
071719	16:50:01	16:53:55	231688	5.0.10.0	5_exp_noRW	70	Rpleas_acq	CS_A	ZHHZ	YFFY	CPPC	DXXD	JQQJ	LWWL	küssen	genießen	träumen	gütig	vertrauen	sonnig	krank	gemein	töten	gierig	versagen	sterben	53pct	acq_USpleas_CSpleas1_noRW	acq23456_noRW	2	3	0	0	300	300	531	50	0	1	1	blank2r.bmp	0	1	+	0	1	blank2r.bmp	252	1	ZHHZ	306	2	genießen	559	0	0	0	0	0	0	0	0	0	0	0	0	0	0	0	0	0	0	0	0	0	0	0	0	0	0	0	0	0	0	0	0	0	0	0	0	0	0	0
071719	16:50:01	16:53:57	233341	5.0.10.0	5_exp_noRW	70	Rpleas_acq	CS_A	ZHHZ	YFFY	CPPC	DXXD	JQQJ	LWWL	küssen	genießen	träumen	gütig	vertrauen	sonnig	krank	gemein	töten	gierig	versagen	sterben	53pct	acq_USpleas_CSpleas2_noRW	acq23456_noRW	2	4	0	0	300	300	476	50	0	1	1	blank2r.bmp	0	1	+	0	1	blank2r.bmp	252	1	YFFY	306	3	sonnig	559	0	0	0	0	0	0	0	0	0	0	0	0	0	0	0	0	0	0	0	0	0	0	0	0	0	0	0	0	0	0	0	0	0	0	0	0	0	0	0
071719	16:50:01	16:53:58	234967	5.0.10.0	5_exp_noRW	70	Rpleas_acq	CS_A	ZHHZ	YFFY	CPPC	DXXD	JQQJ	LWWL	küssen	genießen	träumen	gütig	vertrauen	sonnig	krank	gemein	töten	gierig	versagen	sterben	47pct	acq_USpleas_CSpleas1_noRW	acq23456_noRW	2	5	0	0	300	300	444	50	0	1	1	blank2r.bmp	0	1	+	0	1	blank2r.bmp	252	1	ZHHZ	306	1	küssen	559	0	0	0	0	0	0	0	0	0	0	0	0	0	0	0	0	0	0	0	0	0	0	0	0	0	0	0	0	0	0	0	0	0	0	0	0	0	0	0
071719	16:50:01	16:54:00	236673	5.0.10.0	5_exp_noRW	70	Rpleas_acq	CS_A	ZHHZ	YFFY	CPPC	DXXD	JQQJ	LWWL	küssen	genießen	träumen	gütig	vertrauen	sonnig	krank	gemein	töten	gierig	versagen	sterben	53pct	acq_USunple_CSunple2_noRW	acq23456_noRW	2	6	0	0	300	300	545	46	0	1	1	blank2r.bmp	0	1	+	0	1	blank2r.bmp	252	1	DXXD	306	2	versagen	559	0	0	0	0	0	0	0	0	0	0	0	0	0	0	0	0	0	0	0	0	0	0	0	0	0	0	0	0	0	0	0	0	0	0	0	0	0	0	0
071719	16:50:01	16:54:02	238352	5.0.10.0	5_exp_noRW	70	Rpleas_acq	CS_A	ZHHZ	YFFY	CPPC	DXXD	JQQJ	LWWL	küssen	genießen	träumen	gütig	vertrauen	sonnig	krank	gemein	töten	gierig	versagen	sterben	47pct	acq_USunple_CSunple1_noRW	acq23456_noRW	2	7	0	0	300	300	495	46	0	1	1	blank2r.bmp	0	1	+	0	1	blank2r.bmp	252	1	CPPC	306	2	gemein	559	0	0	0	0	0	0	0	0	0	0	0	0	0	0	0	0	0	0	0	0	0	0	0	0	0	0	0	0	0	0	0	0	0	0	0	0	0	0	0
071719	16:50:01	16:54:03	239911	5.0.10.0	5_exp_noRW	70	Rpleas_acq	CS_A	ZHHZ	YFFY	CPPC	DXXD	JQQJ	LWWL	küssen	genießen	träumen	gütig	vertrauen	sonnig	krank	gemein	töten	gierig	versagen	sterben	47pct	acq_USunple_CSunple2_noRW	acq23456_noRW	2	8	0	0	300	300	389	46	0	1	1	blank2r.bmp	0	1	+	0	1	blank2r.bmp	252	1	DXXD	306	3	sterben	559	0	0	0	0	0	0	0	0	0	0	0	0	0	0	0	0	0	0	0	0	0	0	0	0	0	0	0	0	0	0	0	0	0	0	0	0	0	0	0
071719	16:50:01	16:54:05	241564	5.0.10.0	5_exp_noRW	70	Rpleas_acq	CS_A	ZHHZ	YFFY	CPPC	DXXD	JQQJ	LWWL	küssen	genießen	träumen	gütig	vertrauen	sonnig	krank	gemein	töten	gierig	versagen	sterben	53pct	acq_USpleas_CSpleas1_noRW	acq23456_noRW	2	9	0	0	300	300	484	50	0	1	1	blank2r.bmp	0	1	+	0	1	blank2r.bmp	252	1	ZHHZ	306	1	küssen	559	0	0	0	0	0	0	0	0	0	0	0	0	0	0	0	0	0	0	0	0	0	0	0	0	0	0	0	0	0	0	0	0	0	0	0	0	0	0	0
071719	16:50:01	16:54:06	243323	5.0.10.0	5_exp_noRW	70	Rpleas_acq	CS_A	ZHHZ	YFFY	CPPC	DXXD	JQQJ	LWWL	küssen	genießen	träumen	gütig	vertrauen	sonnig	krank	gemein	töten	gierig	versagen	sterben	53pct	acq_USunple_CSunple1_noRW	acq23456_noRW	2	10	0	0	300	300	589	46	0	1	1	blank2r.bmp	0	1	+	0	1	blank2r.bmp	252	1	CPPC	306	2	gemein	559	0	0	0	0	0	0	0	0	0	0	0	0	0	0	0	0	0	0	0	0	0	0	0	0	0	0	0	0	0	0	0	0	0	0	0	0	0	0	0
071719	16:50:01	16:54:08	245176	5.0.10.0	5_exp_noRW	70	Rpleas_acq	CS_A	ZHHZ	YFFY	CPPC	DXXD	JQQJ	LWWL	küssen	genießen	träumen	gütig	vertrauen	sonnig	krank	gemein	töten	gierig	versagen	sterben	53pct	acq_USunple_CSunple2_noRW	acq23456_noRW	2	11	0	0	300	300	667	46	0	1	1	blank2r.bmp	0	1	+	0	1	blank2r.bmp	252	1	DXXD	306	3	sterben	559	0	0	0	0	0	0	0	0	0	0	0	0	0	0	0	0	0	0	0	0	0	0	0	0	0	0	0	0	0	0	0	0	0	0	0	0	0	0	0
071719	16:50:01	16:54:10	246935	5.0.10.0	5_exp_noRW	70	Rpleas_acq	CS_A	ZHHZ	YFFY	CPPC	DXXD	JQQJ	LWWL	küssen	genießen	träumen	gütig	vertrauen	sonnig	krank	gemein	töten	gierig	versagen	sterben	47pct	acq_USpleas_CSunple2_noRW	acq23456_noRW	2	12	0	0	300	300	590	50	0	1	1	blank2r.bmp	0	1	+	0	1	blank2r.bmp	252	1	DXXD	306	3	sonnig	559	0	0	0	0	0	0	0	0	0	0	0	0	0	0	0	0	0	0	0	0	0	0	0	0	0	0	0	0	0	0	0	0	0	0	0	0	0	0	0
071719	16:50:01	16:54:12	248627	5.0.10.0	5_exp_noRW	70	Rpleas_acq	CS_A	ZHHZ	YFFY	CPPC	DXXD	JQQJ	LWWL	küssen	genießen	träumen	gütig	vertrauen	sonnig	krank	gemein	töten	gierig	versagen	sterben	53pct	acq_USunple_CSunple1_noRW	acq23456_noRW	2	13	0	0	300	300	521	46	0	1	1	blank2r.bmp	0	1	+	0	1	blank2r.bmp	252	1	CPPC	306	3	töten	559	0	0	0	0	0	0	0	0	0	0	0	0	0	0	0	0	0	0	0	0	0	0	0	0	0	0	0	0	0	0	0	0	0	0	0	0	0	0	0
071719	16:50:01	16:54:14	250373	5.0.10.0	5_exp_noRW	70	Rpleas_acq	CS_A	ZHHZ	YFFY	CPPC	DXXD	JQQJ	LWWL	küssen	genießen	träumen	gütig	vertrauen	sonnig	krank	gemein	töten	gierig	versagen	sterben	53pct	acq_USpleas_CSpleas1_noRW	acq23456_noRW	2	14	0	0	300	300	566	50	0	1	1	blank2r.bmp	0	1	+	0	1	blank2r.bmp	252	1	ZHHZ	306	2	genießen	559	0	0	0	0	0	0	0	0	0	0	0	0	0	0	0	0	0	0	0	0	0	0	0	0	0	0	0	0	0	0	0	0	0	0	0	0	0	0	0
071719	16:50:01	16:54:15	252239	5.0.10.0	5_exp_noRW	70	Rpleas_acq	CS_A	ZHHZ	YFFY	CPPC	DXXD	JQQJ	LWWL	küssen	genießen	träumen	gütig	vertrauen	sonnig	krank	gemein	töten	gierig	versagen	sterben	53pct	acq_USunple_CSpleas1_noRW	acq23456_noRW	2	15	0	0	300	300	687	46	0	1	1	blank2r.bmp	0	1	+	0	1	blank2r.bmp	252	1	ZHHZ	306	2	gemein	559	0	0	0	0	0	0	0	0	0	0	0	0	0	0	0	0	0	0	0	0	0	0	0	0	0	0	0	0	0	0	0	0	0	0	0	0	0	0	0
071719	16:50:01	16:54:17	254252	5.0.10.0	5_exp_noRW	70	Rpleas_acq	CS_A	ZHHZ	YFFY	CPPC	DXXD	JQQJ	LWWL	küssen	genießen	träumen	gütig	vertrauen	sonnig	krank	gemein	töten	gierig	versagen	sterben	53pct	acq_USpleas_CSpleas2_noRW	acq23456_noRW	2	16	0	0	300	300	830	50	0	1	1	blank2r.bmp	0	1	+	0	1	blank2r.bmp	252	1	YFFY	306	1	gütig	559	0	0	0	0	0	0	0	0	0	0	0	0	0	0	0	0	0	0	0	0	0	0	0	0	0	0	0	0	0	0	0	0	0	0	0	0	0	0	0
071719	16:50:01	16:54:19	255811	5.0.10.0	5_exp_noRW	70	Rpleas_acq	CS_A	ZHHZ	YFFY	CPPC	DXXD	JQQJ	LWWL	küssen	genießen	träumen	gütig	vertrauen	sonnig	krank	gemein	töten	gierig	versagen	sterben	53pct	acq_USpleas_CSpleas2_noRW	acq23456_noRW	2	17	0	0	300	300	391	50	0	1	1	blank2r.bmp	0	1	+	0	1	blank2r.bmp	252	1	YFFY	306	2	vertrauen	559	0	0	0	0	0	0	0	0	0	0	0	0	0	0	0	0	0	0	0	0	0	0	0	0	0	0	0	0	0	0	0	0	0	0	0	0	0	0	0
071719	16:50:01	16:54:21	257610	5.0.10.0	5_exp_noRW	70	Rpleas_acq	CS_A	ZHHZ	YFFY	CPPC	DXXD	JQQJ	LWWL	küssen	genießen	träumen	gütig	vertrauen	sonnig	krank	gemein	töten	gierig	versagen	sterben	47pct	acq_USunple_CSpleas2_noRW	acq23456_noRW	2	18	0	0	300	300	627	46	0	1	1	blank2r.bmp	0	1	+	0	1	blank2r.bmp	252	1	YFFY	306	1	gierig	559	0	0	0	0	0	0	0	0	0	0	0	0	0	0	0	0	0	0	0	0	0	0	0	0	0	0	0	0	0	0	0	0	0	0	0	0	0	0	0
071719	16:50:01	16:54:23	259330	5.0.10.0	5_exp_noRW	70	Rpleas_acq	CS_A	ZHHZ	YFFY	CPPC	DXXD	JQQJ	LWWL	küssen	genießen	träumen	gütig	vertrauen	sonnig	krank	gemein	töten	gierig	versagen	sterben	47pct	acq_USunple_CSunple2_noRW	acq23456_noRW	2	19	0	0	300	300	555	46	0	1	1	blank2r.bmp	0	1	+	0	1	blank2r.bmp	252	1	DXXD	306	2	versagen	559	0	0	0	0	0	0	0	0	0	0	0	0	0	0	0	0	0	0	0	0	0	0	0	0	0	0	0	0	0	0	0	0	0	0	0	0	0	0	0
071719	16:50:01	16:54:24	261302	5.0.10.0	5_exp_noRW	70	Rpleas_acq	CS_A	ZHHZ	YFFY	CPPC	DXXD	JQQJ	LWWL	küssen	genießen	träumen	gütig	vertrauen	sonnig	krank	gemein	töten	gierig	versagen	sterben	47pct	acq_USpleas_CSunple1_noRW	acq23456_noRW	2	20	0	0	300	300	795	50	0	1	1	blank2r.bmp	0	1	+	0	1	blank2r.bmp	252	1	CPPC	306	2	genießen	559	0	0	0	0	0	0	0	0	0	0	0	0	0	0	0	0	0	0	0	0	0	0	0	0	0	0	0	0	0	0	0	0	0	0	0	0	0	0	0
071719	16:50:01	16:54:26	263115	5.0.10.0	5_exp_noRW	70	Rpleas_acq	CS_A	ZHHZ	YFFY	CPPC	DXXD	JQQJ	LWWL	küssen	genießen	träumen	gütig	vertrauen	sonnig	krank	gemein	töten	gierig	versagen	sterben	53pct	acq_USpleas_CSpleas2_noRW	acq23456_noRW	2	21	0	0	300	300	625	50	0	1	1	blank2r.bmp	0	1	+	0	1	blank2r.bmp	252	1	YFFY	306	3	sonnig	559	0	0	0	0	0	0	0	0	0	0	0	0	0	0	0	0	0	0	0	0	0	0	0	0	0	0	0	0	0	0	0	0	0	0	0	0	0	0	0
071719	16:50:01	16:54:28	264914	5.0.10.0	5_exp_noRW	70	Rpleas_acq	CS_A	ZHHZ	YFFY	CPPC	DXXD	JQQJ	LWWL	küssen	genießen	träumen	gütig	vertrauen	sonnig	krank	gemein	töten	gierig	versagen	sterben	53pct	acq_USpleas_CSunple2_noRW	acq23456_noRW	2	22	0	0	300	300	629	50	0	1	1	blank2r.bmp	0	1	+	0	1	blank2r.bmp	252	1	DXXD	306	1	gütig	559	0	0	0	0	0	0	0	0	0	0	0	0	0	0	0	0	0	0	0	0	0	0	0	0	0	0	0	0	0	0	0	0	0	0	0	0	0	0	0
071719	16:50:01	16:54:30	266633	5.0.10.0	5_exp_noRW	70	Rpleas_acq	CS_A	ZHHZ	YFFY	CPPC	DXXD	JQQJ	LWWL	küssen	genießen	träumen	gütig	vertrauen	sonnig	krank	gemein	töten	gierig	versagen	sterben	47pct	acq_USpleas_CSunple1_noRW	acq23456_noRW	2	23	0	0	300	300	532	50	0	1	1	blank2r.bmp	0	1	+	0	1	blank2r.bmp	252	1	CPPC	306	3	träumen	559	0	0	0	0	0	0	0	0	0	0	0	0	0	0	0	0	0	0	0	0	0	0	0	0	0	0	0	0	0	0	0	0	0	0	0	0	0	0	0
071719	16:50:01	16:54:32	268339	5.0.10.0	5_exp_noRW	70	Rpleas_acq	CS_A	ZHHZ	YFFY	CPPC	DXXD	JQQJ	LWWL	küssen	genießen	träumen	gütig	vertrauen	sonnig	krank	gemein	töten	gierig	versagen	sterben	47pct	acq_USunple_CSpleas1_noRW	acq23456_noRW	2	24	0	0	300	300	532	46	0	1	1	blank2r.bmp	0	1	+	0	1	blank2r.bmp	252	1	ZHHZ	306	1	krank	559	0	0	0	0	0	0	0	0	0	0	0	0	0	0	0	0	0	0	0	0	0	0	0	0	0	0	0	0	0	0	0	0	0	0	0	0	0	0	0
071719	16:50:01	16:54:33	270125	5.0.10.0	5_exp_noRW	70	Rpleas_acq	CS_A	ZHHZ	YFFY	CPPC	DXXD	JQQJ	LWWL	küssen	genießen	träumen	gütig	vertrauen	sonnig	krank	gemein	töten	gierig	versagen	sterben	53pct	acq_USpleas_CSpleas1_noRW	acq23456_noRW	2	25	0	0	300	300	622	50	0	1	1	blank2r.bmp	0	1	+	0	1	blank2r.bmp	252	1	ZHHZ	306	3	träumen	559	0	0	0	0	0	0	0	0	0	0	0	0	0	0	0	0	0	0	0	0	0	0	0	0	0	0	0	0	0	0	0	0	0	0	0	0	0	0	0
071719	16:50:01	16:54:35	271884	5.0.10.0	5_exp_noRW	70	Rpleas_acq	CS_A	ZHHZ	YFFY	CPPC	DXXD	JQQJ	LWWL	küssen	genießen	träumen	gütig	vertrauen	sonnig	krank	gemein	töten	gierig	versagen	sterben	47pct	acq_USunple_CSpleas2_noRW	acq23456_noRW	2	26	0	0	300	300	574	46	0	1	1	blank2r.bmp	0	1	+	0	1	blank2r.bmp	252	1	YFFY	306	2	versagen	559	0	0	0	0	0	0	0	0	0	0	0	0	0	0	0	0	0	0	0	0	0	0	0	0	0	0	0	0	0	0	0	0	0	0	0	0	0	0	0
071719	16:50:01	16:54:37	273764	5.0.10.0	5_exp_noRW	70	Rpleas_acq	CS_A	ZHHZ	YFFY	CPPC	DXXD	JQQJ	LWWL	küssen	genießen	träumen	gütig	vertrauen	sonnig	krank	gemein	töten	gierig	versagen	sterben	47pct	acq_USpleas_CSpleas2_noRW	acq23456_noRW	2	27	0	0	300	300	710	50	0	1	1	blank2r.bmp	0	1	+	0	1	blank2r.bmp	252	1	YFFY	306	2	vertrauen	559	0	0	0	0	0	0	0	0	0	0	0	0	0	0	0	0	0	0	0	0	0	0	0	0	0	0	0	0	0	0	0	0	0	0	0	0	0	0	0
071719	16:50:01	16:54:39	275456	5.0.10.0	5_exp_noRW	70	Rpleas_acq	CS_A	ZHHZ	YFFY	CPPC	DXXD	JQQJ	LWWL	küssen	genießen	träumen	gütig	vertrauen	sonnig	krank	gemein	töten	gierig	versagen	sterben	47pct	acq_USunple_CSunple1_noRW	acq23456_noRW	2	28	0	0	300	300	520	46	0	1	1	blank2r.bmp	0	1	+	0	1	blank2r.bmp	252	1	CPPC	306	1	krank	559	0	0	0	0	0	0	0	0	0	0	0	0	0	0	0	0	0	0	0	0	0	0	0	0	0	0	0	0	0	0	0	0	0	0	0	0	0	0	0
071719	16:50:01	16:54:40	277162	5.0.10.0	5_exp_noRW	70	Rpleas_acq	CS_A	ZHHZ	YFFY	CPPC	DXXD	JQQJ	LWWL	küssen	genießen	träumen	gütig	vertrauen	sonnig	krank	gemein	töten	gierig	versagen	sterben	53pct	acq_USpleas_CSpleas1_noRW	acq23456_noRW	2	29	0	0	300	300	543	50	0	1	1	blank2r.bmp	0	1	+	0	1	blank2r.bmp	252	1	ZHHZ	306	3	träumen	559	0	0	0	0	0	0	0	0	0	0	0	0	0	0	0	0	0	0	0	0	0	0	0	0	0	0	0	0	0	0	0	0	0	0	0	0	0	0	0
071719	16:50:01	16:54:42	278908	5.0.10.0	5_exp_noRW	70	Rpleas_acq	CS_A	ZHHZ	YFFY	CPPC	DXXD	JQQJ	LWWL	küssen	genießen	träumen	gütig	vertrauen	sonnig	krank	gemein	töten	gierig	versagen	sterben	53pct	acq_USunple_CSunple1_noRW	acq23456_noRW	2	30	0	0	300	300	569	46	0	1	1	blank2r.bmp	0	1	+	0	1	blank2r.bmp	252	1	CPPC	306	2	gemein	559	0	0	0	0	0	0	0	0	0	0	0	0	0	0	0	0	0	0	0	0	0	0	0	0	0	0	0	0	0	0	0	0	0	0	0	0	0	0	0
071719	16:50:01	16:54:44	280734	5.0.10.0	5_exp_noRW	70	Rpleas_acq	CS_A	ZHHZ	YFFY	CPPC	DXXD	JQQJ	LWWL	küssen	genießen	träumen	gütig	vertrauen	sonnig	krank	gemein	töten	gierig	versagen	sterben	53pct	acq_USunple_CSunple2_noRW	acq23456_noRW	2	31	0	0	300	300	647	46	0	1	1	blank2r.bmp	0	1	+	0	1	blank2r.bmp	252	1	DXXD	306	1	gierig	559	0	0	0	0	0	0	0	0	0	0	0	0	0	0	0	0	0	0	0	0	0	0	0	0	0	0	0	0	0	0	0	0	0	0	0	0	0	0	0
071719	16:50:01	16:54:46	282440	5.0.10.0	5_exp_noRW	70	Rpleas_acq	CS_A	ZHHZ	YFFY	CPPC	DXXD	JQQJ	LWWL	küssen	genießen	träumen	gütig	vertrauen	sonnig	krank	gemein	töten	gierig	versagen	sterben	53pct	acq_USunple_CSunple1_noRW	acq23456_noRW	2	32	0	0	300	300	522	46	0	1	1	blank2r.bmp	0	1	+	0	1	blank2r.bmp	252	1	CPPC	306	3	töten	559	0	0	0	0	0	0	0	0	0	0	0	0	0	0	0	0	0	0	0	0	0	0	0	0	0	0	0	0	0	0	0	0	0	0	0	0	0	0	0
071719	16:50:01	16:54:47	284132	5.0.10.0	5_exp_noRW	70	Rpleas_acq	CS_A	ZHHZ	YFFY	CPPC	DXXD	JQQJ	LWWL	küssen	genießen	träumen	gütig	vertrauen	sonnig	krank	gemein	töten	gierig	versagen	sterben	53pct	acq_USpleas_CSpleas1_noRW	acq23456_noRW	2	33	0	0	300	300	529	50	0	1	1	blank2r.bmp	0	1	+	0	1	blank2r.bmp	252	1	ZHHZ	306	2	genießen	559	0	0	0	0	0	0	0	0	0	0	0	0	0	0	0	0	0	0	0	0	0	0	0	0	0	0	0	0	0	0	0	0	0	0	0	0	0	0	0
071719	16:50:01	16:54:49	285825	5.0.10.0	5_exp_noRW	70	Rpleas_acq	CS_A	ZHHZ	YFFY	CPPC	DXXD	JQQJ	LWWL	küssen	genießen	träumen	gütig	vertrauen	sonnig	krank	gemein	töten	gierig	versagen	sterben	47pct	acq_USpleas_CSpleas2_noRW	acq23456_noRW	2	34	0	0	300	300	511	50	0	1	1	blank2r.bmp	0	1	+	0	1	blank2r.bmp	252	1	YFFY	306	3	sonnig	559	0	0	0	0	0	0	0	0	0	0	0	0	0	0	0	0	0	0	0	0	0	0	0	0	0	0	0	0	0	0	0	0	0	0	0	0	0	0	0
071719	16:50:01	16:54:51	287478	5.0.10.0	5_exp_noRW	70	Rpleas_acq	CS_A	ZHHZ	YFFY	CPPC	DXXD	JQQJ	LWWL	küssen	genießen	träumen	gütig	vertrauen	sonnig	krank	gemein	töten	gierig	versagen	sterben	53pct	acq_USunple_CSunple2_noRW	acq23456_noRW	2	35	0	0	300	300	480	46	0	1	1	blank2r.bmp	0	1	+	0	1	blank2r.bmp	252	1	DXXD	306	3	sterben	559	0	0	0	0	0	0	0	0	0	0	0	0	0	0	0	0	0	0	0	0	0	0	0	0	0	0	0	0	0	0	0	0	0	0	0	0	0	0	0
071719	16:50:01	16:54:52	289144	5.0.10.0	5_exp_noRW	70	Rpleas_acq	CS_A	ZHHZ	YFFY	CPPC	DXXD	JQQJ	LWWL	küssen	genießen	träumen	gütig	vertrauen	sonnig	krank	gemein	töten	gierig	versagen	sterben	53pct	acq_USunple_CSunple1_noRW	acq23456_noRW	2	36	0	0	300	300	504	46	0	1	1	blank2r.bmp	0	1	+	0	1	blank2r.bmp	252	1	CPPC	306	1	krank	559	0	0	0	0	0	0	0	0	0	0	0	0	0	0	0	0	0	0	0	0	0	0	0	0	0	0	0	0	0	0	0	0	0	0	0	0	0	0	0
071719	16:50:01	16:54:54	290970	5.0.10.0	5_exp_noRW	70	Rpleas_acq	CS_A	ZHHZ	YFFY	CPPC	DXXD	JQQJ	LWWL	küssen	genießen	träumen	gütig	vertrauen	sonnig	krank	gemein	töten	gierig	versagen	sterben	53pct	acq_USunple_CSunple2_noRW	acq23456_noRW	2	37	0	0	300	300	657	46	0	1	1	blank2r.bmp	0	1	+	0	1	blank2r.bmp	252	1	DXXD	306	2	versagen	559	0	0	0	0	0	0	0	0	0	0	0	0	0	0	0	0	0	0	0	0	0	0	0	0	0	0	0	0	0	0	0	0	0	0	0	0	0	0	0
071719	16:50:01	16:54:56	292955	5.0.10.0	5_exp_noRW	70	Rpleas_acq	CS_A	ZHHZ	YFFY	CPPC	DXXD	JQQJ	LWWL	küssen	genießen	träumen	gütig	vertrauen	sonnig	krank	gemein	töten	gierig	versagen	sterben	53pct	acq_USpleas_CSpleas2_noRW	acq23456_noRW	2	38	0	0	300	300	818	50	0	1	1	blank2r.bmp	0	1	+	0	1	blank2r.bmp	252	1	YFFY	306	1	gütig	559	0	0	0	0	0	0	0	0	0	0	0	0	0	0	0	0	0	0	0	0	0	0	0	0	0	0	0	0	0	0	0	0	0	0	0	0	0	0	0
071719	16:50:01	16:54:58	294861	5.0.10.0	5_exp_noRW	70	Rpleas_acq	CS_A	ZHHZ	YFFY	CPPC	DXXD	JQQJ	LWWL	küssen	genießen	träumen	gütig	vertrauen	sonnig	krank	gemein	töten	gierig	versagen	sterben	47pct	acq_USunple_CSunple2_noRW	acq23456_noRW	2	39	0	0	300	300	740	46	0	1	1	blank2r.bmp	0	1	+	0	1	blank2r.bmp	252	1	DXXD	306	1	gierig	559	0	0	0	0	0	0	0	0	0	0	0	0	0	0	0	0	0	0	0	0	0	0	0	0	0	0	0	0	0	0	0	0	0	0	0	0	0	0	0
071719	16:50:01	16:55:00	296461	5.0.10.0	5_exp_noRW	70	Rpleas_acq	CS_A	ZHHZ	YFFY	CPPC	DXXD	JQQJ	LWWL	küssen	genießen	träumen	gütig	vertrauen	sonnig	krank	gemein	töten	gierig	versagen	sterben	47pct	acq_USpleas_CSpleas1_noRW	acq23456_noRW	2	40	0	0	300	300	416	50	0	1	1	blank2r.bmp	0	1	+	0	1	blank2r.bmp	252	1	ZHHZ	306	1	küssen	559	0	0	0	0	0	0	0	0	0	0	0	0	0	0	0	0	0	0	0	0	0	0	0	0	0	0	0	0	0	0	0	0	0	0	0	0	0	0	0
071719	16:50:01	16:55:01	298047	5.0.10.0	5_exp_noRW	70	Rpleas_acq	CS_A	ZHHZ	YFFY	CPPC	DXXD	JQQJ	LWWL	küssen	genießen	träumen	gütig	vertrauen	sonnig	krank	gemein	töten	gierig	versagen	sterben	53pct	acq_USunple_CSunple2_noRW	acq23456_noRW	2	41	0	0	300	300	415	46	0	1	1	blank2r.bmp	0	1	+	0	1	blank2r.bmp	252	1	DXXD	306	1	gierig	559	0	0	0	0	0	0	0	0	0	0	0	0	0	0	0	0	0	0	0	0	0	0	0	0	0	0	0	0	0	0	0	0	0	0	0	0	0	0	0
071719	16:50:01	16:55:03	299726	5.0.10.0	5_exp_noRW	70	Rpleas_acq	CS_A	ZHHZ	YFFY	CPPC	DXXD	JQQJ	LWWL	küssen	genießen	träumen	gütig	vertrauen	sonnig	krank	gemein	töten	gierig	versagen	sterben	53pct	acq_USpleas_CSpleas1_noRW	acq23456_noRW	2	42	0	0	300	300	492	50	0	1	1	blank2r.bmp	0	1	+	0	1	blank2r.bmp	252	1	ZHHZ	306	1	küssen	559	0	0	0	0	0	0	0	0	0	0	0	0	0	0	0	0	0	0	0	0	0	0	0	0	0	0	0	0	0	0	0	0	0	0	0	0	0	0	0
071719	16:50:01	16:55:05	301405	5.0.10.0	5_exp_noRW	70	Rpleas_acq	CS_A	ZHHZ	YFFY	CPPC	DXXD	JQQJ	LWWL	küssen	genießen	träumen	gütig	vertrauen	sonnig	krank	gemein	töten	gierig	versagen	sterben	47pct	acq_USpleas_CSpleas2_noRW	acq23456_noRW	2	43	0	0	300	300	517	50	0	1	1	blank2r.bmp	0	1	+	0	1	blank2r.bmp	252	1	YFFY	306	3	sonnig	559	0	0	0	0	0	0	0	0	0	0	0	0	0	0	0	0	0	0	0	0	0	0	0	0	0	0	0	0	0	0	0	0	0	0	0	0	0	0	0
071719	16:50:01	16:55:06	303204	5.0.10.0	5_exp_noRW	70	Rpleas_acq	CS_A	ZHHZ	YFFY	CPPC	DXXD	JQQJ	LWWL	küssen	genießen	träumen	gütig	vertrauen	sonnig	krank	gemein	töten	gierig	versagen	sterben	53pct	acq_USunple_CSunple2_noRW	acq23456_noRW	2	44	0	0	300	300	636	46	0	1	1	blank2r.bmp	0	1	+	0	1	blank2r.bmp	252	1	DXXD	306	3	sterben	559	0	0	0	0	0	0	0	0	0	0	0	0	0	0	0	0	0	0	0	0	0	0	0	0	0	0	0	0	0	0	0	0	0	0	0	0	0	0	0
071719	16:50:01	16:55:08	305097	5.0.10.0	5_exp_noRW	70	Rpleas_acq	CS_A	ZHHZ	YFFY	CPPC	DXXD	JQQJ	LWWL	küssen	genießen	träumen	gütig	vertrauen	sonnig	krank	gemein	töten	gierig	versagen	sterben	47pct	acq_USunple_CSpleas1_noRW	acq23456_noRW	2	45	0	0	300	300	718	46	0	1	1	blank2r.bmp	0	1	+	0	1	blank2r.bmp	252	1	ZHHZ	306	3	töten	559	0	0	0	0	0	0	0	0	0	0	0	0	0	0	0	0	0	0	0	0	0	0	0	0	0	0	0	0	0	0	0	0	0	0	0	0	0	0	0
071719	16:50:01	16:55:10	306736	5.0.10.0	5_exp_noRW	70	Rpleas_acq	CS_A	ZHHZ	YFFY	CPPC	DXXD	JQQJ	LWWL	küssen	genießen	träumen	gütig	vertrauen	sonnig	krank	gemein	töten	gierig	versagen	sterben	47pct	acq_USunple_CSunple1_noRW	acq23456_noRW	2	46	0	0	300	300	463	46	0	1	1	blank2r.bmp	0	1	+	0	1	blank2r.bmp	252	1	CPPC	306	2	gemein	559	0	0	0	0	0	0	0	0	0	0	0	0	0	0	0	0	0	0	0	0	0	0	0	0	0	0	0	0	0	0	0	0	0	0	0	0	0	0	0
071719	16:50:01	16:55:11	308322	5.0.10.0	5_exp_noRW	70	Rpleas_acq	CS_A	ZHHZ	YFFY	CPPC	DXXD	JQQJ	LWWL	küssen	genießen	träumen	gütig	vertrauen	sonnig	krank	gemein	töten	gierig	versagen	sterben	47pct	acq_USunple_CSunple2_noRW	acq23456_noRW	2	47	0	0	300	300	409	46	0	1	1	blank2r.bmp	0	1	+	0	1	blank2r.bmp	252	1	DXXD	306	2	versagen	559	0	0	0	0	0	0	0	0	0	0	0	0	0	0	0	0	0	0	0	0	0	0	0	0	0	0	0	0	0	0	0	0	0	0	0	0	0	0	0
071719	16:50:01	16:55:13	310042	5.0.10.0	5_exp_noRW	70	Rpleas_acq	CS_A	ZHHZ	YFFY	CPPC	DXXD	JQQJ	LWWL	küssen	genießen	träumen	gütig	vertrauen	sonnig	krank	gemein	töten	gierig	versagen	sterben	47pct	acq_USunple_CSunple1_noRW	acq23456_noRW	2	48	0	0	300	300	531	46	0	1	1	blank2r.bmp	0	1	+	0	1	blank2r.bmp	252	1	CPPC	306	3	töten	559	0	0	0	0	0	0	0	0	0	0	0	0	0	0	0	0	0	0	0	0	0	0	0	0	0	0	0	0	0	0	0	0	0	0	0	0	0	0	0
071719	16:50:01	16:55:15	311801	5.0.10.0	5_exp_noRW	70	Rpleas_acq	CS_A	ZHHZ	YFFY	CPPC	DXXD	JQQJ	LWWL	küssen	genießen	träumen	gütig	vertrauen	sonnig	krank	gemein	töten	gierig	versagen	sterben	47pct	acq_USunple_CSunple1_noRW	acq23456_noRW	2	49	0	0	300	300	591	46	0	1	1	blank2r.bmp	0	1	+	0	1	blank2r.bmp	252	1	CPPC	306	1	krank	559	0	0	0	0	0	0	0	0	0	0	0	0	0	0	0	0	0	0	0	0	0	0	0	0	0	0	0	0	0	0	0	0	0	0	0	0	0	0	0
071719	16:50:01	16:55:17	313533	5.0.10.0	5_exp_noRW	70	Rpleas_acq	CS_A	ZHHZ	YFFY	CPPC	DXXD	JQQJ	LWWL	küssen	genießen	träumen	gütig	vertrauen	sonnig	krank	gemein	töten	gierig	versagen	sterben	53pct	acq_USunple_CSunple2_noRW	acq23456_noRW	2	50	0	0	300	300	565	46	0	1	1	blank2r.bmp	0	1	+	0	1	blank2r.bmp	252	1	DXXD	306	2	versagen	559	0	0	0	0	0	0	0	0	0	0	0	0	0	0	0	0	0	0	0	0	0	0	0	0	0	0	0	0	0	0	0	0	0	0	0	0	0	0	0
071719	16:50:01	16:55:18	315186	5.0.10.0	5_exp_noRW	70	Rpleas_acq	CS_A	ZHHZ	YFFY	CPPC	DXXD	JQQJ	LWWL	küssen	genießen	träumen	gütig	vertrauen	sonnig	krank	gemein	töten	gierig	versagen	sterben	53pct	acq_USpleas_CSpleas2_noRW	acq23456_noRW	2	51	0	0	300	300	466	50	0	1	1	blank2r.bmp	0	1	+	0	1	blank2r.bmp	252	1	YFFY	306	1	gütig	559	0	0	0	0	0	0	0	0	0	0	0	0	0	0	0	0	0	0	0	0	0	0	0	0	0	0	0	0	0	0	0	0	0	0	0	0	0	0	0
071719	16:50:01	16:55:20	316825	5.0.10.0	5_exp_noRW	70	Rpleas_acq	CS_A	ZHHZ	YFFY	CPPC	DXXD	JQQJ	LWWL	küssen	genießen	träumen	gütig	vertrauen	sonnig	krank	gemein	töten	gierig	versagen	sterben	47pct	acq_USpleas_CSpleas1_noRW	acq23456_noRW	2	52	0	0	300	300	474	50	0	1	1	blank2r.bmp	0	1	+	0	1	blank2r.bmp	252	1	ZHHZ	306	3	träumen	559	0	0	0	0	0	0	0	0	0	0	0	0	0	0	0	0	0	0	0	0	0	0	0	0	0	0	0	0	0	0	0	0	0	0	0	0	0	0	0
071719	16:50:01	16:55:22	318531	5.0.10.0	5_exp_noRW	70	Rpleas_acq	CS_A	ZHHZ	YFFY	CPPC	DXXD	JQQJ	LWWL	küssen	genießen	träumen	gütig	vertrauen	sonnig	krank	gemein	töten	gierig	versagen	sterben	47pct	acq_USpleas_CSunple2_noRW	acq23456_noRW	2	53	0	0	300	300	529	50	0	1	1	blank2r.bmp	0	1	+	0	1	blank2r.bmp	252	1	DXXD	306	1	gütig	559	0	0	0	0	0	0	0	0	0	0	0	0	0	0	0	0	0	0	0	0	0	0	0	0	0	0	0	0	0	0	0	0	0	0	0	0	0	0	0
071719	16:50:01	16:55:23	320277	5.0.10.0	5_exp_noRW	70	Rpleas_acq	CS_A	ZHHZ	YFFY	CPPC	DXXD	JQQJ	LWWL	küssen	genießen	träumen	gütig	vertrauen	sonnig	krank	gemein	töten	gierig	versagen	sterben	47pct	acq_USpleas_CSpleas2_noRW	acq23456_noRW	2	54	0	0	300	300	560	50	0	1	1	blank2r.bmp	0	1	+	0	1	blank2r.bmp	252	1	YFFY	306	2	vertrauen	559	0	0	0	0	0	0	0	0	0	0	0	0	0	0	0	0	0	0	0	0	0	0	0	0	0	0	0	0	0	0	0	0	0	0	0	0	0	0	0
071719	16:50:01	16:55:25	321983	5.0.10.0	5_exp_noRW	70	Rpleas_acq	CS_A	ZHHZ	YFFY	CPPC	DXXD	JQQJ	LWWL	küssen	genießen	träumen	gütig	vertrauen	sonnig	krank	gemein	töten	gierig	versagen	sterben	53pct	acq_USunple_CSunple1_noRW	acq23456_noRW	2	55	0	0	300	300	520	46	0	1	1	blank2r.bmp	0	1	+	0	1	blank2r.bmp	252	1	CPPC	306	1	krank	559	0	0	0	0	0	0	0	0	0	0	0	0	0	0	0	0	0	0	0	0	0	0	0	0	0	0	0	0	0	0	0	0	0	0	0	0	0	0	0
071719	16:50:01	16:55:27	323529	5.0.10.0	5_exp_noRW	70	Rpleas_acq	CS_A	ZHHZ	YFFY	CPPC	DXXD	JQQJ	LWWL	küssen	genießen	träumen	gütig	vertrauen	sonnig	krank	gemein	töten	gierig	versagen	sterben	53pct	acq_USunple_CSpleas2_noRW	acq23456_noRW	2	56	0	0	300	300	383	46	0	1	1	blank2r.bmp	0	1	+	0	1	blank2r.bmp	252	1	YFFY	306	2	versagen	559	0	0	0	0	0	0	0	0	0	0	0	0	0	0	0	0	0	0	0	0	0	0	0	0	0	0	0	0	0	0	0	0	0	0	0	0	0	0	0
071719	16:50:01	16:55:28	325222	5.0.10.0	5_exp_noRW	70	Rpleas_acq	CS_A	ZHHZ	YFFY	CPPC	DXXD	JQQJ	LWWL	küssen	genießen	träumen	gütig	vertrauen	sonnig	krank	gemein	töten	gierig	versagen	sterben	47pct	acq_USpleas_CSunple1_noRW	acq23456_noRW	2	57	0	0	300	300	508	50	0	1	1	blank2r.bmp	0	1	+	0	1	blank2r.bmp	252	1	CPPC	306	1	küssen	559	0	0	0	0	0	0	0	0	0	0	0	0	0	0	0	0	0	0	0	0	0	0	0	0	0	0	0	0	0	0	0	0	0	0	0	0	0	0	0
071719	16:50:01	16:55:30	327088	5.0.10.0	5_exp_noRW	70	Rpleas_acq	CS_A	ZHHZ	YFFY	CPPC	DXXD	JQQJ	LWWL	küssen	genießen	träumen	gütig	vertrauen	sonnig	krank	gemein	töten	gierig	versagen	sterben	53pct	acq_USpleas_CSpleas1_noRW	acq23456_noRW	2	58	0	0	300	300	684	50	0	1	1	blank2r.bmp	0	1	+	0	1	blank2r.bmp	252	1	ZHHZ	306	2	genießen	559	0	0	0	0	0	0	0	0	0	0	0	0	0	0	0	0	0	0	0	0	0	0	0	0	0	0	0	0	0	0	0	0	0	0	0	0	0	0	0
071719	16:50:01	16:55:32	328794	5.0.10.0	5_exp_noRW	70	Rpleas_acq	CS_A	ZHHZ	YFFY	CPPC	DXXD	JQQJ	LWWL	küssen	genießen	träumen	gütig	vertrauen	sonnig	krank	gemein	töten	gierig	versagen	sterben	53pct	acq_USpleas_CSpleas1_noRW	acq23456_noRW	2	59	0	0	300	300	544	50	0	1	1	blank2r.bmp	0	1	+	0	1	blank2r.bmp	252	1	ZHHZ	306	1	küssen	559	0	0	0	0	0	0	0	0	0	0	0	0	0	0	0	0	0	0	0	0	0	0	0	0	0	0	0	0	0	0	0	0	0	0	0	0	0	0	0
071719	16:50:01	16:55:34	330500	5.0.10.0	5_exp_noRW	70	Rpleas_acq	CS_A	ZHHZ	YFFY	CPPC	DXXD	JQQJ	LWWL	küssen	genießen	träumen	gütig	vertrauen	sonnig	krank	gemein	töten	gierig	versagen	sterben	53pct	acq_USpleas_CSpleas2_noRW	acq23456_noRW	2	60	0	0	300	300	525	50	0	1	1	blank2r.bmp	0	1	+	0	1	blank2r.bmp	252	1	YFFY	306	3	sonnig	559	0	0	0	0	0	0	0	0	0	0	0	0	0	0	0	0	0	0	0	0	0	0	0	0	0	0	0	0	0	0	0	0	0	0	0	0	0	0	0
071719	16:50:01	16:55:35	332285	5.0.10.0	5_exp_noRW	70	Rpleas_acq	CS_A	ZHHZ	YFFY	CPPC	DXXD	JQQJ	LWWL	küssen	genießen	träumen	gütig	vertrauen	sonnig	krank	gemein	töten	gierig	versagen	sterben	53pct	acq_USunple_CSunple1_noRW	acq23456_noRW	2	61	0	0	300	300	612	46	0	1	1	blank2r.bmp	0	1	+	0	1	blank2r.bmp	252	1	CPPC	306	2	gemein	559	0	0	0	0	0	0	0	0	0	0	0	0	0	0	0	0	0	0	0	0	0	0	0	0	0	0	0	0	0	0	0	0	0	0	0	0	0	0	0
071719	16:50:01	16:55:37	334085	5.0.10.0	5_exp_noRW	70	Rpleas_acq	CS_A	ZHHZ	YFFY	CPPC	DXXD	JQQJ	LWWL	küssen	genießen	träumen	gütig	vertrauen	sonnig	krank	gemein	töten	gierig	versagen	sterben	47pct	acq_USpleas_CSunple2_noRW	acq23456_noRW	2	62	0	0	300	300	626	50	0	1	1	blank2r.bmp	0	1	+	0	1	blank2r.bmp	252	1	DXXD	306	3	sonnig	559	0	0	0	0	0	0	0	0	0	0	0	0	0	0	0	0	0	0	0	0	0	0	0	0	0	0	0	0	0	0	0	0	0	0	0	0	0	0	0
071719	16:50:01	16:55:39	335831	5.0.10.0	5_exp_noRW	70	Rpleas_acq	CS_A	ZHHZ	YFFY	CPPC	DXXD	JQQJ	LWWL	küssen	genießen	träumen	gütig	vertrauen	sonnig	krank	gemein	töten	gierig	versagen	sterben	53pct	acq_USpleas_CSpleas1_noRW	acq23456_noRW	2	63	0	0	300	300	566	50	0	1	1	blank2r.bmp	0	1	+	0	1	blank2r.bmp	252	1	ZHHZ	306	2	genießen	559	0	0	0	0	0	0	0	0	0	0	0	0	0	0	0	0	0	0	0	0	0	0	0	0	0	0	0	0	0	0	0	0	0	0	0	0	0	0	0
071719	16:50:01	16:55:41	337710	5.0.10.0	5_exp_noRW	70	Rpleas_acq	CS_A	ZHHZ	YFFY	CPPC	DXXD	JQQJ	LWWL	küssen	genießen	träumen	gütig	vertrauen	sonnig	krank	gemein	töten	gierig	versagen	sterben	47pct	acq_USunple_CSunple2_noRW	acq23456_noRW	2	64	0	0	300	300	693	46	0	1	1	blank2r.bmp	0	1	+	0	1	blank2r.bmp	252	1	DXXD	306	3	sterben	559	0	0	0	0	0	0	0	0	0	0	0	0	0	0	0	0	0	0	0	0	0	0	0	0	0	0	0	0	0	0	0	0	0	0	0	0	0	0	0
071719	16:50:01	16:55:43	339602	5.0.10.0	5_exp_noRW	70	Rpleas_acq	CS_A	ZHHZ	YFFY	CPPC	DXXD	JQQJ	LWWL	küssen	genießen	träumen	gütig	vertrauen	sonnig	krank	gemein	töten	gierig	versagen	sterben	47pct	acq_USpleas_CSunple1_noRW	acq23456_noRW	2	65	0	0	300	300	727	50	0	1	1	blank2r.bmp	0	1	+	0	1	blank2r.bmp	252	1	CPPC	306	2	genießen	559	0	0	0	0	0	0	0	0	0	0	0	0	0	0	0	0	0	0	0	0	0	0	0	0	0	0	0	0	0	0	0	0	0	0	0	0	0	0	0
071719	16:50:01	16:55:44	341322	5.0.10.0	5_exp_noRW	70	Rpleas_acq	CS_A	ZHHZ	YFFY	CPPC	DXXD	JQQJ	LWWL	küssen	genießen	träumen	gütig	vertrauen	sonnig	krank	gemein	töten	gierig	versagen	sterben	47pct	acq_USpleas_CSpleas2_noRW	acq23456_noRW	2	66	0	0	300	300	532	50	0	1	1	blank2r.bmp	0	1	+	0	1	blank2r.bmp	252	1	YFFY	306	2	vertrauen	559	0	0	0	0	0	0	0	0	0	0	0	0	0	0	0	0	0	0	0	0	0	0	0	0	0	0	0	0	0	0	0	0	0	0	0	0	0	0	0
071719	16:50:01	16:55:46	343267	5.0.10.0	5_exp_noRW	70	Rpleas_acq	CS_A	ZHHZ	YFFY	CPPC	DXXD	JQQJ	LWWL	küssen	genießen	träumen	gütig	vertrauen	sonnig	krank	gemein	töten	gierig	versagen	sterben	53pct	acq_USpleas_CSpleas2_noRW	acq23456_noRW	2	67	0	0	300	300	775	50	0	1	1	blank2r.bmp	0	1	+	0	1	blank2r.bmp	252	1	YFFY	306	1	gütig	559	0	0	0	0	0	0	0	0	0	0	0	0	0	0	0	0	0	0	0	0	0	0	0	0	0	0	0	0	0	0	0	0	0	0	0	0	0	0	0
071719	16:50:01	16:55:48	344920	5.0.10.0	5_exp_noRW	70	Rpleas_acq	CS_A	ZHHZ	YFFY	CPPC	DXXD	JQQJ	LWWL	küssen	genießen	träumen	gütig	vertrauen	sonnig	krank	gemein	töten	gierig	versagen	sterben	53pct	acq_USpleas_CSpleas1_noRW	acq23456_noRW	2	68	0	0	300	300	485	50	0	1	1	blank2r.bmp	0	1	+	0	1	blank2r.bmp	252	1	ZHHZ	306	3	träumen	559	0	0	0	0	0	0	0	0	0	0	0	0	0	0	0	0	0	0	0	0	0	0	0	0	0	0	0	0	0	0	0	0	0	0	0	0	0	0	0
071719	16:50:01	16:55:50	346586	5.0.10.0	5_exp_noRW	70	Rpleas_acq	CS_A	ZHHZ	YFFY	CPPC	DXXD	JQQJ	LWWL	küssen	genießen	träumen	gütig	vertrauen	sonnig	krank	gemein	töten	gierig	versagen	sterben	53pct	acq_USunple_CSunple1_noRW	acq23456_noRW	2	69	0	0	300	300	490	46	0	1	1	blank2r.bmp	0	1	+	0	1	blank2r.bmp	252	1	CPPC	306	3	töten	559	0	0	0	0	0	0	0	0	0	0	0	0	0	0	0	0	0	0	0	0	0	0	0	0	0	0	0	0	0	0	0	0	0	0	0	0	0	0	0
071719	16:50:01	16:55:51	348319	5.0.10.0	5_exp_noRW	70	Rpleas_acq	CS_A	ZHHZ	YFFY	CPPC	DXXD	JQQJ	LWWL	küssen	genießen	träumen	gütig	vertrauen	sonnig	krank	gemein	töten	gierig	versagen	sterben	53pct	acq_USpleas_CSpleas1_noRW	acq23456_noRW	2	70	0	0	300	300	546	50	0	1	1	blank2r.bmp	0	1	+	0	1	blank2r.bmp	252	1	ZHHZ	306	3	träumen	559	0	0	0	0	0	0	0	0	0	0	0	0	0	0	0	0	0	0	0	0	0	0	0	0	0	0	0	0	0	0	0	0	0	0	0	0	0	0	0
071719	16:50:01	16:55:54	350398	5.0.10.0	5_exp_noRW	70	Rpleas_acq	CS_A	ZHHZ	YFFY	CPPC	DXXD	JQQJ	LWWL	küssen	genießen	träumen	gütig	vertrauen	sonnig	krank	gemein	töten	gierig	versagen	sterben	53pct	acq_USunple_CSunple2_noRW	acq23456_noRW	2	71	0	0	300	300	916	46	0	1	1	blank2r.bmp	0	1	+	0	1	blank2r.bmp	252	1	DXXD	306	1	gierig	559	0	0	0	0	0	0	0	0	0	0	0	0	0	0	0	0	0	0	0	0	0	0	0	0	0	0	0	0	0	0	0	0	0	0	0	0	0	0	0
071719	16:50:01	16:55:55	352024	5.0.10.0	5_exp_noRW	70	Rpleas_acq	CS_A	ZHHZ	YFFY	CPPC	DXXD	JQQJ	LWWL	küssen	genießen	träumen	gütig	vertrauen	sonnig	krank	gemein	töten	gierig	versagen	sterben	47pct	acq_USunple_CSunple1_noRW	acq23456_noRW	2	72	0	0	300	300	451	46	0	1	1	blank2r.bmp	0	1	+	0	1	blank2r.bmp	252	1	CPPC	306	1	krank	559	0	0	0	0	0	0	0	0	0	0	0	0	0	0	0	0	0	0	0	0	0	0	0	0	0	0	0	0	0	0	0	0	0	0	0	0	0	0	0
071719	16:50:01	16:55:57	353650	5.0.10.0	5_exp_noRW	70	Rpleas_acq	CS_A	ZHHZ	YFFY	CPPC	DXXD	JQQJ	LWWL	küssen	genießen	träumen	gütig	vertrauen	sonnig	krank	gemein	töten	gierig	versagen	sterben	53pct	acq_USunple_CSpleas2_noRW	acq23456_noRW	2	73	0	0	300	300	448	46	0	1	1	blank2r.bmp	0	1	+	0	1	blank2r.bmp	252	1	YFFY	306	1	gierig	559	0	0	0	0	0	0	0	0	0	0	0	0	0	0	0	0	0	0	0	0	0	0	0	0	0	0	0	0	0	0	0	0	0	0	0	0	0	0	0
071719	16:50:01	16:55:58	355302	5.0.10.0	5_exp_noRW	70	Rpleas_acq	CS_A	ZHHZ	YFFY	CPPC	DXXD	JQQJ	LWWL	küssen	genießen	träumen	gütig	vertrauen	sonnig	krank	gemein	töten	gierig	versagen	sterben	53pct	acq_USpleas_CSpleas1_noRW	acq23456_noRW	2	74	0	0	300	300	480	50	0	1	1	blank2r.bmp	0	1	+	0	1	blank2r.bmp	252	1	ZHHZ	306	1	küssen	559	0	0	0	0	0	0	0	0	0	0	0	0	0	0	0	0	0	0	0	0	0	0	0	0	0	0	0	0	0	0	0	0	0	0	0	0	0	0	0
071719	16:50:01	16:56:00	357302	5.0.10.0	5_exp_noRW	70	Rpleas_acq	CS_A	ZHHZ	YFFY	CPPC	DXXD	JQQJ	LWWL	küssen	genießen	träumen	gütig	vertrauen	sonnig	krank	gemein	töten	gierig	versagen	sterben	47pct	acq_USunple_CSpleas1_noRW	acq23456_noRW	2	75	0	0	300	300	837	46	0	1	1	blank2r.bmp	0	1	+	0	1	blank2r.bmp	252	1	ZHHZ	306	2	gemein	559	0	0	0	0	0	0	0	0	0	0	0	0	0	0	0	0	0	0	0	0	0	0	0	0	0	0	0	0	0	0	0	0	0	0	0	0	0	0	0
071719	16:50:01	16:56:02	358861	5.0.10.0	5_exp_noRW	70	Rpleas_acq	CS_A	ZHHZ	YFFY	CPPC	DXXD	JQQJ	LWWL	küssen	genießen	träumen	gütig	vertrauen	sonnig	krank	gemein	töten	gierig	versagen	sterben	47pct	acq_USunple_CSunple2_noRW	acq23456_noRW	2	76	0	0	300	300	381	46	0	1	1	blank2r.bmp	0	1	+	0	1	blank2r.bmp	252	1	DXXD	306	3	sterben	559	0	0	0	0	0	0	0	0	0	0	0	0	0	0	0	0	0	0	0	0	0	0	0	0	0	0	0	0	0	0	0	0	0	0	0	0	0	0	0
071719	16:50:01	16:56:04	360633	5.0.10.0	5_exp_noRW	70	Rpleas_acq	CS_A	ZHHZ	YFFY	CPPC	DXXD	JQQJ	LWWL	küssen	genießen	träumen	gütig	vertrauen	sonnig	krank	gemein	töten	gierig	versagen	sterben	47pct	acq_USpleas_CSpleas2_noRW	acq23456_noRW	2	77	0	0	300	300	604	50	0	1	1	blank2r.bmp	0	1	+	0	1	blank2r.bmp	252	1	YFFY	306	3	sonnig	559	0	0	0	0	0	0	0	0	0	0	0	0	0	0	0	0	0	0	0	0	0	0	0	0	0	0	0	0	0	0	0	0	0	0	0	0	0	0	0
071719	16:50:01	16:56:06	362393	5.0.10.0	5_exp_noRW	70	Rpleas_acq	CS_A	ZHHZ	YFFY	CPPC	DXXD	JQQJ	LWWL	küssen	genießen	träumen	gütig	vertrauen	sonnig	krank	gemein	töten	gierig	versagen	sterben	53pct	acq_USpleas_CSpleas2_noRW	acq23456_noRW	2	78	0	0	300	300	577	50	0	1	1	blank2r.bmp	0	1	+	0	1	blank2r.bmp	252	1	YFFY	306	2	vertrauen	559	0	0	0	0	0	0	0	0	0	0	0	0	0	0	0	0	0	0	0	0	0	0	0	0	0	0	0	0	0	0	0	0	0	0	0	0	0	0	0
071719	16:50:01	16:56:07	364299	5.0.10.0	5_exp_noRW	70	Rpleas_acq	CS_A	ZHHZ	YFFY	CPPC	DXXD	JQQJ	LWWL	küssen	genießen	träumen	gütig	vertrauen	sonnig	krank	gemein	töten	gierig	versagen	sterben	53pct	acq_USunple_CSunple1_noRW	acq23456_noRW	2	79	0	0	300	300	522	50	0	0	1	blank2r.bmp	0	1	+	0	1	blank2r.bmp	252	1	CPPC	306	2	gemein	559	1	FEHLER	1119	0	0	0	0	0	0	0	0	0	0	0	0	0	0	0	0	0	0	0	0	0	0	0	0	0	0	0	0	0	0	0	0	0	0	0	0
071719	16:50:01	16:56:09	365925	5.0.10.0	5_exp_noRW	70	Rpleas_acq	CS_A	ZHHZ	YFFY	CPPC	DXXD	JQQJ	LWWL	küssen	genießen	träumen	gütig	vertrauen	sonnig	krank	gemein	töten	gierig	versagen	sterben	53pct	acq_USunple_CSunple2_noRW	acq23456_noRW	2	80	0	0	300	300	671	46	0	1	1	blank2r.bmp	0	1	+	0	1	blank2r.bmp	252	1	DXXD	306	1	gierig	559	0	0	0	0	0	0	0	0	0	0	0	0	0	0	0	0	0	0	0	0	0	0	0	0	0	0	0	0	0	0	0	0	0	0	0	0	0	0	0
071719	16:50:01	16:56:27	383664	5.0.10.0	5_exp_noRW	70	Rpleas_acq	CS_A	ZHHZ	YFFY	CPPC	DXXD	JQQJ	LWWL	küssen	genießen	träumen	gütig	vertrauen	sonnig	krank	gemein	töten	gierig	versagen	sterben	53pct	acq_USunple_CSunple2_noRW	acq23456_noRW	3	1	0	0	300	300	497	46	0	1	1	blank2r.bmp	0	1	+	0	1	blank2r.bmp	252	1	DXXD	306	2	versagen	559	0	0	0	0	0	0	0	0	0	0	0	0	0	0	0	0	0	0	0	0	0	0	0	0	0	0	0	0	0	0	0	0	0	0	0	0	0	0	0
071719	16:50:01	16:56:29	385356	5.0.10.0	5_exp_noRW	70	Rpleas_acq	CS_A	ZHHZ	YFFY	CPPC	DXXD	JQQJ	LWWL	küssen	genießen	träumen	gütig	vertrauen	sonnig	krank	gemein	töten	gierig	versagen	sterben	53pct	acq_USpleas_CSpleas1_noRW	acq23456_noRW	3	2	0	0	300	300	520	50	0	1	1	blank2r.bmp	0	1	+	0	1	blank2r.bmp	252	1	ZHHZ	306	2	genießen	559	0	0	0	0	0	0	0	0	0	0	0	0	0	0	0	0	0	0	0	0	0	0	0	0	0	0	0	0	0	0	0	0	0	0	0	0	0	0	0
071719	16:50:01	16:56:31	387356	5.0.10.0	5_exp_noRW	70	Rpleas_acq	CS_A	ZHHZ	YFFY	CPPC	DXXD	JQQJ	LWWL	küssen	genießen	träumen	gütig	vertrauen	sonnig	krank	gemein	töten	gierig	versagen	sterben	47pct	acq_USpleas_CSpleas1_noRW	acq23456_noRW	3	3	0	0	300	300	833	50	0	1	1	blank2r.bmp	0	1	+	0	1	blank2r.bmp	252	1	ZHHZ	306	2	genießen	559	0	0	0	0	0	0	0	0	0	0	0	0	0	0	0	0	0	0	0	0	0	0	0	0	0	0	0	0	0	0	0	0	0	0	0	0	0	0	0
071719	16:50:01	16:56:32	389021	5.0.10.0	5_exp_noRW	70	Rpleas_acq	CS_A	ZHHZ	YFFY	CPPC	DXXD	JQQJ	LWWL	küssen	genießen	träumen	gütig	vertrauen	sonnig	krank	gemein	töten	gierig	versagen	sterben	53pct	acq_USunple_CSpleas2_noRW	acq23456_noRW	3	4	0	0	300	300	485	46	0	1	1	blank2r.bmp	0	1	+	0	1	blank2r.bmp	252	1	YFFY	306	3	sterben	559	0	0	0	0	0	0	0	0	0	0	0	0	0	0	0	0	0	0	0	0	0	0	0	0	0	0	0	0	0	0	0	0	0	0	0	0	0	0	0
071719	16:50:01	16:56:34	390741	5.0.10.0	5_exp_noRW	70	Rpleas_acq	CS_A	ZHHZ	YFFY	CPPC	DXXD	JQQJ	LWWL	küssen	genießen	träumen	gütig	vertrauen	sonnig	krank	gemein	töten	gierig	versagen	sterben	47pct	acq_USpleas_CSpleas1_noRW	acq23456_noRW	3	5	0	0	300	300	543	50	0	1	1	blank2r.bmp	0	1	+	0	1	blank2r.bmp	252	1	ZHHZ	306	1	küssen	559	0	0	0	0	0	0	0	0	0	0	0	0	0	0	0	0	0	0	0	0	0	0	0	0	0	0	0	0	0	0	0	0	0	0	0	0	0	0	0
071719	16:50:01	16:56:36	392660	5.0.10.0	5_exp_noRW	70	Rpleas_acq	CS_A	ZHHZ	YFFY	CPPC	DXXD	JQQJ	LWWL	küssen	genießen	träumen	gütig	vertrauen	sonnig	krank	gemein	töten	gierig	versagen	sterben	47pct	acq_USpleas_CSpleas2_noRW	acq23456_noRW	3	6	0	0	300	300	737	50	0	1	1	blank2r.bmp	0	1	+	0	1	blank2r.bmp	252	1	YFFY	306	1	gütig	559	0	0	0	0	0	0	0	0	0	0	0	0	0	0	0	0	0	0	0	0	0	0	0	0	0	0	0	0	0	0	0	0	0	0	0	0	0	0	0
071719	16:50:01	16:56:38	394393	5.0.10.0	5_exp_noRW	70	Rpleas_acq	CS_A	ZHHZ	YFFY	CPPC	DXXD	JQQJ	LWWL	küssen	genießen	träumen	gütig	vertrauen	sonnig	krank	gemein	töten	gierig	versagen	sterben	53pct	acq_USunple_CSunple2_noRW	acq23456_noRW	3	7	0	0	300	300	545	46	0	1	1	blank2r.bmp	0	1	+	0	1	blank2r.bmp	252	1	DXXD	306	2	versagen	559	0	0	0	0	0	0	0	0	0	0	0	0	0	0	0	0	0	0	0	0	0	0	0	0	0	0	0	0	0	0	0	0	0	0	0	0	0	0	0
071719	16:50:01	16:56:40	396392	5.0.10.0	5_exp_noRW	70	Rpleas_acq	CS_A	ZHHZ	YFFY	CPPC	DXXD	JQQJ	LWWL	küssen	genießen	träumen	gütig	vertrauen	sonnig	krank	gemein	töten	gierig	versagen	sterben	47pct	acq_USunple_CSunple2_noRW	acq23456_noRW	3	8	0	0	300	300	829	46	0	1	1	blank2r.bmp	0	1	+	0	1	blank2r.bmp	252	1	DXXD	306	3	sterben	559	0	0	0	0	0	0	0	0	0	0	0	0	0	0	0	0	0	0	0	0	0	0	0	0	0	0	0	0	0	0	0	0	0	0	0	0	0	0	0
071719	16:50:01	16:56:41	398031	5.0.10.0	5_exp_noRW	70	Rpleas_acq	CS_A	ZHHZ	YFFY	CPPC	DXXD	JQQJ	LWWL	küssen	genießen	träumen	gütig	vertrauen	sonnig	krank	gemein	töten	gierig	versagen	sterben	53pct	acq_USunple_CSunple1_noRW	acq23456_noRW	3	9	0	0	300	300	452	46	0	1	1	blank2r.bmp	0	1	+	0	1	blank2r.bmp	252	1	CPPC	306	3	töten	559	0	0	0	0	0	0	0	0	0	0	0	0	0	0	0	0	0	0	0	0	0	0	0	0	0	0	0	0	0	0	0	0	0	0	0	0	0	0	0
071719	16:50:01	16:56:43	399510	5.0.10.0	5_exp_noRW	70	Rpleas_acq	CS_A	ZHHZ	YFFY	CPPC	DXXD	JQQJ	LWWL	küssen	genießen	träumen	gütig	vertrauen	sonnig	krank	gemein	töten	gierig	versagen	sterben	47pct	acq_USunple_CSunple1_noRW	acq23456_noRW	3	10	0	0	300	300	310	46	0	1	1	blank2r.bmp	0	1	+	0	1	blank2r.bmp	252	1	CPPC	306	3	töten	559	0	0	0	0	0	0	0	0	0	0	0	0	0	0	0	0	0	0	0	0	0	0	0	0	0	0	0	0	0	0	0	0	0	0	0	0	0	0	0
071719	16:50:01	16:56:44	401256	5.0.10.0	5_exp_noRW	70	Rpleas_acq	CS_A	ZHHZ	YFFY	CPPC	DXXD	JQQJ	LWWL	küssen	genießen	träumen	gütig	vertrauen	sonnig	krank	gemein	töten	gierig	versagen	sterben	53pct	acq_USpleas_CSpleas1_noRW	acq23456_noRW	3	11	0	0	300	300	570	50	0	1	1	blank2r.bmp	0	1	+	0	1	blank2r.bmp	252	1	ZHHZ	306	3	träumen	559	0	0	0	0	0	0	0	0	0	0	0	0	0	0	0	0	0	0	0	0	0	0	0	0	0	0	0	0	0	0	0	0	0	0	0	0	0	0	0
071719	16:50:01	16:56:46	402802	5.0.10.0	5_exp_noRW	70	Rpleas_acq	CS_A	ZHHZ	YFFY	CPPC	DXXD	JQQJ	LWWL	küssen	genießen	träumen	gütig	vertrauen	sonnig	krank	gemein	töten	gierig	versagen	sterben	47pct	acq_USpleas_CSunple2_noRW	acq23456_noRW	3	12	0	0	300	300	365	50	0	1	1	blank2r.bmp	0	1	+	0	1	blank2r.bmp	252	1	DXXD	306	2	vertrauen	559	0	0	0	0	0	0	0	0	0	0	0	0	0	0	0	0	0	0	0	0	0	0	0	0	0	0	0	0	0	0	0	0	0	0	0	0	0	0	0
071719	16:50:01	16:56:47	404322	5.0.10.0	5_exp_noRW	70	Rpleas_acq	CS_A	ZHHZ	YFFY	CPPC	DXXD	JQQJ	LWWL	küssen	genießen	träumen	gütig	vertrauen	sonnig	krank	gemein	töten	gierig	versagen	sterben	47pct	acq_USpleas_CSpleas2_noRW	acq23456_noRW	3	13	0	0	300	300	340	50	0	1	1	blank2r.bmp	0	1	+	0	1	blank2r.bmp	252	1	YFFY	306	3	sonnig	559	0	0	0	0	0	0	0	0	0	0	0	0	0	0	0	0	0	0	0	0	0	0	0	0	0	0	0	0	0	0	0	0	0	0	0	0	0	0	0
071719	16:50:01	16:56:49	405988	5.0.10.0	5_exp_noRW	70	Rpleas_acq	CS_A	ZHHZ	YFFY	CPPC	DXXD	JQQJ	LWWL	küssen	genießen	träumen	gütig	vertrauen	sonnig	krank	gemein	töten	gierig	versagen	sterben	47pct	acq_USunple_CSunple1_noRW	acq23456_noRW	3	14	0	0	300	300	492	46	0	1	1	blank2r.bmp	0	1	+	0	1	blank2r.bmp	252	1	CPPC	306	2	gemein	559	0	0	0	0	0	0	0	0	0	0	0	0	0	0	0	0	0	0	0	0	0	0	0	0	0	0	0	0	0	0	0	0	0	0	0	0	0	0	0
071719	16:50:01	16:56:51	407707	5.0.10.0	5_exp_noRW	70	Rpleas_acq	CS_A	ZHHZ	YFFY	CPPC	DXXD	JQQJ	LWWL	küssen	genießen	träumen	gütig	vertrauen	sonnig	krank	gemein	töten	gierig	versagen	sterben	53pct	acq_USunple_CSunple2_noRW	acq23456_noRW	3	15	0	0	300	300	550	46	0	1	1	blank2r.bmp	0	1	+	0	1	blank2r.bmp	252	1	DXXD	306	1	gierig	559	0	0	0	0	0	0	0	0	0	0	0	0	0	0	0	0	0	0	0	0	0	0	0	0	0	0	0	0	0	0	0	0	0	0	0	0	0	0	0
071719	16:50:01	16:56:53	409613	5.0.10.0	5_exp_noRW	70	Rpleas_acq	CS_A	ZHHZ	YFFY	CPPC	DXXD	JQQJ	LWWL	küssen	genießen	träumen	gütig	vertrauen	sonnig	krank	gemein	töten	gierig	versagen	sterben	47pct	acq_USpleas_CSpleas2_noRW	acq23456_noRW	3	16	0	0	300	300	530	46	0	0	1	blank2r.bmp	0	1	+	0	1	blank2r.bmp	252	1	YFFY	306	1	gütig	559	1	FEHLER	1119	0	0	0	0	0	0	0	0	0	0	0	0	0	0	0	0	0	0	0	0	0	0	0	0	0	0	0	0	0	0	0	0	0	0	0	0
071719	16:50:01	16:56:54	411079	5.0.10.0	5_exp_noRW	70	Rpleas_acq	CS_A	ZHHZ	YFFY	CPPC	DXXD	JQQJ	LWWL	küssen	genießen	träumen	gütig	vertrauen	sonnig	krank	gemein	töten	gierig	versagen	sterben	47pct	acq_USunple_CSunple1_noRW	acq23456_noRW	3	17	0	0	300	300	499	46	0	1	1	blank2r.bmp	0	1	+	0	1	blank2r.bmp	252	1	CPPC	306	1	krank	559	0	0	0	0	0	0	0	0	0	0	0	0	0	0	0	0	0	0	0	0	0	0	0	0	0	0	0	0	0	0	0	0	0	0	0	0	0	0	0
071719	16:50:01	16:56:56	412931	5.0.10.0	5_exp_noRW	70	Rpleas_acq	CS_A	ZHHZ	YFFY	CPPC	DXXD	JQQJ	LWWL	küssen	genießen	träumen	gütig	vertrauen	sonnig	krank	gemein	töten	gierig	versagen	sterben	53pct	acq_USpleas_CSunple1_noRW	acq23456_noRW	3	18	0	0	300	300	672	50	0	1	1	blank2r.bmp	0	1	+	0	1	blank2r.bmp	252	1	CPPC	306	3	träumen	559	0	0	0	0	0	0	0	0	0	0	0	0	0	0	0	0	0	0	0	0	0	0	0	0	0	0	0	0	0	0	0	0	0	0	0	0	0	0	0
071719	16:50:01	16:56:58	414651	5.0.10.0	5_exp_noRW	70	Rpleas_acq	CS_A	ZHHZ	YFFY	CPPC	DXXD	JQQJ	LWWL	küssen	genießen	träumen	gütig	vertrauen	sonnig	krank	gemein	töten	gierig	versagen	sterben	53pct	acq_USunple_CSpleas1_noRW	acq23456_noRW	3	19	0	0	300	300	551	46	0	1	1	blank2r.bmp	0	1	+	0	1	blank2r.bmp	252	1	ZHHZ	306	1	krank	559	0	0	0	0	0	0	0	0	0	0	0	0	0	0	0	0	0	0	0	0	0	0	0	0	0	0	0	0	0	0	0	0	0	0	0	0	0	0	0
071719	16:50:01	16:57:00	416437	5.0.10.0	5_exp_noRW	70	Rpleas_acq	CS_A	ZHHZ	YFFY	CPPC	DXXD	JQQJ	LWWL	küssen	genießen	träumen	gütig	vertrauen	sonnig	krank	gemein	töten	gierig	versagen	sterben	47pct	acq_USpleas_CSpleas2_noRW	acq23456_noRW	3	20	0	0	300	300	614	50	0	1	1	blank2r.bmp	0	1	+	0	1	blank2r.bmp	252	1	YFFY	306	2	vertrauen	559	0	0	0	0	0	0	0	0	0	0	0	0	0	0	0	0	0	0	0	0	0	0	0	0	0	0	0	0	0	0	0	0	0	0	0	0	0	0	0
071719	16:50:01	16:57:01	418142	5.0.10.0	5_exp_noRW	70	Rpleas_acq	CS_A	ZHHZ	YFFY	CPPC	DXXD	JQQJ	LWWL	küssen	genießen	träumen	gütig	vertrauen	sonnig	krank	gemein	töten	gierig	versagen	sterben	53pct	acq_USpleas_CSunple2_noRW	acq23456_noRW	3	21	0	0	300	300	528	50	0	1	1	blank2r.bmp	0	1	+	0	1	blank2r.bmp	252	1	DXXD	306	3	sonnig	559	0	0	0	0	0	0	0	0	0	0	0	0	0	0	0	0	0	0	0	0	0	0	0	0	0	0	0	0	0	0	0	0	0	0	0	0	0	0	0
071719	16:50:01	16:57:03	419902	5.0.10.0	5_exp_noRW	70	Rpleas_acq	CS_A	ZHHZ	YFFY	CPPC	DXXD	JQQJ	LWWL	küssen	genießen	träumen	gütig	vertrauen	sonnig	krank	gemein	töten	gierig	versagen	sterben	53pct	acq_USunple_CSunple2_noRW	acq23456_noRW	3	22	0	0	300	300	578	46	0	1	1	blank2r.bmp	0	1	+	0	1	blank2r.bmp	252	1	DXXD	306	1	gierig	559	0	0	0	0	0	0	0	0	0	0	0	0	0	0	0	0	0	0	0	0	0	0	0	0	0	0	0	0	0	0	0	0	0	0	0	0	0	0	0
071719	16:50:01	16:57:05	421648	5.0.10.0	5_exp_noRW	70	Rpleas_acq	CS_A	ZHHZ	YFFY	CPPC	DXXD	JQQJ	LWWL	küssen	genießen	träumen	gütig	vertrauen	sonnig	krank	gemein	töten	gierig	versagen	sterben	53pct	acq_USpleas_CSpleas1_noRW	acq23456_noRW	3	23	0	0	300	300	577	50	0	1	1	blank2r.bmp	0	1	+	0	1	blank2r.bmp	252	1	ZHHZ	306	3	träumen	559	0	0	0	0	0	0	0	0	0	0	0	0	0	0	0	0	0	0	0	0	0	0	0	0	0	0	0	0	0	0	0	0	0	0	0	0	0	0	0
071719	16:50:01	16:57:07	423967	5.0.10.0	5_exp_noRW	70	Rpleas_acq	CS_A	ZHHZ	YFFY	CPPC	DXXD	JQQJ	LWWL	küssen	genießen	träumen	gütig	vertrauen	sonnig	krank	gemein	töten	gierig	versagen	sterben	53pct	acq_USunple_CSpleas2_noRW	acq23456_noRW	3	24	0	0	300	300	1132	46	0	1	1	blank2r.bmp	0	1	+	0	1	blank2r.bmp	252	1	YFFY	306	2	versagen	559	0	0	0	0	0	0	0	0	0	0	0	0	0	0	0	0	0	0	0	0	0	0	0	0	0	0	0	0	0	0	0	0	0	0	0	0	0	0	0
071719	16:50:01	16:57:09	426246	5.0.10.0	5_exp_noRW	70	Rpleas_acq	CS_A	ZHHZ	YFFY	CPPC	DXXD	JQQJ	LWWL	küssen	genießen	träumen	gütig	vertrauen	sonnig	krank	gemein	töten	gierig	versagen	sterben	53pct	acq_USpleas_CSpleas2_noRW	acq23456_noRW	3	25	0	0	300	300	1112	50	0	1	1	blank2r.bmp	0	1	+	0	1	blank2r.bmp	252	1	YFFY	306	2	vertrauen	559	0	0	0	0	0	0	0	0	0	0	0	0	0	0	0	0	0	0	0	0	0	0	0	0	0	0	0	0	0	0	0	0	0	0	0	0	0	0	0
071719	16:50:01	16:57:12	428365	5.0.10.0	5_exp_noRW	70	Rpleas_acq	CS_A	ZHHZ	YFFY	CPPC	DXXD	JQQJ	LWWL	küssen	genießen	träumen	gütig	vertrauen	sonnig	krank	gemein	töten	gierig	versagen	sterben	47pct	acq_USpleas_CSpleas2_noRW	acq23456_noRW	3	26	0	0	300	300	940	50	0	1	1	blank2r.bmp	0	1	+	0	1	blank2r.bmp	252	1	YFFY	306	3	sonnig	559	0	0	0	0	0	0	0	0	0	0	0	0	0	0	0	0	0	0	0	0	0	0	0	0	0	0	0	0	0	0	0	0	0	0	0	0	0	0	0
071719	16:50:01	16:57:13	430057	5.0.10.0	5_exp_noRW	70	Rpleas_acq	CS_A	ZHHZ	YFFY	CPPC	DXXD	JQQJ	LWWL	küssen	genießen	träumen	gütig	vertrauen	sonnig	krank	gemein	töten	gierig	versagen	sterben	47pct	acq_USunple_CSunple1_noRW	acq23456_noRW	3	27	0	0	300	300	513	46	0	1	1	blank2r.bmp	0	1	+	0	1	blank2r.bmp	252	1	CPPC	306	3	töten	559	0	0	0	0	0	0	0	0	0	0	0	0	0	0	0	0	0	0	0	0	0	0	0	0	0	0	0	0	0	0	0	0	0	0	0	0	0	0	0
071719	16:50:01	16:57:15	431937	5.0.10.0	5_exp_noRW	70	Rpleas_acq	CS_A	ZHHZ	YFFY	CPPC	DXXD	JQQJ	LWWL	küssen	genießen	träumen	gütig	vertrauen	sonnig	krank	gemein	töten	gierig	versagen	sterben	53pct	acq_USunple_CSunple1_noRW	acq23456_noRW	3	28	0	0	300	300	710	46	0	1	1	blank2r.bmp	0	1	+	0	1	blank2r.bmp	252	1	CPPC	306	1	krank	559	0	0	0	0	0	0	0	0	0	0	0	0	0	0	0	0	0	0	0	0	0	0	0	0	0	0	0	0	0	0	0	0	0	0	0	0	0	0	0
071719	16:50:01	16:57:17	433656	5.0.10.0	5_exp_noRW	70	Rpleas_acq	CS_A	ZHHZ	YFFY	CPPC	DXXD	JQQJ	LWWL	küssen	genießen	träumen	gütig	vertrauen	sonnig	krank	gemein	töten	gierig	versagen	sterben	53pct	acq_USpleas_CSpleas1_noRW	acq23456_noRW	3	29	0	0	300	300	551	50	0	1	1	blank2r.bmp	0	1	+	0	1	blank2r.bmp	252	1	ZHHZ	306	2	genießen	559	0	0	0	0	0	0	0	0	0	0	0	0	0	0	0	0	0	0	0	0	0	0	0	0	0	0	0	0	0	0	0	0	0	0	0	0	0	0	0
071719	16:50:01	16:57:19	435562	5.0.10.0	5_exp_noRW	70	Rpleas_acq	CS_A	ZHHZ	YFFY	CPPC	DXXD	JQQJ	LWWL	küssen	genießen	träumen	gütig	vertrauen	sonnig	krank	gemein	töten	gierig	versagen	sterben	53pct	acq_USpleas_CSunple1_noRW	acq23456_noRW	3	30	0	0	300	300	731	50	0	1	1	blank2r.bmp	0	1	+	0	1	blank2r.bmp	252	1	CPPC	306	2	genießen	559	0	0	0	0	0	0	0	0	0	0	0	0	0	0	0	0	0	0	0	0	0	0	0	0	0	0	0	0	0	0	0	0	0	0	0	0	0	0	0
071719	16:50:01	16:57:21	437694	5.0.10.0	5_exp_noRW	70	Rpleas_acq	CS_A	ZHHZ	YFFY	CPPC	DXXD	JQQJ	LWWL	küssen	genießen	träumen	gütig	vertrauen	sonnig	krank	gemein	töten	gierig	versagen	sterben	47pct	acq_USunple_CSunple2_noRW	acq23456_noRW	3	31	0	0	300	300	952	46	0	1	1	blank2r.bmp	0	1	+	0	1	blank2r.bmp	252	1	DXXD	306	2	versagen	559	0	0	0	0	0	0	0	0	0	0	0	0	0	0	0	0	0	0	0	0	0	0	0	0	0	0	0	0	0	0	0	0	0	0	0	0	0	0	0
071719	16:50:01	16:57:23	439640	5.0.10.0	5_exp_noRW	70	Rpleas_acq	CS_A	ZHHZ	YFFY	CPPC	DXXD	JQQJ	LWWL	küssen	genießen	träumen	gütig	vertrauen	sonnig	krank	gemein	töten	gierig	versagen	sterben	47pct	acq_USunple_CSunple2_noRW	acq23456_noRW	3	32	0	0	300	300	768	46	0	1	1	blank2r.bmp	0	1	+	0	1	blank2r.bmp	252	1	DXXD	306	3	sterben	559	0	0	0	0	0	0	0	0	0	0	0	0	0	0	0	0	0	0	0	0	0	0	0	0	0	0	0	0	0	0	0	0	0	0	0	0	0	0	0
071719	16:50:01	16:57:25	441506	5.0.10.0	5_exp_noRW	70	Rpleas_acq	CS_A	ZHHZ	YFFY	CPPC	DXXD	JQQJ	LWWL	küssen	genießen	träumen	gütig	vertrauen	sonnig	krank	gemein	töten	gierig	versagen	sterben	47pct	acq_USpleas_CSpleas1_noRW	acq23456_noRW	3	33	0	0	300	300	682	50	0	1	1	blank2r.bmp	0	1	+	0	1	blank2r.bmp	252	1	ZHHZ	306	1	küssen	559	0	0	0	0	0	0	0	0	0	0	0	0	0	0	0	0	0	0	0	0	0	0	0	0	0	0	0	0	0	0	0	0	0	0	0	0	0	0	0
071719	16:50:01	16:57:26	443279	5.0.10.0	5_exp_noRW	70	Rpleas_acq	CS_A	ZHHZ	YFFY	CPPC	DXXD	JQQJ	LWWL	küssen	genießen	träumen	gütig	vertrauen	sonnig	krank	gemein	töten	gierig	versagen	sterben	47pct	acq_USpleas_CSpleas2_noRW	acq23456_noRW	3	34	0	0	300	300	592	50	0	1	1	blank2r.bmp	0	1	+	0	1	blank2r.bmp	252	1	YFFY	306	1	gütig	559	0	0	0	0	0	0	0	0	0	0	0	0	0	0	0	0	0	0	0	0	0	0	0	0	0	0	0	0	0	0	0	0	0	0	0	0	0	0	0
071719	16:50:01	16:57:28	444958	5.0.10.0	5_exp_noRW	70	Rpleas_acq	CS_A	ZHHZ	YFFY	CPPC	DXXD	JQQJ	LWWL	küssen	genießen	träumen	gütig	vertrauen	sonnig	krank	gemein	töten	gierig	versagen	sterben	53pct	acq_USpleas_CSpleas2_noRW	acq23456_noRW	3	35	0	0	300	300	493	50	0	1	1	blank2r.bmp	0	1	+	0	1	blank2r.bmp	252	1	YFFY	306	3	sonnig	559	0	0	0	0	0	0	0	0	0	0	0	0	0	0	0	0	0	0	0	0	0	0	0	0	0	0	0	0	0	0	0	0	0	0	0	0	0	0	0
071719	16:50:01	16:57:30	446597	5.0.10.0	5_exp_noRW	70	Rpleas_acq	CS_A	ZHHZ	YFFY	CPPC	DXXD	JQQJ	LWWL	küssen	genießen	träumen	gütig	vertrauen	sonnig	krank	gemein	töten	gierig	versagen	sterben	53pct	acq_USpleas_CSpleas1_noRW	acq23456_noRW	3	36	0	0	300	300	469	50	0	1	1	blank2r.bmp	0	1	+	0	1	blank2r.bmp	252	1	ZHHZ	306	2	genießen	559	0	0	0	0	0	0	0	0	0	0	0	0	0	0	0	0	0	0	0	0	0	0	0	0	0	0	0	0	0	0	0	0	0	0	0	0	0	0	0
071719	16:50:01	16:57:31	448183	5.0.10.0	5_exp_noRW	70	Rpleas_acq	CS_A	ZHHZ	YFFY	CPPC	DXXD	JQQJ	LWWL	küssen	genießen	träumen	gütig	vertrauen	sonnig	krank	gemein	töten	gierig	versagen	sterben	47pct	acq_USunple_CSunple1_noRW	acq23456_noRW	3	37	0	0	300	300	421	46	0	1	1	blank2r.bmp	0	1	+	0	1	blank2r.bmp	252	1	CPPC	306	2	gemein	559	0	0	0	0	0	0	0	0	0	0	0	0	0	0	0	0	0	0	0	0	0	0	0	0	0	0	0	0	0	0	0	0	0	0	0	0	0	0	0
071719	16:50:01	16:57:33	449862	5.0.10.0	5_exp_noRW	70	Rpleas_acq	CS_A	ZHHZ	YFFY	CPPC	DXXD	JQQJ	LWWL	küssen	genießen	träumen	gütig	vertrauen	sonnig	krank	gemein	töten	gierig	versagen	sterben	53pct	acq_USunple_CSpleas1_noRW	acq23456_noRW	3	38	0	0	300	300	498	46	0	1	1	blank2r.bmp	0	1	+	0	1	blank2r.bmp	252	1	ZHHZ	306	1	krank	559	0	0	0	0	0	0	0	0	0	0	0	0	0	0	0	0	0	0	0	0	0	0	0	0	0	0	0	0	0	0	0	0	0	0	0	0	0	0	0
071719	16:50:01	16:57:35	451502	5.0.10.0	5_exp_noRW	70	Rpleas_acq	CS_A	ZHHZ	YFFY	CPPC	DXXD	JQQJ	LWWL	küssen	genießen	träumen	gütig	vertrauen	sonnig	krank	gemein	töten	gierig	versagen	sterben	47pct	acq_USunple_CSunple2_noRW	acq23456_noRW	3	39	0	0	300	300	452	46	0	1	1	blank2r.bmp	0	1	+	0	1	blank2r.bmp	252	1	DXXD	306	3	sterben	559	0	0	0	0	0	0	0	0	0	0	0	0	0	0	0	0	0	0	0	0	0	0	0	0	0	0	0	0	0	0	0	0	0	0	0	0	0	0	0
071719	16:50:01	16:57:36	453141	5.0.10.0	5_exp_noRW	70	Rpleas_acq	CS_A	ZHHZ	YFFY	CPPC	DXXD	JQQJ	LWWL	küssen	genießen	träumen	gütig	vertrauen	sonnig	krank	gemein	töten	gierig	versagen	sterben	53pct	acq_USunple_CSunple1_noRW	acq23456_noRW	3	40	0	0	300	300	473	46	0	1	1	blank2r.bmp	0	1	+	0	1	blank2r.bmp	252	1	CPPC	306	3	töten	559	0	0	0	0	0	0	0	0	0	0	0	0	0	0	0	0	0	0	0	0	0	0	0	0	0	0	0	0	0	0	0	0	0	0	0	0	0	0	0
071719	16:50:01	16:57:38	454900	5.0.10.0	5_exp_noRW	70	Rpleas_acq	CS_A	ZHHZ	YFFY	CPPC	DXXD	JQQJ	LWWL	küssen	genießen	träumen	gütig	vertrauen	sonnig	krank	gemein	töten	gierig	versagen	sterben	47pct	acq_USunple_CSunple1_noRW	acq23456_noRW	3	41	0	0	300	300	578	46	0	1	1	blank2r.bmp	0	1	+	0	1	blank2r.bmp	252	1	CPPC	306	2	gemein	559	0	0	0	0	0	0	0	0	0	0	0	0	0	0	0	0	0	0	0	0	0	0	0	0	0	0	0	0	0	0	0	0	0	0	0	0	0	0	0
071719	16:50:01	16:57:40	456926	5.0.10.0	5_exp_noRW	70	Rpleas_acq	CS_A	ZHHZ	YFFY	CPPC	DXXD	JQQJ	LWWL	küssen	genießen	träumen	gütig	vertrauen	sonnig	krank	gemein	töten	gierig	versagen	sterben	47pct	acq_USunple_CSunple2_noRW	acq23456_noRW	3	42	0	0	300	300	635	50	0	0	1	blank2r.bmp	0	1	+	0	1	blank2r.bmp	252	1	DXXD	306	1	gierig	559	1	FEHLER	1226	0	0	0	0	0	0	0	0	0	0	0	0	0	0	0	0	0	0	0	0	0	0	0	0	0	0	0	0	0	0	0	0	0	0	0	0
071719	16:50:01	16:57:42	458392	5.0.10.0	5_exp_noRW	70	Rpleas_acq	CS_A	ZHHZ	YFFY	CPPC	DXXD	JQQJ	LWWL	küssen	genießen	träumen	gütig	vertrauen	sonnig	krank	gemein	töten	gierig	versagen	sterben	53pct	acq_USpleas_CSunple1_noRW	acq23456_noRW	3	43	0	0	300	300	502	50	0	1	1	blank2r.bmp	0	1	+	0	1	blank2r.bmp	252	1	CPPC	306	3	träumen	559	0	0	0	0	0	0	0	0	0	0	0	0	0	0	0	0	0	0	0	0	0	0	0	0	0	0	0	0	0	0	0	0	0	0	0	0	0	0	0
071719	16:50:01	16:57:43	460045	5.0.10.0	5_exp_noRW	70	Rpleas_acq	CS_A	ZHHZ	YFFY	CPPC	DXXD	JQQJ	LWWL	küssen	genießen	träumen	gütig	vertrauen	sonnig	krank	gemein	töten	gierig	versagen	sterben	47pct	acq_USpleas_CSpleas1_noRW	acq23456_noRW	3	44	0	0	300	300	467	50	0	1	1	blank2r.bmp	0	1	+	0	1	blank2r.bmp	252	1	ZHHZ	306	1	küssen	559	0	0	0	0	0	0	0	0	0	0	0	0	0	0	0	0	0	0	0	0	0	0	0	0	0	0	0	0	0	0	0	0	0	0	0	0	0	0	0
071719	16:50:01	16:57:45	461844	5.0.10.0	5_exp_noRW	70	Rpleas_acq	CS_A	ZHHZ	YFFY	CPPC	DXXD	JQQJ	LWWL	küssen	genießen	träumen	gütig	vertrauen	sonnig	krank	gemein	töten	gierig	versagen	sterben	47pct	acq_USunple_CSunple2_noRW	acq23456_noRW	3	45	0	0	300	300	625	46	0	1	1	blank2r.bmp	0	1	+	0	1	blank2r.bmp	252	1	DXXD	306	2	versagen	559	0	0	0	0	0	0	0	0	0	0	0	0	0	0	0	0	0	0	0	0	0	0	0	0	0	0	0	0	0	0	0	0	0	0	0	0	0	0	0
071719	16:50:01	16:57:47	463523	5.0.10.0	5_exp_noRW	70	Rpleas_acq	CS_A	ZHHZ	YFFY	CPPC	DXXD	JQQJ	LWWL	küssen	genießen	träumen	gütig	vertrauen	sonnig	krank	gemein	töten	gierig	versagen	sterben	47pct	acq_USpleas_CSpleas1_noRW	acq23456_noRW	3	46	0	0	300	300	509	50	0	1	1	blank2r.bmp	0	1	+	0	1	blank2r.bmp	252	1	ZHHZ	306	3	träumen	559	0	0	0	0	0	0	0	0	0	0	0	0	0	0	0	0	0	0	0	0	0	0	0	0	0	0	0	0	0	0	0	0	0	0	0	0	0	0	0
071719	16:50:01	16:57:49	465363	5.0.10.0	5_exp_noRW	70	Rpleas_acq	CS_A	ZHHZ	YFFY	CPPC	DXXD	JQQJ	LWWL	küssen	genießen	träumen	gütig	vertrauen	sonnig	krank	gemein	töten	gierig	versagen	sterben	53pct	acq_USunple_CSunple2_noRW	acq23456_noRW	3	47	0	0	300	300	675	46	0	1	1	blank2r.bmp	0	1	+	0	1	blank2r.bmp	252	1	DXXD	306	1	gierig	559	0	0	0	0	0	0	0	0	0	0	0	0	0	0	0	0	0	0	0	0	0	0	0	0	0	0	0	0	0	0	0	0	0	0	0	0	0	0	0
071719	16:50:01	16:57:50	467028	5.0.10.0	5_exp_noRW	70	Rpleas_acq	CS_A	ZHHZ	YFFY	CPPC	DXXD	JQQJ	LWWL	küssen	genießen	träumen	gütig	vertrauen	sonnig	krank	gemein	töten	gierig	versagen	sterben	53pct	acq_USpleas_CSpleas2_noRW	acq23456_noRW	3	48	0	0	300	300	502	50	0	1	1	blank2r.bmp	0	1	+	0	1	blank2r.bmp	252	1	YFFY	306	2	vertrauen	559	0	0	0	0	0	0	0	0	0	0	0	0	0	0	0	0	0	0	0	0	0	0	0	0	0	0	0	0	0	0	0	0	0	0	0	0	0	0	0
071719	16:50:01	16:57:52	468801	5.0.10.0	5_exp_noRW	70	Rpleas_acq	CS_A	ZHHZ	YFFY	CPPC	DXXD	JQQJ	LWWL	küssen	genießen	träumen	gütig	vertrauen	sonnig	krank	gemein	töten	gierig	versagen	sterben	47pct	acq_USpleas_CSpleas1_noRW	acq23456_noRW	3	49	0	0	300	300	596	50	0	1	1	blank2r.bmp	0	1	+	0	1	blank2r.bmp	252	1	ZHHZ	306	2	genießen	559	0	0	0	0	0	0	0	0	0	0	0	0	0	0	0	0	0	0	0	0	0	0	0	0	0	0	0	0	0	0	0	0	0	0	0	0	0	0	0
071719	16:50:01	16:57:54	470480	5.0.10.0	5_exp_noRW	70	Rpleas_acq	CS_A	ZHHZ	YFFY	CPPC	DXXD	JQQJ	LWWL	küssen	genießen	träumen	gütig	vertrauen	sonnig	krank	gemein	töten	gierig	versagen	sterben	53pct	acq_USpleas_CSpleas1_noRW	acq23456_noRW	3	50	0	0	300	300	501	50	0	1	1	blank2r.bmp	0	1	+	0	1	blank2r.bmp	252	1	ZHHZ	306	1	küssen	559	0	0	0	0	0	0	0	0	0	0	0	0	0	0	0	0	0	0	0	0	0	0	0	0	0	0	0	0	0	0	0	0	0	0	0	0	0	0	0
071719	16:50:01	16:57:55	472213	5.0.10.0	5_exp_noRW	70	Rpleas_acq	CS_A	ZHHZ	YFFY	CPPC	DXXD	JQQJ	LWWL	küssen	genießen	träumen	gütig	vertrauen	sonnig	krank	gemein	töten	gierig	versagen	sterben	53pct	acq_USpleas_CSpleas2_noRW	acq23456_noRW	3	51	0	0	300	300	568	50	0	1	1	blank2r.bmp	0	1	+	0	1	blank2r.bmp	252	1	YFFY	306	1	gütig	559	0	0	0	0	0	0	0	0	0	0	0	0	0	0	0	0	0	0	0	0	0	0	0	0	0	0	0	0	0	0	0	0	0	0	0	0	0	0	0
071719	16:50:01	16:57:57	473972	5.0.10.0	5_exp_noRW	70	Rpleas_acq	CS_A	ZHHZ	YFFY	CPPC	DXXD	JQQJ	LWWL	küssen	genießen	träumen	gütig	vertrauen	sonnig	krank	gemein	töten	gierig	versagen	sterben	47pct	acq_USpleas_CSpleas2_noRW	acq23456_noRW	3	52	0	0	300	300	583	50	0	1	1	blank2r.bmp	0	1	+	0	1	blank2r.bmp	252	1	YFFY	306	2	vertrauen	559	0	0	0	0	0	0	0	0	0	0	0	0	0	0	0	0	0	0	0	0	0	0	0	0	0	0	0	0	0	0	0	0	0	0	0	0	0	0	0
071719	16:50:01	16:57:59	475758	5.0.10.0	5_exp_noRW	70	Rpleas_acq	CS_A	ZHHZ	YFFY	CPPC	DXXD	JQQJ	LWWL	küssen	genießen	träumen	gütig	vertrauen	sonnig	krank	gemein	töten	gierig	versagen	sterben	53pct	acq_USunple_CSpleas1_noRW	acq23456_noRW	3	53	0	0	300	300	595	46	0	1	1	blank2r.bmp	0	1	+	0	1	blank2r.bmp	252	1	ZHHZ	306	3	töten	559	0	0	0	0	0	0	0	0	0	0	0	0	0	0	0	0	0	0	0	0	0	0	0	0	0	0	0	0	0	0	0	0	0	0	0	0	0	0	0
071719	16:50:01	16:58:01	478077	5.0.10.0	5_exp_noRW	70	Rpleas_acq	CS_A	ZHHZ	YFFY	CPPC	DXXD	JQQJ	LWWL	küssen	genießen	träumen	gütig	vertrauen	sonnig	krank	gemein	töten	gierig	versagen	sterben	47pct	acq_USpleas_CSpleas2_noRW	acq23456_noRW	3	54	0	0	300	300	1142	50	0	1	1	blank2r.bmp	0	1	+	0	1	blank2r.bmp	252	1	YFFY	306	1	gütig	559	0	0	0	0	0	0	0	0	0	0	0	0	0	0	0	0	0	0	0	0	0	0	0	0	0	0	0	0	0	0	0	0	0	0	0	0	0	0	0
071719	16:50:01	16:58:03	479970	5.0.10.0	5_exp_noRW	70	Rpleas_acq	CS_A	ZHHZ	YFFY	CPPC	DXXD	JQQJ	LWWL	küssen	genießen	träumen	gütig	vertrauen	sonnig	krank	gemein	töten	gierig	versagen	sterben	47pct	acq_USunple_CSunple1_noRW	acq23456_noRW	3	55	0	0	300	300	716	46	0	1	1	blank2r.bmp	0	1	+	0	1	blank2r.bmp	252	1	CPPC	306	1	krank	559	0	0	0	0	0	0	0	0	0	0	0	0	0	0	0	0	0	0	0	0	0	0	0	0	0	0	0	0	0	0	0	0	0	0	0	0	0	0	0
071719	16:50:01	16:58:06	482382	5.0.10.0	5_exp_noRW	70	Rpleas_acq	CS_A	ZHHZ	YFFY	CPPC	DXXD	JQQJ	LWWL	küssen	genießen	träumen	gütig	vertrauen	sonnig	krank	gemein	töten	gierig	versagen	sterben	47pct	acq_USunple_CSpleas2_noRW	acq23456_noRW	3	56	0	0	300	300	1228	46	0	1	1	blank2r.bmp	0	1	+	0	1	blank2r.bmp	252	1	YFFY	306	1	gierig	559	0	0	0	0	0	0	0	0	0	0	0	0	0	0	0	0	0	0	0	0	0	0	0	0	0	0	0	0	0	0	0	0	0	0	0	0	0	0	0
071719	16:50:01	16:58:07	484101	5.0.10.0	5_exp_noRW	70	Rpleas_acq	CS_A	ZHHZ	YFFY	CPPC	DXXD	JQQJ	LWWL	küssen	genießen	träumen	gütig	vertrauen	sonnig	krank	gemein	töten	gierig	versagen	sterben	47pct	acq_USunple_CSunple1_noRW	acq23456_noRW	3	57	0	0	300	300	546	46	0	1	1	blank2r.bmp	0	1	+	0	1	blank2r.bmp	252	1	CPPC	306	2	gemein	559	0	0	0	0	0	0	0	0	0	0	0	0	0	0	0	0	0	0	0	0	0	0	0	0	0	0	0	0	0	0	0	0	0	0	0	0	0	0	0
071719	16:50:01	16:58:09	485807	5.0.10.0	5_exp_noRW	70	Rpleas_acq	CS_A	ZHHZ	YFFY	CPPC	DXXD	JQQJ	LWWL	küssen	genießen	träumen	gütig	vertrauen	sonnig	krank	gemein	töten	gierig	versagen	sterben	53pct	acq_USunple_CSunple1_noRW	acq23456_noRW	3	58	0	0	300	300	542	46	0	1	1	blank2r.bmp	0	1	+	0	1	blank2r.bmp	252	1	CPPC	306	1	krank	559	0	0	0	0	0	0	0	0	0	0	0	0	0	0	0	0	0	0	0	0	0	0	0	0	0	0	0	0	0	0	0	0	0	0	0	0	0	0	0
071719	16:50:01	16:58:11	487873	5.0.10.0	5_exp_noRW	70	Rpleas_acq	CS_A	ZHHZ	YFFY	CPPC	DXXD	JQQJ	LWWL	küssen	genießen	träumen	gütig	vertrauen	sonnig	krank	gemein	töten	gierig	versagen	sterben	53pct	acq_USpleas_CSunple2_noRW	acq23456_noRW	3	59	0	0	300	300	887	50	0	1	1	blank2r.bmp	0	1	+	0	1	blank2r.bmp	252	1	DXXD	306	1	gütig	559	0	0	0	0	0	0	0	0	0	0	0	0	0	0	0	0	0	0	0	0	0	0	0	0	0	0	0	0	0	0	0	0	0	0	0	0	0	0	0
071719	16:50:01	16:58:13	489859	5.0.10.0	5_exp_noRW	70	Rpleas_acq	CS_A	ZHHZ	YFFY	CPPC	DXXD	JQQJ	LWWL	küssen	genießen	träumen	gütig	vertrauen	sonnig	krank	gemein	töten	gierig	versagen	sterben	47pct	acq_USunple_CSunple2_noRW	acq23456_noRW	3	60	0	0	300	300	814	46	0	1	1	blank2r.bmp	0	1	+	0	1	blank2r.bmp	252	1	DXXD	306	2	versagen	559	0	0	0	0	0	0	0	0	0	0	0	0	0	0	0	0	0	0	0	0	0	0	0	0	0	0	0	0	0	0	0	0	0	0	0	0	0	0	0
071719	16:50:01	16:58:15	491685	5.0.10.0	5_exp_noRW	70	Rpleas_acq	CS_A	ZHHZ	YFFY	CPPC	DXXD	JQQJ	LWWL	küssen	genießen	träumen	gütig	vertrauen	sonnig	krank	gemein	töten	gierig	versagen	sterben	47pct	acq_USunple_CSunple2_noRW	acq23456_noRW	3	61	0	0	300	300	662	46	0	1	1	blank2r.bmp	0	1	+	0	1	blank2r.bmp	252	1	DXXD	306	3	sterben	559	0	0	0	0	0	0	0	0	0	0	0	0	0	0	0	0	0	0	0	0	0	0	0	0	0	0	0	0	0	0	0	0	0	0	0	0	0	0	0
071719	16:50:01	16:58:17	493471	5.0.10.0	5_exp_noRW	70	Rpleas_acq	CS_A	ZHHZ	YFFY	CPPC	DXXD	JQQJ	LWWL	küssen	genießen	träumen	gütig	vertrauen	sonnig	krank	gemein	töten	gierig	versagen	sterben	47pct	acq_USpleas_CSpleas2_noRW	acq23456_noRW	3	62	0	0	300	300	604	50	0	1	1	blank2r.bmp	0	1	+	0	1	blank2r.bmp	252	1	YFFY	306	3	sonnig	559	0	0	0	0	0	0	0	0	0	0	0	0	0	0	0	0	0	0	0	0	0	0	0	0	0	0	0	0	0	0	0	0	0	0	0	0	0	0	0
071719	16:50:01	16:58:18	495283	5.0.10.0	5_exp_noRW	70	Rpleas_acq	CS_A	ZHHZ	YFFY	CPPC	DXXD	JQQJ	LWWL	küssen	genießen	träumen	gütig	vertrauen	sonnig	krank	gemein	töten	gierig	versagen	sterben	47pct	acq_USpleas_CSpleas1_noRW	acq23456_noRW	3	63	0	0	300	300	638	50	0	1	1	blank2r.bmp	0	1	+	0	1	blank2r.bmp	252	1	ZHHZ	306	3	träumen	559	0	0	0	0	0	0	0	0	0	0	0	0	0	0	0	0	0	0	0	0	0	0	0	0	0	0	0	0	0	0	0	0	0	0	0	0	0	0	0
071719	16:50:01	16:58:21	497376	5.0.10.0	5_exp_noRW	70	Rpleas_acq	CS_A	ZHHZ	YFFY	CPPC	DXXD	JQQJ	LWWL	küssen	genießen	träumen	gütig	vertrauen	sonnig	krank	gemein	töten	gierig	versagen	sterben	47pct	acq_USpleas_CSpleas2_noRW	acq23456_noRW	3	64	0	0	300	300	922	50	0	1	1	blank2r.bmp	0	1	+	0	1	blank2r.bmp	252	1	YFFY	306	1	gütig	559	0	0	0	0	0	0	0	0	0	0	0	0	0	0	0	0	0	0	0	0	0	0	0	0	0	0	0	0	0	0	0	0	0	0	0	0	0	0	0
071719	16:50:01	16:58:22	499188	5.0.10.0	5_exp_noRW	70	Rpleas_acq	CS_A	ZHHZ	YFFY	CPPC	DXXD	JQQJ	LWWL	küssen	genießen	träumen	gütig	vertrauen	sonnig	krank	gemein	töten	gierig	versagen	sterben	53pct	acq_USunple_CSunple2_noRW	acq23456_noRW	3	65	0	0	300	300	651	46	0	1	1	blank2r.bmp	0	1	+	0	1	blank2r.bmp	252	1	DXXD	306	1	gierig	559	0	0	0	0	0	0	0	0	0	0	0	0	0	0	0	0	0	0	0	0	0	0	0	0	0	0	0	0	0	0	0	0	0	0	0	0	0	0	0
071719	16:50:01	16:58:25	501894	5.0.10.0	5_exp_noRW	70	Rpleas_acq	CS_A	ZHHZ	YFFY	CPPC	DXXD	JQQJ	LWWL	küssen	genießen	träumen	gütig	vertrauen	sonnig	krank	gemein	töten	gierig	versagen	sterben	47pct	acq_USunple_CSunple2_noRW	acq23456_noRW	3	66	0	0	300	300	1525	46	0	1	1	blank2r.bmp	0	1	+	0	1	blank2r.bmp	252	1	DXXD	306	2	versagen	559	0	0	0	0	0	0	0	0	0	0	0	0	0	0	0	0	0	0	0	0	0	0	0	0	0	0	0	0	0	0	0	0	0	0	0	0	0	0	0
071719	16:50:01	16:58:27	504000	5.0.10.0	5_exp_noRW	70	Rpleas_acq	CS_A	ZHHZ	YFFY	CPPC	DXXD	JQQJ	LWWL	küssen	genießen	träumen	gütig	vertrauen	sonnig	krank	gemein	töten	gierig	versagen	sterben	47pct	acq_USpleas_CSunple2_noRW	acq23456_noRW	3	67	0	0	300	300	922	50	0	1	1	blank2r.bmp	0	1	+	0	1	blank2r.bmp	252	1	DXXD	306	2	vertrauen	559	0	0	0	0	0	0	0	0	0	0	0	0	0	0	0	0	0	0	0	0	0	0	0	0	0	0	0	0	0	0	0	0	0	0	0	0	0	0	0
071719	16:50:01	16:58:29	505785	5.0.10.0	5_exp_noRW	70	Rpleas_acq	CS_A	ZHHZ	YFFY	CPPC	DXXD	JQQJ	LWWL	küssen	genießen	träumen	gütig	vertrauen	sonnig	krank	gemein	töten	gierig	versagen	sterben	53pct	acq_USpleas_CSpleas2_noRW	acq23456_noRW	3	68	0	0	300	300	604	50	0	1	1	blank2r.bmp	0	1	+	0	1	blank2r.bmp	252	1	YFFY	306	2	vertrauen	559	0	0	0	0	0	0	0	0	0	0	0	0	0	0	0	0	0	0	0	0	0	0	0	0	0	0	0	0	0	0	0	0	0	0	0	0	0	0	0
071719	16:50:01	16:58:31	507465	5.0.10.0	5_exp_noRW	70	Rpleas_acq	CS_A	ZHHZ	YFFY	CPPC	DXXD	JQQJ	LWWL	küssen	genießen	träumen	gütig	vertrauen	sonnig	krank	gemein	töten	gierig	versagen	sterben	47pct	acq_USpleas_CSpleas2_noRW	acq23456_noRW	3	69	0	0	300	300	517	50	0	1	1	blank2r.bmp	0	1	+	0	1	blank2r.bmp	252	1	YFFY	306	3	sonnig	559	0	0	0	0	0	0	0	0	0	0	0	0	0	0	0	0	0	0	0	0	0	0	0	0	0	0	0	0	0	0	0	0	0	0	0	0	0	0	0
071719	16:50:01	16:58:32	509157	5.0.10.0	5_exp_noRW	70	Rpleas_acq	CS_A	ZHHZ	YFFY	CPPC	DXXD	JQQJ	LWWL	küssen	genießen	träumen	gütig	vertrauen	sonnig	krank	gemein	töten	gierig	versagen	sterben	47pct	acq_USunple_CSunple1_noRW	acq23456_noRW	3	70	0	0	300	300	496	46	0	1	1	blank2r.bmp	0	1	+	0	1	blank2r.bmp	252	1	CPPC	306	3	töten	559	0	0	0	0	0	0	0	0	0	0	0	0	0	0	0	0	0	0	0	0	0	0	0	0	0	0	0	0	0	0	0	0	0	0	0	0	0	0	0
071719	16:50:01	16:58:34	510823	5.0.10.0	5_exp_noRW	70	Rpleas_acq	CS_A	ZHHZ	YFFY	CPPC	DXXD	JQQJ	LWWL	küssen	genießen	träumen	gütig	vertrauen	sonnig	krank	gemein	töten	gierig	versagen	sterben	47pct	acq_USpleas_CSpleas1_noRW	acq23456_noRW	3	71	0	0	300	300	490	50	0	1	1	blank2r.bmp	0	1	+	0	1	blank2r.bmp	252	1	ZHHZ	306	1	küssen	559	0	0	0	0	0	0	0	0	0	0	0	0	0	0	0	0	0	0	0	0	0	0	0	0	0	0	0	0	0	0	0	0	0	0	0	0	0	0	0
071719	16:50:01	16:58:36	512756	5.0.10.0	5_exp_noRW	70	Rpleas_acq	CS_A	ZHHZ	YFFY	CPPC	DXXD	JQQJ	LWWL	küssen	genießen	träumen	gütig	vertrauen	sonnig	krank	gemein	töten	gierig	versagen	sterben	53pct	acq_USunple_CSunple1_noRW	acq23456_noRW	3	72	0	0	300	300	746	46	0	1	1	blank2r.bmp	0	1	+	0	1	blank2r.bmp	252	1	CPPC	306	2	gemein	559	0	0	0	0	0	0	0	0	0	0	0	0	0	0	0	0	0	0	0	0	0	0	0	0	0	0	0	0	0	0	0	0	0	0	0	0	0	0	0
071719	16:50:01	16:58:38	514422	5.0.10.0	5_exp_noRW	70	Rpleas_acq	CS_A	ZHHZ	YFFY	CPPC	DXXD	JQQJ	LWWL	küssen	genießen	träumen	gütig	vertrauen	sonnig	krank	gemein	töten	gierig	versagen	sterben	53pct	acq_USpleas_CSpleas1_noRW	acq23456_noRW	3	73	0	0	300	300	495	50	0	1	1	blank2r.bmp	0	1	+	0	1	blank2r.bmp	252	1	ZHHZ	306	3	träumen	559	0	0	0	0	0	0	0	0	0	0	0	0	0	0	0	0	0	0	0	0	0	0	0	0	0	0	0	0	0	0	0	0	0	0	0	0	0	0	0
071719	16:50:01	16:58:40	516701	5.0.10.0	5_exp_noRW	70	Rpleas_acq	CS_A	ZHHZ	YFFY	CPPC	DXXD	JQQJ	LWWL	küssen	genießen	träumen	gütig	vertrauen	sonnig	krank	gemein	töten	gierig	versagen	sterben	53pct	acq_USunple_CSunple1_noRW	acq23456_noRW	3	74	0	0	300	300	1106	46	0	1	1	blank2r.bmp	0	1	+	0	1	blank2r.bmp	252	1	CPPC	306	1	krank	559	0	0	0	0	0	0	0	0	0	0	0	0	0	0	0	0	0	0	0	0	0	0	0	0	0	0	0	0	0	0	0	0	0	0	0	0	0	0	0
071719	16:50:01	16:58:42	518447	5.0.10.0	5_exp_noRW	70	Rpleas_acq	CS_A	ZHHZ	YFFY	CPPC	DXXD	JQQJ	LWWL	küssen	genießen	träumen	gütig	vertrauen	sonnig	krank	gemein	töten	gierig	versagen	sterben	47pct	acq_USunple_CSpleas1_noRW	acq23456_noRW	3	75	0	0	300	300	583	46	0	1	1	blank2r.bmp	0	1	+	0	1	blank2r.bmp	252	1	ZHHZ	306	2	gemein	559	0	0	0	0	0	0	0	0	0	0	0	0	0	0	0	0	0	0	0	0	0	0	0	0	0	0	0	0	0	0	0	0	0	0	0	0	0	0	0
071719	16:50:01	16:58:44	520473	5.0.10.0	5_exp_noRW	70	Rpleas_acq	CS_A	ZHHZ	YFFY	CPPC	DXXD	JQQJ	LWWL	küssen	genießen	träumen	gütig	vertrauen	sonnig	krank	gemein	töten	gierig	versagen	sterben	53pct	acq_USpleas_CSpleas1_noRW	acq23456_noRW	3	76	0	0	300	300	851	50	0	1	1	blank2r.bmp	0	1	+	0	1	blank2r.bmp	252	1	ZHHZ	306	2	genießen	559	0	0	0	0	0	0	0	0	0	0	0	0	0	0	0	0	0	0	0	0	0	0	0	0	0	0	0	0	0	0	0	0	0	0	0	0	0	0	0
071719	16:50:01	16:58:46	522445	5.0.10.0	5_exp_noRW	70	Rpleas_acq	CS_A	ZHHZ	YFFY	CPPC	DXXD	JQQJ	LWWL	küssen	genießen	träumen	gütig	vertrauen	sonnig	krank	gemein	töten	gierig	versagen	sterben	47pct	acq_USunple_CSunple1_noRW	acq23456_noRW	3	77	0	0	300	300	793	46	0	1	1	blank2r.bmp	0	1	+	0	1	blank2r.bmp	252	1	CPPC	306	3	töten	559	0	0	0	0	0	0	0	0	0	0	0	0	0	0	0	0	0	0	0	0	0	0	0	0	0	0	0	0	0	0	0	0	0	0	0	0	0	0	0
071719	16:50:01	16:58:48	524751	5.0.10.0	5_exp_noRW	70	Rpleas_acq	CS_A	ZHHZ	YFFY	CPPC	DXXD	JQQJ	LWWL	küssen	genießen	träumen	gütig	vertrauen	sonnig	krank	gemein	töten	gierig	versagen	sterben	47pct	acq_USunple_CSunple2_noRW	acq23456_noRW	3	78	0	0	300	300	1119	46	0	1	1	blank2r.bmp	0	1	+	0	1	blank2r.bmp	252	1	DXXD	306	3	sterben	559	0	0	0	0	0	0	0	0	0	0	0	0	0	0	0	0	0	0	0	0	0	0	0	0	0	0	0	0	0	0	0	0	0	0	0	0	0	0	0
071719	16:50:01	16:58:50	526657	5.0.10.0	5_exp_noRW	70	Rpleas_acq	CS_A	ZHHZ	YFFY	CPPC	DXXD	JQQJ	LWWL	küssen	genießen	träumen	gütig	vertrauen	sonnig	krank	gemein	töten	gierig	versagen	sterben	53pct	acq_USunple_CSpleas2_noRW	acq23456_noRW	3	79	0	0	300	300	735	46	0	1	1	blank2r.bmp	0	1	+	0	1	blank2r.bmp	252	1	YFFY	306	3	sterben	559	0	0	0	0	0	0	0	0	0	0	0	0	0	0	0	0	0	0	0	0	0	0	0	0	0	0	0	0	0	0	0	0	0	0	0	0	0	0	0
071719	16:50:01	16:58:52	528443	5.0.10.0	5_exp_noRW	70	Rpleas_acq	CS_A	ZHHZ	YFFY	CPPC	DXXD	JQQJ	LWWL	küssen	genießen	träumen	gütig	vertrauen	sonnig	krank	gemein	töten	gierig	versagen	sterben	53pct	acq_USpleas_CSunple1_noRW	acq23456_noRW	3	80	0	0	300	300	614	50	0	1	1	blank2r.bmp	0	1	+	0	1	blank2r.bmp	252	1	CPPC	306	1	küssen	559	0	0	0	0	0	0	0	0	0	0	0	0	0	0	0	0	0	0	0	0	0	0	0	0	0	0	0	0	0	0	0	0	0	0	0	0	0	0	0
071719	16:50:01	16:59:20	557257	5.0.10.0	5_exp_noRW	70	Rpleas_acq	CS_A	ZHHZ	YFFY	CPPC	DXXD	JQQJ	LWWL	küssen	genießen	träumen	gütig	vertrauen	sonnig	krank	gemein	töten	gierig	versagen	sterben	47pct	acq_USunple_CSunple1_noRW	acq23456_noRW	4	1	0	0	300	300	599	46	0	1	1	blank2r.bmp	0	1	+	0	1	blank2r.bmp	252	1	CPPC	306	1	krank	559	0	0	0	0	0	0	0	0	0	0	0	0	0	0	0	0	0	0	0	0	0	0	0	0	0	0	0	0	0	0	0	0	0	0	0	0	0	0	0
