date	time	script.currenttime	script.elapsedtime	build	script.currentexpt	subject	expressions.LRpleas_acq	expressions.conditionCS_A	expressions.CSpleas_1	expressions.CSpleas_2	expressions.CSunple_1	expressions.CSunple_2	expressions.distractor_1	expressions.distractor_2	expressions.US_pleas1	expressions.US_pleas2	expressions.US_pleas3	expressions.US_pleas4	expressions.US_pleas5	expressions.US_pleas6	expressions.US_unple1	expressions.US_unple2	expressions.US_unple3	expressions.US_unple4	expressions.US_unple5	expressions.US_unple6	counter.positions_noRW	trialcode	blockcode	blocknum	trialnum	windowcenter	inwindow	pretrialpause	posttrialpause	latency	response	expressions.correctedscore	correct	stimulusnumber1	stimulusitem1	stimulusonset1	stimulusnumber2	stimulusitem2	stimulusonset2	stimulusnumber3	stimulusitem3	stimulusonset3	stimulusnumber4	stimulusitem4	stimulusonset4	stimulusnumber5	stimulusitem5	stimulusonset5	stimulusnumber6	stimulusitem6	stimulusonset6	stimulusnumber7	stimulusitem7	stimulusonset7	stimulusnumber8	stimulusitem8	stimulusonset8	stimulusnumber9	stimulusitem9	stimulusonset9	stimulusnumber10	stimulusitem10	stimulusonset10	stimulusnumber11	stimulusitem11	stimulusonset11	stimulusnumber12	stimulusitem12	stimulusonset12	stimulusnumber13	stimulusitem13	stimulusonset13	stimulusnumber14	stimulusitem14	stimulusonset14	stimulusnumber15	stimulusitem15	stimulusonset15	stimulusnumber16	stimulusitem16	stimulusonset16	stimulusnumber17	stimulusitem17	stimulusonset17	stimulusnumber18	stimulusitem18	stimulusonset18
070319	09:41:19	09:42:38	76208	5.0.10.0	5_exp_noRW	2	Rpleas_acq	CS_A	CPPC	LWWL	ZHHZ	JQQJ	YFFY	DXXD	küssen	träumen	genießen	vertrauen	gütig	sonnig	krank	töten	gemein	versagen	gierig	sterben	53pct	acq_USpleas_CSpleas2_noRW	acq1_noRW	1	1	0	0	300	300	501	50	0	1	1	blank2r.bmp	0	1	+	0	1	blank2r.bmp	252	1	LWWL	306	3	sonnig	559	0	0	0	0	0	0	0	0	0	0	0	0	0	0	0	0	0	0	0	0	0	0	0	0	0	0	0	0	0	0	0	0	0	0	0	0	0	0	0
070319	09:41:19	09:42:39	77887	5.0.10.0	5_exp_noRW	2	Rpleas_acq	CS_A	CPPC	LWWL	ZHHZ	JQQJ	YFFY	DXXD	küssen	träumen	genießen	vertrauen	gütig	sonnig	krank	töten	gemein	versagen	gierig	sterben	53pct	acq_USpleas_CSunple2_noRW	acq1_noRW	1	2	0	0	300	300	507	50	0	1	1	blank2r.bmp	0	1	+	0	1	blank2r.bmp	252	1	JQQJ	306	2	gütig	559	0	0	0	0	0	0	0	0	0	0	0	0	0	0	0	0	0	0	0	0	0	0	0	0	0	0	0	0	0	0	0	0	0	0	0	0	0	0	0
070319	09:41:19	09:42:41	79340	5.0.10.0	5_exp_noRW	2	Rpleas_acq	CS_A	CPPC	LWWL	ZHHZ	JQQJ	YFFY	DXXD	küssen	träumen	genießen	vertrauen	gütig	sonnig	krank	töten	gemein	versagen	gierig	sterben	47pct	acq_USunple_CSunple2_noRW	acq1_noRW	1	3	0	0	300	300	52	50	0	0	1	blank2r.bmp	0	1	+	0	1	blank2r.bmp	252	1	JQQJ	306	2	gierig	559	1	FEHLER	653	0	0	0	0	0	0	0	0	0	0	0	0	0	0	0	0	0	0	0	0	0	0	0	0	0	0	0	0	0	0	0	0	0	0	0	0
070319	09:41:19	09:42:42	80860	5.0.10.0	5_exp_noRW	2	Rpleas_acq	CS_A	CPPC	LWWL	ZHHZ	JQQJ	YFFY	DXXD	küssen	träumen	genießen	vertrauen	gütig	sonnig	krank	töten	gemein	versagen	gierig	sterben	47pct	acq_USunple_CSpleas2_noRW	acq1_noRW	1	4	0	0	300	300	569	46	0	1	1	blank2r.bmp	0	1	+	0	1	blank2r.bmp	252	1	LWWL	306	1	versagen	559	0	0	0	0	0	0	0	0	0	0	0	0	0	0	0	0	0	0	0	0	0	0	0	0	0	0	0	0	0	0	0	0	0	0	0	0	0	0	0
070319	09:41:19	09:42:44	82392	5.0.10.0	5_exp_noRW	2	Rpleas_acq	CS_A	CPPC	LWWL	ZHHZ	JQQJ	YFFY	DXXD	küssen	träumen	genießen	vertrauen	gütig	sonnig	krank	töten	gemein	versagen	gierig	sterben	53pct	acq_USunple_CSunple1_noRW	acq1_noRW	1	5	0	0	300	300	357	46	0	1	1	blank2r.bmp	0	1	+	0	1	blank2r.bmp	252	1	ZHHZ	306	2	töten	559	0	0	0	0	0	0	0	0	0	0	0	0	0	0	0	0	0	0	0	0	0	0	0	0	0	0	0	0	0	0	0	0	0	0	0	0	0	0	0
070319	09:41:19	09:42:45	84072	5.0.10.0	5_exp_noRW	2	Rpleas_acq	CS_A	CPPC	LWWL	ZHHZ	JQQJ	YFFY	DXXD	küssen	träumen	genießen	vertrauen	gütig	sonnig	krank	töten	gemein	versagen	gierig	sterben	53pct	acq_USunple_CSunple1_noRW	acq1_noRW	1	6	0	0	300	300	290	50	0	0	1	blank2r.bmp	0	1	+	0	1	blank2r.bmp	252	1	ZHHZ	306	3	gemein	559	1	FEHLER	879	0	0	0	0	0	0	0	0	0	0	0	0	0	0	0	0	0	0	0	0	0	0	0	0	0	0	0	0	0	0	0	0	0	0	0	0
070319	09:41:19	09:42:47	85498	5.0.10.0	5_exp_noRW	2	Rpleas_acq	CS_A	CPPC	LWWL	ZHHZ	JQQJ	YFFY	DXXD	küssen	träumen	genießen	vertrauen	gütig	sonnig	krank	töten	gemein	versagen	gierig	sterben	47pct	acq_USunple_CSunple2_noRW	acq1_noRW	1	7	0	0	300	300	464	46	0	1	1	blank2r.bmp	0	1	+	0	1	blank2r.bmp	252	1	JQQJ	306	1	versagen	559	0	0	0	0	0	0	0	0	0	0	0	0	0	0	0	0	0	0	0	0	0	0	0	0	0	0	0	0	0	0	0	0	0	0	0	0	0	0	0
070319	09:41:19	09:42:48	87017	5.0.10.0	5_exp_noRW	2	Rpleas_acq	CS_A	CPPC	LWWL	ZHHZ	JQQJ	YFFY	DXXD	küssen	träumen	genießen	vertrauen	gütig	sonnig	krank	töten	gemein	versagen	gierig	sterben	53pct	acq_USunple_CSunple1_noRW	acq1_noRW	1	8	0	0	300	300	336	46	0	1	1	blank2r.bmp	0	1	+	0	1	blank2r.bmp	252	1	ZHHZ	306	1	krank	559	0	0	0	0	0	0	0	0	0	0	0	0	0	0	0	0	0	0	0	0	0	0	0	0	0	0	0	0	0	0	0	0	0	0	0	0	0	0	0
070319	09:41:19	09:42:50	88523	5.0.10.0	5_exp_noRW	2	Rpleas_acq	CS_A	CPPC	LWWL	ZHHZ	JQQJ	YFFY	DXXD	küssen	träumen	genießen	vertrauen	gütig	sonnig	krank	töten	gemein	versagen	gierig	sterben	47pct	acq_USunple_CSunple2_noRW	acq1_noRW	1	9	0	0	300	300	338	46	0	1	1	blank2r.bmp	0	1	+	0	1	blank2r.bmp	252	1	JQQJ	306	3	sterben	559	0	0	0	0	0	0	0	0	0	0	0	0	0	0	0	0	0	0	0	0	0	0	0	0	0	0	0	0	0	0	0	0	0	0	0	0	0	0	0
070319	09:41:19	09:42:51	90016	5.0.10.0	5_exp_noRW	2	Rpleas_acq	CS_A	CPPC	LWWL	ZHHZ	JQQJ	YFFY	DXXD	küssen	träumen	genießen	vertrauen	gütig	sonnig	krank	töten	gemein	versagen	gierig	sterben	47pct	acq_USunple_CSunple2_noRW	acq1_noRW	1	10	0	0	300	300	315	46	0	1	1	blank2r.bmp	0	1	+	0	1	blank2r.bmp	252	1	JQQJ	306	3	sterben	559	0	0	0	0	0	0	0	0	0	0	0	0	0	0	0	0	0	0	0	0	0	0	0	0	0	0	0	0	0	0	0	0	0	0	0	0	0	0	0
070319	09:41:19	09:42:53	91748	5.0.10.0	5_exp_noRW	2	Rpleas_acq	CS_A	CPPC	LWWL	ZHHZ	JQQJ	YFFY	DXXD	küssen	träumen	genießen	vertrauen	gütig	sonnig	krank	töten	gemein	versagen	gierig	sterben	47pct	acq_USpleas_CSpleas1_noRW	acq1_noRW	1	11	0	0	300	300	344	46	0	0	1	blank2r.bmp	0	1	+	0	1	blank2r.bmp	252	1	CPPC	306	2	träumen	559	1	FEHLER	932	0	0	0	0	0	0	0	0	0	0	0	0	0	0	0	0	0	0	0	0	0	0	0	0	0	0	0	0	0	0	0	0	0	0	0	0
070319	09:41:19	09:42:55	93228	5.0.10.0	5_exp_noRW	2	Rpleas_acq	CS_A	CPPC	LWWL	ZHHZ	JQQJ	YFFY	DXXD	küssen	träumen	genießen	vertrauen	gütig	sonnig	krank	töten	gemein	versagen	gierig	sterben	53pct	acq_USunple_CSpleas1_noRW	acq1_noRW	1	12	0	0	300	300	505	46	0	1	1	blank2r.bmp	0	1	+	0	1	blank2r.bmp	252	1	CPPC	306	2	töten	559	0	0	0	0	0	0	0	0	0	0	0	0	0	0	0	0	0	0	0	0	0	0	0	0	0	0	0	0	0	0	0	0	0	0	0	0	0	0	0
070319	09:41:19	09:42:56	94747	5.0.10.0	5_exp_noRW	2	Rpleas_acq	CS_A	CPPC	LWWL	ZHHZ	JQQJ	YFFY	DXXD	küssen	träumen	genießen	vertrauen	gütig	sonnig	krank	töten	gemein	versagen	gierig	sterben	53pct	acq_USunple_CSunple1_noRW	acq1_noRW	1	13	0	0	300	300	355	46	0	1	1	blank2r.bmp	0	1	+	0	1	blank2r.bmp	252	1	ZHHZ	306	3	gemein	559	0	0	0	0	0	0	0	0	0	0	0	0	0	0	0	0	0	0	0	0	0	0	0	0	0	0	0	0	0	0	0	0	0	0	0	0	0	0	0
070319	09:41:19	09:42:58	96307	5.0.10.0	5_exp_noRW	2	Rpleas_acq	CS_A	CPPC	LWWL	ZHHZ	JQQJ	YFFY	DXXD	küssen	träumen	genießen	vertrauen	gütig	sonnig	krank	töten	gemein	versagen	gierig	sterben	47pct	acq_USpleas_CSpleas1_noRW	acq1_noRW	1	14	0	0	300	300	382	50	0	1	1	blank2r.bmp	0	1	+	0	1	blank2r.bmp	252	1	CPPC	306	1	küssen	559	0	0	0	0	0	0	0	0	0	0	0	0	0	0	0	0	0	0	0	0	0	0	0	0	0	0	0	0	0	0	0	0	0	0	0	0	0	0	0
070319	09:41:19	09:42:59	97999	5.0.10.0	5_exp_noRW	2	Rpleas_acq	CS_A	CPPC	LWWL	ZHHZ	JQQJ	YFFY	DXXD	küssen	träumen	genießen	vertrauen	gütig	sonnig	krank	töten	gemein	versagen	gierig	sterben	53pct	acq_USpleas_CSpleas2_noRW	acq1_noRW	1	15	0	0	300	300	297	46	0	0	1	blank2r.bmp	0	1	+	0	1	blank2r.bmp	252	1	LWWL	306	1	vertrauen	559	1	FEHLER	892	0	0	0	0	0	0	0	0	0	0	0	0	0	0	0	0	0	0	0	0	0	0	0	0	0	0	0	0	0	0	0	0	0	0	0	0
070319	09:41:19	09:43:03	101478	5.0.10.0	5_exp_noRW	2	Rpleas_acq	CS_A	CPPC	LWWL	ZHHZ	JQQJ	YFFY	DXXD	küssen	träumen	genießen	vertrauen	gütig	sonnig	krank	töten	gemein	versagen	gierig	sterben	47pct	acq_USpleas_CSpleas2_noRW	acq1_noRW	1	16	0	0	300	300	2000	0	0	0	1	blank2r.bmp	0	1	+	0	1	blank2r.bmp	252	1	LWWL	306	2	gütig	559	1	FEHLER	2598	1	Schneller!	2598	0	0	0	0	0	0	0	0	0	0	0	0	0	0	0	0	0	0	0	0	0	0	0	0	0	0	0	0	0	0	0	0	0
070319	09:41:19	09:43:04	102837	5.0.10.0	5_exp_noRW	2	Rpleas_acq	CS_A	CPPC	LWWL	ZHHZ	JQQJ	YFFY	DXXD	küssen	träumen	genießen	vertrauen	gütig	sonnig	krank	töten	gemein	versagen	gierig	sterben	47pct	acq_USpleas_CSpleas1_noRW	acq1_noRW	1	17	0	0	300	300	471	50	0	1	1	blank2r.bmp	0	1	+	0	1	blank2r.bmp	252	1	CPPC	306	3	genießen	559	0	0	0	0	0	0	0	0	0	0	0	0	0	0	0	0	0	0	0	0	0	0	0	0	0	0	0	0	0	0	0	0	0	0	0	0	0	0	0
070319	09:41:19	09:43:05	104157	5.0.10.0	5_exp_noRW	2	Rpleas_acq	CS_A	CPPC	LWWL	ZHHZ	JQQJ	YFFY	DXXD	küssen	träumen	genießen	vertrauen	gütig	sonnig	krank	töten	gemein	versagen	gierig	sterben	53pct	acq_USpleas_CSunple1_noRW	acq1_noRW	1	18	0	0	300	300	155	50	0	1	1	blank2r.bmp	0	1	+	0	1	blank2r.bmp	252	1	ZHHZ	306	2	träumen	559	0	0	0	0	0	0	0	0	0	0	0	0	0	0	0	0	0	0	0	0	0	0	0	0	0	0	0	0	0	0	0	0	0	0	0	0	0	0	0
070319	09:41:19	09:43:07	105676	5.0.10.0	5_exp_noRW	2	Rpleas_acq	CS_A	CPPC	LWWL	ZHHZ	JQQJ	YFFY	DXXD	küssen	träumen	genießen	vertrauen	gütig	sonnig	krank	töten	gemein	versagen	gierig	sterben	47pct	acq_USpleas_CSpleas1_noRW	acq1_noRW	1	19	0	0	300	300	335	50	0	1	1	blank2r.bmp	0	1	+	0	1	blank2r.bmp	252	1	CPPC	306	3	genießen	559	0	0	0	0	0	0	0	0	0	0	0	0	0	0	0	0	0	0	0	0	0	0	0	0	0	0	0	0	0	0	0	0	0	0	0	0	0	0	0
070319	09:41:19	09:43:08	107169	5.0.10.0	5_exp_noRW	2	Rpleas_acq	CS_A	CPPC	LWWL	ZHHZ	JQQJ	YFFY	DXXD	küssen	träumen	genießen	vertrauen	gütig	sonnig	krank	töten	gemein	versagen	gierig	sterben	47pct	acq_USpleas_CSpleas2_noRW	acq1_noRW	1	20	0	0	300	300	322	50	0	1	1	blank2r.bmp	0	1	+	0	1	blank2r.bmp	252	1	LWWL	306	2	gütig	559	0	0	0	0	0	0	0	0	0	0	0	0	0	0	0	0	0	0	0	0	0	0	0	0	0	0	0	0	0	0	0	0	0	0	0	0	0	0	0
070319	09:41:19	09:43:10	108755	5.0.10.0	5_exp_noRW	2	Rpleas_acq	CS_A	CPPC	LWWL	ZHHZ	JQQJ	YFFY	DXXD	küssen	träumen	genießen	vertrauen	gütig	sonnig	krank	töten	gemein	versagen	gierig	sterben	47pct	acq_USpleas_CSpleas2_noRW	acq1_noRW	1	21	0	0	300	300	407	50	0	1	1	blank2r.bmp	0	1	+	0	1	blank2r.bmp	252	1	LWWL	306	1	vertrauen	559	0	0	0	0	0	0	0	0	0	0	0	0	0	0	0	0	0	0	0	0	0	0	0	0	0	0	0	0	0	0	0	0	0	0	0	0	0	0	0
070319	09:41:19	09:43:12	110247	5.0.10.0	5_exp_noRW	2	Rpleas_acq	CS_A	CPPC	LWWL	ZHHZ	JQQJ	YFFY	DXXD	küssen	träumen	genießen	vertrauen	gütig	sonnig	krank	töten	gemein	versagen	gierig	sterben	53pct	acq_USunple_CSunple1_noRW	acq1_noRW	1	22	0	0	300	300	307	46	0	1	1	blank2r.bmp	0	1	+	0	1	blank2r.bmp	252	1	ZHHZ	306	2	töten	559	0	0	0	0	0	0	0	0	0	0	0	0	0	0	0	0	0	0	0	0	0	0	0	0	0	0	0	0	0	0	0	0	0	0	0	0	0	0	0
070319	09:41:19	09:43:13	111873	5.0.10.0	5_exp_noRW	2	Rpleas_acq	CS_A	CPPC	LWWL	ZHHZ	JQQJ	YFFY	DXXD	küssen	träumen	genießen	vertrauen	gütig	sonnig	krank	töten	gemein	versagen	gierig	sterben	47pct	acq_USunple_CSunple1_noRW	acq1_noRW	1	23	0	0	300	300	463	46	0	1	1	blank2r.bmp	0	1	+	0	1	blank2r.bmp	252	1	ZHHZ	306	1	krank	559	0	0	0	0	0	0	0	0	0	0	0	0	0	0	0	0	0	0	0	0	0	0	0	0	0	0	0	0	0	0	0	0	0	0	0	0	0	0	0
070319	09:41:19	09:43:15	113366	5.0.10.0	5_exp_noRW	2	Rpleas_acq	CS_A	CPPC	LWWL	ZHHZ	JQQJ	YFFY	DXXD	küssen	träumen	genießen	vertrauen	gütig	sonnig	krank	töten	gemein	versagen	gierig	sterben	53pct	acq_USpleas_CSpleas2_noRW	acq1_noRW	1	24	0	0	300	300	318	50	0	1	1	blank2r.bmp	0	1	+	0	1	blank2r.bmp	252	1	LWWL	306	3	sonnig	559	0	0	0	0	0	0	0	0	0	0	0	0	0	0	0	0	0	0	0	0	0	0	0	0	0	0	0	0	0	0	0	0	0	0	0	0	0	0	0
070319	09:41:19	09:43:16	115059	5.0.10.0	5_exp_noRW	2	Rpleas_acq	CS_A	CPPC	LWWL	ZHHZ	JQQJ	YFFY	DXXD	küssen	träumen	genießen	vertrauen	gütig	sonnig	krank	töten	gemein	versagen	gierig	sterben	53pct	acq_USpleas_CSpleas1_noRW	acq1_noRW	1	25	0	0	300	300	281	46	0	0	1	blank2r.bmp	0	1	+	0	1	blank2r.bmp	252	1	CPPC	306	2	träumen	559	1	FEHLER	879	0	0	0	0	0	0	0	0	0	0	0	0	0	0	0	0	0	0	0	0	0	0	0	0	0	0	0	0	0	0	0	0	0	0	0	0
070319	09:41:19	09:43:18	116392	5.0.10.0	5_exp_noRW	2	Rpleas_acq	CS_A	CPPC	LWWL	ZHHZ	JQQJ	YFFY	DXXD	küssen	träumen	genießen	vertrauen	gütig	sonnig	krank	töten	gemein	versagen	gierig	sterben	47pct	acq_USpleas_CSunple1_noRW	acq1_noRW	1	26	0	0	300	300	367	50	0	1	1	blank2r.bmp	0	1	+	0	1	blank2r.bmp	252	1	ZHHZ	306	3	genießen	559	0	0	0	0	0	0	0	0	0	0	0	0	0	0	0	0	0	0	0	0	0	0	0	0	0	0	0	0	0	0	0	0	0	0	0	0	0	0	0
070319	09:41:19	09:43:19	118178	5.0.10.0	5_exp_noRW	2	Rpleas_acq	CS_A	CPPC	LWWL	ZHHZ	JQQJ	YFFY	DXXD	küssen	träumen	genießen	vertrauen	gütig	sonnig	krank	töten	gemein	versagen	gierig	sterben	53pct	acq_USunple_CSunple2_noRW	acq1_noRW	1	27	0	0	300	300	621	46	0	1	1	blank2r.bmp	0	1	+	0	1	blank2r.bmp	252	1	JQQJ	306	1	versagen	559	0	0	0	0	0	0	0	0	0	0	0	0	0	0	0	0	0	0	0	0	0	0	0	0	0	0	0	0	0	0	0	0	0	0	0	0	0	0	0
070319	09:41:19	09:43:21	119710	5.0.10.0	5_exp_noRW	2	Rpleas_acq	CS_A	CPPC	LWWL	ZHHZ	JQQJ	YFFY	DXXD	küssen	träumen	genießen	vertrauen	gütig	sonnig	krank	töten	gemein	versagen	gierig	sterben	47pct	acq_USunple_CSpleas2_noRW	acq1_noRW	1	28	0	0	300	300	351	46	0	1	1	blank2r.bmp	0	1	+	0	1	blank2r.bmp	252	1	LWWL	306	3	sterben	559	0	0	0	0	0	0	0	0	0	0	0	0	0	0	0	0	0	0	0	0	0	0	0	0	0	0	0	0	0	0	0	0	0	0	0	0	0	0	0
070319	09:41:19	09:43:23	121310	5.0.10.0	5_exp_noRW	2	Rpleas_acq	CS_A	CPPC	LWWL	ZHHZ	JQQJ	YFFY	DXXD	küssen	träumen	genießen	vertrauen	gütig	sonnig	krank	töten	gemein	versagen	gierig	sterben	53pct	acq_USpleas_CSunple2_noRW	acq1_noRW	1	29	0	0	300	300	412	50	0	1	1	blank2r.bmp	0	1	+	0	1	blank2r.bmp	252	1	JQQJ	306	3	sonnig	559	0	0	0	0	0	0	0	0	0	0	0	0	0	0	0	0	0	0	0	0	0	0	0	0	0	0	0	0	0	0	0	0	0	0	0	0	0	0	0
070319	09:41:19	09:43:24	123056	5.0.10.0	5_exp_noRW	2	Rpleas_acq	CS_A	CPPC	LWWL	ZHHZ	JQQJ	YFFY	DXXD	küssen	träumen	genießen	vertrauen	gütig	sonnig	krank	töten	gemein	versagen	gierig	sterben	47pct	acq_USunple_CSunple2_noRW	acq1_noRW	1	30	0	0	300	300	370	50	0	0	1	blank2r.bmp	0	1	+	0	1	blank2r.bmp	252	1	JQQJ	306	2	gierig	559	1	FEHLER	959	0	0	0	0	0	0	0	0	0	0	0	0	0	0	0	0	0	0	0	0	0	0	0	0	0	0	0	0	0	0	0	0	0	0	0	0
070319	09:41:19	09:43:26	124695	5.0.10.0	5_exp_noRW	2	Rpleas_acq	CS_A	CPPC	LWWL	ZHHZ	JQQJ	YFFY	DXXD	küssen	träumen	genießen	vertrauen	gütig	sonnig	krank	töten	gemein	versagen	gierig	sterben	47pct	acq_USpleas_CSpleas1_noRW	acq1_noRW	1	31	0	0	300	300	457	46	0	0	1	blank2r.bmp	0	1	+	0	1	blank2r.bmp	252	1	CPPC	306	1	küssen	559	1	FEHLER	1052	0	0	0	0	0	0	0	0	0	0	0	0	0	0	0	0	0	0	0	0	0	0	0	0	0	0	0	0	0	0	0	0	0	0	0	0
070319	09:41:19	09:43:28	126321	5.0.10.0	5_exp_noRW	2	Rpleas_acq	CS_A	CPPC	LWWL	ZHHZ	JQQJ	YFFY	DXXD	küssen	träumen	genießen	vertrauen	gütig	sonnig	krank	töten	gemein	versagen	gierig	sterben	47pct	acq_USunple_CSunple1_noRW	acq1_noRW	1	32	0	0	300	300	653	46	0	1	1	blank2r.bmp	0	1	+	0	1	blank2r.bmp	252	1	ZHHZ	306	1	krank	559	0	0	0	0	0	0	0	0	0	0	0	0	0	0	0	0	0	0	0	0	0	0	0	0	0	0	0	0	0	0	0	0	0	0	0	0	0	0	0
070319	09:41:19	09:43:29	127854	5.0.10.0	5_exp_noRW	2	Rpleas_acq	CS_A	CPPC	LWWL	ZHHZ	JQQJ	YFFY	DXXD	küssen	träumen	genießen	vertrauen	gütig	sonnig	krank	töten	gemein	versagen	gierig	sterben	53pct	acq_USpleas_CSpleas1_noRW	acq1_noRW	1	33	0	0	300	300	359	50	0	1	1	blank2r.bmp	0	1	+	0	1	blank2r.bmp	252	1	CPPC	306	1	küssen	559	0	0	0	0	0	0	0	0	0	0	0	0	0	0	0	0	0	0	0	0	0	0	0	0	0	0	0	0	0	0	0	0	0	0	0	0	0	0	0
070319	09:41:19	09:43:31	129400	5.0.10.0	5_exp_noRW	2	Rpleas_acq	CS_A	CPPC	LWWL	ZHHZ	JQQJ	YFFY	DXXD	küssen	träumen	genießen	vertrauen	gütig	sonnig	krank	töten	gemein	versagen	gierig	sterben	47pct	acq_USunple_CSunple1_noRW	acq1_noRW	1	34	0	0	300	300	374	46	0	1	1	blank2r.bmp	0	1	+	0	1	blank2r.bmp	252	1	ZHHZ	306	3	gemein	559	0	0	0	0	0	0	0	0	0	0	0	0	0	0	0	0	0	0	0	0	0	0	0	0	0	0	0	0	0	0	0	0	0	0	0	0	0	0	0
070319	09:41:19	09:43:32	131026	5.0.10.0	5_exp_noRW	2	Rpleas_acq	CS_A	CPPC	LWWL	ZHHZ	JQQJ	YFFY	DXXD	küssen	träumen	genießen	vertrauen	gütig	sonnig	krank	töten	gemein	versagen	gierig	sterben	53pct	acq_USpleas_CSpleas2_noRW	acq1_noRW	1	35	0	0	300	300	443	50	0	1	1	blank2r.bmp	0	1	+	0	1	blank2r.bmp	252	1	LWWL	306	3	sonnig	559	0	0	0	0	0	0	0	0	0	0	0	0	0	0	0	0	0	0	0	0	0	0	0	0	0	0	0	0	0	0	0	0	0	0	0	0	0	0	0
070319	09:41:19	09:43:34	132758	5.0.10.0	5_exp_noRW	2	Rpleas_acq	CS_A	CPPC	LWWL	ZHHZ	JQQJ	YFFY	DXXD	küssen	träumen	genießen	vertrauen	gütig	sonnig	krank	töten	gemein	versagen	gierig	sterben	53pct	acq_USunple_CSpleas1_noRW	acq1_noRW	1	36	0	0	300	300	571	46	0	1	1	blank2r.bmp	0	1	+	0	1	blank2r.bmp	252	1	CPPC	306	1	krank	559	0	0	0	0	0	0	0	0	0	0	0	0	0	0	0	0	0	0	0	0	0	0	0	0	0	0	0	0	0	0	0	0	0	0	0	0	0	0	0
070319	09:41:19	09:43:35	134171	5.0.10.0	5_exp_noRW	2	Rpleas_acq	CS_A	CPPC	LWWL	ZHHZ	JQQJ	YFFY	DXXD	küssen	träumen	genießen	vertrauen	gütig	sonnig	krank	töten	gemein	versagen	gierig	sterben	53pct	acq_USpleas_CSpleas1_noRW	acq1_noRW	1	37	0	0	300	300	235	50	0	1	1	blank2r.bmp	0	1	+	0	1	blank2r.bmp	252	1	CPPC	306	2	träumen	559	0	0	0	0	0	0	0	0	0	0	0	0	0	0	0	0	0	0	0	0	0	0	0	0	0	0	0	0	0	0	0	0	0	0	0	0	0	0	0
070319	09:41:19	09:43:37	135944	5.0.10.0	5_exp_noRW	2	Rpleas_acq	CS_A	CPPC	LWWL	ZHHZ	JQQJ	YFFY	DXXD	küssen	träumen	genießen	vertrauen	gütig	sonnig	krank	töten	gemein	versagen	gierig	sterben	47pct	acq_USpleas_CSpleas2_noRW	acq1_noRW	1	38	0	0	300	300	591	50	0	1	1	blank2r.bmp	0	1	+	0	1	blank2r.bmp	252	1	LWWL	306	2	gütig	559	0	0	0	0	0	0	0	0	0	0	0	0	0	0	0	0	0	0	0	0	0	0	0	0	0	0	0	0	0	0	0	0	0	0	0	0	0	0	0
070319	09:41:19	09:43:39	137370	5.0.10.0	5_exp_noRW	2	Rpleas_acq	CS_A	CPPC	LWWL	ZHHZ	JQQJ	YFFY	DXXD	küssen	träumen	genießen	vertrauen	gütig	sonnig	krank	töten	gemein	versagen	gierig	sterben	47pct	acq_USunple_CSunple2_noRW	acq1_noRW	1	39	0	0	300	300	260	46	0	1	1	blank2r.bmp	0	1	+	0	1	blank2r.bmp	252	1	JQQJ	306	3	sterben	559	0	0	0	0	0	0	0	0	0	0	0	0	0	0	0	0	0	0	0	0	0	0	0	0	0	0	0	0	0	0	0	0	0	0	0	0	0	0	0
070319	09:41:19	09:43:40	138876	5.0.10.0	5_exp_noRW	2	Rpleas_acq	CS_A	CPPC	LWWL	ZHHZ	JQQJ	YFFY	DXXD	küssen	träumen	genießen	vertrauen	gütig	sonnig	krank	töten	gemein	versagen	gierig	sterben	47pct	acq_USunple_CSunple2_noRW	acq1_noRW	1	40	0	0	300	300	330	46	0	1	1	blank2r.bmp	0	1	+	0	1	blank2r.bmp	252	1	JQQJ	306	1	versagen	559	0	0	0	0	0	0	0	0	0	0	0	0	0	0	0	0	0	0	0	0	0	0	0	0	0	0	0	0	0	0	0	0	0	0	0	0	0	0	0
070319	09:41:19	09:43:42	140422	5.0.10.0	5_exp_noRW	2	Rpleas_acq	CS_A	CPPC	LWWL	ZHHZ	JQQJ	YFFY	DXXD	küssen	träumen	genießen	vertrauen	gütig	sonnig	krank	töten	gemein	versagen	gierig	sterben	53pct	acq_USpleas_CSpleas1_noRW	acq1_noRW	1	41	0	0	300	300	366	50	0	1	1	blank2r.bmp	0	1	+	0	1	blank2r.bmp	252	1	CPPC	306	3	genießen	559	0	0	0	0	0	0	0	0	0	0	0	0	0	0	0	0	0	0	0	0	0	0	0	0	0	0	0	0	0	0	0	0	0	0	0	0	0	0	0
070319	09:41:19	09:43:43	142101	5.0.10.0	5_exp_noRW	2	Rpleas_acq	CS_A	CPPC	LWWL	ZHHZ	JQQJ	YFFY	DXXD	küssen	träumen	genießen	vertrauen	gütig	sonnig	krank	töten	gemein	versagen	gierig	sterben	53pct	acq_USunple_CSunple2_noRW	acq1_noRW	1	42	0	0	300	300	283	50	0	0	1	blank2r.bmp	0	1	+	0	1	blank2r.bmp	252	1	JQQJ	306	2	gierig	559	1	FEHLER	879	0	0	0	0	0	0	0	0	0	0	0	0	0	0	0	0	0	0	0	0	0	0	0	0	0	0	0	0	0	0	0	0	0	0	0	0
070319	09:41:19	09:43:45	143620	5.0.10.0	5_exp_noRW	2	Rpleas_acq	CS_A	CPPC	LWWL	ZHHZ	JQQJ	YFFY	DXXD	küssen	träumen	genießen	vertrauen	gütig	sonnig	krank	töten	gemein	versagen	gierig	sterben	53pct	acq_USunple_CSpleas2_noRW	acq1_noRW	1	43	0	0	300	300	345	50	0	0	1	blank2r.bmp	0	1	+	0	1	blank2r.bmp	252	1	LWWL	306	2	gierig	559	1	FEHLER	946	0	0	0	0	0	0	0	0	0	0	0	0	0	0	0	0	0	0	0	0	0	0	0	0	0	0	0	0	0	0	0	0	0	0	0	0
070319	09:41:19	09:43:46	144993	5.0.10.0	5_exp_noRW	2	Rpleas_acq	CS_A	CPPC	LWWL	ZHHZ	JQQJ	YFFY	DXXD	küssen	träumen	genießen	vertrauen	gütig	sonnig	krank	töten	gemein	versagen	gierig	sterben	47pct	acq_USpleas_CSpleas1_noRW	acq1_noRW	1	44	0	0	300	300	412	50	0	1	1	blank2r.bmp	0	1	+	0	1	blank2r.bmp	252	1	CPPC	306	2	träumen	559	0	0	0	0	0	0	0	0	0	0	0	0	0	0	0	0	0	0	0	0	0	0	0	0	0	0	0	0	0	0	0	0	0	0	0	0	0	0	0
070319	09:41:19	09:43:48	146553	5.0.10.0	5_exp_noRW	2	Rpleas_acq	CS_A	CPPC	LWWL	ZHHZ	JQQJ	YFFY	DXXD	küssen	träumen	genießen	vertrauen	gütig	sonnig	krank	töten	gemein	versagen	gierig	sterben	53pct	acq_USunple_CSunple1_noRW	acq1_noRW	1	45	0	0	300	300	397	46	0	1	1	blank2r.bmp	0	1	+	0	1	blank2r.bmp	252	1	ZHHZ	306	2	töten	559	0	0	0	0	0	0	0	0	0	0	0	0	0	0	0	0	0	0	0	0	0	0	0	0	0	0	0	0	0	0	0	0	0	0	0	0	0	0	0
070319	09:41:19	09:43:49	148112	5.0.10.0	5_exp_noRW	2	Rpleas_acq	CS_A	CPPC	LWWL	ZHHZ	JQQJ	YFFY	DXXD	küssen	träumen	genießen	vertrauen	gütig	sonnig	krank	töten	gemein	versagen	gierig	sterben	47pct	acq_USpleas_CSpleas2_noRW	acq1_noRW	1	46	0	0	300	300	372	50	0	1	1	blank2r.bmp	0	1	+	0	1	blank2r.bmp	252	1	LWWL	306	1	vertrauen	559	0	0	0	0	0	0	0	0	0	0	0	0	0	0	0	0	0	0	0	0	0	0	0	0	0	0	0	0	0	0	0	0	0	0	0	0	0	0	0
070319	09:41:19	09:43:51	149898	5.0.10.0	5_exp_noRW	2	Rpleas_acq	CS_A	CPPC	LWWL	ZHHZ	JQQJ	YFFY	DXXD	küssen	träumen	genießen	vertrauen	gütig	sonnig	krank	töten	gemein	versagen	gierig	sterben	53pct	acq_USunple_CSunple2_noRW	acq1_noRW	1	47	0	0	300	300	403	50	0	0	1	blank2r.bmp	0	1	+	0	1	blank2r.bmp	252	1	JQQJ	306	3	sterben	559	1	FEHLER	999	0	0	0	0	0	0	0	0	0	0	0	0	0	0	0	0	0	0	0	0	0	0	0	0	0	0	0	0	0	0	0	0	0	0	0	0
070319	09:41:19	09:43:54	152244	5.0.10.0	5_exp_noRW	2	Rpleas_acq	CS_A	CPPC	LWWL	ZHHZ	JQQJ	YFFY	DXXD	küssen	träumen	genießen	vertrauen	gütig	sonnig	krank	töten	gemein	versagen	gierig	sterben	47pct	acq_USunple_CSunple1_noRW	acq1_noRW	1	48	0	0	300	300	1390	46	0	1	1	blank2r.bmp	0	1	+	0	1	blank2r.bmp	252	1	ZHHZ	306	3	gemein	559	0	0	0	0	0	0	0	0	0	0	0	0	0	0	0	0	0	0	0	0	0	0	0	0	0	0	0	0	0	0	0	0	0	0	0	0	0	0	0
070319	09:41:19	09:43:56	154696	5.0.10.0	5_exp_noRW	2	Rpleas_acq	CS_A	CPPC	LWWL	ZHHZ	JQQJ	YFFY	DXXD	küssen	träumen	genießen	vertrauen	gütig	sonnig	krank	töten	gemein	versagen	gierig	sterben	47pct	acq_USpleas_CSpleas2_noRW	acq1_noRW	1	49	0	0	300	300	1280	50	0	1	1	blank2r.bmp	0	1	+	0	1	blank2r.bmp	252	1	LWWL	306	3	sonnig	559	0	0	0	0	0	0	0	0	0	0	0	0	0	0	0	0	0	0	0	0	0	0	0	0	0	0	0	0	0	0	0	0	0	0	0	0	0	0	0
070319	09:41:19	09:43:58	156935	5.0.10.0	5_exp_noRW	2	Rpleas_acq	CS_A	CPPC	LWWL	ZHHZ	JQQJ	YFFY	DXXD	küssen	träumen	genießen	vertrauen	gütig	sonnig	krank	töten	gemein	versagen	gierig	sterben	47pct	acq_USunple_CSunple2_noRW	acq1_noRW	1	50	0	0	300	300	1074	46	0	1	1	blank2r.bmp	0	1	+	0	1	blank2r.bmp	252	1	JQQJ	306	1	versagen	559	0	0	0	0	0	0	0	0	0	0	0	0	0	0	0	0	0	0	0	0	0	0	0	0	0	0	0	0	0	0	0	0	0	0	0	0	0	0	0
070319	09:41:19	09:44:00	158454	5.0.10.0	5_exp_noRW	2	Rpleas_acq	CS_A	CPPC	LWWL	ZHHZ	JQQJ	YFFY	DXXD	küssen	träumen	genießen	vertrauen	gütig	sonnig	krank	töten	gemein	versagen	gierig	sterben	47pct	acq_USunple_CSunple1_noRW	acq1_noRW	1	51	0	0	300	300	343	46	0	1	1	blank2r.bmp	0	1	+	0	1	blank2r.bmp	252	1	ZHHZ	306	2	töten	559	0	0	0	0	0	0	0	0	0	0	0	0	0	0	0	0	0	0	0	0	0	0	0	0	0	0	0	0	0	0	0	0	0	0	0	0	0	0	0
070319	09:41:19	09:44:01	160027	5.0.10.0	5_exp_noRW	2	Rpleas_acq	CS_A	CPPC	LWWL	ZHHZ	JQQJ	YFFY	DXXD	küssen	träumen	genießen	vertrauen	gütig	sonnig	krank	töten	gemein	versagen	gierig	sterben	53pct	acq_USpleas_CSpleas1_noRW	acq1_noRW	1	52	0	0	300	300	395	50	0	1	1	blank2r.bmp	0	1	+	0	1	blank2r.bmp	252	1	CPPC	306	1	küssen	559	0	0	0	0	0	0	0	0	0	0	0	0	0	0	0	0	0	0	0	0	0	0	0	0	0	0	0	0	0	0	0	0	0	0	0	0	0	0	0
070319	09:41:19	09:44:03	162120	5.0.10.0	5_exp_noRW	2	Rpleas_acq	CS_A	CPPC	LWWL	ZHHZ	JQQJ	YFFY	DXXD	küssen	träumen	genießen	vertrauen	gütig	sonnig	krank	töten	gemein	versagen	gierig	sterben	53pct	acq_USpleas_CSpleas1_noRW	acq1_noRW	1	53	0	0	300	300	929	50	0	1	1	blank2r.bmp	0	1	+	0	1	blank2r.bmp	252	1	CPPC	306	3	genießen	559	0	0	0	0	0	0	0	0	0	0	0	0	0	0	0	0	0	0	0	0	0	0	0	0	0	0	0	0	0	0	0	0	0	0	0	0	0	0	0
070319	09:41:19	09:44:05	163972	5.0.10.0	5_exp_noRW	2	Rpleas_acq	CS_A	CPPC	LWWL	ZHHZ	JQQJ	YFFY	DXXD	küssen	träumen	genießen	vertrauen	gütig	sonnig	krank	töten	gemein	versagen	gierig	sterben	53pct	acq_USpleas_CSpleas2_noRW	acq1_noRW	1	54	0	0	300	300	453	46	0	0	1	blank2r.bmp	0	1	+	0	1	blank2r.bmp	252	1	LWWL	306	1	vertrauen	559	1	FEHLER	1052	0	0	0	0	0	0	0	0	0	0	0	0	0	0	0	0	0	0	0	0	0	0	0	0	0	0	0	0	0	0	0	0	0	0	0	0
070319	09:41:19	09:44:07	165851	5.0.10.0	5_exp_noRW	2	Rpleas_acq	CS_A	CPPC	LWWL	ZHHZ	JQQJ	YFFY	DXXD	küssen	träumen	genießen	vertrauen	gütig	sonnig	krank	töten	gemein	versagen	gierig	sterben	53pct	acq_USunple_CSunple1_noRW	acq1_noRW	1	55	0	0	300	300	920	46	0	1	1	blank2r.bmp	0	1	+	0	1	blank2r.bmp	252	1	ZHHZ	306	1	krank	559	0	0	0	0	0	0	0	0	0	0	0	0	0	0	0	0	0	0	0	0	0	0	0	0	0	0	0	0	0	0	0	0	0	0	0	0	0	0	0
070319	09:41:19	09:44:09	167651	5.0.10.0	5_exp_noRW	2	Rpleas_acq	CS_A	CPPC	LWWL	ZHHZ	JQQJ	YFFY	DXXD	küssen	träumen	genießen	vertrauen	gütig	sonnig	krank	töten	gemein	versagen	gierig	sterben	47pct	acq_USunple_CSunple2_noRW	acq1_noRW	1	56	0	0	300	300	417	50	0	0	1	blank2r.bmp	0	1	+	0	1	blank2r.bmp	252	1	JQQJ	306	2	gierig	559	1	FEHLER	1012	0	0	0	0	0	0	0	0	0	0	0	0	0	0	0	0	0	0	0	0	0	0	0	0	0	0	0	0	0	0	0	0	0	0	0	0
070319	09:41:19	09:44:12	170263	5.0.10.0	5_exp_noRW	2	Rpleas_acq	CS_A	CPPC	LWWL	ZHHZ	JQQJ	YFFY	DXXD	küssen	träumen	genießen	vertrauen	gütig	sonnig	krank	töten	gemein	versagen	gierig	sterben	47pct	acq_USpleas_CSunple2_noRW	acq1_noRW	1	57	0	0	300	300	1654	50	0	1	1	blank2r.bmp	0	1	+	0	1	blank2r.bmp	252	1	JQQJ	306	1	vertrauen	559	0	0	0	0	0	0	0	0	0	0	0	0	0	0	0	0	0	0	0	0	0	0	0	0	0	0	0	0	0	0	0	0	0	0	0	0	0	0	0
070319	09:41:19	09:44:13	171769	5.0.10.0	5_exp_noRW	2	Rpleas_acq	CS_A	CPPC	LWWL	ZHHZ	JQQJ	YFFY	DXXD	küssen	träumen	genießen	vertrauen	gütig	sonnig	krank	töten	gemein	versagen	gierig	sterben	47pct	acq_USpleas_CSpleas2_noRW	acq1_noRW	1	58	0	0	300	300	344	50	0	1	1	blank2r.bmp	0	1	+	0	1	blank2r.bmp	252	1	LWWL	306	2	gütig	559	0	0	0	0	0	0	0	0	0	0	0	0	0	0	0	0	0	0	0	0	0	0	0	0	0	0	0	0	0	0	0	0	0	0	0	0	0	0	0
070319	09:41:19	09:44:15	173328	5.0.10.0	5_exp_noRW	2	Rpleas_acq	CS_A	CPPC	LWWL	ZHHZ	JQQJ	YFFY	DXXD	küssen	träumen	genießen	vertrauen	gütig	sonnig	krank	töten	gemein	versagen	gierig	sterben	53pct	acq_USunple_CSpleas1_noRW	acq1_noRW	1	59	0	0	300	300	375	46	0	1	1	blank2r.bmp	0	1	+	0	1	blank2r.bmp	252	1	CPPC	306	3	gemein	559	0	0	0	0	0	0	0	0	0	0	0	0	0	0	0	0	0	0	0	0	0	0	0	0	0	0	0	0	0	0	0	0	0	0	0	0	0	0	0
070319	09:41:19	09:44:16	174874	5.0.10.0	5_exp_noRW	2	Rpleas_acq	CS_A	CPPC	LWWL	ZHHZ	JQQJ	YFFY	DXXD	küssen	träumen	genießen	vertrauen	gütig	sonnig	krank	töten	gemein	versagen	gierig	sterben	47pct	acq_USpleas_CSunple1_noRW	acq1_noRW	1	60	0	0	300	300	363	50	0	1	1	blank2r.bmp	0	1	+	0	1	blank2r.bmp	252	1	ZHHZ	306	1	küssen	559	0	0	0	0	0	0	0	0	0	0	0	0	0	0	0	0	0	0	0	0	0	0	0	0	0	0	0	0	0	0	0	0	0	0	0	0	0	0	0
070319	09:41:19	09:44:18	176460	5.0.10.0	5_exp_noRW	2	Rpleas_acq	CS_A	CPPC	LWWL	ZHHZ	JQQJ	YFFY	DXXD	küssen	träumen	genießen	vertrauen	gütig	sonnig	krank	töten	gemein	versagen	gierig	sterben	47pct	acq_USpleas_CSpleas1_noRW	acq1_noRW	1	61	0	0	300	300	405	50	0	1	1	blank2r.bmp	0	1	+	0	1	blank2r.bmp	252	1	CPPC	306	3	genießen	559	0	0	0	0	0	0	0	0	0	0	0	0	0	0	0	0	0	0	0	0	0	0	0	0	0	0	0	0	0	0	0	0	0	0	0	0	0	0	0
070319	09:41:19	09:44:19	178193	5.0.10.0	5_exp_noRW	2	Rpleas_acq	CS_A	CPPC	LWWL	ZHHZ	JQQJ	YFFY	DXXD	küssen	träumen	genießen	vertrauen	gütig	sonnig	krank	töten	gemein	versagen	gierig	sterben	53pct	acq_USunple_CSunple2_noRW	acq1_noRW	1	62	0	0	300	300	332	50	0	0	1	blank2r.bmp	0	1	+	0	1	blank2r.bmp	252	1	JQQJ	306	2	gierig	559	1	FEHLER	932	0	0	0	0	0	0	0	0	0	0	0	0	0	0	0	0	0	0	0	0	0	0	0	0	0	0	0	0	0	0	0	0	0	0	0	0
070319	09:41:19	09:44:21	179632	5.0.10.0	5_exp_noRW	2	Rpleas_acq	CS_A	CPPC	LWWL	ZHHZ	JQQJ	YFFY	DXXD	küssen	träumen	genießen	vertrauen	gütig	sonnig	krank	töten	gemein	versagen	gierig	sterben	47pct	acq_USpleas_CSunple1_noRW	acq1_noRW	1	63	0	0	300	300	479	50	0	1	1	blank2r.bmp	0	1	+	0	1	blank2r.bmp	252	1	ZHHZ	306	1	küssen	559	0	0	0	0	0	0	0	0	0	0	0	0	0	0	0	0	0	0	0	0	0	0	0	0	0	0	0	0	0	0	0	0	0	0	0	0	0	0	0
070319	09:41:19	09:44:22	181138	5.0.10.0	5_exp_noRW	2	Rpleas_acq	CS_A	CPPC	LWWL	ZHHZ	JQQJ	YFFY	DXXD	küssen	träumen	genießen	vertrauen	gütig	sonnig	krank	töten	gemein	versagen	gierig	sterben	53pct	acq_USpleas_CSpleas1_noRW	acq1_noRW	1	64	0	0	300	300	329	50	0	1	1	blank2r.bmp	0	1	+	0	1	blank2r.bmp	252	1	CPPC	306	1	küssen	559	0	0	0	0	0	0	0	0	0	0	0	0	0	0	0	0	0	0	0	0	0	0	0	0	0	0	0	0	0	0	0	0	0	0	0	0	0	0	0
070319	09:41:19	09:44:24	182964	5.0.10.0	5_exp_noRW	2	Rpleas_acq	CS_A	CPPC	LWWL	ZHHZ	JQQJ	YFFY	DXXD	küssen	träumen	genießen	vertrauen	gütig	sonnig	krank	töten	gemein	versagen	gierig	sterben	53pct	acq_USpleas_CSpleas1_noRW	acq1_noRW	1	65	0	0	300	300	431	46	0	0	1	blank2r.bmp	0	1	+	0	1	blank2r.bmp	252	1	CPPC	306	2	träumen	559	1	FEHLER	1026	0	0	0	0	0	0	0	0	0	0	0	0	0	0	0	0	0	0	0	0	0	0	0	0	0	0	0	0	0	0	0	0	0	0	0	0
070319	09:41:19	09:44:26	184417	5.0.10.0	5_exp_noRW	2	Rpleas_acq	CS_A	CPPC	LWWL	ZHHZ	JQQJ	YFFY	DXXD	küssen	träumen	genießen	vertrauen	gütig	sonnig	krank	töten	gemein	versagen	gierig	sterben	47pct	acq_USunple_CSpleas2_noRW	acq1_noRW	1	66	0	0	300	300	489	46	0	1	1	blank2r.bmp	0	1	+	0	1	blank2r.bmp	252	1	LWWL	306	1	versagen	559	0	0	0	0	0	0	0	0	0	0	0	0	0	0	0	0	0	0	0	0	0	0	0	0	0	0	0	0	0	0	0	0	0	0	0	0	0	0	0
070319	09:41:19	09:44:27	186176	5.0.10.0	5_exp_noRW	2	Rpleas_acq	CS_A	CPPC	LWWL	ZHHZ	JQQJ	YFFY	DXXD	küssen	träumen	genießen	vertrauen	gütig	sonnig	krank	töten	gemein	versagen	gierig	sterben	47pct	acq_USunple_CSpleas1_noRW	acq1_noRW	1	67	0	0	300	300	364	50	0	0	1	blank2r.bmp	0	1	+	0	1	blank2r.bmp	252	1	CPPC	306	2	töten	559	1	FEHLER	959	0	0	0	0	0	0	0	0	0	0	0	0	0	0	0	0	0	0	0	0	0	0	0	0	0	0	0	0	0	0	0	0	0	0	0	0
070319	09:41:19	09:44:29	187603	5.0.10.0	5_exp_noRW	2	Rpleas_acq	CS_A	CPPC	LWWL	ZHHZ	JQQJ	YFFY	DXXD	küssen	träumen	genießen	vertrauen	gütig	sonnig	krank	töten	gemein	versagen	gierig	sterben	53pct	acq_USpleas_CSpleas1_noRW	acq1_noRW	1	68	0	0	300	300	453	50	0	1	1	blank2r.bmp	0	1	+	0	1	blank2r.bmp	252	1	CPPC	306	3	genießen	559	0	0	0	0	0	0	0	0	0	0	0	0	0	0	0	0	0	0	0	0	0	0	0	0	0	0	0	0	0	0	0	0	0	0	0	0	0	0	0
070319	09:41:19	09:44:30	189162	5.0.10.0	5_exp_noRW	2	Rpleas_acq	CS_A	CPPC	LWWL	ZHHZ	JQQJ	YFFY	DXXD	küssen	träumen	genießen	vertrauen	gütig	sonnig	krank	töten	gemein	versagen	gierig	sterben	47pct	acq_USunple_CSunple1_noRW	acq1_noRW	1	69	0	0	300	300	382	46	0	1	1	blank2r.bmp	0	1	+	0	1	blank2r.bmp	252	1	ZHHZ	306	3	gemein	559	0	0	0	0	0	0	0	0	0	0	0	0	0	0	0	0	0	0	0	0	0	0	0	0	0	0	0	0	0	0	0	0	0	0	0	0	0	0	0
070319	09:41:19	09:44:32	190974	5.0.10.0	5_exp_noRW	2	Rpleas_acq	CS_A	CPPC	LWWL	ZHHZ	JQQJ	YFFY	DXXD	küssen	träumen	genießen	vertrauen	gütig	sonnig	krank	töten	gemein	versagen	gierig	sterben	53pct	acq_USunple_CSunple1_noRW	acq1_noRW	1	70	0	0	300	300	635	46	0	1	1	blank2r.bmp	0	1	+	0	1	blank2r.bmp	252	1	ZHHZ	306	2	töten	559	0	0	0	0	0	0	0	0	0	0	0	0	0	0	0	0	0	0	0	0	0	0	0	0	0	0	0	0	0	0	0	0	0	0	0	0	0	0	0
070319	09:41:19	09:44:34	192600	5.0.10.0	5_exp_noRW	2	Rpleas_acq	CS_A	CPPC	LWWL	ZHHZ	JQQJ	YFFY	DXXD	küssen	träumen	genießen	vertrauen	gütig	sonnig	krank	töten	gemein	versagen	gierig	sterben	47pct	acq_USunple_CSunple1_noRW	acq1_noRW	1	71	0	0	300	300	452	46	0	1	1	blank2r.bmp	0	1	+	0	1	blank2r.bmp	252	1	ZHHZ	306	1	krank	559	0	0	0	0	0	0	0	0	0	0	0	0	0	0	0	0	0	0	0	0	0	0	0	0	0	0	0	0	0	0	0	0	0	0	0	0	0	0	0
070319	09:41:19	09:44:36	194360	5.0.10.0	5_exp_noRW	2	Rpleas_acq	CS_A	CPPC	LWWL	ZHHZ	JQQJ	YFFY	DXXD	küssen	träumen	genießen	vertrauen	gütig	sonnig	krank	töten	gemein	versagen	gierig	sterben	53pct	acq_USpleas_CSpleas2_noRW	acq1_noRW	1	72	0	0	300	300	372	46	0	0	1	blank2r.bmp	0	1	+	0	1	blank2r.bmp	252	1	LWWL	306	2	gütig	559	1	FEHLER	972	0	0	0	0	0	0	0	0	0	0	0	0	0	0	0	0	0	0	0	0	0	0	0	0	0	0	0	0	0	0	0	0	0	0	0	0
070319	09:41:19	09:44:38	196492	5.0.10.0	5_exp_noRW	2	Rpleas_acq	CS_A	CPPC	LWWL	ZHHZ	JQQJ	YFFY	DXXD	küssen	träumen	genießen	vertrauen	gütig	sonnig	krank	töten	gemein	versagen	gierig	sterben	47pct	acq_USunple_CSunple1_noRW	acq1_noRW	1	73	0	0	300	300	1178	46	0	1	1	blank2r.bmp	0	1	+	0	1	blank2r.bmp	252	1	ZHHZ	306	3	gemein	559	0	0	0	0	0	0	0	0	0	0	0	0	0	0	0	0	0	0	0	0	0	0	0	0	0	0	0	0	0	0	0	0	0	0	0	0	0	0	0
070319	09:41:19	09:44:39	198092	5.0.10.0	5_exp_noRW	2	Rpleas_acq	CS_A	CPPC	LWWL	ZHHZ	JQQJ	YFFY	DXXD	küssen	träumen	genießen	vertrauen	gütig	sonnig	krank	töten	gemein	versagen	gierig	sterben	53pct	acq_USunple_CSunple2_noRW	acq1_noRW	1	74	0	0	300	300	412	46	0	1	1	blank2r.bmp	0	1	+	0	1	blank2r.bmp	252	1	JQQJ	306	3	sterben	559	0	0	0	0	0	0	0	0	0	0	0	0	0	0	0	0	0	0	0	0	0	0	0	0	0	0	0	0	0	0	0	0	0	0	0	0	0	0	0
070319	09:41:19	09:44:41	199811	5.0.10.0	5_exp_noRW	2	Rpleas_acq	CS_A	CPPC	LWWL	ZHHZ	JQQJ	YFFY	DXXD	küssen	träumen	genießen	vertrauen	gütig	sonnig	krank	töten	gemein	versagen	gierig	sterben	47pct	acq_USpleas_CSunple2_noRW	acq1_noRW	1	75	0	0	300	300	557	50	0	1	1	blank2r.bmp	0	1	+	0	1	blank2r.bmp	252	1	JQQJ	306	2	gütig	559	0	0	0	0	0	0	0	0	0	0	0	0	0	0	0	0	0	0	0	0	0	0	0	0	0	0	0	0	0	0	0	0	0	0	0	0	0	0	0
070319	09:41:19	09:44:43	201490	5.0.10.0	5_exp_noRW	2	Rpleas_acq	CS_A	CPPC	LWWL	ZHHZ	JQQJ	YFFY	DXXD	küssen	träumen	genießen	vertrauen	gütig	sonnig	krank	töten	gemein	versagen	gierig	sterben	53pct	acq_USpleas_CSpleas2_noRW	acq1_noRW	1	76	0	0	300	300	493	50	0	1	1	blank2r.bmp	0	1	+	0	1	blank2r.bmp	252	1	LWWL	306	1	vertrauen	559	0	0	0	0	0	0	0	0	0	0	0	0	0	0	0	0	0	0	0	0	0	0	0	0	0	0	0	0	0	0	0	0	0	0	0	0	0	0	0
070319	09:41:19	09:44:45	203249	5.0.10.0	5_exp_noRW	2	Rpleas_acq	CS_A	CPPC	LWWL	ZHHZ	JQQJ	YFFY	DXXD	küssen	träumen	genießen	vertrauen	gütig	sonnig	krank	töten	gemein	versagen	gierig	sterben	47pct	acq_USunple_CSunple2_noRW	acq1_noRW	1	77	0	0	300	300	384	50	0	0	1	blank2r.bmp	0	1	+	0	1	blank2r.bmp	252	1	JQQJ	306	1	versagen	559	1	FEHLER	972	0	0	0	0	0	0	0	0	0	0	0	0	0	0	0	0	0	0	0	0	0	0	0	0	0	0	0	0	0	0	0	0	0	0	0	0
070319	09:41:19	09:44:46	204729	5.0.10.0	5_exp_noRW	2	Rpleas_acq	CS_A	CPPC	LWWL	ZHHZ	JQQJ	YFFY	DXXD	küssen	träumen	genießen	vertrauen	gütig	sonnig	krank	töten	gemein	versagen	gierig	sterben	47pct	acq_USpleas_CSpleas2_noRW	acq1_noRW	1	78	0	0	300	300	517	50	0	1	1	blank2r.bmp	0	1	+	0	1	blank2r.bmp	252	1	LWWL	306	3	sonnig	559	0	0	0	0	0	0	0	0	0	0	0	0	0	0	0	0	0	0	0	0	0	0	0	0	0	0	0	0	0	0	0	0	0	0	0	0	0	0	0
070319	09:41:19	09:44:48	206515	5.0.10.0	5_exp_noRW	2	Rpleas_acq	CS_A	CPPC	LWWL	ZHHZ	JQQJ	YFFY	DXXD	küssen	träumen	genießen	vertrauen	gütig	sonnig	krank	töten	gemein	versagen	gierig	sterben	47pct	acq_USunple_CSunple2_noRW	acq1_noRW	1	79	0	0	300	300	600	46	0	1	1	blank2r.bmp	0	1	+	0	1	blank2r.bmp	252	1	JQQJ	306	1	versagen	559	0	0	0	0	0	0	0	0	0	0	0	0	0	0	0	0	0	0	0	0	0	0	0	0	0	0	0	0	0	0	0	0	0	0	0	0	0	0	0
070319	09:41:19	09:44:50	208381	5.0.10.0	5_exp_noRW	2	Rpleas_acq	CS_A	CPPC	LWWL	ZHHZ	JQQJ	YFFY	DXXD	küssen	träumen	genießen	vertrauen	gütig	sonnig	krank	töten	gemein	versagen	gierig	sterben	53pct	acq_USpleas_CSpleas2_noRW	acq1_noRW	1	80	0	0	300	300	489	46	0	0	1	blank2r.bmp	0	1	+	0	1	blank2r.bmp	252	1	LWWL	306	1	vertrauen	559	1	FEHLER	1079	0	0	0	0	0	0	0	0	0	0	0	0	0	0	0	0	0	0	0	0	0	0	0	0	0	0	0	0	0	0	0	0	0	0	0	0
070319	09:41:19	09:45:01	220016	5.0.10.0	5_exp_noRW	2	Rpleas_acq	CS_A	CPPC	LWWL	ZHHZ	JQQJ	YFFY	DXXD	küssen	träumen	genießen	vertrauen	gütig	sonnig	krank	töten	gemein	versagen	gierig	sterben	47pct	acq_USpleas_CSpleas2_noRW	acq23456_noRW	2	1	0	0	300	300	816	50	0	1	1	blank2r.bmp	0	1	+	0	1	blank2r.bmp	252	1	LWWL	306	3	sonnig	559	0	0	0	0	0	0	0	0	0	0	0	0	0	0	0	0	0	0	0	0	0	0	0	0	0	0	0	0	0	0	0	0	0	0	0	0	0	0	0
070319	09:41:19	09:45:03	221549	5.0.10.0	5_exp_noRW	2	Rpleas_acq	CS_A	CPPC	LWWL	ZHHZ	JQQJ	YFFY	DXXD	küssen	träumen	genießen	vertrauen	gütig	sonnig	krank	töten	gemein	versagen	gierig	sterben	47pct	acq_USunple_CSunple2_noRW	acq23456_noRW	2	2	0	0	300	300	347	46	0	1	1	blank2r.bmp	0	1	+	0	1	blank2r.bmp	252	1	JQQJ	306	3	sterben	559	0	0	0	0	0	0	0	0	0	0	0	0	0	0	0	0	0	0	0	0	0	0	0	0	0	0	0	0	0	0	0	0	0	0	0	0	0	0	0
070319	09:41:19	09:45:04	223161	5.0.10.0	5_exp_noRW	2	Rpleas_acq	CS_A	CPPC	LWWL	ZHHZ	JQQJ	YFFY	DXXD	küssen	träumen	genießen	vertrauen	gütig	sonnig	krank	töten	gemein	versagen	gierig	sterben	47pct	acq_USunple_CSpleas1_noRW	acq23456_noRW	2	3	0	0	300	300	425	46	0	1	1	blank2r.bmp	0	1	+	0	1	blank2r.bmp	252	1	CPPC	306	1	krank	559	0	0	0	0	0	0	0	0	0	0	0	0	0	0	0	0	0	0	0	0	0	0	0	0	0	0	0	0	0	0	0	0	0	0	0	0	0	0	0
070319	09:41:19	09:45:06	224774	5.0.10.0	5_exp_noRW	2	Rpleas_acq	CS_A	CPPC	LWWL	ZHHZ	JQQJ	YFFY	DXXD	küssen	träumen	genießen	vertrauen	gütig	sonnig	krank	töten	gemein	versagen	gierig	sterben	53pct	acq_USpleas_CSunple1_noRW	acq23456_noRW	2	4	0	0	300	300	442	50	0	1	1	blank2r.bmp	0	1	+	0	1	blank2r.bmp	252	1	ZHHZ	306	3	genießen	559	0	0	0	0	0	0	0	0	0	0	0	0	0	0	0	0	0	0	0	0	0	0	0	0	0	0	0	0	0	0	0	0	0	0	0	0	0	0	0
070319	09:41:19	09:45:08	226760	5.0.10.0	5_exp_noRW	2	Rpleas_acq	CS_A	CPPC	LWWL	ZHHZ	JQQJ	YFFY	DXXD	küssen	träumen	genießen	vertrauen	gütig	sonnig	krank	töten	gemein	versagen	gierig	sterben	47pct	acq_USunple_CSunple2_noRW	acq23456_noRW	2	5	0	0	300	300	808	46	0	1	1	blank2r.bmp	0	1	+	0	1	blank2r.bmp	252	1	JQQJ	306	2	gierig	559	0	0	0	0	0	0	0	0	0	0	0	0	0	0	0	0	0	0	0	0	0	0	0	0	0	0	0	0	0	0	0	0	0	0	0	0	0	0	0
070319	09:41:19	09:45:10	228333	5.0.10.0	5_exp_noRW	2	Rpleas_acq	CS_A	CPPC	LWWL	ZHHZ	JQQJ	YFFY	DXXD	küssen	träumen	genießen	vertrauen	gütig	sonnig	krank	töten	gemein	versagen	gierig	sterben	53pct	acq_USpleas_CSpleas1_noRW	acq23456_noRW	2	6	0	0	300	300	398	50	0	1	1	blank2r.bmp	0	1	+	0	1	blank2r.bmp	252	1	CPPC	306	2	träumen	559	0	0	0	0	0	0	0	0	0	0	0	0	0	0	0	0	0	0	0	0	0	0	0	0	0	0	0	0	0	0	0	0	0	0	0	0	0	0	0
070319	09:41:19	09:45:11	229839	5.0.10.0	5_exp_noRW	2	Rpleas_acq	CS_A	CPPC	LWWL	ZHHZ	JQQJ	YFFY	DXXD	küssen	träumen	genießen	vertrauen	gütig	sonnig	krank	töten	gemein	versagen	gierig	sterben	47pct	acq_USunple_CSunple2_noRW	acq23456_noRW	2	7	0	0	300	300	325	46	0	1	1	blank2r.bmp	0	1	+	0	1	blank2r.bmp	252	1	JQQJ	306	1	versagen	559	0	0	0	0	0	0	0	0	0	0	0	0	0	0	0	0	0	0	0	0	0	0	0	0	0	0	0	0	0	0	0	0	0	0	0	0	0	0	0
070319	09:41:19	09:45:13	231398	5.0.10.0	5_exp_noRW	2	Rpleas_acq	CS_A	CPPC	LWWL	ZHHZ	JQQJ	YFFY	DXXD	küssen	träumen	genießen	vertrauen	gütig	sonnig	krank	töten	gemein	versagen	gierig	sterben	47pct	acq_USunple_CSunple1_noRW	acq23456_noRW	2	8	0	0	300	300	389	46	0	1	1	blank2r.bmp	0	1	+	0	1	blank2r.bmp	252	1	ZHHZ	306	2	töten	559	0	0	0	0	0	0	0	0	0	0	0	0	0	0	0	0	0	0	0	0	0	0	0	0	0	0	0	0	0	0	0	0	0	0	0	0	0	0	0
070319	09:41:19	09:45:14	232931	5.0.10.0	5_exp_noRW	2	Rpleas_acq	CS_A	CPPC	LWWL	ZHHZ	JQQJ	YFFY	DXXD	küssen	träumen	genießen	vertrauen	gütig	sonnig	krank	töten	gemein	versagen	gierig	sterben	47pct	acq_USpleas_CSpleas2_noRW	acq23456_noRW	2	9	0	0	300	300	371	50	0	1	1	blank2r.bmp	0	1	+	0	1	blank2r.bmp	252	1	LWWL	306	2	gütig	559	0	0	0	0	0	0	0	0	0	0	0	0	0	0	0	0	0	0	0	0	0	0	0	0	0	0	0	0	0	0	0	0	0	0	0	0	0	0	0
070319	09:41:19	09:45:16	234597	5.0.10.0	5_exp_noRW	2	Rpleas_acq	CS_A	CPPC	LWWL	ZHHZ	JQQJ	YFFY	DXXD	küssen	träumen	genießen	vertrauen	gütig	sonnig	krank	töten	gemein	versagen	gierig	sterben	47pct	acq_USpleas_CSpleas1_noRW	acq23456_noRW	2	10	0	0	300	300	478	50	0	1	1	blank2r.bmp	0	1	+	0	1	blank2r.bmp	252	1	CPPC	306	1	küssen	559	0	0	0	0	0	0	0	0	0	0	0	0	0	0	0	0	0	0	0	0	0	0	0	0	0	0	0	0	0	0	0	0	0	0	0	0	0	0	0
070319	09:41:19	09:45:18	236196	5.0.10.0	5_exp_noRW	2	Rpleas_acq	CS_A	CPPC	LWWL	ZHHZ	JQQJ	YFFY	DXXD	küssen	träumen	genießen	vertrauen	gütig	sonnig	krank	töten	gemein	versagen	gierig	sterben	53pct	acq_USpleas_CSpleas2_noRW	acq23456_noRW	2	11	0	0	300	300	437	50	0	1	1	blank2r.bmp	0	1	+	0	1	blank2r.bmp	252	1	LWWL	306	2	gütig	559	0	0	0	0	0	0	0	0	0	0	0	0	0	0	0	0	0	0	0	0	0	0	0	0	0	0	0	0	0	0	0	0	0	0	0	0	0	0	0
070319	09:41:19	09:45:19	237769	5.0.10.0	5_exp_noRW	2	Rpleas_acq	CS_A	CPPC	LWWL	ZHHZ	JQQJ	YFFY	DXXD	küssen	träumen	genießen	vertrauen	gütig	sonnig	krank	töten	gemein	versagen	gierig	sterben	53pct	acq_USunple_CSpleas2_noRW	acq23456_noRW	2	12	0	0	300	300	396	46	0	1	1	blank2r.bmp	0	1	+	0	1	blank2r.bmp	252	1	LWWL	306	3	sterben	559	0	0	0	0	0	0	0	0	0	0	0	0	0	0	0	0	0	0	0	0	0	0	0	0	0	0	0	0	0	0	0	0	0	0	0	0	0	0	0
070319	09:41:19	09:45:21	239395	5.0.10.0	5_exp_noRW	2	Rpleas_acq	CS_A	CPPC	LWWL	ZHHZ	JQQJ	YFFY	DXXD	küssen	träumen	genießen	vertrauen	gütig	sonnig	krank	töten	gemein	versagen	gierig	sterben	47pct	acq_USpleas_CSunple2_noRW	acq23456_noRW	2	13	0	0	300	300	439	50	0	1	1	blank2r.bmp	0	1	+	0	1	blank2r.bmp	252	1	JQQJ	306	1	vertrauen	559	0	0	0	0	0	0	0	0	0	0	0	0	0	0	0	0	0	0	0	0	0	0	0	0	0	0	0	0	0	0	0	0	0	0	0	0	0	0	0
070319	09:41:19	09:45:23	241221	5.0.10.0	5_exp_noRW	2	Rpleas_acq	CS_A	CPPC	LWWL	ZHHZ	JQQJ	YFFY	DXXD	küssen	träumen	genießen	vertrauen	gütig	sonnig	krank	töten	gemein	versagen	gierig	sterben	53pct	acq_USunple_CSunple2_noRW	acq23456_noRW	2	14	0	0	300	300	645	46	0	1	1	blank2r.bmp	0	1	+	0	1	blank2r.bmp	252	1	JQQJ	306	2	gierig	559	0	0	0	0	0	0	0	0	0	0	0	0	0	0	0	0	0	0	0	0	0	0	0	0	0	0	0	0	0	0	0	0	0	0	0	0	0	0	0
070319	09:41:19	09:45:24	242727	5.0.10.0	5_exp_noRW	2	Rpleas_acq	CS_A	CPPC	LWWL	ZHHZ	JQQJ	YFFY	DXXD	küssen	träumen	genießen	vertrauen	gütig	sonnig	krank	töten	gemein	versagen	gierig	sterben	47pct	acq_USpleas_CSpleas2_noRW	acq23456_noRW	2	15	0	0	300	300	329	50	0	1	1	blank2r.bmp	0	1	+	0	1	blank2r.bmp	252	1	LWWL	306	3	sonnig	559	0	0	0	0	0	0	0	0	0	0	0	0	0	0	0	0	0	0	0	0	0	0	0	0	0	0	0	0	0	0	0	0	0	0	0	0	0	0	0
070319	09:41:19	09:45:26	244233	5.0.10.0	5_exp_noRW	2	Rpleas_acq	CS_A	CPPC	LWWL	ZHHZ	JQQJ	YFFY	DXXD	küssen	träumen	genießen	vertrauen	gütig	sonnig	krank	töten	gemein	versagen	gierig	sterben	53pct	acq_USunple_CSunple1_noRW	acq23456_noRW	2	16	0	0	300	300	327	46	0	1	1	blank2r.bmp	0	1	+	0	1	blank2r.bmp	252	1	ZHHZ	306	1	krank	559	0	0	0	0	0	0	0	0	0	0	0	0	0	0	0	0	0	0	0	0	0	0	0	0	0	0	0	0	0	0	0	0	0	0	0	0	0	0	0
070319	09:41:19	09:45:27	245819	5.0.10.0	5_exp_noRW	2	Rpleas_acq	CS_A	CPPC	LWWL	ZHHZ	JQQJ	YFFY	DXXD	küssen	träumen	genießen	vertrauen	gütig	sonnig	krank	töten	gemein	versagen	gierig	sterben	53pct	acq_USpleas_CSpleas1_noRW	acq23456_noRW	2	17	0	0	300	300	420	50	0	1	1	blank2r.bmp	0	1	+	0	1	blank2r.bmp	252	1	CPPC	306	1	küssen	559	0	0	0	0	0	0	0	0	0	0	0	0	0	0	0	0	0	0	0	0	0	0	0	0	0	0	0	0	0	0	0	0	0	0	0	0	0	0	0
070319	09:41:19	09:45:29	247365	5.0.10.0	5_exp_noRW	2	Rpleas_acq	CS_A	CPPC	LWWL	ZHHZ	JQQJ	YFFY	DXXD	küssen	träumen	genießen	vertrauen	gütig	sonnig	krank	töten	gemein	versagen	gierig	sterben	53pct	acq_USunple_CSunple1_noRW	acq23456_noRW	2	18	0	0	300	300	368	46	0	1	1	blank2r.bmp	0	1	+	0	1	blank2r.bmp	252	1	ZHHZ	306	1	krank	559	0	0	0	0	0	0	0	0	0	0	0	0	0	0	0	0	0	0	0	0	0	0	0	0	0	0	0	0	0	0	0	0	0	0	0	0	0	0	0
070319	09:41:19	09:45:31	250017	5.0.10.0	5_exp_noRW	2	Rpleas_acq	CS_A	CPPC	LWWL	ZHHZ	JQQJ	YFFY	DXXD	küssen	träumen	genießen	vertrauen	gütig	sonnig	krank	töten	gemein	versagen	gierig	sterben	53pct	acq_USunple_CSunple1_noRW	acq23456_noRW	2	19	0	0	300	300	1466	46	0	1	1	blank2r.bmp	0	1	+	0	1	blank2r.bmp	252	1	ZHHZ	306	2	töten	559	0	0	0	0	0	0	0	0	0	0	0	0	0	0	0	0	0	0	0	0	0	0	0	0	0	0	0	0	0	0	0	0	0	0	0	0	0	0	0
070319	09:41:19	09:45:33	251643	5.0.10.0	5_exp_noRW	2	Rpleas_acq	CS_A	CPPC	LWWL	ZHHZ	JQQJ	YFFY	DXXD	küssen	träumen	genießen	vertrauen	gütig	sonnig	krank	töten	gemein	versagen	gierig	sterben	53pct	acq_USpleas_CSpleas1_noRW	acq23456_noRW	2	20	0	0	300	300	450	50	0	1	1	blank2r.bmp	0	1	+	0	1	blank2r.bmp	252	1	CPPC	306	2	träumen	559	0	0	0	0	0	0	0	0	0	0	0	0	0	0	0	0	0	0	0	0	0	0	0	0	0	0	0	0	0	0	0	0	0	0	0	0	0	0	0
070319	09:41:19	09:45:35	253256	5.0.10.0	5_exp_noRW	2	Rpleas_acq	CS_A	CPPC	LWWL	ZHHZ	JQQJ	YFFY	DXXD	küssen	träumen	genießen	vertrauen	gütig	sonnig	krank	töten	gemein	versagen	gierig	sterben	53pct	acq_USunple_CSunple2_noRW	acq23456_noRW	2	21	0	0	300	300	439	46	0	1	1	blank2r.bmp	0	1	+	0	1	blank2r.bmp	252	1	JQQJ	306	3	sterben	559	0	0	0	0	0	0	0	0	0	0	0	0	0	0	0	0	0	0	0	0	0	0	0	0	0	0	0	0	0	0	0	0	0	0	0	0	0	0	0
070319	09:41:19	09:45:36	254762	5.0.10.0	5_exp_noRW	2	Rpleas_acq	CS_A	CPPC	LWWL	ZHHZ	JQQJ	YFFY	DXXD	küssen	träumen	genießen	vertrauen	gütig	sonnig	krank	töten	gemein	versagen	gierig	sterben	53pct	acq_USpleas_CSunple2_noRW	acq23456_noRW	2	22	0	0	300	300	333	50	0	1	1	blank2r.bmp	0	1	+	0	1	blank2r.bmp	252	1	JQQJ	306	3	sonnig	559	0	0	0	0	0	0	0	0	0	0	0	0	0	0	0	0	0	0	0	0	0	0	0	0	0	0	0	0	0	0	0	0	0	0	0	0	0	0	0
070319	09:41:19	09:45:38	256601	5.0.10.0	5_exp_noRW	2	Rpleas_acq	CS_A	CPPC	LWWL	ZHHZ	JQQJ	YFFY	DXXD	küssen	träumen	genießen	vertrauen	gütig	sonnig	krank	töten	gemein	versagen	gierig	sterben	47pct	acq_USpleas_CSpleas2_noRW	acq23456_noRW	2	23	0	0	300	300	442	46	0	0	1	blank2r.bmp	0	1	+	0	1	blank2r.bmp	252	1	LWWL	306	1	vertrauen	559	1	FEHLER	1039	0	0	0	0	0	0	0	0	0	0	0	0	0	0	0	0	0	0	0	0	0	0	0	0	0	0	0	0	0	0	0	0	0	0	0	0
070319	09:41:19	09:45:41	260080	5.0.10.0	5_exp_noRW	2	Rpleas_acq	CS_A	CPPC	LWWL	ZHHZ	JQQJ	YFFY	DXXD	küssen	träumen	genießen	vertrauen	gütig	sonnig	krank	töten	gemein	versagen	gierig	sterben	47pct	acq_USunple_CSunple2_noRW	acq23456_noRW	2	24	0	0	300	300	2000	0	0	0	1	blank2r.bmp	0	1	+	0	1	blank2r.bmp	252	1	JQQJ	306	3	sterben	559	1	FEHLER	2598	1	Schneller!	2598	0	0	0	0	0	0	0	0	0	0	0	0	0	0	0	0	0	0	0	0	0	0	0	0	0	0	0	0	0	0	0	0	0
070319	09:41:19	09:45:43	261759	5.0.10.0	5_exp_noRW	2	Rpleas_acq	CS_A	CPPC	LWWL	ZHHZ	JQQJ	YFFY	DXXD	küssen	träumen	genießen	vertrauen	gütig	sonnig	krank	töten	gemein	versagen	gierig	sterben	53pct	acq_USunple_CSunple1_noRW	acq23456_noRW	2	25	0	0	300	300	569	50	0	0	1	blank2r.bmp	0	1	+	0	1	blank2r.bmp	252	1	ZHHZ	306	3	gemein	559	1	FEHLER	1159	0	0	0	0	0	0	0	0	0	0	0	0	0	0	0	0	0	0	0	0	0	0	0	0	0	0	0	0	0	0	0	0	0	0	0	0
070319	09:41:19	09:45:45	263278	5.0.10.0	5_exp_noRW	2	Rpleas_acq	CS_A	CPPC	LWWL	ZHHZ	JQQJ	YFFY	DXXD	küssen	träumen	genießen	vertrauen	gütig	sonnig	krank	töten	gemein	versagen	gierig	sterben	47pct	acq_USpleas_CSpleas1_noRW	acq23456_noRW	2	26	0	0	300	300	549	50	0	1	1	blank2r.bmp	0	1	+	0	1	blank2r.bmp	252	1	CPPC	306	3	genießen	559	0	0	0	0	0	0	0	0	0	0	0	0	0	0	0	0	0	0	0	0	0	0	0	0	0	0	0	0	0	0	0	0	0	0	0	0	0	0	0
070319	09:41:19	09:45:46	264878	5.0.10.0	5_exp_noRW	2	Rpleas_acq	CS_A	CPPC	LWWL	ZHHZ	JQQJ	YFFY	DXXD	küssen	träumen	genießen	vertrauen	gütig	sonnig	krank	töten	gemein	versagen	gierig	sterben	53pct	acq_USunple_CSunple1_noRW	acq23456_noRW	2	27	0	0	300	300	425	46	0	1	1	blank2r.bmp	0	1	+	0	1	blank2r.bmp	252	1	ZHHZ	306	1	krank	559	0	0	0	0	0	0	0	0	0	0	0	0	0	0	0	0	0	0	0	0	0	0	0	0	0	0	0	0	0	0	0	0	0	0	0	0	0	0	0
070319	09:41:19	09:45:48	266344	5.0.10.0	5_exp_noRW	2	Rpleas_acq	CS_A	CPPC	LWWL	ZHHZ	JQQJ	YFFY	DXXD	küssen	träumen	genießen	vertrauen	gütig	sonnig	krank	töten	gemein	versagen	gierig	sterben	53pct	acq_USpleas_CSunple1_noRW	acq23456_noRW	2	28	0	0	300	300	287	50	0	1	1	blank2r.bmp	0	1	+	0	1	blank2r.bmp	252	1	ZHHZ	306	2	träumen	559	0	0	0	0	0	0	0	0	0	0	0	0	0	0	0	0	0	0	0	0	0	0	0	0	0	0	0	0	0	0	0	0	0	0	0	0	0	0	0
070319	09:41:19	09:45:50	268223	5.0.10.0	5_exp_noRW	2	Rpleas_acq	CS_A	CPPC	LWWL	ZHHZ	JQQJ	YFFY	DXXD	küssen	träumen	genießen	vertrauen	gütig	sonnig	krank	töten	gemein	versagen	gierig	sterben	53pct	acq_USunple_CSpleas1_noRW	acq23456_noRW	2	29	0	0	300	300	479	50	0	0	1	blank2r.bmp	0	1	+	0	1	blank2r.bmp	252	1	CPPC	306	3	gemein	559	1	FEHLER	1079	0	0	0	0	0	0	0	0	0	0	0	0	0	0	0	0	0	0	0	0	0	0	0	0	0	0	0	0	0	0	0	0	0	0	0	0
070319	09:41:19	09:45:51	269582	5.0.10.0	5_exp_noRW	2	Rpleas_acq	CS_A	CPPC	LWWL	ZHHZ	JQQJ	YFFY	DXXD	küssen	träumen	genießen	vertrauen	gütig	sonnig	krank	töten	gemein	versagen	gierig	sterben	53pct	acq_USpleas_CSpleas2_noRW	acq23456_noRW	2	30	0	0	300	300	402	50	0	1	1	blank2r.bmp	0	1	+	0	1	blank2r.bmp	252	1	LWWL	306	2	gütig	559	0	0	0	0	0	0	0	0	0	0	0	0	0	0	0	0	0	0	0	0	0	0	0	0	0	0	0	0	0	0	0	0	0	0	0	0	0	0	0
070319	09:41:19	09:45:52	271168	5.0.10.0	5_exp_noRW	2	Rpleas_acq	CS_A	CPPC	LWWL	ZHHZ	JQQJ	YFFY	DXXD	küssen	träumen	genießen	vertrauen	gütig	sonnig	krank	töten	gemein	versagen	gierig	sterben	47pct	acq_USpleas_CSpleas1_noRW	acq23456_noRW	2	31	0	0	300	300	413	50	0	1	1	blank2r.bmp	0	1	+	0	1	blank2r.bmp	252	1	CPPC	306	2	träumen	559	0	0	0	0	0	0	0	0	0	0	0	0	0	0	0	0	0	0	0	0	0	0	0	0	0	0	0	0	0	0	0	0	0	0	0	0	0	0	0
070319	09:41:19	09:45:54	273061	5.0.10.0	5_exp_noRW	2	Rpleas_acq	CS_A	CPPC	LWWL	ZHHZ	JQQJ	YFFY	DXXD	küssen	träumen	genießen	vertrauen	gütig	sonnig	krank	töten	gemein	versagen	gierig	sterben	47pct	acq_USunple_CSunple2_noRW	acq23456_noRW	2	32	0	0	300	300	731	46	0	1	1	blank2r.bmp	0	1	+	0	1	blank2r.bmp	252	1	JQQJ	306	2	gierig	559	0	0	0	0	0	0	0	0	0	0	0	0	0	0	0	0	0	0	0	0	0	0	0	0	0	0	0	0	0	0	0	0	0	0	0	0	0	0	0
070319	09:41:19	09:45:56	274567	5.0.10.0	5_exp_noRW	2	Rpleas_acq	CS_A	CPPC	LWWL	ZHHZ	JQQJ	YFFY	DXXD	küssen	träumen	genießen	vertrauen	gütig	sonnig	krank	töten	gemein	versagen	gierig	sterben	53pct	acq_USpleas_CSpleas2_noRW	acq23456_noRW	2	33	0	0	300	300	336	50	0	1	1	blank2r.bmp	0	1	+	0	1	blank2r.bmp	252	1	LWWL	306	3	sonnig	559	0	0	0	0	0	0	0	0	0	0	0	0	0	0	0	0	0	0	0	0	0	0	0	0	0	0	0	0	0	0	0	0	0	0	0	0	0	0	0
070319	09:41:19	09:45:58	276286	5.0.10.0	5_exp_noRW	2	Rpleas_acq	CS_A	CPPC	LWWL	ZHHZ	JQQJ	YFFY	DXXD	küssen	träumen	genießen	vertrauen	gütig	sonnig	krank	töten	gemein	versagen	gierig	sterben	47pct	acq_USpleas_CSpleas1_noRW	acq23456_noRW	2	34	0	0	300	300	552	50	0	1	1	blank2r.bmp	0	1	+	0	1	blank2r.bmp	252	1	CPPC	306	3	genießen	559	0	0	0	0	0	0	0	0	0	0	0	0	0	0	0	0	0	0	0	0	0	0	0	0	0	0	0	0	0	0	0	0	0	0	0	0	0	0	0
070319	09:41:19	09:45:59	278086	5.0.10.0	5_exp_noRW	2	Rpleas_acq	CS_A	CPPC	LWWL	ZHHZ	JQQJ	YFFY	DXXD	küssen	träumen	genießen	vertrauen	gütig	sonnig	krank	töten	gemein	versagen	gierig	sterben	53pct	acq_USunple_CSunple1_noRW	acq23456_noRW	2	35	0	0	300	300	616	46	0	1	1	blank2r.bmp	0	1	+	0	1	blank2r.bmp	252	1	ZHHZ	306	3	gemein	559	0	0	0	0	0	0	0	0	0	0	0	0	0	0	0	0	0	0	0	0	0	0	0	0	0	0	0	0	0	0	0	0	0	0	0	0	0	0	0
070319	09:41:19	09:46:01	279672	5.0.10.0	5_exp_noRW	2	Rpleas_acq	CS_A	CPPC	LWWL	ZHHZ	JQQJ	YFFY	DXXD	küssen	träumen	genießen	vertrauen	gütig	sonnig	krank	töten	gemein	versagen	gierig	sterben	47pct	acq_USpleas_CSpleas2_noRW	acq23456_noRW	2	36	0	0	300	300	418	50	0	1	1	blank2r.bmp	0	1	+	0	1	blank2r.bmp	252	1	LWWL	306	1	vertrauen	559	0	0	0	0	0	0	0	0	0	0	0	0	0	0	0	0	0	0	0	0	0	0	0	0	0	0	0	0	0	0	0	0	0	0	0	0	0	0	0
070319	09:41:19	09:46:03	281231	5.0.10.0	5_exp_noRW	2	Rpleas_acq	CS_A	CPPC	LWWL	ZHHZ	JQQJ	YFFY	DXXD	küssen	träumen	genießen	vertrauen	gütig	sonnig	krank	töten	gemein	versagen	gierig	sterben	47pct	acq_USpleas_CSpleas1_noRW	acq23456_noRW	2	37	0	0	300	300	380	50	0	1	1	blank2r.bmp	0	1	+	0	1	blank2r.bmp	252	1	CPPC	306	1	küssen	559	0	0	0	0	0	0	0	0	0	0	0	0	0	0	0	0	0	0	0	0	0	0	0	0	0	0	0	0	0	0	0	0	0	0	0	0	0	0	0
070319	09:41:19	09:46:04	282817	5.0.10.0	5_exp_noRW	2	Rpleas_acq	CS_A	CPPC	LWWL	ZHHZ	JQQJ	YFFY	DXXD	küssen	träumen	genießen	vertrauen	gütig	sonnig	krank	töten	gemein	versagen	gierig	sterben	53pct	acq_USunple_CSunple1_noRW	acq23456_noRW	2	38	0	0	300	300	406	46	0	1	1	blank2r.bmp	0	1	+	0	1	blank2r.bmp	252	1	ZHHZ	306	2	töten	559	0	0	0	0	0	0	0	0	0	0	0	0	0	0	0	0	0	0	0	0	0	0	0	0	0	0	0	0	0	0	0	0	0	0	0	0	0	0	0
070319	09:41:19	09:46:06	284696	5.0.10.0	5_exp_noRW	2	Rpleas_acq	CS_A	CPPC	LWWL	ZHHZ	JQQJ	YFFY	DXXD	küssen	träumen	genießen	vertrauen	gütig	sonnig	krank	töten	gemein	versagen	gierig	sterben	47pct	acq_USunple_CSunple2_noRW	acq23456_noRW	2	39	0	0	300	300	716	46	0	1	1	blank2r.bmp	0	1	+	0	1	blank2r.bmp	252	1	JQQJ	306	1	versagen	559	0	0	0	0	0	0	0	0	0	0	0	0	0	0	0	0	0	0	0	0	0	0	0	0	0	0	0	0	0	0	0	0	0	0	0	0	0	0	0
070319	09:41:19	09:46:08	286402	5.0.10.0	5_exp_noRW	2	Rpleas_acq	CS_A	CPPC	LWWL	ZHHZ	JQQJ	YFFY	DXXD	küssen	träumen	genießen	vertrauen	gütig	sonnig	krank	töten	gemein	versagen	gierig	sterben	47pct	acq_USunple_CSpleas2_noRW	acq23456_noRW	2	40	0	0	300	300	520	46	0	1	1	blank2r.bmp	0	1	+	0	1	blank2r.bmp	252	1	LWWL	306	2	gierig	559	0	0	0	0	0	0	0	0	0	0	0	0	0	0	0	0	0	0	0	0	0	0	0	0	0	0	0	0	0	0	0	0	0	0	0	0	0	0	0
070319	09:41:19	09:46:09	288055	5.0.10.0	5_exp_noRW	2	Rpleas_acq	CS_A	CPPC	LWWL	ZHHZ	JQQJ	YFFY	DXXD	küssen	träumen	genießen	vertrauen	gütig	sonnig	krank	töten	gemein	versagen	gierig	sterben	53pct	acq_USunple_CSunple1_noRW	acq23456_noRW	2	41	0	0	300	300	275	50	0	0	1	blank2r.bmp	0	1	+	0	1	blank2r.bmp	252	1	ZHHZ	306	3	gemein	559	1	FEHLER	866	0	0	0	0	0	0	0	0	0	0	0	0	0	0	0	0	0	0	0	0	0	0	0	0	0	0	0	0	0	0	0	0	0	0	0	0
070319	09:41:19	09:46:11	289654	5.0.10.0	5_exp_noRW	2	Rpleas_acq	CS_A	CPPC	LWWL	ZHHZ	JQQJ	YFFY	DXXD	küssen	träumen	genießen	vertrauen	gütig	sonnig	krank	töten	gemein	versagen	gierig	sterben	47pct	acq_USpleas_CSpleas1_noRW	acq23456_noRW	2	42	0	0	300	300	626	50	0	1	1	blank2r.bmp	0	1	+	0	1	blank2r.bmp	252	1	CPPC	306	2	träumen	559	0	0	0	0	0	0	0	0	0	0	0	0	0	0	0	0	0	0	0	0	0	0	0	0	0	0	0	0	0	0	0	0	0	0	0	0	0	0	0
070319	09:41:19	09:46:13	291213	5.0.10.0	5_exp_noRW	2	Rpleas_acq	CS_A	CPPC	LWWL	ZHHZ	JQQJ	YFFY	DXXD	küssen	träumen	genießen	vertrauen	gütig	sonnig	krank	töten	gemein	versagen	gierig	sterben	47pct	acq_USunple_CSunple2_noRW	acq23456_noRW	2	43	0	0	300	300	392	46	0	1	1	blank2r.bmp	0	1	+	0	1	blank2r.bmp	252	1	JQQJ	306	1	versagen	559	0	0	0	0	0	0	0	0	0	0	0	0	0	0	0	0	0	0	0	0	0	0	0	0	0	0	0	0	0	0	0	0	0	0	0	0	0	0	0
070319	09:41:19	09:46:14	292746	5.0.10.0	5_exp_noRW	2	Rpleas_acq	CS_A	CPPC	LWWL	ZHHZ	JQQJ	YFFY	DXXD	küssen	träumen	genießen	vertrauen	gütig	sonnig	krank	töten	gemein	versagen	gierig	sterben	47pct	acq_USunple_CSunple2_noRW	acq23456_noRW	2	44	0	0	300	300	346	46	0	1	1	blank2r.bmp	0	1	+	0	1	blank2r.bmp	252	1	JQQJ	306	3	sterben	559	0	0	0	0	0	0	0	0	0	0	0	0	0	0	0	0	0	0	0	0	0	0	0	0	0	0	0	0	0	0	0	0	0	0	0	0	0	0	0
070319	09:41:19	09:46:16	294279	5.0.10.0	5_exp_noRW	2	Rpleas_acq	CS_A	CPPC	LWWL	ZHHZ	JQQJ	YFFY	DXXD	küssen	träumen	genießen	vertrauen	gütig	sonnig	krank	töten	gemein	versagen	gierig	sterben	47pct	acq_USpleas_CSpleas2_noRW	acq23456_noRW	2	45	0	0	300	300	356	50	0	1	1	blank2r.bmp	0	1	+	0	1	blank2r.bmp	252	1	LWWL	306	2	gütig	559	0	0	0	0	0	0	0	0	0	0	0	0	0	0	0	0	0	0	0	0	0	0	0	0	0	0	0	0	0	0	0	0	0	0	0	0	0	0	0
070319	09:41:19	09:46:17	295865	5.0.10.0	5_exp_noRW	2	Rpleas_acq	CS_A	CPPC	LWWL	ZHHZ	JQQJ	YFFY	DXXD	küssen	träumen	genießen	vertrauen	gütig	sonnig	krank	töten	gemein	versagen	gierig	sterben	53pct	acq_USunple_CSunple1_noRW	acq23456_noRW	2	46	0	0	300	300	420	46	0	1	1	blank2r.bmp	0	1	+	0	1	blank2r.bmp	252	1	ZHHZ	306	1	krank	559	0	0	0	0	0	0	0	0	0	0	0	0	0	0	0	0	0	0	0	0	0	0	0	0	0	0	0	0	0	0	0	0	0	0	0	0	0	0	0
070319	09:41:19	09:46:19	297531	5.0.10.0	5_exp_noRW	2	Rpleas_acq	CS_A	CPPC	LWWL	ZHHZ	JQQJ	YFFY	DXXD	küssen	träumen	genießen	vertrauen	gütig	sonnig	krank	töten	gemein	versagen	gierig	sterben	47pct	acq_USunple_CSpleas1_noRW	acq23456_noRW	2	47	0	0	300	300	489	46	0	1	1	blank2r.bmp	0	1	+	0	1	blank2r.bmp	252	1	CPPC	306	1	krank	559	0	0	0	0	0	0	0	0	0	0	0	0	0	0	0	0	0	0	0	0	0	0	0	0	0	0	0	0	0	0	0	0	0	0	0	0	0	0	0
070319	09:41:19	09:46:20	299064	5.0.10.0	5_exp_noRW	2	Rpleas_acq	CS_A	CPPC	LWWL	ZHHZ	JQQJ	YFFY	DXXD	küssen	träumen	genießen	vertrauen	gütig	sonnig	krank	töten	gemein	versagen	gierig	sterben	47pct	acq_USpleas_CSpleas1_noRW	acq23456_noRW	2	48	0	0	300	300	346	50	0	1	1	blank2r.bmp	0	1	+	0	1	blank2r.bmp	252	1	CPPC	306	1	küssen	559	0	0	0	0	0	0	0	0	0	0	0	0	0	0	0	0	0	0	0	0	0	0	0	0	0	0	0	0	0	0	0	0	0	0	0	0	0	0	0
070319	09:41:19	09:46:22	300823	5.0.10.0	5_exp_noRW	2	Rpleas_acq	CS_A	CPPC	LWWL	ZHHZ	JQQJ	YFFY	DXXD	küssen	träumen	genießen	vertrauen	gütig	sonnig	krank	töten	gemein	versagen	gierig	sterben	47pct	acq_USunple_CSunple2_noRW	acq23456_noRW	2	49	0	0	300	300	577	46	0	1	1	blank2r.bmp	0	1	+	0	1	blank2r.bmp	252	1	JQQJ	306	2	gierig	559	0	0	0	0	0	0	0	0	0	0	0	0	0	0	0	0	0	0	0	0	0	0	0	0	0	0	0	0	0	0	0	0	0	0	0	0	0	0	0
070319	09:41:19	09:46:24	302569	5.0.10.0	5_exp_noRW	2	Rpleas_acq	CS_A	CPPC	LWWL	ZHHZ	JQQJ	YFFY	DXXD	küssen	träumen	genießen	vertrauen	gütig	sonnig	krank	töten	gemein	versagen	gierig	sterben	47pct	acq_USpleas_CSpleas1_noRW	acq23456_noRW	2	50	0	0	300	300	562	50	0	1	1	blank2r.bmp	0	1	+	0	1	blank2r.bmp	252	1	CPPC	306	3	genießen	559	0	0	0	0	0	0	0	0	0	0	0	0	0	0	0	0	0	0	0	0	0	0	0	0	0	0	0	0	0	0	0	0	0	0	0	0	0	0	0
070319	09:41:19	09:46:26	304275	5.0.10.0	5_exp_noRW	2	Rpleas_acq	CS_A	CPPC	LWWL	ZHHZ	JQQJ	YFFY	DXXD	küssen	träumen	genießen	vertrauen	gütig	sonnig	krank	töten	gemein	versagen	gierig	sterben	53pct	acq_USpleas_CSpleas1_noRW	acq23456_noRW	2	51	0	0	300	300	543	50	0	1	1	blank2r.bmp	0	1	+	0	1	blank2r.bmp	252	1	CPPC	306	2	träumen	559	0	0	0	0	0	0	0	0	0	0	0	0	0	0	0	0	0	0	0	0	0	0	0	0	0	0	0	0	0	0	0	0	0	0	0	0	0	0	0
070319	09:41:19	09:46:27	305861	5.0.10.0	5_exp_noRW	2	Rpleas_acq	CS_A	CPPC	LWWL	ZHHZ	JQQJ	YFFY	DXXD	küssen	träumen	genießen	vertrauen	gütig	sonnig	krank	töten	gemein	versagen	gierig	sterben	47pct	acq_USunple_CSpleas2_noRW	acq23456_noRW	2	52	0	0	300	300	407	46	0	1	1	blank2r.bmp	0	1	+	0	1	blank2r.bmp	252	1	LWWL	306	3	sterben	559	0	0	0	0	0	0	0	0	0	0	0	0	0	0	0	0	0	0	0	0	0	0	0	0	0	0	0	0	0	0	0	0	0	0	0	0	0	0	0
070319	09:41:19	09:46:29	307500	5.0.10.0	5_exp_noRW	2	Rpleas_acq	CS_A	CPPC	LWWL	ZHHZ	JQQJ	YFFY	DXXD	küssen	träumen	genießen	vertrauen	gütig	sonnig	krank	töten	gemein	versagen	gierig	sterben	47pct	acq_USpleas_CSunple1_noRW	acq23456_noRW	2	53	0	0	300	300	460	50	0	1	1	blank2r.bmp	0	1	+	0	1	blank2r.bmp	252	1	ZHHZ	306	2	träumen	559	0	0	0	0	0	0	0	0	0	0	0	0	0	0	0	0	0	0	0	0	0	0	0	0	0	0	0	0	0	0	0	0	0	0	0	0	0	0	0
070319	09:41:19	09:46:31	309499	5.0.10.0	5_exp_noRW	2	Rpleas_acq	CS_A	CPPC	LWWL	ZHHZ	JQQJ	YFFY	DXXD	küssen	träumen	genießen	vertrauen	gütig	sonnig	krank	töten	gemein	versagen	gierig	sterben	53pct	acq_USunple_CSunple1_noRW	acq23456_noRW	2	54	0	0	300	300	821	46	0	1	1	blank2r.bmp	0	1	+	0	1	blank2r.bmp	252	1	ZHHZ	306	2	töten	559	0	0	0	0	0	0	0	0	0	0	0	0	0	0	0	0	0	0	0	0	0	0	0	0	0	0	0	0	0	0	0	0	0	0	0	0	0	0	0
070319	09:41:19	09:46:32	311165	5.0.10.0	5_exp_noRW	2	Rpleas_acq	CS_A	CPPC	LWWL	ZHHZ	JQQJ	YFFY	DXXD	küssen	träumen	genießen	vertrauen	gütig	sonnig	krank	töten	gemein	versagen	gierig	sterben	53pct	acq_USpleas_CSpleas2_noRW	acq23456_noRW	2	55	0	0	300	300	490	50	0	1	1	blank2r.bmp	0	1	+	0	1	blank2r.bmp	252	1	LWWL	306	3	sonnig	559	0	0	0	0	0	0	0	0	0	0	0	0	0	0	0	0	0	0	0	0	0	0	0	0	0	0	0	0	0	0	0	0	0	0	0	0	0	0	0
070319	09:41:19	09:46:34	312965	5.0.10.0	5_exp_noRW	2	Rpleas_acq	CS_A	CPPC	LWWL	ZHHZ	JQQJ	YFFY	DXXD	küssen	träumen	genießen	vertrauen	gütig	sonnig	krank	töten	gemein	versagen	gierig	sterben	53pct	acq_USpleas_CSpleas2_noRW	acq23456_noRW	2	56	0	0	300	300	622	50	0	1	1	blank2r.bmp	0	1	+	0	1	blank2r.bmp	252	1	LWWL	306	1	vertrauen	559	0	0	0	0	0	0	0	0	0	0	0	0	0	0	0	0	0	0	0	0	0	0	0	0	0	0	0	0	0	0	0	0	0	0	0	0	0	0	0
070319	09:41:19	09:46:36	314551	5.0.10.0	5_exp_noRW	2	Rpleas_acq	CS_A	CPPC	LWWL	ZHHZ	JQQJ	YFFY	DXXD	küssen	träumen	genießen	vertrauen	gütig	sonnig	krank	töten	gemein	versagen	gierig	sterben	47pct	acq_USpleas_CSunple2_noRW	acq23456_noRW	2	57	0	0	300	300	401	50	0	1	1	blank2r.bmp	0	1	+	0	1	blank2r.bmp	252	1	JQQJ	306	2	gütig	559	0	0	0	0	0	0	0	0	0	0	0	0	0	0	0	0	0	0	0	0	0	0	0	0	0	0	0	0	0	0	0	0	0	0	0	0	0	0	0
070319	09:41:19	09:46:37	316203	5.0.10.0	5_exp_noRW	2	Rpleas_acq	CS_A	CPPC	LWWL	ZHHZ	JQQJ	YFFY	DXXD	küssen	träumen	genießen	vertrauen	gütig	sonnig	krank	töten	gemein	versagen	gierig	sterben	47pct	acq_USunple_CSunple1_noRW	acq23456_noRW	2	58	0	0	300	300	479	46	0	1	1	blank2r.bmp	0	1	+	0	1	blank2r.bmp	252	1	ZHHZ	306	1	krank	559	0	0	0	0	0	0	0	0	0	0	0	0	0	0	0	0	0	0	0	0	0	0	0	0	0	0	0	0	0	0	0	0	0	0	0	0	0	0	0
070319	09:41:19	09:46:40	318496	5.0.10.0	5_exp_noRW	2	Rpleas_acq	CS_A	CPPC	LWWL	ZHHZ	JQQJ	YFFY	DXXD	küssen	träumen	genießen	vertrauen	gütig	sonnig	krank	töten	gemein	versagen	gierig	sterben	47pct	acq_USunple_CSunple2_noRW	acq23456_noRW	2	59	0	0	300	300	916	50	0	0	1	blank2r.bmp	0	1	+	0	1	blank2r.bmp	252	1	JQQJ	306	2	gierig	559	1	FEHLER	1506	0	0	0	0	0	0	0	0	0	0	0	0	0	0	0	0	0	0	0	0	0	0	0	0	0	0	0	0	0	0	0	0	0	0	0	0
070319	09:41:19	09:46:41	319895	5.0.10.0	5_exp_noRW	2	Rpleas_acq	CS_A	CPPC	LWWL	ZHHZ	JQQJ	YFFY	DXXD	küssen	träumen	genießen	vertrauen	gütig	sonnig	krank	töten	gemein	versagen	gierig	sterben	53pct	acq_USpleas_CSpleas2_noRW	acq23456_noRW	2	60	0	0	300	300	432	50	0	1	1	blank2r.bmp	0	1	+	0	1	blank2r.bmp	252	1	LWWL	306	1	vertrauen	559	0	0	0	0	0	0	0	0	0	0	0	0	0	0	0	0	0	0	0	0	0	0	0	0	0	0	0	0	0	0	0	0	0	0	0	0	0	0	0
070319	09:41:19	09:46:43	321454	5.0.10.0	5_exp_noRW	2	Rpleas_acq	CS_A	CPPC	LWWL	ZHHZ	JQQJ	YFFY	DXXD	küssen	träumen	genießen	vertrauen	gütig	sonnig	krank	töten	gemein	versagen	gierig	sterben	47pct	acq_USpleas_CSpleas1_noRW	acq23456_noRW	2	61	0	0	300	300	398	50	0	1	1	blank2r.bmp	0	1	+	0	1	blank2r.bmp	252	1	CPPC	306	3	genießen	559	0	0	0	0	0	0	0	0	0	0	0	0	0	0	0	0	0	0	0	0	0	0	0	0	0	0	0	0	0	0	0	0	0	0	0	0	0	0	0
070319	09:41:19	09:46:44	323001	5.0.10.0	5_exp_noRW	2	Rpleas_acq	CS_A	CPPC	LWWL	ZHHZ	JQQJ	YFFY	DXXD	küssen	träumen	genießen	vertrauen	gütig	sonnig	krank	töten	gemein	versagen	gierig	sterben	53pct	acq_USpleas_CSpleas2_noRW	acq23456_noRW	2	62	0	0	300	300	369	50	0	1	1	blank2r.bmp	0	1	+	0	1	blank2r.bmp	252	1	LWWL	306	2	gütig	559	0	0	0	0	0	0	0	0	0	0	0	0	0	0	0	0	0	0	0	0	0	0	0	0	0	0	0	0	0	0	0	0	0	0	0	0	0	0	0
070319	09:41:19	09:46:46	324653	5.0.10.0	5_exp_noRW	2	Rpleas_acq	CS_A	CPPC	LWWL	ZHHZ	JQQJ	YFFY	DXXD	küssen	träumen	genießen	vertrauen	gütig	sonnig	krank	töten	gemein	versagen	gierig	sterben	47pct	acq_USpleas_CSunple1_noRW	acq23456_noRW	2	63	0	0	300	300	465	50	0	1	1	blank2r.bmp	0	1	+	0	1	blank2r.bmp	252	1	ZHHZ	306	1	küssen	559	0	0	0	0	0	0	0	0	0	0	0	0	0	0	0	0	0	0	0	0	0	0	0	0	0	0	0	0	0	0	0	0	0	0	0	0	0	0	0
070319	09:41:19	09:46:48	326252	5.0.10.0	5_exp_noRW	2	Rpleas_acq	CS_A	CPPC	LWWL	ZHHZ	JQQJ	YFFY	DXXD	küssen	träumen	genießen	vertrauen	gütig	sonnig	krank	töten	gemein	versagen	gierig	sterben	47pct	acq_USpleas_CSpleas2_noRW	acq23456_noRW	2	64	0	0	300	300	436	50	0	1	1	blank2r.bmp	0	1	+	0	1	blank2r.bmp	252	1	LWWL	306	3	sonnig	559	0	0	0	0	0	0	0	0	0	0	0	0	0	0	0	0	0	0	0	0	0	0	0	0	0	0	0	0	0	0	0	0	0	0	0	0	0	0	0
070319	09:41:19	09:46:49	327865	5.0.10.0	5_exp_noRW	2	Rpleas_acq	CS_A	CPPC	LWWL	ZHHZ	JQQJ	YFFY	DXXD	küssen	träumen	genießen	vertrauen	gütig	sonnig	krank	töten	gemein	versagen	gierig	sterben	47pct	acq_USunple_CSunple2_noRW	acq23456_noRW	2	65	0	0	300	300	429	46	0	1	1	blank2r.bmp	0	1	+	0	1	blank2r.bmp	252	1	JQQJ	306	3	sterben	559	0	0	0	0	0	0	0	0	0	0	0	0	0	0	0	0	0	0	0	0	0	0	0	0	0	0	0	0	0	0	0	0	0	0	0	0	0	0	0
070319	09:41:19	09:46:51	329345	5.0.10.0	5_exp_noRW	2	Rpleas_acq	CS_A	CPPC	LWWL	ZHHZ	JQQJ	YFFY	DXXD	küssen	träumen	genießen	vertrauen	gütig	sonnig	krank	töten	gemein	versagen	gierig	sterben	53pct	acq_USunple_CSunple1_noRW	acq23456_noRW	2	66	0	0	300	300	307	46	0	1	1	blank2r.bmp	0	1	+	0	1	blank2r.bmp	252	1	ZHHZ	306	2	töten	559	0	0	0	0	0	0	0	0	0	0	0	0	0	0	0	0	0	0	0	0	0	0	0	0	0	0	0	0	0	0	0	0	0	0	0	0	0	0	0
070319	09:41:19	09:46:52	330837	5.0.10.0	5_exp_noRW	2	Rpleas_acq	CS_A	CPPC	LWWL	ZHHZ	JQQJ	YFFY	DXXD	küssen	träumen	genießen	vertrauen	gütig	sonnig	krank	töten	gemein	versagen	gierig	sterben	47pct	acq_USunple_CSpleas1_noRW	acq23456_noRW	2	67	0	0	300	300	318	46	0	1	1	blank2r.bmp	0	1	+	0	1	blank2r.bmp	252	1	CPPC	306	2	töten	559	0	0	0	0	0	0	0	0	0	0	0	0	0	0	0	0	0	0	0	0	0	0	0	0	0	0	0	0	0	0	0	0	0	0	0	0	0	0	0
070319	09:41:19	09:46:54	332397	5.0.10.0	5_exp_noRW	2	Rpleas_acq	CS_A	CPPC	LWWL	ZHHZ	JQQJ	YFFY	DXXD	küssen	träumen	genießen	vertrauen	gütig	sonnig	krank	töten	gemein	versagen	gierig	sterben	53pct	acq_USunple_CSunple1_noRW	acq23456_noRW	2	68	0	0	300	300	373	46	0	1	1	blank2r.bmp	0	1	+	0	1	blank2r.bmp	252	1	ZHHZ	306	3	gemein	559	0	0	0	0	0	0	0	0	0	0	0	0	0	0	0	0	0	0	0	0	0	0	0	0	0	0	0	0	0	0	0	0	0	0	0	0	0	0	0
070319	09:41:19	09:46:55	333943	5.0.10.0	5_exp_noRW	2	Rpleas_acq	CS_A	CPPC	LWWL	ZHHZ	JQQJ	YFFY	DXXD	küssen	träumen	genießen	vertrauen	gütig	sonnig	krank	töten	gemein	versagen	gierig	sterben	47pct	acq_USpleas_CSpleas2_noRW	acq23456_noRW	2	69	0	0	300	300	376	50	0	1	1	blank2r.bmp	0	1	+	0	1	blank2r.bmp	252	1	LWWL	306	1	vertrauen	559	0	0	0	0	0	0	0	0	0	0	0	0	0	0	0	0	0	0	0	0	0	0	0	0	0	0	0	0	0	0	0	0	0	0	0	0	0	0	0
070319	09:41:19	09:46:57	335529	5.0.10.0	5_exp_noRW	2	Rpleas_acq	CS_A	CPPC	LWWL	ZHHZ	JQQJ	YFFY	DXXD	küssen	träumen	genießen	vertrauen	gütig	sonnig	krank	töten	gemein	versagen	gierig	sterben	47pct	acq_USpleas_CSpleas1_noRW	acq23456_noRW	2	70	0	0	300	300	410	50	0	1	1	blank2r.bmp	0	1	+	0	1	blank2r.bmp	252	1	CPPC	306	1	küssen	559	0	0	0	0	0	0	0	0	0	0	0	0	0	0	0	0	0	0	0	0	0	0	0	0	0	0	0	0	0	0	0	0	0	0	0	0	0	0	0
070319	09:41:19	09:46:58	337155	5.0.10.0	5_exp_noRW	2	Rpleas_acq	CS_A	CPPC	LWWL	ZHHZ	JQQJ	YFFY	DXXD	küssen	träumen	genießen	vertrauen	gütig	sonnig	krank	töten	gemein	versagen	gierig	sterben	53pct	acq_USunple_CSunple1_noRW	acq23456_noRW	2	71	0	0	300	300	440	46	0	1	1	blank2r.bmp	0	1	+	0	1	blank2r.bmp	252	1	ZHHZ	306	3	gemein	559	0	0	0	0	0	0	0	0	0	0	0	0	0	0	0	0	0	0	0	0	0	0	0	0	0	0	0	0	0	0	0	0	0	0	0	0	0	0	0
070319	09:41:19	09:47:00	338741	5.0.10.0	5_exp_noRW	2	Rpleas_acq	CS_A	CPPC	LWWL	ZHHZ	JQQJ	YFFY	DXXD	küssen	träumen	genießen	vertrauen	gütig	sonnig	krank	töten	gemein	versagen	gierig	sterben	53pct	acq_USpleas_CSpleas1_noRW	acq23456_noRW	2	72	0	0	300	300	416	50	0	1	1	blank2r.bmp	0	1	+	0	1	blank2r.bmp	252	1	CPPC	306	3	genießen	559	0	0	0	0	0	0	0	0	0	0	0	0	0	0	0	0	0	0	0	0	0	0	0	0	0	0	0	0	0	0	0	0	0	0	0	0	0	0	0
070319	09:41:19	09:47:02	340367	5.0.10.0	5_exp_noRW	2	Rpleas_acq	CS_A	CPPC	LWWL	ZHHZ	JQQJ	YFFY	DXXD	küssen	träumen	genießen	vertrauen	gütig	sonnig	krank	töten	gemein	versagen	gierig	sterben	53pct	acq_USunple_CSunple2_noRW	acq23456_noRW	2	73	0	0	300	300	454	46	0	1	1	blank2r.bmp	0	1	+	0	1	blank2r.bmp	252	1	JQQJ	306	1	versagen	559	0	0	0	0	0	0	0	0	0	0	0	0	0	0	0	0	0	0	0	0	0	0	0	0	0	0	0	0	0	0	0	0	0	0	0	0	0	0	0
070319	09:41:19	09:47:03	341899	5.0.10.0	5_exp_noRW	2	Rpleas_acq	CS_A	CPPC	LWWL	ZHHZ	JQQJ	YFFY	DXXD	küssen	träumen	genießen	vertrauen	gütig	sonnig	krank	töten	gemein	versagen	gierig	sterben	53pct	acq_USunple_CSunple1_noRW	acq23456_noRW	2	74	0	0	300	300	365	46	0	1	1	blank2r.bmp	0	1	+	0	1	blank2r.bmp	252	1	ZHHZ	306	1	krank	559	0	0	0	0	0	0	0	0	0	0	0	0	0	0	0	0	0	0	0	0	0	0	0	0	0	0	0	0	0	0	0	0	0	0	0	0	0	0	0
070319	09:41:19	09:47:05	343459	5.0.10.0	5_exp_noRW	2	Rpleas_acq	CS_A	CPPC	LWWL	ZHHZ	JQQJ	YFFY	DXXD	küssen	träumen	genießen	vertrauen	gütig	sonnig	krank	töten	gemein	versagen	gierig	sterben	47pct	acq_USpleas_CSpleas2_noRW	acq23456_noRW	2	75	0	0	300	300	379	50	0	1	1	blank2r.bmp	0	1	+	0	1	blank2r.bmp	252	1	LWWL	306	2	gütig	559	0	0	0	0	0	0	0	0	0	0	0	0	0	0	0	0	0	0	0	0	0	0	0	0	0	0	0	0	0	0	0	0	0	0	0	0	0	0	0
070319	09:41:19	09:47:06	345058	5.0.10.0	5_exp_noRW	2	Rpleas_acq	CS_A	CPPC	LWWL	ZHHZ	JQQJ	YFFY	DXXD	küssen	träumen	genießen	vertrauen	gütig	sonnig	krank	töten	gemein	versagen	gierig	sterben	47pct	acq_USunple_CSunple2_noRW	acq23456_noRW	2	76	0	0	300	300	415	46	0	1	1	blank2r.bmp	0	1	+	0	1	blank2r.bmp	252	1	JQQJ	306	3	sterben	559	0	0	0	0	0	0	0	0	0	0	0	0	0	0	0	0	0	0	0	0	0	0	0	0	0	0	0	0	0	0	0	0	0	0	0	0	0	0	0
070319	09:41:19	09:47:08	346551	5.0.10.0	5_exp_noRW	2	Rpleas_acq	CS_A	CPPC	LWWL	ZHHZ	JQQJ	YFFY	DXXD	küssen	träumen	genießen	vertrauen	gütig	sonnig	krank	töten	gemein	versagen	gierig	sterben	53pct	acq_USpleas_CSunple2_noRW	acq23456_noRW	2	77	0	0	300	300	327	50	0	1	1	blank2r.bmp	0	1	+	0	1	blank2r.bmp	252	1	JQQJ	306	3	sonnig	559	0	0	0	0	0	0	0	0	0	0	0	0	0	0	0	0	0	0	0	0	0	0	0	0	0	0	0	0	0	0	0	0	0	0	0	0	0	0	0
070319	09:41:19	09:47:10	348270	5.0.10.0	5_exp_noRW	2	Rpleas_acq	CS_A	CPPC	LWWL	ZHHZ	JQQJ	YFFY	DXXD	küssen	träumen	genießen	vertrauen	gütig	sonnig	krank	töten	gemein	versagen	gierig	sterben	53pct	acq_USunple_CSunple2_noRW	acq23456_noRW	2	78	0	0	300	300	322	50	0	0	1	blank2r.bmp	0	1	+	0	1	blank2r.bmp	252	1	JQQJ	306	2	gierig	559	1	FEHLER	919	0	0	0	0	0	0	0	0	0	0	0	0	0	0	0	0	0	0	0	0	0	0	0	0	0	0	0	0	0	0	0	0	0	0	0	0
070319	09:41:19	09:47:11	349683	5.0.10.0	5_exp_noRW	2	Rpleas_acq	CS_A	CPPC	LWWL	ZHHZ	JQQJ	YFFY	DXXD	küssen	träumen	genießen	vertrauen	gütig	sonnig	krank	töten	gemein	versagen	gierig	sterben	53pct	acq_USunple_CSpleas2_noRW	acq23456_noRW	2	79	0	0	300	300	459	46	0	1	1	blank2r.bmp	0	1	+	0	1	blank2r.bmp	252	1	LWWL	306	2	gierig	559	0	0	0	0	0	0	0	0	0	0	0	0	0	0	0	0	0	0	0	0	0	0	0	0	0	0	0	0	0	0	0	0	0	0	0	0	0	0	0
070319	09:41:19	09:47:13	351749	5.0.10.0	5_exp_noRW	2	Rpleas_acq	CS_A	CPPC	LWWL	ZHHZ	JQQJ	YFFY	DXXD	küssen	träumen	genießen	vertrauen	gütig	sonnig	krank	töten	gemein	versagen	gierig	sterben	53pct	acq_USpleas_CSpleas1_noRW	acq23456_noRW	2	80	0	0	300	300	887	50	0	1	1	blank2r.bmp	0	1	+	0	1	blank2r.bmp	252	1	CPPC	306	2	träumen	559	0	0	0	0	0	0	0	0	0	0	0	0	0	0	0	0	0	0	0	0	0	0	0	0	0	0	0	0	0	0	0	0	0	0	0	0	0	0	0
070319	09:41:19	09:47:23	361212	5.0.10.0	5_exp_noRW	2	Rpleas_acq	CS_A	CPPC	LWWL	ZHHZ	JQQJ	YFFY	DXXD	küssen	träumen	genießen	vertrauen	gütig	sonnig	krank	töten	gemein	versagen	gierig	sterben	53pct	acq_USpleas_CSpleas2_noRW	acq23456_noRW	3	1	0	0	300	300	1216	50	0	1	1	blank2r.bmp	0	1	+	0	1	blank2r.bmp	252	1	LWWL	306	3	sonnig	559	0	0	0	0	0	0	0	0	0	0	0	0	0	0	0	0	0	0	0	0	0	0	0	0	0	0	0	0	0	0	0	0	0	0	0	0	0	0	0
070319	09:41:19	09:47:24	362824	5.0.10.0	5_exp_noRW	2	Rpleas_acq	CS_A	CPPC	LWWL	ZHHZ	JQQJ	YFFY	DXXD	küssen	träumen	genießen	vertrauen	gütig	sonnig	krank	töten	gemein	versagen	gierig	sterben	53pct	acq_USunple_CSunple2_noRW	acq23456_noRW	3	2	0	0	300	300	427	46	0	1	1	blank2r.bmp	0	1	+	0	1	blank2r.bmp	252	1	JQQJ	306	1	versagen	559	0	0	0	0	0	0	0	0	0	0	0	0	0	0	0	0	0	0	0	0	0	0	0	0	0	0	0	0	0	0	0	0	0	0	0	0	0	0	0
070319	09:41:19	09:47:26	364837	5.0.10.0	5_exp_noRW	2	Rpleas_acq	CS_A	CPPC	LWWL	ZHHZ	JQQJ	YFFY	DXXD	küssen	träumen	genießen	vertrauen	gütig	sonnig	krank	töten	gemein	versagen	gierig	sterben	47pct	acq_USunple_CSunple2_noRW	acq23456_noRW	3	3	0	0	300	300	849	46	0	1	1	blank2r.bmp	0	1	+	0	1	blank2r.bmp	252	1	JQQJ	306	2	gierig	559	0	0	0	0	0	0	0	0	0	0	0	0	0	0	0	0	0	0	0	0	0	0	0	0	0	0	0	0	0	0	0	0	0	0	0	0	0	0	0
070319	09:41:19	09:47:28	366436	5.0.10.0	5_exp_noRW	2	Rpleas_acq	CS_A	CPPC	LWWL	ZHHZ	JQQJ	YFFY	DXXD	küssen	träumen	genießen	vertrauen	gütig	sonnig	krank	töten	gemein	versagen	gierig	sterben	47pct	acq_USpleas_CSpleas1_noRW	acq23456_noRW	3	4	0	0	300	300	432	50	0	1	1	blank2r.bmp	0	1	+	0	1	blank2r.bmp	252	1	CPPC	306	1	küssen	559	0	0	0	0	0	0	0	0	0	0	0	0	0	0	0	0	0	0	0	0	0	0	0	0	0	0	0	0	0	0	0	0	0	0	0	0	0	0	0
070319	09:41:19	09:47:29	368035	5.0.10.0	5_exp_noRW	2	Rpleas_acq	CS_A	CPPC	LWWL	ZHHZ	JQQJ	YFFY	DXXD	küssen	träumen	genießen	vertrauen	gütig	sonnig	krank	töten	gemein	versagen	gierig	sterben	53pct	acq_USunple_CSpleas1_noRW	acq23456_noRW	3	5	0	0	300	300	418	46	0	1	1	blank2r.bmp	0	1	+	0	1	blank2r.bmp	252	1	CPPC	306	3	gemein	559	0	0	0	0	0	0	0	0	0	0	0	0	0	0	0	0	0	0	0	0	0	0	0	0	0	0	0	0	0	0	0	0	0	0	0	0	0	0	0
070319	09:41:19	09:47:32	370794	5.0.10.0	5_exp_noRW	2	Rpleas_acq	CS_A	CPPC	LWWL	ZHHZ	JQQJ	YFFY	DXXD	küssen	träumen	genießen	vertrauen	gütig	sonnig	krank	töten	gemein	versagen	gierig	sterben	53pct	acq_USpleas_CSunple2_noRW	acq23456_noRW	3	6	0	0	300	300	1591	50	0	1	1	blank2r.bmp	0	1	+	0	1	blank2r.bmp	252	1	JQQJ	306	1	vertrauen	559	0	0	0	0	0	0	0	0	0	0	0	0	0	0	0	0	0	0	0	0	0	0	0	0	0	0	0	0	0	0	0	0	0	0	0	0	0	0	0
070319	09:41:19	09:47:35	373700	5.0.10.0	5_exp_noRW	2	Rpleas_acq	CS_A	CPPC	LWWL	ZHHZ	JQQJ	YFFY	DXXD	küssen	träumen	genießen	vertrauen	gütig	sonnig	krank	töten	gemein	versagen	gierig	sterben	47pct	acq_USunple_CSunple1_noRW	acq23456_noRW	3	7	0	0	300	300	1723	46	0	1	1	blank2r.bmp	0	1	+	0	1	blank2r.bmp	252	1	ZHHZ	306	2	töten	559	0	0	0	0	0	0	0	0	0	0	0	0	0	0	0	0	0	0	0	0	0	0	0	0	0	0	0	0	0	0	0	0	0	0	0	0	0	0	0
070319	09:41:19	09:47:37	375286	5.0.10.0	5_exp_noRW	2	Rpleas_acq	CS_A	CPPC	LWWL	ZHHZ	JQQJ	YFFY	DXXD	küssen	träumen	genießen	vertrauen	gütig	sonnig	krank	töten	gemein	versagen	gierig	sterben	53pct	acq_USunple_CSpleas2_noRW	acq23456_noRW	3	8	0	0	300	300	422	46	0	1	1	blank2r.bmp	0	1	+	0	1	blank2r.bmp	252	1	LWWL	306	1	versagen	559	0	0	0	0	0	0	0	0	0	0	0	0	0	0	0	0	0	0	0	0	0	0	0	0	0	0	0	0	0	0	0	0	0	0	0	0	0	0	0
070319	09:41:19	09:47:38	376712	5.0.10.0	5_exp_noRW	2	Rpleas_acq	CS_A	CPPC	LWWL	ZHHZ	JQQJ	YFFY	DXXD	küssen	träumen	genießen	vertrauen	gütig	sonnig	krank	töten	gemein	versagen	gierig	sterben	53pct	acq_USpleas_CSpleas1_noRW	acq23456_noRW	3	9	0	0	300	300	250	50	0	1	1	blank2r.bmp	0	1	+	0	1	blank2r.bmp	252	1	CPPC	306	1	küssen	559	0	0	0	0	0	0	0	0	0	0	0	0	0	0	0	0	0	0	0	0	0	0	0	0	0	0	0	0	0	0	0	0	0	0	0	0	0	0	0
070319	09:41:19	09:47:40	378271	5.0.10.0	5_exp_noRW	2	Rpleas_acq	CS_A	CPPC	LWWL	ZHHZ	JQQJ	YFFY	DXXD	küssen	träumen	genießen	vertrauen	gütig	sonnig	krank	töten	gemein	versagen	gierig	sterben	47pct	acq_USpleas_CSpleas2_noRW	acq23456_noRW	3	10	0	0	300	300	379	50	0	1	1	blank2r.bmp	0	1	+	0	1	blank2r.bmp	252	1	LWWL	306	2	gütig	559	0	0	0	0	0	0	0	0	0	0	0	0	0	0	0	0	0	0	0	0	0	0	0	0	0	0	0	0	0	0	0	0	0	0	0	0	0	0	0
070319	09:41:19	09:47:41	379937	5.0.10.0	5_exp_noRW	2	Rpleas_acq	CS_A	CPPC	LWWL	ZHHZ	JQQJ	YFFY	DXXD	küssen	träumen	genießen	vertrauen	gütig	sonnig	krank	töten	gemein	versagen	gierig	sterben	47pct	acq_USunple_CSunple2_noRW	acq23456_noRW	3	11	0	0	300	300	500	46	0	1	1	blank2r.bmp	0	1	+	0	1	blank2r.bmp	252	1	JQQJ	306	1	versagen	559	0	0	0	0	0	0	0	0	0	0	0	0	0	0	0	0	0	0	0	0	0	0	0	0	0	0	0	0	0	0	0	0	0	0	0	0	0	0	0
070319	09:41:19	09:47:43	381470	5.0.10.0	5_exp_noRW	2	Rpleas_acq	CS_A	CPPC	LWWL	ZHHZ	JQQJ	YFFY	DXXD	küssen	träumen	genießen	vertrauen	gütig	sonnig	krank	töten	gemein	versagen	gierig	sterben	47pct	acq_USunple_CSunple1_noRW	acq23456_noRW	3	12	0	0	300	300	371	46	0	1	1	blank2r.bmp	0	1	+	0	1	blank2r.bmp	252	1	ZHHZ	306	2	töten	559	0	0	0	0	0	0	0	0	0	0	0	0	0	0	0	0	0	0	0	0	0	0	0	0	0	0	0	0	0	0	0	0	0	0	0	0	0	0	0
070319	09:41:19	09:47:44	382963	5.0.10.0	5_exp_noRW	2	Rpleas_acq	CS_A	CPPC	LWWL	ZHHZ	JQQJ	YFFY	DXXD	küssen	träumen	genießen	vertrauen	gütig	sonnig	krank	töten	gemein	versagen	gierig	sterben	47pct	acq_USpleas_CSpleas2_noRW	acq23456_noRW	3	13	0	0	300	300	310	50	0	1	1	blank2r.bmp	0	1	+	0	1	blank2r.bmp	252	1	LWWL	306	3	sonnig	559	0	0	0	0	0	0	0	0	0	0	0	0	0	0	0	0	0	0	0	0	0	0	0	0	0	0	0	0	0	0	0	0	0	0	0	0	0	0	0
070319	09:41:19	09:47:46	384615	5.0.10.0	5_exp_noRW	2	Rpleas_acq	CS_A	CPPC	LWWL	ZHHZ	JQQJ	YFFY	DXXD	küssen	träumen	genießen	vertrauen	gütig	sonnig	krank	töten	gemein	versagen	gierig	sterben	53pct	acq_USpleas_CSpleas2_noRW	acq23456_noRW	3	14	0	0	300	300	479	50	0	1	1	blank2r.bmp	0	1	+	0	1	blank2r.bmp	252	1	LWWL	306	1	vertrauen	559	0	0	0	0	0	0	0	0	0	0	0	0	0	0	0	0	0	0	0	0	0	0	0	0	0	0	0	0	0	0	0	0	0	0	0	0	0	0	0
070319	09:41:19	09:47:48	386295	5.0.10.0	5_exp_noRW	2	Rpleas_acq	CS_A	CPPC	LWWL	ZHHZ	JQQJ	YFFY	DXXD	küssen	träumen	genießen	vertrauen	gütig	sonnig	krank	töten	gemein	versagen	gierig	sterben	47pct	acq_USunple_CSunple1_noRW	acq23456_noRW	3	15	0	0	300	300	501	46	0	1	1	blank2r.bmp	0	1	+	0	1	blank2r.bmp	252	1	ZHHZ	306	1	krank	559	0	0	0	0	0	0	0	0	0	0	0	0	0	0	0	0	0	0	0	0	0	0	0	0	0	0	0	0	0	0	0	0	0	0	0	0	0	0	0
070319	09:41:19	09:47:49	387841	5.0.10.0	5_exp_noRW	2	Rpleas_acq	CS_A	CPPC	LWWL	ZHHZ	JQQJ	YFFY	DXXD	küssen	träumen	genießen	vertrauen	gütig	sonnig	krank	töten	gemein	versagen	gierig	sterben	53pct	acq_USunple_CSunple2_noRW	acq23456_noRW	3	16	0	0	300	300	362	46	0	1	1	blank2r.bmp	0	1	+	0	1	blank2r.bmp	252	1	JQQJ	306	3	sterben	559	0	0	0	0	0	0	0	0	0	0	0	0	0	0	0	0	0	0	0	0	0	0	0	0	0	0	0	0	0	0	0	0	0	0	0	0	0	0	0
070319	09:41:19	09:47:51	389373	5.0.10.0	5_exp_noRW	2	Rpleas_acq	CS_A	CPPC	LWWL	ZHHZ	JQQJ	YFFY	DXXD	küssen	träumen	genießen	vertrauen	gütig	sonnig	krank	töten	gemein	versagen	gierig	sterben	53pct	acq_USpleas_CSunple1_noRW	acq23456_noRW	3	17	0	0	300	300	349	50	0	1	1	blank2r.bmp	0	1	+	0	1	blank2r.bmp	252	1	ZHHZ	306	3	genießen	559	0	0	0	0	0	0	0	0	0	0	0	0	0	0	0	0	0	0	0	0	0	0	0	0	0	0	0	0	0	0	0	0	0	0	0	0	0	0	0
070319	09:41:19	09:47:52	391026	5.0.10.0	5_exp_noRW	2	Rpleas_acq	CS_A	CPPC	LWWL	ZHHZ	JQQJ	YFFY	DXXD	küssen	träumen	genießen	vertrauen	gütig	sonnig	krank	töten	gemein	versagen	gierig	sterben	47pct	acq_USpleas_CSpleas1_noRW	acq23456_noRW	3	18	0	0	300	300	476	50	0	1	1	blank2r.bmp	0	1	+	0	1	blank2r.bmp	252	1	CPPC	306	2	träumen	559	0	0	0	0	0	0	0	0	0	0	0	0	0	0	0	0	0	0	0	0	0	0	0	0	0	0	0	0	0	0	0	0	0	0	0	0	0	0	0
070319	09:41:19	09:47:54	392599	5.0.10.0	5_exp_noRW	2	Rpleas_acq	CS_A	CPPC	LWWL	ZHHZ	JQQJ	YFFY	DXXD	küssen	träumen	genießen	vertrauen	gütig	sonnig	krank	töten	gemein	versagen	gierig	sterben	53pct	acq_USunple_CSunple1_noRW	acq23456_noRW	3	19	0	0	300	300	385	46	0	1	1	blank2r.bmp	0	1	+	0	1	blank2r.bmp	252	1	ZHHZ	306	3	gemein	559	0	0	0	0	0	0	0	0	0	0	0	0	0	0	0	0	0	0	0	0	0	0	0	0	0	0	0	0	0	0	0	0	0	0	0	0	0	0	0
070319	09:41:19	09:47:55	394158	5.0.10.0	5_exp_noRW	2	Rpleas_acq	CS_A	CPPC	LWWL	ZHHZ	JQQJ	YFFY	DXXD	küssen	träumen	genießen	vertrauen	gütig	sonnig	krank	töten	gemein	versagen	gierig	sterben	47pct	acq_USpleas_CSpleas1_noRW	acq23456_noRW	3	20	0	0	300	300	393	50	0	1	1	blank2r.bmp	0	1	+	0	1	blank2r.bmp	252	1	CPPC	306	3	genießen	559	0	0	0	0	0	0	0	0	0	0	0	0	0	0	0	0	0	0	0	0	0	0	0	0	0	0	0	0	0	0	0	0	0	0	0	0	0	0	0
070319	09:41:19	09:47:57	395757	5.0.10.0	5_exp_noRW	2	Rpleas_acq	CS_A	CPPC	LWWL	ZHHZ	JQQJ	YFFY	DXXD	küssen	träumen	genießen	vertrauen	gütig	sonnig	krank	töten	gemein	versagen	gierig	sterben	47pct	acq_USpleas_CSpleas1_noRW	acq23456_noRW	3	21	0	0	300	300	414	50	0	1	1	blank2r.bmp	0	1	+	0	1	blank2r.bmp	252	1	CPPC	306	3	genießen	559	0	0	0	0	0	0	0	0	0	0	0	0	0	0	0	0	0	0	0	0	0	0	0	0	0	0	0	0	0	0	0	0	0	0	0	0	0	0	0
070319	09:41:19	09:47:59	397343	5.0.10.0	5_exp_noRW	2	Rpleas_acq	CS_A	CPPC	LWWL	ZHHZ	JQQJ	YFFY	DXXD	küssen	träumen	genießen	vertrauen	gütig	sonnig	krank	töten	gemein	versagen	gierig	sterben	53pct	acq_USpleas_CSpleas1_noRW	acq23456_noRW	3	22	0	0	300	300	416	50	0	1	1	blank2r.bmp	0	1	+	0	1	blank2r.bmp	252	1	CPPC	306	2	träumen	559	0	0	0	0	0	0	0	0	0	0	0	0	0	0	0	0	0	0	0	0	0	0	0	0	0	0	0	0	0	0	0	0	0	0	0	0	0	0	0
070319	09:41:19	09:48:00	398969	5.0.10.0	5_exp_noRW	2	Rpleas_acq	CS_A	CPPC	LWWL	ZHHZ	JQQJ	YFFY	DXXD	küssen	träumen	genießen	vertrauen	gütig	sonnig	krank	töten	gemein	versagen	gierig	sterben	53pct	acq_USunple_CSunple2_noRW	acq23456_noRW	3	23	0	0	300	300	442	46	0	1	1	blank2r.bmp	0	1	+	0	1	blank2r.bmp	252	1	JQQJ	306	3	sterben	559	0	0	0	0	0	0	0	0	0	0	0	0	0	0	0	0	0	0	0	0	0	0	0	0	0	0	0	0	0	0	0	0	0	0	0	0	0	0	0
070319	09:41:19	09:48:02	400769	5.0.10.0	5_exp_noRW	2	Rpleas_acq	CS_A	CPPC	LWWL	ZHHZ	JQQJ	YFFY	DXXD	küssen	träumen	genießen	vertrauen	gütig	sonnig	krank	töten	gemein	versagen	gierig	sterben	53pct	acq_USunple_CSpleas2_noRW	acq23456_noRW	3	24	0	0	300	300	416	50	0	0	1	blank2r.bmp	0	1	+	0	1	blank2r.bmp	252	1	LWWL	306	2	gierig	559	1	FEHLER	1012	0	0	0	0	0	0	0	0	0	0	0	0	0	0	0	0	0	0	0	0	0	0	0	0	0	0	0	0	0	0	0	0	0	0	0	0
070319	09:41:19	09:48:03	402075	5.0.10.0	5_exp_noRW	2	Rpleas_acq	CS_A	CPPC	LWWL	ZHHZ	JQQJ	YFFY	DXXD	küssen	träumen	genießen	vertrauen	gütig	sonnig	krank	töten	gemein	versagen	gierig	sterben	47pct	acq_USpleas_CSpleas2_noRW	acq23456_noRW	3	25	0	0	300	300	334	50	0	1	1	blank2r.bmp	0	1	+	0	1	blank2r.bmp	252	1	LWWL	306	3	sonnig	559	0	0	0	0	0	0	0	0	0	0	0	0	0	0	0	0	0	0	0	0	0	0	0	0	0	0	0	0	0	0	0	0	0	0	0	0	0	0	0
070319	09:41:19	09:48:05	403754	5.0.10.0	5_exp_noRW	2	Rpleas_acq	CS_A	CPPC	LWWL	ZHHZ	JQQJ	YFFY	DXXD	küssen	träumen	genießen	vertrauen	gütig	sonnig	krank	töten	gemein	versagen	gierig	sterben	53pct	acq_USunple_CSunple1_noRW	acq23456_noRW	3	26	0	0	300	300	513	46	0	1	1	blank2r.bmp	0	1	+	0	1	blank2r.bmp	252	1	ZHHZ	306	1	krank	559	0	0	0	0	0	0	0	0	0	0	0	0	0	0	0	0	0	0	0	0	0	0	0	0	0	0	0	0	0	0	0	0	0	0	0	0	0	0	0
070319	09:41:19	09:48:07	405580	5.0.10.0	5_exp_noRW	2	Rpleas_acq	CS_A	CPPC	LWWL	ZHHZ	JQQJ	YFFY	DXXD	küssen	träumen	genießen	vertrauen	gütig	sonnig	krank	töten	gemein	versagen	gierig	sterben	53pct	acq_USunple_CSpleas1_noRW	acq23456_noRW	3	27	0	0	300	300	431	50	0	0	1	blank2r.bmp	0	1	+	0	1	blank2r.bmp	252	1	CPPC	306	3	gemein	559	1	FEHLER	1026	0	0	0	0	0	0	0	0	0	0	0	0	0	0	0	0	0	0	0	0	0	0	0	0	0	0	0	0	0	0	0	0	0	0	0	0
070319	09:41:19	09:48:08	407073	5.0.10.0	5_exp_noRW	2	Rpleas_acq	CS_A	CPPC	LWWL	ZHHZ	JQQJ	YFFY	DXXD	küssen	träumen	genießen	vertrauen	gütig	sonnig	krank	töten	gemein	versagen	gierig	sterben	53pct	acq_USpleas_CSunple2_noRW	acq23456_noRW	3	28	0	0	300	300	544	50	0	1	1	blank2r.bmp	0	1	+	0	1	blank2r.bmp	252	1	JQQJ	306	3	sonnig	559	0	0	0	0	0	0	0	0	0	0	0	0	0	0	0	0	0	0	0	0	0	0	0	0	0	0	0	0	0	0	0	0	0	0	0	0	0	0	0
070319	09:41:19	09:48:10	408659	5.0.10.0	5_exp_noRW	2	Rpleas_acq	CS_A	CPPC	LWWL	ZHHZ	JQQJ	YFFY	DXXD	küssen	träumen	genießen	vertrauen	gütig	sonnig	krank	töten	gemein	versagen	gierig	sterben	47pct	acq_USunple_CSunple1_noRW	acq23456_noRW	3	29	0	0	300	300	408	46	0	1	1	blank2r.bmp	0	1	+	0	1	blank2r.bmp	252	1	ZHHZ	306	2	töten	559	0	0	0	0	0	0	0	0	0	0	0	0	0	0	0	0	0	0	0	0	0	0	0	0	0	0	0	0	0	0	0	0	0	0	0	0	0	0	0
070319	09:41:19	09:48:12	410245	5.0.10.0	5_exp_noRW	2	Rpleas_acq	CS_A	CPPC	LWWL	ZHHZ	JQQJ	YFFY	DXXD	küssen	träumen	genießen	vertrauen	gütig	sonnig	krank	töten	gemein	versagen	gierig	sterben	47pct	acq_USpleas_CSunple1_noRW	acq23456_noRW	3	30	0	0	300	300	410	50	0	1	1	blank2r.bmp	0	1	+	0	1	blank2r.bmp	252	1	ZHHZ	306	1	küssen	559	0	0	0	0	0	0	0	0	0	0	0	0	0	0	0	0	0	0	0	0	0	0	0	0	0	0	0	0	0	0	0	0	0	0	0	0	0	0	0
070319	09:41:19	09:48:13	411884	5.0.10.0	5_exp_noRW	2	Rpleas_acq	CS_A	CPPC	LWWL	ZHHZ	JQQJ	YFFY	DXXD	küssen	träumen	genießen	vertrauen	gütig	sonnig	krank	töten	gemein	versagen	gierig	sterben	53pct	acq_USunple_CSunple2_noRW	acq23456_noRW	3	31	0	0	300	300	454	46	0	1	1	blank2r.bmp	0	1	+	0	1	blank2r.bmp	252	1	JQQJ	306	1	versagen	559	0	0	0	0	0	0	0	0	0	0	0	0	0	0	0	0	0	0	0	0	0	0	0	0	0	0	0	0	0	0	0	0	0	0	0	0	0	0	0
070319	09:41:19	09:48:15	413630	5.0.10.0	5_exp_noRW	2	Rpleas_acq	CS_A	CPPC	LWWL	ZHHZ	JQQJ	YFFY	DXXD	küssen	träumen	genießen	vertrauen	gütig	sonnig	krank	töten	gemein	versagen	gierig	sterben	53pct	acq_USunple_CSunple1_noRW	acq23456_noRW	3	32	0	0	300	300	568	46	0	1	1	blank2r.bmp	0	1	+	0	1	blank2r.bmp	252	1	ZHHZ	306	3	gemein	559	0	0	0	0	0	0	0	0	0	0	0	0	0	0	0	0	0	0	0	0	0	0	0	0	0	0	0	0	0	0	0	0	0	0	0	0	0	0	0
070319	09:41:19	09:48:17	415309	5.0.10.0	5_exp_noRW	2	Rpleas_acq	CS_A	CPPC	LWWL	ZHHZ	JQQJ	YFFY	DXXD	küssen	träumen	genießen	vertrauen	gütig	sonnig	krank	töten	gemein	versagen	gierig	sterben	53pct	acq_USpleas_CSpleas2_noRW	acq23456_noRW	3	33	0	0	300	300	492	50	0	1	1	blank2r.bmp	0	1	+	0	1	blank2r.bmp	252	1	LWWL	306	1	vertrauen	559	0	0	0	0	0	0	0	0	0	0	0	0	0	0	0	0	0	0	0	0	0	0	0	0	0	0	0	0	0	0	0	0	0	0	0	0	0	0	0
070319	09:41:19	09:48:18	416935	5.0.10.0	5_exp_noRW	2	Rpleas_acq	CS_A	CPPC	LWWL	ZHHZ	JQQJ	YFFY	DXXD	küssen	träumen	genießen	vertrauen	gütig	sonnig	krank	töten	gemein	versagen	gierig	sterben	53pct	acq_USpleas_CSpleas2_noRW	acq23456_noRW	3	34	0	0	300	300	459	50	0	1	1	blank2r.bmp	0	1	+	0	1	blank2r.bmp	252	1	LWWL	306	2	gütig	559	0	0	0	0	0	0	0	0	0	0	0	0	0	0	0	0	0	0	0	0	0	0	0	0	0	0	0	0	0	0	0	0	0	0	0	0	0	0	0
070319	09:41:19	09:48:20	418788	5.0.10.0	5_exp_noRW	2	Rpleas_acq	CS_A	CPPC	LWWL	ZHHZ	JQQJ	YFFY	DXXD	küssen	träumen	genießen	vertrauen	gütig	sonnig	krank	töten	gemein	versagen	gierig	sterben	53pct	acq_USpleas_CSpleas1_noRW	acq23456_noRW	3	35	0	0	300	300	677	50	0	1	1	blank2r.bmp	0	1	+	0	1	blank2r.bmp	252	1	CPPC	306	1	küssen	559	0	0	0	0	0	0	0	0	0	0	0	0	0	0	0	0	0	0	0	0	0	0	0	0	0	0	0	0	0	0	0	0	0	0	0	0	0	0	0
070319	09:41:19	09:48:22	420414	5.0.10.0	5_exp_noRW	2	Rpleas_acq	CS_A	CPPC	LWWL	ZHHZ	JQQJ	YFFY	DXXD	küssen	träumen	genießen	vertrauen	gütig	sonnig	krank	töten	gemein	versagen	gierig	sterben	47pct	acq_USunple_CSunple1_noRW	acq23456_noRW	3	36	0	0	300	300	440	46	0	1	1	blank2r.bmp	0	1	+	0	1	blank2r.bmp	252	1	ZHHZ	306	2	töten	559	0	0	0	0	0	0	0	0	0	0	0	0	0	0	0	0	0	0	0	0	0	0	0	0	0	0	0	0	0	0	0	0	0	0	0	0	0	0	0
070319	09:41:19	09:48:23	421893	5.0.10.0	5_exp_noRW	2	Rpleas_acq	CS_A	CPPC	LWWL	ZHHZ	JQQJ	YFFY	DXXD	küssen	träumen	genießen	vertrauen	gütig	sonnig	krank	töten	gemein	versagen	gierig	sterben	53pct	acq_USpleas_CSpleas1_noRW	acq23456_noRW	3	37	0	0	300	300	305	50	0	1	1	blank2r.bmp	0	1	+	0	1	blank2r.bmp	252	1	CPPC	306	3	genießen	559	0	0	0	0	0	0	0	0	0	0	0	0	0	0	0	0	0	0	0	0	0	0	0	0	0	0	0	0	0	0	0	0	0	0	0	0	0	0	0
070319	09:41:19	09:48:25	423399	5.0.10.0	5_exp_noRW	2	Rpleas_acq	CS_A	CPPC	LWWL	ZHHZ	JQQJ	YFFY	DXXD	küssen	träumen	genießen	vertrauen	gütig	sonnig	krank	töten	gemein	versagen	gierig	sterben	47pct	acq_USpleas_CSpleas2_noRW	acq23456_noRW	3	38	0	0	300	300	341	50	0	1	1	blank2r.bmp	0	1	+	0	1	blank2r.bmp	252	1	LWWL	306	2	gütig	559	0	0	0	0	0	0	0	0	0	0	0	0	0	0	0	0	0	0	0	0	0	0	0	0	0	0	0	0	0	0	0	0	0	0	0	0	0	0	0
070319	09:41:19	09:48:26	425185	5.0.10.0	5_exp_noRW	2	Rpleas_acq	CS_A	CPPC	LWWL	ZHHZ	JQQJ	YFFY	DXXD	küssen	träumen	genießen	vertrauen	gütig	sonnig	krank	töten	gemein	versagen	gierig	sterben	47pct	acq_USunple_CSunple2_noRW	acq23456_noRW	3	39	0	0	300	300	624	46	0	1	1	blank2r.bmp	0	1	+	0	1	blank2r.bmp	252	1	JQQJ	306	2	gierig	559	0	0	0	0	0	0	0	0	0	0	0	0	0	0	0	0	0	0	0	0	0	0	0	0	0	0	0	0	0	0	0	0	0	0	0	0	0	0	0
070319	09:41:19	09:48:28	426945	5.0.10.0	5_exp_noRW	2	Rpleas_acq	CS_A	CPPC	LWWL	ZHHZ	JQQJ	YFFY	DXXD	küssen	träumen	genießen	vertrauen	gütig	sonnig	krank	töten	gemein	versagen	gierig	sterben	53pct	acq_USunple_CSunple2_noRW	acq23456_noRW	3	40	0	0	300	300	577	46	0	1	1	blank2r.bmp	0	1	+	0	1	blank2r.bmp	252	1	JQQJ	306	2	gierig	559	0	0	0	0	0	0	0	0	0	0	0	0	0	0	0	0	0	0	0	0	0	0	0	0	0	0	0	0	0	0	0	0	0	0	0	0	0	0	0
070319	09:41:19	09:48:30	428531	5.0.10.0	5_exp_noRW	2	Rpleas_acq	CS_A	CPPC	LWWL	ZHHZ	JQQJ	YFFY	DXXD	küssen	träumen	genießen	vertrauen	gütig	sonnig	krank	töten	gemein	versagen	gierig	sterben	53pct	acq_USpleas_CSpleas2_noRW	acq23456_noRW	3	41	0	0	300	300	424	50	0	1	1	blank2r.bmp	0	1	+	0	1	blank2r.bmp	252	1	LWWL	306	3	sonnig	559	0	0	0	0	0	0	0	0	0	0	0	0	0	0	0	0	0	0	0	0	0	0	0	0	0	0	0	0	0	0	0	0	0	0	0	0	0	0	0
070319	09:41:19	09:48:32	430197	5.0.10.0	5_exp_noRW	2	Rpleas_acq	CS_A	CPPC	LWWL	ZHHZ	JQQJ	YFFY	DXXD	küssen	träumen	genießen	vertrauen	gütig	sonnig	krank	töten	gemein	versagen	gierig	sterben	47pct	acq_USunple_CSunple2_noRW	acq23456_noRW	3	42	0	0	300	300	477	46	0	1	1	blank2r.bmp	0	1	+	0	1	blank2r.bmp	252	1	JQQJ	306	1	versagen	559	0	0	0	0	0	0	0	0	0	0	0	0	0	0	0	0	0	0	0	0	0	0	0	0	0	0	0	0	0	0	0	0	0	0	0	0	0	0	0
070319	09:41:19	09:48:34	432263	5.0.10.0	5_exp_noRW	2	Rpleas_acq	CS_A	CPPC	LWWL	ZHHZ	JQQJ	YFFY	DXXD	küssen	träumen	genießen	vertrauen	gütig	sonnig	krank	töten	gemein	versagen	gierig	sterben	47pct	acq_USunple_CSunple1_noRW	acq23456_noRW	3	43	0	0	300	300	887	46	0	1	1	blank2r.bmp	0	1	+	0	1	blank2r.bmp	252	1	ZHHZ	306	3	gemein	559	0	0	0	0	0	0	0	0	0	0	0	0	0	0	0	0	0	0	0	0	0	0	0	0	0	0	0	0	0	0	0	0	0	0	0	0	0	0	0
070319	09:41:19	09:48:35	433929	5.0.10.0	5_exp_noRW	2	Rpleas_acq	CS_A	CPPC	LWWL	ZHHZ	JQQJ	YFFY	DXXD	küssen	träumen	genießen	vertrauen	gütig	sonnig	krank	töten	gemein	versagen	gierig	sterben	47pct	acq_USpleas_CSpleas1_noRW	acq23456_noRW	3	44	0	0	300	300	487	50	0	1	1	blank2r.bmp	0	1	+	0	1	blank2r.bmp	252	1	CPPC	306	1	küssen	559	0	0	0	0	0	0	0	0	0	0	0	0	0	0	0	0	0	0	0	0	0	0	0	0	0	0	0	0	0	0	0	0	0	0	0	0	0	0	0
070319	09:41:19	09:48:37	435501	5.0.10.0	5_exp_noRW	2	Rpleas_acq	CS_A	CPPC	LWWL	ZHHZ	JQQJ	YFFY	DXXD	küssen	träumen	genießen	vertrauen	gütig	sonnig	krank	töten	gemein	versagen	gierig	sterben	53pct	acq_USunple_CSpleas2_noRW	acq23456_noRW	3	45	0	0	300	300	409	46	0	1	1	blank2r.bmp	0	1	+	0	1	blank2r.bmp	252	1	LWWL	306	3	sterben	559	0	0	0	0	0	0	0	0	0	0	0	0	0	0	0	0	0	0	0	0	0	0	0	0	0	0	0	0	0	0	0	0	0	0	0	0	0	0	0
070319	09:41:19	09:48:39	437260	5.0.10.0	5_exp_noRW	2	Rpleas_acq	CS_A	CPPC	LWWL	ZHHZ	JQQJ	YFFY	DXXD	küssen	träumen	genießen	vertrauen	gütig	sonnig	krank	töten	gemein	versagen	gierig	sterben	53pct	acq_USpleas_CSpleas2_noRW	acq23456_noRW	3	46	0	0	300	300	359	46	0	0	1	blank2r.bmp	0	1	+	0	1	blank2r.bmp	252	1	LWWL	306	1	vertrauen	559	1	FEHLER	959	0	0	0	0	0	0	0	0	0	0	0	0	0	0	0	0	0	0	0	0	0	0	0	0	0	0	0	0	0	0	0	0	0	0	0	0
070319	09:41:19	09:48:40	438820	5.0.10.0	5_exp_noRW	2	Rpleas_acq	CS_A	CPPC	LWWL	ZHHZ	JQQJ	YFFY	DXXD	küssen	träumen	genießen	vertrauen	gütig	sonnig	krank	töten	gemein	versagen	gierig	sterben	53pct	acq_USpleas_CSpleas1_noRW	acq23456_noRW	3	47	0	0	300	300	604	50	0	1	1	blank2r.bmp	0	1	+	0	1	blank2r.bmp	252	1	CPPC	306	2	träumen	559	0	0	0	0	0	0	0	0	0	0	0	0	0	0	0	0	0	0	0	0	0	0	0	0	0	0	0	0	0	0	0	0	0	0	0	0	0	0	0
070319	09:41:19	09:48:42	440419	5.0.10.0	5_exp_noRW	2	Rpleas_acq	CS_A	CPPC	LWWL	ZHHZ	JQQJ	YFFY	DXXD	küssen	träumen	genießen	vertrauen	gütig	sonnig	krank	töten	gemein	versagen	gierig	sterben	47pct	acq_USpleas_CSpleas2_noRW	acq23456_noRW	3	48	0	0	300	300	419	50	0	1	1	blank2r.bmp	0	1	+	0	1	blank2r.bmp	252	1	LWWL	306	2	gütig	559	0	0	0	0	0	0	0	0	0	0	0	0	0	0	0	0	0	0	0	0	0	0	0	0	0	0	0	0	0	0	0	0	0	0	0	0	0	0	0
070319	09:41:19	09:48:43	442112	5.0.10.0	5_exp_noRW	2	Rpleas_acq	CS_A	CPPC	LWWL	ZHHZ	JQQJ	YFFY	DXXD	küssen	träumen	genießen	vertrauen	gütig	sonnig	krank	töten	gemein	versagen	gierig	sterben	47pct	acq_USpleas_CSpleas2_noRW	acq23456_noRW	3	49	0	0	300	300	527	50	0	1	1	blank2r.bmp	0	1	+	0	1	blank2r.bmp	252	1	LWWL	306	3	sonnig	559	0	0	0	0	0	0	0	0	0	0	0	0	0	0	0	0	0	0	0	0	0	0	0	0	0	0	0	0	0	0	0	0	0	0	0	0	0	0	0
070319	09:41:19	09:48:45	443791	5.0.10.0	5_exp_noRW	2	Rpleas_acq	CS_A	CPPC	LWWL	ZHHZ	JQQJ	YFFY	DXXD	küssen	träumen	genießen	vertrauen	gütig	sonnig	krank	töten	gemein	versagen	gierig	sterben	53pct	acq_USpleas_CSunple2_noRW	acq23456_noRW	3	50	0	0	300	300	494	50	0	1	1	blank2r.bmp	0	1	+	0	1	blank2r.bmp	252	1	JQQJ	306	2	gütig	559	0	0	0	0	0	0	0	0	0	0	0	0	0	0	0	0	0	0	0	0	0	0	0	0	0	0	0	0	0	0	0	0	0	0	0	0	0	0	0
070319	09:41:19	09:48:47	445484	5.0.10.0	5_exp_noRW	2	Rpleas_acq	CS_A	CPPC	LWWL	ZHHZ	JQQJ	YFFY	DXXD	küssen	träumen	genießen	vertrauen	gütig	sonnig	krank	töten	gemein	versagen	gierig	sterben	53pct	acq_USunple_CSunple1_noRW	acq23456_noRW	3	51	0	0	300	300	525	46	0	1	1	blank2r.bmp	0	1	+	0	1	blank2r.bmp	252	1	ZHHZ	306	1	krank	559	0	0	0	0	0	0	0	0	0	0	0	0	0	0	0	0	0	0	0	0	0	0	0	0	0	0	0	0	0	0	0	0	0	0	0	0	0	0	0
070319	09:41:19	09:48:48	447163	5.0.10.0	5_exp_noRW	2	Rpleas_acq	CS_A	CPPC	LWWL	ZHHZ	JQQJ	YFFY	DXXD	küssen	träumen	genießen	vertrauen	gütig	sonnig	krank	töten	gemein	versagen	gierig	sterben	47pct	acq_USunple_CSunple2_noRW	acq23456_noRW	3	52	0	0	300	300	493	46	0	1	1	blank2r.bmp	0	1	+	0	1	blank2r.bmp	252	1	JQQJ	306	3	sterben	559	0	0	0	0	0	0	0	0	0	0	0	0	0	0	0	0	0	0	0	0	0	0	0	0	0	0	0	0	0	0	0	0	0	0	0	0	0	0	0
070319	09:41:19	09:48:50	448762	5.0.10.0	5_exp_noRW	2	Rpleas_acq	CS_A	CPPC	LWWL	ZHHZ	JQQJ	YFFY	DXXD	küssen	träumen	genießen	vertrauen	gütig	sonnig	krank	töten	gemein	versagen	gierig	sterben	47pct	acq_USunple_CSunple1_noRW	acq23456_noRW	3	53	0	0	300	300	427	46	0	1	1	blank2r.bmp	0	1	+	0	1	blank2r.bmp	252	1	ZHHZ	306	3	gemein	559	0	0	0	0	0	0	0	0	0	0	0	0	0	0	0	0	0	0	0	0	0	0	0	0	0	0	0	0	0	0	0	0	0	0	0	0	0	0	0
070319	09:41:19	09:48:52	450362	5.0.10.0	5_exp_noRW	2	Rpleas_acq	CS_A	CPPC	LWWL	ZHHZ	JQQJ	YFFY	DXXD	küssen	träumen	genießen	vertrauen	gütig	sonnig	krank	töten	gemein	versagen	gierig	sterben	53pct	acq_USunple_CSunple2_noRW	acq23456_noRW	3	54	0	0	300	300	436	46	0	1	1	blank2r.bmp	0	1	+	0	1	blank2r.bmp	252	1	JQQJ	306	1	versagen	559	0	0	0	0	0	0	0	0	0	0	0	0	0	0	0	0	0	0	0	0	0	0	0	0	0	0	0	0	0	0	0	0	0	0	0	0	0	0	0
070319	09:41:19	09:48:53	452014	5.0.10.0	5_exp_noRW	2	Rpleas_acq	CS_A	CPPC	LWWL	ZHHZ	JQQJ	YFFY	DXXD	küssen	träumen	genießen	vertrauen	gütig	sonnig	krank	töten	gemein	versagen	gierig	sterben	53pct	acq_USunple_CSunple1_noRW	acq23456_noRW	3	55	0	0	300	300	476	46	0	1	1	blank2r.bmp	0	1	+	0	1	blank2r.bmp	252	1	ZHHZ	306	1	krank	559	0	0	0	0	0	0	0	0	0	0	0	0	0	0	0	0	0	0	0	0	0	0	0	0	0	0	0	0	0	0	0	0	0	0	0	0	0	0	0
070319	09:41:19	09:48:55	453654	5.0.10.0	5_exp_noRW	2	Rpleas_acq	CS_A	CPPC	LWWL	ZHHZ	JQQJ	YFFY	DXXD	küssen	träumen	genießen	vertrauen	gütig	sonnig	krank	töten	gemein	versagen	gierig	sterben	53pct	acq_USunple_CSpleas1_noRW	acq23456_noRW	3	56	0	0	300	300	452	46	0	1	1	blank2r.bmp	0	1	+	0	1	blank2r.bmp	252	1	CPPC	306	2	töten	559	0	0	0	0	0	0	0	0	0	0	0	0	0	0	0	0	0	0	0	0	0	0	0	0	0	0	0	0	0	0	0	0	0	0	0	0	0	0	0
070319	09:41:19	09:48:57	455213	5.0.10.0	5_exp_noRW	2	Rpleas_acq	CS_A	CPPC	LWWL	ZHHZ	JQQJ	YFFY	DXXD	küssen	träumen	genießen	vertrauen	gütig	sonnig	krank	töten	gemein	versagen	gierig	sterben	47pct	acq_USunple_CSunple2_noRW	acq23456_noRW	3	57	0	0	300	300	395	46	0	1	1	blank2r.bmp	0	1	+	0	1	blank2r.bmp	252	1	JQQJ	306	3	sterben	559	0	0	0	0	0	0	0	0	0	0	0	0	0	0	0	0	0	0	0	0	0	0	0	0	0	0	0	0	0	0	0	0	0	0	0	0	0	0	0
070319	09:41:19	09:48:58	456839	5.0.10.0	5_exp_noRW	2	Rpleas_acq	CS_A	CPPC	LWWL	ZHHZ	JQQJ	YFFY	DXXD	küssen	träumen	genießen	vertrauen	gütig	sonnig	krank	töten	gemein	versagen	gierig	sterben	47pct	acq_USpleas_CSpleas1_noRW	acq23456_noRW	3	58	0	0	300	300	442	50	0	1	1	blank2r.bmp	0	1	+	0	1	blank2r.bmp	252	1	CPPC	306	2	träumen	559	0	0	0	0	0	0	0	0	0	0	0	0	0	0	0	0	0	0	0	0	0	0	0	0	0	0	0	0	0	0	0	0	0	0	0	0	0	0	0
070319	09:41:19	09:49:00	458518	5.0.10.0	5_exp_noRW	2	Rpleas_acq	CS_A	CPPC	LWWL	ZHHZ	JQQJ	YFFY	DXXD	küssen	träumen	genießen	vertrauen	gütig	sonnig	krank	töten	gemein	versagen	gierig	sterben	47pct	acq_USpleas_CSpleas1_noRW	acq23456_noRW	3	59	0	0	300	300	496	50	0	1	1	blank2r.bmp	0	1	+	0	1	blank2r.bmp	252	1	CPPC	306	3	genießen	559	0	0	0	0	0	0	0	0	0	0	0	0	0	0	0	0	0	0	0	0	0	0	0	0	0	0	0	0	0	0	0	0	0	0	0	0	0	0	0
070319	09:41:19	09:49:02	460438	5.0.10.0	5_exp_noRW	2	Rpleas_acq	CS_A	CPPC	LWWL	ZHHZ	JQQJ	YFFY	DXXD	küssen	träumen	genießen	vertrauen	gütig	sonnig	krank	töten	gemein	versagen	gierig	sterben	53pct	acq_USpleas_CSunple1_noRW	acq23456_noRW	3	60	0	0	300	300	745	50	0	1	1	blank2r.bmp	0	1	+	0	1	blank2r.bmp	252	1	ZHHZ	306	2	träumen	559	0	0	0	0	0	0	0	0	0	0	0	0	0	0	0	0	0	0	0	0	0	0	0	0	0	0	0	0	0	0	0	0	0	0	0	0	0	0	0
070319	09:41:19	09:49:03	462024	5.0.10.0	5_exp_noRW	2	Rpleas_acq	CS_A	CPPC	LWWL	ZHHZ	JQQJ	YFFY	DXXD	küssen	träumen	genießen	vertrauen	gütig	sonnig	krank	töten	gemein	versagen	gierig	sterben	47pct	acq_USpleas_CSpleas2_noRW	acq23456_noRW	3	61	0	0	300	300	414	50	0	1	1	blank2r.bmp	0	1	+	0	1	blank2r.bmp	252	1	LWWL	306	1	vertrauen	559	0	0	0	0	0	0	0	0	0	0	0	0	0	0	0	0	0	0	0	0	0	0	0	0	0	0	0	0	0	0	0	0	0	0	0	0	0	0	0
070319	09:41:19	09:49:05	463516	5.0.10.0	5_exp_noRW	2	Rpleas_acq	CS_A	CPPC	LWWL	ZHHZ	JQQJ	YFFY	DXXD	küssen	träumen	genießen	vertrauen	gütig	sonnig	krank	töten	gemein	versagen	gierig	sterben	47pct	acq_USpleas_CSpleas2_noRW	acq23456_noRW	3	62	0	0	300	300	319	50	0	1	1	blank2r.bmp	0	1	+	0	1	blank2r.bmp	252	1	LWWL	306	2	gütig	559	0	0	0	0	0	0	0	0	0	0	0	0	0	0	0	0	0	0	0	0	0	0	0	0	0	0	0	0	0	0	0	0	0	0	0	0	0	0	0
070319	09:41:19	09:49:07	465289	5.0.10.0	5_exp_noRW	2	Rpleas_acq	CS_A	CPPC	LWWL	ZHHZ	JQQJ	YFFY	DXXD	küssen	träumen	genießen	vertrauen	gütig	sonnig	krank	töten	gemein	versagen	gierig	sterben	53pct	acq_USunple_CSunple2_noRW	acq23456_noRW	3	63	0	0	300	300	605	46	0	1	1	blank2r.bmp	0	1	+	0	1	blank2r.bmp	252	1	JQQJ	306	2	gierig	559	0	0	0	0	0	0	0	0	0	0	0	0	0	0	0	0	0	0	0	0	0	0	0	0	0	0	0	0	0	0	0	0	0	0	0	0	0	0	0
070319	09:41:19	09:49:08	466928	5.0.10.0	5_exp_noRW	2	Rpleas_acq	CS_A	CPPC	LWWL	ZHHZ	JQQJ	YFFY	DXXD	küssen	träumen	genießen	vertrauen	gütig	sonnig	krank	töten	gemein	versagen	gierig	sterben	53pct	acq_USpleas_CSpleas2_noRW	acq23456_noRW	3	64	0	0	300	300	474	50	0	1	1	blank2r.bmp	0	1	+	0	1	blank2r.bmp	252	1	LWWL	306	3	sonnig	559	0	0	0	0	0	0	0	0	0	0	0	0	0	0	0	0	0	0	0	0	0	0	0	0	0	0	0	0	0	0	0	0	0	0	0	0	0	0	0
070319	09:41:19	09:49:10	468528	5.0.10.0	5_exp_noRW	2	Rpleas_acq	CS_A	CPPC	LWWL	ZHHZ	JQQJ	YFFY	DXXD	küssen	träumen	genießen	vertrauen	gütig	sonnig	krank	töten	gemein	versagen	gierig	sterben	47pct	acq_USunple_CSunple1_noRW	acq23456_noRW	3	65	0	0	300	300	414	46	0	1	1	blank2r.bmp	0	1	+	0	1	blank2r.bmp	252	1	ZHHZ	306	2	töten	559	0	0	0	0	0	0	0	0	0	0	0	0	0	0	0	0	0	0	0	0	0	0	0	0	0	0	0	0	0	0	0	0	0	0	0	0	0	0	0
070319	09:41:19	09:49:11	470140	5.0.10.0	5_exp_noRW	2	Rpleas_acq	CS_A	CPPC	LWWL	ZHHZ	JQQJ	YFFY	DXXD	küssen	träumen	genießen	vertrauen	gütig	sonnig	krank	töten	gemein	versagen	gierig	sterben	47pct	acq_USunple_CSunple1_noRW	acq23456_noRW	3	66	0	0	300	300	444	46	0	1	1	blank2r.bmp	0	1	+	0	1	blank2r.bmp	252	1	ZHHZ	306	3	gemein	559	0	0	0	0	0	0	0	0	0	0	0	0	0	0	0	0	0	0	0	0	0	0	0	0	0	0	0	0	0	0	0	0	0	0	0	0	0	0	0
070319	09:41:19	09:49:13	471793	5.0.10.0	5_exp_noRW	2	Rpleas_acq	CS_A	CPPC	LWWL	ZHHZ	JQQJ	YFFY	DXXD	küssen	träumen	genießen	vertrauen	gütig	sonnig	krank	töten	gemein	versagen	gierig	sterben	53pct	acq_USpleas_CSpleas1_noRW	acq23456_noRW	3	67	0	0	300	300	481	50	0	1	1	blank2r.bmp	0	1	+	0	1	blank2r.bmp	252	1	CPPC	306	1	küssen	559	0	0	0	0	0	0	0	0	0	0	0	0	0	0	0	0	0	0	0	0	0	0	0	0	0	0	0	0	0	0	0	0	0	0	0	0	0	0	0
070319	09:41:19	09:49:15	473419	5.0.10.0	5_exp_noRW	2	Rpleas_acq	CS_A	CPPC	LWWL	ZHHZ	JQQJ	YFFY	DXXD	küssen	träumen	genießen	vertrauen	gütig	sonnig	krank	töten	gemein	versagen	gierig	sterben	47pct	acq_USpleas_CSpleas1_noRW	acq23456_noRW	3	68	0	0	300	300	456	50	0	1	1	blank2r.bmp	0	1	+	0	1	blank2r.bmp	252	1	CPPC	306	3	genießen	559	0	0	0	0	0	0	0	0	0	0	0	0	0	0	0	0	0	0	0	0	0	0	0	0	0	0	0	0	0	0	0	0	0	0	0	0	0	0	0
070319	09:41:19	09:49:16	475058	5.0.10.0	5_exp_noRW	2	Rpleas_acq	CS_A	CPPC	LWWL	ZHHZ	JQQJ	YFFY	DXXD	küssen	träumen	genießen	vertrauen	gütig	sonnig	krank	töten	gemein	versagen	gierig	sterben	47pct	acq_USunple_CSpleas2_noRW	acq23456_noRW	3	69	0	0	300	300	255	50	0	0	1	blank2r.bmp	0	1	+	0	1	blank2r.bmp	252	1	LWWL	306	1	versagen	559	1	FEHLER	852	0	0	0	0	0	0	0	0	0	0	0	0	0	0	0	0	0	0	0	0	0	0	0	0	0	0	0	0	0	0	0	0	0	0	0	0
070319	09:41:19	09:49:18	476418	5.0.10.0	5_exp_noRW	2	Rpleas_acq	CS_A	CPPC	LWWL	ZHHZ	JQQJ	YFFY	DXXD	küssen	träumen	genießen	vertrauen	gütig	sonnig	krank	töten	gemein	versagen	gierig	sterben	47pct	acq_USpleas_CSunple1_noRW	acq23456_noRW	3	70	0	0	300	300	393	50	0	1	1	blank2r.bmp	0	1	+	0	1	blank2r.bmp	252	1	ZHHZ	306	3	genießen	559	0	0	0	0	0	0	0	0	0	0	0	0	0	0	0	0	0	0	0	0	0	0	0	0	0	0	0	0	0	0	0	0	0	0	0	0	0	0	0
070319	09:41:19	09:49:19	478004	5.0.10.0	5_exp_noRW	2	Rpleas_acq	CS_A	CPPC	LWWL	ZHHZ	JQQJ	YFFY	DXXD	küssen	träumen	genießen	vertrauen	gütig	sonnig	krank	töten	gemein	versagen	gierig	sterben	47pct	acq_USpleas_CSunple2_noRW	acq23456_noRW	3	71	0	0	300	300	411	50	0	1	1	blank2r.bmp	0	1	+	0	1	blank2r.bmp	252	1	JQQJ	306	1	vertrauen	559	0	0	0	0	0	0	0	0	0	0	0	0	0	0	0	0	0	0	0	0	0	0	0	0	0	0	0	0	0	0	0	0	0	0	0	0	0	0	0
070319	09:41:19	09:49:21	479577	5.0.10.0	5_exp_noRW	2	Rpleas_acq	CS_A	CPPC	LWWL	ZHHZ	JQQJ	YFFY	DXXD	küssen	träumen	genießen	vertrauen	gütig	sonnig	krank	töten	gemein	versagen	gierig	sterben	53pct	acq_USunple_CSunple1_noRW	acq23456_noRW	3	72	0	0	300	300	385	46	0	1	1	blank2r.bmp	0	1	+	0	1	blank2r.bmp	252	1	ZHHZ	306	2	töten	559	0	0	0	0	0	0	0	0	0	0	0	0	0	0	0	0	0	0	0	0	0	0	0	0	0	0	0	0	0	0	0	0	0	0	0	0	0	0	0
070319	09:41:19	09:49:23	481362	5.0.10.0	5_exp_noRW	2	Rpleas_acq	CS_A	CPPC	LWWL	ZHHZ	JQQJ	YFFY	DXXD	küssen	träumen	genießen	vertrauen	gütig	sonnig	krank	töten	gemein	versagen	gierig	sterben	47pct	acq_USunple_CSunple2_noRW	acq23456_noRW	3	73	0	0	300	300	621	46	0	1	1	blank2r.bmp	0	1	+	0	1	blank2r.bmp	252	1	JQQJ	306	3	sterben	559	0	0	0	0	0	0	0	0	0	0	0	0	0	0	0	0	0	0	0	0	0	0	0	0	0	0	0	0	0	0	0	0	0	0	0	0	0	0	0
070319	09:41:19	09:49:24	482935	5.0.10.0	5_exp_noRW	2	Rpleas_acq	CS_A	CPPC	LWWL	ZHHZ	JQQJ	YFFY	DXXD	küssen	träumen	genießen	vertrauen	gütig	sonnig	krank	töten	gemein	versagen	gierig	sterben	53pct	acq_USunple_CSunple1_noRW	acq23456_noRW	3	74	0	0	300	300	391	46	0	1	1	blank2r.bmp	0	1	+	0	1	blank2r.bmp	252	1	ZHHZ	306	1	krank	559	0	0	0	0	0	0	0	0	0	0	0	0	0	0	0	0	0	0	0	0	0	0	0	0	0	0	0	0	0	0	0	0	0	0	0	0	0	0	0
070319	09:41:19	09:49:26	484534	5.0.10.0	5_exp_noRW	2	Rpleas_acq	CS_A	CPPC	LWWL	ZHHZ	JQQJ	YFFY	DXXD	küssen	träumen	genießen	vertrauen	gütig	sonnig	krank	töten	gemein	versagen	gierig	sterben	53pct	acq_USpleas_CSpleas1_noRW	acq23456_noRW	3	75	0	0	300	300	422	50	0	1	1	blank2r.bmp	0	1	+	0	1	blank2r.bmp	252	1	CPPC	306	1	küssen	559	0	0	0	0	0	0	0	0	0	0	0	0	0	0	0	0	0	0	0	0	0	0	0	0	0	0	0	0	0	0	0	0	0	0	0	0	0	0	0
070319	09:41:19	09:49:27	486067	5.0.10.0	5_exp_noRW	2	Rpleas_acq	CS_A	CPPC	LWWL	ZHHZ	JQQJ	YFFY	DXXD	küssen	träumen	genießen	vertrauen	gütig	sonnig	krank	töten	gemein	versagen	gierig	sterben	53pct	acq_USunple_CSunple2_noRW	acq23456_noRW	3	76	0	0	300	300	362	46	0	1	1	blank2r.bmp	0	1	+	0	1	blank2r.bmp	252	1	JQQJ	306	1	versagen	559	0	0	0	0	0	0	0	0	0	0	0	0	0	0	0	0	0	0	0	0	0	0	0	0	0	0	0	0	0	0	0	0	0	0	0	0	0	0	0
070319	09:41:19	09:49:29	487813	5.0.10.0	5_exp_noRW	2	Rpleas_acq	CS_A	CPPC	LWWL	ZHHZ	JQQJ	YFFY	DXXD	küssen	träumen	genießen	vertrauen	gütig	sonnig	krank	töten	gemein	versagen	gierig	sterben	53pct	acq_USunple_CSunple2_noRW	acq23456_noRW	3	77	0	0	300	300	584	46	0	1	1	blank2r.bmp	0	1	+	0	1	blank2r.bmp	252	1	JQQJ	306	2	gierig	559	0	0	0	0	0	0	0	0	0	0	0	0	0	0	0	0	0	0	0	0	0	0	0	0	0	0	0	0	0	0	0	0	0	0	0	0	0	0	0
070319	09:41:19	09:49:31	489373	5.0.10.0	5_exp_noRW	2	Rpleas_acq	CS_A	CPPC	LWWL	ZHHZ	JQQJ	YFFY	DXXD	küssen	träumen	genießen	vertrauen	gütig	sonnig	krank	töten	gemein	versagen	gierig	sterben	47pct	acq_USpleas_CSpleas2_noRW	acq23456_noRW	3	78	0	0	300	300	373	50	0	1	1	blank2r.bmp	0	1	+	0	1	blank2r.bmp	252	1	LWWL	306	1	vertrauen	559	0	0	0	0	0	0	0	0	0	0	0	0	0	0	0	0	0	0	0	0	0	0	0	0	0	0	0	0	0	0	0	0	0	0	0	0	0	0	0
070319	09:41:19	09:49:32	490919	5.0.10.0	5_exp_noRW	2	Rpleas_acq	CS_A	CPPC	LWWL	ZHHZ	JQQJ	YFFY	DXXD	küssen	träumen	genießen	vertrauen	gütig	sonnig	krank	töten	gemein	versagen	gierig	sterben	53pct	acq_USpleas_CSpleas1_noRW	acq23456_noRW	3	79	0	0	300	300	383	50	0	1	1	blank2r.bmp	0	1	+	0	1	blank2r.bmp	252	1	CPPC	306	2	träumen	559	0	0	0	0	0	0	0	0	0	0	0	0	0	0	0	0	0	0	0	0	0	0	0	0	0	0	0	0	0	0	0	0	0	0	0	0	0	0	0
070319	09:41:19	09:49:34	492611	5.0.10.0	5_exp_noRW	2	Rpleas_acq	CS_A	CPPC	LWWL	ZHHZ	JQQJ	YFFY	DXXD	küssen	träumen	genießen	vertrauen	gütig	sonnig	krank	töten	gemein	versagen	gierig	sterben	53pct	acq_USunple_CSpleas1_noRW	acq23456_noRW	3	80	0	0	300	300	304	50	0	0	1	blank2r.bmp	0	1	+	0	1	blank2r.bmp	252	1	CPPC	306	1	krank	559	1	FEHLER	892	0	0	0	0	0	0	0	0	0	0	0	0	0	0	0	0	0	0	0	0	0	0	0	0	0	0	0	0	0	0	0	0	0	0	0	0
070319	09:41:19	09:49:52	510444	5.0.10.0	5_exp_noRW	2	Rpleas_acq	CS_A	CPPC	LWWL	ZHHZ	JQQJ	YFFY	DXXD	küssen	träumen	genießen	vertrauen	gütig	sonnig	krank	töten	gemein	versagen	gierig	sterben	53pct	acq_USunple_CSunple2_noRW	acq23456_noRW	4	1	0	0	300	300	546	46	0	1	1	blank2r.bmp	0	1	+	0	1	blank2r.bmp	252	1	JQQJ	306	2	gierig	559	0	0	0	0	0	0	0	0	0	0	0	0	0	0	0	0	0	0	0	0	0	0	0	0	0	0	0	0	0	0	0	0	0	0	0	0	0	0	0
