date	time	script.currenttime	script.elapsedtime	build	script.currentexpt	subject	expressions.LRpleas_acq	expressions.conditionCS_A	expressions.CSpleas_1	expressions.CSpleas_2	expressions.CSunple_1	expressions.CSunple_2	expressions.distractor_1	expressions.distractor_2	expressions.US_pleas1	expressions.US_pleas2	expressions.US_pleas3	expressions.US_pleas4	expressions.US_pleas5	expressions.US_pleas6	expressions.US_unple1	expressions.US_unple2	expressions.US_unple3	expressions.US_unple4	expressions.US_unple5	expressions.US_unple6	counter.positions_noRW	trialcode	blockcode	blocknum	trialnum	windowcenter	inwindow	pretrialpause	posttrialpause	latency	response	expressions.correctedscore	correct	stimulusnumber1	stimulusitem1	stimulusonset1	stimulusnumber2	stimulusitem2	stimulusonset2	stimulusnumber3	stimulusitem3	stimulusonset3	stimulusnumber4	stimulusitem4	stimulusonset4	stimulusnumber5	stimulusitem5	stimulusonset5	stimulusnumber6	stimulusitem6	stimulusonset6	stimulusnumber7	stimulusitem7	stimulusonset7	stimulusnumber8	stimulusitem8	stimulusonset8	stimulusnumber9	stimulusitem9	stimulusonset9	stimulusnumber10	stimulusitem10	stimulusonset10	stimulusnumber11	stimulusitem11	stimulusonset11	stimulusnumber12	stimulusitem12	stimulusonset12	stimulusnumber13	stimulusitem13	stimulusonset13	stimulusnumber14	stimulusitem14	stimulusonset14	stimulusnumber15	stimulusitem15	stimulusonset15	stimulusnumber16	stimulusitem16	stimulusonset16	stimulusnumber17	stimulusitem17	stimulusonset17	stimulusnumber18	stimulusitem18	stimulusonset18
070319	10:21:53	10:23:33	97825	5.0.10.0	5_exp_noRW	4	Rpleas_acq	CS_A	DXXD	JQQJ	CPPC	YFFY	LWWL	ZHHZ	vertrauen	sonnig	genießen	träumen	küssen	gütig	versagen	sterben	gemein	töten	krank	gierig	47pct	acq_USunple_CSpleas1_noRW	acq1_noRW	1	1	0	0	300	300	1040	46	0	1	1	blank2r.bmp	0	1	+	0	1	blank2r.bmp	252	1	DXXD	306	3	gemein	559	0	0	0	0	0	0	0	0	0	0	0	0	0	0	0	0	0	0	0	0	0	0	0	0	0	0	0	0	0	0	0	0	0	0	0	0	0	0	0
070319	10:21:53	10:23:35	99624	5.0.10.0	5_exp_noRW	4	Rpleas_acq	CS_A	DXXD	JQQJ	CPPC	YFFY	LWWL	ZHHZ	vertrauen	sonnig	genießen	träumen	küssen	gütig	versagen	sterben	gemein	töten	krank	gierig	47pct	acq_USpleas_CSpleas2_noRW	acq1_noRW	1	2	0	0	300	300	626	50	0	1	1	blank2r.bmp	0	1	+	0	1	blank2r.bmp	252	1	JQQJ	306	2	küssen	559	0	0	0	0	0	0	0	0	0	0	0	0	0	0	0	0	0	0	0	0	0	0	0	0	0	0	0	0	0	0	0	0	0	0	0	0	0	0	0
070319	10:21:53	10:23:38	102490	5.0.10.0	5_exp_noRW	4	Rpleas_acq	CS_A	DXXD	JQQJ	CPPC	YFFY	LWWL	ZHHZ	vertrauen	sonnig	genießen	träumen	küssen	gütig	versagen	sterben	gemein	töten	krank	gierig	53pct	acq_USpleas_CSunple2_noRW	acq1_noRW	1	3	0	0	300	300	1703	50	0	1	1	blank2r.bmp	0	1	+	0	1	blank2r.bmp	252	1	YFFY	306	3	gütig	559	0	0	0	0	0	0	0	0	0	0	0	0	0	0	0	0	0	0	0	0	0	0	0	0	0	0	0	0	0	0	0	0	0	0	0	0	0	0	0
070319	10:21:53	10:23:40	104396	5.0.10.0	5_exp_noRW	4	Rpleas_acq	CS_A	DXXD	JQQJ	CPPC	YFFY	LWWL	ZHHZ	vertrauen	sonnig	genießen	träumen	küssen	gütig	versagen	sterben	gemein	töten	krank	gierig	47pct	acq_USpleas_CSpleas2_noRW	acq1_noRW	1	4	0	0	300	300	725	50	0	1	1	blank2r.bmp	0	1	+	0	1	blank2r.bmp	252	1	JQQJ	306	3	gütig	559	0	0	0	0	0	0	0	0	0	0	0	0	0	0	0	0	0	0	0	0	0	0	0	0	0	0	0	0	0	0	0	0	0	0	0	0	0	0	0
070319	10:21:53	10:23:41	106221	5.0.10.0	5_exp_noRW	4	Rpleas_acq	CS_A	DXXD	JQQJ	CPPC	YFFY	LWWL	ZHHZ	vertrauen	sonnig	genießen	träumen	küssen	gütig	versagen	sterben	gemein	töten	krank	gierig	47pct	acq_USunple_CSunple2_noRW	acq1_noRW	1	5	0	0	300	300	645	46	0	1	1	blank2r.bmp	0	1	+	0	1	blank2r.bmp	252	1	YFFY	306	2	krank	559	0	0	0	0	0	0	0	0	0	0	0	0	0	0	0	0	0	0	0	0	0	0	0	0	0	0	0	0	0	0	0	0	0	0	0	0	0	0	0
070319	10:21:53	10:23:43	107967	5.0.10.0	5_exp_noRW	4	Rpleas_acq	CS_A	DXXD	JQQJ	CPPC	YFFY	LWWL	ZHHZ	vertrauen	sonnig	genießen	träumen	küssen	gütig	versagen	sterben	gemein	töten	krank	gierig	47pct	acq_USpleas_CSpleas2_noRW	acq1_noRW	1	6	0	0	300	300	568	50	0	1	1	blank2r.bmp	0	1	+	0	1	blank2r.bmp	252	1	JQQJ	306	1	träumen	559	0	0	0	0	0	0	0	0	0	0	0	0	0	0	0	0	0	0	0	0	0	0	0	0	0	0	0	0	0	0	0	0	0	0	0	0	0	0	0
070319	10:21:53	10:23:45	109700	5.0.10.0	5_exp_noRW	4	Rpleas_acq	CS_A	DXXD	JQQJ	CPPC	YFFY	LWWL	ZHHZ	vertrauen	sonnig	genießen	träumen	küssen	gütig	versagen	sterben	gemein	töten	krank	gierig	47pct	acq_USpleas_CSpleas1_noRW	acq1_noRW	1	7	0	0	300	300	545	50	0	1	1	blank2r.bmp	0	1	+	0	1	blank2r.bmp	252	1	DXXD	306	3	genießen	559	0	0	0	0	0	0	0	0	0	0	0	0	0	0	0	0	0	0	0	0	0	0	0	0	0	0	0	0	0	0	0	0	0	0	0	0	0	0	0
070319	10:21:53	10:23:47	111673	5.0.10.0	5_exp_noRW	4	Rpleas_acq	CS_A	DXXD	JQQJ	CPPC	YFFY	LWWL	ZHHZ	vertrauen	sonnig	genießen	träumen	küssen	gütig	versagen	sterben	gemein	töten	krank	gierig	53pct	acq_USunple_CSunple1_noRW	acq1_noRW	1	8	0	0	300	300	806	46	0	1	1	blank2r.bmp	0	1	+	0	1	blank2r.bmp	252	1	CPPC	306	3	gemein	559	0	0	0	0	0	0	0	0	0	0	0	0	0	0	0	0	0	0	0	0	0	0	0	0	0	0	0	0	0	0	0	0	0	0	0	0	0	0	0
070319	10:21:53	10:23:49	113392	5.0.10.0	5_exp_noRW	4	Rpleas_acq	CS_A	DXXD	JQQJ	CPPC	YFFY	LWWL	ZHHZ	vertrauen	sonnig	genießen	träumen	küssen	gütig	versagen	sterben	gemein	töten	krank	gierig	53pct	acq_USunple_CSpleas2_noRW	acq1_noRW	1	9	0	0	300	300	552	46	0	1	1	blank2r.bmp	0	1	+	0	1	blank2r.bmp	252	1	JQQJ	306	1	töten	559	0	0	0	0	0	0	0	0	0	0	0	0	0	0	0	0	0	0	0	0	0	0	0	0	0	0	0	0	0	0	0	0	0	0	0	0	0	0	0
070319	10:21:53	10:23:50	114964	5.0.10.0	5_exp_noRW	4	Rpleas_acq	CS_A	DXXD	JQQJ	CPPC	YFFY	LWWL	ZHHZ	vertrauen	sonnig	genießen	träumen	küssen	gütig	versagen	sterben	gemein	töten	krank	gierig	53pct	acq_USunple_CSunple2_noRW	acq1_noRW	1	10	0	0	300	300	402	46	0	1	1	blank2r.bmp	0	1	+	0	1	blank2r.bmp	252	1	YFFY	306	1	töten	559	0	0	0	0	0	0	0	0	0	0	0	0	0	0	0	0	0	0	0	0	0	0	0	0	0	0	0	0	0	0	0	0	0	0	0	0	0	0	0
070319	10:21:53	10:23:52	116590	5.0.10.0	5_exp_noRW	4	Rpleas_acq	CS_A	DXXD	JQQJ	CPPC	YFFY	LWWL	ZHHZ	vertrauen	sonnig	genießen	träumen	küssen	gütig	versagen	sterben	gemein	töten	krank	gierig	47pct	acq_USpleas_CSpleas1_noRW	acq1_noRW	1	11	0	0	300	300	455	50	0	1	1	blank2r.bmp	0	1	+	0	1	blank2r.bmp	252	1	DXXD	306	2	sonnig	559	0	0	0	0	0	0	0	0	0	0	0	0	0	0	0	0	0	0	0	0	0	0	0	0	0	0	0	0	0	0	0	0	0	0	0	0	0	0	0
070319	10:21:53	10:23:53	118230	5.0.10.0	5_exp_noRW	4	Rpleas_acq	CS_A	DXXD	JQQJ	CPPC	YFFY	LWWL	ZHHZ	vertrauen	sonnig	genießen	träumen	küssen	gütig	versagen	sterben	gemein	töten	krank	gierig	47pct	acq_USunple_CSunple1_noRW	acq1_noRW	1	12	0	0	300	300	471	46	0	1	1	blank2r.bmp	0	1	+	0	1	blank2r.bmp	252	1	CPPC	306	1	versagen	559	0	0	0	0	0	0	0	0	0	0	0	0	0	0	0	0	0	0	0	0	0	0	0	0	0	0	0	0	0	0	0	0	0	0	0	0	0	0	0
070319	10:21:53	10:23:55	119909	5.0.10.0	5_exp_noRW	4	Rpleas_acq	CS_A	DXXD	JQQJ	CPPC	YFFY	LWWL	ZHHZ	vertrauen	sonnig	genießen	träumen	küssen	gütig	versagen	sterben	gemein	töten	krank	gierig	47pct	acq_USunple_CSunple1_noRW	acq1_noRW	1	13	0	0	300	300	512	46	0	1	1	blank2r.bmp	0	1	+	0	1	blank2r.bmp	252	1	CPPC	306	2	sterben	559	0	0	0	0	0	0	0	0	0	0	0	0	0	0	0	0	0	0	0	0	0	0	0	0	0	0	0	0	0	0	0	0	0	0	0	0	0	0	0
070319	10:21:53	10:23:57	121548	5.0.10.0	5_exp_noRW	4	Rpleas_acq	CS_A	DXXD	JQQJ	CPPC	YFFY	LWWL	ZHHZ	vertrauen	sonnig	genießen	träumen	küssen	gütig	versagen	sterben	gemein	töten	krank	gierig	47pct	acq_USunple_CSunple2_noRW	acq1_noRW	1	14	0	0	300	300	478	46	0	1	1	blank2r.bmp	0	1	+	0	1	blank2r.bmp	252	1	YFFY	306	3	gierig	559	0	0	0	0	0	0	0	0	0	0	0	0	0	0	0	0	0	0	0	0	0	0	0	0	0	0	0	0	0	0	0	0	0	0	0	0	0	0	0
070319	10:21:53	10:23:58	123094	5.0.10.0	5_exp_noRW	4	Rpleas_acq	CS_A	DXXD	JQQJ	CPPC	YFFY	LWWL	ZHHZ	vertrauen	sonnig	genießen	träumen	küssen	gütig	versagen	sterben	gemein	töten	krank	gierig	53pct	acq_USpleas_CSpleas2_noRW	acq1_noRW	1	15	0	0	300	300	366	50	0	1	1	blank2r.bmp	0	1	+	0	1	blank2r.bmp	252	1	JQQJ	306	2	küssen	559	0	0	0	0	0	0	0	0	0	0	0	0	0	0	0	0	0	0	0	0	0	0	0	0	0	0	0	0	0	0	0	0	0	0	0	0	0	0	0
070319	10:21:53	10:24:00	124787	5.0.10.0	5_exp_noRW	4	Rpleas_acq	CS_A	DXXD	JQQJ	CPPC	YFFY	LWWL	ZHHZ	vertrauen	sonnig	genießen	träumen	küssen	gütig	versagen	sterben	gemein	töten	krank	gierig	47pct	acq_USpleas_CSunple1_noRW	acq1_noRW	1	16	0	0	300	300	527	50	0	1	1	blank2r.bmp	0	1	+	0	1	blank2r.bmp	252	1	CPPC	306	3	genießen	559	0	0	0	0	0	0	0	0	0	0	0	0	0	0	0	0	0	0	0	0	0	0	0	0	0	0	0	0	0	0	0	0	0	0	0	0	0	0	0
070319	10:21:53	10:24:02	126466	5.0.10.0	5_exp_noRW	4	Rpleas_acq	CS_A	DXXD	JQQJ	CPPC	YFFY	LWWL	ZHHZ	vertrauen	sonnig	genießen	träumen	küssen	gütig	versagen	sterben	gemein	töten	krank	gierig	53pct	acq_USpleas_CSpleas1_noRW	acq1_noRW	1	17	0	0	300	300	499	50	0	1	1	blank2r.bmp	0	1	+	0	1	blank2r.bmp	252	1	DXXD	306	1	vertrauen	559	0	0	0	0	0	0	0	0	0	0	0	0	0	0	0	0	0	0	0	0	0	0	0	0	0	0	0	0	0	0	0	0	0	0	0	0	0	0	0
070319	10:21:53	10:24:03	128039	5.0.10.0	5_exp_noRW	4	Rpleas_acq	CS_A	DXXD	JQQJ	CPPC	YFFY	LWWL	ZHHZ	vertrauen	sonnig	genießen	träumen	küssen	gütig	versagen	sterben	gemein	töten	krank	gierig	47pct	acq_USunple_CSunple2_noRW	acq1_noRW	1	18	0	0	300	300	386	46	0	1	1	blank2r.bmp	0	1	+	0	1	blank2r.bmp	252	1	YFFY	306	3	gierig	559	0	0	0	0	0	0	0	0	0	0	0	0	0	0	0	0	0	0	0	0	0	0	0	0	0	0	0	0	0	0	0	0	0	0	0	0	0	0	0
070319	10:21:53	10:24:05	129652	5.0.10.0	5_exp_noRW	4	Rpleas_acq	CS_A	DXXD	JQQJ	CPPC	YFFY	LWWL	ZHHZ	vertrauen	sonnig	genießen	träumen	küssen	gütig	versagen	sterben	gemein	töten	krank	gierig	53pct	acq_USpleas_CSpleas1_noRW	acq1_noRW	1	19	0	0	300	300	449	50	0	1	1	blank2r.bmp	0	1	+	0	1	blank2r.bmp	252	1	DXXD	306	3	genießen	559	0	0	0	0	0	0	0	0	0	0	0	0	0	0	0	0	0	0	0	0	0	0	0	0	0	0	0	0	0	0	0	0	0	0	0	0	0	0	0
070319	10:21:53	10:24:07	131358	5.0.10.0	5_exp_noRW	4	Rpleas_acq	CS_A	DXXD	JQQJ	CPPC	YFFY	LWWL	ZHHZ	vertrauen	sonnig	genießen	träumen	küssen	gütig	versagen	sterben	gemein	töten	krank	gierig	53pct	acq_USunple_CSunple1_noRW	acq1_noRW	1	20	0	0	300	300	528	46	0	1	1	blank2r.bmp	0	1	+	0	1	blank2r.bmp	252	1	CPPC	306	3	gemein	559	0	0	0	0	0	0	0	0	0	0	0	0	0	0	0	0	0	0	0	0	0	0	0	0	0	0	0	0	0	0	0	0	0	0	0	0	0	0	0
070319	10:21:53	10:24:08	133090	5.0.10.0	5_exp_noRW	4	Rpleas_acq	CS_A	DXXD	JQQJ	CPPC	YFFY	LWWL	ZHHZ	vertrauen	sonnig	genießen	träumen	küssen	gütig	versagen	sterben	gemein	töten	krank	gierig	53pct	acq_USunple_CSunple1_noRW	acq1_noRW	1	21	0	0	300	300	546	46	0	1	1	blank2r.bmp	0	1	+	0	1	blank2r.bmp	252	1	CPPC	306	2	sterben	559	0	0	0	0	0	0	0	0	0	0	0	0	0	0	0	0	0	0	0	0	0	0	0	0	0	0	0	0	0	0	0	0	0	0	0	0	0	0	0
070319	10:21:53	10:24:10	134796	5.0.10.0	5_exp_noRW	4	Rpleas_acq	CS_A	DXXD	JQQJ	CPPC	YFFY	LWWL	ZHHZ	vertrauen	sonnig	genießen	träumen	küssen	gütig	versagen	sterben	gemein	töten	krank	gierig	47pct	acq_USpleas_CSunple1_noRW	acq1_noRW	1	22	0	0	300	300	536	50	0	1	1	blank2r.bmp	0	1	+	0	1	blank2r.bmp	252	1	CPPC	306	1	vertrauen	559	0	0	0	0	0	0	0	0	0	0	0	0	0	0	0	0	0	0	0	0	0	0	0	0	0	0	0	0	0	0	0	0	0	0	0	0	0	0	0
070319	10:21:53	10:24:12	136449	5.0.10.0	5_exp_noRW	4	Rpleas_acq	CS_A	DXXD	JQQJ	CPPC	YFFY	LWWL	ZHHZ	vertrauen	sonnig	genießen	träumen	küssen	gütig	versagen	sterben	gemein	töten	krank	gierig	47pct	acq_USpleas_CSpleas2_noRW	acq1_noRW	1	23	0	0	300	300	487	50	0	1	1	blank2r.bmp	0	1	+	0	1	blank2r.bmp	252	1	JQQJ	306	1	träumen	559	0	0	0	0	0	0	0	0	0	0	0	0	0	0	0	0	0	0	0	0	0	0	0	0	0	0	0	0	0	0	0	0	0	0	0	0	0	0	0
070319	10:21:53	10:24:13	138062	5.0.10.0	5_exp_noRW	4	Rpleas_acq	CS_A	DXXD	JQQJ	CPPC	YFFY	LWWL	ZHHZ	vertrauen	sonnig	genießen	träumen	küssen	gütig	versagen	sterben	gemein	töten	krank	gierig	47pct	acq_USpleas_CSpleas1_noRW	acq1_noRW	1	24	0	0	300	300	435	50	0	1	1	blank2r.bmp	0	1	+	0	1	blank2r.bmp	252	1	DXXD	306	1	vertrauen	559	0	0	0	0	0	0	0	0	0	0	0	0	0	0	0	0	0	0	0	0	0	0	0	0	0	0	0	0	0	0	0	0	0	0	0	0	0	0	0
070319	10:21:53	10:24:15	139807	5.0.10.0	5_exp_noRW	4	Rpleas_acq	CS_A	DXXD	JQQJ	CPPC	YFFY	LWWL	ZHHZ	vertrauen	sonnig	genießen	träumen	küssen	gütig	versagen	sterben	gemein	töten	krank	gierig	47pct	acq_USpleas_CSpleas2_noRW	acq1_noRW	1	25	0	0	300	300	561	50	0	1	1	blank2r.bmp	0	1	+	0	1	blank2r.bmp	252	1	JQQJ	306	3	gütig	559	0	0	0	0	0	0	0	0	0	0	0	0	0	0	0	0	0	0	0	0	0	0	0	0	0	0	0	0	0	0	0	0	0	0	0	0	0	0	0
070319	10:21:53	10:24:17	141433	5.0.10.0	5_exp_noRW	4	Rpleas_acq	CS_A	DXXD	JQQJ	CPPC	YFFY	LWWL	ZHHZ	vertrauen	sonnig	genießen	träumen	küssen	gütig	versagen	sterben	gemein	töten	krank	gierig	53pct	acq_USunple_CSunple2_noRW	acq1_noRW	1	26	0	0	300	300	459	46	0	1	1	blank2r.bmp	0	1	+	0	1	blank2r.bmp	252	1	YFFY	306	2	krank	559	0	0	0	0	0	0	0	0	0	0	0	0	0	0	0	0	0	0	0	0	0	0	0	0	0	0	0	0	0	0	0	0	0	0	0	0	0	0	0
070319	10:21:53	10:24:18	143246	5.0.10.0	5_exp_noRW	4	Rpleas_acq	CS_A	DXXD	JQQJ	CPPC	YFFY	LWWL	ZHHZ	vertrauen	sonnig	genießen	träumen	küssen	gütig	versagen	sterben	gemein	töten	krank	gierig	53pct	acq_USpleas_CSpleas2_noRW	acq1_noRW	1	27	0	0	300	300	634	50	0	1	1	blank2r.bmp	0	1	+	0	1	blank2r.bmp	252	1	JQQJ	306	3	gütig	559	0	0	0	0	0	0	0	0	0	0	0	0	0	0	0	0	0	0	0	0	0	0	0	0	0	0	0	0	0	0	0	0	0	0	0	0	0	0	0
070319	10:21:53	10:24:20	144872	5.0.10.0	5_exp_noRW	4	Rpleas_acq	CS_A	DXXD	JQQJ	CPPC	YFFY	LWWL	ZHHZ	vertrauen	sonnig	genießen	träumen	küssen	gütig	versagen	sterben	gemein	töten	krank	gierig	47pct	acq_USunple_CSunple1_noRW	acq1_noRW	1	28	0	0	300	300	461	46	0	1	1	blank2r.bmp	0	1	+	0	1	blank2r.bmp	252	1	CPPC	306	1	versagen	559	0	0	0	0	0	0	0	0	0	0	0	0	0	0	0	0	0	0	0	0	0	0	0	0	0	0	0	0	0	0	0	0	0	0	0	0	0	0	0
070319	10:21:53	10:24:22	146498	5.0.10.0	5_exp_noRW	4	Rpleas_acq	CS_A	DXXD	JQQJ	CPPC	YFFY	LWWL	ZHHZ	vertrauen	sonnig	genießen	träumen	küssen	gütig	versagen	sterben	gemein	töten	krank	gierig	47pct	acq_USpleas_CSpleas1_noRW	acq1_noRW	1	29	0	0	300	300	450	50	0	1	1	blank2r.bmp	0	1	+	0	1	blank2r.bmp	252	1	DXXD	306	2	sonnig	559	0	0	0	0	0	0	0	0	0	0	0	0	0	0	0	0	0	0	0	0	0	0	0	0	0	0	0	0	0	0	0	0	0	0	0	0	0	0	0
070319	10:21:53	10:24:23	148151	5.0.10.0	5_exp_noRW	4	Rpleas_acq	CS_A	DXXD	JQQJ	CPPC	YFFY	LWWL	ZHHZ	vertrauen	sonnig	genießen	träumen	küssen	gütig	versagen	sterben	gemein	töten	krank	gierig	47pct	acq_USunple_CSunple2_noRW	acq1_noRW	1	30	0	0	300	300	467	46	0	1	1	blank2r.bmp	0	1	+	0	1	blank2r.bmp	252	1	YFFY	306	1	töten	559	0	0	0	0	0	0	0	0	0	0	0	0	0	0	0	0	0	0	0	0	0	0	0	0	0	0	0	0	0	0	0	0	0	0	0	0	0	0	0
070319	10:21:53	10:24:25	149790	5.0.10.0	5_exp_noRW	4	Rpleas_acq	CS_A	DXXD	JQQJ	CPPC	YFFY	LWWL	ZHHZ	vertrauen	sonnig	genießen	träumen	küssen	gütig	versagen	sterben	gemein	töten	krank	gierig	47pct	acq_USpleas_CSpleas1_noRW	acq1_noRW	1	31	0	0	300	300	472	50	0	1	1	blank2r.bmp	0	1	+	0	1	blank2r.bmp	252	1	DXXD	306	3	genießen	559	0	0	0	0	0	0	0	0	0	0	0	0	0	0	0	0	0	0	0	0	0	0	0	0	0	0	0	0	0	0	0	0	0	0	0	0	0	0	0
070319	10:21:53	10:24:27	151469	5.0.10.0	5_exp_noRW	4	Rpleas_acq	CS_A	DXXD	JQQJ	CPPC	YFFY	LWWL	ZHHZ	vertrauen	sonnig	genießen	träumen	küssen	gütig	versagen	sterben	gemein	töten	krank	gierig	53pct	acq_USpleas_CSunple2_noRW	acq1_noRW	1	32	0	0	300	300	494	50	0	1	1	blank2r.bmp	0	1	+	0	1	blank2r.bmp	252	1	YFFY	306	2	küssen	559	0	0	0	0	0	0	0	0	0	0	0	0	0	0	0	0	0	0	0	0	0	0	0	0	0	0	0	0	0	0	0	0	0	0	0	0	0	0	0
070319	10:21:53	10:24:28	153002	5.0.10.0	5_exp_noRW	4	Rpleas_acq	CS_A	DXXD	JQQJ	CPPC	YFFY	LWWL	ZHHZ	vertrauen	sonnig	genießen	träumen	küssen	gütig	versagen	sterben	gemein	töten	krank	gierig	53pct	acq_USpleas_CSpleas2_noRW	acq1_noRW	1	33	0	0	300	300	370	50	0	1	1	blank2r.bmp	0	1	+	0	1	blank2r.bmp	252	1	JQQJ	306	2	küssen	559	0	0	0	0	0	0	0	0	0	0	0	0	0	0	0	0	0	0	0	0	0	0	0	0	0	0	0	0	0	0	0	0	0	0	0	0	0	0	0
070319	10:21:53	10:24:30	154668	5.0.10.0	5_exp_noRW	4	Rpleas_acq	CS_A	DXXD	JQQJ	CPPC	YFFY	LWWL	ZHHZ	vertrauen	sonnig	genießen	träumen	küssen	gütig	versagen	sterben	gemein	töten	krank	gierig	53pct	acq_USpleas_CSpleas1_noRW	acq1_noRW	1	34	0	0	300	300	490	50	0	1	1	blank2r.bmp	0	1	+	0	1	blank2r.bmp	252	1	DXXD	306	1	vertrauen	559	0	0	0	0	0	0	0	0	0	0	0	0	0	0	0	0	0	0	0	0	0	0	0	0	0	0	0	0	0	0	0	0	0	0	0	0	0	0	0
070319	10:21:53	10:24:32	156281	5.0.10.0	5_exp_noRW	4	Rpleas_acq	CS_A	DXXD	JQQJ	CPPC	YFFY	LWWL	ZHHZ	vertrauen	sonnig	genießen	träumen	küssen	gütig	versagen	sterben	gemein	töten	krank	gierig	53pct	acq_USunple_CSunple1_noRW	acq1_noRW	1	35	0	0	300	300	432	46	0	1	1	blank2r.bmp	0	1	+	0	1	blank2r.bmp	252	1	CPPC	306	2	sterben	559	0	0	0	0	0	0	0	0	0	0	0	0	0	0	0	0	0	0	0	0	0	0	0	0	0	0	0	0	0	0	0	0	0	0	0	0	0	0	0
070319	10:21:53	10:24:33	157973	5.0.10.0	5_exp_noRW	4	Rpleas_acq	CS_A	DXXD	JQQJ	CPPC	YFFY	LWWL	ZHHZ	vertrauen	sonnig	genießen	träumen	küssen	gütig	versagen	sterben	gemein	töten	krank	gierig	47pct	acq_USunple_CSunple1_noRW	acq1_noRW	1	36	0	0	300	300	514	46	0	1	1	blank2r.bmp	0	1	+	0	1	blank2r.bmp	252	1	CPPC	306	1	versagen	559	0	0	0	0	0	0	0	0	0	0	0	0	0	0	0	0	0	0	0	0	0	0	0	0	0	0	0	0	0	0	0	0	0	0	0	0	0	0	0
070319	10:21:53	10:24:35	159506	5.0.10.0	5_exp_noRW	4	Rpleas_acq	CS_A	DXXD	JQQJ	CPPC	YFFY	LWWL	ZHHZ	vertrauen	sonnig	genießen	träumen	küssen	gütig	versagen	sterben	gemein	töten	krank	gierig	47pct	acq_USunple_CSpleas1_noRW	acq1_noRW	1	37	0	0	300	300	370	46	0	1	1	blank2r.bmp	0	1	+	0	1	blank2r.bmp	252	1	DXXD	306	2	sterben	559	0	0	0	0	0	0	0	0	0	0	0	0	0	0	0	0	0	0	0	0	0	0	0	0	0	0	0	0	0	0	0	0	0	0	0	0	0	0	0
070319	10:21:53	10:24:36	161065	5.0.10.0	5_exp_noRW	4	Rpleas_acq	CS_A	DXXD	JQQJ	CPPC	YFFY	LWWL	ZHHZ	vertrauen	sonnig	genießen	träumen	küssen	gütig	versagen	sterben	gemein	töten	krank	gierig	47pct	acq_USunple_CSunple2_noRW	acq1_noRW	1	38	0	0	300	300	377	46	0	1	1	blank2r.bmp	0	1	+	0	1	blank2r.bmp	252	1	YFFY	306	1	töten	559	0	0	0	0	0	0	0	0	0	0	0	0	0	0	0	0	0	0	0	0	0	0	0	0	0	0	0	0	0	0	0	0	0	0	0	0	0	0	0
070319	10:21:53	10:24:38	162758	5.0.10.0	5_exp_noRW	4	Rpleas_acq	CS_A	DXXD	JQQJ	CPPC	YFFY	LWWL	ZHHZ	vertrauen	sonnig	genießen	träumen	küssen	gütig	versagen	sterben	gemein	töten	krank	gierig	53pct	acq_USunple_CSunple2_noRW	acq1_noRW	1	39	0	0	300	300	522	46	0	1	1	blank2r.bmp	0	1	+	0	1	blank2r.bmp	252	1	YFFY	306	3	gierig	559	0	0	0	0	0	0	0	0	0	0	0	0	0	0	0	0	0	0	0	0	0	0	0	0	0	0	0	0	0	0	0	0	0	0	0	0	0	0	0
070319	10:21:53	10:24:40	164357	5.0.10.0	5_exp_noRW	4	Rpleas_acq	CS_A	DXXD	JQQJ	CPPC	YFFY	LWWL	ZHHZ	vertrauen	sonnig	genießen	träumen	küssen	gütig	versagen	sterben	gemein	töten	krank	gierig	47pct	acq_USunple_CSpleas2_noRW	acq1_noRW	1	40	0	0	300	300	412	46	0	1	1	blank2r.bmp	0	1	+	0	1	blank2r.bmp	252	1	JQQJ	306	2	krank	559	0	0	0	0	0	0	0	0	0	0	0	0	0	0	0	0	0	0	0	0	0	0	0	0	0	0	0	0	0	0	0	0	0	0	0	0	0	0	0
070319	10:21:53	10:24:41	165890	5.0.10.0	5_exp_noRW	4	Rpleas_acq	CS_A	DXXD	JQQJ	CPPC	YFFY	LWWL	ZHHZ	vertrauen	sonnig	genießen	träumen	küssen	gütig	versagen	sterben	gemein	töten	krank	gierig	47pct	acq_USpleas_CSpleas1_noRW	acq1_noRW	1	41	0	0	300	300	371	50	0	1	1	blank2r.bmp	0	1	+	0	1	blank2r.bmp	252	1	DXXD	306	2	sonnig	559	0	0	0	0	0	0	0	0	0	0	0	0	0	0	0	0	0	0	0	0	0	0	0	0	0	0	0	0	0	0	0	0	0	0	0	0	0	0	0
070319	10:21:53	10:24:43	167543	5.0.10.0	5_exp_noRW	4	Rpleas_acq	CS_A	DXXD	JQQJ	CPPC	YFFY	LWWL	ZHHZ	vertrauen	sonnig	genießen	träumen	küssen	gütig	versagen	sterben	gemein	töten	krank	gierig	47pct	acq_USpleas_CSpleas2_noRW	acq1_noRW	1	42	0	0	300	300	469	50	0	1	1	blank2r.bmp	0	1	+	0	1	blank2r.bmp	252	1	JQQJ	306	1	träumen	559	0	0	0	0	0	0	0	0	0	0	0	0	0	0	0	0	0	0	0	0	0	0	0	0	0	0	0	0	0	0	0	0	0	0	0	0	0	0	0
070319	10:21:53	10:24:44	169182	5.0.10.0	5_exp_noRW	4	Rpleas_acq	CS_A	DXXD	JQQJ	CPPC	YFFY	LWWL	ZHHZ	vertrauen	sonnig	genießen	träumen	küssen	gütig	versagen	sterben	gemein	töten	krank	gierig	53pct	acq_USpleas_CSpleas2_noRW	acq1_noRW	1	43	0	0	300	300	467	50	0	1	1	blank2r.bmp	0	1	+	0	1	blank2r.bmp	252	1	JQQJ	306	2	küssen	559	0	0	0	0	0	0	0	0	0	0	0	0	0	0	0	0	0	0	0	0	0	0	0	0	0	0	0	0	0	0	0	0	0	0	0	0	0	0	0
070319	10:21:53	10:24:46	170901	5.0.10.0	5_exp_noRW	4	Rpleas_acq	CS_A	DXXD	JQQJ	CPPC	YFFY	LWWL	ZHHZ	vertrauen	sonnig	genießen	träumen	küssen	gütig	versagen	sterben	gemein	töten	krank	gierig	47pct	acq_USunple_CSpleas1_noRW	acq1_noRW	1	44	0	0	300	300	547	46	0	1	1	blank2r.bmp	0	1	+	0	1	blank2r.bmp	252	1	DXXD	306	1	versagen	559	0	0	0	0	0	0	0	0	0	0	0	0	0	0	0	0	0	0	0	0	0	0	0	0	0	0	0	0	0	0	0	0	0	0	0	0	0	0	0
070319	10:21:53	10:24:48	172994	5.0.10.0	5_exp_noRW	4	Rpleas_acq	CS_A	DXXD	JQQJ	CPPC	YFFY	LWWL	ZHHZ	vertrauen	sonnig	genießen	träumen	küssen	gütig	versagen	sterben	gemein	töten	krank	gierig	47pct	acq_USpleas_CSpleas2_noRW	acq1_noRW	1	45	0	0	300	300	908	50	0	1	1	blank2r.bmp	0	1	+	0	1	blank2r.bmp	252	1	JQQJ	306	3	gütig	559	0	0	0	0	0	0	0	0	0	0	0	0	0	0	0	0	0	0	0	0	0	0	0	0	0	0	0	0	0	0	0	0	0	0	0	0	0	0	0
070319	10:21:53	10:24:50	174673	5.0.10.0	5_exp_noRW	4	Rpleas_acq	CS_A	DXXD	JQQJ	CPPC	YFFY	LWWL	ZHHZ	vertrauen	sonnig	genießen	träumen	küssen	gütig	versagen	sterben	gemein	töten	krank	gierig	47pct	acq_USunple_CSpleas2_noRW	acq1_noRW	1	46	0	0	300	300	503	46	0	1	1	blank2r.bmp	0	1	+	0	1	blank2r.bmp	252	1	JQQJ	306	3	gierig	559	0	0	0	0	0	0	0	0	0	0	0	0	0	0	0	0	0	0	0	0	0	0	0	0	0	0	0	0	0	0	0	0	0	0	0	0	0	0	0
070319	10:21:53	10:24:52	176379	5.0.10.0	5_exp_noRW	4	Rpleas_acq	CS_A	DXXD	JQQJ	CPPC	YFFY	LWWL	ZHHZ	vertrauen	sonnig	genießen	träumen	küssen	gütig	versagen	sterben	gemein	töten	krank	gierig	53pct	acq_USpleas_CSpleas1_noRW	acq1_noRW	1	47	0	0	300	300	519	50	0	1	1	blank2r.bmp	0	1	+	0	1	blank2r.bmp	252	1	DXXD	306	3	genießen	559	0	0	0	0	0	0	0	0	0	0	0	0	0	0	0	0	0	0	0	0	0	0	0	0	0	0	0	0	0	0	0	0	0	0	0	0	0	0	0
070319	10:21:53	10:24:53	177991	5.0.10.0	5_exp_noRW	4	Rpleas_acq	CS_A	DXXD	JQQJ	CPPC	YFFY	LWWL	ZHHZ	vertrauen	sonnig	genießen	träumen	küssen	gütig	versagen	sterben	gemein	töten	krank	gierig	53pct	acq_USpleas_CSunple2_noRW	acq1_noRW	1	48	0	0	300	300	434	50	0	1	1	blank2r.bmp	0	1	+	0	1	blank2r.bmp	252	1	YFFY	306	1	träumen	559	0	0	0	0	0	0	0	0	0	0	0	0	0	0	0	0	0	0	0	0	0	0	0	0	0	0	0	0	0	0	0	0	0	0	0	0	0	0	0
070319	10:21:53	10:24:55	179617	5.0.10.0	5_exp_noRW	4	Rpleas_acq	CS_A	DXXD	JQQJ	CPPC	YFFY	LWWL	ZHHZ	vertrauen	sonnig	genießen	träumen	küssen	gütig	versagen	sterben	gemein	töten	krank	gierig	53pct	acq_USunple_CSunple2_noRW	acq1_noRW	1	49	0	0	300	300	445	46	0	1	1	blank2r.bmp	0	1	+	0	1	blank2r.bmp	252	1	YFFY	306	2	krank	559	0	0	0	0	0	0	0	0	0	0	0	0	0	0	0	0	0	0	0	0	0	0	0	0	0	0	0	0	0	0	0	0	0	0	0	0	0	0	0
070319	10:21:53	10:24:57	181297	5.0.10.0	5_exp_noRW	4	Rpleas_acq	CS_A	DXXD	JQQJ	CPPC	YFFY	LWWL	ZHHZ	vertrauen	sonnig	genießen	träumen	küssen	gütig	versagen	sterben	gemein	töten	krank	gierig	53pct	acq_USpleas_CSunple1_noRW	acq1_noRW	1	50	0	0	300	300	494	50	0	1	1	blank2r.bmp	0	1	+	0	1	blank2r.bmp	252	1	CPPC	306	2	sonnig	559	0	0	0	0	0	0	0	0	0	0	0	0	0	0	0	0	0	0	0	0	0	0	0	0	0	0	0	0	0	0	0	0	0	0	0	0	0	0	0
070319	10:21:53	10:24:58	182896	5.0.10.0	5_exp_noRW	4	Rpleas_acq	CS_A	DXXD	JQQJ	CPPC	YFFY	LWWL	ZHHZ	vertrauen	sonnig	genießen	träumen	küssen	gütig	versagen	sterben	gemein	töten	krank	gierig	53pct	acq_USunple_CSunple1_noRW	acq1_noRW	1	51	0	0	300	300	425	46	0	1	1	blank2r.bmp	0	1	+	0	1	blank2r.bmp	252	1	CPPC	306	3	gemein	559	0	0	0	0	0	0	0	0	0	0	0	0	0	0	0	0	0	0	0	0	0	0	0	0	0	0	0	0	0	0	0	0	0	0	0	0	0	0	0
070319	10:21:53	10:25:00	184549	5.0.10.0	5_exp_noRW	4	Rpleas_acq	CS_A	DXXD	JQQJ	CPPC	YFFY	LWWL	ZHHZ	vertrauen	sonnig	genießen	träumen	küssen	gütig	versagen	sterben	gemein	töten	krank	gierig	47pct	acq_USunple_CSunple1_noRW	acq1_noRW	1	52	0	0	300	300	482	46	0	1	1	blank2r.bmp	0	1	+	0	1	blank2r.bmp	252	1	CPPC	306	1	versagen	559	0	0	0	0	0	0	0	0	0	0	0	0	0	0	0	0	0	0	0	0	0	0	0	0	0	0	0	0	0	0	0	0	0	0	0	0	0	0	0
070319	10:21:53	10:25:01	186108	5.0.10.0	5_exp_noRW	4	Rpleas_acq	CS_A	DXXD	JQQJ	CPPC	YFFY	LWWL	ZHHZ	vertrauen	sonnig	genießen	träumen	küssen	gütig	versagen	sterben	gemein	töten	krank	gierig	53pct	acq_USunple_CSunple2_noRW	acq1_noRW	1	53	0	0	300	300	378	46	0	1	1	blank2r.bmp	0	1	+	0	1	blank2r.bmp	252	1	YFFY	306	2	krank	559	0	0	0	0	0	0	0	0	0	0	0	0	0	0	0	0	0	0	0	0	0	0	0	0	0	0	0	0	0	0	0	0	0	0	0	0	0	0	0
070319	10:21:53	10:25:03	187694	5.0.10.0	5_exp_noRW	4	Rpleas_acq	CS_A	DXXD	JQQJ	CPPC	YFFY	LWWL	ZHHZ	vertrauen	sonnig	genießen	träumen	küssen	gütig	versagen	sterben	gemein	töten	krank	gierig	47pct	acq_USunple_CSunple2_noRW	acq1_noRW	1	54	0	0	300	300	399	46	0	1	1	blank2r.bmp	0	1	+	0	1	blank2r.bmp	252	1	YFFY	306	1	töten	559	0	0	0	0	0	0	0	0	0	0	0	0	0	0	0	0	0	0	0	0	0	0	0	0	0	0	0	0	0	0	0	0	0	0	0	0	0	0	0
070319	10:21:53	10:25:05	189347	5.0.10.0	5_exp_noRW	4	Rpleas_acq	CS_A	DXXD	JQQJ	CPPC	YFFY	LWWL	ZHHZ	vertrauen	sonnig	genießen	träumen	küssen	gütig	versagen	sterben	gemein	töten	krank	gierig	53pct	acq_USpleas_CSpleas2_noRW	acq1_noRW	1	55	0	0	300	300	478	50	0	1	1	blank2r.bmp	0	1	+	0	1	blank2r.bmp	252	1	JQQJ	306	1	träumen	559	0	0	0	0	0	0	0	0	0	0	0	0	0	0	0	0	0	0	0	0	0	0	0	0	0	0	0	0	0	0	0	0	0	0	0	0	0	0	0
070319	10:21:53	10:25:06	190906	5.0.10.0	5_exp_noRW	4	Rpleas_acq	CS_A	DXXD	JQQJ	CPPC	YFFY	LWWL	ZHHZ	vertrauen	sonnig	genießen	träumen	küssen	gütig	versagen	sterben	gemein	töten	krank	gierig	47pct	acq_USunple_CSunple1_noRW	acq1_noRW	1	56	0	0	300	300	397	46	0	1	1	blank2r.bmp	0	1	+	0	1	blank2r.bmp	252	1	CPPC	306	2	sterben	559	0	0	0	0	0	0	0	0	0	0	0	0	0	0	0	0	0	0	0	0	0	0	0	0	0	0	0	0	0	0	0	0	0	0	0	0	0	0	0
070319	10:21:53	10:25:08	192585	5.0.10.0	5_exp_noRW	4	Rpleas_acq	CS_A	DXXD	JQQJ	CPPC	YFFY	LWWL	ZHHZ	vertrauen	sonnig	genießen	träumen	küssen	gütig	versagen	sterben	gemein	töten	krank	gierig	47pct	acq_USunple_CSunple1_noRW	acq1_noRW	1	57	0	0	300	300	502	46	0	1	1	blank2r.bmp	0	1	+	0	1	blank2r.bmp	252	1	CPPC	306	3	gemein	559	0	0	0	0	0	0	0	0	0	0	0	0	0	0	0	0	0	0	0	0	0	0	0	0	0	0	0	0	0	0	0	0	0	0	0	0	0	0	0
070319	10:21:53	10:25:09	194131	5.0.10.0	5_exp_noRW	4	Rpleas_acq	CS_A	DXXD	JQQJ	CPPC	YFFY	LWWL	ZHHZ	vertrauen	sonnig	genießen	träumen	küssen	gütig	versagen	sterben	gemein	töten	krank	gierig	47pct	acq_USunple_CSunple2_noRW	acq1_noRW	1	58	0	0	300	300	370	46	0	1	1	blank2r.bmp	0	1	+	0	1	blank2r.bmp	252	1	YFFY	306	3	gierig	559	0	0	0	0	0	0	0	0	0	0	0	0	0	0	0	0	0	0	0	0	0	0	0	0	0	0	0	0	0	0	0	0	0	0	0	0	0	0	0
070319	10:21:53	10:25:11	195797	5.0.10.0	5_exp_noRW	4	Rpleas_acq	CS_A	DXXD	JQQJ	CPPC	YFFY	LWWL	ZHHZ	vertrauen	sonnig	genießen	träumen	küssen	gütig	versagen	sterben	gemein	töten	krank	gierig	53pct	acq_USpleas_CSpleas1_noRW	acq1_noRW	1	59	0	0	300	300	483	50	0	1	1	blank2r.bmp	0	1	+	0	1	blank2r.bmp	252	1	DXXD	306	2	sonnig	559	0	0	0	0	0	0	0	0	0	0	0	0	0	0	0	0	0	0	0	0	0	0	0	0	0	0	0	0	0	0	0	0	0	0	0	0	0	0	0
070319	10:21:53	10:25:13	197530	5.0.10.0	5_exp_noRW	4	Rpleas_acq	CS_A	DXXD	JQQJ	CPPC	YFFY	LWWL	ZHHZ	vertrauen	sonnig	genießen	träumen	küssen	gütig	versagen	sterben	gemein	töten	krank	gierig	47pct	acq_USpleas_CSpleas1_noRW	acq1_noRW	1	60	0	0	300	300	549	50	0	1	1	blank2r.bmp	0	1	+	0	1	blank2r.bmp	252	1	DXXD	306	1	vertrauen	559	0	0	0	0	0	0	0	0	0	0	0	0	0	0	0	0	0	0	0	0	0	0	0	0	0	0	0	0	0	0	0	0	0	0	0	0	0	0	0
070319	10:21:53	10:25:14	199129	5.0.10.0	5_exp_noRW	4	Rpleas_acq	CS_A	DXXD	JQQJ	CPPC	YFFY	LWWL	ZHHZ	vertrauen	sonnig	genießen	träumen	küssen	gütig	versagen	sterben	gemein	töten	krank	gierig	53pct	acq_USpleas_CSpleas1_noRW	acq1_noRW	1	61	0	0	300	300	419	50	0	1	1	blank2r.bmp	0	1	+	0	1	blank2r.bmp	252	1	DXXD	306	1	vertrauen	559	0	0	0	0	0	0	0	0	0	0	0	0	0	0	0	0	0	0	0	0	0	0	0	0	0	0	0	0	0	0	0	0	0	0	0	0	0	0	0
070319	10:21:53	10:25:16	200569	5.0.10.0	5_exp_noRW	4	Rpleas_acq	CS_A	DXXD	JQQJ	CPPC	YFFY	LWWL	ZHHZ	vertrauen	sonnig	genießen	träumen	küssen	gütig	versagen	sterben	gemein	töten	krank	gierig	47pct	acq_USunple_CSunple2_noRW	acq1_noRW	1	62	0	0	300	300	268	46	0	1	1	blank2r.bmp	0	1	+	0	1	blank2r.bmp	252	1	YFFY	306	1	töten	559	0	0	0	0	0	0	0	0	0	0	0	0	0	0	0	0	0	0	0	0	0	0	0	0	0	0	0	0	0	0	0	0	0	0	0	0	0	0	0
070319	10:21:53	10:25:17	202195	5.0.10.0	5_exp_noRW	4	Rpleas_acq	CS_A	DXXD	JQQJ	CPPC	YFFY	LWWL	ZHHZ	vertrauen	sonnig	genießen	träumen	küssen	gütig	versagen	sterben	gemein	töten	krank	gierig	53pct	acq_USunple_CSunple1_noRW	acq1_noRW	1	63	0	0	300	300	455	46	0	1	1	blank2r.bmp	0	1	+	0	1	blank2r.bmp	252	1	CPPC	306	3	gemein	559	0	0	0	0	0	0	0	0	0	0	0	0	0	0	0	0	0	0	0	0	0	0	0	0	0	0	0	0	0	0	0	0	0	0	0	0	0	0	0
070319	10:21:53	10:25:19	203821	5.0.10.0	5_exp_noRW	4	Rpleas_acq	CS_A	DXXD	JQQJ	CPPC	YFFY	LWWL	ZHHZ	vertrauen	sonnig	genießen	träumen	küssen	gütig	versagen	sterben	gemein	töten	krank	gierig	47pct	acq_USunple_CSunple2_noRW	acq1_noRW	1	64	0	0	300	300	443	46	0	1	1	blank2r.bmp	0	1	+	0	1	blank2r.bmp	252	1	YFFY	306	2	krank	559	0	0	0	0	0	0	0	0	0	0	0	0	0	0	0	0	0	0	0	0	0	0	0	0	0	0	0	0	0	0	0	0	0	0	0	0	0	0	0
070319	10:21:53	10:25:21	205407	5.0.10.0	5_exp_noRW	4	Rpleas_acq	CS_A	DXXD	JQQJ	CPPC	YFFY	LWWL	ZHHZ	vertrauen	sonnig	genießen	träumen	küssen	gütig	versagen	sterben	gemein	töten	krank	gierig	53pct	acq_USunple_CSunple1_noRW	acq1_noRW	1	65	0	0	300	300	414	46	0	1	1	blank2r.bmp	0	1	+	0	1	blank2r.bmp	252	1	CPPC	306	1	versagen	559	0	0	0	0	0	0	0	0	0	0	0	0	0	0	0	0	0	0	0	0	0	0	0	0	0	0	0	0	0	0	0	0	0	0	0	0	0	0	0
070319	10:21:53	10:25:22	207113	5.0.10.0	5_exp_noRW	4	Rpleas_acq	CS_A	DXXD	JQQJ	CPPC	YFFY	LWWL	ZHHZ	vertrauen	sonnig	genießen	träumen	küssen	gütig	versagen	sterben	gemein	töten	krank	gierig	53pct	acq_USpleas_CSpleas2_noRW	acq1_noRW	1	66	0	0	300	300	520	50	0	1	1	blank2r.bmp	0	1	+	0	1	blank2r.bmp	252	1	JQQJ	306	3	gütig	559	0	0	0	0	0	0	0	0	0	0	0	0	0	0	0	0	0	0	0	0	0	0	0	0	0	0	0	0	0	0	0	0	0	0	0	0	0	0	0
070319	10:21:53	10:25:24	208792	5.0.10.0	5_exp_noRW	4	Rpleas_acq	CS_A	DXXD	JQQJ	CPPC	YFFY	LWWL	ZHHZ	vertrauen	sonnig	genießen	träumen	küssen	gütig	versagen	sterben	gemein	töten	krank	gierig	47pct	acq_USpleas_CSpleas1_noRW	acq1_noRW	1	67	0	0	300	300	512	50	0	1	1	blank2r.bmp	0	1	+	0	1	blank2r.bmp	252	1	DXXD	306	3	genießen	559	0	0	0	0	0	0	0	0	0	0	0	0	0	0	0	0	0	0	0	0	0	0	0	0	0	0	0	0	0	0	0	0	0	0	0	0	0	0	0
070319	10:21:53	10:25:26	210551	5.0.10.0	5_exp_noRW	4	Rpleas_acq	CS_A	DXXD	JQQJ	CPPC	YFFY	LWWL	ZHHZ	vertrauen	sonnig	genießen	träumen	küssen	gütig	versagen	sterben	gemein	töten	krank	gierig	47pct	acq_USpleas_CSunple2_noRW	acq1_noRW	1	68	0	0	300	300	577	50	0	1	1	blank2r.bmp	0	1	+	0	1	blank2r.bmp	252	1	YFFY	306	1	träumen	559	0	0	0	0	0	0	0	0	0	0	0	0	0	0	0	0	0	0	0	0	0	0	0	0	0	0	0	0	0	0	0	0	0	0	0	0	0	0	0
070319	10:21:53	10:25:27	212177	5.0.10.0	5_exp_noRW	4	Rpleas_acq	CS_A	DXXD	JQQJ	CPPC	YFFY	LWWL	ZHHZ	vertrauen	sonnig	genießen	träumen	küssen	gütig	versagen	sterben	gemein	töten	krank	gierig	47pct	acq_USpleas_CSpleas2_noRW	acq1_noRW	1	69	0	0	300	300	445	50	0	1	1	blank2r.bmp	0	1	+	0	1	blank2r.bmp	252	1	JQQJ	306	2	küssen	559	0	0	0	0	0	0	0	0	0	0	0	0	0	0	0	0	0	0	0	0	0	0	0	0	0	0	0	0	0	0	0	0	0	0	0	0	0	0	0
070319	10:21:53	10:25:29	213723	5.0.10.0	5_exp_noRW	4	Rpleas_acq	CS_A	DXXD	JQQJ	CPPC	YFFY	LWWL	ZHHZ	vertrauen	sonnig	genießen	träumen	küssen	gütig	versagen	sterben	gemein	töten	krank	gierig	53pct	acq_USunple_CSunple1_noRW	acq1_noRW	1	70	0	0	300	300	368	46	0	1	1	blank2r.bmp	0	1	+	0	1	blank2r.bmp	252	1	CPPC	306	2	sterben	559	0	0	0	0	0	0	0	0	0	0	0	0	0	0	0	0	0	0	0	0	0	0	0	0	0	0	0	0	0	0	0	0	0	0	0	0	0	0	0
070319	10:21:53	10:25:31	215363	5.0.10.0	5_exp_noRW	4	Rpleas_acq	CS_A	DXXD	JQQJ	CPPC	YFFY	LWWL	ZHHZ	vertrauen	sonnig	genießen	träumen	küssen	gütig	versagen	sterben	gemein	töten	krank	gierig	47pct	acq_USpleas_CSpleas2_noRW	acq1_noRW	1	71	0	0	300	300	464	50	0	1	1	blank2r.bmp	0	1	+	0	1	blank2r.bmp	252	1	JQQJ	306	1	träumen	559	0	0	0	0	0	0	0	0	0	0	0	0	0	0	0	0	0	0	0	0	0	0	0	0	0	0	0	0	0	0	0	0	0	0	0	0	0	0	0
070319	10:21:53	10:25:32	217028	5.0.10.0	5_exp_noRW	4	Rpleas_acq	CS_A	DXXD	JQQJ	CPPC	YFFY	LWWL	ZHHZ	vertrauen	sonnig	genießen	träumen	küssen	gütig	versagen	sterben	gemein	töten	krank	gierig	53pct	acq_USunple_CSunple1_noRW	acq1_noRW	1	72	0	0	300	300	482	46	0	1	1	blank2r.bmp	0	1	+	0	1	blank2r.bmp	252	1	CPPC	306	2	sterben	559	0	0	0	0	0	0	0	0	0	0	0	0	0	0	0	0	0	0	0	0	0	0	0	0	0	0	0	0	0	0	0	0	0	0	0	0	0	0	0
070319	10:21:53	10:25:34	218721	5.0.10.0	5_exp_noRW	4	Rpleas_acq	CS_A	DXXD	JQQJ	CPPC	YFFY	LWWL	ZHHZ	vertrauen	sonnig	genießen	träumen	küssen	gütig	versagen	sterben	gemein	töten	krank	gierig	53pct	acq_USunple_CSpleas1_noRW	acq1_noRW	1	73	0	0	300	300	509	46	0	1	1	blank2r.bmp	0	1	+	0	1	blank2r.bmp	252	1	DXXD	306	3	gemein	559	0	0	0	0	0	0	0	0	0	0	0	0	0	0	0	0	0	0	0	0	0	0	0	0	0	0	0	0	0	0	0	0	0	0	0	0	0	0	0
070319	10:21:53	10:25:36	220334	5.0.10.0	5_exp_noRW	4	Rpleas_acq	CS_A	DXXD	JQQJ	CPPC	YFFY	LWWL	ZHHZ	vertrauen	sonnig	genießen	träumen	küssen	gütig	versagen	sterben	gemein	töten	krank	gierig	53pct	acq_USunple_CSpleas2_noRW	acq1_noRW	1	74	0	0	300	300	446	46	0	1	1	blank2r.bmp	0	1	+	0	1	blank2r.bmp	252	1	JQQJ	306	2	krank	559	0	0	0	0	0	0	0	0	0	0	0	0	0	0	0	0	0	0	0	0	0	0	0	0	0	0	0	0	0	0	0	0	0	0	0	0	0	0	0
070319	10:21:53	10:25:37	221960	5.0.10.0	5_exp_noRW	4	Rpleas_acq	CS_A	DXXD	JQQJ	CPPC	YFFY	LWWL	ZHHZ	vertrauen	sonnig	genießen	träumen	küssen	gütig	versagen	sterben	gemein	töten	krank	gierig	53pct	acq_USpleas_CSpleas1_noRW	acq1_noRW	1	75	0	0	300	300	442	50	0	1	1	blank2r.bmp	0	1	+	0	1	blank2r.bmp	252	1	DXXD	306	2	sonnig	559	0	0	0	0	0	0	0	0	0	0	0	0	0	0	0	0	0	0	0	0	0	0	0	0	0	0	0	0	0	0	0	0	0	0	0	0	0	0	0
070319	10:21:53	10:25:39	223652	5.0.10.0	5_exp_noRW	4	Rpleas_acq	CS_A	DXXD	JQQJ	CPPC	YFFY	LWWL	ZHHZ	vertrauen	sonnig	genießen	träumen	küssen	gütig	versagen	sterben	gemein	töten	krank	gierig	53pct	acq_USpleas_CSpleas1_noRW	acq1_noRW	1	76	0	0	300	300	510	50	0	1	1	blank2r.bmp	0	1	+	0	1	blank2r.bmp	252	1	DXXD	306	1	vertrauen	559	0	0	0	0	0	0	0	0	0	0	0	0	0	0	0	0	0	0	0	0	0	0	0	0	0	0	0	0	0	0	0	0	0	0	0	0	0	0	0
070319	10:21:53	10:25:41	225305	5.0.10.0	5_exp_noRW	4	Rpleas_acq	CS_A	DXXD	JQQJ	CPPC	YFFY	LWWL	ZHHZ	vertrauen	sonnig	genießen	träumen	küssen	gütig	versagen	sterben	gemein	töten	krank	gierig	47pct	acq_USunple_CSunple2_noRW	acq1_noRW	1	77	0	0	300	300	491	46	0	1	1	blank2r.bmp	0	1	+	0	1	blank2r.bmp	252	1	YFFY	306	3	gierig	559	0	0	0	0	0	0	0	0	0	0	0	0	0	0	0	0	0	0	0	0	0	0	0	0	0	0	0	0	0	0	0	0	0	0	0	0	0	0	0
070319	10:21:53	10:25:42	226878	5.0.10.0	5_exp_noRW	4	Rpleas_acq	CS_A	DXXD	JQQJ	CPPC	YFFY	LWWL	ZHHZ	vertrauen	sonnig	genießen	träumen	küssen	gütig	versagen	sterben	gemein	töten	krank	gierig	47pct	acq_USunple_CSunple2_noRW	acq1_noRW	1	78	0	0	300	300	394	46	0	1	1	blank2r.bmp	0	1	+	0	1	blank2r.bmp	252	1	YFFY	306	2	krank	559	0	0	0	0	0	0	0	0	0	0	0	0	0	0	0	0	0	0	0	0	0	0	0	0	0	0	0	0	0	0	0	0	0	0	0	0	0	0	0
070319	10:21:53	10:25:44	228504	5.0.10.0	5_exp_noRW	4	Rpleas_acq	CS_A	DXXD	JQQJ	CPPC	YFFY	LWWL	ZHHZ	vertrauen	sonnig	genießen	träumen	küssen	gütig	versagen	sterben	gemein	töten	krank	gierig	47pct	acq_USpleas_CSunple1_noRW	acq1_noRW	1	79	0	0	300	300	454	50	0	1	1	blank2r.bmp	0	1	+	0	1	blank2r.bmp	252	1	CPPC	306	3	genießen	559	0	0	0	0	0	0	0	0	0	0	0	0	0	0	0	0	0	0	0	0	0	0	0	0	0	0	0	0	0	0	0	0	0	0	0	0	0	0	0
070319	10:21:53	10:25:45	230196	5.0.10.0	5_exp_noRW	4	Rpleas_acq	CS_A	DXXD	JQQJ	CPPC	YFFY	LWWL	ZHHZ	vertrauen	sonnig	genießen	träumen	küssen	gütig	versagen	sterben	gemein	töten	krank	gierig	47pct	acq_USpleas_CSpleas2_noRW	acq1_noRW	1	80	0	0	300	300	527	50	0	1	1	blank2r.bmp	0	1	+	0	1	blank2r.bmp	252	1	JQQJ	306	3	gütig	559	0	0	0	0	0	0	0	0	0	0	0	0	0	0	0	0	0	0	0	0	0	0	0	0	0	0	0	0	0	0	0	0	0	0	0	0	0	0	0
070319	10:21:53	10:26:09	253400	5.0.10.0	5_exp_noRW	4	Rpleas_acq	CS_A	DXXD	JQQJ	CPPC	YFFY	LWWL	ZHHZ	vertrauen	sonnig	genießen	träumen	küssen	gütig	versagen	sterben	gemein	töten	krank	gierig	53pct	acq_USpleas_CSpleas2_noRW	acq23456_noRW	2	1	0	0	300	300	512	50	0	1	1	blank2r.bmp	0	1	+	0	1	blank2r.bmp	252	1	JQQJ	306	1	träumen	559	0	0	0	0	0	0	0	0	0	0	0	0	0	0	0	0	0	0	0	0	0	0	0	0	0	0	0	0	0	0	0	0	0	0	0	0	0	0	0
070319	10:21:53	10:26:10	255053	5.0.10.0	5_exp_noRW	4	Rpleas_acq	CS_A	DXXD	JQQJ	CPPC	YFFY	LWWL	ZHHZ	vertrauen	sonnig	genießen	träumen	küssen	gütig	versagen	sterben	gemein	töten	krank	gierig	53pct	acq_USpleas_CSunple1_noRW	acq23456_noRW	2	2	0	0	300	300	482	50	0	1	1	blank2r.bmp	0	1	+	0	1	blank2r.bmp	252	1	CPPC	306	1	vertrauen	559	0	0	0	0	0	0	0	0	0	0	0	0	0	0	0	0	0	0	0	0	0	0	0	0	0	0	0	0	0	0	0	0	0	0	0	0	0	0	0
070319	10:21:53	10:26:12	256652	5.0.10.0	5_exp_noRW	4	Rpleas_acq	CS_A	DXXD	JQQJ	CPPC	YFFY	LWWL	ZHHZ	vertrauen	sonnig	genießen	träumen	küssen	gütig	versagen	sterben	gemein	töten	krank	gierig	53pct	acq_USunple_CSunple1_noRW	acq23456_noRW	2	3	0	0	300	300	430	46	0	1	1	blank2r.bmp	0	1	+	0	1	blank2r.bmp	252	1	CPPC	306	3	gemein	559	0	0	0	0	0	0	0	0	0	0	0	0	0	0	0	0	0	0	0	0	0	0	0	0	0	0	0	0	0	0	0	0	0	0	0	0	0	0	0
070319	10:21:53	10:26:14	258411	5.0.10.0	5_exp_noRW	4	Rpleas_acq	CS_A	DXXD	JQQJ	CPPC	YFFY	LWWL	ZHHZ	vertrauen	sonnig	genießen	träumen	küssen	gütig	versagen	sterben	gemein	töten	krank	gierig	47pct	acq_USunple_CSunple1_noRW	acq23456_noRW	2	4	0	0	300	300	584	46	0	1	1	blank2r.bmp	0	1	+	0	1	blank2r.bmp	252	1	CPPC	306	1	versagen	559	0	0	0	0	0	0	0	0	0	0	0	0	0	0	0	0	0	0	0	0	0	0	0	0	0	0	0	0	0	0	0	0	0	0	0	0	0	0	0
070319	10:21:53	10:26:15	260024	5.0.10.0	5_exp_noRW	4	Rpleas_acq	CS_A	DXXD	JQQJ	CPPC	YFFY	LWWL	ZHHZ	vertrauen	sonnig	genießen	träumen	küssen	gütig	versagen	sterben	gemein	töten	krank	gierig	47pct	acq_USunple_CSunple2_noRW	acq23456_noRW	2	5	0	0	300	300	426	46	0	1	1	blank2r.bmp	0	1	+	0	1	blank2r.bmp	252	1	YFFY	306	3	gierig	559	0	0	0	0	0	0	0	0	0	0	0	0	0	0	0	0	0	0	0	0	0	0	0	0	0	0	0	0	0	0	0	0	0	0	0	0	0	0	0
070319	10:21:53	10:26:17	261743	5.0.10.0	5_exp_noRW	4	Rpleas_acq	CS_A	DXXD	JQQJ	CPPC	YFFY	LWWL	ZHHZ	vertrauen	sonnig	genießen	träumen	küssen	gütig	versagen	sterben	gemein	töten	krank	gierig	53pct	acq_USpleas_CSpleas1_noRW	acq23456_noRW	2	6	0	0	300	300	542	50	0	1	1	blank2r.bmp	0	1	+	0	1	blank2r.bmp	252	1	DXXD	306	3	genießen	559	0	0	0	0	0	0	0	0	0	0	0	0	0	0	0	0	0	0	0	0	0	0	0	0	0	0	0	0	0	0	0	0	0	0	0	0	0	0	0
070319	10:21:53	10:26:19	263369	5.0.10.0	5_exp_noRW	4	Rpleas_acq	CS_A	DXXD	JQQJ	CPPC	YFFY	LWWL	ZHHZ	vertrauen	sonnig	genießen	träumen	küssen	gütig	versagen	sterben	gemein	töten	krank	gierig	47pct	acq_USpleas_CSpleas1_noRW	acq23456_noRW	2	7	0	0	300	300	463	50	0	1	1	blank2r.bmp	0	1	+	0	1	blank2r.bmp	252	1	DXXD	306	2	sonnig	559	0	0	0	0	0	0	0	0	0	0	0	0	0	0	0	0	0	0	0	0	0	0	0	0	0	0	0	0	0	0	0	0	0	0	0	0	0	0	0
070319	10:21:53	10:26:20	265008	5.0.10.0	5_exp_noRW	4	Rpleas_acq	CS_A	DXXD	JQQJ	CPPC	YFFY	LWWL	ZHHZ	vertrauen	sonnig	genießen	träumen	küssen	gütig	versagen	sterben	gemein	töten	krank	gierig	53pct	acq_USpleas_CSpleas1_noRW	acq23456_noRW	2	8	0	0	300	300	462	50	0	1	1	blank2r.bmp	0	1	+	0	1	blank2r.bmp	252	1	DXXD	306	3	genießen	559	0	0	0	0	0	0	0	0	0	0	0	0	0	0	0	0	0	0	0	0	0	0	0	0	0	0	0	0	0	0	0	0	0	0	0	0	0	0	0
070319	10:21:53	10:26:22	266581	5.0.10.0	5_exp_noRW	4	Rpleas_acq	CS_A	DXXD	JQQJ	CPPC	YFFY	LWWL	ZHHZ	vertrauen	sonnig	genießen	träumen	küssen	gütig	versagen	sterben	gemein	töten	krank	gierig	53pct	acq_USpleas_CSpleas2_noRW	acq23456_noRW	2	9	0	0	300	300	389	50	0	1	1	blank2r.bmp	0	1	+	0	1	blank2r.bmp	252	1	JQQJ	306	2	küssen	559	0	0	0	0	0	0	0	0	0	0	0	0	0	0	0	0	0	0	0	0	0	0	0	0	0	0	0	0	0	0	0	0	0	0	0	0	0	0	0
070319	10:21:53	10:26:23	268194	5.0.10.0	5_exp_noRW	4	Rpleas_acq	CS_A	DXXD	JQQJ	CPPC	YFFY	LWWL	ZHHZ	vertrauen	sonnig	genießen	träumen	küssen	gütig	versagen	sterben	gemein	töten	krank	gierig	53pct	acq_USunple_CSunple2_noRW	acq23456_noRW	2	10	0	0	300	300	441	46	0	1	1	blank2r.bmp	0	1	+	0	1	blank2r.bmp	252	1	YFFY	306	1	töten	559	0	0	0	0	0	0	0	0	0	0	0	0	0	0	0	0	0	0	0	0	0	0	0	0	0	0	0	0	0	0	0	0	0	0	0	0	0	0	0
070319	10:21:53	10:26:25	269926	5.0.10.0	5_exp_noRW	4	Rpleas_acq	CS_A	DXXD	JQQJ	CPPC	YFFY	LWWL	ZHHZ	vertrauen	sonnig	genießen	träumen	küssen	gütig	versagen	sterben	gemein	töten	krank	gierig	47pct	acq_USpleas_CSpleas2_noRW	acq23456_noRW	2	11	0	0	300	300	565	50	0	1	1	blank2r.bmp	0	1	+	0	1	blank2r.bmp	252	1	JQQJ	306	3	gütig	559	0	0	0	0	0	0	0	0	0	0	0	0	0	0	0	0	0	0	0	0	0	0	0	0	0	0	0	0	0	0	0	0	0	0	0	0	0	0	0
070319	10:21:53	10:26:27	271566	5.0.10.0	5_exp_noRW	4	Rpleas_acq	CS_A	DXXD	JQQJ	CPPC	YFFY	LWWL	ZHHZ	vertrauen	sonnig	genießen	träumen	küssen	gütig	versagen	sterben	gemein	töten	krank	gierig	53pct	acq_USpleas_CSpleas1_noRW	acq23456_noRW	2	12	0	0	300	300	464	50	0	1	1	blank2r.bmp	0	1	+	0	1	blank2r.bmp	252	1	DXXD	306	2	sonnig	559	0	0	0	0	0	0	0	0	0	0	0	0	0	0	0	0	0	0	0	0	0	0	0	0	0	0	0	0	0	0	0	0	0	0	0	0	0	0	0
070319	10:21:53	10:26:28	273178	5.0.10.0	5_exp_noRW	4	Rpleas_acq	CS_A	DXXD	JQQJ	CPPC	YFFY	LWWL	ZHHZ	vertrauen	sonnig	genießen	träumen	küssen	gütig	versagen	sterben	gemein	töten	krank	gierig	47pct	acq_USunple_CSunple2_noRW	acq23456_noRW	2	13	0	0	300	300	438	46	0	1	1	blank2r.bmp	0	1	+	0	1	blank2r.bmp	252	1	YFFY	306	1	töten	559	0	0	0	0	0	0	0	0	0	0	0	0	0	0	0	0	0	0	0	0	0	0	0	0	0	0	0	0	0	0	0	0	0	0	0	0	0	0	0
070319	10:21:53	10:26:30	274844	5.0.10.0	5_exp_noRW	4	Rpleas_acq	CS_A	DXXD	JQQJ	CPPC	YFFY	LWWL	ZHHZ	vertrauen	sonnig	genießen	träumen	küssen	gütig	versagen	sterben	gemein	töten	krank	gierig	53pct	acq_USpleas_CSpleas2_noRW	acq23456_noRW	2	14	0	0	300	300	472	50	0	1	1	blank2r.bmp	0	1	+	0	1	blank2r.bmp	252	1	JQQJ	306	1	träumen	559	0	0	0	0	0	0	0	0	0	0	0	0	0	0	0	0	0	0	0	0	0	0	0	0	0	0	0	0	0	0	0	0	0	0	0	0	0	0	0
070319	10:21:53	10:26:32	276430	5.0.10.0	5_exp_noRW	4	Rpleas_acq	CS_A	DXXD	JQQJ	CPPC	YFFY	LWWL	ZHHZ	vertrauen	sonnig	genießen	träumen	küssen	gütig	versagen	sterben	gemein	töten	krank	gierig	47pct	acq_USunple_CSunple1_noRW	acq23456_noRW	2	15	0	0	300	300	403	46	0	1	1	blank2r.bmp	0	1	+	0	1	blank2r.bmp	252	1	CPPC	306	3	gemein	559	0	0	0	0	0	0	0	0	0	0	0	0	0	0	0	0	0	0	0	0	0	0	0	0	0	0	0	0	0	0	0	0	0	0	0	0	0	0	0
070319	10:21:53	10:26:34	278323	5.0.10.0	5_exp_noRW	4	Rpleas_acq	CS_A	DXXD	JQQJ	CPPC	YFFY	LWWL	ZHHZ	vertrauen	sonnig	genießen	träumen	küssen	gütig	versagen	sterben	gemein	töten	krank	gierig	53pct	acq_USpleas_CSunple2_noRW	acq23456_noRW	2	16	0	0	300	300	710	50	0	1	1	blank2r.bmp	0	1	+	0	1	blank2r.bmp	252	1	YFFY	306	3	gütig	559	0	0	0	0	0	0	0	0	0	0	0	0	0	0	0	0	0	0	0	0	0	0	0	0	0	0	0	0	0	0	0	0	0	0	0	0	0	0	0
070319	10:21:53	10:26:35	280015	5.0.10.0	5_exp_noRW	4	Rpleas_acq	CS_A	DXXD	JQQJ	CPPC	YFFY	LWWL	ZHHZ	vertrauen	sonnig	genießen	träumen	küssen	gütig	versagen	sterben	gemein	töten	krank	gierig	53pct	acq_USunple_CSunple1_noRW	acq23456_noRW	2	17	0	0	300	300	505	46	0	1	1	blank2r.bmp	0	1	+	0	1	blank2r.bmp	252	1	CPPC	306	1	versagen	559	0	0	0	0	0	0	0	0	0	0	0	0	0	0	0	0	0	0	0	0	0	0	0	0	0	0	0	0	0	0	0	0	0	0	0	0	0	0	0
070319	10:21:53	10:26:37	281695	5.0.10.0	5_exp_noRW	4	Rpleas_acq	CS_A	DXXD	JQQJ	CPPC	YFFY	LWWL	ZHHZ	vertrauen	sonnig	genießen	träumen	küssen	gütig	versagen	sterben	gemein	töten	krank	gierig	53pct	acq_USunple_CSunple2_noRW	acq23456_noRW	2	18	0	0	300	300	508	46	0	1	1	blank2r.bmp	0	1	+	0	1	blank2r.bmp	252	1	YFFY	306	3	gierig	559	0	0	0	0	0	0	0	0	0	0	0	0	0	0	0	0	0	0	0	0	0	0	0	0	0	0	0	0	0	0	0	0	0	0	0	0	0	0	0
070319	10:21:53	10:26:39	283294	5.0.10.0	5_exp_noRW	4	Rpleas_acq	CS_A	DXXD	JQQJ	CPPC	YFFY	LWWL	ZHHZ	vertrauen	sonnig	genießen	träumen	küssen	gütig	versagen	sterben	gemein	töten	krank	gierig	53pct	acq_USunple_CSpleas1_noRW	acq23456_noRW	2	19	0	0	300	300	428	46	0	1	1	blank2r.bmp	0	1	+	0	1	blank2r.bmp	252	1	DXXD	306	1	versagen	559	0	0	0	0	0	0	0	0	0	0	0	0	0	0	0	0	0	0	0	0	0	0	0	0	0	0	0	0	0	0	0	0	0	0	0	0	0	0	0
070319	10:21:53	10:26:40	284840	5.0.10.0	5_exp_noRW	4	Rpleas_acq	CS_A	DXXD	JQQJ	CPPC	YFFY	LWWL	ZHHZ	vertrauen	sonnig	genießen	träumen	küssen	gütig	versagen	sterben	gemein	töten	krank	gierig	53pct	acq_USunple_CSpleas2_noRW	acq23456_noRW	2	20	0	0	300	300	375	46	0	1	1	blank2r.bmp	0	1	+	0	1	blank2r.bmp	252	1	JQQJ	306	3	gierig	559	0	0	0	0	0	0	0	0	0	0	0	0	0	0	0	0	0	0	0	0	0	0	0	0	0	0	0	0	0	0	0	0	0	0	0	0	0	0	0
070319	10:21:53	10:26:42	286320	5.0.10.0	5_exp_noRW	4	Rpleas_acq	CS_A	DXXD	JQQJ	CPPC	YFFY	LWWL	ZHHZ	vertrauen	sonnig	genießen	träumen	küssen	gütig	versagen	sterben	gemein	töten	krank	gierig	53pct	acq_USpleas_CSpleas1_noRW	acq23456_noRW	2	21	0	0	300	300	314	50	0	1	1	blank2r.bmp	0	1	+	0	1	blank2r.bmp	252	1	DXXD	306	1	vertrauen	559	0	0	0	0	0	0	0	0	0	0	0	0	0	0	0	0	0	0	0	0	0	0	0	0	0	0	0	0	0	0	0	0	0	0	0	0	0	0	0
070319	10:21:53	10:26:43	287866	5.0.10.0	5_exp_noRW	4	Rpleas_acq	CS_A	DXXD	JQQJ	CPPC	YFFY	LWWL	ZHHZ	vertrauen	sonnig	genießen	träumen	küssen	gütig	versagen	sterben	gemein	töten	krank	gierig	47pct	acq_USpleas_CSpleas2_noRW	acq23456_noRW	2	22	0	0	300	300	364	50	0	1	1	blank2r.bmp	0	1	+	0	1	blank2r.bmp	252	1	JQQJ	306	2	küssen	559	0	0	0	0	0	0	0	0	0	0	0	0	0	0	0	0	0	0	0	0	0	0	0	0	0	0	0	0	0	0	0	0	0	0	0	0	0	0	0
070319	10:21:53	10:26:45	289425	5.0.10.0	5_exp_noRW	4	Rpleas_acq	CS_A	DXXD	JQQJ	CPPC	YFFY	LWWL	ZHHZ	vertrauen	sonnig	genießen	träumen	küssen	gütig	versagen	sterben	gemein	töten	krank	gierig	53pct	acq_USpleas_CSunple1_noRW	acq23456_noRW	2	23	0	0	300	300	378	50	0	1	1	blank2r.bmp	0	1	+	0	1	blank2r.bmp	252	1	CPPC	306	2	sonnig	559	0	0	0	0	0	0	0	0	0	0	0	0	0	0	0	0	0	0	0	0	0	0	0	0	0	0	0	0	0	0	0	0	0	0	0	0	0	0	0
070319	10:21:53	10:26:46	291024	5.0.10.0	5_exp_noRW	4	Rpleas_acq	CS_A	DXXD	JQQJ	CPPC	YFFY	LWWL	ZHHZ	vertrauen	sonnig	genießen	träumen	küssen	gütig	versagen	sterben	gemein	töten	krank	gierig	53pct	acq_USunple_CSunple2_noRW	acq23456_noRW	2	24	0	0	300	300	414	46	0	1	1	blank2r.bmp	0	1	+	0	1	blank2r.bmp	252	1	YFFY	306	2	krank	559	0	0	0	0	0	0	0	0	0	0	0	0	0	0	0	0	0	0	0	0	0	0	0	0	0	0	0	0	0	0	0	0	0	0	0	0	0	0	0
070319	10:21:53	10:26:48	292703	5.0.10.0	5_exp_noRW	4	Rpleas_acq	CS_A	DXXD	JQQJ	CPPC	YFFY	LWWL	ZHHZ	vertrauen	sonnig	genießen	träumen	küssen	gütig	versagen	sterben	gemein	töten	krank	gierig	53pct	acq_USunple_CSunple2_noRW	acq23456_noRW	2	25	0	0	300	300	516	46	0	1	1	blank2r.bmp	0	1	+	0	1	blank2r.bmp	252	1	YFFY	306	2	krank	559	0	0	0	0	0	0	0	0	0	0	0	0	0	0	0	0	0	0	0	0	0	0	0	0	0	0	0	0	0	0	0	0	0	0	0	0	0	0	0
070319	10:21:53	10:26:50	294290	5.0.10.0	5_exp_noRW	4	Rpleas_acq	CS_A	DXXD	JQQJ	CPPC	YFFY	LWWL	ZHHZ	vertrauen	sonnig	genießen	träumen	küssen	gütig	versagen	sterben	gemein	töten	krank	gierig	53pct	acq_USunple_CSunple2_noRW	acq23456_noRW	2	26	0	0	300	300	407	46	0	1	1	blank2r.bmp	0	1	+	0	1	blank2r.bmp	252	1	YFFY	306	3	gierig	559	0	0	0	0	0	0	0	0	0	0	0	0	0	0	0	0	0	0	0	0	0	0	0	0	0	0	0	0	0	0	0	0	0	0	0	0	0	0	0
070319	10:21:53	10:26:51	295995	5.0.10.0	5_exp_noRW	4	Rpleas_acq	CS_A	DXXD	JQQJ	CPPC	YFFY	LWWL	ZHHZ	vertrauen	sonnig	genießen	träumen	küssen	gütig	versagen	sterben	gemein	töten	krank	gierig	47pct	acq_USpleas_CSunple2_noRW	acq23456_noRW	2	27	0	0	300	300	522	50	0	1	1	blank2r.bmp	0	1	+	0	1	blank2r.bmp	252	1	YFFY	306	2	küssen	559	0	0	0	0	0	0	0	0	0	0	0	0	0	0	0	0	0	0	0	0	0	0	0	0	0	0	0	0	0	0	0	0	0	0	0	0	0	0	0
070319	10:21:53	10:26:53	297608	5.0.10.0	5_exp_noRW	4	Rpleas_acq	CS_A	DXXD	JQQJ	CPPC	YFFY	LWWL	ZHHZ	vertrauen	sonnig	genießen	träumen	küssen	gütig	versagen	sterben	gemein	töten	krank	gierig	47pct	acq_USpleas_CSpleas1_noRW	acq23456_noRW	2	28	0	0	300	300	436	50	0	1	1	blank2r.bmp	0	1	+	0	1	blank2r.bmp	252	1	DXXD	306	2	sonnig	559	0	0	0	0	0	0	0	0	0	0	0	0	0	0	0	0	0	0	0	0	0	0	0	0	0	0	0	0	0	0	0	0	0	0	0	0	0	0	0
070319	10:21:53	10:26:54	299261	5.0.10.0	5_exp_noRW	4	Rpleas_acq	CS_A	DXXD	JQQJ	CPPC	YFFY	LWWL	ZHHZ	vertrauen	sonnig	genießen	träumen	küssen	gütig	versagen	sterben	gemein	töten	krank	gierig	53pct	acq_USpleas_CSpleas1_noRW	acq23456_noRW	2	29	0	0	300	300	480	50	0	1	1	blank2r.bmp	0	1	+	0	1	blank2r.bmp	252	1	DXXD	306	1	vertrauen	559	0	0	0	0	0	0	0	0	0	0	0	0	0	0	0	0	0	0	0	0	0	0	0	0	0	0	0	0	0	0	0	0	0	0	0	0	0	0	0
070319	10:21:53	10:26:56	300820	5.0.10.0	5_exp_noRW	4	Rpleas_acq	CS_A	DXXD	JQQJ	CPPC	YFFY	LWWL	ZHHZ	vertrauen	sonnig	genießen	träumen	küssen	gütig	versagen	sterben	gemein	töten	krank	gierig	47pct	acq_USpleas_CSpleas1_noRW	acq23456_noRW	2	30	0	0	300	300	387	50	0	1	1	blank2r.bmp	0	1	+	0	1	blank2r.bmp	252	1	DXXD	306	3	genießen	559	0	0	0	0	0	0	0	0	0	0	0	0	0	0	0	0	0	0	0	0	0	0	0	0	0	0	0	0	0	0	0	0	0	0	0	0	0	0	0
070319	10:21:53	10:26:58	302499	5.0.10.0	5_exp_noRW	4	Rpleas_acq	CS_A	DXXD	JQQJ	CPPC	YFFY	LWWL	ZHHZ	vertrauen	sonnig	genießen	träumen	küssen	gütig	versagen	sterben	gemein	töten	krank	gierig	53pct	acq_USunple_CSunple1_noRW	acq23456_noRW	2	31	0	0	300	300	507	46	0	1	1	blank2r.bmp	0	1	+	0	1	blank2r.bmp	252	1	CPPC	306	2	sterben	559	0	0	0	0	0	0	0	0	0	0	0	0	0	0	0	0	0	0	0	0	0	0	0	0	0	0	0	0	0	0	0	0	0	0	0	0	0	0	0
070319	10:21:53	10:26:59	304032	5.0.10.0	5_exp_noRW	4	Rpleas_acq	CS_A	DXXD	JQQJ	CPPC	YFFY	LWWL	ZHHZ	vertrauen	sonnig	genießen	träumen	küssen	gütig	versagen	sterben	gemein	töten	krank	gierig	47pct	acq_USunple_CSpleas1_noRW	acq23456_noRW	2	32	0	0	300	300	360	46	0	1	1	blank2r.bmp	0	1	+	0	1	blank2r.bmp	252	1	DXXD	306	2	sterben	559	0	0	0	0	0	0	0	0	0	0	0	0	0	0	0	0	0	0	0	0	0	0	0	0	0	0	0	0	0	0	0	0	0	0	0	0	0	0	0
070319	10:21:53	10:27:01	305578	5.0.10.0	5_exp_noRW	4	Rpleas_acq	CS_A	DXXD	JQQJ	CPPC	YFFY	LWWL	ZHHZ	vertrauen	sonnig	genießen	träumen	küssen	gütig	versagen	sterben	gemein	töten	krank	gierig	53pct	acq_USunple_CSunple1_noRW	acq23456_noRW	2	33	0	0	300	300	368	46	0	1	1	blank2r.bmp	0	1	+	0	1	blank2r.bmp	252	1	CPPC	306	3	gemein	559	0	0	0	0	0	0	0	0	0	0	0	0	0	0	0	0	0	0	0	0	0	0	0	0	0	0	0	0	0	0	0	0	0	0	0	0	0	0	0
070319	10:21:53	10:27:02	307071	5.0.10.0	5_exp_noRW	4	Rpleas_acq	CS_A	DXXD	JQQJ	CPPC	YFFY	LWWL	ZHHZ	vertrauen	sonnig	genießen	träumen	küssen	gütig	versagen	sterben	gemein	töten	krank	gierig	53pct	acq_USpleas_CSpleas2_noRW	acq23456_noRW	2	34	0	0	300	300	319	50	0	1	1	blank2r.bmp	0	1	+	0	1	blank2r.bmp	252	1	JQQJ	306	1	träumen	559	0	0	0	0	0	0	0	0	0	0	0	0	0	0	0	0	0	0	0	0	0	0	0	0	0	0	0	0	0	0	0	0	0	0	0	0	0	0	0
070319	10:21:53	10:27:04	308763	5.0.10.0	5_exp_noRW	4	Rpleas_acq	CS_A	DXXD	JQQJ	CPPC	YFFY	LWWL	ZHHZ	vertrauen	sonnig	genießen	träumen	küssen	gütig	versagen	sterben	gemein	töten	krank	gierig	47pct	acq_USpleas_CSpleas2_noRW	acq23456_noRW	2	35	0	0	300	300	521	50	0	1	1	blank2r.bmp	0	1	+	0	1	blank2r.bmp	252	1	JQQJ	306	3	gütig	559	0	0	0	0	0	0	0	0	0	0	0	0	0	0	0	0	0	0	0	0	0	0	0	0	0	0	0	0	0	0	0	0	0	0	0	0	0	0	0
070319	10:21:53	10:27:06	310403	5.0.10.0	5_exp_noRW	4	Rpleas_acq	CS_A	DXXD	JQQJ	CPPC	YFFY	LWWL	ZHHZ	vertrauen	sonnig	genießen	träumen	küssen	gütig	versagen	sterben	gemein	töten	krank	gierig	53pct	acq_USunple_CSunple2_noRW	acq23456_noRW	2	36	0	0	300	300	475	46	0	1	1	blank2r.bmp	0	1	+	0	1	blank2r.bmp	252	1	YFFY	306	1	töten	559	0	0	0	0	0	0	0	0	0	0	0	0	0	0	0	0	0	0	0	0	0	0	0	0	0	0	0	0	0	0	0	0	0	0	0	0	0	0	0
070319	10:21:53	10:27:07	312095	5.0.10.0	5_exp_noRW	4	Rpleas_acq	CS_A	DXXD	JQQJ	CPPC	YFFY	LWWL	ZHHZ	vertrauen	sonnig	genießen	träumen	küssen	gütig	versagen	sterben	gemein	töten	krank	gierig	53pct	acq_USunple_CSunple1_noRW	acq23456_noRW	2	37	0	0	300	300	515	46	0	1	1	blank2r.bmp	0	1	+	0	1	blank2r.bmp	252	1	CPPC	306	1	versagen	559	0	0	0	0	0	0	0	0	0	0	0	0	0	0	0	0	0	0	0	0	0	0	0	0	0	0	0	0	0	0	0	0	0	0	0	0	0	0	0
070319	10:21:53	10:27:09	313641	5.0.10.0	5_exp_noRW	4	Rpleas_acq	CS_A	DXXD	JQQJ	CPPC	YFFY	LWWL	ZHHZ	vertrauen	sonnig	genießen	träumen	küssen	gütig	versagen	sterben	gemein	töten	krank	gierig	53pct	acq_USunple_CSunple1_noRW	acq23456_noRW	2	38	0	0	300	300	359	46	0	1	1	blank2r.bmp	0	1	+	0	1	blank2r.bmp	252	1	CPPC	306	2	sterben	559	0	0	0	0	0	0	0	0	0	0	0	0	0	0	0	0	0	0	0	0	0	0	0	0	0	0	0	0	0	0	0	0	0	0	0	0	0	0	0
070319	10:21:53	10:27:10	315147	5.0.10.0	5_exp_noRW	4	Rpleas_acq	CS_A	DXXD	JQQJ	CPPC	YFFY	LWWL	ZHHZ	vertrauen	sonnig	genießen	träumen	küssen	gütig	versagen	sterben	gemein	töten	krank	gierig	47pct	acq_USpleas_CSpleas2_noRW	acq23456_noRW	2	39	0	0	300	300	322	50	0	1	1	blank2r.bmp	0	1	+	0	1	blank2r.bmp	252	1	JQQJ	306	2	küssen	559	0	0	0	0	0	0	0	0	0	0	0	0	0	0	0	0	0	0	0	0	0	0	0	0	0	0	0	0	0	0	0	0	0	0	0	0	0	0	0
070319	10:21:53	10:27:12	316760	5.0.10.0	5_exp_noRW	4	Rpleas_acq	CS_A	DXXD	JQQJ	CPPC	YFFY	LWWL	ZHHZ	vertrauen	sonnig	genießen	träumen	küssen	gütig	versagen	sterben	gemein	töten	krank	gierig	47pct	acq_USunple_CSpleas2_noRW	acq23456_noRW	2	40	0	0	300	300	446	46	0	1	1	blank2r.bmp	0	1	+	0	1	blank2r.bmp	252	1	JQQJ	306	1	töten	559	0	0	0	0	0	0	0	0	0	0	0	0	0	0	0	0	0	0	0	0	0	0	0	0	0	0	0	0	0	0	0	0	0	0	0	0	0	0	0
070319	10:21:53	10:27:14	318426	5.0.10.0	5_exp_noRW	4	Rpleas_acq	CS_A	DXXD	JQQJ	CPPC	YFFY	LWWL	ZHHZ	vertrauen	sonnig	genießen	träumen	küssen	gütig	versagen	sterben	gemein	töten	krank	gierig	53pct	acq_USunple_CSunple2_noRW	acq23456_noRW	2	41	0	0	300	300	479	46	0	1	1	blank2r.bmp	0	1	+	0	1	blank2r.bmp	252	1	YFFY	306	3	gierig	559	0	0	0	0	0	0	0	0	0	0	0	0	0	0	0	0	0	0	0	0	0	0	0	0	0	0	0	0	0	0	0	0	0	0	0	0	0	0	0
070319	10:21:53	10:27:15	319999	5.0.10.0	5_exp_noRW	4	Rpleas_acq	CS_A	DXXD	JQQJ	CPPC	YFFY	LWWL	ZHHZ	vertrauen	sonnig	genießen	träumen	küssen	gütig	versagen	sterben	gemein	töten	krank	gierig	47pct	acq_USpleas_CSunple2_noRW	acq23456_noRW	2	42	0	0	300	300	409	50	0	1	1	blank2r.bmp	0	1	+	0	1	blank2r.bmp	252	1	YFFY	306	2	küssen	559	0	0	0	0	0	0	0	0	0	0	0	0	0	0	0	0	0	0	0	0	0	0	0	0	0	0	0	0	0	0	0	0	0	0	0	0	0	0	0
070319	10:21:53	10:27:17	321598	5.0.10.0	5_exp_noRW	4	Rpleas_acq	CS_A	DXXD	JQQJ	CPPC	YFFY	LWWL	ZHHZ	vertrauen	sonnig	genießen	träumen	küssen	gütig	versagen	sterben	gemein	töten	krank	gierig	53pct	acq_USunple_CSunple1_noRW	acq23456_noRW	2	43	0	0	300	300	416	46	0	1	1	blank2r.bmp	0	1	+	0	1	blank2r.bmp	252	1	CPPC	306	2	sterben	559	0	0	0	0	0	0	0	0	0	0	0	0	0	0	0	0	0	0	0	0	0	0	0	0	0	0	0	0	0	0	0	0	0	0	0	0	0	0	0
070319	10:21:53	10:27:18	323197	5.0.10.0	5_exp_noRW	4	Rpleas_acq	CS_A	DXXD	JQQJ	CPPC	YFFY	LWWL	ZHHZ	vertrauen	sonnig	genießen	träumen	küssen	gütig	versagen	sterben	gemein	töten	krank	gierig	53pct	acq_USpleas_CSpleas1_noRW	acq23456_noRW	2	44	0	0	300	300	416	50	0	1	1	blank2r.bmp	0	1	+	0	1	blank2r.bmp	252	1	DXXD	306	1	vertrauen	559	0	0	0	0	0	0	0	0	0	0	0	0	0	0	0	0	0	0	0	0	0	0	0	0	0	0	0	0	0	0	0	0	0	0	0	0	0	0	0
070319	10:21:53	10:27:20	324783	5.0.10.0	5_exp_noRW	4	Rpleas_acq	CS_A	DXXD	JQQJ	CPPC	YFFY	LWWL	ZHHZ	vertrauen	sonnig	genießen	träumen	küssen	gütig	versagen	sterben	gemein	töten	krank	gierig	53pct	acq_USpleas_CSunple1_noRW	acq23456_noRW	2	45	0	0	300	300	424	50	0	1	1	blank2r.bmp	0	1	+	0	1	blank2r.bmp	252	1	CPPC	306	2	sonnig	559	0	0	0	0	0	0	0	0	0	0	0	0	0	0	0	0	0	0	0	0	0	0	0	0	0	0	0	0	0	0	0	0	0	0	0	0	0	0	0
070319	10:21:53	10:27:22	326383	5.0.10.0	5_exp_noRW	4	Rpleas_acq	CS_A	DXXD	JQQJ	CPPC	YFFY	LWWL	ZHHZ	vertrauen	sonnig	genießen	träumen	küssen	gütig	versagen	sterben	gemein	töten	krank	gierig	53pct	acq_USunple_CSunple1_noRW	acq23456_noRW	2	46	0	0	300	300	416	46	0	1	1	blank2r.bmp	0	1	+	0	1	blank2r.bmp	252	1	CPPC	306	1	versagen	559	0	0	0	0	0	0	0	0	0	0	0	0	0	0	0	0	0	0	0	0	0	0	0	0	0	0	0	0	0	0	0	0	0	0	0	0	0	0	0
070319	10:21:53	10:27:23	327929	5.0.10.0	5_exp_noRW	4	Rpleas_acq	CS_A	DXXD	JQQJ	CPPC	YFFY	LWWL	ZHHZ	vertrauen	sonnig	genießen	träumen	küssen	gütig	versagen	sterben	gemein	töten	krank	gierig	53pct	acq_USunple_CSpleas2_noRW	acq23456_noRW	2	47	0	0	300	300	358	46	0	1	1	blank2r.bmp	0	1	+	0	1	blank2r.bmp	252	1	JQQJ	306	1	töten	559	0	0	0	0	0	0	0	0	0	0	0	0	0	0	0	0	0	0	0	0	0	0	0	0	0	0	0	0	0	0	0	0	0	0	0	0	0	0	0
070319	10:21:53	10:27:25	329448	5.0.10.0	5_exp_noRW	4	Rpleas_acq	CS_A	DXXD	JQQJ	CPPC	YFFY	LWWL	ZHHZ	vertrauen	sonnig	genießen	träumen	küssen	gütig	versagen	sterben	gemein	töten	krank	gierig	47pct	acq_USunple_CSunple2_noRW	acq23456_noRW	2	48	0	0	300	300	353	46	0	1	1	blank2r.bmp	0	1	+	0	1	blank2r.bmp	252	1	YFFY	306	1	töten	559	0	0	0	0	0	0	0	0	0	0	0	0	0	0	0	0	0	0	0	0	0	0	0	0	0	0	0	0	0	0	0	0	0	0	0	0	0	0	0
070319	10:21:53	10:27:26	331061	5.0.10.0	5_exp_noRW	4	Rpleas_acq	CS_A	DXXD	JQQJ	CPPC	YFFY	LWWL	ZHHZ	vertrauen	sonnig	genießen	träumen	küssen	gütig	versagen	sterben	gemein	töten	krank	gierig	47pct	acq_USpleas_CSpleas2_noRW	acq23456_noRW	2	49	0	0	300	300	445	50	0	1	1	blank2r.bmp	0	1	+	0	1	blank2r.bmp	252	1	JQQJ	306	1	träumen	559	0	0	0	0	0	0	0	0	0	0	0	0	0	0	0	0	0	0	0	0	0	0	0	0	0	0	0	0	0	0	0	0	0	0	0	0	0	0	0
070319	10:21:53	10:27:28	332753	5.0.10.0	5_exp_noRW	4	Rpleas_acq	CS_A	DXXD	JQQJ	CPPC	YFFY	LWWL	ZHHZ	vertrauen	sonnig	genießen	träumen	küssen	gütig	versagen	sterben	gemein	töten	krank	gierig	53pct	acq_USpleas_CSpleas2_noRW	acq23456_noRW	2	50	0	0	300	300	515	50	0	1	1	blank2r.bmp	0	1	+	0	1	blank2r.bmp	252	1	JQQJ	306	3	gütig	559	0	0	0	0	0	0	0	0	0	0	0	0	0	0	0	0	0	0	0	0	0	0	0	0	0	0	0	0	0	0	0	0	0	0	0	0	0	0	0
070319	10:21:53	10:27:30	334326	5.0.10.0	5_exp_noRW	4	Rpleas_acq	CS_A	DXXD	JQQJ	CPPC	YFFY	LWWL	ZHHZ	vertrauen	sonnig	genießen	träumen	küssen	gütig	versagen	sterben	gemein	töten	krank	gierig	47pct	acq_USunple_CSunple2_noRW	acq23456_noRW	2	51	0	0	300	300	400	46	0	1	1	blank2r.bmp	0	1	+	0	1	blank2r.bmp	252	1	YFFY	306	2	krank	559	0	0	0	0	0	0	0	0	0	0	0	0	0	0	0	0	0	0	0	0	0	0	0	0	0	0	0	0	0	0	0	0	0	0	0	0	0	0	0
070319	10:21:53	10:27:31	335939	5.0.10.0	5_exp_noRW	4	Rpleas_acq	CS_A	DXXD	JQQJ	CPPC	YFFY	LWWL	ZHHZ	vertrauen	sonnig	genießen	träumen	küssen	gütig	versagen	sterben	gemein	töten	krank	gierig	53pct	acq_USunple_CSpleas1_noRW	acq23456_noRW	2	52	0	0	300	300	432	46	0	1	1	blank2r.bmp	0	1	+	0	1	blank2r.bmp	252	1	DXXD	306	3	gemein	559	0	0	0	0	0	0	0	0	0	0	0	0	0	0	0	0	0	0	0	0	0	0	0	0	0	0	0	0	0	0	0	0	0	0	0	0	0	0	0
070319	10:21:53	10:27:33	337511	5.0.10.0	5_exp_noRW	4	Rpleas_acq	CS_A	DXXD	JQQJ	CPPC	YFFY	LWWL	ZHHZ	vertrauen	sonnig	genießen	träumen	küssen	gütig	versagen	sterben	gemein	töten	krank	gierig	47pct	acq_USpleas_CSpleas1_noRW	acq23456_noRW	2	53	0	0	300	300	407	50	0	1	1	blank2r.bmp	0	1	+	0	1	blank2r.bmp	252	1	DXXD	306	2	sonnig	559	0	0	0	0	0	0	0	0	0	0	0	0	0	0	0	0	0	0	0	0	0	0	0	0	0	0	0	0	0	0	0	0	0	0	0	0	0	0	0
070319	10:21:53	10:27:34	339084	5.0.10.0	5_exp_noRW	4	Rpleas_acq	CS_A	DXXD	JQQJ	CPPC	YFFY	LWWL	ZHHZ	vertrauen	sonnig	genießen	träumen	küssen	gütig	versagen	sterben	gemein	töten	krank	gierig	47pct	acq_USpleas_CSpleas1_noRW	acq23456_noRW	2	54	0	0	300	300	408	50	0	1	1	blank2r.bmp	0	1	+	0	1	blank2r.bmp	252	1	DXXD	306	3	genießen	559	0	0	0	0	0	0	0	0	0	0	0	0	0	0	0	0	0	0	0	0	0	0	0	0	0	0	0	0	0	0	0	0	0	0	0	0	0	0	0
070319	10:21:53	10:27:36	340683	5.0.10.0	5_exp_noRW	4	Rpleas_acq	CS_A	DXXD	JQQJ	CPPC	YFFY	LWWL	ZHHZ	vertrauen	sonnig	genießen	träumen	küssen	gütig	versagen	sterben	gemein	töten	krank	gierig	47pct	acq_USunple_CSunple1_noRW	acq23456_noRW	2	55	0	0	300	300	421	46	0	1	1	blank2r.bmp	0	1	+	0	1	blank2r.bmp	252	1	CPPC	306	3	gemein	559	0	0	0	0	0	0	0	0	0	0	0	0	0	0	0	0	0	0	0	0	0	0	0	0	0	0	0	0	0	0	0	0	0	0	0	0	0	0	0
070319	10:21:53	10:27:38	342269	5.0.10.0	5_exp_noRW	4	Rpleas_acq	CS_A	DXXD	JQQJ	CPPC	YFFY	LWWL	ZHHZ	vertrauen	sonnig	genießen	träumen	küssen	gütig	versagen	sterben	gemein	töten	krank	gierig	53pct	acq_USpleas_CSpleas2_noRW	acq23456_noRW	2	56	0	0	300	300	405	50	0	1	1	blank2r.bmp	0	1	+	0	1	blank2r.bmp	252	1	JQQJ	306	2	küssen	559	0	0	0	0	0	0	0	0	0	0	0	0	0	0	0	0	0	0	0	0	0	0	0	0	0	0	0	0	0	0	0	0	0	0	0	0	0	0	0
070319	10:21:53	10:27:39	343842	5.0.10.0	5_exp_noRW	4	Rpleas_acq	CS_A	DXXD	JQQJ	CPPC	YFFY	LWWL	ZHHZ	vertrauen	sonnig	genießen	träumen	küssen	gütig	versagen	sterben	gemein	töten	krank	gierig	47pct	acq_USpleas_CSpleas1_noRW	acq23456_noRW	2	57	0	0	300	300	408	50	0	1	1	blank2r.bmp	0	1	+	0	1	blank2r.bmp	252	1	DXXD	306	3	genießen	559	0	0	0	0	0	0	0	0	0	0	0	0	0	0	0	0	0	0	0	0	0	0	0	0	0	0	0	0	0	0	0	0	0	0	0	0	0	0	0
070319	10:21:53	10:27:41	345455	5.0.10.0	5_exp_noRW	4	Rpleas_acq	CS_A	DXXD	JQQJ	CPPC	YFFY	LWWL	ZHHZ	vertrauen	sonnig	genießen	träumen	küssen	gütig	versagen	sterben	gemein	töten	krank	gierig	47pct	acq_USunple_CSunple2_noRW	acq23456_noRW	2	58	0	0	300	300	432	46	0	1	1	blank2r.bmp	0	1	+	0	1	blank2r.bmp	252	1	YFFY	306	3	gierig	559	0	0	0	0	0	0	0	0	0	0	0	0	0	0	0	0	0	0	0	0	0	0	0	0	0	0	0	0	0	0	0	0	0	0	0	0	0	0	0
070319	10:21:53	10:27:42	347121	5.0.10.0	5_exp_noRW	4	Rpleas_acq	CS_A	DXXD	JQQJ	CPPC	YFFY	LWWL	ZHHZ	vertrauen	sonnig	genießen	träumen	küssen	gütig	versagen	sterben	gemein	töten	krank	gierig	53pct	acq_USunple_CSunple1_noRW	acq23456_noRW	2	59	0	0	300	300	504	46	0	1	1	blank2r.bmp	0	1	+	0	1	blank2r.bmp	252	1	CPPC	306	1	versagen	559	0	0	0	0	0	0	0	0	0	0	0	0	0	0	0	0	0	0	0	0	0	0	0	0	0	0	0	0	0	0	0	0	0	0	0	0	0	0	0
070319	10:21:53	10:27:44	348667	5.0.10.0	5_exp_noRW	4	Rpleas_acq	CS_A	DXXD	JQQJ	CPPC	YFFY	LWWL	ZHHZ	vertrauen	sonnig	genießen	träumen	küssen	gütig	versagen	sterben	gemein	töten	krank	gierig	53pct	acq_USpleas_CSpleas2_noRW	acq23456_noRW	2	60	0	0	300	300	373	50	0	1	1	blank2r.bmp	0	1	+	0	1	blank2r.bmp	252	1	JQQJ	306	2	küssen	559	0	0	0	0	0	0	0	0	0	0	0	0	0	0	0	0	0	0	0	0	0	0	0	0	0	0	0	0	0	0	0	0	0	0	0	0	0	0	0
070319	10:21:53	10:27:45	350253	5.0.10.0	5_exp_noRW	4	Rpleas_acq	CS_A	DXXD	JQQJ	CPPC	YFFY	LWWL	ZHHZ	vertrauen	sonnig	genießen	träumen	küssen	gütig	versagen	sterben	gemein	töten	krank	gierig	47pct	acq_USunple_CSunple1_noRW	acq23456_noRW	2	61	0	0	300	300	421	46	0	1	1	blank2r.bmp	0	1	+	0	1	blank2r.bmp	252	1	CPPC	306	2	sterben	559	0	0	0	0	0	0	0	0	0	0	0	0	0	0	0	0	0	0	0	0	0	0	0	0	0	0	0	0	0	0	0	0	0	0	0	0	0	0	0
070319	10:21:53	10:27:47	351905	5.0.10.0	5_exp_noRW	4	Rpleas_acq	CS_A	DXXD	JQQJ	CPPC	YFFY	LWWL	ZHHZ	vertrauen	sonnig	genießen	träumen	küssen	gütig	versagen	sterben	gemein	töten	krank	gierig	47pct	acq_USunple_CSunple1_noRW	acq23456_noRW	2	62	0	0	300	300	470	46	0	1	1	blank2r.bmp	0	1	+	0	1	blank2r.bmp	252	1	CPPC	306	3	gemein	559	0	0	0	0	0	0	0	0	0	0	0	0	0	0	0	0	0	0	0	0	0	0	0	0	0	0	0	0	0	0	0	0	0	0	0	0	0	0	0
070319	10:21:53	10:27:49	353478	5.0.10.0	5_exp_noRW	4	Rpleas_acq	CS_A	DXXD	JQQJ	CPPC	YFFY	LWWL	ZHHZ	vertrauen	sonnig	genießen	träumen	küssen	gütig	versagen	sterben	gemein	töten	krank	gierig	47pct	acq_USunple_CSunple2_noRW	acq23456_noRW	2	63	0	0	300	300	386	46	0	1	1	blank2r.bmp	0	1	+	0	1	blank2r.bmp	252	1	YFFY	306	1	töten	559	0	0	0	0	0	0	0	0	0	0	0	0	0	0	0	0	0	0	0	0	0	0	0	0	0	0	0	0	0	0	0	0	0	0	0	0	0	0	0
070319	10:21:53	10:27:50	355024	5.0.10.0	5_exp_noRW	4	Rpleas_acq	CS_A	DXXD	JQQJ	CPPC	YFFY	LWWL	ZHHZ	vertrauen	sonnig	genießen	träumen	küssen	gütig	versagen	sterben	gemein	töten	krank	gierig	53pct	acq_USunple_CSpleas2_noRW	acq23456_noRW	2	64	0	0	300	300	372	46	0	1	1	blank2r.bmp	0	1	+	0	1	blank2r.bmp	252	1	JQQJ	306	2	krank	559	0	0	0	0	0	0	0	0	0	0	0	0	0	0	0	0	0	0	0	0	0	0	0	0	0	0	0	0	0	0	0	0	0	0	0	0	0	0	0
070319	10:21:53	10:27:52	356757	5.0.10.0	5_exp_noRW	4	Rpleas_acq	CS_A	DXXD	JQQJ	CPPC	YFFY	LWWL	ZHHZ	vertrauen	sonnig	genießen	träumen	küssen	gütig	versagen	sterben	gemein	töten	krank	gierig	47pct	acq_USpleas_CSpleas2_noRW	acq23456_noRW	2	65	0	0	300	300	565	50	0	1	1	blank2r.bmp	0	1	+	0	1	blank2r.bmp	252	1	JQQJ	306	3	gütig	559	0	0	0	0	0	0	0	0	0	0	0	0	0	0	0	0	0	0	0	0	0	0	0	0	0	0	0	0	0	0	0	0	0	0	0	0	0	0	0
070319	10:21:53	10:27:54	358356	5.0.10.0	5_exp_noRW	4	Rpleas_acq	CS_A	DXXD	JQQJ	CPPC	YFFY	LWWL	ZHHZ	vertrauen	sonnig	genießen	träumen	küssen	gütig	versagen	sterben	gemein	töten	krank	gierig	47pct	acq_USunple_CSunple2_noRW	acq23456_noRW	2	66	0	0	300	300	411	46	0	1	1	blank2r.bmp	0	1	+	0	1	blank2r.bmp	252	1	YFFY	306	2	krank	559	0	0	0	0	0	0	0	0	0	0	0	0	0	0	0	0	0	0	0	0	0	0	0	0	0	0	0	0	0	0	0	0	0	0	0	0	0	0	0
070319	10:21:53	10:27:55	359995	5.0.10.0	5_exp_noRW	4	Rpleas_acq	CS_A	DXXD	JQQJ	CPPC	YFFY	LWWL	ZHHZ	vertrauen	sonnig	genießen	träumen	küssen	gütig	versagen	sterben	gemein	töten	krank	gierig	53pct	acq_USpleas_CSunple2_noRW	acq23456_noRW	2	67	0	0	300	300	470	50	0	1	1	blank2r.bmp	0	1	+	0	1	blank2r.bmp	252	1	YFFY	306	3	gütig	559	0	0	0	0	0	0	0	0	0	0	0	0	0	0	0	0	0	0	0	0	0	0	0	0	0	0	0	0	0	0	0	0	0	0	0	0	0	0	0
070319	10:21:53	10:27:57	361515	5.0.10.0	5_exp_noRW	4	Rpleas_acq	CS_A	DXXD	JQQJ	CPPC	YFFY	LWWL	ZHHZ	vertrauen	sonnig	genießen	träumen	küssen	gütig	versagen	sterben	gemein	töten	krank	gierig	47pct	acq_USunple_CSpleas1_noRW	acq23456_noRW	2	68	0	0	300	300	349	46	0	1	1	blank2r.bmp	0	1	+	0	1	blank2r.bmp	252	1	DXXD	306	1	versagen	559	0	0	0	0	0	0	0	0	0	0	0	0	0	0	0	0	0	0	0	0	0	0	0	0	0	0	0	0	0	0	0	0	0	0	0	0	0	0	0
070319	10:21:53	10:27:58	363021	5.0.10.0	5_exp_noRW	4	Rpleas_acq	CS_A	DXXD	JQQJ	CPPC	YFFY	LWWL	ZHHZ	vertrauen	sonnig	genießen	träumen	küssen	gütig	versagen	sterben	gemein	töten	krank	gierig	53pct	acq_USpleas_CSpleas1_noRW	acq23456_noRW	2	69	0	0	300	300	319	50	0	1	1	blank2r.bmp	0	1	+	0	1	blank2r.bmp	252	1	DXXD	306	2	sonnig	559	0	0	0	0	0	0	0	0	0	0	0	0	0	0	0	0	0	0	0	0	0	0	0	0	0	0	0	0	0	0	0	0	0	0	0	0	0	0	0
070319	10:21:53	10:28:00	364633	5.0.10.0	5_exp_noRW	4	Rpleas_acq	CS_A	DXXD	JQQJ	CPPC	YFFY	LWWL	ZHHZ	vertrauen	sonnig	genießen	träumen	küssen	gütig	versagen	sterben	gemein	töten	krank	gierig	53pct	acq_USpleas_CSunple1_noRW	acq23456_noRW	2	70	0	0	300	300	440	50	0	1	1	blank2r.bmp	0	1	+	0	1	blank2r.bmp	252	1	CPPC	306	3	genießen	559	0	0	0	0	0	0	0	0	0	0	0	0	0	0	0	0	0	0	0	0	0	0	0	0	0	0	0	0	0	0	0	0	0	0	0	0	0	0	0
070319	10:21:53	10:28:01	366219	5.0.10.0	5_exp_noRW	4	Rpleas_acq	CS_A	DXXD	JQQJ	CPPC	YFFY	LWWL	ZHHZ	vertrauen	sonnig	genießen	träumen	küssen	gütig	versagen	sterben	gemein	töten	krank	gierig	47pct	acq_USunple_CSunple1_noRW	acq23456_noRW	2	71	0	0	300	300	423	46	0	1	1	blank2r.bmp	0	1	+	0	1	blank2r.bmp	252	1	CPPC	306	3	gemein	559	0	0	0	0	0	0	0	0	0	0	0	0	0	0	0	0	0	0	0	0	0	0	0	0	0	0	0	0	0	0	0	0	0	0	0	0	0	0	0
070319	10:21:53	10:28:03	367832	5.0.10.0	5_exp_noRW	4	Rpleas_acq	CS_A	DXXD	JQQJ	CPPC	YFFY	LWWL	ZHHZ	vertrauen	sonnig	genießen	träumen	küssen	gütig	versagen	sterben	gemein	töten	krank	gierig	53pct	acq_USpleas_CSpleas1_noRW	acq23456_noRW	2	72	0	0	300	300	432	50	0	1	1	blank2r.bmp	0	1	+	0	1	blank2r.bmp	252	1	DXXD	306	1	vertrauen	559	0	0	0	0	0	0	0	0	0	0	0	0	0	0	0	0	0	0	0	0	0	0	0	0	0	0	0	0	0	0	0	0	0	0	0	0	0	0	0
070319	10:21:53	10:28:05	369458	5.0.10.0	5_exp_noRW	4	Rpleas_acq	CS_A	DXXD	JQQJ	CPPC	YFFY	LWWL	ZHHZ	vertrauen	sonnig	genießen	träumen	küssen	gütig	versagen	sterben	gemein	töten	krank	gierig	53pct	acq_USpleas_CSpleas2_noRW	acq23456_noRW	2	73	0	0	300	300	450	50	0	1	1	blank2r.bmp	0	1	+	0	1	blank2r.bmp	252	1	JQQJ	306	1	träumen	559	0	0	0	0	0	0	0	0	0	0	0	0	0	0	0	0	0	0	0	0	0	0	0	0	0	0	0	0	0	0	0	0	0	0	0	0	0	0	0
070319	10:21:53	10:28:06	371071	5.0.10.0	5_exp_noRW	4	Rpleas_acq	CS_A	DXXD	JQQJ	CPPC	YFFY	LWWL	ZHHZ	vertrauen	sonnig	genießen	träumen	küssen	gütig	versagen	sterben	gemein	töten	krank	gierig	47pct	acq_USpleas_CSpleas1_noRW	acq23456_noRW	2	74	0	0	300	300	435	50	0	1	1	blank2r.bmp	0	1	+	0	1	blank2r.bmp	252	1	DXXD	306	3	genießen	559	0	0	0	0	0	0	0	0	0	0	0	0	0	0	0	0	0	0	0	0	0	0	0	0	0	0	0	0	0	0	0	0	0	0	0	0	0	0	0
070319	10:21:53	10:28:08	372683	5.0.10.0	5_exp_noRW	4	Rpleas_acq	CS_A	DXXD	JQQJ	CPPC	YFFY	LWWL	ZHHZ	vertrauen	sonnig	genießen	träumen	küssen	gütig	versagen	sterben	gemein	töten	krank	gierig	53pct	acq_USunple_CSunple1_noRW	acq23456_noRW	2	75	0	0	300	300	436	46	0	1	1	blank2r.bmp	0	1	+	0	1	blank2r.bmp	252	1	CPPC	306	1	versagen	559	0	0	0	0	0	0	0	0	0	0	0	0	0	0	0	0	0	0	0	0	0	0	0	0	0	0	0	0	0	0	0	0	0	0	0	0	0	0	0
070319	10:21:53	10:28:10	374323	5.0.10.0	5_exp_noRW	4	Rpleas_acq	CS_A	DXXD	JQQJ	CPPC	YFFY	LWWL	ZHHZ	vertrauen	sonnig	genießen	träumen	küssen	gütig	versagen	sterben	gemein	töten	krank	gierig	53pct	acq_USunple_CSunple2_noRW	acq23456_noRW	2	76	0	0	300	300	464	46	0	1	1	blank2r.bmp	0	1	+	0	1	blank2r.bmp	252	1	YFFY	306	1	töten	559	0	0	0	0	0	0	0	0	0	0	0	0	0	0	0	0	0	0	0	0	0	0	0	0	0	0	0	0	0	0	0	0	0	0	0	0	0	0	0
070319	10:21:53	10:28:11	376095	5.0.10.0	5_exp_noRW	4	Rpleas_acq	CS_A	DXXD	JQQJ	CPPC	YFFY	LWWL	ZHHZ	vertrauen	sonnig	genießen	träumen	küssen	gütig	versagen	sterben	gemein	töten	krank	gierig	53pct	acq_USunple_CSunple2_noRW	acq23456_noRW	2	77	0	0	300	300	381	50	0	0	1	blank2r.bmp	0	1	+	0	1	blank2r.bmp	252	1	YFFY	306	3	gierig	559	1	FEHLER	972	0	0	0	0	0	0	0	0	0	0	0	0	0	0	0	0	0	0	0	0	0	0	0	0	0	0	0	0	0	0	0	0	0	0	0	0
070319	10:21:53	10:28:13	377615	5.0.10.0	5_exp_noRW	4	Rpleas_acq	CS_A	DXXD	JQQJ	CPPC	YFFY	LWWL	ZHHZ	vertrauen	sonnig	genießen	träumen	küssen	gütig	versagen	sterben	gemein	töten	krank	gierig	53pct	acq_USpleas_CSpleas2_noRW	acq23456_noRW	2	78	0	0	300	300	555	50	0	1	1	blank2r.bmp	0	1	+	0	1	blank2r.bmp	252	1	JQQJ	306	2	küssen	559	0	0	0	0	0	0	0	0	0	0	0	0	0	0	0	0	0	0	0	0	0	0	0	0	0	0	0	0	0	0	0	0	0	0	0	0	0	0	0
070319	10:21:53	10:28:15	379267	5.0.10.0	5_exp_noRW	4	Rpleas_acq	CS_A	DXXD	JQQJ	CPPC	YFFY	LWWL	ZHHZ	vertrauen	sonnig	genießen	träumen	küssen	gütig	versagen	sterben	gemein	töten	krank	gierig	53pct	acq_USpleas_CSpleas1_noRW	acq23456_noRW	2	79	0	0	300	300	469	50	0	1	1	blank2r.bmp	0	1	+	0	1	blank2r.bmp	252	1	DXXD	306	1	vertrauen	559	0	0	0	0	0	0	0	0	0	0	0	0	0	0	0	0	0	0	0	0	0	0	0	0	0	0	0	0	0	0	0	0	0	0	0	0	0	0	0
070319	10:21:53	10:28:16	380867	5.0.10.0	5_exp_noRW	4	Rpleas_acq	CS_A	DXXD	JQQJ	CPPC	YFFY	LWWL	ZHHZ	vertrauen	sonnig	genießen	träumen	küssen	gütig	versagen	sterben	gemein	töten	krank	gierig	47pct	acq_USpleas_CSpleas2_noRW	acq23456_noRW	2	80	0	0	300	300	422	50	0	1	1	blank2r.bmp	0	1	+	0	1	blank2r.bmp	252	1	JQQJ	306	1	träumen	559	0	0	0	0	0	0	0	0	0	0	0	0	0	0	0	0	0	0	0	0	0	0	0	0	0	0	0	0	0	0	0	0	0	0	0	0	0	0	0
070319	10:21:53	10:28:28	393128	5.0.10.0	5_exp_noRW	4	Rpleas_acq	CS_A	DXXD	JQQJ	CPPC	YFFY	LWWL	ZHHZ	vertrauen	sonnig	genießen	träumen	küssen	gütig	versagen	sterben	gemein	töten	krank	gierig	47pct	acq_USunple_CSpleas2_noRW	acq23456_noRW	3	1	0	0	300	300	495	46	0	1	1	blank2r.bmp	0	1	+	0	1	blank2r.bmp	252	1	JQQJ	306	3	gierig	559	0	0	0	0	0	0	0	0	0	0	0	0	0	0	0	0	0	0	0	0	0	0	0	0	0	0	0	0	0	0	0	0	0	0	0	0	0	0	0
070319	10:21:53	10:28:30	394754	5.0.10.0	5_exp_noRW	4	Rpleas_acq	CS_A	DXXD	JQQJ	CPPC	YFFY	LWWL	ZHHZ	vertrauen	sonnig	genießen	träumen	küssen	gütig	versagen	sterben	gemein	töten	krank	gierig	53pct	acq_USpleas_CSunple1_noRW	acq23456_noRW	3	2	0	0	300	300	458	50	0	1	1	blank2r.bmp	0	1	+	0	1	blank2r.bmp	252	1	CPPC	306	1	vertrauen	559	0	0	0	0	0	0	0	0	0	0	0	0	0	0	0	0	0	0	0	0	0	0	0	0	0	0	0	0	0	0	0	0	0	0	0	0	0	0	0
070319	10:21:53	10:28:32	396487	5.0.10.0	5_exp_noRW	4	Rpleas_acq	CS_A	DXXD	JQQJ	CPPC	YFFY	LWWL	ZHHZ	vertrauen	sonnig	genießen	träumen	küssen	gütig	versagen	sterben	gemein	töten	krank	gierig	53pct	acq_USunple_CSunple1_noRW	acq23456_noRW	3	3	0	0	300	300	545	46	0	1	1	blank2r.bmp	0	1	+	0	1	blank2r.bmp	252	1	CPPC	306	2	sterben	559	0	0	0	0	0	0	0	0	0	0	0	0	0	0	0	0	0	0	0	0	0	0	0	0	0	0	0	0	0	0	0	0	0	0	0	0	0	0	0
070319	10:21:53	10:28:33	398033	5.0.10.0	5_exp_noRW	4	Rpleas_acq	CS_A	DXXD	JQQJ	CPPC	YFFY	LWWL	ZHHZ	vertrauen	sonnig	genießen	träumen	küssen	gütig	versagen	sterben	gemein	töten	krank	gierig	53pct	acq_USpleas_CSpleas1_noRW	acq23456_noRW	3	4	0	0	300	300	378	50	0	1	1	blank2r.bmp	0	1	+	0	1	blank2r.bmp	252	1	DXXD	306	2	sonnig	559	0	0	0	0	0	0	0	0	0	0	0	0	0	0	0	0	0	0	0	0	0	0	0	0	0	0	0	0	0	0	0	0	0	0	0	0	0	0	0
070319	10:21:53	10:28:35	399712	5.0.10.0	5_exp_noRW	4	Rpleas_acq	CS_A	DXXD	JQQJ	CPPC	YFFY	LWWL	ZHHZ	vertrauen	sonnig	genießen	träumen	küssen	gütig	versagen	sterben	gemein	töten	krank	gierig	47pct	acq_USunple_CSunple1_noRW	acq23456_noRW	3	5	0	0	300	300	497	46	0	1	1	blank2r.bmp	0	1	+	0	1	blank2r.bmp	252	1	CPPC	306	2	sterben	559	0	0	0	0	0	0	0	0	0	0	0	0	0	0	0	0	0	0	0	0	0	0	0	0	0	0	0	0	0	0	0	0	0	0	0	0	0	0	0
070319	10:21:53	10:28:37	401351	5.0.10.0	5_exp_noRW	4	Rpleas_acq	CS_A	DXXD	JQQJ	CPPC	YFFY	LWWL	ZHHZ	vertrauen	sonnig	genießen	träumen	küssen	gütig	versagen	sterben	gemein	töten	krank	gierig	47pct	acq_USpleas_CSpleas1_noRW	acq23456_noRW	3	6	0	0	300	300	470	50	0	1	1	blank2r.bmp	0	1	+	0	1	blank2r.bmp	252	1	DXXD	306	3	genießen	559	0	0	0	0	0	0	0	0	0	0	0	0	0	0	0	0	0	0	0	0	0	0	0	0	0	0	0	0	0	0	0	0	0	0	0	0	0	0	0
070319	10:21:53	10:28:38	402924	5.0.10.0	5_exp_noRW	4	Rpleas_acq	CS_A	DXXD	JQQJ	CPPC	YFFY	LWWL	ZHHZ	vertrauen	sonnig	genießen	träumen	küssen	gütig	versagen	sterben	gemein	töten	krank	gierig	53pct	acq_USunple_CSpleas1_noRW	acq23456_noRW	3	7	0	0	300	300	407	46	0	1	1	blank2r.bmp	0	1	+	0	1	blank2r.bmp	252	1	DXXD	306	2	sterben	559	0	0	0	0	0	0	0	0	0	0	0	0	0	0	0	0	0	0	0	0	0	0	0	0	0	0	0	0	0	0	0	0	0	0	0	0	0	0	0
070319	10:21:53	10:28:40	404577	5.0.10.0	5_exp_noRW	4	Rpleas_acq	CS_A	DXXD	JQQJ	CPPC	YFFY	LWWL	ZHHZ	vertrauen	sonnig	genießen	träumen	küssen	gütig	versagen	sterben	gemein	töten	krank	gierig	53pct	acq_USpleas_CSpleas2_noRW	acq23456_noRW	3	8	0	0	300	300	481	50	0	1	1	blank2r.bmp	0	1	+	0	1	blank2r.bmp	252	1	JQQJ	306	3	gütig	559	0	0	0	0	0	0	0	0	0	0	0	0	0	0	0	0	0	0	0	0	0	0	0	0	0	0	0	0	0	0	0	0	0	0	0	0	0	0	0
070319	10:21:53	10:28:41	406216	5.0.10.0	5_exp_noRW	4	Rpleas_acq	CS_A	DXXD	JQQJ	CPPC	YFFY	LWWL	ZHHZ	vertrauen	sonnig	genießen	träumen	küssen	gütig	versagen	sterben	gemein	töten	krank	gierig	53pct	acq_USunple_CSunple2_noRW	acq23456_noRW	3	9	0	0	300	300	472	46	0	1	1	blank2r.bmp	0	1	+	0	1	blank2r.bmp	252	1	YFFY	306	2	krank	559	0	0	0	0	0	0	0	0	0	0	0	0	0	0	0	0	0	0	0	0	0	0	0	0	0	0	0	0	0	0	0	0	0	0	0	0	0	0	0
070319	10:21:53	10:28:43	407735	5.0.10.0	5_exp_noRW	4	Rpleas_acq	CS_A	DXXD	JQQJ	CPPC	YFFY	LWWL	ZHHZ	vertrauen	sonnig	genießen	träumen	küssen	gütig	versagen	sterben	gemein	töten	krank	gierig	47pct	acq_USunple_CSunple2_noRW	acq23456_noRW	3	10	0	0	300	300	350	46	0	1	1	blank2r.bmp	0	1	+	0	1	blank2r.bmp	252	1	YFFY	306	1	töten	559	0	0	0	0	0	0	0	0	0	0	0	0	0	0	0	0	0	0	0	0	0	0	0	0	0	0	0	0	0	0	0	0	0	0	0	0	0	0	0
070319	10:21:53	10:28:45	409348	5.0.10.0	5_exp_noRW	4	Rpleas_acq	CS_A	DXXD	JQQJ	CPPC	YFFY	LWWL	ZHHZ	vertrauen	sonnig	genießen	träumen	küssen	gütig	versagen	sterben	gemein	töten	krank	gierig	47pct	acq_USpleas_CSpleas2_noRW	acq23456_noRW	3	11	0	0	300	300	426	50	0	1	1	blank2r.bmp	0	1	+	0	1	blank2r.bmp	252	1	JQQJ	306	1	träumen	559	0	0	0	0	0	0	0	0	0	0	0	0	0	0	0	0	0	0	0	0	0	0	0	0	0	0	0	0	0	0	0	0	0	0	0	0	0	0	0
070319	10:21:53	10:28:46	411201	5.0.10.0	5_exp_noRW	4	Rpleas_acq	CS_A	DXXD	JQQJ	CPPC	YFFY	LWWL	ZHHZ	vertrauen	sonnig	genießen	träumen	küssen	gütig	versagen	sterben	gemein	töten	krank	gierig	47pct	acq_USpleas_CSunple2_noRW	acq23456_noRW	3	12	0	0	300	300	458	46	0	0	1	blank2r.bmp	0	1	+	0	1	blank2r.bmp	252	1	YFFY	306	1	träumen	559	1	FEHLER	1052	0	0	0	0	0	0	0	0	0	0	0	0	0	0	0	0	0	0	0	0	0	0	0	0	0	0	0	0	0	0	0	0	0	0	0	0
070319	10:21:53	10:28:48	412613	5.0.10.0	5_exp_noRW	4	Rpleas_acq	CS_A	DXXD	JQQJ	CPPC	YFFY	LWWL	ZHHZ	vertrauen	sonnig	genießen	träumen	küssen	gütig	versagen	sterben	gemein	töten	krank	gierig	47pct	acq_USpleas_CSpleas2_noRW	acq23456_noRW	3	13	0	0	300	300	459	50	0	1	1	blank2r.bmp	0	1	+	0	1	blank2r.bmp	252	1	JQQJ	306	2	küssen	559	0	0	0	0	0	0	0	0	0	0	0	0	0	0	0	0	0	0	0	0	0	0	0	0	0	0	0	0	0	0	0	0	0	0	0	0	0	0	0
070319	10:21:53	10:28:49	414159	5.0.10.0	5_exp_noRW	4	Rpleas_acq	CS_A	DXXD	JQQJ	CPPC	YFFY	LWWL	ZHHZ	vertrauen	sonnig	genießen	träumen	küssen	gütig	versagen	sterben	gemein	töten	krank	gierig	53pct	acq_USunple_CSunple1_noRW	acq23456_noRW	3	14	0	0	300	300	372	46	0	1	1	blank2r.bmp	0	1	+	0	1	blank2r.bmp	252	1	CPPC	306	3	gemein	559	0	0	0	0	0	0	0	0	0	0	0	0	0	0	0	0	0	0	0	0	0	0	0	0	0	0	0	0	0	0	0	0	0	0	0	0	0	0	0
070319	10:21:53	10:28:51	415745	5.0.10.0	5_exp_noRW	4	Rpleas_acq	CS_A	DXXD	JQQJ	CPPC	YFFY	LWWL	ZHHZ	vertrauen	sonnig	genießen	träumen	küssen	gütig	versagen	sterben	gemein	töten	krank	gierig	47pct	acq_USunple_CSunple1_noRW	acq23456_noRW	3	15	0	0	300	300	415	46	0	1	1	blank2r.bmp	0	1	+	0	1	blank2r.bmp	252	1	CPPC	306	1	versagen	559	0	0	0	0	0	0	0	0	0	0	0	0	0	0	0	0	0	0	0	0	0	0	0	0	0	0	0	0	0	0	0	0	0	0	0	0	0	0	0
070319	10:21:53	10:28:53	417358	5.0.10.0	5_exp_noRW	4	Rpleas_acq	CS_A	DXXD	JQQJ	CPPC	YFFY	LWWL	ZHHZ	vertrauen	sonnig	genießen	träumen	küssen	gütig	versagen	sterben	gemein	töten	krank	gierig	47pct	acq_USunple_CSunple2_noRW	acq23456_noRW	3	16	0	0	300	300	440	46	0	1	1	blank2r.bmp	0	1	+	0	1	blank2r.bmp	252	1	YFFY	306	3	gierig	559	0	0	0	0	0	0	0	0	0	0	0	0	0	0	0	0	0	0	0	0	0	0	0	0	0	0	0	0	0	0	0	0	0	0	0	0	0	0	0
070319	10:21:53	10:28:54	418957	5.0.10.0	5_exp_noRW	4	Rpleas_acq	CS_A	DXXD	JQQJ	CPPC	YFFY	LWWL	ZHHZ	vertrauen	sonnig	genießen	träumen	küssen	gütig	versagen	sterben	gemein	töten	krank	gierig	53pct	acq_USpleas_CSpleas1_noRW	acq23456_noRW	3	17	0	0	300	300	426	50	0	1	1	blank2r.bmp	0	1	+	0	1	blank2r.bmp	252	1	DXXD	306	1	vertrauen	559	0	0	0	0	0	0	0	0	0	0	0	0	0	0	0	0	0	0	0	0	0	0	0	0	0	0	0	0	0	0	0	0	0	0	0	0	0	0	0
070319	10:21:53	10:28:56	420650	5.0.10.0	5_exp_noRW	4	Rpleas_acq	CS_A	DXXD	JQQJ	CPPC	YFFY	LWWL	ZHHZ	vertrauen	sonnig	genießen	träumen	küssen	gütig	versagen	sterben	gemein	töten	krank	gierig	47pct	acq_USpleas_CSpleas2_noRW	acq23456_noRW	3	18	0	0	300	300	509	50	0	1	1	blank2r.bmp	0	1	+	0	1	blank2r.bmp	252	1	JQQJ	306	3	gütig	559	0	0	0	0	0	0	0	0	0	0	0	0	0	0	0	0	0	0	0	0	0	0	0	0	0	0	0	0	0	0	0	0	0	0	0	0	0	0	0
070319	10:21:53	10:28:58	422263	5.0.10.0	5_exp_noRW	4	Rpleas_acq	CS_A	DXXD	JQQJ	CPPC	YFFY	LWWL	ZHHZ	vertrauen	sonnig	genießen	träumen	küssen	gütig	versagen	sterben	gemein	töten	krank	gierig	47pct	acq_USunple_CSunple2_noRW	acq23456_noRW	3	19	0	0	300	300	442	46	0	1	1	blank2r.bmp	0	1	+	0	1	blank2r.bmp	252	1	YFFY	306	2	krank	559	0	0	0	0	0	0	0	0	0	0	0	0	0	0	0	0	0	0	0	0	0	0	0	0	0	0	0	0	0	0	0	0	0	0	0	0	0	0	0
070319	10:21:53	10:28:59	423862	5.0.10.0	5_exp_noRW	4	Rpleas_acq	CS_A	DXXD	JQQJ	CPPC	YFFY	LWWL	ZHHZ	vertrauen	sonnig	genießen	träumen	küssen	gütig	versagen	sterben	gemein	töten	krank	gierig	53pct	acq_USpleas_CSpleas1_noRW	acq23456_noRW	3	20	0	0	300	300	416	50	0	1	1	blank2r.bmp	0	1	+	0	1	blank2r.bmp	252	1	DXXD	306	2	sonnig	559	0	0	0	0	0	0	0	0	0	0	0	0	0	0	0	0	0	0	0	0	0	0	0	0	0	0	0	0	0	0	0	0	0	0	0	0	0	0	0
070319	10:21:53	10:29:01	425648	5.0.10.0	5_exp_noRW	4	Rpleas_acq	CS_A	DXXD	JQQJ	CPPC	YFFY	LWWL	ZHHZ	vertrauen	sonnig	genießen	träumen	küssen	gütig	versagen	sterben	gemein	töten	krank	gierig	47pct	acq_USpleas_CSunple2_noRW	acq23456_noRW	3	21	0	0	300	300	619	50	0	1	1	blank2r.bmp	0	1	+	0	1	blank2r.bmp	252	1	YFFY	306	3	gütig	559	0	0	0	0	0	0	0	0	0	0	0	0	0	0	0	0	0	0	0	0	0	0	0	0	0	0	0	0	0	0	0	0	0	0	0	0	0	0	0
070319	10:21:53	10:29:03	427554	5.0.10.0	5_exp_noRW	4	Rpleas_acq	CS_A	DXXD	JQQJ	CPPC	YFFY	LWWL	ZHHZ	vertrauen	sonnig	genießen	träumen	küssen	gütig	versagen	sterben	gemein	töten	krank	gierig	53pct	acq_USpleas_CSpleas2_noRW	acq23456_noRW	3	22	0	0	300	300	731	50	0	1	1	blank2r.bmp	0	1	+	0	1	blank2r.bmp	252	1	JQQJ	306	3	gütig	559	0	0	0	0	0	0	0	0	0	0	0	0	0	0	0	0	0	0	0	0	0	0	0	0	0	0	0	0	0	0	0	0	0	0	0	0	0	0	0
070319	10:21:53	10:29:04	429140	5.0.10.0	5_exp_noRW	4	Rpleas_acq	CS_A	DXXD	JQQJ	CPPC	YFFY	LWWL	ZHHZ	vertrauen	sonnig	genießen	träumen	küssen	gütig	versagen	sterben	gemein	töten	krank	gierig	53pct	acq_USunple_CSunple2_noRW	acq23456_noRW	3	23	0	0	300	300	415	46	0	1	1	blank2r.bmp	0	1	+	0	1	blank2r.bmp	252	1	YFFY	306	1	töten	559	0	0	0	0	0	0	0	0	0	0	0	0	0	0	0	0	0	0	0	0	0	0	0	0	0	0	0	0	0	0	0	0	0	0	0	0	0	0	0
070319	10:21:53	10:29:06	430792	5.0.10.0	5_exp_noRW	4	Rpleas_acq	CS_A	DXXD	JQQJ	CPPC	YFFY	LWWL	ZHHZ	vertrauen	sonnig	genießen	träumen	küssen	gütig	versagen	sterben	gemein	töten	krank	gierig	47pct	acq_USunple_CSunple1_noRW	acq23456_noRW	3	24	0	0	300	300	469	46	0	1	1	blank2r.bmp	0	1	+	0	1	blank2r.bmp	252	1	CPPC	306	2	sterben	559	0	0	0	0	0	0	0	0	0	0	0	0	0	0	0	0	0	0	0	0	0	0	0	0	0	0	0	0	0	0	0	0	0	0	0	0	0	0	0
070319	10:21:53	10:29:08	432405	5.0.10.0	5_exp_noRW	4	Rpleas_acq	CS_A	DXXD	JQQJ	CPPC	YFFY	LWWL	ZHHZ	vertrauen	sonnig	genießen	träumen	küssen	gütig	versagen	sterben	gemein	töten	krank	gierig	47pct	acq_USunple_CSpleas1_noRW	acq23456_noRW	3	25	0	0	300	300	436	46	0	1	1	blank2r.bmp	0	1	+	0	1	blank2r.bmp	252	1	DXXD	306	1	versagen	559	0	0	0	0	0	0	0	0	0	0	0	0	0	0	0	0	0	0	0	0	0	0	0	0	0	0	0	0	0	0	0	0	0	0	0	0	0	0	0
070319	10:21:53	10:29:09	433964	5.0.10.0	5_exp_noRW	4	Rpleas_acq	CS_A	DXXD	JQQJ	CPPC	YFFY	LWWL	ZHHZ	vertrauen	sonnig	genießen	träumen	küssen	gütig	versagen	sterben	gemein	töten	krank	gierig	47pct	acq_USpleas_CSunple1_noRW	acq23456_noRW	3	26	0	0	300	300	391	50	0	1	1	blank2r.bmp	0	1	+	0	1	blank2r.bmp	252	1	CPPC	306	3	genießen	559	0	0	0	0	0	0	0	0	0	0	0	0	0	0	0	0	0	0	0	0	0	0	0	0	0	0	0	0	0	0	0	0	0	0	0	0	0	0	0
070319	10:21:53	10:29:11	435604	5.0.10.0	5_exp_noRW	4	Rpleas_acq	CS_A	DXXD	JQQJ	CPPC	YFFY	LWWL	ZHHZ	vertrauen	sonnig	genießen	träumen	küssen	gütig	versagen	sterben	gemein	töten	krank	gierig	53pct	acq_USunple_CSunple1_noRW	acq23456_noRW	3	27	0	0	300	300	460	46	0	1	1	blank2r.bmp	0	1	+	0	1	blank2r.bmp	252	1	CPPC	306	1	versagen	559	0	0	0	0	0	0	0	0	0	0	0	0	0	0	0	0	0	0	0	0	0	0	0	0	0	0	0	0	0	0	0	0	0	0	0	0	0	0	0
070319	10:21:53	10:29:12	437176	5.0.10.0	5_exp_noRW	4	Rpleas_acq	CS_A	DXXD	JQQJ	CPPC	YFFY	LWWL	ZHHZ	vertrauen	sonnig	genießen	träumen	küssen	gütig	versagen	sterben	gemein	töten	krank	gierig	47pct	acq_USpleas_CSpleas1_noRW	acq23456_noRW	3	28	0	0	300	300	407	50	0	1	1	blank2r.bmp	0	1	+	0	1	blank2r.bmp	252	1	DXXD	306	3	genießen	559	0	0	0	0	0	0	0	0	0	0	0	0	0	0	0	0	0	0	0	0	0	0	0	0	0	0	0	0	0	0	0	0	0	0	0	0	0	0	0
070319	10:21:53	10:29:14	438842	5.0.10.0	5_exp_noRW	4	Rpleas_acq	CS_A	DXXD	JQQJ	CPPC	YFFY	LWWL	ZHHZ	vertrauen	sonnig	genießen	träumen	küssen	gütig	versagen	sterben	gemein	töten	krank	gierig	53pct	acq_USpleas_CSpleas1_noRW	acq23456_noRW	3	29	0	0	300	300	488	50	0	1	1	blank2r.bmp	0	1	+	0	1	blank2r.bmp	252	1	DXXD	306	1	vertrauen	559	0	0	0	0	0	0	0	0	0	0	0	0	0	0	0	0	0	0	0	0	0	0	0	0	0	0	0	0	0	0	0	0	0	0	0	0	0	0	0
070319	10:21:53	10:29:16	440455	5.0.10.0	5_exp_noRW	4	Rpleas_acq	CS_A	DXXD	JQQJ	CPPC	YFFY	LWWL	ZHHZ	vertrauen	sonnig	genießen	träumen	küssen	gütig	versagen	sterben	gemein	töten	krank	gierig	53pct	acq_USpleas_CSpleas2_noRW	acq23456_noRW	3	30	0	0	300	300	433	50	0	1	1	blank2r.bmp	0	1	+	0	1	blank2r.bmp	252	1	JQQJ	306	1	träumen	559	0	0	0	0	0	0	0	0	0	0	0	0	0	0	0	0	0	0	0	0	0	0	0	0	0	0	0	0	0	0	0	0	0	0	0	0	0	0	0
070319	10:21:53	10:29:17	442001	5.0.10.0	5_exp_noRW	4	Rpleas_acq	CS_A	DXXD	JQQJ	CPPC	YFFY	LWWL	ZHHZ	vertrauen	sonnig	genießen	träumen	küssen	gütig	versagen	sterben	gemein	töten	krank	gierig	47pct	acq_USunple_CSunple2_noRW	acq23456_noRW	3	31	0	0	300	300	375	46	0	1	1	blank2r.bmp	0	1	+	0	1	blank2r.bmp	252	1	YFFY	306	2	krank	559	0	0	0	0	0	0	0	0	0	0	0	0	0	0	0	0	0	0	0	0	0	0	0	0	0	0	0	0	0	0	0	0	0	0	0	0	0	0	0
070319	10:21:53	10:29:19	443547	5.0.10.0	5_exp_noRW	4	Rpleas_acq	CS_A	DXXD	JQQJ	CPPC	YFFY	LWWL	ZHHZ	vertrauen	sonnig	genießen	träumen	küssen	gütig	versagen	sterben	gemein	töten	krank	gierig	53pct	acq_USpleas_CSpleas1_noRW	acq23456_noRW	3	32	0	0	300	300	372	50	0	1	1	blank2r.bmp	0	1	+	0	1	blank2r.bmp	252	1	DXXD	306	2	sonnig	559	0	0	0	0	0	0	0	0	0	0	0	0	0	0	0	0	0	0	0	0	0	0	0	0	0	0	0	0	0	0	0	0	0	0	0	0	0	0	0
070319	10:21:53	10:29:21	445293	5.0.10.0	5_exp_noRW	4	Rpleas_acq	CS_A	DXXD	JQQJ	CPPC	YFFY	LWWL	ZHHZ	vertrauen	sonnig	genießen	träumen	küssen	gütig	versagen	sterben	gemein	töten	krank	gierig	47pct	acq_USpleas_CSpleas1_noRW	acq23456_noRW	3	33	0	0	300	300	579	50	0	1	1	blank2r.bmp	0	1	+	0	1	blank2r.bmp	252	1	DXXD	306	1	vertrauen	559	0	0	0	0	0	0	0	0	0	0	0	0	0	0	0	0	0	0	0	0	0	0	0	0	0	0	0	0	0	0	0	0	0	0	0	0	0	0	0
070319	10:21:53	10:29:22	446932	5.0.10.0	5_exp_noRW	4	Rpleas_acq	CS_A	DXXD	JQQJ	CPPC	YFFY	LWWL	ZHHZ	vertrauen	sonnig	genießen	träumen	küssen	gütig	versagen	sterben	gemein	töten	krank	gierig	47pct	acq_USpleas_CSpleas2_noRW	acq23456_noRW	3	34	0	0	300	300	473	50	0	1	1	blank2r.bmp	0	1	+	0	1	blank2r.bmp	252	1	JQQJ	306	2	küssen	559	0	0	0	0	0	0	0	0	0	0	0	0	0	0	0	0	0	0	0	0	0	0	0	0	0	0	0	0	0	0	0	0	0	0	0	0	0	0	0
070319	10:21:53	10:29:24	448572	5.0.10.0	5_exp_noRW	4	Rpleas_acq	CS_A	DXXD	JQQJ	CPPC	YFFY	LWWL	ZHHZ	vertrauen	sonnig	genießen	träumen	küssen	gütig	versagen	sterben	gemein	töten	krank	gierig	47pct	acq_USunple_CSunple2_noRW	acq23456_noRW	3	35	0	0	300	300	472	46	0	1	1	blank2r.bmp	0	1	+	0	1	blank2r.bmp	252	1	YFFY	306	3	gierig	559	0	0	0	0	0	0	0	0	0	0	0	0	0	0	0	0	0	0	0	0	0	0	0	0	0	0	0	0	0	0	0	0	0	0	0	0	0	0	0
070319	10:21:53	10:29:25	450144	5.0.10.0	5_exp_noRW	4	Rpleas_acq	CS_A	DXXD	JQQJ	CPPC	YFFY	LWWL	ZHHZ	vertrauen	sonnig	genießen	träumen	küssen	gütig	versagen	sterben	gemein	töten	krank	gierig	47pct	acq_USunple_CSunple1_noRW	acq23456_noRW	3	36	0	0	300	300	404	46	0	1	1	blank2r.bmp	0	1	+	0	1	blank2r.bmp	252	1	CPPC	306	3	gemein	559	0	0	0	0	0	0	0	0	0	0	0	0	0	0	0	0	0	0	0	0	0	0	0	0	0	0	0	0	0	0	0	0	0	0	0	0	0	0	0
070319	10:21:53	10:29:27	451690	5.0.10.0	5_exp_noRW	4	Rpleas_acq	CS_A	DXXD	JQQJ	CPPC	YFFY	LWWL	ZHHZ	vertrauen	sonnig	genießen	träumen	küssen	gütig	versagen	sterben	gemein	töten	krank	gierig	53pct	acq_USunple_CSunple1_noRW	acq23456_noRW	3	37	0	0	300	300	371	46	0	1	1	blank2r.bmp	0	1	+	0	1	blank2r.bmp	252	1	CPPC	306	1	versagen	559	0	0	0	0	0	0	0	0	0	0	0	0	0	0	0	0	0	0	0	0	0	0	0	0	0	0	0	0	0	0	0	0	0	0	0	0	0	0	0
070319	10:21:53	10:29:28	453250	5.0.10.0	5_exp_noRW	4	Rpleas_acq	CS_A	DXXD	JQQJ	CPPC	YFFY	LWWL	ZHHZ	vertrauen	sonnig	genießen	träumen	küssen	gütig	versagen	sterben	gemein	töten	krank	gierig	47pct	acq_USunple_CSunple2_noRW	acq23456_noRW	3	38	0	0	300	300	392	46	0	1	1	blank2r.bmp	0	1	+	0	1	blank2r.bmp	252	1	YFFY	306	1	töten	559	0	0	0	0	0	0	0	0	0	0	0	0	0	0	0	0	0	0	0	0	0	0	0	0	0	0	0	0	0	0	0	0	0	0	0	0	0	0	0
070319	10:21:53	10:29:30	454969	5.0.10.0	5_exp_noRW	4	Rpleas_acq	CS_A	DXXD	JQQJ	CPPC	YFFY	LWWL	ZHHZ	vertrauen	sonnig	genießen	träumen	küssen	gütig	versagen	sterben	gemein	töten	krank	gierig	53pct	acq_USunple_CSpleas2_noRW	acq23456_noRW	3	39	0	0	300	300	554	46	0	1	1	blank2r.bmp	0	1	+	0	1	blank2r.bmp	252	1	JQQJ	306	2	krank	559	0	0	0	0	0	0	0	0	0	0	0	0	0	0	0	0	0	0	0	0	0	0	0	0	0	0	0	0	0	0	0	0	0	0	0	0	0	0	0
070319	10:21:53	10:29:32	456675	5.0.10.0	5_exp_noRW	4	Rpleas_acq	CS_A	DXXD	JQQJ	CPPC	YFFY	LWWL	ZHHZ	vertrauen	sonnig	genießen	träumen	küssen	gütig	versagen	sterben	gemein	töten	krank	gierig	53pct	acq_USpleas_CSpleas2_noRW	acq23456_noRW	3	40	0	0	300	300	528	50	0	1	1	blank2r.bmp	0	1	+	0	1	blank2r.bmp	252	1	JQQJ	306	3	gütig	559	0	0	0	0	0	0	0	0	0	0	0	0	0	0	0	0	0	0	0	0	0	0	0	0	0	0	0	0	0	0	0	0	0	0	0	0	0	0	0
070319	10:21:53	10:29:34	458288	5.0.10.0	5_exp_noRW	4	Rpleas_acq	CS_A	DXXD	JQQJ	CPPC	YFFY	LWWL	ZHHZ	vertrauen	sonnig	genießen	träumen	küssen	gütig	versagen	sterben	gemein	töten	krank	gierig	47pct	acq_USunple_CSunple2_noRW	acq23456_noRW	3	41	0	0	300	300	428	46	0	1	1	blank2r.bmp	0	1	+	0	1	blank2r.bmp	252	1	YFFY	306	3	gierig	559	0	0	0	0	0	0	0	0	0	0	0	0	0	0	0	0	0	0	0	0	0	0	0	0	0	0	0	0	0	0	0	0	0	0	0	0	0	0	0
070319	10:21:53	10:29:35	459940	5.0.10.0	5_exp_noRW	4	Rpleas_acq	CS_A	DXXD	JQQJ	CPPC	YFFY	LWWL	ZHHZ	vertrauen	sonnig	genießen	träumen	küssen	gütig	versagen	sterben	gemein	töten	krank	gierig	47pct	acq_USunple_CSunple1_noRW	acq23456_noRW	3	42	0	0	300	300	486	46	0	1	1	blank2r.bmp	0	1	+	0	1	blank2r.bmp	252	1	CPPC	306	2	sterben	559	0	0	0	0	0	0	0	0	0	0	0	0	0	0	0	0	0	0	0	0	0	0	0	0	0	0	0	0	0	0	0	0	0	0	0	0	0	0	0
070319	10:21:53	10:29:37	461486	5.0.10.0	5_exp_noRW	4	Rpleas_acq	CS_A	DXXD	JQQJ	CPPC	YFFY	LWWL	ZHHZ	vertrauen	sonnig	genießen	träumen	küssen	gütig	versagen	sterben	gemein	töten	krank	gierig	47pct	acq_USunple_CSunple1_noRW	acq23456_noRW	3	43	0	0	300	300	373	46	0	1	1	blank2r.bmp	0	1	+	0	1	blank2r.bmp	252	1	CPPC	306	3	gemein	559	0	0	0	0	0	0	0	0	0	0	0	0	0	0	0	0	0	0	0	0	0	0	0	0	0	0	0	0	0	0	0	0	0	0	0	0	0	0	0
070319	10:21:53	10:29:38	463086	5.0.10.0	5_exp_noRW	4	Rpleas_acq	CS_A	DXXD	JQQJ	CPPC	YFFY	LWWL	ZHHZ	vertrauen	sonnig	genießen	träumen	küssen	gütig	versagen	sterben	gemein	töten	krank	gierig	53pct	acq_USpleas_CSpleas2_noRW	acq23456_noRW	3	44	0	0	300	300	434	50	0	1	1	blank2r.bmp	0	1	+	0	1	blank2r.bmp	252	1	JQQJ	306	1	träumen	559	0	0	0	0	0	0	0	0	0	0	0	0	0	0	0	0	0	0	0	0	0	0	0	0	0	0	0	0	0	0	0	0	0	0	0	0	0	0	0
070319	10:21:53	10:29:40	464645	5.0.10.0	5_exp_noRW	4	Rpleas_acq	CS_A	DXXD	JQQJ	CPPC	YFFY	LWWL	ZHHZ	vertrauen	sonnig	genießen	träumen	küssen	gütig	versagen	sterben	gemein	töten	krank	gierig	47pct	acq_USpleas_CSpleas1_noRW	acq23456_noRW	3	45	0	0	300	300	374	50	0	1	1	blank2r.bmp	0	1	+	0	1	blank2r.bmp	252	1	DXXD	306	2	sonnig	559	0	0	0	0	0	0	0	0	0	0	0	0	0	0	0	0	0	0	0	0	0	0	0	0	0	0	0	0	0	0	0	0	0	0	0	0	0	0	0
070319	10:21:53	10:29:41	466231	5.0.10.0	5_exp_noRW	4	Rpleas_acq	CS_A	DXXD	JQQJ	CPPC	YFFY	LWWL	ZHHZ	vertrauen	sonnig	genießen	träumen	küssen	gütig	versagen	sterben	gemein	töten	krank	gierig	47pct	acq_USpleas_CSunple1_noRW	acq23456_noRW	3	46	0	0	300	300	416	50	0	1	1	blank2r.bmp	0	1	+	0	1	blank2r.bmp	252	1	CPPC	306	1	vertrauen	559	0	0	0	0	0	0	0	0	0	0	0	0	0	0	0	0	0	0	0	0	0	0	0	0	0	0	0	0	0	0	0	0	0	0	0	0	0	0	0
070319	10:21:53	10:29:43	467710	5.0.10.0	5_exp_noRW	4	Rpleas_acq	CS_A	DXXD	JQQJ	CPPC	YFFY	LWWL	ZHHZ	vertrauen	sonnig	genießen	träumen	küssen	gütig	versagen	sterben	gemein	töten	krank	gierig	53pct	acq_USpleas_CSpleas2_noRW	acq23456_noRW	3	47	0	0	300	300	316	50	0	1	1	blank2r.bmp	0	1	+	0	1	blank2r.bmp	252	1	JQQJ	306	2	küssen	559	0	0	0	0	0	0	0	0	0	0	0	0	0	0	0	0	0	0	0	0	0	0	0	0	0	0	0	0	0	0	0	0	0	0	0	0	0	0	0
070319	10:21:53	10:29:45	469323	5.0.10.0	5_exp_noRW	4	Rpleas_acq	CS_A	DXXD	JQQJ	CPPC	YFFY	LWWL	ZHHZ	vertrauen	sonnig	genießen	träumen	küssen	gütig	versagen	sterben	gemein	töten	krank	gierig	47pct	acq_USpleas_CSpleas1_noRW	acq23456_noRW	3	48	0	0	300	300	428	50	0	1	1	blank2r.bmp	0	1	+	0	1	blank2r.bmp	252	1	DXXD	306	3	genießen	559	0	0	0	0	0	0	0	0	0	0	0	0	0	0	0	0	0	0	0	0	0	0	0	0	0	0	0	0	0	0	0	0	0	0	0	0	0	0	0
070319	10:21:53	10:29:46	470909	5.0.10.0	5_exp_noRW	4	Rpleas_acq	CS_A	DXXD	JQQJ	CPPC	YFFY	LWWL	ZHHZ	vertrauen	sonnig	genießen	träumen	küssen	gütig	versagen	sterben	gemein	töten	krank	gierig	53pct	acq_USpleas_CSpleas1_noRW	acq23456_noRW	3	49	0	0	300	300	420	50	0	1	1	blank2r.bmp	0	1	+	0	1	blank2r.bmp	252	1	DXXD	306	2	sonnig	559	0	0	0	0	0	0	0	0	0	0	0	0	0	0	0	0	0	0	0	0	0	0	0	0	0	0	0	0	0	0	0	0	0	0	0	0	0	0	0
070319	10:21:53	10:29:48	472495	5.0.10.0	5_exp_noRW	4	Rpleas_acq	CS_A	DXXD	JQQJ	CPPC	YFFY	LWWL	ZHHZ	vertrauen	sonnig	genießen	träumen	küssen	gütig	versagen	sterben	gemein	töten	krank	gierig	53pct	acq_USunple_CSunple2_noRW	acq23456_noRW	3	50	0	0	300	300	412	46	0	1	1	blank2r.bmp	0	1	+	0	1	blank2r.bmp	252	1	YFFY	306	2	krank	559	0	0	0	0	0	0	0	0	0	0	0	0	0	0	0	0	0	0	0	0	0	0	0	0	0	0	0	0	0	0	0	0	0	0	0	0	0	0	0
070319	10:21:53	10:29:49	473988	5.0.10.0	5_exp_noRW	4	Rpleas_acq	CS_A	DXXD	JQQJ	CPPC	YFFY	LWWL	ZHHZ	vertrauen	sonnig	genießen	träumen	küssen	gütig	versagen	sterben	gemein	töten	krank	gierig	47pct	acq_USunple_CSunple1_noRW	acq23456_noRW	3	51	0	0	300	300	313	46	0	1	1	blank2r.bmp	0	1	+	0	1	blank2r.bmp	252	1	CPPC	306	2	sterben	559	0	0	0	0	0	0	0	0	0	0	0	0	0	0	0	0	0	0	0	0	0	0	0	0	0	0	0	0	0	0	0	0	0	0	0	0	0	0	0
070319	10:21:53	10:29:51	475614	5.0.10.0	5_exp_noRW	4	Rpleas_acq	CS_A	DXXD	JQQJ	CPPC	YFFY	LWWL	ZHHZ	vertrauen	sonnig	genießen	träumen	küssen	gütig	versagen	sterben	gemein	töten	krank	gierig	53pct	acq_USpleas_CSunple2_noRW	acq23456_noRW	3	52	0	0	300	300	450	50	0	1	1	blank2r.bmp	0	1	+	0	1	blank2r.bmp	252	1	YFFY	306	1	träumen	559	0	0	0	0	0	0	0	0	0	0	0	0	0	0	0	0	0	0	0	0	0	0	0	0	0	0	0	0	0	0	0	0	0	0	0	0	0	0	0
070319	10:21:53	10:29:52	477160	5.0.10.0	5_exp_noRW	4	Rpleas_acq	CS_A	DXXD	JQQJ	CPPC	YFFY	LWWL	ZHHZ	vertrauen	sonnig	genießen	träumen	küssen	gütig	versagen	sterben	gemein	töten	krank	gierig	53pct	acq_USunple_CSunple1_noRW	acq23456_noRW	3	53	0	0	300	300	367	46	0	1	1	blank2r.bmp	0	1	+	0	1	blank2r.bmp	252	1	CPPC	306	3	gemein	559	0	0	0	0	0	0	0	0	0	0	0	0	0	0	0	0	0	0	0	0	0	0	0	0	0	0	0	0	0	0	0	0	0	0	0	0	0	0	0
070319	10:21:53	10:29:54	478799	5.0.10.0	5_exp_noRW	4	Rpleas_acq	CS_A	DXXD	JQQJ	CPPC	YFFY	LWWL	ZHHZ	vertrauen	sonnig	genießen	träumen	küssen	gütig	versagen	sterben	gemein	töten	krank	gierig	53pct	acq_USpleas_CSpleas2_noRW	acq23456_noRW	3	54	0	0	300	300	453	50	0	1	1	blank2r.bmp	0	1	+	0	1	blank2r.bmp	252	1	JQQJ	306	3	gütig	559	0	0	0	0	0	0	0	0	0	0	0	0	0	0	0	0	0	0	0	0	0	0	0	0	0	0	0	0	0	0	0	0	0	0	0	0	0	0	0
070319	10:21:53	10:29:56	480372	5.0.10.0	5_exp_noRW	4	Rpleas_acq	CS_A	DXXD	JQQJ	CPPC	YFFY	LWWL	ZHHZ	vertrauen	sonnig	genießen	träumen	küssen	gütig	versagen	sterben	gemein	töten	krank	gierig	53pct	acq_USpleas_CSpleas1_noRW	acq23456_noRW	3	55	0	0	300	300	400	50	0	1	1	blank2r.bmp	0	1	+	0	1	blank2r.bmp	252	1	DXXD	306	3	genießen	559	0	0	0	0	0	0	0	0	0	0	0	0	0	0	0	0	0	0	0	0	0	0	0	0	0	0	0	0	0	0	0	0	0	0	0	0	0	0	0
070319	10:21:53	10:29:57	481971	5.0.10.0	5_exp_noRW	4	Rpleas_acq	CS_A	DXXD	JQQJ	CPPC	YFFY	LWWL	ZHHZ	vertrauen	sonnig	genießen	träumen	küssen	gütig	versagen	sterben	gemein	töten	krank	gierig	47pct	acq_USunple_CSpleas2_noRW	acq23456_noRW	3	56	0	0	300	300	415	46	0	1	1	blank2r.bmp	0	1	+	0	1	blank2r.bmp	252	1	JQQJ	306	1	töten	559	0	0	0	0	0	0	0	0	0	0	0	0	0	0	0	0	0	0	0	0	0	0	0	0	0	0	0	0	0	0	0	0	0	0	0	0	0	0	0
070319	10:21:53	10:29:59	483504	5.0.10.0	5_exp_noRW	4	Rpleas_acq	CS_A	DXXD	JQQJ	CPPC	YFFY	LWWL	ZHHZ	vertrauen	sonnig	genießen	träumen	küssen	gütig	versagen	sterben	gemein	töten	krank	gierig	47pct	acq_USunple_CSunple2_noRW	acq23456_noRW	3	57	0	0	300	300	368	46	0	1	1	blank2r.bmp	0	1	+	0	1	blank2r.bmp	252	1	YFFY	306	3	gierig	559	0	0	0	0	0	0	0	0	0	0	0	0	0	0	0	0	0	0	0	0	0	0	0	0	0	0	0	0	0	0	0	0	0	0	0	0	0	0	0
070319	10:21:53	10:30:00	485050	5.0.10.0	5_exp_noRW	4	Rpleas_acq	CS_A	DXXD	JQQJ	CPPC	YFFY	LWWL	ZHHZ	vertrauen	sonnig	genießen	träumen	küssen	gütig	versagen	sterben	gemein	töten	krank	gierig	53pct	acq_USunple_CSunple2_noRW	acq23456_noRW	3	58	0	0	300	300	362	46	0	1	1	blank2r.bmp	0	1	+	0	1	blank2r.bmp	252	1	YFFY	306	1	töten	559	0	0	0	0	0	0	0	0	0	0	0	0	0	0	0	0	0	0	0	0	0	0	0	0	0	0	0	0	0	0	0	0	0	0	0	0	0	0	0
070319	10:21:53	10:30:02	486689	5.0.10.0	5_exp_noRW	4	Rpleas_acq	CS_A	DXXD	JQQJ	CPPC	YFFY	LWWL	ZHHZ	vertrauen	sonnig	genießen	träumen	küssen	gütig	versagen	sterben	gemein	töten	krank	gierig	47pct	acq_USpleas_CSpleas2_noRW	acq23456_noRW	3	59	0	0	300	300	458	50	0	1	1	blank2r.bmp	0	1	+	0	1	blank2r.bmp	252	1	JQQJ	306	1	träumen	559	0	0	0	0	0	0	0	0	0	0	0	0	0	0	0	0	0	0	0	0	0	0	0	0	0	0	0	0	0	0	0	0	0	0	0	0	0	0	0
070319	10:21:53	10:30:03	488262	5.0.10.0	5_exp_noRW	4	Rpleas_acq	CS_A	DXXD	JQQJ	CPPC	YFFY	LWWL	ZHHZ	vertrauen	sonnig	genießen	träumen	küssen	gütig	versagen	sterben	gemein	töten	krank	gierig	47pct	acq_USunple_CSpleas1_noRW	acq23456_noRW	3	60	0	0	300	300	389	46	0	1	1	blank2r.bmp	0	1	+	0	1	blank2r.bmp	252	1	DXXD	306	3	gemein	559	0	0	0	0	0	0	0	0	0	0	0	0	0	0	0	0	0	0	0	0	0	0	0	0	0	0	0	0	0	0	0	0	0	0	0	0	0	0	0
070319	10:21:53	10:30:05	489834	5.0.10.0	5_exp_noRW	4	Rpleas_acq	CS_A	DXXD	JQQJ	CPPC	YFFY	LWWL	ZHHZ	vertrauen	sonnig	genießen	träumen	küssen	gütig	versagen	sterben	gemein	töten	krank	gierig	47pct	acq_USpleas_CSpleas2_noRW	acq23456_noRW	3	61	0	0	300	300	394	50	0	1	1	blank2r.bmp	0	1	+	0	1	blank2r.bmp	252	1	JQQJ	306	2	küssen	559	0	0	0	0	0	0	0	0	0	0	0	0	0	0	0	0	0	0	0	0	0	0	0	0	0	0	0	0	0	0	0	0	0	0	0	0	0	0	0
070319	10:21:53	10:30:07	491434	5.0.10.0	5_exp_noRW	4	Rpleas_acq	CS_A	DXXD	JQQJ	CPPC	YFFY	LWWL	ZHHZ	vertrauen	sonnig	genießen	träumen	küssen	gütig	versagen	sterben	gemein	töten	krank	gierig	53pct	acq_USunple_CSunple1_noRW	acq23456_noRW	3	62	0	0	300	300	414	46	0	1	1	blank2r.bmp	0	1	+	0	1	blank2r.bmp	252	1	CPPC	306	1	versagen	559	0	0	0	0	0	0	0	0	0	0	0	0	0	0	0	0	0	0	0	0	0	0	0	0	0	0	0	0	0	0	0	0	0	0	0	0	0	0	0
070319	10:21:53	10:30:08	492993	5.0.10.0	5_exp_noRW	4	Rpleas_acq	CS_A	DXXD	JQQJ	CPPC	YFFY	LWWL	ZHHZ	vertrauen	sonnig	genießen	träumen	küssen	gütig	versagen	sterben	gemein	töten	krank	gierig	47pct	acq_USunple_CSunple1_noRW	acq23456_noRW	3	63	0	0	300	300	382	46	0	1	1	blank2r.bmp	0	1	+	0	1	blank2r.bmp	252	1	CPPC	306	1	versagen	559	0	0	0	0	0	0	0	0	0	0	0	0	0	0	0	0	0	0	0	0	0	0	0	0	0	0	0	0	0	0	0	0	0	0	0	0	0	0	0
070319	10:21:53	10:30:10	494632	5.0.10.0	5_exp_noRW	4	Rpleas_acq	CS_A	DXXD	JQQJ	CPPC	YFFY	LWWL	ZHHZ	vertrauen	sonnig	genießen	träumen	küssen	gütig	versagen	sterben	gemein	töten	krank	gierig	47pct	acq_USpleas_CSpleas1_noRW	acq23456_noRW	3	64	0	0	300	300	452	50	0	1	1	blank2r.bmp	0	1	+	0	1	blank2r.bmp	252	1	DXXD	306	1	vertrauen	559	0	0	0	0	0	0	0	0	0	0	0	0	0	0	0	0	0	0	0	0	0	0	0	0	0	0	0	0	0	0	0	0	0	0	0	0	0	0	0
070319	10:21:53	10:30:12	496272	5.0.10.0	5_exp_noRW	4	Rpleas_acq	CS_A	DXXD	JQQJ	CPPC	YFFY	LWWL	ZHHZ	vertrauen	sonnig	genießen	träumen	küssen	gütig	versagen	sterben	gemein	töten	krank	gierig	53pct	acq_USpleas_CSpleas1_noRW	acq23456_noRW	3	65	0	0	300	300	460	50	0	1	1	blank2r.bmp	0	1	+	0	1	blank2r.bmp	252	1	DXXD	306	1	vertrauen	559	0	0	0	0	0	0	0	0	0	0	0	0	0	0	0	0	0	0	0	0	0	0	0	0	0	0	0	0	0	0	0	0	0	0	0	0	0	0	0
070319	10:21:53	10:30:13	497778	5.0.10.0	5_exp_noRW	4	Rpleas_acq	CS_A	DXXD	JQQJ	CPPC	YFFY	LWWL	ZHHZ	vertrauen	sonnig	genießen	träumen	küssen	gütig	versagen	sterben	gemein	töten	krank	gierig	53pct	acq_USpleas_CSunple2_noRW	acq23456_noRW	3	66	0	0	300	300	344	50	0	1	1	blank2r.bmp	0	1	+	0	1	blank2r.bmp	252	1	YFFY	306	2	küssen	559	0	0	0	0	0	0	0	0	0	0	0	0	0	0	0	0	0	0	0	0	0	0	0	0	0	0	0	0	0	0	0	0	0	0	0	0	0	0	0
070319	10:21:53	10:30:15	499350	5.0.10.0	5_exp_noRW	4	Rpleas_acq	CS_A	DXXD	JQQJ	CPPC	YFFY	LWWL	ZHHZ	vertrauen	sonnig	genießen	träumen	küssen	gütig	versagen	sterben	gemein	töten	krank	gierig	53pct	acq_USunple_CSunple2_noRW	acq23456_noRW	3	67	0	0	300	300	395	46	0	1	1	blank2r.bmp	0	1	+	0	1	blank2r.bmp	252	1	YFFY	306	2	krank	559	0	0	0	0	0	0	0	0	0	0	0	0	0	0	0	0	0	0	0	0	0	0	0	0	0	0	0	0	0	0	0	0	0	0	0	0	0	0	0
070319	10:21:53	10:30:16	500963	5.0.10.0	5_exp_noRW	4	Rpleas_acq	CS_A	DXXD	JQQJ	CPPC	YFFY	LWWL	ZHHZ	vertrauen	sonnig	genießen	träumen	küssen	gütig	versagen	sterben	gemein	töten	krank	gierig	47pct	acq_USpleas_CSpleas1_noRW	acq23456_noRW	3	68	0	0	300	300	434	50	0	1	1	blank2r.bmp	0	1	+	0	1	blank2r.bmp	252	1	DXXD	306	2	sonnig	559	0	0	0	0	0	0	0	0	0	0	0	0	0	0	0	0	0	0	0	0	0	0	0	0	0	0	0	0	0	0	0	0	0	0	0	0	0	0	0
070319	10:21:53	10:30:18	502589	5.0.10.0	5_exp_noRW	4	Rpleas_acq	CS_A	DXXD	JQQJ	CPPC	YFFY	LWWL	ZHHZ	vertrauen	sonnig	genießen	träumen	küssen	gütig	versagen	sterben	gemein	töten	krank	gierig	53pct	acq_USunple_CSunple1_noRW	acq23456_noRW	3	69	0	0	300	300	444	46	0	1	1	blank2r.bmp	0	1	+	0	1	blank2r.bmp	252	1	CPPC	306	2	sterben	559	0	0	0	0	0	0	0	0	0	0	0	0	0	0	0	0	0	0	0	0	0	0	0	0	0	0	0	0	0	0	0	0	0	0	0	0	0	0	0
070319	10:21:53	10:30:19	504175	5.0.10.0	5_exp_noRW	4	Rpleas_acq	CS_A	DXXD	JQQJ	CPPC	YFFY	LWWL	ZHHZ	vertrauen	sonnig	genießen	träumen	küssen	gütig	versagen	sterben	gemein	töten	krank	gierig	47pct	acq_USunple_CSunple2_noRW	acq23456_noRW	3	70	0	0	300	300	414	46	0	1	1	blank2r.bmp	0	1	+	0	1	blank2r.bmp	252	1	YFFY	306	2	krank	559	0	0	0	0	0	0	0	0	0	0	0	0	0	0	0	0	0	0	0	0	0	0	0	0	0	0	0	0	0	0	0	0	0	0	0	0	0	0	0
070319	10:21:53	10:30:21	505721	5.0.10.0	5_exp_noRW	4	Rpleas_acq	CS_A	DXXD	JQQJ	CPPC	YFFY	LWWL	ZHHZ	vertrauen	sonnig	genießen	träumen	küssen	gütig	versagen	sterben	gemein	töten	krank	gierig	53pct	acq_USpleas_CSunple1_noRW	acq23456_noRW	3	71	0	0	300	300	376	50	0	1	1	blank2r.bmp	0	1	+	0	1	blank2r.bmp	252	1	CPPC	306	2	sonnig	559	0	0	0	0	0	0	0	0	0	0	0	0	0	0	0	0	0	0	0	0	0	0	0	0	0	0	0	0	0	0	0	0	0	0	0	0	0	0	0
070319	10:21:53	10:30:23	507307	5.0.10.0	5_exp_noRW	4	Rpleas_acq	CS_A	DXXD	JQQJ	CPPC	YFFY	LWWL	ZHHZ	vertrauen	sonnig	genießen	träumen	küssen	gütig	versagen	sterben	gemein	töten	krank	gierig	47pct	acq_USunple_CSpleas1_noRW	acq23456_noRW	3	72	0	0	300	300	404	46	0	1	1	blank2r.bmp	0	1	+	0	1	blank2r.bmp	252	1	DXXD	306	2	sterben	559	0	0	0	0	0	0	0	0	0	0	0	0	0	0	0	0	0	0	0	0	0	0	0	0	0	0	0	0	0	0	0	0	0	0	0	0	0	0	0
070319	10:21:53	10:30:24	508906	5.0.10.0	5_exp_noRW	4	Rpleas_acq	CS_A	DXXD	JQQJ	CPPC	YFFY	LWWL	ZHHZ	vertrauen	sonnig	genießen	träumen	küssen	gütig	versagen	sterben	gemein	töten	krank	gierig	47pct	acq_USpleas_CSpleas2_noRW	acq23456_noRW	3	73	0	0	300	300	434	50	0	1	1	blank2r.bmp	0	1	+	0	1	blank2r.bmp	252	1	JQQJ	306	3	gütig	559	0	0	0	0	0	0	0	0	0	0	0	0	0	0	0	0	0	0	0	0	0	0	0	0	0	0	0	0	0	0	0	0	0	0	0	0	0	0	0
070319	10:21:53	10:30:26	510479	5.0.10.0	5_exp_noRW	4	Rpleas_acq	CS_A	DXXD	JQQJ	CPPC	YFFY	LWWL	ZHHZ	vertrauen	sonnig	genießen	träumen	küssen	gütig	versagen	sterben	gemein	töten	krank	gierig	53pct	acq_USunple_CSunple2_noRW	acq23456_noRW	3	74	0	0	300	300	392	46	0	1	1	blank2r.bmp	0	1	+	0	1	blank2r.bmp	252	1	YFFY	306	3	gierig	559	0	0	0	0	0	0	0	0	0	0	0	0	0	0	0	0	0	0	0	0	0	0	0	0	0	0	0	0	0	0	0	0	0	0	0	0	0	0	0
070319	10:21:53	10:30:27	512118	5.0.10.0	5_exp_noRW	4	Rpleas_acq	CS_A	DXXD	JQQJ	CPPC	YFFY	LWWL	ZHHZ	vertrauen	sonnig	genießen	träumen	küssen	gütig	versagen	sterben	gemein	töten	krank	gierig	47pct	acq_USpleas_CSpleas1_noRW	acq23456_noRW	3	75	0	0	300	300	461	50	0	1	1	blank2r.bmp	0	1	+	0	1	blank2r.bmp	252	1	DXXD	306	3	genießen	559	0	0	0	0	0	0	0	0	0	0	0	0	0	0	0	0	0	0	0	0	0	0	0	0	0	0	0	0	0	0	0	0	0	0	0	0	0	0	0
070319	10:21:53	10:30:29	513731	5.0.10.0	5_exp_noRW	4	Rpleas_acq	CS_A	DXXD	JQQJ	CPPC	YFFY	LWWL	ZHHZ	vertrauen	sonnig	genießen	träumen	küssen	gütig	versagen	sterben	gemein	töten	krank	gierig	53pct	acq_USunple_CSunple2_noRW	acq23456_noRW	3	76	0	0	300	300	427	46	0	1	1	blank2r.bmp	0	1	+	0	1	blank2r.bmp	252	1	YFFY	306	1	töten	559	0	0	0	0	0	0	0	0	0	0	0	0	0	0	0	0	0	0	0	0	0	0	0	0	0	0	0	0	0	0	0	0	0	0	0	0	0	0	0
070319	10:21:53	10:30:30	515250	5.0.10.0	5_exp_noRW	4	Rpleas_acq	CS_A	DXXD	JQQJ	CPPC	YFFY	LWWL	ZHHZ	vertrauen	sonnig	genießen	träumen	küssen	gütig	versagen	sterben	gemein	töten	krank	gierig	47pct	acq_USpleas_CSpleas2_noRW	acq23456_noRW	3	77	0	0	300	300	345	50	0	1	1	blank2r.bmp	0	1	+	0	1	blank2r.bmp	252	1	JQQJ	306	2	küssen	559	0	0	0	0	0	0	0	0	0	0	0	0	0	0	0	0	0	0	0	0	0	0	0	0	0	0	0	0	0	0	0	0	0	0	0	0	0	0	0
070319	10:21:53	10:30:32	516743	5.0.10.0	5_exp_noRW	4	Rpleas_acq	CS_A	DXXD	JQQJ	CPPC	YFFY	LWWL	ZHHZ	vertrauen	sonnig	genießen	träumen	küssen	gütig	versagen	sterben	gemein	töten	krank	gierig	47pct	acq_USunple_CSunple1_noRW	acq23456_noRW	3	78	0	0	300	300	323	46	0	1	1	blank2r.bmp	0	1	+	0	1	blank2r.bmp	252	1	CPPC	306	3	gemein	559	0	0	0	0	0	0	0	0	0	0	0	0	0	0	0	0	0	0	0	0	0	0	0	0	0	0	0	0	0	0	0	0	0	0	0	0	0	0	0
070319	10:21:53	10:30:34	518396	5.0.10.0	5_exp_noRW	4	Rpleas_acq	CS_A	DXXD	JQQJ	CPPC	YFFY	LWWL	ZHHZ	vertrauen	sonnig	genießen	träumen	küssen	gütig	versagen	sterben	gemein	töten	krank	gierig	53pct	acq_USunple_CSpleas2_noRW	acq23456_noRW	3	79	0	0	300	300	489	46	0	1	1	blank2r.bmp	0	1	+	0	1	blank2r.bmp	252	1	JQQJ	306	3	gierig	559	0	0	0	0	0	0	0	0	0	0	0	0	0	0	0	0	0	0	0	0	0	0	0	0	0	0	0	0	0	0	0	0	0	0	0	0	0	0	0
070319	10:21:53	10:30:35	519955	5.0.10.0	5_exp_noRW	4	Rpleas_acq	CS_A	DXXD	JQQJ	CPPC	YFFY	LWWL	ZHHZ	vertrauen	sonnig	genießen	träumen	küssen	gütig	versagen	sterben	gemein	töten	krank	gierig	47pct	acq_USpleas_CSpleas2_noRW	acq23456_noRW	3	80	0	0	300	300	380	50	0	1	1	blank2r.bmp	0	1	+	0	1	blank2r.bmp	252	1	JQQJ	306	1	träumen	559	0	0	0	0	0	0	0	0	0	0	0	0	0	0	0	0	0	0	0	0	0	0	0	0	0	0	0	0	0	0	0	0	0	0	0	0	0	0	0
070319	10:21:53	10:30:43	527845	5.0.10.0	5_exp_noRW	4	Rpleas_acq	CS_A	DXXD	JQQJ	CPPC	YFFY	LWWL	ZHHZ	vertrauen	sonnig	genießen	träumen	küssen	gütig	versagen	sterben	gemein	töten	krank	gierig	47pct	acq_USunple_CSunple2_noRW	acq23456_noRW	4	1	0	0	300	300	514	46	0	1	1	blank2r.bmp	0	1	+	0	1	blank2r.bmp	252	1	YFFY	306	1	töten	559	0	0	0	0	0	0	0	0	0	0	0	0	0	0	0	0	0	0	0	0	0	0	0	0	0	0	0	0	0	0	0	0	0	0	0	0	0	0	0
070319	10:21:53	10:30:45	529378	5.0.10.0	5_exp_noRW	4	Rpleas_acq	CS_A	DXXD	JQQJ	CPPC	YFFY	LWWL	ZHHZ	vertrauen	sonnig	genießen	träumen	küssen	gütig	versagen	sterben	gemein	töten	krank	gierig	47pct	acq_USunple_CSunple1_noRW	acq23456_noRW	4	2	0	0	300	300	363	46	0	1	1	blank2r.bmp	0	1	+	0	1	blank2r.bmp	252	1	CPPC	306	3	gemein	559	0	0	0	0	0	0	0	0	0	0	0	0	0	0	0	0	0	0	0	0	0	0	0	0	0	0	0	0	0	0	0	0	0	0	0	0	0	0	0
