date	time	script.currenttime	script.elapsedtime	build	script.currentexpt	subject	expressions.LRpleas_acq	expressions.conditionCS_A	expressions.CSpleas_1	expressions.CSpleas_2	expressions.CSunple_1	expressions.CSunple_2	expressions.distractor_1	expressions.distractor_2	expressions.US_pleas1	expressions.US_pleas2	expressions.US_pleas3	expressions.US_pleas4	expressions.US_pleas5	expressions.US_pleas6	expressions.US_unple1	expressions.US_unple2	expressions.US_unple3	expressions.US_unple4	expressions.US_unple5	expressions.US_unple6	counter.positions_noRW	trialcode	blockcode	blocknum	trialnum	windowcenter	inwindow	pretrialpause	posttrialpause	latency	response	expressions.correctedscore	correct	stimulusnumber1	stimulusitem1	stimulusonset1	stimulusnumber2	stimulusitem2	stimulusonset2	stimulusnumber3	stimulusitem3	stimulusonset3	stimulusnumber4	stimulusitem4	stimulusonset4	stimulusnumber5	stimulusitem5	stimulusonset5	stimulusnumber6	stimulusitem6	stimulusonset6	stimulusnumber7	stimulusitem7	stimulusonset7	stimulusnumber8	stimulusitem8	stimulusonset8	stimulusnumber9	stimulusitem9	stimulusonset9	stimulusnumber10	stimulusitem10	stimulusonset10	stimulusnumber11	stimulusitem11	stimulusonset11	stimulusnumber12	stimulusitem12	stimulusonset12	stimulusnumber13	stimulusitem13	stimulusonset13	stimulusnumber14	stimulusitem14	stimulusonset14	stimulusnumber15	stimulusitem15	stimulusonset15	stimulusnumber16	stimulusitem16	stimulusonset16	stimulusnumber17	stimulusitem17	stimulusonset17	stimulusnumber18	stimulusitem18	stimulusonset18
071019	14:19:17	14:20:44	86031	5.0.10.0	5_exp_RW	43	Rpleas_acq	CS_B	BZZB	YDDY	GWWG	VKKV	MQQM	JXXJ	ehrlich	schön	treu	fair	spielen	retten	eitel	schlecht	tot	faul	strafen	rächen	1	acq_USpleas_CSpleas2_RW	acq1_RW	1	1	0	0	300	300	1374	50	0	1	1	blank2r.bmp	0	1	+	0	1	blank2r.bmp	492	1	YDDY	492	1	blank2r.bmp	572	3	retten	866	0	0	0	0	0	0	0	0	0	0	0	0	0	0	0	0	0	0	0	0	0	0	0	0	0	0	0	0	0	0	0	0	0	0	0	0
071019	14:19:17	14:20:46	88256	5.0.10.0	5_exp_RW	43	Rpleas_acq	CS_B	BZZB	YDDY	GWWG	VKKV	MQQM	JXXJ	ehrlich	schön	treu	fair	spielen	retten	eitel	schlecht	tot	faul	strafen	rächen	1	acq_USunple_CSunple1_RW	acq1_RW	1	2	0	0	300	300	754	46	0	1	1	blank2r.bmp	0	1	+	0	1	blank2r.bmp	492	1	GWWG	492	1	blank2r.bmp	572	3	tot	866	0	0	0	0	0	0	0	0	0	0	0	0	0	0	0	0	0	0	0	0	0	0	0	0	0	0	0	0	0	0	0	0	0	0	0	0
071019	14:19:17	14:20:49	90949	5.0.10.0	5_exp_RW	43	Rpleas_acq	CS_B	BZZB	YDDY	GWWG	VKKV	MQQM	JXXJ	ehrlich	schön	treu	fair	spielen	retten	eitel	schlecht	tot	faul	strafen	rächen	1	acq_USpleas_CSpleas2_RW	acq1_RW	1	3	0	0	300	300	1211	50	0	1	1	blank2r.bmp	0	1	+	0	1	blank2r.bmp	492	1	YDDY	492	1	blank2r.bmp	572	2	spielen	866	0	0	0	0	0	0	0	0	0	0	0	0	0	0	0	0	0	0	0	0	0	0	0	0	0	0	0	0	0	0	0	0	0	0	0	0
071019	14:19:17	14:20:51	93454	5.0.10.0	5_exp_RW	43	Rpleas_acq	CS_B	BZZB	YDDY	GWWG	VKKV	MQQM	JXXJ	ehrlich	schön	treu	fair	spielen	retten	eitel	schlecht	tot	faul	strafen	rächen	1	acq_USunple_CSunple1_RW	acq1_RW	1	4	0	0	300	300	1023	46	0	1	1	blank2r.bmp	0	1	+	0	1	blank2r.bmp	492	1	GWWG	492	1	blank2r.bmp	572	2	schlecht	866	0	0	0	0	0	0	0	0	0	0	0	0	0	0	0	0	0	0	0	0	0	0	0	0	0	0	0	0	0	0	0	0	0	0	0	0
071019	14:19:17	14:20:54	95947	5.0.10.0	5_exp_RW	43	Rpleas_acq	CS_B	BZZB	YDDY	GWWG	VKKV	MQQM	JXXJ	ehrlich	schön	treu	fair	spielen	retten	eitel	schlecht	tot	faul	strafen	rächen	1	acq_USunple_CSunple2_RW	acq1_RW	1	5	0	0	300	300	998	46	0	1	1	blank2r.bmp	0	1	+	0	1	blank2r.bmp	492	1	VKKV	492	1	blank2r.bmp	572	1	faul	866	0	0	0	0	0	0	0	0	0	0	0	0	0	0	0	0	0	0	0	0	0	0	0	0	0	0	0	0	0	0	0	0	0	0	0	0
071019	14:19:17	14:20:57	98665	5.0.10.0	5_exp_RW	43	Rpleas_acq	CS_B	BZZB	YDDY	GWWG	VKKV	MQQM	JXXJ	ehrlich	schön	treu	fair	spielen	retten	eitel	schlecht	tot	faul	strafen	rächen	1	acq_USunple_CSunple1_RW	acq1_RW	1	6	0	0	300	300	1243	46	0	1	1	blank2r.bmp	0	1	+	0	1	blank2r.bmp	492	1	GWWG	492	1	blank2r.bmp	572	1	eitel	866	0	0	0	0	0	0	0	0	0	0	0	0	0	0	0	0	0	0	0	0	0	0	0	0	0	0	0	0	0	0	0	0	0	0	0	0
071019	14:19:17	14:20:59	100905	5.0.10.0	5_exp_RW	43	Rpleas_acq	CS_B	BZZB	YDDY	GWWG	VKKV	MQQM	JXXJ	ehrlich	schön	treu	fair	spielen	retten	eitel	schlecht	tot	faul	strafen	rächen	1	acq_USunple_CSunple2_RW	acq1_RW	1	7	0	0	300	300	766	46	0	1	1	blank2r.bmp	0	1	+	0	1	blank2r.bmp	492	1	VKKV	492	1	blank2r.bmp	572	3	rächen	866	0	0	0	0	0	0	0	0	0	0	0	0	0	0	0	0	0	0	0	0	0	0	0	0	0	0	0	0	0	0	0	0	0	0	0	0
071019	14:19:17	14:21:01	103050	5.0.10.0	5_exp_RW	43	Rpleas_acq	CS_B	BZZB	YDDY	GWWG	VKKV	MQQM	JXXJ	ehrlich	schön	treu	fair	spielen	retten	eitel	schlecht	tot	faul	strafen	rächen	1	acq_USpleas_CSpleas2_RW	acq1_RW	1	8	0	0	300	300	653	50	0	1	1	blank2r.bmp	0	1	+	0	1	blank2r.bmp	492	1	YDDY	492	1	blank2r.bmp	572	1	fair	866	0	0	0	0	0	0	0	0	0	0	0	0	0	0	0	0	0	0	0	0	0	0	0	0	0	0	0	0	0	0	0	0	0	0	0	0
071019	14:19:17	14:21:03	105236	5.0.10.0	5_exp_RW	43	Rpleas_acq	CS_B	BZZB	YDDY	GWWG	VKKV	MQQM	JXXJ	ehrlich	schön	treu	fair	spielen	retten	eitel	schlecht	tot	faul	strafen	rächen	1	acq_USunple_CSunple2_RW	acq1_RW	1	9	0	0	300	300	714	46	0	1	1	blank2r.bmp	0	1	+	0	1	blank2r.bmp	492	1	VKKV	492	1	blank2r.bmp	572	2	strafen	866	0	0	0	0	0	0	0	0	0	0	0	0	0	0	0	0	0	0	0	0	0	0	0	0	0	0	0	0	0	0	0	0	0	0	0	0
071019	14:19:17	14:21:06	107702	5.0.10.0	5_exp_RW	43	Rpleas_acq	CS_B	BZZB	YDDY	GWWG	VKKV	MQQM	JXXJ	ehrlich	schön	treu	fair	spielen	retten	eitel	schlecht	tot	faul	strafen	rächen	1	acq_USpleas_CSpleas1_RW	acq1_RW	1	10	0	0	300	300	986	50	0	1	1	blank2r.bmp	0	1	+	0	1	blank2r.bmp	492	1	BZZB	492	1	blank2r.bmp	572	3	treu	866	0	0	0	0	0	0	0	0	0	0	0	0	0	0	0	0	0	0	0	0	0	0	0	0	0	0	0	0	0	0	0	0	0	0	0	0
071019	14:19:17	14:21:08	109808	5.0.10.0	5_exp_RW	43	Rpleas_acq	CS_B	BZZB	YDDY	GWWG	VKKV	MQQM	JXXJ	ehrlich	schön	treu	fair	spielen	retten	eitel	schlecht	tot	faul	strafen	rächen	1	acq_USunple_CSunple2_RW	acq1_RW	1	11	0	0	300	300	636	46	0	1	1	blank2r.bmp	0	1	+	0	1	blank2r.bmp	492	1	VKKV	492	1	blank2r.bmp	572	2	strafen	866	0	0	0	0	0	0	0	0	0	0	0	0	0	0	0	0	0	0	0	0	0	0	0	0	0	0	0	0	0	0	0	0	0	0	0	0
071019	14:19:17	14:21:10	111860	5.0.10.0	5_exp_RW	43	Rpleas_acq	CS_B	BZZB	YDDY	GWWG	VKKV	MQQM	JXXJ	ehrlich	schön	treu	fair	spielen	retten	eitel	schlecht	tot	faul	strafen	rächen	1	acq_USunple_CSunple1_RW	acq1_RW	1	12	0	0	300	300	570	46	0	1	1	blank2r.bmp	0	1	+	0	1	blank2r.bmp	492	1	GWWG	492	1	blank2r.bmp	572	3	tot	866	0	0	0	0	0	0	0	0	0	0	0	0	0	0	0	0	0	0	0	0	0	0	0	0	0	0	0	0	0	0	0	0	0	0	0	0
071019	14:19:17	14:21:12	114206	5.0.10.0	5_exp_RW	43	Rpleas_acq	CS_B	BZZB	YDDY	GWWG	VKKV	MQQM	JXXJ	ehrlich	schön	treu	fair	spielen	retten	eitel	schlecht	tot	faul	strafen	rächen	1	acq_USpleas_CSpleas2_RW	acq1_RW	1	13	0	0	300	300	853	50	0	1	1	blank2r.bmp	0	1	+	0	1	blank2r.bmp	492	1	YDDY	492	1	blank2r.bmp	572	3	retten	866	0	0	0	0	0	0	0	0	0	0	0	0	0	0	0	0	0	0	0	0	0	0	0	0	0	0	0	0	0	0	0	0	0	0	0	0
071019	14:19:17	14:21:14	116192	5.0.10.0	5_exp_RW	43	Rpleas_acq	CS_B	BZZB	YDDY	GWWG	VKKV	MQQM	JXXJ	ehrlich	schön	treu	fair	spielen	retten	eitel	schlecht	tot	faul	strafen	rächen	1	acq_USpleas_CSpleas1_RW	acq1_RW	1	14	0	0	300	300	506	50	0	1	1	blank2r.bmp	0	1	+	0	1	blank2r.bmp	492	1	BZZB	492	1	blank2r.bmp	572	2	schön	866	0	0	0	0	0	0	0	0	0	0	0	0	0	0	0	0	0	0	0	0	0	0	0	0	0	0	0	0	0	0	0	0	0	0	0	0
071019	14:19:17	14:21:16	118377	5.0.10.0	5_exp_RW	43	Rpleas_acq	CS_B	BZZB	YDDY	GWWG	VKKV	MQQM	JXXJ	ehrlich	schön	treu	fair	spielen	retten	eitel	schlecht	tot	faul	strafen	rächen	1	acq_USpleas_CSpleas1_RW	acq1_RW	1	15	0	0	300	300	710	50	0	1	1	blank2r.bmp	0	1	+	0	1	blank2r.bmp	492	1	BZZB	492	1	blank2r.bmp	572	1	ehrlich	866	0	0	0	0	0	0	0	0	0	0	0	0	0	0	0	0	0	0	0	0	0	0	0	0	0	0	0	0	0	0	0	0	0	0	0	0
071019	14:19:17	14:21:18	120523	5.0.10.0	5_exp_RW	43	Rpleas_acq	CS_B	BZZB	YDDY	GWWG	VKKV	MQQM	JXXJ	ehrlich	schön	treu	fair	spielen	retten	eitel	schlecht	tot	faul	strafen	rächen	1	acq_USpleas_CSpleas1_RW	acq1_RW	1	16	0	0	300	300	658	50	0	1	1	blank2r.bmp	0	1	+	0	1	blank2r.bmp	492	1	BZZB	492	1	blank2r.bmp	572	3	treu	866	0	0	0	0	0	0	0	0	0	0	0	0	0	0	0	0	0	0	0	0	0	0	0	0	0	0	0	0	0	0	0	0	0	0	0	0
071019	14:19:17	14:21:54	156255	5.0.10.0	5_exp_RW	43	Rpleas_acq	CS_B	BZZB	YDDY	GWWG	VKKV	MQQM	JXXJ	ehrlich	schön	treu	fair	spielen	retten	eitel	schlecht	tot	faul	strafen	rächen	1	acq_USunple_CSunple1_RW	acq2_RW	2	1	480	0	300	300	3735	50	0	0	1	blank2r.bmp	0	1	+	0	1	blank2r.bmp	492	1	GWWG	492	1	blank2r.bmp	572	1	eitel	866	1	FEHLER	4944	1	!	1319	1	!	-1	0	0	0	0	0	0	0	0	0	0	0	0	0	0	0	0	0	0	0	0	0	0	0	0	0	0	0
071019	14:19:17	14:21:57	158761	5.0.10.0	5_exp_RW	43	Rpleas_acq	CS_B	BZZB	YDDY	GWWG	VKKV	MQQM	JXXJ	ehrlich	schön	treu	fair	spielen	retten	eitel	schlecht	tot	faul	strafen	rächen	1	acq_USunple_CSunple1_RW	acq2_RW	2	2	480	0	300	300	946	46	0	1	1	blank2r.bmp	0	1	+	0	1	blank2r.bmp	492	1	GWWG	492	1	blank2r.bmp	572	2	schlecht	866	1	!	1319	1	!	-1	0	0	0	0	0	0	0	0	0	0	0	0	0	0	0	0	0	0	0	0	0	0	0	0	0	0	0	0	0	0
071019	14:19:17	14:21:59	161107	5.0.10.0	5_exp_RW	43	Rpleas_acq	CS_B	BZZB	YDDY	GWWG	VKKV	MQQM	JXXJ	ehrlich	schön	treu	fair	spielen	retten	eitel	schlecht	tot	faul	strafen	rächen	1	acq_USunple_CSunple2_RW	acq2_RW	2	3	480	0	300	300	560	46	0	1	1	blank2r.bmp	0	1	+	0	1	blank2r.bmp	492	1	VKKV	492	1	blank2r.bmp	572	3	rächen	866	1	!	1319	1	!	-1	0	0	0	0	0	0	0	0	0	0	0	0	0	0	0	0	0	0	0	0	0	0	0	0	0	0	0	0	0	0
071019	14:19:17	14:22:01	163399	5.0.10.0	5_exp_RW	43	Rpleas_acq	CS_B	BZZB	YDDY	GWWG	VKKV	MQQM	JXXJ	ehrlich	schön	treu	fair	spielen	retten	eitel	schlecht	tot	faul	strafen	rächen	1	acq_USpleas_CSpleas2_RW	acq2_RW	2	4	480	1	300	300	479	50	0	1	1	blank2r.bmp	0	1	+	0	1	blank2r.bmp	492	1	YDDY	492	1	blank2r.bmp	572	2	spielen	866	1	!	1319	1	!	1386	0	0	0	0	0	0	0	0	0	0	0	0	0	0	0	0	0	0	0	0	0	0	0	0	0	0	0	0	0	0
071019	14:19:17	14:22:04	165558	5.0.10.0	5_exp_RW	43	Rpleas_acq	CS_B	BZZB	YDDY	GWWG	VKKV	MQQM	JXXJ	ehrlich	schön	treu	fair	spielen	retten	eitel	schlecht	tot	faul	strafen	rächen	1	acq_USpleas_CSpleas1_RW	acq2_RW	2	5	480	0	300	300	388	50	0	1	1	blank2r.bmp	0	1	+	0	1	blank2r.bmp	492	1	BZZB	492	1	blank2r.bmp	572	2	schön	866	1	!	-1	1	!	-1	0	0	0	0	0	0	0	0	0	0	0	0	0	0	0	0	0	0	0	0	0	0	0	0	0	0	0	0	0	0
071019	14:19:17	14:22:06	167930	5.0.10.0	5_exp_RW	43	Rpleas_acq	CS_B	BZZB	YDDY	GWWG	VKKV	MQQM	JXXJ	ehrlich	schön	treu	fair	spielen	retten	eitel	schlecht	tot	faul	strafen	rächen	1	acq_USpleas_CSpleas2_RW	acq2_RW	2	6	480	0	300	300	577	50	0	1	1	blank2r.bmp	0	1	+	0	1	blank2r.bmp	492	1	YDDY	492	1	blank2r.bmp	572	1	fair	866	1	!	1319	1	!	-1	0	0	0	0	0	0	0	0	0	0	0	0	0	0	0	0	0	0	0	0	0	0	0	0	0	0	0	0	0	0
071019	14:19:17	14:22:08	170210	5.0.10.0	5_exp_RW	43	Rpleas_acq	CS_B	BZZB	YDDY	GWWG	VKKV	MQQM	JXXJ	ehrlich	schön	treu	fair	spielen	retten	eitel	schlecht	tot	faul	strafen	rächen	1	acq_USpleas_CSpleas2_RW	acq2_RW	2	7	480	1	300	300	456	50	0	1	1	blank2r.bmp	0	1	+	0	1	blank2r.bmp	492	1	YDDY	492	1	blank2r.bmp	572	1	fair	866	1	!	1319	1	!	1359	0	0	0	0	0	0	0	0	0	0	0	0	0	0	0	0	0	0	0	0	0	0	0	0	0	0	0	0	0	0
071019	14:19:17	14:22:11	172649	5.0.10.0	5_exp_RW	43	Rpleas_acq	CS_B	BZZB	YDDY	GWWG	VKKV	MQQM	JXXJ	ehrlich	schön	treu	fair	spielen	retten	eitel	schlecht	tot	faul	strafen	rächen	1	acq_USpleas_CSpleas2_RW	acq2_RW	2	8	480	0	300	300	677	50	0	1	1	blank2r.bmp	0	1	+	0	1	blank2r.bmp	492	1	YDDY	492	1	blank2r.bmp	572	3	retten	866	1	!	1319	1	!	-1	0	0	0	0	0	0	0	0	0	0	0	0	0	0	0	0	0	0	0	0	0	0	0	0	0	0	0	0	0	0
071019	14:19:17	14:22:13	175154	5.0.10.0	5_exp_RW	43	Rpleas_acq	CS_B	BZZB	YDDY	GWWG	VKKV	MQQM	JXXJ	ehrlich	schön	treu	fair	spielen	retten	eitel	schlecht	tot	faul	strafen	rächen	1	acq_USunple_CSunple2_RW	acq2_RW	2	9	480	0	300	300	727	46	0	1	1	blank2r.bmp	0	1	+	0	1	blank2r.bmp	492	1	VKKV	492	1	blank2r.bmp	572	1	faul	866	1	!	1319	1	!	-1	0	0	0	0	0	0	0	0	0	0	0	0	0	0	0	0	0	0	0	0	0	0	0	0	0	0	0	0	0	0
071019	14:19:17	14:22:15	177233	5.0.10.0	5_exp_RW	43	Rpleas_acq	CS_B	BZZB	YDDY	GWWG	VKKV	MQQM	JXXJ	ehrlich	schön	treu	fair	spielen	retten	eitel	schlecht	tot	faul	strafen	rächen	1	acq_USpleas_CSpleas2_RW	acq2_RW	2	10	480	0	300	300	294	50	0	1	1	blank2r.bmp	0	1	+	0	1	blank2r.bmp	492	1	YDDY	492	1	blank2r.bmp	572	2	spielen	866	1	!	-1	1	!	-1	0	0	0	0	0	0	0	0	0	0	0	0	0	0	0	0	0	0	0	0	0	0	0	0	0	0	0	0	0	0
071019	14:19:17	14:22:18	179606	5.0.10.0	5_exp_RW	43	Rpleas_acq	CS_B	BZZB	YDDY	GWWG	VKKV	MQQM	JXXJ	ehrlich	schön	treu	fair	spielen	retten	eitel	schlecht	tot	faul	strafen	rächen	1	acq_USunple_CSunple2_RW	acq2_RW	2	11	480	0	300	300	594	46	0	1	1	blank2r.bmp	0	1	+	0	1	blank2r.bmp	492	1	VKKV	492	1	blank2r.bmp	572	3	rächen	866	1	!	1319	1	!	-1	0	0	0	0	0	0	0	0	0	0	0	0	0	0	0	0	0	0	0	0	0	0	0	0	0	0	0	0	0	0
071019	14:19:17	14:22:20	181845	5.0.10.0	5_exp_RW	43	Rpleas_acq	CS_B	BZZB	YDDY	GWWG	VKKV	MQQM	JXXJ	ehrlich	schön	treu	fair	spielen	retten	eitel	schlecht	tot	faul	strafen	rächen	1	acq_USpleas_CSpleas1_RW	acq2_RW	2	12	480	1	300	300	426	50	0	1	1	blank2r.bmp	0	1	+	0	1	blank2r.bmp	492	1	BZZB	492	1	blank2r.bmp	572	1	ehrlich	866	1	!	1319	1	!	1332	0	0	0	0	0	0	0	0	0	0	0	0	0	0	0	0	0	0	0	0	0	0	0	0	0	0	0	0	0	0
071019	14:19:17	14:22:22	184404	5.0.10.0	5_exp_RW	43	Rpleas_acq	CS_B	BZZB	YDDY	GWWG	VKKV	MQQM	JXXJ	ehrlich	schön	treu	fair	spielen	retten	eitel	schlecht	tot	faul	strafen	rächen	1	acq_USunple_CSunple2_RW	acq2_RW	2	13	480	0	300	300	797	46	0	1	1	blank2r.bmp	0	1	+	0	1	blank2r.bmp	492	1	VKKV	492	1	blank2r.bmp	572	1	faul	866	1	!	1319	1	!	-1	0	0	0	0	0	0	0	0	0	0	0	0	0	0	0	0	0	0	0	0	0	0	0	0	0	0	0	0	0	0
071019	14:19:17	14:22:25	186656	5.0.10.0	5_exp_RW	43	Rpleas_acq	CS_B	BZZB	YDDY	GWWG	VKKV	MQQM	JXXJ	ehrlich	schön	treu	fair	spielen	retten	eitel	schlecht	tot	faul	strafen	rächen	1	acq_USunple_CSunple1_RW	acq2_RW	2	14	480	1	300	300	435	46	0	1	1	blank2r.bmp	0	1	+	0	1	blank2r.bmp	492	1	GWWG	492	1	blank2r.bmp	572	2	schlecht	866	1	!	1319	1	!	1332	0	0	0	0	0	0	0	0	0	0	0	0	0	0	0	0	0	0	0	0	0	0	0	0	0	0	0	0	0	0
071019	14:19:17	14:22:27	188882	5.0.10.0	5_exp_RW	43	Rpleas_acq	CS_B	BZZB	YDDY	GWWG	VKKV	MQQM	JXXJ	ehrlich	schön	treu	fair	spielen	retten	eitel	schlecht	tot	faul	strafen	rächen	1	acq_USunple_CSunple1_RW	acq2_RW	2	15	480	1	300	300	432	46	0	1	1	blank2r.bmp	0	1	+	0	1	blank2r.bmp	492	1	GWWG	492	1	blank2r.bmp	572	3	tot	866	1	!	1319	1	!	1332	0	0	0	0	0	0	0	0	0	0	0	0	0	0	0	0	0	0	0	0	0	0	0	0	0	0	0	0	0	0
071019	14:19:17	14:22:29	191108	5.0.10.0	5_exp_RW	43	Rpleas_acq	CS_B	BZZB	YDDY	GWWG	VKKV	MQQM	JXXJ	ehrlich	schön	treu	fair	spielen	retten	eitel	schlecht	tot	faul	strafen	rächen	1	acq_USunple_CSunple2_RW	acq2_RW	2	16	480	1	300	300	426	46	0	1	1	blank2r.bmp	0	1	+	0	1	blank2r.bmp	492	1	VKKV	492	1	blank2r.bmp	572	2	strafen	866	1	!	1319	1	!	1332	0	0	0	0	0	0	0	0	0	0	0	0	0	0	0	0	0	0	0	0	0	0	0	0	0	0	0	0	0	0
071019	14:19:17	14:22:31	193387	5.0.10.0	5_exp_RW	43	Rpleas_acq	CS_B	BZZB	YDDY	GWWG	VKKV	MQQM	JXXJ	ehrlich	schön	treu	fair	spielen	retten	eitel	schlecht	tot	faul	strafen	rächen	1	acq_USpleas_CSpleas1_RW	acq2_RW	2	17	480	1	300	300	470	50	0	1	1	blank2r.bmp	0	1	+	0	1	blank2r.bmp	492	1	BZZB	492	1	blank2r.bmp	572	3	treu	866	1	!	1319	1	!	1372	0	0	0	0	0	0	0	0	0	0	0	0	0	0	0	0	0	0	0	0	0	0	0	0	0	0	0	0	0	0
071019	14:19:17	14:22:34	195679	5.0.10.0	5_exp_RW	43	Rpleas_acq	CS_B	BZZB	YDDY	GWWG	VKKV	MQQM	JXXJ	ehrlich	schön	treu	fair	spielen	retten	eitel	schlecht	tot	faul	strafen	rächen	1	acq_USunple_CSunple2_RW	acq2_RW	2	18	480	1	300	300	479	46	0	1	1	blank2r.bmp	0	1	+	0	1	blank2r.bmp	492	1	VKKV	492	1	blank2r.bmp	572	3	rächen	866	1	!	1319	1	!	1386	0	0	0	0	0	0	0	0	0	0	0	0	0	0	0	0	0	0	0	0	0	0	0	0	0	0	0	0	0	0
071019	14:19:17	14:22:36	197852	5.0.10.0	5_exp_RW	43	Rpleas_acq	CS_B	BZZB	YDDY	GWWG	VKKV	MQQM	JXXJ	ehrlich	schön	treu	fair	spielen	retten	eitel	schlecht	tot	faul	strafen	rächen	1	acq_USunple_CSunple1_RW	acq2_RW	2	19	480	0	300	300	398	46	0	1	1	blank2r.bmp	0	1	+	0	1	blank2r.bmp	492	1	GWWG	492	1	blank2r.bmp	572	1	eitel	866	1	!	-1	1	!	-1	0	0	0	0	0	0	0	0	0	0	0	0	0	0	0	0	0	0	0	0	0	0	0	0	0	0	0	0	0	0
071019	14:19:17	14:22:38	200184	5.0.10.0	5_exp_RW	43	Rpleas_acq	CS_B	BZZB	YDDY	GWWG	VKKV	MQQM	JXXJ	ehrlich	schön	treu	fair	spielen	retten	eitel	schlecht	tot	faul	strafen	rächen	1	acq_USpleas_CSpleas1_RW	acq2_RW	2	20	480	1	300	300	522	50	0	1	1	blank2r.bmp	0	1	+	0	1	blank2r.bmp	492	1	BZZB	492	1	blank2r.bmp	572	2	schön	866	1	!	1319	1	!	1426	0	0	0	0	0	0	0	0	0	0	0	0	0	0	0	0	0	0	0	0	0	0	0	0	0	0	0	0	0	0
071019	14:19:17	14:22:40	202356	5.0.10.0	5_exp_RW	43	Rpleas_acq	CS_B	BZZB	YDDY	GWWG	VKKV	MQQM	JXXJ	ehrlich	schön	treu	fair	spielen	retten	eitel	schlecht	tot	faul	strafen	rächen	1	acq_USpleas_CSpleas1_RW	acq2_RW	2	21	480	0	300	300	405	50	0	1	1	blank2r.bmp	0	1	+	0	1	blank2r.bmp	492	1	BZZB	492	1	blank2r.bmp	572	1	ehrlich	866	1	!	-1	1	!	-1	0	0	0	0	0	0	0	0	0	0	0	0	0	0	0	0	0	0	0	0	0	0	0	0	0	0	0	0	0	0
071019	14:19:17	14:22:43	204809	5.0.10.0	5_exp_RW	43	Rpleas_acq	CS_B	BZZB	YDDY	GWWG	VKKV	MQQM	JXXJ	ehrlich	schön	treu	fair	spielen	retten	eitel	schlecht	tot	faul	strafen	rächen	1	acq_USpleas_CSpleas1_RW	acq2_RW	2	22	480	0	300	300	672	50	0	1	1	blank2r.bmp	0	1	+	0	1	blank2r.bmp	492	1	BZZB	492	1	blank2r.bmp	572	1	ehrlich	866	1	!	1319	1	!	-1	0	0	0	0	0	0	0	0	0	0	0	0	0	0	0	0	0	0	0	0	0	0	0	0	0	0	0	0	0	0
071019	14:19:17	14:22:45	206955	5.0.10.0	5_exp_RW	43	Rpleas_acq	CS_B	BZZB	YDDY	GWWG	VKKV	MQQM	JXXJ	ehrlich	schön	treu	fair	spielen	retten	eitel	schlecht	tot	faul	strafen	rächen	1	acq_USpleas_CSpleas2_RW	acq2_RW	2	23	480	0	300	300	369	50	0	1	1	blank2r.bmp	0	1	+	0	1	blank2r.bmp	492	1	YDDY	492	1	blank2r.bmp	572	2	spielen	866	1	!	-1	1	!	-1	0	0	0	0	0	0	0	0	0	0	0	0	0	0	0	0	0	0	0	0	0	0	0	0	0	0	0	0	0	0
071019	14:19:17	14:22:47	209394	5.0.10.0	5_exp_RW	43	Rpleas_acq	CS_B	BZZB	YDDY	GWWG	VKKV	MQQM	JXXJ	ehrlich	schön	treu	fair	spielen	retten	eitel	schlecht	tot	faul	strafen	rächen	1	acq_USunple_CSunple1_RW	acq2_RW	2	24	480	0	300	300	658	46	0	1	1	blank2r.bmp	0	1	+	0	1	blank2r.bmp	492	1	GWWG	492	1	blank2r.bmp	572	2	schlecht	866	1	!	1319	1	!	-1	0	0	0	0	0	0	0	0	0	0	0	0	0	0	0	0	0	0	0	0	0	0	0	0	0	0	0	0	0	0
071019	14:19:17	14:23:06	228492	5.0.10.0	5_exp_RW	43	Rpleas_acq	CS_B	BZZB	YDDY	GWWG	VKKV	MQQM	JXXJ	ehrlich	schön	treu	fair	spielen	retten	eitel	schlecht	tot	faul	strafen	rächen	1	acq_USpleas_CSpleas1_RW	acq3_RW	3	1	453	0	300	300	620	50	0	1	1	blank2r.bmp	0	1	+	0	1	blank2r.bmp	492	1	BZZB	492	1	blank2r.bmp	572	3	treu	866	1	!	1292	1	!	-1	0	0	0	0	0	0	0	0	0	0	0	0	0	0	0	0	0	0	0	0	0	0	0	0	0	0	0	0	0	0
071019	14:19:17	14:23:09	230638	5.0.10.0	5_exp_RW	43	Rpleas_acq	CS_B	BZZB	YDDY	GWWG	VKKV	MQQM	JXXJ	ehrlich	schön	treu	fair	spielen	retten	eitel	schlecht	tot	faul	strafen	rächen	1	acq_USpleas_CSpleas1_RW	acq3_RW	3	2	453	0	300	300	362	50	0	1	1	blank2r.bmp	0	1	+	0	1	blank2r.bmp	492	1	BZZB	492	1	blank2r.bmp	572	2	schön	866	1	!	-1	1	!	-1	0	0	0	0	0	0	0	0	0	0	0	0	0	0	0	0	0	0	0	0	0	0	0	0	0	0	0	0	0	0
071019	14:19:17	14:23:11	233050	5.0.10.0	5_exp_RW	43	Rpleas_acq	CS_B	BZZB	YDDY	GWWG	VKKV	MQQM	JXXJ	ehrlich	schön	treu	fair	spielen	retten	eitel	schlecht	tot	faul	strafen	rächen	1	acq_USpleas_CSpleas2_RW	acq3_RW	3	3	453	0	300	300	626	50	0	1	1	blank2r.bmp	0	1	+	0	1	blank2r.bmp	492	1	YDDY	492	1	blank2r.bmp	572	1	fair	866	1	!	1292	1	!	-1	0	0	0	0	0	0	0	0	0	0	0	0	0	0	0	0	0	0	0	0	0	0	0	0	0	0	0	0	0	0
071019	14:19:17	14:23:13	235263	5.0.10.0	5_exp_RW	43	Rpleas_acq	CS_B	BZZB	YDDY	GWWG	VKKV	MQQM	JXXJ	ehrlich	schön	treu	fair	spielen	retten	eitel	schlecht	tot	faul	strafen	rächen	1	acq_USunple_CSunple1_RW	acq3_RW	3	4	453	1	300	300	400	46	0	1	1	blank2r.bmp	0	1	+	0	1	blank2r.bmp	492	1	GWWG	492	1	blank2r.bmp	572	3	tot	866	1	!	1292	1	!	1306	0	0	0	0	0	0	0	0	0	0	0	0	0	0	0	0	0	0	0	0	0	0	0	0	0	0	0	0	0	0
071019	14:19:17	14:23:15	237515	5.0.10.0	5_exp_RW	43	Rpleas_acq	CS_B	BZZB	YDDY	GWWG	VKKV	MQQM	JXXJ	ehrlich	schön	treu	fair	spielen	retten	eitel	schlecht	tot	faul	strafen	rächen	1	acq_USpleas_CSpleas2_RW	acq3_RW	3	5	453	1	300	300	456	50	0	1	1	blank2r.bmp	0	1	+	0	1	blank2r.bmp	492	1	YDDY	492	1	blank2r.bmp	572	3	retten	866	1	!	1292	1	!	1359	0	0	0	0	0	0	0	0	0	0	0	0	0	0	0	0	0	0	0	0	0	0	0	0	0	0	0	0	0	0
071019	14:19:17	14:23:18	239661	5.0.10.0	5_exp_RW	43	Rpleas_acq	CS_B	BZZB	YDDY	GWWG	VKKV	MQQM	JXXJ	ehrlich	schön	treu	fair	spielen	retten	eitel	schlecht	tot	faul	strafen	rächen	1	acq_USpleas_CSpleas2_RW	acq3_RW	3	6	453	0	300	300	373	50	0	1	1	blank2r.bmp	0	1	+	0	1	blank2r.bmp	492	1	YDDY	492	1	blank2r.bmp	572	1	fair	866	1	!	-1	1	!	-1	0	0	0	0	0	0	0	0	0	0	0	0	0	0	0	0	0	0	0	0	0	0	0	0	0	0	0	0	0	0
071019	14:19:17	14:23:20	242033	5.0.10.0	5_exp_RW	43	Rpleas_acq	CS_B	BZZB	YDDY	GWWG	VKKV	MQQM	JXXJ	ehrlich	schön	treu	fair	spielen	retten	eitel	schlecht	tot	faul	strafen	rächen	1	acq_USunple_CSunple2_RW	acq3_RW	3	7	453	0	300	300	596	46	0	1	1	blank2r.bmp	0	1	+	0	1	blank2r.bmp	492	1	VKKV	492	1	blank2r.bmp	572	2	strafen	866	1	!	1292	1	!	-1	0	0	0	0	0	0	0	0	0	0	0	0	0	0	0	0	0	0	0	0	0	0	0	0	0	0	0	0	0	0
071019	14:19:17	14:23:22	244193	5.0.10.0	5_exp_RW	43	Rpleas_acq	CS_B	BZZB	YDDY	GWWG	VKKV	MQQM	JXXJ	ehrlich	schön	treu	fair	spielen	retten	eitel	schlecht	tot	faul	strafen	rächen	1	acq_USpleas_CSpleas1_RW	acq3_RW	3	8	453	0	300	300	378	50	0	1	1	blank2r.bmp	0	1	+	0	1	blank2r.bmp	492	1	BZZB	492	1	blank2r.bmp	572	2	schön	866	1	!	-1	1	!	-1	0	0	0	0	0	0	0	0	0	0	0	0	0	0	0	0	0	0	0	0	0	0	0	0	0	0	0	0	0	0
071019	14:19:17	14:23:25	246552	5.0.10.0	5_exp_RW	43	Rpleas_acq	CS_B	BZZB	YDDY	GWWG	VKKV	MQQM	JXXJ	ehrlich	schön	treu	fair	spielen	retten	eitel	schlecht	tot	faul	strafen	rächen	1	acq_USunple_CSunple2_RW	acq3_RW	3	9	453	0	300	300	573	46	0	1	1	blank2r.bmp	0	1	+	0	1	blank2r.bmp	492	1	VKKV	492	1	blank2r.bmp	572	1	faul	866	1	!	1292	1	!	-1	0	0	0	0	0	0	0	0	0	0	0	0	0	0	0	0	0	0	0	0	0	0	0	0	0	0	0	0	0	0
071019	14:19:17	14:23:27	249017	5.0.10.0	5_exp_RW	43	Rpleas_acq	CS_B	BZZB	YDDY	GWWG	VKKV	MQQM	JXXJ	ehrlich	schön	treu	fair	spielen	retten	eitel	schlecht	tot	faul	strafen	rächen	1	acq_USunple_CSunple1_RW	acq3_RW	3	10	453	1	300	300	440	50	0	0	1	blank2r.bmp	0	1	+	0	1	blank2r.bmp	492	1	GWWG	492	1	blank2r.bmp	572	1	eitel	866	1	FEHLER	1665	1	!	1292	1	!	1346	0	0	0	0	0	0	0	0	0	0	0	0	0	0	0	0	0	0	0	0	0	0	0	0	0	0	0
071019	14:19:17	14:23:30	251576	5.0.10.0	5_exp_RW	43	Rpleas_acq	CS_B	BZZB	YDDY	GWWG	VKKV	MQQM	JXXJ	ehrlich	schön	treu	fair	spielen	retten	eitel	schlecht	tot	faul	strafen	rächen	1	acq_USunple_CSunple1_RW	acq3_RW	3	11	453	0	300	300	773	50	0	0	1	blank2r.bmp	0	1	+	0	1	blank2r.bmp	492	1	GWWG	492	1	blank2r.bmp	572	2	schlecht	866	1	FEHLER	1985	1	!	1292	1	!	-1	0	0	0	0	0	0	0	0	0	0	0	0	0	0	0	0	0	0	0	0	0	0	0	0	0	0	0
071019	14:19:17	14:23:32	253789	5.0.10.0	5_exp_RW	43	Rpleas_acq	CS_B	BZZB	YDDY	GWWG	VKKV	MQQM	JXXJ	ehrlich	schön	treu	fair	spielen	retten	eitel	schlecht	tot	faul	strafen	rächen	1	acq_USpleas_CSpleas1_RW	acq3_RW	3	12	453	0	300	300	654	50	0	1	1	blank2r.bmp	0	1	+	0	1	blank2r.bmp	492	1	BZZB	492	1	blank2r.bmp	572	1	ehrlich	866	1	!	1292	1	!	-1	0	0	0	0	0	0	0	0	0	0	0	0	0	0	0	0	0	0	0	0	0	0	0	0	0	0	0	0	0	0
071019	14:19:17	14:23:34	256054	5.0.10.0	5_exp_RW	43	Rpleas_acq	CS_B	BZZB	YDDY	GWWG	VKKV	MQQM	JXXJ	ehrlich	schön	treu	fair	spielen	retten	eitel	schlecht	tot	faul	strafen	rächen	1	acq_USunple_CSunple2_RW	acq3_RW	3	13	453	1	300	300	453	46	0	1	1	blank2r.bmp	0	1	+	0	1	blank2r.bmp	492	1	VKKV	492	1	blank2r.bmp	572	1	faul	866	1	!	1292	1	!	1359	0	0	0	0	0	0	0	0	0	0	0	0	0	0	0	0	0	0	0	0	0	0	0	0	0	0	0	0	0	0
071019	14:19:17	14:23:37	258533	5.0.10.0	5_exp_RW	43	Rpleas_acq	CS_B	BZZB	YDDY	GWWG	VKKV	MQQM	JXXJ	ehrlich	schön	treu	fair	spielen	retten	eitel	schlecht	tot	faul	strafen	rächen	1	acq_USunple_CSunple1_RW	acq3_RW	3	14	453	1	300	300	466	50	0	0	1	blank2r.bmp	0	1	+	0	1	blank2r.bmp	492	1	GWWG	492	1	blank2r.bmp	572	1	eitel	866	1	FEHLER	1692	1	!	1292	1	!	1372	0	0	0	0	0	0	0	0	0	0	0	0	0	0	0	0	0	0	0	0	0	0	0	0	0	0	0
071019	14:19:17	14:23:39	260666	5.0.10.0	5_exp_RW	43	Rpleas_acq	CS_B	BZZB	YDDY	GWWG	VKKV	MQQM	JXXJ	ehrlich	schön	treu	fair	spielen	retten	eitel	schlecht	tot	faul	strafen	rächen	1	acq_USunple_CSunple2_RW	acq3_RW	3	15	453	0	300	300	579	46	0	1	1	blank2r.bmp	0	1	+	0	1	blank2r.bmp	492	1	VKKV	492	1	blank2r.bmp	572	2	strafen	866	1	!	1292	1	!	-1	0	0	0	0	0	0	0	0	0	0	0	0	0	0	0	0	0	0	0	0	0	0	0	0	0	0	0	0	0	0
071019	14:19:17	14:23:41	263065	5.0.10.0	5_exp_RW	43	Rpleas_acq	CS_B	BZZB	YDDY	GWWG	VKKV	MQQM	JXXJ	ehrlich	schön	treu	fair	spielen	retten	eitel	schlecht	tot	faul	strafen	rächen	1	acq_USunple_CSunple1_RW	acq3_RW	3	16	453	0	300	300	619	46	0	1	1	blank2r.bmp	0	1	+	0	1	blank2r.bmp	492	1	GWWG	492	1	blank2r.bmp	572	3	tot	866	1	!	1292	1	!	-1	0	0	0	0	0	0	0	0	0	0	0	0	0	0	0	0	0	0	0	0	0	0	0	0	0	0	0	0	0	0
071019	14:19:17	14:23:43	265451	5.0.10.0	5_exp_RW	43	Rpleas_acq	CS_B	BZZB	YDDY	GWWG	VKKV	MQQM	JXXJ	ehrlich	schön	treu	fair	spielen	retten	eitel	schlecht	tot	faul	strafen	rächen	1	acq_USpleas_CSpleas1_RW	acq3_RW	3	17	453	0	300	300	607	50	0	1	1	blank2r.bmp	0	1	+	0	1	blank2r.bmp	492	1	BZZB	492	1	blank2r.bmp	572	3	treu	866	1	!	1292	1	!	-1	0	0	0	0	0	0	0	0	0	0	0	0	0	0	0	0	0	0	0	0	0	0	0	0	0	0	0	0	0	0
071019	14:19:17	14:23:46	267983	5.0.10.0	5_exp_RW	43	Rpleas_acq	CS_B	BZZB	YDDY	GWWG	VKKV	MQQM	JXXJ	ehrlich	schön	treu	fair	spielen	retten	eitel	schlecht	tot	faul	strafen	rächen	1	acq_USpleas_CSpleas1_RW	acq3_RW	3	18	453	1	300	300	515	46	0	0	1	blank2r.bmp	0	1	+	0	1	blank2r.bmp	492	1	BZZB	492	1	blank2r.bmp	572	2	schön	866	1	FEHLER	1732	1	!	1292	1	!	1412	0	0	0	0	0	0	0	0	0	0	0	0	0	0	0	0	0	0	0	0	0	0	0	0	0	0	0
071019	14:19:17	14:23:48	270009	5.0.10.0	5_exp_RW	43	Rpleas_acq	CS_B	BZZB	YDDY	GWWG	VKKV	MQQM	JXXJ	ehrlich	schön	treu	fair	spielen	retten	eitel	schlecht	tot	faul	strafen	rächen	1	acq_USpleas_CSpleas2_RW	acq3_RW	3	19	453	1	300	300	445	50	0	1	1	blank2r.bmp	0	1	+	0	1	blank2r.bmp	492	1	YDDY	492	1	blank2r.bmp	572	3	retten	866	1	!	1292	1	!	1346	0	0	0	0	0	0	0	0	0	0	0	0	0	0	0	0	0	0	0	0	0	0	0	0	0	0	0	0	0	0
071019	14:19:17	14:23:50	272141	5.0.10.0	5_exp_RW	43	Rpleas_acq	CS_B	BZZB	YDDY	GWWG	VKKV	MQQM	JXXJ	ehrlich	schön	treu	fair	spielen	retten	eitel	schlecht	tot	faul	strafen	rächen	1	acq_USpleas_CSpleas2_RW	acq3_RW	3	20	453	0	300	300	368	50	0	1	1	blank2r.bmp	0	1	+	0	1	blank2r.bmp	492	1	YDDY	492	1	blank2r.bmp	572	2	spielen	866	1	!	-1	1	!	-1	0	0	0	0	0	0	0	0	0	0	0	0	0	0	0	0	0	0	0	0	0	0	0	0	0	0	0	0	0	0
071019	14:19:17	14:23:53	274593	5.0.10.0	5_exp_RW	43	Rpleas_acq	CS_B	BZZB	YDDY	GWWG	VKKV	MQQM	JXXJ	ehrlich	schön	treu	fair	spielen	retten	eitel	schlecht	tot	faul	strafen	rächen	1	acq_USpleas_CSpleas2_RW	acq3_RW	3	21	453	1	300	300	433	46	0	0	1	blank2r.bmp	0	1	+	0	1	blank2r.bmp	492	1	YDDY	492	1	blank2r.bmp	572	3	retten	866	1	FEHLER	1652	1	!	1292	1	!	1332	0	0	0	0	0	0	0	0	0	0	0	0	0	0	0	0	0	0	0	0	0	0	0	0	0	0	0
071019	14:19:17	14:23:55	276686	5.0.10.0	5_exp_RW	43	Rpleas_acq	CS_B	BZZB	YDDY	GWWG	VKKV	MQQM	JXXJ	ehrlich	schön	treu	fair	spielen	retten	eitel	schlecht	tot	faul	strafen	rächen	1	acq_USunple_CSunple2_RW	acq3_RW	3	22	453	0	300	300	297	50	0	0	1	blank2r.bmp	0	1	+	0	1	blank2r.bmp	492	1	VKKV	492	1	blank2r.bmp	572	3	rächen	866	1	FEHLER	1506	1	!	-1	1	!	-1	0	0	0	0	0	0	0	0	0	0	0	0	0	0	0	0	0	0	0	0	0	0	0	0	0	0	0
071019	14:19:17	14:23:57	278898	5.0.10.0	5_exp_RW	43	Rpleas_acq	CS_B	BZZB	YDDY	GWWG	VKKV	MQQM	JXXJ	ehrlich	schön	treu	fair	spielen	retten	eitel	schlecht	tot	faul	strafen	rächen	1	acq_USunple_CSunple2_RW	acq3_RW	3	23	453	1	300	300	424	50	0	0	1	blank2r.bmp	0	1	+	0	1	blank2r.bmp	492	1	VKKV	492	1	blank2r.bmp	572	2	strafen	866	1	FEHLER	1639	1	!	1292	1	!	1319	0	0	0	0	0	0	0	0	0	0	0	0	0	0	0	0	0	0	0	0	0	0	0	0	0	0	0
071019	14:19:17	14:23:59	280951	5.0.10.0	5_exp_RW	43	Rpleas_acq	CS_B	BZZB	YDDY	GWWG	VKKV	MQQM	JXXJ	ehrlich	schön	treu	fair	spielen	retten	eitel	schlecht	tot	faul	strafen	rächen	1	acq_USunple_CSunple1_RW	acq3_RW	3	24	453	1	300	300	465	46	0	1	1	blank2r.bmp	0	1	+	0	1	blank2r.bmp	492	1	GWWG	492	1	blank2r.bmp	572	1	eitel	866	1	!	1292	1	!	1359	0	0	0	0	0	0	0	0	0	0	0	0	0	0	0	0	0	0	0	0	0	0	0	0	0	0	0	0	0	0
071019	14:19:17	14:24:12	293652	5.0.10.0	5_exp_RW	43	Rpleas_acq	CS_B	BZZB	YDDY	GWWG	VKKV	MQQM	JXXJ	ehrlich	schön	treu	fair	spielen	retten	eitel	schlecht	tot	faul	strafen	rächen	1	acq_USpleas_CSpleas2_RW	acq4567_RW	4	1	400	0	300	300	609	50	0	1	1	blank2r.bmp	0	1	+	0	1	blank2r.bmp	492	1	YDDY	492	1	blank2r.bmp	572	2	spielen	866	1	!	1239	1	!	-1	0	0	0	0	0	0	0	0	0	0	0	0	0	0	0	0	0	0	0	0	0	0	0	0	0	0	0	0	0	0
071019	14:19:17	14:24:14	295985	5.0.10.0	5_exp_RW	43	Rpleas_acq	CS_B	BZZB	YDDY	GWWG	VKKV	MQQM	JXXJ	ehrlich	schön	treu	fair	spielen	retten	eitel	schlecht	tot	faul	strafen	rächen	1	acq_USunple_CSunple1_RW	acq4567_RW	4	2	400	0	300	300	555	46	0	1	1	blank2r.bmp	0	1	+	0	1	blank2r.bmp	492	1	GWWG	492	1	blank2r.bmp	572	2	schlecht	866	1	!	1239	1	!	-1	0	0	0	0	0	0	0	0	0	0	0	0	0	0	0	0	0	0	0	0	0	0	0	0	0	0	0	0	0	0
071019	14:19:17	14:24:16	298237	5.0.10.0	5_exp_RW	43	Rpleas_acq	CS_B	BZZB	YDDY	GWWG	VKKV	MQQM	JXXJ	ehrlich	schön	treu	fair	spielen	retten	eitel	schlecht	tot	faul	strafen	rächen	1	acq_USpleas_CSpleas2_RW	acq4567_RW	4	3	400	1	300	300	440	50	0	1	1	blank2r.bmp	0	1	+	0	1	blank2r.bmp	492	1	YDDY	492	1	blank2r.bmp	572	1	fair	866	1	!	1239	1	!	1346	0	0	0	0	0	0	0	0	0	0	0	0	0	0	0	0	0	0	0	0	0	0	0	0	0	0	0	0	0	0
071019	14:19:17	14:24:18	300463	5.0.10.0	5_exp_RW	43	Rpleas_acq	CS_B	BZZB	YDDY	GWWG	VKKV	MQQM	JXXJ	ehrlich	schön	treu	fair	spielen	retten	eitel	schlecht	tot	faul	strafen	rächen	1	acq_USpleas_CSpleas1_RW	acq4567_RW	4	4	400	1	300	300	426	50	0	1	1	blank2r.bmp	0	1	+	0	1	blank2r.bmp	492	1	BZZB	492	1	blank2r.bmp	572	3	treu	866	1	!	1239	1	!	1332	0	0	0	0	0	0	0	0	0	0	0	0	0	0	0	0	0	0	0	0	0	0	0	0	0	0	0	0	0	0
071019	14:19:17	14:24:21	302729	5.0.10.0	5_exp_RW	43	Rpleas_acq	CS_B	BZZB	YDDY	GWWG	VKKV	MQQM	JXXJ	ehrlich	schön	treu	fair	spielen	retten	eitel	schlecht	tot	faul	strafen	rächen	1	acq_USunple_CSunple1_RW	acq4567_RW	4	5	400	1	300	300	462	46	0	1	1	blank2r.bmp	0	1	+	0	1	blank2r.bmp	492	1	GWWG	492	1	blank2r.bmp	572	3	tot	866	1	!	1239	1	!	1359	0	0	0	0	0	0	0	0	0	0	0	0	0	0	0	0	0	0	0	0	0	0	0	0	0	0	0	0	0	0
071019	14:19:17	14:24:24	306234	5.0.10.0	5_exp_RW	43	Rpleas_acq	CS_B	BZZB	YDDY	GWWG	VKKV	MQQM	JXXJ	ehrlich	schön	treu	fair	spielen	retten	eitel	schlecht	tot	faul	strafen	rächen	1	acq_USunple_CSunple2_RW	acq4567_RW	4	6	400	0	300	300	1739	46	0	1	1	blank2r.bmp	0	1	+	0	1	blank2r.bmp	492	1	VKKV	492	1	blank2r.bmp	572	1	faul	866	1	!	1239	1	!	-1	0	0	0	0	0	0	0	0	0	0	0	0	0	0	0	0	0	0	0	0	0	0	0	0	0	0	0	0	0	0
071019	14:19:17	14:24:26	308420	5.0.10.0	5_exp_RW	43	Rpleas_acq	CS_B	BZZB	YDDY	GWWG	VKKV	MQQM	JXXJ	ehrlich	schön	treu	fair	spielen	retten	eitel	schlecht	tot	faul	strafen	rächen	1	acq_USpleas_CSpleas1_RW	acq4567_RW	4	7	400	1	300	300	372	50	0	1	1	blank2r.bmp	0	1	+	0	1	blank2r.bmp	492	1	BZZB	492	1	blank2r.bmp	572	1	ehrlich	866	1	!	1239	1	!	1279	0	0	0	0	0	0	0	0	0	0	0	0	0	0	0	0	0	0	0	0	0	0	0	0	0	0	0	0	0	0
071019	14:19:17	14:24:29	310605	5.0.10.0	5_exp_RW	43	Rpleas_acq	CS_B	BZZB	YDDY	GWWG	VKKV	MQQM	JXXJ	ehrlich	schön	treu	fair	spielen	retten	eitel	schlecht	tot	faul	strafen	rächen	1	acq_USunple_CSunple2_RW	acq4567_RW	4	8	400	1	300	300	384	50	0	0	1	blank2r.bmp	0	1	+	0	1	blank2r.bmp	492	1	VKKV	492	1	blank2r.bmp	572	3	rächen	866	1	!	1239	1	!	1279	0	0	0	0	0	0	0	0	0	0	0	0	0	0	0	0	0	0	0	0	0	0	0	0	0	0	0	0	0	0
071019	14:19:17	14:24:31	312898	5.0.10.0	5_exp_RW	43	Rpleas_acq	CS_B	BZZB	YDDY	GWWG	VKKV	MQQM	JXXJ	ehrlich	schön	treu	fair	spielen	retten	eitel	schlecht	tot	faul	strafen	rächen	1	acq_USunple_CSunple1_RW	acq4567_RW	4	9	400	0	300	300	527	46	0	1	1	blank2r.bmp	0	1	+	0	1	blank2r.bmp	492	1	GWWG	492	1	blank2r.bmp	572	3	tot	866	1	!	1239	1	!	-1	0	0	0	0	0	0	0	0	0	0	0	0	0	0	0	0	0	0	0	0	0	0	0	0	0	0	0	0	0	0
071019	14:19:17	14:24:33	315097	5.0.10.0	5_exp_RW	43	Rpleas_acq	CS_B	BZZB	YDDY	GWWG	VKKV	MQQM	JXXJ	ehrlich	schön	treu	fair	spielen	retten	eitel	schlecht	tot	faul	strafen	rächen	1	acq_USunple_CSunple2_RW	acq4567_RW	4	10	400	1	300	300	384	46	0	1	1	blank2r.bmp	0	1	+	0	1	blank2r.bmp	492	1	VKKV	492	1	blank2r.bmp	572	3	rächen	866	1	!	1239	1	!	1279	0	0	0	0	0	0	0	0	0	0	0	0	0	0	0	0	0	0	0	0	0	0	0	0	0	0	0	0	0	0
071019	14:19:17	14:24:35	317323	5.0.10.0	5_exp_RW	43	Rpleas_acq	CS_B	BZZB	YDDY	GWWG	VKKV	MQQM	JXXJ	ehrlich	schön	treu	fair	spielen	retten	eitel	schlecht	tot	faul	strafen	rächen	1	acq_USpleas_CSpleas1_RW	acq4567_RW	4	11	400	1	300	300	414	50	0	1	1	blank2r.bmp	0	1	+	0	1	blank2r.bmp	492	1	BZZB	492	1	blank2r.bmp	572	3	treu	866	1	!	1239	1	!	1319	0	0	0	0	0	0	0	0	0	0	0	0	0	0	0	0	0	0	0	0	0	0	0	0	0	0	0	0	0	0
071019	14:19:17	14:24:38	319628	5.0.10.0	5_exp_RW	43	Rpleas_acq	CS_B	BZZB	YDDY	GWWG	VKKV	MQQM	JXXJ	ehrlich	schön	treu	fair	spielen	retten	eitel	schlecht	tot	faul	strafen	rächen	1	acq_USunple_CSunple2_RW	acq4567_RW	4	12	400	0	300	300	538	50	0	0	1	blank2r.bmp	0	1	+	0	1	blank2r.bmp	492	1	VKKV	492	1	blank2r.bmp	572	1	faul	866	1	!	1239	1	!	-1	0	0	0	0	0	0	0	0	0	0	0	0	0	0	0	0	0	0	0	0	0	0	0	0	0	0	0	0	0	0
071019	14:19:17	14:24:40	321801	5.0.10.0	5_exp_RW	43	Rpleas_acq	CS_B	BZZB	YDDY	GWWG	VKKV	MQQM	JXXJ	ehrlich	schön	treu	fair	spielen	retten	eitel	schlecht	tot	faul	strafen	rächen	1	acq_USpleas_CSpleas1_RW	acq4567_RW	4	13	400	1	300	300	360	50	0	1	1	blank2r.bmp	0	1	+	0	1	blank2r.bmp	492	1	BZZB	492	1	blank2r.bmp	572	2	schön	866	1	!	1239	1	!	1266	0	0	0	0	0	0	0	0	0	0	0	0	0	0	0	0	0	0	0	0	0	0	0	0	0	0	0	0	0	0
071019	14:19:17	14:24:42	323973	5.0.10.0	5_exp_RW	43	Rpleas_acq	CS_B	BZZB	YDDY	GWWG	VKKV	MQQM	JXXJ	ehrlich	schön	treu	fair	spielen	retten	eitel	schlecht	tot	faul	strafen	rächen	1	acq_USpleas_CSpleas2_RW	acq4567_RW	4	14	400	1	300	300	377	50	0	1	1	blank2r.bmp	0	1	+	0	1	blank2r.bmp	492	1	YDDY	492	1	blank2r.bmp	572	2	spielen	866	1	!	1239	1	!	1279	0	0	0	0	0	0	0	0	0	0	0	0	0	0	0	0	0	0	0	0	0	0	0	0	0	0	0	0	0	0
071019	14:19:17	14:24:44	326159	5.0.10.0	5_exp_RW	43	Rpleas_acq	CS_B	BZZB	YDDY	GWWG	VKKV	MQQM	JXXJ	ehrlich	schön	treu	fair	spielen	retten	eitel	schlecht	tot	faul	strafen	rächen	1	acq_USpleas_CSpleas1_RW	acq4567_RW	4	15	400	1	300	300	373	50	0	1	1	blank2r.bmp	0	1	+	0	1	blank2r.bmp	492	1	BZZB	492	1	blank2r.bmp	572	1	ehrlich	866	1	!	1239	1	!	1279	0	0	0	0	0	0	0	0	0	0	0	0	0	0	0	0	0	0	0	0	0	0	0	0	0	0	0	0	0	0
071019	14:19:17	14:24:46	328478	5.0.10.0	5_exp_RW	43	Rpleas_acq	CS_B	BZZB	YDDY	GWWG	VKKV	MQQM	JXXJ	ehrlich	schön	treu	fair	spielen	retten	eitel	schlecht	tot	faul	strafen	rächen	1	acq_USunple_CSunple2_RW	acq4567_RW	4	16	400	0	300	300	548	46	0	1	1	blank2r.bmp	0	1	+	0	1	blank2r.bmp	492	1	VKKV	492	1	blank2r.bmp	572	2	strafen	866	1	!	1239	1	!	-1	0	0	0	0	0	0	0	0	0	0	0	0	0	0	0	0	0	0	0	0	0	0	0	0	0	0	0	0	0	0
071019	14:19:17	14:24:49	330691	5.0.10.0	5_exp_RW	43	Rpleas_acq	CS_B	BZZB	YDDY	GWWG	VKKV	MQQM	JXXJ	ehrlich	schön	treu	fair	spielen	retten	eitel	schlecht	tot	faul	strafen	rächen	1	acq_USunple_CSunple1_RW	acq4567_RW	4	17	400	1	300	300	405	46	0	1	1	blank2r.bmp	0	1	+	0	1	blank2r.bmp	492	1	GWWG	492	1	blank2r.bmp	572	2	schlecht	866	1	!	1239	1	!	1306	0	0	0	0	0	0	0	0	0	0	0	0	0	0	0	0	0	0	0	0	0	0	0	0	0	0	0	0	0	0
071019	14:19:17	14:24:51	332876	5.0.10.0	5_exp_RW	43	Rpleas_acq	CS_B	BZZB	YDDY	GWWG	VKKV	MQQM	JXXJ	ehrlich	schön	treu	fair	spielen	retten	eitel	schlecht	tot	faul	strafen	rächen	1	acq_USpleas_CSpleas2_RW	acq4567_RW	4	18	400	1	300	300	392	46	0	0	1	blank2r.bmp	0	1	+	0	1	blank2r.bmp	492	1	YDDY	492	1	blank2r.bmp	572	3	retten	866	1	!	1239	1	!	1292	0	0	0	0	0	0	0	0	0	0	0	0	0	0	0	0	0	0	0	0	0	0	0	0	0	0	0	0	0	0
071019	14:19:17	14:24:53	335129	5.0.10.0	5_exp_RW	43	Rpleas_acq	CS_B	BZZB	YDDY	GWWG	VKKV	MQQM	JXXJ	ehrlich	schön	treu	fair	spielen	retten	eitel	schlecht	tot	faul	strafen	rächen	1	acq_USunple_CSunple1_RW	acq4567_RW	4	19	400	0	300	300	479	50	0	0	1	blank2r.bmp	0	1	+	0	1	blank2r.bmp	492	1	GWWG	492	1	blank2r.bmp	572	1	eitel	866	1	!	1239	1	!	-1	0	0	0	0	0	0	0	0	0	0	0	0	0	0	0	0	0	0	0	0	0	0	0	0	0	0	0	0	0	0
071019	14:19:17	14:24:55	337421	5.0.10.0	5_exp_RW	43	Rpleas_acq	CS_B	BZZB	YDDY	GWWG	VKKV	MQQM	JXXJ	ehrlich	schön	treu	fair	spielen	retten	eitel	schlecht	tot	faul	strafen	rächen	1	acq_USpleas_CSpleas2_RW	acq4567_RW	4	20	400	1	300	300	466	50	0	1	1	blank2r.bmp	0	1	+	0	1	blank2r.bmp	492	1	YDDY	492	1	blank2r.bmp	572	1	fair	866	1	!	1239	1	!	1372	0	0	0	0	0	0	0	0	0	0	0	0	0	0	0	0	0	0	0	0	0	0	0	0	0	0	0	0	0	0
071019	14:19:17	14:24:58	339674	5.0.10.0	5_exp_RW	43	Rpleas_acq	CS_B	BZZB	YDDY	GWWG	VKKV	MQQM	JXXJ	ehrlich	schön	treu	fair	spielen	retten	eitel	schlecht	tot	faul	strafen	rächen	1	acq_USpleas_CSpleas2_RW	acq4567_RW	4	21	400	1	300	300	464	50	0	1	1	blank2r.bmp	0	1	+	0	1	blank2r.bmp	492	1	YDDY	492	1	blank2r.bmp	572	1	fair	866	1	!	1239	1	!	1359	0	0	0	0	0	0	0	0	0	0	0	0	0	0	0	0	0	0	0	0	0	0	0	0	0	0	0	0	0	0
071019	14:19:17	14:25:00	341913	5.0.10.0	5_exp_RW	43	Rpleas_acq	CS_B	BZZB	YDDY	GWWG	VKKV	MQQM	JXXJ	ehrlich	schön	treu	fair	spielen	retten	eitel	schlecht	tot	faul	strafen	rächen	1	acq_USunple_CSunple1_RW	acq4567_RW	4	22	400	1	300	300	450	50	0	0	1	blank2r.bmp	0	1	+	0	1	blank2r.bmp	492	1	GWWG	492	1	blank2r.bmp	572	1	eitel	866	1	!	1239	1	!	1346	0	0	0	0	0	0	0	0	0	0	0	0	0	0	0	0	0	0	0	0	0	0	0	0	0	0	0	0	0	0
071019	14:19:17	14:25:02	344245	5.0.10.0	5_exp_RW	43	Rpleas_acq	CS_B	BZZB	YDDY	GWWG	VKKV	MQQM	JXXJ	ehrlich	schön	treu	fair	spielen	retten	eitel	schlecht	tot	faul	strafen	rächen	1	acq_USunple_CSunple2_RW	acq4567_RW	4	23	400	0	300	300	555	46	0	1	1	blank2r.bmp	0	1	+	0	1	blank2r.bmp	492	1	VKKV	492	1	blank2r.bmp	572	1	faul	866	1	!	1239	1	!	-1	0	0	0	0	0	0	0	0	0	0	0	0	0	0	0	0	0	0	0	0	0	0	0	0	0	0	0	0	0	0
071019	14:19:17	14:25:05	346537	5.0.10.0	5_exp_RW	43	Rpleas_acq	CS_B	BZZB	YDDY	GWWG	VKKV	MQQM	JXXJ	ehrlich	schön	treu	fair	spielen	retten	eitel	schlecht	tot	faul	strafen	rächen	1	acq_USunple_CSunple2_RW	acq4567_RW	4	24	400	0	300	300	497	46	0	1	1	blank2r.bmp	0	1	+	0	1	blank2r.bmp	492	1	VKKV	492	1	blank2r.bmp	572	2	strafen	866	1	!	1239	1	!	-1	0	0	0	0	0	0	0	0	0	0	0	0	0	0	0	0	0	0	0	0	0	0	0	0	0	0	0	0	0	0
071019	14:19:17	14:25:07	348683	5.0.10.0	5_exp_RW	43	Rpleas_acq	CS_B	BZZB	YDDY	GWWG	VKKV	MQQM	JXXJ	ehrlich	schön	treu	fair	spielen	retten	eitel	schlecht	tot	faul	strafen	rächen	1	acq_USunple_CSunple1_RW	acq4567_RW	4	25	400	1	300	300	346	46	0	1	1	blank2r.bmp	0	1	+	0	1	blank2r.bmp	492	1	GWWG	492	1	blank2r.bmp	572	2	schlecht	866	1	!	1239	1	!	1252	0	0	0	0	0	0	0	0	0	0	0	0	0	0	0	0	0	0	0	0	0	0	0	0	0	0	0	0	0	0
071019	14:19:17	14:25:09	350882	5.0.10.0	5_exp_RW	43	Rpleas_acq	CS_B	BZZB	YDDY	GWWG	VKKV	MQQM	JXXJ	ehrlich	schön	treu	fair	spielen	retten	eitel	schlecht	tot	faul	strafen	rächen	1	acq_USpleas_CSpleas1_RW	acq4567_RW	4	26	400	1	300	300	393	50	0	1	1	blank2r.bmp	0	1	+	0	1	blank2r.bmp	492	1	BZZB	492	1	blank2r.bmp	572	2	schön	866	1	!	1239	1	!	1292	0	0	0	0	0	0	0	0	0	0	0	0	0	0	0	0	0	0	0	0	0	0	0	0	0	0	0	0	0	0
071019	14:19:17	14:25:11	353041	5.0.10.0	5_exp_RW	43	Rpleas_acq	CS_B	BZZB	YDDY	GWWG	VKKV	MQQM	JXXJ	ehrlich	schön	treu	fair	spielen	retten	eitel	schlecht	tot	faul	strafen	rächen	1	acq_USpleas_CSpleas2_RW	acq4567_RW	4	27	400	1	300	300	356	50	0	1	1	blank2r.bmp	0	1	+	0	1	blank2r.bmp	492	1	YDDY	492	1	blank2r.bmp	572	2	spielen	866	1	!	1239	1	!	1252	0	0	0	0	0	0	0	0	0	0	0	0	0	0	0	0	0	0	0	0	0	0	0	0	0	0	0	0	0	0
071019	14:19:17	14:25:13	355294	5.0.10.0	5_exp_RW	43	Rpleas_acq	CS_B	BZZB	YDDY	GWWG	VKKV	MQQM	JXXJ	ehrlich	schön	treu	fair	spielen	retten	eitel	schlecht	tot	faul	strafen	rächen	1	acq_USpleas_CSpleas2_RW	acq4567_RW	4	28	400	1	300	300	462	50	0	1	1	blank2r.bmp	0	1	+	0	1	blank2r.bmp	492	1	YDDY	492	1	blank2r.bmp	572	3	retten	866	1	!	1239	1	!	1359	0	0	0	0	0	0	0	0	0	0	0	0	0	0	0	0	0	0	0	0	0	0	0	0	0	0	0	0	0	0
071019	14:19:17	14:25:16	357586	5.0.10.0	5_exp_RW	43	Rpleas_acq	CS_B	BZZB	YDDY	GWWG	VKKV	MQQM	JXXJ	ehrlich	schön	treu	fair	spielen	retten	eitel	schlecht	tot	faul	strafen	rächen	1	acq_USunple_CSunple2_RW	acq4567_RW	4	29	400	0	300	300	528	46	0	1	1	blank2r.bmp	0	1	+	0	1	blank2r.bmp	492	1	VKKV	492	1	blank2r.bmp	572	3	rächen	866	1	!	1239	1	!	-1	0	0	0	0	0	0	0	0	0	0	0	0	0	0	0	0	0	0	0	0	0	0	0	0	0	0	0	0	0	0
071019	14:19:17	14:25:18	359745	5.0.10.0	5_exp_RW	43	Rpleas_acq	CS_B	BZZB	YDDY	GWWG	VKKV	MQQM	JXXJ	ehrlich	schön	treu	fair	spielen	retten	eitel	schlecht	tot	faul	strafen	rächen	1	acq_USunple_CSunple1_RW	acq4567_RW	4	30	400	1	300	300	346	46	0	1	1	blank2r.bmp	0	1	+	0	1	blank2r.bmp	492	1	GWWG	492	1	blank2r.bmp	572	3	tot	866	1	!	1239	1	!	1252	0	0	0	0	0	0	0	0	0	0	0	0	0	0	0	0	0	0	0	0	0	0	0	0	0	0	0	0	0	0
071019	14:19:17	14:25:20	361891	5.0.10.0	5_exp_RW	43	Rpleas_acq	CS_B	BZZB	YDDY	GWWG	VKKV	MQQM	JXXJ	ehrlich	schön	treu	fair	spielen	retten	eitel	schlecht	tot	faul	strafen	rächen	1	acq_USpleas_CSpleas2_RW	acq4567_RW	4	31	400	1	300	300	348	50	0	1	1	blank2r.bmp	0	1	+	0	1	blank2r.bmp	492	1	YDDY	492	1	blank2r.bmp	572	2	spielen	866	1	!	1239	1	!	1252	0	0	0	0	0	0	0	0	0	0	0	0	0	0	0	0	0	0	0	0	0	0	0	0	0	0	0	0	0	0
071019	14:19:17	14:25:22	364117	5.0.10.0	5_exp_RW	43	Rpleas_acq	CS_B	BZZB	YDDY	GWWG	VKKV	MQQM	JXXJ	ehrlich	schön	treu	fair	spielen	retten	eitel	schlecht	tot	faul	strafen	rächen	1	acq_USunple_CSunple2_RW	acq4567_RW	4	32	400	1	300	300	433	46	0	1	1	blank2r.bmp	0	1	+	0	1	blank2r.bmp	492	1	VKKV	492	1	blank2r.bmp	572	3	rächen	866	1	!	1239	1	!	1332	0	0	0	0	0	0	0	0	0	0	0	0	0	0	0	0	0	0	0	0	0	0	0	0	0	0	0	0	0	0
071019	14:19:17	14:25:24	366343	5.0.10.0	5_exp_RW	43	Rpleas_acq	CS_B	BZZB	YDDY	GWWG	VKKV	MQQM	JXXJ	ehrlich	schön	treu	fair	spielen	retten	eitel	schlecht	tot	faul	strafen	rächen	1	acq_USpleas_CSpleas1_RW	acq4567_RW	4	33	400	1	300	300	427	50	0	1	1	blank2r.bmp	0	1	+	0	1	blank2r.bmp	492	1	BZZB	492	1	blank2r.bmp	572	3	treu	866	1	!	1239	1	!	1332	0	0	0	0	0	0	0	0	0	0	0	0	0	0	0	0	0	0	0	0	0	0	0	0	0	0	0	0	0	0
071019	14:19:17	14:25:27	368568	5.0.10.0	5_exp_RW	43	Rpleas_acq	CS_B	BZZB	YDDY	GWWG	VKKV	MQQM	JXXJ	ehrlich	schön	treu	fair	spielen	retten	eitel	schlecht	tot	faul	strafen	rächen	1	acq_USpleas_CSpleas1_RW	acq4567_RW	4	34	400	1	300	300	413	50	0	1	1	blank2r.bmp	0	1	+	0	1	blank2r.bmp	492	1	BZZB	492	1	blank2r.bmp	572	1	ehrlich	866	1	!	1239	1	!	1319	0	0	0	0	0	0	0	0	0	0	0	0	0	0	0	0	0	0	0	0	0	0	0	0	0	0	0	0	0	0
071019	14:19:17	14:25:29	370714	5.0.10.0	5_exp_RW	43	Rpleas_acq	CS_B	BZZB	YDDY	GWWG	VKKV	MQQM	JXXJ	ehrlich	schön	treu	fair	spielen	retten	eitel	schlecht	tot	faul	strafen	rächen	1	acq_USunple_CSunple1_RW	acq4567_RW	4	35	400	1	300	300	352	50	0	0	1	blank2r.bmp	0	1	+	0	1	blank2r.bmp	492	1	GWWG	492	1	blank2r.bmp	572	1	eitel	866	1	!	1239	1	!	1252	0	0	0	0	0	0	0	0	0	0	0	0	0	0	0	0	0	0	0	0	0	0	0	0	0	0	0	0	0	0
071019	14:19:17	14:25:31	372940	5.0.10.0	5_exp_RW	43	Rpleas_acq	CS_B	BZZB	YDDY	GWWG	VKKV	MQQM	JXXJ	ehrlich	schön	treu	fair	spielen	retten	eitel	schlecht	tot	faul	strafen	rächen	1	acq_USunple_CSunple2_RW	acq4567_RW	4	36	400	1	300	300	432	46	0	1	1	blank2r.bmp	0	1	+	0	1	blank2r.bmp	492	1	VKKV	492	1	blank2r.bmp	572	1	faul	866	1	!	1239	1	!	1332	0	0	0	0	0	0	0	0	0	0	0	0	0	0	0	0	0	0	0	0	0	0	0	0	0	0	0	0	0	0
071019	14:19:17	14:25:33	375232	5.0.10.0	5_exp_RW	43	Rpleas_acq	CS_B	BZZB	YDDY	GWWG	VKKV	MQQM	JXXJ	ehrlich	schön	treu	fair	spielen	retten	eitel	schlecht	tot	faul	strafen	rächen	1	acq_USpleas_CSpleas2_RW	acq4567_RW	4	37	400	0	300	300	510	50	0	1	1	blank2r.bmp	0	1	+	0	1	blank2r.bmp	492	1	YDDY	492	1	blank2r.bmp	572	3	retten	866	1	!	1239	1	!	-1	0	0	0	0	0	0	0	0	0	0	0	0	0	0	0	0	0	0	0	0	0	0	0	0	0	0	0	0	0	0
071019	14:19:17	14:25:35	377391	5.0.10.0	5_exp_RW	43	Rpleas_acq	CS_B	BZZB	YDDY	GWWG	VKKV	MQQM	JXXJ	ehrlich	schön	treu	fair	spielen	retten	eitel	schlecht	tot	faul	strafen	rächen	1	acq_USpleas_CSpleas1_RW	acq4567_RW	4	38	400	1	300	300	346	50	0	1	1	blank2r.bmp	0	1	+	0	1	blank2r.bmp	492	1	BZZB	492	1	blank2r.bmp	572	2	schön	866	1	!	1239	1	!	1252	0	0	0	0	0	0	0	0	0	0	0	0	0	0	0	0	0	0	0	0	0	0	0	0	0	0	0	0	0	0
071019	14:19:17	14:25:38	379631	5.0.10.0	5_exp_RW	43	Rpleas_acq	CS_B	BZZB	YDDY	GWWG	VKKV	MQQM	JXXJ	ehrlich	schön	treu	fair	spielen	retten	eitel	schlecht	tot	faul	strafen	rächen	1	acq_USpleas_CSpleas1_RW	acq4567_RW	4	39	400	1	300	300	438	50	0	1	1	blank2r.bmp	0	1	+	0	1	blank2r.bmp	492	1	BZZB	492	1	blank2r.bmp	572	3	treu	866	1	!	1239	1	!	1346	0	0	0	0	0	0	0	0	0	0	0	0	0	0	0	0	0	0	0	0	0	0	0	0	0	0	0	0	0	0
071019	14:19:17	14:25:40	381830	5.0.10.0	5_exp_RW	43	Rpleas_acq	CS_B	BZZB	YDDY	GWWG	VKKV	MQQM	JXXJ	ehrlich	schön	treu	fair	spielen	retten	eitel	schlecht	tot	faul	strafen	rächen	1	acq_USunple_CSunple1_RW	acq4567_RW	4	40	400	1	300	300	402	46	0	1	1	blank2r.bmp	0	1	+	0	1	blank2r.bmp	492	1	GWWG	492	1	blank2r.bmp	572	3	tot	866	1	!	1239	1	!	1306	0	0	0	0	0	0	0	0	0	0	0	0	0	0	0	0	0	0	0	0	0	0	0	0	0	0	0	0	0	0
071019	14:19:17	14:25:42	384042	5.0.10.0	5_exp_RW	43	Rpleas_acq	CS_B	BZZB	YDDY	GWWG	VKKV	MQQM	JXXJ	ehrlich	schön	treu	fair	spielen	retten	eitel	schlecht	tot	faul	strafen	rächen	1	acq_USunple_CSunple2_RW	acq4567_RW	4	41	400	1	300	300	420	46	0	1	1	blank2r.bmp	0	1	+	0	1	blank2r.bmp	492	1	VKKV	492	1	blank2r.bmp	572	2	strafen	866	1	!	1239	1	!	1319	0	0	0	0	0	0	0	0	0	0	0	0	0	0	0	0	0	0	0	0	0	0	0	0	0	0	0	0	0	0
071019	14:19:17	14:25:44	386268	5.0.10.0	5_exp_RW	43	Rpleas_acq	CS_B	BZZB	YDDY	GWWG	VKKV	MQQM	JXXJ	ehrlich	schön	treu	fair	spielen	retten	eitel	schlecht	tot	faul	strafen	rächen	1	acq_USpleas_CSpleas2_RW	acq4567_RW	4	42	400	1	300	300	426	50	0	1	1	blank2r.bmp	0	1	+	0	1	blank2r.bmp	492	1	YDDY	492	1	blank2r.bmp	572	1	fair	866	1	!	1239	1	!	1332	0	0	0	0	0	0	0	0	0	0	0	0	0	0	0	0	0	0	0	0	0	0	0	0	0	0	0	0	0	0
071019	14:19:17	14:25:46	388427	5.0.10.0	5_exp_RW	43	Rpleas_acq	CS_B	BZZB	YDDY	GWWG	VKKV	MQQM	JXXJ	ehrlich	schön	treu	fair	spielen	retten	eitel	schlecht	tot	faul	strafen	rächen	1	acq_USpleas_CSpleas1_RW	acq4567_RW	4	43	400	1	300	300	366	50	0	1	1	blank2r.bmp	0	1	+	0	1	blank2r.bmp	492	1	BZZB	492	1	blank2r.bmp	572	1	ehrlich	866	1	!	1239	1	!	1266	0	0	0	0	0	0	0	0	0	0	0	0	0	0	0	0	0	0	0	0	0	0	0	0	0	0	0	0	0	0
071019	14:19:17	14:25:49	390679	5.0.10.0	5_exp_RW	43	Rpleas_acq	CS_B	BZZB	YDDY	GWWG	VKKV	MQQM	JXXJ	ehrlich	schön	treu	fair	spielen	retten	eitel	schlecht	tot	faul	strafen	rächen	1	acq_USunple_CSunple1_RW	acq4567_RW	4	44	400	1	300	300	458	46	0	1	1	blank2r.bmp	0	1	+	0	1	blank2r.bmp	492	1	GWWG	492	1	blank2r.bmp	572	2	schlecht	866	1	!	1239	1	!	1359	0	0	0	0	0	0	0	0	0	0	0	0	0	0	0	0	0	0	0	0	0	0	0	0	0	0	0	0	0	0
071019	14:19:17	14:25:51	392905	5.0.10.0	5_exp_RW	43	Rpleas_acq	CS_B	BZZB	YDDY	GWWG	VKKV	MQQM	JXXJ	ehrlich	schön	treu	fair	spielen	retten	eitel	schlecht	tot	faul	strafen	rächen	1	acq_USpleas_CSpleas2_RW	acq4567_RW	4	45	400	1	300	300	438	50	0	1	1	blank2r.bmp	0	1	+	0	1	blank2r.bmp	492	1	YDDY	492	1	blank2r.bmp	572	1	fair	866	1	!	1239	1	!	1332	0	0	0	0	0	0	0	0	0	0	0	0	0	0	0	0	0	0	0	0	0	0	0	0	0	0	0	0	0	0
071019	14:19:17	14:25:53	395104	5.0.10.0	5_exp_RW	43	Rpleas_acq	CS_B	BZZB	YDDY	GWWG	VKKV	MQQM	JXXJ	ehrlich	schön	treu	fair	spielen	retten	eitel	schlecht	tot	faul	strafen	rächen	1	acq_USunple_CSunple2_RW	acq4567_RW	4	46	400	1	300	300	405	46	0	1	1	blank2r.bmp	0	1	+	0	1	blank2r.bmp	492	1	VKKV	492	1	blank2r.bmp	572	3	rächen	866	1	!	1239	1	!	1306	0	0	0	0	0	0	0	0	0	0	0	0	0	0	0	0	0	0	0	0	0	0	0	0	0	0	0	0	0	0
071019	14:19:17	14:25:55	397357	5.0.10.0	5_exp_RW	43	Rpleas_acq	CS_B	BZZB	YDDY	GWWG	VKKV	MQQM	JXXJ	ehrlich	schön	treu	fair	spielen	retten	eitel	schlecht	tot	faul	strafen	rächen	1	acq_USunple_CSunple1_RW	acq4567_RW	4	47	400	1	300	300	464	46	0	1	1	blank2r.bmp	0	1	+	0	1	blank2r.bmp	492	1	GWWG	492	1	blank2r.bmp	572	2	schlecht	866	1	!	1239	1	!	1359	0	0	0	0	0	0	0	0	0	0	0	0	0	0	0	0	0	0	0	0	0	0	0	0	0	0	0	0	0	0
071019	14:19:17	14:25:57	399502	5.0.10.0	5_exp_RW	43	Rpleas_acq	CS_B	BZZB	YDDY	GWWG	VKKV	MQQM	JXXJ	ehrlich	schön	treu	fair	spielen	retten	eitel	schlecht	tot	faul	strafen	rächen	1	acq_USpleas_CSpleas1_RW	acq4567_RW	4	48	400	1	300	300	353	50	0	1	1	blank2r.bmp	0	1	+	0	1	blank2r.bmp	492	1	BZZB	492	1	blank2r.bmp	572	3	treu	866	1	!	1239	1	!	1252	0	0	0	0	0	0	0	0	0	0	0	0	0	0	0	0	0	0	0	0	0	0	0	0	0	0	0	0	0	0
071019	14:19:17	14:26:00	401701	5.0.10.0	5_exp_RW	43	Rpleas_acq	CS_B	BZZB	YDDY	GWWG	VKKV	MQQM	JXXJ	ehrlich	schön	treu	fair	spielen	retten	eitel	schlecht	tot	faul	strafen	rächen	1	acq_USpleas_CSpleas1_RW	acq4567_RW	4	49	400	1	300	300	399	50	0	1	1	blank2r.bmp	0	1	+	0	1	blank2r.bmp	492	1	BZZB	492	1	blank2r.bmp	572	1	ehrlich	866	1	!	1239	1	!	1306	0	0	0	0	0	0	0	0	0	0	0	0	0	0	0	0	0	0	0	0	0	0	0	0	0	0	0	0	0	0
071019	14:19:17	14:26:02	403794	5.0.10.0	5_exp_RW	43	Rpleas_acq	CS_B	BZZB	YDDY	GWWG	VKKV	MQQM	JXXJ	ehrlich	schön	treu	fair	spielen	retten	eitel	schlecht	tot	faul	strafen	rächen	1	acq_USpleas_CSpleas2_RW	acq4567_RW	4	50	400	0	300	300	325	46	0	0	1	blank2r.bmp	0	1	+	0	1	blank2r.bmp	492	1	YDDY	492	1	blank2r.bmp	572	3	retten	866	1	!	-1	1	!	-1	0	0	0	0	0	0	0	0	0	0	0	0	0	0	0	0	0	0	0	0	0	0	0	0	0	0	0	0	0	0
071019	14:19:17	14:26:04	406006	5.0.10.0	5_exp_RW	43	Rpleas_acq	CS_B	BZZB	YDDY	GWWG	VKKV	MQQM	JXXJ	ehrlich	schön	treu	fair	spielen	retten	eitel	schlecht	tot	faul	strafen	rächen	1	acq_USpleas_CSpleas2_RW	acq4567_RW	4	51	400	1	300	300	408	50	0	1	1	blank2r.bmp	0	1	+	0	1	blank2r.bmp	492	1	YDDY	492	1	blank2r.bmp	572	2	spielen	866	1	!	1239	1	!	1306	0	0	0	0	0	0	0	0	0	0	0	0	0	0	0	0	0	0	0	0	0	0	0	0	0	0	0	0	0	0
071019	14:19:17	14:26:06	408299	5.0.10.0	5_exp_RW	43	Rpleas_acq	CS_B	BZZB	YDDY	GWWG	VKKV	MQQM	JXXJ	ehrlich	schön	treu	fair	spielen	retten	eitel	schlecht	tot	faul	strafen	rächen	1	acq_USunple_CSunple2_RW	acq4567_RW	4	52	400	0	300	300	527	46	0	1	1	blank2r.bmp	0	1	+	0	1	blank2r.bmp	492	1	VKKV	492	1	blank2r.bmp	572	2	strafen	866	1	!	1239	1	!	-1	0	0	0	0	0	0	0	0	0	0	0	0	0	0	0	0	0	0	0	0	0	0	0	0	0	0	0	0	0	0
071019	14:19:17	14:26:08	410498	5.0.10.0	5_exp_RW	43	Rpleas_acq	CS_B	BZZB	YDDY	GWWG	VKKV	MQQM	JXXJ	ehrlich	schön	treu	fair	spielen	retten	eitel	schlecht	tot	faul	strafen	rächen	1	acq_USpleas_CSpleas2_RW	acq4567_RW	4	53	400	1	300	300	389	50	0	1	1	blank2r.bmp	0	1	+	0	1	blank2r.bmp	492	1	YDDY	492	1	blank2r.bmp	572	2	spielen	866	1	!	1239	1	!	1292	0	0	0	0	0	0	0	0	0	0	0	0	0	0	0	0	0	0	0	0	0	0	0	0	0	0	0	0	0	0
071019	14:19:17	14:26:11	412750	5.0.10.0	5_exp_RW	43	Rpleas_acq	CS_B	BZZB	YDDY	GWWG	VKKV	MQQM	JXXJ	ehrlich	schön	treu	fair	spielen	retten	eitel	schlecht	tot	faul	strafen	rächen	1	acq_USunple_CSunple1_RW	acq4567_RW	4	54	400	0	300	300	479	46	0	1	1	blank2r.bmp	0	1	+	0	1	blank2r.bmp	492	1	GWWG	492	1	blank2r.bmp	572	3	tot	866	1	!	1239	1	!	-1	0	0	0	0	0	0	0	0	0	0	0	0	0	0	0	0	0	0	0	0	0	0	0	0	0	0	0	0	0	0
071019	14:19:17	14:26:13	414936	5.0.10.0	5_exp_RW	43	Rpleas_acq	CS_B	BZZB	YDDY	GWWG	VKKV	MQQM	JXXJ	ehrlich	schön	treu	fair	spielen	retten	eitel	schlecht	tot	faul	strafen	rächen	1	acq_USunple_CSunple1_RW	acq4567_RW	4	55	400	1	300	300	384	50	0	0	1	blank2r.bmp	0	1	+	0	1	blank2r.bmp	492	1	GWWG	492	1	blank2r.bmp	572	1	eitel	866	1	!	1239	1	!	1279	0	0	0	0	0	0	0	0	0	0	0	0	0	0	0	0	0	0	0	0	0	0	0	0	0	0	0	0	0	0
071019	14:19:17	14:26:15	417042	5.0.10.0	5_exp_RW	43	Rpleas_acq	CS_B	BZZB	YDDY	GWWG	VKKV	MQQM	JXXJ	ehrlich	schön	treu	fair	spielen	retten	eitel	schlecht	tot	faul	strafen	rächen	1	acq_USpleas_CSpleas1_RW	acq4567_RW	4	56	400	0	300	300	328	50	0	1	1	blank2r.bmp	0	1	+	0	1	blank2r.bmp	492	1	BZZB	492	1	blank2r.bmp	572	2	schön	866	1	!	-1	1	!	-1	0	0	0	0	0	0	0	0	0	0	0	0	0	0	0	0	0	0	0	0	0	0	0	0	0	0	0	0	0	0
071019	14:19:17	14:26:17	419334	5.0.10.0	5_exp_RW	43	Rpleas_acq	CS_B	BZZB	YDDY	GWWG	VKKV	MQQM	JXXJ	ehrlich	schön	treu	fair	spielen	retten	eitel	schlecht	tot	faul	strafen	rächen	1	acq_USpleas_CSpleas1_RW	acq4567_RW	4	57	400	0	300	300	516	50	0	1	1	blank2r.bmp	0	1	+	0	1	blank2r.bmp	492	1	BZZB	492	1	blank2r.bmp	572	2	schön	866	1	!	1239	1	!	-1	0	0	0	0	0	0	0	0	0	0	0	0	0	0	0	0	0	0	0	0	0	0	0	0	0	0	0	0	0	0
071019	14:19:17	14:26:20	421587	5.0.10.0	5_exp_RW	43	Rpleas_acq	CS_B	BZZB	YDDY	GWWG	VKKV	MQQM	JXXJ	ehrlich	schön	treu	fair	spielen	retten	eitel	schlecht	tot	faul	strafen	rächen	1	acq_USunple_CSunple2_RW	acq4567_RW	4	58	400	1	300	300	445	46	0	1	1	blank2r.bmp	0	1	+	0	1	blank2r.bmp	492	1	VKKV	492	1	blank2r.bmp	572	1	faul	866	1	!	1239	1	!	1346	0	0	0	0	0	0	0	0	0	0	0	0	0	0	0	0	0	0	0	0	0	0	0	0	0	0	0	0	0	0
071019	14:19:17	14:26:22	423839	5.0.10.0	5_exp_RW	43	Rpleas_acq	CS_B	BZZB	YDDY	GWWG	VKKV	MQQM	JXXJ	ehrlich	schön	treu	fair	spielen	retten	eitel	schlecht	tot	faul	strafen	rächen	1	acq_USunple_CSunple1_RW	acq4567_RW	4	59	400	1	300	300	453	46	0	1	1	blank2r.bmp	0	1	+	0	1	blank2r.bmp	492	1	GWWG	492	1	blank2r.bmp	572	3	tot	866	1	!	1239	1	!	1359	0	0	0	0	0	0	0	0	0	0	0	0	0	0	0	0	0	0	0	0	0	0	0	0	0	0	0	0	0	0
071019	14:19:17	14:26:24	425932	5.0.10.0	5_exp_RW	43	Rpleas_acq	CS_B	BZZB	YDDY	GWWG	VKKV	MQQM	JXXJ	ehrlich	schön	treu	fair	spielen	retten	eitel	schlecht	tot	faul	strafen	rächen	1	acq_USunple_CSunple2_RW	acq4567_RW	4	60	400	0	300	300	325	46	0	1	1	blank2r.bmp	0	1	+	0	1	blank2r.bmp	492	1	VKKV	492	1	blank2r.bmp	572	1	faul	866	1	!	-1	1	!	-1	0	0	0	0	0	0	0	0	0	0	0	0	0	0	0	0	0	0	0	0	0	0	0	0	0	0	0	0	0	0
071019	14:19:17	14:26:26	428184	5.0.10.0	5_exp_RW	43	Rpleas_acq	CS_B	BZZB	YDDY	GWWG	VKKV	MQQM	JXXJ	ehrlich	schön	treu	fair	spielen	retten	eitel	schlecht	tot	faul	strafen	rächen	1	acq_USpleas_CSpleas2_RW	acq4567_RW	4	61	400	1	300	300	445	50	0	1	1	blank2r.bmp	0	1	+	0	1	blank2r.bmp	492	1	YDDY	492	1	blank2r.bmp	572	1	fair	866	1	!	1239	1	!	1346	0	0	0	0	0	0	0	0	0	0	0	0	0	0	0	0	0	0	0	0	0	0	0	0	0	0	0	0	0	0
071019	14:19:17	14:26:28	430436	5.0.10.0	5_exp_RW	43	Rpleas_acq	CS_B	BZZB	YDDY	GWWG	VKKV	MQQM	JXXJ	ehrlich	schön	treu	fair	spielen	retten	eitel	schlecht	tot	faul	strafen	rächen	1	acq_USpleas_CSpleas1_RW	acq4567_RW	4	62	400	0	300	300	479	50	0	1	1	blank2r.bmp	0	1	+	0	1	blank2r.bmp	492	1	BZZB	492	1	blank2r.bmp	572	3	treu	866	1	!	1239	1	!	-1	0	0	0	0	0	0	0	0	0	0	0	0	0	0	0	0	0	0	0	0	0	0	0	0	0	0	0	0	0	0
071019	14:19:17	14:26:31	432715	5.0.10.0	5_exp_RW	43	Rpleas_acq	CS_B	BZZB	YDDY	GWWG	VKKV	MQQM	JXXJ	ehrlich	schön	treu	fair	spielen	retten	eitel	schlecht	tot	faul	strafen	rächen	1	acq_USpleas_CSpleas2_RW	acq4567_RW	4	63	400	0	300	300	493	50	0	1	1	blank2r.bmp	0	1	+	0	1	blank2r.bmp	492	1	YDDY	492	1	blank2r.bmp	572	3	retten	866	1	!	1239	1	!	-1	0	0	0	0	0	0	0	0	0	0	0	0	0	0	0	0	0	0	0	0	0	0	0	0	0	0	0	0	0	0
071019	14:19:17	14:26:33	434941	5.0.10.0	5_exp_RW	43	Rpleas_acq	CS_B	BZZB	YDDY	GWWG	VKKV	MQQM	JXXJ	ehrlich	schön	treu	fair	spielen	retten	eitel	schlecht	tot	faul	strafen	rächen	1	acq_USpleas_CSpleas2_RW	acq4567_RW	4	64	400	1	300	300	412	50	0	1	1	blank2r.bmp	0	1	+	0	1	blank2r.bmp	492	1	YDDY	492	1	blank2r.bmp	572	3	retten	866	1	!	1239	1	!	1319	0	0	0	0	0	0	0	0	0	0	0	0	0	0	0	0	0	0	0	0	0	0	0	0	0	0	0	0	0	0
071019	14:19:17	14:26:35	437100	5.0.10.0	5_exp_RW	43	Rpleas_acq	CS_B	BZZB	YDDY	GWWG	VKKV	MQQM	JXXJ	ehrlich	schön	treu	fair	spielen	retten	eitel	schlecht	tot	faul	strafen	rächen	1	acq_USunple_CSunple1_RW	acq4567_RW	4	65	400	1	300	300	369	46	0	1	1	blank2r.bmp	0	1	+	0	1	blank2r.bmp	492	1	GWWG	492	1	blank2r.bmp	572	2	schlecht	866	1	!	1239	1	!	1266	0	0	0	0	0	0	0	0	0	0	0	0	0	0	0	0	0	0	0	0	0	0	0	0	0	0	0	0	0	0
071019	14:19:17	14:26:37	439353	5.0.10.0	5_exp_RW	43	Rpleas_acq	CS_B	BZZB	YDDY	GWWG	VKKV	MQQM	JXXJ	ehrlich	schön	treu	fair	spielen	retten	eitel	schlecht	tot	faul	strafen	rächen	1	acq_USpleas_CSpleas1_RW	acq4567_RW	4	66	400	0	300	300	488	50	0	1	1	blank2r.bmp	0	1	+	0	1	blank2r.bmp	492	1	BZZB	492	1	blank2r.bmp	572	1	ehrlich	866	1	!	1239	1	!	-1	0	0	0	0	0	0	0	0	0	0	0	0	0	0	0	0	0	0	0	0	0	0	0	0	0	0	0	0	0	0
071019	14:19:17	14:26:40	441552	5.0.10.0	5_exp_RW	43	Rpleas_acq	CS_B	BZZB	YDDY	GWWG	VKKV	MQQM	JXXJ	ehrlich	schön	treu	fair	spielen	retten	eitel	schlecht	tot	faul	strafen	rächen	1	acq_USunple_CSunple1_RW	acq4567_RW	4	67	400	1	300	300	384	50	0	0	1	blank2r.bmp	0	1	+	0	1	blank2r.bmp	492	1	GWWG	492	1	blank2r.bmp	572	1	eitel	866	1	!	1239	1	!	1279	0	0	0	0	0	0	0	0	0	0	0	0	0	0	0	0	0	0	0	0	0	0	0	0	0	0	0	0	0	0
071019	14:19:17	14:26:42	443764	5.0.10.0	5_exp_RW	43	Rpleas_acq	CS_B	BZZB	YDDY	GWWG	VKKV	MQQM	JXXJ	ehrlich	schön	treu	fair	spielen	retten	eitel	schlecht	tot	faul	strafen	rächen	1	acq_USpleas_CSpleas1_RW	acq4567_RW	4	68	400	1	300	300	416	50	0	1	1	blank2r.bmp	0	1	+	0	1	blank2r.bmp	492	1	BZZB	492	1	blank2r.bmp	572	1	ehrlich	866	1	!	1239	1	!	1319	0	0	0	0	0	0	0	0	0	0	0	0	0	0	0	0	0	0	0	0	0	0	0	0	0	0	0	0	0	0
071019	14:19:17	14:26:44	445977	5.0.10.0	5_exp_RW	43	Rpleas_acq	CS_B	BZZB	YDDY	GWWG	VKKV	MQQM	JXXJ	ehrlich	schön	treu	fair	spielen	retten	eitel	schlecht	tot	faul	strafen	rächen	1	acq_USunple_CSunple1_RW	acq4567_RW	4	69	400	1	300	300	399	46	0	1	1	blank2r.bmp	0	1	+	0	1	blank2r.bmp	492	1	GWWG	492	1	blank2r.bmp	572	3	tot	866	1	!	1239	1	!	1306	0	0	0	0	0	0	0	0	0	0	0	0	0	0	0	0	0	0	0	0	0	0	0	0	0	0	0	0	0	0
071019	14:19:17	14:26:46	448509	5.0.10.0	5_exp_RW	43	Rpleas_acq	CS_B	BZZB	YDDY	GWWG	VKKV	MQQM	JXXJ	ehrlich	schön	treu	fair	spielen	retten	eitel	schlecht	tot	faul	strafen	rächen	1	acq_USunple_CSunple1_RW	acq4567_RW	4	70	400	0	300	300	761	46	0	1	1	blank2r.bmp	0	1	+	0	1	blank2r.bmp	492	1	GWWG	492	1	blank2r.bmp	572	1	eitel	866	1	!	1239	1	!	-1	0	0	0	0	0	0	0	0	0	0	0	0	0	0	0	0	0	0	0	0	0	0	0	0	0	0	0	0	0	0
071019	14:19:17	14:26:49	450681	5.0.10.0	5_exp_RW	43	Rpleas_acq	CS_B	BZZB	YDDY	GWWG	VKKV	MQQM	JXXJ	ehrlich	schön	treu	fair	spielen	retten	eitel	schlecht	tot	faul	strafen	rächen	1	acq_USpleas_CSpleas2_RW	acq4567_RW	4	71	400	1	300	300	353	50	0	1	1	blank2r.bmp	0	1	+	0	1	blank2r.bmp	492	1	YDDY	492	1	blank2r.bmp	572	2	spielen	866	1	!	1239	1	!	1252	0	0	0	0	0	0	0	0	0	0	0	0	0	0	0	0	0	0	0	0	0	0	0	0	0	0	0	0	0	0
071019	14:19:17	14:26:51	452947	5.0.10.0	5_exp_RW	43	Rpleas_acq	CS_B	BZZB	YDDY	GWWG	VKKV	MQQM	JXXJ	ehrlich	schön	treu	fair	spielen	retten	eitel	schlecht	tot	faul	strafen	rächen	1	acq_USpleas_CSpleas2_RW	acq4567_RW	4	72	400	0	300	300	495	50	0	1	1	blank2r.bmp	0	1	+	0	1	blank2r.bmp	492	1	YDDY	492	1	blank2r.bmp	572	1	fair	866	1	!	1239	1	!	-1	0	0	0	0	0	0	0	0	0	0	0	0	0	0	0	0	0	0	0	0	0	0	0	0	0	0	0	0	0	0
071019	14:19:17	14:26:53	455213	5.0.10.0	5_exp_RW	43	Rpleas_acq	CS_B	BZZB	YDDY	GWWG	VKKV	MQQM	JXXJ	ehrlich	schön	treu	fair	spielen	retten	eitel	schlecht	tot	faul	strafen	rächen	1	acq_USunple_CSunple2_RW	acq4567_RW	4	73	400	1	300	300	465	46	0	1	1	blank2r.bmp	0	1	+	0	1	blank2r.bmp	492	1	VKKV	492	1	blank2r.bmp	572	3	rächen	866	1	!	1239	1	!	1359	0	0	0	0	0	0	0	0	0	0	0	0	0	0	0	0	0	0	0	0	0	0	0	0	0	0	0	0	0	0
071019	14:19:17	14:26:56	457625	5.0.10.0	5_exp_RW	43	Rpleas_acq	CS_B	BZZB	YDDY	GWWG	VKKV	MQQM	JXXJ	ehrlich	schön	treu	fair	spielen	retten	eitel	schlecht	tot	faul	strafen	rächen	1	acq_USunple_CSunple2_RW	acq4567_RW	4	74	400	0	300	300	627	46	0	1	1	blank2r.bmp	0	1	+	0	1	blank2r.bmp	492	1	VKKV	492	1	blank2r.bmp	572	2	strafen	866	1	!	1239	1	!	-1	0	0	0	0	0	0	0	0	0	0	0	0	0	0	0	0	0	0	0	0	0	0	0	0	0	0	0	0	0	0
071019	14:19:17	14:26:58	459904	5.0.10.0	5_exp_RW	43	Rpleas_acq	CS_B	BZZB	YDDY	GWWG	VKKV	MQQM	JXXJ	ehrlich	schön	treu	fair	spielen	retten	eitel	schlecht	tot	faul	strafen	rächen	1	acq_USpleas_CSpleas1_RW	acq4567_RW	4	75	400	0	300	300	503	50	0	1	1	blank2r.bmp	0	1	+	0	1	blank2r.bmp	492	1	BZZB	492	1	blank2r.bmp	572	2	schön	866	1	!	1239	1	!	-1	0	0	0	0	0	0	0	0	0	0	0	0	0	0	0	0	0	0	0	0	0	0	0	0	0	0	0	0	0	0
071019	14:19:17	14:27:00	462183	5.0.10.0	5_exp_RW	43	Rpleas_acq	CS_B	BZZB	YDDY	GWWG	VKKV	MQQM	JXXJ	ehrlich	schön	treu	fair	spielen	retten	eitel	schlecht	tot	faul	strafen	rächen	1	acq_USunple_CSunple2_RW	acq4567_RW	4	76	400	0	300	300	495	46	0	1	1	blank2r.bmp	0	1	+	0	1	blank2r.bmp	492	1	VKKV	492	1	blank2r.bmp	572	2	strafen	866	1	!	1239	1	!	-1	0	0	0	0	0	0	0	0	0	0	0	0	0	0	0	0	0	0	0	0	0	0	0	0	0	0	0	0	0	0
071019	14:19:17	14:27:02	464476	5.0.10.0	5_exp_RW	43	Rpleas_acq	CS_B	BZZB	YDDY	GWWG	VKKV	MQQM	JXXJ	ehrlich	schön	treu	fair	spielen	retten	eitel	schlecht	tot	faul	strafen	rächen	1	acq_USunple_CSunple2_RW	acq4567_RW	4	77	400	0	300	300	511	46	0	1	1	blank2r.bmp	0	1	+	0	1	blank2r.bmp	492	1	VKKV	492	1	blank2r.bmp	572	3	rächen	866	1	!	1239	1	!	-1	0	0	0	0	0	0	0	0	0	0	0	0	0	0	0	0	0	0	0	0	0	0	0	0	0	0	0	0	0	0
071019	14:19:17	14:27:05	466702	5.0.10.0	5_exp_RW	43	Rpleas_acq	CS_B	BZZB	YDDY	GWWG	VKKV	MQQM	JXXJ	ehrlich	schön	treu	fair	spielen	retten	eitel	schlecht	tot	faul	strafen	rächen	1	acq_USunple_CSunple1_RW	acq4567_RW	4	78	400	1	300	300	424	46	0	1	1	blank2r.bmp	0	1	+	0	1	blank2r.bmp	492	1	GWWG	492	1	blank2r.bmp	572	2	schlecht	866	1	!	1239	1	!	1319	0	0	0	0	0	0	0	0	0	0	0	0	0	0	0	0	0	0	0	0	0	0	0	0	0	0	0	0	0	0
071019	14:19:17	14:27:07	468914	5.0.10.0	5_exp_RW	43	Rpleas_acq	CS_B	BZZB	YDDY	GWWG	VKKV	MQQM	JXXJ	ehrlich	schön	treu	fair	spielen	retten	eitel	schlecht	tot	faul	strafen	rächen	1	acq_USunple_CSunple2_RW	acq4567_RW	4	79	400	1	300	300	415	46	0	1	1	blank2r.bmp	0	1	+	0	1	blank2r.bmp	492	1	VKKV	492	1	blank2r.bmp	572	1	faul	866	1	!	1239	1	!	1319	0	0	0	0	0	0	0	0	0	0	0	0	0	0	0	0	0	0	0	0	0	0	0	0	0	0	0	0	0	0
071019	14:19:17	14:27:09	471193	5.0.10.0	5_exp_RW	43	Rpleas_acq	CS_B	BZZB	YDDY	GWWG	VKKV	MQQM	JXXJ	ehrlich	schön	treu	fair	spielen	retten	eitel	schlecht	tot	faul	strafen	rächen	1	acq_USpleas_CSpleas1_RW	acq4567_RW	4	80	400	0	300	300	517	50	0	1	1	blank2r.bmp	0	1	+	0	1	blank2r.bmp	492	1	BZZB	492	1	blank2r.bmp	572	3	treu	866	1	!	1239	1	!	-1	0	0	0	0	0	0	0	0	0	0	0	0	0	0	0	0	0	0	0	0	0	0	0	0	0	0	0	0	0	0
071019	14:19:17	14:27:24	486040	5.0.10.0	5_exp_RW	43	Rpleas_acq	CS_B	BZZB	YDDY	GWWG	VKKV	MQQM	JXXJ	ehrlich	schön	treu	fair	spielen	retten	eitel	schlecht	tot	faul	strafen	rächen	1	acq_USpleas_CSpleas2_RW	acq4567_RW	5	1	400	0	300	300	518	50	0	1	1	blank2r.bmp	0	1	+	0	1	blank2r.bmp	492	1	YDDY	492	1	blank2r.bmp	572	2	spielen	866	1	!	1239	1	!	-1	0	0	0	0	0	0	0	0	0	0	0	0	0	0	0	0	0	0	0	0	0	0	0	0	0	0	0	0	0	0
071019	14:19:17	14:27:26	488306	5.0.10.0	5_exp_RW	43	Rpleas_acq	CS_B	BZZB	YDDY	GWWG	VKKV	MQQM	JXXJ	ehrlich	schön	treu	fair	spielen	retten	eitel	schlecht	tot	faul	strafen	rächen	1	acq_USunple_CSunple1_RW	acq4567_RW	5	2	400	0	300	300	479	50	0	0	1	blank2r.bmp	0	1	+	0	1	blank2r.bmp	492	1	GWWG	492	1	blank2r.bmp	572	1	eitel	866	1	!	1239	1	!	-1	0	0	0	0	0	0	0	0	0	0	0	0	0	0	0	0	0	0	0	0	0	0	0	0	0	0	0	0	0	0
071019	14:19:17	14:27:29	490572	5.0.10.0	5_exp_RW	43	Rpleas_acq	CS_B	BZZB	YDDY	GWWG	VKKV	MQQM	JXXJ	ehrlich	schön	treu	fair	spielen	retten	eitel	schlecht	tot	faul	strafen	rächen	1	acq_USunple_CSunple1_RW	acq4567_RW	5	3	400	1	300	300	452	46	0	1	1	blank2r.bmp	0	1	+	0	1	blank2r.bmp	492	1	GWWG	492	1	blank2r.bmp	572	2	schlecht	866	1	!	1239	1	!	1359	0	0	0	0	0	0	0	0	0	0	0	0	0	0	0	0	0	0	0	0	0	0	0	0	0	0	0	0	0	0
071019	14:19:17	14:27:31	492824	5.0.10.0	5_exp_RW	43	Rpleas_acq	CS_B	BZZB	YDDY	GWWG	VKKV	MQQM	JXXJ	ehrlich	schön	treu	fair	spielen	retten	eitel	schlecht	tot	faul	strafen	rächen	1	acq_USpleas_CSpleas1_RW	acq4567_RW	5	4	400	0	300	300	485	50	0	1	1	blank2r.bmp	0	1	+	0	1	blank2r.bmp	492	1	BZZB	492	1	blank2r.bmp	572	1	ehrlich	866	1	!	1239	1	!	-1	0	0	0	0	0	0	0	0	0	0	0	0	0	0	0	0	0	0	0	0	0	0	0	0	0	0	0	0	0	0
071019	14:19:17	14:27:33	495063	5.0.10.0	5_exp_RW	43	Rpleas_acq	CS_B	BZZB	YDDY	GWWG	VKKV	MQQM	JXXJ	ehrlich	schön	treu	fair	spielen	retten	eitel	schlecht	tot	faul	strafen	rächen	1	acq_USpleas_CSpleas1_RW	acq4567_RW	5	5	400	1	300	300	437	50	0	1	1	blank2r.bmp	0	1	+	0	1	blank2r.bmp	492	1	BZZB	492	1	blank2r.bmp	572	3	treu	866	1	!	1239	1	!	1332	0	0	0	0	0	0	0	0	0	0	0	0	0	0	0	0	0	0	0	0	0	0	0	0	0	0	0	0	0	0
071019	14:19:17	14:27:35	497382	5.0.10.0	5_exp_RW	43	Rpleas_acq	CS_B	BZZB	YDDY	GWWG	VKKV	MQQM	JXXJ	ehrlich	schön	treu	fair	spielen	retten	eitel	schlecht	tot	faul	strafen	rächen	1	acq_USunple_CSunple1_RW	acq4567_RW	5	6	400	0	300	300	547	46	0	1	1	blank2r.bmp	0	1	+	0	1	blank2r.bmp	492	1	GWWG	492	1	blank2r.bmp	572	3	tot	866	1	!	1239	1	!	-1	0	0	0	0	0	0	0	0	0	0	0	0	0	0	0	0	0	0	0	0	0	0	0	0	0	0	0	0	0	0
071019	14:19:17	14:27:38	499621	5.0.10.0	5_exp_RW	43	Rpleas_acq	CS_B	BZZB	YDDY	GWWG	VKKV	MQQM	JXXJ	ehrlich	schön	treu	fair	spielen	retten	eitel	schlecht	tot	faul	strafen	rächen	1	acq_USunple_CSunple1_RW	acq4567_RW	5	7	400	1	300	300	420	46	0	1	1	blank2r.bmp	0	1	+	0	1	blank2r.bmp	492	1	GWWG	492	1	blank2r.bmp	572	3	tot	866	1	!	1239	1	!	1319	0	0	0	0	0	0	0	0	0	0	0	0	0	0	0	0	0	0	0	0	0	0	0	0	0	0	0	0	0	0
071019	14:19:17	14:27:40	501820	5.0.10.0	5_exp_RW	43	Rpleas_acq	CS_B	BZZB	YDDY	GWWG	VKKV	MQQM	JXXJ	ehrlich	schön	treu	fair	spielen	retten	eitel	schlecht	tot	faul	strafen	rächen	1	acq_USunple_CSunple2_RW	acq4567_RW	5	8	400	1	300	300	410	46	0	1	1	blank2r.bmp	0	1	+	0	1	blank2r.bmp	492	1	VKKV	492	1	blank2r.bmp	572	2	strafen	866	1	!	1239	1	!	1306	0	0	0	0	0	0	0	0	0	0	0	0	0	0	0	0	0	0	0	0	0	0	0	0	0	0	0	0	0	0
071019	14:19:17	14:27:42	503993	5.0.10.0	5_exp_RW	43	Rpleas_acq	CS_B	BZZB	YDDY	GWWG	VKKV	MQQM	JXXJ	ehrlich	schön	treu	fair	spielen	retten	eitel	schlecht	tot	faul	strafen	rächen	1	acq_USpleas_CSpleas1_RW	acq4567_RW	5	9	400	1	300	300	374	50	0	1	1	blank2r.bmp	0	1	+	0	1	blank2r.bmp	492	1	BZZB	492	1	blank2r.bmp	572	2	schön	866	1	!	1239	1	!	1279	0	0	0	0	0	0	0	0	0	0	0	0	0	0	0	0	0	0	0	0	0	0	0	0	0	0	0	0	0	0
071019	14:19:17	14:27:45	506592	5.0.10.0	5_exp_RW	43	Rpleas_acq	CS_B	BZZB	YDDY	GWWG	VKKV	MQQM	JXXJ	ehrlich	schön	treu	fair	spielen	retten	eitel	schlecht	tot	faul	strafen	rächen	1	acq_USpleas_CSpleas1_RW	acq4567_RW	5	10	400	0	300	300	836	50	0	1	1	blank2r.bmp	0	1	+	0	1	blank2r.bmp	492	1	BZZB	492	1	blank2r.bmp	572	3	treu	866	1	!	1239	1	!	-1	0	0	0	0	0	0	0	0	0	0	0	0	0	0	0	0	0	0	0	0	0	0	0	0	0	0	0	0	0	0
071019	14:19:17	14:27:47	508858	5.0.10.0	5_exp_RW	43	Rpleas_acq	CS_B	BZZB	YDDY	GWWG	VKKV	MQQM	JXXJ	ehrlich	schön	treu	fair	spielen	retten	eitel	schlecht	tot	faul	strafen	rächen	1	acq_USunple_CSunple2_RW	acq4567_RW	5	11	400	0	300	300	479	46	0	1	1	blank2r.bmp	0	1	+	0	1	blank2r.bmp	492	1	VKKV	492	1	blank2r.bmp	572	1	faul	866	1	!	1239	1	!	-1	0	0	0	0	0	0	0	0	0	0	0	0	0	0	0	0	0	0	0	0	0	0	0	0	0	0	0	0	0	0
071019	14:19:17	14:27:49	511057	5.0.10.0	5_exp_RW	43	Rpleas_acq	CS_B	BZZB	YDDY	GWWG	VKKV	MQQM	JXXJ	ehrlich	schön	treu	fair	spielen	retten	eitel	schlecht	tot	faul	strafen	rächen	1	acq_USpleas_CSpleas2_RW	acq4567_RW	5	12	400	1	300	300	389	50	0	1	1	blank2r.bmp	0	1	+	0	1	blank2r.bmp	492	1	YDDY	492	1	blank2r.bmp	572	1	fair	866	1	!	1239	1	!	1292	0	0	0	0	0	0	0	0	0	0	0	0	0	0	0	0	0	0	0	0	0	0	0	0	0	0	0	0	0	0
071019	14:19:17	14:27:51	513256	5.0.10.0	5_exp_RW	43	Rpleas_acq	CS_B	BZZB	YDDY	GWWG	VKKV	MQQM	JXXJ	ehrlich	schön	treu	fair	spielen	retten	eitel	schlecht	tot	faul	strafen	rächen	1	acq_USunple_CSunple2_RW	acq4567_RW	5	13	400	1	300	300	410	46	0	1	1	blank2r.bmp	0	1	+	0	1	blank2r.bmp	492	1	VKKV	492	1	blank2r.bmp	572	3	rächen	866	1	!	1239	1	!	1306	0	0	0	0	0	0	0	0	0	0	0	0	0	0	0	0	0	0	0	0	0	0	0	0	0	0	0	0	0	0
071019	14:19:17	14:27:54	515642	5.0.10.0	5_exp_RW	43	Rpleas_acq	CS_B	BZZB	YDDY	GWWG	VKKV	MQQM	JXXJ	ehrlich	schön	treu	fair	spielen	retten	eitel	schlecht	tot	faul	strafen	rächen	1	acq_USunple_CSunple2_RW	acq4567_RW	5	14	400	0	300	300	613	46	0	1	1	blank2r.bmp	0	1	+	0	1	blank2r.bmp	492	1	VKKV	492	1	blank2r.bmp	572	2	strafen	866	1	!	1239	1	!	-1	0	0	0	0	0	0	0	0	0	0	0	0	0	0	0	0	0	0	0	0	0	0	0	0	0	0	0	0	0	0
071019	14:19:17	14:27:56	517907	5.0.10.0	5_exp_RW	43	Rpleas_acq	CS_B	BZZB	YDDY	GWWG	VKKV	MQQM	JXXJ	ehrlich	schön	treu	fair	spielen	retten	eitel	schlecht	tot	faul	strafen	rächen	1	acq_USunple_CSunple2_RW	acq4567_RW	5	15	400	1	300	300	460	46	0	1	1	blank2r.bmp	0	1	+	0	1	blank2r.bmp	492	1	VKKV	492	1	blank2r.bmp	572	3	rächen	866	1	!	1239	1	!	1359	0	0	0	0	0	0	0	0	0	0	0	0	0	0	0	0	0	0	0	0	0	0	0	0	0	0	0	0	0	0
071019	14:19:17	14:27:58	520253	5.0.10.0	5_exp_RW	43	Rpleas_acq	CS_B	BZZB	YDDY	GWWG	VKKV	MQQM	JXXJ	ehrlich	schön	treu	fair	spielen	retten	eitel	schlecht	tot	faul	strafen	rächen	1	acq_USpleas_CSpleas2_RW	acq4567_RW	5	16	400	0	300	300	581	50	0	1	1	blank2r.bmp	0	1	+	0	1	blank2r.bmp	492	1	YDDY	492	1	blank2r.bmp	572	3	retten	866	1	!	1239	1	!	-1	0	0	0	0	0	0	0	0	0	0	0	0	0	0	0	0	0	0	0	0	0	0	0	0	0	0	0	0	0	0
071019	14:19:17	14:28:01	522652	5.0.10.0	5_exp_RW	43	Rpleas_acq	CS_B	BZZB	YDDY	GWWG	VKKV	MQQM	JXXJ	ehrlich	schön	treu	fair	spielen	retten	eitel	schlecht	tot	faul	strafen	rächen	1	acq_USunple_CSunple1_RW	acq4567_RW	5	17	400	0	300	300	608	50	0	0	1	blank2r.bmp	0	1	+	0	1	blank2r.bmp	492	1	GWWG	492	1	blank2r.bmp	572	1	eitel	866	1	!	1239	1	!	-1	0	0	0	0	0	0	0	0	0	0	0	0	0	0	0	0	0	0	0	0	0	0	0	0	0	0	0	0	0	0
071019	14:19:17	14:28:03	524891	5.0.10.0	5_exp_RW	43	Rpleas_acq	CS_B	BZZB	YDDY	GWWG	VKKV	MQQM	JXXJ	ehrlich	schön	treu	fair	spielen	retten	eitel	schlecht	tot	faul	strafen	rächen	1	acq_USpleas_CSpleas2_RW	acq4567_RW	5	18	400	1	300	300	426	50	0	1	1	blank2r.bmp	0	1	+	0	1	blank2r.bmp	492	1	YDDY	492	1	blank2r.bmp	572	1	fair	866	1	!	1239	1	!	1332	0	0	0	0	0	0	0	0	0	0	0	0	0	0	0	0	0	0	0	0	0	0	0	0	0	0	0	0	0	0
071019	14:19:17	14:28:05	527143	5.0.10.0	5_exp_RW	43	Rpleas_acq	CS_B	BZZB	YDDY	GWWG	VKKV	MQQM	JXXJ	ehrlich	schön	treu	fair	spielen	retten	eitel	schlecht	tot	faul	strafen	rächen	1	acq_USpleas_CSpleas2_RW	acq4567_RW	5	19	400	0	300	300	479	50	0	1	1	blank2r.bmp	0	1	+	0	1	blank2r.bmp	492	1	YDDY	492	1	blank2r.bmp	572	3	retten	866	1	!	1239	1	!	-1	0	0	0	0	0	0	0	0	0	0	0	0	0	0	0	0	0	0	0	0	0	0	0	0	0	0	0	0	0	0
071019	14:19:17	14:28:07	529516	5.0.10.0	5_exp_RW	43	Rpleas_acq	CS_B	BZZB	YDDY	GWWG	VKKV	MQQM	JXXJ	ehrlich	schön	treu	fair	spielen	retten	eitel	schlecht	tot	faul	strafen	rächen	1	acq_USpleas_CSpleas1_RW	acq4567_RW	5	20	400	0	300	300	593	50	0	1	1	blank2r.bmp	0	1	+	0	1	blank2r.bmp	492	1	BZZB	492	1	blank2r.bmp	572	2	schön	866	1	!	1239	1	!	-1	0	0	0	0	0	0	0	0	0	0	0	0	0	0	0	0	0	0	0	0	0	0	0	0	0	0	0	0	0	0
071019	14:19:17	14:28:10	531755	5.0.10.0	5_exp_RW	43	Rpleas_acq	CS_B	BZZB	YDDY	GWWG	VKKV	MQQM	JXXJ	ehrlich	schön	treu	fair	spielen	retten	eitel	schlecht	tot	faul	strafen	rächen	1	acq_USunple_CSunple1_RW	acq4567_RW	5	21	400	1	300	300	429	46	0	1	1	blank2r.bmp	0	1	+	0	1	blank2r.bmp	492	1	GWWG	492	1	blank2r.bmp	572	2	schlecht	866	1	!	1239	1	!	1332	0	0	0	0	0	0	0	0	0	0	0	0	0	0	0	0	0	0	0	0	0	0	0	0	0	0	0	0	0	0
071019	14:19:17	14:28:12	533914	5.0.10.0	5_exp_RW	43	Rpleas_acq	CS_B	BZZB	YDDY	GWWG	VKKV	MQQM	JXXJ	ehrlich	schön	treu	fair	spielen	retten	eitel	schlecht	tot	faul	strafen	rächen	1	acq_USunple_CSunple2_RW	acq4567_RW	5	22	400	1	300	300	364	46	0	1	1	blank2r.bmp	0	1	+	0	1	blank2r.bmp	492	1	VKKV	492	1	blank2r.bmp	572	1	faul	866	1	!	1239	1	!	1266	0	0	0	0	0	0	0	0	0	0	0	0	0	0	0	0	0	0	0	0	0	0	0	0	0	0	0	0	0	0
071019	14:19:17	14:28:14	536180	5.0.10.0	5_exp_RW	43	Rpleas_acq	CS_B	BZZB	YDDY	GWWG	VKKV	MQQM	JXXJ	ehrlich	schön	treu	fair	spielen	retten	eitel	schlecht	tot	faul	strafen	rächen	1	acq_USpleas_CSpleas1_RW	acq4567_RW	5	23	400	0	300	300	479	50	0	1	1	blank2r.bmp	0	1	+	0	1	blank2r.bmp	492	1	BZZB	492	1	blank2r.bmp	572	1	ehrlich	866	1	!	1239	1	!	-1	0	0	0	0	0	0	0	0	0	0	0	0	0	0	0	0	0	0	0	0	0	0	0	0	0	0	0	0	0	0
071019	14:19:17	14:28:16	538406	5.0.10.0	5_exp_RW	43	Rpleas_acq	CS_B	BZZB	YDDY	GWWG	VKKV	MQQM	JXXJ	ehrlich	schön	treu	fair	spielen	retten	eitel	schlecht	tot	faul	strafen	rächen	1	acq_USpleas_CSpleas2_RW	acq4567_RW	5	24	400	1	300	300	411	50	0	1	1	blank2r.bmp	0	1	+	0	1	blank2r.bmp	492	1	YDDY	492	1	blank2r.bmp	572	2	spielen	866	1	!	1239	1	!	1306	0	0	0	0	0	0	0	0	0	0	0	0	0	0	0	0	0	0	0	0	0	0	0	0	0	0	0	0	0	0
071019	14:19:17	14:28:19	540791	5.0.10.0	5_exp_RW	43	Rpleas_acq	CS_B	BZZB	YDDY	GWWG	VKKV	MQQM	JXXJ	ehrlich	schön	treu	fair	spielen	retten	eitel	schlecht	tot	faul	strafen	rächen	1	acq_USunple_CSunple2_RW	acq4567_RW	5	25	400	0	300	300	624	46	0	1	1	blank2r.bmp	0	1	+	0	1	blank2r.bmp	492	1	VKKV	492	1	blank2r.bmp	572	1	faul	866	1	!	1239	1	!	-1	0	0	0	0	0	0	0	0	0	0	0	0	0	0	0	0	0	0	0	0	0	0	0	0	0	0	0	0	0	0
071019	14:19:17	14:28:21	543057	5.0.10.0	5_exp_RW	43	Rpleas_acq	CS_B	BZZB	YDDY	GWWG	VKKV	MQQM	JXXJ	ehrlich	schön	treu	fair	spielen	retten	eitel	schlecht	tot	faul	strafen	rächen	1	acq_USpleas_CSpleas2_RW	acq4567_RW	5	26	400	1	300	300	456	50	0	1	1	blank2r.bmp	0	1	+	0	1	blank2r.bmp	492	1	YDDY	492	1	blank2r.bmp	572	2	spielen	866	1	!	1239	1	!	1359	0	0	0	0	0	0	0	0	0	0	0	0	0	0	0	0	0	0	0	0	0	0	0	0	0	0	0	0	0	0
071019	14:19:17	14:28:23	545283	5.0.10.0	5_exp_RW	43	Rpleas_acq	CS_B	BZZB	YDDY	GWWG	VKKV	MQQM	JXXJ	ehrlich	schön	treu	fair	spielen	retten	eitel	schlecht	tot	faul	strafen	rächen	1	acq_USpleas_CSpleas2_RW	acq4567_RW	5	27	400	1	300	300	418	50	0	1	1	blank2r.bmp	0	1	+	0	1	blank2r.bmp	492	1	YDDY	492	1	blank2r.bmp	572	1	fair	866	1	!	1239	1	!	1319	0	0	0	0	0	0	0	0	0	0	0	0	0	0	0	0	0	0	0	0	0	0	0	0	0	0	0	0	0	0
071019	14:19:17	14:28:26	547548	5.0.10.0	5_exp_RW	43	Rpleas_acq	CS_B	BZZB	YDDY	GWWG	VKKV	MQQM	JXXJ	ehrlich	schön	treu	fair	spielen	retten	eitel	schlecht	tot	faul	strafen	rächen	1	acq_USpleas_CSpleas2_RW	acq4567_RW	5	28	400	1	300	300	466	50	0	1	1	blank2r.bmp	0	1	+	0	1	blank2r.bmp	492	1	YDDY	492	1	blank2r.bmp	572	3	retten	866	1	!	1239	1	!	1372	0	0	0	0	0	0	0	0	0	0	0	0	0	0	0	0	0	0	0	0	0	0	0	0	0	0	0	0	0	0
071019	14:19:17	14:28:28	549788	5.0.10.0	5_exp_RW	43	Rpleas_acq	CS_B	BZZB	YDDY	GWWG	VKKV	MQQM	JXXJ	ehrlich	schön	treu	fair	spielen	retten	eitel	schlecht	tot	faul	strafen	rächen	1	acq_USunple_CSunple1_RW	acq4567_RW	5	29	400	1	300	300	449	46	0	1	1	blank2r.bmp	0	1	+	0	1	blank2r.bmp	492	1	GWWG	492	1	blank2r.bmp	572	3	tot	866	1	!	1239	1	!	1346	0	0	0	0	0	0	0	0	0	0	0	0	0	0	0	0	0	0	0	0	0	0	0	0	0	0	0	0	0	0
071019	14:19:17	14:28:30	552053	5.0.10.0	5_exp_RW	43	Rpleas_acq	CS_B	BZZB	YDDY	GWWG	VKKV	MQQM	JXXJ	ehrlich	schön	treu	fair	spielen	retten	eitel	schlecht	tot	faul	strafen	rächen	1	acq_USunple_CSunple1_RW	acq4567_RW	5	30	400	0	300	300	499	50	0	0	1	blank2r.bmp	0	1	+	0	1	blank2r.bmp	492	1	GWWG	492	1	blank2r.bmp	572	1	eitel	866	1	!	1239	1	!	-1	0	0	0	0	0	0	0	0	0	0	0	0	0	0	0	0	0	0	0	0	0	0	0	0	0	0	0	0	0	0
071019	14:19:17	14:28:32	554386	5.0.10.0	5_exp_RW	43	Rpleas_acq	CS_B	BZZB	YDDY	GWWG	VKKV	MQQM	JXXJ	ehrlich	schön	treu	fair	spielen	retten	eitel	schlecht	tot	faul	strafen	rächen	1	acq_USunple_CSunple1_RW	acq4567_RW	5	31	400	0	300	300	556	46	0	1	1	blank2r.bmp	0	1	+	0	1	blank2r.bmp	492	1	GWWG	492	1	blank2r.bmp	572	2	schlecht	866	1	!	1239	1	!	-1	0	0	0	0	0	0	0	0	0	0	0	0	0	0	0	0	0	0	0	0	0	0	0	0	0	0	0	0	0	0
071019	14:19:17	14:28:35	556665	5.0.10.0	5_exp_RW	43	Rpleas_acq	CS_B	BZZB	YDDY	GWWG	VKKV	MQQM	JXXJ	ehrlich	schön	treu	fair	spielen	retten	eitel	schlecht	tot	faul	strafen	rächen	1	acq_USpleas_CSpleas1_RW	acq4567_RW	5	32	400	1	300	300	452	50	0	1	1	blank2r.bmp	0	1	+	0	1	blank2r.bmp	492	1	BZZB	492	1	blank2r.bmp	572	1	ehrlich	866	1	!	1239	1	!	1359	0	0	0	0	0	0	0	0	0	0	0	0	0	0	0	0	0	0	0	0	0	0	0	0	0	0	0	0	0	0
071019	14:19:17	14:28:37	558984	5.0.10.0	5_exp_RW	43	Rpleas_acq	CS_B	BZZB	YDDY	GWWG	VKKV	MQQM	JXXJ	ehrlich	schön	treu	fair	spielen	retten	eitel	schlecht	tot	faul	strafen	rächen	1	acq_USunple_CSunple2_RW	acq4567_RW	5	33	400	0	300	300	546	46	0	1	1	blank2r.bmp	0	1	+	0	1	blank2r.bmp	492	1	VKKV	492	1	blank2r.bmp	572	3	rächen	866	1	!	1239	1	!	-1	0	0	0	0	0	0	0	0	0	0	0	0	0	0	0	0	0	0	0	0	0	0	0	0	0	0	0	0	0	0
071019	14:19:17	14:28:39	561276	5.0.10.0	5_exp_RW	43	Rpleas_acq	CS_B	BZZB	YDDY	GWWG	VKKV	MQQM	JXXJ	ehrlich	schön	treu	fair	spielen	retten	eitel	schlecht	tot	faul	strafen	rächen	1	acq_USpleas_CSpleas1_RW	acq4567_RW	5	34	400	0	300	300	509	50	0	1	1	blank2r.bmp	0	1	+	0	1	blank2r.bmp	492	1	BZZB	492	1	blank2r.bmp	572	2	schön	866	1	!	1239	1	!	-1	0	0	0	0	0	0	0	0	0	0	0	0	0	0	0	0	0	0	0	0	0	0	0	0	0	0	0	0	0	0
071019	14:19:17	14:28:42	563529	5.0.10.0	5_exp_RW	43	Rpleas_acq	CS_B	BZZB	YDDY	GWWG	VKKV	MQQM	JXXJ	ehrlich	schön	treu	fair	spielen	retten	eitel	schlecht	tot	faul	strafen	rächen	1	acq_USunple_CSunple2_RW	acq4567_RW	5	35	400	1	300	300	449	46	0	1	1	blank2r.bmp	0	1	+	0	1	blank2r.bmp	492	1	VKKV	492	1	blank2r.bmp	572	2	strafen	866	1	!	1239	1	!	1346	0	0	0	0	0	0	0	0	0	0	0	0	0	0	0	0	0	0	0	0	0	0	0	0	0	0	0	0	0	0
071019	14:19:17	14:28:44	565714	5.0.10.0	5_exp_RW	43	Rpleas_acq	CS_B	BZZB	YDDY	GWWG	VKKV	MQQM	JXXJ	ehrlich	schön	treu	fair	spielen	retten	eitel	schlecht	tot	faul	strafen	rächen	1	acq_USpleas_CSpleas1_RW	acq4567_RW	5	36	400	1	300	300	392	50	0	1	1	blank2r.bmp	0	1	+	0	1	blank2r.bmp	492	1	BZZB	492	1	blank2r.bmp	572	3	treu	866	1	!	1239	1	!	1292	0	0	0	0	0	0	0	0	0	0	0	0	0	0	0	0	0	0	0	0	0	0	0	0	0	0	0	0	0	0
071019	14:19:17	14:28:46	567927	5.0.10.0	5_exp_RW	43	Rpleas_acq	CS_B	BZZB	YDDY	GWWG	VKKV	MQQM	JXXJ	ehrlich	schön	treu	fair	spielen	retten	eitel	schlecht	tot	faul	strafen	rächen	1	acq_USpleas_CSpleas1_RW	acq4567_RW	5	37	400	1	300	300	420	50	0	1	1	blank2r.bmp	0	1	+	0	1	blank2r.bmp	492	1	BZZB	492	1	blank2r.bmp	572	3	treu	866	1	!	1239	1	!	1319	0	0	0	0	0	0	0	0	0	0	0	0	0	0	0	0	0	0	0	0	0	0	0	0	0	0	0	0	0	0
071019	14:19:17	14:28:48	570179	5.0.10.0	5_exp_RW	43	Rpleas_acq	CS_B	BZZB	YDDY	GWWG	VKKV	MQQM	JXXJ	ehrlich	schön	treu	fair	spielen	retten	eitel	schlecht	tot	faul	strafen	rächen	1	acq_USunple_CSunple1_RW	acq4567_RW	5	38	400	1	300	300	462	50	0	0	1	blank2r.bmp	0	1	+	0	1	blank2r.bmp	492	1	GWWG	492	1	blank2r.bmp	572	1	eitel	866	1	!	1239	1	!	1359	0	0	0	0	0	0	0	0	0	0	0	0	0	0	0	0	0	0	0	0	0	0	0	0	0	0	0	0	0	0
071019	14:19:17	14:28:50	572378	5.0.10.0	5_exp_RW	43	Rpleas_acq	CS_B	BZZB	YDDY	GWWG	VKKV	MQQM	JXXJ	ehrlich	schön	treu	fair	spielen	retten	eitel	schlecht	tot	faul	strafen	rächen	1	acq_USpleas_CSpleas2_RW	acq4567_RW	5	39	400	1	300	300	400	50	0	1	1	blank2r.bmp	0	1	+	0	1	blank2r.bmp	492	1	YDDY	492	1	blank2r.bmp	572	2	spielen	866	1	!	1239	1	!	1306	0	0	0	0	0	0	0	0	0	0	0	0	0	0	0	0	0	0	0	0	0	0	0	0	0	0	0	0	0	0
071019	14:19:17	14:28:53	574631	5.0.10.0	5_exp_RW	43	Rpleas_acq	CS_B	BZZB	YDDY	GWWG	VKKV	MQQM	JXXJ	ehrlich	schön	treu	fair	spielen	retten	eitel	schlecht	tot	faul	strafen	rächen	1	acq_USunple_CSunple2_RW	acq4567_RW	5	40	400	0	300	300	490	46	0	1	1	blank2r.bmp	0	1	+	0	1	blank2r.bmp	492	1	VKKV	492	1	blank2r.bmp	572	1	faul	866	1	!	1239	1	!	-1	0	0	0	0	0	0	0	0	0	0	0	0	0	0	0	0	0	0	0	0	0	0	0	0	0	0	0	0	0	0
071019	14:19:17	14:28:55	576910	5.0.10.0	5_exp_RW	43	Rpleas_acq	CS_B	BZZB	YDDY	GWWG	VKKV	MQQM	JXXJ	ehrlich	schön	treu	fair	spielen	retten	eitel	schlecht	tot	faul	strafen	rächen	1	acq_USpleas_CSpleas2_RW	acq4567_RW	5	41	400	0	300	300	493	46	0	0	1	blank2r.bmp	0	1	+	0	1	blank2r.bmp	492	1	YDDY	492	1	blank2r.bmp	572	1	fair	866	1	!	1239	1	!	-1	0	0	0	0	0	0	0	0	0	0	0	0	0	0	0	0	0	0	0	0	0	0	0	0	0	0	0	0	0	0
071019	14:19:17	14:28:57	579162	5.0.10.0	5_exp_RW	43	Rpleas_acq	CS_B	BZZB	YDDY	GWWG	VKKV	MQQM	JXXJ	ehrlich	schön	treu	fair	spielen	retten	eitel	schlecht	tot	faul	strafen	rächen	1	acq_USpleas_CSpleas2_RW	acq4567_RW	5	42	400	1	300	300	426	50	0	1	1	blank2r.bmp	0	1	+	0	1	blank2r.bmp	492	1	YDDY	492	1	blank2r.bmp	572	3	retten	866	1	!	1239	1	!	1332	0	0	0	0	0	0	0	0	0	0	0	0	0	0	0	0	0	0	0	0	0	0	0	0	0	0	0	0	0	0
071019	14:19:17	14:28:59	581455	5.0.10.0	5_exp_RW	43	Rpleas_acq	CS_B	BZZB	YDDY	GWWG	VKKV	MQQM	JXXJ	ehrlich	schön	treu	fair	spielen	retten	eitel	schlecht	tot	faul	strafen	rächen	1	acq_USunple_CSunple2_RW	acq4567_RW	5	43	400	0	300	300	521	46	0	1	1	blank2r.bmp	0	1	+	0	1	blank2r.bmp	492	1	VKKV	492	1	blank2r.bmp	572	2	strafen	866	1	!	1239	1	!	-1	0	0	0	0	0	0	0	0	0	0	0	0	0	0	0	0	0	0	0	0	0	0	0	0	0	0	0	0	0	0
071019	14:19:17	14:29:02	583654	5.0.10.0	5_exp_RW	43	Rpleas_acq	CS_B	BZZB	YDDY	GWWG	VKKV	MQQM	JXXJ	ehrlich	schön	treu	fair	spielen	retten	eitel	schlecht	tot	faul	strafen	rächen	1	acq_USpleas_CSpleas1_RW	acq4567_RW	5	44	400	1	300	300	396	50	0	1	1	blank2r.bmp	0	1	+	0	1	blank2r.bmp	492	1	BZZB	492	1	blank2r.bmp	572	1	ehrlich	866	1	!	1239	1	!	1292	0	0	0	0	0	0	0	0	0	0	0	0	0	0	0	0	0	0	0	0	0	0	0	0	0	0	0	0	0	0
071019	14:19:17	14:29:04	585879	5.0.10.0	5_exp_RW	43	Rpleas_acq	CS_B	BZZB	YDDY	GWWG	VKKV	MQQM	JXXJ	ehrlich	schön	treu	fair	spielen	retten	eitel	schlecht	tot	faul	strafen	rächen	1	acq_USunple_CSunple2_RW	acq4567_RW	5	45	400	1	300	300	438	46	0	1	1	blank2r.bmp	0	1	+	0	1	blank2r.bmp	492	1	VKKV	492	1	blank2r.bmp	572	3	rächen	866	1	!	1239	1	!	1332	0	0	0	0	0	0	0	0	0	0	0	0	0	0	0	0	0	0	0	0	0	0	0	0	0	0	0	0	0	0
071019	14:19:17	14:29:06	588239	5.0.10.0	5_exp_RW	43	Rpleas_acq	CS_B	BZZB	YDDY	GWWG	VKKV	MQQM	JXXJ	ehrlich	schön	treu	fair	spielen	retten	eitel	schlecht	tot	faul	strafen	rächen	1	acq_USpleas_CSpleas2_RW	acq4567_RW	5	46	400	0	300	300	578	50	0	1	1	blank2r.bmp	0	1	+	0	1	blank2r.bmp	492	1	YDDY	492	1	blank2r.bmp	572	3	retten	866	1	!	1239	1	!	-1	0	0	0	0	0	0	0	0	0	0	0	0	0	0	0	0	0	0	0	0	0	0	0	0	0	0	0	0	0	0
071019	14:19:17	14:29:08	590518	5.0.10.0	5_exp_RW	43	Rpleas_acq	CS_B	BZZB	YDDY	GWWG	VKKV	MQQM	JXXJ	ehrlich	schön	treu	fair	spielen	retten	eitel	schlecht	tot	faul	strafen	rächen	1	acq_USpleas_CSpleas2_RW	acq4567_RW	5	47	400	1	300	300	466	50	0	1	1	blank2r.bmp	0	1	+	0	1	blank2r.bmp	492	1	YDDY	492	1	blank2r.bmp	572	1	fair	866	1	!	1239	1	!	1372	0	0	0	0	0	0	0	0	0	0	0	0	0	0	0	0	0	0	0	0	0	0	0	0	0	0	0	0	0	0
071019	14:19:17	14:29:11	592850	5.0.10.0	5_exp_RW	43	Rpleas_acq	CS_B	BZZB	YDDY	GWWG	VKKV	MQQM	JXXJ	ehrlich	schön	treu	fair	spielen	retten	eitel	schlecht	tot	faul	strafen	rächen	1	acq_USunple_CSunple1_RW	acq4567_RW	5	48	400	0	300	300	562	46	0	1	1	blank2r.bmp	0	1	+	0	1	blank2r.bmp	492	1	GWWG	492	1	blank2r.bmp	572	2	schlecht	866	1	!	1239	1	!	-1	0	0	0	0	0	0	0	0	0	0	0	0	0	0	0	0	0	0	0	0	0	0	0	0	0	0	0	0	0	0
071019	14:19:17	14:29:13	595049	5.0.10.0	5_exp_RW	43	Rpleas_acq	CS_B	BZZB	YDDY	GWWG	VKKV	MQQM	JXXJ	ehrlich	schön	treu	fair	spielen	retten	eitel	schlecht	tot	faul	strafen	rächen	1	acq_USpleas_CSpleas1_RW	acq4567_RW	5	49	400	1	300	300	388	50	0	1	1	blank2r.bmp	0	1	+	0	1	blank2r.bmp	492	1	BZZB	492	1	blank2r.bmp	572	2	schön	866	1	!	1239	1	!	1292	0	0	0	0	0	0	0	0	0	0	0	0	0	0	0	0	0	0	0	0	0	0	0	0	0	0	0	0	0	0
071019	14:19:17	14:29:15	597275	5.0.10.0	5_exp_RW	43	Rpleas_acq	CS_B	BZZB	YDDY	GWWG	VKKV	MQQM	JXXJ	ehrlich	schön	treu	fair	spielen	retten	eitel	schlecht	tot	faul	strafen	rächen	1	acq_USpleas_CSpleas1_RW	acq4567_RW	5	50	400	1	300	300	426	50	0	1	1	blank2r.bmp	0	1	+	0	1	blank2r.bmp	492	1	BZZB	492	1	blank2r.bmp	572	3	treu	866	1	!	1239	1	!	1332	0	0	0	0	0	0	0	0	0	0	0	0	0	0	0	0	0	0	0	0	0	0	0	0	0	0	0	0	0	0
071019	14:19:17	14:29:18	599607	5.0.10.0	5_exp_RW	43	Rpleas_acq	CS_B	BZZB	YDDY	GWWG	VKKV	MQQM	JXXJ	ehrlich	schön	treu	fair	spielen	retten	eitel	schlecht	tot	faul	strafen	rächen	1	acq_USpleas_CSpleas1_RW	acq4567_RW	5	51	400	0	300	300	570	50	0	1	1	blank2r.bmp	0	1	+	0	1	blank2r.bmp	492	1	BZZB	492	1	blank2r.bmp	572	2	schön	866	1	!	1239	1	!	-1	0	0	0	0	0	0	0	0	0	0	0	0	0	0	0	0	0	0	0	0	0	0	0	0	0	0	0	0	0	0
071019	14:19:17	14:29:20	601780	5.0.10.0	5_exp_RW	43	Rpleas_acq	CS_B	BZZB	YDDY	GWWG	VKKV	MQQM	JXXJ	ehrlich	schön	treu	fair	spielen	retten	eitel	schlecht	tot	faul	strafen	rächen	1	acq_USpleas_CSpleas2_RW	acq4567_RW	5	52	400	1	300	300	372	50	0	1	1	blank2r.bmp	0	1	+	0	1	blank2r.bmp	492	1	YDDY	492	1	blank2r.bmp	572	2	spielen	866	1	!	1239	1	!	1266	0	0	0	0	0	0	0	0	0	0	0	0	0	0	0	0	0	0	0	0	0	0	0	0	0	0	0	0	0	0
071019	14:19:17	14:29:22	603992	5.0.10.0	5_exp_RW	43	Rpleas_acq	CS_B	BZZB	YDDY	GWWG	VKKV	MQQM	JXXJ	ehrlich	schön	treu	fair	spielen	retten	eitel	schlecht	tot	faul	strafen	rächen	1	acq_USunple_CSunple2_RW	acq4567_RW	5	53	400	1	300	300	420	46	0	1	1	blank2r.bmp	0	1	+	0	1	blank2r.bmp	492	1	VKKV	492	1	blank2r.bmp	572	3	rächen	866	1	!	1239	1	!	1319	0	0	0	0	0	0	0	0	0	0	0	0	0	0	0	0	0	0	0	0	0	0	0	0	0	0	0	0	0	0
071019	14:19:17	14:29:24	606244	5.0.10.0	5_exp_RW	43	Rpleas_acq	CS_B	BZZB	YDDY	GWWG	VKKV	MQQM	JXXJ	ehrlich	schön	treu	fair	spielen	retten	eitel	schlecht	tot	faul	strafen	rächen	1	acq_USunple_CSunple1_RW	acq4567_RW	5	54	400	0	300	300	483	46	0	1	1	blank2r.bmp	0	1	+	0	1	blank2r.bmp	492	1	GWWG	492	1	blank2r.bmp	572	3	tot	866	1	!	1239	1	!	-1	0	0	0	0	0	0	0	0	0	0	0	0	0	0	0	0	0	0	0	0	0	0	0	0	0	0	0	0	0	0
071019	14:19:17	14:29:26	608510	5.0.10.0	5_exp_RW	43	Rpleas_acq	CS_B	BZZB	YDDY	GWWG	VKKV	MQQM	JXXJ	ehrlich	schön	treu	fair	spielen	retten	eitel	schlecht	tot	faul	strafen	rächen	1	acq_USunple_CSunple1_RW	acq4567_RW	5	55	400	0	300	300	485	50	0	0	1	blank2r.bmp	0	1	+	0	1	blank2r.bmp	492	1	GWWG	492	1	blank2r.bmp	572	1	eitel	866	1	!	1239	1	!	-1	0	0	0	0	0	0	0	0	0	0	0	0	0	0	0	0	0	0	0	0	0	0	0	0	0	0	0	0	0	0
071019	14:19:17	14:29:29	610803	5.0.10.0	5_exp_RW	43	Rpleas_acq	CS_B	BZZB	YDDY	GWWG	VKKV	MQQM	JXXJ	ehrlich	schön	treu	fair	spielen	retten	eitel	schlecht	tot	faul	strafen	rächen	1	acq_USunple_CSunple2_RW	acq4567_RW	5	56	400	0	300	300	497	46	0	1	1	blank2r.bmp	0	1	+	0	1	blank2r.bmp	492	1	VKKV	492	1	blank2r.bmp	572	2	strafen	866	1	!	1239	1	!	-1	0	0	0	0	0	0	0	0	0	0	0	0	0	0	0	0	0	0	0	0	0	0	0	0	0	0	0	0	0	0
071019	14:19:17	14:29:31	612988	5.0.10.0	5_exp_RW	43	Rpleas_acq	CS_B	BZZB	YDDY	GWWG	VKKV	MQQM	JXXJ	ehrlich	schön	treu	fair	spielen	retten	eitel	schlecht	tot	faul	strafen	rächen	1	acq_USpleas_CSpleas1_RW	acq4567_RW	5	57	400	1	300	300	392	50	0	1	1	blank2r.bmp	0	1	+	0	1	blank2r.bmp	492	1	BZZB	492	1	blank2r.bmp	572	1	ehrlich	866	1	!	1239	1	!	1292	0	0	0	0	0	0	0	0	0	0	0	0	0	0	0	0	0	0	0	0	0	0	0	0	0	0	0	0	0	0
071019	14:19:17	14:29:33	615187	5.0.10.0	5_exp_RW	43	Rpleas_acq	CS_B	BZZB	YDDY	GWWG	VKKV	MQQM	JXXJ	ehrlich	schön	treu	fair	spielen	retten	eitel	schlecht	tot	faul	strafen	rächen	1	acq_USunple_CSunple1_RW	acq4567_RW	5	58	400	1	300	300	410	46	0	1	1	blank2r.bmp	0	1	+	0	1	blank2r.bmp	492	1	GWWG	492	1	blank2r.bmp	572	3	tot	866	1	!	1239	1	!	1306	0	0	0	0	0	0	0	0	0	0	0	0	0	0	0	0	0	0	0	0	0	0	0	0	0	0	0	0	0	0
071019	14:19:17	14:29:35	617387	5.0.10.0	5_exp_RW	43	Rpleas_acq	CS_B	BZZB	YDDY	GWWG	VKKV	MQQM	JXXJ	ehrlich	schön	treu	fair	spielen	retten	eitel	schlecht	tot	faul	strafen	rächen	1	acq_USunple_CSunple2_RW	acq4567_RW	5	59	400	1	300	300	404	46	0	1	1	blank2r.bmp	0	1	+	0	1	blank2r.bmp	492	1	VKKV	492	1	blank2r.bmp	572	1	faul	866	1	!	1239	1	!	1306	0	0	0	0	0	0	0	0	0	0	0	0	0	0	0	0	0	0	0	0	0	0	0	0	0	0	0	0	0	0
071019	14:19:17	14:29:38	619572	5.0.10.0	5_exp_RW	43	Rpleas_acq	CS_B	BZZB	YDDY	GWWG	VKKV	MQQM	JXXJ	ehrlich	schön	treu	fair	spielen	retten	eitel	schlecht	tot	faul	strafen	rächen	1	acq_USunple_CSunple1_RW	acq4567_RW	5	60	400	1	300	300	397	46	0	1	1	blank2r.bmp	0	1	+	0	1	blank2r.bmp	492	1	GWWG	492	1	blank2r.bmp	572	2	schlecht	866	1	!	1239	1	!	1292	0	0	0	0	0	0	0	0	0	0	0	0	0	0	0	0	0	0	0	0	0	0	0	0	0	0	0	0	0	0
071019	14:19:17	14:29:40	621772	5.0.10.0	5_exp_RW	43	Rpleas_acq	CS_B	BZZB	YDDY	GWWG	VKKV	MQQM	JXXJ	ehrlich	schön	treu	fair	spielen	retten	eitel	schlecht	tot	faul	strafen	rächen	1	acq_USunple_CSunple2_RW	acq4567_RW	5	61	400	1	300	300	410	46	0	1	1	blank2r.bmp	0	1	+	0	1	blank2r.bmp	492	1	VKKV	492	1	blank2r.bmp	572	1	faul	866	1	!	1239	1	!	1306	0	0	0	0	0	0	0	0	0	0	0	0	0	0	0	0	0	0	0	0	0	0	0	0	0	0	0	0	0	0
071019	14:19:17	14:29:42	623971	5.0.10.0	5_exp_RW	43	Rpleas_acq	CS_B	BZZB	YDDY	GWWG	VKKV	MQQM	JXXJ	ehrlich	schön	treu	fair	spielen	retten	eitel	schlecht	tot	faul	strafen	rächen	1	acq_USpleas_CSpleas2_RW	acq4567_RW	5	62	400	1	300	300	408	46	0	0	1	blank2r.bmp	0	1	+	0	1	blank2r.bmp	492	1	YDDY	492	1	blank2r.bmp	572	3	retten	866	1	!	1239	1	!	1306	0	0	0	0	0	0	0	0	0	0	0	0	0	0	0	0	0	0	0	0	0	0	0	0	0	0	0	0	0	0
071019	14:19:17	14:29:44	626196	5.0.10.0	5_exp_RW	43	Rpleas_acq	CS_B	BZZB	YDDY	GWWG	VKKV	MQQM	JXXJ	ehrlich	schön	treu	fair	spielen	retten	eitel	schlecht	tot	faul	strafen	rächen	1	acq_USunple_CSunple1_RW	acq4567_RW	5	63	400	1	300	300	433	46	0	1	1	blank2r.bmp	0	1	+	0	1	blank2r.bmp	492	1	GWWG	492	1	blank2r.bmp	572	2	schlecht	866	1	!	1239	1	!	1332	0	0	0	0	0	0	0	0	0	0	0	0	0	0	0	0	0	0	0	0	0	0	0	0	0	0	0	0	0	0
071019	14:19:17	14:29:46	628435	5.0.10.0	5_exp_RW	43	Rpleas_acq	CS_B	BZZB	YDDY	GWWG	VKKV	MQQM	JXXJ	ehrlich	schön	treu	fair	spielen	retten	eitel	schlecht	tot	faul	strafen	rächen	1	acq_USunple_CSunple1_RW	acq4567_RW	5	64	400	1	300	300	442	46	0	1	1	blank2r.bmp	0	1	+	0	1	blank2r.bmp	492	1	GWWG	492	1	blank2r.bmp	572	3	tot	866	1	!	1239	1	!	1346	0	0	0	0	0	0	0	0	0	0	0	0	0	0	0	0	0	0	0	0	0	0	0	0	0	0	0	0	0	0
071019	14:19:17	14:29:49	630661	5.0.10.0	5_exp_RW	43	Rpleas_acq	CS_B	BZZB	YDDY	GWWG	VKKV	MQQM	JXXJ	ehrlich	schön	treu	fair	spielen	retten	eitel	schlecht	tot	faul	strafen	rächen	1	acq_USpleas_CSpleas1_RW	acq4567_RW	5	65	400	1	300	300	412	50	0	1	1	blank2r.bmp	0	1	+	0	1	blank2r.bmp	492	1	BZZB	492	1	blank2r.bmp	572	2	schön	866	1	!	1239	1	!	1319	0	0	0	0	0	0	0	0	0	0	0	0	0	0	0	0	0	0	0	0	0	0	0	0	0	0	0	0	0	0
071019	14:19:17	14:29:51	633073	5.0.10.0	5_exp_RW	43	Rpleas_acq	CS_B	BZZB	YDDY	GWWG	VKKV	MQQM	JXXJ	ehrlich	schön	treu	fair	spielen	retten	eitel	schlecht	tot	faul	strafen	rächen	1	acq_USunple_CSunple2_RW	acq4567_RW	5	66	400	0	300	300	639	46	0	1	1	blank2r.bmp	0	1	+	0	1	blank2r.bmp	492	1	VKKV	492	1	blank2r.bmp	572	3	rächen	866	1	!	1239	1	!	-1	0	0	0	0	0	0	0	0	0	0	0	0	0	0	0	0	0	0	0	0	0	0	0	0	0	0	0	0	0	0
071019	14:19:17	14:29:53	635339	5.0.10.0	5_exp_RW	43	Rpleas_acq	CS_B	BZZB	YDDY	GWWG	VKKV	MQQM	JXXJ	ehrlich	schön	treu	fair	spielen	retten	eitel	schlecht	tot	faul	strafen	rächen	1	acq_USunple_CSunple1_RW	acq4567_RW	5	67	400	1	300	300	459	50	0	0	1	blank2r.bmp	0	1	+	0	1	blank2r.bmp	492	1	GWWG	492	1	blank2r.bmp	572	1	eitel	866	1	!	1239	1	!	1359	0	0	0	0	0	0	0	0	0	0	0	0	0	0	0	0	0	0	0	0	0	0	0	0	0	0	0	0	0	0
071019	14:19:17	14:29:56	637725	5.0.10.0	5_exp_RW	43	Rpleas_acq	CS_B	BZZB	YDDY	GWWG	VKKV	MQQM	JXXJ	ehrlich	schön	treu	fair	spielen	retten	eitel	schlecht	tot	faul	strafen	rächen	1	acq_USunple_CSunple2_RW	acq4567_RW	5	68	400	0	300	300	622	46	0	1	1	blank2r.bmp	0	1	+	0	1	blank2r.bmp	492	1	VKKV	492	1	blank2r.bmp	572	2	strafen	866	1	!	1239	1	!	-1	0	0	0	0	0	0	0	0	0	0	0	0	0	0	0	0	0	0	0	0	0	0	0	0	0	0	0	0	0	0
071019	14:19:17	14:29:58	639991	5.0.10.0	5_exp_RW	43	Rpleas_acq	CS_B	BZZB	YDDY	GWWG	VKKV	MQQM	JXXJ	ehrlich	schön	treu	fair	spielen	retten	eitel	schlecht	tot	faul	strafen	rächen	1	acq_USpleas_CSpleas2_RW	acq4567_RW	5	69	400	0	300	300	479	50	0	1	1	blank2r.bmp	0	1	+	0	1	blank2r.bmp	492	1	YDDY	492	1	blank2r.bmp	572	2	spielen	866	1	!	1239	1	!	-1	0	0	0	0	0	0	0	0	0	0	0	0	0	0	0	0	0	0	0	0	0	0	0	0	0	0	0	0	0	0
071019	14:19:17	14:30:00	642283	5.0.10.0	5_exp_RW	43	Rpleas_acq	CS_B	BZZB	YDDY	GWWG	VKKV	MQQM	JXXJ	ehrlich	schön	treu	fair	spielen	retten	eitel	schlecht	tot	faul	strafen	rächen	1	acq_USpleas_CSpleas1_RW	acq4567_RW	5	70	400	0	300	300	512	50	0	1	1	blank2r.bmp	0	1	+	0	1	blank2r.bmp	492	1	BZZB	492	1	blank2r.bmp	572	3	treu	866	1	!	1239	1	!	-1	0	0	0	0	0	0	0	0	0	0	0	0	0	0	0	0	0	0	0	0	0	0	0	0	0	0	0	0	0	0
071019	14:19:17	14:30:02	644469	5.0.10.0	5_exp_RW	43	Rpleas_acq	CS_B	BZZB	YDDY	GWWG	VKKV	MQQM	JXXJ	ehrlich	schön	treu	fair	spielen	retten	eitel	schlecht	tot	faul	strafen	rächen	1	acq_USpleas_CSpleas1_RW	acq4567_RW	5	71	400	1	300	300	374	50	0	1	1	blank2r.bmp	0	1	+	0	1	blank2r.bmp	492	1	BZZB	492	1	blank2r.bmp	572	1	ehrlich	866	1	!	1239	1	!	1279	0	0	0	0	0	0	0	0	0	0	0	0	0	0	0	0	0	0	0	0	0	0	0	0	0	0	0	0	0	0
071019	14:19:17	14:30:05	646735	5.0.10.0	5_exp_RW	43	Rpleas_acq	CS_B	BZZB	YDDY	GWWG	VKKV	MQQM	JXXJ	ehrlich	schön	treu	fair	spielen	retten	eitel	schlecht	tot	faul	strafen	rächen	1	acq_USunple_CSunple2_RW	acq4567_RW	5	72	400	0	300	300	498	46	0	1	1	blank2r.bmp	0	1	+	0	1	blank2r.bmp	492	1	VKKV	492	1	blank2r.bmp	572	3	rächen	866	1	!	1239	1	!	-1	0	0	0	0	0	0	0	0	0	0	0	0	0	0	0	0	0	0	0	0	0	0	0	0	0	0	0	0	0	0
071019	14:19:17	14:30:07	648974	5.0.10.0	5_exp_RW	43	Rpleas_acq	CS_B	BZZB	YDDY	GWWG	VKKV	MQQM	JXXJ	ehrlich	schön	treu	fair	spielen	retten	eitel	schlecht	tot	faul	strafen	rächen	1	acq_USunple_CSunple2_RW	acq4567_RW	5	73	400	1	300	300	437	46	0	1	1	blank2r.bmp	0	1	+	0	1	blank2r.bmp	492	1	VKKV	492	1	blank2r.bmp	572	2	strafen	866	1	!	1239	1	!	1332	0	0	0	0	0	0	0	0	0	0	0	0	0	0	0	0	0	0	0	0	0	0	0	0	0	0	0	0	0	0
071019	14:19:17	14:30:09	651319	5.0.10.0	5_exp_RW	43	Rpleas_acq	CS_B	BZZB	YDDY	GWWG	VKKV	MQQM	JXXJ	ehrlich	schön	treu	fair	spielen	retten	eitel	schlecht	tot	faul	strafen	rächen	1	acq_USpleas_CSpleas1_RW	acq4567_RW	5	74	400	0	300	300	585	46	0	0	1	blank2r.bmp	0	1	+	0	1	blank2r.bmp	492	1	BZZB	492	1	blank2r.bmp	572	3	treu	866	1	!	1239	1	!	-1	0	0	0	0	0	0	0	0	0	0	0	0	0	0	0	0	0	0	0	0	0	0	0	0	0	0	0	0	0	0
071019	14:19:17	14:30:12	653598	5.0.10.0	5_exp_RW	43	Rpleas_acq	CS_B	BZZB	YDDY	GWWG	VKKV	MQQM	JXXJ	ehrlich	schön	treu	fair	spielen	retten	eitel	schlecht	tot	faul	strafen	rächen	1	acq_USpleas_CSpleas1_RW	acq4567_RW	5	75	400	0	300	300	495	50	0	1	1	blank2r.bmp	0	1	+	0	1	blank2r.bmp	492	1	BZZB	492	1	blank2r.bmp	572	1	ehrlich	866	1	!	1239	1	!	-1	0	0	0	0	0	0	0	0	0	0	0	0	0	0	0	0	0	0	0	0	0	0	0	0	0	0	0	0	0	0
071019	14:19:17	14:30:14	655864	5.0.10.0	5_exp_RW	43	Rpleas_acq	CS_B	BZZB	YDDY	GWWG	VKKV	MQQM	JXXJ	ehrlich	schön	treu	fair	spielen	retten	eitel	schlecht	tot	faul	strafen	rächen	1	acq_USunple_CSunple1_RW	acq4567_RW	5	76	400	1	300	300	465	46	0	1	1	blank2r.bmp	0	1	+	0	1	blank2r.bmp	492	1	GWWG	492	1	blank2r.bmp	572	2	schlecht	866	1	!	1239	1	!	1359	0	0	0	0	0	0	0	0	0	0	0	0	0	0	0	0	0	0	0	0	0	0	0	0	0	0	0	0	0	0
071019	14:19:17	14:30:16	658010	5.0.10.0	5_exp_RW	43	Rpleas_acq	CS_B	BZZB	YDDY	GWWG	VKKV	MQQM	JXXJ	ehrlich	schön	treu	fair	spielen	retten	eitel	schlecht	tot	faul	strafen	rächen	1	acq_USunple_CSunple1_RW	acq4567_RW	5	77	400	1	300	300	347	46	0	1	1	blank2r.bmp	0	1	+	0	1	blank2r.bmp	492	1	GWWG	492	1	blank2r.bmp	572	3	tot	866	1	!	1239	1	!	1252	0	0	0	0	0	0	0	0	0	0	0	0	0	0	0	0	0	0	0	0	0	0	0	0	0	0	0	0	0	0
071019	14:19:17	14:30:18	660196	5.0.10.0	5_exp_RW	43	Rpleas_acq	CS_B	BZZB	YDDY	GWWG	VKKV	MQQM	JXXJ	ehrlich	schön	treu	fair	spielen	retten	eitel	schlecht	tot	faul	strafen	rächen	1	acq_USpleas_CSpleas2_RW	acq4567_RW	5	78	400	1	300	300	390	50	0	1	1	blank2r.bmp	0	1	+	0	1	blank2r.bmp	492	1	YDDY	492	1	blank2r.bmp	572	1	fair	866	1	!	1239	1	!	1292	0	0	0	0	0	0	0	0	0	0	0	0	0	0	0	0	0	0	0	0	0	0	0	0	0	0	0	0	0	0
071019	14:19:17	14:30:20	662395	5.0.10.0	5_exp_RW	43	Rpleas_acq	CS_B	BZZB	YDDY	GWWG	VKKV	MQQM	JXXJ	ehrlich	schön	treu	fair	spielen	retten	eitel	schlecht	tot	faul	strafen	rächen	1	acq_USpleas_CSpleas2_RW	acq4567_RW	5	79	400	1	300	300	398	50	0	1	1	blank2r.bmp	0	1	+	0	1	blank2r.bmp	492	1	YDDY	492	1	blank2r.bmp	572	2	spielen	866	1	!	1239	1	!	1292	0	0	0	0	0	0	0	0	0	0	0	0	0	0	0	0	0	0	0	0	0	0	0	0	0	0	0	0	0	0
071019	14:19:17	14:30:23	664967	5.0.10.0	5_exp_RW	43	Rpleas_acq	CS_B	BZZB	YDDY	GWWG	VKKV	MQQM	JXXJ	ehrlich	schön	treu	fair	spielen	retten	eitel	schlecht	tot	faul	strafen	rächen	1	acq_USpleas_CSpleas2_RW	acq4567_RW	5	80	400	0	300	300	807	50	0	1	1	blank2r.bmp	0	1	+	0	1	blank2r.bmp	492	1	YDDY	492	1	blank2r.bmp	572	3	retten	866	1	!	1239	1	!	-1	0	0	0	0	0	0	0	0	0	0	0	0	0	0	0	0	0	0	0	0	0	0	0	0	0	0	0	0	0	0
071019	14:19:17	14:30:34	675683	5.0.10.0	5_exp_RW	43	Rpleas_acq	CS_B	BZZB	YDDY	GWWG	VKKV	MQQM	JXXJ	ehrlich	schön	treu	fair	spielen	retten	eitel	schlecht	tot	faul	strafen	rächen	1	acq_USpleas_CSpleas2_RW	acq4567_RW	6	1	400	0	300	300	479	50	0	1	1	blank2r.bmp	0	1	+	0	1	blank2r.bmp	492	1	YDDY	492	1	blank2r.bmp	572	1	fair	866	1	!	1239	1	!	-1	0	0	0	0	0	0	0	0	0	0	0	0	0	0	0	0	0	0	0	0	0	0	0	0	0	0	0	0	0	0
071019	14:19:17	14:30:36	677842	5.0.10.0	5_exp_RW	43	Rpleas_acq	CS_B	BZZB	YDDY	GWWG	VKKV	MQQM	JXXJ	ehrlich	schön	treu	fair	spielen	retten	eitel	schlecht	tot	faul	strafen	rächen	1	acq_USpleas_CSpleas2_RW	acq4567_RW	6	2	400	1	300	300	354	50	0	1	1	blank2r.bmp	0	1	+	0	1	blank2r.bmp	492	1	YDDY	492	1	blank2r.bmp	572	2	spielen	866	1	!	1239	1	!	1252	0	0	0	0	0	0	0	0	0	0	0	0	0	0	0	0	0	0	0	0	0	0	0	0	0	0	0	0	0	0
071019	14:19:17	14:30:38	680028	5.0.10.0	5_exp_RW	43	Rpleas_acq	CS_B	BZZB	YDDY	GWWG	VKKV	MQQM	JXXJ	ehrlich	schön	treu	fair	spielen	retten	eitel	schlecht	tot	faul	strafen	rächen	1	acq_USunple_CSunple1_RW	acq4567_RW	6	3	400	1	300	300	398	50	0	0	1	blank2r.bmp	0	1	+	0	1	blank2r.bmp	492	1	GWWG	492	1	blank2r.bmp	572	1	eitel	866	1	!	1239	1	!	1292	0	0	0	0	0	0	0	0	0	0	0	0	0	0	0	0	0	0	0	0	0	0	0	0	0	0	0	0	0	0
071019	14:19:17	14:30:40	682120	5.0.10.0	5_exp_RW	43	Rpleas_acq	CS_B	BZZB	YDDY	GWWG	VKKV	MQQM	JXXJ	ehrlich	schön	treu	fair	spielen	retten	eitel	schlecht	tot	faul	strafen	rächen	1	acq_USpleas_CSpleas1_RW	acq4567_RW	6	4	400	0	300	300	325	50	0	1	1	blank2r.bmp	0	1	+	0	1	blank2r.bmp	492	1	BZZB	492	1	blank2r.bmp	572	2	schön	866	1	!	-1	1	!	-1	0	0	0	0	0	0	0	0	0	0	0	0	0	0	0	0	0	0	0	0	0	0	0	0	0	0	0	0	0	0
071019	14:19:17	14:30:42	684386	5.0.10.0	5_exp_RW	43	Rpleas_acq	CS_B	BZZB	YDDY	GWWG	VKKV	MQQM	JXXJ	ehrlich	schön	treu	fair	spielen	retten	eitel	schlecht	tot	faul	strafen	rächen	1	acq_USpleas_CSpleas1_RW	acq4567_RW	6	5	400	0	300	300	479	50	0	1	1	blank2r.bmp	0	1	+	0	1	blank2r.bmp	492	1	BZZB	492	1	blank2r.bmp	572	3	treu	866	1	!	1239	1	!	-1	0	0	0	0	0	0	0	0	0	0	0	0	0	0	0	0	0	0	0	0	0	0	0	0	0	0	0	0	0	0
071019	14:19:17	14:30:45	686812	5.0.10.0	5_exp_RW	43	Rpleas_acq	CS_B	BZZB	YDDY	GWWG	VKKV	MQQM	JXXJ	ehrlich	schön	treu	fair	spielen	retten	eitel	schlecht	tot	faul	strafen	rächen	1	acq_USunple_CSunple2_RW	acq4567_RW	6	6	400	0	300	300	651	46	0	1	1	blank2r.bmp	0	1	+	0	1	blank2r.bmp	492	1	VKKV	492	1	blank2r.bmp	572	1	faul	866	1	!	1239	1	!	-1	0	0	0	0	0	0	0	0	0	0	0	0	0	0	0	0	0	0	0	0	0	0	0	0	0	0	0	0	0	0
071019	14:19:17	14:30:47	689224	5.0.10.0	5_exp_RW	43	Rpleas_acq	CS_B	BZZB	YDDY	GWWG	VKKV	MQQM	JXXJ	ehrlich	schön	treu	fair	spielen	retten	eitel	schlecht	tot	faul	strafen	rächen	1	acq_USpleas_CSpleas2_RW	acq4567_RW	6	7	400	0	300	300	615	50	0	1	1	blank2r.bmp	0	1	+	0	1	blank2r.bmp	492	1	YDDY	492	1	blank2r.bmp	572	3	retten	866	1	!	1239	1	!	-1	0	0	0	0	0	0	0	0	0	0	0	0	0	0	0	0	0	0	0	0	0	0	0	0	0	0	0	0	0	0
071019	14:19:17	14:30:49	691463	5.0.10.0	5_exp_RW	43	Rpleas_acq	CS_B	BZZB	YDDY	GWWG	VKKV	MQQM	JXXJ	ehrlich	schön	treu	fair	spielen	retten	eitel	schlecht	tot	faul	strafen	rächen	1	acq_USpleas_CSpleas1_RW	acq4567_RW	6	8	400	1	300	300	427	50	0	1	1	blank2r.bmp	0	1	+	0	1	blank2r.bmp	492	1	BZZB	492	1	blank2r.bmp	572	1	ehrlich	866	1	!	1239	1	!	1332	0	0	0	0	0	0	0	0	0	0	0	0	0	0	0	0	0	0	0	0	0	0	0	0	0	0	0	0	0	0
071019	14:19:17	14:30:52	693795	5.0.10.0	5_exp_RW	43	Rpleas_acq	CS_B	BZZB	YDDY	GWWG	VKKV	MQQM	JXXJ	ehrlich	schön	treu	fair	spielen	retten	eitel	schlecht	tot	faul	strafen	rächen	1	acq_USunple_CSunple2_RW	acq4567_RW	6	9	400	0	300	300	570	46	0	1	1	blank2r.bmp	0	1	+	0	1	blank2r.bmp	492	1	VKKV	492	1	blank2r.bmp	572	3	rächen	866	1	!	1239	1	!	-1	0	0	0	0	0	0	0	0	0	0	0	0	0	0	0	0	0	0	0	0	0	0	0	0	0	0	0	0	0	0
071019	14:19:17	14:30:54	696008	5.0.10.0	5_exp_RW	43	Rpleas_acq	CS_B	BZZB	YDDY	GWWG	VKKV	MQQM	JXXJ	ehrlich	schön	treu	fair	spielen	retten	eitel	schlecht	tot	faul	strafen	rächen	1	acq_USpleas_CSpleas1_RW	acq4567_RW	6	10	400	1	300	300	405	50	0	1	1	blank2r.bmp	0	1	+	0	1	blank2r.bmp	492	1	BZZB	492	1	blank2r.bmp	572	2	schön	866	1	!	1239	1	!	1306	0	0	0	0	0	0	0	0	0	0	0	0	0	0	0	0	0	0	0	0	0	0	0	0	0	0	0	0	0	0
071019	14:19:17	14:30:56	698300	5.0.10.0	5_exp_RW	43	Rpleas_acq	CS_B	BZZB	YDDY	GWWG	VKKV	MQQM	JXXJ	ehrlich	schön	treu	fair	spielen	retten	eitel	schlecht	tot	faul	strafen	rächen	1	acq_USunple_CSunple1_RW	acq4567_RW	6	11	400	0	300	300	530	46	0	1	1	blank2r.bmp	0	1	+	0	1	blank2r.bmp	492	1	GWWG	492	1	blank2r.bmp	572	1	eitel	866	1	!	1239	1	!	-1	0	0	0	0	0	0	0	0	0	0	0	0	0	0	0	0	0	0	0	0	0	0	0	0	0	0	0	0	0	0
071019	14:19:17	14:30:58	700499	5.0.10.0	5_exp_RW	43	Rpleas_acq	CS_B	BZZB	YDDY	GWWG	VKKV	MQQM	JXXJ	ehrlich	schön	treu	fair	spielen	retten	eitel	schlecht	tot	faul	strafen	rächen	1	acq_USpleas_CSpleas2_RW	acq4567_RW	6	12	400	1	300	300	393	50	0	1	1	blank2r.bmp	0	1	+	0	1	blank2r.bmp	492	1	YDDY	492	1	blank2r.bmp	572	1	fair	866	1	!	1239	1	!	1292	0	0	0	0	0	0	0	0	0	0	0	0	0	0	0	0	0	0	0	0	0	0	0	0	0	0	0	0	0	0
071019	14:19:17	14:31:01	702872	5.0.10.0	5_exp_RW	43	Rpleas_acq	CS_B	BZZB	YDDY	GWWG	VKKV	MQQM	JXXJ	ehrlich	schön	treu	fair	spielen	retten	eitel	schlecht	tot	faul	strafen	rächen	1	acq_USpleas_CSpleas2_RW	acq4567_RW	6	13	400	0	300	300	610	50	0	1	1	blank2r.bmp	0	1	+	0	1	blank2r.bmp	492	1	YDDY	492	1	blank2r.bmp	572	3	retten	866	1	!	1239	1	!	-1	0	0	0	0	0	0	0	0	0	0	0	0	0	0	0	0	0	0	0	0	0	0	0	0	0	0	0	0	0	0
071019	14:19:17	14:31:03	705084	5.0.10.0	5_exp_RW	43	Rpleas_acq	CS_B	BZZB	YDDY	GWWG	VKKV	MQQM	JXXJ	ehrlich	schön	treu	fair	spielen	retten	eitel	schlecht	tot	faul	strafen	rächen	1	acq_USunple_CSunple1_RW	acq4567_RW	6	14	400	1	300	300	409	46	0	1	1	blank2r.bmp	0	1	+	0	1	blank2r.bmp	492	1	GWWG	492	1	blank2r.bmp	572	3	tot	866	1	!	1239	1	!	1306	0	0	0	0	0	0	0	0	0	0	0	0	0	0	0	0	0	0	0	0	0	0	0	0	0	0	0	0	0	0
071019	14:19:17	14:31:05	707310	5.0.10.0	5_exp_RW	43	Rpleas_acq	CS_B	BZZB	YDDY	GWWG	VKKV	MQQM	JXXJ	ehrlich	schön	treu	fair	spielen	retten	eitel	schlecht	tot	faul	strafen	rächen	1	acq_USpleas_CSpleas1_RW	acq4567_RW	6	15	400	1	300	300	427	50	0	1	1	blank2r.bmp	0	1	+	0	1	blank2r.bmp	492	1	BZZB	492	1	blank2r.bmp	572	3	treu	866	1	!	1239	1	!	1332	0	0	0	0	0	0	0	0	0	0	0	0	0	0	0	0	0	0	0	0	0	0	0	0	0	0	0	0	0	0
071019	14:19:17	14:31:08	709629	5.0.10.0	5_exp_RW	43	Rpleas_acq	CS_B	BZZB	YDDY	GWWG	VKKV	MQQM	JXXJ	ehrlich	schön	treu	fair	spielen	retten	eitel	schlecht	tot	faul	strafen	rächen	1	acq_USunple_CSunple2_RW	acq4567_RW	6	16	400	0	300	300	543	46	0	1	1	blank2r.bmp	0	1	+	0	1	blank2r.bmp	492	1	VKKV	492	1	blank2r.bmp	572	2	strafen	866	1	!	1239	1	!	-1	0	0	0	0	0	0	0	0	0	0	0	0	0	0	0	0	0	0	0	0	0	0	0	0	0	0	0	0	0	0
071019	14:19:17	14:31:10	712028	5.0.10.0	5_exp_RW	43	Rpleas_acq	CS_B	BZZB	YDDY	GWWG	VKKV	MQQM	JXXJ	ehrlich	schön	treu	fair	spielen	retten	eitel	schlecht	tot	faul	strafen	rächen	1	acq_USunple_CSunple2_RW	acq4567_RW	6	17	400	0	300	300	617	46	0	1	1	blank2r.bmp	0	1	+	0	1	blank2r.bmp	492	1	VKKV	492	1	blank2r.bmp	572	1	faul	866	1	!	1239	1	!	-1	0	0	0	0	0	0	0	0	0	0	0	0	0	0	0	0	0	0	0	0	0	0	0	0	0	0	0	0	0	0
071019	14:19:17	14:31:12	714414	5.0.10.0	5_exp_RW	43	Rpleas_acq	CS_B	BZZB	YDDY	GWWG	VKKV	MQQM	JXXJ	ehrlich	schön	treu	fair	spielen	retten	eitel	schlecht	tot	faul	strafen	rächen	1	acq_USunple_CSunple1_RW	acq4567_RW	6	18	400	0	300	300	606	46	0	1	1	blank2r.bmp	0	1	+	0	1	blank2r.bmp	492	1	GWWG	492	1	blank2r.bmp	572	2	schlecht	866	1	!	1239	1	!	-1	0	0	0	0	0	0	0	0	0	0	0	0	0	0	0	0	0	0	0	0	0	0	0	0	0	0	0	0	0	0
071019	14:19:17	14:31:15	716573	5.0.10.0	5_exp_RW	43	Rpleas_acq	CS_B	BZZB	YDDY	GWWG	VKKV	MQQM	JXXJ	ehrlich	schön	treu	fair	spielen	retten	eitel	schlecht	tot	faul	strafen	rächen	1	acq_USunple_CSunple1_RW	acq4567_RW	6	19	400	1	300	300	357	46	0	1	1	blank2r.bmp	0	1	+	0	1	blank2r.bmp	492	1	GWWG	492	1	blank2r.bmp	572	3	tot	866	1	!	1239	1	!	1252	0	0	0	0	0	0	0	0	0	0	0	0	0	0	0	0	0	0	0	0	0	0	0	0	0	0	0	0	0	0
071019	14:19:17	14:31:17	718772	5.0.10.0	5_exp_RW	43	Rpleas_acq	CS_B	BZZB	YDDY	GWWG	VKKV	MQQM	JXXJ	ehrlich	schön	treu	fair	spielen	retten	eitel	schlecht	tot	faul	strafen	rächen	1	acq_USunple_CSunple2_RW	acq4567_RW	6	20	400	1	300	300	410	46	0	1	1	blank2r.bmp	0	1	+	0	1	blank2r.bmp	492	1	VKKV	492	1	blank2r.bmp	572	3	rächen	866	1	!	1239	1	!	1306	0	0	0	0	0	0	0	0	0	0	0	0	0	0	0	0	0	0	0	0	0	0	0	0	0	0	0	0	0	0
