date	time	script.currenttime	script.elapsedtime	build	script.currentexpt	subject	expressions.LRpleas_acq	expressions.conditionCS_A	expressions.CSpleas_1	expressions.CSpleas_2	expressions.CSunple_1	expressions.CSunple_2	expressions.distractor_1	expressions.distractor_2	expressions.US_pleas1	expressions.US_pleas2	expressions.US_pleas3	expressions.US_pleas4	expressions.US_pleas5	expressions.US_pleas6	expressions.US_unple1	expressions.US_unple2	expressions.US_unple3	expressions.US_unple4	expressions.US_unple5	expressions.US_unple6	counter.positions_noRW	trialcode	blockcode	blocknum	trialnum	windowcenter	inwindow	pretrialpause	posttrialpause	latency	response	expressions.correctedscore	correct	stimulusnumber1	stimulusitem1	stimulusonset1	stimulusnumber2	stimulusitem2	stimulusonset2	stimulusnumber3	stimulusitem3	stimulusonset3	stimulusnumber4	stimulusitem4	stimulusonset4	stimulusnumber5	stimulusitem5	stimulusonset5	stimulusnumber6	stimulusitem6	stimulusonset6	stimulusnumber7	stimulusitem7	stimulusonset7	stimulusnumber8	stimulusitem8	stimulusonset8	stimulusnumber9	stimulusitem9	stimulusonset9	stimulusnumber10	stimulusitem10	stimulusonset10	stimulusnumber11	stimulusitem11	stimulusonset11	stimulusnumber12	stimulusitem12	stimulusonset12	stimulusnumber13	stimulusitem13	stimulusonset13	stimulusnumber14	stimulusitem14	stimulusonset14	stimulusnumber15	stimulusitem15	stimulusonset15	stimulusnumber16	stimulusitem16	stimulusonset16	stimulusnumber17	stimulusitem17	stimulusonset17	stimulusnumber18	stimulusitem18	stimulusonset18
071019	16:00:15	16:00:50	34678	5.0.10.0	5_exp_noRW	44	Rpleas_acq	CS_A	DXXD	JQQJ	LWWL	YFFY	ZHHZ	CPPC	gütig	vertrauen	träumen	genießen	sonnig	küssen	gierig	versagen	töten	gemein	sterben	krank	47pct	acq_USpleas_CSpleas1_noRW	acq1_noRW	1	1	0	0	300	300	2000	0	0	0	1	blank2r.bmp	0	1	+	0	1	blank2r.bmp	252	1	DXXD	306	3	träumen	559	1	FEHLER	2598	1	Schneller!	2598	0	0	0	0	0	0	0	0	0	0	0	0	0	0	0	0	0	0	0	0	0	0	0	0	0	0	0	0	0	0	0	0	0
071019	16:00:15	16:00:54	38104	5.0.10.0	5_exp_noRW	44	Rpleas_acq	CS_A	DXXD	JQQJ	LWWL	YFFY	ZHHZ	CPPC	gütig	vertrauen	träumen	genießen	sonnig	küssen	gierig	versagen	töten	gemein	sterben	krank	53pct	acq_USunple_CSunple1_noRW	acq1_noRW	1	2	0	0	300	300	2000	0	0	0	1	blank2r.bmp	0	1	+	0	1	blank2r.bmp	252	1	LWWL	306	2	versagen	559	1	FEHLER	2598	1	Schneller!	2598	0	0	0	0	0	0	0	0	0	0	0	0	0	0	0	0	0	0	0	0	0	0	0	0	0	0	0	0	0	0	0	0	0
071019	16:00:15	16:00:57	41516	5.0.10.0	5_exp_noRW	44	Rpleas_acq	CS_A	DXXD	JQQJ	LWWL	YFFY	ZHHZ	CPPC	gütig	vertrauen	träumen	genießen	sonnig	küssen	gierig	versagen	töten	gemein	sterben	krank	53pct	acq_USpleas_CSpleas1_noRW	acq1_noRW	1	3	0	0	300	300	2000	0	0	0	1	blank2r.bmp	0	1	+	0	1	blank2r.bmp	252	1	DXXD	306	2	vertrauen	559	1	FEHLER	2598	1	Schneller!	2598	0	0	0	0	0	0	0	0	0	0	0	0	0	0	0	0	0	0	0	0	0	0	0	0	0	0	0	0	0	0	0	0	0
071019	16:00:15	16:01:01	44927	5.0.10.0	5_exp_noRW	44	Rpleas_acq	CS_A	DXXD	JQQJ	LWWL	YFFY	ZHHZ	CPPC	gütig	vertrauen	träumen	genießen	sonnig	küssen	gierig	versagen	töten	gemein	sterben	krank	47pct	acq_USpleas_CSpleas2_noRW	acq1_noRW	1	4	0	0	300	300	2000	0	0	0	1	blank2r.bmp	0	1	+	0	1	blank2r.bmp	252	1	JQQJ	306	2	sonnig	559	1	FEHLER	2598	1	Schneller!	2598	0	0	0	0	0	0	0	0	0	0	0	0	0	0	0	0	0	0	0	0	0	0	0	0	0	0	0	0	0	0	0	0	0
071019	16:00:15	16:01:02	45887	5.0.10.0	5_exp_noRW	44	Rpleas_acq	CS_A	DXXD	JQQJ	LWWL	YFFY	ZHHZ	CPPC	gütig	vertrauen	träumen	genießen	sonnig	küssen	gierig	versagen	töten	gemein	sterben	krank	47pct	acq_USunple_CSunple1_noRW	acq1_noRW	1	5	0	0	300	300	56	46	0	1	1	blank2r.bmp	0	1	+	0	1	blank2r.bmp	252	1	LWWL	306	3	töten	559	0	0	0	0	0	0	0	0	0	0	0	0	0	0	0	0	0	0	0	0	0	0	0	0	0	0	0	0	0	0	0	0	0	0	0	0	0	0	0
071019	16:00:15	16:01:05	49566	5.0.10.0	5_exp_noRW	44	Rpleas_acq	CS_A	DXXD	JQQJ	LWWL	YFFY	ZHHZ	CPPC	gütig	vertrauen	träumen	genießen	sonnig	küssen	gierig	versagen	töten	gemein	sterben	krank	53pct	acq_USunple_CSpleas1_noRW	acq1_noRW	1	6	0	0	300	300	2000	0	0	0	1	blank2r.bmp	0	1	+	0	1	blank2r.bmp	252	1	DXXD	306	2	versagen	559	1	FEHLER	2598	1	Schneller!	2598	0	0	0	0	0	0	0	0	0	0	0	0	0	0	0	0	0	0	0	0	0	0	0	0	0	0	0	0	0	0	0	0	0
071019	16:00:15	16:01:06	50605	5.0.10.0	5_exp_noRW	44	Rpleas_acq	CS_A	DXXD	JQQJ	LWWL	YFFY	ZHHZ	CPPC	gütig	vertrauen	träumen	genießen	sonnig	küssen	gierig	versagen	töten	gemein	sterben	krank	53pct	acq_USpleas_CSpleas2_noRW	acq1_noRW	1	7	0	0	300	300	148	50	0	1	1	blank2r.bmp	0	1	+	0	1	blank2r.bmp	252	1	JQQJ	306	3	küssen	559	0	0	0	0	0	0	0	0	0	0	0	0	0	0	0	0	0	0	0	0	0	0	0	0	0	0	0	0	0	0	0	0	0	0	0	0	0	0	0
071019	16:00:15	16:01:10	54297	5.0.10.0	5_exp_noRW	44	Rpleas_acq	CS_A	DXXD	JQQJ	LWWL	YFFY	ZHHZ	CPPC	gütig	vertrauen	träumen	genießen	sonnig	küssen	gierig	versagen	töten	gemein	sterben	krank	53pct	acq_USpleas_CSpleas1_noRW	acq1_noRW	1	8	0	0	300	300	2000	0	0	0	1	blank2r.bmp	0	1	+	0	1	blank2r.bmp	252	1	DXXD	306	1	gütig	559	1	FEHLER	2598	1	Schneller!	2598	0	0	0	0	0	0	0	0	0	0	0	0	0	0	0	0	0	0	0	0	0	0	0	0	0	0	0	0	0	0	0	0	0
071019	16:00:15	16:01:12	56363	5.0.10.0	5_exp_noRW	44	Rpleas_acq	CS_A	DXXD	JQQJ	LWWL	YFFY	ZHHZ	CPPC	gütig	vertrauen	träumen	genießen	sonnig	küssen	gierig	versagen	töten	gemein	sterben	krank	47pct	acq_USpleas_CSpleas2_noRW	acq1_noRW	1	9	0	0	300	300	1181	50	0	1	1	blank2r.bmp	0	1	+	0	1	blank2r.bmp	252	1	JQQJ	306	1	genießen	559	0	0	0	0	0	0	0	0	0	0	0	0	0	0	0	0	0	0	0	0	0	0	0	0	0	0	0	0	0	0	0	0	0	0	0	0	0	0	0
071019	16:00:15	16:01:15	59068	5.0.10.0	5_exp_noRW	44	Rpleas_acq	CS_A	DXXD	JQQJ	LWWL	YFFY	ZHHZ	CPPC	gütig	vertrauen	träumen	genießen	sonnig	küssen	gierig	versagen	töten	gemein	sterben	krank	53pct	acq_USunple_CSunple2_noRW	acq1_noRW	1	10	0	0	300	300	1521	46	0	1	1	blank2r.bmp	0	1	+	0	1	blank2r.bmp	252	1	YFFY	306	1	gemein	559	0	0	0	0	0	0	0	0	0	0	0	0	0	0	0	0	0	0	0	0	0	0	0	0	0	0	0	0	0	0	0	0	0	0	0	0	0	0	0
071019	16:00:15	16:01:17	61161	5.0.10.0	5_exp_noRW	44	Rpleas_acq	CS_A	DXXD	JQQJ	LWWL	YFFY	ZHHZ	CPPC	gütig	vertrauen	träumen	genießen	sonnig	küssen	gierig	versagen	töten	gemein	sterben	krank	47pct	acq_USunple_CSunple2_noRW	acq1_noRW	1	11	0	0	300	300	931	46	0	1	1	blank2r.bmp	0	1	+	0	1	blank2r.bmp	252	1	YFFY	306	3	krank	559	0	0	0	0	0	0	0	0	0	0	0	0	0	0	0	0	0	0	0	0	0	0	0	0	0	0	0	0	0	0	0	0	0	0	0	0	0	0	0
071019	16:00:15	16:01:19	63187	5.0.10.0	5_exp_noRW	44	Rpleas_acq	CS_A	DXXD	JQQJ	LWWL	YFFY	ZHHZ	CPPC	gütig	vertrauen	träumen	genießen	sonnig	küssen	gierig	versagen	töten	gemein	sterben	krank	53pct	acq_USunple_CSunple1_noRW	acq1_noRW	1	12	0	0	300	300	845	46	0	1	1	blank2r.bmp	0	1	+	0	1	blank2r.bmp	252	1	LWWL	306	1	gierig	559	0	0	0	0	0	0	0	0	0	0	0	0	0	0	0	0	0	0	0	0	0	0	0	0	0	0	0	0	0	0	0	0	0	0	0	0	0	0	0
071019	16:00:15	16:01:21	65626	5.0.10.0	5_exp_noRW	44	Rpleas_acq	CS_A	DXXD	JQQJ	LWWL	YFFY	ZHHZ	CPPC	gütig	vertrauen	träumen	genießen	sonnig	küssen	gierig	versagen	töten	gemein	sterben	krank	53pct	acq_USpleas_CSunple2_noRW	acq1_noRW	1	13	0	0	300	300	1270	50	0	1	1	blank2r.bmp	0	1	+	0	1	blank2r.bmp	252	1	YFFY	306	3	küssen	559	0	0	0	0	0	0	0	0	0	0	0	0	0	0	0	0	0	0	0	0	0	0	0	0	0	0	0	0	0	0	0	0	0	0	0	0	0	0	0
071019	16:00:15	16:01:24	67758	5.0.10.0	5_exp_noRW	44	Rpleas_acq	CS_A	DXXD	JQQJ	LWWL	YFFY	ZHHZ	CPPC	gütig	vertrauen	träumen	genießen	sonnig	küssen	gierig	versagen	töten	gemein	sterben	krank	53pct	acq_USpleas_CSunple1_noRW	acq1_noRW	1	14	0	0	300	300	953	50	0	1	1	blank2r.bmp	0	1	+	0	1	blank2r.bmp	252	1	LWWL	306	3	träumen	559	0	0	0	0	0	0	0	0	0	0	0	0	0	0	0	0	0	0	0	0	0	0	0	0	0	0	0	0	0	0	0	0	0	0	0	0	0	0	0
071019	16:00:15	16:01:27	71437	5.0.10.0	5_exp_noRW	44	Rpleas_acq	CS_A	DXXD	JQQJ	LWWL	YFFY	ZHHZ	CPPC	gütig	vertrauen	träumen	genießen	sonnig	küssen	gierig	versagen	töten	gemein	sterben	krank	53pct	acq_USunple_CSpleas2_noRW	acq1_noRW	1	15	0	0	300	300	2000	0	0	0	1	blank2r.bmp	0	1	+	0	1	blank2r.bmp	252	1	JQQJ	306	2	sterben	559	1	FEHLER	2598	1	Schneller!	2598	0	0	0	0	0	0	0	0	0	0	0	0	0	0	0	0	0	0	0	0	0	0	0	0	0	0	0	0	0	0	0	0	0
071019	16:00:15	16:01:31	74849	5.0.10.0	5_exp_noRW	44	Rpleas_acq	CS_A	DXXD	JQQJ	LWWL	YFFY	ZHHZ	CPPC	gütig	vertrauen	träumen	genießen	sonnig	küssen	gierig	versagen	töten	gemein	sterben	krank	53pct	acq_USunple_CSunple2_noRW	acq1_noRW	1	16	0	0	300	300	2000	0	0	0	1	blank2r.bmp	0	1	+	0	1	blank2r.bmp	252	1	YFFY	306	2	sterben	559	1	FEHLER	2598	1	Schneller!	2598	0	0	0	0	0	0	0	0	0	0	0	0	0	0	0	0	0	0	0	0	0	0	0	0	0	0	0	0	0	0	0	0	0
071019	16:00:15	16:01:32	76688	5.0.10.0	5_exp_noRW	44	Rpleas_acq	CS_A	DXXD	JQQJ	LWWL	YFFY	ZHHZ	CPPC	gütig	vertrauen	träumen	genießen	sonnig	küssen	gierig	versagen	töten	gemein	sterben	krank	53pct	acq_USunple_CSunple1_noRW	acq1_noRW	1	17	0	0	300	300	931	46	0	1	1	blank2r.bmp	0	1	+	0	1	blank2r.bmp	252	1	LWWL	306	3	töten	559	0	0	0	0	0	0	0	0	0	0	0	0	0	0	0	0	0	0	0	0	0	0	0	0	0	0	0	0	0	0	0	0	0	0	0	0	0	0	0
071019	16:00:15	16:01:35	79380	5.0.10.0	5_exp_noRW	44	Rpleas_acq	CS_A	DXXD	JQQJ	LWWL	YFFY	ZHHZ	CPPC	gütig	vertrauen	träumen	genießen	sonnig	küssen	gierig	versagen	töten	gemein	sterben	krank	47pct	acq_USpleas_CSpleas2_noRW	acq1_noRW	1	18	0	0	300	300	1518	50	0	1	1	blank2r.bmp	0	1	+	0	1	blank2r.bmp	252	1	JQQJ	306	1	genießen	559	0	0	0	0	0	0	0	0	0	0	0	0	0	0	0	0	0	0	0	0	0	0	0	0	0	0	0	0	0	0	0	0	0	0	0	0	0	0	0
071019	16:00:15	16:01:37	81166	5.0.10.0	5_exp_noRW	44	Rpleas_acq	CS_A	DXXD	JQQJ	LWWL	YFFY	ZHHZ	CPPC	gütig	vertrauen	träumen	genießen	sonnig	küssen	gierig	versagen	töten	gemein	sterben	krank	47pct	acq_USpleas_CSpleas1_noRW	acq1_noRW	1	19	0	0	300	300	618	50	0	1	1	blank2r.bmp	0	1	+	0	1	blank2r.bmp	252	1	DXXD	306	1	gütig	559	0	0	0	0	0	0	0	0	0	0	0	0	0	0	0	0	0	0	0	0	0	0	0	0	0	0	0	0	0	0	0	0	0	0	0	0	0	0	0
071019	16:00:15	16:01:39	83165	5.0.10.0	5_exp_noRW	44	Rpleas_acq	CS_A	DXXD	JQQJ	LWWL	YFFY	ZHHZ	CPPC	gütig	vertrauen	träumen	genießen	sonnig	küssen	gierig	versagen	töten	gemein	sterben	krank	53pct	acq_USunple_CSunple2_noRW	acq1_noRW	1	20	0	0	300	300	818	46	0	1	1	blank2r.bmp	0	1	+	0	1	blank2r.bmp	252	1	YFFY	306	2	sterben	559	0	0	0	0	0	0	0	0	0	0	0	0	0	0	0	0	0	0	0	0	0	0	0	0	0	0	0	0	0	0	0	0	0	0	0	0	0	0	0
071019	16:00:15	16:01:41	85151	5.0.10.0	5_exp_noRW	44	Rpleas_acq	CS_A	DXXD	JQQJ	LWWL	YFFY	ZHHZ	CPPC	gütig	vertrauen	träumen	genießen	sonnig	küssen	gierig	versagen	töten	gemein	sterben	krank	47pct	acq_USunple_CSunple2_noRW	acq1_noRW	1	21	0	0	300	300	807	46	0	1	1	blank2r.bmp	0	1	+	0	1	blank2r.bmp	252	1	YFFY	306	1	gemein	559	0	0	0	0	0	0	0	0	0	0	0	0	0	0	0	0	0	0	0	0	0	0	0	0	0	0	0	0	0	0	0	0	0	0	0	0	0	0	0
071019	16:00:15	16:01:43	86924	5.0.10.0	5_exp_noRW	44	Rpleas_acq	CS_A	DXXD	JQQJ	LWWL	YFFY	ZHHZ	CPPC	gütig	vertrauen	träumen	genießen	sonnig	küssen	gierig	versagen	töten	gemein	sterben	krank	53pct	acq_USunple_CSunple1_noRW	acq1_noRW	1	22	0	0	300	300	602	46	0	1	1	blank2r.bmp	0	1	+	0	1	blank2r.bmp	252	1	LWWL	306	1	gierig	559	0	0	0	0	0	0	0	0	0	0	0	0	0	0	0	0	0	0	0	0	0	0	0	0	0	0	0	0	0	0	0	0	0	0	0	0	0	0	0
071019	16:00:15	16:01:45	89429	5.0.10.0	5_exp_noRW	44	Rpleas_acq	CS_A	DXXD	JQQJ	LWWL	YFFY	ZHHZ	CPPC	gütig	vertrauen	träumen	genießen	sonnig	küssen	gierig	versagen	töten	gemein	sterben	krank	47pct	acq_USpleas_CSpleas1_noRW	acq1_noRW	1	23	0	0	300	300	1328	50	0	1	1	blank2r.bmp	0	1	+	0	1	blank2r.bmp	252	1	DXXD	306	3	träumen	559	0	0	0	0	0	0	0	0	0	0	0	0	0	0	0	0	0	0	0	0	0	0	0	0	0	0	0	0	0	0	0	0	0	0	0	0	0	0	0
071019	16:00:15	16:01:47	91482	5.0.10.0	5_exp_noRW	44	Rpleas_acq	CS_A	DXXD	JQQJ	LWWL	YFFY	ZHHZ	CPPC	gütig	vertrauen	träumen	genießen	sonnig	küssen	gierig	versagen	töten	gemein	sterben	krank	47pct	acq_USpleas_CSpleas1_noRW	acq1_noRW	1	24	0	0	300	300	868	50	0	1	1	blank2r.bmp	0	1	+	0	1	blank2r.bmp	252	1	DXXD	306	2	vertrauen	559	0	0	0	0	0	0	0	0	0	0	0	0	0	0	0	0	0	0	0	0	0	0	0	0	0	0	0	0	0	0	0	0	0	0	0	0	0	0	0
071019	16:00:15	16:01:49	93601	5.0.10.0	5_exp_noRW	44	Rpleas_acq	CS_A	DXXD	JQQJ	LWWL	YFFY	ZHHZ	CPPC	gütig	vertrauen	träumen	genießen	sonnig	küssen	gierig	versagen	töten	gemein	sterben	krank	53pct	acq_USpleas_CSpleas2_noRW	acq1_noRW	1	25	0	0	300	300	938	50	0	1	1	blank2r.bmp	0	1	+	0	1	blank2r.bmp	252	1	JQQJ	306	2	sonnig	559	0	0	0	0	0	0	0	0	0	0	0	0	0	0	0	0	0	0	0	0	0	0	0	0	0	0	0	0	0	0	0	0	0	0	0	0	0	0	0
071019	16:00:15	16:01:51	95613	5.0.10.0	5_exp_noRW	44	Rpleas_acq	CS_A	DXXD	JQQJ	LWWL	YFFY	ZHHZ	CPPC	gütig	vertrauen	träumen	genießen	sonnig	küssen	gierig	versagen	töten	gemein	sterben	krank	53pct	acq_USunple_CSunple2_noRW	acq1_noRW	1	26	0	0	300	300	830	46	0	1	1	blank2r.bmp	0	1	+	0	1	blank2r.bmp	252	1	YFFY	306	3	krank	559	0	0	0	0	0	0	0	0	0	0	0	0	0	0	0	0	0	0	0	0	0	0	0	0	0	0	0	0	0	0	0	0	0	0	0	0	0	0	0
071019	16:00:15	16:01:54	97946	5.0.10.0	5_exp_noRW	44	Rpleas_acq	CS_A	DXXD	JQQJ	LWWL	YFFY	ZHHZ	CPPC	gütig	vertrauen	träumen	genießen	sonnig	küssen	gierig	versagen	töten	gemein	sterben	krank	53pct	acq_USpleas_CSunple1_noRW	acq1_noRW	1	27	0	0	300	300	1148	50	0	1	1	blank2r.bmp	0	1	+	0	1	blank2r.bmp	252	1	LWWL	306	1	gütig	559	0	0	0	0	0	0	0	0	0	0	0	0	0	0	0	0	0	0	0	0	0	0	0	0	0	0	0	0	0	0	0	0	0	0	0	0	0	0	0
071019	16:00:15	16:01:56	99945	5.0.10.0	5_exp_noRW	44	Rpleas_acq	CS_A	DXXD	JQQJ	LWWL	YFFY	ZHHZ	CPPC	gütig	vertrauen	träumen	genießen	sonnig	küssen	gierig	versagen	töten	gemein	sterben	krank	53pct	acq_USunple_CSpleas2_noRW	acq1_noRW	1	28	0	0	300	300	833	46	0	1	1	blank2r.bmp	0	1	+	0	1	blank2r.bmp	252	1	JQQJ	306	3	krank	559	0	0	0	0	0	0	0	0	0	0	0	0	0	0	0	0	0	0	0	0	0	0	0	0	0	0	0	0	0	0	0	0	0	0	0	0	0	0	0
071019	16:00:15	16:01:58	102051	5.0.10.0	5_exp_noRW	44	Rpleas_acq	CS_A	DXXD	JQQJ	LWWL	YFFY	ZHHZ	CPPC	gütig	vertrauen	träumen	genießen	sonnig	küssen	gierig	versagen	töten	gemein	sterben	krank	53pct	acq_USpleas_CSunple2_noRW	acq1_noRW	1	29	0	0	300	300	923	50	0	1	1	blank2r.bmp	0	1	+	0	1	blank2r.bmp	252	1	YFFY	306	1	genießen	559	0	0	0	0	0	0	0	0	0	0	0	0	0	0	0	0	0	0	0	0	0	0	0	0	0	0	0	0	0	0	0	0	0	0	0	0	0	0	0
071019	16:00:15	16:02:00	104210	5.0.10.0	5_exp_noRW	44	Rpleas_acq	CS_A	DXXD	JQQJ	LWWL	YFFY	ZHHZ	CPPC	gütig	vertrauen	träumen	genießen	sonnig	küssen	gierig	versagen	töten	gemein	sterben	krank	47pct	acq_USunple_CSunple1_noRW	acq1_noRW	1	30	0	0	300	300	996	46	0	1	1	blank2r.bmp	0	1	+	0	1	blank2r.bmp	252	1	LWWL	306	2	versagen	559	0	0	0	0	0	0	0	0	0	0	0	0	0	0	0	0	0	0	0	0	0	0	0	0	0	0	0	0	0	0	0	0	0	0	0	0	0	0	0
071019	16:00:15	16:02:02	106182	5.0.10.0	5_exp_noRW	44	Rpleas_acq	CS_A	DXXD	JQQJ	LWWL	YFFY	ZHHZ	CPPC	gütig	vertrauen	träumen	genießen	sonnig	küssen	gierig	versagen	töten	gemein	sterben	krank	47pct	acq_USunple_CSunple1_noRW	acq1_noRW	1	31	0	0	300	300	795	46	0	1	1	blank2r.bmp	0	1	+	0	1	blank2r.bmp	252	1	LWWL	306	2	versagen	559	0	0	0	0	0	0	0	0	0	0	0	0	0	0	0	0	0	0	0	0	0	0	0	0	0	0	0	0	0	0	0	0	0	0	0	0	0	0	0
071019	16:00:15	16:02:04	108235	5.0.10.0	5_exp_noRW	44	Rpleas_acq	CS_A	DXXD	JQQJ	LWWL	YFFY	ZHHZ	CPPC	gütig	vertrauen	träumen	genießen	sonnig	küssen	gierig	versagen	töten	gemein	sterben	krank	53pct	acq_USpleas_CSpleas2_noRW	acq1_noRW	1	32	0	0	300	300	877	50	0	1	1	blank2r.bmp	0	1	+	0	1	blank2r.bmp	252	1	JQQJ	306	3	küssen	559	0	0	0	0	0	0	0	0	0	0	0	0	0	0	0	0	0	0	0	0	0	0	0	0	0	0	0	0	0	0	0	0	0	0	0	0	0	0	0
071019	16:00:15	16:02:06	110207	5.0.10.0	5_exp_noRW	44	Rpleas_acq	CS_A	DXXD	JQQJ	LWWL	YFFY	ZHHZ	CPPC	gütig	vertrauen	träumen	genießen	sonnig	küssen	gierig	versagen	töten	gemein	sterben	krank	47pct	acq_USpleas_CSpleas1_noRW	acq1_noRW	1	33	0	0	300	300	790	50	0	1	1	blank2r.bmp	0	1	+	0	1	blank2r.bmp	252	1	DXXD	306	2	vertrauen	559	0	0	0	0	0	0	0	0	0	0	0	0	0	0	0	0	0	0	0	0	0	0	0	0	0	0	0	0	0	0	0	0	0	0	0	0	0	0	0
071019	16:00:15	16:02:08	112167	5.0.10.0	5_exp_noRW	44	Rpleas_acq	CS_A	DXXD	JQQJ	LWWL	YFFY	ZHHZ	CPPC	gütig	vertrauen	träumen	genießen	sonnig	küssen	gierig	versagen	töten	gemein	sterben	krank	53pct	acq_USunple_CSunple2_noRW	acq1_noRW	1	34	0	0	300	300	787	46	0	1	1	blank2r.bmp	0	1	+	0	1	blank2r.bmp	252	1	YFFY	306	3	krank	559	0	0	0	0	0	0	0	0	0	0	0	0	0	0	0	0	0	0	0	0	0	0	0	0	0	0	0	0	0	0	0	0	0	0	0	0	0	0	0
071019	16:00:15	16:02:10	114139	5.0.10.0	5_exp_noRW	44	Rpleas_acq	CS_A	DXXD	JQQJ	LWWL	YFFY	ZHHZ	CPPC	gütig	vertrauen	träumen	genießen	sonnig	küssen	gierig	versagen	töten	gemein	sterben	krank	47pct	acq_USunple_CSunple1_noRW	acq1_noRW	1	35	0	0	300	300	792	46	0	1	1	blank2r.bmp	0	1	+	0	1	blank2r.bmp	252	1	LWWL	306	3	töten	559	0	0	0	0	0	0	0	0	0	0	0	0	0	0	0	0	0	0	0	0	0	0	0	0	0	0	0	0	0	0	0	0	0	0	0	0	0	0	0
071019	16:00:15	16:02:12	116165	5.0.10.0	5_exp_noRW	44	Rpleas_acq	CS_A	DXXD	JQQJ	LWWL	YFFY	ZHHZ	CPPC	gütig	vertrauen	träumen	genießen	sonnig	küssen	gierig	versagen	töten	gemein	sterben	krank	47pct	acq_USunple_CSunple2_noRW	acq1_noRW	1	36	0	0	300	300	853	46	0	1	1	blank2r.bmp	0	1	+	0	1	blank2r.bmp	252	1	YFFY	306	1	gemein	559	0	0	0	0	0	0	0	0	0	0	0	0	0	0	0	0	0	0	0	0	0	0	0	0	0	0	0	0	0	0	0	0	0	0	0	0	0	0	0
071019	16:00:15	16:02:15	118777	5.0.10.0	5_exp_noRW	44	Rpleas_acq	CS_A	DXXD	JQQJ	LWWL	YFFY	ZHHZ	CPPC	gütig	vertrauen	träumen	genießen	sonnig	küssen	gierig	versagen	töten	gemein	sterben	krank	47pct	acq_USpleas_CSpleas2_noRW	acq1_noRW	1	37	0	0	300	300	1440	50	0	1	1	blank2r.bmp	0	1	+	0	1	blank2r.bmp	252	1	JQQJ	306	1	genießen	559	0	0	0	0	0	0	0	0	0	0	0	0	0	0	0	0	0	0	0	0	0	0	0	0	0	0	0	0	0	0	0	0	0	0	0	0	0	0	0
071019	16:00:15	16:02:17	121056	5.0.10.0	5_exp_noRW	44	Rpleas_acq	CS_A	DXXD	JQQJ	LWWL	YFFY	ZHHZ	CPPC	gütig	vertrauen	träumen	genießen	sonnig	küssen	gierig	versagen	töten	gemein	sterben	krank	47pct	acq_USpleas_CSpleas2_noRW	acq1_noRW	1	38	0	0	300	300	1107	50	0	1	1	blank2r.bmp	0	1	+	0	1	blank2r.bmp	252	1	JQQJ	306	2	sonnig	559	0	0	0	0	0	0	0	0	0	0	0	0	0	0	0	0	0	0	0	0	0	0	0	0	0	0	0	0	0	0	0	0	0	0	0	0	0	0	0
071019	16:00:15	16:02:19	123575	5.0.10.0	5_exp_noRW	44	Rpleas_acq	CS_A	DXXD	JQQJ	LWWL	YFFY	ZHHZ	CPPC	gütig	vertrauen	träumen	genießen	sonnig	küssen	gierig	versagen	töten	gemein	sterben	krank	47pct	acq_USunple_CSpleas1_noRW	acq1_noRW	1	39	0	0	300	300	1123	50	0	0	1	blank2r.bmp	0	1	+	0	1	blank2r.bmp	252	1	DXXD	306	3	töten	559	1	FEHLER	1719	0	0	0	0	0	0	0	0	0	0	0	0	0	0	0	0	0	0	0	0	0	0	0	0	0	0	0	0	0	0	0	0	0	0	0	0
071019	16:00:15	16:02:22	126467	5.0.10.0	5_exp_noRW	44	Rpleas_acq	CS_A	DXXD	JQQJ	LWWL	YFFY	ZHHZ	CPPC	gütig	vertrauen	träumen	genießen	sonnig	küssen	gierig	versagen	töten	gemein	sterben	krank	53pct	acq_USpleas_CSpleas1_noRW	acq1_noRW	1	40	0	0	300	300	1925	50	0	1	1	blank2r.bmp	0	1	+	0	1	blank2r.bmp	252	1	DXXD	306	3	träumen	559	0	0	0	0	0	0	0	0	0	0	0	0	0	0	0	0	0	0	0	0	0	0	0	0	0	0	0	0	0	0	0	0	0	0	0	0	0	0	0
071019	16:00:15	16:02:24	128467	5.0.10.0	5_exp_noRW	44	Rpleas_acq	CS_A	DXXD	JQQJ	LWWL	YFFY	ZHHZ	CPPC	gütig	vertrauen	träumen	genießen	sonnig	küssen	gierig	versagen	töten	gemein	sterben	krank	47pct	acq_USunple_CSunple2_noRW	acq1_noRW	1	41	0	0	300	300	821	46	0	1	1	blank2r.bmp	0	1	+	0	1	blank2r.bmp	252	1	YFFY	306	2	sterben	559	0	0	0	0	0	0	0	0	0	0	0	0	0	0	0	0	0	0	0	0	0	0	0	0	0	0	0	0	0	0	0	0	0	0	0	0	0	0	0
071019	16:00:15	16:02:26	130586	5.0.10.0	5_exp_noRW	44	Rpleas_acq	CS_A	DXXD	JQQJ	LWWL	YFFY	ZHHZ	CPPC	gütig	vertrauen	träumen	genießen	sonnig	küssen	gierig	versagen	töten	gemein	sterben	krank	53pct	acq_USunple_CSpleas1_noRW	acq1_noRW	1	42	0	0	300	300	940	46	0	1	1	blank2r.bmp	0	1	+	0	1	blank2r.bmp	252	1	DXXD	306	1	gierig	559	0	0	0	0	0	0	0	0	0	0	0	0	0	0	0	0	0	0	0	0	0	0	0	0	0	0	0	0	0	0	0	0	0	0	0	0	0	0	0
071019	16:00:15	16:02:28	132478	5.0.10.0	5_exp_noRW	44	Rpleas_acq	CS_A	DXXD	JQQJ	LWWL	YFFY	ZHHZ	CPPC	gütig	vertrauen	träumen	genießen	sonnig	küssen	gierig	versagen	töten	gemein	sterben	krank	47pct	acq_USpleas_CSpleas2_noRW	acq1_noRW	1	43	0	0	300	300	711	50	0	1	1	blank2r.bmp	0	1	+	0	1	blank2r.bmp	252	1	JQQJ	306	3	küssen	559	0	0	0	0	0	0	0	0	0	0	0	0	0	0	0	0	0	0	0	0	0	0	0	0	0	0	0	0	0	0	0	0	0	0	0	0	0	0	0
071019	16:00:15	16:02:30	134557	5.0.10.0	5_exp_noRW	44	Rpleas_acq	CS_A	DXXD	JQQJ	LWWL	YFFY	ZHHZ	CPPC	gütig	vertrauen	träumen	genießen	sonnig	küssen	gierig	versagen	töten	gemein	sterben	krank	47pct	acq_USpleas_CSpleas2_noRW	acq1_noRW	1	44	0	0	300	300	914	50	0	1	1	blank2r.bmp	0	1	+	0	1	blank2r.bmp	252	1	JQQJ	306	2	sonnig	559	0	0	0	0	0	0	0	0	0	0	0	0	0	0	0	0	0	0	0	0	0	0	0	0	0	0	0	0	0	0	0	0	0	0	0	0	0	0	0
071019	16:00:15	16:02:32	136637	5.0.10.0	5_exp_noRW	44	Rpleas_acq	CS_A	DXXD	JQQJ	LWWL	YFFY	ZHHZ	CPPC	gütig	vertrauen	träumen	genießen	sonnig	küssen	gierig	versagen	töten	gemein	sterben	krank	47pct	acq_USpleas_CSunple1_noRW	acq1_noRW	1	45	0	0	300	300	905	50	0	1	1	blank2r.bmp	0	1	+	0	1	blank2r.bmp	252	1	LWWL	306	2	vertrauen	559	0	0	0	0	0	0	0	0	0	0	0	0	0	0	0	0	0	0	0	0	0	0	0	0	0	0	0	0	0	0	0	0	0	0	0	0	0	0	0
071019	16:00:15	16:02:34	138542	5.0.10.0	5_exp_noRW	44	Rpleas_acq	CS_A	DXXD	JQQJ	LWWL	YFFY	ZHHZ	CPPC	gütig	vertrauen	träumen	genießen	sonnig	küssen	gierig	versagen	töten	gemein	sterben	krank	47pct	acq_USpleas_CSunple2_noRW	acq1_noRW	1	46	0	0	300	300	741	50	0	1	1	blank2r.bmp	0	1	+	0	1	blank2r.bmp	252	1	YFFY	306	2	sonnig	559	0	0	0	0	0	0	0	0	0	0	0	0	0	0	0	0	0	0	0	0	0	0	0	0	0	0	0	0	0	0	0	0	0	0	0	0	0	0	0
071019	16:00:15	16:02:36	140182	5.0.10.0	5_exp_noRW	44	Rpleas_acq	CS_A	DXXD	JQQJ	LWWL	YFFY	ZHHZ	CPPC	gütig	vertrauen	träumen	genießen	sonnig	küssen	gierig	versagen	töten	gemein	sterben	krank	47pct	acq_USpleas_CSpleas1_noRW	acq1_noRW	1	47	0	0	300	300	453	50	0	1	1	blank2r.bmp	0	1	+	0	1	blank2r.bmp	252	1	DXXD	306	1	gütig	559	0	0	0	0	0	0	0	0	0	0	0	0	0	0	0	0	0	0	0	0	0	0	0	0	0	0	0	0	0	0	0	0	0	0	0	0	0	0	0
071019	16:00:15	16:02:38	141994	5.0.10.0	5_exp_noRW	44	Rpleas_acq	CS_A	DXXD	JQQJ	LWWL	YFFY	ZHHZ	CPPC	gütig	vertrauen	träumen	genießen	sonnig	küssen	gierig	versagen	töten	gemein	sterben	krank	53pct	acq_USunple_CSunple1_noRW	acq1_noRW	1	48	0	0	300	300	422	50	0	0	1	blank2r.bmp	0	1	+	0	1	blank2r.bmp	252	1	LWWL	306	1	gierig	559	1	FEHLER	1012	0	0	0	0	0	0	0	0	0	0	0	0	0	0	0	0	0	0	0	0	0	0	0	0	0	0	0	0	0	0	0	0	0	0	0	0
071019	16:00:15	16:02:40	143767	5.0.10.0	5_exp_noRW	44	Rpleas_acq	CS_A	DXXD	JQQJ	LWWL	YFFY	ZHHZ	CPPC	gütig	vertrauen	träumen	genießen	sonnig	küssen	gierig	versagen	töten	gemein	sterben	krank	47pct	acq_USunple_CSpleas2_noRW	acq1_noRW	1	49	0	0	300	300	799	46	0	1	1	blank2r.bmp	0	1	+	0	1	blank2r.bmp	252	1	JQQJ	306	1	gemein	559	0	0	0	0	0	0	0	0	0	0	0	0	0	0	0	0	0	0	0	0	0	0	0	0	0	0	0	0	0	0	0	0	0	0	0	0	0	0	0
071019	16:00:15	16:02:42	145900	5.0.10.0	5_exp_noRW	44	Rpleas_acq	CS_A	DXXD	JQQJ	LWWL	YFFY	ZHHZ	CPPC	gütig	vertrauen	träumen	genießen	sonnig	küssen	gierig	versagen	töten	gemein	sterben	krank	47pct	acq_USpleas_CSpleas1_noRW	acq1_noRW	1	50	0	0	300	300	969	50	0	1	1	blank2r.bmp	0	1	+	0	1	blank2r.bmp	252	1	DXXD	306	2	vertrauen	559	0	0	0	0	0	0	0	0	0	0	0	0	0	0	0	0	0	0	0	0	0	0	0	0	0	0	0	0	0	0	0	0	0	0	0	0	0	0	0
071019	16:00:15	16:02:44	148392	5.0.10.0	5_exp_noRW	44	Rpleas_acq	CS_A	DXXD	JQQJ	LWWL	YFFY	ZHHZ	CPPC	gütig	vertrauen	träumen	genießen	sonnig	küssen	gierig	versagen	töten	gemein	sterben	krank	47pct	acq_USpleas_CSpleas2_noRW	acq1_noRW	1	51	0	0	300	300	1307	50	0	1	1	blank2r.bmp	0	1	+	0	1	blank2r.bmp	252	1	JQQJ	306	1	genießen	559	0	0	0	0	0	0	0	0	0	0	0	0	0	0	0	0	0	0	0	0	0	0	0	0	0	0	0	0	0	0	0	0	0	0	0	0	0	0	0
071019	16:00:15	16:02:46	150471	5.0.10.0	5_exp_noRW	44	Rpleas_acq	CS_A	DXXD	JQQJ	LWWL	YFFY	ZHHZ	CPPC	gütig	vertrauen	träumen	genießen	sonnig	küssen	gierig	versagen	töten	gemein	sterben	krank	47pct	acq_USunple_CSunple2_noRW	acq1_noRW	1	52	0	0	300	300	909	46	0	1	1	blank2r.bmp	0	1	+	0	1	blank2r.bmp	252	1	YFFY	306	3	krank	559	0	0	0	0	0	0	0	0	0	0	0	0	0	0	0	0	0	0	0	0	0	0	0	0	0	0	0	0	0	0	0	0	0	0	0	0	0	0	0
071019	16:00:15	16:02:49	152897	5.0.10.0	5_exp_noRW	44	Rpleas_acq	CS_A	DXXD	JQQJ	LWWL	YFFY	ZHHZ	CPPC	gütig	vertrauen	träumen	genießen	sonnig	küssen	gierig	versagen	töten	gemein	sterben	krank	47pct	acq_USunple_CSunple2_noRW	acq1_noRW	1	53	0	0	300	300	1258	46	0	1	1	blank2r.bmp	0	1	+	0	1	blank2r.bmp	252	1	YFFY	306	1	gemein	559	0	0	0	0	0	0	0	0	0	0	0	0	0	0	0	0	0	0	0	0	0	0	0	0	0	0	0	0	0	0	0	0	0	0	0	0	0	0	0
071019	16:00:15	16:02:50	154683	5.0.10.0	5_exp_noRW	44	Rpleas_acq	CS_A	DXXD	JQQJ	LWWL	YFFY	ZHHZ	CPPC	gütig	vertrauen	träumen	genießen	sonnig	küssen	gierig	versagen	töten	gemein	sterben	krank	47pct	acq_USunple_CSunple1_noRW	acq1_noRW	1	54	0	0	300	300	608	46	0	1	1	blank2r.bmp	0	1	+	0	1	blank2r.bmp	252	1	LWWL	306	1	gierig	559	0	0	0	0	0	0	0	0	0	0	0	0	0	0	0	0	0	0	0	0	0	0	0	0	0	0	0	0	0	0	0	0	0	0	0	0	0	0	0
071019	16:00:15	16:02:52	156309	5.0.10.0	5_exp_noRW	44	Rpleas_acq	CS_A	DXXD	JQQJ	LWWL	YFFY	ZHHZ	CPPC	gütig	vertrauen	träumen	genießen	sonnig	küssen	gierig	versagen	töten	gemein	sterben	krank	47pct	acq_USpleas_CSpleas2_noRW	acq1_noRW	1	55	0	0	300	300	447	50	0	1	1	blank2r.bmp	0	1	+	0	1	blank2r.bmp	252	1	JQQJ	306	3	küssen	559	0	0	0	0	0	0	0	0	0	0	0	0	0	0	0	0	0	0	0	0	0	0	0	0	0	0	0	0	0	0	0	0	0	0	0	0	0	0	0
071019	16:00:15	16:02:54	158068	5.0.10.0	5_exp_noRW	44	Rpleas_acq	CS_A	DXXD	JQQJ	LWWL	YFFY	ZHHZ	CPPC	gütig	vertrauen	träumen	genießen	sonnig	küssen	gierig	versagen	töten	gemein	sterben	krank	47pct	acq_USunple_CSunple1_noRW	acq1_noRW	1	56	0	0	300	300	575	46	0	1	1	blank2r.bmp	0	1	+	0	1	blank2r.bmp	252	1	LWWL	306	3	töten	559	0	0	0	0	0	0	0	0	0	0	0	0	0	0	0	0	0	0	0	0	0	0	0	0	0	0	0	0	0	0	0	0	0	0	0	0	0	0	0
071019	16:00:15	16:02:56	159867	5.0.10.0	5_exp_noRW	44	Rpleas_acq	CS_A	DXXD	JQQJ	LWWL	YFFY	ZHHZ	CPPC	gütig	vertrauen	träumen	genießen	sonnig	küssen	gierig	versagen	töten	gemein	sterben	krank	53pct	acq_USunple_CSunple1_noRW	acq1_noRW	1	57	0	0	300	300	631	46	0	1	1	blank2r.bmp	0	1	+	0	1	blank2r.bmp	252	1	LWWL	306	2	versagen	559	0	0	0	0	0	0	0	0	0	0	0	0	0	0	0	0	0	0	0	0	0	0	0	0	0	0	0	0	0	0	0	0	0	0	0	0	0	0	0
071019	16:00:15	16:02:57	161560	5.0.10.0	5_exp_noRW	44	Rpleas_acq	CS_A	DXXD	JQQJ	LWWL	YFFY	ZHHZ	CPPC	gütig	vertrauen	träumen	genießen	sonnig	küssen	gierig	versagen	töten	gemein	sterben	krank	47pct	acq_USpleas_CSpleas1_noRW	acq1_noRW	1	58	0	0	300	300	509	50	0	1	1	blank2r.bmp	0	1	+	0	1	blank2r.bmp	252	1	DXXD	306	3	träumen	559	0	0	0	0	0	0	0	0	0	0	0	0	0	0	0	0	0	0	0	0	0	0	0	0	0	0	0	0	0	0	0	0	0	0	0	0	0	0	0
071019	16:00:15	16:02:59	163372	5.0.10.0	5_exp_noRW	44	Rpleas_acq	CS_A	DXXD	JQQJ	LWWL	YFFY	ZHHZ	CPPC	gütig	vertrauen	träumen	genießen	sonnig	küssen	gierig	versagen	töten	gemein	sterben	krank	47pct	acq_USpleas_CSpleas1_noRW	acq1_noRW	1	59	0	0	300	300	433	46	0	0	1	blank2r.bmp	0	1	+	0	1	blank2r.bmp	252	1	DXXD	306	1	gütig	559	1	FEHLER	1026	0	0	0	0	0	0	0	0	0	0	0	0	0	0	0	0	0	0	0	0	0	0	0	0	0	0	0	0	0	0	0	0	0	0	0	0
071019	16:00:15	16:03:01	164838	5.0.10.0	5_exp_noRW	44	Rpleas_acq	CS_A	DXXD	JQQJ	LWWL	YFFY	ZHHZ	CPPC	gütig	vertrauen	träumen	genießen	sonnig	küssen	gierig	versagen	töten	gemein	sterben	krank	47pct	acq_USunple_CSunple2_noRW	acq1_noRW	1	60	0	0	300	300	503	46	0	1	1	blank2r.bmp	0	1	+	0	1	blank2r.bmp	252	1	YFFY	306	2	sterben	559	0	0	0	0	0	0	0	0	0	0	0	0	0	0	0	0	0	0	0	0	0	0	0	0	0	0	0	0	0	0	0	0	0	0	0	0	0	0	0
071019	16:00:15	16:03:02	166571	5.0.10.0	5_exp_noRW	44	Rpleas_acq	CS_A	DXXD	JQQJ	LWWL	YFFY	ZHHZ	CPPC	gütig	vertrauen	träumen	genießen	sonnig	küssen	gierig	versagen	töten	gemein	sterben	krank	53pct	acq_USunple_CSunple1_noRW	acq1_noRW	1	61	0	0	300	300	551	46	0	1	1	blank2r.bmp	0	1	+	0	1	blank2r.bmp	252	1	LWWL	306	2	versagen	559	0	0	0	0	0	0	0	0	0	0	0	0	0	0	0	0	0	0	0	0	0	0	0	0	0	0	0	0	0	0	0	0	0	0	0	0	0	0	0
071019	16:00:15	16:03:04	168290	5.0.10.0	5_exp_noRW	44	Rpleas_acq	CS_A	DXXD	JQQJ	LWWL	YFFY	ZHHZ	CPPC	gütig	vertrauen	träumen	genießen	sonnig	küssen	gierig	versagen	töten	gemein	sterben	krank	47pct	acq_USpleas_CSpleas2_noRW	acq1_noRW	1	62	0	0	300	300	549	50	0	1	1	blank2r.bmp	0	1	+	0	1	blank2r.bmp	252	1	JQQJ	306	3	küssen	559	0	0	0	0	0	0	0	0	0	0	0	0	0	0	0	0	0	0	0	0	0	0	0	0	0	0	0	0	0	0	0	0	0	0	0	0	0	0	0
071019	16:00:15	16:03:06	170076	5.0.10.0	5_exp_noRW	44	Rpleas_acq	CS_A	DXXD	JQQJ	LWWL	YFFY	ZHHZ	CPPC	gütig	vertrauen	träumen	genießen	sonnig	küssen	gierig	versagen	töten	gemein	sterben	krank	47pct	acq_USunple_CSunple1_noRW	acq1_noRW	1	63	0	0	300	300	600	46	0	1	1	blank2r.bmp	0	1	+	0	1	blank2r.bmp	252	1	LWWL	306	3	töten	559	0	0	0	0	0	0	0	0	0	0	0	0	0	0	0	0	0	0	0	0	0	0	0	0	0	0	0	0	0	0	0	0	0	0	0	0	0	0	0
071019	16:00:15	16:03:08	171796	5.0.10.0	5_exp_noRW	44	Rpleas_acq	CS_A	DXXD	JQQJ	LWWL	YFFY	ZHHZ	CPPC	gütig	vertrauen	träumen	genießen	sonnig	küssen	gierig	versagen	töten	gemein	sterben	krank	47pct	acq_USunple_CSpleas2_noRW	acq1_noRW	1	64	0	0	300	300	556	46	0	1	1	blank2r.bmp	0	1	+	0	1	blank2r.bmp	252	1	JQQJ	306	3	krank	559	0	0	0	0	0	0	0	0	0	0	0	0	0	0	0	0	0	0	0	0	0	0	0	0	0	0	0	0	0	0	0	0	0	0	0	0	0	0	0
071019	16:00:15	16:03:09	173555	5.0.10.0	5_exp_noRW	44	Rpleas_acq	CS_A	DXXD	JQQJ	LWWL	YFFY	ZHHZ	CPPC	gütig	vertrauen	träumen	genießen	sonnig	küssen	gierig	versagen	töten	gemein	sterben	krank	47pct	acq_USunple_CSunple2_noRW	acq1_noRW	1	65	0	0	300	300	574	46	0	1	1	blank2r.bmp	0	1	+	0	1	blank2r.bmp	252	1	YFFY	306	2	sterben	559	0	0	0	0	0	0	0	0	0	0	0	0	0	0	0	0	0	0	0	0	0	0	0	0	0	0	0	0	0	0	0	0	0	0	0	0	0	0	0
071019	16:00:15	16:03:11	175221	5.0.10.0	5_exp_noRW	44	Rpleas_acq	CS_A	DXXD	JQQJ	LWWL	YFFY	ZHHZ	CPPC	gütig	vertrauen	träumen	genießen	sonnig	küssen	gierig	versagen	töten	gemein	sterben	krank	47pct	acq_USpleas_CSpleas2_noRW	acq1_noRW	1	66	0	0	300	300	499	50	0	1	1	blank2r.bmp	0	1	+	0	1	blank2r.bmp	252	1	JQQJ	306	1	genießen	559	0	0	0	0	0	0	0	0	0	0	0	0	0	0	0	0	0	0	0	0	0	0	0	0	0	0	0	0	0	0	0	0	0	0	0	0	0	0	0
071019	16:00:15	16:03:13	177060	5.0.10.0	5_exp_noRW	44	Rpleas_acq	CS_A	DXXD	JQQJ	LWWL	YFFY	ZHHZ	CPPC	gütig	vertrauen	träumen	genießen	sonnig	küssen	gierig	versagen	töten	gemein	sterben	krank	47pct	acq_USunple_CSunple1_noRW	acq1_noRW	1	67	0	0	300	300	652	46	0	1	1	blank2r.bmp	0	1	+	0	1	blank2r.bmp	252	1	LWWL	306	1	gierig	559	0	0	0	0	0	0	0	0	0	0	0	0	0	0	0	0	0	0	0	0	0	0	0	0	0	0	0	0	0	0	0	0	0	0	0	0	0	0	0
071019	16:00:15	16:03:15	178846	5.0.10.0	5_exp_noRW	44	Rpleas_acq	CS_A	DXXD	JQQJ	LWWL	YFFY	ZHHZ	CPPC	gütig	vertrauen	träumen	genießen	sonnig	küssen	gierig	versagen	töten	gemein	sterben	krank	47pct	acq_USpleas_CSunple2_noRW	acq1_noRW	1	68	0	0	300	300	613	50	0	1	1	blank2r.bmp	0	1	+	0	1	blank2r.bmp	252	1	YFFY	306	1	genießen	559	0	0	0	0	0	0	0	0	0	0	0	0	0	0	0	0	0	0	0	0	0	0	0	0	0	0	0	0	0	0	0	0	0	0	0	0	0	0	0
071019	16:00:15	16:03:16	180565	5.0.10.0	5_exp_noRW	44	Rpleas_acq	CS_A	DXXD	JQQJ	LWWL	YFFY	ZHHZ	CPPC	gütig	vertrauen	träumen	genießen	sonnig	küssen	gierig	versagen	töten	gemein	sterben	krank	47pct	acq_USpleas_CSpleas1_noRW	acq1_noRW	1	69	0	0	300	300	557	50	0	1	1	blank2r.bmp	0	1	+	0	1	blank2r.bmp	252	1	DXXD	306	2	vertrauen	559	0	0	0	0	0	0	0	0	0	0	0	0	0	0	0	0	0	0	0	0	0	0	0	0	0	0	0	0	0	0	0	0	0	0	0	0	0	0	0
071019	16:00:15	16:03:18	182311	5.0.10.0	5_exp_noRW	44	Rpleas_acq	CS_A	DXXD	JQQJ	LWWL	YFFY	ZHHZ	CPPC	gütig	vertrauen	träumen	genießen	sonnig	küssen	gierig	versagen	töten	gemein	sterben	krank	53pct	acq_USunple_CSunple2_noRW	acq1_noRW	1	70	0	0	300	300	566	46	0	1	1	blank2r.bmp	0	1	+	0	1	blank2r.bmp	252	1	YFFY	306	1	gemein	559	0	0	0	0	0	0	0	0	0	0	0	0	0	0	0	0	0	0	0	0	0	0	0	0	0	0	0	0	0	0	0	0	0	0	0	0	0	0	0
071019	16:00:15	16:03:20	184137	5.0.10.0	5_exp_noRW	44	Rpleas_acq	CS_A	DXXD	JQQJ	LWWL	YFFY	ZHHZ	CPPC	gütig	vertrauen	träumen	genießen	sonnig	küssen	gierig	versagen	töten	gemein	sterben	krank	53pct	acq_USpleas_CSpleas2_noRW	acq1_noRW	1	71	0	0	300	300	649	50	0	1	1	blank2r.bmp	0	1	+	0	1	blank2r.bmp	252	1	JQQJ	306	2	sonnig	559	0	0	0	0	0	0	0	0	0	0	0	0	0	0	0	0	0	0	0	0	0	0	0	0	0	0	0	0	0	0	0	0	0	0	0	0	0	0	0
071019	16:00:15	16:03:22	185936	5.0.10.0	5_exp_noRW	44	Rpleas_acq	CS_A	DXXD	JQQJ	LWWL	YFFY	ZHHZ	CPPC	gütig	vertrauen	träumen	genießen	sonnig	küssen	gierig	versagen	töten	gemein	sterben	krank	53pct	acq_USpleas_CSpleas1_noRW	acq1_noRW	1	72	0	0	300	300	623	50	0	1	1	blank2r.bmp	0	1	+	0	1	blank2r.bmp	252	1	DXXD	306	3	träumen	559	0	0	0	0	0	0	0	0	0	0	0	0	0	0	0	0	0	0	0	0	0	0	0	0	0	0	0	0	0	0	0	0	0	0	0	0	0	0	0
071019	16:00:15	16:03:23	187709	5.0.10.0	5_exp_noRW	44	Rpleas_acq	CS_A	DXXD	JQQJ	LWWL	YFFY	ZHHZ	CPPC	gütig	vertrauen	träumen	genießen	sonnig	küssen	gierig	versagen	töten	gemein	sterben	krank	47pct	acq_USpleas_CSunple1_noRW	acq1_noRW	1	73	0	0	300	300	596	50	0	1	1	blank2r.bmp	0	1	+	0	1	blank2r.bmp	252	1	LWWL	306	2	vertrauen	559	0	0	0	0	0	0	0	0	0	0	0	0	0	0	0	0	0	0	0	0	0	0	0	0	0	0	0	0	0	0	0	0	0	0	0	0	0	0	0
071019	16:00:15	16:03:25	189295	5.0.10.0	5_exp_noRW	44	Rpleas_acq	CS_A	DXXD	JQQJ	LWWL	YFFY	ZHHZ	CPPC	gütig	vertrauen	träumen	genießen	sonnig	küssen	gierig	versagen	töten	gemein	sterben	krank	47pct	acq_USunple_CSunple2_noRW	acq1_noRW	1	74	0	0	300	300	409	46	0	1	1	blank2r.bmp	0	1	+	0	1	blank2r.bmp	252	1	YFFY	306	3	krank	559	0	0	0	0	0	0	0	0	0	0	0	0	0	0	0	0	0	0	0	0	0	0	0	0	0	0	0	0	0	0	0	0	0	0	0	0	0	0	0
071019	16:00:15	16:03:27	191148	5.0.10.0	5_exp_noRW	44	Rpleas_acq	CS_A	DXXD	JQQJ	LWWL	YFFY	ZHHZ	CPPC	gütig	vertrauen	träumen	genießen	sonnig	küssen	gierig	versagen	töten	gemein	sterben	krank	53pct	acq_USpleas_CSpleas1_noRW	acq1_noRW	1	75	0	0	300	300	689	50	0	1	1	blank2r.bmp	0	1	+	0	1	blank2r.bmp	252	1	DXXD	306	1	gütig	559	0	0	0	0	0	0	0	0	0	0	0	0	0	0	0	0	0	0	0	0	0	0	0	0	0	0	0	0	0	0	0	0	0	0	0	0	0	0	0
071019	16:00:15	16:03:29	192894	5.0.10.0	5_exp_noRW	44	Rpleas_acq	CS_A	DXXD	JQQJ	LWWL	YFFY	ZHHZ	CPPC	gütig	vertrauen	träumen	genießen	sonnig	küssen	gierig	versagen	töten	gemein	sterben	krank	47pct	acq_USunple_CSpleas1_noRW	acq1_noRW	1	76	0	0	300	300	565	46	0	1	1	blank2r.bmp	0	1	+	0	1	blank2r.bmp	252	1	DXXD	306	2	versagen	559	0	0	0	0	0	0	0	0	0	0	0	0	0	0	0	0	0	0	0	0	0	0	0	0	0	0	0	0	0	0	0	0	0	0	0	0	0	0	0
071019	16:00:15	16:03:31	194773	5.0.10.0	5_exp_noRW	44	Rpleas_acq	CS_A	DXXD	JQQJ	LWWL	YFFY	ZHHZ	CPPC	gütig	vertrauen	träumen	genießen	sonnig	küssen	gierig	versagen	töten	gemein	sterben	krank	47pct	acq_USpleas_CSpleas2_noRW	acq1_noRW	1	77	0	0	300	300	704	50	0	1	1	blank2r.bmp	0	1	+	0	1	blank2r.bmp	252	1	JQQJ	306	1	genießen	559	0	0	0	0	0	0	0	0	0	0	0	0	0	0	0	0	0	0	0	0	0	0	0	0	0	0	0	0	0	0	0	0	0	0	0	0	0	0	0
071019	16:00:15	16:03:32	196439	5.0.10.0	5_exp_noRW	44	Rpleas_acq	CS_A	DXXD	JQQJ	LWWL	YFFY	ZHHZ	CPPC	gütig	vertrauen	träumen	genießen	sonnig	küssen	gierig	versagen	töten	gemein	sterben	krank	53pct	acq_USunple_CSunple2_noRW	acq1_noRW	1	78	0	0	300	300	479	46	0	1	1	blank2r.bmp	0	1	+	0	1	blank2r.bmp	252	1	YFFY	306	3	krank	559	0	0	0	0	0	0	0	0	0	0	0	0	0	0	0	0	0	0	0	0	0	0	0	0	0	0	0	0	0	0	0	0	0	0	0	0	0	0	0
071019	16:00:15	16:03:34	198118	5.0.10.0	5_exp_noRW	44	Rpleas_acq	CS_A	DXXD	JQQJ	LWWL	YFFY	ZHHZ	CPPC	gütig	vertrauen	träumen	genießen	sonnig	küssen	gierig	versagen	töten	gemein	sterben	krank	47pct	acq_USunple_CSunple1_noRW	acq1_noRW	1	79	0	0	300	300	503	46	0	1	1	blank2r.bmp	0	1	+	0	1	blank2r.bmp	252	1	LWWL	306	2	versagen	559	0	0	0	0	0	0	0	0	0	0	0	0	0	0	0	0	0	0	0	0	0	0	0	0	0	0	0	0	0	0	0	0	0	0	0	0	0	0	0
071019	16:00:15	16:03:36	199811	5.0.10.0	5_exp_noRW	44	Rpleas_acq	CS_A	DXXD	JQQJ	LWWL	YFFY	ZHHZ	CPPC	gütig	vertrauen	träumen	genießen	sonnig	küssen	gierig	versagen	töten	gemein	sterben	krank	53pct	acq_USpleas_CSpleas1_noRW	acq1_noRW	1	80	0	0	300	300	510	50	0	1	1	blank2r.bmp	0	1	+	0	1	blank2r.bmp	252	1	DXXD	306	3	träumen	559	0	0	0	0	0	0	0	0	0	0	0	0	0	0	0	0	0	0	0	0	0	0	0	0	0	0	0	0	0	0	0	0	0	0	0	0	0	0	0
071019	16:00:15	16:03:51	215391	5.0.10.0	5_exp_noRW	44	Rpleas_acq	CS_A	DXXD	JQQJ	LWWL	YFFY	ZHHZ	CPPC	gütig	vertrauen	träumen	genießen	sonnig	küssen	gierig	versagen	töten	gemein	sterben	krank	53pct	acq_USunple_CSunple2_noRW	acq23456_noRW	2	1	0	0	300	300	1237	46	0	1	1	blank2r.bmp	0	1	+	0	1	blank2r.bmp	252	1	YFFY	306	2	sterben	559	0	0	0	0	0	0	0	0	0	0	0	0	0	0	0	0	0	0	0	0	0	0	0	0	0	0	0	0	0	0	0	0	0	0	0	0	0	0	0
071019	16:00:15	16:03:53	217350	5.0.10.0	5_exp_noRW	44	Rpleas_acq	CS_A	DXXD	JQQJ	LWWL	YFFY	ZHHZ	CPPC	gütig	vertrauen	träumen	genießen	sonnig	küssen	gierig	versagen	töten	gemein	sterben	krank	47pct	acq_USpleas_CSunple1_noRW	acq23456_noRW	2	2	0	0	300	300	783	50	0	1	1	blank2r.bmp	0	1	+	0	1	blank2r.bmp	252	1	LWWL	306	1	gütig	559	0	0	0	0	0	0	0	0	0	0	0	0	0	0	0	0	0	0	0	0	0	0	0	0	0	0	0	0	0	0	0	0	0	0	0	0	0	0	0
071019	16:00:15	16:03:55	219083	5.0.10.0	5_exp_noRW	44	Rpleas_acq	CS_A	DXXD	JQQJ	LWWL	YFFY	ZHHZ	CPPC	gütig	vertrauen	träumen	genießen	sonnig	küssen	gierig	versagen	töten	gemein	sterben	krank	47pct	acq_USunple_CSpleas2_noRW	acq23456_noRW	2	3	0	0	300	300	545	46	0	1	1	blank2r.bmp	0	1	+	0	1	blank2r.bmp	252	1	JQQJ	306	1	gemein	559	0	0	0	0	0	0	0	0	0	0	0	0	0	0	0	0	0	0	0	0	0	0	0	0	0	0	0	0	0	0	0	0	0	0	0	0	0	0	0
071019	16:00:15	16:03:57	220949	5.0.10.0	5_exp_noRW	44	Rpleas_acq	CS_A	DXXD	JQQJ	LWWL	YFFY	ZHHZ	CPPC	gütig	vertrauen	träumen	genießen	sonnig	küssen	gierig	versagen	töten	gemein	sterben	krank	47pct	acq_USunple_CSunple1_noRW	acq23456_noRW	2	4	0	0	300	300	703	46	0	1	1	blank2r.bmp	0	1	+	0	1	blank2r.bmp	252	1	LWWL	306	1	gierig	559	0	0	0	0	0	0	0	0	0	0	0	0	0	0	0	0	0	0	0	0	0	0	0	0	0	0	0	0	0	0	0	0	0	0	0	0	0	0	0
071019	16:00:15	16:03:58	222615	5.0.10.0	5_exp_noRW	44	Rpleas_acq	CS_A	DXXD	JQQJ	LWWL	YFFY	ZHHZ	CPPC	gütig	vertrauen	träumen	genießen	sonnig	küssen	gierig	versagen	töten	gemein	sterben	krank	47pct	acq_USpleas_CSpleas1_noRW	acq23456_noRW	2	5	0	0	300	300	487	50	0	1	1	blank2r.bmp	0	1	+	0	1	blank2r.bmp	252	1	DXXD	306	2	vertrauen	559	0	0	0	0	0	0	0	0	0	0	0	0	0	0	0	0	0	0	0	0	0	0	0	0	0	0	0	0	0	0	0	0	0	0	0	0	0	0	0
071019	16:00:15	16:04:00	224534	5.0.10.0	5_exp_noRW	44	Rpleas_acq	CS_A	DXXD	JQQJ	LWWL	YFFY	ZHHZ	CPPC	gütig	vertrauen	träumen	genießen	sonnig	küssen	gierig	versagen	töten	gemein	sterben	krank	47pct	acq_USpleas_CSpleas2_noRW	acq23456_noRW	2	6	0	0	300	300	746	50	0	1	1	blank2r.bmp	0	1	+	0	1	blank2r.bmp	252	1	JQQJ	306	2	sonnig	559	0	0	0	0	0	0	0	0	0	0	0	0	0	0	0	0	0	0	0	0	0	0	0	0	0	0	0	0	0	0	0	0	0	0	0	0	0	0	0
071019	16:00:15	16:04:02	226360	5.0.10.0	5_exp_noRW	44	Rpleas_acq	CS_A	DXXD	JQQJ	LWWL	YFFY	ZHHZ	CPPC	gütig	vertrauen	träumen	genießen	sonnig	küssen	gierig	versagen	töten	gemein	sterben	krank	53pct	acq_USunple_CSunple2_noRW	acq23456_noRW	2	7	0	0	300	300	664	46	0	1	1	blank2r.bmp	0	1	+	0	1	blank2r.bmp	252	1	YFFY	306	1	gemein	559	0	0	0	0	0	0	0	0	0	0	0	0	0	0	0	0	0	0	0	0	0	0	0	0	0	0	0	0	0	0	0	0	0	0	0	0	0	0	0
071019	16:00:15	16:04:04	228066	5.0.10.0	5_exp_noRW	44	Rpleas_acq	CS_A	DXXD	JQQJ	LWWL	YFFY	ZHHZ	CPPC	gütig	vertrauen	träumen	genießen	sonnig	küssen	gierig	versagen	töten	gemein	sterben	krank	53pct	acq_USunple_CSunple2_noRW	acq23456_noRW	2	8	0	0	300	300	513	46	0	1	1	blank2r.bmp	0	1	+	0	1	blank2r.bmp	252	1	YFFY	306	2	sterben	559	0	0	0	0	0	0	0	0	0	0	0	0	0	0	0	0	0	0	0	0	0	0	0	0	0	0	0	0	0	0	0	0	0	0	0	0	0	0	0
071019	16:00:15	16:04:06	229812	5.0.10.0	5_exp_noRW	44	Rpleas_acq	CS_A	DXXD	JQQJ	LWWL	YFFY	ZHHZ	CPPC	gütig	vertrauen	träumen	genießen	sonnig	küssen	gierig	versagen	töten	gemein	sterben	krank	47pct	acq_USunple_CSunple1_noRW	acq23456_noRW	2	9	0	0	300	300	570	46	0	1	1	blank2r.bmp	0	1	+	0	1	blank2r.bmp	252	1	LWWL	306	3	töten	559	0	0	0	0	0	0	0	0	0	0	0	0	0	0	0	0	0	0	0	0	0	0	0	0	0	0	0	0	0	0	0	0	0	0	0	0	0	0	0
071019	16:00:15	16:04:07	231651	5.0.10.0	5_exp_noRW	44	Rpleas_acq	CS_A	DXXD	JQQJ	LWWL	YFFY	ZHHZ	CPPC	gütig	vertrauen	träumen	genießen	sonnig	küssen	gierig	versagen	töten	gemein	sterben	krank	53pct	acq_USunple_CSunple2_noRW	acq23456_noRW	2	10	0	0	300	300	655	46	0	1	1	blank2r.bmp	0	1	+	0	1	blank2r.bmp	252	1	YFFY	306	1	gemein	559	0	0	0	0	0	0	0	0	0	0	0	0	0	0	0	0	0	0	0	0	0	0	0	0	0	0	0	0	0	0	0	0	0	0	0	0	0	0	0
071019	16:00:15	16:04:09	233264	5.0.10.0	5_exp_noRW	44	Rpleas_acq	CS_A	DXXD	JQQJ	LWWL	YFFY	ZHHZ	CPPC	gütig	vertrauen	träumen	genießen	sonnig	küssen	gierig	versagen	töten	gemein	sterben	krank	53pct	acq_USpleas_CSpleas2_noRW	acq23456_noRW	2	11	0	0	300	300	450	50	0	1	1	blank2r.bmp	0	1	+	0	1	blank2r.bmp	252	1	JQQJ	306	3	küssen	559	0	0	0	0	0	0	0	0	0	0	0	0	0	0	0	0	0	0	0	0	0	0	0	0	0	0	0	0	0	0	0	0	0	0	0	0	0	0	0
071019	16:00:15	16:04:11	234930	5.0.10.0	5_exp_noRW	44	Rpleas_acq	CS_A	DXXD	JQQJ	LWWL	YFFY	ZHHZ	CPPC	gütig	vertrauen	träumen	genießen	sonnig	küssen	gierig	versagen	töten	gemein	sterben	krank	47pct	acq_USpleas_CSpleas1_noRW	acq23456_noRW	2	12	0	0	300	300	484	50	0	1	1	blank2r.bmp	0	1	+	0	1	blank2r.bmp	252	1	DXXD	306	1	gütig	559	0	0	0	0	0	0	0	0	0	0	0	0	0	0	0	0	0	0	0	0	0	0	0	0	0	0	0	0	0	0	0	0	0	0	0	0	0	0	0
071019	16:00:15	16:04:12	236609	5.0.10.0	5_exp_noRW	44	Rpleas_acq	CS_A	DXXD	JQQJ	LWWL	YFFY	ZHHZ	CPPC	gütig	vertrauen	träumen	genießen	sonnig	küssen	gierig	versagen	töten	gemein	sterben	krank	47pct	acq_USpleas_CSunple2_noRW	acq23456_noRW	2	13	0	0	300	300	504	50	0	1	1	blank2r.bmp	0	1	+	0	1	blank2r.bmp	252	1	YFFY	306	2	sonnig	559	0	0	0	0	0	0	0	0	0	0	0	0	0	0	0	0	0	0	0	0	0	0	0	0	0	0	0	0	0	0	0	0	0	0	0	0	0	0	0
071019	16:00:15	16:04:14	238448	5.0.10.0	5_exp_noRW	44	Rpleas_acq	CS_A	DXXD	JQQJ	LWWL	YFFY	ZHHZ	CPPC	gütig	vertrauen	träumen	genießen	sonnig	küssen	gierig	versagen	töten	gemein	sterben	krank	53pct	acq_USunple_CSunple1_noRW	acq23456_noRW	2	14	0	0	300	300	641	46	0	1	1	blank2r.bmp	0	1	+	0	1	blank2r.bmp	252	1	LWWL	306	1	gierig	559	0	0	0	0	0	0	0	0	0	0	0	0	0	0	0	0	0	0	0	0	0	0	0	0	0	0	0	0	0	0	0	0	0	0	0	0	0	0	0
071019	16:00:15	16:04:16	240114	5.0.10.0	5_exp_noRW	44	Rpleas_acq	CS_A	DXXD	JQQJ	LWWL	YFFY	ZHHZ	CPPC	gütig	vertrauen	träumen	genießen	sonnig	küssen	gierig	versagen	töten	gemein	sterben	krank	47pct	acq_USpleas_CSpleas1_noRW	acq23456_noRW	2	15	0	0	300	300	499	50	0	1	1	blank2r.bmp	0	1	+	0	1	blank2r.bmp	252	1	DXXD	306	1	gütig	559	0	0	0	0	0	0	0	0	0	0	0	0	0	0	0	0	0	0	0	0	0	0	0	0	0	0	0	0	0	0	0	0	0	0	0	0	0	0	0
071019	16:00:15	16:04:18	242020	5.0.10.0	5_exp_noRW	44	Rpleas_acq	CS_A	DXXD	JQQJ	LWWL	YFFY	ZHHZ	CPPC	gütig	vertrauen	träumen	genießen	sonnig	küssen	gierig	versagen	töten	gemein	sterben	krank	53pct	acq_USunple_CSunple1_noRW	acq23456_noRW	2	16	0	0	300	300	731	46	0	1	1	blank2r.bmp	0	1	+	0	1	blank2r.bmp	252	1	LWWL	306	3	töten	559	0	0	0	0	0	0	0	0	0	0	0	0	0	0	0	0	0	0	0	0	0	0	0	0	0	0	0	0	0	0	0	0	0	0	0	0	0	0	0
071019	16:00:15	16:04:20	243806	5.0.10.0	5_exp_noRW	44	Rpleas_acq	CS_A	DXXD	JQQJ	LWWL	YFFY	ZHHZ	CPPC	gütig	vertrauen	träumen	genießen	sonnig	küssen	gierig	versagen	töten	gemein	sterben	krank	53pct	acq_USpleas_CSpleas2_noRW	acq23456_noRW	2	17	0	0	300	300	609	50	0	1	1	blank2r.bmp	0	1	+	0	1	blank2r.bmp	252	1	JQQJ	306	1	genießen	559	0	0	0	0	0	0	0	0	0	0	0	0	0	0	0	0	0	0	0	0	0	0	0	0	0	0	0	0	0	0	0	0	0	0	0	0	0	0	0
071019	16:00:15	16:04:21	245525	5.0.10.0	5_exp_noRW	44	Rpleas_acq	CS_A	DXXD	JQQJ	LWWL	YFFY	ZHHZ	CPPC	gütig	vertrauen	träumen	genießen	sonnig	küssen	gierig	versagen	töten	gemein	sterben	krank	53pct	acq_USunple_CSpleas1_noRW	acq23456_noRW	2	18	0	0	300	300	537	46	0	1	1	blank2r.bmp	0	1	+	0	1	blank2r.bmp	252	1	DXXD	306	1	gierig	559	0	0	0	0	0	0	0	0	0	0	0	0	0	0	0	0	0	0	0	0	0	0	0	0	0	0	0	0	0	0	0	0	0	0	0	0	0	0	0
071019	16:00:15	16:04:23	247338	5.0.10.0	5_exp_noRW	44	Rpleas_acq	CS_A	DXXD	JQQJ	LWWL	YFFY	ZHHZ	CPPC	gütig	vertrauen	träumen	genießen	sonnig	küssen	gierig	versagen	töten	gemein	sterben	krank	47pct	acq_USpleas_CSpleas1_noRW	acq23456_noRW	2	19	0	0	300	300	628	50	0	1	1	blank2r.bmp	0	1	+	0	1	blank2r.bmp	252	1	DXXD	306	2	vertrauen	559	0	0	0	0	0	0	0	0	0	0	0	0	0	0	0	0	0	0	0	0	0	0	0	0	0	0	0	0	0	0	0	0	0	0	0	0	0	0	0
071019	16:00:15	16:04:25	249044	5.0.10.0	5_exp_noRW	44	Rpleas_acq	CS_A	DXXD	JQQJ	LWWL	YFFY	ZHHZ	CPPC	gütig	vertrauen	träumen	genießen	sonnig	küssen	gierig	versagen	töten	gemein	sterben	krank	53pct	acq_USpleas_CSpleas2_noRW	acq23456_noRW	2	20	0	0	300	300	525	50	0	1	1	blank2r.bmp	0	1	+	0	1	blank2r.bmp	252	1	JQQJ	306	3	küssen	559	0	0	0	0	0	0	0	0	0	0	0	0	0	0	0	0	0	0	0	0	0	0	0	0	0	0	0	0	0	0	0	0	0	0	0	0	0	0	0
071019	16:00:15	16:04:27	250790	5.0.10.0	5_exp_noRW	44	Rpleas_acq	CS_A	DXXD	JQQJ	LWWL	YFFY	ZHHZ	CPPC	gütig	vertrauen	träumen	genießen	sonnig	küssen	gierig	versagen	töten	gemein	sterben	krank	47pct	acq_USpleas_CSpleas2_noRW	acq23456_noRW	2	21	0	0	300	300	574	50	0	1	1	blank2r.bmp	0	1	+	0	1	blank2r.bmp	252	1	JQQJ	306	2	sonnig	559	0	0	0	0	0	0	0	0	0	0	0	0	0	0	0	0	0	0	0	0	0	0	0	0	0	0	0	0	0	0	0	0	0	0	0	0	0	0	0
071019	16:00:15	16:04:28	252589	5.0.10.0	5_exp_noRW	44	Rpleas_acq	CS_A	DXXD	JQQJ	LWWL	YFFY	ZHHZ	CPPC	gütig	vertrauen	träumen	genießen	sonnig	küssen	gierig	versagen	töten	gemein	sterben	krank	47pct	acq_USpleas_CSpleas1_noRW	acq23456_noRW	2	22	0	0	300	300	638	50	0	1	1	blank2r.bmp	0	1	+	0	1	blank2r.bmp	252	1	DXXD	306	3	träumen	559	0	0	0	0	0	0	0	0	0	0	0	0	0	0	0	0	0	0	0	0	0	0	0	0	0	0	0	0	0	0	0	0	0	0	0	0	0	0	0
071019	16:00:15	16:04:30	254282	5.0.10.0	5_exp_noRW	44	Rpleas_acq	CS_A	DXXD	JQQJ	LWWL	YFFY	ZHHZ	CPPC	gütig	vertrauen	träumen	genießen	sonnig	küssen	gierig	versagen	töten	gemein	sterben	krank	47pct	acq_USunple_CSunple1_noRW	acq23456_noRW	2	23	0	0	300	300	512	46	0	1	1	blank2r.bmp	0	1	+	0	1	blank2r.bmp	252	1	LWWL	306	2	versagen	559	0	0	0	0	0	0	0	0	0	0	0	0	0	0	0	0	0	0	0	0	0	0	0	0	0	0	0	0	0	0	0	0	0	0	0	0	0	0	0
071019	16:00:15	16:04:32	255935	5.0.10.0	5_exp_noRW	44	Rpleas_acq	CS_A	DXXD	JQQJ	LWWL	YFFY	ZHHZ	CPPC	gütig	vertrauen	träumen	genießen	sonnig	küssen	gierig	versagen	töten	gemein	sterben	krank	47pct	acq_USpleas_CSunple2_noRW	acq23456_noRW	2	24	0	0	300	300	472	50	0	1	1	blank2r.bmp	0	1	+	0	1	blank2r.bmp	252	1	YFFY	306	3	küssen	559	0	0	0	0	0	0	0	0	0	0	0	0	0	0	0	0	0	0	0	0	0	0	0	0	0	0	0	0	0	0	0	0	0	0	0	0	0	0	0
071019	16:00:15	16:04:33	257707	5.0.10.0	5_exp_noRW	44	Rpleas_acq	CS_A	DXXD	JQQJ	LWWL	YFFY	ZHHZ	CPPC	gütig	vertrauen	träumen	genießen	sonnig	küssen	gierig	versagen	töten	gemein	sterben	krank	47pct	acq_USunple_CSunple1_noRW	acq23456_noRW	2	25	0	0	300	300	595	46	0	1	1	blank2r.bmp	0	1	+	0	1	blank2r.bmp	252	1	LWWL	306	1	gierig	559	0	0	0	0	0	0	0	0	0	0	0	0	0	0	0	0	0	0	0	0	0	0	0	0	0	0	0	0	0	0	0	0	0	0	0	0	0	0	0
071019	16:00:15	16:04:35	259666	5.0.10.0	5_exp_noRW	44	Rpleas_acq	CS_A	DXXD	JQQJ	LWWL	YFFY	ZHHZ	CPPC	gütig	vertrauen	träumen	genießen	sonnig	küssen	gierig	versagen	töten	gemein	sterben	krank	53pct	acq_USpleas_CSpleas1_noRW	acq23456_noRW	2	26	0	0	300	300	571	46	0	0	1	blank2r.bmp	0	1	+	0	1	blank2r.bmp	252	1	DXXD	306	2	vertrauen	559	1	FEHLER	1159	0	0	0	0	0	0	0	0	0	0	0	0	0	0	0	0	0	0	0	0	0	0	0	0	0	0	0	0	0	0	0	0	0	0	0	0
071019	16:00:15	16:04:37	261119	5.0.10.0	5_exp_noRW	44	Rpleas_acq	CS_A	DXXD	JQQJ	LWWL	YFFY	ZHHZ	CPPC	gütig	vertrauen	träumen	genießen	sonnig	küssen	gierig	versagen	töten	gemein	sterben	krank	53pct	acq_USunple_CSunple2_noRW	acq23456_noRW	2	27	0	0	300	300	486	46	0	1	1	blank2r.bmp	0	1	+	0	1	blank2r.bmp	252	1	YFFY	306	3	krank	559	0	0	0	0	0	0	0	0	0	0	0	0	0	0	0	0	0	0	0	0	0	0	0	0	0	0	0	0	0	0	0	0	0	0	0	0	0	0	0
071019	16:00:15	16:04:39	262865	5.0.10.0	5_exp_noRW	44	Rpleas_acq	CS_A	DXXD	JQQJ	LWWL	YFFY	ZHHZ	CPPC	gütig	vertrauen	träumen	genießen	sonnig	küssen	gierig	versagen	töten	gemein	sterben	krank	47pct	acq_USpleas_CSpleas2_noRW	acq23456_noRW	2	28	0	0	300	300	574	50	0	1	1	blank2r.bmp	0	1	+	0	1	blank2r.bmp	252	1	JQQJ	306	2	sonnig	559	0	0	0	0	0	0	0	0	0	0	0	0	0	0	0	0	0	0	0	0	0	0	0	0	0	0	0	0	0	0	0	0	0	0	0	0	0	0	0
071019	16:00:15	16:04:40	264531	5.0.10.0	5_exp_noRW	44	Rpleas_acq	CS_A	DXXD	JQQJ	LWWL	YFFY	ZHHZ	CPPC	gütig	vertrauen	träumen	genießen	sonnig	küssen	gierig	versagen	töten	gemein	sterben	krank	47pct	acq_USunple_CSunple2_noRW	acq23456_noRW	2	29	0	0	300	300	497	46	0	1	1	blank2r.bmp	0	1	+	0	1	blank2r.bmp	252	1	YFFY	306	1	gemein	559	0	0	0	0	0	0	0	0	0	0	0	0	0	0	0	0	0	0	0	0	0	0	0	0	0	0	0	0	0	0	0	0	0	0	0	0	0	0	0
071019	16:00:15	16:04:42	266490	5.0.10.0	5_exp_noRW	44	Rpleas_acq	CS_A	DXXD	JQQJ	LWWL	YFFY	ZHHZ	CPPC	gütig	vertrauen	träumen	genießen	sonnig	küssen	gierig	versagen	töten	gemein	sterben	krank	53pct	acq_USunple_CSunple2_noRW	acq23456_noRW	2	30	0	0	300	300	564	50	0	0	1	blank2r.bmp	0	1	+	0	1	blank2r.bmp	252	1	YFFY	306	3	krank	559	1	FEHLER	1159	0	0	0	0	0	0	0	0	0	0	0	0	0	0	0	0	0	0	0	0	0	0	0	0	0	0	0	0	0	0	0	0	0	0	0	0
071019	16:00:15	16:04:44	268076	5.0.10.0	5_exp_noRW	44	Rpleas_acq	CS_A	DXXD	JQQJ	LWWL	YFFY	ZHHZ	CPPC	gütig	vertrauen	träumen	genießen	sonnig	küssen	gierig	versagen	töten	gemein	sterben	krank	47pct	acq_USunple_CSunple1_noRW	acq23456_noRW	2	31	0	0	300	300	625	46	0	1	1	blank2r.bmp	0	1	+	0	1	blank2r.bmp	252	1	LWWL	306	2	versagen	559	0	0	0	0	0	0	0	0	0	0	0	0	0	0	0	0	0	0	0	0	0	0	0	0	0	0	0	0	0	0	0	0	0	0	0	0	0	0	0
071019	16:00:15	16:04:46	270062	5.0.10.0	5_exp_noRW	44	Rpleas_acq	CS_A	DXXD	JQQJ	LWWL	YFFY	ZHHZ	CPPC	gütig	vertrauen	träumen	genießen	sonnig	küssen	gierig	versagen	töten	gemein	sterben	krank	47pct	acq_USunple_CSunple2_noRW	acq23456_noRW	2	32	0	0	300	300	808	46	0	1	1	blank2r.bmp	0	1	+	0	1	blank2r.bmp	252	1	YFFY	306	2	sterben	559	0	0	0	0	0	0	0	0	0	0	0	0	0	0	0	0	0	0	0	0	0	0	0	0	0	0	0	0	0	0	0	0	0	0	0	0	0	0	0
071019	16:00:15	16:04:48	271741	5.0.10.0	5_exp_noRW	44	Rpleas_acq	CS_A	DXXD	JQQJ	LWWL	YFFY	ZHHZ	CPPC	gütig	vertrauen	träumen	genießen	sonnig	küssen	gierig	versagen	töten	gemein	sterben	krank	47pct	acq_USunple_CSpleas2_noRW	acq23456_noRW	2	33	0	0	300	300	501	46	0	1	1	blank2r.bmp	0	1	+	0	1	blank2r.bmp	252	1	JQQJ	306	2	sterben	559	0	0	0	0	0	0	0	0	0	0	0	0	0	0	0	0	0	0	0	0	0	0	0	0	0	0	0	0	0	0	0	0	0	0	0	0	0	0	0
071019	16:00:15	16:04:50	273701	5.0.10.0	5_exp_noRW	44	Rpleas_acq	CS_A	DXXD	JQQJ	LWWL	YFFY	ZHHZ	CPPC	gütig	vertrauen	träumen	genießen	sonnig	küssen	gierig	versagen	töten	gemein	sterben	krank	47pct	acq_USpleas_CSunple1_noRW	acq23456_noRW	2	34	0	0	300	300	791	50	0	1	1	blank2r.bmp	0	1	+	0	1	blank2r.bmp	252	1	LWWL	306	3	träumen	559	0	0	0	0	0	0	0	0	0	0	0	0	0	0	0	0	0	0	0	0	0	0	0	0	0	0	0	0	0	0	0	0	0	0	0	0	0	0	0
071019	16:00:15	16:04:51	275380	5.0.10.0	5_exp_noRW	44	Rpleas_acq	CS_A	DXXD	JQQJ	LWWL	YFFY	ZHHZ	CPPC	gütig	vertrauen	träumen	genießen	sonnig	küssen	gierig	versagen	töten	gemein	sterben	krank	47pct	acq_USpleas_CSpleas2_noRW	acq23456_noRW	2	35	0	0	300	300	499	50	0	1	1	blank2r.bmp	0	1	+	0	1	blank2r.bmp	252	1	JQQJ	306	3	küssen	559	0	0	0	0	0	0	0	0	0	0	0	0	0	0	0	0	0	0	0	0	0	0	0	0	0	0	0	0	0	0	0	0	0	0	0	0	0	0	0
071019	16:00:15	16:04:53	277259	5.0.10.0	5_exp_noRW	44	Rpleas_acq	CS_A	DXXD	JQQJ	LWWL	YFFY	ZHHZ	CPPC	gütig	vertrauen	träumen	genießen	sonnig	küssen	gierig	versagen	töten	gemein	sterben	krank	53pct	acq_USunple_CSunple1_noRW	acq23456_noRW	2	36	0	0	300	300	691	46	0	1	1	blank2r.bmp	0	1	+	0	1	blank2r.bmp	252	1	LWWL	306	3	töten	559	0	0	0	0	0	0	0	0	0	0	0	0	0	0	0	0	0	0	0	0	0	0	0	0	0	0	0	0	0	0	0	0	0	0	0	0	0	0	0
071019	16:00:15	16:04:55	279258	5.0.10.0	5_exp_noRW	44	Rpleas_acq	CS_A	DXXD	JQQJ	LWWL	YFFY	ZHHZ	CPPC	gütig	vertrauen	träumen	genießen	sonnig	küssen	gierig	versagen	töten	gemein	sterben	krank	47pct	acq_USpleas_CSpleas2_noRW	acq23456_noRW	2	37	0	0	300	300	818	50	0	1	1	blank2r.bmp	0	1	+	0	1	blank2r.bmp	252	1	JQQJ	306	1	genießen	559	0	0	0	0	0	0	0	0	0	0	0	0	0	0	0	0	0	0	0	0	0	0	0	0	0	0	0	0	0	0	0	0	0	0	0	0	0	0	0
071019	16:00:15	16:04:57	281111	5.0.10.0	5_exp_noRW	44	Rpleas_acq	CS_A	DXXD	JQQJ	LWWL	YFFY	ZHHZ	CPPC	gütig	vertrauen	träumen	genießen	sonnig	küssen	gierig	versagen	töten	gemein	sterben	krank	53pct	acq_USpleas_CSpleas1_noRW	acq23456_noRW	2	38	0	0	300	300	688	50	0	1	1	blank2r.bmp	0	1	+	0	1	blank2r.bmp	252	1	DXXD	306	3	träumen	559	0	0	0	0	0	0	0	0	0	0	0	0	0	0	0	0	0	0	0	0	0	0	0	0	0	0	0	0	0	0	0	0	0	0	0	0	0	0	0
071019	16:00:15	16:04:59	282883	5.0.10.0	5_exp_noRW	44	Rpleas_acq	CS_A	DXXD	JQQJ	LWWL	YFFY	ZHHZ	CPPC	gütig	vertrauen	träumen	genießen	sonnig	küssen	gierig	versagen	töten	gemein	sterben	krank	53pct	acq_USpleas_CSpleas1_noRW	acq23456_noRW	2	39	0	0	300	300	594	50	0	1	1	blank2r.bmp	0	1	+	0	1	blank2r.bmp	252	1	DXXD	306	1	gütig	559	0	0	0	0	0	0	0	0	0	0	0	0	0	0	0	0	0	0	0	0	0	0	0	0	0	0	0	0	0	0	0	0	0	0	0	0	0	0	0
071019	16:00:15	16:05:00	284523	5.0.10.0	5_exp_noRW	44	Rpleas_acq	CS_A	DXXD	JQQJ	LWWL	YFFY	ZHHZ	CPPC	gütig	vertrauen	träumen	genießen	sonnig	küssen	gierig	versagen	töten	gemein	sterben	krank	53pct	acq_USunple_CSpleas1_noRW	acq23456_noRW	2	40	0	0	300	300	457	46	0	1	1	blank2r.bmp	0	1	+	0	1	blank2r.bmp	252	1	DXXD	306	3	töten	559	0	0	0	0	0	0	0	0	0	0	0	0	0	0	0	0	0	0	0	0	0	0	0	0	0	0	0	0	0	0	0	0	0	0	0	0	0	0	0
071019	16:00:15	16:05:02	286149	5.0.10.0	5_exp_noRW	44	Rpleas_acq	CS_A	DXXD	JQQJ	LWWL	YFFY	ZHHZ	CPPC	gütig	vertrauen	träumen	genießen	sonnig	küssen	gierig	versagen	töten	gemein	sterben	krank	53pct	acq_USunple_CSunple1_noRW	acq23456_noRW	2	41	0	0	300	300	450	46	0	1	1	blank2r.bmp	0	1	+	0	1	blank2r.bmp	252	1	LWWL	306	3	töten	559	0	0	0	0	0	0	0	0	0	0	0	0	0	0	0	0	0	0	0	0	0	0	0	0	0	0	0	0	0	0	0	0	0	0	0	0	0	0	0
071019	16:00:15	16:05:04	288001	5.0.10.0	5_exp_noRW	44	Rpleas_acq	CS_A	DXXD	JQQJ	LWWL	YFFY	ZHHZ	CPPC	gütig	vertrauen	träumen	genießen	sonnig	küssen	gierig	versagen	töten	gemein	sterben	krank	53pct	acq_USunple_CSpleas1_noRW	acq23456_noRW	2	42	0	0	300	300	678	46	0	1	1	blank2r.bmp	0	1	+	0	1	blank2r.bmp	252	1	DXXD	306	2	versagen	559	0	0	0	0	0	0	0	0	0	0	0	0	0	0	0	0	0	0	0	0	0	0	0	0	0	0	0	0	0	0	0	0	0	0	0	0	0	0	0
071019	16:00:15	16:05:06	289734	5.0.10.0	5_exp_noRW	44	Rpleas_acq	CS_A	DXXD	JQQJ	LWWL	YFFY	ZHHZ	CPPC	gütig	vertrauen	träumen	genießen	sonnig	küssen	gierig	versagen	töten	gemein	sterben	krank	53pct	acq_USunple_CSpleas2_noRW	acq23456_noRW	2	43	0	0	300	300	548	46	0	1	1	blank2r.bmp	0	1	+	0	1	blank2r.bmp	252	1	JQQJ	306	3	krank	559	0	0	0	0	0	0	0	0	0	0	0	0	0	0	0	0	0	0	0	0	0	0	0	0	0	0	0	0	0	0	0	0	0	0	0	0	0	0	0
071019	16:00:15	16:05:07	291333	5.0.10.0	5_exp_noRW	44	Rpleas_acq	CS_A	DXXD	JQQJ	LWWL	YFFY	ZHHZ	CPPC	gütig	vertrauen	träumen	genießen	sonnig	küssen	gierig	versagen	töten	gemein	sterben	krank	53pct	acq_USunple_CSunple2_noRW	acq23456_noRW	2	44	0	0	300	300	437	46	0	1	1	blank2r.bmp	0	1	+	0	1	blank2r.bmp	252	1	YFFY	306	2	sterben	559	0	0	0	0	0	0	0	0	0	0	0	0	0	0	0	0	0	0	0	0	0	0	0	0	0	0	0	0	0	0	0	0	0	0	0	0	0	0	0
071019	16:00:15	16:05:09	293039	5.0.10.0	5_exp_noRW	44	Rpleas_acq	CS_A	DXXD	JQQJ	LWWL	YFFY	ZHHZ	CPPC	gütig	vertrauen	träumen	genießen	sonnig	küssen	gierig	versagen	töten	gemein	sterben	krank	47pct	acq_USunple_CSunple2_noRW	acq23456_noRW	2	45	0	0	300	300	509	46	0	1	1	blank2r.bmp	0	1	+	0	1	blank2r.bmp	252	1	YFFY	306	3	krank	559	0	0	0	0	0	0	0	0	0	0	0	0	0	0	0	0	0	0	0	0	0	0	0	0	0	0	0	0	0	0	0	0	0	0	0	0	0	0	0
071019	16:00:15	16:05:10	294679	5.0.10.0	5_exp_noRW	44	Rpleas_acq	CS_A	DXXD	JQQJ	LWWL	YFFY	ZHHZ	CPPC	gütig	vertrauen	träumen	genießen	sonnig	küssen	gierig	versagen	töten	gemein	sterben	krank	53pct	acq_USpleas_CSpleas2_noRW	acq23456_noRW	2	46	0	0	300	300	466	50	0	1	1	blank2r.bmp	0	1	+	0	1	blank2r.bmp	252	1	JQQJ	306	3	küssen	559	0	0	0	0	0	0	0	0	0	0	0	0	0	0	0	0	0	0	0	0	0	0	0	0	0	0	0	0	0	0	0	0	0	0	0	0	0	0	0
071019	16:00:15	16:05:12	296411	5.0.10.0	5_exp_noRW	44	Rpleas_acq	CS_A	DXXD	JQQJ	LWWL	YFFY	ZHHZ	CPPC	gütig	vertrauen	träumen	genießen	sonnig	küssen	gierig	versagen	töten	gemein	sterben	krank	53pct	acq_USpleas_CSpleas2_noRW	acq23456_noRW	2	47	0	0	300	300	565	50	0	1	1	blank2r.bmp	0	1	+	0	1	blank2r.bmp	252	1	JQQJ	306	1	genießen	559	0	0	0	0	0	0	0	0	0	0	0	0	0	0	0	0	0	0	0	0	0	0	0	0	0	0	0	0	0	0	0	0	0	0	0	0	0	0	0
071019	16:00:15	16:05:14	298064	5.0.10.0	5_exp_noRW	44	Rpleas_acq	CS_A	DXXD	JQQJ	LWWL	YFFY	ZHHZ	CPPC	gütig	vertrauen	träumen	genießen	sonnig	küssen	gierig	versagen	töten	gemein	sterben	krank	53pct	acq_USpleas_CSpleas2_noRW	acq23456_noRW	2	48	0	0	300	300	474	50	0	1	1	blank2r.bmp	0	1	+	0	1	blank2r.bmp	252	1	JQQJ	306	2	sonnig	559	0	0	0	0	0	0	0	0	0	0	0	0	0	0	0	0	0	0	0	0	0	0	0	0	0	0	0	0	0	0	0	0	0	0	0	0	0	0	0
071019	16:00:15	16:05:16	299717	5.0.10.0	5_exp_noRW	44	Rpleas_acq	CS_A	DXXD	JQQJ	LWWL	YFFY	ZHHZ	CPPC	gütig	vertrauen	träumen	genießen	sonnig	küssen	gierig	versagen	töten	gemein	sterben	krank	53pct	acq_USpleas_CSpleas1_noRW	acq23456_noRW	2	49	0	0	300	300	467	50	0	1	1	blank2r.bmp	0	1	+	0	1	blank2r.bmp	252	1	DXXD	306	1	gütig	559	0	0	0	0	0	0	0	0	0	0	0	0	0	0	0	0	0	0	0	0	0	0	0	0	0	0	0	0	0	0	0	0	0	0	0	0	0	0	0
071019	16:00:15	16:05:18	301916	5.0.10.0	5_exp_noRW	44	Rpleas_acq	CS_A	DXXD	JQQJ	LWWL	YFFY	ZHHZ	CPPC	gütig	vertrauen	träumen	genießen	sonnig	küssen	gierig	versagen	töten	gemein	sterben	krank	53pct	acq_USpleas_CSunple1_noRW	acq23456_noRW	2	50	0	0	300	300	1034	50	0	1	1	blank2r.bmp	0	1	+	0	1	blank2r.bmp	252	1	LWWL	306	3	träumen	559	0	0	0	0	0	0	0	0	0	0	0	0	0	0	0	0	0	0	0	0	0	0	0	0	0	0	0	0	0	0	0	0	0	0	0	0	0	0	0
071019	16:00:15	16:05:19	303555	5.0.10.0	5_exp_noRW	44	Rpleas_acq	CS_A	DXXD	JQQJ	LWWL	YFFY	ZHHZ	CPPC	gütig	vertrauen	träumen	genießen	sonnig	küssen	gierig	versagen	töten	gemein	sterben	krank	53pct	acq_USpleas_CSunple2_noRW	acq23456_noRW	2	51	0	0	300	300	462	50	0	1	1	blank2r.bmp	0	1	+	0	1	blank2r.bmp	252	1	YFFY	306	3	küssen	559	0	0	0	0	0	0	0	0	0	0	0	0	0	0	0	0	0	0	0	0	0	0	0	0	0	0	0	0	0	0	0	0	0	0	0	0	0	0	0
071019	16:00:15	16:05:21	305234	5.0.10.0	5_exp_noRW	44	Rpleas_acq	CS_A	DXXD	JQQJ	LWWL	YFFY	ZHHZ	CPPC	gütig	vertrauen	träumen	genießen	sonnig	küssen	gierig	versagen	töten	gemein	sterben	krank	53pct	acq_USpleas_CSpleas1_noRW	acq23456_noRW	2	52	0	0	300	300	501	50	0	1	1	blank2r.bmp	0	1	+	0	1	blank2r.bmp	252	1	DXXD	306	2	vertrauen	559	0	0	0	0	0	0	0	0	0	0	0	0	0	0	0	0	0	0	0	0	0	0	0	0	0	0	0	0	0	0	0	0	0	0	0	0	0	0	0
071019	16:00:15	16:05:23	306887	5.0.10.0	5_exp_noRW	44	Rpleas_acq	CS_A	DXXD	JQQJ	LWWL	YFFY	ZHHZ	CPPC	gütig	vertrauen	träumen	genießen	sonnig	küssen	gierig	versagen	töten	gemein	sterben	krank	47pct	acq_USpleas_CSpleas1_noRW	acq23456_noRW	2	53	0	0	300	300	482	50	0	1	1	blank2r.bmp	0	1	+	0	1	blank2r.bmp	252	1	DXXD	306	3	träumen	559	0	0	0	0	0	0	0	0	0	0	0	0	0	0	0	0	0	0	0	0	0	0	0	0	0	0	0	0	0	0	0	0	0	0	0	0	0	0	0
071019	16:00:15	16:05:24	308633	5.0.10.0	5_exp_noRW	44	Rpleas_acq	CS_A	DXXD	JQQJ	LWWL	YFFY	ZHHZ	CPPC	gütig	vertrauen	träumen	genießen	sonnig	küssen	gierig	versagen	töten	gemein	sterben	krank	47pct	acq_USpleas_CSpleas1_noRW	acq23456_noRW	2	54	0	0	300	300	575	50	0	1	1	blank2r.bmp	0	1	+	0	1	blank2r.bmp	252	1	DXXD	306	2	vertrauen	559	0	0	0	0	0	0	0	0	0	0	0	0	0	0	0	0	0	0	0	0	0	0	0	0	0	0	0	0	0	0	0	0	0	0	0	0	0	0	0
071019	16:00:15	16:05:26	310352	5.0.10.0	5_exp_noRW	44	Rpleas_acq	CS_A	DXXD	JQQJ	LWWL	YFFY	ZHHZ	CPPC	gütig	vertrauen	träumen	genießen	sonnig	küssen	gierig	versagen	töten	gemein	sterben	krank	47pct	acq_USunple_CSunple2_noRW	acq23456_noRW	2	55	0	0	300	300	557	46	0	1	1	blank2r.bmp	0	1	+	0	1	blank2r.bmp	252	1	YFFY	306	1	gemein	559	0	0	0	0	0	0	0	0	0	0	0	0	0	0	0	0	0	0	0	0	0	0	0	0	0	0	0	0	0	0	0	0	0	0	0	0	0	0	0
071019	16:00:15	16:05:28	312058	5.0.10.0	5_exp_noRW	44	Rpleas_acq	CS_A	DXXD	JQQJ	LWWL	YFFY	ZHHZ	CPPC	gütig	vertrauen	träumen	genießen	sonnig	küssen	gierig	versagen	töten	gemein	sterben	krank	53pct	acq_USunple_CSunple2_noRW	acq23456_noRW	2	56	0	0	300	300	523	46	0	1	1	blank2r.bmp	0	1	+	0	1	blank2r.bmp	252	1	YFFY	306	3	krank	559	0	0	0	0	0	0	0	0	0	0	0	0	0	0	0	0	0	0	0	0	0	0	0	0	0	0	0	0	0	0	0	0	0	0	0	0	0	0	0
071019	16:00:15	16:05:30	313964	5.0.10.0	5_exp_noRW	44	Rpleas_acq	CS_A	DXXD	JQQJ	LWWL	YFFY	ZHHZ	CPPC	gütig	vertrauen	träumen	genießen	sonnig	küssen	gierig	versagen	töten	gemein	sterben	krank	47pct	acq_USpleas_CSpleas2_noRW	acq23456_noRW	2	57	0	0	300	300	517	46	0	0	1	blank2r.bmp	0	1	+	0	1	blank2r.bmp	252	1	JQQJ	306	1	genießen	559	1	FEHLER	1106	0	0	0	0	0	0	0	0	0	0	0	0	0	0	0	0	0	0	0	0	0	0	0	0	0	0	0	0	0	0	0	0	0	0	0	0
071019	16:00:15	16:05:32	315750	5.0.10.0	5_exp_noRW	44	Rpleas_acq	CS_A	DXXD	JQQJ	LWWL	YFFY	ZHHZ	CPPC	gütig	vertrauen	träumen	genießen	sonnig	küssen	gierig	versagen	töten	gemein	sterben	krank	47pct	acq_USunple_CSunple1_noRW	acq23456_noRW	2	58	0	0	300	300	809	46	0	1	1	blank2r.bmp	0	1	+	0	1	blank2r.bmp	252	1	LWWL	306	1	gierig	559	0	0	0	0	0	0	0	0	0	0	0	0	0	0	0	0	0	0	0	0	0	0	0	0	0	0	0	0	0	0	0	0	0	0	0	0	0	0	0
071019	16:00:15	16:05:34	317962	5.0.10.0	5_exp_noRW	44	Rpleas_acq	CS_A	DXXD	JQQJ	LWWL	YFFY	ZHHZ	CPPC	gütig	vertrauen	träumen	genießen	sonnig	küssen	gierig	versagen	töten	gemein	sterben	krank	47pct	acq_USunple_CSunple1_noRW	acq23456_noRW	2	59	0	0	300	300	1036	46	0	1	1	blank2r.bmp	0	1	+	0	1	blank2r.bmp	252	1	LWWL	306	2	versagen	559	0	0	0	0	0	0	0	0	0	0	0	0	0	0	0	0	0	0	0	0	0	0	0	0	0	0	0	0	0	0	0	0	0	0	0	0	0	0	0
071019	16:00:15	16:05:35	319628	5.0.10.0	5_exp_noRW	44	Rpleas_acq	CS_A	DXXD	JQQJ	LWWL	YFFY	ZHHZ	CPPC	gütig	vertrauen	träumen	genießen	sonnig	küssen	gierig	versagen	töten	gemein	sterben	krank	53pct	acq_USunple_CSunple1_noRW	acq23456_noRW	2	60	0	0	300	300	493	46	0	1	1	blank2r.bmp	0	1	+	0	1	blank2r.bmp	252	1	LWWL	306	2	versagen	559	0	0	0	0	0	0	0	0	0	0	0	0	0	0	0	0	0	0	0	0	0	0	0	0	0	0	0	0	0	0	0	0	0	0	0	0	0	0	0
071019	16:00:15	16:05:37	321481	5.0.10.0	5_exp_noRW	44	Rpleas_acq	CS_A	DXXD	JQQJ	LWWL	YFFY	ZHHZ	CPPC	gütig	vertrauen	träumen	genießen	sonnig	küssen	gierig	versagen	töten	gemein	sterben	krank	53pct	acq_USpleas_CSpleas2_noRW	acq23456_noRW	2	61	0	0	300	300	458	46	0	0	1	blank2r.bmp	0	1	+	0	1	blank2r.bmp	252	1	JQQJ	306	2	sonnig	559	1	FEHLER	1052	0	0	0	0	0	0	0	0	0	0	0	0	0	0	0	0	0	0	0	0	0	0	0	0	0	0	0	0	0	0	0	0	0	0	0	0
071019	16:00:15	16:05:39	323014	5.0.10.0	5_exp_noRW	44	Rpleas_acq	CS_A	DXXD	JQQJ	LWWL	YFFY	ZHHZ	CPPC	gütig	vertrauen	träumen	genießen	sonnig	küssen	gierig	versagen	töten	gemein	sterben	krank	53pct	acq_USunple_CSpleas2_noRW	acq23456_noRW	2	62	0	0	300	300	562	46	0	1	1	blank2r.bmp	0	1	+	0	1	blank2r.bmp	252	1	JQQJ	306	2	sterben	559	0	0	0	0	0	0	0	0	0	0	0	0	0	0	0	0	0	0	0	0	0	0	0	0	0	0	0	0	0	0	0	0	0	0	0	0	0	0	0
071019	16:00:15	16:05:40	324653	5.0.10.0	5_exp_noRW	44	Rpleas_acq	CS_A	DXXD	JQQJ	LWWL	YFFY	ZHHZ	CPPC	gütig	vertrauen	träumen	genießen	sonnig	küssen	gierig	versagen	töten	gemein	sterben	krank	47pct	acq_USunple_CSunple2_noRW	acq23456_noRW	2	63	0	0	300	300	464	46	0	1	1	blank2r.bmp	0	1	+	0	1	blank2r.bmp	252	1	YFFY	306	2	sterben	559	0	0	0	0	0	0	0	0	0	0	0	0	0	0	0	0	0	0	0	0	0	0	0	0	0	0	0	0	0	0	0	0	0	0	0	0	0	0	0
071019	16:00:15	16:05:42	326412	5.0.10.0	5_exp_noRW	44	Rpleas_acq	CS_A	DXXD	JQQJ	LWWL	YFFY	ZHHZ	CPPC	gütig	vertrauen	träumen	genießen	sonnig	küssen	gierig	versagen	töten	gemein	sterben	krank	47pct	acq_USunple_CSunple1_noRW	acq23456_noRW	2	64	0	0	300	300	573	46	0	1	1	blank2r.bmp	0	1	+	0	1	blank2r.bmp	252	1	LWWL	306	1	gierig	559	0	0	0	0	0	0	0	0	0	0	0	0	0	0	0	0	0	0	0	0	0	0	0	0	0	0	0	0	0	0	0	0	0	0	0	0	0	0	0
071019	16:00:15	16:05:44	328118	5.0.10.0	5_exp_noRW	44	Rpleas_acq	CS_A	DXXD	JQQJ	LWWL	YFFY	ZHHZ	CPPC	gütig	vertrauen	träumen	genießen	sonnig	küssen	gierig	versagen	töten	gemein	sterben	krank	53pct	acq_USunple_CSunple1_noRW	acq23456_noRW	2	65	0	0	300	300	523	46	0	1	1	blank2r.bmp	0	1	+	0	1	blank2r.bmp	252	1	LWWL	306	3	töten	559	0	0	0	0	0	0	0	0	0	0	0	0	0	0	0	0	0	0	0	0	0	0	0	0	0	0	0	0	0	0	0	0	0	0	0	0	0	0	0
071019	16:00:15	16:05:46	329904	5.0.10.0	5_exp_noRW	44	Rpleas_acq	CS_A	DXXD	JQQJ	LWWL	YFFY	ZHHZ	CPPC	gütig	vertrauen	träumen	genießen	sonnig	küssen	gierig	versagen	töten	gemein	sterben	krank	47pct	acq_USunple_CSunple2_noRW	acq23456_noRW	2	66	0	0	300	300	616	46	0	1	1	blank2r.bmp	0	1	+	0	1	blank2r.bmp	252	1	YFFY	306	1	gemein	559	0	0	0	0	0	0	0	0	0	0	0	0	0	0	0	0	0	0	0	0	0	0	0	0	0	0	0	0	0	0	0	0	0	0	0	0	0	0	0
071019	16:00:15	16:05:48	331770	5.0.10.0	5_exp_noRW	44	Rpleas_acq	CS_A	DXXD	JQQJ	LWWL	YFFY	ZHHZ	CPPC	gütig	vertrauen	träumen	genießen	sonnig	küssen	gierig	versagen	töten	gemein	sterben	krank	53pct	acq_USpleas_CSpleas1_noRW	acq23456_noRW	2	67	0	0	300	300	689	50	0	1	1	blank2r.bmp	0	1	+	0	1	blank2r.bmp	252	1	DXXD	306	1	gütig	559	0	0	0	0	0	0	0	0	0	0	0	0	0	0	0	0	0	0	0	0	0	0	0	0	0	0	0	0	0	0	0	0	0	0	0	0	0	0	0
071019	16:00:15	16:05:49	333409	5.0.10.0	5_exp_noRW	44	Rpleas_acq	CS_A	DXXD	JQQJ	LWWL	YFFY	ZHHZ	CPPC	gütig	vertrauen	träumen	genießen	sonnig	küssen	gierig	versagen	töten	gemein	sterben	krank	47pct	acq_USpleas_CSunple2_noRW	acq23456_noRW	2	68	0	0	300	300	477	50	0	1	1	blank2r.bmp	0	1	+	0	1	blank2r.bmp	252	1	YFFY	306	1	genießen	559	0	0	0	0	0	0	0	0	0	0	0	0	0	0	0	0	0	0	0	0	0	0	0	0	0	0	0	0	0	0	0	0	0	0	0	0	0	0	0
071019	16:00:15	16:05:51	335009	5.0.10.0	5_exp_noRW	44	Rpleas_acq	CS_A	DXXD	JQQJ	LWWL	YFFY	ZHHZ	CPPC	gütig	vertrauen	träumen	genießen	sonnig	küssen	gierig	versagen	töten	gemein	sterben	krank	53pct	acq_USpleas_CSpleas2_noRW	acq23456_noRW	2	69	0	0	300	300	422	50	0	1	1	blank2r.bmp	0	1	+	0	1	blank2r.bmp	252	1	JQQJ	306	3	küssen	559	0	0	0	0	0	0	0	0	0	0	0	0	0	0	0	0	0	0	0	0	0	0	0	0	0	0	0	0	0	0	0	0	0	0	0	0	0	0	0
071019	16:00:15	16:05:52	336622	5.0.10.0	5_exp_noRW	44	Rpleas_acq	CS_A	DXXD	JQQJ	LWWL	YFFY	ZHHZ	CPPC	gütig	vertrauen	träumen	genießen	sonnig	küssen	gierig	versagen	töten	gemein	sterben	krank	53pct	acq_USpleas_CSpleas1_noRW	acq23456_noRW	2	70	0	0	300	300	432	50	0	1	1	blank2r.bmp	0	1	+	0	1	blank2r.bmp	252	1	DXXD	306	3	träumen	559	0	0	0	0	0	0	0	0	0	0	0	0	0	0	0	0	0	0	0	0	0	0	0	0	0	0	0	0	0	0	0	0	0	0	0	0	0	0	0
071019	16:00:15	16:05:54	338434	5.0.10.0	5_exp_noRW	44	Rpleas_acq	CS_A	DXXD	JQQJ	LWWL	YFFY	ZHHZ	CPPC	gütig	vertrauen	träumen	genießen	sonnig	küssen	gierig	versagen	töten	gemein	sterben	krank	47pct	acq_USunple_CSunple2_noRW	acq23456_noRW	2	71	0	0	300	300	647	46	0	1	1	blank2r.bmp	0	1	+	0	1	blank2r.bmp	252	1	YFFY	306	1	gemein	559	0	0	0	0	0	0	0	0	0	0	0	0	0	0	0	0	0	0	0	0	0	0	0	0	0	0	0	0	0	0	0	0	0	0	0	0	0	0	0
071019	16:00:15	16:05:56	340447	5.0.10.0	5_exp_noRW	44	Rpleas_acq	CS_A	DXXD	JQQJ	LWWL	YFFY	ZHHZ	CPPC	gütig	vertrauen	träumen	genießen	sonnig	küssen	gierig	versagen	töten	gemein	sterben	krank	47pct	acq_USpleas_CSpleas2_noRW	acq23456_noRW	2	72	0	0	300	300	619	46	0	0	1	blank2r.bmp	0	1	+	0	1	blank2r.bmp	252	1	JQQJ	306	2	sonnig	559	1	FEHLER	1212	0	0	0	0	0	0	0	0	0	0	0	0	0	0	0	0	0	0	0	0	0	0	0	0	0	0	0	0	0	0	0	0	0	0	0	0
071019	16:00:15	16:05:58	341873	5.0.10.0	5_exp_noRW	44	Rpleas_acq	CS_A	DXXD	JQQJ	LWWL	YFFY	ZHHZ	CPPC	gütig	vertrauen	träumen	genießen	sonnig	küssen	gierig	versagen	töten	gemein	sterben	krank	53pct	acq_USpleas_CSpleas2_noRW	acq23456_noRW	2	73	0	0	300	300	458	50	0	1	1	blank2r.bmp	0	1	+	0	1	blank2r.bmp	252	1	JQQJ	306	3	küssen	559	0	0	0	0	0	0	0	0	0	0	0	0	0	0	0	0	0	0	0	0	0	0	0	0	0	0	0	0	0	0	0	0	0	0	0	0	0	0	0
071019	16:00:15	16:05:59	343685	5.0.10.0	5_exp_noRW	44	Rpleas_acq	CS_A	DXXD	JQQJ	LWWL	YFFY	ZHHZ	CPPC	gütig	vertrauen	träumen	genießen	sonnig	küssen	gierig	versagen	töten	gemein	sterben	krank	53pct	acq_USunple_CSunple1_noRW	acq23456_noRW	2	74	0	0	300	300	636	46	0	1	1	blank2r.bmp	0	1	+	0	1	blank2r.bmp	252	1	LWWL	306	2	versagen	559	0	0	0	0	0	0	0	0	0	0	0	0	0	0	0	0	0	0	0	0	0	0	0	0	0	0	0	0	0	0	0	0	0	0	0	0	0	0	0
071019	16:00:15	16:06:01	345445	5.0.10.0	5_exp_noRW	44	Rpleas_acq	CS_A	DXXD	JQQJ	LWWL	YFFY	ZHHZ	CPPC	gütig	vertrauen	träumen	genießen	sonnig	küssen	gierig	versagen	töten	gemein	sterben	krank	47pct	acq_USunple_CSpleas1_noRW	acq23456_noRW	2	75	0	0	300	300	587	46	0	1	1	blank2r.bmp	0	1	+	0	1	blank2r.bmp	252	1	DXXD	306	3	töten	559	0	0	0	0	0	0	0	0	0	0	0	0	0	0	0	0	0	0	0	0	0	0	0	0	0	0	0	0	0	0	0	0	0	0	0	0	0	0	0
071019	16:00:15	16:06:03	347137	5.0.10.0	5_exp_noRW	44	Rpleas_acq	CS_A	DXXD	JQQJ	LWWL	YFFY	ZHHZ	CPPC	gütig	vertrauen	träumen	genießen	sonnig	küssen	gierig	versagen	töten	gemein	sterben	krank	47pct	acq_USunple_CSunple2_noRW	acq23456_noRW	2	76	0	0	300	300	514	46	0	1	1	blank2r.bmp	0	1	+	0	1	blank2r.bmp	252	1	YFFY	306	3	krank	559	0	0	0	0	0	0	0	0	0	0	0	0	0	0	0	0	0	0	0	0	0	0	0	0	0	0	0	0	0	0	0	0	0	0	0	0	0	0	0
071019	16:00:15	16:06:05	348817	5.0.10.0	5_exp_noRW	44	Rpleas_acq	CS_A	DXXD	JQQJ	LWWL	YFFY	ZHHZ	CPPC	gütig	vertrauen	träumen	genießen	sonnig	küssen	gierig	versagen	töten	gemein	sterben	krank	47pct	acq_USpleas_CSunple1_noRW	acq23456_noRW	2	77	0	0	300	300	511	50	0	1	1	blank2r.bmp	0	1	+	0	1	blank2r.bmp	252	1	LWWL	306	1	gütig	559	0	0	0	0	0	0	0	0	0	0	0	0	0	0	0	0	0	0	0	0	0	0	0	0	0	0	0	0	0	0	0	0	0	0	0	0	0	0	0
071019	16:00:15	16:06:06	350509	5.0.10.0	5_exp_noRW	44	Rpleas_acq	CS_A	DXXD	JQQJ	LWWL	YFFY	ZHHZ	CPPC	gütig	vertrauen	träumen	genießen	sonnig	küssen	gierig	versagen	töten	gemein	sterben	krank	47pct	acq_USpleas_CSpleas1_noRW	acq23456_noRW	2	78	0	0	300	300	514	50	0	1	1	blank2r.bmp	0	1	+	0	1	blank2r.bmp	252	1	DXXD	306	2	vertrauen	559	0	0	0	0	0	0	0	0	0	0	0	0	0	0	0	0	0	0	0	0	0	0	0	0	0	0	0	0	0	0	0	0	0	0	0	0	0	0	0
071019	16:00:15	16:06:08	352322	5.0.10.0	5_exp_noRW	44	Rpleas_acq	CS_A	DXXD	JQQJ	LWWL	YFFY	ZHHZ	CPPC	gütig	vertrauen	träumen	genießen	sonnig	küssen	gierig	versagen	töten	gemein	sterben	krank	47pct	acq_USunple_CSunple1_noRW	acq23456_noRW	2	79	0	0	300	300	419	50	0	0	1	blank2r.bmp	0	1	+	0	1	blank2r.bmp	252	1	LWWL	306	1	gierig	559	1	FEHLER	1012	0	0	0	0	0	0	0	0	0	0	0	0	0	0	0	0	0	0	0	0	0	0	0	0	0	0	0	0	0	0	0	0	0	0	0	0
071019	16:00:15	16:06:10	353908	5.0.10.0	5_exp_noRW	44	Rpleas_acq	CS_A	DXXD	JQQJ	LWWL	YFFY	ZHHZ	CPPC	gütig	vertrauen	träumen	genießen	sonnig	küssen	gierig	versagen	töten	gemein	sterben	krank	47pct	acq_USpleas_CSpleas1_noRW	acq23456_noRW	2	80	0	0	300	300	621	50	0	1	1	blank2r.bmp	0	1	+	0	1	blank2r.bmp	252	1	DXXD	306	3	träumen	559	0	0	0	0	0	0	0	0	0	0	0	0	0	0	0	0	0	0	0	0	0	0	0	0	0	0	0	0	0	0	0	0	0	0	0	0	0	0	0
071019	16:00:15	16:06:20	363770	5.0.10.0	5_exp_noRW	44	Rpleas_acq	CS_A	DXXD	JQQJ	LWWL	YFFY	ZHHZ	CPPC	gütig	vertrauen	träumen	genießen	sonnig	küssen	gierig	versagen	töten	gemein	sterben	krank	53pct	acq_USpleas_CSpleas1_noRW	acq23456_noRW	3	1	0	0	300	300	689	50	0	1	1	blank2r.bmp	0	1	+	0	1	blank2r.bmp	252	1	DXXD	306	1	gütig	559	0	0	0	0	0	0	0	0	0	0	0	0	0	0	0	0	0	0	0	0	0	0	0	0	0	0	0	0	0	0	0	0	0	0	0	0	0	0	0
071019	16:00:15	16:06:21	365543	5.0.10.0	5_exp_noRW	44	Rpleas_acq	CS_A	DXXD	JQQJ	LWWL	YFFY	ZHHZ	CPPC	gütig	vertrauen	träumen	genießen	sonnig	küssen	gierig	versagen	töten	gemein	sterben	krank	47pct	acq_USunple_CSunple2_noRW	acq23456_noRW	3	2	0	0	300	300	589	46	0	1	1	blank2r.bmp	0	1	+	0	1	blank2r.bmp	252	1	YFFY	306	2	sterben	559	0	0	0	0	0	0	0	0	0	0	0	0	0	0	0	0	0	0	0	0	0	0	0	0	0	0	0	0	0	0	0	0	0	0	0	0	0	0	0
071019	16:00:15	16:06:23	367302	5.0.10.0	5_exp_noRW	44	Rpleas_acq	CS_A	DXXD	JQQJ	LWWL	YFFY	ZHHZ	CPPC	gütig	vertrauen	träumen	genießen	sonnig	küssen	gierig	versagen	töten	gemein	sterben	krank	53pct	acq_USunple_CSpleas1_noRW	acq23456_noRW	3	3	0	0	300	300	585	46	0	1	1	blank2r.bmp	0	1	+	0	1	blank2r.bmp	252	1	DXXD	306	1	gierig	559	0	0	0	0	0	0	0	0	0	0	0	0	0	0	0	0	0	0	0	0	0	0	0	0	0	0	0	0	0	0	0	0	0	0	0	0	0	0	0
071019	16:00:15	16:06:25	369035	5.0.10.0	5_exp_noRW	44	Rpleas_acq	CS_A	DXXD	JQQJ	LWWL	YFFY	ZHHZ	CPPC	gütig	vertrauen	träumen	genießen	sonnig	küssen	gierig	versagen	töten	gemein	sterben	krank	47pct	acq_USunple_CSunple1_noRW	acq23456_noRW	3	4	0	0	300	300	556	46	0	1	1	blank2r.bmp	0	1	+	0	1	blank2r.bmp	252	1	LWWL	306	3	töten	559	0	0	0	0	0	0	0	0	0	0	0	0	0	0	0	0	0	0	0	0	0	0	0	0	0	0	0	0	0	0	0	0	0	0	0	0	0	0	0
071019	16:00:15	16:06:26	370648	5.0.10.0	5_exp_noRW	44	Rpleas_acq	CS_A	DXXD	JQQJ	LWWL	YFFY	ZHHZ	CPPC	gütig	vertrauen	träumen	genießen	sonnig	küssen	gierig	versagen	töten	gemein	sterben	krank	47pct	acq_USunple_CSunple1_noRW	acq23456_noRW	3	5	0	0	300	300	426	46	0	1	1	blank2r.bmp	0	1	+	0	1	blank2r.bmp	252	1	LWWL	306	3	töten	559	0	0	0	0	0	0	0	0	0	0	0	0	0	0	0	0	0	0	0	0	0	0	0	0	0	0	0	0	0	0	0	0	0	0	0	0	0	0	0
071019	16:00:15	16:06:28	372380	5.0.10.0	5_exp_noRW	44	Rpleas_acq	CS_A	DXXD	JQQJ	LWWL	YFFY	ZHHZ	CPPC	gütig	vertrauen	träumen	genießen	sonnig	küssen	gierig	versagen	töten	gemein	sterben	krank	53pct	acq_USunple_CSunple1_noRW	acq23456_noRW	3	6	0	0	300	300	566	46	0	1	1	blank2r.bmp	0	1	+	0	1	blank2r.bmp	252	1	LWWL	306	2	versagen	559	0	0	0	0	0	0	0	0	0	0	0	0	0	0	0	0	0	0	0	0	0	0	0	0	0	0	0	0	0	0	0	0	0	0	0	0	0	0	0
071019	16:00:15	16:06:30	374046	5.0.10.0	5_exp_noRW	44	Rpleas_acq	CS_A	DXXD	JQQJ	LWWL	YFFY	ZHHZ	CPPC	gütig	vertrauen	träumen	genießen	sonnig	küssen	gierig	versagen	töten	gemein	sterben	krank	47pct	acq_USunple_CSunple2_noRW	acq23456_noRW	3	7	0	0	300	300	486	46	0	1	1	blank2r.bmp	0	1	+	0	1	blank2r.bmp	252	1	YFFY	306	3	krank	559	0	0	0	0	0	0	0	0	0	0	0	0	0	0	0	0	0	0	0	0	0	0	0	0	0	0	0	0	0	0	0	0	0	0	0	0	0	0	0
071019	16:00:15	16:06:32	375845	5.0.10.0	5_exp_noRW	44	Rpleas_acq	CS_A	DXXD	JQQJ	LWWL	YFFY	ZHHZ	CPPC	gütig	vertrauen	träumen	genießen	sonnig	küssen	gierig	versagen	töten	gemein	sterben	krank	47pct	acq_USpleas_CSpleas1_noRW	acq23456_noRW	3	8	0	0	300	300	633	50	0	1	1	blank2r.bmp	0	1	+	0	1	blank2r.bmp	252	1	DXXD	306	2	vertrauen	559	0	0	0	0	0	0	0	0	0	0	0	0	0	0	0	0	0	0	0	0	0	0	0	0	0	0	0	0	0	0	0	0	0	0	0	0	0	0	0
071019	16:00:15	16:06:33	377471	5.0.10.0	5_exp_noRW	44	Rpleas_acq	CS_A	DXXD	JQQJ	LWWL	YFFY	ZHHZ	CPPC	gütig	vertrauen	träumen	genießen	sonnig	küssen	gierig	versagen	töten	gemein	sterben	krank	47pct	acq_USpleas_CSpleas2_noRW	acq23456_noRW	3	9	0	0	300	300	443	50	0	1	1	blank2r.bmp	0	1	+	0	1	blank2r.bmp	252	1	JQQJ	306	1	genießen	559	0	0	0	0	0	0	0	0	0	0	0	0	0	0	0	0	0	0	0	0	0	0	0	0	0	0	0	0	0	0	0	0	0	0	0	0	0	0	0
071019	16:00:15	16:06:35	379137	5.0.10.0	5_exp_noRW	44	Rpleas_acq	CS_A	DXXD	JQQJ	LWWL	YFFY	ZHHZ	CPPC	gütig	vertrauen	träumen	genießen	sonnig	küssen	gierig	versagen	töten	gemein	sterben	krank	53pct	acq_USpleas_CSpleas2_noRW	acq23456_noRW	3	10	0	0	300	300	483	50	0	1	1	blank2r.bmp	0	1	+	0	1	blank2r.bmp	252	1	JQQJ	306	1	genießen	559	0	0	0	0	0	0	0	0	0	0	0	0	0	0	0	0	0	0	0	0	0	0	0	0	0	0	0	0	0	0	0	0	0	0	0	0	0	0	0
071019	16:00:15	16:06:37	380830	5.0.10.0	5_exp_noRW	44	Rpleas_acq	CS_A	DXXD	JQQJ	LWWL	YFFY	ZHHZ	CPPC	gütig	vertrauen	träumen	genießen	sonnig	küssen	gierig	versagen	töten	gemein	sterben	krank	47pct	acq_USunple_CSunple2_noRW	acq23456_noRW	3	11	0	0	300	300	514	46	0	1	1	blank2r.bmp	0	1	+	0	1	blank2r.bmp	252	1	YFFY	306	2	sterben	559	0	0	0	0	0	0	0	0	0	0	0	0	0	0	0	0	0	0	0	0	0	0	0	0	0	0	0	0	0	0	0	0	0	0	0	0	0	0	0
071019	16:00:15	16:06:39	382829	5.0.10.0	5_exp_noRW	44	Rpleas_acq	CS_A	DXXD	JQQJ	LWWL	YFFY	ZHHZ	CPPC	gütig	vertrauen	träumen	genießen	sonnig	küssen	gierig	versagen	töten	gemein	sterben	krank	53pct	acq_USpleas_CSpleas2_noRW	acq23456_noRW	3	12	0	0	300	300	618	46	0	0	1	blank2r.bmp	0	1	+	0	1	blank2r.bmp	252	1	JQQJ	306	2	sonnig	559	1	FEHLER	1212	0	0	0	0	0	0	0	0	0	0	0	0	0	0	0	0	0	0	0	0	0	0	0	0	0	0	0	0	0	0	0	0	0	0	0	0
071019	16:00:15	16:06:40	384322	5.0.10.0	5_exp_noRW	44	Rpleas_acq	CS_A	DXXD	JQQJ	LWWL	YFFY	ZHHZ	CPPC	gütig	vertrauen	träumen	genießen	sonnig	küssen	gierig	versagen	töten	gemein	sterben	krank	53pct	acq_USunple_CSunple2_noRW	acq23456_noRW	3	13	0	0	300	300	525	46	0	1	1	blank2r.bmp	0	1	+	0	1	blank2r.bmp	252	1	YFFY	306	1	gemein	559	0	0	0	0	0	0	0	0	0	0	0	0	0	0	0	0	0	0	0	0	0	0	0	0	0	0	0	0	0	0	0	0	0	0	0	0	0	0	0
071019	16:00:15	16:06:42	386028	5.0.10.0	5_exp_noRW	44	Rpleas_acq	CS_A	DXXD	JQQJ	LWWL	YFFY	ZHHZ	CPPC	gütig	vertrauen	träumen	genießen	sonnig	küssen	gierig	versagen	töten	gemein	sterben	krank	47pct	acq_USunple_CSunple1_noRW	acq23456_noRW	3	14	0	0	300	300	524	46	0	1	1	blank2r.bmp	0	1	+	0	1	blank2r.bmp	252	1	LWWL	306	1	gierig	559	0	0	0	0	0	0	0	0	0	0	0	0	0	0	0	0	0	0	0	0	0	0	0	0	0	0	0	0	0	0	0	0	0	0	0	0	0	0	0
071019	16:00:15	16:06:44	387867	5.0.10.0	5_exp_noRW	44	Rpleas_acq	CS_A	DXXD	JQQJ	LWWL	YFFY	ZHHZ	CPPC	gütig	vertrauen	träumen	genießen	sonnig	küssen	gierig	versagen	töten	gemein	sterben	krank	53pct	acq_USunple_CSpleas2_noRW	acq23456_noRW	3	15	0	0	300	300	667	46	0	1	1	blank2r.bmp	0	1	+	0	1	blank2r.bmp	252	1	JQQJ	306	1	gemein	559	0	0	0	0	0	0	0	0	0	0	0	0	0	0	0	0	0	0	0	0	0	0	0	0	0	0	0	0	0	0	0	0	0	0	0	0	0	0	0
071019	16:00:15	16:06:45	389467	5.0.10.0	5_exp_noRW	44	Rpleas_acq	CS_A	DXXD	JQQJ	LWWL	YFFY	ZHHZ	CPPC	gütig	vertrauen	träumen	genießen	sonnig	küssen	gierig	versagen	töten	gemein	sterben	krank	53pct	acq_USpleas_CSpleas1_noRW	acq23456_noRW	3	16	0	0	300	300	431	50	0	1	1	blank2r.bmp	0	1	+	0	1	blank2r.bmp	252	1	DXXD	306	3	träumen	559	0	0	0	0	0	0	0	0	0	0	0	0	0	0	0	0	0	0	0	0	0	0	0	0	0	0	0	0	0	0	0	0	0	0	0	0	0	0	0
071019	16:00:15	16:06:47	391146	5.0.10.0	5_exp_noRW	44	Rpleas_acq	CS_A	DXXD	JQQJ	LWWL	YFFY	ZHHZ	CPPC	gütig	vertrauen	träumen	genießen	sonnig	küssen	gierig	versagen	töten	gemein	sterben	krank	53pct	acq_USpleas_CSunple2_noRW	acq23456_noRW	3	17	0	0	300	300	502	50	0	1	1	blank2r.bmp	0	1	+	0	1	blank2r.bmp	252	1	YFFY	306	2	sonnig	559	0	0	0	0	0	0	0	0	0	0	0	0	0	0	0	0	0	0	0	0	0	0	0	0	0	0	0	0	0	0	0	0	0	0	0	0	0	0	0
071019	16:00:15	16:06:49	392785	5.0.10.0	5_exp_noRW	44	Rpleas_acq	CS_A	DXXD	JQQJ	LWWL	YFFY	ZHHZ	CPPC	gütig	vertrauen	träumen	genießen	sonnig	küssen	gierig	versagen	töten	gemein	sterben	krank	53pct	acq_USpleas_CSpleas1_noRW	acq23456_noRW	3	18	0	0	300	300	455	50	0	1	1	blank2r.bmp	0	1	+	0	1	blank2r.bmp	252	1	DXXD	306	1	gütig	559	0	0	0	0	0	0	0	0	0	0	0	0	0	0	0	0	0	0	0	0	0	0	0	0	0	0	0	0	0	0	0	0	0	0	0	0	0	0	0
071019	16:00:15	16:06:51	394771	5.0.10.0	5_exp_noRW	44	Rpleas_acq	CS_A	DXXD	JQQJ	LWWL	YFFY	ZHHZ	CPPC	gütig	vertrauen	träumen	genießen	sonnig	küssen	gierig	versagen	töten	gemein	sterben	krank	47pct	acq_USpleas_CSunple1_noRW	acq23456_noRW	3	19	0	0	300	300	814	50	0	1	1	blank2r.bmp	0	1	+	0	1	blank2r.bmp	252	1	LWWL	306	2	vertrauen	559	0	0	0	0	0	0	0	0	0	0	0	0	0	0	0	0	0	0	0	0	0	0	0	0	0	0	0	0	0	0	0	0	0	0	0	0	0	0	0
071019	16:00:15	16:06:52	396477	5.0.10.0	5_exp_noRW	44	Rpleas_acq	CS_A	DXXD	JQQJ	LWWL	YFFY	ZHHZ	CPPC	gütig	vertrauen	träumen	genießen	sonnig	küssen	gierig	versagen	töten	gemein	sterben	krank	53pct	acq_USpleas_CSpleas2_noRW	acq23456_noRW	3	20	0	0	300	300	523	50	0	1	1	blank2r.bmp	0	1	+	0	1	blank2r.bmp	252	1	JQQJ	306	3	küssen	559	0	0	0	0	0	0	0	0	0	0	0	0	0	0	0	0	0	0	0	0	0	0	0	0	0	0	0	0	0	0	0	0	0	0	0	0	0	0	0
071019	16:00:15	16:06:54	398263	5.0.10.0	5_exp_noRW	44	Rpleas_acq	CS_A	DXXD	JQQJ	LWWL	YFFY	ZHHZ	CPPC	gütig	vertrauen	träumen	genießen	sonnig	küssen	gierig	versagen	töten	gemein	sterben	krank	53pct	acq_USunple_CSpleas2_noRW	acq23456_noRW	3	21	0	0	300	300	401	50	0	0	1	blank2r.bmp	0	1	+	0	1	blank2r.bmp	252	1	JQQJ	306	1	gemein	559	1	FEHLER	999	0	0	0	0	0	0	0	0	0	0	0	0	0	0	0	0	0	0	0	0	0	0	0	0	0	0	0	0	0	0	0	0	0	0	0	0
071019	16:00:15	16:06:56	399756	5.0.10.0	5_exp_noRW	44	Rpleas_acq	CS_A	DXXD	JQQJ	LWWL	YFFY	ZHHZ	CPPC	gütig	vertrauen	träumen	genießen	sonnig	küssen	gierig	versagen	töten	gemein	sterben	krank	47pct	acq_USunple_CSunple1_noRW	acq23456_noRW	3	22	0	0	300	300	519	46	0	1	1	blank2r.bmp	0	1	+	0	1	blank2r.bmp	252	1	LWWL	306	3	töten	559	0	0	0	0	0	0	0	0	0	0	0	0	0	0	0	0	0	0	0	0	0	0	0	0	0	0	0	0	0	0	0	0	0	0	0	0	0	0	0
071019	16:00:15	16:06:57	401568	5.0.10.0	5_exp_noRW	44	Rpleas_acq	CS_A	DXXD	JQQJ	LWWL	YFFY	ZHHZ	CPPC	gütig	vertrauen	träumen	genießen	sonnig	küssen	gierig	versagen	töten	gemein	sterben	krank	53pct	acq_USpleas_CSpleas2_noRW	acq23456_noRW	3	23	0	0	300	300	435	46	0	0	1	blank2r.bmp	0	1	+	0	1	blank2r.bmp	252	1	JQQJ	306	2	sonnig	559	1	FEHLER	1026	0	0	0	0	0	0	0	0	0	0	0	0	0	0	0	0	0	0	0	0	0	0	0	0	0	0	0	0	0	0	0	0	0	0	0	0
071019	16:00:15	16:06:59	403181	5.0.10.0	5_exp_noRW	44	Rpleas_acq	CS_A	DXXD	JQQJ	LWWL	YFFY	ZHHZ	CPPC	gütig	vertrauen	träumen	genießen	sonnig	küssen	gierig	versagen	töten	gemein	sterben	krank	53pct	acq_USunple_CSunple1_noRW	acq23456_noRW	3	24	0	0	300	300	645	46	0	1	1	blank2r.bmp	0	1	+	0	1	blank2r.bmp	252	1	LWWL	306	2	versagen	559	0	0	0	0	0	0	0	0	0	0	0	0	0	0	0	0	0	0	0	0	0	0	0	0	0	0	0	0	0	0	0	0	0	0	0	0	0	0	0
071019	16:00:15	16:07:01	405233	5.0.10.0	5_exp_noRW	44	Rpleas_acq	CS_A	DXXD	JQQJ	LWWL	YFFY	ZHHZ	CPPC	gütig	vertrauen	träumen	genießen	sonnig	küssen	gierig	versagen	töten	gemein	sterben	krank	47pct	acq_USpleas_CSpleas2_noRW	acq23456_noRW	3	25	0	0	300	300	875	50	0	1	1	blank2r.bmp	0	1	+	0	1	blank2r.bmp	252	1	JQQJ	306	3	küssen	559	0	0	0	0	0	0	0	0	0	0	0	0	0	0	0	0	0	0	0	0	0	0	0	0	0	0	0	0	0	0	0	0	0	0	0	0	0	0	0
071019	16:00:15	16:07:03	406846	5.0.10.0	5_exp_noRW	44	Rpleas_acq	CS_A	DXXD	JQQJ	LWWL	YFFY	ZHHZ	CPPC	gütig	vertrauen	träumen	genießen	sonnig	küssen	gierig	versagen	töten	gemein	sterben	krank	47pct	acq_USpleas_CSunple2_noRW	acq23456_noRW	3	26	0	0	300	300	436	50	0	1	1	blank2r.bmp	0	1	+	0	1	blank2r.bmp	252	1	YFFY	306	1	genießen	559	0	0	0	0	0	0	0	0	0	0	0	0	0	0	0	0	0	0	0	0	0	0	0	0	0	0	0	0	0	0	0	0	0	0	0	0	0	0	0
071019	16:00:15	16:07:04	408525	5.0.10.0	5_exp_noRW	44	Rpleas_acq	CS_A	DXXD	JQQJ	LWWL	YFFY	ZHHZ	CPPC	gütig	vertrauen	träumen	genießen	sonnig	küssen	gierig	versagen	töten	gemein	sterben	krank	53pct	acq_USunple_CSunple2_noRW	acq23456_noRW	3	27	0	0	300	300	492	46	0	1	1	blank2r.bmp	0	1	+	0	1	blank2r.bmp	252	1	YFFY	306	3	krank	559	0	0	0	0	0	0	0	0	0	0	0	0	0	0	0	0	0	0	0	0	0	0	0	0	0	0	0	0	0	0	0	0	0	0	0	0	0	0	0
071019	16:00:15	16:07:06	410338	5.0.10.0	5_exp_noRW	44	Rpleas_acq	CS_A	DXXD	JQQJ	LWWL	YFFY	ZHHZ	CPPC	gütig	vertrauen	träumen	genießen	sonnig	küssen	gierig	versagen	töten	gemein	sterben	krank	53pct	acq_USpleas_CSpleas1_noRW	acq23456_noRW	3	28	0	0	300	300	649	50	0	1	1	blank2r.bmp	0	1	+	0	1	blank2r.bmp	252	1	DXXD	306	1	gütig	559	0	0	0	0	0	0	0	0	0	0	0	0	0	0	0	0	0	0	0	0	0	0	0	0	0	0	0	0	0	0	0	0	0	0	0	0	0	0	0
071019	16:00:15	16:07:08	412031	5.0.10.0	5_exp_noRW	44	Rpleas_acq	CS_A	DXXD	JQQJ	LWWL	YFFY	ZHHZ	CPPC	gütig	vertrauen	träumen	genießen	sonnig	küssen	gierig	versagen	töten	gemein	sterben	krank	53pct	acq_USunple_CSunple1_noRW	acq23456_noRW	3	29	0	0	300	300	506	46	0	1	1	blank2r.bmp	0	1	+	0	1	blank2r.bmp	252	1	LWWL	306	1	gierig	559	0	0	0	0	0	0	0	0	0	0	0	0	0	0	0	0	0	0	0	0	0	0	0	0	0	0	0	0	0	0	0	0	0	0	0	0	0	0	0
071019	16:00:15	16:07:10	413737	5.0.10.0	5_exp_noRW	44	Rpleas_acq	CS_A	DXXD	JQQJ	LWWL	YFFY	ZHHZ	CPPC	gütig	vertrauen	träumen	genießen	sonnig	küssen	gierig	versagen	töten	gemein	sterben	krank	53pct	acq_USpleas_CSpleas2_noRW	acq23456_noRW	3	30	0	0	300	300	538	50	0	1	1	blank2r.bmp	0	1	+	0	1	blank2r.bmp	252	1	JQQJ	306	1	genießen	559	0	0	0	0	0	0	0	0	0	0	0	0	0	0	0	0	0	0	0	0	0	0	0	0	0	0	0	0	0	0	0	0	0	0	0	0	0	0	0
071019	16:00:15	16:07:11	415523	5.0.10.0	5_exp_noRW	44	Rpleas_acq	CS_A	DXXD	JQQJ	LWWL	YFFY	ZHHZ	CPPC	gütig	vertrauen	träumen	genießen	sonnig	küssen	gierig	versagen	töten	gemein	sterben	krank	53pct	acq_USunple_CSunple1_noRW	acq23456_noRW	3	31	0	0	300	300	610	46	0	1	1	blank2r.bmp	0	1	+	0	1	blank2r.bmp	252	1	LWWL	306	1	gierig	559	0	0	0	0	0	0	0	0	0	0	0	0	0	0	0	0	0	0	0	0	0	0	0	0	0	0	0	0	0	0	0	0	0	0	0	0	0	0	0
071019	16:00:15	16:07:13	417135	5.0.10.0	5_exp_noRW	44	Rpleas_acq	CS_A	DXXD	JQQJ	LWWL	YFFY	ZHHZ	CPPC	gütig	vertrauen	träumen	genießen	sonnig	küssen	gierig	versagen	töten	gemein	sterben	krank	47pct	acq_USunple_CSunple2_noRW	acq23456_noRW	3	32	0	0	300	300	425	46	0	1	1	blank2r.bmp	0	1	+	0	1	blank2r.bmp	252	1	YFFY	306	2	sterben	559	0	0	0	0	0	0	0	0	0	0	0	0	0	0	0	0	0	0	0	0	0	0	0	0	0	0	0	0	0	0	0	0	0	0	0	0	0	0	0
071019	16:00:15	16:07:15	418908	5.0.10.0	5_exp_noRW	44	Rpleas_acq	CS_A	DXXD	JQQJ	LWWL	YFFY	ZHHZ	CPPC	gütig	vertrauen	träumen	genießen	sonnig	küssen	gierig	versagen	töten	gemein	sterben	krank	53pct	acq_USpleas_CSunple1_noRW	acq23456_noRW	3	33	0	0	300	300	605	50	0	1	1	blank2r.bmp	0	1	+	0	1	blank2r.bmp	252	1	LWWL	306	3	träumen	559	0	0	0	0	0	0	0	0	0	0	0	0	0	0	0	0	0	0	0	0	0	0	0	0	0	0	0	0	0	0	0	0	0	0	0	0	0	0	0
071019	16:00:15	16:07:17	421094	5.0.10.0	5_exp_noRW	44	Rpleas_acq	CS_A	DXXD	JQQJ	LWWL	YFFY	ZHHZ	CPPC	gütig	vertrauen	träumen	genießen	sonnig	küssen	gierig	versagen	töten	gemein	sterben	krank	47pct	acq_USpleas_CSpleas1_noRW	acq23456_noRW	3	34	0	0	300	300	1020	50	0	1	1	blank2r.bmp	0	1	+	0	1	blank2r.bmp	252	1	DXXD	306	2	vertrauen	559	0	0	0	0	0	0	0	0	0	0	0	0	0	0	0	0	0	0	0	0	0	0	0	0	0	0	0	0	0	0	0	0	0	0	0	0	0	0	0
071019	16:00:15	16:07:19	422746	5.0.10.0	5_exp_noRW	44	Rpleas_acq	CS_A	DXXD	JQQJ	LWWL	YFFY	ZHHZ	CPPC	gütig	vertrauen	träumen	genießen	sonnig	küssen	gierig	versagen	töten	gemein	sterben	krank	53pct	acq_USpleas_CSpleas2_noRW	acq23456_noRW	3	35	0	0	300	300	480	50	0	1	1	blank2r.bmp	0	1	+	0	1	blank2r.bmp	252	1	JQQJ	306	2	sonnig	559	0	0	0	0	0	0	0	0	0	0	0	0	0	0	0	0	0	0	0	0	0	0	0	0	0	0	0	0	0	0	0	0	0	0	0	0	0	0	0
071019	16:00:15	16:07:20	424599	5.0.10.0	5_exp_noRW	44	Rpleas_acq	CS_A	DXXD	JQQJ	LWWL	YFFY	ZHHZ	CPPC	gütig	vertrauen	träumen	genießen	sonnig	küssen	gierig	versagen	töten	gemein	sterben	krank	47pct	acq_USunple_CSunple2_noRW	acq23456_noRW	3	36	0	0	300	300	475	50	0	0	1	blank2r.bmp	0	1	+	0	1	blank2r.bmp	252	1	YFFY	306	1	gemein	559	1	FEHLER	1066	0	0	0	0	0	0	0	0	0	0	0	0	0	0	0	0	0	0	0	0	0	0	0	0	0	0	0	0	0	0	0	0	0	0	0	0
071019	16:00:15	16:07:22	426185	5.0.10.0	5_exp_noRW	44	Rpleas_acq	CS_A	DXXD	JQQJ	LWWL	YFFY	ZHHZ	CPPC	gütig	vertrauen	träumen	genießen	sonnig	küssen	gierig	versagen	töten	gemein	sterben	krank	47pct	acq_USpleas_CSpleas1_noRW	acq23456_noRW	3	37	0	0	300	300	635	50	0	1	1	blank2r.bmp	0	1	+	0	1	blank2r.bmp	252	1	DXXD	306	3	träumen	559	0	0	0	0	0	0	0	0	0	0	0	0	0	0	0	0	0	0	0	0	0	0	0	0	0	0	0	0	0	0	0	0	0	0	0	0	0	0	0
071019	16:00:15	16:07:24	427851	5.0.10.0	5_exp_noRW	44	Rpleas_acq	CS_A	DXXD	JQQJ	LWWL	YFFY	ZHHZ	CPPC	gütig	vertrauen	träumen	genießen	sonnig	küssen	gierig	versagen	töten	gemein	sterben	krank	47pct	acq_USpleas_CSpleas1_noRW	acq23456_noRW	3	38	0	0	300	300	486	50	0	1	1	blank2r.bmp	0	1	+	0	1	blank2r.bmp	252	1	DXXD	306	1	gütig	559	0	0	0	0	0	0	0	0	0	0	0	0	0	0	0	0	0	0	0	0	0	0	0	0	0	0	0	0	0	0	0	0	0	0	0	0	0	0	0
071019	16:00:15	16:07:25	429583	5.0.10.0	5_exp_noRW	44	Rpleas_acq	CS_A	DXXD	JQQJ	LWWL	YFFY	ZHHZ	CPPC	gütig	vertrauen	träumen	genießen	sonnig	küssen	gierig	versagen	töten	gemein	sterben	krank	47pct	acq_USunple_CSunple2_noRW	acq23456_noRW	3	39	0	0	300	300	566	46	0	1	1	blank2r.bmp	0	1	+	0	1	blank2r.bmp	252	1	YFFY	306	2	sterben	559	0	0	0	0	0	0	0	0	0	0	0	0	0	0	0	0	0	0	0	0	0	0	0	0	0	0	0	0	0	0	0	0	0	0	0	0	0	0	0
071019	16:00:15	16:07:27	431329	5.0.10.0	5_exp_noRW	44	Rpleas_acq	CS_A	DXXD	JQQJ	LWWL	YFFY	ZHHZ	CPPC	gütig	vertrauen	träumen	genießen	sonnig	küssen	gierig	versagen	töten	gemein	sterben	krank	47pct	acq_USunple_CSpleas1_noRW	acq23456_noRW	3	40	0	0	300	300	581	46	0	1	1	blank2r.bmp	0	1	+	0	1	blank2r.bmp	252	1	DXXD	306	3	töten	559	0	0	0	0	0	0	0	0	0	0	0	0	0	0	0	0	0	0	0	0	0	0	0	0	0	0	0	0	0	0	0	0	0	0	0	0	0	0	0
071019	16:00:15	16:07:29	433035	5.0.10.0	5_exp_noRW	44	Rpleas_acq	CS_A	DXXD	JQQJ	LWWL	YFFY	ZHHZ	CPPC	gütig	vertrauen	träumen	genießen	sonnig	küssen	gierig	versagen	töten	gemein	sterben	krank	47pct	acq_USpleas_CSpleas2_noRW	acq23456_noRW	3	41	0	0	300	300	527	50	0	1	1	blank2r.bmp	0	1	+	0	1	blank2r.bmp	252	1	JQQJ	306	3	küssen	559	0	0	0	0	0	0	0	0	0	0	0	0	0	0	0	0	0	0	0	0	0	0	0	0	0	0	0	0	0	0	0	0	0	0	0	0	0	0	0
071019	16:00:15	16:07:31	434728	5.0.10.0	5_exp_noRW	44	Rpleas_acq	CS_A	DXXD	JQQJ	LWWL	YFFY	ZHHZ	CPPC	gütig	vertrauen	träumen	genießen	sonnig	küssen	gierig	versagen	töten	gemein	sterben	krank	47pct	acq_USpleas_CSpleas2_noRW	acq23456_noRW	3	42	0	0	300	300	517	50	0	1	1	blank2r.bmp	0	1	+	0	1	blank2r.bmp	252	1	JQQJ	306	1	genießen	559	0	0	0	0	0	0	0	0	0	0	0	0	0	0	0	0	0	0	0	0	0	0	0	0	0	0	0	0	0	0	0	0	0	0	0	0	0	0	0
071019	16:00:15	16:07:32	436474	5.0.10.0	5_exp_noRW	44	Rpleas_acq	CS_A	DXXD	JQQJ	LWWL	YFFY	ZHHZ	CPPC	gütig	vertrauen	träumen	genießen	sonnig	küssen	gierig	versagen	töten	gemein	sterben	krank	53pct	acq_USunple_CSunple2_noRW	acq23456_noRW	3	43	0	0	300	300	558	46	0	1	1	blank2r.bmp	0	1	+	0	1	blank2r.bmp	252	1	YFFY	306	3	krank	559	0	0	0	0	0	0	0	0	0	0	0	0	0	0	0	0	0	0	0	0	0	0	0	0	0	0	0	0	0	0	0	0	0	0	0	0	0	0	0
071019	16:00:15	16:07:34	438233	5.0.10.0	5_exp_noRW	44	Rpleas_acq	CS_A	DXXD	JQQJ	LWWL	YFFY	ZHHZ	CPPC	gütig	vertrauen	träumen	genießen	sonnig	küssen	gierig	versagen	töten	gemein	sterben	krank	53pct	acq_USunple_CSunple1_noRW	acq23456_noRW	3	44	0	0	300	300	585	46	0	1	1	blank2r.bmp	0	1	+	0	1	blank2r.bmp	252	1	LWWL	306	2	versagen	559	0	0	0	0	0	0	0	0	0	0	0	0	0	0	0	0	0	0	0	0	0	0	0	0	0	0	0	0	0	0	0	0	0	0	0	0	0	0	0
071019	16:00:15	16:07:36	439873	5.0.10.0	5_exp_noRW	44	Rpleas_acq	CS_A	DXXD	JQQJ	LWWL	YFFY	ZHHZ	CPPC	gütig	vertrauen	träumen	genießen	sonnig	küssen	gierig	versagen	töten	gemein	sterben	krank	47pct	acq_USpleas_CSunple2_noRW	acq23456_noRW	3	45	0	0	300	300	474	50	0	1	1	blank2r.bmp	0	1	+	0	1	blank2r.bmp	252	1	YFFY	306	3	küssen	559	0	0	0	0	0	0	0	0	0	0	0	0	0	0	0	0	0	0	0	0	0	0	0	0	0	0	0	0	0	0	0	0	0	0	0	0	0	0	0
071019	16:00:15	16:07:37	441672	5.0.10.0	5_exp_noRW	44	Rpleas_acq	CS_A	DXXD	JQQJ	LWWL	YFFY	ZHHZ	CPPC	gütig	vertrauen	träumen	genießen	sonnig	küssen	gierig	versagen	töten	gemein	sterben	krank	47pct	acq_USunple_CSpleas2_noRW	acq23456_noRW	3	46	0	0	300	300	617	46	0	1	1	blank2r.bmp	0	1	+	0	1	blank2r.bmp	252	1	JQQJ	306	2	sterben	559	0	0	0	0	0	0	0	0	0	0	0	0	0	0	0	0	0	0	0	0	0	0	0	0	0	0	0	0	0	0	0	0	0	0	0	0	0	0	0
071019	16:00:15	16:07:39	443444	5.0.10.0	5_exp_noRW	44	Rpleas_acq	CS_A	DXXD	JQQJ	LWWL	YFFY	ZHHZ	CPPC	gütig	vertrauen	träumen	genießen	sonnig	küssen	gierig	versagen	töten	gemein	sterben	krank	47pct	acq_USunple_CSunple2_noRW	acq23456_noRW	3	47	0	0	300	300	599	46	0	1	1	blank2r.bmp	0	1	+	0	1	blank2r.bmp	252	1	YFFY	306	1	gemein	559	0	0	0	0	0	0	0	0	0	0	0	0	0	0	0	0	0	0	0	0	0	0	0	0	0	0	0	0	0	0	0	0	0	0	0	0	0	0	0
071019	16:00:15	16:07:41	445137	5.0.10.0	5_exp_noRW	44	Rpleas_acq	CS_A	DXXD	JQQJ	LWWL	YFFY	ZHHZ	CPPC	gütig	vertrauen	träumen	genießen	sonnig	küssen	gierig	versagen	töten	gemein	sterben	krank	53pct	acq_USunple_CSpleas1_noRW	acq23456_noRW	3	48	0	0	300	300	505	46	0	1	1	blank2r.bmp	0	1	+	0	1	blank2r.bmp	252	1	DXXD	306	2	versagen	559	0	0	0	0	0	0	0	0	0	0	0	0	0	0	0	0	0	0	0	0	0	0	0	0	0	0	0	0	0	0	0	0	0	0	0	0	0	0	0
071019	16:00:15	16:07:43	446830	5.0.10.0	5_exp_noRW	44	Rpleas_acq	CS_A	DXXD	JQQJ	LWWL	YFFY	ZHHZ	CPPC	gütig	vertrauen	träumen	genießen	sonnig	küssen	gierig	versagen	töten	gemein	sterben	krank	47pct	acq_USpleas_CSunple1_noRW	acq23456_noRW	3	49	0	0	300	300	531	50	0	1	1	blank2r.bmp	0	1	+	0	1	blank2r.bmp	252	1	LWWL	306	1	gütig	559	0	0	0	0	0	0	0	0	0	0	0	0	0	0	0	0	0	0	0	0	0	0	0	0	0	0	0	0	0	0	0	0	0	0	0	0	0	0	0
071019	16:00:15	16:07:44	448562	5.0.10.0	5_exp_noRW	44	Rpleas_acq	CS_A	DXXD	JQQJ	LWWL	YFFY	ZHHZ	CPPC	gütig	vertrauen	träumen	genießen	sonnig	küssen	gierig	versagen	töten	gemein	sterben	krank	53pct	acq_USunple_CSunple2_noRW	acq23456_noRW	3	50	0	0	300	300	546	46	0	1	1	blank2r.bmp	0	1	+	0	1	blank2r.bmp	252	1	YFFY	306	1	gemein	559	0	0	0	0	0	0	0	0	0	0	0	0	0	0	0	0	0	0	0	0	0	0	0	0	0	0	0	0	0	0	0	0	0	0	0	0	0	0	0
071019	16:00:15	16:07:46	450255	5.0.10.0	5_exp_noRW	44	Rpleas_acq	CS_A	DXXD	JQQJ	LWWL	YFFY	ZHHZ	CPPC	gütig	vertrauen	träumen	genießen	sonnig	küssen	gierig	versagen	töten	gemein	sterben	krank	53pct	acq_USunple_CSunple2_noRW	acq23456_noRW	3	51	0	0	300	300	512	46	0	1	1	blank2r.bmp	0	1	+	0	1	blank2r.bmp	252	1	YFFY	306	3	krank	559	0	0	0	0	0	0	0	0	0	0	0	0	0	0	0	0	0	0	0	0	0	0	0	0	0	0	0	0	0	0	0	0	0	0	0	0	0	0	0
071019	16:00:15	16:07:48	452294	5.0.10.0	5_exp_noRW	44	Rpleas_acq	CS_A	DXXD	JQQJ	LWWL	YFFY	ZHHZ	CPPC	gütig	vertrauen	träumen	genießen	sonnig	küssen	gierig	versagen	töten	gemein	sterben	krank	47pct	acq_USpleas_CSpleas1_noRW	acq23456_noRW	3	52	0	0	300	300	856	50	0	1	1	blank2r.bmp	0	1	+	0	1	blank2r.bmp	252	1	DXXD	306	2	vertrauen	559	0	0	0	0	0	0	0	0	0	0	0	0	0	0	0	0	0	0	0	0	0	0	0	0	0	0	0	0	0	0	0	0	0	0	0	0	0	0	0
071019	16:00:15	16:07:50	453974	5.0.10.0	5_exp_noRW	44	Rpleas_acq	CS_A	DXXD	JQQJ	LWWL	YFFY	ZHHZ	CPPC	gütig	vertrauen	träumen	genießen	sonnig	küssen	gierig	versagen	töten	gemein	sterben	krank	47pct	acq_USpleas_CSpleas1_noRW	acq23456_noRW	3	53	0	0	300	300	505	50	0	1	1	blank2r.bmp	0	1	+	0	1	blank2r.bmp	252	1	DXXD	306	3	träumen	559	0	0	0	0	0	0	0	0	0	0	0	0	0	0	0	0	0	0	0	0	0	0	0	0	0	0	0	0	0	0	0	0	0	0	0	0	0	0	0
071019	16:00:15	16:07:51	455639	5.0.10.0	5_exp_noRW	44	Rpleas_acq	CS_A	DXXD	JQQJ	LWWL	YFFY	ZHHZ	CPPC	gütig	vertrauen	träumen	genießen	sonnig	küssen	gierig	versagen	töten	gemein	sterben	krank	53pct	acq_USpleas_CSpleas2_noRW	acq23456_noRW	3	54	0	0	300	300	498	50	0	1	1	blank2r.bmp	0	1	+	0	1	blank2r.bmp	252	1	JQQJ	306	3	küssen	559	0	0	0	0	0	0	0	0	0	0	0	0	0	0	0	0	0	0	0	0	0	0	0	0	0	0	0	0	0	0	0	0	0	0	0	0	0	0	0
071019	16:00:15	16:07:53	457385	5.0.10.0	5_exp_noRW	44	Rpleas_acq	CS_A	DXXD	JQQJ	LWWL	YFFY	ZHHZ	CPPC	gütig	vertrauen	träumen	genießen	sonnig	küssen	gierig	versagen	töten	gemein	sterben	krank	53pct	acq_USunple_CSunple1_noRW	acq23456_noRW	3	55	0	0	300	300	560	46	0	1	1	blank2r.bmp	0	1	+	0	1	blank2r.bmp	252	1	LWWL	306	3	töten	559	0	0	0	0	0	0	0	0	0	0	0	0	0	0	0	0	0	0	0	0	0	0	0	0	0	0	0	0	0	0	0	0	0	0	0	0	0	0	0
071019	16:00:15	16:07:55	459211	5.0.10.0	5_exp_noRW	44	Rpleas_acq	CS_A	DXXD	JQQJ	LWWL	YFFY	ZHHZ	CPPC	gütig	vertrauen	träumen	genießen	sonnig	küssen	gierig	versagen	töten	gemein	sterben	krank	47pct	acq_USpleas_CSpleas1_noRW	acq23456_noRW	3	56	0	0	300	300	653	50	0	1	1	blank2r.bmp	0	1	+	0	1	blank2r.bmp	252	1	DXXD	306	1	gütig	559	0	0	0	0	0	0	0	0	0	0	0	0	0	0	0	0	0	0	0	0	0	0	0	0	0	0	0	0	0	0	0	0	0	0	0	0	0	0	0
071019	16:00:15	16:07:57	460957	5.0.10.0	5_exp_noRW	44	Rpleas_acq	CS_A	DXXD	JQQJ	LWWL	YFFY	ZHHZ	CPPC	gütig	vertrauen	träumen	genießen	sonnig	küssen	gierig	versagen	töten	gemein	sterben	krank	47pct	acq_USunple_CSunple1_noRW	acq23456_noRW	3	57	0	0	300	300	579	46	0	1	1	blank2r.bmp	0	1	+	0	1	blank2r.bmp	252	1	LWWL	306	1	gierig	559	0	0	0	0	0	0	0	0	0	0	0	0	0	0	0	0	0	0	0	0	0	0	0	0	0	0	0	0	0	0	0	0	0	0	0	0	0	0	0
071019	16:00:15	16:07:59	462983	5.0.10.0	5_exp_noRW	44	Rpleas_acq	CS_A	DXXD	JQQJ	LWWL	YFFY	ZHHZ	CPPC	gütig	vertrauen	träumen	genießen	sonnig	küssen	gierig	versagen	töten	gemein	sterben	krank	53pct	acq_USpleas_CSpleas2_noRW	acq23456_noRW	3	58	0	0	300	300	840	50	0	1	1	blank2r.bmp	0	1	+	0	1	blank2r.bmp	252	1	JQQJ	306	1	genießen	559	0	0	0	0	0	0	0	0	0	0	0	0	0	0	0	0	0	0	0	0	0	0	0	0	0	0	0	0	0	0	0	0	0	0	0	0	0	0	0
071019	16:00:15	16:08:01	464982	5.0.10.0	5_exp_noRW	44	Rpleas_acq	CS_A	DXXD	JQQJ	LWWL	YFFY	ZHHZ	CPPC	gütig	vertrauen	träumen	genießen	sonnig	küssen	gierig	versagen	töten	gemein	sterben	krank	53pct	acq_USpleas_CSpleas1_noRW	acq23456_noRW	3	59	0	0	300	300	832	50	0	1	1	blank2r.bmp	0	1	+	0	1	blank2r.bmp	252	1	DXXD	306	3	träumen	559	0	0	0	0	0	0	0	0	0	0	0	0	0	0	0	0	0	0	0	0	0	0	0	0	0	0	0	0	0	0	0	0	0	0	0	0	0	0	0
071019	16:00:15	16:08:03	466702	5.0.10.0	5_exp_noRW	44	Rpleas_acq	CS_A	DXXD	JQQJ	LWWL	YFFY	ZHHZ	CPPC	gütig	vertrauen	träumen	genießen	sonnig	küssen	gierig	versagen	töten	gemein	sterben	krank	53pct	acq_USunple_CSunple1_noRW	acq23456_noRW	3	60	0	0	300	300	536	46	0	1	1	blank2r.bmp	0	1	+	0	1	blank2r.bmp	252	1	LWWL	306	2	versagen	559	0	0	0	0	0	0	0	0	0	0	0	0	0	0	0	0	0	0	0	0	0	0	0	0	0	0	0	0	0	0	0	0	0	0	0	0	0	0	0
071019	16:00:15	16:08:04	468554	5.0.10.0	5_exp_noRW	44	Rpleas_acq	CS_A	DXXD	JQQJ	LWWL	YFFY	ZHHZ	CPPC	gütig	vertrauen	träumen	genießen	sonnig	küssen	gierig	versagen	töten	gemein	sterben	krank	47pct	acq_USpleas_CSpleas2_noRW	acq23456_noRW	3	61	0	0	300	300	673	50	0	1	1	blank2r.bmp	0	1	+	0	1	blank2r.bmp	252	1	JQQJ	306	2	sonnig	559	0	0	0	0	0	0	0	0	0	0	0	0	0	0	0	0	0	0	0	0	0	0	0	0	0	0	0	0	0	0	0	0	0	0	0	0	0	0	0
071019	16:00:15	16:08:06	470287	5.0.10.0	5_exp_noRW	44	Rpleas_acq	CS_A	DXXD	JQQJ	LWWL	YFFY	ZHHZ	CPPC	gütig	vertrauen	träumen	genießen	sonnig	küssen	gierig	versagen	töten	gemein	sterben	krank	53pct	acq_USpleas_CSpleas2_noRW	acq23456_noRW	3	62	0	0	300	300	547	50	0	1	1	blank2r.bmp	0	1	+	0	1	blank2r.bmp	252	1	JQQJ	306	3	küssen	559	0	0	0	0	0	0	0	0	0	0	0	0	0	0	0	0	0	0	0	0	0	0	0	0	0	0	0	0	0	0	0	0	0	0	0	0	0	0	0
071019	16:00:15	16:08:08	471979	5.0.10.0	5_exp_noRW	44	Rpleas_acq	CS_A	DXXD	JQQJ	LWWL	YFFY	ZHHZ	CPPC	gütig	vertrauen	träumen	genießen	sonnig	küssen	gierig	versagen	töten	gemein	sterben	krank	53pct	acq_USunple_CSunple1_noRW	acq23456_noRW	3	63	0	0	300	300	525	46	0	1	1	blank2r.bmp	0	1	+	0	1	blank2r.bmp	252	1	LWWL	306	3	töten	559	0	0	0	0	0	0	0	0	0	0	0	0	0	0	0	0	0	0	0	0	0	0	0	0	0	0	0	0	0	0	0	0	0	0	0	0	0	0	0
071019	16:00:15	16:08:10	473819	5.0.10.0	5_exp_noRW	44	Rpleas_acq	CS_A	DXXD	JQQJ	LWWL	YFFY	ZHHZ	CPPC	gütig	vertrauen	träumen	genießen	sonnig	küssen	gierig	versagen	töten	gemein	sterben	krank	47pct	acq_USunple_CSunple2_noRW	acq23456_noRW	3	64	0	0	300	300	666	46	0	1	1	blank2r.bmp	0	1	+	0	1	blank2r.bmp	252	1	YFFY	306	2	sterben	559	0	0	0	0	0	0	0	0	0	0	0	0	0	0	0	0	0	0	0	0	0	0	0	0	0	0	0	0	0	0	0	0	0	0	0	0	0	0	0
071019	16:00:15	16:08:11	475591	5.0.10.0	5_exp_noRW	44	Rpleas_acq	CS_A	DXXD	JQQJ	LWWL	YFFY	ZHHZ	CPPC	gütig	vertrauen	träumen	genießen	sonnig	küssen	gierig	versagen	töten	gemein	sterben	krank	53pct	acq_USpleas_CSpleas1_noRW	acq23456_noRW	3	65	0	0	300	300	594	50	0	1	1	blank2r.bmp	0	1	+	0	1	blank2r.bmp	252	1	DXXD	306	2	vertrauen	559	0	0	0	0	0	0	0	0	0	0	0	0	0	0	0	0	0	0	0	0	0	0	0	0	0	0	0	0	0	0	0	0	0	0	0	0	0	0	0
071019	16:00:15	16:08:13	477337	5.0.10.0	5_exp_noRW	44	Rpleas_acq	CS_A	DXXD	JQQJ	LWWL	YFFY	ZHHZ	CPPC	gütig	vertrauen	träumen	genießen	sonnig	küssen	gierig	versagen	töten	gemein	sterben	krank	47pct	acq_USpleas_CSpleas1_noRW	acq23456_noRW	3	66	0	0	300	300	566	50	0	1	1	blank2r.bmp	0	1	+	0	1	blank2r.bmp	252	1	DXXD	306	1	gütig	559	0	0	0	0	0	0	0	0	0	0	0	0	0	0	0	0	0	0	0	0	0	0	0	0	0	0	0	0	0	0	0	0	0	0	0	0	0	0	0
071019	16:00:15	16:08:15	479110	5.0.10.0	5_exp_noRW	44	Rpleas_acq	CS_A	DXXD	JQQJ	LWWL	YFFY	ZHHZ	CPPC	gütig	vertrauen	träumen	genießen	sonnig	küssen	gierig	versagen	töten	gemein	sterben	krank	47pct	acq_USunple_CSunple2_noRW	acq23456_noRW	3	67	0	0	300	300	591	46	0	1	1	blank2r.bmp	0	1	+	0	1	blank2r.bmp	252	1	YFFY	306	3	krank	559	0	0	0	0	0	0	0	0	0	0	0	0	0	0	0	0	0	0	0	0	0	0	0	0	0	0	0	0	0	0	0	0	0	0	0	0	0	0	0
071019	16:00:15	16:08:17	480843	5.0.10.0	5_exp_noRW	44	Rpleas_acq	CS_A	DXXD	JQQJ	LWWL	YFFY	ZHHZ	CPPC	gütig	vertrauen	träumen	genießen	sonnig	küssen	gierig	versagen	töten	gemein	sterben	krank	53pct	acq_USunple_CSunple1_noRW	acq23456_noRW	3	68	0	0	300	300	563	46	0	1	1	blank2r.bmp	0	1	+	0	1	blank2r.bmp	252	1	LWWL	306	2	versagen	559	0	0	0	0	0	0	0	0	0	0	0	0	0	0	0	0	0	0	0	0	0	0	0	0	0	0	0	0	0	0	0	0	0	0	0	0	0	0	0
071019	16:00:15	16:08:19	483202	5.0.10.0	5_exp_noRW	44	Rpleas_acq	CS_A	DXXD	JQQJ	LWWL	YFFY	ZHHZ	CPPC	gütig	vertrauen	träumen	genießen	sonnig	küssen	gierig	versagen	töten	gemein	sterben	krank	47pct	acq_USunple_CSpleas1_noRW	acq23456_noRW	3	69	0	0	300	300	976	50	0	0	1	blank2r.bmp	0	1	+	0	1	blank2r.bmp	252	1	DXXD	306	1	gierig	559	1	FEHLER	1572	0	0	0	0	0	0	0	0	0	0	0	0	0	0	0	0	0	0	0	0	0	0	0	0	0	0	0	0	0	0	0	0	0	0	0	0
071019	16:00:15	16:08:20	484641	5.0.10.0	5_exp_noRW	44	Rpleas_acq	CS_A	DXXD	JQQJ	LWWL	YFFY	ZHHZ	CPPC	gütig	vertrauen	träumen	genießen	sonnig	küssen	gierig	versagen	töten	gemein	sterben	krank	53pct	acq_USpleas_CSpleas2_noRW	acq23456_noRW	3	70	0	0	300	300	472	50	0	1	1	blank2r.bmp	0	1	+	0	1	blank2r.bmp	252	1	JQQJ	306	1	genießen	559	0	0	0	0	0	0	0	0	0	0	0	0	0	0	0	0	0	0	0	0	0	0	0	0	0	0	0	0	0	0	0	0	0	0	0	0	0	0	0
071019	16:00:15	16:08:22	486693	5.0.10.0	5_exp_noRW	44	Rpleas_acq	CS_A	DXXD	JQQJ	LWWL	YFFY	ZHHZ	CPPC	gütig	vertrauen	träumen	genießen	sonnig	küssen	gierig	versagen	töten	gemein	sterben	krank	47pct	acq_USunple_CSpleas2_noRW	acq23456_noRW	3	71	0	0	300	300	866	46	0	1	1	blank2r.bmp	0	1	+	0	1	blank2r.bmp	252	1	JQQJ	306	3	krank	559	0	0	0	0	0	0	0	0	0	0	0	0	0	0	0	0	0	0	0	0	0	0	0	0	0	0	0	0	0	0	0	0	0	0	0	0	0	0	0
071019	16:00:15	16:08:25	488759	5.0.10.0	5_exp_noRW	44	Rpleas_acq	CS_A	DXXD	JQQJ	LWWL	YFFY	ZHHZ	CPPC	gütig	vertrauen	träumen	genießen	sonnig	küssen	gierig	versagen	töten	gemein	sterben	krank	47pct	acq_USpleas_CSpleas1_noRW	acq23456_noRW	3	72	0	0	300	300	899	50	0	1	1	blank2r.bmp	0	1	+	0	1	blank2r.bmp	252	1	DXXD	306	3	träumen	559	0	0	0	0	0	0	0	0	0	0	0	0	0	0	0	0	0	0	0	0	0	0	0	0	0	0	0	0	0	0	0	0	0	0	0	0	0	0	0
071019	16:00:15	16:08:26	490585	5.0.10.0	5_exp_noRW	44	Rpleas_acq	CS_A	DXXD	JQQJ	LWWL	YFFY	ZHHZ	CPPC	gütig	vertrauen	träumen	genießen	sonnig	küssen	gierig	versagen	töten	gemein	sterben	krank	47pct	acq_USunple_CSunple1_noRW	acq23456_noRW	3	73	0	0	300	300	651	46	0	1	1	blank2r.bmp	0	1	+	0	1	blank2r.bmp	252	1	LWWL	306	1	gierig	559	0	0	0	0	0	0	0	0	0	0	0	0	0	0	0	0	0	0	0	0	0	0	0	0	0	0	0	0	0	0	0	0	0	0	0	0	0	0	0
071019	16:00:15	16:08:28	492411	5.0.10.0	5_exp_noRW	44	Rpleas_acq	CS_A	DXXD	JQQJ	LWWL	YFFY	ZHHZ	CPPC	gütig	vertrauen	träumen	genießen	sonnig	küssen	gierig	versagen	töten	gemein	sterben	krank	53pct	acq_USunple_CSunple1_noRW	acq23456_noRW	3	74	0	0	300	300	640	46	0	1	1	blank2r.bmp	0	1	+	0	1	blank2r.bmp	252	1	LWWL	306	3	töten	559	0	0	0	0	0	0	0	0	0	0	0	0	0	0	0	0	0	0	0	0	0	0	0	0	0	0	0	0	0	0	0	0	0	0	0	0	0	0	0
071019	16:00:15	16:08:30	494130	5.0.10.0	5_exp_noRW	44	Rpleas_acq	CS_A	DXXD	JQQJ	LWWL	YFFY	ZHHZ	CPPC	gütig	vertrauen	träumen	genießen	sonnig	küssen	gierig	versagen	töten	gemein	sterben	krank	53pct	acq_USpleas_CSunple2_noRW	acq23456_noRW	3	75	0	0	300	300	543	50	0	1	1	blank2r.bmp	0	1	+	0	1	blank2r.bmp	252	1	YFFY	306	2	sonnig	559	0	0	0	0	0	0	0	0	0	0	0	0	0	0	0	0	0	0	0	0	0	0	0	0	0	0	0	0	0	0	0	0	0	0	0	0	0	0	0
071019	16:00:15	16:08:32	496076	5.0.10.0	5_exp_noRW	44	Rpleas_acq	CS_A	DXXD	JQQJ	LWWL	YFFY	ZHHZ	CPPC	gütig	vertrauen	träumen	genießen	sonnig	küssen	gierig	versagen	töten	gemein	sterben	krank	53pct	acq_USpleas_CSpleas1_noRW	acq23456_noRW	3	76	0	0	300	300	772	50	0	1	1	blank2r.bmp	0	1	+	0	1	blank2r.bmp	252	1	DXXD	306	2	vertrauen	559	0	0	0	0	0	0	0	0	0	0	0	0	0	0	0	0	0	0	0	0	0	0	0	0	0	0	0	0	0	0	0	0	0	0	0	0	0	0	0
071019	16:00:15	16:08:34	497996	5.0.10.0	5_exp_noRW	44	Rpleas_acq	CS_A	DXXD	JQQJ	LWWL	YFFY	ZHHZ	CPPC	gütig	vertrauen	träumen	genießen	sonnig	küssen	gierig	versagen	töten	gemein	sterben	krank	47pct	acq_USunple_CSunple2_noRW	acq23456_noRW	3	77	0	0	300	300	756	46	0	1	1	blank2r.bmp	0	1	+	0	1	blank2r.bmp	252	1	YFFY	306	1	gemein	559	0	0	0	0	0	0	0	0	0	0	0	0	0	0	0	0	0	0	0	0	0	0	0	0	0	0	0	0	0	0	0	0	0	0	0	0	0	0	0
071019	16:00:15	16:08:36	500061	5.0.10.0	5_exp_noRW	44	Rpleas_acq	CS_A	DXXD	JQQJ	LWWL	YFFY	ZHHZ	CPPC	gütig	vertrauen	träumen	genießen	sonnig	küssen	gierig	versagen	töten	gemein	sterben	krank	47pct	acq_USunple_CSunple2_noRW	acq23456_noRW	3	78	0	0	300	300	677	50	0	0	1	blank2r.bmp	0	1	+	0	1	blank2r.bmp	252	1	YFFY	306	2	sterben	559	1	FEHLER	1266	0	0	0	0	0	0	0	0	0	0	0	0	0	0	0	0	0	0	0	0	0	0	0	0	0	0	0	0	0	0	0	0	0	0	0	0
071019	16:00:15	16:08:37	501634	5.0.10.0	5_exp_noRW	44	Rpleas_acq	CS_A	DXXD	JQQJ	LWWL	YFFY	ZHHZ	CPPC	gütig	vertrauen	träumen	genießen	sonnig	küssen	gierig	versagen	töten	gemein	sterben	krank	53pct	acq_USpleas_CSunple1_noRW	acq23456_noRW	3	79	0	0	300	300	602	50	0	1	1	blank2r.bmp	0	1	+	0	1	blank2r.bmp	252	1	LWWL	306	2	vertrauen	559	0	0	0	0	0	0	0	0	0	0	0	0	0	0	0	0	0	0	0	0	0	0	0	0	0	0	0	0	0	0	0	0	0	0	0	0	0	0	0
071019	16:00:15	16:08:39	503420	5.0.10.0	5_exp_noRW	44	Rpleas_acq	CS_A	DXXD	JQQJ	LWWL	YFFY	ZHHZ	CPPC	gütig	vertrauen	träumen	genießen	sonnig	küssen	gierig	versagen	töten	gemein	sterben	krank	53pct	acq_USpleas_CSpleas2_noRW	acq23456_noRW	3	80	0	0	300	300	616	50	0	1	1	blank2r.bmp	0	1	+	0	1	blank2r.bmp	252	1	JQQJ	306	2	sonnig	559	0	0	0	0	0	0	0	0	0	0	0	0	0	0	0	0	0	0	0	0	0	0	0	0	0	0	0	0	0	0	0	0	0	0	0	0	0	0	0
071019	16:00:15	16:08:46	510177	5.0.10.0	5_exp_noRW	44	Rpleas_acq	CS_A	DXXD	JQQJ	LWWL	YFFY	ZHHZ	CPPC	gütig	vertrauen	träumen	genießen	sonnig	küssen	gierig	versagen	töten	gemein	sterben	krank	53pct	acq_USpleas_CSunple1_noRW	acq23456_noRW	4	1	0	0	300	300	544	50	0	1	1	blank2r.bmp	0	1	+	0	1	blank2r.bmp	252	1	LWWL	306	2	vertrauen	559	0	0	0	0	0	0	0	0	0	0	0	0	0	0	0	0	0	0	0	0	0	0	0	0	0	0	0	0	0	0	0	0	0	0	0	0	0	0	0
