date	time	script.currenttime	script.elapsedtime	build	script.currentexpt	subject	expressions.LRpleas_acq	expressions.conditionCS_A	expressions.CSpleas_1	expressions.CSpleas_2	expressions.CSunple_1	expressions.CSunple_2	expressions.distractor_1	expressions.distractor_2	expressions.US_pleas1	expressions.US_pleas2	expressions.US_pleas3	expressions.US_pleas4	expressions.US_pleas5	expressions.US_pleas6	expressions.US_unple1	expressions.US_unple2	expressions.US_unple3	expressions.US_unple4	expressions.US_unple5	expressions.US_unple6	counter.positions_noRW	trialcode	blockcode	blocknum	trialnum	windowcenter	inwindow	pretrialpause	posttrialpause	latency	response	expressions.correctedscore	correct	stimulusnumber1	stimulusitem1	stimulusonset1	stimulusnumber2	stimulusitem2	stimulusonset2	stimulusnumber3	stimulusitem3	stimulusonset3	stimulusnumber4	stimulusitem4	stimulusonset4	stimulusnumber5	stimulusitem5	stimulusonset5	stimulusnumber6	stimulusitem6	stimulusonset6	stimulusnumber7	stimulusitem7	stimulusonset7	stimulusnumber8	stimulusitem8	stimulusonset8	stimulusnumber9	stimulusitem9	stimulusonset9	stimulusnumber10	stimulusitem10	stimulusonset10	stimulusnumber11	stimulusitem11	stimulusonset11	stimulusnumber12	stimulusitem12	stimulusonset12	stimulusnumber13	stimulusitem13	stimulusonset13	stimulusnumber14	stimulusitem14	stimulusonset14	stimulusnumber15	stimulusitem15	stimulusonset15	stimulusnumber16	stimulusitem16	stimulusonset16	stimulusnumber17	stimulusitem17	stimulusonset17	stimulusnumber18	stimulusitem18	stimulusonset18
071019	11:23:40	11:25:12	91854	5.0.10.0	5_exp_RW	35	Rpleas_acq	CS_B	BZZB	GWWG	MQQM	YDDY	VKKV	JXXJ	retten	spielen	treu	schön	ehrlich	fair	rächen	strafen	tot	schlecht	eitel	faul	1	acq_USunple_CSunple2_RW	acq1_RW	1	1	0	0	300	300	1552	50	0	0	1	blank2r.bmp	0	1	+	0	1	blank2r.bmp	492	1	YDDY	492	1	blank2r.bmp	572	2	eitel	866	1	FEHLER	2452	0	0	0	0	0	0	0	0	0	0	0	0	0	0	0	0	0	0	0	0	0	0	0	0	0	0	0	0	0	0	0	0	0
071019	11:23:40	11:25:14	93227	5.0.10.0	5_exp_RW	35	Rpleas_acq	CS_B	BZZB	GWWG	MQQM	YDDY	VKKV	JXXJ	retten	spielen	treu	schön	ehrlich	fair	rächen	strafen	tot	schlecht	eitel	faul	1	acq_USunple_CSunple2_RW	acq1_RW	1	2	0	0	300	300	97	46	0	1	1	blank2r.bmp	0	1	+	0	1	blank2r.bmp	492	1	YDDY	492	1	blank2r.bmp	572	3	faul	866	0	0	0	0	0	0	0	0	0	0	0	0	0	0	0	0	0	0	0	0	0	0	0	0	0	0	0	0	0	0	0	0	0	0	0	0
071019	11:23:40	11:25:16	95000	5.0.10.0	5_exp_RW	35	Rpleas_acq	CS_B	BZZB	GWWG	MQQM	YDDY	VKKV	JXXJ	retten	spielen	treu	schön	ehrlich	fair	rächen	strafen	tot	schlecht	eitel	faul	1	acq_USpleas_CSpleas2_RW	acq1_RW	1	3	0	0	300	300	303	50	0	1	1	blank2r.bmp	0	1	+	0	1	blank2r.bmp	492	1	GWWG	492	1	blank2r.bmp	572	3	fair	866	0	0	0	0	0	0	0	0	0	0	0	0	0	0	0	0	0	0	0	0	0	0	0	0	0	0	0	0	0	0	0	0	0	0	0	0
071019	11:23:40	11:25:18	97185	5.0.10.0	5_exp_RW	35	Rpleas_acq	CS_B	BZZB	GWWG	MQQM	YDDY	VKKV	JXXJ	retten	spielen	treu	schön	ehrlich	fair	rächen	strafen	tot	schlecht	eitel	faul	1	acq_USpleas_CSpleas1_RW	acq1_RW	1	4	0	0	300	300	697	50	0	1	1	blank2r.bmp	0	1	+	0	1	blank2r.bmp	492	1	BZZB	492	1	blank2r.bmp	572	1	retten	866	0	0	0	0	0	0	0	0	0	0	0	0	0	0	0	0	0	0	0	0	0	0	0	0	0	0	0	0	0	0	0	0	0	0	0	0
071019	11:23:40	11:25:20	99144	5.0.10.0	5_exp_RW	35	Rpleas_acq	CS_B	BZZB	GWWG	MQQM	YDDY	VKKV	JXXJ	retten	spielen	treu	schön	ehrlich	fair	rächen	strafen	tot	schlecht	eitel	faul	1	acq_USunple_CSunple2_RW	acq1_RW	1	5	0	0	300	300	467	46	0	1	1	blank2r.bmp	0	1	+	0	1	blank2r.bmp	492	1	YDDY	492	1	blank2r.bmp	572	1	schlecht	866	0	0	0	0	0	0	0	0	0	0	0	0	0	0	0	0	0	0	0	0	0	0	0	0	0	0	0	0	0	0	0	0	0	0	0	0
071019	11:23:40	11:25:22	101290	5.0.10.0	5_exp_RW	35	Rpleas_acq	CS_B	BZZB	GWWG	MQQM	YDDY	VKKV	JXXJ	retten	spielen	treu	schön	ehrlich	fair	rächen	strafen	tot	schlecht	eitel	faul	1	acq_USunple_CSunple2_RW	acq1_RW	1	6	0	0	300	300	461	50	0	0	1	blank2r.bmp	0	1	+	0	1	blank2r.bmp	492	1	YDDY	492	1	blank2r.bmp	572	2	eitel	866	1	FEHLER	1359	0	0	0	0	0	0	0	0	0	0	0	0	0	0	0	0	0	0	0	0	0	0	0	0	0	0	0	0	0	0	0	0	0
071019	11:23:40	11:25:24	103129	5.0.10.0	5_exp_RW	35	Rpleas_acq	CS_B	BZZB	GWWG	MQQM	YDDY	VKKV	JXXJ	retten	spielen	treu	schön	ehrlich	fair	rächen	strafen	tot	schlecht	eitel	faul	1	acq_USpleas_CSpleas1_RW	acq1_RW	1	7	0	0	300	300	562	50	0	1	1	blank2r.bmp	0	1	+	0	1	blank2r.bmp	492	1	BZZB	492	1	blank2r.bmp	572	2	spielen	866	0	0	0	0	0	0	0	0	0	0	0	0	0	0	0	0	0	0	0	0	0	0	0	0	0	0	0	0	0	0	0	0	0	0	0	0
071019	11:23:40	11:25:26	105062	5.0.10.0	5_exp_RW	35	Rpleas_acq	CS_B	BZZB	GWWG	MQQM	YDDY	VKKV	JXXJ	retten	spielen	treu	schön	ehrlich	fair	rächen	strafen	tot	schlecht	eitel	faul	1	acq_USpleas_CSpleas1_RW	acq1_RW	1	8	0	0	300	300	446	50	0	1	1	blank2r.bmp	0	1	+	0	1	blank2r.bmp	492	1	BZZB	492	1	blank2r.bmp	572	3	treu	866	0	0	0	0	0	0	0	0	0	0	0	0	0	0	0	0	0	0	0	0	0	0	0	0	0	0	0	0	0	0	0	0	0	0	0	0
071019	11:23:40	11:25:28	107114	5.0.10.0	5_exp_RW	35	Rpleas_acq	CS_B	BZZB	GWWG	MQQM	YDDY	VKKV	JXXJ	retten	spielen	treu	schön	ehrlich	fair	rächen	strafen	tot	schlecht	eitel	faul	1	acq_USpleas_CSpleas1_RW	acq1_RW	1	9	0	0	300	300	568	50	0	1	1	blank2r.bmp	0	1	+	0	1	blank2r.bmp	492	1	BZZB	492	1	blank2r.bmp	572	1	retten	866	0	0	0	0	0	0	0	0	0	0	0	0	0	0	0	0	0	0	0	0	0	0	0	0	0	0	0	0	0	0	0	0	0	0	0	0
071019	11:23:40	11:25:30	109074	5.0.10.0	5_exp_RW	35	Rpleas_acq	CS_B	BZZB	GWWG	MQQM	YDDY	VKKV	JXXJ	retten	spielen	treu	schön	ehrlich	fair	rächen	strafen	tot	schlecht	eitel	faul	1	acq_USunple_CSunple1_RW	acq1_RW	1	10	0	0	300	300	465	46	0	1	1	blank2r.bmp	0	1	+	0	1	blank2r.bmp	492	1	MQQM	492	1	blank2r.bmp	572	2	strafen	866	0	0	0	0	0	0	0	0	0	0	0	0	0	0	0	0	0	0	0	0	0	0	0	0	0	0	0	0	0	0	0	0	0	0	0	0
071019	11:23:40	11:25:31	110886	5.0.10.0	5_exp_RW	35	Rpleas_acq	CS_B	BZZB	GWWG	MQQM	YDDY	VKKV	JXXJ	retten	spielen	treu	schön	ehrlich	fair	rächen	strafen	tot	schlecht	eitel	faul	1	acq_USunple_CSunple1_RW	acq1_RW	1	11	0	0	300	300	342	46	0	1	1	blank2r.bmp	0	1	+	0	1	blank2r.bmp	492	1	MQQM	492	1	blank2r.bmp	572	3	tot	866	0	0	0	0	0	0	0	0	0	0	0	0	0	0	0	0	0	0	0	0	0	0	0	0	0	0	0	0	0	0	0	0	0	0	0	0
071019	11:23:40	11:25:33	112845	5.0.10.0	5_exp_RW	35	Rpleas_acq	CS_B	BZZB	GWWG	MQQM	YDDY	VKKV	JXXJ	retten	spielen	treu	schön	ehrlich	fair	rächen	strafen	tot	schlecht	eitel	faul	1	acq_USpleas_CSpleas2_RW	acq1_RW	1	12	0	0	300	300	469	50	0	1	1	blank2r.bmp	0	1	+	0	1	blank2r.bmp	492	1	GWWG	492	1	blank2r.bmp	572	2	ehrlich	866	0	0	0	0	0	0	0	0	0	0	0	0	0	0	0	0	0	0	0	0	0	0	0	0	0	0	0	0	0	0	0	0	0	0	0	0
071019	11:23:40	11:25:35	114698	5.0.10.0	5_exp_RW	35	Rpleas_acq	CS_B	BZZB	GWWG	MQQM	YDDY	VKKV	JXXJ	retten	spielen	treu	schön	ehrlich	fair	rächen	strafen	tot	schlecht	eitel	faul	1	acq_USpleas_CSpleas2_RW	acq1_RW	1	13	0	0	300	300	367	50	0	1	1	blank2r.bmp	0	1	+	0	1	blank2r.bmp	492	1	GWWG	492	1	blank2r.bmp	572	1	schön	866	0	0	0	0	0	0	0	0	0	0	0	0	0	0	0	0	0	0	0	0	0	0	0	0	0	0	0	0	0	0	0	0	0	0	0	0
071019	11:23:40	11:25:37	116724	5.0.10.0	5_exp_RW	35	Rpleas_acq	CS_B	BZZB	GWWG	MQQM	YDDY	VKKV	JXXJ	retten	spielen	treu	schön	ehrlich	fair	rächen	strafen	tot	schlecht	eitel	faul	1	acq_USunple_CSunple1_RW	acq1_RW	1	14	0	0	300	300	326	50	0	0	1	blank2r.bmp	0	1	+	0	1	blank2r.bmp	492	1	MQQM	492	1	blank2r.bmp	572	1	rächen	866	1	FEHLER	1226	0	0	0	0	0	0	0	0	0	0	0	0	0	0	0	0	0	0	0	0	0	0	0	0	0	0	0	0	0	0	0	0	0
071019	11:23:40	11:25:39	118616	5.0.10.0	5_exp_RW	35	Rpleas_acq	CS_B	BZZB	GWWG	MQQM	YDDY	VKKV	JXXJ	retten	spielen	treu	schön	ehrlich	fair	rächen	strafen	tot	schlecht	eitel	faul	1	acq_USunple_CSunple1_RW	acq1_RW	1	15	0	0	300	300	623	46	0	1	1	blank2r.bmp	0	1	+	0	1	blank2r.bmp	492	1	MQQM	492	1	blank2r.bmp	572	1	rächen	866	0	0	0	0	0	0	0	0	0	0	0	0	0	0	0	0	0	0	0	0	0	0	0	0	0	0	0	0	0	0	0	0	0	0	0	0
071019	11:23:40	11:25:41	120669	5.0.10.0	5_exp_RW	35	Rpleas_acq	CS_B	BZZB	GWWG	MQQM	YDDY	VKKV	JXXJ	retten	spielen	treu	schön	ehrlich	fair	rächen	strafen	tot	schlecht	eitel	faul	1	acq_USpleas_CSpleas2_RW	acq1_RW	1	16	0	0	300	300	355	46	0	0	1	blank2r.bmp	0	1	+	0	1	blank2r.bmp	492	1	GWWG	492	1	blank2r.bmp	572	3	fair	866	1	FEHLER	1252	0	0	0	0	0	0	0	0	0	0	0	0	0	0	0	0	0	0	0	0	0	0	0	0	0	0	0	0	0	0	0	0	0
071019	11:23:40	11:26:34	173047	5.0.10.0	5_exp_RW	35	Rpleas_acq	CS_B	BZZB	GWWG	MQQM	YDDY	VKKV	JXXJ	retten	spielen	treu	schön	ehrlich	fair	rächen	strafen	tot	schlecht	eitel	faul	1	acq_USpleas_CSpleas1_RW	acq2_RW	2	1	480	0	300	300	3342	50	0	1	1	blank2r.bmp	0	1	+	0	1	blank2r.bmp	492	1	BZZB	492	1	blank2r.bmp	572	2	spielen	866	1	!	1319	1	!	-1	0	0	0	0	0	0	0	0	0	0	0	0	0	0	0	0	0	0	0	0	0	0	0	0	0	0	0	0	0	0
071019	11:23:40	11:26:36	175326	5.0.10.0	5_exp_RW	35	Rpleas_acq	CS_B	BZZB	GWWG	MQQM	YDDY	VKKV	JXXJ	retten	spielen	treu	schön	ehrlich	fair	rächen	strafen	tot	schlecht	eitel	faul	1	acq_USunple_CSunple1_RW	acq2_RW	2	2	480	1	300	300	465	46	0	1	1	blank2r.bmp	0	1	+	0	1	blank2r.bmp	492	1	MQQM	492	1	blank2r.bmp	572	2	strafen	866	1	!	1319	1	!	1372	0	0	0	0	0	0	0	0	0	0	0	0	0	0	0	0	0	0	0	0	0	0	0	0	0	0	0	0	0	0
071019	11:23:40	11:26:38	177512	5.0.10.0	5_exp_RW	35	Rpleas_acq	CS_B	BZZB	GWWG	MQQM	YDDY	VKKV	JXXJ	retten	spielen	treu	schön	ehrlich	fair	rächen	strafen	tot	schlecht	eitel	faul	1	acq_USunple_CSunple2_RW	acq2_RW	2	3	480	0	300	300	400	46	0	1	1	blank2r.bmp	0	1	+	0	1	blank2r.bmp	492	1	YDDY	492	1	blank2r.bmp	572	1	schlecht	866	1	!	-1	1	!	-1	0	0	0	0	0	0	0	0	0	0	0	0	0	0	0	0	0	0	0	0	0	0	0	0	0	0	0	0	0	0
071019	11:23:40	11:26:40	179964	5.0.10.0	5_exp_RW	35	Rpleas_acq	CS_B	BZZB	GWWG	MQQM	YDDY	VKKV	JXXJ	retten	spielen	treu	schön	ehrlich	fair	rächen	strafen	tot	schlecht	eitel	faul	1	acq_USunple_CSunple1_RW	acq2_RW	2	4	480	0	300	300	663	46	0	1	1	blank2r.bmp	0	1	+	0	1	blank2r.bmp	492	1	MQQM	492	1	blank2r.bmp	572	3	tot	866	1	!	1319	1	!	-1	0	0	0	0	0	0	0	0	0	0	0	0	0	0	0	0	0	0	0	0	0	0	0	0	0	0	0	0	0	0
071019	11:23:40	11:26:43	182136	5.0.10.0	5_exp_RW	35	Rpleas_acq	CS_B	BZZB	GWWG	MQQM	YDDY	VKKV	JXXJ	retten	spielen	treu	schön	ehrlich	fair	rächen	strafen	tot	schlecht	eitel	faul	1	acq_USunple_CSunple2_RW	acq2_RW	2	5	480	0	300	300	393	46	0	1	1	blank2r.bmp	0	1	+	0	1	blank2r.bmp	492	1	YDDY	492	1	blank2r.bmp	572	3	faul	866	1	!	-1	1	!	-1	0	0	0	0	0	0	0	0	0	0	0	0	0	0	0	0	0	0	0	0	0	0	0	0	0	0	0	0	0	0
071019	11:23:40	11:26:45	184242	5.0.10.0	5_exp_RW	35	Rpleas_acq	CS_B	BZZB	GWWG	MQQM	YDDY	VKKV	JXXJ	retten	spielen	treu	schön	ehrlich	fair	rächen	strafen	tot	schlecht	eitel	faul	1	acq_USunple_CSunple2_RW	acq2_RW	2	6	480	0	300	300	324	46	0	1	1	blank2r.bmp	0	1	+	0	1	blank2r.bmp	492	1	YDDY	492	1	blank2r.bmp	572	3	faul	866	1	!	-1	1	!	-1	0	0	0	0	0	0	0	0	0	0	0	0	0	0	0	0	0	0	0	0	0	0	0	0	0	0	0	0	0	0
071019	11:23:40	11:26:47	186375	5.0.10.0	5_exp_RW	35	Rpleas_acq	CS_B	BZZB	GWWG	MQQM	YDDY	VKKV	JXXJ	retten	spielen	treu	schön	ehrlich	fair	rächen	strafen	tot	schlecht	eitel	faul	1	acq_USpleas_CSpleas2_RW	acq2_RW	2	7	480	0	300	300	351	50	0	1	1	blank2r.bmp	0	1	+	0	1	blank2r.bmp	492	1	GWWG	492	1	blank2r.bmp	572	2	ehrlich	866	1	!	-1	1	!	-1	0	0	0	0	0	0	0	0	0	0	0	0	0	0	0	0	0	0	0	0	0	0	0	0	0	0	0	0	0	0
071019	11:23:40	11:26:49	188454	5.0.10.0	5_exp_RW	35	Rpleas_acq	CS_B	BZZB	GWWG	MQQM	YDDY	VKKV	JXXJ	retten	spielen	treu	schön	ehrlich	fair	rächen	strafen	tot	schlecht	eitel	faul	1	acq_USpleas_CSpleas2_RW	acq2_RW	2	8	480	0	300	300	302	50	0	1	1	blank2r.bmp	0	1	+	0	1	blank2r.bmp	492	1	GWWG	492	1	blank2r.bmp	572	1	schön	866	1	!	-1	1	!	-1	0	0	0	0	0	0	0	0	0	0	0	0	0	0	0	0	0	0	0	0	0	0	0	0	0	0	0	0	0	0
071019	11:23:40	11:26:51	190706	5.0.10.0	5_exp_RW	35	Rpleas_acq	CS_B	BZZB	GWWG	MQQM	YDDY	VKKV	JXXJ	retten	spielen	treu	schön	ehrlich	fair	rächen	strafen	tot	schlecht	eitel	faul	1	acq_USunple_CSunple1_RW	acq2_RW	2	9	480	1	300	300	450	46	0	1	1	blank2r.bmp	0	1	+	0	1	blank2r.bmp	492	1	MQQM	492	1	blank2r.bmp	572	1	rächen	866	1	!	1319	1	!	1346	0	0	0	0	0	0	0	0	0	0	0	0	0	0	0	0	0	0	0	0	0	0	0	0	0	0	0	0	0	0
071019	11:23:40	11:26:54	193172	5.0.10.0	5_exp_RW	35	Rpleas_acq	CS_B	BZZB	GWWG	MQQM	YDDY	VKKV	JXXJ	retten	spielen	treu	schön	ehrlich	fair	rächen	strafen	tot	schlecht	eitel	faul	1	acq_USpleas_CSpleas1_RW	acq2_RW	2	10	480	1	300	300	451	46	0	0	1	blank2r.bmp	0	1	+	0	1	blank2r.bmp	492	1	BZZB	492	1	blank2r.bmp	572	3	treu	866	1	FEHLER	1665	1	!	1319	1	!	1346	0	0	0	0	0	0	0	0	0	0	0	0	0	0	0	0	0	0	0	0	0	0	0	0	0	0	0
071019	11:23:40	11:26:56	195184	5.0.10.0	5_exp_RW	35	Rpleas_acq	CS_B	BZZB	GWWG	MQQM	YDDY	VKKV	JXXJ	retten	spielen	treu	schön	ehrlich	fair	rächen	strafen	tot	schlecht	eitel	faul	1	acq_USunple_CSunple2_RW	acq2_RW	2	11	480	1	300	300	426	46	0	1	1	blank2r.bmp	0	1	+	0	1	blank2r.bmp	492	1	YDDY	492	1	blank2r.bmp	572	2	eitel	866	1	!	1319	1	!	1332	0	0	0	0	0	0	0	0	0	0	0	0	0	0	0	0	0	0	0	0	0	0	0	0	0	0	0	0	0	0
071019	11:23:40	11:26:58	197650	5.0.10.0	5_exp_RW	35	Rpleas_acq	CS_B	BZZB	GWWG	MQQM	YDDY	VKKV	JXXJ	retten	spielen	treu	schön	ehrlich	fair	rächen	strafen	tot	schlecht	eitel	faul	1	acq_USpleas_CSpleas2_RW	acq2_RW	2	12	480	0	300	300	679	50	0	1	1	blank2r.bmp	0	1	+	0	1	blank2r.bmp	492	1	GWWG	492	1	blank2r.bmp	572	3	fair	866	1	!	1319	1	!	-1	0	0	0	0	0	0	0	0	0	0	0	0	0	0	0	0	0	0	0	0	0	0	0	0	0	0	0	0	0	0
071019	11:23:40	11:27:01	200102	5.0.10.0	5_exp_RW	35	Rpleas_acq	CS_B	BZZB	GWWG	MQQM	YDDY	VKKV	JXXJ	retten	spielen	treu	schön	ehrlich	fair	rächen	strafen	tot	schlecht	eitel	faul	1	acq_USpleas_CSpleas1_RW	acq2_RW	2	13	480	0	300	300	658	50	0	1	1	blank2r.bmp	0	1	+	0	1	blank2r.bmp	492	1	BZZB	492	1	blank2r.bmp	572	1	retten	866	1	!	1319	1	!	-1	0	0	0	0	0	0	0	0	0	0	0	0	0	0	0	0	0	0	0	0	0	0	0	0	0	0	0	0	0	0
071019	11:23:40	11:27:03	202208	5.0.10.0	5_exp_RW	35	Rpleas_acq	CS_B	BZZB	GWWG	MQQM	YDDY	VKKV	JXXJ	retten	spielen	treu	schön	ehrlich	fair	rächen	strafen	tot	schlecht	eitel	faul	1	acq_USpleas_CSpleas1_RW	acq2_RW	2	14	480	0	300	300	321	50	0	1	1	blank2r.bmp	0	1	+	0	1	blank2r.bmp	492	1	BZZB	492	1	blank2r.bmp	572	2	spielen	866	1	!	-1	1	!	-1	0	0	0	0	0	0	0	0	0	0	0	0	0	0	0	0	0	0	0	0	0	0	0	0	0	0	0	0	0	0
071019	11:23:40	11:27:05	204607	5.0.10.0	5_exp_RW	35	Rpleas_acq	CS_B	BZZB	GWWG	MQQM	YDDY	VKKV	JXXJ	retten	spielen	treu	schön	ehrlich	fair	rächen	strafen	tot	schlecht	eitel	faul	1	acq_USpleas_CSpleas1_RW	acq2_RW	2	15	480	0	300	300	395	46	0	0	1	blank2r.bmp	0	1	+	0	1	blank2r.bmp	492	1	BZZB	492	1	blank2r.bmp	572	3	treu	866	1	FEHLER	1599	1	!	-1	1	!	-1	0	0	0	0	0	0	0	0	0	0	0	0	0	0	0	0	0	0	0	0	0	0	0	0	0	0	0
071019	11:23:40	11:27:07	206566	5.0.10.0	5_exp_RW	35	Rpleas_acq	CS_B	BZZB	GWWG	MQQM	YDDY	VKKV	JXXJ	retten	spielen	treu	schön	ehrlich	fair	rächen	strafen	tot	schlecht	eitel	faul	1	acq_USunple_CSunple1_RW	acq2_RW	2	16	480	0	300	300	406	46	0	1	1	blank2r.bmp	0	1	+	0	1	blank2r.bmp	492	1	MQQM	492	1	blank2r.bmp	572	3	tot	866	1	!	-1	1	!	-1	0	0	0	0	0	0	0	0	0	0	0	0	0	0	0	0	0	0	0	0	0	0	0	0	0	0	0	0	0	0
071019	11:23:40	11:27:10	208992	5.0.10.0	5_exp_RW	35	Rpleas_acq	CS_B	BZZB	GWWG	MQQM	YDDY	VKKV	JXXJ	retten	spielen	treu	schön	ehrlich	fair	rächen	strafen	tot	schlecht	eitel	faul	1	acq_USunple_CSunple2_RW	acq2_RW	2	17	480	0	300	300	641	46	0	1	1	blank2r.bmp	0	1	+	0	1	blank2r.bmp	492	1	YDDY	492	1	blank2r.bmp	572	1	schlecht	866	1	!	1319	1	!	-1	0	0	0	0	0	0	0	0	0	0	0	0	0	0	0	0	0	0	0	0	0	0	0	0	0	0	0	0	0	0
071019	11:23:40	11:27:12	211138	5.0.10.0	5_exp_RW	35	Rpleas_acq	CS_B	BZZB	GWWG	MQQM	YDDY	VKKV	JXXJ	retten	spielen	treu	schön	ehrlich	fair	rächen	strafen	tot	schlecht	eitel	faul	1	acq_USunple_CSunple2_RW	acq2_RW	2	18	480	0	300	300	354	46	0	1	1	blank2r.bmp	0	1	+	0	1	blank2r.bmp	492	1	YDDY	492	1	blank2r.bmp	572	1	schlecht	866	1	!	-1	1	!	-1	0	0	0	0	0	0	0	0	0	0	0	0	0	0	0	0	0	0	0	0	0	0	0	0	0	0	0	0	0	0
071019	11:23:40	11:27:14	213377	5.0.10.0	5_exp_RW	35	Rpleas_acq	CS_B	BZZB	GWWG	MQQM	YDDY	VKKV	JXXJ	retten	spielen	treu	schön	ehrlich	fair	rächen	strafen	tot	schlecht	eitel	faul	1	acq_USpleas_CSpleas1_RW	acq2_RW	2	19	480	1	300	300	426	50	0	1	1	blank2r.bmp	0	1	+	0	1	blank2r.bmp	492	1	BZZB	492	1	blank2r.bmp	572	3	treu	866	1	!	1319	1	!	1332	0	0	0	0	0	0	0	0	0	0	0	0	0	0	0	0	0	0	0	0	0	0	0	0	0	0	0	0	0	0
071019	11:23:40	11:27:16	215669	5.0.10.0	5_exp_RW	35	Rpleas_acq	CS_B	BZZB	GWWG	MQQM	YDDY	VKKV	JXXJ	retten	spielen	treu	schön	ehrlich	fair	rächen	strafen	tot	schlecht	eitel	faul	1	acq_USpleas_CSpleas2_RW	acq2_RW	2	20	480	1	300	300	500	50	0	1	1	blank2r.bmp	0	1	+	0	1	blank2r.bmp	492	1	GWWG	492	1	blank2r.bmp	572	2	ehrlich	866	1	!	1319	1	!	1399	0	0	0	0	0	0	0	0	0	0	0	0	0	0	0	0	0	0	0	0	0	0	0	0	0	0	0	0	0	0
071019	11:23:40	11:27:19	218135	5.0.10.0	5_exp_RW	35	Rpleas_acq	CS_B	BZZB	GWWG	MQQM	YDDY	VKKV	JXXJ	retten	spielen	treu	schön	ehrlich	fair	rächen	strafen	tot	schlecht	eitel	faul	1	acq_USunple_CSunple1_RW	acq2_RW	2	21	480	0	300	300	696	46	0	1	1	blank2r.bmp	0	1	+	0	1	blank2r.bmp	492	1	MQQM	492	1	blank2r.bmp	572	2	strafen	866	1	!	1319	1	!	-1	0	0	0	0	0	0	0	0	0	0	0	0	0	0	0	0	0	0	0	0	0	0	0	0	0	0	0	0	0	0
071019	11:23:40	11:27:21	220480	5.0.10.0	5_exp_RW	35	Rpleas_acq	CS_B	BZZB	GWWG	MQQM	YDDY	VKKV	JXXJ	retten	spielen	treu	schön	ehrlich	fair	rächen	strafen	tot	schlecht	eitel	faul	1	acq_USunple_CSunple1_RW	acq2_RW	2	22	480	0	300	300	565	46	0	1	1	blank2r.bmp	0	1	+	0	1	blank2r.bmp	492	1	MQQM	492	1	blank2r.bmp	572	3	tot	866	1	!	1319	1	!	-1	0	0	0	0	0	0	0	0	0	0	0	0	0	0	0	0	0	0	0	0	0	0	0	0	0	0	0	0	0	0
071019	11:23:40	11:27:23	222626	5.0.10.0	5_exp_RW	35	Rpleas_acq	CS_B	BZZB	GWWG	MQQM	YDDY	VKKV	JXXJ	retten	spielen	treu	schön	ehrlich	fair	rächen	strafen	tot	schlecht	eitel	faul	1	acq_USpleas_CSpleas2_RW	acq2_RW	2	23	480	0	300	300	367	50	0	1	1	blank2r.bmp	0	1	+	0	1	blank2r.bmp	492	1	GWWG	492	1	blank2r.bmp	572	1	schön	866	1	!	-1	1	!	-1	0	0	0	0	0	0	0	0	0	0	0	0	0	0	0	0	0	0	0	0	0	0	0	0	0	0	0	0	0	0
071019	11:23:40	11:27:25	224878	5.0.10.0	5_exp_RW	35	Rpleas_acq	CS_B	BZZB	GWWG	MQQM	YDDY	VKKV	JXXJ	retten	spielen	treu	schön	ehrlich	fair	rächen	strafen	tot	schlecht	eitel	faul	1	acq_USpleas_CSpleas2_RW	acq2_RW	2	24	480	1	300	300	426	50	0	1	1	blank2r.bmp	0	1	+	0	1	blank2r.bmp	492	1	GWWG	492	1	blank2r.bmp	572	2	ehrlich	866	1	!	1319	1	!	1332	0	0	0	0	0	0	0	0	0	0	0	0	0	0	0	0	0	0	0	0	0	0	0	0	0	0	0	0	0	0
071019	11:23:40	11:27:39	238753	5.0.10.0	5_exp_RW	35	Rpleas_acq	CS_B	BZZB	GWWG	MQQM	YDDY	VKKV	JXXJ	retten	spielen	treu	schön	ehrlich	fair	rächen	strafen	tot	schlecht	eitel	faul	1	acq_USunple_CSunple1_RW	acq3_RW	3	1	453	0	300	300	632	46	0	1	1	blank2r.bmp	0	1	+	0	1	blank2r.bmp	492	1	MQQM	492	1	blank2r.bmp	572	2	strafen	866	1	!	1292	1	!	-1	0	0	0	0	0	0	0	0	0	0	0	0	0	0	0	0	0	0	0	0	0	0	0	0	0	0	0	0	0	0
071019	11:23:40	11:27:42	241085	5.0.10.0	5_exp_RW	35	Rpleas_acq	CS_B	BZZB	GWWG	MQQM	YDDY	VKKV	JXXJ	retten	spielen	treu	schön	ehrlich	fair	rächen	strafen	tot	schlecht	eitel	faul	1	acq_USpleas_CSpleas2_RW	acq3_RW	3	2	453	1	300	300	520	50	0	1	1	blank2r.bmp	0	1	+	0	1	blank2r.bmp	492	1	GWWG	492	1	blank2r.bmp	572	3	fair	866	1	!	1292	1	!	1426	0	0	0	0	0	0	0	0	0	0	0	0	0	0	0	0	0	0	0	0	0	0	0	0	0	0	0	0	0	0
071019	11:23:40	11:27:46	245590	5.0.10.0	5_exp_RW	35	Rpleas_acq	CS_B	BZZB	GWWG	MQQM	YDDY	VKKV	JXXJ	retten	spielen	treu	schön	ehrlich	fair	rächen	strafen	tot	schlecht	eitel	faul	1	acq_USunple_CSunple1_RW	acq3_RW	3	3	453	0	300	300	2733	46	0	1	1	blank2r.bmp	0	1	+	0	1	blank2r.bmp	492	1	MQQM	492	1	blank2r.bmp	572	1	rächen	866	1	!	1292	1	!	-1	0	0	0	0	0	0	0	0	0	0	0	0	0	0	0	0	0	0	0	0	0	0	0	0	0	0	0	0	0	0
071019	11:23:40	11:27:48	247856	5.0.10.0	5_exp_RW	35	Rpleas_acq	CS_B	BZZB	GWWG	MQQM	YDDY	VKKV	JXXJ	retten	spielen	treu	schön	ehrlich	fair	rächen	strafen	tot	schlecht	eitel	faul	1	acq_USpleas_CSpleas2_RW	acq3_RW	3	4	453	1	300	300	441	50	0	1	1	blank2r.bmp	0	1	+	0	1	blank2r.bmp	492	1	GWWG	492	1	blank2r.bmp	572	1	schön	866	1	!	1292	1	!	1346	0	0	0	0	0	0	0	0	0	0	0	0	0	0	0	0	0	0	0	0	0	0	0	0	0	0	0	0	0	0
071019	11:23:40	11:27:51	250268	5.0.10.0	5_exp_RW	35	Rpleas_acq	CS_B	BZZB	GWWG	MQQM	YDDY	VKKV	JXXJ	retten	spielen	treu	schön	ehrlich	fair	rächen	strafen	tot	schlecht	eitel	faul	1	acq_USunple_CSunple2_RW	acq3_RW	3	5	453	0	300	300	649	46	0	1	1	blank2r.bmp	0	1	+	0	1	blank2r.bmp	492	1	YDDY	492	1	blank2r.bmp	572	2	eitel	866	1	!	1292	1	!	-1	0	0	0	0	0	0	0	0	0	0	0	0	0	0	0	0	0	0	0	0	0	0	0	0	0	0	0	0	0	0
071019	11:23:40	11:27:53	252574	5.0.10.0	5_exp_RW	35	Rpleas_acq	CS_B	BZZB	GWWG	MQQM	YDDY	VKKV	JXXJ	retten	spielen	treu	schön	ehrlich	fair	rächen	strafen	tot	schlecht	eitel	faul	1	acq_USpleas_CSpleas2_RW	acq3_RW	3	6	453	1	300	300	484	50	0	1	1	blank2r.bmp	0	1	+	0	1	blank2r.bmp	492	1	GWWG	492	1	blank2r.bmp	572	3	fair	866	1	!	1292	1	!	1386	0	0	0	0	0	0	0	0	0	0	0	0	0	0	0	0	0	0	0	0	0	0	0	0	0	0	0	0	0	0
071019	11:23:40	11:27:56	254986	5.0.10.0	5_exp_RW	35	Rpleas_acq	CS_B	BZZB	GWWG	MQQM	YDDY	VKKV	JXXJ	retten	spielen	treu	schön	ehrlich	fair	rächen	strafen	tot	schlecht	eitel	faul	1	acq_USunple_CSunple2_RW	acq3_RW	3	7	453	0	300	300	641	46	0	1	1	blank2r.bmp	0	1	+	0	1	blank2r.bmp	492	1	YDDY	492	1	blank2r.bmp	572	3	faul	866	1	!	1292	1	!	-1	0	0	0	0	0	0	0	0	0	0	0	0	0	0	0	0	0	0	0	0	0	0	0	0	0	0	0	0	0	0
071019	11:23:40	11:27:58	257318	5.0.10.0	5_exp_RW	35	Rpleas_acq	CS_B	BZZB	GWWG	MQQM	YDDY	VKKV	JXXJ	retten	spielen	treu	schön	ehrlich	fair	rächen	strafen	tot	schlecht	eitel	faul	1	acq_USpleas_CSpleas2_RW	acq3_RW	3	8	453	0	300	300	556	50	0	1	1	blank2r.bmp	0	1	+	0	1	blank2r.bmp	492	1	GWWG	492	1	blank2r.bmp	572	2	ehrlich	866	1	!	1292	1	!	-1	0	0	0	0	0	0	0	0	0	0	0	0	0	0	0	0	0	0	0	0	0	0	0	0	0	0	0	0	0	0
071019	11:23:40	11:28:00	259637	5.0.10.0	5_exp_RW	35	Rpleas_acq	CS_B	BZZB	GWWG	MQQM	YDDY	VKKV	JXXJ	retten	spielen	treu	schön	ehrlich	fair	rächen	strafen	tot	schlecht	eitel	faul	1	acq_USunple_CSunple1_RW	acq3_RW	3	9	453	0	300	300	532	46	0	1	1	blank2r.bmp	0	1	+	0	1	blank2r.bmp	492	1	MQQM	492	1	blank2r.bmp	572	1	rächen	866	1	!	1292	1	!	-1	0	0	0	0	0	0	0	0	0	0	0	0	0	0	0	0	0	0	0	0	0	0	0	0	0	0	0	0	0	0
071019	11:23:40	11:28:02	261743	5.0.10.0	5_exp_RW	35	Rpleas_acq	CS_B	BZZB	GWWG	MQQM	YDDY	VKKV	JXXJ	retten	spielen	treu	schön	ehrlich	fair	rächen	strafen	tot	schlecht	eitel	faul	1	acq_USpleas_CSpleas1_RW	acq3_RW	3	10	453	0	300	300	328	50	0	1	1	blank2r.bmp	0	1	+	0	1	blank2r.bmp	492	1	BZZB	492	1	blank2r.bmp	572	2	spielen	866	1	!	-1	1	!	-1	0	0	0	0	0	0	0	0	0	0	0	0	0	0	0	0	0	0	0	0	0	0	0	0	0	0	0	0	0	0
071019	11:23:40	11:28:04	263955	5.0.10.0	5_exp_RW	35	Rpleas_acq	CS_B	BZZB	GWWG	MQQM	YDDY	VKKV	JXXJ	retten	spielen	treu	schön	ehrlich	fair	rächen	strafen	tot	schlecht	eitel	faul	1	acq_USpleas_CSpleas1_RW	acq3_RW	3	11	453	1	300	300	403	50	0	1	1	blank2r.bmp	0	1	+	0	1	blank2r.bmp	492	1	BZZB	492	1	blank2r.bmp	572	1	retten	866	1	!	1292	1	!	1306	0	0	0	0	0	0	0	0	0	0	0	0	0	0	0	0	0	0	0	0	0	0	0	0	0	0	0	0	0	0
071019	11:23:40	11:28:07	266155	5.0.10.0	5_exp_RW	35	Rpleas_acq	CS_B	BZZB	GWWG	MQQM	YDDY	VKKV	JXXJ	retten	spielen	treu	schön	ehrlich	fair	rächen	strafen	tot	schlecht	eitel	faul	1	acq_USunple_CSunple1_RW	acq3_RW	3	12	453	1	300	300	408	46	0	1	1	blank2r.bmp	0	1	+	0	1	blank2r.bmp	492	1	MQQM	492	1	blank2r.bmp	572	3	tot	866	1	!	1292	1	!	1306	0	0	0	0	0	0	0	0	0	0	0	0	0	0	0	0	0	0	0	0	0	0	0	0	0	0	0	0	0	0
071019	11:23:40	11:28:09	268407	5.0.10.0	5_exp_RW	35	Rpleas_acq	CS_B	BZZB	GWWG	MQQM	YDDY	VKKV	JXXJ	retten	spielen	treu	schön	ehrlich	fair	rächen	strafen	tot	schlecht	eitel	faul	1	acq_USpleas_CSpleas1_RW	acq3_RW	3	13	453	1	300	300	462	50	0	1	1	blank2r.bmp	0	1	+	0	1	blank2r.bmp	492	1	BZZB	492	1	blank2r.bmp	572	1	retten	866	1	!	1292	1	!	1359	0	0	0	0	0	0	0	0	0	0	0	0	0	0	0	0	0	0	0	0	0	0	0	0	0	0	0	0	0	0
071019	11:23:40	11:28:11	270779	5.0.10.0	5_exp_RW	35	Rpleas_acq	CS_B	BZZB	GWWG	MQQM	YDDY	VKKV	JXXJ	retten	spielen	treu	schön	ehrlich	fair	rächen	strafen	tot	schlecht	eitel	faul	1	acq_USpleas_CSpleas1_RW	acq3_RW	3	14	453	0	300	300	380	46	0	0	1	blank2r.bmp	0	1	+	0	1	blank2r.bmp	492	1	BZZB	492	1	blank2r.bmp	572	3	treu	866	1	FEHLER	1585	1	!	-1	1	!	-1	0	0	0	0	0	0	0	0	0	0	0	0	0	0	0	0	0	0	0	0	0	0	0	0	0	0	0
071019	11:23:40	11:28:13	272659	5.0.10.0	5_exp_RW	35	Rpleas_acq	CS_B	BZZB	GWWG	MQQM	YDDY	VKKV	JXXJ	retten	spielen	treu	schön	ehrlich	fair	rächen	strafen	tot	schlecht	eitel	faul	1	acq_USpleas_CSpleas1_RW	acq3_RW	3	15	453	0	300	300	320	50	0	1	1	blank2r.bmp	0	1	+	0	1	blank2r.bmp	492	1	BZZB	492	1	blank2r.bmp	572	2	spielen	866	1	!	-1	1	!	-1	0	0	0	0	0	0	0	0	0	0	0	0	0	0	0	0	0	0	0	0	0	0	0	0	0	0	0	0	0	0
071019	11:23:40	11:28:16	274991	5.0.10.0	5_exp_RW	35	Rpleas_acq	CS_B	BZZB	GWWG	MQQM	YDDY	VKKV	JXXJ	retten	spielen	treu	schön	ehrlich	fair	rächen	strafen	tot	schlecht	eitel	faul	1	acq_USunple_CSunple2_RW	acq3_RW	3	16	453	0	300	300	322	50	0	0	1	blank2r.bmp	0	1	+	0	1	blank2r.bmp	492	1	YDDY	492	1	blank2r.bmp	572	1	schlecht	866	1	FEHLER	1532	1	!	-1	1	!	-1	0	0	0	0	0	0	0	0	0	0	0	0	0	0	0	0	0	0	0	0	0	0	0	0	0	0	0
071019	11:23:40	11:28:18	277177	5.0.10.0	5_exp_RW	35	Rpleas_acq	CS_B	BZZB	GWWG	MQQM	YDDY	VKKV	JXXJ	retten	spielen	treu	schön	ehrlich	fair	rächen	strafen	tot	schlecht	eitel	faul	1	acq_USunple_CSunple1_RW	acq3_RW	3	17	453	0	300	300	631	46	0	1	1	blank2r.bmp	0	1	+	0	1	blank2r.bmp	492	1	MQQM	492	1	blank2r.bmp	572	2	strafen	866	1	!	1292	1	!	-1	0	0	0	0	0	0	0	0	0	0	0	0	0	0	0	0	0	0	0	0	0	0	0	0	0	0	0	0	0	0
071019	11:23:40	11:28:20	279642	5.0.10.0	5_exp_RW	35	Rpleas_acq	CS_B	BZZB	GWWG	MQQM	YDDY	VKKV	JXXJ	retten	spielen	treu	schön	ehrlich	fair	rächen	strafen	tot	schlecht	eitel	faul	1	acq_USunple_CSunple2_RW	acq3_RW	3	18	453	1	300	300	450	50	0	0	1	blank2r.bmp	0	1	+	0	1	blank2r.bmp	492	1	YDDY	492	1	blank2r.bmp	572	2	eitel	866	1	FEHLER	1665	1	!	1292	1	!	1346	0	0	0	0	0	0	0	0	0	0	0	0	0	0	0	0	0	0	0	0	0	0	0	0	0	0	0
071019	11:23:40	11:28:22	281508	5.0.10.0	5_exp_RW	35	Rpleas_acq	CS_B	BZZB	GWWG	MQQM	YDDY	VKKV	JXXJ	retten	spielen	treu	schön	ehrlich	fair	rächen	strafen	tot	schlecht	eitel	faul	1	acq_USunple_CSunple2_RW	acq3_RW	3	19	453	0	300	300	314	46	0	1	1	blank2r.bmp	0	1	+	0	1	blank2r.bmp	492	1	YDDY	492	1	blank2r.bmp	572	3	faul	866	1	!	-1	1	!	-1	0	0	0	0	0	0	0	0	0	0	0	0	0	0	0	0	0	0	0	0	0	0	0	0	0	0	0	0	0	0
071019	11:23:40	11:28:24	283907	5.0.10.0	5_exp_RW	35	Rpleas_acq	CS_B	BZZB	GWWG	MQQM	YDDY	VKKV	JXXJ	retten	spielen	treu	schön	ehrlich	fair	rächen	strafen	tot	schlecht	eitel	faul	1	acq_USpleas_CSpleas2_RW	acq3_RW	3	20	453	0	300	300	612	50	0	1	1	blank2r.bmp	0	1	+	0	1	blank2r.bmp	492	1	GWWG	492	1	blank2r.bmp	572	1	schön	866	1	!	1292	1	!	-1	0	0	0	0	0	0	0	0	0	0	0	0	0	0	0	0	0	0	0	0	0	0	0	0	0	0	0	0	0	0
071019	11:23:40	11:28:27	286120	5.0.10.0	5_exp_RW	35	Rpleas_acq	CS_B	BZZB	GWWG	MQQM	YDDY	VKKV	JXXJ	retten	spielen	treu	schön	ehrlich	fair	rächen	strafen	tot	schlecht	eitel	faul	1	acq_USunple_CSunple2_RW	acq3_RW	3	21	453	1	300	300	409	46	0	1	1	blank2r.bmp	0	1	+	0	1	blank2r.bmp	492	1	YDDY	492	1	blank2r.bmp	572	3	faul	866	1	!	1292	1	!	1306	0	0	0	0	0	0	0	0	0	0	0	0	0	0	0	0	0	0	0	0	0	0	0	0	0	0	0	0	0	0
071019	11:23:40	11:28:29	288319	5.0.10.0	5_exp_RW	35	Rpleas_acq	CS_B	BZZB	GWWG	MQQM	YDDY	VKKV	JXXJ	retten	spielen	treu	schön	ehrlich	fair	rächen	strafen	tot	schlecht	eitel	faul	1	acq_USpleas_CSpleas2_RW	acq3_RW	3	22	453	1	300	300	399	50	0	1	1	blank2r.bmp	0	1	+	0	1	blank2r.bmp	492	1	GWWG	492	1	blank2r.bmp	572	2	ehrlich	866	1	!	1292	1	!	1306	0	0	0	0	0	0	0	0	0	0	0	0	0	0	0	0	0	0	0	0	0	0	0	0	0	0	0	0	0	0
071019	11:23:40	11:28:31	290518	5.0.10.0	5_exp_RW	35	Rpleas_acq	CS_B	BZZB	GWWG	MQQM	YDDY	VKKV	JXXJ	retten	spielen	treu	schön	ehrlich	fair	rächen	strafen	tot	schlecht	eitel	faul	1	acq_USpleas_CSpleas1_RW	acq3_RW	3	23	453	1	300	300	399	50	0	1	1	blank2r.bmp	0	1	+	0	1	blank2r.bmp	492	1	BZZB	492	1	blank2r.bmp	572	2	spielen	866	1	!	1292	1	!	1306	0	0	0	0	0	0	0	0	0	0	0	0	0	0	0	0	0	0	0	0	0	0	0	0	0	0	0	0	0	0
071019	11:23:40	11:28:33	292650	5.0.10.0	5_exp_RW	35	Rpleas_acq	CS_B	BZZB	GWWG	MQQM	YDDY	VKKV	JXXJ	retten	spielen	treu	schön	ehrlich	fair	rächen	strafen	tot	schlecht	eitel	faul	1	acq_USunple_CSunple1_RW	acq3_RW	3	24	453	0	300	300	366	46	0	1	1	blank2r.bmp	0	1	+	0	1	blank2r.bmp	492	1	MQQM	492	1	blank2r.bmp	572	3	tot	866	1	!	-1	1	!	-1	0	0	0	0	0	0	0	0	0	0	0	0	0	0	0	0	0	0	0	0	0	0	0	0	0	0	0	0	0	0
071019	11:23:40	11:28:46	305018	5.0.10.0	5_exp_RW	35	Rpleas_acq	CS_B	BZZB	GWWG	MQQM	YDDY	VKKV	JXXJ	retten	spielen	treu	schön	ehrlich	fair	rächen	strafen	tot	schlecht	eitel	faul	1	acq_USunple_CSunple1_RW	acq4567_RW	4	1	400	1	300	300	455	46	0	1	1	blank2r.bmp	0	1	+	0	1	blank2r.bmp	492	1	MQQM	492	1	blank2r.bmp	572	1	rächen	866	1	!	1239	1	!	1359	0	0	0	0	0	0	0	0	0	0	0	0	0	0	0	0	0	0	0	0	0	0	0	0	0	0	0	0	0	0
071019	11:23:40	11:28:48	307271	5.0.10.0	5_exp_RW	35	Rpleas_acq	CS_B	BZZB	GWWG	MQQM	YDDY	VKKV	JXXJ	retten	spielen	treu	schön	ehrlich	fair	rächen	strafen	tot	schlecht	eitel	faul	1	acq_USpleas_CSpleas1_RW	acq4567_RW	4	2	400	0	300	300	485	50	0	1	1	blank2r.bmp	0	1	+	0	1	blank2r.bmp	492	1	BZZB	492	1	blank2r.bmp	572	3	treu	866	1	!	1239	1	!	-1	0	0	0	0	0	0	0	0	0	0	0	0	0	0	0	0	0	0	0	0	0	0	0	0	0	0	0	0	0	0
071019	11:23:40	11:28:50	309456	5.0.10.0	5_exp_RW	35	Rpleas_acq	CS_B	BZZB	GWWG	MQQM	YDDY	VKKV	JXXJ	retten	spielen	treu	schön	ehrlich	fair	rächen	strafen	tot	schlecht	eitel	faul	1	acq_USunple_CSunple2_RW	acq4567_RW	4	3	400	1	300	300	362	46	0	1	1	blank2r.bmp	0	1	+	0	1	blank2r.bmp	492	1	YDDY	492	1	blank2r.bmp	572	2	eitel	866	1	!	1239	1	!	1266	0	0	0	0	0	0	0	0	0	0	0	0	0	0	0	0	0	0	0	0	0	0	0	0	0	0	0	0	0	0
071019	11:23:40	11:28:52	311669	5.0.10.0	5_exp_RW	35	Rpleas_acq	CS_B	BZZB	GWWG	MQQM	YDDY	VKKV	JXXJ	retten	spielen	treu	schön	ehrlich	fair	rächen	strafen	tot	schlecht	eitel	faul	1	acq_USpleas_CSpleas1_RW	acq4567_RW	4	4	400	1	300	300	421	50	0	1	1	blank2r.bmp	0	1	+	0	1	blank2r.bmp	492	1	BZZB	492	1	blank2r.bmp	572	1	retten	866	1	!	1239	1	!	1319	0	0	0	0	0	0	0	0	0	0	0	0	0	0	0	0	0	0	0	0	0	0	0	0	0	0	0	0	0	0
071019	11:23:40	11:28:54	313828	5.0.10.0	5_exp_RW	35	Rpleas_acq	CS_B	BZZB	GWWG	MQQM	YDDY	VKKV	JXXJ	retten	spielen	treu	schön	ehrlich	fair	rächen	strafen	tot	schlecht	eitel	faul	1	acq_USpleas_CSpleas2_RW	acq4567_RW	4	5	400	1	300	300	355	50	0	1	1	blank2r.bmp	0	1	+	0	1	blank2r.bmp	492	1	GWWG	492	1	blank2r.bmp	572	3	fair	866	1	!	1239	1	!	1252	0	0	0	0	0	0	0	0	0	0	0	0	0	0	0	0	0	0	0	0	0	0	0	0	0	0	0	0	0	0
071019	11:23:40	11:28:56	315867	5.0.10.0	5_exp_RW	35	Rpleas_acq	CS_B	BZZB	GWWG	MQQM	YDDY	VKKV	JXXJ	retten	spielen	treu	schön	ehrlich	fair	rächen	strafen	tot	schlecht	eitel	faul	1	acq_USpleas_CSpleas2_RW	acq4567_RW	4	6	400	0	300	300	269	50	0	1	1	blank2r.bmp	0	1	+	0	1	blank2r.bmp	492	1	GWWG	492	1	blank2r.bmp	572	1	schön	866	1	!	-1	1	!	-1	0	0	0	0	0	0	0	0	0	0	0	0	0	0	0	0	0	0	0	0	0	0	0	0	0	0	0	0	0	0
071019	11:23:40	11:28:59	317986	5.0.10.0	5_exp_RW	35	Rpleas_acq	CS_B	BZZB	GWWG	MQQM	YDDY	VKKV	JXXJ	retten	spielen	treu	schön	ehrlich	fair	rächen	strafen	tot	schlecht	eitel	faul	1	acq_USpleas_CSpleas2_RW	acq4567_RW	4	7	400	0	300	300	329	46	0	0	1	blank2r.bmp	0	1	+	0	1	blank2r.bmp	492	1	GWWG	492	1	blank2r.bmp	572	3	fair	866	1	!	-1	1	!	-1	0	0	0	0	0	0	0	0	0	0	0	0	0	0	0	0	0	0	0	0	0	0	0	0	0	0	0	0	0	0
071019	11:23:40	11:29:01	320212	5.0.10.0	5_exp_RW	35	Rpleas_acq	CS_B	BZZB	GWWG	MQQM	YDDY	VKKV	JXXJ	retten	spielen	treu	schön	ehrlich	fair	rächen	strafen	tot	schlecht	eitel	faul	1	acq_USunple_CSunple2_RW	acq4567_RW	4	8	400	1	300	300	417	46	0	1	1	blank2r.bmp	0	1	+	0	1	blank2r.bmp	492	1	YDDY	492	1	blank2r.bmp	572	1	schlecht	866	1	!	1239	1	!	1319	0	0	0	0	0	0	0	0	0	0	0	0	0	0	0	0	0	0	0	0	0	0	0	0	0	0	0	0	0	0
071019	11:23:40	11:29:03	322291	5.0.10.0	5_exp_RW	35	Rpleas_acq	CS_B	BZZB	GWWG	MQQM	YDDY	VKKV	JXXJ	retten	spielen	treu	schön	ehrlich	fair	rächen	strafen	tot	schlecht	eitel	faul	1	acq_USpleas_CSpleas1_RW	acq4567_RW	4	9	400	0	300	300	315	50	0	1	1	blank2r.bmp	0	1	+	0	1	blank2r.bmp	492	1	BZZB	492	1	blank2r.bmp	572	2	spielen	866	1	!	-1	1	!	-1	0	0	0	0	0	0	0	0	0	0	0	0	0	0	0	0	0	0	0	0	0	0	0	0	0	0	0	0	0	0
071019	11:23:40	11:29:05	324557	5.0.10.0	5_exp_RW	35	Rpleas_acq	CS_B	BZZB	GWWG	MQQM	YDDY	VKKV	JXXJ	retten	spielen	treu	schön	ehrlich	fair	rächen	strafen	tot	schlecht	eitel	faul	1	acq_USunple_CSunple1_RW	acq4567_RW	4	10	400	1	300	300	463	46	0	1	1	blank2r.bmp	0	1	+	0	1	blank2r.bmp	492	1	MQQM	492	1	blank2r.bmp	572	2	strafen	866	1	!	1239	1	!	1359	0	0	0	0	0	0	0	0	0	0	0	0	0	0	0	0	0	0	0	0	0	0	0	0	0	0	0	0	0	0
071019	11:23:40	11:29:07	326743	5.0.10.0	5_exp_RW	35	Rpleas_acq	CS_B	BZZB	GWWG	MQQM	YDDY	VKKV	JXXJ	retten	spielen	treu	schön	ehrlich	fair	rächen	strafen	tot	schlecht	eitel	faul	1	acq_USpleas_CSpleas1_RW	acq4567_RW	4	11	400	1	300	300	389	50	0	1	1	blank2r.bmp	0	1	+	0	1	blank2r.bmp	492	1	BZZB	492	1	blank2r.bmp	572	3	treu	866	1	!	1239	1	!	1292	0	0	0	0	0	0	0	0	0	0	0	0	0	0	0	0	0	0	0	0	0	0	0	0	0	0	0	0	0	0
071019	11:23:40	11:29:09	328928	5.0.10.0	5_exp_RW	35	Rpleas_acq	CS_B	BZZB	GWWG	MQQM	YDDY	VKKV	JXXJ	retten	spielen	treu	schön	ehrlich	fair	rächen	strafen	tot	schlecht	eitel	faul	1	acq_USpleas_CSpleas2_RW	acq4567_RW	4	12	400	1	300	300	394	50	0	1	1	blank2r.bmp	0	1	+	0	1	blank2r.bmp	492	1	GWWG	492	1	blank2r.bmp	572	1	schön	866	1	!	1239	1	!	1292	0	0	0	0	0	0	0	0	0	0	0	0	0	0	0	0	0	0	0	0	0	0	0	0	0	0	0	0	0	0
071019	11:23:40	11:29:12	331181	5.0.10.0	5_exp_RW	35	Rpleas_acq	CS_B	BZZB	GWWG	MQQM	YDDY	VKKV	JXXJ	retten	spielen	treu	schön	ehrlich	fair	rächen	strafen	tot	schlecht	eitel	faul	1	acq_USunple_CSunple1_RW	acq4567_RW	4	13	400	0	300	300	479	46	0	1	1	blank2r.bmp	0	1	+	0	1	blank2r.bmp	492	1	MQQM	492	1	blank2r.bmp	572	3	tot	866	1	!	1239	1	!	-1	0	0	0	0	0	0	0	0	0	0	0	0	0	0	0	0	0	0	0	0	0	0	0	0	0	0	0	0	0	0
071019	11:23:40	11:29:14	333340	5.0.10.0	5_exp_RW	35	Rpleas_acq	CS_B	BZZB	GWWG	MQQM	YDDY	VKKV	JXXJ	retten	spielen	treu	schön	ehrlich	fair	rächen	strafen	tot	schlecht	eitel	faul	1	acq_USpleas_CSpleas1_RW	acq4567_RW	4	14	400	1	300	300	356	46	0	0	1	blank2r.bmp	0	1	+	0	1	blank2r.bmp	492	1	BZZB	492	1	blank2r.bmp	572	1	retten	866	1	!	1239	1	!	1252	0	0	0	0	0	0	0	0	0	0	0	0	0	0	0	0	0	0	0	0	0	0	0	0	0	0	0	0	0	0
071019	11:23:40	11:29:16	335366	5.0.10.0	5_exp_RW	35	Rpleas_acq	CS_B	BZZB	GWWG	MQQM	YDDY	VKKV	JXXJ	retten	spielen	treu	schön	ehrlich	fair	rächen	strafen	tot	schlecht	eitel	faul	1	acq_USunple_CSunple1_RW	acq4567_RW	4	15	400	0	300	300	254	50	0	0	1	blank2r.bmp	0	1	+	0	1	blank2r.bmp	492	1	MQQM	492	1	blank2r.bmp	572	2	strafen	866	1	!	-1	1	!	-1	0	0	0	0	0	0	0	0	0	0	0	0	0	0	0	0	0	0	0	0	0	0	0	0	0	0	0	0	0	0
071019	11:23:40	11:29:18	337791	5.0.10.0	5_exp_RW	35	Rpleas_acq	CS_B	BZZB	GWWG	MQQM	YDDY	VKKV	JXXJ	retten	spielen	treu	schön	ehrlich	fair	rächen	strafen	tot	schlecht	eitel	faul	1	acq_USunple_CSunple2_RW	acq4567_RW	4	16	400	0	300	300	632	46	0	1	1	blank2r.bmp	0	1	+	0	1	blank2r.bmp	492	1	YDDY	492	1	blank2r.bmp	572	2	eitel	866	1	!	1239	1	!	-1	0	0	0	0	0	0	0	0	0	0	0	0	0	0	0	0	0	0	0	0	0	0	0	0	0	0	0	0	0	0
071019	11:23:40	11:29:20	339844	5.0.10.0	5_exp_RW	35	Rpleas_acq	CS_B	BZZB	GWWG	MQQM	YDDY	VKKV	JXXJ	retten	spielen	treu	schön	ehrlich	fair	rächen	strafen	tot	schlecht	eitel	faul	1	acq_USunple_CSunple2_RW	acq4567_RW	4	17	400	0	300	300	267	50	0	0	1	blank2r.bmp	0	1	+	0	1	blank2r.bmp	492	1	YDDY	492	1	blank2r.bmp	572	1	schlecht	866	1	!	-1	1	!	-1	0	0	0	0	0	0	0	0	0	0	0	0	0	0	0	0	0	0	0	0	0	0	0	0	0	0	0	0	0	0
071019	11:23:40	11:29:23	342083	5.0.10.0	5_exp_RW	35	Rpleas_acq	CS_B	BZZB	GWWG	MQQM	YDDY	VKKV	JXXJ	retten	spielen	treu	schön	ehrlich	fair	rächen	strafen	tot	schlecht	eitel	faul	1	acq_USpleas_CSpleas2_RW	acq4567_RW	4	18	400	1	300	300	417	50	0	1	1	blank2r.bmp	0	1	+	0	1	blank2r.bmp	492	1	GWWG	492	1	blank2r.bmp	572	2	ehrlich	866	1	!	1239	1	!	1319	0	0	0	0	0	0	0	0	0	0	0	0	0	0	0	0	0	0	0	0	0	0	0	0	0	0	0	0	0	0
071019	11:23:40	11:29:25	344402	5.0.10.0	5_exp_RW	35	Rpleas_acq	CS_B	BZZB	GWWG	MQQM	YDDY	VKKV	JXXJ	retten	spielen	treu	schön	ehrlich	fair	rächen	strafen	tot	schlecht	eitel	faul	1	acq_USunple_CSunple2_RW	acq4567_RW	4	19	400	0	300	300	556	46	0	1	1	blank2r.bmp	0	1	+	0	1	blank2r.bmp	492	1	YDDY	492	1	blank2r.bmp	572	3	faul	866	1	!	1239	1	!	-1	0	0	0	0	0	0	0	0	0	0	0	0	0	0	0	0	0	0	0	0	0	0	0	0	0	0	0	0	0	0
071019	11:23:40	11:29:27	346668	5.0.10.0	5_exp_RW	35	Rpleas_acq	CS_B	BZZB	GWWG	MQQM	YDDY	VKKV	JXXJ	retten	spielen	treu	schön	ehrlich	fair	rächen	strafen	tot	schlecht	eitel	faul	1	acq_USunple_CSunple1_RW	acq4567_RW	4	20	400	1	300	300	457	46	0	1	1	blank2r.bmp	0	1	+	0	1	blank2r.bmp	492	1	MQQM	492	1	blank2r.bmp	572	1	rächen	866	1	!	1239	1	!	1359	0	0	0	0	0	0	0	0	0	0	0	0	0	0	0	0	0	0	0	0	0	0	0	0	0	0	0	0	0	0
071019	11:23:40	11:29:29	348760	5.0.10.0	5_exp_RW	35	Rpleas_acq	CS_B	BZZB	GWWG	MQQM	YDDY	VKKV	JXXJ	retten	spielen	treu	schön	ehrlich	fair	rächen	strafen	tot	schlecht	eitel	faul	1	acq_USunple_CSunple1_RW	acq4567_RW	4	21	400	0	300	300	326	46	0	1	1	blank2r.bmp	0	1	+	0	1	blank2r.bmp	492	1	MQQM	492	1	blank2r.bmp	572	3	tot	866	1	!	-1	1	!	-1	0	0	0	0	0	0	0	0	0	0	0	0	0	0	0	0	0	0	0	0	0	0	0	0	0	0	0	0	0	0
071019	11:23:40	11:29:31	350959	5.0.10.0	5_exp_RW	35	Rpleas_acq	CS_B	BZZB	GWWG	MQQM	YDDY	VKKV	JXXJ	retten	spielen	treu	schön	ehrlich	fair	rächen	strafen	tot	schlecht	eitel	faul	1	acq_USpleas_CSpleas2_RW	acq4567_RW	4	22	400	1	300	300	387	50	0	1	1	blank2r.bmp	0	1	+	0	1	blank2r.bmp	492	1	GWWG	492	1	blank2r.bmp	572	2	ehrlich	866	1	!	1239	1	!	1292	0	0	0	0	0	0	0	0	0	0	0	0	0	0	0	0	0	0	0	0	0	0	0	0	0	0	0	0	0	0
071019	11:23:40	11:29:34	353212	5.0.10.0	5_exp_RW	35	Rpleas_acq	CS_B	BZZB	GWWG	MQQM	YDDY	VKKV	JXXJ	retten	spielen	treu	schön	ehrlich	fair	rächen	strafen	tot	schlecht	eitel	faul	1	acq_USpleas_CSpleas1_RW	acq4567_RW	4	23	400	1	300	300	454	50	0	1	1	blank2r.bmp	0	1	+	0	1	blank2r.bmp	492	1	BZZB	492	1	blank2r.bmp	572	1	retten	866	1	!	1239	1	!	1359	0	0	0	0	0	0	0	0	0	0	0	0	0	0	0	0	0	0	0	0	0	0	0	0	0	0	0	0	0	0
071019	11:23:40	11:29:36	355411	5.0.10.0	5_exp_RW	35	Rpleas_acq	CS_B	BZZB	GWWG	MQQM	YDDY	VKKV	JXXJ	retten	spielen	treu	schön	ehrlich	fair	rächen	strafen	tot	schlecht	eitel	faul	1	acq_USpleas_CSpleas1_RW	acq4567_RW	4	24	400	1	300	300	390	50	0	1	1	blank2r.bmp	0	1	+	0	1	blank2r.bmp	492	1	BZZB	492	1	blank2r.bmp	572	3	treu	866	1	!	1239	1	!	1292	0	0	0	0	0	0	0	0	0	0	0	0	0	0	0	0	0	0	0	0	0	0	0	0	0	0	0	0	0	0
071019	11:23:40	11:29:38	357530	5.0.10.0	5_exp_RW	35	Rpleas_acq	CS_B	BZZB	GWWG	MQQM	YDDY	VKKV	JXXJ	retten	spielen	treu	schön	ehrlich	fair	rächen	strafen	tot	schlecht	eitel	faul	1	acq_USpleas_CSpleas1_RW	acq4567_RW	4	25	400	0	300	300	332	50	0	1	1	blank2r.bmp	0	1	+	0	1	blank2r.bmp	492	1	BZZB	492	1	blank2r.bmp	572	2	spielen	866	1	!	-1	1	!	-1	0	0	0	0	0	0	0	0	0	0	0	0	0	0	0	0	0	0	0	0	0	0	0	0	0	0	0	0	0	0
071019	11:23:40	11:29:40	359622	5.0.10.0	5_exp_RW	35	Rpleas_acq	CS_B	BZZB	GWWG	MQQM	YDDY	VKKV	JXXJ	retten	spielen	treu	schön	ehrlich	fair	rächen	strafen	tot	schlecht	eitel	faul	1	acq_USunple_CSunple2_RW	acq4567_RW	4	26	400	0	300	300	308	50	0	0	1	blank2r.bmp	0	1	+	0	1	blank2r.bmp	492	1	YDDY	492	1	blank2r.bmp	572	2	eitel	866	1	!	-1	1	!	-1	0	0	0	0	0	0	0	0	0	0	0	0	0	0	0	0	0	0	0	0	0	0	0	0	0	0	0	0	0	0
071019	11:23:40	11:29:42	361848	5.0.10.0	5_exp_RW	35	Rpleas_acq	CS_B	BZZB	GWWG	MQQM	YDDY	VKKV	JXXJ	retten	spielen	treu	schön	ehrlich	fair	rächen	strafen	tot	schlecht	eitel	faul	1	acq_USunple_CSunple1_RW	acq4567_RW	4	27	400	1	300	300	412	46	0	1	1	blank2r.bmp	0	1	+	0	1	blank2r.bmp	492	1	MQQM	492	1	blank2r.bmp	572	2	strafen	866	1	!	1239	1	!	1319	0	0	0	0	0	0	0	0	0	0	0	0	0	0	0	0	0	0	0	0	0	0	0	0	0	0	0	0	0	0
071019	11:23:40	11:29:45	364060	5.0.10.0	5_exp_RW	35	Rpleas_acq	CS_B	BZZB	GWWG	MQQM	YDDY	VKKV	JXXJ	retten	spielen	treu	schön	ehrlich	fair	rächen	strafen	tot	schlecht	eitel	faul	1	acq_USunple_CSunple1_RW	acq4567_RW	4	28	400	1	300	300	418	46	0	1	1	blank2r.bmp	0	1	+	0	1	blank2r.bmp	492	1	MQQM	492	1	blank2r.bmp	572	1	rächen	866	1	!	1239	1	!	1319	0	0	0	0	0	0	0	0	0	0	0	0	0	0	0	0	0	0	0	0	0	0	0	0	0	0	0	0	0	0
071019	11:23:40	11:29:47	366206	5.0.10.0	5_exp_RW	35	Rpleas_acq	CS_B	BZZB	GWWG	MQQM	YDDY	VKKV	JXXJ	retten	spielen	treu	schön	ehrlich	fair	rächen	strafen	tot	schlecht	eitel	faul	1	acq_USpleas_CSpleas2_RW	acq4567_RW	4	29	400	1	300	300	346	46	0	0	1	blank2r.bmp	0	1	+	0	1	blank2r.bmp	492	1	GWWG	492	1	blank2r.bmp	572	1	schön	866	1	!	1239	1	!	1252	0	0	0	0	0	0	0	0	0	0	0	0	0	0	0	0	0	0	0	0	0	0	0	0	0	0	0	0	0	0
071019	11:23:40	11:29:49	368299	5.0.10.0	5_exp_RW	35	Rpleas_acq	CS_B	BZZB	GWWG	MQQM	YDDY	VKKV	JXXJ	retten	spielen	treu	schön	ehrlich	fair	rächen	strafen	tot	schlecht	eitel	faul	1	acq_USpleas_CSpleas1_RW	acq4567_RW	4	30	400	0	300	300	312	46	0	0	1	blank2r.bmp	0	1	+	0	1	blank2r.bmp	492	1	BZZB	492	1	blank2r.bmp	572	1	retten	866	1	!	-1	1	!	-1	0	0	0	0	0	0	0	0	0	0	0	0	0	0	0	0	0	0	0	0	0	0	0	0	0	0	0	0	0	0
071019	11:23:40	11:29:51	370538	5.0.10.0	5_exp_RW	35	Rpleas_acq	CS_B	BZZB	GWWG	MQQM	YDDY	VKKV	JXXJ	retten	spielen	treu	schön	ehrlich	fair	rächen	strafen	tot	schlecht	eitel	faul	1	acq_USpleas_CSpleas2_RW	acq4567_RW	4	31	400	1	300	300	422	50	0	1	1	blank2r.bmp	0	1	+	0	1	blank2r.bmp	492	1	GWWG	492	1	blank2r.bmp	572	3	fair	866	1	!	1239	1	!	1319	0	0	0	0	0	0	0	0	0	0	0	0	0	0	0	0	0	0	0	0	0	0	0	0	0	0	0	0	0	0
071019	11:23:40	11:29:53	372577	5.0.10.0	5_exp_RW	35	Rpleas_acq	CS_B	BZZB	GWWG	MQQM	YDDY	VKKV	JXXJ	retten	spielen	treu	schön	ehrlich	fair	rächen	strafen	tot	schlecht	eitel	faul	1	acq_USpleas_CSpleas2_RW	acq4567_RW	4	32	400	0	300	300	277	50	0	1	1	blank2r.bmp	0	1	+	0	1	blank2r.bmp	492	1	GWWG	492	1	blank2r.bmp	572	2	ehrlich	866	1	!	-1	1	!	-1	0	0	0	0	0	0	0	0	0	0	0	0	0	0	0	0	0	0	0	0	0	0	0	0	0	0	0	0	0	0
071019	11:23:40	11:29:59	378774	5.0.10.0	5_exp_RW	35	Rpleas_acq	CS_B	BZZB	GWWG	MQQM	YDDY	VKKV	JXXJ	retten	spielen	treu	schön	ehrlich	fair	rächen	strafen	tot	schlecht	eitel	faul	1	acq_USunple_CSunple2_RW	acq4567_RW	4	33	400	0	300	300	4421	50	0	0	1	blank2r.bmp	0	1	+	0	1	blank2r.bmp	492	1	YDDY	492	1	blank2r.bmp	572	3	faul	866	1	!	1239	1	!	-1	0	0	0	0	0	0	0	0	0	0	0	0	0	0	0	0	0	0	0	0	0	0	0	0	0	0	0	0	0	0
071019	11:23:40	11:30:02	380987	5.0.10.0	5_exp_RW	35	Rpleas_acq	CS_B	BZZB	GWWG	MQQM	YDDY	VKKV	JXXJ	retten	spielen	treu	schön	ehrlich	fair	rächen	strafen	tot	schlecht	eitel	faul	1	acq_USunple_CSunple1_RW	acq4567_RW	4	34	400	1	300	300	407	46	0	1	1	blank2r.bmp	0	1	+	0	1	blank2r.bmp	492	1	MQQM	492	1	blank2r.bmp	572	3	tot	866	1	!	1239	1	!	1306	0	0	0	0	0	0	0	0	0	0	0	0	0	0	0	0	0	0	0	0	0	0	0	0	0	0	0	0	0	0
071019	11:23:40	11:30:04	383412	5.0.10.0	5_exp_RW	35	Rpleas_acq	CS_B	BZZB	GWWG	MQQM	YDDY	VKKV	JXXJ	retten	spielen	treu	schön	ehrlich	fair	rächen	strafen	tot	schlecht	eitel	faul	1	acq_USunple_CSunple2_RW	acq4567_RW	4	35	400	0	300	300	653	46	0	1	1	blank2r.bmp	0	1	+	0	1	blank2r.bmp	492	1	YDDY	492	1	blank2r.bmp	572	1	schlecht	866	1	!	1239	1	!	-1	0	0	0	0	0	0	0	0	0	0	0	0	0	0	0	0	0	0	0	0	0	0	0	0	0	0	0	0	0	0
071019	11:23:40	11:30:06	385638	5.0.10.0	5_exp_RW	35	Rpleas_acq	CS_B	BZZB	GWWG	MQQM	YDDY	VKKV	JXXJ	retten	spielen	treu	schön	ehrlich	fair	rächen	strafen	tot	schlecht	eitel	faul	1	acq_USunple_CSunple2_RW	acq4567_RW	4	36	400	1	300	300	414	46	0	1	1	blank2r.bmp	0	1	+	0	1	blank2r.bmp	492	1	YDDY	492	1	blank2r.bmp	572	3	faul	866	1	!	1239	1	!	1319	0	0	0	0	0	0	0	0	0	0	0	0	0	0	0	0	0	0	0	0	0	0	0	0	0	0	0	0	0	0
071019	11:23:40	11:30:08	387810	5.0.10.0	5_exp_RW	35	Rpleas_acq	CS_B	BZZB	GWWG	MQQM	YDDY	VKKV	JXXJ	retten	spielen	treu	schön	ehrlich	fair	rächen	strafen	tot	schlecht	eitel	faul	1	acq_USunple_CSunple1_RW	acq4567_RW	4	37	400	1	300	300	378	50	0	0	1	blank2r.bmp	0	1	+	0	1	blank2r.bmp	492	1	MQQM	492	1	blank2r.bmp	572	1	rächen	866	1	!	1239	1	!	1279	0	0	0	0	0	0	0	0	0	0	0	0	0	0	0	0	0	0	0	0	0	0	0	0	0	0	0	0	0	0
071019	11:23:40	11:30:11	390063	5.0.10.0	5_exp_RW	35	Rpleas_acq	CS_B	BZZB	GWWG	MQQM	YDDY	VKKV	JXXJ	retten	spielen	treu	schön	ehrlich	fair	rächen	strafen	tot	schlecht	eitel	faul	1	acq_USpleas_CSpleas2_RW	acq4567_RW	4	38	400	1	300	300	449	50	0	1	1	blank2r.bmp	0	1	+	0	1	blank2r.bmp	492	1	GWWG	492	1	blank2r.bmp	572	3	fair	866	1	!	1239	1	!	1346	0	0	0	0	0	0	0	0	0	0	0	0	0	0	0	0	0	0	0	0	0	0	0	0	0	0	0	0	0	0
071019	11:23:40	11:30:13	392382	5.0.10.0	5_exp_RW	35	Rpleas_acq	CS_B	BZZB	GWWG	MQQM	YDDY	VKKV	JXXJ	retten	spielen	treu	schön	ehrlich	fair	rächen	strafen	tot	schlecht	eitel	faul	1	acq_USpleas_CSpleas1_RW	acq4567_RW	4	39	400	0	300	300	557	50	0	1	1	blank2r.bmp	0	1	+	0	1	blank2r.bmp	492	1	BZZB	492	1	blank2r.bmp	572	2	spielen	866	1	!	1239	1	!	-1	0	0	0	0	0	0	0	0	0	0	0	0	0	0	0	0	0	0	0	0	0	0	0	0	0	0	0	0	0	0
071019	11:23:40	11:30:15	394541	5.0.10.0	5_exp_RW	35	Rpleas_acq	CS_B	BZZB	GWWG	MQQM	YDDY	VKKV	JXXJ	retten	spielen	treu	schön	ehrlich	fair	rächen	strafen	tot	schlecht	eitel	faul	1	acq_USunple_CSunple2_RW	acq4567_RW	4	40	400	1	300	300	349	46	0	1	1	blank2r.bmp	0	1	+	0	1	blank2r.bmp	492	1	YDDY	492	1	blank2r.bmp	572	2	eitel	866	1	!	1239	1	!	1252	0	0	0	0	0	0	0	0	0	0	0	0	0	0	0	0	0	0	0	0	0	0	0	0	0	0	0	0	0	0
071019	11:23:40	11:30:17	396913	5.0.10.0	5_exp_RW	35	Rpleas_acq	CS_B	BZZB	GWWG	MQQM	YDDY	VKKV	JXXJ	retten	spielen	treu	schön	ehrlich	fair	rächen	strafen	tot	schlecht	eitel	faul	1	acq_USpleas_CSpleas1_RW	acq4567_RW	4	41	400	0	300	300	605	50	0	1	1	blank2r.bmp	0	1	+	0	1	blank2r.bmp	492	1	BZZB	492	1	blank2r.bmp	572	3	treu	866	1	!	1239	1	!	-1	0	0	0	0	0	0	0	0	0	0	0	0	0	0	0	0	0	0	0	0	0	0	0	0	0	0	0	0	0	0
071019	11:23:40	11:30:20	399086	5.0.10.0	5_exp_RW	35	Rpleas_acq	CS_B	BZZB	GWWG	MQQM	YDDY	VKKV	JXXJ	retten	spielen	treu	schön	ehrlich	fair	rächen	strafen	tot	schlecht	eitel	faul	1	acq_USunple_CSunple1_RW	acq4567_RW	4	42	400	1	300	300	369	50	0	0	1	blank2r.bmp	0	1	+	0	1	blank2r.bmp	492	1	MQQM	492	1	blank2r.bmp	572	2	strafen	866	1	!	1239	1	!	1266	0	0	0	0	0	0	0	0	0	0	0	0	0	0	0	0	0	0	0	0	0	0	0	0	0	0	0	0	0	0
071019	11:23:40	11:30:22	401245	5.0.10.0	5_exp_RW	35	Rpleas_acq	CS_B	BZZB	GWWG	MQQM	YDDY	VKKV	JXXJ	retten	spielen	treu	schön	ehrlich	fair	rächen	strafen	tot	schlecht	eitel	faul	1	acq_USpleas_CSpleas2_RW	acq4567_RW	4	43	400	1	300	300	362	50	0	1	1	blank2r.bmp	0	1	+	0	1	blank2r.bmp	492	1	GWWG	492	1	blank2r.bmp	572	1	schön	866	1	!	1239	1	!	1266	0	0	0	0	0	0	0	0	0	0	0	0	0	0	0	0	0	0	0	0	0	0	0	0	0	0	0	0	0	0
071019	11:23:40	11:30:24	403577	5.0.10.0	5_exp_RW	35	Rpleas_acq	CS_B	BZZB	GWWG	MQQM	YDDY	VKKV	JXXJ	retten	spielen	treu	schön	ehrlich	fair	rächen	strafen	tot	schlecht	eitel	faul	1	acq_USunple_CSunple2_RW	acq4567_RW	4	44	400	0	300	300	560	46	0	1	1	blank2r.bmp	0	1	+	0	1	blank2r.bmp	492	1	YDDY	492	1	blank2r.bmp	572	1	schlecht	866	1	!	1239	1	!	-1	0	0	0	0	0	0	0	0	0	0	0	0	0	0	0	0	0	0	0	0	0	0	0	0	0	0	0	0	0	0
071019	11:23:40	11:30:26	405869	5.0.10.0	5_exp_RW	35	Rpleas_acq	CS_B	BZZB	GWWG	MQQM	YDDY	VKKV	JXXJ	retten	spielen	treu	schön	ehrlich	fair	rächen	strafen	tot	schlecht	eitel	faul	1	acq_USunple_CSunple1_RW	acq4567_RW	4	45	400	0	300	300	506	46	0	1	1	blank2r.bmp	0	1	+	0	1	blank2r.bmp	492	1	MQQM	492	1	blank2r.bmp	572	3	tot	866	1	!	1239	1	!	-1	0	0	0	0	0	0	0	0	0	0	0	0	0	0	0	0	0	0	0	0	0	0	0	0	0	0	0	0	0	0
071019	11:23:40	11:30:28	407855	5.0.10.0	5_exp_RW	35	Rpleas_acq	CS_B	BZZB	GWWG	MQQM	YDDY	VKKV	JXXJ	retten	spielen	treu	schön	ehrlich	fair	rächen	strafen	tot	schlecht	eitel	faul	1	acq_USunple_CSunple1_RW	acq4567_RW	4	46	400	0	300	300	203	46	0	1	1	blank2r.bmp	0	1	+	0	1	blank2r.bmp	492	1	MQQM	492	1	blank2r.bmp	572	1	rächen	866	1	!	-1	1	!	-1	0	0	0	0	0	0	0	0	0	0	0	0	0	0	0	0	0	0	0	0	0	0	0	0	0	0	0	0	0	0
071019	11:23:40	11:30:31	410174	5.0.10.0	5_exp_RW	35	Rpleas_acq	CS_B	BZZB	GWWG	MQQM	YDDY	VKKV	JXXJ	retten	spielen	treu	schön	ehrlich	fair	rächen	strafen	tot	schlecht	eitel	faul	1	acq_USunple_CSunple1_RW	acq4567_RW	4	47	400	0	300	300	539	46	0	1	1	blank2r.bmp	0	1	+	0	1	blank2r.bmp	492	1	MQQM	492	1	blank2r.bmp	572	2	strafen	866	1	!	1239	1	!	-1	0	0	0	0	0	0	0	0	0	0	0	0	0	0	0	0	0	0	0	0	0	0	0	0	0	0	0	0	0	0
071019	11:23:40	11:30:33	412213	5.0.10.0	5_exp_RW	35	Rpleas_acq	CS_B	BZZB	GWWG	MQQM	YDDY	VKKV	JXXJ	retten	spielen	treu	schön	ehrlich	fair	rächen	strafen	tot	schlecht	eitel	faul	1	acq_USunple_CSunple2_RW	acq4567_RW	4	48	400	0	300	300	257	46	0	1	1	blank2r.bmp	0	1	+	0	1	blank2r.bmp	492	1	YDDY	492	1	blank2r.bmp	572	1	schlecht	866	1	!	-1	1	!	-1	0	0	0	0	0	0	0	0	0	0	0	0	0	0	0	0	0	0	0	0	0	0	0	0	0	0	0	0	0	0
071019	11:23:40	11:30:35	414373	5.0.10.0	5_exp_RW	35	Rpleas_acq	CS_B	BZZB	GWWG	MQQM	YDDY	VKKV	JXXJ	retten	spielen	treu	schön	ehrlich	fair	rächen	strafen	tot	schlecht	eitel	faul	1	acq_USpleas_CSpleas1_RW	acq4567_RW	4	49	400	1	300	300	346	46	0	0	1	blank2r.bmp	0	1	+	0	1	blank2r.bmp	492	1	BZZB	492	1	blank2r.bmp	572	1	retten	866	1	!	1239	1	!	1252	0	0	0	0	0	0	0	0	0	0	0	0	0	0	0	0	0	0	0	0	0	0	0	0	0	0	0	0	0	0
071019	11:23:40	11:30:37	416438	5.0.10.0	5_exp_RW	35	Rpleas_acq	CS_B	BZZB	GWWG	MQQM	YDDY	VKKV	JXXJ	retten	spielen	treu	schön	ehrlich	fair	rächen	strafen	tot	schlecht	eitel	faul	1	acq_USpleas_CSpleas1_RW	acq4567_RW	4	50	400	0	300	300	299	50	0	1	1	blank2r.bmp	0	1	+	0	1	blank2r.bmp	492	1	BZZB	492	1	blank2r.bmp	572	2	spielen	866	1	!	-1	1	!	-1	0	0	0	0	0	0	0	0	0	0	0	0	0	0	0	0	0	0	0	0	0	0	0	0	0	0	0	0	0	0
071019	11:23:40	11:30:39	418717	5.0.10.0	5_exp_RW	35	Rpleas_acq	CS_B	BZZB	GWWG	MQQM	YDDY	VKKV	JXXJ	retten	spielen	treu	schön	ehrlich	fair	rächen	strafen	tot	schlecht	eitel	faul	1	acq_USpleas_CSpleas2_RW	acq4567_RW	4	51	400	0	300	300	483	50	0	1	1	blank2r.bmp	0	1	+	0	1	blank2r.bmp	492	1	GWWG	492	1	blank2r.bmp	572	3	fair	866	1	!	1239	1	!	-1	0	0	0	0	0	0	0	0	0	0	0	0	0	0	0	0	0	0	0	0	0	0	0	0	0	0	0	0	0	0
071019	11:23:40	11:30:41	420770	5.0.10.0	5_exp_RW	35	Rpleas_acq	CS_B	BZZB	GWWG	MQQM	YDDY	VKKV	JXXJ	retten	spielen	treu	schön	ehrlich	fair	rächen	strafen	tot	schlecht	eitel	faul	1	acq_USunple_CSunple2_RW	acq4567_RW	4	52	400	0	300	300	262	50	0	0	1	blank2r.bmp	0	1	+	0	1	blank2r.bmp	492	1	YDDY	492	1	blank2r.bmp	572	3	faul	866	1	!	-1	1	!	-1	0	0	0	0	0	0	0	0	0	0	0	0	0	0	0	0	0	0	0	0	0	0	0	0	0	0	0	0	0	0
071019	11:23:40	11:30:43	422929	5.0.10.0	5_exp_RW	35	Rpleas_acq	CS_B	BZZB	GWWG	MQQM	YDDY	VKKV	JXXJ	retten	spielen	treu	schön	ehrlich	fair	rächen	strafen	tot	schlecht	eitel	faul	1	acq_USpleas_CSpleas2_RW	acq4567_RW	4	53	400	1	300	300	349	50	0	1	1	blank2r.bmp	0	1	+	0	1	blank2r.bmp	492	1	GWWG	492	1	blank2r.bmp	572	2	ehrlich	866	1	!	1239	1	!	1252	0	0	0	0	0	0	0	0	0	0	0	0	0	0	0	0	0	0	0	0	0	0	0	0	0	0	0	0	0	0
071019	11:23:40	11:30:46	425021	5.0.10.0	5_exp_RW	35	Rpleas_acq	CS_B	BZZB	GWWG	MQQM	YDDY	VKKV	JXXJ	retten	spielen	treu	schön	ehrlich	fair	rächen	strafen	tot	schlecht	eitel	faul	1	acq_USunple_CSunple2_RW	acq4567_RW	4	54	400	0	300	300	327	46	0	1	1	blank2r.bmp	0	1	+	0	1	blank2r.bmp	492	1	YDDY	492	1	blank2r.bmp	572	2	eitel	866	1	!	-1	1	!	-1	0	0	0	0	0	0	0	0	0	0	0	0	0	0	0	0	0	0	0	0	0	0	0	0	0	0	0	0	0	0
071019	11:23:40	11:30:48	427287	5.0.10.0	5_exp_RW	35	Rpleas_acq	CS_B	BZZB	GWWG	MQQM	YDDY	VKKV	JXXJ	retten	spielen	treu	schön	ehrlich	fair	rächen	strafen	tot	schlecht	eitel	faul	1	acq_USpleas_CSpleas2_RW	acq4567_RW	4	55	400	1	300	300	458	50	0	1	1	blank2r.bmp	0	1	+	0	1	blank2r.bmp	492	1	GWWG	492	1	blank2r.bmp	572	1	schön	866	1	!	1239	1	!	1359	0	0	0	0	0	0	0	0	0	0	0	0	0	0	0	0	0	0	0	0	0	0	0	0	0	0	0	0	0	0
071019	11:23:40	11:30:50	429553	5.0.10.0	5_exp_RW	35	Rpleas_acq	CS_B	BZZB	GWWG	MQQM	YDDY	VKKV	JXXJ	retten	spielen	treu	schön	ehrlich	fair	rächen	strafen	tot	schlecht	eitel	faul	1	acq_USunple_CSunple2_RW	acq4567_RW	4	56	400	0	300	300	492	46	0	1	1	blank2r.bmp	0	1	+	0	1	blank2r.bmp	492	1	YDDY	492	1	blank2r.bmp	572	1	schlecht	866	1	!	1239	1	!	-1	0	0	0	0	0	0	0	0	0	0	0	0	0	0	0	0	0	0	0	0	0	0	0	0	0	0	0	0	0	0
071019	11:23:40	11:30:52	431739	5.0.10.0	5_exp_RW	35	Rpleas_acq	CS_B	BZZB	GWWG	MQQM	YDDY	VKKV	JXXJ	retten	spielen	treu	schön	ehrlich	fair	rächen	strafen	tot	schlecht	eitel	faul	1	acq_USpleas_CSpleas1_RW	acq4567_RW	4	57	400	1	300	300	383	50	0	1	1	blank2r.bmp	0	1	+	0	1	blank2r.bmp	492	1	BZZB	492	1	blank2r.bmp	572	3	treu	866	1	!	1239	1	!	1279	0	0	0	0	0	0	0	0	0	0	0	0	0	0	0	0	0	0	0	0	0	0	0	0	0	0	0	0	0	0
071019	11:23:40	11:30:54	433884	5.0.10.0	5_exp_RW	35	Rpleas_acq	CS_B	BZZB	GWWG	MQQM	YDDY	VKKV	JXXJ	retten	spielen	treu	schön	ehrlich	fair	rächen	strafen	tot	schlecht	eitel	faul	1	acq_USpleas_CSpleas2_RW	acq4567_RW	4	58	400	1	300	300	356	46	0	0	1	blank2r.bmp	0	1	+	0	1	blank2r.bmp	492	1	GWWG	492	1	blank2r.bmp	572	3	fair	866	1	!	1239	1	!	1252	0	0	0	0	0	0	0	0	0	0	0	0	0	0	0	0	0	0	0	0	0	0	0	0	0	0	0	0	0	0
071019	11:23:40	11:30:56	435924	5.0.10.0	5_exp_RW	35	Rpleas_acq	CS_B	BZZB	GWWG	MQQM	YDDY	VKKV	JXXJ	retten	spielen	treu	schön	ehrlich	fair	rächen	strafen	tot	schlecht	eitel	faul	1	acq_USpleas_CSpleas1_RW	acq4567_RW	4	59	400	0	300	300	267	46	0	0	1	blank2r.bmp	0	1	+	0	1	blank2r.bmp	492	1	BZZB	492	1	blank2r.bmp	572	1	retten	866	1	!	-1	1	!	-1	0	0	0	0	0	0	0	0	0	0	0	0	0	0	0	0	0	0	0	0	0	0	0	0	0	0	0	0	0	0
071019	11:23:40	11:30:59	438256	5.0.10.0	5_exp_RW	35	Rpleas_acq	CS_B	BZZB	GWWG	MQQM	YDDY	VKKV	JXXJ	retten	spielen	treu	schön	ehrlich	fair	rächen	strafen	tot	schlecht	eitel	faul	1	acq_USunple_CSunple1_RW	acq4567_RW	4	60	400	0	300	300	536	46	0	1	1	blank2r.bmp	0	1	+	0	1	blank2r.bmp	492	1	MQQM	492	1	blank2r.bmp	572	2	strafen	866	1	!	1239	1	!	-1	0	0	0	0	0	0	0	0	0	0	0	0	0	0	0	0	0	0	0	0	0	0	0	0	0	0	0	0	0	0
071019	11:23:40	11:31:01	440335	5.0.10.0	5_exp_RW	35	Rpleas_acq	CS_B	BZZB	GWWG	MQQM	YDDY	VKKV	JXXJ	retten	spielen	treu	schön	ehrlich	fair	rächen	strafen	tot	schlecht	eitel	faul	1	acq_USpleas_CSpleas1_RW	acq4567_RW	4	61	400	0	300	300	294	50	0	1	1	blank2r.bmp	0	1	+	0	1	blank2r.bmp	492	1	BZZB	492	1	blank2r.bmp	572	2	spielen	866	1	!	-1	1	!	-1	0	0	0	0	0	0	0	0	0	0	0	0	0	0	0	0	0	0	0	0	0	0	0	0	0	0	0	0	0	0
071019	11:23:40	11:31:03	442601	5.0.10.0	5_exp_RW	35	Rpleas_acq	CS_B	BZZB	GWWG	MQQM	YDDY	VKKV	JXXJ	retten	spielen	treu	schön	ehrlich	fair	rächen	strafen	tot	schlecht	eitel	faul	1	acq_USpleas_CSpleas1_RW	acq4567_RW	4	62	400	1	300	300	451	50	0	1	1	blank2r.bmp	0	1	+	0	1	blank2r.bmp	492	1	BZZB	492	1	blank2r.bmp	572	3	treu	866	1	!	1239	1	!	1359	0	0	0	0	0	0	0	0	0	0	0	0	0	0	0	0	0	0	0	0	0	0	0	0	0	0	0	0	0	0
071019	11:23:40	11:31:05	444853	5.0.10.0	5_exp_RW	35	Rpleas_acq	CS_B	BZZB	GWWG	MQQM	YDDY	VKKV	JXXJ	retten	spielen	treu	schön	ehrlich	fair	rächen	strafen	tot	schlecht	eitel	faul	1	acq_USpleas_CSpleas1_RW	acq4567_RW	4	63	400	0	300	300	479	50	0	1	1	blank2r.bmp	0	1	+	0	1	blank2r.bmp	492	1	BZZB	492	1	blank2r.bmp	572	1	retten	866	1	!	1239	1	!	-1	0	0	0	0	0	0	0	0	0	0	0	0	0	0	0	0	0	0	0	0	0	0	0	0	0	0	0	0	0	0
071019	11:23:40	11:31:07	446932	5.0.10.0	5_exp_RW	35	Rpleas_acq	CS_B	BZZB	GWWG	MQQM	YDDY	VKKV	JXXJ	retten	spielen	treu	schön	ehrlich	fair	rächen	strafen	tot	schlecht	eitel	faul	1	acq_USpleas_CSpleas2_RW	acq4567_RW	4	64	400	0	300	300	293	50	0	1	1	blank2r.bmp	0	1	+	0	1	blank2r.bmp	492	1	GWWG	492	1	blank2r.bmp	572	2	ehrlich	866	1	!	-1	1	!	-1	0	0	0	0	0	0	0	0	0	0	0	0	0	0	0	0	0	0	0	0	0	0	0	0	0	0	0	0	0	0
071019	11:23:40	11:31:10	449091	5.0.10.0	5_exp_RW	35	Rpleas_acq	CS_B	BZZB	GWWG	MQQM	YDDY	VKKV	JXXJ	retten	spielen	treu	schön	ehrlich	fair	rächen	strafen	tot	schlecht	eitel	faul	1	acq_USpleas_CSpleas1_RW	acq4567_RW	4	65	400	1	300	300	346	50	0	1	1	blank2r.bmp	0	1	+	0	1	blank2r.bmp	492	1	BZZB	492	1	blank2r.bmp	572	3	treu	866	1	!	1239	1	!	1252	0	0	0	0	0	0	0	0	0	0	0	0	0	0	0	0	0	0	0	0	0	0	0	0	0	0	0	0	0	0
071019	11:23:40	11:31:12	451344	5.0.10.0	5_exp_RW	35	Rpleas_acq	CS_B	BZZB	GWWG	MQQM	YDDY	VKKV	JXXJ	retten	spielen	treu	schön	ehrlich	fair	rächen	strafen	tot	schlecht	eitel	faul	1	acq_USunple_CSunple1_RW	acq4567_RW	4	66	400	0	300	300	487	50	0	0	1	blank2r.bmp	0	1	+	0	1	blank2r.bmp	492	1	MQQM	492	1	blank2r.bmp	572	1	rächen	866	1	!	1239	1	!	-1	0	0	0	0	0	0	0	0	0	0	0	0	0	0	0	0	0	0	0	0	0	0	0	0	0	0	0	0	0	0
071019	11:23:40	11:31:14	453623	5.0.10.0	5_exp_RW	35	Rpleas_acq	CS_B	BZZB	GWWG	MQQM	YDDY	VKKV	JXXJ	retten	spielen	treu	schön	ehrlich	fair	rächen	strafen	tot	schlecht	eitel	faul	1	acq_USunple_CSunple1_RW	acq4567_RW	4	67	400	0	300	300	499	46	0	1	1	blank2r.bmp	0	1	+	0	1	blank2r.bmp	492	1	MQQM	492	1	blank2r.bmp	572	3	tot	866	1	!	1239	1	!	-1	0	0	0	0	0	0	0	0	0	0	0	0	0	0	0	0	0	0	0	0	0	0	0	0	0	0	0	0	0	0
071019	11:23:40	11:31:16	455702	5.0.10.0	5_exp_RW	35	Rpleas_acq	CS_B	BZZB	GWWG	MQQM	YDDY	VKKV	JXXJ	retten	spielen	treu	schön	ehrlich	fair	rächen	strafen	tot	schlecht	eitel	faul	1	acq_USpleas_CSpleas2_RW	acq4567_RW	4	68	400	0	300	300	292	46	0	0	1	blank2r.bmp	0	1	+	0	1	blank2r.bmp	492	1	GWWG	492	1	blank2r.bmp	572	1	schön	866	1	!	-1	1	!	-1	0	0	0	0	0	0	0	0	0	0	0	0	0	0	0	0	0	0	0	0	0	0	0	0	0	0	0	0	0	0
071019	11:23:40	11:31:18	457794	5.0.10.0	5_exp_RW	35	Rpleas_acq	CS_B	BZZB	GWWG	MQQM	YDDY	VKKV	JXXJ	retten	spielen	treu	schön	ehrlich	fair	rächen	strafen	tot	schlecht	eitel	faul	1	acq_USpleas_CSpleas2_RW	acq4567_RW	4	69	400	0	300	300	311	50	0	1	1	blank2r.bmp	0	1	+	0	1	blank2r.bmp	492	1	GWWG	492	1	blank2r.bmp	572	1	schön	866	1	!	-1	1	!	-1	0	0	0	0	0	0	0	0	0	0	0	0	0	0	0	0	0	0	0	0	0	0	0	0	0	0	0	0	0	0
071019	11:23:40	11:31:21	460193	5.0.10.0	5_exp_RW	35	Rpleas_acq	CS_B	BZZB	GWWG	MQQM	YDDY	VKKV	JXXJ	retten	spielen	treu	schön	ehrlich	fair	rächen	strafen	tot	schlecht	eitel	faul	1	acq_USpleas_CSpleas2_RW	acq4567_RW	4	70	400	0	300	300	599	50	0	1	1	blank2r.bmp	0	1	+	0	1	blank2r.bmp	492	1	GWWG	492	1	blank2r.bmp	572	2	ehrlich	866	1	!	1239	1	!	-1	0	0	0	0	0	0	0	0	0	0	0	0	0	0	0	0	0	0	0	0	0	0	0	0	0	0	0	0	0	0
071019	11:23:40	11:31:23	462219	5.0.10.0	5_exp_RW	35	Rpleas_acq	CS_B	BZZB	GWWG	MQQM	YDDY	VKKV	JXXJ	retten	spielen	treu	schön	ehrlich	fair	rächen	strafen	tot	schlecht	eitel	faul	1	acq_USunple_CSunple1_RW	acq4567_RW	4	71	400	0	300	300	251	50	0	0	1	blank2r.bmp	0	1	+	0	1	blank2r.bmp	492	1	MQQM	492	1	blank2r.bmp	572	2	strafen	866	1	!	-1	1	!	-1	0	0	0	0	0	0	0	0	0	0	0	0	0	0	0	0	0	0	0	0	0	0	0	0	0	0	0	0	0	0
071019	11:23:40	11:31:25	464312	5.0.10.0	5_exp_RW	35	Rpleas_acq	CS_B	BZZB	GWWG	MQQM	YDDY	VKKV	JXXJ	retten	spielen	treu	schön	ehrlich	fair	rächen	strafen	tot	schlecht	eitel	faul	1	acq_USunple_CSunple2_RW	acq4567_RW	4	72	400	0	300	300	313	50	0	0	1	blank2r.bmp	0	1	+	0	1	blank2r.bmp	492	1	YDDY	492	1	blank2r.bmp	572	3	faul	866	1	!	-1	1	!	-1	0	0	0	0	0	0	0	0	0	0	0	0	0	0	0	0	0	0	0	0	0	0	0	0	0	0	0	0	0	0
071019	11:23:40	11:31:30	469190	5.0.10.0	5_exp_RW	35	Rpleas_acq	CS_B	BZZB	GWWG	MQQM	YDDY	VKKV	JXXJ	retten	spielen	treu	schön	ehrlich	fair	rächen	strafen	tot	schlecht	eitel	faul	1	acq_USunple_CSunple2_RW	acq4567_RW	4	73	400	0	300	300	3095	50	0	0	1	blank2r.bmp	0	1	+	0	1	blank2r.bmp	492	1	YDDY	492	1	blank2r.bmp	572	2	eitel	866	1	!	1239	1	!	-1	0	0	0	0	0	0	0	0	0	0	0	0	0	0	0	0	0	0	0	0	0	0	0	0	0	0	0	0	0	0
071019	11:23:40	11:31:32	471362	5.0.10.0	5_exp_RW	35	Rpleas_acq	CS_B	BZZB	GWWG	MQQM	YDDY	VKKV	JXXJ	retten	spielen	treu	schön	ehrlich	fair	rächen	strafen	tot	schlecht	eitel	faul	1	acq_USunple_CSunple2_RW	acq4567_RW	4	74	400	1	300	300	368	46	0	1	1	blank2r.bmp	0	1	+	0	1	blank2r.bmp	492	1	YDDY	492	1	blank2r.bmp	572	1	schlecht	866	1	!	1239	1	!	1266	0	0	0	0	0	0	0	0	0	0	0	0	0	0	0	0	0	0	0	0	0	0	0	0	0	0	0	0	0	0
071019	11:23:40	11:31:34	473561	5.0.10.0	5_exp_RW	35	Rpleas_acq	CS_B	BZZB	GWWG	MQQM	YDDY	VKKV	JXXJ	retten	spielen	treu	schön	ehrlich	fair	rächen	strafen	tot	schlecht	eitel	faul	1	acq_USunple_CSunple2_RW	acq4567_RW	4	75	400	1	300	300	410	50	0	0	1	blank2r.bmp	0	1	+	0	1	blank2r.bmp	492	1	YDDY	492	1	blank2r.bmp	572	2	eitel	866	1	!	1239	1	!	1306	0	0	0	0	0	0	0	0	0	0	0	0	0	0	0	0	0	0	0	0	0	0	0	0	0	0	0	0	0	0
071019	11:23:40	11:31:36	475707	5.0.10.0	5_exp_RW	35	Rpleas_acq	CS_B	BZZB	GWWG	MQQM	YDDY	VKKV	JXXJ	retten	spielen	treu	schön	ehrlich	fair	rächen	strafen	tot	schlecht	eitel	faul	1	acq_USpleas_CSpleas1_RW	acq4567_RW	4	76	400	1	300	300	346	50	0	1	1	blank2r.bmp	0	1	+	0	1	blank2r.bmp	492	1	BZZB	492	1	blank2r.bmp	572	2	spielen	866	1	!	1239	1	!	1252	0	0	0	0	0	0	0	0	0	0	0	0	0	0	0	0	0	0	0	0	0	0	0	0	0	0	0	0	0	0
071019	11:23:40	11:31:38	477933	5.0.10.0	5_exp_RW	35	Rpleas_acq	CS_B	BZZB	GWWG	MQQM	YDDY	VKKV	JXXJ	retten	spielen	treu	schön	ehrlich	fair	rächen	strafen	tot	schlecht	eitel	faul	1	acq_USunple_CSunple1_RW	acq4567_RW	4	77	400	1	300	300	438	46	0	1	1	blank2r.bmp	0	1	+	0	1	blank2r.bmp	492	1	MQQM	492	1	blank2r.bmp	572	3	tot	866	1	!	1239	1	!	1332	0	0	0	0	0	0	0	0	0	0	0	0	0	0	0	0	0	0	0	0	0	0	0	0	0	0	0	0	0	0
071019	11:23:40	11:31:41	480012	5.0.10.0	5_exp_RW	35	Rpleas_acq	CS_B	BZZB	GWWG	MQQM	YDDY	VKKV	JXXJ	retten	spielen	treu	schön	ehrlich	fair	rächen	strafen	tot	schlecht	eitel	faul	1	acq_USpleas_CSpleas2_RW	acq4567_RW	4	78	400	0	300	300	303	46	0	0	1	blank2r.bmp	0	1	+	0	1	blank2r.bmp	492	1	GWWG	492	1	blank2r.bmp	572	3	fair	866	1	!	-1	1	!	-1	0	0	0	0	0	0	0	0	0	0	0	0	0	0	0	0	0	0	0	0	0	0	0	0	0	0	0	0	0	0
071019	11:23:40	11:31:43	482171	5.0.10.0	5_exp_RW	35	Rpleas_acq	CS_B	BZZB	GWWG	MQQM	YDDY	VKKV	JXXJ	retten	spielen	treu	schön	ehrlich	fair	rächen	strafen	tot	schlecht	eitel	faul	1	acq_USunple_CSunple1_RW	acq4567_RW	4	79	400	1	300	300	347	46	0	1	1	blank2r.bmp	0	1	+	0	1	blank2r.bmp	492	1	MQQM	492	1	blank2r.bmp	572	1	rächen	866	1	!	1239	1	!	1252	0	0	0	0	0	0	0	0	0	0	0	0	0	0	0	0	0	0	0	0	0	0	0	0	0	0	0	0	0	0
071019	11:23:40	11:31:45	484463	5.0.10.0	5_exp_RW	35	Rpleas_acq	CS_B	BZZB	GWWG	MQQM	YDDY	VKKV	JXXJ	retten	spielen	treu	schön	ehrlich	fair	rächen	strafen	tot	schlecht	eitel	faul	1	acq_USunple_CSunple2_RW	acq4567_RW	4	80	400	0	300	300	519	46	0	1	1	blank2r.bmp	0	1	+	0	1	blank2r.bmp	492	1	YDDY	492	1	blank2r.bmp	572	3	faul	866	1	!	1239	1	!	-1	0	0	0	0	0	0	0	0	0	0	0	0	0	0	0	0	0	0	0	0	0	0	0	0	0	0	0	0	0	0
071019	11:23:40	11:31:58	497085	5.0.10.0	5_exp_RW	35	Rpleas_acq	CS_B	BZZB	GWWG	MQQM	YDDY	VKKV	JXXJ	retten	spielen	treu	schön	ehrlich	fair	rächen	strafen	tot	schlecht	eitel	faul	1	acq_USunple_CSunple1_RW	acq4567_RW	5	1	400	1	300	300	466	46	0	1	1	blank2r.bmp	0	1	+	0	1	blank2r.bmp	492	1	MQQM	492	1	blank2r.bmp	572	2	strafen	866	1	!	1239	1	!	1372	0	0	0	0	0	0	0	0	0	0	0	0	0	0	0	0	0	0	0	0	0	0	0	0	0	0	0	0	0	0
071019	11:23:40	11:32:00	499337	5.0.10.0	5_exp_RW	35	Rpleas_acq	CS_B	BZZB	GWWG	MQQM	YDDY	VKKV	JXXJ	retten	spielen	treu	schön	ehrlich	fair	rächen	strafen	tot	schlecht	eitel	faul	1	acq_USunple_CSunple1_RW	acq4567_RW	5	2	400	1	300	300	462	46	0	1	1	blank2r.bmp	0	1	+	0	1	blank2r.bmp	492	1	MQQM	492	1	blank2r.bmp	572	1	rächen	866	1	!	1239	1	!	1359	0	0	0	0	0	0	0	0	0	0	0	0	0	0	0	0	0	0	0	0	0	0	0	0	0	0	0	0	0	0
071019	11:23:40	11:32:02	501496	5.0.10.0	5_exp_RW	35	Rpleas_acq	CS_B	BZZB	GWWG	MQQM	YDDY	VKKV	JXXJ	retten	spielen	treu	schön	ehrlich	fair	rächen	strafen	tot	schlecht	eitel	faul	1	acq_USunple_CSunple2_RW	acq4567_RW	5	3	400	1	300	300	360	46	0	1	1	blank2r.bmp	0	1	+	0	1	blank2r.bmp	492	1	YDDY	492	1	blank2r.bmp	572	2	eitel	866	1	!	1239	1	!	1266	0	0	0	0	0	0	0	0	0	0	0	0	0	0	0	0	0	0	0	0	0	0	0	0	0	0	0	0	0	0
071019	11:23:40	11:32:04	503775	5.0.10.0	5_exp_RW	35	Rpleas_acq	CS_B	BZZB	GWWG	MQQM	YDDY	VKKV	JXXJ	retten	spielen	treu	schön	ehrlich	fair	rächen	strafen	tot	schlecht	eitel	faul	1	acq_USpleas_CSpleas1_RW	acq4567_RW	5	4	400	0	300	300	509	50	0	1	1	blank2r.bmp	0	1	+	0	1	blank2r.bmp	492	1	BZZB	492	1	blank2r.bmp	572	1	retten	866	1	!	1239	1	!	-1	0	0	0	0	0	0	0	0	0	0	0	0	0	0	0	0	0	0	0	0	0	0	0	0	0	0	0	0	0	0
071019	11:23:40	11:32:07	505988	5.0.10.0	5_exp_RW	35	Rpleas_acq	CS_B	BZZB	GWWG	MQQM	YDDY	VKKV	JXXJ	retten	spielen	treu	schön	ehrlich	fair	rächen	strafen	tot	schlecht	eitel	faul	1	acq_USpleas_CSpleas2_RW	acq4567_RW	5	5	400	1	300	300	405	50	0	1	1	blank2r.bmp	0	1	+	0	1	blank2r.bmp	492	1	GWWG	492	1	blank2r.bmp	572	3	fair	866	1	!	1239	1	!	1306	0	0	0	0	0	0	0	0	0	0	0	0	0	0	0	0	0	0	0	0	0	0	0	0	0	0	0	0	0	0
071019	11:23:40	11:32:09	508173	5.0.10.0	5_exp_RW	35	Rpleas_acq	CS_B	BZZB	GWWG	MQQM	YDDY	VKKV	JXXJ	retten	spielen	treu	schön	ehrlich	fair	rächen	strafen	tot	schlecht	eitel	faul	1	acq_USpleas_CSpleas1_RW	acq4567_RW	5	6	400	1	300	300	387	46	0	0	1	blank2r.bmp	0	1	+	0	1	blank2r.bmp	492	1	BZZB	492	1	blank2r.bmp	572	3	treu	866	1	!	1239	1	!	1292	0	0	0	0	0	0	0	0	0	0	0	0	0	0	0	0	0	0	0	0	0	0	0	0	0	0	0	0	0	0
071019	11:23:40	11:32:11	510346	5.0.10.0	5_exp_RW	35	Rpleas_acq	CS_B	BZZB	GWWG	MQQM	YDDY	VKKV	JXXJ	retten	spielen	treu	schön	ehrlich	fair	rächen	strafen	tot	schlecht	eitel	faul	1	acq_USunple_CSunple2_RW	acq4567_RW	5	7	400	1	300	300	373	50	0	0	1	blank2r.bmp	0	1	+	0	1	blank2r.bmp	492	1	YDDY	492	1	blank2r.bmp	572	3	faul	866	1	!	1239	1	!	1279	0	0	0	0	0	0	0	0	0	0	0	0	0	0	0	0	0	0	0	0	0	0	0	0	0	0	0	0	0	0
071019	11:23:40	11:32:13	512412	5.0.10.0	5_exp_RW	35	Rpleas_acq	CS_B	BZZB	GWWG	MQQM	YDDY	VKKV	JXXJ	retten	spielen	treu	schön	ehrlich	fair	rächen	strafen	tot	schlecht	eitel	faul	1	acq_USunple_CSunple2_RW	acq4567_RW	5	8	400	0	300	300	294	50	0	0	1	blank2r.bmp	0	1	+	0	1	blank2r.bmp	492	1	YDDY	492	1	blank2r.bmp	572	1	schlecht	866	1	!	-1	1	!	-1	0	0	0	0	0	0	0	0	0	0	0	0	0	0	0	0	0	0	0	0	0	0	0	0	0	0	0	0	0	0
071019	11:23:40	11:32:15	514891	5.0.10.0	5_exp_RW	35	Rpleas_acq	CS_B	BZZB	GWWG	MQQM	YDDY	VKKV	JXXJ	retten	spielen	treu	schön	ehrlich	fair	rächen	strafen	tot	schlecht	eitel	faul	1	acq_USunple_CSunple1_RW	acq4567_RW	5	9	400	0	300	300	700	46	0	1	1	blank2r.bmp	0	1	+	0	1	blank2r.bmp	492	1	MQQM	492	1	blank2r.bmp	572	3	tot	866	1	!	1239	1	!	-1	0	0	0	0	0	0	0	0	0	0	0	0	0	0	0	0	0	0	0	0	0	0	0	0	0	0	0	0	0	0
071019	11:23:40	11:32:18	517223	5.0.10.0	5_exp_RW	35	Rpleas_acq	CS_B	BZZB	GWWG	MQQM	YDDY	VKKV	JXXJ	retten	spielen	treu	schön	ehrlich	fair	rächen	strafen	tot	schlecht	eitel	faul	1	acq_USpleas_CSpleas2_RW	acq4567_RW	5	10	400	0	300	300	532	50	0	1	1	blank2r.bmp	0	1	+	0	1	blank2r.bmp	492	1	GWWG	492	1	blank2r.bmp	572	2	ehrlich	866	1	!	1239	1	!	-1	0	0	0	0	0	0	0	0	0	0	0	0	0	0	0	0	0	0	0	0	0	0	0	0	0	0	0	0	0	0
071019	11:23:40	11:32:20	519289	5.0.10.0	5_exp_RW	35	Rpleas_acq	CS_B	BZZB	GWWG	MQQM	YDDY	VKKV	JXXJ	retten	spielen	treu	schön	ehrlich	fair	rächen	strafen	tot	schlecht	eitel	faul	1	acq_USunple_CSunple2_RW	acq4567_RW	5	11	400	0	300	300	284	50	0	0	1	blank2r.bmp	0	1	+	0	1	blank2r.bmp	492	1	YDDY	492	1	blank2r.bmp	572	1	schlecht	866	1	!	-1	1	!	-1	0	0	0	0	0	0	0	0	0	0	0	0	0	0	0	0	0	0	0	0	0	0	0	0	0	0	0	0	0	0
071019	11:23:40	11:32:22	521461	5.0.10.0	5_exp_RW	35	Rpleas_acq	CS_B	BZZB	GWWG	MQQM	YDDY	VKKV	JXXJ	retten	spielen	treu	schön	ehrlich	fair	rächen	strafen	tot	schlecht	eitel	faul	1	acq_USpleas_CSpleas1_RW	acq4567_RW	5	12	400	1	300	300	357	50	0	1	1	blank2r.bmp	0	1	+	0	1	blank2r.bmp	492	1	BZZB	492	1	blank2r.bmp	572	2	spielen	866	1	!	1239	1	!	1252	0	0	0	0	0	0	0	0	0	0	0	0	0	0	0	0	0	0	0	0	0	0	0	0	0	0	0	0	0	0
071019	11:23:40	11:32:24	523647	5.0.10.0	5_exp_RW	35	Rpleas_acq	CS_B	BZZB	GWWG	MQQM	YDDY	VKKV	JXXJ	retten	spielen	treu	schön	ehrlich	fair	rächen	strafen	tot	schlecht	eitel	faul	1	acq_USpleas_CSpleas1_RW	acq4567_RW	5	13	400	1	300	300	390	50	0	1	1	blank2r.bmp	0	1	+	0	1	blank2r.bmp	492	1	BZZB	492	1	blank2r.bmp	572	1	retten	866	1	!	1239	1	!	1292	0	0	0	0	0	0	0	0	0	0	0	0	0	0	0	0	0	0	0	0	0	0	0	0	0	0	0	0	0	0
071019	11:23:40	11:32:26	525713	5.0.10.0	5_exp_RW	35	Rpleas_acq	CS_B	BZZB	GWWG	MQQM	YDDY	VKKV	JXXJ	retten	spielen	treu	schön	ehrlich	fair	rächen	strafen	tot	schlecht	eitel	faul	1	acq_USunple_CSunple1_RW	acq4567_RW	5	14	400	0	300	300	292	46	0	1	1	blank2r.bmp	0	1	+	0	1	blank2r.bmp	492	1	MQQM	492	1	blank2r.bmp	572	1	rächen	866	1	!	-1	1	!	-1	0	0	0	0	0	0	0	0	0	0	0	0	0	0	0	0	0	0	0	0	0	0	0	0	0	0	0	0	0	0
071019	11:23:40	11:32:28	527872	5.0.10.0	5_exp_RW	35	Rpleas_acq	CS_B	BZZB	GWWG	MQQM	YDDY	VKKV	JXXJ	retten	spielen	treu	schön	ehrlich	fair	rächen	strafen	tot	schlecht	eitel	faul	1	acq_USpleas_CSpleas2_RW	acq4567_RW	5	15	400	1	300	300	355	50	0	1	1	blank2r.bmp	0	1	+	0	1	blank2r.bmp	492	1	GWWG	492	1	blank2r.bmp	572	1	schön	866	1	!	1239	1	!	1252	0	0	0	0	0	0	0	0	0	0	0	0	0	0	0	0	0	0	0	0	0	0	0	0	0	0	0	0	0	0
071019	11:23:40	11:32:30	529938	5.0.10.0	5_exp_RW	35	Rpleas_acq	CS_B	BZZB	GWWG	MQQM	YDDY	VKKV	JXXJ	retten	spielen	treu	schön	ehrlich	fair	rächen	strafen	tot	schlecht	eitel	faul	1	acq_USpleas_CSpleas2_RW	acq4567_RW	5	16	400	0	300	300	302	50	0	1	1	blank2r.bmp	0	1	+	0	1	blank2r.bmp	492	1	GWWG	492	1	blank2r.bmp	572	2	ehrlich	866	1	!	-1	1	!	-1	0	0	0	0	0	0	0	0	0	0	0	0	0	0	0	0	0	0	0	0	0	0	0	0	0	0	0	0	0	0
071019	11:23:40	11:32:33	532123	5.0.10.0	5_exp_RW	35	Rpleas_acq	CS_B	BZZB	GWWG	MQQM	YDDY	VKKV	JXXJ	retten	spielen	treu	schön	ehrlich	fair	rächen	strafen	tot	schlecht	eitel	faul	1	acq_USunple_CSunple2_RW	acq4567_RW	5	17	400	1	300	300	373	50	0	0	1	blank2r.bmp	0	1	+	0	1	blank2r.bmp	492	1	YDDY	492	1	blank2r.bmp	572	2	eitel	866	1	!	1239	1	!	1279	0	0	0	0	0	0	0	0	0	0	0	0	0	0	0	0	0	0	0	0	0	0	0	0	0	0	0	0	0	0
071019	11:23:40	11:32:35	534176	5.0.10.0	5_exp_RW	35	Rpleas_acq	CS_B	BZZB	GWWG	MQQM	YDDY	VKKV	JXXJ	retten	spielen	treu	schön	ehrlich	fair	rächen	strafen	tot	schlecht	eitel	faul	1	acq_USpleas_CSpleas2_RW	acq4567_RW	5	18	400	0	300	300	288	50	0	1	1	blank2r.bmp	0	1	+	0	1	blank2r.bmp	492	1	GWWG	492	1	blank2r.bmp	572	3	fair	866	1	!	-1	1	!	-1	0	0	0	0	0	0	0	0	0	0	0	0	0	0	0	0	0	0	0	0	0	0	0	0	0	0	0	0	0	0
071019	11:23:40	11:32:37	536482	5.0.10.0	5_exp_RW	35	Rpleas_acq	CS_B	BZZB	GWWG	MQQM	YDDY	VKKV	JXXJ	retten	spielen	treu	schön	ehrlich	fair	rächen	strafen	tot	schlecht	eitel	faul	1	acq_USunple_CSunple1_RW	acq4567_RW	5	19	400	0	300	300	521	46	0	1	1	blank2r.bmp	0	1	+	0	1	blank2r.bmp	492	1	MQQM	492	1	blank2r.bmp	572	3	tot	866	1	!	1239	1	!	-1	0	0	0	0	0	0	0	0	0	0	0	0	0	0	0	0	0	0	0	0	0	0	0	0	0	0	0	0	0	0
071019	11:23:40	11:32:39	538561	5.0.10.0	5_exp_RW	35	Rpleas_acq	CS_B	BZZB	GWWG	MQQM	YDDY	VKKV	JXXJ	retten	spielen	treu	schön	ehrlich	fair	rächen	strafen	tot	schlecht	eitel	faul	1	acq_USpleas_CSpleas1_RW	acq4567_RW	5	20	400	0	300	300	296	50	0	1	1	blank2r.bmp	0	1	+	0	1	blank2r.bmp	492	1	BZZB	492	1	blank2r.bmp	572	3	treu	866	1	!	-1	1	!	-1	0	0	0	0	0	0	0	0	0	0	0	0	0	0	0	0	0	0	0	0	0	0	0	0	0	0	0	0	0	0
071019	11:23:40	11:32:41	540653	5.0.10.0	5_exp_RW	35	Rpleas_acq	CS_B	BZZB	GWWG	MQQM	YDDY	VKKV	JXXJ	retten	spielen	treu	schön	ehrlich	fair	rächen	strafen	tot	schlecht	eitel	faul	1	acq_USpleas_CSpleas2_RW	acq4567_RW	5	21	400	0	300	300	309	50	0	1	1	blank2r.bmp	0	1	+	0	1	blank2r.bmp	492	1	GWWG	492	1	blank2r.bmp	572	1	schön	866	1	!	-1	1	!	-1	0	0	0	0	0	0	0	0	0	0	0	0	0	0	0	0	0	0	0	0	0	0	0	0	0	0	0	0	0	0
071019	11:23:40	11:32:43	542812	5.0.10.0	5_exp_RW	35	Rpleas_acq	CS_B	BZZB	GWWG	MQQM	YDDY	VKKV	JXXJ	retten	spielen	treu	schön	ehrlich	fair	rächen	strafen	tot	schlecht	eitel	faul	1	acq_USpleas_CSpleas2_RW	acq4567_RW	5	22	400	1	300	300	354	50	0	1	1	blank2r.bmp	0	1	+	0	1	blank2r.bmp	492	1	GWWG	492	1	blank2r.bmp	572	1	schön	866	1	!	1239	1	!	1252	0	0	0	0	0	0	0	0	0	0	0	0	0	0	0	0	0	0	0	0	0	0	0	0	0	0	0	0	0	0
071019	11:23:40	11:32:46	545185	5.0.10.0	5_exp_RW	35	Rpleas_acq	CS_B	BZZB	GWWG	MQQM	YDDY	VKKV	JXXJ	retten	spielen	treu	schön	ehrlich	fair	rächen	strafen	tot	schlecht	eitel	faul	1	acq_USunple_CSunple1_RW	acq4567_RW	5	23	400	0	300	300	589	46	0	1	1	blank2r.bmp	0	1	+	0	1	blank2r.bmp	492	1	MQQM	492	1	blank2r.bmp	572	2	strafen	866	1	!	1239	1	!	-1	0	0	0	0	0	0	0	0	0	0	0	0	0	0	0	0	0	0	0	0	0	0	0	0	0	0	0	0	0	0
071019	11:23:40	11:32:48	547210	5.0.10.0	5_exp_RW	35	Rpleas_acq	CS_B	BZZB	GWWG	MQQM	YDDY	VKKV	JXXJ	retten	spielen	treu	schön	ehrlich	fair	rächen	strafen	tot	schlecht	eitel	faul	1	acq_USunple_CSunple2_RW	acq4567_RW	5	24	400	0	300	300	226	50	0	0	1	blank2r.bmp	0	1	+	0	1	blank2r.bmp	492	1	YDDY	492	1	blank2r.bmp	572	3	faul	866	1	!	-1	1	!	-1	0	0	0	0	0	0	0	0	0	0	0	0	0	0	0	0	0	0	0	0	0	0	0	0	0	0	0	0	0	0
071019	11:23:40	11:32:50	549383	5.0.10.0	5_exp_RW	35	Rpleas_acq	CS_B	BZZB	GWWG	MQQM	YDDY	VKKV	JXXJ	retten	spielen	treu	schön	ehrlich	fair	rächen	strafen	tot	schlecht	eitel	faul	1	acq_USpleas_CSpleas1_RW	acq4567_RW	5	25	400	1	300	300	368	50	0	1	1	blank2r.bmp	0	1	+	0	1	blank2r.bmp	492	1	BZZB	492	1	blank2r.bmp	572	2	spielen	866	1	!	1239	1	!	1266	0	0	0	0	0	0	0	0	0	0	0	0	0	0	0	0	0	0	0	0	0	0	0	0	0	0	0	0	0	0
071019	11:23:40	11:32:52	551555	5.0.10.0	5_exp_RW	35	Rpleas_acq	CS_B	BZZB	GWWG	MQQM	YDDY	VKKV	JXXJ	retten	spielen	treu	schön	ehrlich	fair	rächen	strafen	tot	schlecht	eitel	faul	1	acq_USunple_CSunple2_RW	acq4567_RW	5	26	400	1	300	300	375	50	0	0	1	blank2r.bmp	0	1	+	0	1	blank2r.bmp	492	1	YDDY	492	1	blank2r.bmp	572	2	eitel	866	1	!	1239	1	!	1279	0	0	0	0	0	0	0	0	0	0	0	0	0	0	0	0	0	0	0	0	0	0	0	0	0	0	0	0	0	0
071019	11:23:40	11:32:54	553834	5.0.10.0	5_exp_RW	35	Rpleas_acq	CS_B	BZZB	GWWG	MQQM	YDDY	VKKV	JXXJ	retten	spielen	treu	schön	ehrlich	fair	rächen	strafen	tot	schlecht	eitel	faul	1	acq_USpleas_CSpleas2_RW	acq4567_RW	5	27	400	0	300	300	506	46	0	0	1	blank2r.bmp	0	1	+	0	1	blank2r.bmp	492	1	GWWG	492	1	blank2r.bmp	572	3	fair	866	1	!	1239	1	!	-1	0	0	0	0	0	0	0	0	0	0	0	0	0	0	0	0	0	0	0	0	0	0	0	0	0	0	0	0	0	0
071019	11:23:40	11:32:56	555940	5.0.10.0	5_exp_RW	35	Rpleas_acq	CS_B	BZZB	GWWG	MQQM	YDDY	VKKV	JXXJ	retten	spielen	treu	schön	ehrlich	fair	rächen	strafen	tot	schlecht	eitel	faul	1	acq_USunple_CSunple2_RW	acq4567_RW	5	28	400	0	300	300	324	50	0	0	1	blank2r.bmp	0	1	+	0	1	blank2r.bmp	492	1	YDDY	492	1	blank2r.bmp	572	3	faul	866	1	!	-1	1	!	-1	0	0	0	0	0	0	0	0	0	0	0	0	0	0	0	0	0	0	0	0	0	0	0	0	0	0	0	0	0	0
071019	11:23:40	11:32:59	557992	5.0.10.0	5_exp_RW	35	Rpleas_acq	CS_B	BZZB	GWWG	MQQM	YDDY	VKKV	JXXJ	retten	spielen	treu	schön	ehrlich	fair	rächen	strafen	tot	schlecht	eitel	faul	1	acq_USunple_CSunple1_RW	acq4567_RW	5	29	400	0	300	300	267	46	0	1	1	blank2r.bmp	0	1	+	0	1	blank2r.bmp	492	1	MQQM	492	1	blank2r.bmp	572	3	tot	866	1	!	-1	1	!	-1	0	0	0	0	0	0	0	0	0	0	0	0	0	0	0	0	0	0	0	0	0	0	0	0	0	0	0	0	0	0
071019	11:23:40	11:33:01	560165	5.0.10.0	5_exp_RW	35	Rpleas_acq	CS_B	BZZB	GWWG	MQQM	YDDY	VKKV	JXXJ	retten	spielen	treu	schön	ehrlich	fair	rächen	strafen	tot	schlecht	eitel	faul	1	acq_USunple_CSunple1_RW	acq4567_RW	5	30	400	1	300	300	348	46	0	1	1	blank2r.bmp	0	1	+	0	1	blank2r.bmp	492	1	MQQM	492	1	blank2r.bmp	572	2	strafen	866	1	!	1239	1	!	1252	0	0	0	0	0	0	0	0	0	0	0	0	0	0	0	0	0	0	0	0	0	0	0	0	0	0	0	0	0	0
071019	11:23:40	11:33:03	562191	5.0.10.0	5_exp_RW	35	Rpleas_acq	CS_B	BZZB	GWWG	MQQM	YDDY	VKKV	JXXJ	retten	spielen	treu	schön	ehrlich	fair	rächen	strafen	tot	schlecht	eitel	faul	1	acq_USpleas_CSpleas1_RW	acq4567_RW	5	31	400	0	300	300	261	46	0	0	1	blank2r.bmp	0	1	+	0	1	blank2r.bmp	492	1	BZZB	492	1	blank2r.bmp	572	1	retten	866	1	!	-1	1	!	-1	0	0	0	0	0	0	0	0	0	0	0	0	0	0	0	0	0	0	0	0	0	0	0	0	0	0	0	0	0	0
071019	11:23:40	11:33:05	564376	5.0.10.0	5_exp_RW	35	Rpleas_acq	CS_B	BZZB	GWWG	MQQM	YDDY	VKKV	JXXJ	retten	spielen	treu	schön	ehrlich	fair	rächen	strafen	tot	schlecht	eitel	faul	1	acq_USunple_CSunple1_RW	acq4567_RW	5	32	400	1	300	300	380	50	0	0	1	blank2r.bmp	0	1	+	0	1	blank2r.bmp	492	1	MQQM	492	1	blank2r.bmp	572	1	rächen	866	1	!	1239	1	!	1279	0	0	0	0	0	0	0	0	0	0	0	0	0	0	0	0	0	0	0	0	0	0	0	0	0	0	0	0	0	0
071019	11:23:40	11:33:07	566389	5.0.10.0	5_exp_RW	35	Rpleas_acq	CS_B	BZZB	GWWG	MQQM	YDDY	VKKV	JXXJ	retten	spielen	treu	schön	ehrlich	fair	rächen	strafen	tot	schlecht	eitel	faul	1	acq_USpleas_CSpleas1_RW	acq4567_RW	5	33	400	0	300	300	244	50	0	1	1	blank2r.bmp	0	1	+	0	1	blank2r.bmp	492	1	BZZB	492	1	blank2r.bmp	572	2	spielen	866	1	!	-1	1	!	-1	0	0	0	0	0	0	0	0	0	0	0	0	0	0	0	0	0	0	0	0	0	0	0	0	0	0	0	0	0	0
071019	11:23:40	11:33:09	568468	5.0.10.0	5_exp_RW	35	Rpleas_acq	CS_B	BZZB	GWWG	MQQM	YDDY	VKKV	JXXJ	retten	spielen	treu	schön	ehrlich	fair	rächen	strafen	tot	schlecht	eitel	faul	1	acq_USpleas_CSpleas2_RW	acq4567_RW	5	34	400	0	300	300	303	50	0	1	1	blank2r.bmp	0	1	+	0	1	blank2r.bmp	492	1	GWWG	492	1	blank2r.bmp	572	2	ehrlich	866	1	!	-1	1	!	-1	0	0	0	0	0	0	0	0	0	0	0	0	0	0	0	0	0	0	0	0	0	0	0	0	0	0	0	0	0	0
071019	11:23:40	11:33:11	570654	5.0.10.0	5_exp_RW	35	Rpleas_acq	CS_B	BZZB	GWWG	MQQM	YDDY	VKKV	JXXJ	retten	spielen	treu	schön	ehrlich	fair	rächen	strafen	tot	schlecht	eitel	faul	1	acq_USpleas_CSpleas1_RW	acq4567_RW	5	35	400	1	300	300	381	46	0	0	1	blank2r.bmp	0	1	+	0	1	blank2r.bmp	492	1	BZZB	492	1	blank2r.bmp	572	3	treu	866	1	!	1239	1	!	1279	0	0	0	0	0	0	0	0	0	0	0	0	0	0	0	0	0	0	0	0	0	0	0	0	0	0	0	0	0	0
071019	11:23:40	11:33:13	572666	5.0.10.0	5_exp_RW	35	Rpleas_acq	CS_B	BZZB	GWWG	MQQM	YDDY	VKKV	JXXJ	retten	spielen	treu	schön	ehrlich	fair	rächen	strafen	tot	schlecht	eitel	faul	1	acq_USunple_CSunple1_RW	acq4567_RW	5	36	400	0	300	300	240	50	0	0	1	blank2r.bmp	0	1	+	0	1	blank2r.bmp	492	1	MQQM	492	1	blank2r.bmp	572	2	strafen	866	1	!	-1	1	!	-1	0	0	0	0	0	0	0	0	0	0	0	0	0	0	0	0	0	0	0	0	0	0	0	0	0	0	0	0	0	0
071019	11:23:40	11:33:18	577611	5.0.10.0	5_exp_RW	35	Rpleas_acq	CS_B	BZZB	GWWG	MQQM	YDDY	VKKV	JXXJ	retten	spielen	treu	schön	ehrlich	fair	rächen	strafen	tot	schlecht	eitel	faul	1	acq_USunple_CSunple2_RW	acq4567_RW	5	37	400	0	300	300	3157	46	0	1	1	blank2r.bmp	0	1	+	0	1	blank2r.bmp	492	1	YDDY	492	1	blank2r.bmp	572	1	schlecht	866	1	!	1239	1	!	-1	0	0	0	0	0	0	0	0	0	0	0	0	0	0	0	0	0	0	0	0	0	0	0	0	0	0	0	0	0	0
071019	11:23:40	11:33:20	579917	5.0.10.0	5_exp_RW	35	Rpleas_acq	CS_B	BZZB	GWWG	MQQM	YDDY	VKKV	JXXJ	retten	spielen	treu	schön	ehrlich	fair	rächen	strafen	tot	schlecht	eitel	faul	1	acq_USpleas_CSpleas1_RW	acq4567_RW	5	38	400	0	300	300	520	50	0	1	1	blank2r.bmp	0	1	+	0	1	blank2r.bmp	492	1	BZZB	492	1	blank2r.bmp	572	1	retten	866	1	!	1239	1	!	-1	0	0	0	0	0	0	0	0	0	0	0	0	0	0	0	0	0	0	0	0	0	0	0	0	0	0	0	0	0	0
071019	11:23:40	11:33:23	582102	5.0.10.0	5_exp_RW	35	Rpleas_acq	CS_B	BZZB	GWWG	MQQM	YDDY	VKKV	JXXJ	retten	spielen	treu	schön	ehrlich	fair	rächen	strafen	tot	schlecht	eitel	faul	1	acq_USpleas_CSpleas2_RW	acq4567_RW	5	39	400	1	300	300	374	50	0	1	1	blank2r.bmp	0	1	+	0	1	blank2r.bmp	492	1	GWWG	492	1	blank2r.bmp	572	1	schön	866	1	!	1239	1	!	1279	0	0	0	0	0	0	0	0	0	0	0	0	0	0	0	0	0	0	0	0	0	0	0	0	0	0	0	0	0	0
071019	11:23:40	11:33:25	584182	5.0.10.0	5_exp_RW	35	Rpleas_acq	CS_B	BZZB	GWWG	MQQM	YDDY	VKKV	JXXJ	retten	spielen	treu	schön	ehrlich	fair	rächen	strafen	tot	schlecht	eitel	faul	1	acq_USunple_CSunple2_RW	acq4567_RW	5	40	400	0	300	300	313	46	0	1	1	blank2r.bmp	0	1	+	0	1	blank2r.bmp	492	1	YDDY	492	1	blank2r.bmp	572	3	faul	866	1	!	-1	1	!	-1	0	0	0	0	0	0	0	0	0	0	0	0	0	0	0	0	0	0	0	0	0	0	0	0	0	0	0	0	0	0
071019	11:23:40	11:33:27	586394	5.0.10.0	5_exp_RW	35	Rpleas_acq	CS_B	BZZB	GWWG	MQQM	YDDY	VKKV	JXXJ	retten	spielen	treu	schön	ehrlich	fair	rächen	strafen	tot	schlecht	eitel	faul	1	acq_USpleas_CSpleas2_RW	acq4567_RW	5	41	400	1	300	300	399	50	0	1	1	blank2r.bmp	0	1	+	0	1	blank2r.bmp	492	1	GWWG	492	1	blank2r.bmp	572	3	fair	866	1	!	1239	1	!	1306	0	0	0	0	0	0	0	0	0	0	0	0	0	0	0	0	0	0	0	0	0	0	0	0	0	0	0	0	0	0
071019	11:23:40	11:33:29	588500	5.0.10.0	5_exp_RW	35	Rpleas_acq	CS_B	BZZB	GWWG	MQQM	YDDY	VKKV	JXXJ	retten	spielen	treu	schön	ehrlich	fair	rächen	strafen	tot	schlecht	eitel	faul	1	acq_USpleas_CSpleas1_RW	acq4567_RW	5	42	400	0	300	300	333	46	0	0	1	blank2r.bmp	0	1	+	0	1	blank2r.bmp	492	1	BZZB	492	1	blank2r.bmp	572	3	treu	866	1	!	-1	1	!	-1	0	0	0	0	0	0	0	0	0	0	0	0	0	0	0	0	0	0	0	0	0	0	0	0	0	0	0	0	0	0
071019	11:23:40	11:33:31	590805	5.0.10.0	5_exp_RW	35	Rpleas_acq	CS_B	BZZB	GWWG	MQQM	YDDY	VKKV	JXXJ	retten	spielen	treu	schön	ehrlich	fair	rächen	strafen	tot	schlecht	eitel	faul	1	acq_USunple_CSunple2_RW	acq4567_RW	5	43	400	0	300	300	530	46	0	1	1	blank2r.bmp	0	1	+	0	1	blank2r.bmp	492	1	YDDY	492	1	blank2r.bmp	572	1	schlecht	866	1	!	1239	1	!	-1	0	0	0	0	0	0	0	0	0	0	0	0	0	0	0	0	0	0	0	0	0	0	0	0	0	0	0	0	0	0
071019	11:23:40	11:33:34	592991	5.0.10.0	5_exp_RW	35	Rpleas_acq	CS_B	BZZB	GWWG	MQQM	YDDY	VKKV	JXXJ	retten	spielen	treu	schön	ehrlich	fair	rächen	strafen	tot	schlecht	eitel	faul	1	acq_USunple_CSunple1_RW	acq4567_RW	5	44	400	1	300	300	381	46	0	1	1	blank2r.bmp	0	1	+	0	1	blank2r.bmp	492	1	MQQM	492	1	blank2r.bmp	572	3	tot	866	1	!	1239	1	!	1279	0	0	0	0	0	0	0	0	0	0	0	0	0	0	0	0	0	0	0	0	0	0	0	0	0	0	0	0	0	0
071019	11:23:40	11:33:36	595244	5.0.10.0	5_exp_RW	35	Rpleas_acq	CS_B	BZZB	GWWG	MQQM	YDDY	VKKV	JXXJ	retten	spielen	treu	schön	ehrlich	fair	rächen	strafen	tot	schlecht	eitel	faul	1	acq_USpleas_CSpleas1_RW	acq4567_RW	5	45	400	1	300	300	458	50	0	1	1	blank2r.bmp	0	1	+	0	1	blank2r.bmp	492	1	BZZB	492	1	blank2r.bmp	572	2	spielen	866	1	!	1239	1	!	1359	0	0	0	0	0	0	0	0	0	0	0	0	0	0	0	0	0	0	0	0	0	0	0	0	0	0	0	0	0	0
071019	11:23:40	11:33:38	597509	5.0.10.0	5_exp_RW	35	Rpleas_acq	CS_B	BZZB	GWWG	MQQM	YDDY	VKKV	JXXJ	retten	spielen	treu	schön	ehrlich	fair	rächen	strafen	tot	schlecht	eitel	faul	1	acq_USpleas_CSpleas2_RW	acq4567_RW	5	46	400	1	300	300	454	50	0	1	1	blank2r.bmp	0	1	+	0	1	blank2r.bmp	492	1	GWWG	492	1	blank2r.bmp	572	2	ehrlich	866	1	!	1239	1	!	1359	0	0	0	0	0	0	0	0	0	0	0	0	0	0	0	0	0	0	0	0	0	0	0	0	0	0	0	0	0	0
071019	11:23:40	11:33:40	599762	5.0.10.0	5_exp_RW	35	Rpleas_acq	CS_B	BZZB	GWWG	MQQM	YDDY	VKKV	JXXJ	retten	spielen	treu	schön	ehrlich	fair	rächen	strafen	tot	schlecht	eitel	faul	1	acq_USpleas_CSpleas2_RW	acq4567_RW	5	47	400	0	300	300	486	50	0	1	1	blank2r.bmp	0	1	+	0	1	blank2r.bmp	492	1	GWWG	492	1	blank2r.bmp	572	3	fair	866	1	!	1239	1	!	-1	0	0	0	0	0	0	0	0	0	0	0	0	0	0	0	0	0	0	0	0	0	0	0	0	0	0	0	0	0	0
071019	11:23:40	11:33:42	601828	5.0.10.0	5_exp_RW	35	Rpleas_acq	CS_B	BZZB	GWWG	MQQM	YDDY	VKKV	JXXJ	retten	spielen	treu	schön	ehrlich	fair	rächen	strafen	tot	schlecht	eitel	faul	1	acq_USunple_CSunple2_RW	acq4567_RW	5	48	400	0	300	300	291	50	0	0	1	blank2r.bmp	0	1	+	0	1	blank2r.bmp	492	1	YDDY	492	1	blank2r.bmp	572	2	eitel	866	1	!	-1	1	!	-1	0	0	0	0	0	0	0	0	0	0	0	0	0	0	0	0	0	0	0	0	0	0	0	0	0	0	0	0	0	0
071019	11:23:40	11:33:45	604000	5.0.10.0	5_exp_RW	35	Rpleas_acq	CS_B	BZZB	GWWG	MQQM	YDDY	VKKV	JXXJ	retten	spielen	treu	schön	ehrlich	fair	rächen	strafen	tot	schlecht	eitel	faul	1	acq_USunple_CSunple2_RW	acq4567_RW	5	49	400	1	300	300	350	50	0	0	1	blank2r.bmp	0	1	+	0	1	blank2r.bmp	492	1	YDDY	492	1	blank2r.bmp	572	1	schlecht	866	1	!	1239	1	!	1252	0	0	0	0	0	0	0	0	0	0	0	0	0	0	0	0	0	0	0	0	0	0	0	0	0	0	0	0	0	0
071019	11:23:40	11:33:47	606186	5.0.10.0	5_exp_RW	35	Rpleas_acq	CS_B	BZZB	GWWG	MQQM	YDDY	VKKV	JXXJ	retten	spielen	treu	schön	ehrlich	fair	rächen	strafen	tot	schlecht	eitel	faul	1	acq_USpleas_CSpleas1_RW	acq4567_RW	5	50	400	1	300	300	385	50	0	1	1	blank2r.bmp	0	1	+	0	1	blank2r.bmp	492	1	BZZB	492	1	blank2r.bmp	572	1	retten	866	1	!	1239	1	!	1292	0	0	0	0	0	0	0	0	0	0	0	0	0	0	0	0	0	0	0	0	0	0	0	0	0	0	0	0	0	0
071019	11:23:40	11:33:49	608385	5.0.10.0	5_exp_RW	35	Rpleas_acq	CS_B	BZZB	GWWG	MQQM	YDDY	VKKV	JXXJ	retten	spielen	treu	schön	ehrlich	fair	rächen	strafen	tot	schlecht	eitel	faul	1	acq_USpleas_CSpleas2_RW	acq4567_RW	5	51	400	1	300	300	399	50	0	1	1	blank2r.bmp	0	1	+	0	1	blank2r.bmp	492	1	GWWG	492	1	blank2r.bmp	572	2	ehrlich	866	1	!	1239	1	!	1306	0	0	0	0	0	0	0	0	0	0	0	0	0	0	0	0	0	0	0	0	0	0	0	0	0	0	0	0	0	0
071019	11:23:40	11:33:51	610584	5.0.10.0	5_exp_RW	35	Rpleas_acq	CS_B	BZZB	GWWG	MQQM	YDDY	VKKV	JXXJ	retten	spielen	treu	schön	ehrlich	fair	rächen	strafen	tot	schlecht	eitel	faul	1	acq_USpleas_CSpleas1_RW	acq4567_RW	5	52	400	1	300	300	409	50	0	1	1	blank2r.bmp	0	1	+	0	1	blank2r.bmp	492	1	BZZB	492	1	blank2r.bmp	572	3	treu	866	1	!	1239	1	!	1306	0	0	0	0	0	0	0	0	0	0	0	0	0	0	0	0	0	0	0	0	0	0	0	0	0	0	0	0	0	0
071019	11:23:40	11:33:53	612796	5.0.10.0	5_exp_RW	35	Rpleas_acq	CS_B	BZZB	GWWG	MQQM	YDDY	VKKV	JXXJ	retten	spielen	treu	schön	ehrlich	fair	rächen	strafen	tot	schlecht	eitel	faul	1	acq_USunple_CSunple1_RW	acq4567_RW	5	53	400	1	300	300	415	50	0	0	1	blank2r.bmp	0	1	+	0	1	blank2r.bmp	492	1	MQQM	492	1	blank2r.bmp	572	1	rächen	866	1	!	1239	1	!	1319	0	0	0	0	0	0	0	0	0	0	0	0	0	0	0	0	0	0	0	0	0	0	0	0	0	0	0	0	0	0
071019	11:23:40	11:33:56	614982	5.0.10.0	5_exp_RW	35	Rpleas_acq	CS_B	BZZB	GWWG	MQQM	YDDY	VKKV	JXXJ	retten	spielen	treu	schön	ehrlich	fair	rächen	strafen	tot	schlecht	eitel	faul	1	acq_USunple_CSunple2_RW	acq4567_RW	5	54	400	1	300	300	387	50	0	0	1	blank2r.bmp	0	1	+	0	1	blank2r.bmp	492	1	YDDY	492	1	blank2r.bmp	572	2	eitel	866	1	!	1239	1	!	1292	0	0	0	0	0	0	0	0	0	0	0	0	0	0	0	0	0	0	0	0	0	0	0	0	0	0	0	0	0	0
071019	11:23:40	11:33:58	617208	5.0.10.0	5_exp_RW	35	Rpleas_acq	CS_B	BZZB	GWWG	MQQM	YDDY	VKKV	JXXJ	retten	spielen	treu	schön	ehrlich	fair	rächen	strafen	tot	schlecht	eitel	faul	1	acq_USunple_CSunple1_RW	acq4567_RW	5	55	400	1	300	300	429	46	0	1	1	blank2r.bmp	0	1	+	0	1	blank2r.bmp	492	1	MQQM	492	1	blank2r.bmp	572	2	strafen	866	1	!	1239	1	!	1332	0	0	0	0	0	0	0	0	0	0	0	0	0	0	0	0	0	0	0	0	0	0	0	0	0	0	0	0	0	0
071019	11:23:40	11:34:00	619473	5.0.10.0	5_exp_RW	35	Rpleas_acq	CS_B	BZZB	GWWG	MQQM	YDDY	VKKV	JXXJ	retten	spielen	treu	schön	ehrlich	fair	rächen	strafen	tot	schlecht	eitel	faul	1	acq_USpleas_CSpleas1_RW	acq4567_RW	5	56	400	0	300	300	479	50	0	1	1	blank2r.bmp	0	1	+	0	1	blank2r.bmp	492	1	BZZB	492	1	blank2r.bmp	572	2	spielen	866	1	!	1239	1	!	-1	0	0	0	0	0	0	0	0	0	0	0	0	0	0	0	0	0	0	0	0	0	0	0	0	0	0	0	0	0	0
071019	11:23:40	11:34:02	621712	5.0.10.0	5_exp_RW	35	Rpleas_acq	CS_B	BZZB	GWWG	MQQM	YDDY	VKKV	JXXJ	retten	spielen	treu	schön	ehrlich	fair	rächen	strafen	tot	schlecht	eitel	faul	1	acq_USunple_CSunple2_RW	acq4567_RW	5	57	400	1	300	300	436	46	0	1	1	blank2r.bmp	0	1	+	0	1	blank2r.bmp	492	1	YDDY	492	1	blank2r.bmp	572	3	faul	866	1	!	1239	1	!	1332	0	0	0	0	0	0	0	0	0	0	0	0	0	0	0	0	0	0	0	0	0	0	0	0	0	0	0	0	0	0
071019	11:23:40	11:34:05	624005	5.0.10.0	5_exp_RW	35	Rpleas_acq	CS_B	BZZB	GWWG	MQQM	YDDY	VKKV	JXXJ	retten	spielen	treu	schön	ehrlich	fair	rächen	strafen	tot	schlecht	eitel	faul	1	acq_USunple_CSunple1_RW	acq4567_RW	5	58	400	0	300	300	525	46	0	1	1	blank2r.bmp	0	1	+	0	1	blank2r.bmp	492	1	MQQM	492	1	blank2r.bmp	572	1	rächen	866	1	!	1239	1	!	-1	0	0	0	0	0	0	0	0	0	0	0	0	0	0	0	0	0	0	0	0	0	0	0	0	0	0	0	0	0	0
071019	11:23:40	11:34:07	626244	5.0.10.0	5_exp_RW	35	Rpleas_acq	CS_B	BZZB	GWWG	MQQM	YDDY	VKKV	JXXJ	retten	spielen	treu	schön	ehrlich	fair	rächen	strafen	tot	schlecht	eitel	faul	1	acq_USpleas_CSpleas2_RW	acq4567_RW	5	59	400	1	300	300	434	50	0	1	1	blank2r.bmp	0	1	+	0	1	blank2r.bmp	492	1	GWWG	492	1	blank2r.bmp	572	1	schön	866	1	!	1239	1	!	1332	0	0	0	0	0	0	0	0	0	0	0	0	0	0	0	0	0	0	0	0	0	0	0	0	0	0	0	0	0	0
071019	11:23:40	11:34:09	628430	5.0.10.0	5_exp_RW	35	Rpleas_acq	CS_B	BZZB	GWWG	MQQM	YDDY	VKKV	JXXJ	retten	spielen	treu	schön	ehrlich	fair	rächen	strafen	tot	schlecht	eitel	faul	1	acq_USunple_CSunple1_RW	acq4567_RW	5	60	400	1	300	300	385	46	0	1	1	blank2r.bmp	0	1	+	0	1	blank2r.bmp	492	1	MQQM	492	1	blank2r.bmp	572	3	tot	866	1	!	1239	1	!	1292	0	0	0	0	0	0	0	0	0	0	0	0	0	0	0	0	0	0	0	0	0	0	0	0	0	0	0	0	0	0
071019	11:23:40	11:34:11	630669	5.0.10.0	5_exp_RW	35	Rpleas_acq	CS_B	BZZB	GWWG	MQQM	YDDY	VKKV	JXXJ	retten	spielen	treu	schön	ehrlich	fair	rächen	strafen	tot	schlecht	eitel	faul	1	acq_USpleas_CSpleas2_RW	acq4567_RW	5	61	400	1	300	300	439	50	0	1	1	blank2r.bmp	0	1	+	0	1	blank2r.bmp	492	1	GWWG	492	1	blank2r.bmp	572	3	fair	866	1	!	1239	1	!	1346	0	0	0	0	0	0	0	0	0	0	0	0	0	0	0	0	0	0	0	0	0	0	0	0	0	0	0	0	0	0
071019	11:23:40	11:34:13	632735	5.0.10.0	5_exp_RW	35	Rpleas_acq	CS_B	BZZB	GWWG	MQQM	YDDY	VKKV	JXXJ	retten	spielen	treu	schön	ehrlich	fair	rächen	strafen	tot	schlecht	eitel	faul	1	acq_USunple_CSunple2_RW	acq4567_RW	5	62	400	0	300	300	293	50	0	0	1	blank2r.bmp	0	1	+	0	1	blank2r.bmp	492	1	YDDY	492	1	blank2r.bmp	572	1	schlecht	866	1	!	-1	1	!	-1	0	0	0	0	0	0	0	0	0	0	0	0	0	0	0	0	0	0	0	0	0	0	0	0	0	0	0	0	0	0
071019	11:23:40	11:34:15	634827	5.0.10.0	5_exp_RW	35	Rpleas_acq	CS_B	BZZB	GWWG	MQQM	YDDY	VKKV	JXXJ	retten	spielen	treu	schön	ehrlich	fair	rächen	strafen	tot	schlecht	eitel	faul	1	acq_USunple_CSunple1_RW	acq4567_RW	5	63	400	0	300	300	313	46	0	1	1	blank2r.bmp	0	1	+	0	1	blank2r.bmp	492	1	MQQM	492	1	blank2r.bmp	572	3	tot	866	1	!	-1	1	!	-1	0	0	0	0	0	0	0	0	0	0	0	0	0	0	0	0	0	0	0	0	0	0	0	0	0	0	0	0	0	0
071019	11:23:40	11:34:17	636893	5.0.10.0	5_exp_RW	35	Rpleas_acq	CS_B	BZZB	GWWG	MQQM	YDDY	VKKV	JXXJ	retten	spielen	treu	schön	ehrlich	fair	rächen	strafen	tot	schlecht	eitel	faul	1	acq_USunple_CSunple2_RW	acq4567_RW	5	64	400	0	300	300	282	46	0	1	1	blank2r.bmp	0	1	+	0	1	blank2r.bmp	492	1	YDDY	492	1	blank2r.bmp	572	2	eitel	866	1	!	-1	1	!	-1	0	0	0	0	0	0	0	0	0	0	0	0	0	0	0	0	0	0	0	0	0	0	0	0	0	0	0	0	0	0
071019	11:23:40	11:34:20	639159	5.0.10.0	5_exp_RW	35	Rpleas_acq	CS_B	BZZB	GWWG	MQQM	YDDY	VKKV	JXXJ	retten	spielen	treu	schön	ehrlich	fair	rächen	strafen	tot	schlecht	eitel	faul	1	acq_USpleas_CSpleas1_RW	acq4567_RW	5	65	400	1	300	300	452	50	0	1	1	blank2r.bmp	0	1	+	0	1	blank2r.bmp	492	1	BZZB	492	1	blank2r.bmp	572	1	retten	866	1	!	1239	1	!	1359	0	0	0	0	0	0	0	0	0	0	0	0	0	0	0	0	0	0	0	0	0	0	0	0	0	0	0	0	0	0
071019	11:23:40	11:34:22	641251	5.0.10.0	5_exp_RW	35	Rpleas_acq	CS_B	BZZB	GWWG	MQQM	YDDY	VKKV	JXXJ	retten	spielen	treu	schön	ehrlich	fair	rächen	strafen	tot	schlecht	eitel	faul	1	acq_USpleas_CSpleas2_RW	acq4567_RW	5	66	400	0	300	300	325	50	0	1	1	blank2r.bmp	0	1	+	0	1	blank2r.bmp	492	1	GWWG	492	1	blank2r.bmp	572	1	schön	866	1	!	-1	1	!	-1	0	0	0	0	0	0	0	0	0	0	0	0	0	0	0	0	0	0	0	0	0	0	0	0	0	0	0	0	0	0
071019	11:23:40	11:34:24	643477	5.0.10.0	5_exp_RW	35	Rpleas_acq	CS_B	BZZB	GWWG	MQQM	YDDY	VKKV	JXXJ	retten	spielen	treu	schön	ehrlich	fair	rächen	strafen	tot	schlecht	eitel	faul	1	acq_USunple_CSunple1_RW	acq4567_RW	5	67	400	1	300	300	418	46	0	1	1	blank2r.bmp	0	1	+	0	1	blank2r.bmp	492	1	MQQM	492	1	blank2r.bmp	572	2	strafen	866	1	!	1239	1	!	1319	0	0	0	0	0	0	0	0	0	0	0	0	0	0	0	0	0	0	0	0	0	0	0	0	0	0	0	0	0	0
071019	11:23:40	11:34:26	645569	5.0.10.0	5_exp_RW	35	Rpleas_acq	CS_B	BZZB	GWWG	MQQM	YDDY	VKKV	JXXJ	retten	spielen	treu	schön	ehrlich	fair	rächen	strafen	tot	schlecht	eitel	faul	1	acq_USpleas_CSpleas2_RW	acq4567_RW	5	68	400	0	300	300	307	46	0	0	1	blank2r.bmp	0	1	+	0	1	blank2r.bmp	492	1	GWWG	492	1	blank2r.bmp	572	2	ehrlich	866	1	!	-1	1	!	-1	0	0	0	0	0	0	0	0	0	0	0	0	0	0	0	0	0	0	0	0	0	0	0	0	0	0	0	0	0	0
071019	11:23:40	11:34:28	647688	5.0.10.0	5_exp_RW	35	Rpleas_acq	CS_B	BZZB	GWWG	MQQM	YDDY	VKKV	JXXJ	retten	spielen	treu	schön	ehrlich	fair	rächen	strafen	tot	schlecht	eitel	faul	1	acq_USpleas_CSpleas2_RW	acq4567_RW	5	69	400	0	300	300	320	50	0	1	1	blank2r.bmp	0	1	+	0	1	blank2r.bmp	492	1	GWWG	492	1	blank2r.bmp	572	3	fair	866	1	!	-1	1	!	-1	0	0	0	0	0	0	0	0	0	0	0	0	0	0	0	0	0	0	0	0	0	0	0	0	0	0	0	0	0	0
071019	11:23:40	11:34:30	649954	5.0.10.0	5_exp_RW	35	Rpleas_acq	CS_B	BZZB	GWWG	MQQM	YDDY	VKKV	JXXJ	retten	spielen	treu	schön	ehrlich	fair	rächen	strafen	tot	schlecht	eitel	faul	1	acq_USpleas_CSpleas1_RW	acq4567_RW	5	70	400	1	300	300	457	46	0	0	1	blank2r.bmp	0	1	+	0	1	blank2r.bmp	492	1	BZZB	492	1	blank2r.bmp	572	3	treu	866	1	!	1239	1	!	1359	0	0	0	0	0	0	0	0	0	0	0	0	0	0	0	0	0	0	0	0	0	0	0	0	0	0	0	0	0	0
071019	11:23:40	11:34:33	652007	5.0.10.0	5_exp_RW	35	Rpleas_acq	CS_B	BZZB	GWWG	MQQM	YDDY	VKKV	JXXJ	retten	spielen	treu	schön	ehrlich	fair	rächen	strafen	tot	schlecht	eitel	faul	1	acq_USunple_CSunple1_RW	acq4567_RW	5	71	400	0	300	300	290	50	0	0	1	blank2r.bmp	0	1	+	0	1	blank2r.bmp	492	1	MQQM	492	1	blank2r.bmp	572	1	rächen	866	1	!	-1	1	!	-1	0	0	0	0	0	0	0	0	0	0	0	0	0	0	0	0	0	0	0	0	0	0	0	0	0	0	0	0	0	0
071019	11:23:40	11:34:35	654112	5.0.10.0	5_exp_RW	35	Rpleas_acq	CS_B	BZZB	GWWG	MQQM	YDDY	VKKV	JXXJ	retten	spielen	treu	schön	ehrlich	fair	rächen	strafen	tot	schlecht	eitel	faul	1	acq_USpleas_CSpleas1_RW	acq4567_RW	5	72	400	0	300	300	330	50	0	1	1	blank2r.bmp	0	1	+	0	1	blank2r.bmp	492	1	BZZB	492	1	blank2r.bmp	572	2	spielen	866	1	!	-1	1	!	-1	0	0	0	0	0	0	0	0	0	0	0	0	0	0	0	0	0	0	0	0	0	0	0	0	0	0	0	0	0	0
071019	11:23:40	11:34:37	656271	5.0.10.0	5_exp_RW	35	Rpleas_acq	CS_B	BZZB	GWWG	MQQM	YDDY	VKKV	JXXJ	retten	spielen	treu	schön	ehrlich	fair	rächen	strafen	tot	schlecht	eitel	faul	1	acq_USunple_CSunple2_RW	acq4567_RW	5	73	400	1	300	300	347	46	0	1	1	blank2r.bmp	0	1	+	0	1	blank2r.bmp	492	1	YDDY	492	1	blank2r.bmp	572	3	faul	866	1	!	1239	1	!	1252	0	0	0	0	0	0	0	0	0	0	0	0	0	0	0	0	0	0	0	0	0	0	0	0	0	0	0	0	0	0
071019	11:23:40	11:34:39	658684	5.0.10.0	5_exp_RW	35	Rpleas_acq	CS_B	BZZB	GWWG	MQQM	YDDY	VKKV	JXXJ	retten	spielen	treu	schön	ehrlich	fair	rächen	strafen	tot	schlecht	eitel	faul	1	acq_USunple_CSunple2_RW	acq4567_RW	5	74	400	0	300	300	639	46	0	1	1	blank2r.bmp	0	1	+	0	1	blank2r.bmp	492	1	YDDY	492	1	blank2r.bmp	572	3	faul	866	1	!	1239	1	!	-1	0	0	0	0	0	0	0	0	0	0	0	0	0	0	0	0	0	0	0	0	0	0	0	0	0	0	0	0	0	0
071019	11:23:40	11:34:41	660883	5.0.10.0	5_exp_RW	35	Rpleas_acq	CS_B	BZZB	GWWG	MQQM	YDDY	VKKV	JXXJ	retten	spielen	treu	schön	ehrlich	fair	rächen	strafen	tot	schlecht	eitel	faul	1	acq_USunple_CSunple1_RW	acq4567_RW	5	75	400	1	300	300	394	46	0	1	1	blank2r.bmp	0	1	+	0	1	blank2r.bmp	492	1	MQQM	492	1	blank2r.bmp	572	3	tot	866	1	!	1239	1	!	1292	0	0	0	0	0	0	0	0	0	0	0	0	0	0	0	0	0	0	0	0	0	0	0	0	0	0	0	0	0	0
071019	11:23:40	11:34:44	663069	5.0.10.0	5_exp_RW	35	Rpleas_acq	CS_B	BZZB	GWWG	MQQM	YDDY	VKKV	JXXJ	retten	spielen	treu	schön	ehrlich	fair	rächen	strafen	tot	schlecht	eitel	faul	1	acq_USpleas_CSpleas1_RW	acq4567_RW	5	76	400	1	300	300	392	46	0	0	1	blank2r.bmp	0	1	+	0	1	blank2r.bmp	492	1	BZZB	492	1	blank2r.bmp	572	3	treu	866	1	!	1239	1	!	1292	0	0	0	0	0	0	0	0	0	0	0	0	0	0	0	0	0	0	0	0	0	0	0	0	0	0	0	0	0	0
071019	11:23:40	11:34:46	665161	5.0.10.0	5_exp_RW	35	Rpleas_acq	CS_B	BZZB	GWWG	MQQM	YDDY	VKKV	JXXJ	retten	spielen	treu	schön	ehrlich	fair	rächen	strafen	tot	schlecht	eitel	faul	1	acq_USpleas_CSpleas1_RW	acq4567_RW	5	77	400	0	300	300	319	50	0	1	1	blank2r.bmp	0	1	+	0	1	blank2r.bmp	492	1	BZZB	492	1	blank2r.bmp	572	2	spielen	866	1	!	-1	1	!	-1	0	0	0	0	0	0	0	0	0	0	0	0	0	0	0	0	0	0	0	0	0	0	0	0	0	0	0	0	0	0
071019	11:23:40	11:34:50	669959	5.0.10.0	5_exp_RW	35	Rpleas_acq	CS_B	BZZB	GWWG	MQQM	YDDY	VKKV	JXXJ	retten	spielen	treu	schön	ehrlich	fair	rächen	strafen	tot	schlecht	eitel	faul	1	acq_USpleas_CSpleas2_RW	acq4567_RW	5	78	400	0	300	300	3011	50	0	1	1	blank2r.bmp	0	1	+	0	1	blank2r.bmp	492	1	GWWG	492	1	blank2r.bmp	572	1	schön	866	1	!	1239	1	!	-1	0	0	0	0	0	0	0	0	0	0	0	0	0	0	0	0	0	0	0	0	0	0	0	0	0	0	0	0	0	0
071019	11:23:40	11:34:53	672211	5.0.10.0	5_exp_RW	35	Rpleas_acq	CS_B	BZZB	GWWG	MQQM	YDDY	VKKV	JXXJ	retten	spielen	treu	schön	ehrlich	fair	rächen	strafen	tot	schlecht	eitel	faul	1	acq_USunple_CSunple2_RW	acq4567_RW	5	79	400	1	300	300	444	46	0	1	1	blank2r.bmp	0	1	+	0	1	blank2r.bmp	492	1	YDDY	492	1	blank2r.bmp	572	2	eitel	866	1	!	1239	1	!	1346	0	0	0	0	0	0	0	0	0	0	0	0	0	0	0	0	0	0	0	0	0	0	0	0	0	0	0	0	0	0
071019	11:23:40	11:34:55	674370	5.0.10.0	5_exp_RW	35	Rpleas_acq	CS_B	BZZB	GWWG	MQQM	YDDY	VKKV	JXXJ	retten	spielen	treu	schön	ehrlich	fair	rächen	strafen	tot	schlecht	eitel	faul	1	acq_USunple_CSunple1_RW	acq4567_RW	5	80	400	1	300	300	346	46	0	1	1	blank2r.bmp	0	1	+	0	1	blank2r.bmp	492	1	MQQM	492	1	blank2r.bmp	572	1	rächen	866	1	!	1239	1	!	1252	0	0	0	0	0	0	0	0	0	0	0	0	0	0	0	0	0	0	0	0	0	0	0	0	0	0	0	0	0	0
071019	11:23:40	11:35:10	689044	5.0.10.0	5_exp_RW	35	Rpleas_acq	CS_B	BZZB	GWWG	MQQM	YDDY	VKKV	JXXJ	retten	spielen	treu	schön	ehrlich	fair	rächen	strafen	tot	schlecht	eitel	faul	1	acq_USunple_CSunple1_RW	acq4567_RW	6	1	400	0	300	300	6336	50	0	0	1	blank2r.bmp	0	1	+	0	1	blank2r.bmp	492	1	MQQM	492	1	blank2r.bmp	572	2	strafen	866	1	!	1239	1	!	-1	0	0	0	0	0	0	0	0	0	0	0	0	0	0	0	0	0	0	0	0	0	0	0	0	0	0	0	0	0	0
071019	11:23:40	11:35:12	691283	5.0.10.0	5_exp_RW	35	Rpleas_acq	CS_B	BZZB	GWWG	MQQM	YDDY	VKKV	JXXJ	retten	spielen	treu	schön	ehrlich	fair	rächen	strafen	tot	schlecht	eitel	faul	1	acq_USpleas_CSpleas2_RW	acq4567_RW	6	2	400	1	300	300	434	46	0	0	1	blank2r.bmp	0	1	+	0	1	blank2r.bmp	492	1	GWWG	492	1	blank2r.bmp	572	2	ehrlich	866	1	!	1239	1	!	1332	0	0	0	0	0	0	0	0	0	0	0	0	0	0	0	0	0	0	0	0	0	0	0	0	0	0	0	0	0	0
071019	11:23:40	11:35:14	693363	5.0.10.0	5_exp_RW	35	Rpleas_acq	CS_B	BZZB	GWWG	MQQM	YDDY	VKKV	JXXJ	retten	spielen	treu	schön	ehrlich	fair	rächen	strafen	tot	schlecht	eitel	faul	1	acq_USunple_CSunple2_RW	acq4567_RW	6	3	400	0	300	300	313	50	0	0	1	blank2r.bmp	0	1	+	0	1	blank2r.bmp	492	1	YDDY	492	1	blank2r.bmp	572	1	schlecht	866	1	!	-1	1	!	-1	0	0	0	0	0	0	0	0	0	0	0	0	0	0	0	0	0	0	0	0	0	0	0	0	0	0	0	0	0	0
071019	11:23:40	11:35:16	695682	5.0.10.0	5_exp_RW	35	Rpleas_acq	CS_B	BZZB	GWWG	MQQM	YDDY	VKKV	JXXJ	retten	spielen	treu	schön	ehrlich	fair	rächen	strafen	tot	schlecht	eitel	faul	1	acq_USunple_CSunple2_RW	acq4567_RW	6	4	400	0	300	300	539	46	0	1	1	blank2r.bmp	0	1	+	0	1	blank2r.bmp	492	1	YDDY	492	1	blank2r.bmp	572	2	eitel	866	1	!	1239	1	!	-1	0	0	0	0	0	0	0	0	0	0	0	0	0	0	0	0	0	0	0	0	0	0	0	0	0	0	0	0	0	0
071019	11:23:40	11:35:18	697907	5.0.10.0	5_exp_RW	35	Rpleas_acq	CS_B	BZZB	GWWG	MQQM	YDDY	VKKV	JXXJ	retten	spielen	treu	schön	ehrlich	fair	rächen	strafen	tot	schlecht	eitel	faul	1	acq_USunple_CSunple1_RW	acq4567_RW	6	5	400	1	300	300	415	46	0	1	1	blank2r.bmp	0	1	+	0	1	blank2r.bmp	492	1	MQQM	492	1	blank2r.bmp	572	3	tot	866	1	!	1239	1	!	1319	0	0	0	0	0	0	0	0	0	0	0	0	0	0	0	0	0	0	0	0	0	0	0	0	0	0	0	0	0	0
071019	11:23:40	11:35:21	700120	5.0.10.0	5_exp_RW	35	Rpleas_acq	CS_B	BZZB	GWWG	MQQM	YDDY	VKKV	JXXJ	retten	spielen	treu	schön	ehrlich	fair	rächen	strafen	tot	schlecht	eitel	faul	1	acq_USpleas_CSpleas2_RW	acq4567_RW	6	6	400	1	300	300	424	50	0	1	1	blank2r.bmp	0	1	+	0	1	blank2r.bmp	492	1	GWWG	492	1	blank2r.bmp	572	1	schön	866	1	!	1239	1	!	1319	0	0	0	0	0	0	0	0	0	0	0	0	0	0	0	0	0	0	0	0	0	0	0	0	0	0	0	0	0	0
071019	11:23:40	11:35:23	702319	5.0.10.0	5_exp_RW	35	Rpleas_acq	CS_B	BZZB	GWWG	MQQM	YDDY	VKKV	JXXJ	retten	spielen	treu	schön	ehrlich	fair	rächen	strafen	tot	schlecht	eitel	faul	1	acq_USpleas_CSpleas2_RW	acq4567_RW	6	7	400	1	300	300	400	46	0	0	1	blank2r.bmp	0	1	+	0	1	blank2r.bmp	492	1	GWWG	492	1	blank2r.bmp	572	3	fair	866	1	!	1239	1	!	1306	0	0	0	0	0	0	0	0	0	0	0	0	0	0	0	0	0	0	0	0	0	0	0	0	0	0	0	0	0	0
071019	11:23:40	11:35:25	704411	5.0.10.0	5_exp_RW	35	Rpleas_acq	CS_B	BZZB	GWWG	MQQM	YDDY	VKKV	JXXJ	retten	spielen	treu	schön	ehrlich	fair	rächen	strafen	tot	schlecht	eitel	faul	1	acq_USpleas_CSpleas2_RW	acq4567_RW	6	8	400	0	300	300	327	50	0	1	1	blank2r.bmp	0	1	+	0	1	blank2r.bmp	492	1	GWWG	492	1	blank2r.bmp	572	2	ehrlich	866	1	!	-1	1	!	-1	0	0	0	0	0	0	0	0	0	0	0	0	0	0	0	0	0	0	0	0	0	0	0	0	0	0	0	0	0	0
071019	11:23:40	11:35:27	706610	5.0.10.0	5_exp_RW	35	Rpleas_acq	CS_B	BZZB	GWWG	MQQM	YDDY	VKKV	JXXJ	retten	spielen	treu	schön	ehrlich	fair	rächen	strafen	tot	schlecht	eitel	faul	1	acq_USpleas_CSpleas1_RW	acq4567_RW	6	9	400	1	300	300	396	50	0	1	1	blank2r.bmp	0	1	+	0	1	blank2r.bmp	492	1	BZZB	492	1	blank2r.bmp	572	1	retten	866	1	!	1239	1	!	1292	0	0	0	0	0	0	0	0	0	0	0	0	0	0	0	0	0	0	0	0	0	0	0	0	0	0	0	0	0	0
071019	11:23:40	11:35:29	708783	5.0.10.0	5_exp_RW	35	Rpleas_acq	CS_B	BZZB	GWWG	MQQM	YDDY	VKKV	JXXJ	retten	spielen	treu	schön	ehrlich	fair	rächen	strafen	tot	schlecht	eitel	faul	1	acq_USunple_CSunple1_RW	acq4567_RW	6	10	400	1	300	300	360	50	0	0	1	blank2r.bmp	0	1	+	0	1	blank2r.bmp	492	1	MQQM	492	1	blank2r.bmp	572	1	rächen	866	1	!	1239	1	!	1266	0	0	0	0	0	0	0	0	0	0	0	0	0	0	0	0	0	0	0	0	0	0	0	0	0	0	0	0	0	0
071019	11:23:40	11:35:31	710862	5.0.10.0	5_exp_RW	35	Rpleas_acq	CS_B	BZZB	GWWG	MQQM	YDDY	VKKV	JXXJ	retten	spielen	treu	schön	ehrlich	fair	rächen	strafen	tot	schlecht	eitel	faul	1	acq_USpleas_CSpleas1_RW	acq4567_RW	6	11	400	0	300	300	308	50	0	1	1	blank2r.bmp	0	1	+	0	1	blank2r.bmp	492	1	BZZB	492	1	blank2r.bmp	572	2	spielen	866	1	!	-1	1	!	-1	0	0	0	0	0	0	0	0	0	0	0	0	0	0	0	0	0	0	0	0	0	0	0	0	0	0	0	0	0	0
071019	11:23:40	11:35:34	713088	5.0.10.0	5_exp_RW	35	Rpleas_acq	CS_B	BZZB	GWWG	MQQM	YDDY	VKKV	JXXJ	retten	spielen	treu	schön	ehrlich	fair	rächen	strafen	tot	schlecht	eitel	faul	1	acq_USpleas_CSpleas2_RW	acq4567_RW	6	12	400	1	300	300	419	50	0	1	1	blank2r.bmp	0	1	+	0	1	blank2r.bmp	492	1	GWWG	492	1	blank2r.bmp	572	1	schön	866	1	!	1239	1	!	1319	0	0	0	0	0	0	0	0	0	0	0	0	0	0	0	0	0	0	0	0	0	0	0	0	0	0	0	0	0	0
071019	11:23:40	11:35:36	715287	5.0.10.0	5_exp_RW	35	Rpleas_acq	CS_B	BZZB	GWWG	MQQM	YDDY	VKKV	JXXJ	retten	spielen	treu	schön	ehrlich	fair	rächen	strafen	tot	schlecht	eitel	faul	1	acq_USunple_CSunple2_RW	acq4567_RW	6	13	400	1	300	300	398	50	0	0	1	blank2r.bmp	0	1	+	0	1	blank2r.bmp	492	1	YDDY	492	1	blank2r.bmp	572	3	faul	866	1	!	1239	1	!	1306	0	0	0	0	0	0	0	0	0	0	0	0	0	0	0	0	0	0	0	0	0	0	0	0	0	0	0	0	0	0
071019	11:23:40	11:35:38	717592	5.0.10.0	5_exp_RW	35	Rpleas_acq	CS_B	BZZB	GWWG	MQQM	YDDY	VKKV	JXXJ	retten	spielen	treu	schön	ehrlich	fair	rächen	strafen	tot	schlecht	eitel	faul	1	acq_USpleas_CSpleas1_RW	acq4567_RW	6	14	400	0	300	300	532	50	0	1	1	blank2r.bmp	0	1	+	0	1	blank2r.bmp	492	1	BZZB	492	1	blank2r.bmp	572	3	treu	866	1	!	1239	1	!	-1	0	0	0	0	0	0	0	0	0	0	0	0	0	0	0	0	0	0	0	0	0	0	0	0	0	0	0	0	0	0
071019	11:23:40	11:35:40	719858	5.0.10.0	5_exp_RW	35	Rpleas_acq	CS_B	BZZB	GWWG	MQQM	YDDY	VKKV	JXXJ	retten	spielen	treu	schön	ehrlich	fair	rächen	strafen	tot	schlecht	eitel	faul	1	acq_USunple_CSunple2_RW	acq4567_RW	6	15	400	1	300	300	461	46	0	1	1	blank2r.bmp	0	1	+	0	1	blank2r.bmp	492	1	YDDY	492	1	blank2r.bmp	572	1	schlecht	866	1	!	1239	1	!	1359	0	0	0	0	0	0	0	0	0	0	0	0	0	0	0	0	0	0	0	0	0	0	0	0	0	0	0	0	0	0
071019	11:23:40	11:35:43	722111	5.0.10.0	5_exp_RW	35	Rpleas_acq	CS_B	BZZB	GWWG	MQQM	YDDY	VKKV	JXXJ	retten	spielen	treu	schön	ehrlich	fair	rächen	strafen	tot	schlecht	eitel	faul	1	acq_USpleas_CSpleas1_RW	acq4567_RW	6	16	400	0	300	300	479	50	0	1	1	blank2r.bmp	0	1	+	0	1	blank2r.bmp	492	1	BZZB	492	1	blank2r.bmp	572	1	retten	866	1	!	1239	1	!	-1	0	0	0	0	0	0	0	0	0	0	0	0	0	0	0	0	0	0	0	0	0	0	0	0	0	0	0	0	0	0
071019	11:23:40	11:35:45	724190	5.0.10.0	5_exp_RW	35	Rpleas_acq	CS_B	BZZB	GWWG	MQQM	YDDY	VKKV	JXXJ	retten	spielen	treu	schön	ehrlich	fair	rächen	strafen	tot	schlecht	eitel	faul	1	acq_USunple_CSunple2_RW	acq4567_RW	6	17	400	0	300	300	297	46	0	1	1	blank2r.bmp	0	1	+	0	1	blank2r.bmp	492	1	YDDY	492	1	blank2r.bmp	572	3	faul	866	1	!	-1	1	!	-1	0	0	0	0	0	0	0	0	0	0	0	0	0	0	0	0	0	0	0	0	0	0	0	0	0	0	0	0	0	0
071019	11:23:40	11:35:47	726429	5.0.10.0	5_exp_RW	35	Rpleas_acq	CS_B	BZZB	GWWG	MQQM	YDDY	VKKV	JXXJ	retten	spielen	treu	schön	ehrlich	fair	rächen	strafen	tot	schlecht	eitel	faul	1	acq_USunple_CSunple1_RW	acq4567_RW	6	18	400	1	300	300	425	50	0	0	1	blank2r.bmp	0	1	+	0	1	blank2r.bmp	492	1	MQQM	492	1	blank2r.bmp	572	2	strafen	866	1	!	1239	1	!	1332	0	0	0	0	0	0	0	0	0	0	0	0	0	0	0	0	0	0	0	0	0	0	0	0	0	0	0	0	0	0
071019	11:23:40	11:35:49	728668	5.0.10.0	5_exp_RW	35	Rpleas_acq	CS_B	BZZB	GWWG	MQQM	YDDY	VKKV	JXXJ	retten	spielen	treu	schön	ehrlich	fair	rächen	strafen	tot	schlecht	eitel	faul	1	acq_USpleas_CSpleas1_RW	acq4567_RW	6	19	400	1	300	300	448	46	0	0	1	blank2r.bmp	0	1	+	0	1	blank2r.bmp	492	1	BZZB	492	1	blank2r.bmp	572	3	treu	866	1	!	1239	1	!	1346	0	0	0	0	0	0	0	0	0	0	0	0	0	0	0	0	0	0	0	0	0	0	0	0	0	0	0	0	0	0
071019	11:23:40	11:35:51	730854	5.0.10.0	5_exp_RW	35	Rpleas_acq	CS_B	BZZB	GWWG	MQQM	YDDY	VKKV	JXXJ	retten	spielen	treu	schön	ehrlich	fair	rächen	strafen	tot	schlecht	eitel	faul	1	acq_USunple_CSunple1_RW	acq4567_RW	6	20	400	1	300	300	378	46	0	1	1	blank2r.bmp	0	1	+	0	1	blank2r.bmp	492	1	MQQM	492	1	blank2r.bmp	572	3	tot	866	1	!	1239	1	!	1279	0	0	0	0	0	0	0	0	0	0	0	0	0	0	0	0	0	0	0	0	0	0	0	0	0	0	0	0	0	0
071019	11:23:40	11:35:54	733013	5.0.10.0	5_exp_RW	35	Rpleas_acq	CS_B	BZZB	GWWG	MQQM	YDDY	VKKV	JXXJ	retten	spielen	treu	schön	ehrlich	fair	rächen	strafen	tot	schlecht	eitel	faul	1	acq_USunple_CSunple1_RW	acq4567_RW	6	21	400	1	300	300	350	50	0	0	1	blank2r.bmp	0	1	+	0	1	blank2r.bmp	492	1	MQQM	492	1	blank2r.bmp	572	1	rächen	866	1	!	1239	1	!	1252	0	0	0	0	0	0	0	0	0	0	0	0	0	0	0	0	0	0	0	0	0	0	0	0	0	0	0	0	0	0
