date	time	script.currenttime	script.elapsedtime	build	script.currentexpt	subject	expressions.LRpleas_acq	expressions.conditionCS_A	expressions.CSpleas_1	expressions.CSpleas_2	expressions.CSunple_1	expressions.CSunple_2	expressions.distractor_1	expressions.distractor_2	expressions.US_pleas1	expressions.US_pleas2	expressions.US_pleas3	expressions.US_pleas4	expressions.US_pleas5	expressions.US_pleas6	expressions.US_unple1	expressions.US_unple2	expressions.US_unple3	expressions.US_unple4	expressions.US_unple5	expressions.US_unple6	counter.positions_noRW	trialcode	blockcode	blocknum	trialnum	windowcenter	inwindow	pretrialpause	posttrialpause	latency	response	expressions.correctedscore	correct	stimulusnumber1	stimulusitem1	stimulusonset1	stimulusnumber2	stimulusitem2	stimulusonset2	stimulusnumber3	stimulusitem3	stimulusonset3	stimulusnumber4	stimulusitem4	stimulusonset4	stimulusnumber5	stimulusitem5	stimulusonset5	stimulusnumber6	stimulusitem6	stimulusonset6	stimulusnumber7	stimulusitem7	stimulusonset7	stimulusnumber8	stimulusitem8	stimulusonset8	stimulusnumber9	stimulusitem9	stimulusonset9	stimulusnumber10	stimulusitem10	stimulusonset10	stimulusnumber11	stimulusitem11	stimulusonset11	stimulusnumber12	stimulusitem12	stimulusonset12	stimulusnumber13	stimulusitem13	stimulusonset13	stimulusnumber14	stimulusitem14	stimulusonset14	stimulusnumber15	stimulusitem15	stimulusonset15	stimulusnumber16	stimulusitem16	stimulusonset16	stimulusnumber17	stimulusitem17	stimulusonset17	stimulusnumber18	stimulusitem18	stimulusonset18
071019	10:01:15	10:02:28	72543	5.0.10.0	5_exp_noRW	32	Rpleas_acq	CS_A	CPPC	YFFY	DXXD	LWWL	JQQJ	ZHHZ	gütig	sonnig	genießen	vertrauen	küssen	träumen	gierig	sterben	gemein	versagen	krank	töten	47pct	acq_USpleas_CSpleas2_noRW	acq1_noRW	1	1	0	0	300	300	2000	0	0	0	1	blank2r.bmp	0	1	+	0	1	blank2r.bmp	252	1	YFFY	306	3	träumen	559	1	FEHLER	2598	1	Schneller!	2598	0	0	0	0	0	0	0	0	0	0	0	0	0	0	0	0	0	0	0	0	0	0	0	0	0	0	0	0	0	0	0	0	0
071019	10:01:15	10:02:29	73956	5.0.10.0	5_exp_noRW	32	Rpleas_acq	CS_A	CPPC	YFFY	DXXD	LWWL	JQQJ	ZHHZ	gütig	sonnig	genießen	vertrauen	küssen	träumen	gierig	sterben	gemein	versagen	krank	töten	47pct	acq_USpleas_CSunple2_noRW	acq1_noRW	1	2	0	0	300	300	519	50	0	1	1	blank2r.bmp	0	1	+	0	1	blank2r.bmp	252	1	LWWL	306	2	küssen	559	0	0	0	0	0	0	0	0	0	0	0	0	0	0	0	0	0	0	0	0	0	0	0	0	0	0	0	0	0	0	0	0	0	0	0	0	0	0	0
071019	10:01:15	10:02:31	75528	5.0.10.0	5_exp_noRW	32	Rpleas_acq	CS_A	CPPC	YFFY	DXXD	LWWL	JQQJ	ZHHZ	gütig	sonnig	genießen	vertrauen	küssen	träumen	gierig	sterben	gemein	versagen	krank	töten	47pct	acq_USunple_CSunple1_noRW	acq1_noRW	1	3	0	0	300	300	408	46	0	1	1	blank2r.bmp	0	1	+	0	1	blank2r.bmp	252	1	DXXD	306	1	gierig	559	0	0	0	0	0	0	0	0	0	0	0	0	0	0	0	0	0	0	0	0	0	0	0	0	0	0	0	0	0	0	0	0	0	0	0	0	0	0	0
071019	10:01:15	10:02:33	77128	5.0.10.0	5_exp_noRW	32	Rpleas_acq	CS_A	CPPC	YFFY	DXXD	LWWL	JQQJ	ZHHZ	gütig	sonnig	genießen	vertrauen	küssen	träumen	gierig	sterben	gemein	versagen	krank	töten	47pct	acq_USpleas_CSpleas2_noRW	acq1_noRW	1	4	0	0	300	300	419	50	0	1	1	blank2r.bmp	0	1	+	0	1	blank2r.bmp	252	1	YFFY	306	1	vertrauen	559	0	0	0	0	0	0	0	0	0	0	0	0	0	0	0	0	0	0	0	0	0	0	0	0	0	0	0	0	0	0	0	0	0	0	0	0	0	0	0
071019	10:01:15	10:02:35	79127	5.0.10.0	5_exp_noRW	32	Rpleas_acq	CS_A	CPPC	YFFY	DXXD	LWWL	JQQJ	ZHHZ	gütig	sonnig	genießen	vertrauen	küssen	träumen	gierig	sterben	gemein	versagen	krank	töten	53pct	acq_USunple_CSunple1_noRW	acq1_noRW	1	5	0	0	300	300	823	46	0	1	1	blank2r.bmp	0	1	+	0	1	blank2r.bmp	252	1	DXXD	306	2	sterben	559	0	0	0	0	0	0	0	0	0	0	0	0	0	0	0	0	0	0	0	0	0	0	0	0	0	0	0	0	0	0	0	0	0	0	0	0	0	0	0
071019	10:01:15	10:02:36	81033	5.0.10.0	5_exp_noRW	32	Rpleas_acq	CS_A	CPPC	YFFY	DXXD	LWWL	JQQJ	ZHHZ	gütig	sonnig	genießen	vertrauen	küssen	träumen	gierig	sterben	gemein	versagen	krank	töten	47pct	acq_USpleas_CSpleas1_noRW	acq1_noRW	1	6	0	0	300	300	742	50	0	1	1	blank2r.bmp	0	1	+	0	1	blank2r.bmp	252	1	CPPC	306	3	genießen	559	0	0	0	0	0	0	0	0	0	0	0	0	0	0	0	0	0	0	0	0	0	0	0	0	0	0	0	0	0	0	0	0	0	0	0	0	0	0	0
071019	10:01:15	10:02:38	82832	5.0.10.0	5_exp_noRW	32	Rpleas_acq	CS_A	CPPC	YFFY	DXXD	LWWL	JQQJ	ZHHZ	gütig	sonnig	genießen	vertrauen	küssen	träumen	gierig	sterben	gemein	versagen	krank	töten	53pct	acq_USpleas_CSpleas1_noRW	acq1_noRW	1	7	0	0	300	300	614	50	0	1	1	blank2r.bmp	0	1	+	0	1	blank2r.bmp	252	1	CPPC	306	2	sonnig	559	0	0	0	0	0	0	0	0	0	0	0	0	0	0	0	0	0	0	0	0	0	0	0	0	0	0	0	0	0	0	0	0	0	0	0	0	0	0	0
071019	10:01:15	10:02:40	84951	5.0.10.0	5_exp_noRW	32	Rpleas_acq	CS_A	CPPC	YFFY	DXXD	LWWL	JQQJ	ZHHZ	gütig	sonnig	genießen	vertrauen	küssen	träumen	gierig	sterben	gemein	versagen	krank	töten	47pct	acq_USunple_CSunple2_noRW	acq1_noRW	1	8	0	0	300	300	740	50	0	0	1	blank2r.bmp	0	1	+	0	1	blank2r.bmp	252	1	LWWL	306	3	töten	559	1	FEHLER	1332	0	0	0	0	0	0	0	0	0	0	0	0	0	0	0	0	0	0	0	0	0	0	0	0	0	0	0	0	0	0	0	0	0	0	0	0
071019	10:01:15	10:02:42	86604	5.0.10.0	5_exp_noRW	32	Rpleas_acq	CS_A	CPPC	YFFY	DXXD	LWWL	JQQJ	ZHHZ	gütig	sonnig	genießen	vertrauen	küssen	träumen	gierig	sterben	gemein	versagen	krank	töten	47pct	acq_USunple_CSunple1_noRW	acq1_noRW	1	9	0	0	300	300	683	46	0	1	1	blank2r.bmp	0	1	+	0	1	blank2r.bmp	252	1	DXXD	306	3	gemein	559	0	0	0	0	0	0	0	0	0	0	0	0	0	0	0	0	0	0	0	0	0	0	0	0	0	0	0	0	0	0	0	0	0	0	0	0	0	0	0
071019	10:01:15	10:02:44	88443	5.0.10.0	5_exp_noRW	32	Rpleas_acq	CS_A	CPPC	YFFY	DXXD	LWWL	JQQJ	ZHHZ	gütig	sonnig	genießen	vertrauen	küssen	träumen	gierig	sterben	gemein	versagen	krank	töten	53pct	acq_USunple_CSunple2_noRW	acq1_noRW	1	10	0	0	300	300	666	46	0	1	1	blank2r.bmp	0	1	+	0	1	blank2r.bmp	252	1	LWWL	306	2	krank	559	0	0	0	0	0	0	0	0	0	0	0	0	0	0	0	0	0	0	0	0	0	0	0	0	0	0	0	0	0	0	0	0	0	0	0	0	0	0	0
071019	10:01:15	10:02:46	90122	5.0.10.0	5_exp_noRW	32	Rpleas_acq	CS_A	CPPC	YFFY	DXXD	LWWL	JQQJ	ZHHZ	gütig	sonnig	genießen	vertrauen	küssen	träumen	gierig	sterben	gemein	versagen	krank	töten	53pct	acq_USpleas_CSpleas2_noRW	acq1_noRW	1	11	0	0	300	300	510	50	0	1	1	blank2r.bmp	0	1	+	0	1	blank2r.bmp	252	1	YFFY	306	2	küssen	559	0	0	0	0	0	0	0	0	0	0	0	0	0	0	0	0	0	0	0	0	0	0	0	0	0	0	0	0	0	0	0	0	0	0	0	0	0	0	0
071019	10:01:15	10:02:48	92055	5.0.10.0	5_exp_noRW	32	Rpleas_acq	CS_A	CPPC	YFFY	DXXD	LWWL	JQQJ	ZHHZ	gütig	sonnig	genießen	vertrauen	küssen	träumen	gierig	sterben	gemein	versagen	krank	töten	47pct	acq_USunple_CSunple2_noRW	acq1_noRW	1	12	0	0	300	300	747	46	0	1	1	blank2r.bmp	0	1	+	0	1	blank2r.bmp	252	1	LWWL	306	1	versagen	559	0	0	0	0	0	0	0	0	0	0	0	0	0	0	0	0	0	0	0	0	0	0	0	0	0	0	0	0	0	0	0	0	0	0	0	0	0	0	0
071019	10:01:15	10:02:49	94014	5.0.10.0	5_exp_noRW	32	Rpleas_acq	CS_A	CPPC	YFFY	DXXD	LWWL	JQQJ	ZHHZ	gütig	sonnig	genießen	vertrauen	küssen	träumen	gierig	sterben	gemein	versagen	krank	töten	53pct	acq_USunple_CSpleas1_noRW	acq1_noRW	1	13	0	0	300	300	562	50	0	0	1	blank2r.bmp	0	1	+	0	1	blank2r.bmp	252	1	CPPC	306	3	gemein	559	1	FEHLER	1159	0	0	0	0	0	0	0	0	0	0	0	0	0	0	0	0	0	0	0	0	0	0	0	0	0	0	0	0	0	0	0	0	0	0	0	0
071019	10:01:15	10:02:51	95480	5.0.10.0	5_exp_noRW	32	Rpleas_acq	CS_A	CPPC	YFFY	DXXD	LWWL	JQQJ	ZHHZ	gütig	sonnig	genießen	vertrauen	küssen	träumen	gierig	sterben	gemein	versagen	krank	töten	53pct	acq_USpleas_CSunple1_noRW	acq1_noRW	1	14	0	0	300	300	504	50	0	1	1	blank2r.bmp	0	1	+	0	1	blank2r.bmp	252	1	DXXD	306	2	sonnig	559	0	0	0	0	0	0	0	0	0	0	0	0	0	0	0	0	0	0	0	0	0	0	0	0	0	0	0	0	0	0	0	0	0	0	0	0	0	0	0
071019	10:01:15	10:02:53	97253	5.0.10.0	5_exp_noRW	32	Rpleas_acq	CS_A	CPPC	YFFY	DXXD	LWWL	JQQJ	ZHHZ	gütig	sonnig	genießen	vertrauen	küssen	träumen	gierig	sterben	gemein	versagen	krank	töten	47pct	acq_USpleas_CSpleas2_noRW	acq1_noRW	1	15	0	0	300	300	596	50	0	1	1	blank2r.bmp	0	1	+	0	1	blank2r.bmp	252	1	YFFY	306	1	vertrauen	559	0	0	0	0	0	0	0	0	0	0	0	0	0	0	0	0	0	0	0	0	0	0	0	0	0	0	0	0	0	0	0	0	0	0	0	0	0	0	0
071019	10:01:15	10:02:55	99199	5.0.10.0	5_exp_noRW	32	Rpleas_acq	CS_A	CPPC	YFFY	DXXD	LWWL	JQQJ	ZHHZ	gütig	sonnig	genießen	vertrauen	küssen	träumen	gierig	sterben	gemein	versagen	krank	töten	53pct	acq_USpleas_CSpleas1_noRW	acq1_noRW	1	16	0	0	300	300	556	46	0	0	1	blank2r.bmp	0	1	+	0	1	blank2r.bmp	252	1	CPPC	306	1	gütig	559	1	FEHLER	1146	0	0	0	0	0	0	0	0	0	0	0	0	0	0	0	0	0	0	0	0	0	0	0	0	0	0	0	0	0	0	0	0	0	0	0	0
071019	10:01:15	10:02:56	100838	5.0.10.0	5_exp_noRW	32	Rpleas_acq	CS_A	CPPC	YFFY	DXXD	LWWL	JQQJ	ZHHZ	gütig	sonnig	genießen	vertrauen	küssen	träumen	gierig	sterben	gemein	versagen	krank	töten	53pct	acq_USunple_CSunple2_noRW	acq1_noRW	1	17	0	0	300	300	474	50	0	0	1	blank2r.bmp	0	1	+	0	1	blank2r.bmp	252	1	LWWL	306	2	krank	559	1	FEHLER	1066	0	0	0	0	0	0	0	0	0	0	0	0	0	0	0	0	0	0	0	0	0	0	0	0	0	0	0	0	0	0	0	0	0	0	0	0
071019	10:01:15	10:02:58	102584	5.0.10.0	5_exp_noRW	32	Rpleas_acq	CS_A	CPPC	YFFY	DXXD	LWWL	JQQJ	ZHHZ	gütig	sonnig	genießen	vertrauen	küssen	träumen	gierig	sterben	gemein	versagen	krank	töten	47pct	acq_USunple_CSpleas2_noRW	acq1_noRW	1	18	0	0	300	300	786	46	0	1	1	blank2r.bmp	0	1	+	0	1	blank2r.bmp	252	1	YFFY	306	2	krank	559	0	0	0	0	0	0	0	0	0	0	0	0	0	0	0	0	0	0	0	0	0	0	0	0	0	0	0	0	0	0	0	0	0	0	0	0	0	0	0
071019	10:01:15	10:03:00	104623	5.0.10.0	5_exp_noRW	32	Rpleas_acq	CS_A	CPPC	YFFY	DXXD	LWWL	JQQJ	ZHHZ	gütig	sonnig	genießen	vertrauen	küssen	träumen	gierig	sterben	gemein	versagen	krank	töten	47pct	acq_USpleas_CSpleas1_noRW	acq1_noRW	1	19	0	0	300	300	873	50	0	1	1	blank2r.bmp	0	1	+	0	1	blank2r.bmp	252	1	CPPC	306	1	gütig	559	0	0	0	0	0	0	0	0	0	0	0	0	0	0	0	0	0	0	0	0	0	0	0	0	0	0	0	0	0	0	0	0	0	0	0	0	0	0	0
071019	10:01:15	10:03:02	106462	5.0.10.0	5_exp_noRW	32	Rpleas_acq	CS_A	CPPC	YFFY	DXXD	LWWL	JQQJ	ZHHZ	gütig	sonnig	genießen	vertrauen	küssen	träumen	gierig	sterben	gemein	versagen	krank	töten	53pct	acq_USunple_CSunple1_noRW	acq1_noRW	1	20	0	0	300	300	652	46	0	1	1	blank2r.bmp	0	1	+	0	1	blank2r.bmp	252	1	DXXD	306	1	gierig	559	0	0	0	0	0	0	0	0	0	0	0	0	0	0	0	0	0	0	0	0	0	0	0	0	0	0	0	0	0	0	0	0	0	0	0	0	0	0	0
071019	10:01:15	10:03:04	108128	5.0.10.0	5_exp_noRW	32	Rpleas_acq	CS_A	CPPC	YFFY	DXXD	LWWL	JQQJ	ZHHZ	gütig	sonnig	genießen	vertrauen	küssen	träumen	gierig	sterben	gemein	versagen	krank	töten	53pct	acq_USpleas_CSpleas2_noRW	acq1_noRW	1	21	0	0	300	300	496	50	0	1	1	blank2r.bmp	0	1	+	0	1	blank2r.bmp	252	1	YFFY	306	2	küssen	559	0	0	0	0	0	0	0	0	0	0	0	0	0	0	0	0	0	0	0	0	0	0	0	0	0	0	0	0	0	0	0	0	0	0	0	0	0	0	0
071019	10:01:15	10:03:05	109848	5.0.10.0	5_exp_noRW	32	Rpleas_acq	CS_A	CPPC	YFFY	DXXD	LWWL	JQQJ	ZHHZ	gütig	sonnig	genießen	vertrauen	küssen	träumen	gierig	sterben	gemein	versagen	krank	töten	53pct	acq_USpleas_CSunple2_noRW	acq1_noRW	1	22	0	0	300	300	547	50	0	1	1	blank2r.bmp	0	1	+	0	1	blank2r.bmp	252	1	LWWL	306	1	vertrauen	559	0	0	0	0	0	0	0	0	0	0	0	0	0	0	0	0	0	0	0	0	0	0	0	0	0	0	0	0	0	0	0	0	0	0	0	0	0	0	0
071019	10:01:15	10:03:07	111594	5.0.10.0	5_exp_noRW	32	Rpleas_acq	CS_A	CPPC	YFFY	DXXD	LWWL	JQQJ	ZHHZ	gütig	sonnig	genießen	vertrauen	küssen	träumen	gierig	sterben	gemein	versagen	krank	töten	47pct	acq_USunple_CSpleas1_noRW	acq1_noRW	1	23	0	0	300	300	579	46	0	1	1	blank2r.bmp	0	1	+	0	1	blank2r.bmp	252	1	CPPC	306	1	gierig	559	0	0	0	0	0	0	0	0	0	0	0	0	0	0	0	0	0	0	0	0	0	0	0	0	0	0	0	0	0	0	0	0	0	0	0	0	0	0	0
071019	10:01:15	10:03:09	113313	5.0.10.0	5_exp_noRW	32	Rpleas_acq	CS_A	CPPC	YFFY	DXXD	LWWL	JQQJ	ZHHZ	gütig	sonnig	genießen	vertrauen	küssen	träumen	gierig	sterben	gemein	versagen	krank	töten	47pct	acq_USpleas_CSpleas1_noRW	acq1_noRW	1	24	0	0	300	300	554	50	0	1	1	blank2r.bmp	0	1	+	0	1	blank2r.bmp	252	1	CPPC	306	2	sonnig	559	0	0	0	0	0	0	0	0	0	0	0	0	0	0	0	0	0	0	0	0	0	0	0	0	0	0	0	0	0	0	0	0	0	0	0	0	0	0	0
071019	10:01:15	10:03:10	115019	5.0.10.0	5_exp_noRW	32	Rpleas_acq	CS_A	CPPC	YFFY	DXXD	LWWL	JQQJ	ZHHZ	gütig	sonnig	genießen	vertrauen	küssen	träumen	gierig	sterben	gemein	versagen	krank	töten	47pct	acq_USunple_CSunple2_noRW	acq1_noRW	1	25	0	0	300	300	523	46	0	1	1	blank2r.bmp	0	1	+	0	1	blank2r.bmp	252	1	LWWL	306	3	töten	559	0	0	0	0	0	0	0	0	0	0	0	0	0	0	0	0	0	0	0	0	0	0	0	0	0	0	0	0	0	0	0	0	0	0	0	0	0	0	0
071019	10:01:15	10:03:13	117338	5.0.10.0	5_exp_noRW	32	Rpleas_acq	CS_A	CPPC	YFFY	DXXD	LWWL	JQQJ	ZHHZ	gütig	sonnig	genießen	vertrauen	küssen	träumen	gierig	sterben	gemein	versagen	krank	töten	53pct	acq_USunple_CSunple1_noRW	acq1_noRW	1	26	0	0	300	300	919	50	0	0	1	blank2r.bmp	0	1	+	0	1	blank2r.bmp	252	1	DXXD	306	3	gemein	559	1	FEHLER	1519	0	0	0	0	0	0	0	0	0	0	0	0	0	0	0	0	0	0	0	0	0	0	0	0	0	0	0	0	0	0	0	0	0	0	0	0
071019	10:01:15	10:03:14	118977	5.0.10.0	5_exp_noRW	32	Rpleas_acq	CS_A	CPPC	YFFY	DXXD	LWWL	JQQJ	ZHHZ	gütig	sonnig	genießen	vertrauen	küssen	träumen	gierig	sterben	gemein	versagen	krank	töten	53pct	acq_USunple_CSunple2_noRW	acq1_noRW	1	27	0	0	300	300	670	46	0	1	1	blank2r.bmp	0	1	+	0	1	blank2r.bmp	252	1	LWWL	306	1	versagen	559	0	0	0	0	0	0	0	0	0	0	0	0	0	0	0	0	0	0	0	0	0	0	0	0	0	0	0	0	0	0	0	0	0	0	0	0	0	0	0
071019	10:01:15	10:03:16	120776	5.0.10.0	5_exp_noRW	32	Rpleas_acq	CS_A	CPPC	YFFY	DXXD	LWWL	JQQJ	ZHHZ	gütig	sonnig	genießen	vertrauen	küssen	träumen	gierig	sterben	gemein	versagen	krank	töten	47pct	acq_USunple_CSpleas2_noRW	acq1_noRW	1	28	0	0	300	300	613	46	0	1	1	blank2r.bmp	0	1	+	0	1	blank2r.bmp	252	1	YFFY	306	3	töten	559	0	0	0	0	0	0	0	0	0	0	0	0	0	0	0	0	0	0	0	0	0	0	0	0	0	0	0	0	0	0	0	0	0	0	0	0	0	0	0
071019	10:01:15	10:03:18	122562	5.0.10.0	5_exp_noRW	32	Rpleas_acq	CS_A	CPPC	YFFY	DXXD	LWWL	JQQJ	ZHHZ	gütig	sonnig	genießen	vertrauen	küssen	träumen	gierig	sterben	gemein	versagen	krank	töten	53pct	acq_USunple_CSunple1_noRW	acq1_noRW	1	29	0	0	300	300	609	46	0	1	1	blank2r.bmp	0	1	+	0	1	blank2r.bmp	252	1	DXXD	306	2	sterben	559	0	0	0	0	0	0	0	0	0	0	0	0	0	0	0	0	0	0	0	0	0	0	0	0	0	0	0	0	0	0	0	0	0	0	0	0	0	0	0
071019	10:01:15	10:03:20	124935	5.0.10.0	5_exp_noRW	32	Rpleas_acq	CS_A	CPPC	YFFY	DXXD	LWWL	JQQJ	ZHHZ	gütig	sonnig	genießen	vertrauen	küssen	träumen	gierig	sterben	gemein	versagen	krank	töten	53pct	acq_USpleas_CSpleas2_noRW	acq1_noRW	1	30	0	0	300	300	975	46	0	0	1	blank2r.bmp	0	1	+	0	1	blank2r.bmp	252	1	YFFY	306	3	träumen	559	1	FEHLER	1572	0	0	0	0	0	0	0	0	0	0	0	0	0	0	0	0	0	0	0	0	0	0	0	0	0	0	0	0	0	0	0	0	0	0	0	0
071019	10:01:15	10:03:22	126534	5.0.10.0	5_exp_noRW	32	Rpleas_acq	CS_A	CPPC	YFFY	DXXD	LWWL	JQQJ	ZHHZ	gütig	sonnig	genießen	vertrauen	küssen	träumen	gierig	sterben	gemein	versagen	krank	töten	47pct	acq_USpleas_CSpleas2_noRW	acq1_noRW	1	31	0	0	300	300	632	50	0	1	1	blank2r.bmp	0	1	+	0	1	blank2r.bmp	252	1	YFFY	306	2	küssen	559	0	0	0	0	0	0	0	0	0	0	0	0	0	0	0	0	0	0	0	0	0	0	0	0	0	0	0	0	0	0	0	0	0	0	0	0	0	0	0
071019	10:01:15	10:03:24	128453	5.0.10.0	5_exp_noRW	32	Rpleas_acq	CS_A	CPPC	YFFY	DXXD	LWWL	JQQJ	ZHHZ	gütig	sonnig	genießen	vertrauen	küssen	träumen	gierig	sterben	gemein	versagen	krank	töten	47pct	acq_USpleas_CSpleas1_noRW	acq1_noRW	1	32	0	0	300	300	754	50	0	1	1	blank2r.bmp	0	1	+	0	1	blank2r.bmp	252	1	CPPC	306	3	genießen	559	0	0	0	0	0	0	0	0	0	0	0	0	0	0	0	0	0	0	0	0	0	0	0	0	0	0	0	0	0	0	0	0	0	0	0	0	0	0	0
071019	10:01:15	10:03:26	130306	5.0.10.0	5_exp_noRW	32	Rpleas_acq	CS_A	CPPC	YFFY	DXXD	LWWL	JQQJ	ZHHZ	gütig	sonnig	genießen	vertrauen	küssen	träumen	gierig	sterben	gemein	versagen	krank	töten	53pct	acq_USpleas_CSunple1_noRW	acq1_noRW	1	33	0	0	300	300	680	50	0	1	1	blank2r.bmp	0	1	+	0	1	blank2r.bmp	252	1	DXXD	306	1	gütig	559	0	0	0	0	0	0	0	0	0	0	0	0	0	0	0	0	0	0	0	0	0	0	0	0	0	0	0	0	0	0	0	0	0	0	0	0	0	0	0
071019	10:01:15	10:03:28	132132	5.0.10.0	5_exp_noRW	32	Rpleas_acq	CS_A	CPPC	YFFY	DXXD	LWWL	JQQJ	ZHHZ	gütig	sonnig	genießen	vertrauen	küssen	träumen	gierig	sterben	gemein	versagen	krank	töten	53pct	acq_USpleas_CSpleas2_noRW	acq1_noRW	1	34	0	0	300	300	643	50	0	1	1	blank2r.bmp	0	1	+	0	1	blank2r.bmp	252	1	YFFY	306	3	träumen	559	0	0	0	0	0	0	0	0	0	0	0	0	0	0	0	0	0	0	0	0	0	0	0	0	0	0	0	0	0	0	0	0	0	0	0	0	0	0	0
071019	10:01:15	10:03:29	133824	5.0.10.0	5_exp_noRW	32	Rpleas_acq	CS_A	CPPC	YFFY	DXXD	LWWL	JQQJ	ZHHZ	gütig	sonnig	genießen	vertrauen	küssen	träumen	gierig	sterben	gemein	versagen	krank	töten	47pct	acq_USunple_CSunple2_noRW	acq1_noRW	1	35	0	0	300	300	511	46	0	1	1	blank2r.bmp	0	1	+	0	1	blank2r.bmp	252	1	LWWL	306	3	töten	559	0	0	0	0	0	0	0	0	0	0	0	0	0	0	0	0	0	0	0	0	0	0	0	0	0	0	0	0	0	0	0	0	0	0	0	0	0	0	0
071019	10:01:15	10:03:31	135637	5.0.10.0	5_exp_noRW	32	Rpleas_acq	CS_A	CPPC	YFFY	DXXD	LWWL	JQQJ	ZHHZ	gütig	sonnig	genießen	vertrauen	küssen	träumen	gierig	sterben	gemein	versagen	krank	töten	53pct	acq_USunple_CSunple2_noRW	acq1_noRW	1	36	0	0	300	300	650	46	0	1	1	blank2r.bmp	0	1	+	0	1	blank2r.bmp	252	1	LWWL	306	2	krank	559	0	0	0	0	0	0	0	0	0	0	0	0	0	0	0	0	0	0	0	0	0	0	0	0	0	0	0	0	0	0	0	0	0	0	0	0	0	0	0
071019	10:01:15	10:03:33	137410	5.0.10.0	5_exp_noRW	32	Rpleas_acq	CS_A	CPPC	YFFY	DXXD	LWWL	JQQJ	ZHHZ	gütig	sonnig	genießen	vertrauen	küssen	träumen	gierig	sterben	gemein	versagen	krank	töten	53pct	acq_USunple_CSunple1_noRW	acq1_noRW	1	37	0	0	300	300	594	46	0	1	1	blank2r.bmp	0	1	+	0	1	blank2r.bmp	252	1	DXXD	306	2	sterben	559	0	0	0	0	0	0	0	0	0	0	0	0	0	0	0	0	0	0	0	0	0	0	0	0	0	0	0	0	0	0	0	0	0	0	0	0	0	0	0
071019	10:01:15	10:03:35	139395	5.0.10.0	5_exp_noRW	32	Rpleas_acq	CS_A	CPPC	YFFY	DXXD	LWWL	JQQJ	ZHHZ	gütig	sonnig	genießen	vertrauen	küssen	träumen	gierig	sterben	gemein	versagen	krank	töten	53pct	acq_USunple_CSunple1_noRW	acq1_noRW	1	38	0	0	300	300	820	46	0	1	1	blank2r.bmp	0	1	+	0	1	blank2r.bmp	252	1	DXXD	306	3	gemein	559	0	0	0	0	0	0	0	0	0	0	0	0	0	0	0	0	0	0	0	0	0	0	0	0	0	0	0	0	0	0	0	0	0	0	0	0	0	0	0
071019	10:01:15	10:03:37	141101	5.0.10.0	5_exp_noRW	32	Rpleas_acq	CS_A	CPPC	YFFY	DXXD	LWWL	JQQJ	ZHHZ	gütig	sonnig	genießen	vertrauen	küssen	träumen	gierig	sterben	gemein	versagen	krank	töten	53pct	acq_USpleas_CSpleas1_noRW	acq1_noRW	1	39	0	0	300	300	531	50	0	1	1	blank2r.bmp	0	1	+	0	1	blank2r.bmp	252	1	CPPC	306	2	sonnig	559	0	0	0	0	0	0	0	0	0	0	0	0	0	0	0	0	0	0	0	0	0	0	0	0	0	0	0	0	0	0	0	0	0	0	0	0	0	0	0
071019	10:01:15	10:03:38	143034	5.0.10.0	5_exp_noRW	32	Rpleas_acq	CS_A	CPPC	YFFY	DXXD	LWWL	JQQJ	ZHHZ	gütig	sonnig	genießen	vertrauen	küssen	träumen	gierig	sterben	gemein	versagen	krank	töten	47pct	acq_USpleas_CSpleas1_noRW	acq1_noRW	1	40	0	0	300	300	748	50	0	1	1	blank2r.bmp	0	1	+	0	1	blank2r.bmp	252	1	CPPC	306	1	gütig	559	0	0	0	0	0	0	0	0	0	0	0	0	0	0	0	0	0	0	0	0	0	0	0	0	0	0	0	0	0	0	0	0	0	0	0	0	0	0	0
071019	10:01:15	10:03:40	144793	5.0.10.0	5_exp_noRW	32	Rpleas_acq	CS_A	CPPC	YFFY	DXXD	LWWL	JQQJ	ZHHZ	gütig	sonnig	genießen	vertrauen	küssen	träumen	gierig	sterben	gemein	versagen	krank	töten	47pct	acq_USpleas_CSunple1_noRW	acq1_noRW	1	41	0	0	300	300	581	50	0	1	1	blank2r.bmp	0	1	+	0	1	blank2r.bmp	252	1	DXXD	306	3	genießen	559	0	0	0	0	0	0	0	0	0	0	0	0	0	0	0	0	0	0	0	0	0	0	0	0	0	0	0	0	0	0	0	0	0	0	0	0	0	0	0
071019	10:01:15	10:03:42	146419	5.0.10.0	5_exp_noRW	32	Rpleas_acq	CS_A	CPPC	YFFY	DXXD	LWWL	JQQJ	ZHHZ	gütig	sonnig	genießen	vertrauen	küssen	träumen	gierig	sterben	gemein	versagen	krank	töten	47pct	acq_USpleas_CSpleas2_noRW	acq1_noRW	1	42	0	0	300	300	451	50	0	1	1	blank2r.bmp	0	1	+	0	1	blank2r.bmp	252	1	YFFY	306	1	vertrauen	559	0	0	0	0	0	0	0	0	0	0	0	0	0	0	0	0	0	0	0	0	0	0	0	0	0	0	0	0	0	0	0	0	0	0	0	0	0	0	0
071019	10:01:15	10:03:44	148112	5.0.10.0	5_exp_noRW	32	Rpleas_acq	CS_A	CPPC	YFFY	DXXD	LWWL	JQQJ	ZHHZ	gütig	sonnig	genießen	vertrauen	küssen	träumen	gierig	sterben	gemein	versagen	krank	töten	47pct	acq_USpleas_CSpleas2_noRW	acq1_noRW	1	43	0	0	300	300	506	50	0	1	1	blank2r.bmp	0	1	+	0	1	blank2r.bmp	252	1	YFFY	306	2	küssen	559	0	0	0	0	0	0	0	0	0	0	0	0	0	0	0	0	0	0	0	0	0	0	0	0	0	0	0	0	0	0	0	0	0	0	0	0	0	0	0
071019	10:01:15	10:03:45	149924	5.0.10.0	5_exp_noRW	32	Rpleas_acq	CS_A	CPPC	YFFY	DXXD	LWWL	JQQJ	ZHHZ	gütig	sonnig	genießen	vertrauen	küssen	träumen	gierig	sterben	gemein	versagen	krank	töten	53pct	acq_USunple_CSunple2_noRW	acq1_noRW	1	44	0	0	300	300	640	46	0	1	1	blank2r.bmp	0	1	+	0	1	blank2r.bmp	252	1	LWWL	306	1	versagen	559	0	0	0	0	0	0	0	0	0	0	0	0	0	0	0	0	0	0	0	0	0	0	0	0	0	0	0	0	0	0	0	0	0	0	0	0	0	0	0
071019	10:01:15	10:03:47	151790	5.0.10.0	5_exp_noRW	32	Rpleas_acq	CS_A	CPPC	YFFY	DXXD	LWWL	JQQJ	ZHHZ	gütig	sonnig	genießen	vertrauen	küssen	träumen	gierig	sterben	gemein	versagen	krank	töten	47pct	acq_USunple_CSunple1_noRW	acq1_noRW	1	45	0	0	300	300	702	46	0	1	1	blank2r.bmp	0	1	+	0	1	blank2r.bmp	252	1	DXXD	306	1	gierig	559	0	0	0	0	0	0	0	0	0	0	0	0	0	0	0	0	0	0	0	0	0	0	0	0	0	0	0	0	0	0	0	0	0	0	0	0	0	0	0
071019	10:01:15	10:03:49	153616	5.0.10.0	5_exp_noRW	32	Rpleas_acq	CS_A	CPPC	YFFY	DXXD	LWWL	JQQJ	ZHHZ	gütig	sonnig	genießen	vertrauen	küssen	träumen	gierig	sterben	gemein	versagen	krank	töten	47pct	acq_USpleas_CSpleas1_noRW	acq1_noRW	1	46	0	0	300	300	659	50	0	1	1	blank2r.bmp	0	1	+	0	1	blank2r.bmp	252	1	CPPC	306	3	genießen	559	0	0	0	0	0	0	0	0	0	0	0	0	0	0	0	0	0	0	0	0	0	0	0	0	0	0	0	0	0	0	0	0	0	0	0	0	0	0	0
071019	10:01:15	10:03:51	155496	5.0.10.0	5_exp_noRW	32	Rpleas_acq	CS_A	CPPC	YFFY	DXXD	LWWL	JQQJ	ZHHZ	gütig	sonnig	genießen	vertrauen	küssen	träumen	gierig	sterben	gemein	versagen	krank	töten	53pct	acq_USunple_CSunple1_noRW	acq1_noRW	1	47	0	0	300	300	717	46	0	1	1	blank2r.bmp	0	1	+	0	1	blank2r.bmp	252	1	DXXD	306	3	gemein	559	0	0	0	0	0	0	0	0	0	0	0	0	0	0	0	0	0	0	0	0	0	0	0	0	0	0	0	0	0	0	0	0	0	0	0	0	0	0	0
071019	10:01:15	10:03:53	157828	5.0.10.0	5_exp_noRW	32	Rpleas_acq	CS_A	CPPC	YFFY	DXXD	LWWL	JQQJ	ZHHZ	gütig	sonnig	genießen	vertrauen	küssen	träumen	gierig	sterben	gemein	versagen	krank	töten	53pct	acq_USunple_CSpleas1_noRW	acq1_noRW	1	48	0	0	300	300	1156	46	0	1	1	blank2r.bmp	0	1	+	0	1	blank2r.bmp	252	1	CPPC	306	2	sterben	559	0	0	0	0	0	0	0	0	0	0	0	0	0	0	0	0	0	0	0	0	0	0	0	0	0	0	0	0	0	0	0	0	0	0	0	0	0	0	0
071019	10:01:15	10:03:55	159760	5.0.10.0	5_exp_noRW	32	Rpleas_acq	CS_A	CPPC	YFFY	DXXD	LWWL	JQQJ	ZHHZ	gütig	sonnig	genießen	vertrauen	küssen	träumen	gierig	sterben	gemein	versagen	krank	töten	47pct	acq_USunple_CSpleas2_noRW	acq1_noRW	1	49	0	0	300	300	766	46	0	1	1	blank2r.bmp	0	1	+	0	1	blank2r.bmp	252	1	YFFY	306	1	versagen	559	0	0	0	0	0	0	0	0	0	0	0	0	0	0	0	0	0	0	0	0	0	0	0	0	0	0	0	0	0	0	0	0	0	0	0	0	0	0	0
071019	10:01:15	10:03:57	161546	5.0.10.0	5_exp_noRW	32	Rpleas_acq	CS_A	CPPC	YFFY	DXXD	LWWL	JQQJ	ZHHZ	gütig	sonnig	genießen	vertrauen	küssen	träumen	gierig	sterben	gemein	versagen	krank	töten	53pct	acq_USunple_CSunple1_noRW	acq1_noRW	1	50	0	0	300	300	601	46	0	1	1	blank2r.bmp	0	1	+	0	1	blank2r.bmp	252	1	DXXD	306	1	gierig	559	0	0	0	0	0	0	0	0	0	0	0	0	0	0	0	0	0	0	0	0	0	0	0	0	0	0	0	0	0	0	0	0	0	0	0	0	0	0	0
071019	10:01:15	10:03:59	163372	5.0.10.0	5_exp_noRW	32	Rpleas_acq	CS_A	CPPC	YFFY	DXXD	LWWL	JQQJ	ZHHZ	gütig	sonnig	genießen	vertrauen	küssen	träumen	gierig	sterben	gemein	versagen	krank	töten	47pct	acq_USpleas_CSpleas1_noRW	acq1_noRW	1	51	0	0	300	300	662	50	0	1	1	blank2r.bmp	0	1	+	0	1	blank2r.bmp	252	1	CPPC	306	3	genießen	559	0	0	0	0	0	0	0	0	0	0	0	0	0	0	0	0	0	0	0	0	0	0	0	0	0	0	0	0	0	0	0	0	0	0	0	0	0	0	0
071019	10:01:15	10:04:01	165558	5.0.10.0	5_exp_noRW	32	Rpleas_acq	CS_A	CPPC	YFFY	DXXD	LWWL	JQQJ	ZHHZ	gütig	sonnig	genießen	vertrauen	küssen	träumen	gierig	sterben	gemein	versagen	krank	töten	47pct	acq_USpleas_CSunple2_noRW	acq1_noRW	1	52	0	0	300	300	1003	50	0	1	1	blank2r.bmp	0	1	+	0	1	blank2r.bmp	252	1	LWWL	306	3	träumen	559	0	0	0	0	0	0	0	0	0	0	0	0	0	0	0	0	0	0	0	0	0	0	0	0	0	0	0	0	0	0	0	0	0	0	0	0	0	0	0
071019	10:01:15	10:04:04	168224	5.0.10.0	5_exp_noRW	32	Rpleas_acq	CS_A	CPPC	YFFY	DXXD	LWWL	JQQJ	ZHHZ	gütig	sonnig	genießen	vertrauen	küssen	träumen	gierig	sterben	gemein	versagen	krank	töten	47pct	acq_USunple_CSunple2_noRW	acq1_noRW	1	53	0	0	300	300	1276	50	0	0	1	blank2r.bmp	0	1	+	0	1	blank2r.bmp	252	1	LWWL	306	1	versagen	559	1	FEHLER	1865	0	0	0	0	0	0	0	0	0	0	0	0	0	0	0	0	0	0	0	0	0	0	0	0	0	0	0	0	0	0	0	0	0	0	0	0
071019	10:01:15	10:04:05	169676	5.0.10.0	5_exp_noRW	32	Rpleas_acq	CS_A	CPPC	YFFY	DXXD	LWWL	JQQJ	ZHHZ	gütig	sonnig	genießen	vertrauen	küssen	träumen	gierig	sterben	gemein	versagen	krank	töten	47pct	acq_USpleas_CSpleas1_noRW	acq1_noRW	1	54	0	0	300	300	485	50	0	1	1	blank2r.bmp	0	1	+	0	1	blank2r.bmp	252	1	CPPC	306	2	sonnig	559	0	0	0	0	0	0	0	0	0	0	0	0	0	0	0	0	0	0	0	0	0	0	0	0	0	0	0	0	0	0	0	0	0	0	0	0	0	0	0
071019	10:01:15	10:04:07	171422	5.0.10.0	5_exp_noRW	32	Rpleas_acq	CS_A	CPPC	YFFY	DXXD	LWWL	JQQJ	ZHHZ	gütig	sonnig	genießen	vertrauen	küssen	träumen	gierig	sterben	gemein	versagen	krank	töten	53pct	acq_USunple_CSunple2_noRW	acq1_noRW	1	55	0	0	300	300	562	46	0	1	1	blank2r.bmp	0	1	+	0	1	blank2r.bmp	252	1	LWWL	306	2	krank	559	0	0	0	0	0	0	0	0	0	0	0	0	0	0	0	0	0	0	0	0	0	0	0	0	0	0	0	0	0	0	0	0	0	0	0	0	0	0	0
071019	10:01:15	10:04:09	173688	5.0.10.0	5_exp_noRW	32	Rpleas_acq	CS_A	CPPC	YFFY	DXXD	LWWL	JQQJ	ZHHZ	gütig	sonnig	genießen	vertrauen	küssen	träumen	gierig	sterben	gemein	versagen	krank	töten	53pct	acq_USunple_CSunple2_noRW	acq1_noRW	1	56	0	0	300	300	1101	46	0	1	1	blank2r.bmp	0	1	+	0	1	blank2r.bmp	252	1	LWWL	306	3	töten	559	0	0	0	0	0	0	0	0	0	0	0	0	0	0	0	0	0	0	0	0	0	0	0	0	0	0	0	0	0	0	0	0	0	0	0	0	0	0	0
071019	10:01:15	10:04:11	175341	5.0.10.0	5_exp_noRW	32	Rpleas_acq	CS_A	CPPC	YFFY	DXXD	LWWL	JQQJ	ZHHZ	gütig	sonnig	genießen	vertrauen	küssen	träumen	gierig	sterben	gemein	versagen	krank	töten	47pct	acq_USpleas_CSpleas2_noRW	acq1_noRW	1	57	0	0	300	300	474	50	0	1	1	blank2r.bmp	0	1	+	0	1	blank2r.bmp	252	1	YFFY	306	3	träumen	559	0	0	0	0	0	0	0	0	0	0	0	0	0	0	0	0	0	0	0	0	0	0	0	0	0	0	0	0	0	0	0	0	0	0	0	0	0	0	0
071019	10:01:15	10:04:12	177047	5.0.10.0	5_exp_noRW	32	Rpleas_acq	CS_A	CPPC	YFFY	DXXD	LWWL	JQQJ	ZHHZ	gütig	sonnig	genießen	vertrauen	küssen	träumen	gierig	sterben	gemein	versagen	krank	töten	53pct	acq_USpleas_CSpleas1_noRW	acq1_noRW	1	58	0	0	300	300	519	50	0	1	1	blank2r.bmp	0	1	+	0	1	blank2r.bmp	252	1	CPPC	306	1	gütig	559	0	0	0	0	0	0	0	0	0	0	0	0	0	0	0	0	0	0	0	0	0	0	0	0	0	0	0	0	0	0	0	0	0	0	0	0	0	0	0
071019	10:01:15	10:04:14	178739	5.0.10.0	5_exp_noRW	32	Rpleas_acq	CS_A	CPPC	YFFY	DXXD	LWWL	JQQJ	ZHHZ	gütig	sonnig	genießen	vertrauen	küssen	träumen	gierig	sterben	gemein	versagen	krank	töten	47pct	acq_USpleas_CSpleas2_noRW	acq1_noRW	1	59	0	0	300	300	526	50	0	1	1	blank2r.bmp	0	1	+	0	1	blank2r.bmp	252	1	YFFY	306	1	vertrauen	559	0	0	0	0	0	0	0	0	0	0	0	0	0	0	0	0	0	0	0	0	0	0	0	0	0	0	0	0	0	0	0	0	0	0	0	0	0	0	0
071019	10:01:15	10:04:16	180445	5.0.10.0	5_exp_noRW	32	Rpleas_acq	CS_A	CPPC	YFFY	DXXD	LWWL	JQQJ	ZHHZ	gütig	sonnig	genießen	vertrauen	küssen	träumen	gierig	sterben	gemein	versagen	krank	töten	47pct	acq_USunple_CSunple1_noRW	acq1_noRW	1	60	0	0	300	300	524	46	0	1	1	blank2r.bmp	0	1	+	0	1	blank2r.bmp	252	1	DXXD	306	2	sterben	559	0	0	0	0	0	0	0	0	0	0	0	0	0	0	0	0	0	0	0	0	0	0	0	0	0	0	0	0	0	0	0	0	0	0	0	0	0	0	0
071019	10:01:15	10:04:18	182125	5.0.10.0	5_exp_noRW	32	Rpleas_acq	CS_A	CPPC	YFFY	DXXD	LWWL	JQQJ	ZHHZ	gütig	sonnig	genießen	vertrauen	küssen	träumen	gierig	sterben	gemein	versagen	krank	töten	53pct	acq_USunple_CSunple2_noRW	acq1_noRW	1	61	0	0	300	300	504	46	0	1	1	blank2r.bmp	0	1	+	0	1	blank2r.bmp	252	1	LWWL	306	2	krank	559	0	0	0	0	0	0	0	0	0	0	0	0	0	0	0	0	0	0	0	0	0	0	0	0	0	0	0	0	0	0	0	0	0	0	0	0	0	0	0
071019	10:01:15	10:04:19	183844	5.0.10.0	5_exp_noRW	32	Rpleas_acq	CS_A	CPPC	YFFY	DXXD	LWWL	JQQJ	ZHHZ	gütig	sonnig	genießen	vertrauen	küssen	träumen	gierig	sterben	gemein	versagen	krank	töten	53pct	acq_USunple_CSpleas1_noRW	acq1_noRW	1	62	0	0	300	300	543	46	0	1	1	blank2r.bmp	0	1	+	0	1	blank2r.bmp	252	1	CPPC	306	3	gemein	559	0	0	0	0	0	0	0	0	0	0	0	0	0	0	0	0	0	0	0	0	0	0	0	0	0	0	0	0	0	0	0	0	0	0	0	0	0	0	0
071019	10:01:15	10:04:21	185750	5.0.10.0	5_exp_noRW	32	Rpleas_acq	CS_A	CPPC	YFFY	DXXD	LWWL	JQQJ	ZHHZ	gütig	sonnig	genießen	vertrauen	küssen	träumen	gierig	sterben	gemein	versagen	krank	töten	47pct	acq_USpleas_CSpleas1_noRW	acq1_noRW	1	63	0	0	300	300	726	50	0	1	1	blank2r.bmp	0	1	+	0	1	blank2r.bmp	252	1	CPPC	306	3	genießen	559	0	0	0	0	0	0	0	0	0	0	0	0	0	0	0	0	0	0	0	0	0	0	0	0	0	0	0	0	0	0	0	0	0	0	0	0	0	0	0
071019	10:01:15	10:04:23	187669	5.0.10.0	5_exp_noRW	32	Rpleas_acq	CS_A	CPPC	YFFY	DXXD	LWWL	JQQJ	ZHHZ	gütig	sonnig	genießen	vertrauen	küssen	träumen	gierig	sterben	gemein	versagen	krank	töten	47pct	acq_USpleas_CSpleas2_noRW	acq1_noRW	1	64	0	0	300	300	737	50	0	1	1	blank2r.bmp	0	1	+	0	1	blank2r.bmp	252	1	YFFY	306	1	vertrauen	559	0	0	0	0	0	0	0	0	0	0	0	0	0	0	0	0	0	0	0	0	0	0	0	0	0	0	0	0	0	0	0	0	0	0	0	0	0	0	0
071019	10:01:15	10:04:25	189775	5.0.10.0	5_exp_noRW	32	Rpleas_acq	CS_A	CPPC	YFFY	DXXD	LWWL	JQQJ	ZHHZ	gütig	sonnig	genießen	vertrauen	küssen	träumen	gierig	sterben	gemein	versagen	krank	töten	53pct	acq_USunple_CSunple2_noRW	acq1_noRW	1	65	0	0	300	300	922	46	0	1	1	blank2r.bmp	0	1	+	0	1	blank2r.bmp	252	1	LWWL	306	1	versagen	559	0	0	0	0	0	0	0	0	0	0	0	0	0	0	0	0	0	0	0	0	0	0	0	0	0	0	0	0	0	0	0	0	0	0	0	0	0	0	0
071019	10:01:15	10:04:27	191587	5.0.10.0	5_exp_noRW	32	Rpleas_acq	CS_A	CPPC	YFFY	DXXD	LWWL	JQQJ	ZHHZ	gütig	sonnig	genießen	vertrauen	küssen	träumen	gierig	sterben	gemein	versagen	krank	töten	47pct	acq_USpleas_CSunple1_noRW	acq1_noRW	1	66	0	0	300	300	634	50	0	1	1	blank2r.bmp	0	1	+	0	1	blank2r.bmp	252	1	DXXD	306	2	sonnig	559	0	0	0	0	0	0	0	0	0	0	0	0	0	0	0	0	0	0	0	0	0	0	0	0	0	0	0	0	0	0	0	0	0	0	0	0	0	0	0
071019	10:01:15	10:04:29	193893	5.0.10.0	5_exp_noRW	32	Rpleas_acq	CS_A	CPPC	YFFY	DXXD	LWWL	JQQJ	ZHHZ	gütig	sonnig	genießen	vertrauen	küssen	träumen	gierig	sterben	gemein	versagen	krank	töten	53pct	acq_USpleas_CSpleas2_noRW	acq1_noRW	1	67	0	0	300	300	1142	50	0	1	1	blank2r.bmp	0	1	+	0	1	blank2r.bmp	252	1	YFFY	306	3	träumen	559	0	0	0	0	0	0	0	0	0	0	0	0	0	0	0	0	0	0	0	0	0	0	0	0	0	0	0	0	0	0	0	0	0	0	0	0	0	0	0
071019	10:01:15	10:04:31	195812	5.0.10.0	5_exp_noRW	32	Rpleas_acq	CS_A	CPPC	YFFY	DXXD	LWWL	JQQJ	ZHHZ	gütig	sonnig	genießen	vertrauen	küssen	träumen	gierig	sterben	gemein	versagen	krank	töten	53pct	acq_USpleas_CSpleas2_noRW	acq1_noRW	1	68	0	0	300	300	740	50	0	1	1	blank2r.bmp	0	1	+	0	1	blank2r.bmp	252	1	YFFY	306	2	küssen	559	0	0	0	0	0	0	0	0	0	0	0	0	0	0	0	0	0	0	0	0	0	0	0	0	0	0	0	0	0	0	0	0	0	0	0	0	0	0	0
071019	10:01:15	10:04:34	198478	5.0.10.0	5_exp_noRW	32	Rpleas_acq	CS_A	CPPC	YFFY	DXXD	LWWL	JQQJ	ZHHZ	gütig	sonnig	genießen	vertrauen	küssen	träumen	gierig	sterben	gemein	versagen	krank	töten	53pct	acq_USunple_CSunple1_noRW	acq1_noRW	1	69	0	0	300	300	1273	50	0	0	1	blank2r.bmp	0	1	+	0	1	blank2r.bmp	252	1	DXXD	306	1	gierig	559	1	FEHLER	1865	0	0	0	0	0	0	0	0	0	0	0	0	0	0	0	0	0	0	0	0	0	0	0	0	0	0	0	0	0	0	0	0	0	0	0	0
071019	10:01:15	10:04:36	200224	5.0.10.0	5_exp_noRW	32	Rpleas_acq	CS_A	CPPC	YFFY	DXXD	LWWL	JQQJ	ZHHZ	gütig	sonnig	genießen	vertrauen	küssen	träumen	gierig	sterben	gemein	versagen	krank	töten	53pct	acq_USunple_CSunple2_noRW	acq1_noRW	1	70	0	0	300	300	791	46	0	1	1	blank2r.bmp	0	1	+	0	1	blank2r.bmp	252	1	LWWL	306	3	töten	559	0	0	0	0	0	0	0	0	0	0	0	0	0	0	0	0	0	0	0	0	0	0	0	0	0	0	0	0	0	0	0	0	0	0	0	0	0	0	0
071019	10:01:15	10:04:37	201957	5.0.10.0	5_exp_noRW	32	Rpleas_acq	CS_A	CPPC	YFFY	DXXD	LWWL	JQQJ	ZHHZ	gütig	sonnig	genießen	vertrauen	küssen	träumen	gierig	sterben	gemein	versagen	krank	töten	47pct	acq_USpleas_CSpleas1_noRW	acq1_noRW	1	71	0	0	300	300	546	50	0	1	1	blank2r.bmp	0	1	+	0	1	blank2r.bmp	252	1	CPPC	306	2	sonnig	559	0	0	0	0	0	0	0	0	0	0	0	0	0	0	0	0	0	0	0	0	0	0	0	0	0	0	0	0	0	0	0	0	0	0	0	0	0	0	0
071019	10:01:15	10:04:39	203889	5.0.10.0	5_exp_noRW	32	Rpleas_acq	CS_A	CPPC	YFFY	DXXD	LWWL	JQQJ	ZHHZ	gütig	sonnig	genießen	vertrauen	küssen	träumen	gierig	sterben	gemein	versagen	krank	töten	47pct	acq_USpleas_CSpleas2_noRW	acq1_noRW	1	72	0	0	300	300	764	50	0	1	1	blank2r.bmp	0	1	+	0	1	blank2r.bmp	252	1	YFFY	306	1	vertrauen	559	0	0	0	0	0	0	0	0	0	0	0	0	0	0	0	0	0	0	0	0	0	0	0	0	0	0	0	0	0	0	0	0	0	0	0	0	0	0	0
071019	10:01:15	10:04:41	205968	5.0.10.0	5_exp_noRW	32	Rpleas_acq	CS_A	CPPC	YFFY	DXXD	LWWL	JQQJ	ZHHZ	gütig	sonnig	genießen	vertrauen	küssen	träumen	gierig	sterben	gemein	versagen	krank	töten	53pct	acq_USunple_CSpleas2_noRW	acq1_noRW	1	73	0	0	300	300	903	46	0	1	1	blank2r.bmp	0	1	+	0	1	blank2r.bmp	252	1	YFFY	306	3	töten	559	0	0	0	0	0	0	0	0	0	0	0	0	0	0	0	0	0	0	0	0	0	0	0	0	0	0	0	0	0	0	0	0	0	0	0	0	0	0	0
071019	10:01:15	10:04:43	207981	5.0.10.0	5_exp_noRW	32	Rpleas_acq	CS_A	CPPC	YFFY	DXXD	LWWL	JQQJ	ZHHZ	gütig	sonnig	genießen	vertrauen	küssen	träumen	gierig	sterben	gemein	versagen	krank	töten	53pct	acq_USunple_CSunple1_noRW	acq1_noRW	1	74	0	0	300	300	833	46	0	1	1	blank2r.bmp	0	1	+	0	1	blank2r.bmp	252	1	DXXD	306	3	gemein	559	0	0	0	0	0	0	0	0	0	0	0	0	0	0	0	0	0	0	0	0	0	0	0	0	0	0	0	0	0	0	0	0	0	0	0	0	0	0	0
071019	10:01:15	10:04:45	209767	5.0.10.0	5_exp_noRW	32	Rpleas_acq	CS_A	CPPC	YFFY	DXXD	LWWL	JQQJ	ZHHZ	gütig	sonnig	genießen	vertrauen	küssen	träumen	gierig	sterben	gemein	versagen	krank	töten	53pct	acq_USpleas_CSunple2_noRW	acq1_noRW	1	75	0	0	300	300	601	50	0	1	1	blank2r.bmp	0	1	+	0	1	blank2r.bmp	252	1	LWWL	306	3	träumen	559	0	0	0	0	0	0	0	0	0	0	0	0	0	0	0	0	0	0	0	0	0	0	0	0	0	0	0	0	0	0	0	0	0	0	0	0	0	0	0
071019	10:01:15	10:04:47	211526	5.0.10.0	5_exp_noRW	32	Rpleas_acq	CS_A	CPPC	YFFY	DXXD	LWWL	JQQJ	ZHHZ	gütig	sonnig	genießen	vertrauen	küssen	träumen	gierig	sterben	gemein	versagen	krank	töten	53pct	acq_USunple_CSunple1_noRW	acq1_noRW	1	76	0	0	300	300	585	46	0	1	1	blank2r.bmp	0	1	+	0	1	blank2r.bmp	252	1	DXXD	306	2	sterben	559	0	0	0	0	0	0	0	0	0	0	0	0	0	0	0	0	0	0	0	0	0	0	0	0	0	0	0	0	0	0	0	0	0	0	0	0	0	0	0
071019	10:01:15	10:04:49	213405	5.0.10.0	5_exp_noRW	32	Rpleas_acq	CS_A	CPPC	YFFY	DXXD	LWWL	JQQJ	ZHHZ	gütig	sonnig	genießen	vertrauen	küssen	träumen	gierig	sterben	gemein	versagen	krank	töten	47pct	acq_USunple_CSunple2_noRW	acq1_noRW	1	77	0	0	300	300	709	46	0	1	1	blank2r.bmp	0	1	+	0	1	blank2r.bmp	252	1	LWWL	306	1	versagen	559	0	0	0	0	0	0	0	0	0	0	0	0	0	0	0	0	0	0	0	0	0	0	0	0	0	0	0	0	0	0	0	0	0	0	0	0	0	0	0
071019	10:01:15	10:04:51	215231	5.0.10.0	5_exp_noRW	32	Rpleas_acq	CS_A	CPPC	YFFY	DXXD	LWWL	JQQJ	ZHHZ	gütig	sonnig	genießen	vertrauen	küssen	träumen	gierig	sterben	gemein	versagen	krank	töten	47pct	acq_USunple_CSunple1_noRW	acq1_noRW	1	78	0	0	300	300	642	46	0	1	1	blank2r.bmp	0	1	+	0	1	blank2r.bmp	252	1	DXXD	306	2	sterben	559	0	0	0	0	0	0	0	0	0	0	0	0	0	0	0	0	0	0	0	0	0	0	0	0	0	0	0	0	0	0	0	0	0	0	0	0	0	0	0
071019	10:01:15	10:04:53	217643	5.0.10.0	5_exp_noRW	32	Rpleas_acq	CS_A	CPPC	YFFY	DXXD	LWWL	JQQJ	ZHHZ	gütig	sonnig	genießen	vertrauen	küssen	träumen	gierig	sterben	gemein	versagen	krank	töten	53pct	acq_USpleas_CSpleas1_noRW	acq1_noRW	1	79	0	0	300	300	1227	50	0	1	1	blank2r.bmp	0	1	+	0	1	blank2r.bmp	252	1	CPPC	306	1	gütig	559	0	0	0	0	0	0	0	0	0	0	0	0	0	0	0	0	0	0	0	0	0	0	0	0	0	0	0	0	0	0	0	0	0	0	0	0	0	0	0
071019	10:01:15	10:04:55	219283	5.0.10.0	5_exp_noRW	32	Rpleas_acq	CS_A	CPPC	YFFY	DXXD	LWWL	JQQJ	ZHHZ	gütig	sonnig	genießen	vertrauen	küssen	träumen	gierig	sterben	gemein	versagen	krank	töten	53pct	acq_USpleas_CSpleas1_noRW	acq1_noRW	1	80	0	0	300	300	477	50	0	1	1	blank2r.bmp	0	1	+	0	1	blank2r.bmp	252	1	CPPC	306	2	sonnig	559	0	0	0	0	0	0	0	0	0	0	0	0	0	0	0	0	0	0	0	0	0	0	0	0	0	0	0	0	0	0	0	0	0	0	0	0	0	0	0
071019	10:01:15	10:05:05	229492	5.0.10.0	5_exp_noRW	32	Rpleas_acq	CS_A	CPPC	YFFY	DXXD	LWWL	JQQJ	ZHHZ	gütig	sonnig	genießen	vertrauen	küssen	träumen	gierig	sterben	gemein	versagen	krank	töten	53pct	acq_USunple_CSunple1_noRW	acq23456_noRW	2	1	0	0	300	300	897	46	0	1	1	blank2r.bmp	0	1	+	0	1	blank2r.bmp	252	1	DXXD	306	1	gierig	559	0	0	0	0	0	0	0	0	0	0	0	0	0	0	0	0	0	0	0	0	0	0	0	0	0	0	0	0	0	0	0	0	0	0	0	0	0	0	0
071019	10:01:15	10:05:07	231251	5.0.10.0	5_exp_noRW	32	Rpleas_acq	CS_A	CPPC	YFFY	DXXD	LWWL	JQQJ	ZHHZ	gütig	sonnig	genießen	vertrauen	küssen	träumen	gierig	sterben	gemein	versagen	krank	töten	53pct	acq_USunple_CSunple2_noRW	acq23456_noRW	2	2	0	0	300	300	578	46	0	1	1	blank2r.bmp	0	1	+	0	1	blank2r.bmp	252	1	LWWL	306	2	krank	559	0	0	0	0	0	0	0	0	0	0	0	0	0	0	0	0	0	0	0	0	0	0	0	0	0	0	0	0	0	0	0	0	0	0	0	0	0	0	0
071019	10:01:15	10:05:08	233010	5.0.10.0	5_exp_noRW	32	Rpleas_acq	CS_A	CPPC	YFFY	DXXD	LWWL	JQQJ	ZHHZ	gütig	sonnig	genießen	vertrauen	küssen	träumen	gierig	sterben	gemein	versagen	krank	töten	47pct	acq_USpleas_CSpleas1_noRW	acq23456_noRW	2	3	0	0	300	300	583	50	0	1	1	blank2r.bmp	0	1	+	0	1	blank2r.bmp	252	1	CPPC	306	1	gütig	559	0	0	0	0	0	0	0	0	0	0	0	0	0	0	0	0	0	0	0	0	0	0	0	0	0	0	0	0	0	0	0	0	0	0	0	0	0	0	0
071019	10:01:15	10:05:10	234770	5.0.10.0	5_exp_noRW	32	Rpleas_acq	CS_A	CPPC	YFFY	DXXD	LWWL	JQQJ	ZHHZ	gütig	sonnig	genießen	vertrauen	küssen	träumen	gierig	sterben	gemein	versagen	krank	töten	53pct	acq_USpleas_CSpleas1_noRW	acq23456_noRW	2	4	0	0	300	300	574	50	0	1	1	blank2r.bmp	0	1	+	0	1	blank2r.bmp	252	1	CPPC	306	3	genießen	559	0	0	0	0	0	0	0	0	0	0	0	0	0	0	0	0	0	0	0	0	0	0	0	0	0	0	0	0	0	0	0	0	0	0	0	0	0	0	0
071019	10:01:15	10:05:12	236476	5.0.10.0	5_exp_noRW	32	Rpleas_acq	CS_A	CPPC	YFFY	DXXD	LWWL	JQQJ	ZHHZ	gütig	sonnig	genießen	vertrauen	küssen	träumen	gierig	sterben	gemein	versagen	krank	töten	47pct	acq_USpleas_CSpleas1_noRW	acq23456_noRW	2	5	0	0	300	300	542	50	0	1	1	blank2r.bmp	0	1	+	0	1	blank2r.bmp	252	1	CPPC	306	2	sonnig	559	0	0	0	0	0	0	0	0	0	0	0	0	0	0	0	0	0	0	0	0	0	0	0	0	0	0	0	0	0	0	0	0	0	0	0	0	0	0	0
071019	10:01:15	10:05:14	238262	5.0.10.0	5_exp_noRW	32	Rpleas_acq	CS_A	CPPC	YFFY	DXXD	LWWL	JQQJ	ZHHZ	gütig	sonnig	genießen	vertrauen	küssen	träumen	gierig	sterben	gemein	versagen	krank	töten	53pct	acq_USpleas_CSpleas2_noRW	acq23456_noRW	2	6	0	0	300	300	605	50	0	1	1	blank2r.bmp	0	1	+	0	1	blank2r.bmp	252	1	YFFY	306	3	träumen	559	0	0	0	0	0	0	0	0	0	0	0	0	0	0	0	0	0	0	0	0	0	0	0	0	0	0	0	0	0	0	0	0	0	0	0	0	0	0	0
071019	10:01:15	10:05:15	239968	5.0.10.0	5_exp_noRW	32	Rpleas_acq	CS_A	CPPC	YFFY	DXXD	LWWL	JQQJ	ZHHZ	gütig	sonnig	genießen	vertrauen	küssen	träumen	gierig	sterben	gemein	versagen	krank	töten	47pct	acq_USunple_CSunple1_noRW	acq23456_noRW	2	7	0	0	300	300	534	46	0	1	1	blank2r.bmp	0	1	+	0	1	blank2r.bmp	252	1	DXXD	306	3	gemein	559	0	0	0	0	0	0	0	0	0	0	0	0	0	0	0	0	0	0	0	0	0	0	0	0	0	0	0	0	0	0	0	0	0	0	0	0	0	0	0
071019	10:01:15	10:05:17	241740	5.0.10.0	5_exp_noRW	32	Rpleas_acq	CS_A	CPPC	YFFY	DXXD	LWWL	JQQJ	ZHHZ	gütig	sonnig	genießen	vertrauen	küssen	träumen	gierig	sterben	gemein	versagen	krank	töten	47pct	acq_USunple_CSunple2_noRW	acq23456_noRW	2	8	0	0	300	300	599	46	0	1	1	blank2r.bmp	0	1	+	0	1	blank2r.bmp	252	1	LWWL	306	3	töten	559	0	0	0	0	0	0	0	0	0	0	0	0	0	0	0	0	0	0	0	0	0	0	0	0	0	0	0	0	0	0	0	0	0	0	0	0	0	0	0
071019	10:01:15	10:05:19	243899	5.0.10.0	5_exp_noRW	32	Rpleas_acq	CS_A	CPPC	YFFY	DXXD	LWWL	JQQJ	ZHHZ	gütig	sonnig	genießen	vertrauen	küssen	träumen	gierig	sterben	gemein	versagen	krank	töten	47pct	acq_USunple_CSunple1_noRW	acq23456_noRW	2	9	0	0	300	300	994	46	0	1	1	blank2r.bmp	0	1	+	0	1	blank2r.bmp	252	1	DXXD	306	3	gemein	559	0	0	0	0	0	0	0	0	0	0	0	0	0	0	0	0	0	0	0	0	0	0	0	0	0	0	0	0	0	0	0	0	0	0	0	0	0	0	0
071019	10:01:15	10:05:22	246152	5.0.10.0	5_exp_noRW	32	Rpleas_acq	CS_A	CPPC	YFFY	DXXD	LWWL	JQQJ	ZHHZ	gütig	sonnig	genießen	vertrauen	küssen	träumen	gierig	sterben	gemein	versagen	krank	töten	53pct	acq_USunple_CSunple1_noRW	acq23456_noRW	2	10	0	0	300	300	863	50	0	0	1	blank2r.bmp	0	1	+	0	1	blank2r.bmp	252	1	DXXD	306	1	gierig	559	1	FEHLER	1452	0	0	0	0	0	0	0	0	0	0	0	0	0	0	0	0	0	0	0	0	0	0	0	0	0	0	0	0	0	0	0	0	0	0	0	0
071019	10:01:15	10:05:23	247724	5.0.10.0	5_exp_noRW	32	Rpleas_acq	CS_A	CPPC	YFFY	DXXD	LWWL	JQQJ	ZHHZ	gütig	sonnig	genießen	vertrauen	küssen	träumen	gierig	sterben	gemein	versagen	krank	töten	53pct	acq_USpleas_CSunple1_noRW	acq23456_noRW	2	11	0	0	300	300	601	50	0	1	1	blank2r.bmp	0	1	+	0	1	blank2r.bmp	252	1	DXXD	306	3	genießen	559	0	0	0	0	0	0	0	0	0	0	0	0	0	0	0	0	0	0	0	0	0	0	0	0	0	0	0	0	0	0	0	0	0	0	0	0	0	0	0
071019	10:01:15	10:05:25	249404	5.0.10.0	5_exp_noRW	32	Rpleas_acq	CS_A	CPPC	YFFY	DXXD	LWWL	JQQJ	ZHHZ	gütig	sonnig	genießen	vertrauen	küssen	träumen	gierig	sterben	gemein	versagen	krank	töten	53pct	acq_USpleas_CSpleas2_noRW	acq23456_noRW	2	12	0	0	300	300	517	50	0	1	1	blank2r.bmp	0	1	+	0	1	blank2r.bmp	252	1	YFFY	306	2	küssen	559	0	0	0	0	0	0	0	0	0	0	0	0	0	0	0	0	0	0	0	0	0	0	0	0	0	0	0	0	0	0	0	0	0	0	0	0	0	0	0
071019	10:01:15	10:05:27	251056	5.0.10.0	5_exp_noRW	32	Rpleas_acq	CS_A	CPPC	YFFY	DXXD	LWWL	JQQJ	ZHHZ	gütig	sonnig	genießen	vertrauen	küssen	träumen	gierig	sterben	gemein	versagen	krank	töten	47pct	acq_USunple_CSunple2_noRW	acq23456_noRW	2	13	0	0	300	300	473	46	0	1	1	blank2r.bmp	0	1	+	0	1	blank2r.bmp	252	1	LWWL	306	3	töten	559	0	0	0	0	0	0	0	0	0	0	0	0	0	0	0	0	0	0	0	0	0	0	0	0	0	0	0	0	0	0	0	0	0	0	0	0	0	0	0
071019	10:01:15	10:05:28	252762	5.0.10.0	5_exp_noRW	32	Rpleas_acq	CS_A	CPPC	YFFY	DXXD	LWWL	JQQJ	ZHHZ	gütig	sonnig	genießen	vertrauen	küssen	träumen	gierig	sterben	gemein	versagen	krank	töten	53pct	acq_USpleas_CSpleas2_noRW	acq23456_noRW	2	14	0	0	300	300	540	50	0	1	1	blank2r.bmp	0	1	+	0	1	blank2r.bmp	252	1	YFFY	306	1	vertrauen	559	0	0	0	0	0	0	0	0	0	0	0	0	0	0	0	0	0	0	0	0	0	0	0	0	0	0	0	0	0	0	0	0	0	0	0	0	0	0	0
071019	10:01:15	10:05:30	254615	5.0.10.0	5_exp_noRW	32	Rpleas_acq	CS_A	CPPC	YFFY	DXXD	LWWL	JQQJ	ZHHZ	gütig	sonnig	genießen	vertrauen	küssen	träumen	gierig	sterben	gemein	versagen	krank	töten	53pct	acq_USunple_CSpleas2_noRW	acq23456_noRW	2	15	0	0	300	300	673	46	0	1	1	blank2r.bmp	0	1	+	0	1	blank2r.bmp	252	1	YFFY	306	1	versagen	559	0	0	0	0	0	0	0	0	0	0	0	0	0	0	0	0	0	0	0	0	0	0	0	0	0	0	0	0	0	0	0	0	0	0	0	0	0	0	0
071019	10:01:15	10:05:32	256308	5.0.10.0	5_exp_noRW	32	Rpleas_acq	CS_A	CPPC	YFFY	DXXD	LWWL	JQQJ	ZHHZ	gütig	sonnig	genießen	vertrauen	küssen	träumen	gierig	sterben	gemein	versagen	krank	töten	53pct	acq_USpleas_CSunple2_noRW	acq23456_noRW	2	16	0	0	300	300	517	50	0	1	1	blank2r.bmp	0	1	+	0	1	blank2r.bmp	252	1	LWWL	306	2	küssen	559	0	0	0	0	0	0	0	0	0	0	0	0	0	0	0	0	0	0	0	0	0	0	0	0	0	0	0	0	0	0	0	0	0	0	0	0	0	0	0
071019	10:01:15	10:05:34	258587	5.0.10.0	5_exp_noRW	32	Rpleas_acq	CS_A	CPPC	YFFY	DXXD	LWWL	JQQJ	ZHHZ	gütig	sonnig	genießen	vertrauen	küssen	träumen	gierig	sterben	gemein	versagen	krank	töten	53pct	acq_USunple_CSpleas1_noRW	acq23456_noRW	2	17	0	0	300	300	1102	46	0	1	1	blank2r.bmp	0	1	+	0	1	blank2r.bmp	252	1	CPPC	306	2	sterben	559	0	0	0	0	0	0	0	0	0	0	0	0	0	0	0	0	0	0	0	0	0	0	0	0	0	0	0	0	0	0	0	0	0	0	0	0	0	0	0
071019	10:01:15	10:05:36	260226	5.0.10.0	5_exp_noRW	32	Rpleas_acq	CS_A	CPPC	YFFY	DXXD	LWWL	JQQJ	ZHHZ	gütig	sonnig	genießen	vertrauen	küssen	träumen	gierig	sterben	gemein	versagen	krank	töten	53pct	acq_USpleas_CSpleas2_noRW	acq23456_noRW	2	18	0	0	300	300	464	50	0	1	1	blank2r.bmp	0	1	+	0	1	blank2r.bmp	252	1	YFFY	306	3	träumen	559	0	0	0	0	0	0	0	0	0	0	0	0	0	0	0	0	0	0	0	0	0	0	0	0	0	0	0	0	0	0	0	0	0	0	0	0	0	0	0
071019	10:01:15	10:05:38	262372	5.0.10.0	5_exp_noRW	32	Rpleas_acq	CS_A	CPPC	YFFY	DXXD	LWWL	JQQJ	ZHHZ	gütig	sonnig	genießen	vertrauen	küssen	träumen	gierig	sterben	gemein	versagen	krank	töten	47pct	acq_USpleas_CSpleas1_noRW	acq23456_noRW	2	19	0	0	300	300	736	46	0	0	1	blank2r.bmp	0	1	+	0	1	blank2r.bmp	252	1	CPPC	306	1	gütig	559	1	FEHLER	1332	0	0	0	0	0	0	0	0	0	0	0	0	0	0	0	0	0	0	0	0	0	0	0	0	0	0	0	0	0	0	0	0	0	0	0	0
071019	10:01:15	10:05:39	263958	5.0.10.0	5_exp_noRW	32	Rpleas_acq	CS_A	CPPC	YFFY	DXXD	LWWL	JQQJ	ZHHZ	gütig	sonnig	genießen	vertrauen	küssen	träumen	gierig	sterben	gemein	versagen	krank	töten	53pct	acq_USunple_CSunple2_noRW	acq23456_noRW	2	20	0	0	300	300	616	46	0	1	1	blank2r.bmp	0	1	+	0	1	blank2r.bmp	252	1	LWWL	306	2	krank	559	0	0	0	0	0	0	0	0	0	0	0	0	0	0	0	0	0	0	0	0	0	0	0	0	0	0	0	0	0	0	0	0	0	0	0	0	0	0	0
071019	10:01:15	10:05:41	265664	5.0.10.0	5_exp_noRW	32	Rpleas_acq	CS_A	CPPC	YFFY	DXXD	LWWL	JQQJ	ZHHZ	gütig	sonnig	genießen	vertrauen	küssen	träumen	gierig	sterben	gemein	versagen	krank	töten	53pct	acq_USpleas_CSpleas2_noRW	acq23456_noRW	2	21	0	0	300	300	543	50	0	1	1	blank2r.bmp	0	1	+	0	1	blank2r.bmp	252	1	YFFY	306	2	küssen	559	0	0	0	0	0	0	0	0	0	0	0	0	0	0	0	0	0	0	0	0	0	0	0	0	0	0	0	0	0	0	0	0	0	0	0	0	0	0	0
071019	10:01:15	10:05:43	267463	5.0.10.0	5_exp_noRW	32	Rpleas_acq	CS_A	CPPC	YFFY	DXXD	LWWL	JQQJ	ZHHZ	gütig	sonnig	genießen	vertrauen	küssen	träumen	gierig	sterben	gemein	versagen	krank	töten	53pct	acq_USpleas_CSpleas1_noRW	acq23456_noRW	2	22	0	0	300	300	619	50	0	1	1	blank2r.bmp	0	1	+	0	1	blank2r.bmp	252	1	CPPC	306	3	genießen	559	0	0	0	0	0	0	0	0	0	0	0	0	0	0	0	0	0	0	0	0	0	0	0	0	0	0	0	0	0	0	0	0	0	0	0	0	0	0	0
071019	10:01:15	10:05:45	269289	5.0.10.0	5_exp_noRW	32	Rpleas_acq	CS_A	CPPC	YFFY	DXXD	LWWL	JQQJ	ZHHZ	gütig	sonnig	genießen	vertrauen	küssen	träumen	gierig	sterben	gemein	versagen	krank	töten	47pct	acq_USunple_CSunple1_noRW	acq23456_noRW	2	23	0	0	300	300	649	46	0	1	1	blank2r.bmp	0	1	+	0	1	blank2r.bmp	252	1	DXXD	306	2	sterben	559	0	0	0	0	0	0	0	0	0	0	0	0	0	0	0	0	0	0	0	0	0	0	0	0	0	0	0	0	0	0	0	0	0	0	0	0	0	0	0
071019	10:01:15	10:05:47	271155	5.0.10.0	5_exp_noRW	32	Rpleas_acq	CS_A	CPPC	YFFY	DXXD	LWWL	JQQJ	ZHHZ	gütig	sonnig	genießen	vertrauen	küssen	träumen	gierig	sterben	gemein	versagen	krank	töten	47pct	acq_USpleas_CSunple1_noRW	acq23456_noRW	2	24	0	0	300	300	703	50	0	1	1	blank2r.bmp	0	1	+	0	1	blank2r.bmp	252	1	DXXD	306	1	gütig	559	0	0	0	0	0	0	0	0	0	0	0	0	0	0	0	0	0	0	0	0	0	0	0	0	0	0	0	0	0	0	0	0	0	0	0	0	0	0	0
071019	10:01:15	10:05:48	272927	5.0.10.0	5_exp_noRW	32	Rpleas_acq	CS_A	CPPC	YFFY	DXXD	LWWL	JQQJ	ZHHZ	gütig	sonnig	genießen	vertrauen	küssen	träumen	gierig	sterben	gemein	versagen	krank	töten	53pct	acq_USpleas_CSunple2_noRW	acq23456_noRW	2	25	0	0	300	300	595	50	0	1	1	blank2r.bmp	0	1	+	0	1	blank2r.bmp	252	1	LWWL	306	1	vertrauen	559	0	0	0	0	0	0	0	0	0	0	0	0	0	0	0	0	0	0	0	0	0	0	0	0	0	0	0	0	0	0	0	0	0	0	0	0	0	0	0
071019	10:01:15	10:05:50	274673	5.0.10.0	5_exp_noRW	32	Rpleas_acq	CS_A	CPPC	YFFY	DXXD	LWWL	JQQJ	ZHHZ	gütig	sonnig	genießen	vertrauen	küssen	träumen	gierig	sterben	gemein	versagen	krank	töten	47pct	acq_USpleas_CSpleas1_noRW	acq23456_noRW	2	26	0	0	300	300	569	50	0	1	1	blank2r.bmp	0	1	+	0	1	blank2r.bmp	252	1	CPPC	306	3	genießen	559	0	0	0	0	0	0	0	0	0	0	0	0	0	0	0	0	0	0	0	0	0	0	0	0	0	0	0	0	0	0	0	0	0	0	0	0	0	0	0
071019	10:01:15	10:05:52	276673	5.0.10.0	5_exp_noRW	32	Rpleas_acq	CS_A	CPPC	YFFY	DXXD	LWWL	JQQJ	ZHHZ	gütig	sonnig	genießen	vertrauen	küssen	träumen	gierig	sterben	gemein	versagen	krank	töten	47pct	acq_USpleas_CSpleas2_noRW	acq23456_noRW	2	27	0	0	300	300	607	46	0	0	1	blank2r.bmp	0	1	+	0	1	blank2r.bmp	252	1	YFFY	306	3	träumen	559	1	FEHLER	1199	0	0	0	0	0	0	0	0	0	0	0	0	0	0	0	0	0	0	0	0	0	0	0	0	0	0	0	0	0	0	0	0	0	0	0	0
071019	10:01:15	10:05:54	278312	5.0.10.0	5_exp_noRW	32	Rpleas_acq	CS_A	CPPC	YFFY	DXXD	LWWL	JQQJ	ZHHZ	gütig	sonnig	genießen	vertrauen	küssen	träumen	gierig	sterben	gemein	versagen	krank	töten	47pct	acq_USunple_CSpleas2_noRW	acq23456_noRW	2	28	0	0	300	300	455	50	0	0	1	blank2r.bmp	0	1	+	0	1	blank2r.bmp	252	1	YFFY	306	2	krank	559	1	FEHLER	1052	0	0	0	0	0	0	0	0	0	0	0	0	0	0	0	0	0	0	0	0	0	0	0	0	0	0	0	0	0	0	0	0	0	0	0	0
071019	10:01:15	10:05:55	279951	5.0.10.0	5_exp_noRW	32	Rpleas_acq	CS_A	CPPC	YFFY	DXXD	LWWL	JQQJ	ZHHZ	gütig	sonnig	genießen	vertrauen	küssen	träumen	gierig	sterben	gemein	versagen	krank	töten	47pct	acq_USunple_CSunple2_noRW	acq23456_noRW	2	29	0	0	300	300	665	46	0	1	1	blank2r.bmp	0	1	+	0	1	blank2r.bmp	252	1	LWWL	306	1	versagen	559	0	0	0	0	0	0	0	0	0	0	0	0	0	0	0	0	0	0	0	0	0	0	0	0	0	0	0	0	0	0	0	0	0	0	0	0	0	0	0
071019	10:01:15	10:05:57	281697	5.0.10.0	5_exp_noRW	32	Rpleas_acq	CS_A	CPPC	YFFY	DXXD	LWWL	JQQJ	ZHHZ	gütig	sonnig	genießen	vertrauen	küssen	träumen	gierig	sterben	gemein	versagen	krank	töten	47pct	acq_USunple_CSunple2_noRW	acq23456_noRW	2	30	0	0	300	300	573	46	0	1	1	blank2r.bmp	0	1	+	0	1	blank2r.bmp	252	1	LWWL	306	1	versagen	559	0	0	0	0	0	0	0	0	0	0	0	0	0	0	0	0	0	0	0	0	0	0	0	0	0	0	0	0	0	0	0	0	0	0	0	0	0	0	0
071019	10:01:15	10:05:59	283443	5.0.10.0	5_exp_noRW	32	Rpleas_acq	CS_A	CPPC	YFFY	DXXD	LWWL	JQQJ	ZHHZ	gütig	sonnig	genießen	vertrauen	küssen	träumen	gierig	sterben	gemein	versagen	krank	töten	47pct	acq_USpleas_CSpleas2_noRW	acq23456_noRW	2	31	0	0	300	300	583	50	0	1	1	blank2r.bmp	0	1	+	0	1	blank2r.bmp	252	1	YFFY	306	2	küssen	559	0	0	0	0	0	0	0	0	0	0	0	0	0	0	0	0	0	0	0	0	0	0	0	0	0	0	0	0	0	0	0	0	0	0	0	0	0	0	0
071019	10:01:15	10:06:01	285162	5.0.10.0	5_exp_noRW	32	Rpleas_acq	CS_A	CPPC	YFFY	DXXD	LWWL	JQQJ	ZHHZ	gütig	sonnig	genießen	vertrauen	küssen	träumen	gierig	sterben	gemein	versagen	krank	töten	53pct	acq_USpleas_CSpleas2_noRW	acq23456_noRW	2	32	0	0	300	300	540	50	0	1	1	blank2r.bmp	0	1	+	0	1	blank2r.bmp	252	1	YFFY	306	1	vertrauen	559	0	0	0	0	0	0	0	0	0	0	0	0	0	0	0	0	0	0	0	0	0	0	0	0	0	0	0	0	0	0	0	0	0	0	0	0	0	0	0
071019	10:01:15	10:06:02	286935	5.0.10.0	5_exp_noRW	32	Rpleas_acq	CS_A	CPPC	YFFY	DXXD	LWWL	JQQJ	ZHHZ	gütig	sonnig	genießen	vertrauen	küssen	träumen	gierig	sterben	gemein	versagen	krank	töten	53pct	acq_USunple_CSunple1_noRW	acq23456_noRW	2	33	0	0	300	300	596	46	0	1	1	blank2r.bmp	0	1	+	0	1	blank2r.bmp	252	1	DXXD	306	1	gierig	559	0	0	0	0	0	0	0	0	0	0	0	0	0	0	0	0	0	0	0	0	0	0	0	0	0	0	0	0	0	0	0	0	0	0	0	0	0	0	0
071019	10:01:15	10:06:04	288814	5.0.10.0	5_exp_noRW	32	Rpleas_acq	CS_A	CPPC	YFFY	DXXD	LWWL	JQQJ	ZHHZ	gütig	sonnig	genießen	vertrauen	küssen	träumen	gierig	sterben	gemein	versagen	krank	töten	47pct	acq_USunple_CSunple1_noRW	acq23456_noRW	2	34	0	0	300	300	692	46	0	1	1	blank2r.bmp	0	1	+	0	1	blank2r.bmp	252	1	DXXD	306	3	gemein	559	0	0	0	0	0	0	0	0	0	0	0	0	0	0	0	0	0	0	0	0	0	0	0	0	0	0	0	0	0	0	0	0	0	0	0	0	0	0	0
071019	10:01:15	10:06:07	291213	5.0.10.0	5_exp_noRW	32	Rpleas_acq	CS_A	CPPC	YFFY	DXXD	LWWL	JQQJ	ZHHZ	gütig	sonnig	genießen	vertrauen	küssen	träumen	gierig	sterben	gemein	versagen	krank	töten	47pct	acq_USunple_CSunple2_noRW	acq23456_noRW	2	35	0	0	300	300	1233	46	0	1	1	blank2r.bmp	0	1	+	0	1	blank2r.bmp	252	1	LWWL	306	3	töten	559	0	0	0	0	0	0	0	0	0	0	0	0	0	0	0	0	0	0	0	0	0	0	0	0	0	0	0	0	0	0	0	0	0	0	0	0	0	0	0
071019	10:01:15	10:06:08	292839	5.0.10.0	5_exp_noRW	32	Rpleas_acq	CS_A	CPPC	YFFY	DXXD	LWWL	JQQJ	ZHHZ	gütig	sonnig	genießen	vertrauen	küssen	träumen	gierig	sterben	gemein	versagen	krank	töten	53pct	acq_USunple_CSpleas1_noRW	acq23456_noRW	2	36	0	0	300	300	448	46	0	1	1	blank2r.bmp	0	1	+	0	1	blank2r.bmp	252	1	CPPC	306	1	gierig	559	0	0	0	0	0	0	0	0	0	0	0	0	0	0	0	0	0	0	0	0	0	0	0	0	0	0	0	0	0	0	0	0	0	0	0	0	0	0	0
071019	10:01:15	10:06:10	294492	5.0.10.0	5_exp_noRW	32	Rpleas_acq	CS_A	CPPC	YFFY	DXXD	LWWL	JQQJ	ZHHZ	gütig	sonnig	genießen	vertrauen	küssen	träumen	gierig	sterben	gemein	versagen	krank	töten	53pct	acq_USunple_CSunple2_noRW	acq23456_noRW	2	37	0	0	300	300	466	46	0	1	1	blank2r.bmp	0	1	+	0	1	blank2r.bmp	252	1	LWWL	306	2	krank	559	0	0	0	0	0	0	0	0	0	0	0	0	0	0	0	0	0	0	0	0	0	0	0	0	0	0	0	0	0	0	0	0	0	0	0	0	0	0	0
071019	10:01:15	10:06:12	296145	5.0.10.0	5_exp_noRW	32	Rpleas_acq	CS_A	CPPC	YFFY	DXXD	LWWL	JQQJ	ZHHZ	gütig	sonnig	genießen	vertrauen	küssen	träumen	gierig	sterben	gemein	versagen	krank	töten	53pct	acq_USunple_CSunple1_noRW	acq23456_noRW	2	38	0	0	300	300	481	46	0	1	1	blank2r.bmp	0	1	+	0	1	blank2r.bmp	252	1	DXXD	306	2	sterben	559	0	0	0	0	0	0	0	0	0	0	0	0	0	0	0	0	0	0	0	0	0	0	0	0	0	0	0	0	0	0	0	0	0	0	0	0	0	0	0
071019	10:01:15	10:06:13	297797	5.0.10.0	5_exp_noRW	32	Rpleas_acq	CS_A	CPPC	YFFY	DXXD	LWWL	JQQJ	ZHHZ	gütig	sonnig	genießen	vertrauen	küssen	träumen	gierig	sterben	gemein	versagen	krank	töten	53pct	acq_USpleas_CSpleas1_noRW	acq23456_noRW	2	39	0	0	300	300	485	50	0	1	1	blank2r.bmp	0	1	+	0	1	blank2r.bmp	252	1	CPPC	306	2	sonnig	559	0	0	0	0	0	0	0	0	0	0	0	0	0	0	0	0	0	0	0	0	0	0	0	0	0	0	0	0	0	0	0	0	0	0	0	0	0	0	0
071019	10:01:15	10:06:15	299490	5.0.10.0	5_exp_noRW	32	Rpleas_acq	CS_A	CPPC	YFFY	DXXD	LWWL	JQQJ	ZHHZ	gütig	sonnig	genießen	vertrauen	küssen	träumen	gierig	sterben	gemein	versagen	krank	töten	53pct	acq_USpleas_CSpleas1_noRW	acq23456_noRW	2	40	0	0	300	300	509	50	0	1	1	blank2r.bmp	0	1	+	0	1	blank2r.bmp	252	1	CPPC	306	1	gütig	559	0	0	0	0	0	0	0	0	0	0	0	0	0	0	0	0	0	0	0	0	0	0	0	0	0	0	0	0	0	0	0	0	0	0	0	0	0	0	0
071019	10:01:15	10:06:17	301223	5.0.10.0	5_exp_noRW	32	Rpleas_acq	CS_A	CPPC	YFFY	DXXD	LWWL	JQQJ	ZHHZ	gütig	sonnig	genießen	vertrauen	küssen	träumen	gierig	sterben	gemein	versagen	krank	töten	47pct	acq_USpleas_CSpleas2_noRW	acq23456_noRW	2	41	0	0	300	300	547	50	0	1	1	blank2r.bmp	0	1	+	0	1	blank2r.bmp	252	1	YFFY	306	1	vertrauen	559	0	0	0	0	0	0	0	0	0	0	0	0	0	0	0	0	0	0	0	0	0	0	0	0	0	0	0	0	0	0	0	0	0	0	0	0	0	0	0
071019	10:01:15	10:06:18	302942	5.0.10.0	5_exp_noRW	32	Rpleas_acq	CS_A	CPPC	YFFY	DXXD	LWWL	JQQJ	ZHHZ	gütig	sonnig	genießen	vertrauen	küssen	träumen	gierig	sterben	gemein	versagen	krank	töten	47pct	acq_USpleas_CSpleas1_noRW	acq23456_noRW	2	42	0	0	300	300	553	50	0	1	1	blank2r.bmp	0	1	+	0	1	blank2r.bmp	252	1	CPPC	306	3	genießen	559	0	0	0	0	0	0	0	0	0	0	0	0	0	0	0	0	0	0	0	0	0	0	0	0	0	0	0	0	0	0	0	0	0	0	0	0	0	0	0
071019	10:01:15	10:06:20	304648	5.0.10.0	5_exp_noRW	32	Rpleas_acq	CS_A	CPPC	YFFY	DXXD	LWWL	JQQJ	ZHHZ	gütig	sonnig	genießen	vertrauen	küssen	träumen	gierig	sterben	gemein	versagen	krank	töten	47pct	acq_USunple_CSunple1_noRW	acq23456_noRW	2	43	0	0	300	300	534	46	0	1	1	blank2r.bmp	0	1	+	0	1	blank2r.bmp	252	1	DXXD	306	2	sterben	559	0	0	0	0	0	0	0	0	0	0	0	0	0	0	0	0	0	0	0	0	0	0	0	0	0	0	0	0	0	0	0	0	0	0	0	0	0	0	0
071019	10:01:15	10:06:22	306540	5.0.10.0	5_exp_noRW	32	Rpleas_acq	CS_A	CPPC	YFFY	DXXD	LWWL	JQQJ	ZHHZ	gütig	sonnig	genießen	vertrauen	küssen	träumen	gierig	sterben	gemein	versagen	krank	töten	53pct	acq_USunple_CSunple2_noRW	acq23456_noRW	2	44	0	0	300	300	731	46	0	1	1	blank2r.bmp	0	1	+	0	1	blank2r.bmp	252	1	LWWL	306	2	krank	559	0	0	0	0	0	0	0	0	0	0	0	0	0	0	0	0	0	0	0	0	0	0	0	0	0	0	0	0	0	0	0	0	0	0	0	0	0	0	0
071019	10:01:15	10:06:24	308233	5.0.10.0	5_exp_noRW	32	Rpleas_acq	CS_A	CPPC	YFFY	DXXD	LWWL	JQQJ	ZHHZ	gütig	sonnig	genießen	vertrauen	küssen	träumen	gierig	sterben	gemein	versagen	krank	töten	47pct	acq_USpleas_CSpleas1_noRW	acq23456_noRW	2	45	0	0	300	300	515	50	0	1	1	blank2r.bmp	0	1	+	0	1	blank2r.bmp	252	1	CPPC	306	2	sonnig	559	0	0	0	0	0	0	0	0	0	0	0	0	0	0	0	0	0	0	0	0	0	0	0	0	0	0	0	0	0	0	0	0	0	0	0	0	0	0	0
071019	10:01:15	10:06:25	310019	5.0.10.0	5_exp_noRW	32	Rpleas_acq	CS_A	CPPC	YFFY	DXXD	LWWL	JQQJ	ZHHZ	gütig	sonnig	genießen	vertrauen	küssen	träumen	gierig	sterben	gemein	versagen	krank	töten	47pct	acq_USunple_CSpleas2_noRW	acq23456_noRW	2	46	0	0	300	300	606	46	0	1	1	blank2r.bmp	0	1	+	0	1	blank2r.bmp	252	1	YFFY	306	1	versagen	559	0	0	0	0	0	0	0	0	0	0	0	0	0	0	0	0	0	0	0	0	0	0	0	0	0	0	0	0	0	0	0	0	0	0	0	0	0	0	0
071019	10:01:15	10:06:27	311725	5.0.10.0	5_exp_noRW	32	Rpleas_acq	CS_A	CPPC	YFFY	DXXD	LWWL	JQQJ	ZHHZ	gütig	sonnig	genießen	vertrauen	küssen	träumen	gierig	sterben	gemein	versagen	krank	töten	53pct	acq_USunple_CSunple2_noRW	acq23456_noRW	2	47	0	0	300	300	529	46	0	1	1	blank2r.bmp	0	1	+	0	1	blank2r.bmp	252	1	LWWL	306	1	versagen	559	0	0	0	0	0	0	0	0	0	0	0	0	0	0	0	0	0	0	0	0	0	0	0	0	0	0	0	0	0	0	0	0	0	0	0	0	0	0	0
071019	10:01:15	10:06:29	313458	5.0.10.0	5_exp_noRW	32	Rpleas_acq	CS_A	CPPC	YFFY	DXXD	LWWL	JQQJ	ZHHZ	gütig	sonnig	genießen	vertrauen	küssen	träumen	gierig	sterben	gemein	versagen	krank	töten	53pct	acq_USpleas_CSpleas1_noRW	acq23456_noRW	2	48	0	0	300	300	549	50	0	1	1	blank2r.bmp	0	1	+	0	1	blank2r.bmp	252	1	CPPC	306	1	gütig	559	0	0	0	0	0	0	0	0	0	0	0	0	0	0	0	0	0	0	0	0	0	0	0	0	0	0	0	0	0	0	0	0	0	0	0	0	0	0	0
071019	10:01:15	10:06:31	315097	5.0.10.0	5_exp_noRW	32	Rpleas_acq	CS_A	CPPC	YFFY	DXXD	LWWL	JQQJ	ZHHZ	gütig	sonnig	genießen	vertrauen	küssen	träumen	gierig	sterben	gemein	versagen	krank	töten	53pct	acq_USpleas_CSpleas2_noRW	acq23456_noRW	2	49	0	0	300	300	471	50	0	1	1	blank2r.bmp	0	1	+	0	1	blank2r.bmp	252	1	YFFY	306	2	küssen	559	0	0	0	0	0	0	0	0	0	0	0	0	0	0	0	0	0	0	0	0	0	0	0	0	0	0	0	0	0	0	0	0	0	0	0	0	0	0	0
071019	10:01:15	10:06:32	316736	5.0.10.0	5_exp_noRW	32	Rpleas_acq	CS_A	CPPC	YFFY	DXXD	LWWL	JQQJ	ZHHZ	gütig	sonnig	genießen	vertrauen	küssen	träumen	gierig	sterben	gemein	versagen	krank	töten	53pct	acq_USunple_CSunple2_noRW	acq23456_noRW	2	50	0	0	300	300	476	46	0	1	1	blank2r.bmp	0	1	+	0	1	blank2r.bmp	252	1	LWWL	306	3	töten	559	0	0	0	0	0	0	0	0	0	0	0	0	0	0	0	0	0	0	0	0	0	0	0	0	0	0	0	0	0	0	0	0	0	0	0	0	0	0	0
071019	10:01:15	10:06:34	318602	5.0.10.0	5_exp_noRW	32	Rpleas_acq	CS_A	CPPC	YFFY	DXXD	LWWL	JQQJ	ZHHZ	gütig	sonnig	genießen	vertrauen	küssen	träumen	gierig	sterben	gemein	versagen	krank	töten	53pct	acq_USunple_CSunple1_noRW	acq23456_noRW	2	51	0	0	300	300	678	46	0	1	1	blank2r.bmp	0	1	+	0	1	blank2r.bmp	252	1	DXXD	306	3	gemein	559	0	0	0	0	0	0	0	0	0	0	0	0	0	0	0	0	0	0	0	0	0	0	0	0	0	0	0	0	0	0	0	0	0	0	0	0	0	0	0
071019	10:01:15	10:06:36	320335	5.0.10.0	5_exp_noRW	32	Rpleas_acq	CS_A	CPPC	YFFY	DXXD	LWWL	JQQJ	ZHHZ	gütig	sonnig	genießen	vertrauen	küssen	träumen	gierig	sterben	gemein	versagen	krank	töten	53pct	acq_USpleas_CSpleas2_noRW	acq23456_noRW	2	52	0	0	300	300	563	50	0	1	1	blank2r.bmp	0	1	+	0	1	blank2r.bmp	252	1	YFFY	306	3	träumen	559	0	0	0	0	0	0	0	0	0	0	0	0	0	0	0	0	0	0	0	0	0	0	0	0	0	0	0	0	0	0	0	0	0	0	0	0	0	0	0
071019	10:01:15	10:06:38	322174	5.0.10.0	5_exp_noRW	32	Rpleas_acq	CS_A	CPPC	YFFY	DXXD	LWWL	JQQJ	ZHHZ	gütig	sonnig	genießen	vertrauen	küssen	träumen	gierig	sterben	gemein	versagen	krank	töten	47pct	acq_USunple_CSunple1_noRW	acq23456_noRW	2	53	0	0	300	300	669	46	0	1	1	blank2r.bmp	0	1	+	0	1	blank2r.bmp	252	1	DXXD	306	1	gierig	559	0	0	0	0	0	0	0	0	0	0	0	0	0	0	0	0	0	0	0	0	0	0	0	0	0	0	0	0	0	0	0	0	0	0	0	0	0	0	0
071019	10:01:15	10:06:39	323893	5.0.10.0	5_exp_noRW	32	Rpleas_acq	CS_A	CPPC	YFFY	DXXD	LWWL	JQQJ	ZHHZ	gütig	sonnig	genießen	vertrauen	küssen	träumen	gierig	sterben	gemein	versagen	krank	töten	47pct	acq_USunple_CSunple2_noRW	acq23456_noRW	2	54	0	0	300	300	552	46	0	1	1	blank2r.bmp	0	1	+	0	1	blank2r.bmp	252	1	LWWL	306	3	töten	559	0	0	0	0	0	0	0	0	0	0	0	0	0	0	0	0	0	0	0	0	0	0	0	0	0	0	0	0	0	0	0	0	0	0	0	0	0	0	0
071019	10:01:15	10:06:41	325533	5.0.10.0	5_exp_noRW	32	Rpleas_acq	CS_A	CPPC	YFFY	DXXD	LWWL	JQQJ	ZHHZ	gütig	sonnig	genießen	vertrauen	küssen	träumen	gierig	sterben	gemein	versagen	krank	töten	47pct	acq_USunple_CSunple1_noRW	acq23456_noRW	2	55	0	0	300	300	466	46	0	1	1	blank2r.bmp	0	1	+	0	1	blank2r.bmp	252	1	DXXD	306	2	sterben	559	0	0	0	0	0	0	0	0	0	0	0	0	0	0	0	0	0	0	0	0	0	0	0	0	0	0	0	0	0	0	0	0	0	0	0	0	0	0	0
071019	10:01:15	10:06:43	327425	5.0.10.0	5_exp_noRW	32	Rpleas_acq	CS_A	CPPC	YFFY	DXXD	LWWL	JQQJ	ZHHZ	gütig	sonnig	genießen	vertrauen	küssen	träumen	gierig	sterben	gemein	versagen	krank	töten	53pct	acq_USpleas_CSpleas2_noRW	acq23456_noRW	2	56	0	0	300	300	722	50	0	1	1	blank2r.bmp	0	1	+	0	1	blank2r.bmp	252	1	YFFY	306	2	küssen	559	0	0	0	0	0	0	0	0	0	0	0	0	0	0	0	0	0	0	0	0	0	0	0	0	0	0	0	0	0	0	0	0	0	0	0	0	0	0	0
071019	10:01:15	10:06:45	329091	5.0.10.0	5_exp_noRW	32	Rpleas_acq	CS_A	CPPC	YFFY	DXXD	LWWL	JQQJ	ZHHZ	gütig	sonnig	genießen	vertrauen	küssen	träumen	gierig	sterben	gemein	versagen	krank	töten	53pct	acq_USpleas_CSunple2_noRW	acq23456_noRW	2	57	0	0	300	300	486	50	0	1	1	blank2r.bmp	0	1	+	0	1	blank2r.bmp	252	1	LWWL	306	2	küssen	559	0	0	0	0	0	0	0	0	0	0	0	0	0	0	0	0	0	0	0	0	0	0	0	0	0	0	0	0	0	0	0	0	0	0	0	0	0	0	0
071019	10:01:15	10:06:46	330744	5.0.10.0	5_exp_noRW	32	Rpleas_acq	CS_A	CPPC	YFFY	DXXD	LWWL	JQQJ	ZHHZ	gütig	sonnig	genießen	vertrauen	küssen	träumen	gierig	sterben	gemein	versagen	krank	töten	47pct	acq_USunple_CSpleas1_noRW	acq23456_noRW	2	58	0	0	300	300	475	46	0	1	1	blank2r.bmp	0	1	+	0	1	blank2r.bmp	252	1	CPPC	306	2	sterben	559	0	0	0	0	0	0	0	0	0	0	0	0	0	0	0	0	0	0	0	0	0	0	0	0	0	0	0	0	0	0	0	0	0	0	0	0	0	0	0
071019	10:01:15	10:06:48	332570	5.0.10.0	5_exp_noRW	32	Rpleas_acq	CS_A	CPPC	YFFY	DXXD	LWWL	JQQJ	ZHHZ	gütig	sonnig	genießen	vertrauen	küssen	träumen	gierig	sterben	gemein	versagen	krank	töten	53pct	acq_USpleas_CSpleas1_noRW	acq23456_noRW	2	59	0	0	300	300	639	50	0	1	1	blank2r.bmp	0	1	+	0	1	blank2r.bmp	252	1	CPPC	306	2	sonnig	559	0	0	0	0	0	0	0	0	0	0	0	0	0	0	0	0	0	0	0	0	0	0	0	0	0	0	0	0	0	0	0	0	0	0	0	0	0	0	0
071019	10:01:15	10:06:50	334422	5.0.10.0	5_exp_noRW	32	Rpleas_acq	CS_A	CPPC	YFFY	DXXD	LWWL	JQQJ	ZHHZ	gütig	sonnig	genießen	vertrauen	küssen	träumen	gierig	sterben	gemein	versagen	krank	töten	47pct	acq_USpleas_CSunple1_noRW	acq23456_noRW	2	60	0	0	300	300	689	50	0	1	1	blank2r.bmp	0	1	+	0	1	blank2r.bmp	252	1	DXXD	306	3	genießen	559	0	0	0	0	0	0	0	0	0	0	0	0	0	0	0	0	0	0	0	0	0	0	0	0	0	0	0	0	0	0	0	0	0	0	0	0	0	0	0
071019	10:01:15	10:06:52	336155	5.0.10.0	5_exp_noRW	32	Rpleas_acq	CS_A	CPPC	YFFY	DXXD	LWWL	JQQJ	ZHHZ	gütig	sonnig	genießen	vertrauen	küssen	träumen	gierig	sterben	gemein	versagen	krank	töten	47pct	acq_USunple_CSunple1_noRW	acq23456_noRW	2	61	0	0	300	300	558	46	0	1	1	blank2r.bmp	0	1	+	0	1	blank2r.bmp	252	1	DXXD	306	1	gierig	559	0	0	0	0	0	0	0	0	0	0	0	0	0	0	0	0	0	0	0	0	0	0	0	0	0	0	0	0	0	0	0	0	0	0	0	0	0	0	0
071019	10:01:15	10:06:54	338154	5.0.10.0	5_exp_noRW	32	Rpleas_acq	CS_A	CPPC	YFFY	DXXD	LWWL	JQQJ	ZHHZ	gütig	sonnig	genießen	vertrauen	küssen	träumen	gierig	sterben	gemein	versagen	krank	töten	47pct	acq_USunple_CSunple2_noRW	acq23456_noRW	2	62	0	0	300	300	600	50	0	0	1	blank2r.bmp	0	1	+	0	1	blank2r.bmp	252	1	LWWL	306	2	krank	559	1	FEHLER	1199	0	0	0	0	0	0	0	0	0	0	0	0	0	0	0	0	0	0	0	0	0	0	0	0	0	0	0	0	0	0	0	0	0	0	0	0
071019	10:01:15	10:06:55	339727	5.0.10.0	5_exp_noRW	32	Rpleas_acq	CS_A	CPPC	YFFY	DXXD	LWWL	JQQJ	ZHHZ	gütig	sonnig	genießen	vertrauen	küssen	träumen	gierig	sterben	gemein	versagen	krank	töten	53pct	acq_USpleas_CSpleas1_noRW	acq23456_noRW	2	63	0	0	300	300	600	50	0	1	1	blank2r.bmp	0	1	+	0	1	blank2r.bmp	252	1	CPPC	306	3	genießen	559	0	0	0	0	0	0	0	0	0	0	0	0	0	0	0	0	0	0	0	0	0	0	0	0	0	0	0	0	0	0	0	0	0	0	0	0	0	0	0
071019	10:01:15	10:06:57	341686	5.0.10.0	5_exp_noRW	32	Rpleas_acq	CS_A	CPPC	YFFY	DXXD	LWWL	JQQJ	ZHHZ	gütig	sonnig	genießen	vertrauen	küssen	träumen	gierig	sterben	gemein	versagen	krank	töten	47pct	acq_USpleas_CSpleas1_noRW	acq23456_noRW	2	64	0	0	300	300	789	50	0	1	1	blank2r.bmp	0	1	+	0	1	blank2r.bmp	252	1	CPPC	306	1	gütig	559	0	0	0	0	0	0	0	0	0	0	0	0	0	0	0	0	0	0	0	0	0	0	0	0	0	0	0	0	0	0	0	0	0	0	0	0	0	0	0
071019	10:01:15	10:06:59	343365	5.0.10.0	5_exp_noRW	32	Rpleas_acq	CS_A	CPPC	YFFY	DXXD	LWWL	JQQJ	ZHHZ	gütig	sonnig	genießen	vertrauen	küssen	träumen	gierig	sterben	gemein	versagen	krank	töten	53pct	acq_USunple_CSpleas2_noRW	acq23456_noRW	2	65	0	0	300	300	493	46	0	1	1	blank2r.bmp	0	1	+	0	1	blank2r.bmp	252	1	YFFY	306	2	krank	559	0	0	0	0	0	0	0	0	0	0	0	0	0	0	0	0	0	0	0	0	0	0	0	0	0	0	0	0	0	0	0	0	0	0	0	0	0	0	0
071019	10:01:15	10:07:01	345524	5.0.10.0	5_exp_noRW	32	Rpleas_acq	CS_A	CPPC	YFFY	DXXD	LWWL	JQQJ	ZHHZ	gütig	sonnig	genießen	vertrauen	küssen	träumen	gierig	sterben	gemein	versagen	krank	töten	47pct	acq_USunple_CSunple1_noRW	acq23456_noRW	2	66	0	0	300	300	998	46	0	1	1	blank2r.bmp	0	1	+	0	1	blank2r.bmp	252	1	DXXD	306	3	gemein	559	0	0	0	0	0	0	0	0	0	0	0	0	0	0	0	0	0	0	0	0	0	0	0	0	0	0	0	0	0	0	0	0	0	0	0	0	0	0	0
071019	10:01:15	10:07:03	347257	5.0.10.0	5_exp_noRW	32	Rpleas_acq	CS_A	CPPC	YFFY	DXXD	LWWL	JQQJ	ZHHZ	gütig	sonnig	genießen	vertrauen	küssen	träumen	gierig	sterben	gemein	versagen	krank	töten	53pct	acq_USpleas_CSpleas2_noRW	acq23456_noRW	2	67	0	0	300	300	548	50	0	1	1	blank2r.bmp	0	1	+	0	1	blank2r.bmp	252	1	YFFY	306	3	träumen	559	0	0	0	0	0	0	0	0	0	0	0	0	0	0	0	0	0	0	0	0	0	0	0	0	0	0	0	0	0	0	0	0	0	0	0	0	0	0	0
071019	10:01:15	10:07:04	349016	5.0.10.0	5_exp_noRW	32	Rpleas_acq	CS_A	CPPC	YFFY	DXXD	LWWL	JQQJ	ZHHZ	gütig	sonnig	genießen	vertrauen	küssen	träumen	gierig	sterben	gemein	versagen	krank	töten	53pct	acq_USpleas_CSpleas1_noRW	acq23456_noRW	2	68	0	0	300	300	592	50	0	1	1	blank2r.bmp	0	1	+	0	1	blank2r.bmp	252	1	CPPC	306	2	sonnig	559	0	0	0	0	0	0	0	0	0	0	0	0	0	0	0	0	0	0	0	0	0	0	0	0	0	0	0	0	0	0	0	0	0	0	0	0	0	0	0
071019	10:01:15	10:07:07	351229	5.0.10.0	5_exp_noRW	32	Rpleas_acq	CS_A	CPPC	YFFY	DXXD	LWWL	JQQJ	ZHHZ	gütig	sonnig	genießen	vertrauen	küssen	träumen	gierig	sterben	gemein	versagen	krank	töten	53pct	acq_USpleas_CSunple2_noRW	acq23456_noRW	2	69	0	0	300	300	815	46	0	0	1	blank2r.bmp	0	1	+	0	1	blank2r.bmp	252	1	LWWL	306	1	vertrauen	559	1	FEHLER	1412	0	0	0	0	0	0	0	0	0	0	0	0	0	0	0	0	0	0	0	0	0	0	0	0	0	0	0	0	0	0	0	0	0	0	0	0
071019	10:01:15	10:07:09	353295	5.0.10.0	5_exp_noRW	32	Rpleas_acq	CS_A	CPPC	YFFY	DXXD	LWWL	JQQJ	ZHHZ	gütig	sonnig	genießen	vertrauen	küssen	träumen	gierig	sterben	gemein	versagen	krank	töten	53pct	acq_USpleas_CSpleas1_noRW	acq23456_noRW	2	70	0	0	300	300	1096	50	0	1	1	blank2r.bmp	0	1	+	0	1	blank2r.bmp	252	1	CPPC	306	1	gütig	559	0	0	0	0	0	0	0	0	0	0	0	0	0	0	0	0	0	0	0	0	0	0	0	0	0	0	0	0	0	0	0	0	0	0	0	0	0	0	0
071019	10:01:15	10:07:10	354961	5.0.10.0	5_exp_noRW	32	Rpleas_acq	CS_A	CPPC	YFFY	DXXD	LWWL	JQQJ	ZHHZ	gütig	sonnig	genießen	vertrauen	küssen	träumen	gierig	sterben	gemein	versagen	krank	töten	53pct	acq_USpleas_CSpleas2_noRW	acq23456_noRW	2	71	0	0	300	300	504	50	0	1	1	blank2r.bmp	0	1	+	0	1	blank2r.bmp	252	1	YFFY	306	1	vertrauen	559	0	0	0	0	0	0	0	0	0	0	0	0	0	0	0	0	0	0	0	0	0	0	0	0	0	0	0	0	0	0	0	0	0	0	0	0	0	0	0
071019	10:01:15	10:07:12	356693	5.0.10.0	5_exp_noRW	32	Rpleas_acq	CS_A	CPPC	YFFY	DXXD	LWWL	JQQJ	ZHHZ	gütig	sonnig	genießen	vertrauen	küssen	träumen	gierig	sterben	gemein	versagen	krank	töten	53pct	acq_USunple_CSpleas1_noRW	acq23456_noRW	2	72	0	0	300	300	558	46	0	1	1	blank2r.bmp	0	1	+	0	1	blank2r.bmp	252	1	CPPC	306	3	gemein	559	0	0	0	0	0	0	0	0	0	0	0	0	0	0	0	0	0	0	0	0	0	0	0	0	0	0	0	0	0	0	0	0	0	0	0	0	0	0	0
071019	10:01:15	10:07:14	358439	5.0.10.0	5_exp_noRW	32	Rpleas_acq	CS_A	CPPC	YFFY	DXXD	LWWL	JQQJ	ZHHZ	gütig	sonnig	genießen	vertrauen	küssen	träumen	gierig	sterben	gemein	versagen	krank	töten	47pct	acq_USpleas_CSunple1_noRW	acq23456_noRW	2	73	0	0	300	300	564	50	0	1	1	blank2r.bmp	0	1	+	0	1	blank2r.bmp	252	1	DXXD	306	1	gütig	559	0	0	0	0	0	0	0	0	0	0	0	0	0	0	0	0	0	0	0	0	0	0	0	0	0	0	0	0	0	0	0	0	0	0	0	0	0	0	0
071019	10:01:15	10:07:16	360212	5.0.10.0	5_exp_noRW	32	Rpleas_acq	CS_A	CPPC	YFFY	DXXD	LWWL	JQQJ	ZHHZ	gütig	sonnig	genießen	vertrauen	küssen	träumen	gierig	sterben	gemein	versagen	krank	töten	53pct	acq_USunple_CSunple2_noRW	acq23456_noRW	2	74	0	0	300	300	588	46	0	1	1	blank2r.bmp	0	1	+	0	1	blank2r.bmp	252	1	LWWL	306	1	versagen	559	0	0	0	0	0	0	0	0	0	0	0	0	0	0	0	0	0	0	0	0	0	0	0	0	0	0	0	0	0	0	0	0	0	0	0	0	0	0	0
071019	10:01:15	10:07:18	362557	5.0.10.0	5_exp_noRW	32	Rpleas_acq	CS_A	CPPC	YFFY	DXXD	LWWL	JQQJ	ZHHZ	gütig	sonnig	genießen	vertrauen	küssen	träumen	gierig	sterben	gemein	versagen	krank	töten	47pct	acq_USunple_CSunple2_noRW	acq23456_noRW	2	75	0	0	300	300	1173	46	0	1	1	blank2r.bmp	0	1	+	0	1	blank2r.bmp	252	1	LWWL	306	2	krank	559	0	0	0	0	0	0	0	0	0	0	0	0	0	0	0	0	0	0	0	0	0	0	0	0	0	0	0	0	0	0	0	0	0	0	0	0	0	0	0
071019	10:01:15	10:07:20	364357	5.0.10.0	5_exp_noRW	32	Rpleas_acq	CS_A	CPPC	YFFY	DXXD	LWWL	JQQJ	ZHHZ	gütig	sonnig	genießen	vertrauen	küssen	träumen	gierig	sterben	gemein	versagen	krank	töten	47pct	acq_USpleas_CSpleas2_noRW	acq23456_noRW	2	76	0	0	300	300	620	50	0	1	1	blank2r.bmp	0	1	+	0	1	blank2r.bmp	252	1	YFFY	306	3	träumen	559	0	0	0	0	0	0	0	0	0	0	0	0	0	0	0	0	0	0	0	0	0	0	0	0	0	0	0	0	0	0	0	0	0	0	0	0	0	0	0
071019	10:01:15	10:07:22	366103	5.0.10.0	5_exp_noRW	32	Rpleas_acq	CS_A	CPPC	YFFY	DXXD	LWWL	JQQJ	ZHHZ	gütig	sonnig	genießen	vertrauen	küssen	träumen	gierig	sterben	gemein	versagen	krank	töten	47pct	acq_USunple_CSunple1_noRW	acq23456_noRW	2	77	0	0	300	300	577	46	0	1	1	blank2r.bmp	0	1	+	0	1	blank2r.bmp	252	1	DXXD	306	2	sterben	559	0	0	0	0	0	0	0	0	0	0	0	0	0	0	0	0	0	0	0	0	0	0	0	0	0	0	0	0	0	0	0	0	0	0	0	0	0	0	0
071019	10:01:15	10:07:23	367795	5.0.10.0	5_exp_noRW	32	Rpleas_acq	CS_A	CPPC	YFFY	DXXD	LWWL	JQQJ	ZHHZ	gütig	sonnig	genießen	vertrauen	küssen	träumen	gierig	sterben	gemein	versagen	krank	töten	53pct	acq_USunple_CSunple2_noRW	acq23456_noRW	2	78	0	0	300	300	531	46	0	1	1	blank2r.bmp	0	1	+	0	1	blank2r.bmp	252	1	LWWL	306	1	versagen	559	0	0	0	0	0	0	0	0	0	0	0	0	0	0	0	0	0	0	0	0	0	0	0	0	0	0	0	0	0	0	0	0	0	0	0	0	0	0	0
071019	10:01:15	10:07:25	369515	5.0.10.0	5_exp_noRW	32	Rpleas_acq	CS_A	CPPC	YFFY	DXXD	LWWL	JQQJ	ZHHZ	gütig	sonnig	genießen	vertrauen	küssen	träumen	gierig	sterben	gemein	versagen	krank	töten	47pct	acq_USpleas_CSpleas2_noRW	acq23456_noRW	2	79	0	0	300	300	539	50	0	1	1	blank2r.bmp	0	1	+	0	1	blank2r.bmp	252	1	YFFY	306	1	vertrauen	559	0	0	0	0	0	0	0	0	0	0	0	0	0	0	0	0	0	0	0	0	0	0	0	0	0	0	0	0	0	0	0	0	0	0	0	0	0	0	0
071019	10:01:15	10:07:27	371154	5.0.10.0	5_exp_noRW	32	Rpleas_acq	CS_A	CPPC	YFFY	DXXD	LWWL	JQQJ	ZHHZ	gütig	sonnig	genießen	vertrauen	küssen	träumen	gierig	sterben	gemein	versagen	krank	töten	47pct	acq_USunple_CSunple1_noRW	acq23456_noRW	2	80	0	0	300	300	452	46	0	1	1	blank2r.bmp	0	1	+	0	1	blank2r.bmp	252	1	DXXD	306	3	gemein	559	0	0	0	0	0	0	0	0	0	0	0	0	0	0	0	0	0	0	0	0	0	0	0	0	0	0	0	0	0	0	0	0	0	0	0	0	0	0	0
071019	10:01:15	10:07:33	377964	5.0.10.0	5_exp_noRW	32	Rpleas_acq	CS_A	CPPC	YFFY	DXXD	LWWL	JQQJ	ZHHZ	gütig	sonnig	genießen	vertrauen	küssen	träumen	gierig	sterben	gemein	versagen	krank	töten	53pct	acq_USunple_CSunple1_noRW	acq23456_noRW	3	1	0	0	300	300	869	46	0	1	1	blank2r.bmp	0	1	+	0	1	blank2r.bmp	252	1	DXXD	306	1	gierig	559	0	0	0	0	0	0	0	0	0	0	0	0	0	0	0	0	0	0	0	0	0	0	0	0	0	0	0	0	0	0	0	0	0	0	0	0	0	0	0
071019	10:01:15	10:07:35	379697	5.0.10.0	5_exp_noRW	32	Rpleas_acq	CS_A	CPPC	YFFY	DXXD	LWWL	JQQJ	ZHHZ	gütig	sonnig	genießen	vertrauen	küssen	träumen	gierig	sterben	gemein	versagen	krank	töten	47pct	acq_USunple_CSunple2_noRW	acq23456_noRW	3	2	0	0	300	300	571	46	0	1	1	blank2r.bmp	0	1	+	0	1	blank2r.bmp	252	1	LWWL	306	3	töten	559	0	0	0	0	0	0	0	0	0	0	0	0	0	0	0	0	0	0	0	0	0	0	0	0	0	0	0	0	0	0	0	0	0	0	0	0	0	0	0
071019	10:01:15	10:07:37	381363	5.0.10.0	5_exp_noRW	32	Rpleas_acq	CS_A	CPPC	YFFY	DXXD	LWWL	JQQJ	ZHHZ	gütig	sonnig	genießen	vertrauen	küssen	träumen	gierig	sterben	gemein	versagen	krank	töten	53pct	acq_USunple_CSunple1_noRW	acq23456_noRW	3	3	0	0	300	300	491	46	0	1	1	blank2r.bmp	0	1	+	0	1	blank2r.bmp	252	1	DXXD	306	1	gierig	559	0	0	0	0	0	0	0	0	0	0	0	0	0	0	0	0	0	0	0	0	0	0	0	0	0	0	0	0	0	0	0	0	0	0	0	0	0	0	0
071019	10:01:15	10:07:39	383069	5.0.10.0	5_exp_noRW	32	Rpleas_acq	CS_A	CPPC	YFFY	DXXD	LWWL	JQQJ	ZHHZ	gütig	sonnig	genießen	vertrauen	küssen	träumen	gierig	sterben	gemein	versagen	krank	töten	53pct	acq_USpleas_CSpleas1_noRW	acq23456_noRW	3	4	0	0	300	300	527	50	0	1	1	blank2r.bmp	0	1	+	0	1	blank2r.bmp	252	1	CPPC	306	3	genießen	559	0	0	0	0	0	0	0	0	0	0	0	0	0	0	0	0	0	0	0	0	0	0	0	0	0	0	0	0	0	0	0	0	0	0	0	0	0	0	0
071019	10:01:15	10:07:40	384682	5.0.10.0	5_exp_noRW	32	Rpleas_acq	CS_A	CPPC	YFFY	DXXD	LWWL	JQQJ	ZHHZ	gütig	sonnig	genießen	vertrauen	küssen	träumen	gierig	sterben	gemein	versagen	krank	töten	53pct	acq_USunple_CSpleas2_noRW	acq23456_noRW	3	5	0	0	300	300	425	46	0	1	1	blank2r.bmp	0	1	+	0	1	blank2r.bmp	252	1	YFFY	306	3	töten	559	0	0	0	0	0	0	0	0	0	0	0	0	0	0	0	0	0	0	0	0	0	0	0	0	0	0	0	0	0	0	0	0	0	0	0	0	0	0	0
071019	10:01:15	10:07:42	386374	5.0.10.0	5_exp_noRW	32	Rpleas_acq	CS_A	CPPC	YFFY	DXXD	LWWL	JQQJ	ZHHZ	gütig	sonnig	genießen	vertrauen	küssen	träumen	gierig	sterben	gemein	versagen	krank	töten	53pct	acq_USpleas_CSpleas1_noRW	acq23456_noRW	3	6	0	0	300	300	521	50	0	1	1	blank2r.bmp	0	1	+	0	1	blank2r.bmp	252	1	CPPC	306	2	sonnig	559	0	0	0	0	0	0	0	0	0	0	0	0	0	0	0	0	0	0	0	0	0	0	0	0	0	0	0	0	0	0	0	0	0	0	0	0	0	0	0
071019	10:01:15	10:07:44	388054	5.0.10.0	5_exp_noRW	32	Rpleas_acq	CS_A	CPPC	YFFY	DXXD	LWWL	JQQJ	ZHHZ	gütig	sonnig	genießen	vertrauen	küssen	träumen	gierig	sterben	gemein	versagen	krank	töten	47pct	acq_USpleas_CSpleas2_noRW	acq23456_noRW	3	7	0	0	300	300	513	50	0	1	1	blank2r.bmp	0	1	+	0	1	blank2r.bmp	252	1	YFFY	306	2	küssen	559	0	0	0	0	0	0	0	0	0	0	0	0	0	0	0	0	0	0	0	0	0	0	0	0	0	0	0	0	0	0	0	0	0	0	0	0	0	0	0
071019	10:01:15	10:07:45	389880	5.0.10.0	5_exp_noRW	32	Rpleas_acq	CS_A	CPPC	YFFY	DXXD	LWWL	JQQJ	ZHHZ	gütig	sonnig	genießen	vertrauen	küssen	träumen	gierig	sterben	gemein	versagen	krank	töten	47pct	acq_USunple_CSunple2_noRW	acq23456_noRW	3	8	0	0	300	300	664	46	0	1	1	blank2r.bmp	0	1	+	0	1	blank2r.bmp	252	1	LWWL	306	2	krank	559	0	0	0	0	0	0	0	0	0	0	0	0	0	0	0	0	0	0	0	0	0	0	0	0	0	0	0	0	0	0	0	0	0	0	0	0	0	0	0
071019	10:01:15	10:07:48	392132	5.0.10.0	5_exp_noRW	32	Rpleas_acq	CS_A	CPPC	YFFY	DXXD	LWWL	JQQJ	ZHHZ	gütig	sonnig	genießen	vertrauen	küssen	träumen	gierig	sterben	gemein	versagen	krank	töten	53pct	acq_USunple_CSunple1_noRW	acq23456_noRW	3	9	0	0	300	300	1066	46	0	1	1	blank2r.bmp	0	1	+	0	1	blank2r.bmp	252	1	DXXD	306	2	sterben	559	0	0	0	0	0	0	0	0	0	0	0	0	0	0	0	0	0	0	0	0	0	0	0	0	0	0	0	0	0	0	0	0	0	0	0	0	0	0	0
071019	10:01:15	10:07:50	394185	5.0.10.0	5_exp_noRW	32	Rpleas_acq	CS_A	CPPC	YFFY	DXXD	LWWL	JQQJ	ZHHZ	gütig	sonnig	genießen	vertrauen	küssen	träumen	gierig	sterben	gemein	versagen	krank	töten	53pct	acq_USpleas_CSpleas1_noRW	acq23456_noRW	3	10	0	0	300	300	888	50	0	1	1	blank2r.bmp	0	1	+	0	1	blank2r.bmp	252	1	CPPC	306	3	genießen	559	0	0	0	0	0	0	0	0	0	0	0	0	0	0	0	0	0	0	0	0	0	0	0	0	0	0	0	0	0	0	0	0	0	0	0	0	0	0	0
071019	10:01:15	10:07:52	396210	5.0.10.0	5_exp_noRW	32	Rpleas_acq	CS_A	CPPC	YFFY	DXXD	LWWL	JQQJ	ZHHZ	gütig	sonnig	genießen	vertrauen	küssen	träumen	gierig	sterben	gemein	versagen	krank	töten	47pct	acq_USunple_CSpleas1_noRW	acq23456_noRW	3	11	0	0	300	300	863	46	0	1	1	blank2r.bmp	0	1	+	0	1	blank2r.bmp	252	1	CPPC	306	1	gierig	559	0	0	0	0	0	0	0	0	0	0	0	0	0	0	0	0	0	0	0	0	0	0	0	0	0	0	0	0	0	0	0	0	0	0	0	0	0	0	0
071019	10:01:15	10:07:53	397850	5.0.10.0	5_exp_noRW	32	Rpleas_acq	CS_A	CPPC	YFFY	DXXD	LWWL	JQQJ	ZHHZ	gütig	sonnig	genießen	vertrauen	küssen	träumen	gierig	sterben	gemein	versagen	krank	töten	47pct	acq_USpleas_CSpleas2_noRW	acq23456_noRW	3	12	0	0	300	300	474	50	0	1	1	blank2r.bmp	0	1	+	0	1	blank2r.bmp	252	1	YFFY	306	2	küssen	559	0	0	0	0	0	0	0	0	0	0	0	0	0	0	0	0	0	0	0	0	0	0	0	0	0	0	0	0	0	0	0	0	0	0	0	0	0	0	0
071019	10:01:15	10:07:55	399636	5.0.10.0	5_exp_noRW	32	Rpleas_acq	CS_A	CPPC	YFFY	DXXD	LWWL	JQQJ	ZHHZ	gütig	sonnig	genießen	vertrauen	küssen	träumen	gierig	sterben	gemein	versagen	krank	töten	53pct	acq_USpleas_CSpleas2_noRW	acq23456_noRW	3	13	0	0	300	300	616	50	0	1	1	blank2r.bmp	0	1	+	0	1	blank2r.bmp	252	1	YFFY	306	3	träumen	559	0	0	0	0	0	0	0	0	0	0	0	0	0	0	0	0	0	0	0	0	0	0	0	0	0	0	0	0	0	0	0	0	0	0	0	0	0	0	0
071019	10:01:15	10:07:57	401288	5.0.10.0	5_exp_noRW	32	Rpleas_acq	CS_A	CPPC	YFFY	DXXD	LWWL	JQQJ	ZHHZ	gütig	sonnig	genießen	vertrauen	küssen	träumen	gierig	sterben	gemein	versagen	krank	töten	47pct	acq_USunple_CSunple2_noRW	acq23456_noRW	3	14	0	0	300	300	465	46	0	1	1	blank2r.bmp	0	1	+	0	1	blank2r.bmp	252	1	LWWL	306	3	töten	559	0	0	0	0	0	0	0	0	0	0	0	0	0	0	0	0	0	0	0	0	0	0	0	0	0	0	0	0	0	0	0	0	0	0	0	0	0	0	0
071019	10:01:15	10:07:59	403061	5.0.10.0	5_exp_noRW	32	Rpleas_acq	CS_A	CPPC	YFFY	DXXD	LWWL	JQQJ	ZHHZ	gütig	sonnig	genießen	vertrauen	küssen	träumen	gierig	sterben	gemein	versagen	krank	töten	47pct	acq_USpleas_CSpleas1_noRW	acq23456_noRW	3	15	0	0	300	300	604	50	0	1	1	blank2r.bmp	0	1	+	0	1	blank2r.bmp	252	1	CPPC	306	1	gütig	559	0	0	0	0	0	0	0	0	0	0	0	0	0	0	0	0	0	0	0	0	0	0	0	0	0	0	0	0	0	0	0	0	0	0	0	0	0	0	0
071019	10:01:15	10:08:00	404820	5.0.10.0	5_exp_noRW	32	Rpleas_acq	CS_A	CPPC	YFFY	DXXD	LWWL	JQQJ	ZHHZ	gütig	sonnig	genießen	vertrauen	küssen	träumen	gierig	sterben	gemein	versagen	krank	töten	53pct	acq_USunple_CSunple2_noRW	acq23456_noRW	3	16	0	0	300	300	585	46	0	1	1	blank2r.bmp	0	1	+	0	1	blank2r.bmp	252	1	LWWL	306	1	versagen	559	0	0	0	0	0	0	0	0	0	0	0	0	0	0	0	0	0	0	0	0	0	0	0	0	0	0	0	0	0	0	0	0	0	0	0	0	0	0	0
071019	10:01:15	10:08:02	406486	5.0.10.0	5_exp_noRW	32	Rpleas_acq	CS_A	CPPC	YFFY	DXXD	LWWL	JQQJ	ZHHZ	gütig	sonnig	genießen	vertrauen	küssen	träumen	gierig	sterben	gemein	versagen	krank	töten	53pct	acq_USpleas_CSunple1_noRW	acq23456_noRW	3	17	0	0	300	300	484	50	0	1	1	blank2r.bmp	0	1	+	0	1	blank2r.bmp	252	1	DXXD	306	2	sonnig	559	0	0	0	0	0	0	0	0	0	0	0	0	0	0	0	0	0	0	0	0	0	0	0	0	0	0	0	0	0	0	0	0	0	0	0	0	0	0	0
071019	10:01:15	10:08:04	408245	5.0.10.0	5_exp_noRW	32	Rpleas_acq	CS_A	CPPC	YFFY	DXXD	LWWL	JQQJ	ZHHZ	gütig	sonnig	genießen	vertrauen	küssen	träumen	gierig	sterben	gemein	versagen	krank	töten	47pct	acq_USunple_CSunple1_noRW	acq23456_noRW	3	18	0	0	300	300	575	46	0	1	1	blank2r.bmp	0	1	+	0	1	blank2r.bmp	252	1	DXXD	306	3	gemein	559	0	0	0	0	0	0	0	0	0	0	0	0	0	0	0	0	0	0	0	0	0	0	0	0	0	0	0	0	0	0	0	0	0	0	0	0	0	0	0
071019	10:01:15	10:08:05	409831	5.0.10.0	5_exp_noRW	32	Rpleas_acq	CS_A	CPPC	YFFY	DXXD	LWWL	JQQJ	ZHHZ	gütig	sonnig	genießen	vertrauen	küssen	träumen	gierig	sterben	gemein	versagen	krank	töten	47pct	acq_USpleas_CSpleas2_noRW	acq23456_noRW	3	19	0	0	300	300	415	50	0	1	1	blank2r.bmp	0	1	+	0	1	blank2r.bmp	252	1	YFFY	306	1	vertrauen	559	0	0	0	0	0	0	0	0	0	0	0	0	0	0	0	0	0	0	0	0	0	0	0	0	0	0	0	0	0	0	0	0	0	0	0	0	0	0	0
071019	10:01:15	10:08:07	411457	5.0.10.0	5_exp_noRW	32	Rpleas_acq	CS_A	CPPC	YFFY	DXXD	LWWL	JQQJ	ZHHZ	gütig	sonnig	genießen	vertrauen	küssen	träumen	gierig	sterben	gemein	versagen	krank	töten	47pct	acq_USpleas_CSunple2_noRW	acq23456_noRW	3	20	0	0	300	300	460	50	0	1	1	blank2r.bmp	0	1	+	0	1	blank2r.bmp	252	1	LWWL	306	3	träumen	559	0	0	0	0	0	0	0	0	0	0	0	0	0	0	0	0	0	0	0	0	0	0	0	0	0	0	0	0	0	0	0	0	0	0	0	0	0	0	0
071019	10:01:15	10:08:09	413123	5.0.10.0	5_exp_noRW	32	Rpleas_acq	CS_A	CPPC	YFFY	DXXD	LWWL	JQQJ	ZHHZ	gütig	sonnig	genießen	vertrauen	küssen	träumen	gierig	sterben	gemein	versagen	krank	töten	47pct	acq_USpleas_CSpleas2_noRW	acq23456_noRW	3	21	0	0	300	300	488	50	0	1	1	blank2r.bmp	0	1	+	0	1	blank2r.bmp	252	1	YFFY	306	1	vertrauen	559	0	0	0	0	0	0	0	0	0	0	0	0	0	0	0	0	0	0	0	0	0	0	0	0	0	0	0	0	0	0	0	0	0	0	0	0	0	0	0
071019	10:01:15	10:08:10	414829	5.0.10.0	5_exp_noRW	32	Rpleas_acq	CS_A	CPPC	YFFY	DXXD	LWWL	JQQJ	ZHHZ	gütig	sonnig	genießen	vertrauen	küssen	träumen	gierig	sterben	gemein	versagen	krank	töten	47pct	acq_USunple_CSunple2_noRW	acq23456_noRW	3	22	0	0	300	300	525	46	0	1	1	blank2r.bmp	0	1	+	0	1	blank2r.bmp	252	1	LWWL	306	2	krank	559	0	0	0	0	0	0	0	0	0	0	0	0	0	0	0	0	0	0	0	0	0	0	0	0	0	0	0	0	0	0	0	0	0	0	0	0	0	0	0
071019	10:01:15	10:08:12	416495	5.0.10.0	5_exp_noRW	32	Rpleas_acq	CS_A	CPPC	YFFY	DXXD	LWWL	JQQJ	ZHHZ	gütig	sonnig	genießen	vertrauen	küssen	träumen	gierig	sterben	gemein	versagen	krank	töten	53pct	acq_USpleas_CSpleas1_noRW	acq23456_noRW	3	23	0	0	300	300	483	50	0	1	1	blank2r.bmp	0	1	+	0	1	blank2r.bmp	252	1	CPPC	306	3	genießen	559	0	0	0	0	0	0	0	0	0	0	0	0	0	0	0	0	0	0	0	0	0	0	0	0	0	0	0	0	0	0	0	0	0	0	0	0	0	0	0
071019	10:01:15	10:08:14	418175	5.0.10.0	5_exp_noRW	32	Rpleas_acq	CS_A	CPPC	YFFY	DXXD	LWWL	JQQJ	ZHHZ	gütig	sonnig	genießen	vertrauen	küssen	träumen	gierig	sterben	gemein	versagen	krank	töten	53pct	acq_USpleas_CSpleas1_noRW	acq23456_noRW	3	24	0	0	300	300	517	50	0	1	1	blank2r.bmp	0	1	+	0	1	blank2r.bmp	252	1	CPPC	306	1	gütig	559	0	0	0	0	0	0	0	0	0	0	0	0	0	0	0	0	0	0	0	0	0	0	0	0	0	0	0	0	0	0	0	0	0	0	0	0	0	0	0
071019	10:01:15	10:08:16	420054	5.0.10.0	5_exp_noRW	32	Rpleas_acq	CS_A	CPPC	YFFY	DXXD	LWWL	JQQJ	ZHHZ	gütig	sonnig	genießen	vertrauen	küssen	träumen	gierig	sterben	gemein	versagen	krank	töten	47pct	acq_USunple_CSunple1_noRW	acq23456_noRW	3	25	0	0	300	300	501	50	0	0	1	blank2r.bmp	0	1	+	0	1	blank2r.bmp	252	1	DXXD	306	1	gierig	559	1	FEHLER	1092	0	0	0	0	0	0	0	0	0	0	0	0	0	0	0	0	0	0	0	0	0	0	0	0	0	0	0	0	0	0	0	0	0	0	0	0
071019	10:01:15	10:08:17	421573	5.0.10.0	5_exp_noRW	32	Rpleas_acq	CS_A	CPPC	YFFY	DXXD	LWWL	JQQJ	ZHHZ	gütig	sonnig	genießen	vertrauen	küssen	träumen	gierig	sterben	gemein	versagen	krank	töten	47pct	acq_USpleas_CSpleas2_noRW	acq23456_noRW	3	26	0	0	300	300	554	50	0	1	1	blank2r.bmp	0	1	+	0	1	blank2r.bmp	252	1	YFFY	306	3	träumen	559	0	0	0	0	0	0	0	0	0	0	0	0	0	0	0	0	0	0	0	0	0	0	0	0	0	0	0	0	0	0	0	0	0	0	0	0	0	0	0
071019	10:01:15	10:08:19	423266	5.0.10.0	5_exp_noRW	32	Rpleas_acq	CS_A	CPPC	YFFY	DXXD	LWWL	JQQJ	ZHHZ	gütig	sonnig	genießen	vertrauen	küssen	träumen	gierig	sterben	gemein	versagen	krank	töten	53pct	acq_USunple_CSunple1_noRW	acq23456_noRW	3	27	0	0	300	300	514	46	0	1	1	blank2r.bmp	0	1	+	0	1	blank2r.bmp	252	1	DXXD	306	2	sterben	559	0	0	0	0	0	0	0	0	0	0	0	0	0	0	0	0	0	0	0	0	0	0	0	0	0	0	0	0	0	0	0	0	0	0	0	0	0	0	0
071019	10:01:15	10:08:20	424919	5.0.10.0	5_exp_noRW	32	Rpleas_acq	CS_A	CPPC	YFFY	DXXD	LWWL	JQQJ	ZHHZ	gütig	sonnig	genießen	vertrauen	küssen	träumen	gierig	sterben	gemein	versagen	krank	töten	53pct	acq_USpleas_CSpleas1_noRW	acq23456_noRW	3	28	0	0	300	300	477	50	0	1	1	blank2r.bmp	0	1	+	0	1	blank2r.bmp	252	1	CPPC	306	2	sonnig	559	0	0	0	0	0	0	0	0	0	0	0	0	0	0	0	0	0	0	0	0	0	0	0	0	0	0	0	0	0	0	0	0	0	0	0	0	0	0	0
071019	10:01:15	10:08:22	426625	5.0.10.0	5_exp_noRW	32	Rpleas_acq	CS_A	CPPC	YFFY	DXXD	LWWL	JQQJ	ZHHZ	gütig	sonnig	genießen	vertrauen	küssen	träumen	gierig	sterben	gemein	versagen	krank	töten	53pct	acq_USunple_CSunple1_noRW	acq23456_noRW	3	29	0	0	300	300	524	46	0	1	1	blank2r.bmp	0	1	+	0	1	blank2r.bmp	252	1	DXXD	306	3	gemein	559	0	0	0	0	0	0	0	0	0	0	0	0	0	0	0	0	0	0	0	0	0	0	0	0	0	0	0	0	0	0	0	0	0	0	0	0	0	0	0
071019	10:01:15	10:08:24	428277	5.0.10.0	5_exp_noRW	32	Rpleas_acq	CS_A	CPPC	YFFY	DXXD	LWWL	JQQJ	ZHHZ	gütig	sonnig	genießen	vertrauen	küssen	träumen	gierig	sterben	gemein	versagen	krank	töten	53pct	acq_USpleas_CSunple2_noRW	acq23456_noRW	3	30	0	0	300	300	471	50	0	1	1	blank2r.bmp	0	1	+	0	1	blank2r.bmp	252	1	LWWL	306	2	küssen	559	0	0	0	0	0	0	0	0	0	0	0	0	0	0	0	0	0	0	0	0	0	0	0	0	0	0	0	0	0	0	0	0	0	0	0	0	0	0	0
071019	10:01:15	10:08:25	429983	5.0.10.0	5_exp_noRW	32	Rpleas_acq	CS_A	CPPC	YFFY	DXXD	LWWL	JQQJ	ZHHZ	gütig	sonnig	genießen	vertrauen	küssen	träumen	gierig	sterben	gemein	versagen	krank	töten	47pct	acq_USunple_CSunple2_noRW	acq23456_noRW	3	31	0	0	300	300	526	46	0	1	1	blank2r.bmp	0	1	+	0	1	blank2r.bmp	252	1	LWWL	306	3	töten	559	0	0	0	0	0	0	0	0	0	0	0	0	0	0	0	0	0	0	0	0	0	0	0	0	0	0	0	0	0	0	0	0	0	0	0	0	0	0	0
071019	10:01:15	10:08:28	432169	5.0.10.0	5_exp_noRW	32	Rpleas_acq	CS_A	CPPC	YFFY	DXXD	LWWL	JQQJ	ZHHZ	gütig	sonnig	genießen	vertrauen	küssen	träumen	gierig	sterben	gemein	versagen	krank	töten	53pct	acq_USunple_CSunple1_noRW	acq23456_noRW	3	32	0	0	300	300	799	50	0	0	1	blank2r.bmp	0	1	+	0	1	blank2r.bmp	252	1	DXXD	306	1	gierig	559	1	FEHLER	1399	0	0	0	0	0	0	0	0	0	0	0	0	0	0	0	0	0	0	0	0	0	0	0	0	0	0	0	0	0	0	0	0	0	0	0	0
071019	10:01:15	10:08:29	434022	5.0.10.0	5_exp_noRW	32	Rpleas_acq	CS_A	CPPC	YFFY	DXXD	LWWL	JQQJ	ZHHZ	gütig	sonnig	genießen	vertrauen	küssen	träumen	gierig	sterben	gemein	versagen	krank	töten	53pct	acq_USunple_CSunple2_noRW	acq23456_noRW	3	33	0	0	300	300	893	46	0	1	1	blank2r.bmp	0	1	+	0	1	blank2r.bmp	252	1	LWWL	306	1	versagen	559	0	0	0	0	0	0	0	0	0	0	0	0	0	0	0	0	0	0	0	0	0	0	0	0	0	0	0	0	0	0	0	0	0	0	0	0	0	0	0
071019	10:01:15	10:08:31	435781	5.0.10.0	5_exp_noRW	32	Rpleas_acq	CS_A	CPPC	YFFY	DXXD	LWWL	JQQJ	ZHHZ	gütig	sonnig	genießen	vertrauen	küssen	träumen	gierig	sterben	gemein	versagen	krank	töten	47pct	acq_USpleas_CSpleas2_noRW	acq23456_noRW	3	34	0	0	300	300	575	50	0	1	1	blank2r.bmp	0	1	+	0	1	blank2r.bmp	252	1	YFFY	306	2	küssen	559	0	0	0	0	0	0	0	0	0	0	0	0	0	0	0	0	0	0	0	0	0	0	0	0	0	0	0	0	0	0	0	0	0	0	0	0	0	0	0
071019	10:01:15	10:08:33	437447	5.0.10.0	5_exp_noRW	32	Rpleas_acq	CS_A	CPPC	YFFY	DXXD	LWWL	JQQJ	ZHHZ	gütig	sonnig	genießen	vertrauen	küssen	träumen	gierig	sterben	gemein	versagen	krank	töten	53pct	acq_USpleas_CSpleas2_noRW	acq23456_noRW	3	35	0	0	300	300	481	50	0	1	1	blank2r.bmp	0	1	+	0	1	blank2r.bmp	252	1	YFFY	306	2	küssen	559	0	0	0	0	0	0	0	0	0	0	0	0	0	0	0	0	0	0	0	0	0	0	0	0	0	0	0	0	0	0	0	0	0	0	0	0	0	0	0
071019	10:01:15	10:08:35	439273	5.0.10.0	5_exp_noRW	32	Rpleas_acq	CS_A	CPPC	YFFY	DXXD	LWWL	JQQJ	ZHHZ	gütig	sonnig	genießen	vertrauen	küssen	träumen	gierig	sterben	gemein	versagen	krank	töten	47pct	acq_USpleas_CSpleas1_noRW	acq23456_noRW	3	36	0	0	300	300	663	50	0	1	1	blank2r.bmp	0	1	+	0	1	blank2r.bmp	252	1	CPPC	306	1	gütig	559	0	0	0	0	0	0	0	0	0	0	0	0	0	0	0	0	0	0	0	0	0	0	0	0	0	0	0	0	0	0	0	0	0	0	0	0	0	0	0
071019	10:01:15	10:08:37	441205	5.0.10.0	5_exp_noRW	32	Rpleas_acq	CS_A	CPPC	YFFY	DXXD	LWWL	JQQJ	ZHHZ	gütig	sonnig	genießen	vertrauen	küssen	träumen	gierig	sterben	gemein	versagen	krank	töten	47pct	acq_USpleas_CSunple1_noRW	acq23456_noRW	3	37	0	0	300	300	750	50	0	1	1	blank2r.bmp	0	1	+	0	1	blank2r.bmp	252	1	DXXD	306	3	genießen	559	0	0	0	0	0	0	0	0	0	0	0	0	0	0	0	0	0	0	0	0	0	0	0	0	0	0	0	0	0	0	0	0	0	0	0	0	0	0	0
071019	10:01:15	10:08:38	442991	5.0.10.0	5_exp_noRW	32	Rpleas_acq	CS_A	CPPC	YFFY	DXXD	LWWL	JQQJ	ZHHZ	gütig	sonnig	genießen	vertrauen	küssen	träumen	gierig	sterben	gemein	versagen	krank	töten	53pct	acq_USunple_CSunple2_noRW	acq23456_noRW	3	38	0	0	300	300	623	46	0	1	1	blank2r.bmp	0	1	+	0	1	blank2r.bmp	252	1	LWWL	306	2	krank	559	0	0	0	0	0	0	0	0	0	0	0	0	0	0	0	0	0	0	0	0	0	0	0	0	0	0	0	0	0	0	0	0	0	0	0	0	0	0	0
071019	10:01:15	10:08:40	444990	5.0.10.0	5_exp_noRW	32	Rpleas_acq	CS_A	CPPC	YFFY	DXXD	LWWL	JQQJ	ZHHZ	gütig	sonnig	genießen	vertrauen	küssen	träumen	gierig	sterben	gemein	versagen	krank	töten	47pct	acq_USunple_CSpleas2_noRW	acq23456_noRW	3	39	0	0	300	300	818	46	0	1	1	blank2r.bmp	0	1	+	0	1	blank2r.bmp	252	1	YFFY	306	1	versagen	559	0	0	0	0	0	0	0	0	0	0	0	0	0	0	0	0	0	0	0	0	0	0	0	0	0	0	0	0	0	0	0	0	0	0	0	0	0	0	0
071019	10:01:15	10:08:42	446790	5.0.10.0	5_exp_noRW	32	Rpleas_acq	CS_A	CPPC	YFFY	DXXD	LWWL	JQQJ	ZHHZ	gütig	sonnig	genießen	vertrauen	küssen	träumen	gierig	sterben	gemein	versagen	krank	töten	53pct	acq_USunple_CSpleas1_noRW	acq23456_noRW	3	40	0	0	300	300	631	46	0	1	1	blank2r.bmp	0	1	+	0	1	blank2r.bmp	252	1	CPPC	306	1	gierig	559	0	0	0	0	0	0	0	0	0	0	0	0	0	0	0	0	0	0	0	0	0	0	0	0	0	0	0	0	0	0	0	0	0	0	0	0	0	0	0
071019	10:01:15	10:08:44	448962	5.0.10.0	5_exp_noRW	32	Rpleas_acq	CS_A	CPPC	YFFY	DXXD	LWWL	JQQJ	ZHHZ	gütig	sonnig	genießen	vertrauen	küssen	träumen	gierig	sterben	gemein	versagen	krank	töten	53pct	acq_USpleas_CSpleas1_noRW	acq23456_noRW	3	41	0	0	300	300	1002	50	0	1	1	blank2r.bmp	0	1	+	0	1	blank2r.bmp	252	1	CPPC	306	3	genießen	559	0	0	0	0	0	0	0	0	0	0	0	0	0	0	0	0	0	0	0	0	0	0	0	0	0	0	0	0	0	0	0	0	0	0	0	0	0	0	0
071019	10:01:15	10:08:47	451121	5.0.10.0	5_exp_noRW	32	Rpleas_acq	CS_A	CPPC	YFFY	DXXD	LWWL	JQQJ	ZHHZ	gütig	sonnig	genießen	vertrauen	küssen	träumen	gierig	sterben	gemein	versagen	krank	töten	47pct	acq_USpleas_CSpleas2_noRW	acq23456_noRW	3	42	0	0	300	300	977	50	0	1	1	blank2r.bmp	0	1	+	0	1	blank2r.bmp	252	1	YFFY	306	3	träumen	559	0	0	0	0	0	0	0	0	0	0	0	0	0	0	0	0	0	0	0	0	0	0	0	0	0	0	0	0	0	0	0	0	0	0	0	0	0	0	0
071019	10:01:15	10:08:48	452854	5.0.10.0	5_exp_noRW	32	Rpleas_acq	CS_A	CPPC	YFFY	DXXD	LWWL	JQQJ	ZHHZ	gütig	sonnig	genießen	vertrauen	küssen	träumen	gierig	sterben	gemein	versagen	krank	töten	53pct	acq_USpleas_CSpleas2_noRW	acq23456_noRW	3	43	0	0	300	300	568	50	0	1	1	blank2r.bmp	0	1	+	0	1	blank2r.bmp	252	1	YFFY	306	1	vertrauen	559	0	0	0	0	0	0	0	0	0	0	0	0	0	0	0	0	0	0	0	0	0	0	0	0	0	0	0	0	0	0	0	0	0	0	0	0	0	0	0
071019	10:01:15	10:08:50	454600	5.0.10.0	5_exp_noRW	32	Rpleas_acq	CS_A	CPPC	YFFY	DXXD	LWWL	JQQJ	ZHHZ	gütig	sonnig	genießen	vertrauen	küssen	träumen	gierig	sterben	gemein	versagen	krank	töten	53pct	acq_USunple_CSunple2_noRW	acq23456_noRW	3	44	0	0	300	300	573	46	0	1	1	blank2r.bmp	0	1	+	0	1	blank2r.bmp	252	1	LWWL	306	3	töten	559	0	0	0	0	0	0	0	0	0	0	0	0	0	0	0	0	0	0	0	0	0	0	0	0	0	0	0	0	0	0	0	0	0	0	0	0	0	0	0
071019	10:01:15	10:08:52	456332	5.0.10.0	5_exp_noRW	32	Rpleas_acq	CS_A	CPPC	YFFY	DXXD	LWWL	JQQJ	ZHHZ	gütig	sonnig	genießen	vertrauen	küssen	träumen	gierig	sterben	gemein	versagen	krank	töten	53pct	acq_USpleas_CSpleas1_noRW	acq23456_noRW	3	45	0	0	300	300	559	50	0	1	1	blank2r.bmp	0	1	+	0	1	blank2r.bmp	252	1	CPPC	306	2	sonnig	559	0	0	0	0	0	0	0	0	0	0	0	0	0	0	0	0	0	0	0	0	0	0	0	0	0	0	0	0	0	0	0	0	0	0	0	0	0	0	0
071019	10:01:15	10:08:53	457998	5.0.10.0	5_exp_noRW	32	Rpleas_acq	CS_A	CPPC	YFFY	DXXD	LWWL	JQQJ	ZHHZ	gütig	sonnig	genießen	vertrauen	küssen	träumen	gierig	sterben	gemein	versagen	krank	töten	47pct	acq_USpleas_CSpleas2_noRW	acq23456_noRW	3	46	0	0	300	300	504	50	0	1	1	blank2r.bmp	0	1	+	0	1	blank2r.bmp	252	1	YFFY	306	2	küssen	559	0	0	0	0	0	0	0	0	0	0	0	0	0	0	0	0	0	0	0	0	0	0	0	0	0	0	0	0	0	0	0	0	0	0	0	0	0	0	0
071019	10:01:15	10:08:55	459718	5.0.10.0	5_exp_noRW	32	Rpleas_acq	CS_A	CPPC	YFFY	DXXD	LWWL	JQQJ	ZHHZ	gütig	sonnig	genießen	vertrauen	küssen	träumen	gierig	sterben	gemein	versagen	krank	töten	53pct	acq_USunple_CSunple2_noRW	acq23456_noRW	3	47	0	0	300	300	544	46	0	1	1	blank2r.bmp	0	1	+	0	1	blank2r.bmp	252	1	LWWL	306	1	versagen	559	0	0	0	0	0	0	0	0	0	0	0	0	0	0	0	0	0	0	0	0	0	0	0	0	0	0	0	0	0	0	0	0	0	0	0	0	0	0	0
071019	10:01:15	10:08:57	461863	5.0.10.0	5_exp_noRW	32	Rpleas_acq	CS_A	CPPC	YFFY	DXXD	LWWL	JQQJ	ZHHZ	gütig	sonnig	genießen	vertrauen	küssen	träumen	gierig	sterben	gemein	versagen	krank	töten	47pct	acq_USunple_CSunple1_noRW	acq23456_noRW	3	48	0	0	300	300	948	46	0	1	1	blank2r.bmp	0	1	+	0	1	blank2r.bmp	252	1	DXXD	306	3	gemein	559	0	0	0	0	0	0	0	0	0	0	0	0	0	0	0	0	0	0	0	0	0	0	0	0	0	0	0	0	0	0	0	0	0	0	0	0	0	0	0
071019	10:01:15	10:08:59	463823	5.0.10.0	5_exp_noRW	32	Rpleas_acq	CS_A	CPPC	YFFY	DXXD	LWWL	JQQJ	ZHHZ	gütig	sonnig	genießen	vertrauen	küssen	träumen	gierig	sterben	gemein	versagen	krank	töten	53pct	acq_USunple_CSunple1_noRW	acq23456_noRW	3	49	0	0	300	300	791	46	0	1	1	blank2r.bmp	0	1	+	0	1	blank2r.bmp	252	1	DXXD	306	2	sterben	559	0	0	0	0	0	0	0	0	0	0	0	0	0	0	0	0	0	0	0	0	0	0	0	0	0	0	0	0	0	0	0	0	0	0	0	0	0	0	0
071019	10:01:15	10:09:01	465555	5.0.10.0	5_exp_noRW	32	Rpleas_acq	CS_A	CPPC	YFFY	DXXD	LWWL	JQQJ	ZHHZ	gütig	sonnig	genießen	vertrauen	küssen	träumen	gierig	sterben	gemein	versagen	krank	töten	53pct	acq_USunple_CSunple1_noRW	acq23456_noRW	3	50	0	0	300	300	560	46	0	1	1	blank2r.bmp	0	1	+	0	1	blank2r.bmp	252	1	DXXD	306	2	sterben	559	0	0	0	0	0	0	0	0	0	0	0	0	0	0	0	0	0	0	0	0	0	0	0	0	0	0	0	0	0	0	0	0	0	0	0	0	0	0	0
071019	10:01:15	10:09:03	467288	5.0.10.0	5_exp_noRW	32	Rpleas_acq	CS_A	CPPC	YFFY	DXXD	LWWL	JQQJ	ZHHZ	gütig	sonnig	genießen	vertrauen	küssen	träumen	gierig	sterben	gemein	versagen	krank	töten	53pct	acq_USpleas_CSpleas1_noRW	acq23456_noRW	3	51	0	0	300	300	562	50	0	1	1	blank2r.bmp	0	1	+	0	1	blank2r.bmp	252	1	CPPC	306	1	gütig	559	0	0	0	0	0	0	0	0	0	0	0	0	0	0	0	0	0	0	0	0	0	0	0	0	0	0	0	0	0	0	0	0	0	0	0	0	0	0	0
071019	10:01:15	10:09:04	468914	5.0.10.0	5_exp_noRW	32	Rpleas_acq	CS_A	CPPC	YFFY	DXXD	LWWL	JQQJ	ZHHZ	gütig	sonnig	genießen	vertrauen	küssen	träumen	gierig	sterben	gemein	versagen	krank	töten	47pct	acq_USpleas_CSpleas2_noRW	acq23456_noRW	3	52	0	0	300	300	454	50	0	1	1	blank2r.bmp	0	1	+	0	1	blank2r.bmp	252	1	YFFY	306	1	vertrauen	559	0	0	0	0	0	0	0	0	0	0	0	0	0	0	0	0	0	0	0	0	0	0	0	0	0	0	0	0	0	0	0	0	0	0	0	0	0	0	0
071019	10:01:15	10:09:06	470647	5.0.10.0	5_exp_noRW	32	Rpleas_acq	CS_A	CPPC	YFFY	DXXD	LWWL	JQQJ	ZHHZ	gütig	sonnig	genießen	vertrauen	küssen	träumen	gierig	sterben	gemein	versagen	krank	töten	53pct	acq_USpleas_CSpleas1_noRW	acq23456_noRW	3	53	0	0	300	300	571	50	0	1	1	blank2r.bmp	0	1	+	0	1	blank2r.bmp	252	1	CPPC	306	3	genießen	559	0	0	0	0	0	0	0	0	0	0	0	0	0	0	0	0	0	0	0	0	0	0	0	0	0	0	0	0	0	0	0	0	0	0	0	0	0	0	0
071019	10:01:15	10:09:08	472353	5.0.10.0	5_exp_noRW	32	Rpleas_acq	CS_A	CPPC	YFFY	DXXD	LWWL	JQQJ	ZHHZ	gütig	sonnig	genießen	vertrauen	küssen	träumen	gierig	sterben	gemein	versagen	krank	töten	47pct	acq_USunple_CSunple2_noRW	acq23456_noRW	3	54	0	0	300	300	521	46	0	1	1	blank2r.bmp	0	1	+	0	1	blank2r.bmp	252	1	LWWL	306	3	töten	559	0	0	0	0	0	0	0	0	0	0	0	0	0	0	0	0	0	0	0	0	0	0	0	0	0	0	0	0	0	0	0	0	0	0	0	0	0	0	0
071019	10:01:15	10:09:09	474018	5.0.10.0	5_exp_noRW	32	Rpleas_acq	CS_A	CPPC	YFFY	DXXD	LWWL	JQQJ	ZHHZ	gütig	sonnig	genießen	vertrauen	küssen	träumen	gierig	sterben	gemein	versagen	krank	töten	47pct	acq_USunple_CSpleas2_noRW	acq23456_noRW	3	55	0	0	300	300	495	46	0	1	1	blank2r.bmp	0	1	+	0	1	blank2r.bmp	252	1	YFFY	306	3	töten	559	0	0	0	0	0	0	0	0	0	0	0	0	0	0	0	0	0	0	0	0	0	0	0	0	0	0	0	0	0	0	0	0	0	0	0	0	0	0	0
071019	10:01:15	10:09:11	475844	5.0.10.0	5_exp_noRW	32	Rpleas_acq	CS_A	CPPC	YFFY	DXXD	LWWL	JQQJ	ZHHZ	gütig	sonnig	genießen	vertrauen	küssen	träumen	gierig	sterben	gemein	versagen	krank	töten	47pct	acq_USunple_CSunple1_noRW	acq23456_noRW	3	56	0	0	300	300	646	46	0	1	1	blank2r.bmp	0	1	+	0	1	blank2r.bmp	252	1	DXXD	306	3	gemein	559	0	0	0	0	0	0	0	0	0	0	0	0	0	0	0	0	0	0	0	0	0	0	0	0	0	0	0	0	0	0	0	0	0	0	0	0	0	0	0
071019	10:01:15	10:09:13	477550	5.0.10.0	5_exp_noRW	32	Rpleas_acq	CS_A	CPPC	YFFY	DXXD	LWWL	JQQJ	ZHHZ	gütig	sonnig	genießen	vertrauen	küssen	träumen	gierig	sterben	gemein	versagen	krank	töten	53pct	acq_USunple_CSunple2_noRW	acq23456_noRW	3	57	0	0	300	300	529	46	0	1	1	blank2r.bmp	0	1	+	0	1	blank2r.bmp	252	1	LWWL	306	1	versagen	559	0	0	0	0	0	0	0	0	0	0	0	0	0	0	0	0	0	0	0	0	0	0	0	0	0	0	0	0	0	0	0	0	0	0	0	0	0	0	0
071019	10:01:15	10:09:15	479243	5.0.10.0	5_exp_noRW	32	Rpleas_acq	CS_A	CPPC	YFFY	DXXD	LWWL	JQQJ	ZHHZ	gütig	sonnig	genießen	vertrauen	küssen	träumen	gierig	sterben	gemein	versagen	krank	töten	47pct	acq_USunple_CSpleas1_noRW	acq23456_noRW	3	58	0	0	300	300	513	46	0	1	1	blank2r.bmp	0	1	+	0	1	blank2r.bmp	252	1	CPPC	306	2	sterben	559	0	0	0	0	0	0	0	0	0	0	0	0	0	0	0	0	0	0	0	0	0	0	0	0	0	0	0	0	0	0	0	0	0	0	0	0	0	0	0
071019	10:01:15	10:09:16	480909	5.0.10.0	5_exp_noRW	32	Rpleas_acq	CS_A	CPPC	YFFY	DXXD	LWWL	JQQJ	ZHHZ	gütig	sonnig	genießen	vertrauen	küssen	träumen	gierig	sterben	gemein	versagen	krank	töten	53pct	acq_USpleas_CSunple1_noRW	acq23456_noRW	3	59	0	0	300	300	486	50	0	1	1	blank2r.bmp	0	1	+	0	1	blank2r.bmp	252	1	DXXD	306	2	sonnig	559	0	0	0	0	0	0	0	0	0	0	0	0	0	0	0	0	0	0	0	0	0	0	0	0	0	0	0	0	0	0	0	0	0	0	0	0	0	0	0
071019	10:01:15	10:09:18	482668	5.0.10.0	5_exp_noRW	32	Rpleas_acq	CS_A	CPPC	YFFY	DXXD	LWWL	JQQJ	ZHHZ	gütig	sonnig	genießen	vertrauen	küssen	träumen	gierig	sterben	gemein	versagen	krank	töten	53pct	acq_USpleas_CSunple2_noRW	acq23456_noRW	3	60	0	0	300	300	572	50	0	1	1	blank2r.bmp	0	1	+	0	1	blank2r.bmp	252	1	LWWL	306	1	vertrauen	559	0	0	0	0	0	0	0	0	0	0	0	0	0	0	0	0	0	0	0	0	0	0	0	0	0	0	0	0	0	0	0	0	0	0	0	0	0	0	0
071019	10:01:15	10:09:20	484614	5.0.10.0	5_exp_noRW	32	Rpleas_acq	CS_A	CPPC	YFFY	DXXD	LWWL	JQQJ	ZHHZ	gütig	sonnig	genießen	vertrauen	küssen	träumen	gierig	sterben	gemein	versagen	krank	töten	47pct	acq_USunple_CSunple1_noRW	acq23456_noRW	3	61	0	0	300	300	783	46	0	1	1	blank2r.bmp	0	1	+	0	1	blank2r.bmp	252	1	DXXD	306	1	gierig	559	0	0	0	0	0	0	0	0	0	0	0	0	0	0	0	0	0	0	0	0	0	0	0	0	0	0	0	0	0	0	0	0	0	0	0	0	0	0	0
071019	10:01:15	10:09:22	486253	5.0.10.0	5_exp_noRW	32	Rpleas_acq	CS_A	CPPC	YFFY	DXXD	LWWL	JQQJ	ZHHZ	gütig	sonnig	genießen	vertrauen	küssen	träumen	gierig	sterben	gemein	versagen	krank	töten	47pct	acq_USunple_CSunple1_noRW	acq23456_noRW	3	62	0	0	300	300	469	46	0	1	1	blank2r.bmp	0	1	+	0	1	blank2r.bmp	252	1	DXXD	306	1	gierig	559	0	0	0	0	0	0	0	0	0	0	0	0	0	0	0	0	0	0	0	0	0	0	0	0	0	0	0	0	0	0	0	0	0	0	0	0	0	0	0
071019	10:01:15	10:09:23	487933	5.0.10.0	5_exp_noRW	32	Rpleas_acq	CS_A	CPPC	YFFY	DXXD	LWWL	JQQJ	ZHHZ	gütig	sonnig	genießen	vertrauen	küssen	träumen	gierig	sterben	gemein	versagen	krank	töten	53pct	acq_USpleas_CSpleas1_noRW	acq23456_noRW	3	63	0	0	300	300	511	50	0	1	1	blank2r.bmp	0	1	+	0	1	blank2r.bmp	252	1	CPPC	306	2	sonnig	559	0	0	0	0	0	0	0	0	0	0	0	0	0	0	0	0	0	0	0	0	0	0	0	0	0	0	0	0	0	0	0	0	0	0	0	0	0	0	0
071019	10:01:15	10:09:25	489852	5.0.10.0	5_exp_noRW	32	Rpleas_acq	CS_A	CPPC	YFFY	DXXD	LWWL	JQQJ	ZHHZ	gütig	sonnig	genießen	vertrauen	küssen	träumen	gierig	sterben	gemein	versagen	krank	töten	53pct	acq_USunple_CSpleas1_noRW	acq23456_noRW	3	64	0	0	300	300	744	46	0	1	1	blank2r.bmp	0	1	+	0	1	blank2r.bmp	252	1	CPPC	306	3	gemein	559	0	0	0	0	0	0	0	0	0	0	0	0	0	0	0	0	0	0	0	0	0	0	0	0	0	0	0	0	0	0	0	0	0	0	0	0	0	0	0
071019	10:01:15	10:09:28	492091	5.0.10.0	5_exp_noRW	32	Rpleas_acq	CS_A	CPPC	YFFY	DXXD	LWWL	JQQJ	ZHHZ	gütig	sonnig	genießen	vertrauen	küssen	träumen	gierig	sterben	gemein	versagen	krank	töten	47pct	acq_USpleas_CSpleas1_noRW	acq23456_noRW	3	65	0	0	300	300	1055	50	0	1	1	blank2r.bmp	0	1	+	0	1	blank2r.bmp	252	1	CPPC	306	3	genießen	559	0	0	0	0	0	0	0	0	0	0	0	0	0	0	0	0	0	0	0	0	0	0	0	0	0	0	0	0	0	0	0	0	0	0	0	0	0	0	0
071019	10:01:15	10:09:29	493824	5.0.10.0	5_exp_noRW	32	Rpleas_acq	CS_A	CPPC	YFFY	DXXD	LWWL	JQQJ	ZHHZ	gütig	sonnig	genießen	vertrauen	küssen	träumen	gierig	sterben	gemein	versagen	krank	töten	47pct	acq_USpleas_CSpleas2_noRW	acq23456_noRW	3	66	0	0	300	300	566	50	0	1	1	blank2r.bmp	0	1	+	0	1	blank2r.bmp	252	1	YFFY	306	3	träumen	559	0	0	0	0	0	0	0	0	0	0	0	0	0	0	0	0	0	0	0	0	0	0	0	0	0	0	0	0	0	0	0	0	0	0	0	0	0	0	0
071019	10:01:15	10:09:31	495530	5.0.10.0	5_exp_noRW	32	Rpleas_acq	CS_A	CPPC	YFFY	DXXD	LWWL	JQQJ	ZHHZ	gütig	sonnig	genießen	vertrauen	küssen	träumen	gierig	sterben	gemein	versagen	krank	töten	53pct	acq_USunple_CSunple2_noRW	acq23456_noRW	3	67	0	0	300	300	528	46	0	1	1	blank2r.bmp	0	1	+	0	1	blank2r.bmp	252	1	LWWL	306	2	krank	559	0	0	0	0	0	0	0	0	0	0	0	0	0	0	0	0	0	0	0	0	0	0	0	0	0	0	0	0	0	0	0	0	0	0	0	0	0	0	0
071019	10:01:15	10:09:33	497769	5.0.10.0	5_exp_noRW	32	Rpleas_acq	CS_A	CPPC	YFFY	DXXD	LWWL	JQQJ	ZHHZ	gütig	sonnig	genießen	vertrauen	küssen	träumen	gierig	sterben	gemein	versagen	krank	töten	47pct	acq_USunple_CSunple1_noRW	acq23456_noRW	3	68	0	0	300	300	1057	46	0	1	1	blank2r.bmp	0	1	+	0	1	blank2r.bmp	252	1	DXXD	306	3	gemein	559	0	0	0	0	0	0	0	0	0	0	0	0	0	0	0	0	0	0	0	0	0	0	0	0	0	0	0	0	0	0	0	0	0	0	0	0	0	0	0
071019	10:01:15	10:09:35	499461	5.0.10.0	5_exp_noRW	32	Rpleas_acq	CS_A	CPPC	YFFY	DXXD	LWWL	JQQJ	ZHHZ	gütig	sonnig	genießen	vertrauen	küssen	träumen	gierig	sterben	gemein	versagen	krank	töten	47pct	acq_USpleas_CSpleas1_noRW	acq23456_noRW	3	69	0	0	300	300	526	50	0	1	1	blank2r.bmp	0	1	+	0	1	blank2r.bmp	252	1	CPPC	306	2	sonnig	559	0	0	0	0	0	0	0	0	0	0	0	0	0	0	0	0	0	0	0	0	0	0	0	0	0	0	0	0	0	0	0	0	0	0	0	0	0	0	0
071019	10:01:15	10:09:37	501287	5.0.10.0	5_exp_noRW	32	Rpleas_acq	CS_A	CPPC	YFFY	DXXD	LWWL	JQQJ	ZHHZ	gütig	sonnig	genießen	vertrauen	küssen	träumen	gierig	sterben	gemein	versagen	krank	töten	53pct	acq_USunple_CSunple2_noRW	acq23456_noRW	3	70	0	0	300	300	644	46	0	1	1	blank2r.bmp	0	1	+	0	1	blank2r.bmp	252	1	LWWL	306	1	versagen	559	0	0	0	0	0	0	0	0	0	0	0	0	0	0	0	0	0	0	0	0	0	0	0	0	0	0	0	0	0	0	0	0	0	0	0	0	0	0	0
071019	10:01:15	10:09:39	503540	5.0.10.0	5_exp_noRW	32	Rpleas_acq	CS_A	CPPC	YFFY	DXXD	LWWL	JQQJ	ZHHZ	gütig	sonnig	genießen	vertrauen	küssen	träumen	gierig	sterben	gemein	versagen	krank	töten	47pct	acq_USunple_CSpleas2_noRW	acq23456_noRW	3	71	0	0	300	300	859	50	0	0	1	blank2r.bmp	0	1	+	0	1	blank2r.bmp	252	1	YFFY	306	2	krank	559	1	FEHLER	1452	0	0	0	0	0	0	0	0	0	0	0	0	0	0	0	0	0	0	0	0	0	0	0	0	0	0	0	0	0	0	0	0	0	0	0	0
071019	10:01:15	10:09:41	505086	5.0.10.0	5_exp_noRW	32	Rpleas_acq	CS_A	CPPC	YFFY	DXXD	LWWL	JQQJ	ZHHZ	gütig	sonnig	genießen	vertrauen	küssen	träumen	gierig	sterben	gemein	versagen	krank	töten	47pct	acq_USpleas_CSpleas2_noRW	acq23456_noRW	3	72	0	0	300	300	572	50	0	1	1	blank2r.bmp	0	1	+	0	1	blank2r.bmp	252	1	YFFY	306	2	küssen	559	0	0	0	0	0	0	0	0	0	0	0	0	0	0	0	0	0	0	0	0	0	0	0	0	0	0	0	0	0	0	0	0	0	0	0	0	0	0	0
071019	10:01:15	10:09:42	506778	5.0.10.0	5_exp_noRW	32	Rpleas_acq	CS_A	CPPC	YFFY	DXXD	LWWL	JQQJ	ZHHZ	gütig	sonnig	genießen	vertrauen	küssen	träumen	gierig	sterben	gemein	versagen	krank	töten	53pct	acq_USpleas_CSpleas2_noRW	acq23456_noRW	3	73	0	0	300	300	528	50	0	1	1	blank2r.bmp	0	1	+	0	1	blank2r.bmp	252	1	YFFY	306	3	träumen	559	0	0	0	0	0	0	0	0	0	0	0	0	0	0	0	0	0	0	0	0	0	0	0	0	0	0	0	0	0	0	0	0	0	0	0	0	0	0	0
071019	10:01:15	10:09:44	508738	5.0.10.0	5_exp_noRW	32	Rpleas_acq	CS_A	CPPC	YFFY	DXXD	LWWL	JQQJ	ZHHZ	gütig	sonnig	genießen	vertrauen	küssen	träumen	gierig	sterben	gemein	versagen	krank	töten	47pct	acq_USunple_CSunple1_noRW	acq23456_noRW	3	74	0	0	300	300	782	46	0	1	1	blank2r.bmp	0	1	+	0	1	blank2r.bmp	252	1	DXXD	306	2	sterben	559	0	0	0	0	0	0	0	0	0	0	0	0	0	0	0	0	0	0	0	0	0	0	0	0	0	0	0	0	0	0	0	0	0	0	0	0	0	0	0
071019	10:01:15	10:09:46	510457	5.0.10.0	5_exp_noRW	32	Rpleas_acq	CS_A	CPPC	YFFY	DXXD	LWWL	JQQJ	ZHHZ	gütig	sonnig	genießen	vertrauen	küssen	träumen	gierig	sterben	gemein	versagen	krank	töten	47pct	acq_USpleas_CSpleas2_noRW	acq23456_noRW	3	75	0	0	300	300	541	50	0	1	1	blank2r.bmp	0	1	+	0	1	blank2r.bmp	252	1	YFFY	306	1	vertrauen	559	0	0	0	0	0	0	0	0	0	0	0	0	0	0	0	0	0	0	0	0	0	0	0	0	0	0	0	0	0	0	0	0	0	0	0	0	0	0	0
071019	10:01:15	10:09:48	512403	5.0.10.0	5_exp_noRW	32	Rpleas_acq	CS_A	CPPC	YFFY	DXXD	LWWL	JQQJ	ZHHZ	gütig	sonnig	genießen	vertrauen	küssen	träumen	gierig	sterben	gemein	versagen	krank	töten	53pct	acq_USpleas_CSunple1_noRW	acq23456_noRW	3	76	0	0	300	300	769	50	0	1	1	blank2r.bmp	0	1	+	0	1	blank2r.bmp	252	1	DXXD	306	1	gütig	559	0	0	0	0	0	0	0	0	0	0	0	0	0	0	0	0	0	0	0	0	0	0	0	0	0	0	0	0	0	0	0	0	0	0	0	0	0	0	0
071019	10:01:15	10:09:50	514709	5.0.10.0	5_exp_noRW	32	Rpleas_acq	CS_A	CPPC	YFFY	DXXD	LWWL	JQQJ	ZHHZ	gütig	sonnig	genießen	vertrauen	küssen	träumen	gierig	sterben	gemein	versagen	krank	töten	47pct	acq_USpleas_CSunple2_noRW	acq23456_noRW	3	77	0	0	300	300	1126	50	0	1	1	blank2r.bmp	0	1	+	0	1	blank2r.bmp	252	1	LWWL	306	3	träumen	559	0	0	0	0	0	0	0	0	0	0	0	0	0	0	0	0	0	0	0	0	0	0	0	0	0	0	0	0	0	0	0	0	0	0	0	0	0	0	0
071019	10:01:15	10:09:52	516401	5.0.10.0	5_exp_noRW	32	Rpleas_acq	CS_A	CPPC	YFFY	DXXD	LWWL	JQQJ	ZHHZ	gütig	sonnig	genießen	vertrauen	küssen	träumen	gierig	sterben	gemein	versagen	krank	töten	47pct	acq_USunple_CSunple2_noRW	acq23456_noRW	3	78	0	0	300	300	521	46	0	1	1	blank2r.bmp	0	1	+	0	1	blank2r.bmp	252	1	LWWL	306	2	krank	559	0	0	0	0	0	0	0	0	0	0	0	0	0	0	0	0	0	0	0	0	0	0	0	0	0	0	0	0	0	0	0	0	0	0	0	0	0	0	0
071019	10:01:15	10:09:54	518067	5.0.10.0	5_exp_noRW	32	Rpleas_acq	CS_A	CPPC	YFFY	DXXD	LWWL	JQQJ	ZHHZ	gütig	sonnig	genießen	vertrauen	küssen	träumen	gierig	sterben	gemein	versagen	krank	töten	53pct	acq_USunple_CSunple2_noRW	acq23456_noRW	3	79	0	0	300	300	499	46	0	1	1	blank2r.bmp	0	1	+	0	1	blank2r.bmp	252	1	LWWL	306	3	töten	559	0	0	0	0	0	0	0	0	0	0	0	0	0	0	0	0	0	0	0	0	0	0	0	0	0	0	0	0	0	0	0	0	0	0	0	0	0	0	0
071019	10:01:15	10:09:56	520080	5.0.10.0	5_exp_noRW	32	Rpleas_acq	CS_A	CPPC	YFFY	DXXD	LWWL	JQQJ	ZHHZ	gütig	sonnig	genießen	vertrauen	küssen	träumen	gierig	sterben	gemein	versagen	krank	töten	53pct	acq_USpleas_CSpleas1_noRW	acq23456_noRW	3	80	0	0	300	300	828	50	0	1	1	blank2r.bmp	0	1	+	0	1	blank2r.bmp	252	1	CPPC	306	1	gütig	559	0	0	0	0	0	0	0	0	0	0	0	0	0	0	0	0	0	0	0	0	0	0	0	0	0	0	0	0	0	0	0	0	0	0	0	0	0	0	0
071019	10:01:15	10:10:04	529023	5.0.10.0	5_exp_noRW	32	Rpleas_acq	CS_A	CPPC	YFFY	DXXD	LWWL	JQQJ	ZHHZ	gütig	sonnig	genießen	vertrauen	küssen	träumen	gierig	sterben	gemein	versagen	krank	töten	47pct	acq_USunple_CSunple1_noRW	acq23456_noRW	4	1	0	0	300	300	656	46	0	1	1	blank2r.bmp	0	1	+	0	1	blank2r.bmp	252	1	DXXD	306	1	gierig	559	0	0	0	0	0	0	0	0	0	0	0	0	0	0	0	0	0	0	0	0	0	0	0	0	0	0	0	0	0	0	0	0	0	0	0	0	0	0	0
