date	time	script.currenttime	script.elapsedtime	build	script.currentexpt	subject	expressions.LRpleas_acq	expressions.conditionCS_A	expressions.CSpleas_1	expressions.CSpleas_2	expressions.CSunple_1	expressions.CSunple_2	expressions.distractor_1	expressions.distractor_2	expressions.US_pleas1	expressions.US_pleas2	expressions.US_pleas3	expressions.US_pleas4	expressions.US_pleas5	expressions.US_pleas6	expressions.US_unple1	expressions.US_unple2	expressions.US_unple3	expressions.US_unple4	expressions.US_unple5	expressions.US_unple6	counter.positions_noRW	trialcode	blockcode	blocknum	trialnum	windowcenter	inwindow	pretrialpause	posttrialpause	latency	response	expressions.correctedscore	correct	stimulusnumber1	stimulusitem1	stimulusonset1	stimulusnumber2	stimulusitem2	stimulusonset2	stimulusnumber3	stimulusitem3	stimulusonset3	stimulusnumber4	stimulusitem4	stimulusonset4	stimulusnumber5	stimulusitem5	stimulusonset5	stimulusnumber6	stimulusitem6	stimulusonset6	stimulusnumber7	stimulusitem7	stimulusonset7	stimulusnumber8	stimulusitem8	stimulusonset8	stimulusnumber9	stimulusitem9	stimulusonset9	stimulusnumber10	stimulusitem10	stimulusonset10	stimulusnumber11	stimulusitem11	stimulusonset11	stimulusnumber12	stimulusitem12	stimulusonset12	stimulusnumber13	stimulusitem13	stimulusonset13	stimulusnumber14	stimulusitem14	stimulusonset14	stimulusnumber15	stimulusitem15	stimulusonset15	stimulusnumber16	stimulusitem16	stimulusonset16	stimulusnumber17	stimulusitem17	stimulusonset17	stimulusnumber18	stimulusitem18	stimulusonset18
070119	16:35:46	16:38:53	185332	5.0.10.0	5_exp_RW	1	Rpleas_acq	CS_A	CPPC	ZHHZ	YFFY	JQQJ	LWWL	DXXD	gütig	träumen	küssen	sonnig	vertrauen	genießen	gierig	töten	krank	sterben	versagen	gemein	1	acq_USpleas_CSpleas1_RW	acq1_RW	1	1	0	0	300	300	1331	50	0	1	1	blank2r.bmp	0	1	+	0	1	blank2r.bmp	435	1	CPPC	435	1	blank2r.bmp	505	2	träumen	764	0	0	0	0	0	0	0	0	0	0	0	0	0	0	0	0	0	0	0	0	0	0	0	0	0	0	0	0	0	0	0	0	0	0	0	0
070119	16:35:46	16:38:54	186929	5.0.10.0	5_exp_RW	1	Rpleas_acq	CS_A	CPPC	ZHHZ	YFFY	JQQJ	LWWL	DXXD	gütig	träumen	küssen	sonnig	vertrauen	genießen	gierig	töten	krank	sterben	versagen	gemein	1	acq_USpleas_CSpleas1_RW	acq1_RW	1	2	0	0	300	300	245	50	0	1	1	blank2r.bmp	0	1	+	0	1	blank2r.bmp	435	1	CPPC	435	1	blank2r.bmp	505	1	gütig	764	0	0	0	0	0	0	0	0	0	0	0	0	0	0	0	0	0	0	0	0	0	0	0	0	0	0	0	0	0	0	0	0	0	0	0	0
070119	16:35:46	16:38:56	188835	5.0.10.0	5_exp_RW	1	Rpleas_acq	CS_A	CPPC	ZHHZ	YFFY	JQQJ	LWWL	DXXD	gütig	träumen	küssen	sonnig	vertrauen	genießen	gierig	töten	krank	sterben	versagen	gemein	1	acq_USpleas_CSpleas2_RW	acq1_RW	1	3	0	0	300	300	526	50	0	1	1	blank2r.bmp	0	1	+	0	1	blank2r.bmp	435	1	ZHHZ	435	1	blank2r.bmp	505	3	genießen	764	0	0	0	0	0	0	0	0	0	0	0	0	0	0	0	0	0	0	0	0	0	0	0	0	0	0	0	0	0	0	0	0	0	0	0	0
070119	16:35:46	16:38:58	190682	5.0.10.0	5_exp_RW	1	Rpleas_acq	CS_A	CPPC	ZHHZ	YFFY	JQQJ	LWWL	DXXD	gütig	träumen	küssen	sonnig	vertrauen	genießen	gierig	töten	krank	sterben	versagen	gemein	1	acq_USpleas_CSpleas2_RW	acq1_RW	1	4	0	0	300	300	459	50	0	1	1	blank2r.bmp	0	1	+	0	1	blank2r.bmp	435	1	ZHHZ	435	1	blank2r.bmp	505	1	sonnig	764	0	0	0	0	0	0	0	0	0	0	0	0	0	0	0	0	0	0	0	0	0	0	0	0	0	0	0	0	0	0	0	0	0	0	0	0
070119	16:35:46	16:39:01	193070	5.0.10.0	5_exp_RW	1	Rpleas_acq	CS_A	CPPC	ZHHZ	YFFY	JQQJ	LWWL	DXXD	gütig	träumen	küssen	sonnig	vertrauen	genießen	gierig	töten	krank	sterben	versagen	gemein	1	acq_USunple_CSunple2_RW	acq1_RW	1	5	0	0	300	300	1012	46	0	1	1	blank2r.bmp	0	1	+	0	1	blank2r.bmp	435	1	JQQJ	435	1	blank2r.bmp	505	1	sterben	764	0	0	0	0	0	0	0	0	0	0	0	0	0	0	0	0	0	0	0	0	0	0	0	0	0	0	0	0	0	0	0	0	0	0	0	0
070119	16:35:46	16:39:03	195223	5.0.10.0	5_exp_RW	1	Rpleas_acq	CS_A	CPPC	ZHHZ	YFFY	JQQJ	LWWL	DXXD	gütig	träumen	küssen	sonnig	vertrauen	genießen	gierig	töten	krank	sterben	versagen	gemein	1	acq_USunple_CSunple1_RW	acq1_RW	1	6	0	0	300	300	780	46	0	1	1	blank2r.bmp	0	1	+	0	1	blank2r.bmp	435	1	YFFY	435	1	blank2r.bmp	505	1	gierig	764	0	0	0	0	0	0	0	0	0	0	0	0	0	0	0	0	0	0	0	0	0	0	0	0	0	0	0	0	0	0	0	0	0	0	0	0
070119	16:35:46	16:39:05	197247	5.0.10.0	5_exp_RW	1	Rpleas_acq	CS_A	CPPC	ZHHZ	YFFY	JQQJ	LWWL	DXXD	gütig	träumen	küssen	sonnig	vertrauen	genießen	gierig	töten	krank	sterben	versagen	gemein	1	acq_USpleas_CSpleas2_RW	acq1_RW	1	7	0	0	300	300	643	50	0	1	1	blank2r.bmp	0	1	+	0	1	blank2r.bmp	435	1	ZHHZ	435	1	blank2r.bmp	505	2	vertrauen	764	0	0	0	0	0	0	0	0	0	0	0	0	0	0	0	0	0	0	0	0	0	0	0	0	0	0	0	0	0	0	0	0	0	0	0	0
070119	16:35:46	16:39:07	199141	5.0.10.0	5_exp_RW	1	Rpleas_acq	CS_A	CPPC	ZHHZ	YFFY	JQQJ	LWWL	DXXD	gütig	träumen	küssen	sonnig	vertrauen	genießen	gierig	töten	krank	sterben	versagen	gemein	1	acq_USpleas_CSpleas1_RW	acq1_RW	1	8	0	0	300	300	527	50	0	1	1	blank2r.bmp	0	1	+	0	1	blank2r.bmp	435	1	CPPC	435	1	blank2r.bmp	505	3	küssen	764	0	0	0	0	0	0	0	0	0	0	0	0	0	0	0	0	0	0	0	0	0	0	0	0	0	0	0	0	0	0	0	0	0	0	0	0
070119	16:35:46	16:39:09	201105	5.0.10.0	5_exp_RW	1	Rpleas_acq	CS_A	CPPC	ZHHZ	YFFY	JQQJ	LWWL	DXXD	gütig	träumen	küssen	sonnig	vertrauen	genießen	gierig	töten	krank	sterben	versagen	gemein	1	acq_USunple_CSunple2_RW	acq1_RW	1	9	0	0	300	300	583	46	0	1	1	blank2r.bmp	0	1	+	0	1	blank2r.bmp	435	1	JQQJ	435	1	blank2r.bmp	505	3	gemein	764	0	0	0	0	0	0	0	0	0	0	0	0	0	0	0	0	0	0	0	0	0	0	0	0	0	0	0	0	0	0	0	0	0	0	0	0
070119	16:35:46	16:39:11	203105	5.0.10.0	5_exp_RW	1	Rpleas_acq	CS_A	CPPC	ZHHZ	YFFY	JQQJ	LWWL	DXXD	gütig	träumen	küssen	sonnig	vertrauen	genießen	gierig	töten	krank	sterben	versagen	gemein	1	acq_USunple_CSunple1_RW	acq1_RW	1	10	0	0	300	300	620	46	0	1	1	blank2r.bmp	0	1	+	0	1	blank2r.bmp	435	1	YFFY	435	1	blank2r.bmp	505	3	krank	764	0	0	0	0	0	0	0	0	0	0	0	0	0	0	0	0	0	0	0	0	0	0	0	0	0	0	0	0	0	0	0	0	0	0	0	0
070119	16:35:46	16:39:13	205094	5.0.10.0	5_exp_RW	1	Rpleas_acq	CS_A	CPPC	ZHHZ	YFFY	JQQJ	LWWL	DXXD	gütig	träumen	küssen	sonnig	vertrauen	genießen	gierig	töten	krank	sterben	versagen	gemein	1	acq_USunple_CSunple1_RW	acq1_RW	1	11	0	0	300	300	599	46	0	1	1	blank2r.bmp	0	1	+	0	1	blank2r.bmp	435	1	YFFY	435	1	blank2r.bmp	505	2	töten	764	0	0	0	0	0	0	0	0	0	0	0	0	0	0	0	0	0	0	0	0	0	0	0	0	0	0	0	0	0	0	0	0	0	0	0	0
070119	16:35:46	16:39:15	207141	5.0.10.0	5_exp_RW	1	Rpleas_acq	CS_A	CPPC	ZHHZ	YFFY	JQQJ	LWWL	DXXD	gütig	träumen	küssen	sonnig	vertrauen	genießen	gierig	töten	krank	sterben	versagen	gemein	1	acq_USunple_CSunple2_RW	acq1_RW	1	12	0	0	300	300	679	46	0	1	1	blank2r.bmp	0	1	+	0	1	blank2r.bmp	435	1	JQQJ	435	1	blank2r.bmp	505	2	versagen	764	0	0	0	0	0	0	0	0	0	0	0	0	0	0	0	0	0	0	0	0	0	0	0	0	0	0	0	0	0	0	0	0	0	0	0	0
070119	16:35:46	16:39:17	209400	5.0.10.0	5_exp_RW	1	Rpleas_acq	CS_A	CPPC	ZHHZ	YFFY	JQQJ	LWWL	DXXD	gütig	träumen	küssen	sonnig	vertrauen	genießen	gierig	töten	krank	sterben	versagen	gemein	1	acq_USpleas_CSpleas2_RW	acq1_RW	1	13	0	0	300	300	871	50	0	1	1	blank2r.bmp	0	1	+	0	1	blank2r.bmp	435	1	ZHHZ	435	1	blank2r.bmp	505	2	vertrauen	764	0	0	0	0	0	0	0	0	0	0	0	0	0	0	0	0	0	0	0	0	0	0	0	0	0	0	0	0	0	0	0	0	0	0	0	0
070119	16:35:46	16:39:19	211388	5.0.10.0	5_exp_RW	1	Rpleas_acq	CS_A	CPPC	ZHHZ	YFFY	JQQJ	LWWL	DXXD	gütig	träumen	küssen	sonnig	vertrauen	genießen	gierig	töten	krank	sterben	versagen	gemein	1	acq_USunple_CSunple1_RW	acq1_RW	1	14	0	0	300	300	621	46	0	1	1	blank2r.bmp	0	1	+	0	1	blank2r.bmp	435	1	YFFY	435	1	blank2r.bmp	505	2	töten	764	0	0	0	0	0	0	0	0	0	0	0	0	0	0	0	0	0	0	0	0	0	0	0	0	0	0	0	0	0	0	0	0	0	0	0	0
070119	16:35:46	16:39:21	213647	5.0.10.0	5_exp_RW	1	Rpleas_acq	CS_A	CPPC	ZHHZ	YFFY	JQQJ	LWWL	DXXD	gütig	träumen	küssen	sonnig	vertrauen	genießen	gierig	töten	krank	sterben	versagen	gemein	1	acq_USunple_CSunple2_RW	acq1_RW	1	15	0	0	300	300	870	46	0	1	1	blank2r.bmp	0	1	+	0	1	blank2r.bmp	435	1	JQQJ	435	1	blank2r.bmp	505	2	versagen	764	0	0	0	0	0	0	0	0	0	0	0	0	0	0	0	0	0	0	0	0	0	0	0	0	0	0	0	0	0	0	0	0	0	0	0	0
070119	16:35:46	16:39:23	215764	5.0.10.0	5_exp_RW	1	Rpleas_acq	CS_A	CPPC	ZHHZ	YFFY	JQQJ	LWWL	DXXD	gütig	träumen	küssen	sonnig	vertrauen	genießen	gierig	töten	krank	sterben	versagen	gemein	1	acq_USpleas_CSpleas1_RW	acq1_RW	1	16	0	0	300	300	748	50	0	1	1	blank2r.bmp	0	1	+	0	1	blank2r.bmp	435	1	CPPC	435	1	blank2r.bmp	505	1	gütig	764	0	0	0	0	0	0	0	0	0	0	0	0	0	0	0	0	0	0	0	0	0	0	0	0	0	0	0	0	0	0	0	0	0	0	0	0
070119	16:35:46	16:39:52	244094	5.0.10.0	5_exp_RW	1	Rpleas_acq	CS_A	CPPC	ZHHZ	YFFY	JQQJ	LWWL	DXXD	gütig	träumen	küssen	sonnig	vertrauen	genießen	gierig	töten	krank	sterben	versagen	gemein	1	acq_USunple_CSunple2_RW	acq2_RW	2	1	480	0	300	300	571	46	0	1	1	blank2r.bmp	0	1	+	0	1	blank2r.bmp	435	1	JQQJ	435	1	blank2r.bmp	505	1	sterben	764	1	!	1211	1	!	-1	0	0	0	0	0	0	0	0	0	0	0	0	0	0	0	0	0	0	0	0	0	0	0	0	0	0	0	0	0	0
070119	16:35:46	16:39:54	246258	5.0.10.0	5_exp_RW	1	Rpleas_acq	CS_A	CPPC	ZHHZ	YFFY	JQQJ	LWWL	DXXD	gütig	träumen	küssen	sonnig	vertrauen	genießen	gierig	töten	krank	sterben	versagen	gemein	1	acq_USpleas_CSpleas1_RW	acq2_RW	2	2	480	1	300	300	472	50	0	1	1	blank2r.bmp	0	1	+	0	1	blank2r.bmp	435	1	CPPC	435	1	blank2r.bmp	505	3	küssen	764	1	!	1211	1	!	1270	0	0	0	0	0	0	0	0	0	0	0	0	0	0	0	0	0	0	0	0	0	0	0	0	0	0	0	0	0	0
070119	16:35:46	16:39:56	248505	5.0.10.0	5_exp_RW	1	Rpleas_acq	CS_A	CPPC	ZHHZ	YFFY	JQQJ	LWWL	DXXD	gütig	träumen	küssen	sonnig	vertrauen	genießen	gierig	töten	krank	sterben	versagen	gemein	1	acq_USpleas_CSpleas1_RW	acq2_RW	2	3	480	1	300	300	541	50	0	1	1	blank2r.bmp	0	1	+	0	1	blank2r.bmp	435	1	CPPC	435	1	blank2r.bmp	505	2	träumen	764	1	!	1211	1	!	1341	0	0	0	0	0	0	0	0	0	0	0	0	0	0	0	0	0	0	0	0	0	0	0	0	0	0	0	0	0	0
070119	16:35:46	16:39:58	250635	5.0.10.0	5_exp_RW	1	Rpleas_acq	CS_A	CPPC	ZHHZ	YFFY	JQQJ	LWWL	DXXD	gütig	träumen	küssen	sonnig	vertrauen	genießen	gierig	töten	krank	sterben	versagen	gemein	1	acq_USpleas_CSpleas1_RW	acq2_RW	2	4	480	1	300	300	434	50	0	1	1	blank2r.bmp	0	1	+	0	1	blank2r.bmp	435	1	CPPC	435	1	blank2r.bmp	505	2	träumen	764	1	!	1211	1	!	1223	0	0	0	0	0	0	0	0	0	0	0	0	0	0	0	0	0	0	0	0	0	0	0	0	0	0	0	0	0	0
070119	16:35:46	16:40:00	252764	5.0.10.0	5_exp_RW	1	Rpleas_acq	CS_A	CPPC	ZHHZ	YFFY	JQQJ	LWWL	DXXD	gütig	träumen	küssen	sonnig	vertrauen	genießen	gierig	töten	krank	sterben	versagen	gemein	1	acq_USpleas_CSpleas2_RW	acq2_RW	2	5	480	1	300	300	439	50	0	1	1	blank2r.bmp	0	1	+	0	1	blank2r.bmp	435	1	ZHHZ	435	1	blank2r.bmp	505	1	sonnig	764	1	!	1211	1	!	1235	0	0	0	0	0	0	0	0	0	0	0	0	0	0	0	0	0	0	0	0	0	0	0	0	0	0	0	0	0	0
070119	16:35:46	16:40:02	254847	5.0.10.0	5_exp_RW	1	Rpleas_acq	CS_A	CPPC	ZHHZ	YFFY	JQQJ	LWWL	DXXD	gütig	träumen	küssen	sonnig	vertrauen	genießen	gierig	töten	krank	sterben	versagen	gemein	1	acq_USpleas_CSpleas2_RW	acq2_RW	2	6	480	0	300	300	403	50	0	1	1	blank2r.bmp	0	1	+	0	1	blank2r.bmp	435	1	ZHHZ	435	1	blank2r.bmp	505	3	genießen	764	1	!	-1	1	!	-1	0	0	0	0	0	0	0	0	0	0	0	0	0	0	0	0	0	0	0	0	0	0	0	0	0	0	0	0	0	0
070119	16:35:46	16:40:05	257070	5.0.10.0	5_exp_RW	1	Rpleas_acq	CS_A	CPPC	ZHHZ	YFFY	JQQJ	LWWL	DXXD	gütig	träumen	küssen	sonnig	vertrauen	genießen	gierig	töten	krank	sterben	versagen	gemein	1	acq_USpleas_CSpleas2_RW	acq2_RW	2	7	480	1	300	300	518	50	0	1	1	blank2r.bmp	0	1	+	0	1	blank2r.bmp	435	1	ZHHZ	435	1	blank2r.bmp	505	3	genießen	764	1	!	1211	1	!	1317	0	0	0	0	0	0	0	0	0	0	0	0	0	0	0	0	0	0	0	0	0	0	0	0	0	0	0	0	0	0
070119	16:35:46	16:40:07	259329	5.0.10.0	5_exp_RW	1	Rpleas_acq	CS_A	CPPC	ZHHZ	YFFY	JQQJ	LWWL	DXXD	gütig	träumen	küssen	sonnig	vertrauen	genießen	gierig	töten	krank	sterben	versagen	gemein	1	acq_USpleas_CSpleas2_RW	acq2_RW	2	8	480	0	300	300	580	50	0	1	1	blank2r.bmp	0	1	+	0	1	blank2r.bmp	435	1	ZHHZ	435	1	blank2r.bmp	505	2	vertrauen	764	1	!	1211	1	!	-1	0	0	0	0	0	0	0	0	0	0	0	0	0	0	0	0	0	0	0	0	0	0	0	0	0	0	0	0	0	0
070119	16:35:46	16:40:09	261400	5.0.10.0	5_exp_RW	1	Rpleas_acq	CS_A	CPPC	ZHHZ	YFFY	JQQJ	LWWL	DXXD	gütig	träumen	küssen	sonnig	vertrauen	genießen	gierig	töten	krank	sterben	versagen	gemein	1	acq_USpleas_CSpleas2_RW	acq2_RW	2	9	480	0	300	300	380	50	0	1	1	blank2r.bmp	0	1	+	0	1	blank2r.bmp	435	1	ZHHZ	435	1	blank2r.bmp	505	1	sonnig	764	1	!	-1	1	!	-1	0	0	0	0	0	0	0	0	0	0	0	0	0	0	0	0	0	0	0	0	0	0	0	0	0	0	0	0	0	0
070119	16:35:46	16:40:12	264411	5.0.10.0	5_exp_RW	1	Rpleas_acq	CS_A	CPPC	ZHHZ	YFFY	JQQJ	LWWL	DXXD	gütig	träumen	küssen	sonnig	vertrauen	genießen	gierig	töten	krank	sterben	versagen	gemein	1	acq_USunple_CSunple1_RW	acq2_RW	2	10	480	0	300	300	1341	46	0	1	1	blank2r.bmp	0	1	+	0	1	blank2r.bmp	435	1	YFFY	435	1	blank2r.bmp	505	1	gierig	764	1	!	1211	1	!	-1	0	0	0	0	0	0	0	0	0	0	0	0	0	0	0	0	0	0	0	0	0	0	0	0	0	0	0	0	0	0
070119	16:35:46	16:40:14	266623	5.0.10.0	5_exp_RW	1	Rpleas_acq	CS_A	CPPC	ZHHZ	YFFY	JQQJ	LWWL	DXXD	gütig	träumen	küssen	sonnig	vertrauen	genießen	gierig	töten	krank	sterben	versagen	gemein	1	acq_USunple_CSunple1_RW	acq2_RW	2	11	480	1	300	300	510	46	0	1	1	blank2r.bmp	0	1	+	0	1	blank2r.bmp	435	1	YFFY	435	1	blank2r.bmp	505	3	krank	764	1	!	1211	1	!	1305	0	0	0	0	0	0	0	0	0	0	0	0	0	0	0	0	0	0	0	0	0	0	0	0	0	0	0	0	0	0
070119	16:35:46	16:40:17	269211	5.0.10.0	5_exp_RW	1	Rpleas_acq	CS_A	CPPC	ZHHZ	YFFY	JQQJ	LWWL	DXXD	gütig	träumen	küssen	sonnig	vertrauen	genießen	gierig	töten	krank	sterben	versagen	gemein	1	acq_USunple_CSunple2_RW	acq2_RW	2	12	480	0	300	300	915	46	0	1	1	blank2r.bmp	0	1	+	0	1	blank2r.bmp	435	1	JQQJ	435	1	blank2r.bmp	505	3	gemein	764	1	!	1211	1	!	-1	0	0	0	0	0	0	0	0	0	0	0	0	0	0	0	0	0	0	0	0	0	0	0	0	0	0	0	0	0	0
070119	16:35:46	16:40:19	271458	5.0.10.0	5_exp_RW	1	Rpleas_acq	CS_A	CPPC	ZHHZ	YFFY	JQQJ	LWWL	DXXD	gütig	träumen	küssen	sonnig	vertrauen	genießen	gierig	töten	krank	sterben	versagen	gemein	1	acq_USunple_CSunple1_RW	acq2_RW	2	13	480	0	300	300	564	46	0	1	1	blank2r.bmp	0	1	+	0	1	blank2r.bmp	435	1	YFFY	435	1	blank2r.bmp	505	3	krank	764	1	!	1211	1	!	-1	0	0	0	0	0	0	0	0	0	0	0	0	0	0	0	0	0	0	0	0	0	0	0	0	0	0	0	0	0	0
070119	16:35:46	16:40:21	273458	5.0.10.0	5_exp_RW	1	Rpleas_acq	CS_A	CPPC	ZHHZ	YFFY	JQQJ	LWWL	DXXD	gütig	träumen	küssen	sonnig	vertrauen	genießen	gierig	töten	krank	sterben	versagen	gemein	1	acq_USunple_CSunple2_RW	acq2_RW	2	14	480	0	300	300	331	46	0	1	1	blank2r.bmp	0	1	+	0	1	blank2r.bmp	435	1	JQQJ	435	1	blank2r.bmp	505	3	gemein	764	1	!	-1	1	!	-1	0	0	0	0	0	0	0	0	0	0	0	0	0	0	0	0	0	0	0	0	0	0	0	0	0	0	0	0	0	0
070119	16:35:46	16:40:23	275588	5.0.10.0	5_exp_RW	1	Rpleas_acq	CS_A	CPPC	ZHHZ	YFFY	JQQJ	LWWL	DXXD	gütig	träumen	küssen	sonnig	vertrauen	genießen	gierig	töten	krank	sterben	versagen	gemein	1	acq_USunple_CSunple1_RW	acq2_RW	2	15	480	1	300	300	423	46	0	1	1	blank2r.bmp	0	1	+	0	1	blank2r.bmp	435	1	YFFY	435	1	blank2r.bmp	505	1	gierig	764	1	!	1211	1	!	1223	0	0	0	0	0	0	0	0	0	0	0	0	0	0	0	0	0	0	0	0	0	0	0	0	0	0	0	0	0	0
070119	16:35:46	16:40:25	277706	5.0.10.0	5_exp_RW	1	Rpleas_acq	CS_A	CPPC	ZHHZ	YFFY	JQQJ	LWWL	DXXD	gütig	träumen	küssen	sonnig	vertrauen	genießen	gierig	töten	krank	sterben	versagen	gemein	1	acq_USunple_CSunple2_RW	acq2_RW	2	16	480	1	300	300	433	46	0	1	1	blank2r.bmp	0	1	+	0	1	blank2r.bmp	435	1	JQQJ	435	1	blank2r.bmp	505	2	versagen	764	1	!	1211	1	!	1223	0	0	0	0	0	0	0	0	0	0	0	0	0	0	0	0	0	0	0	0	0	0	0	0	0	0	0	0	0	0
070119	16:35:46	16:40:27	279858	5.0.10.0	5_exp_RW	1	Rpleas_acq	CS_A	CPPC	ZHHZ	YFFY	JQQJ	LWWL	DXXD	gütig	träumen	küssen	sonnig	vertrauen	genießen	gierig	töten	krank	sterben	versagen	gemein	1	acq_USpleas_CSpleas1_RW	acq2_RW	2	17	480	1	300	300	451	50	0	1	1	blank2r.bmp	0	1	+	0	1	blank2r.bmp	435	1	CPPC	435	1	blank2r.bmp	505	1	gütig	764	1	!	1211	1	!	1247	0	0	0	0	0	0	0	0	0	0	0	0	0	0	0	0	0	0	0	0	0	0	0	0	0	0	0	0	0	0
070119	16:35:46	16:40:30	282129	5.0.10.0	5_exp_RW	1	Rpleas_acq	CS_A	CPPC	ZHHZ	YFFY	JQQJ	LWWL	DXXD	gütig	träumen	küssen	sonnig	vertrauen	genießen	gierig	töten	krank	sterben	versagen	gemein	1	acq_USunple_CSunple2_RW	acq2_RW	2	18	480	0	300	300	369	50	0	0	1	blank2r.bmp	0	1	+	0	1	blank2r.bmp	435	1	JQQJ	435	1	blank2r.bmp	505	1	sterben	764	1	FEHLER	1470	1	!	-1	1	!	-1	0	0	0	0	0	0	0	0	0	0	0	0	0	0	0	0	0	0	0	0	0	0	0	0	0	0	0
070119	16:35:46	16:40:32	283988	5.0.10.0	5_exp_RW	1	Rpleas_acq	CS_A	CPPC	ZHHZ	YFFY	JQQJ	LWWL	DXXD	gütig	träumen	küssen	sonnig	vertrauen	genießen	gierig	töten	krank	sterben	versagen	gemein	1	acq_USunple_CSunple1_RW	acq2_RW	2	19	480	0	300	300	390	46	0	1	1	blank2r.bmp	0	1	+	0	1	blank2r.bmp	435	1	YFFY	435	1	blank2r.bmp	505	2	töten	764	1	!	-1	1	!	-1	0	0	0	0	0	0	0	0	0	0	0	0	0	0	0	0	0	0	0	0	0	0	0	0	0	0	0	0	0	0
070119	16:35:46	16:40:34	286047	5.0.10.0	5_exp_RW	1	Rpleas_acq	CS_A	CPPC	ZHHZ	YFFY	JQQJ	LWWL	DXXD	gütig	träumen	küssen	sonnig	vertrauen	genießen	gierig	töten	krank	sterben	versagen	gemein	1	acq_USunple_CSunple2_RW	acq2_RW	2	20	480	0	300	300	370	46	0	1	1	blank2r.bmp	0	1	+	0	1	blank2r.bmp	435	1	JQQJ	435	1	blank2r.bmp	505	1	sterben	764	1	!	-1	1	!	-1	0	0	0	0	0	0	0	0	0	0	0	0	0	0	0	0	0	0	0	0	0	0	0	0	0	0	0	0	0	0
070119	16:35:46	16:40:36	288223	5.0.10.0	5_exp_RW	1	Rpleas_acq	CS_A	CPPC	ZHHZ	YFFY	JQQJ	LWWL	DXXD	gütig	träumen	küssen	sonnig	vertrauen	genießen	gierig	töten	krank	sterben	versagen	gemein	1	acq_USpleas_CSpleas1_RW	acq2_RW	2	21	480	0	300	300	292	46	0	0	1	blank2r.bmp	0	1	+	0	1	blank2r.bmp	435	1	CPPC	435	1	blank2r.bmp	505	3	küssen	764	1	FEHLER	1388	1	!	-1	1	!	-1	0	0	0	0	0	0	0	0	0	0	0	0	0	0	0	0	0	0	0	0	0	0	0	0	0	0	0
070119	16:35:46	16:40:38	290176	5.0.10.0	5_exp_RW	1	Rpleas_acq	CS_A	CPPC	ZHHZ	YFFY	JQQJ	LWWL	DXXD	gütig	träumen	küssen	sonnig	vertrauen	genießen	gierig	töten	krank	sterben	versagen	gemein	1	acq_USpleas_CSpleas1_RW	acq2_RW	2	22	480	1	300	300	476	50	0	1	1	blank2r.bmp	0	1	+	0	1	blank2r.bmp	435	1	CPPC	435	1	blank2r.bmp	505	2	träumen	764	1	!	1211	1	!	1270	0	0	0	0	0	0	0	0	0	0	0	0	0	0	0	0	0	0	0	0	0	0	0	0	0	0	0	0	0	0
070119	16:35:46	16:40:40	292306	5.0.10.0	5_exp_RW	1	Rpleas_acq	CS_A	CPPC	ZHHZ	YFFY	JQQJ	LWWL	DXXD	gütig	träumen	küssen	sonnig	vertrauen	genießen	gierig	töten	krank	sterben	versagen	gemein	1	acq_USpleas_CSpleas2_RW	acq2_RW	2	23	480	1	300	300	436	50	0	1	1	blank2r.bmp	0	1	+	0	1	blank2r.bmp	435	1	ZHHZ	435	1	blank2r.bmp	505	1	sonnig	764	1	!	1211	1	!	1235	0	0	0	0	0	0	0	0	0	0	0	0	0	0	0	0	0	0	0	0	0	0	0	0	0	0	0	0	0	0
070119	16:35:46	16:40:42	294541	5.0.10.0	5_exp_RW	1	Rpleas_acq	CS_A	CPPC	ZHHZ	YFFY	JQQJ	LWWL	DXXD	gütig	träumen	küssen	sonnig	vertrauen	genießen	gierig	töten	krank	sterben	versagen	gemein	1	acq_USunple_CSunple1_RW	acq2_RW	2	24	480	0	300	300	554	46	0	1	1	blank2r.bmp	0	1	+	0	1	blank2r.bmp	435	1	YFFY	435	1	blank2r.bmp	505	1	gierig	764	1	!	1211	1	!	-1	0	0	0	0	0	0	0	0	0	0	0	0	0	0	0	0	0	0	0	0	0	0	0	0	0	0	0	0	0	0
070119	16:35:46	16:41:03	315553	5.0.10.0	5_exp_RW	1	Rpleas_acq	CS_A	CPPC	ZHHZ	YFFY	JQQJ	LWWL	DXXD	gütig	träumen	küssen	sonnig	vertrauen	genießen	gierig	töten	krank	sterben	versagen	gemein	1	acq_USpleas_CSpleas1_RW	acq3_RW	3	1	453	0	300	300	591	50	0	1	1	blank2r.bmp	0	1	+	0	1	blank2r.bmp	435	1	CPPC	435	1	blank2r.bmp	505	1	gütig	764	1	!	1188	1	!	-1	0	0	0	0	0	0	0	0	0	0	0	0	0	0	0	0	0	0	0	0	0	0	0	0	0	0	0	0	0	0
070119	16:35:46	16:41:05	317788	5.0.10.0	5_exp_RW	1	Rpleas_acq	CS_A	CPPC	ZHHZ	YFFY	JQQJ	LWWL	DXXD	gütig	träumen	küssen	sonnig	vertrauen	genießen	gierig	töten	krank	sterben	versagen	gemein	1	acq_USunple_CSunple1_RW	acq3_RW	3	2	453	0	300	300	559	46	0	1	1	blank2r.bmp	0	1	+	0	1	blank2r.bmp	435	1	YFFY	435	1	blank2r.bmp	505	3	krank	764	1	!	1188	1	!	-1	0	0	0	0	0	0	0	0	0	0	0	0	0	0	0	0	0	0	0	0	0	0	0	0	0	0	0	0	0	0
070119	16:35:46	16:41:07	319800	5.0.10.0	5_exp_RW	1	Rpleas_acq	CS_A	CPPC	ZHHZ	YFFY	JQQJ	LWWL	DXXD	gütig	träumen	küssen	sonnig	vertrauen	genießen	gierig	töten	krank	sterben	versagen	gemein	1	acq_USpleas_CSpleas1_RW	acq3_RW	3	3	453	0	300	300	317	50	0	1	1	blank2r.bmp	0	1	+	0	1	blank2r.bmp	435	1	CPPC	435	1	blank2r.bmp	505	3	küssen	764	1	!	-1	1	!	-1	0	0	0	0	0	0	0	0	0	0	0	0	0	0	0	0	0	0	0	0	0	0	0	0	0	0	0	0	0	0
070119	16:35:46	16:41:09	321847	5.0.10.0	5_exp_RW	1	Rpleas_acq	CS_A	CPPC	ZHHZ	YFFY	JQQJ	LWWL	DXXD	gütig	träumen	küssen	sonnig	vertrauen	genießen	gierig	töten	krank	sterben	versagen	gemein	1	acq_USunple_CSunple2_RW	acq3_RW	3	4	453	0	300	300	361	46	0	1	1	blank2r.bmp	0	1	+	0	1	blank2r.bmp	435	1	JQQJ	435	1	blank2r.bmp	505	2	versagen	764	1	!	-1	1	!	-1	0	0	0	0	0	0	0	0	0	0	0	0	0	0	0	0	0	0	0	0	0	0	0	0	0	0	0	0	0	0
070119	16:35:46	16:41:12	324117	5.0.10.0	5_exp_RW	1	Rpleas_acq	CS_A	CPPC	ZHHZ	YFFY	JQQJ	LWWL	DXXD	gütig	träumen	küssen	sonnig	vertrauen	genießen	gierig	töten	krank	sterben	versagen	gemein	1	acq_USunple_CSunple1_RW	acq3_RW	3	5	453	0	300	300	589	46	0	1	1	blank2r.bmp	0	1	+	0	1	blank2r.bmp	435	1	YFFY	435	1	blank2r.bmp	505	2	töten	764	1	!	1188	1	!	-1	0	0	0	0	0	0	0	0	0	0	0	0	0	0	0	0	0	0	0	0	0	0	0	0	0	0	0	0	0	0
070119	16:35:46	16:41:14	326306	5.0.10.0	5_exp_RW	1	Rpleas_acq	CS_A	CPPC	ZHHZ	YFFY	JQQJ	LWWL	DXXD	gütig	träumen	küssen	sonnig	vertrauen	genießen	gierig	töten	krank	sterben	versagen	gemein	1	acq_USunple_CSunple2_RW	acq3_RW	3	6	453	0	300	300	285	50	0	0	1	blank2r.bmp	0	1	+	0	1	blank2r.bmp	435	1	JQQJ	435	1	blank2r.bmp	505	3	gemein	764	1	FEHLER	1388	1	!	-1	1	!	-1	0	0	0	0	0	0	0	0	0	0	0	0	0	0	0	0	0	0	0	0	0	0	0	0	0	0	0
070119	16:35:46	16:41:16	328129	5.0.10.0	5_exp_RW	1	Rpleas_acq	CS_A	CPPC	ZHHZ	YFFY	JQQJ	LWWL	DXXD	gütig	träumen	küssen	sonnig	vertrauen	genießen	gierig	töten	krank	sterben	versagen	gemein	1	acq_USunple_CSunple2_RW	acq3_RW	3	7	453	0	300	300	358	46	0	1	1	blank2r.bmp	0	1	+	0	1	blank2r.bmp	435	1	JQQJ	435	1	blank2r.bmp	505	1	sterben	764	1	!	-1	1	!	-1	0	0	0	0	0	0	0	0	0	0	0	0	0	0	0	0	0	0	0	0	0	0	0	0	0	0	0	0	0	0
070119	16:35:46	16:41:18	330176	5.0.10.0	5_exp_RW	1	Rpleas_acq	CS_A	CPPC	ZHHZ	YFFY	JQQJ	LWWL	DXXD	gütig	träumen	küssen	sonnig	vertrauen	genießen	gierig	töten	krank	sterben	versagen	gemein	1	acq_USunple_CSunple1_RW	acq3_RW	3	8	453	0	300	300	370	46	0	1	1	blank2r.bmp	0	1	+	0	1	blank2r.bmp	435	1	YFFY	435	1	blank2r.bmp	505	2	töten	764	1	!	-1	1	!	-1	0	0	0	0	0	0	0	0	0	0	0	0	0	0	0	0	0	0	0	0	0	0	0	0	0	0	0	0	0	0
070119	16:35:46	16:41:20	332188	5.0.10.0	5_exp_RW	1	Rpleas_acq	CS_A	CPPC	ZHHZ	YFFY	JQQJ	LWWL	DXXD	gütig	träumen	küssen	sonnig	vertrauen	genießen	gierig	töten	krank	sterben	versagen	gemein	1	acq_USunple_CSunple2_RW	acq3_RW	3	9	453	0	300	300	342	46	0	1	1	blank2r.bmp	0	1	+	0	1	blank2r.bmp	435	1	JQQJ	435	1	blank2r.bmp	505	3	gemein	764	1	!	-1	1	!	-1	0	0	0	0	0	0	0	0	0	0	0	0	0	0	0	0	0	0	0	0	0	0	0	0	0	0	0	0	0	0
070119	16:35:46	16:41:22	334306	5.0.10.0	5_exp_RW	1	Rpleas_acq	CS_A	CPPC	ZHHZ	YFFY	JQQJ	LWWL	DXXD	gütig	träumen	küssen	sonnig	vertrauen	genießen	gierig	töten	krank	sterben	versagen	gemein	1	acq_USpleas_CSpleas2_RW	acq3_RW	3	10	453	1	300	300	413	50	0	1	1	blank2r.bmp	0	1	+	0	1	blank2r.bmp	435	1	ZHHZ	435	1	blank2r.bmp	505	3	genießen	764	1	!	1188	1	!	1211	0	0	0	0	0	0	0	0	0	0	0	0	0	0	0	0	0	0	0	0	0	0	0	0	0	0	0	0	0	0
070119	16:35:46	16:41:24	336400	5.0.10.0	5_exp_RW	1	Rpleas_acq	CS_A	CPPC	ZHHZ	YFFY	JQQJ	LWWL	DXXD	gütig	träumen	küssen	sonnig	vertrauen	genießen	gierig	töten	krank	sterben	versagen	gemein	1	acq_USunple_CSunple1_RW	acq3_RW	3	11	453	1	300	300	400	46	0	1	1	blank2r.bmp	0	1	+	0	1	blank2r.bmp	435	1	YFFY	435	1	blank2r.bmp	505	3	krank	764	1	!	1188	1	!	1199	0	0	0	0	0	0	0	0	0	0	0	0	0	0	0	0	0	0	0	0	0	0	0	0	0	0	0	0	0	0
070119	16:35:46	16:41:26	338576	5.0.10.0	5_exp_RW	1	Rpleas_acq	CS_A	CPPC	ZHHZ	YFFY	JQQJ	LWWL	DXXD	gütig	träumen	küssen	sonnig	vertrauen	genießen	gierig	töten	krank	sterben	versagen	gemein	1	acq_USunple_CSunple2_RW	acq3_RW	3	12	453	1	300	300	489	46	0	1	1	blank2r.bmp	0	1	+	0	1	blank2r.bmp	435	1	JQQJ	435	1	blank2r.bmp	505	2	versagen	764	1	!	1188	1	!	1282	0	0	0	0	0	0	0	0	0	0	0	0	0	0	0	0	0	0	0	0	0	0	0	0	0	0	0	0	0	0
070119	16:35:46	16:41:29	341070	5.0.10.0	5_exp_RW	1	Rpleas_acq	CS_A	CPPC	ZHHZ	YFFY	JQQJ	LWWL	DXXD	gütig	träumen	küssen	sonnig	vertrauen	genießen	gierig	töten	krank	sterben	versagen	gemein	1	acq_USunple_CSunple1_RW	acq3_RW	3	13	453	0	300	300	804	46	0	1	1	blank2r.bmp	0	1	+	0	1	blank2r.bmp	435	1	YFFY	435	1	blank2r.bmp	505	1	gierig	764	1	!	1188	1	!	-1	0	0	0	0	0	0	0	0	0	0	0	0	0	0	0	0	0	0	0	0	0	0	0	0	0	0	0	0	0	0
070119	16:35:46	16:41:31	343306	5.0.10.0	5_exp_RW	1	Rpleas_acq	CS_A	CPPC	ZHHZ	YFFY	JQQJ	LWWL	DXXD	gütig	träumen	küssen	sonnig	vertrauen	genießen	gierig	töten	krank	sterben	versagen	gemein	1	acq_USpleas_CSpleas2_RW	acq3_RW	3	14	453	0	300	300	558	50	0	1	1	blank2r.bmp	0	1	+	0	1	blank2r.bmp	435	1	ZHHZ	435	1	blank2r.bmp	505	2	vertrauen	764	1	!	1188	1	!	-1	0	0	0	0	0	0	0	0	0	0	0	0	0	0	0	0	0	0	0	0	0	0	0	0	0	0	0	0	0	0
070119	16:35:46	16:41:33	345423	5.0.10.0	5_exp_RW	1	Rpleas_acq	CS_A	CPPC	ZHHZ	YFFY	JQQJ	LWWL	DXXD	gütig	träumen	küssen	sonnig	vertrauen	genießen	gierig	töten	krank	sterben	versagen	gemein	1	acq_USunple_CSunple1_RW	acq3_RW	3	15	453	1	300	300	417	46	0	1	1	blank2r.bmp	0	1	+	0	1	blank2r.bmp	435	1	YFFY	435	1	blank2r.bmp	505	2	töten	764	1	!	1188	1	!	1211	0	0	0	0	0	0	0	0	0	0	0	0	0	0	0	0	0	0	0	0	0	0	0	0	0	0	0	0	0	0
070119	16:35:46	16:41:35	347553	5.0.10.0	5_exp_RW	1	Rpleas_acq	CS_A	CPPC	ZHHZ	YFFY	JQQJ	LWWL	DXXD	gütig	träumen	küssen	sonnig	vertrauen	genießen	gierig	töten	krank	sterben	versagen	gemein	1	acq_USpleas_CSpleas1_RW	acq3_RW	3	16	453	1	300	300	446	50	0	1	1	blank2r.bmp	0	1	+	0	1	blank2r.bmp	435	1	CPPC	435	1	blank2r.bmp	505	1	gütig	764	1	!	1188	1	!	1235	0	0	0	0	0	0	0	0	0	0	0	0	0	0	0	0	0	0	0	0	0	0	0	0	0	0	0	0	0	0
070119	16:35:46	16:41:37	349600	5.0.10.0	5_exp_RW	1	Rpleas_acq	CS_A	CPPC	ZHHZ	YFFY	JQQJ	LWWL	DXXD	gütig	träumen	küssen	sonnig	vertrauen	genießen	gierig	töten	krank	sterben	versagen	gemein	1	acq_USpleas_CSpleas1_RW	acq3_RW	3	17	453	0	300	300	378	50	0	1	1	blank2r.bmp	0	1	+	0	1	blank2r.bmp	435	1	CPPC	435	1	blank2r.bmp	505	3	küssen	764	1	!	-1	1	!	-1	0	0	0	0	0	0	0	0	0	0	0	0	0	0	0	0	0	0	0	0	0	0	0	0	0	0	0	0	0	0
070119	16:35:46	16:41:40	351965	5.0.10.0	5_exp_RW	1	Rpleas_acq	CS_A	CPPC	ZHHZ	YFFY	JQQJ	LWWL	DXXD	gütig	träumen	küssen	sonnig	vertrauen	genießen	gierig	töten	krank	sterben	versagen	gemein	1	acq_USpleas_CSpleas2_RW	acq3_RW	3	18	453	1	300	300	456	46	0	0	1	blank2r.bmp	0	1	+	0	1	blank2r.bmp	435	1	ZHHZ	435	1	blank2r.bmp	505	3	genießen	764	1	FEHLER	1564	1	!	1188	1	!	1247	0	0	0	0	0	0	0	0	0	0	0	0	0	0	0	0	0	0	0	0	0	0	0	0	0	0	0
070119	16:35:46	16:41:41	353929	5.0.10.0	5_exp_RW	1	Rpleas_acq	CS_A	CPPC	ZHHZ	YFFY	JQQJ	LWWL	DXXD	gütig	träumen	küssen	sonnig	vertrauen	genießen	gierig	töten	krank	sterben	versagen	gemein	1	acq_USpleas_CSpleas2_RW	acq3_RW	3	19	453	1	300	300	483	50	0	1	1	blank2r.bmp	0	1	+	0	1	blank2r.bmp	435	1	ZHHZ	435	1	blank2r.bmp	505	2	vertrauen	764	1	!	1188	1	!	1282	0	0	0	0	0	0	0	0	0	0	0	0	0	0	0	0	0	0	0	0	0	0	0	0	0	0	0	0	0	0
070119	16:35:46	16:41:44	356047	5.0.10.0	5_exp_RW	1	Rpleas_acq	CS_A	CPPC	ZHHZ	YFFY	JQQJ	LWWL	DXXD	gütig	träumen	küssen	sonnig	vertrauen	genießen	gierig	töten	krank	sterben	versagen	gemein	1	acq_USpleas_CSpleas2_RW	acq3_RW	3	20	453	1	300	300	416	50	0	1	1	blank2r.bmp	0	1	+	0	1	blank2r.bmp	435	1	ZHHZ	435	1	blank2r.bmp	505	1	sonnig	764	1	!	1188	1	!	1211	0	0	0	0	0	0	0	0	0	0	0	0	0	0	0	0	0	0	0	0	0	0	0	0	0	0	0	0	0	0
070119	16:35:46	16:41:46	358153	5.0.10.0	5_exp_RW	1	Rpleas_acq	CS_A	CPPC	ZHHZ	YFFY	JQQJ	LWWL	DXXD	gütig	träumen	küssen	sonnig	vertrauen	genießen	gierig	töten	krank	sterben	versagen	gemein	1	acq_USpleas_CSpleas1_RW	acq3_RW	3	21	453	1	300	300	413	50	0	1	1	blank2r.bmp	0	1	+	0	1	blank2r.bmp	435	1	CPPC	435	1	blank2r.bmp	505	2	träumen	764	1	!	1188	1	!	1211	0	0	0	0	0	0	0	0	0	0	0	0	0	0	0	0	0	0	0	0	0	0	0	0	0	0	0	0	0	0
070119	16:35:46	16:41:48	360212	5.0.10.0	5_exp_RW	1	Rpleas_acq	CS_A	CPPC	ZHHZ	YFFY	JQQJ	LWWL	DXXD	gütig	träumen	küssen	sonnig	vertrauen	genießen	gierig	töten	krank	sterben	versagen	gemein	1	acq_USpleas_CSpleas1_RW	acq3_RW	3	22	453	0	300	300	379	50	0	1	1	blank2r.bmp	0	1	+	0	1	blank2r.bmp	435	1	CPPC	435	1	blank2r.bmp	505	1	gütig	764	1	!	-1	1	!	-1	0	0	0	0	0	0	0	0	0	0	0	0	0	0	0	0	0	0	0	0	0	0	0	0	0	0	0	0	0	0
070119	16:35:46	16:41:50	362247	5.0.10.0	5_exp_RW	1	Rpleas_acq	CS_A	CPPC	ZHHZ	YFFY	JQQJ	LWWL	DXXD	gütig	träumen	küssen	sonnig	vertrauen	genießen	gierig	töten	krank	sterben	versagen	gemein	1	acq_USunple_CSunple2_RW	acq3_RW	3	23	453	0	300	300	354	46	0	1	1	blank2r.bmp	0	1	+	0	1	blank2r.bmp	435	1	JQQJ	435	1	blank2r.bmp	505	2	versagen	764	1	!	-1	1	!	-1	0	0	0	0	0	0	0	0	0	0	0	0	0	0	0	0	0	0	0	0	0	0	0	0	0	0	0	0	0	0
070119	16:35:46	16:41:52	364470	5.0.10.0	5_exp_RW	1	Rpleas_acq	CS_A	CPPC	ZHHZ	YFFY	JQQJ	LWWL	DXXD	gütig	träumen	küssen	sonnig	vertrauen	genießen	gierig	töten	krank	sterben	versagen	gemein	1	acq_USpleas_CSpleas2_RW	acq3_RW	3	24	453	0	300	300	325	46	0	0	1	blank2r.bmp	0	1	+	0	1	blank2r.bmp	435	1	ZHHZ	435	1	blank2r.bmp	505	2	vertrauen	764	1	FEHLER	1423	1	!	-1	1	!	-1	0	0	0	0	0	0	0	0	0	0	0	0	0	0	0	0	0	0	0	0	0	0	0	0	0	0	0
070119	16:35:46	16:42:11	383447	5.0.10.0	5_exp_RW	1	Rpleas_acq	CS_A	CPPC	ZHHZ	YFFY	JQQJ	LWWL	DXXD	gütig	träumen	küssen	sonnig	vertrauen	genießen	gierig	töten	krank	sterben	versagen	gemein	1	acq_USunple_CSunple1_RW	acq4567_RW	4	1	400	0	300	300	482	46	0	1	1	blank2r.bmp	0	1	+	0	1	blank2r.bmp	435	1	YFFY	435	1	blank2r.bmp	505	1	gierig	764	1	!	1129	1	!	-1	0	0	0	0	0	0	0	0	0	0	0	0	0	0	0	0	0	0	0	0	0	0	0	0	0	0	0	0	0	0
070119	16:35:46	16:42:13	385565	5.0.10.0	5_exp_RW	1	Rpleas_acq	CS_A	CPPC	ZHHZ	YFFY	JQQJ	LWWL	DXXD	gütig	träumen	küssen	sonnig	vertrauen	genießen	gierig	töten	krank	sterben	versagen	gemein	1	acq_USpleas_CSpleas1_RW	acq4567_RW	4	2	400	1	300	300	400	50	0	1	1	blank2r.bmp	0	1	+	0	1	blank2r.bmp	435	1	CPPC	435	1	blank2r.bmp	505	2	träumen	764	1	!	1129	1	!	1199	0	0	0	0	0	0	0	0	0	0	0	0	0	0	0	0	0	0	0	0	0	0	0	0	0	0	0	0	0	0
070119	16:35:46	16:42:15	387729	5.0.10.0	5_exp_RW	1	Rpleas_acq	CS_A	CPPC	ZHHZ	YFFY	JQQJ	LWWL	DXXD	gütig	träumen	küssen	sonnig	vertrauen	genießen	gierig	töten	krank	sterben	versagen	gemein	1	acq_USunple_CSunple2_RW	acq4567_RW	4	3	400	0	300	300	482	46	0	1	1	blank2r.bmp	0	1	+	0	1	blank2r.bmp	435	1	JQQJ	435	1	blank2r.bmp	505	3	gemein	764	1	!	1129	1	!	-1	0	0	0	0	0	0	0	0	0	0	0	0	0	0	0	0	0	0	0	0	0	0	0	0	0	0	0	0	0	0
070119	16:35:46	16:42:17	389882	5.0.10.0	5_exp_RW	1	Rpleas_acq	CS_A	CPPC	ZHHZ	YFFY	JQQJ	LWWL	DXXD	gütig	träumen	küssen	sonnig	vertrauen	genießen	gierig	töten	krank	sterben	versagen	gemein	1	acq_USunple_CSunple2_RW	acq4567_RW	4	4	400	1	300	300	450	46	0	1	1	blank2r.bmp	0	1	+	0	1	blank2r.bmp	435	1	JQQJ	435	1	blank2r.bmp	505	1	sterben	764	1	!	1129	1	!	1247	0	0	0	0	0	0	0	0	0	0	0	0	0	0	0	0	0	0	0	0	0	0	0	0	0	0	0	0	0	0
070119	16:35:46	16:42:19	391953	5.0.10.0	5_exp_RW	1	Rpleas_acq	CS_A	CPPC	ZHHZ	YFFY	JQQJ	LWWL	DXXD	gütig	träumen	küssen	sonnig	vertrauen	genießen	gierig	töten	krank	sterben	versagen	gemein	1	acq_USunple_CSunple2_RW	acq4567_RW	4	5	400	1	300	300	377	50	0	0	1	blank2r.bmp	0	1	+	0	1	blank2r.bmp	435	1	JQQJ	435	1	blank2r.bmp	505	2	versagen	764	1	!	1129	1	!	1176	0	0	0	0	0	0	0	0	0	0	0	0	0	0	0	0	0	0	0	0	0	0	0	0	0	0	0	0	0	0
070119	16:35:46	16:42:22	394165	5.0.10.0	5_exp_RW	1	Rpleas_acq	CS_A	CPPC	ZHHZ	YFFY	JQQJ	LWWL	DXXD	gütig	träumen	küssen	sonnig	vertrauen	genießen	gierig	töten	krank	sterben	versagen	gemein	1	acq_USunple_CSunple2_RW	acq4567_RW	4	6	400	0	300	300	539	46	0	1	1	blank2r.bmp	0	1	+	0	1	blank2r.bmp	435	1	JQQJ	435	1	blank2r.bmp	505	3	gemein	764	1	!	1129	1	!	-1	0	0	0	0	0	0	0	0	0	0	0	0	0	0	0	0	0	0	0	0	0	0	0	0	0	0	0	0	0	0
070119	16:35:46	16:42:24	396223	5.0.10.0	5_exp_RW	1	Rpleas_acq	CS_A	CPPC	ZHHZ	YFFY	JQQJ	LWWL	DXXD	gütig	träumen	küssen	sonnig	vertrauen	genießen	gierig	töten	krank	sterben	versagen	gemein	1	acq_USpleas_CSpleas2_RW	acq4567_RW	4	7	400	1	300	300	375	50	0	1	1	blank2r.bmp	0	1	+	0	1	blank2r.bmp	435	1	ZHHZ	435	1	blank2r.bmp	505	1	sonnig	764	1	!	1129	1	!	1164	0	0	0	0	0	0	0	0	0	0	0	0	0	0	0	0	0	0	0	0	0	0	0	0	0	0	0	0	0	0
070119	16:35:46	16:42:26	398282	5.0.10.0	5_exp_RW	1	Rpleas_acq	CS_A	CPPC	ZHHZ	YFFY	JQQJ	LWWL	DXXD	gütig	träumen	küssen	sonnig	vertrauen	genießen	gierig	töten	krank	sterben	versagen	gemein	1	acq_USpleas_CSpleas1_RW	acq4567_RW	4	8	400	1	300	300	369	50	0	1	1	blank2r.bmp	0	1	+	0	1	blank2r.bmp	435	1	CPPC	435	1	blank2r.bmp	505	3	küssen	764	1	!	1129	1	!	1164	0	0	0	0	0	0	0	0	0	0	0	0	0	0	0	0	0	0	0	0	0	0	0	0	0	0	0	0	0	0
070119	16:35:46	16:42:28	400565	5.0.10.0	5_exp_RW	1	Rpleas_acq	CS_A	CPPC	ZHHZ	YFFY	JQQJ	LWWL	DXXD	gütig	träumen	küssen	sonnig	vertrauen	genießen	gierig	töten	krank	sterben	versagen	gemein	1	acq_USunple_CSunple2_RW	acq4567_RW	4	9	400	0	300	300	605	46	0	1	1	blank2r.bmp	0	1	+	0	1	blank2r.bmp	435	1	JQQJ	435	1	blank2r.bmp	505	1	sterben	764	1	!	1129	1	!	-1	0	0	0	0	0	0	0	0	0	0	0	0	0	0	0	0	0	0	0	0	0	0	0	0	0	0	0	0	0	0
070119	16:35:46	16:42:30	402765	5.0.10.0	5_exp_RW	1	Rpleas_acq	CS_A	CPPC	ZHHZ	YFFY	JQQJ	LWWL	DXXD	gütig	träumen	küssen	sonnig	vertrauen	genießen	gierig	töten	krank	sterben	versagen	gemein	1	acq_USpleas_CSpleas2_RW	acq4567_RW	4	10	400	0	300	300	522	50	0	1	1	blank2r.bmp	0	1	+	0	1	blank2r.bmp	435	1	ZHHZ	435	1	blank2r.bmp	505	3	genießen	764	1	!	1129	1	!	-1	0	0	0	0	0	0	0	0	0	0	0	0	0	0	0	0	0	0	0	0	0	0	0	0	0	0	0	0	0	0
070119	16:35:46	16:42:32	404918	5.0.10.0	5_exp_RW	1	Rpleas_acq	CS_A	CPPC	ZHHZ	YFFY	JQQJ	LWWL	DXXD	gütig	träumen	küssen	sonnig	vertrauen	genießen	gierig	töten	krank	sterben	versagen	gemein	1	acq_USunple_CSunple1_RW	acq4567_RW	4	11	400	0	300	300	484	46	0	1	1	blank2r.bmp	0	1	+	0	1	blank2r.bmp	435	1	YFFY	435	1	blank2r.bmp	505	3	krank	764	1	!	1129	1	!	-1	0	0	0	0	0	0	0	0	0	0	0	0	0	0	0	0	0	0	0	0	0	0	0	0	0	0	0	0	0	0
070119	16:35:46	16:42:34	406859	5.0.10.0	5_exp_RW	1	Rpleas_acq	CS_A	CPPC	ZHHZ	YFFY	JQQJ	LWWL	DXXD	gütig	träumen	küssen	sonnig	vertrauen	genießen	gierig	töten	krank	sterben	versagen	gemein	1	acq_USunple_CSunple1_RW	acq4567_RW	4	12	400	0	300	300	260	50	0	0	1	blank2r.bmp	0	1	+	0	1	blank2r.bmp	435	1	YFFY	435	1	blank2r.bmp	505	3	krank	764	1	!	-1	1	!	-1	0	0	0	0	0	0	0	0	0	0	0	0	0	0	0	0	0	0	0	0	0	0	0	0	0	0	0	0	0	0
070119	16:35:46	16:42:37	409012	5.0.10.0	5_exp_RW	1	Rpleas_acq	CS_A	CPPC	ZHHZ	YFFY	JQQJ	LWWL	DXXD	gütig	träumen	küssen	sonnig	vertrauen	genießen	gierig	töten	krank	sterben	versagen	gemein	1	acq_USpleas_CSpleas2_RW	acq4567_RW	4	13	400	1	300	300	452	50	0	1	1	blank2r.bmp	0	1	+	0	1	blank2r.bmp	435	1	ZHHZ	435	1	blank2r.bmp	505	3	genießen	764	1	!	1129	1	!	1247	0	0	0	0	0	0	0	0	0	0	0	0	0	0	0	0	0	0	0	0	0	0	0	0	0	0	0	0	0	0
070119	16:35:46	16:42:39	411082	5.0.10.0	5_exp_RW	1	Rpleas_acq	CS_A	CPPC	ZHHZ	YFFY	JQQJ	LWWL	DXXD	gütig	träumen	küssen	sonnig	vertrauen	genießen	gierig	töten	krank	sterben	versagen	gemein	1	acq_USpleas_CSpleas1_RW	acq4567_RW	4	14	400	1	300	300	365	50	0	1	1	blank2r.bmp	0	1	+	0	1	blank2r.bmp	435	1	CPPC	435	1	blank2r.bmp	505	1	gütig	764	1	!	1129	1	!	1164	0	0	0	0	0	0	0	0	0	0	0	0	0	0	0	0	0	0	0	0	0	0	0	0	0	0	0	0	0	0
070119	16:35:46	16:42:41	413082	5.0.10.0	5_exp_RW	1	Rpleas_acq	CS_A	CPPC	ZHHZ	YFFY	JQQJ	LWWL	DXXD	gütig	träumen	küssen	sonnig	vertrauen	genießen	gierig	töten	krank	sterben	versagen	gemein	1	acq_USpleas_CSpleas2_RW	acq4567_RW	4	15	400	0	300	300	323	50	0	1	1	blank2r.bmp	0	1	+	0	1	blank2r.bmp	435	1	ZHHZ	435	1	blank2r.bmp	505	1	sonnig	764	1	!	-1	1	!	-1	0	0	0	0	0	0	0	0	0	0	0	0	0	0	0	0	0	0	0	0	0	0	0	0	0	0	0	0	0	0
070119	16:35:46	16:42:43	415188	5.0.10.0	5_exp_RW	1	Rpleas_acq	CS_A	CPPC	ZHHZ	YFFY	JQQJ	LWWL	DXXD	gütig	träumen	küssen	sonnig	vertrauen	genießen	gierig	töten	krank	sterben	versagen	gemein	1	acq_USpleas_CSpleas1_RW	acq4567_RW	4	16	400	1	300	300	399	50	0	1	1	blank2r.bmp	0	1	+	0	1	blank2r.bmp	435	1	CPPC	435	1	blank2r.bmp	505	2	träumen	764	1	!	1129	1	!	1200	0	0	0	0	0	0	0	0	0	0	0	0	0	0	0	0	0	0	0	0	0	0	0	0	0	0	0	0	0	0
070119	16:35:46	16:42:45	417388	5.0.10.0	5_exp_RW	1	Rpleas_acq	CS_A	CPPC	ZHHZ	YFFY	JQQJ	LWWL	DXXD	gütig	träumen	küssen	sonnig	vertrauen	genießen	gierig	töten	krank	sterben	versagen	gemein	1	acq_USunple_CSunple1_RW	acq4567_RW	4	17	400	0	300	300	517	46	0	1	1	blank2r.bmp	0	1	+	0	1	blank2r.bmp	435	1	YFFY	435	1	blank2r.bmp	505	1	gierig	764	1	!	1129	1	!	-1	0	0	0	0	0	0	0	0	0	0	0	0	0	0	0	0	0	0	0	0	0	0	0	0	0	0	0	0	0	0
070119	16:35:46	16:42:47	419471	5.0.10.0	5_exp_RW	1	Rpleas_acq	CS_A	CPPC	ZHHZ	YFFY	JQQJ	LWWL	DXXD	gütig	träumen	küssen	sonnig	vertrauen	genießen	gierig	töten	krank	sterben	versagen	gemein	1	acq_USpleas_CSpleas1_RW	acq4567_RW	4	18	400	1	300	300	383	50	0	1	1	blank2r.bmp	0	1	+	0	1	blank2r.bmp	435	1	CPPC	435	1	blank2r.bmp	505	3	küssen	764	1	!	1129	1	!	1176	0	0	0	0	0	0	0	0	0	0	0	0	0	0	0	0	0	0	0	0	0	0	0	0	0	0	0	0	0	0
070119	16:35:46	16:42:49	421565	5.0.10.0	5_exp_RW	1	Rpleas_acq	CS_A	CPPC	ZHHZ	YFFY	JQQJ	LWWL	DXXD	gütig	träumen	küssen	sonnig	vertrauen	genießen	gierig	töten	krank	sterben	versagen	gemein	1	acq_USunple_CSunple1_RW	acq4567_RW	4	19	400	1	300	300	403	46	0	1	1	blank2r.bmp	0	1	+	0	1	blank2r.bmp	435	1	YFFY	435	1	blank2r.bmp	505	2	töten	764	1	!	1129	1	!	1200	0	0	0	0	0	0	0	0	0	0	0	0	0	0	0	0	0	0	0	0	0	0	0	0	0	0	0	0	0	0
070119	16:35:46	16:42:51	423741	5.0.10.0	5_exp_RW	1	Rpleas_acq	CS_A	CPPC	ZHHZ	YFFY	JQQJ	LWWL	DXXD	gütig	träumen	küssen	sonnig	vertrauen	genießen	gierig	töten	krank	sterben	versagen	gemein	1	acq_USpleas_CSpleas2_RW	acq4567_RW	4	20	400	0	300	300	508	50	0	1	1	blank2r.bmp	0	1	+	0	1	blank2r.bmp	435	1	ZHHZ	435	1	blank2r.bmp	505	2	vertrauen	764	1	!	1129	1	!	-1	0	0	0	0	0	0	0	0	0	0	0	0	0	0	0	0	0	0	0	0	0	0	0	0	0	0	0	0	0	0
070119	16:35:46	16:42:53	425812	5.0.10.0	5_exp_RW	1	Rpleas_acq	CS_A	CPPC	ZHHZ	YFFY	JQQJ	LWWL	DXXD	gütig	träumen	küssen	sonnig	vertrauen	genießen	gierig	töten	krank	sterben	versagen	gemein	1	acq_USunple_CSunple2_RW	acq4567_RW	4	21	400	1	300	300	354	46	0	1	1	blank2r.bmp	0	1	+	0	1	blank2r.bmp	435	1	JQQJ	435	1	blank2r.bmp	505	1	sterben	764	1	!	1129	1	!	1152	0	0	0	0	0	0	0	0	0	0	0	0	0	0	0	0	0	0	0	0	0	0	0	0	0	0	0	0	0	0
070119	16:35:46	16:42:55	427788	5.0.10.0	5_exp_RW	1	Rpleas_acq	CS_A	CPPC	ZHHZ	YFFY	JQQJ	LWWL	DXXD	gütig	träumen	küssen	sonnig	vertrauen	genießen	gierig	töten	krank	sterben	versagen	gemein	1	acq_USunple_CSunple2_RW	acq4567_RW	4	22	400	0	300	300	289	46	0	1	1	blank2r.bmp	0	1	+	0	1	blank2r.bmp	435	1	JQQJ	435	1	blank2r.bmp	505	2	versagen	764	1	!	-1	1	!	-1	0	0	0	0	0	0	0	0	0	0	0	0	0	0	0	0	0	0	0	0	0	0	0	0	0	0	0	0	0	0
070119	16:35:46	16:42:57	429894	5.0.10.0	5_exp_RW	1	Rpleas_acq	CS_A	CPPC	ZHHZ	YFFY	JQQJ	LWWL	DXXD	gütig	träumen	küssen	sonnig	vertrauen	genießen	gierig	töten	krank	sterben	versagen	gemein	1	acq_USpleas_CSpleas2_RW	acq4567_RW	4	23	400	1	300	300	414	50	0	1	1	blank2r.bmp	0	1	+	0	1	blank2r.bmp	435	1	ZHHZ	435	1	blank2r.bmp	505	1	sonnig	764	1	!	1129	1	!	1211	0	0	0	0	0	0	0	0	0	0	0	0	0	0	0	0	0	0	0	0	0	0	0	0	0	0	0	0	0	0
070119	16:35:46	16:43:00	431976	5.0.10.0	5_exp_RW	1	Rpleas_acq	CS_A	CPPC	ZHHZ	YFFY	JQQJ	LWWL	DXXD	gütig	träumen	küssen	sonnig	vertrauen	genießen	gierig	töten	krank	sterben	versagen	gemein	1	acq_USpleas_CSpleas1_RW	acq4567_RW	4	24	400	1	300	300	396	50	0	1	1	blank2r.bmp	0	1	+	0	1	blank2r.bmp	435	1	CPPC	435	1	blank2r.bmp	505	3	küssen	764	1	!	1129	1	!	1188	0	0	0	0	0	0	0	0	0	0	0	0	0	0	0	0	0	0	0	0	0	0	0	0	0	0	0	0	0	0
070119	16:35:46	16:43:01	433953	5.0.10.0	5_exp_RW	1	Rpleas_acq	CS_A	CPPC	ZHHZ	YFFY	JQQJ	LWWL	DXXD	gütig	träumen	küssen	sonnig	vertrauen	genießen	gierig	töten	krank	sterben	versagen	gemein	1	acq_USpleas_CSpleas2_RW	acq4567_RW	4	25	400	0	300	300	292	46	0	0	1	blank2r.bmp	0	1	+	0	1	blank2r.bmp	435	1	ZHHZ	435	1	blank2r.bmp	505	2	vertrauen	764	1	!	-1	1	!	-1	0	0	0	0	0	0	0	0	0	0	0	0	0	0	0	0	0	0	0	0	0	0	0	0	0	0	0	0	0	0
070119	16:35:46	16:43:04	436141	5.0.10.0	5_exp_RW	1	Rpleas_acq	CS_A	CPPC	ZHHZ	YFFY	JQQJ	LWWL	DXXD	gütig	träumen	küssen	sonnig	vertrauen	genießen	gierig	töten	krank	sterben	versagen	gemein	1	acq_USpleas_CSpleas1_RW	acq4567_RW	4	26	400	0	300	300	502	50	0	1	1	blank2r.bmp	0	1	+	0	1	blank2r.bmp	435	1	CPPC	435	1	blank2r.bmp	505	1	gütig	764	1	!	1129	1	!	-1	0	0	0	0	0	0	0	0	0	0	0	0	0	0	0	0	0	0	0	0	0	0	0	0	0	0	0	0	0	0
070119	16:35:46	16:43:06	438223	5.0.10.0	5_exp_RW	1	Rpleas_acq	CS_A	CPPC	ZHHZ	YFFY	JQQJ	LWWL	DXXD	gütig	träumen	küssen	sonnig	vertrauen	genießen	gierig	töten	krank	sterben	versagen	gemein	1	acq_USunple_CSunple2_RW	acq4567_RW	4	27	400	1	300	300	381	46	0	1	1	blank2r.bmp	0	1	+	0	1	blank2r.bmp	435	1	JQQJ	435	1	blank2r.bmp	505	3	gemein	764	1	!	1129	1	!	1176	0	0	0	0	0	0	0	0	0	0	0	0	0	0	0	0	0	0	0	0	0	0	0	0	0	0	0	0	0	0
070119	16:35:46	16:43:08	440376	5.0.10.0	5_exp_RW	1	Rpleas_acq	CS_A	CPPC	ZHHZ	YFFY	JQQJ	LWWL	DXXD	gütig	träumen	küssen	sonnig	vertrauen	genießen	gierig	töten	krank	sterben	versagen	gemein	1	acq_USunple_CSunple1_RW	acq4567_RW	4	28	400	0	300	300	482	46	0	1	1	blank2r.bmp	0	1	+	0	1	blank2r.bmp	435	1	YFFY	435	1	blank2r.bmp	505	1	gierig	764	1	!	1129	1	!	-1	0	0	0	0	0	0	0	0	0	0	0	0	0	0	0	0	0	0	0	0	0	0	0	0	0	0	0	0	0	0
070119	16:35:46	16:43:10	442435	5.0.10.0	5_exp_RW	1	Rpleas_acq	CS_A	CPPC	ZHHZ	YFFY	JQQJ	LWWL	DXXD	gütig	träumen	küssen	sonnig	vertrauen	genießen	gierig	töten	krank	sterben	versagen	gemein	1	acq_USunple_CSunple2_RW	acq4567_RW	4	29	400	1	300	300	358	46	0	1	1	blank2r.bmp	0	1	+	0	1	blank2r.bmp	435	1	JQQJ	435	1	blank2r.bmp	505	1	sterben	764	1	!	1129	1	!	1153	0	0	0	0	0	0	0	0	0	0	0	0	0	0	0	0	0	0	0	0	0	0	0	0	0	0	0	0	0	0
070119	16:35:46	16:43:12	444424	5.0.10.0	5_exp_RW	1	Rpleas_acq	CS_A	CPPC	ZHHZ	YFFY	JQQJ	LWWL	DXXD	gütig	träumen	küssen	sonnig	vertrauen	genießen	gierig	töten	krank	sterben	versagen	gemein	1	acq_USpleas_CSpleas2_RW	acq4567_RW	4	30	400	0	300	300	312	46	0	0	1	blank2r.bmp	0	1	+	0	1	blank2r.bmp	435	1	ZHHZ	435	1	blank2r.bmp	505	3	genießen	764	1	!	-1	1	!	-1	0	0	0	0	0	0	0	0	0	0	0	0	0	0	0	0	0	0	0	0	0	0	0	0	0	0	0	0	0	0
070119	16:35:46	16:43:14	446529	5.0.10.0	5_exp_RW	1	Rpleas_acq	CS_A	CPPC	ZHHZ	YFFY	JQQJ	LWWL	DXXD	gütig	träumen	küssen	sonnig	vertrauen	genießen	gierig	töten	krank	sterben	versagen	gemein	1	acq_USpleas_CSpleas2_RW	acq4567_RW	4	31	400	1	300	300	406	50	0	1	1	blank2r.bmp	0	1	+	0	1	blank2r.bmp	435	1	ZHHZ	435	1	blank2r.bmp	505	1	sonnig	764	1	!	1129	1	!	1200	0	0	0	0	0	0	0	0	0	0	0	0	0	0	0	0	0	0	0	0	0	0	0	0	0	0	0	0	0	0
070119	16:35:46	16:43:16	448588	5.0.10.0	5_exp_RW	1	Rpleas_acq	CS_A	CPPC	ZHHZ	YFFY	JQQJ	LWWL	DXXD	gütig	träumen	küssen	sonnig	vertrauen	genießen	gierig	töten	krank	sterben	versagen	gemein	1	acq_USunple_CSunple1_RW	acq4567_RW	4	32	400	1	300	300	356	46	0	1	1	blank2r.bmp	0	1	+	0	1	blank2r.bmp	435	1	YFFY	435	1	blank2r.bmp	505	3	krank	764	1	!	1129	1	!	1152	0	0	0	0	0	0	0	0	0	0	0	0	0	0	0	0	0	0	0	0	0	0	0	0	0	0	0	0	0	0
070119	16:35:46	16:43:18	450541	5.0.10.0	5_exp_RW	1	Rpleas_acq	CS_A	CPPC	ZHHZ	YFFY	JQQJ	LWWL	DXXD	gütig	träumen	küssen	sonnig	vertrauen	genießen	gierig	töten	krank	sterben	versagen	gemein	1	acq_USpleas_CSpleas1_RW	acq4567_RW	4	33	400	0	300	300	272	46	0	0	1	blank2r.bmp	0	1	+	0	1	blank2r.bmp	435	1	CPPC	435	1	blank2r.bmp	505	2	träumen	764	1	!	-1	1	!	-1	0	0	0	0	0	0	0	0	0	0	0	0	0	0	0	0	0	0	0	0	0	0	0	0	0	0	0	0	0	0
070119	16:35:46	16:43:20	452694	5.0.10.0	5_exp_RW	1	Rpleas_acq	CS_A	CPPC	ZHHZ	YFFY	JQQJ	LWWL	DXXD	gütig	träumen	küssen	sonnig	vertrauen	genießen	gierig	töten	krank	sterben	versagen	gemein	1	acq_USpleas_CSpleas1_RW	acq4567_RW	4	34	400	1	300	300	446	50	0	1	1	blank2r.bmp	0	1	+	0	1	blank2r.bmp	435	1	CPPC	435	1	blank2r.bmp	505	3	küssen	764	1	!	1129	1	!	1235	0	0	0	0	0	0	0	0	0	0	0	0	0	0	0	0	0	0	0	0	0	0	0	0	0	0	0	0	0	0
070119	16:35:46	16:43:22	454765	5.0.10.0	5_exp_RW	1	Rpleas_acq	CS_A	CPPC	ZHHZ	YFFY	JQQJ	LWWL	DXXD	gütig	träumen	küssen	sonnig	vertrauen	genießen	gierig	töten	krank	sterben	versagen	gemein	1	acq_USunple_CSunple1_RW	acq4567_RW	4	35	400	1	300	300	383	46	0	1	1	blank2r.bmp	0	1	+	0	1	blank2r.bmp	435	1	YFFY	435	1	blank2r.bmp	505	2	töten	764	1	!	1129	1	!	1176	0	0	0	0	0	0	0	0	0	0	0	0	0	0	0	0	0	0	0	0	0	0	0	0	0	0	0	0	0	0
070119	16:35:46	16:43:24	456906	5.0.10.0	5_exp_RW	1	Rpleas_acq	CS_A	CPPC	ZHHZ	YFFY	JQQJ	LWWL	DXXD	gütig	träumen	küssen	sonnig	vertrauen	genießen	gierig	töten	krank	sterben	versagen	gemein	1	acq_USpleas_CSpleas2_RW	acq4567_RW	4	36	400	1	300	300	435	50	0	1	1	blank2r.bmp	0	1	+	0	1	blank2r.bmp	435	1	ZHHZ	435	1	blank2r.bmp	505	2	vertrauen	764	1	!	1129	1	!	1235	0	0	0	0	0	0	0	0	0	0	0	0	0	0	0	0	0	0	0	0	0	0	0	0	0	0	0	0	0	0
070119	16:35:46	16:43:27	459059	5.0.10.0	5_exp_RW	1	Rpleas_acq	CS_A	CPPC	ZHHZ	YFFY	JQQJ	LWWL	DXXD	gütig	träumen	küssen	sonnig	vertrauen	genießen	gierig	töten	krank	sterben	versagen	gemein	1	acq_USunple_CSunple2_RW	acq4567_RW	4	37	400	0	300	300	489	46	0	1	1	blank2r.bmp	0	1	+	0	1	blank2r.bmp	435	1	JQQJ	435	1	blank2r.bmp	505	3	gemein	764	1	!	1129	1	!	-1	0	0	0	0	0	0	0	0	0	0	0	0	0	0	0	0	0	0	0	0	0	0	0	0	0	0	0	0	0	0
070119	16:35:46	16:43:29	461165	5.0.10.0	5_exp_RW	1	Rpleas_acq	CS_A	CPPC	ZHHZ	YFFY	JQQJ	LWWL	DXXD	gütig	träumen	küssen	sonnig	vertrauen	genießen	gierig	töten	krank	sterben	versagen	gemein	1	acq_USunple_CSunple1_RW	acq4567_RW	4	38	400	1	300	300	393	46	0	1	1	blank2r.bmp	0	1	+	0	1	blank2r.bmp	435	1	YFFY	435	1	blank2r.bmp	505	2	töten	764	1	!	1129	1	!	1188	0	0	0	0	0	0	0	0	0	0	0	0	0	0	0	0	0	0	0	0	0	0	0	0	0	0	0	0	0	0
070119	16:35:46	16:43:31	463247	5.0.10.0	5_exp_RW	1	Rpleas_acq	CS_A	CPPC	ZHHZ	YFFY	JQQJ	LWWL	DXXD	gütig	träumen	küssen	sonnig	vertrauen	genießen	gierig	töten	krank	sterben	versagen	gemein	1	acq_USpleas_CSpleas1_RW	acq4567_RW	4	39	400	1	300	300	396	50	0	1	1	blank2r.bmp	0	1	+	0	1	blank2r.bmp	435	1	CPPC	435	1	blank2r.bmp	505	1	gütig	764	1	!	1129	1	!	1188	0	0	0	0	0	0	0	0	0	0	0	0	0	0	0	0	0	0	0	0	0	0	0	0	0	0	0	0	0	0
070119	16:35:46	16:43:33	465424	5.0.10.0	5_exp_RW	1	Rpleas_acq	CS_A	CPPC	ZHHZ	YFFY	JQQJ	LWWL	DXXD	gütig	träumen	küssen	sonnig	vertrauen	genießen	gierig	töten	krank	sterben	versagen	gemein	1	acq_USunple_CSunple1_RW	acq4567_RW	4	40	400	0	300	300	504	46	0	1	1	blank2r.bmp	0	1	+	0	1	blank2r.bmp	435	1	YFFY	435	1	blank2r.bmp	505	1	gierig	764	1	!	1129	1	!	-1	0	0	0	0	0	0	0	0	0	0	0	0	0	0	0	0	0	0	0	0	0	0	0	0	0	0	0	0	0	0
070119	16:35:46	16:43:35	467612	5.0.10.0	5_exp_RW	1	Rpleas_acq	CS_A	CPPC	ZHHZ	YFFY	JQQJ	LWWL	DXXD	gütig	träumen	küssen	sonnig	vertrauen	genießen	gierig	töten	krank	sterben	versagen	gemein	1	acq_USunple_CSunple2_RW	acq4567_RW	4	41	400	0	300	300	512	50	0	0	1	blank2r.bmp	0	1	+	0	1	blank2r.bmp	435	1	JQQJ	435	1	blank2r.bmp	505	2	versagen	764	1	!	1129	1	!	-1	0	0	0	0	0	0	0	0	0	0	0	0	0	0	0	0	0	0	0	0	0	0	0	0	0	0	0	0	0	0
070119	16:35:46	16:43:37	469765	5.0.10.0	5_exp_RW	1	Rpleas_acq	CS_A	CPPC	ZHHZ	YFFY	JQQJ	LWWL	DXXD	gütig	träumen	küssen	sonnig	vertrauen	genießen	gierig	töten	krank	sterben	versagen	gemein	1	acq_USpleas_CSpleas2_RW	acq4567_RW	4	42	400	1	300	300	458	50	0	1	1	blank2r.bmp	0	1	+	0	1	blank2r.bmp	435	1	ZHHZ	435	1	blank2r.bmp	505	3	genießen	764	1	!	1129	1	!	1258	0	0	0	0	0	0	0	0	0	0	0	0	0	0	0	0	0	0	0	0	0	0	0	0	0	0	0	0	0	0
070119	16:35:46	16:43:39	471741	5.0.10.0	5_exp_RW	1	Rpleas_acq	CS_A	CPPC	ZHHZ	YFFY	JQQJ	LWWL	DXXD	gütig	träumen	küssen	sonnig	vertrauen	genießen	gierig	töten	krank	sterben	versagen	gemein	1	acq_USunple_CSunple1_RW	acq4567_RW	4	43	400	0	300	300	297	46	0	1	1	blank2r.bmp	0	1	+	0	1	blank2r.bmp	435	1	YFFY	435	1	blank2r.bmp	505	3	krank	764	1	!	-1	1	!	-1	0	0	0	0	0	0	0	0	0	0	0	0	0	0	0	0	0	0	0	0	0	0	0	0	0	0	0	0	0	0
070119	16:35:46	16:43:41	473894	5.0.10.0	5_exp_RW	1	Rpleas_acq	CS_A	CPPC	ZHHZ	YFFY	JQQJ	LWWL	DXXD	gütig	träumen	küssen	sonnig	vertrauen	genießen	gierig	töten	krank	sterben	versagen	gemein	1	acq_USunple_CSunple1_RW	acq4567_RW	4	44	400	1	300	300	465	46	0	1	1	blank2r.bmp	0	1	+	0	1	blank2r.bmp	435	1	YFFY	435	1	blank2r.bmp	505	2	töten	764	1	!	1129	1	!	1258	0	0	0	0	0	0	0	0	0	0	0	0	0	0	0	0	0	0	0	0	0	0	0	0	0	0	0	0	0	0
070119	16:35:46	16:43:43	475882	5.0.10.0	5_exp_RW	1	Rpleas_acq	CS_A	CPPC	ZHHZ	YFFY	JQQJ	LWWL	DXXD	gütig	träumen	küssen	sonnig	vertrauen	genießen	gierig	töten	krank	sterben	versagen	gemein	1	acq_USpleas_CSpleas1_RW	acq4567_RW	4	45	400	0	300	300	320	50	0	1	1	blank2r.bmp	0	1	+	0	1	blank2r.bmp	435	1	CPPC	435	1	blank2r.bmp	505	2	träumen	764	1	!	-1	1	!	-1	0	0	0	0	0	0	0	0	0	0	0	0	0	0	0	0	0	0	0	0	0	0	0	0	0	0	0	0	0	0
070119	16:35:46	16:43:45	477953	5.0.10.0	5_exp_RW	1	Rpleas_acq	CS_A	CPPC	ZHHZ	YFFY	JQQJ	LWWL	DXXD	gütig	träumen	küssen	sonnig	vertrauen	genießen	gierig	töten	krank	sterben	versagen	gemein	1	acq_USunple_CSunple2_RW	acq4567_RW	4	46	400	1	300	300	364	46	0	1	1	blank2r.bmp	0	1	+	0	1	blank2r.bmp	435	1	JQQJ	435	1	blank2r.bmp	505	1	sterben	764	1	!	1129	1	!	1164	0	0	0	0	0	0	0	0	0	0	0	0	0	0	0	0	0	0	0	0	0	0	0	0	0	0	0	0	0	0
070119	16:35:46	16:43:48	480047	5.0.10.0	5_exp_RW	1	Rpleas_acq	CS_A	CPPC	ZHHZ	YFFY	JQQJ	LWWL	DXXD	gütig	träumen	küssen	sonnig	vertrauen	genießen	gierig	töten	krank	sterben	versagen	gemein	1	acq_USunple_CSunple2_RW	acq4567_RW	4	47	400	1	300	300	411	46	0	1	1	blank2r.bmp	0	1	+	0	1	blank2r.bmp	435	1	JQQJ	435	1	blank2r.bmp	505	3	gemein	764	1	!	1129	1	!	1200	0	0	0	0	0	0	0	0	0	0	0	0	0	0	0	0	0	0	0	0	0	0	0	0	0	0	0	0	0	0
070119	16:35:46	16:43:50	482153	5.0.10.0	5_exp_RW	1	Rpleas_acq	CS_A	CPPC	ZHHZ	YFFY	JQQJ	LWWL	DXXD	gütig	träumen	küssen	sonnig	vertrauen	genießen	gierig	töten	krank	sterben	versagen	gemein	1	acq_USunple_CSunple2_RW	acq4567_RW	4	48	400	1	300	300	414	46	0	1	1	blank2r.bmp	0	1	+	0	1	blank2r.bmp	435	1	JQQJ	435	1	blank2r.bmp	505	2	versagen	764	1	!	1129	1	!	1211	0	0	0	0	0	0	0	0	0	0	0	0	0	0	0	0	0	0	0	0	0	0	0	0	0	0	0	0	0	0
070119	16:35:46	16:43:52	484259	5.0.10.0	5_exp_RW	1	Rpleas_acq	CS_A	CPPC	ZHHZ	YFFY	JQQJ	LWWL	DXXD	gütig	träumen	küssen	sonnig	vertrauen	genießen	gierig	töten	krank	sterben	versagen	gemein	1	acq_USunple_CSunple1_RW	acq4567_RW	4	49	400	1	300	300	419	46	0	1	1	blank2r.bmp	0	1	+	0	1	blank2r.bmp	435	1	YFFY	435	1	blank2r.bmp	505	1	gierig	764	1	!	1129	1	!	1211	0	0	0	0	0	0	0	0	0	0	0	0	0	0	0	0	0	0	0	0	0	0	0	0	0	0	0	0	0	0
070119	16:35:46	16:43:54	486294	5.0.10.0	5_exp_RW	1	Rpleas_acq	CS_A	CPPC	ZHHZ	YFFY	JQQJ	LWWL	DXXD	gütig	träumen	küssen	sonnig	vertrauen	genießen	gierig	töten	krank	sterben	versagen	gemein	1	acq_USunple_CSunple1_RW	acq4567_RW	4	50	400	1	300	300	347	50	0	0	1	blank2r.bmp	0	1	+	0	1	blank2r.bmp	435	1	YFFY	435	1	blank2r.bmp	505	3	krank	764	1	!	1129	1	!	1141	0	0	0	0	0	0	0	0	0	0	0	0	0	0	0	0	0	0	0	0	0	0	0	0	0	0	0	0	0	0
070119	16:35:46	16:43:56	488365	5.0.10.0	5_exp_RW	1	Rpleas_acq	CS_A	CPPC	ZHHZ	YFFY	JQQJ	LWWL	DXXD	gütig	träumen	küssen	sonnig	vertrauen	genießen	gierig	töten	krank	sterben	versagen	gemein	1	acq_USpleas_CSpleas1_RW	acq4567_RW	4	51	400	1	300	300	369	50	0	1	1	blank2r.bmp	0	1	+	0	1	blank2r.bmp	435	1	CPPC	435	1	blank2r.bmp	505	3	küssen	764	1	!	1129	1	!	1164	0	0	0	0	0	0	0	0	0	0	0	0	0	0	0	0	0	0	0	0	0	0	0	0	0	0	0	0	0	0
070119	16:35:46	16:43:58	490400	5.0.10.0	5_exp_RW	1	Rpleas_acq	CS_A	CPPC	ZHHZ	YFFY	JQQJ	LWWL	DXXD	gütig	träumen	küssen	sonnig	vertrauen	genießen	gierig	töten	krank	sterben	versagen	gemein	1	acq_USunple_CSunple2_RW	acq4567_RW	4	52	400	1	300	300	342	46	0	1	1	blank2r.bmp	0	1	+	0	1	blank2r.bmp	435	1	JQQJ	435	1	blank2r.bmp	505	1	sterben	764	1	!	1129	1	!	1141	0	0	0	0	0	0	0	0	0	0	0	0	0	0	0	0	0	0	0	0	0	0	0	0	0	0	0	0	0	0
070119	16:35:46	16:44:00	492353	5.0.10.0	5_exp_RW	1	Rpleas_acq	CS_A	CPPC	ZHHZ	YFFY	JQQJ	LWWL	DXXD	gütig	träumen	küssen	sonnig	vertrauen	genießen	gierig	töten	krank	sterben	versagen	gemein	1	acq_USpleas_CSpleas1_RW	acq4567_RW	4	53	400	0	300	300	274	46	0	0	1	blank2r.bmp	0	1	+	0	1	blank2r.bmp	435	1	CPPC	435	1	blank2r.bmp	505	1	gütig	764	1	!	-1	1	!	-1	0	0	0	0	0	0	0	0	0	0	0	0	0	0	0	0	0	0	0	0	0	0	0	0	0	0	0	0	0	0
070119	16:35:46	16:44:02	494447	5.0.10.0	5_exp_RW	1	Rpleas_acq	CS_A	CPPC	ZHHZ	YFFY	JQQJ	LWWL	DXXD	gütig	träumen	küssen	sonnig	vertrauen	genießen	gierig	töten	krank	sterben	versagen	gemein	1	acq_USpleas_CSpleas2_RW	acq4567_RW	4	54	400	1	300	300	405	50	0	1	1	blank2r.bmp	0	1	+	0	1	blank2r.bmp	435	1	ZHHZ	435	1	blank2r.bmp	505	1	sonnig	764	1	!	1129	1	!	1200	0	0	0	0	0	0	0	0	0	0	0	0	0	0	0	0	0	0	0	0	0	0	0	0	0	0	0	0	0	0
070119	16:35:46	16:44:04	496529	5.0.10.0	5_exp_RW	1	Rpleas_acq	CS_A	CPPC	ZHHZ	YFFY	JQQJ	LWWL	DXXD	gütig	träumen	küssen	sonnig	vertrauen	genießen	gierig	töten	krank	sterben	versagen	gemein	1	acq_USpleas_CSpleas1_RW	acq4567_RW	4	55	400	1	300	300	398	50	0	1	1	blank2r.bmp	0	1	+	0	1	blank2r.bmp	435	1	CPPC	435	1	blank2r.bmp	505	2	träumen	764	1	!	1129	1	!	1188	0	0	0	0	0	0	0	0	0	0	0	0	0	0	0	0	0	0	0	0	0	0	0	0	0	0	0	0	0	0
070119	16:35:46	16:44:06	498612	5.0.10.0	5_exp_RW	1	Rpleas_acq	CS_A	CPPC	ZHHZ	YFFY	JQQJ	LWWL	DXXD	gütig	träumen	küssen	sonnig	vertrauen	genießen	gierig	töten	krank	sterben	versagen	gemein	1	acq_USpleas_CSpleas2_RW	acq4567_RW	4	56	400	1	300	300	390	50	0	1	1	blank2r.bmp	0	1	+	0	1	blank2r.bmp	435	1	ZHHZ	435	1	blank2r.bmp	505	3	genießen	764	1	!	1129	1	!	1188	0	0	0	0	0	0	0	0	0	0	0	0	0	0	0	0	0	0	0	0	0	0	0	0	0	0	0	0	0	0
070119	16:35:46	16:44:08	500671	5.0.10.0	5_exp_RW	1	Rpleas_acq	CS_A	CPPC	ZHHZ	YFFY	JQQJ	LWWL	DXXD	gütig	träumen	küssen	sonnig	vertrauen	genießen	gierig	töten	krank	sterben	versagen	gemein	1	acq_USpleas_CSpleas2_RW	acq4567_RW	4	57	400	1	300	300	370	50	0	1	1	blank2r.bmp	0	1	+	0	1	blank2r.bmp	435	1	ZHHZ	435	1	blank2r.bmp	505	2	vertrauen	764	1	!	1129	1	!	1164	0	0	0	0	0	0	0	0	0	0	0	0	0	0	0	0	0	0	0	0	0	0	0	0	0	0	0	0	0	0
070119	16:35:46	16:44:10	502753	5.0.10.0	5_exp_RW	1	Rpleas_acq	CS_A	CPPC	ZHHZ	YFFY	JQQJ	LWWL	DXXD	gütig	träumen	küssen	sonnig	vertrauen	genießen	gierig	töten	krank	sterben	versagen	gemein	1	acq_USunple_CSunple1_RW	acq4567_RW	4	58	400	1	300	300	393	46	0	1	1	blank2r.bmp	0	1	+	0	1	blank2r.bmp	435	1	YFFY	435	1	blank2r.bmp	505	2	töten	764	1	!	1129	1	!	1188	0	0	0	0	0	0	0	0	0	0	0	0	0	0	0	0	0	0	0	0	0	0	0	0	0	0	0	0	0	0
070119	16:35:46	16:44:12	504918	5.0.10.0	5_exp_RW	1	Rpleas_acq	CS_A	CPPC	ZHHZ	YFFY	JQQJ	LWWL	DXXD	gütig	träumen	küssen	sonnig	vertrauen	genießen	gierig	töten	krank	sterben	versagen	gemein	1	acq_USpleas_CSpleas1_RW	acq4567_RW	4	59	400	0	300	300	482	50	0	1	1	blank2r.bmp	0	1	+	0	1	blank2r.bmp	435	1	CPPC	435	1	blank2r.bmp	505	1	gütig	764	1	!	1129	1	!	-1	0	0	0	0	0	0	0	0	0	0	0	0	0	0	0	0	0	0	0	0	0	0	0	0	0	0	0	0	0	0
070119	16:35:46	16:44:15	507035	5.0.10.0	5_exp_RW	1	Rpleas_acq	CS_A	CPPC	ZHHZ	YFFY	JQQJ	LWWL	DXXD	gütig	träumen	küssen	sonnig	vertrauen	genießen	gierig	töten	krank	sterben	versagen	gemein	1	acq_USpleas_CSpleas2_RW	acq4567_RW	4	60	400	1	300	300	414	50	0	1	1	blank2r.bmp	0	1	+	0	1	blank2r.bmp	435	1	ZHHZ	435	1	blank2r.bmp	505	1	sonnig	764	1	!	1129	1	!	1211	0	0	0	0	0	0	0	0	0	0	0	0	0	0	0	0	0	0	0	0	0	0	0	0	0	0	0	0	0	0
070119	16:35:46	16:44:17	509130	5.0.10.0	5_exp_RW	1	Rpleas_acq	CS_A	CPPC	ZHHZ	YFFY	JQQJ	LWWL	DXXD	gütig	träumen	küssen	sonnig	vertrauen	genießen	gierig	töten	krank	sterben	versagen	gemein	1	acq_USunple_CSunple1_RW	acq4567_RW	4	61	400	1	300	300	407	46	0	1	1	blank2r.bmp	0	1	+	0	1	blank2r.bmp	435	1	YFFY	435	1	blank2r.bmp	505	3	krank	764	1	!	1129	1	!	1200	0	0	0	0	0	0	0	0	0	0	0	0	0	0	0	0	0	0	0	0	0	0	0	0	0	0	0	0	0	0
070119	16:35:46	16:44:19	511118	5.0.10.0	5_exp_RW	1	Rpleas_acq	CS_A	CPPC	ZHHZ	YFFY	JQQJ	LWWL	DXXD	gütig	träumen	küssen	sonnig	vertrauen	genießen	gierig	töten	krank	sterben	versagen	gemein	1	acq_USunple_CSunple2_RW	acq4567_RW	4	62	400	0	300	300	304	46	0	1	1	blank2r.bmp	0	1	+	0	1	blank2r.bmp	435	1	JQQJ	435	1	blank2r.bmp	505	2	versagen	764	1	!	-1	1	!	-1	0	0	0	0	0	0	0	0	0	0	0	0	0	0	0	0	0	0	0	0	0	0	0	0	0	0	0	0	0	0
070119	16:35:46	16:44:21	513259	5.0.10.0	5_exp_RW	1	Rpleas_acq	CS_A	CPPC	ZHHZ	YFFY	JQQJ	LWWL	DXXD	gütig	träumen	küssen	sonnig	vertrauen	genießen	gierig	töten	krank	sterben	versagen	gemein	1	acq_USpleas_CSpleas2_RW	acq4567_RW	4	63	400	1	300	300	449	50	0	1	1	blank2r.bmp	0	1	+	0	1	blank2r.bmp	435	1	ZHHZ	435	1	blank2r.bmp	505	2	vertrauen	764	1	!	1129	1	!	1247	0	0	0	0	0	0	0	0	0	0	0	0	0	0	0	0	0	0	0	0	0	0	0	0	0	0	0	0	0	0
070119	16:35:46	16:44:23	515259	5.0.10.0	5_exp_RW	1	Rpleas_acq	CS_A	CPPC	ZHHZ	YFFY	JQQJ	LWWL	DXXD	gütig	träumen	küssen	sonnig	vertrauen	genießen	gierig	töten	krank	sterben	versagen	gemein	1	acq_USpleas_CSpleas2_RW	acq4567_RW	4	64	400	0	300	300	323	50	0	1	1	blank2r.bmp	0	1	+	0	1	blank2r.bmp	435	1	ZHHZ	435	1	blank2r.bmp	505	3	genießen	764	1	!	-1	1	!	-1	0	0	0	0	0	0	0	0	0	0	0	0	0	0	0	0	0	0	0	0	0	0	0	0	0	0	0	0	0	0
070119	16:35:46	16:44:25	517412	5.0.10.0	5_exp_RW	1	Rpleas_acq	CS_A	CPPC	ZHHZ	YFFY	JQQJ	LWWL	DXXD	gütig	träumen	küssen	sonnig	vertrauen	genießen	gierig	töten	krank	sterben	versagen	gemein	1	acq_USunple_CSunple1_RW	acq4567_RW	4	65	400	1	300	300	462	46	0	1	1	blank2r.bmp	0	1	+	0	1	blank2r.bmp	435	1	YFFY	435	1	blank2r.bmp	505	1	gierig	764	1	!	1129	1	!	1258	0	0	0	0	0	0	0	0	0	0	0	0	0	0	0	0	0	0	0	0	0	0	0	0	0	0	0	0	0	0
070119	16:35:46	16:44:27	519624	5.0.10.0	5_exp_RW	1	Rpleas_acq	CS_A	CPPC	ZHHZ	YFFY	JQQJ	LWWL	DXXD	gütig	träumen	küssen	sonnig	vertrauen	genießen	gierig	töten	krank	sterben	versagen	gemein	1	acq_USpleas_CSpleas2_RW	acq4567_RW	4	66	400	0	300	300	550	50	0	1	1	blank2r.bmp	0	1	+	0	1	blank2r.bmp	435	1	ZHHZ	435	1	blank2r.bmp	505	3	genießen	764	1	!	1129	1	!	-1	0	0	0	0	0	0	0	0	0	0	0	0	0	0	0	0	0	0	0	0	0	0	0	0	0	0	0	0	0	0
070119	16:35:46	16:44:29	521635	5.0.10.0	5_exp_RW	1	Rpleas_acq	CS_A	CPPC	ZHHZ	YFFY	JQQJ	LWWL	DXXD	gütig	träumen	küssen	sonnig	vertrauen	genießen	gierig	töten	krank	sterben	versagen	gemein	1	acq_USpleas_CSpleas1_RW	acq4567_RW	4	67	400	0	300	300	324	50	0	1	1	blank2r.bmp	0	1	+	0	1	blank2r.bmp	435	1	CPPC	435	1	blank2r.bmp	505	3	küssen	764	1	!	-1	1	!	-1	0	0	0	0	0	0	0	0	0	0	0	0	0	0	0	0	0	0	0	0	0	0	0	0	0	0	0	0	0	0
070119	16:35:46	16:44:31	523824	5.0.10.0	5_exp_RW	1	Rpleas_acq	CS_A	CPPC	ZHHZ	YFFY	JQQJ	LWWL	DXXD	gütig	träumen	küssen	sonnig	vertrauen	genießen	gierig	töten	krank	sterben	versagen	gemein	1	acq_USunple_CSunple2_RW	acq4567_RW	4	68	400	0	300	300	515	46	0	1	1	blank2r.bmp	0	1	+	0	1	blank2r.bmp	435	1	JQQJ	435	1	blank2r.bmp	505	3	gemein	764	1	!	1129	1	!	-1	0	0	0	0	0	0	0	0	0	0	0	0	0	0	0	0	0	0	0	0	0	0	0	0	0	0	0	0	0	0
070119	16:35:46	16:44:33	525894	5.0.10.0	5_exp_RW	1	Rpleas_acq	CS_A	CPPC	ZHHZ	YFFY	JQQJ	LWWL	DXXD	gütig	träumen	küssen	sonnig	vertrauen	genießen	gierig	töten	krank	sterben	versagen	gemein	1	acq_USpleas_CSpleas1_RW	acq4567_RW	4	69	400	1	300	300	371	50	0	1	1	blank2r.bmp	0	1	+	0	1	blank2r.bmp	435	1	CPPC	435	1	blank2r.bmp	505	2	träumen	764	1	!	1129	1	!	1164	0	0	0	0	0	0	0	0	0	0	0	0	0	0	0	0	0	0	0	0	0	0	0	0	0	0	0	0	0	0
070119	16:35:46	16:44:36	528082	5.0.10.0	5_exp_RW	1	Rpleas_acq	CS_A	CPPC	ZHHZ	YFFY	JQQJ	LWWL	DXXD	gütig	träumen	küssen	sonnig	vertrauen	genießen	gierig	töten	krank	sterben	versagen	gemein	1	acq_USunple_CSunple1_RW	acq4567_RW	4	70	400	0	300	300	520	46	0	1	1	blank2r.bmp	0	1	+	0	1	blank2r.bmp	435	1	YFFY	435	1	blank2r.bmp	505	3	krank	764	1	!	1129	1	!	-1	0	0	0	0	0	0	0	0	0	0	0	0	0	0	0	0	0	0	0	0	0	0	0	0	0	0	0	0	0	0
070119	16:35:46	16:44:38	530212	5.0.10.0	5_exp_RW	1	Rpleas_acq	CS_A	CPPC	ZHHZ	YFFY	JQQJ	LWWL	DXXD	gütig	träumen	küssen	sonnig	vertrauen	genießen	gierig	töten	krank	sterben	versagen	gemein	1	acq_USunple_CSunple1_RW	acq4567_RW	4	71	400	1	300	300	432	46	0	1	1	blank2r.bmp	0	1	+	0	1	blank2r.bmp	435	1	YFFY	435	1	blank2r.bmp	505	2	töten	764	1	!	1129	1	!	1223	0	0	0	0	0	0	0	0	0	0	0	0	0	0	0	0	0	0	0	0	0	0	0	0	0	0	0	0	0	0
070119	16:35:46	16:44:40	532318	5.0.10.0	5_exp_RW	1	Rpleas_acq	CS_A	CPPC	ZHHZ	YFFY	JQQJ	LWWL	DXXD	gütig	träumen	küssen	sonnig	vertrauen	genießen	gierig	töten	krank	sterben	versagen	gemein	1	acq_USpleas_CSpleas2_RW	acq4567_RW	4	72	400	1	300	300	413	50	0	1	1	blank2r.bmp	0	1	+	0	1	blank2r.bmp	435	1	ZHHZ	435	1	blank2r.bmp	505	2	vertrauen	764	1	!	1129	1	!	1211	0	0	0	0	0	0	0	0	0	0	0	0	0	0	0	0	0	0	0	0	0	0	0	0	0	0	0	0	0	0
070119	16:35:46	16:44:42	534353	5.0.10.0	5_exp_RW	1	Rpleas_acq	CS_A	CPPC	ZHHZ	YFFY	JQQJ	LWWL	DXXD	gütig	träumen	küssen	sonnig	vertrauen	genießen	gierig	töten	krank	sterben	versagen	gemein	1	acq_USpleas_CSpleas2_RW	acq4567_RW	4	73	400	1	300	300	341	50	0	1	1	blank2r.bmp	0	1	+	0	1	blank2r.bmp	435	1	ZHHZ	435	1	blank2r.bmp	505	1	sonnig	764	1	!	1129	1	!	1141	0	0	0	0	0	0	0	0	0	0	0	0	0	0	0	0	0	0	0	0	0	0	0	0	0	0	0	0	0	0
070119	16:35:46	16:44:44	536388	5.0.10.0	5_exp_RW	1	Rpleas_acq	CS_A	CPPC	ZHHZ	YFFY	JQQJ	LWWL	DXXD	gütig	träumen	küssen	sonnig	vertrauen	genießen	gierig	töten	krank	sterben	versagen	gemein	1	acq_USunple_CSunple2_RW	acq4567_RW	4	74	400	1	300	300	347	50	0	0	1	blank2r.bmp	0	1	+	0	1	blank2r.bmp	435	1	JQQJ	435	1	blank2r.bmp	505	1	sterben	764	1	!	1129	1	!	1141	0	0	0	0	0	0	0	0	0	0	0	0	0	0	0	0	0	0	0	0	0	0	0	0	0	0	0	0	0	0
070119	16:35:46	16:44:46	538518	5.0.10.0	5_exp_RW	1	Rpleas_acq	CS_A	CPPC	ZHHZ	YFFY	JQQJ	LWWL	DXXD	gütig	träumen	küssen	sonnig	vertrauen	genießen	gierig	töten	krank	sterben	versagen	gemein	1	acq_USunple_CSunple2_RW	acq4567_RW	4	75	400	1	300	300	437	46	0	1	1	blank2r.bmp	0	1	+	0	1	blank2r.bmp	435	1	JQQJ	435	1	blank2r.bmp	505	3	gemein	764	1	!	1129	1	!	1235	0	0	0	0	0	0	0	0	0	0	0	0	0	0	0	0	0	0	0	0	0	0	0	0	0	0	0	0	0	0
070119	16:35:46	16:44:48	540883	5.0.10.0	5_exp_RW	1	Rpleas_acq	CS_A	CPPC	ZHHZ	YFFY	JQQJ	LWWL	DXXD	gütig	träumen	küssen	sonnig	vertrauen	genießen	gierig	töten	krank	sterben	versagen	gemein	1	acq_USpleas_CSpleas1_RW	acq4567_RW	4	76	400	0	300	300	687	50	0	1	1	blank2r.bmp	0	1	+	0	1	blank2r.bmp	435	1	CPPC	435	1	blank2r.bmp	505	1	gütig	764	1	!	1129	1	!	-1	0	0	0	0	0	0	0	0	0	0	0	0	0	0	0	0	0	0	0	0	0	0	0	0	0	0	0	0	0	0
070119	16:35:46	16:44:51	543000	5.0.10.0	5_exp_RW	1	Rpleas_acq	CS_A	CPPC	ZHHZ	YFFY	JQQJ	LWWL	DXXD	gütig	träumen	küssen	sonnig	vertrauen	genießen	gierig	töten	krank	sterben	versagen	gemein	1	acq_USpleas_CSpleas1_RW	acq4567_RW	4	77	400	1	300	300	431	50	0	1	1	blank2r.bmp	0	1	+	0	1	blank2r.bmp	435	1	CPPC	435	1	blank2r.bmp	505	3	küssen	764	1	!	1129	1	!	1223	0	0	0	0	0	0	0	0	0	0	0	0	0	0	0	0	0	0	0	0	0	0	0	0	0	0	0	0	0	0
070119	16:35:46	16:44:53	545059	5.0.10.0	5_exp_RW	1	Rpleas_acq	CS_A	CPPC	ZHHZ	YFFY	JQQJ	LWWL	DXXD	gütig	träumen	küssen	sonnig	vertrauen	genießen	gierig	töten	krank	sterben	versagen	gemein	1	acq_USpleas_CSpleas1_RW	acq4567_RW	4	78	400	1	300	300	359	50	0	1	1	blank2r.bmp	0	1	+	0	1	blank2r.bmp	435	1	CPPC	435	1	blank2r.bmp	505	2	träumen	764	1	!	1129	1	!	1152	0	0	0	0	0	0	0	0	0	0	0	0	0	0	0	0	0	0	0	0	0	0	0	0	0	0	0	0	0	0
070119	16:35:46	16:44:55	547106	5.0.10.0	5_exp_RW	1	Rpleas_acq	CS_A	CPPC	ZHHZ	YFFY	JQQJ	LWWL	DXXD	gütig	träumen	küssen	sonnig	vertrauen	genießen	gierig	töten	krank	sterben	versagen	gemein	1	acq_USunple_CSunple1_RW	acq4567_RW	4	79	400	1	300	300	341	50	0	0	1	blank2r.bmp	0	1	+	0	1	blank2r.bmp	435	1	YFFY	435	1	blank2r.bmp	505	1	gierig	764	1	!	1129	1	!	1141	0	0	0	0	0	0	0	0	0	0	0	0	0	0	0	0	0	0	0	0	0	0	0	0	0	0	0	0	0	0
070119	16:35:46	16:44:57	549141	5.0.10.0	5_exp_RW	1	Rpleas_acq	CS_A	CPPC	ZHHZ	YFFY	JQQJ	LWWL	DXXD	gütig	träumen	küssen	sonnig	vertrauen	genießen	gierig	töten	krank	sterben	versagen	gemein	1	acq_USunple_CSunple2_RW	acq4567_RW	4	80	400	1	300	300	351	46	0	1	1	blank2r.bmp	0	1	+	0	1	blank2r.bmp	435	1	JQQJ	435	1	blank2r.bmp	505	2	versagen	764	1	!	1129	1	!	1141	0	0	0	0	0	0	0	0	0	0	0	0	0	0	0	0	0	0	0	0	0	0	0	0	0	0	0	0	0	0
070119	16:35:46	16:45:45	597941	5.0.10.0	5_exp_RW	1	Rpleas_acq	CS_A	CPPC	ZHHZ	YFFY	JQQJ	LWWL	DXXD	gütig	träumen	küssen	sonnig	vertrauen	genießen	gierig	töten	krank	sterben	versagen	gemein	1	acq_USunple_CSunple2_RW	acq4567_RW	5	1	400	0	300	300	6299	50	0	0	1	blank2r.bmp	0	1	+	0	1	blank2r.bmp	435	1	JQQJ	435	1	blank2r.bmp	505	1	sterben	764	1	!	1129	1	!	-1	0	0	0	0	0	0	0	0	0	0	0	0	0	0	0	0	0	0	0	0	0	0	0	0	0	0	0	0	0	0
070119	16:35:46	16:45:48	600012	5.0.10.0	5_exp_RW	1	Rpleas_acq	CS_A	CPPC	ZHHZ	YFFY	JQQJ	LWWL	DXXD	gütig	träumen	küssen	sonnig	vertrauen	genießen	gierig	töten	krank	sterben	versagen	gemein	1	acq_USunple_CSunple1_RW	acq4567_RW	5	2	400	1	300	300	375	46	0	1	1	blank2r.bmp	0	1	+	0	1	blank2r.bmp	435	1	YFFY	435	1	blank2r.bmp	505	3	krank	764	1	!	1129	1	!	1164	0	0	0	0	0	0	0	0	0	0	0	0	0	0	0	0	0	0	0	0	0	0	0	0	0	0	0	0	0	0
070119	16:35:46	16:45:50	602047	5.0.10.0	5_exp_RW	1	Rpleas_acq	CS_A	CPPC	ZHHZ	YFFY	JQQJ	LWWL	DXXD	gütig	träumen	küssen	sonnig	vertrauen	genießen	gierig	töten	krank	sterben	versagen	gemein	1	acq_USpleas_CSpleas1_RW	acq4567_RW	5	3	400	1	300	300	341	50	0	1	1	blank2r.bmp	0	1	+	0	1	blank2r.bmp	435	1	CPPC	435	1	blank2r.bmp	505	2	träumen	764	1	!	1129	1	!	1141	0	0	0	0	0	0	0	0	0	0	0	0	0	0	0	0	0	0	0	0	0	0	0	0	0	0	0	0	0	0
070119	16:35:46	16:45:52	604083	5.0.10.0	5_exp_RW	1	Rpleas_acq	CS_A	CPPC	ZHHZ	YFFY	JQQJ	LWWL	DXXD	gütig	träumen	küssen	sonnig	vertrauen	genießen	gierig	töten	krank	sterben	versagen	gemein	1	acq_USpleas_CSpleas1_RW	acq4567_RW	5	4	400	1	300	300	348	50	0	1	1	blank2r.bmp	0	1	+	0	1	blank2r.bmp	435	1	CPPC	435	1	blank2r.bmp	505	1	gütig	764	1	!	1129	1	!	1141	0	0	0	0	0	0	0	0	0	0	0	0	0	0	0	0	0	0	0	0	0	0	0	0	0	0	0	0	0	0
070119	16:35:46	16:45:54	606236	5.0.10.0	5_exp_RW	1	Rpleas_acq	CS_A	CPPC	ZHHZ	YFFY	JQQJ	LWWL	DXXD	gütig	träumen	küssen	sonnig	vertrauen	genießen	gierig	töten	krank	sterben	versagen	gemein	1	acq_USpleas_CSpleas2_RW	acq4567_RW	5	5	400	1	300	300	458	50	0	1	1	blank2r.bmp	0	1	+	0	1	blank2r.bmp	435	1	ZHHZ	435	1	blank2r.bmp	505	3	genießen	764	1	!	1129	1	!	1258	0	0	0	0	0	0	0	0	0	0	0	0	0	0	0	0	0	0	0	0	0	0	0	0	0	0	0	0	0	0
070119	16:35:46	16:45:56	608271	5.0.10.0	5_exp_RW	1	Rpleas_acq	CS_A	CPPC	ZHHZ	YFFY	JQQJ	LWWL	DXXD	gütig	träumen	küssen	sonnig	vertrauen	genießen	gierig	töten	krank	sterben	versagen	gemein	1	acq_USpleas_CSpleas2_RW	acq4567_RW	5	6	400	1	300	300	350	46	0	0	1	blank2r.bmp	0	1	+	0	1	blank2r.bmp	435	1	ZHHZ	435	1	blank2r.bmp	505	2	vertrauen	764	1	!	1129	1	!	1141	0	0	0	0	0	0	0	0	0	0	0	0	0	0	0	0	0	0	0	0	0	0	0	0	0	0	0	0	0	0
070119	16:35:46	16:45:58	610412	5.0.10.0	5_exp_RW	1	Rpleas_acq	CS_A	CPPC	ZHHZ	YFFY	JQQJ	LWWL	DXXD	gütig	träumen	küssen	sonnig	vertrauen	genießen	gierig	töten	krank	sterben	versagen	gemein	1	acq_USunple_CSunple2_RW	acq4567_RW	5	7	400	1	300	300	454	50	0	0	1	blank2r.bmp	0	1	+	0	1	blank2r.bmp	435	1	JQQJ	435	1	blank2r.bmp	505	3	gemein	764	1	!	1129	1	!	1247	0	0	0	0	0	0	0	0	0	0	0	0	0	0	0	0	0	0	0	0	0	0	0	0	0	0	0	0	0	0
070119	16:35:46	16:46:00	612506	5.0.10.0	5_exp_RW	1	Rpleas_acq	CS_A	CPPC	ZHHZ	YFFY	JQQJ	LWWL	DXXD	gütig	träumen	küssen	sonnig	vertrauen	genießen	gierig	töten	krank	sterben	versagen	gemein	1	acq_USpleas_CSpleas1_RW	acq4567_RW	5	8	400	1	300	300	408	50	0	1	1	blank2r.bmp	0	1	+	0	1	blank2r.bmp	435	1	CPPC	435	1	blank2r.bmp	505	3	küssen	764	1	!	1129	1	!	1200	0	0	0	0	0	0	0	0	0	0	0	0	0	0	0	0	0	0	0	0	0	0	0	0	0	0	0	0	0	0
070119	16:35:46	16:46:02	614541	5.0.10.0	5_exp_RW	1	Rpleas_acq	CS_A	CPPC	ZHHZ	YFFY	JQQJ	LWWL	DXXD	gütig	träumen	küssen	sonnig	vertrauen	genießen	gierig	töten	krank	sterben	versagen	gemein	1	acq_USunple_CSunple2_RW	acq4567_RW	5	9	400	1	300	300	349	46	0	1	1	blank2r.bmp	0	1	+	0	1	blank2r.bmp	435	1	JQQJ	435	1	blank2r.bmp	505	2	versagen	764	1	!	1129	1	!	1141	0	0	0	0	0	0	0	0	0	0	0	0	0	0	0	0	0	0	0	0	0	0	0	0	0	0	0	0	0	0
070119	16:35:46	16:46:04	616647	5.0.10.0	5_exp_RW	1	Rpleas_acq	CS_A	CPPC	ZHHZ	YFFY	JQQJ	LWWL	DXXD	gütig	träumen	küssen	sonnig	vertrauen	genießen	gierig	töten	krank	sterben	versagen	gemein	1	acq_USunple_CSunple2_RW	acq4567_RW	5	10	400	1	300	300	401	46	0	1	1	blank2r.bmp	0	1	+	0	1	blank2r.bmp	435	1	JQQJ	435	1	blank2r.bmp	505	2	versagen	764	1	!	1129	1	!	1199	0	0	0	0	0	0	0	0	0	0	0	0	0	0	0	0	0	0	0	0	0	0	0	0	0	0	0	0	0	0
070119	16:35:46	16:46:06	618730	5.0.10.0	5_exp_RW	1	Rpleas_acq	CS_A	CPPC	ZHHZ	YFFY	JQQJ	LWWL	DXXD	gütig	träumen	küssen	sonnig	vertrauen	genießen	gierig	töten	krank	sterben	versagen	gemein	1	acq_USpleas_CSpleas1_RW	acq4567_RW	5	11	400	1	300	300	382	50	0	1	1	blank2r.bmp	0	1	+	0	1	blank2r.bmp	435	1	CPPC	435	1	blank2r.bmp	505	3	küssen	764	1	!	1129	1	!	1176	0	0	0	0	0	0	0	0	0	0	0	0	0	0	0	0	0	0	0	0	0	0	0	0	0	0	0	0	0	0
070119	16:35:46	16:46:08	620765	5.0.10.0	5_exp_RW	1	Rpleas_acq	CS_A	CPPC	ZHHZ	YFFY	JQQJ	LWWL	DXXD	gütig	träumen	küssen	sonnig	vertrauen	genießen	gierig	töten	krank	sterben	versagen	gemein	1	acq_USpleas_CSpleas2_RW	acq4567_RW	5	12	400	1	300	300	350	50	0	1	1	blank2r.bmp	0	1	+	0	1	blank2r.bmp	435	1	ZHHZ	435	1	blank2r.bmp	505	1	sonnig	764	1	!	1129	1	!	1141	0	0	0	0	0	0	0	0	0	0	0	0	0	0	0	0	0	0	0	0	0	0	0	0	0	0	0	0	0	0
070119	16:35:46	16:46:10	622765	5.0.10.0	5_exp_RW	1	Rpleas_acq	CS_A	CPPC	ZHHZ	YFFY	JQQJ	LWWL	DXXD	gütig	träumen	küssen	sonnig	vertrauen	genießen	gierig	töten	krank	sterben	versagen	gemein	1	acq_USunple_CSunple1_RW	acq4567_RW	5	13	400	0	300	300	314	46	0	1	1	blank2r.bmp	0	1	+	0	1	blank2r.bmp	435	1	YFFY	435	1	blank2r.bmp	505	2	töten	764	1	!	-1	1	!	-1	0	0	0	0	0	0	0	0	0	0	0	0	0	0	0	0	0	0	0	0	0	0	0	0	0	0	0	0	0	0
070119	16:35:46	16:46:12	624824	5.0.10.0	5_exp_RW	1	Rpleas_acq	CS_A	CPPC	ZHHZ	YFFY	JQQJ	LWWL	DXXD	gütig	träumen	küssen	sonnig	vertrauen	genießen	gierig	töten	krank	sterben	versagen	gemein	1	acq_USpleas_CSpleas1_RW	acq4567_RW	5	14	400	1	300	300	374	50	0	1	1	blank2r.bmp	0	1	+	0	1	blank2r.bmp	435	1	CPPC	435	1	blank2r.bmp	505	1	gütig	764	1	!	1129	1	!	1164	0	0	0	0	0	0	0	0	0	0	0	0	0	0	0	0	0	0	0	0	0	0	0	0	0	0	0	0	0	0
070119	16:35:46	16:46:14	626906	5.0.10.0	5_exp_RW	1	Rpleas_acq	CS_A	CPPC	ZHHZ	YFFY	JQQJ	LWWL	DXXD	gütig	träumen	küssen	sonnig	vertrauen	genießen	gierig	töten	krank	sterben	versagen	gemein	1	acq_USunple_CSunple1_RW	acq4567_RW	5	15	400	1	300	300	391	46	0	1	1	blank2r.bmp	0	1	+	0	1	blank2r.bmp	435	1	YFFY	435	1	blank2r.bmp	505	1	gierig	764	1	!	1129	1	!	1188	0	0	0	0	0	0	0	0	0	0	0	0	0	0	0	0	0	0	0	0	0	0	0	0	0	0	0	0	0	0
070119	16:35:46	16:46:17	629000	5.0.10.0	5_exp_RW	1	Rpleas_acq	CS_A	CPPC	ZHHZ	YFFY	JQQJ	LWWL	DXXD	gütig	träumen	küssen	sonnig	vertrauen	genießen	gierig	töten	krank	sterben	versagen	gemein	1	acq_USunple_CSunple1_RW	acq4567_RW	5	16	400	1	300	300	402	46	0	1	1	blank2r.bmp	0	1	+	0	1	blank2r.bmp	435	1	YFFY	435	1	blank2r.bmp	505	2	töten	764	1	!	1129	1	!	1199	0	0	0	0	0	0	0	0	0	0	0	0	0	0	0	0	0	0	0	0	0	0	0	0	0	0	0	0	0	0
070119	16:35:46	16:46:19	631059	5.0.10.0	5_exp_RW	1	Rpleas_acq	CS_A	CPPC	ZHHZ	YFFY	JQQJ	LWWL	DXXD	gütig	träumen	küssen	sonnig	vertrauen	genießen	gierig	töten	krank	sterben	versagen	gemein	1	acq_USpleas_CSpleas2_RW	acq4567_RW	5	17	400	1	300	300	355	50	0	1	1	blank2r.bmp	0	1	+	0	1	blank2r.bmp	435	1	ZHHZ	435	1	blank2r.bmp	505	2	vertrauen	764	1	!	1129	1	!	1152	0	0	0	0	0	0	0	0	0	0	0	0	0	0	0	0	0	0	0	0	0	0	0	0	0	0	0	0	0	0
070119	16:35:46	16:46:21	633142	5.0.10.0	5_exp_RW	1	Rpleas_acq	CS_A	CPPC	ZHHZ	YFFY	JQQJ	LWWL	DXXD	gütig	träumen	küssen	sonnig	vertrauen	genießen	gierig	töten	krank	sterben	versagen	gemein	1	acq_USunple_CSunple1_RW	acq4567_RW	5	18	400	1	300	300	387	46	0	1	1	blank2r.bmp	0	1	+	0	1	blank2r.bmp	435	1	YFFY	435	1	blank2r.bmp	505	3	krank	764	1	!	1129	1	!	1176	0	0	0	0	0	0	0	0	0	0	0	0	0	0	0	0	0	0	0	0	0	0	0	0	0	0	0	0	0	0
070119	16:35:46	16:46:23	635094	5.0.10.0	5_exp_RW	1	Rpleas_acq	CS_A	CPPC	ZHHZ	YFFY	JQQJ	LWWL	DXXD	gütig	träumen	küssen	sonnig	vertrauen	genießen	gierig	töten	krank	sterben	versagen	gemein	1	acq_USunple_CSunple2_RW	acq4567_RW	5	19	400	0	300	300	282	50	0	0	1	blank2r.bmp	0	1	+	0	1	blank2r.bmp	435	1	JQQJ	435	1	blank2r.bmp	505	1	sterben	764	1	!	-1	1	!	-1	0	0	0	0	0	0	0	0	0	0	0	0	0	0	0	0	0	0	0	0	0	0	0	0	0	0	0	0	0	0
070119	16:35:46	16:46:25	637165	5.0.10.0	5_exp_RW	1	Rpleas_acq	CS_A	CPPC	ZHHZ	YFFY	JQQJ	LWWL	DXXD	gütig	träumen	küssen	sonnig	vertrauen	genießen	gierig	töten	krank	sterben	versagen	gemein	1	acq_USpleas_CSpleas2_RW	acq4567_RW	5	20	400	1	300	300	370	50	0	1	1	blank2r.bmp	0	1	+	0	1	blank2r.bmp	435	1	ZHHZ	435	1	blank2r.bmp	505	1	sonnig	764	1	!	1129	1	!	1164	0	0	0	0	0	0	0	0	0	0	0	0	0	0	0	0	0	0	0	0	0	0	0	0	0	0	0	0	0	0
070119	16:35:46	16:46:27	639200	5.0.10.0	5_exp_RW	1	Rpleas_acq	CS_A	CPPC	ZHHZ	YFFY	JQQJ	LWWL	DXXD	gütig	träumen	küssen	sonnig	vertrauen	genießen	gierig	töten	krank	sterben	versagen	gemein	1	acq_USpleas_CSpleas1_RW	acq4567_RW	5	21	400	1	300	300	344	50	0	1	1	blank2r.bmp	0	1	+	0	1	blank2r.bmp	435	1	CPPC	435	1	blank2r.bmp	505	2	träumen	764	1	!	1129	1	!	1141	0	0	0	0	0	0	0	0	0	0	0	0	0	0	0	0	0	0	0	0	0	0	0	0	0	0	0	0	0	0
070119	16:35:46	16:46:29	641224	5.0.10.0	5_exp_RW	1	Rpleas_acq	CS_A	CPPC	ZHHZ	YFFY	JQQJ	LWWL	DXXD	gütig	träumen	küssen	sonnig	vertrauen	genießen	gierig	töten	krank	sterben	versagen	gemein	1	acq_USunple_CSunple1_RW	acq4567_RW	5	22	400	0	300	300	329	46	0	1	1	blank2r.bmp	0	1	+	0	1	blank2r.bmp	435	1	YFFY	435	1	blank2r.bmp	505	1	gierig	764	1	!	-1	1	!	-1	0	0	0	0	0	0	0	0	0	0	0	0	0	0	0	0	0	0	0	0	0	0	0	0	0	0	0	0	0	0
070119	16:35:46	16:46:31	643436	5.0.10.0	5_exp_RW	1	Rpleas_acq	CS_A	CPPC	ZHHZ	YFFY	JQQJ	LWWL	DXXD	gütig	träumen	küssen	sonnig	vertrauen	genießen	gierig	töten	krank	sterben	versagen	gemein	1	acq_USpleas_CSpleas2_RW	acq4567_RW	5	23	400	0	300	300	542	50	0	1	1	blank2r.bmp	0	1	+	0	1	blank2r.bmp	435	1	ZHHZ	435	1	blank2r.bmp	505	3	genießen	764	1	!	1129	1	!	-1	0	0	0	0	0	0	0	0	0	0	0	0	0	0	0	0	0	0	0	0	0	0	0	0	0	0	0	0	0	0
070119	16:35:46	16:46:33	645518	5.0.10.0	5_exp_RW	1	Rpleas_acq	CS_A	CPPC	ZHHZ	YFFY	JQQJ	LWWL	DXXD	gütig	träumen	küssen	sonnig	vertrauen	genießen	gierig	töten	krank	sterben	versagen	gemein	1	acq_USunple_CSunple2_RW	acq4567_RW	5	24	400	1	300	300	368	46	0	1	1	blank2r.bmp	0	1	+	0	1	blank2r.bmp	435	1	JQQJ	435	1	blank2r.bmp	505	3	gemein	764	1	!	1129	1	!	1164	0	0	0	0	0	0	0	0	0	0	0	0	0	0	0	0	0	0	0	0	0	0	0	0	0	0	0	0	0	0
070119	16:35:46	16:46:35	647506	5.0.10.0	5_exp_RW	1	Rpleas_acq	CS_A	CPPC	ZHHZ	YFFY	JQQJ	LWWL	DXXD	gütig	träumen	küssen	sonnig	vertrauen	genießen	gierig	töten	krank	sterben	versagen	gemein	1	acq_USunple_CSunple2_RW	acq4567_RW	5	25	400	0	300	300	312	46	0	1	1	blank2r.bmp	0	1	+	0	1	blank2r.bmp	435	1	JQQJ	435	1	blank2r.bmp	505	2	versagen	764	1	!	-1	1	!	-1	0	0	0	0	0	0	0	0	0	0	0	0	0	0	0	0	0	0	0	0	0	0	0	0	0	0	0	0	0	0
070119	16:35:46	16:46:37	649647	5.0.10.0	5_exp_RW	1	Rpleas_acq	CS_A	CPPC	ZHHZ	YFFY	JQQJ	LWWL	DXXD	gütig	träumen	küssen	sonnig	vertrauen	genießen	gierig	töten	krank	sterben	versagen	gemein	1	acq_USpleas_CSpleas2_RW	acq4567_RW	5	26	400	1	300	300	450	50	0	1	1	blank2r.bmp	0	1	+	0	1	blank2r.bmp	435	1	ZHHZ	435	1	blank2r.bmp	505	3	genießen	764	1	!	1129	1	!	1247	0	0	0	0	0	0	0	0	0	0	0	0	0	0	0	0	0	0	0	0	0	0	0	0	0	0	0	0	0	0
070119	16:35:46	16:46:39	651683	5.0.10.0	5_exp_RW	1	Rpleas_acq	CS_A	CPPC	ZHHZ	YFFY	JQQJ	LWWL	DXXD	gütig	träumen	küssen	sonnig	vertrauen	genießen	gierig	töten	krank	sterben	versagen	gemein	1	acq_USpleas_CSpleas1_RW	acq4567_RW	5	27	400	1	300	300	341	50	0	1	1	blank2r.bmp	0	1	+	0	1	blank2r.bmp	435	1	CPPC	435	1	blank2r.bmp	505	1	gütig	764	1	!	1129	1	!	1141	0	0	0	0	0	0	0	0	0	0	0	0	0	0	0	0	0	0	0	0	0	0	0	0	0	0	0	0	0	0
070119	16:35:46	16:46:41	653753	5.0.10.0	5_exp_RW	1	Rpleas_acq	CS_A	CPPC	ZHHZ	YFFY	JQQJ	LWWL	DXXD	gütig	träumen	küssen	sonnig	vertrauen	genießen	gierig	töten	krank	sterben	versagen	gemein	1	acq_USpleas_CSpleas1_RW	acq4567_RW	5	28	400	1	300	300	370	50	0	1	1	blank2r.bmp	0	1	+	0	1	blank2r.bmp	435	1	CPPC	435	1	blank2r.bmp	505	2	träumen	764	1	!	1129	1	!	1164	0	0	0	0	0	0	0	0	0	0	0	0	0	0	0	0	0	0	0	0	0	0	0	0	0	0	0	0	0	0
070119	16:35:46	16:46:43	655789	5.0.10.0	5_exp_RW	1	Rpleas_acq	CS_A	CPPC	ZHHZ	YFFY	JQQJ	LWWL	DXXD	gütig	träumen	küssen	sonnig	vertrauen	genießen	gierig	töten	krank	sterben	versagen	gemein	1	acq_USpleas_CSpleas2_RW	acq4567_RW	5	29	400	1	300	300	341	50	0	1	1	blank2r.bmp	0	1	+	0	1	blank2r.bmp	435	1	ZHHZ	435	1	blank2r.bmp	505	1	sonnig	764	1	!	1129	1	!	1141	0	0	0	0	0	0	0	0	0	0	0	0	0	0	0	0	0	0	0	0	0	0	0	0	0	0	0	0	0	0
070119	16:35:46	16:46:45	657859	5.0.10.0	5_exp_RW	1	Rpleas_acq	CS_A	CPPC	ZHHZ	YFFY	JQQJ	LWWL	DXXD	gütig	träumen	küssen	sonnig	vertrauen	genießen	gierig	töten	krank	sterben	versagen	gemein	1	acq_USunple_CSunple2_RW	acq4567_RW	5	30	400	1	300	300	384	46	0	1	1	blank2r.bmp	0	1	+	0	1	blank2r.bmp	435	1	JQQJ	435	1	blank2r.bmp	505	1	sterben	764	1	!	1129	1	!	1176	0	0	0	0	0	0	0	0	0	0	0	0	0	0	0	0	0	0	0	0	0	0	0	0	0	0	0	0	0	0
070119	16:35:46	16:46:48	660024	5.0.10.0	5_exp_RW	1	Rpleas_acq	CS_A	CPPC	ZHHZ	YFFY	JQQJ	LWWL	DXXD	gütig	träumen	küssen	sonnig	vertrauen	genießen	gierig	töten	krank	sterben	versagen	gemein	1	acq_USpleas_CSpleas2_RW	acq4567_RW	5	31	400	0	300	300	482	46	0	0	1	blank2r.bmp	0	1	+	0	1	blank2r.bmp	435	1	ZHHZ	435	1	blank2r.bmp	505	2	vertrauen	764	1	!	1129	1	!	-1	0	0	0	0	0	0	0	0	0	0	0	0	0	0	0	0	0	0	0	0	0	0	0	0	0	0	0	0	0	0
070119	16:35:46	16:46:50	662024	5.0.10.0	5_exp_RW	1	Rpleas_acq	CS_A	CPPC	ZHHZ	YFFY	JQQJ	LWWL	DXXD	gütig	träumen	küssen	sonnig	vertrauen	genießen	gierig	töten	krank	sterben	versagen	gemein	1	acq_USpleas_CSpleas1_RW	acq4567_RW	5	32	400	0	300	300	327	50	0	1	1	blank2r.bmp	0	1	+	0	1	blank2r.bmp	435	1	CPPC	435	1	blank2r.bmp	505	3	küssen	764	1	!	-1	1	!	-1	0	0	0	0	0	0	0	0	0	0	0	0	0	0	0	0	0	0	0	0	0	0	0	0	0	0	0	0	0	0
070119	16:35:46	16:46:52	664024	5.0.10.0	5_exp_RW	1	Rpleas_acq	CS_A	CPPC	ZHHZ	YFFY	JQQJ	LWWL	DXXD	gütig	träumen	küssen	sonnig	vertrauen	genießen	gierig	töten	krank	sterben	versagen	gemein	1	acq_USunple_CSunple1_RW	acq4567_RW	5	33	400	0	300	300	318	46	0	1	1	blank2r.bmp	0	1	+	0	1	blank2r.bmp	435	1	YFFY	435	1	blank2r.bmp	505	3	krank	764	1	!	-1	1	!	-1	0	0	0	0	0	0	0	0	0	0	0	0	0	0	0	0	0	0	0	0	0	0	0	0	0	0	0	0	0	0
070119	16:35:46	16:46:54	666083	5.0.10.0	5_exp_RW	1	Rpleas_acq	CS_A	CPPC	ZHHZ	YFFY	JQQJ	LWWL	DXXD	gütig	träumen	küssen	sonnig	vertrauen	genießen	gierig	töten	krank	sterben	versagen	gemein	1	acq_USunple_CSunple2_RW	acq4567_RW	5	34	400	1	300	300	345	46	0	1	1	blank2r.bmp	0	1	+	0	1	blank2r.bmp	435	1	JQQJ	435	1	blank2r.bmp	505	3	gemein	764	1	!	1129	1	!	1141	0	0	0	0	0	0	0	0	0	0	0	0	0	0	0	0	0	0	0	0	0	0	0	0	0	0	0	0	0	0
070119	16:35:46	16:46:56	668024	5.0.10.0	5_exp_RW	1	Rpleas_acq	CS_A	CPPC	ZHHZ	YFFY	JQQJ	LWWL	DXXD	gütig	träumen	küssen	sonnig	vertrauen	genießen	gierig	töten	krank	sterben	versagen	gemein	1	acq_USpleas_CSpleas1_RW	acq4567_RW	5	35	400	0	300	300	267	50	0	1	1	blank2r.bmp	0	1	+	0	1	blank2r.bmp	435	1	CPPC	435	1	blank2r.bmp	505	3	küssen	764	1	!	-1	1	!	-1	0	0	0	0	0	0	0	0	0	0	0	0	0	0	0	0	0	0	0	0	0	0	0	0	0	0	0	0	0	0
070119	16:35:46	16:46:58	670012	5.0.10.0	5_exp_RW	1	Rpleas_acq	CS_A	CPPC	ZHHZ	YFFY	JQQJ	LWWL	DXXD	gütig	träumen	küssen	sonnig	vertrauen	genießen	gierig	töten	krank	sterben	versagen	gemein	1	acq_USunple_CSunple1_RW	acq4567_RW	5	36	400	0	300	300	302	46	0	1	1	blank2r.bmp	0	1	+	0	1	blank2r.bmp	435	1	YFFY	435	1	blank2r.bmp	505	1	gierig	764	1	!	-1	1	!	-1	0	0	0	0	0	0	0	0	0	0	0	0	0	0	0	0	0	0	0	0	0	0	0	0	0	0	0	0	0	0
070119	16:35:46	16:46:59	671836	5.0.10.0	5_exp_RW	1	Rpleas_acq	CS_A	CPPC	ZHHZ	YFFY	JQQJ	LWWL	DXXD	gütig	träumen	küssen	sonnig	vertrauen	genießen	gierig	töten	krank	sterben	versagen	gemein	1	acq_USunple_CSunple2_RW	acq4567_RW	5	37	400	0	300	300	134	50	0	0	1	blank2r.bmp	0	1	+	0	1	blank2r.bmp	435	1	JQQJ	435	1	blank2r.bmp	505	3	gemein	764	1	!	-1	1	!	-1	0	0	0	0	0	0	0	0	0	0	0	0	0	0	0	0	0	0	0	0	0	0	0	0	0	0	0	0	0	0
070119	16:35:46	16:47:01	673942	5.0.10.0	5_exp_RW	1	Rpleas_acq	CS_A	CPPC	ZHHZ	YFFY	JQQJ	LWWL	DXXD	gütig	träumen	küssen	sonnig	vertrauen	genießen	gierig	töten	krank	sterben	versagen	gemein	1	acq_USpleas_CSpleas2_RW	acq4567_RW	5	38	400	1	300	300	404	50	0	1	1	blank2r.bmp	0	1	+	0	1	blank2r.bmp	435	1	ZHHZ	435	1	blank2r.bmp	505	1	sonnig	764	1	!	1129	1	!	1199	0	0	0	0	0	0	0	0	0	0	0	0	0	0	0	0	0	0	0	0	0	0	0	0	0	0	0	0	0	0
070119	16:35:46	16:47:04	675989	5.0.10.0	5_exp_RW	1	Rpleas_acq	CS_A	CPPC	ZHHZ	YFFY	JQQJ	LWWL	DXXD	gütig	träumen	küssen	sonnig	vertrauen	genießen	gierig	töten	krank	sterben	versagen	gemein	1	acq_USunple_CSunple1_RW	acq4567_RW	5	39	400	1	300	300	341	46	0	1	1	blank2r.bmp	0	1	+	0	1	blank2r.bmp	435	1	YFFY	435	1	blank2r.bmp	505	2	töten	764	1	!	1129	1	!	1141	0	0	0	0	0	0	0	0	0	0	0	0	0	0	0	0	0	0	0	0	0	0	0	0	0	0	0	0	0	0
070119	16:35:46	16:47:06	678153	5.0.10.0	5_exp_RW	1	Rpleas_acq	CS_A	CPPC	ZHHZ	YFFY	JQQJ	LWWL	DXXD	gütig	träumen	küssen	sonnig	vertrauen	genießen	gierig	töten	krank	sterben	versagen	gemein	1	acq_USunple_CSunple1_RW	acq4567_RW	5	40	400	1	300	300	462	46	0	1	1	blank2r.bmp	0	1	+	0	1	blank2r.bmp	435	1	YFFY	435	1	blank2r.bmp	505	1	gierig	764	1	!	1129	1	!	1258	0	0	0	0	0	0	0	0	0	0	0	0	0	0	0	0	0	0	0	0	0	0	0	0	0	0	0	0	0	0
070119	16:35:46	16:47:08	680165	5.0.10.0	5_exp_RW	1	Rpleas_acq	CS_A	CPPC	ZHHZ	YFFY	JQQJ	LWWL	DXXD	gütig	träumen	küssen	sonnig	vertrauen	genießen	gierig	töten	krank	sterben	versagen	gemein	1	acq_USunple_CSunple2_RW	acq4567_RW	5	41	400	0	300	300	321	46	0	1	1	blank2r.bmp	0	1	+	0	1	blank2r.bmp	435	1	JQQJ	435	1	blank2r.bmp	505	2	versagen	764	1	!	-1	1	!	-1	0	0	0	0	0	0	0	0	0	0	0	0	0	0	0	0	0	0	0	0	0	0	0	0	0	0	0	0	0	0
070119	16:35:46	16:47:10	682200	5.0.10.0	5_exp_RW	1	Rpleas_acq	CS_A	CPPC	ZHHZ	YFFY	JQQJ	LWWL	DXXD	gütig	träumen	küssen	sonnig	vertrauen	genießen	gierig	töten	krank	sterben	versagen	gemein	1	acq_USpleas_CSpleas2_RW	acq4567_RW	5	42	400	1	300	300	343	50	0	1	1	blank2r.bmp	0	1	+	0	1	blank2r.bmp	435	1	ZHHZ	435	1	blank2r.bmp	505	3	genießen	764	1	!	1129	1	!	1141	0	0	0	0	0	0	0	0	0	0	0	0	0	0	0	0	0	0	0	0	0	0	0	0	0	0	0	0	0	0
070119	16:35:46	16:47:12	684377	5.0.10.0	5_exp_RW	1	Rpleas_acq	CS_A	CPPC	ZHHZ	YFFY	JQQJ	LWWL	DXXD	gütig	träumen	küssen	sonnig	vertrauen	genießen	gierig	töten	krank	sterben	versagen	gemein	1	acq_USunple_CSunple1_RW	acq4567_RW	5	43	400	0	300	300	506	46	0	1	1	blank2r.bmp	0	1	+	0	1	blank2r.bmp	435	1	YFFY	435	1	blank2r.bmp	505	2	töten	764	1	!	1129	1	!	-1	0	0	0	0	0	0	0	0	0	0	0	0	0	0	0	0	0	0	0	0	0	0	0	0	0	0	0	0	0	0
070119	16:35:46	16:47:14	686365	5.0.10.0	5_exp_RW	1	Rpleas_acq	CS_A	CPPC	ZHHZ	YFFY	JQQJ	LWWL	DXXD	gütig	träumen	küssen	sonnig	vertrauen	genießen	gierig	töten	krank	sterben	versagen	gemein	1	acq_USunple_CSunple2_RW	acq4567_RW	5	44	400	0	300	300	313	46	0	1	1	blank2r.bmp	0	1	+	0	1	blank2r.bmp	435	1	JQQJ	435	1	blank2r.bmp	505	1	sterben	764	1	!	-1	1	!	-1	0	0	0	0	0	0	0	0	0	0	0	0	0	0	0	0	0	0	0	0	0	0	0	0	0	0	0	0	0	0
070119	16:35:46	16:47:16	688471	5.0.10.0	5_exp_RW	1	Rpleas_acq	CS_A	CPPC	ZHHZ	YFFY	JQQJ	LWWL	DXXD	gütig	träumen	küssen	sonnig	vertrauen	genießen	gierig	töten	krank	sterben	versagen	gemein	1	acq_USunple_CSunple1_RW	acq4567_RW	5	45	400	1	300	300	390	46	0	1	1	blank2r.bmp	0	1	+	0	1	blank2r.bmp	435	1	YFFY	435	1	blank2r.bmp	505	3	krank	764	1	!	1129	1	!	1188	0	0	0	0	0	0	0	0	0	0	0	0	0	0	0	0	0	0	0	0	0	0	0	0	0	0	0	0	0	0
070119	16:35:46	16:47:18	690436	5.0.10.0	5_exp_RW	1	Rpleas_acq	CS_A	CPPC	ZHHZ	YFFY	JQQJ	LWWL	DXXD	gütig	träumen	küssen	sonnig	vertrauen	genießen	gierig	töten	krank	sterben	versagen	gemein	1	acq_USpleas_CSpleas1_RW	acq4567_RW	5	46	400	0	300	300	288	50	0	1	1	blank2r.bmp	0	1	+	0	1	blank2r.bmp	435	1	CPPC	435	1	blank2r.bmp	505	1	gütig	764	1	!	-1	1	!	-1	0	0	0	0	0	0	0	0	0	0	0	0	0	0	0	0	0	0	0	0	0	0	0	0	0	0	0	0	0	0
070119	16:35:46	16:47:20	692542	5.0.10.0	5_exp_RW	1	Rpleas_acq	CS_A	CPPC	ZHHZ	YFFY	JQQJ	LWWL	DXXD	gütig	träumen	küssen	sonnig	vertrauen	genießen	gierig	töten	krank	sterben	versagen	gemein	1	acq_USpleas_CSpleas2_RW	acq4567_RW	5	47	400	1	300	300	422	50	0	1	1	blank2r.bmp	0	1	+	0	1	blank2r.bmp	435	1	ZHHZ	435	1	blank2r.bmp	505	2	vertrauen	764	1	!	1129	1	!	1211	0	0	0	0	0	0	0	0	0	0	0	0	0	0	0	0	0	0	0	0	0	0	0	0	0	0	0	0	0	0
070119	16:35:46	16:47:22	694495	5.0.10.0	5_exp_RW	1	Rpleas_acq	CS_A	CPPC	ZHHZ	YFFY	JQQJ	LWWL	DXXD	gütig	träumen	küssen	sonnig	vertrauen	genießen	gierig	töten	krank	sterben	versagen	gemein	1	acq_USunple_CSunple2_RW	acq4567_RW	5	48	400	0	300	300	283	46	0	1	1	blank2r.bmp	0	1	+	0	1	blank2r.bmp	435	1	JQQJ	435	1	blank2r.bmp	505	1	sterben	764	1	!	-1	1	!	-1	0	0	0	0	0	0	0	0	0	0	0	0	0	0	0	0	0	0	0	0	0	0	0	0	0	0	0	0	0	0
070119	16:35:46	16:47:24	696671	5.0.10.0	5_exp_RW	1	Rpleas_acq	CS_A	CPPC	ZHHZ	YFFY	JQQJ	LWWL	DXXD	gütig	träumen	küssen	sonnig	vertrauen	genießen	gierig	töten	krank	sterben	versagen	gemein	1	acq_USpleas_CSpleas2_RW	acq4567_RW	5	49	400	0	300	300	493	50	0	1	1	blank2r.bmp	0	1	+	0	1	blank2r.bmp	435	1	ZHHZ	435	1	blank2r.bmp	505	2	vertrauen	764	1	!	1129	1	!	-1	0	0	0	0	0	0	0	0	0	0	0	0	0	0	0	0	0	0	0	0	0	0	0	0	0	0	0	0	0	0
070119	16:35:46	16:47:26	698753	5.0.10.0	5_exp_RW	1	Rpleas_acq	CS_A	CPPC	ZHHZ	YFFY	JQQJ	LWWL	DXXD	gütig	träumen	küssen	sonnig	vertrauen	genießen	gierig	töten	krank	sterben	versagen	gemein	1	acq_USunple_CSunple1_RW	acq4567_RW	5	50	400	1	300	300	383	46	0	1	1	blank2r.bmp	0	1	+	0	1	blank2r.bmp	435	1	YFFY	435	1	blank2r.bmp	505	2	töten	764	1	!	1129	1	!	1176	0	0	0	0	0	0	0	0	0	0	0	0	0	0	0	0	0	0	0	0	0	0	0	0	0	0	0	0	0	0
070119	16:35:46	16:47:28	700871	5.0.10.0	5_exp_RW	1	Rpleas_acq	CS_A	CPPC	ZHHZ	YFFY	JQQJ	LWWL	DXXD	gütig	träumen	küssen	sonnig	vertrauen	genießen	gierig	töten	krank	sterben	versagen	gemein	1	acq_USpleas_CSpleas1_RW	acq4567_RW	5	51	400	1	300	300	431	50	0	1	1	blank2r.bmp	0	1	+	0	1	blank2r.bmp	435	1	CPPC	435	1	blank2r.bmp	505	2	träumen	764	1	!	1129	1	!	1223	0	0	0	0	0	0	0	0	0	0	0	0	0	0	0	0	0	0	0	0	0	0	0	0	0	0	0	0	0	0
070119	16:35:46	16:47:30	702918	5.0.10.0	5_exp_RW	1	Rpleas_acq	CS_A	CPPC	ZHHZ	YFFY	JQQJ	LWWL	DXXD	gütig	träumen	küssen	sonnig	vertrauen	genießen	gierig	töten	krank	sterben	versagen	gemein	1	acq_USpleas_CSpleas1_RW	acq4567_RW	5	52	400	1	300	300	350	50	0	1	1	blank2r.bmp	0	1	+	0	1	blank2r.bmp	435	1	CPPC	435	1	blank2r.bmp	505	3	küssen	764	1	!	1129	1	!	1141	0	0	0	0	0	0	0	0	0	0	0	0	0	0	0	0	0	0	0	0	0	0	0	0	0	0	0	0	0	0
070119	16:35:46	16:47:33	705036	5.0.10.0	5_exp_RW	1	Rpleas_acq	CS_A	CPPC	ZHHZ	YFFY	JQQJ	LWWL	DXXD	gütig	träumen	küssen	sonnig	vertrauen	genießen	gierig	töten	krank	sterben	versagen	gemein	1	acq_USpleas_CSpleas2_RW	acq4567_RW	5	53	400	1	300	300	432	50	0	1	1	blank2r.bmp	0	1	+	0	1	blank2r.bmp	435	1	ZHHZ	435	1	blank2r.bmp	505	1	sonnig	764	1	!	1129	1	!	1223	0	0	0	0	0	0	0	0	0	0	0	0	0	0	0	0	0	0	0	0	0	0	0	0	0	0	0	0	0	0
070119	16:35:46	16:47:35	707130	5.0.10.0	5_exp_RW	1	Rpleas_acq	CS_A	CPPC	ZHHZ	YFFY	JQQJ	LWWL	DXXD	gütig	träumen	küssen	sonnig	vertrauen	genießen	gierig	töten	krank	sterben	versagen	gemein	1	acq_USunple_CSunple1_RW	acq4567_RW	5	54	400	1	300	300	390	46	0	1	1	blank2r.bmp	0	1	+	0	1	blank2r.bmp	435	1	YFFY	435	1	blank2r.bmp	505	3	krank	764	1	!	1129	1	!	1188	0	0	0	0	0	0	0	0	0	0	0	0	0	0	0	0	0	0	0	0	0	0	0	0	0	0	0	0	0	0
070119	16:35:46	16:47:37	709177	5.0.10.0	5_exp_RW	1	Rpleas_acq	CS_A	CPPC	ZHHZ	YFFY	JQQJ	LWWL	DXXD	gütig	träumen	küssen	sonnig	vertrauen	genießen	gierig	töten	krank	sterben	versagen	gemein	1	acq_USunple_CSunple1_RW	acq4567_RW	5	55	400	1	300	300	354	50	0	0	1	blank2r.bmp	0	1	+	0	1	blank2r.bmp	435	1	YFFY	435	1	blank2r.bmp	505	1	gierig	764	1	!	1129	1	!	1152	0	0	0	0	0	0	0	0	0	0	0	0	0	0	0	0	0	0	0	0	0	0	0	0	0	0	0	0	0	0
070119	16:35:46	16:47:39	711330	5.0.10.0	5_exp_RW	1	Rpleas_acq	CS_A	CPPC	ZHHZ	YFFY	JQQJ	LWWL	DXXD	gütig	träumen	küssen	sonnig	vertrauen	genießen	gierig	töten	krank	sterben	versagen	gemein	1	acq_USunple_CSunple2_RW	acq4567_RW	5	56	400	0	300	300	486	46	0	1	1	blank2r.bmp	0	1	+	0	1	blank2r.bmp	435	1	JQQJ	435	1	blank2r.bmp	505	2	versagen	764	1	!	1129	1	!	-1	0	0	0	0	0	0	0	0	0	0	0	0	0	0	0	0	0	0	0	0	0	0	0	0	0	0	0	0	0	0
070119	16:35:46	16:47:41	713424	5.0.10.0	5_exp_RW	1	Rpleas_acq	CS_A	CPPC	ZHHZ	YFFY	JQQJ	LWWL	DXXD	gütig	träumen	küssen	sonnig	vertrauen	genießen	gierig	töten	krank	sterben	versagen	gemein	1	acq_USpleas_CSpleas1_RW	acq4567_RW	5	57	400	1	300	300	399	50	0	1	1	blank2r.bmp	0	1	+	0	1	blank2r.bmp	435	1	CPPC	435	1	blank2r.bmp	505	1	gütig	764	1	!	1129	1	!	1188	0	0	0	0	0	0	0	0	0	0	0	0	0	0	0	0	0	0	0	0	0	0	0	0	0	0	0	0	0	0
070119	16:35:46	16:47:43	715530	5.0.10.0	5_exp_RW	1	Rpleas_acq	CS_A	CPPC	ZHHZ	YFFY	JQQJ	LWWL	DXXD	gütig	träumen	küssen	sonnig	vertrauen	genießen	gierig	töten	krank	sterben	versagen	gemein	1	acq_USpleas_CSpleas1_RW	acq4567_RW	5	58	400	1	300	300	411	50	0	1	1	blank2r.bmp	0	1	+	0	1	blank2r.bmp	435	1	CPPC	435	1	blank2r.bmp	505	2	träumen	764	1	!	1129	1	!	1211	0	0	0	0	0	0	0	0	0	0	0	0	0	0	0	0	0	0	0	0	0	0	0	0	0	0	0	0	0	0
070119	16:35:46	16:47:45	717683	5.0.10.0	5_exp_RW	1	Rpleas_acq	CS_A	CPPC	ZHHZ	YFFY	JQQJ	LWWL	DXXD	gütig	träumen	küssen	sonnig	vertrauen	genießen	gierig	töten	krank	sterben	versagen	gemein	1	acq_USunple_CSunple2_RW	acq4567_RW	5	59	400	0	300	300	483	46	0	1	1	blank2r.bmp	0	1	+	0	1	blank2r.bmp	435	1	JQQJ	435	1	blank2r.bmp	505	3	gemein	764	1	!	1129	1	!	-1	0	0	0	0	0	0	0	0	0	0	0	0	0	0	0	0	0	0	0	0	0	0	0	0	0	0	0	0	0	0
070119	16:35:46	16:47:47	719789	5.0.10.0	5_exp_RW	1	Rpleas_acq	CS_A	CPPC	ZHHZ	YFFY	JQQJ	LWWL	DXXD	gütig	träumen	küssen	sonnig	vertrauen	genießen	gierig	töten	krank	sterben	versagen	gemein	1	acq_USpleas_CSpleas2_RW	acq4567_RW	5	60	400	1	300	300	403	46	0	0	1	blank2r.bmp	0	1	+	0	1	blank2r.bmp	435	1	ZHHZ	435	1	blank2r.bmp	505	3	genießen	764	1	!	1129	1	!	1199	0	0	0	0	0	0	0	0	0	0	0	0	0	0	0	0	0	0	0	0	0	0	0	0	0	0	0	0	0	0
070119	16:35:46	16:47:49	721906	5.0.10.0	5_exp_RW	1	Rpleas_acq	CS_A	CPPC	ZHHZ	YFFY	JQQJ	LWWL	DXXD	gütig	träumen	küssen	sonnig	vertrauen	genießen	gierig	töten	krank	sterben	versagen	gemein	1	acq_USpleas_CSpleas2_RW	acq4567_RW	5	61	400	1	300	300	432	50	0	1	1	blank2r.bmp	0	1	+	0	1	blank2r.bmp	435	1	ZHHZ	435	1	blank2r.bmp	505	3	genießen	764	1	!	1129	1	!	1223	0	0	0	0	0	0	0	0	0	0	0	0	0	0	0	0	0	0	0	0	0	0	0	0	0	0	0	0	0	0
070119	16:35:46	16:47:52	724212	5.0.10.0	5_exp_RW	1	Rpleas_acq	CS_A	CPPC	ZHHZ	YFFY	JQQJ	LWWL	DXXD	gütig	träumen	küssen	sonnig	vertrauen	genießen	gierig	töten	krank	sterben	versagen	gemein	1	acq_USunple_CSunple1_RW	acq4567_RW	5	62	400	0	300	300	632	46	0	1	1	blank2r.bmp	0	1	+	0	1	blank2r.bmp	435	1	YFFY	435	1	blank2r.bmp	505	1	gierig	764	1	!	1129	1	!	-1	0	0	0	0	0	0	0	0	0	0	0	0	0	0	0	0	0	0	0	0	0	0	0	0	0	0	0	0	0	0
070119	16:35:46	16:47:54	726295	5.0.10.0	5_exp_RW	1	Rpleas_acq	CS_A	CPPC	ZHHZ	YFFY	JQQJ	LWWL	DXXD	gütig	träumen	küssen	sonnig	vertrauen	genießen	gierig	töten	krank	sterben	versagen	gemein	1	acq_USpleas_CSpleas2_RW	acq4567_RW	5	63	400	1	300	300	398	50	0	1	1	blank2r.bmp	0	1	+	0	1	blank2r.bmp	435	1	ZHHZ	435	1	blank2r.bmp	505	1	sonnig	764	1	!	1129	1	!	1188	0	0	0	0	0	0	0	0	0	0	0	0	0	0	0	0	0	0	0	0	0	0	0	0	0	0	0	0	0	0
070119	16:35:46	16:47:56	728342	5.0.10.0	5_exp_RW	1	Rpleas_acq	CS_A	CPPC	ZHHZ	YFFY	JQQJ	LWWL	DXXD	gütig	träumen	küssen	sonnig	vertrauen	genießen	gierig	töten	krank	sterben	versagen	gemein	1	acq_USpleas_CSpleas1_RW	acq4567_RW	5	64	400	1	300	300	351	50	0	1	1	blank2r.bmp	0	1	+	0	1	blank2r.bmp	435	1	CPPC	435	1	blank2r.bmp	505	2	träumen	764	1	!	1129	1	!	1141	0	0	0	0	0	0	0	0	0	0	0	0	0	0	0	0	0	0	0	0	0	0	0	0	0	0	0	0	0	0
070119	16:35:46	16:47:58	730495	5.0.10.0	5_exp_RW	1	Rpleas_acq	CS_A	CPPC	ZHHZ	YFFY	JQQJ	LWWL	DXXD	gütig	träumen	küssen	sonnig	vertrauen	genießen	gierig	töten	krank	sterben	versagen	gemein	1	acq_USpleas_CSpleas1_RW	acq4567_RW	5	65	400	1	300	300	455	50	0	1	1	blank2r.bmp	0	1	+	0	1	blank2r.bmp	435	1	CPPC	435	1	blank2r.bmp	505	1	gütig	764	1	!	1129	1	!	1247	0	0	0	0	0	0	0	0	0	0	0	0	0	0	0	0	0	0	0	0	0	0	0	0	0	0	0	0	0	0
070119	16:35:46	16:48:00	732495	5.0.10.0	5_exp_RW	1	Rpleas_acq	CS_A	CPPC	ZHHZ	YFFY	JQQJ	LWWL	DXXD	gütig	träumen	küssen	sonnig	vertrauen	genießen	gierig	töten	krank	sterben	versagen	gemein	1	acq_USunple_CSunple1_RW	acq4567_RW	5	66	400	0	300	300	319	46	0	1	1	blank2r.bmp	0	1	+	0	1	blank2r.bmp	435	1	YFFY	435	1	blank2r.bmp	505	3	krank	764	1	!	-1	1	!	-1	0	0	0	0	0	0	0	0	0	0	0	0	0	0	0	0	0	0	0	0	0	0	0	0	0	0	0	0	0	0
070119	16:35:46	16:48:02	734624	5.0.10.0	5_exp_RW	1	Rpleas_acq	CS_A	CPPC	ZHHZ	YFFY	JQQJ	LWWL	DXXD	gütig	träumen	küssen	sonnig	vertrauen	genießen	gierig	töten	krank	sterben	versagen	gemein	1	acq_USunple_CSunple2_RW	acq4567_RW	5	67	400	1	300	300	416	46	0	1	1	blank2r.bmp	0	1	+	0	1	blank2r.bmp	435	1	JQQJ	435	1	blank2r.bmp	505	3	gemein	764	1	!	1129	1	!	1211	0	0	0	0	0	0	0	0	0	0	0	0	0	0	0	0	0	0	0	0	0	0	0	0	0	0	0	0	0	0
070119	16:35:46	16:48:04	736671	5.0.10.0	5_exp_RW	1	Rpleas_acq	CS_A	CPPC	ZHHZ	YFFY	JQQJ	LWWL	DXXD	gütig	träumen	küssen	sonnig	vertrauen	genießen	gierig	töten	krank	sterben	versagen	gemein	1	acq_USpleas_CSpleas2_RW	acq4567_RW	5	68	400	1	300	300	363	50	0	1	1	blank2r.bmp	0	1	+	0	1	blank2r.bmp	435	1	ZHHZ	435	1	blank2r.bmp	505	2	vertrauen	764	1	!	1129	1	!	1152	0	0	0	0	0	0	0	0	0	0	0	0	0	0	0	0	0	0	0	0	0	0	0	0	0	0	0	0	0	0
070119	16:35:46	16:48:06	738730	5.0.10.0	5_exp_RW	1	Rpleas_acq	CS_A	CPPC	ZHHZ	YFFY	JQQJ	LWWL	DXXD	gütig	träumen	küssen	sonnig	vertrauen	genießen	gierig	töten	krank	sterben	versagen	gemein	1	acq_USunple_CSunple1_RW	acq4567_RW	5	69	400	1	300	300	357	46	0	1	1	blank2r.bmp	0	1	+	0	1	blank2r.bmp	435	1	YFFY	435	1	blank2r.bmp	505	2	töten	764	1	!	1129	1	!	1152	0	0	0	0	0	0	0	0	0	0	0	0	0	0	0	0	0	0	0	0	0	0	0	0	0	0	0	0	0	0
070119	16:35:46	16:48:08	740812	5.0.10.0	5_exp_RW	1	Rpleas_acq	CS_A	CPPC	ZHHZ	YFFY	JQQJ	LWWL	DXXD	gütig	träumen	küssen	sonnig	vertrauen	genießen	gierig	töten	krank	sterben	versagen	gemein	1	acq_USpleas_CSpleas1_RW	acq4567_RW	5	70	400	1	300	300	384	46	0	0	1	blank2r.bmp	0	1	+	0	1	blank2r.bmp	435	1	CPPC	435	1	blank2r.bmp	505	3	küssen	764	1	!	1129	1	!	1176	0	0	0	0	0	0	0	0	0	0	0	0	0	0	0	0	0	0	0	0	0	0	0	0	0	0	0	0	0	0
070119	16:35:46	16:48:11	742977	5.0.10.0	5_exp_RW	1	Rpleas_acq	CS_A	CPPC	ZHHZ	YFFY	JQQJ	LWWL	DXXD	gütig	träumen	küssen	sonnig	vertrauen	genießen	gierig	töten	krank	sterben	versagen	gemein	1	acq_USpleas_CSpleas1_RW	acq4567_RW	5	71	400	0	300	300	489	50	0	1	1	blank2r.bmp	0	1	+	0	1	blank2r.bmp	435	1	CPPC	435	1	blank2r.bmp	505	1	gütig	764	1	!	1129	1	!	-1	0	0	0	0	0	0	0	0	0	0	0	0	0	0	0	0	0	0	0	0	0	0	0	0	0	0	0	0	0	0
070119	16:35:46	16:48:13	745095	5.0.10.0	5_exp_RW	1	Rpleas_acq	CS_A	CPPC	ZHHZ	YFFY	JQQJ	LWWL	DXXD	gütig	träumen	küssen	sonnig	vertrauen	genießen	gierig	töten	krank	sterben	versagen	gemein	1	acq_USunple_CSunple2_RW	acq4567_RW	5	72	400	1	300	300	431	46	0	1	1	blank2r.bmp	0	1	+	0	1	blank2r.bmp	435	1	JQQJ	435	1	blank2r.bmp	505	1	sterben	764	1	!	1129	1	!	1223	0	0	0	0	0	0	0	0	0	0	0	0	0	0	0	0	0	0	0	0	0	0	0	0	0	0	0	0	0	0
070119	16:35:46	16:48:15	747095	5.0.10.0	5_exp_RW	1	Rpleas_acq	CS_A	CPPC	ZHHZ	YFFY	JQQJ	LWWL	DXXD	gütig	träumen	küssen	sonnig	vertrauen	genießen	gierig	töten	krank	sterben	versagen	gemein	1	acq_USunple_CSunple2_RW	acq4567_RW	5	73	400	0	300	300	314	46	0	1	1	blank2r.bmp	0	1	+	0	1	blank2r.bmp	435	1	JQQJ	435	1	blank2r.bmp	505	2	versagen	764	1	!	-1	1	!	-1	0	0	0	0	0	0	0	0	0	0	0	0	0	0	0	0	0	0	0	0	0	0	0	0	0	0	0	0	0	0
070119	16:35:46	16:48:17	749271	5.0.10.0	5_exp_RW	1	Rpleas_acq	CS_A	CPPC	ZHHZ	YFFY	JQQJ	LWWL	DXXD	gütig	träumen	küssen	sonnig	vertrauen	genießen	gierig	töten	krank	sterben	versagen	gemein	1	acq_USpleas_CSpleas1_RW	acq4567_RW	5	74	400	0	300	300	500	50	0	1	1	blank2r.bmp	0	1	+	0	1	blank2r.bmp	435	1	CPPC	435	1	blank2r.bmp	505	2	träumen	764	1	!	1129	1	!	-1	0	0	0	0	0	0	0	0	0	0	0	0	0	0	0	0	0	0	0	0	0	0	0	0	0	0	0	0	0	0
070119	16:35:46	16:48:19	751354	5.0.10.0	5_exp_RW	1	Rpleas_acq	CS_A	CPPC	ZHHZ	YFFY	JQQJ	LWWL	DXXD	gütig	träumen	küssen	sonnig	vertrauen	genießen	gierig	töten	krank	sterben	versagen	gemein	1	acq_USunple_CSunple1_RW	acq4567_RW	5	75	400	1	300	300	389	46	0	1	1	blank2r.bmp	0	1	+	0	1	blank2r.bmp	435	1	YFFY	435	1	blank2r.bmp	505	2	töten	764	1	!	1129	1	!	1188	0	0	0	0	0	0	0	0	0	0	0	0	0	0	0	0	0	0	0	0	0	0	0	0	0	0	0	0	0	0
070119	16:35:46	16:48:21	753483	5.0.10.0	5_exp_RW	1	Rpleas_acq	CS_A	CPPC	ZHHZ	YFFY	JQQJ	LWWL	DXXD	gütig	träumen	küssen	sonnig	vertrauen	genießen	gierig	töten	krank	sterben	versagen	gemein	1	acq_USunple_CSunple2_RW	acq4567_RW	5	76	400	1	300	300	440	46	0	1	1	blank2r.bmp	0	1	+	0	1	blank2r.bmp	435	1	JQQJ	435	1	blank2r.bmp	505	2	versagen	764	1	!	1129	1	!	1235	0	0	0	0	0	0	0	0	0	0	0	0	0	0	0	0	0	0	0	0	0	0	0	0	0	0	0	0	0	0
070119	16:35:46	16:48:23	755730	5.0.10.0	5_exp_RW	1	Rpleas_acq	CS_A	CPPC	ZHHZ	YFFY	JQQJ	LWWL	DXXD	gütig	träumen	küssen	sonnig	vertrauen	genießen	gierig	töten	krank	sterben	versagen	gemein	1	acq_USunple_CSunple1_RW	acq4567_RW	5	77	400	0	300	300	570	46	0	1	1	blank2r.bmp	0	1	+	0	1	blank2r.bmp	435	1	YFFY	435	1	blank2r.bmp	505	3	krank	764	1	!	1129	1	!	-1	0	0	0	0	0	0	0	0	0	0	0	0	0	0	0	0	0	0	0	0	0	0	0	0	0	0	0	0	0	0
070119	16:35:46	16:48:25	757812	5.0.10.0	5_exp_RW	1	Rpleas_acq	CS_A	CPPC	ZHHZ	YFFY	JQQJ	LWWL	DXXD	gütig	träumen	küssen	sonnig	vertrauen	genießen	gierig	töten	krank	sterben	versagen	gemein	1	acq_USpleas_CSpleas2_RW	acq4567_RW	5	78	400	1	300	300	392	50	0	1	1	blank2r.bmp	0	1	+	0	1	blank2r.bmp	435	1	ZHHZ	435	1	blank2r.bmp	505	1	sonnig	764	1	!	1129	1	!	1188	0	0	0	0	0	0	0	0	0	0	0	0	0	0	0	0	0	0	0	0	0	0	0	0	0	0	0	0	0	0
070119	16:35:46	16:48:27	759930	5.0.10.0	5_exp_RW	1	Rpleas_acq	CS_A	CPPC	ZHHZ	YFFY	JQQJ	LWWL	DXXD	gütig	träumen	küssen	sonnig	vertrauen	genießen	gierig	töten	krank	sterben	versagen	gemein	1	acq_USpleas_CSpleas2_RW	acq4567_RW	5	79	400	1	300	300	427	46	0	0	1	blank2r.bmp	0	1	+	0	1	blank2r.bmp	435	1	ZHHZ	435	1	blank2r.bmp	505	3	genießen	764	1	!	1129	1	!	1223	0	0	0	0	0	0	0	0	0	0	0	0	0	0	0	0	0	0	0	0	0	0	0	0	0	0	0	0	0	0
070119	16:35:46	16:48:30	762059	5.0.10.0	5_exp_RW	1	Rpleas_acq	CS_A	CPPC	ZHHZ	YFFY	JQQJ	LWWL	DXXD	gütig	träumen	küssen	sonnig	vertrauen	genießen	gierig	töten	krank	sterben	versagen	gemein	1	acq_USunple_CSunple2_RW	acq4567_RW	5	80	400	1	300	300	422	46	0	1	1	blank2r.bmp	0	1	+	0	1	blank2r.bmp	435	1	JQQJ	435	1	blank2r.bmp	505	1	sterben	764	1	!	1129	1	!	1223	0	0	0	0	0	0	0	0	0	0	0	0	0	0	0	0	0	0	0	0	0	0	0	0	0	0	0	0	0	0
070119	16:35:46	16:49:53	845613	5.0.10.0	5_exp_RW	1	Rpleas_acq	CS_A	CPPC	ZHHZ	YFFY	JQQJ	LWWL	DXXD	gütig	träumen	küssen	sonnig	vertrauen	genießen	gierig	töten	krank	sterben	versagen	gemein	1	acq_USunple_CSunple2_RW	acq4567_RW	6	1	400	1	300	300	376	50	0	0	1	blank2r.bmp	0	1	+	0	1	blank2r.bmp	435	1	JQQJ	435	1	blank2r.bmp	505	3	gemein	764	1	!	1129	1	!	1176	0	0	0	0	0	0	0	0	0	0	0	0	0	0	0	0	0	0	0	0	0	0	0	0	0	0	0	0	0	0
070119	16:35:46	16:49:55	847601	5.0.10.0	5_exp_RW	1	Rpleas_acq	CS_A	CPPC	ZHHZ	YFFY	JQQJ	LWWL	DXXD	gütig	träumen	küssen	sonnig	vertrauen	genießen	gierig	töten	krank	sterben	versagen	gemein	1	acq_USunple_CSunple2_RW	acq4567_RW	6	2	400	0	300	300	328	46	0	1	1	blank2r.bmp	0	1	+	0	1	blank2r.bmp	435	1	JQQJ	435	1	blank2r.bmp	505	2	versagen	764	1	!	-1	1	!	-1	0	0	0	0	0	0	0	0	0	0	0	0	0	0	0	0	0	0	0	0	0	0	0	0	0	0	0	0	0	0
070119	16:35:46	16:49:57	849718	5.0.10.0	5_exp_RW	1	Rpleas_acq	CS_A	CPPC	ZHHZ	YFFY	JQQJ	LWWL	DXXD	gütig	träumen	küssen	sonnig	vertrauen	genießen	gierig	töten	krank	sterben	versagen	gemein	1	acq_USunple_CSunple1_RW	acq4567_RW	6	3	400	1	300	300	420	46	0	1	1	blank2r.bmp	0	1	+	0	1	blank2r.bmp	435	1	YFFY	435	1	blank2r.bmp	505	1	gierig	764	1	!	1129	1	!	1211	0	0	0	0	0	0	0	0	0	0	0	0	0	0	0	0	0	0	0	0	0	0	0	0	0	0	0	0	0	0
070119	16:35:46	16:49:59	851718	5.0.10.0	5_exp_RW	1	Rpleas_acq	CS_A	CPPC	ZHHZ	YFFY	JQQJ	LWWL	DXXD	gütig	träumen	küssen	sonnig	vertrauen	genießen	gierig	töten	krank	sterben	versagen	gemein	1	acq_USpleas_CSpleas2_RW	acq4567_RW	6	4	400	0	300	300	320	46	0	0	1	blank2r.bmp	0	1	+	0	1	blank2r.bmp	435	1	ZHHZ	435	1	blank2r.bmp	505	2	vertrauen	764	1	!	-1	1	!	-1	0	0	0	0	0	0	0	0	0	0	0	0	0	0	0	0	0	0	0	0	0	0	0	0	0	0	0	0	0	0
070119	16:35:46	16:50:01	853895	5.0.10.0	5_exp_RW	1	Rpleas_acq	CS_A	CPPC	ZHHZ	YFFY	JQQJ	LWWL	DXXD	gütig	träumen	küssen	sonnig	vertrauen	genießen	gierig	töten	krank	sterben	versagen	gemein	1	acq_USpleas_CSpleas2_RW	acq4567_RW	6	5	400	0	300	300	487	50	0	1	1	blank2r.bmp	0	1	+	0	1	blank2r.bmp	435	1	ZHHZ	435	1	blank2r.bmp	505	2	vertrauen	764	1	!	1129	1	!	-1	0	0	0	0	0	0	0	0	0	0	0	0	0	0	0	0	0	0	0	0	0	0	0	0	0	0	0	0	0	0
070119	16:35:46	16:50:03	855930	5.0.10.0	5_exp_RW	1	Rpleas_acq	CS_A	CPPC	ZHHZ	YFFY	JQQJ	LWWL	DXXD	gütig	träumen	küssen	sonnig	vertrauen	genießen	gierig	töten	krank	sterben	versagen	gemein	1	acq_USpleas_CSpleas1_RW	acq4567_RW	6	6	400	1	300	300	345	50	0	1	1	blank2r.bmp	0	1	+	0	1	blank2r.bmp	435	1	CPPC	435	1	blank2r.bmp	505	3	küssen	764	1	!	1129	1	!	1141	0	0	0	0	0	0	0	0	0	0	0	0	0	0	0	0	0	0	0	0	0	0	0	0	0	0	0	0	0	0
070119	16:35:46	16:50:06	858060	5.0.10.0	5_exp_RW	1	Rpleas_acq	CS_A	CPPC	ZHHZ	YFFY	JQQJ	LWWL	DXXD	gütig	träumen	küssen	sonnig	vertrauen	genießen	gierig	töten	krank	sterben	versagen	gemein	1	acq_USunple_CSunple2_RW	acq4567_RW	6	7	400	1	300	300	432	46	0	1	1	blank2r.bmp	0	1	+	0	1	blank2r.bmp	435	1	JQQJ	435	1	blank2r.bmp	505	3	gemein	764	1	!	1129	1	!	1223	0	0	0	0	0	0	0	0	0	0	0	0	0	0	0	0	0	0	0	0	0	0	0	0	0	0	0	0	0	0
070119	16:35:46	16:50:08	860130	5.0.10.0	5_exp_RW	1	Rpleas_acq	CS_A	CPPC	ZHHZ	YFFY	JQQJ	LWWL	DXXD	gütig	träumen	küssen	sonnig	vertrauen	genießen	gierig	töten	krank	sterben	versagen	gemein	1	acq_USunple_CSunple1_RW	acq4567_RW	6	8	400	1	300	300	385	46	0	1	1	blank2r.bmp	0	1	+	0	1	blank2r.bmp	435	1	YFFY	435	1	blank2r.bmp	505	3	krank	764	1	!	1129	1	!	1176	0	0	0	0	0	0	0	0	0	0	0	0	0	0	0	0	0	0	0	0	0	0	0	0	0	0	0	0	0	0
070119	16:35:46	16:50:10	862236	5.0.10.0	5_exp_RW	1	Rpleas_acq	CS_A	CPPC	ZHHZ	YFFY	JQQJ	LWWL	DXXD	gütig	träumen	küssen	sonnig	vertrauen	genießen	gierig	töten	krank	sterben	versagen	gemein	1	acq_USunple_CSunple1_RW	acq4567_RW	6	9	400	1	300	300	403	46	0	1	1	blank2r.bmp	0	1	+	0	1	blank2r.bmp	435	1	YFFY	435	1	blank2r.bmp	505	2	töten	764	1	!	1129	1	!	1199	0	0	0	0	0	0	0	0	0	0	0	0	0	0	0	0	0	0	0	0	0	0	0	0	0	0	0	0	0	0
070119	16:35:46	16:50:12	864366	5.0.10.0	5_exp_RW	1	Rpleas_acq	CS_A	CPPC	ZHHZ	YFFY	JQQJ	LWWL	DXXD	gütig	träumen	küssen	sonnig	vertrauen	genießen	gierig	töten	krank	sterben	versagen	gemein	1	acq_USunple_CSunple1_RW	acq4567_RW	6	10	400	1	300	300	426	46	0	1	1	blank2r.bmp	0	1	+	0	1	blank2r.bmp	435	1	YFFY	435	1	blank2r.bmp	505	1	gierig	764	1	!	1129	1	!	1223	0	0	0	0	0	0	0	0	0	0	0	0	0	0	0	0	0	0	0	0	0	0	0	0	0	0	0	0	0	0
070119	16:35:46	16:50:14	866342	5.0.10.0	5_exp_RW	1	Rpleas_acq	CS_A	CPPC	ZHHZ	YFFY	JQQJ	LWWL	DXXD	gütig	träumen	küssen	sonnig	vertrauen	genießen	gierig	töten	krank	sterben	versagen	gemein	1	acq_USunple_CSunple2_RW	acq4567_RW	6	11	400	0	300	300	305	46	0	1	1	blank2r.bmp	0	1	+	0	1	blank2r.bmp	435	1	JQQJ	435	1	blank2r.bmp	505	1	sterben	764	1	!	-1	1	!	-1	0	0	0	0	0	0	0	0	0	0	0	0	0	0	0	0	0	0	0	0	0	0	0	0	0	0	0	0	0	0
070119	16:35:46	16:50:16	868448	5.0.10.0	5_exp_RW	1	Rpleas_acq	CS_A	CPPC	ZHHZ	YFFY	JQQJ	LWWL	DXXD	gütig	träumen	küssen	sonnig	vertrauen	genießen	gierig	töten	krank	sterben	versagen	gemein	1	acq_USpleas_CSpleas2_RW	acq4567_RW	6	12	400	1	300	300	396	50	0	1	1	blank2r.bmp	0	1	+	0	1	blank2r.bmp	435	1	ZHHZ	435	1	blank2r.bmp	505	1	sonnig	764	1	!	1129	1	!	1188	0	0	0	0	0	0	0	0	0	0	0	0	0	0	0	0	0	0	0	0	0	0	0	0	0	0	0	0	0	0
070119	16:35:46	16:50:18	870530	5.0.10.0	5_exp_RW	1	Rpleas_acq	CS_A	CPPC	ZHHZ	YFFY	JQQJ	LWWL	DXXD	gütig	träumen	küssen	sonnig	vertrauen	genießen	gierig	töten	krank	sterben	versagen	gemein	1	acq_USpleas_CSpleas1_RW	acq4567_RW	6	13	400	1	300	300	392	50	0	1	1	blank2r.bmp	0	1	+	0	1	blank2r.bmp	435	1	CPPC	435	1	blank2r.bmp	505	1	gütig	764	1	!	1129	1	!	1188	0	0	0	0	0	0	0	0	0	0	0	0	0	0	0	0	0	0	0	0	0	0	0	0	0	0	0	0	0	0
