date	time	script.currenttime	script.elapsedtime	build	script.currentexpt	subject	expressions.LRpleas_acq	expressions.conditionCS_A	expressions.CSpleas_1	expressions.CSpleas_2	expressions.CSunple_1	expressions.CSunple_2	expressions.distractor_1	expressions.distractor_2	expressions.US_pleas1	expressions.US_pleas2	expressions.US_pleas3	expressions.US_pleas4	expressions.US_pleas5	expressions.US_pleas6	expressions.US_unple1	expressions.US_unple2	expressions.US_unple3	expressions.US_unple4	expressions.US_unple5	expressions.US_unple6	counter.positions_noRW	trialcode	blockcode	blocknum	trialnum	windowcenter	inwindow	pretrialpause	posttrialpause	latency	response	expressions.correctedscore	correct	stimulusnumber1	stimulusitem1	stimulusonset1	stimulusnumber2	stimulusitem2	stimulusonset2	stimulusnumber3	stimulusitem3	stimulusonset3	stimulusnumber4	stimulusitem4	stimulusonset4	stimulusnumber5	stimulusitem5	stimulusonset5	stimulusnumber6	stimulusitem6	stimulusonset6	stimulusnumber7	stimulusitem7	stimulusonset7	stimulusnumber8	stimulusitem8	stimulusonset8	stimulusnumber9	stimulusitem9	stimulusonset9	stimulusnumber10	stimulusitem10	stimulusonset10	stimulusnumber11	stimulusitem11	stimulusonset11	stimulusnumber12	stimulusitem12	stimulusonset12	stimulusnumber13	stimulusitem13	stimulusonset13	stimulusnumber14	stimulusitem14	stimulusonset14	stimulusnumber15	stimulusitem15	stimulusonset15	stimulusnumber16	stimulusitem16	stimulusonset16	stimulusnumber17	stimulusitem17	stimulusonset17	stimulusnumber18	stimulusitem18	stimulusonset18
072219	13:42:48	13:44:01	72409	5.0.10.0	5_exp_noRW	72	Rpleas_acq	CS_A	LWWL	DXXD	ZHHZ	CPPC	YFFY	JQQJ	küssen	gütig	träumen	vertrauen	genießen	sonnig	krank	gierig	töten	versagen	gemein	sterben	53pct	acq_USpleas_CSpleas1_noRW	acq1_noRW	1	1	0	0	300	300	2000	0	0	0	1	blank2r.bmp	0	1	+	0	1	blank2r.bmp	252	1	LWWL	306	2	gütig	559	1	FEHLER	2598	1	Schneller!	2598	0	0	0	0	0	0	0	0	0	0	0	0	0	0	0	0	0	0	0	0	0	0	0	0	0	0	0	0	0	0	0	0	0
072219	13:42:48	13:44:03	74022	5.0.10.0	5_exp_noRW	72	Rpleas_acq	CS_A	LWWL	DXXD	ZHHZ	CPPC	YFFY	JQQJ	küssen	gütig	träumen	vertrauen	genießen	sonnig	krank	gierig	töten	versagen	gemein	sterben	47pct	acq_USpleas_CSpleas1_noRW	acq1_noRW	1	2	0	0	300	300	713	50	0	1	1	blank2r.bmp	0	1	+	0	1	blank2r.bmp	252	1	LWWL	306	3	träumen	559	0	0	0	0	0	0	0	0	0	0	0	0	0	0	0	0	0	0	0	0	0	0	0	0	0	0	0	0	0	0	0	0	0	0	0	0	0	0	0
072219	13:42:48	13:44:05	75928	5.0.10.0	5_exp_noRW	72	Rpleas_acq	CS_A	LWWL	DXXD	ZHHZ	CPPC	YFFY	JQQJ	küssen	gütig	träumen	vertrauen	genießen	sonnig	krank	gierig	töten	versagen	gemein	sterben	47pct	acq_USpleas_CSpleas2_noRW	acq1_noRW	1	3	0	0	300	300	721	50	0	1	1	blank2r.bmp	0	1	+	0	1	blank2r.bmp	252	1	DXXD	306	3	sonnig	559	0	0	0	0	0	0	0	0	0	0	0	0	0	0	0	0	0	0	0	0	0	0	0	0	0	0	0	0	0	0	0	0	0	0	0	0	0	0	0
072219	13:42:48	13:44:07	77700	5.0.10.0	5_exp_noRW	72	Rpleas_acq	CS_A	LWWL	DXXD	ZHHZ	CPPC	YFFY	JQQJ	küssen	gütig	träumen	vertrauen	genießen	sonnig	krank	gierig	töten	versagen	gemein	sterben	47pct	acq_USunple_CSunple1_noRW	acq1_noRW	1	4	0	0	300	300	594	46	0	1	1	blank2r.bmp	0	1	+	0	1	blank2r.bmp	252	1	ZHHZ	306	2	gierig	559	0	0	0	0	0	0	0	0	0	0	0	0	0	0	0	0	0	0	0	0	0	0	0	0	0	0	0	0	0	0	0	0	0	0	0	0	0	0	0
072219	13:42:48	13:44:08	79473	5.0.10.0	5_exp_noRW	72	Rpleas_acq	CS_A	LWWL	DXXD	ZHHZ	CPPC	YFFY	JQQJ	küssen	gütig	träumen	vertrauen	genießen	sonnig	krank	gierig	töten	versagen	gemein	sterben	53pct	acq_USunple_CSunple2_noRW	acq1_noRW	1	5	0	0	300	300	597	46	0	1	1	blank2r.bmp	0	1	+	0	1	blank2r.bmp	252	1	CPPC	306	3	sterben	559	0	0	0	0	0	0	0	0	0	0	0	0	0	0	0	0	0	0	0	0	0	0	0	0	0	0	0	0	0	0	0	0	0	0	0	0	0	0	0
072219	13:42:48	13:44:10	81059	5.0.10.0	5_exp_noRW	72	Rpleas_acq	CS_A	LWWL	DXXD	ZHHZ	CPPC	YFFY	JQQJ	küssen	gütig	träumen	vertrauen	genießen	sonnig	krank	gierig	töten	versagen	gemein	sterben	47pct	acq_USunple_CSunple2_noRW	acq1_noRW	1	6	0	0	300	300	401	46	0	1	1	blank2r.bmp	0	1	+	0	1	blank2r.bmp	252	1	CPPC	306	2	gemein	559	0	0	0	0	0	0	0	0	0	0	0	0	0	0	0	0	0	0	0	0	0	0	0	0	0	0	0	0	0	0	0	0	0	0	0	0	0	0	0
072219	13:42:48	13:44:12	82845	5.0.10.0	5_exp_noRW	72	Rpleas_acq	CS_A	LWWL	DXXD	ZHHZ	CPPC	YFFY	JQQJ	küssen	gütig	träumen	vertrauen	genießen	sonnig	krank	gierig	töten	versagen	gemein	sterben	47pct	acq_USpleas_CSunple1_noRW	acq1_noRW	1	7	0	0	300	300	391	46	0	0	1	blank2r.bmp	0	1	+	0	1	blank2r.bmp	252	1	ZHHZ	306	2	gütig	559	1	FEHLER	986	0	0	0	0	0	0	0	0	0	0	0	0	0	0	0	0	0	0	0	0	0	0	0	0	0	0	0	0	0	0	0	0	0	0	0	0
072219	13:42:48	13:44:13	84244	5.0.10.0	5_exp_noRW	72	Rpleas_acq	CS_A	LWWL	DXXD	ZHHZ	CPPC	YFFY	JQQJ	küssen	gütig	träumen	vertrauen	genießen	sonnig	krank	gierig	töten	versagen	gemein	sterben	47pct	acq_USpleas_CSpleas1_noRW	acq1_noRW	1	8	0	0	300	300	427	50	0	1	1	blank2r.bmp	0	1	+	0	1	blank2r.bmp	252	1	LWWL	306	1	küssen	559	0	0	0	0	0	0	0	0	0	0	0	0	0	0	0	0	0	0	0	0	0	0	0	0	0	0	0	0	0	0	0	0	0	0	0	0	0	0	0
072219	13:42:48	13:44:15	85897	5.0.10.0	5_exp_noRW	72	Rpleas_acq	CS_A	LWWL	DXXD	ZHHZ	CPPC	YFFY	JQQJ	küssen	gütig	träumen	vertrauen	genießen	sonnig	krank	gierig	töten	versagen	gemein	sterben	47pct	acq_USunple_CSunple2_noRW	acq1_noRW	1	9	0	0	300	300	485	46	0	1	1	blank2r.bmp	0	1	+	0	1	blank2r.bmp	252	1	CPPC	306	1	versagen	559	0	0	0	0	0	0	0	0	0	0	0	0	0	0	0	0	0	0	0	0	0	0	0	0	0	0	0	0	0	0	0	0	0	0	0	0	0	0	0
072219	13:42:48	13:44:16	87563	5.0.10.0	5_exp_noRW	72	Rpleas_acq	CS_A	LWWL	DXXD	ZHHZ	CPPC	YFFY	JQQJ	küssen	gütig	träumen	vertrauen	genießen	sonnig	krank	gierig	töten	versagen	gemein	sterben	53pct	acq_USunple_CSunple2_noRW	acq1_noRW	1	10	0	0	300	300	501	46	0	1	1	blank2r.bmp	0	1	+	0	1	blank2r.bmp	252	1	CPPC	306	3	sterben	559	0	0	0	0	0	0	0	0	0	0	0	0	0	0	0	0	0	0	0	0	0	0	0	0	0	0	0	0	0	0	0	0	0	0	0	0	0	0	0
072219	13:42:48	13:44:18	89149	5.0.10.0	5_exp_noRW	72	Rpleas_acq	CS_A	LWWL	DXXD	ZHHZ	CPPC	YFFY	JQQJ	küssen	gütig	träumen	vertrauen	genießen	sonnig	krank	gierig	töten	versagen	gemein	sterben	53pct	acq_USunple_CSunple1_noRW	acq1_noRW	1	11	0	0	300	300	400	46	0	1	1	blank2r.bmp	0	1	+	0	1	blank2r.bmp	252	1	ZHHZ	306	3	töten	559	0	0	0	0	0	0	0	0	0	0	0	0	0	0	0	0	0	0	0	0	0	0	0	0	0	0	0	0	0	0	0	0	0	0	0	0	0	0	0
072219	13:42:48	13:44:20	90655	5.0.10.0	5_exp_noRW	72	Rpleas_acq	CS_A	LWWL	DXXD	ZHHZ	CPPC	YFFY	JQQJ	küssen	gütig	träumen	vertrauen	genießen	sonnig	krank	gierig	töten	versagen	gemein	sterben	53pct	acq_USunple_CSpleas2_noRW	acq1_noRW	1	12	0	0	300	300	337	46	0	1	1	blank2r.bmp	0	1	+	0	1	blank2r.bmp	252	1	DXXD	306	2	gemein	559	0	0	0	0	0	0	0	0	0	0	0	0	0	0	0	0	0	0	0	0	0	0	0	0	0	0	0	0	0	0	0	0	0	0	0	0	0	0	0
072219	13:42:48	13:44:21	92374	5.0.10.0	5_exp_noRW	72	Rpleas_acq	CS_A	LWWL	DXXD	ZHHZ	CPPC	YFFY	JQQJ	küssen	gütig	träumen	vertrauen	genießen	sonnig	krank	gierig	töten	versagen	gemein	sterben	53pct	acq_USpleas_CSpleas2_noRW	acq1_noRW	1	13	0	0	300	300	548	50	0	1	1	blank2r.bmp	0	1	+	0	1	blank2r.bmp	252	1	DXXD	306	2	genießen	559	0	0	0	0	0	0	0	0	0	0	0	0	0	0	0	0	0	0	0	0	0	0	0	0	0	0	0	0	0	0	0	0	0	0	0	0	0	0	0
072219	13:42:48	13:44:23	94080	5.0.10.0	5_exp_noRW	72	Rpleas_acq	CS_A	LWWL	DXXD	ZHHZ	CPPC	YFFY	JQQJ	küssen	gütig	träumen	vertrauen	genießen	sonnig	krank	gierig	töten	versagen	gemein	sterben	47pct	acq_USunple_CSunple1_noRW	acq1_noRW	1	14	0	0	300	300	544	46	0	1	1	blank2r.bmp	0	1	+	0	1	blank2r.bmp	252	1	ZHHZ	306	1	krank	559	0	0	0	0	0	0	0	0	0	0	0	0	0	0	0	0	0	0	0	0	0	0	0	0	0	0	0	0	0	0	0	0	0	0	0	0	0	0	0
072219	13:42:48	13:44:25	95666	5.0.10.0	5_exp_noRW	72	Rpleas_acq	CS_A	LWWL	DXXD	ZHHZ	CPPC	YFFY	JQQJ	küssen	gütig	träumen	vertrauen	genießen	sonnig	krank	gierig	töten	versagen	gemein	sterben	53pct	acq_USpleas_CSpleas1_noRW	acq1_noRW	1	15	0	0	300	300	408	50	0	1	1	blank2r.bmp	0	1	+	0	1	blank2r.bmp	252	1	LWWL	306	3	träumen	559	0	0	0	0	0	0	0	0	0	0	0	0	0	0	0	0	0	0	0	0	0	0	0	0	0	0	0	0	0	0	0	0	0	0	0	0	0	0	0
072219	13:42:48	13:44:26	97412	5.0.10.0	5_exp_noRW	72	Rpleas_acq	CS_A	LWWL	DXXD	ZHHZ	CPPC	YFFY	JQQJ	küssen	gütig	träumen	vertrauen	genießen	sonnig	krank	gierig	töten	versagen	gemein	sterben	53pct	acq_USpleas_CSpleas2_noRW	acq1_noRW	1	16	0	0	300	300	567	50	0	1	1	blank2r.bmp	0	1	+	0	1	blank2r.bmp	252	1	DXXD	306	1	vertrauen	559	0	0	0	0	0	0	0	0	0	0	0	0	0	0	0	0	0	0	0	0	0	0	0	0	0	0	0	0	0	0	0	0	0	0	0	0	0	0	0
072219	13:42:48	13:44:28	99011	5.0.10.0	5_exp_noRW	72	Rpleas_acq	CS_A	LWWL	DXXD	ZHHZ	CPPC	YFFY	JQQJ	küssen	gütig	träumen	vertrauen	genießen	sonnig	krank	gierig	töten	versagen	gemein	sterben	47pct	acq_USpleas_CSunple2_noRW	acq1_noRW	1	17	0	0	300	300	428	50	0	1	1	blank2r.bmp	0	1	+	0	1	blank2r.bmp	252	1	CPPC	306	2	genießen	559	0	0	0	0	0	0	0	0	0	0	0	0	0	0	0	0	0	0	0	0	0	0	0	0	0	0	0	0	0	0	0	0	0	0	0	0	0	0	0
072219	13:42:48	13:44:29	100544	5.0.10.0	5_exp_noRW	72	Rpleas_acq	CS_A	LWWL	DXXD	ZHHZ	CPPC	YFFY	JQQJ	küssen	gütig	träumen	vertrauen	genießen	sonnig	krank	gierig	töten	versagen	gemein	sterben	53pct	acq_USpleas_CSpleas2_noRW	acq1_noRW	1	18	0	0	300	300	358	50	0	1	1	blank2r.bmp	0	1	+	0	1	blank2r.bmp	252	1	DXXD	306	2	genießen	559	0	0	0	0	0	0	0	0	0	0	0	0	0	0	0	0	0	0	0	0	0	0	0	0	0	0	0	0	0	0	0	0	0	0	0	0	0	0	0
072219	13:42:48	13:44:31	102117	5.0.10.0	5_exp_noRW	72	Rpleas_acq	CS_A	LWWL	DXXD	ZHHZ	CPPC	YFFY	JQQJ	küssen	gütig	träumen	vertrauen	genießen	sonnig	krank	gierig	töten	versagen	gemein	sterben	47pct	acq_USunple_CSunple1_noRW	acq1_noRW	1	19	0	0	300	300	393	46	0	1	1	blank2r.bmp	0	1	+	0	1	blank2r.bmp	252	1	ZHHZ	306	1	krank	559	0	0	0	0	0	0	0	0	0	0	0	0	0	0	0	0	0	0	0	0	0	0	0	0	0	0	0	0	0	0	0	0	0	0	0	0	0	0	0
072219	13:42:48	13:44:33	103703	5.0.10.0	5_exp_noRW	72	Rpleas_acq	CS_A	LWWL	DXXD	ZHHZ	CPPC	YFFY	JQQJ	küssen	gütig	träumen	vertrauen	genießen	sonnig	krank	gierig	töten	versagen	gemein	sterben	47pct	acq_USunple_CSpleas1_noRW	acq1_noRW	1	20	0	0	300	300	401	46	0	1	1	blank2r.bmp	0	1	+	0	1	blank2r.bmp	252	1	LWWL	306	3	töten	559	0	0	0	0	0	0	0	0	0	0	0	0	0	0	0	0	0	0	0	0	0	0	0	0	0	0	0	0	0	0	0	0	0	0	0	0	0	0	0
072219	13:42:48	13:44:34	105449	5.0.10.0	5_exp_noRW	72	Rpleas_acq	CS_A	LWWL	DXXD	ZHHZ	CPPC	YFFY	JQQJ	küssen	gütig	träumen	vertrauen	genießen	sonnig	krank	gierig	töten	versagen	gemein	sterben	47pct	acq_USunple_CSpleas2_noRW	acq1_noRW	1	21	0	0	300	300	359	50	0	0	1	blank2r.bmp	0	1	+	0	1	blank2r.bmp	252	1	DXXD	306	3	sterben	559	1	FEHLER	959	0	0	0	0	0	0	0	0	0	0	0	0	0	0	0	0	0	0	0	0	0	0	0	0	0	0	0	0	0	0	0	0	0	0	0	0
072219	13:42:48	13:44:36	106981	5.0.10.0	5_exp_noRW	72	Rpleas_acq	CS_A	LWWL	DXXD	ZHHZ	CPPC	YFFY	JQQJ	küssen	gütig	träumen	vertrauen	genießen	sonnig	krank	gierig	töten	versagen	gemein	sterben	47pct	acq_USpleas_CSpleas2_noRW	acq1_noRW	1	22	0	0	300	300	583	50	0	1	1	blank2r.bmp	0	1	+	0	1	blank2r.bmp	252	1	DXXD	306	3	sonnig	559	0	0	0	0	0	0	0	0	0	0	0	0	0	0	0	0	0	0	0	0	0	0	0	0	0	0	0	0	0	0	0	0	0	0	0	0	0	0	0
072219	13:42:48	13:44:37	108634	5.0.10.0	5_exp_noRW	72	Rpleas_acq	CS_A	LWWL	DXXD	ZHHZ	CPPC	YFFY	JQQJ	küssen	gütig	träumen	vertrauen	genießen	sonnig	krank	gierig	töten	versagen	gemein	sterben	47pct	acq_USpleas_CSunple1_noRW	acq1_noRW	1	23	0	0	300	300	475	50	0	1	1	blank2r.bmp	0	1	+	0	1	blank2r.bmp	252	1	ZHHZ	306	3	träumen	559	0	0	0	0	0	0	0	0	0	0	0	0	0	0	0	0	0	0	0	0	0	0	0	0	0	0	0	0	0	0	0	0	0	0	0	0	0	0	0
072219	13:42:48	13:44:39	110220	5.0.10.0	5_exp_noRW	72	Rpleas_acq	CS_A	LWWL	DXXD	ZHHZ	CPPC	YFFY	JQQJ	küssen	gütig	träumen	vertrauen	genießen	sonnig	krank	gierig	töten	versagen	gemein	sterben	53pct	acq_USpleas_CSpleas2_noRW	acq1_noRW	1	24	0	0	300	300	410	50	0	1	1	blank2r.bmp	0	1	+	0	1	blank2r.bmp	252	1	DXXD	306	1	vertrauen	559	0	0	0	0	0	0	0	0	0	0	0	0	0	0	0	0	0	0	0	0	0	0	0	0	0	0	0	0	0	0	0	0	0	0	0	0	0	0	0
072219	13:42:48	13:44:41	111806	5.0.10.0	5_exp_noRW	72	Rpleas_acq	CS_A	LWWL	DXXD	ZHHZ	CPPC	YFFY	JQQJ	küssen	gütig	träumen	vertrauen	genießen	sonnig	krank	gierig	töten	versagen	gemein	sterben	53pct	acq_USunple_CSunple2_noRW	acq1_noRW	1	25	0	0	300	300	405	46	0	1	1	blank2r.bmp	0	1	+	0	1	blank2r.bmp	252	1	CPPC	306	2	gemein	559	0	0	0	0	0	0	0	0	0	0	0	0	0	0	0	0	0	0	0	0	0	0	0	0	0	0	0	0	0	0	0	0	0	0	0	0	0	0	0
072219	13:42:48	13:44:42	113419	5.0.10.0	5_exp_noRW	72	Rpleas_acq	CS_A	LWWL	DXXD	ZHHZ	CPPC	YFFY	JQQJ	küssen	gütig	träumen	vertrauen	genießen	sonnig	krank	gierig	töten	versagen	gemein	sterben	47pct	acq_USpleas_CSpleas1_noRW	acq1_noRW	1	26	0	0	300	300	425	50	0	1	1	blank2r.bmp	0	1	+	0	1	blank2r.bmp	252	1	LWWL	306	1	küssen	559	0	0	0	0	0	0	0	0	0	0	0	0	0	0	0	0	0	0	0	0	0	0	0	0	0	0	0	0	0	0	0	0	0	0	0	0	0	0	0
072219	13:42:48	13:44:44	115164	5.0.10.0	5_exp_noRW	72	Rpleas_acq	CS_A	LWWL	DXXD	ZHHZ	CPPC	YFFY	JQQJ	küssen	gütig	träumen	vertrauen	genießen	sonnig	krank	gierig	töten	versagen	gemein	sterben	53pct	acq_USunple_CSunple2_noRW	acq1_noRW	1	27	0	0	300	300	380	50	0	0	1	blank2r.bmp	0	1	+	0	1	blank2r.bmp	252	1	CPPC	306	1	versagen	559	1	FEHLER	972	0	0	0	0	0	0	0	0	0	0	0	0	0	0	0	0	0	0	0	0	0	0	0	0	0	0	0	0	0	0	0	0	0	0	0	0
072219	13:42:48	13:44:45	116644	5.0.10.0	5_exp_noRW	72	Rpleas_acq	CS_A	LWWL	DXXD	ZHHZ	CPPC	YFFY	JQQJ	küssen	gütig	träumen	vertrauen	genießen	sonnig	krank	gierig	töten	versagen	gemein	sterben	53pct	acq_USunple_CSunple1_noRW	acq1_noRW	1	28	0	0	300	300	500	46	0	1	1	blank2r.bmp	0	1	+	0	1	blank2r.bmp	252	1	ZHHZ	306	2	gierig	559	0	0	0	0	0	0	0	0	0	0	0	0	0	0	0	0	0	0	0	0	0	0	0	0	0	0	0	0	0	0	0	0	0	0	0	0	0	0	0
072219	13:42:48	13:44:47	118296	5.0.10.0	5_exp_noRW	72	Rpleas_acq	CS_A	LWWL	DXXD	ZHHZ	CPPC	YFFY	JQQJ	küssen	gütig	träumen	vertrauen	genießen	sonnig	krank	gierig	töten	versagen	gemein	sterben	53pct	acq_USpleas_CSpleas2_noRW	acq1_noRW	1	29	0	0	300	300	488	50	0	1	1	blank2r.bmp	0	1	+	0	1	blank2r.bmp	252	1	DXXD	306	1	vertrauen	559	0	0	0	0	0	0	0	0	0	0	0	0	0	0	0	0	0	0	0	0	0	0	0	0	0	0	0	0	0	0	0	0	0	0	0	0	0	0	0
072219	13:42:48	13:44:49	120069	5.0.10.0	5_exp_noRW	72	Rpleas_acq	CS_A	LWWL	DXXD	ZHHZ	CPPC	YFFY	JQQJ	küssen	gütig	träumen	vertrauen	genießen	sonnig	krank	gierig	töten	versagen	gemein	sterben	53pct	acq_USpleas_CSunple2_noRW	acq1_noRW	1	30	0	0	300	300	375	46	0	0	1	blank2r.bmp	0	1	+	0	1	blank2r.bmp	252	1	CPPC	306	1	vertrauen	559	1	FEHLER	972	0	0	0	0	0	0	0	0	0	0	0	0	0	0	0	0	0	0	0	0	0	0	0	0	0	0	0	0	0	0	0	0	0	0	0	0
072219	13:42:48	13:44:50	121588	5.0.10.0	5_exp_noRW	72	Rpleas_acq	CS_A	LWWL	DXXD	ZHHZ	CPPC	YFFY	JQQJ	küssen	gütig	träumen	vertrauen	genießen	sonnig	krank	gierig	töten	versagen	gemein	sterben	53pct	acq_USpleas_CSpleas1_noRW	acq1_noRW	1	31	0	0	300	300	551	50	0	1	1	blank2r.bmp	0	1	+	0	1	blank2r.bmp	252	1	LWWL	306	2	gütig	559	0	0	0	0	0	0	0	0	0	0	0	0	0	0	0	0	0	0	0	0	0	0	0	0	0	0	0	0	0	0	0	0	0	0	0	0	0	0	0
072219	13:42:48	13:44:52	123214	5.0.10.0	5_exp_noRW	72	Rpleas_acq	CS_A	LWWL	DXXD	ZHHZ	CPPC	YFFY	JQQJ	küssen	gütig	träumen	vertrauen	genießen	sonnig	krank	gierig	töten	versagen	gemein	sterben	47pct	acq_USpleas_CSpleas2_noRW	acq1_noRW	1	32	0	0	300	300	439	50	0	1	1	blank2r.bmp	0	1	+	0	1	blank2r.bmp	252	1	DXXD	306	3	sonnig	559	0	0	0	0	0	0	0	0	0	0	0	0	0	0	0	0	0	0	0	0	0	0	0	0	0	0	0	0	0	0	0	0	0	0	0	0	0	0	0
072219	13:42:48	13:44:54	124907	5.0.10.0	5_exp_noRW	72	Rpleas_acq	CS_A	LWWL	DXXD	ZHHZ	CPPC	YFFY	JQQJ	küssen	gütig	träumen	vertrauen	genießen	sonnig	krank	gierig	töten	versagen	gemein	sterben	47pct	acq_USpleas_CSpleas1_noRW	acq1_noRW	1	33	0	0	300	300	528	50	0	1	1	blank2r.bmp	0	1	+	0	1	blank2r.bmp	252	1	LWWL	306	3	träumen	559	0	0	0	0	0	0	0	0	0	0	0	0	0	0	0	0	0	0	0	0	0	0	0	0	0	0	0	0	0	0	0	0	0	0	0	0	0	0	0
072219	13:42:48	13:44:55	126533	5.0.10.0	5_exp_noRW	72	Rpleas_acq	CS_A	LWWL	DXXD	ZHHZ	CPPC	YFFY	JQQJ	küssen	gütig	träumen	vertrauen	genießen	sonnig	krank	gierig	töten	versagen	gemein	sterben	53pct	acq_USunple_CSunple2_noRW	acq1_noRW	1	34	0	0	300	300	444	46	0	1	1	blank2r.bmp	0	1	+	0	1	blank2r.bmp	252	1	CPPC	306	3	sterben	559	0	0	0	0	0	0	0	0	0	0	0	0	0	0	0	0	0	0	0	0	0	0	0	0	0	0	0	0	0	0	0	0	0	0	0	0	0	0	0
072219	13:42:48	13:44:57	128132	5.0.10.0	5_exp_noRW	72	Rpleas_acq	CS_A	LWWL	DXXD	ZHHZ	CPPC	YFFY	JQQJ	küssen	gütig	träumen	vertrauen	genießen	sonnig	krank	gierig	töten	versagen	gemein	sterben	47pct	acq_USunple_CSpleas1_noRW	acq1_noRW	1	35	0	0	300	300	418	46	0	1	1	blank2r.bmp	0	1	+	0	1	blank2r.bmp	252	1	LWWL	306	1	krank	559	0	0	0	0	0	0	0	0	0	0	0	0	0	0	0	0	0	0	0	0	0	0	0	0	0	0	0	0	0	0	0	0	0	0	0	0	0	0	0
072219	13:42:48	13:44:59	130172	5.0.10.0	5_exp_noRW	72	Rpleas_acq	CS_A	LWWL	DXXD	ZHHZ	CPPC	YFFY	JQQJ	küssen	gütig	träumen	vertrauen	genießen	sonnig	krank	gierig	töten	versagen	gemein	sterben	47pct	acq_USpleas_CSpleas1_noRW	acq1_noRW	1	36	0	0	300	300	872	50	0	1	1	blank2r.bmp	0	1	+	0	1	blank2r.bmp	252	1	LWWL	306	1	küssen	559	0	0	0	0	0	0	0	0	0	0	0	0	0	0	0	0	0	0	0	0	0	0	0	0	0	0	0	0	0	0	0	0	0	0	0	0	0	0	0
072219	13:42:48	13:45:01	131904	5.0.10.0	5_exp_noRW	72	Rpleas_acq	CS_A	LWWL	DXXD	ZHHZ	CPPC	YFFY	JQQJ	küssen	gütig	träumen	vertrauen	genießen	sonnig	krank	gierig	töten	versagen	gemein	sterben	47pct	acq_USunple_CSunple2_noRW	acq1_noRW	1	37	0	0	300	300	567	46	0	1	1	blank2r.bmp	0	1	+	0	1	blank2r.bmp	252	1	CPPC	306	1	versagen	559	0	0	0	0	0	0	0	0	0	0	0	0	0	0	0	0	0	0	0	0	0	0	0	0	0	0	0	0	0	0	0	0	0	0	0	0	0	0	0
072219	13:42:48	13:45:02	133463	5.0.10.0	5_exp_noRW	72	Rpleas_acq	CS_A	LWWL	DXXD	ZHHZ	CPPC	YFFY	JQQJ	küssen	gütig	träumen	vertrauen	genießen	sonnig	krank	gierig	töten	versagen	gemein	sterben	47pct	acq_USunple_CSunple1_noRW	acq1_noRW	1	38	0	0	300	300	398	46	0	1	1	blank2r.bmp	0	1	+	0	1	blank2r.bmp	252	1	ZHHZ	306	3	töten	559	0	0	0	0	0	0	0	0	0	0	0	0	0	0	0	0	0	0	0	0	0	0	0	0	0	0	0	0	0	0	0	0	0	0	0	0	0	0	0
072219	13:42:48	13:45:04	135076	5.0.10.0	5_exp_noRW	72	Rpleas_acq	CS_A	LWWL	DXXD	ZHHZ	CPPC	YFFY	JQQJ	küssen	gütig	träumen	vertrauen	genießen	sonnig	krank	gierig	töten	versagen	gemein	sterben	47pct	acq_USunple_CSunple1_noRW	acq1_noRW	1	39	0	0	300	300	427	46	0	1	1	blank2r.bmp	0	1	+	0	1	blank2r.bmp	252	1	ZHHZ	306	3	töten	559	0	0	0	0	0	0	0	0	0	0	0	0	0	0	0	0	0	0	0	0	0	0	0	0	0	0	0	0	0	0	0	0	0	0	0	0	0	0	0
072219	13:42:48	13:45:05	136609	5.0.10.0	5_exp_noRW	72	Rpleas_acq	CS_A	LWWL	DXXD	ZHHZ	CPPC	YFFY	JQQJ	küssen	gütig	träumen	vertrauen	genießen	sonnig	krank	gierig	töten	versagen	gemein	sterben	47pct	acq_USunple_CSunple1_noRW	acq1_noRW	1	40	0	0	300	300	360	46	0	1	1	blank2r.bmp	0	1	+	0	1	blank2r.bmp	252	1	ZHHZ	306	1	krank	559	0	0	0	0	0	0	0	0	0	0	0	0	0	0	0	0	0	0	0	0	0	0	0	0	0	0	0	0	0	0	0	0	0	0	0	0	0	0	0
072219	13:42:48	13:45:07	138248	5.0.10.0	5_exp_noRW	72	Rpleas_acq	CS_A	LWWL	DXXD	ZHHZ	CPPC	YFFY	JQQJ	küssen	gütig	träumen	vertrauen	genießen	sonnig	krank	gierig	töten	versagen	gemein	sterben	47pct	acq_USpleas_CSpleas1_noRW	acq1_noRW	1	41	0	0	300	300	462	50	0	1	1	blank2r.bmp	0	1	+	0	1	blank2r.bmp	252	1	LWWL	306	2	gütig	559	0	0	0	0	0	0	0	0	0	0	0	0	0	0	0	0	0	0	0	0	0	0	0	0	0	0	0	0	0	0	0	0	0	0	0	0	0	0	0
072219	13:42:48	13:45:09	139927	5.0.10.0	5_exp_noRW	72	Rpleas_acq	CS_A	LWWL	DXXD	ZHHZ	CPPC	YFFY	JQQJ	küssen	gütig	träumen	vertrauen	genießen	sonnig	krank	gierig	töten	versagen	gemein	sterben	53pct	acq_USunple_CSunple1_noRW	acq1_noRW	1	42	0	0	300	300	496	46	0	1	1	blank2r.bmp	0	1	+	0	1	blank2r.bmp	252	1	ZHHZ	306	2	gierig	559	0	0	0	0	0	0	0	0	0	0	0	0	0	0	0	0	0	0	0	0	0	0	0	0	0	0	0	0	0	0	0	0	0	0	0	0	0	0	0
072219	13:42:48	13:45:10	141500	5.0.10.0	5_exp_noRW	72	Rpleas_acq	CS_A	LWWL	DXXD	ZHHZ	CPPC	YFFY	JQQJ	küssen	gütig	träumen	vertrauen	genießen	sonnig	krank	gierig	töten	versagen	gemein	sterben	47pct	acq_USunple_CSunple2_noRW	acq1_noRW	1	43	0	0	300	300	387	46	0	1	1	blank2r.bmp	0	1	+	0	1	blank2r.bmp	252	1	CPPC	306	2	gemein	559	0	0	0	0	0	0	0	0	0	0	0	0	0	0	0	0	0	0	0	0	0	0	0	0	0	0	0	0	0	0	0	0	0	0	0	0	0	0	0
072219	13:42:48	13:45:12	143059	5.0.10.0	5_exp_noRW	72	Rpleas_acq	CS_A	LWWL	DXXD	ZHHZ	CPPC	YFFY	JQQJ	küssen	gütig	träumen	vertrauen	genießen	sonnig	krank	gierig	töten	versagen	gemein	sterben	47pct	acq_USpleas_CSpleas2_noRW	acq1_noRW	1	44	0	0	300	300	385	50	0	1	1	blank2r.bmp	0	1	+	0	1	blank2r.bmp	252	1	DXXD	306	2	genießen	559	0	0	0	0	0	0	0	0	0	0	0	0	0	0	0	0	0	0	0	0	0	0	0	0	0	0	0	0	0	0	0	0	0	0	0	0	0	0	0
072219	13:42:48	13:45:14	144845	5.0.10.0	5_exp_noRW	72	Rpleas_acq	CS_A	LWWL	DXXD	ZHHZ	CPPC	YFFY	JQQJ	küssen	gütig	träumen	vertrauen	genießen	sonnig	krank	gierig	töten	versagen	gemein	sterben	53pct	acq_USpleas_CSpleas1_noRW	acq1_noRW	1	45	0	0	300	300	409	46	0	0	1	blank2r.bmp	0	1	+	0	1	blank2r.bmp	252	1	LWWL	306	2	gütig	559	1	FEHLER	999	0	0	0	0	0	0	0	0	0	0	0	0	0	0	0	0	0	0	0	0	0	0	0	0	0	0	0	0	0	0	0	0	0	0	0	0
072219	13:42:48	13:45:15	146258	5.0.10.0	5_exp_noRW	72	Rpleas_acq	CS_A	LWWL	DXXD	ZHHZ	CPPC	YFFY	JQQJ	küssen	gütig	träumen	vertrauen	genießen	sonnig	krank	gierig	töten	versagen	gemein	sterben	53pct	acq_USpleas_CSpleas2_noRW	acq1_noRW	1	46	0	0	300	300	441	50	0	1	1	blank2r.bmp	0	1	+	0	1	blank2r.bmp	252	1	DXXD	306	2	genießen	559	0	0	0	0	0	0	0	0	0	0	0	0	0	0	0	0	0	0	0	0	0	0	0	0	0	0	0	0	0	0	0	0	0	0	0	0	0	0	0
072219	13:42:48	13:45:17	147924	5.0.10.0	5_exp_noRW	72	Rpleas_acq	CS_A	LWWL	DXXD	ZHHZ	CPPC	YFFY	JQQJ	küssen	gütig	träumen	vertrauen	genießen	sonnig	krank	gierig	töten	versagen	gemein	sterben	53pct	acq_USpleas_CSpleas1_noRW	acq1_noRW	1	47	0	0	300	300	492	50	0	1	1	blank2r.bmp	0	1	+	0	1	blank2r.bmp	252	1	LWWL	306	1	küssen	559	0	0	0	0	0	0	0	0	0	0	0	0	0	0	0	0	0	0	0	0	0	0	0	0	0	0	0	0	0	0	0	0	0	0	0	0	0	0	0
072219	13:42:48	13:45:18	149563	5.0.10.0	5_exp_noRW	72	Rpleas_acq	CS_A	LWWL	DXXD	ZHHZ	CPPC	YFFY	JQQJ	küssen	gütig	träumen	vertrauen	genießen	sonnig	krank	gierig	töten	versagen	gemein	sterben	53pct	acq_USpleas_CSpleas2_noRW	acq1_noRW	1	48	0	0	300	300	474	50	0	1	1	blank2r.bmp	0	1	+	0	1	blank2r.bmp	252	1	DXXD	306	3	sonnig	559	0	0	0	0	0	0	0	0	0	0	0	0	0	0	0	0	0	0	0	0	0	0	0	0	0	0	0	0	0	0	0	0	0	0	0	0	0	0	0
072219	13:42:48	13:45:21	151909	5.0.10.0	5_exp_noRW	72	Rpleas_acq	CS_A	LWWL	DXXD	ZHHZ	CPPC	YFFY	JQQJ	küssen	gütig	träumen	vertrauen	genießen	sonnig	krank	gierig	töten	versagen	gemein	sterben	47pct	acq_USunple_CSpleas2_noRW	acq1_noRW	1	49	0	0	300	300	1179	46	0	1	1	blank2r.bmp	0	1	+	0	1	blank2r.bmp	252	1	DXXD	306	1	versagen	559	0	0	0	0	0	0	0	0	0	0	0	0	0	0	0	0	0	0	0	0	0	0	0	0	0	0	0	0	0	0	0	0	0	0	0	0	0	0	0
072219	13:42:48	13:45:22	153522	5.0.10.0	5_exp_noRW	72	Rpleas_acq	CS_A	LWWL	DXXD	ZHHZ	CPPC	YFFY	JQQJ	küssen	gütig	träumen	vertrauen	genießen	sonnig	krank	gierig	töten	versagen	gemein	sterben	53pct	acq_USpleas_CSpleas1_noRW	acq1_noRW	1	50	0	0	300	300	436	50	0	1	1	blank2r.bmp	0	1	+	0	1	blank2r.bmp	252	1	LWWL	306	3	träumen	559	0	0	0	0	0	0	0	0	0	0	0	0	0	0	0	0	0	0	0	0	0	0	0	0	0	0	0	0	0	0	0	0	0	0	0	0	0	0	0
072219	13:42:48	13:45:24	155161	5.0.10.0	5_exp_noRW	72	Rpleas_acq	CS_A	LWWL	DXXD	ZHHZ	CPPC	YFFY	JQQJ	küssen	gütig	träumen	vertrauen	genießen	sonnig	krank	gierig	töten	versagen	gemein	sterben	47pct	acq_USunple_CSunple1_noRW	acq1_noRW	1	51	0	0	300	300	468	46	0	1	1	blank2r.bmp	0	1	+	0	1	blank2r.bmp	252	1	ZHHZ	306	2	gierig	559	0	0	0	0	0	0	0	0	0	0	0	0	0	0	0	0	0	0	0	0	0	0	0	0	0	0	0	0	0	0	0	0	0	0	0	0	0	0	0
072219	13:42:48	13:45:26	157014	5.0.10.0	5_exp_noRW	72	Rpleas_acq	CS_A	LWWL	DXXD	ZHHZ	CPPC	YFFY	JQQJ	küssen	gütig	träumen	vertrauen	genießen	sonnig	krank	gierig	töten	versagen	gemein	sterben	53pct	acq_USpleas_CSpleas2_noRW	acq1_noRW	1	52	0	0	300	300	473	46	0	0	1	blank2r.bmp	0	1	+	0	1	blank2r.bmp	252	1	DXXD	306	1	vertrauen	559	1	FEHLER	1066	0	0	0	0	0	0	0	0	0	0	0	0	0	0	0	0	0	0	0	0	0	0	0	0	0	0	0	0	0	0	0	0	0	0	0	0
072219	13:42:48	13:45:27	158346	5.0.10.0	5_exp_noRW	72	Rpleas_acq	CS_A	LWWL	DXXD	ZHHZ	CPPC	YFFY	JQQJ	küssen	gütig	träumen	vertrauen	genießen	sonnig	krank	gierig	töten	versagen	gemein	sterben	47pct	acq_USunple_CSunple2_noRW	acq1_noRW	1	53	0	0	300	300	375	46	0	1	1	blank2r.bmp	0	1	+	0	1	blank2r.bmp	252	1	CPPC	306	2	gemein	559	0	0	0	0	0	0	0	0	0	0	0	0	0	0	0	0	0	0	0	0	0	0	0	0	0	0	0	0	0	0	0	0	0	0	0	0	0	0	0
072219	13:42:48	13:45:29	159986	5.0.10.0	5_exp_noRW	72	Rpleas_acq	CS_A	LWWL	DXXD	ZHHZ	CPPC	YFFY	JQQJ	küssen	gütig	träumen	vertrauen	genießen	sonnig	krank	gierig	töten	versagen	gemein	sterben	53pct	acq_USunple_CSunple2_noRW	acq1_noRW	1	54	0	0	300	300	469	46	0	1	1	blank2r.bmp	0	1	+	0	1	blank2r.bmp	252	1	CPPC	306	1	versagen	559	0	0	0	0	0	0	0	0	0	0	0	0	0	0	0	0	0	0	0	0	0	0	0	0	0	0	0	0	0	0	0	0	0	0	0	0	0	0	0
072219	13:42:48	13:45:30	161545	5.0.10.0	5_exp_noRW	72	Rpleas_acq	CS_A	LWWL	DXXD	ZHHZ	CPPC	YFFY	JQQJ	küssen	gütig	träumen	vertrauen	genießen	sonnig	krank	gierig	töten	versagen	gemein	sterben	47pct	acq_USpleas_CSunple1_noRW	acq1_noRW	1	55	0	0	300	300	387	50	0	1	1	blank2r.bmp	0	1	+	0	1	blank2r.bmp	252	1	ZHHZ	306	1	küssen	559	0	0	0	0	0	0	0	0	0	0	0	0	0	0	0	0	0	0	0	0	0	0	0	0	0	0	0	0	0	0	0	0	0	0	0	0	0	0	0
072219	13:42:48	13:45:32	163131	5.0.10.0	5_exp_noRW	72	Rpleas_acq	CS_A	LWWL	DXXD	ZHHZ	CPPC	YFFY	JQQJ	küssen	gütig	träumen	vertrauen	genießen	sonnig	krank	gierig	töten	versagen	gemein	sterben	47pct	acq_USunple_CSunple2_noRW	acq1_noRW	1	56	0	0	300	300	424	46	0	1	1	blank2r.bmp	0	1	+	0	1	blank2r.bmp	252	1	CPPC	306	3	sterben	559	0	0	0	0	0	0	0	0	0	0	0	0	0	0	0	0	0	0	0	0	0	0	0	0	0	0	0	0	0	0	0	0	0	0	0	0	0	0	0
072219	13:42:48	13:45:33	164637	5.0.10.0	5_exp_noRW	72	Rpleas_acq	CS_A	LWWL	DXXD	ZHHZ	CPPC	YFFY	JQQJ	küssen	gütig	träumen	vertrauen	genießen	sonnig	krank	gierig	töten	versagen	gemein	sterben	47pct	acq_USpleas_CSunple2_noRW	acq1_noRW	1	57	0	0	300	300	335	50	0	1	1	blank2r.bmp	0	1	+	0	1	blank2r.bmp	252	1	CPPC	306	3	sonnig	559	0	0	0	0	0	0	0	0	0	0	0	0	0	0	0	0	0	0	0	0	0	0	0	0	0	0	0	0	0	0	0	0	0	0	0	0	0	0	0
072219	13:42:48	13:45:35	166263	5.0.10.0	5_exp_noRW	72	Rpleas_acq	CS_A	LWWL	DXXD	ZHHZ	CPPC	YFFY	JQQJ	küssen	gütig	träumen	vertrauen	genießen	sonnig	krank	gierig	töten	versagen	gemein	sterben	53pct	acq_USunple_CSunple1_noRW	acq1_noRW	1	58	0	0	300	300	455	46	0	1	1	blank2r.bmp	0	1	+	0	1	blank2r.bmp	252	1	ZHHZ	306	1	krank	559	0	0	0	0	0	0	0	0	0	0	0	0	0	0	0	0	0	0	0	0	0	0	0	0	0	0	0	0	0	0	0	0	0	0	0	0	0	0	0
072219	13:42:48	13:45:37	167969	5.0.10.0	5_exp_noRW	72	Rpleas_acq	CS_A	LWWL	DXXD	ZHHZ	CPPC	YFFY	JQQJ	küssen	gütig	träumen	vertrauen	genießen	sonnig	krank	gierig	töten	versagen	gemein	sterben	47pct	acq_USunple_CSpleas1_noRW	acq1_noRW	1	59	0	0	300	300	528	46	0	1	1	blank2r.bmp	0	1	+	0	1	blank2r.bmp	252	1	LWWL	306	2	gierig	559	0	0	0	0	0	0	0	0	0	0	0	0	0	0	0	0	0	0	0	0	0	0	0	0	0	0	0	0	0	0	0	0	0	0	0	0	0	0	0
072219	13:42:48	13:45:38	169502	5.0.10.0	5_exp_noRW	72	Rpleas_acq	CS_A	LWWL	DXXD	ZHHZ	CPPC	YFFY	JQQJ	küssen	gütig	träumen	vertrauen	genießen	sonnig	krank	gierig	töten	versagen	gemein	sterben	47pct	acq_USunple_CSunple1_noRW	acq1_noRW	1	60	0	0	300	300	362	46	0	1	1	blank2r.bmp	0	1	+	0	1	blank2r.bmp	252	1	ZHHZ	306	3	töten	559	0	0	0	0	0	0	0	0	0	0	0	0	0	0	0	0	0	0	0	0	0	0	0	0	0	0	0	0	0	0	0	0	0	0	0	0	0	0	0
072219	13:42:48	13:45:40	170954	5.0.10.0	5_exp_noRW	72	Rpleas_acq	CS_A	LWWL	DXXD	ZHHZ	CPPC	YFFY	JQQJ	küssen	gütig	träumen	vertrauen	genießen	sonnig	krank	gierig	töten	versagen	gemein	sterben	47pct	acq_USunple_CSunple1_noRW	acq1_noRW	1	61	0	0	300	300	285	46	0	1	1	blank2r.bmp	0	1	+	0	1	blank2r.bmp	252	1	ZHHZ	306	3	töten	559	0	0	0	0	0	0	0	0	0	0	0	0	0	0	0	0	0	0	0	0	0	0	0	0	0	0	0	0	0	0	0	0	0	0	0	0	0	0	0
072219	13:42:48	13:45:41	172474	5.0.10.0	5_exp_noRW	72	Rpleas_acq	CS_A	LWWL	DXXD	ZHHZ	CPPC	YFFY	JQQJ	küssen	gütig	träumen	vertrauen	genießen	sonnig	krank	gierig	töten	versagen	gemein	sterben	53pct	acq_USpleas_CSpleas2_noRW	acq1_noRW	1	62	0	0	300	300	332	50	0	1	1	blank2r.bmp	0	1	+	0	1	blank2r.bmp	252	1	DXXD	306	2	genießen	559	0	0	0	0	0	0	0	0	0	0	0	0	0	0	0	0	0	0	0	0	0	0	0	0	0	0	0	0	0	0	0	0	0	0	0	0	0	0	0
072219	13:42:48	13:45:43	174020	5.0.10.0	5_exp_noRW	72	Rpleas_acq	CS_A	LWWL	DXXD	ZHHZ	CPPC	YFFY	JQQJ	küssen	gütig	träumen	vertrauen	genießen	sonnig	krank	gierig	töten	versagen	gemein	sterben	47pct	acq_USunple_CSunple2_noRW	acq1_noRW	1	63	0	0	300	300	360	46	0	1	1	blank2r.bmp	0	1	+	0	1	blank2r.bmp	252	1	CPPC	306	1	versagen	559	0	0	0	0	0	0	0	0	0	0	0	0	0	0	0	0	0	0	0	0	0	0	0	0	0	0	0	0	0	0	0	0	0	0	0	0	0	0	0
072219	13:42:48	13:45:44	175539	5.0.10.0	5_exp_noRW	72	Rpleas_acq	CS_A	LWWL	DXXD	ZHHZ	CPPC	YFFY	JQQJ	küssen	gütig	träumen	vertrauen	genießen	sonnig	krank	gierig	töten	versagen	gemein	sterben	47pct	acq_USpleas_CSpleas2_noRW	acq1_noRW	1	64	0	0	300	300	355	50	0	1	1	blank2r.bmp	0	1	+	0	1	blank2r.bmp	252	1	DXXD	306	3	sonnig	559	0	0	0	0	0	0	0	0	0	0	0	0	0	0	0	0	0	0	0	0	0	0	0	0	0	0	0	0	0	0	0	0	0	0	0	0	0	0	0
072219	13:42:48	13:45:46	177352	5.0.10.0	5_exp_noRW	72	Rpleas_acq	CS_A	LWWL	DXXD	ZHHZ	CPPC	YFFY	JQQJ	küssen	gütig	träumen	vertrauen	genießen	sonnig	krank	gierig	töten	versagen	gemein	sterben	47pct	acq_USunple_CSunple2_noRW	acq1_noRW	1	65	0	0	300	300	421	50	0	0	1	blank2r.bmp	0	1	+	0	1	blank2r.bmp	252	1	CPPC	306	2	gemein	559	1	FEHLER	1012	0	0	0	0	0	0	0	0	0	0	0	0	0	0	0	0	0	0	0	0	0	0	0	0	0	0	0	0	0	0	0	0	0	0	0	0
072219	13:42:48	13:45:48	178884	5.0.10.0	5_exp_noRW	72	Rpleas_acq	CS_A	LWWL	DXXD	ZHHZ	CPPC	YFFY	JQQJ	küssen	gütig	träumen	vertrauen	genießen	sonnig	krank	gierig	töten	versagen	gemein	sterben	47pct	acq_USpleas_CSunple2_noRW	acq1_noRW	1	66	0	0	300	300	345	46	0	0	1	blank2r.bmp	0	1	+	0	1	blank2r.bmp	252	1	CPPC	306	2	genießen	559	1	FEHLER	946	0	0	0	0	0	0	0	0	0	0	0	0	0	0	0	0	0	0	0	0	0	0	0	0	0	0	0	0	0	0	0	0	0	0	0	0
072219	13:42:48	13:45:49	180311	5.0.10.0	5_exp_noRW	72	Rpleas_acq	CS_A	LWWL	DXXD	ZHHZ	CPPC	YFFY	JQQJ	küssen	gütig	träumen	vertrauen	genießen	sonnig	krank	gierig	töten	versagen	gemein	sterben	47pct	acq_USunple_CSpleas2_noRW	acq1_noRW	1	67	0	0	300	300	478	46	0	1	1	blank2r.bmp	0	1	+	0	1	blank2r.bmp	252	1	DXXD	306	1	versagen	559	0	0	0	0	0	0	0	0	0	0	0	0	0	0	0	0	0	0	0	0	0	0	0	0	0	0	0	0	0	0	0	0	0	0	0	0	0	0	0
072219	13:42:48	13:45:51	182043	5.0.10.0	5_exp_noRW	72	Rpleas_acq	CS_A	LWWL	DXXD	ZHHZ	CPPC	YFFY	JQQJ	küssen	gütig	träumen	vertrauen	genießen	sonnig	krank	gierig	töten	versagen	gemein	sterben	53pct	acq_USunple_CSunple1_noRW	acq1_noRW	1	68	0	0	300	300	337	50	0	0	1	blank2r.bmp	0	1	+	0	1	blank2r.bmp	252	1	ZHHZ	306	2	gierig	559	1	FEHLER	932	0	0	0	0	0	0	0	0	0	0	0	0	0	0	0	0	0	0	0	0	0	0	0	0	0	0	0	0	0	0	0	0	0	0	0	0
072219	13:42:48	13:45:52	183456	5.0.10.0	5_exp_noRW	72	Rpleas_acq	CS_A	LWWL	DXXD	ZHHZ	CPPC	YFFY	JQQJ	küssen	gütig	träumen	vertrauen	genießen	sonnig	krank	gierig	töten	versagen	gemein	sterben	47pct	acq_USunple_CSunple1_noRW	acq1_noRW	1	69	0	0	300	300	446	46	0	1	1	blank2r.bmp	0	1	+	0	1	blank2r.bmp	252	1	ZHHZ	306	1	krank	559	0	0	0	0	0	0	0	0	0	0	0	0	0	0	0	0	0	0	0	0	0	0	0	0	0	0	0	0	0	0	0	0	0	0	0	0	0	0	0
072219	13:42:48	13:45:54	185255	5.0.10.0	5_exp_noRW	72	Rpleas_acq	CS_A	LWWL	DXXD	ZHHZ	CPPC	YFFY	JQQJ	küssen	gütig	träumen	vertrauen	genießen	sonnig	krank	gierig	töten	versagen	gemein	sterben	47pct	acq_USpleas_CSpleas2_noRW	acq1_noRW	1	70	0	0	300	300	613	50	0	1	1	blank2r.bmp	0	1	+	0	1	blank2r.bmp	252	1	DXXD	306	1	vertrauen	559	0	0	0	0	0	0	0	0	0	0	0	0	0	0	0	0	0	0	0	0	0	0	0	0	0	0	0	0	0	0	0	0	0	0	0	0	0	0	0
072219	13:42:48	13:45:56	187321	5.0.10.0	5_exp_noRW	72	Rpleas_acq	CS_A	LWWL	DXXD	ZHHZ	CPPC	YFFY	JQQJ	küssen	gütig	träumen	vertrauen	genießen	sonnig	krank	gierig	töten	versagen	gemein	sterben	53pct	acq_USpleas_CSpleas1_noRW	acq1_noRW	1	71	0	0	300	300	679	46	0	0	1	blank2r.bmp	0	1	+	0	1	blank2r.bmp	252	1	LWWL	306	3	träumen	559	1	FEHLER	1279	0	0	0	0	0	0	0	0	0	0	0	0	0	0	0	0	0	0	0	0	0	0	0	0	0	0	0	0	0	0	0	0	0	0	0	0
072219	13:42:48	13:45:58	188707	5.0.10.0	5_exp_noRW	72	Rpleas_acq	CS_A	LWWL	DXXD	ZHHZ	CPPC	YFFY	JQQJ	küssen	gütig	träumen	vertrauen	genießen	sonnig	krank	gierig	töten	versagen	gemein	sterben	53pct	acq_USpleas_CSpleas1_noRW	acq1_noRW	1	72	0	0	300	300	414	50	0	1	1	blank2r.bmp	0	1	+	0	1	blank2r.bmp	252	1	LWWL	306	1	küssen	559	0	0	0	0	0	0	0	0	0	0	0	0	0	0	0	0	0	0	0	0	0	0	0	0	0	0	0	0	0	0	0	0	0	0	0	0	0	0	0
072219	13:42:48	13:45:59	190306	5.0.10.0	5_exp_noRW	72	Rpleas_acq	CS_A	LWWL	DXXD	ZHHZ	CPPC	YFFY	JQQJ	küssen	gütig	träumen	vertrauen	genießen	sonnig	krank	gierig	töten	versagen	gemein	sterben	53pct	acq_USunple_CSpleas1_noRW	acq1_noRW	1	73	0	0	300	300	436	46	0	1	1	blank2r.bmp	0	1	+	0	1	blank2r.bmp	252	1	LWWL	306	2	gierig	559	0	0	0	0	0	0	0	0	0	0	0	0	0	0	0	0	0	0	0	0	0	0	0	0	0	0	0	0	0	0	0	0	0	0	0	0	0	0	0
072219	13:42:48	13:46:01	191959	5.0.10.0	5_exp_noRW	72	Rpleas_acq	CS_A	LWWL	DXXD	ZHHZ	CPPC	YFFY	JQQJ	küssen	gütig	träumen	vertrauen	genießen	sonnig	krank	gierig	töten	versagen	gemein	sterben	47pct	acq_USunple_CSunple2_noRW	acq1_noRW	1	74	0	0	300	300	488	46	0	1	1	blank2r.bmp	0	1	+	0	1	blank2r.bmp	252	1	CPPC	306	3	sterben	559	0	0	0	0	0	0	0	0	0	0	0	0	0	0	0	0	0	0	0	0	0	0	0	0	0	0	0	0	0	0	0	0	0	0	0	0	0	0	0
072219	13:42:48	13:46:02	193585	5.0.10.0	5_exp_noRW	72	Rpleas_acq	CS_A	LWWL	DXXD	ZHHZ	CPPC	YFFY	JQQJ	küssen	gütig	träumen	vertrauen	genießen	sonnig	krank	gierig	töten	versagen	gemein	sterben	53pct	acq_USpleas_CSunple1_noRW	acq1_noRW	1	75	0	0	300	300	441	50	0	1	1	blank2r.bmp	0	1	+	0	1	blank2r.bmp	252	1	ZHHZ	306	3	träumen	559	0	0	0	0	0	0	0	0	0	0	0	0	0	0	0	0	0	0	0	0	0	0	0	0	0	0	0	0	0	0	0	0	0	0	0	0	0	0	0
072219	13:42:48	13:46:04	195118	5.0.10.0	5_exp_noRW	72	Rpleas_acq	CS_A	LWWL	DXXD	ZHHZ	CPPC	YFFY	JQQJ	küssen	gütig	träumen	vertrauen	genießen	sonnig	krank	gierig	töten	versagen	gemein	sterben	53pct	acq_USunple_CSunple1_noRW	acq1_noRW	1	76	0	0	300	300	359	46	0	1	1	blank2r.bmp	0	1	+	0	1	blank2r.bmp	252	1	ZHHZ	306	3	töten	559	0	0	0	0	0	0	0	0	0	0	0	0	0	0	0	0	0	0	0	0	0	0	0	0	0	0	0	0	0	0	0	0	0	0	0	0	0	0	0
072219	13:42:48	13:46:06	197117	5.0.10.0	5_exp_noRW	72	Rpleas_acq	CS_A	LWWL	DXXD	ZHHZ	CPPC	YFFY	JQQJ	küssen	gütig	träumen	vertrauen	genießen	sonnig	krank	gierig	töten	versagen	gemein	sterben	47pct	acq_USunple_CSunple2_noRW	acq1_noRW	1	77	0	0	300	300	830	46	0	1	1	blank2r.bmp	0	1	+	0	1	blank2r.bmp	252	1	CPPC	306	1	versagen	559	0	0	0	0	0	0	0	0	0	0	0	0	0	0	0	0	0	0	0	0	0	0	0	0	0	0	0	0	0	0	0	0	0	0	0	0	0	0	0
072219	13:42:48	13:46:08	198889	5.0.10.0	5_exp_noRW	72	Rpleas_acq	CS_A	LWWL	DXXD	ZHHZ	CPPC	YFFY	JQQJ	küssen	gütig	träumen	vertrauen	genießen	sonnig	krank	gierig	töten	versagen	gemein	sterben	47pct	acq_USpleas_CSpleas1_noRW	acq1_noRW	1	78	0	0	300	300	591	50	0	1	1	blank2r.bmp	0	1	+	0	1	blank2r.bmp	252	1	LWWL	306	2	gütig	559	0	0	0	0	0	0	0	0	0	0	0	0	0	0	0	0	0	0	0	0	0	0	0	0	0	0	0	0	0	0	0	0	0	0	0	0	0	0	0
072219	13:42:48	13:46:10	201568	5.0.10.0	5_exp_noRW	72	Rpleas_acq	CS_A	LWWL	DXXD	ZHHZ	CPPC	YFFY	JQQJ	küssen	gütig	träumen	vertrauen	genießen	sonnig	krank	gierig	töten	versagen	gemein	sterben	47pct	acq_USpleas_CSpleas1_noRW	acq1_noRW	1	79	0	0	300	300	1300	46	0	0	1	blank2r.bmp	0	1	+	0	1	blank2r.bmp	252	1	LWWL	306	3	träumen	559	1	FEHLER	1892	0	0	0	0	0	0	0	0	0	0	0	0	0	0	0	0	0	0	0	0	0	0	0	0	0	0	0	0	0	0	0	0	0	0	0	0
072219	13:42:48	13:46:12	203101	5.0.10.0	5_exp_noRW	72	Rpleas_acq	CS_A	LWWL	DXXD	ZHHZ	CPPC	YFFY	JQQJ	küssen	gütig	träumen	vertrauen	genießen	sonnig	krank	gierig	töten	versagen	gemein	sterben	47pct	acq_USpleas_CSpleas2_noRW	acq1_noRW	1	80	0	0	300	300	581	50	0	1	1	blank2r.bmp	0	1	+	0	1	blank2r.bmp	252	1	DXXD	306	1	vertrauen	559	0	0	0	0	0	0	0	0	0	0	0	0	0	0	0	0	0	0	0	0	0	0	0	0	0	0	0	0	0	0	0	0	0	0	0	0	0	0	0
072219	13:42:48	13:46:29	219747	5.0.10.0	5_exp_noRW	72	Rpleas_acq	CS_A	LWWL	DXXD	ZHHZ	CPPC	YFFY	JQQJ	küssen	gütig	träumen	vertrauen	genießen	sonnig	krank	gierig	töten	versagen	gemein	sterben	53pct	acq_USpleas_CSpleas1_noRW	acq23456_noRW	2	1	0	0	300	300	476	50	0	1	1	blank2r.bmp	0	1	+	0	1	blank2r.bmp	252	1	LWWL	306	1	küssen	559	0	0	0	0	0	0	0	0	0	0	0	0	0	0	0	0	0	0	0	0	0	0	0	0	0	0	0	0	0	0	0	0	0	0	0	0	0	0	0
072219	13:42:48	13:46:30	221493	5.0.10.0	5_exp_noRW	72	Rpleas_acq	CS_A	LWWL	DXXD	ZHHZ	CPPC	YFFY	JQQJ	küssen	gütig	träumen	vertrauen	genießen	sonnig	krank	gierig	töten	versagen	gemein	sterben	47pct	acq_USpleas_CSpleas2_noRW	acq23456_noRW	2	2	0	0	300	300	560	50	0	1	1	blank2r.bmp	0	1	+	0	1	blank2r.bmp	252	1	DXXD	306	2	genießen	559	0	0	0	0	0	0	0	0	0	0	0	0	0	0	0	0	0	0	0	0	0	0	0	0	0	0	0	0	0	0	0	0	0	0	0	0	0	0	0
072219	13:42:48	13:46:32	223053	5.0.10.0	5_exp_noRW	72	Rpleas_acq	CS_A	LWWL	DXXD	ZHHZ	CPPC	YFFY	JQQJ	küssen	gütig	träumen	vertrauen	genießen	sonnig	krank	gierig	töten	versagen	gemein	sterben	53pct	acq_USunple_CSunple2_noRW	acq23456_noRW	2	3	0	0	300	300	398	46	0	1	1	blank2r.bmp	0	1	+	0	1	blank2r.bmp	252	1	CPPC	306	3	sterben	559	0	0	0	0	0	0	0	0	0	0	0	0	0	0	0	0	0	0	0	0	0	0	0	0	0	0	0	0	0	0	0	0	0	0	0	0	0	0	0
072219	13:42:48	13:46:33	224612	5.0.10.0	5_exp_noRW	72	Rpleas_acq	CS_A	LWWL	DXXD	ZHHZ	CPPC	YFFY	JQQJ	küssen	gütig	träumen	vertrauen	genießen	sonnig	krank	gierig	töten	versagen	gemein	sterben	53pct	acq_USpleas_CSpleas2_noRW	acq23456_noRW	2	4	0	0	300	300	377	50	0	1	1	blank2r.bmp	0	1	+	0	1	blank2r.bmp	252	1	DXXD	306	3	sonnig	559	0	0	0	0	0	0	0	0	0	0	0	0	0	0	0	0	0	0	0	0	0	0	0	0	0	0	0	0	0	0	0	0	0	0	0	0	0	0	0
072219	13:42:48	13:46:35	226238	5.0.10.0	5_exp_noRW	72	Rpleas_acq	CS_A	LWWL	DXXD	ZHHZ	CPPC	YFFY	JQQJ	küssen	gütig	träumen	vertrauen	genießen	sonnig	krank	gierig	töten	versagen	gemein	sterben	47pct	acq_USunple_CSunple1_noRW	acq23456_noRW	2	5	0	0	300	300	454	46	0	1	1	blank2r.bmp	0	1	+	0	1	blank2r.bmp	252	1	ZHHZ	306	2	gierig	559	0	0	0	0	0	0	0	0	0	0	0	0	0	0	0	0	0	0	0	0	0	0	0	0	0	0	0	0	0	0	0	0	0	0	0	0	0	0	0
072219	13:42:48	13:46:37	227851	5.0.10.0	5_exp_noRW	72	Rpleas_acq	CS_A	LWWL	DXXD	ZHHZ	CPPC	YFFY	JQQJ	küssen	gütig	träumen	vertrauen	genießen	sonnig	krank	gierig	töten	versagen	gemein	sterben	47pct	acq_USpleas_CSpleas1_noRW	acq23456_noRW	2	6	0	0	300	300	439	50	0	1	1	blank2r.bmp	0	1	+	0	1	blank2r.bmp	252	1	LWWL	306	2	gütig	559	0	0	0	0	0	0	0	0	0	0	0	0	0	0	0	0	0	0	0	0	0	0	0	0	0	0	0	0	0	0	0	0	0	0	0	0	0	0	0
072219	13:42:48	13:46:38	229410	5.0.10.0	5_exp_noRW	72	Rpleas_acq	CS_A	LWWL	DXXD	ZHHZ	CPPC	YFFY	JQQJ	küssen	gütig	träumen	vertrauen	genießen	sonnig	krank	gierig	töten	versagen	gemein	sterben	47pct	acq_USunple_CSunple1_noRW	acq23456_noRW	2	7	0	0	300	300	396	46	0	1	1	blank2r.bmp	0	1	+	0	1	blank2r.bmp	252	1	ZHHZ	306	1	krank	559	0	0	0	0	0	0	0	0	0	0	0	0	0	0	0	0	0	0	0	0	0	0	0	0	0	0	0	0	0	0	0	0	0	0	0	0	0	0	0
072219	13:42:48	13:46:40	231289	5.0.10.0	5_exp_noRW	72	Rpleas_acq	CS_A	LWWL	DXXD	ZHHZ	CPPC	YFFY	JQQJ	küssen	gütig	träumen	vertrauen	genießen	sonnig	krank	gierig	töten	versagen	gemein	sterben	47pct	acq_USunple_CSunple1_noRW	acq23456_noRW	2	8	0	0	300	300	702	46	0	1	1	blank2r.bmp	0	1	+	0	1	blank2r.bmp	252	1	ZHHZ	306	2	gierig	559	0	0	0	0	0	0	0	0	0	0	0	0	0	0	0	0	0	0	0	0	0	0	0	0	0	0	0	0	0	0	0	0	0	0	0	0	0	0	0
072219	13:42:48	13:46:42	232929	5.0.10.0	5_exp_noRW	72	Rpleas_acq	CS_A	LWWL	DXXD	ZHHZ	CPPC	YFFY	JQQJ	küssen	gütig	träumen	vertrauen	genießen	sonnig	krank	gierig	töten	versagen	gemein	sterben	47pct	acq_USunple_CSunple2_noRW	acq23456_noRW	2	9	0	0	300	300	472	46	0	1	1	blank2r.bmp	0	1	+	0	1	blank2r.bmp	252	1	CPPC	306	2	gemein	559	0	0	0	0	0	0	0	0	0	0	0	0	0	0	0	0	0	0	0	0	0	0	0	0	0	0	0	0	0	0	0	0	0	0	0	0	0	0	0
072219	13:42:48	13:46:43	234488	5.0.10.0	5_exp_noRW	72	Rpleas_acq	CS_A	LWWL	DXXD	ZHHZ	CPPC	YFFY	JQQJ	küssen	gütig	träumen	vertrauen	genießen	sonnig	krank	gierig	töten	versagen	gemein	sterben	47pct	acq_USunple_CSpleas2_noRW	acq23456_noRW	2	10	0	0	300	300	395	46	0	1	1	blank2r.bmp	0	1	+	0	1	blank2r.bmp	252	1	DXXD	306	3	sterben	559	0	0	0	0	0	0	0	0	0	0	0	0	0	0	0	0	0	0	0	0	0	0	0	0	0	0	0	0	0	0	0	0	0	0	0	0	0	0	0
072219	13:42:48	13:46:45	236074	5.0.10.0	5_exp_noRW	72	Rpleas_acq	CS_A	LWWL	DXXD	ZHHZ	CPPC	YFFY	JQQJ	küssen	gütig	träumen	vertrauen	genießen	sonnig	krank	gierig	töten	versagen	gemein	sterben	47pct	acq_USpleas_CSunple1_noRW	acq23456_noRW	2	11	0	0	300	300	422	50	0	1	1	blank2r.bmp	0	1	+	0	1	blank2r.bmp	252	1	ZHHZ	306	2	gütig	559	0	0	0	0	0	0	0	0	0	0	0	0	0	0	0	0	0	0	0	0	0	0	0	0	0	0	0	0	0	0	0	0	0	0	0	0	0	0	0
072219	13:42:48	13:46:47	237780	5.0.10.0	5_exp_noRW	72	Rpleas_acq	CS_A	LWWL	DXXD	ZHHZ	CPPC	YFFY	JQQJ	küssen	gütig	träumen	vertrauen	genießen	sonnig	krank	gierig	töten	versagen	gemein	sterben	53pct	acq_USpleas_CSpleas2_noRW	acq23456_noRW	2	12	0	0	300	300	531	50	0	1	1	blank2r.bmp	0	1	+	0	1	blank2r.bmp	252	1	DXXD	306	1	vertrauen	559	0	0	0	0	0	0	0	0	0	0	0	0	0	0	0	0	0	0	0	0	0	0	0	0	0	0	0	0	0	0	0	0	0	0	0	0	0	0	0
072219	13:42:48	13:46:48	239406	5.0.10.0	5_exp_noRW	72	Rpleas_acq	CS_A	LWWL	DXXD	ZHHZ	CPPC	YFFY	JQQJ	küssen	gütig	träumen	vertrauen	genießen	sonnig	krank	gierig	töten	versagen	gemein	sterben	53pct	acq_USunple_CSpleas1_noRW	acq23456_noRW	2	13	0	0	300	300	446	46	0	1	1	blank2r.bmp	0	1	+	0	1	blank2r.bmp	252	1	LWWL	306	1	krank	559	0	0	0	0	0	0	0	0	0	0	0	0	0	0	0	0	0	0	0	0	0	0	0	0	0	0	0	0	0	0	0	0	0	0	0	0	0	0	0
072219	13:42:48	13:46:50	241018	5.0.10.0	5_exp_noRW	72	Rpleas_acq	CS_A	LWWL	DXXD	ZHHZ	CPPC	YFFY	JQQJ	küssen	gütig	träumen	vertrauen	genießen	sonnig	krank	gierig	töten	versagen	gemein	sterben	47pct	acq_USunple_CSunple1_noRW	acq23456_noRW	2	14	0	0	300	300	425	46	0	1	1	blank2r.bmp	0	1	+	0	1	blank2r.bmp	252	1	ZHHZ	306	3	töten	559	0	0	0	0	0	0	0	0	0	0	0	0	0	0	0	0	0	0	0	0	0	0	0	0	0	0	0	0	0	0	0	0	0	0	0	0	0	0	0
072219	13:42:48	13:46:52	242711	5.0.10.0	5_exp_noRW	72	Rpleas_acq	CS_A	LWWL	DXXD	ZHHZ	CPPC	YFFY	JQQJ	küssen	gütig	träumen	vertrauen	genießen	sonnig	krank	gierig	töten	versagen	gemein	sterben	47pct	acq_USunple_CSunple2_noRW	acq23456_noRW	2	15	0	0	300	300	529	46	0	1	1	blank2r.bmp	0	1	+	0	1	blank2r.bmp	252	1	CPPC	306	2	gemein	559	0	0	0	0	0	0	0	0	0	0	0	0	0	0	0	0	0	0	0	0	0	0	0	0	0	0	0	0	0	0	0	0	0	0	0	0	0	0	0
072219	13:42:48	13:46:53	244404	5.0.10.0	5_exp_noRW	72	Rpleas_acq	CS_A	LWWL	DXXD	ZHHZ	CPPC	YFFY	JQQJ	küssen	gütig	träumen	vertrauen	genießen	sonnig	krank	gierig	töten	versagen	gemein	sterben	53pct	acq_USpleas_CSpleas2_noRW	acq23456_noRW	2	16	0	0	300	300	507	50	0	1	1	blank2r.bmp	0	1	+	0	1	blank2r.bmp	252	1	DXXD	306	2	genießen	559	0	0	0	0	0	0	0	0	0	0	0	0	0	0	0	0	0	0	0	0	0	0	0	0	0	0	0	0	0	0	0	0	0	0	0	0	0	0	0
072219	13:42:48	13:46:55	246043	5.0.10.0	5_exp_noRW	72	Rpleas_acq	CS_A	LWWL	DXXD	ZHHZ	CPPC	YFFY	JQQJ	küssen	gütig	träumen	vertrauen	genießen	sonnig	krank	gierig	töten	versagen	gemein	sterben	47pct	acq_USpleas_CSpleas1_noRW	acq23456_noRW	2	17	0	0	300	300	452	50	0	1	1	blank2r.bmp	0	1	+	0	1	blank2r.bmp	252	1	LWWL	306	2	gütig	559	0	0	0	0	0	0	0	0	0	0	0	0	0	0	0	0	0	0	0	0	0	0	0	0	0	0	0	0	0	0	0	0	0	0	0	0	0	0	0
072219	13:42:48	13:46:57	247776	5.0.10.0	5_exp_noRW	72	Rpleas_acq	CS_A	LWWL	DXXD	ZHHZ	CPPC	YFFY	JQQJ	küssen	gütig	träumen	vertrauen	genießen	sonnig	krank	gierig	töten	versagen	gemein	sterben	53pct	acq_USpleas_CSunple2_noRW	acq23456_noRW	2	18	0	0	300	300	553	50	0	1	1	blank2r.bmp	0	1	+	0	1	blank2r.bmp	252	1	CPPC	306	1	vertrauen	559	0	0	0	0	0	0	0	0	0	0	0	0	0	0	0	0	0	0	0	0	0	0	0	0	0	0	0	0	0	0	0	0	0	0	0	0	0	0	0
072219	13:42:48	13:46:58	249322	5.0.10.0	5_exp_noRW	72	Rpleas_acq	CS_A	LWWL	DXXD	ZHHZ	CPPC	YFFY	JQQJ	küssen	gütig	träumen	vertrauen	genießen	sonnig	krank	gierig	töten	versagen	gemein	sterben	53pct	acq_USpleas_CSpleas1_noRW	acq23456_noRW	2	19	0	0	300	300	361	50	0	1	1	blank2r.bmp	0	1	+	0	1	blank2r.bmp	252	1	LWWL	306	3	träumen	559	0	0	0	0	0	0	0	0	0	0	0	0	0	0	0	0	0	0	0	0	0	0	0	0	0	0	0	0	0	0	0	0	0	0	0	0	0	0	0
072219	13:42:48	13:47:00	250894	5.0.10.0	5_exp_noRW	72	Rpleas_acq	CS_A	LWWL	DXXD	ZHHZ	CPPC	YFFY	JQQJ	küssen	gütig	träumen	vertrauen	genießen	sonnig	krank	gierig	töten	versagen	gemein	sterben	47pct	acq_USunple_CSunple2_noRW	acq23456_noRW	2	20	0	0	300	300	404	46	0	1	1	blank2r.bmp	0	1	+	0	1	blank2r.bmp	252	1	CPPC	306	3	sterben	559	0	0	0	0	0	0	0	0	0	0	0	0	0	0	0	0	0	0	0	0	0	0	0	0	0	0	0	0	0	0	0	0	0	0	0	0	0	0	0
072219	13:42:48	13:47:01	252520	5.0.10.0	5_exp_noRW	72	Rpleas_acq	CS_A	LWWL	DXXD	ZHHZ	CPPC	YFFY	JQQJ	küssen	gütig	träumen	vertrauen	genießen	sonnig	krank	gierig	töten	versagen	gemein	sterben	47pct	acq_USpleas_CSpleas2_noRW	acq23456_noRW	2	21	0	0	300	300	450	50	0	1	1	blank2r.bmp	0	1	+	0	1	blank2r.bmp	252	1	DXXD	306	3	sonnig	559	0	0	0	0	0	0	0	0	0	0	0	0	0	0	0	0	0	0	0	0	0	0	0	0	0	0	0	0	0	0	0	0	0	0	0	0	0	0	0
072219	13:42:48	13:47:03	254146	5.0.10.0	5_exp_noRW	72	Rpleas_acq	CS_A	LWWL	DXXD	ZHHZ	CPPC	YFFY	JQQJ	küssen	gütig	träumen	vertrauen	genießen	sonnig	krank	gierig	töten	versagen	gemein	sterben	47pct	acq_USpleas_CSunple1_noRW	acq23456_noRW	2	22	0	0	300	300	425	50	0	1	1	blank2r.bmp	0	1	+	0	1	blank2r.bmp	252	1	ZHHZ	306	1	küssen	559	0	0	0	0	0	0	0	0	0	0	0	0	0	0	0	0	0	0	0	0	0	0	0	0	0	0	0	0	0	0	0	0	0	0	0	0	0	0	0
072219	13:42:48	13:47:05	255652	5.0.10.0	5_exp_noRW	72	Rpleas_acq	CS_A	LWWL	DXXD	ZHHZ	CPPC	YFFY	JQQJ	küssen	gütig	träumen	vertrauen	genießen	sonnig	krank	gierig	töten	versagen	gemein	sterben	53pct	acq_USpleas_CSpleas1_noRW	acq23456_noRW	2	23	0	0	300	300	333	50	0	1	1	blank2r.bmp	0	1	+	0	1	blank2r.bmp	252	1	LWWL	306	1	küssen	559	0	0	0	0	0	0	0	0	0	0	0	0	0	0	0	0	0	0	0	0	0	0	0	0	0	0	0	0	0	0	0	0	0	0	0	0	0	0	0
072219	13:42:48	13:47:06	257252	5.0.10.0	5_exp_noRW	72	Rpleas_acq	CS_A	LWWL	DXXD	ZHHZ	CPPC	YFFY	JQQJ	küssen	gütig	träumen	vertrauen	genießen	sonnig	krank	gierig	töten	versagen	gemein	sterben	53pct	acq_USunple_CSunple2_noRW	acq23456_noRW	2	24	0	0	300	300	418	46	0	1	1	blank2r.bmp	0	1	+	0	1	blank2r.bmp	252	1	CPPC	306	1	versagen	559	0	0	0	0	0	0	0	0	0	0	0	0	0	0	0	0	0	0	0	0	0	0	0	0	0	0	0	0	0	0	0	0	0	0	0	0	0	0	0
072219	13:42:48	13:47:08	259078	5.0.10.0	5_exp_noRW	72	Rpleas_acq	CS_A	LWWL	DXXD	ZHHZ	CPPC	YFFY	JQQJ	küssen	gütig	träumen	vertrauen	genießen	sonnig	krank	gierig	töten	versagen	gemein	sterben	47pct	acq_USunple_CSpleas2_noRW	acq23456_noRW	2	25	0	0	300	300	442	50	0	0	1	blank2r.bmp	0	1	+	0	1	blank2r.bmp	252	1	DXXD	306	2	gemein	559	1	FEHLER	1039	0	0	0	0	0	0	0	0	0	0	0	0	0	0	0	0	0	0	0	0	0	0	0	0	0	0	0	0	0	0	0	0	0	0	0	0
072219	13:42:48	13:47:09	260450	5.0.10.0	5_exp_noRW	72	Rpleas_acq	CS_A	LWWL	DXXD	ZHHZ	CPPC	YFFY	JQQJ	küssen	gütig	träumen	vertrauen	genießen	sonnig	krank	gierig	töten	versagen	gemein	sterben	47pct	acq_USpleas_CSpleas1_noRW	acq23456_noRW	2	26	0	0	300	300	400	50	0	1	1	blank2r.bmp	0	1	+	0	1	blank2r.bmp	252	1	LWWL	306	2	gütig	559	0	0	0	0	0	0	0	0	0	0	0	0	0	0	0	0	0	0	0	0	0	0	0	0	0	0	0	0	0	0	0	0	0	0	0	0	0	0	0
072219	13:42:48	13:47:11	261983	5.0.10.0	5_exp_noRW	72	Rpleas_acq	CS_A	LWWL	DXXD	ZHHZ	CPPC	YFFY	JQQJ	küssen	gütig	träumen	vertrauen	genießen	sonnig	krank	gierig	töten	versagen	gemein	sterben	47pct	acq_USunple_CSunple1_noRW	acq23456_noRW	2	27	0	0	300	300	360	46	0	1	1	blank2r.bmp	0	1	+	0	1	blank2r.bmp	252	1	ZHHZ	306	1	krank	559	0	0	0	0	0	0	0	0	0	0	0	0	0	0	0	0	0	0	0	0	0	0	0	0	0	0	0	0	0	0	0	0	0	0	0	0	0	0	0
072219	13:42:48	13:47:12	263569	5.0.10.0	5_exp_noRW	72	Rpleas_acq	CS_A	LWWL	DXXD	ZHHZ	CPPC	YFFY	JQQJ	küssen	gütig	träumen	vertrauen	genießen	sonnig	krank	gierig	töten	versagen	gemein	sterben	53pct	acq_USpleas_CSpleas1_noRW	acq23456_noRW	2	28	0	0	300	300	417	50	0	1	1	blank2r.bmp	0	1	+	0	1	blank2r.bmp	252	1	LWWL	306	3	träumen	559	0	0	0	0	0	0	0	0	0	0	0	0	0	0	0	0	0	0	0	0	0	0	0	0	0	0	0	0	0	0	0	0	0	0	0	0	0	0	0
072219	13:42:48	13:47:14	265115	5.0.10.0	5_exp_noRW	72	Rpleas_acq	CS_A	LWWL	DXXD	ZHHZ	CPPC	YFFY	JQQJ	küssen	gütig	träumen	vertrauen	genießen	sonnig	krank	gierig	töten	versagen	gemein	sterben	47pct	acq_USunple_CSunple1_noRW	acq23456_noRW	2	29	0	0	300	300	373	46	0	1	1	blank2r.bmp	0	1	+	0	1	blank2r.bmp	252	1	ZHHZ	306	3	töten	559	0	0	0	0	0	0	0	0	0	0	0	0	0	0	0	0	0	0	0	0	0	0	0	0	0	0	0	0	0	0	0	0	0	0	0	0	0	0	0
072219	13:42:48	13:47:16	266661	5.0.10.0	5_exp_noRW	72	Rpleas_acq	CS_A	LWWL	DXXD	ZHHZ	CPPC	YFFY	JQQJ	küssen	gütig	träumen	vertrauen	genießen	sonnig	krank	gierig	töten	versagen	gemein	sterben	53pct	acq_USunple_CSpleas1_noRW	acq23456_noRW	2	30	0	0	300	300	384	46	0	1	1	blank2r.bmp	0	1	+	0	1	blank2r.bmp	252	1	LWWL	306	3	töten	559	0	0	0	0	0	0	0	0	0	0	0	0	0	0	0	0	0	0	0	0	0	0	0	0	0	0	0	0	0	0	0	0	0	0	0	0	0	0	0
072219	13:42:48	13:47:17	268220	5.0.10.0	5_exp_noRW	72	Rpleas_acq	CS_A	LWWL	DXXD	ZHHZ	CPPC	YFFY	JQQJ	küssen	gütig	träumen	vertrauen	genießen	sonnig	krank	gierig	töten	versagen	gemein	sterben	53pct	acq_USpleas_CSpleas2_noRW	acq23456_noRW	2	31	0	0	300	300	381	50	0	1	1	blank2r.bmp	0	1	+	0	1	blank2r.bmp	252	1	DXXD	306	3	sonnig	559	0	0	0	0	0	0	0	0	0	0	0	0	0	0	0	0	0	0	0	0	0	0	0	0	0	0	0	0	0	0	0	0	0	0	0	0	0	0	0
072219	13:42:48	13:47:19	270020	5.0.10.0	5_exp_noRW	72	Rpleas_acq	CS_A	LWWL	DXXD	ZHHZ	CPPC	YFFY	JQQJ	küssen	gütig	träumen	vertrauen	genießen	sonnig	krank	gierig	töten	versagen	gemein	sterben	47pct	acq_USpleas_CSpleas2_noRW	acq23456_noRW	2	32	0	0	300	300	622	50	0	1	1	blank2r.bmp	0	1	+	0	1	blank2r.bmp	252	1	DXXD	306	1	vertrauen	559	0	0	0	0	0	0	0	0	0	0	0	0	0	0	0	0	0	0	0	0	0	0	0	0	0	0	0	0	0	0	0	0	0	0	0	0	0	0	0
072219	13:42:48	13:47:21	271846	5.0.10.0	5_exp_noRW	72	Rpleas_acq	CS_A	LWWL	DXXD	ZHHZ	CPPC	YFFY	JQQJ	küssen	gütig	träumen	vertrauen	genießen	sonnig	krank	gierig	töten	versagen	gemein	sterben	47pct	acq_USpleas_CSpleas2_noRW	acq23456_noRW	2	33	0	0	300	300	642	50	0	1	1	blank2r.bmp	0	1	+	0	1	blank2r.bmp	252	1	DXXD	306	2	genießen	559	0	0	0	0	0	0	0	0	0	0	0	0	0	0	0	0	0	0	0	0	0	0	0	0	0	0	0	0	0	0	0	0	0	0	0	0	0	0	0
072219	13:42:48	13:47:22	273458	5.0.10.0	5_exp_noRW	72	Rpleas_acq	CS_A	LWWL	DXXD	ZHHZ	CPPC	YFFY	JQQJ	küssen	gütig	träumen	vertrauen	genießen	sonnig	krank	gierig	töten	versagen	gemein	sterben	53pct	acq_USunple_CSunple1_noRW	acq23456_noRW	2	34	0	0	300	300	437	46	0	1	1	blank2r.bmp	0	1	+	0	1	blank2r.bmp	252	1	ZHHZ	306	2	gierig	559	0	0	0	0	0	0	0	0	0	0	0	0	0	0	0	0	0	0	0	0	0	0	0	0	0	0	0	0	0	0	0	0	0	0	0	0	0	0	0
072219	13:42:48	13:47:24	275138	5.0.10.0	5_exp_noRW	72	Rpleas_acq	CS_A	LWWL	DXXD	ZHHZ	CPPC	YFFY	JQQJ	küssen	gütig	träumen	vertrauen	genießen	sonnig	krank	gierig	töten	versagen	gemein	sterben	53pct	acq_USunple_CSunple2_noRW	acq23456_noRW	2	35	0	0	300	300	501	46	0	1	1	blank2r.bmp	0	1	+	0	1	blank2r.bmp	252	1	CPPC	306	1	versagen	559	0	0	0	0	0	0	0	0	0	0	0	0	0	0	0	0	0	0	0	0	0	0	0	0	0	0	0	0	0	0	0	0	0	0	0	0	0	0	0
072219	13:42:48	13:47:26	276883	5.0.10.0	5_exp_noRW	72	Rpleas_acq	CS_A	LWWL	DXXD	ZHHZ	CPPC	YFFY	JQQJ	küssen	gütig	träumen	vertrauen	genießen	sonnig	krank	gierig	töten	versagen	gemein	sterben	47pct	acq_USunple_CSunple1_noRW	acq23456_noRW	2	36	0	0	300	300	356	50	0	0	1	blank2r.bmp	0	1	+	0	1	blank2r.bmp	252	1	ZHHZ	306	1	krank	559	1	FEHLER	946	0	0	0	0	0	0	0	0	0	0	0	0	0	0	0	0	0	0	0	0	0	0	0	0	0	0	0	0	0	0	0	0	0	0	0	0
072219	13:42:48	13:47:27	278403	5.0.10.0	5_exp_noRW	72	Rpleas_acq	CS_A	LWWL	DXXD	ZHHZ	CPPC	YFFY	JQQJ	küssen	gütig	träumen	vertrauen	genießen	sonnig	krank	gierig	töten	versagen	gemein	sterben	53pct	acq_USunple_CSunple2_noRW	acq23456_noRW	2	37	0	0	300	300	547	46	0	1	1	blank2r.bmp	0	1	+	0	1	blank2r.bmp	252	1	CPPC	306	3	sterben	559	0	0	0	0	0	0	0	0	0	0	0	0	0	0	0	0	0	0	0	0	0	0	0	0	0	0	0	0	0	0	0	0	0	0	0	0	0	0	0
072219	13:42:48	13:47:29	280322	5.0.10.0	5_exp_noRW	72	Rpleas_acq	CS_A	LWWL	DXXD	ZHHZ	CPPC	YFFY	JQQJ	küssen	gütig	träumen	vertrauen	genießen	sonnig	krank	gierig	töten	versagen	gemein	sterben	47pct	acq_USunple_CSunple2_noRW	acq23456_noRW	2	38	0	0	300	300	747	46	0	1	1	blank2r.bmp	0	1	+	0	1	blank2r.bmp	252	1	CPPC	306	2	gemein	559	0	0	0	0	0	0	0	0	0	0	0	0	0	0	0	0	0	0	0	0	0	0	0	0	0	0	0	0	0	0	0	0	0	0	0	0	0	0	0
072219	13:42:48	13:47:31	281881	5.0.10.0	5_exp_noRW	72	Rpleas_acq	CS_A	LWWL	DXXD	ZHHZ	CPPC	YFFY	JQQJ	küssen	gütig	träumen	vertrauen	genießen	sonnig	krank	gierig	töten	versagen	gemein	sterben	53pct	acq_USpleas_CSunple2_noRW	acq23456_noRW	2	39	0	0	300	300	387	50	0	1	1	blank2r.bmp	0	1	+	0	1	blank2r.bmp	252	1	CPPC	306	3	sonnig	559	0	0	0	0	0	0	0	0	0	0	0	0	0	0	0	0	0	0	0	0	0	0	0	0	0	0	0	0	0	0	0	0	0	0	0	0	0	0	0
072219	13:42:48	13:47:32	283467	5.0.10.0	5_exp_noRW	72	Rpleas_acq	CS_A	LWWL	DXXD	ZHHZ	CPPC	YFFY	JQQJ	küssen	gütig	träumen	vertrauen	genießen	sonnig	krank	gierig	töten	versagen	gemein	sterben	47pct	acq_USpleas_CSpleas1_noRW	acq23456_noRW	2	40	0	0	300	300	421	50	0	1	1	blank2r.bmp	0	1	+	0	1	blank2r.bmp	252	1	LWWL	306	1	küssen	559	0	0	0	0	0	0	0	0	0	0	0	0	0	0	0	0	0	0	0	0	0	0	0	0	0	0	0	0	0	0	0	0	0	0	0	0	0	0	0
072219	13:42:48	13:47:34	285040	5.0.10.0	5_exp_noRW	72	Rpleas_acq	CS_A	LWWL	DXXD	ZHHZ	CPPC	YFFY	JQQJ	küssen	gütig	träumen	vertrauen	genießen	sonnig	krank	gierig	töten	versagen	gemein	sterben	47pct	acq_USpleas_CSunple1_noRW	acq23456_noRW	2	41	0	0	300	300	394	50	0	1	1	blank2r.bmp	0	1	+	0	1	blank2r.bmp	252	1	ZHHZ	306	3	träumen	559	0	0	0	0	0	0	0	0	0	0	0	0	0	0	0	0	0	0	0	0	0	0	0	0	0	0	0	0	0	0	0	0	0	0	0	0	0	0	0
072219	13:42:48	13:47:36	286893	5.0.10.0	5_exp_noRW	72	Rpleas_acq	CS_A	LWWL	DXXD	ZHHZ	CPPC	YFFY	JQQJ	küssen	gütig	träumen	vertrauen	genießen	sonnig	krank	gierig	töten	versagen	gemein	sterben	53pct	acq_USunple_CSunple1_noRW	acq23456_noRW	2	42	0	0	300	300	675	46	0	1	1	blank2r.bmp	0	1	+	0	1	blank2r.bmp	252	1	ZHHZ	306	2	gierig	559	0	0	0	0	0	0	0	0	0	0	0	0	0	0	0	0	0	0	0	0	0	0	0	0	0	0	0	0	0	0	0	0	0	0	0	0	0	0	0
072219	13:42:48	13:47:37	288585	5.0.10.0	5_exp_noRW	72	Rpleas_acq	CS_A	LWWL	DXXD	ZHHZ	CPPC	YFFY	JQQJ	küssen	gütig	träumen	vertrauen	genießen	sonnig	krank	gierig	töten	versagen	gemein	sterben	53pct	acq_USunple_CSunple2_noRW	acq23456_noRW	2	43	0	0	300	300	505	46	0	1	1	blank2r.bmp	0	1	+	0	1	blank2r.bmp	252	1	CPPC	306	2	gemein	559	0	0	0	0	0	0	0	0	0	0	0	0	0	0	0	0	0	0	0	0	0	0	0	0	0	0	0	0	0	0	0	0	0	0	0	0	0	0	0
072219	13:42:48	13:47:39	290451	5.0.10.0	5_exp_noRW	72	Rpleas_acq	CS_A	LWWL	DXXD	ZHHZ	CPPC	YFFY	JQQJ	küssen	gütig	träumen	vertrauen	genießen	sonnig	krank	gierig	töten	versagen	gemein	sterben	47pct	acq_USunple_CSunple2_noRW	acq23456_noRW	2	44	0	0	300	300	476	50	0	0	1	blank2r.bmp	0	1	+	0	1	blank2r.bmp	252	1	CPPC	306	3	sterben	559	1	FEHLER	1066	0	0	0	0	0	0	0	0	0	0	0	0	0	0	0	0	0	0	0	0	0	0	0	0	0	0	0	0	0	0	0	0	0	0	0	0
072219	13:42:48	13:47:41	291904	5.0.10.0	5_exp_noRW	72	Rpleas_acq	CS_A	LWWL	DXXD	ZHHZ	CPPC	YFFY	JQQJ	küssen	gütig	träumen	vertrauen	genießen	sonnig	krank	gierig	töten	versagen	gemein	sterben	47pct	acq_USunple_CSunple2_noRW	acq23456_noRW	2	45	0	0	300	300	489	46	0	1	1	blank2r.bmp	0	1	+	0	1	blank2r.bmp	252	1	CPPC	306	1	versagen	559	0	0	0	0	0	0	0	0	0	0	0	0	0	0	0	0	0	0	0	0	0	0	0	0	0	0	0	0	0	0	0	0	0	0	0	0	0	0	0
072219	13:42:48	13:47:42	293583	5.0.10.0	5_exp_noRW	72	Rpleas_acq	CS_A	LWWL	DXXD	ZHHZ	CPPC	YFFY	JQQJ	küssen	gütig	träumen	vertrauen	genießen	sonnig	krank	gierig	töten	versagen	gemein	sterben	47pct	acq_USunple_CSunple1_noRW	acq23456_noRW	2	46	0	0	300	300	492	46	0	1	1	blank2r.bmp	0	1	+	0	1	blank2r.bmp	252	1	ZHHZ	306	3	töten	559	0	0	0	0	0	0	0	0	0	0	0	0	0	0	0	0	0	0	0	0	0	0	0	0	0	0	0	0	0	0	0	0	0	0	0	0	0	0	0
072219	13:42:48	13:47:44	295116	5.0.10.0	5_exp_noRW	72	Rpleas_acq	CS_A	LWWL	DXXD	ZHHZ	CPPC	YFFY	JQQJ	küssen	gütig	träumen	vertrauen	genießen	sonnig	krank	gierig	töten	versagen	gemein	sterben	53pct	acq_USunple_CSunple1_noRW	acq23456_noRW	2	47	0	0	300	300	363	46	0	1	1	blank2r.bmp	0	1	+	0	1	blank2r.bmp	252	1	ZHHZ	306	1	krank	559	0	0	0	0	0	0	0	0	0	0	0	0	0	0	0	0	0	0	0	0	0	0	0	0	0	0	0	0	0	0	0	0	0	0	0	0	0	0	0
072219	13:42:48	13:47:46	296782	5.0.10.0	5_exp_noRW	72	Rpleas_acq	CS_A	LWWL	DXXD	ZHHZ	CPPC	YFFY	JQQJ	küssen	gütig	träumen	vertrauen	genießen	sonnig	krank	gierig	töten	versagen	gemein	sterben	47pct	acq_USpleas_CSunple2_noRW	acq23456_noRW	2	48	0	0	300	300	485	50	0	1	1	blank2r.bmp	0	1	+	0	1	blank2r.bmp	252	1	CPPC	306	3	sonnig	559	0	0	0	0	0	0	0	0	0	0	0	0	0	0	0	0	0	0	0	0	0	0	0	0	0	0	0	0	0	0	0	0	0	0	0	0	0	0	0
072219	13:42:48	13:47:47	298594	5.0.10.0	5_exp_noRW	72	Rpleas_acq	CS_A	LWWL	DXXD	ZHHZ	CPPC	YFFY	JQQJ	küssen	gütig	träumen	vertrauen	genießen	sonnig	krank	gierig	töten	versagen	gemein	sterben	53pct	acq_USpleas_CSpleas1_noRW	acq23456_noRW	2	49	0	0	300	300	436	46	0	0	1	blank2r.bmp	0	1	+	0	1	blank2r.bmp	252	1	LWWL	306	2	gütig	559	1	FEHLER	1026	0	0	0	0	0	0	0	0	0	0	0	0	0	0	0	0	0	0	0	0	0	0	0	0	0	0	0	0	0	0	0	0	0	0	0	0
072219	13:42:48	13:47:49	300220	5.0.10.0	5_exp_noRW	72	Rpleas_acq	CS_A	LWWL	DXXD	ZHHZ	CPPC	YFFY	JQQJ	küssen	gütig	träumen	vertrauen	genießen	sonnig	krank	gierig	töten	versagen	gemein	sterben	47pct	acq_USpleas_CSpleas2_noRW	acq23456_noRW	2	50	0	0	300	300	430	46	0	0	1	blank2r.bmp	0	1	+	0	1	blank2r.bmp	252	1	DXXD	306	2	genießen	559	1	FEHLER	1026	0	0	0	0	0	0	0	0	0	0	0	0	0	0	0	0	0	0	0	0	0	0	0	0	0	0	0	0	0	0	0	0	0	0	0	0
072219	13:42:48	13:47:50	301606	5.0.10.0	5_exp_noRW	72	Rpleas_acq	CS_A	LWWL	DXXD	ZHHZ	CPPC	YFFY	JQQJ	küssen	gütig	träumen	vertrauen	genießen	sonnig	krank	gierig	töten	versagen	gemein	sterben	53pct	acq_USpleas_CSpleas2_noRW	acq23456_noRW	2	51	0	0	300	300	429	50	0	1	1	blank2r.bmp	0	1	+	0	1	blank2r.bmp	252	1	DXXD	306	3	sonnig	559	0	0	0	0	0	0	0	0	0	0	0	0	0	0	0	0	0	0	0	0	0	0	0	0	0	0	0	0	0	0	0	0	0	0	0	0	0	0	0
072219	13:42:48	13:47:52	303166	5.0.10.0	5_exp_noRW	72	Rpleas_acq	CS_A	LWWL	DXXD	ZHHZ	CPPC	YFFY	JQQJ	küssen	gütig	träumen	vertrauen	genießen	sonnig	krank	gierig	töten	versagen	gemein	sterben	53pct	acq_USunple_CSunple2_noRW	acq23456_noRW	2	52	0	0	300	300	374	46	0	1	1	blank2r.bmp	0	1	+	0	1	blank2r.bmp	252	1	CPPC	306	2	gemein	559	0	0	0	0	0	0	0	0	0	0	0	0	0	0	0	0	0	0	0	0	0	0	0	0	0	0	0	0	0	0	0	0	0	0	0	0	0	0	0
072219	13:42:48	13:47:54	304712	5.0.10.0	5_exp_noRW	72	Rpleas_acq	CS_A	LWWL	DXXD	ZHHZ	CPPC	YFFY	JQQJ	küssen	gütig	träumen	vertrauen	genießen	sonnig	krank	gierig	töten	versagen	gemein	sterben	47pct	acq_USunple_CSpleas1_noRW	acq23456_noRW	2	53	0	0	300	300	379	46	0	1	1	blank2r.bmp	0	1	+	0	1	blank2r.bmp	252	1	LWWL	306	1	krank	559	0	0	0	0	0	0	0	0	0	0	0	0	0	0	0	0	0	0	0	0	0	0	0	0	0	0	0	0	0	0	0	0	0	0	0	0	0	0	0
072219	13:42:48	13:47:55	306404	5.0.10.0	5_exp_noRW	72	Rpleas_acq	CS_A	LWWL	DXXD	ZHHZ	CPPC	YFFY	JQQJ	küssen	gütig	träumen	vertrauen	genießen	sonnig	krank	gierig	töten	versagen	gemein	sterben	53pct	acq_USpleas_CSpleas1_noRW	acq23456_noRW	2	54	0	0	300	300	515	50	0	1	1	blank2r.bmp	0	1	+	0	1	blank2r.bmp	252	1	LWWL	306	3	träumen	559	0	0	0	0	0	0	0	0	0	0	0	0	0	0	0	0	0	0	0	0	0	0	0	0	0	0	0	0	0	0	0	0	0	0	0	0	0	0	0
072219	13:42:48	13:47:57	308004	5.0.10.0	5_exp_noRW	72	Rpleas_acq	CS_A	LWWL	DXXD	ZHHZ	CPPC	YFFY	JQQJ	küssen	gütig	träumen	vertrauen	genießen	sonnig	krank	gierig	töten	versagen	gemein	sterben	53pct	acq_USpleas_CSpleas1_noRW	acq23456_noRW	2	55	0	0	300	300	424	50	0	1	1	blank2r.bmp	0	1	+	0	1	blank2r.bmp	252	1	LWWL	306	1	küssen	559	0	0	0	0	0	0	0	0	0	0	0	0	0	0	0	0	0	0	0	0	0	0	0	0	0	0	0	0	0	0	0	0	0	0	0	0	0	0	0
072219	13:42:48	13:47:59	309683	5.0.10.0	5_exp_noRW	72	Rpleas_acq	CS_A	LWWL	DXXD	ZHHZ	CPPC	YFFY	JQQJ	küssen	gütig	träumen	vertrauen	genießen	sonnig	krank	gierig	töten	versagen	gemein	sterben	47pct	acq_USunple_CSpleas2_noRW	acq23456_noRW	2	56	0	0	300	300	499	46	0	1	1	blank2r.bmp	0	1	+	0	1	blank2r.bmp	252	1	DXXD	306	2	gemein	559	0	0	0	0	0	0	0	0	0	0	0	0	0	0	0	0	0	0	0	0	0	0	0	0	0	0	0	0	0	0	0	0	0	0	0	0	0	0	0
072219	13:42:48	13:48:00	311442	5.0.10.0	5_exp_noRW	72	Rpleas_acq	CS_A	LWWL	DXXD	ZHHZ	CPPC	YFFY	JQQJ	küssen	gütig	träumen	vertrauen	genießen	sonnig	krank	gierig	töten	versagen	gemein	sterben	47pct	acq_USpleas_CSpleas2_noRW	acq23456_noRW	2	57	0	0	300	300	574	50	0	1	1	blank2r.bmp	0	1	+	0	1	blank2r.bmp	252	1	DXXD	306	1	vertrauen	559	0	0	0	0	0	0	0	0	0	0	0	0	0	0	0	0	0	0	0	0	0	0	0	0	0	0	0	0	0	0	0	0	0	0	0	0	0	0	0
072219	13:42:48	13:48:02	313388	5.0.10.0	5_exp_noRW	72	Rpleas_acq	CS_A	LWWL	DXXD	ZHHZ	CPPC	YFFY	JQQJ	küssen	gütig	träumen	vertrauen	genießen	sonnig	krank	gierig	töten	versagen	gemein	sterben	47pct	acq_USpleas_CSpleas1_noRW	acq23456_noRW	2	58	0	0	300	300	564	46	0	0	1	blank2r.bmp	0	1	+	0	1	blank2r.bmp	252	1	LWWL	306	2	gütig	559	1	FEHLER	1159	0	0	0	0	0	0	0	0	0	0	0	0	0	0	0	0	0	0	0	0	0	0	0	0	0	0	0	0	0	0	0	0	0	0	0	0
072219	13:42:48	13:48:04	314828	5.0.10.0	5_exp_noRW	72	Rpleas_acq	CS_A	LWWL	DXXD	ZHHZ	CPPC	YFFY	JQQJ	küssen	gütig	träumen	vertrauen	genießen	sonnig	krank	gierig	töten	versagen	gemein	sterben	47pct	acq_USpleas_CSpleas2_noRW	acq23456_noRW	2	59	0	0	300	300	490	50	0	1	1	blank2r.bmp	0	1	+	0	1	blank2r.bmp	252	1	DXXD	306	2	genießen	559	0	0	0	0	0	0	0	0	0	0	0	0	0	0	0	0	0	0	0	0	0	0	0	0	0	0	0	0	0	0	0	0	0	0	0	0	0	0	0
072219	13:42:48	13:48:05	316400	5.0.10.0	5_exp_noRW	72	Rpleas_acq	CS_A	LWWL	DXXD	ZHHZ	CPPC	YFFY	JQQJ	küssen	gütig	träumen	vertrauen	genießen	sonnig	krank	gierig	töten	versagen	gemein	sterben	47pct	acq_USunple_CSunple1_noRW	acq23456_noRW	2	60	0	0	300	300	389	46	0	1	1	blank2r.bmp	0	1	+	0	1	blank2r.bmp	252	1	ZHHZ	306	1	krank	559	0	0	0	0	0	0	0	0	0	0	0	0	0	0	0	0	0	0	0	0	0	0	0	0	0	0	0	0	0	0	0	0	0	0	0	0	0	0	0
072219	13:42:48	13:48:07	318013	5.0.10.0	5_exp_noRW	72	Rpleas_acq	CS_A	LWWL	DXXD	ZHHZ	CPPC	YFFY	JQQJ	küssen	gütig	träumen	vertrauen	genießen	sonnig	krank	gierig	töten	versagen	gemein	sterben	53pct	acq_USunple_CSunple1_noRW	acq23456_noRW	2	61	0	0	300	300	443	46	0	1	1	blank2r.bmp	0	1	+	0	1	blank2r.bmp	252	1	ZHHZ	306	2	gierig	559	0	0	0	0	0	0	0	0	0	0	0	0	0	0	0	0	0	0	0	0	0	0	0	0	0	0	0	0	0	0	0	0	0	0	0	0	0	0	0
072219	13:42:48	13:48:09	319732	5.0.10.0	5_exp_noRW	72	Rpleas_acq	CS_A	LWWL	DXXD	ZHHZ	CPPC	YFFY	JQQJ	küssen	gütig	träumen	vertrauen	genießen	sonnig	krank	gierig	töten	versagen	gemein	sterben	53pct	acq_USunple_CSunple2_noRW	acq23456_noRW	2	62	0	0	300	300	342	50	0	0	1	blank2r.bmp	0	1	+	0	1	blank2r.bmp	252	1	CPPC	306	1	versagen	559	1	FEHLER	932	0	0	0	0	0	0	0	0	0	0	0	0	0	0	0	0	0	0	0	0	0	0	0	0	0	0	0	0	0	0	0	0	0	0	0	0
072219	13:42:48	13:48:10	321118	5.0.10.0	5_exp_noRW	72	Rpleas_acq	CS_A	LWWL	DXXD	ZHHZ	CPPC	YFFY	JQQJ	küssen	gütig	träumen	vertrauen	genießen	sonnig	krank	gierig	töten	versagen	gemein	sterben	53pct	acq_USpleas_CSunple2_noRW	acq23456_noRW	2	63	0	0	300	300	419	50	0	1	1	blank2r.bmp	0	1	+	0	1	blank2r.bmp	252	1	CPPC	306	1	vertrauen	559	0	0	0	0	0	0	0	0	0	0	0	0	0	0	0	0	0	0	0	0	0	0	0	0	0	0	0	0	0	0	0	0	0	0	0	0	0	0	0
072219	13:42:48	13:48:12	322691	5.0.10.0	5_exp_noRW	72	Rpleas_acq	CS_A	LWWL	DXXD	ZHHZ	CPPC	YFFY	JQQJ	küssen	gütig	träumen	vertrauen	genießen	sonnig	krank	gierig	töten	versagen	gemein	sterben	47pct	acq_USunple_CSpleas1_noRW	acq23456_noRW	2	64	0	0	300	300	396	46	0	1	1	blank2r.bmp	0	1	+	0	1	blank2r.bmp	252	1	LWWL	306	2	gierig	559	0	0	0	0	0	0	0	0	0	0	0	0	0	0	0	0	0	0	0	0	0	0	0	0	0	0	0	0	0	0	0	0	0	0	0	0	0	0	0
072219	13:42:48	13:48:13	324210	5.0.10.0	5_exp_noRW	72	Rpleas_acq	CS_A	LWWL	DXXD	ZHHZ	CPPC	YFFY	JQQJ	küssen	gütig	träumen	vertrauen	genießen	sonnig	krank	gierig	töten	versagen	gemein	sterben	47pct	acq_USunple_CSunple1_noRW	acq23456_noRW	2	65	0	0	300	300	337	46	0	1	1	blank2r.bmp	0	1	+	0	1	blank2r.bmp	252	1	ZHHZ	306	3	töten	559	0	0	0	0	0	0	0	0	0	0	0	0	0	0	0	0	0	0	0	0	0	0	0	0	0	0	0	0	0	0	0	0	0	0	0	0	0	0	0
072219	13:42:48	13:48:15	325783	5.0.10.0	5_exp_noRW	72	Rpleas_acq	CS_A	LWWL	DXXD	ZHHZ	CPPC	YFFY	JQQJ	küssen	gütig	träumen	vertrauen	genießen	sonnig	krank	gierig	töten	versagen	gemein	sterben	47pct	acq_USunple_CSpleas2_noRW	acq23456_noRW	2	66	0	0	300	300	389	46	0	1	1	blank2r.bmp	0	1	+	0	1	blank2r.bmp	252	1	DXXD	306	3	sterben	559	0	0	0	0	0	0	0	0	0	0	0	0	0	0	0	0	0	0	0	0	0	0	0	0	0	0	0	0	0	0	0	0	0	0	0	0	0	0	0
072219	13:42:48	13:48:16	327342	5.0.10.0	5_exp_noRW	72	Rpleas_acq	CS_A	LWWL	DXXD	ZHHZ	CPPC	YFFY	JQQJ	küssen	gütig	träumen	vertrauen	genießen	sonnig	krank	gierig	töten	versagen	gemein	sterben	47pct	acq_USpleas_CSpleas1_noRW	acq23456_noRW	2	67	0	0	300	300	394	50	0	1	1	blank2r.bmp	0	1	+	0	1	blank2r.bmp	252	1	LWWL	306	3	träumen	559	0	0	0	0	0	0	0	0	0	0	0	0	0	0	0	0	0	0	0	0	0	0	0	0	0	0	0	0	0	0	0	0	0	0	0	0	0	0	0
072219	13:42:48	13:48:18	329035	5.0.10.0	5_exp_noRW	72	Rpleas_acq	CS_A	LWWL	DXXD	ZHHZ	CPPC	YFFY	JQQJ	küssen	gütig	träumen	vertrauen	genießen	sonnig	krank	gierig	töten	versagen	gemein	sterben	53pct	acq_USpleas_CSpleas2_noRW	acq23456_noRW	2	68	0	0	300	300	515	50	0	1	1	blank2r.bmp	0	1	+	0	1	blank2r.bmp	252	1	DXXD	306	3	sonnig	559	0	0	0	0	0	0	0	0	0	0	0	0	0	0	0	0	0	0	0	0	0	0	0	0	0	0	0	0	0	0	0	0	0	0	0	0	0	0	0
072219	13:42:48	13:48:20	330714	5.0.10.0	5_exp_noRW	72	Rpleas_acq	CS_A	LWWL	DXXD	ZHHZ	CPPC	YFFY	JQQJ	küssen	gütig	träumen	vertrauen	genießen	sonnig	krank	gierig	töten	versagen	gemein	sterben	53pct	acq_USunple_CSunple2_noRW	acq23456_noRW	2	69	0	0	300	300	500	46	0	1	1	blank2r.bmp	0	1	+	0	1	blank2r.bmp	252	1	CPPC	306	3	sterben	559	0	0	0	0	0	0	0	0	0	0	0	0	0	0	0	0	0	0	0	0	0	0	0	0	0	0	0	0	0	0	0	0	0	0	0	0	0	0	0
072219	13:42:48	13:48:21	332380	5.0.10.0	5_exp_noRW	72	Rpleas_acq	CS_A	LWWL	DXXD	ZHHZ	CPPC	YFFY	JQQJ	küssen	gütig	träumen	vertrauen	genießen	sonnig	krank	gierig	töten	versagen	gemein	sterben	53pct	acq_USpleas_CSpleas1_noRW	acq23456_noRW	2	70	0	0	300	300	482	50	0	1	1	blank2r.bmp	0	1	+	0	1	blank2r.bmp	252	1	LWWL	306	1	küssen	559	0	0	0	0	0	0	0	0	0	0	0	0	0	0	0	0	0	0	0	0	0	0	0	0	0	0	0	0	0	0	0	0	0	0	0	0	0	0	0
072219	13:42:48	13:48:23	334166	5.0.10.0	5_exp_noRW	72	Rpleas_acq	CS_A	LWWL	DXXD	ZHHZ	CPPC	YFFY	JQQJ	küssen	gütig	träumen	vertrauen	genießen	sonnig	krank	gierig	töten	versagen	gemein	sterben	53pct	acq_USpleas_CSpleas2_noRW	acq23456_noRW	2	71	0	0	300	300	625	50	0	1	1	blank2r.bmp	0	1	+	0	1	blank2r.bmp	252	1	DXXD	306	1	vertrauen	559	0	0	0	0	0	0	0	0	0	0	0	0	0	0	0	0	0	0	0	0	0	0	0	0	0	0	0	0	0	0	0	0	0	0	0	0	0	0	0
072219	13:42:48	13:48:25	336152	5.0.10.0	5_exp_noRW	72	Rpleas_acq	CS_A	LWWL	DXXD	ZHHZ	CPPC	YFFY	JQQJ	küssen	gütig	träumen	vertrauen	genießen	sonnig	krank	gierig	töten	versagen	gemein	sterben	47pct	acq_USpleas_CSunple1_noRW	acq23456_noRW	2	72	0	0	300	300	809	50	0	1	1	blank2r.bmp	0	1	+	0	1	blank2r.bmp	252	1	ZHHZ	306	2	gütig	559	0	0	0	0	0	0	0	0	0	0	0	0	0	0	0	0	0	0	0	0	0	0	0	0	0	0	0	0	0	0	0	0	0	0	0	0	0	0	0
072219	13:42:48	13:48:27	337818	5.0.10.0	5_exp_noRW	72	Rpleas_acq	CS_A	LWWL	DXXD	ZHHZ	CPPC	YFFY	JQQJ	küssen	gütig	träumen	vertrauen	genießen	sonnig	krank	gierig	töten	versagen	gemein	sterben	47pct	acq_USunple_CSunple2_noRW	acq23456_noRW	2	73	0	0	300	300	490	46	0	1	1	blank2r.bmp	0	1	+	0	1	blank2r.bmp	252	1	CPPC	306	3	sterben	559	0	0	0	0	0	0	0	0	0	0	0	0	0	0	0	0	0	0	0	0	0	0	0	0	0	0	0	0	0	0	0	0	0	0	0	0	0	0	0
072219	13:42:48	13:48:29	339724	5.0.10.0	5_exp_noRW	72	Rpleas_acq	CS_A	LWWL	DXXD	ZHHZ	CPPC	YFFY	JQQJ	küssen	gütig	träumen	vertrauen	genießen	sonnig	krank	gierig	töten	versagen	gemein	sterben	47pct	acq_USpleas_CSpleas1_noRW	acq23456_noRW	2	74	0	0	300	300	506	46	0	0	1	blank2r.bmp	0	1	+	0	1	blank2r.bmp	252	1	LWWL	306	2	gütig	559	1	FEHLER	1106	0	0	0	0	0	0	0	0	0	0	0	0	0	0	0	0	0	0	0	0	0	0	0	0	0	0	0	0	0	0	0	0	0	0	0	0
072219	13:42:48	13:48:30	341230	5.0.10.0	5_exp_noRW	72	Rpleas_acq	CS_A	LWWL	DXXD	ZHHZ	CPPC	YFFY	JQQJ	küssen	gütig	träumen	vertrauen	genießen	sonnig	krank	gierig	töten	versagen	gemein	sterben	53pct	acq_USunple_CSunple2_noRW	acq23456_noRW	2	75	0	0	300	300	557	46	0	1	1	blank2r.bmp	0	1	+	0	1	blank2r.bmp	252	1	CPPC	306	2	gemein	559	0	0	0	0	0	0	0	0	0	0	0	0	0	0	0	0	0	0	0	0	0	0	0	0	0	0	0	0	0	0	0	0	0	0	0	0	0	0	0
072219	13:42:48	13:48:32	342883	5.0.10.0	5_exp_noRW	72	Rpleas_acq	CS_A	LWWL	DXXD	ZHHZ	CPPC	YFFY	JQQJ	küssen	gütig	träumen	vertrauen	genießen	sonnig	krank	gierig	töten	versagen	gemein	sterben	53pct	acq_USunple_CSunple1_noRW	acq23456_noRW	2	76	0	0	300	300	473	46	0	1	1	blank2r.bmp	0	1	+	0	1	blank2r.bmp	252	1	ZHHZ	306	3	töten	559	0	0	0	0	0	0	0	0	0	0	0	0	0	0	0	0	0	0	0	0	0	0	0	0	0	0	0	0	0	0	0	0	0	0	0	0	0	0	0
072219	13:42:48	13:48:33	344535	5.0.10.0	5_exp_noRW	72	Rpleas_acq	CS_A	LWWL	DXXD	ZHHZ	CPPC	YFFY	JQQJ	küssen	gütig	träumen	vertrauen	genießen	sonnig	krank	gierig	töten	versagen	gemein	sterben	47pct	acq_USpleas_CSpleas1_noRW	acq23456_noRW	2	77	0	0	300	300	472	50	0	1	1	blank2r.bmp	0	1	+	0	1	blank2r.bmp	252	1	LWWL	306	1	küssen	559	0	0	0	0	0	0	0	0	0	0	0	0	0	0	0	0	0	0	0	0	0	0	0	0	0	0	0	0	0	0	0	0	0	0	0	0	0	0	0
072219	13:42:48	13:48:35	346135	5.0.10.0	5_exp_noRW	72	Rpleas_acq	CS_A	LWWL	DXXD	ZHHZ	CPPC	YFFY	JQQJ	küssen	gütig	träumen	vertrauen	genießen	sonnig	krank	gierig	töten	versagen	gemein	sterben	47pct	acq_USpleas_CSpleas2_noRW	acq23456_noRW	2	78	0	0	300	300	419	50	0	1	1	blank2r.bmp	0	1	+	0	1	blank2r.bmp	252	1	DXXD	306	2	genießen	559	0	0	0	0	0	0	0	0	0	0	0	0	0	0	0	0	0	0	0	0	0	0	0	0	0	0	0	0	0	0	0	0	0	0	0	0	0	0	0
072219	13:42:48	13:48:37	347840	5.0.10.0	5_exp_noRW	72	Rpleas_acq	CS_A	LWWL	DXXD	ZHHZ	CPPC	YFFY	JQQJ	küssen	gütig	träumen	vertrauen	genießen	sonnig	krank	gierig	töten	versagen	gemein	sterben	47pct	acq_USunple_CSunple1_noRW	acq23456_noRW	2	79	0	0	300	300	324	50	0	0	1	blank2r.bmp	0	1	+	0	1	blank2r.bmp	252	1	ZHHZ	306	2	gierig	559	1	FEHLER	919	0	0	0	0	0	0	0	0	0	0	0	0	0	0	0	0	0	0	0	0	0	0	0	0	0	0	0	0	0	0	0	0	0	0	0	0
072219	13:42:48	13:48:38	349267	5.0.10.0	5_exp_noRW	72	Rpleas_acq	CS_A	LWWL	DXXD	ZHHZ	CPPC	YFFY	JQQJ	küssen	gütig	träumen	vertrauen	genießen	sonnig	krank	gierig	töten	versagen	gemein	sterben	47pct	acq_USpleas_CSpleas2_noRW	acq23456_noRW	2	80	0	0	300	300	459	50	0	1	1	blank2r.bmp	0	1	+	0	1	blank2r.bmp	252	1	DXXD	306	1	vertrauen	559	0	0	0	0	0	0	0	0	0	0	0	0	0	0	0	0	0	0	0	0	0	0	0	0	0	0	0	0	0	0	0	0	0	0	0	0	0	0	0
072219	13:42:48	13:48:46	357490	5.0.10.0	5_exp_noRW	72	Rpleas_acq	CS_A	LWWL	DXXD	ZHHZ	CPPC	YFFY	JQQJ	küssen	gütig	träumen	vertrauen	genießen	sonnig	krank	gierig	töten	versagen	gemein	sterben	47pct	acq_USunple_CSunple1_noRW	acq23456_noRW	3	1	0	0	300	300	482	46	0	1	1	blank2r.bmp	0	1	+	0	1	blank2r.bmp	252	1	ZHHZ	306	1	krank	559	0	0	0	0	0	0	0	0	0	0	0	0	0	0	0	0	0	0	0	0	0	0	0	0	0	0	0	0	0	0	0	0	0	0	0	0	0	0	0
072219	13:42:48	13:48:48	359129	5.0.10.0	5_exp_noRW	72	Rpleas_acq	CS_A	LWWL	DXXD	ZHHZ	CPPC	YFFY	JQQJ	küssen	gütig	träumen	vertrauen	genießen	sonnig	krank	gierig	töten	versagen	gemein	sterben	47pct	acq_USunple_CSunple2_noRW	acq23456_noRW	3	2	0	0	300	300	457	46	0	1	1	blank2r.bmp	0	1	+	0	1	blank2r.bmp	252	1	CPPC	306	1	versagen	559	0	0	0	0	0	0	0	0	0	0	0	0	0	0	0	0	0	0	0	0	0	0	0	0	0	0	0	0	0	0	0	0	0	0	0	0	0	0	0
072219	13:42:48	13:48:50	361008	5.0.10.0	5_exp_noRW	72	Rpleas_acq	CS_A	LWWL	DXXD	ZHHZ	CPPC	YFFY	JQQJ	küssen	gütig	träumen	vertrauen	genießen	sonnig	krank	gierig	töten	versagen	gemein	sterben	47pct	acq_USunple_CSpleas1_noRW	acq23456_noRW	3	3	0	0	300	300	711	46	0	1	1	blank2r.bmp	0	1	+	0	1	blank2r.bmp	252	1	LWWL	306	3	töten	559	0	0	0	0	0	0	0	0	0	0	0	0	0	0	0	0	0	0	0	0	0	0	0	0	0	0	0	0	0	0	0	0	0	0	0	0	0	0	0
072219	13:42:48	13:48:52	362794	5.0.10.0	5_exp_noRW	72	Rpleas_acq	CS_A	LWWL	DXXD	ZHHZ	CPPC	YFFY	JQQJ	küssen	gütig	träumen	vertrauen	genießen	sonnig	krank	gierig	töten	versagen	gemein	sterben	47pct	acq_USpleas_CSunple2_noRW	acq23456_noRW	3	4	0	0	300	300	609	50	0	1	1	blank2r.bmp	0	1	+	0	1	blank2r.bmp	252	1	CPPC	306	2	genießen	559	0	0	0	0	0	0	0	0	0	0	0	0	0	0	0	0	0	0	0	0	0	0	0	0	0	0	0	0	0	0	0	0	0	0	0	0	0	0	0
072219	13:42:48	13:48:53	364554	5.0.10.0	5_exp_noRW	72	Rpleas_acq	CS_A	LWWL	DXXD	ZHHZ	CPPC	YFFY	JQQJ	küssen	gütig	träumen	vertrauen	genießen	sonnig	krank	gierig	töten	versagen	gemein	sterben	53pct	acq_USunple_CSunple2_noRW	acq23456_noRW	3	5	0	0	300	300	593	46	0	1	1	blank2r.bmp	0	1	+	0	1	blank2r.bmp	252	1	CPPC	306	3	sterben	559	0	0	0	0	0	0	0	0	0	0	0	0	0	0	0	0	0	0	0	0	0	0	0	0	0	0	0	0	0	0	0	0	0	0	0	0	0	0	0
072219	13:42:48	13:48:56	366673	5.0.10.0	5_exp_noRW	72	Rpleas_acq	CS_A	LWWL	DXXD	ZHHZ	CPPC	YFFY	JQQJ	küssen	gütig	träumen	vertrauen	genießen	sonnig	krank	gierig	töten	versagen	gemein	sterben	53pct	acq_USunple_CSunple1_noRW	acq23456_noRW	3	6	0	0	300	300	934	46	0	1	1	blank2r.bmp	0	1	+	0	1	blank2r.bmp	252	1	ZHHZ	306	2	gierig	559	0	0	0	0	0	0	0	0	0	0	0	0	0	0	0	0	0	0	0	0	0	0	0	0	0	0	0	0	0	0	0	0	0	0	0	0	0	0	0
072219	13:42:48	13:48:57	368299	5.0.10.0	5_exp_noRW	72	Rpleas_acq	CS_A	LWWL	DXXD	ZHHZ	CPPC	YFFY	JQQJ	küssen	gütig	träumen	vertrauen	genießen	sonnig	krank	gierig	töten	versagen	gemein	sterben	53pct	acq_USunple_CSunple1_noRW	acq23456_noRW	3	7	0	0	300	300	461	46	0	1	1	blank2r.bmp	0	1	+	0	1	blank2r.bmp	252	1	ZHHZ	306	3	töten	559	0	0	0	0	0	0	0	0	0	0	0	0	0	0	0	0	0	0	0	0	0	0	0	0	0	0	0	0	0	0	0	0	0	0	0	0	0	0	0
072219	13:42:48	13:48:59	370005	5.0.10.0	5_exp_noRW	72	Rpleas_acq	CS_A	LWWL	DXXD	ZHHZ	CPPC	YFFY	JQQJ	küssen	gütig	träumen	vertrauen	genießen	sonnig	krank	gierig	töten	versagen	gemein	sterben	47pct	acq_USpleas_CSpleas1_noRW	acq23456_noRW	3	8	0	0	300	300	521	50	0	1	1	blank2r.bmp	0	1	+	0	1	blank2r.bmp	252	1	LWWL	306	3	träumen	559	0	0	0	0	0	0	0	0	0	0	0	0	0	0	0	0	0	0	0	0	0	0	0	0	0	0	0	0	0	0	0	0	0	0	0	0	0	0	0
072219	13:42:48	13:49:02	372763	5.0.10.0	5_exp_noRW	72	Rpleas_acq	CS_A	LWWL	DXXD	ZHHZ	CPPC	YFFY	JQQJ	küssen	gütig	träumen	vertrauen	genießen	sonnig	krank	gierig	töten	versagen	gemein	sterben	47pct	acq_USunple_CSunple2_noRW	acq23456_noRW	3	9	0	0	300	300	1586	46	0	1	1	blank2r.bmp	0	1	+	0	1	blank2r.bmp	252	1	CPPC	306	1	versagen	559	0	0	0	0	0	0	0	0	0	0	0	0	0	0	0	0	0	0	0	0	0	0	0	0	0	0	0	0	0	0	0	0	0	0	0	0	0	0	0
072219	13:42:48	13:49:03	374403	5.0.10.0	5_exp_noRW	72	Rpleas_acq	CS_A	LWWL	DXXD	ZHHZ	CPPC	YFFY	JQQJ	küssen	gütig	träumen	vertrauen	genießen	sonnig	krank	gierig	töten	versagen	gemein	sterben	53pct	acq_USpleas_CSpleas2_noRW	acq23456_noRW	3	10	0	0	300	300	469	50	0	1	1	blank2r.bmp	0	1	+	0	1	blank2r.bmp	252	1	DXXD	306	3	sonnig	559	0	0	0	0	0	0	0	0	0	0	0	0	0	0	0	0	0	0	0	0	0	0	0	0	0	0	0	0	0	0	0	0	0	0	0	0	0	0	0
072219	13:42:48	13:49:05	376202	5.0.10.0	5_exp_noRW	72	Rpleas_acq	CS_A	LWWL	DXXD	ZHHZ	CPPC	YFFY	JQQJ	küssen	gütig	träumen	vertrauen	genießen	sonnig	krank	gierig	töten	versagen	gemein	sterben	53pct	acq_USpleas_CSpleas2_noRW	acq23456_noRW	3	11	0	0	300	300	625	50	0	1	1	blank2r.bmp	0	1	+	0	1	blank2r.bmp	252	1	DXXD	306	3	sonnig	559	0	0	0	0	0	0	0	0	0	0	0	0	0	0	0	0	0	0	0	0	0	0	0	0	0	0	0	0	0	0	0	0	0	0	0	0	0	0	0
072219	13:42:48	13:49:07	378121	5.0.10.0	5_exp_noRW	72	Rpleas_acq	CS_A	LWWL	DXXD	ZHHZ	CPPC	YFFY	JQQJ	küssen	gütig	träumen	vertrauen	genießen	sonnig	krank	gierig	töten	versagen	gemein	sterben	47pct	acq_USunple_CSunple2_noRW	acq23456_noRW	3	12	0	0	300	300	753	46	0	1	1	blank2r.bmp	0	1	+	0	1	blank2r.bmp	252	1	CPPC	306	2	gemein	559	0	0	0	0	0	0	0	0	0	0	0	0	0	0	0	0	0	0	0	0	0	0	0	0	0	0	0	0	0	0	0	0	0	0	0	0	0	0	0
072219	13:42:48	13:49:09	379720	5.0.10.0	5_exp_noRW	72	Rpleas_acq	CS_A	LWWL	DXXD	ZHHZ	CPPC	YFFY	JQQJ	küssen	gütig	träumen	vertrauen	genießen	sonnig	krank	gierig	töten	versagen	gemein	sterben	53pct	acq_USpleas_CSunple1_noRW	acq23456_noRW	3	13	0	0	300	300	424	50	0	1	1	blank2r.bmp	0	1	+	0	1	blank2r.bmp	252	1	ZHHZ	306	1	küssen	559	0	0	0	0	0	0	0	0	0	0	0	0	0	0	0	0	0	0	0	0	0	0	0	0	0	0	0	0	0	0	0	0	0	0	0	0	0	0	0
072219	13:42:48	13:49:10	381640	5.0.10.0	5_exp_noRW	72	Rpleas_acq	CS_A	LWWL	DXXD	ZHHZ	CPPC	YFFY	JQQJ	küssen	gütig	träumen	vertrauen	genießen	sonnig	krank	gierig	töten	versagen	gemein	sterben	53pct	acq_USpleas_CSpleas2_noRW	acq23456_noRW	3	14	0	0	300	300	755	50	0	1	1	blank2r.bmp	0	1	+	0	1	blank2r.bmp	252	1	DXXD	306	1	vertrauen	559	0	0	0	0	0	0	0	0	0	0	0	0	0	0	0	0	0	0	0	0	0	0	0	0	0	0	0	0	0	0	0	0	0	0	0	0	0	0	0
072219	13:42:48	13:49:12	383186	5.0.10.0	5_exp_noRW	72	Rpleas_acq	CS_A	LWWL	DXXD	ZHHZ	CPPC	YFFY	JQQJ	küssen	gütig	träumen	vertrauen	genießen	sonnig	krank	gierig	töten	versagen	gemein	sterben	53pct	acq_USpleas_CSpleas1_noRW	acq23456_noRW	3	15	0	0	300	300	383	50	0	1	1	blank2r.bmp	0	1	+	0	1	blank2r.bmp	252	1	LWWL	306	1	küssen	559	0	0	0	0	0	0	0	0	0	0	0	0	0	0	0	0	0	0	0	0	0	0	0	0	0	0	0	0	0	0	0	0	0	0	0	0	0	0	0
072219	13:42:48	13:49:14	385212	5.0.10.0	5_exp_noRW	72	Rpleas_acq	CS_A	LWWL	DXXD	ZHHZ	CPPC	YFFY	JQQJ	küssen	gütig	träumen	vertrauen	genießen	sonnig	krank	gierig	töten	versagen	gemein	sterben	53pct	acq_USpleas_CSpleas1_noRW	acq23456_noRW	3	16	0	0	300	300	839	50	0	1	1	blank2r.bmp	0	1	+	0	1	blank2r.bmp	252	1	LWWL	306	2	gütig	559	0	0	0	0	0	0	0	0	0	0	0	0	0	0	0	0	0	0	0	0	0	0	0	0	0	0	0	0	0	0	0	0	0	0	0	0	0	0	0
072219	13:42:48	13:49:16	386838	5.0.10.0	5_exp_noRW	72	Rpleas_acq	CS_A	LWWL	DXXD	ZHHZ	CPPC	YFFY	JQQJ	küssen	gütig	träumen	vertrauen	genießen	sonnig	krank	gierig	töten	versagen	gemein	sterben	47pct	acq_USpleas_CSpleas2_noRW	acq23456_noRW	3	17	0	0	300	300	449	50	0	1	1	blank2r.bmp	0	1	+	0	1	blank2r.bmp	252	1	DXXD	306	2	genießen	559	0	0	0	0	0	0	0	0	0	0	0	0	0	0	0	0	0	0	0	0	0	0	0	0	0	0	0	0	0	0	0	0	0	0	0	0	0	0	0
072219	13:42:48	13:49:17	388623	5.0.10.0	5_exp_noRW	72	Rpleas_acq	CS_A	LWWL	DXXD	ZHHZ	CPPC	YFFY	JQQJ	küssen	gütig	träumen	vertrauen	genießen	sonnig	krank	gierig	töten	versagen	gemein	sterben	53pct	acq_USunple_CSpleas2_noRW	acq23456_noRW	3	18	0	0	300	300	398	50	0	0	1	blank2r.bmp	0	1	+	0	1	blank2r.bmp	252	1	DXXD	306	1	versagen	559	1	FEHLER	999	0	0	0	0	0	0	0	0	0	0	0	0	0	0	0	0	0	0	0	0	0	0	0	0	0	0	0	0	0	0	0	0	0	0	0	0
072219	13:42:48	13:49:19	390076	5.0.10.0	5_exp_noRW	72	Rpleas_acq	CS_A	LWWL	DXXD	ZHHZ	CPPC	YFFY	JQQJ	küssen	gütig	träumen	vertrauen	genießen	sonnig	krank	gierig	töten	versagen	gemein	sterben	47pct	acq_USunple_CSunple1_noRW	acq23456_noRW	3	19	0	0	300	300	472	46	0	1	1	blank2r.bmp	0	1	+	0	1	blank2r.bmp	252	1	ZHHZ	306	1	krank	559	0	0	0	0	0	0	0	0	0	0	0	0	0	0	0	0	0	0	0	0	0	0	0	0	0	0	0	0	0	0	0	0	0	0	0	0	0	0	0
072219	13:42:48	13:49:21	391755	5.0.10.0	5_exp_noRW	72	Rpleas_acq	CS_A	LWWL	DXXD	ZHHZ	CPPC	YFFY	JQQJ	küssen	gütig	träumen	vertrauen	genießen	sonnig	krank	gierig	töten	versagen	gemein	sterben	53pct	acq_USpleas_CSpleas1_noRW	acq23456_noRW	3	20	0	0	300	300	502	50	0	1	1	blank2r.bmp	0	1	+	0	1	blank2r.bmp	252	1	LWWL	306	3	träumen	559	0	0	0	0	0	0	0	0	0	0	0	0	0	0	0	0	0	0	0	0	0	0	0	0	0	0	0	0	0	0	0	0	0	0	0	0	0	0	0
072219	13:42:48	13:49:23	393755	5.0.10.0	5_exp_noRW	72	Rpleas_acq	CS_A	LWWL	DXXD	ZHHZ	CPPC	YFFY	JQQJ	küssen	gütig	träumen	vertrauen	genießen	sonnig	krank	gierig	töten	versagen	gemein	sterben	53pct	acq_USpleas_CSunple1_noRW	acq23456_noRW	3	21	0	0	300	300	814	50	0	1	1	blank2r.bmp	0	1	+	0	1	blank2r.bmp	252	1	ZHHZ	306	2	gütig	559	0	0	0	0	0	0	0	0	0	0	0	0	0	0	0	0	0	0	0	0	0	0	0	0	0	0	0	0	0	0	0	0	0	0	0	0	0	0	0
072219	13:42:48	13:49:24	395394	5.0.10.0	5_exp_noRW	72	Rpleas_acq	CS_A	LWWL	DXXD	ZHHZ	CPPC	YFFY	JQQJ	küssen	gütig	träumen	vertrauen	genießen	sonnig	krank	gierig	töten	versagen	gemein	sterben	47pct	acq_USunple_CSunple1_noRW	acq23456_noRW	3	22	0	0	300	300	474	46	0	1	1	blank2r.bmp	0	1	+	0	1	blank2r.bmp	252	1	ZHHZ	306	1	krank	559	0	0	0	0	0	0	0	0	0	0	0	0	0	0	0	0	0	0	0	0	0	0	0	0	0	0	0	0	0	0	0	0	0	0	0	0	0	0	0
072219	13:42:48	13:49:26	397233	5.0.10.0	5_exp_noRW	72	Rpleas_acq	CS_A	LWWL	DXXD	ZHHZ	CPPC	YFFY	JQQJ	küssen	gütig	träumen	vertrauen	genießen	sonnig	krank	gierig	töten	versagen	gemein	sterben	47pct	acq_USunple_CSunple2_noRW	acq23456_noRW	3	23	0	0	300	300	664	46	0	1	1	blank2r.bmp	0	1	+	0	1	blank2r.bmp	252	1	CPPC	306	1	versagen	559	0	0	0	0	0	0	0	0	0	0	0	0	0	0	0	0	0	0	0	0	0	0	0	0	0	0	0	0	0	0	0	0	0	0	0	0	0	0	0
072219	13:42:48	13:49:29	399659	5.0.10.0	5_exp_noRW	72	Rpleas_acq	CS_A	LWWL	DXXD	ZHHZ	CPPC	YFFY	JQQJ	küssen	gütig	träumen	vertrauen	genießen	sonnig	krank	gierig	töten	versagen	gemein	sterben	53pct	acq_USpleas_CSpleas1_noRW	acq23456_noRW	3	24	0	0	300	300	1238	50	0	1	1	blank2r.bmp	0	1	+	0	1	blank2r.bmp	252	1	LWWL	306	3	träumen	559	0	0	0	0	0	0	0	0	0	0	0	0	0	0	0	0	0	0	0	0	0	0	0	0	0	0	0	0	0	0	0	0	0	0	0	0	0	0	0
072219	13:42:48	13:49:30	401351	5.0.10.0	5_exp_noRW	72	Rpleas_acq	CS_A	LWWL	DXXD	ZHHZ	CPPC	YFFY	JQQJ	küssen	gütig	träumen	vertrauen	genießen	sonnig	krank	gierig	töten	versagen	gemein	sterben	47pct	acq_USunple_CSunple1_noRW	acq23456_noRW	3	25	0	0	300	300	520	46	0	1	1	blank2r.bmp	0	1	+	0	1	blank2r.bmp	252	1	ZHHZ	306	2	gierig	559	0	0	0	0	0	0	0	0	0	0	0	0	0	0	0	0	0	0	0	0	0	0	0	0	0	0	0	0	0	0	0	0	0	0	0	0	0	0	0
072219	13:42:48	13:49:32	403151	5.0.10.0	5_exp_noRW	72	Rpleas_acq	CS_A	LWWL	DXXD	ZHHZ	CPPC	YFFY	JQQJ	küssen	gütig	träumen	vertrauen	genießen	sonnig	krank	gierig	töten	versagen	gemein	sterben	53pct	acq_USpleas_CSpleas1_noRW	acq23456_noRW	3	26	0	0	300	300	625	50	0	1	1	blank2r.bmp	0	1	+	0	1	blank2r.bmp	252	1	LWWL	306	1	küssen	559	0	0	0	0	0	0	0	0	0	0	0	0	0	0	0	0	0	0	0	0	0	0	0	0	0	0	0	0	0	0	0	0	0	0	0	0	0	0	0
072219	13:42:48	13:49:34	404843	5.0.10.0	5_exp_noRW	72	Rpleas_acq	CS_A	LWWL	DXXD	ZHHZ	CPPC	YFFY	JQQJ	küssen	gütig	träumen	vertrauen	genießen	sonnig	krank	gierig	töten	versagen	gemein	sterben	47pct	acq_USpleas_CSpleas2_noRW	acq23456_noRW	3	27	0	0	300	300	510	50	0	1	1	blank2r.bmp	0	1	+	0	1	blank2r.bmp	252	1	DXXD	306	3	sonnig	559	0	0	0	0	0	0	0	0	0	0	0	0	0	0	0	0	0	0	0	0	0	0	0	0	0	0	0	0	0	0	0	0	0	0	0	0	0	0	0
072219	13:42:48	13:49:35	406523	5.0.10.0	5_exp_noRW	72	Rpleas_acq	CS_A	LWWL	DXXD	ZHHZ	CPPC	YFFY	JQQJ	küssen	gütig	träumen	vertrauen	genießen	sonnig	krank	gierig	töten	versagen	gemein	sterben	47pct	acq_USunple_CSpleas2_noRW	acq23456_noRW	3	28	0	0	300	300	505	46	0	1	1	blank2r.bmp	0	1	+	0	1	blank2r.bmp	252	1	DXXD	306	1	versagen	559	0	0	0	0	0	0	0	0	0	0	0	0	0	0	0	0	0	0	0	0	0	0	0	0	0	0	0	0	0	0	0	0	0	0	0	0	0	0	0
072219	13:42:48	13:49:37	408482	5.0.10.0	5_exp_noRW	72	Rpleas_acq	CS_A	LWWL	DXXD	ZHHZ	CPPC	YFFY	JQQJ	küssen	gütig	träumen	vertrauen	genießen	sonnig	krank	gierig	töten	versagen	gemein	sterben	53pct	acq_USunple_CSunple2_noRW	acq23456_noRW	3	29	0	0	300	300	786	46	0	1	1	blank2r.bmp	0	1	+	0	1	blank2r.bmp	252	1	CPPC	306	3	sterben	559	0	0	0	0	0	0	0	0	0	0	0	0	0	0	0	0	0	0	0	0	0	0	0	0	0	0	0	0	0	0	0	0	0	0	0	0	0	0	0
072219	13:42:48	13:49:39	410094	5.0.10.0	5_exp_noRW	72	Rpleas_acq	CS_A	LWWL	DXXD	ZHHZ	CPPC	YFFY	JQQJ	küssen	gütig	träumen	vertrauen	genießen	sonnig	krank	gierig	töten	versagen	gemein	sterben	53pct	acq_USunple_CSunple2_noRW	acq23456_noRW	3	30	0	0	300	300	446	46	0	1	1	blank2r.bmp	0	1	+	0	1	blank2r.bmp	252	1	CPPC	306	2	gemein	559	0	0	0	0	0	0	0	0	0	0	0	0	0	0	0	0	0	0	0	0	0	0	0	0	0	0	0	0	0	0	0	0	0	0	0	0	0	0	0
072219	13:42:48	13:49:41	412174	5.0.10.0	5_exp_noRW	72	Rpleas_acq	CS_A	LWWL	DXXD	ZHHZ	CPPC	YFFY	JQQJ	küssen	gütig	träumen	vertrauen	genießen	sonnig	krank	gierig	töten	versagen	gemein	sterben	47pct	acq_USpleas_CSpleas1_noRW	acq23456_noRW	3	31	0	0	300	300	910	50	0	1	1	blank2r.bmp	0	1	+	0	1	blank2r.bmp	252	1	LWWL	306	2	gütig	559	0	0	0	0	0	0	0	0	0	0	0	0	0	0	0	0	0	0	0	0	0	0	0	0	0	0	0	0	0	0	0	0	0	0	0	0	0	0	0
072219	13:42:48	13:49:43	413999	5.0.10.0	5_exp_noRW	72	Rpleas_acq	CS_A	LWWL	DXXD	ZHHZ	CPPC	YFFY	JQQJ	küssen	gütig	träumen	vertrauen	genießen	sonnig	krank	gierig	töten	versagen	gemein	sterben	47pct	acq_USunple_CSunple2_noRW	acq23456_noRW	3	32	0	0	300	300	465	50	0	0	1	blank2r.bmp	0	1	+	0	1	blank2r.bmp	252	1	CPPC	306	3	sterben	559	1	FEHLER	1052	0	0	0	0	0	0	0	0	0	0	0	0	0	0	0	0	0	0	0	0	0	0	0	0	0	0	0	0	0	0	0	0	0	0	0	0
072219	13:42:48	13:49:44	415559	5.0.10.0	5_exp_noRW	72	Rpleas_acq	CS_A	LWWL	DXXD	ZHHZ	CPPC	YFFY	JQQJ	küssen	gütig	träumen	vertrauen	genießen	sonnig	krank	gierig	töten	versagen	gemein	sterben	53pct	acq_USpleas_CSpleas1_noRW	acq23456_noRW	3	33	0	0	300	300	580	50	0	1	1	blank2r.bmp	0	1	+	0	1	blank2r.bmp	252	1	LWWL	306	3	träumen	559	0	0	0	0	0	0	0	0	0	0	0	0	0	0	0	0	0	0	0	0	0	0	0	0	0	0	0	0	0	0	0	0	0	0	0	0	0	0	0
072219	13:42:48	13:49:46	417318	5.0.10.0	5_exp_noRW	72	Rpleas_acq	CS_A	LWWL	DXXD	ZHHZ	CPPC	YFFY	JQQJ	küssen	gütig	träumen	vertrauen	genießen	sonnig	krank	gierig	töten	versagen	gemein	sterben	53pct	acq_USunple_CSunple1_noRW	acq23456_noRW	3	34	0	0	300	300	578	46	0	1	1	blank2r.bmp	0	1	+	0	1	blank2r.bmp	252	1	ZHHZ	306	3	töten	559	0	0	0	0	0	0	0	0	0	0	0	0	0	0	0	0	0	0	0	0	0	0	0	0	0	0	0	0	0	0	0	0	0	0	0	0	0	0	0
072219	13:42:48	13:49:48	418944	5.0.10.0	5_exp_noRW	72	Rpleas_acq	CS_A	LWWL	DXXD	ZHHZ	CPPC	YFFY	JQQJ	küssen	gütig	träumen	vertrauen	genießen	sonnig	krank	gierig	töten	versagen	gemein	sterben	47pct	acq_USpleas_CSpleas2_noRW	acq23456_noRW	3	35	0	0	300	300	461	50	0	1	1	blank2r.bmp	0	1	+	0	1	blank2r.bmp	252	1	DXXD	306	2	genießen	559	0	0	0	0	0	0	0	0	0	0	0	0	0	0	0	0	0	0	0	0	0	0	0	0	0	0	0	0	0	0	0	0	0	0	0	0	0	0	0
072219	13:42:48	13:49:49	420543	5.0.10.0	5_exp_noRW	72	Rpleas_acq	CS_A	LWWL	DXXD	ZHHZ	CPPC	YFFY	JQQJ	küssen	gütig	träumen	vertrauen	genießen	sonnig	krank	gierig	töten	versagen	gemein	sterben	47pct	acq_USpleas_CSunple2_noRW	acq23456_noRW	3	36	0	0	300	300	420	50	0	1	1	blank2r.bmp	0	1	+	0	1	blank2r.bmp	252	1	CPPC	306	1	vertrauen	559	0	0	0	0	0	0	0	0	0	0	0	0	0	0	0	0	0	0	0	0	0	0	0	0	0	0	0	0	0	0	0	0	0	0	0	0	0	0	0
072219	13:42:48	13:49:51	422129	5.0.10.0	5_exp_noRW	72	Rpleas_acq	CS_A	LWWL	DXXD	ZHHZ	CPPC	YFFY	JQQJ	küssen	gütig	träumen	vertrauen	genießen	sonnig	krank	gierig	töten	versagen	gemein	sterben	47pct	acq_USpleas_CSpleas2_noRW	acq23456_noRW	3	37	0	0	300	300	405	50	0	1	1	blank2r.bmp	0	1	+	0	1	blank2r.bmp	252	1	DXXD	306	1	vertrauen	559	0	0	0	0	0	0	0	0	0	0	0	0	0	0	0	0	0	0	0	0	0	0	0	0	0	0	0	0	0	0	0	0	0	0	0	0	0	0	0
072219	13:42:48	13:49:53	423689	5.0.10.0	5_exp_noRW	72	Rpleas_acq	CS_A	LWWL	DXXD	ZHHZ	CPPC	YFFY	JQQJ	küssen	gütig	träumen	vertrauen	genießen	sonnig	krank	gierig	töten	versagen	gemein	sterben	47pct	acq_USpleas_CSpleas2_noRW	acq23456_noRW	3	38	0	0	300	300	378	50	0	1	1	blank2r.bmp	0	1	+	0	1	blank2r.bmp	252	1	DXXD	306	1	vertrauen	559	0	0	0	0	0	0	0	0	0	0	0	0	0	0	0	0	0	0	0	0	0	0	0	0	0	0	0	0	0	0	0	0	0	0	0	0	0	0	0
072219	13:42:48	13:49:54	425328	5.0.10.0	5_exp_noRW	72	Rpleas_acq	CS_A	LWWL	DXXD	ZHHZ	CPPC	YFFY	JQQJ	küssen	gütig	träumen	vertrauen	genießen	sonnig	krank	gierig	töten	versagen	gemein	sterben	53pct	acq_USunple_CSpleas1_noRW	acq23456_noRW	3	39	0	0	300	300	462	46	0	1	1	blank2r.bmp	0	1	+	0	1	blank2r.bmp	252	1	LWWL	306	1	krank	559	0	0	0	0	0	0	0	0	0	0	0	0	0	0	0	0	0	0	0	0	0	0	0	0	0	0	0	0	0	0	0	0	0	0	0	0	0	0	0
072219	13:42:48	13:49:56	427501	5.0.10.0	5_exp_noRW	72	Rpleas_acq	CS_A	LWWL	DXXD	ZHHZ	CPPC	YFFY	JQQJ	küssen	gütig	träumen	vertrauen	genießen	sonnig	krank	gierig	töten	versagen	gemein	sterben	53pct	acq_USunple_CSunple1_noRW	acq23456_noRW	3	40	0	0	300	300	784	50	0	0	1	blank2r.bmp	0	1	+	0	1	blank2r.bmp	252	1	ZHHZ	306	2	gierig	559	1	FEHLER	1372	0	0	0	0	0	0	0	0	0	0	0	0	0	0	0	0	0	0	0	0	0	0	0	0	0	0	0	0	0	0	0	0	0	0	0	0
072219	13:42:48	13:49:58	429007	5.0.10.0	5_exp_noRW	72	Rpleas_acq	CS_A	LWWL	DXXD	ZHHZ	CPPC	YFFY	JQQJ	küssen	gütig	träumen	vertrauen	genießen	sonnig	krank	gierig	töten	versagen	gemein	sterben	53pct	acq_USunple_CSunple2_noRW	acq23456_noRW	3	41	0	0	300	300	541	46	0	1	1	blank2r.bmp	0	1	+	0	1	blank2r.bmp	252	1	CPPC	306	1	versagen	559	0	0	0	0	0	0	0	0	0	0	0	0	0	0	0	0	0	0	0	0	0	0	0	0	0	0	0	0	0	0	0	0	0	0	0	0	0	0	0
072219	13:42:48	13:50:00	430686	5.0.10.0	5_exp_noRW	72	Rpleas_acq	CS_A	LWWL	DXXD	ZHHZ	CPPC	YFFY	JQQJ	küssen	gütig	träumen	vertrauen	genießen	sonnig	krank	gierig	töten	versagen	gemein	sterben	53pct	acq_USunple_CSunple2_noRW	acq23456_noRW	3	42	0	0	300	300	501	46	0	1	1	blank2r.bmp	0	1	+	0	1	blank2r.bmp	252	1	CPPC	306	2	gemein	559	0	0	0	0	0	0	0	0	0	0	0	0	0	0	0	0	0	0	0	0	0	0	0	0	0	0	0	0	0	0	0	0	0	0	0	0	0	0	0
072219	13:42:48	13:50:01	432418	5.0.10.0	5_exp_noRW	72	Rpleas_acq	CS_A	LWWL	DXXD	ZHHZ	CPPC	YFFY	JQQJ	küssen	gütig	träumen	vertrauen	genießen	sonnig	krank	gierig	töten	versagen	gemein	sterben	47pct	acq_USpleas_CSpleas2_noRW	acq23456_noRW	3	43	0	0	300	300	563	50	0	1	1	blank2r.bmp	0	1	+	0	1	blank2r.bmp	252	1	DXXD	306	3	sonnig	559	0	0	0	0	0	0	0	0	0	0	0	0	0	0	0	0	0	0	0	0	0	0	0	0	0	0	0	0	0	0	0	0	0	0	0	0	0	0	0
072219	13:42:48	13:50:03	434231	5.0.10.0	5_exp_noRW	72	Rpleas_acq	CS_A	LWWL	DXXD	ZHHZ	CPPC	YFFY	JQQJ	küssen	gütig	träumen	vertrauen	genießen	sonnig	krank	gierig	töten	versagen	gemein	sterben	47pct	acq_USunple_CSpleas2_noRW	acq23456_noRW	3	44	0	0	300	300	644	46	0	1	1	blank2r.bmp	0	1	+	0	1	blank2r.bmp	252	1	DXXD	306	2	gemein	559	0	0	0	0	0	0	0	0	0	0	0	0	0	0	0	0	0	0	0	0	0	0	0	0	0	0	0	0	0	0	0	0	0	0	0	0	0	0	0
072219	13:42:48	13:50:05	436057	5.0.10.0	5_exp_noRW	72	Rpleas_acq	CS_A	LWWL	DXXD	ZHHZ	CPPC	YFFY	JQQJ	küssen	gütig	träumen	vertrauen	genießen	sonnig	krank	gierig	töten	versagen	gemein	sterben	53pct	acq_USunple_CSunple1_noRW	acq23456_noRW	3	45	0	0	300	300	662	46	0	1	1	blank2r.bmp	0	1	+	0	1	blank2r.bmp	252	1	ZHHZ	306	1	krank	559	0	0	0	0	0	0	0	0	0	0	0	0	0	0	0	0	0	0	0	0	0	0	0	0	0	0	0	0	0	0	0	0	0	0	0	0	0	0	0
072219	13:42:48	13:50:07	437830	5.0.10.0	5_exp_noRW	72	Rpleas_acq	CS_A	LWWL	DXXD	ZHHZ	CPPC	YFFY	JQQJ	küssen	gütig	träumen	vertrauen	genießen	sonnig	krank	gierig	töten	versagen	gemein	sterben	53pct	acq_USpleas_CSpleas1_noRW	acq23456_noRW	3	46	0	0	300	300	592	50	0	1	1	blank2r.bmp	0	1	+	0	1	blank2r.bmp	252	1	LWWL	306	2	gütig	559	0	0	0	0	0	0	0	0	0	0	0	0	0	0	0	0	0	0	0	0	0	0	0	0	0	0	0	0	0	0	0	0	0	0	0	0	0	0	0
072219	13:42:48	13:50:08	439416	5.0.10.0	5_exp_noRW	72	Rpleas_acq	CS_A	LWWL	DXXD	ZHHZ	CPPC	YFFY	JQQJ	küssen	gütig	träumen	vertrauen	genießen	sonnig	krank	gierig	töten	versagen	gemein	sterben	53pct	acq_USpleas_CSpleas2_noRW	acq23456_noRW	3	47	0	0	300	300	412	50	0	1	1	blank2r.bmp	0	1	+	0	1	blank2r.bmp	252	1	DXXD	306	2	genießen	559	0	0	0	0	0	0	0	0	0	0	0	0	0	0	0	0	0	0	0	0	0	0	0	0	0	0	0	0	0	0	0	0	0	0	0	0	0	0	0
072219	13:42:48	13:50:10	440975	5.0.10.0	5_exp_noRW	72	Rpleas_acq	CS_A	LWWL	DXXD	ZHHZ	CPPC	YFFY	JQQJ	küssen	gütig	träumen	vertrauen	genießen	sonnig	krank	gierig	töten	versagen	gemein	sterben	53pct	acq_USpleas_CSpleas1_noRW	acq23456_noRW	3	48	0	0	300	300	386	50	0	1	1	blank2r.bmp	0	1	+	0	1	blank2r.bmp	252	1	LWWL	306	1	küssen	559	0	0	0	0	0	0	0	0	0	0	0	0	0	0	0	0	0	0	0	0	0	0	0	0	0	0	0	0	0	0	0	0	0	0	0	0	0	0	0
072219	13:42:48	13:50:11	442521	5.0.10.0	5_exp_noRW	72	Rpleas_acq	CS_A	LWWL	DXXD	ZHHZ	CPPC	YFFY	JQQJ	küssen	gütig	träumen	vertrauen	genießen	sonnig	krank	gierig	töten	versagen	gemein	sterben	53pct	acq_USpleas_CSunple2_noRW	acq23456_noRW	3	49	0	0	300	300	375	50	0	1	1	blank2r.bmp	0	1	+	0	1	blank2r.bmp	252	1	CPPC	306	3	sonnig	559	0	0	0	0	0	0	0	0	0	0	0	0	0	0	0	0	0	0	0	0	0	0	0	0	0	0	0	0	0	0	0	0	0	0	0	0	0	0	0
072219	13:42:48	13:50:13	444107	5.0.10.0	5_exp_noRW	72	Rpleas_acq	CS_A	LWWL	DXXD	ZHHZ	CPPC	YFFY	JQQJ	küssen	gütig	träumen	vertrauen	genießen	sonnig	krank	gierig	töten	versagen	gemein	sterben	53pct	acq_USunple_CSunple2_noRW	acq23456_noRW	3	50	0	0	300	300	408	46	0	1	1	blank2r.bmp	0	1	+	0	1	blank2r.bmp	252	1	CPPC	306	1	versagen	559	0	0	0	0	0	0	0	0	0	0	0	0	0	0	0	0	0	0	0	0	0	0	0	0	0	0	0	0	0	0	0	0	0	0	0	0	0	0	0
072219	13:42:48	13:50:15	445773	5.0.10.0	5_exp_noRW	72	Rpleas_acq	CS_A	LWWL	DXXD	ZHHZ	CPPC	YFFY	JQQJ	küssen	gütig	träumen	vertrauen	genießen	sonnig	krank	gierig	töten	versagen	gemein	sterben	47pct	acq_USpleas_CSpleas1_noRW	acq23456_noRW	3	51	0	0	300	300	483	50	0	1	1	blank2r.bmp	0	1	+	0	1	blank2r.bmp	252	1	LWWL	306	3	träumen	559	0	0	0	0	0	0	0	0	0	0	0	0	0	0	0	0	0	0	0	0	0	0	0	0	0	0	0	0	0	0	0	0	0	0	0	0	0	0	0
072219	13:42:48	13:50:16	447359	5.0.10.0	5_exp_noRW	72	Rpleas_acq	CS_A	LWWL	DXXD	ZHHZ	CPPC	YFFY	JQQJ	küssen	gütig	träumen	vertrauen	genießen	sonnig	krank	gierig	töten	versagen	gemein	sterben	47pct	acq_USpleas_CSpleas2_noRW	acq23456_noRW	3	52	0	0	300	300	420	50	0	1	1	blank2r.bmp	0	1	+	0	1	blank2r.bmp	252	1	DXXD	306	3	sonnig	559	0	0	0	0	0	0	0	0	0	0	0	0	0	0	0	0	0	0	0	0	0	0	0	0	0	0	0	0	0	0	0	0	0	0	0	0	0	0	0
072219	13:42:48	13:50:18	448998	5.0.10.0	5_exp_noRW	72	Rpleas_acq	CS_A	LWWL	DXXD	ZHHZ	CPPC	YFFY	JQQJ	küssen	gütig	träumen	vertrauen	genießen	sonnig	krank	gierig	töten	versagen	gemein	sterben	47pct	acq_USunple_CSpleas1_noRW	acq23456_noRW	3	53	0	0	300	300	461	46	0	1	1	blank2r.bmp	0	1	+	0	1	blank2r.bmp	252	1	LWWL	306	2	gierig	559	0	0	0	0	0	0	0	0	0	0	0	0	0	0	0	0	0	0	0	0	0	0	0	0	0	0	0	0	0	0	0	0	0	0	0	0	0	0	0
072219	13:42:48	13:50:20	450664	5.0.10.0	5_exp_noRW	72	Rpleas_acq	CS_A	LWWL	DXXD	ZHHZ	CPPC	YFFY	JQQJ	küssen	gütig	träumen	vertrauen	genießen	sonnig	krank	gierig	töten	versagen	gemein	sterben	47pct	acq_USpleas_CSpleas1_noRW	acq23456_noRW	3	54	0	0	300	300	486	50	0	1	1	blank2r.bmp	0	1	+	0	1	blank2r.bmp	252	1	LWWL	306	2	gütig	559	0	0	0	0	0	0	0	0	0	0	0	0	0	0	0	0	0	0	0	0	0	0	0	0	0	0	0	0	0	0	0	0	0	0	0	0	0	0	0
072219	13:42:48	13:50:21	452357	5.0.10.0	5_exp_noRW	72	Rpleas_acq	CS_A	LWWL	DXXD	ZHHZ	CPPC	YFFY	JQQJ	küssen	gütig	träumen	vertrauen	genießen	sonnig	krank	gierig	töten	versagen	gemein	sterben	47pct	acq_USunple_CSunple1_noRW	acq23456_noRW	3	55	0	0	300	300	515	46	0	1	1	blank2r.bmp	0	1	+	0	1	blank2r.bmp	252	1	ZHHZ	306	3	töten	559	0	0	0	0	0	0	0	0	0	0	0	0	0	0	0	0	0	0	0	0	0	0	0	0	0	0	0	0	0	0	0	0	0	0	0	0	0	0	0
072219	13:42:48	13:50:23	454036	5.0.10.0	5_exp_noRW	72	Rpleas_acq	CS_A	LWWL	DXXD	ZHHZ	CPPC	YFFY	JQQJ	küssen	gütig	träumen	vertrauen	genießen	sonnig	krank	gierig	töten	versagen	gemein	sterben	47pct	acq_USunple_CSunple1_noRW	acq23456_noRW	3	56	0	0	300	300	497	46	0	1	1	blank2r.bmp	0	1	+	0	1	blank2r.bmp	252	1	ZHHZ	306	1	krank	559	0	0	0	0	0	0	0	0	0	0	0	0	0	0	0	0	0	0	0	0	0	0	0	0	0	0	0	0	0	0	0	0	0	0	0	0	0	0	0
072219	13:42:48	13:50:25	455809	5.0.10.0	5_exp_noRW	72	Rpleas_acq	CS_A	LWWL	DXXD	ZHHZ	CPPC	YFFY	JQQJ	küssen	gütig	träumen	vertrauen	genießen	sonnig	krank	gierig	töten	versagen	gemein	sterben	47pct	acq_USpleas_CSunple1_noRW	acq23456_noRW	3	57	0	0	300	300	586	50	0	1	1	blank2r.bmp	0	1	+	0	1	blank2r.bmp	252	1	ZHHZ	306	3	träumen	559	0	0	0	0	0	0	0	0	0	0	0	0	0	0	0	0	0	0	0	0	0	0	0	0	0	0	0	0	0	0	0	0	0	0	0	0	0	0	0
072219	13:42:48	13:50:26	457408	5.0.10.0	5_exp_noRW	72	Rpleas_acq	CS_A	LWWL	DXXD	ZHHZ	CPPC	YFFY	JQQJ	küssen	gütig	träumen	vertrauen	genießen	sonnig	krank	gierig	töten	versagen	gemein	sterben	53pct	acq_USunple_CSunple1_noRW	acq23456_noRW	3	58	0	0	300	300	430	46	0	1	1	blank2r.bmp	0	1	+	0	1	blank2r.bmp	252	1	ZHHZ	306	3	töten	559	0	0	0	0	0	0	0	0	0	0	0	0	0	0	0	0	0	0	0	0	0	0	0	0	0	0	0	0	0	0	0	0	0	0	0	0	0	0	0
072219	13:42:48	13:50:28	459074	5.0.10.0	5_exp_noRW	72	Rpleas_acq	CS_A	LWWL	DXXD	ZHHZ	CPPC	YFFY	JQQJ	küssen	gütig	träumen	vertrauen	genießen	sonnig	krank	gierig	töten	versagen	gemein	sterben	47pct	acq_USpleas_CSpleas2_noRW	acq23456_noRW	3	59	0	0	300	300	500	50	0	1	1	blank2r.bmp	0	1	+	0	1	blank2r.bmp	252	1	DXXD	306	2	genießen	559	0	0	0	0	0	0	0	0	0	0	0	0	0	0	0	0	0	0	0	0	0	0	0	0	0	0	0	0	0	0	0	0	0	0	0	0	0	0	0
072219	13:42:48	13:50:30	460753	5.0.10.0	5_exp_noRW	72	Rpleas_acq	CS_A	LWWL	DXXD	ZHHZ	CPPC	YFFY	JQQJ	küssen	gütig	träumen	vertrauen	genießen	sonnig	krank	gierig	töten	versagen	gemein	sterben	53pct	acq_USunple_CSunple2_noRW	acq23456_noRW	3	60	0	0	300	300	503	46	0	1	1	blank2r.bmp	0	1	+	0	1	blank2r.bmp	252	1	CPPC	306	2	gemein	559	0	0	0	0	0	0	0	0	0	0	0	0	0	0	0	0	0	0	0	0	0	0	0	0	0	0	0	0	0	0	0	0	0	0	0	0	0	0	0
072219	13:42:48	13:50:31	462393	5.0.10.0	5_exp_noRW	72	Rpleas_acq	CS_A	LWWL	DXXD	ZHHZ	CPPC	YFFY	JQQJ	küssen	gütig	träumen	vertrauen	genießen	sonnig	krank	gierig	töten	versagen	gemein	sterben	53pct	acq_USunple_CSunple1_noRW	acq23456_noRW	3	61	0	0	300	300	455	46	0	1	1	blank2r.bmp	0	1	+	0	1	blank2r.bmp	252	1	ZHHZ	306	2	gierig	559	0	0	0	0	0	0	0	0	0	0	0	0	0	0	0	0	0	0	0	0	0	0	0	0	0	0	0	0	0	0	0	0	0	0	0	0	0	0	0
072219	13:42:48	13:50:33	463965	5.0.10.0	5_exp_noRW	72	Rpleas_acq	CS_A	LWWL	DXXD	ZHHZ	CPPC	YFFY	JQQJ	küssen	gütig	träumen	vertrauen	genießen	sonnig	krank	gierig	töten	versagen	gemein	sterben	47pct	acq_USpleas_CSpleas1_noRW	acq23456_noRW	3	62	0	0	300	300	408	50	0	1	1	blank2r.bmp	0	1	+	0	1	blank2r.bmp	252	1	LWWL	306	1	küssen	559	0	0	0	0	0	0	0	0	0	0	0	0	0	0	0	0	0	0	0	0	0	0	0	0	0	0	0	0	0	0	0	0	0	0	0	0	0	0	0
072219	13:42:48	13:50:34	465618	5.0.10.0	5_exp_noRW	72	Rpleas_acq	CS_A	LWWL	DXXD	ZHHZ	CPPC	YFFY	JQQJ	küssen	gütig	träumen	vertrauen	genießen	sonnig	krank	gierig	töten	versagen	gemein	sterben	47pct	acq_USpleas_CSpleas2_noRW	acq23456_noRW	3	63	0	0	300	300	468	50	0	1	1	blank2r.bmp	0	1	+	0	1	blank2r.bmp	252	1	DXXD	306	1	vertrauen	559	0	0	0	0	0	0	0	0	0	0	0	0	0	0	0	0	0	0	0	0	0	0	0	0	0	0	0	0	0	0	0	0	0	0	0	0	0	0	0
072219	13:42:48	13:50:36	467404	5.0.10.0	5_exp_noRW	72	Rpleas_acq	CS_A	LWWL	DXXD	ZHHZ	CPPC	YFFY	JQQJ	küssen	gütig	träumen	vertrauen	genießen	sonnig	krank	gierig	töten	versagen	gemein	sterben	47pct	acq_USpleas_CSpleas1_noRW	acq23456_noRW	3	64	0	0	300	300	403	46	0	0	1	blank2r.bmp	0	1	+	0	1	blank2r.bmp	252	1	LWWL	306	2	gütig	559	1	FEHLER	999	0	0	0	0	0	0	0	0	0	0	0	0	0	0	0	0	0	0	0	0	0	0	0	0	0	0	0	0	0	0	0	0	0	0	0	0
072219	13:42:48	13:50:38	468790	5.0.10.0	5_exp_noRW	72	Rpleas_acq	CS_A	LWWL	DXXD	ZHHZ	CPPC	YFFY	JQQJ	küssen	gütig	träumen	vertrauen	genießen	sonnig	krank	gierig	töten	versagen	gemein	sterben	53pct	acq_USunple_CSunple2_noRW	acq23456_noRW	3	65	0	0	300	300	437	46	0	1	1	blank2r.bmp	0	1	+	0	1	blank2r.bmp	252	1	CPPC	306	3	sterben	559	0	0	0	0	0	0	0	0	0	0	0	0	0	0	0	0	0	0	0	0	0	0	0	0	0	0	0	0	0	0	0	0	0	0	0	0	0	0	0
072219	13:42:48	13:50:39	470602	5.0.10.0	5_exp_noRW	72	Rpleas_acq	CS_A	LWWL	DXXD	ZHHZ	CPPC	YFFY	JQQJ	küssen	gütig	träumen	vertrauen	genießen	sonnig	krank	gierig	töten	versagen	gemein	sterben	47pct	acq_USunple_CSunple2_noRW	acq23456_noRW	3	66	0	0	300	300	422	50	0	0	1	blank2r.bmp	0	1	+	0	1	blank2r.bmp	252	1	CPPC	306	2	gemein	559	1	FEHLER	1012	0	0	0	0	0	0	0	0	0	0	0	0	0	0	0	0	0	0	0	0	0	0	0	0	0	0	0	0	0	0	0	0	0	0	0	0
072219	13:42:48	13:50:41	472122	5.0.10.0	5_exp_noRW	72	Rpleas_acq	CS_A	LWWL	DXXD	ZHHZ	CPPC	YFFY	JQQJ	küssen	gütig	träumen	vertrauen	genießen	sonnig	krank	gierig	töten	versagen	gemein	sterben	47pct	acq_USpleas_CSunple2_noRW	acq23456_noRW	3	67	0	0	300	300	548	50	0	1	1	blank2r.bmp	0	1	+	0	1	blank2r.bmp	252	1	CPPC	306	2	genießen	559	0	0	0	0	0	0	0	0	0	0	0	0	0	0	0	0	0	0	0	0	0	0	0	0	0	0	0	0	0	0	0	0	0	0	0	0	0	0	0
072219	13:42:48	13:50:43	474028	5.0.10.0	5_exp_noRW	72	Rpleas_acq	CS_A	LWWL	DXXD	ZHHZ	CPPC	YFFY	JQQJ	küssen	gütig	träumen	vertrauen	genießen	sonnig	krank	gierig	töten	versagen	gemein	sterben	47pct	acq_USunple_CSunple2_noRW	acq23456_noRW	3	68	0	0	300	300	739	46	0	1	1	blank2r.bmp	0	1	+	0	1	blank2r.bmp	252	1	CPPC	306	1	versagen	559	0	0	0	0	0	0	0	0	0	0	0	0	0	0	0	0	0	0	0	0	0	0	0	0	0	0	0	0	0	0	0	0	0	0	0	0	0	0	0
072219	13:42:48	13:50:44	475654	5.0.10.0	5_exp_noRW	72	Rpleas_acq	CS_A	LWWL	DXXD	ZHHZ	CPPC	YFFY	JQQJ	küssen	gütig	träumen	vertrauen	genießen	sonnig	krank	gierig	töten	versagen	gemein	sterben	47pct	acq_USpleas_CSpleas1_noRW	acq23456_noRW	3	69	0	0	300	300	440	50	0	1	1	blank2r.bmp	0	1	+	0	1	blank2r.bmp	252	1	LWWL	306	3	träumen	559	0	0	0	0	0	0	0	0	0	0	0	0	0	0	0	0	0	0	0	0	0	0	0	0	0	0	0	0	0	0	0	0	0	0	0	0	0	0	0
072219	13:42:48	13:50:46	477213	5.0.10.0	5_exp_noRW	72	Rpleas_acq	CS_A	LWWL	DXXD	ZHHZ	CPPC	YFFY	JQQJ	küssen	gütig	träumen	vertrauen	genießen	sonnig	krank	gierig	töten	versagen	gemein	sterben	47pct	acq_USunple_CSunple1_noRW	acq23456_noRW	3	70	0	0	300	300	390	46	0	1	1	blank2r.bmp	0	1	+	0	1	blank2r.bmp	252	1	ZHHZ	306	3	töten	559	0	0	0	0	0	0	0	0	0	0	0	0	0	0	0	0	0	0	0	0	0	0	0	0	0	0	0	0	0	0	0	0	0	0	0	0	0	0	0
072219	13:42:48	13:50:48	478799	5.0.10.0	5_exp_noRW	72	Rpleas_acq	CS_A	LWWL	DXXD	ZHHZ	CPPC	YFFY	JQQJ	küssen	gütig	träumen	vertrauen	genießen	sonnig	krank	gierig	töten	versagen	gemein	sterben	53pct	acq_USpleas_CSpleas2_noRW	acq23456_noRW	3	71	0	0	300	300	410	50	0	1	1	blank2r.bmp	0	1	+	0	1	blank2r.bmp	252	1	DXXD	306	3	sonnig	559	0	0	0	0	0	0	0	0	0	0	0	0	0	0	0	0	0	0	0	0	0	0	0	0	0	0	0	0	0	0	0	0	0	0	0	0	0	0	0
072219	13:42:48	13:50:50	480652	5.0.10.0	5_exp_noRW	72	Rpleas_acq	CS_A	LWWL	DXXD	ZHHZ	CPPC	YFFY	JQQJ	küssen	gütig	träumen	vertrauen	genießen	sonnig	krank	gierig	töten	versagen	gemein	sterben	53pct	acq_USpleas_CSpleas2_noRW	acq23456_noRW	3	72	0	0	300	300	673	50	0	1	1	blank2r.bmp	0	1	+	0	1	blank2r.bmp	252	1	DXXD	306	2	genießen	559	0	0	0	0	0	0	0	0	0	0	0	0	0	0	0	0	0	0	0	0	0	0	0	0	0	0	0	0	0	0	0	0	0	0	0	0	0	0	0
072219	13:42:48	13:50:51	482278	5.0.10.0	5_exp_noRW	72	Rpleas_acq	CS_A	LWWL	DXXD	ZHHZ	CPPC	YFFY	JQQJ	küssen	gütig	träumen	vertrauen	genießen	sonnig	krank	gierig	töten	versagen	gemein	sterben	53pct	acq_USunple_CSunple1_noRW	acq23456_noRW	3	73	0	0	300	300	459	46	0	1	1	blank2r.bmp	0	1	+	0	1	blank2r.bmp	252	1	ZHHZ	306	2	gierig	559	0	0	0	0	0	0	0	0	0	0	0	0	0	0	0	0	0	0	0	0	0	0	0	0	0	0	0	0	0	0	0	0	0	0	0	0	0	0	0
072219	13:42:48	13:50:53	483904	5.0.10.0	5_exp_noRW	72	Rpleas_acq	CS_A	LWWL	DXXD	ZHHZ	CPPC	YFFY	JQQJ	küssen	gütig	träumen	vertrauen	genießen	sonnig	krank	gierig	töten	versagen	gemein	sterben	53pct	acq_USpleas_CSpleas1_noRW	acq23456_noRW	3	74	0	0	300	300	459	50	0	1	1	blank2r.bmp	0	1	+	0	1	blank2r.bmp	252	1	LWWL	306	1	küssen	559	0	0	0	0	0	0	0	0	0	0	0	0	0	0	0	0	0	0	0	0	0	0	0	0	0	0	0	0	0	0	0	0	0	0	0	0	0	0	0
072219	13:42:48	13:50:54	485543	5.0.10.0	5_exp_noRW	72	Rpleas_acq	CS_A	LWWL	DXXD	ZHHZ	CPPC	YFFY	JQQJ	küssen	gütig	träumen	vertrauen	genießen	sonnig	krank	gierig	töten	versagen	gemein	sterben	47pct	acq_USunple_CSpleas2_noRW	acq23456_noRW	3	75	0	0	300	300	459	46	0	1	1	blank2r.bmp	0	1	+	0	1	blank2r.bmp	252	1	DXXD	306	3	sterben	559	0	0	0	0	0	0	0	0	0	0	0	0	0	0	0	0	0	0	0	0	0	0	0	0	0	0	0	0	0	0	0	0	0	0	0	0	0	0	0
072219	13:42:48	13:50:56	487129	5.0.10.0	5_exp_noRW	72	Rpleas_acq	CS_A	LWWL	DXXD	ZHHZ	CPPC	YFFY	JQQJ	küssen	gütig	träumen	vertrauen	genießen	sonnig	krank	gierig	töten	versagen	gemein	sterben	53pct	acq_USunple_CSunple2_noRW	acq23456_noRW	3	76	0	0	300	300	411	46	0	1	1	blank2r.bmp	0	1	+	0	1	blank2r.bmp	252	1	CPPC	306	3	sterben	559	0	0	0	0	0	0	0	0	0	0	0	0	0	0	0	0	0	0	0	0	0	0	0	0	0	0	0	0	0	0	0	0	0	0	0	0	0	0	0
072219	13:42:48	13:50:58	488915	5.0.10.0	5_exp_noRW	72	Rpleas_acq	CS_A	LWWL	DXXD	ZHHZ	CPPC	YFFY	JQQJ	küssen	gütig	träumen	vertrauen	genießen	sonnig	krank	gierig	töten	versagen	gemein	sterben	47pct	acq_USpleas_CSpleas2_noRW	acq23456_noRW	3	77	0	0	300	300	604	50	0	1	1	blank2r.bmp	0	1	+	0	1	blank2r.bmp	252	1	DXXD	306	1	vertrauen	559	0	0	0	0	0	0	0	0	0	0	0	0	0	0	0	0	0	0	0	0	0	0	0	0	0	0	0	0	0	0	0	0	0	0	0	0	0	0	0
072219	13:42:48	13:50:59	490541	5.0.10.0	5_exp_noRW	72	Rpleas_acq	CS_A	LWWL	DXXD	ZHHZ	CPPC	YFFY	JQQJ	küssen	gütig	träumen	vertrauen	genießen	sonnig	krank	gierig	töten	versagen	gemein	sterben	47pct	acq_USpleas_CSunple1_noRW	acq23456_noRW	3	78	0	0	300	300	438	50	0	1	1	blank2r.bmp	0	1	+	0	1	blank2r.bmp	252	1	ZHHZ	306	1	küssen	559	0	0	0	0	0	0	0	0	0	0	0	0	0	0	0	0	0	0	0	0	0	0	0	0	0	0	0	0	0	0	0	0	0	0	0	0	0	0	0
072219	13:42:48	13:51:01	492114	5.0.10.0	5_exp_noRW	72	Rpleas_acq	CS_A	LWWL	DXXD	ZHHZ	CPPC	YFFY	JQQJ	küssen	gütig	träumen	vertrauen	genießen	sonnig	krank	gierig	töten	versagen	gemein	sterben	53pct	acq_USunple_CSunple1_noRW	acq23456_noRW	3	79	0	0	300	300	395	46	0	1	1	blank2r.bmp	0	1	+	0	1	blank2r.bmp	252	1	ZHHZ	306	1	krank	559	0	0	0	0	0	0	0	0	0	0	0	0	0	0	0	0	0	0	0	0	0	0	0	0	0	0	0	0	0	0	0	0	0	0	0	0	0	0	0
072219	13:42:48	13:51:03	493819	5.0.10.0	5_exp_noRW	72	Rpleas_acq	CS_A	LWWL	DXXD	ZHHZ	CPPC	YFFY	JQQJ	küssen	gütig	träumen	vertrauen	genießen	sonnig	krank	gierig	töten	versagen	gemein	sterben	47pct	acq_USunple_CSpleas1_noRW	acq23456_noRW	3	80	0	0	300	300	523	46	0	1	1	blank2r.bmp	0	1	+	0	1	blank2r.bmp	252	1	LWWL	306	3	töten	559	0	0	0	0	0	0	0	0	0	0	0	0	0	0	0	0	0	0	0	0	0	0	0	0	0	0	0	0	0	0	0	0	0	0	0	0	0	0	0
072219	13:42:48	13:51:12	503189	5.0.10.0	5_exp_noRW	72	Rpleas_acq	CS_A	LWWL	DXXD	ZHHZ	CPPC	YFFY	JQQJ	küssen	gütig	träumen	vertrauen	genießen	sonnig	krank	gierig	töten	versagen	gemein	sterben	53pct	acq_USunple_CSpleas1_noRW	acq23456_noRW	4	1	0	0	300	300	472	46	0	1	1	blank2r.bmp	0	1	+	0	1	blank2r.bmp	252	1	LWWL	306	2	gierig	559	0	0	0	0	0	0	0	0	0	0	0	0	0	0	0	0	0	0	0	0	0	0	0	0	0	0	0	0	0	0	0	0	0	0	0	0	0	0	0
