date	time	script.currenttime	script.elapsedtime	build	script.currentexpt	subject	expressions.LRpleas_acq	expressions.conditionCS_A	expressions.CSpleas_1	expressions.CSpleas_2	expressions.CSunple_1	expressions.CSunple_2	expressions.distractor_1	expressions.distractor_2	expressions.US_pleas1	expressions.US_pleas2	expressions.US_pleas3	expressions.US_pleas4	expressions.US_pleas5	expressions.US_pleas6	expressions.US_unple1	expressions.US_unple2	expressions.US_unple3	expressions.US_unple4	expressions.US_unple5	expressions.US_unple6	counter.positions_noRW	trialcode	blockcode	blocknum	trialnum	windowcenter	inwindow	pretrialpause	posttrialpause	latency	response	expressions.correctedscore	correct	stimulusnumber1	stimulusitem1	stimulusonset1	stimulusnumber2	stimulusitem2	stimulusonset2	stimulusnumber3	stimulusitem3	stimulusonset3	stimulusnumber4	stimulusitem4	stimulusonset4	stimulusnumber5	stimulusitem5	stimulusonset5	stimulusnumber6	stimulusitem6	stimulusonset6	stimulusnumber7	stimulusitem7	stimulusonset7	stimulusnumber8	stimulusitem8	stimulusonset8	stimulusnumber9	stimulusitem9	stimulusonset9	stimulusnumber10	stimulusitem10	stimulusonset10	stimulusnumber11	stimulusitem11	stimulusonset11	stimulusnumber12	stimulusitem12	stimulusonset12	stimulusnumber13	stimulusitem13	stimulusonset13	stimulusnumber14	stimulusitem14	stimulusonset14	stimulusnumber15	stimulusitem15	stimulusonset15	stimulusnumber16	stimulusitem16	stimulusonset16	stimulusnumber17	stimulusitem17	stimulusonset17	stimulusnumber18	stimulusitem18	stimulusonset18
070319	11:55:24	11:56:54	89883	5.0.10.0	5_exp_RW	7	Rpleas_acq	CS_B	JXXJ	MQQM	VKKV	BZZB	YDDY	GWWG	retten	spielen	schön	ehrlich	treu	fair	rächen	strafen	schlecht	eitel	tot	faul	1	acq_USunple_CSunple2_RW	acq1_RW	1	1	0	0	300	300	961	46	0	1	1	blank2r.bmp	0	1	+	0	1	blank2r.bmp	492	1	BZZB	492	1	blank2r.bmp	572	1	eitel	866	0	0	0	0	0	0	0	0	0	0	0	0	0	0	0	0	0	0	0	0	0	0	0	0	0	0	0	0	0	0	0	0	0	0	0	0
070319	11:55:24	11:56:56	91828	5.0.10.0	5_exp_RW	7	Rpleas_acq	CS_B	JXXJ	MQQM	VKKV	BZZB	YDDY	GWWG	retten	spielen	schön	ehrlich	treu	fair	rächen	strafen	schlecht	eitel	tot	faul	1	acq_USpleas_CSpleas1_RW	acq1_RW	1	2	0	0	300	300	259	46	0	0	1	blank2r.bmp	0	1	+	0	1	blank2r.bmp	492	1	JXXJ	492	1	blank2r.bmp	572	2	spielen	866	1	FEHLER	1159	0	0	0	0	0	0	0	0	0	0	0	0	0	0	0	0	0	0	0	0	0	0	0	0	0	0	0	0	0	0	0	0	0
070319	11:55:24	11:56:58	93881	5.0.10.0	5_exp_RW	7	Rpleas_acq	CS_B	JXXJ	MQQM	VKKV	BZZB	YDDY	GWWG	retten	spielen	schön	ehrlich	treu	fair	rächen	strafen	schlecht	eitel	tot	faul	1	acq_USpleas_CSpleas2_RW	acq1_RW	1	3	0	0	300	300	771	50	0	1	1	blank2r.bmp	0	1	+	0	1	blank2r.bmp	492	1	MQQM	492	1	blank2r.bmp	572	3	fair	866	0	0	0	0	0	0	0	0	0	0	0	0	0	0	0	0	0	0	0	0	0	0	0	0	0	0	0	0	0	0	0	0	0	0	0	0
070319	11:55:24	11:57:01	96666	5.0.10.0	5_exp_RW	7	Rpleas_acq	CS_B	JXXJ	MQQM	VKKV	BZZB	YDDY	GWWG	retten	spielen	schön	ehrlich	treu	fair	rächen	strafen	schlecht	eitel	tot	faul	1	acq_USpleas_CSpleas1_RW	acq1_RW	1	4	0	0	300	300	1300	50	0	1	1	blank2r.bmp	0	1	+	0	1	blank2r.bmp	492	1	JXXJ	492	1	blank2r.bmp	572	3	schön	866	0	0	0	0	0	0	0	0	0	0	0	0	0	0	0	0	0	0	0	0	0	0	0	0	0	0	0	0	0	0	0	0	0	0	0	0
070319	11:55:24	11:57:03	98999	5.0.10.0	5_exp_RW	7	Rpleas_acq	CS_B	JXXJ	MQQM	VKKV	BZZB	YDDY	GWWG	retten	spielen	schön	ehrlich	treu	fair	rächen	strafen	schlecht	eitel	tot	faul	1	acq_USunple_CSunple1_RW	acq1_RW	1	5	0	0	300	300	850	46	0	1	1	blank2r.bmp	0	1	+	0	1	blank2r.bmp	492	1	VKKV	492	1	blank2r.bmp	572	3	schlecht	866	0	0	0	0	0	0	0	0	0	0	0	0	0	0	0	0	0	0	0	0	0	0	0	0	0	0	0	0	0	0	0	0	0	0	0	0
070319	11:55:24	11:57:06	101105	5.0.10.0	5_exp_RW	7	Rpleas_acq	CS_B	JXXJ	MQQM	VKKV	BZZB	YDDY	GWWG	retten	spielen	schön	ehrlich	treu	fair	rächen	strafen	schlecht	eitel	tot	faul	1	acq_USpleas_CSpleas1_RW	acq1_RW	1	6	0	0	300	300	613	50	0	1	1	blank2r.bmp	0	1	+	0	1	blank2r.bmp	492	1	JXXJ	492	1	blank2r.bmp	572	1	retten	866	0	0	0	0	0	0	0	0	0	0	0	0	0	0	0	0	0	0	0	0	0	0	0	0	0	0	0	0	0	0	0	0	0	0	0	0
070319	11:55:24	11:57:07	103090	5.0.10.0	5_exp_RW	7	Rpleas_acq	CS_B	JXXJ	MQQM	VKKV	BZZB	YDDY	GWWG	retten	spielen	schön	ehrlich	treu	fair	rächen	strafen	schlecht	eitel	tot	faul	1	acq_USpleas_CSpleas2_RW	acq1_RW	1	7	0	0	300	300	500	50	0	1	1	blank2r.bmp	0	1	+	0	1	blank2r.bmp	492	1	MQQM	492	1	blank2r.bmp	572	1	ehrlich	866	0	0	0	0	0	0	0	0	0	0	0	0	0	0	0	0	0	0	0	0	0	0	0	0	0	0	0	0	0	0	0	0	0	0	0	0
070319	11:55:24	11:57:09	104943	5.0.10.0	5_exp_RW	7	Rpleas_acq	CS_B	JXXJ	MQQM	VKKV	BZZB	YDDY	GWWG	retten	spielen	schön	ehrlich	treu	fair	rächen	strafen	schlecht	eitel	tot	faul	1	acq_USpleas_CSpleas2_RW	acq1_RW	1	8	0	0	300	300	374	50	0	1	1	blank2r.bmp	0	1	+	0	1	blank2r.bmp	492	1	MQQM	492	1	blank2r.bmp	572	2	treu	866	0	0	0	0	0	0	0	0	0	0	0	0	0	0	0	0	0	0	0	0	0	0	0	0	0	0	0	0	0	0	0	0	0	0	0	0
070319	11:55:24	11:57:11	106942	5.0.10.0	5_exp_RW	7	Rpleas_acq	CS_B	JXXJ	MQQM	VKKV	BZZB	YDDY	GWWG	retten	spielen	schön	ehrlich	treu	fair	rächen	strafen	schlecht	eitel	tot	faul	1	acq_USpleas_CSpleas1_RW	acq1_RW	1	9	0	0	300	300	510	50	0	1	1	blank2r.bmp	0	1	+	0	1	blank2r.bmp	492	1	JXXJ	492	1	blank2r.bmp	572	1	retten	866	0	0	0	0	0	0	0	0	0	0	0	0	0	0	0	0	0	0	0	0	0	0	0	0	0	0	0	0	0	0	0	0	0	0	0	0
070319	11:55:24	11:57:13	108542	5.0.10.0	5_exp_RW	7	Rpleas_acq	CS_B	JXXJ	MQQM	VKKV	BZZB	YDDY	GWWG	retten	spielen	schön	ehrlich	treu	fair	rächen	strafen	schlecht	eitel	tot	faul	1	acq_USunple_CSunple2_RW	acq1_RW	1	10	0	0	300	300	120	46	0	1	1	blank2r.bmp	0	1	+	0	1	blank2r.bmp	492	1	BZZB	492	1	blank2r.bmp	572	3	faul	866	0	0	0	0	0	0	0	0	0	0	0	0	0	0	0	0	0	0	0	0	0	0	0	0	0	0	0	0	0	0	0	0	0	0	0	0
070319	11:55:24	11:57:15	110514	5.0.10.0	5_exp_RW	7	Rpleas_acq	CS_B	JXXJ	MQQM	VKKV	BZZB	YDDY	GWWG	retten	spielen	schön	ehrlich	treu	fair	rächen	strafen	schlecht	eitel	tot	faul	1	acq_USpleas_CSpleas2_RW	acq1_RW	1	11	0	0	300	300	498	50	0	1	1	blank2r.bmp	0	1	+	0	1	blank2r.bmp	492	1	MQQM	492	1	blank2r.bmp	572	3	fair	866	0	0	0	0	0	0	0	0	0	0	0	0	0	0	0	0	0	0	0	0	0	0	0	0	0	0	0	0	0	0	0	0	0	0	0	0
070319	11:55:24	11:57:17	112420	5.0.10.0	5_exp_RW	7	Rpleas_acq	CS_B	JXXJ	MQQM	VKKV	BZZB	YDDY	GWWG	retten	spielen	schön	ehrlich	treu	fair	rächen	strafen	schlecht	eitel	tot	faul	1	acq_USunple_CSunple1_RW	acq1_RW	1	12	0	0	300	300	431	46	0	1	1	blank2r.bmp	0	1	+	0	1	blank2r.bmp	492	1	VKKV	492	1	blank2r.bmp	572	2	strafen	866	0	0	0	0	0	0	0	0	0	0	0	0	0	0	0	0	0	0	0	0	0	0	0	0	0	0	0	0	0	0	0	0	0	0	0	0
070319	11:55:24	11:57:19	114286	5.0.10.0	5_exp_RW	7	Rpleas_acq	CS_B	JXXJ	MQQM	VKKV	BZZB	YDDY	GWWG	retten	spielen	schön	ehrlich	treu	fair	rächen	strafen	schlecht	eitel	tot	faul	1	acq_USunple_CSunple2_RW	acq1_RW	1	13	0	0	300	300	396	46	0	1	1	blank2r.bmp	0	1	+	0	1	blank2r.bmp	492	1	BZZB	492	1	blank2r.bmp	572	2	tot	866	0	0	0	0	0	0	0	0	0	0	0	0	0	0	0	0	0	0	0	0	0	0	0	0	0	0	0	0	0	0	0	0	0	0	0	0
070319	11:55:24	11:57:21	116272	5.0.10.0	5_exp_RW	7	Rpleas_acq	CS_B	JXXJ	MQQM	VKKV	BZZB	YDDY	GWWG	retten	spielen	schön	ehrlich	treu	fair	rächen	strafen	schlecht	eitel	tot	faul	1	acq_USunple_CSunple1_RW	acq1_RW	1	14	0	0	300	300	501	46	0	1	1	blank2r.bmp	0	1	+	0	1	blank2r.bmp	492	1	VKKV	492	1	blank2r.bmp	572	1	rächen	866	0	0	0	0	0	0	0	0	0	0	0	0	0	0	0	0	0	0	0	0	0	0	0	0	0	0	0	0	0	0	0	0	0	0	0	0
070319	11:55:24	11:57:23	118391	5.0.10.0	5_exp_RW	7	Rpleas_acq	CS_B	JXXJ	MQQM	VKKV	BZZB	YDDY	GWWG	retten	spielen	schön	ehrlich	treu	fair	rächen	strafen	schlecht	eitel	tot	faul	1	acq_USunple_CSunple2_RW	acq1_RW	1	15	0	0	300	300	430	50	0	0	1	blank2r.bmp	0	1	+	0	1	blank2r.bmp	492	1	BZZB	492	1	blank2r.bmp	572	1	eitel	866	1	FEHLER	1332	0	0	0	0	0	0	0	0	0	0	0	0	0	0	0	0	0	0	0	0	0	0	0	0	0	0	0	0	0	0	0	0	0
070319	11:55:24	11:57:25	120177	5.0.10.0	5_exp_RW	7	Rpleas_acq	CS_B	JXXJ	MQQM	VKKV	BZZB	YDDY	GWWG	retten	spielen	schön	ehrlich	treu	fair	rächen	strafen	schlecht	eitel	tot	faul	1	acq_USunple_CSunple1_RW	acq1_RW	1	16	0	0	300	300	530	46	0	1	1	blank2r.bmp	0	1	+	0	1	blank2r.bmp	492	1	VKKV	492	1	blank2r.bmp	572	2	strafen	866	0	0	0	0	0	0	0	0	0	0	0	0	0	0	0	0	0	0	0	0	0	0	0	0	0	0	0	0	0	0	0	0	0	0	0	0
070319	11:55:24	11:57:55	150631	5.0.10.0	5_exp_RW	7	Rpleas_acq	CS_B	JXXJ	MQQM	VKKV	BZZB	YDDY	GWWG	retten	spielen	schön	ehrlich	treu	fair	rächen	strafen	schlecht	eitel	tot	faul	1	acq_USunple_CSunple2_RW	acq2_RW	2	1	480	0	300	300	1251	46	0	1	1	blank2r.bmp	0	1	+	0	1	blank2r.bmp	492	1	BZZB	492	1	blank2r.bmp	572	2	tot	866	1	!	1319	1	!	-1	0	0	0	0	0	0	0	0	0	0	0	0	0	0	0	0	0	0	0	0	0	0	0	0	0	0	0	0	0	0
070319	11:55:24	11:57:58	153110	5.0.10.0	5_exp_RW	7	Rpleas_acq	CS_B	JXXJ	MQQM	VKKV	BZZB	YDDY	GWWG	retten	spielen	schön	ehrlich	treu	fair	rächen	strafen	schlecht	eitel	tot	faul	1	acq_USunple_CSunple1_RW	acq2_RW	2	2	480	0	300	300	696	46	0	1	1	blank2r.bmp	0	1	+	0	1	blank2r.bmp	492	1	VKKV	492	1	blank2r.bmp	572	1	rächen	866	1	!	1319	1	!	-1	0	0	0	0	0	0	0	0	0	0	0	0	0	0	0	0	0	0	0	0	0	0	0	0	0	0	0	0	0	0
070319	11:55:24	11:58:00	155349	5.0.10.0	5_exp_RW	7	Rpleas_acq	CS_B	JXXJ	MQQM	VKKV	BZZB	YDDY	GWWG	retten	spielen	schön	ehrlich	treu	fair	rächen	strafen	schlecht	eitel	tot	faul	1	acq_USpleas_CSpleas1_RW	acq2_RW	2	3	480	1	300	300	426	50	0	1	1	blank2r.bmp	0	1	+	0	1	blank2r.bmp	492	1	JXXJ	492	1	blank2r.bmp	572	3	schön	866	1	!	1319	1	!	1332	0	0	0	0	0	0	0	0	0	0	0	0	0	0	0	0	0	0	0	0	0	0	0	0	0	0	0	0	0	0
070319	11:55:24	11:58:02	157428	5.0.10.0	5_exp_RW	7	Rpleas_acq	CS_B	JXXJ	MQQM	VKKV	BZZB	YDDY	GWWG	retten	spielen	schön	ehrlich	treu	fair	rächen	strafen	schlecht	eitel	tot	faul	1	acq_USunple_CSunple1_RW	acq2_RW	2	4	480	0	300	300	306	46	0	1	1	blank2r.bmp	0	1	+	0	1	blank2r.bmp	492	1	VKKV	492	1	blank2r.bmp	572	3	schlecht	866	1	!	-1	1	!	-1	0	0	0	0	0	0	0	0	0	0	0	0	0	0	0	0	0	0	0	0	0	0	0	0	0	0	0	0	0	0
070319	11:55:24	11:58:04	159481	5.0.10.0	5_exp_RW	7	Rpleas_acq	CS_B	JXXJ	MQQM	VKKV	BZZB	YDDY	GWWG	retten	spielen	schön	ehrlich	treu	fair	rächen	strafen	schlecht	eitel	tot	faul	1	acq_USpleas_CSpleas2_RW	acq2_RW	2	5	480	0	300	300	274	50	0	1	1	blank2r.bmp	0	1	+	0	1	blank2r.bmp	492	1	MQQM	492	1	blank2r.bmp	572	1	ehrlich	866	1	!	-1	1	!	-1	0	0	0	0	0	0	0	0	0	0	0	0	0	0	0	0	0	0	0	0	0	0	0	0	0	0	0	0	0	0
070319	11:55:24	11:58:07	162439	5.0.10.0	5_exp_RW	7	Rpleas_acq	CS_B	JXXJ	MQQM	VKKV	BZZB	YDDY	GWWG	retten	spielen	schön	ehrlich	treu	fair	rächen	strafen	schlecht	eitel	tot	faul	1	acq_USpleas_CSpleas1_RW	acq2_RW	2	6	480	0	300	300	939	46	0	0	1	blank2r.bmp	0	1	+	0	1	blank2r.bmp	492	1	JXXJ	492	1	blank2r.bmp	572	2	spielen	866	1	FEHLER	2145	1	!	1319	1	!	-1	0	0	0	0	0	0	0	0	0	0	0	0	0	0	0	0	0	0	0	0	0	0	0	0	0	0	0
070319	11:55:24	11:58:09	164545	5.0.10.0	5_exp_RW	7	Rpleas_acq	CS_B	JXXJ	MQQM	VKKV	BZZB	YDDY	GWWG	retten	spielen	schön	ehrlich	treu	fair	rächen	strafen	schlecht	eitel	tot	faul	1	acq_USunple_CSunple1_RW	acq2_RW	2	7	480	1	300	300	521	46	0	1	1	blank2r.bmp	0	1	+	0	1	blank2r.bmp	492	1	VKKV	492	1	blank2r.bmp	572	2	strafen	866	1	!	1319	1	!	1426	0	0	0	0	0	0	0	0	0	0	0	0	0	0	0	0	0	0	0	0	0	0	0	0	0	0	0	0	0	0
070319	11:55:24	11:58:12	167184	5.0.10.0	5_exp_RW	7	Rpleas_acq	CS_B	JXXJ	MQQM	VKKV	BZZB	YDDY	GWWG	retten	spielen	schön	ehrlich	treu	fair	rächen	strafen	schlecht	eitel	tot	faul	1	acq_USpleas_CSpleas1_RW	acq2_RW	2	8	480	0	300	300	864	50	0	1	1	blank2r.bmp	0	1	+	0	1	blank2r.bmp	492	1	JXXJ	492	1	blank2r.bmp	572	1	retten	866	1	!	1319	1	!	-1	0	0	0	0	0	0	0	0	0	0	0	0	0	0	0	0	0	0	0	0	0	0	0	0	0	0	0	0	0	0
070319	11:55:24	11:58:14	169463	5.0.10.0	5_exp_RW	7	Rpleas_acq	CS_B	JXXJ	MQQM	VKKV	BZZB	YDDY	GWWG	retten	spielen	schön	ehrlich	treu	fair	rächen	strafen	schlecht	eitel	tot	faul	1	acq_USpleas_CSpleas2_RW	acq2_RW	2	9	480	0	300	300	268	46	0	0	1	blank2r.bmp	0	1	+	0	1	blank2r.bmp	492	1	MQQM	492	1	blank2r.bmp	572	2	treu	866	1	FEHLER	1479	1	!	-1	1	!	-1	0	0	0	0	0	0	0	0	0	0	0	0	0	0	0	0	0	0	0	0	0	0	0	0	0	0	0
070319	11:55:24	11:58:16	171383	5.0.10.0	5_exp_RW	7	Rpleas_acq	CS_B	JXXJ	MQQM	VKKV	BZZB	YDDY	GWWG	retten	spielen	schön	ehrlich	treu	fair	rächen	strafen	schlecht	eitel	tot	faul	1	acq_USunple_CSunple1_RW	acq2_RW	2	10	480	0	300	300	367	46	0	1	1	blank2r.bmp	0	1	+	0	1	blank2r.bmp	492	1	VKKV	492	1	blank2r.bmp	572	1	rächen	866	1	!	-1	1	!	-1	0	0	0	0	0	0	0	0	0	0	0	0	0	0	0	0	0	0	0	0	0	0	0	0	0	0	0	0	0	0
070319	11:55:24	11:58:18	173928	5.0.10.0	5_exp_RW	7	Rpleas_acq	CS_B	JXXJ	MQQM	VKKV	BZZB	YDDY	GWWG	retten	spielen	schön	ehrlich	treu	fair	rächen	strafen	schlecht	eitel	tot	faul	1	acq_USunple_CSunple2_RW	acq2_RW	2	11	480	0	300	300	769	46	0	1	1	blank2r.bmp	0	1	+	0	1	blank2r.bmp	492	1	BZZB	492	1	blank2r.bmp	572	3	faul	866	1	!	1319	1	!	-1	0	0	0	0	0	0	0	0	0	0	0	0	0	0	0	0	0	0	0	0	0	0	0	0	0	0	0	0	0	0
070319	11:55:24	11:58:21	176287	5.0.10.0	5_exp_RW	7	Rpleas_acq	CS_B	JXXJ	MQQM	VKKV	BZZB	YDDY	GWWG	retten	spielen	schön	ehrlich	treu	fair	rächen	strafen	schlecht	eitel	tot	faul	1	acq_USpleas_CSpleas2_RW	acq2_RW	2	12	480	0	300	300	336	46	0	0	1	blank2r.bmp	0	1	+	0	1	blank2r.bmp	492	1	MQQM	492	1	blank2r.bmp	572	3	fair	866	1	FEHLER	1546	1	!	-1	1	!	-1	0	0	0	0	0	0	0	0	0	0	0	0	0	0	0	0	0	0	0	0	0	0	0	0	0	0	0
070319	11:55:24	11:58:23	178180	5.0.10.0	5_exp_RW	7	Rpleas_acq	CS_B	JXXJ	MQQM	VKKV	BZZB	YDDY	GWWG	retten	spielen	schön	ehrlich	treu	fair	rächen	strafen	schlecht	eitel	tot	faul	1	acq_USunple_CSunple1_RW	acq2_RW	2	13	480	0	300	300	341	46	0	1	1	blank2r.bmp	0	1	+	0	1	blank2r.bmp	492	1	VKKV	492	1	blank2r.bmp	572	3	schlecht	866	1	!	-1	1	!	-1	0	0	0	0	0	0	0	0	0	0	0	0	0	0	0	0	0	0	0	0	0	0	0	0	0	0	0	0	0	0
070319	11:55:24	11:58:25	180339	5.0.10.0	5_exp_RW	7	Rpleas_acq	CS_B	JXXJ	MQQM	VKKV	BZZB	YDDY	GWWG	retten	spielen	schön	ehrlich	treu	fair	rächen	strafen	schlecht	eitel	tot	faul	1	acq_USpleas_CSpleas2_RW	acq2_RW	2	14	480	0	300	300	382	50	0	1	1	blank2r.bmp	0	1	+	0	1	blank2r.bmp	492	1	MQQM	492	1	blank2r.bmp	572	1	ehrlich	866	1	!	-1	1	!	-1	0	0	0	0	0	0	0	0	0	0	0	0	0	0	0	0	0	0	0	0	0	0	0	0	0	0	0	0	0	0
070319	11:55:24	11:58:27	182805	5.0.10.0	5_exp_RW	7	Rpleas_acq	CS_B	JXXJ	MQQM	VKKV	BZZB	YDDY	GWWG	retten	spielen	schön	ehrlich	treu	fair	rächen	strafen	schlecht	eitel	tot	faul	1	acq_USpleas_CSpleas2_RW	acq2_RW	2	15	480	0	300	300	672	50	0	1	1	blank2r.bmp	0	1	+	0	1	blank2r.bmp	492	1	MQQM	492	1	blank2r.bmp	572	2	treu	866	1	!	1319	1	!	-1	0	0	0	0	0	0	0	0	0	0	0	0	0	0	0	0	0	0	0	0	0	0	0	0	0	0	0	0	0	0
070319	11:55:24	11:58:30	185150	5.0.10.0	5_exp_RW	7	Rpleas_acq	CS_B	JXXJ	MQQM	VKKV	BZZB	YDDY	GWWG	retten	spielen	schön	ehrlich	treu	fair	rächen	strafen	schlecht	eitel	tot	faul	1	acq_USunple_CSunple2_RW	acq2_RW	2	16	480	0	300	300	332	50	0	0	1	blank2r.bmp	0	1	+	0	1	blank2r.bmp	492	1	BZZB	492	1	blank2r.bmp	572	3	faul	866	1	FEHLER	1546	1	!	-1	1	!	-1	0	0	0	0	0	0	0	0	0	0	0	0	0	0	0	0	0	0	0	0	0	0	0	0	0	0	0
070319	11:55:24	11:58:32	187229	5.0.10.0	5_exp_RW	7	Rpleas_acq	CS_B	JXXJ	MQQM	VKKV	BZZB	YDDY	GWWG	retten	spielen	schön	ehrlich	treu	fair	rächen	strafen	schlecht	eitel	tot	faul	1	acq_USunple_CSunple2_RW	acq2_RW	2	17	480	1	300	300	502	46	0	1	1	blank2r.bmp	0	1	+	0	1	blank2r.bmp	492	1	BZZB	492	1	blank2r.bmp	572	1	eitel	866	1	!	1319	1	!	1399	0	0	0	0	0	0	0	0	0	0	0	0	0	0	0	0	0	0	0	0	0	0	0	0	0	0	0	0	0	0
070319	11:55:24	11:58:34	189562	5.0.10.0	5_exp_RW	7	Rpleas_acq	CS_B	JXXJ	MQQM	VKKV	BZZB	YDDY	GWWG	retten	spielen	schön	ehrlich	treu	fair	rächen	strafen	schlecht	eitel	tot	faul	1	acq_USpleas_CSpleas2_RW	acq2_RW	2	18	480	0	300	300	336	46	0	0	1	blank2r.bmp	0	1	+	0	1	blank2r.bmp	492	1	MQQM	492	1	blank2r.bmp	572	2	treu	866	1	FEHLER	1546	1	!	-1	1	!	-1	0	0	0	0	0	0	0	0	0	0	0	0	0	0	0	0	0	0	0	0	0	0	0	0	0	0	0
070319	11:55:24	11:58:36	191534	5.0.10.0	5_exp_RW	7	Rpleas_acq	CS_B	JXXJ	MQQM	VKKV	BZZB	YDDY	GWWG	retten	spielen	schön	ehrlich	treu	fair	rächen	strafen	schlecht	eitel	tot	faul	1	acq_USpleas_CSpleas1_RW	acq2_RW	2	19	480	0	300	300	413	50	0	1	1	blank2r.bmp	0	1	+	0	1	blank2r.bmp	492	1	JXXJ	492	1	blank2r.bmp	572	2	spielen	866	1	!	-1	1	!	-1	0	0	0	0	0	0	0	0	0	0	0	0	0	0	0	0	0	0	0	0	0	0	0	0	0	0	0	0	0	0
070319	11:55:24	11:58:38	194013	5.0.10.0	5_exp_RW	7	Rpleas_acq	CS_B	JXXJ	MQQM	VKKV	BZZB	YDDY	GWWG	retten	spielen	schön	ehrlich	treu	fair	rächen	strafen	schlecht	eitel	tot	faul	1	acq_USpleas_CSpleas1_RW	acq2_RW	2	20	480	0	300	300	697	50	0	1	1	blank2r.bmp	0	1	+	0	1	blank2r.bmp	492	1	JXXJ	492	1	blank2r.bmp	572	3	schön	866	1	!	1319	1	!	-1	0	0	0	0	0	0	0	0	0	0	0	0	0	0	0	0	0	0	0	0	0	0	0	0	0	0	0	0	0	0
070319	11:55:24	11:58:40	196066	5.0.10.0	5_exp_RW	7	Rpleas_acq	CS_B	JXXJ	MQQM	VKKV	BZZB	YDDY	GWWG	retten	spielen	schön	ehrlich	treu	fair	rächen	strafen	schlecht	eitel	tot	faul	1	acq_USunple_CSunple2_RW	acq2_RW	2	21	480	0	300	300	273	46	0	1	1	blank2r.bmp	0	1	+	0	1	blank2r.bmp	492	1	BZZB	492	1	blank2r.bmp	572	2	tot	866	1	!	-1	1	!	-1	0	0	0	0	0	0	0	0	0	0	0	0	0	0	0	0	0	0	0	0	0	0	0	0	0	0	0	0	0	0
070319	11:55:24	11:58:43	198158	5.0.10.0	5_exp_RW	7	Rpleas_acq	CS_B	JXXJ	MQQM	VKKV	BZZB	YDDY	GWWG	retten	spielen	schön	ehrlich	treu	fair	rächen	strafen	schlecht	eitel	tot	faul	1	acq_USunple_CSunple1_RW	acq2_RW	2	22	480	0	300	300	315	46	0	1	1	blank2r.bmp	0	1	+	0	1	blank2r.bmp	492	1	VKKV	492	1	blank2r.bmp	572	3	schlecht	866	1	!	-1	1	!	-1	0	0	0	0	0	0	0	0	0	0	0	0	0	0	0	0	0	0	0	0	0	0	0	0	0	0	0	0	0	0
070319	11:55:24	11:58:45	200584	5.0.10.0	5_exp_RW	7	Rpleas_acq	CS_B	JXXJ	MQQM	VKKV	BZZB	YDDY	GWWG	retten	spielen	schön	ehrlich	treu	fair	rächen	strafen	schlecht	eitel	tot	faul	1	acq_USpleas_CSpleas1_RW	acq2_RW	2	23	480	0	300	300	644	50	0	1	1	blank2r.bmp	0	1	+	0	1	blank2r.bmp	492	1	JXXJ	492	1	blank2r.bmp	572	3	schön	866	1	!	1319	1	!	-1	0	0	0	0	0	0	0	0	0	0	0	0	0	0	0	0	0	0	0	0	0	0	0	0	0	0	0	0	0	0
070319	11:55:24	11:58:47	202636	5.0.10.0	5_exp_RW	7	Rpleas_acq	CS_B	JXXJ	MQQM	VKKV	BZZB	YDDY	GWWG	retten	spielen	schön	ehrlich	treu	fair	rächen	strafen	schlecht	eitel	tot	faul	1	acq_USunple_CSunple2_RW	acq2_RW	2	24	480	0	300	300	277	46	0	1	1	blank2r.bmp	0	1	+	0	1	blank2r.bmp	492	1	BZZB	492	1	blank2r.bmp	572	3	faul	866	1	!	-1	1	!	-1	0	0	0	0	0	0	0	0	0	0	0	0	0	0	0	0	0	0	0	0	0	0	0	0	0	0	0	0	0	0
070319	11:55:24	11:59:07	222495	5.0.10.0	5_exp_RW	7	Rpleas_acq	CS_B	JXXJ	MQQM	VKKV	BZZB	YDDY	GWWG	retten	spielen	schön	ehrlich	treu	fair	rächen	strafen	schlecht	eitel	tot	faul	1	acq_USunple_CSunple2_RW	acq3_RW	3	1	453	0	300	300	321	46	0	1	1	blank2r.bmp	0	1	+	0	1	blank2r.bmp	492	1	BZZB	492	1	blank2r.bmp	572	1	eitel	866	1	!	-1	1	!	-1	0	0	0	0	0	0	0	0	0	0	0	0	0	0	0	0	0	0	0	0	0	0	0	0	0	0	0	0	0	0
070319	11:55:24	11:59:09	224921	5.0.10.0	5_exp_RW	7	Rpleas_acq	CS_B	JXXJ	MQQM	VKKV	BZZB	YDDY	GWWG	retten	spielen	schön	ehrlich	treu	fair	rächen	strafen	schlecht	eitel	tot	faul	1	acq_USpleas_CSpleas2_RW	acq3_RW	3	2	453	0	300	300	644	50	0	1	1	blank2r.bmp	0	1	+	0	1	blank2r.bmp	492	1	MQQM	492	1	blank2r.bmp	572	1	ehrlich	866	1	!	1292	1	!	-1	0	0	0	0	0	0	0	0	0	0	0	0	0	0	0	0	0	0	0	0	0	0	0	0	0	0	0	0	0	0
070319	11:55:24	11:59:12	227293	5.0.10.0	5_exp_RW	7	Rpleas_acq	CS_B	JXXJ	MQQM	VKKV	BZZB	YDDY	GWWG	retten	spielen	schön	ehrlich	treu	fair	rächen	strafen	schlecht	eitel	tot	faul	1	acq_USpleas_CSpleas2_RW	acq3_RW	3	3	453	0	300	300	366	46	0	0	1	blank2r.bmp	0	1	+	0	1	blank2r.bmp	492	1	MQQM	492	1	blank2r.bmp	572	3	fair	866	1	FEHLER	1572	1	!	-1	1	!	-1	0	0	0	0	0	0	0	0	0	0	0	0	0	0	0	0	0	0	0	0	0	0	0	0	0	0	0
070319	11:55:24	11:59:14	229505	5.0.10.0	5_exp_RW	7	Rpleas_acq	CS_B	JXXJ	MQQM	VKKV	BZZB	YDDY	GWWG	retten	spielen	schön	ehrlich	treu	fair	rächen	strafen	schlecht	eitel	tot	faul	1	acq_USunple_CSunple1_RW	acq3_RW	3	4	453	0	300	300	655	46	0	1	1	blank2r.bmp	0	1	+	0	1	blank2r.bmp	492	1	VKKV	492	1	blank2r.bmp	572	2	strafen	866	1	!	1292	1	!	-1	0	0	0	0	0	0	0	0	0	0	0	0	0	0	0	0	0	0	0	0	0	0	0	0	0	0	0	0	0	0
070319	11:55:24	11:59:16	231851	5.0.10.0	5_exp_RW	7	Rpleas_acq	CS_B	JXXJ	MQQM	VKKV	BZZB	YDDY	GWWG	retten	spielen	schön	ehrlich	treu	fair	rächen	strafen	schlecht	eitel	tot	faul	1	acq_USpleas_CSpleas2_RW	acq3_RW	3	5	453	0	300	300	566	50	0	1	1	blank2r.bmp	0	1	+	0	1	blank2r.bmp	492	1	MQQM	492	1	blank2r.bmp	572	1	ehrlich	866	1	!	1292	1	!	-1	0	0	0	0	0	0	0	0	0	0	0	0	0	0	0	0	0	0	0	0	0	0	0	0	0	0	0	0	0	0
070319	11:55:24	11:59:18	233944	5.0.10.0	5_exp_RW	7	Rpleas_acq	CS_B	JXXJ	MQQM	VKKV	BZZB	YDDY	GWWG	retten	spielen	schön	ehrlich	treu	fair	rächen	strafen	schlecht	eitel	tot	faul	1	acq_USpleas_CSpleas1_RW	acq3_RW	3	6	453	0	300	300	313	50	0	1	1	blank2r.bmp	0	1	+	0	1	blank2r.bmp	492	1	JXXJ	492	1	blank2r.bmp	572	1	retten	866	1	!	-1	1	!	-1	0	0	0	0	0	0	0	0	0	0	0	0	0	0	0	0	0	0	0	0	0	0	0	0	0	0	0	0	0	0
070319	11:55:24	11:59:21	236263	5.0.10.0	5_exp_RW	7	Rpleas_acq	CS_B	JXXJ	MQQM	VKKV	BZZB	YDDY	GWWG	retten	spielen	schön	ehrlich	treu	fair	rächen	strafen	schlecht	eitel	tot	faul	1	acq_USpleas_CSpleas1_RW	acq3_RW	3	7	453	1	300	300	506	50	0	1	1	blank2r.bmp	0	1	+	0	1	blank2r.bmp	492	1	JXXJ	492	1	blank2r.bmp	572	2	spielen	866	1	!	1292	1	!	1412	0	0	0	0	0	0	0	0	0	0	0	0	0	0	0	0	0	0	0	0	0	0	0	0	0	0	0	0	0	0
070319	11:55:24	11:59:23	238608	5.0.10.0	5_exp_RW	7	Rpleas_acq	CS_B	JXXJ	MQQM	VKKV	BZZB	YDDY	GWWG	retten	spielen	schön	ehrlich	treu	fair	rächen	strafen	schlecht	eitel	tot	faul	1	acq_USunple_CSunple1_RW	acq3_RW	3	8	453	0	300	300	332	50	0	0	1	blank2r.bmp	0	1	+	0	1	blank2r.bmp	492	1	VKKV	492	1	blank2r.bmp	572	1	rächen	866	1	FEHLER	1546	1	!	-1	1	!	-1	0	0	0	0	0	0	0	0	0	0	0	0	0	0	0	0	0	0	0	0	0	0	0	0	0	0	0
070319	11:55:24	11:59:25	240821	5.0.10.0	5_exp_RW	7	Rpleas_acq	CS_B	JXXJ	MQQM	VKKV	BZZB	YDDY	GWWG	retten	spielen	schön	ehrlich	treu	fair	rächen	strafen	schlecht	eitel	tot	faul	1	acq_USpleas_CSpleas2_RW	acq3_RW	3	9	453	0	300	300	652	50	0	1	1	blank2r.bmp	0	1	+	0	1	blank2r.bmp	492	1	MQQM	492	1	blank2r.bmp	572	2	treu	866	1	!	1292	1	!	-1	0	0	0	0	0	0	0	0	0	0	0	0	0	0	0	0	0	0	0	0	0	0	0	0	0	0	0	0	0	0
070319	11:55:24	11:59:27	242860	5.0.10.0	5_exp_RW	7	Rpleas_acq	CS_B	JXXJ	MQQM	VKKV	BZZB	YDDY	GWWG	retten	spielen	schön	ehrlich	treu	fair	rächen	strafen	schlecht	eitel	tot	faul	1	acq_USunple_CSunple2_RW	acq3_RW	3	10	453	0	300	300	254	46	0	1	1	blank2r.bmp	0	1	+	0	1	blank2r.bmp	492	1	BZZB	492	1	blank2r.bmp	572	2	tot	866	1	!	-1	1	!	-1	0	0	0	0	0	0	0	0	0	0	0	0	0	0	0	0	0	0	0	0	0	0	0	0	0	0	0	0	0	0
070319	11:55:24	11:59:30	245179	5.0.10.0	5_exp_RW	7	Rpleas_acq	CS_B	JXXJ	MQQM	VKKV	BZZB	YDDY	GWWG	retten	spielen	schön	ehrlich	treu	fair	rächen	strafen	schlecht	eitel	tot	faul	1	acq_USpleas_CSpleas1_RW	acq3_RW	3	11	453	0	300	300	532	50	0	1	1	blank2r.bmp	0	1	+	0	1	blank2r.bmp	492	1	JXXJ	492	1	blank2r.bmp	572	3	schön	866	1	!	1292	1	!	-1	0	0	0	0	0	0	0	0	0	0	0	0	0	0	0	0	0	0	0	0	0	0	0	0	0	0	0	0	0	0
070319	11:55:24	11:59:32	247258	5.0.10.0	5_exp_RW	7	Rpleas_acq	CS_B	JXXJ	MQQM	VKKV	BZZB	YDDY	GWWG	retten	spielen	schön	ehrlich	treu	fair	rächen	strafen	schlecht	eitel	tot	faul	1	acq_USunple_CSunple1_RW	acq3_RW	3	12	453	0	300	300	298	46	0	1	1	blank2r.bmp	0	1	+	0	1	blank2r.bmp	492	1	VKKV	492	1	blank2r.bmp	572	2	strafen	866	1	!	-1	1	!	-1	0	0	0	0	0	0	0	0	0	0	0	0	0	0	0	0	0	0	0	0	0	0	0	0	0	0	0	0	0	0
070319	11:55:24	11:59:34	249644	5.0.10.0	5_exp_RW	7	Rpleas_acq	CS_B	JXXJ	MQQM	VKKV	BZZB	YDDY	GWWG	retten	spielen	schön	ehrlich	treu	fair	rächen	strafen	schlecht	eitel	tot	faul	1	acq_USunple_CSunple1_RW	acq3_RW	3	13	453	0	300	300	611	46	0	1	1	blank2r.bmp	0	1	+	0	1	blank2r.bmp	492	1	VKKV	492	1	blank2r.bmp	572	3	schlecht	866	1	!	1292	1	!	-1	0	0	0	0	0	0	0	0	0	0	0	0	0	0	0	0	0	0	0	0	0	0	0	0	0	0	0	0	0	0
070319	11:55:24	11:59:36	251976	5.0.10.0	5_exp_RW	7	Rpleas_acq	CS_B	JXXJ	MQQM	VKKV	BZZB	YDDY	GWWG	retten	spielen	schön	ehrlich	treu	fair	rächen	strafen	schlecht	eitel	tot	faul	1	acq_USpleas_CSpleas2_RW	acq3_RW	3	14	453	0	300	300	545	50	0	1	1	blank2r.bmp	0	1	+	0	1	blank2r.bmp	492	1	MQQM	492	1	blank2r.bmp	572	3	fair	866	1	!	1292	1	!	-1	0	0	0	0	0	0	0	0	0	0	0	0	0	0	0	0	0	0	0	0	0	0	0	0	0	0	0	0	0	0
070319	11:55:24	11:59:39	254095	5.0.10.0	5_exp_RW	7	Rpleas_acq	CS_B	JXXJ	MQQM	VKKV	BZZB	YDDY	GWWG	retten	spielen	schön	ehrlich	treu	fair	rächen	strafen	schlecht	eitel	tot	faul	1	acq_USpleas_CSpleas2_RW	acq3_RW	3	15	453	0	300	300	331	50	0	1	1	blank2r.bmp	0	1	+	0	1	blank2r.bmp	492	1	MQQM	492	1	blank2r.bmp	572	2	treu	866	1	!	-1	1	!	-1	0	0	0	0	0	0	0	0	0	0	0	0	0	0	0	0	0	0	0	0	0	0	0	0	0	0	0	0	0	0
070319	11:55:24	11:59:41	256281	5.0.10.0	5_exp_RW	7	Rpleas_acq	CS_B	JXXJ	MQQM	VKKV	BZZB	YDDY	GWWG	retten	spielen	schön	ehrlich	treu	fair	rächen	strafen	schlecht	eitel	tot	faul	1	acq_USunple_CSunple2_RW	acq3_RW	3	16	453	0	300	300	386	46	0	1	1	blank2r.bmp	0	1	+	0	1	blank2r.bmp	492	1	BZZB	492	1	blank2r.bmp	572	2	tot	866	1	!	-1	1	!	-1	0	0	0	0	0	0	0	0	0	0	0	0	0	0	0	0	0	0	0	0	0	0	0	0	0	0	0	0	0	0
070319	11:55:24	11:59:43	258627	5.0.10.0	5_exp_RW	7	Rpleas_acq	CS_B	JXXJ	MQQM	VKKV	BZZB	YDDY	GWWG	retten	spielen	schön	ehrlich	treu	fair	rächen	strafen	schlecht	eitel	tot	faul	1	acq_USpleas_CSpleas1_RW	acq3_RW	3	17	453	0	300	300	565	50	0	1	1	blank2r.bmp	0	1	+	0	1	blank2r.bmp	492	1	JXXJ	492	1	blank2r.bmp	572	2	spielen	866	1	!	1292	1	!	-1	0	0	0	0	0	0	0	0	0	0	0	0	0	0	0	0	0	0	0	0	0	0	0	0	0	0	0	0	0	0
070319	11:55:24	11:59:46	261172	5.0.10.0	5_exp_RW	7	Rpleas_acq	CS_B	JXXJ	MQQM	VKKV	BZZB	YDDY	GWWG	retten	spielen	schön	ehrlich	treu	fair	rächen	strafen	schlecht	eitel	tot	faul	1	acq_USunple_CSunple2_RW	acq3_RW	3	18	453	0	300	300	759	46	0	1	1	blank2r.bmp	0	1	+	0	1	blank2r.bmp	492	1	BZZB	492	1	blank2r.bmp	572	1	eitel	866	1	!	1292	1	!	-1	0	0	0	0	0	0	0	0	0	0	0	0	0	0	0	0	0	0	0	0	0	0	0	0	0	0	0	0	0	0
070319	11:55:24	11:59:48	263438	5.0.10.0	5_exp_RW	7	Rpleas_acq	CS_B	JXXJ	MQQM	VKKV	BZZB	YDDY	GWWG	retten	spielen	schön	ehrlich	treu	fair	rächen	strafen	schlecht	eitel	tot	faul	1	acq_USunple_CSunple2_RW	acq3_RW	3	19	453	0	300	300	263	50	0	0	1	blank2r.bmp	0	1	+	0	1	blank2r.bmp	492	1	BZZB	492	1	blank2r.bmp	572	3	faul	866	1	FEHLER	1466	1	!	-1	1	!	-1	0	0	0	0	0	0	0	0	0	0	0	0	0	0	0	0	0	0	0	0	0	0	0	0	0	0	0
070319	11:55:24	11:59:50	265571	5.0.10.0	5_exp_RW	7	Rpleas_acq	CS_B	JXXJ	MQQM	VKKV	BZZB	YDDY	GWWG	retten	spielen	schön	ehrlich	treu	fair	rächen	strafen	schlecht	eitel	tot	faul	1	acq_USpleas_CSpleas1_RW	acq3_RW	3	20	453	0	300	300	572	50	0	1	1	blank2r.bmp	0	1	+	0	1	blank2r.bmp	492	1	JXXJ	492	1	blank2r.bmp	572	1	retten	866	1	!	1292	1	!	-1	0	0	0	0	0	0	0	0	0	0	0	0	0	0	0	0	0	0	0	0	0	0	0	0	0	0	0	0	0	0
070319	11:55:24	11:59:52	267650	5.0.10.0	5_exp_RW	7	Rpleas_acq	CS_B	JXXJ	MQQM	VKKV	BZZB	YDDY	GWWG	retten	spielen	schön	ehrlich	treu	fair	rächen	strafen	schlecht	eitel	tot	faul	1	acq_USunple_CSunple2_RW	acq3_RW	3	21	453	0	300	300	295	46	0	1	1	blank2r.bmp	0	1	+	0	1	blank2r.bmp	492	1	BZZB	492	1	blank2r.bmp	572	3	faul	866	1	!	-1	1	!	-1	0	0	0	0	0	0	0	0	0	0	0	0	0	0	0	0	0	0	0	0	0	0	0	0	0	0	0	0	0	0
070319	11:55:24	11:59:54	270049	5.0.10.0	5_exp_RW	7	Rpleas_acq	CS_B	JXXJ	MQQM	VKKV	BZZB	YDDY	GWWG	retten	spielen	schön	ehrlich	treu	fair	rächen	strafen	schlecht	eitel	tot	faul	1	acq_USunple_CSunple1_RW	acq3_RW	3	22	453	0	300	300	604	46	0	1	1	blank2r.bmp	0	1	+	0	1	blank2r.bmp	492	1	VKKV	492	1	blank2r.bmp	572	1	rächen	866	1	!	1292	1	!	-1	0	0	0	0	0	0	0	0	0	0	0	0	0	0	0	0	0	0	0	0	0	0	0	0	0	0	0	0	0	0
070319	11:55:24	11:59:57	272515	5.0.10.0	5_exp_RW	7	Rpleas_acq	CS_B	JXXJ	MQQM	VKKV	BZZB	YDDY	GWWG	retten	spielen	schön	ehrlich	treu	fair	rächen	strafen	schlecht	eitel	tot	faul	1	acq_USunple_CSunple1_RW	acq3_RW	3	23	453	0	300	300	681	46	0	1	1	blank2r.bmp	0	1	+	0	1	blank2r.bmp	492	1	VKKV	492	1	blank2r.bmp	572	2	strafen	866	1	!	1292	1	!	-1	0	0	0	0	0	0	0	0	0	0	0	0	0	0	0	0	0	0	0	0	0	0	0	0	0	0	0	0	0	0
070319	11:55:24	11:59:59	274674	5.0.10.0	5_exp_RW	7	Rpleas_acq	CS_B	JXXJ	MQQM	VKKV	BZZB	YDDY	GWWG	retten	spielen	schön	ehrlich	treu	fair	rächen	strafen	schlecht	eitel	tot	faul	1	acq_USpleas_CSpleas1_RW	acq3_RW	3	24	453	0	300	300	376	50	0	1	1	blank2r.bmp	0	1	+	0	1	blank2r.bmp	492	1	JXXJ	492	1	blank2r.bmp	572	2	spielen	866	1	!	-1	1	!	-1	0	0	0	0	0	0	0	0	0	0	0	0	0	0	0	0	0	0	0	0	0	0	0	0	0	0	0	0	0	0
070319	11:55:24	12:00:16	291520	5.0.10.0	5_exp_RW	7	Rpleas_acq	CS_B	JXXJ	MQQM	VKKV	BZZB	YDDY	GWWG	retten	spielen	schön	ehrlich	treu	fair	rächen	strafen	schlecht	eitel	tot	faul	1	acq_USpleas_CSpleas2_RW	acq4567_RW	4	1	400	0	300	300	628	50	0	1	1	blank2r.bmp	0	1	+	0	1	blank2r.bmp	492	1	MQQM	492	1	blank2r.bmp	572	3	fair	866	1	!	1239	1	!	-1	0	0	0	0	0	0	0	0	0	0	0	0	0	0	0	0	0	0	0	0	0	0	0	0	0	0	0	0	0	0
070319	11:55:24	12:00:18	293826	5.0.10.0	5_exp_RW	7	Rpleas_acq	CS_B	JXXJ	MQQM	VKKV	BZZB	YDDY	GWWG	retten	spielen	schön	ehrlich	treu	fair	rächen	strafen	schlecht	eitel	tot	faul	1	acq_USunple_CSunple1_RW	acq4567_RW	4	2	400	0	300	300	525	46	0	1	1	blank2r.bmp	0	1	+	0	1	blank2r.bmp	492	1	VKKV	492	1	blank2r.bmp	572	1	rächen	866	1	!	1239	1	!	-1	0	0	0	0	0	0	0	0	0	0	0	0	0	0	0	0	0	0	0	0	0	0	0	0	0	0	0	0	0	0
070319	11:55:24	12:00:20	296038	5.0.10.0	5_exp_RW	7	Rpleas_acq	CS_B	JXXJ	MQQM	VKKV	BZZB	YDDY	GWWG	retten	spielen	schön	ehrlich	treu	fair	rächen	strafen	schlecht	eitel	tot	faul	1	acq_USunple_CSunple2_RW	acq4567_RW	4	3	400	1	300	300	410	46	0	1	1	blank2r.bmp	0	1	+	0	1	blank2r.bmp	492	1	BZZB	492	1	blank2r.bmp	572	2	tot	866	1	!	1239	1	!	1306	0	0	0	0	0	0	0	0	0	0	0	0	0	0	0	0	0	0	0	0	0	0	0	0	0	0	0	0	0	0
070319	11:55:24	12:00:23	298197	5.0.10.0	5_exp_RW	7	Rpleas_acq	CS_B	JXXJ	MQQM	VKKV	BZZB	YDDY	GWWG	retten	spielen	schön	ehrlich	treu	fair	rächen	strafen	schlecht	eitel	tot	faul	1	acq_USpleas_CSpleas2_RW	acq4567_RW	4	4	400	1	300	300	362	50	0	1	1	blank2r.bmp	0	1	+	0	1	blank2r.bmp	492	1	MQQM	492	1	blank2r.bmp	572	1	ehrlich	866	1	!	1239	1	!	1266	0	0	0	0	0	0	0	0	0	0	0	0	0	0	0	0	0	0	0	0	0	0	0	0	0	0	0	0	0	0
070319	11:55:24	12:00:25	300490	5.0.10.0	5_exp_RW	7	Rpleas_acq	CS_B	JXXJ	MQQM	VKKV	BZZB	YDDY	GWWG	retten	spielen	schön	ehrlich	treu	fair	rächen	strafen	schlecht	eitel	tot	faul	1	acq_USpleas_CSpleas2_RW	acq4567_RW	4	5	400	0	300	300	524	50	0	1	1	blank2r.bmp	0	1	+	0	1	blank2r.bmp	492	1	MQQM	492	1	blank2r.bmp	572	2	treu	866	1	!	1239	1	!	-1	0	0	0	0	0	0	0	0	0	0	0	0	0	0	0	0	0	0	0	0	0	0	0	0	0	0	0	0	0	0
070319	11:55:24	12:00:27	302502	5.0.10.0	5_exp_RW	7	Rpleas_acq	CS_B	JXXJ	MQQM	VKKV	BZZB	YDDY	GWWG	retten	spielen	schön	ehrlich	treu	fair	rächen	strafen	schlecht	eitel	tot	faul	1	acq_USunple_CSunple1_RW	acq4567_RW	4	6	400	0	300	300	223	46	0	1	1	blank2r.bmp	0	1	+	0	1	blank2r.bmp	492	1	VKKV	492	1	blank2r.bmp	572	3	schlecht	866	1	!	-1	1	!	-1	0	0	0	0	0	0	0	0	0	0	0	0	0	0	0	0	0	0	0	0	0	0	0	0	0	0	0	0	0	0
070319	11:55:24	12:00:29	304568	5.0.10.0	5_exp_RW	7	Rpleas_acq	CS_B	JXXJ	MQQM	VKKV	BZZB	YDDY	GWWG	retten	spielen	schön	ehrlich	treu	fair	rächen	strafen	schlecht	eitel	tot	faul	1	acq_USpleas_CSpleas2_RW	acq4567_RW	4	7	400	0	300	300	277	46	0	0	1	blank2r.bmp	0	1	+	0	1	blank2r.bmp	492	1	MQQM	492	1	blank2r.bmp	572	3	fair	866	1	!	-1	1	!	-1	0	0	0	0	0	0	0	0	0	0	0	0	0	0	0	0	0	0	0	0	0	0	0	0	0	0	0	0	0	0
070319	11:55:24	12:00:31	306687	5.0.10.0	5_exp_RW	7	Rpleas_acq	CS_B	JXXJ	MQQM	VKKV	BZZB	YDDY	GWWG	retten	spielen	schön	ehrlich	treu	fair	rächen	strafen	schlecht	eitel	tot	faul	1	acq_USpleas_CSpleas1_RW	acq4567_RW	4	8	400	0	300	300	332	50	0	1	1	blank2r.bmp	0	1	+	0	1	blank2r.bmp	492	1	JXXJ	492	1	blank2r.bmp	572	3	schön	866	1	!	-1	1	!	-1	0	0	0	0	0	0	0	0	0	0	0	0	0	0	0	0	0	0	0	0	0	0	0	0	0	0	0	0	0	0
070319	11:55:24	12:00:34	309140	5.0.10.0	5_exp_RW	7	Rpleas_acq	CS_B	JXXJ	MQQM	VKKV	BZZB	YDDY	GWWG	retten	spielen	schön	ehrlich	treu	fair	rächen	strafen	schlecht	eitel	tot	faul	1	acq_USunple_CSunple2_RW	acq4567_RW	4	9	400	0	300	300	670	46	0	1	1	blank2r.bmp	0	1	+	0	1	blank2r.bmp	492	1	BZZB	492	1	blank2r.bmp	572	1	eitel	866	1	!	1239	1	!	-1	0	0	0	0	0	0	0	0	0	0	0	0	0	0	0	0	0	0	0	0	0	0	0	0	0	0	0	0	0	0
070319	11:55:24	12:00:36	311432	5.0.10.0	5_exp_RW	7	Rpleas_acq	CS_B	JXXJ	MQQM	VKKV	BZZB	YDDY	GWWG	retten	spielen	schön	ehrlich	treu	fair	rächen	strafen	schlecht	eitel	tot	faul	1	acq_USunple_CSunple1_RW	acq4567_RW	4	10	400	0	300	300	518	46	0	1	1	blank2r.bmp	0	1	+	0	1	blank2r.bmp	492	1	VKKV	492	1	blank2r.bmp	572	3	schlecht	866	1	!	1239	1	!	-1	0	0	0	0	0	0	0	0	0	0	0	0	0	0	0	0	0	0	0	0	0	0	0	0	0	0	0	0	0	0
070319	11:55:24	12:00:38	313724	5.0.10.0	5_exp_RW	7	Rpleas_acq	CS_B	JXXJ	MQQM	VKKV	BZZB	YDDY	GWWG	retten	spielen	schön	ehrlich	treu	fair	rächen	strafen	schlecht	eitel	tot	faul	1	acq_USunple_CSunple1_RW	acq4567_RW	4	11	400	0	300	300	512	46	0	1	1	blank2r.bmp	0	1	+	0	1	blank2r.bmp	492	1	VKKV	492	1	blank2r.bmp	572	2	strafen	866	1	!	1239	1	!	-1	0	0	0	0	0	0	0	0	0	0	0	0	0	0	0	0	0	0	0	0	0	0	0	0	0	0	0	0	0	0
070319	11:55:24	12:00:40	315803	5.0.10.0	5_exp_RW	7	Rpleas_acq	CS_B	JXXJ	MQQM	VKKV	BZZB	YDDY	GWWG	retten	spielen	schön	ehrlich	treu	fair	rächen	strafen	schlecht	eitel	tot	faul	1	acq_USpleas_CSpleas1_RW	acq4567_RW	4	12	400	0	300	300	298	50	0	1	1	blank2r.bmp	0	1	+	0	1	blank2r.bmp	492	1	JXXJ	492	1	blank2r.bmp	572	1	retten	866	1	!	-1	1	!	-1	0	0	0	0	0	0	0	0	0	0	0	0	0	0	0	0	0	0	0	0	0	0	0	0	0	0	0	0	0	0
070319	11:55:24	12:00:42	317843	5.0.10.0	5_exp_RW	7	Rpleas_acq	CS_B	JXXJ	MQQM	VKKV	BZZB	YDDY	GWWG	retten	spielen	schön	ehrlich	treu	fair	rächen	strafen	schlecht	eitel	tot	faul	1	acq_USunple_CSunple2_RW	acq4567_RW	4	13	400	0	300	300	258	50	0	0	1	blank2r.bmp	0	1	+	0	1	blank2r.bmp	492	1	BZZB	492	1	blank2r.bmp	572	1	eitel	866	1	!	-1	1	!	-1	0	0	0	0	0	0	0	0	0	0	0	0	0	0	0	0	0	0	0	0	0	0	0	0	0	0	0	0	0	0
070319	11:55:24	12:00:44	319828	5.0.10.0	5_exp_RW	7	Rpleas_acq	CS_B	JXXJ	MQQM	VKKV	BZZB	YDDY	GWWG	retten	spielen	schön	ehrlich	treu	fair	rächen	strafen	schlecht	eitel	tot	faul	1	acq_USpleas_CSpleas1_RW	acq4567_RW	4	14	400	0	300	300	204	50	0	1	1	blank2r.bmp	0	1	+	0	1	blank2r.bmp	492	1	JXXJ	492	1	blank2r.bmp	572	3	schön	866	1	!	-1	1	!	-1	0	0	0	0	0	0	0	0	0	0	0	0	0	0	0	0	0	0	0	0	0	0	0	0	0	0	0	0	0	0
070319	11:55:24	12:00:46	322028	5.0.10.0	5_exp_RW	7	Rpleas_acq	CS_B	JXXJ	MQQM	VKKV	BZZB	YDDY	GWWG	retten	spielen	schön	ehrlich	treu	fair	rächen	strafen	schlecht	eitel	tot	faul	1	acq_USpleas_CSpleas2_RW	acq4567_RW	4	15	400	1	300	300	394	50	0	1	1	blank2r.bmp	0	1	+	0	1	blank2r.bmp	492	1	MQQM	492	1	blank2r.bmp	572	1	ehrlich	866	1	!	1239	1	!	1292	0	0	0	0	0	0	0	0	0	0	0	0	0	0	0	0	0	0	0	0	0	0	0	0	0	0	0	0	0	0
070319	11:55:24	12:00:49	324293	5.0.10.0	5_exp_RW	7	Rpleas_acq	CS_B	JXXJ	MQQM	VKKV	BZZB	YDDY	GWWG	retten	spielen	schön	ehrlich	treu	fair	rächen	strafen	schlecht	eitel	tot	faul	1	acq_USunple_CSunple1_RW	acq4567_RW	4	16	400	0	300	300	498	46	0	1	1	blank2r.bmp	0	1	+	0	1	blank2r.bmp	492	1	VKKV	492	1	blank2r.bmp	572	1	rächen	866	1	!	1239	1	!	-1	0	0	0	0	0	0	0	0	0	0	0	0	0	0	0	0	0	0	0	0	0	0	0	0	0	0	0	0	0	0
070319	11:55:24	12:00:51	326572	5.0.10.0	5_exp_RW	7	Rpleas_acq	CS_B	JXXJ	MQQM	VKKV	BZZB	YDDY	GWWG	retten	spielen	schön	ehrlich	treu	fair	rächen	strafen	schlecht	eitel	tot	faul	1	acq_USunple_CSunple2_RW	acq4567_RW	4	17	400	0	300	300	479	46	0	1	1	blank2r.bmp	0	1	+	0	1	blank2r.bmp	492	1	BZZB	492	1	blank2r.bmp	572	2	tot	866	1	!	1239	1	!	-1	0	0	0	0	0	0	0	0	0	0	0	0	0	0	0	0	0	0	0	0	0	0	0	0	0	0	0	0	0	0
070319	11:55:24	12:00:53	328838	5.0.10.0	5_exp_RW	7	Rpleas_acq	CS_B	JXXJ	MQQM	VKKV	BZZB	YDDY	GWWG	retten	spielen	schön	ehrlich	treu	fair	rächen	strafen	schlecht	eitel	tot	faul	1	acq_USpleas_CSpleas1_RW	acq4567_RW	4	18	400	1	300	300	441	50	0	1	1	blank2r.bmp	0	1	+	0	1	blank2r.bmp	492	1	JXXJ	492	1	blank2r.bmp	572	1	retten	866	1	!	1239	1	!	1346	0	0	0	0	0	0	0	0	0	0	0	0	0	0	0	0	0	0	0	0	0	0	0	0	0	0	0	0	0	0
070319	11:55:24	12:00:55	330891	5.0.10.0	5_exp_RW	7	Rpleas_acq	CS_B	JXXJ	MQQM	VKKV	BZZB	YDDY	GWWG	retten	spielen	schön	ehrlich	treu	fair	rächen	strafen	schlecht	eitel	tot	faul	1	acq_USpleas_CSpleas1_RW	acq4567_RW	4	19	400	0	300	300	285	46	0	0	1	blank2r.bmp	0	1	+	0	1	blank2r.bmp	492	1	JXXJ	492	1	blank2r.bmp	572	2	spielen	866	1	!	-1	1	!	-1	0	0	0	0	0	0	0	0	0	0	0	0	0	0	0	0	0	0	0	0	0	0	0	0	0	0	0	0	0	0
070319	11:55:24	12:00:58	333210	5.0.10.0	5_exp_RW	7	Rpleas_acq	CS_B	JXXJ	MQQM	VKKV	BZZB	YDDY	GWWG	retten	spielen	schön	ehrlich	treu	fair	rächen	strafen	schlecht	eitel	tot	faul	1	acq_USunple_CSunple2_RW	acq4567_RW	4	20	400	0	300	300	532	46	0	1	1	blank2r.bmp	0	1	+	0	1	blank2r.bmp	492	1	BZZB	492	1	blank2r.bmp	572	3	faul	866	1	!	1239	1	!	-1	0	0	0	0	0	0	0	0	0	0	0	0	0	0	0	0	0	0	0	0	0	0	0	0	0	0	0	0	0	0
070319	11:55:24	12:01:00	335555	5.0.10.0	5_exp_RW	7	Rpleas_acq	CS_B	JXXJ	MQQM	VKKV	BZZB	YDDY	GWWG	retten	spielen	schön	ehrlich	treu	fair	rächen	strafen	schlecht	eitel	tot	faul	1	acq_USpleas_CSpleas1_RW	acq4567_RW	4	21	400	0	300	300	566	50	0	1	1	blank2r.bmp	0	1	+	0	1	blank2r.bmp	492	1	JXXJ	492	1	blank2r.bmp	572	1	retten	866	1	!	1239	1	!	-1	0	0	0	0	0	0	0	0	0	0	0	0	0	0	0	0	0	0	0	0	0	0	0	0	0	0	0	0	0	0
070319	11:55:24	12:01:02	337741	5.0.10.0	5_exp_RW	7	Rpleas_acq	CS_B	JXXJ	MQQM	VKKV	BZZB	YDDY	GWWG	retten	spielen	schön	ehrlich	treu	fair	rächen	strafen	schlecht	eitel	tot	faul	1	acq_USpleas_CSpleas1_RW	acq4567_RW	4	22	400	1	300	300	382	50	0	1	1	blank2r.bmp	0	1	+	0	1	blank2r.bmp	492	1	JXXJ	492	1	blank2r.bmp	572	3	schön	866	1	!	1239	1	!	1279	0	0	0	0	0	0	0	0	0	0	0	0	0	0	0	0	0	0	0	0	0	0	0	0	0	0	0	0	0	0
070319	11:55:24	12:01:04	339914	5.0.10.0	5_exp_RW	7	Rpleas_acq	CS_B	JXXJ	MQQM	VKKV	BZZB	YDDY	GWWG	retten	spielen	schön	ehrlich	treu	fair	rächen	strafen	schlecht	eitel	tot	faul	1	acq_USunple_CSunple2_RW	acq4567_RW	4	23	400	1	300	300	382	46	0	1	1	blank2r.bmp	0	1	+	0	1	blank2r.bmp	492	1	BZZB	492	1	blank2r.bmp	572	2	tot	866	1	!	1239	1	!	1279	0	0	0	0	0	0	0	0	0	0	0	0	0	0	0	0	0	0	0	0	0	0	0	0	0	0	0	0	0	0
070319	11:55:24	12:01:06	341913	5.0.10.0	5_exp_RW	7	Rpleas_acq	CS_B	JXXJ	MQQM	VKKV	BZZB	YDDY	GWWG	retten	spielen	schön	ehrlich	treu	fair	rächen	strafen	schlecht	eitel	tot	faul	1	acq_USunple_CSunple2_RW	acq4567_RW	4	24	400	0	300	300	229	50	0	0	1	blank2r.bmp	0	1	+	0	1	blank2r.bmp	492	1	BZZB	492	1	blank2r.bmp	572	3	faul	866	1	!	-1	1	!	-1	0	0	0	0	0	0	0	0	0	0	0	0	0	0	0	0	0	0	0	0	0	0	0	0	0	0	0	0	0	0
070319	11:55:24	12:01:09	344179	5.0.10.0	5_exp_RW	7	Rpleas_acq	CS_B	JXXJ	MQQM	VKKV	BZZB	YDDY	GWWG	retten	spielen	schön	ehrlich	treu	fair	rächen	strafen	schlecht	eitel	tot	faul	1	acq_USpleas_CSpleas2_RW	acq4567_RW	4	25	400	1	300	300	463	50	0	1	1	blank2r.bmp	0	1	+	0	1	blank2r.bmp	492	1	MQQM	492	1	blank2r.bmp	572	2	treu	866	1	!	1239	1	!	1359	0	0	0	0	0	0	0	0	0	0	0	0	0	0	0	0	0	0	0	0	0	0	0	0	0	0	0	0	0	0
070319	11:55:24	12:01:11	346391	5.0.10.0	5_exp_RW	7	Rpleas_acq	CS_B	JXXJ	MQQM	VKKV	BZZB	YDDY	GWWG	retten	spielen	schön	ehrlich	treu	fair	rächen	strafen	schlecht	eitel	tot	faul	1	acq_USunple_CSunple1_RW	acq4567_RW	4	26	400	1	300	300	412	46	0	1	1	blank2r.bmp	0	1	+	0	1	blank2r.bmp	492	1	VKKV	492	1	blank2r.bmp	572	1	rächen	866	1	!	1239	1	!	1319	0	0	0	0	0	0	0	0	0	0	0	0	0	0	0	0	0	0	0	0	0	0	0	0	0	0	0	0	0	0
070319	11:55:24	12:01:13	348483	5.0.10.0	5_exp_RW	7	Rpleas_acq	CS_B	JXXJ	MQQM	VKKV	BZZB	YDDY	GWWG	retten	spielen	schön	ehrlich	treu	fair	rächen	strafen	schlecht	eitel	tot	faul	1	acq_USunple_CSunple1_RW	acq4567_RW	4	27	400	0	300	300	328	50	0	0	1	blank2r.bmp	0	1	+	0	1	blank2r.bmp	492	1	VKKV	492	1	blank2r.bmp	572	3	schlecht	866	1	!	-1	1	!	-1	0	0	0	0	0	0	0	0	0	0	0	0	0	0	0	0	0	0	0	0	0	0	0	0	0	0	0	0	0	0
070319	11:55:24	12:01:15	350803	5.0.10.0	5_exp_RW	7	Rpleas_acq	CS_B	JXXJ	MQQM	VKKV	BZZB	YDDY	GWWG	retten	spielen	schön	ehrlich	treu	fair	rächen	strafen	schlecht	eitel	tot	faul	1	acq_USunple_CSunple2_RW	acq4567_RW	4	28	400	0	300	300	534	46	0	1	1	blank2r.bmp	0	1	+	0	1	blank2r.bmp	492	1	BZZB	492	1	blank2r.bmp	572	1	eitel	866	1	!	1239	1	!	-1	0	0	0	0	0	0	0	0	0	0	0	0	0	0	0	0	0	0	0	0	0	0	0	0	0	0	0	0	0	0
070319	11:55:24	12:01:18	353108	5.0.10.0	5_exp_RW	7	Rpleas_acq	CS_B	JXXJ	MQQM	VKKV	BZZB	YDDY	GWWG	retten	spielen	schön	ehrlich	treu	fair	rächen	strafen	schlecht	eitel	tot	faul	1	acq_USpleas_CSpleas2_RW	acq4567_RW	4	29	400	0	300	300	523	50	0	1	1	blank2r.bmp	0	1	+	0	1	blank2r.bmp	492	1	MQQM	492	1	blank2r.bmp	572	1	ehrlich	866	1	!	1239	1	!	-1	0	0	0	0	0	0	0	0	0	0	0	0	0	0	0	0	0	0	0	0	0	0	0	0	0	0	0	0	0	0
070319	11:55:24	12:01:20	355281	5.0.10.0	5_exp_RW	7	Rpleas_acq	CS_B	JXXJ	MQQM	VKKV	BZZB	YDDY	GWWG	retten	spielen	schön	ehrlich	treu	fair	rächen	strafen	schlecht	eitel	tot	faul	1	acq_USunple_CSunple1_RW	acq4567_RW	4	30	400	1	300	300	357	46	0	1	1	blank2r.bmp	0	1	+	0	1	blank2r.bmp	492	1	VKKV	492	1	blank2r.bmp	572	2	strafen	866	1	!	1239	1	!	1252	0	0	0	0	0	0	0	0	0	0	0	0	0	0	0	0	0	0	0	0	0	0	0	0	0	0	0	0	0	0
070319	11:55:24	12:01:22	357480	5.0.10.0	5_exp_RW	7	Rpleas_acq	CS_B	JXXJ	MQQM	VKKV	BZZB	YDDY	GWWG	retten	spielen	schön	ehrlich	treu	fair	rächen	strafen	schlecht	eitel	tot	faul	1	acq_USpleas_CSpleas2_RW	acq4567_RW	4	31	400	1	300	300	409	50	0	1	1	blank2r.bmp	0	1	+	0	1	blank2r.bmp	492	1	MQQM	492	1	blank2r.bmp	572	3	fair	866	1	!	1239	1	!	1306	0	0	0	0	0	0	0	0	0	0	0	0	0	0	0	0	0	0	0	0	0	0	0	0	0	0	0	0	0	0
070319	11:55:24	12:01:24	359812	5.0.10.0	5_exp_RW	7	Rpleas_acq	CS_B	JXXJ	MQQM	VKKV	BZZB	YDDY	GWWG	retten	spielen	schön	ehrlich	treu	fair	rächen	strafen	schlecht	eitel	tot	faul	1	acq_USpleas_CSpleas2_RW	acq4567_RW	4	32	400	0	300	300	569	50	0	1	1	blank2r.bmp	0	1	+	0	1	blank2r.bmp	492	1	MQQM	492	1	blank2r.bmp	572	3	fair	866	1	!	1239	1	!	-1	0	0	0	0	0	0	0	0	0	0	0	0	0	0	0	0	0	0	0	0	0	0	0	0	0	0	0	0	0	0
070319	11:55:24	12:01:26	362011	5.0.10.0	5_exp_RW	7	Rpleas_acq	CS_B	JXXJ	MQQM	VKKV	BZZB	YDDY	GWWG	retten	spielen	schön	ehrlich	treu	fair	rächen	strafen	schlecht	eitel	tot	faul	1	acq_USpleas_CSpleas1_RW	acq4567_RW	4	33	400	1	300	300	387	50	0	1	1	blank2r.bmp	0	1	+	0	1	blank2r.bmp	492	1	JXXJ	492	1	blank2r.bmp	572	2	spielen	866	1	!	1239	1	!	1292	0	0	0	0	0	0	0	0	0	0	0	0	0	0	0	0	0	0	0	0	0	0	0	0	0	0	0	0	0	0
070319	11:55:24	12:01:29	364104	5.0.10.0	5_exp_RW	7	Rpleas_acq	CS_B	JXXJ	MQQM	VKKV	BZZB	YDDY	GWWG	retten	spielen	schön	ehrlich	treu	fair	rächen	strafen	schlecht	eitel	tot	faul	1	acq_USpleas_CSpleas1_RW	acq4567_RW	4	34	400	0	300	300	318	50	0	1	1	blank2r.bmp	0	1	+	0	1	blank2r.bmp	492	1	JXXJ	492	1	blank2r.bmp	572	3	schön	866	1	!	-1	1	!	-1	0	0	0	0	0	0	0	0	0	0	0	0	0	0	0	0	0	0	0	0	0	0	0	0	0	0	0	0	0	0
070319	11:55:24	12:01:31	366423	5.0.10.0	5_exp_RW	7	Rpleas_acq	CS_B	JXXJ	MQQM	VKKV	BZZB	YDDY	GWWG	retten	spielen	schön	ehrlich	treu	fair	rächen	strafen	schlecht	eitel	tot	faul	1	acq_USunple_CSunple2_RW	acq4567_RW	4	35	400	0	300	300	539	46	0	1	1	blank2r.bmp	0	1	+	0	1	blank2r.bmp	492	1	BZZB	492	1	blank2r.bmp	572	1	eitel	866	1	!	1239	1	!	-1	0	0	0	0	0	0	0	0	0	0	0	0	0	0	0	0	0	0	0	0	0	0	0	0	0	0	0	0	0	0
070319	11:55:24	12:01:33	368715	5.0.10.0	5_exp_RW	7	Rpleas_acq	CS_B	JXXJ	MQQM	VKKV	BZZB	YDDY	GWWG	retten	spielen	schön	ehrlich	treu	fair	rächen	strafen	schlecht	eitel	tot	faul	1	acq_USunple_CSunple1_RW	acq4567_RW	4	36	400	0	300	300	516	46	0	1	1	blank2r.bmp	0	1	+	0	1	blank2r.bmp	492	1	VKKV	492	1	blank2r.bmp	572	2	strafen	866	1	!	1239	1	!	-1	0	0	0	0	0	0	0	0	0	0	0	0	0	0	0	0	0	0	0	0	0	0	0	0	0	0	0	0	0	0
070319	11:55:24	12:01:35	371021	5.0.10.0	5_exp_RW	7	Rpleas_acq	CS_B	JXXJ	MQQM	VKKV	BZZB	YDDY	GWWG	retten	spielen	schön	ehrlich	treu	fair	rächen	strafen	schlecht	eitel	tot	faul	1	acq_USunple_CSunple2_RW	acq4567_RW	4	37	400	0	300	300	526	46	0	1	1	blank2r.bmp	0	1	+	0	1	blank2r.bmp	492	1	BZZB	492	1	blank2r.bmp	572	2	tot	866	1	!	1239	1	!	-1	0	0	0	0	0	0	0	0	0	0	0	0	0	0	0	0	0	0	0	0	0	0	0	0	0	0	0	0	0	0
070319	11:55:24	12:01:38	373207	5.0.10.0	5_exp_RW	7	Rpleas_acq	CS_B	JXXJ	MQQM	VKKV	BZZB	YDDY	GWWG	retten	spielen	schön	ehrlich	treu	fair	rächen	strafen	schlecht	eitel	tot	faul	1	acq_USpleas_CSpleas1_RW	acq4567_RW	4	38	400	1	300	300	373	50	0	1	1	blank2r.bmp	0	1	+	0	1	blank2r.bmp	492	1	JXXJ	492	1	blank2r.bmp	572	1	retten	866	1	!	1239	1	!	1279	0	0	0	0	0	0	0	0	0	0	0	0	0	0	0	0	0	0	0	0	0	0	0	0	0	0	0	0	0	0
070319	11:55:24	12:01:40	375366	5.0.10.0	5_exp_RW	7	Rpleas_acq	CS_B	JXXJ	MQQM	VKKV	BZZB	YDDY	GWWG	retten	spielen	schön	ehrlich	treu	fair	rächen	strafen	schlecht	eitel	tot	faul	1	acq_USpleas_CSpleas2_RW	acq4567_RW	4	39	400	1	300	300	359	50	0	1	1	blank2r.bmp	0	1	+	0	1	blank2r.bmp	492	1	MQQM	492	1	blank2r.bmp	572	2	treu	866	1	!	1239	1	!	1266	0	0	0	0	0	0	0	0	0	0	0	0	0	0	0	0	0	0	0	0	0	0	0	0	0	0	0	0	0	0
070319	11:55:24	12:01:42	377525	5.0.10.0	5_exp_RW	7	Rpleas_acq	CS_B	JXXJ	MQQM	VKKV	BZZB	YDDY	GWWG	retten	spielen	schön	ehrlich	treu	fair	rächen	strafen	schlecht	eitel	tot	faul	1	acq_USunple_CSunple1_RW	acq4567_RW	4	40	400	1	300	300	354	46	0	1	1	blank2r.bmp	0	1	+	0	1	blank2r.bmp	492	1	VKKV	492	1	blank2r.bmp	572	3	schlecht	866	1	!	1239	1	!	1252	0	0	0	0	0	0	0	0	0	0	0	0	0	0	0	0	0	0	0	0	0	0	0	0	0	0	0	0	0	0
070319	11:55:24	12:01:44	379777	5.0.10.0	5_exp_RW	7	Rpleas_acq	CS_B	JXXJ	MQQM	VKKV	BZZB	YDDY	GWWG	retten	spielen	schön	ehrlich	treu	fair	rächen	strafen	schlecht	eitel	tot	faul	1	acq_USunple_CSunple2_RW	acq4567_RW	4	41	400	0	300	300	488	46	0	1	1	blank2r.bmp	0	1	+	0	1	blank2r.bmp	492	1	BZZB	492	1	blank2r.bmp	572	3	faul	866	1	!	1239	1	!	-1	0	0	0	0	0	0	0	0	0	0	0	0	0	0	0	0	0	0	0	0	0	0	0	0	0	0	0	0	0	0
070319	11:55:24	12:01:46	381803	5.0.10.0	5_exp_RW	7	Rpleas_acq	CS_B	JXXJ	MQQM	VKKV	BZZB	YDDY	GWWG	retten	spielen	schön	ehrlich	treu	fair	rächen	strafen	schlecht	eitel	tot	faul	1	acq_USunple_CSunple2_RW	acq4567_RW	4	42	400	0	300	300	244	46	0	1	1	blank2r.bmp	0	1	+	0	1	blank2r.bmp	492	1	BZZB	492	1	blank2r.bmp	572	2	tot	866	1	!	-1	1	!	-1	0	0	0	0	0	0	0	0	0	0	0	0	0	0	0	0	0	0	0	0	0	0	0	0	0	0	0	0	0	0
070319	11:55:24	12:01:48	384069	5.0.10.0	5_exp_RW	7	Rpleas_acq	CS_B	JXXJ	MQQM	VKKV	BZZB	YDDY	GWWG	retten	spielen	schön	ehrlich	treu	fair	rächen	strafen	schlecht	eitel	tot	faul	1	acq_USpleas_CSpleas2_RW	acq4567_RW	4	43	400	1	300	300	462	50	0	1	1	blank2r.bmp	0	1	+	0	1	blank2r.bmp	492	1	MQQM	492	1	blank2r.bmp	572	1	ehrlich	866	1	!	1239	1	!	1359	0	0	0	0	0	0	0	0	0	0	0	0	0	0	0	0	0	0	0	0	0	0	0	0	0	0	0	0	0	0
070319	11:55:24	12:01:51	386321	5.0.10.0	5_exp_RW	7	Rpleas_acq	CS_B	JXXJ	MQQM	VKKV	BZZB	YDDY	GWWG	retten	spielen	schön	ehrlich	treu	fair	rächen	strafen	schlecht	eitel	tot	faul	1	acq_USunple_CSunple1_RW	acq4567_RW	4	44	400	1	300	300	443	46	0	1	1	blank2r.bmp	0	1	+	0	1	blank2r.bmp	492	1	VKKV	492	1	blank2r.bmp	572	1	rächen	866	1	!	1239	1	!	1346	0	0	0	0	0	0	0	0	0	0	0	0	0	0	0	0	0	0	0	0	0	0	0	0	0	0	0	0	0	0
070319	11:55:24	12:01:53	388614	5.0.10.0	5_exp_RW	7	Rpleas_acq	CS_B	JXXJ	MQQM	VKKV	BZZB	YDDY	GWWG	retten	spielen	schön	ehrlich	treu	fair	rächen	strafen	schlecht	eitel	tot	faul	1	acq_USpleas_CSpleas1_RW	acq4567_RW	4	45	400	0	300	300	530	50	0	1	1	blank2r.bmp	0	1	+	0	1	blank2r.bmp	492	1	JXXJ	492	1	blank2r.bmp	572	2	spielen	866	1	!	1239	1	!	-1	0	0	0	0	0	0	0	0	0	0	0	0	0	0	0	0	0	0	0	0	0	0	0	0	0	0	0	0	0	0
070319	11:55:24	12:01:55	390893	5.0.10.0	5_exp_RW	7	Rpleas_acq	CS_B	JXXJ	MQQM	VKKV	BZZB	YDDY	GWWG	retten	spielen	schön	ehrlich	treu	fair	rächen	strafen	schlecht	eitel	tot	faul	1	acq_USunple_CSunple1_RW	acq4567_RW	4	46	400	0	300	300	479	46	0	1	1	blank2r.bmp	0	1	+	0	1	blank2r.bmp	492	1	VKKV	492	1	blank2r.bmp	572	1	rächen	866	1	!	1239	1	!	-1	0	0	0	0	0	0	0	0	0	0	0	0	0	0	0	0	0	0	0	0	0	0	0	0	0	0	0	0	0	0
070319	11:55:24	12:01:58	393172	5.0.10.0	5_exp_RW	7	Rpleas_acq	CS_B	JXXJ	MQQM	VKKV	BZZB	YDDY	GWWG	retten	spielen	schön	ehrlich	treu	fair	rächen	strafen	schlecht	eitel	tot	faul	1	acq_USunple_CSunple1_RW	acq4567_RW	4	47	400	0	300	300	499	46	0	1	1	blank2r.bmp	0	1	+	0	1	blank2r.bmp	492	1	VKKV	492	1	blank2r.bmp	572	2	strafen	866	1	!	1239	1	!	-1	0	0	0	0	0	0	0	0	0	0	0	0	0	0	0	0	0	0	0	0	0	0	0	0	0	0	0	0	0	0
070319	11:55:24	12:02:00	395438	5.0.10.0	5_exp_RW	7	Rpleas_acq	CS_B	JXXJ	MQQM	VKKV	BZZB	YDDY	GWWG	retten	spielen	schön	ehrlich	treu	fair	rächen	strafen	schlecht	eitel	tot	faul	1	acq_USunple_CSunple1_RW	acq4567_RW	4	48	400	0	300	300	479	46	0	1	1	blank2r.bmp	0	1	+	0	1	blank2r.bmp	492	1	VKKV	492	1	blank2r.bmp	572	3	schlecht	866	1	!	1239	1	!	-1	0	0	0	0	0	0	0	0	0	0	0	0	0	0	0	0	0	0	0	0	0	0	0	0	0	0	0	0	0	0
070319	11:55:24	12:02:02	397397	5.0.10.0	5_exp_RW	7	Rpleas_acq	CS_B	JXXJ	MQQM	VKKV	BZZB	YDDY	GWWG	retten	spielen	schön	ehrlich	treu	fair	rächen	strafen	schlecht	eitel	tot	faul	1	acq_USpleas_CSpleas2_RW	acq4567_RW	4	49	400	0	300	300	179	46	0	0	1	blank2r.bmp	0	1	+	0	1	blank2r.bmp	492	1	MQQM	492	1	blank2r.bmp	572	2	treu	866	1	!	-1	1	!	-1	0	0	0	0	0	0	0	0	0	0	0	0	0	0	0	0	0	0	0	0	0	0	0	0	0	0	0	0	0	0
070319	11:55:24	12:02:04	399383	5.0.10.0	5_exp_RW	7	Rpleas_acq	CS_B	JXXJ	MQQM	VKKV	BZZB	YDDY	GWWG	retten	spielen	schön	ehrlich	treu	fair	rächen	strafen	schlecht	eitel	tot	faul	1	acq_USpleas_CSpleas1_RW	acq4567_RW	4	50	400	0	300	300	211	46	0	0	1	blank2r.bmp	0	1	+	0	1	blank2r.bmp	492	1	JXXJ	492	1	blank2r.bmp	572	2	spielen	866	1	!	-1	1	!	-1	0	0	0	0	0	0	0	0	0	0	0	0	0	0	0	0	0	0	0	0	0	0	0	0	0	0	0	0	0	0
070319	11:55:24	12:02:06	401408	5.0.10.0	5_exp_RW	7	Rpleas_acq	CS_B	JXXJ	MQQM	VKKV	BZZB	YDDY	GWWG	retten	spielen	schön	ehrlich	treu	fair	rächen	strafen	schlecht	eitel	tot	faul	1	acq_USpleas_CSpleas1_RW	acq4567_RW	4	51	400	0	300	300	250	46	0	0	1	blank2r.bmp	0	1	+	0	1	blank2r.bmp	492	1	JXXJ	492	1	blank2r.bmp	572	1	retten	866	1	!	-1	1	!	-1	0	0	0	0	0	0	0	0	0	0	0	0	0	0	0	0	0	0	0	0	0	0	0	0	0	0	0	0	0	0
070319	11:55:24	12:02:08	403821	5.0.10.0	5_exp_RW	7	Rpleas_acq	CS_B	JXXJ	MQQM	VKKV	BZZB	YDDY	GWWG	retten	spielen	schön	ehrlich	treu	fair	rächen	strafen	schlecht	eitel	tot	faul	1	acq_USpleas_CSpleas2_RW	acq4567_RW	4	52	400	0	300	300	630	50	0	1	1	blank2r.bmp	0	1	+	0	1	blank2r.bmp	492	1	MQQM	492	1	blank2r.bmp	572	3	fair	866	1	!	1239	1	!	-1	0	0	0	0	0	0	0	0	0	0	0	0	0	0	0	0	0	0	0	0	0	0	0	0	0	0	0	0	0	0
070319	11:55:24	12:02:11	406100	5.0.10.0	5_exp_RW	7	Rpleas_acq	CS_B	JXXJ	MQQM	VKKV	BZZB	YDDY	GWWG	retten	spielen	schön	ehrlich	treu	fair	rächen	strafen	schlecht	eitel	tot	faul	1	acq_USpleas_CSpleas2_RW	acq4567_RW	4	53	400	1	300	300	463	50	0	1	1	blank2r.bmp	0	1	+	0	1	blank2r.bmp	492	1	MQQM	492	1	blank2r.bmp	572	1	ehrlich	866	1	!	1239	1	!	1359	0	0	0	0	0	0	0	0	0	0	0	0	0	0	0	0	0	0	0	0	0	0	0	0	0	0	0	0	0	0
070319	11:55:24	12:02:13	408352	5.0.10.0	5_exp_RW	7	Rpleas_acq	CS_B	JXXJ	MQQM	VKKV	BZZB	YDDY	GWWG	retten	spielen	schön	ehrlich	treu	fair	rächen	strafen	schlecht	eitel	tot	faul	1	acq_USunple_CSunple1_RW	acq4567_RW	4	54	400	1	300	300	457	46	0	1	1	blank2r.bmp	0	1	+	0	1	blank2r.bmp	492	1	VKKV	492	1	blank2r.bmp	572	1	rächen	866	1	!	1239	1	!	1359	0	0	0	0	0	0	0	0	0	0	0	0	0	0	0	0	0	0	0	0	0	0	0	0	0	0	0	0	0	0
070319	11:55:24	12:02:15	410618	5.0.10.0	5_exp_RW	7	Rpleas_acq	CS_B	JXXJ	MQQM	VKKV	BZZB	YDDY	GWWG	retten	spielen	schön	ehrlich	treu	fair	rächen	strafen	schlecht	eitel	tot	faul	1	acq_USpleas_CSpleas2_RW	acq4567_RW	4	55	400	1	300	300	465	50	0	1	1	blank2r.bmp	0	1	+	0	1	blank2r.bmp	492	1	MQQM	492	1	blank2r.bmp	572	1	ehrlich	866	1	!	1239	1	!	1372	0	0	0	0	0	0	0	0	0	0	0	0	0	0	0	0	0	0	0	0	0	0	0	0	0	0	0	0	0	0
070319	11:55:24	12:02:17	412857	5.0.10.0	5_exp_RW	7	Rpleas_acq	CS_B	JXXJ	MQQM	VKKV	BZZB	YDDY	GWWG	retten	spielen	schön	ehrlich	treu	fair	rächen	strafen	schlecht	eitel	tot	faul	1	acq_USunple_CSunple2_RW	acq4567_RW	4	56	400	1	300	300	447	46	0	1	1	blank2r.bmp	0	1	+	0	1	blank2r.bmp	492	1	BZZB	492	1	blank2r.bmp	572	3	faul	866	1	!	1239	1	!	1346	0	0	0	0	0	0	0	0	0	0	0	0	0	0	0	0	0	0	0	0	0	0	0	0	0	0	0	0	0	0
070319	11:55:24	12:02:19	414910	5.0.10.0	5_exp_RW	7	Rpleas_acq	CS_B	JXXJ	MQQM	VKKV	BZZB	YDDY	GWWG	retten	spielen	schön	ehrlich	treu	fair	rächen	strafen	schlecht	eitel	tot	faul	1	acq_USunple_CSunple2_RW	acq4567_RW	4	57	400	0	300	300	288	46	0	1	1	blank2r.bmp	0	1	+	0	1	blank2r.bmp	492	1	BZZB	492	1	blank2r.bmp	572	1	eitel	866	1	!	-1	1	!	-1	0	0	0	0	0	0	0	0	0	0	0	0	0	0	0	0	0	0	0	0	0	0	0	0	0	0	0	0	0	0
070319	11:55:24	12:02:21	417002	5.0.10.0	5_exp_RW	7	Rpleas_acq	CS_B	JXXJ	MQQM	VKKV	BZZB	YDDY	GWWG	retten	spielen	schön	ehrlich	treu	fair	rächen	strafen	schlecht	eitel	tot	faul	1	acq_USpleas_CSpleas1_RW	acq4567_RW	4	58	400	0	300	300	314	50	0	1	1	blank2r.bmp	0	1	+	0	1	blank2r.bmp	492	1	JXXJ	492	1	blank2r.bmp	572	3	schön	866	1	!	-1	1	!	-1	0	0	0	0	0	0	0	0	0	0	0	0	0	0	0	0	0	0	0	0	0	0	0	0	0	0	0	0	0	0
070319	11:55:24	12:02:23	419081	5.0.10.0	5_exp_RW	7	Rpleas_acq	CS_B	JXXJ	MQQM	VKKV	BZZB	YDDY	GWWG	retten	spielen	schön	ehrlich	treu	fair	rächen	strafen	schlecht	eitel	tot	faul	1	acq_USpleas_CSpleas1_RW	acq4567_RW	4	59	400	0	300	300	303	50	0	1	1	blank2r.bmp	0	1	+	0	1	blank2r.bmp	492	1	JXXJ	492	1	blank2r.bmp	572	3	schön	866	1	!	-1	1	!	-1	0	0	0	0	0	0	0	0	0	0	0	0	0	0	0	0	0	0	0	0	0	0	0	0	0	0	0	0	0	0
070319	11:55:24	12:02:26	421374	5.0.10.0	5_exp_RW	7	Rpleas_acq	CS_B	JXXJ	MQQM	VKKV	BZZB	YDDY	GWWG	retten	spielen	schön	ehrlich	treu	fair	rächen	strafen	schlecht	eitel	tot	faul	1	acq_USunple_CSunple2_RW	acq4567_RW	4	60	400	0	300	300	510	46	0	1	1	blank2r.bmp	0	1	+	0	1	blank2r.bmp	492	1	BZZB	492	1	blank2r.bmp	572	1	eitel	866	1	!	1239	1	!	-1	0	0	0	0	0	0	0	0	0	0	0	0	0	0	0	0	0	0	0	0	0	0	0	0	0	0	0	0	0	0
070319	11:55:24	12:02:28	423639	5.0.10.0	5_exp_RW	7	Rpleas_acq	CS_B	JXXJ	MQQM	VKKV	BZZB	YDDY	GWWG	retten	spielen	schön	ehrlich	treu	fair	rächen	strafen	schlecht	eitel	tot	faul	1	acq_USunple_CSunple1_RW	acq4567_RW	4	61	400	1	300	300	460	46	0	1	1	blank2r.bmp	0	1	+	0	1	blank2r.bmp	492	1	VKKV	492	1	blank2r.bmp	572	3	schlecht	866	1	!	1239	1	!	1359	0	0	0	0	0	0	0	0	0	0	0	0	0	0	0	0	0	0	0	0	0	0	0	0	0	0	0	0	0	0
070319	11:55:24	12:02:30	425878	5.0.10.0	5_exp_RW	7	Rpleas_acq	CS_B	JXXJ	MQQM	VKKV	BZZB	YDDY	GWWG	retten	spielen	schön	ehrlich	treu	fair	rächen	strafen	schlecht	eitel	tot	faul	1	acq_USunple_CSunple2_RW	acq4567_RW	4	62	400	1	300	300	442	46	0	1	1	blank2r.bmp	0	1	+	0	1	blank2r.bmp	492	1	BZZB	492	1	blank2r.bmp	572	3	faul	866	1	!	1239	1	!	1346	0	0	0	0	0	0	0	0	0	0	0	0	0	0	0	0	0	0	0	0	0	0	0	0	0	0	0	0	0	0
070319	11:55:24	12:02:32	428038	5.0.10.0	5_exp_RW	7	Rpleas_acq	CS_B	JXXJ	MQQM	VKKV	BZZB	YDDY	GWWG	retten	spielen	schön	ehrlich	treu	fair	rächen	strafen	schlecht	eitel	tot	faul	1	acq_USunple_CSunple2_RW	acq4567_RW	4	63	400	1	300	300	346	46	0	1	1	blank2r.bmp	0	1	+	0	1	blank2r.bmp	492	1	BZZB	492	1	blank2r.bmp	572	2	tot	866	1	!	1239	1	!	1252	0	0	0	0	0	0	0	0	0	0	0	0	0	0	0	0	0	0	0	0	0	0	0	0	0	0	0	0	0	0
070319	11:55:24	12:02:34	430023	5.0.10.0	5_exp_RW	7	Rpleas_acq	CS_B	JXXJ	MQQM	VKKV	BZZB	YDDY	GWWG	retten	spielen	schön	ehrlich	treu	fair	rächen	strafen	schlecht	eitel	tot	faul	1	acq_USunple_CSunple1_RW	acq4567_RW	4	64	400	0	300	300	219	50	0	0	1	blank2r.bmp	0	1	+	0	1	blank2r.bmp	492	1	VKKV	492	1	blank2r.bmp	572	2	strafen	866	1	!	-1	1	!	-1	0	0	0	0	0	0	0	0	0	0	0	0	0	0	0	0	0	0	0	0	0	0	0	0	0	0	0	0	0	0
070319	11:55:24	12:02:36	432036	5.0.10.0	5_exp_RW	7	Rpleas_acq	CS_B	JXXJ	MQQM	VKKV	BZZB	YDDY	GWWG	retten	spielen	schön	ehrlich	treu	fair	rächen	strafen	schlecht	eitel	tot	faul	1	acq_USpleas_CSpleas2_RW	acq4567_RW	4	65	400	0	300	300	226	46	0	0	1	blank2r.bmp	0	1	+	0	1	blank2r.bmp	492	1	MQQM	492	1	blank2r.bmp	572	3	fair	866	1	!	-1	1	!	-1	0	0	0	0	0	0	0	0	0	0	0	0	0	0	0	0	0	0	0	0	0	0	0	0	0	0	0	0	0	0
070319	11:55:24	12:02:38	434075	5.0.10.0	5_exp_RW	7	Rpleas_acq	CS_B	JXXJ	MQQM	VKKV	BZZB	YDDY	GWWG	retten	spielen	schön	ehrlich	treu	fair	rächen	strafen	schlecht	eitel	tot	faul	1	acq_USpleas_CSpleas2_RW	acq4567_RW	4	66	400	0	300	300	258	46	0	0	1	blank2r.bmp	0	1	+	0	1	blank2r.bmp	492	1	MQQM	492	1	blank2r.bmp	572	2	treu	866	1	!	-1	1	!	-1	0	0	0	0	0	0	0	0	0	0	0	0	0	0	0	0	0	0	0	0	0	0	0	0	0	0	0	0	0	0
070319	11:55:24	12:02:41	436128	5.0.10.0	5_exp_RW	7	Rpleas_acq	CS_B	JXXJ	MQQM	VKKV	BZZB	YDDY	GWWG	retten	spielen	schön	ehrlich	treu	fair	rächen	strafen	schlecht	eitel	tot	faul	1	acq_USpleas_CSpleas1_RW	acq4567_RW	4	67	400	0	300	300	266	50	0	1	1	blank2r.bmp	0	1	+	0	1	blank2r.bmp	492	1	JXXJ	492	1	blank2r.bmp	572	2	spielen	866	1	!	-1	1	!	-1	0	0	0	0	0	0	0	0	0	0	0	0	0	0	0	0	0	0	0	0	0	0	0	0	0	0	0	0	0	0
070319	11:55:24	12:02:43	438220	5.0.10.0	5_exp_RW	7	Rpleas_acq	CS_B	JXXJ	MQQM	VKKV	BZZB	YDDY	GWWG	retten	spielen	schön	ehrlich	treu	fair	rächen	strafen	schlecht	eitel	tot	faul	1	acq_USunple_CSunple2_RW	acq4567_RW	4	68	400	0	300	300	308	46	0	1	1	blank2r.bmp	0	1	+	0	1	blank2r.bmp	492	1	BZZB	492	1	blank2r.bmp	572	1	eitel	866	1	!	-1	1	!	-1	0	0	0	0	0	0	0	0	0	0	0	0	0	0	0	0	0	0	0	0	0	0	0	0	0	0	0	0	0	0
070319	11:55:24	12:02:45	440193	5.0.10.0	5_exp_RW	7	Rpleas_acq	CS_B	JXXJ	MQQM	VKKV	BZZB	YDDY	GWWG	retten	spielen	schön	ehrlich	treu	fair	rächen	strafen	schlecht	eitel	tot	faul	1	acq_USpleas_CSpleas2_RW	acq4567_RW	4	69	400	0	300	300	177	50	0	1	1	blank2r.bmp	0	1	+	0	1	blank2r.bmp	492	1	MQQM	492	1	blank2r.bmp	572	2	treu	866	1	!	-1	1	!	-1	0	0	0	0	0	0	0	0	0	0	0	0	0	0	0	0	0	0	0	0	0	0	0	0	0	0	0	0	0	0
070319	11:55:24	12:02:47	442365	5.0.10.0	5_exp_RW	7	Rpleas_acq	CS_B	JXXJ	MQQM	VKKV	BZZB	YDDY	GWWG	retten	spielen	schön	ehrlich	treu	fair	rächen	strafen	schlecht	eitel	tot	faul	1	acq_USpleas_CSpleas1_RW	acq4567_RW	4	70	400	1	300	300	369	46	0	0	1	blank2r.bmp	0	1	+	0	1	blank2r.bmp	492	1	JXXJ	492	1	blank2r.bmp	572	1	retten	866	1	!	1239	1	!	1266	0	0	0	0	0	0	0	0	0	0	0	0	0	0	0	0	0	0	0	0	0	0	0	0	0	0	0	0	0	0
070319	11:55:24	12:02:49	444538	5.0.10.0	5_exp_RW	7	Rpleas_acq	CS_B	JXXJ	MQQM	VKKV	BZZB	YDDY	GWWG	retten	spielen	schön	ehrlich	treu	fair	rächen	strafen	schlecht	eitel	tot	faul	1	acq_USpleas_CSpleas2_RW	acq4567_RW	4	71	400	1	300	300	384	50	0	1	1	blank2r.bmp	0	1	+	0	1	blank2r.bmp	492	1	MQQM	492	1	blank2r.bmp	572	1	ehrlich	866	1	!	1239	1	!	1279	0	0	0	0	0	0	0	0	0	0	0	0	0	0	0	0	0	0	0	0	0	0	0	0	0	0	0	0	0	0
070319	11:55:24	12:02:51	446777	5.0.10.0	5_exp_RW	7	Rpleas_acq	CS_B	JXXJ	MQQM	VKKV	BZZB	YDDY	GWWG	retten	spielen	schön	ehrlich	treu	fair	rächen	strafen	schlecht	eitel	tot	faul	1	acq_USpleas_CSpleas2_RW	acq4567_RW	4	72	400	1	300	300	448	50	0	1	1	blank2r.bmp	0	1	+	0	1	blank2r.bmp	492	1	MQQM	492	1	blank2r.bmp	572	3	fair	866	1	!	1239	1	!	1346	0	0	0	0	0	0	0	0	0	0	0	0	0	0	0	0	0	0	0	0	0	0	0	0	0	0	0	0	0	0
070319	11:55:24	12:02:53	448989	5.0.10.0	5_exp_RW	7	Rpleas_acq	CS_B	JXXJ	MQQM	VKKV	BZZB	YDDY	GWWG	retten	spielen	schön	ehrlich	treu	fair	rächen	strafen	schlecht	eitel	tot	faul	1	acq_USunple_CSunple2_RW	acq4567_RW	4	73	400	1	300	300	415	46	0	1	1	blank2r.bmp	0	1	+	0	1	blank2r.bmp	492	1	BZZB	492	1	blank2r.bmp	572	2	tot	866	1	!	1239	1	!	1319	0	0	0	0	0	0	0	0	0	0	0	0	0	0	0	0	0	0	0	0	0	0	0	0	0	0	0	0	0	0
070319	11:55:24	12:02:55	451068	5.0.10.0	5_exp_RW	7	Rpleas_acq	CS_B	JXXJ	MQQM	VKKV	BZZB	YDDY	GWWG	retten	spielen	schön	ehrlich	treu	fair	rächen	strafen	schlecht	eitel	tot	faul	1	acq_USpleas_CSpleas1_RW	acq4567_RW	4	74	400	0	300	300	306	50	0	1	1	blank2r.bmp	0	1	+	0	1	blank2r.bmp	492	1	JXXJ	492	1	blank2r.bmp	572	3	schön	866	1	!	-1	1	!	-1	0	0	0	0	0	0	0	0	0	0	0	0	0	0	0	0	0	0	0	0	0	0	0	0	0	0	0	0	0	0
070319	11:55:24	12:02:58	453281	5.0.10.0	5_exp_RW	7	Rpleas_acq	CS_B	JXXJ	MQQM	VKKV	BZZB	YDDY	GWWG	retten	spielen	schön	ehrlich	treu	fair	rächen	strafen	schlecht	eitel	tot	faul	1	acq_USunple_CSunple2_RW	acq4567_RW	4	75	400	1	300	300	409	46	0	1	1	blank2r.bmp	0	1	+	0	1	blank2r.bmp	492	1	BZZB	492	1	blank2r.bmp	572	3	faul	866	1	!	1239	1	!	1306	0	0	0	0	0	0	0	0	0	0	0	0	0	0	0	0	0	0	0	0	0	0	0	0	0	0	0	0	0	0
070319	11:55:24	12:03:00	455493	5.0.10.0	5_exp_RW	7	Rpleas_acq	CS_B	JXXJ	MQQM	VKKV	BZZB	YDDY	GWWG	retten	spielen	schön	ehrlich	treu	fair	rächen	strafen	schlecht	eitel	tot	faul	1	acq_USunple_CSunple1_RW	acq4567_RW	4	76	400	1	300	300	417	46	0	1	1	blank2r.bmp	0	1	+	0	1	blank2r.bmp	492	1	VKKV	492	1	blank2r.bmp	572	3	schlecht	866	1	!	1239	1	!	1319	0	0	0	0	0	0	0	0	0	0	0	0	0	0	0	0	0	0	0	0	0	0	0	0	0	0	0	0	0	0
070319	11:55:24	12:03:02	457479	5.0.10.0	5_exp_RW	7	Rpleas_acq	CS_B	JXXJ	MQQM	VKKV	BZZB	YDDY	GWWG	retten	spielen	schön	ehrlich	treu	fair	rächen	strafen	schlecht	eitel	tot	faul	1	acq_USpleas_CSpleas1_RW	acq4567_RW	4	77	400	0	300	300	219	50	0	1	1	blank2r.bmp	0	1	+	0	1	blank2r.bmp	492	1	JXXJ	492	1	blank2r.bmp	572	2	spielen	866	1	!	-1	1	!	-1	0	0	0	0	0	0	0	0	0	0	0	0	0	0	0	0	0	0	0	0	0	0	0	0	0	0	0	0	0	0
070319	11:55:24	12:03:04	459731	5.0.10.0	5_exp_RW	7	Rpleas_acq	CS_B	JXXJ	MQQM	VKKV	BZZB	YDDY	GWWG	retten	spielen	schön	ehrlich	treu	fair	rächen	strafen	schlecht	eitel	tot	faul	1	acq_USunple_CSunple1_RW	acq4567_RW	4	78	400	1	300	300	451	46	0	1	1	blank2r.bmp	0	1	+	0	1	blank2r.bmp	492	1	VKKV	492	1	blank2r.bmp	572	1	rächen	866	1	!	1239	1	!	1346	0	0	0	0	0	0	0	0	0	0	0	0	0	0	0	0	0	0	0	0	0	0	0	0	0	0	0	0	0	0
070319	11:55:24	12:03:06	461771	5.0.10.0	5_exp_RW	7	Rpleas_acq	CS_B	JXXJ	MQQM	VKKV	BZZB	YDDY	GWWG	retten	spielen	schön	ehrlich	treu	fair	rächen	strafen	schlecht	eitel	tot	faul	1	acq_USpleas_CSpleas1_RW	acq4567_RW	4	79	400	0	300	300	252	50	0	1	1	blank2r.bmp	0	1	+	0	1	blank2r.bmp	492	1	JXXJ	492	1	blank2r.bmp	572	1	retten	866	1	!	-1	1	!	-1	0	0	0	0	0	0	0	0	0	0	0	0	0	0	0	0	0	0	0	0	0	0	0	0	0	0	0	0	0	0
070319	11:55:24	12:03:09	464116	5.0.10.0	5_exp_RW	7	Rpleas_acq	CS_B	JXXJ	MQQM	VKKV	BZZB	YDDY	GWWG	retten	spielen	schön	ehrlich	treu	fair	rächen	strafen	schlecht	eitel	tot	faul	1	acq_USunple_CSunple1_RW	acq4567_RW	4	80	400	0	300	300	560	46	0	1	1	blank2r.bmp	0	1	+	0	1	blank2r.bmp	492	1	VKKV	492	1	blank2r.bmp	572	2	strafen	866	1	!	1239	1	!	-1	0	0	0	0	0	0	0	0	0	0	0	0	0	0	0	0	0	0	0	0	0	0	0	0	0	0	0	0	0	0
070319	11:55:24	12:03:27	482215	5.0.10.0	5_exp_RW	7	Rpleas_acq	CS_B	JXXJ	MQQM	VKKV	BZZB	YDDY	GWWG	retten	spielen	schön	ehrlich	treu	fair	rächen	strafen	schlecht	eitel	tot	faul	1	acq_USunple_CSunple2_RW	acq4567_RW	5	1	400	0	300	300	243	46	0	1	1	blank2r.bmp	0	1	+	0	1	blank2r.bmp	492	1	BZZB	492	1	blank2r.bmp	572	2	tot	866	1	!	-1	1	!	-1	0	0	0	0	0	0	0	0	0	0	0	0	0	0	0	0	0	0	0	0	0	0	0	0	0	0	0	0	0	0
070319	11:55:24	12:03:29	484575	5.0.10.0	5_exp_RW	7	Rpleas_acq	CS_B	JXXJ	MQQM	VKKV	BZZB	YDDY	GWWG	retten	spielen	schön	ehrlich	treu	fair	rächen	strafen	schlecht	eitel	tot	faul	1	acq_USunple_CSunple1_RW	acq4567_RW	5	2	400	0	300	300	581	46	0	1	1	blank2r.bmp	0	1	+	0	1	blank2r.bmp	492	1	VKKV	492	1	blank2r.bmp	572	1	rächen	866	1	!	1239	1	!	-1	0	0	0	0	0	0	0	0	0	0	0	0	0	0	0	0	0	0	0	0	0	0	0	0	0	0	0	0	0	0
070319	11:55:24	12:03:31	486760	5.0.10.0	5_exp_RW	7	Rpleas_acq	CS_B	JXXJ	MQQM	VKKV	BZZB	YDDY	GWWG	retten	spielen	schön	ehrlich	treu	fair	rächen	strafen	schlecht	eitel	tot	faul	1	acq_USunple_CSunple2_RW	acq4567_RW	5	3	400	1	300	300	385	46	0	1	1	blank2r.bmp	0	1	+	0	1	blank2r.bmp	492	1	BZZB	492	1	blank2r.bmp	572	1	eitel	866	1	!	1239	1	!	1279	0	0	0	0	0	0	0	0	0	0	0	0	0	0	0	0	0	0	0	0	0	0	0	0	0	0	0	0	0	0
070319	11:55:24	12:03:33	488906	5.0.10.0	5_exp_RW	7	Rpleas_acq	CS_B	JXXJ	MQQM	VKKV	BZZB	YDDY	GWWG	retten	spielen	schön	ehrlich	treu	fair	rächen	strafen	schlecht	eitel	tot	faul	1	acq_USunple_CSunple1_RW	acq4567_RW	5	4	400	1	300	300	346	46	0	1	1	blank2r.bmp	0	1	+	0	1	blank2r.bmp	492	1	VKKV	492	1	blank2r.bmp	572	3	schlecht	866	1	!	1239	1	!	1252	0	0	0	0	0	0	0	0	0	0	0	0	0	0	0	0	0	0	0	0	0	0	0	0	0	0	0	0	0	0
070319	11:55:24	12:03:36	491145	5.0.10.0	5_exp_RW	7	Rpleas_acq	CS_B	JXXJ	MQQM	VKKV	BZZB	YDDY	GWWG	retten	spielen	schön	ehrlich	treu	fair	rächen	strafen	schlecht	eitel	tot	faul	1	acq_USpleas_CSpleas2_RW	acq4567_RW	5	5	400	1	300	300	441	50	0	1	1	blank2r.bmp	0	1	+	0	1	blank2r.bmp	492	1	MQQM	492	1	blank2r.bmp	572	2	treu	866	1	!	1239	1	!	1346	0	0	0	0	0	0	0	0	0	0	0	0	0	0	0	0	0	0	0	0	0	0	0	0	0	0	0	0	0	0
070319	11:55:24	12:03:38	493238	5.0.10.0	5_exp_RW	7	Rpleas_acq	CS_B	JXXJ	MQQM	VKKV	BZZB	YDDY	GWWG	retten	spielen	schön	ehrlich	treu	fair	rächen	strafen	schlecht	eitel	tot	faul	1	acq_USpleas_CSpleas2_RW	acq4567_RW	5	6	400	0	300	300	320	46	0	0	1	blank2r.bmp	0	1	+	0	1	blank2r.bmp	492	1	MQQM	492	1	blank2r.bmp	572	1	ehrlich	866	1	!	-1	1	!	-1	0	0	0	0	0	0	0	0	0	0	0	0	0	0	0	0	0	0	0	0	0	0	0	0	0	0	0	0	0	0
070319	11:55:24	12:03:40	495290	5.0.10.0	5_exp_RW	7	Rpleas_acq	CS_B	JXXJ	MQQM	VKKV	BZZB	YDDY	GWWG	retten	spielen	schön	ehrlich	treu	fair	rächen	strafen	schlecht	eitel	tot	faul	1	acq_USpleas_CSpleas1_RW	acq4567_RW	5	7	400	0	300	300	268	50	0	1	1	blank2r.bmp	0	1	+	0	1	blank2r.bmp	492	1	JXXJ	492	1	blank2r.bmp	572	2	spielen	866	1	!	-1	1	!	-1	0	0	0	0	0	0	0	0	0	0	0	0	0	0	0	0	0	0	0	0	0	0	0	0	0	0	0	0	0	0
070319	11:55:24	12:03:42	497623	5.0.10.0	5_exp_RW	7	Rpleas_acq	CS_B	JXXJ	MQQM	VKKV	BZZB	YDDY	GWWG	retten	spielen	schön	ehrlich	treu	fair	rächen	strafen	schlecht	eitel	tot	faul	1	acq_USunple_CSunple2_RW	acq4567_RW	5	8	400	0	300	300	545	46	0	1	1	blank2r.bmp	0	1	+	0	1	blank2r.bmp	492	1	BZZB	492	1	blank2r.bmp	572	3	faul	866	1	!	1239	1	!	-1	0	0	0	0	0	0	0	0	0	0	0	0	0	0	0	0	0	0	0	0	0	0	0	0	0	0	0	0	0	0
070319	11:55:24	12:03:44	499662	5.0.10.0	5_exp_RW	7	Rpleas_acq	CS_B	JXXJ	MQQM	VKKV	BZZB	YDDY	GWWG	retten	spielen	schön	ehrlich	treu	fair	rächen	strafen	schlecht	eitel	tot	faul	1	acq_USunple_CSunple2_RW	acq4567_RW	5	9	400	0	300	300	254	50	0	0	1	blank2r.bmp	0	1	+	0	1	blank2r.bmp	492	1	BZZB	492	1	blank2r.bmp	572	1	eitel	866	1	!	-1	1	!	-1	0	0	0	0	0	0	0	0	0	0	0	0	0	0	0	0	0	0	0	0	0	0	0	0	0	0	0	0	0	0
070319	11:55:24	12:03:46	501754	5.0.10.0	5_exp_RW	7	Rpleas_acq	CS_B	JXXJ	MQQM	VKKV	BZZB	YDDY	GWWG	retten	spielen	schön	ehrlich	treu	fair	rächen	strafen	schlecht	eitel	tot	faul	1	acq_USunple_CSunple2_RW	acq4567_RW	5	10	400	0	300	300	318	46	0	1	1	blank2r.bmp	0	1	+	0	1	blank2r.bmp	492	1	BZZB	492	1	blank2r.bmp	572	2	tot	866	1	!	-1	1	!	-1	0	0	0	0	0	0	0	0	0	0	0	0	0	0	0	0	0	0	0	0	0	0	0	0	0	0	0	0	0	0
070319	11:55:24	12:03:48	504020	5.0.10.0	5_exp_RW	7	Rpleas_acq	CS_B	JXXJ	MQQM	VKKV	BZZB	YDDY	GWWG	retten	spielen	schön	ehrlich	treu	fair	rächen	strafen	schlecht	eitel	tot	faul	1	acq_USpleas_CSpleas1_RW	acq4567_RW	5	11	400	0	300	300	479	50	0	1	1	blank2r.bmp	0	1	+	0	1	blank2r.bmp	492	1	JXXJ	492	1	blank2r.bmp	572	1	retten	866	1	!	1239	1	!	-1	0	0	0	0	0	0	0	0	0	0	0	0	0	0	0	0	0	0	0	0	0	0	0	0	0	0	0	0	0	0
070319	11:55:24	12:03:50	506059	5.0.10.0	5_exp_RW	7	Rpleas_acq	CS_B	JXXJ	MQQM	VKKV	BZZB	YDDY	GWWG	retten	spielen	schön	ehrlich	treu	fair	rächen	strafen	schlecht	eitel	tot	faul	1	acq_USpleas_CSpleas1_RW	acq4567_RW	5	12	400	0	300	300	239	50	0	1	1	blank2r.bmp	0	1	+	0	1	blank2r.bmp	492	1	JXXJ	492	1	blank2r.bmp	572	3	schön	866	1	!	-1	1	!	-1	0	0	0	0	0	0	0	0	0	0	0	0	0	0	0	0	0	0	0	0	0	0	0	0	0	0	0	0	0	0
070319	11:55:24	12:03:53	508152	5.0.10.0	5_exp_RW	7	Rpleas_acq	CS_B	JXXJ	MQQM	VKKV	BZZB	YDDY	GWWG	retten	spielen	schön	ehrlich	treu	fair	rächen	strafen	schlecht	eitel	tot	faul	1	acq_USpleas_CSpleas1_RW	acq4567_RW	5	13	400	0	300	300	312	46	0	0	1	blank2r.bmp	0	1	+	0	1	blank2r.bmp	492	1	JXXJ	492	1	blank2r.bmp	572	1	retten	866	1	!	-1	1	!	-1	0	0	0	0	0	0	0	0	0	0	0	0	0	0	0	0	0	0	0	0	0	0	0	0	0	0	0	0	0	0
070319	11:55:24	12:03:57	512350	5.0.10.0	5_exp_RW	7	Rpleas_acq	CS_B	JXXJ	MQQM	VKKV	BZZB	YDDY	GWWG	retten	spielen	schön	ehrlich	treu	fair	rächen	strafen	schlecht	eitel	tot	faul	1	acq_USpleas_CSpleas2_RW	acq4567_RW	5	14	400	0	300	300	2424	46	0	0	1	blank2r.bmp	0	1	+	0	1	blank2r.bmp	492	1	MQQM	492	1	blank2r.bmp	572	3	fair	866	1	!	1239	1	!	-1	0	0	0	0	0	0	0	0	0	0	0	0	0	0	0	0	0	0	0	0	0	0	0	0	0	0	0	0	0	0
070319	11:55:24	12:03:59	514562	5.0.10.0	5_exp_RW	7	Rpleas_acq	CS_B	JXXJ	MQQM	VKKV	BZZB	YDDY	GWWG	retten	spielen	schön	ehrlich	treu	fair	rächen	strafen	schlecht	eitel	tot	faul	1	acq_USunple_CSunple1_RW	acq4567_RW	5	15	400	1	300	300	396	46	0	1	1	blank2r.bmp	0	1	+	0	1	blank2r.bmp	492	1	VKKV	492	1	blank2r.bmp	572	2	strafen	866	1	!	1239	1	!	1292	0	0	0	0	0	0	0	0	0	0	0	0	0	0	0	0	0	0	0	0	0	0	0	0	0	0	0	0	0	0
070319	11:55:24	12:04:01	516895	5.0.10.0	5_exp_RW	7	Rpleas_acq	CS_B	JXXJ	MQQM	VKKV	BZZB	YDDY	GWWG	retten	spielen	schön	ehrlich	treu	fair	rächen	strafen	schlecht	eitel	tot	faul	1	acq_USunple_CSunple1_RW	acq4567_RW	5	16	400	0	300	300	554	46	0	1	1	blank2r.bmp	0	1	+	0	1	blank2r.bmp	492	1	VKKV	492	1	blank2r.bmp	572	3	schlecht	866	1	!	1239	1	!	-1	0	0	0	0	0	0	0	0	0	0	0	0	0	0	0	0	0	0	0	0	0	0	0	0	0	0	0	0	0	0
070319	11:55:24	12:04:04	519200	5.0.10.0	5_exp_RW	7	Rpleas_acq	CS_B	JXXJ	MQQM	VKKV	BZZB	YDDY	GWWG	retten	spielen	schön	ehrlich	treu	fair	rächen	strafen	schlecht	eitel	tot	faul	1	acq_USunple_CSunple1_RW	acq4567_RW	5	17	400	0	300	300	531	46	0	1	1	blank2r.bmp	0	1	+	0	1	blank2r.bmp	492	1	VKKV	492	1	blank2r.bmp	572	2	strafen	866	1	!	1239	1	!	-1	0	0	0	0	0	0	0	0	0	0	0	0	0	0	0	0	0	0	0	0	0	0	0	0	0	0	0	0	0	0
070319	11:55:24	12:04:06	521359	5.0.10.0	5_exp_RW	7	Rpleas_acq	CS_B	JXXJ	MQQM	VKKV	BZZB	YDDY	GWWG	retten	spielen	schön	ehrlich	treu	fair	rächen	strafen	schlecht	eitel	tot	faul	1	acq_USpleas_CSpleas2_RW	acq4567_RW	5	18	400	1	300	300	346	46	0	0	1	blank2r.bmp	0	1	+	0	1	blank2r.bmp	492	1	MQQM	492	1	blank2r.bmp	572	3	fair	866	1	!	1239	1	!	1252	0	0	0	0	0	0	0	0	0	0	0	0	0	0	0	0	0	0	0	0	0	0	0	0	0	0	0	0	0	0
070319	11:55:24	12:04:08	523545	5.0.10.0	5_exp_RW	7	Rpleas_acq	CS_B	JXXJ	MQQM	VKKV	BZZB	YDDY	GWWG	retten	spielen	schön	ehrlich	treu	fair	rächen	strafen	schlecht	eitel	tot	faul	1	acq_USpleas_CSpleas1_RW	acq4567_RW	5	19	400	1	300	300	394	50	0	1	1	blank2r.bmp	0	1	+	0	1	blank2r.bmp	492	1	JXXJ	492	1	blank2r.bmp	572	2	spielen	866	1	!	1239	1	!	1292	0	0	0	0	0	0	0	0	0	0	0	0	0	0	0	0	0	0	0	0	0	0	0	0	0	0	0	0	0	0
070319	11:55:24	12:04:10	525531	5.0.10.0	5_exp_RW	7	Rpleas_acq	CS_B	JXXJ	MQQM	VKKV	BZZB	YDDY	GWWG	retten	spielen	schön	ehrlich	treu	fair	rächen	strafen	schlecht	eitel	tot	faul	1	acq_USpleas_CSpleas2_RW	acq4567_RW	5	20	400	0	300	300	220	50	0	1	1	blank2r.bmp	0	1	+	0	1	blank2r.bmp	492	1	MQQM	492	1	blank2r.bmp	572	1	ehrlich	866	1	!	-1	1	!	-1	0	0	0	0	0	0	0	0	0	0	0	0	0	0	0	0	0	0	0	0	0	0	0	0	0	0	0	0	0	0
070319	11:55:24	12:04:12	527730	5.0.10.0	5_exp_RW	7	Rpleas_acq	CS_B	JXXJ	MQQM	VKKV	BZZB	YDDY	GWWG	retten	spielen	schön	ehrlich	treu	fair	rächen	strafen	schlecht	eitel	tot	faul	1	acq_USpleas_CSpleas2_RW	acq4567_RW	5	21	400	1	300	300	389	50	0	1	1	blank2r.bmp	0	1	+	0	1	blank2r.bmp	492	1	MQQM	492	1	blank2r.bmp	572	2	treu	866	1	!	1239	1	!	1292	0	0	0	0	0	0	0	0	0	0	0	0	0	0	0	0	0	0	0	0	0	0	0	0	0	0	0	0	0	0
070319	11:55:24	12:04:14	529916	5.0.10.0	5_exp_RW	7	Rpleas_acq	CS_B	JXXJ	MQQM	VKKV	BZZB	YDDY	GWWG	retten	spielen	schön	ehrlich	treu	fair	rächen	strafen	schlecht	eitel	tot	faul	1	acq_USunple_CSunple1_RW	acq4567_RW	5	22	400	1	300	300	381	46	0	1	1	blank2r.bmp	0	1	+	0	1	blank2r.bmp	492	1	VKKV	492	1	blank2r.bmp	572	1	rächen	866	1	!	1239	1	!	1279	0	0	0	0	0	0	0	0	0	0	0	0	0	0	0	0	0	0	0	0	0	0	0	0	0	0	0	0	0	0
070319	11:55:24	12:04:17	532102	5.0.10.0	5_exp_RW	7	Rpleas_acq	CS_B	JXXJ	MQQM	VKKV	BZZB	YDDY	GWWG	retten	spielen	schön	ehrlich	treu	fair	rächen	strafen	schlecht	eitel	tot	faul	1	acq_USunple_CSunple1_RW	acq4567_RW	5	23	400	1	300	300	386	46	0	1	1	blank2r.bmp	0	1	+	0	1	blank2r.bmp	492	1	VKKV	492	1	blank2r.bmp	572	2	strafen	866	1	!	1239	1	!	1292	0	0	0	0	0	0	0	0	0	0	0	0	0	0	0	0	0	0	0	0	0	0	0	0	0	0	0	0	0	0
070319	11:55:24	12:04:19	534181	5.0.10.0	5_exp_RW	7	Rpleas_acq	CS_B	JXXJ	MQQM	VKKV	BZZB	YDDY	GWWG	retten	spielen	schön	ehrlich	treu	fair	rächen	strafen	schlecht	eitel	tot	faul	1	acq_USpleas_CSpleas2_RW	acq4567_RW	5	24	400	0	300	300	310	46	0	0	1	blank2r.bmp	0	1	+	0	1	blank2r.bmp	492	1	MQQM	492	1	blank2r.bmp	572	3	fair	866	1	!	-1	1	!	-1	0	0	0	0	0	0	0	0	0	0	0	0	0	0	0	0	0	0	0	0	0	0	0	0	0	0	0	0	0	0
070319	11:55:24	12:04:21	536367	5.0.10.0	5_exp_RW	7	Rpleas_acq	CS_B	JXXJ	MQQM	VKKV	BZZB	YDDY	GWWG	retten	spielen	schön	ehrlich	treu	fair	rächen	strafen	schlecht	eitel	tot	faul	1	acq_USpleas_CSpleas1_RW	acq4567_RW	5	25	400	1	300	300	380	50	0	1	1	blank2r.bmp	0	1	+	0	1	blank2r.bmp	492	1	JXXJ	492	1	blank2r.bmp	572	3	schön	866	1	!	1239	1	!	1279	0	0	0	0	0	0	0	0	0	0	0	0	0	0	0	0	0	0	0	0	0	0	0	0	0	0	0	0	0	0
070319	11:55:24	12:04:23	538526	5.0.10.0	5_exp_RW	7	Rpleas_acq	CS_B	JXXJ	MQQM	VKKV	BZZB	YDDY	GWWG	retten	spielen	schön	ehrlich	treu	fair	rächen	strafen	schlecht	eitel	tot	faul	1	acq_USunple_CSunple2_RW	acq4567_RW	5	26	400	1	300	300	361	46	0	1	1	blank2r.bmp	0	1	+	0	1	blank2r.bmp	492	1	BZZB	492	1	blank2r.bmp	572	3	faul	866	1	!	1239	1	!	1266	0	0	0	0	0	0	0	0	0	0	0	0	0	0	0	0	0	0	0	0	0	0	0	0	0	0	0	0	0	0
070319	11:55:24	12:04:25	540645	5.0.10.0	5_exp_RW	7	Rpleas_acq	CS_B	JXXJ	MQQM	VKKV	BZZB	YDDY	GWWG	retten	spielen	schön	ehrlich	treu	fair	rächen	strafen	schlecht	eitel	tot	faul	1	acq_USpleas_CSpleas2_RW	acq4567_RW	5	27	400	0	300	300	333	50	0	1	1	blank2r.bmp	0	1	+	0	1	blank2r.bmp	492	1	MQQM	492	1	blank2r.bmp	572	2	treu	866	1	!	-1	1	!	-1	0	0	0	0	0	0	0	0	0	0	0	0	0	0	0	0	0	0	0	0	0	0	0	0	0	0	0	0	0	0
070319	11:55:24	12:04:27	542737	5.0.10.0	5_exp_RW	7	Rpleas_acq	CS_B	JXXJ	MQQM	VKKV	BZZB	YDDY	GWWG	retten	spielen	schön	ehrlich	treu	fair	rächen	strafen	schlecht	eitel	tot	faul	1	acq_USpleas_CSpleas1_RW	acq4567_RW	5	28	400	0	300	300	305	46	0	0	1	blank2r.bmp	0	1	+	0	1	blank2r.bmp	492	1	JXXJ	492	1	blank2r.bmp	572	1	retten	866	1	!	-1	1	!	-1	0	0	0	0	0	0	0	0	0	0	0	0	0	0	0	0	0	0	0	0	0	0	0	0	0	0	0	0	0	0
070319	11:55:24	12:04:29	544750	5.0.10.0	5_exp_RW	7	Rpleas_acq	CS_B	JXXJ	MQQM	VKKV	BZZB	YDDY	GWWG	retten	spielen	schön	ehrlich	treu	fair	rächen	strafen	schlecht	eitel	tot	faul	1	acq_USpleas_CSpleas1_RW	acq4567_RW	5	29	400	0	300	300	226	50	0	1	1	blank2r.bmp	0	1	+	0	1	blank2r.bmp	492	1	JXXJ	492	1	blank2r.bmp	572	2	spielen	866	1	!	-1	1	!	-1	0	0	0	0	0	0	0	0	0	0	0	0	0	0	0	0	0	0	0	0	0	0	0	0	0	0	0	0	0	0
070319	11:55:24	12:04:31	546909	5.0.10.0	5_exp_RW	7	Rpleas_acq	CS_B	JXXJ	MQQM	VKKV	BZZB	YDDY	GWWG	retten	spielen	schön	ehrlich	treu	fair	rächen	strafen	schlecht	eitel	tot	faul	1	acq_USpleas_CSpleas2_RW	acq4567_RW	5	30	400	1	300	300	353	50	0	1	1	blank2r.bmp	0	1	+	0	1	blank2r.bmp	492	1	MQQM	492	1	blank2r.bmp	572	1	ehrlich	866	1	!	1239	1	!	1252	0	0	0	0	0	0	0	0	0	0	0	0	0	0	0	0	0	0	0	0	0	0	0	0	0	0	0	0	0	0
070319	11:55:24	12:04:33	548948	5.0.10.0	5_exp_RW	7	Rpleas_acq	CS_B	JXXJ	MQQM	VKKV	BZZB	YDDY	GWWG	retten	spielen	schön	ehrlich	treu	fair	rächen	strafen	schlecht	eitel	tot	faul	1	acq_USunple_CSunple2_RW	acq4567_RW	5	31	400	0	300	300	277	46	0	1	1	blank2r.bmp	0	1	+	0	1	blank2r.bmp	492	1	BZZB	492	1	blank2r.bmp	572	1	eitel	866	1	!	-1	1	!	-1	0	0	0	0	0	0	0	0	0	0	0	0	0	0	0	0	0	0	0	0	0	0	0	0	0	0	0	0	0	0
070319	11:55:24	12:04:35	551041	5.0.10.0	5_exp_RW	7	Rpleas_acq	CS_B	JXXJ	MQQM	VKKV	BZZB	YDDY	GWWG	retten	spielen	schön	ehrlich	treu	fair	rächen	strafen	schlecht	eitel	tot	faul	1	acq_USunple_CSunple2_RW	acq4567_RW	5	32	400	0	300	300	301	46	0	1	1	blank2r.bmp	0	1	+	0	1	blank2r.bmp	492	1	BZZB	492	1	blank2r.bmp	572	2	tot	866	1	!	-1	1	!	-1	0	0	0	0	0	0	0	0	0	0	0	0	0	0	0	0	0	0	0	0	0	0	0	0	0	0	0	0	0	0
070319	11:55:24	12:04:38	553413	5.0.10.0	5_exp_RW	7	Rpleas_acq	CS_B	JXXJ	MQQM	VKKV	BZZB	YDDY	GWWG	retten	spielen	schön	ehrlich	treu	fair	rächen	strafen	schlecht	eitel	tot	faul	1	acq_USunple_CSunple1_RW	acq4567_RW	5	33	400	0	300	300	597	46	0	1	1	blank2r.bmp	0	1	+	0	1	blank2r.bmp	492	1	VKKV	492	1	blank2r.bmp	572	1	rächen	866	1	!	1239	1	!	-1	0	0	0	0	0	0	0	0	0	0	0	0	0	0	0	0	0	0	0	0	0	0	0	0	0	0	0	0	0	0
070319	11:55:24	12:04:40	555452	5.0.10.0	5_exp_RW	7	Rpleas_acq	CS_B	JXXJ	MQQM	VKKV	BZZB	YDDY	GWWG	retten	spielen	schön	ehrlich	treu	fair	rächen	strafen	schlecht	eitel	tot	faul	1	acq_USpleas_CSpleas1_RW	acq4567_RW	5	34	400	0	300	300	253	50	0	1	1	blank2r.bmp	0	1	+	0	1	blank2r.bmp	492	1	JXXJ	492	1	blank2r.bmp	572	3	schön	866	1	!	-1	1	!	-1	0	0	0	0	0	0	0	0	0	0	0	0	0	0	0	0	0	0	0	0	0	0	0	0	0	0	0	0	0	0
070319	11:55:24	12:04:42	557625	5.0.10.0	5_exp_RW	7	Rpleas_acq	CS_B	JXXJ	MQQM	VKKV	BZZB	YDDY	GWWG	retten	spielen	schön	ehrlich	treu	fair	rächen	strafen	schlecht	eitel	tot	faul	1	acq_USpleas_CSpleas1_RW	acq4567_RW	5	35	400	1	300	300	351	50	0	1	1	blank2r.bmp	0	1	+	0	1	blank2r.bmp	492	1	JXXJ	492	1	blank2r.bmp	572	2	spielen	866	1	!	1239	1	!	1252	0	0	0	0	0	0	0	0	0	0	0	0	0	0	0	0	0	0	0	0	0	0	0	0	0	0	0	0	0	0
070319	11:55:24	12:04:44	559704	5.0.10.0	5_exp_RW	7	Rpleas_acq	CS_B	JXXJ	MQQM	VKKV	BZZB	YDDY	GWWG	retten	spielen	schön	ehrlich	treu	fair	rächen	strafen	schlecht	eitel	tot	faul	1	acq_USunple_CSunple2_RW	acq4567_RW	5	36	400	0	300	300	309	46	0	1	1	blank2r.bmp	0	1	+	0	1	blank2r.bmp	492	1	BZZB	492	1	blank2r.bmp	572	3	faul	866	1	!	-1	1	!	-1	0	0	0	0	0	0	0	0	0	0	0	0	0	0	0	0	0	0	0	0	0	0	0	0	0	0	0	0	0	0
070319	11:55:24	12:04:46	561890	5.0.10.0	5_exp_RW	7	Rpleas_acq	CS_B	JXXJ	MQQM	VKKV	BZZB	YDDY	GWWG	retten	spielen	schön	ehrlich	treu	fair	rächen	strafen	schlecht	eitel	tot	faul	1	acq_USunple_CSunple2_RW	acq4567_RW	5	37	400	1	300	300	380	46	0	1	1	blank2r.bmp	0	1	+	0	1	blank2r.bmp	492	1	BZZB	492	1	blank2r.bmp	572	3	faul	866	1	!	1239	1	!	1279	0	0	0	0	0	0	0	0	0	0	0	0	0	0	0	0	0	0	0	0	0	0	0	0	0	0	0	0	0	0
070319	11:55:24	12:04:48	564089	5.0.10.0	5_exp_RW	7	Rpleas_acq	CS_B	JXXJ	MQQM	VKKV	BZZB	YDDY	GWWG	retten	spielen	schön	ehrlich	treu	fair	rächen	strafen	schlecht	eitel	tot	faul	1	acq_USpleas_CSpleas2_RW	acq4567_RW	5	38	400	1	300	300	402	50	0	1	1	blank2r.bmp	0	1	+	0	1	blank2r.bmp	492	1	MQQM	492	1	blank2r.bmp	572	1	ehrlich	866	1	!	1239	1	!	1306	0	0	0	0	0	0	0	0	0	0	0	0	0	0	0	0	0	0	0	0	0	0	0	0	0	0	0	0	0	0
070319	11:55:24	12:04:51	566101	5.0.10.0	5_exp_RW	7	Rpleas_acq	CS_B	JXXJ	MQQM	VKKV	BZZB	YDDY	GWWG	retten	spielen	schön	ehrlich	treu	fair	rächen	strafen	schlecht	eitel	tot	faul	1	acq_USunple_CSunple1_RW	acq4567_RW	5	39	400	0	300	300	239	46	0	1	1	blank2r.bmp	0	1	+	0	1	blank2r.bmp	492	1	VKKV	492	1	blank2r.bmp	572	3	schlecht	866	1	!	-1	1	!	-1	0	0	0	0	0	0	0	0	0	0	0	0	0	0	0	0	0	0	0	0	0	0	0	0	0	0	0	0	0	0
070319	11:55:24	12:04:53	568407	5.0.10.0	5_exp_RW	7	Rpleas_acq	CS_B	JXXJ	MQQM	VKKV	BZZB	YDDY	GWWG	retten	spielen	schön	ehrlich	treu	fair	rächen	strafen	schlecht	eitel	tot	faul	1	acq_USunple_CSunple1_RW	acq4567_RW	5	40	400	0	300	300	520	46	0	1	1	blank2r.bmp	0	1	+	0	1	blank2r.bmp	492	1	VKKV	492	1	blank2r.bmp	572	1	rächen	866	1	!	1239	1	!	-1	0	0	0	0	0	0	0	0	0	0	0	0	0	0	0	0	0	0	0	0	0	0	0	0	0	0	0	0	0	0
070319	11:55:24	12:04:55	570499	5.0.10.0	5_exp_RW	7	Rpleas_acq	CS_B	JXXJ	MQQM	VKKV	BZZB	YDDY	GWWG	retten	spielen	schön	ehrlich	treu	fair	rächen	strafen	schlecht	eitel	tot	faul	1	acq_USunple_CSunple1_RW	acq4567_RW	5	41	400	0	300	300	309	50	0	0	1	blank2r.bmp	0	1	+	0	1	blank2r.bmp	492	1	VKKV	492	1	blank2r.bmp	572	3	schlecht	866	1	!	-1	1	!	-1	0	0	0	0	0	0	0	0	0	0	0	0	0	0	0	0	0	0	0	0	0	0	0	0	0	0	0	0	0	0
070319	11:55:24	12:04:57	572685	5.0.10.0	5_exp_RW	7	Rpleas_acq	CS_B	JXXJ	MQQM	VKKV	BZZB	YDDY	GWWG	retten	spielen	schön	ehrlich	treu	fair	rächen	strafen	schlecht	eitel	tot	faul	1	acq_USpleas_CSpleas1_RW	acq4567_RW	5	42	400	1	300	300	379	50	0	1	1	blank2r.bmp	0	1	+	0	1	blank2r.bmp	492	1	JXXJ	492	1	blank2r.bmp	572	3	schön	866	1	!	1239	1	!	1279	0	0	0	0	0	0	0	0	0	0	0	0	0	0	0	0	0	0	0	0	0	0	0	0	0	0	0	0	0	0
070319	11:55:24	12:04:59	575018	5.0.10.0	5_exp_RW	7	Rpleas_acq	CS_B	JXXJ	MQQM	VKKV	BZZB	YDDY	GWWG	retten	spielen	schön	ehrlich	treu	fair	rächen	strafen	schlecht	eitel	tot	faul	1	acq_USpleas_CSpleas2_RW	acq4567_RW	5	43	400	0	300	300	569	50	0	1	1	blank2r.bmp	0	1	+	0	1	blank2r.bmp	492	1	MQQM	492	1	blank2r.bmp	572	2	treu	866	1	!	1239	1	!	-1	0	0	0	0	0	0	0	0	0	0	0	0	0	0	0	0	0	0	0	0	0	0	0	0	0	0	0	0	0	0
070319	11:55:24	12:05:02	577243	5.0.10.0	5_exp_RW	7	Rpleas_acq	CS_B	JXXJ	MQQM	VKKV	BZZB	YDDY	GWWG	retten	spielen	schön	ehrlich	treu	fair	rächen	strafen	schlecht	eitel	tot	faul	1	acq_USunple_CSunple1_RW	acq4567_RW	5	44	400	1	300	300	419	46	0	1	1	blank2r.bmp	0	1	+	0	1	blank2r.bmp	492	1	VKKV	492	1	blank2r.bmp	572	2	strafen	866	1	!	1239	1	!	1319	0	0	0	0	0	0	0	0	0	0	0	0	0	0	0	0	0	0	0	0	0	0	0	0	0	0	0	0	0	0
070319	11:55:24	12:05:04	579429	5.0.10.0	5_exp_RW	7	Rpleas_acq	CS_B	JXXJ	MQQM	VKKV	BZZB	YDDY	GWWG	retten	spielen	schön	ehrlich	treu	fair	rächen	strafen	schlecht	eitel	tot	faul	1	acq_USunple_CSunple1_RW	acq4567_RW	5	45	400	1	300	300	377	46	0	1	1	blank2r.bmp	0	1	+	0	1	blank2r.bmp	492	1	VKKV	492	1	blank2r.bmp	572	1	rächen	866	1	!	1239	1	!	1279	0	0	0	0	0	0	0	0	0	0	0	0	0	0	0	0	0	0	0	0	0	0	0	0	0	0	0	0	0	0
070319	11:55:24	12:05:06	581695	5.0.10.0	5_exp_RW	7	Rpleas_acq	CS_B	JXXJ	MQQM	VKKV	BZZB	YDDY	GWWG	retten	spielen	schön	ehrlich	treu	fair	rächen	strafen	schlecht	eitel	tot	faul	1	acq_USunple_CSunple2_RW	acq4567_RW	5	46	400	1	300	300	454	46	0	1	1	blank2r.bmp	0	1	+	0	1	blank2r.bmp	492	1	BZZB	492	1	blank2r.bmp	572	2	tot	866	1	!	1239	1	!	1359	0	0	0	0	0	0	0	0	0	0	0	0	0	0	0	0	0	0	0	0	0	0	0	0	0	0	0	0	0	0
070319	11:55:24	12:05:08	583947	5.0.10.0	5_exp_RW	7	Rpleas_acq	CS_B	JXXJ	MQQM	VKKV	BZZB	YDDY	GWWG	retten	spielen	schön	ehrlich	treu	fair	rächen	strafen	schlecht	eitel	tot	faul	1	acq_USpleas_CSpleas2_RW	acq4567_RW	5	47	400	0	300	300	486	50	0	1	1	blank2r.bmp	0	1	+	0	1	blank2r.bmp	492	1	MQQM	492	1	blank2r.bmp	572	3	fair	866	1	!	1239	1	!	-1	0	0	0	0	0	0	0	0	0	0	0	0	0	0	0	0	0	0	0	0	0	0	0	0	0	0	0	0	0	0
070319	11:55:24	12:05:11	586106	5.0.10.0	5_exp_RW	7	Rpleas_acq	CS_B	JXXJ	MQQM	VKKV	BZZB	YDDY	GWWG	retten	spielen	schön	ehrlich	treu	fair	rächen	strafen	schlecht	eitel	tot	faul	1	acq_USunple_CSunple2_RW	acq4567_RW	5	48	400	1	300	300	346	50	0	0	1	blank2r.bmp	0	1	+	0	1	blank2r.bmp	492	1	BZZB	492	1	blank2r.bmp	572	1	eitel	866	1	!	1239	1	!	1252	0	0	0	0	0	0	0	0	0	0	0	0	0	0	0	0	0	0	0	0	0	0	0	0	0	0	0	0	0	0
070319	11:55:24	12:05:13	588265	5.0.10.0	5_exp_RW	7	Rpleas_acq	CS_B	JXXJ	MQQM	VKKV	BZZB	YDDY	GWWG	retten	spielen	schön	ehrlich	treu	fair	rächen	strafen	schlecht	eitel	tot	faul	1	acq_USpleas_CSpleas1_RW	acq4567_RW	5	49	400	1	300	300	359	46	0	0	1	blank2r.bmp	0	1	+	0	1	blank2r.bmp	492	1	JXXJ	492	1	blank2r.bmp	572	1	retten	866	1	!	1239	1	!	1266	0	0	0	0	0	0	0	0	0	0	0	0	0	0	0	0	0	0	0	0	0	0	0	0	0	0	0	0	0	0
070319	11:55:24	12:05:15	590531	5.0.10.0	5_exp_RW	7	Rpleas_acq	CS_B	JXXJ	MQQM	VKKV	BZZB	YDDY	GWWG	retten	spielen	schön	ehrlich	treu	fair	rächen	strafen	schlecht	eitel	tot	faul	1	acq_USunple_CSunple1_RW	acq4567_RW	5	50	400	0	300	300	501	46	0	1	1	blank2r.bmp	0	1	+	0	1	blank2r.bmp	492	1	VKKV	492	1	blank2r.bmp	572	3	schlecht	866	1	!	1239	1	!	-1	0	0	0	0	0	0	0	0	0	0	0	0	0	0	0	0	0	0	0	0	0	0	0	0	0	0	0	0	0	0
070319	11:55:24	12:05:17	592717	5.0.10.0	5_exp_RW	7	Rpleas_acq	CS_B	JXXJ	MQQM	VKKV	BZZB	YDDY	GWWG	retten	spielen	schön	ehrlich	treu	fair	rächen	strafen	schlecht	eitel	tot	faul	1	acq_USpleas_CSpleas2_RW	acq4567_RW	5	51	400	1	300	300	383	50	0	1	1	blank2r.bmp	0	1	+	0	1	blank2r.bmp	492	1	MQQM	492	1	blank2r.bmp	572	3	fair	866	1	!	1239	1	!	1279	0	0	0	0	0	0	0	0	0	0	0	0	0	0	0	0	0	0	0	0	0	0	0	0	0	0	0	0	0	0
070319	11:55:24	12:05:19	594889	5.0.10.0	5_exp_RW	7	Rpleas_acq	CS_B	JXXJ	MQQM	VKKV	BZZB	YDDY	GWWG	retten	spielen	schön	ehrlich	treu	fair	rächen	strafen	schlecht	eitel	tot	faul	1	acq_USunple_CSunple1_RW	acq4567_RW	5	52	400	1	300	300	379	46	0	1	1	blank2r.bmp	0	1	+	0	1	blank2r.bmp	492	1	VKKV	492	1	blank2r.bmp	572	2	strafen	866	1	!	1239	1	!	1279	0	0	0	0	0	0	0	0	0	0	0	0	0	0	0	0	0	0	0	0	0	0	0	0	0	0	0	0	0	0
070319	11:55:24	12:05:21	597049	5.0.10.0	5_exp_RW	7	Rpleas_acq	CS_B	JXXJ	MQQM	VKKV	BZZB	YDDY	GWWG	retten	spielen	schön	ehrlich	treu	fair	rächen	strafen	schlecht	eitel	tot	faul	1	acq_USunple_CSunple2_RW	acq4567_RW	5	53	400	1	300	300	362	46	0	1	1	blank2r.bmp	0	1	+	0	1	blank2r.bmp	492	1	BZZB	492	1	blank2r.bmp	572	2	tot	866	1	!	1239	1	!	1266	0	0	0	0	0	0	0	0	0	0	0	0	0	0	0	0	0	0	0	0	0	0	0	0	0	0	0	0	0	0
070319	11:55:24	12:05:24	599328	5.0.10.0	5_exp_RW	7	Rpleas_acq	CS_B	JXXJ	MQQM	VKKV	BZZB	YDDY	GWWG	retten	spielen	schön	ehrlich	treu	fair	rächen	strafen	schlecht	eitel	tot	faul	1	acq_USunple_CSunple2_RW	acq4567_RW	5	54	400	0	300	300	508	46	0	1	1	blank2r.bmp	0	1	+	0	1	blank2r.bmp	492	1	BZZB	492	1	blank2r.bmp	572	3	faul	866	1	!	1239	1	!	-1	0	0	0	0	0	0	0	0	0	0	0	0	0	0	0	0	0	0	0	0	0	0	0	0	0	0	0	0	0	0
070319	11:55:24	12:05:26	601367	5.0.10.0	5_exp_RW	7	Rpleas_acq	CS_B	JXXJ	MQQM	VKKV	BZZB	YDDY	GWWG	retten	spielen	schön	ehrlich	treu	fair	rächen	strafen	schlecht	eitel	tot	faul	1	acq_USpleas_CSpleas1_RW	acq4567_RW	5	55	400	0	300	300	259	50	0	1	1	blank2r.bmp	0	1	+	0	1	blank2r.bmp	492	1	JXXJ	492	1	blank2r.bmp	572	3	schön	866	1	!	-1	1	!	-1	0	0	0	0	0	0	0	0	0	0	0	0	0	0	0	0	0	0	0	0	0	0	0	0	0	0	0	0	0	0
070319	11:55:24	12:05:28	603726	5.0.10.0	5_exp_RW	7	Rpleas_acq	CS_B	JXXJ	MQQM	VKKV	BZZB	YDDY	GWWG	retten	spielen	schön	ehrlich	treu	fair	rächen	strafen	schlecht	eitel	tot	faul	1	acq_USpleas_CSpleas1_RW	acq4567_RW	5	56	400	0	300	300	573	50	0	1	1	blank2r.bmp	0	1	+	0	1	blank2r.bmp	492	1	JXXJ	492	1	blank2r.bmp	572	1	retten	866	1	!	1239	1	!	-1	0	0	0	0	0	0	0	0	0	0	0	0	0	0	0	0	0	0	0	0	0	0	0	0	0	0	0	0	0	0
070319	11:55:24	12:05:30	605938	5.0.10.0	5_exp_RW	7	Rpleas_acq	CS_B	JXXJ	MQQM	VKKV	BZZB	YDDY	GWWG	retten	spielen	schön	ehrlich	treu	fair	rächen	strafen	schlecht	eitel	tot	faul	1	acq_USunple_CSunple2_RW	acq4567_RW	5	57	400	1	300	300	406	46	0	1	1	blank2r.bmp	0	1	+	0	1	blank2r.bmp	492	1	BZZB	492	1	blank2r.bmp	572	1	eitel	866	1	!	1239	1	!	1306	0	0	0	0	0	0	0	0	0	0	0	0	0	0	0	0	0	0	0	0	0	0	0	0	0	0	0	0	0	0
070319	11:55:24	12:05:33	608204	5.0.10.0	5_exp_RW	7	Rpleas_acq	CS_B	JXXJ	MQQM	VKKV	BZZB	YDDY	GWWG	retten	spielen	schön	ehrlich	treu	fair	rächen	strafen	schlecht	eitel	tot	faul	1	acq_USpleas_CSpleas2_RW	acq4567_RW	5	58	400	0	300	300	501	50	0	1	1	blank2r.bmp	0	1	+	0	1	blank2r.bmp	492	1	MQQM	492	1	blank2r.bmp	572	2	treu	866	1	!	1239	1	!	-1	0	0	0	0	0	0	0	0	0	0	0	0	0	0	0	0	0	0	0	0	0	0	0	0	0	0	0	0	0	0
070319	11:55:24	12:05:35	610430	5.0.10.0	5_exp_RW	7	Rpleas_acq	CS_B	JXXJ	MQQM	VKKV	BZZB	YDDY	GWWG	retten	spielen	schön	ehrlich	treu	fair	rächen	strafen	schlecht	eitel	tot	faul	1	acq_USpleas_CSpleas2_RW	acq4567_RW	5	59	400	1	300	300	417	50	0	1	1	blank2r.bmp	0	1	+	0	1	blank2r.bmp	492	1	MQQM	492	1	blank2r.bmp	572	1	ehrlich	866	1	!	1239	1	!	1319	0	0	0	0	0	0	0	0	0	0	0	0	0	0	0	0	0	0	0	0	0	0	0	0	0	0	0	0	0	0
070319	11:55:24	12:05:37	612749	5.0.10.0	5_exp_RW	7	Rpleas_acq	CS_B	JXXJ	MQQM	VKKV	BZZB	YDDY	GWWG	retten	spielen	schön	ehrlich	treu	fair	rächen	strafen	schlecht	eitel	tot	faul	1	acq_USpleas_CSpleas1_RW	acq4567_RW	5	60	400	0	300	300	546	50	0	1	1	blank2r.bmp	0	1	+	0	1	blank2r.bmp	492	1	JXXJ	492	1	blank2r.bmp	572	2	spielen	866	1	!	1239	1	!	-1	0	0	0	0	0	0	0	0	0	0	0	0	0	0	0	0	0	0	0	0	0	0	0	0	0	0	0	0	0	0
070319	11:55:24	12:05:39	614735	5.0.10.0	5_exp_RW	7	Rpleas_acq	CS_B	JXXJ	MQQM	VKKV	BZZB	YDDY	GWWG	retten	spielen	schön	ehrlich	treu	fair	rächen	strafen	schlecht	eitel	tot	faul	1	acq_USpleas_CSpleas1_RW	acq4567_RW	5	61	400	0	300	300	209	50	0	1	1	blank2r.bmp	0	1	+	0	1	blank2r.bmp	492	1	JXXJ	492	1	blank2r.bmp	572	2	spielen	866	1	!	-1	1	!	-1	0	0	0	0	0	0	0	0	0	0	0	0	0	0	0	0	0	0	0	0	0	0	0	0	0	0	0	0	0	0
070319	11:55:24	12:05:41	616987	5.0.10.0	5_exp_RW	7	Rpleas_acq	CS_B	JXXJ	MQQM	VKKV	BZZB	YDDY	GWWG	retten	spielen	schön	ehrlich	treu	fair	rächen	strafen	schlecht	eitel	tot	faul	1	acq_USpleas_CSpleas1_RW	acq4567_RW	5	62	400	1	300	300	442	50	0	1	1	blank2r.bmp	0	1	+	0	1	blank2r.bmp	492	1	JXXJ	492	1	blank2r.bmp	572	3	schön	866	1	!	1239	1	!	1346	0	0	0	0	0	0	0	0	0	0	0	0	0	0	0	0	0	0	0	0	0	0	0	0	0	0	0	0	0	0
070319	11:55:24	12:05:44	619319	5.0.10.0	5_exp_RW	7	Rpleas_acq	CS_B	JXXJ	MQQM	VKKV	BZZB	YDDY	GWWG	retten	spielen	schön	ehrlich	treu	fair	rächen	strafen	schlecht	eitel	tot	faul	1	acq_USpleas_CSpleas2_RW	acq4567_RW	5	63	400	0	300	300	570	50	0	1	1	blank2r.bmp	0	1	+	0	1	blank2r.bmp	492	1	MQQM	492	1	blank2r.bmp	572	3	fair	866	1	!	1239	1	!	-1	0	0	0	0	0	0	0	0	0	0	0	0	0	0	0	0	0	0	0	0	0	0	0	0	0	0	0	0	0	0
070319	11:55:24	12:05:46	621599	5.0.10.0	5_exp_RW	7	Rpleas_acq	CS_B	JXXJ	MQQM	VKKV	BZZB	YDDY	GWWG	retten	spielen	schön	ehrlich	treu	fair	rächen	strafen	schlecht	eitel	tot	faul	1	acq_USpleas_CSpleas1_RW	acq4567_RW	5	64	400	1	300	300	461	50	0	1	1	blank2r.bmp	0	1	+	0	1	blank2r.bmp	492	1	JXXJ	492	1	blank2r.bmp	572	1	retten	866	1	!	1239	1	!	1359	0	0	0	0	0	0	0	0	0	0	0	0	0	0	0	0	0	0	0	0	0	0	0	0	0	0	0	0	0	0
070319	11:55:24	12:05:48	623851	5.0.10.0	5_exp_RW	7	Rpleas_acq	CS_B	JXXJ	MQQM	VKKV	BZZB	YDDY	GWWG	retten	spielen	schön	ehrlich	treu	fair	rächen	strafen	schlecht	eitel	tot	faul	1	acq_USunple_CSunple2_RW	acq4567_RW	5	65	400	0	300	300	479	46	0	1	1	blank2r.bmp	0	1	+	0	1	blank2r.bmp	492	1	BZZB	492	1	blank2r.bmp	572	1	eitel	866	1	!	1239	1	!	-1	0	0	0	0	0	0	0	0	0	0	0	0	0	0	0	0	0	0	0	0	0	0	0	0	0	0	0	0	0	0
070319	11:55:24	12:05:50	626037	5.0.10.0	5_exp_RW	7	Rpleas_acq	CS_B	JXXJ	MQQM	VKKV	BZZB	YDDY	GWWG	retten	spielen	schön	ehrlich	treu	fair	rächen	strafen	schlecht	eitel	tot	faul	1	acq_USpleas_CSpleas1_RW	acq4567_RW	5	66	400	1	300	300	382	50	0	1	1	blank2r.bmp	0	1	+	0	1	blank2r.bmp	492	1	JXXJ	492	1	blank2r.bmp	572	1	retten	866	1	!	1239	1	!	1279	0	0	0	0	0	0	0	0	0	0	0	0	0	0	0	0	0	0	0	0	0	0	0	0	0	0	0	0	0	0
070319	11:55:24	12:05:53	628289	5.0.10.0	5_exp_RW	7	Rpleas_acq	CS_B	JXXJ	MQQM	VKKV	BZZB	YDDY	GWWG	retten	spielen	schön	ehrlich	treu	fair	rächen	strafen	schlecht	eitel	tot	faul	1	acq_USunple_CSunple2_RW	acq4567_RW	5	67	400	0	300	300	479	46	0	1	1	blank2r.bmp	0	1	+	0	1	blank2r.bmp	492	1	BZZB	492	1	blank2r.bmp	572	3	faul	866	1	!	1239	1	!	-1	0	0	0	0	0	0	0	0	0	0	0	0	0	0	0	0	0	0	0	0	0	0	0	0	0	0	0	0	0	0
070319	11:55:24	12:05:55	630555	5.0.10.0	5_exp_RW	7	Rpleas_acq	CS_B	JXXJ	MQQM	VKKV	BZZB	YDDY	GWWG	retten	spielen	schön	ehrlich	treu	fair	rächen	strafen	schlecht	eitel	tot	faul	1	acq_USpleas_CSpleas1_RW	acq4567_RW	5	68	400	1	300	300	451	50	0	1	1	blank2r.bmp	0	1	+	0	1	blank2r.bmp	492	1	JXXJ	492	1	blank2r.bmp	572	3	schön	866	1	!	1239	1	!	1346	0	0	0	0	0	0	0	0	0	0	0	0	0	0	0	0	0	0	0	0	0	0	0	0	0	0	0	0	0	0
070319	11:55:24	12:05:57	632621	5.0.10.0	5_exp_RW	7	Rpleas_acq	CS_B	JXXJ	MQQM	VKKV	BZZB	YDDY	GWWG	retten	spielen	schön	ehrlich	treu	fair	rächen	strafen	schlecht	eitel	tot	faul	1	acq_USunple_CSunple1_RW	acq4567_RW	5	69	400	0	300	300	302	46	0	1	1	blank2r.bmp	0	1	+	0	1	blank2r.bmp	492	1	VKKV	492	1	blank2r.bmp	572	2	strafen	866	1	!	-1	1	!	-1	0	0	0	0	0	0	0	0	0	0	0	0	0	0	0	0	0	0	0	0	0	0	0	0	0	0	0	0	0	0
070319	11:55:24	12:05:59	634873	5.0.10.0	5_exp_RW	7	Rpleas_acq	CS_B	JXXJ	MQQM	VKKV	BZZB	YDDY	GWWG	retten	spielen	schön	ehrlich	treu	fair	rächen	strafen	schlecht	eitel	tot	faul	1	acq_USpleas_CSpleas2_RW	acq4567_RW	5	70	400	1	300	300	450	50	0	1	1	blank2r.bmp	0	1	+	0	1	blank2r.bmp	492	1	MQQM	492	1	blank2r.bmp	572	1	ehrlich	866	1	!	1239	1	!	1346	0	0	0	0	0	0	0	0	0	0	0	0	0	0	0	0	0	0	0	0	0	0	0	0	0	0	0	0	0	0
070319	11:55:24	12:06:02	637112	5.0.10.0	5_exp_RW	7	Rpleas_acq	CS_B	JXXJ	MQQM	VKKV	BZZB	YDDY	GWWG	retten	spielen	schön	ehrlich	treu	fair	rächen	strafen	schlecht	eitel	tot	faul	1	acq_USunple_CSunple1_RW	acq4567_RW	5	71	400	1	300	300	449	46	0	1	1	blank2r.bmp	0	1	+	0	1	blank2r.bmp	492	1	VKKV	492	1	blank2r.bmp	572	3	schlecht	866	1	!	1239	1	!	1346	0	0	0	0	0	0	0	0	0	0	0	0	0	0	0	0	0	0	0	0	0	0	0	0	0	0	0	0	0	0
070319	11:55:24	12:06:04	639191	5.0.10.0	5_exp_RW	7	Rpleas_acq	CS_B	JXXJ	MQQM	VKKV	BZZB	YDDY	GWWG	retten	spielen	schön	ehrlich	treu	fair	rächen	strafen	schlecht	eitel	tot	faul	1	acq_USunple_CSunple1_RW	acq4567_RW	5	72	400	0	300	300	317	50	0	0	1	blank2r.bmp	0	1	+	0	1	blank2r.bmp	492	1	VKKV	492	1	blank2r.bmp	572	1	rächen	866	1	!	-1	1	!	-1	0	0	0	0	0	0	0	0	0	0	0	0	0	0	0	0	0	0	0	0	0	0	0	0	0	0	0	0	0	0
070319	11:55:24	12:06:06	641297	5.0.10.0	5_exp_RW	7	Rpleas_acq	CS_B	JXXJ	MQQM	VKKV	BZZB	YDDY	GWWG	retten	spielen	schön	ehrlich	treu	fair	rächen	strafen	schlecht	eitel	tot	faul	1	acq_USpleas_CSpleas2_RW	acq4567_RW	5	73	400	0	300	300	331	50	0	1	1	blank2r.bmp	0	1	+	0	1	blank2r.bmp	492	1	MQQM	492	1	blank2r.bmp	572	2	treu	866	1	!	-1	1	!	-1	0	0	0	0	0	0	0	0	0	0	0	0	0	0	0	0	0	0	0	0	0	0	0	0	0	0	0	0	0	0
070319	11:55:24	12:06:08	643510	5.0.10.0	5_exp_RW	7	Rpleas_acq	CS_B	JXXJ	MQQM	VKKV	BZZB	YDDY	GWWG	retten	spielen	schön	ehrlich	treu	fair	rächen	strafen	schlecht	eitel	tot	faul	1	acq_USunple_CSunple2_RW	acq4567_RW	5	74	400	1	300	300	408	46	0	1	1	blank2r.bmp	0	1	+	0	1	blank2r.bmp	492	1	BZZB	492	1	blank2r.bmp	572	2	tot	866	1	!	1239	1	!	1306	0	0	0	0	0	0	0	0	0	0	0	0	0	0	0	0	0	0	0	0	0	0	0	0	0	0	0	0	0	0
070319	11:55:24	12:06:10	645775	5.0.10.0	5_exp_RW	7	Rpleas_acq	CS_B	JXXJ	MQQM	VKKV	BZZB	YDDY	GWWG	retten	spielen	schön	ehrlich	treu	fair	rächen	strafen	schlecht	eitel	tot	faul	1	acq_USunple_CSunple2_RW	acq4567_RW	5	75	400	0	300	300	503	46	0	1	1	blank2r.bmp	0	1	+	0	1	blank2r.bmp	492	1	BZZB	492	1	blank2r.bmp	572	3	faul	866	1	!	1239	1	!	-1	0	0	0	0	0	0	0	0	0	0	0	0	0	0	0	0	0	0	0	0	0	0	0	0	0	0	0	0	0	0
070319	11:55:24	12:06:12	647948	5.0.10.0	5_exp_RW	7	Rpleas_acq	CS_B	JXXJ	MQQM	VKKV	BZZB	YDDY	GWWG	retten	spielen	schön	ehrlich	treu	fair	rächen	strafen	schlecht	eitel	tot	faul	1	acq_USpleas_CSpleas2_RW	acq4567_RW	5	76	400	1	300	300	346	46	0	0	1	blank2r.bmp	0	1	+	0	1	blank2r.bmp	492	1	MQQM	492	1	blank2r.bmp	572	2	treu	866	1	!	1239	1	!	1252	0	0	0	0	0	0	0	0	0	0	0	0	0	0	0	0	0	0	0	0	0	0	0	0	0	0	0	0	0	0
070319	11:55:24	12:06:15	650200	5.0.10.0	5_exp_RW	7	Rpleas_acq	CS_B	JXXJ	MQQM	VKKV	BZZB	YDDY	GWWG	retten	spielen	schön	ehrlich	treu	fair	rächen	strafen	schlecht	eitel	tot	faul	1	acq_USunple_CSunple2_RW	acq4567_RW	5	77	400	0	300	300	486	46	0	1	1	blank2r.bmp	0	1	+	0	1	blank2r.bmp	492	1	BZZB	492	1	blank2r.bmp	572	1	eitel	866	1	!	1239	1	!	-1	0	0	0	0	0	0	0	0	0	0	0	0	0	0	0	0	0	0	0	0	0	0	0	0	0	0	0	0	0	0
070319	11:55:24	12:06:17	652466	5.0.10.0	5_exp_RW	7	Rpleas_acq	CS_B	JXXJ	MQQM	VKKV	BZZB	YDDY	GWWG	retten	spielen	schön	ehrlich	treu	fair	rächen	strafen	schlecht	eitel	tot	faul	1	acq_USunple_CSunple1_RW	acq4567_RW	5	78	400	1	300	300	453	46	0	1	1	blank2r.bmp	0	1	+	0	1	blank2r.bmp	492	1	VKKV	492	1	blank2r.bmp	572	2	strafen	866	1	!	1239	1	!	1359	0	0	0	0	0	0	0	0	0	0	0	0	0	0	0	0	0	0	0	0	0	0	0	0	0	0	0	0	0	0
070319	11:55:24	12:06:19	654718	5.0.10.0	5_exp_RW	7	Rpleas_acq	CS_B	JXXJ	MQQM	VKKV	BZZB	YDDY	GWWG	retten	spielen	schön	ehrlich	treu	fair	rächen	strafen	schlecht	eitel	tot	faul	1	acq_USunple_CSunple1_RW	acq4567_RW	5	79	400	1	300	300	444	46	0	1	1	blank2r.bmp	0	1	+	0	1	blank2r.bmp	492	1	VKKV	492	1	blank2r.bmp	572	1	rächen	866	1	!	1239	1	!	1346	0	0	0	0	0	0	0	0	0	0	0	0	0	0	0	0	0	0	0	0	0	0	0	0	0	0	0	0	0	0
070319	11:55:24	12:06:21	656784	5.0.10.0	5_exp_RW	7	Rpleas_acq	CS_B	JXXJ	MQQM	VKKV	BZZB	YDDY	GWWG	retten	spielen	schön	ehrlich	treu	fair	rächen	strafen	schlecht	eitel	tot	faul	1	acq_USpleas_CSpleas2_RW	acq4567_RW	5	80	400	0	300	300	295	50	0	1	1	blank2r.bmp	0	1	+	0	1	blank2r.bmp	492	1	MQQM	492	1	blank2r.bmp	572	1	ehrlich	866	1	!	-1	1	!	-1	0	0	0	0	0	0	0	0	0	0	0	0	0	0	0	0	0	0	0	0	0	0	0	0	0	0	0	0	0	0
070319	11:55:24	12:06:44	679308	5.0.10.0	5_exp_RW	7	Rpleas_acq	CS_B	JXXJ	MQQM	VKKV	BZZB	YDDY	GWWG	retten	spielen	schön	ehrlich	treu	fair	rächen	strafen	schlecht	eitel	tot	faul	1	acq_USunple_CSunple2_RW	acq4567_RW	6	1	400	0	300	300	481	46	0	1	1	blank2r.bmp	0	1	+	0	1	blank2r.bmp	492	1	BZZB	492	1	blank2r.bmp	572	2	tot	866	1	!	1239	1	!	-1	0	0	0	0	0	0	0	0	0	0	0	0	0	0	0	0	0	0	0	0	0	0	0	0	0	0	0	0	0	0
070319	11:55:24	12:06:46	681521	5.0.10.0	5_exp_RW	7	Rpleas_acq	CS_B	JXXJ	MQQM	VKKV	BZZB	YDDY	GWWG	retten	spielen	schön	ehrlich	treu	fair	rächen	strafen	schlecht	eitel	tot	faul	1	acq_USunple_CSunple1_RW	acq4567_RW	6	2	400	1	300	300	407	46	0	1	1	blank2r.bmp	0	1	+	0	1	blank2r.bmp	492	1	VKKV	492	1	blank2r.bmp	572	3	schlecht	866	1	!	1239	1	!	1306	0	0	0	0	0	0	0	0	0	0	0	0	0	0	0	0	0	0	0	0	0	0	0	0	0	0	0	0	0	0
070319	11:55:24	12:06:48	683533	5.0.10.0	5_exp_RW	7	Rpleas_acq	CS_B	JXXJ	MQQM	VKKV	BZZB	YDDY	GWWG	retten	spielen	schön	ehrlich	treu	fair	rächen	strafen	schlecht	eitel	tot	faul	1	acq_USunple_CSunple1_RW	acq4567_RW	6	3	400	0	300	300	249	46	0	1	1	blank2r.bmp	0	1	+	0	1	blank2r.bmp	492	1	VKKV	492	1	blank2r.bmp	572	3	schlecht	866	1	!	-1	1	!	-1	0	0	0	0	0	0	0	0	0	0	0	0	0	0	0	0	0	0	0	0	0	0	0	0	0	0	0	0	0	0
070319	11:55:24	12:06:50	685799	5.0.10.0	5_exp_RW	7	Rpleas_acq	CS_B	JXXJ	MQQM	VKKV	BZZB	YDDY	GWWG	retten	spielen	schön	ehrlich	treu	fair	rächen	strafen	schlecht	eitel	tot	faul	1	acq_USpleas_CSpleas2_RW	acq4567_RW	6	4	400	0	300	300	479	50	0	1	1	blank2r.bmp	0	1	+	0	1	blank2r.bmp	492	1	MQQM	492	1	blank2r.bmp	572	3	fair	866	1	!	1239	1	!	-1	0	0	0	0	0	0	0	0	0	0	0	0	0	0	0	0	0	0	0	0	0	0	0	0	0	0	0	0	0	0
070319	11:55:24	12:06:52	687918	5.0.10.0	5_exp_RW	7	Rpleas_acq	CS_B	JXXJ	MQQM	VKKV	BZZB	YDDY	GWWG	retten	spielen	schön	ehrlich	treu	fair	rächen	strafen	schlecht	eitel	tot	faul	1	acq_USpleas_CSpleas1_RW	acq4567_RW	6	5	400	0	300	300	333	46	0	0	1	blank2r.bmp	0	1	+	0	1	blank2r.bmp	492	1	JXXJ	492	1	blank2r.bmp	572	2	spielen	866	1	!	-1	1	!	-1	0	0	0	0	0	0	0	0	0	0	0	0	0	0	0	0	0	0	0	0	0	0	0	0	0	0	0	0	0	0
070319	11:55:24	12:06:55	690157	5.0.10.0	5_exp_RW	7	Rpleas_acq	CS_B	JXXJ	MQQM	VKKV	BZZB	YDDY	GWWG	retten	spielen	schön	ehrlich	treu	fair	rächen	strafen	schlecht	eitel	tot	faul	1	acq_USpleas_CSpleas1_RW	acq4567_RW	6	6	400	1	300	300	432	50	0	1	1	blank2r.bmp	0	1	+	0	1	blank2r.bmp	492	1	JXXJ	492	1	blank2r.bmp	572	3	schön	866	1	!	1239	1	!	1332	0	0	0	0	0	0	0	0	0	0	0	0	0	0	0	0	0	0	0	0	0	0	0	0	0	0	0	0	0	0
070319	11:55:24	12:06:57	692436	5.0.10.0	5_exp_RW	7	Rpleas_acq	CS_B	JXXJ	MQQM	VKKV	BZZB	YDDY	GWWG	retten	spielen	schön	ehrlich	treu	fair	rächen	strafen	schlecht	eitel	tot	faul	1	acq_USpleas_CSpleas1_RW	acq4567_RW	6	7	400	0	300	300	496	50	0	1	1	blank2r.bmp	0	1	+	0	1	blank2r.bmp	492	1	JXXJ	492	1	blank2r.bmp	572	1	retten	866	1	!	1239	1	!	-1	0	0	0	0	0	0	0	0	0	0	0	0	0	0	0	0	0	0	0	0	0	0	0	0	0	0	0	0	0	0
070319	11:55:24	12:06:59	694489	5.0.10.0	5_exp_RW	7	Rpleas_acq	CS_B	JXXJ	MQQM	VKKV	BZZB	YDDY	GWWG	retten	spielen	schön	ehrlich	treu	fair	rächen	strafen	schlecht	eitel	tot	faul	1	acq_USunple_CSunple1_RW	acq4567_RW	6	8	400	0	300	300	254	50	0	0	1	blank2r.bmp	0	1	+	0	1	blank2r.bmp	492	1	VKKV	492	1	blank2r.bmp	572	1	rächen	866	1	!	-1	1	!	-1	0	0	0	0	0	0	0	0	0	0	0	0	0	0	0	0	0	0	0	0	0	0	0	0	0	0	0	0	0	0
070319	11:55:24	12:07:01	696741	5.0.10.0	5_exp_RW	7	Rpleas_acq	CS_B	JXXJ	MQQM	VKKV	BZZB	YDDY	GWWG	retten	spielen	schön	ehrlich	treu	fair	rächen	strafen	schlecht	eitel	tot	faul	1	acq_USunple_CSunple2_RW	acq4567_RW	6	9	400	1	300	300	446	46	0	1	1	blank2r.bmp	0	1	+	0	1	blank2r.bmp	492	1	BZZB	492	1	blank2r.bmp	572	1	eitel	866	1	!	1239	1	!	1346	0	0	0	0	0	0	0	0	0	0	0	0	0	0	0	0	0	0	0	0	0	0	0	0	0	0	0	0	0	0
070319	11:55:24	12:07:03	699020	5.0.10.0	5_exp_RW	7	Rpleas_acq	CS_B	JXXJ	MQQM	VKKV	BZZB	YDDY	GWWG	retten	spielen	schön	ehrlich	treu	fair	rächen	strafen	schlecht	eitel	tot	faul	1	acq_USunple_CSunple2_RW	acq4567_RW	6	10	400	0	300	300	515	46	0	1	1	blank2r.bmp	0	1	+	0	1	blank2r.bmp	492	1	BZZB	492	1	blank2r.bmp	572	2	tot	866	1	!	1239	1	!	-1	0	0	0	0	0	0	0	0	0	0	0	0	0	0	0	0	0	0	0	0	0	0	0	0	0	0	0	0	0	0
070319	11:55:24	12:07:06	701246	5.0.10.0	5_exp_RW	7	Rpleas_acq	CS_B	JXXJ	MQQM	VKKV	BZZB	YDDY	GWWG	retten	spielen	schön	ehrlich	treu	fair	rächen	strafen	schlecht	eitel	tot	faul	1	acq_USpleas_CSpleas1_RW	acq4567_RW	6	11	400	1	300	300	406	50	0	1	1	blank2r.bmp	0	1	+	0	1	blank2r.bmp	492	1	JXXJ	492	1	blank2r.bmp	572	2	spielen	866	1	!	1239	1	!	1306	0	0	0	0	0	0	0	0	0	0	0	0	0	0	0	0	0	0	0	0	0	0	0	0	0	0	0	0	0	0
070319	11:55:24	12:07:08	703312	5.0.10.0	5_exp_RW	7	Rpleas_acq	CS_B	JXXJ	MQQM	VKKV	BZZB	YDDY	GWWG	retten	spielen	schön	ehrlich	treu	fair	rächen	strafen	schlecht	eitel	tot	faul	1	acq_USpleas_CSpleas2_RW	acq4567_RW	6	12	400	0	300	300	285	50	0	1	1	blank2r.bmp	0	1	+	0	1	blank2r.bmp	492	1	MQQM	492	1	blank2r.bmp	572	2	treu	866	1	!	-1	1	!	-1	0	0	0	0	0	0	0	0	0	0	0	0	0	0	0	0	0	0	0	0	0	0	0	0	0	0	0	0	0	0
070319	11:55:24	12:07:10	705578	5.0.10.0	5_exp_RW	7	Rpleas_acq	CS_B	JXXJ	MQQM	VKKV	BZZB	YDDY	GWWG	retten	spielen	schön	ehrlich	treu	fair	rächen	strafen	schlecht	eitel	tot	faul	1	acq_USpleas_CSpleas1_RW	acq4567_RW	6	13	400	1	300	300	455	50	0	1	1	blank2r.bmp	0	1	+	0	1	blank2r.bmp	492	1	JXXJ	492	1	blank2r.bmp	572	2	spielen	866	1	!	1239	1	!	1359	0	0	0	0	0	0	0	0	0	0	0	0	0	0	0	0	0	0	0	0	0	0	0	0	0	0	0	0	0	0
070319	11:55:24	12:07:12	707857	5.0.10.0	5_exp_RW	7	Rpleas_acq	CS_B	JXXJ	MQQM	VKKV	BZZB	YDDY	GWWG	retten	spielen	schön	ehrlich	treu	fair	rächen	strafen	schlecht	eitel	tot	faul	1	acq_USunple_CSunple1_RW	acq4567_RW	6	14	400	0	300	300	509	46	0	1	1	blank2r.bmp	0	1	+	0	1	blank2r.bmp	492	1	VKKV	492	1	blank2r.bmp	572	2	strafen	866	1	!	1239	1	!	-1	0	0	0	0	0	0	0	0	0	0	0	0	0	0	0	0	0	0	0	0	0	0	0	0	0	0	0	0	0	0
070319	11:55:24	12:07:14	709909	5.0.10.0	5_exp_RW	7	Rpleas_acq	CS_B	JXXJ	MQQM	VKKV	BZZB	YDDY	GWWG	retten	spielen	schön	ehrlich	treu	fair	rächen	strafen	schlecht	eitel	tot	faul	1	acq_USpleas_CSpleas2_RW	acq4567_RW	6	15	400	0	300	300	266	50	0	1	1	blank2r.bmp	0	1	+	0	1	blank2r.bmp	492	1	MQQM	492	1	blank2r.bmp	572	1	ehrlich	866	1	!	-1	1	!	-1	0	0	0	0	0	0	0	0	0	0	0	0	0	0	0	0	0	0	0	0	0	0	0	0	0	0	0	0	0	0
070319	11:55:24	12:07:17	712175	5.0.10.0	5_exp_RW	7	Rpleas_acq	CS_B	JXXJ	MQQM	VKKV	BZZB	YDDY	GWWG	retten	spielen	schön	ehrlich	treu	fair	rächen	strafen	schlecht	eitel	tot	faul	1	acq_USunple_CSunple1_RW	acq4567_RW	6	16	400	1	300	300	461	46	0	1	1	blank2r.bmp	0	1	+	0	1	blank2r.bmp	492	1	VKKV	492	1	blank2r.bmp	572	2	strafen	866	1	!	1239	1	!	1359	0	0	0	0	0	0	0	0	0	0	0	0	0	0	0	0	0	0	0	0	0	0	0	0	0	0	0	0	0	0
070319	11:55:24	12:07:19	714441	5.0.10.0	5_exp_RW	7	Rpleas_acq	CS_B	JXXJ	MQQM	VKKV	BZZB	YDDY	GWWG	retten	spielen	schön	ehrlich	treu	fair	rächen	strafen	schlecht	eitel	tot	faul	1	acq_USpleas_CSpleas2_RW	acq4567_RW	6	17	400	0	300	300	501	50	0	1	1	blank2r.bmp	0	1	+	0	1	blank2r.bmp	492	1	MQQM	492	1	blank2r.bmp	572	3	fair	866	1	!	1239	1	!	-1	0	0	0	0	0	0	0	0	0	0	0	0	0	0	0	0	0	0	0	0	0	0	0	0	0	0	0	0	0	0
070319	11:55:24	12:07:21	716693	5.0.10.0	5_exp_RW	7	Rpleas_acq	CS_B	JXXJ	MQQM	VKKV	BZZB	YDDY	GWWG	retten	spielen	schön	ehrlich	treu	fair	rächen	strafen	schlecht	eitel	tot	faul	1	acq_USunple_CSunple2_RW	acq4567_RW	6	18	400	1	300	300	438	46	0	1	1	blank2r.bmp	0	1	+	0	1	blank2r.bmp	492	1	BZZB	492	1	blank2r.bmp	572	3	faul	866	1	!	1239	1	!	1346	0	0	0	0	0	0	0	0	0	0	0	0	0	0	0	0	0	0	0	0	0	0	0	0	0	0	0	0	0	0
070319	11:55:24	12:07:23	718919	5.0.10.0	5_exp_RW	7	Rpleas_acq	CS_B	JXXJ	MQQM	VKKV	BZZB	YDDY	GWWG	retten	spielen	schön	ehrlich	treu	fair	rächen	strafen	schlecht	eitel	tot	faul	1	acq_USpleas_CSpleas2_RW	acq4567_RW	6	19	400	1	300	300	428	46	0	0	1	blank2r.bmp	0	1	+	0	1	blank2r.bmp	492	1	MQQM	492	1	blank2r.bmp	572	3	fair	866	1	!	1239	1	!	1332	0	0	0	0	0	0	0	0	0	0	0	0	0	0	0	0	0	0	0	0	0	0	0	0	0	0	0	0	0	0
070319	11:55:24	12:07:25	721065	5.0.10.0	5_exp_RW	7	Rpleas_acq	CS_B	JXXJ	MQQM	VKKV	BZZB	YDDY	GWWG	retten	spielen	schön	ehrlich	treu	fair	rächen	strafen	schlecht	eitel	tot	faul	1	acq_USunple_CSunple2_RW	acq4567_RW	6	20	400	1	300	300	347	50	0	0	1	blank2r.bmp	0	1	+	0	1	blank2r.bmp	492	1	BZZB	492	1	blank2r.bmp	572	3	faul	866	1	!	1239	1	!	1252	0	0	0	0	0	0	0	0	0	0	0	0	0	0	0	0	0	0	0	0	0	0	0	0	0	0	0	0	0	0
070319	11:55:24	12:07:28	723290	5.0.10.0	5_exp_RW	7	Rpleas_acq	CS_B	JXXJ	MQQM	VKKV	BZZB	YDDY	GWWG	retten	spielen	schön	ehrlich	treu	fair	rächen	strafen	schlecht	eitel	tot	faul	1	acq_USpleas_CSpleas1_RW	acq4567_RW	6	21	400	1	300	300	430	50	0	1	1	blank2r.bmp	0	1	+	0	1	blank2r.bmp	492	1	JXXJ	492	1	blank2r.bmp	572	3	schön	866	1	!	1239	1	!	1332	0	0	0	0	0	0	0	0	0	0	0	0	0	0	0	0	0	0	0	0	0	0	0	0	0	0	0	0	0	0
