date	time	script.currenttime	script.elapsedtime	build	script.currentexpt	subject	expressions.LRpleas_acq	expressions.conditionCS_A	expressions.CSpleas_1	expressions.CSpleas_2	expressions.CSunple_1	expressions.CSunple_2	expressions.distractor_1	expressions.distractor_2	expressions.US_pleas1	expressions.US_pleas2	expressions.US_pleas3	expressions.US_pleas4	expressions.US_pleas5	expressions.US_pleas6	expressions.US_unple1	expressions.US_unple2	expressions.US_unple3	expressions.US_unple4	expressions.US_unple5	expressions.US_unple6	counter.positions_noRW	trialcode	blockcode	blocknum	trialnum	windowcenter	inwindow	pretrialpause	posttrialpause	latency	response	expressions.correctedscore	correct	stimulusnumber1	stimulusitem1	stimulusonset1	stimulusnumber2	stimulusitem2	stimulusonset2	stimulusnumber3	stimulusitem3	stimulusonset3	stimulusnumber4	stimulusitem4	stimulusonset4	stimulusnumber5	stimulusitem5	stimulusonset5	stimulusnumber6	stimulusitem6	stimulusonset6	stimulusnumber7	stimulusitem7	stimulusonset7	stimulusnumber8	stimulusitem8	stimulusonset8	stimulusnumber9	stimulusitem9	stimulusonset9	stimulusnumber10	stimulusitem10	stimulusonset10	stimulusnumber11	stimulusitem11	stimulusonset11	stimulusnumber12	stimulusitem12	stimulusonset12	stimulusnumber13	stimulusitem13	stimulusonset13	stimulusnumber14	stimulusitem14	stimulusonset14	stimulusnumber15	stimulusitem15	stimulusonset15	stimulusnumber16	stimulusitem16	stimulusonset16	stimulusnumber17	stimulusitem17	stimulusonset17	stimulusnumber18	stimulusitem18	stimulusonset18
071619	12:20:22	12:22:37	134704	5.0.10.0	5_exp_RW	55	Rpleas_acq	CS_B	BZZB	JXXJ	VKKV	YDDY	GWWG	MQQM	schön	fair	treu	ehrlich	spielen	retten	schlecht	faul	tot	eitel	strafen	rächen	1	acq_USpleas_CSpleas2_RW	acq1_RW	1	1	0	0	300	300	3896	50	0	1	1	blank2r.bmp	0	1	+	0	1	blank2r.bmp	492	1	JXXJ	492	1	blank2r.bmp	572	2	spielen	866	0	0	0	0	0	0	0	0	0	0	0	0	0	0	0	0	0	0	0	0	0	0	0	0	0	0	0	0	0	0	0	0	0	0	0	0
071619	12:20:22	12:22:40	137223	5.0.10.0	5_exp_RW	55	Rpleas_acq	CS_B	BZZB	JXXJ	VKKV	YDDY	GWWG	MQQM	schön	fair	treu	ehrlich	spielen	retten	schlecht	faul	tot	eitel	strafen	rächen	1	acq_USpleas_CSpleas1_RW	acq1_RW	1	2	0	0	300	300	1028	50	0	1	1	blank2r.bmp	0	1	+	0	1	blank2r.bmp	492	1	BZZB	492	1	blank2r.bmp	572	1	schön	866	0	0	0	0	0	0	0	0	0	0	0	0	0	0	0	0	0	0	0	0	0	0	0	0	0	0	0	0	0	0	0	0	0	0	0	0
071619	12:20:22	12:22:42	139555	5.0.10.0	5_exp_RW	55	Rpleas_acq	CS_B	BZZB	JXXJ	VKKV	YDDY	GWWG	MQQM	schön	fair	treu	ehrlich	spielen	retten	schlecht	faul	tot	eitel	strafen	rächen	1	acq_USunple_CSunple2_RW	acq1_RW	1	3	0	0	300	300	839	46	0	1	1	blank2r.bmp	0	1	+	0	1	blank2r.bmp	492	1	YDDY	492	1	blank2r.bmp	572	3	rächen	866	0	0	0	0	0	0	0	0	0	0	0	0	0	0	0	0	0	0	0	0	0	0	0	0	0	0	0	0	0	0	0	0	0	0	0	0
071619	12:20:22	12:22:44	141661	5.0.10.0	5_exp_RW	55	Rpleas_acq	CS_B	BZZB	JXXJ	VKKV	YDDY	GWWG	MQQM	schön	fair	treu	ehrlich	spielen	retten	schlecht	faul	tot	eitel	strafen	rächen	1	acq_USunple_CSunple1_RW	acq1_RW	1	4	0	0	300	300	635	46	0	1	1	blank2r.bmp	0	1	+	0	1	blank2r.bmp	492	1	VKKV	492	1	blank2r.bmp	572	2	faul	866	0	0	0	0	0	0	0	0	0	0	0	0	0	0	0	0	0	0	0	0	0	0	0	0	0	0	0	0	0	0	0	0	0	0	0	0
071619	12:20:22	12:22:46	144100	5.0.10.0	5_exp_RW	55	Rpleas_acq	CS_B	BZZB	JXXJ	VKKV	YDDY	GWWG	MQQM	schön	fair	treu	ehrlich	spielen	retten	schlecht	faul	tot	eitel	strafen	rächen	1	acq_USpleas_CSpleas1_RW	acq1_RW	1	5	0	0	300	300	954	50	0	1	1	blank2r.bmp	0	1	+	0	1	blank2r.bmp	492	1	BZZB	492	1	blank2r.bmp	572	2	fair	866	0	0	0	0	0	0	0	0	0	0	0	0	0	0	0	0	0	0	0	0	0	0	0	0	0	0	0	0	0	0	0	0	0	0	0	0
071619	12:20:22	12:22:49	146792	5.0.10.0	5_exp_RW	55	Rpleas_acq	CS_B	BZZB	JXXJ	VKKV	YDDY	GWWG	MQQM	schön	fair	treu	ehrlich	spielen	retten	schlecht	faul	tot	eitel	strafen	rächen	1	acq_USpleas_CSpleas1_RW	acq1_RW	1	6	0	0	300	300	1206	50	0	1	1	blank2r.bmp	0	1	+	0	1	blank2r.bmp	492	1	BZZB	492	1	blank2r.bmp	572	3	treu	866	0	0	0	0	0	0	0	0	0	0	0	0	0	0	0	0	0	0	0	0	0	0	0	0	0	0	0	0	0	0	0	0	0	0	0	0
071619	12:20:22	12:22:51	148938	5.0.10.0	5_exp_RW	55	Rpleas_acq	CS_B	BZZB	JXXJ	VKKV	YDDY	GWWG	MQQM	schön	fair	treu	ehrlich	spielen	retten	schlecht	faul	tot	eitel	strafen	rächen	1	acq_USunple_CSunple1_RW	acq1_RW	1	7	0	0	300	300	651	46	0	1	1	blank2r.bmp	0	1	+	0	1	blank2r.bmp	492	1	VKKV	492	1	blank2r.bmp	572	3	tot	866	0	0	0	0	0	0	0	0	0	0	0	0	0	0	0	0	0	0	0	0	0	0	0	0	0	0	0	0	0	0	0	0	0	0	0	0
071619	12:20:22	12:22:53	150924	5.0.10.0	5_exp_RW	55	Rpleas_acq	CS_B	BZZB	JXXJ	VKKV	YDDY	GWWG	MQQM	schön	fair	treu	ehrlich	spielen	retten	schlecht	faul	tot	eitel	strafen	rächen	1	acq_USpleas_CSpleas1_RW	acq1_RW	1	8	0	0	300	300	501	50	0	1	1	blank2r.bmp	0	1	+	0	1	blank2r.bmp	492	1	BZZB	492	1	blank2r.bmp	572	1	schön	866	0	0	0	0	0	0	0	0	0	0	0	0	0	0	0	0	0	0	0	0	0	0	0	0	0	0	0	0	0	0	0	0	0	0	0	0
071619	12:20:22	12:22:56	153177	5.0.10.0	5_exp_RW	55	Rpleas_acq	CS_B	BZZB	JXXJ	VKKV	YDDY	GWWG	MQQM	schön	fair	treu	ehrlich	spielen	retten	schlecht	faul	tot	eitel	strafen	rächen	1	acq_USpleas_CSpleas2_RW	acq1_RW	1	9	0	0	300	300	767	50	0	1	1	blank2r.bmp	0	1	+	0	1	blank2r.bmp	492	1	JXXJ	492	1	blank2r.bmp	572	1	ehrlich	866	0	0	0	0	0	0	0	0	0	0	0	0	0	0	0	0	0	0	0	0	0	0	0	0	0	0	0	0	0	0	0	0	0	0	0	0
071619	12:20:22	12:22:58	155469	5.0.10.0	5_exp_RW	55	Rpleas_acq	CS_B	BZZB	JXXJ	VKKV	YDDY	GWWG	MQQM	schön	fair	treu	ehrlich	spielen	retten	schlecht	faul	tot	eitel	strafen	rächen	1	acq_USunple_CSunple1_RW	acq1_RW	1	10	0	0	300	300	805	46	0	1	1	blank2r.bmp	0	1	+	0	1	blank2r.bmp	492	1	VKKV	492	1	blank2r.bmp	572	1	schlecht	866	0	0	0	0	0	0	0	0	0	0	0	0	0	0	0	0	0	0	0	0	0	0	0	0	0	0	0	0	0	0	0	0	0	0	0	0
071619	12:20:22	12:23:00	157601	5.0.10.0	5_exp_RW	55	Rpleas_acq	CS_B	BZZB	JXXJ	VKKV	YDDY	GWWG	MQQM	schön	fair	treu	ehrlich	spielen	retten	schlecht	faul	tot	eitel	strafen	rächen	1	acq_USunple_CSunple2_RW	acq1_RW	1	11	0	0	300	300	645	46	0	1	1	blank2r.bmp	0	1	+	0	1	blank2r.bmp	492	1	YDDY	492	1	blank2r.bmp	572	1	eitel	866	0	0	0	0	0	0	0	0	0	0	0	0	0	0	0	0	0	0	0	0	0	0	0	0	0	0	0	0	0	0	0	0	0	0	0	0
071619	12:20:22	12:23:02	159601	5.0.10.0	5_exp_RW	55	Rpleas_acq	CS_B	BZZB	JXXJ	VKKV	YDDY	GWWG	MQQM	schön	fair	treu	ehrlich	spielen	retten	schlecht	faul	tot	eitel	strafen	rächen	1	acq_USunple_CSunple2_RW	acq1_RW	1	12	0	0	300	300	524	46	0	1	1	blank2r.bmp	0	1	+	0	1	blank2r.bmp	492	1	YDDY	492	1	blank2r.bmp	572	2	strafen	866	0	0	0	0	0	0	0	0	0	0	0	0	0	0	0	0	0	0	0	0	0	0	0	0	0	0	0	0	0	0	0	0	0	0	0	0
071619	12:20:22	12:23:04	161520	5.0.10.0	5_exp_RW	55	Rpleas_acq	CS_B	BZZB	JXXJ	VKKV	YDDY	GWWG	MQQM	schön	fair	treu	ehrlich	spielen	retten	schlecht	faul	tot	eitel	strafen	rächen	1	acq_USunple_CSunple1_RW	acq1_RW	1	13	0	0	300	300	446	46	0	1	1	blank2r.bmp	0	1	+	0	1	blank2r.bmp	492	1	VKKV	492	1	blank2r.bmp	572	3	tot	866	0	0	0	0	0	0	0	0	0	0	0	0	0	0	0	0	0	0	0	0	0	0	0	0	0	0	0	0	0	0	0	0	0	0	0	0
071619	12:20:22	12:23:06	163732	5.0.10.0	5_exp_RW	55	Rpleas_acq	CS_B	BZZB	JXXJ	VKKV	YDDY	GWWG	MQQM	schön	fair	treu	ehrlich	spielen	retten	schlecht	faul	tot	eitel	strafen	rächen	1	acq_USpleas_CSpleas2_RW	acq1_RW	1	14	0	0	300	300	725	50	0	1	1	blank2r.bmp	0	1	+	0	1	blank2r.bmp	492	1	JXXJ	492	1	blank2r.bmp	572	3	retten	866	0	0	0	0	0	0	0	0	0	0	0	0	0	0	0	0	0	0	0	0	0	0	0	0	0	0	0	0	0	0	0	0	0	0	0	0
071619	12:20:22	12:23:08	165811	5.0.10.0	5_exp_RW	55	Rpleas_acq	CS_B	BZZB	JXXJ	VKKV	YDDY	GWWG	MQQM	schön	fair	treu	ehrlich	spielen	retten	schlecht	faul	tot	eitel	strafen	rächen	1	acq_USunple_CSunple2_RW	acq1_RW	1	15	0	0	300	300	605	46	0	1	1	blank2r.bmp	0	1	+	0	1	blank2r.bmp	492	1	YDDY	492	1	blank2r.bmp	572	3	rächen	866	0	0	0	0	0	0	0	0	0	0	0	0	0	0	0	0	0	0	0	0	0	0	0	0	0	0	0	0	0	0	0	0	0	0	0	0
071619	12:20:22	12:23:10	167771	5.0.10.0	5_exp_RW	55	Rpleas_acq	CS_B	BZZB	JXXJ	VKKV	YDDY	GWWG	MQQM	schön	fair	treu	ehrlich	spielen	retten	schlecht	faul	tot	eitel	strafen	rächen	1	acq_USpleas_CSpleas2_RW	acq1_RW	1	16	0	0	300	300	469	50	0	1	1	blank2r.bmp	0	1	+	0	1	blank2r.bmp	492	1	JXXJ	492	1	blank2r.bmp	572	1	ehrlich	866	0	0	0	0	0	0	0	0	0	0	0	0	0	0	0	0	0	0	0	0	0	0	0	0	0	0	0	0	0	0	0	0	0	0	0	0
071619	12:20:22	12:24:07	225067	5.0.10.0	5_exp_RW	55	Rpleas_acq	CS_B	BZZB	JXXJ	VKKV	YDDY	GWWG	MQQM	schön	fair	treu	ehrlich	spielen	retten	schlecht	faul	tot	eitel	strafen	rächen	1	acq_USpleas_CSpleas1_RW	acq2_RW	2	1	480	0	300	300	1270	50	0	1	1	blank2r.bmp	0	1	+	0	1	blank2r.bmp	492	1	BZZB	492	1	blank2r.bmp	572	3	treu	866	1	!	1319	1	!	-1	0	0	0	0	0	0	0	0	0	0	0	0	0	0	0	0	0	0	0	0	0	0	0	0	0	0	0	0	0	0
071619	12:20:22	12:24:10	227319	5.0.10.0	5_exp_RW	55	Rpleas_acq	CS_B	BZZB	JXXJ	VKKV	YDDY	GWWG	MQQM	schön	fair	treu	ehrlich	spielen	retten	schlecht	faul	tot	eitel	strafen	rächen	1	acq_USpleas_CSpleas1_RW	acq2_RW	2	2	480	1	300	300	426	50	0	1	1	blank2r.bmp	0	1	+	0	1	blank2r.bmp	492	1	BZZB	492	1	blank2r.bmp	572	2	fair	866	1	!	1319	1	!	1332	0	0	0	0	0	0	0	0	0	0	0	0	0	0	0	0	0	0	0	0	0	0	0	0	0	0	0	0	0	0
071619	12:20:22	12:24:12	229612	5.0.10.0	5_exp_RW	55	Rpleas_acq	CS_B	BZZB	JXXJ	VKKV	YDDY	GWWG	MQQM	schön	fair	treu	ehrlich	spielen	retten	schlecht	faul	tot	eitel	strafen	rächen	1	acq_USpleas_CSpleas2_RW	acq2_RW	2	3	480	1	300	300	493	50	0	1	1	blank2r.bmp	0	1	+	0	1	blank2r.bmp	492	1	JXXJ	492	1	blank2r.bmp	572	3	retten	866	1	!	1319	1	!	1399	0	0	0	0	0	0	0	0	0	0	0	0	0	0	0	0	0	0	0	0	0	0	0	0	0	0	0	0	0	0
071619	12:20:22	12:24:14	231718	5.0.10.0	5_exp_RW	55	Rpleas_acq	CS_B	BZZB	JXXJ	VKKV	YDDY	GWWG	MQQM	schön	fair	treu	ehrlich	spielen	retten	schlecht	faul	tot	eitel	strafen	rächen	1	acq_USunple_CSunple2_RW	acq2_RW	2	4	480	0	300	300	340	46	0	1	1	blank2r.bmp	0	1	+	0	1	blank2r.bmp	492	1	YDDY	492	1	blank2r.bmp	572	1	eitel	866	1	!	-1	1	!	-1	0	0	0	0	0	0	0	0	0	0	0	0	0	0	0	0	0	0	0	0	0	0	0	0	0	0	0	0	0	0
071619	12:20:22	12:24:17	234277	5.0.10.0	5_exp_RW	55	Rpleas_acq	CS_B	BZZB	JXXJ	VKKV	YDDY	GWWG	MQQM	schön	fair	treu	ehrlich	spielen	retten	schlecht	faul	tot	eitel	strafen	rächen	1	acq_USunple_CSunple1_RW	acq2_RW	2	5	480	0	300	300	781	46	0	1	1	blank2r.bmp	0	1	+	0	1	blank2r.bmp	492	1	VKKV	492	1	blank2r.bmp	572	1	schlecht	866	1	!	1319	1	!	-1	0	0	0	0	0	0	0	0	0	0	0	0	0	0	0	0	0	0	0	0	0	0	0	0	0	0	0	0	0	0
071619	12:20:22	12:24:19	236516	5.0.10.0	5_exp_RW	55	Rpleas_acq	CS_B	BZZB	JXXJ	VKKV	YDDY	GWWG	MQQM	schön	fair	treu	ehrlich	spielen	retten	schlecht	faul	tot	eitel	strafen	rächen	1	acq_USunple_CSunple1_RW	acq2_RW	2	6	480	1	300	300	426	46	0	1	1	blank2r.bmp	0	1	+	0	1	blank2r.bmp	492	1	VKKV	492	1	blank2r.bmp	572	2	faul	866	1	!	1319	1	!	1332	0	0	0	0	0	0	0	0	0	0	0	0	0	0	0	0	0	0	0	0	0	0	0	0	0	0	0	0	0	0
071619	12:20:22	12:24:21	238861	5.0.10.0	5_exp_RW	55	Rpleas_acq	CS_B	BZZB	JXXJ	VKKV	YDDY	GWWG	MQQM	schön	fair	treu	ehrlich	spielen	retten	schlecht	faul	tot	eitel	strafen	rächen	1	acq_USpleas_CSpleas2_RW	acq2_RW	2	7	480	0	300	300	571	50	0	1	1	blank2r.bmp	0	1	+	0	1	blank2r.bmp	492	1	JXXJ	492	1	blank2r.bmp	572	2	spielen	866	1	!	1319	1	!	-1	0	0	0	0	0	0	0	0	0	0	0	0	0	0	0	0	0	0	0	0	0	0	0	0	0	0	0	0	0	0
071619	12:20:22	12:24:24	241300	5.0.10.0	5_exp_RW	55	Rpleas_acq	CS_B	BZZB	JXXJ	VKKV	YDDY	GWWG	MQQM	schön	fair	treu	ehrlich	spielen	retten	schlecht	faul	tot	eitel	strafen	rächen	1	acq_USunple_CSunple2_RW	acq2_RW	2	8	480	0	300	300	656	46	0	1	1	blank2r.bmp	0	1	+	0	1	blank2r.bmp	492	1	YDDY	492	1	blank2r.bmp	572	2	strafen	866	1	!	1319	1	!	-1	0	0	0	0	0	0	0	0	0	0	0	0	0	0	0	0	0	0	0	0	0	0	0	0	0	0	0	0	0	0
071619	12:20:22	12:24:26	243460	5.0.10.0	5_exp_RW	55	Rpleas_acq	CS_B	BZZB	JXXJ	VKKV	YDDY	GWWG	MQQM	schön	fair	treu	ehrlich	spielen	retten	schlecht	faul	tot	eitel	strafen	rächen	1	acq_USunple_CSunple2_RW	acq2_RW	2	9	480	0	300	300	377	46	0	1	1	blank2r.bmp	0	1	+	0	1	blank2r.bmp	492	1	YDDY	492	1	blank2r.bmp	572	2	strafen	866	1	!	-1	1	!	-1	0	0	0	0	0	0	0	0	0	0	0	0	0	0	0	0	0	0	0	0	0	0	0	0	0	0	0	0	0	0
071619	12:20:22	12:24:28	245819	5.0.10.0	5_exp_RW	55	Rpleas_acq	CS_B	BZZB	JXXJ	VKKV	YDDY	GWWG	MQQM	schön	fair	treu	ehrlich	spielen	retten	schlecht	faul	tot	eitel	strafen	rächen	1	acq_USunple_CSunple1_RW	acq2_RW	2	10	480	0	300	300	559	46	0	1	1	blank2r.bmp	0	1	+	0	1	blank2r.bmp	492	1	VKKV	492	1	blank2r.bmp	572	1	schlecht	866	1	!	1319	1	!	-1	0	0	0	0	0	0	0	0	0	0	0	0	0	0	0	0	0	0	0	0	0	0	0	0	0	0	0	0	0	0
071619	12:20:22	12:24:30	247991	5.0.10.0	5_exp_RW	55	Rpleas_acq	CS_B	BZZB	JXXJ	VKKV	YDDY	GWWG	MQQM	schön	fair	treu	ehrlich	spielen	retten	schlecht	faul	tot	eitel	strafen	rächen	1	acq_USpleas_CSpleas2_RW	acq2_RW	2	11	480	0	300	300	390	50	0	1	1	blank2r.bmp	0	1	+	0	1	blank2r.bmp	492	1	JXXJ	492	1	blank2r.bmp	572	1	ehrlich	866	1	!	-1	1	!	-1	0	0	0	0	0	0	0	0	0	0	0	0	0	0	0	0	0	0	0	0	0	0	0	0	0	0	0	0	0	0
071619	12:20:22	12:24:33	250323	5.0.10.0	5_exp_RW	55	Rpleas_acq	CS_B	BZZB	JXXJ	VKKV	YDDY	GWWG	MQQM	schön	fair	treu	ehrlich	spielen	retten	schlecht	faul	tot	eitel	strafen	rächen	1	acq_USunple_CSunple1_RW	acq2_RW	2	12	480	1	300	300	522	46	0	1	1	blank2r.bmp	0	1	+	0	1	blank2r.bmp	492	1	VKKV	492	1	blank2r.bmp	572	2	faul	866	1	!	1319	1	!	1426	0	0	0	0	0	0	0	0	0	0	0	0	0	0	0	0	0	0	0	0	0	0	0	0	0	0	0	0	0	0
071619	12:20:22	12:24:35	252722	5.0.10.0	5_exp_RW	55	Rpleas_acq	CS_B	BZZB	JXXJ	VKKV	YDDY	GWWG	MQQM	schön	fair	treu	ehrlich	spielen	retten	schlecht	faul	tot	eitel	strafen	rächen	1	acq_USpleas_CSpleas1_RW	acq2_RW	2	13	480	0	300	300	635	50	0	1	1	blank2r.bmp	0	1	+	0	1	blank2r.bmp	492	1	BZZB	492	1	blank2r.bmp	572	3	treu	866	1	!	1319	1	!	-1	0	0	0	0	0	0	0	0	0	0	0	0	0	0	0	0	0	0	0	0	0	0	0	0	0	0	0	0	0	0
071619	12:20:22	12:24:38	256081	5.0.10.0	5_exp_RW	55	Rpleas_acq	CS_B	BZZB	JXXJ	VKKV	YDDY	GWWG	MQQM	schön	fair	treu	ehrlich	spielen	retten	schlecht	faul	tot	eitel	strafen	rächen	1	acq_USunple_CSunple2_RW	acq2_RW	2	14	480	0	300	300	1575	46	0	1	1	blank2r.bmp	0	1	+	0	1	blank2r.bmp	492	1	YDDY	492	1	blank2r.bmp	572	1	eitel	866	1	!	1319	1	!	-1	0	0	0	0	0	0	0	0	0	0	0	0	0	0	0	0	0	0	0	0	0	0	0	0	0	0	0	0	0	0
071619	12:20:22	12:24:41	258320	5.0.10.0	5_exp_RW	55	Rpleas_acq	CS_B	BZZB	JXXJ	VKKV	YDDY	GWWG	MQQM	schön	fair	treu	ehrlich	spielen	retten	schlecht	faul	tot	eitel	strafen	rächen	1	acq_USunple_CSunple1_RW	acq2_RW	2	15	480	1	300	300	426	46	0	1	1	blank2r.bmp	0	1	+	0	1	blank2r.bmp	492	1	VKKV	492	1	blank2r.bmp	572	3	tot	866	1	!	1319	1	!	1332	0	0	0	0	0	0	0	0	0	0	0	0	0	0	0	0	0	0	0	0	0	0	0	0	0	0	0	0	0	0
071619	12:20:22	12:24:43	260706	5.0.10.0	5_exp_RW	55	Rpleas_acq	CS_B	BZZB	JXXJ	VKKV	YDDY	GWWG	MQQM	schön	fair	treu	ehrlich	spielen	retten	schlecht	faul	tot	eitel	strafen	rächen	1	acq_USpleas_CSpleas1_RW	acq2_RW	2	16	480	0	300	300	616	50	0	1	1	blank2r.bmp	0	1	+	0	1	blank2r.bmp	492	1	BZZB	492	1	blank2r.bmp	572	2	fair	866	1	!	1319	1	!	-1	0	0	0	0	0	0	0	0	0	0	0	0	0	0	0	0	0	0	0	0	0	0	0	0	0	0	0	0	0	0
071619	12:20:22	12:24:45	262865	5.0.10.0	5_exp_RW	55	Rpleas_acq	CS_B	BZZB	JXXJ	VKKV	YDDY	GWWG	MQQM	schön	fair	treu	ehrlich	spielen	retten	schlecht	faul	tot	eitel	strafen	rächen	1	acq_USpleas_CSpleas1_RW	acq2_RW	2	17	480	0	300	300	378	50	0	1	1	blank2r.bmp	0	1	+	0	1	blank2r.bmp	492	1	BZZB	492	1	blank2r.bmp	572	1	schön	866	1	!	-1	1	!	-1	0	0	0	0	0	0	0	0	0	0	0	0	0	0	0	0	0	0	0	0	0	0	0	0	0	0	0	0	0	0
071619	12:20:22	12:24:48	265251	5.0.10.0	5_exp_RW	55	Rpleas_acq	CS_B	BZZB	JXXJ	VKKV	YDDY	GWWG	MQQM	schön	fair	treu	ehrlich	spielen	retten	schlecht	faul	tot	eitel	strafen	rächen	1	acq_USpleas_CSpleas2_RW	acq2_RW	2	18	480	0	300	300	589	50	0	1	1	blank2r.bmp	0	1	+	0	1	blank2r.bmp	492	1	JXXJ	492	1	blank2r.bmp	572	2	spielen	866	1	!	1319	1	!	-1	0	0	0	0	0	0	0	0	0	0	0	0	0	0	0	0	0	0	0	0	0	0	0	0	0	0	0	0	0	0
071619	12:20:22	12:24:50	267583	5.0.10.0	5_exp_RW	55	Rpleas_acq	CS_B	BZZB	JXXJ	VKKV	YDDY	GWWG	MQQM	schön	fair	treu	ehrlich	spielen	retten	schlecht	faul	tot	eitel	strafen	rächen	1	acq_USpleas_CSpleas2_RW	acq2_RW	2	19	480	1	300	300	521	50	0	1	1	blank2r.bmp	0	1	+	0	1	blank2r.bmp	492	1	JXXJ	492	1	blank2r.bmp	572	3	retten	866	1	!	1319	1	!	1426	0	0	0	0	0	0	0	0	0	0	0	0	0	0	0	0	0	0	0	0	0	0	0	0	0	0	0	0	0	0
071619	12:20:22	12:24:52	269835	5.0.10.0	5_exp_RW	55	Rpleas_acq	CS_B	BZZB	JXXJ	VKKV	YDDY	GWWG	MQQM	schön	fair	treu	ehrlich	spielen	retten	schlecht	faul	tot	eitel	strafen	rächen	1	acq_USunple_CSunple1_RW	acq2_RW	2	20	480	1	300	300	462	46	0	1	1	blank2r.bmp	0	1	+	0	1	blank2r.bmp	492	1	VKKV	492	1	blank2r.bmp	572	2	faul	866	1	!	1319	1	!	1359	0	0	0	0	0	0	0	0	0	0	0	0	0	0	0	0	0	0	0	0	0	0	0	0	0	0	0	0	0	0
071619	12:20:22	12:24:55	272181	5.0.10.0	5_exp_RW	55	Rpleas_acq	CS_B	BZZB	JXXJ	VKKV	YDDY	GWWG	MQQM	schön	fair	treu	ehrlich	spielen	retten	schlecht	faul	tot	eitel	strafen	rächen	1	acq_USunple_CSunple2_RW	acq2_RW	2	21	480	1	300	300	541	46	0	1	1	blank2r.bmp	0	1	+	0	1	blank2r.bmp	492	1	YDDY	492	1	blank2r.bmp	572	3	rächen	866	1	!	1319	1	!	1439	0	0	0	0	0	0	0	0	0	0	0	0	0	0	0	0	0	0	0	0	0	0	0	0	0	0	0	0	0	0
071619	12:20:22	12:24:57	274500	5.0.10.0	5_exp_RW	55	Rpleas_acq	CS_B	BZZB	JXXJ	VKKV	YDDY	GWWG	MQQM	schön	fair	treu	ehrlich	spielen	retten	schlecht	faul	tot	eitel	strafen	rächen	1	acq_USpleas_CSpleas1_RW	acq2_RW	2	22	480	0	300	300	321	46	0	0	1	blank2r.bmp	0	1	+	0	1	blank2r.bmp	492	1	BZZB	492	1	blank2r.bmp	572	2	fair	866	1	FEHLER	1532	1	!	-1	1	!	-1	0	0	0	0	0	0	0	0	0	0	0	0	0	0	0	0	0	0	0	0	0	0	0	0	0	0	0
071619	12:20:22	12:24:59	276633	5.0.10.0	5_exp_RW	55	Rpleas_acq	CS_B	BZZB	JXXJ	VKKV	YDDY	GWWG	MQQM	schön	fair	treu	ehrlich	spielen	retten	schlecht	faul	tot	eitel	strafen	rächen	1	acq_USunple_CSunple2_RW	acq2_RW	2	23	480	0	300	300	580	46	0	1	1	blank2r.bmp	0	1	+	0	1	blank2r.bmp	492	1	YDDY	492	1	blank2r.bmp	572	3	rächen	866	1	!	1319	1	!	-1	0	0	0	0	0	0	0	0	0	0	0	0	0	0	0	0	0	0	0	0	0	0	0	0	0	0	0	0	0	0
071619	12:20:22	12:25:01	278765	5.0.10.0	5_exp_RW	55	Rpleas_acq	CS_B	BZZB	JXXJ	VKKV	YDDY	GWWG	MQQM	schön	fair	treu	ehrlich	spielen	retten	schlecht	faul	tot	eitel	strafen	rächen	1	acq_USpleas_CSpleas2_RW	acq2_RW	2	24	480	0	300	300	347	50	0	1	1	blank2r.bmp	0	1	+	0	1	blank2r.bmp	492	1	JXXJ	492	1	blank2r.bmp	572	1	ehrlich	866	1	!	-1	1	!	-1	0	0	0	0	0	0	0	0	0	0	0	0	0	0	0	0	0	0	0	0	0	0	0	0	0	0	0	0	0	0
071619	12:20:22	12:25:19	296265	5.0.10.0	5_exp_RW	55	Rpleas_acq	CS_B	BZZB	JXXJ	VKKV	YDDY	GWWG	MQQM	schön	fair	treu	ehrlich	spielen	retten	schlecht	faul	tot	eitel	strafen	rächen	1	acq_USunple_CSunple2_RW	acq3_RW	3	1	453	0	300	300	670	46	0	1	1	blank2r.bmp	0	1	+	0	1	blank2r.bmp	492	1	YDDY	492	1	blank2r.bmp	572	2	strafen	866	1	!	1292	1	!	-1	0	0	0	0	0	0	0	0	0	0	0	0	0	0	0	0	0	0	0	0	0	0	0	0	0	0	0	0	0	0
071619	12:20:22	12:25:21	298410	5.0.10.0	5_exp_RW	55	Rpleas_acq	CS_B	BZZB	JXXJ	VKKV	YDDY	GWWG	MQQM	schön	fair	treu	ehrlich	spielen	retten	schlecht	faul	tot	eitel	strafen	rächen	1	acq_USpleas_CSpleas2_RW	acq3_RW	3	2	453	0	300	300	345	50	0	1	1	blank2r.bmp	0	1	+	0	1	blank2r.bmp	492	1	JXXJ	492	1	blank2r.bmp	572	3	retten	866	1	!	-1	1	!	-1	0	0	0	0	0	0	0	0	0	0	0	0	0	0	0	0	0	0	0	0	0	0	0	0	0	0	0	0	0	0
071619	12:20:22	12:25:23	300809	5.0.10.0	5_exp_RW	55	Rpleas_acq	CS_B	BZZB	JXXJ	VKKV	YDDY	GWWG	MQQM	schön	fair	treu	ehrlich	spielen	retten	schlecht	faul	tot	eitel	strafen	rächen	1	acq_USpleas_CSpleas2_RW	acq3_RW	3	3	453	0	300	300	617	50	0	1	1	blank2r.bmp	0	1	+	0	1	blank2r.bmp	492	1	JXXJ	492	1	blank2r.bmp	572	2	spielen	866	1	!	1292	1	!	-1	0	0	0	0	0	0	0	0	0	0	0	0	0	0	0	0	0	0	0	0	0	0	0	0	0	0	0	0	0	0
071619	12:20:22	12:25:25	302955	5.0.10.0	5_exp_RW	55	Rpleas_acq	CS_B	BZZB	JXXJ	VKKV	YDDY	GWWG	MQQM	schön	fair	treu	ehrlich	spielen	retten	schlecht	faul	tot	eitel	strafen	rächen	1	acq_USpleas_CSpleas1_RW	acq3_RW	3	4	453	0	300	300	363	50	0	1	1	blank2r.bmp	0	1	+	0	1	blank2r.bmp	492	1	BZZB	492	1	blank2r.bmp	572	1	schön	866	1	!	-1	1	!	-1	0	0	0	0	0	0	0	0	0	0	0	0	0	0	0	0	0	0	0	0	0	0	0	0	0	0	0	0	0	0
071619	12:20:22	12:25:28	305394	5.0.10.0	5_exp_RW	55	Rpleas_acq	CS_B	BZZB	JXXJ	VKKV	YDDY	GWWG	MQQM	schön	fair	treu	ehrlich	spielen	retten	schlecht	faul	tot	eitel	strafen	rächen	1	acq_USpleas_CSpleas1_RW	acq3_RW	3	5	453	0	300	300	654	50	0	1	1	blank2r.bmp	0	1	+	0	1	blank2r.bmp	492	1	BZZB	492	1	blank2r.bmp	572	3	treu	866	1	!	1292	1	!	-1	0	0	0	0	0	0	0	0	0	0	0	0	0	0	0	0	0	0	0	0	0	0	0	0	0	0	0	0	0	0
071619	12:20:22	12:25:30	307420	5.0.10.0	5_exp_RW	55	Rpleas_acq	CS_B	BZZB	JXXJ	VKKV	YDDY	GWWG	MQQM	schön	fair	treu	ehrlich	spielen	retten	schlecht	faul	tot	eitel	strafen	rächen	1	acq_USunple_CSunple2_RW	acq3_RW	3	6	453	0	300	300	241	46	0	1	1	blank2r.bmp	0	1	+	0	1	blank2r.bmp	492	1	YDDY	492	1	blank2r.bmp	572	1	eitel	866	1	!	-1	1	!	-1	0	0	0	0	0	0	0	0	0	0	0	0	0	0	0	0	0	0	0	0	0	0	0	0	0	0	0	0	0	0
071619	12:20:22	12:25:32	309859	5.0.10.0	5_exp_RW	55	Rpleas_acq	CS_B	BZZB	JXXJ	VKKV	YDDY	GWWG	MQQM	schön	fair	treu	ehrlich	spielen	retten	schlecht	faul	tot	eitel	strafen	rächen	1	acq_USunple_CSunple2_RW	acq3_RW	3	7	453	0	300	300	641	46	0	1	1	blank2r.bmp	0	1	+	0	1	blank2r.bmp	492	1	YDDY	492	1	blank2r.bmp	572	3	rächen	866	1	!	1292	1	!	-1	0	0	0	0	0	0	0	0	0	0	0	0	0	0	0	0	0	0	0	0	0	0	0	0	0	0	0	0	0	0
071619	12:20:22	12:25:34	312071	5.0.10.0	5_exp_RW	55	Rpleas_acq	CS_B	BZZB	JXXJ	VKKV	YDDY	GWWG	MQQM	schön	fair	treu	ehrlich	spielen	retten	schlecht	faul	tot	eitel	strafen	rächen	1	acq_USpleas_CSpleas1_RW	acq3_RW	3	8	453	1	300	300	411	50	0	1	1	blank2r.bmp	0	1	+	0	1	blank2r.bmp	492	1	BZZB	492	1	blank2r.bmp	572	1	schön	866	1	!	1292	1	!	1306	0	0	0	0	0	0	0	0	0	0	0	0	0	0	0	0	0	0	0	0	0	0	0	0	0	0	0	0	0	0
071619	12:20:22	12:25:37	314204	5.0.10.0	5_exp_RW	55	Rpleas_acq	CS_B	BZZB	JXXJ	VKKV	YDDY	GWWG	MQQM	schön	fair	treu	ehrlich	spielen	retten	schlecht	faul	tot	eitel	strafen	rächen	1	acq_USpleas_CSpleas1_RW	acq3_RW	3	9	453	0	300	300	368	50	0	1	1	blank2r.bmp	0	1	+	0	1	blank2r.bmp	492	1	BZZB	492	1	blank2r.bmp	572	3	treu	866	1	!	-1	1	!	-1	0	0	0	0	0	0	0	0	0	0	0	0	0	0	0	0	0	0	0	0	0	0	0	0	0	0	0	0	0	0
071619	12:20:22	12:25:39	316670	5.0.10.0	5_exp_RW	55	Rpleas_acq	CS_B	BZZB	JXXJ	VKKV	YDDY	GWWG	MQQM	schön	fair	treu	ehrlich	spielen	retten	schlecht	faul	tot	eitel	strafen	rächen	1	acq_USunple_CSunple1_RW	acq3_RW	3	10	453	0	300	300	671	46	0	1	1	blank2r.bmp	0	1	+	0	1	blank2r.bmp	492	1	VKKV	492	1	blank2r.bmp	572	1	schlecht	866	1	!	1292	1	!	-1	0	0	0	0	0	0	0	0	0	0	0	0	0	0	0	0	0	0	0	0	0	0	0	0	0	0	0	0	0	0
071619	12:20:22	12:25:41	318895	5.0.10.0	5_exp_RW	55	Rpleas_acq	CS_B	BZZB	JXXJ	VKKV	YDDY	GWWG	MQQM	schön	fair	treu	ehrlich	spielen	retten	schlecht	faul	tot	eitel	strafen	rächen	1	acq_USpleas_CSpleas1_RW	acq3_RW	3	11	453	1	300	300	399	50	0	1	1	blank2r.bmp	0	1	+	0	1	blank2r.bmp	492	1	BZZB	492	1	blank2r.bmp	572	2	fair	866	1	!	1292	1	!	1306	0	0	0	0	0	0	0	0	0	0	0	0	0	0	0	0	0	0	0	0	0	0	0	0	0	0	0	0	0	0
071619	12:20:22	12:25:44	321161	5.0.10.0	5_exp_RW	55	Rpleas_acq	CS_B	BZZB	JXXJ	VKKV	YDDY	GWWG	MQQM	schön	fair	treu	ehrlich	spielen	retten	schlecht	faul	tot	eitel	strafen	rächen	1	acq_USpleas_CSpleas1_RW	acq3_RW	3	12	453	1	300	300	467	50	0	1	1	blank2r.bmp	0	1	+	0	1	blank2r.bmp	492	1	BZZB	492	1	blank2r.bmp	572	2	fair	866	1	!	1292	1	!	1372	0	0	0	0	0	0	0	0	0	0	0	0	0	0	0	0	0	0	0	0	0	0	0	0	0	0	0	0	0	0
071619	12:20:22	12:25:46	323413	5.0.10.0	5_exp_RW	55	Rpleas_acq	CS_B	BZZB	JXXJ	VKKV	YDDY	GWWG	MQQM	schön	fair	treu	ehrlich	spielen	retten	schlecht	faul	tot	eitel	strafen	rächen	1	acq_USpleas_CSpleas2_RW	acq3_RW	3	13	453	1	300	300	439	50	0	1	1	blank2r.bmp	0	1	+	0	1	blank2r.bmp	492	1	JXXJ	492	1	blank2r.bmp	572	1	ehrlich	866	1	!	1292	1	!	1346	0	0	0	0	0	0	0	0	0	0	0	0	0	0	0	0	0	0	0	0	0	0	0	0	0	0	0	0	0	0
071619	12:20:22	12:25:48	325759	5.0.10.0	5_exp_RW	55	Rpleas_acq	CS_B	BZZB	JXXJ	VKKV	YDDY	GWWG	MQQM	schön	fair	treu	ehrlich	spielen	retten	schlecht	faul	tot	eitel	strafen	rächen	1	acq_USpleas_CSpleas2_RW	acq3_RW	3	14	453	0	300	300	576	50	0	1	1	blank2r.bmp	0	1	+	0	1	blank2r.bmp	492	1	JXXJ	492	1	blank2r.bmp	572	2	spielen	866	1	!	1292	1	!	-1	0	0	0	0	0	0	0	0	0	0	0	0	0	0	0	0	0	0	0	0	0	0	0	0	0	0	0	0	0	0
071619	12:20:22	12:25:50	327918	5.0.10.0	5_exp_RW	55	Rpleas_acq	CS_B	BZZB	JXXJ	VKKV	YDDY	GWWG	MQQM	schön	fair	treu	ehrlich	spielen	retten	schlecht	faul	tot	eitel	strafen	rächen	1	acq_USunple_CSunple2_RW	acq3_RW	3	15	453	0	300	300	373	46	0	1	1	blank2r.bmp	0	1	+	0	1	blank2r.bmp	492	1	YDDY	492	1	blank2r.bmp	572	2	strafen	866	1	!	-1	1	!	-1	0	0	0	0	0	0	0	0	0	0	0	0	0	0	0	0	0	0	0	0	0	0	0	0	0	0	0	0	0	0
071619	12:20:22	12:25:53	330171	5.0.10.0	5_exp_RW	55	Rpleas_acq	CS_B	BZZB	JXXJ	VKKV	YDDY	GWWG	MQQM	schön	fair	treu	ehrlich	spielen	retten	schlecht	faul	tot	eitel	strafen	rächen	1	acq_USunple_CSunple1_RW	acq3_RW	3	16	453	1	300	300	429	46	0	1	1	blank2r.bmp	0	1	+	0	1	blank2r.bmp	492	1	VKKV	492	1	blank2r.bmp	572	3	tot	866	1	!	1292	1	!	1332	0	0	0	0	0	0	0	0	0	0	0	0	0	0	0	0	0	0	0	0	0	0	0	0	0	0	0	0	0	0
071619	12:20:22	12:25:55	332476	5.0.10.0	5_exp_RW	55	Rpleas_acq	CS_B	BZZB	JXXJ	VKKV	YDDY	GWWG	MQQM	schön	fair	treu	ehrlich	spielen	retten	schlecht	faul	tot	eitel	strafen	rächen	1	acq_USunple_CSunple1_RW	acq3_RW	3	17	453	1	300	300	518	46	0	1	1	blank2r.bmp	0	1	+	0	1	blank2r.bmp	492	1	VKKV	492	1	blank2r.bmp	572	2	faul	866	1	!	1292	1	!	1412	0	0	0	0	0	0	0	0	0	0	0	0	0	0	0	0	0	0	0	0	0	0	0	0	0	0	0	0	0	0
071619	12:20:22	12:25:57	334556	5.0.10.0	5_exp_RW	55	Rpleas_acq	CS_B	BZZB	JXXJ	VKKV	YDDY	GWWG	MQQM	schön	fair	treu	ehrlich	spielen	retten	schlecht	faul	tot	eitel	strafen	rächen	1	acq_USunple_CSunple1_RW	acq3_RW	3	18	453	0	300	300	317	46	0	1	1	blank2r.bmp	0	1	+	0	1	blank2r.bmp	492	1	VKKV	492	1	blank2r.bmp	572	3	tot	866	1	!	-1	1	!	-1	0	0	0	0	0	0	0	0	0	0	0	0	0	0	0	0	0	0	0	0	0	0	0	0	0	0	0	0	0	0
071619	12:20:22	12:25:59	336861	5.0.10.0	5_exp_RW	55	Rpleas_acq	CS_B	BZZB	JXXJ	VKKV	YDDY	GWWG	MQQM	schön	fair	treu	ehrlich	spielen	retten	schlecht	faul	tot	eitel	strafen	rächen	1	acq_USpleas_CSpleas2_RW	acq3_RW	3	19	453	0	300	300	298	46	0	0	1	blank2r.bmp	0	1	+	0	1	blank2r.bmp	492	1	JXXJ	492	1	blank2r.bmp	572	3	retten	866	1	FEHLER	1506	1	!	-1	1	!	-1	0	0	0	0	0	0	0	0	0	0	0	0	0	0	0	0	0	0	0	0	0	0	0	0	0	0	0
071619	12:20:22	12:26:02	339154	5.0.10.0	5_exp_RW	55	Rpleas_acq	CS_B	BZZB	JXXJ	VKKV	YDDY	GWWG	MQQM	schön	fair	treu	ehrlich	spielen	retten	schlecht	faul	tot	eitel	strafen	rächen	1	acq_USunple_CSunple1_RW	acq3_RW	3	20	453	0	300	300	741	46	0	1	1	blank2r.bmp	0	1	+	0	1	blank2r.bmp	492	1	VKKV	492	1	blank2r.bmp	572	1	schlecht	866	1	!	1292	1	!	-1	0	0	0	0	0	0	0	0	0	0	0	0	0	0	0	0	0	0	0	0	0	0	0	0	0	0	0	0	0	0
071619	12:20:22	12:26:04	341686	5.0.10.0	5_exp_RW	55	Rpleas_acq	CS_B	BZZB	JXXJ	VKKV	YDDY	GWWG	MQQM	schön	fair	treu	ehrlich	spielen	retten	schlecht	faul	tot	eitel	strafen	rächen	1	acq_USunple_CSunple2_RW	acq3_RW	3	21	453	1	300	300	507	50	0	0	1	blank2r.bmp	0	1	+	0	1	blank2r.bmp	492	1	YDDY	492	1	blank2r.bmp	572	1	eitel	866	1	FEHLER	1732	1	!	1292	1	!	1412	0	0	0	0	0	0	0	0	0	0	0	0	0	0	0	0	0	0	0	0	0	0	0	0	0	0	0
071619	12:20:22	12:26:06	343725	5.0.10.0	5_exp_RW	55	Rpleas_acq	CS_B	BZZB	JXXJ	VKKV	YDDY	GWWG	MQQM	schön	fair	treu	ehrlich	spielen	retten	schlecht	faul	tot	eitel	strafen	rächen	1	acq_USunple_CSunple2_RW	acq3_RW	3	22	453	1	300	300	465	46	0	1	1	blank2r.bmp	0	1	+	0	1	blank2r.bmp	492	1	YDDY	492	1	blank2r.bmp	572	2	strafen	866	1	!	1292	1	!	1359	0	0	0	0	0	0	0	0	0	0	0	0	0	0	0	0	0	0	0	0	0	0	0	0	0	0	0	0	0	0
071619	12:20:22	12:26:08	346058	5.0.10.0	5_exp_RW	55	Rpleas_acq	CS_B	BZZB	JXXJ	VKKV	YDDY	GWWG	MQQM	schön	fair	treu	ehrlich	spielen	retten	schlecht	faul	tot	eitel	strafen	rächen	1	acq_USpleas_CSpleas2_RW	acq3_RW	3	23	453	0	300	300	559	50	0	1	1	blank2r.bmp	0	1	+	0	1	blank2r.bmp	492	1	JXXJ	492	1	blank2r.bmp	572	3	retten	866	1	!	1292	1	!	-1	0	0	0	0	0	0	0	0	0	0	0	0	0	0	0	0	0	0	0	0	0	0	0	0	0	0	0	0	0	0
071619	12:20:22	12:26:11	348377	5.0.10.0	5_exp_RW	55	Rpleas_acq	CS_B	BZZB	JXXJ	VKKV	YDDY	GWWG	MQQM	schön	fair	treu	ehrlich	spielen	retten	schlecht	faul	tot	eitel	strafen	rächen	1	acq_USunple_CSunple1_RW	acq3_RW	3	24	453	0	300	300	534	46	0	1	1	blank2r.bmp	0	1	+	0	1	blank2r.bmp	492	1	VKKV	492	1	blank2r.bmp	572	2	faul	866	1	!	1292	1	!	-1	0	0	0	0	0	0	0	0	0	0	0	0	0	0	0	0	0	0	0	0	0	0	0	0	0	0	0	0	0	0
071619	12:20:22	12:26:32	369528	5.0.10.0	5_exp_RW	55	Rpleas_acq	CS_B	BZZB	JXXJ	VKKV	YDDY	GWWG	MQQM	schön	fair	treu	ehrlich	spielen	retten	schlecht	faul	tot	eitel	strafen	rächen	1	acq_USunple_CSunple1_RW	acq4567_RW	4	1	400	1	300	300	430	46	0	1	1	blank2r.bmp	0	1	+	0	1	blank2r.bmp	492	1	VKKV	492	1	blank2r.bmp	572	3	tot	866	1	!	1239	1	!	1332	0	0	0	0	0	0	0	0	0	0	0	0	0	0	0	0	0	0	0	0	0	0	0	0	0	0	0	0	0	0
071619	12:20:22	12:26:34	371780	5.0.10.0	5_exp_RW	55	Rpleas_acq	CS_B	BZZB	JXXJ	VKKV	YDDY	GWWG	MQQM	schön	fair	treu	ehrlich	spielen	retten	schlecht	faul	tot	eitel	strafen	rächen	1	acq_USpleas_CSpleas1_RW	acq4567_RW	4	2	400	1	300	300	460	50	0	1	1	blank2r.bmp	0	1	+	0	1	blank2r.bmp	492	1	BZZB	492	1	blank2r.bmp	572	3	treu	866	1	!	1239	1	!	1359	0	0	0	0	0	0	0	0	0	0	0	0	0	0	0	0	0	0	0	0	0	0	0	0	0	0	0	0	0	0
071619	12:20:22	12:26:37	374153	5.0.10.0	5_exp_RW	55	Rpleas_acq	CS_B	BZZB	JXXJ	VKKV	YDDY	GWWG	MQQM	schön	fair	treu	ehrlich	spielen	retten	schlecht	faul	tot	eitel	strafen	rächen	1	acq_USunple_CSunple2_RW	acq4567_RW	4	3	400	0	300	300	592	46	0	1	1	blank2r.bmp	0	1	+	0	1	blank2r.bmp	492	1	YDDY	492	1	blank2r.bmp	572	3	rächen	866	1	!	1239	1	!	-1	0	0	0	0	0	0	0	0	0	0	0	0	0	0	0	0	0	0	0	0	0	0	0	0	0	0	0	0	0	0
071619	12:20:22	12:26:39	376445	5.0.10.0	5_exp_RW	55	Rpleas_acq	CS_B	BZZB	JXXJ	VKKV	YDDY	GWWG	MQQM	schön	fair	treu	ehrlich	spielen	retten	schlecht	faul	tot	eitel	strafen	rächen	1	acq_USunple_CSunple2_RW	acq4567_RW	4	4	400	0	300	300	506	46	0	1	1	blank2r.bmp	0	1	+	0	1	blank2r.bmp	492	1	YDDY	492	1	blank2r.bmp	572	1	eitel	866	1	!	1239	1	!	-1	0	0	0	0	0	0	0	0	0	0	0	0	0	0	0	0	0	0	0	0	0	0	0	0	0	0	0	0	0	0
071619	12:20:22	12:26:41	378618	5.0.10.0	5_exp_RW	55	Rpleas_acq	CS_B	BZZB	JXXJ	VKKV	YDDY	GWWG	MQQM	schön	fair	treu	ehrlich	spielen	retten	schlecht	faul	tot	eitel	strafen	rächen	1	acq_USpleas_CSpleas1_RW	acq4567_RW	4	5	400	1	300	300	360	50	0	1	1	blank2r.bmp	0	1	+	0	1	blank2r.bmp	492	1	BZZB	492	1	blank2r.bmp	572	1	schön	866	1	!	1239	1	!	1266	0	0	0	0	0	0	0	0	0	0	0	0	0	0	0	0	0	0	0	0	0	0	0	0	0	0	0	0	0	0
071619	12:20:22	12:26:43	380843	5.0.10.0	5_exp_RW	55	Rpleas_acq	CS_B	BZZB	JXXJ	VKKV	YDDY	GWWG	MQQM	schön	fair	treu	ehrlich	spielen	retten	schlecht	faul	tot	eitel	strafen	rächen	1	acq_USpleas_CSpleas2_RW	acq4567_RW	4	6	400	1	300	300	426	50	0	1	1	blank2r.bmp	0	1	+	0	1	blank2r.bmp	492	1	JXXJ	492	1	blank2r.bmp	572	1	ehrlich	866	1	!	1239	1	!	1332	0	0	0	0	0	0	0	0	0	0	0	0	0	0	0	0	0	0	0	0	0	0	0	0	0	0	0	0	0	0
071619	12:20:22	12:26:46	383149	5.0.10.0	5_exp_RW	55	Rpleas_acq	CS_B	BZZB	JXXJ	VKKV	YDDY	GWWG	MQQM	schön	fair	treu	ehrlich	spielen	retten	schlecht	faul	tot	eitel	strafen	rächen	1	acq_USpleas_CSpleas2_RW	acq4567_RW	4	7	400	0	300	300	533	50	0	1	1	blank2r.bmp	0	1	+	0	1	blank2r.bmp	492	1	JXXJ	492	1	blank2r.bmp	572	2	spielen	866	1	!	1239	1	!	-1	0	0	0	0	0	0	0	0	0	0	0	0	0	0	0	0	0	0	0	0	0	0	0	0	0	0	0	0	0	0
071619	12:20:22	12:26:48	385401	5.0.10.0	5_exp_RW	55	Rpleas_acq	CS_B	BZZB	JXXJ	VKKV	YDDY	GWWG	MQQM	schön	fair	treu	ehrlich	spielen	retten	schlecht	faul	tot	eitel	strafen	rächen	1	acq_USpleas_CSpleas1_RW	acq4567_RW	4	8	400	1	300	300	439	50	0	1	1	blank2r.bmp	0	1	+	0	1	blank2r.bmp	492	1	BZZB	492	1	blank2r.bmp	572	3	treu	866	1	!	1239	1	!	1346	0	0	0	0	0	0	0	0	0	0	0	0	0	0	0	0	0	0	0	0	0	0	0	0	0	0	0	0	0	0
071619	12:20:22	12:26:50	387681	5.0.10.0	5_exp_RW	55	Rpleas_acq	CS_B	BZZB	JXXJ	VKKV	YDDY	GWWG	MQQM	schön	fair	treu	ehrlich	spielen	retten	schlecht	faul	tot	eitel	strafen	rächen	1	acq_USunple_CSunple2_RW	acq4567_RW	4	9	400	0	300	300	493	46	0	1	1	blank2r.bmp	0	1	+	0	1	blank2r.bmp	492	1	YDDY	492	1	blank2r.bmp	572	2	strafen	866	1	!	1239	1	!	-1	0	0	0	0	0	0	0	0	0	0	0	0	0	0	0	0	0	0	0	0	0	0	0	0	0	0	0	0	0	0
071619	12:20:22	12:26:52	389853	5.0.10.0	5_exp_RW	55	Rpleas_acq	CS_B	BZZB	JXXJ	VKKV	YDDY	GWWG	MQQM	schön	fair	treu	ehrlich	spielen	retten	schlecht	faul	tot	eitel	strafen	rächen	1	acq_USpleas_CSpleas1_RW	acq4567_RW	4	10	400	1	300	300	349	50	0	1	1	blank2r.bmp	0	1	+	0	1	blank2r.bmp	492	1	BZZB	492	1	blank2r.bmp	572	1	schön	866	1	!	1239	1	!	1252	0	0	0	0	0	0	0	0	0	0	0	0	0	0	0	0	0	0	0	0	0	0	0	0	0	0	0	0	0	0
071619	12:20:22	12:26:55	392185	5.0.10.0	5_exp_RW	55	Rpleas_acq	CS_B	BZZB	JXXJ	VKKV	YDDY	GWWG	MQQM	schön	fair	treu	ehrlich	spielen	retten	schlecht	faul	tot	eitel	strafen	rächen	1	acq_USpleas_CSpleas2_RW	acq4567_RW	4	11	400	0	300	300	569	50	0	1	1	blank2r.bmp	0	1	+	0	1	blank2r.bmp	492	1	JXXJ	492	1	blank2r.bmp	572	3	retten	866	1	!	1239	1	!	-1	0	0	0	0	0	0	0	0	0	0	0	0	0	0	0	0	0	0	0	0	0	0	0	0	0	0	0	0	0	0
071619	12:20:22	12:26:57	394398	5.0.10.0	5_exp_RW	55	Rpleas_acq	CS_B	BZZB	JXXJ	VKKV	YDDY	GWWG	MQQM	schön	fair	treu	ehrlich	spielen	retten	schlecht	faul	tot	eitel	strafen	rächen	1	acq_USpleas_CSpleas2_RW	acq4567_RW	4	12	400	1	300	300	399	50	0	1	1	blank2r.bmp	0	1	+	0	1	blank2r.bmp	492	1	JXXJ	492	1	blank2r.bmp	572	1	ehrlich	866	1	!	1239	1	!	1306	0	0	0	0	0	0	0	0	0	0	0	0	0	0	0	0	0	0	0	0	0	0	0	0	0	0	0	0	0	0
071619	12:20:22	12:26:59	396597	5.0.10.0	5_exp_RW	55	Rpleas_acq	CS_B	BZZB	JXXJ	VKKV	YDDY	GWWG	MQQM	schön	fair	treu	ehrlich	spielen	retten	schlecht	faul	tot	eitel	strafen	rächen	1	acq_USpleas_CSpleas2_RW	acq4567_RW	4	13	400	1	300	300	399	50	0	1	1	blank2r.bmp	0	1	+	0	1	blank2r.bmp	492	1	JXXJ	492	1	blank2r.bmp	572	2	spielen	866	1	!	1239	1	!	1306	0	0	0	0	0	0	0	0	0	0	0	0	0	0	0	0	0	0	0	0	0	0	0	0	0	0	0	0	0	0
071619	12:20:22	12:27:01	398663	5.0.10.0	5_exp_RW	55	Rpleas_acq	CS_B	BZZB	JXXJ	VKKV	YDDY	GWWG	MQQM	schön	fair	treu	ehrlich	spielen	retten	schlecht	faul	tot	eitel	strafen	rächen	1	acq_USunple_CSunple1_RW	acq4567_RW	4	14	400	0	300	300	294	46	0	1	1	blank2r.bmp	0	1	+	0	1	blank2r.bmp	492	1	VKKV	492	1	blank2r.bmp	572	1	schlecht	866	1	!	-1	1	!	-1	0	0	0	0	0	0	0	0	0	0	0	0	0	0	0	0	0	0	0	0	0	0	0	0	0	0	0	0	0	0
071619	12:20:22	12:27:03	401102	5.0.10.0	5_exp_RW	55	Rpleas_acq	CS_B	BZZB	JXXJ	VKKV	YDDY	GWWG	MQQM	schön	fair	treu	ehrlich	spielen	retten	schlecht	faul	tot	eitel	strafen	rächen	1	acq_USunple_CSunple1_RW	acq4567_RW	4	15	400	0	300	300	650	46	0	1	1	blank2r.bmp	0	1	+	0	1	blank2r.bmp	492	1	VKKV	492	1	blank2r.bmp	572	1	schlecht	866	1	!	1239	1	!	-1	0	0	0	0	0	0	0	0	0	0	0	0	0	0	0	0	0	0	0	0	0	0	0	0	0	0	0	0	0	0
071619	12:20:22	12:27:06	403341	5.0.10.0	5_exp_RW	55	Rpleas_acq	CS_B	BZZB	JXXJ	VKKV	YDDY	GWWG	MQQM	schön	fair	treu	ehrlich	spielen	retten	schlecht	faul	tot	eitel	strafen	rächen	1	acq_USunple_CSunple1_RW	acq4567_RW	4	16	400	1	300	300	431	46	0	1	1	blank2r.bmp	0	1	+	0	1	blank2r.bmp	492	1	VKKV	492	1	blank2r.bmp	572	3	tot	866	1	!	1239	1	!	1332	0	0	0	0	0	0	0	0	0	0	0	0	0	0	0	0	0	0	0	0	0	0	0	0	0	0	0	0	0	0
071619	12:20:22	12:27:08	405740	5.0.10.0	5_exp_RW	55	Rpleas_acq	CS_B	BZZB	JXXJ	VKKV	YDDY	GWWG	MQQM	schön	fair	treu	ehrlich	spielen	retten	schlecht	faul	tot	eitel	strafen	rächen	1	acq_USunple_CSunple2_RW	acq4567_RW	4	17	400	0	300	300	618	46	0	1	1	blank2r.bmp	0	1	+	0	1	blank2r.bmp	492	1	YDDY	492	1	blank2r.bmp	572	3	rächen	866	1	!	1239	1	!	-1	0	0	0	0	0	0	0	0	0	0	0	0	0	0	0	0	0	0	0	0	0	0	0	0	0	0	0	0	0	0
071619	12:20:22	12:27:10	408112	5.0.10.0	5_exp_RW	55	Rpleas_acq	CS_B	BZZB	JXXJ	VKKV	YDDY	GWWG	MQQM	schön	fair	treu	ehrlich	spielen	retten	schlecht	faul	tot	eitel	strafen	rächen	1	acq_USpleas_CSpleas1_RW	acq4567_RW	4	18	400	0	300	300	586	50	0	1	1	blank2r.bmp	0	1	+	0	1	blank2r.bmp	492	1	BZZB	492	1	blank2r.bmp	572	2	fair	866	1	!	1239	1	!	-1	0	0	0	0	0	0	0	0	0	0	0	0	0	0	0	0	0	0	0	0	0	0	0	0	0	0	0	0	0	0
071619	12:20:22	12:27:13	410498	5.0.10.0	5_exp_RW	55	Rpleas_acq	CS_B	BZZB	JXXJ	VKKV	YDDY	GWWG	MQQM	schön	fair	treu	ehrlich	spielen	retten	schlecht	faul	tot	eitel	strafen	rächen	1	acq_USunple_CSunple2_RW	acq4567_RW	4	19	400	0	300	300	611	50	0	0	1	blank2r.bmp	0	1	+	0	1	blank2r.bmp	492	1	YDDY	492	1	blank2r.bmp	572	1	eitel	866	1	!	1239	1	!	-1	0	0	0	0	0	0	0	0	0	0	0	0	0	0	0	0	0	0	0	0	0	0	0	0	0	0	0	0	0	0
071619	12:20:22	12:27:17	414403	5.0.10.0	5_exp_RW	55	Rpleas_acq	CS_B	BZZB	JXXJ	VKKV	YDDY	GWWG	MQQM	schön	fair	treu	ehrlich	spielen	retten	schlecht	faul	tot	eitel	strafen	rächen	1	acq_USunple_CSunple1_RW	acq4567_RW	4	20	400	0	300	300	2123	46	0	1	1	blank2r.bmp	0	1	+	0	1	blank2r.bmp	492	1	VKKV	492	1	blank2r.bmp	572	2	faul	866	1	!	1239	1	!	-1	0	0	0	0	0	0	0	0	0	0	0	0	0	0	0	0	0	0	0	0	0	0	0	0	0	0	0	0	0	0
071619	12:20:22	12:27:19	416749	5.0.10.0	5_exp_RW	55	Rpleas_acq	CS_B	BZZB	JXXJ	VKKV	YDDY	GWWG	MQQM	schön	fair	treu	ehrlich	spielen	retten	schlecht	faul	tot	eitel	strafen	rächen	1	acq_USunple_CSunple1_RW	acq4567_RW	4	21	400	0	300	300	555	46	0	1	1	blank2r.bmp	0	1	+	0	1	blank2r.bmp	492	1	VKKV	492	1	blank2r.bmp	572	1	schlecht	866	1	!	1239	1	!	-1	0	0	0	0	0	0	0	0	0	0	0	0	0	0	0	0	0	0	0	0	0	0	0	0	0	0	0	0	0	0
071619	12:20:22	12:27:21	418921	5.0.10.0	5_exp_RW	55	Rpleas_acq	CS_B	BZZB	JXXJ	VKKV	YDDY	GWWG	MQQM	schön	fair	treu	ehrlich	spielen	retten	schlecht	faul	tot	eitel	strafen	rächen	1	acq_USpleas_CSpleas1_RW	acq4567_RW	4	22	400	1	300	300	369	50	0	1	1	blank2r.bmp	0	1	+	0	1	blank2r.bmp	492	1	BZZB	492	1	blank2r.bmp	572	1	schön	866	1	!	1239	1	!	1266	0	0	0	0	0	0	0	0	0	0	0	0	0	0	0	0	0	0	0	0	0	0	0	0	0	0	0	0	0	0
071619	12:20:22	12:27:24	421253	5.0.10.0	5_exp_RW	55	Rpleas_acq	CS_B	BZZB	JXXJ	VKKV	YDDY	GWWG	MQQM	schön	fair	treu	ehrlich	spielen	retten	schlecht	faul	tot	eitel	strafen	rächen	1	acq_USpleas_CSpleas2_RW	acq4567_RW	4	23	400	0	300	300	571	50	0	1	1	blank2r.bmp	0	1	+	0	1	blank2r.bmp	492	1	JXXJ	492	1	blank2r.bmp	572	2	spielen	866	1	!	1239	1	!	-1	0	0	0	0	0	0	0	0	0	0	0	0	0	0	0	0	0	0	0	0	0	0	0	0	0	0	0	0	0	0
071619	12:20:22	12:27:26	423479	5.0.10.0	5_exp_RW	55	Rpleas_acq	CS_B	BZZB	JXXJ	VKKV	YDDY	GWWG	MQQM	schön	fair	treu	ehrlich	spielen	retten	schlecht	faul	tot	eitel	strafen	rächen	1	acq_USpleas_CSpleas1_RW	acq4567_RW	4	24	400	1	300	300	416	50	0	1	1	blank2r.bmp	0	1	+	0	1	blank2r.bmp	492	1	BZZB	492	1	blank2r.bmp	572	2	fair	866	1	!	1239	1	!	1319	0	0	0	0	0	0	0	0	0	0	0	0	0	0	0	0	0	0	0	0	0	0	0	0	0	0	0	0	0	0
071619	12:20:22	12:27:28	425785	5.0.10.0	5_exp_RW	55	Rpleas_acq	CS_B	BZZB	JXXJ	VKKV	YDDY	GWWG	MQQM	schön	fair	treu	ehrlich	spielen	retten	schlecht	faul	tot	eitel	strafen	rächen	1	acq_USunple_CSunple1_RW	acq4567_RW	4	25	400	0	300	300	520	46	0	1	1	blank2r.bmp	0	1	+	0	1	blank2r.bmp	492	1	VKKV	492	1	blank2r.bmp	572	3	tot	866	1	!	1239	1	!	-1	0	0	0	0	0	0	0	0	0	0	0	0	0	0	0	0	0	0	0	0	0	0	0	0	0	0	0	0	0	0
071619	12:20:22	12:27:30	428051	5.0.10.0	5_exp_RW	55	Rpleas_acq	CS_B	BZZB	JXXJ	VKKV	YDDY	GWWG	MQQM	schön	fair	treu	ehrlich	spielen	retten	schlecht	faul	tot	eitel	strafen	rächen	1	acq_USunple_CSunple1_RW	acq4567_RW	4	26	400	0	300	300	486	46	0	1	1	blank2r.bmp	0	1	+	0	1	blank2r.bmp	492	1	VKKV	492	1	blank2r.bmp	572	2	faul	866	1	!	1239	1	!	-1	0	0	0	0	0	0	0	0	0	0	0	0	0	0	0	0	0	0	0	0	0	0	0	0	0	0	0	0	0	0
071619	12:20:22	12:27:33	430543	5.0.10.0	5_exp_RW	55	Rpleas_acq	CS_B	BZZB	JXXJ	VKKV	YDDY	GWWG	MQQM	schön	fair	treu	ehrlich	spielen	retten	schlecht	faul	tot	eitel	strafen	rächen	1	acq_USpleas_CSpleas2_RW	acq4567_RW	4	27	400	0	300	300	714	50	0	1	1	blank2r.bmp	0	1	+	0	1	blank2r.bmp	492	1	JXXJ	492	1	blank2r.bmp	572	3	retten	866	1	!	1239	1	!	-1	0	0	0	0	0	0	0	0	0	0	0	0	0	0	0	0	0	0	0	0	0	0	0	0	0	0	0	0	0	0
071619	12:20:22	12:27:35	432889	5.0.10.0	5_exp_RW	55	Rpleas_acq	CS_B	BZZB	JXXJ	VKKV	YDDY	GWWG	MQQM	schön	fair	treu	ehrlich	spielen	retten	schlecht	faul	tot	eitel	strafen	rächen	1	acq_USunple_CSunple1_RW	acq4567_RW	4	28	400	0	300	300	560	46	0	1	1	blank2r.bmp	0	1	+	0	1	blank2r.bmp	492	1	VKKV	492	1	blank2r.bmp	572	2	faul	866	1	!	1239	1	!	-1	0	0	0	0	0	0	0	0	0	0	0	0	0	0	0	0	0	0	0	0	0	0	0	0	0	0	0	0	0	0
071619	12:20:22	12:27:38	435181	5.0.10.0	5_exp_RW	55	Rpleas_acq	CS_B	BZZB	JXXJ	VKKV	YDDY	GWWG	MQQM	schön	fair	treu	ehrlich	spielen	retten	schlecht	faul	tot	eitel	strafen	rächen	1	acq_USpleas_CSpleas1_RW	acq4567_RW	4	29	400	0	300	300	496	50	0	1	1	blank2r.bmp	0	1	+	0	1	blank2r.bmp	492	1	BZZB	492	1	blank2r.bmp	572	3	treu	866	1	!	1239	1	!	-1	0	0	0	0	0	0	0	0	0	0	0	0	0	0	0	0	0	0	0	0	0	0	0	0	0	0	0	0	0	0
071619	12:20:22	12:27:40	437927	5.0.10.0	5_exp_RW	55	Rpleas_acq	CS_B	BZZB	JXXJ	VKKV	YDDY	GWWG	MQQM	schön	fair	treu	ehrlich	spielen	retten	schlecht	faul	tot	eitel	strafen	rächen	1	acq_USunple_CSunple2_RW	acq4567_RW	4	30	400	0	300	300	950	46	0	1	1	blank2r.bmp	0	1	+	0	1	blank2r.bmp	492	1	YDDY	492	1	blank2r.bmp	572	1	eitel	866	1	!	1239	1	!	-1	0	0	0	0	0	0	0	0	0	0	0	0	0	0	0	0	0	0	0	0	0	0	0	0	0	0	0	0	0	0
071619	12:20:22	12:27:43	440219	5.0.10.0	5_exp_RW	55	Rpleas_acq	CS_B	BZZB	JXXJ	VKKV	YDDY	GWWG	MQQM	schön	fair	treu	ehrlich	spielen	retten	schlecht	faul	tot	eitel	strafen	rächen	1	acq_USunple_CSunple2_RW	acq4567_RW	4	31	400	0	300	300	503	46	0	1	1	blank2r.bmp	0	1	+	0	1	blank2r.bmp	492	1	YDDY	492	1	blank2r.bmp	572	3	rächen	866	1	!	1239	1	!	-1	0	0	0	0	0	0	0	0	0	0	0	0	0	0	0	0	0	0	0	0	0	0	0	0	0	0	0	0	0	0
071619	12:20:22	12:27:45	442498	5.0.10.0	5_exp_RW	55	Rpleas_acq	CS_B	BZZB	JXXJ	VKKV	YDDY	GWWG	MQQM	schön	fair	treu	ehrlich	spielen	retten	schlecht	faul	tot	eitel	strafen	rächen	1	acq_USunple_CSunple1_RW	acq4567_RW	4	32	400	0	300	300	503	46	0	1	1	blank2r.bmp	0	1	+	0	1	blank2r.bmp	492	1	VKKV	492	1	blank2r.bmp	572	3	tot	866	1	!	1239	1	!	-1	0	0	0	0	0	0	0	0	0	0	0	0	0	0	0	0	0	0	0	0	0	0	0	0	0	0	0	0	0	0
071619	12:20:22	12:27:47	444711	5.0.10.0	5_exp_RW	55	Rpleas_acq	CS_B	BZZB	JXXJ	VKKV	YDDY	GWWG	MQQM	schön	fair	treu	ehrlich	spielen	retten	schlecht	faul	tot	eitel	strafen	rächen	1	acq_USpleas_CSpleas2_RW	acq4567_RW	4	33	400	1	300	300	388	50	0	1	1	blank2r.bmp	0	1	+	0	1	blank2r.bmp	492	1	JXXJ	492	1	blank2r.bmp	572	1	ehrlich	866	1	!	1239	1	!	1292	0	0	0	0	0	0	0	0	0	0	0	0	0	0	0	0	0	0	0	0	0	0	0	0	0	0	0	0	0	0
071619	12:20:22	12:27:49	446990	5.0.10.0	5_exp_RW	55	Rpleas_acq	CS_B	BZZB	JXXJ	VKKV	YDDY	GWWG	MQQM	schön	fair	treu	ehrlich	spielen	retten	schlecht	faul	tot	eitel	strafen	rächen	1	acq_USunple_CSunple2_RW	acq4567_RW	4	34	400	0	300	300	495	46	0	1	1	blank2r.bmp	0	1	+	0	1	blank2r.bmp	492	1	YDDY	492	1	blank2r.bmp	572	2	strafen	866	1	!	1239	1	!	-1	0	0	0	0	0	0	0	0	0	0	0	0	0	0	0	0	0	0	0	0	0	0	0	0	0	0	0	0	0	0
071619	12:20:22	12:27:51	449055	5.0.10.0	5_exp_RW	55	Rpleas_acq	CS_B	BZZB	JXXJ	VKKV	YDDY	GWWG	MQQM	schön	fair	treu	ehrlich	spielen	retten	schlecht	faul	tot	eitel	strafen	rächen	1	acq_USunple_CSunple2_RW	acq4567_RW	4	35	400	0	300	300	283	46	0	1	1	blank2r.bmp	0	1	+	0	1	blank2r.bmp	492	1	YDDY	492	1	blank2r.bmp	572	1	eitel	866	1	!	-1	1	!	-1	0	0	0	0	0	0	0	0	0	0	0	0	0	0	0	0	0	0	0	0	0	0	0	0	0	0	0	0	0	0
071619	12:20:22	12:27:54	451215	5.0.10.0	5_exp_RW	55	Rpleas_acq	CS_B	BZZB	JXXJ	VKKV	YDDY	GWWG	MQQM	schön	fair	treu	ehrlich	spielen	retten	schlecht	faul	tot	eitel	strafen	rächen	1	acq_USunple_CSunple2_RW	acq4567_RW	4	36	400	1	300	300	350	46	0	1	1	blank2r.bmp	0	1	+	0	1	blank2r.bmp	492	1	YDDY	492	1	blank2r.bmp	572	2	strafen	866	1	!	1239	1	!	1252	0	0	0	0	0	0	0	0	0	0	0	0	0	0	0	0	0	0	0	0	0	0	0	0	0	0	0	0	0	0
071619	12:20:22	12:27:56	453400	5.0.10.0	5_exp_RW	55	Rpleas_acq	CS_B	BZZB	JXXJ	VKKV	YDDY	GWWG	MQQM	schön	fair	treu	ehrlich	spielen	retten	schlecht	faul	tot	eitel	strafen	rächen	1	acq_USpleas_CSpleas2_RW	acq4567_RW	4	37	400	1	300	300	397	46	0	0	1	blank2r.bmp	0	1	+	0	1	blank2r.bmp	492	1	JXXJ	492	1	blank2r.bmp	572	3	retten	866	1	!	1239	1	!	1292	0	0	0	0	0	0	0	0	0	0	0	0	0	0	0	0	0	0	0	0	0	0	0	0	0	0	0	0	0	0
071619	12:20:22	12:27:59	456532	5.0.10.0	5_exp_RW	55	Rpleas_acq	CS_B	BZZB	JXXJ	VKKV	YDDY	GWWG	MQQM	schön	fair	treu	ehrlich	spielen	retten	schlecht	faul	tot	eitel	strafen	rächen	1	acq_USpleas_CSpleas1_RW	acq4567_RW	4	38	400	0	300	300	1347	50	0	1	1	blank2r.bmp	0	1	+	0	1	blank2r.bmp	492	1	BZZB	492	1	blank2r.bmp	572	2	fair	866	1	!	1239	1	!	-1	0	0	0	0	0	0	0	0	0	0	0	0	0	0	0	0	0	0	0	0	0	0	0	0	0	0	0	0	0	0
071619	12:20:22	12:28:01	458811	5.0.10.0	5_exp_RW	55	Rpleas_acq	CS_B	BZZB	JXXJ	VKKV	YDDY	GWWG	MQQM	schön	fair	treu	ehrlich	spielen	retten	schlecht	faul	tot	eitel	strafen	rächen	1	acq_USpleas_CSpleas1_RW	acq4567_RW	4	39	400	0	300	300	498	50	0	1	1	blank2r.bmp	0	1	+	0	1	blank2r.bmp	492	1	BZZB	492	1	blank2r.bmp	572	3	treu	866	1	!	1239	1	!	-1	0	0	0	0	0	0	0	0	0	0	0	0	0	0	0	0	0	0	0	0	0	0	0	0	0	0	0	0	0	0
071619	12:20:22	12:28:03	461130	5.0.10.0	5_exp_RW	55	Rpleas_acq	CS_B	BZZB	JXXJ	VKKV	YDDY	GWWG	MQQM	schön	fair	treu	ehrlich	spielen	retten	schlecht	faul	tot	eitel	strafen	rächen	1	acq_USpleas_CSpleas2_RW	acq4567_RW	4	40	400	0	300	300	539	50	0	1	1	blank2r.bmp	0	1	+	0	1	blank2r.bmp	492	1	JXXJ	492	1	blank2r.bmp	572	1	ehrlich	866	1	!	1239	1	!	-1	0	0	0	0	0	0	0	0	0	0	0	0	0	0	0	0	0	0	0	0	0	0	0	0	0	0	0	0	0	0
071619	12:20:22	12:28:06	463436	5.0.10.0	5_exp_RW	55	Rpleas_acq	CS_B	BZZB	JXXJ	VKKV	YDDY	GWWG	MQQM	schön	fair	treu	ehrlich	spielen	retten	schlecht	faul	tot	eitel	strafen	rächen	1	acq_USpleas_CSpleas2_RW	acq4567_RW	4	41	400	0	300	300	527	50	0	1	1	blank2r.bmp	0	1	+	0	1	blank2r.bmp	492	1	JXXJ	492	1	blank2r.bmp	572	2	spielen	866	1	!	1239	1	!	-1	0	0	0	0	0	0	0	0	0	0	0	0	0	0	0	0	0	0	0	0	0	0	0	0	0	0	0	0	0	0
071619	12:20:22	12:28:08	465595	5.0.10.0	5_exp_RW	55	Rpleas_acq	CS_B	BZZB	JXXJ	VKKV	YDDY	GWWG	MQQM	schön	fair	treu	ehrlich	spielen	retten	schlecht	faul	tot	eitel	strafen	rächen	1	acq_USpleas_CSpleas1_RW	acq4567_RW	4	42	400	1	300	300	346	50	0	1	1	blank2r.bmp	0	1	+	0	1	blank2r.bmp	492	1	BZZB	492	1	blank2r.bmp	572	1	schön	866	1	!	1239	1	!	1252	0	0	0	0	0	0	0	0	0	0	0	0	0	0	0	0	0	0	0	0	0	0	0	0	0	0	0	0	0	0
071619	12:20:22	12:28:10	467794	5.0.10.0	5_exp_RW	55	Rpleas_acq	CS_B	BZZB	JXXJ	VKKV	YDDY	GWWG	MQQM	schön	fair	treu	ehrlich	spielen	retten	schlecht	faul	tot	eitel	strafen	rächen	1	acq_USunple_CSunple2_RW	acq4567_RW	4	43	400	1	300	300	409	46	0	1	1	blank2r.bmp	0	1	+	0	1	blank2r.bmp	492	1	YDDY	492	1	blank2r.bmp	572	3	rächen	866	1	!	1239	1	!	1306	0	0	0	0	0	0	0	0	0	0	0	0	0	0	0	0	0	0	0	0	0	0	0	0	0	0	0	0	0	0
071619	12:20:22	12:28:12	470087	5.0.10.0	5_exp_RW	55	Rpleas_acq	CS_B	BZZB	JXXJ	VKKV	YDDY	GWWG	MQQM	schön	fair	treu	ehrlich	spielen	retten	schlecht	faul	tot	eitel	strafen	rächen	1	acq_USunple_CSunple1_RW	acq4567_RW	4	44	400	0	300	300	527	50	0	0	1	blank2r.bmp	0	1	+	0	1	blank2r.bmp	492	1	VKKV	492	1	blank2r.bmp	572	1	schlecht	866	1	!	1239	1	!	-1	0	0	0	0	0	0	0	0	0	0	0	0	0	0	0	0	0	0	0	0	0	0	0	0	0	0	0	0	0	0
071619	12:20:22	12:28:15	472672	5.0.10.0	5_exp_RW	55	Rpleas_acq	CS_B	BZZB	JXXJ	VKKV	YDDY	GWWG	MQQM	schön	fair	treu	ehrlich	spielen	retten	schlecht	faul	tot	eitel	strafen	rächen	1	acq_USpleas_CSpleas2_RW	acq4567_RW	4	45	400	0	300	300	808	50	0	1	1	blank2r.bmp	0	1	+	0	1	blank2r.bmp	492	1	JXXJ	492	1	blank2r.bmp	572	3	retten	866	1	!	1239	1	!	-1	0	0	0	0	0	0	0	0	0	0	0	0	0	0	0	0	0	0	0	0	0	0	0	0	0	0	0	0	0	0
071619	12:20:22	12:28:17	474831	5.0.10.0	5_exp_RW	55	Rpleas_acq	CS_B	BZZB	JXXJ	VKKV	YDDY	GWWG	MQQM	schön	fair	treu	ehrlich	spielen	retten	schlecht	faul	tot	eitel	strafen	rächen	1	acq_USunple_CSunple2_RW	acq4567_RW	4	46	400	1	300	300	346	46	0	1	1	blank2r.bmp	0	1	+	0	1	blank2r.bmp	492	1	YDDY	492	1	blank2r.bmp	572	2	strafen	866	1	!	1239	1	!	1252	0	0	0	0	0	0	0	0	0	0	0	0	0	0	0	0	0	0	0	0	0	0	0	0	0	0	0	0	0	0
071619	12:20:22	12:28:19	476924	5.0.10.0	5_exp_RW	55	Rpleas_acq	CS_B	BZZB	JXXJ	VKKV	YDDY	GWWG	MQQM	schön	fair	treu	ehrlich	spielen	retten	schlecht	faul	tot	eitel	strafen	rächen	1	acq_USpleas_CSpleas2_RW	acq4567_RW	4	47	400	0	300	300	321	50	0	1	1	blank2r.bmp	0	1	+	0	1	blank2r.bmp	492	1	JXXJ	492	1	blank2r.bmp	572	2	spielen	866	1	!	-1	1	!	-1	0	0	0	0	0	0	0	0	0	0	0	0	0	0	0	0	0	0	0	0	0	0	0	0	0	0	0	0	0	0
071619	12:20:22	12:28:22	479230	5.0.10.0	5_exp_RW	55	Rpleas_acq	CS_B	BZZB	JXXJ	VKKV	YDDY	GWWG	MQQM	schön	fair	treu	ehrlich	spielen	retten	schlecht	faul	tot	eitel	strafen	rächen	1	acq_USunple_CSunple1_RW	acq4567_RW	4	48	400	0	300	300	521	46	0	1	1	blank2r.bmp	0	1	+	0	1	blank2r.bmp	492	1	VKKV	492	1	blank2r.bmp	572	2	faul	866	1	!	1239	1	!	-1	0	0	0	0	0	0	0	0	0	0	0	0	0	0	0	0	0	0	0	0	0	0	0	0	0	0	0	0	0	0
071619	12:20:22	12:28:24	481402	5.0.10.0	5_exp_RW	55	Rpleas_acq	CS_B	BZZB	JXXJ	VKKV	YDDY	GWWG	MQQM	schön	fair	treu	ehrlich	spielen	retten	schlecht	faul	tot	eitel	strafen	rächen	1	acq_USunple_CSunple1_RW	acq4567_RW	4	49	400	1	300	300	369	46	0	1	1	blank2r.bmp	0	1	+	0	1	blank2r.bmp	492	1	VKKV	492	1	blank2r.bmp	572	1	schlecht	866	1	!	1239	1	!	1266	0	0	0	0	0	0	0	0	0	0	0	0	0	0	0	0	0	0	0	0	0	0	0	0	0	0	0	0	0	0
071619	12:20:22	12:28:26	483575	5.0.10.0	5_exp_RW	55	Rpleas_acq	CS_B	BZZB	JXXJ	VKKV	YDDY	GWWG	MQQM	schön	fair	treu	ehrlich	spielen	retten	schlecht	faul	tot	eitel	strafen	rächen	1	acq_USpleas_CSpleas1_RW	acq4567_RW	4	50	400	1	300	300	370	50	0	1	1	blank2r.bmp	0	1	+	0	1	blank2r.bmp	492	1	BZZB	492	1	blank2r.bmp	572	1	schön	866	1	!	1239	1	!	1266	0	0	0	0	0	0	0	0	0	0	0	0	0	0	0	0	0	0	0	0	0	0	0	0	0	0	0	0	0	0
071619	12:20:22	12:28:28	485814	5.0.10.0	5_exp_RW	55	Rpleas_acq	CS_B	BZZB	JXXJ	VKKV	YDDY	GWWG	MQQM	schön	fair	treu	ehrlich	spielen	retten	schlecht	faul	tot	eitel	strafen	rächen	1	acq_USunple_CSunple2_RW	acq4567_RW	4	51	400	1	300	300	452	46	0	1	1	blank2r.bmp	0	1	+	0	1	blank2r.bmp	492	1	YDDY	492	1	blank2r.bmp	572	3	rächen	866	1	!	1239	1	!	1346	0	0	0	0	0	0	0	0	0	0	0	0	0	0	0	0	0	0	0	0	0	0	0	0	0	0	0	0	0	0
071619	12:20:22	12:28:30	488066	5.0.10.0	5_exp_RW	55	Rpleas_acq	CS_B	BZZB	JXXJ	VKKV	YDDY	GWWG	MQQM	schön	fair	treu	ehrlich	spielen	retten	schlecht	faul	tot	eitel	strafen	rächen	1	acq_USpleas_CSpleas1_RW	acq4567_RW	4	52	400	0	300	300	482	50	0	1	1	blank2r.bmp	0	1	+	0	1	blank2r.bmp	492	1	BZZB	492	1	blank2r.bmp	572	2	fair	866	1	!	1239	1	!	-1	0	0	0	0	0	0	0	0	0	0	0	0	0	0	0	0	0	0	0	0	0	0	0	0	0	0	0	0	0	0
071619	12:20:22	12:28:33	490319	5.0.10.0	5_exp_RW	55	Rpleas_acq	CS_B	BZZB	JXXJ	VKKV	YDDY	GWWG	MQQM	schön	fair	treu	ehrlich	spielen	retten	schlecht	faul	tot	eitel	strafen	rächen	1	acq_USpleas_CSpleas2_RW	acq4567_RW	4	53	400	1	300	300	432	50	0	1	1	blank2r.bmp	0	1	+	0	1	blank2r.bmp	492	1	JXXJ	492	1	blank2r.bmp	572	1	ehrlich	866	1	!	1239	1	!	1332	0	0	0	0	0	0	0	0	0	0	0	0	0	0	0	0	0	0	0	0	0	0	0	0	0	0	0	0	0	0
071619	12:20:22	12:28:35	492464	5.0.10.0	5_exp_RW	55	Rpleas_acq	CS_B	BZZB	JXXJ	VKKV	YDDY	GWWG	MQQM	schön	fair	treu	ehrlich	spielen	retten	schlecht	faul	tot	eitel	strafen	rächen	1	acq_USpleas_CSpleas1_RW	acq4567_RW	4	54	400	1	300	300	346	50	0	1	1	blank2r.bmp	0	1	+	0	1	blank2r.bmp	492	1	BZZB	492	1	blank2r.bmp	572	3	treu	866	1	!	1239	1	!	1252	0	0	0	0	0	0	0	0	0	0	0	0	0	0	0	0	0	0	0	0	0	0	0	0	0	0	0	0	0	0
071619	12:20:22	12:28:37	494717	5.0.10.0	5_exp_RW	55	Rpleas_acq	CS_B	BZZB	JXXJ	VKKV	YDDY	GWWG	MQQM	schön	fair	treu	ehrlich	spielen	retten	schlecht	faul	tot	eitel	strafen	rächen	1	acq_USunple_CSunple2_RW	acq4567_RW	4	55	400	0	300	300	481	50	0	0	1	blank2r.bmp	0	1	+	0	1	blank2r.bmp	492	1	YDDY	492	1	blank2r.bmp	572	1	eitel	866	1	!	1239	1	!	-1	0	0	0	0	0	0	0	0	0	0	0	0	0	0	0	0	0	0	0	0	0	0	0	0	0	0	0	0	0	0
071619	12:20:22	12:28:39	496902	5.0.10.0	5_exp_RW	55	Rpleas_acq	CS_B	BZZB	JXXJ	VKKV	YDDY	GWWG	MQQM	schön	fair	treu	ehrlich	spielen	retten	schlecht	faul	tot	eitel	strafen	rächen	1	acq_USunple_CSunple2_RW	acq4567_RW	4	56	400	1	300	300	379	46	0	1	1	blank2r.bmp	0	1	+	0	1	blank2r.bmp	492	1	YDDY	492	1	blank2r.bmp	572	3	rächen	866	1	!	1239	1	!	1279	0	0	0	0	0	0	0	0	0	0	0	0	0	0	0	0	0	0	0	0	0	0	0	0	0	0	0	0	0	0
071619	12:20:22	12:28:41	499102	5.0.10.0	5_exp_RW	55	Rpleas_acq	CS_B	BZZB	JXXJ	VKKV	YDDY	GWWG	MQQM	schön	fair	treu	ehrlich	spielen	retten	schlecht	faul	tot	eitel	strafen	rächen	1	acq_USpleas_CSpleas1_RW	acq4567_RW	4	57	400	1	300	300	410	50	0	1	1	blank2r.bmp	0	1	+	0	1	blank2r.bmp	492	1	BZZB	492	1	blank2r.bmp	572	3	treu	866	1	!	1239	1	!	1306	0	0	0	0	0	0	0	0	0	0	0	0	0	0	0	0	0	0	0	0	0	0	0	0	0	0	0	0	0	0
071619	12:20:22	12:28:44	501287	5.0.10.0	5_exp_RW	55	Rpleas_acq	CS_B	BZZB	JXXJ	VKKV	YDDY	GWWG	MQQM	schön	fair	treu	ehrlich	spielen	retten	schlecht	faul	tot	eitel	strafen	rächen	1	acq_USpleas_CSpleas2_RW	acq4567_RW	4	58	400	1	300	300	388	50	0	1	1	blank2r.bmp	0	1	+	0	1	blank2r.bmp	492	1	JXXJ	492	1	blank2r.bmp	572	2	spielen	866	1	!	1239	1	!	1292	0	0	0	0	0	0	0	0	0	0	0	0	0	0	0	0	0	0	0	0	0	0	0	0	0	0	0	0	0	0
071619	12:20:22	12:28:46	503473	5.0.10.0	5_exp_RW	55	Rpleas_acq	CS_B	BZZB	JXXJ	VKKV	YDDY	GWWG	MQQM	schön	fair	treu	ehrlich	spielen	retten	schlecht	faul	tot	eitel	strafen	rächen	1	acq_USunple_CSunple1_RW	acq4567_RW	4	59	400	1	300	300	387	46	0	1	1	blank2r.bmp	0	1	+	0	1	blank2r.bmp	492	1	VKKV	492	1	blank2r.bmp	572	3	tot	866	1	!	1239	1	!	1292	0	0	0	0	0	0	0	0	0	0	0	0	0	0	0	0	0	0	0	0	0	0	0	0	0	0	0	0	0	0
071619	12:20:22	12:28:48	505739	5.0.10.0	5_exp_RW	55	Rpleas_acq	CS_B	BZZB	JXXJ	VKKV	YDDY	GWWG	MQQM	schön	fair	treu	ehrlich	spielen	retten	schlecht	faul	tot	eitel	strafen	rächen	1	acq_USunple_CSunple1_RW	acq4567_RW	4	60	400	0	300	300	501	46	0	1	1	blank2r.bmp	0	1	+	0	1	blank2r.bmp	492	1	VKKV	492	1	blank2r.bmp	572	1	schlecht	866	1	!	1239	1	!	-1	0	0	0	0	0	0	0	0	0	0	0	0	0	0	0	0	0	0	0	0	0	0	0	0	0	0	0	0	0	0
071619	12:20:22	12:28:50	507911	5.0.10.0	5_exp_RW	55	Rpleas_acq	CS_B	BZZB	JXXJ	VKKV	YDDY	GWWG	MQQM	schön	fair	treu	ehrlich	spielen	retten	schlecht	faul	tot	eitel	strafen	rächen	1	acq_USunple_CSunple1_RW	acq4567_RW	4	61	400	1	300	300	349	46	0	1	1	blank2r.bmp	0	1	+	0	1	blank2r.bmp	492	1	VKKV	492	1	blank2r.bmp	572	2	faul	866	1	!	1239	1	!	1252	0	0	0	0	0	0	0	0	0	0	0	0	0	0	0	0	0	0	0	0	0	0	0	0	0	0	0	0	0	0
071619	12:20:22	12:28:52	510097	5.0.10.0	5_exp_RW	55	Rpleas_acq	CS_B	BZZB	JXXJ	VKKV	YDDY	GWWG	MQQM	schön	fair	treu	ehrlich	spielen	retten	schlecht	faul	tot	eitel	strafen	rächen	1	acq_USpleas_CSpleas1_RW	acq4567_RW	4	62	400	1	300	300	392	50	0	1	1	blank2r.bmp	0	1	+	0	1	blank2r.bmp	492	1	BZZB	492	1	blank2r.bmp	572	1	schön	866	1	!	1239	1	!	1292	0	0	0	0	0	0	0	0	0	0	0	0	0	0	0	0	0	0	0	0	0	0	0	0	0	0	0	0	0	0
071619	12:20:22	12:28:55	512429	5.0.10.0	5_exp_RW	55	Rpleas_acq	CS_B	BZZB	JXXJ	VKKV	YDDY	GWWG	MQQM	schön	fair	treu	ehrlich	spielen	retten	schlecht	faul	tot	eitel	strafen	rächen	1	acq_USpleas_CSpleas2_RW	acq4567_RW	4	63	400	0	300	300	559	50	0	1	1	blank2r.bmp	0	1	+	0	1	blank2r.bmp	492	1	JXXJ	492	1	blank2r.bmp	572	1	ehrlich	866	1	!	1239	1	!	-1	0	0	0	0	0	0	0	0	0	0	0	0	0	0	0	0	0	0	0	0	0	0	0	0	0	0	0	0	0	0
071619	12:20:22	12:28:57	514695	5.0.10.0	5_exp_RW	55	Rpleas_acq	CS_B	BZZB	JXXJ	VKKV	YDDY	GWWG	MQQM	schön	fair	treu	ehrlich	spielen	retten	schlecht	faul	tot	eitel	strafen	rächen	1	acq_USpleas_CSpleas1_RW	acq4567_RW	4	64	400	1	300	300	454	50	0	1	1	blank2r.bmp	0	1	+	0	1	blank2r.bmp	492	1	BZZB	492	1	blank2r.bmp	572	2	fair	866	1	!	1239	1	!	1359	0	0	0	0	0	0	0	0	0	0	0	0	0	0	0	0	0	0	0	0	0	0	0	0	0	0	0	0	0	0
071619	12:20:22	12:28:59	517028	5.0.10.0	5_exp_RW	55	Rpleas_acq	CS_B	BZZB	JXXJ	VKKV	YDDY	GWWG	MQQM	schön	fair	treu	ehrlich	spielen	retten	schlecht	faul	tot	eitel	strafen	rächen	1	acq_USpleas_CSpleas2_RW	acq4567_RW	4	65	400	0	300	300	571	50	0	1	1	blank2r.bmp	0	1	+	0	1	blank2r.bmp	492	1	JXXJ	492	1	blank2r.bmp	572	3	retten	866	1	!	1239	1	!	-1	0	0	0	0	0	0	0	0	0	0	0	0	0	0	0	0	0	0	0	0	0	0	0	0	0	0	0	0	0	0
071619	12:20:22	12:29:02	519307	5.0.10.0	5_exp_RW	55	Rpleas_acq	CS_B	BZZB	JXXJ	VKKV	YDDY	GWWG	MQQM	schön	fair	treu	ehrlich	spielen	retten	schlecht	faul	tot	eitel	strafen	rächen	1	acq_USpleas_CSpleas2_RW	acq4567_RW	4	66	400	0	300	300	500	50	0	1	1	blank2r.bmp	0	1	+	0	1	blank2r.bmp	492	1	JXXJ	492	1	blank2r.bmp	572	1	ehrlich	866	1	!	1239	1	!	-1	0	0	0	0	0	0	0	0	0	0	0	0	0	0	0	0	0	0	0	0	0	0	0	0	0	0	0	0	0	0
071619	12:20:22	12:29:04	521466	5.0.10.0	5_exp_RW	55	Rpleas_acq	CS_B	BZZB	JXXJ	VKKV	YDDY	GWWG	MQQM	schön	fair	treu	ehrlich	spielen	retten	schlecht	faul	tot	eitel	strafen	rächen	1	acq_USunple_CSunple2_RW	acq4567_RW	4	67	400	1	300	300	347	46	0	1	1	blank2r.bmp	0	1	+	0	1	blank2r.bmp	492	1	YDDY	492	1	blank2r.bmp	572	1	eitel	866	1	!	1239	1	!	1252	0	0	0	0	0	0	0	0	0	0	0	0	0	0	0	0	0	0	0	0	0	0	0	0	0	0	0	0	0	0
071619	12:20:22	12:29:06	523811	5.0.10.0	5_exp_RW	55	Rpleas_acq	CS_B	BZZB	JXXJ	VKKV	YDDY	GWWG	MQQM	schön	fair	treu	ehrlich	spielen	retten	schlecht	faul	tot	eitel	strafen	rächen	1	acq_USpleas_CSpleas1_RW	acq4567_RW	4	68	400	0	300	300	577	50	0	1	1	blank2r.bmp	0	1	+	0	1	blank2r.bmp	492	1	BZZB	492	1	blank2r.bmp	572	3	treu	866	1	!	1239	1	!	-1	0	0	0	0	0	0	0	0	0	0	0	0	0	0	0	0	0	0	0	0	0	0	0	0	0	0	0	0	0	0
071619	12:20:22	12:29:08	526077	5.0.10.0	5_exp_RW	55	Rpleas_acq	CS_B	BZZB	JXXJ	VKKV	YDDY	GWWG	MQQM	schön	fair	treu	ehrlich	spielen	retten	schlecht	faul	tot	eitel	strafen	rächen	1	acq_USunple_CSunple1_RW	acq4567_RW	4	69	400	1	300	300	455	46	0	1	1	blank2r.bmp	0	1	+	0	1	blank2r.bmp	492	1	VKKV	492	1	blank2r.bmp	572	3	tot	866	1	!	1239	1	!	1359	0	0	0	0	0	0	0	0	0	0	0	0	0	0	0	0	0	0	0	0	0	0	0	0	0	0	0	0	0	0
071619	12:20:22	12:29:11	528330	5.0.10.0	5_exp_RW	55	Rpleas_acq	CS_B	BZZB	JXXJ	VKKV	YDDY	GWWG	MQQM	schön	fair	treu	ehrlich	spielen	retten	schlecht	faul	tot	eitel	strafen	rächen	1	acq_USunple_CSunple1_RW	acq4567_RW	4	70	400	1	300	300	462	46	0	1	1	blank2r.bmp	0	1	+	0	1	blank2r.bmp	492	1	VKKV	492	1	blank2r.bmp	572	1	schlecht	866	1	!	1239	1	!	1359	0	0	0	0	0	0	0	0	0	0	0	0	0	0	0	0	0	0	0	0	0	0	0	0	0	0	0	0	0	0
071619	12:20:22	12:29:13	530542	5.0.10.0	5_exp_RW	55	Rpleas_acq	CS_B	BZZB	JXXJ	VKKV	YDDY	GWWG	MQQM	schön	fair	treu	ehrlich	spielen	retten	schlecht	faul	tot	eitel	strafen	rächen	1	acq_USunple_CSunple2_RW	acq4567_RW	4	71	400	1	300	300	417	46	0	1	1	blank2r.bmp	0	1	+	0	1	blank2r.bmp	492	1	YDDY	492	1	blank2r.bmp	572	2	strafen	866	1	!	1239	1	!	1319	0	0	0	0	0	0	0	0	0	0	0	0	0	0	0	0	0	0	0	0	0	0	0	0	0	0	0	0	0	0
071619	12:20:22	12:29:15	532754	5.0.10.0	5_exp_RW	55	Rpleas_acq	CS_B	BZZB	JXXJ	VKKV	YDDY	GWWG	MQQM	schön	fair	treu	ehrlich	spielen	retten	schlecht	faul	tot	eitel	strafen	rächen	1	acq_USunple_CSunple1_RW	acq4567_RW	4	72	400	1	300	300	408	46	0	1	1	blank2r.bmp	0	1	+	0	1	blank2r.bmp	492	1	VKKV	492	1	blank2r.bmp	572	2	faul	866	1	!	1239	1	!	1306	0	0	0	0	0	0	0	0	0	0	0	0	0	0	0	0	0	0	0	0	0	0	0	0	0	0	0	0	0	0
071619	12:20:22	12:29:17	535074	5.0.10.0	5_exp_RW	55	Rpleas_acq	CS_B	BZZB	JXXJ	VKKV	YDDY	GWWG	MQQM	schön	fair	treu	ehrlich	spielen	retten	schlecht	faul	tot	eitel	strafen	rächen	1	acq_USunple_CSunple2_RW	acq4567_RW	4	73	400	0	300	300	553	46	0	1	1	blank2r.bmp	0	1	+	0	1	blank2r.bmp	492	1	YDDY	492	1	blank2r.bmp	572	1	eitel	866	1	!	1239	1	!	-1	0	0	0	0	0	0	0	0	0	0	0	0	0	0	0	0	0	0	0	0	0	0	0	0	0	0	0	0	0	0
071619	12:20:22	12:29:20	537313	5.0.10.0	5_exp_RW	55	Rpleas_acq	CS_B	BZZB	JXXJ	VKKV	YDDY	GWWG	MQQM	schön	fair	treu	ehrlich	spielen	retten	schlecht	faul	tot	eitel	strafen	rächen	1	acq_USunple_CSunple2_RW	acq4567_RW	4	74	400	1	300	300	434	46	0	1	1	blank2r.bmp	0	1	+	0	1	blank2r.bmp	492	1	YDDY	492	1	blank2r.bmp	572	2	strafen	866	1	!	1239	1	!	1332	0	0	0	0	0	0	0	0	0	0	0	0	0	0	0	0	0	0	0	0	0	0	0	0	0	0	0	0	0	0
071619	12:20:22	12:29:22	539485	5.0.10.0	5_exp_RW	55	Rpleas_acq	CS_B	BZZB	JXXJ	VKKV	YDDY	GWWG	MQQM	schön	fair	treu	ehrlich	spielen	retten	schlecht	faul	tot	eitel	strafen	rächen	1	acq_USunple_CSunple2_RW	acq4567_RW	4	75	400	1	300	300	368	46	0	1	1	blank2r.bmp	0	1	+	0	1	blank2r.bmp	492	1	YDDY	492	1	blank2r.bmp	572	3	rächen	866	1	!	1239	1	!	1266	0	0	0	0	0	0	0	0	0	0	0	0	0	0	0	0	0	0	0	0	0	0	0	0	0	0	0	0	0	0
071619	12:20:22	12:29:24	541764	5.0.10.0	5_exp_RW	55	Rpleas_acq	CS_B	BZZB	JXXJ	VKKV	YDDY	GWWG	MQQM	schön	fair	treu	ehrlich	spielen	retten	schlecht	faul	tot	eitel	strafen	rächen	1	acq_USpleas_CSpleas2_RW	acq4567_RW	4	76	400	0	300	300	511	50	0	1	1	blank2r.bmp	0	1	+	0	1	blank2r.bmp	492	1	JXXJ	492	1	blank2r.bmp	572	2	spielen	866	1	!	1239	1	!	-1	0	0	0	0	0	0	0	0	0	0	0	0	0	0	0	0	0	0	0	0	0	0	0	0	0	0	0	0	0	0
071619	12:20:22	12:29:26	543883	5.0.10.0	5_exp_RW	55	Rpleas_acq	CS_B	BZZB	JXXJ	VKKV	YDDY	GWWG	MQQM	schön	fair	treu	ehrlich	spielen	retten	schlecht	faul	tot	eitel	strafen	rächen	1	acq_USpleas_CSpleas1_RW	acq4567_RW	4	77	400	0	300	300	333	50	0	1	1	blank2r.bmp	0	1	+	0	1	blank2r.bmp	492	1	BZZB	492	1	blank2r.bmp	572	1	schön	866	1	!	-1	1	!	-1	0	0	0	0	0	0	0	0	0	0	0	0	0	0	0	0	0	0	0	0	0	0	0	0	0	0	0	0	0	0
071619	12:20:22	12:29:29	546149	5.0.10.0	5_exp_RW	55	Rpleas_acq	CS_B	BZZB	JXXJ	VKKV	YDDY	GWWG	MQQM	schön	fair	treu	ehrlich	spielen	retten	schlecht	faul	tot	eitel	strafen	rächen	1	acq_USunple_CSunple1_RW	acq4567_RW	4	78	400	1	300	300	440	46	0	1	1	blank2r.bmp	0	1	+	0	1	blank2r.bmp	492	1	VKKV	492	1	blank2r.bmp	572	3	tot	866	1	!	1239	1	!	1346	0	0	0	0	0	0	0	0	0	0	0	0	0	0	0	0	0	0	0	0	0	0	0	0	0	0	0	0	0	0
071619	12:20:22	12:29:31	548401	5.0.10.0	5_exp_RW	55	Rpleas_acq	CS_B	BZZB	JXXJ	VKKV	YDDY	GWWG	MQQM	schön	fair	treu	ehrlich	spielen	retten	schlecht	faul	tot	eitel	strafen	rächen	1	acq_USpleas_CSpleas1_RW	acq4567_RW	4	79	400	0	300	300	488	50	0	1	1	blank2r.bmp	0	1	+	0	1	blank2r.bmp	492	1	BZZB	492	1	blank2r.bmp	572	2	fair	866	1	!	1239	1	!	-1	0	0	0	0	0	0	0	0	0	0	0	0	0	0	0	0	0	0	0	0	0	0	0	0	0	0	0	0	0	0
071619	12:20:22	12:29:33	550667	5.0.10.0	5_exp_RW	55	Rpleas_acq	CS_B	BZZB	JXXJ	VKKV	YDDY	GWWG	MQQM	schön	fair	treu	ehrlich	spielen	retten	schlecht	faul	tot	eitel	strafen	rächen	1	acq_USpleas_CSpleas2_RW	acq4567_RW	4	80	400	0	300	300	484	50	0	1	1	blank2r.bmp	0	1	+	0	1	blank2r.bmp	492	1	JXXJ	492	1	blank2r.bmp	572	3	retten	866	1	!	1239	1	!	-1	0	0	0	0	0	0	0	0	0	0	0	0	0	0	0	0	0	0	0	0	0	0	0	0	0	0	0	0	0	0
071619	12:20:22	12:29:50	567554	5.0.10.0	5_exp_RW	55	Rpleas_acq	CS_B	BZZB	JXXJ	VKKV	YDDY	GWWG	MQQM	schön	fair	treu	ehrlich	spielen	retten	schlecht	faul	tot	eitel	strafen	rächen	1	acq_USunple_CSunple1_RW	acq4567_RW	5	1	400	1	300	300	402	46	0	1	1	blank2r.bmp	0	1	+	0	1	blank2r.bmp	492	1	VKKV	492	1	blank2r.bmp	572	3	tot	866	1	!	1239	1	!	1306	0	0	0	0	0	0	0	0	0	0	0	0	0	0	0	0	0	0	0	0	0	0	0	0	0	0	0	0	0	0
071619	12:20:22	12:29:52	569766	5.0.10.0	5_exp_RW	55	Rpleas_acq	CS_B	BZZB	JXXJ	VKKV	YDDY	GWWG	MQQM	schön	fair	treu	ehrlich	spielen	retten	schlecht	faul	tot	eitel	strafen	rächen	1	acq_USpleas_CSpleas1_RW	acq4567_RW	5	2	400	1	300	300	423	50	0	1	1	blank2r.bmp	0	1	+	0	1	blank2r.bmp	492	1	BZZB	492	1	blank2r.bmp	572	3	treu	866	1	!	1239	1	!	1319	0	0	0	0	0	0	0	0	0	0	0	0	0	0	0	0	0	0	0	0	0	0	0	0	0	0	0	0	0	0
071619	12:20:22	12:29:54	572032	5.0.10.0	5_exp_RW	55	Rpleas_acq	CS_B	BZZB	JXXJ	VKKV	YDDY	GWWG	MQQM	schön	fair	treu	ehrlich	spielen	retten	schlecht	faul	tot	eitel	strafen	rächen	1	acq_USunple_CSunple2_RW	acq4567_RW	5	3	400	0	300	300	501	46	0	1	1	blank2r.bmp	0	1	+	0	1	blank2r.bmp	492	1	YDDY	492	1	blank2r.bmp	572	3	rächen	866	1	!	1239	1	!	-1	0	0	0	0	0	0	0	0	0	0	0	0	0	0	0	0	0	0	0	0	0	0	0	0	0	0	0	0	0	0
071619	12:20:22	12:29:57	574297	5.0.10.0	5_exp_RW	55	Rpleas_acq	CS_B	BZZB	JXXJ	VKKV	YDDY	GWWG	MQQM	schön	fair	treu	ehrlich	spielen	retten	schlecht	faul	tot	eitel	strafen	rächen	1	acq_USunple_CSunple2_RW	acq4567_RW	5	4	400	0	300	300	479	46	0	1	1	blank2r.bmp	0	1	+	0	1	blank2r.bmp	492	1	YDDY	492	1	blank2r.bmp	572	2	strafen	866	1	!	1239	1	!	-1	0	0	0	0	0	0	0	0	0	0	0	0	0	0	0	0	0	0	0	0	0	0	0	0	0	0	0	0	0	0
071619	12:20:22	12:29:59	576377	5.0.10.0	5_exp_RW	55	Rpleas_acq	CS_B	BZZB	JXXJ	VKKV	YDDY	GWWG	MQQM	schön	fair	treu	ehrlich	spielen	retten	schlecht	faul	tot	eitel	strafen	rächen	1	acq_USunple_CSunple1_RW	acq4567_RW	5	5	400	0	300	300	293	46	0	1	1	blank2r.bmp	0	1	+	0	1	blank2r.bmp	492	1	VKKV	492	1	blank2r.bmp	572	1	schlecht	866	1	!	-1	1	!	-1	0	0	0	0	0	0	0	0	0	0	0	0	0	0	0	0	0	0	0	0	0	0	0	0	0	0	0	0	0	0
071619	12:20:22	12:30:01	578656	5.0.10.0	5_exp_RW	55	Rpleas_acq	CS_B	BZZB	JXXJ	VKKV	YDDY	GWWG	MQQM	schön	fair	treu	ehrlich	spielen	retten	schlecht	faul	tot	eitel	strafen	rächen	1	acq_USpleas_CSpleas1_RW	acq4567_RW	5	6	400	1	300	300	455	50	0	1	1	blank2r.bmp	0	1	+	0	1	blank2r.bmp	492	1	BZZB	492	1	blank2r.bmp	572	1	schön	866	1	!	1239	1	!	1359	0	0	0	0	0	0	0	0	0	0	0	0	0	0	0	0	0	0	0	0	0	0	0	0	0	0	0	0	0	0
071619	12:20:22	12:30:03	580988	5.0.10.0	5_exp_RW	55	Rpleas_acq	CS_B	BZZB	JXXJ	VKKV	YDDY	GWWG	MQQM	schön	fair	treu	ehrlich	spielen	retten	schlecht	faul	tot	eitel	strafen	rächen	1	acq_USunple_CSunple2_RW	acq4567_RW	5	7	400	0	300	300	568	46	0	1	1	blank2r.bmp	0	1	+	0	1	blank2r.bmp	492	1	YDDY	492	1	blank2r.bmp	572	1	eitel	866	1	!	1239	1	!	-1	0	0	0	0	0	0	0	0	0	0	0	0	0	0	0	0	0	0	0	0	0	0	0	0	0	0	0	0	0	0
071619	12:20:22	12:30:06	583254	5.0.10.0	5_exp_RW	55	Rpleas_acq	CS_B	BZZB	JXXJ	VKKV	YDDY	GWWG	MQQM	schön	fair	treu	ehrlich	spielen	retten	schlecht	faul	tot	eitel	strafen	rächen	1	acq_USpleas_CSpleas2_RW	acq4567_RW	5	8	400	0	300	300	486	50	0	1	1	blank2r.bmp	0	1	+	0	1	blank2r.bmp	492	1	JXXJ	492	1	blank2r.bmp	572	3	retten	866	1	!	1239	1	!	-1	0	0	0	0	0	0	0	0	0	0	0	0	0	0	0	0	0	0	0	0	0	0	0	0	0	0	0	0	0	0
071619	12:20:22	12:30:08	585520	5.0.10.0	5_exp_RW	55	Rpleas_acq	CS_B	BZZB	JXXJ	VKKV	YDDY	GWWG	MQQM	schön	fair	treu	ehrlich	spielen	retten	schlecht	faul	tot	eitel	strafen	rächen	1	acq_USpleas_CSpleas1_RW	acq4567_RW	5	9	400	0	300	300	489	46	0	0	1	blank2r.bmp	0	1	+	0	1	blank2r.bmp	492	1	BZZB	492	1	blank2r.bmp	572	2	fair	866	1	!	1239	1	!	-1	0	0	0	0	0	0	0	0	0	0	0	0	0	0	0	0	0	0	0	0	0	0	0	0	0	0	0	0	0	0
071619	12:20:22	12:30:10	587679	5.0.10.0	5_exp_RW	55	Rpleas_acq	CS_B	BZZB	JXXJ	VKKV	YDDY	GWWG	MQQM	schön	fair	treu	ehrlich	spielen	retten	schlecht	faul	tot	eitel	strafen	rächen	1	acq_USpleas_CSpleas1_RW	acq4567_RW	5	10	400	1	300	300	350	50	0	1	1	blank2r.bmp	0	1	+	0	1	blank2r.bmp	492	1	BZZB	492	1	blank2r.bmp	572	2	fair	866	1	!	1239	1	!	1252	0	0	0	0	0	0	0	0	0	0	0	0	0	0	0	0	0	0	0	0	0	0	0	0	0	0	0	0	0	0
071619	12:20:22	12:30:12	589891	5.0.10.0	5_exp_RW	55	Rpleas_acq	CS_B	BZZB	JXXJ	VKKV	YDDY	GWWG	MQQM	schön	fair	treu	ehrlich	spielen	retten	schlecht	faul	tot	eitel	strafen	rächen	1	acq_USunple_CSunple1_RW	acq4567_RW	5	11	400	1	300	300	422	46	0	1	1	blank2r.bmp	0	1	+	0	1	blank2r.bmp	492	1	VKKV	492	1	blank2r.bmp	572	2	faul	866	1	!	1239	1	!	1319	0	0	0	0	0	0	0	0	0	0	0	0	0	0	0	0	0	0	0	0	0	0	0	0	0	0	0	0	0	0
071619	12:20:22	12:30:14	592077	5.0.10.0	5_exp_RW	55	Rpleas_acq	CS_B	BZZB	JXXJ	VKKV	YDDY	GWWG	MQQM	schön	fair	treu	ehrlich	spielen	retten	schlecht	faul	tot	eitel	strafen	rächen	1	acq_USunple_CSunple1_RW	acq4567_RW	5	12	400	1	300	300	393	46	0	1	1	blank2r.bmp	0	1	+	0	1	blank2r.bmp	492	1	VKKV	492	1	blank2r.bmp	572	1	schlecht	866	1	!	1239	1	!	1292	0	0	0	0	0	0	0	0	0	0	0	0	0	0	0	0	0	0	0	0	0	0	0	0	0	0	0	0	0	0
071619	12:20:22	12:30:17	594236	5.0.10.0	5_exp_RW	55	Rpleas_acq	CS_B	BZZB	JXXJ	VKKV	YDDY	GWWG	MQQM	schön	fair	treu	ehrlich	spielen	retten	schlecht	faul	tot	eitel	strafen	rächen	1	acq_USunple_CSunple2_RW	acq4567_RW	5	13	400	1	300	300	371	50	0	0	1	blank2r.bmp	0	1	+	0	1	blank2r.bmp	492	1	YDDY	492	1	blank2r.bmp	572	3	rächen	866	1	!	1239	1	!	1266	0	0	0	0	0	0	0	0	0	0	0	0	0	0	0	0	0	0	0	0	0	0	0	0	0	0	0	0	0	0
071619	12:20:22	12:30:19	596395	5.0.10.0	5_exp_RW	55	Rpleas_acq	CS_B	BZZB	JXXJ	VKKV	YDDY	GWWG	MQQM	schön	fair	treu	ehrlich	spielen	retten	schlecht	faul	tot	eitel	strafen	rächen	1	acq_USpleas_CSpleas1_RW	acq4567_RW	5	14	400	1	300	300	354	50	0	1	1	blank2r.bmp	0	1	+	0	1	blank2r.bmp	492	1	BZZB	492	1	blank2r.bmp	572	3	treu	866	1	!	1239	1	!	1252	0	0	0	0	0	0	0	0	0	0	0	0	0	0	0	0	0	0	0	0	0	0	0	0	0	0	0	0	0	0
071619	12:20:22	12:30:21	598581	5.0.10.0	5_exp_RW	55	Rpleas_acq	CS_B	BZZB	JXXJ	VKKV	YDDY	GWWG	MQQM	schön	fair	treu	ehrlich	spielen	retten	schlecht	faul	tot	eitel	strafen	rächen	1	acq_USunple_CSunple1_RW	acq4567_RW	5	15	400	1	300	300	393	46	0	1	1	blank2r.bmp	0	1	+	0	1	blank2r.bmp	492	1	VKKV	492	1	blank2r.bmp	572	3	tot	866	1	!	1239	1	!	1292	0	0	0	0	0	0	0	0	0	0	0	0	0	0	0	0	0	0	0	0	0	0	0	0	0	0	0	0	0	0
071619	12:20:22	12:30:23	600793	5.0.10.0	5_exp_RW	55	Rpleas_acq	CS_B	BZZB	JXXJ	VKKV	YDDY	GWWG	MQQM	schön	fair	treu	ehrlich	spielen	retten	schlecht	faul	tot	eitel	strafen	rächen	1	acq_USpleas_CSpleas2_RW	acq4567_RW	5	16	400	1	300	300	415	50	0	1	1	blank2r.bmp	0	1	+	0	1	blank2r.bmp	492	1	JXXJ	492	1	blank2r.bmp	572	1	ehrlich	866	1	!	1239	1	!	1319	0	0	0	0	0	0	0	0	0	0	0	0	0	0	0	0	0	0	0	0	0	0	0	0	0	0	0	0	0	0
071619	12:20:22	12:30:25	603032	5.0.10.0	5_exp_RW	55	Rpleas_acq	CS_B	BZZB	JXXJ	VKKV	YDDY	GWWG	MQQM	schön	fair	treu	ehrlich	spielen	retten	schlecht	faul	tot	eitel	strafen	rächen	1	acq_USpleas_CSpleas2_RW	acq4567_RW	5	17	400	1	300	300	440	50	0	1	1	blank2r.bmp	0	1	+	0	1	blank2r.bmp	492	1	JXXJ	492	1	blank2r.bmp	572	2	spielen	866	1	!	1239	1	!	1346	0	0	0	0	0	0	0	0	0	0	0	0	0	0	0	0	0	0	0	0	0	0	0	0	0	0	0	0	0	0
071619	12:20:22	12:30:28	605191	5.0.10.0	5_exp_RW	55	Rpleas_acq	CS_B	BZZB	JXXJ	VKKV	YDDY	GWWG	MQQM	schön	fair	treu	ehrlich	spielen	retten	schlecht	faul	tot	eitel	strafen	rächen	1	acq_USunple_CSunple2_RW	acq4567_RW	5	18	400	1	300	300	360	46	0	1	1	blank2r.bmp	0	1	+	0	1	blank2r.bmp	492	1	YDDY	492	1	blank2r.bmp	572	2	strafen	866	1	!	1239	1	!	1266	0	0	0	0	0	0	0	0	0	0	0	0	0	0	0	0	0	0	0	0	0	0	0	0	0	0	0	0	0	0
071619	12:20:22	12:30:30	607417	5.0.10.0	5_exp_RW	55	Rpleas_acq	CS_B	BZZB	JXXJ	VKKV	YDDY	GWWG	MQQM	schön	fair	treu	ehrlich	spielen	retten	schlecht	faul	tot	eitel	strafen	rächen	1	acq_USpleas_CSpleas2_RW	acq4567_RW	5	19	400	1	300	300	425	50	0	1	1	blank2r.bmp	0	1	+	0	1	blank2r.bmp	492	1	JXXJ	492	1	blank2r.bmp	572	2	spielen	866	1	!	1239	1	!	1332	0	0	0	0	0	0	0	0	0	0	0	0	0	0	0	0	0	0	0	0	0	0	0	0	0	0	0	0	0	0
071619	12:20:22	12:30:32	609736	5.0.10.0	5_exp_RW	55	Rpleas_acq	CS_B	BZZB	JXXJ	VKKV	YDDY	GWWG	MQQM	schön	fair	treu	ehrlich	spielen	retten	schlecht	faul	tot	eitel	strafen	rächen	1	acq_USpleas_CSpleas2_RW	acq4567_RW	5	20	400	0	300	300	537	50	0	1	1	blank2r.bmp	0	1	+	0	1	blank2r.bmp	492	1	JXXJ	492	1	blank2r.bmp	572	3	retten	866	1	!	1239	1	!	-1	0	0	0	0	0	0	0	0	0	0	0	0	0	0	0	0	0	0	0	0	0	0	0	0	0	0	0	0	0	0
071619	12:20:22	12:30:34	611895	5.0.10.0	5_exp_RW	55	Rpleas_acq	CS_B	BZZB	JXXJ	VKKV	YDDY	GWWG	MQQM	schön	fair	treu	ehrlich	spielen	retten	schlecht	faul	tot	eitel	strafen	rächen	1	acq_USpleas_CSpleas1_RW	acq4567_RW	5	21	400	1	300	300	346	50	0	1	1	blank2r.bmp	0	1	+	0	1	blank2r.bmp	492	1	BZZB	492	1	blank2r.bmp	572	1	schön	866	1	!	1239	1	!	1252	0	0	0	0	0	0	0	0	0	0	0	0	0	0	0	0	0	0	0	0	0	0	0	0	0	0	0	0	0	0
071619	12:20:22	12:30:36	613935	5.0.10.0	5_exp_RW	55	Rpleas_acq	CS_B	BZZB	JXXJ	VKKV	YDDY	GWWG	MQQM	schön	fair	treu	ehrlich	spielen	retten	schlecht	faul	tot	eitel	strafen	rächen	1	acq_USpleas_CSpleas2_RW	acq4567_RW	5	22	400	0	300	300	256	46	0	0	1	blank2r.bmp	0	1	+	0	1	blank2r.bmp	492	1	JXXJ	492	1	blank2r.bmp	572	1	ehrlich	866	1	!	-1	1	!	-1	0	0	0	0	0	0	0	0	0	0	0	0	0	0	0	0	0	0	0	0	0	0	0	0	0	0	0	0	0	0
071619	12:20:22	12:30:39	616227	5.0.10.0	5_exp_RW	55	Rpleas_acq	CS_B	BZZB	JXXJ	VKKV	YDDY	GWWG	MQQM	schön	fair	treu	ehrlich	spielen	retten	schlecht	faul	tot	eitel	strafen	rächen	1	acq_USpleas_CSpleas1_RW	acq4567_RW	5	23	400	0	300	300	517	50	0	1	1	blank2r.bmp	0	1	+	0	1	blank2r.bmp	492	1	BZZB	492	1	blank2r.bmp	572	3	treu	866	1	!	1239	1	!	-1	0	0	0	0	0	0	0	0	0	0	0	0	0	0	0	0	0	0	0	0	0	0	0	0	0	0	0	0	0	0
071619	12:20:22	12:30:41	618986	5.0.10.0	5_exp_RW	55	Rpleas_acq	CS_B	BZZB	JXXJ	VKKV	YDDY	GWWG	MQQM	schön	fair	treu	ehrlich	spielen	retten	schlecht	faul	tot	eitel	strafen	rächen	1	acq_USunple_CSunple1_RW	acq4567_RW	5	24	400	0	300	300	982	46	0	1	1	blank2r.bmp	0	1	+	0	1	blank2r.bmp	492	1	VKKV	492	1	blank2r.bmp	572	2	faul	866	1	!	1239	1	!	-1	0	0	0	0	0	0	0	0	0	0	0	0	0	0	0	0	0	0	0	0	0	0	0	0	0	0	0	0	0	0
071619	12:20:22	12:30:44	621571	5.0.10.0	5_exp_RW	55	Rpleas_acq	CS_B	BZZB	JXXJ	VKKV	YDDY	GWWG	MQQM	schön	fair	treu	ehrlich	spielen	retten	schlecht	faul	tot	eitel	strafen	rächen	1	acq_USunple_CSunple2_RW	acq4567_RW	5	25	400	0	300	300	807	46	0	1	1	blank2r.bmp	0	1	+	0	1	blank2r.bmp	492	1	YDDY	492	1	blank2r.bmp	572	1	eitel	866	1	!	1239	1	!	-1	0	0	0	0	0	0	0	0	0	0	0	0	0	0	0	0	0	0	0	0	0	0	0	0	0	0	0	0	0	0
071619	12:20:22	12:30:46	623904	5.0.10.0	5_exp_RW	55	Rpleas_acq	CS_B	BZZB	JXXJ	VKKV	YDDY	GWWG	MQQM	schön	fair	treu	ehrlich	spielen	retten	schlecht	faul	tot	eitel	strafen	rächen	1	acq_USpleas_CSpleas2_RW	acq4567_RW	5	26	400	0	300	300	551	50	0	1	1	blank2r.bmp	0	1	+	0	1	blank2r.bmp	492	1	JXXJ	492	1	blank2r.bmp	572	3	retten	866	1	!	1239	1	!	-1	0	0	0	0	0	0	0	0	0	0	0	0	0	0	0	0	0	0	0	0	0	0	0	0	0	0	0	0	0	0
071619	12:20:22	12:30:48	626103	5.0.10.0	5_exp_RW	55	Rpleas_acq	CS_B	BZZB	JXXJ	VKKV	YDDY	GWWG	MQQM	schön	fair	treu	ehrlich	spielen	retten	schlecht	faul	tot	eitel	strafen	rächen	1	acq_USpleas_CSpleas1_RW	acq4567_RW	5	27	400	1	300	300	386	50	0	1	1	blank2r.bmp	0	1	+	0	1	blank2r.bmp	492	1	BZZB	492	1	blank2r.bmp	572	2	fair	866	1	!	1239	1	!	1292	0	0	0	0	0	0	0	0	0	0	0	0	0	0	0	0	0	0	0	0	0	0	0	0	0	0	0	0	0	0
071619	12:20:22	12:30:51	628342	5.0.10.0	5_exp_RW	55	Rpleas_acq	CS_B	BZZB	JXXJ	VKKV	YDDY	GWWG	MQQM	schön	fair	treu	ehrlich	spielen	retten	schlecht	faul	tot	eitel	strafen	rächen	1	acq_USunple_CSunple1_RW	acq4567_RW	5	28	400	1	300	300	448	46	0	1	1	blank2r.bmp	0	1	+	0	1	blank2r.bmp	492	1	VKKV	492	1	blank2r.bmp	572	3	tot	866	1	!	1239	1	!	1346	0	0	0	0	0	0	0	0	0	0	0	0	0	0	0	0	0	0	0	0	0	0	0	0	0	0	0	0	0	0
071619	12:20:22	12:30:53	630514	5.0.10.0	5_exp_RW	55	Rpleas_acq	CS_B	BZZB	JXXJ	VKKV	YDDY	GWWG	MQQM	schön	fair	treu	ehrlich	spielen	retten	schlecht	faul	tot	eitel	strafen	rächen	1	acq_USunple_CSunple1_RW	acq4567_RW	5	29	400	1	300	300	380	46	0	1	1	blank2r.bmp	0	1	+	0	1	blank2r.bmp	492	1	VKKV	492	1	blank2r.bmp	572	2	faul	866	1	!	1239	1	!	1279	0	0	0	0	0	0	0	0	0	0	0	0	0	0	0	0	0	0	0	0	0	0	0	0	0	0	0	0	0	0
071619	12:20:22	12:30:55	632754	5.0.10.0	5_exp_RW	55	Rpleas_acq	CS_B	BZZB	JXXJ	VKKV	YDDY	GWWG	MQQM	schön	fair	treu	ehrlich	spielen	retten	schlecht	faul	tot	eitel	strafen	rächen	1	acq_USunple_CSunple2_RW	acq4567_RW	5	30	400	1	300	300	449	46	0	1	1	blank2r.bmp	0	1	+	0	1	blank2r.bmp	492	1	YDDY	492	1	blank2r.bmp	572	2	strafen	866	1	!	1239	1	!	1346	0	0	0	0	0	0	0	0	0	0	0	0	0	0	0	0	0	0	0	0	0	0	0	0	0	0	0	0	0	0
071619	12:20:22	12:30:57	634979	5.0.10.0	5_exp_RW	55	Rpleas_acq	CS_B	BZZB	JXXJ	VKKV	YDDY	GWWG	MQQM	schön	fair	treu	ehrlich	spielen	retten	schlecht	faul	tot	eitel	strafen	rächen	1	acq_USpleas_CSpleas2_RW	acq4567_RW	5	31	400	1	300	300	420	50	0	1	1	blank2r.bmp	0	1	+	0	1	blank2r.bmp	492	1	JXXJ	492	1	blank2r.bmp	572	1	ehrlich	866	1	!	1239	1	!	1319	0	0	0	0	0	0	0	0	0	0	0	0	0	0	0	0	0	0	0	0	0	0	0	0	0	0	0	0	0	0
071619	12:20:22	12:30:59	637125	5.0.10.0	5_exp_RW	55	Rpleas_acq	CS_B	BZZB	JXXJ	VKKV	YDDY	GWWG	MQQM	schön	fair	treu	ehrlich	spielen	retten	schlecht	faul	tot	eitel	strafen	rächen	1	acq_USpleas_CSpleas2_RW	acq4567_RW	5	32	400	1	300	300	346	50	0	1	1	blank2r.bmp	0	1	+	0	1	blank2r.bmp	492	1	JXXJ	492	1	blank2r.bmp	572	2	spielen	866	1	!	1239	1	!	1252	0	0	0	0	0	0	0	0	0	0	0	0	0	0	0	0	0	0	0	0	0	0	0	0	0	0	0	0	0	0
071619	12:20:22	12:31:02	639324	5.0.10.0	5_exp_RW	55	Rpleas_acq	CS_B	BZZB	JXXJ	VKKV	YDDY	GWWG	MQQM	schön	fair	treu	ehrlich	spielen	retten	schlecht	faul	tot	eitel	strafen	rächen	1	acq_USunple_CSunple1_RW	acq4567_RW	5	33	400	1	300	300	402	46	0	1	1	blank2r.bmp	0	1	+	0	1	blank2r.bmp	492	1	VKKV	492	1	blank2r.bmp	572	1	schlecht	866	1	!	1239	1	!	1306	0	0	0	0	0	0	0	0	0	0	0	0	0	0	0	0	0	0	0	0	0	0	0	0	0	0	0	0	0	0
071619	12:20:22	12:31:04	641737	5.0.10.0	5_exp_RW	55	Rpleas_acq	CS_B	BZZB	JXXJ	VKKV	YDDY	GWWG	MQQM	schön	fair	treu	ehrlich	spielen	retten	schlecht	faul	tot	eitel	strafen	rächen	1	acq_USunple_CSunple2_RW	acq4567_RW	5	34	400	0	300	300	650	46	0	1	1	blank2r.bmp	0	1	+	0	1	blank2r.bmp	492	1	YDDY	492	1	blank2r.bmp	572	1	eitel	866	1	!	1239	1	!	-1	0	0	0	0	0	0	0	0	0	0	0	0	0	0	0	0	0	0	0	0	0	0	0	0	0	0	0	0	0	0
071619	12:20:22	12:31:07	644295	5.0.10.0	5_exp_RW	55	Rpleas_acq	CS_B	BZZB	JXXJ	VKKV	YDDY	GWWG	MQQM	schön	fair	treu	ehrlich	spielen	retten	schlecht	faul	tot	eitel	strafen	rächen	1	acq_USunple_CSunple2_RW	acq4567_RW	5	35	400	0	300	300	779	46	0	1	1	blank2r.bmp	0	1	+	0	1	blank2r.bmp	492	1	YDDY	492	1	blank2r.bmp	572	3	rächen	866	1	!	1239	1	!	-1	0	0	0	0	0	0	0	0	0	0	0	0	0	0	0	0	0	0	0	0	0	0	0	0	0	0	0	0	0	0
071619	12:20:22	12:31:09	646375	5.0.10.0	5_exp_RW	55	Rpleas_acq	CS_B	BZZB	JXXJ	VKKV	YDDY	GWWG	MQQM	schön	fair	treu	ehrlich	spielen	retten	schlecht	faul	tot	eitel	strafen	rächen	1	acq_USpleas_CSpleas1_RW	acq4567_RW	5	36	400	0	300	300	295	50	0	1	1	blank2r.bmp	0	1	+	0	1	blank2r.bmp	492	1	BZZB	492	1	blank2r.bmp	572	1	schön	866	1	!	-1	1	!	-1	0	0	0	0	0	0	0	0	0	0	0	0	0	0	0	0	0	0	0	0	0	0	0	0	0	0	0	0	0	0
071619	12:20:22	12:31:11	648640	5.0.10.0	5_exp_RW	55	Rpleas_acq	CS_B	BZZB	JXXJ	VKKV	YDDY	GWWG	MQQM	schön	fair	treu	ehrlich	spielen	retten	schlecht	faul	tot	eitel	strafen	rächen	1	acq_USpleas_CSpleas2_RW	acq4567_RW	5	37	400	1	300	300	463	50	0	1	1	blank2r.bmp	0	1	+	0	1	blank2r.bmp	492	1	JXXJ	492	1	blank2r.bmp	572	3	retten	866	1	!	1239	1	!	1359	0	0	0	0	0	0	0	0	0	0	0	0	0	0	0	0	0	0	0	0	0	0	0	0	0	0	0	0	0	0
071619	12:20:22	12:31:13	650866	5.0.10.0	5_exp_RW	55	Rpleas_acq	CS_B	BZZB	JXXJ	VKKV	YDDY	GWWG	MQQM	schön	fair	treu	ehrlich	spielen	retten	schlecht	faul	tot	eitel	strafen	rächen	1	acq_USunple_CSunple1_RW	acq4567_RW	5	38	400	1	300	300	432	46	0	1	1	blank2r.bmp	0	1	+	0	1	blank2r.bmp	492	1	VKKV	492	1	blank2r.bmp	572	1	schlecht	866	1	!	1239	1	!	1332	0	0	0	0	0	0	0	0	0	0	0	0	0	0	0	0	0	0	0	0	0	0	0	0	0	0	0	0	0	0
071619	12:20:22	12:31:15	653119	5.0.10.0	5_exp_RW	55	Rpleas_acq	CS_B	BZZB	JXXJ	VKKV	YDDY	GWWG	MQQM	schön	fair	treu	ehrlich	spielen	retten	schlecht	faul	tot	eitel	strafen	rächen	1	acq_USpleas_CSpleas1_RW	acq4567_RW	5	39	400	0	300	300	483	50	0	1	1	blank2r.bmp	0	1	+	0	1	blank2r.bmp	492	1	BZZB	492	1	blank2r.bmp	572	2	fair	866	1	!	1239	1	!	-1	0	0	0	0	0	0	0	0	0	0	0	0	0	0	0	0	0	0	0	0	0	0	0	0	0	0	0	0	0	0
071619	12:20:22	12:31:18	655464	5.0.10.0	5_exp_RW	55	Rpleas_acq	CS_B	BZZB	JXXJ	VKKV	YDDY	GWWG	MQQM	schön	fair	treu	ehrlich	spielen	retten	schlecht	faul	tot	eitel	strafen	rächen	1	acq_USunple_CSunple2_RW	acq4567_RW	5	40	400	0	300	300	570	46	0	1	1	blank2r.bmp	0	1	+	0	1	blank2r.bmp	492	1	YDDY	492	1	blank2r.bmp	572	1	eitel	866	1	!	1239	1	!	-1	0	0	0	0	0	0	0	0	0	0	0	0	0	0	0	0	0	0	0	0	0	0	0	0	0	0	0	0	0	0
071619	12:20:22	12:31:20	657557	5.0.10.0	5_exp_RW	55	Rpleas_acq	CS_B	BZZB	JXXJ	VKKV	YDDY	GWWG	MQQM	schön	fair	treu	ehrlich	spielen	retten	schlecht	faul	tot	eitel	strafen	rächen	1	acq_USpleas_CSpleas1_RW	acq4567_RW	5	41	400	0	300	300	305	50	0	1	1	blank2r.bmp	0	1	+	0	1	blank2r.bmp	492	1	BZZB	492	1	blank2r.bmp	572	1	schön	866	1	!	-1	1	!	-1	0	0	0	0	0	0	0	0	0	0	0	0	0	0	0	0	0	0	0	0	0	0	0	0	0	0	0	0	0	0
071619	12:20:22	12:31:22	659836	5.0.10.0	5_exp_RW	55	Rpleas_acq	CS_B	BZZB	JXXJ	VKKV	YDDY	GWWG	MQQM	schön	fair	treu	ehrlich	spielen	retten	schlecht	faul	tot	eitel	strafen	rächen	1	acq_USunple_CSunple2_RW	acq4567_RW	5	42	400	0	300	300	501	46	0	1	1	blank2r.bmp	0	1	+	0	1	blank2r.bmp	492	1	YDDY	492	1	blank2r.bmp	572	2	strafen	866	1	!	1239	1	!	-1	0	0	0	0	0	0	0	0	0	0	0	0	0	0	0	0	0	0	0	0	0	0	0	0	0	0	0	0	0	0
071619	12:20:22	12:31:24	661928	5.0.10.0	5_exp_RW	55	Rpleas_acq	CS_B	BZZB	JXXJ	VKKV	YDDY	GWWG	MQQM	schön	fair	treu	ehrlich	spielen	retten	schlecht	faul	tot	eitel	strafen	rächen	1	acq_USpleas_CSpleas1_RW	acq4567_RW	5	43	400	0	300	300	293	50	0	1	1	blank2r.bmp	0	1	+	0	1	blank2r.bmp	492	1	BZZB	492	1	blank2r.bmp	572	3	treu	866	1	!	-1	1	!	-1	0	0	0	0	0	0	0	0	0	0	0	0	0	0	0	0	0	0	0	0	0	0	0	0	0	0	0	0	0	0
071619	12:20:22	12:31:27	664194	5.0.10.0	5_exp_RW	55	Rpleas_acq	CS_B	BZZB	JXXJ	VKKV	YDDY	GWWG	MQQM	schön	fair	treu	ehrlich	spielen	retten	schlecht	faul	tot	eitel	strafen	rächen	1	acq_USunple_CSunple1_RW	acq4567_RW	5	44	400	1	300	300	452	46	0	1	1	blank2r.bmp	0	1	+	0	1	blank2r.bmp	492	1	VKKV	492	1	blank2r.bmp	572	3	tot	866	1	!	1239	1	!	1359	0	0	0	0	0	0	0	0	0	0	0	0	0	0	0	0	0	0	0	0	0	0	0	0	0	0	0	0	0	0
071619	12:20:22	12:31:29	666486	5.0.10.0	5_exp_RW	55	Rpleas_acq	CS_B	BZZB	JXXJ	VKKV	YDDY	GWWG	MQQM	schön	fair	treu	ehrlich	spielen	retten	schlecht	faul	tot	eitel	strafen	rächen	1	acq_USunple_CSunple1_RW	acq4567_RW	5	45	400	0	300	300	522	46	0	1	1	blank2r.bmp	0	1	+	0	1	blank2r.bmp	492	1	VKKV	492	1	blank2r.bmp	572	2	faul	866	1	!	1239	1	!	-1	0	0	0	0	0	0	0	0	0	0	0	0	0	0	0	0	0	0	0	0	0	0	0	0	0	0	0	0	0	0
071619	12:20:22	12:31:31	668699	5.0.10.0	5_exp_RW	55	Rpleas_acq	CS_B	BZZB	JXXJ	VKKV	YDDY	GWWG	MQQM	schön	fair	treu	ehrlich	spielen	retten	schlecht	faul	tot	eitel	strafen	rächen	1	acq_USpleas_CSpleas1_RW	acq4567_RW	5	46	400	1	300	300	402	50	0	1	1	blank2r.bmp	0	1	+	0	1	blank2r.bmp	492	1	BZZB	492	1	blank2r.bmp	572	2	fair	866	1	!	1239	1	!	1306	0	0	0	0	0	0	0	0	0	0	0	0	0	0	0	0	0	0	0	0	0	0	0	0	0	0	0	0	0	0
071619	12:20:22	12:31:33	670951	5.0.10.0	5_exp_RW	55	Rpleas_acq	CS_B	BZZB	JXXJ	VKKV	YDDY	GWWG	MQQM	schön	fair	treu	ehrlich	spielen	retten	schlecht	faul	tot	eitel	strafen	rächen	1	acq_USpleas_CSpleas2_RW	acq4567_RW	5	47	400	1	300	300	460	50	0	1	1	blank2r.bmp	0	1	+	0	1	blank2r.bmp	492	1	JXXJ	492	1	blank2r.bmp	572	1	ehrlich	866	1	!	1239	1	!	1359	0	0	0	0	0	0	0	0	0	0	0	0	0	0	0	0	0	0	0	0	0	0	0	0	0	0	0	0	0	0
071619	12:20:22	12:31:36	673257	5.0.10.0	5_exp_RW	55	Rpleas_acq	CS_B	BZZB	JXXJ	VKKV	YDDY	GWWG	MQQM	schön	fair	treu	ehrlich	spielen	retten	schlecht	faul	tot	eitel	strafen	rächen	1	acq_USunple_CSunple2_RW	acq4567_RW	5	48	400	0	300	300	539	46	0	1	1	blank2r.bmp	0	1	+	0	1	blank2r.bmp	492	1	YDDY	492	1	blank2r.bmp	572	3	rächen	866	1	!	1239	1	!	-1	0	0	0	0	0	0	0	0	0	0	0	0	0	0	0	0	0	0	0	0	0	0	0	0	0	0	0	0	0	0
071619	12:20:22	12:31:38	675496	5.0.10.0	5_exp_RW	55	Rpleas_acq	CS_B	BZZB	JXXJ	VKKV	YDDY	GWWG	MQQM	schön	fair	treu	ehrlich	spielen	retten	schlecht	faul	tot	eitel	strafen	rächen	1	acq_USunple_CSunple2_RW	acq4567_RW	5	49	400	1	300	300	432	50	0	0	1	blank2r.bmp	0	1	+	0	1	blank2r.bmp	492	1	YDDY	492	1	blank2r.bmp	572	2	strafen	866	1	!	1239	1	!	1332	0	0	0	0	0	0	0	0	0	0	0	0	0	0	0	0	0	0	0	0	0	0	0	0	0	0	0	0	0	0
071619	12:20:22	12:31:41	678322	5.0.10.0	5_exp_RW	55	Rpleas_acq	CS_B	BZZB	JXXJ	VKKV	YDDY	GWWG	MQQM	schön	fair	treu	ehrlich	spielen	retten	schlecht	faul	tot	eitel	strafen	rächen	1	acq_USunple_CSunple2_RW	acq4567_RW	5	50	400	0	300	300	1048	46	0	1	1	blank2r.bmp	0	1	+	0	1	blank2r.bmp	492	1	YDDY	492	1	blank2r.bmp	572	1	eitel	866	1	!	1239	1	!	-1	0	0	0	0	0	0	0	0	0	0	0	0	0	0	0	0	0	0	0	0	0	0	0	0	0	0	0	0	0	0
071619	12:20:22	12:31:43	680507	5.0.10.0	5_exp_RW	55	Rpleas_acq	CS_B	BZZB	JXXJ	VKKV	YDDY	GWWG	MQQM	schön	fair	treu	ehrlich	spielen	retten	schlecht	faul	tot	eitel	strafen	rächen	1	acq_USpleas_CSpleas1_RW	acq4567_RW	5	51	400	1	300	300	361	50	0	1	1	blank2r.bmp	0	1	+	0	1	blank2r.bmp	492	1	BZZB	492	1	blank2r.bmp	572	3	treu	866	1	!	1239	1	!	1266	0	0	0	0	0	0	0	0	0	0	0	0	0	0	0	0	0	0	0	0	0	0	0	0	0	0	0	0	0	0
071619	12:20:22	12:31:45	682746	5.0.10.0	5_exp_RW	55	Rpleas_acq	CS_B	BZZB	JXXJ	VKKV	YDDY	GWWG	MQQM	schön	fair	treu	ehrlich	spielen	retten	schlecht	faul	tot	eitel	strafen	rächen	1	acq_USunple_CSunple1_RW	acq4567_RW	5	52	400	1	300	300	440	46	0	1	1	blank2r.bmp	0	1	+	0	1	blank2r.bmp	492	1	VKKV	492	1	blank2r.bmp	572	3	tot	866	1	!	1239	1	!	1346	0	0	0	0	0	0	0	0	0	0	0	0	0	0	0	0	0	0	0	0	0	0	0	0	0	0	0	0	0	0
071619	12:20:22	12:31:47	684999	5.0.10.0	5_exp_RW	55	Rpleas_acq	CS_B	BZZB	JXXJ	VKKV	YDDY	GWWG	MQQM	schön	fair	treu	ehrlich	spielen	retten	schlecht	faul	tot	eitel	strafen	rächen	1	acq_USpleas_CSpleas1_RW	acq4567_RW	5	53	400	0	300	300	479	50	0	1	1	blank2r.bmp	0	1	+	0	1	blank2r.bmp	492	1	BZZB	492	1	blank2r.bmp	572	1	schön	866	1	!	1239	1	!	-1	0	0	0	0	0	0	0	0	0	0	0	0	0	0	0	0	0	0	0	0	0	0	0	0	0	0	0	0	0	0
071619	12:20:22	12:31:50	687305	5.0.10.0	5_exp_RW	55	Rpleas_acq	CS_B	BZZB	JXXJ	VKKV	YDDY	GWWG	MQQM	schön	fair	treu	ehrlich	spielen	retten	schlecht	faul	tot	eitel	strafen	rächen	1	acq_USpleas_CSpleas2_RW	acq4567_RW	5	54	400	0	300	300	510	50	0	1	1	blank2r.bmp	0	1	+	0	1	blank2r.bmp	492	1	JXXJ	492	1	blank2r.bmp	572	2	spielen	866	1	!	1239	1	!	-1	0	0	0	0	0	0	0	0	0	0	0	0	0	0	0	0	0	0	0	0	0	0	0	0	0	0	0	0	0	0
071619	12:20:22	12:31:52	689330	5.0.10.0	5_exp_RW	55	Rpleas_acq	CS_B	BZZB	JXXJ	VKKV	YDDY	GWWG	MQQM	schön	fair	treu	ehrlich	spielen	retten	schlecht	faul	tot	eitel	strafen	rächen	1	acq_USunple_CSunple1_RW	acq4567_RW	5	55	400	0	300	300	243	46	0	1	1	blank2r.bmp	0	1	+	0	1	blank2r.bmp	492	1	VKKV	492	1	blank2r.bmp	572	1	schlecht	866	1	!	-1	1	!	-1	0	0	0	0	0	0	0	0	0	0	0	0	0	0	0	0	0	0	0	0	0	0	0	0	0	0	0	0	0	0
071619	12:20:22	12:31:54	691676	5.0.10.0	5_exp_RW	55	Rpleas_acq	CS_B	BZZB	JXXJ	VKKV	YDDY	GWWG	MQQM	schön	fair	treu	ehrlich	spielen	retten	schlecht	faul	tot	eitel	strafen	rächen	1	acq_USpleas_CSpleas2_RW	acq4567_RW	5	56	400	0	300	300	567	50	0	1	1	blank2r.bmp	0	1	+	0	1	blank2r.bmp	492	1	JXXJ	492	1	blank2r.bmp	572	2	spielen	866	1	!	1239	1	!	-1	0	0	0	0	0	0	0	0	0	0	0	0	0	0	0	0	0	0	0	0	0	0	0	0	0	0	0	0	0	0
071619	12:20:22	12:31:56	693982	5.0.10.0	5_exp_RW	55	Rpleas_acq	CS_B	BZZB	JXXJ	VKKV	YDDY	GWWG	MQQM	schön	fair	treu	ehrlich	spielen	retten	schlecht	faul	tot	eitel	strafen	rächen	1	acq_USunple_CSunple2_RW	acq4567_RW	5	57	400	0	300	300	506	46	0	1	1	blank2r.bmp	0	1	+	0	1	blank2r.bmp	492	1	YDDY	492	1	blank2r.bmp	572	3	rächen	866	1	!	1239	1	!	-1	0	0	0	0	0	0	0	0	0	0	0	0	0	0	0	0	0	0	0	0	0	0	0	0	0	0	0	0	0	0
071619	12:20:22	12:31:59	696168	5.0.10.0	5_exp_RW	55	Rpleas_acq	CS_B	BZZB	JXXJ	VKKV	YDDY	GWWG	MQQM	schön	fair	treu	ehrlich	spielen	retten	schlecht	faul	tot	eitel	strafen	rächen	1	acq_USunple_CSunple1_RW	acq4567_RW	5	58	400	1	300	300	383	46	0	1	1	blank2r.bmp	0	1	+	0	1	blank2r.bmp	492	1	VKKV	492	1	blank2r.bmp	572	2	faul	866	1	!	1239	1	!	1279	0	0	0	0	0	0	0	0	0	0	0	0	0	0	0	0	0	0	0	0	0	0	0	0	0	0	0	0	0	0
071619	12:20:22	12:32:01	698420	5.0.10.0	5_exp_RW	55	Rpleas_acq	CS_B	BZZB	JXXJ	VKKV	YDDY	GWWG	MQQM	schön	fair	treu	ehrlich	spielen	retten	schlecht	faul	tot	eitel	strafen	rächen	1	acq_USpleas_CSpleas2_RW	acq4567_RW	5	59	400	1	300	300	458	50	0	1	1	blank2r.bmp	0	1	+	0	1	blank2r.bmp	492	1	JXXJ	492	1	blank2r.bmp	572	3	retten	866	1	!	1239	1	!	1359	0	0	0	0	0	0	0	0	0	0	0	0	0	0	0	0	0	0	0	0	0	0	0	0	0	0	0	0	0	0
071619	12:20:22	12:32:03	700766	5.0.10.0	5_exp_RW	55	Rpleas_acq	CS_B	BZZB	JXXJ	VKKV	YDDY	GWWG	MQQM	schön	fair	treu	ehrlich	spielen	retten	schlecht	faul	tot	eitel	strafen	rächen	1	acq_USpleas_CSpleas2_RW	acq4567_RW	5	60	400	0	300	300	577	50	0	1	1	blank2r.bmp	0	1	+	0	1	blank2r.bmp	492	1	JXXJ	492	1	blank2r.bmp	572	1	ehrlich	866	1	!	1239	1	!	-1	0	0	0	0	0	0	0	0	0	0	0	0	0	0	0	0	0	0	0	0	0	0	0	0	0	0	0	0	0	0
071619	12:20:22	12:32:05	703005	5.0.10.0	5_exp_RW	55	Rpleas_acq	CS_B	BZZB	JXXJ	VKKV	YDDY	GWWG	MQQM	schön	fair	treu	ehrlich	spielen	retten	schlecht	faul	tot	eitel	strafen	rächen	1	acq_USunple_CSunple1_RW	acq4567_RW	5	61	400	1	300	300	427	46	0	1	1	blank2r.bmp	0	1	+	0	1	blank2r.bmp	492	1	VKKV	492	1	blank2r.bmp	572	1	schlecht	866	1	!	1239	1	!	1332	0	0	0	0	0	0	0	0	0	0	0	0	0	0	0	0	0	0	0	0	0	0	0	0	0	0	0	0	0	0
071619	12:20:22	12:32:08	705191	5.0.10.0	5_exp_RW	55	Rpleas_acq	CS_B	BZZB	JXXJ	VKKV	YDDY	GWWG	MQQM	schön	fair	treu	ehrlich	spielen	retten	schlecht	faul	tot	eitel	strafen	rächen	1	acq_USpleas_CSpleas2_RW	acq4567_RW	5	62	400	1	300	300	386	50	0	1	1	blank2r.bmp	0	1	+	0	1	blank2r.bmp	492	1	JXXJ	492	1	blank2r.bmp	572	2	spielen	866	1	!	1239	1	!	1292	0	0	0	0	0	0	0	0	0	0	0	0	0	0	0	0	0	0	0	0	0	0	0	0	0	0	0	0	0	0
071619	12:20:22	12:32:10	707403	5.0.10.0	5_exp_RW	55	Rpleas_acq	CS_B	BZZB	JXXJ	VKKV	YDDY	GWWG	MQQM	schön	fair	treu	ehrlich	spielen	retten	schlecht	faul	tot	eitel	strafen	rächen	1	acq_USunple_CSunple2_RW	acq4567_RW	5	63	400	1	300	300	421	46	0	1	1	blank2r.bmp	0	1	+	0	1	blank2r.bmp	492	1	YDDY	492	1	blank2r.bmp	572	2	strafen	866	1	!	1239	1	!	1319	0	0	0	0	0	0	0	0	0	0	0	0	0	0	0	0	0	0	0	0	0	0	0	0	0	0	0	0	0	0
071619	12:20:22	12:32:12	709762	5.0.10.0	5_exp_RW	55	Rpleas_acq	CS_B	BZZB	JXXJ	VKKV	YDDY	GWWG	MQQM	schön	fair	treu	ehrlich	spielen	retten	schlecht	faul	tot	eitel	strafen	rächen	1	acq_USunple_CSunple1_RW	acq4567_RW	5	64	400	0	300	300	591	46	0	1	1	blank2r.bmp	0	1	+	0	1	blank2r.bmp	492	1	VKKV	492	1	blank2r.bmp	572	2	faul	866	1	!	1239	1	!	-1	0	0	0	0	0	0	0	0	0	0	0	0	0	0	0	0	0	0	0	0	0	0	0	0	0	0	0	0	0	0
071619	12:20:22	12:32:14	712028	5.0.10.0	5_exp_RW	55	Rpleas_acq	CS_B	BZZB	JXXJ	VKKV	YDDY	GWWG	MQQM	schön	fair	treu	ehrlich	spielen	retten	schlecht	faul	tot	eitel	strafen	rächen	1	acq_USpleas_CSpleas1_RW	acq4567_RW	5	65	400	0	300	300	479	50	0	1	1	blank2r.bmp	0	1	+	0	1	blank2r.bmp	492	1	BZZB	492	1	blank2r.bmp	572	3	treu	866	1	!	1239	1	!	-1	0	0	0	0	0	0	0	0	0	0	0	0	0	0	0	0	0	0	0	0	0	0	0	0	0	0	0	0	0	0
071619	12:20:22	12:32:17	714227	5.0.10.0	5_exp_RW	55	Rpleas_acq	CS_B	BZZB	JXXJ	VKKV	YDDY	GWWG	MQQM	schön	fair	treu	ehrlich	spielen	retten	schlecht	faul	tot	eitel	strafen	rächen	1	acq_USpleas_CSpleas2_RW	acq4567_RW	5	66	400	1	300	300	391	46	0	0	1	blank2r.bmp	0	1	+	0	1	blank2r.bmp	492	1	JXXJ	492	1	blank2r.bmp	572	3	retten	866	1	!	1239	1	!	1292	0	0	0	0	0	0	0	0	0	0	0	0	0	0	0	0	0	0	0	0	0	0	0	0	0	0	0	0	0	0
071619	12:20:22	12:32:19	716479	5.0.10.0	5_exp_RW	55	Rpleas_acq	CS_B	BZZB	JXXJ	VKKV	YDDY	GWWG	MQQM	schön	fair	treu	ehrlich	spielen	retten	schlecht	faul	tot	eitel	strafen	rächen	1	acq_USunple_CSunple1_RW	acq4567_RW	5	67	400	0	300	300	481	46	0	1	1	blank2r.bmp	0	1	+	0	1	blank2r.bmp	492	1	VKKV	492	1	blank2r.bmp	572	3	tot	866	1	!	1239	1	!	-1	0	0	0	0	0	0	0	0	0	0	0	0	0	0	0	0	0	0	0	0	0	0	0	0	0	0	0	0	0	0
071619	12:20:22	12:32:21	718705	5.0.10.0	5_exp_RW	55	Rpleas_acq	CS_B	BZZB	JXXJ	VKKV	YDDY	GWWG	MQQM	schön	fair	treu	ehrlich	spielen	retten	schlecht	faul	tot	eitel	strafen	rächen	1	acq_USunple_CSunple2_RW	acq4567_RW	5	68	400	1	300	300	401	50	0	0	1	blank2r.bmp	0	1	+	0	1	blank2r.bmp	492	1	YDDY	492	1	blank2r.bmp	572	1	eitel	866	1	!	1239	1	!	1306	0	0	0	0	0	0	0	0	0	0	0	0	0	0	0	0	0	0	0	0	0	0	0	0	0	0	0	0	0	0
071619	12:20:22	12:32:23	720931	5.0.10.0	5_exp_RW	55	Rpleas_acq	CS_B	BZZB	JXXJ	VKKV	YDDY	GWWG	MQQM	schön	fair	treu	ehrlich	spielen	retten	schlecht	faul	tot	eitel	strafen	rächen	1	acq_USpleas_CSpleas1_RW	acq4567_RW	5	69	400	1	300	300	435	50	0	1	1	blank2r.bmp	0	1	+	0	1	blank2r.bmp	492	1	BZZB	492	1	blank2r.bmp	572	1	schön	866	1	!	1239	1	!	1332	0	0	0	0	0	0	0	0	0	0	0	0	0	0	0	0	0	0	0	0	0	0	0	0	0	0	0	0	0	0
071619	12:20:22	12:32:26	723276	5.0.10.0	5_exp_RW	55	Rpleas_acq	CS_B	BZZB	JXXJ	VKKV	YDDY	GWWG	MQQM	schön	fair	treu	ehrlich	spielen	retten	schlecht	faul	tot	eitel	strafen	rächen	1	acq_USunple_CSunple2_RW	acq4567_RW	5	70	400	0	300	300	577	46	0	1	1	blank2r.bmp	0	1	+	0	1	blank2r.bmp	492	1	YDDY	492	1	blank2r.bmp	572	3	rächen	866	1	!	1239	1	!	-1	0	0	0	0	0	0	0	0	0	0	0	0	0	0	0	0	0	0	0	0	0	0	0	0	0	0	0	0	0	0
071619	12:20:22	12:32:28	725489	5.0.10.0	5_exp_RW	55	Rpleas_acq	CS_B	BZZB	JXXJ	VKKV	YDDY	GWWG	MQQM	schön	fair	treu	ehrlich	spielen	retten	schlecht	faul	tot	eitel	strafen	rächen	1	acq_USunple_CSunple2_RW	acq4567_RW	5	71	400	1	300	300	403	46	0	1	1	blank2r.bmp	0	1	+	0	1	blank2r.bmp	492	1	YDDY	492	1	blank2r.bmp	572	3	rächen	866	1	!	1239	1	!	1306	0	0	0	0	0	0	0	0	0	0	0	0	0	0	0	0	0	0	0	0	0	0	0	0	0	0	0	0	0	0
071619	12:20:22	12:32:30	727728	5.0.10.0	5_exp_RW	55	Rpleas_acq	CS_B	BZZB	JXXJ	VKKV	YDDY	GWWG	MQQM	schön	fair	treu	ehrlich	spielen	retten	schlecht	faul	tot	eitel	strafen	rächen	1	acq_USpleas_CSpleas1_RW	acq4567_RW	5	72	400	1	300	300	450	50	0	1	1	blank2r.bmp	0	1	+	0	1	blank2r.bmp	492	1	BZZB	492	1	blank2r.bmp	572	2	fair	866	1	!	1239	1	!	1346	0	0	0	0	0	0	0	0	0	0	0	0	0	0	0	0	0	0	0	0	0	0	0	0	0	0	0	0	0	0
071619	12:20:22	12:32:32	729887	5.0.10.0	5_exp_RW	55	Rpleas_acq	CS_B	BZZB	JXXJ	VKKV	YDDY	GWWG	MQQM	schön	fair	treu	ehrlich	spielen	retten	schlecht	faul	tot	eitel	strafen	rächen	1	acq_USpleas_CSpleas2_RW	acq4567_RW	5	73	400	1	300	300	364	50	0	1	1	blank2r.bmp	0	1	+	0	1	blank2r.bmp	492	1	JXXJ	492	1	blank2r.bmp	572	1	ehrlich	866	1	!	1239	1	!	1266	0	0	0	0	0	0	0	0	0	0	0	0	0	0	0	0	0	0	0	0	0	0	0	0	0	0	0	0	0	0
071619	12:20:22	12:32:34	732126	5.0.10.0	5_exp_RW	55	Rpleas_acq	CS_B	BZZB	JXXJ	VKKV	YDDY	GWWG	MQQM	schön	fair	treu	ehrlich	spielen	retten	schlecht	faul	tot	eitel	strafen	rächen	1	acq_USpleas_CSpleas1_RW	acq4567_RW	5	74	400	1	300	300	443	50	0	1	1	blank2r.bmp	0	1	+	0	1	blank2r.bmp	492	1	BZZB	492	1	blank2r.bmp	572	2	fair	866	1	!	1239	1	!	1346	0	0	0	0	0	0	0	0	0	0	0	0	0	0	0	0	0	0	0	0	0	0	0	0	0	0	0	0	0	0
071619	12:20:22	12:32:37	734352	5.0.10.0	5_exp_RW	55	Rpleas_acq	CS_B	BZZB	JXXJ	VKKV	YDDY	GWWG	MQQM	schön	fair	treu	ehrlich	spielen	retten	schlecht	faul	tot	eitel	strafen	rächen	1	acq_USpleas_CSpleas2_RW	acq4567_RW	5	75	400	1	300	300	430	50	0	1	1	blank2r.bmp	0	1	+	0	1	blank2r.bmp	492	1	JXXJ	492	1	blank2r.bmp	572	2	spielen	866	1	!	1239	1	!	1332	0	0	0	0	0	0	0	0	0	0	0	0	0	0	0	0	0	0	0	0	0	0	0	0	0	0	0	0	0	0
071619	12:20:22	12:32:39	736458	5.0.10.0	5_exp_RW	55	Rpleas_acq	CS_B	BZZB	JXXJ	VKKV	YDDY	GWWG	MQQM	schön	fair	treu	ehrlich	spielen	retten	schlecht	faul	tot	eitel	strafen	rächen	1	acq_USunple_CSunple1_RW	acq4567_RW	5	76	400	0	300	300	333	46	0	1	1	blank2r.bmp	0	1	+	0	1	blank2r.bmp	492	1	VKKV	492	1	blank2r.bmp	572	2	faul	866	1	!	-1	1	!	-1	0	0	0	0	0	0	0	0	0	0	0	0	0	0	0	0	0	0	0	0	0	0	0	0	0	0	0	0	0	0
071619	12:20:22	12:32:41	738630	5.0.10.0	5_exp_RW	55	Rpleas_acq	CS_B	BZZB	JXXJ	VKKV	YDDY	GWWG	MQQM	schön	fair	treu	ehrlich	spielen	retten	schlecht	faul	tot	eitel	strafen	rächen	1	acq_USpleas_CSpleas1_RW	acq4567_RW	5	77	400	1	300	300	359	46	0	0	1	blank2r.bmp	0	1	+	0	1	blank2r.bmp	492	1	BZZB	492	1	blank2r.bmp	572	3	treu	866	1	!	1239	1	!	1266	0	0	0	0	0	0	0	0	0	0	0	0	0	0	0	0	0	0	0	0	0	0	0	0	0	0	0	0	0	0
071619	12:20:22	12:32:43	740896	5.0.10.0	5_exp_RW	55	Rpleas_acq	CS_B	BZZB	JXXJ	VKKV	YDDY	GWWG	MQQM	schön	fair	treu	ehrlich	spielen	retten	schlecht	faul	tot	eitel	strafen	rächen	1	acq_USunple_CSunple2_RW	acq4567_RW	5	78	400	0	300	300	505	46	0	1	1	blank2r.bmp	0	1	+	0	1	blank2r.bmp	492	1	YDDY	492	1	blank2r.bmp	572	1	eitel	866	1	!	1239	1	!	-1	0	0	0	0	0	0	0	0	0	0	0	0	0	0	0	0	0	0	0	0	0	0	0	0	0	0	0	0	0	0
071619	12:20:22	12:32:46	743335	5.0.10.0	5_exp_RW	55	Rpleas_acq	CS_B	BZZB	JXXJ	VKKV	YDDY	GWWG	MQQM	schön	fair	treu	ehrlich	spielen	retten	schlecht	faul	tot	eitel	strafen	rächen	1	acq_USpleas_CSpleas2_RW	acq4567_RW	5	79	400	0	300	300	660	50	0	1	1	blank2r.bmp	0	1	+	0	1	blank2r.bmp	492	1	JXXJ	492	1	blank2r.bmp	572	3	retten	866	1	!	1239	1	!	-1	0	0	0	0	0	0	0	0	0	0	0	0	0	0	0	0	0	0	0	0	0	0	0	0	0	0	0	0	0	0
071619	12:20:22	12:32:48	745667	5.0.10.0	5_exp_RW	55	Rpleas_acq	CS_B	BZZB	JXXJ	VKKV	YDDY	GWWG	MQQM	schön	fair	treu	ehrlich	spielen	retten	schlecht	faul	tot	eitel	strafen	rächen	1	acq_USunple_CSunple1_RW	acq4567_RW	5	80	400	0	300	300	546	46	0	1	1	blank2r.bmp	0	1	+	0	1	blank2r.bmp	492	1	VKKV	492	1	blank2r.bmp	572	1	schlecht	866	1	!	1239	1	!	-1	0	0	0	0	0	0	0	0	0	0	0	0	0	0	0	0	0	0	0	0	0	0	0	0	0	0	0	0	0	0
071619	12:20:22	12:33:02	760048	5.0.10.0	5_exp_RW	55	Rpleas_acq	CS_B	BZZB	JXXJ	VKKV	YDDY	GWWG	MQQM	schön	fair	treu	ehrlich	spielen	retten	schlecht	faul	tot	eitel	strafen	rächen	1	acq_USunple_CSunple1_RW	acq4567_RW	6	1	400	1	300	300	380	46	0	1	1	blank2r.bmp	0	1	+	0	1	blank2r.bmp	492	1	VKKV	492	1	blank2r.bmp	572	3	tot	866	1	!	1239	1	!	1279	0	0	0	0	0	0	0	0	0	0	0	0	0	0	0	0	0	0	0	0	0	0	0	0	0	0	0	0	0	0
071619	12:20:22	12:33:05	762207	5.0.10.0	5_exp_RW	55	Rpleas_acq	CS_B	BZZB	JXXJ	VKKV	YDDY	GWWG	MQQM	schön	fair	treu	ehrlich	spielen	retten	schlecht	faul	tot	eitel	strafen	rächen	1	acq_USunple_CSunple1_RW	acq4567_RW	6	2	400	1	300	300	354	46	0	1	1	blank2r.bmp	0	1	+	0	1	blank2r.bmp	492	1	VKKV	492	1	blank2r.bmp	572	3	tot	866	1	!	1239	1	!	1252	0	0	0	0	0	0	0	0	0	0	0	0	0	0	0	0	0	0	0	0	0	0	0	0	0	0	0	0	0	0
071619	12:20:22	12:33:07	764460	5.0.10.0	5_exp_RW	55	Rpleas_acq	CS_B	BZZB	JXXJ	VKKV	YDDY	GWWG	MQQM	schön	fair	treu	ehrlich	spielen	retten	schlecht	faul	tot	eitel	strafen	rächen	1	acq_USpleas_CSpleas2_RW	acq4567_RW	6	3	400	0	300	300	480	50	0	1	1	blank2r.bmp	0	1	+	0	1	blank2r.bmp	492	1	JXXJ	492	1	blank2r.bmp	572	1	ehrlich	866	1	!	1239	1	!	-1	0	0	0	0	0	0	0	0	0	0	0	0	0	0	0	0	0	0	0	0	0	0	0	0	0	0	0	0	0	0
071619	12:20:22	12:33:09	766645	5.0.10.0	5_exp_RW	55	Rpleas_acq	CS_B	BZZB	JXXJ	VKKV	YDDY	GWWG	MQQM	schön	fair	treu	ehrlich	spielen	retten	schlecht	faul	tot	eitel	strafen	rächen	1	acq_USunple_CSunple2_RW	acq4567_RW	6	4	400	1	300	300	384	46	0	1	1	blank2r.bmp	0	1	+	0	1	blank2r.bmp	492	1	YDDY	492	1	blank2r.bmp	572	2	strafen	866	1	!	1239	1	!	1279	0	0	0	0	0	0	0	0	0	0	0	0	0	0	0	0	0	0	0	0	0	0	0	0	0	0	0	0	0	0
071619	12:20:22	12:33:11	768805	5.0.10.0	5_exp_RW	55	Rpleas_acq	CS_B	BZZB	JXXJ	VKKV	YDDY	GWWG	MQQM	schön	fair	treu	ehrlich	spielen	retten	schlecht	faul	tot	eitel	strafen	rächen	1	acq_USpleas_CSpleas1_RW	acq4567_RW	6	5	400	1	300	300	346	50	0	1	1	blank2r.bmp	0	1	+	0	1	blank2r.bmp	492	1	BZZB	492	1	blank2r.bmp	572	1	schön	866	1	!	1239	1	!	1252	0	0	0	0	0	0	0	0	0	0	0	0	0	0	0	0	0	0	0	0	0	0	0	0	0	0	0	0	0	0
071619	12:20:22	12:33:13	771017	5.0.10.0	5_exp_RW	55	Rpleas_acq	CS_B	BZZB	JXXJ	VKKV	YDDY	GWWG	MQQM	schön	fair	treu	ehrlich	spielen	retten	schlecht	faul	tot	eitel	strafen	rächen	1	acq_USpleas_CSpleas2_RW	acq4567_RW	6	6	400	1	300	300	413	50	0	1	1	blank2r.bmp	0	1	+	0	1	blank2r.bmp	492	1	JXXJ	492	1	blank2r.bmp	572	2	spielen	866	1	!	1239	1	!	1319	0	0	0	0	0	0	0	0	0	0	0	0	0	0	0	0	0	0	0	0	0	0	0	0	0	0	0	0	0	0
071619	12:20:22	12:33:16	773176	5.0.10.0	5_exp_RW	55	Rpleas_acq	CS_B	BZZB	JXXJ	VKKV	YDDY	GWWG	MQQM	schön	fair	treu	ehrlich	spielen	retten	schlecht	faul	tot	eitel	strafen	rächen	1	acq_USunple_CSunple1_RW	acq4567_RW	6	7	400	1	300	300	360	46	0	1	1	blank2r.bmp	0	1	+	0	1	blank2r.bmp	492	1	VKKV	492	1	blank2r.bmp	572	1	schlecht	866	1	!	1239	1	!	1266	0	0	0	0	0	0	0	0	0	0	0	0	0	0	0	0	0	0	0	0	0	0	0	0	0	0	0	0	0	0
071619	12:20:22	12:33:18	775588	5.0.10.0	5_exp_RW	55	Rpleas_acq	CS_B	BZZB	JXXJ	VKKV	YDDY	GWWG	MQQM	schön	fair	treu	ehrlich	spielen	retten	schlecht	faul	tot	eitel	strafen	rächen	1	acq_USunple_CSunple2_RW	acq4567_RW	6	8	400	0	300	300	641	46	0	1	1	blank2r.bmp	0	1	+	0	1	blank2r.bmp	492	1	YDDY	492	1	blank2r.bmp	572	3	rächen	866	1	!	1239	1	!	-1	0	0	0	0	0	0	0	0	0	0	0	0	0	0	0	0	0	0	0	0	0	0	0	0	0	0	0	0	0	0
071619	12:20:22	12:33:20	777788	5.0.10.0	5_exp_RW	55	Rpleas_acq	CS_B	BZZB	JXXJ	VKKV	YDDY	GWWG	MQQM	schön	fair	treu	ehrlich	spielen	retten	schlecht	faul	tot	eitel	strafen	rächen	1	acq_USunple_CSunple1_RW	acq4567_RW	6	9	400	1	300	300	398	46	0	1	1	blank2r.bmp	0	1	+	0	1	blank2r.bmp	492	1	VKKV	492	1	blank2r.bmp	572	2	faul	866	1	!	1239	1	!	1292	0	0	0	0	0	0	0	0	0	0	0	0	0	0	0	0	0	0	0	0	0	0	0	0	0	0	0	0	0	0
071619	12:20:22	12:33:22	779987	5.0.10.0	5_exp_RW	55	Rpleas_acq	CS_B	BZZB	JXXJ	VKKV	YDDY	GWWG	MQQM	schön	fair	treu	ehrlich	spielen	retten	schlecht	faul	tot	eitel	strafen	rächen	1	acq_USpleas_CSpleas1_RW	acq4567_RW	6	10	400	1	300	300	407	50	0	1	1	blank2r.bmp	0	1	+	0	1	blank2r.bmp	492	1	BZZB	492	1	blank2r.bmp	572	3	treu	866	1	!	1239	1	!	1306	0	0	0	0	0	0	0	0	0	0	0	0	0	0	0	0	0	0	0	0	0	0	0	0	0	0	0	0	0	0
071619	12:20:22	12:33:25	782292	5.0.10.0	5_exp_RW	55	Rpleas_acq	CS_B	BZZB	JXXJ	VKKV	YDDY	GWWG	MQQM	schön	fair	treu	ehrlich	spielen	retten	schlecht	faul	tot	eitel	strafen	rächen	1	acq_USunple_CSunple2_RW	acq4567_RW	6	11	400	0	300	300	532	46	0	1	1	blank2r.bmp	0	1	+	0	1	blank2r.bmp	492	1	YDDY	492	1	blank2r.bmp	572	1	eitel	866	1	!	1239	1	!	-1	0	0	0	0	0	0	0	0	0	0	0	0	0	0	0	0	0	0	0	0	0	0	0	0	0	0	0	0	0	0
071619	12:20:22	12:33:27	784451	5.0.10.0	5_exp_RW	55	Rpleas_acq	CS_B	BZZB	JXXJ	VKKV	YDDY	GWWG	MQQM	schön	fair	treu	ehrlich	spielen	retten	schlecht	faul	tot	eitel	strafen	rächen	1	acq_USpleas_CSpleas2_RW	acq4567_RW	6	12	400	1	300	300	346	50	0	1	1	blank2r.bmp	0	1	+	0	1	blank2r.bmp	492	1	JXXJ	492	1	blank2r.bmp	572	1	ehrlich	866	1	!	1239	1	!	1252	0	0	0	0	0	0	0	0	0	0	0	0	0	0	0	0	0	0	0	0	0	0	0	0	0	0	0	0	0	0
071619	12:20:22	12:33:29	786704	5.0.10.0	5_exp_RW	55	Rpleas_acq	CS_B	BZZB	JXXJ	VKKV	YDDY	GWWG	MQQM	schön	fair	treu	ehrlich	spielen	retten	schlecht	faul	tot	eitel	strafen	rächen	1	acq_USpleas_CSpleas2_RW	acq4567_RW	6	13	400	0	300	300	484	50	0	1	1	blank2r.bmp	0	1	+	0	1	blank2r.bmp	492	1	JXXJ	492	1	blank2r.bmp	572	3	retten	866	1	!	1239	1	!	-1	0	0	0	0	0	0	0	0	0	0	0	0	0	0	0	0	0	0	0	0	0	0	0	0	0	0	0	0	0	0
071619	12:20:22	12:33:31	788890	5.0.10.0	5_exp_RW	55	Rpleas_acq	CS_B	BZZB	JXXJ	VKKV	YDDY	GWWG	MQQM	schön	fair	treu	ehrlich	spielen	retten	schlecht	faul	tot	eitel	strafen	rächen	1	acq_USpleas_CSpleas1_RW	acq4567_RW	6	14	400	1	300	300	380	50	0	1	1	blank2r.bmp	0	1	+	0	1	blank2r.bmp	492	1	BZZB	492	1	blank2r.bmp	572	1	schön	866	1	!	1239	1	!	1279	0	0	0	0	0	0	0	0	0	0	0	0	0	0	0	0	0	0	0	0	0	0	0	0	0	0	0	0	0	0
071619	12:20:22	12:33:33	791075	5.0.10.0	5_exp_RW	55	Rpleas_acq	CS_B	BZZB	JXXJ	VKKV	YDDY	GWWG	MQQM	schön	fair	treu	ehrlich	spielen	retten	schlecht	faul	tot	eitel	strafen	rächen	1	acq_USunple_CSunple1_RW	acq4567_RW	6	15	400	1	300	300	396	46	0	1	1	blank2r.bmp	0	1	+	0	1	blank2r.bmp	492	1	VKKV	492	1	blank2r.bmp	572	1	schlecht	866	1	!	1239	1	!	1292	0	0	0	0	0	0	0	0	0	0	0	0	0	0	0	0	0	0	0	0	0	0	0	0	0	0	0	0	0	0
071619	12:20:22	12:33:36	793328	5.0.10.0	5_exp_RW	55	Rpleas_acq	CS_B	BZZB	JXXJ	VKKV	YDDY	GWWG	MQQM	schön	fair	treu	ehrlich	spielen	retten	schlecht	faul	tot	eitel	strafen	rächen	1	acq_USpleas_CSpleas1_RW	acq4567_RW	6	16	400	1	300	300	444	50	0	1	1	blank2r.bmp	0	1	+	0	1	blank2r.bmp	492	1	BZZB	492	1	blank2r.bmp	572	2	fair	866	1	!	1239	1	!	1346	0	0	0	0	0	0	0	0	0	0	0	0	0	0	0	0	0	0	0	0	0	0	0	0	0	0	0	0	0	0
071619	12:20:22	12:33:38	795487	5.0.10.0	5_exp_RW	55	Rpleas_acq	CS_B	BZZB	JXXJ	VKKV	YDDY	GWWG	MQQM	schön	fair	treu	ehrlich	spielen	retten	schlecht	faul	tot	eitel	strafen	rächen	1	acq_USpleas_CSpleas2_RW	acq4567_RW	6	17	400	1	300	300	363	50	0	1	1	blank2r.bmp	0	1	+	0	1	blank2r.bmp	492	1	JXXJ	492	1	blank2r.bmp	572	1	ehrlich	866	1	!	1239	1	!	1266	0	0	0	0	0	0	0	0	0	0	0	0	0	0	0	0	0	0	0	0	0	0	0	0	0	0	0	0	0	0
071619	12:20:22	12:33:40	797699	5.0.10.0	5_exp_RW	55	Rpleas_acq	CS_B	BZZB	JXXJ	VKKV	YDDY	GWWG	MQQM	schön	fair	treu	ehrlich	spielen	retten	schlecht	faul	tot	eitel	strafen	rächen	1	acq_USunple_CSunple2_RW	acq4567_RW	6	18	400	1	300	300	425	46	0	1	1	blank2r.bmp	0	1	+	0	1	blank2r.bmp	492	1	YDDY	492	1	blank2r.bmp	572	2	strafen	866	1	!	1239	1	!	1319	0	0	0	0	0	0	0	0	0	0	0	0	0	0	0	0	0	0	0	0	0	0	0	0	0	0	0	0	0	0
071619	12:20:22	12:33:42	799952	5.0.10.0	5_exp_RW	55	Rpleas_acq	CS_B	BZZB	JXXJ	VKKV	YDDY	GWWG	MQQM	schön	fair	treu	ehrlich	spielen	retten	schlecht	faul	tot	eitel	strafen	rächen	1	acq_USunple_CSunple2_RW	acq4567_RW	6	19	400	0	300	300	479	46	0	1	1	blank2r.bmp	0	1	+	0	1	blank2r.bmp	492	1	YDDY	492	1	blank2r.bmp	572	3	rächen	866	1	!	1239	1	!	-1	0	0	0	0	0	0	0	0	0	0	0	0	0	0	0	0	0	0	0	0	0	0	0	0	0	0	0	0	0	0
071619	12:20:22	12:33:45	802178	5.0.10.0	5_exp_RW	55	Rpleas_acq	CS_B	BZZB	JXXJ	VKKV	YDDY	GWWG	MQQM	schön	fair	treu	ehrlich	spielen	retten	schlecht	faul	tot	eitel	strafen	rächen	1	acq_USpleas_CSpleas1_RW	acq4567_RW	6	20	400	1	300	300	423	50	0	1	1	blank2r.bmp	0	1	+	0	1	blank2r.bmp	492	1	BZZB	492	1	blank2r.bmp	572	2	fair	866	1	!	1239	1	!	1319	0	0	0	0	0	0	0	0	0	0	0	0	0	0	0	0	0	0	0	0	0	0	0	0	0	0	0	0	0	0
