date	time	script.currenttime	script.elapsedtime	build	script.currentexpt	subject	expressions.LRpleas_acq	expressions.conditionCS_A	expressions.CSpleas_1	expressions.CSpleas_2	expressions.CSunple_1	expressions.CSunple_2	expressions.distractor_1	expressions.distractor_2	expressions.US_pleas1	expressions.US_pleas2	expressions.US_pleas3	expressions.US_pleas4	expressions.US_pleas5	expressions.US_pleas6	expressions.US_unple1	expressions.US_unple2	expressions.US_unple3	expressions.US_unple4	expressions.US_unple5	expressions.US_unple6	counter.positions_noRW	trialcode	blockcode	blocknum	trialnum	windowcenter	inwindow	pretrialpause	posttrialpause	latency	response	expressions.correctedscore	correct	stimulusnumber1	stimulusitem1	stimulusonset1	stimulusnumber2	stimulusitem2	stimulusonset2	stimulusnumber3	stimulusitem3	stimulusonset3	stimulusnumber4	stimulusitem4	stimulusonset4	stimulusnumber5	stimulusitem5	stimulusonset5	stimulusnumber6	stimulusitem6	stimulusonset6	stimulusnumber7	stimulusitem7	stimulusonset7	stimulusnumber8	stimulusitem8	stimulusonset8	stimulusnumber9	stimulusitem9	stimulusonset9	stimulusnumber10	stimulusitem10	stimulusonset10	stimulusnumber11	stimulusitem11	stimulusonset11	stimulusnumber12	stimulusitem12	stimulusonset12	stimulusnumber13	stimulusitem13	stimulusonset13	stimulusnumber14	stimulusitem14	stimulusonset14	stimulusnumber15	stimulusitem15	stimulusonset15	stimulusnumber16	stimulusitem16	stimulusonset16	stimulusnumber17	stimulusitem17	stimulusonset17	stimulusnumber18	stimulusitem18	stimulusonset18
081219	11:33:26	11:34:16	49392	5.0.10.0	5_exp_noRW	94	Rpleas_acq	CS_A	ZHHZ	DXXD	YFFY	LWWL	CPPC	JQQJ	vertrauen	träumen	gütig	sonnig	genießen	küssen	versagen	töten	gierig	sterben	gemein	krank	53pct	acq_USunple_CSunple2_noRW	acq1_noRW	1	1	0	0	300	300	1096	46	0	1	1	blank2r.bmp	0	1	+	0	1	blank2r.bmp	252	1	LWWL	306	2	gemein	559	0	0	0	0	0	0	0	0	0	0	0	0	0	0	0	0	0	0	0	0	0	0	0	0	0	0	0	0	0	0	0	0	0	0	0	0	0	0	0
081219	11:33:26	11:34:18	51272	5.0.10.0	5_exp_noRW	94	Rpleas_acq	CS_A	ZHHZ	DXXD	YFFY	LWWL	CPPC	JQQJ	vertrauen	träumen	gütig	sonnig	genießen	küssen	versagen	töten	gierig	sterben	gemein	krank	53pct	acq_USpleas_CSpleas1_noRW	acq1_noRW	1	2	0	0	300	300	715	50	0	1	1	blank2r.bmp	0	1	+	0	1	blank2r.bmp	252	1	ZHHZ	306	3	gütig	559	0	0	0	0	0	0	0	0	0	0	0	0	0	0	0	0	0	0	0	0	0	0	0	0	0	0	0	0	0	0	0	0	0	0	0	0	0	0	0
081219	11:33:26	11:34:21	53524	5.0.10.0	5_exp_noRW	94	Rpleas_acq	CS_A	ZHHZ	DXXD	YFFY	LWWL	CPPC	JQQJ	vertrauen	träumen	gütig	sonnig	genießen	küssen	versagen	töten	gierig	sterben	gemein	krank	47pct	acq_USunple_CSunple1_noRW	acq1_noRW	1	3	0	0	300	300	1070	46	0	1	1	blank2r.bmp	0	1	+	0	1	blank2r.bmp	252	1	YFFY	306	3	gierig	559	0	0	0	0	0	0	0	0	0	0	0	0	0	0	0	0	0	0	0	0	0	0	0	0	0	0	0	0	0	0	0	0	0	0	0	0	0	0	0
081219	11:33:26	11:34:22	55230	5.0.10.0	5_exp_noRW	94	Rpleas_acq	CS_A	ZHHZ	DXXD	YFFY	LWWL	CPPC	JQQJ	vertrauen	träumen	gütig	sonnig	genießen	küssen	versagen	töten	gierig	sterben	gemein	krank	53pct	acq_USpleas_CSunple2_noRW	acq1_noRW	1	4	0	0	300	300	519	50	0	1	1	blank2r.bmp	0	1	+	0	1	blank2r.bmp	252	1	LWWL	306	3	küssen	559	0	0	0	0	0	0	0	0	0	0	0	0	0	0	0	0	0	0	0	0	0	0	0	0	0	0	0	0	0	0	0	0	0	0	0	0	0	0	0
081219	11:33:26	11:34:24	56869	5.0.10.0	5_exp_noRW	94	Rpleas_acq	CS_A	ZHHZ	DXXD	YFFY	LWWL	CPPC	JQQJ	vertrauen	träumen	gütig	sonnig	genießen	küssen	versagen	töten	gierig	sterben	gemein	krank	47pct	acq_USpleas_CSpleas1_noRW	acq1_noRW	1	5	0	0	300	300	469	50	0	1	1	blank2r.bmp	0	1	+	0	1	blank2r.bmp	252	1	ZHHZ	306	1	vertrauen	559	0	0	0	0	0	0	0	0	0	0	0	0	0	0	0	0	0	0	0	0	0	0	0	0	0	0	0	0	0	0	0	0	0	0	0	0	0	0	0
081219	11:33:26	11:34:25	58429	5.0.10.0	5_exp_noRW	94	Rpleas_acq	CS_A	ZHHZ	DXXD	YFFY	LWWL	CPPC	JQQJ	vertrauen	träumen	gütig	sonnig	genießen	küssen	versagen	töten	gierig	sterben	gemein	krank	47pct	acq_USpleas_CSpleas2_noRW	acq1_noRW	1	6	0	0	300	300	391	50	0	1	1	blank2r.bmp	0	1	+	0	1	blank2r.bmp	252	1	DXXD	306	2	genießen	559	0	0	0	0	0	0	0	0	0	0	0	0	0	0	0	0	0	0	0	0	0	0	0	0	0	0	0	0	0	0	0	0	0	0	0	0	0	0	0
081219	11:33:26	11:34:27	59975	5.0.10.0	5_exp_noRW	94	Rpleas_acq	CS_A	ZHHZ	DXXD	YFFY	LWWL	CPPC	JQQJ	vertrauen	träumen	gütig	sonnig	genießen	küssen	versagen	töten	gierig	sterben	gemein	krank	47pct	acq_USpleas_CSunple1_noRW	acq1_noRW	1	7	0	0	300	300	382	50	0	1	1	blank2r.bmp	0	1	+	0	1	blank2r.bmp	252	1	YFFY	306	1	vertrauen	559	0	0	0	0	0	0	0	0	0	0	0	0	0	0	0	0	0	0	0	0	0	0	0	0	0	0	0	0	0	0	0	0	0	0	0	0	0	0	0
081219	11:33:26	11:34:29	61801	5.0.10.0	5_exp_noRW	94	Rpleas_acq	CS_A	ZHHZ	DXXD	YFFY	LWWL	CPPC	JQQJ	vertrauen	träumen	gütig	sonnig	genießen	küssen	versagen	töten	gierig	sterben	gemein	krank	47pct	acq_USunple_CSunple2_noRW	acq1_noRW	1	8	0	0	300	300	641	46	0	1	1	blank2r.bmp	0	1	+	0	1	blank2r.bmp	252	1	LWWL	306	1	sterben	559	0	0	0	0	0	0	0	0	0	0	0	0	0	0	0	0	0	0	0	0	0	0	0	0	0	0	0	0	0	0	0	0	0	0	0	0	0	0	0
081219	11:33:26	11:34:31	63507	5.0.10.0	5_exp_noRW	94	Rpleas_acq	CS_A	ZHHZ	DXXD	YFFY	LWWL	CPPC	JQQJ	vertrauen	träumen	gütig	sonnig	genießen	küssen	versagen	töten	gierig	sterben	gemein	krank	53pct	acq_USpleas_CSpleas1_noRW	acq1_noRW	1	9	0	0	300	300	538	50	0	1	1	blank2r.bmp	0	1	+	0	1	blank2r.bmp	252	1	ZHHZ	306	2	träumen	559	0	0	0	0	0	0	0	0	0	0	0	0	0	0	0	0	0	0	0	0	0	0	0	0	0	0	0	0	0	0	0	0	0	0	0	0	0	0	0
081219	11:33:26	11:34:32	65266	5.0.10.0	5_exp_noRW	94	Rpleas_acq	CS_A	ZHHZ	DXXD	YFFY	LWWL	CPPC	JQQJ	vertrauen	träumen	gütig	sonnig	genießen	küssen	versagen	töten	gierig	sterben	gemein	krank	53pct	acq_USunple_CSunple1_noRW	acq1_noRW	1	10	0	0	300	300	577	46	0	1	1	blank2r.bmp	0	1	+	0	1	blank2r.bmp	252	1	YFFY	306	1	versagen	559	0	0	0	0	0	0	0	0	0	0	0	0	0	0	0	0	0	0	0	0	0	0	0	0	0	0	0	0	0	0	0	0	0	0	0	0	0	0	0
081219	11:33:26	11:34:34	66958	5.0.10.0	5_exp_noRW	94	Rpleas_acq	CS_A	ZHHZ	DXXD	YFFY	LWWL	CPPC	JQQJ	vertrauen	träumen	gütig	sonnig	genießen	küssen	versagen	töten	gierig	sterben	gemein	krank	53pct	acq_USpleas_CSpleas2_noRW	acq1_noRW	1	11	0	0	300	300	512	50	0	1	1	blank2r.bmp	0	1	+	0	1	blank2r.bmp	252	1	DXXD	306	3	küssen	559	0	0	0	0	0	0	0	0	0	0	0	0	0	0	0	0	0	0	0	0	0	0	0	0	0	0	0	0	0	0	0	0	0	0	0	0	0	0	0
081219	11:33:26	11:34:36	68638	5.0.10.0	5_exp_noRW	94	Rpleas_acq	CS_A	ZHHZ	DXXD	YFFY	LWWL	CPPC	JQQJ	vertrauen	träumen	gütig	sonnig	genießen	küssen	versagen	töten	gierig	sterben	gemein	krank	47pct	acq_USunple_CSunple1_noRW	acq1_noRW	1	12	0	0	300	300	515	46	0	1	1	blank2r.bmp	0	1	+	0	1	blank2r.bmp	252	1	YFFY	306	2	töten	559	0	0	0	0	0	0	0	0	0	0	0	0	0	0	0	0	0	0	0	0	0	0	0	0	0	0	0	0	0	0	0	0	0	0	0	0	0	0	0
081219	11:33:26	11:34:37	70304	5.0.10.0	5_exp_noRW	94	Rpleas_acq	CS_A	ZHHZ	DXXD	YFFY	LWWL	CPPC	JQQJ	vertrauen	träumen	gütig	sonnig	genießen	küssen	versagen	töten	gierig	sterben	gemein	krank	47pct	acq_USpleas_CSpleas2_noRW	acq1_noRW	1	13	0	0	300	300	485	50	0	1	1	blank2r.bmp	0	1	+	0	1	blank2r.bmp	252	1	DXXD	306	1	sonnig	559	0	0	0	0	0	0	0	0	0	0	0	0	0	0	0	0	0	0	0	0	0	0	0	0	0	0	0	0	0	0	0	0	0	0	0	0	0	0	0
081219	11:33:26	11:34:39	71943	5.0.10.0	5_exp_noRW	94	Rpleas_acq	CS_A	ZHHZ	DXXD	YFFY	LWWL	CPPC	JQQJ	vertrauen	träumen	gütig	sonnig	genießen	küssen	versagen	töten	gierig	sterben	gemein	krank	53pct	acq_USunple_CSunple1_noRW	acq1_noRW	1	14	0	0	300	300	461	46	0	1	1	blank2r.bmp	0	1	+	0	1	blank2r.bmp	252	1	YFFY	306	2	töten	559	0	0	0	0	0	0	0	0	0	0	0	0	0	0	0	0	0	0	0	0	0	0	0	0	0	0	0	0	0	0	0	0	0	0	0	0	0	0	0
081219	11:33:26	11:34:41	73849	5.0.10.0	5_exp_noRW	94	Rpleas_acq	CS_A	ZHHZ	DXXD	YFFY	LWWL	CPPC	JQQJ	vertrauen	träumen	gütig	sonnig	genießen	küssen	versagen	töten	gierig	sterben	gemein	krank	47pct	acq_USunple_CSunple2_noRW	acq1_noRW	1	15	0	0	300	300	730	46	0	1	1	blank2r.bmp	0	1	+	0	1	blank2r.bmp	252	1	LWWL	306	3	krank	559	0	0	0	0	0	0	0	0	0	0	0	0	0	0	0	0	0	0	0	0	0	0	0	0	0	0	0	0	0	0	0	0	0	0	0	0	0	0	0
081219	11:33:26	11:34:43	76275	5.0.10.0	5_exp_noRW	94	Rpleas_acq	CS_A	ZHHZ	DXXD	YFFY	LWWL	CPPC	JQQJ	vertrauen	träumen	gütig	sonnig	genießen	küssen	versagen	töten	gierig	sterben	gemein	krank	47pct	acq_USpleas_CSpleas1_noRW	acq1_noRW	1	16	0	0	300	300	1240	50	0	1	1	blank2r.bmp	0	1	+	0	1	blank2r.bmp	252	1	ZHHZ	306	3	gütig	559	0	0	0	0	0	0	0	0	0	0	0	0	0	0	0	0	0	0	0	0	0	0	0	0	0	0	0	0	0	0	0	0	0	0	0	0	0	0	0
081219	11:33:26	11:34:45	77914	5.0.10.0	5_exp_noRW	94	Rpleas_acq	CS_A	ZHHZ	DXXD	YFFY	LWWL	CPPC	JQQJ	vertrauen	träumen	gütig	sonnig	genießen	küssen	versagen	töten	gierig	sterben	gemein	krank	53pct	acq_USunple_CSpleas1_noRW	acq1_noRW	1	17	0	0	300	300	467	46	0	1	1	blank2r.bmp	0	1	+	0	1	blank2r.bmp	252	1	ZHHZ	306	1	versagen	559	0	0	0	0	0	0	0	0	0	0	0	0	0	0	0	0	0	0	0	0	0	0	0	0	0	0	0	0	0	0	0	0	0	0	0	0	0	0	0
081219	11:33:26	11:34:47	79553	5.0.10.0	5_exp_noRW	94	Rpleas_acq	CS_A	ZHHZ	DXXD	YFFY	LWWL	CPPC	JQQJ	vertrauen	träumen	gütig	sonnig	genießen	küssen	versagen	töten	gierig	sterben	gemein	krank	47pct	acq_USunple_CSpleas2_noRW	acq1_noRW	1	18	0	0	300	300	472	46	0	1	1	blank2r.bmp	0	1	+	0	1	blank2r.bmp	252	1	DXXD	306	3	krank	559	0	0	0	0	0	0	0	0	0	0	0	0	0	0	0	0	0	0	0	0	0	0	0	0	0	0	0	0	0	0	0	0	0	0	0	0	0	0	0
081219	11:33:26	11:34:48	81153	5.0.10.0	5_exp_noRW	94	Rpleas_acq	CS_A	ZHHZ	DXXD	YFFY	LWWL	CPPC	JQQJ	vertrauen	träumen	gütig	sonnig	genießen	küssen	versagen	töten	gierig	sterben	gemein	krank	47pct	acq_USunple_CSunple2_noRW	acq1_noRW	1	19	0	0	300	300	412	46	0	1	1	blank2r.bmp	0	1	+	0	1	blank2r.bmp	252	1	LWWL	306	2	gemein	559	0	0	0	0	0	0	0	0	0	0	0	0	0	0	0	0	0	0	0	0	0	0	0	0	0	0	0	0	0	0	0	0	0	0	0	0	0	0	0
081219	11:33:26	11:34:50	82792	5.0.10.0	5_exp_noRW	94	Rpleas_acq	CS_A	ZHHZ	DXXD	YFFY	LWWL	CPPC	JQQJ	vertrauen	träumen	gütig	sonnig	genießen	küssen	versagen	töten	gierig	sterben	gemein	krank	47pct	acq_USpleas_CSpleas2_noRW	acq1_noRW	1	20	0	0	300	300	458	50	0	1	1	blank2r.bmp	0	1	+	0	1	blank2r.bmp	252	1	DXXD	306	1	sonnig	559	0	0	0	0	0	0	0	0	0	0	0	0	0	0	0	0	0	0	0	0	0	0	0	0	0	0	0	0	0	0	0	0	0	0	0	0	0	0	0
081219	11:33:26	11:34:51	84471	5.0.10.0	5_exp_noRW	94	Rpleas_acq	CS_A	ZHHZ	DXXD	YFFY	LWWL	CPPC	JQQJ	vertrauen	träumen	gütig	sonnig	genießen	küssen	versagen	töten	gierig	sterben	gemein	krank	47pct	acq_USunple_CSunple1_noRW	acq1_noRW	1	21	0	0	300	300	508	46	0	1	1	blank2r.bmp	0	1	+	0	1	blank2r.bmp	252	1	YFFY	306	3	gierig	559	0	0	0	0	0	0	0	0	0	0	0	0	0	0	0	0	0	0	0	0	0	0	0	0	0	0	0	0	0	0	0	0	0	0	0	0	0	0	0
081219	11:33:26	11:34:53	86177	5.0.10.0	5_exp_noRW	94	Rpleas_acq	CS_A	ZHHZ	DXXD	YFFY	LWWL	CPPC	JQQJ	vertrauen	träumen	gütig	sonnig	genießen	küssen	versagen	töten	gierig	sterben	gemein	krank	53pct	acq_USunple_CSunple2_noRW	acq1_noRW	1	22	0	0	300	300	518	46	0	1	1	blank2r.bmp	0	1	+	0	1	blank2r.bmp	252	1	LWWL	306	1	sterben	559	0	0	0	0	0	0	0	0	0	0	0	0	0	0	0	0	0	0	0	0	0	0	0	0	0	0	0	0	0	0	0	0	0	0	0	0	0	0	0
081219	11:33:26	11:34:55	87857	5.0.10.0	5_exp_noRW	94	Rpleas_acq	CS_A	ZHHZ	DXXD	YFFY	LWWL	CPPC	JQQJ	vertrauen	träumen	gütig	sonnig	genießen	küssen	versagen	töten	gierig	sterben	gemein	krank	53pct	acq_USpleas_CSunple1_noRW	acq1_noRW	1	23	0	0	300	300	510	50	0	1	1	blank2r.bmp	0	1	+	0	1	blank2r.bmp	252	1	YFFY	306	3	gütig	559	0	0	0	0	0	0	0	0	0	0	0	0	0	0	0	0	0	0	0	0	0	0	0	0	0	0	0	0	0	0	0	0	0	0	0	0	0	0	0
081219	11:33:26	11:34:56	89456	5.0.10.0	5_exp_noRW	94	Rpleas_acq	CS_A	ZHHZ	DXXD	YFFY	LWWL	CPPC	JQQJ	vertrauen	träumen	gütig	sonnig	genießen	küssen	versagen	töten	gierig	sterben	gemein	krank	53pct	acq_USpleas_CSpleas2_noRW	acq1_noRW	1	24	0	0	300	300	419	50	0	1	1	blank2r.bmp	0	1	+	0	1	blank2r.bmp	252	1	DXXD	306	3	küssen	559	0	0	0	0	0	0	0	0	0	0	0	0	0	0	0	0	0	0	0	0	0	0	0	0	0	0	0	0	0	0	0	0	0	0	0	0	0	0	0
081219	11:33:26	11:34:58	91335	5.0.10.0	5_exp_noRW	94	Rpleas_acq	CS_A	ZHHZ	DXXD	YFFY	LWWL	CPPC	JQQJ	vertrauen	träumen	gütig	sonnig	genießen	küssen	versagen	töten	gierig	sterben	gemein	krank	47pct	acq_USunple_CSpleas1_noRW	acq1_noRW	1	25	0	0	300	300	717	46	0	1	1	blank2r.bmp	0	1	+	0	1	blank2r.bmp	252	1	ZHHZ	306	3	gierig	559	0	0	0	0	0	0	0	0	0	0	0	0	0	0	0	0	0	0	0	0	0	0	0	0	0	0	0	0	0	0	0	0	0	0	0	0	0	0	0
081219	11:33:26	11:35:00	92948	5.0.10.0	5_exp_noRW	94	Rpleas_acq	CS_A	ZHHZ	DXXD	YFFY	LWWL	CPPC	JQQJ	vertrauen	träumen	gütig	sonnig	genießen	küssen	versagen	töten	gierig	sterben	gemein	krank	47pct	acq_USpleas_CSpleas2_noRW	acq1_noRW	1	26	0	0	300	300	431	50	0	1	1	blank2r.bmp	0	1	+	0	1	blank2r.bmp	252	1	DXXD	306	2	genießen	559	0	0	0	0	0	0	0	0	0	0	0	0	0	0	0	0	0	0	0	0	0	0	0	0	0	0	0	0	0	0	0	0	0	0	0	0	0	0	0
081219	11:33:26	11:35:02	94507	5.0.10.0	5_exp_noRW	94	Rpleas_acq	CS_A	ZHHZ	DXXD	YFFY	LWWL	CPPC	JQQJ	vertrauen	träumen	gütig	sonnig	genießen	küssen	versagen	töten	gierig	sterben	gemein	krank	47pct	acq_USpleas_CSpleas2_noRW	acq1_noRW	1	27	0	0	300	300	390	50	0	1	1	blank2r.bmp	0	1	+	0	1	blank2r.bmp	252	1	DXXD	306	3	küssen	559	0	0	0	0	0	0	0	0	0	0	0	0	0	0	0	0	0	0	0	0	0	0	0	0	0	0	0	0	0	0	0	0	0	0	0	0	0	0	0
081219	11:33:26	11:35:03	96107	5.0.10.0	5_exp_noRW	94	Rpleas_acq	CS_A	ZHHZ	DXXD	YFFY	LWWL	CPPC	JQQJ	vertrauen	träumen	gütig	sonnig	genießen	küssen	versagen	töten	gierig	sterben	gemein	krank	53pct	acq_USunple_CSunple2_noRW	acq1_noRW	1	28	0	0	300	300	428	46	0	1	1	blank2r.bmp	0	1	+	0	1	blank2r.bmp	252	1	LWWL	306	3	krank	559	0	0	0	0	0	0	0	0	0	0	0	0	0	0	0	0	0	0	0	0	0	0	0	0	0	0	0	0	0	0	0	0	0	0	0	0	0	0	0
081219	11:33:26	11:35:05	97759	5.0.10.0	5_exp_noRW	94	Rpleas_acq	CS_A	ZHHZ	DXXD	YFFY	LWWL	CPPC	JQQJ	vertrauen	träumen	gütig	sonnig	genießen	küssen	versagen	töten	gierig	sterben	gemein	krank	47pct	acq_USpleas_CSunple2_noRW	acq1_noRW	1	29	0	0	300	300	487	50	0	1	1	blank2r.bmp	0	1	+	0	1	blank2r.bmp	252	1	LWWL	306	2	genießen	559	0	0	0	0	0	0	0	0	0	0	0	0	0	0	0	0	0	0	0	0	0	0	0	0	0	0	0	0	0	0	0	0	0	0	0	0	0	0	0
081219	11:33:26	11:35:07	99505	5.0.10.0	5_exp_noRW	94	Rpleas_acq	CS_A	ZHHZ	DXXD	YFFY	LWWL	CPPC	JQQJ	vertrauen	träumen	gütig	sonnig	genießen	küssen	versagen	töten	gierig	sterben	gemein	krank	53pct	acq_USunple_CSunple2_noRW	acq1_noRW	1	30	0	0	300	300	569	46	0	1	1	blank2r.bmp	0	1	+	0	1	blank2r.bmp	252	1	LWWL	306	1	sterben	559	0	0	0	0	0	0	0	0	0	0	0	0	0	0	0	0	0	0	0	0	0	0	0	0	0	0	0	0	0	0	0	0	0	0	0	0	0	0	0
081219	11:33:26	11:35:08	101131	5.0.10.0	5_exp_noRW	94	Rpleas_acq	CS_A	ZHHZ	DXXD	YFFY	LWWL	CPPC	JQQJ	vertrauen	träumen	gütig	sonnig	genießen	küssen	versagen	töten	gierig	sterben	gemein	krank	47pct	acq_USpleas_CSpleas2_noRW	acq1_noRW	1	31	0	0	300	300	441	50	0	1	1	blank2r.bmp	0	1	+	0	1	blank2r.bmp	252	1	DXXD	306	1	sonnig	559	0	0	0	0	0	0	0	0	0	0	0	0	0	0	0	0	0	0	0	0	0	0	0	0	0	0	0	0	0	0	0	0	0	0	0	0	0	0	0
081219	11:33:26	11:35:10	102904	5.0.10.0	5_exp_noRW	94	Rpleas_acq	CS_A	ZHHZ	DXXD	YFFY	LWWL	CPPC	JQQJ	vertrauen	träumen	gütig	sonnig	genießen	küssen	versagen	töten	gierig	sterben	gemein	krank	53pct	acq_USunple_CSunple1_noRW	acq1_noRW	1	32	0	0	300	300	598	46	0	1	1	blank2r.bmp	0	1	+	0	1	blank2r.bmp	252	1	YFFY	306	1	versagen	559	0	0	0	0	0	0	0	0	0	0	0	0	0	0	0	0	0	0	0	0	0	0	0	0	0	0	0	0	0	0	0	0	0	0	0	0	0	0	0
081219	11:33:26	11:35:12	105423	5.0.10.0	5_exp_noRW	94	Rpleas_acq	CS_A	ZHHZ	DXXD	YFFY	LWWL	CPPC	JQQJ	vertrauen	träumen	gütig	sonnig	genießen	küssen	versagen	töten	gierig	sterben	gemein	krank	47pct	acq_USunple_CSpleas2_noRW	acq1_noRW	1	33	0	0	300	300	1350	46	0	1	1	blank2r.bmp	0	1	+	0	1	blank2r.bmp	252	1	DXXD	306	1	sterben	559	0	0	0	0	0	0	0	0	0	0	0	0	0	0	0	0	0	0	0	0	0	0	0	0	0	0	0	0	0	0	0	0	0	0	0	0	0	0	0
081219	11:33:26	11:35:14	107355	5.0.10.0	5_exp_noRW	94	Rpleas_acq	CS_A	ZHHZ	DXXD	YFFY	LWWL	CPPC	JQQJ	vertrauen	träumen	gütig	sonnig	genießen	küssen	versagen	töten	gierig	sterben	gemein	krank	53pct	acq_USunple_CSunple2_noRW	acq1_noRW	1	34	0	0	300	300	757	46	0	1	1	blank2r.bmp	0	1	+	0	1	blank2r.bmp	252	1	LWWL	306	2	gemein	559	0	0	0	0	0	0	0	0	0	0	0	0	0	0	0	0	0	0	0	0	0	0	0	0	0	0	0	0	0	0	0	0	0	0	0	0	0	0	0
081219	11:33:26	11:35:16	109061	5.0.10.0	5_exp_noRW	94	Rpleas_acq	CS_A	ZHHZ	DXXD	YFFY	LWWL	CPPC	JQQJ	vertrauen	träumen	gütig	sonnig	genießen	küssen	versagen	töten	gierig	sterben	gemein	krank	47pct	acq_USpleas_CSpleas1_noRW	acq1_noRW	1	35	0	0	300	300	520	50	0	1	1	blank2r.bmp	0	1	+	0	1	blank2r.bmp	252	1	ZHHZ	306	1	vertrauen	559	0	0	0	0	0	0	0	0	0	0	0	0	0	0	0	0	0	0	0	0	0	0	0	0	0	0	0	0	0	0	0	0	0	0	0	0	0	0	0
081219	11:33:26	11:35:18	110607	5.0.10.0	5_exp_noRW	94	Rpleas_acq	CS_A	ZHHZ	DXXD	YFFY	LWWL	CPPC	JQQJ	vertrauen	träumen	gütig	sonnig	genießen	küssen	versagen	töten	gierig	sterben	gemein	krank	53pct	acq_USpleas_CSpleas1_noRW	acq1_noRW	1	36	0	0	300	300	365	50	0	1	1	blank2r.bmp	0	1	+	0	1	blank2r.bmp	252	1	ZHHZ	306	2	träumen	559	0	0	0	0	0	0	0	0	0	0	0	0	0	0	0	0	0	0	0	0	0	0	0	0	0	0	0	0	0	0	0	0	0	0	0	0	0	0	0
081219	11:33:26	11:35:19	112113	5.0.10.0	5_exp_noRW	94	Rpleas_acq	CS_A	ZHHZ	DXXD	YFFY	LWWL	CPPC	JQQJ	vertrauen	träumen	gütig	sonnig	genießen	küssen	versagen	töten	gierig	sterben	gemein	krank	53pct	acq_USpleas_CSpleas1_noRW	acq1_noRW	1	37	0	0	300	300	345	50	0	1	1	blank2r.bmp	0	1	+	0	1	blank2r.bmp	252	1	ZHHZ	306	3	gütig	559	0	0	0	0	0	0	0	0	0	0	0	0	0	0	0	0	0	0	0	0	0	0	0	0	0	0	0	0	0	0	0	0	0	0	0	0	0	0	0
081219	11:33:26	11:35:21	113939	5.0.10.0	5_exp_noRW	94	Rpleas_acq	CS_A	ZHHZ	DXXD	YFFY	LWWL	CPPC	JQQJ	vertrauen	träumen	gütig	sonnig	genießen	küssen	versagen	töten	gierig	sterben	gemein	krank	47pct	acq_USunple_CSunple1_noRW	acq1_noRW	1	38	0	0	300	300	647	46	0	1	1	blank2r.bmp	0	1	+	0	1	blank2r.bmp	252	1	YFFY	306	3	gierig	559	0	0	0	0	0	0	0	0	0	0	0	0	0	0	0	0	0	0	0	0	0	0	0	0	0	0	0	0	0	0	0	0	0	0	0	0	0	0	0
081219	11:33:26	11:35:23	115952	5.0.10.0	5_exp_noRW	94	Rpleas_acq	CS_A	ZHHZ	DXXD	YFFY	LWWL	CPPC	JQQJ	vertrauen	träumen	gütig	sonnig	genießen	küssen	versagen	töten	gierig	sterben	gemein	krank	47pct	acq_USunple_CSunple1_noRW	acq1_noRW	1	39	0	0	300	300	836	46	0	1	1	blank2r.bmp	0	1	+	0	1	blank2r.bmp	252	1	YFFY	306	1	versagen	559	0	0	0	0	0	0	0	0	0	0	0	0	0	0	0	0	0	0	0	0	0	0	0	0	0	0	0	0	0	0	0	0	0	0	0	0	0	0	0
081219	11:33:26	11:35:25	117578	5.0.10.0	5_exp_noRW	94	Rpleas_acq	CS_A	ZHHZ	DXXD	YFFY	LWWL	CPPC	JQQJ	vertrauen	träumen	gütig	sonnig	genießen	küssen	versagen	töten	gierig	sterben	gemein	krank	53pct	acq_USpleas_CSpleas1_noRW	acq1_noRW	1	40	0	0	300	300	449	50	0	1	1	blank2r.bmp	0	1	+	0	1	blank2r.bmp	252	1	ZHHZ	306	2	träumen	559	0	0	0	0	0	0	0	0	0	0	0	0	0	0	0	0	0	0	0	0	0	0	0	0	0	0	0	0	0	0	0	0	0	0	0	0	0	0	0
081219	11:33:26	11:35:27	119590	5.0.10.0	5_exp_noRW	94	Rpleas_acq	CS_A	ZHHZ	DXXD	YFFY	LWWL	CPPC	JQQJ	vertrauen	träumen	gütig	sonnig	genießen	küssen	versagen	töten	gierig	sterben	gemein	krank	47pct	acq_USpleas_CSpleas1_noRW	acq1_noRW	1	41	0	0	300	300	830	50	0	1	1	blank2r.bmp	0	1	+	0	1	blank2r.bmp	252	1	ZHHZ	306	1	vertrauen	559	0	0	0	0	0	0	0	0	0	0	0	0	0	0	0	0	0	0	0	0	0	0	0	0	0	0	0	0	0	0	0	0	0	0	0	0	0	0	0
081219	11:33:26	11:35:28	121123	5.0.10.0	5_exp_noRW	94	Rpleas_acq	CS_A	ZHHZ	DXXD	YFFY	LWWL	CPPC	JQQJ	vertrauen	träumen	gütig	sonnig	genießen	küssen	versagen	töten	gierig	sterben	gemein	krank	53pct	acq_USpleas_CSpleas2_noRW	acq1_noRW	1	42	0	0	300	300	351	50	0	1	1	blank2r.bmp	0	1	+	0	1	blank2r.bmp	252	1	DXXD	306	2	genießen	559	0	0	0	0	0	0	0	0	0	0	0	0	0	0	0	0	0	0	0	0	0	0	0	0	0	0	0	0	0	0	0	0	0	0	0	0	0	0	0
081219	11:33:26	11:35:30	122749	5.0.10.0	5_exp_noRW	94	Rpleas_acq	CS_A	ZHHZ	DXXD	YFFY	LWWL	CPPC	JQQJ	vertrauen	träumen	gütig	sonnig	genießen	küssen	versagen	töten	gierig	sterben	gemein	krank	47pct	acq_USunple_CSunple2_noRW	acq1_noRW	1	43	0	0	300	300	463	46	0	1	1	blank2r.bmp	0	1	+	0	1	blank2r.bmp	252	1	LWWL	306	3	krank	559	0	0	0	0	0	0	0	0	0	0	0	0	0	0	0	0	0	0	0	0	0	0	0	0	0	0	0	0	0	0	0	0	0	0	0	0	0	0	0
081219	11:33:26	11:35:31	124428	5.0.10.0	5_exp_noRW	94	Rpleas_acq	CS_A	ZHHZ	DXXD	YFFY	LWWL	CPPC	JQQJ	vertrauen	träumen	gütig	sonnig	genießen	küssen	versagen	töten	gierig	sterben	gemein	krank	53pct	acq_USunple_CSpleas1_noRW	acq1_noRW	1	44	0	0	300	300	497	46	0	1	1	blank2r.bmp	0	1	+	0	1	blank2r.bmp	252	1	ZHHZ	306	2	töten	559	0	0	0	0	0	0	0	0	0	0	0	0	0	0	0	0	0	0	0	0	0	0	0	0	0	0	0	0	0	0	0	0	0	0	0	0	0	0	0
081219	11:33:26	11:35:33	126174	5.0.10.0	5_exp_noRW	94	Rpleas_acq	CS_A	ZHHZ	DXXD	YFFY	LWWL	CPPC	JQQJ	vertrauen	träumen	gütig	sonnig	genießen	küssen	versagen	töten	gierig	sterben	gemein	krank	53pct	acq_USpleas_CSpleas1_noRW	acq1_noRW	1	45	0	0	300	300	584	50	0	1	1	blank2r.bmp	0	1	+	0	1	blank2r.bmp	252	1	ZHHZ	306	2	träumen	559	0	0	0	0	0	0	0	0	0	0	0	0	0	0	0	0	0	0	0	0	0	0	0	0	0	0	0	0	0	0	0	0	0	0	0	0	0	0	0
081219	11:33:26	11:35:35	127787	5.0.10.0	5_exp_noRW	94	Rpleas_acq	CS_A	ZHHZ	DXXD	YFFY	LWWL	CPPC	JQQJ	vertrauen	träumen	gütig	sonnig	genießen	küssen	versagen	töten	gierig	sterben	gemein	krank	47pct	acq_USpleas_CSpleas1_noRW	acq1_noRW	1	46	0	0	300	300	437	50	0	1	1	blank2r.bmp	0	1	+	0	1	blank2r.bmp	252	1	ZHHZ	306	1	vertrauen	559	0	0	0	0	0	0	0	0	0	0	0	0	0	0	0	0	0	0	0	0	0	0	0	0	0	0	0	0	0	0	0	0	0	0	0	0	0	0	0
081219	11:33:26	11:35:36	129413	5.0.10.0	5_exp_noRW	94	Rpleas_acq	CS_A	ZHHZ	DXXD	YFFY	LWWL	CPPC	JQQJ	vertrauen	träumen	gütig	sonnig	genießen	küssen	versagen	töten	gierig	sterben	gemein	krank	47pct	acq_USunple_CSunple2_noRW	acq1_noRW	1	47	0	0	300	300	451	46	0	1	1	blank2r.bmp	0	1	+	0	1	blank2r.bmp	252	1	LWWL	306	2	gemein	559	0	0	0	0	0	0	0	0	0	0	0	0	0	0	0	0	0	0	0	0	0	0	0	0	0	0	0	0	0	0	0	0	0	0	0	0	0	0	0
081219	11:33:26	11:35:38	131052	5.0.10.0	5_exp_noRW	94	Rpleas_acq	CS_A	ZHHZ	DXXD	YFFY	LWWL	CPPC	JQQJ	vertrauen	träumen	gütig	sonnig	genießen	küssen	versagen	töten	gierig	sterben	gemein	krank	47pct	acq_USunple_CSunple1_noRW	acq1_noRW	1	48	0	0	300	300	454	46	0	1	1	blank2r.bmp	0	1	+	0	1	blank2r.bmp	252	1	YFFY	306	2	töten	559	0	0	0	0	0	0	0	0	0	0	0	0	0	0	0	0	0	0	0	0	0	0	0	0	0	0	0	0	0	0	0	0	0	0	0	0	0	0	0
081219	11:33:26	11:35:40	132678	5.0.10.0	5_exp_noRW	94	Rpleas_acq	CS_A	ZHHZ	DXXD	YFFY	LWWL	CPPC	JQQJ	vertrauen	träumen	gütig	sonnig	genießen	küssen	versagen	töten	gierig	sterben	gemein	krank	53pct	acq_USunple_CSunple2_noRW	acq1_noRW	1	49	0	0	300	300	457	46	0	1	1	blank2r.bmp	0	1	+	0	1	blank2r.bmp	252	1	LWWL	306	1	sterben	559	0	0	0	0	0	0	0	0	0	0	0	0	0	0	0	0	0	0	0	0	0	0	0	0	0	0	0	0	0	0	0	0	0	0	0	0	0	0	0
081219	11:33:26	11:35:41	134318	5.0.10.0	5_exp_noRW	94	Rpleas_acq	CS_A	ZHHZ	DXXD	YFFY	LWWL	CPPC	JQQJ	vertrauen	träumen	gütig	sonnig	genießen	küssen	versagen	töten	gierig	sterben	gemein	krank	47pct	acq_USpleas_CSpleas2_noRW	acq1_noRW	1	50	0	0	300	300	453	50	0	1	1	blank2r.bmp	0	1	+	0	1	blank2r.bmp	252	1	DXXD	306	1	sonnig	559	0	0	0	0	0	0	0	0	0	0	0	0	0	0	0	0	0	0	0	0	0	0	0	0	0	0	0	0	0	0	0	0	0	0	0	0	0	0	0
081219	11:33:26	11:35:43	135890	5.0.10.0	5_exp_noRW	94	Rpleas_acq	CS_A	ZHHZ	DXXD	YFFY	LWWL	CPPC	JQQJ	vertrauen	träumen	gütig	sonnig	genießen	küssen	versagen	töten	gierig	sterben	gemein	krank	53pct	acq_USunple_CSunple2_noRW	acq1_noRW	1	51	0	0	300	300	387	46	0	1	1	blank2r.bmp	0	1	+	0	1	blank2r.bmp	252	1	LWWL	306	3	krank	559	0	0	0	0	0	0	0	0	0	0	0	0	0	0	0	0	0	0	0	0	0	0	0	0	0	0	0	0	0	0	0	0	0	0	0	0	0	0	0
081219	11:33:26	11:35:45	137490	5.0.10.0	5_exp_noRW	94	Rpleas_acq	CS_A	ZHHZ	DXXD	YFFY	LWWL	CPPC	JQQJ	vertrauen	träumen	gütig	sonnig	genießen	küssen	versagen	töten	gierig	sterben	gemein	krank	47pct	acq_USpleas_CSpleas2_noRW	acq1_noRW	1	52	0	0	300	300	418	50	0	1	1	blank2r.bmp	0	1	+	0	1	blank2r.bmp	252	1	DXXD	306	3	küssen	559	0	0	0	0	0	0	0	0	0	0	0	0	0	0	0	0	0	0	0	0	0	0	0	0	0	0	0	0	0	0	0	0	0	0	0	0	0	0	0
081219	11:33:26	11:35:46	139169	5.0.10.0	5_exp_noRW	94	Rpleas_acq	CS_A	ZHHZ	DXXD	YFFY	LWWL	CPPC	JQQJ	vertrauen	träumen	gütig	sonnig	genießen	küssen	versagen	töten	gierig	sterben	gemein	krank	47pct	acq_USpleas_CSunple2_noRW	acq1_noRW	1	53	0	0	300	300	510	50	0	1	1	blank2r.bmp	0	1	+	0	1	blank2r.bmp	252	1	LWWL	306	1	sonnig	559	0	0	0	0	0	0	0	0	0	0	0	0	0	0	0	0	0	0	0	0	0	0	0	0	0	0	0	0	0	0	0	0	0	0	0	0	0	0	0
081219	11:33:26	11:35:48	140768	5.0.10.0	5_exp_noRW	94	Rpleas_acq	CS_A	ZHHZ	DXXD	YFFY	LWWL	CPPC	JQQJ	vertrauen	träumen	gütig	sonnig	genießen	küssen	versagen	töten	gierig	sterben	gemein	krank	47pct	acq_USunple_CSpleas2_noRW	acq1_noRW	1	54	0	0	300	300	422	46	0	1	1	blank2r.bmp	0	1	+	0	1	blank2r.bmp	252	1	DXXD	306	2	gemein	559	0	0	0	0	0	0	0	0	0	0	0	0	0	0	0	0	0	0	0	0	0	0	0	0	0	0	0	0	0	0	0	0	0	0	0	0	0	0	0
081219	11:33:26	11:35:50	142554	5.0.10.0	5_exp_noRW	94	Rpleas_acq	CS_A	ZHHZ	DXXD	YFFY	LWWL	CPPC	JQQJ	vertrauen	träumen	gütig	sonnig	genießen	küssen	versagen	töten	gierig	sterben	gemein	krank	53pct	acq_USpleas_CSpleas1_noRW	acq1_noRW	1	55	0	0	300	300	606	50	0	1	1	blank2r.bmp	0	1	+	0	1	blank2r.bmp	252	1	ZHHZ	306	3	gütig	559	0	0	0	0	0	0	0	0	0	0	0	0	0	0	0	0	0	0	0	0	0	0	0	0	0	0	0	0	0	0	0	0	0	0	0	0	0	0	0
081219	11:33:26	11:35:51	144300	5.0.10.0	5_exp_noRW	94	Rpleas_acq	CS_A	ZHHZ	DXXD	YFFY	LWWL	CPPC	JQQJ	vertrauen	träumen	gütig	sonnig	genießen	küssen	versagen	töten	gierig	sterben	gemein	krank	53pct	acq_USunple_CSunple1_noRW	acq1_noRW	1	56	0	0	300	300	561	46	0	1	1	blank2r.bmp	0	1	+	0	1	blank2r.bmp	252	1	YFFY	306	1	versagen	559	0	0	0	0	0	0	0	0	0	0	0	0	0	0	0	0	0	0	0	0	0	0	0	0	0	0	0	0	0	0	0	0	0	0	0	0	0	0	0
081219	11:33:26	11:35:53	146179	5.0.10.0	5_exp_noRW	94	Rpleas_acq	CS_A	ZHHZ	DXXD	YFFY	LWWL	CPPC	JQQJ	vertrauen	träumen	gütig	sonnig	genießen	küssen	versagen	töten	gierig	sterben	gemein	krank	53pct	acq_USunple_CSunple1_noRW	acq1_noRW	1	57	0	0	300	300	693	46	0	1	1	blank2r.bmp	0	1	+	0	1	blank2r.bmp	252	1	YFFY	306	3	gierig	559	0	0	0	0	0	0	0	0	0	0	0	0	0	0	0	0	0	0	0	0	0	0	0	0	0	0	0	0	0	0	0	0	0	0	0	0	0	0	0
081219	11:33:26	11:35:56	148512	5.0.10.0	5_exp_noRW	94	Rpleas_acq	CS_A	ZHHZ	DXXD	YFFY	LWWL	CPPC	JQQJ	vertrauen	träumen	gütig	sonnig	genießen	küssen	versagen	töten	gierig	sterben	gemein	krank	53pct	acq_USpleas_CSunple1_noRW	acq1_noRW	1	58	0	0	300	300	1169	50	0	1	1	blank2r.bmp	0	1	+	0	1	blank2r.bmp	252	1	YFFY	306	2	träumen	559	0	0	0	0	0	0	0	0	0	0	0	0	0	0	0	0	0	0	0	0	0	0	0	0	0	0	0	0	0	0	0	0	0	0	0	0	0	0	0
081219	11:33:26	11:35:57	150044	5.0.10.0	5_exp_noRW	94	Rpleas_acq	CS_A	ZHHZ	DXXD	YFFY	LWWL	CPPC	JQQJ	vertrauen	träumen	gütig	sonnig	genießen	küssen	versagen	töten	gierig	sterben	gemein	krank	53pct	acq_USunple_CSunple1_noRW	acq1_noRW	1	59	0	0	300	300	353	46	0	1	1	blank2r.bmp	0	1	+	0	1	blank2r.bmp	252	1	YFFY	306	2	töten	559	0	0	0	0	0	0	0	0	0	0	0	0	0	0	0	0	0	0	0	0	0	0	0	0	0	0	0	0	0	0	0	0	0	0	0	0	0	0	0
081219	11:33:26	11:35:59	151670	5.0.10.0	5_exp_noRW	94	Rpleas_acq	CS_A	ZHHZ	DXXD	YFFY	LWWL	CPPC	JQQJ	vertrauen	träumen	gütig	sonnig	genießen	küssen	versagen	töten	gierig	sterben	gemein	krank	47pct	acq_USpleas_CSpleas2_noRW	acq1_noRW	1	60	0	0	300	300	462	50	0	1	1	blank2r.bmp	0	1	+	0	1	blank2r.bmp	252	1	DXXD	306	2	genießen	559	0	0	0	0	0	0	0	0	0	0	0	0	0	0	0	0	0	0	0	0	0	0	0	0	0	0	0	0	0	0	0	0	0	0	0	0	0	0	0
081219	11:33:26	11:36:00	153256	5.0.10.0	5_exp_noRW	94	Rpleas_acq	CS_A	ZHHZ	DXXD	YFFY	LWWL	CPPC	JQQJ	vertrauen	träumen	gütig	sonnig	genießen	küssen	versagen	töten	gierig	sterben	gemein	krank	53pct	acq_USunple_CSunple2_noRW	acq1_noRW	1	61	0	0	300	300	398	46	0	1	1	blank2r.bmp	0	1	+	0	1	blank2r.bmp	252	1	LWWL	306	3	krank	559	0	0	0	0	0	0	0	0	0	0	0	0	0	0	0	0	0	0	0	0	0	0	0	0	0	0	0	0	0	0	0	0	0	0	0	0	0	0	0
081219	11:33:26	11:36:02	154882	5.0.10.0	5_exp_noRW	94	Rpleas_acq	CS_A	ZHHZ	DXXD	YFFY	LWWL	CPPC	JQQJ	vertrauen	träumen	gütig	sonnig	genießen	küssen	versagen	töten	gierig	sterben	gemein	krank	47pct	acq_USpleas_CSpleas2_noRW	acq1_noRW	1	62	0	0	300	300	458	50	0	1	1	blank2r.bmp	0	1	+	0	1	blank2r.bmp	252	1	DXXD	306	3	küssen	559	0	0	0	0	0	0	0	0	0	0	0	0	0	0	0	0	0	0	0	0	0	0	0	0	0	0	0	0	0	0	0	0	0	0	0	0	0	0	0
081219	11:33:26	11:36:04	156482	5.0.10.0	5_exp_noRW	94	Rpleas_acq	CS_A	ZHHZ	DXXD	YFFY	LWWL	CPPC	JQQJ	vertrauen	träumen	gütig	sonnig	genießen	küssen	versagen	töten	gierig	sterben	gemein	krank	53pct	acq_USunple_CSunple2_noRW	acq1_noRW	1	63	0	0	300	300	436	46	0	1	1	blank2r.bmp	0	1	+	0	1	blank2r.bmp	252	1	LWWL	306	1	sterben	559	0	0	0	0	0	0	0	0	0	0	0	0	0	0	0	0	0	0	0	0	0	0	0	0	0	0	0	0	0	0	0	0	0	0	0	0	0	0	0
081219	11:33:26	11:36:05	158134	5.0.10.0	5_exp_noRW	94	Rpleas_acq	CS_A	ZHHZ	DXXD	YFFY	LWWL	CPPC	JQQJ	vertrauen	träumen	gütig	sonnig	genießen	küssen	versagen	töten	gierig	sterben	gemein	krank	53pct	acq_USpleas_CSpleas1_noRW	acq1_noRW	1	64	0	0	300	300	475	50	0	1	1	blank2r.bmp	0	1	+	0	1	blank2r.bmp	252	1	ZHHZ	306	3	gütig	559	0	0	0	0	0	0	0	0	0	0	0	0	0	0	0	0	0	0	0	0	0	0	0	0	0	0	0	0	0	0	0	0	0	0	0	0	0	0	0
081219	11:33:26	11:36:07	159787	5.0.10.0	5_exp_noRW	94	Rpleas_acq	CS_A	ZHHZ	DXXD	YFFY	LWWL	CPPC	JQQJ	vertrauen	träumen	gütig	sonnig	genießen	küssen	versagen	töten	gierig	sterben	gemein	krank	47pct	acq_USunple_CSunple1_noRW	acq1_noRW	1	65	0	0	300	300	468	46	0	1	1	blank2r.bmp	0	1	+	0	1	blank2r.bmp	252	1	YFFY	306	3	gierig	559	0	0	0	0	0	0	0	0	0	0	0	0	0	0	0	0	0	0	0	0	0	0	0	0	0	0	0	0	0	0	0	0	0	0	0	0	0	0	0
081219	11:33:26	11:36:09	161640	5.0.10.0	5_exp_noRW	94	Rpleas_acq	CS_A	ZHHZ	DXXD	YFFY	LWWL	CPPC	JQQJ	vertrauen	träumen	gütig	sonnig	genießen	küssen	versagen	töten	gierig	sterben	gemein	krank	53pct	acq_USunple_CSunple2_noRW	acq1_noRW	1	66	0	0	300	300	686	46	0	1	1	blank2r.bmp	0	1	+	0	1	blank2r.bmp	252	1	LWWL	306	2	gemein	559	0	0	0	0	0	0	0	0	0	0	0	0	0	0	0	0	0	0	0	0	0	0	0	0	0	0	0	0	0	0	0	0	0	0	0	0	0	0	0
081219	11:33:26	11:36:10	163292	5.0.10.0	5_exp_noRW	94	Rpleas_acq	CS_A	ZHHZ	DXXD	YFFY	LWWL	CPPC	JQQJ	vertrauen	träumen	gütig	sonnig	genießen	küssen	versagen	töten	gierig	sterben	gemein	krank	53pct	acq_USunple_CSunple2_noRW	acq1_noRW	1	67	0	0	300	300	470	46	0	1	1	blank2r.bmp	0	1	+	0	1	blank2r.bmp	252	1	LWWL	306	1	sterben	559	0	0	0	0	0	0	0	0	0	0	0	0	0	0	0	0	0	0	0	0	0	0	0	0	0	0	0	0	0	0	0	0	0	0	0	0	0	0	0
081219	11:33:26	11:36:12	164812	5.0.10.0	5_exp_noRW	94	Rpleas_acq	CS_A	ZHHZ	DXXD	YFFY	LWWL	CPPC	JQQJ	vertrauen	träumen	gütig	sonnig	genießen	küssen	versagen	töten	gierig	sterben	gemein	krank	47pct	acq_USunple_CSunple1_noRW	acq1_noRW	1	68	0	0	300	300	352	46	0	1	1	blank2r.bmp	0	1	+	0	1	blank2r.bmp	252	1	YFFY	306	1	versagen	559	0	0	0	0	0	0	0	0	0	0	0	0	0	0	0	0	0	0	0	0	0	0	0	0	0	0	0	0	0	0	0	0	0	0	0	0	0	0	0
081219	11:33:26	11:36:13	166451	5.0.10.0	5_exp_noRW	94	Rpleas_acq	CS_A	ZHHZ	DXXD	YFFY	LWWL	CPPC	JQQJ	vertrauen	träumen	gütig	sonnig	genießen	küssen	versagen	töten	gierig	sterben	gemein	krank	53pct	acq_USpleas_CSpleas1_noRW	acq1_noRW	1	69	0	0	300	300	458	50	0	1	1	blank2r.bmp	0	1	+	0	1	blank2r.bmp	252	1	ZHHZ	306	1	vertrauen	559	0	0	0	0	0	0	0	0	0	0	0	0	0	0	0	0	0	0	0	0	0	0	0	0	0	0	0	0	0	0	0	0	0	0	0	0	0	0	0
081219	11:33:26	11:36:15	168024	5.0.10.0	5_exp_noRW	94	Rpleas_acq	CS_A	ZHHZ	DXXD	YFFY	LWWL	CPPC	JQQJ	vertrauen	träumen	gütig	sonnig	genießen	küssen	versagen	töten	gierig	sterben	gemein	krank	53pct	acq_USpleas_CSpleas1_noRW	acq1_noRW	1	70	0	0	300	300	392	50	0	1	1	blank2r.bmp	0	1	+	0	1	blank2r.bmp	252	1	ZHHZ	306	2	träumen	559	0	0	0	0	0	0	0	0	0	0	0	0	0	0	0	0	0	0	0	0	0	0	0	0	0	0	0	0	0	0	0	0	0	0	0	0	0	0	0
081219	11:33:26	11:36:17	169716	5.0.10.0	5_exp_noRW	94	Rpleas_acq	CS_A	ZHHZ	DXXD	YFFY	LWWL	CPPC	JQQJ	vertrauen	träumen	gütig	sonnig	genießen	küssen	versagen	töten	gierig	sterben	gemein	krank	47pct	acq_USunple_CSpleas2_noRW	acq1_noRW	1	71	0	0	300	300	514	46	0	1	1	blank2r.bmp	0	1	+	0	1	blank2r.bmp	252	1	DXXD	306	2	gemein	559	0	0	0	0	0	0	0	0	0	0	0	0	0	0	0	0	0	0	0	0	0	0	0	0	0	0	0	0	0	0	0	0	0	0	0	0	0	0	0
081219	11:33:26	11:36:19	172409	5.0.10.0	5_exp_noRW	94	Rpleas_acq	CS_A	ZHHZ	DXXD	YFFY	LWWL	CPPC	JQQJ	vertrauen	träumen	gütig	sonnig	genießen	küssen	versagen	töten	gierig	sterben	gemein	krank	53pct	acq_USpleas_CSpleas1_noRW	acq1_noRW	1	72	0	0	300	300	1530	50	0	1	1	blank2r.bmp	0	1	+	0	1	blank2r.bmp	252	1	ZHHZ	306	1	vertrauen	559	0	0	0	0	0	0	0	0	0	0	0	0	0	0	0	0	0	0	0	0	0	0	0	0	0	0	0	0	0	0	0	0	0	0	0	0	0	0	0
081219	11:33:26	11:36:21	174035	5.0.10.0	5_exp_noRW	94	Rpleas_acq	CS_A	ZHHZ	DXXD	YFFY	LWWL	CPPC	JQQJ	vertrauen	träumen	gütig	sonnig	genießen	küssen	versagen	töten	gierig	sterben	gemein	krank	47pct	acq_USpleas_CSpleas2_noRW	acq1_noRW	1	73	0	0	300	300	438	50	0	1	1	blank2r.bmp	0	1	+	0	1	blank2r.bmp	252	1	DXXD	306	1	sonnig	559	0	0	0	0	0	0	0	0	0	0	0	0	0	0	0	0	0	0	0	0	0	0	0	0	0	0	0	0	0	0	0	0	0	0	0	0	0	0	0
081219	11:33:26	11:36:23	175634	5.0.10.0	5_exp_noRW	94	Rpleas_acq	CS_A	ZHHZ	DXXD	YFFY	LWWL	CPPC	JQQJ	vertrauen	träumen	gütig	sonnig	genießen	küssen	versagen	töten	gierig	sterben	gemein	krank	53pct	acq_USpleas_CSunple2_noRW	acq1_noRW	1	74	0	0	300	300	420	50	0	1	1	blank2r.bmp	0	1	+	0	1	blank2r.bmp	252	1	LWWL	306	3	küssen	559	0	0	0	0	0	0	0	0	0	0	0	0	0	0	0	0	0	0	0	0	0	0	0	0	0	0	0	0	0	0	0	0	0	0	0	0	0	0	0
081219	11:33:26	11:36:24	177153	5.0.10.0	5_exp_noRW	94	Rpleas_acq	CS_A	ZHHZ	DXXD	YFFY	LWWL	CPPC	JQQJ	vertrauen	träumen	gütig	sonnig	genießen	küssen	versagen	töten	gierig	sterben	gemein	krank	53pct	acq_USpleas_CSpleas2_noRW	acq1_noRW	1	75	0	0	300	300	343	50	0	1	1	blank2r.bmp	0	1	+	0	1	blank2r.bmp	252	1	DXXD	306	2	genießen	559	0	0	0	0	0	0	0	0	0	0	0	0	0	0	0	0	0	0	0	0	0	0	0	0	0	0	0	0	0	0	0	0	0	0	0	0	0	0	0
081219	11:33:26	11:36:26	178699	5.0.10.0	5_exp_noRW	94	Rpleas_acq	CS_A	ZHHZ	DXXD	YFFY	LWWL	CPPC	JQQJ	vertrauen	träumen	gütig	sonnig	genießen	küssen	versagen	töten	gierig	sterben	gemein	krank	47pct	acq_USpleas_CSpleas2_noRW	acq1_noRW	1	76	0	0	300	300	371	50	0	1	1	blank2r.bmp	0	1	+	0	1	blank2r.bmp	252	1	DXXD	306	1	sonnig	559	0	0	0	0	0	0	0	0	0	0	0	0	0	0	0	0	0	0	0	0	0	0	0	0	0	0	0	0	0	0	0	0	0	0	0	0	0	0	0
081219	11:33:26	11:36:27	180365	5.0.10.0	5_exp_noRW	94	Rpleas_acq	CS_A	ZHHZ	DXXD	YFFY	LWWL	CPPC	JQQJ	vertrauen	träumen	gütig	sonnig	genießen	küssen	versagen	töten	gierig	sterben	gemein	krank	53pct	acq_USpleas_CSunple1_noRW	acq1_noRW	1	77	0	0	300	300	478	50	0	1	1	blank2r.bmp	0	1	+	0	1	blank2r.bmp	252	1	YFFY	306	2	träumen	559	0	0	0	0	0	0	0	0	0	0	0	0	0	0	0	0	0	0	0	0	0	0	0	0	0	0	0	0	0	0	0	0	0	0	0	0	0	0	0
081219	11:33:26	11:36:29	181978	5.0.10.0	5_exp_noRW	94	Rpleas_acq	CS_A	ZHHZ	DXXD	YFFY	LWWL	CPPC	JQQJ	vertrauen	träumen	gütig	sonnig	genießen	küssen	versagen	töten	gierig	sterben	gemein	krank	47pct	acq_USunple_CSpleas1_noRW	acq1_noRW	1	78	0	0	300	300	447	46	0	1	1	blank2r.bmp	0	1	+	0	1	blank2r.bmp	252	1	ZHHZ	306	1	versagen	559	0	0	0	0	0	0	0	0	0	0	0	0	0	0	0	0	0	0	0	0	0	0	0	0	0	0	0	0	0	0	0	0	0	0	0	0	0	0	0
081219	11:33:26	11:36:31	183497	5.0.10.0	5_exp_noRW	94	Rpleas_acq	CS_A	ZHHZ	DXXD	YFFY	LWWL	CPPC	JQQJ	vertrauen	träumen	gütig	sonnig	genießen	küssen	versagen	töten	gierig	sterben	gemein	krank	47pct	acq_USunple_CSunple1_noRW	acq1_noRW	1	79	0	0	300	300	354	46	0	1	1	blank2r.bmp	0	1	+	0	1	blank2r.bmp	252	1	YFFY	306	2	töten	559	0	0	0	0	0	0	0	0	0	0	0	0	0	0	0	0	0	0	0	0	0	0	0	0	0	0	0	0	0	0	0	0	0	0	0	0	0	0	0
081219	11:33:26	11:36:32	184990	5.0.10.0	5_exp_noRW	94	Rpleas_acq	CS_A	ZHHZ	DXXD	YFFY	LWWL	CPPC	JQQJ	vertrauen	träumen	gütig	sonnig	genießen	küssen	versagen	töten	gierig	sterben	gemein	krank	47pct	acq_USunple_CSunple1_noRW	acq1_noRW	1	80	0	0	300	300	306	46	0	1	1	blank2r.bmp	0	1	+	0	1	blank2r.bmp	252	1	YFFY	306	2	töten	559	0	0	0	0	0	0	0	0	0	0	0	0	0	0	0	0	0	0	0	0	0	0	0	0	0	0	0	0	0	0	0	0	0	0	0	0	0	0	0
081219	11:33:26	11:36:42	194706	5.0.10.0	5_exp_noRW	94	Rpleas_acq	CS_A	ZHHZ	DXXD	YFFY	LWWL	CPPC	JQQJ	vertrauen	träumen	gütig	sonnig	genießen	küssen	versagen	töten	gierig	sterben	gemein	krank	53pct	acq_USpleas_CSunple1_noRW	acq23456_noRW	2	1	0	0	300	300	502	50	0	1	1	blank2r.bmp	0	1	+	0	1	blank2r.bmp	252	1	YFFY	306	1	vertrauen	559	0	0	0	0	0	0	0	0	0	0	0	0	0	0	0	0	0	0	0	0	0	0	0	0	0	0	0	0	0	0	0	0	0	0	0	0	0	0	0
081219	11:33:26	11:36:43	196239	5.0.10.0	5_exp_noRW	94	Rpleas_acq	CS_A	ZHHZ	DXXD	YFFY	LWWL	CPPC	JQQJ	vertrauen	träumen	gütig	sonnig	genießen	küssen	versagen	töten	gierig	sterben	gemein	krank	53pct	acq_USpleas_CSpleas2_noRW	acq23456_noRW	2	2	0	0	300	300	359	50	0	1	1	blank2r.bmp	0	1	+	0	1	blank2r.bmp	252	1	DXXD	306	3	küssen	559	0	0	0	0	0	0	0	0	0	0	0	0	0	0	0	0	0	0	0	0	0	0	0	0	0	0	0	0	0	0	0	0	0	0	0	0	0	0	0
081219	11:33:26	11:36:45	197865	5.0.10.0	5_exp_noRW	94	Rpleas_acq	CS_A	ZHHZ	DXXD	YFFY	LWWL	CPPC	JQQJ	vertrauen	träumen	gütig	sonnig	genießen	küssen	versagen	töten	gierig	sterben	gemein	krank	47pct	acq_USunple_CSpleas1_noRW	acq23456_noRW	2	3	0	0	300	300	455	46	0	1	1	blank2r.bmp	0	1	+	0	1	blank2r.bmp	252	1	ZHHZ	306	2	töten	559	0	0	0	0	0	0	0	0	0	0	0	0	0	0	0	0	0	0	0	0	0	0	0	0	0	0	0	0	0	0	0	0	0	0	0	0	0	0	0
081219	11:33:26	11:36:46	199358	5.0.10.0	5_exp_noRW	94	Rpleas_acq	CS_A	ZHHZ	DXXD	YFFY	LWWL	CPPC	JQQJ	vertrauen	träumen	gütig	sonnig	genießen	küssen	versagen	töten	gierig	sterben	gemein	krank	47pct	acq_USunple_CSunple1_noRW	acq23456_noRW	2	4	0	0	300	300	323	46	0	1	1	blank2r.bmp	0	1	+	0	1	blank2r.bmp	252	1	YFFY	306	3	gierig	559	0	0	0	0	0	0	0	0	0	0	0	0	0	0	0	0	0	0	0	0	0	0	0	0	0	0	0	0	0	0	0	0	0	0	0	0	0	0	0
081219	11:33:26	11:36:48	200904	5.0.10.0	5_exp_noRW	94	Rpleas_acq	CS_A	ZHHZ	DXXD	YFFY	LWWL	CPPC	JQQJ	vertrauen	träumen	gütig	sonnig	genießen	küssen	versagen	töten	gierig	sterben	gemein	krank	53pct	acq_USunple_CSunple1_noRW	acq23456_noRW	2	5	0	0	300	300	377	46	0	1	1	blank2r.bmp	0	1	+	0	1	blank2r.bmp	252	1	YFFY	306	1	versagen	559	0	0	0	0	0	0	0	0	0	0	0	0	0	0	0	0	0	0	0	0	0	0	0	0	0	0	0	0	0	0	0	0	0	0	0	0	0	0	0
081219	11:33:26	11:36:50	202623	5.0.10.0	5_exp_noRW	94	Rpleas_acq	CS_A	ZHHZ	DXXD	YFFY	LWWL	CPPC	JQQJ	vertrauen	träumen	gütig	sonnig	genießen	küssen	versagen	töten	gierig	sterben	gemein	krank	47pct	acq_USpleas_CSpleas2_noRW	acq23456_noRW	2	6	0	0	300	300	545	50	0	1	1	blank2r.bmp	0	1	+	0	1	blank2r.bmp	252	1	DXXD	306	2	genießen	559	0	0	0	0	0	0	0	0	0	0	0	0	0	0	0	0	0	0	0	0	0	0	0	0	0	0	0	0	0	0	0	0	0	0	0	0	0	0	0
081219	11:33:26	11:36:51	204236	5.0.10.0	5_exp_noRW	94	Rpleas_acq	CS_A	ZHHZ	DXXD	YFFY	LWWL	CPPC	JQQJ	vertrauen	träumen	gütig	sonnig	genießen	küssen	versagen	töten	gierig	sterben	gemein	krank	53pct	acq_USunple_CSunple1_noRW	acq23456_noRW	2	7	0	0	300	300	451	46	0	1	1	blank2r.bmp	0	1	+	0	1	blank2r.bmp	252	1	YFFY	306	3	gierig	559	0	0	0	0	0	0	0	0	0	0	0	0	0	0	0	0	0	0	0	0	0	0	0	0	0	0	0	0	0	0	0	0	0	0	0	0	0	0	0
081219	11:33:26	11:36:53	205875	5.0.10.0	5_exp_noRW	94	Rpleas_acq	CS_A	ZHHZ	DXXD	YFFY	LWWL	CPPC	JQQJ	vertrauen	träumen	gütig	sonnig	genießen	küssen	versagen	töten	gierig	sterben	gemein	krank	47pct	acq_USunple_CSunple2_noRW	acq23456_noRW	2	8	0	0	300	300	457	46	0	1	1	blank2r.bmp	0	1	+	0	1	blank2r.bmp	252	1	LWWL	306	3	krank	559	0	0	0	0	0	0	0	0	0	0	0	0	0	0	0	0	0	0	0	0	0	0	0	0	0	0	0	0	0	0	0	0	0	0	0	0	0	0	0
081219	11:33:26	11:36:55	208314	5.0.10.0	5_exp_noRW	94	Rpleas_acq	CS_A	ZHHZ	DXXD	YFFY	LWWL	CPPC	JQQJ	vertrauen	träumen	gütig	sonnig	genießen	küssen	versagen	töten	gierig	sterben	gemein	krank	53pct	acq_USunple_CSunple1_noRW	acq23456_noRW	2	9	0	0	300	300	1269	46	0	1	1	blank2r.bmp	0	1	+	0	1	blank2r.bmp	252	1	YFFY	306	1	versagen	559	0	0	0	0	0	0	0	0	0	0	0	0	0	0	0	0	0	0	0	0	0	0	0	0	0	0	0	0	0	0	0	0	0	0	0	0	0	0	0
081219	11:33:26	11:36:57	209980	5.0.10.0	5_exp_noRW	94	Rpleas_acq	CS_A	ZHHZ	DXXD	YFFY	LWWL	CPPC	JQQJ	vertrauen	träumen	gütig	sonnig	genießen	küssen	versagen	töten	gierig	sterben	gemein	krank	53pct	acq_USunple_CSunple2_noRW	acq23456_noRW	2	10	0	0	300	300	496	46	0	1	1	blank2r.bmp	0	1	+	0	1	blank2r.bmp	252	1	LWWL	306	2	gemein	559	0	0	0	0	0	0	0	0	0	0	0	0	0	0	0	0	0	0	0	0	0	0	0	0	0	0	0	0	0	0	0	0	0	0	0	0	0	0	0
081219	11:33:26	11:36:59	211619	5.0.10.0	5_exp_noRW	94	Rpleas_acq	CS_A	ZHHZ	DXXD	YFFY	LWWL	CPPC	JQQJ	vertrauen	träumen	gütig	sonnig	genießen	küssen	versagen	töten	gierig	sterben	gemein	krank	53pct	acq_USpleas_CSunple2_noRW	acq23456_noRW	2	11	0	0	300	300	473	50	0	1	1	blank2r.bmp	0	1	+	0	1	blank2r.bmp	252	1	LWWL	306	2	genießen	559	0	0	0	0	0	0	0	0	0	0	0	0	0	0	0	0	0	0	0	0	0	0	0	0	0	0	0	0	0	0	0	0	0	0	0	0	0	0	0
081219	11:33:26	11:37:00	213365	5.0.10.0	5_exp_noRW	94	Rpleas_acq	CS_A	ZHHZ	DXXD	YFFY	LWWL	CPPC	JQQJ	vertrauen	träumen	gütig	sonnig	genießen	küssen	versagen	töten	gierig	sterben	gemein	krank	53pct	acq_USunple_CSunple2_noRW	acq23456_noRW	2	12	0	0	300	300	578	46	0	1	1	blank2r.bmp	0	1	+	0	1	blank2r.bmp	252	1	LWWL	306	3	krank	559	0	0	0	0	0	0	0	0	0	0	0	0	0	0	0	0	0	0	0	0	0	0	0	0	0	0	0	0	0	0	0	0	0	0	0	0	0	0	0
081219	11:33:26	11:37:02	214978	5.0.10.0	5_exp_noRW	94	Rpleas_acq	CS_A	ZHHZ	DXXD	YFFY	LWWL	CPPC	JQQJ	vertrauen	träumen	gütig	sonnig	genießen	küssen	versagen	töten	gierig	sterben	gemein	krank	53pct	acq_USpleas_CSpleas1_noRW	acq23456_noRW	2	13	0	0	300	300	445	50	0	1	1	blank2r.bmp	0	1	+	0	1	blank2r.bmp	252	1	ZHHZ	306	3	gütig	559	0	0	0	0	0	0	0	0	0	0	0	0	0	0	0	0	0	0	0	0	0	0	0	0	0	0	0	0	0	0	0	0	0	0	0	0	0	0	0
081219	11:33:26	11:37:04	216497	5.0.10.0	5_exp_noRW	94	Rpleas_acq	CS_A	ZHHZ	DXXD	YFFY	LWWL	CPPC	JQQJ	vertrauen	träumen	gütig	sonnig	genießen	küssen	versagen	töten	gierig	sterben	gemein	krank	53pct	acq_USpleas_CSpleas2_noRW	acq23456_noRW	2	14	0	0	300	300	338	50	0	1	1	blank2r.bmp	0	1	+	0	1	blank2r.bmp	252	1	DXXD	306	1	sonnig	559	0	0	0	0	0	0	0	0	0	0	0	0	0	0	0	0	0	0	0	0	0	0	0	0	0	0	0	0	0	0	0	0	0	0	0	0	0	0	0
081219	11:33:26	11:37:05	218097	5.0.10.0	5_exp_noRW	94	Rpleas_acq	CS_A	ZHHZ	DXXD	YFFY	LWWL	CPPC	JQQJ	vertrauen	träumen	gütig	sonnig	genießen	küssen	versagen	töten	gierig	sterben	gemein	krank	47pct	acq_USpleas_CSpleas1_noRW	acq23456_noRW	2	15	0	0	300	300	418	50	0	1	1	blank2r.bmp	0	1	+	0	1	blank2r.bmp	252	1	ZHHZ	306	2	träumen	559	0	0	0	0	0	0	0	0	0	0	0	0	0	0	0	0	0	0	0	0	0	0	0	0	0	0	0	0	0	0	0	0	0	0	0	0	0	0	0
081219	11:33:26	11:37:07	219829	5.0.10.0	5_exp_noRW	94	Rpleas_acq	CS_A	ZHHZ	DXXD	YFFY	LWWL	CPPC	JQQJ	vertrauen	träumen	gütig	sonnig	genießen	küssen	versagen	töten	gierig	sterben	gemein	krank	47pct	acq_USunple_CSunple2_noRW	acq23456_noRW	2	16	0	0	300	300	546	46	0	1	1	blank2r.bmp	0	1	+	0	1	blank2r.bmp	252	1	LWWL	306	2	gemein	559	0	0	0	0	0	0	0	0	0	0	0	0	0	0	0	0	0	0	0	0	0	0	0	0	0	0	0	0	0	0	0	0	0	0	0	0	0	0	0
081219	11:33:26	11:37:09	221895	5.0.10.0	5_exp_noRW	94	Rpleas_acq	CS_A	ZHHZ	DXXD	YFFY	LWWL	CPPC	JQQJ	vertrauen	träumen	gütig	sonnig	genießen	küssen	versagen	töten	gierig	sterben	gemein	krank	53pct	acq_USpleas_CSpleas1_noRW	acq23456_noRW	2	17	0	0	300	300	902	50	0	1	1	blank2r.bmp	0	1	+	0	1	blank2r.bmp	252	1	ZHHZ	306	3	gütig	559	0	0	0	0	0	0	0	0	0	0	0	0	0	0	0	0	0	0	0	0	0	0	0	0	0	0	0	0	0	0	0	0	0	0	0	0	0	0	0
081219	11:33:26	11:37:11	223894	5.0.10.0	5_exp_noRW	94	Rpleas_acq	CS_A	ZHHZ	DXXD	YFFY	LWWL	CPPC	JQQJ	vertrauen	träumen	gütig	sonnig	genießen	küssen	versagen	töten	gierig	sterben	gemein	krank	53pct	acq_USpleas_CSpleas2_noRW	acq23456_noRW	2	18	0	0	300	300	821	50	0	1	1	blank2r.bmp	0	1	+	0	1	blank2r.bmp	252	1	DXXD	306	2	genießen	559	0	0	0	0	0	0	0	0	0	0	0	0	0	0	0	0	0	0	0	0	0	0	0	0	0	0	0	0	0	0	0	0	0	0	0	0	0	0	0
081219	11:33:26	11:37:12	225427	5.0.10.0	5_exp_noRW	94	Rpleas_acq	CS_A	ZHHZ	DXXD	YFFY	LWWL	CPPC	JQQJ	vertrauen	träumen	gütig	sonnig	genießen	küssen	versagen	töten	gierig	sterben	gemein	krank	47pct	acq_USpleas_CSpleas1_noRW	acq23456_noRW	2	19	0	0	300	300	369	50	0	1	1	blank2r.bmp	0	1	+	0	1	blank2r.bmp	252	1	ZHHZ	306	1	vertrauen	559	0	0	0	0	0	0	0	0	0	0	0	0	0	0	0	0	0	0	0	0	0	0	0	0	0	0	0	0	0	0	0	0	0	0	0	0	0	0	0
081219	11:33:26	11:37:14	227453	5.0.10.0	5_exp_noRW	94	Rpleas_acq	CS_A	ZHHZ	DXXD	YFFY	LWWL	CPPC	JQQJ	vertrauen	träumen	gütig	sonnig	genießen	küssen	versagen	töten	gierig	sterben	gemein	krank	47pct	acq_USunple_CSpleas2_noRW	acq23456_noRW	2	20	0	0	300	300	849	46	0	1	1	blank2r.bmp	0	1	+	0	1	blank2r.bmp	252	1	DXXD	306	1	sterben	559	0	0	0	0	0	0	0	0	0	0	0	0	0	0	0	0	0	0	0	0	0	0	0	0	0	0	0	0	0	0	0	0	0	0	0	0	0	0	0
081219	11:33:26	11:37:16	229199	5.0.10.0	5_exp_noRW	94	Rpleas_acq	CS_A	ZHHZ	DXXD	YFFY	LWWL	CPPC	JQQJ	vertrauen	träumen	gütig	sonnig	genießen	küssen	versagen	töten	gierig	sterben	gemein	krank	47pct	acq_USunple_CSunple1_noRW	acq23456_noRW	2	21	0	0	300	300	570	46	0	1	1	blank2r.bmp	0	1	+	0	1	blank2r.bmp	252	1	YFFY	306	2	töten	559	0	0	0	0	0	0	0	0	0	0	0	0	0	0	0	0	0	0	0	0	0	0	0	0	0	0	0	0	0	0	0	0	0	0	0	0	0	0	0
081219	11:33:26	11:37:18	230705	5.0.10.0	5_exp_noRW	94	Rpleas_acq	CS_A	ZHHZ	DXXD	YFFY	LWWL	CPPC	JQQJ	vertrauen	träumen	gütig	sonnig	genießen	küssen	versagen	töten	gierig	sterben	gemein	krank	53pct	acq_USunple_CSunple1_noRW	acq23456_noRW	2	22	0	0	300	300	326	46	0	1	1	blank2r.bmp	0	1	+	0	1	blank2r.bmp	252	1	YFFY	306	2	töten	559	0	0	0	0	0	0	0	0	0	0	0	0	0	0	0	0	0	0	0	0	0	0	0	0	0	0	0	0	0	0	0	0	0	0	0	0	0	0	0
081219	11:33:26	11:37:19	232331	5.0.10.0	5_exp_noRW	94	Rpleas_acq	CS_A	ZHHZ	DXXD	YFFY	LWWL	CPPC	JQQJ	vertrauen	träumen	gütig	sonnig	genießen	küssen	versagen	töten	gierig	sterben	gemein	krank	53pct	acq_USunple_CSpleas1_noRW	acq23456_noRW	2	23	0	0	300	300	446	46	0	1	1	blank2r.bmp	0	1	+	0	1	blank2r.bmp	252	1	ZHHZ	306	3	gierig	559	0	0	0	0	0	0	0	0	0	0	0	0	0	0	0	0	0	0	0	0	0	0	0	0	0	0	0	0	0	0	0	0	0	0	0	0	0	0	0
081219	11:33:26	11:37:21	233863	5.0.10.0	5_exp_noRW	94	Rpleas_acq	CS_A	ZHHZ	DXXD	YFFY	LWWL	CPPC	JQQJ	vertrauen	träumen	gütig	sonnig	genießen	küssen	versagen	töten	gierig	sterben	gemein	krank	53pct	acq_USpleas_CSpleas1_noRW	acq23456_noRW	2	24	0	0	300	300	353	50	0	1	1	blank2r.bmp	0	1	+	0	1	blank2r.bmp	252	1	ZHHZ	306	2	träumen	559	0	0	0	0	0	0	0	0	0	0	0	0	0	0	0	0	0	0	0	0	0	0	0	0	0	0	0	0	0	0	0	0	0	0	0	0	0	0	0
081219	11:33:26	11:37:22	235409	5.0.10.0	5_exp_noRW	94	Rpleas_acq	CS_A	ZHHZ	DXXD	YFFY	LWWL	CPPC	JQQJ	vertrauen	träumen	gütig	sonnig	genießen	küssen	versagen	töten	gierig	sterben	gemein	krank	53pct	acq_USpleas_CSpleas2_noRW	acq23456_noRW	2	25	0	0	300	300	376	50	0	1	1	blank2r.bmp	0	1	+	0	1	blank2r.bmp	252	1	DXXD	306	3	küssen	559	0	0	0	0	0	0	0	0	0	0	0	0	0	0	0	0	0	0	0	0	0	0	0	0	0	0	0	0	0	0	0	0	0	0	0	0	0	0	0
081219	11:33:26	11:37:24	237089	5.0.10.0	5_exp_noRW	94	Rpleas_acq	CS_A	ZHHZ	DXXD	YFFY	LWWL	CPPC	JQQJ	vertrauen	träumen	gütig	sonnig	genießen	küssen	versagen	töten	gierig	sterben	gemein	krank	53pct	acq_USunple_CSunple1_noRW	acq23456_noRW	2	26	0	0	300	300	508	46	0	1	1	blank2r.bmp	0	1	+	0	1	blank2r.bmp	252	1	YFFY	306	3	gierig	559	0	0	0	0	0	0	0	0	0	0	0	0	0	0	0	0	0	0	0	0	0	0	0	0	0	0	0	0	0	0	0	0	0	0	0	0	0	0	0
081219	11:33:26	11:37:26	238728	5.0.10.0	5_exp_noRW	94	Rpleas_acq	CS_A	ZHHZ	DXXD	YFFY	LWWL	CPPC	JQQJ	vertrauen	träumen	gütig	sonnig	genießen	küssen	versagen	töten	gierig	sterben	gemein	krank	47pct	acq_USpleas_CSunple2_noRW	acq23456_noRW	2	27	0	0	300	300	458	50	0	1	1	blank2r.bmp	0	1	+	0	1	blank2r.bmp	252	1	LWWL	306	1	sonnig	559	0	0	0	0	0	0	0	0	0	0	0	0	0	0	0	0	0	0	0	0	0	0	0	0	0	0	0	0	0	0	0	0	0	0	0	0	0	0	0
081219	11:33:26	11:37:27	240314	5.0.10.0	5_exp_noRW	94	Rpleas_acq	CS_A	ZHHZ	DXXD	YFFY	LWWL	CPPC	JQQJ	vertrauen	träumen	gütig	sonnig	genießen	küssen	versagen	töten	gierig	sterben	gemein	krank	53pct	acq_USunple_CSpleas2_noRW	acq23456_noRW	2	28	0	0	300	300	415	46	0	1	1	blank2r.bmp	0	1	+	0	1	blank2r.bmp	252	1	DXXD	306	3	krank	559	0	0	0	0	0	0	0	0	0	0	0	0	0	0	0	0	0	0	0	0	0	0	0	0	0	0	0	0	0	0	0	0	0	0	0	0	0	0	0
081219	11:33:26	11:37:29	241980	5.0.10.0	5_exp_noRW	94	Rpleas_acq	CS_A	ZHHZ	DXXD	YFFY	LWWL	CPPC	JQQJ	vertrauen	träumen	gütig	sonnig	genießen	küssen	versagen	töten	gierig	sterben	gemein	krank	47pct	acq_USunple_CSunple2_noRW	acq23456_noRW	2	29	0	0	300	300	484	46	0	1	1	blank2r.bmp	0	1	+	0	1	blank2r.bmp	252	1	LWWL	306	1	sterben	559	0	0	0	0	0	0	0	0	0	0	0	0	0	0	0	0	0	0	0	0	0	0	0	0	0	0	0	0	0	0	0	0	0	0	0	0	0	0	0
081219	11:33:26	11:37:31	243593	5.0.10.0	5_exp_noRW	94	Rpleas_acq	CS_A	ZHHZ	DXXD	YFFY	LWWL	CPPC	JQQJ	vertrauen	träumen	gütig	sonnig	genießen	küssen	versagen	töten	gierig	sterben	gemein	krank	47pct	acq_USunple_CSunple2_noRW	acq23456_noRW	2	30	0	0	300	300	428	46	0	1	1	blank2r.bmp	0	1	+	0	1	blank2r.bmp	252	1	LWWL	306	2	gemein	559	0	0	0	0	0	0	0	0	0	0	0	0	0	0	0	0	0	0	0	0	0	0	0	0	0	0	0	0	0	0	0	0	0	0	0	0	0	0	0
081219	11:33:26	11:37:32	245259	5.0.10.0	5_exp_noRW	94	Rpleas_acq	CS_A	ZHHZ	DXXD	YFFY	LWWL	CPPC	JQQJ	vertrauen	träumen	gütig	sonnig	genießen	küssen	versagen	töten	gierig	sterben	gemein	krank	47pct	acq_USpleas_CSpleas1_noRW	acq23456_noRW	2	31	0	0	300	300	482	50	0	1	1	blank2r.bmp	0	1	+	0	1	blank2r.bmp	252	1	ZHHZ	306	2	träumen	559	0	0	0	0	0	0	0	0	0	0	0	0	0	0	0	0	0	0	0	0	0	0	0	0	0	0	0	0	0	0	0	0	0	0	0	0	0	0	0
081219	11:33:26	11:37:34	246898	5.0.10.0	5_exp_noRW	94	Rpleas_acq	CS_A	ZHHZ	DXXD	YFFY	LWWL	CPPC	JQQJ	vertrauen	träumen	gütig	sonnig	genießen	küssen	versagen	töten	gierig	sterben	gemein	krank	53pct	acq_USpleas_CSpleas2_noRW	acq23456_noRW	2	32	0	0	300	300	452	50	0	1	1	blank2r.bmp	0	1	+	0	1	blank2r.bmp	252	1	DXXD	306	1	sonnig	559	0	0	0	0	0	0	0	0	0	0	0	0	0	0	0	0	0	0	0	0	0	0	0	0	0	0	0	0	0	0	0	0	0	0	0	0	0	0	0
081219	11:33:26	11:37:36	248964	5.0.10.0	5_exp_noRW	94	Rpleas_acq	CS_A	ZHHZ	DXXD	YFFY	LWWL	CPPC	JQQJ	vertrauen	träumen	gütig	sonnig	genießen	küssen	versagen	töten	gierig	sterben	gemein	krank	53pct	acq_USunple_CSunple1_noRW	acq23456_noRW	2	33	0	0	300	300	904	46	0	1	1	blank2r.bmp	0	1	+	0	1	blank2r.bmp	252	1	YFFY	306	1	versagen	559	0	0	0	0	0	0	0	0	0	0	0	0	0	0	0	0	0	0	0	0	0	0	0	0	0	0	0	0	0	0	0	0	0	0	0	0	0	0	0
081219	11:33:26	11:37:38	250643	5.0.10.0	5_exp_noRW	94	Rpleas_acq	CS_A	ZHHZ	DXXD	YFFY	LWWL	CPPC	JQQJ	vertrauen	träumen	gütig	sonnig	genießen	küssen	versagen	töten	gierig	sterben	gemein	krank	47pct	acq_USpleas_CSpleas1_noRW	acq23456_noRW	2	34	0	0	300	300	503	50	0	1	1	blank2r.bmp	0	1	+	0	1	blank2r.bmp	252	1	ZHHZ	306	1	vertrauen	559	0	0	0	0	0	0	0	0	0	0	0	0	0	0	0	0	0	0	0	0	0	0	0	0	0	0	0	0	0	0	0	0	0	0	0	0	0	0	0
081219	11:33:26	11:37:39	252309	5.0.10.0	5_exp_noRW	94	Rpleas_acq	CS_A	ZHHZ	DXXD	YFFY	LWWL	CPPC	JQQJ	vertrauen	träumen	gütig	sonnig	genießen	küssen	versagen	töten	gierig	sterben	gemein	krank	53pct	acq_USpleas_CSpleas2_noRW	acq23456_noRW	2	35	0	0	300	300	478	50	0	1	1	blank2r.bmp	0	1	+	0	1	blank2r.bmp	252	1	DXXD	306	2	genießen	559	0	0	0	0	0	0	0	0	0	0	0	0	0	0	0	0	0	0	0	0	0	0	0	0	0	0	0	0	0	0	0	0	0	0	0	0	0	0	0
081219	11:33:26	11:37:41	253829	5.0.10.0	5_exp_noRW	94	Rpleas_acq	CS_A	ZHHZ	DXXD	YFFY	LWWL	CPPC	JQQJ	vertrauen	träumen	gütig	sonnig	genießen	küssen	versagen	töten	gierig	sterben	gemein	krank	53pct	acq_USpleas_CSpleas2_noRW	acq23456_noRW	2	36	0	0	300	300	358	50	0	1	1	blank2r.bmp	0	1	+	0	1	blank2r.bmp	252	1	DXXD	306	3	küssen	559	0	0	0	0	0	0	0	0	0	0	0	0	0	0	0	0	0	0	0	0	0	0	0	0	0	0	0	0	0	0	0	0	0	0	0	0	0	0	0
081219	11:33:26	11:37:42	255375	5.0.10.0	5_exp_noRW	94	Rpleas_acq	CS_A	ZHHZ	DXXD	YFFY	LWWL	CPPC	JQQJ	vertrauen	träumen	gütig	sonnig	genießen	küssen	versagen	töten	gierig	sterben	gemein	krank	53pct	acq_USunple_CSunple2_noRW	acq23456_noRW	2	37	0	0	300	300	383	46	0	1	1	blank2r.bmp	0	1	+	0	1	blank2r.bmp	252	1	LWWL	306	3	krank	559	0	0	0	0	0	0	0	0	0	0	0	0	0	0	0	0	0	0	0	0	0	0	0	0	0	0	0	0	0	0	0	0	0	0	0	0	0	0	0
081219	11:33:26	11:37:44	257027	5.0.10.0	5_exp_noRW	94	Rpleas_acq	CS_A	ZHHZ	DXXD	YFFY	LWWL	CPPC	JQQJ	vertrauen	träumen	gütig	sonnig	genießen	küssen	versagen	töten	gierig	sterben	gemein	krank	53pct	acq_USunple_CSunple2_noRW	acq23456_noRW	2	38	0	0	300	300	483	46	0	1	1	blank2r.bmp	0	1	+	0	1	blank2r.bmp	252	1	LWWL	306	1	sterben	559	0	0	0	0	0	0	0	0	0	0	0	0	0	0	0	0	0	0	0	0	0	0	0	0	0	0	0	0	0	0	0	0	0	0	0	0	0	0	0
081219	11:33:26	11:37:46	258720	5.0.10.0	5_exp_noRW	94	Rpleas_acq	CS_A	ZHHZ	DXXD	YFFY	LWWL	CPPC	JQQJ	vertrauen	träumen	gütig	sonnig	genießen	küssen	versagen	töten	gierig	sterben	gemein	krank	53pct	acq_USpleas_CSpleas1_noRW	acq23456_noRW	2	39	0	0	300	300	523	50	0	1	1	blank2r.bmp	0	1	+	0	1	blank2r.bmp	252	1	ZHHZ	306	3	gütig	559	0	0	0	0	0	0	0	0	0	0	0	0	0	0	0	0	0	0	0	0	0	0	0	0	0	0	0	0	0	0	0	0	0	0	0	0	0	0	0
081219	11:33:26	11:37:47	260319	5.0.10.0	5_exp_noRW	94	Rpleas_acq	CS_A	ZHHZ	DXXD	YFFY	LWWL	CPPC	JQQJ	vertrauen	träumen	gütig	sonnig	genießen	küssen	versagen	töten	gierig	sterben	gemein	krank	53pct	acq_USpleas_CSunple1_noRW	acq23456_noRW	2	40	0	0	300	300	430	50	0	1	1	blank2r.bmp	0	1	+	0	1	blank2r.bmp	252	1	YFFY	306	3	gütig	559	0	0	0	0	0	0	0	0	0	0	0	0	0	0	0	0	0	0	0	0	0	0	0	0	0	0	0	0	0	0	0	0	0	0	0	0	0	0	0
081219	11:33:26	11:37:49	262025	5.0.10.0	5_exp_noRW	94	Rpleas_acq	CS_A	ZHHZ	DXXD	YFFY	LWWL	CPPC	JQQJ	vertrauen	träumen	gütig	sonnig	genießen	küssen	versagen	töten	gierig	sterben	gemein	krank	47pct	acq_USunple_CSunple1_noRW	acq23456_noRW	2	41	0	0	300	300	544	46	0	1	1	blank2r.bmp	0	1	+	0	1	blank2r.bmp	252	1	YFFY	306	3	gierig	559	0	0	0	0	0	0	0	0	0	0	0	0	0	0	0	0	0	0	0	0	0	0	0	0	0	0	0	0	0	0	0	0	0	0	0	0	0	0	0
081219	11:33:26	11:37:51	263705	5.0.10.0	5_exp_noRW	94	Rpleas_acq	CS_A	ZHHZ	DXXD	YFFY	LWWL	CPPC	JQQJ	vertrauen	träumen	gütig	sonnig	genießen	küssen	versagen	töten	gierig	sterben	gemein	krank	53pct	acq_USunple_CSunple2_noRW	acq23456_noRW	2	42	0	0	300	300	499	46	0	1	1	blank2r.bmp	0	1	+	0	1	blank2r.bmp	252	1	LWWL	306	1	sterben	559	0	0	0	0	0	0	0	0	0	0	0	0	0	0	0	0	0	0	0	0	0	0	0	0	0	0	0	0	0	0	0	0	0	0	0	0	0	0	0
081219	11:33:26	11:37:52	265371	5.0.10.0	5_exp_noRW	94	Rpleas_acq	CS_A	ZHHZ	DXXD	YFFY	LWWL	CPPC	JQQJ	vertrauen	träumen	gütig	sonnig	genießen	küssen	versagen	töten	gierig	sterben	gemein	krank	47pct	acq_USpleas_CSunple2_noRW	acq23456_noRW	2	43	0	0	300	300	494	50	0	1	1	blank2r.bmp	0	1	+	0	1	blank2r.bmp	252	1	LWWL	306	2	genießen	559	0	0	0	0	0	0	0	0	0	0	0	0	0	0	0	0	0	0	0	0	0	0	0	0	0	0	0	0	0	0	0	0	0	0	0	0	0	0	0
081219	11:33:26	11:37:54	266957	5.0.10.0	5_exp_noRW	94	Rpleas_acq	CS_A	ZHHZ	DXXD	YFFY	LWWL	CPPC	JQQJ	vertrauen	träumen	gütig	sonnig	genießen	küssen	versagen	töten	gierig	sterben	gemein	krank	53pct	acq_USpleas_CSpleas1_noRW	acq23456_noRW	2	44	0	0	300	300	404	50	0	1	1	blank2r.bmp	0	1	+	0	1	blank2r.bmp	252	1	ZHHZ	306	2	träumen	559	0	0	0	0	0	0	0	0	0	0	0	0	0	0	0	0	0	0	0	0	0	0	0	0	0	0	0	0	0	0	0	0	0	0	0	0	0	0	0
081219	11:33:26	11:37:57	269795	5.0.10.0	5_exp_noRW	94	Rpleas_acq	CS_A	ZHHZ	DXXD	YFFY	LWWL	CPPC	JQQJ	vertrauen	träumen	gütig	sonnig	genießen	küssen	versagen	töten	gierig	sterben	gemein	krank	53pct	acq_USpleas_CSpleas1_noRW	acq23456_noRW	2	45	0	0	300	300	1657	50	0	1	1	blank2r.bmp	0	1	+	0	1	blank2r.bmp	252	1	ZHHZ	306	3	gütig	559	0	0	0	0	0	0	0	0	0	0	0	0	0	0	0	0	0	0	0	0	0	0	0	0	0	0	0	0	0	0	0	0	0	0	0	0	0	0	0
081219	11:33:26	11:37:58	271448	5.0.10.0	5_exp_noRW	94	Rpleas_acq	CS_A	ZHHZ	DXXD	YFFY	LWWL	CPPC	JQQJ	vertrauen	träumen	gütig	sonnig	genießen	küssen	versagen	töten	gierig	sterben	gemein	krank	47pct	acq_USpleas_CSpleas2_noRW	acq23456_noRW	2	46	0	0	300	300	465	50	0	1	1	blank2r.bmp	0	1	+	0	1	blank2r.bmp	252	1	DXXD	306	2	genießen	559	0	0	0	0	0	0	0	0	0	0	0	0	0	0	0	0	0	0	0	0	0	0	0	0	0	0	0	0	0	0	0	0	0	0	0	0	0	0	0
081219	11:33:26	11:38:00	273061	5.0.10.0	5_exp_noRW	94	Rpleas_acq	CS_A	ZHHZ	DXXD	YFFY	LWWL	CPPC	JQQJ	vertrauen	träumen	gütig	sonnig	genießen	küssen	versagen	töten	gierig	sterben	gemein	krank	47pct	acq_USpleas_CSpleas2_noRW	acq23456_noRW	2	47	0	0	300	300	448	50	0	1	1	blank2r.bmp	0	1	+	0	1	blank2r.bmp	252	1	DXXD	306	3	küssen	559	0	0	0	0	0	0	0	0	0	0	0	0	0	0	0	0	0	0	0	0	0	0	0	0	0	0	0	0	0	0	0	0	0	0	0	0	0	0	0
081219	11:33:26	11:38:02	274713	5.0.10.0	5_exp_noRW	94	Rpleas_acq	CS_A	ZHHZ	DXXD	YFFY	LWWL	CPPC	JQQJ	vertrauen	träumen	gütig	sonnig	genießen	küssen	versagen	töten	gierig	sterben	gemein	krank	53pct	acq_USunple_CSunple1_noRW	acq23456_noRW	2	48	0	0	300	300	472	46	0	1	1	blank2r.bmp	0	1	+	0	1	blank2r.bmp	252	1	YFFY	306	2	töten	559	0	0	0	0	0	0	0	0	0	0	0	0	0	0	0	0	0	0	0	0	0	0	0	0	0	0	0	0	0	0	0	0	0	0	0	0	0	0	0
081219	11:33:26	11:38:03	276353	5.0.10.0	5_exp_noRW	94	Rpleas_acq	CS_A	ZHHZ	DXXD	YFFY	LWWL	CPPC	JQQJ	vertrauen	träumen	gütig	sonnig	genießen	küssen	versagen	töten	gierig	sterben	gemein	krank	53pct	acq_USunple_CSunple1_noRW	acq23456_noRW	2	49	0	0	300	300	460	46	0	1	1	blank2r.bmp	0	1	+	0	1	blank2r.bmp	252	1	YFFY	306	1	versagen	559	0	0	0	0	0	0	0	0	0	0	0	0	0	0	0	0	0	0	0	0	0	0	0	0	0	0	0	0	0	0	0	0	0	0	0	0	0	0	0
081219	11:33:26	11:38:05	278045	5.0.10.0	5_exp_noRW	94	Rpleas_acq	CS_A	ZHHZ	DXXD	YFFY	LWWL	CPPC	JQQJ	vertrauen	träumen	gütig	sonnig	genießen	küssen	versagen	töten	gierig	sterben	gemein	krank	47pct	acq_USpleas_CSpleas1_noRW	acq23456_noRW	2	50	0	0	300	300	506	50	0	1	1	blank2r.bmp	0	1	+	0	1	blank2r.bmp	252	1	ZHHZ	306	1	vertrauen	559	0	0	0	0	0	0	0	0	0	0	0	0	0	0	0	0	0	0	0	0	0	0	0	0	0	0	0	0	0	0	0	0	0	0	0	0	0	0	0
081219	11:33:26	11:38:07	280045	5.0.10.0	5_exp_noRW	94	Rpleas_acq	CS_A	ZHHZ	DXXD	YFFY	LWWL	CPPC	JQQJ	vertrauen	träumen	gütig	sonnig	genießen	küssen	versagen	töten	gierig	sterben	gemein	krank	53pct	acq_USunple_CSunple2_noRW	acq23456_noRW	2	51	0	0	300	300	834	46	0	1	1	blank2r.bmp	0	1	+	0	1	blank2r.bmp	252	1	LWWL	306	2	gemein	559	0	0	0	0	0	0	0	0	0	0	0	0	0	0	0	0	0	0	0	0	0	0	0	0	0	0	0	0	0	0	0	0	0	0	0	0	0	0	0
081219	11:33:26	11:38:09	281684	5.0.10.0	5_exp_noRW	94	Rpleas_acq	CS_A	ZHHZ	DXXD	YFFY	LWWL	CPPC	JQQJ	vertrauen	träumen	gütig	sonnig	genießen	küssen	versagen	töten	gierig	sterben	gemein	krank	47pct	acq_USpleas_CSpleas1_noRW	acq23456_noRW	2	52	0	0	300	300	463	50	0	1	1	blank2r.bmp	0	1	+	0	1	blank2r.bmp	252	1	ZHHZ	306	2	träumen	559	0	0	0	0	0	0	0	0	0	0	0	0	0	0	0	0	0	0	0	0	0	0	0	0	0	0	0	0	0	0	0	0	0	0	0	0	0	0	0
081219	11:33:26	11:38:11	283576	5.0.10.0	5_exp_noRW	94	Rpleas_acq	CS_A	ZHHZ	DXXD	YFFY	LWWL	CPPC	JQQJ	vertrauen	träumen	gütig	sonnig	genießen	küssen	versagen	töten	gierig	sterben	gemein	krank	47pct	acq_USunple_CSpleas1_noRW	acq23456_noRW	2	53	0	0	300	300	716	46	0	1	1	blank2r.bmp	0	1	+	0	1	blank2r.bmp	252	1	ZHHZ	306	1	versagen	559	0	0	0	0	0	0	0	0	0	0	0	0	0	0	0	0	0	0	0	0	0	0	0	0	0	0	0	0	0	0	0	0	0	0	0	0	0	0	0
081219	11:33:26	11:38:12	285096	5.0.10.0	5_exp_noRW	94	Rpleas_acq	CS_A	ZHHZ	DXXD	YFFY	LWWL	CPPC	JQQJ	vertrauen	träumen	gütig	sonnig	genießen	küssen	versagen	töten	gierig	sterben	gemein	krank	53pct	acq_USunple_CSunple1_noRW	acq23456_noRW	2	54	0	0	300	300	342	46	0	1	1	blank2r.bmp	0	1	+	0	1	blank2r.bmp	252	1	YFFY	306	1	versagen	559	0	0	0	0	0	0	0	0	0	0	0	0	0	0	0	0	0	0	0	0	0	0	0	0	0	0	0	0	0	0	0	0	0	0	0	0	0	0	0
081219	11:33:26	11:38:14	286735	5.0.10.0	5_exp_noRW	94	Rpleas_acq	CS_A	ZHHZ	DXXD	YFFY	LWWL	CPPC	JQQJ	vertrauen	träumen	gütig	sonnig	genießen	küssen	versagen	töten	gierig	sterben	gemein	krank	47pct	acq_USpleas_CSpleas2_noRW	acq23456_noRW	2	55	0	0	300	300	461	50	0	1	1	blank2r.bmp	0	1	+	0	1	blank2r.bmp	252	1	DXXD	306	1	sonnig	559	0	0	0	0	0	0	0	0	0	0	0	0	0	0	0	0	0	0	0	0	0	0	0	0	0	0	0	0	0	0	0	0	0	0	0	0	0	0	0
081219	11:33:26	11:38:15	288361	5.0.10.0	5_exp_noRW	94	Rpleas_acq	CS_A	ZHHZ	DXXD	YFFY	LWWL	CPPC	JQQJ	vertrauen	träumen	gütig	sonnig	genießen	küssen	versagen	töten	gierig	sterben	gemein	krank	47pct	acq_USunple_CSunple2_noRW	acq23456_noRW	2	56	0	0	300	300	447	46	0	1	1	blank2r.bmp	0	1	+	0	1	blank2r.bmp	252	1	LWWL	306	3	krank	559	0	0	0	0	0	0	0	0	0	0	0	0	0	0	0	0	0	0	0	0	0	0	0	0	0	0	0	0	0	0	0	0	0	0	0	0	0	0	0
081219	11:33:26	11:38:17	290014	5.0.10.0	5_exp_noRW	94	Rpleas_acq	CS_A	ZHHZ	DXXD	YFFY	LWWL	CPPC	JQQJ	vertrauen	träumen	gütig	sonnig	genießen	küssen	versagen	töten	gierig	sterben	gemein	krank	47pct	acq_USunple_CSpleas2_noRW	acq23456_noRW	2	57	0	0	300	300	473	46	0	1	1	blank2r.bmp	0	1	+	0	1	blank2r.bmp	252	1	DXXD	306	3	krank	559	0	0	0	0	0	0	0	0	0	0	0	0	0	0	0	0	0	0	0	0	0	0	0	0	0	0	0	0	0	0	0	0	0	0	0	0	0	0	0
081219	11:33:26	11:38:19	291746	5.0.10.0	5_exp_noRW	94	Rpleas_acq	CS_A	ZHHZ	DXXD	YFFY	LWWL	CPPC	JQQJ	vertrauen	träumen	gütig	sonnig	genießen	küssen	versagen	töten	gierig	sterben	gemein	krank	53pct	acq_USpleas_CSunple1_noRW	acq23456_noRW	2	58	0	0	300	300	554	50	0	1	1	blank2r.bmp	0	1	+	0	1	blank2r.bmp	252	1	YFFY	306	1	vertrauen	559	0	0	0	0	0	0	0	0	0	0	0	0	0	0	0	0	0	0	0	0	0	0	0	0	0	0	0	0	0	0	0	0	0	0	0	0	0	0	0
081219	11:33:26	11:38:20	293439	5.0.10.0	5_exp_noRW	94	Rpleas_acq	CS_A	ZHHZ	DXXD	YFFY	LWWL	CPPC	JQQJ	vertrauen	träumen	gütig	sonnig	genießen	küssen	versagen	töten	gierig	sterben	gemein	krank	47pct	acq_USunple_CSunple2_noRW	acq23456_noRW	2	59	0	0	300	300	513	46	0	1	1	blank2r.bmp	0	1	+	0	1	blank2r.bmp	252	1	LWWL	306	2	gemein	559	0	0	0	0	0	0	0	0	0	0	0	0	0	0	0	0	0	0	0	0	0	0	0	0	0	0	0	0	0	0	0	0	0	0	0	0	0	0	0
081219	11:33:26	11:38:22	295078	5.0.10.0	5_exp_noRW	94	Rpleas_acq	CS_A	ZHHZ	DXXD	YFFY	LWWL	CPPC	JQQJ	vertrauen	träumen	gütig	sonnig	genießen	küssen	versagen	töten	gierig	sterben	gemein	krank	53pct	acq_USpleas_CSpleas2_noRW	acq23456_noRW	2	60	0	0	300	300	471	50	0	1	1	blank2r.bmp	0	1	+	0	1	blank2r.bmp	252	1	DXXD	306	3	küssen	559	0	0	0	0	0	0	0	0	0	0	0	0	0	0	0	0	0	0	0	0	0	0	0	0	0	0	0	0	0	0	0	0	0	0	0	0	0	0	0
081219	11:33:26	11:38:24	296731	5.0.10.0	5_exp_noRW	94	Rpleas_acq	CS_A	ZHHZ	DXXD	YFFY	LWWL	CPPC	JQQJ	vertrauen	träumen	gütig	sonnig	genießen	küssen	versagen	töten	gierig	sterben	gemein	krank	53pct	acq_USunple_CSpleas1_noRW	acq23456_noRW	2	61	0	0	300	300	488	46	0	1	1	blank2r.bmp	0	1	+	0	1	blank2r.bmp	252	1	ZHHZ	306	2	töten	559	0	0	0	0	0	0	0	0	0	0	0	0	0	0	0	0	0	0	0	0	0	0	0	0	0	0	0	0	0	0	0	0	0	0	0	0	0	0	0
081219	11:33:26	11:38:25	298384	5.0.10.0	5_exp_noRW	94	Rpleas_acq	CS_A	ZHHZ	DXXD	YFFY	LWWL	CPPC	JQQJ	vertrauen	träumen	gütig	sonnig	genießen	küssen	versagen	töten	gierig	sterben	gemein	krank	53pct	acq_USpleas_CSunple1_noRW	acq23456_noRW	2	62	0	0	300	300	483	50	0	1	1	blank2r.bmp	0	1	+	0	1	blank2r.bmp	252	1	YFFY	306	2	träumen	559	0	0	0	0	0	0	0	0	0	0	0	0	0	0	0	0	0	0	0	0	0	0	0	0	0	0	0	0	0	0	0	0	0	0	0	0	0	0	0
081219	11:33:26	11:38:27	299970	5.0.10.0	5_exp_noRW	94	Rpleas_acq	CS_A	ZHHZ	DXXD	YFFY	LWWL	CPPC	JQQJ	vertrauen	träumen	gütig	sonnig	genießen	küssen	versagen	töten	gierig	sterben	gemein	krank	47pct	acq_USpleas_CSunple2_noRW	acq23456_noRW	2	63	0	0	300	300	416	50	0	1	1	blank2r.bmp	0	1	+	0	1	blank2r.bmp	252	1	LWWL	306	1	sonnig	559	0	0	0	0	0	0	0	0	0	0	0	0	0	0	0	0	0	0	0	0	0	0	0	0	0	0	0	0	0	0	0	0	0	0	0	0	0	0	0
081219	11:33:26	11:38:29	301556	5.0.10.0	5_exp_noRW	94	Rpleas_acq	CS_A	ZHHZ	DXXD	YFFY	LWWL	CPPC	JQQJ	vertrauen	träumen	gütig	sonnig	genießen	küssen	versagen	töten	gierig	sterben	gemein	krank	47pct	acq_USpleas_CSpleas1_noRW	acq23456_noRW	2	64	0	0	300	300	399	50	0	1	1	blank2r.bmp	0	1	+	0	1	blank2r.bmp	252	1	ZHHZ	306	1	vertrauen	559	0	0	0	0	0	0	0	0	0	0	0	0	0	0	0	0	0	0	0	0	0	0	0	0	0	0	0	0	0	0	0	0	0	0	0	0	0	0	0
081219	11:33:26	11:38:30	303168	5.0.10.0	5_exp_noRW	94	Rpleas_acq	CS_A	ZHHZ	DXXD	YFFY	LWWL	CPPC	JQQJ	vertrauen	träumen	gütig	sonnig	genießen	küssen	versagen	töten	gierig	sterben	gemein	krank	53pct	acq_USunple_CSunple2_noRW	acq23456_noRW	2	65	0	0	300	300	439	46	0	1	1	blank2r.bmp	0	1	+	0	1	blank2r.bmp	252	1	LWWL	306	3	krank	559	0	0	0	0	0	0	0	0	0	0	0	0	0	0	0	0	0	0	0	0	0	0	0	0	0	0	0	0	0	0	0	0	0	0	0	0	0	0	0
081219	11:33:26	11:38:32	304754	5.0.10.0	5_exp_noRW	94	Rpleas_acq	CS_A	ZHHZ	DXXD	YFFY	LWWL	CPPC	JQQJ	vertrauen	träumen	gütig	sonnig	genießen	küssen	versagen	töten	gierig	sterben	gemein	krank	53pct	acq_USunple_CSunple1_noRW	acq23456_noRW	2	66	0	0	300	300	410	46	0	1	1	blank2r.bmp	0	1	+	0	1	blank2r.bmp	252	1	YFFY	306	2	töten	559	0	0	0	0	0	0	0	0	0	0	0	0	0	0	0	0	0	0	0	0	0	0	0	0	0	0	0	0	0	0	0	0	0	0	0	0	0	0	0
081219	11:33:26	11:38:33	306327	5.0.10.0	5_exp_noRW	94	Rpleas_acq	CS_A	ZHHZ	DXXD	YFFY	LWWL	CPPC	JQQJ	vertrauen	träumen	gütig	sonnig	genießen	küssen	versagen	töten	gierig	sterben	gemein	krank	53pct	acq_USunple_CSunple1_noRW	acq23456_noRW	2	67	0	0	300	300	392	46	0	1	1	blank2r.bmp	0	1	+	0	1	blank2r.bmp	252	1	YFFY	306	3	gierig	559	0	0	0	0	0	0	0	0	0	0	0	0	0	0	0	0	0	0	0	0	0	0	0	0	0	0	0	0	0	0	0	0	0	0	0	0	0	0	0
081219	11:33:26	11:38:35	307900	5.0.10.0	5_exp_noRW	94	Rpleas_acq	CS_A	ZHHZ	DXXD	YFFY	LWWL	CPPC	JQQJ	vertrauen	träumen	gütig	sonnig	genießen	küssen	versagen	töten	gierig	sterben	gemein	krank	47pct	acq_USunple_CSunple2_noRW	acq23456_noRW	2	68	0	0	300	300	408	46	0	1	1	blank2r.bmp	0	1	+	0	1	blank2r.bmp	252	1	LWWL	306	1	sterben	559	0	0	0	0	0	0	0	0	0	0	0	0	0	0	0	0	0	0	0	0	0	0	0	0	0	0	0	0	0	0	0	0	0	0	0	0	0	0	0
081219	11:33:26	11:38:37	309526	5.0.10.0	5_exp_noRW	94	Rpleas_acq	CS_A	ZHHZ	DXXD	YFFY	LWWL	CPPC	JQQJ	vertrauen	träumen	gütig	sonnig	genießen	küssen	versagen	töten	gierig	sterben	gemein	krank	53pct	acq_USpleas_CSpleas1_noRW	acq23456_noRW	2	69	0	0	300	300	458	50	0	1	1	blank2r.bmp	0	1	+	0	1	blank2r.bmp	252	1	ZHHZ	306	3	gütig	559	0	0	0	0	0	0	0	0	0	0	0	0	0	0	0	0	0	0	0	0	0	0	0	0	0	0	0	0	0	0	0	0	0	0	0	0	0	0	0
081219	11:33:26	11:38:38	311245	5.0.10.0	5_exp_noRW	94	Rpleas_acq	CS_A	ZHHZ	DXXD	YFFY	LWWL	CPPC	JQQJ	vertrauen	träumen	gütig	sonnig	genießen	küssen	versagen	töten	gierig	sterben	gemein	krank	53pct	acq_USunple_CSunple1_noRW	acq23456_noRW	2	70	0	0	300	300	552	46	0	1	1	blank2r.bmp	0	1	+	0	1	blank2r.bmp	252	1	YFFY	306	3	gierig	559	0	0	0	0	0	0	0	0	0	0	0	0	0	0	0	0	0	0	0	0	0	0	0	0	0	0	0	0	0	0	0	0	0	0	0	0	0	0	0
081219	11:33:26	11:38:40	312884	5.0.10.0	5_exp_noRW	94	Rpleas_acq	CS_A	ZHHZ	DXXD	YFFY	LWWL	CPPC	JQQJ	vertrauen	träumen	gütig	sonnig	genießen	küssen	versagen	töten	gierig	sterben	gemein	krank	47pct	acq_USpleas_CSpleas1_noRW	acq23456_noRW	2	71	0	0	300	300	464	50	0	1	1	blank2r.bmp	0	1	+	0	1	blank2r.bmp	252	1	ZHHZ	306	1	vertrauen	559	0	0	0	0	0	0	0	0	0	0	0	0	0	0	0	0	0	0	0	0	0	0	0	0	0	0	0	0	0	0	0	0	0	0	0	0	0	0	0
081219	11:33:26	11:38:42	314510	5.0.10.0	5_exp_noRW	94	Rpleas_acq	CS_A	ZHHZ	DXXD	YFFY	LWWL	CPPC	JQQJ	vertrauen	träumen	gütig	sonnig	genießen	küssen	versagen	töten	gierig	sterben	gemein	krank	47pct	acq_USunple_CSunple1_noRW	acq23456_noRW	2	72	0	0	300	300	440	46	0	1	1	blank2r.bmp	0	1	+	0	1	blank2r.bmp	252	1	YFFY	306	1	versagen	559	0	0	0	0	0	0	0	0	0	0	0	0	0	0	0	0	0	0	0	0	0	0	0	0	0	0	0	0	0	0	0	0	0	0	0	0	0	0	0
081219	11:33:26	11:38:43	316163	5.0.10.0	5_exp_noRW	94	Rpleas_acq	CS_A	ZHHZ	DXXD	YFFY	LWWL	CPPC	JQQJ	vertrauen	träumen	gütig	sonnig	genießen	küssen	versagen	töten	gierig	sterben	gemein	krank	53pct	acq_USpleas_CSpleas2_noRW	acq23456_noRW	2	73	0	0	300	300	474	50	0	1	1	blank2r.bmp	0	1	+	0	1	blank2r.bmp	252	1	DXXD	306	2	genießen	559	0	0	0	0	0	0	0	0	0	0	0	0	0	0	0	0	0	0	0	0	0	0	0	0	0	0	0	0	0	0	0	0	0	0	0	0	0	0	0
081219	11:33:26	11:38:45	317816	5.0.10.0	5_exp_noRW	94	Rpleas_acq	CS_A	ZHHZ	DXXD	YFFY	LWWL	CPPC	JQQJ	vertrauen	träumen	gütig	sonnig	genießen	küssen	versagen	töten	gierig	sterben	gemein	krank	47pct	acq_USpleas_CSpleas2_noRW	acq23456_noRW	2	74	0	0	300	300	468	50	0	1	1	blank2r.bmp	0	1	+	0	1	blank2r.bmp	252	1	DXXD	306	1	sonnig	559	0	0	0	0	0	0	0	0	0	0	0	0	0	0	0	0	0	0	0	0	0	0	0	0	0	0	0	0	0	0	0	0	0	0	0	0	0	0	0
081219	11:33:26	11:38:46	319415	5.0.10.0	5_exp_noRW	94	Rpleas_acq	CS_A	ZHHZ	DXXD	YFFY	LWWL	CPPC	JQQJ	vertrauen	träumen	gütig	sonnig	genießen	küssen	versagen	töten	gierig	sterben	gemein	krank	47pct	acq_USpleas_CSpleas2_noRW	acq23456_noRW	2	75	0	0	300	300	421	50	0	1	1	blank2r.bmp	0	1	+	0	1	blank2r.bmp	252	1	DXXD	306	1	sonnig	559	0	0	0	0	0	0	0	0	0	0	0	0	0	0	0	0	0	0	0	0	0	0	0	0	0	0	0	0	0	0	0	0	0	0	0	0	0	0	0
081219	11:33:26	11:38:48	320961	5.0.10.0	5_exp_noRW	94	Rpleas_acq	CS_A	ZHHZ	DXXD	YFFY	LWWL	CPPC	JQQJ	vertrauen	träumen	gütig	sonnig	genießen	küssen	versagen	töten	gierig	sterben	gemein	krank	53pct	acq_USunple_CSunple2_noRW	acq23456_noRW	2	76	0	0	300	300	368	46	0	1	1	blank2r.bmp	0	1	+	0	1	blank2r.bmp	252	1	LWWL	306	1	sterben	559	0	0	0	0	0	0	0	0	0	0	0	0	0	0	0	0	0	0	0	0	0	0	0	0	0	0	0	0	0	0	0	0	0	0	0	0	0	0	0
081219	11:33:26	11:38:50	322667	5.0.10.0	5_exp_noRW	94	Rpleas_acq	CS_A	ZHHZ	DXXD	YFFY	LWWL	CPPC	JQQJ	vertrauen	träumen	gütig	sonnig	genießen	küssen	versagen	töten	gierig	sterben	gemein	krank	47pct	acq_USpleas_CSpleas2_noRW	acq23456_noRW	2	77	0	0	300	300	527	50	0	1	1	blank2r.bmp	0	1	+	0	1	blank2r.bmp	252	1	DXXD	306	3	küssen	559	0	0	0	0	0	0	0	0	0	0	0	0	0	0	0	0	0	0	0	0	0	0	0	0	0	0	0	0	0	0	0	0	0	0	0	0	0	0	0
081219	11:33:26	11:38:51	324253	5.0.10.0	5_exp_noRW	94	Rpleas_acq	CS_A	ZHHZ	DXXD	YFFY	LWWL	CPPC	JQQJ	vertrauen	träumen	gütig	sonnig	genießen	küssen	versagen	töten	gierig	sterben	gemein	krank	47pct	acq_USunple_CSpleas2_noRW	acq23456_noRW	2	78	0	0	300	300	401	46	0	1	1	blank2r.bmp	0	1	+	0	1	blank2r.bmp	252	1	DXXD	306	1	sterben	559	0	0	0	0	0	0	0	0	0	0	0	0	0	0	0	0	0	0	0	0	0	0	0	0	0	0	0	0	0	0	0	0	0	0	0	0	0	0	0
081219	11:33:26	11:38:53	326199	5.0.10.0	5_exp_noRW	94	Rpleas_acq	CS_A	ZHHZ	DXXD	YFFY	LWWL	CPPC	JQQJ	vertrauen	träumen	gütig	sonnig	genießen	küssen	versagen	töten	gierig	sterben	gemein	krank	53pct	acq_USunple_CSunple2_noRW	acq23456_noRW	2	79	0	0	300	300	783	46	0	1	1	blank2r.bmp	0	1	+	0	1	blank2r.bmp	252	1	LWWL	306	3	krank	559	0	0	0	0	0	0	0	0	0	0	0	0	0	0	0	0	0	0	0	0	0	0	0	0	0	0	0	0	0	0	0	0	0	0	0	0	0	0	0
081219	11:33:26	11:38:55	328185	5.0.10.0	5_exp_noRW	94	Rpleas_acq	CS_A	ZHHZ	DXXD	YFFY	LWWL	CPPC	JQQJ	vertrauen	träumen	gütig	sonnig	genießen	küssen	versagen	töten	gierig	sterben	gemein	krank	53pct	acq_USpleas_CSpleas1_noRW	acq23456_noRW	2	80	0	0	300	300	806	50	0	1	1	blank2r.bmp	0	1	+	0	1	blank2r.bmp	252	1	ZHHZ	306	3	gütig	559	0	0	0	0	0	0	0	0	0	0	0	0	0	0	0	0	0	0	0	0	0	0	0	0	0	0	0	0	0	0	0	0	0	0	0	0	0	0	0
081219	11:33:26	11:39:03	336142	5.0.10.0	5_exp_noRW	94	Rpleas_acq	CS_A	ZHHZ	DXXD	YFFY	LWWL	CPPC	JQQJ	vertrauen	träumen	gütig	sonnig	genießen	küssen	versagen	töten	gierig	sterben	gemein	krank	47pct	acq_USpleas_CSpleas1_noRW	acq23456_noRW	3	1	0	0	300	300	560	50	0	1	1	blank2r.bmp	0	1	+	0	1	blank2r.bmp	252	1	ZHHZ	306	2	träumen	559	0	0	0	0	0	0	0	0	0	0	0	0	0	0	0	0	0	0	0	0	0	0	0	0	0	0	0	0	0	0	0	0	0	0	0	0	0	0	0
081219	11:33:26	11:39:05	337754	5.0.10.0	5_exp_noRW	94	Rpleas_acq	CS_A	ZHHZ	DXXD	YFFY	LWWL	CPPC	JQQJ	vertrauen	träumen	gütig	sonnig	genießen	küssen	versagen	töten	gierig	sterben	gemein	krank	47pct	acq_USunple_CSpleas2_noRW	acq23456_noRW	3	2	0	0	300	300	450	46	0	1	1	blank2r.bmp	0	1	+	0	1	blank2r.bmp	252	1	DXXD	306	2	gemein	559	0	0	0	0	0	0	0	0	0	0	0	0	0	0	0	0	0	0	0	0	0	0	0	0	0	0	0	0	0	0	0	0	0	0	0	0	0	0	0
081219	11:33:26	11:39:06	339274	5.0.10.0	5_exp_noRW	94	Rpleas_acq	CS_A	ZHHZ	DXXD	YFFY	LWWL	CPPC	JQQJ	vertrauen	träumen	gütig	sonnig	genießen	küssen	versagen	töten	gierig	sterben	gemein	krank	53pct	acq_USunple_CSunple2_noRW	acq23456_noRW	3	3	0	0	300	300	335	46	0	1	1	blank2r.bmp	0	1	+	0	1	blank2r.bmp	252	1	LWWL	306	2	gemein	559	0	0	0	0	0	0	0	0	0	0	0	0	0	0	0	0	0	0	0	0	0	0	0	0	0	0	0	0	0	0	0	0	0	0	0	0	0	0	0
081219	11:33:26	11:39:08	340873	5.0.10.0	5_exp_noRW	94	Rpleas_acq	CS_A	ZHHZ	DXXD	YFFY	LWWL	CPPC	JQQJ	vertrauen	träumen	gütig	sonnig	genießen	küssen	versagen	töten	gierig	sterben	gemein	krank	47pct	acq_USunple_CSunple2_noRW	acq23456_noRW	3	4	0	0	300	300	428	46	0	1	1	blank2r.bmp	0	1	+	0	1	blank2r.bmp	252	1	LWWL	306	3	krank	559	0	0	0	0	0	0	0	0	0	0	0	0	0	0	0	0	0	0	0	0	0	0	0	0	0	0	0	0	0	0	0	0	0	0	0	0	0	0	0
081219	11:33:26	11:39:09	342419	5.0.10.0	5_exp_noRW	94	Rpleas_acq	CS_A	ZHHZ	DXXD	YFFY	LWWL	CPPC	JQQJ	vertrauen	träumen	gütig	sonnig	genießen	küssen	versagen	töten	gierig	sterben	gemein	krank	53pct	acq_USunple_CSunple2_noRW	acq23456_noRW	3	5	0	0	300	300	371	46	0	1	1	blank2r.bmp	0	1	+	0	1	blank2r.bmp	252	1	LWWL	306	2	gemein	559	0	0	0	0	0	0	0	0	0	0	0	0	0	0	0	0	0	0	0	0	0	0	0	0	0	0	0	0	0	0	0	0	0	0	0	0	0	0	0
081219	11:33:26	11:39:11	344152	5.0.10.0	5_exp_noRW	94	Rpleas_acq	CS_A	ZHHZ	DXXD	YFFY	LWWL	CPPC	JQQJ	vertrauen	träumen	gütig	sonnig	genießen	küssen	versagen	töten	gierig	sterben	gemein	krank	53pct	acq_USpleas_CSpleas2_noRW	acq23456_noRW	3	6	0	0	300	300	342	46	0	0	1	blank2r.bmp	0	1	+	0	1	blank2r.bmp	252	1	DXXD	306	2	genießen	559	1	FEHLER	932	0	0	0	0	0	0	0	0	0	0	0	0	0	0	0	0	0	0	0	0	0	0	0	0	0	0	0	0	0	0	0	0	0	0	0	0
081219	11:33:26	11:39:13	345924	5.0.10.0	5_exp_noRW	94	Rpleas_acq	CS_A	ZHHZ	DXXD	YFFY	LWWL	CPPC	JQQJ	vertrauen	träumen	gütig	sonnig	genießen	küssen	versagen	töten	gierig	sterben	gemein	krank	47pct	acq_USunple_CSunple1_noRW	acq23456_noRW	3	7	0	0	300	300	805	46	0	1	1	blank2r.bmp	0	1	+	0	1	blank2r.bmp	252	1	YFFY	306	2	töten	559	0	0	0	0	0	0	0	0	0	0	0	0	0	0	0	0	0	0	0	0	0	0	0	0	0	0	0	0	0	0	0	0	0	0	0	0	0	0	0
081219	11:33:26	11:39:15	348057	5.0.10.0	5_exp_noRW	94	Rpleas_acq	CS_A	ZHHZ	DXXD	YFFY	LWWL	CPPC	JQQJ	vertrauen	träumen	gütig	sonnig	genießen	küssen	versagen	töten	gierig	sterben	gemein	krank	47pct	acq_USpleas_CSpleas1_noRW	acq23456_noRW	3	8	0	0	300	300	954	50	0	1	1	blank2r.bmp	0	1	+	0	1	blank2r.bmp	252	1	ZHHZ	306	2	träumen	559	0	0	0	0	0	0	0	0	0	0	0	0	0	0	0	0	0	0	0	0	0	0	0	0	0	0	0	0	0	0	0	0	0	0	0	0	0	0	0
081219	11:33:26	11:39:17	349629	5.0.10.0	5_exp_noRW	94	Rpleas_acq	CS_A	ZHHZ	DXXD	YFFY	LWWL	CPPC	JQQJ	vertrauen	träumen	gütig	sonnig	genießen	küssen	versagen	töten	gierig	sterben	gemein	krank	53pct	acq_USpleas_CSpleas2_noRW	acq23456_noRW	3	9	0	0	300	300	402	50	0	1	1	blank2r.bmp	0	1	+	0	1	blank2r.bmp	252	1	DXXD	306	1	sonnig	559	0	0	0	0	0	0	0	0	0	0	0	0	0	0	0	0	0	0	0	0	0	0	0	0	0	0	0	0	0	0	0	0	0	0	0	0	0	0	0
081219	11:33:26	11:39:18	351269	5.0.10.0	5_exp_noRW	94	Rpleas_acq	CS_A	ZHHZ	DXXD	YFFY	LWWL	CPPC	JQQJ	vertrauen	träumen	gütig	sonnig	genießen	küssen	versagen	töten	gierig	sterben	gemein	krank	47pct	acq_USpleas_CSpleas2_noRW	acq23456_noRW	3	10	0	0	300	300	470	50	0	1	1	blank2r.bmp	0	1	+	0	1	blank2r.bmp	252	1	DXXD	306	3	küssen	559	0	0	0	0	0	0	0	0	0	0	0	0	0	0	0	0	0	0	0	0	0	0	0	0	0	0	0	0	0	0	0	0	0	0	0	0	0	0	0
081219	11:33:26	11:39:20	352788	5.0.10.0	5_exp_noRW	94	Rpleas_acq	CS_A	ZHHZ	DXXD	YFFY	LWWL	CPPC	JQQJ	vertrauen	träumen	gütig	sonnig	genießen	küssen	versagen	töten	gierig	sterben	gemein	krank	47pct	acq_USpleas_CSpleas1_noRW	acq23456_noRW	3	11	0	0	300	300	357	50	0	1	1	blank2r.bmp	0	1	+	0	1	blank2r.bmp	252	1	ZHHZ	306	1	vertrauen	559	0	0	0	0	0	0	0	0	0	0	0	0	0	0	0	0	0	0	0	0	0	0	0	0	0	0	0	0	0	0	0	0	0	0	0	0	0	0	0
081219	11:33:26	11:39:21	354374	5.0.10.0	5_exp_noRW	94	Rpleas_acq	CS_A	ZHHZ	DXXD	YFFY	LWWL	CPPC	JQQJ	vertrauen	träumen	gütig	sonnig	genießen	küssen	versagen	töten	gierig	sterben	gemein	krank	53pct	acq_USunple_CSpleas1_noRW	acq23456_noRW	3	12	0	0	300	300	398	46	0	1	1	blank2r.bmp	0	1	+	0	1	blank2r.bmp	252	1	ZHHZ	306	3	gierig	559	0	0	0	0	0	0	0	0	0	0	0	0	0	0	0	0	0	0	0	0	0	0	0	0	0	0	0	0	0	0	0	0	0	0	0	0	0	0	0
081219	11:33:26	11:39:23	356000	5.0.10.0	5_exp_noRW	94	Rpleas_acq	CS_A	ZHHZ	DXXD	YFFY	LWWL	CPPC	JQQJ	vertrauen	träumen	gütig	sonnig	genießen	küssen	versagen	töten	gierig	sterben	gemein	krank	53pct	acq_USpleas_CSunple2_noRW	acq23456_noRW	3	13	0	0	300	300	455	50	0	1	1	blank2r.bmp	0	1	+	0	1	blank2r.bmp	252	1	LWWL	306	3	küssen	559	0	0	0	0	0	0	0	0	0	0	0	0	0	0	0	0	0	0	0	0	0	0	0	0	0	0	0	0	0	0	0	0	0	0	0	0	0	0	0
081219	11:33:26	11:39:25	357626	5.0.10.0	5_exp_noRW	94	Rpleas_acq	CS_A	ZHHZ	DXXD	YFFY	LWWL	CPPC	JQQJ	vertrauen	träumen	gütig	sonnig	genießen	küssen	versagen	töten	gierig	sterben	gemein	krank	47pct	acq_USunple_CSunple1_noRW	acq23456_noRW	3	14	0	0	300	300	455	46	0	1	1	blank2r.bmp	0	1	+	0	1	blank2r.bmp	252	1	YFFY	306	3	gierig	559	0	0	0	0	0	0	0	0	0	0	0	0	0	0	0	0	0	0	0	0	0	0	0	0	0	0	0	0	0	0	0	0	0	0	0	0	0	0	0
081219	11:33:26	11:39:27	359572	5.0.10.0	5_exp_noRW	94	Rpleas_acq	CS_A	ZHHZ	DXXD	YFFY	LWWL	CPPC	JQQJ	vertrauen	träumen	gütig	sonnig	genießen	küssen	versagen	töten	gierig	sterben	gemein	krank	53pct	acq_USpleas_CSunple1_noRW	acq23456_noRW	3	15	0	0	300	300	758	50	0	1	1	blank2r.bmp	0	1	+	0	1	blank2r.bmp	252	1	YFFY	306	3	gütig	559	0	0	0	0	0	0	0	0	0	0	0	0	0	0	0	0	0	0	0	0	0	0	0	0	0	0	0	0	0	0	0	0	0	0	0	0	0	0	0
081219	11:33:26	11:39:28	361238	5.0.10.0	5_exp_noRW	94	Rpleas_acq	CS_A	ZHHZ	DXXD	YFFY	LWWL	CPPC	JQQJ	vertrauen	träumen	gütig	sonnig	genießen	küssen	versagen	töten	gierig	sterben	gemein	krank	47pct	acq_USunple_CSunple1_noRW	acq23456_noRW	3	16	0	0	300	300	495	46	0	1	1	blank2r.bmp	0	1	+	0	1	blank2r.bmp	252	1	YFFY	306	2	töten	559	0	0	0	0	0	0	0	0	0	0	0	0	0	0	0	0	0	0	0	0	0	0	0	0	0	0	0	0	0	0	0	0	0	0	0	0	0	0	0
081219	11:33:26	11:39:30	362944	5.0.10.0	5_exp_noRW	94	Rpleas_acq	CS_A	ZHHZ	DXXD	YFFY	LWWL	CPPC	JQQJ	vertrauen	träumen	gütig	sonnig	genießen	küssen	versagen	töten	gierig	sterben	gemein	krank	47pct	acq_USpleas_CSpleas1_noRW	acq23456_noRW	3	17	0	0	300	300	543	50	0	1	1	blank2r.bmp	0	1	+	0	1	blank2r.bmp	252	1	ZHHZ	306	3	gütig	559	0	0	0	0	0	0	0	0	0	0	0	0	0	0	0	0	0	0	0	0	0	0	0	0	0	0	0	0	0	0	0	0	0	0	0	0	0	0	0
081219	11:33:26	11:39:32	364783	5.0.10.0	5_exp_noRW	94	Rpleas_acq	CS_A	ZHHZ	DXXD	YFFY	LWWL	CPPC	JQQJ	vertrauen	träumen	gütig	sonnig	genießen	küssen	versagen	töten	gierig	sterben	gemein	krank	47pct	acq_USunple_CSunple2_noRW	acq23456_noRW	3	18	0	0	300	300	655	46	0	1	1	blank2r.bmp	0	1	+	0	1	blank2r.bmp	252	1	LWWL	306	1	sterben	559	0	0	0	0	0	0	0	0	0	0	0	0	0	0	0	0	0	0	0	0	0	0	0	0	0	0	0	0	0	0	0	0	0	0	0	0	0	0	0
081219	11:33:26	11:39:33	366396	5.0.10.0	5_exp_noRW	94	Rpleas_acq	CS_A	ZHHZ	DXXD	YFFY	LWWL	CPPC	JQQJ	vertrauen	träumen	gütig	sonnig	genießen	küssen	versagen	töten	gierig	sterben	gemein	krank	53pct	acq_USpleas_CSpleas2_noRW	acq23456_noRW	3	19	0	0	300	300	449	50	0	1	1	blank2r.bmp	0	1	+	0	1	blank2r.bmp	252	1	DXXD	306	2	genießen	559	0	0	0	0	0	0	0	0	0	0	0	0	0	0	0	0	0	0	0	0	0	0	0	0	0	0	0	0	0	0	0	0	0	0	0	0	0	0	0
081219	11:33:26	11:39:35	368009	5.0.10.0	5_exp_noRW	94	Rpleas_acq	CS_A	ZHHZ	DXXD	YFFY	LWWL	CPPC	JQQJ	vertrauen	träumen	gütig	sonnig	genießen	küssen	versagen	töten	gierig	sterben	gemein	krank	47pct	acq_USunple_CSunple1_noRW	acq23456_noRW	3	20	0	0	300	300	428	46	0	1	1	blank2r.bmp	0	1	+	0	1	blank2r.bmp	252	1	YFFY	306	1	versagen	559	0	0	0	0	0	0	0	0	0	0	0	0	0	0	0	0	0	0	0	0	0	0	0	0	0	0	0	0	0	0	0	0	0	0	0	0	0	0	0
081219	11:33:26	11:39:37	370341	5.0.10.0	5_exp_noRW	94	Rpleas_acq	CS_A	ZHHZ	DXXD	YFFY	LWWL	CPPC	JQQJ	vertrauen	träumen	gütig	sonnig	genießen	küssen	versagen	töten	gierig	sterben	gemein	krank	53pct	acq_USunple_CSunple1_noRW	acq23456_noRW	3	21	0	0	300	300	1165	46	0	1	1	blank2r.bmp	0	1	+	0	1	blank2r.bmp	252	1	YFFY	306	3	gierig	559	0	0	0	0	0	0	0	0	0	0	0	0	0	0	0	0	0	0	0	0	0	0	0	0	0	0	0	0	0	0	0	0	0	0	0	0	0	0	0
081219	11:33:26	11:39:39	371887	5.0.10.0	5_exp_noRW	94	Rpleas_acq	CS_A	ZHHZ	DXXD	YFFY	LWWL	CPPC	JQQJ	vertrauen	träumen	gütig	sonnig	genießen	küssen	versagen	töten	gierig	sterben	gemein	krank	53pct	acq_USpleas_CSpleas2_noRW	acq23456_noRW	3	22	0	0	300	300	366	50	0	1	1	blank2r.bmp	0	1	+	0	1	blank2r.bmp	252	1	DXXD	306	3	küssen	559	0	0	0	0	0	0	0	0	0	0	0	0	0	0	0	0	0	0	0	0	0	0	0	0	0	0	0	0	0	0	0	0	0	0	0	0	0	0	0
081219	11:33:26	11:39:41	373553	5.0.10.0	5_exp_noRW	94	Rpleas_acq	CS_A	ZHHZ	DXXD	YFFY	LWWL	CPPC	JQQJ	vertrauen	träumen	gütig	sonnig	genießen	küssen	versagen	töten	gierig	sterben	gemein	krank	53pct	acq_USpleas_CSpleas2_noRW	acq23456_noRW	3	23	0	0	300	300	482	50	0	1	1	blank2r.bmp	0	1	+	0	1	blank2r.bmp	252	1	DXXD	306	1	sonnig	559	0	0	0	0	0	0	0	0	0	0	0	0	0	0	0	0	0	0	0	0	0	0	0	0	0	0	0	0	0	0	0	0	0	0	0	0	0	0	0
081219	11:33:26	11:39:42	375219	5.0.10.0	5_exp_noRW	94	Rpleas_acq	CS_A	ZHHZ	DXXD	YFFY	LWWL	CPPC	JQQJ	vertrauen	träumen	gütig	sonnig	genießen	küssen	versagen	töten	gierig	sterben	gemein	krank	47pct	acq_USunple_CSunple2_noRW	acq23456_noRW	3	24	0	0	300	300	482	46	0	1	1	blank2r.bmp	0	1	+	0	1	blank2r.bmp	252	1	LWWL	306	1	sterben	559	0	0	0	0	0	0	0	0	0	0	0	0	0	0	0	0	0	0	0	0	0	0	0	0	0	0	0	0	0	0	0	0	0	0	0	0	0	0	0
081219	11:33:26	11:39:44	376792	5.0.10.0	5_exp_noRW	94	Rpleas_acq	CS_A	ZHHZ	DXXD	YFFY	LWWL	CPPC	JQQJ	vertrauen	träumen	gütig	sonnig	genießen	küssen	versagen	töten	gierig	sterben	gemein	krank	47pct	acq_USunple_CSunple2_noRW	acq23456_noRW	3	25	0	0	300	300	402	46	0	1	1	blank2r.bmp	0	1	+	0	1	blank2r.bmp	252	1	LWWL	306	3	krank	559	0	0	0	0	0	0	0	0	0	0	0	0	0	0	0	0	0	0	0	0	0	0	0	0	0	0	0	0	0	0	0	0	0	0	0	0	0	0	0
081219	11:33:26	11:39:45	378351	5.0.10.0	5_exp_noRW	94	Rpleas_acq	CS_A	ZHHZ	DXXD	YFFY	LWWL	CPPC	JQQJ	vertrauen	träumen	gütig	sonnig	genießen	küssen	versagen	töten	gierig	sterben	gemein	krank	47pct	acq_USunple_CSunple2_noRW	acq23456_noRW	3	26	0	0	300	300	394	46	0	1	1	blank2r.bmp	0	1	+	0	1	blank2r.bmp	252	1	LWWL	306	2	gemein	559	0	0	0	0	0	0	0	0	0	0	0	0	0	0	0	0	0	0	0	0	0	0	0	0	0	0	0	0	0	0	0	0	0	0	0	0	0	0	0
081219	11:33:26	11:39:47	379950	5.0.10.0	5_exp_noRW	94	Rpleas_acq	CS_A	ZHHZ	DXXD	YFFY	LWWL	CPPC	JQQJ	vertrauen	träumen	gütig	sonnig	genießen	küssen	versagen	töten	gierig	sterben	gemein	krank	53pct	acq_USpleas_CSunple1_noRW	acq23456_noRW	3	27	0	0	300	300	434	50	0	1	1	blank2r.bmp	0	1	+	0	1	blank2r.bmp	252	1	YFFY	306	2	träumen	559	0	0	0	0	0	0	0	0	0	0	0	0	0	0	0	0	0	0	0	0	0	0	0	0	0	0	0	0	0	0	0	0	0	0	0	0	0	0	0
081219	11:33:26	11:39:49	381510	5.0.10.0	5_exp_noRW	94	Rpleas_acq	CS_A	ZHHZ	DXXD	YFFY	LWWL	CPPC	JQQJ	vertrauen	träumen	gütig	sonnig	genießen	küssen	versagen	töten	gierig	sterben	gemein	krank	47pct	acq_USpleas_CSpleas2_noRW	acq23456_noRW	3	28	0	0	300	300	382	50	0	1	1	blank2r.bmp	0	1	+	0	1	blank2r.bmp	252	1	DXXD	306	2	genießen	559	0	0	0	0	0	0	0	0	0	0	0	0	0	0	0	0	0	0	0	0	0	0	0	0	0	0	0	0	0	0	0	0	0	0	0	0	0	0	0
081219	11:33:26	11:39:50	383069	5.0.10.0	5_exp_noRW	94	Rpleas_acq	CS_A	ZHHZ	DXXD	YFFY	LWWL	CPPC	JQQJ	vertrauen	träumen	gütig	sonnig	genießen	küssen	versagen	töten	gierig	sterben	gemein	krank	53pct	acq_USpleas_CSpleas1_noRW	acq23456_noRW	3	29	0	0	300	300	384	50	0	1	1	blank2r.bmp	0	1	+	0	1	blank2r.bmp	252	1	ZHHZ	306	1	vertrauen	559	0	0	0	0	0	0	0	0	0	0	0	0	0	0	0	0	0	0	0	0	0	0	0	0	0	0	0	0	0	0	0	0	0	0	0	0	0	0	0
081219	11:33:26	11:39:52	384762	5.0.10.0	5_exp_noRW	94	Rpleas_acq	CS_A	ZHHZ	DXXD	YFFY	LWWL	CPPC	JQQJ	vertrauen	träumen	gütig	sonnig	genießen	küssen	versagen	töten	gierig	sterben	gemein	krank	47pct	acq_USunple_CSunple1_noRW	acq23456_noRW	3	30	0	0	300	300	510	46	0	1	1	blank2r.bmp	0	1	+	0	1	blank2r.bmp	252	1	YFFY	306	1	versagen	559	0	0	0	0	0	0	0	0	0	0	0	0	0	0	0	0	0	0	0	0	0	0	0	0	0	0	0	0	0	0	0	0	0	0	0	0	0	0	0
081219	11:33:26	11:39:53	386468	5.0.10.0	5_exp_noRW	94	Rpleas_acq	CS_A	ZHHZ	DXXD	YFFY	LWWL	CPPC	JQQJ	vertrauen	träumen	gütig	sonnig	genießen	küssen	versagen	töten	gierig	sterben	gemein	krank	47pct	acq_USpleas_CSpleas1_noRW	acq23456_noRW	3	31	0	0	300	300	537	50	0	1	1	blank2r.bmp	0	1	+	0	1	blank2r.bmp	252	1	ZHHZ	306	2	träumen	559	0	0	0	0	0	0	0	0	0	0	0	0	0	0	0	0	0	0	0	0	0	0	0	0	0	0	0	0	0	0	0	0	0	0	0	0	0	0	0
081219	11:33:26	11:39:55	388174	5.0.10.0	5_exp_noRW	94	Rpleas_acq	CS_A	ZHHZ	DXXD	YFFY	LWWL	CPPC	JQQJ	vertrauen	träumen	gütig	sonnig	genießen	küssen	versagen	töten	gierig	sterben	gemein	krank	47pct	acq_USunple_CSunple2_noRW	acq23456_noRW	3	32	0	0	300	300	530	46	0	1	1	blank2r.bmp	0	1	+	0	1	blank2r.bmp	252	1	LWWL	306	2	gemein	559	0	0	0	0	0	0	0	0	0	0	0	0	0	0	0	0	0	0	0	0	0	0	0	0	0	0	0	0	0	0	0	0	0	0	0	0	0	0	0
081219	11:33:26	11:39:57	389920	5.0.10.0	5_exp_noRW	94	Rpleas_acq	CS_A	ZHHZ	DXXD	YFFY	LWWL	CPPC	JQQJ	vertrauen	träumen	gütig	sonnig	genießen	küssen	versagen	töten	gierig	sterben	gemein	krank	47pct	acq_USpleas_CSpleas1_noRW	acq23456_noRW	3	33	0	0	300	300	568	50	0	1	1	blank2r.bmp	0	1	+	0	1	blank2r.bmp	252	1	ZHHZ	306	3	gütig	559	0	0	0	0	0	0	0	0	0	0	0	0	0	0	0	0	0	0	0	0	0	0	0	0	0	0	0	0	0	0	0	0	0	0	0	0	0	0	0
081219	11:33:26	11:39:59	391732	5.0.10.0	5_exp_noRW	94	Rpleas_acq	CS_A	ZHHZ	DXXD	YFFY	LWWL	CPPC	JQQJ	vertrauen	träumen	gütig	sonnig	genießen	küssen	versagen	töten	gierig	sterben	gemein	krank	53pct	acq_USunple_CSunple1_noRW	acq23456_noRW	3	34	0	0	300	300	632	46	0	1	1	blank2r.bmp	0	1	+	0	1	blank2r.bmp	252	1	YFFY	306	2	töten	559	0	0	0	0	0	0	0	0	0	0	0	0	0	0	0	0	0	0	0	0	0	0	0	0	0	0	0	0	0	0	0	0	0	0	0	0	0	0	0
081219	11:33:26	11:40:00	393292	5.0.10.0	5_exp_noRW	94	Rpleas_acq	CS_A	ZHHZ	DXXD	YFFY	LWWL	CPPC	JQQJ	vertrauen	träumen	gütig	sonnig	genießen	küssen	versagen	töten	gierig	sterben	gemein	krank	47pct	acq_USpleas_CSpleas1_noRW	acq23456_noRW	3	35	0	0	300	300	396	50	0	1	1	blank2r.bmp	0	1	+	0	1	blank2r.bmp	252	1	ZHHZ	306	3	gütig	559	0	0	0	0	0	0	0	0	0	0	0	0	0	0	0	0	0	0	0	0	0	0	0	0	0	0	0	0	0	0	0	0	0	0	0	0	0	0	0
081219	11:33:26	11:40:02	394931	5.0.10.0	5_exp_noRW	94	Rpleas_acq	CS_A	ZHHZ	DXXD	YFFY	LWWL	CPPC	JQQJ	vertrauen	träumen	gütig	sonnig	genießen	küssen	versagen	töten	gierig	sterben	gemein	krank	53pct	acq_USunple_CSpleas1_noRW	acq23456_noRW	3	36	0	0	300	300	473	46	0	1	1	blank2r.bmp	0	1	+	0	1	blank2r.bmp	252	1	ZHHZ	306	3	gierig	559	0	0	0	0	0	0	0	0	0	0	0	0	0	0	0	0	0	0	0	0	0	0	0	0	0	0	0	0	0	0	0	0	0	0	0	0	0	0	0
081219	11:33:26	11:40:04	396490	5.0.10.0	5_exp_noRW	94	Rpleas_acq	CS_A	ZHHZ	DXXD	YFFY	LWWL	CPPC	JQQJ	vertrauen	träumen	gütig	sonnig	genießen	küssen	versagen	töten	gierig	sterben	gemein	krank	47pct	acq_USpleas_CSunple2_noRW	acq23456_noRW	3	37	0	0	300	300	388	50	0	1	1	blank2r.bmp	0	1	+	0	1	blank2r.bmp	252	1	LWWL	306	3	küssen	559	0	0	0	0	0	0	0	0	0	0	0	0	0	0	0	0	0	0	0	0	0	0	0	0	0	0	0	0	0	0	0	0	0	0	0	0	0	0	0
081219	11:33:26	11:40:05	398170	5.0.10.0	5_exp_noRW	94	Rpleas_acq	CS_A	ZHHZ	DXXD	YFFY	LWWL	CPPC	JQQJ	vertrauen	träumen	gütig	sonnig	genießen	küssen	versagen	töten	gierig	sterben	gemein	krank	47pct	acq_USunple_CSpleas2_noRW	acq23456_noRW	3	38	0	0	300	300	512	46	0	1	1	blank2r.bmp	0	1	+	0	1	blank2r.bmp	252	1	DXXD	306	1	sterben	559	0	0	0	0	0	0	0	0	0	0	0	0	0	0	0	0	0	0	0	0	0	0	0	0	0	0	0	0	0	0	0	0	0	0	0	0	0	0	0
081219	11:33:26	11:40:08	400595	5.0.10.0	5_exp_noRW	94	Rpleas_acq	CS_A	ZHHZ	DXXD	YFFY	LWWL	CPPC	JQQJ	vertrauen	träumen	gütig	sonnig	genießen	küssen	versagen	töten	gierig	sterben	gemein	krank	53pct	acq_USpleas_CSpleas2_noRW	acq23456_noRW	3	39	0	0	300	300	1246	50	0	1	1	blank2r.bmp	0	1	+	0	1	blank2r.bmp	252	1	DXXD	306	2	genießen	559	0	0	0	0	0	0	0	0	0	0	0	0	0	0	0	0	0	0	0	0	0	0	0	0	0	0	0	0	0	0	0	0	0	0	0	0	0	0	0
081219	11:33:26	11:40:09	402221	5.0.10.0	5_exp_noRW	94	Rpleas_acq	CS_A	ZHHZ	DXXD	YFFY	LWWL	CPPC	JQQJ	vertrauen	träumen	gütig	sonnig	genießen	küssen	versagen	töten	gierig	sterben	gemein	krank	53pct	acq_USunple_CSunple1_noRW	acq23456_noRW	3	40	0	0	300	300	458	46	0	1	1	blank2r.bmp	0	1	+	0	1	blank2r.bmp	252	1	YFFY	306	1	versagen	559	0	0	0	0	0	0	0	0	0	0	0	0	0	0	0	0	0	0	0	0	0	0	0	0	0	0	0	0	0	0	0	0	0	0	0	0	0	0	0
081219	11:33:26	11:40:11	403834	5.0.10.0	5_exp_noRW	94	Rpleas_acq	CS_A	ZHHZ	DXXD	YFFY	LWWL	CPPC	JQQJ	vertrauen	träumen	gütig	sonnig	genießen	küssen	versagen	töten	gierig	sterben	gemein	krank	47pct	acq_USunple_CSunple1_noRW	acq23456_noRW	3	41	0	0	300	300	437	46	0	1	1	blank2r.bmp	0	1	+	0	1	blank2r.bmp	252	1	YFFY	306	2	töten	559	0	0	0	0	0	0	0	0	0	0	0	0	0	0	0	0	0	0	0	0	0	0	0	0	0	0	0	0	0	0	0	0	0	0	0	0	0	0	0
081219	11:33:26	11:40:13	405593	5.0.10.0	5_exp_noRW	94	Rpleas_acq	CS_A	ZHHZ	DXXD	YFFY	LWWL	CPPC	JQQJ	vertrauen	träumen	gütig	sonnig	genießen	küssen	versagen	töten	gierig	sterben	gemein	krank	53pct	acq_USpleas_CSunple2_noRW	acq23456_noRW	3	42	0	0	300	300	578	50	0	1	1	blank2r.bmp	0	1	+	0	1	blank2r.bmp	252	1	LWWL	306	2	genießen	559	0	0	0	0	0	0	0	0	0	0	0	0	0	0	0	0	0	0	0	0	0	0	0	0	0	0	0	0	0	0	0	0	0	0	0	0	0	0	0
081219	11:33:26	11:40:14	407246	5.0.10.0	5_exp_noRW	94	Rpleas_acq	CS_A	ZHHZ	DXXD	YFFY	LWWL	CPPC	JQQJ	vertrauen	träumen	gütig	sonnig	genießen	küssen	versagen	töten	gierig	sterben	gemein	krank	47pct	acq_USunple_CSunple2_noRW	acq23456_noRW	3	43	0	0	300	300	477	46	0	1	1	blank2r.bmp	0	1	+	0	1	blank2r.bmp	252	1	LWWL	306	1	sterben	559	0	0	0	0	0	0	0	0	0	0	0	0	0	0	0	0	0	0	0	0	0	0	0	0	0	0	0	0	0	0	0	0	0	0	0	0	0	0	0
081219	11:33:26	11:40:16	408872	5.0.10.0	5_exp_noRW	94	Rpleas_acq	CS_A	ZHHZ	DXXD	YFFY	LWWL	CPPC	JQQJ	vertrauen	träumen	gütig	sonnig	genießen	küssen	versagen	töten	gierig	sterben	gemein	krank	53pct	acq_USunple_CSunple2_noRW	acq23456_noRW	3	44	0	0	300	300	446	46	0	1	1	blank2r.bmp	0	1	+	0	1	blank2r.bmp	252	1	LWWL	306	3	krank	559	0	0	0	0	0	0	0	0	0	0	0	0	0	0	0	0	0	0	0	0	0	0	0	0	0	0	0	0	0	0	0	0	0	0	0	0	0	0	0
081219	11:33:26	11:40:17	410471	5.0.10.0	5_exp_noRW	94	Rpleas_acq	CS_A	ZHHZ	DXXD	YFFY	LWWL	CPPC	JQQJ	vertrauen	träumen	gütig	sonnig	genießen	küssen	versagen	töten	gierig	sterben	gemein	krank	53pct	acq_USpleas_CSpleas2_noRW	acq23456_noRW	3	45	0	0	300	300	422	50	0	1	1	blank2r.bmp	0	1	+	0	1	blank2r.bmp	252	1	DXXD	306	3	küssen	559	0	0	0	0	0	0	0	0	0	0	0	0	0	0	0	0	0	0	0	0	0	0	0	0	0	0	0	0	0	0	0	0	0	0	0	0	0	0	0
081219	11:33:26	11:40:19	412111	5.0.10.0	5_exp_noRW	94	Rpleas_acq	CS_A	ZHHZ	DXXD	YFFY	LWWL	CPPC	JQQJ	vertrauen	träumen	gütig	sonnig	genießen	küssen	versagen	töten	gierig	sterben	gemein	krank	53pct	acq_USpleas_CSpleas2_noRW	acq23456_noRW	3	46	0	0	300	300	451	50	0	1	1	blank2r.bmp	0	1	+	0	1	blank2r.bmp	252	1	DXXD	306	1	sonnig	559	0	0	0	0	0	0	0	0	0	0	0	0	0	0	0	0	0	0	0	0	0	0	0	0	0	0	0	0	0	0	0	0	0	0	0	0	0	0	0
081219	11:33:26	11:40:21	413803	5.0.10.0	5_exp_noRW	94	Rpleas_acq	CS_A	ZHHZ	DXXD	YFFY	LWWL	CPPC	JQQJ	vertrauen	träumen	gütig	sonnig	genießen	küssen	versagen	töten	gierig	sterben	gemein	krank	47pct	acq_USpleas_CSpleas1_noRW	acq23456_noRW	3	47	0	0	300	300	524	50	0	1	1	blank2r.bmp	0	1	+	0	1	blank2r.bmp	252	1	ZHHZ	306	2	träumen	559	0	0	0	0	0	0	0	0	0	0	0	0	0	0	0	0	0	0	0	0	0	0	0	0	0	0	0	0	0	0	0	0	0	0	0	0	0	0	0
081219	11:33:26	11:40:23	415509	5.0.10.0	5_exp_noRW	94	Rpleas_acq	CS_A	ZHHZ	DXXD	YFFY	LWWL	CPPC	JQQJ	vertrauen	träumen	gütig	sonnig	genießen	küssen	versagen	töten	gierig	sterben	gemein	krank	47pct	acq_USunple_CSunple1_noRW	acq23456_noRW	3	48	0	0	300	300	526	46	0	1	1	blank2r.bmp	0	1	+	0	1	blank2r.bmp	252	1	YFFY	306	3	gierig	559	0	0	0	0	0	0	0	0	0	0	0	0	0	0	0	0	0	0	0	0	0	0	0	0	0	0	0	0	0	0	0	0	0	0	0	0	0	0	0
081219	11:33:26	11:40:24	417042	5.0.10.0	5_exp_noRW	94	Rpleas_acq	CS_A	ZHHZ	DXXD	YFFY	LWWL	CPPC	JQQJ	vertrauen	träumen	gütig	sonnig	genießen	küssen	versagen	töten	gierig	sterben	gemein	krank	53pct	acq_USpleas_CSpleas2_noRW	acq23456_noRW	3	49	0	0	300	300	361	50	0	1	1	blank2r.bmp	0	1	+	0	1	blank2r.bmp	252	1	DXXD	306	1	sonnig	559	0	0	0	0	0	0	0	0	0	0	0	0	0	0	0	0	0	0	0	0	0	0	0	0	0	0	0	0	0	0	0	0	0	0	0	0	0	0	0
081219	11:33:26	11:40:26	418575	5.0.10.0	5_exp_noRW	94	Rpleas_acq	CS_A	ZHHZ	DXXD	YFFY	LWWL	CPPC	JQQJ	vertrauen	träumen	gütig	sonnig	genießen	küssen	versagen	töten	gierig	sterben	gemein	krank	53pct	acq_USpleas_CSpleas2_noRW	acq23456_noRW	3	50	0	0	300	300	362	50	0	1	1	blank2r.bmp	0	1	+	0	1	blank2r.bmp	252	1	DXXD	306	3	küssen	559	0	0	0	0	0	0	0	0	0	0	0	0	0	0	0	0	0	0	0	0	0	0	0	0	0	0	0	0	0	0	0	0	0	0	0	0	0	0	0
081219	11:33:26	11:40:27	420174	5.0.10.0	5_exp_noRW	94	Rpleas_acq	CS_A	ZHHZ	DXXD	YFFY	LWWL	CPPC	JQQJ	vertrauen	träumen	gütig	sonnig	genießen	küssen	versagen	töten	gierig	sterben	gemein	krank	53pct	acq_USpleas_CSpleas1_noRW	acq23456_noRW	3	51	0	0	300	300	424	50	0	1	1	blank2r.bmp	0	1	+	0	1	blank2r.bmp	252	1	ZHHZ	306	1	vertrauen	559	0	0	0	0	0	0	0	0	0	0	0	0	0	0	0	0	0	0	0	0	0	0	0	0	0	0	0	0	0	0	0	0	0	0	0	0	0	0	0
081219	11:33:26	11:40:29	421747	5.0.10.0	5_exp_noRW	94	Rpleas_acq	CS_A	ZHHZ	DXXD	YFFY	LWWL	CPPC	JQQJ	vertrauen	träumen	gütig	sonnig	genießen	küssen	versagen	töten	gierig	sterben	gemein	krank	53pct	acq_USpleas_CSunple1_noRW	acq23456_noRW	3	52	0	0	300	300	395	50	0	1	1	blank2r.bmp	0	1	+	0	1	blank2r.bmp	252	1	YFFY	306	1	vertrauen	559	0	0	0	0	0	0	0	0	0	0	0	0	0	0	0	0	0	0	0	0	0	0	0	0	0	0	0	0	0	0	0	0	0	0	0	0	0	0	0
081219	11:33:26	11:40:30	423399	5.0.10.0	5_exp_noRW	94	Rpleas_acq	CS_A	ZHHZ	DXXD	YFFY	LWWL	CPPC	JQQJ	vertrauen	träumen	gütig	sonnig	genießen	küssen	versagen	töten	gierig	sterben	gemein	krank	47pct	acq_USunple_CSunple1_noRW	acq23456_noRW	3	53	0	0	300	300	481	46	0	1	1	blank2r.bmp	0	1	+	0	1	blank2r.bmp	252	1	YFFY	306	3	gierig	559	0	0	0	0	0	0	0	0	0	0	0	0	0	0	0	0	0	0	0	0	0	0	0	0	0	0	0	0	0	0	0	0	0	0	0	0	0	0	0
081219	11:33:26	11:40:32	425039	5.0.10.0	5_exp_noRW	94	Rpleas_acq	CS_A	ZHHZ	DXXD	YFFY	LWWL	CPPC	JQQJ	vertrauen	träumen	gütig	sonnig	genießen	küssen	versagen	töten	gierig	sterben	gemein	krank	53pct	acq_USunple_CSunple2_noRW	acq23456_noRW	3	54	0	0	300	300	465	46	0	1	1	blank2r.bmp	0	1	+	0	1	blank2r.bmp	252	1	LWWL	306	2	gemein	559	0	0	0	0	0	0	0	0	0	0	0	0	0	0	0	0	0	0	0	0	0	0	0	0	0	0	0	0	0	0	0	0	0	0	0	0	0	0	0
081219	11:33:26	11:40:34	426691	5.0.10.0	5_exp_noRW	94	Rpleas_acq	CS_A	ZHHZ	DXXD	YFFY	LWWL	CPPC	JQQJ	vertrauen	träumen	gütig	sonnig	genießen	küssen	versagen	töten	gierig	sterben	gemein	krank	53pct	acq_USunple_CSunple1_noRW	acq23456_noRW	3	55	0	0	300	300	482	46	0	1	1	blank2r.bmp	0	1	+	0	1	blank2r.bmp	252	1	YFFY	306	2	töten	559	0	0	0	0	0	0	0	0	0	0	0	0	0	0	0	0	0	0	0	0	0	0	0	0	0	0	0	0	0	0	0	0	0	0	0	0	0	0	0
081219	11:33:26	11:40:36	428650	5.0.10.0	5_exp_noRW	94	Rpleas_acq	CS_A	ZHHZ	DXXD	YFFY	LWWL	CPPC	JQQJ	vertrauen	träumen	gütig	sonnig	genießen	küssen	versagen	töten	gierig	sterben	gemein	krank	47pct	acq_USpleas_CSpleas1_noRW	acq23456_noRW	3	56	0	0	300	300	787	50	0	1	1	blank2r.bmp	0	1	+	0	1	blank2r.bmp	252	1	ZHHZ	306	3	gütig	559	0	0	0	0	0	0	0	0	0	0	0	0	0	0	0	0	0	0	0	0	0	0	0	0	0	0	0	0	0	0	0	0	0	0	0	0	0	0	0
081219	11:33:26	11:40:37	430290	5.0.10.0	5_exp_noRW	94	Rpleas_acq	CS_A	ZHHZ	DXXD	YFFY	LWWL	CPPC	JQQJ	vertrauen	träumen	gütig	sonnig	genießen	küssen	versagen	töten	gierig	sterben	gemein	krank	47pct	acq_USunple_CSpleas2_noRW	acq23456_noRW	3	57	0	0	300	300	476	46	0	1	1	blank2r.bmp	0	1	+	0	1	blank2r.bmp	252	1	DXXD	306	2	gemein	559	0	0	0	0	0	0	0	0	0	0	0	0	0	0	0	0	0	0	0	0	0	0	0	0	0	0	0	0	0	0	0	0	0	0	0	0	0	0	0
081219	11:33:26	11:40:39	431849	5.0.10.0	5_exp_noRW	94	Rpleas_acq	CS_A	ZHHZ	DXXD	YFFY	LWWL	CPPC	JQQJ	vertrauen	träumen	gütig	sonnig	genießen	küssen	versagen	töten	gierig	sterben	gemein	krank	53pct	acq_USpleas_CSpleas1_noRW	acq23456_noRW	3	58	0	0	300	300	379	50	0	1	1	blank2r.bmp	0	1	+	0	1	blank2r.bmp	252	1	ZHHZ	306	2	träumen	559	0	0	0	0	0	0	0	0	0	0	0	0	0	0	0	0	0	0	0	0	0	0	0	0	0	0	0	0	0	0	0	0	0	0	0	0	0	0	0
081219	11:33:26	11:40:41	433582	5.0.10.0	5_exp_noRW	94	Rpleas_acq	CS_A	ZHHZ	DXXD	YFFY	LWWL	CPPC	JQQJ	vertrauen	träumen	gütig	sonnig	genießen	küssen	versagen	töten	gierig	sterben	gemein	krank	53pct	acq_USunple_CSunple2_noRW	acq23456_noRW	3	59	0	0	300	300	556	46	0	1	1	blank2r.bmp	0	1	+	0	1	blank2r.bmp	252	1	LWWL	306	3	krank	559	0	0	0	0	0	0	0	0	0	0	0	0	0	0	0	0	0	0	0	0	0	0	0	0	0	0	0	0	0	0	0	0	0	0	0	0	0	0	0
081219	11:33:26	11:40:42	435434	5.0.10.0	5_exp_noRW	94	Rpleas_acq	CS_A	ZHHZ	DXXD	YFFY	LWWL	CPPC	JQQJ	vertrauen	träumen	gütig	sonnig	genießen	küssen	versagen	töten	gierig	sterben	gemein	krank	53pct	acq_USunple_CSpleas1_noRW	acq23456_noRW	3	60	0	0	300	300	462	50	0	0	1	blank2r.bmp	0	1	+	0	1	blank2r.bmp	252	1	ZHHZ	306	1	versagen	559	1	FEHLER	1052	0	0	0	0	0	0	0	0	0	0	0	0	0	0	0	0	0	0	0	0	0	0	0	0	0	0	0	0	0	0	0	0	0	0	0	0
081219	11:33:26	11:40:44	436994	5.0.10.0	5_exp_noRW	94	Rpleas_acq	CS_A	ZHHZ	DXXD	YFFY	LWWL	CPPC	JQQJ	vertrauen	träumen	gütig	sonnig	genießen	küssen	versagen	töten	gierig	sterben	gemein	krank	53pct	acq_USunple_CSunple2_noRW	acq23456_noRW	3	61	0	0	300	300	586	46	0	1	1	blank2r.bmp	0	1	+	0	1	blank2r.bmp	252	1	LWWL	306	1	sterben	559	0	0	0	0	0	0	0	0	0	0	0	0	0	0	0	0	0	0	0	0	0	0	0	0	0	0	0	0	0	0	0	0	0	0	0	0	0	0	0
081219	11:33:26	11:40:46	438700	5.0.10.0	5_exp_noRW	94	Rpleas_acq	CS_A	ZHHZ	DXXD	YFFY	LWWL	CPPC	JQQJ	vertrauen	träumen	gütig	sonnig	genießen	küssen	versagen	töten	gierig	sterben	gemein	krank	53pct	acq_USpleas_CSpleas1_noRW	acq23456_noRW	3	62	0	0	300	300	542	50	0	1	1	blank2r.bmp	0	1	+	0	1	blank2r.bmp	252	1	ZHHZ	306	1	vertrauen	559	0	0	0	0	0	0	0	0	0	0	0	0	0	0	0	0	0	0	0	0	0	0	0	0	0	0	0	0	0	0	0	0	0	0	0	0	0	0	0
081219	11:33:26	11:40:47	440459	5.0.10.0	5_exp_noRW	94	Rpleas_acq	CS_A	ZHHZ	DXXD	YFFY	LWWL	CPPC	JQQJ	vertrauen	träumen	gütig	sonnig	genießen	küssen	versagen	töten	gierig	sterben	gemein	krank	53pct	acq_USpleas_CSunple1_noRW	acq23456_noRW	3	63	0	0	300	300	579	50	0	1	1	blank2r.bmp	0	1	+	0	1	blank2r.bmp	252	1	YFFY	306	3	gütig	559	0	0	0	0	0	0	0	0	0	0	0	0	0	0	0	0	0	0	0	0	0	0	0	0	0	0	0	0	0	0	0	0	0	0	0	0	0	0	0
081219	11:33:26	11:40:49	442218	5.0.10.0	5_exp_noRW	94	Rpleas_acq	CS_A	ZHHZ	DXXD	YFFY	LWWL	CPPC	JQQJ	vertrauen	träumen	gütig	sonnig	genießen	küssen	versagen	töten	gierig	sterben	gemein	krank	47pct	acq_USunple_CSunple1_noRW	acq23456_noRW	3	64	0	0	300	300	575	46	0	1	1	blank2r.bmp	0	1	+	0	1	blank2r.bmp	252	1	YFFY	306	1	versagen	559	0	0	0	0	0	0	0	0	0	0	0	0	0	0	0	0	0	0	0	0	0	0	0	0	0	0	0	0	0	0	0	0	0	0	0	0	0	0	0
081219	11:33:26	11:40:51	443937	5.0.10.0	5_exp_noRW	94	Rpleas_acq	CS_A	ZHHZ	DXXD	YFFY	LWWL	CPPC	JQQJ	vertrauen	träumen	gütig	sonnig	genießen	küssen	versagen	töten	gierig	sterben	gemein	krank	53pct	acq_USpleas_CSpleas2_noRW	acq23456_noRW	3	65	0	0	300	300	546	50	0	1	1	blank2r.bmp	0	1	+	0	1	blank2r.bmp	252	1	DXXD	306	2	genießen	559	0	0	0	0	0	0	0	0	0	0	0	0	0	0	0	0	0	0	0	0	0	0	0	0	0	0	0	0	0	0	0	0	0	0	0	0	0	0	0
081219	11:33:26	11:40:53	445643	5.0.10.0	5_exp_noRW	94	Rpleas_acq	CS_A	ZHHZ	DXXD	YFFY	LWWL	CPPC	JQQJ	vertrauen	träumen	gütig	sonnig	genießen	küssen	versagen	töten	gierig	sterben	gemein	krank	53pct	acq_USpleas_CSpleas2_noRW	acq23456_noRW	3	66	0	0	300	300	533	50	0	1	1	blank2r.bmp	0	1	+	0	1	blank2r.bmp	252	1	DXXD	306	3	küssen	559	0	0	0	0	0	0	0	0	0	0	0	0	0	0	0	0	0	0	0	0	0	0	0	0	0	0	0	0	0	0	0	0	0	0	0	0	0	0	0
081219	11:33:26	11:40:54	447389	5.0.10.0	5_exp_noRW	94	Rpleas_acq	CS_A	ZHHZ	DXXD	YFFY	LWWL	CPPC	JQQJ	vertrauen	träumen	gütig	sonnig	genießen	küssen	versagen	töten	gierig	sterben	gemein	krank	53pct	acq_USunple_CSunple1_noRW	acq23456_noRW	3	67	0	0	300	300	570	46	0	1	1	blank2r.bmp	0	1	+	0	1	blank2r.bmp	252	1	YFFY	306	3	gierig	559	0	0	0	0	0	0	0	0	0	0	0	0	0	0	0	0	0	0	0	0	0	0	0	0	0	0	0	0	0	0	0	0	0	0	0	0	0	0	0
081219	11:33:26	11:40:56	449255	5.0.10.0	5_exp_noRW	94	Rpleas_acq	CS_A	ZHHZ	DXXD	YFFY	LWWL	CPPC	JQQJ	vertrauen	träumen	gütig	sonnig	genießen	küssen	versagen	töten	gierig	sterben	gemein	krank	53pct	acq_USunple_CSpleas2_noRW	acq23456_noRW	3	68	0	0	300	300	686	46	0	1	1	blank2r.bmp	0	1	+	0	1	blank2r.bmp	252	1	DXXD	306	3	krank	559	0	0	0	0	0	0	0	0	0	0	0	0	0	0	0	0	0	0	0	0	0	0	0	0	0	0	0	0	0	0	0	0	0	0	0	0	0	0	0
081219	11:33:26	11:40:58	451001	5.0.10.0	5_exp_noRW	94	Rpleas_acq	CS_A	ZHHZ	DXXD	YFFY	LWWL	CPPC	JQQJ	vertrauen	träumen	gütig	sonnig	genießen	küssen	versagen	töten	gierig	sterben	gemein	krank	47pct	acq_USunple_CSunple2_noRW	acq23456_noRW	3	69	0	0	300	300	560	46	0	1	1	blank2r.bmp	0	1	+	0	1	blank2r.bmp	252	1	LWWL	306	2	gemein	559	0	0	0	0	0	0	0	0	0	0	0	0	0	0	0	0	0	0	0	0	0	0	0	0	0	0	0	0	0	0	0	0	0	0	0	0	0	0	0
081219	11:33:26	11:41:00	452694	5.0.10.0	5_exp_noRW	94	Rpleas_acq	CS_A	ZHHZ	DXXD	YFFY	LWWL	CPPC	JQQJ	vertrauen	träumen	gütig	sonnig	genießen	küssen	versagen	töten	gierig	sterben	gemein	krank	53pct	acq_USpleas_CSunple2_noRW	acq23456_noRW	3	70	0	0	300	300	530	50	0	1	1	blank2r.bmp	0	1	+	0	1	blank2r.bmp	252	1	LWWL	306	1	sonnig	559	0	0	0	0	0	0	0	0	0	0	0	0	0	0	0	0	0	0	0	0	0	0	0	0	0	0	0	0	0	0	0	0	0	0	0	0	0	0	0
081219	11:33:26	11:41:01	454400	5.0.10.0	5_exp_noRW	94	Rpleas_acq	CS_A	ZHHZ	DXXD	YFFY	LWWL	CPPC	JQQJ	vertrauen	träumen	gütig	sonnig	genießen	küssen	versagen	töten	gierig	sterben	gemein	krank	53pct	acq_USpleas_CSpleas1_noRW	acq23456_noRW	3	71	0	0	300	300	529	50	0	1	1	blank2r.bmp	0	1	+	0	1	blank2r.bmp	252	1	ZHHZ	306	1	vertrauen	559	0	0	0	0	0	0	0	0	0	0	0	0	0	0	0	0	0	0	0	0	0	0	0	0	0	0	0	0	0	0	0	0	0	0	0	0	0	0	0
081219	11:33:26	11:41:03	456026	5.0.10.0	5_exp_noRW	94	Rpleas_acq	CS_A	ZHHZ	DXXD	YFFY	LWWL	CPPC	JQQJ	vertrauen	träumen	gütig	sonnig	genießen	küssen	versagen	töten	gierig	sterben	gemein	krank	53pct	acq_USpleas_CSpleas2_noRW	acq23456_noRW	3	72	0	0	300	300	446	50	0	1	1	blank2r.bmp	0	1	+	0	1	blank2r.bmp	252	1	DXXD	306	2	genießen	559	0	0	0	0	0	0	0	0	0	0	0	0	0	0	0	0	0	0	0	0	0	0	0	0	0	0	0	0	0	0	0	0	0	0	0	0	0	0	0
081219	11:33:26	11:41:05	457692	5.0.10.0	5_exp_noRW	94	Rpleas_acq	CS_A	ZHHZ	DXXD	YFFY	LWWL	CPPC	JQQJ	vertrauen	träumen	gütig	sonnig	genießen	küssen	versagen	töten	gierig	sterben	gemein	krank	53pct	acq_USunple_CSpleas1_noRW	acq23456_noRW	3	73	0	0	300	300	480	46	0	1	1	blank2r.bmp	0	1	+	0	1	blank2r.bmp	252	1	ZHHZ	306	2	töten	559	0	0	0	0	0	0	0	0	0	0	0	0	0	0	0	0	0	0	0	0	0	0	0	0	0	0	0	0	0	0	0	0	0	0	0	0	0	0	0
081219	11:33:26	11:41:07	459984	5.0.10.0	5_exp_noRW	94	Rpleas_acq	CS_A	ZHHZ	DXXD	YFFY	LWWL	CPPC	JQQJ	vertrauen	träumen	gütig	sonnig	genießen	küssen	versagen	töten	gierig	sterben	gemein	krank	53pct	acq_USpleas_CSpleas1_noRW	acq23456_noRW	3	74	0	0	300	300	1124	50	0	1	1	blank2r.bmp	0	1	+	0	1	blank2r.bmp	252	1	ZHHZ	306	2	träumen	559	0	0	0	0	0	0	0	0	0	0	0	0	0	0	0	0	0	0	0	0	0	0	0	0	0	0	0	0	0	0	0	0	0	0	0	0	0	0	0
081219	11:33:26	11:41:09	461704	5.0.10.0	5_exp_noRW	94	Rpleas_acq	CS_A	ZHHZ	DXXD	YFFY	LWWL	CPPC	JQQJ	vertrauen	träumen	gütig	sonnig	genießen	küssen	versagen	töten	gierig	sterben	gemein	krank	53pct	acq_USpleas_CSpleas2_noRW	acq23456_noRW	3	75	0	0	300	300	548	50	0	1	1	blank2r.bmp	0	1	+	0	1	blank2r.bmp	252	1	DXXD	306	1	sonnig	559	0	0	0	0	0	0	0	0	0	0	0	0	0	0	0	0	0	0	0	0	0	0	0	0	0	0	0	0	0	0	0	0	0	0	0	0	0	0	0
081219	11:33:26	11:41:10	463356	5.0.10.0	5_exp_noRW	94	Rpleas_acq	CS_A	ZHHZ	DXXD	YFFY	LWWL	CPPC	JQQJ	vertrauen	träumen	gütig	sonnig	genießen	küssen	versagen	töten	gierig	sterben	gemein	krank	53pct	acq_USunple_CSunple2_noRW	acq23456_noRW	3	76	0	0	300	300	491	46	0	1	1	blank2r.bmp	0	1	+	0	1	blank2r.bmp	252	1	LWWL	306	3	krank	559	0	0	0	0	0	0	0	0	0	0	0	0	0	0	0	0	0	0	0	0	0	0	0	0	0	0	0	0	0	0	0	0	0	0	0	0	0	0	0
081219	11:33:26	11:41:12	465129	5.0.10.0	5_exp_noRW	94	Rpleas_acq	CS_A	ZHHZ	DXXD	YFFY	LWWL	CPPC	JQQJ	vertrauen	träumen	gütig	sonnig	genießen	küssen	versagen	töten	gierig	sterben	gemein	krank	47pct	acq_USunple_CSunple1_noRW	acq23456_noRW	3	77	0	0	300	300	586	46	0	1	1	blank2r.bmp	0	1	+	0	1	blank2r.bmp	252	1	YFFY	306	2	töten	559	0	0	0	0	0	0	0	0	0	0	0	0	0	0	0	0	0	0	0	0	0	0	0	0	0	0	0	0	0	0	0	0	0	0	0	0	0	0	0
081219	11:33:26	11:41:14	466941	5.0.10.0	5_exp_noRW	94	Rpleas_acq	CS_A	ZHHZ	DXXD	YFFY	LWWL	CPPC	JQQJ	vertrauen	träumen	gütig	sonnig	genießen	küssen	versagen	töten	gierig	sterben	gemein	krank	53pct	acq_USpleas_CSpleas1_noRW	acq23456_noRW	3	78	0	0	300	300	637	50	0	1	1	blank2r.bmp	0	1	+	0	1	blank2r.bmp	252	1	ZHHZ	306	3	gütig	559	0	0	0	0	0	0	0	0	0	0	0	0	0	0	0	0	0	0	0	0	0	0	0	0	0	0	0	0	0	0	0	0	0	0	0	0	0	0	0
081219	11:33:26	11:41:16	468741	5.0.10.0	5_exp_noRW	94	Rpleas_acq	CS_A	ZHHZ	DXXD	YFFY	LWWL	CPPC	JQQJ	vertrauen	träumen	gütig	sonnig	genießen	küssen	versagen	töten	gierig	sterben	gemein	krank	53pct	acq_USunple_CSunple1_noRW	acq23456_noRW	3	79	0	0	300	300	616	46	0	1	1	blank2r.bmp	0	1	+	0	1	blank2r.bmp	252	1	YFFY	306	1	versagen	559	0	0	0	0	0	0	0	0	0	0	0	0	0	0	0	0	0	0	0	0	0	0	0	0	0	0	0	0	0	0	0	0	0	0	0	0	0	0	0
081219	11:33:26	11:41:17	470407	5.0.10.0	5_exp_noRW	94	Rpleas_acq	CS_A	ZHHZ	DXXD	YFFY	LWWL	CPPC	JQQJ	vertrauen	träumen	gütig	sonnig	genießen	küssen	versagen	töten	gierig	sterben	gemein	krank	47pct	acq_USunple_CSunple2_noRW	acq23456_noRW	3	80	0	0	300	300	494	46	0	1	1	blank2r.bmp	0	1	+	0	1	blank2r.bmp	252	1	LWWL	306	1	sterben	559	0	0	0	0	0	0	0	0	0	0	0	0	0	0	0	0	0	0	0	0	0	0	0	0	0	0	0	0	0	0	0	0	0	0	0	0	0	0	0
081219	11:33:26	11:41:25	478217	5.0.10.0	5_exp_noRW	94	Rpleas_acq	CS_A	ZHHZ	DXXD	YFFY	LWWL	CPPC	JQQJ	vertrauen	träumen	gütig	sonnig	genießen	küssen	versagen	töten	gierig	sterben	gemein	krank	53pct	acq_USunple_CSpleas2_noRW	acq23456_noRW	4	1	0	0	300	300	512	46	0	1	1	blank2r.bmp	0	1	+	0	1	blank2r.bmp	252	1	DXXD	306	1	sterben	559	0	0	0	0	0	0	0	0	0	0	0	0	0	0	0	0	0	0	0	0	0	0	0	0	0	0	0	0	0	0	0	0	0	0	0	0	0	0	0
