date	time	script.currenttime	script.elapsedtime	build	script.currentexpt	subject	expressions.LRpleas_acq	expressions.conditionCS_A	expressions.CSpleas_1	expressions.CSpleas_2	expressions.CSunple_1	expressions.CSunple_2	expressions.distractor_1	expressions.distractor_2	expressions.US_pleas1	expressions.US_pleas2	expressions.US_pleas3	expressions.US_pleas4	expressions.US_pleas5	expressions.US_pleas6	expressions.US_unple1	expressions.US_unple2	expressions.US_unple3	expressions.US_unple4	expressions.US_unple5	expressions.US_unple6	counter.positions_noRW	trialcode	blockcode	blocknum	trialnum	windowcenter	inwindow	pretrialpause	posttrialpause	latency	response	expressions.correctedscore	correct	stimulusnumber1	stimulusitem1	stimulusonset1	stimulusnumber2	stimulusitem2	stimulusonset2	stimulusnumber3	stimulusitem3	stimulusonset3	stimulusnumber4	stimulusitem4	stimulusonset4	stimulusnumber5	stimulusitem5	stimulusonset5	stimulusnumber6	stimulusitem6	stimulusonset6	stimulusnumber7	stimulusitem7	stimulusonset7	stimulusnumber8	stimulusitem8	stimulusonset8	stimulusnumber9	stimulusitem9	stimulusonset9	stimulusnumber10	stimulusitem10	stimulusonset10	stimulusnumber11	stimulusitem11	stimulusonset11	stimulusnumber12	stimulusitem12	stimulusonset12	stimulusnumber13	stimulusitem13	stimulusonset13	stimulusnumber14	stimulusitem14	stimulusonset14	stimulusnumber15	stimulusitem15	stimulusonset15	stimulusnumber16	stimulusitem16	stimulusonset16	stimulusnumber17	stimulusitem17	stimulusonset17	stimulusnumber18	stimulusitem18	stimulusonset18
070319	13:33:00	13:34:06	65186	5.0.10.0	5_exp_noRW	12	Rpleas_acq	CS_A	CPPC	LWWL	JQQJ	YFFY	DXXD	ZHHZ	genießen	träumen	sonnig	küssen	vertrauen	gütig	gemein	töten	sterben	krank	versagen	gierig	53pct	acq_USunple_CSpleas2_noRW	acq1_noRW	1	1	0	0	300	300	2000	0	0	0	1	blank2r.bmp	0	1	+	0	1	blank2r.bmp	252	1	LWWL	306	3	gierig	559	1	FEHLER	2598	1	Schneller!	2598	0	0	0	0	0	0	0	0	0	0	0	0	0	0	0	0	0	0	0	0	0	0	0	0	0	0	0	0	0	0	0	0	0
070319	13:33:00	13:34:08	66639	5.0.10.0	5_exp_noRW	12	Rpleas_acq	CS_A	CPPC	LWWL	JQQJ	YFFY	DXXD	ZHHZ	genießen	träumen	sonnig	küssen	vertrauen	gütig	gemein	töten	sterben	krank	versagen	gierig	47pct	acq_USpleas_CSunple2_noRW	acq1_noRW	1	2	0	0	300	300	564	50	0	1	1	blank2r.bmp	0	1	+	0	1	blank2r.bmp	252	1	YFFY	306	3	gütig	559	0	0	0	0	0	0	0	0	0	0	0	0	0	0	0	0	0	0	0	0	0	0	0	0	0	0	0	0	0	0	0	0	0	0	0	0	0	0	0
070319	13:33:00	13:34:10	68705	5.0.10.0	5_exp_noRW	12	Rpleas_acq	CS_A	CPPC	LWWL	JQQJ	YFFY	DXXD	ZHHZ	genießen	träumen	sonnig	küssen	vertrauen	gütig	gemein	töten	sterben	krank	versagen	gierig	53pct	acq_USpleas_CSpleas1_noRW	acq1_noRW	1	3	0	0	300	300	892	50	0	1	1	blank2r.bmp	0	1	+	0	1	blank2r.bmp	252	1	CPPC	306	2	träumen	559	0	0	0	0	0	0	0	0	0	0	0	0	0	0	0	0	0	0	0	0	0	0	0	0	0	0	0	0	0	0	0	0	0	0	0	0	0	0	0
070319	13:33:00	13:34:11	70504	5.0.10.0	5_exp_noRW	12	Rpleas_acq	CS_A	CPPC	LWWL	JQQJ	YFFY	DXXD	ZHHZ	genießen	träumen	sonnig	küssen	vertrauen	gütig	gemein	töten	sterben	krank	versagen	gierig	53pct	acq_USpleas_CSpleas2_noRW	acq1_noRW	1	4	0	0	300	300	634	50	0	1	1	blank2r.bmp	0	1	+	0	1	blank2r.bmp	252	1	LWWL	306	3	gütig	559	0	0	0	0	0	0	0	0	0	0	0	0	0	0	0	0	0	0	0	0	0	0	0	0	0	0	0	0	0	0	0	0	0	0	0	0	0	0	0
070319	13:33:00	13:34:13	72383	5.0.10.0	5_exp_noRW	12	Rpleas_acq	CS_A	CPPC	LWWL	JQQJ	YFFY	DXXD	ZHHZ	genießen	träumen	sonnig	küssen	vertrauen	gütig	gemein	töten	sterben	krank	versagen	gierig	53pct	acq_USpleas_CSpleas2_noRW	acq1_noRW	1	5	0	0	300	300	691	50	0	1	1	blank2r.bmp	0	1	+	0	1	blank2r.bmp	252	1	LWWL	306	2	vertrauen	559	0	0	0	0	0	0	0	0	0	0	0	0	0	0	0	0	0	0	0	0	0	0	0	0	0	0	0	0	0	0	0	0	0	0	0	0	0	0	0
070319	13:33:00	13:34:15	74102	5.0.10.0	5_exp_noRW	12	Rpleas_acq	CS_A	CPPC	LWWL	JQQJ	YFFY	DXXD	ZHHZ	genießen	träumen	sonnig	küssen	vertrauen	gütig	gemein	töten	sterben	krank	versagen	gierig	53pct	acq_USunple_CSunple2_noRW	acq1_noRW	1	6	0	0	300	300	556	46	0	1	1	blank2r.bmp	0	1	+	0	1	blank2r.bmp	252	1	YFFY	306	1	krank	559	0	0	0	0	0	0	0	0	0	0	0	0	0	0	0	0	0	0	0	0	0	0	0	0	0	0	0	0	0	0	0	0	0	0	0	0	0	0	0
070319	13:33:00	13:34:17	76022	5.0.10.0	5_exp_noRW	12	Rpleas_acq	CS_A	CPPC	LWWL	JQQJ	YFFY	DXXD	ZHHZ	genießen	träumen	sonnig	küssen	vertrauen	gütig	gemein	töten	sterben	krank	versagen	gierig	47pct	acq_USunple_CSunple2_noRW	acq1_noRW	1	7	0	0	300	300	526	50	0	0	1	blank2r.bmp	0	1	+	0	1	blank2r.bmp	252	1	YFFY	306	3	gierig	559	1	FEHLER	1119	0	0	0	0	0	0	0	0	0	0	0	0	0	0	0	0	0	0	0	0	0	0	0	0	0	0	0	0	0	0	0	0	0	0	0	0
070319	13:33:00	13:34:19	77714	5.0.10.0	5_exp_noRW	12	Rpleas_acq	CS_A	CPPC	LWWL	JQQJ	YFFY	DXXD	ZHHZ	genießen	träumen	sonnig	küssen	vertrauen	gütig	gemein	töten	sterben	krank	versagen	gierig	53pct	acq_USunple_CSunple2_noRW	acq1_noRW	1	8	0	0	300	300	729	46	0	1	1	blank2r.bmp	0	1	+	0	1	blank2r.bmp	252	1	YFFY	306	2	versagen	559	0	0	0	0	0	0	0	0	0	0	0	0	0	0	0	0	0	0	0	0	0	0	0	0	0	0	0	0	0	0	0	0	0	0	0	0	0	0	0
070319	13:33:00	13:34:20	79420	5.0.10.0	5_exp_noRW	12	Rpleas_acq	CS_A	CPPC	LWWL	JQQJ	YFFY	DXXD	ZHHZ	genießen	träumen	sonnig	küssen	vertrauen	gütig	gemein	töten	sterben	krank	versagen	gierig	47pct	acq_USpleas_CSpleas1_noRW	acq1_noRW	1	9	0	0	300	300	539	50	0	1	1	blank2r.bmp	0	1	+	0	1	blank2r.bmp	252	1	CPPC	306	1	genießen	559	0	0	0	0	0	0	0	0	0	0	0	0	0	0	0	0	0	0	0	0	0	0	0	0	0	0	0	0	0	0	0	0	0	0	0	0	0	0	0
070319	13:33:00	13:34:22	81286	5.0.10.0	5_exp_noRW	12	Rpleas_acq	CS_A	CPPC	LWWL	JQQJ	YFFY	DXXD	ZHHZ	genießen	träumen	sonnig	küssen	vertrauen	gütig	gemein	töten	sterben	krank	versagen	gierig	53pct	acq_USpleas_CSpleas2_noRW	acq1_noRW	1	10	0	0	300	300	466	46	0	0	1	blank2r.bmp	0	1	+	0	1	blank2r.bmp	252	1	LWWL	306	1	küssen	559	1	FEHLER	1066	0	0	0	0	0	0	0	0	0	0	0	0	0	0	0	0	0	0	0	0	0	0	0	0	0	0	0	0	0	0	0	0	0	0	0	0
070319	13:33:00	13:34:24	82779	5.0.10.0	5_exp_noRW	12	Rpleas_acq	CS_A	CPPC	LWWL	JQQJ	YFFY	DXXD	ZHHZ	genießen	träumen	sonnig	küssen	vertrauen	gütig	gemein	töten	sterben	krank	versagen	gierig	53pct	acq_USunple_CSunple1_noRW	acq1_noRW	1	11	0	0	300	300	537	46	0	1	1	blank2r.bmp	0	1	+	0	1	blank2r.bmp	252	1	JQQJ	306	3	sterben	559	0	0	0	0	0	0	0	0	0	0	0	0	0	0	0	0	0	0	0	0	0	0	0	0	0	0	0	0	0	0	0	0	0	0	0	0	0	0	0
070319	13:33:00	13:34:25	84525	5.0.10.0	5_exp_noRW	12	Rpleas_acq	CS_A	CPPC	LWWL	JQQJ	YFFY	DXXD	ZHHZ	genießen	träumen	sonnig	küssen	vertrauen	gütig	gemein	töten	sterben	krank	versagen	gierig	47pct	acq_USunple_CSunple2_noRW	acq1_noRW	1	12	0	0	300	300	565	46	0	1	1	blank2r.bmp	0	1	+	0	1	blank2r.bmp	252	1	YFFY	306	2	versagen	559	0	0	0	0	0	0	0	0	0	0	0	0	0	0	0	0	0	0	0	0	0	0	0	0	0	0	0	0	0	0	0	0	0	0	0	0	0	0	0
070319	13:33:00	13:34:27	86137	5.0.10.0	5_exp_noRW	12	Rpleas_acq	CS_A	CPPC	LWWL	JQQJ	YFFY	DXXD	ZHHZ	genießen	träumen	sonnig	küssen	vertrauen	gütig	gemein	töten	sterben	krank	versagen	gierig	47pct	acq_USpleas_CSunple1_noRW	acq1_noRW	1	13	0	0	300	300	432	50	0	1	1	blank2r.bmp	0	1	+	0	1	blank2r.bmp	252	1	JQQJ	306	2	träumen	559	0	0	0	0	0	0	0	0	0	0	0	0	0	0	0	0	0	0	0	0	0	0	0	0	0	0	0	0	0	0	0	0	0	0	0	0	0	0	0
070319	13:33:00	13:34:29	87843	5.0.10.0	5_exp_noRW	12	Rpleas_acq	CS_A	CPPC	LWWL	JQQJ	YFFY	DXXD	ZHHZ	genießen	träumen	sonnig	küssen	vertrauen	gütig	gemein	töten	sterben	krank	versagen	gierig	53pct	acq_USunple_CSpleas1_noRW	acq1_noRW	1	14	0	0	300	300	535	46	0	1	1	blank2r.bmp	0	1	+	0	1	blank2r.bmp	252	1	CPPC	306	2	töten	559	0	0	0	0	0	0	0	0	0	0	0	0	0	0	0	0	0	0	0	0	0	0	0	0	0	0	0	0	0	0	0	0	0	0	0	0	0	0	0
070319	13:33:00	13:34:30	89536	5.0.10.0	5_exp_noRW	12	Rpleas_acq	CS_A	CPPC	LWWL	JQQJ	YFFY	DXXD	ZHHZ	genießen	träumen	sonnig	küssen	vertrauen	gütig	gemein	töten	sterben	krank	versagen	gierig	53pct	acq_USpleas_CSpleas1_noRW	acq1_noRW	1	15	0	0	300	300	529	50	0	1	1	blank2r.bmp	0	1	+	0	1	blank2r.bmp	252	1	CPPC	306	3	sonnig	559	0	0	0	0	0	0	0	0	0	0	0	0	0	0	0	0	0	0	0	0	0	0	0	0	0	0	0	0	0	0	0	0	0	0	0	0	0	0	0
070319	13:33:00	13:34:32	91282	5.0.10.0	5_exp_noRW	12	Rpleas_acq	CS_A	CPPC	LWWL	JQQJ	YFFY	DXXD	ZHHZ	genießen	träumen	sonnig	küssen	vertrauen	gütig	gemein	töten	sterben	krank	versagen	gierig	53pct	acq_USunple_CSunple1_noRW	acq1_noRW	1	16	0	0	300	300	569	46	0	1	1	blank2r.bmp	0	1	+	0	1	blank2r.bmp	252	1	JQQJ	306	1	gemein	559	0	0	0	0	0	0	0	0	0	0	0	0	0	0	0	0	0	0	0	0	0	0	0	0	0	0	0	0	0	0	0	0	0	0	0	0	0	0	0
070319	13:33:00	13:34:34	93028	5.0.10.0	5_exp_noRW	12	Rpleas_acq	CS_A	CPPC	LWWL	JQQJ	YFFY	DXXD	ZHHZ	genießen	träumen	sonnig	küssen	vertrauen	gütig	gemein	töten	sterben	krank	versagen	gierig	47pct	acq_USunple_CSunple1_noRW	acq1_noRW	1	17	0	0	300	300	569	46	0	1	1	blank2r.bmp	0	1	+	0	1	blank2r.bmp	252	1	JQQJ	306	2	töten	559	0	0	0	0	0	0	0	0	0	0	0	0	0	0	0	0	0	0	0	0	0	0	0	0	0	0	0	0	0	0	0	0	0	0	0	0	0	0	0
070319	13:33:00	13:34:36	94774	5.0.10.0	5_exp_noRW	12	Rpleas_acq	CS_A	CPPC	LWWL	JQQJ	YFFY	DXXD	ZHHZ	genießen	träumen	sonnig	küssen	vertrauen	gütig	gemein	töten	sterben	krank	versagen	gierig	47pct	acq_USpleas_CSpleas2_noRW	acq1_noRW	1	18	0	0	300	300	559	50	0	1	1	blank2r.bmp	0	1	+	0	1	blank2r.bmp	252	1	LWWL	306	2	vertrauen	559	0	0	0	0	0	0	0	0	0	0	0	0	0	0	0	0	0	0	0	0	0	0	0	0	0	0	0	0	0	0	0	0	0	0	0	0	0	0	0
070319	13:33:00	13:34:37	96480	5.0.10.0	5_exp_noRW	12	Rpleas_acq	CS_A	CPPC	LWWL	JQQJ	YFFY	DXXD	ZHHZ	genießen	träumen	sonnig	küssen	vertrauen	gütig	gemein	töten	sterben	krank	versagen	gierig	53pct	acq_USpleas_CSpleas1_noRW	acq1_noRW	1	19	0	0	300	300	541	50	0	1	1	blank2r.bmp	0	1	+	0	1	blank2r.bmp	252	1	CPPC	306	2	träumen	559	0	0	0	0	0	0	0	0	0	0	0	0	0	0	0	0	0	0	0	0	0	0	0	0	0	0	0	0	0	0	0	0	0	0	0	0	0	0	0
070319	13:33:00	13:34:39	98173	5.0.10.0	5_exp_noRW	12	Rpleas_acq	CS_A	CPPC	LWWL	JQQJ	YFFY	DXXD	ZHHZ	genießen	träumen	sonnig	küssen	vertrauen	gütig	gemein	töten	sterben	krank	versagen	gierig	53pct	acq_USunple_CSunple1_noRW	acq1_noRW	1	20	0	0	300	300	521	46	0	1	1	blank2r.bmp	0	1	+	0	1	blank2r.bmp	252	1	JQQJ	306	3	sterben	559	0	0	0	0	0	0	0	0	0	0	0	0	0	0	0	0	0	0	0	0	0	0	0	0	0	0	0	0	0	0	0	0	0	0	0	0	0	0	0
070319	13:33:00	13:34:41	99839	5.0.10.0	5_exp_noRW	12	Rpleas_acq	CS_A	CPPC	LWWL	JQQJ	YFFY	DXXD	ZHHZ	genießen	träumen	sonnig	küssen	vertrauen	gütig	gemein	töten	sterben	krank	versagen	gierig	47pct	acq_USunple_CSunple1_noRW	acq1_noRW	1	21	0	0	300	300	491	46	0	1	1	blank2r.bmp	0	1	+	0	1	blank2r.bmp	252	1	JQQJ	306	1	gemein	559	0	0	0	0	0	0	0	0	0	0	0	0	0	0	0	0	0	0	0	0	0	0	0	0	0	0	0	0	0	0	0	0	0	0	0	0	0	0	0
070319	13:33:00	13:34:42	101491	5.0.10.0	5_exp_noRW	12	Rpleas_acq	CS_A	CPPC	LWWL	JQQJ	YFFY	DXXD	ZHHZ	genießen	träumen	sonnig	küssen	vertrauen	gütig	gemein	töten	sterben	krank	versagen	gierig	47pct	acq_USpleas_CSpleas2_noRW	acq1_noRW	1	22	0	0	300	300	486	50	0	1	1	blank2r.bmp	0	1	+	0	1	blank2r.bmp	252	1	LWWL	306	3	gütig	559	0	0	0	0	0	0	0	0	0	0	0	0	0	0	0	0	0	0	0	0	0	0	0	0	0	0	0	0	0	0	0	0	0	0	0	0	0	0	0
070319	13:33:00	13:34:44	103077	5.0.10.0	5_exp_noRW	12	Rpleas_acq	CS_A	CPPC	LWWL	JQQJ	YFFY	DXXD	ZHHZ	genießen	träumen	sonnig	küssen	vertrauen	gütig	gemein	töten	sterben	krank	versagen	gierig	53pct	acq_USunple_CSunple2_noRW	acq1_noRW	1	23	0	0	300	300	423	46	0	1	1	blank2r.bmp	0	1	+	0	1	blank2r.bmp	252	1	YFFY	306	3	gierig	559	0	0	0	0	0	0	0	0	0	0	0	0	0	0	0	0	0	0	0	0	0	0	0	0	0	0	0	0	0	0	0	0	0	0	0	0	0	0	0
070319	13:33:00	13:34:46	104890	5.0.10.0	5_exp_noRW	12	Rpleas_acq	CS_A	CPPC	LWWL	JQQJ	YFFY	DXXD	ZHHZ	genießen	träumen	sonnig	küssen	vertrauen	gütig	gemein	töten	sterben	krank	versagen	gierig	47pct	acq_USpleas_CSpleas2_noRW	acq1_noRW	1	24	0	0	300	300	422	46	0	0	1	blank2r.bmp	0	1	+	0	1	blank2r.bmp	252	1	LWWL	306	1	küssen	559	1	FEHLER	1012	0	0	0	0	0	0	0	0	0	0	0	0	0	0	0	0	0	0	0	0	0	0	0	0	0	0	0	0	0	0	0	0	0	0	0	0
070319	13:33:00	13:34:47	106436	5.0.10.0	5_exp_noRW	12	Rpleas_acq	CS_A	CPPC	LWWL	JQQJ	YFFY	DXXD	ZHHZ	genießen	träumen	sonnig	küssen	vertrauen	gütig	gemein	töten	sterben	krank	versagen	gierig	53pct	acq_USpleas_CSpleas1_noRW	acq1_noRW	1	25	0	0	300	300	578	50	0	1	1	blank2r.bmp	0	1	+	0	1	blank2r.bmp	252	1	CPPC	306	1	genießen	559	0	0	0	0	0	0	0	0	0	0	0	0	0	0	0	0	0	0	0	0	0	0	0	0	0	0	0	0	0	0	0	0	0	0	0	0	0	0	0
070319	13:33:00	13:34:49	108075	5.0.10.0	5_exp_noRW	12	Rpleas_acq	CS_A	CPPC	LWWL	JQQJ	YFFY	DXXD	ZHHZ	genießen	träumen	sonnig	küssen	vertrauen	gütig	gemein	töten	sterben	krank	versagen	gierig	53pct	acq_USpleas_CSpleas1_noRW	acq1_noRW	1	26	0	0	300	300	474	50	0	1	1	blank2r.bmp	0	1	+	0	1	blank2r.bmp	252	1	CPPC	306	3	sonnig	559	0	0	0	0	0	0	0	0	0	0	0	0	0	0	0	0	0	0	0	0	0	0	0	0	0	0	0	0	0	0	0	0	0	0	0	0	0	0	0
070319	13:33:00	13:34:51	109715	5.0.10.0	5_exp_noRW	12	Rpleas_acq	CS_A	CPPC	LWWL	JQQJ	YFFY	DXXD	ZHHZ	genießen	träumen	sonnig	küssen	vertrauen	gütig	gemein	töten	sterben	krank	versagen	gierig	47pct	acq_USunple_CSunple2_noRW	acq1_noRW	1	27	0	0	300	300	462	46	0	1	1	blank2r.bmp	0	1	+	0	1	blank2r.bmp	252	1	YFFY	306	1	krank	559	0	0	0	0	0	0	0	0	0	0	0	0	0	0	0	0	0	0	0	0	0	0	0	0	0	0	0	0	0	0	0	0	0	0	0	0	0	0	0
070319	13:33:00	13:34:52	111354	5.0.10.0	5_exp_noRW	12	Rpleas_acq	CS_A	CPPC	LWWL	JQQJ	YFFY	DXXD	ZHHZ	genießen	träumen	sonnig	küssen	vertrauen	gütig	gemein	töten	sterben	krank	versagen	gierig	47pct	acq_USpleas_CSunple2_noRW	acq1_noRW	1	28	0	0	300	300	454	50	0	1	1	blank2r.bmp	0	1	+	0	1	blank2r.bmp	252	1	YFFY	306	2	vertrauen	559	0	0	0	0	0	0	0	0	0	0	0	0	0	0	0	0	0	0	0	0	0	0	0	0	0	0	0	0	0	0	0	0	0	0	0	0	0	0	0
070319	13:33:00	13:34:54	113113	5.0.10.0	5_exp_noRW	12	Rpleas_acq	CS_A	CPPC	LWWL	JQQJ	YFFY	DXXD	ZHHZ	genießen	träumen	sonnig	küssen	vertrauen	gütig	gemein	töten	sterben	krank	versagen	gierig	47pct	acq_USpleas_CSpleas1_noRW	acq1_noRW	1	29	0	0	300	300	590	50	0	1	1	blank2r.bmp	0	1	+	0	1	blank2r.bmp	252	1	CPPC	306	1	genießen	559	0	0	0	0	0	0	0	0	0	0	0	0	0	0	0	0	0	0	0	0	0	0	0	0	0	0	0	0	0	0	0	0	0	0	0	0	0	0	0
070319	13:33:00	13:34:56	114792	5.0.10.0	5_exp_noRW	12	Rpleas_acq	CS_A	CPPC	LWWL	JQQJ	YFFY	DXXD	ZHHZ	genießen	träumen	sonnig	küssen	vertrauen	gütig	gemein	töten	sterben	krank	versagen	gierig	47pct	acq_USunple_CSunple2_noRW	acq1_noRW	1	30	0	0	300	300	515	46	0	1	1	blank2r.bmp	0	1	+	0	1	blank2r.bmp	252	1	YFFY	306	2	versagen	559	0	0	0	0	0	0	0	0	0	0	0	0	0	0	0	0	0	0	0	0	0	0	0	0	0	0	0	0	0	0	0	0	0	0	0	0	0	0	0
070319	13:33:00	13:34:57	116365	5.0.10.0	5_exp_noRW	12	Rpleas_acq	CS_A	CPPC	LWWL	JQQJ	YFFY	DXXD	ZHHZ	genießen	träumen	sonnig	küssen	vertrauen	gütig	gemein	töten	sterben	krank	versagen	gierig	47pct	acq_USpleas_CSpleas1_noRW	acq1_noRW	1	31	0	0	300	300	391	50	0	1	1	blank2r.bmp	0	1	+	0	1	blank2r.bmp	252	1	CPPC	306	3	sonnig	559	0	0	0	0	0	0	0	0	0	0	0	0	0	0	0	0	0	0	0	0	0	0	0	0	0	0	0	0	0	0	0	0	0	0	0	0	0	0	0
070319	13:33:00	13:34:59	118004	5.0.10.0	5_exp_noRW	12	Rpleas_acq	CS_A	CPPC	LWWL	JQQJ	YFFY	DXXD	ZHHZ	genießen	träumen	sonnig	küssen	vertrauen	gütig	gemein	töten	sterben	krank	versagen	gierig	47pct	acq_USunple_CSunple1_noRW	acq1_noRW	1	32	0	0	300	300	461	46	0	1	1	blank2r.bmp	0	1	+	0	1	blank2r.bmp	252	1	JQQJ	306	2	töten	559	0	0	0	0	0	0	0	0	0	0	0	0	0	0	0	0	0	0	0	0	0	0	0	0	0	0	0	0	0	0	0	0	0	0	0	0	0	0	0
070319	13:33:00	13:35:01	119737	5.0.10.0	5_exp_noRW	12	Rpleas_acq	CS_A	CPPC	LWWL	JQQJ	YFFY	DXXD	ZHHZ	genießen	träumen	sonnig	küssen	vertrauen	gütig	gemein	töten	sterben	krank	versagen	gierig	47pct	acq_USunple_CSunple2_noRW	acq1_noRW	1	33	0	0	300	300	344	50	0	0	1	blank2r.bmp	0	1	+	0	1	blank2r.bmp	252	1	YFFY	306	1	krank	559	1	FEHLER	932	0	0	0	0	0	0	0	0	0	0	0	0	0	0	0	0	0	0	0	0	0	0	0	0	0	0	0	0	0	0	0	0	0	0	0	0
070319	13:33:00	13:35:02	121256	5.0.10.0	5_exp_noRW	12	Rpleas_acq	CS_A	CPPC	LWWL	JQQJ	YFFY	DXXD	ZHHZ	genießen	träumen	sonnig	küssen	vertrauen	gütig	gemein	töten	sterben	krank	versagen	gierig	47pct	acq_USunple_CSunple1_noRW	acq1_noRW	1	34	0	0	300	300	557	46	0	1	1	blank2r.bmp	0	1	+	0	1	blank2r.bmp	252	1	JQQJ	306	1	gemein	559	0	0	0	0	0	0	0	0	0	0	0	0	0	0	0	0	0	0	0	0	0	0	0	0	0	0	0	0	0	0	0	0	0	0	0	0	0	0	0
070319	13:33:00	13:35:04	122896	5.0.10.0	5_exp_noRW	12	Rpleas_acq	CS_A	CPPC	LWWL	JQQJ	YFFY	DXXD	ZHHZ	genießen	träumen	sonnig	küssen	vertrauen	gütig	gemein	töten	sterben	krank	versagen	gierig	47pct	acq_USunple_CSpleas1_noRW	acq1_noRW	1	35	0	0	300	300	456	46	0	1	1	blank2r.bmp	0	1	+	0	1	blank2r.bmp	252	1	CPPC	306	1	gemein	559	0	0	0	0	0	0	0	0	0	0	0	0	0	0	0	0	0	0	0	0	0	0	0	0	0	0	0	0	0	0	0	0	0	0	0	0	0	0	0
070319	13:33:00	13:35:05	124442	5.0.10.0	5_exp_noRW	12	Rpleas_acq	CS_A	CPPC	LWWL	JQQJ	YFFY	DXXD	ZHHZ	genießen	träumen	sonnig	küssen	vertrauen	gütig	gemein	töten	sterben	krank	versagen	gierig	53pct	acq_USpleas_CSpleas2_noRW	acq1_noRW	1	36	0	0	300	300	373	50	0	1	1	blank2r.bmp	0	1	+	0	1	blank2r.bmp	252	1	LWWL	306	1	küssen	559	0	0	0	0	0	0	0	0	0	0	0	0	0	0	0	0	0	0	0	0	0	0	0	0	0	0	0	0	0	0	0	0	0	0	0	0	0	0	0
070319	13:33:00	13:35:07	126201	5.0.10.0	5_exp_noRW	12	Rpleas_acq	CS_A	CPPC	LWWL	JQQJ	YFFY	DXXD	ZHHZ	genießen	träumen	sonnig	küssen	vertrauen	gütig	gemein	töten	sterben	krank	versagen	gierig	53pct	acq_USpleas_CSunple1_noRW	acq1_noRW	1	37	0	0	300	300	380	46	0	0	1	blank2r.bmp	0	1	+	0	1	blank2r.bmp	252	1	JQQJ	306	1	genießen	559	1	FEHLER	972	0	0	0	0	0	0	0	0	0	0	0	0	0	0	0	0	0	0	0	0	0	0	0	0	0	0	0	0	0	0	0	0	0	0	0	0
070319	13:33:00	13:35:09	127681	5.0.10.0	5_exp_noRW	12	Rpleas_acq	CS_A	CPPC	LWWL	JQQJ	YFFY	DXXD	ZHHZ	genießen	träumen	sonnig	küssen	vertrauen	gütig	gemein	töten	sterben	krank	versagen	gierig	47pct	acq_USpleas_CSpleas2_noRW	acq1_noRW	1	38	0	0	300	300	508	50	0	1	1	blank2r.bmp	0	1	+	0	1	blank2r.bmp	252	1	LWWL	306	2	vertrauen	559	0	0	0	0	0	0	0	0	0	0	0	0	0	0	0	0	0	0	0	0	0	0	0	0	0	0	0	0	0	0	0	0	0	0	0	0	0	0	0
070319	13:33:00	13:35:10	129400	5.0.10.0	5_exp_noRW	12	Rpleas_acq	CS_A	CPPC	LWWL	JQQJ	YFFY	DXXD	ZHHZ	genießen	träumen	sonnig	küssen	vertrauen	gütig	gemein	töten	sterben	krank	versagen	gierig	53pct	acq_USunple_CSpleas2_noRW	acq1_noRW	1	39	0	0	300	300	553	46	0	1	1	blank2r.bmp	0	1	+	0	1	blank2r.bmp	252	1	LWWL	306	2	versagen	559	0	0	0	0	0	0	0	0	0	0	0	0	0	0	0	0	0	0	0	0	0	0	0	0	0	0	0	0	0	0	0	0	0	0	0	0	0	0	0
070319	13:33:00	13:35:12	130973	5.0.10.0	5_exp_noRW	12	Rpleas_acq	CS_A	CPPC	LWWL	JQQJ	YFFY	DXXD	ZHHZ	genießen	träumen	sonnig	küssen	vertrauen	gütig	gemein	töten	sterben	krank	versagen	gierig	53pct	acq_USunple_CSunple1_noRW	acq1_noRW	1	40	0	0	300	300	401	46	0	1	1	blank2r.bmp	0	1	+	0	1	blank2r.bmp	252	1	JQQJ	306	2	töten	559	0	0	0	0	0	0	0	0	0	0	0	0	0	0	0	0	0	0	0	0	0	0	0	0	0	0	0	0	0	0	0	0	0	0	0	0	0	0	0
070319	13:33:00	13:35:13	132519	5.0.10.0	5_exp_noRW	12	Rpleas_acq	CS_A	CPPC	LWWL	JQQJ	YFFY	DXXD	ZHHZ	genießen	träumen	sonnig	küssen	vertrauen	gütig	gemein	töten	sterben	krank	versagen	gierig	53pct	acq_USunple_CSunple2_noRW	acq1_noRW	1	41	0	0	300	300	381	46	0	1	1	blank2r.bmp	0	1	+	0	1	blank2r.bmp	252	1	YFFY	306	3	gierig	559	0	0	0	0	0	0	0	0	0	0	0	0	0	0	0	0	0	0	0	0	0	0	0	0	0	0	0	0	0	0	0	0	0	0	0	0	0	0	0
070319	13:33:00	13:35:15	134225	5.0.10.0	5_exp_noRW	12	Rpleas_acq	CS_A	CPPC	LWWL	JQQJ	YFFY	DXXD	ZHHZ	genießen	träumen	sonnig	küssen	vertrauen	gütig	gemein	töten	sterben	krank	versagen	gierig	53pct	acq_USunple_CSunple2_noRW	acq1_noRW	1	42	0	0	300	300	529	46	0	1	1	blank2r.bmp	0	1	+	0	1	blank2r.bmp	252	1	YFFY	306	2	versagen	559	0	0	0	0	0	0	0	0	0	0	0	0	0	0	0	0	0	0	0	0	0	0	0	0	0	0	0	0	0	0	0	0	0	0	0	0	0	0	0
070319	13:33:00	13:35:17	135904	5.0.10.0	5_exp_noRW	12	Rpleas_acq	CS_A	CPPC	LWWL	JQQJ	YFFY	DXXD	ZHHZ	genießen	träumen	sonnig	küssen	vertrauen	gütig	gemein	töten	sterben	krank	versagen	gierig	47pct	acq_USunple_CSunple1_noRW	acq1_noRW	1	43	0	0	300	300	494	46	0	1	1	blank2r.bmp	0	1	+	0	1	blank2r.bmp	252	1	JQQJ	306	3	sterben	559	0	0	0	0	0	0	0	0	0	0	0	0	0	0	0	0	0	0	0	0	0	0	0	0	0	0	0	0	0	0	0	0	0	0	0	0	0	0	0
070319	13:33:00	13:35:18	137410	5.0.10.0	5_exp_noRW	12	Rpleas_acq	CS_A	CPPC	LWWL	JQQJ	YFFY	DXXD	ZHHZ	genießen	träumen	sonnig	küssen	vertrauen	gütig	gemein	töten	sterben	krank	versagen	gierig	47pct	acq_USpleas_CSunple2_noRW	acq1_noRW	1	44	0	0	300	300	338	50	0	1	1	blank2r.bmp	0	1	+	0	1	blank2r.bmp	252	1	YFFY	306	1	küssen	559	0	0	0	0	0	0	0	0	0	0	0	0	0	0	0	0	0	0	0	0	0	0	0	0	0	0	0	0	0	0	0	0	0	0	0	0	0	0	0
070319	13:33:00	13:35:20	139036	5.0.10.0	5_exp_noRW	12	Rpleas_acq	CS_A	CPPC	LWWL	JQQJ	YFFY	DXXD	ZHHZ	genießen	träumen	sonnig	küssen	vertrauen	gütig	gemein	töten	sterben	krank	versagen	gierig	47pct	acq_USunple_CSpleas1_noRW	acq1_noRW	1	45	0	0	300	300	445	46	0	1	1	blank2r.bmp	0	1	+	0	1	blank2r.bmp	252	1	CPPC	306	3	sterben	559	0	0	0	0	0	0	0	0	0	0	0	0	0	0	0	0	0	0	0	0	0	0	0	0	0	0	0	0	0	0	0	0	0	0	0	0	0	0	0
070319	13:33:00	13:35:22	140702	5.0.10.0	5_exp_noRW	12	Rpleas_acq	CS_A	CPPC	LWWL	JQQJ	YFFY	DXXD	ZHHZ	genießen	träumen	sonnig	küssen	vertrauen	gütig	gemein	töten	sterben	krank	versagen	gierig	53pct	acq_USunple_CSunple2_noRW	acq1_noRW	1	46	0	0	300	300	503	46	0	1	1	blank2r.bmp	0	1	+	0	1	blank2r.bmp	252	1	YFFY	306	3	gierig	559	0	0	0	0	0	0	0	0	0	0	0	0	0	0	0	0	0	0	0	0	0	0	0	0	0	0	0	0	0	0	0	0	0	0	0	0	0	0	0
070319	13:33:00	13:35:23	142288	5.0.10.0	5_exp_noRW	12	Rpleas_acq	CS_A	CPPC	LWWL	JQQJ	YFFY	DXXD	ZHHZ	genießen	träumen	sonnig	küssen	vertrauen	gütig	gemein	töten	sterben	krank	versagen	gierig	47pct	acq_USunple_CSunple1_noRW	acq1_noRW	1	47	0	0	300	300	399	46	0	1	1	blank2r.bmp	0	1	+	0	1	blank2r.bmp	252	1	JQQJ	306	2	töten	559	0	0	0	0	0	0	0	0	0	0	0	0	0	0	0	0	0	0	0	0	0	0	0	0	0	0	0	0	0	0	0	0	0	0	0	0	0	0	0
070319	13:33:00	13:35:25	144127	5.0.10.0	5_exp_noRW	12	Rpleas_acq	CS_A	CPPC	LWWL	JQQJ	YFFY	DXXD	ZHHZ	genießen	träumen	sonnig	küssen	vertrauen	gütig	gemein	töten	sterben	krank	versagen	gierig	47pct	acq_USpleas_CSpleas2_noRW	acq1_noRW	1	48	0	0	300	300	463	46	0	0	1	blank2r.bmp	0	1	+	0	1	blank2r.bmp	252	1	LWWL	306	3	gütig	559	1	FEHLER	1052	0	0	0	0	0	0	0	0	0	0	0	0	0	0	0	0	0	0	0	0	0	0	0	0	0	0	0	0	0	0	0	0	0	0	0	0
070319	13:33:00	13:35:27	145633	5.0.10.0	5_exp_noRW	12	Rpleas_acq	CS_A	CPPC	LWWL	JQQJ	YFFY	DXXD	ZHHZ	genießen	träumen	sonnig	küssen	vertrauen	gütig	gemein	töten	sterben	krank	versagen	gierig	47pct	acq_USpleas_CSunple1_noRW	acq1_noRW	1	49	0	0	300	300	535	50	0	1	1	blank2r.bmp	0	1	+	0	1	blank2r.bmp	252	1	JQQJ	306	3	sonnig	559	0	0	0	0	0	0	0	0	0	0	0	0	0	0	0	0	0	0	0	0	0	0	0	0	0	0	0	0	0	0	0	0	0	0	0	0	0	0	0
070319	13:33:00	13:35:28	147259	5.0.10.0	5_exp_noRW	12	Rpleas_acq	CS_A	CPPC	LWWL	JQQJ	YFFY	DXXD	ZHHZ	genießen	träumen	sonnig	küssen	vertrauen	gütig	gemein	töten	sterben	krank	versagen	gierig	53pct	acq_USunple_CSunple1_noRW	acq1_noRW	1	50	0	0	300	300	448	46	0	1	1	blank2r.bmp	0	1	+	0	1	blank2r.bmp	252	1	JQQJ	306	3	sterben	559	0	0	0	0	0	0	0	0	0	0	0	0	0	0	0	0	0	0	0	0	0	0	0	0	0	0	0	0	0	0	0	0	0	0	0	0	0	0	0
070319	13:33:00	13:35:30	148925	5.0.10.0	5_exp_noRW	12	Rpleas_acq	CS_A	CPPC	LWWL	JQQJ	YFFY	DXXD	ZHHZ	genießen	träumen	sonnig	küssen	vertrauen	gütig	gemein	töten	sterben	krank	versagen	gierig	53pct	acq_USpleas_CSpleas1_noRW	acq1_noRW	1	51	0	0	300	300	496	50	0	1	1	blank2r.bmp	0	1	+	0	1	blank2r.bmp	252	1	CPPC	306	2	träumen	559	0	0	0	0	0	0	0	0	0	0	0	0	0	0	0	0	0	0	0	0	0	0	0	0	0	0	0	0	0	0	0	0	0	0	0	0	0	0	0
070319	13:33:00	13:35:31	150565	5.0.10.0	5_exp_noRW	12	Rpleas_acq	CS_A	CPPC	LWWL	JQQJ	YFFY	DXXD	ZHHZ	genießen	träumen	sonnig	küssen	vertrauen	gütig	gemein	töten	sterben	krank	versagen	gierig	47pct	acq_USpleas_CSpleas1_noRW	acq1_noRW	1	52	0	0	300	300	455	50	0	1	1	blank2r.bmp	0	1	+	0	1	blank2r.bmp	252	1	CPPC	306	3	sonnig	559	0	0	0	0	0	0	0	0	0	0	0	0	0	0	0	0	0	0	0	0	0	0	0	0	0	0	0	0	0	0	0	0	0	0	0	0	0	0	0
070319	13:33:00	13:35:33	152164	5.0.10.0	5_exp_noRW	12	Rpleas_acq	CS_A	CPPC	LWWL	JQQJ	YFFY	DXXD	ZHHZ	genießen	träumen	sonnig	küssen	vertrauen	gütig	gemein	töten	sterben	krank	versagen	gierig	47pct	acq_USunple_CSunple1_noRW	acq1_noRW	1	53	0	0	300	300	436	46	0	1	1	blank2r.bmp	0	1	+	0	1	blank2r.bmp	252	1	JQQJ	306	1	gemein	559	0	0	0	0	0	0	0	0	0	0	0	0	0	0	0	0	0	0	0	0	0	0	0	0	0	0	0	0	0	0	0	0	0	0	0	0	0	0	0
070319	13:33:00	13:35:35	153750	5.0.10.0	5_exp_noRW	12	Rpleas_acq	CS_A	CPPC	LWWL	JQQJ	YFFY	DXXD	ZHHZ	genießen	träumen	sonnig	küssen	vertrauen	gütig	gemein	töten	sterben	krank	versagen	gierig	47pct	acq_USpleas_CSpleas2_noRW	acq1_noRW	1	54	0	0	300	300	411	50	0	1	1	blank2r.bmp	0	1	+	0	1	blank2r.bmp	252	1	LWWL	306	1	küssen	559	0	0	0	0	0	0	0	0	0	0	0	0	0	0	0	0	0	0	0	0	0	0	0	0	0	0	0	0	0	0	0	0	0	0	0	0	0	0	0
070319	13:33:00	13:35:36	155523	5.0.10.0	5_exp_noRW	12	Rpleas_acq	CS_A	CPPC	LWWL	JQQJ	YFFY	DXXD	ZHHZ	genießen	träumen	sonnig	küssen	vertrauen	gütig	gemein	töten	sterben	krank	versagen	gierig	53pct	acq_USunple_CSunple2_noRW	acq1_noRW	1	55	0	0	300	300	397	50	0	0	1	blank2r.bmp	0	1	+	0	1	blank2r.bmp	252	1	YFFY	306	1	krank	559	1	FEHLER	986	0	0	0	0	0	0	0	0	0	0	0	0	0	0	0	0	0	0	0	0	0	0	0	0	0	0	0	0	0	0	0	0	0	0	0	0
070319	13:33:00	13:35:38	157148	5.0.10.0	5_exp_noRW	12	Rpleas_acq	CS_A	CPPC	LWWL	JQQJ	YFFY	DXXD	ZHHZ	genießen	träumen	sonnig	küssen	vertrauen	gütig	gemein	töten	sterben	krank	versagen	gierig	53pct	acq_USpleas_CSpleas1_noRW	acq1_noRW	1	56	0	0	300	300	416	46	0	0	1	blank2r.bmp	0	1	+	0	1	blank2r.bmp	252	1	CPPC	306	2	träumen	559	1	FEHLER	1012	0	0	0	0	0	0	0	0	0	0	0	0	0	0	0	0	0	0	0	0	0	0	0	0	0	0	0	0	0	0	0	0	0	0	0	0
070319	13:33:00	13:35:40	158854	5.0.10.0	5_exp_noRW	12	Rpleas_acq	CS_A	CPPC	LWWL	JQQJ	YFFY	DXXD	ZHHZ	genießen	träumen	sonnig	küssen	vertrauen	gütig	gemein	töten	sterben	krank	versagen	gierig	47pct	acq_USpleas_CSpleas2_noRW	acq1_noRW	1	57	0	0	300	300	534	46	0	0	1	blank2r.bmp	0	1	+	0	1	blank2r.bmp	252	1	LWWL	306	3	gütig	559	1	FEHLER	1132	0	0	0	0	0	0	0	0	0	0	0	0	0	0	0	0	0	0	0	0	0	0	0	0	0	0	0	0	0	0	0	0	0	0	0	0
070319	13:33:00	13:35:41	160294	5.0.10.0	5_exp_noRW	12	Rpleas_acq	CS_A	CPPC	LWWL	JQQJ	YFFY	DXXD	ZHHZ	genießen	träumen	sonnig	küssen	vertrauen	gütig	gemein	töten	sterben	krank	versagen	gierig	53pct	acq_USunple_CSpleas2_noRW	acq1_noRW	1	58	0	0	300	300	477	46	0	1	1	blank2r.bmp	0	1	+	0	1	blank2r.bmp	252	1	LWWL	306	1	krank	559	0	0	0	0	0	0	0	0	0	0	0	0	0	0	0	0	0	0	0	0	0	0	0	0	0	0	0	0	0	0	0	0	0	0	0	0	0	0	0
070319	13:33:00	13:35:43	161947	5.0.10.0	5_exp_noRW	12	Rpleas_acq	CS_A	CPPC	LWWL	JQQJ	YFFY	DXXD	ZHHZ	genießen	träumen	sonnig	küssen	vertrauen	gütig	gemein	töten	sterben	krank	versagen	gierig	47pct	acq_USpleas_CSpleas2_noRW	acq1_noRW	1	59	0	0	300	300	477	50	0	1	1	blank2r.bmp	0	1	+	0	1	blank2r.bmp	252	1	LWWL	306	2	vertrauen	559	0	0	0	0	0	0	0	0	0	0	0	0	0	0	0	0	0	0	0	0	0	0	0	0	0	0	0	0	0	0	0	0	0	0	0	0	0	0	0
070319	13:33:00	13:35:45	163919	5.0.10.0	5_exp_noRW	12	Rpleas_acq	CS_A	CPPC	LWWL	JQQJ	YFFY	DXXD	ZHHZ	genießen	träumen	sonnig	küssen	vertrauen	gütig	gemein	töten	sterben	krank	versagen	gierig	53pct	acq_USpleas_CSpleas1_noRW	acq1_noRW	1	60	0	0	300	300	792	50	0	1	1	blank2r.bmp	0	1	+	0	1	blank2r.bmp	252	1	CPPC	306	1	genießen	559	0	0	0	0	0	0	0	0	0	0	0	0	0	0	0	0	0	0	0	0	0	0	0	0	0	0	0	0	0	0	0	0	0	0	0	0	0	0	0
070319	13:33:00	13:35:46	165612	5.0.10.0	5_exp_noRW	12	Rpleas_acq	CS_A	CPPC	LWWL	JQQJ	YFFY	DXXD	ZHHZ	genießen	träumen	sonnig	küssen	vertrauen	gütig	gemein	töten	sterben	krank	versagen	gierig	53pct	acq_USunple_CSunple1_noRW	acq1_noRW	1	61	0	0	300	300	529	46	0	1	1	blank2r.bmp	0	1	+	0	1	blank2r.bmp	252	1	JQQJ	306	1	gemein	559	0	0	0	0	0	0	0	0	0	0	0	0	0	0	0	0	0	0	0	0	0	0	0	0	0	0	0	0	0	0	0	0	0	0	0	0	0	0	0
070319	13:33:00	13:35:48	167358	5.0.10.0	5_exp_noRW	12	Rpleas_acq	CS_A	CPPC	LWWL	JQQJ	YFFY	DXXD	ZHHZ	genießen	träumen	sonnig	küssen	vertrauen	gütig	gemein	töten	sterben	krank	versagen	gierig	47pct	acq_USunple_CSunple1_noRW	acq1_noRW	1	62	0	0	300	300	563	46	0	1	1	blank2r.bmp	0	1	+	0	1	blank2r.bmp	252	1	JQQJ	306	3	sterben	559	0	0	0	0	0	0	0	0	0	0	0	0	0	0	0	0	0	0	0	0	0	0	0	0	0	0	0	0	0	0	0	0	0	0	0	0	0	0	0
070319	13:33:00	13:35:50	169010	5.0.10.0	5_exp_noRW	12	Rpleas_acq	CS_A	CPPC	LWWL	JQQJ	YFFY	DXXD	ZHHZ	genießen	träumen	sonnig	küssen	vertrauen	gütig	gemein	töten	sterben	krank	versagen	gierig	47pct	acq_USunple_CSpleas1_noRW	acq1_noRW	1	63	0	0	300	300	489	46	0	1	1	blank2r.bmp	0	1	+	0	1	blank2r.bmp	252	1	CPPC	306	3	sterben	559	0	0	0	0	0	0	0	0	0	0	0	0	0	0	0	0	0	0	0	0	0	0	0	0	0	0	0	0	0	0	0	0	0	0	0	0	0	0	0
070319	13:33:00	13:35:52	170730	5.0.10.0	5_exp_noRW	12	Rpleas_acq	CS_A	CPPC	LWWL	JQQJ	YFFY	DXXD	ZHHZ	genießen	träumen	sonnig	küssen	vertrauen	gütig	gemein	töten	sterben	krank	versagen	gierig	47pct	acq_USpleas_CSunple1_noRW	acq1_noRW	1	64	0	0	300	300	538	50	0	1	1	blank2r.bmp	0	1	+	0	1	blank2r.bmp	252	1	JQQJ	306	3	sonnig	559	0	0	0	0	0	0	0	0	0	0	0	0	0	0	0	0	0	0	0	0	0	0	0	0	0	0	0	0	0	0	0	0	0	0	0	0	0	0	0
070319	13:33:00	13:35:53	172529	5.0.10.0	5_exp_noRW	12	Rpleas_acq	CS_A	CPPC	LWWL	JQQJ	YFFY	DXXD	ZHHZ	genießen	träumen	sonnig	küssen	vertrauen	gütig	gemein	töten	sterben	krank	versagen	gierig	53pct	acq_USunple_CSunple2_noRW	acq1_noRW	1	65	0	0	300	300	618	46	0	1	1	blank2r.bmp	0	1	+	0	1	blank2r.bmp	252	1	YFFY	306	3	gierig	559	0	0	0	0	0	0	0	0	0	0	0	0	0	0	0	0	0	0	0	0	0	0	0	0	0	0	0	0	0	0	0	0	0	0	0	0	0	0	0
070319	13:33:00	13:35:55	174195	5.0.10.0	5_exp_noRW	12	Rpleas_acq	CS_A	CPPC	LWWL	JQQJ	YFFY	DXXD	ZHHZ	genießen	träumen	sonnig	küssen	vertrauen	gütig	gemein	töten	sterben	krank	versagen	gierig	47pct	acq_USunple_CSunple1_noRW	acq1_noRW	1	66	0	0	300	300	493	46	0	1	1	blank2r.bmp	0	1	+	0	1	blank2r.bmp	252	1	JQQJ	306	2	töten	559	0	0	0	0	0	0	0	0	0	0	0	0	0	0	0	0	0	0	0	0	0	0	0	0	0	0	0	0	0	0	0	0	0	0	0	0	0	0	0
070319	13:33:00	13:35:57	175874	5.0.10.0	5_exp_noRW	12	Rpleas_acq	CS_A	CPPC	LWWL	JQQJ	YFFY	DXXD	ZHHZ	genießen	träumen	sonnig	küssen	vertrauen	gütig	gemein	töten	sterben	krank	versagen	gierig	53pct	acq_USunple_CSunple2_noRW	acq1_noRW	1	67	0	0	300	300	494	46	0	1	1	blank2r.bmp	0	1	+	0	1	blank2r.bmp	252	1	YFFY	306	2	versagen	559	0	0	0	0	0	0	0	0	0	0	0	0	0	0	0	0	0	0	0	0	0	0	0	0	0	0	0	0	0	0	0	0	0	0	0	0	0	0	0
070319	13:33:00	13:35:58	177580	5.0.10.0	5_exp_noRW	12	Rpleas_acq	CS_A	CPPC	LWWL	JQQJ	YFFY	DXXD	ZHHZ	genießen	träumen	sonnig	küssen	vertrauen	gütig	gemein	töten	sterben	krank	versagen	gierig	47pct	acq_USpleas_CSpleas2_noRW	acq1_noRW	1	68	0	0	300	300	544	50	0	1	1	blank2r.bmp	0	1	+	0	1	blank2r.bmp	252	1	LWWL	306	2	vertrauen	559	0	0	0	0	0	0	0	0	0	0	0	0	0	0	0	0	0	0	0	0	0	0	0	0	0	0	0	0	0	0	0	0	0	0	0	0	0	0	0
070319	13:33:00	13:36:00	179233	5.0.10.0	5_exp_noRW	12	Rpleas_acq	CS_A	CPPC	LWWL	JQQJ	YFFY	DXXD	ZHHZ	genießen	träumen	sonnig	küssen	vertrauen	gütig	gemein	töten	sterben	krank	versagen	gierig	47pct	acq_USpleas_CSpleas1_noRW	acq1_noRW	1	69	0	0	300	300	468	50	0	1	1	blank2r.bmp	0	1	+	0	1	blank2r.bmp	252	1	CPPC	306	3	sonnig	559	0	0	0	0	0	0	0	0	0	0	0	0	0	0	0	0	0	0	0	0	0	0	0	0	0	0	0	0	0	0	0	0	0	0	0	0	0	0	0
070319	13:33:00	13:36:02	181032	5.0.10.0	5_exp_noRW	12	Rpleas_acq	CS_A	CPPC	LWWL	JQQJ	YFFY	DXXD	ZHHZ	genießen	träumen	sonnig	küssen	vertrauen	gütig	gemein	töten	sterben	krank	versagen	gierig	47pct	acq_USpleas_CSpleas2_noRW	acq1_noRW	1	70	0	0	300	300	619	50	0	1	1	blank2r.bmp	0	1	+	0	1	blank2r.bmp	252	1	LWWL	306	3	gütig	559	0	0	0	0	0	0	0	0	0	0	0	0	0	0	0	0	0	0	0	0	0	0	0	0	0	0	0	0	0	0	0	0	0	0	0	0	0	0	0
070319	13:33:00	13:36:04	182671	5.0.10.0	5_exp_noRW	12	Rpleas_acq	CS_A	CPPC	LWWL	JQQJ	YFFY	DXXD	ZHHZ	genießen	träumen	sonnig	küssen	vertrauen	gütig	gemein	töten	sterben	krank	versagen	gierig	47pct	acq_USunple_CSpleas2_noRW	acq1_noRW	1	71	0	0	300	300	468	46	0	1	1	blank2r.bmp	0	1	+	0	1	blank2r.bmp	252	1	LWWL	306	3	gierig	559	0	0	0	0	0	0	0	0	0	0	0	0	0	0	0	0	0	0	0	0	0	0	0	0	0	0	0	0	0	0	0	0	0	0	0	0	0	0	0
070319	13:33:00	13:36:05	184324	5.0.10.0	5_exp_noRW	12	Rpleas_acq	CS_A	CPPC	LWWL	JQQJ	YFFY	DXXD	ZHHZ	genießen	träumen	sonnig	küssen	vertrauen	gütig	gemein	töten	sterben	krank	versagen	gierig	53pct	acq_USpleas_CSpleas1_noRW	acq1_noRW	1	72	0	0	300	300	491	50	0	1	1	blank2r.bmp	0	1	+	0	1	blank2r.bmp	252	1	CPPC	306	2	träumen	559	0	0	0	0	0	0	0	0	0	0	0	0	0	0	0	0	0	0	0	0	0	0	0	0	0	0	0	0	0	0	0	0	0	0	0	0	0	0	0
070319	13:33:00	13:36:07	185897	5.0.10.0	5_exp_noRW	12	Rpleas_acq	CS_A	CPPC	LWWL	JQQJ	YFFY	DXXD	ZHHZ	genießen	träumen	sonnig	küssen	vertrauen	gütig	gemein	töten	sterben	krank	versagen	gierig	47pct	acq_USpleas_CSpleas2_noRW	acq1_noRW	1	73	0	0	300	300	396	50	0	1	1	blank2r.bmp	0	1	+	0	1	blank2r.bmp	252	1	LWWL	306	1	küssen	559	0	0	0	0	0	0	0	0	0	0	0	0	0	0	0	0	0	0	0	0	0	0	0	0	0	0	0	0	0	0	0	0	0	0	0	0	0	0	0
070319	13:33:00	13:36:08	187563	5.0.10.0	5_exp_noRW	12	Rpleas_acq	CS_A	CPPC	LWWL	JQQJ	YFFY	DXXD	ZHHZ	genießen	träumen	sonnig	küssen	vertrauen	gütig	gemein	töten	sterben	krank	versagen	gierig	47pct	acq_USunple_CSunple2_noRW	acq1_noRW	1	74	0	0	300	300	480	46	0	1	1	blank2r.bmp	0	1	+	0	1	blank2r.bmp	252	1	YFFY	306	1	krank	559	0	0	0	0	0	0	0	0	0	0	0	0	0	0	0	0	0	0	0	0	0	0	0	0	0	0	0	0	0	0	0	0	0	0	0	0	0	0	0
070319	13:33:00	13:36:10	189162	5.0.10.0	5_exp_noRW	12	Rpleas_acq	CS_A	CPPC	LWWL	JQQJ	YFFY	DXXD	ZHHZ	genießen	träumen	sonnig	küssen	vertrauen	gütig	gemein	töten	sterben	krank	versagen	gierig	47pct	acq_USpleas_CSunple2_noRW	acq1_noRW	1	75	0	0	300	300	436	50	0	1	1	blank2r.bmp	0	1	+	0	1	blank2r.bmp	252	1	YFFY	306	1	küssen	559	0	0	0	0	0	0	0	0	0	0	0	0	0	0	0	0	0	0	0	0	0	0	0	0	0	0	0	0	0	0	0	0	0	0	0	0	0	0	0
070319	13:33:00	13:36:12	190921	5.0.10.0	5_exp_noRW	12	Rpleas_acq	CS_A	CPPC	LWWL	JQQJ	YFFY	DXXD	ZHHZ	genießen	träumen	sonnig	küssen	vertrauen	gütig	gemein	töten	sterben	krank	versagen	gierig	53pct	acq_USpleas_CSpleas1_noRW	acq1_noRW	1	76	0	0	300	300	573	50	0	1	1	blank2r.bmp	0	1	+	0	1	blank2r.bmp	252	1	CPPC	306	1	genießen	559	0	0	0	0	0	0	0	0	0	0	0	0	0	0	0	0	0	0	0	0	0	0	0	0	0	0	0	0	0	0	0	0	0	0	0	0	0	0	0
070319	13:33:00	13:36:14	192734	5.0.10.0	5_exp_noRW	12	Rpleas_acq	CS_A	CPPC	LWWL	JQQJ	YFFY	DXXD	ZHHZ	genießen	träumen	sonnig	küssen	vertrauen	gütig	gemein	töten	sterben	krank	versagen	gierig	53pct	acq_USpleas_CSpleas2_noRW	acq1_noRW	1	77	0	0	300	300	430	46	0	0	1	blank2r.bmp	0	1	+	0	1	blank2r.bmp	252	1	LWWL	306	3	gütig	559	1	FEHLER	1026	0	0	0	0	0	0	0	0	0	0	0	0	0	0	0	0	0	0	0	0	0	0	0	0	0	0	0	0	0	0	0	0	0	0	0	0
070319	13:33:00	13:36:15	194200	5.0.10.0	5_exp_noRW	12	Rpleas_acq	CS_A	CPPC	LWWL	JQQJ	YFFY	DXXD	ZHHZ	genießen	träumen	sonnig	küssen	vertrauen	gütig	gemein	töten	sterben	krank	versagen	gierig	47pct	acq_USpleas_CSpleas1_noRW	acq1_noRW	1	78	0	0	300	300	513	50	0	1	1	blank2r.bmp	0	1	+	0	1	blank2r.bmp	252	1	CPPC	306	1	genießen	559	0	0	0	0	0	0	0	0	0	0	0	0	0	0	0	0	0	0	0	0	0	0	0	0	0	0	0	0	0	0	0	0	0	0	0	0	0	0	0
070319	13:33:00	13:36:17	195986	5.0.10.0	5_exp_noRW	12	Rpleas_acq	CS_A	CPPC	LWWL	JQQJ	YFFY	DXXD	ZHHZ	genießen	träumen	sonnig	küssen	vertrauen	gütig	gemein	töten	sterben	krank	versagen	gierig	47pct	acq_USunple_CSunple2_noRW	acq1_noRW	1	79	0	0	300	300	614	46	0	1	1	blank2r.bmp	0	1	+	0	1	blank2r.bmp	252	1	YFFY	306	2	versagen	559	0	0	0	0	0	0	0	0	0	0	0	0	0	0	0	0	0	0	0	0	0	0	0	0	0	0	0	0	0	0	0	0	0	0	0	0	0	0	0
070319	13:33:00	13:36:19	197679	5.0.10.0	5_exp_noRW	12	Rpleas_acq	CS_A	CPPC	LWWL	JQQJ	YFFY	DXXD	ZHHZ	genießen	träumen	sonnig	küssen	vertrauen	gütig	gemein	töten	sterben	krank	versagen	gierig	47pct	acq_USunple_CSunple1_noRW	acq1_noRW	1	80	0	0	300	300	518	46	0	1	1	blank2r.bmp	0	1	+	0	1	blank2r.bmp	252	1	JQQJ	306	1	gemein	559	0	0	0	0	0	0	0	0	0	0	0	0	0	0	0	0	0	0	0	0	0	0	0	0	0	0	0	0	0	0	0	0	0	0	0	0	0	0	0
070319	13:33:00	13:36:29	208381	5.0.10.0	5_exp_noRW	12	Rpleas_acq	CS_A	CPPC	LWWL	JQQJ	YFFY	DXXD	ZHHZ	genießen	träumen	sonnig	küssen	vertrauen	gütig	gemein	töten	sterben	krank	versagen	gierig	47pct	acq_USpleas_CSunple2_noRW	acq23456_noRW	2	1	0	0	300	300	484	50	0	1	1	blank2r.bmp	0	1	+	0	1	blank2r.bmp	252	1	YFFY	306	2	vertrauen	559	0	0	0	0	0	0	0	0	0	0	0	0	0	0	0	0	0	0	0	0	0	0	0	0	0	0	0	0	0	0	0	0	0	0	0	0	0	0	0
070319	13:33:00	13:36:31	209954	5.0.10.0	5_exp_noRW	12	Rpleas_acq	CS_A	CPPC	LWWL	JQQJ	YFFY	DXXD	ZHHZ	genießen	träumen	sonnig	küssen	vertrauen	gütig	gemein	töten	sterben	krank	versagen	gierig	53pct	acq_USunple_CSunple1_noRW	acq23456_noRW	2	2	0	0	300	300	410	46	0	1	1	blank2r.bmp	0	1	+	0	1	blank2r.bmp	252	1	JQQJ	306	3	sterben	559	0	0	0	0	0	0	0	0	0	0	0	0	0	0	0	0	0	0	0	0	0	0	0	0	0	0	0	0	0	0	0	0	0	0	0	0	0	0	0
070319	13:33:00	13:36:32	211540	5.0.10.0	5_exp_noRW	12	Rpleas_acq	CS_A	CPPC	LWWL	JQQJ	YFFY	DXXD	ZHHZ	genießen	träumen	sonnig	küssen	vertrauen	gütig	gemein	töten	sterben	krank	versagen	gierig	53pct	acq_USunple_CSunple2_noRW	acq23456_noRW	2	3	0	0	300	300	424	46	0	1	1	blank2r.bmp	0	1	+	0	1	blank2r.bmp	252	1	YFFY	306	3	gierig	559	0	0	0	0	0	0	0	0	0	0	0	0	0	0	0	0	0	0	0	0	0	0	0	0	0	0	0	0	0	0	0	0	0	0	0	0	0	0	0
070319	13:33:00	13:36:34	213339	5.0.10.0	5_exp_noRW	12	Rpleas_acq	CS_A	CPPC	LWWL	JQQJ	YFFY	DXXD	ZHHZ	genießen	träumen	sonnig	küssen	vertrauen	gütig	gemein	töten	sterben	krank	versagen	gierig	47pct	acq_USunple_CSunple1_noRW	acq23456_noRW	2	4	0	0	300	300	403	50	0	0	1	blank2r.bmp	0	1	+	0	1	blank2r.bmp	252	1	JQQJ	306	2	töten	559	1	FEHLER	999	0	0	0	0	0	0	0	0	0	0	0	0	0	0	0	0	0	0	0	0	0	0	0	0	0	0	0	0	0	0	0	0	0	0	0	0
070319	13:33:00	13:36:36	214805	5.0.10.0	5_exp_noRW	12	Rpleas_acq	CS_A	CPPC	LWWL	JQQJ	YFFY	DXXD	ZHHZ	genießen	träumen	sonnig	küssen	vertrauen	gütig	gemein	töten	sterben	krank	versagen	gierig	53pct	acq_USpleas_CSpleas1_noRW	acq23456_noRW	2	5	0	0	300	300	506	50	0	1	1	blank2r.bmp	0	1	+	0	1	blank2r.bmp	252	1	CPPC	306	3	sonnig	559	0	0	0	0	0	0	0	0	0	0	0	0	0	0	0	0	0	0	0	0	0	0	0	0	0	0	0	0	0	0	0	0	0	0	0	0	0	0	0
070319	13:33:00	13:36:37	216324	5.0.10.0	5_exp_noRW	12	Rpleas_acq	CS_A	CPPC	LWWL	JQQJ	YFFY	DXXD	ZHHZ	genießen	träumen	sonnig	küssen	vertrauen	gütig	gemein	töten	sterben	krank	versagen	gierig	47pct	acq_USpleas_CSpleas2_noRW	acq23456_noRW	2	6	0	0	300	300	354	50	0	1	1	blank2r.bmp	0	1	+	0	1	blank2r.bmp	252	1	LWWL	306	1	küssen	559	0	0	0	0	0	0	0	0	0	0	0	0	0	0	0	0	0	0	0	0	0	0	0	0	0	0	0	0	0	0	0	0	0	0	0	0	0	0	0
070319	13:33:00	13:36:39	218070	5.0.10.0	5_exp_noRW	12	Rpleas_acq	CS_A	CPPC	LWWL	JQQJ	YFFY	DXXD	ZHHZ	genießen	träumen	sonnig	küssen	vertrauen	gütig	gemein	töten	sterben	krank	versagen	gierig	47pct	acq_USpleas_CSpleas1_noRW	acq23456_noRW	2	7	0	0	300	300	345	46	0	0	1	blank2r.bmp	0	1	+	0	1	blank2r.bmp	252	1	CPPC	306	2	träumen	559	1	FEHLER	946	0	0	0	0	0	0	0	0	0	0	0	0	0	0	0	0	0	0	0	0	0	0	0	0	0	0	0	0	0	0	0	0	0	0	0	0
070319	13:33:00	13:36:40	219483	5.0.10.0	5_exp_noRW	12	Rpleas_acq	CS_A	CPPC	LWWL	JQQJ	YFFY	DXXD	ZHHZ	genießen	träumen	sonnig	küssen	vertrauen	gütig	gemein	töten	sterben	krank	versagen	gierig	47pct	acq_USunple_CSpleas1_noRW	acq23456_noRW	2	8	0	0	300	300	453	46	0	1	1	blank2r.bmp	0	1	+	0	1	blank2r.bmp	252	1	CPPC	306	2	töten	559	0	0	0	0	0	0	0	0	0	0	0	0	0	0	0	0	0	0	0	0	0	0	0	0	0	0	0	0	0	0	0	0	0	0	0	0	0	0	0
070319	13:33:00	13:36:42	221082	5.0.10.0	5_exp_noRW	12	Rpleas_acq	CS_A	CPPC	LWWL	JQQJ	YFFY	DXXD	ZHHZ	genießen	träumen	sonnig	küssen	vertrauen	gütig	gemein	töten	sterben	krank	versagen	gierig	53pct	acq_USunple_CSunple1_noRW	acq23456_noRW	2	9	0	0	300	300	423	46	0	1	1	blank2r.bmp	0	1	+	0	1	blank2r.bmp	252	1	JQQJ	306	2	töten	559	0	0	0	0	0	0	0	0	0	0	0	0	0	0	0	0	0	0	0	0	0	0	0	0	0	0	0	0	0	0	0	0	0	0	0	0	0	0	0
070319	13:33:00	13:36:44	222722	5.0.10.0	5_exp_noRW	12	Rpleas_acq	CS_A	CPPC	LWWL	JQQJ	YFFY	DXXD	ZHHZ	genießen	träumen	sonnig	küssen	vertrauen	gütig	gemein	töten	sterben	krank	versagen	gierig	53pct	acq_USpleas_CSpleas2_noRW	acq23456_noRW	2	10	0	0	300	300	461	50	0	1	1	blank2r.bmp	0	1	+	0	1	blank2r.bmp	252	1	LWWL	306	2	vertrauen	559	0	0	0	0	0	0	0	0	0	0	0	0	0	0	0	0	0	0	0	0	0	0	0	0	0	0	0	0	0	0	0	0	0	0	0	0	0	0	0
070319	13:33:00	13:36:45	224414	5.0.10.0	5_exp_noRW	12	Rpleas_acq	CS_A	CPPC	LWWL	JQQJ	YFFY	DXXD	ZHHZ	genießen	träumen	sonnig	küssen	vertrauen	gütig	gemein	töten	sterben	krank	versagen	gierig	53pct	acq_USpleas_CSpleas1_noRW	acq23456_noRW	2	11	0	0	300	300	516	50	0	1	1	blank2r.bmp	0	1	+	0	1	blank2r.bmp	252	1	CPPC	306	3	sonnig	559	0	0	0	0	0	0	0	0	0	0	0	0	0	0	0	0	0	0	0	0	0	0	0	0	0	0	0	0	0	0	0	0	0	0	0	0	0	0	0
070319	13:33:00	13:36:47	226067	5.0.10.0	5_exp_noRW	12	Rpleas_acq	CS_A	CPPC	LWWL	JQQJ	YFFY	DXXD	ZHHZ	genießen	träumen	sonnig	küssen	vertrauen	gütig	gemein	töten	sterben	krank	versagen	gierig	47pct	acq_USunple_CSunple2_noRW	acq23456_noRW	2	12	0	0	300	300	490	46	0	1	1	blank2r.bmp	0	1	+	0	1	blank2r.bmp	252	1	YFFY	306	1	krank	559	0	0	0	0	0	0	0	0	0	0	0	0	0	0	0	0	0	0	0	0	0	0	0	0	0	0	0	0	0	0	0	0	0	0	0	0	0	0	0
070319	13:33:00	13:36:48	227573	5.0.10.0	5_exp_noRW	12	Rpleas_acq	CS_A	CPPC	LWWL	JQQJ	YFFY	DXXD	ZHHZ	genießen	träumen	sonnig	küssen	vertrauen	gütig	gemein	töten	sterben	krank	versagen	gierig	47pct	acq_USunple_CSunple2_noRW	acq23456_noRW	2	13	0	0	300	300	330	46	0	1	1	blank2r.bmp	0	1	+	0	1	blank2r.bmp	252	1	YFFY	306	1	krank	559	0	0	0	0	0	0	0	0	0	0	0	0	0	0	0	0	0	0	0	0	0	0	0	0	0	0	0	0	0	0	0	0	0	0	0	0	0	0	0
070319	13:33:00	13:36:50	229172	5.0.10.0	5_exp_noRW	12	Rpleas_acq	CS_A	CPPC	LWWL	JQQJ	YFFY	DXXD	ZHHZ	genießen	träumen	sonnig	küssen	vertrauen	gütig	gemein	töten	sterben	krank	versagen	gierig	53pct	acq_USpleas_CSpleas2_noRW	acq23456_noRW	2	14	0	0	300	300	414	50	0	1	1	blank2r.bmp	0	1	+	0	1	blank2r.bmp	252	1	LWWL	306	1	küssen	559	0	0	0	0	0	0	0	0	0	0	0	0	0	0	0	0	0	0	0	0	0	0	0	0	0	0	0	0	0	0	0	0	0	0	0	0	0	0	0
070319	13:33:00	13:36:52	230852	5.0.10.0	5_exp_noRW	12	Rpleas_acq	CS_A	CPPC	LWWL	JQQJ	YFFY	DXXD	ZHHZ	genießen	träumen	sonnig	küssen	vertrauen	gütig	gemein	töten	sterben	krank	versagen	gierig	47pct	acq_USunple_CSunple2_noRW	acq23456_noRW	2	15	0	0	300	300	511	46	0	1	1	blank2r.bmp	0	1	+	0	1	blank2r.bmp	252	1	YFFY	306	3	gierig	559	0	0	0	0	0	0	0	0	0	0	0	0	0	0	0	0	0	0	0	0	0	0	0	0	0	0	0	0	0	0	0	0	0	0	0	0	0	0	0
070319	13:33:00	13:36:53	232491	5.0.10.0	5_exp_noRW	12	Rpleas_acq	CS_A	CPPC	LWWL	JQQJ	YFFY	DXXD	ZHHZ	genießen	träumen	sonnig	küssen	vertrauen	gütig	gemein	töten	sterben	krank	versagen	gierig	47pct	acq_USpleas_CSpleas1_noRW	acq23456_noRW	2	16	0	0	300	300	453	50	0	1	1	blank2r.bmp	0	1	+	0	1	blank2r.bmp	252	1	CPPC	306	1	genießen	559	0	0	0	0	0	0	0	0	0	0	0	0	0	0	0	0	0	0	0	0	0	0	0	0	0	0	0	0	0	0	0	0	0	0	0	0	0	0	0
070319	13:33:00	13:36:55	234184	5.0.10.0	5_exp_noRW	12	Rpleas_acq	CS_A	CPPC	LWWL	JQQJ	YFFY	DXXD	ZHHZ	genießen	träumen	sonnig	küssen	vertrauen	gütig	gemein	töten	sterben	krank	versagen	gierig	47pct	acq_USpleas_CSunple1_noRW	acq23456_noRW	2	17	0	0	300	300	517	50	0	1	1	blank2r.bmp	0	1	+	0	1	blank2r.bmp	252	1	JQQJ	306	2	träumen	559	0	0	0	0	0	0	0	0	0	0	0	0	0	0	0	0	0	0	0	0	0	0	0	0	0	0	0	0	0	0	0	0	0	0	0	0	0	0	0
070319	13:33:00	13:36:57	236196	5.0.10.0	5_exp_noRW	12	Rpleas_acq	CS_A	CPPC	LWWL	JQQJ	YFFY	DXXD	ZHHZ	genießen	träumen	sonnig	küssen	vertrauen	gütig	gemein	töten	sterben	krank	versagen	gierig	47pct	acq_USpleas_CSpleas2_noRW	acq23456_noRW	2	18	0	0	300	300	621	46	0	0	1	blank2r.bmp	0	1	+	0	1	blank2r.bmp	252	1	LWWL	306	3	gütig	559	1	FEHLER	1212	0	0	0	0	0	0	0	0	0	0	0	0	0	0	0	0	0	0	0	0	0	0	0	0	0	0	0	0	0	0	0	0	0	0	0	0
070319	13:33:00	13:36:58	237609	5.0.10.0	5_exp_noRW	12	Rpleas_acq	CS_A	CPPC	LWWL	JQQJ	YFFY	DXXD	ZHHZ	genießen	träumen	sonnig	küssen	vertrauen	gütig	gemein	töten	sterben	krank	versagen	gierig	53pct	acq_USunple_CSunple1_noRW	acq23456_noRW	2	19	0	0	300	300	449	46	0	1	1	blank2r.bmp	0	1	+	0	1	blank2r.bmp	252	1	JQQJ	306	3	sterben	559	0	0	0	0	0	0	0	0	0	0	0	0	0	0	0	0	0	0	0	0	0	0	0	0	0	0	0	0	0	0	0	0	0	0	0	0	0	0	0
070319	13:33:00	13:37:00	239462	5.0.10.0	5_exp_noRW	12	Rpleas_acq	CS_A	CPPC	LWWL	JQQJ	YFFY	DXXD	ZHHZ	genießen	träumen	sonnig	küssen	vertrauen	gütig	gemein	töten	sterben	krank	versagen	gierig	53pct	acq_USunple_CSpleas2_noRW	acq23456_noRW	2	20	0	0	300	300	671	46	0	1	1	blank2r.bmp	0	1	+	0	1	blank2r.bmp	252	1	LWWL	306	2	versagen	559	0	0	0	0	0	0	0	0	0	0	0	0	0	0	0	0	0	0	0	0	0	0	0	0	0	0	0	0	0	0	0	0	0	0	0	0	0	0	0
070319	13:33:00	13:37:02	241128	5.0.10.0	5_exp_noRW	12	Rpleas_acq	CS_A	CPPC	LWWL	JQQJ	YFFY	DXXD	ZHHZ	genießen	träumen	sonnig	küssen	vertrauen	gütig	gemein	töten	sterben	krank	versagen	gierig	47pct	acq_USunple_CSunple1_noRW	acq23456_noRW	2	21	0	0	300	300	491	46	0	1	1	blank2r.bmp	0	1	+	0	1	blank2r.bmp	252	1	JQQJ	306	1	gemein	559	0	0	0	0	0	0	0	0	0	0	0	0	0	0	0	0	0	0	0	0	0	0	0	0	0	0	0	0	0	0	0	0	0	0	0	0	0	0	0
070319	13:33:00	13:37:04	242874	5.0.10.0	5_exp_noRW	12	Rpleas_acq	CS_A	CPPC	LWWL	JQQJ	YFFY	DXXD	ZHHZ	genießen	träumen	sonnig	küssen	vertrauen	gütig	gemein	töten	sterben	krank	versagen	gierig	47pct	acq_USunple_CSunple1_noRW	acq23456_noRW	2	22	0	0	300	300	355	50	0	0	1	blank2r.bmp	0	1	+	0	1	blank2r.bmp	252	1	JQQJ	306	3	sterben	559	1	FEHLER	946	0	0	0	0	0	0	0	0	0	0	0	0	0	0	0	0	0	0	0	0	0	0	0	0	0	0	0	0	0	0	0	0	0	0	0	0
070319	13:33:00	13:37:05	244446	5.0.10.0	5_exp_noRW	12	Rpleas_acq	CS_A	CPPC	LWWL	JQQJ	YFFY	DXXD	ZHHZ	genießen	träumen	sonnig	küssen	vertrauen	gütig	gemein	töten	sterben	krank	versagen	gierig	53pct	acq_USpleas_CSpleas2_noRW	acq23456_noRW	2	23	0	0	300	300	396	46	0	0	1	blank2r.bmp	0	1	+	0	1	blank2r.bmp	252	1	LWWL	306	2	vertrauen	559	1	FEHLER	986	0	0	0	0	0	0	0	0	0	0	0	0	0	0	0	0	0	0	0	0	0	0	0	0	0	0	0	0	0	0	0	0	0	0	0	0
070319	13:33:00	13:37:07	246245	5.0.10.0	5_exp_noRW	12	Rpleas_acq	CS_A	CPPC	LWWL	JQQJ	YFFY	DXXD	ZHHZ	genießen	träumen	sonnig	küssen	vertrauen	gütig	gemein	töten	sterben	krank	versagen	gierig	53pct	acq_USunple_CSunple2_noRW	acq23456_noRW	2	24	0	0	300	300	614	50	0	0	1	blank2r.bmp	0	1	+	0	1	blank2r.bmp	252	1	YFFY	306	2	versagen	559	1	FEHLER	1212	0	0	0	0	0	0	0	0	0	0	0	0	0	0	0	0	0	0	0	0	0	0	0	0	0	0	0	0	0	0	0	0	0	0	0	0
070319	13:33:00	13:37:08	247618	5.0.10.0	5_exp_noRW	12	Rpleas_acq	CS_A	CPPC	LWWL	JQQJ	YFFY	DXXD	ZHHZ	genießen	träumen	sonnig	küssen	vertrauen	gütig	gemein	töten	sterben	krank	versagen	gierig	47pct	acq_USpleas_CSpleas2_noRW	acq23456_noRW	2	25	0	0	300	300	398	50	0	1	1	blank2r.bmp	0	1	+	0	1	blank2r.bmp	252	1	LWWL	306	2	vertrauen	559	0	0	0	0	0	0	0	0	0	0	0	0	0	0	0	0	0	0	0	0	0	0	0	0	0	0	0	0	0	0	0	0	0	0	0	0	0	0	0
070319	13:33:00	13:37:10	249218	5.0.10.0	5_exp_noRW	12	Rpleas_acq	CS_A	CPPC	LWWL	JQQJ	YFFY	DXXD	ZHHZ	genießen	träumen	sonnig	küssen	vertrauen	gütig	gemein	töten	sterben	krank	versagen	gierig	47pct	acq_USpleas_CSpleas1_noRW	acq23456_noRW	2	26	0	0	300	300	427	50	0	1	1	blank2r.bmp	0	1	+	0	1	blank2r.bmp	252	1	CPPC	306	2	träumen	559	0	0	0	0	0	0	0	0	0	0	0	0	0	0	0	0	0	0	0	0	0	0	0	0	0	0	0	0	0	0	0	0	0	0	0	0	0	0	0
070319	13:33:00	13:37:12	251084	5.0.10.0	5_exp_noRW	12	Rpleas_acq	CS_A	CPPC	LWWL	JQQJ	YFFY	DXXD	ZHHZ	genießen	träumen	sonnig	küssen	vertrauen	gütig	gemein	töten	sterben	krank	versagen	gierig	53pct	acq_USpleas_CSpleas1_noRW	acq23456_noRW	2	27	0	0	300	300	698	50	0	1	1	blank2r.bmp	0	1	+	0	1	blank2r.bmp	252	1	CPPC	306	1	genießen	559	0	0	0	0	0	0	0	0	0	0	0	0	0	0	0	0	0	0	0	0	0	0	0	0	0	0	0	0	0	0	0	0	0	0	0	0	0	0	0
070319	13:33:00	13:37:14	252643	5.0.10.0	5_exp_noRW	12	Rpleas_acq	CS_A	CPPC	LWWL	JQQJ	YFFY	DXXD	ZHHZ	genießen	träumen	sonnig	küssen	vertrauen	gütig	gemein	töten	sterben	krank	versagen	gierig	47pct	acq_USpleas_CSpleas2_noRW	acq23456_noRW	2	28	0	0	300	300	381	50	0	1	1	blank2r.bmp	0	1	+	0	1	blank2r.bmp	252	1	LWWL	306	1	küssen	559	0	0	0	0	0	0	0	0	0	0	0	0	0	0	0	0	0	0	0	0	0	0	0	0	0	0	0	0	0	0	0	0	0	0	0	0	0	0	0
070319	13:33:00	13:37:15	254242	5.0.10.0	5_exp_noRW	12	Rpleas_acq	CS_A	CPPC	LWWL	JQQJ	YFFY	DXXD	ZHHZ	genießen	träumen	sonnig	küssen	vertrauen	gütig	gemein	töten	sterben	krank	versagen	gierig	53pct	acq_USpleas_CSpleas1_noRW	acq23456_noRW	2	29	0	0	300	300	423	50	0	1	1	blank2r.bmp	0	1	+	0	1	blank2r.bmp	252	1	CPPC	306	2	träumen	559	0	0	0	0	0	0	0	0	0	0	0	0	0	0	0	0	0	0	0	0	0	0	0	0	0	0	0	0	0	0	0	0	0	0	0	0	0	0	0
070319	13:33:00	13:37:17	255882	5.0.10.0	5_exp_noRW	12	Rpleas_acq	CS_A	CPPC	LWWL	JQQJ	YFFY	DXXD	ZHHZ	genießen	träumen	sonnig	küssen	vertrauen	gütig	gemein	töten	sterben	krank	versagen	gierig	53pct	acq_USunple_CSunple1_noRW	acq23456_noRW	2	30	0	0	300	300	475	46	0	1	1	blank2r.bmp	0	1	+	0	1	blank2r.bmp	252	1	JQQJ	306	1	gemein	559	0	0	0	0	0	0	0	0	0	0	0	0	0	0	0	0	0	0	0	0	0	0	0	0	0	0	0	0	0	0	0	0	0	0	0	0	0	0	0
070319	13:33:00	13:37:18	257481	5.0.10.0	5_exp_noRW	12	Rpleas_acq	CS_A	CPPC	LWWL	JQQJ	YFFY	DXXD	ZHHZ	genießen	träumen	sonnig	küssen	vertrauen	gütig	gemein	töten	sterben	krank	versagen	gierig	47pct	acq_USpleas_CSpleas1_noRW	acq23456_noRW	2	31	0	0	300	300	432	50	0	1	1	blank2r.bmp	0	1	+	0	1	blank2r.bmp	252	1	CPPC	306	3	sonnig	559	0	0	0	0	0	0	0	0	0	0	0	0	0	0	0	0	0	0	0	0	0	0	0	0	0	0	0	0	0	0	0	0	0	0	0	0	0	0	0
070319	13:33:00	13:37:20	259187	5.0.10.0	5_exp_noRW	12	Rpleas_acq	CS_A	CPPC	LWWL	JQQJ	YFFY	DXXD	ZHHZ	genießen	träumen	sonnig	küssen	vertrauen	gütig	gemein	töten	sterben	krank	versagen	gierig	53pct	acq_USpleas_CSunple2_noRW	acq23456_noRW	2	32	0	0	300	300	522	50	0	1	1	blank2r.bmp	0	1	+	0	1	blank2r.bmp	252	1	YFFY	306	3	gütig	559	0	0	0	0	0	0	0	0	0	0	0	0	0	0	0	0	0	0	0	0	0	0	0	0	0	0	0	0	0	0	0	0	0	0	0	0	0	0	0
070319	13:33:00	13:37:22	260666	5.0.10.0	5_exp_noRW	12	Rpleas_acq	CS_A	CPPC	LWWL	JQQJ	YFFY	DXXD	ZHHZ	genießen	träumen	sonnig	küssen	vertrauen	gütig	gemein	töten	sterben	krank	versagen	gierig	47pct	acq_USpleas_CSpleas2_noRW	acq23456_noRW	2	33	0	0	300	300	311	50	0	1	1	blank2r.bmp	0	1	+	0	1	blank2r.bmp	252	1	LWWL	306	3	gütig	559	0	0	0	0	0	0	0	0	0	0	0	0	0	0	0	0	0	0	0	0	0	0	0	0	0	0	0	0	0	0	0	0	0	0	0	0	0	0	0
070319	13:33:00	13:37:23	262252	5.0.10.0	5_exp_noRW	12	Rpleas_acq	CS_A	CPPC	LWWL	JQQJ	YFFY	DXXD	ZHHZ	genießen	träumen	sonnig	küssen	vertrauen	gütig	gemein	töten	sterben	krank	versagen	gierig	53pct	acq_USunple_CSunple2_noRW	acq23456_noRW	2	34	0	0	300	300	408	46	0	1	1	blank2r.bmp	0	1	+	0	1	blank2r.bmp	252	1	YFFY	306	2	versagen	559	0	0	0	0	0	0	0	0	0	0	0	0	0	0	0	0	0	0	0	0	0	0	0	0	0	0	0	0	0	0	0	0	0	0	0	0	0	0	0
070319	13:33:00	13:37:25	263945	5.0.10.0	5_exp_noRW	12	Rpleas_acq	CS_A	CPPC	LWWL	JQQJ	YFFY	DXXD	ZHHZ	genießen	träumen	sonnig	küssen	vertrauen	gütig	gemein	töten	sterben	krank	versagen	gierig	47pct	acq_USunple_CSpleas2_noRW	acq23456_noRW	2	35	0	0	300	300	514	46	0	1	1	blank2r.bmp	0	1	+	0	1	blank2r.bmp	252	1	LWWL	306	1	krank	559	0	0	0	0	0	0	0	0	0	0	0	0	0	0	0	0	0	0	0	0	0	0	0	0	0	0	0	0	0	0	0	0	0	0	0	0	0	0	0
070319	13:33:00	13:37:26	265571	5.0.10.0	5_exp_noRW	12	Rpleas_acq	CS_A	CPPC	LWWL	JQQJ	YFFY	DXXD	ZHHZ	genießen	träumen	sonnig	küssen	vertrauen	gütig	gemein	töten	sterben	krank	versagen	gierig	53pct	acq_USunple_CSunple2_noRW	acq23456_noRW	2	36	0	0	300	300	464	46	0	1	1	blank2r.bmp	0	1	+	0	1	blank2r.bmp	252	1	YFFY	306	1	krank	559	0	0	0	0	0	0	0	0	0	0	0	0	0	0	0	0	0	0	0	0	0	0	0	0	0	0	0	0	0	0	0	0	0	0	0	0	0	0	0
070319	13:33:00	13:37:28	267450	5.0.10.0	5_exp_noRW	12	Rpleas_acq	CS_A	CPPC	LWWL	JQQJ	YFFY	DXXD	ZHHZ	genießen	träumen	sonnig	küssen	vertrauen	gütig	gemein	töten	sterben	krank	versagen	gierig	53pct	acq_USunple_CSpleas1_noRW	acq23456_noRW	2	37	0	0	300	300	698	46	0	1	1	blank2r.bmp	0	1	+	0	1	blank2r.bmp	252	1	CPPC	306	1	gemein	559	0	0	0	0	0	0	0	0	0	0	0	0	0	0	0	0	0	0	0	0	0	0	0	0	0	0	0	0	0	0	0	0	0	0	0	0	0	0	0
070319	13:33:00	13:37:30	269143	5.0.10.0	5_exp_noRW	12	Rpleas_acq	CS_A	CPPC	LWWL	JQQJ	YFFY	DXXD	ZHHZ	genießen	träumen	sonnig	küssen	vertrauen	gütig	gemein	töten	sterben	krank	versagen	gierig	53pct	acq_USunple_CSunple2_noRW	acq23456_noRW	2	38	0	0	300	300	516	46	0	1	1	blank2r.bmp	0	1	+	0	1	blank2r.bmp	252	1	YFFY	306	3	gierig	559	0	0	0	0	0	0	0	0	0	0	0	0	0	0	0	0	0	0	0	0	0	0	0	0	0	0	0	0	0	0	0	0	0	0	0	0	0	0	0
070319	13:33:00	13:37:32	270889	5.0.10.0	5_exp_noRW	12	Rpleas_acq	CS_A	CPPC	LWWL	JQQJ	YFFY	DXXD	ZHHZ	genießen	träumen	sonnig	küssen	vertrauen	gütig	gemein	töten	sterben	krank	versagen	gierig	53pct	acq_USunple_CSunple1_noRW	acq23456_noRW	2	39	0	0	300	300	559	46	0	1	1	blank2r.bmp	0	1	+	0	1	blank2r.bmp	252	1	JQQJ	306	2	töten	559	0	0	0	0	0	0	0	0	0	0	0	0	0	0	0	0	0	0	0	0	0	0	0	0	0	0	0	0	0	0	0	0	0	0	0	0	0	0	0
070319	13:33:00	13:37:33	272368	5.0.10.0	5_exp_noRW	12	Rpleas_acq	CS_A	CPPC	LWWL	JQQJ	YFFY	DXXD	ZHHZ	genießen	träumen	sonnig	küssen	vertrauen	gütig	gemein	töten	sterben	krank	versagen	gierig	53pct	acq_USpleas_CSunple1_noRW	acq23456_noRW	2	40	0	0	300	300	311	50	0	1	1	blank2r.bmp	0	1	+	0	1	blank2r.bmp	252	1	JQQJ	306	1	genießen	559	0	0	0	0	0	0	0	0	0	0	0	0	0	0	0	0	0	0	0	0	0	0	0	0	0	0	0	0	0	0	0	0	0	0	0	0	0	0	0
070319	13:33:00	13:37:35	274074	5.0.10.0	5_exp_noRW	12	Rpleas_acq	CS_A	CPPC	LWWL	JQQJ	YFFY	DXXD	ZHHZ	genießen	träumen	sonnig	küssen	vertrauen	gütig	gemein	töten	sterben	krank	versagen	gierig	47pct	acq_USunple_CSunple2_noRW	acq23456_noRW	2	41	0	0	300	300	540	46	0	1	1	blank2r.bmp	0	1	+	0	1	blank2r.bmp	252	1	YFFY	306	2	versagen	559	0	0	0	0	0	0	0	0	0	0	0	0	0	0	0	0	0	0	0	0	0	0	0	0	0	0	0	0	0	0	0	0	0	0	0	0	0	0	0
070319	13:33:00	13:37:37	275833	5.0.10.0	5_exp_noRW	12	Rpleas_acq	CS_A	CPPC	LWWL	JQQJ	YFFY	DXXD	ZHHZ	genießen	träumen	sonnig	küssen	vertrauen	gütig	gemein	töten	sterben	krank	versagen	gierig	53pct	acq_USpleas_CSpleas1_noRW	acq23456_noRW	2	42	0	0	300	300	370	46	0	0	1	blank2r.bmp	0	1	+	0	1	blank2r.bmp	252	1	CPPC	306	2	träumen	559	1	FEHLER	959	0	0	0	0	0	0	0	0	0	0	0	0	0	0	0	0	0	0	0	0	0	0	0	0	0	0	0	0	0	0	0	0	0	0	0	0
070319	13:33:00	13:37:38	277633	5.0.10.0	5_exp_noRW	12	Rpleas_acq	CS_A	CPPC	LWWL	JQQJ	YFFY	DXXD	ZHHZ	genießen	träumen	sonnig	küssen	vertrauen	gütig	gemein	töten	sterben	krank	versagen	gierig	53pct	acq_USunple_CSunple1_noRW	acq23456_noRW	2	43	0	0	300	300	837	46	0	1	1	blank2r.bmp	0	1	+	0	1	blank2r.bmp	252	1	JQQJ	306	2	töten	559	0	0	0	0	0	0	0	0	0	0	0	0	0	0	0	0	0	0	0	0	0	0	0	0	0	0	0	0	0	0	0	0	0	0	0	0	0	0	0
070319	13:33:00	13:37:40	279125	5.0.10.0	5_exp_noRW	12	Rpleas_acq	CS_A	CPPC	LWWL	JQQJ	YFFY	DXXD	ZHHZ	genießen	träumen	sonnig	küssen	vertrauen	gütig	gemein	töten	sterben	krank	versagen	gierig	47pct	acq_USpleas_CSpleas2_noRW	acq23456_noRW	2	44	0	0	300	300	314	50	0	1	1	blank2r.bmp	0	1	+	0	1	blank2r.bmp	252	1	LWWL	306	1	küssen	559	0	0	0	0	0	0	0	0	0	0	0	0	0	0	0	0	0	0	0	0	0	0	0	0	0	0	0	0	0	0	0	0	0	0	0	0	0	0	0
070319	13:33:00	13:37:42	280831	5.0.10.0	5_exp_noRW	12	Rpleas_acq	CS_A	CPPC	LWWL	JQQJ	YFFY	DXXD	ZHHZ	genießen	träumen	sonnig	küssen	vertrauen	gütig	gemein	töten	sterben	krank	versagen	gierig	53pct	acq_USpleas_CSpleas1_noRW	acq23456_noRW	2	45	0	0	300	300	535	50	0	1	1	blank2r.bmp	0	1	+	0	1	blank2r.bmp	252	1	CPPC	306	3	sonnig	559	0	0	0	0	0	0	0	0	0	0	0	0	0	0	0	0	0	0	0	0	0	0	0	0	0	0	0	0	0	0	0	0	0	0	0	0	0	0	0
070319	13:33:00	13:37:43	282577	5.0.10.0	5_exp_noRW	12	Rpleas_acq	CS_A	CPPC	LWWL	JQQJ	YFFY	DXXD	ZHHZ	genießen	träumen	sonnig	küssen	vertrauen	gütig	gemein	töten	sterben	krank	versagen	gierig	53pct	acq_USpleas_CSunple1_noRW	acq23456_noRW	2	46	0	0	300	300	367	46	0	0	1	blank2r.bmp	0	1	+	0	1	blank2r.bmp	252	1	JQQJ	306	1	genießen	559	1	FEHLER	959	0	0	0	0	0	0	0	0	0	0	0	0	0	0	0	0	0	0	0	0	0	0	0	0	0	0	0	0	0	0	0	0	0	0	0	0
070319	13:33:00	13:37:45	283977	5.0.10.0	5_exp_noRW	12	Rpleas_acq	CS_A	CPPC	LWWL	JQQJ	YFFY	DXXD	ZHHZ	genießen	träumen	sonnig	küssen	vertrauen	gütig	gemein	töten	sterben	krank	versagen	gierig	53pct	acq_USpleas_CSpleas2_noRW	acq23456_noRW	2	47	0	0	300	300	432	50	0	1	1	blank2r.bmp	0	1	+	0	1	blank2r.bmp	252	1	LWWL	306	2	vertrauen	559	0	0	0	0	0	0	0	0	0	0	0	0	0	0	0	0	0	0	0	0	0	0	0	0	0	0	0	0	0	0	0	0	0	0	0	0	0	0	0
070319	13:33:00	13:37:46	285403	5.0.10.0	5_exp_noRW	12	Rpleas_acq	CS_A	CPPC	LWWL	JQQJ	YFFY	DXXD	ZHHZ	genießen	träumen	sonnig	küssen	vertrauen	gütig	gemein	töten	sterben	krank	versagen	gierig	53pct	acq_USpleas_CSunple2_noRW	acq23456_noRW	2	48	0	0	300	300	264	50	0	1	1	blank2r.bmp	0	1	+	0	1	blank2r.bmp	252	1	YFFY	306	2	vertrauen	559	0	0	0	0	0	0	0	0	0	0	0	0	0	0	0	0	0	0	0	0	0	0	0	0	0	0	0	0	0	0	0	0	0	0	0	0	0	0	0
070319	13:33:00	13:37:48	287029	5.0.10.0	5_exp_noRW	12	Rpleas_acq	CS_A	CPPC	LWWL	JQQJ	YFFY	DXXD	ZHHZ	genießen	träumen	sonnig	küssen	vertrauen	gütig	gemein	töten	sterben	krank	versagen	gierig	47pct	acq_USpleas_CSpleas2_noRW	acq23456_noRW	2	49	0	0	300	300	443	50	0	1	1	blank2r.bmp	0	1	+	0	1	blank2r.bmp	252	1	LWWL	306	3	gütig	559	0	0	0	0	0	0	0	0	0	0	0	0	0	0	0	0	0	0	0	0	0	0	0	0	0	0	0	0	0	0	0	0	0	0	0	0	0	0	0
070319	13:33:00	13:37:49	288615	5.0.10.0	5_exp_noRW	12	Rpleas_acq	CS_A	CPPC	LWWL	JQQJ	YFFY	DXXD	ZHHZ	genießen	träumen	sonnig	küssen	vertrauen	gütig	gemein	töten	sterben	krank	versagen	gierig	47pct	acq_USunple_CSpleas2_noRW	acq23456_noRW	2	50	0	0	300	300	405	46	0	1	1	blank2r.bmp	0	1	+	0	1	blank2r.bmp	252	1	LWWL	306	1	krank	559	0	0	0	0	0	0	0	0	0	0	0	0	0	0	0	0	0	0	0	0	0	0	0	0	0	0	0	0	0	0	0	0	0	0	0	0	0	0	0
070319	13:33:00	13:37:51	290121	5.0.10.0	5_exp_noRW	12	Rpleas_acq	CS_A	CPPC	LWWL	JQQJ	YFFY	DXXD	ZHHZ	genießen	träumen	sonnig	küssen	vertrauen	gütig	gemein	töten	sterben	krank	versagen	gierig	47pct	acq_USpleas_CSpleas1_noRW	acq23456_noRW	2	51	0	0	300	300	330	50	0	1	1	blank2r.bmp	0	1	+	0	1	blank2r.bmp	252	1	CPPC	306	1	genießen	559	0	0	0	0	0	0	0	0	0	0	0	0	0	0	0	0	0	0	0	0	0	0	0	0	0	0	0	0	0	0	0	0	0	0	0	0	0	0	0
070319	13:33:00	13:37:53	291814	5.0.10.0	5_exp_noRW	12	Rpleas_acq	CS_A	CPPC	LWWL	JQQJ	YFFY	DXXD	ZHHZ	genießen	träumen	sonnig	küssen	vertrauen	gütig	gemein	töten	sterben	krank	versagen	gierig	53pct	acq_USunple_CSunple1_noRW	acq23456_noRW	2	52	0	0	300	300	531	46	0	1	1	blank2r.bmp	0	1	+	0	1	blank2r.bmp	252	1	JQQJ	306	1	gemein	559	0	0	0	0	0	0	0	0	0	0	0	0	0	0	0	0	0	0	0	0	0	0	0	0	0	0	0	0	0	0	0	0	0	0	0	0	0	0	0
070319	13:33:00	13:37:54	293346	5.0.10.0	5_exp_noRW	12	Rpleas_acq	CS_A	CPPC	LWWL	JQQJ	YFFY	DXXD	ZHHZ	genießen	träumen	sonnig	küssen	vertrauen	gütig	gemein	töten	sterben	krank	versagen	gierig	53pct	acq_USunple_CSunple2_noRW	acq23456_noRW	2	53	0	0	300	300	357	46	0	1	1	blank2r.bmp	0	1	+	0	1	blank2r.bmp	252	1	YFFY	306	3	gierig	559	0	0	0	0	0	0	0	0	0	0	0	0	0	0	0	0	0	0	0	0	0	0	0	0	0	0	0	0	0	0	0	0	0	0	0	0	0	0	0
070319	13:33:00	13:37:56	295026	5.0.10.0	5_exp_noRW	12	Rpleas_acq	CS_A	CPPC	LWWL	JQQJ	YFFY	DXXD	ZHHZ	genießen	träumen	sonnig	küssen	vertrauen	gütig	gemein	töten	sterben	krank	versagen	gierig	47pct	acq_USunple_CSunple1_noRW	acq23456_noRW	2	54	0	0	300	300	289	50	0	0	1	blank2r.bmp	0	1	+	0	1	blank2r.bmp	252	1	JQQJ	306	3	sterben	559	1	FEHLER	879	0	0	0	0	0	0	0	0	0	0	0	0	0	0	0	0	0	0	0	0	0	0	0	0	0	0	0	0	0	0	0	0	0	0	0	0
070319	13:33:00	13:37:57	296372	5.0.10.0	5_exp_noRW	12	Rpleas_acq	CS_A	CPPC	LWWL	JQQJ	YFFY	DXXD	ZHHZ	genießen	träumen	sonnig	küssen	vertrauen	gütig	gemein	töten	sterben	krank	versagen	gierig	53pct	acq_USpleas_CSpleas1_noRW	acq23456_noRW	2	55	0	0	300	300	377	50	0	1	1	blank2r.bmp	0	1	+	0	1	blank2r.bmp	252	1	CPPC	306	2	träumen	559	0	0	0	0	0	0	0	0	0	0	0	0	0	0	0	0	0	0	0	0	0	0	0	0	0	0	0	0	0	0	0	0	0	0	0	0	0	0	0
070319	13:33:00	13:37:59	298011	5.0.10.0	5_exp_noRW	12	Rpleas_acq	CS_A	CPPC	LWWL	JQQJ	YFFY	DXXD	ZHHZ	genießen	träumen	sonnig	küssen	vertrauen	gütig	gemein	töten	sterben	krank	versagen	gierig	53pct	acq_USunple_CSpleas1_noRW	acq23456_noRW	2	56	0	0	300	300	454	46	0	1	1	blank2r.bmp	0	1	+	0	1	blank2r.bmp	252	1	CPPC	306	1	gemein	559	0	0	0	0	0	0	0	0	0	0	0	0	0	0	0	0	0	0	0	0	0	0	0	0	0	0	0	0	0	0	0	0	0	0	0	0	0	0	0
070319	13:33:00	13:38:00	299624	5.0.10.0	5_exp_noRW	12	Rpleas_acq	CS_A	CPPC	LWWL	JQQJ	YFFY	DXXD	ZHHZ	genießen	träumen	sonnig	küssen	vertrauen	gütig	gemein	töten	sterben	krank	versagen	gierig	47pct	acq_USunple_CSunple2_noRW	acq23456_noRW	2	57	0	0	300	300	428	46	0	1	1	blank2r.bmp	0	1	+	0	1	blank2r.bmp	252	1	YFFY	306	1	krank	559	0	0	0	0	0	0	0	0	0	0	0	0	0	0	0	0	0	0	0	0	0	0	0	0	0	0	0	0	0	0	0	0	0	0	0	0	0	0	0
070319	13:33:00	13:38:02	301183	5.0.10.0	5_exp_noRW	12	Rpleas_acq	CS_A	CPPC	LWWL	JQQJ	YFFY	DXXD	ZHHZ	genießen	träumen	sonnig	küssen	vertrauen	gütig	gemein	töten	sterben	krank	versagen	gierig	47pct	acq_USunple_CSunple2_noRW	acq23456_noRW	2	58	0	0	300	300	397	46	0	1	1	blank2r.bmp	0	1	+	0	1	blank2r.bmp	252	1	YFFY	306	3	gierig	559	0	0	0	0	0	0	0	0	0	0	0	0	0	0	0	0	0	0	0	0	0	0	0	0	0	0	0	0	0	0	0	0	0	0	0	0	0	0	0
070319	13:33:00	13:38:04	302809	5.0.10.0	5_exp_noRW	12	Rpleas_acq	CS_A	CPPC	LWWL	JQQJ	YFFY	DXXD	ZHHZ	genießen	träumen	sonnig	küssen	vertrauen	gütig	gemein	töten	sterben	krank	versagen	gierig	47pct	acq_USunple_CSunple1_noRW	acq23456_noRW	2	59	0	0	300	300	439	46	0	1	1	blank2r.bmp	0	1	+	0	1	blank2r.bmp	252	1	JQQJ	306	3	sterben	559	0	0	0	0	0	0	0	0	0	0	0	0	0	0	0	0	0	0	0	0	0	0	0	0	0	0	0	0	0	0	0	0	0	0	0	0	0	0	0
070319	13:33:00	13:38:05	304302	5.0.10.0	5_exp_noRW	12	Rpleas_acq	CS_A	CPPC	LWWL	JQQJ	YFFY	DXXD	ZHHZ	genießen	träumen	sonnig	küssen	vertrauen	gütig	gemein	töten	sterben	krank	versagen	gierig	53pct	acq_USpleas_CSpleas2_noRW	acq23456_noRW	2	60	0	0	300	300	328	50	0	1	1	blank2r.bmp	0	1	+	0	1	blank2r.bmp	252	1	LWWL	306	3	gütig	559	0	0	0	0	0	0	0	0	0	0	0	0	0	0	0	0	0	0	0	0	0	0	0	0	0	0	0	0	0	0	0	0	0	0	0	0	0	0	0
070319	13:33:00	13:38:07	305808	5.0.10.0	5_exp_noRW	12	Rpleas_acq	CS_A	CPPC	LWWL	JQQJ	YFFY	DXXD	ZHHZ	genießen	träumen	sonnig	küssen	vertrauen	gütig	gemein	töten	sterben	krank	versagen	gierig	53pct	acq_USunple_CSunple2_noRW	acq23456_noRW	2	61	0	0	300	300	339	46	0	1	1	blank2r.bmp	0	1	+	0	1	blank2r.bmp	252	1	YFFY	306	1	krank	559	0	0	0	0	0	0	0	0	0	0	0	0	0	0	0	0	0	0	0	0	0	0	0	0	0	0	0	0	0	0	0	0	0	0	0	0	0	0	0
070319	13:33:00	13:38:08	307487	5.0.10.0	5_exp_noRW	12	Rpleas_acq	CS_A	CPPC	LWWL	JQQJ	YFFY	DXXD	ZHHZ	genießen	träumen	sonnig	küssen	vertrauen	gütig	gemein	töten	sterben	krank	versagen	gierig	47pct	acq_USunple_CSpleas2_noRW	acq23456_noRW	2	62	0	0	300	300	497	46	0	1	1	blank2r.bmp	0	1	+	0	1	blank2r.bmp	252	1	LWWL	306	2	versagen	559	0	0	0	0	0	0	0	0	0	0	0	0	0	0	0	0	0	0	0	0	0	0	0	0	0	0	0	0	0	0	0	0	0	0	0	0	0	0	0
070319	13:33:00	13:38:10	309166	5.0.10.0	5_exp_noRW	12	Rpleas_acq	CS_A	CPPC	LWWL	JQQJ	YFFY	DXXD	ZHHZ	genießen	träumen	sonnig	küssen	vertrauen	gütig	gemein	töten	sterben	krank	versagen	gierig	47pct	acq_USpleas_CSunple2_noRW	acq23456_noRW	2	63	0	0	300	300	297	46	0	0	1	blank2r.bmp	0	1	+	0	1	blank2r.bmp	252	1	YFFY	306	1	küssen	559	1	FEHLER	892	0	0	0	0	0	0	0	0	0	0	0	0	0	0	0	0	0	0	0	0	0	0	0	0	0	0	0	0	0	0	0	0	0	0	0	0
070319	13:33:00	13:38:11	310486	5.0.10.0	5_exp_noRW	12	Rpleas_acq	CS_A	CPPC	LWWL	JQQJ	YFFY	DXXD	ZHHZ	genießen	träumen	sonnig	küssen	vertrauen	gütig	gemein	töten	sterben	krank	versagen	gierig	47pct	acq_USunple_CSunple1_noRW	acq23456_noRW	2	64	0	0	300	300	367	46	0	1	1	blank2r.bmp	0	1	+	0	1	blank2r.bmp	252	1	JQQJ	306	2	töten	559	0	0	0	0	0	0	0	0	0	0	0	0	0	0	0	0	0	0	0	0	0	0	0	0	0	0	0	0	0	0	0	0	0	0	0	0	0	0	0
070319	13:33:00	13:38:13	312045	5.0.10.0	5_exp_noRW	12	Rpleas_acq	CS_A	CPPC	LWWL	JQQJ	YFFY	DXXD	ZHHZ	genießen	träumen	sonnig	küssen	vertrauen	gütig	gemein	töten	sterben	krank	versagen	gierig	47pct	acq_USunple_CSunple1_noRW	acq23456_noRW	2	65	0	0	300	300	384	46	0	1	1	blank2r.bmp	0	1	+	0	1	blank2r.bmp	252	1	JQQJ	306	1	gemein	559	0	0	0	0	0	0	0	0	0	0	0	0	0	0	0	0	0	0	0	0	0	0	0	0	0	0	0	0	0	0	0	0	0	0	0	0	0	0	0
070319	13:33:00	13:38:15	313631	5.0.10.0	5_exp_noRW	12	Rpleas_acq	CS_A	CPPC	LWWL	JQQJ	YFFY	DXXD	ZHHZ	genießen	träumen	sonnig	küssen	vertrauen	gütig	gemein	töten	sterben	krank	versagen	gierig	47pct	acq_USpleas_CSpleas1_noRW	acq23456_noRW	2	66	0	0	300	300	409	50	0	1	1	blank2r.bmp	0	1	+	0	1	blank2r.bmp	252	1	CPPC	306	3	sonnig	559	0	0	0	0	0	0	0	0	0	0	0	0	0	0	0	0	0	0	0	0	0	0	0	0	0	0	0	0	0	0	0	0	0	0	0	0	0	0	0
070319	13:33:00	13:38:16	315351	5.0.10.0	5_exp_noRW	12	Rpleas_acq	CS_A	CPPC	LWWL	JQQJ	YFFY	DXXD	ZHHZ	genießen	träumen	sonnig	küssen	vertrauen	gütig	gemein	töten	sterben	krank	versagen	gierig	47pct	acq_USpleas_CSpleas1_noRW	acq23456_noRW	2	67	0	0	300	300	334	46	0	0	1	blank2r.bmp	0	1	+	0	1	blank2r.bmp	252	1	CPPC	306	1	genießen	559	1	FEHLER	932	0	0	0	0	0	0	0	0	0	0	0	0	0	0	0	0	0	0	0	0	0	0	0	0	0	0	0	0	0	0	0	0	0	0	0	0
070319	13:33:00	13:38:18	316990	5.0.10.0	5_exp_noRW	12	Rpleas_acq	CS_A	CPPC	LWWL	JQQJ	YFFY	DXXD	ZHHZ	genießen	träumen	sonnig	küssen	vertrauen	gütig	gemein	töten	sterben	krank	versagen	gierig	53pct	acq_USpleas_CSunple1_noRW	acq23456_noRW	2	68	0	0	300	300	465	46	0	0	1	blank2r.bmp	0	1	+	0	1	blank2r.bmp	252	1	JQQJ	306	3	sonnig	559	1	FEHLER	1066	0	0	0	0	0	0	0	0	0	0	0	0	0	0	0	0	0	0	0	0	0	0	0	0	0	0	0	0	0	0	0	0	0	0	0	0
070319	13:33:00	13:38:19	318443	5.0.10.0	5_exp_noRW	12	Rpleas_acq	CS_A	CPPC	LWWL	JQQJ	YFFY	DXXD	ZHHZ	genießen	träumen	sonnig	küssen	vertrauen	gütig	gemein	töten	sterben	krank	versagen	gierig	47pct	acq_USpleas_CSpleas2_noRW	acq23456_noRW	2	69	0	0	300	300	491	50	0	1	1	blank2r.bmp	0	1	+	0	1	blank2r.bmp	252	1	LWWL	306	2	vertrauen	559	0	0	0	0	0	0	0	0	0	0	0	0	0	0	0	0	0	0	0	0	0	0	0	0	0	0	0	0	0	0	0	0	0	0	0	0	0	0	0
070319	13:33:00	13:38:21	320109	5.0.10.0	5_exp_noRW	12	Rpleas_acq	CS_A	CPPC	LWWL	JQQJ	YFFY	DXXD	ZHHZ	genießen	träumen	sonnig	küssen	vertrauen	gütig	gemein	töten	sterben	krank	versagen	gierig	47pct	acq_USunple_CSunple1_noRW	acq23456_noRW	2	70	0	0	300	300	499	46	0	1	1	blank2r.bmp	0	1	+	0	1	blank2r.bmp	252	1	JQQJ	306	1	gemein	559	0	0	0	0	0	0	0	0	0	0	0	0	0	0	0	0	0	0	0	0	0	0	0	0	0	0	0	0	0	0	0	0	0	0	0	0	0	0	0
070319	13:33:00	13:38:23	321868	5.0.10.0	5_exp_noRW	12	Rpleas_acq	CS_A	CPPC	LWWL	JQQJ	YFFY	DXXD	ZHHZ	genießen	träumen	sonnig	küssen	vertrauen	gütig	gemein	töten	sterben	krank	versagen	gierig	47pct	acq_USunple_CSunple2_noRW	acq23456_noRW	2	71	0	0	300	300	379	50	0	0	1	blank2r.bmp	0	1	+	0	1	blank2r.bmp	252	1	YFFY	306	2	versagen	559	1	FEHLER	972	0	0	0	0	0	0	0	0	0	0	0	0	0	0	0	0	0	0	0	0	0	0	0	0	0	0	0	0	0	0	0	0	0	0	0	0
070319	13:33:00	13:38:24	323227	5.0.10.0	5_exp_noRW	12	Rpleas_acq	CS_A	CPPC	LWWL	JQQJ	YFFY	DXXD	ZHHZ	genießen	träumen	sonnig	küssen	vertrauen	gütig	gemein	töten	sterben	krank	versagen	gierig	53pct	acq_USpleas_CSpleas1_noRW	acq23456_noRW	2	72	0	0	300	300	393	50	0	1	1	blank2r.bmp	0	1	+	0	1	blank2r.bmp	252	1	CPPC	306	2	träumen	559	0	0	0	0	0	0	0	0	0	0	0	0	0	0	0	0	0	0	0	0	0	0	0	0	0	0	0	0	0	0	0	0	0	0	0	0	0	0	0
070319	13:33:00	13:38:26	324880	5.0.10.0	5_exp_noRW	12	Rpleas_acq	CS_A	CPPC	LWWL	JQQJ	YFFY	DXXD	ZHHZ	genießen	träumen	sonnig	küssen	vertrauen	gütig	gemein	töten	sterben	krank	versagen	gierig	53pct	acq_USunple_CSunple1_noRW	acq23456_noRW	2	73	0	0	300	300	479	46	0	1	1	blank2r.bmp	0	1	+	0	1	blank2r.bmp	252	1	JQQJ	306	2	töten	559	0	0	0	0	0	0	0	0	0	0	0	0	0	0	0	0	0	0	0	0	0	0	0	0	0	0	0	0	0	0	0	0	0	0	0	0	0	0	0
070319	13:33:00	13:38:28	326639	5.0.10.0	5_exp_noRW	12	Rpleas_acq	CS_A	CPPC	LWWL	JQQJ	YFFY	DXXD	ZHHZ	genießen	träumen	sonnig	küssen	vertrauen	gütig	gemein	töten	sterben	krank	versagen	gierig	47pct	acq_USunple_CSunple2_noRW	acq23456_noRW	2	74	0	0	300	300	586	46	0	1	1	blank2r.bmp	0	1	+	0	1	blank2r.bmp	252	1	YFFY	306	3	gierig	559	0	0	0	0	0	0	0	0	0	0	0	0	0	0	0	0	0	0	0	0	0	0	0	0	0	0	0	0	0	0	0	0	0	0	0	0	0	0	0
070319	13:33:00	13:38:29	328172	5.0.10.0	5_exp_noRW	12	Rpleas_acq	CS_A	CPPC	LWWL	JQQJ	YFFY	DXXD	ZHHZ	genießen	träumen	sonnig	küssen	vertrauen	gütig	gemein	töten	sterben	krank	versagen	gierig	47pct	acq_USpleas_CSpleas2_noRW	acq23456_noRW	2	75	0	0	300	300	349	50	0	1	1	blank2r.bmp	0	1	+	0	1	blank2r.bmp	252	1	LWWL	306	1	küssen	559	0	0	0	0	0	0	0	0	0	0	0	0	0	0	0	0	0	0	0	0	0	0	0	0	0	0	0	0	0	0	0	0	0	0	0	0	0	0	0
070319	13:33:00	13:38:31	329971	5.0.10.0	5_exp_noRW	12	Rpleas_acq	CS_A	CPPC	LWWL	JQQJ	YFFY	DXXD	ZHHZ	genießen	träumen	sonnig	küssen	vertrauen	gütig	gemein	töten	sterben	krank	versagen	gierig	53pct	acq_USpleas_CSpleas2_noRW	acq23456_noRW	2	76	0	0	300	300	636	50	0	1	1	blank2r.bmp	0	1	+	0	1	blank2r.bmp	252	1	LWWL	306	2	vertrauen	559	0	0	0	0	0	0	0	0	0	0	0	0	0	0	0	0	0	0	0	0	0	0	0	0	0	0	0	0	0	0	0	0	0	0	0	0	0	0	0
070319	13:33:00	13:38:33	331664	5.0.10.0	5_exp_noRW	12	Rpleas_acq	CS_A	CPPC	LWWL	JQQJ	YFFY	DXXD	ZHHZ	genießen	träumen	sonnig	küssen	vertrauen	gütig	gemein	töten	sterben	krank	versagen	gierig	53pct	acq_USpleas_CSpleas1_noRW	acq23456_noRW	2	77	0	0	300	300	507	50	0	1	1	blank2r.bmp	0	1	+	0	1	blank2r.bmp	252	1	CPPC	306	3	sonnig	559	0	0	0	0	0	0	0	0	0	0	0	0	0	0	0	0	0	0	0	0	0	0	0	0	0	0	0	0	0	0	0	0	0	0	0	0	0	0	0
070319	13:33:00	13:38:34	333237	5.0.10.0	5_exp_noRW	12	Rpleas_acq	CS_A	CPPC	LWWL	JQQJ	YFFY	DXXD	ZHHZ	genießen	träumen	sonnig	küssen	vertrauen	gütig	gemein	töten	sterben	krank	versagen	gierig	53pct	acq_USunple_CSpleas1_noRW	acq23456_noRW	2	78	0	0	300	300	411	46	0	1	1	blank2r.bmp	0	1	+	0	1	blank2r.bmp	252	1	CPPC	306	3	sterben	559	0	0	0	0	0	0	0	0	0	0	0	0	0	0	0	0	0	0	0	0	0	0	0	0	0	0	0	0	0	0	0	0	0	0	0	0	0	0	0
070319	13:33:00	13:38:36	335023	5.0.10.0	5_exp_noRW	12	Rpleas_acq	CS_A	CPPC	LWWL	JQQJ	YFFY	DXXD	ZHHZ	genießen	träumen	sonnig	küssen	vertrauen	gütig	gemein	töten	sterben	krank	versagen	gierig	53pct	acq_USunple_CSunple2_noRW	acq23456_noRW	2	79	0	0	300	300	604	46	0	1	1	blank2r.bmp	0	1	+	0	1	blank2r.bmp	252	1	YFFY	306	2	versagen	559	0	0	0	0	0	0	0	0	0	0	0	0	0	0	0	0	0	0	0	0	0	0	0	0	0	0	0	0	0	0	0	0	0	0	0	0	0	0	0
070319	13:33:00	13:38:38	336649	5.0.10.0	5_exp_noRW	12	Rpleas_acq	CS_A	CPPC	LWWL	JQQJ	YFFY	DXXD	ZHHZ	genießen	träumen	sonnig	küssen	vertrauen	gütig	gemein	töten	sterben	krank	versagen	gierig	53pct	acq_USpleas_CSpleas2_noRW	acq23456_noRW	2	80	0	0	300	300	455	50	0	1	1	blank2r.bmp	0	1	+	0	1	blank2r.bmp	252	1	LWWL	306	3	gütig	559	0	0	0	0	0	0	0	0	0	0	0	0	0	0	0	0	0	0	0	0	0	0	0	0	0	0	0	0	0	0	0	0	0	0	0	0	0	0	0
070319	13:33:00	13:38:51	350416	5.0.10.0	5_exp_noRW	12	Rpleas_acq	CS_A	CPPC	LWWL	JQQJ	YFFY	DXXD	ZHHZ	genießen	träumen	sonnig	küssen	vertrauen	gütig	gemein	töten	sterben	krank	versagen	gierig	47pct	acq_USpleas_CSpleas2_noRW	acq23456_noRW	3	1	0	0	300	300	501	50	0	1	1	blank2r.bmp	0	1	+	0	1	blank2r.bmp	252	1	LWWL	306	1	küssen	559	0	0	0	0	0	0	0	0	0	0	0	0	0	0	0	0	0	0	0	0	0	0	0	0	0	0	0	0	0	0	0	0	0	0	0	0	0	0	0
070319	13:33:00	13:38:53	351962	5.0.10.0	5_exp_noRW	12	Rpleas_acq	CS_A	CPPC	LWWL	JQQJ	YFFY	DXXD	ZHHZ	genießen	träumen	sonnig	küssen	vertrauen	gütig	gemein	töten	sterben	krank	versagen	gierig	53pct	acq_USunple_CSunple1_noRW	acq23456_noRW	3	2	0	0	300	300	385	46	0	1	1	blank2r.bmp	0	1	+	0	1	blank2r.bmp	252	1	JQQJ	306	3	sterben	559	0	0	0	0	0	0	0	0	0	0	0	0	0	0	0	0	0	0	0	0	0	0	0	0	0	0	0	0	0	0	0	0	0	0	0	0	0	0	0
070319	13:33:00	13:38:54	353562	5.0.10.0	5_exp_noRW	12	Rpleas_acq	CS_A	CPPC	LWWL	JQQJ	YFFY	DXXD	ZHHZ	genießen	träumen	sonnig	küssen	vertrauen	gütig	gemein	töten	sterben	krank	versagen	gierig	53pct	acq_USunple_CSunple2_noRW	acq23456_noRW	3	3	0	0	300	300	418	46	0	1	1	blank2r.bmp	0	1	+	0	1	blank2r.bmp	252	1	YFFY	306	1	krank	559	0	0	0	0	0	0	0	0	0	0	0	0	0	0	0	0	0	0	0	0	0	0	0	0	0	0	0	0	0	0	0	0	0	0	0	0	0	0	0
070319	13:33:00	13:38:56	355134	5.0.10.0	5_exp_noRW	12	Rpleas_acq	CS_A	CPPC	LWWL	JQQJ	YFFY	DXXD	ZHHZ	genießen	träumen	sonnig	küssen	vertrauen	gütig	gemein	töten	sterben	krank	versagen	gierig	47pct	acq_USpleas_CSpleas2_noRW	acq23456_noRW	3	4	0	0	300	300	397	50	0	1	1	blank2r.bmp	0	1	+	0	1	blank2r.bmp	252	1	LWWL	306	1	küssen	559	0	0	0	0	0	0	0	0	0	0	0	0	0	0	0	0	0	0	0	0	0	0	0	0	0	0	0	0	0	0	0	0	0	0	0	0	0	0	0
070319	13:33:00	13:38:57	356627	5.0.10.0	5_exp_noRW	12	Rpleas_acq	CS_A	CPPC	LWWL	JQQJ	YFFY	DXXD	ZHHZ	genießen	träumen	sonnig	küssen	vertrauen	gütig	gemein	töten	sterben	krank	versagen	gierig	53pct	acq_USunple_CSunple2_noRW	acq23456_noRW	3	5	0	0	300	300	313	46	0	1	1	blank2r.bmp	0	1	+	0	1	blank2r.bmp	252	1	YFFY	306	1	krank	559	0	0	0	0	0	0	0	0	0	0	0	0	0	0	0	0	0	0	0	0	0	0	0	0	0	0	0	0	0	0	0	0	0	0	0	0	0	0	0
070319	13:33:00	13:38:59	358293	5.0.10.0	5_exp_noRW	12	Rpleas_acq	CS_A	CPPC	LWWL	JQQJ	YFFY	DXXD	ZHHZ	genießen	träumen	sonnig	küssen	vertrauen	gütig	gemein	töten	sterben	krank	versagen	gierig	53pct	acq_USunple_CSpleas2_noRW	acq23456_noRW	3	6	0	0	300	300	496	46	0	1	1	blank2r.bmp	0	1	+	0	1	blank2r.bmp	252	1	LWWL	306	3	gierig	559	0	0	0	0	0	0	0	0	0	0	0	0	0	0	0	0	0	0	0	0	0	0	0	0	0	0	0	0	0	0	0	0	0	0	0	0	0	0	0
070319	13:33:00	13:39:01	360026	5.0.10.0	5_exp_noRW	12	Rpleas_acq	CS_A	CPPC	LWWL	JQQJ	YFFY	DXXD	ZHHZ	genießen	träumen	sonnig	küssen	vertrauen	gütig	gemein	töten	sterben	krank	versagen	gierig	47pct	acq_USunple_CSunple1_noRW	acq23456_noRW	3	7	0	0	300	300	570	46	0	1	1	blank2r.bmp	0	1	+	0	1	blank2r.bmp	252	1	JQQJ	306	2	töten	559	0	0	0	0	0	0	0	0	0	0	0	0	0	0	0	0	0	0	0	0	0	0	0	0	0	0	0	0	0	0	0	0	0	0	0	0	0	0	0
070319	13:33:00	13:39:02	361625	5.0.10.0	5_exp_noRW	12	Rpleas_acq	CS_A	CPPC	LWWL	JQQJ	YFFY	DXXD	ZHHZ	genießen	träumen	sonnig	küssen	vertrauen	gütig	gemein	töten	sterben	krank	versagen	gierig	53pct	acq_USunple_CSpleas1_noRW	acq23456_noRW	3	8	0	0	300	300	422	46	0	1	1	blank2r.bmp	0	1	+	0	1	blank2r.bmp	252	1	CPPC	306	2	töten	559	0	0	0	0	0	0	0	0	0	0	0	0	0	0	0	0	0	0	0	0	0	0	0	0	0	0	0	0	0	0	0	0	0	0	0	0	0	0	0
070319	13:33:00	13:39:04	363264	5.0.10.0	5_exp_noRW	12	Rpleas_acq	CS_A	CPPC	LWWL	JQQJ	YFFY	DXXD	ZHHZ	genießen	träumen	sonnig	küssen	vertrauen	gütig	gemein	töten	sterben	krank	versagen	gierig	47pct	acq_USpleas_CSunple2_noRW	acq23456_noRW	3	9	0	0	300	300	463	50	0	1	1	blank2r.bmp	0	1	+	0	1	blank2r.bmp	252	1	YFFY	306	3	gütig	559	0	0	0	0	0	0	0	0	0	0	0	0	0	0	0	0	0	0	0	0	0	0	0	0	0	0	0	0	0	0	0	0	0	0	0	0	0	0	0
070319	13:33:00	13:39:06	364824	5.0.10.0	5_exp_noRW	12	Rpleas_acq	CS_A	CPPC	LWWL	JQQJ	YFFY	DXXD	ZHHZ	genießen	träumen	sonnig	küssen	vertrauen	gütig	gemein	töten	sterben	krank	versagen	gierig	47pct	acq_USpleas_CSpleas2_noRW	acq23456_noRW	3	10	0	0	300	300	373	50	0	1	1	blank2r.bmp	0	1	+	0	1	blank2r.bmp	252	1	LWWL	306	3	gütig	559	0	0	0	0	0	0	0	0	0	0	0	0	0	0	0	0	0	0	0	0	0	0	0	0	0	0	0	0	0	0	0	0	0	0	0	0	0	0	0
070319	13:33:00	13:39:07	366370	5.0.10.0	5_exp_noRW	12	Rpleas_acq	CS_A	CPPC	LWWL	JQQJ	YFFY	DXXD	ZHHZ	genießen	träumen	sonnig	küssen	vertrauen	gütig	gemein	töten	sterben	krank	versagen	gierig	47pct	acq_USunple_CSunple1_noRW	acq23456_noRW	3	11	0	0	300	300	372	46	0	1	1	blank2r.bmp	0	1	+	0	1	blank2r.bmp	252	1	JQQJ	306	1	gemein	559	0	0	0	0	0	0	0	0	0	0	0	0	0	0	0	0	0	0	0	0	0	0	0	0	0	0	0	0	0	0	0	0	0	0	0	0	0	0	0
070319	13:33:00	13:39:09	368036	5.0.10.0	5_exp_noRW	12	Rpleas_acq	CS_A	CPPC	LWWL	JQQJ	YFFY	DXXD	ZHHZ	genießen	träumen	sonnig	küssen	vertrauen	gütig	gemein	töten	sterben	krank	versagen	gierig	53pct	acq_USpleas_CSunple1_noRW	acq23456_noRW	3	12	0	0	300	300	504	50	0	1	1	blank2r.bmp	0	1	+	0	1	blank2r.bmp	252	1	JQQJ	306	2	träumen	559	0	0	0	0	0	0	0	0	0	0	0	0	0	0	0	0	0	0	0	0	0	0	0	0	0	0	0	0	0	0	0	0	0	0	0	0	0	0	0
070319	13:33:00	13:39:11	369808	5.0.10.0	5_exp_noRW	12	Rpleas_acq	CS_A	CPPC	LWWL	JQQJ	YFFY	DXXD	ZHHZ	genießen	träumen	sonnig	küssen	vertrauen	gütig	gemein	töten	sterben	krank	versagen	gierig	53pct	acq_USpleas_CSpleas1_noRW	acq23456_noRW	3	13	0	0	300	300	383	46	0	0	1	blank2r.bmp	0	1	+	0	1	blank2r.bmp	252	1	CPPC	306	1	genießen	559	1	FEHLER	972	0	0	0	0	0	0	0	0	0	0	0	0	0	0	0	0	0	0	0	0	0	0	0	0	0	0	0	0	0	0	0	0	0	0	0	0
070319	13:33:00	13:39:12	371314	5.0.10.0	5_exp_noRW	12	Rpleas_acq	CS_A	CPPC	LWWL	JQQJ	YFFY	DXXD	ZHHZ	genießen	träumen	sonnig	küssen	vertrauen	gütig	gemein	töten	sterben	krank	versagen	gierig	53pct	acq_USunple_CSunple2_noRW	acq23456_noRW	3	14	0	0	300	300	532	46	0	1	1	blank2r.bmp	0	1	+	0	1	blank2r.bmp	252	1	YFFY	306	2	versagen	559	0	0	0	0	0	0	0	0	0	0	0	0	0	0	0	0	0	0	0	0	0	0	0	0	0	0	0	0	0	0	0	0	0	0	0	0	0	0	0
070319	13:33:00	13:39:14	372967	5.0.10.0	5_exp_noRW	12	Rpleas_acq	CS_A	CPPC	LWWL	JQQJ	YFFY	DXXD	ZHHZ	genießen	träumen	sonnig	küssen	vertrauen	gütig	gemein	töten	sterben	krank	versagen	gierig	47pct	acq_USpleas_CSpleas2_noRW	acq23456_noRW	3	15	0	0	300	300	479	50	0	1	1	blank2r.bmp	0	1	+	0	1	blank2r.bmp	252	1	LWWL	306	2	vertrauen	559	0	0	0	0	0	0	0	0	0	0	0	0	0	0	0	0	0	0	0	0	0	0	0	0	0	0	0	0	0	0	0	0	0	0	0	0	0	0	0
070319	13:33:00	13:39:15	374633	5.0.10.0	5_exp_noRW	12	Rpleas_acq	CS_A	CPPC	LWWL	JQQJ	YFFY	DXXD	ZHHZ	genießen	träumen	sonnig	küssen	vertrauen	gütig	gemein	töten	sterben	krank	versagen	gierig	53pct	acq_USpleas_CSpleas1_noRW	acq23456_noRW	3	16	0	0	300	300	497	50	0	1	1	blank2r.bmp	0	1	+	0	1	blank2r.bmp	252	1	CPPC	306	3	sonnig	559	0	0	0	0	0	0	0	0	0	0	0	0	0	0	0	0	0	0	0	0	0	0	0	0	0	0	0	0	0	0	0	0	0	0	0	0	0	0	0
070319	13:33:00	13:39:17	376419	5.0.10.0	5_exp_noRW	12	Rpleas_acq	CS_A	CPPC	LWWL	JQQJ	YFFY	DXXD	ZHHZ	genießen	träumen	sonnig	küssen	vertrauen	gütig	gemein	töten	sterben	krank	versagen	gierig	47pct	acq_USpleas_CSpleas1_noRW	acq23456_noRW	3	17	0	0	300	300	385	46	0	0	1	blank2r.bmp	0	1	+	0	1	blank2r.bmp	252	1	CPPC	306	2	träumen	559	1	FEHLER	986	0	0	0	0	0	0	0	0	0	0	0	0	0	0	0	0	0	0	0	0	0	0	0	0	0	0	0	0	0	0	0	0	0	0	0	0
070319	13:33:00	13:39:19	377885	5.0.10.0	5_exp_noRW	12	Rpleas_acq	CS_A	CPPC	LWWL	JQQJ	YFFY	DXXD	ZHHZ	genießen	träumen	sonnig	küssen	vertrauen	gütig	gemein	töten	sterben	krank	versagen	gierig	47pct	acq_USpleas_CSpleas1_noRW	acq23456_noRW	3	18	0	0	300	300	511	50	0	1	1	blank2r.bmp	0	1	+	0	1	blank2r.bmp	252	1	CPPC	306	1	genießen	559	0	0	0	0	0	0	0	0	0	0	0	0	0	0	0	0	0	0	0	0	0	0	0	0	0	0	0	0	0	0	0	0	0	0	0	0	0	0	0
070319	13:33:00	13:39:20	379524	5.0.10.0	5_exp_noRW	12	Rpleas_acq	CS_A	CPPC	LWWL	JQQJ	YFFY	DXXD	ZHHZ	genießen	träumen	sonnig	küssen	vertrauen	gütig	gemein	töten	sterben	krank	versagen	gierig	53pct	acq_USunple_CSunple2_noRW	acq23456_noRW	3	19	0	0	300	300	468	46	0	1	1	blank2r.bmp	0	1	+	0	1	blank2r.bmp	252	1	YFFY	306	3	gierig	559	0	0	0	0	0	0	0	0	0	0	0	0	0	0	0	0	0	0	0	0	0	0	0	0	0	0	0	0	0	0	0	0	0	0	0	0	0	0	0
070319	13:33:00	13:39:22	381164	5.0.10.0	5_exp_noRW	12	Rpleas_acq	CS_A	CPPC	LWWL	JQQJ	YFFY	DXXD	ZHHZ	genießen	träumen	sonnig	küssen	vertrauen	gütig	gemein	töten	sterben	krank	versagen	gierig	53pct	acq_USunple_CSunple1_noRW	acq23456_noRW	3	20	0	0	300	300	475	46	0	1	1	blank2r.bmp	0	1	+	0	1	blank2r.bmp	252	1	JQQJ	306	3	sterben	559	0	0	0	0	0	0	0	0	0	0	0	0	0	0	0	0	0	0	0	0	0	0	0	0	0	0	0	0	0	0	0	0	0	0	0	0	0	0	0
070319	13:33:00	13:39:24	382763	5.0.10.0	5_exp_noRW	12	Rpleas_acq	CS_A	CPPC	LWWL	JQQJ	YFFY	DXXD	ZHHZ	genießen	träumen	sonnig	küssen	vertrauen	gütig	gemein	töten	sterben	krank	versagen	gierig	53pct	acq_USunple_CSunple2_noRW	acq23456_noRW	3	21	0	0	300	300	422	46	0	1	1	blank2r.bmp	0	1	+	0	1	blank2r.bmp	252	1	YFFY	306	1	krank	559	0	0	0	0	0	0	0	0	0	0	0	0	0	0	0	0	0	0	0	0	0	0	0	0	0	0	0	0	0	0	0	0	0	0	0	0	0	0	0
070319	13:33:00	13:39:25	384322	5.0.10.0	5_exp_noRW	12	Rpleas_acq	CS_A	CPPC	LWWL	JQQJ	YFFY	DXXD	ZHHZ	genießen	träumen	sonnig	küssen	vertrauen	gütig	gemein	töten	sterben	krank	versagen	gierig	47pct	acq_USpleas_CSpleas2_noRW	acq23456_noRW	3	22	0	0	300	300	373	50	0	1	1	blank2r.bmp	0	1	+	0	1	blank2r.bmp	252	1	LWWL	306	2	vertrauen	559	0	0	0	0	0	0	0	0	0	0	0	0	0	0	0	0	0	0	0	0	0	0	0	0	0	0	0	0	0	0	0	0	0	0	0	0	0	0	0
070319	13:33:00	13:39:27	386002	5.0.10.0	5_exp_noRW	12	Rpleas_acq	CS_A	CPPC	LWWL	JQQJ	YFFY	DXXD	ZHHZ	genießen	träumen	sonnig	küssen	vertrauen	gütig	gemein	töten	sterben	krank	versagen	gierig	53pct	acq_USunple_CSunple1_noRW	acq23456_noRW	3	23	0	0	300	300	506	46	0	1	1	blank2r.bmp	0	1	+	0	1	blank2r.bmp	252	1	JQQJ	306	2	töten	559	0	0	0	0	0	0	0	0	0	0	0	0	0	0	0	0	0	0	0	0	0	0	0	0	0	0	0	0	0	0	0	0	0	0	0	0	0	0	0
070319	13:33:00	13:39:28	387614	5.0.10.0	5_exp_noRW	12	Rpleas_acq	CS_A	CPPC	LWWL	JQQJ	YFFY	DXXD	ZHHZ	genießen	träumen	sonnig	küssen	vertrauen	gütig	gemein	töten	sterben	krank	versagen	gierig	47pct	acq_USunple_CSunple1_noRW	acq23456_noRW	3	24	0	0	300	300	450	46	0	1	1	blank2r.bmp	0	1	+	0	1	blank2r.bmp	252	1	JQQJ	306	3	sterben	559	0	0	0	0	0	0	0	0	0	0	0	0	0	0	0	0	0	0	0	0	0	0	0	0	0	0	0	0	0	0	0	0	0	0	0	0	0	0	0
070319	13:33:00	13:39:30	389334	5.0.10.0	5_exp_noRW	12	Rpleas_acq	CS_A	CPPC	LWWL	JQQJ	YFFY	DXXD	ZHHZ	genießen	träumen	sonnig	küssen	vertrauen	gütig	gemein	töten	sterben	krank	versagen	gierig	47pct	acq_USpleas_CSpleas1_noRW	acq23456_noRW	3	25	0	0	300	300	543	50	0	1	1	blank2r.bmp	0	1	+	0	1	blank2r.bmp	252	1	CPPC	306	3	sonnig	559	0	0	0	0	0	0	0	0	0	0	0	0	0	0	0	0	0	0	0	0	0	0	0	0	0	0	0	0	0	0	0	0	0	0	0	0	0	0	0
070319	13:33:00	13:39:32	391066	5.0.10.0	5_exp_noRW	12	Rpleas_acq	CS_A	CPPC	LWWL	JQQJ	YFFY	DXXD	ZHHZ	genießen	träumen	sonnig	küssen	vertrauen	gütig	gemein	töten	sterben	krank	versagen	gierig	47pct	acq_USpleas_CSpleas1_noRW	acq23456_noRW	3	26	0	0	300	300	553	50	0	1	1	blank2r.bmp	0	1	+	0	1	blank2r.bmp	252	1	CPPC	306	1	genießen	559	0	0	0	0	0	0	0	0	0	0	0	0	0	0	0	0	0	0	0	0	0	0	0	0	0	0	0	0	0	0	0	0	0	0	0	0	0	0	0
070319	13:33:00	13:39:34	392959	5.0.10.0	5_exp_noRW	12	Rpleas_acq	CS_A	CPPC	LWWL	JQQJ	YFFY	DXXD	ZHHZ	genießen	träumen	sonnig	küssen	vertrauen	gütig	gemein	töten	sterben	krank	versagen	gierig	47pct	acq_USpleas_CSpleas2_noRW	acq23456_noRW	3	27	0	0	300	300	715	50	0	1	1	blank2r.bmp	0	1	+	0	1	blank2r.bmp	252	1	LWWL	306	3	gütig	559	0	0	0	0	0	0	0	0	0	0	0	0	0	0	0	0	0	0	0	0	0	0	0	0	0	0	0	0	0	0	0	0	0	0	0	0	0	0	0
070319	13:33:00	13:39:36	394665	5.0.10.0	5_exp_noRW	12	Rpleas_acq	CS_A	CPPC	LWWL	JQQJ	YFFY	DXXD	ZHHZ	genießen	träumen	sonnig	küssen	vertrauen	gütig	gemein	töten	sterben	krank	versagen	gierig	47pct	acq_USunple_CSunple1_noRW	acq23456_noRW	3	28	0	0	300	300	519	46	0	1	1	blank2r.bmp	0	1	+	0	1	blank2r.bmp	252	1	JQQJ	306	1	gemein	559	0	0	0	0	0	0	0	0	0	0	0	0	0	0	0	0	0	0	0	0	0	0	0	0	0	0	0	0	0	0	0	0	0	0	0	0	0	0	0
070319	13:33:00	13:39:37	396278	5.0.10.0	5_exp_noRW	12	Rpleas_acq	CS_A	CPPC	LWWL	JQQJ	YFFY	DXXD	ZHHZ	genießen	träumen	sonnig	küssen	vertrauen	gütig	gemein	töten	sterben	krank	versagen	gierig	53pct	acq_USpleas_CSpleas2_noRW	acq23456_noRW	3	29	0	0	300	300	444	50	0	1	1	blank2r.bmp	0	1	+	0	1	blank2r.bmp	252	1	LWWL	306	1	küssen	559	0	0	0	0	0	0	0	0	0	0	0	0	0	0	0	0	0	0	0	0	0	0	0	0	0	0	0	0	0	0	0	0	0	0	0	0	0	0	0
070319	13:33:00	13:39:39	398277	5.0.10.0	5_exp_noRW	12	Rpleas_acq	CS_A	CPPC	LWWL	JQQJ	YFFY	DXXD	ZHHZ	genießen	träumen	sonnig	küssen	vertrauen	gütig	gemein	töten	sterben	krank	versagen	gierig	53pct	acq_USpleas_CSunple2_noRW	acq23456_noRW	3	30	0	0	300	300	837	50	0	1	1	blank2r.bmp	0	1	+	0	1	blank2r.bmp	252	1	YFFY	306	2	vertrauen	559	0	0	0	0	0	0	0	0	0	0	0	0	0	0	0	0	0	0	0	0	0	0	0	0	0	0	0	0	0	0	0	0	0	0	0	0	0	0	0
070319	13:33:00	13:39:41	399983	5.0.10.0	5_exp_noRW	12	Rpleas_acq	CS_A	CPPC	LWWL	JQQJ	YFFY	DXXD	ZHHZ	genießen	träumen	sonnig	küssen	vertrauen	gütig	gemein	töten	sterben	krank	versagen	gierig	47pct	acq_USunple_CSunple2_noRW	acq23456_noRW	3	31	0	0	300	300	526	46	0	1	1	blank2r.bmp	0	1	+	0	1	blank2r.bmp	252	1	YFFY	306	3	gierig	559	0	0	0	0	0	0	0	0	0	0	0	0	0	0	0	0	0	0	0	0	0	0	0	0	0	0	0	0	0	0	0	0	0	0	0	0	0	0	0
070319	13:33:00	13:39:43	401662	5.0.10.0	5_exp_noRW	12	Rpleas_acq	CS_A	CPPC	LWWL	JQQJ	YFFY	DXXD	ZHHZ	genießen	träumen	sonnig	küssen	vertrauen	gütig	gemein	töten	sterben	krank	versagen	gierig	53pct	acq_USunple_CSpleas1_noRW	acq23456_noRW	3	32	0	0	300	300	504	46	0	1	1	blank2r.bmp	0	1	+	0	1	blank2r.bmp	252	1	CPPC	306	3	sterben	559	0	0	0	0	0	0	0	0	0	0	0	0	0	0	0	0	0	0	0	0	0	0	0	0	0	0	0	0	0	0	0	0	0	0	0	0	0	0	0
070319	13:33:00	13:39:44	403355	5.0.10.0	5_exp_noRW	12	Rpleas_acq	CS_A	CPPC	LWWL	JQQJ	YFFY	DXXD	ZHHZ	genießen	träumen	sonnig	küssen	vertrauen	gütig	gemein	töten	sterben	krank	versagen	gierig	47pct	acq_USpleas_CSpleas1_noRW	acq23456_noRW	3	33	0	0	300	300	511	50	0	1	1	blank2r.bmp	0	1	+	0	1	blank2r.bmp	252	1	CPPC	306	2	träumen	559	0	0	0	0	0	0	0	0	0	0	0	0	0	0	0	0	0	0	0	0	0	0	0	0	0	0	0	0	0	0	0	0	0	0	0	0	0	0	0
070319	13:33:00	13:39:46	405061	5.0.10.0	5_exp_noRW	12	Rpleas_acq	CS_A	CPPC	LWWL	JQQJ	YFFY	DXXD	ZHHZ	genießen	träumen	sonnig	küssen	vertrauen	gütig	gemein	töten	sterben	krank	versagen	gierig	53pct	acq_USunple_CSunple2_noRW	acq23456_noRW	3	34	0	0	300	300	519	46	0	1	1	blank2r.bmp	0	1	+	0	1	blank2r.bmp	252	1	YFFY	306	2	versagen	559	0	0	0	0	0	0	0	0	0	0	0	0	0	0	0	0	0	0	0	0	0	0	0	0	0	0	0	0	0	0	0	0	0	0	0	0	0	0	0
070319	13:33:00	13:39:48	406913	5.0.10.0	5_exp_noRW	12	Rpleas_acq	CS_A	CPPC	LWWL	JQQJ	YFFY	DXXD	ZHHZ	genießen	träumen	sonnig	küssen	vertrauen	gütig	gemein	töten	sterben	krank	versagen	gierig	47pct	acq_USpleas_CSpleas2_noRW	acq23456_noRW	3	35	0	0	300	300	683	50	0	1	1	blank2r.bmp	0	1	+	0	1	blank2r.bmp	252	1	LWWL	306	3	gütig	559	0	0	0	0	0	0	0	0	0	0	0	0	0	0	0	0	0	0	0	0	0	0	0	0	0	0	0	0	0	0	0	0	0	0	0	0	0	0	0
070319	13:33:00	13:39:49	408553	5.0.10.0	5_exp_noRW	12	Rpleas_acq	CS_A	CPPC	LWWL	JQQJ	YFFY	DXXD	ZHHZ	genießen	träumen	sonnig	küssen	vertrauen	gütig	gemein	töten	sterben	krank	versagen	gierig	47pct	acq_USpleas_CSunple1_noRW	acq23456_noRW	3	36	0	0	300	300	456	50	0	1	1	blank2r.bmp	0	1	+	0	1	blank2r.bmp	252	1	JQQJ	306	1	genießen	559	0	0	0	0	0	0	0	0	0	0	0	0	0	0	0	0	0	0	0	0	0	0	0	0	0	0	0	0	0	0	0	0	0	0	0	0	0	0	0
070319	13:33:00	13:39:51	410125	5.0.10.0	5_exp_noRW	12	Rpleas_acq	CS_A	CPPC	LWWL	JQQJ	YFFY	DXXD	ZHHZ	genießen	träumen	sonnig	küssen	vertrauen	gütig	gemein	töten	sterben	krank	versagen	gierig	47pct	acq_USunple_CSunple1_noRW	acq23456_noRW	3	37	0	0	300	300	394	46	0	1	1	blank2r.bmp	0	1	+	0	1	blank2r.bmp	252	1	JQQJ	306	2	töten	559	0	0	0	0	0	0	0	0	0	0	0	0	0	0	0	0	0	0	0	0	0	0	0	0	0	0	0	0	0	0	0	0	0	0	0	0	0	0	0
070319	13:33:00	13:39:53	411751	5.0.10.0	5_exp_noRW	12	Rpleas_acq	CS_A	CPPC	LWWL	JQQJ	YFFY	DXXD	ZHHZ	genießen	träumen	sonnig	küssen	vertrauen	gütig	gemein	töten	sterben	krank	versagen	gierig	47pct	acq_USunple_CSpleas2_noRW	acq23456_noRW	3	38	0	0	300	300	446	46	0	1	1	blank2r.bmp	0	1	+	0	1	blank2r.bmp	252	1	LWWL	306	1	krank	559	0	0	0	0	0	0	0	0	0	0	0	0	0	0	0	0	0	0	0	0	0	0	0	0	0	0	0	0	0	0	0	0	0	0	0	0	0	0	0
070319	13:33:00	13:39:54	413337	5.0.10.0	5_exp_noRW	12	Rpleas_acq	CS_A	CPPC	LWWL	JQQJ	YFFY	DXXD	ZHHZ	genießen	träumen	sonnig	küssen	vertrauen	gütig	gemein	töten	sterben	krank	versagen	gierig	47pct	acq_USpleas_CSpleas1_noRW	acq23456_noRW	3	39	0	0	300	300	399	50	0	1	1	blank2r.bmp	0	1	+	0	1	blank2r.bmp	252	1	CPPC	306	3	sonnig	559	0	0	0	0	0	0	0	0	0	0	0	0	0	0	0	0	0	0	0	0	0	0	0	0	0	0	0	0	0	0	0	0	0	0	0	0	0	0	0
070319	13:33:00	13:39:56	414990	5.0.10.0	5_exp_noRW	12	Rpleas_acq	CS_A	CPPC	LWWL	JQQJ	YFFY	DXXD	ZHHZ	genießen	träumen	sonnig	küssen	vertrauen	gütig	gemein	töten	sterben	krank	versagen	gierig	47pct	acq_USunple_CSunple2_noRW	acq23456_noRW	3	40	0	0	300	300	479	46	0	1	1	blank2r.bmp	0	1	+	0	1	blank2r.bmp	252	1	YFFY	306	2	versagen	559	0	0	0	0	0	0	0	0	0	0	0	0	0	0	0	0	0	0	0	0	0	0	0	0	0	0	0	0	0	0	0	0	0	0	0	0	0	0	0
070319	13:33:00	13:39:58	416656	5.0.10.0	5_exp_noRW	12	Rpleas_acq	CS_A	CPPC	LWWL	JQQJ	YFFY	DXXD	ZHHZ	genießen	träumen	sonnig	küssen	vertrauen	gütig	gemein	töten	sterben	krank	versagen	gierig	47pct	acq_USpleas_CSpleas1_noRW	acq23456_noRW	3	41	0	0	300	300	492	50	0	1	1	blank2r.bmp	0	1	+	0	1	blank2r.bmp	252	1	CPPC	306	2	träumen	559	0	0	0	0	0	0	0	0	0	0	0	0	0	0	0	0	0	0	0	0	0	0	0	0	0	0	0	0	0	0	0	0	0	0	0	0	0	0	0
070319	13:33:00	13:39:59	418269	5.0.10.0	5_exp_noRW	12	Rpleas_acq	CS_A	CPPC	LWWL	JQQJ	YFFY	DXXD	ZHHZ	genießen	träumen	sonnig	küssen	vertrauen	gütig	gemein	töten	sterben	krank	versagen	gierig	53pct	acq_USunple_CSunple2_noRW	acq23456_noRW	3	42	0	0	300	300	447	46	0	1	1	blank2r.bmp	0	1	+	0	1	blank2r.bmp	252	1	YFFY	306	1	krank	559	0	0	0	0	0	0	0	0	0	0	0	0	0	0	0	0	0	0	0	0	0	0	0	0	0	0	0	0	0	0	0	0	0	0	0	0	0	0	0
070319	13:33:00	13:40:01	419881	5.0.10.0	5_exp_noRW	12	Rpleas_acq	CS_A	CPPC	LWWL	JQQJ	YFFY	DXXD	ZHHZ	genießen	träumen	sonnig	küssen	vertrauen	gütig	gemein	töten	sterben	krank	versagen	gierig	53pct	acq_USpleas_CSpleas1_noRW	acq23456_noRW	3	43	0	0	300	300	435	50	0	1	1	blank2r.bmp	0	1	+	0	1	blank2r.bmp	252	1	CPPC	306	1	genießen	559	0	0	0	0	0	0	0	0	0	0	0	0	0	0	0	0	0	0	0	0	0	0	0	0	0	0	0	0	0	0	0	0	0	0	0	0	0	0	0
070319	13:33:00	13:40:02	421481	5.0.10.0	5_exp_noRW	12	Rpleas_acq	CS_A	CPPC	LWWL	JQQJ	YFFY	DXXD	ZHHZ	genießen	träumen	sonnig	küssen	vertrauen	gütig	gemein	töten	sterben	krank	versagen	gierig	47pct	acq_USpleas_CSpleas2_noRW	acq23456_noRW	3	44	0	0	300	300	428	50	0	1	1	blank2r.bmp	0	1	+	0	1	blank2r.bmp	252	1	LWWL	306	1	küssen	559	0	0	0	0	0	0	0	0	0	0	0	0	0	0	0	0	0	0	0	0	0	0	0	0	0	0	0	0	0	0	0	0	0	0	0	0	0	0	0
070319	13:33:00	13:40:04	423013	5.0.10.0	5_exp_noRW	12	Rpleas_acq	CS_A	CPPC	LWWL	JQQJ	YFFY	DXXD	ZHHZ	genießen	träumen	sonnig	küssen	vertrauen	gütig	gemein	töten	sterben	krank	versagen	gierig	53pct	acq_USunple_CSunple1_noRW	acq23456_noRW	3	45	0	0	300	300	368	46	0	1	1	blank2r.bmp	0	1	+	0	1	blank2r.bmp	252	1	JQQJ	306	3	sterben	559	0	0	0	0	0	0	0	0	0	0	0	0	0	0	0	0	0	0	0	0	0	0	0	0	0	0	0	0	0	0	0	0	0	0	0	0	0	0	0
070319	13:33:00	13:40:06	424759	5.0.10.0	5_exp_noRW	12	Rpleas_acq	CS_A	CPPC	LWWL	JQQJ	YFFY	DXXD	ZHHZ	genießen	träumen	sonnig	küssen	vertrauen	gütig	gemein	töten	sterben	krank	versagen	gierig	53pct	acq_USunple_CSpleas2_noRW	acq23456_noRW	3	46	0	0	300	300	559	46	0	1	1	blank2r.bmp	0	1	+	0	1	blank2r.bmp	252	1	LWWL	306	3	gierig	559	0	0	0	0	0	0	0	0	0	0	0	0	0	0	0	0	0	0	0	0	0	0	0	0	0	0	0	0	0	0	0	0	0	0	0	0	0	0	0
070319	13:33:00	13:40:07	426345	5.0.10.0	5_exp_noRW	12	Rpleas_acq	CS_A	CPPC	LWWL	JQQJ	YFFY	DXXD	ZHHZ	genießen	träumen	sonnig	küssen	vertrauen	gütig	gemein	töten	sterben	krank	versagen	gierig	47pct	acq_USpleas_CSpleas2_noRW	acq23456_noRW	3	47	0	0	300	300	416	50	0	1	1	blank2r.bmp	0	1	+	0	1	blank2r.bmp	252	1	LWWL	306	2	vertrauen	559	0	0	0	0	0	0	0	0	0	0	0	0	0	0	0	0	0	0	0	0	0	0	0	0	0	0	0	0	0	0	0	0	0	0	0	0	0	0	0
070319	13:33:00	13:40:09	427985	5.0.10.0	5_exp_noRW	12	Rpleas_acq	CS_A	CPPC	LWWL	JQQJ	YFFY	DXXD	ZHHZ	genießen	träumen	sonnig	küssen	vertrauen	gütig	gemein	töten	sterben	krank	versagen	gierig	47pct	acq_USunple_CSunple1_noRW	acq23456_noRW	3	48	0	0	300	300	477	46	0	1	1	blank2r.bmp	0	1	+	0	1	blank2r.bmp	252	1	JQQJ	306	1	gemein	559	0	0	0	0	0	0	0	0	0	0	0	0	0	0	0	0	0	0	0	0	0	0	0	0	0	0	0	0	0	0	0	0	0	0	0	0	0	0	0
070319	13:33:00	13:40:11	429691	5.0.10.0	5_exp_noRW	12	Rpleas_acq	CS_A	CPPC	LWWL	JQQJ	YFFY	DXXD	ZHHZ	genießen	träumen	sonnig	küssen	vertrauen	gütig	gemein	töten	sterben	krank	versagen	gierig	47pct	acq_USpleas_CSpleas2_noRW	acq23456_noRW	3	49	0	0	300	300	530	50	0	1	1	blank2r.bmp	0	1	+	0	1	blank2r.bmp	252	1	LWWL	306	3	gütig	559	0	0	0	0	0	0	0	0	0	0	0	0	0	0	0	0	0	0	0	0	0	0	0	0	0	0	0	0	0	0	0	0	0	0	0	0	0	0	0
070319	13:33:00	13:40:12	431330	5.0.10.0	5_exp_noRW	12	Rpleas_acq	CS_A	CPPC	LWWL	JQQJ	YFFY	DXXD	ZHHZ	genießen	träumen	sonnig	küssen	vertrauen	gütig	gemein	töten	sterben	krank	versagen	gierig	53pct	acq_USunple_CSunple2_noRW	acq23456_noRW	3	50	0	0	300	300	464	46	0	1	1	blank2r.bmp	0	1	+	0	1	blank2r.bmp	252	1	YFFY	306	3	gierig	559	0	0	0	0	0	0	0	0	0	0	0	0	0	0	0	0	0	0	0	0	0	0	0	0	0	0	0	0	0	0	0	0	0	0	0	0	0	0	0
070319	13:33:00	13:40:14	433023	5.0.10.0	5_exp_noRW	12	Rpleas_acq	CS_A	CPPC	LWWL	JQQJ	YFFY	DXXD	ZHHZ	genießen	träumen	sonnig	küssen	vertrauen	gütig	gemein	töten	sterben	krank	versagen	gierig	53pct	acq_USpleas_CSunple1_noRW	acq23456_noRW	3	51	0	0	300	300	509	50	0	1	1	blank2r.bmp	0	1	+	0	1	blank2r.bmp	252	1	JQQJ	306	2	träumen	559	0	0	0	0	0	0	0	0	0	0	0	0	0	0	0	0	0	0	0	0	0	0	0	0	0	0	0	0	0	0	0	0	0	0	0	0	0	0	0
070319	13:33:00	13:40:16	434715	5.0.10.0	5_exp_noRW	12	Rpleas_acq	CS_A	CPPC	LWWL	JQQJ	YFFY	DXXD	ZHHZ	genießen	träumen	sonnig	küssen	vertrauen	gütig	gemein	töten	sterben	krank	versagen	gierig	53pct	acq_USunple_CSpleas1_noRW	acq23456_noRW	3	52	0	0	300	300	525	46	0	1	1	blank2r.bmp	0	1	+	0	1	blank2r.bmp	252	1	CPPC	306	2	töten	559	0	0	0	0	0	0	0	0	0	0	0	0	0	0	0	0	0	0	0	0	0	0	0	0	0	0	0	0	0	0	0	0	0	0	0	0	0	0	0
070319	13:33:00	13:40:17	436355	5.0.10.0	5_exp_noRW	12	Rpleas_acq	CS_A	CPPC	LWWL	JQQJ	YFFY	DXXD	ZHHZ	genießen	träumen	sonnig	küssen	vertrauen	gütig	gemein	töten	sterben	krank	versagen	gierig	53pct	acq_USpleas_CSpleas2_noRW	acq23456_noRW	3	53	0	0	300	300	458	50	0	1	1	blank2r.bmp	0	1	+	0	1	blank2r.bmp	252	1	LWWL	306	2	vertrauen	559	0	0	0	0	0	0	0	0	0	0	0	0	0	0	0	0	0	0	0	0	0	0	0	0	0	0	0	0	0	0	0	0	0	0	0	0	0	0	0
070319	13:33:00	13:40:19	438021	5.0.10.0	5_exp_noRW	12	Rpleas_acq	CS_A	CPPC	LWWL	JQQJ	YFFY	DXXD	ZHHZ	genießen	träumen	sonnig	küssen	vertrauen	gütig	gemein	töten	sterben	krank	versagen	gierig	53pct	acq_USpleas_CSpleas1_noRW	acq23456_noRW	3	54	0	0	300	300	502	50	0	1	1	blank2r.bmp	0	1	+	0	1	blank2r.bmp	252	1	CPPC	306	3	sonnig	559	0	0	0	0	0	0	0	0	0	0	0	0	0	0	0	0	0	0	0	0	0	0	0	0	0	0	0	0	0	0	0	0	0	0	0	0	0	0	0
070319	13:33:00	13:40:21	439700	5.0.10.0	5_exp_noRW	12	Rpleas_acq	CS_A	CPPC	LWWL	JQQJ	YFFY	DXXD	ZHHZ	genießen	träumen	sonnig	küssen	vertrauen	gütig	gemein	töten	sterben	krank	versagen	gierig	53pct	acq_USpleas_CSunple2_noRW	acq23456_noRW	3	55	0	0	300	300	498	50	0	1	1	blank2r.bmp	0	1	+	0	1	blank2r.bmp	252	1	YFFY	306	1	küssen	559	0	0	0	0	0	0	0	0	0	0	0	0	0	0	0	0	0	0	0	0	0	0	0	0	0	0	0	0	0	0	0	0	0	0	0	0	0	0	0
070319	13:33:00	13:40:22	441246	5.0.10.0	5_exp_noRW	12	Rpleas_acq	CS_A	CPPC	LWWL	JQQJ	YFFY	DXXD	ZHHZ	genießen	träumen	sonnig	küssen	vertrauen	gütig	gemein	töten	sterben	krank	versagen	gierig	47pct	acq_USpleas_CSpleas1_noRW	acq23456_noRW	3	56	0	0	300	300	363	50	0	1	1	blank2r.bmp	0	1	+	0	1	blank2r.bmp	252	1	CPPC	306	2	träumen	559	0	0	0	0	0	0	0	0	0	0	0	0	0	0	0	0	0	0	0	0	0	0	0	0	0	0	0	0	0	0	0	0	0	0	0	0	0	0	0
070319	13:33:00	13:40:24	442845	5.0.10.0	5_exp_noRW	12	Rpleas_acq	CS_A	CPPC	LWWL	JQQJ	YFFY	DXXD	ZHHZ	genießen	träumen	sonnig	küssen	vertrauen	gütig	gemein	töten	sterben	krank	versagen	gierig	53pct	acq_USunple_CSunple2_noRW	acq23456_noRW	3	57	0	0	300	300	419	46	0	1	1	blank2r.bmp	0	1	+	0	1	blank2r.bmp	252	1	YFFY	306	2	versagen	559	0	0	0	0	0	0	0	0	0	0	0	0	0	0	0	0	0	0	0	0	0	0	0	0	0	0	0	0	0	0	0	0	0	0	0	0	0	0	0
070319	13:33:00	13:40:25	444565	5.0.10.0	5_exp_noRW	12	Rpleas_acq	CS_A	CPPC	LWWL	JQQJ	YFFY	DXXD	ZHHZ	genießen	träumen	sonnig	küssen	vertrauen	gütig	gemein	töten	sterben	krank	versagen	gierig	47pct	acq_USunple_CSunple2_noRW	acq23456_noRW	3	58	0	0	300	300	340	50	0	0	1	blank2r.bmp	0	1	+	0	1	blank2r.bmp	252	1	YFFY	306	1	krank	559	1	FEHLER	932	0	0	0	0	0	0	0	0	0	0	0	0	0	0	0	0	0	0	0	0	0	0	0	0	0	0	0	0	0	0	0	0	0	0	0	0
070319	13:33:00	13:40:27	445991	5.0.10.0	5_exp_noRW	12	Rpleas_acq	CS_A	CPPC	LWWL	JQQJ	YFFY	DXXD	ZHHZ	genießen	träumen	sonnig	küssen	vertrauen	gütig	gemein	töten	sterben	krank	versagen	gierig	53pct	acq_USunple_CSunple1_noRW	acq23456_noRW	3	59	0	0	300	300	459	46	0	1	1	blank2r.bmp	0	1	+	0	1	blank2r.bmp	252	1	JQQJ	306	3	sterben	559	0	0	0	0	0	0	0	0	0	0	0	0	0	0	0	0	0	0	0	0	0	0	0	0	0	0	0	0	0	0	0	0	0	0	0	0	0	0	0
070319	13:33:00	13:40:29	448296	5.0.10.0	5_exp_noRW	12	Rpleas_acq	CS_A	CPPC	LWWL	JQQJ	YFFY	DXXD	ZHHZ	genießen	träumen	sonnig	küssen	vertrauen	gütig	gemein	töten	sterben	krank	versagen	gierig	47pct	acq_USunple_CSunple1_noRW	acq23456_noRW	3	60	0	0	300	300	1121	46	0	1	1	blank2r.bmp	0	1	+	0	1	blank2r.bmp	252	1	JQQJ	306	1	gemein	559	0	0	0	0	0	0	0	0	0	0	0	0	0	0	0	0	0	0	0	0	0	0	0	0	0	0	0	0	0	0	0	0	0	0	0	0	0	0	0
070319	13:33:00	13:40:31	449949	5.0.10.0	5_exp_noRW	12	Rpleas_acq	CS_A	CPPC	LWWL	JQQJ	YFFY	DXXD	ZHHZ	genießen	träumen	sonnig	küssen	vertrauen	gütig	gemein	töten	sterben	krank	versagen	gierig	47pct	acq_USunple_CSunple1_noRW	acq23456_noRW	3	61	0	0	300	300	482	46	0	1	1	blank2r.bmp	0	1	+	0	1	blank2r.bmp	252	1	JQQJ	306	2	töten	559	0	0	0	0	0	0	0	0	0	0	0	0	0	0	0	0	0	0	0	0	0	0	0	0	0	0	0	0	0	0	0	0	0	0	0	0	0	0	0
070319	13:33:00	13:40:33	451748	5.0.10.0	5_exp_noRW	12	Rpleas_acq	CS_A	CPPC	LWWL	JQQJ	YFFY	DXXD	ZHHZ	genießen	träumen	sonnig	küssen	vertrauen	gütig	gemein	töten	sterben	krank	versagen	gierig	47pct	acq_USunple_CSunple2_noRW	acq23456_noRW	3	62	0	0	300	300	628	46	0	1	1	blank2r.bmp	0	1	+	0	1	blank2r.bmp	252	1	YFFY	306	3	gierig	559	0	0	0	0	0	0	0	0	0	0	0	0	0	0	0	0	0	0	0	0	0	0	0	0	0	0	0	0	0	0	0	0	0	0	0	0	0	0	0
070319	13:33:00	13:40:34	453561	5.0.10.0	5_exp_noRW	12	Rpleas_acq	CS_A	CPPC	LWWL	JQQJ	YFFY	DXXD	ZHHZ	genießen	träumen	sonnig	küssen	vertrauen	gütig	gemein	töten	sterben	krank	versagen	gierig	47pct	acq_USpleas_CSpleas1_noRW	acq23456_noRW	3	63	0	0	300	300	626	50	0	1	1	blank2r.bmp	0	1	+	0	1	blank2r.bmp	252	1	CPPC	306	1	genießen	559	0	0	0	0	0	0	0	0	0	0	0	0	0	0	0	0	0	0	0	0	0	0	0	0	0	0	0	0	0	0	0	0	0	0	0	0	0	0	0
070319	13:33:00	13:40:36	455280	5.0.10.0	5_exp_noRW	12	Rpleas_acq	CS_A	CPPC	LWWL	JQQJ	YFFY	DXXD	ZHHZ	genießen	träumen	sonnig	küssen	vertrauen	gütig	gemein	töten	sterben	krank	versagen	gierig	47pct	acq_USpleas_CSpleas1_noRW	acq23456_noRW	3	64	0	0	300	300	555	50	0	1	1	blank2r.bmp	0	1	+	0	1	blank2r.bmp	252	1	CPPC	306	1	genießen	559	0	0	0	0	0	0	0	0	0	0	0	0	0	0	0	0	0	0	0	0	0	0	0	0	0	0	0	0	0	0	0	0	0	0	0	0	0	0	0
070319	13:33:00	13:40:38	457119	5.0.10.0	5_exp_noRW	12	Rpleas_acq	CS_A	CPPC	LWWL	JQQJ	YFFY	DXXD	ZHHZ	genießen	träumen	sonnig	küssen	vertrauen	gütig	gemein	töten	sterben	krank	versagen	gierig	47pct	acq_USpleas_CSunple2_noRW	acq23456_noRW	3	65	0	0	300	300	660	50	0	1	1	blank2r.bmp	0	1	+	0	1	blank2r.bmp	252	1	YFFY	306	3	gütig	559	0	0	0	0	0	0	0	0	0	0	0	0	0	0	0	0	0	0	0	0	0	0	0	0	0	0	0	0	0	0	0	0	0	0	0	0	0	0	0
070319	13:33:00	13:40:40	458785	5.0.10.0	5_exp_noRW	12	Rpleas_acq	CS_A	CPPC	LWWL	JQQJ	YFFY	DXXD	ZHHZ	genießen	träumen	sonnig	küssen	vertrauen	gütig	gemein	töten	sterben	krank	versagen	gierig	53pct	acq_USpleas_CSpleas1_noRW	acq23456_noRW	3	66	0	0	300	300	494	50	0	1	1	blank2r.bmp	0	1	+	0	1	blank2r.bmp	252	1	CPPC	306	3	sonnig	559	0	0	0	0	0	0	0	0	0	0	0	0	0	0	0	0	0	0	0	0	0	0	0	0	0	0	0	0	0	0	0	0	0	0	0	0	0	0	0
070319	13:33:00	13:40:41	460398	5.0.10.0	5_exp_noRW	12	Rpleas_acq	CS_A	CPPC	LWWL	JQQJ	YFFY	DXXD	ZHHZ	genießen	träumen	sonnig	küssen	vertrauen	gütig	gemein	töten	sterben	krank	versagen	gierig	47pct	acq_USunple_CSunple1_noRW	acq23456_noRW	3	67	0	0	300	300	429	46	0	1	1	blank2r.bmp	0	1	+	0	1	blank2r.bmp	252	1	JQQJ	306	3	sterben	559	0	0	0	0	0	0	0	0	0	0	0	0	0	0	0	0	0	0	0	0	0	0	0	0	0	0	0	0	0	0	0	0	0	0	0	0	0	0	0
070319	13:33:00	13:40:43	462024	5.0.10.0	5_exp_noRW	12	Rpleas_acq	CS_A	CPPC	LWWL	JQQJ	YFFY	DXXD	ZHHZ	genießen	träumen	sonnig	küssen	vertrauen	gütig	gemein	töten	sterben	krank	versagen	gierig	53pct	acq_USpleas_CSpleas1_noRW	acq23456_noRW	3	68	0	0	300	300	460	50	0	1	1	blank2r.bmp	0	1	+	0	1	blank2r.bmp	252	1	CPPC	306	2	träumen	559	0	0	0	0	0	0	0	0	0	0	0	0	0	0	0	0	0	0	0	0	0	0	0	0	0	0	0	0	0	0	0	0	0	0	0	0	0	0	0
070319	13:33:00	13:40:45	463650	5.0.10.0	5_exp_noRW	12	Rpleas_acq	CS_A	CPPC	LWWL	JQQJ	YFFY	DXXD	ZHHZ	genießen	träumen	sonnig	küssen	vertrauen	gütig	gemein	töten	sterben	krank	versagen	gierig	53pct	acq_USunple_CSunple2_noRW	acq23456_noRW	3	69	0	0	300	300	449	46	0	1	1	blank2r.bmp	0	1	+	0	1	blank2r.bmp	252	1	YFFY	306	1	krank	559	0	0	0	0	0	0	0	0	0	0	0	0	0	0	0	0	0	0	0	0	0	0	0	0	0	0	0	0	0	0	0	0	0	0	0	0	0	0	0
070319	13:33:00	13:40:46	465436	5.0.10.0	5_exp_noRW	12	Rpleas_acq	CS_A	CPPC	LWWL	JQQJ	YFFY	DXXD	ZHHZ	genießen	träumen	sonnig	küssen	vertrauen	gütig	gemein	töten	sterben	krank	versagen	gierig	47pct	acq_USpleas_CSpleas2_noRW	acq23456_noRW	3	70	0	0	300	300	611	50	0	1	1	blank2r.bmp	0	1	+	0	1	blank2r.bmp	252	1	LWWL	306	1	küssen	559	0	0	0	0	0	0	0	0	0	0	0	0	0	0	0	0	0	0	0	0	0	0	0	0	0	0	0	0	0	0	0	0	0	0	0	0	0	0	0
070319	13:33:00	13:40:48	467302	5.0.10.0	5_exp_noRW	12	Rpleas_acq	CS_A	CPPC	LWWL	JQQJ	YFFY	DXXD	ZHHZ	genießen	träumen	sonnig	küssen	vertrauen	gütig	gemein	töten	sterben	krank	versagen	gierig	47pct	acq_USunple_CSunple2_noRW	acq23456_noRW	3	71	0	0	300	300	684	46	0	1	1	blank2r.bmp	0	1	+	0	1	blank2r.bmp	252	1	YFFY	306	2	versagen	559	0	0	0	0	0	0	0	0	0	0	0	0	0	0	0	0	0	0	0	0	0	0	0	0	0	0	0	0	0	0	0	0	0	0	0	0	0	0	0
070319	13:33:00	13:40:50	468928	5.0.10.0	5_exp_noRW	12	Rpleas_acq	CS_A	CPPC	LWWL	JQQJ	YFFY	DXXD	ZHHZ	genießen	träumen	sonnig	küssen	vertrauen	gütig	gemein	töten	sterben	krank	versagen	gierig	53pct	acq_USunple_CSunple1_noRW	acq23456_noRW	3	72	0	0	300	300	447	46	0	1	1	blank2r.bmp	0	1	+	0	1	blank2r.bmp	252	1	JQQJ	306	2	töten	559	0	0	0	0	0	0	0	0	0	0	0	0	0	0	0	0	0	0	0	0	0	0	0	0	0	0	0	0	0	0	0	0	0	0	0	0	0	0	0
070319	13:33:00	13:40:51	470487	5.0.10.0	5_exp_noRW	12	Rpleas_acq	CS_A	CPPC	LWWL	JQQJ	YFFY	DXXD	ZHHZ	genießen	träumen	sonnig	küssen	vertrauen	gütig	gemein	töten	sterben	krank	versagen	gierig	47pct	acq_USpleas_CSpleas2_noRW	acq23456_noRW	3	73	0	0	300	300	388	50	0	1	1	blank2r.bmp	0	1	+	0	1	blank2r.bmp	252	1	LWWL	306	3	gütig	559	0	0	0	0	0	0	0	0	0	0	0	0	0	0	0	0	0	0	0	0	0	0	0	0	0	0	0	0	0	0	0	0	0	0	0	0	0	0	0
070319	13:33:00	13:40:53	472500	5.0.10.0	5_exp_noRW	12	Rpleas_acq	CS_A	CPPC	LWWL	JQQJ	YFFY	DXXD	ZHHZ	genießen	träumen	sonnig	küssen	vertrauen	gütig	gemein	töten	sterben	krank	versagen	gierig	53pct	acq_USpleas_CSpleas2_noRW	acq23456_noRW	3	74	0	0	300	300	842	50	0	1	1	blank2r.bmp	0	1	+	0	1	blank2r.bmp	252	1	LWWL	306	2	vertrauen	559	0	0	0	0	0	0	0	0	0	0	0	0	0	0	0	0	0	0	0	0	0	0	0	0	0	0	0	0	0	0	0	0	0	0	0	0	0	0	0
070319	13:33:00	13:40:55	474166	5.0.10.0	5_exp_noRW	12	Rpleas_acq	CS_A	CPPC	LWWL	JQQJ	YFFY	DXXD	ZHHZ	genießen	träumen	sonnig	küssen	vertrauen	gütig	gemein	töten	sterben	krank	versagen	gierig	47pct	acq_USunple_CSpleas1_noRW	acq23456_noRW	3	75	0	0	300	300	503	46	0	1	1	blank2r.bmp	0	1	+	0	1	blank2r.bmp	252	1	CPPC	306	1	gemein	559	0	0	0	0	0	0	0	0	0	0	0	0	0	0	0	0	0	0	0	0	0	0	0	0	0	0	0	0	0	0	0	0	0	0	0	0	0	0	0
070319	13:33:00	13:40:57	476018	5.0.10.0	5_exp_noRW	12	Rpleas_acq	CS_A	CPPC	LWWL	JQQJ	YFFY	DXXD	ZHHZ	genießen	träumen	sonnig	küssen	vertrauen	gütig	gemein	töten	sterben	krank	versagen	gierig	47pct	acq_USunple_CSpleas2_noRW	acq23456_noRW	3	76	0	0	300	300	676	46	0	1	1	blank2r.bmp	0	1	+	0	1	blank2r.bmp	252	1	LWWL	306	2	versagen	559	0	0	0	0	0	0	0	0	0	0	0	0	0	0	0	0	0	0	0	0	0	0	0	0	0	0	0	0	0	0	0	0	0	0	0	0	0	0	0
070319	13:33:00	13:40:59	477644	5.0.10.0	5_exp_noRW	12	Rpleas_acq	CS_A	CPPC	LWWL	JQQJ	YFFY	DXXD	ZHHZ	genießen	träumen	sonnig	küssen	vertrauen	gütig	gemein	töten	sterben	krank	versagen	gierig	47pct	acq_USpleas_CSpleas2_noRW	acq23456_noRW	3	77	0	0	300	300	450	50	0	1	1	blank2r.bmp	0	1	+	0	1	blank2r.bmp	252	1	LWWL	306	1	küssen	559	0	0	0	0	0	0	0	0	0	0	0	0	0	0	0	0	0	0	0	0	0	0	0	0	0	0	0	0	0	0	0	0	0	0	0	0	0	0	0
070319	13:33:00	13:41:00	479297	5.0.10.0	5_exp_noRW	12	Rpleas_acq	CS_A	CPPC	LWWL	JQQJ	YFFY	DXXD	ZHHZ	genießen	träumen	sonnig	küssen	vertrauen	gütig	gemein	töten	sterben	krank	versagen	gierig	53pct	acq_USunple_CSunple2_noRW	acq23456_noRW	3	78	0	0	300	300	475	46	0	1	1	blank2r.bmp	0	1	+	0	1	blank2r.bmp	252	1	YFFY	306	3	gierig	559	0	0	0	0	0	0	0	0	0	0	0	0	0	0	0	0	0	0	0	0	0	0	0	0	0	0	0	0	0	0	0	0	0	0	0	0	0	0	0
070319	13:33:00	13:41:02	481056	5.0.10.0	5_exp_noRW	12	Rpleas_acq	CS_A	CPPC	LWWL	JQQJ	YFFY	DXXD	ZHHZ	genießen	träumen	sonnig	küssen	vertrauen	gütig	gemein	töten	sterben	krank	versagen	gierig	47pct	acq_USunple_CSunple1_noRW	acq23456_noRW	3	79	0	0	300	300	581	46	0	1	1	blank2r.bmp	0	1	+	0	1	blank2r.bmp	252	1	JQQJ	306	1	gemein	559	0	0	0	0	0	0	0	0	0	0	0	0	0	0	0	0	0	0	0	0	0	0	0	0	0	0	0	0	0	0	0	0	0	0	0	0	0	0	0
070319	13:33:00	13:41:04	482762	5.0.10.0	5_exp_noRW	12	Rpleas_acq	CS_A	CPPC	LWWL	JQQJ	YFFY	DXXD	ZHHZ	genießen	träumen	sonnig	küssen	vertrauen	gütig	gemein	töten	sterben	krank	versagen	gierig	53pct	acq_USpleas_CSunple1_noRW	acq23456_noRW	3	80	0	0	300	300	521	50	0	1	1	blank2r.bmp	0	1	+	0	1	blank2r.bmp	252	1	JQQJ	306	3	sonnig	559	0	0	0	0	0	0	0	0	0	0	0	0	0	0	0	0	0	0	0	0	0	0	0	0	0	0	0	0	0	0	0	0	0	0	0	0	0	0	0
070319	13:33:00	13:41:14	492958	5.0.10.0	5_exp_noRW	12	Rpleas_acq	CS_A	CPPC	LWWL	JQQJ	YFFY	DXXD	ZHHZ	genießen	träumen	sonnig	küssen	vertrauen	gütig	gemein	töten	sterben	krank	versagen	gierig	53pct	acq_USpleas_CSpleas2_noRW	acq23456_noRW	4	1	0	0	300	300	459	50	0	1	1	blank2r.bmp	0	1	+	0	1	blank2r.bmp	252	1	LWWL	306	1	küssen	559	0	0	0	0	0	0	0	0	0	0	0	0	0	0	0	0	0	0	0	0	0	0	0	0	0	0	0	0	0	0	0	0	0	0	0	0	0	0	0
