date	time	script.currenttime	script.elapsedtime	build	script.currentexpt	subject	expressions.LRpleas_acq	expressions.conditionCS_A	expressions.CSpleas_1	expressions.CSpleas_2	expressions.CSunple_1	expressions.CSunple_2	expressions.distractor_1	expressions.distractor_2	expressions.US_pleas1	expressions.US_pleas2	expressions.US_pleas3	expressions.US_pleas4	expressions.US_pleas5	expressions.US_pleas6	expressions.US_unple1	expressions.US_unple2	expressions.US_unple3	expressions.US_unple4	expressions.US_unple5	expressions.US_unple6	counter.positions_noRW	trialcode	blockcode	blocknum	trialnum	windowcenter	inwindow	pretrialpause	posttrialpause	latency	response	expressions.correctedscore	correct	stimulusnumber1	stimulusitem1	stimulusonset1	stimulusnumber2	stimulusitem2	stimulusonset2	stimulusnumber3	stimulusitem3	stimulusonset3	stimulusnumber4	stimulusitem4	stimulusonset4	stimulusnumber5	stimulusitem5	stimulusonset5	stimulusnumber6	stimulusitem6	stimulusonset6	stimulusnumber7	stimulusitem7	stimulusonset7	stimulusnumber8	stimulusitem8	stimulusonset8	stimulusnumber9	stimulusitem9	stimulusonset9	stimulusnumber10	stimulusitem10	stimulusonset10	stimulusnumber11	stimulusitem11	stimulusonset11	stimulusnumber12	stimulusitem12	stimulusonset12	stimulusnumber13	stimulusitem13	stimulusonset13	stimulusnumber14	stimulusitem14	stimulusonset14	stimulusnumber15	stimulusitem15	stimulusonset15	stimulusnumber16	stimulusitem16	stimulusonset16	stimulusnumber17	stimulusitem17	stimulusonset17	stimulusnumber18	stimulusitem18	stimulusonset18
072419	14:27:44	14:30:10	144047	5.0.10.0	5_exp_RW	83	Rpleas_acq	CS_B	GWWG	MQQM	BZZB	YDDY	VKKV	JXXJ	treu	ehrlich	retten	fair	spielen	schön	tot	eitel	rächen	faul	strafen	schlecht	1	acq_USpleas_CSpleas1_RW	acq1_RW	1	1	0	0	300	300	1602	50	0	1	1	blank2r.bmp	0	1	+	0	1	blank2r.bmp	492	1	GWWG	492	1	blank2r.bmp	572	2	ehrlich	866	0	0	0	0	0	0	0	0	0	0	0	0	0	0	0	0	0	0	0	0	0	0	0	0	0	0	0	0	0	0	0	0	0	0	0	0
072419	14:27:44	14:30:12	146313	5.0.10.0	5_exp_RW	83	Rpleas_acq	CS_B	GWWG	MQQM	BZZB	YDDY	VKKV	JXXJ	treu	ehrlich	retten	fair	spielen	schön	tot	eitel	rächen	faul	strafen	schlecht	1	acq_USunple_CSunple2_RW	acq1_RW	1	2	0	0	300	300	795	46	0	1	1	blank2r.bmp	0	1	+	0	1	blank2r.bmp	492	1	YDDY	492	1	blank2r.bmp	572	2	strafen	866	0	0	0	0	0	0	0	0	0	0	0	0	0	0	0	0	0	0	0	0	0	0	0	0	0	0	0	0	0	0	0	0	0	0	0	0
072419	14:27:44	14:30:14	148659	5.0.10.0	5_exp_RW	83	Rpleas_acq	CS_B	GWWG	MQQM	BZZB	YDDY	VKKV	JXXJ	treu	ehrlich	retten	fair	spielen	schön	tot	eitel	rächen	faul	strafen	schlecht	1	acq_USpleas_CSpleas2_RW	acq1_RW	1	3	0	0	300	300	860	50	0	1	1	blank2r.bmp	0	1	+	0	1	blank2r.bmp	492	1	MQQM	492	1	blank2r.bmp	572	2	spielen	866	0	0	0	0	0	0	0	0	0	0	0	0	0	0	0	0	0	0	0	0	0	0	0	0	0	0	0	0	0	0	0	0	0	0	0	0
072419	14:27:44	14:30:16	150724	5.0.10.0	5_exp_RW	83	Rpleas_acq	CS_B	GWWG	MQQM	BZZB	YDDY	VKKV	JXXJ	treu	ehrlich	retten	fair	spielen	schön	tot	eitel	rächen	faul	strafen	schlecht	1	acq_USunple_CSunple1_RW	acq1_RW	1	4	0	0	300	300	575	46	0	1	1	blank2r.bmp	0	1	+	0	1	blank2r.bmp	492	1	BZZB	492	1	blank2r.bmp	572	3	rächen	866	0	0	0	0	0	0	0	0	0	0	0	0	0	0	0	0	0	0	0	0	0	0	0	0	0	0	0	0	0	0	0	0	0	0	0	0
072419	14:27:44	14:30:19	152977	5.0.10.0	5_exp_RW	83	Rpleas_acq	CS_B	GWWG	MQQM	BZZB	YDDY	VKKV	JXXJ	treu	ehrlich	retten	fair	spielen	schön	tot	eitel	rächen	faul	strafen	schlecht	1	acq_USpleas_CSpleas2_RW	acq1_RW	1	5	0	0	300	300	780	50	0	1	1	blank2r.bmp	0	1	+	0	1	blank2r.bmp	492	1	MQQM	492	1	blank2r.bmp	572	1	fair	866	0	0	0	0	0	0	0	0	0	0	0	0	0	0	0	0	0	0	0	0	0	0	0	0	0	0	0	0	0	0	0	0	0	0	0	0
072419	14:27:44	14:30:21	155149	5.0.10.0	5_exp_RW	83	Rpleas_acq	CS_B	GWWG	MQQM	BZZB	YDDY	VKKV	JXXJ	treu	ehrlich	retten	fair	spielen	schön	tot	eitel	rächen	faul	strafen	schlecht	1	acq_USpleas_CSpleas2_RW	acq1_RW	1	6	0	0	300	300	686	50	0	1	1	blank2r.bmp	0	1	+	0	1	blank2r.bmp	492	1	MQQM	492	1	blank2r.bmp	572	3	schön	866	0	0	0	0	0	0	0	0	0	0	0	0	0	0	0	0	0	0	0	0	0	0	0	0	0	0	0	0	0	0	0	0	0	0	0	0
072419	14:27:44	14:30:23	157149	5.0.10.0	5_exp_RW	83	Rpleas_acq	CS_B	GWWG	MQQM	BZZB	YDDY	VKKV	JXXJ	treu	ehrlich	retten	fair	spielen	schön	tot	eitel	rächen	faul	strafen	schlecht	1	acq_USpleas_CSpleas1_RW	acq1_RW	1	7	0	0	300	300	521	50	0	1	1	blank2r.bmp	0	1	+	0	1	blank2r.bmp	492	1	GWWG	492	1	blank2r.bmp	572	1	treu	866	0	0	0	0	0	0	0	0	0	0	0	0	0	0	0	0	0	0	0	0	0	0	0	0	0	0	0	0	0	0	0	0	0	0	0	0
072419	14:27:44	14:30:25	159508	5.0.10.0	5_exp_RW	83	Rpleas_acq	CS_B	GWWG	MQQM	BZZB	YDDY	VKKV	JXXJ	treu	ehrlich	retten	fair	spielen	schön	tot	eitel	rächen	faul	strafen	schlecht	1	acq_USpleas_CSpleas1_RW	acq1_RW	1	8	0	0	300	300	887	50	0	1	1	blank2r.bmp	0	1	+	0	1	blank2r.bmp	492	1	GWWG	492	1	blank2r.bmp	572	3	retten	866	0	0	0	0	0	0	0	0	0	0	0	0	0	0	0	0	0	0	0	0	0	0	0	0	0	0	0	0	0	0	0	0	0	0	0	0
072419	14:27:44	14:30:28	161920	5.0.10.0	5_exp_RW	83	Rpleas_acq	CS_B	GWWG	MQQM	BZZB	YDDY	VKKV	JXXJ	treu	ehrlich	retten	fair	spielen	schön	tot	eitel	rächen	faul	strafen	schlecht	1	acq_USunple_CSunple2_RW	acq1_RW	1	9	0	0	300	300	923	46	0	1	1	blank2r.bmp	0	1	+	0	1	blank2r.bmp	492	1	YDDY	492	1	blank2r.bmp	572	1	faul	866	0	0	0	0	0	0	0	0	0	0	0	0	0	0	0	0	0	0	0	0	0	0	0	0	0	0	0	0	0	0	0	0	0	0	0	0
072419	14:27:44	14:30:30	164639	5.0.10.0	5_exp_RW	83	Rpleas_acq	CS_B	GWWG	MQQM	BZZB	YDDY	VKKV	JXXJ	treu	ehrlich	retten	fair	spielen	schön	tot	eitel	rächen	faul	strafen	schlecht	1	acq_USunple_CSunple1_RW	acq1_RW	1	10	0	0	300	300	1239	46	0	1	1	blank2r.bmp	0	1	+	0	1	blank2r.bmp	492	1	BZZB	492	1	blank2r.bmp	572	1	tot	866	0	0	0	0	0	0	0	0	0	0	0	0	0	0	0	0	0	0	0	0	0	0	0	0	0	0	0	0	0	0	0	0	0	0	0	0
072419	14:27:44	14:30:33	166878	5.0.10.0	5_exp_RW	83	Rpleas_acq	CS_B	GWWG	MQQM	BZZB	YDDY	VKKV	JXXJ	treu	ehrlich	retten	fair	spielen	schön	tot	eitel	rächen	faul	strafen	schlecht	1	acq_USunple_CSunple1_RW	acq1_RW	1	11	0	0	300	300	768	46	0	1	1	blank2r.bmp	0	1	+	0	1	blank2r.bmp	492	1	BZZB	492	1	blank2r.bmp	572	2	eitel	866	0	0	0	0	0	0	0	0	0	0	0	0	0	0	0	0	0	0	0	0	0	0	0	0	0	0	0	0	0	0	0	0	0	0	0	0
072419	14:27:44	14:30:35	169184	5.0.10.0	5_exp_RW	83	Rpleas_acq	CS_B	GWWG	MQQM	BZZB	YDDY	VKKV	JXXJ	treu	ehrlich	retten	fair	spielen	schön	tot	eitel	rächen	faul	strafen	schlecht	1	acq_USpleas_CSpleas1_RW	acq1_RW	1	12	0	0	300	300	814	50	0	1	1	blank2r.bmp	0	1	+	0	1	blank2r.bmp	492	1	GWWG	492	1	blank2r.bmp	572	3	retten	866	0	0	0	0	0	0	0	0	0	0	0	0	0	0	0	0	0	0	0	0	0	0	0	0	0	0	0	0	0	0	0	0	0	0	0	0
072419	14:27:44	14:30:37	171396	5.0.10.0	5_exp_RW	83	Rpleas_acq	CS_B	GWWG	MQQM	BZZB	YDDY	VKKV	JXXJ	treu	ehrlich	retten	fair	spielen	schön	tot	eitel	rächen	faul	strafen	schlecht	1	acq_USunple_CSunple2_RW	acq1_RW	1	13	0	0	300	300	732	46	0	1	1	blank2r.bmp	0	1	+	0	1	blank2r.bmp	492	1	YDDY	492	1	blank2r.bmp	572	3	schlecht	866	0	0	0	0	0	0	0	0	0	0	0	0	0	0	0	0	0	0	0	0	0	0	0	0	0	0	0	0	0	0	0	0	0	0	0	0
072419	14:27:44	14:30:39	173422	5.0.10.0	5_exp_RW	83	Rpleas_acq	CS_B	GWWG	MQQM	BZZB	YDDY	VKKV	JXXJ	treu	ehrlich	retten	fair	spielen	schön	tot	eitel	rächen	faul	strafen	schlecht	1	acq_USunple_CSunple1_RW	acq1_RW	1	14	0	0	300	300	556	46	0	1	1	blank2r.bmp	0	1	+	0	1	blank2r.bmp	492	1	BZZB	492	1	blank2r.bmp	572	1	tot	866	0	0	0	0	0	0	0	0	0	0	0	0	0	0	0	0	0	0	0	0	0	0	0	0	0	0	0	0	0	0	0	0	0	0	0	0
072419	14:27:44	14:30:41	175394	5.0.10.0	5_exp_RW	83	Rpleas_acq	CS_B	GWWG	MQQM	BZZB	YDDY	VKKV	JXXJ	treu	ehrlich	retten	fair	spielen	schön	tot	eitel	rächen	faul	strafen	schlecht	1	acq_USpleas_CSpleas2_RW	acq1_RW	1	15	0	0	300	300	482	50	0	1	1	blank2r.bmp	0	1	+	0	1	blank2r.bmp	492	1	MQQM	492	1	blank2r.bmp	572	3	schön	866	0	0	0	0	0	0	0	0	0	0	0	0	0	0	0	0	0	0	0	0	0	0	0	0	0	0	0	0	0	0	0	0	0	0	0	0
072419	14:27:44	14:30:43	177420	5.0.10.0	5_exp_RW	83	Rpleas_acq	CS_B	GWWG	MQQM	BZZB	YDDY	VKKV	JXXJ	treu	ehrlich	retten	fair	spielen	schön	tot	eitel	rächen	faul	strafen	schlecht	1	acq_USunple_CSunple2_RW	acq1_RW	1	16	0	0	300	300	537	46	0	1	1	blank2r.bmp	0	1	+	0	1	blank2r.bmp	492	1	YDDY	492	1	blank2r.bmp	572	2	strafen	866	0	0	0	0	0	0	0	0	0	0	0	0	0	0	0	0	0	0	0	0	0	0	0	0	0	0	0	0	0	0	0	0	0	0	0	0
072419	14:27:44	14:31:55	249698	5.0.10.0	5_exp_RW	83	Rpleas_acq	CS_B	GWWG	MQQM	BZZB	YDDY	VKKV	JXXJ	treu	ehrlich	retten	fair	spielen	schön	tot	eitel	rächen	faul	strafen	schlecht	1	acq_USpleas_CSpleas1_RW	acq2_RW	2	1	480	0	300	300	658	50	0	1	1	blank2r.bmp	0	1	+	0	1	blank2r.bmp	492	1	GWWG	492	1	blank2r.bmp	572	1	treu	866	1	!	1319	1	!	-1	0	0	0	0	0	0	0	0	0	0	0	0	0	0	0	0	0	0	0	0	0	0	0	0	0	0	0	0	0	0
072419	14:27:44	14:31:58	251950	5.0.10.0	5_exp_RW	83	Rpleas_acq	CS_B	GWWG	MQQM	BZZB	YDDY	VKKV	JXXJ	treu	ehrlich	retten	fair	spielen	schön	tot	eitel	rächen	faul	strafen	schlecht	1	acq_USunple_CSunple2_RW	acq2_RW	2	2	480	1	300	300	452	46	0	1	1	blank2r.bmp	0	1	+	0	1	blank2r.bmp	492	1	YDDY	492	1	blank2r.bmp	572	3	schlecht	866	1	!	1319	1	!	1346	0	0	0	0	0	0	0	0	0	0	0	0	0	0	0	0	0	0	0	0	0	0	0	0	0	0	0	0	0	0
072419	14:27:44	14:32:00	254256	5.0.10.0	5_exp_RW	83	Rpleas_acq	CS_B	GWWG	MQQM	BZZB	YDDY	VKKV	JXXJ	treu	ehrlich	retten	fair	spielen	schön	tot	eitel	rächen	faul	strafen	schlecht	1	acq_USunple_CSunple1_RW	acq2_RW	2	3	480	1	300	300	513	46	0	1	1	blank2r.bmp	0	1	+	0	1	blank2r.bmp	492	1	BZZB	492	1	blank2r.bmp	572	3	rächen	866	1	!	1319	1	!	1412	0	0	0	0	0	0	0	0	0	0	0	0	0	0	0	0	0	0	0	0	0	0	0	0	0	0	0	0	0	0
072419	14:27:44	14:32:02	256521	5.0.10.0	5_exp_RW	83	Rpleas_acq	CS_B	GWWG	MQQM	BZZB	YDDY	VKKV	JXXJ	treu	ehrlich	retten	fair	spielen	schön	tot	eitel	rächen	faul	strafen	schlecht	1	acq_USpleas_CSpleas2_RW	acq2_RW	2	4	480	1	300	300	472	50	0	1	1	blank2r.bmp	0	1	+	0	1	blank2r.bmp	492	1	MQQM	492	1	blank2r.bmp	572	1	fair	866	1	!	1319	1	!	1372	0	0	0	0	0	0	0	0	0	0	0	0	0	0	0	0	0	0	0	0	0	0	0	0	0	0	0	0	0	0
072419	14:27:44	14:32:04	258800	5.0.10.0	5_exp_RW	83	Rpleas_acq	CS_B	GWWG	MQQM	BZZB	YDDY	VKKV	JXXJ	treu	ehrlich	retten	fair	spielen	schön	tot	eitel	rächen	faul	strafen	schlecht	1	acq_USpleas_CSpleas2_RW	acq2_RW	2	5	480	1	300	300	482	50	0	1	1	blank2r.bmp	0	1	+	0	1	blank2r.bmp	492	1	MQQM	492	1	blank2r.bmp	572	2	spielen	866	1	!	1319	1	!	1386	0	0	0	0	0	0	0	0	0	0	0	0	0	0	0	0	0	0	0	0	0	0	0	0	0	0	0	0	0	0
072419	14:27:44	14:32:07	260946	5.0.10.0	5_exp_RW	83	Rpleas_acq	CS_B	GWWG	MQQM	BZZB	YDDY	VKKV	JXXJ	treu	ehrlich	retten	fair	spielen	schön	tot	eitel	rächen	faul	strafen	schlecht	1	acq_USunple_CSunple2_RW	acq2_RW	2	6	480	0	300	300	384	46	0	1	1	blank2r.bmp	0	1	+	0	1	blank2r.bmp	492	1	YDDY	492	1	blank2r.bmp	572	1	faul	866	1	!	-1	1	!	-1	0	0	0	0	0	0	0	0	0	0	0	0	0	0	0	0	0	0	0	0	0	0	0	0	0	0	0	0	0	0
072419	14:27:44	14:32:09	263239	5.0.10.0	5_exp_RW	83	Rpleas_acq	CS_B	GWWG	MQQM	BZZB	YDDY	VKKV	JXXJ	treu	ehrlich	retten	fair	spielen	schön	tot	eitel	rächen	faul	strafen	schlecht	1	acq_USpleas_CSpleas1_RW	acq2_RW	2	7	480	1	300	300	487	50	0	1	1	blank2r.bmp	0	1	+	0	1	blank2r.bmp	492	1	GWWG	492	1	blank2r.bmp	572	2	ehrlich	866	1	!	1319	1	!	1386	0	0	0	0	0	0	0	0	0	0	0	0	0	0	0	0	0	0	0	0	0	0	0	0	0	0	0	0	0	0
072419	14:27:44	14:32:11	265398	5.0.10.0	5_exp_RW	83	Rpleas_acq	CS_B	GWWG	MQQM	BZZB	YDDY	VKKV	JXXJ	treu	ehrlich	retten	fair	spielen	schön	tot	eitel	rächen	faul	strafen	schlecht	1	acq_USunple_CSunple2_RW	acq2_RW	2	8	480	0	300	300	372	46	0	1	1	blank2r.bmp	0	1	+	0	1	blank2r.bmp	492	1	YDDY	492	1	blank2r.bmp	572	1	faul	866	1	!	-1	1	!	-1	0	0	0	0	0	0	0	0	0	0	0	0	0	0	0	0	0	0	0	0	0	0	0	0	0	0	0	0	0	0
072419	14:27:44	14:32:13	267530	5.0.10.0	5_exp_RW	83	Rpleas_acq	CS_B	GWWG	MQQM	BZZB	YDDY	VKKV	JXXJ	treu	ehrlich	retten	fair	spielen	schön	tot	eitel	rächen	faul	strafen	schlecht	1	acq_USpleas_CSpleas2_RW	acq2_RW	2	9	480	0	300	300	355	50	0	1	1	blank2r.bmp	0	1	+	0	1	blank2r.bmp	492	1	MQQM	492	1	blank2r.bmp	572	2	spielen	866	1	!	-1	1	!	-1	0	0	0	0	0	0	0	0	0	0	0	0	0	0	0	0	0	0	0	0	0	0	0	0	0	0	0	0	0	0
072419	14:27:44	14:32:15	269689	5.0.10.0	5_exp_RW	83	Rpleas_acq	CS_B	GWWG	MQQM	BZZB	YDDY	VKKV	JXXJ	treu	ehrlich	retten	fair	spielen	schön	tot	eitel	rächen	faul	strafen	schlecht	1	acq_USunple_CSunple1_RW	acq2_RW	2	10	480	0	300	300	361	46	0	1	1	blank2r.bmp	0	1	+	0	1	blank2r.bmp	492	1	BZZB	492	1	blank2r.bmp	572	2	eitel	866	1	!	-1	1	!	-1	0	0	0	0	0	0	0	0	0	0	0	0	0	0	0	0	0	0	0	0	0	0	0	0	0	0	0	0	0	0
072419	14:27:44	14:32:17	271729	5.0.10.0	5_exp_RW	83	Rpleas_acq	CS_B	GWWG	MQQM	BZZB	YDDY	VKKV	JXXJ	treu	ehrlich	retten	fair	spielen	schön	tot	eitel	rächen	faul	strafen	schlecht	1	acq_USpleas_CSpleas1_RW	acq2_RW	2	11	480	0	300	300	257	50	0	1	1	blank2r.bmp	0	1	+	0	1	blank2r.bmp	492	1	GWWG	492	1	blank2r.bmp	572	3	retten	866	1	!	-1	1	!	-1	0	0	0	0	0	0	0	0	0	0	0	0	0	0	0	0	0	0	0	0	0	0	0	0	0	0	0	0	0	0
072419	14:27:44	14:32:20	274061	5.0.10.0	5_exp_RW	83	Rpleas_acq	CS_B	GWWG	MQQM	BZZB	YDDY	VKKV	JXXJ	treu	ehrlich	retten	fair	spielen	schön	tot	eitel	rächen	faul	strafen	schlecht	1	acq_USpleas_CSpleas2_RW	acq2_RW	2	12	480	0	300	300	309	46	0	0	1	blank2r.bmp	0	1	+	0	1	blank2r.bmp	492	1	MQQM	492	1	blank2r.bmp	572	1	fair	866	1	FEHLER	1519	1	!	-1	1	!	-1	0	0	0	0	0	0	0	0	0	0	0	0	0	0	0	0	0	0	0	0	0	0	0	0	0	0	0
072419	14:27:44	14:32:22	275940	5.0.10.0	5_exp_RW	83	Rpleas_acq	CS_B	GWWG	MQQM	BZZB	YDDY	VKKV	JXXJ	treu	ehrlich	retten	fair	spielen	schön	tot	eitel	rächen	faul	strafen	schlecht	1	acq_USunple_CSunple2_RW	acq2_RW	2	13	480	0	300	300	87	50	0	0	1	blank2r.bmp	0	1	+	0	1	blank2r.bmp	492	1	YDDY	492	1	blank2r.bmp	572	2	strafen	866	1	FEHLER	1292	1	!	-1	1	!	-1	0	0	0	0	0	0	0	0	0	0	0	0	0	0	0	0	0	0	0	0	0	0	0	0	0	0	0
072419	14:27:44	14:32:24	278086	5.0.10.0	5_exp_RW	83	Rpleas_acq	CS_B	GWWG	MQQM	BZZB	YDDY	VKKV	JXXJ	treu	ehrlich	retten	fair	spielen	schön	tot	eitel	rächen	faul	strafen	schlecht	1	acq_USpleas_CSpleas2_RW	acq2_RW	2	14	480	0	300	300	364	46	0	0	1	blank2r.bmp	0	1	+	0	1	blank2r.bmp	492	1	MQQM	492	1	blank2r.bmp	572	3	schön	866	1	FEHLER	1572	1	!	-1	1	!	-1	0	0	0	0	0	0	0	0	0	0	0	0	0	0	0	0	0	0	0	0	0	0	0	0	0	0	0
072419	14:27:44	14:32:26	280232	5.0.10.0	5_exp_RW	83	Rpleas_acq	CS_B	GWWG	MQQM	BZZB	YDDY	VKKV	JXXJ	treu	ehrlich	retten	fair	spielen	schön	tot	eitel	rächen	faul	strafen	schlecht	1	acq_USunple_CSunple2_RW	acq2_RW	2	15	480	0	300	300	346	50	0	0	1	blank2r.bmp	0	1	+	0	1	blank2r.bmp	492	1	YDDY	492	1	blank2r.bmp	572	3	schlecht	866	1	FEHLER	1559	1	!	-1	1	!	-1	0	0	0	0	0	0	0	0	0	0	0	0	0	0	0	0	0	0	0	0	0	0	0	0	0	0	0
072419	14:27:44	14:32:28	282191	5.0.10.0	5_exp_RW	83	Rpleas_acq	CS_B	GWWG	MQQM	BZZB	YDDY	VKKV	JXXJ	treu	ehrlich	retten	fair	spielen	schön	tot	eitel	rächen	faul	strafen	schlecht	1	acq_USpleas_CSpleas1_RW	acq2_RW	2	16	480	0	300	300	410	50	0	1	1	blank2r.bmp	0	1	+	0	1	blank2r.bmp	492	1	GWWG	492	1	blank2r.bmp	572	1	treu	866	1	!	-1	1	!	-1	0	0	0	0	0	0	0	0	0	0	0	0	0	0	0	0	0	0	0	0	0	0	0	0	0	0	0	0	0	0
072419	14:27:44	14:32:30	284337	5.0.10.0	5_exp_RW	83	Rpleas_acq	CS_B	GWWG	MQQM	BZZB	YDDY	VKKV	JXXJ	treu	ehrlich	retten	fair	spielen	schön	tot	eitel	rächen	faul	strafen	schlecht	1	acq_USunple_CSunple1_RW	acq2_RW	2	17	480	0	300	300	370	46	0	1	1	blank2r.bmp	0	1	+	0	1	blank2r.bmp	492	1	BZZB	492	1	blank2r.bmp	572	3	rächen	866	1	!	-1	1	!	-1	0	0	0	0	0	0	0	0	0	0	0	0	0	0	0	0	0	0	0	0	0	0	0	0	0	0	0	0	0	0
072419	14:27:44	14:32:32	286349	5.0.10.0	5_exp_RW	83	Rpleas_acq	CS_B	GWWG	MQQM	BZZB	YDDY	VKKV	JXXJ	treu	ehrlich	retten	fair	spielen	schön	tot	eitel	rächen	faul	strafen	schlecht	1	acq_USpleas_CSpleas1_RW	acq2_RW	2	18	480	0	300	300	235	50	0	1	1	blank2r.bmp	0	1	+	0	1	blank2r.bmp	492	1	GWWG	492	1	blank2r.bmp	572	2	ehrlich	866	1	!	-1	1	!	-1	0	0	0	0	0	0	0	0	0	0	0	0	0	0	0	0	0	0	0	0	0	0	0	0	0	0	0	0	0	0
072419	14:27:44	14:32:34	288642	5.0.10.0	5_exp_RW	83	Rpleas_acq	CS_B	GWWG	MQQM	BZZB	YDDY	VKKV	JXXJ	treu	ehrlich	retten	fair	spielen	schön	tot	eitel	rächen	faul	strafen	schlecht	1	acq_USunple_CSunple2_RW	acq2_RW	2	19	480	0	300	300	281	50	0	0	1	blank2r.bmp	0	1	+	0	1	blank2r.bmp	492	1	YDDY	492	1	blank2r.bmp	572	2	strafen	866	1	FEHLER	1492	1	!	-1	1	!	-1	0	0	0	0	0	0	0	0	0	0	0	0	0	0	0	0	0	0	0	0	0	0	0	0	0	0	0
072419	14:27:44	14:32:42	295892	5.0.10.0	5_exp_RW	83	Rpleas_acq	CS_B	GWWG	MQQM	BZZB	YDDY	VKKV	JXXJ	treu	ehrlich	retten	fair	spielen	schön	tot	eitel	rächen	faul	strafen	schlecht	1	acq_USpleas_CSpleas2_RW	acq2_RW	2	20	480	0	300	300	5697	50	0	1	1	blank2r.bmp	0	1	+	0	1	blank2r.bmp	492	1	MQQM	492	1	blank2r.bmp	572	2	spielen	866	1	!	1319	1	!	-1	0	0	0	0	0	0	0	0	0	0	0	0	0	0	0	0	0	0	0	0	0	0	0	0	0	0	0	0	0	0
072419	14:27:44	14:32:44	298384	5.0.10.0	5_exp_RW	83	Rpleas_acq	CS_B	GWWG	MQQM	BZZB	YDDY	VKKV	JXXJ	treu	ehrlich	retten	fair	spielen	schön	tot	eitel	rächen	faul	strafen	schlecht	1	acq_USpleas_CSpleas1_RW	acq2_RW	2	21	480	0	300	300	692	50	0	1	1	blank2r.bmp	0	1	+	0	1	blank2r.bmp	492	1	GWWG	492	1	blank2r.bmp	572	2	ehrlich	866	1	!	1319	1	!	-1	0	0	0	0	0	0	0	0	0	0	0	0	0	0	0	0	0	0	0	0	0	0	0	0	0	0	0	0	0	0
072419	14:27:44	14:32:46	300770	5.0.10.0	5_exp_RW	83	Rpleas_acq	CS_B	GWWG	MQQM	BZZB	YDDY	VKKV	JXXJ	treu	ehrlich	retten	fair	spielen	schön	tot	eitel	rächen	faul	strafen	schlecht	1	acq_USunple_CSunple1_RW	acq2_RW	2	22	480	0	300	300	604	46	0	1	1	blank2r.bmp	0	1	+	0	1	blank2r.bmp	492	1	BZZB	492	1	blank2r.bmp	572	1	tot	866	1	!	1319	1	!	-1	0	0	0	0	0	0	0	0	0	0	0	0	0	0	0	0	0	0	0	0	0	0	0	0	0	0	0	0	0	0
072419	14:27:44	14:32:49	303129	5.0.10.0	5_exp_RW	83	Rpleas_acq	CS_B	GWWG	MQQM	BZZB	YDDY	VKKV	JXXJ	treu	ehrlich	retten	fair	spielen	schön	tot	eitel	rächen	faul	strafen	schlecht	1	acq_USunple_CSunple1_RW	acq2_RW	2	23	480	0	300	300	354	50	0	0	1	blank2r.bmp	0	1	+	0	1	blank2r.bmp	492	1	BZZB	492	1	blank2r.bmp	572	2	eitel	866	1	FEHLER	1559	1	!	-1	1	!	-1	0	0	0	0	0	0	0	0	0	0	0	0	0	0	0	0	0	0	0	0	0	0	0	0	0	0	0
072419	14:27:44	14:32:56	309860	5.0.10.0	5_exp_RW	83	Rpleas_acq	CS_B	GWWG	MQQM	BZZB	YDDY	VKKV	JXXJ	treu	ehrlich	retten	fair	spielen	schön	tot	eitel	rächen	faul	strafen	schlecht	1	acq_USunple_CSunple1_RW	acq2_RW	2	24	480	0	300	300	5171	46	0	1	1	blank2r.bmp	0	1	+	0	1	blank2r.bmp	492	1	BZZB	492	1	blank2r.bmp	572	2	eitel	866	1	!	1319	1	!	-1	0	0	0	0	0	0	0	0	0	0	0	0	0	0	0	0	0	0	0	0	0	0	0	0	0	0	0	0	0	0
072419	14:27:44	14:33:23	337115	5.0.10.0	5_exp_RW	83	Rpleas_acq	CS_B	GWWG	MQQM	BZZB	YDDY	VKKV	JXXJ	treu	ehrlich	retten	fair	spielen	schön	tot	eitel	rächen	faul	strafen	schlecht	1	acq_USunple_CSunple2_RW	acq3_RW	3	1	453	0	300	300	901	46	0	1	1	blank2r.bmp	0	1	+	0	1	blank2r.bmp	492	1	YDDY	492	1	blank2r.bmp	572	1	faul	866	1	!	1292	1	!	-1	0	0	0	0	0	0	0	0	0	0	0	0	0	0	0	0	0	0	0	0	0	0	0	0	0	0	0	0	0	0
072419	14:27:44	14:33:25	339328	5.0.10.0	5_exp_RW	83	Rpleas_acq	CS_B	GWWG	MQQM	BZZB	YDDY	VKKV	JXXJ	treu	ehrlich	retten	fair	spielen	schön	tot	eitel	rächen	faul	strafen	schlecht	1	acq_USpleas_CSpleas1_RW	acq3_RW	3	2	453	1	300	300	403	50	0	1	1	blank2r.bmp	0	1	+	0	1	blank2r.bmp	492	1	GWWG	492	1	blank2r.bmp	572	1	treu	866	1	!	1292	1	!	1306	0	0	0	0	0	0	0	0	0	0	0	0	0	0	0	0	0	0	0	0	0	0	0	0	0	0	0	0	0	0
072419	14:27:44	14:33:27	341673	5.0.10.0	5_exp_RW	83	Rpleas_acq	CS_B	GWWG	MQQM	BZZB	YDDY	VKKV	JXXJ	treu	ehrlich	retten	fair	spielen	schön	tot	eitel	rächen	faul	strafen	schlecht	1	acq_USunple_CSunple1_RW	acq3_RW	3	3	453	0	300	300	575	46	0	1	1	blank2r.bmp	0	1	+	0	1	blank2r.bmp	492	1	BZZB	492	1	blank2r.bmp	572	1	tot	866	1	!	1292	1	!	-1	0	0	0	0	0	0	0	0	0	0	0	0	0	0	0	0	0	0	0	0	0	0	0	0	0	0	0	0	0	0
072419	14:27:44	14:33:30	344006	5.0.10.0	5_exp_RW	83	Rpleas_acq	CS_B	GWWG	MQQM	BZZB	YDDY	VKKV	JXXJ	treu	ehrlich	retten	fair	spielen	schön	tot	eitel	rächen	faul	strafen	schlecht	1	acq_USpleas_CSpleas2_RW	acq3_RW	3	4	453	0	300	300	552	50	0	1	1	blank2r.bmp	0	1	+	0	1	blank2r.bmp	492	1	MQQM	492	1	blank2r.bmp	572	3	schön	866	1	!	1292	1	!	-1	0	0	0	0	0	0	0	0	0	0	0	0	0	0	0	0	0	0	0	0	0	0	0	0	0	0	0	0	0	0
072419	14:27:44	14:33:32	346125	5.0.10.0	5_exp_RW	83	Rpleas_acq	CS_B	GWWG	MQQM	BZZB	YDDY	VKKV	JXXJ	treu	ehrlich	retten	fair	spielen	schön	tot	eitel	rächen	faul	strafen	schlecht	1	acq_USpleas_CSpleas2_RW	acq3_RW	3	5	453	0	300	300	336	50	0	1	1	blank2r.bmp	0	1	+	0	1	blank2r.bmp	492	1	MQQM	492	1	blank2r.bmp	572	1	fair	866	1	!	-1	1	!	-1	0	0	0	0	0	0	0	0	0	0	0	0	0	0	0	0	0	0	0	0	0	0	0	0	0	0	0	0	0	0
072419	14:27:44	14:33:34	348444	5.0.10.0	5_exp_RW	83	Rpleas_acq	CS_B	GWWG	MQQM	BZZB	YDDY	VKKV	JXXJ	treu	ehrlich	retten	fair	spielen	schön	tot	eitel	rächen	faul	strafen	schlecht	1	acq_USunple_CSunple2_RW	acq3_RW	3	6	453	1	300	300	505	46	0	1	1	blank2r.bmp	0	1	+	0	1	blank2r.bmp	492	1	YDDY	492	1	blank2r.bmp	572	3	schlecht	866	1	!	1292	1	!	1412	0	0	0	0	0	0	0	0	0	0	0	0	0	0	0	0	0	0	0	0	0	0	0	0	0	0	0	0	0	0
072419	14:27:44	14:33:37	350830	5.0.10.0	5_exp_RW	83	Rpleas_acq	CS_B	GWWG	MQQM	BZZB	YDDY	VKKV	JXXJ	treu	ehrlich	retten	fair	spielen	schön	tot	eitel	rächen	faul	strafen	schlecht	1	acq_USpleas_CSpleas1_RW	acq3_RW	3	7	453	0	300	300	382	46	0	0	1	blank2r.bmp	0	1	+	0	1	blank2r.bmp	492	1	GWWG	492	1	blank2r.bmp	572	3	retten	866	1	FEHLER	1586	1	!	-1	1	!	-1	0	0	0	0	0	0	0	0	0	0	0	0	0	0	0	0	0	0	0	0	0	0	0	0	0	0	0
072419	14:27:44	14:33:39	352962	5.0.10.0	5_exp_RW	83	Rpleas_acq	CS_B	GWWG	MQQM	BZZB	YDDY	VKKV	JXXJ	treu	ehrlich	retten	fair	spielen	schön	tot	eitel	rächen	faul	strafen	schlecht	1	acq_USpleas_CSpleas1_RW	acq3_RW	3	8	453	0	300	300	585	50	0	1	1	blank2r.bmp	0	1	+	0	1	blank2r.bmp	492	1	GWWG	492	1	blank2r.bmp	572	1	treu	866	1	!	1292	1	!	-1	0	0	0	0	0	0	0	0	0	0	0	0	0	0	0	0	0	0	0	0	0	0	0	0	0	0	0	0	0	0
072419	14:27:44	14:33:41	355281	5.0.10.0	5_exp_RW	83	Rpleas_acq	CS_B	GWWG	MQQM	BZZB	YDDY	VKKV	JXXJ	treu	ehrlich	retten	fair	spielen	schön	tot	eitel	rächen	faul	strafen	schlecht	1	acq_USpleas_CSpleas2_RW	acq3_RW	3	9	453	1	300	300	508	50	0	1	1	blank2r.bmp	0	1	+	0	1	blank2r.bmp	492	1	MQQM	492	1	blank2r.bmp	572	2	spielen	866	1	!	1292	1	!	1412	0	0	0	0	0	0	0	0	0	0	0	0	0	0	0	0	0	0	0	0	0	0	0	0	0	0	0	0	0	0
072419	14:27:44	14:33:43	357640	5.0.10.0	5_exp_RW	83	Rpleas_acq	CS_B	GWWG	MQQM	BZZB	YDDY	VKKV	JXXJ	treu	ehrlich	retten	fair	spielen	schön	tot	eitel	rächen	faul	strafen	schlecht	1	acq_USunple_CSunple1_RW	acq3_RW	3	10	453	0	300	300	589	46	0	1	1	blank2r.bmp	0	1	+	0	1	blank2r.bmp	492	1	BZZB	492	1	blank2r.bmp	572	3	rächen	866	1	!	1292	1	!	-1	0	0	0	0	0	0	0	0	0	0	0	0	0	0	0	0	0	0	0	0	0	0	0	0	0	0	0	0	0	0
072419	14:27:44	14:33:46	359986	5.0.10.0	5_exp_RW	83	Rpleas_acq	CS_B	GWWG	MQQM	BZZB	YDDY	VKKV	JXXJ	treu	ehrlich	retten	fair	spielen	schön	tot	eitel	rächen	faul	strafen	schlecht	1	acq_USpleas_CSpleas2_RW	acq3_RW	3	11	453	0	300	300	571	50	0	1	1	blank2r.bmp	0	1	+	0	1	blank2r.bmp	492	1	MQQM	492	1	blank2r.bmp	572	1	fair	866	1	!	1292	1	!	-1	0	0	0	0	0	0	0	0	0	0	0	0	0	0	0	0	0	0	0	0	0	0	0	0	0	0	0	0	0	0
072419	14:27:44	14:33:48	362092	5.0.10.0	5_exp_RW	83	Rpleas_acq	CS_B	GWWG	MQQM	BZZB	YDDY	VKKV	JXXJ	treu	ehrlich	retten	fair	spielen	schön	tot	eitel	rächen	faul	strafen	schlecht	1	acq_USpleas_CSpleas1_RW	acq3_RW	3	12	453	0	300	300	329	50	0	1	1	blank2r.bmp	0	1	+	0	1	blank2r.bmp	492	1	GWWG	492	1	blank2r.bmp	572	3	retten	866	1	!	-1	1	!	-1	0	0	0	0	0	0	0	0	0	0	0	0	0	0	0	0	0	0	0	0	0	0	0	0	0	0	0	0	0	0
072419	14:27:44	14:33:50	364357	5.0.10.0	5_exp_RW	83	Rpleas_acq	CS_B	GWWG	MQQM	BZZB	YDDY	VKKV	JXXJ	treu	ehrlich	retten	fair	spielen	schön	tot	eitel	rächen	faul	strafen	schlecht	1	acq_USunple_CSunple2_RW	acq3_RW	3	13	453	1	300	300	459	46	0	1	1	blank2r.bmp	0	1	+	0	1	blank2r.bmp	492	1	YDDY	492	1	blank2r.bmp	572	1	faul	866	1	!	1292	1	!	1359	0	0	0	0	0	0	0	0	0	0	0	0	0	0	0	0	0	0	0	0	0	0	0	0	0	0	0	0	0	0
072419	14:27:44	14:33:53	366823	5.0.10.0	5_exp_RW	83	Rpleas_acq	CS_B	GWWG	MQQM	BZZB	YDDY	VKKV	JXXJ	treu	ehrlich	retten	fair	spielen	schön	tot	eitel	rächen	faul	strafen	schlecht	1	acq_USunple_CSunple2_RW	acq3_RW	3	14	453	1	300	300	449	50	0	0	1	blank2r.bmp	0	1	+	0	1	blank2r.bmp	492	1	YDDY	492	1	blank2r.bmp	572	3	schlecht	866	1	FEHLER	1665	1	!	1292	1	!	1346	0	0	0	0	0	0	0	0	0	0	0	0	0	0	0	0	0	0	0	0	0	0	0	0	0	0	0
072419	14:27:44	14:33:55	368982	5.0.10.0	5_exp_RW	83	Rpleas_acq	CS_B	GWWG	MQQM	BZZB	YDDY	VKKV	JXXJ	treu	ehrlich	retten	fair	spielen	schön	tot	eitel	rächen	faul	strafen	schlecht	1	acq_USunple_CSunple1_RW	acq3_RW	3	15	453	0	300	300	383	50	0	0	1	blank2r.bmp	0	1	+	0	1	blank2r.bmp	492	1	BZZB	492	1	blank2r.bmp	572	2	eitel	866	1	FEHLER	1586	1	!	-1	1	!	-1	0	0	0	0	0	0	0	0	0	0	0	0	0	0	0	0	0	0	0	0	0	0	0	0	0	0	0
072419	14:27:44	14:33:57	371115	5.0.10.0	5_exp_RW	83	Rpleas_acq	CS_B	GWWG	MQQM	BZZB	YDDY	VKKV	JXXJ	treu	ehrlich	retten	fair	spielen	schön	tot	eitel	rächen	faul	strafen	schlecht	1	acq_USunple_CSunple1_RW	acq3_RW	3	16	453	0	300	300	579	46	0	1	1	blank2r.bmp	0	1	+	0	1	blank2r.bmp	492	1	BZZB	492	1	blank2r.bmp	572	3	rächen	866	1	!	1292	1	!	-1	0	0	0	0	0	0	0	0	0	0	0	0	0	0	0	0	0	0	0	0	0	0	0	0	0	0	0	0	0	0
072419	14:27:44	14:33:59	373447	5.0.10.0	5_exp_RW	83	Rpleas_acq	CS_B	GWWG	MQQM	BZZB	YDDY	VKKV	JXXJ	treu	ehrlich	retten	fair	spielen	schön	tot	eitel	rächen	faul	strafen	schlecht	1	acq_USpleas_CSpleas1_RW	acq3_RW	3	17	453	0	300	300	532	50	0	1	1	blank2r.bmp	0	1	+	0	1	blank2r.bmp	492	1	GWWG	492	1	blank2r.bmp	572	2	ehrlich	866	1	!	1292	1	!	-1	0	0	0	0	0	0	0	0	0	0	0	0	0	0	0	0	0	0	0	0	0	0	0	0	0	0	0	0	0	0
072419	14:27:44	14:34:01	375766	5.0.10.0	5_exp_RW	83	Rpleas_acq	CS_B	GWWG	MQQM	BZZB	YDDY	VKKV	JXXJ	treu	ehrlich	retten	fair	spielen	schön	tot	eitel	rächen	faul	strafen	schlecht	1	acq_USpleas_CSpleas2_RW	acq3_RW	3	18	453	0	300	300	313	46	0	0	1	blank2r.bmp	0	1	+	0	1	blank2r.bmp	492	1	MQQM	492	1	blank2r.bmp	572	3	schön	866	1	FEHLER	1519	1	!	-1	1	!	-1	0	0	0	0	0	0	0	0	0	0	0	0	0	0	0	0	0	0	0	0	0	0	0	0	0	0	0
072419	14:27:44	14:34:04	378165	5.0.10.0	5_exp_RW	83	Rpleas_acq	CS_B	GWWG	MQQM	BZZB	YDDY	VKKV	JXXJ	treu	ehrlich	retten	fair	spielen	schön	tot	eitel	rächen	faul	strafen	schlecht	1	acq_USunple_CSunple1_RW	acq3_RW	3	19	453	0	300	300	841	46	0	1	1	blank2r.bmp	0	1	+	0	1	blank2r.bmp	492	1	BZZB	492	1	blank2r.bmp	572	1	tot	866	1	!	1292	1	!	-1	0	0	0	0	0	0	0	0	0	0	0	0	0	0	0	0	0	0	0	0	0	0	0	0	0	0	0	0	0	0
072419	14:27:44	14:34:06	380404	5.0.10.0	5_exp_RW	83	Rpleas_acq	CS_B	GWWG	MQQM	BZZB	YDDY	VKKV	JXXJ	treu	ehrlich	retten	fair	spielen	schön	tot	eitel	rächen	faul	strafen	schlecht	1	acq_USunple_CSunple2_RW	acq3_RW	3	20	453	1	300	300	418	46	0	1	1	blank2r.bmp	0	1	+	0	1	blank2r.bmp	492	1	YDDY	492	1	blank2r.bmp	572	2	strafen	866	1	!	1292	1	!	1319	0	0	0	0	0	0	0	0	0	0	0	0	0	0	0	0	0	0	0	0	0	0	0	0	0	0	0	0	0	0
072419	14:27:44	14:34:08	382710	5.0.10.0	5_exp_RW	83	Rpleas_acq	CS_B	GWWG	MQQM	BZZB	YDDY	VKKV	JXXJ	treu	ehrlich	retten	fair	spielen	schön	tot	eitel	rächen	faul	strafen	schlecht	1	acq_USunple_CSunple1_RW	acq3_RW	3	21	453	0	300	300	532	46	0	1	1	blank2r.bmp	0	1	+	0	1	blank2r.bmp	492	1	BZZB	492	1	blank2r.bmp	572	2	eitel	866	1	!	1292	1	!	-1	0	0	0	0	0	0	0	0	0	0	0	0	0	0	0	0	0	0	0	0	0	0	0	0	0	0	0	0	0	0
072419	14:27:44	14:34:11	384989	5.0.10.0	5_exp_RW	83	Rpleas_acq	CS_B	GWWG	MQQM	BZZB	YDDY	VKKV	JXXJ	treu	ehrlich	retten	fair	spielen	schön	tot	eitel	rächen	faul	strafen	schlecht	1	acq_USpleas_CSpleas2_RW	acq3_RW	3	22	453	1	300	300	466	50	0	1	1	blank2r.bmp	0	1	+	0	1	blank2r.bmp	492	1	MQQM	492	1	blank2r.bmp	572	2	spielen	866	1	!	1292	1	!	1372	0	0	0	0	0	0	0	0	0	0	0	0	0	0	0	0	0	0	0	0	0	0	0	0	0	0	0	0	0	0
072419	14:27:44	14:34:13	387188	5.0.10.0	5_exp_RW	83	Rpleas_acq	CS_B	GWWG	MQQM	BZZB	YDDY	VKKV	JXXJ	treu	ehrlich	retten	fair	spielen	schön	tot	eitel	rächen	faul	strafen	schlecht	1	acq_USpleas_CSpleas1_RW	acq3_RW	3	23	453	1	300	300	409	50	0	1	1	blank2r.bmp	0	1	+	0	1	blank2r.bmp	492	1	GWWG	492	1	blank2r.bmp	572	2	ehrlich	866	1	!	1292	1	!	1306	0	0	0	0	0	0	0	0	0	0	0	0	0	0	0	0	0	0	0	0	0	0	0	0	0	0	0	0	0	0
072419	14:27:44	14:34:15	389494	5.0.10.0	5_exp_RW	83	Rpleas_acq	CS_B	GWWG	MQQM	BZZB	YDDY	VKKV	JXXJ	treu	ehrlich	retten	fair	spielen	schön	tot	eitel	rächen	faul	strafen	schlecht	1	acq_USunple_CSunple2_RW	acq3_RW	3	24	453	0	300	300	535	46	0	1	1	blank2r.bmp	0	1	+	0	1	blank2r.bmp	492	1	YDDY	492	1	blank2r.bmp	572	3	schlecht	866	1	!	1292	1	!	-1	0	0	0	0	0	0	0	0	0	0	0	0	0	0	0	0	0	0	0	0	0	0	0	0	0	0	0	0	0	0
072419	14:27:44	14:34:53	427558	5.0.10.0	5_exp_RW	83	Rpleas_acq	CS_B	GWWG	MQQM	BZZB	YDDY	VKKV	JXXJ	treu	ehrlich	retten	fair	spielen	schön	tot	eitel	rächen	faul	strafen	schlecht	1	acq_USunple_CSunple1_RW	acq4567_RW	4	1	400	1	300	300	410	46	0	1	1	blank2r.bmp	0	1	+	0	1	blank2r.bmp	492	1	BZZB	492	1	blank2r.bmp	572	1	tot	866	1	!	1239	1	!	1306	0	0	0	0	0	0	0	0	0	0	0	0	0	0	0	0	0	0	0	0	0	0	0	0	0	0	0	0	0	0
072419	14:27:44	14:34:56	429851	5.0.10.0	5_exp_RW	83	Rpleas_acq	CS_B	GWWG	MQQM	BZZB	YDDY	VKKV	JXXJ	treu	ehrlich	retten	fair	spielen	schön	tot	eitel	rächen	faul	strafen	schlecht	1	acq_USunple_CSunple1_RW	acq4567_RW	4	2	400	0	300	300	528	46	0	1	1	blank2r.bmp	0	1	+	0	1	blank2r.bmp	492	1	BZZB	492	1	blank2r.bmp	572	3	rächen	866	1	!	1239	1	!	-1	0	0	0	0	0	0	0	0	0	0	0	0	0	0	0	0	0	0	0	0	0	0	0	0	0	0	0	0	0	0
072419	14:27:44	14:34:58	432157	5.0.10.0	5_exp_RW	83	Rpleas_acq	CS_B	GWWG	MQQM	BZZB	YDDY	VKKV	JXXJ	treu	ehrlich	retten	fair	spielen	schön	tot	eitel	rächen	faul	strafen	schlecht	1	acq_USpleas_CSpleas2_RW	acq4567_RW	4	3	400	0	300	300	529	50	0	1	1	blank2r.bmp	0	1	+	0	1	blank2r.bmp	492	1	MQQM	492	1	blank2r.bmp	572	3	schön	866	1	!	1239	1	!	-1	0	0	0	0	0	0	0	0	0	0	0	0	0	0	0	0	0	0	0	0	0	0	0	0	0	0	0	0	0	0
072419	14:27:44	14:35:00	434329	5.0.10.0	5_exp_RW	83	Rpleas_acq	CS_B	GWWG	MQQM	BZZB	YDDY	VKKV	JXXJ	treu	ehrlich	retten	fair	spielen	schön	tot	eitel	rächen	faul	strafen	schlecht	1	acq_USunple_CSunple1_RW	acq4567_RW	4	4	400	1	300	300	346	46	0	1	1	blank2r.bmp	0	1	+	0	1	blank2r.bmp	492	1	BZZB	492	1	blank2r.bmp	572	1	tot	866	1	!	1239	1	!	1252	0	0	0	0	0	0	0	0	0	0	0	0	0	0	0	0	0	0	0	0	0	0	0	0	0	0	0	0	0	0
072419	14:27:44	14:35:02	436395	5.0.10.0	5_exp_RW	83	Rpleas_acq	CS_B	GWWG	MQQM	BZZB	YDDY	VKKV	JXXJ	treu	ehrlich	retten	fair	spielen	schön	tot	eitel	rächen	faul	strafen	schlecht	1	acq_USpleas_CSpleas2_RW	acq4567_RW	4	5	400	0	300	300	292	50	0	1	1	blank2r.bmp	0	1	+	0	1	blank2r.bmp	492	1	MQQM	492	1	blank2r.bmp	572	1	fair	866	1	!	-1	1	!	-1	0	0	0	0	0	0	0	0	0	0	0	0	0	0	0	0	0	0	0	0	0	0	0	0	0	0	0	0	0	0
072419	14:27:44	14:35:04	438661	5.0.10.0	5_exp_RW	83	Rpleas_acq	CS_B	GWWG	MQQM	BZZB	YDDY	VKKV	JXXJ	treu	ehrlich	retten	fair	spielen	schön	tot	eitel	rächen	faul	strafen	schlecht	1	acq_USpleas_CSpleas1_RW	acq4567_RW	4	6	400	1	300	300	456	50	0	1	1	blank2r.bmp	0	1	+	0	1	blank2r.bmp	492	1	GWWG	492	1	blank2r.bmp	572	3	retten	866	1	!	1239	1	!	1359	0	0	0	0	0	0	0	0	0	0	0	0	0	0	0	0	0	0	0	0	0	0	0	0	0	0	0	0	0	0
072419	14:27:44	14:35:07	440926	5.0.10.0	5_exp_RW	83	Rpleas_acq	CS_B	GWWG	MQQM	BZZB	YDDY	VKKV	JXXJ	treu	ehrlich	retten	fair	spielen	schön	tot	eitel	rächen	faul	strafen	schlecht	1	acq_USunple_CSunple2_RW	acq4567_RW	4	7	400	0	300	300	489	46	0	1	1	blank2r.bmp	0	1	+	0	1	blank2r.bmp	492	1	YDDY	492	1	blank2r.bmp	572	1	faul	866	1	!	1239	1	!	-1	0	0	0	0	0	0	0	0	0	0	0	0	0	0	0	0	0	0	0	0	0	0	0	0	0	0	0	0	0	0
072419	14:27:44	14:35:09	443192	5.0.10.0	5_exp_RW	83	Rpleas_acq	CS_B	GWWG	MQQM	BZZB	YDDY	VKKV	JXXJ	treu	ehrlich	retten	fair	spielen	schön	tot	eitel	rächen	faul	strafen	schlecht	1	acq_USunple_CSunple1_RW	acq4567_RW	4	8	400	0	300	300	488	46	0	1	1	blank2r.bmp	0	1	+	0	1	blank2r.bmp	492	1	BZZB	492	1	blank2r.bmp	572	2	eitel	866	1	!	1239	1	!	-1	0	0	0	0	0	0	0	0	0	0	0	0	0	0	0	0	0	0	0	0	0	0	0	0	0	0	0	0	0	0
072419	14:27:44	14:35:11	445431	5.0.10.0	5_exp_RW	83	Rpleas_acq	CS_B	GWWG	MQQM	BZZB	YDDY	VKKV	JXXJ	treu	ehrlich	retten	fair	spielen	schön	tot	eitel	rächen	faul	strafen	schlecht	1	acq_USpleas_CSpleas1_RW	acq4567_RW	4	9	400	1	300	300	429	50	0	1	1	blank2r.bmp	0	1	+	0	1	blank2r.bmp	492	1	GWWG	492	1	blank2r.bmp	572	1	treu	866	1	!	1239	1	!	1332	0	0	0	0	0	0	0	0	0	0	0	0	0	0	0	0	0	0	0	0	0	0	0	0	0	0	0	0	0	0
072419	14:27:44	14:35:13	447697	5.0.10.0	5_exp_RW	83	Rpleas_acq	CS_B	GWWG	MQQM	BZZB	YDDY	VKKV	JXXJ	treu	ehrlich	retten	fair	spielen	schön	tot	eitel	rächen	faul	strafen	schlecht	1	acq_USpleas_CSpleas1_RW	acq4567_RW	4	10	400	1	300	300	455	46	0	0	1	blank2r.bmp	0	1	+	0	1	blank2r.bmp	492	1	GWWG	492	1	blank2r.bmp	572	1	treu	866	1	!	1239	1	!	1359	0	0	0	0	0	0	0	0	0	0	0	0	0	0	0	0	0	0	0	0	0	0	0	0	0	0	0	0	0	0
072419	14:27:44	14:35:16	449949	5.0.10.0	5_exp_RW	83	Rpleas_acq	CS_B	GWWG	MQQM	BZZB	YDDY	VKKV	JXXJ	treu	ehrlich	retten	fair	spielen	schön	tot	eitel	rächen	faul	strafen	schlecht	1	acq_USunple_CSunple1_RW	acq4567_RW	4	11	400	1	300	300	455	46	0	1	1	blank2r.bmp	0	1	+	0	1	blank2r.bmp	492	1	BZZB	492	1	blank2r.bmp	572	3	rächen	866	1	!	1239	1	!	1359	0	0	0	0	0	0	0	0	0	0	0	0	0	0	0	0	0	0	0	0	0	0	0	0	0	0	0	0	0	0
072419	14:27:44	14:35:18	452188	5.0.10.0	5_exp_RW	83	Rpleas_acq	CS_B	GWWG	MQQM	BZZB	YDDY	VKKV	JXXJ	treu	ehrlich	retten	fair	spielen	schön	tot	eitel	rächen	faul	strafen	schlecht	1	acq_USunple_CSunple2_RW	acq4567_RW	4	12	400	1	300	300	440	46	0	1	1	blank2r.bmp	0	1	+	0	1	blank2r.bmp	492	1	YDDY	492	1	blank2r.bmp	572	2	strafen	866	1	!	1239	1	!	1346	0	0	0	0	0	0	0	0	0	0	0	0	0	0	0	0	0	0	0	0	0	0	0	0	0	0	0	0	0	0
072419	14:27:44	14:35:20	454334	5.0.10.0	5_exp_RW	83	Rpleas_acq	CS_B	GWWG	MQQM	BZZB	YDDY	VKKV	JXXJ	treu	ehrlich	retten	fair	spielen	schön	tot	eitel	rächen	faul	strafen	schlecht	1	acq_USunple_CSunple2_RW	acq4567_RW	4	13	400	1	300	300	355	46	0	1	1	blank2r.bmp	0	1	+	0	1	blank2r.bmp	492	1	YDDY	492	1	blank2r.bmp	572	2	strafen	866	1	!	1239	1	!	1252	0	0	0	0	0	0	0	0	0	0	0	0	0	0	0	0	0	0	0	0	0	0	0	0	0	0	0	0	0	0
072419	14:27:44	14:35:22	456547	5.0.10.0	5_exp_RW	83	Rpleas_acq	CS_B	GWWG	MQQM	BZZB	YDDY	VKKV	JXXJ	treu	ehrlich	retten	fair	spielen	schön	tot	eitel	rächen	faul	strafen	schlecht	1	acq_USunple_CSunple2_RW	acq4567_RW	4	14	400	1	300	300	424	46	0	1	1	blank2r.bmp	0	1	+	0	1	blank2r.bmp	492	1	YDDY	492	1	blank2r.bmp	572	1	faul	866	1	!	1239	1	!	1319	0	0	0	0	0	0	0	0	0	0	0	0	0	0	0	0	0	0	0	0	0	0	0	0	0	0	0	0	0	0
072419	14:27:44	14:35:24	458799	5.0.10.0	5_exp_RW	83	Rpleas_acq	CS_B	GWWG	MQQM	BZZB	YDDY	VKKV	JXXJ	treu	ehrlich	retten	fair	spielen	schön	tot	eitel	rächen	faul	strafen	schlecht	1	acq_USunple_CSunple2_RW	acq4567_RW	4	15	400	0	300	300	490	46	0	1	1	blank2r.bmp	0	1	+	0	1	blank2r.bmp	492	1	YDDY	492	1	blank2r.bmp	572	3	schlecht	866	1	!	1239	1	!	-1	0	0	0	0	0	0	0	0	0	0	0	0	0	0	0	0	0	0	0	0	0	0	0	0	0	0	0	0	0	0
072419	14:27:44	14:35:27	460852	5.0.10.0	5_exp_RW	83	Rpleas_acq	CS_B	GWWG	MQQM	BZZB	YDDY	VKKV	JXXJ	treu	ehrlich	retten	fair	spielen	schön	tot	eitel	rächen	faul	strafen	schlecht	1	acq_USpleas_CSpleas2_RW	acq4567_RW	4	16	400	0	300	300	266	46	0	0	1	blank2r.bmp	0	1	+	0	1	blank2r.bmp	492	1	MQQM	492	1	blank2r.bmp	572	1	fair	866	1	!	-1	1	!	-1	0	0	0	0	0	0	0	0	0	0	0	0	0	0	0	0	0	0	0	0	0	0	0	0	0	0	0	0	0	0
072419	14:27:44	14:35:29	462944	5.0.10.0	5_exp_RW	83	Rpleas_acq	CS_B	GWWG	MQQM	BZZB	YDDY	VKKV	JXXJ	treu	ehrlich	retten	fair	spielen	schön	tot	eitel	rächen	faul	strafen	schlecht	1	acq_USpleas_CSpleas2_RW	acq4567_RW	4	17	400	0	300	300	306	50	0	1	1	blank2r.bmp	0	1	+	0	1	blank2r.bmp	492	1	MQQM	492	1	blank2r.bmp	572	3	schön	866	1	!	-1	1	!	-1	0	0	0	0	0	0	0	0	0	0	0	0	0	0	0	0	0	0	0	0	0	0	0	0	0	0	0	0	0	0
072419	14:27:44	14:35:31	465050	5.0.10.0	5_exp_RW	83	Rpleas_acq	CS_B	GWWG	MQQM	BZZB	YDDY	VKKV	JXXJ	treu	ehrlich	retten	fair	spielen	schön	tot	eitel	rächen	faul	strafen	schlecht	1	acq_USpleas_CSpleas1_RW	acq4567_RW	4	18	400	0	300	300	328	46	0	0	1	blank2r.bmp	0	1	+	0	1	blank2r.bmp	492	1	GWWG	492	1	blank2r.bmp	572	3	retten	866	1	!	-1	1	!	-1	0	0	0	0	0	0	0	0	0	0	0	0	0	0	0	0	0	0	0	0	0	0	0	0	0	0	0	0	0	0
072419	14:27:44	14:35:33	467129	5.0.10.0	5_exp_RW	83	Rpleas_acq	CS_B	GWWG	MQQM	BZZB	YDDY	VKKV	JXXJ	treu	ehrlich	retten	fair	spielen	schön	tot	eitel	rächen	faul	strafen	schlecht	1	acq_USpleas_CSpleas2_RW	acq4567_RW	4	19	400	0	300	300	302	50	0	1	1	blank2r.bmp	0	1	+	0	1	blank2r.bmp	492	1	MQQM	492	1	blank2r.bmp	572	2	spielen	866	1	!	-1	1	!	-1	0	0	0	0	0	0	0	0	0	0	0	0	0	0	0	0	0	0	0	0	0	0	0	0	0	0	0	0	0	0
072419	14:27:44	14:35:35	469555	5.0.10.0	5_exp_RW	83	Rpleas_acq	CS_B	GWWG	MQQM	BZZB	YDDY	VKKV	JXXJ	treu	ehrlich	retten	fair	spielen	schön	tot	eitel	rächen	faul	strafen	schlecht	1	acq_USpleas_CSpleas1_RW	acq4567_RW	4	20	400	0	300	300	640	50	0	1	1	blank2r.bmp	0	1	+	0	1	blank2r.bmp	492	1	GWWG	492	1	blank2r.bmp	572	2	ehrlich	866	1	!	1239	1	!	-1	0	0	0	0	0	0	0	0	0	0	0	0	0	0	0	0	0	0	0	0	0	0	0	0	0	0	0	0	0	0
072419	14:27:44	14:35:37	471634	5.0.10.0	5_exp_RW	83	Rpleas_acq	CS_B	GWWG	MQQM	BZZB	YDDY	VKKV	JXXJ	treu	ehrlich	retten	fair	spielen	schön	tot	eitel	rächen	faul	strafen	schlecht	1	acq_USpleas_CSpleas2_RW	acq4567_RW	4	21	400	0	300	300	297	50	0	1	1	blank2r.bmp	0	1	+	0	1	blank2r.bmp	492	1	MQQM	492	1	blank2r.bmp	572	1	fair	866	1	!	-1	1	!	-1	0	0	0	0	0	0	0	0	0	0	0	0	0	0	0	0	0	0	0	0	0	0	0	0	0	0	0	0	0	0
072419	14:27:44	14:35:40	473900	5.0.10.0	5_exp_RW	83	Rpleas_acq	CS_B	GWWG	MQQM	BZZB	YDDY	VKKV	JXXJ	treu	ehrlich	retten	fair	spielen	schön	tot	eitel	rächen	faul	strafen	schlecht	1	acq_USunple_CSunple1_RW	acq4567_RW	4	22	400	0	300	300	485	46	0	1	1	blank2r.bmp	0	1	+	0	1	blank2r.bmp	492	1	BZZB	492	1	blank2r.bmp	572	2	eitel	866	1	!	1239	1	!	-1	0	0	0	0	0	0	0	0	0	0	0	0	0	0	0	0	0	0	0	0	0	0	0	0	0	0	0	0	0	0
072419	14:27:44	14:35:42	476072	5.0.10.0	5_exp_RW	83	Rpleas_acq	CS_B	GWWG	MQQM	BZZB	YDDY	VKKV	JXXJ	treu	ehrlich	retten	fair	spielen	schön	tot	eitel	rächen	faul	strafen	schlecht	1	acq_USpleas_CSpleas1_RW	acq4567_RW	4	23	400	1	300	300	360	50	0	1	1	blank2r.bmp	0	1	+	0	1	blank2r.bmp	492	1	GWWG	492	1	blank2r.bmp	572	1	treu	866	1	!	1239	1	!	1266	0	0	0	0	0	0	0	0	0	0	0	0	0	0	0	0	0	0	0	0	0	0	0	0	0	0	0	0	0	0
072419	14:27:44	14:35:44	478298	5.0.10.0	5_exp_RW	83	Rpleas_acq	CS_B	GWWG	MQQM	BZZB	YDDY	VKKV	JXXJ	treu	ehrlich	retten	fair	spielen	schön	tot	eitel	rächen	faul	strafen	schlecht	1	acq_USunple_CSunple2_RW	acq4567_RW	4	24	400	1	300	300	426	46	0	1	1	blank2r.bmp	0	1	+	0	1	blank2r.bmp	492	1	YDDY	492	1	blank2r.bmp	572	2	strafen	866	1	!	1239	1	!	1332	0	0	0	0	0	0	0	0	0	0	0	0	0	0	0	0	0	0	0	0	0	0	0	0	0	0	0	0	0	0
072419	14:27:44	14:35:46	480564	5.0.10.0	5_exp_RW	83	Rpleas_acq	CS_B	GWWG	MQQM	BZZB	YDDY	VKKV	JXXJ	treu	ehrlich	retten	fair	spielen	schön	tot	eitel	rächen	faul	strafen	schlecht	1	acq_USunple_CSunple2_RW	acq4567_RW	4	25	400	0	300	300	497	46	0	1	1	blank2r.bmp	0	1	+	0	1	blank2r.bmp	492	1	YDDY	492	1	blank2r.bmp	572	3	schlecht	866	1	!	1239	1	!	-1	0	0	0	0	0	0	0	0	0	0	0	0	0	0	0	0	0	0	0	0	0	0	0	0	0	0	0	0	0	0
072419	14:27:44	14:35:48	482816	5.0.10.0	5_exp_RW	83	Rpleas_acq	CS_B	GWWG	MQQM	BZZB	YDDY	VKKV	JXXJ	treu	ehrlich	retten	fair	spielen	schön	tot	eitel	rächen	faul	strafen	schlecht	1	acq_USpleas_CSpleas1_RW	acq4567_RW	4	26	400	1	300	300	427	50	0	1	1	blank2r.bmp	0	1	+	0	1	blank2r.bmp	492	1	GWWG	492	1	blank2r.bmp	572	2	ehrlich	866	1	!	1239	1	!	1332	0	0	0	0	0	0	0	0	0	0	0	0	0	0	0	0	0	0	0	0	0	0	0	0	0	0	0	0	0	0
072419	14:27:44	14:35:51	485068	5.0.10.0	5_exp_RW	83	Rpleas_acq	CS_B	GWWG	MQQM	BZZB	YDDY	VKKV	JXXJ	treu	ehrlich	retten	fair	spielen	schön	tot	eitel	rächen	faul	strafen	schlecht	1	acq_USunple_CSunple1_RW	acq4567_RW	4	27	400	1	300	300	461	46	0	1	1	blank2r.bmp	0	1	+	0	1	blank2r.bmp	492	1	BZZB	492	1	blank2r.bmp	572	1	tot	866	1	!	1239	1	!	1359	0	0	0	0	0	0	0	0	0	0	0	0	0	0	0	0	0	0	0	0	0	0	0	0	0	0	0	0	0	0
072419	14:27:44	14:35:53	487254	5.0.10.0	5_exp_RW	83	Rpleas_acq	CS_B	GWWG	MQQM	BZZB	YDDY	VKKV	JXXJ	treu	ehrlich	retten	fair	spielen	schön	tot	eitel	rächen	faul	strafen	schlecht	1	acq_USunple_CSunple2_RW	acq4567_RW	4	28	400	1	300	300	375	46	0	1	1	blank2r.bmp	0	1	+	0	1	blank2r.bmp	492	1	YDDY	492	1	blank2r.bmp	572	1	faul	866	1	!	1239	1	!	1279	0	0	0	0	0	0	0	0	0	0	0	0	0	0	0	0	0	0	0	0	0	0	0	0	0	0	0	0	0	0
072419	14:27:44	14:35:55	489493	5.0.10.0	5_exp_RW	83	Rpleas_acq	CS_B	GWWG	MQQM	BZZB	YDDY	VKKV	JXXJ	treu	ehrlich	retten	fair	spielen	schön	tot	eitel	rächen	faul	strafen	schlecht	1	acq_USpleas_CSpleas2_RW	acq4567_RW	4	29	400	1	300	300	431	50	0	1	1	blank2r.bmp	0	1	+	0	1	blank2r.bmp	492	1	MQQM	492	1	blank2r.bmp	572	2	spielen	866	1	!	1239	1	!	1332	0	0	0	0	0	0	0	0	0	0	0	0	0	0	0	0	0	0	0	0	0	0	0	0	0	0	0	0	0	0
072419	14:27:44	14:35:57	491746	5.0.10.0	5_exp_RW	83	Rpleas_acq	CS_B	GWWG	MQQM	BZZB	YDDY	VKKV	JXXJ	treu	ehrlich	retten	fair	spielen	schön	tot	eitel	rächen	faul	strafen	schlecht	1	acq_USunple_CSunple2_RW	acq4567_RW	4	30	400	1	300	300	452	46	0	1	1	blank2r.bmp	0	1	+	0	1	blank2r.bmp	492	1	YDDY	492	1	blank2r.bmp	572	1	faul	866	1	!	1239	1	!	1359	0	0	0	0	0	0	0	0	0	0	0	0	0	0	0	0	0	0	0	0	0	0	0	0	0	0	0	0	0	0
072419	14:27:44	14:36:00	494011	5.0.10.0	5_exp_RW	83	Rpleas_acq	CS_B	GWWG	MQQM	BZZB	YDDY	VKKV	JXXJ	treu	ehrlich	retten	fair	spielen	schön	tot	eitel	rächen	faul	strafen	schlecht	1	acq_USunple_CSunple1_RW	acq4567_RW	4	31	400	1	300	300	463	46	0	1	1	blank2r.bmp	0	1	+	0	1	blank2r.bmp	492	1	BZZB	492	1	blank2r.bmp	572	3	rächen	866	1	!	1239	1	!	1359	0	0	0	0	0	0	0	0	0	0	0	0	0	0	0	0	0	0	0	0	0	0	0	0	0	0	0	0	0	0
072419	14:27:44	14:36:02	496264	5.0.10.0	5_exp_RW	83	Rpleas_acq	CS_B	GWWG	MQQM	BZZB	YDDY	VKKV	JXXJ	treu	ehrlich	retten	fair	spielen	schön	tot	eitel	rächen	faul	strafen	schlecht	1	acq_USpleas_CSpleas2_RW	acq4567_RW	4	32	400	1	300	300	455	50	0	1	1	blank2r.bmp	0	1	+	0	1	blank2r.bmp	492	1	MQQM	492	1	blank2r.bmp	572	3	schön	866	1	!	1239	1	!	1359	0	0	0	0	0	0	0	0	0	0	0	0	0	0	0	0	0	0	0	0	0	0	0	0	0	0	0	0	0	0
072419	14:27:44	14:36:04	498530	5.0.10.0	5_exp_RW	83	Rpleas_acq	CS_B	GWWG	MQQM	BZZB	YDDY	VKKV	JXXJ	treu	ehrlich	retten	fair	spielen	schön	tot	eitel	rächen	faul	strafen	schlecht	1	acq_USpleas_CSpleas2_RW	acq4567_RW	4	33	400	0	300	300	505	50	0	1	1	blank2r.bmp	0	1	+	0	1	blank2r.bmp	492	1	MQQM	492	1	blank2r.bmp	572	3	schön	866	1	!	1239	1	!	-1	0	0	0	0	0	0	0	0	0	0	0	0	0	0	0	0	0	0	0	0	0	0	0	0	0	0	0	0	0	0
072419	14:27:44	14:36:06	500809	5.0.10.0	5_exp_RW	83	Rpleas_acq	CS_B	GWWG	MQQM	BZZB	YDDY	VKKV	JXXJ	treu	ehrlich	retten	fair	spielen	schön	tot	eitel	rächen	faul	strafen	schlecht	1	acq_USunple_CSunple1_RW	acq4567_RW	4	34	400	0	300	300	492	46	0	1	1	blank2r.bmp	0	1	+	0	1	blank2r.bmp	492	1	BZZB	492	1	blank2r.bmp	572	2	eitel	866	1	!	1239	1	!	-1	0	0	0	0	0	0	0	0	0	0	0	0	0	0	0	0	0	0	0	0	0	0	0	0	0	0	0	0	0	0
072419	14:27:44	14:36:09	503074	5.0.10.0	5_exp_RW	83	Rpleas_acq	CS_B	GWWG	MQQM	BZZB	YDDY	VKKV	JXXJ	treu	ehrlich	retten	fair	spielen	schön	tot	eitel	rächen	faul	strafen	schlecht	1	acq_USunple_CSunple1_RW	acq4567_RW	4	35	400	1	300	300	461	46	0	1	1	blank2r.bmp	0	1	+	0	1	blank2r.bmp	492	1	BZZB	492	1	blank2r.bmp	572	3	rächen	866	1	!	1239	1	!	1359	0	0	0	0	0	0	0	0	0	0	0	0	0	0	0	0	0	0	0	0	0	0	0	0	0	0	0	0	0	0
072419	14:27:44	14:36:11	505353	5.0.10.0	5_exp_RW	83	Rpleas_acq	CS_B	GWWG	MQQM	BZZB	YDDY	VKKV	JXXJ	treu	ehrlich	retten	fair	spielen	schön	tot	eitel	rächen	faul	strafen	schlecht	1	acq_USpleas_CSpleas1_RW	acq4567_RW	4	36	400	0	300	300	515	50	0	1	1	blank2r.bmp	0	1	+	0	1	blank2r.bmp	492	1	GWWG	492	1	blank2r.bmp	572	3	retten	866	1	!	1239	1	!	-1	0	0	0	0	0	0	0	0	0	0	0	0	0	0	0	0	0	0	0	0	0	0	0	0	0	0	0	0	0	0
072419	14:27:44	14:36:13	507672	5.0.10.0	5_exp_RW	83	Rpleas_acq	CS_B	GWWG	MQQM	BZZB	YDDY	VKKV	JXXJ	treu	ehrlich	retten	fair	spielen	schön	tot	eitel	rächen	faul	strafen	schlecht	1	acq_USpleas_CSpleas1_RW	acq4567_RW	4	37	400	0	300	300	534	50	0	1	1	blank2r.bmp	0	1	+	0	1	blank2r.bmp	492	1	GWWG	492	1	blank2r.bmp	572	2	ehrlich	866	1	!	1239	1	!	-1	0	0	0	0	0	0	0	0	0	0	0	0	0	0	0	0	0	0	0	0	0	0	0	0	0	0	0	0	0	0
072419	14:27:44	14:36:16	509858	5.0.10.0	5_exp_RW	83	Rpleas_acq	CS_B	GWWG	MQQM	BZZB	YDDY	VKKV	JXXJ	treu	ehrlich	retten	fair	spielen	schön	tot	eitel	rächen	faul	strafen	schlecht	1	acq_USpleas_CSpleas2_RW	acq4567_RW	4	38	400	1	300	300	384	50	0	1	1	blank2r.bmp	0	1	+	0	1	blank2r.bmp	492	1	MQQM	492	1	blank2r.bmp	572	1	fair	866	1	!	1239	1	!	1279	0	0	0	0	0	0	0	0	0	0	0	0	0	0	0	0	0	0	0	0	0	0	0	0	0	0	0	0	0	0
072419	14:27:44	14:36:18	512057	5.0.10.0	5_exp_RW	83	Rpleas_acq	CS_B	GWWG	MQQM	BZZB	YDDY	VKKV	JXXJ	treu	ehrlich	retten	fair	spielen	schön	tot	eitel	rächen	faul	strafen	schlecht	1	acq_USunple_CSunple2_RW	acq4567_RW	4	39	400	1	300	300	391	46	0	1	1	blank2r.bmp	0	1	+	0	1	blank2r.bmp	492	1	YDDY	492	1	blank2r.bmp	572	2	strafen	866	1	!	1239	1	!	1292	0	0	0	0	0	0	0	0	0	0	0	0	0	0	0	0	0	0	0	0	0	0	0	0	0	0	0	0	0	0
072419	14:27:44	14:36:20	514390	5.0.10.0	5_exp_RW	83	Rpleas_acq	CS_B	GWWG	MQQM	BZZB	YDDY	VKKV	JXXJ	treu	ehrlich	retten	fair	spielen	schön	tot	eitel	rächen	faul	strafen	schlecht	1	acq_USpleas_CSpleas1_RW	acq4567_RW	4	40	400	0	300	300	552	50	0	1	1	blank2r.bmp	0	1	+	0	1	blank2r.bmp	492	1	GWWG	492	1	blank2r.bmp	572	3	retten	866	1	!	1239	1	!	-1	0	0	0	0	0	0	0	0	0	0	0	0	0	0	0	0	0	0	0	0	0	0	0	0	0	0	0	0	0	0
072419	14:27:44	14:36:22	516629	5.0.10.0	5_exp_RW	83	Rpleas_acq	CS_B	GWWG	MQQM	BZZB	YDDY	VKKV	JXXJ	treu	ehrlich	retten	fair	spielen	schön	tot	eitel	rächen	faul	strafen	schlecht	1	acq_USunple_CSunple1_RW	acq4567_RW	4	41	400	1	300	300	429	46	0	1	1	blank2r.bmp	0	1	+	0	1	blank2r.bmp	492	1	BZZB	492	1	blank2r.bmp	572	1	tot	866	1	!	1239	1	!	1332	0	0	0	0	0	0	0	0	0	0	0	0	0	0	0	0	0	0	0	0	0	0	0	0	0	0	0	0	0	0
072419	14:27:44	14:36:25	519028	5.0.10.0	5_exp_RW	83	Rpleas_acq	CS_B	GWWG	MQQM	BZZB	YDDY	VKKV	JXXJ	treu	ehrlich	retten	fair	spielen	schön	tot	eitel	rächen	faul	strafen	schlecht	1	acq_USunple_CSunple2_RW	acq4567_RW	4	42	400	0	300	300	612	46	0	1	1	blank2r.bmp	0	1	+	0	1	blank2r.bmp	492	1	YDDY	492	1	blank2r.bmp	572	3	schlecht	866	1	!	1239	1	!	-1	0	0	0	0	0	0	0	0	0	0	0	0	0	0	0	0	0	0	0	0	0	0	0	0	0	0	0	0	0	0
072419	14:27:44	14:36:27	521294	5.0.10.0	5_exp_RW	83	Rpleas_acq	CS_B	GWWG	MQQM	BZZB	YDDY	VKKV	JXXJ	treu	ehrlich	retten	fair	spielen	schön	tot	eitel	rächen	faul	strafen	schlecht	1	acq_USpleas_CSpleas1_RW	acq4567_RW	4	43	400	1	300	300	465	50	0	1	1	blank2r.bmp	0	1	+	0	1	blank2r.bmp	492	1	GWWG	492	1	blank2r.bmp	572	1	treu	866	1	!	1239	1	!	1359	0	0	0	0	0	0	0	0	0	0	0	0	0	0	0	0	0	0	0	0	0	0	0	0	0	0	0	0	0	0
072419	14:27:44	14:36:29	523559	5.0.10.0	5_exp_RW	83	Rpleas_acq	CS_B	GWWG	MQQM	BZZB	YDDY	VKKV	JXXJ	treu	ehrlich	retten	fair	spielen	schön	tot	eitel	rächen	faul	strafen	schlecht	1	acq_USpleas_CSpleas1_RW	acq4567_RW	4	44	400	0	300	300	482	50	0	1	1	blank2r.bmp	0	1	+	0	1	blank2r.bmp	492	1	GWWG	492	1	blank2r.bmp	572	1	treu	866	1	!	1239	1	!	-1	0	0	0	0	0	0	0	0	0	0	0	0	0	0	0	0	0	0	0	0	0	0	0	0	0	0	0	0	0	0
072419	14:27:44	14:36:31	525785	5.0.10.0	5_exp_RW	83	Rpleas_acq	CS_B	GWWG	MQQM	BZZB	YDDY	VKKV	JXXJ	treu	ehrlich	retten	fair	spielen	schön	tot	eitel	rächen	faul	strafen	schlecht	1	acq_USpleas_CSpleas1_RW	acq4567_RW	4	45	400	1	300	300	413	50	0	1	1	blank2r.bmp	0	1	+	0	1	blank2r.bmp	492	1	GWWG	492	1	blank2r.bmp	572	3	retten	866	1	!	1239	1	!	1319	0	0	0	0	0	0	0	0	0	0	0	0	0	0	0	0	0	0	0	0	0	0	0	0	0	0	0	0	0	0
072419	14:27:44	14:36:34	528051	5.0.10.0	5_exp_RW	83	Rpleas_acq	CS_B	GWWG	MQQM	BZZB	YDDY	VKKV	JXXJ	treu	ehrlich	retten	fair	spielen	schön	tot	eitel	rächen	faul	strafen	schlecht	1	acq_USunple_CSunple2_RW	acq4567_RW	4	46	400	0	300	300	479	46	0	1	1	blank2r.bmp	0	1	+	0	1	blank2r.bmp	492	1	YDDY	492	1	blank2r.bmp	572	3	schlecht	866	1	!	1239	1	!	-1	0	0	0	0	0	0	0	0	0	0	0	0	0	0	0	0	0	0	0	0	0	0	0	0	0	0	0	0	0	0
072419	14:27:44	14:36:36	530303	5.0.10.0	5_exp_RW	83	Rpleas_acq	CS_B	GWWG	MQQM	BZZB	YDDY	VKKV	JXXJ	treu	ehrlich	retten	fair	spielen	schön	tot	eitel	rächen	faul	strafen	schlecht	1	acq_USunple_CSunple2_RW	acq4567_RW	4	47	400	1	300	300	450	46	0	1	1	blank2r.bmp	0	1	+	0	1	blank2r.bmp	492	1	YDDY	492	1	blank2r.bmp	572	2	strafen	866	1	!	1239	1	!	1346	0	0	0	0	0	0	0	0	0	0	0	0	0	0	0	0	0	0	0	0	0	0	0	0	0	0	0	0	0	0
072419	14:27:44	14:36:38	532489	5.0.10.0	5_exp_RW	83	Rpleas_acq	CS_B	GWWG	MQQM	BZZB	YDDY	VKKV	JXXJ	treu	ehrlich	retten	fair	spielen	schön	tot	eitel	rächen	faul	strafen	schlecht	1	acq_USunple_CSunple1_RW	acq4567_RW	4	48	400	1	300	300	398	46	0	1	1	blank2r.bmp	0	1	+	0	1	blank2r.bmp	492	1	BZZB	492	1	blank2r.bmp	572	1	tot	866	1	!	1239	1	!	1292	0	0	0	0	0	0	0	0	0	0	0	0	0	0	0	0	0	0	0	0	0	0	0	0	0	0	0	0	0	0
072419	14:27:44	14:36:40	534755	5.0.10.0	5_exp_RW	83	Rpleas_acq	CS_B	GWWG	MQQM	BZZB	YDDY	VKKV	JXXJ	treu	ehrlich	retten	fair	spielen	schön	tot	eitel	rächen	faul	strafen	schlecht	1	acq_USpleas_CSpleas1_RW	acq4567_RW	4	49	400	0	300	300	500	50	0	1	1	blank2r.bmp	0	1	+	0	1	blank2r.bmp	492	1	GWWG	492	1	blank2r.bmp	572	2	ehrlich	866	1	!	1239	1	!	-1	0	0	0	0	0	0	0	0	0	0	0	0	0	0	0	0	0	0	0	0	0	0	0	0	0	0	0	0	0	0
072419	14:27:44	14:36:43	537021	5.0.10.0	5_exp_RW	83	Rpleas_acq	CS_B	GWWG	MQQM	BZZB	YDDY	VKKV	JXXJ	treu	ehrlich	retten	fair	spielen	schön	tot	eitel	rächen	faul	strafen	schlecht	1	acq_USunple_CSunple1_RW	acq4567_RW	4	50	400	1	300	300	452	46	0	1	1	blank2r.bmp	0	1	+	0	1	blank2r.bmp	492	1	BZZB	492	1	blank2r.bmp	572	3	rächen	866	1	!	1239	1	!	1359	0	0	0	0	0	0	0	0	0	0	0	0	0	0	0	0	0	0	0	0	0	0	0	0	0	0	0	0	0	0
072419	14:27:44	14:36:45	539246	5.0.10.0	5_exp_RW	83	Rpleas_acq	CS_B	GWWG	MQQM	BZZB	YDDY	VKKV	JXXJ	treu	ehrlich	retten	fair	spielen	schön	tot	eitel	rächen	faul	strafen	schlecht	1	acq_USunple_CSunple1_RW	acq4567_RW	4	51	400	1	300	300	434	46	0	1	1	blank2r.bmp	0	1	+	0	1	blank2r.bmp	492	1	BZZB	492	1	blank2r.bmp	572	2	eitel	866	1	!	1239	1	!	1332	0	0	0	0	0	0	0	0	0	0	0	0	0	0	0	0	0	0	0	0	0	0	0	0	0	0	0	0	0	0
072419	14:27:44	14:36:47	541472	5.0.10.0	5_exp_RW	83	Rpleas_acq	CS_B	GWWG	MQQM	BZZB	YDDY	VKKV	JXXJ	treu	ehrlich	retten	fair	spielen	schön	tot	eitel	rächen	faul	strafen	schlecht	1	acq_USunple_CSunple2_RW	acq4567_RW	4	52	400	1	300	300	423	50	0	0	1	blank2r.bmp	0	1	+	0	1	blank2r.bmp	492	1	YDDY	492	1	blank2r.bmp	572	1	faul	866	1	!	1239	1	!	1319	0	0	0	0	0	0	0	0	0	0	0	0	0	0	0	0	0	0	0	0	0	0	0	0	0	0	0	0	0	0
072419	14:27:44	14:36:49	543684	5.0.10.0	5_exp_RW	83	Rpleas_acq	CS_B	GWWG	MQQM	BZZB	YDDY	VKKV	JXXJ	treu	ehrlich	retten	fair	spielen	schön	tot	eitel	rächen	faul	strafen	schlecht	1	acq_USpleas_CSpleas1_RW	acq4567_RW	4	53	400	1	300	300	421	50	0	1	1	blank2r.bmp	0	1	+	0	1	blank2r.bmp	492	1	GWWG	492	1	blank2r.bmp	572	2	ehrlich	866	1	!	1239	1	!	1319	0	0	0	0	0	0	0	0	0	0	0	0	0	0	0	0	0	0	0	0	0	0	0	0	0	0	0	0	0	0
072419	14:27:44	14:36:52	545897	5.0.10.0	5_exp_RW	83	Rpleas_acq	CS_B	GWWG	MQQM	BZZB	YDDY	VKKV	JXXJ	treu	ehrlich	retten	fair	spielen	schön	tot	eitel	rächen	faul	strafen	schlecht	1	acq_USpleas_CSpleas2_RW	acq4567_RW	4	54	400	1	300	300	418	50	0	1	1	blank2r.bmp	0	1	+	0	1	blank2r.bmp	492	1	MQQM	492	1	blank2r.bmp	572	2	spielen	866	1	!	1239	1	!	1319	0	0	0	0	0	0	0	0	0	0	0	0	0	0	0	0	0	0	0	0	0	0	0	0	0	0	0	0	0	0
072419	14:27:44	14:36:54	548136	5.0.10.0	5_exp_RW	83	Rpleas_acq	CS_B	GWWG	MQQM	BZZB	YDDY	VKKV	JXXJ	treu	ehrlich	retten	fair	spielen	schön	tot	eitel	rächen	faul	strafen	schlecht	1	acq_USunple_CSunple1_RW	acq4567_RW	4	55	400	1	300	300	450	46	0	1	1	blank2r.bmp	0	1	+	0	1	blank2r.bmp	492	1	BZZB	492	1	blank2r.bmp	572	1	tot	866	1	!	1239	1	!	1346	0	0	0	0	0	0	0	0	0	0	0	0	0	0	0	0	0	0	0	0	0	0	0	0	0	0	0	0	0	0
072419	14:27:44	14:36:56	550388	5.0.10.0	5_exp_RW	83	Rpleas_acq	CS_B	GWWG	MQQM	BZZB	YDDY	VKKV	JXXJ	treu	ehrlich	retten	fair	spielen	schön	tot	eitel	rächen	faul	strafen	schlecht	1	acq_USunple_CSunple2_RW	acq4567_RW	4	56	400	0	300	300	479	46	0	1	1	blank2r.bmp	0	1	+	0	1	blank2r.bmp	492	1	YDDY	492	1	blank2r.bmp	572	3	schlecht	866	1	!	1239	1	!	-1	0	0	0	0	0	0	0	0	0	0	0	0	0	0	0	0	0	0	0	0	0	0	0	0	0	0	0	0	0	0
072419	14:27:44	14:36:58	552761	5.0.10.0	5_exp_RW	83	Rpleas_acq	CS_B	GWWG	MQQM	BZZB	YDDY	VKKV	JXXJ	treu	ehrlich	retten	fair	spielen	schön	tot	eitel	rächen	faul	strafen	schlecht	1	acq_USpleas_CSpleas2_RW	acq4567_RW	4	57	400	0	300	300	578	46	0	0	1	blank2r.bmp	0	1	+	0	1	blank2r.bmp	492	1	MQQM	492	1	blank2r.bmp	572	1	fair	866	1	!	1239	1	!	-1	0	0	0	0	0	0	0	0	0	0	0	0	0	0	0	0	0	0	0	0	0	0	0	0	0	0	0	0	0	0
072419	14:27:44	14:37:01	554947	5.0.10.0	5_exp_RW	83	Rpleas_acq	CS_B	GWWG	MQQM	BZZB	YDDY	VKKV	JXXJ	treu	ehrlich	retten	fair	spielen	schön	tot	eitel	rächen	faul	strafen	schlecht	1	acq_USpleas_CSpleas2_RW	acq4567_RW	4	58	400	1	300	300	359	50	0	1	1	blank2r.bmp	0	1	+	0	1	blank2r.bmp	492	1	MQQM	492	1	blank2r.bmp	572	3	schön	866	1	!	1239	1	!	1266	0	0	0	0	0	0	0	0	0	0	0	0	0	0	0	0	0	0	0	0	0	0	0	0	0	0	0	0	0	0
072419	14:27:44	14:37:03	557026	5.0.10.0	5_exp_RW	83	Rpleas_acq	CS_B	GWWG	MQQM	BZZB	YDDY	VKKV	JXXJ	treu	ehrlich	retten	fair	spielen	schön	tot	eitel	rächen	faul	strafen	schlecht	1	acq_USpleas_CSpleas2_RW	acq4567_RW	4	59	400	0	300	300	308	50	0	1	1	blank2r.bmp	0	1	+	0	1	blank2r.bmp	492	1	MQQM	492	1	blank2r.bmp	572	2	spielen	866	1	!	-1	1	!	-1	0	0	0	0	0	0	0	0	0	0	0	0	0	0	0	0	0	0	0	0	0	0	0	0	0	0	0	0	0	0
072419	14:27:44	14:37:05	559345	5.0.10.0	5_exp_RW	83	Rpleas_acq	CS_B	GWWG	MQQM	BZZB	YDDY	VKKV	JXXJ	treu	ehrlich	retten	fair	spielen	schön	tot	eitel	rächen	faul	strafen	schlecht	1	acq_USpleas_CSpleas2_RW	acq4567_RW	4	60	400	0	300	300	539	50	0	1	1	blank2r.bmp	0	1	+	0	1	blank2r.bmp	492	1	MQQM	492	1	blank2r.bmp	572	2	spielen	866	1	!	1239	1	!	-1	0	0	0	0	0	0	0	0	0	0	0	0	0	0	0	0	0	0	0	0	0	0	0	0	0	0	0	0	0	0
072419	14:27:44	14:37:07	561650	5.0.10.0	5_exp_RW	83	Rpleas_acq	CS_B	GWWG	MQQM	BZZB	YDDY	VKKV	JXXJ	treu	ehrlich	retten	fair	spielen	schön	tot	eitel	rächen	faul	strafen	schlecht	1	acq_USunple_CSunple1_RW	acq4567_RW	4	61	400	0	300	300	523	50	0	0	1	blank2r.bmp	0	1	+	0	1	blank2r.bmp	492	1	BZZB	492	1	blank2r.bmp	572	2	eitel	866	1	!	1239	1	!	-1	0	0	0	0	0	0	0	0	0	0	0	0	0	0	0	0	0	0	0	0	0	0	0	0	0	0	0	0	0	0
072419	14:27:44	14:37:09	563663	5.0.10.0	5_exp_RW	83	Rpleas_acq	CS_B	GWWG	MQQM	BZZB	YDDY	VKKV	JXXJ	treu	ehrlich	retten	fair	spielen	schön	tot	eitel	rächen	faul	strafen	schlecht	1	acq_USunple_CSunple1_RW	acq4567_RW	4	62	400	0	300	300	213	50	0	0	1	blank2r.bmp	0	1	+	0	1	blank2r.bmp	492	1	BZZB	492	1	blank2r.bmp	572	3	rächen	866	1	!	-1	1	!	-1	0	0	0	0	0	0	0	0	0	0	0	0	0	0	0	0	0	0	0	0	0	0	0	0	0	0	0	0	0	0
072419	14:27:44	14:37:12	565849	5.0.10.0	5_exp_RW	83	Rpleas_acq	CS_B	GWWG	MQQM	BZZB	YDDY	VKKV	JXXJ	treu	ehrlich	retten	fair	spielen	schön	tot	eitel	rächen	faul	strafen	schlecht	1	acq_USpleas_CSpleas2_RW	acq4567_RW	4	63	400	1	300	300	368	50	0	1	1	blank2r.bmp	0	1	+	0	1	blank2r.bmp	492	1	MQQM	492	1	blank2r.bmp	572	3	schön	866	1	!	1239	1	!	1266	0	0	0	0	0	0	0	0	0	0	0	0	0	0	0	0	0	0	0	0	0	0	0	0	0	0	0	0	0	0
072419	14:27:44	14:37:14	568035	5.0.10.0	5_exp_RW	83	Rpleas_acq	CS_B	GWWG	MQQM	BZZB	YDDY	VKKV	JXXJ	treu	ehrlich	retten	fair	spielen	schön	tot	eitel	rächen	faul	strafen	schlecht	1	acq_USunple_CSunple2_RW	acq4567_RW	4	64	400	1	300	300	394	46	0	1	1	blank2r.bmp	0	1	+	0	1	blank2r.bmp	492	1	YDDY	492	1	blank2r.bmp	572	1	faul	866	1	!	1239	1	!	1292	0	0	0	0	0	0	0	0	0	0	0	0	0	0	0	0	0	0	0	0	0	0	0	0	0	0	0	0	0	0
072419	14:27:44	14:37:16	570287	5.0.10.0	5_exp_RW	83	Rpleas_acq	CS_B	GWWG	MQQM	BZZB	YDDY	VKKV	JXXJ	treu	ehrlich	retten	fair	spielen	schön	tot	eitel	rächen	faul	strafen	schlecht	1	acq_USpleas_CSpleas2_RW	acq4567_RW	4	65	400	1	300	300	458	50	0	1	1	blank2r.bmp	0	1	+	0	1	blank2r.bmp	492	1	MQQM	492	1	blank2r.bmp	572	1	fair	866	1	!	1239	1	!	1359	0	0	0	0	0	0	0	0	0	0	0	0	0	0	0	0	0	0	0	0	0	0	0	0	0	0	0	0	0	0
072419	14:27:44	14:37:18	572499	5.0.10.0	5_exp_RW	83	Rpleas_acq	CS_B	GWWG	MQQM	BZZB	YDDY	VKKV	JXXJ	treu	ehrlich	retten	fair	spielen	schön	tot	eitel	rächen	faul	strafen	schlecht	1	acq_USpleas_CSpleas1_RW	acq4567_RW	4	66	400	1	300	300	419	50	0	1	1	blank2r.bmp	0	1	+	0	1	blank2r.bmp	492	1	GWWG	492	1	blank2r.bmp	572	1	treu	866	1	!	1239	1	!	1319	0	0	0	0	0	0	0	0	0	0	0	0	0	0	0	0	0	0	0	0	0	0	0	0	0	0	0	0	0	0
072419	14:27:44	14:37:20	574712	5.0.10.0	5_exp_RW	83	Rpleas_acq	CS_B	GWWG	MQQM	BZZB	YDDY	VKKV	JXXJ	treu	ehrlich	retten	fair	spielen	schön	tot	eitel	rächen	faul	strafen	schlecht	1	acq_USunple_CSunple2_RW	acq4567_RW	4	67	400	1	300	300	415	46	0	1	1	blank2r.bmp	0	1	+	0	1	blank2r.bmp	492	1	YDDY	492	1	blank2r.bmp	572	2	strafen	866	1	!	1239	1	!	1319	0	0	0	0	0	0	0	0	0	0	0	0	0	0	0	0	0	0	0	0	0	0	0	0	0	0	0	0	0	0
072419	14:27:44	14:37:23	576951	5.0.10.0	5_exp_RW	83	Rpleas_acq	CS_B	GWWG	MQQM	BZZB	YDDY	VKKV	JXXJ	treu	ehrlich	retten	fair	spielen	schön	tot	eitel	rächen	faul	strafen	schlecht	1	acq_USunple_CSunple2_RW	acq4567_RW	4	68	400	1	300	300	441	50	0	0	1	blank2r.bmp	0	1	+	0	1	blank2r.bmp	492	1	YDDY	492	1	blank2r.bmp	572	2	strafen	866	1	!	1239	1	!	1346	0	0	0	0	0	0	0	0	0	0	0	0	0	0	0	0	0	0	0	0	0	0	0	0	0	0	0	0	0	0
072419	14:27:44	14:37:25	579217	5.0.10.0	5_exp_RW	83	Rpleas_acq	CS_B	GWWG	MQQM	BZZB	YDDY	VKKV	JXXJ	treu	ehrlich	retten	fair	spielen	schön	tot	eitel	rächen	faul	strafen	schlecht	1	acq_USpleas_CSpleas1_RW	acq4567_RW	4	69	400	1	300	300	465	50	0	1	1	blank2r.bmp	0	1	+	0	1	blank2r.bmp	492	1	GWWG	492	1	blank2r.bmp	572	3	retten	866	1	!	1239	1	!	1359	0	0	0	0	0	0	0	0	0	0	0	0	0	0	0	0	0	0	0	0	0	0	0	0	0	0	0	0	0	0
072419	14:27:44	14:37:27	581402	5.0.10.0	5_exp_RW	83	Rpleas_acq	CS_B	GWWG	MQQM	BZZB	YDDY	VKKV	JXXJ	treu	ehrlich	retten	fair	spielen	schön	tot	eitel	rächen	faul	strafen	schlecht	1	acq_USpleas_CSpleas2_RW	acq4567_RW	4	70	400	1	300	300	397	50	0	1	1	blank2r.bmp	0	1	+	0	1	blank2r.bmp	492	1	MQQM	492	1	blank2r.bmp	572	1	fair	866	1	!	1239	1	!	1292	0	0	0	0	0	0	0	0	0	0	0	0	0	0	0	0	0	0	0	0	0	0	0	0	0	0	0	0	0	0
072419	14:27:44	14:37:29	583655	5.0.10.0	5_exp_RW	83	Rpleas_acq	CS_B	GWWG	MQQM	BZZB	YDDY	VKKV	JXXJ	treu	ehrlich	retten	fair	spielen	schön	tot	eitel	rächen	faul	strafen	schlecht	1	acq_USunple_CSunple1_RW	acq4567_RW	4	71	400	0	300	300	481	46	0	1	1	blank2r.bmp	0	1	+	0	1	blank2r.bmp	492	1	BZZB	492	1	blank2r.bmp	572	3	rächen	866	1	!	1239	1	!	-1	0	0	0	0	0	0	0	0	0	0	0	0	0	0	0	0	0	0	0	0	0	0	0	0	0	0	0	0	0	0
072419	14:27:44	14:37:32	585854	5.0.10.0	5_exp_RW	83	Rpleas_acq	CS_B	GWWG	MQQM	BZZB	YDDY	VKKV	JXXJ	treu	ehrlich	retten	fair	spielen	schön	tot	eitel	rächen	faul	strafen	schlecht	1	acq_USunple_CSunple1_RW	acq4567_RW	4	72	400	1	300	300	387	50	0	0	1	blank2r.bmp	0	1	+	0	1	blank2r.bmp	492	1	BZZB	492	1	blank2r.bmp	572	2	eitel	866	1	!	1239	1	!	1292	0	0	0	0	0	0	0	0	0	0	0	0	0	0	0	0	0	0	0	0	0	0	0	0	0	0	0	0	0	0
072419	14:27:44	14:37:34	588106	5.0.10.0	5_exp_RW	83	Rpleas_acq	CS_B	GWWG	MQQM	BZZB	YDDY	VKKV	JXXJ	treu	ehrlich	retten	fair	spielen	schön	tot	eitel	rächen	faul	strafen	schlecht	1	acq_USpleas_CSpleas2_RW	acq4567_RW	4	73	400	0	300	300	479	50	0	1	1	blank2r.bmp	0	1	+	0	1	blank2r.bmp	492	1	MQQM	492	1	blank2r.bmp	572	3	schön	866	1	!	1239	1	!	-1	0	0	0	0	0	0	0	0	0	0	0	0	0	0	0	0	0	0	0	0	0	0	0	0	0	0	0	0	0	0
072419	14:27:44	14:37:36	590279	5.0.10.0	5_exp_RW	83	Rpleas_acq	CS_B	GWWG	MQQM	BZZB	YDDY	VKKV	JXXJ	treu	ehrlich	retten	fair	spielen	schön	tot	eitel	rächen	faul	strafen	schlecht	1	acq_USpleas_CSpleas1_RW	acq4567_RW	4	74	400	1	300	300	367	50	0	1	1	blank2r.bmp	0	1	+	0	1	blank2r.bmp	492	1	GWWG	492	1	blank2r.bmp	572	1	treu	866	1	!	1239	1	!	1266	0	0	0	0	0	0	0	0	0	0	0	0	0	0	0	0	0	0	0	0	0	0	0	0	0	0	0	0	0	0
072419	14:27:44	14:37:38	592465	5.0.10.0	5_exp_RW	83	Rpleas_acq	CS_B	GWWG	MQQM	BZZB	YDDY	VKKV	JXXJ	treu	ehrlich	retten	fair	spielen	schön	tot	eitel	rächen	faul	strafen	schlecht	1	acq_USunple_CSunple1_RW	acq4567_RW	4	75	400	1	300	300	395	46	0	1	1	blank2r.bmp	0	1	+	0	1	blank2r.bmp	492	1	BZZB	492	1	blank2r.bmp	572	1	tot	866	1	!	1239	1	!	1292	0	0	0	0	0	0	0	0	0	0	0	0	0	0	0	0	0	0	0	0	0	0	0	0	0	0	0	0	0	0
072419	14:27:44	14:37:40	594704	5.0.10.0	5_exp_RW	83	Rpleas_acq	CS_B	GWWG	MQQM	BZZB	YDDY	VKKV	JXXJ	treu	ehrlich	retten	fair	spielen	schön	tot	eitel	rächen	faul	strafen	schlecht	1	acq_USpleas_CSpleas1_RW	acq4567_RW	4	76	400	1	300	300	440	50	0	1	1	blank2r.bmp	0	1	+	0	1	blank2r.bmp	492	1	GWWG	492	1	blank2r.bmp	572	3	retten	866	1	!	1239	1	!	1346	0	0	0	0	0	0	0	0	0	0	0	0	0	0	0	0	0	0	0	0	0	0	0	0	0	0	0	0	0	0
072419	14:27:44	14:37:43	596943	5.0.10.0	5_exp_RW	83	Rpleas_acq	CS_B	GWWG	MQQM	BZZB	YDDY	VKKV	JXXJ	treu	ehrlich	retten	fair	spielen	schön	tot	eitel	rächen	faul	strafen	schlecht	1	acq_USunple_CSunple2_RW	acq4567_RW	4	77	400	1	300	300	443	46	0	1	1	blank2r.bmp	0	1	+	0	1	blank2r.bmp	492	1	YDDY	492	1	blank2r.bmp	572	1	faul	866	1	!	1239	1	!	1346	0	0	0	0	0	0	0	0	0	0	0	0	0	0	0	0	0	0	0	0	0	0	0	0	0	0	0	0	0	0
072419	14:27:44	14:37:45	599035	5.0.10.0	5_exp_RW	83	Rpleas_acq	CS_B	GWWG	MQQM	BZZB	YDDY	VKKV	JXXJ	treu	ehrlich	retten	fair	spielen	schön	tot	eitel	rächen	faul	strafen	schlecht	1	acq_USpleas_CSpleas2_RW	acq4567_RW	4	78	400	0	300	300	322	50	0	1	1	blank2r.bmp	0	1	+	0	1	blank2r.bmp	492	1	MQQM	492	1	blank2r.bmp	572	2	spielen	866	1	!	-1	1	!	-1	0	0	0	0	0	0	0	0	0	0	0	0	0	0	0	0	0	0	0	0	0	0	0	0	0	0	0	0	0	0
072419	14:27:44	14:37:47	601261	5.0.10.0	5_exp_RW	83	Rpleas_acq	CS_B	GWWG	MQQM	BZZB	YDDY	VKKV	JXXJ	treu	ehrlich	retten	fair	spielen	schön	tot	eitel	rächen	faul	strafen	schlecht	1	acq_USpleas_CSpleas1_RW	acq4567_RW	4	79	400	1	300	300	422	50	0	1	1	blank2r.bmp	0	1	+	0	1	blank2r.bmp	492	1	GWWG	492	1	blank2r.bmp	572	2	ehrlich	866	1	!	1239	1	!	1319	0	0	0	0	0	0	0	0	0	0	0	0	0	0	0	0	0	0	0	0	0	0	0	0	0	0	0	0	0	0
072419	14:27:44	14:37:49	603513	5.0.10.0	5_exp_RW	83	Rpleas_acq	CS_B	GWWG	MQQM	BZZB	YDDY	VKKV	JXXJ	treu	ehrlich	retten	fair	spielen	schön	tot	eitel	rächen	faul	strafen	schlecht	1	acq_USunple_CSunple2_RW	acq4567_RW	4	80	400	1	300	300	464	46	0	1	1	blank2r.bmp	0	1	+	0	1	blank2r.bmp	492	1	YDDY	492	1	blank2r.bmp	572	3	schlecht	866	1	!	1239	1	!	1359	0	0	0	0	0	0	0	0	0	0	0	0	0	0	0	0	0	0	0	0	0	0	0	0	0	0	0	0	0	0
072419	14:27:44	14:38:43	657265	5.0.10.0	5_exp_RW	83	Rpleas_acq	CS_B	GWWG	MQQM	BZZB	YDDY	VKKV	JXXJ	treu	ehrlich	retten	fair	spielen	schön	tot	eitel	rächen	faul	strafen	schlecht	1	acq_USpleas_CSpleas2_RW	acq4567_RW	5	1	400	1	300	300	416	46	0	0	1	blank2r.bmp	0	1	+	0	1	blank2r.bmp	492	1	MQQM	492	1	blank2r.bmp	572	1	fair	866	1	!	1239	1	!	1319	0	0	0	0	0	0	0	0	0	0	0	0	0	0	0	0	0	0	0	0	0	0	0	0	0	0	0	0	0	0
072419	14:27:44	14:38:45	659531	5.0.10.0	5_exp_RW	83	Rpleas_acq	CS_B	GWWG	MQQM	BZZB	YDDY	VKKV	JXXJ	treu	ehrlich	retten	fair	spielen	schön	tot	eitel	rächen	faul	strafen	schlecht	1	acq_USpleas_CSpleas1_RW	acq4567_RW	5	2	400	0	300	300	493	50	0	1	1	blank2r.bmp	0	1	+	0	1	blank2r.bmp	492	1	GWWG	492	1	blank2r.bmp	572	3	retten	866	1	!	1239	1	!	-1	0	0	0	0	0	0	0	0	0	0	0	0	0	0	0	0	0	0	0	0	0	0	0	0	0	0	0	0	0	0
072419	14:27:44	14:38:47	661690	5.0.10.0	5_exp_RW	83	Rpleas_acq	CS_B	GWWG	MQQM	BZZB	YDDY	VKKV	JXXJ	treu	ehrlich	retten	fair	spielen	schön	tot	eitel	rächen	faul	strafen	schlecht	1	acq_USpleas_CSpleas2_RW	acq4567_RW	5	3	400	1	300	300	346	50	0	1	1	blank2r.bmp	0	1	+	0	1	blank2r.bmp	492	1	MQQM	492	1	blank2r.bmp	572	3	schön	866	1	!	1239	1	!	1252	0	0	0	0	0	0	0	0	0	0	0	0	0	0	0	0	0	0	0	0	0	0	0	0	0	0	0	0	0	0
072419	14:27:44	14:38:50	663915	5.0.10.0	5_exp_RW	83	Rpleas_acq	CS_B	GWWG	MQQM	BZZB	YDDY	VKKV	JXXJ	treu	ehrlich	retten	fair	spielen	schön	tot	eitel	rächen	faul	strafen	schlecht	1	acq_USpleas_CSpleas2_RW	acq4567_RW	5	4	400	1	300	300	428	50	0	1	1	blank2r.bmp	0	1	+	0	1	blank2r.bmp	492	1	MQQM	492	1	blank2r.bmp	572	2	spielen	866	1	!	1239	1	!	1332	0	0	0	0	0	0	0	0	0	0	0	0	0	0	0	0	0	0	0	0	0	0	0	0	0	0	0	0	0	0
072419	14:27:44	14:38:52	666168	5.0.10.0	5_exp_RW	83	Rpleas_acq	CS_B	GWWG	MQQM	BZZB	YDDY	VKKV	JXXJ	treu	ehrlich	retten	fair	spielen	schön	tot	eitel	rächen	faul	strafen	schlecht	1	acq_USpleas_CSpleas2_RW	acq4567_RW	5	5	400	0	300	300	479	50	0	1	1	blank2r.bmp	0	1	+	0	1	blank2r.bmp	492	1	MQQM	492	1	blank2r.bmp	572	2	spielen	866	1	!	1239	1	!	-1	0	0	0	0	0	0	0	0	0	0	0	0	0	0	0	0	0	0	0	0	0	0	0	0	0	0	0	0	0	0
072419	14:27:44	14:38:54	668380	5.0.10.0	5_exp_RW	83	Rpleas_acq	CS_B	GWWG	MQQM	BZZB	YDDY	VKKV	JXXJ	treu	ehrlich	retten	fair	spielen	schön	tot	eitel	rächen	faul	strafen	schlecht	1	acq_USpleas_CSpleas1_RW	acq4567_RW	5	6	400	1	300	300	402	50	0	1	1	blank2r.bmp	0	1	+	0	1	blank2r.bmp	492	1	GWWG	492	1	blank2r.bmp	572	2	ehrlich	866	1	!	1239	1	!	1306	0	0	0	0	0	0	0	0	0	0	0	0	0	0	0	0	0	0	0	0	0	0	0	0	0	0	0	0	0	0
072419	14:27:44	14:38:56	670606	5.0.10.0	5_exp_RW	83	Rpleas_acq	CS_B	GWWG	MQQM	BZZB	YDDY	VKKV	JXXJ	treu	ehrlich	retten	fair	spielen	schön	tot	eitel	rächen	faul	strafen	schlecht	1	acq_USunple_CSunple2_RW	acq4567_RW	5	7	400	1	300	300	438	46	0	1	1	blank2r.bmp	0	1	+	0	1	blank2r.bmp	492	1	YDDY	492	1	blank2r.bmp	572	2	strafen	866	1	!	1239	1	!	1332	0	0	0	0	0	0	0	0	0	0	0	0	0	0	0	0	0	0	0	0	0	0	0	0	0	0	0	0	0	0
072419	14:27:44	14:38:58	672805	5.0.10.0	5_exp_RW	83	Rpleas_acq	CS_B	GWWG	MQQM	BZZB	YDDY	VKKV	JXXJ	treu	ehrlich	retten	fair	spielen	schön	tot	eitel	rächen	faul	strafen	schlecht	1	acq_USpleas_CSpleas1_RW	acq4567_RW	5	8	400	1	300	300	404	50	0	1	1	blank2r.bmp	0	1	+	0	1	blank2r.bmp	492	1	GWWG	492	1	blank2r.bmp	572	1	treu	866	1	!	1239	1	!	1306	0	0	0	0	0	0	0	0	0	0	0	0	0	0	0	0	0	0	0	0	0	0	0	0	0	0	0	0	0	0
072419	14:27:44	14:39:01	675071	5.0.10.0	5_exp_RW	83	Rpleas_acq	CS_B	GWWG	MQQM	BZZB	YDDY	VKKV	JXXJ	treu	ehrlich	retten	fair	spielen	schön	tot	eitel	rächen	faul	strafen	schlecht	1	acq_USunple_CSunple2_RW	acq4567_RW	5	9	400	0	300	300	492	46	0	1	1	blank2r.bmp	0	1	+	0	1	blank2r.bmp	492	1	YDDY	492	1	blank2r.bmp	572	3	schlecht	866	1	!	1239	1	!	-1	0	0	0	0	0	0	0	0	0	0	0	0	0	0	0	0	0	0	0	0	0	0	0	0	0	0	0	0	0	0
072419	14:27:44	14:39:03	677337	5.0.10.0	5_exp_RW	83	Rpleas_acq	CS_B	GWWG	MQQM	BZZB	YDDY	VKKV	JXXJ	treu	ehrlich	retten	fair	spielen	schön	tot	eitel	rächen	faul	strafen	schlecht	1	acq_USunple_CSunple1_RW	acq4567_RW	5	10	400	1	300	300	463	46	0	1	1	blank2r.bmp	0	1	+	0	1	blank2r.bmp	492	1	BZZB	492	1	blank2r.bmp	572	2	eitel	866	1	!	1239	1	!	1359	0	0	0	0	0	0	0	0	0	0	0	0	0	0	0	0	0	0	0	0	0	0	0	0	0	0	0	0	0	0
072419	14:27:44	14:39:05	679562	5.0.10.0	5_exp_RW	83	Rpleas_acq	CS_B	GWWG	MQQM	BZZB	YDDY	VKKV	JXXJ	treu	ehrlich	retten	fair	spielen	schön	tot	eitel	rächen	faul	strafen	schlecht	1	acq_USunple_CSunple1_RW	acq4567_RW	5	11	400	1	300	300	429	46	0	1	1	blank2r.bmp	0	1	+	0	1	blank2r.bmp	492	1	BZZB	492	1	blank2r.bmp	572	1	tot	866	1	!	1239	1	!	1332	0	0	0	0	0	0	0	0	0	0	0	0	0	0	0	0	0	0	0	0	0	0	0	0	0	0	0	0	0	0
072419	14:27:44	14:39:07	681815	5.0.10.0	5_exp_RW	83	Rpleas_acq	CS_B	GWWG	MQQM	BZZB	YDDY	VKKV	JXXJ	treu	ehrlich	retten	fair	spielen	schön	tot	eitel	rächen	faul	strafen	schlecht	1	acq_USpleas_CSpleas1_RW	acq4567_RW	5	12	400	0	300	300	479	50	0	1	1	blank2r.bmp	0	1	+	0	1	blank2r.bmp	492	1	GWWG	492	1	blank2r.bmp	572	2	ehrlich	866	1	!	1239	1	!	-1	0	0	0	0	0	0	0	0	0	0	0	0	0	0	0	0	0	0	0	0	0	0	0	0	0	0	0	0	0	0
072419	14:27:44	14:39:10	684041	5.0.10.0	5_exp_RW	83	Rpleas_acq	CS_B	GWWG	MQQM	BZZB	YDDY	VKKV	JXXJ	treu	ehrlich	retten	fair	spielen	schön	tot	eitel	rächen	faul	strafen	schlecht	1	acq_USunple_CSunple2_RW	acq4567_RW	5	13	400	1	300	300	423	46	0	1	1	blank2r.bmp	0	1	+	0	1	blank2r.bmp	492	1	YDDY	492	1	blank2r.bmp	572	1	faul	866	1	!	1239	1	!	1319	0	0	0	0	0	0	0	0	0	0	0	0	0	0	0	0	0	0	0	0	0	0	0	0	0	0	0	0	0	0
072419	14:27:44	14:39:12	686280	5.0.10.0	5_exp_RW	83	Rpleas_acq	CS_B	GWWG	MQQM	BZZB	YDDY	VKKV	JXXJ	treu	ehrlich	retten	fair	spielen	schön	tot	eitel	rächen	faul	strafen	schlecht	1	acq_USunple_CSunple1_RW	acq4567_RW	5	14	400	1	300	300	447	46	0	1	1	blank2r.bmp	0	1	+	0	1	blank2r.bmp	492	1	BZZB	492	1	blank2r.bmp	572	3	rächen	866	1	!	1239	1	!	1346	0	0	0	0	0	0	0	0	0	0	0	0	0	0	0	0	0	0	0	0	0	0	0	0	0	0	0	0	0	0
072419	14:27:44	14:39:14	688532	5.0.10.0	5_exp_RW	83	Rpleas_acq	CS_B	GWWG	MQQM	BZZB	YDDY	VKKV	JXXJ	treu	ehrlich	retten	fair	spielen	schön	tot	eitel	rächen	faul	strafen	schlecht	1	acq_USunple_CSunple2_RW	acq4567_RW	5	15	400	0	300	300	479	46	0	1	1	blank2r.bmp	0	1	+	0	1	blank2r.bmp	492	1	YDDY	492	1	blank2r.bmp	572	1	faul	866	1	!	1239	1	!	-1	0	0	0	0	0	0	0	0	0	0	0	0	0	0	0	0	0	0	0	0	0	0	0	0	0	0	0	0	0	0
072419	14:27:44	14:39:16	690745	5.0.10.0	5_exp_RW	83	Rpleas_acq	CS_B	GWWG	MQQM	BZZB	YDDY	VKKV	JXXJ	treu	ehrlich	retten	fair	spielen	schön	tot	eitel	rächen	faul	strafen	schlecht	1	acq_USunple_CSunple2_RW	acq4567_RW	5	16	400	1	300	300	409	50	0	0	1	blank2r.bmp	0	1	+	0	1	blank2r.bmp	492	1	YDDY	492	1	blank2r.bmp	572	3	schlecht	866	1	!	1239	1	!	1306	0	0	0	0	0	0	0	0	0	0	0	0	0	0	0	0	0	0	0	0	0	0	0	0	0	0	0	0	0	0
072419	14:27:44	14:39:19	692917	5.0.10.0	5_exp_RW	83	Rpleas_acq	CS_B	GWWG	MQQM	BZZB	YDDY	VKKV	JXXJ	treu	ehrlich	retten	fair	spielen	schön	tot	eitel	rächen	faul	strafen	schlecht	1	acq_USunple_CSunple1_RW	acq4567_RW	5	17	400	1	300	300	381	46	0	1	1	blank2r.bmp	0	1	+	0	1	blank2r.bmp	492	1	BZZB	492	1	blank2r.bmp	572	1	tot	866	1	!	1239	1	!	1279	0	0	0	0	0	0	0	0	0	0	0	0	0	0	0	0	0	0	0	0	0	0	0	0	0	0	0	0	0	0
072419	14:27:44	14:39:21	695156	5.0.10.0	5_exp_RW	83	Rpleas_acq	CS_B	GWWG	MQQM	BZZB	YDDY	VKKV	JXXJ	treu	ehrlich	retten	fair	spielen	schön	tot	eitel	rächen	faul	strafen	schlecht	1	acq_USpleas_CSpleas1_RW	acq4567_RW	5	18	400	1	300	300	451	50	0	1	1	blank2r.bmp	0	1	+	0	1	blank2r.bmp	492	1	GWWG	492	1	blank2r.bmp	572	3	retten	866	1	!	1239	1	!	1346	0	0	0	0	0	0	0	0	0	0	0	0	0	0	0	0	0	0	0	0	0	0	0	0	0	0	0	0	0	0
072419	14:27:44	14:39:23	697355	5.0.10.0	5_exp_RW	83	Rpleas_acq	CS_B	GWWG	MQQM	BZZB	YDDY	VKKV	JXXJ	treu	ehrlich	retten	fair	spielen	schön	tot	eitel	rächen	faul	strafen	schlecht	1	acq_USunple_CSunple1_RW	acq4567_RW	5	19	400	1	300	300	409	46	0	1	1	blank2r.bmp	0	1	+	0	1	blank2r.bmp	492	1	BZZB	492	1	blank2r.bmp	572	2	eitel	866	1	!	1239	1	!	1306	0	0	0	0	0	0	0	0	0	0	0	0	0	0	0	0	0	0	0	0	0	0	0	0	0	0	0	0	0	0
072419	14:27:44	14:39:25	699621	5.0.10.0	5_exp_RW	83	Rpleas_acq	CS_B	GWWG	MQQM	BZZB	YDDY	VKKV	JXXJ	treu	ehrlich	retten	fair	spielen	schön	tot	eitel	rächen	faul	strafen	schlecht	1	acq_USpleas_CSpleas2_RW	acq4567_RW	5	20	400	0	300	300	492	46	0	0	1	blank2r.bmp	0	1	+	0	1	blank2r.bmp	492	1	MQQM	492	1	blank2r.bmp	572	1	fair	866	1	!	1239	1	!	-1	0	0	0	0	0	0	0	0	0	0	0	0	0	0	0	0	0	0	0	0	0	0	0	0	0	0	0	0	0	0
072419	14:27:44	14:39:28	701927	5.0.10.0	5_exp_RW	83	Rpleas_acq	CS_B	GWWG	MQQM	BZZB	YDDY	VKKV	JXXJ	treu	ehrlich	retten	fair	spielen	schön	tot	eitel	rächen	faul	strafen	schlecht	1	acq_USunple_CSunple2_RW	acq4567_RW	5	21	400	0	300	300	519	46	0	1	1	blank2r.bmp	0	1	+	0	1	blank2r.bmp	492	1	YDDY	492	1	blank2r.bmp	572	2	strafen	866	1	!	1239	1	!	-1	0	0	0	0	0	0	0	0	0	0	0	0	0	0	0	0	0	0	0	0	0	0	0	0	0	0	0	0	0	0
072419	14:27:44	14:39:30	704152	5.0.10.0	5_exp_RW	83	Rpleas_acq	CS_B	GWWG	MQQM	BZZB	YDDY	VKKV	JXXJ	treu	ehrlich	retten	fair	spielen	schön	tot	eitel	rächen	faul	strafen	schlecht	1	acq_USpleas_CSpleas2_RW	acq4567_RW	5	22	400	1	300	300	402	50	0	1	1	blank2r.bmp	0	1	+	0	1	blank2r.bmp	492	1	MQQM	492	1	blank2r.bmp	572	3	schön	866	1	!	1239	1	!	1306	0	0	0	0	0	0	0	0	0	0	0	0	0	0	0	0	0	0	0	0	0	0	0	0	0	0	0	0	0	0
072419	14:27:44	14:39:32	706405	5.0.10.0	5_exp_RW	83	Rpleas_acq	CS_B	GWWG	MQQM	BZZB	YDDY	VKKV	JXXJ	treu	ehrlich	retten	fair	spielen	schön	tot	eitel	rächen	faul	strafen	schlecht	1	acq_USpleas_CSpleas1_RW	acq4567_RW	5	23	400	0	300	300	484	50	0	1	1	blank2r.bmp	0	1	+	0	1	blank2r.bmp	492	1	GWWG	492	1	blank2r.bmp	572	1	treu	866	1	!	1239	1	!	-1	0	0	0	0	0	0	0	0	0	0	0	0	0	0	0	0	0	0	0	0	0	0	0	0	0	0	0	0	0	0
072419	14:27:44	14:39:34	708644	5.0.10.0	5_exp_RW	83	Rpleas_acq	CS_B	GWWG	MQQM	BZZB	YDDY	VKKV	JXXJ	treu	ehrlich	retten	fair	spielen	schön	tot	eitel	rächen	faul	strafen	schlecht	1	acq_USunple_CSunple2_RW	acq4567_RW	5	24	400	1	300	300	430	46	0	1	1	blank2r.bmp	0	1	+	0	1	blank2r.bmp	492	1	YDDY	492	1	blank2r.bmp	572	1	faul	866	1	!	1239	1	!	1332	0	0	0	0	0	0	0	0	0	0	0	0	0	0	0	0	0	0	0	0	0	0	0	0	0	0	0	0	0	0
072419	14:27:44	14:39:37	710830	5.0.10.0	5_exp_RW	83	Rpleas_acq	CS_B	GWWG	MQQM	BZZB	YDDY	VKKV	JXXJ	treu	ehrlich	retten	fair	spielen	schön	tot	eitel	rächen	faul	strafen	schlecht	1	acq_USunple_CSunple2_RW	acq4567_RW	5	25	400	1	300	300	393	46	0	1	1	blank2r.bmp	0	1	+	0	1	blank2r.bmp	492	1	YDDY	492	1	blank2r.bmp	572	3	schlecht	866	1	!	1239	1	!	1292	0	0	0	0	0	0	0	0	0	0	0	0	0	0	0	0	0	0	0	0	0	0	0	0	0	0	0	0	0	0
072419	14:27:44	14:39:39	713082	5.0.10.0	5_exp_RW	83	Rpleas_acq	CS_B	GWWG	MQQM	BZZB	YDDY	VKKV	JXXJ	treu	ehrlich	retten	fair	spielen	schön	tot	eitel	rächen	faul	strafen	schlecht	1	acq_USunple_CSunple2_RW	acq4567_RW	5	26	400	1	300	300	455	46	0	1	1	blank2r.bmp	0	1	+	0	1	blank2r.bmp	492	1	YDDY	492	1	blank2r.bmp	572	2	strafen	866	1	!	1239	1	!	1359	0	0	0	0	0	0	0	0	0	0	0	0	0	0	0	0	0	0	0	0	0	0	0	0	0	0	0	0	0	0
072419	14:27:44	14:39:41	715241	5.0.10.0	5_exp_RW	83	Rpleas_acq	CS_B	GWWG	MQQM	BZZB	YDDY	VKKV	JXXJ	treu	ehrlich	retten	fair	spielen	schön	tot	eitel	rächen	faul	strafen	schlecht	1	acq_USpleas_CSpleas2_RW	acq4567_RW	5	27	400	1	300	300	369	50	0	1	1	blank2r.bmp	0	1	+	0	1	blank2r.bmp	492	1	MQQM	492	1	blank2r.bmp	572	2	spielen	866	1	!	1239	1	!	1266	0	0	0	0	0	0	0	0	0	0	0	0	0	0	0	0	0	0	0	0	0	0	0	0	0	0	0	0	0	0
072419	14:27:44	14:39:43	717400	5.0.10.0	5_exp_RW	83	Rpleas_acq	CS_B	GWWG	MQQM	BZZB	YDDY	VKKV	JXXJ	treu	ehrlich	retten	fair	spielen	schön	tot	eitel	rächen	faul	strafen	schlecht	1	acq_USunple_CSunple1_RW	acq4567_RW	5	28	400	1	300	300	366	46	0	1	1	blank2r.bmp	0	1	+	0	1	blank2r.bmp	492	1	BZZB	492	1	blank2r.bmp	572	3	rächen	866	1	!	1239	1	!	1266	0	0	0	0	0	0	0	0	0	0	0	0	0	0	0	0	0	0	0	0	0	0	0	0	0	0	0	0	0	0
072419	14:27:44	14:39:45	719560	5.0.10.0	5_exp_RW	83	Rpleas_acq	CS_B	GWWG	MQQM	BZZB	YDDY	VKKV	JXXJ	treu	ehrlich	retten	fair	spielen	schön	tot	eitel	rächen	faul	strafen	schlecht	1	acq_USunple_CSunple1_RW	acq4567_RW	5	29	400	1	300	300	365	46	0	1	1	blank2r.bmp	0	1	+	0	1	blank2r.bmp	492	1	BZZB	492	1	blank2r.bmp	572	3	rächen	866	1	!	1239	1	!	1266	0	0	0	0	0	0	0	0	0	0	0	0	0	0	0	0	0	0	0	0	0	0	0	0	0	0	0	0	0	0
072419	14:27:44	14:39:47	721759	5.0.10.0	5_exp_RW	83	Rpleas_acq	CS_B	GWWG	MQQM	BZZB	YDDY	VKKV	JXXJ	treu	ehrlich	retten	fair	spielen	schön	tot	eitel	rächen	faul	strafen	schlecht	1	acq_USpleas_CSpleas1_RW	acq4567_RW	5	30	400	1	300	300	406	50	0	1	1	blank2r.bmp	0	1	+	0	1	blank2r.bmp	492	1	GWWG	492	1	blank2r.bmp	572	2	ehrlich	866	1	!	1239	1	!	1306	0	0	0	0	0	0	0	0	0	0	0	0	0	0	0	0	0	0	0	0	0	0	0	0	0	0	0	0	0	0
072419	14:27:44	14:39:50	723824	5.0.10.0	5_exp_RW	83	Rpleas_acq	CS_B	GWWG	MQQM	BZZB	YDDY	VKKV	JXXJ	treu	ehrlich	retten	fair	spielen	schön	tot	eitel	rächen	faul	strafen	schlecht	1	acq_USpleas_CSpleas2_RW	acq4567_RW	5	31	400	0	300	300	303	50	0	1	1	blank2r.bmp	0	1	+	0	1	blank2r.bmp	492	1	MQQM	492	1	blank2r.bmp	572	1	fair	866	1	!	-1	1	!	-1	0	0	0	0	0	0	0	0	0	0	0	0	0	0	0	0	0	0	0	0	0	0	0	0	0	0	0	0	0	0
072419	14:27:44	14:39:52	725917	5.0.10.0	5_exp_RW	83	Rpleas_acq	CS_B	GWWG	MQQM	BZZB	YDDY	VKKV	JXXJ	treu	ehrlich	retten	fair	spielen	schön	tot	eitel	rächen	faul	strafen	schlecht	1	acq_USpleas_CSpleas2_RW	acq4567_RW	5	32	400	0	300	300	306	50	0	1	1	blank2r.bmp	0	1	+	0	1	blank2r.bmp	492	1	MQQM	492	1	blank2r.bmp	572	3	schön	866	1	!	-1	1	!	-1	0	0	0	0	0	0	0	0	0	0	0	0	0	0	0	0	0	0	0	0	0	0	0	0	0	0	0	0	0	0
072419	14:27:44	14:39:54	728183	5.0.10.0	5_exp_RW	83	Rpleas_acq	CS_B	GWWG	MQQM	BZZB	YDDY	VKKV	JXXJ	treu	ehrlich	retten	fair	spielen	schön	tot	eitel	rächen	faul	strafen	schlecht	1	acq_USpleas_CSpleas2_RW	acq4567_RW	5	33	400	1	300	300	446	50	0	1	1	blank2r.bmp	0	1	+	0	1	blank2r.bmp	492	1	MQQM	492	1	blank2r.bmp	572	3	schön	866	1	!	1239	1	!	1346	0	0	0	0	0	0	0	0	0	0	0	0	0	0	0	0	0	0	0	0	0	0	0	0	0	0	0	0	0	0
072419	14:27:44	14:39:56	730382	5.0.10.0	5_exp_RW	83	Rpleas_acq	CS_B	GWWG	MQQM	BZZB	YDDY	VKKV	JXXJ	treu	ehrlich	retten	fair	spielen	schön	tot	eitel	rächen	faul	strafen	schlecht	1	acq_USpleas_CSpleas1_RW	acq4567_RW	5	34	400	1	300	300	402	46	0	0	1	blank2r.bmp	0	1	+	0	1	blank2r.bmp	492	1	GWWG	492	1	blank2r.bmp	572	3	retten	866	1	!	1239	1	!	1306	0	0	0	0	0	0	0	0	0	0	0	0	0	0	0	0	0	0	0	0	0	0	0	0	0	0	0	0	0	0
072419	14:27:44	14:39:58	732621	5.0.10.0	5_exp_RW	83	Rpleas_acq	CS_B	GWWG	MQQM	BZZB	YDDY	VKKV	JXXJ	treu	ehrlich	retten	fair	spielen	schön	tot	eitel	rächen	faul	strafen	schlecht	1	acq_USunple_CSunple1_RW	acq4567_RW	5	35	400	1	300	300	447	46	0	1	1	blank2r.bmp	0	1	+	0	1	blank2r.bmp	492	1	BZZB	492	1	blank2r.bmp	572	1	tot	866	1	!	1239	1	!	1346	0	0	0	0	0	0	0	0	0	0	0	0	0	0	0	0	0	0	0	0	0	0	0	0	0	0	0	0	0	0
072419	14:27:44	14:40:01	734873	5.0.10.0	5_exp_RW	83	Rpleas_acq	CS_B	GWWG	MQQM	BZZB	YDDY	VKKV	JXXJ	treu	ehrlich	retten	fair	spielen	schön	tot	eitel	rächen	faul	strafen	schlecht	1	acq_USpleas_CSpleas1_RW	acq4567_RW	5	36	400	1	300	300	452	50	0	1	1	blank2r.bmp	0	1	+	0	1	blank2r.bmp	492	1	GWWG	492	1	blank2r.bmp	572	1	treu	866	1	!	1239	1	!	1359	0	0	0	0	0	0	0	0	0	0	0	0	0	0	0	0	0	0	0	0	0	0	0	0	0	0	0	0	0	0
072419	14:27:44	14:40:03	737139	5.0.10.0	5_exp_RW	83	Rpleas_acq	CS_B	GWWG	MQQM	BZZB	YDDY	VKKV	JXXJ	treu	ehrlich	retten	fair	spielen	schön	tot	eitel	rächen	faul	strafen	schlecht	1	acq_USunple_CSunple1_RW	acq4567_RW	5	37	400	0	300	300	496	46	0	1	1	blank2r.bmp	0	1	+	0	1	blank2r.bmp	492	1	BZZB	492	1	blank2r.bmp	572	2	eitel	866	1	!	1239	1	!	-1	0	0	0	0	0	0	0	0	0	0	0	0	0	0	0	0	0	0	0	0	0	0	0	0	0	0	0	0	0	0
072419	14:27:44	14:40:05	739298	5.0.10.0	5_exp_RW	83	Rpleas_acq	CS_B	GWWG	MQQM	BZZB	YDDY	VKKV	JXXJ	treu	ehrlich	retten	fair	spielen	schön	tot	eitel	rächen	faul	strafen	schlecht	1	acq_USunple_CSunple1_RW	acq4567_RW	5	38	400	1	300	300	355	46	0	1	1	blank2r.bmp	0	1	+	0	1	blank2r.bmp	492	1	BZZB	492	1	blank2r.bmp	572	1	tot	866	1	!	1239	1	!	1252	0	0	0	0	0	0	0	0	0	0	0	0	0	0	0	0	0	0	0	0	0	0	0	0	0	0	0	0	0	0
072419	14:27:44	14:40:07	741524	5.0.10.0	5_exp_RW	83	Rpleas_acq	CS_B	GWWG	MQQM	BZZB	YDDY	VKKV	JXXJ	treu	ehrlich	retten	fair	spielen	schön	tot	eitel	rächen	faul	strafen	schlecht	1	acq_USpleas_CSpleas1_RW	acq4567_RW	5	39	400	1	300	300	430	50	0	1	1	blank2r.bmp	0	1	+	0	1	blank2r.bmp	492	1	GWWG	492	1	blank2r.bmp	572	1	treu	866	1	!	1239	1	!	1332	0	0	0	0	0	0	0	0	0	0	0	0	0	0	0	0	0	0	0	0	0	0	0	0	0	0	0	0	0	0
072419	14:27:44	14:40:09	743750	5.0.10.0	5_exp_RW	83	Rpleas_acq	CS_B	GWWG	MQQM	BZZB	YDDY	VKKV	JXXJ	treu	ehrlich	retten	fair	spielen	schön	tot	eitel	rächen	faul	strafen	schlecht	1	acq_USunple_CSunple2_RW	acq4567_RW	5	40	400	1	300	300	428	46	0	1	1	blank2r.bmp	0	1	+	0	1	blank2r.bmp	492	1	YDDY	492	1	blank2r.bmp	572	1	faul	866	1	!	1239	1	!	1332	0	0	0	0	0	0	0	0	0	0	0	0	0	0	0	0	0	0	0	0	0	0	0	0	0	0	0	0	0	0
072419	14:27:44	14:40:12	745895	5.0.10.0	5_exp_RW	83	Rpleas_acq	CS_B	GWWG	MQQM	BZZB	YDDY	VKKV	JXXJ	treu	ehrlich	retten	fair	spielen	schön	tot	eitel	rächen	faul	strafen	schlecht	1	acq_USpleas_CSpleas2_RW	acq4567_RW	5	41	400	1	300	300	346	46	0	0	1	blank2r.bmp	0	1	+	0	1	blank2r.bmp	492	1	MQQM	492	1	blank2r.bmp	572	1	fair	866	1	!	1239	1	!	1252	0	0	0	0	0	0	0	0	0	0	0	0	0	0	0	0	0	0	0	0	0	0	0	0	0	0	0	0	0	0
072419	14:27:44	14:40:14	748148	5.0.10.0	5_exp_RW	83	Rpleas_acq	CS_B	GWWG	MQQM	BZZB	YDDY	VKKV	JXXJ	treu	ehrlich	retten	fair	spielen	schön	tot	eitel	rächen	faul	strafen	schlecht	1	acq_USunple_CSunple1_RW	acq4567_RW	5	42	400	1	300	300	453	46	0	1	1	blank2r.bmp	0	1	+	0	1	blank2r.bmp	492	1	BZZB	492	1	blank2r.bmp	572	3	rächen	866	1	!	1239	1	!	1359	0	0	0	0	0	0	0	0	0	0	0	0	0	0	0	0	0	0	0	0	0	0	0	0	0	0	0	0	0	0
072419	14:27:44	14:40:16	750400	5.0.10.0	5_exp_RW	83	Rpleas_acq	CS_B	GWWG	MQQM	BZZB	YDDY	VKKV	JXXJ	treu	ehrlich	retten	fair	spielen	schön	tot	eitel	rächen	faul	strafen	schlecht	1	acq_USunple_CSunple1_RW	acq4567_RW	5	43	400	1	300	300	456	46	0	1	1	blank2r.bmp	0	1	+	0	1	blank2r.bmp	492	1	BZZB	492	1	blank2r.bmp	572	2	eitel	866	1	!	1239	1	!	1359	0	0	0	0	0	0	0	0	0	0	0	0	0	0	0	0	0	0	0	0	0	0	0	0	0	0	0	0	0	0
072419	14:27:44	14:40:18	752613	5.0.10.0	5_exp_RW	83	Rpleas_acq	CS_B	GWWG	MQQM	BZZB	YDDY	VKKV	JXXJ	treu	ehrlich	retten	fair	spielen	schön	tot	eitel	rächen	faul	strafen	schlecht	1	acq_USunple_CSunple2_RW	acq4567_RW	5	44	400	1	300	300	419	46	0	1	1	blank2r.bmp	0	1	+	0	1	blank2r.bmp	492	1	YDDY	492	1	blank2r.bmp	572	3	schlecht	866	1	!	1239	1	!	1319	0	0	0	0	0	0	0	0	0	0	0	0	0	0	0	0	0	0	0	0	0	0	0	0	0	0	0	0	0	0
072419	14:27:44	14:40:21	754878	5.0.10.0	5_exp_RW	83	Rpleas_acq	CS_B	GWWG	MQQM	BZZB	YDDY	VKKV	JXXJ	treu	ehrlich	retten	fair	spielen	schön	tot	eitel	rächen	faul	strafen	schlecht	1	acq_USpleas_CSpleas2_RW	acq4567_RW	5	45	400	0	300	300	495	50	0	1	1	blank2r.bmp	0	1	+	0	1	blank2r.bmp	492	1	MQQM	492	1	blank2r.bmp	572	2	spielen	866	1	!	1239	1	!	-1	0	0	0	0	0	0	0	0	0	0	0	0	0	0	0	0	0	0	0	0	0	0	0	0	0	0	0	0	0	0
072419	14:27:44	14:40:23	757104	5.0.10.0	5_exp_RW	83	Rpleas_acq	CS_B	GWWG	MQQM	BZZB	YDDY	VKKV	JXXJ	treu	ehrlich	retten	fair	spielen	schön	tot	eitel	rächen	faul	strafen	schlecht	1	acq_USunple_CSunple2_RW	acq4567_RW	5	46	400	1	300	300	412	46	0	1	1	blank2r.bmp	0	1	+	0	1	blank2r.bmp	492	1	YDDY	492	1	blank2r.bmp	572	2	strafen	866	1	!	1239	1	!	1319	0	0	0	0	0	0	0	0	0	0	0	0	0	0	0	0	0	0	0	0	0	0	0	0	0	0	0	0	0	0
072419	14:27:44	14:40:25	759330	5.0.10.0	5_exp_RW	83	Rpleas_acq	CS_B	GWWG	MQQM	BZZB	YDDY	VKKV	JXXJ	treu	ehrlich	retten	fair	spielen	schön	tot	eitel	rächen	faul	strafen	schlecht	1	acq_USunple_CSunple1_RW	acq4567_RW	5	47	400	1	300	300	427	46	0	1	1	blank2r.bmp	0	1	+	0	1	blank2r.bmp	492	1	BZZB	492	1	blank2r.bmp	572	2	eitel	866	1	!	1239	1	!	1332	0	0	0	0	0	0	0	0	0	0	0	0	0	0	0	0	0	0	0	0	0	0	0	0	0	0	0	0	0	0
072419	14:27:44	14:40:27	761622	5.0.10.0	5_exp_RW	83	Rpleas_acq	CS_B	GWWG	MQQM	BZZB	YDDY	VKKV	JXXJ	treu	ehrlich	retten	fair	spielen	schön	tot	eitel	rächen	faul	strafen	schlecht	1	acq_USpleas_CSpleas1_RW	acq4567_RW	5	48	400	0	300	300	517	50	0	1	1	blank2r.bmp	0	1	+	0	1	blank2r.bmp	492	1	GWWG	492	1	blank2r.bmp	572	3	retten	866	1	!	1239	1	!	-1	0	0	0	0	0	0	0	0	0	0	0	0	0	0	0	0	0	0	0	0	0	0	0	0	0	0	0	0	0	0
072419	14:27:44	14:40:30	763835	5.0.10.0	5_exp_RW	83	Rpleas_acq	CS_B	GWWG	MQQM	BZZB	YDDY	VKKV	JXXJ	treu	ehrlich	retten	fair	spielen	schön	tot	eitel	rächen	faul	strafen	schlecht	1	acq_USunple_CSunple1_RW	acq4567_RW	5	49	400	1	300	300	411	46	0	1	1	blank2r.bmp	0	1	+	0	1	blank2r.bmp	492	1	BZZB	492	1	blank2r.bmp	572	1	tot	866	1	!	1239	1	!	1306	0	0	0	0	0	0	0	0	0	0	0	0	0	0	0	0	0	0	0	0	0	0	0	0	0	0	0	0	0	0
072419	14:27:44	14:40:32	766034	5.0.10.0	5_exp_RW	83	Rpleas_acq	CS_B	GWWG	MQQM	BZZB	YDDY	VKKV	JXXJ	treu	ehrlich	retten	fair	spielen	schön	tot	eitel	rächen	faul	strafen	schlecht	1	acq_USpleas_CSpleas1_RW	acq4567_RW	5	50	400	1	300	300	404	50	0	1	1	blank2r.bmp	0	1	+	0	1	blank2r.bmp	492	1	GWWG	492	1	blank2r.bmp	572	2	ehrlich	866	1	!	1239	1	!	1306	0	0	0	0	0	0	0	0	0	0	0	0	0	0	0	0	0	0	0	0	0	0	0	0	0	0	0	0	0	0
072419	14:27:44	14:40:34	768193	5.0.10.0	5_exp_RW	83	Rpleas_acq	CS_B	GWWG	MQQM	BZZB	YDDY	VKKV	JXXJ	treu	ehrlich	retten	fair	spielen	schön	tot	eitel	rächen	faul	strafen	schlecht	1	acq_USunple_CSunple1_RW	acq4567_RW	5	51	400	1	300	300	366	46	0	1	1	blank2r.bmp	0	1	+	0	1	blank2r.bmp	492	1	BZZB	492	1	blank2r.bmp	572	3	rächen	866	1	!	1239	1	!	1266	0	0	0	0	0	0	0	0	0	0	0	0	0	0	0	0	0	0	0	0	0	0	0	0	0	0	0	0	0	0
072419	14:27:44	14:40:36	770405	5.0.10.0	5_exp_RW	83	Rpleas_acq	CS_B	GWWG	MQQM	BZZB	YDDY	VKKV	JXXJ	treu	ehrlich	retten	fair	spielen	schön	tot	eitel	rächen	faul	strafen	schlecht	1	acq_USpleas_CSpleas2_RW	acq4567_RW	5	52	400	1	300	300	401	50	0	1	1	blank2r.bmp	0	1	+	0	1	blank2r.bmp	492	1	MQQM	492	1	blank2r.bmp	572	1	fair	866	1	!	1239	1	!	1306	0	0	0	0	0	0	0	0	0	0	0	0	0	0	0	0	0	0	0	0	0	0	0	0	0	0	0	0	0	0
072419	14:27:44	14:40:38	772658	5.0.10.0	5_exp_RW	83	Rpleas_acq	CS_B	GWWG	MQQM	BZZB	YDDY	VKKV	JXXJ	treu	ehrlich	retten	fair	spielen	schön	tot	eitel	rächen	faul	strafen	schlecht	1	acq_USunple_CSunple2_RW	acq4567_RW	5	53	400	0	300	300	479	46	0	1	1	blank2r.bmp	0	1	+	0	1	blank2r.bmp	492	1	YDDY	492	1	blank2r.bmp	572	3	schlecht	866	1	!	1239	1	!	-1	0	0	0	0	0	0	0	0	0	0	0	0	0	0	0	0	0	0	0	0	0	0	0	0	0	0	0	0	0	0
072419	14:27:44	14:40:41	774924	5.0.10.0	5_exp_RW	83	Rpleas_acq	CS_B	GWWG	MQQM	BZZB	YDDY	VKKV	JXXJ	treu	ehrlich	retten	fair	spielen	schön	tot	eitel	rächen	faul	strafen	schlecht	1	acq_USunple_CSunple2_RW	acq4567_RW	5	54	400	1	300	300	464	46	0	1	1	blank2r.bmp	0	1	+	0	1	blank2r.bmp	492	1	YDDY	492	1	blank2r.bmp	572	2	strafen	866	1	!	1239	1	!	1359	0	0	0	0	0	0	0	0	0	0	0	0	0	0	0	0	0	0	0	0	0	0	0	0	0	0	0	0	0	0
072419	14:27:44	14:40:43	777149	5.0.10.0	5_exp_RW	83	Rpleas_acq	CS_B	GWWG	MQQM	BZZB	YDDY	VKKV	JXXJ	treu	ehrlich	retten	fair	spielen	schön	tot	eitel	rächen	faul	strafen	schlecht	1	acq_USpleas_CSpleas2_RW	acq4567_RW	5	55	400	1	300	300	433	50	0	1	1	blank2r.bmp	0	1	+	0	1	blank2r.bmp	492	1	MQQM	492	1	blank2r.bmp	572	3	schön	866	1	!	1239	1	!	1332	0	0	0	0	0	0	0	0	0	0	0	0	0	0	0	0	0	0	0	0	0	0	0	0	0	0	0	0	0	0
072419	14:27:44	14:40:45	779402	5.0.10.0	5_exp_RW	83	Rpleas_acq	CS_B	GWWG	MQQM	BZZB	YDDY	VKKV	JXXJ	treu	ehrlich	retten	fair	spielen	schön	tot	eitel	rächen	faul	strafen	schlecht	1	acq_USunple_CSunple2_RW	acq4567_RW	5	56	400	0	300	300	479	46	0	1	1	blank2r.bmp	0	1	+	0	1	blank2r.bmp	492	1	YDDY	492	1	blank2r.bmp	572	1	faul	866	1	!	1239	1	!	-1	0	0	0	0	0	0	0	0	0	0	0	0	0	0	0	0	0	0	0	0	0	0	0	0	0	0	0	0	0	0
072419	14:27:44	14:40:47	781628	5.0.10.0	5_exp_RW	83	Rpleas_acq	CS_B	GWWG	MQQM	BZZB	YDDY	VKKV	JXXJ	treu	ehrlich	retten	fair	spielen	schön	tot	eitel	rächen	faul	strafen	schlecht	1	acq_USpleas_CSpleas2_RW	acq4567_RW	5	57	400	1	300	300	418	50	0	1	1	blank2r.bmp	0	1	+	0	1	blank2r.bmp	492	1	MQQM	492	1	blank2r.bmp	572	2	spielen	866	1	!	1239	1	!	1319	0	0	0	0	0	0	0	0	0	0	0	0	0	0	0	0	0	0	0	0	0	0	0	0	0	0	0	0	0	0
072419	14:27:44	14:40:50	783893	5.0.10.0	5_exp_RW	83	Rpleas_acq	CS_B	GWWG	MQQM	BZZB	YDDY	VKKV	JXXJ	treu	ehrlich	retten	fair	spielen	schön	tot	eitel	rächen	faul	strafen	schlecht	1	acq_USpleas_CSpleas1_RW	acq4567_RW	5	58	400	0	300	300	505	50	0	1	1	blank2r.bmp	0	1	+	0	1	blank2r.bmp	492	1	GWWG	492	1	blank2r.bmp	572	2	ehrlich	866	1	!	1239	1	!	-1	0	0	0	0	0	0	0	0	0	0	0	0	0	0	0	0	0	0	0	0	0	0	0	0	0	0	0	0	0	0
072419	14:27:44	14:40:52	786132	5.0.10.0	5_exp_RW	83	Rpleas_acq	CS_B	GWWG	MQQM	BZZB	YDDY	VKKV	JXXJ	treu	ehrlich	retten	fair	spielen	schön	tot	eitel	rächen	faul	strafen	schlecht	1	acq_USpleas_CSpleas1_RW	acq4567_RW	5	59	400	1	300	300	429	50	0	1	1	blank2r.bmp	0	1	+	0	1	blank2r.bmp	492	1	GWWG	492	1	blank2r.bmp	572	3	retten	866	1	!	1239	1	!	1332	0	0	0	0	0	0	0	0	0	0	0	0	0	0	0	0	0	0	0	0	0	0	0	0	0	0	0	0	0	0
072419	14:27:44	14:40:54	788371	5.0.10.0	5_exp_RW	83	Rpleas_acq	CS_B	GWWG	MQQM	BZZB	YDDY	VKKV	JXXJ	treu	ehrlich	retten	fair	spielen	schön	tot	eitel	rächen	faul	strafen	schlecht	1	acq_USpleas_CSpleas1_RW	acq4567_RW	5	60	400	1	300	300	430	50	0	1	1	blank2r.bmp	0	1	+	0	1	blank2r.bmp	492	1	GWWG	492	1	blank2r.bmp	572	1	treu	866	1	!	1239	1	!	1332	0	0	0	0	0	0	0	0	0	0	0	0	0	0	0	0	0	0	0	0	0	0	0	0	0	0	0	0	0	0
072419	14:27:44	14:40:56	790624	5.0.10.0	5_exp_RW	83	Rpleas_acq	CS_B	GWWG	MQQM	BZZB	YDDY	VKKV	JXXJ	treu	ehrlich	retten	fair	spielen	schön	tot	eitel	rächen	faul	strafen	schlecht	1	acq_USpleas_CSpleas2_RW	acq4567_RW	5	61	400	0	300	300	479	50	0	1	1	blank2r.bmp	0	1	+	0	1	blank2r.bmp	492	1	MQQM	492	1	blank2r.bmp	572	3	schön	866	1	!	1239	1	!	-1	0	0	0	0	0	0	0	0	0	0	0	0	0	0	0	0	0	0	0	0	0	0	0	0	0	0	0	0	0	0
072419	14:27:44	14:40:59	792850	5.0.10.0	5_exp_RW	83	Rpleas_acq	CS_B	GWWG	MQQM	BZZB	YDDY	VKKV	JXXJ	treu	ehrlich	retten	fair	spielen	schön	tot	eitel	rächen	faul	strafen	schlecht	1	acq_USunple_CSunple1_RW	acq4567_RW	5	62	400	1	300	300	420	50	0	0	1	blank2r.bmp	0	1	+	0	1	blank2r.bmp	492	1	BZZB	492	1	blank2r.bmp	572	2	eitel	866	1	!	1239	1	!	1319	0	0	0	0	0	0	0	0	0	0	0	0	0	0	0	0	0	0	0	0	0	0	0	0	0	0	0	0	0	0
072419	14:27:44	14:41:01	795062	5.0.10.0	5_exp_RW	83	Rpleas_acq	CS_B	GWWG	MQQM	BZZB	YDDY	VKKV	JXXJ	treu	ehrlich	retten	fair	spielen	schön	tot	eitel	rächen	faul	strafen	schlecht	1	acq_USunple_CSunple2_RW	acq4567_RW	5	63	400	1	300	300	419	50	0	0	1	blank2r.bmp	0	1	+	0	1	blank2r.bmp	492	1	YDDY	492	1	blank2r.bmp	572	1	faul	866	1	!	1239	1	!	1319	0	0	0	0	0	0	0	0	0	0	0	0	0	0	0	0	0	0	0	0	0	0	0	0	0	0	0	0	0	0
072419	14:27:44	14:41:03	797301	5.0.10.0	5_exp_RW	83	Rpleas_acq	CS_B	GWWG	MQQM	BZZB	YDDY	VKKV	JXXJ	treu	ehrlich	retten	fair	spielen	schön	tot	eitel	rächen	faul	strafen	schlecht	1	acq_USpleas_CSpleas1_RW	acq4567_RW	5	64	400	1	300	300	440	50	0	1	1	blank2r.bmp	0	1	+	0	1	blank2r.bmp	492	1	GWWG	492	1	blank2r.bmp	572	2	ehrlich	866	1	!	1239	1	!	1346	0	0	0	0	0	0	0	0	0	0	0	0	0	0	0	0	0	0	0	0	0	0	0	0	0	0	0	0	0	0
072419	14:27:44	14:41:05	799540	5.0.10.0	5_exp_RW	83	Rpleas_acq	CS_B	GWWG	MQQM	BZZB	YDDY	VKKV	JXXJ	treu	ehrlich	retten	fair	spielen	schön	tot	eitel	rächen	faul	strafen	schlecht	1	acq_USunple_CSunple2_RW	acq4567_RW	5	65	400	1	300	300	428	46	0	1	1	blank2r.bmp	0	1	+	0	1	blank2r.bmp	492	1	YDDY	492	1	blank2r.bmp	572	2	strafen	866	1	!	1239	1	!	1332	0	0	0	0	0	0	0	0	0	0	0	0	0	0	0	0	0	0	0	0	0	0	0	0	0	0	0	0	0	0
072419	14:27:44	14:41:07	801739	5.0.10.0	5_exp_RW	83	Rpleas_acq	CS_B	GWWG	MQQM	BZZB	YDDY	VKKV	JXXJ	treu	ehrlich	retten	fair	spielen	schön	tot	eitel	rächen	faul	strafen	schlecht	1	acq_USpleas_CSpleas1_RW	acq4567_RW	5	66	400	1	300	300	407	50	0	1	1	blank2r.bmp	0	1	+	0	1	blank2r.bmp	492	1	GWWG	492	1	blank2r.bmp	572	1	treu	866	1	!	1239	1	!	1306	0	0	0	0	0	0	0	0	0	0	0	0	0	0	0	0	0	0	0	0	0	0	0	0	0	0	0	0	0	0
072419	14:27:44	14:41:10	803925	5.0.10.0	5_exp_RW	83	Rpleas_acq	CS_B	GWWG	MQQM	BZZB	YDDY	VKKV	JXXJ	treu	ehrlich	retten	fair	spielen	schön	tot	eitel	rächen	faul	strafen	schlecht	1	acq_USpleas_CSpleas2_RW	acq4567_RW	5	67	400	1	300	300	391	50	0	1	1	blank2r.bmp	0	1	+	0	1	blank2r.bmp	492	1	MQQM	492	1	blank2r.bmp	572	2	spielen	866	1	!	1239	1	!	1292	0	0	0	0	0	0	0	0	0	0	0	0	0	0	0	0	0	0	0	0	0	0	0	0	0	0	0	0	0	0
072419	14:27:44	14:41:12	806178	5.0.10.0	5_exp_RW	83	Rpleas_acq	CS_B	GWWG	MQQM	BZZB	YDDY	VKKV	JXXJ	treu	ehrlich	retten	fair	spielen	schön	tot	eitel	rächen	faul	strafen	schlecht	1	acq_USunple_CSunple1_RW	acq4567_RW	5	68	400	0	300	300	480	50	0	0	1	blank2r.bmp	0	1	+	0	1	blank2r.bmp	492	1	BZZB	492	1	blank2r.bmp	572	3	rächen	866	1	!	1239	1	!	-1	0	0	0	0	0	0	0	0	0	0	0	0	0	0	0	0	0	0	0	0	0	0	0	0	0	0	0	0	0	0
072419	14:27:44	14:41:14	808390	5.0.10.0	5_exp_RW	83	Rpleas_acq	CS_B	GWWG	MQQM	BZZB	YDDY	VKKV	JXXJ	treu	ehrlich	retten	fair	spielen	schön	tot	eitel	rächen	faul	strafen	schlecht	1	acq_USpleas_CSpleas1_RW	acq4567_RW	5	69	400	1	300	300	403	46	0	0	1	blank2r.bmp	0	1	+	0	1	blank2r.bmp	492	1	GWWG	492	1	blank2r.bmp	572	3	retten	866	1	!	1239	1	!	1306	0	0	0	0	0	0	0	0	0	0	0	0	0	0	0	0	0	0	0	0	0	0	0	0	0	0	0	0	0	0
072419	14:27:44	14:41:16	810642	5.0.10.0	5_exp_RW	83	Rpleas_acq	CS_B	GWWG	MQQM	BZZB	YDDY	VKKV	JXXJ	treu	ehrlich	retten	fair	spielen	schön	tot	eitel	rächen	faul	strafen	schlecht	1	acq_USunple_CSunple1_RW	acq4567_RW	5	70	400	0	300	300	487	46	0	1	1	blank2r.bmp	0	1	+	0	1	blank2r.bmp	492	1	BZZB	492	1	blank2r.bmp	572	1	tot	866	1	!	1239	1	!	-1	0	0	0	0	0	0	0	0	0	0	0	0	0	0	0	0	0	0	0	0	0	0	0	0	0	0	0	0	0	0
072419	14:27:44	14:41:19	812921	5.0.10.0	5_exp_RW	83	Rpleas_acq	CS_B	GWWG	MQQM	BZZB	YDDY	VKKV	JXXJ	treu	ehrlich	retten	fair	spielen	schön	tot	eitel	rächen	faul	strafen	schlecht	1	acq_USpleas_CSpleas1_RW	acq4567_RW	5	71	400	0	300	300	479	50	0	1	1	blank2r.bmp	0	1	+	0	1	blank2r.bmp	492	1	GWWG	492	1	blank2r.bmp	572	3	retten	866	1	!	1239	1	!	-1	0	0	0	0	0	0	0	0	0	0	0	0	0	0	0	0	0	0	0	0	0	0	0	0	0	0	0	0	0	0
072419	14:27:44	14:41:21	815081	5.0.10.0	5_exp_RW	83	Rpleas_acq	CS_B	GWWG	MQQM	BZZB	YDDY	VKKV	JXXJ	treu	ehrlich	retten	fair	spielen	schön	tot	eitel	rächen	faul	strafen	schlecht	1	acq_USunple_CSunple1_RW	acq4567_RW	5	72	400	1	300	300	346	50	0	0	1	blank2r.bmp	0	1	+	0	1	blank2r.bmp	492	1	BZZB	492	1	blank2r.bmp	572	3	rächen	866	1	!	1239	1	!	1252	0	0	0	0	0	0	0	0	0	0	0	0	0	0	0	0	0	0	0	0	0	0	0	0	0	0	0	0	0	0
072419	14:27:44	14:41:23	817333	5.0.10.0	5_exp_RW	83	Rpleas_acq	CS_B	GWWG	MQQM	BZZB	YDDY	VKKV	JXXJ	treu	ehrlich	retten	fair	spielen	schön	tot	eitel	rächen	faul	strafen	schlecht	1	acq_USpleas_CSpleas2_RW	acq4567_RW	5	73	400	0	300	300	490	46	0	0	1	blank2r.bmp	0	1	+	0	1	blank2r.bmp	492	1	MQQM	492	1	blank2r.bmp	572	1	fair	866	1	!	1239	1	!	-1	0	0	0	0	0	0	0	0	0	0	0	0	0	0	0	0	0	0	0	0	0	0	0	0	0	0	0	0	0	0
072419	14:27:44	14:41:25	819532	5.0.10.0	5_exp_RW	83	Rpleas_acq	CS_B	GWWG	MQQM	BZZB	YDDY	VKKV	JXXJ	treu	ehrlich	retten	fair	spielen	schön	tot	eitel	rächen	faul	strafen	schlecht	1	acq_USpleas_CSpleas2_RW	acq4567_RW	5	74	400	1	300	300	377	50	0	1	1	blank2r.bmp	0	1	+	0	1	blank2r.bmp	492	1	MQQM	492	1	blank2r.bmp	572	2	spielen	866	1	!	1239	1	!	1279	0	0	0	0	0	0	0	0	0	0	0	0	0	0	0	0	0	0	0	0	0	0	0	0	0	0	0	0	0	0
072419	14:27:44	14:41:27	821638	5.0.10.0	5_exp_RW	83	Rpleas_acq	CS_B	GWWG	MQQM	BZZB	YDDY	VKKV	JXXJ	treu	ehrlich	retten	fair	spielen	schön	tot	eitel	rächen	faul	strafen	schlecht	1	acq_USunple_CSunple2_RW	acq4567_RW	5	75	400	0	300	300	321	46	0	1	1	blank2r.bmp	0	1	+	0	1	blank2r.bmp	492	1	YDDY	492	1	blank2r.bmp	572	3	schlecht	866	1	!	-1	1	!	-1	0	0	0	0	0	0	0	0	0	0	0	0	0	0	0	0	0	0	0	0	0	0	0	0	0	0	0	0	0	0
072419	14:27:44	14:41:30	823917	5.0.10.0	5_exp_RW	83	Rpleas_acq	CS_B	GWWG	MQQM	BZZB	YDDY	VKKV	JXXJ	treu	ehrlich	retten	fair	spielen	schön	tot	eitel	rächen	faul	strafen	schlecht	1	acq_USunple_CSunple2_RW	acq4567_RW	5	76	400	0	300	300	479	46	0	1	1	blank2r.bmp	0	1	+	0	1	blank2r.bmp	492	1	YDDY	492	1	blank2r.bmp	572	3	schlecht	866	1	!	1239	1	!	-1	0	0	0	0	0	0	0	0	0	0	0	0	0	0	0	0	0	0	0	0	0	0	0	0	0	0	0	0	0	0
072419	14:27:44	14:41:34	828768	5.0.10.0	5_exp_RW	83	Rpleas_acq	CS_B	GWWG	MQQM	BZZB	YDDY	VKKV	JXXJ	treu	ehrlich	retten	fair	spielen	schön	tot	eitel	rächen	faul	strafen	schlecht	1	acq_USpleas_CSpleas2_RW	acq4567_RW	5	77	400	0	300	300	3052	50	0	1	1	blank2r.bmp	0	1	+	0	1	blank2r.bmp	492	1	MQQM	492	1	blank2r.bmp	572	1	fair	866	1	!	1239	1	!	-1	0	0	0	0	0	0	0	0	0	0	0	0	0	0	0	0	0	0	0	0	0	0	0	0	0	0	0	0	0	0
072419	14:27:44	14:41:37	830941	5.0.10.0	5_exp_RW	83	Rpleas_acq	CS_B	GWWG	MQQM	BZZB	YDDY	VKKV	JXXJ	treu	ehrlich	retten	fair	spielen	schön	tot	eitel	rächen	faul	strafen	schlecht	1	acq_USpleas_CSpleas1_RW	acq4567_RW	5	78	400	1	300	300	346	50	0	1	1	blank2r.bmp	0	1	+	0	1	blank2r.bmp	492	1	GWWG	492	1	blank2r.bmp	572	2	ehrlich	866	1	!	1239	1	!	1252	0	0	0	0	0	0	0	0	0	0	0	0	0	0	0	0	0	0	0	0	0	0	0	0	0	0	0	0	0	0
072419	14:27:44	14:41:39	833127	5.0.10.0	5_exp_RW	83	Rpleas_acq	CS_B	GWWG	MQQM	BZZB	YDDY	VKKV	JXXJ	treu	ehrlich	retten	fair	spielen	schön	tot	eitel	rächen	faul	strafen	schlecht	1	acq_USunple_CSunple1_RW	acq4567_RW	5	79	400	1	300	300	387	50	0	0	1	blank2r.bmp	0	1	+	0	1	blank2r.bmp	492	1	BZZB	492	1	blank2r.bmp	572	2	eitel	866	1	!	1239	1	!	1292	0	0	0	0	0	0	0	0	0	0	0	0	0	0	0	0	0	0	0	0	0	0	0	0	0	0	0	0	0	0
072419	14:27:44	14:41:41	835326	5.0.10.0	5_exp_RW	83	Rpleas_acq	CS_B	GWWG	MQQM	BZZB	YDDY	VKKV	JXXJ	treu	ehrlich	retten	fair	spielen	schön	tot	eitel	rächen	faul	strafen	schlecht	1	acq_USunple_CSunple2_RW	acq4567_RW	5	80	400	1	300	300	409	46	0	1	1	blank2r.bmp	0	1	+	0	1	blank2r.bmp	492	1	YDDY	492	1	blank2r.bmp	572	1	faul	866	1	!	1239	1	!	1306	0	0	0	0	0	0	0	0	0	0	0	0	0	0	0	0	0	0	0	0	0	0	0	0	0	0	0	0	0	0
072419	14:27:44	14:42:03	856983	5.0.10.0	5_exp_RW	83	Rpleas_acq	CS_B	GWWG	MQQM	BZZB	YDDY	VKKV	JXXJ	treu	ehrlich	retten	fair	spielen	schön	tot	eitel	rächen	faul	strafen	schlecht	1	acq_USpleas_CSpleas1_RW	acq4567_RW	6	1	400	0	300	300	319	50	0	1	1	blank2r.bmp	0	1	+	0	1	blank2r.bmp	492	1	GWWG	492	1	blank2r.bmp	572	1	treu	866	1	!	-1	1	!	-1	0	0	0	0	0	0	0	0	0	0	0	0	0	0	0	0	0	0	0	0	0	0	0	0	0	0	0	0	0	0
072419	14:27:44	14:42:05	859183	5.0.10.0	5_exp_RW	83	Rpleas_acq	CS_B	GWWG	MQQM	BZZB	YDDY	VKKV	JXXJ	treu	ehrlich	retten	fair	spielen	schön	tot	eitel	rächen	faul	strafen	schlecht	1	acq_USunple_CSunple1_RW	acq4567_RW	6	2	400	1	300	300	397	50	0	0	1	blank2r.bmp	0	1	+	0	1	blank2r.bmp	492	1	BZZB	492	1	blank2r.bmp	572	1	tot	866	1	!	1239	1	!	1292	0	0	0	0	0	0	0	0	0	0	0	0	0	0	0	0	0	0	0	0	0	0	0	0	0	0	0	0	0	0
072419	14:27:44	14:42:07	861435	5.0.10.0	5_exp_RW	83	Rpleas_acq	CS_B	GWWG	MQQM	BZZB	YDDY	VKKV	JXXJ	treu	ehrlich	retten	fair	spielen	schön	tot	eitel	rächen	faul	strafen	schlecht	1	acq_USunple_CSunple2_RW	acq4567_RW	6	3	400	0	300	300	479	46	0	1	1	blank2r.bmp	0	1	+	0	1	blank2r.bmp	492	1	YDDY	492	1	blank2r.bmp	572	2	strafen	866	1	!	1239	1	!	-1	0	0	0	0	0	0	0	0	0	0	0	0	0	0	0	0	0	0	0	0	0	0	0	0	0	0	0	0	0	0
072419	14:27:44	14:42:09	863527	5.0.10.0	5_exp_RW	83	Rpleas_acq	CS_B	GWWG	MQQM	BZZB	YDDY	VKKV	JXXJ	treu	ehrlich	retten	fair	spielen	schön	tot	eitel	rächen	faul	strafen	schlecht	1	acq_USunple_CSunple2_RW	acq4567_RW	6	4	400	0	300	300	295	46	0	1	1	blank2r.bmp	0	1	+	0	1	blank2r.bmp	492	1	YDDY	492	1	blank2r.bmp	572	2	strafen	866	1	!	-1	1	!	-1	0	0	0	0	0	0	0	0	0	0	0	0	0	0	0	0	0	0	0	0	0	0	0	0	0	0	0	0	0	0
072419	14:27:44	14:42:11	865727	5.0.10.0	5_exp_RW	83	Rpleas_acq	CS_B	GWWG	MQQM	BZZB	YDDY	VKKV	JXXJ	treu	ehrlich	retten	fair	spielen	schön	tot	eitel	rächen	faul	strafen	schlecht	1	acq_USpleas_CSpleas2_RW	acq4567_RW	6	5	400	1	300	300	392	50	0	1	1	blank2r.bmp	0	1	+	0	1	blank2r.bmp	492	1	MQQM	492	1	blank2r.bmp	572	3	schön	866	1	!	1239	1	!	1292	0	0	0	0	0	0	0	0	0	0	0	0	0	0	0	0	0	0	0	0	0	0	0	0	0	0	0	0	0	0
072419	14:27:44	14:42:14	867872	5.0.10.0	5_exp_RW	83	Rpleas_acq	CS_B	GWWG	MQQM	BZZB	YDDY	VKKV	JXXJ	treu	ehrlich	retten	fair	spielen	schön	tot	eitel	rächen	faul	strafen	schlecht	1	acq_USunple_CSunple1_RW	acq4567_RW	6	6	400	1	300	300	358	46	0	1	1	blank2r.bmp	0	1	+	0	1	blank2r.bmp	492	1	BZZB	492	1	blank2r.bmp	572	1	tot	866	1	!	1239	1	!	1252	0	0	0	0	0	0	0	0	0	0	0	0	0	0	0	0	0	0	0	0	0	0	0	0	0	0	0	0	0	0
072419	14:27:44	14:42:16	870045	5.0.10.0	5_exp_RW	83	Rpleas_acq	CS_B	GWWG	MQQM	BZZB	YDDY	VKKV	JXXJ	treu	ehrlich	retten	fair	spielen	schön	tot	eitel	rächen	faul	strafen	schlecht	1	acq_USunple_CSunple2_RW	acq4567_RW	6	7	400	1	300	300	382	46	0	1	1	blank2r.bmp	0	1	+	0	1	blank2r.bmp	492	1	YDDY	492	1	blank2r.bmp	572	1	faul	866	1	!	1239	1	!	1279	0	0	0	0	0	0	0	0	0	0	0	0	0	0	0	0	0	0	0	0	0	0	0	0	0	0	0	0	0	0
072419	14:27:44	14:42:18	872297	5.0.10.0	5_exp_RW	83	Rpleas_acq	CS_B	GWWG	MQQM	BZZB	YDDY	VKKV	JXXJ	treu	ehrlich	retten	fair	spielen	schön	tot	eitel	rächen	faul	strafen	schlecht	1	acq_USunple_CSunple1_RW	acq4567_RW	6	8	400	1	300	300	452	46	0	1	1	blank2r.bmp	0	1	+	0	1	blank2r.bmp	492	1	BZZB	492	1	blank2r.bmp	572	2	eitel	866	1	!	1239	1	!	1359	0	0	0	0	0	0	0	0	0	0	0	0	0	0	0	0	0	0	0	0	0	0	0	0	0	0	0	0	0	0
072419	14:27:44	14:42:20	874603	5.0.10.0	5_exp_RW	83	Rpleas_acq	CS_B	GWWG	MQQM	BZZB	YDDY	VKKV	JXXJ	treu	ehrlich	retten	fair	spielen	schön	tot	eitel	rächen	faul	strafen	schlecht	1	acq_USunple_CSunple2_RW	acq4567_RW	6	9	400	0	300	300	540	50	0	0	1	blank2r.bmp	0	1	+	0	1	blank2r.bmp	492	1	YDDY	492	1	blank2r.bmp	572	3	schlecht	866	1	!	1239	1	!	-1	0	0	0	0	0	0	0	0	0	0	0	0	0	0	0	0	0	0	0	0	0	0	0	0	0	0	0	0	0	0
072419	14:27:44	14:42:23	876842	5.0.10.0	5_exp_RW	83	Rpleas_acq	CS_B	GWWG	MQQM	BZZB	YDDY	VKKV	JXXJ	treu	ehrlich	retten	fair	spielen	schön	tot	eitel	rächen	faul	strafen	schlecht	1	acq_USpleas_CSpleas2_RW	acq4567_RW	6	10	400	1	300	300	428	50	0	1	1	blank2r.bmp	0	1	+	0	1	blank2r.bmp	492	1	MQQM	492	1	blank2r.bmp	572	2	spielen	866	1	!	1239	1	!	1332	0	0	0	0	0	0	0	0	0	0	0	0	0	0	0	0	0	0	0	0	0	0	0	0	0	0	0	0	0	0
072419	14:27:44	14:42:25	879081	5.0.10.0	5_exp_RW	83	Rpleas_acq	CS_B	GWWG	MQQM	BZZB	YDDY	VKKV	JXXJ	treu	ehrlich	retten	fair	spielen	schön	tot	eitel	rächen	faul	strafen	schlecht	1	acq_USpleas_CSpleas2_RW	acq4567_RW	6	11	400	1	300	300	446	50	0	1	1	blank2r.bmp	0	1	+	0	1	blank2r.bmp	492	1	MQQM	492	1	blank2r.bmp	572	1	fair	866	1	!	1239	1	!	1346	0	0	0	0	0	0	0	0	0	0	0	0	0	0	0	0	0	0	0	0	0	0	0	0	0	0	0	0	0	0
072419	14:27:44	14:42:27	881227	5.0.10.0	5_exp_RW	83	Rpleas_acq	CS_B	GWWG	MQQM	BZZB	YDDY	VKKV	JXXJ	treu	ehrlich	retten	fair	spielen	schön	tot	eitel	rächen	faul	strafen	schlecht	1	acq_USunple_CSunple2_RW	acq4567_RW	6	12	400	1	300	300	346	46	0	1	1	blank2r.bmp	0	1	+	0	1	blank2r.bmp	492	1	YDDY	492	1	blank2r.bmp	572	3	schlecht	866	1	!	1239	1	!	1252	0	0	0	0	0	0	0	0	0	0	0	0	0	0	0	0	0	0	0	0	0	0	0	0	0	0	0	0	0	0
072419	14:27:44	14:42:29	883319	5.0.10.0	5_exp_RW	83	Rpleas_acq	CS_B	GWWG	MQQM	BZZB	YDDY	VKKV	JXXJ	treu	ehrlich	retten	fair	spielen	schön	tot	eitel	rächen	faul	strafen	schlecht	1	acq_USpleas_CSpleas2_RW	acq4567_RW	6	13	400	0	300	300	316	50	0	1	1	blank2r.bmp	0	1	+	0	1	blank2r.bmp	492	1	MQQM	492	1	blank2r.bmp	572	3	schön	866	1	!	-1	1	!	-1	0	0	0	0	0	0	0	0	0	0	0	0	0	0	0	0	0	0	0	0	0	0	0	0	0	0	0	0	0	0
072419	14:27:44	14:42:31	885559	5.0.10.0	5_exp_RW	83	Rpleas_acq	CS_B	GWWG	MQQM	BZZB	YDDY	VKKV	JXXJ	treu	ehrlich	retten	fair	spielen	schön	tot	eitel	rächen	faul	strafen	schlecht	1	acq_USpleas_CSpleas2_RW	acq4567_RW	6	14	400	1	300	300	431	50	0	1	1	blank2r.bmp	0	1	+	0	1	blank2r.bmp	492	1	MQQM	492	1	blank2r.bmp	572	2	spielen	866	1	!	1239	1	!	1332	0	0	0	0	0	0	0	0	0	0	0	0	0	0	0	0	0	0	0	0	0	0	0	0	0	0	0	0	0	0
072419	14:27:44	14:42:33	887771	5.0.10.0	5_exp_RW	83	Rpleas_acq	CS_B	GWWG	MQQM	BZZB	YDDY	VKKV	JXXJ	treu	ehrlich	retten	fair	spielen	schön	tot	eitel	rächen	faul	strafen	schlecht	1	acq_USpleas_CSpleas1_RW	acq4567_RW	6	15	400	1	300	300	424	50	0	1	1	blank2r.bmp	0	1	+	0	1	blank2r.bmp	492	1	GWWG	492	1	blank2r.bmp	572	2	ehrlich	866	1	!	1239	1	!	1319	0	0	0	0	0	0	0	0	0	0	0	0	0	0	0	0	0	0	0	0	0	0	0	0	0	0	0	0	0	0
072419	14:27:44	14:42:36	889930	5.0.10.0	5_exp_RW	83	Rpleas_acq	CS_B	GWWG	MQQM	BZZB	YDDY	VKKV	JXXJ	treu	ehrlich	retten	fair	spielen	schön	tot	eitel	rächen	faul	strafen	schlecht	1	acq_USpleas_CSpleas1_RW	acq4567_RW	6	16	400	1	300	300	371	50	0	1	1	blank2r.bmp	0	1	+	0	1	blank2r.bmp	492	1	GWWG	492	1	blank2r.bmp	572	3	retten	866	1	!	1239	1	!	1266	0	0	0	0	0	0	0	0	0	0	0	0	0	0	0	0	0	0	0	0	0	0	0	0	0	0	0	0	0	0
072419	14:27:44	14:42:38	892156	5.0.10.0	5_exp_RW	83	Rpleas_acq	CS_B	GWWG	MQQM	BZZB	YDDY	VKKV	JXXJ	treu	ehrlich	retten	fair	spielen	schön	tot	eitel	rächen	faul	strafen	schlecht	1	acq_USunple_CSunple1_RW	acq4567_RW	6	17	400	1	300	300	430	46	0	1	1	blank2r.bmp	0	1	+	0	1	blank2r.bmp	492	1	BZZB	492	1	blank2r.bmp	572	3	rächen	866	1	!	1239	1	!	1332	0	0	0	0	0	0	0	0	0	0	0	0	0	0	0	0	0	0	0	0	0	0	0	0	0	0	0	0	0	0
072419	14:27:44	14:42:40	894408	5.0.10.0	5_exp_RW	83	Rpleas_acq	CS_B	GWWG	MQQM	BZZB	YDDY	VKKV	JXXJ	treu	ehrlich	retten	fair	spielen	schön	tot	eitel	rächen	faul	strafen	schlecht	1	acq_USpleas_CSpleas1_RW	acq4567_RW	6	18	400	0	300	300	479	50	0	1	1	blank2r.bmp	0	1	+	0	1	blank2r.bmp	492	1	GWWG	492	1	blank2r.bmp	572	1	treu	866	1	!	1239	1	!	-1	0	0	0	0	0	0	0	0	0	0	0	0	0	0	0	0	0	0	0	0	0	0	0	0	0	0	0	0	0	0
072419	14:27:44	14:42:42	896621	5.0.10.0	5_exp_RW	83	Rpleas_acq	CS_B	GWWG	MQQM	BZZB	YDDY	VKKV	JXXJ	treu	ehrlich	retten	fair	spielen	schön	tot	eitel	rächen	faul	strafen	schlecht	1	acq_USpleas_CSpleas1_RW	acq4567_RW	6	19	400	1	300	300	407	50	0	1	1	blank2r.bmp	0	1	+	0	1	blank2r.bmp	492	1	GWWG	492	1	blank2r.bmp	572	3	retten	866	1	!	1239	1	!	1306	0	0	0	0	0	0	0	0	0	0	0	0	0	0	0	0	0	0	0	0	0	0	0	0	0	0	0	0	0	0
072419	14:27:44	14:42:44	898793	5.0.10.0	5_exp_RW	83	Rpleas_acq	CS_B	GWWG	MQQM	BZZB	YDDY	VKKV	JXXJ	treu	ehrlich	retten	fair	spielen	schön	tot	eitel	rächen	faul	strafen	schlecht	1	acq_USunple_CSunple1_RW	acq4567_RW	6	20	400	1	300	300	373	46	0	1	1	blank2r.bmp	0	1	+	0	1	blank2r.bmp	492	1	BZZB	492	1	blank2r.bmp	572	1	tot	866	1	!	1239	1	!	1279	0	0	0	0	0	0	0	0	0	0	0	0	0	0	0	0	0	0	0	0	0	0	0	0	0	0	0	0	0	0
