date	time	script.currenttime	script.elapsedtime	build	script.currentexpt	subject	expressions.LRpleas_acq	expressions.conditionCS_A	expressions.CSpleas_1	expressions.CSpleas_2	expressions.CSunple_1	expressions.CSunple_2	expressions.distractor_1	expressions.distractor_2	expressions.US_pleas1	expressions.US_pleas2	expressions.US_pleas3	expressions.US_pleas4	expressions.US_pleas5	expressions.US_pleas6	expressions.US_unple1	expressions.US_unple2	expressions.US_unple3	expressions.US_unple4	expressions.US_unple5	expressions.US_unple6	counter.positions_noRW	trialcode	blockcode	blocknum	trialnum	windowcenter	inwindow	pretrialpause	posttrialpause	latency	response	expressions.correctedscore	correct	stimulusnumber1	stimulusitem1	stimulusonset1	stimulusnumber2	stimulusitem2	stimulusonset2	stimulusnumber3	stimulusitem3	stimulusonset3	stimulusnumber4	stimulusitem4	stimulusonset4	stimulusnumber5	stimulusitem5	stimulusonset5	stimulusnumber6	stimulusitem6	stimulusonset6	stimulusnumber7	stimulusitem7	stimulusonset7	stimulusnumber8	stimulusitem8	stimulusonset8	stimulusnumber9	stimulusitem9	stimulusonset9	stimulusnumber10	stimulusitem10	stimulusonset10	stimulusnumber11	stimulusitem11	stimulusonset11	stimulusnumber12	stimulusitem12	stimulusonset12	stimulusnumber13	stimulusitem13	stimulusonset13	stimulusnumber14	stimulusitem14	stimulusonset14	stimulusnumber15	stimulusitem15	stimulusonset15	stimulusnumber16	stimulusitem16	stimulusonset16	stimulusnumber17	stimulusitem17	stimulusonset17	stimulusnumber18	stimulusitem18	stimulusonset18
071719	11:56:32	11:57:38	64467	5.0.10.0	5_exp_RW	63	Rpleas_acq	CS_A	JQQJ	LWWL	DXXD	YFFY	ZHHZ	CPPC	vertrauen	küssen	gütig	sonnig	träumen	genießen	versagen	krank	gierig	sterben	töten	gemein	1	acq_USunple_CSunple2_RW	acq1_RW	1	1	0	0	300	300	3716	46	0	1	1	blank2r.bmp	0	1	+	0	1	blank2r.bmp	492	1	YFFY	492	1	blank2r.bmp	572	3	gemein	866	0	0	0	0	0	0	0	0	0	0	0	0	0	0	0	0	0	0	0	0	0	0	0	0	0	0	0	0	0	0	0	0	0	0	0	0
071719	11:56:32	11:57:40	66519	5.0.10.0	5_exp_RW	63	Rpleas_acq	CS_A	JQQJ	LWWL	DXXD	YFFY	ZHHZ	CPPC	vertrauen	küssen	gütig	sonnig	träumen	genießen	versagen	krank	gierig	sterben	töten	gemein	1	acq_USunple_CSunple1_RW	acq1_RW	1	2	0	0	300	300	567	46	0	1	1	blank2r.bmp	0	1	+	0	1	blank2r.bmp	492	1	DXXD	492	1	blank2r.bmp	572	3	gierig	866	0	0	0	0	0	0	0	0	0	0	0	0	0	0	0	0	0	0	0	0	0	0	0	0	0	0	0	0	0	0	0	0	0	0	0	0
071719	11:56:32	11:57:42	68412	5.0.10.0	5_exp_RW	63	Rpleas_acq	CS_A	JQQJ	LWWL	DXXD	YFFY	ZHHZ	CPPC	vertrauen	küssen	gütig	sonnig	träumen	genießen	versagen	krank	gierig	sterben	töten	gemein	1	acq_USpleas_CSpleas2_RW	acq1_RW	1	3	0	0	300	300	421	50	0	1	1	blank2r.bmp	0	1	+	0	1	blank2r.bmp	492	1	LWWL	492	1	blank2r.bmp	572	2	träumen	866	0	0	0	0	0	0	0	0	0	0	0	0	0	0	0	0	0	0	0	0	0	0	0	0	0	0	0	0	0	0	0	0	0	0	0	0
071719	11:56:32	11:57:44	70437	5.0.10.0	5_exp_RW	63	Rpleas_acq	CS_A	JQQJ	LWWL	DXXD	YFFY	ZHHZ	CPPC	vertrauen	küssen	gütig	sonnig	träumen	genießen	versagen	krank	gierig	sterben	töten	gemein	1	acq_USpleas_CSpleas2_RW	acq1_RW	1	4	0	0	300	300	539	50	0	1	1	blank2r.bmp	0	1	+	0	1	blank2r.bmp	492	1	LWWL	492	1	blank2r.bmp	572	3	genießen	866	0	0	0	0	0	0	0	0	0	0	0	0	0	0	0	0	0	0	0	0	0	0	0	0	0	0	0	0	0	0	0	0	0	0	0	0
071719	11:56:32	11:57:46	72317	5.0.10.0	5_exp_RW	63	Rpleas_acq	CS_A	JQQJ	LWWL	DXXD	YFFY	ZHHZ	CPPC	vertrauen	küssen	gütig	sonnig	träumen	genießen	versagen	krank	gierig	sterben	töten	gemein	1	acq_USpleas_CSpleas1_RW	acq1_RW	1	5	0	0	300	300	408	50	0	1	1	blank2r.bmp	0	1	+	0	1	blank2r.bmp	492	1	JQQJ	492	1	blank2r.bmp	572	1	vertrauen	866	0	0	0	0	0	0	0	0	0	0	0	0	0	0	0	0	0	0	0	0	0	0	0	0	0	0	0	0	0	0	0	0	0	0	0	0
071719	11:56:32	11:57:48	74169	5.0.10.0	5_exp_RW	63	Rpleas_acq	CS_A	JQQJ	LWWL	DXXD	YFFY	ZHHZ	CPPC	vertrauen	küssen	gütig	sonnig	träumen	genießen	versagen	krank	gierig	sterben	töten	gemein	1	acq_USunple_CSunple1_RW	acq1_RW	1	6	0	0	300	300	360	46	0	1	1	blank2r.bmp	0	1	+	0	1	blank2r.bmp	492	1	DXXD	492	1	blank2r.bmp	572	2	krank	866	0	0	0	0	0	0	0	0	0	0	0	0	0	0	0	0	0	0	0	0	0	0	0	0	0	0	0	0	0	0	0	0	0	0	0	0
071719	11:56:32	11:57:50	76022	5.0.10.0	5_exp_RW	63	Rpleas_acq	CS_A	JQQJ	LWWL	DXXD	YFFY	ZHHZ	CPPC	vertrauen	küssen	gütig	sonnig	träumen	genießen	versagen	krank	gierig	sterben	töten	gemein	1	acq_USunple_CSunple2_RW	acq1_RW	1	7	0	0	300	300	383	46	0	1	1	blank2r.bmp	0	1	+	0	1	blank2r.bmp	492	1	YFFY	492	1	blank2r.bmp	572	1	sterben	866	0	0	0	0	0	0	0	0	0	0	0	0	0	0	0	0	0	0	0	0	0	0	0	0	0	0	0	0	0	0	0	0	0	0	0	0
071719	11:56:32	11:57:52	78128	5.0.10.0	5_exp_RW	63	Rpleas_acq	CS_A	JQQJ	LWWL	DXXD	YFFY	ZHHZ	CPPC	vertrauen	küssen	gütig	sonnig	träumen	genießen	versagen	krank	gierig	sterben	töten	gemein	1	acq_USpleas_CSpleas2_RW	acq1_RW	1	8	0	0	300	300	403	46	0	0	1	blank2r.bmp	0	1	+	0	1	blank2r.bmp	492	1	LWWL	492	1	blank2r.bmp	572	1	sonnig	866	1	FEHLER	1306	0	0	0	0	0	0	0	0	0	0	0	0	0	0	0	0	0	0	0	0	0	0	0	0	0	0	0	0	0	0	0	0	0
071719	11:56:32	11:57:53	79874	5.0.10.0	5_exp_RW	63	Rpleas_acq	CS_A	JQQJ	LWWL	DXXD	YFFY	ZHHZ	CPPC	vertrauen	küssen	gütig	sonnig	träumen	genießen	versagen	krank	gierig	sterben	töten	gemein	1	acq_USunple_CSunple1_RW	acq1_RW	1	9	0	0	300	300	472	46	0	1	1	blank2r.bmp	0	1	+	0	1	blank2r.bmp	492	1	DXXD	492	1	blank2r.bmp	572	1	versagen	866	0	0	0	0	0	0	0	0	0	0	0	0	0	0	0	0	0	0	0	0	0	0	0	0	0	0	0	0	0	0	0	0	0	0	0	0
071719	11:56:32	11:57:55	81793	5.0.10.0	5_exp_RW	63	Rpleas_acq	CS_A	JQQJ	LWWL	DXXD	YFFY	ZHHZ	CPPC	vertrauen	küssen	gütig	sonnig	träumen	genießen	versagen	krank	gierig	sterben	töten	gemein	1	acq_USunple_CSunple2_RW	acq1_RW	1	10	0	0	300	300	441	46	0	1	1	blank2r.bmp	0	1	+	0	1	blank2r.bmp	492	1	YFFY	492	1	blank2r.bmp	572	2	töten	866	0	0	0	0	0	0	0	0	0	0	0	0	0	0	0	0	0	0	0	0	0	0	0	0	0	0	0	0	0	0	0	0	0	0	0	0
071719	11:56:32	11:57:57	83672	5.0.10.0	5_exp_RW	63	Rpleas_acq	CS_A	JQQJ	LWWL	DXXD	YFFY	ZHHZ	CPPC	vertrauen	küssen	gütig	sonnig	träumen	genießen	versagen	krank	gierig	sterben	töten	gemein	1	acq_USunple_CSunple1_RW	acq1_RW	1	11	0	0	300	300	408	46	0	1	1	blank2r.bmp	0	1	+	0	1	blank2r.bmp	492	1	DXXD	492	1	blank2r.bmp	572	2	krank	866	0	0	0	0	0	0	0	0	0	0	0	0	0	0	0	0	0	0	0	0	0	0	0	0	0	0	0	0	0	0	0	0	0	0	0	0
071719	11:56:32	11:57:59	85658	5.0.10.0	5_exp_RW	63	Rpleas_acq	CS_A	JQQJ	LWWL	DXXD	YFFY	ZHHZ	CPPC	vertrauen	küssen	gütig	sonnig	träumen	genießen	versagen	krank	gierig	sterben	töten	gemein	1	acq_USunple_CSunple2_RW	acq1_RW	1	12	0	0	300	300	287	50	0	0	1	blank2r.bmp	0	1	+	0	1	blank2r.bmp	492	1	YFFY	492	1	blank2r.bmp	572	2	töten	866	1	FEHLER	1186	0	0	0	0	0	0	0	0	0	0	0	0	0	0	0	0	0	0	0	0	0	0	0	0	0	0	0	0	0	0	0	0	0
071719	11:56:32	11:58:01	87257	5.0.10.0	5_exp_RW	63	Rpleas_acq	CS_A	JQQJ	LWWL	DXXD	YFFY	ZHHZ	CPPC	vertrauen	küssen	gütig	sonnig	träumen	genießen	versagen	krank	gierig	sterben	töten	gemein	1	acq_USpleas_CSpleas2_RW	acq1_RW	1	13	0	0	300	300	325	50	0	1	1	blank2r.bmp	0	1	+	0	1	blank2r.bmp	492	1	LWWL	492	1	blank2r.bmp	572	3	genießen	866	0	0	0	0	0	0	0	0	0	0	0	0	0	0	0	0	0	0	0	0	0	0	0	0	0	0	0	0	0	0	0	0	0	0	0	0
071719	11:56:32	11:58:03	89123	5.0.10.0	5_exp_RW	63	Rpleas_acq	CS_A	JQQJ	LWWL	DXXD	YFFY	ZHHZ	CPPC	vertrauen	küssen	gütig	sonnig	träumen	genießen	versagen	krank	gierig	sterben	töten	gemein	1	acq_USpleas_CSpleas1_RW	acq1_RW	1	14	0	0	300	300	378	50	0	1	1	blank2r.bmp	0	1	+	0	1	blank2r.bmp	492	1	JQQJ	492	1	blank2r.bmp	572	3	gütig	866	0	0	0	0	0	0	0	0	0	0	0	0	0	0	0	0	0	0	0	0	0	0	0	0	0	0	0	0	0	0	0	0	0	0	0	0
071719	11:56:32	11:58:05	90989	5.0.10.0	5_exp_RW	63	Rpleas_acq	CS_A	JQQJ	LWWL	DXXD	YFFY	ZHHZ	CPPC	vertrauen	küssen	gütig	sonnig	träumen	genießen	versagen	krank	gierig	sterben	töten	gemein	1	acq_USpleas_CSpleas1_RW	acq1_RW	1	15	0	0	300	300	398	50	0	1	1	blank2r.bmp	0	1	+	0	1	blank2r.bmp	492	1	JQQJ	492	1	blank2r.bmp	572	2	küssen	866	0	0	0	0	0	0	0	0	0	0	0	0	0	0	0	0	0	0	0	0	0	0	0	0	0	0	0	0	0	0	0	0	0	0	0	0
071719	11:56:32	11:58:06	92842	5.0.10.0	5_exp_RW	63	Rpleas_acq	CS_A	JQQJ	LWWL	DXXD	YFFY	ZHHZ	CPPC	vertrauen	küssen	gütig	sonnig	träumen	genießen	versagen	krank	gierig	sterben	töten	gemein	1	acq_USpleas_CSpleas1_RW	acq1_RW	1	16	0	0	300	300	363	50	0	1	1	blank2r.bmp	0	1	+	0	1	blank2r.bmp	492	1	JQQJ	492	1	blank2r.bmp	572	3	gütig	866	0	0	0	0	0	0	0	0	0	0	0	0	0	0	0	0	0	0	0	0	0	0	0	0	0	0	0	0	0	0	0	0	0	0	0	0
071719	11:56:32	11:58:28	114140	5.0.10.0	5_exp_RW	63	Rpleas_acq	CS_A	JQQJ	LWWL	DXXD	YFFY	ZHHZ	CPPC	vertrauen	küssen	gütig	sonnig	träumen	genießen	versagen	krank	gierig	sterben	töten	gemein	1	acq_USpleas_CSpleas1_RW	acq2_RW	2	1	480	0	300	300	399	50	0	1	1	blank2r.bmp	0	1	+	0	1	blank2r.bmp	492	1	JQQJ	492	1	blank2r.bmp	572	1	vertrauen	866	1	!	-1	1	!	-1	0	0	0	0	0	0	0	0	0	0	0	0	0	0	0	0	0	0	0	0	0	0	0	0	0	0	0	0	0	0
071719	11:56:32	11:58:30	116499	5.0.10.0	5_exp_RW	63	Rpleas_acq	CS_A	JQQJ	LWWL	DXXD	YFFY	ZHHZ	CPPC	vertrauen	küssen	gütig	sonnig	träumen	genießen	versagen	krank	gierig	sterben	töten	gemein	1	acq_USunple_CSunple1_RW	acq2_RW	2	2	480	0	300	300	584	46	0	1	1	blank2r.bmp	0	1	+	0	1	blank2r.bmp	492	1	DXXD	492	1	blank2r.bmp	572	1	versagen	866	1	!	1319	1	!	-1	0	0	0	0	0	0	0	0	0	0	0	0	0	0	0	0	0	0	0	0	0	0	0	0	0	0	0	0	0	0
071719	11:56:32	11:58:32	118618	5.0.10.0	5_exp_RW	63	Rpleas_acq	CS_A	JQQJ	LWWL	DXXD	YFFY	ZHHZ	CPPC	vertrauen	küssen	gütig	sonnig	träumen	genießen	versagen	krank	gierig	sterben	töten	gemein	1	acq_USpleas_CSpleas1_RW	acq2_RW	2	3	480	0	300	300	329	50	0	1	1	blank2r.bmp	0	1	+	0	1	blank2r.bmp	492	1	JQQJ	492	1	blank2r.bmp	572	2	küssen	866	1	!	-1	1	!	-1	0	0	0	0	0	0	0	0	0	0	0	0	0	0	0	0	0	0	0	0	0	0	0	0	0	0	0	0	0	0
071719	11:56:32	11:58:34	120910	5.0.10.0	5_exp_RW	63	Rpleas_acq	CS_A	JQQJ	LWWL	DXXD	YFFY	ZHHZ	CPPC	vertrauen	küssen	gütig	sonnig	träumen	genießen	versagen	krank	gierig	sterben	töten	gemein	1	acq_USunple_CSunple1_RW	acq2_RW	2	4	480	1	300	300	491	46	0	1	1	blank2r.bmp	0	1	+	0	1	blank2r.bmp	492	1	DXXD	492	1	blank2r.bmp	572	3	gierig	866	1	!	1319	1	!	1386	0	0	0	0	0	0	0	0	0	0	0	0	0	0	0	0	0	0	0	0	0	0	0	0	0	0	0	0	0	0
071719	11:56:32	11:58:37	123269	5.0.10.0	5_exp_RW	63	Rpleas_acq	CS_A	JQQJ	LWWL	DXXD	YFFY	ZHHZ	CPPC	vertrauen	küssen	gütig	sonnig	träumen	genießen	versagen	krank	gierig	sterben	töten	gemein	1	acq_USpleas_CSpleas2_RW	acq2_RW	2	5	480	0	300	300	583	50	0	1	1	blank2r.bmp	0	1	+	0	1	blank2r.bmp	492	1	LWWL	492	1	blank2r.bmp	572	1	sonnig	866	1	!	1319	1	!	-1	0	0	0	0	0	0	0	0	0	0	0	0	0	0	0	0	0	0	0	0	0	0	0	0	0	0	0	0	0	0
071719	11:56:32	11:58:39	125695	5.0.10.0	5_exp_RW	63	Rpleas_acq	CS_A	JQQJ	LWWL	DXXD	YFFY	ZHHZ	CPPC	vertrauen	küssen	gütig	sonnig	träumen	genießen	versagen	krank	gierig	sterben	töten	gemein	1	acq_USpleas_CSpleas1_RW	acq2_RW	2	6	480	0	300	300	407	46	0	0	1	blank2r.bmp	0	1	+	0	1	blank2r.bmp	492	1	JQQJ	492	1	blank2r.bmp	572	3	gütig	866	1	FEHLER	1612	1	!	-1	1	!	-1	0	0	0	0	0	0	0	0	0	0	0	0	0	0	0	0	0	0	0	0	0	0	0	0	0	0	0
071719	11:56:32	11:58:41	127841	5.0.10.0	5_exp_RW	63	Rpleas_acq	CS_A	JQQJ	LWWL	DXXD	YFFY	ZHHZ	CPPC	vertrauen	küssen	gütig	sonnig	träumen	genießen	versagen	krank	gierig	sterben	töten	gemein	1	acq_USunple_CSunple2_RW	acq2_RW	2	7	480	0	300	300	573	46	0	1	1	blank2r.bmp	0	1	+	0	1	blank2r.bmp	492	1	YFFY	492	1	blank2r.bmp	572	3	gemein	866	1	!	1319	1	!	-1	0	0	0	0	0	0	0	0	0	0	0	0	0	0	0	0	0	0	0	0	0	0	0	0	0	0	0	0	0	0
071719	11:56:32	11:58:44	130093	5.0.10.0	5_exp_RW	63	Rpleas_acq	CS_A	JQQJ	LWWL	DXXD	YFFY	ZHHZ	CPPC	vertrauen	küssen	gütig	sonnig	träumen	genießen	versagen	krank	gierig	sterben	töten	gemein	1	acq_USunple_CSunple1_RW	acq2_RW	2	8	480	1	300	300	426	46	0	1	1	blank2r.bmp	0	1	+	0	1	blank2r.bmp	492	1	DXXD	492	1	blank2r.bmp	572	3	gierig	866	1	!	1319	1	!	1332	0	0	0	0	0	0	0	0	0	0	0	0	0	0	0	0	0	0	0	0	0	0	0	0	0	0	0	0	0	0
071719	11:56:32	11:58:46	132252	5.0.10.0	5_exp_RW	63	Rpleas_acq	CS_A	JQQJ	LWWL	DXXD	YFFY	ZHHZ	CPPC	vertrauen	küssen	gütig	sonnig	träumen	genießen	versagen	krank	gierig	sterben	töten	gemein	1	acq_USpleas_CSpleas1_RW	acq2_RW	2	9	480	0	300	300	389	50	0	1	1	blank2r.bmp	0	1	+	0	1	blank2r.bmp	492	1	JQQJ	492	1	blank2r.bmp	572	1	vertrauen	866	1	!	-1	1	!	-1	0	0	0	0	0	0	0	0	0	0	0	0	0	0	0	0	0	0	0	0	0	0	0	0	0	0	0	0	0	0
071719	11:56:32	11:58:48	134505	5.0.10.0	5_exp_RW	63	Rpleas_acq	CS_A	JQQJ	LWWL	DXXD	YFFY	ZHHZ	CPPC	vertrauen	küssen	gütig	sonnig	träumen	genießen	versagen	krank	gierig	sterben	töten	gemein	1	acq_USpleas_CSpleas2_RW	acq2_RW	2	10	480	1	300	300	451	50	0	1	1	blank2r.bmp	0	1	+	0	1	blank2r.bmp	492	1	LWWL	492	1	blank2r.bmp	572	2	träumen	866	1	!	1319	1	!	1346	0	0	0	0	0	0	0	0	0	0	0	0	0	0	0	0	0	0	0	0	0	0	0	0	0	0	0	0	0	0
071719	11:56:32	11:58:50	136731	5.0.10.0	5_exp_RW	63	Rpleas_acq	CS_A	JQQJ	LWWL	DXXD	YFFY	ZHHZ	CPPC	vertrauen	küssen	gütig	sonnig	träumen	genießen	versagen	krank	gierig	sterben	töten	gemein	1	acq_USpleas_CSpleas1_RW	acq2_RW	2	11	480	1	300	300	426	50	0	1	1	blank2r.bmp	0	1	+	0	1	blank2r.bmp	492	1	JQQJ	492	1	blank2r.bmp	572	2	küssen	866	1	!	1319	1	!	1332	0	0	0	0	0	0	0	0	0	0	0	0	0	0	0	0	0	0	0	0	0	0	0	0	0	0	0	0	0	0
071719	11:56:32	11:58:53	139010	5.0.10.0	5_exp_RW	63	Rpleas_acq	CS_A	JQQJ	LWWL	DXXD	YFFY	ZHHZ	CPPC	vertrauen	küssen	gütig	sonnig	träumen	genießen	versagen	krank	gierig	sterben	töten	gemein	1	acq_USpleas_CSpleas1_RW	acq2_RW	2	12	480	1	300	300	471	50	0	1	1	blank2r.bmp	0	1	+	0	1	blank2r.bmp	492	1	JQQJ	492	1	blank2r.bmp	572	2	küssen	866	1	!	1319	1	!	1372	0	0	0	0	0	0	0	0	0	0	0	0	0	0	0	0	0	0	0	0	0	0	0	0	0	0	0	0	0	0
071719	11:56:32	11:58:55	141182	5.0.10.0	5_exp_RW	63	Rpleas_acq	CS_A	JQQJ	LWWL	DXXD	YFFY	ZHHZ	CPPC	vertrauen	küssen	gütig	sonnig	träumen	genießen	versagen	krank	gierig	sterben	töten	gemein	1	acq_USunple_CSunple2_RW	acq2_RW	2	13	480	0	300	300	406	46	0	1	1	blank2r.bmp	0	1	+	0	1	blank2r.bmp	492	1	YFFY	492	1	blank2r.bmp	572	1	sterben	866	1	!	-1	1	!	-1	0	0	0	0	0	0	0	0	0	0	0	0	0	0	0	0	0	0	0	0	0	0	0	0	0	0	0	0	0	0
071719	11:56:32	11:58:57	143501	5.0.10.0	5_exp_RW	63	Rpleas_acq	CS_A	JQQJ	LWWL	DXXD	YFFY	ZHHZ	CPPC	vertrauen	küssen	gütig	sonnig	träumen	genießen	versagen	krank	gierig	sterben	töten	gemein	1	acq_USunple_CSunple2_RW	acq2_RW	2	14	480	1	300	300	511	46	0	1	1	blank2r.bmp	0	1	+	0	1	blank2r.bmp	492	1	YFFY	492	1	blank2r.bmp	572	2	töten	866	1	!	1319	1	!	1412	0	0	0	0	0	0	0	0	0	0	0	0	0	0	0	0	0	0	0	0	0	0	0	0	0	0	0	0	0	0
071719	11:56:32	11:58:59	145834	5.0.10.0	5_exp_RW	63	Rpleas_acq	CS_A	JQQJ	LWWL	DXXD	YFFY	ZHHZ	CPPC	vertrauen	küssen	gütig	sonnig	träumen	genießen	versagen	krank	gierig	sterben	töten	gemein	1	acq_USpleas_CSpleas2_RW	acq2_RW	2	15	480	1	300	300	530	50	0	1	1	blank2r.bmp	0	1	+	0	1	blank2r.bmp	492	1	LWWL	492	1	blank2r.bmp	572	1	sonnig	866	1	!	1319	1	!	1426	0	0	0	0	0	0	0	0	0	0	0	0	0	0	0	0	0	0	0	0	0	0	0	0	0	0	0	0	0	0
071719	11:56:32	11:59:02	148166	5.0.10.0	5_exp_RW	63	Rpleas_acq	CS_A	JQQJ	LWWL	DXXD	YFFY	ZHHZ	CPPC	vertrauen	küssen	gütig	sonnig	träumen	genießen	versagen	krank	gierig	sterben	töten	gemein	1	acq_USpleas_CSpleas2_RW	acq2_RW	2	16	480	1	300	300	533	50	0	1	1	blank2r.bmp	0	1	+	0	1	blank2r.bmp	492	1	LWWL	492	1	blank2r.bmp	572	3	genießen	866	1	!	1319	1	!	1439	0	0	0	0	0	0	0	0	0	0	0	0	0	0	0	0	0	0	0	0	0	0	0	0	0	0	0	0	0	0
071719	11:56:32	11:59:04	150352	5.0.10.0	5_exp_RW	63	Rpleas_acq	CS_A	JQQJ	LWWL	DXXD	YFFY	ZHHZ	CPPC	vertrauen	küssen	gütig	sonnig	träumen	genießen	versagen	krank	gierig	sterben	töten	gemein	1	acq_USunple_CSunple1_RW	acq2_RW	2	17	480	0	300	300	411	46	0	1	1	blank2r.bmp	0	1	+	0	1	blank2r.bmp	492	1	DXXD	492	1	blank2r.bmp	572	2	krank	866	1	!	-1	1	!	-1	0	0	0	0	0	0	0	0	0	0	0	0	0	0	0	0	0	0	0	0	0	0	0	0	0	0	0	0	0	0
071719	11:56:32	11:59:06	152711	5.0.10.0	5_exp_RW	63	Rpleas_acq	CS_A	JQQJ	LWWL	DXXD	YFFY	ZHHZ	CPPC	vertrauen	küssen	gütig	sonnig	träumen	genießen	versagen	krank	gierig	sterben	töten	gemein	1	acq_USpleas_CSpleas2_RW	acq2_RW	2	18	480	0	300	300	559	50	0	1	1	blank2r.bmp	0	1	+	0	1	blank2r.bmp	492	1	LWWL	492	1	blank2r.bmp	572	2	träumen	866	1	!	1319	1	!	-1	0	0	0	0	0	0	0	0	0	0	0	0	0	0	0	0	0	0	0	0	0	0	0	0	0	0	0	0	0	0
071719	11:56:32	11:59:09	154950	5.0.10.0	5_exp_RW	63	Rpleas_acq	CS_A	JQQJ	LWWL	DXXD	YFFY	ZHHZ	CPPC	vertrauen	küssen	gütig	sonnig	träumen	genießen	versagen	krank	gierig	sterben	töten	gemein	1	acq_USunple_CSunple1_RW	acq2_RW	2	19	480	1	300	300	437	46	0	1	1	blank2r.bmp	0	1	+	0	1	blank2r.bmp	492	1	DXXD	492	1	blank2r.bmp	572	1	versagen	866	1	!	1319	1	!	1332	0	0	0	0	0	0	0	0	0	0	0	0	0	0	0	0	0	0	0	0	0	0	0	0	0	0	0	0	0	0
071719	11:56:32	11:59:11	157256	5.0.10.0	5_exp_RW	63	Rpleas_acq	CS_A	JQQJ	LWWL	DXXD	YFFY	ZHHZ	CPPC	vertrauen	küssen	gütig	sonnig	träumen	genießen	versagen	krank	gierig	sterben	töten	gemein	1	acq_USunple_CSunple2_RW	acq2_RW	2	20	480	1	300	300	500	46	0	1	1	blank2r.bmp	0	1	+	0	1	blank2r.bmp	492	1	YFFY	492	1	blank2r.bmp	572	3	gemein	866	1	!	1319	1	!	1399	0	0	0	0	0	0	0	0	0	0	0	0	0	0	0	0	0	0	0	0	0	0	0	0	0	0	0	0	0	0
071719	11:56:32	11:59:13	159628	5.0.10.0	5_exp_RW	63	Rpleas_acq	CS_A	JQQJ	LWWL	DXXD	YFFY	ZHHZ	CPPC	vertrauen	küssen	gütig	sonnig	träumen	genießen	versagen	krank	gierig	sterben	töten	gemein	1	acq_USpleas_CSpleas2_RW	acq2_RW	2	21	480	0	300	300	383	46	0	0	1	blank2r.bmp	0	1	+	0	1	blank2r.bmp	492	1	LWWL	492	1	blank2r.bmp	572	3	genießen	866	1	FEHLER	1586	1	!	-1	1	!	-1	0	0	0	0	0	0	0	0	0	0	0	0	0	0	0	0	0	0	0	0	0	0	0	0	0	0	0
071719	11:56:32	11:59:15	161720	5.0.10.0	5_exp_RW	63	Rpleas_acq	CS_A	JQQJ	LWWL	DXXD	YFFY	ZHHZ	CPPC	vertrauen	küssen	gütig	sonnig	träumen	genießen	versagen	krank	gierig	sterben	töten	gemein	1	acq_USunple_CSunple1_RW	acq2_RW	2	22	480	1	300	300	517	46	0	1	1	blank2r.bmp	0	1	+	0	1	blank2r.bmp	492	1	DXXD	492	1	blank2r.bmp	572	2	krank	866	1	!	1319	1	!	1412	0	0	0	0	0	0	0	0	0	0	0	0	0	0	0	0	0	0	0	0	0	0	0	0	0	0	0	0	0	0
071719	11:56:32	11:59:18	164026	5.0.10.0	5_exp_RW	63	Rpleas_acq	CS_A	JQQJ	LWWL	DXXD	YFFY	ZHHZ	CPPC	vertrauen	küssen	gütig	sonnig	träumen	genießen	versagen	krank	gierig	sterben	töten	gemein	1	acq_USunple_CSunple2_RW	acq2_RW	2	23	480	1	300	300	494	46	0	1	1	blank2r.bmp	0	1	+	0	1	blank2r.bmp	492	1	YFFY	492	1	blank2r.bmp	572	1	sterben	866	1	!	1319	1	!	1399	0	0	0	0	0	0	0	0	0	0	0	0	0	0	0	0	0	0	0	0	0	0	0	0	0	0	0	0	0	0
071719	11:56:32	11:59:20	166359	5.0.10.0	5_exp_RW	63	Rpleas_acq	CS_A	JQQJ	LWWL	DXXD	YFFY	ZHHZ	CPPC	vertrauen	küssen	gütig	sonnig	träumen	genießen	versagen	krank	gierig	sterben	töten	gemein	1	acq_USunple_CSunple2_RW	acq2_RW	2	24	480	0	300	300	559	46	0	1	1	blank2r.bmp	0	1	+	0	1	blank2r.bmp	492	1	YFFY	492	1	blank2r.bmp	572	3	gemein	866	1	!	1319	1	!	-1	0	0	0	0	0	0	0	0	0	0	0	0	0	0	0	0	0	0	0	0	0	0	0	0	0	0	0	0	0	0
071719	11:56:32	11:59:34	180739	5.0.10.0	5_exp_RW	63	Rpleas_acq	CS_A	JQQJ	LWWL	DXXD	YFFY	ZHHZ	CPPC	vertrauen	küssen	gütig	sonnig	träumen	genießen	versagen	krank	gierig	sterben	töten	gemein	1	acq_USunple_CSunple2_RW	acq3_RW	3	1	453	1	300	300	497	46	0	1	1	blank2r.bmp	0	1	+	0	1	blank2r.bmp	492	1	YFFY	492	1	blank2r.bmp	572	1	sterben	866	1	!	1292	1	!	1399	0	0	0	0	0	0	0	0	0	0	0	0	0	0	0	0	0	0	0	0	0	0	0	0	0	0	0	0	0	0
071719	11:56:32	11:59:36	182939	5.0.10.0	5_exp_RW	63	Rpleas_acq	CS_A	JQQJ	LWWL	DXXD	YFFY	ZHHZ	CPPC	vertrauen	küssen	gütig	sonnig	träumen	genießen	versagen	krank	gierig	sterben	töten	gemein	1	acq_USpleas_CSpleas1_RW	acq3_RW	3	2	453	1	300	300	401	50	0	1	1	blank2r.bmp	0	1	+	0	1	blank2r.bmp	492	1	JQQJ	492	1	blank2r.bmp	572	1	vertrauen	866	1	!	1292	1	!	1306	0	0	0	0	0	0	0	0	0	0	0	0	0	0	0	0	0	0	0	0	0	0	0	0	0	0	0	0	0	0
071719	11:56:32	11:59:39	185191	5.0.10.0	5_exp_RW	63	Rpleas_acq	CS_A	JQQJ	LWWL	DXXD	YFFY	ZHHZ	CPPC	vertrauen	küssen	gütig	sonnig	träumen	genießen	versagen	krank	gierig	sterben	töten	gemein	1	acq_USpleas_CSpleas2_RW	acq3_RW	3	3	453	1	300	300	454	50	0	1	1	blank2r.bmp	0	1	+	0	1	blank2r.bmp	492	1	LWWL	492	1	blank2r.bmp	572	1	sonnig	866	1	!	1292	1	!	1359	0	0	0	0	0	0	0	0	0	0	0	0	0	0	0	0	0	0	0	0	0	0	0	0	0	0	0	0	0	0
071719	11:56:32	11:59:41	187390	5.0.10.0	5_exp_RW	63	Rpleas_acq	CS_A	JQQJ	LWWL	DXXD	YFFY	ZHHZ	CPPC	vertrauen	küssen	gütig	sonnig	träumen	genießen	versagen	krank	gierig	sterben	töten	gemein	1	acq_USunple_CSunple2_RW	acq3_RW	3	4	453	1	300	300	408	46	0	1	1	blank2r.bmp	0	1	+	0	1	blank2r.bmp	492	1	YFFY	492	1	blank2r.bmp	572	2	töten	866	1	!	1292	1	!	1306	0	0	0	0	0	0	0	0	0	0	0	0	0	0	0	0	0	0	0	0	0	0	0	0	0	0	0	0	0	0
071719	11:56:32	11:59:43	189696	5.0.10.0	5_exp_RW	63	Rpleas_acq	CS_A	JQQJ	LWWL	DXXD	YFFY	ZHHZ	CPPC	vertrauen	küssen	gütig	sonnig	träumen	genießen	versagen	krank	gierig	sterben	töten	gemein	1	acq_USpleas_CSpleas1_RW	acq3_RW	3	5	453	1	300	300	509	50	0	1	1	blank2r.bmp	0	1	+	0	1	blank2r.bmp	492	1	JQQJ	492	1	blank2r.bmp	572	3	gütig	866	1	!	1292	1	!	1412	0	0	0	0	0	0	0	0	0	0	0	0	0	0	0	0	0	0	0	0	0	0	0	0	0	0	0	0	0	0
071719	11:56:32	11:59:45	191935	5.0.10.0	5_exp_RW	63	Rpleas_acq	CS_A	JQQJ	LWWL	DXXD	YFFY	ZHHZ	CPPC	vertrauen	küssen	gütig	sonnig	träumen	genießen	versagen	krank	gierig	sterben	töten	gemein	1	acq_USunple_CSunple1_RW	acq3_RW	3	6	453	1	300	300	445	46	0	1	1	blank2r.bmp	0	1	+	0	1	blank2r.bmp	492	1	DXXD	492	1	blank2r.bmp	572	1	versagen	866	1	!	1292	1	!	1346	0	0	0	0	0	0	0	0	0	0	0	0	0	0	0	0	0	0	0	0	0	0	0	0	0	0	0	0	0	0
071719	11:56:32	11:59:48	194134	5.0.10.0	5_exp_RW	63	Rpleas_acq	CS_A	JQQJ	LWWL	DXXD	YFFY	ZHHZ	CPPC	vertrauen	küssen	gütig	sonnig	träumen	genießen	versagen	krank	gierig	sterben	töten	gemein	1	acq_USunple_CSunple2_RW	acq3_RW	3	7	453	1	300	300	404	46	0	1	1	blank2r.bmp	0	1	+	0	1	blank2r.bmp	492	1	YFFY	492	1	blank2r.bmp	572	1	sterben	866	1	!	1292	1	!	1306	0	0	0	0	0	0	0	0	0	0	0	0	0	0	0	0	0	0	0	0	0	0	0	0	0	0	0	0	0	0
071719	11:56:32	11:59:50	196360	5.0.10.0	5_exp_RW	63	Rpleas_acq	CS_A	JQQJ	LWWL	DXXD	YFFY	ZHHZ	CPPC	vertrauen	küssen	gütig	sonnig	träumen	genießen	versagen	krank	gierig	sterben	töten	gemein	1	acq_USpleas_CSpleas2_RW	acq3_RW	3	8	453	1	300	300	436	50	0	1	1	blank2r.bmp	0	1	+	0	1	blank2r.bmp	492	1	LWWL	492	1	blank2r.bmp	572	2	träumen	866	1	!	1292	1	!	1332	0	0	0	0	0	0	0	0	0	0	0	0	0	0	0	0	0	0	0	0	0	0	0	0	0	0	0	0	0	0
071719	11:56:32	11:59:52	198559	5.0.10.0	5_exp_RW	63	Rpleas_acq	CS_A	JQQJ	LWWL	DXXD	YFFY	ZHHZ	CPPC	vertrauen	küssen	gütig	sonnig	träumen	genießen	versagen	krank	gierig	sterben	töten	gemein	1	acq_USpleas_CSpleas2_RW	acq3_RW	3	9	453	1	300	300	410	50	0	1	1	blank2r.bmp	0	1	+	0	1	blank2r.bmp	492	1	LWWL	492	1	blank2r.bmp	572	2	träumen	866	1	!	1292	1	!	1306	0	0	0	0	0	0	0	0	0	0	0	0	0	0	0	0	0	0	0	0	0	0	0	0	0	0	0	0	0	0
071719	11:56:32	11:59:54	200758	5.0.10.0	5_exp_RW	63	Rpleas_acq	CS_A	JQQJ	LWWL	DXXD	YFFY	ZHHZ	CPPC	vertrauen	küssen	gütig	sonnig	träumen	genießen	versagen	krank	gierig	sterben	töten	gemein	1	acq_USpleas_CSpleas2_RW	acq3_RW	3	10	453	1	300	300	406	50	0	1	1	blank2r.bmp	0	1	+	0	1	blank2r.bmp	492	1	LWWL	492	1	blank2r.bmp	572	1	sonnig	866	1	!	1292	1	!	1306	0	0	0	0	0	0	0	0	0	0	0	0	0	0	0	0	0	0	0	0	0	0	0	0	0	0	0	0	0	0
071719	11:56:32	11:59:57	202970	5.0.10.0	5_exp_RW	63	Rpleas_acq	CS_A	JQQJ	LWWL	DXXD	YFFY	ZHHZ	CPPC	vertrauen	küssen	gütig	sonnig	träumen	genießen	versagen	krank	gierig	sterben	töten	gemein	1	acq_USpleas_CSpleas1_RW	acq3_RW	3	11	453	1	300	300	420	50	0	1	1	blank2r.bmp	0	1	+	0	1	blank2r.bmp	492	1	JQQJ	492	1	blank2r.bmp	572	3	gütig	866	1	!	1292	1	!	1319	0	0	0	0	0	0	0	0	0	0	0	0	0	0	0	0	0	0	0	0	0	0	0	0	0	0	0	0	0	0
071719	11:56:32	11:59:59	205210	5.0.10.0	5_exp_RW	63	Rpleas_acq	CS_A	JQQJ	LWWL	DXXD	YFFY	ZHHZ	CPPC	vertrauen	küssen	gütig	sonnig	träumen	genießen	versagen	krank	gierig	sterben	töten	gemein	1	acq_USunple_CSunple1_RW	acq3_RW	3	12	453	1	300	300	444	46	0	1	1	blank2r.bmp	0	1	+	0	1	blank2r.bmp	492	1	DXXD	492	1	blank2r.bmp	572	3	gierig	866	1	!	1292	1	!	1346	0	0	0	0	0	0	0	0	0	0	0	0	0	0	0	0	0	0	0	0	0	0	0	0	0	0	0	0	0	0
071719	11:56:32	12:00:01	207435	5.0.10.0	5_exp_RW	63	Rpleas_acq	CS_A	JQQJ	LWWL	DXXD	YFFY	ZHHZ	CPPC	vertrauen	küssen	gütig	sonnig	träumen	genießen	versagen	krank	gierig	sterben	töten	gemein	1	acq_USpleas_CSpleas2_RW	acq3_RW	3	13	453	1	300	300	438	50	0	1	1	blank2r.bmp	0	1	+	0	1	blank2r.bmp	492	1	LWWL	492	1	blank2r.bmp	572	3	genießen	866	1	!	1292	1	!	1332	0	0	0	0	0	0	0	0	0	0	0	0	0	0	0	0	0	0	0	0	0	0	0	0	0	0	0	0	0	0
071719	11:56:32	12:00:03	209674	5.0.10.0	5_exp_RW	63	Rpleas_acq	CS_A	JQQJ	LWWL	DXXD	YFFY	ZHHZ	CPPC	vertrauen	küssen	gütig	sonnig	träumen	genießen	versagen	krank	gierig	sterben	töten	gemein	1	acq_USunple_CSunple2_RW	acq3_RW	3	14	453	1	300	300	452	46	0	1	1	blank2r.bmp	0	1	+	0	1	blank2r.bmp	492	1	YFFY	492	1	blank2r.bmp	572	3	gemein	866	1	!	1292	1	!	1346	0	0	0	0	0	0	0	0	0	0	0	0	0	0	0	0	0	0	0	0	0	0	0	0	0	0	0	0	0	0
071719	11:56:32	12:00:05	211887	5.0.10.0	5_exp_RW	63	Rpleas_acq	CS_A	JQQJ	LWWL	DXXD	YFFY	ZHHZ	CPPC	vertrauen	küssen	gütig	sonnig	träumen	genießen	versagen	krank	gierig	sterben	töten	gemein	1	acq_USunple_CSunple1_RW	acq3_RW	3	15	453	1	300	300	407	46	0	1	1	blank2r.bmp	0	1	+	0	1	blank2r.bmp	492	1	DXXD	492	1	blank2r.bmp	572	2	krank	866	1	!	1292	1	!	1306	0	0	0	0	0	0	0	0	0	0	0	0	0	0	0	0	0	0	0	0	0	0	0	0	0	0	0	0	0	0
071719	11:56:32	12:00:08	214139	5.0.10.0	5_exp_RW	63	Rpleas_acq	CS_A	JQQJ	LWWL	DXXD	YFFY	ZHHZ	CPPC	vertrauen	küssen	gütig	sonnig	träumen	genießen	versagen	krank	gierig	sterben	töten	gemein	1	acq_USunple_CSunple1_RW	acq3_RW	3	16	453	1	300	300	456	46	0	1	1	blank2r.bmp	0	1	+	0	1	blank2r.bmp	492	1	DXXD	492	1	blank2r.bmp	572	1	versagen	866	1	!	1292	1	!	1359	0	0	0	0	0	0	0	0	0	0	0	0	0	0	0	0	0	0	0	0	0	0	0	0	0	0	0	0	0	0
071719	11:56:32	12:00:10	216445	5.0.10.0	5_exp_RW	63	Rpleas_acq	CS_A	JQQJ	LWWL	DXXD	YFFY	ZHHZ	CPPC	vertrauen	küssen	gütig	sonnig	träumen	genießen	versagen	krank	gierig	sterben	töten	gemein	1	acq_USpleas_CSpleas1_RW	acq3_RW	3	17	453	1	300	300	518	50	0	1	1	blank2r.bmp	0	1	+	0	1	blank2r.bmp	492	1	JQQJ	492	1	blank2r.bmp	572	1	vertrauen	866	1	!	1292	1	!	1412	0	0	0	0	0	0	0	0	0	0	0	0	0	0	0	0	0	0	0	0	0	0	0	0	0	0	0	0	0	0
071719	11:56:32	12:00:12	218724	5.0.10.0	5_exp_RW	63	Rpleas_acq	CS_A	JQQJ	LWWL	DXXD	YFFY	ZHHZ	CPPC	vertrauen	küssen	gütig	sonnig	träumen	genießen	versagen	krank	gierig	sterben	töten	gemein	1	acq_USpleas_CSpleas1_RW	acq3_RW	3	18	453	1	300	300	475	50	0	1	1	blank2r.bmp	0	1	+	0	1	blank2r.bmp	492	1	JQQJ	492	1	blank2r.bmp	572	2	küssen	866	1	!	1292	1	!	1372	0	0	0	0	0	0	0	0	0	0	0	0	0	0	0	0	0	0	0	0	0	0	0	0	0	0	0	0	0	0
071719	11:56:32	12:00:15	220976	5.0.10.0	5_exp_RW	63	Rpleas_acq	CS_A	JQQJ	LWWL	DXXD	YFFY	ZHHZ	CPPC	vertrauen	küssen	gütig	sonnig	träumen	genießen	versagen	krank	gierig	sterben	töten	gemein	1	acq_USunple_CSunple2_RW	acq3_RW	3	19	453	1	300	300	441	46	0	1	1	blank2r.bmp	0	1	+	0	1	blank2r.bmp	492	1	YFFY	492	1	blank2r.bmp	572	2	töten	866	1	!	1292	1	!	1346	0	0	0	0	0	0	0	0	0	0	0	0	0	0	0	0	0	0	0	0	0	0	0	0	0	0	0	0	0	0
071719	11:56:32	12:00:17	223242	5.0.10.0	5_exp_RW	63	Rpleas_acq	CS_A	JQQJ	LWWL	DXXD	YFFY	ZHHZ	CPPC	vertrauen	küssen	gütig	sonnig	träumen	genießen	versagen	krank	gierig	sterben	töten	gemein	1	acq_USpleas_CSpleas1_RW	acq3_RW	3	20	453	1	300	300	470	50	0	1	1	blank2r.bmp	0	1	+	0	1	blank2r.bmp	492	1	JQQJ	492	1	blank2r.bmp	572	3	gütig	866	1	!	1292	1	!	1372	0	0	0	0	0	0	0	0	0	0	0	0	0	0	0	0	0	0	0	0	0	0	0	0	0	0	0	0	0	0
071719	11:56:32	12:00:19	225455	5.0.10.0	5_exp_RW	63	Rpleas_acq	CS_A	JQQJ	LWWL	DXXD	YFFY	ZHHZ	CPPC	vertrauen	küssen	gütig	sonnig	träumen	genießen	versagen	krank	gierig	sterben	töten	gemein	1	acq_USpleas_CSpleas2_RW	acq3_RW	3	21	453	1	300	300	422	50	0	1	1	blank2r.bmp	0	1	+	0	1	blank2r.bmp	492	1	LWWL	492	1	blank2r.bmp	572	3	genießen	866	1	!	1292	1	!	1319	0	0	0	0	0	0	0	0	0	0	0	0	0	0	0	0	0	0	0	0	0	0	0	0	0	0	0	0	0	0
071719	11:56:32	12:00:21	227760	5.0.10.0	5_exp_RW	63	Rpleas_acq	CS_A	JQQJ	LWWL	DXXD	YFFY	ZHHZ	CPPC	vertrauen	küssen	gütig	sonnig	träumen	genießen	versagen	krank	gierig	sterben	töten	gemein	1	acq_USunple_CSunple1_RW	acq3_RW	3	22	453	1	300	300	508	46	0	1	1	blank2r.bmp	0	1	+	0	1	blank2r.bmp	492	1	DXXD	492	1	blank2r.bmp	572	3	gierig	866	1	!	1292	1	!	1412	0	0	0	0	0	0	0	0	0	0	0	0	0	0	0	0	0	0	0	0	0	0	0	0	0	0	0	0	0	0
071719	11:56:32	12:00:24	230079	5.0.10.0	5_exp_RW	63	Rpleas_acq	CS_A	JQQJ	LWWL	DXXD	YFFY	ZHHZ	CPPC	vertrauen	küssen	gütig	sonnig	träumen	genießen	versagen	krank	gierig	sterben	töten	gemein	1	acq_USunple_CSunple1_RW	acq3_RW	3	23	453	1	300	300	518	46	0	1	1	blank2r.bmp	0	1	+	0	1	blank2r.bmp	492	1	DXXD	492	1	blank2r.bmp	572	3	gierig	866	1	!	1292	1	!	1426	0	0	0	0	0	0	0	0	0	0	0	0	0	0	0	0	0	0	0	0	0	0	0	0	0	0	0	0	0	0
071719	11:56:32	12:00:26	232292	5.0.10.0	5_exp_RW	63	Rpleas_acq	CS_A	JQQJ	LWWL	DXXD	YFFY	ZHHZ	CPPC	vertrauen	küssen	gütig	sonnig	träumen	genießen	versagen	krank	gierig	sterben	töten	gemein	1	acq_USunple_CSunple2_RW	acq3_RW	3	24	453	1	300	300	402	46	0	1	1	blank2r.bmp	0	1	+	0	1	blank2r.bmp	492	1	YFFY	492	1	blank2r.bmp	572	1	sterben	866	1	!	1292	1	!	1306	0	0	0	0	0	0	0	0	0	0	0	0	0	0	0	0	0	0	0	0	0	0	0	0	0	0	0	0	0	0
071719	11:56:32	12:00:38	244274	5.0.10.0	5_exp_RW	63	Rpleas_acq	CS_A	JQQJ	LWWL	DXXD	YFFY	ZHHZ	CPPC	vertrauen	küssen	gütig	sonnig	träumen	genießen	versagen	krank	gierig	sterben	töten	gemein	1	acq_USunple_CSunple1_RW	acq4567_RW	4	1	400	1	300	300	463	46	0	1	1	blank2r.bmp	0	1	+	0	1	blank2r.bmp	492	1	DXXD	492	1	blank2r.bmp	572	2	krank	866	1	!	1239	1	!	1359	0	0	0	0	0	0	0	0	0	0	0	0	0	0	0	0	0	0	0	0	0	0	0	0	0	0	0	0	0	0
071719	11:56:32	12:00:40	246433	5.0.10.0	5_exp_RW	63	Rpleas_acq	CS_A	JQQJ	LWWL	DXXD	YFFY	ZHHZ	CPPC	vertrauen	küssen	gütig	sonnig	träumen	genießen	versagen	krank	gierig	sterben	töten	gemein	1	acq_USunple_CSunple1_RW	acq4567_RW	4	2	400	1	300	300	362	50	0	0	1	blank2r.bmp	0	1	+	0	1	blank2r.bmp	492	1	DXXD	492	1	blank2r.bmp	572	1	versagen	866	1	!	1239	1	!	1266	0	0	0	0	0	0	0	0	0	0	0	0	0	0	0	0	0	0	0	0	0	0	0	0	0	0	0	0	0	0
071719	11:56:32	12:00:42	248525	5.0.10.0	5_exp_RW	63	Rpleas_acq	CS_A	JQQJ	LWWL	DXXD	YFFY	ZHHZ	CPPC	vertrauen	küssen	gütig	sonnig	träumen	genießen	versagen	krank	gierig	sterben	töten	gemein	1	acq_USpleas_CSpleas2_RW	acq4567_RW	4	3	400	0	300	300	324	50	0	1	1	blank2r.bmp	0	1	+	0	1	blank2r.bmp	492	1	LWWL	492	1	blank2r.bmp	572	1	sonnig	866	1	!	-1	1	!	-1	0	0	0	0	0	0	0	0	0	0	0	0	0	0	0	0	0	0	0	0	0	0	0	0	0	0	0	0	0	0
071719	11:56:32	12:00:44	250804	5.0.10.0	5_exp_RW	63	Rpleas_acq	CS_A	JQQJ	LWWL	DXXD	YFFY	ZHHZ	CPPC	vertrauen	küssen	gütig	sonnig	träumen	genießen	versagen	krank	gierig	sterben	töten	gemein	1	acq_USpleas_CSpleas1_RW	acq4567_RW	4	4	400	1	300	300	466	50	0	1	1	blank2r.bmp	0	1	+	0	1	blank2r.bmp	492	1	JQQJ	492	1	blank2r.bmp	572	1	vertrauen	866	1	!	1239	1	!	1372	0	0	0	0	0	0	0	0	0	0	0	0	0	0	0	0	0	0	0	0	0	0	0	0	0	0	0	0	0	0
071719	11:56:32	12:00:47	253030	5.0.10.0	5_exp_RW	63	Rpleas_acq	CS_A	JQQJ	LWWL	DXXD	YFFY	ZHHZ	CPPC	vertrauen	küssen	gütig	sonnig	träumen	genießen	versagen	krank	gierig	sterben	töten	gemein	1	acq_USunple_CSunple2_RW	acq4567_RW	4	5	400	1	300	300	431	46	0	1	1	blank2r.bmp	0	1	+	0	1	blank2r.bmp	492	1	YFFY	492	1	blank2r.bmp	572	2	töten	866	1	!	1239	1	!	1332	0	0	0	0	0	0	0	0	0	0	0	0	0	0	0	0	0	0	0	0	0	0	0	0	0	0	0	0	0	0
071719	11:56:32	12:00:49	255269	5.0.10.0	5_exp_RW	63	Rpleas_acq	CS_A	JQQJ	LWWL	DXXD	YFFY	ZHHZ	CPPC	vertrauen	küssen	gütig	sonnig	träumen	genießen	versagen	krank	gierig	sterben	töten	gemein	1	acq_USpleas_CSpleas1_RW	acq4567_RW	4	6	400	1	300	300	446	50	0	1	1	blank2r.bmp	0	1	+	0	1	blank2r.bmp	492	1	JQQJ	492	1	blank2r.bmp	572	2	küssen	866	1	!	1239	1	!	1346	0	0	0	0	0	0	0	0	0	0	0	0	0	0	0	0	0	0	0	0	0	0	0	0	0	0	0	0	0	0
071719	11:56:32	12:00:51	257522	5.0.10.0	5_exp_RW	63	Rpleas_acq	CS_A	JQQJ	LWWL	DXXD	YFFY	ZHHZ	CPPC	vertrauen	küssen	gütig	sonnig	träumen	genießen	versagen	krank	gierig	sterben	töten	gemein	1	acq_USpleas_CSpleas2_RW	acq4567_RW	4	7	400	0	300	300	479	50	0	1	1	blank2r.bmp	0	1	+	0	1	blank2r.bmp	492	1	LWWL	492	1	blank2r.bmp	572	2	träumen	866	1	!	1239	1	!	-1	0	0	0	0	0	0	0	0	0	0	0	0	0	0	0	0	0	0	0	0	0	0	0	0	0	0	0	0	0	0
071719	11:56:32	12:00:53	259734	5.0.10.0	5_exp_RW	63	Rpleas_acq	CS_A	JQQJ	LWWL	DXXD	YFFY	ZHHZ	CPPC	vertrauen	küssen	gütig	sonnig	träumen	genießen	versagen	krank	gierig	sterben	töten	gemein	1	acq_USunple_CSunple1_RW	acq4567_RW	4	8	400	1	300	300	386	46	0	1	1	blank2r.bmp	0	1	+	0	1	blank2r.bmp	492	1	DXXD	492	1	blank2r.bmp	572	1	versagen	866	1	!	1239	1	!	1292	0	0	0	0	0	0	0	0	0	0	0	0	0	0	0	0	0	0	0	0	0	0	0	0	0	0	0	0	0	0
071719	11:56:32	12:00:55	261947	5.0.10.0	5_exp_RW	63	Rpleas_acq	CS_A	JQQJ	LWWL	DXXD	YFFY	ZHHZ	CPPC	vertrauen	küssen	gütig	sonnig	träumen	genießen	versagen	krank	gierig	sterben	töten	gemein	1	acq_USpleas_CSpleas1_RW	acq4567_RW	4	9	400	1	300	300	400	46	0	0	1	blank2r.bmp	0	1	+	0	1	blank2r.bmp	492	1	JQQJ	492	1	blank2r.bmp	572	1	vertrauen	866	1	!	1239	1	!	1306	0	0	0	0	0	0	0	0	0	0	0	0	0	0	0	0	0	0	0	0	0	0	0	0	0	0	0	0	0	0
071719	11:56:32	12:00:58	264186	5.0.10.0	5_exp_RW	63	Rpleas_acq	CS_A	JQQJ	LWWL	DXXD	YFFY	ZHHZ	CPPC	vertrauen	küssen	gütig	sonnig	träumen	genießen	versagen	krank	gierig	sterben	töten	gemein	1	acq_USunple_CSunple2_RW	acq4567_RW	4	10	400	1	300	300	447	46	0	1	1	blank2r.bmp	0	1	+	0	1	blank2r.bmp	492	1	YFFY	492	1	blank2r.bmp	572	3	gemein	866	1	!	1239	1	!	1346	0	0	0	0	0	0	0	0	0	0	0	0	0	0	0	0	0	0	0	0	0	0	0	0	0	0	0	0	0	0
071719	11:56:32	12:01:00	266358	5.0.10.0	5_exp_RW	63	Rpleas_acq	CS_A	JQQJ	LWWL	DXXD	YFFY	ZHHZ	CPPC	vertrauen	küssen	gütig	sonnig	träumen	genießen	versagen	krank	gierig	sterben	töten	gemein	1	acq_USpleas_CSpleas1_RW	acq4567_RW	4	11	400	1	300	300	374	50	0	1	1	blank2r.bmp	0	1	+	0	1	blank2r.bmp	492	1	JQQJ	492	1	blank2r.bmp	572	3	gütig	866	1	!	1239	1	!	1279	0	0	0	0	0	0	0	0	0	0	0	0	0	0	0	0	0	0	0	0	0	0	0	0	0	0	0	0	0	0
071719	11:56:32	12:01:02	268504	5.0.10.0	5_exp_RW	63	Rpleas_acq	CS_A	JQQJ	LWWL	DXXD	YFFY	ZHHZ	CPPC	vertrauen	küssen	gütig	sonnig	träumen	genießen	versagen	krank	gierig	sterben	töten	gemein	1	acq_USunple_CSunple2_RW	acq4567_RW	4	12	400	1	300	300	354	46	0	1	1	blank2r.bmp	0	1	+	0	1	blank2r.bmp	492	1	YFFY	492	1	blank2r.bmp	572	3	gemein	866	1	!	1239	1	!	1252	0	0	0	0	0	0	0	0	0	0	0	0	0	0	0	0	0	0	0	0	0	0	0	0	0	0	0	0	0	0
071719	11:56:32	12:01:04	270676	5.0.10.0	5_exp_RW	63	Rpleas_acq	CS_A	JQQJ	LWWL	DXXD	YFFY	ZHHZ	CPPC	vertrauen	küssen	gütig	sonnig	träumen	genießen	versagen	krank	gierig	sterben	töten	gemein	1	acq_USpleas_CSpleas2_RW	acq4567_RW	4	13	400	1	300	300	379	50	0	1	1	blank2r.bmp	0	1	+	0	1	blank2r.bmp	492	1	LWWL	492	1	blank2r.bmp	572	2	träumen	866	1	!	1239	1	!	1279	0	0	0	0	0	0	0	0	0	0	0	0	0	0	0	0	0	0	0	0	0	0	0	0	0	0	0	0	0	0
071719	11:56:32	12:01:06	272889	5.0.10.0	5_exp_RW	63	Rpleas_acq	CS_A	JQQJ	LWWL	DXXD	YFFY	ZHHZ	CPPC	vertrauen	küssen	gütig	sonnig	träumen	genießen	versagen	krank	gierig	sterben	töten	gemein	1	acq_USunple_CSunple1_RW	acq4567_RW	4	14	400	1	300	300	418	46	0	1	1	blank2r.bmp	0	1	+	0	1	blank2r.bmp	492	1	DXXD	492	1	blank2r.bmp	572	2	krank	866	1	!	1239	1	!	1319	0	0	0	0	0	0	0	0	0	0	0	0	0	0	0	0	0	0	0	0	0	0	0	0	0	0	0	0	0	0
071719	11:56:32	12:01:09	275061	5.0.10.0	5_exp_RW	63	Rpleas_acq	CS_A	JQQJ	LWWL	DXXD	YFFY	ZHHZ	CPPC	vertrauen	küssen	gütig	sonnig	träumen	genießen	versagen	krank	gierig	sterben	töten	gemein	1	acq_USpleas_CSpleas1_RW	acq4567_RW	4	15	400	1	300	300	373	50	0	1	1	blank2r.bmp	0	1	+	0	1	blank2r.bmp	492	1	JQQJ	492	1	blank2r.bmp	572	2	küssen	866	1	!	1239	1	!	1279	0	0	0	0	0	0	0	0	0	0	0	0	0	0	0	0	0	0	0	0	0	0	0	0	0	0	0	0	0	0
071719	11:56:32	12:01:11	277020	5.0.10.0	5_exp_RW	63	Rpleas_acq	CS_A	JQQJ	LWWL	DXXD	YFFY	ZHHZ	CPPC	vertrauen	küssen	gütig	sonnig	träumen	genießen	versagen	krank	gierig	sterben	töten	gemein	1	acq_USunple_CSunple1_RW	acq4567_RW	4	16	400	0	300	300	189	46	0	1	1	blank2r.bmp	0	1	+	0	1	blank2r.bmp	492	1	DXXD	492	1	blank2r.bmp	572	3	gierig	866	1	!	-1	1	!	-1	0	0	0	0	0	0	0	0	0	0	0	0	0	0	0	0	0	0	0	0	0	0	0	0	0	0	0	0	0	0
071719	11:56:32	12:01:13	279300	5.0.10.0	5_exp_RW	63	Rpleas_acq	CS_A	JQQJ	LWWL	DXXD	YFFY	ZHHZ	CPPC	vertrauen	küssen	gütig	sonnig	träumen	genießen	versagen	krank	gierig	sterben	töten	gemein	1	acq_USunple_CSunple2_RW	acq4567_RW	4	17	400	0	300	300	495	46	0	1	1	blank2r.bmp	0	1	+	0	1	blank2r.bmp	492	1	YFFY	492	1	blank2r.bmp	572	1	sterben	866	1	!	1239	1	!	-1	0	0	0	0	0	0	0	0	0	0	0	0	0	0	0	0	0	0	0	0	0	0	0	0	0	0	0	0	0	0
071719	11:56:32	12:01:15	281525	5.0.10.0	5_exp_RW	63	Rpleas_acq	CS_A	JQQJ	LWWL	DXXD	YFFY	ZHHZ	CPPC	vertrauen	küssen	gütig	sonnig	träumen	genießen	versagen	krank	gierig	sterben	töten	gemein	1	acq_USunple_CSunple2_RW	acq4567_RW	4	18	400	1	300	300	404	46	0	1	1	blank2r.bmp	0	1	+	0	1	blank2r.bmp	492	1	YFFY	492	1	blank2r.bmp	572	2	töten	866	1	!	1239	1	!	1306	0	0	0	0	0	0	0	0	0	0	0	0	0	0	0	0	0	0	0	0	0	0	0	0	0	0	0	0	0	0
071719	11:56:32	12:01:17	283751	5.0.10.0	5_exp_RW	63	Rpleas_acq	CS_A	JQQJ	LWWL	DXXD	YFFY	ZHHZ	CPPC	vertrauen	küssen	gütig	sonnig	träumen	genießen	versagen	krank	gierig	sterben	töten	gemein	1	acq_USpleas_CSpleas2_RW	acq4567_RW	4	19	400	1	300	300	431	50	0	1	1	blank2r.bmp	0	1	+	0	1	blank2r.bmp	492	1	LWWL	492	1	blank2r.bmp	572	1	sonnig	866	1	!	1239	1	!	1332	0	0	0	0	0	0	0	0	0	0	0	0	0	0	0	0	0	0	0	0	0	0	0	0	0	0	0	0	0	0
071719	11:56:32	12:01:20	285990	5.0.10.0	5_exp_RW	63	Rpleas_acq	CS_A	JQQJ	LWWL	DXXD	YFFY	ZHHZ	CPPC	vertrauen	küssen	gütig	sonnig	träumen	genießen	versagen	krank	gierig	sterben	töten	gemein	1	acq_USpleas_CSpleas2_RW	acq4567_RW	4	20	400	1	300	300	441	50	0	1	1	blank2r.bmp	0	1	+	0	1	blank2r.bmp	492	1	LWWL	492	1	blank2r.bmp	572	3	genießen	866	1	!	1239	1	!	1346	0	0	0	0	0	0	0	0	0	0	0	0	0	0	0	0	0	0	0	0	0	0	0	0	0	0	0	0	0	0
071719	11:56:32	12:01:22	288216	5.0.10.0	5_exp_RW	63	Rpleas_acq	CS_A	JQQJ	LWWL	DXXD	YFFY	ZHHZ	CPPC	vertrauen	küssen	gütig	sonnig	träumen	genießen	versagen	krank	gierig	sterben	töten	gemein	1	acq_USpleas_CSpleas2_RW	acq4567_RW	4	21	400	1	300	300	412	50	0	1	1	blank2r.bmp	0	1	+	0	1	blank2r.bmp	492	1	LWWL	492	1	blank2r.bmp	572	1	sonnig	866	1	!	1239	1	!	1319	0	0	0	0	0	0	0	0	0	0	0	0	0	0	0	0	0	0	0	0	0	0	0	0	0	0	0	0	0	0
071719	11:56:32	12:01:24	290442	5.0.10.0	5_exp_RW	63	Rpleas_acq	CS_A	JQQJ	LWWL	DXXD	YFFY	ZHHZ	CPPC	vertrauen	küssen	gütig	sonnig	träumen	genießen	versagen	krank	gierig	sterben	töten	gemein	1	acq_USpleas_CSpleas1_RW	acq4567_RW	4	22	400	1	300	300	436	50	0	1	1	blank2r.bmp	0	1	+	0	1	blank2r.bmp	492	1	JQQJ	492	1	blank2r.bmp	572	3	gütig	866	1	!	1239	1	!	1332	0	0	0	0	0	0	0	0	0	0	0	0	0	0	0	0	0	0	0	0	0	0	0	0	0	0	0	0	0	0
071719	11:56:32	12:01:26	292627	5.0.10.0	5_exp_RW	63	Rpleas_acq	CS_A	JQQJ	LWWL	DXXD	YFFY	ZHHZ	CPPC	vertrauen	küssen	gütig	sonnig	träumen	genießen	versagen	krank	gierig	sterben	töten	gemein	1	acq_USunple_CSunple1_RW	acq4567_RW	4	23	400	1	300	300	395	46	0	1	1	blank2r.bmp	0	1	+	0	1	blank2r.bmp	492	1	DXXD	492	1	blank2r.bmp	572	1	versagen	866	1	!	1239	1	!	1292	0	0	0	0	0	0	0	0	0	0	0	0	0	0	0	0	0	0	0	0	0	0	0	0	0	0	0	0	0	0
071719	11:56:32	12:01:28	294773	5.0.10.0	5_exp_RW	63	Rpleas_acq	CS_A	JQQJ	LWWL	DXXD	YFFY	ZHHZ	CPPC	vertrauen	küssen	gütig	sonnig	träumen	genießen	versagen	krank	gierig	sterben	töten	gemein	1	acq_USpleas_CSpleas2_RW	acq4567_RW	4	24	400	1	300	300	346	50	0	1	1	blank2r.bmp	0	1	+	0	1	blank2r.bmp	492	1	LWWL	492	1	blank2r.bmp	572	2	träumen	866	1	!	1239	1	!	1252	0	0	0	0	0	0	0	0	0	0	0	0	0	0	0	0	0	0	0	0	0	0	0	0	0	0	0	0	0	0
071719	11:56:32	12:01:31	296999	5.0.10.0	5_exp_RW	63	Rpleas_acq	CS_A	JQQJ	LWWL	DXXD	YFFY	ZHHZ	CPPC	vertrauen	küssen	gütig	sonnig	träumen	genießen	versagen	krank	gierig	sterben	töten	gemein	1	acq_USpleas_CSpleas1_RW	acq4567_RW	4	25	400	1	300	300	412	50	0	1	1	blank2r.bmp	0	1	+	0	1	blank2r.bmp	492	1	JQQJ	492	1	blank2r.bmp	572	2	küssen	866	1	!	1239	1	!	1319	0	0	0	0	0	0	0	0	0	0	0	0	0	0	0	0	0	0	0	0	0	0	0	0	0	0	0	0	0	0
071719	11:56:32	12:01:33	299225	5.0.10.0	5_exp_RW	63	Rpleas_acq	CS_A	JQQJ	LWWL	DXXD	YFFY	ZHHZ	CPPC	vertrauen	küssen	gütig	sonnig	träumen	genießen	versagen	krank	gierig	sterben	töten	gemein	1	acq_USpleas_CSpleas2_RW	acq4567_RW	4	26	400	1	300	300	436	50	0	1	1	blank2r.bmp	0	1	+	0	1	blank2r.bmp	492	1	LWWL	492	1	blank2r.bmp	572	3	genießen	866	1	!	1239	1	!	1332	0	0	0	0	0	0	0	0	0	0	0	0	0	0	0	0	0	0	0	0	0	0	0	0	0	0	0	0	0	0
071719	11:56:32	12:01:35	301451	5.0.10.0	5_exp_RW	63	Rpleas_acq	CS_A	JQQJ	LWWL	DXXD	YFFY	ZHHZ	CPPC	vertrauen	küssen	gütig	sonnig	träumen	genießen	versagen	krank	gierig	sterben	töten	gemein	1	acq_USpleas_CSpleas1_RW	acq4567_RW	4	27	400	1	300	300	432	46	0	0	1	blank2r.bmp	0	1	+	0	1	blank2r.bmp	492	1	JQQJ	492	1	blank2r.bmp	572	1	vertrauen	866	1	!	1239	1	!	1332	0	0	0	0	0	0	0	0	0	0	0	0	0	0	0	0	0	0	0	0	0	0	0	0	0	0	0	0	0	0
071719	11:56:32	12:01:37	303716	5.0.10.0	5_exp_RW	63	Rpleas_acq	CS_A	JQQJ	LWWL	DXXD	YFFY	ZHHZ	CPPC	vertrauen	küssen	gütig	sonnig	träumen	genießen	versagen	krank	gierig	sterben	töten	gemein	1	acq_USunple_CSunple1_RW	acq4567_RW	4	28	400	0	300	300	492	50	0	0	1	blank2r.bmp	0	1	+	0	1	blank2r.bmp	492	1	DXXD	492	1	blank2r.bmp	572	3	gierig	866	1	!	1239	1	!	-1	0	0	0	0	0	0	0	0	0	0	0	0	0	0	0	0	0	0	0	0	0	0	0	0	0	0	0	0	0	0
071719	11:56:32	12:01:40	305955	5.0.10.0	5_exp_RW	63	Rpleas_acq	CS_A	JQQJ	LWWL	DXXD	YFFY	ZHHZ	CPPC	vertrauen	küssen	gütig	sonnig	träumen	genießen	versagen	krank	gierig	sterben	töten	gemein	1	acq_USunple_CSunple2_RW	acq4567_RW	4	29	400	1	300	300	430	46	0	1	1	blank2r.bmp	0	1	+	0	1	blank2r.bmp	492	1	YFFY	492	1	blank2r.bmp	572	3	gemein	866	1	!	1239	1	!	1332	0	0	0	0	0	0	0	0	0	0	0	0	0	0	0	0	0	0	0	0	0	0	0	0	0	0	0	0	0	0
071719	11:56:32	12:01:42	308168	5.0.10.0	5_exp_RW	63	Rpleas_acq	CS_A	JQQJ	LWWL	DXXD	YFFY	ZHHZ	CPPC	vertrauen	küssen	gütig	sonnig	träumen	genießen	versagen	krank	gierig	sterben	töten	gemein	1	acq_USunple_CSunple2_RW	acq4567_RW	4	30	400	1	300	300	418	46	0	1	1	blank2r.bmp	0	1	+	0	1	blank2r.bmp	492	1	YFFY	492	1	blank2r.bmp	572	1	sterben	866	1	!	1239	1	!	1319	0	0	0	0	0	0	0	0	0	0	0	0	0	0	0	0	0	0	0	0	0	0	0	0	0	0	0	0	0	0
071719	11:56:32	12:01:44	310367	5.0.10.0	5_exp_RW	63	Rpleas_acq	CS_A	JQQJ	LWWL	DXXD	YFFY	ZHHZ	CPPC	vertrauen	küssen	gütig	sonnig	träumen	genießen	versagen	krank	gierig	sterben	töten	gemein	1	acq_USpleas_CSpleas2_RW	acq4567_RW	4	31	400	1	300	300	405	50	0	1	1	blank2r.bmp	0	1	+	0	1	blank2r.bmp	492	1	LWWL	492	1	blank2r.bmp	572	2	träumen	866	1	!	1239	1	!	1306	0	0	0	0	0	0	0	0	0	0	0	0	0	0	0	0	0	0	0	0	0	0	0	0	0	0	0	0	0	0
071719	11:56:32	12:01:46	312606	5.0.10.0	5_exp_RW	63	Rpleas_acq	CS_A	JQQJ	LWWL	DXXD	YFFY	ZHHZ	CPPC	vertrauen	küssen	gütig	sonnig	träumen	genießen	versagen	krank	gierig	sterben	töten	gemein	1	acq_USpleas_CSpleas1_RW	acq4567_RW	4	32	400	1	300	300	438	46	0	0	1	blank2r.bmp	0	1	+	0	1	blank2r.bmp	492	1	JQQJ	492	1	blank2r.bmp	572	1	vertrauen	866	1	!	1239	1	!	1346	0	0	0	0	0	0	0	0	0	0	0	0	0	0	0	0	0	0	0	0	0	0	0	0	0	0	0	0	0	0
071719	11:56:32	12:01:48	314858	5.0.10.0	5_exp_RW	63	Rpleas_acq	CS_A	JQQJ	LWWL	DXXD	YFFY	ZHHZ	CPPC	vertrauen	küssen	gütig	sonnig	träumen	genießen	versagen	krank	gierig	sterben	töten	gemein	1	acq_USpleas_CSpleas1_RW	acq4567_RW	4	33	400	1	300	300	458	50	0	1	1	blank2r.bmp	0	1	+	0	1	blank2r.bmp	492	1	JQQJ	492	1	blank2r.bmp	572	3	gütig	866	1	!	1239	1	!	1359	0	0	0	0	0	0	0	0	0	0	0	0	0	0	0	0	0	0	0	0	0	0	0	0	0	0	0	0	0	0
071719	11:56:32	12:01:51	317058	5.0.10.0	5_exp_RW	63	Rpleas_acq	CS_A	JQQJ	LWWL	DXXD	YFFY	ZHHZ	CPPC	vertrauen	küssen	gütig	sonnig	träumen	genießen	versagen	krank	gierig	sterben	töten	gemein	1	acq_USunple_CSunple1_RW	acq4567_RW	4	34	400	1	300	300	400	46	0	1	1	blank2r.bmp	0	1	+	0	1	blank2r.bmp	492	1	DXXD	492	1	blank2r.bmp	572	2	krank	866	1	!	1239	1	!	1306	0	0	0	0	0	0	0	0	0	0	0	0	0	0	0	0	0	0	0	0	0	0	0	0	0	0	0	0	0	0
071719	11:56:32	12:01:53	319243	5.0.10.0	5_exp_RW	63	Rpleas_acq	CS_A	JQQJ	LWWL	DXXD	YFFY	ZHHZ	CPPC	vertrauen	küssen	gütig	sonnig	träumen	genießen	versagen	krank	gierig	sterben	töten	gemein	1	acq_USunple_CSunple2_RW	acq4567_RW	4	35	400	1	300	300	389	46	0	1	1	blank2r.bmp	0	1	+	0	1	blank2r.bmp	492	1	YFFY	492	1	blank2r.bmp	572	2	töten	866	1	!	1239	1	!	1292	0	0	0	0	0	0	0	0	0	0	0	0	0	0	0	0	0	0	0	0	0	0	0	0	0	0	0	0	0	0
071719	11:56:32	12:01:55	321496	5.0.10.0	5_exp_RW	63	Rpleas_acq	CS_A	JQQJ	LWWL	DXXD	YFFY	ZHHZ	CPPC	vertrauen	küssen	gütig	sonnig	träumen	genießen	versagen	krank	gierig	sterben	töten	gemein	1	acq_USunple_CSunple2_RW	acq4567_RW	4	36	400	0	300	300	492	50	0	0	1	blank2r.bmp	0	1	+	0	1	blank2r.bmp	492	1	YFFY	492	1	blank2r.bmp	572	3	gemein	866	1	!	1239	1	!	-1	0	0	0	0	0	0	0	0	0	0	0	0	0	0	0	0	0	0	0	0	0	0	0	0	0	0	0	0	0	0
071719	11:56:32	12:01:57	323722	5.0.10.0	5_exp_RW	63	Rpleas_acq	CS_A	JQQJ	LWWL	DXXD	YFFY	ZHHZ	CPPC	vertrauen	küssen	gütig	sonnig	träumen	genießen	versagen	krank	gierig	sterben	töten	gemein	1	acq_USunple_CSunple1_RW	acq4567_RW	4	37	400	1	300	300	405	46	0	1	1	blank2r.bmp	0	1	+	0	1	blank2r.bmp	492	1	DXXD	492	1	blank2r.bmp	572	1	versagen	866	1	!	1239	1	!	1306	0	0	0	0	0	0	0	0	0	0	0	0	0	0	0	0	0	0	0	0	0	0	0	0	0	0	0	0	0	0
071719	11:56:32	12:02:00	325974	5.0.10.0	5_exp_RW	63	Rpleas_acq	CS_A	JQQJ	LWWL	DXXD	YFFY	ZHHZ	CPPC	vertrauen	küssen	gütig	sonnig	träumen	genießen	versagen	krank	gierig	sterben	töten	gemein	1	acq_USpleas_CSpleas2_RW	acq4567_RW	4	38	400	0	300	300	479	50	0	1	1	blank2r.bmp	0	1	+	0	1	blank2r.bmp	492	1	LWWL	492	1	blank2r.bmp	572	1	sonnig	866	1	!	1239	1	!	-1	0	0	0	0	0	0	0	0	0	0	0	0	0	0	0	0	0	0	0	0	0	0	0	0	0	0	0	0	0	0
071719	11:56:32	12:02:02	328146	5.0.10.0	5_exp_RW	63	Rpleas_acq	CS_A	JQQJ	LWWL	DXXD	YFFY	ZHHZ	CPPC	vertrauen	küssen	gütig	sonnig	träumen	genießen	versagen	krank	gierig	sterben	töten	gemein	1	acq_USunple_CSunple1_RW	acq4567_RW	4	39	400	1	300	300	346	46	0	1	1	blank2r.bmp	0	1	+	0	1	blank2r.bmp	492	1	DXXD	492	1	blank2r.bmp	572	3	gierig	866	1	!	1239	1	!	1252	0	0	0	0	0	0	0	0	0	0	0	0	0	0	0	0	0	0	0	0	0	0	0	0	0	0	0	0	0	0
071719	11:56:32	12:02:04	330359	5.0.10.0	5_exp_RW	63	Rpleas_acq	CS_A	JQQJ	LWWL	DXXD	YFFY	ZHHZ	CPPC	vertrauen	küssen	gütig	sonnig	träumen	genießen	versagen	krank	gierig	sterben	töten	gemein	1	acq_USunple_CSunple2_RW	acq4567_RW	4	40	400	1	300	300	412	46	0	1	1	blank2r.bmp	0	1	+	0	1	blank2r.bmp	492	1	YFFY	492	1	blank2r.bmp	572	1	sterben	866	1	!	1239	1	!	1319	0	0	0	0	0	0	0	0	0	0	0	0	0	0	0	0	0	0	0	0	0	0	0	0	0	0	0	0	0	0
071719	11:56:32	12:02:06	332531	5.0.10.0	5_exp_RW	63	Rpleas_acq	CS_A	JQQJ	LWWL	DXXD	YFFY	ZHHZ	CPPC	vertrauen	küssen	gütig	sonnig	träumen	genießen	versagen	krank	gierig	sterben	töten	gemein	1	acq_USpleas_CSpleas2_RW	acq4567_RW	4	41	400	1	300	300	381	46	0	0	1	blank2r.bmp	0	1	+	0	1	blank2r.bmp	492	1	LWWL	492	1	blank2r.bmp	572	3	genießen	866	1	!	1239	1	!	1279	0	0	0	0	0	0	0	0	0	0	0	0	0	0	0	0	0	0	0	0	0	0	0	0	0	0	0	0	0	0
071719	11:56:32	12:02:08	334730	5.0.10.0	5_exp_RW	63	Rpleas_acq	CS_A	JQQJ	LWWL	DXXD	YFFY	ZHHZ	CPPC	vertrauen	küssen	gütig	sonnig	träumen	genießen	versagen	krank	gierig	sterben	töten	gemein	1	acq_USpleas_CSpleas2_RW	acq4567_RW	4	42	400	1	300	300	407	46	0	0	1	blank2r.bmp	0	1	+	0	1	blank2r.bmp	492	1	LWWL	492	1	blank2r.bmp	572	3	genießen	866	1	!	1239	1	!	1306	0	0	0	0	0	0	0	0	0	0	0	0	0	0	0	0	0	0	0	0	0	0	0	0	0	0	0	0	0	0
071719	11:56:32	12:02:10	336876	5.0.10.0	5_exp_RW	63	Rpleas_acq	CS_A	JQQJ	LWWL	DXXD	YFFY	ZHHZ	CPPC	vertrauen	küssen	gütig	sonnig	träumen	genießen	versagen	krank	gierig	sterben	töten	gemein	1	acq_USpleas_CSpleas1_RW	acq4567_RW	4	43	400	1	300	300	358	50	0	1	1	blank2r.bmp	0	1	+	0	1	blank2r.bmp	492	1	JQQJ	492	1	blank2r.bmp	572	2	küssen	866	1	!	1239	1	!	1252	0	0	0	0	0	0	0	0	0	0	0	0	0	0	0	0	0	0	0	0	0	0	0	0	0	0	0	0	0	0
071719	11:56:32	12:02:13	339115	5.0.10.0	5_exp_RW	63	Rpleas_acq	CS_A	JQQJ	LWWL	DXXD	YFFY	ZHHZ	CPPC	vertrauen	küssen	gütig	sonnig	träumen	genießen	versagen	krank	gierig	sterben	töten	gemein	1	acq_USpleas_CSpleas1_RW	acq4567_RW	4	44	400	1	300	300	425	50	0	1	1	blank2r.bmp	0	1	+	0	1	blank2r.bmp	492	1	JQQJ	492	1	blank2r.bmp	572	2	küssen	866	1	!	1239	1	!	1332	0	0	0	0	0	0	0	0	0	0	0	0	0	0	0	0	0	0	0	0	0	0	0	0	0	0	0	0	0	0
071719	11:56:32	12:02:15	341261	5.0.10.0	5_exp_RW	63	Rpleas_acq	CS_A	JQQJ	LWWL	DXXD	YFFY	ZHHZ	CPPC	vertrauen	küssen	gütig	sonnig	träumen	genießen	versagen	krank	gierig	sterben	töten	gemein	1	acq_USpleas_CSpleas2_RW	acq4567_RW	4	45	400	1	300	300	354	50	0	1	1	blank2r.bmp	0	1	+	0	1	blank2r.bmp	492	1	LWWL	492	1	blank2r.bmp	572	1	sonnig	866	1	!	1239	1	!	1252	0	0	0	0	0	0	0	0	0	0	0	0	0	0	0	0	0	0	0	0	0	0	0	0	0	0	0	0	0	0
071719	11:56:32	12:02:17	343340	5.0.10.0	5_exp_RW	63	Rpleas_acq	CS_A	JQQJ	LWWL	DXXD	YFFY	ZHHZ	CPPC	vertrauen	küssen	gütig	sonnig	träumen	genießen	versagen	krank	gierig	sterben	töten	gemein	1	acq_USunple_CSunple1_RW	acq4567_RW	4	46	400	0	300	300	317	46	0	1	1	blank2r.bmp	0	1	+	0	1	blank2r.bmp	492	1	DXXD	492	1	blank2r.bmp	572	2	krank	866	1	!	-1	1	!	-1	0	0	0	0	0	0	0	0	0	0	0	0	0	0	0	0	0	0	0	0	0	0	0	0	0	0	0	0	0	0
071719	11:56:32	12:02:19	345606	5.0.10.0	5_exp_RW	63	Rpleas_acq	CS_A	JQQJ	LWWL	DXXD	YFFY	ZHHZ	CPPC	vertrauen	küssen	gütig	sonnig	träumen	genießen	versagen	krank	gierig	sterben	töten	gemein	1	acq_USunple_CSunple2_RW	acq4567_RW	4	47	400	0	300	300	489	46	0	1	1	blank2r.bmp	0	1	+	0	1	blank2r.bmp	492	1	YFFY	492	1	blank2r.bmp	572	2	töten	866	1	!	1239	1	!	-1	0	0	0	0	0	0	0	0	0	0	0	0	0	0	0	0	0	0	0	0	0	0	0	0	0	0	0	0	0	0
071719	11:56:32	12:02:21	347818	5.0.10.0	5_exp_RW	63	Rpleas_acq	CS_A	JQQJ	LWWL	DXXD	YFFY	ZHHZ	CPPC	vertrauen	küssen	gütig	sonnig	träumen	genießen	versagen	krank	gierig	sterben	töten	gemein	1	acq_USunple_CSunple1_RW	acq4567_RW	4	48	400	1	300	300	401	46	0	1	1	blank2r.bmp	0	1	+	0	1	blank2r.bmp	492	1	DXXD	492	1	blank2r.bmp	572	3	gierig	866	1	!	1239	1	!	1306	0	0	0	0	0	0	0	0	0	0	0	0	0	0	0	0	0	0	0	0	0	0	0	0	0	0	0	0	0	0
071719	11:56:32	12:02:24	350071	5.0.10.0	5_exp_RW	63	Rpleas_acq	CS_A	JQQJ	LWWL	DXXD	YFFY	ZHHZ	CPPC	vertrauen	küssen	gütig	sonnig	träumen	genießen	versagen	krank	gierig	sterben	töten	gemein	1	acq_USpleas_CSpleas2_RW	acq4567_RW	4	49	400	1	300	300	453	50	0	1	1	blank2r.bmp	0	1	+	0	1	blank2r.bmp	492	1	LWWL	492	1	blank2r.bmp	572	2	träumen	866	1	!	1239	1	!	1359	0	0	0	0	0	0	0	0	0	0	0	0	0	0	0	0	0	0	0	0	0	0	0	0	0	0	0	0	0	0
071719	11:56:32	12:02:26	352217	5.0.10.0	5_exp_RW	63	Rpleas_acq	CS_A	JQQJ	LWWL	DXXD	YFFY	ZHHZ	CPPC	vertrauen	küssen	gütig	sonnig	träumen	genießen	versagen	krank	gierig	sterben	töten	gemein	1	acq_USunple_CSunple2_RW	acq4567_RW	4	50	400	1	300	300	349	46	0	1	1	blank2r.bmp	0	1	+	0	1	blank2r.bmp	492	1	YFFY	492	1	blank2r.bmp	572	1	sterben	866	1	!	1239	1	!	1252	0	0	0	0	0	0	0	0	0	0	0	0	0	0	0	0	0	0	0	0	0	0	0	0	0	0	0	0	0	0
071719	11:56:32	12:02:28	354429	5.0.10.0	5_exp_RW	63	Rpleas_acq	CS_A	JQQJ	LWWL	DXXD	YFFY	ZHHZ	CPPC	vertrauen	küssen	gütig	sonnig	träumen	genießen	versagen	krank	gierig	sterben	töten	gemein	1	acq_USpleas_CSpleas1_RW	acq4567_RW	4	51	400	1	300	300	421	50	0	1	1	blank2r.bmp	0	1	+	0	1	blank2r.bmp	492	1	JQQJ	492	1	blank2r.bmp	572	1	vertrauen	866	1	!	1239	1	!	1319	0	0	0	0	0	0	0	0	0	0	0	0	0	0	0	0	0	0	0	0	0	0	0	0	0	0	0	0	0	0
071719	11:56:32	12:02:30	356615	5.0.10.0	5_exp_RW	63	Rpleas_acq	CS_A	JQQJ	LWWL	DXXD	YFFY	ZHHZ	CPPC	vertrauen	küssen	gütig	sonnig	träumen	genießen	versagen	krank	gierig	sterben	töten	gemein	1	acq_USunple_CSunple1_RW	acq4567_RW	4	52	400	1	300	300	393	46	0	1	1	blank2r.bmp	0	1	+	0	1	blank2r.bmp	492	1	DXXD	492	1	blank2r.bmp	572	2	krank	866	1	!	1239	1	!	1292	0	0	0	0	0	0	0	0	0	0	0	0	0	0	0	0	0	0	0	0	0	0	0	0	0	0	0	0	0	0
071719	11:56:32	12:02:32	358894	5.0.10.0	5_exp_RW	63	Rpleas_acq	CS_A	JQQJ	LWWL	DXXD	YFFY	ZHHZ	CPPC	vertrauen	küssen	gütig	sonnig	träumen	genießen	versagen	krank	gierig	sterben	töten	gemein	1	acq_USunple_CSunple1_RW	acq4567_RW	4	53	400	0	300	300	512	46	0	1	1	blank2r.bmp	0	1	+	0	1	blank2r.bmp	492	1	DXXD	492	1	blank2r.bmp	572	1	versagen	866	1	!	1239	1	!	-1	0	0	0	0	0	0	0	0	0	0	0	0	0	0	0	0	0	0	0	0	0	0	0	0	0	0	0	0	0	0
071719	11:56:32	12:02:35	361053	5.0.10.0	5_exp_RW	63	Rpleas_acq	CS_A	JQQJ	LWWL	DXXD	YFFY	ZHHZ	CPPC	vertrauen	küssen	gütig	sonnig	träumen	genießen	versagen	krank	gierig	sterben	töten	gemein	1	acq_USunple_CSunple2_RW	acq4567_RW	4	54	400	1	300	300	353	46	0	1	1	blank2r.bmp	0	1	+	0	1	blank2r.bmp	492	1	YFFY	492	1	blank2r.bmp	572	2	töten	866	1	!	1239	1	!	1252	0	0	0	0	0	0	0	0	0	0	0	0	0	0	0	0	0	0	0	0	0	0	0	0	0	0	0	0	0	0
071719	11:56:32	12:02:37	363279	5.0.10.0	5_exp_RW	63	Rpleas_acq	CS_A	JQQJ	LWWL	DXXD	YFFY	ZHHZ	CPPC	vertrauen	küssen	gütig	sonnig	träumen	genießen	versagen	krank	gierig	sterben	töten	gemein	1	acq_USunple_CSunple2_RW	acq4567_RW	4	55	400	1	300	300	430	46	0	1	1	blank2r.bmp	0	1	+	0	1	blank2r.bmp	492	1	YFFY	492	1	blank2r.bmp	572	3	gemein	866	1	!	1239	1	!	1332	0	0	0	0	0	0	0	0	0	0	0	0	0	0	0	0	0	0	0	0	0	0	0	0	0	0	0	0	0	0
071719	11:56:32	12:02:39	365425	5.0.10.0	5_exp_RW	63	Rpleas_acq	CS_A	JQQJ	LWWL	DXXD	YFFY	ZHHZ	CPPC	vertrauen	küssen	gütig	sonnig	träumen	genießen	versagen	krank	gierig	sterben	töten	gemein	1	acq_USunple_CSunple1_RW	acq4567_RW	4	56	400	1	300	300	348	46	0	1	1	blank2r.bmp	0	1	+	0	1	blank2r.bmp	492	1	DXXD	492	1	blank2r.bmp	572	2	krank	866	1	!	1239	1	!	1252	0	0	0	0	0	0	0	0	0	0	0	0	0	0	0	0	0	0	0	0	0	0	0	0	0	0	0	0	0	0
071719	11:56:32	12:02:41	367677	5.0.10.0	5_exp_RW	63	Rpleas_acq	CS_A	JQQJ	LWWL	DXXD	YFFY	ZHHZ	CPPC	vertrauen	küssen	gütig	sonnig	träumen	genießen	versagen	krank	gierig	sterben	töten	gemein	1	acq_USpleas_CSpleas2_RW	acq4567_RW	4	57	400	1	300	300	440	50	0	1	1	blank2r.bmp	0	1	+	0	1	blank2r.bmp	492	1	LWWL	492	1	blank2r.bmp	572	1	sonnig	866	1	!	1239	1	!	1346	0	0	0	0	0	0	0	0	0	0	0	0	0	0	0	0	0	0	0	0	0	0	0	0	0	0	0	0	0	0
071719	11:56:32	12:02:43	369916	5.0.10.0	5_exp_RW	63	Rpleas_acq	CS_A	JQQJ	LWWL	DXXD	YFFY	ZHHZ	CPPC	vertrauen	küssen	gütig	sonnig	träumen	genießen	versagen	krank	gierig	sterben	töten	gemein	1	acq_USunple_CSunple2_RW	acq4567_RW	4	58	400	1	300	300	440	46	0	1	1	blank2r.bmp	0	1	+	0	1	blank2r.bmp	492	1	YFFY	492	1	blank2r.bmp	572	2	töten	866	1	!	1239	1	!	1346	0	0	0	0	0	0	0	0	0	0	0	0	0	0	0	0	0	0	0	0	0	0	0	0	0	0	0	0	0	0
071719	11:56:32	12:02:46	372129	5.0.10.0	5_exp_RW	63	Rpleas_acq	CS_A	JQQJ	LWWL	DXXD	YFFY	ZHHZ	CPPC	vertrauen	küssen	gütig	sonnig	träumen	genießen	versagen	krank	gierig	sterben	töten	gemein	1	acq_USpleas_CSpleas1_RW	acq4567_RW	4	59	400	1	300	300	409	46	0	0	1	blank2r.bmp	0	1	+	0	1	blank2r.bmp	492	1	JQQJ	492	1	blank2r.bmp	572	3	gütig	866	1	!	1239	1	!	1306	0	0	0	0	0	0	0	0	0	0	0	0	0	0	0	0	0	0	0	0	0	0	0	0	0	0	0	0	0	0
071719	11:56:32	12:02:48	374328	5.0.10.0	5_exp_RW	63	Rpleas_acq	CS_A	JQQJ	LWWL	DXXD	YFFY	ZHHZ	CPPC	vertrauen	küssen	gütig	sonnig	träumen	genießen	versagen	krank	gierig	sterben	töten	gemein	1	acq_USpleas_CSpleas1_RW	acq4567_RW	4	60	400	1	300	300	400	46	0	0	1	blank2r.bmp	0	1	+	0	1	blank2r.bmp	492	1	JQQJ	492	1	blank2r.bmp	572	1	vertrauen	866	1	!	1239	1	!	1306	0	0	0	0	0	0	0	0	0	0	0	0	0	0	0	0	0	0	0	0	0	0	0	0	0	0	0	0	0	0
071719	11:56:32	12:02:50	376540	5.0.10.0	5_exp_RW	63	Rpleas_acq	CS_A	JQQJ	LWWL	DXXD	YFFY	ZHHZ	CPPC	vertrauen	küssen	gütig	sonnig	träumen	genießen	versagen	krank	gierig	sterben	töten	gemein	1	acq_USunple_CSunple2_RW	acq4567_RW	4	61	400	1	300	300	416	46	0	1	1	blank2r.bmp	0	1	+	0	1	blank2r.bmp	492	1	YFFY	492	1	blank2r.bmp	572	3	gemein	866	1	!	1239	1	!	1319	0	0	0	0	0	0	0	0	0	0	0	0	0	0	0	0	0	0	0	0	0	0	0	0	0	0	0	0	0	0
071719	11:56:32	12:02:52	378779	5.0.10.0	5_exp_RW	63	Rpleas_acq	CS_A	JQQJ	LWWL	DXXD	YFFY	ZHHZ	CPPC	vertrauen	küssen	gütig	sonnig	träumen	genießen	versagen	krank	gierig	sterben	töten	gemein	1	acq_USpleas_CSpleas2_RW	acq4567_RW	4	62	400	1	300	300	449	46	0	0	1	blank2r.bmp	0	1	+	0	1	blank2r.bmp	492	1	LWWL	492	1	blank2r.bmp	572	3	genießen	866	1	!	1239	1	!	1346	0	0	0	0	0	0	0	0	0	0	0	0	0	0	0	0	0	0	0	0	0	0	0	0	0	0	0	0	0	0
071719	11:56:32	12:02:55	381032	5.0.10.0	5_exp_RW	63	Rpleas_acq	CS_A	JQQJ	LWWL	DXXD	YFFY	ZHHZ	CPPC	vertrauen	küssen	gütig	sonnig	träumen	genießen	versagen	krank	gierig	sterben	töten	gemein	1	acq_USpleas_CSpleas1_RW	acq4567_RW	4	63	400	0	300	300	491	50	0	1	1	blank2r.bmp	0	1	+	0	1	blank2r.bmp	492	1	JQQJ	492	1	blank2r.bmp	572	3	gütig	866	1	!	1239	1	!	-1	0	0	0	0	0	0	0	0	0	0	0	0	0	0	0	0	0	0	0	0	0	0	0	0	0	0	0	0	0	0
071719	11:56:32	12:02:57	383204	5.0.10.0	5_exp_RW	63	Rpleas_acq	CS_A	JQQJ	LWWL	DXXD	YFFY	ZHHZ	CPPC	vertrauen	küssen	gütig	sonnig	träumen	genießen	versagen	krank	gierig	sterben	töten	gemein	1	acq_USpleas_CSpleas1_RW	acq4567_RW	4	64	400	1	300	300	371	50	0	1	1	blank2r.bmp	0	1	+	0	1	blank2r.bmp	492	1	JQQJ	492	1	blank2r.bmp	572	2	küssen	866	1	!	1239	1	!	1266	0	0	0	0	0	0	0	0	0	0	0	0	0	0	0	0	0	0	0	0	0	0	0	0	0	0	0	0	0	0
071719	11:56:32	12:02:59	385443	5.0.10.0	5_exp_RW	63	Rpleas_acq	CS_A	JQQJ	LWWL	DXXD	YFFY	ZHHZ	CPPC	vertrauen	küssen	gütig	sonnig	träumen	genießen	versagen	krank	gierig	sterben	töten	gemein	1	acq_USunple_CSunple1_RW	acq4567_RW	4	65	400	1	300	300	449	46	0	1	1	blank2r.bmp	0	1	+	0	1	blank2r.bmp	492	1	DXXD	492	1	blank2r.bmp	572	3	gierig	866	1	!	1239	1	!	1346	0	0	0	0	0	0	0	0	0	0	0	0	0	0	0	0	0	0	0	0	0	0	0	0	0	0	0	0	0	0
071719	11:56:32	12:03:01	387656	5.0.10.0	5_exp_RW	63	Rpleas_acq	CS_A	JQQJ	LWWL	DXXD	YFFY	ZHHZ	CPPC	vertrauen	küssen	gütig	sonnig	träumen	genießen	versagen	krank	gierig	sterben	töten	gemein	1	acq_USpleas_CSpleas2_RW	acq4567_RW	4	66	400	1	300	300	413	50	0	1	1	blank2r.bmp	0	1	+	0	1	blank2r.bmp	492	1	LWWL	492	1	blank2r.bmp	572	2	träumen	866	1	!	1239	1	!	1319	0	0	0	0	0	0	0	0	0	0	0	0	0	0	0	0	0	0	0	0	0	0	0	0	0	0	0	0	0	0
071719	11:56:32	12:03:03	389895	5.0.10.0	5_exp_RW	63	Rpleas_acq	CS_A	JQQJ	LWWL	DXXD	YFFY	ZHHZ	CPPC	vertrauen	küssen	gütig	sonnig	träumen	genießen	versagen	krank	gierig	sterben	töten	gemein	1	acq_USpleas_CSpleas2_RW	acq4567_RW	4	67	400	1	300	300	449	50	0	1	1	blank2r.bmp	0	1	+	0	1	blank2r.bmp	492	1	LWWL	492	1	blank2r.bmp	572	2	träumen	866	1	!	1239	1	!	1346	0	0	0	0	0	0	0	0	0	0	0	0	0	0	0	0	0	0	0	0	0	0	0	0	0	0	0	0	0	0
071719	11:56:32	12:03:06	392054	5.0.10.0	5_exp_RW	63	Rpleas_acq	CS_A	JQQJ	LWWL	DXXD	YFFY	ZHHZ	CPPC	vertrauen	küssen	gütig	sonnig	träumen	genießen	versagen	krank	gierig	sterben	töten	gemein	1	acq_USunple_CSunple2_RW	acq4567_RW	4	68	400	1	300	300	363	46	0	1	1	blank2r.bmp	0	1	+	0	1	blank2r.bmp	492	1	YFFY	492	1	blank2r.bmp	572	1	sterben	866	1	!	1239	1	!	1266	0	0	0	0	0	0	0	0	0	0	0	0	0	0	0	0	0	0	0	0	0	0	0	0	0	0	0	0	0	0
071719	11:56:32	12:03:08	394306	5.0.10.0	5_exp_RW	63	Rpleas_acq	CS_A	JQQJ	LWWL	DXXD	YFFY	ZHHZ	CPPC	vertrauen	küssen	gütig	sonnig	träumen	genießen	versagen	krank	gierig	sterben	töten	gemein	1	acq_USpleas_CSpleas2_RW	acq4567_RW	4	69	400	1	300	300	443	50	0	1	1	blank2r.bmp	0	1	+	0	1	blank2r.bmp	492	1	LWWL	492	1	blank2r.bmp	572	1	sonnig	866	1	!	1239	1	!	1346	0	0	0	0	0	0	0	0	0	0	0	0	0	0	0	0	0	0	0	0	0	0	0	0	0	0	0	0	0	0
071719	11:56:32	12:03:10	396479	5.0.10.0	5_exp_RW	63	Rpleas_acq	CS_A	JQQJ	LWWL	DXXD	YFFY	ZHHZ	CPPC	vertrauen	küssen	gütig	sonnig	träumen	genießen	versagen	krank	gierig	sterben	töten	gemein	1	acq_USunple_CSunple1_RW	acq4567_RW	4	70	400	1	300	300	373	46	0	1	1	blank2r.bmp	0	1	+	0	1	blank2r.bmp	492	1	DXXD	492	1	blank2r.bmp	572	1	versagen	866	1	!	1239	1	!	1279	0	0	0	0	0	0	0	0	0	0	0	0	0	0	0	0	0	0	0	0	0	0	0	0	0	0	0	0	0	0
071719	11:56:32	12:03:12	398745	5.0.10.0	5_exp_RW	63	Rpleas_acq	CS_A	JQQJ	LWWL	DXXD	YFFY	ZHHZ	CPPC	vertrauen	küssen	gütig	sonnig	träumen	genießen	versagen	krank	gierig	sterben	töten	gemein	1	acq_USunple_CSunple2_RW	acq4567_RW	4	71	400	1	300	300	466	46	0	1	1	blank2r.bmp	0	1	+	0	1	blank2r.bmp	492	1	YFFY	492	1	blank2r.bmp	572	3	gemein	866	1	!	1239	1	!	1372	0	0	0	0	0	0	0	0	0	0	0	0	0	0	0	0	0	0	0	0	0	0	0	0	0	0	0	0	0	0
071719	11:56:32	12:03:15	400970	5.0.10.0	5_exp_RW	63	Rpleas_acq	CS_A	JQQJ	LWWL	DXXD	YFFY	ZHHZ	CPPC	vertrauen	küssen	gütig	sonnig	träumen	genießen	versagen	krank	gierig	sterben	töten	gemein	1	acq_USpleas_CSpleas1_RW	acq4567_RW	4	72	400	1	300	300	425	50	0	1	1	blank2r.bmp	0	1	+	0	1	blank2r.bmp	492	1	JQQJ	492	1	blank2r.bmp	572	2	küssen	866	1	!	1239	1	!	1319	0	0	0	0	0	0	0	0	0	0	0	0	0	0	0	0	0	0	0	0	0	0	0	0	0	0	0	0	0	0
071719	11:56:32	12:03:17	403129	5.0.10.0	5_exp_RW	63	Rpleas_acq	CS_A	JQQJ	LWWL	DXXD	YFFY	ZHHZ	CPPC	vertrauen	küssen	gütig	sonnig	träumen	genießen	versagen	krank	gierig	sterben	töten	gemein	1	acq_USunple_CSunple2_RW	acq4567_RW	4	73	400	1	300	300	368	46	0	1	1	blank2r.bmp	0	1	+	0	1	blank2r.bmp	492	1	YFFY	492	1	blank2r.bmp	572	2	töten	866	1	!	1239	1	!	1266	0	0	0	0	0	0	0	0	0	0	0	0	0	0	0	0	0	0	0	0	0	0	0	0	0	0	0	0	0	0
071719	11:56:32	12:03:19	405395	5.0.10.0	5_exp_RW	63	Rpleas_acq	CS_A	JQQJ	LWWL	DXXD	YFFY	ZHHZ	CPPC	vertrauen	küssen	gütig	sonnig	träumen	genießen	versagen	krank	gierig	sterben	töten	gemein	1	acq_USpleas_CSpleas2_RW	acq4567_RW	4	74	400	1	300	300	462	50	0	1	1	blank2r.bmp	0	1	+	0	1	blank2r.bmp	492	1	LWWL	492	1	blank2r.bmp	572	3	genießen	866	1	!	1239	1	!	1359	0	0	0	0	0	0	0	0	0	0	0	0	0	0	0	0	0	0	0	0	0	0	0	0	0	0	0	0	0	0
071719	11:56:32	12:03:21	407581	5.0.10.0	5_exp_RW	63	Rpleas_acq	CS_A	JQQJ	LWWL	DXXD	YFFY	ZHHZ	CPPC	vertrauen	küssen	gütig	sonnig	träumen	genießen	versagen	krank	gierig	sterben	töten	gemein	1	acq_USunple_CSunple1_RW	acq4567_RW	4	75	400	1	300	300	387	46	0	1	1	blank2r.bmp	0	1	+	0	1	blank2r.bmp	492	1	DXXD	492	1	blank2r.bmp	572	3	gierig	866	1	!	1239	1	!	1292	0	0	0	0	0	0	0	0	0	0	0	0	0	0	0	0	0	0	0	0	0	0	0	0	0	0	0	0	0	0
071719	11:56:32	12:03:23	409740	5.0.10.0	5_exp_RW	63	Rpleas_acq	CS_A	JQQJ	LWWL	DXXD	YFFY	ZHHZ	CPPC	vertrauen	küssen	gütig	sonnig	träumen	genießen	versagen	krank	gierig	sterben	töten	gemein	1	acq_USunple_CSunple2_RW	acq4567_RW	4	76	400	1	300	300	362	46	0	1	1	blank2r.bmp	0	1	+	0	1	blank2r.bmp	492	1	YFFY	492	1	blank2r.bmp	572	1	sterben	866	1	!	1239	1	!	1266	0	0	0	0	0	0	0	0	0	0	0	0	0	0	0	0	0	0	0	0	0	0	0	0	0	0	0	0	0	0
071719	11:56:32	12:03:25	411886	5.0.10.0	5_exp_RW	63	Rpleas_acq	CS_A	JQQJ	LWWL	DXXD	YFFY	ZHHZ	CPPC	vertrauen	küssen	gütig	sonnig	träumen	genießen	versagen	krank	gierig	sterben	töten	gemein	1	acq_USunple_CSunple1_RW	acq4567_RW	4	77	400	1	300	300	346	50	0	0	1	blank2r.bmp	0	1	+	0	1	blank2r.bmp	492	1	DXXD	492	1	blank2r.bmp	572	1	versagen	866	1	!	1239	1	!	1252	0	0	0	0	0	0	0	0	0	0	0	0	0	0	0	0	0	0	0	0	0	0	0	0	0	0	0	0	0	0
071719	11:56:32	12:03:28	414125	5.0.10.0	5_exp_RW	63	Rpleas_acq	CS_A	JQQJ	LWWL	DXXD	YFFY	ZHHZ	CPPC	vertrauen	küssen	gütig	sonnig	träumen	genießen	versagen	krank	gierig	sterben	töten	gemein	1	acq_USpleas_CSpleas1_RW	acq4567_RW	4	78	400	1	300	300	441	50	0	1	1	blank2r.bmp	0	1	+	0	1	blank2r.bmp	492	1	JQQJ	492	1	blank2r.bmp	572	3	gütig	866	1	!	1239	1	!	1346	0	0	0	0	0	0	0	0	0	0	0	0	0	0	0	0	0	0	0	0	0	0	0	0	0	0	0	0	0	0
071719	11:56:32	12:03:30	416191	5.0.10.0	5_exp_RW	63	Rpleas_acq	CS_A	JQQJ	LWWL	DXXD	YFFY	ZHHZ	CPPC	vertrauen	küssen	gütig	sonnig	träumen	genießen	versagen	krank	gierig	sterben	töten	gemein	1	acq_USpleas_CSpleas1_RW	acq4567_RW	4	79	400	0	300	300	281	46	0	0	1	blank2r.bmp	0	1	+	0	1	blank2r.bmp	492	1	JQQJ	492	1	blank2r.bmp	572	1	vertrauen	866	1	!	-1	1	!	-1	0	0	0	0	0	0	0	0	0	0	0	0	0	0	0	0	0	0	0	0	0	0	0	0	0	0	0	0	0	0
071719	11:56:32	12:03:32	418403	5.0.10.0	5_exp_RW	63	Rpleas_acq	CS_A	JQQJ	LWWL	DXXD	YFFY	ZHHZ	CPPC	vertrauen	küssen	gütig	sonnig	träumen	genießen	versagen	krank	gierig	sterben	töten	gemein	1	acq_USunple_CSunple1_RW	acq4567_RW	4	80	400	1	300	300	409	46	0	1	1	blank2r.bmp	0	1	+	0	1	blank2r.bmp	492	1	DXXD	492	1	blank2r.bmp	572	2	krank	866	1	!	1239	1	!	1306	0	0	0	0	0	0	0	0	0	0	0	0	0	0	0	0	0	0	0	0	0	0	0	0	0	0	0	0	0	0
071719	11:56:32	12:03:43	429905	5.0.10.0	5_exp_RW	63	Rpleas_acq	CS_A	JQQJ	LWWL	DXXD	YFFY	ZHHZ	CPPC	vertrauen	küssen	gütig	sonnig	träumen	genießen	versagen	krank	gierig	sterben	töten	gemein	1	acq_USunple_CSunple1_RW	acq4567_RW	5	1	400	1	300	300	442	46	0	1	1	blank2r.bmp	0	1	+	0	1	blank2r.bmp	492	1	DXXD	492	1	blank2r.bmp	572	2	krank	866	1	!	1239	1	!	1346	0	0	0	0	0	0	0	0	0	0	0	0	0	0	0	0	0	0	0	0	0	0	0	0	0	0	0	0	0	0
071719	11:56:32	12:03:46	432144	5.0.10.0	5_exp_RW	63	Rpleas_acq	CS_A	JQQJ	LWWL	DXXD	YFFY	ZHHZ	CPPC	vertrauen	küssen	gütig	sonnig	träumen	genießen	versagen	krank	gierig	sterben	töten	gemein	1	acq_USunple_CSunple1_RW	acq4567_RW	5	2	400	1	300	300	447	46	0	1	1	blank2r.bmp	0	1	+	0	1	blank2r.bmp	492	1	DXXD	492	1	blank2r.bmp	572	3	gierig	866	1	!	1239	1	!	1346	0	0	0	0	0	0	0	0	0	0	0	0	0	0	0	0	0	0	0	0	0	0	0	0	0	0	0	0	0	0
071719	11:56:32	12:03:48	434397	5.0.10.0	5_exp_RW	63	Rpleas_acq	CS_A	JQQJ	LWWL	DXXD	YFFY	ZHHZ	CPPC	vertrauen	küssen	gütig	sonnig	träumen	genießen	versagen	krank	gierig	sterben	töten	gemein	1	acq_USunple_CSunple2_RW	acq4567_RW	5	3	400	1	300	300	441	46	0	1	1	blank2r.bmp	0	1	+	0	1	blank2r.bmp	492	1	YFFY	492	1	blank2r.bmp	572	3	gemein	866	1	!	1239	1	!	1346	0	0	0	0	0	0	0	0	0	0	0	0	0	0	0	0	0	0	0	0	0	0	0	0	0	0	0	0	0	0
071719	11:56:32	12:03:50	436596	5.0.10.0	5_exp_RW	63	Rpleas_acq	CS_A	JQQJ	LWWL	DXXD	YFFY	ZHHZ	CPPC	vertrauen	küssen	gütig	sonnig	träumen	genießen	versagen	krank	gierig	sterben	töten	gemein	1	acq_USpleas_CSpleas1_RW	acq4567_RW	5	4	400	1	300	300	406	50	0	1	1	blank2r.bmp	0	1	+	0	1	blank2r.bmp	492	1	JQQJ	492	1	blank2r.bmp	572	2	küssen	866	1	!	1239	1	!	1306	0	0	0	0	0	0	0	0	0	0	0	0	0	0	0	0	0	0	0	0	0	0	0	0	0	0	0	0	0	0
071719	11:56:32	12:03:52	438795	5.0.10.0	5_exp_RW	63	Rpleas_acq	CS_A	JQQJ	LWWL	DXXD	YFFY	ZHHZ	CPPC	vertrauen	küssen	gütig	sonnig	träumen	genießen	versagen	krank	gierig	sterben	töten	gemein	1	acq_USpleas_CSpleas1_RW	acq4567_RW	5	5	400	1	300	300	409	50	0	1	1	blank2r.bmp	0	1	+	0	1	blank2r.bmp	492	1	JQQJ	492	1	blank2r.bmp	572	3	gütig	866	1	!	1239	1	!	1306	0	0	0	0	0	0	0	0	0	0	0	0	0	0	0	0	0	0	0	0	0	0	0	0	0	0	0	0	0	0
071719	11:56:32	12:03:54	440954	5.0.10.0	5_exp_RW	63	Rpleas_acq	CS_A	JQQJ	LWWL	DXXD	YFFY	ZHHZ	CPPC	vertrauen	küssen	gütig	sonnig	träumen	genießen	versagen	krank	gierig	sterben	töten	gemein	1	acq_USunple_CSunple2_RW	acq4567_RW	5	6	400	1	300	300	359	46	0	1	1	blank2r.bmp	0	1	+	0	1	blank2r.bmp	492	1	YFFY	492	1	blank2r.bmp	572	1	sterben	866	1	!	1239	1	!	1266	0	0	0	0	0	0	0	0	0	0	0	0	0	0	0	0	0	0	0	0	0	0	0	0	0	0	0	0	0	0
071719	11:56:32	12:03:57	443140	5.0.10.0	5_exp_RW	63	Rpleas_acq	CS_A	JQQJ	LWWL	DXXD	YFFY	ZHHZ	CPPC	vertrauen	küssen	gütig	sonnig	träumen	genießen	versagen	krank	gierig	sterben	töten	gemein	1	acq_USunple_CSunple1_RW	acq4567_RW	5	7	400	1	300	300	397	46	0	1	1	blank2r.bmp	0	1	+	0	1	blank2r.bmp	492	1	DXXD	492	1	blank2r.bmp	572	1	versagen	866	1	!	1239	1	!	1292	0	0	0	0	0	0	0	0	0	0	0	0	0	0	0	0	0	0	0	0	0	0	0	0	0	0	0	0	0	0
071719	11:56:32	12:03:59	445312	5.0.10.0	5_exp_RW	63	Rpleas_acq	CS_A	JQQJ	LWWL	DXXD	YFFY	ZHHZ	CPPC	vertrauen	küssen	gütig	sonnig	träumen	genießen	versagen	krank	gierig	sterben	töten	gemein	1	acq_USpleas_CSpleas2_RW	acq4567_RW	5	8	400	1	300	300	378	50	0	1	1	blank2r.bmp	0	1	+	0	1	blank2r.bmp	492	1	LWWL	492	1	blank2r.bmp	572	1	sonnig	866	1	!	1239	1	!	1279	0	0	0	0	0	0	0	0	0	0	0	0	0	0	0	0	0	0	0	0	0	0	0	0	0	0	0	0	0	0
071719	11:56:32	12:04:01	447551	5.0.10.0	5_exp_RW	63	Rpleas_acq	CS_A	JQQJ	LWWL	DXXD	YFFY	ZHHZ	CPPC	vertrauen	küssen	gütig	sonnig	träumen	genießen	versagen	krank	gierig	sterben	töten	gemein	1	acq_USunple_CSunple2_RW	acq4567_RW	5	9	400	1	300	300	444	46	0	1	1	blank2r.bmp	0	1	+	0	1	blank2r.bmp	492	1	YFFY	492	1	blank2r.bmp	572	2	töten	866	1	!	1239	1	!	1346	0	0	0	0	0	0	0	0	0	0	0	0	0	0	0	0	0	0	0	0	0	0	0	0	0	0	0	0	0	0
071719	11:56:32	12:04:03	449804	5.0.10.0	5_exp_RW	63	Rpleas_acq	CS_A	JQQJ	LWWL	DXXD	YFFY	ZHHZ	CPPC	vertrauen	küssen	gütig	sonnig	träumen	genießen	versagen	krank	gierig	sterben	töten	gemein	1	acq_USunple_CSunple2_RW	acq4567_RW	5	10	400	1	300	300	459	46	0	1	1	blank2r.bmp	0	1	+	0	1	blank2r.bmp	492	1	YFFY	492	1	blank2r.bmp	572	3	gemein	866	1	!	1239	1	!	1359	0	0	0	0	0	0	0	0	0	0	0	0	0	0	0	0	0	0	0	0	0	0	0	0	0	0	0	0	0	0
071719	11:56:32	12:04:06	452016	5.0.10.0	5_exp_RW	63	Rpleas_acq	CS_A	JQQJ	LWWL	DXXD	YFFY	ZHHZ	CPPC	vertrauen	küssen	gütig	sonnig	träumen	genießen	versagen	krank	gierig	sterben	töten	gemein	1	acq_USpleas_CSpleas2_RW	acq4567_RW	5	11	400	1	300	300	399	50	0	1	1	blank2r.bmp	0	1	+	0	1	blank2r.bmp	492	1	LWWL	492	1	blank2r.bmp	572	2	träumen	866	1	!	1239	1	!	1306	0	0	0	0	0	0	0	0	0	0	0	0	0	0	0	0	0	0	0	0	0	0	0	0	0	0	0	0	0	0
071719	11:56:32	12:04:08	454202	5.0.10.0	5_exp_RW	63	Rpleas_acq	CS_A	JQQJ	LWWL	DXXD	YFFY	ZHHZ	CPPC	vertrauen	küssen	gütig	sonnig	träumen	genießen	versagen	krank	gierig	sterben	töten	gemein	1	acq_USunple_CSunple2_RW	acq4567_RW	5	12	400	1	300	300	395	46	0	1	1	blank2r.bmp	0	1	+	0	1	blank2r.bmp	492	1	YFFY	492	1	blank2r.bmp	572	2	töten	866	1	!	1239	1	!	1292	0	0	0	0	0	0	0	0	0	0	0	0	0	0	0	0	0	0	0	0	0	0	0	0	0	0	0	0	0	0
071719	11:56:32	12:04:10	456441	5.0.10.0	5_exp_RW	63	Rpleas_acq	CS_A	JQQJ	LWWL	DXXD	YFFY	ZHHZ	CPPC	vertrauen	küssen	gütig	sonnig	träumen	genießen	versagen	krank	gierig	sterben	töten	gemein	1	acq_USunple_CSunple1_RW	acq4567_RW	5	13	400	1	300	300	425	46	0	1	1	blank2r.bmp	0	1	+	0	1	blank2r.bmp	492	1	DXXD	492	1	blank2r.bmp	572	2	krank	866	1	!	1239	1	!	1332	0	0	0	0	0	0	0	0	0	0	0	0	0	0	0	0	0	0	0	0	0	0	0	0	0	0	0	0	0	0
071719	11:56:32	12:04:12	458614	5.0.10.0	5_exp_RW	63	Rpleas_acq	CS_A	JQQJ	LWWL	DXXD	YFFY	ZHHZ	CPPC	vertrauen	küssen	gütig	sonnig	träumen	genießen	versagen	krank	gierig	sterben	töten	gemein	1	acq_USunple_CSunple1_RW	acq4567_RW	5	14	400	1	300	300	380	46	0	1	1	blank2r.bmp	0	1	+	0	1	blank2r.bmp	492	1	DXXD	492	1	blank2r.bmp	572	1	versagen	866	1	!	1239	1	!	1279	0	0	0	0	0	0	0	0	0	0	0	0	0	0	0	0	0	0	0	0	0	0	0	0	0	0	0	0	0	0
071719	11:56:32	12:04:14	460786	5.0.10.0	5_exp_RW	63	Rpleas_acq	CS_A	JQQJ	LWWL	DXXD	YFFY	ZHHZ	CPPC	vertrauen	küssen	gütig	sonnig	träumen	genießen	versagen	krank	gierig	sterben	töten	gemein	1	acq_USpleas_CSpleas1_RW	acq4567_RW	5	15	400	1	300	300	375	50	0	1	1	blank2r.bmp	0	1	+	0	1	blank2r.bmp	492	1	JQQJ	492	1	blank2r.bmp	572	1	vertrauen	866	1	!	1239	1	!	1279	0	0	0	0	0	0	0	0	0	0	0	0	0	0	0	0	0	0	0	0	0	0	0	0	0	0	0	0	0	0
071719	11:56:32	12:04:17	462985	5.0.10.0	5_exp_RW	63	Rpleas_acq	CS_A	JQQJ	LWWL	DXXD	YFFY	ZHHZ	CPPC	vertrauen	küssen	gütig	sonnig	träumen	genießen	versagen	krank	gierig	sterben	töten	gemein	1	acq_USpleas_CSpleas2_RW	acq4567_RW	5	16	400	1	300	300	395	50	0	1	1	blank2r.bmp	0	1	+	0	1	blank2r.bmp	492	1	LWWL	492	1	blank2r.bmp	572	3	genießen	866	1	!	1239	1	!	1292	0	0	0	0	0	0	0	0	0	0	0	0	0	0	0	0	0	0	0	0	0	0	0	0	0	0	0	0	0	0
071719	11:56:32	12:04:19	465171	5.0.10.0	5_exp_RW	63	Rpleas_acq	CS_A	JQQJ	LWWL	DXXD	YFFY	ZHHZ	CPPC	vertrauen	küssen	gütig	sonnig	träumen	genießen	versagen	krank	gierig	sterben	töten	gemein	1	acq_USpleas_CSpleas1_RW	acq4567_RW	5	17	400	1	300	300	382	46	0	0	1	blank2r.bmp	0	1	+	0	1	blank2r.bmp	492	1	JQQJ	492	1	blank2r.bmp	572	1	vertrauen	866	1	!	1239	1	!	1279	0	0	0	0	0	0	0	0	0	0	0	0	0	0	0	0	0	0	0	0	0	0	0	0	0	0	0	0	0	0
071719	11:56:32	12:04:21	467383	5.0.10.0	5_exp_RW	63	Rpleas_acq	CS_A	JQQJ	LWWL	DXXD	YFFY	ZHHZ	CPPC	vertrauen	küssen	gütig	sonnig	träumen	genießen	versagen	krank	gierig	sterben	töten	gemein	1	acq_USpleas_CSpleas2_RW	acq4567_RW	5	18	400	1	300	300	412	50	0	1	1	blank2r.bmp	0	1	+	0	1	blank2r.bmp	492	1	LWWL	492	1	blank2r.bmp	572	1	sonnig	866	1	!	1239	1	!	1319	0	0	0	0	0	0	0	0	0	0	0	0	0	0	0	0	0	0	0	0	0	0	0	0	0	0	0	0	0	0
071719	11:56:32	12:04:23	469569	5.0.10.0	5_exp_RW	63	Rpleas_acq	CS_A	JQQJ	LWWL	DXXD	YFFY	ZHHZ	CPPC	vertrauen	küssen	gütig	sonnig	träumen	genießen	versagen	krank	gierig	sterben	töten	gemein	1	acq_USpleas_CSpleas1_RW	acq4567_RW	5	19	400	1	300	300	382	50	0	1	1	blank2r.bmp	0	1	+	0	1	blank2r.bmp	492	1	JQQJ	492	1	blank2r.bmp	572	2	küssen	866	1	!	1239	1	!	1279	0	0	0	0	0	0	0	0	0	0	0	0	0	0	0	0	0	0	0	0	0	0	0	0	0	0	0	0	0	0
071719	11:56:32	12:04:25	471808	5.0.10.0	5_exp_RW	63	Rpleas_acq	CS_A	JQQJ	LWWL	DXXD	YFFY	ZHHZ	CPPC	vertrauen	küssen	gütig	sonnig	träumen	genießen	versagen	krank	gierig	sterben	töten	gemein	1	acq_USpleas_CSpleas2_RW	acq4567_RW	5	20	400	1	300	300	427	50	0	1	1	blank2r.bmp	0	1	+	0	1	blank2r.bmp	492	1	LWWL	492	1	blank2r.bmp	572	3	genießen	866	1	!	1239	1	!	1332	0	0	0	0	0	0	0	0	0	0	0	0	0	0	0	0	0	0	0	0	0	0	0	0	0	0	0	0	0	0
071719	11:56:32	12:04:28	474007	5.0.10.0	5_exp_RW	63	Rpleas_acq	CS_A	JQQJ	LWWL	DXXD	YFFY	ZHHZ	CPPC	vertrauen	küssen	gütig	sonnig	träumen	genießen	versagen	krank	gierig	sterben	töten	gemein	1	acq_USunple_CSunple1_RW	acq4567_RW	5	21	400	1	300	300	401	46	0	1	1	blank2r.bmp	0	1	+	0	1	blank2r.bmp	492	1	DXXD	492	1	blank2r.bmp	572	3	gierig	866	1	!	1239	1	!	1306	0	0	0	0	0	0	0	0	0	0	0	0	0	0	0	0	0	0	0	0	0	0	0	0	0	0	0	0	0	0
071719	11:56:32	12:04:30	476180	5.0.10.0	5_exp_RW	63	Rpleas_acq	CS_A	JQQJ	LWWL	DXXD	YFFY	ZHHZ	CPPC	vertrauen	küssen	gütig	sonnig	träumen	genießen	versagen	krank	gierig	sterben	töten	gemein	1	acq_USpleas_CSpleas1_RW	acq4567_RW	5	22	400	1	300	300	374	46	0	0	1	blank2r.bmp	0	1	+	0	1	blank2r.bmp	492	1	JQQJ	492	1	blank2r.bmp	572	3	gütig	866	1	!	1239	1	!	1279	0	0	0	0	0	0	0	0	0	0	0	0	0	0	0	0	0	0	0	0	0	0	0	0	0	0	0	0	0	0
071719	11:56:32	12:04:32	478339	5.0.10.0	5_exp_RW	63	Rpleas_acq	CS_A	JQQJ	LWWL	DXXD	YFFY	ZHHZ	CPPC	vertrauen	küssen	gütig	sonnig	träumen	genießen	versagen	krank	gierig	sterben	töten	gemein	1	acq_USunple_CSunple2_RW	acq4567_RW	5	23	400	1	300	300	370	46	0	1	1	blank2r.bmp	0	1	+	0	1	blank2r.bmp	492	1	YFFY	492	1	blank2r.bmp	572	1	sterben	866	1	!	1239	1	!	1266	0	0	0	0	0	0	0	0	0	0	0	0	0	0	0	0	0	0	0	0	0	0	0	0	0	0	0	0	0	0
071719	11:56:32	12:04:34	480551	5.0.10.0	5_exp_RW	63	Rpleas_acq	CS_A	JQQJ	LWWL	DXXD	YFFY	ZHHZ	CPPC	vertrauen	küssen	gütig	sonnig	träumen	genießen	versagen	krank	gierig	sterben	töten	gemein	1	acq_USpleas_CSpleas1_RW	acq4567_RW	5	24	400	1	300	300	412	46	0	0	1	blank2r.bmp	0	1	+	0	1	blank2r.bmp	492	1	JQQJ	492	1	blank2r.bmp	572	3	gütig	866	1	!	1239	1	!	1319	0	0	0	0	0	0	0	0	0	0	0	0	0	0	0	0	0	0	0	0	0	0	0	0	0	0	0	0	0	0
071719	11:56:32	12:04:36	482777	5.0.10.0	5_exp_RW	63	Rpleas_acq	CS_A	JQQJ	LWWL	DXXD	YFFY	ZHHZ	CPPC	vertrauen	küssen	gütig	sonnig	träumen	genießen	versagen	krank	gierig	sterben	töten	gemein	1	acq_USpleas_CSpleas2_RW	acq4567_RW	5	25	400	1	300	300	421	50	0	1	1	blank2r.bmp	0	1	+	0	1	blank2r.bmp	492	1	LWWL	492	1	blank2r.bmp	572	2	träumen	866	1	!	1239	1	!	1319	0	0	0	0	0	0	0	0	0	0	0	0	0	0	0	0	0	0	0	0	0	0	0	0	0	0	0	0	0	0
071719	11:56:32	12:04:39	484963	5.0.10.0	5_exp_RW	63	Rpleas_acq	CS_A	JQQJ	LWWL	DXXD	YFFY	ZHHZ	CPPC	vertrauen	küssen	gütig	sonnig	träumen	genießen	versagen	krank	gierig	sterben	töten	gemein	1	acq_USunple_CSunple2_RW	acq4567_RW	5	26	400	1	300	300	391	46	0	1	1	blank2r.bmp	0	1	+	0	1	blank2r.bmp	492	1	YFFY	492	1	blank2r.bmp	572	1	sterben	866	1	!	1239	1	!	1292	0	0	0	0	0	0	0	0	0	0	0	0	0	0	0	0	0	0	0	0	0	0	0	0	0	0	0	0	0	0
071719	11:56:32	12:04:41	487189	5.0.10.0	5_exp_RW	63	Rpleas_acq	CS_A	JQQJ	LWWL	DXXD	YFFY	ZHHZ	CPPC	vertrauen	küssen	gütig	sonnig	träumen	genießen	versagen	krank	gierig	sterben	töten	gemein	1	acq_USpleas_CSpleas1_RW	acq4567_RW	5	27	400	1	300	300	432	50	0	1	1	blank2r.bmp	0	1	+	0	1	blank2r.bmp	492	1	JQQJ	492	1	blank2r.bmp	572	1	vertrauen	866	1	!	1239	1	!	1332	0	0	0	0	0	0	0	0	0	0	0	0	0	0	0	0	0	0	0	0	0	0	0	0	0	0	0	0	0	0
071719	11:56:32	12:04:43	489361	5.0.10.0	5_exp_RW	63	Rpleas_acq	CS_A	JQQJ	LWWL	DXXD	YFFY	ZHHZ	CPPC	vertrauen	küssen	gütig	sonnig	träumen	genießen	versagen	krank	gierig	sterben	töten	gemein	1	acq_USpleas_CSpleas2_RW	acq4567_RW	5	28	400	1	300	300	385	50	0	1	1	blank2r.bmp	0	1	+	0	1	blank2r.bmp	492	1	LWWL	492	1	blank2r.bmp	572	3	genießen	866	1	!	1239	1	!	1279	0	0	0	0	0	0	0	0	0	0	0	0	0	0	0	0	0	0	0	0	0	0	0	0	0	0	0	0	0	0
071719	11:56:32	12:04:45	491520	5.0.10.0	5_exp_RW	63	Rpleas_acq	CS_A	JQQJ	LWWL	DXXD	YFFY	ZHHZ	CPPC	vertrauen	küssen	gütig	sonnig	träumen	genießen	versagen	krank	gierig	sterben	töten	gemein	1	acq_USpleas_CSpleas2_RW	acq4567_RW	5	29	400	1	300	300	361	50	0	1	1	blank2r.bmp	0	1	+	0	1	blank2r.bmp	492	1	LWWL	492	1	blank2r.bmp	572	2	träumen	866	1	!	1239	1	!	1266	0	0	0	0	0	0	0	0	0	0	0	0	0	0	0	0	0	0	0	0	0	0	0	0	0	0	0	0	0	0
071719	11:56:32	12:04:47	493679	5.0.10.0	5_exp_RW	63	Rpleas_acq	CS_A	JQQJ	LWWL	DXXD	YFFY	ZHHZ	CPPC	vertrauen	küssen	gütig	sonnig	träumen	genießen	versagen	krank	gierig	sterben	töten	gemein	1	acq_USunple_CSunple1_RW	acq4567_RW	5	30	400	1	300	300	365	46	0	1	1	blank2r.bmp	0	1	+	0	1	blank2r.bmp	492	1	DXXD	492	1	blank2r.bmp	572	1	versagen	866	1	!	1239	1	!	1266	0	0	0	0	0	0	0	0	0	0	0	0	0	0	0	0	0	0	0	0	0	0	0	0	0	0	0	0	0	0
071719	11:56:32	12:04:49	495905	5.0.10.0	5_exp_RW	63	Rpleas_acq	CS_A	JQQJ	LWWL	DXXD	YFFY	ZHHZ	CPPC	vertrauen	küssen	gütig	sonnig	träumen	genießen	versagen	krank	gierig	sterben	töten	gemein	1	acq_USunple_CSunple1_RW	acq4567_RW	5	31	400	1	300	300	429	46	0	1	1	blank2r.bmp	0	1	+	0	1	blank2r.bmp	492	1	DXXD	492	1	blank2r.bmp	572	3	gierig	866	1	!	1239	1	!	1332	0	0	0	0	0	0	0	0	0	0	0	0	0	0	0	0	0	0	0	0	0	0	0	0	0	0	0	0	0	0
071719	11:56:32	12:04:52	498064	5.0.10.0	5_exp_RW	63	Rpleas_acq	CS_A	JQQJ	LWWL	DXXD	YFFY	ZHHZ	CPPC	vertrauen	küssen	gütig	sonnig	träumen	genießen	versagen	krank	gierig	sterben	töten	gemein	1	acq_USunple_CSunple2_RW	acq4567_RW	5	32	400	1	300	300	361	46	0	1	1	blank2r.bmp	0	1	+	0	1	blank2r.bmp	492	1	YFFY	492	1	blank2r.bmp	572	2	töten	866	1	!	1239	1	!	1266	0	0	0	0	0	0	0	0	0	0	0	0	0	0	0	0	0	0	0	0	0	0	0	0	0	0	0	0	0	0
071719	11:56:32	12:04:54	500210	5.0.10.0	5_exp_RW	63	Rpleas_acq	CS_A	JQQJ	LWWL	DXXD	YFFY	ZHHZ	CPPC	vertrauen	küssen	gütig	sonnig	träumen	genießen	versagen	krank	gierig	sterben	töten	gemein	1	acq_USunple_CSunple2_RW	acq4567_RW	5	33	400	1	300	300	352	46	0	1	1	blank2r.bmp	0	1	+	0	1	blank2r.bmp	492	1	YFFY	492	1	blank2r.bmp	572	3	gemein	866	1	!	1239	1	!	1252	0	0	0	0	0	0	0	0	0	0	0	0	0	0	0	0	0	0	0	0	0	0	0	0	0	0	0	0	0	0
071719	11:56:32	12:04:56	502356	5.0.10.0	5_exp_RW	63	Rpleas_acq	CS_A	JQQJ	LWWL	DXXD	YFFY	ZHHZ	CPPC	vertrauen	küssen	gütig	sonnig	träumen	genießen	versagen	krank	gierig	sterben	töten	gemein	1	acq_USunple_CSunple2_RW	acq4567_RW	5	34	400	1	300	300	350	46	0	1	1	blank2r.bmp	0	1	+	0	1	blank2r.bmp	492	1	YFFY	492	1	blank2r.bmp	572	3	gemein	866	1	!	1239	1	!	1252	0	0	0	0	0	0	0	0	0	0	0	0	0	0	0	0	0	0	0	0	0	0	0	0	0	0	0	0	0	0
071719	11:56:32	12:04:58	504595	5.0.10.0	5_exp_RW	63	Rpleas_acq	CS_A	JQQJ	LWWL	DXXD	YFFY	ZHHZ	CPPC	vertrauen	küssen	gütig	sonnig	träumen	genießen	versagen	krank	gierig	sterben	töten	gemein	1	acq_USunple_CSunple1_RW	acq4567_RW	5	35	400	1	300	300	443	46	0	1	1	blank2r.bmp	0	1	+	0	1	blank2r.bmp	492	1	DXXD	492	1	blank2r.bmp	572	2	krank	866	1	!	1239	1	!	1346	0	0	0	0	0	0	0	0	0	0	0	0	0	0	0	0	0	0	0	0	0	0	0	0	0	0	0	0	0	0
071719	11:56:32	12:05:00	506741	5.0.10.0	5_exp_RW	63	Rpleas_acq	CS_A	JQQJ	LWWL	DXXD	YFFY	ZHHZ	CPPC	vertrauen	küssen	gütig	sonnig	träumen	genießen	versagen	krank	gierig	sterben	töten	gemein	1	acq_USpleas_CSpleas1_RW	acq4567_RW	5	36	400	1	300	300	352	50	0	1	1	blank2r.bmp	0	1	+	0	1	blank2r.bmp	492	1	JQQJ	492	1	blank2r.bmp	572	2	küssen	866	1	!	1239	1	!	1252	0	0	0	0	0	0	0	0	0	0	0	0	0	0	0	0	0	0	0	0	0	0	0	0	0	0	0	0	0	0
071719	11:56:32	12:05:02	508887	5.0.10.0	5_exp_RW	63	Rpleas_acq	CS_A	JQQJ	LWWL	DXXD	YFFY	ZHHZ	CPPC	vertrauen	küssen	gütig	sonnig	träumen	genießen	versagen	krank	gierig	sterben	töten	gemein	1	acq_USunple_CSunple1_RW	acq4567_RW	5	37	400	1	300	300	346	46	0	1	1	blank2r.bmp	0	1	+	0	1	blank2r.bmp	492	1	DXXD	492	1	blank2r.bmp	572	1	versagen	866	1	!	1239	1	!	1252	0	0	0	0	0	0	0	0	0	0	0	0	0	0	0	0	0	0	0	0	0	0	0	0	0	0	0	0	0	0
071719	11:56:32	12:05:05	511086	5.0.10.0	5_exp_RW	63	Rpleas_acq	CS_A	JQQJ	LWWL	DXXD	YFFY	ZHHZ	CPPC	vertrauen	küssen	gütig	sonnig	träumen	genießen	versagen	krank	gierig	sterben	töten	gemein	1	acq_USpleas_CSpleas1_RW	acq4567_RW	5	38	400	1	300	300	399	50	0	1	1	blank2r.bmp	0	1	+	0	1	blank2r.bmp	492	1	JQQJ	492	1	blank2r.bmp	572	2	küssen	866	1	!	1239	1	!	1306	0	0	0	0	0	0	0	0	0	0	0	0	0	0	0	0	0	0	0	0	0	0	0	0	0	0	0	0	0	0
071719	11:56:32	12:05:07	513285	5.0.10.0	5_exp_RW	63	Rpleas_acq	CS_A	JQQJ	LWWL	DXXD	YFFY	ZHHZ	CPPC	vertrauen	küssen	gütig	sonnig	träumen	genießen	versagen	krank	gierig	sterben	töten	gemein	1	acq_USpleas_CSpleas2_RW	acq4567_RW	5	39	400	1	300	300	401	50	0	1	1	blank2r.bmp	0	1	+	0	1	blank2r.bmp	492	1	LWWL	492	1	blank2r.bmp	572	1	sonnig	866	1	!	1239	1	!	1306	0	0	0	0	0	0	0	0	0	0	0	0	0	0	0	0	0	0	0	0	0	0	0	0	0	0	0	0	0	0
071719	11:56:32	12:05:09	515444	5.0.10.0	5_exp_RW	63	Rpleas_acq	CS_A	JQQJ	LWWL	DXXD	YFFY	ZHHZ	CPPC	vertrauen	küssen	gütig	sonnig	träumen	genießen	versagen	krank	gierig	sterben	töten	gemein	1	acq_USpleas_CSpleas2_RW	acq4567_RW	5	40	400	1	300	300	370	50	0	1	1	blank2r.bmp	0	1	+	0	1	blank2r.bmp	492	1	LWWL	492	1	blank2r.bmp	572	1	sonnig	866	1	!	1239	1	!	1266	0	0	0	0	0	0	0	0	0	0	0	0	0	0	0	0	0	0	0	0	0	0	0	0	0	0	0	0	0	0
071719	11:56:32	12:05:11	517550	5.0.10.0	5_exp_RW	63	Rpleas_acq	CS_A	JQQJ	LWWL	DXXD	YFFY	ZHHZ	CPPC	vertrauen	küssen	gütig	sonnig	träumen	genießen	versagen	krank	gierig	sterben	töten	gemein	1	acq_USunple_CSunple2_RW	acq4567_RW	5	41	400	0	300	300	333	46	0	1	1	blank2r.bmp	0	1	+	0	1	blank2r.bmp	492	1	YFFY	492	1	blank2r.bmp	572	1	sterben	866	1	!	-1	1	!	-1	0	0	0	0	0	0	0	0	0	0	0	0	0	0	0	0	0	0	0	0	0	0	0	0	0	0	0	0	0	0
071719	11:56:32	12:05:13	519802	5.0.10.0	5_exp_RW	63	Rpleas_acq	CS_A	JQQJ	LWWL	DXXD	YFFY	ZHHZ	CPPC	vertrauen	küssen	gütig	sonnig	träumen	genießen	versagen	krank	gierig	sterben	töten	gemein	1	acq_USpleas_CSpleas2_RW	acq4567_RW	5	42	400	1	300	300	441	50	0	1	1	blank2r.bmp	0	1	+	0	1	blank2r.bmp	492	1	LWWL	492	1	blank2r.bmp	572	2	träumen	866	1	!	1239	1	!	1346	0	0	0	0	0	0	0	0	0	0	0	0	0	0	0	0	0	0	0	0	0	0	0	0	0	0	0	0	0	0
071719	11:56:32	12:05:16	522055	5.0.10.0	5_exp_RW	63	Rpleas_acq	CS_A	JQQJ	LWWL	DXXD	YFFY	ZHHZ	CPPC	vertrauen	küssen	gütig	sonnig	träumen	genießen	versagen	krank	gierig	sterben	töten	gemein	1	acq_USunple_CSunple1_RW	acq4567_RW	5	43	400	0	300	300	479	46	0	1	1	blank2r.bmp	0	1	+	0	1	blank2r.bmp	492	1	DXXD	492	1	blank2r.bmp	572	2	krank	866	1	!	1239	1	!	-1	0	0	0	0	0	0	0	0	0	0	0	0	0	0	0	0	0	0	0	0	0	0	0	0	0	0	0	0	0	0
071719	11:56:32	12:05:18	524267	5.0.10.0	5_exp_RW	63	Rpleas_acq	CS_A	JQQJ	LWWL	DXXD	YFFY	ZHHZ	CPPC	vertrauen	küssen	gütig	sonnig	träumen	genießen	versagen	krank	gierig	sterben	töten	gemein	1	acq_USpleas_CSpleas2_RW	acq4567_RW	5	44	400	1	300	300	404	50	0	1	1	blank2r.bmp	0	1	+	0	1	blank2r.bmp	492	1	LWWL	492	1	blank2r.bmp	572	3	genießen	866	1	!	1239	1	!	1306	0	0	0	0	0	0	0	0	0	0	0	0	0	0	0	0	0	0	0	0	0	0	0	0	0	0	0	0	0	0
071719	11:56:32	12:05:20	526493	5.0.10.0	5_exp_RW	63	Rpleas_acq	CS_A	JQQJ	LWWL	DXXD	YFFY	ZHHZ	CPPC	vertrauen	küssen	gütig	sonnig	träumen	genießen	versagen	krank	gierig	sterben	töten	gemein	1	acq_USpleas_CSpleas1_RW	acq4567_RW	5	45	400	1	300	300	435	50	0	1	1	blank2r.bmp	0	1	+	0	1	blank2r.bmp	492	1	JQQJ	492	1	blank2r.bmp	572	3	gütig	866	1	!	1239	1	!	1332	0	0	0	0	0	0	0	0	0	0	0	0	0	0	0	0	0	0	0	0	0	0	0	0	0	0	0	0	0	0
071719	11:56:32	12:05:22	528705	5.0.10.0	5_exp_RW	63	Rpleas_acq	CS_A	JQQJ	LWWL	DXXD	YFFY	ZHHZ	CPPC	vertrauen	küssen	gütig	sonnig	träumen	genießen	versagen	krank	gierig	sterben	töten	gemein	1	acq_USunple_CSunple2_RW	acq4567_RW	5	46	400	1	300	300	404	46	0	1	1	blank2r.bmp	0	1	+	0	1	blank2r.bmp	492	1	YFFY	492	1	blank2r.bmp	572	2	töten	866	1	!	1239	1	!	1306	0	0	0	0	0	0	0	0	0	0	0	0	0	0	0	0	0	0	0	0	0	0	0	0	0	0	0	0	0	0
071719	11:56:32	12:05:24	530864	5.0.10.0	5_exp_RW	63	Rpleas_acq	CS_A	JQQJ	LWWL	DXXD	YFFY	ZHHZ	CPPC	vertrauen	küssen	gütig	sonnig	träumen	genießen	versagen	krank	gierig	sterben	töten	gemein	1	acq_USunple_CSunple1_RW	acq4567_RW	5	47	400	1	300	300	363	46	0	1	1	blank2r.bmp	0	1	+	0	1	blank2r.bmp	492	1	DXXD	492	1	blank2r.bmp	572	3	gierig	866	1	!	1239	1	!	1266	0	0	0	0	0	0	0	0	0	0	0	0	0	0	0	0	0	0	0	0	0	0	0	0	0	0	0	0	0	0
071719	11:56:32	12:05:27	533037	5.0.10.0	5_exp_RW	63	Rpleas_acq	CS_A	JQQJ	LWWL	DXXD	YFFY	ZHHZ	CPPC	vertrauen	küssen	gütig	sonnig	träumen	genießen	versagen	krank	gierig	sterben	töten	gemein	1	acq_USunple_CSunple2_RW	acq4567_RW	5	48	400	1	300	300	376	46	0	1	1	blank2r.bmp	0	1	+	0	1	blank2r.bmp	492	1	YFFY	492	1	blank2r.bmp	572	1	sterben	866	1	!	1239	1	!	1279	0	0	0	0	0	0	0	0	0	0	0	0	0	0	0	0	0	0	0	0	0	0	0	0	0	0	0	0	0	0
071719	11:56:32	12:05:29	535116	5.0.10.0	5_exp_RW	63	Rpleas_acq	CS_A	JQQJ	LWWL	DXXD	YFFY	ZHHZ	CPPC	vertrauen	küssen	gütig	sonnig	träumen	genießen	versagen	krank	gierig	sterben	töten	gemein	1	acq_USpleas_CSpleas1_RW	acq4567_RW	5	49	400	0	300	300	308	46	0	0	1	blank2r.bmp	0	1	+	0	1	blank2r.bmp	492	1	JQQJ	492	1	blank2r.bmp	572	1	vertrauen	866	1	!	-1	1	!	-1	0	0	0	0	0	0	0	0	0	0	0	0	0	0	0	0	0	0	0	0	0	0	0	0	0	0	0	0	0	0
071719	11:56:32	12:05:31	537302	5.0.10.0	5_exp_RW	63	Rpleas_acq	CS_A	JQQJ	LWWL	DXXD	YFFY	ZHHZ	CPPC	vertrauen	küssen	gütig	sonnig	träumen	genießen	versagen	krank	gierig	sterben	töten	gemein	1	acq_USpleas_CSpleas1_RW	acq4567_RW	5	50	400	1	300	300	384	46	0	0	1	blank2r.bmp	0	1	+	0	1	blank2r.bmp	492	1	JQQJ	492	1	blank2r.bmp	572	3	gütig	866	1	!	1239	1	!	1279	0	0	0	0	0	0	0	0	0	0	0	0	0	0	0	0	0	0	0	0	0	0	0	0	0	0	0	0	0	0
071719	11:56:32	12:05:33	539501	5.0.10.0	5_exp_RW	63	Rpleas_acq	CS_A	JQQJ	LWWL	DXXD	YFFY	ZHHZ	CPPC	vertrauen	küssen	gütig	sonnig	träumen	genießen	versagen	krank	gierig	sterben	töten	gemein	1	acq_USpleas_CSpleas2_RW	acq4567_RW	5	51	400	1	300	300	403	50	0	1	1	blank2r.bmp	0	1	+	0	1	blank2r.bmp	492	1	LWWL	492	1	blank2r.bmp	572	1	sonnig	866	1	!	1239	1	!	1306	0	0	0	0	0	0	0	0	0	0	0	0	0	0	0	0	0	0	0	0	0	0	0	0	0	0	0	0	0	0
071719	11:56:32	12:05:35	541687	5.0.10.0	5_exp_RW	63	Rpleas_acq	CS_A	JQQJ	LWWL	DXXD	YFFY	ZHHZ	CPPC	vertrauen	küssen	gütig	sonnig	träumen	genießen	versagen	krank	gierig	sterben	töten	gemein	1	acq_USpleas_CSpleas2_RW	acq4567_RW	5	52	400	1	300	300	397	50	0	1	1	blank2r.bmp	0	1	+	0	1	blank2r.bmp	492	1	LWWL	492	1	blank2r.bmp	572	3	genießen	866	1	!	1239	1	!	1292	0	0	0	0	0	0	0	0	0	0	0	0	0	0	0	0	0	0	0	0	0	0	0	0	0	0	0	0	0	0
071719	11:56:32	12:05:37	543806	5.0.10.0	5_exp_RW	63	Rpleas_acq	CS_A	JQQJ	LWWL	DXXD	YFFY	ZHHZ	CPPC	vertrauen	küssen	gütig	sonnig	träumen	genießen	versagen	krank	gierig	sterben	töten	gemein	1	acq_USunple_CSunple1_RW	acq4567_RW	5	53	400	0	300	300	332	46	0	1	1	blank2r.bmp	0	1	+	0	1	blank2r.bmp	492	1	DXXD	492	1	blank2r.bmp	572	2	krank	866	1	!	-1	1	!	-1	0	0	0	0	0	0	0	0	0	0	0	0	0	0	0	0	0	0	0	0	0	0	0	0	0	0	0	0	0	0
071719	11:56:32	12:05:40	545965	5.0.10.0	5_exp_RW	63	Rpleas_acq	CS_A	JQQJ	LWWL	DXXD	YFFY	ZHHZ	CPPC	vertrauen	küssen	gütig	sonnig	träumen	genießen	versagen	krank	gierig	sterben	töten	gemein	1	acq_USpleas_CSpleas2_RW	acq4567_RW	5	54	400	1	300	300	351	50	0	1	1	blank2r.bmp	0	1	+	0	1	blank2r.bmp	492	1	LWWL	492	1	blank2r.bmp	572	2	träumen	866	1	!	1239	1	!	1252	0	0	0	0	0	0	0	0	0	0	0	0	0	0	0	0	0	0	0	0	0	0	0	0	0	0	0	0	0	0
071719	11:56:32	12:05:42	548137	5.0.10.0	5_exp_RW	63	Rpleas_acq	CS_A	JQQJ	LWWL	DXXD	YFFY	ZHHZ	CPPC	vertrauen	küssen	gütig	sonnig	träumen	genießen	versagen	krank	gierig	sterben	töten	gemein	1	acq_USunple_CSunple2_RW	acq4567_RW	5	55	400	1	300	300	377	46	0	1	1	blank2r.bmp	0	1	+	0	1	blank2r.bmp	492	1	YFFY	492	1	blank2r.bmp	572	3	gemein	866	1	!	1239	1	!	1279	0	0	0	0	0	0	0	0	0	0	0	0	0	0	0	0	0	0	0	0	0	0	0	0	0	0	0	0	0	0
071719	11:56:32	12:05:44	550336	5.0.10.0	5_exp_RW	63	Rpleas_acq	CS_A	JQQJ	LWWL	DXXD	YFFY	ZHHZ	CPPC	vertrauen	küssen	gütig	sonnig	träumen	genießen	versagen	krank	gierig	sterben	töten	gemein	1	acq_USunple_CSunple1_RW	acq4567_RW	5	56	400	1	300	300	408	46	0	1	1	blank2r.bmp	0	1	+	0	1	blank2r.bmp	492	1	DXXD	492	1	blank2r.bmp	572	1	versagen	866	1	!	1239	1	!	1306	0	0	0	0	0	0	0	0	0	0	0	0	0	0	0	0	0	0	0	0	0	0	0	0	0	0	0	0	0	0
071719	11:56:32	12:05:46	552509	5.0.10.0	5_exp_RW	63	Rpleas_acq	CS_A	JQQJ	LWWL	DXXD	YFFY	ZHHZ	CPPC	vertrauen	küssen	gütig	sonnig	träumen	genießen	versagen	krank	gierig	sterben	töten	gemein	1	acq_USunple_CSunple1_RW	acq4567_RW	5	57	400	1	300	300	383	46	0	1	1	blank2r.bmp	0	1	+	0	1	blank2r.bmp	492	1	DXXD	492	1	blank2r.bmp	572	3	gierig	866	1	!	1239	1	!	1279	0	0	0	0	0	0	0	0	0	0	0	0	0	0	0	0	0	0	0	0	0	0	0	0	0	0	0	0	0	0
071719	11:56:32	12:05:48	554721	5.0.10.0	5_exp_RW	63	Rpleas_acq	CS_A	JQQJ	LWWL	DXXD	YFFY	ZHHZ	CPPC	vertrauen	küssen	gütig	sonnig	träumen	genießen	versagen	krank	gierig	sterben	töten	gemein	1	acq_USunple_CSunple2_RW	acq4567_RW	5	58	400	1	300	300	423	46	0	1	1	blank2r.bmp	0	1	+	0	1	blank2r.bmp	492	1	YFFY	492	1	blank2r.bmp	572	2	töten	866	1	!	1239	1	!	1319	0	0	0	0	0	0	0	0	0	0	0	0	0	0	0	0	0	0	0	0	0	0	0	0	0	0	0	0	0	0
071719	11:56:32	12:05:50	556920	5.0.10.0	5_exp_RW	63	Rpleas_acq	CS_A	JQQJ	LWWL	DXXD	YFFY	ZHHZ	CPPC	vertrauen	küssen	gütig	sonnig	träumen	genießen	versagen	krank	gierig	sterben	töten	gemein	1	acq_USpleas_CSpleas1_RW	acq4567_RW	5	59	400	1	300	300	403	46	0	0	1	blank2r.bmp	0	1	+	0	1	blank2r.bmp	492	1	JQQJ	492	1	blank2r.bmp	572	1	vertrauen	866	1	!	1239	1	!	1306	0	0	0	0	0	0	0	0	0	0	0	0	0	0	0	0	0	0	0	0	0	0	0	0	0	0	0	0	0	0
071719	11:56:32	12:05:53	559093	5.0.10.0	5_exp_RW	63	Rpleas_acq	CS_A	JQQJ	LWWL	DXXD	YFFY	ZHHZ	CPPC	vertrauen	küssen	gütig	sonnig	träumen	genießen	versagen	krank	gierig	sterben	töten	gemein	1	acq_USpleas_CSpleas1_RW	acq4567_RW	5	60	400	1	300	300	381	50	0	1	1	blank2r.bmp	0	1	+	0	1	blank2r.bmp	492	1	JQQJ	492	1	blank2r.bmp	572	2	küssen	866	1	!	1239	1	!	1279	0	0	0	0	0	0	0	0	0	0	0	0	0	0	0	0	0	0	0	0	0	0	0	0	0	0	0	0	0	0
071719	11:56:32	12:05:55	561239	5.0.10.0	5_exp_RW	63	Rpleas_acq	CS_A	JQQJ	LWWL	DXXD	YFFY	ZHHZ	CPPC	vertrauen	küssen	gütig	sonnig	träumen	genießen	versagen	krank	gierig	sterben	töten	gemein	1	acq_USpleas_CSpleas2_RW	acq4567_RW	5	61	400	1	300	300	357	46	0	0	1	blank2r.bmp	0	1	+	0	1	blank2r.bmp	492	1	LWWL	492	1	blank2r.bmp	572	3	genießen	866	1	!	1239	1	!	1252	0	0	0	0	0	0	0	0	0	0	0	0	0	0	0	0	0	0	0	0	0	0	0	0	0	0	0	0	0	0
071719	11:56:32	12:05:57	563411	5.0.10.0	5_exp_RW	63	Rpleas_acq	CS_A	JQQJ	LWWL	DXXD	YFFY	ZHHZ	CPPC	vertrauen	küssen	gütig	sonnig	träumen	genießen	versagen	krank	gierig	sterben	töten	gemein	1	acq_USunple_CSunple1_RW	acq4567_RW	5	62	400	1	300	300	378	46	0	1	1	blank2r.bmp	0	1	+	0	1	blank2r.bmp	492	1	DXXD	492	1	blank2r.bmp	572	2	krank	866	1	!	1239	1	!	1279	0	0	0	0	0	0	0	0	0	0	0	0	0	0	0	0	0	0	0	0	0	0	0	0	0	0	0	0	0	0
071719	11:56:32	12:05:59	565784	5.0.10.0	5_exp_RW	63	Rpleas_acq	CS_A	JQQJ	LWWL	DXXD	YFFY	ZHHZ	CPPC	vertrauen	küssen	gütig	sonnig	träumen	genießen	versagen	krank	gierig	sterben	töten	gemein	1	acq_USpleas_CSpleas1_RW	acq4567_RW	5	63	400	0	300	300	611	50	0	1	1	blank2r.bmp	0	1	+	0	1	blank2r.bmp	492	1	JQQJ	492	1	blank2r.bmp	572	1	vertrauen	866	1	!	1239	1	!	-1	0	0	0	0	0	0	0	0	0	0	0	0	0	0	0	0	0	0	0	0	0	0	0	0	0	0	0	0	0	0
071719	11:56:32	12:06:01	567943	5.0.10.0	5_exp_RW	63	Rpleas_acq	CS_A	JQQJ	LWWL	DXXD	YFFY	ZHHZ	CPPC	vertrauen	küssen	gütig	sonnig	träumen	genießen	versagen	krank	gierig	sterben	töten	gemein	1	acq_USunple_CSunple1_RW	acq4567_RW	5	64	400	1	300	300	346	50	0	0	1	blank2r.bmp	0	1	+	0	1	blank2r.bmp	492	1	DXXD	492	1	blank2r.bmp	572	1	versagen	866	1	!	1239	1	!	1252	0	0	0	0	0	0	0	0	0	0	0	0	0	0	0	0	0	0	0	0	0	0	0	0	0	0	0	0	0	0
071719	11:56:32	12:06:04	570102	5.0.10.0	5_exp_RW	63	Rpleas_acq	CS_A	JQQJ	LWWL	DXXD	YFFY	ZHHZ	CPPC	vertrauen	küssen	gütig	sonnig	träumen	genießen	versagen	krank	gierig	sterben	töten	gemein	1	acq_USpleas_CSpleas2_RW	acq4567_RW	5	65	400	1	300	300	356	50	0	1	1	blank2r.bmp	0	1	+	0	1	blank2r.bmp	492	1	LWWL	492	1	blank2r.bmp	572	1	sonnig	866	1	!	1239	1	!	1252	0	0	0	0	0	0	0	0	0	0	0	0	0	0	0	0	0	0	0	0	0	0	0	0	0	0	0	0	0	0
071719	11:56:32	12:06:06	572368	5.0.10.0	5_exp_RW	63	Rpleas_acq	CS_A	JQQJ	LWWL	DXXD	YFFY	ZHHZ	CPPC	vertrauen	küssen	gütig	sonnig	träumen	genießen	versagen	krank	gierig	sterben	töten	gemein	1	acq_USpleas_CSpleas2_RW	acq4567_RW	5	66	400	0	300	300	504	50	0	1	1	blank2r.bmp	0	1	+	0	1	blank2r.bmp	492	1	LWWL	492	1	blank2r.bmp	572	2	träumen	866	1	!	1239	1	!	-1	0	0	0	0	0	0	0	0	0	0	0	0	0	0	0	0	0	0	0	0	0	0	0	0	0	0	0	0	0	0
071719	11:56:32	12:06:08	574433	5.0.10.0	5_exp_RW	63	Rpleas_acq	CS_A	JQQJ	LWWL	DXXD	YFFY	ZHHZ	CPPC	vertrauen	küssen	gütig	sonnig	träumen	genießen	versagen	krank	gierig	sterben	töten	gemein	1	acq_USpleas_CSpleas1_RW	acq4567_RW	5	67	400	0	300	300	289	50	0	1	1	blank2r.bmp	0	1	+	0	1	blank2r.bmp	492	1	JQQJ	492	1	blank2r.bmp	572	2	küssen	866	1	!	-1	1	!	-1	0	0	0	0	0	0	0	0	0	0	0	0	0	0	0	0	0	0	0	0	0	0	0	0	0	0	0	0	0	0
071719	11:56:32	12:06:10	576646	5.0.10.0	5_exp_RW	63	Rpleas_acq	CS_A	JQQJ	LWWL	DXXD	YFFY	ZHHZ	CPPC	vertrauen	küssen	gütig	sonnig	träumen	genießen	versagen	krank	gierig	sterben	töten	gemein	1	acq_USunple_CSunple1_RW	acq4567_RW	5	68	400	1	300	300	397	46	0	1	1	blank2r.bmp	0	1	+	0	1	blank2r.bmp	492	1	DXXD	492	1	blank2r.bmp	572	3	gierig	866	1	!	1239	1	!	1292	0	0	0	0	0	0	0	0	0	0	0	0	0	0	0	0	0	0	0	0	0	0	0	0	0	0	0	0	0	0
071719	11:56:32	12:06:12	578872	5.0.10.0	5_exp_RW	63	Rpleas_acq	CS_A	JQQJ	LWWL	DXXD	YFFY	ZHHZ	CPPC	vertrauen	küssen	gütig	sonnig	träumen	genießen	versagen	krank	gierig	sterben	töten	gemein	1	acq_USunple_CSunple1_RW	acq4567_RW	5	69	400	1	300	300	425	46	0	1	1	blank2r.bmp	0	1	+	0	1	blank2r.bmp	492	1	DXXD	492	1	blank2r.bmp	572	1	versagen	866	1	!	1239	1	!	1319	0	0	0	0	0	0	0	0	0	0	0	0	0	0	0	0	0	0	0	0	0	0	0	0	0	0	0	0	0	0
071719	11:56:32	12:06:15	581124	5.0.10.0	5_exp_RW	63	Rpleas_acq	CS_A	JQQJ	LWWL	DXXD	YFFY	ZHHZ	CPPC	vertrauen	küssen	gütig	sonnig	träumen	genießen	versagen	krank	gierig	sterben	töten	gemein	1	acq_USpleas_CSpleas1_RW	acq4567_RW	5	70	400	0	300	300	484	46	0	0	1	blank2r.bmp	0	1	+	0	1	blank2r.bmp	492	1	JQQJ	492	1	blank2r.bmp	572	3	gütig	866	1	!	1239	1	!	-1	0	0	0	0	0	0	0	0	0	0	0	0	0	0	0	0	0	0	0	0	0	0	0	0	0	0	0	0	0	0
071719	11:56:32	12:06:17	583296	5.0.10.0	5_exp_RW	63	Rpleas_acq	CS_A	JQQJ	LWWL	DXXD	YFFY	ZHHZ	CPPC	vertrauen	küssen	gütig	sonnig	träumen	genießen	versagen	krank	gierig	sterben	töten	gemein	1	acq_USunple_CSunple2_RW	acq4567_RW	5	71	400	1	300	300	359	46	0	1	1	blank2r.bmp	0	1	+	0	1	blank2r.bmp	492	1	YFFY	492	1	blank2r.bmp	572	3	gemein	866	1	!	1239	1	!	1266	0	0	0	0	0	0	0	0	0	0	0	0	0	0	0	0	0	0	0	0	0	0	0	0	0	0	0	0	0	0
071719	11:56:32	12:06:19	585469	5.0.10.0	5_exp_RW	63	Rpleas_acq	CS_A	JQQJ	LWWL	DXXD	YFFY	ZHHZ	CPPC	vertrauen	küssen	gütig	sonnig	träumen	genießen	versagen	krank	gierig	sterben	töten	gemein	1	acq_USpleas_CSpleas1_RW	acq4567_RW	5	72	400	1	300	300	382	50	0	1	1	blank2r.bmp	0	1	+	0	1	blank2r.bmp	492	1	JQQJ	492	1	blank2r.bmp	572	2	küssen	866	1	!	1239	1	!	1279	0	0	0	0	0	0	0	0	0	0	0	0	0	0	0	0	0	0	0	0	0	0	0	0	0	0	0	0	0	0
071719	11:56:32	12:06:21	587628	5.0.10.0	5_exp_RW	63	Rpleas_acq	CS_A	JQQJ	LWWL	DXXD	YFFY	ZHHZ	CPPC	vertrauen	küssen	gütig	sonnig	träumen	genießen	versagen	krank	gierig	sterben	töten	gemein	1	acq_USunple_CSunple2_RW	acq4567_RW	5	73	400	1	300	300	368	46	0	1	1	blank2r.bmp	0	1	+	0	1	blank2r.bmp	492	1	YFFY	492	1	blank2r.bmp	572	2	töten	866	1	!	1239	1	!	1266	0	0	0	0	0	0	0	0	0	0	0	0	0	0	0	0	0	0	0	0	0	0	0	0	0	0	0	0	0	0
071719	11:56:32	12:06:23	589801	5.0.10.0	5_exp_RW	63	Rpleas_acq	CS_A	JQQJ	LWWL	DXXD	YFFY	ZHHZ	CPPC	vertrauen	küssen	gütig	sonnig	träumen	genießen	versagen	krank	gierig	sterben	töten	gemein	1	acq_USunple_CSunple1_RW	acq4567_RW	5	74	400	1	300	300	364	46	0	1	1	blank2r.bmp	0	1	+	0	1	blank2r.bmp	492	1	DXXD	492	1	blank2r.bmp	572	2	krank	866	1	!	1239	1	!	1266	0	0	0	0	0	0	0	0	0	0	0	0	0	0	0	0	0	0	0	0	0	0	0	0	0	0	0	0	0	0
071719	11:56:32	12:06:26	592053	5.0.10.0	5_exp_RW	63	Rpleas_acq	CS_A	JQQJ	LWWL	DXXD	YFFY	ZHHZ	CPPC	vertrauen	küssen	gütig	sonnig	träumen	genießen	versagen	krank	gierig	sterben	töten	gemein	1	acq_USunple_CSunple2_RW	acq4567_RW	5	75	400	0	300	300	479	46	0	1	1	blank2r.bmp	0	1	+	0	1	blank2r.bmp	492	1	YFFY	492	1	blank2r.bmp	572	1	sterben	866	1	!	1239	1	!	-1	0	0	0	0	0	0	0	0	0	0	0	0	0	0	0	0	0	0	0	0	0	0	0	0	0	0	0	0	0	0
071719	11:56:32	12:06:28	594212	5.0.10.0	5_exp_RW	63	Rpleas_acq	CS_A	JQQJ	LWWL	DXXD	YFFY	ZHHZ	CPPC	vertrauen	küssen	gütig	sonnig	träumen	genießen	versagen	krank	gierig	sterben	töten	gemein	1	acq_USunple_CSunple2_RW	acq4567_RW	5	76	400	1	300	300	350	46	0	1	1	blank2r.bmp	0	1	+	0	1	blank2r.bmp	492	1	YFFY	492	1	blank2r.bmp	572	2	töten	866	1	!	1239	1	!	1252	0	0	0	0	0	0	0	0	0	0	0	0	0	0	0	0	0	0	0	0	0	0	0	0	0	0	0	0	0	0
071719	11:56:32	12:06:30	596398	5.0.10.0	5_exp_RW	63	Rpleas_acq	CS_A	JQQJ	LWWL	DXXD	YFFY	ZHHZ	CPPC	vertrauen	küssen	gütig	sonnig	träumen	genießen	versagen	krank	gierig	sterben	töten	gemein	1	acq_USpleas_CSpleas2_RW	acq4567_RW	5	77	400	1	300	300	385	46	0	0	1	blank2r.bmp	0	1	+	0	1	blank2r.bmp	492	1	LWWL	492	1	blank2r.bmp	572	2	träumen	866	1	!	1239	1	!	1279	0	0	0	0	0	0	0	0	0	0	0	0	0	0	0	0	0	0	0	0	0	0	0	0	0	0	0	0	0	0
071719	11:56:32	12:06:32	598584	5.0.10.0	5_exp_RW	63	Rpleas_acq	CS_A	JQQJ	LWWL	DXXD	YFFY	ZHHZ	CPPC	vertrauen	küssen	gütig	sonnig	träumen	genießen	versagen	krank	gierig	sterben	töten	gemein	1	acq_USpleas_CSpleas1_RW	acq4567_RW	5	78	400	1	300	300	398	50	0	1	1	blank2r.bmp	0	1	+	0	1	blank2r.bmp	492	1	JQQJ	492	1	blank2r.bmp	572	1	vertrauen	866	1	!	1239	1	!	1292	0	0	0	0	0	0	0	0	0	0	0	0	0	0	0	0	0	0	0	0	0	0	0	0	0	0	0	0	0	0
071719	11:56:32	12:06:34	600729	5.0.10.0	5_exp_RW	63	Rpleas_acq	CS_A	JQQJ	LWWL	DXXD	YFFY	ZHHZ	CPPC	vertrauen	küssen	gütig	sonnig	träumen	genießen	versagen	krank	gierig	sterben	töten	gemein	1	acq_USpleas_CSpleas2_RW	acq4567_RW	5	79	400	1	300	300	346	50	0	1	1	blank2r.bmp	0	1	+	0	1	blank2r.bmp	492	1	LWWL	492	1	blank2r.bmp	572	1	sonnig	866	1	!	1239	1	!	1252	0	0	0	0	0	0	0	0	0	0	0	0	0	0	0	0	0	0	0	0	0	0	0	0	0	0	0	0	0	0
071719	11:56:32	12:06:36	602902	5.0.10.0	5_exp_RW	63	Rpleas_acq	CS_A	JQQJ	LWWL	DXXD	YFFY	ZHHZ	CPPC	vertrauen	küssen	gütig	sonnig	träumen	genießen	versagen	krank	gierig	sterben	töten	gemein	1	acq_USunple_CSunple2_RW	acq4567_RW	5	80	400	1	300	300	383	46	0	1	1	blank2r.bmp	0	1	+	0	1	blank2r.bmp	492	1	YFFY	492	1	blank2r.bmp	572	3	gemein	866	1	!	1239	1	!	1279	0	0	0	0	0	0	0	0	0	0	0	0	0	0	0	0	0	0	0	0	0	0	0	0	0	0	0	0	0	0
071719	11:56:32	12:06:46	612138	5.0.10.0	5_exp_RW	63	Rpleas_acq	CS_A	JQQJ	LWWL	DXXD	YFFY	ZHHZ	CPPC	vertrauen	küssen	gütig	sonnig	träumen	genießen	versagen	krank	gierig	sterben	töten	gemein	1	acq_USpleas_CSpleas2_RW	acq4567_RW	6	1	400	1	300	300	429	50	0	1	1	blank2r.bmp	0	1	+	0	1	blank2r.bmp	492	1	LWWL	492	1	blank2r.bmp	572	3	genießen	866	1	!	1239	1	!	1332	0	0	0	0	0	0	0	0	0	0	0	0	0	0	0	0	0	0	0	0	0	0	0	0	0	0	0	0	0	0
071719	11:56:32	12:06:48	614337	5.0.10.0	5_exp_RW	63	Rpleas_acq	CS_A	JQQJ	LWWL	DXXD	YFFY	ZHHZ	CPPC	vertrauen	küssen	gütig	sonnig	träumen	genießen	versagen	krank	gierig	sterben	töten	gemein	1	acq_USunple_CSunple2_RW	acq4567_RW	6	2	400	1	300	300	407	46	0	1	1	blank2r.bmp	0	1	+	0	1	blank2r.bmp	492	1	YFFY	492	1	blank2r.bmp	572	1	sterben	866	1	!	1239	1	!	1306	0	0	0	0	0	0	0	0	0	0	0	0	0	0	0	0	0	0	0	0	0	0	0	0	0	0	0	0	0	0
071719	11:56:32	12:06:50	616510	5.0.10.0	5_exp_RW	63	Rpleas_acq	CS_A	JQQJ	LWWL	DXXD	YFFY	ZHHZ	CPPC	vertrauen	küssen	gütig	sonnig	träumen	genießen	versagen	krank	gierig	sterben	töten	gemein	1	acq_USpleas_CSpleas1_RW	acq4567_RW	6	3	400	1	300	300	382	46	0	0	1	blank2r.bmp	0	1	+	0	1	blank2r.bmp	492	1	JQQJ	492	1	blank2r.bmp	572	3	gütig	866	1	!	1239	1	!	1279	0	0	0	0	0	0	0	0	0	0	0	0	0	0	0	0	0	0	0	0	0	0	0	0	0	0	0	0	0	0
071719	11:56:32	12:06:52	618616	5.0.10.0	5_exp_RW	63	Rpleas_acq	CS_A	JQQJ	LWWL	DXXD	YFFY	ZHHZ	CPPC	vertrauen	küssen	gütig	sonnig	träumen	genießen	versagen	krank	gierig	sterben	töten	gemein	1	acq_USunple_CSunple1_RW	acq4567_RW	6	4	400	0	300	300	332	46	0	1	1	blank2r.bmp	0	1	+	0	1	blank2r.bmp	492	1	DXXD	492	1	blank2r.bmp	572	3	gierig	866	1	!	-1	1	!	-1	0	0	0	0	0	0	0	0	0	0	0	0	0	0	0	0	0	0	0	0	0	0	0	0	0	0	0	0	0	0
071719	11:56:32	12:06:54	620788	5.0.10.0	5_exp_RW	63	Rpleas_acq	CS_A	JQQJ	LWWL	DXXD	YFFY	ZHHZ	CPPC	vertrauen	küssen	gütig	sonnig	träumen	genießen	versagen	krank	gierig	sterben	töten	gemein	1	acq_USpleas_CSpleas1_RW	acq4567_RW	6	5	400	1	300	300	370	50	0	1	1	blank2r.bmp	0	1	+	0	1	blank2r.bmp	492	1	JQQJ	492	1	blank2r.bmp	572	1	vertrauen	866	1	!	1239	1	!	1266	0	0	0	0	0	0	0	0	0	0	0	0	0	0	0	0	0	0	0	0	0	0	0	0	0	0	0	0	0	0
071719	11:56:32	12:06:57	622947	5.0.10.0	5_exp_RW	63	Rpleas_acq	CS_A	JQQJ	LWWL	DXXD	YFFY	ZHHZ	CPPC	vertrauen	küssen	gütig	sonnig	träumen	genießen	versagen	krank	gierig	sterben	töten	gemein	1	acq_USpleas_CSpleas2_RW	acq4567_RW	6	6	400	1	300	300	367	50	0	1	1	blank2r.bmp	0	1	+	0	1	blank2r.bmp	492	1	LWWL	492	1	blank2r.bmp	572	2	träumen	866	1	!	1239	1	!	1266	0	0	0	0	0	0	0	0	0	0	0	0	0	0	0	0	0	0	0	0	0	0	0	0	0	0	0	0	0	0
071719	11:56:32	12:06:59	625133	5.0.10.0	5_exp_RW	63	Rpleas_acq	CS_A	JQQJ	LWWL	DXXD	YFFY	ZHHZ	CPPC	vertrauen	küssen	gütig	sonnig	träumen	genießen	versagen	krank	gierig	sterben	töten	gemein	1	acq_USunple_CSunple2_RW	acq4567_RW	6	7	400	1	300	300	377	46	0	1	1	blank2r.bmp	0	1	+	0	1	blank2r.bmp	492	1	YFFY	492	1	blank2r.bmp	572	3	gemein	866	1	!	1239	1	!	1279	0	0	0	0	0	0	0	0	0	0	0	0	0	0	0	0	0	0	0	0	0	0	0	0	0	0	0	0	0	0
071719	11:56:32	12:07:01	627279	5.0.10.0	5_exp_RW	63	Rpleas_acq	CS_A	JQQJ	LWWL	DXXD	YFFY	ZHHZ	CPPC	vertrauen	küssen	gütig	sonnig	träumen	genießen	versagen	krank	gierig	sterben	töten	gemein	1	acq_USpleas_CSpleas2_RW	acq4567_RW	6	8	400	1	300	300	356	50	0	1	1	blank2r.bmp	0	1	+	0	1	blank2r.bmp	492	1	LWWL	492	1	blank2r.bmp	572	1	sonnig	866	1	!	1239	1	!	1252	0	0	0	0	0	0	0	0	0	0	0	0	0	0	0	0	0	0	0	0	0	0	0	0	0	0	0	0	0	0
071719	11:56:32	12:07:03	629451	5.0.10.0	5_exp_RW	63	Rpleas_acq	CS_A	JQQJ	LWWL	DXXD	YFFY	ZHHZ	CPPC	vertrauen	küssen	gütig	sonnig	träumen	genießen	versagen	krank	gierig	sterben	töten	gemein	1	acq_USunple_CSunple2_RW	acq4567_RW	6	9	400	1	300	300	377	46	0	1	1	blank2r.bmp	0	1	+	0	1	blank2r.bmp	492	1	YFFY	492	1	blank2r.bmp	572	1	sterben	866	1	!	1239	1	!	1279	0	0	0	0	0	0	0	0	0	0	0	0	0	0	0	0	0	0	0	0	0	0	0	0	0	0	0	0	0	0
071719	11:56:32	12:07:05	631624	5.0.10.0	5_exp_RW	63	Rpleas_acq	CS_A	JQQJ	LWWL	DXXD	YFFY	ZHHZ	CPPC	vertrauen	küssen	gütig	sonnig	träumen	genießen	versagen	krank	gierig	sterben	töten	gemein	1	acq_USpleas_CSpleas1_RW	acq4567_RW	6	10	400	1	300	300	363	50	0	1	1	blank2r.bmp	0	1	+	0	1	blank2r.bmp	492	1	JQQJ	492	1	blank2r.bmp	572	2	küssen	866	1	!	1239	1	!	1266	0	0	0	0	0	0	0	0	0	0	0	0	0	0	0	0	0	0	0	0	0	0	0	0	0	0	0	0	0	0
071719	11:56:32	12:07:07	633769	5.0.10.0	5_exp_RW	63	Rpleas_acq	CS_A	JQQJ	LWWL	DXXD	YFFY	ZHHZ	CPPC	vertrauen	küssen	gütig	sonnig	träumen	genießen	versagen	krank	gierig	sterben	töten	gemein	1	acq_USunple_CSunple1_RW	acq4567_RW	6	11	400	1	300	300	357	46	0	1	1	blank2r.bmp	0	1	+	0	1	blank2r.bmp	492	1	DXXD	492	1	blank2r.bmp	572	1	versagen	866	1	!	1239	1	!	1252	0	0	0	0	0	0	0	0	0	0	0	0	0	0	0	0	0	0	0	0	0	0	0	0	0	0	0	0	0	0
071719	11:56:32	12:07:09	635929	5.0.10.0	5_exp_RW	63	Rpleas_acq	CS_A	JQQJ	LWWL	DXXD	YFFY	ZHHZ	CPPC	vertrauen	küssen	gütig	sonnig	träumen	genießen	versagen	krank	gierig	sterben	töten	gemein	1	acq_USunple_CSunple1_RW	acq4567_RW	6	12	400	1	300	300	366	46	0	1	1	blank2r.bmp	0	1	+	0	1	blank2r.bmp	492	1	DXXD	492	1	blank2r.bmp	572	2	krank	866	1	!	1239	1	!	1266	0	0	0	0	0	0	0	0	0	0	0	0	0	0	0	0	0	0	0	0	0	0	0	0	0	0	0	0	0	0
