date	time	script.currenttime	script.elapsedtime	build	script.currentexpt	subject	expressions.LRpleas_acq	expressions.conditionCS_A	expressions.CSpleas_1	expressions.CSpleas_2	expressions.CSunple_1	expressions.CSunple_2	expressions.distractor_1	expressions.distractor_2	expressions.US_pleas1	expressions.US_pleas2	expressions.US_pleas3	expressions.US_pleas4	expressions.US_pleas5	expressions.US_pleas6	expressions.US_unple1	expressions.US_unple2	expressions.US_unple3	expressions.US_unple4	expressions.US_unple5	expressions.US_unple6	counter.positions_noRW	trialcode	blockcode	blocknum	trialnum	windowcenter	inwindow	pretrialpause	posttrialpause	latency	response	expressions.correctedscore	correct	stimulusnumber1	stimulusitem1	stimulusonset1	stimulusnumber2	stimulusitem2	stimulusonset2	stimulusnumber3	stimulusitem3	stimulusonset3	stimulusnumber4	stimulusitem4	stimulusonset4	stimulusnumber5	stimulusitem5	stimulusonset5	stimulusnumber6	stimulusitem6	stimulusonset6	stimulusnumber7	stimulusitem7	stimulusonset7	stimulusnumber8	stimulusitem8	stimulusonset8	stimulusnumber9	stimulusitem9	stimulusonset9	stimulusnumber10	stimulusitem10	stimulusonset10	stimulusnumber11	stimulusitem11	stimulusonset11	stimulusnumber12	stimulusitem12	stimulusonset12	stimulusnumber13	stimulusitem13	stimulusonset13	stimulusnumber14	stimulusitem14	stimulusonset14	stimulusnumber15	stimulusitem15	stimulusonset15	stimulusnumber16	stimulusitem16	stimulusonset16	stimulusnumber17	stimulusitem17	stimulusonset17	stimulusnumber18	stimulusitem18	stimulusonset18
073019	13:09:52	13:12:22	149365	5.0.10.0	5_exp_RW	91	Rpleas_acq	CS_A	LWWL	DXXD	ZHHZ	YFFY	JQQJ	CPPC	genießen	sonnig	gütig	küssen	vertrauen	träumen	gemein	sterben	gierig	krank	versagen	töten	1	acq_USpleas_CSpleas2_RW	acq1_RW	1	1	0	0	300	300	1288	50	0	1	1	blank2r.bmp	0	1	+	0	1	blank2r.bmp	492	1	DXXD	492	1	blank2r.bmp	572	1	küssen	866	0	0	0	0	0	0	0	0	0	0	0	0	0	0	0	0	0	0	0	0	0	0	0	0	0	0	0	0	0	0	0	0	0	0	0	0
073019	13:09:52	13:12:24	151418	5.0.10.0	5_exp_RW	91	Rpleas_acq	CS_A	LWWL	DXXD	ZHHZ	YFFY	JQQJ	CPPC	genießen	sonnig	gütig	küssen	vertrauen	träumen	gemein	sterben	gierig	krank	versagen	töten	1	acq_USunple_CSunple1_RW	acq1_RW	1	2	0	0	300	300	569	46	0	1	1	blank2r.bmp	0	1	+	0	1	blank2r.bmp	492	1	ZHHZ	492	1	blank2r.bmp	572	1	gemein	866	0	0	0	0	0	0	0	0	0	0	0	0	0	0	0	0	0	0	0	0	0	0	0	0	0	0	0	0	0	0	0	0	0	0	0	0
073019	13:09:52	13:12:26	153377	5.0.10.0	5_exp_RW	91	Rpleas_acq	CS_A	LWWL	DXXD	ZHHZ	YFFY	JQQJ	CPPC	genießen	sonnig	gütig	küssen	vertrauen	träumen	gemein	sterben	gierig	krank	versagen	töten	1	acq_USunple_CSunple2_RW	acq1_RW	1	3	0	0	300	300	482	46	0	1	1	blank2r.bmp	0	1	+	0	1	blank2r.bmp	492	1	YFFY	492	1	blank2r.bmp	572	2	versagen	866	0	0	0	0	0	0	0	0	0	0	0	0	0	0	0	0	0	0	0	0	0	0	0	0	0	0	0	0	0	0	0	0	0	0	0	0
073019	13:09:52	13:12:28	155283	5.0.10.0	5_exp_RW	91	Rpleas_acq	CS_A	LWWL	DXXD	ZHHZ	YFFY	JQQJ	CPPC	genießen	sonnig	gütig	küssen	vertrauen	träumen	gemein	sterben	gierig	krank	versagen	töten	1	acq_USunple_CSunple1_RW	acq1_RW	1	4	0	0	300	300	414	46	0	1	1	blank2r.bmp	0	1	+	0	1	blank2r.bmp	492	1	ZHHZ	492	1	blank2r.bmp	572	2	sterben	866	0	0	0	0	0	0	0	0	0	0	0	0	0	0	0	0	0	0	0	0	0	0	0	0	0	0	0	0	0	0	0	0	0	0	0	0
073019	13:09:52	13:12:30	157255	5.0.10.0	5_exp_RW	91	Rpleas_acq	CS_A	LWWL	DXXD	ZHHZ	YFFY	JQQJ	CPPC	genießen	sonnig	gütig	küssen	vertrauen	träumen	gemein	sterben	gierig	krank	versagen	töten	1	acq_USpleas_CSpleas1_RW	acq1_RW	1	5	0	0	300	300	478	50	0	1	1	blank2r.bmp	0	1	+	0	1	blank2r.bmp	492	1	LWWL	492	1	blank2r.bmp	572	3	gütig	866	0	0	0	0	0	0	0	0	0	0	0	0	0	0	0	0	0	0	0	0	0	0	0	0	0	0	0	0	0	0	0	0	0	0	0	0
073019	13:09:52	13:12:32	159214	5.0.10.0	5_exp_RW	91	Rpleas_acq	CS_A	LWWL	DXXD	ZHHZ	YFFY	JQQJ	CPPC	genießen	sonnig	gütig	küssen	vertrauen	träumen	gemein	sterben	gierig	krank	versagen	töten	1	acq_USunple_CSunple1_RW	acq1_RW	1	6	0	0	300	300	479	46	0	1	1	blank2r.bmp	0	1	+	0	1	blank2r.bmp	492	1	ZHHZ	492	1	blank2r.bmp	572	3	gierig	866	0	0	0	0	0	0	0	0	0	0	0	0	0	0	0	0	0	0	0	0	0	0	0	0	0	0	0	0	0	0	0	0	0	0	0	0
073019	13:09:52	13:12:34	161333	5.0.10.0	5_exp_RW	91	Rpleas_acq	CS_A	LWWL	DXXD	ZHHZ	YFFY	JQQJ	CPPC	genießen	sonnig	gütig	küssen	vertrauen	träumen	gemein	sterben	gierig	krank	versagen	töten	1	acq_USpleas_CSpleas1_RW	acq1_RW	1	7	0	0	300	300	421	46	0	0	1	blank2r.bmp	0	1	+	0	1	blank2r.bmp	492	1	LWWL	492	1	blank2r.bmp	572	2	sonnig	866	1	FEHLER	1319	0	0	0	0	0	0	0	0	0	0	0	0	0	0	0	0	0	0	0	0	0	0	0	0	0	0	0	0	0	0	0	0	0
073019	13:09:52	13:12:35	163066	5.0.10.0	5_exp_RW	91	Rpleas_acq	CS_A	LWWL	DXXD	ZHHZ	YFFY	JQQJ	CPPC	genießen	sonnig	gütig	küssen	vertrauen	träumen	gemein	sterben	gierig	krank	versagen	töten	1	acq_USpleas_CSpleas2_RW	acq1_RW	1	8	0	0	300	300	469	50	0	1	1	blank2r.bmp	0	1	+	0	1	blank2r.bmp	492	1	DXXD	492	1	blank2r.bmp	572	2	vertrauen	866	0	0	0	0	0	0	0	0	0	0	0	0	0	0	0	0	0	0	0	0	0	0	0	0	0	0	0	0	0	0	0	0	0	0	0	0
073019	13:09:52	13:12:37	165012	5.0.10.0	5_exp_RW	91	Rpleas_acq	CS_A	LWWL	DXXD	ZHHZ	YFFY	JQQJ	CPPC	genießen	sonnig	gütig	küssen	vertrauen	träumen	gemein	sterben	gierig	krank	versagen	töten	1	acq_USunple_CSunple1_RW	acq1_RW	1	9	0	0	300	300	456	46	0	1	1	blank2r.bmp	0	1	+	0	1	blank2r.bmp	492	1	ZHHZ	492	1	blank2r.bmp	572	2	sterben	866	0	0	0	0	0	0	0	0	0	0	0	0	0	0	0	0	0	0	0	0	0	0	0	0	0	0	0	0	0	0	0	0	0	0	0	0
073019	13:09:52	13:12:39	166891	5.0.10.0	5_exp_RW	91	Rpleas_acq	CS_A	LWWL	DXXD	ZHHZ	YFFY	JQQJ	CPPC	genießen	sonnig	gütig	küssen	vertrauen	träumen	gemein	sterben	gierig	krank	versagen	töten	1	acq_USpleas_CSpleas1_RW	acq1_RW	1	10	0	0	300	300	399	50	0	1	1	blank2r.bmp	0	1	+	0	1	blank2r.bmp	492	1	LWWL	492	1	blank2r.bmp	572	1	genießen	866	0	0	0	0	0	0	0	0	0	0	0	0	0	0	0	0	0	0	0	0	0	0	0	0	0	0	0	0	0	0	0	0	0	0	0	0
073019	13:09:52	13:12:41	168757	5.0.10.0	5_exp_RW	91	Rpleas_acq	CS_A	LWWL	DXXD	ZHHZ	YFFY	JQQJ	CPPC	genießen	sonnig	gütig	küssen	vertrauen	träumen	gemein	sterben	gierig	krank	versagen	töten	1	acq_USunple_CSunple2_RW	acq1_RW	1	11	0	0	300	300	395	46	0	1	1	blank2r.bmp	0	1	+	0	1	blank2r.bmp	492	1	YFFY	492	1	blank2r.bmp	572	3	töten	866	0	0	0	0	0	0	0	0	0	0	0	0	0	0	0	0	0	0	0	0	0	0	0	0	0	0	0	0	0	0	0	0	0	0	0	0
073019	13:09:52	13:12:43	170623	5.0.10.0	5_exp_RW	91	Rpleas_acq	CS_A	LWWL	DXXD	ZHHZ	YFFY	JQQJ	CPPC	genießen	sonnig	gütig	küssen	vertrauen	träumen	gemein	sterben	gierig	krank	versagen	töten	1	acq_USpleas_CSpleas1_RW	acq1_RW	1	12	0	0	300	300	382	50	0	1	1	blank2r.bmp	0	1	+	0	1	blank2r.bmp	492	1	LWWL	492	1	blank2r.bmp	572	1	genießen	866	0	0	0	0	0	0	0	0	0	0	0	0	0	0	0	0	0	0	0	0	0	0	0	0	0	0	0	0	0	0	0	0	0	0	0	0
073019	13:09:52	13:12:45	172636	5.0.10.0	5_exp_RW	91	Rpleas_acq	CS_A	LWWL	DXXD	ZHHZ	YFFY	JQQJ	CPPC	genießen	sonnig	gütig	küssen	vertrauen	träumen	gemein	sterben	gierig	krank	versagen	töten	1	acq_USpleas_CSpleas2_RW	acq1_RW	1	13	0	0	300	300	521	50	0	1	1	blank2r.bmp	0	1	+	0	1	blank2r.bmp	492	1	DXXD	492	1	blank2r.bmp	572	3	träumen	866	0	0	0	0	0	0	0	0	0	0	0	0	0	0	0	0	0	0	0	0	0	0	0	0	0	0	0	0	0	0	0	0	0	0	0	0
073019	13:09:52	13:12:47	174515	5.0.10.0	5_exp_RW	91	Rpleas_acq	CS_A	LWWL	DXXD	ZHHZ	YFFY	JQQJ	CPPC	genießen	sonnig	gütig	küssen	vertrauen	träumen	gemein	sterben	gierig	krank	versagen	töten	1	acq_USunple_CSunple2_RW	acq1_RW	1	14	0	0	300	300	404	46	0	1	1	blank2r.bmp	0	1	+	0	1	blank2r.bmp	492	1	YFFY	492	1	blank2r.bmp	572	1	krank	866	0	0	0	0	0	0	0	0	0	0	0	0	0	0	0	0	0	0	0	0	0	0	0	0	0	0	0	0	0	0	0	0	0	0	0	0
073019	13:09:52	13:12:49	176421	5.0.10.0	5_exp_RW	91	Rpleas_acq	CS_A	LWWL	DXXD	ZHHZ	YFFY	JQQJ	CPPC	genießen	sonnig	gütig	küssen	vertrauen	träumen	gemein	sterben	gierig	krank	versagen	töten	1	acq_USunple_CSunple2_RW	acq1_RW	1	15	0	0	300	300	414	46	0	1	1	blank2r.bmp	0	1	+	0	1	blank2r.bmp	492	1	YFFY	492	1	blank2r.bmp	572	1	krank	866	0	0	0	0	0	0	0	0	0	0	0	0	0	0	0	0	0	0	0	0	0	0	0	0	0	0	0	0	0	0	0	0	0	0	0	0
073019	13:09:52	13:12:51	178193	5.0.10.0	5_exp_RW	91	Rpleas_acq	CS_A	LWWL	DXXD	ZHHZ	YFFY	JQQJ	CPPC	genießen	sonnig	gütig	küssen	vertrauen	träumen	gemein	sterben	gierig	krank	versagen	töten	1	acq_USpleas_CSpleas2_RW	acq1_RW	1	16	0	0	300	300	289	50	0	1	1	blank2r.bmp	0	1	+	0	1	blank2r.bmp	492	1	DXXD	492	1	blank2r.bmp	572	1	küssen	866	0	0	0	0	0	0	0	0	0	0	0	0	0	0	0	0	0	0	0	0	0	0	0	0	0	0	0	0	0	0	0	0	0	0	0	0
073019	13:09:52	13:13:24	212153	5.0.10.0	5_exp_RW	91	Rpleas_acq	CS_A	LWWL	DXXD	ZHHZ	YFFY	JQQJ	CPPC	genießen	sonnig	gütig	küssen	vertrauen	träumen	gemein	sterben	gierig	krank	versagen	töten	1	acq_USunple_CSunple1_RW	acq2_RW	2	1	480	1	300	300	512	46	0	1	1	blank2r.bmp	0	1	+	0	1	blank2r.bmp	492	1	ZHHZ	492	1	blank2r.bmp	572	3	gierig	866	1	!	1319	1	!	1412	0	0	0	0	0	0	0	0	0	0	0	0	0	0	0	0	0	0	0	0	0	0	0	0	0	0	0	0	0	0
073019	13:09:52	13:13:27	214285	5.0.10.0	5_exp_RW	91	Rpleas_acq	CS_A	LWWL	DXXD	ZHHZ	YFFY	JQQJ	CPPC	genießen	sonnig	gütig	küssen	vertrauen	träumen	gemein	sterben	gierig	krank	versagen	töten	1	acq_USunple_CSunple2_RW	acq2_RW	2	2	480	0	300	300	364	46	0	1	1	blank2r.bmp	0	1	+	0	1	blank2r.bmp	492	1	YFFY	492	1	blank2r.bmp	572	3	töten	866	1	!	-1	1	!	-1	0	0	0	0	0	0	0	0	0	0	0	0	0	0	0	0	0	0	0	0	0	0	0	0	0	0	0	0	0	0
073019	13:09:52	13:13:29	216831	5.0.10.0	5_exp_RW	91	Rpleas_acq	CS_A	LWWL	DXXD	ZHHZ	YFFY	JQQJ	CPPC	genießen	sonnig	gütig	küssen	vertrauen	träumen	gemein	sterben	gierig	krank	versagen	töten	1	acq_USpleas_CSpleas1_RW	acq2_RW	2	3	480	0	300	300	749	50	0	1	1	blank2r.bmp	0	1	+	0	1	blank2r.bmp	492	1	LWWL	492	1	blank2r.bmp	572	3	gütig	866	1	!	1319	1	!	-1	0	0	0	0	0	0	0	0	0	0	0	0	0	0	0	0	0	0	0	0	0	0	0	0	0	0	0	0	0	0
073019	13:09:52	13:13:32	219257	5.0.10.0	5_exp_RW	91	Rpleas_acq	CS_A	LWWL	DXXD	ZHHZ	YFFY	JQQJ	CPPC	genießen	sonnig	gütig	küssen	vertrauen	träumen	gemein	sterben	gierig	krank	versagen	töten	1	acq_USunple_CSunple1_RW	acq2_RW	2	4	480	0	300	300	647	46	0	1	1	blank2r.bmp	0	1	+	0	1	blank2r.bmp	492	1	ZHHZ	492	1	blank2r.bmp	572	1	gemein	866	1	!	1319	1	!	-1	0	0	0	0	0	0	0	0	0	0	0	0	0	0	0	0	0	0	0	0	0	0	0	0	0	0	0	0	0	0
073019	13:09:52	13:13:34	221376	5.0.10.0	5_exp_RW	91	Rpleas_acq	CS_A	LWWL	DXXD	ZHHZ	YFFY	JQQJ	CPPC	genießen	sonnig	gütig	küssen	vertrauen	träumen	gemein	sterben	gierig	krank	versagen	töten	1	acq_USpleas_CSpleas1_RW	acq2_RW	2	5	480	0	300	300	333	50	0	1	1	blank2r.bmp	0	1	+	0	1	blank2r.bmp	492	1	LWWL	492	1	blank2r.bmp	572	2	sonnig	866	1	!	-1	1	!	-1	0	0	0	0	0	0	0	0	0	0	0	0	0	0	0	0	0	0	0	0	0	0	0	0	0	0	0	0	0	0
073019	13:09:52	13:13:36	223548	5.0.10.0	5_exp_RW	91	Rpleas_acq	CS_A	LWWL	DXXD	ZHHZ	YFFY	JQQJ	CPPC	genießen	sonnig	gütig	küssen	vertrauen	träumen	gemein	sterben	gierig	krank	versagen	töten	1	acq_USpleas_CSpleas1_RW	acq2_RW	2	6	480	0	300	300	395	50	0	1	1	blank2r.bmp	0	1	+	0	1	blank2r.bmp	492	1	LWWL	492	1	blank2r.bmp	572	2	sonnig	866	1	!	-1	1	!	-1	0	0	0	0	0	0	0	0	0	0	0	0	0	0	0	0	0	0	0	0	0	0	0	0	0	0	0	0	0	0
073019	13:09:52	13:13:38	226027	5.0.10.0	5_exp_RW	91	Rpleas_acq	CS_A	LWWL	DXXD	ZHHZ	YFFY	JQQJ	CPPC	genießen	sonnig	gütig	küssen	vertrauen	träumen	gemein	sterben	gierig	krank	versagen	töten	1	acq_USpleas_CSpleas2_RW	acq2_RW	2	7	480	0	300	300	700	50	0	1	1	blank2r.bmp	0	1	+	0	1	blank2r.bmp	492	1	DXXD	492	1	blank2r.bmp	572	2	vertrauen	866	1	!	1319	1	!	-1	0	0	0	0	0	0	0	0	0	0	0	0	0	0	0	0	0	0	0	0	0	0	0	0	0	0	0	0	0	0
073019	13:09:52	13:13:40	228120	5.0.10.0	5_exp_RW	91	Rpleas_acq	CS_A	LWWL	DXXD	ZHHZ	YFFY	JQQJ	CPPC	genießen	sonnig	gütig	küssen	vertrauen	träumen	gemein	sterben	gierig	krank	versagen	töten	1	acq_USpleas_CSpleas2_RW	acq2_RW	2	8	480	0	300	300	308	50	0	1	1	blank2r.bmp	0	1	+	0	1	blank2r.bmp	492	1	DXXD	492	1	blank2r.bmp	572	3	träumen	866	1	!	-1	1	!	-1	0	0	0	0	0	0	0	0	0	0	0	0	0	0	0	0	0	0	0	0	0	0	0	0	0	0	0	0	0	0
073019	13:09:52	13:13:43	230239	5.0.10.0	5_exp_RW	91	Rpleas_acq	CS_A	LWWL	DXXD	ZHHZ	YFFY	JQQJ	CPPC	genießen	sonnig	gütig	küssen	vertrauen	träumen	gemein	sterben	gierig	krank	versagen	töten	1	acq_USunple_CSunple1_RW	acq2_RW	2	9	480	0	300	300	342	46	0	1	1	blank2r.bmp	0	1	+	0	1	blank2r.bmp	492	1	ZHHZ	492	1	blank2r.bmp	572	2	sterben	866	1	!	-1	1	!	-1	0	0	0	0	0	0	0	0	0	0	0	0	0	0	0	0	0	0	0	0	0	0	0	0	0	0	0	0	0	0
073019	13:09:52	13:13:45	232544	5.0.10.0	5_exp_RW	91	Rpleas_acq	CS_A	LWWL	DXXD	ZHHZ	YFFY	JQQJ	CPPC	genießen	sonnig	gütig	küssen	vertrauen	träumen	gemein	sterben	gierig	krank	versagen	töten	1	acq_USunple_CSunple2_RW	acq2_RW	2	10	480	1	300	300	497	46	0	1	1	blank2r.bmp	0	1	+	0	1	blank2r.bmp	492	1	YFFY	492	1	blank2r.bmp	572	2	versagen	866	1	!	1319	1	!	1399	0	0	0	0	0	0	0	0	0	0	0	0	0	0	0	0	0	0	0	0	0	0	0	0	0	0	0	0	0	0
073019	13:09:52	13:13:47	234970	5.0.10.0	5_exp_RW	91	Rpleas_acq	CS_A	LWWL	DXXD	ZHHZ	YFFY	JQQJ	CPPC	genießen	sonnig	gütig	küssen	vertrauen	träumen	gemein	sterben	gierig	krank	versagen	töten	1	acq_USunple_CSunple2_RW	acq2_RW	2	11	480	0	300	300	656	46	0	1	1	blank2r.bmp	0	1	+	0	1	blank2r.bmp	492	1	YFFY	492	1	blank2r.bmp	572	3	töten	866	1	!	1319	1	!	-1	0	0	0	0	0	0	0	0	0	0	0	0	0	0	0	0	0	0	0	0	0	0	0	0	0	0	0	0	0	0
073019	13:09:52	13:13:50	237476	5.0.10.0	5_exp_RW	91	Rpleas_acq	CS_A	LWWL	DXXD	ZHHZ	YFFY	JQQJ	CPPC	genießen	sonnig	gütig	küssen	vertrauen	träumen	gemein	sterben	gierig	krank	versagen	töten	1	acq_USunple_CSunple1_RW	acq2_RW	2	12	480	1	300	300	474	50	0	0	1	blank2r.bmp	0	1	+	0	1	blank2r.bmp	492	1	ZHHZ	492	1	blank2r.bmp	572	3	gierig	866	1	FEHLER	1692	1	!	1319	1	!	1372	0	0	0	0	0	0	0	0	0	0	0	0	0	0	0	0	0	0	0	0	0	0	0	0	0	0	0
073019	13:09:52	13:13:52	239821	5.0.10.0	5_exp_RW	91	Rpleas_acq	CS_A	LWWL	DXXD	ZHHZ	YFFY	JQQJ	CPPC	genießen	sonnig	gütig	küssen	vertrauen	träumen	gemein	sterben	gierig	krank	versagen	töten	1	acq_USpleas_CSpleas1_RW	acq2_RW	2	13	480	0	300	300	559	46	0	0	1	blank2r.bmp	0	1	+	0	1	blank2r.bmp	492	1	LWWL	492	1	blank2r.bmp	572	3	gütig	866	1	FEHLER	1772	1	!	1319	1	!	-1	0	0	0	0	0	0	0	0	0	0	0	0	0	0	0	0	0	0	0	0	0	0	0	0	0	0	0
073019	13:09:52	13:13:54	241861	5.0.10.0	5_exp_RW	91	Rpleas_acq	CS_A	LWWL	DXXD	ZHHZ	YFFY	JQQJ	CPPC	genießen	sonnig	gütig	küssen	vertrauen	träumen	gemein	sterben	gierig	krank	versagen	töten	1	acq_USunple_CSunple2_RW	acq2_RW	2	14	480	1	300	300	459	46	0	1	1	blank2r.bmp	0	1	+	0	1	blank2r.bmp	492	1	YFFY	492	1	blank2r.bmp	572	2	versagen	866	1	!	1319	1	!	1359	0	0	0	0	0	0	0	0	0	0	0	0	0	0	0	0	0	0	0	0	0	0	0	0	0	0	0	0	0	0
073019	13:09:52	13:13:57	244220	5.0.10.0	5_exp_RW	91	Rpleas_acq	CS_A	LWWL	DXXD	ZHHZ	YFFY	JQQJ	CPPC	genießen	sonnig	gütig	küssen	vertrauen	träumen	gemein	sterben	gierig	krank	versagen	töten	1	acq_USpleas_CSpleas1_RW	acq2_RW	2	15	480	0	300	300	590	50	0	1	1	blank2r.bmp	0	1	+	0	1	blank2r.bmp	492	1	LWWL	492	1	blank2r.bmp	572	1	genießen	866	1	!	1319	1	!	-1	0	0	0	0	0	0	0	0	0	0	0	0	0	0	0	0	0	0	0	0	0	0	0	0	0	0	0	0	0	0
073019	13:09:52	13:13:59	246379	5.0.10.0	5_exp_RW	91	Rpleas_acq	CS_A	LWWL	DXXD	ZHHZ	YFFY	JQQJ	CPPC	genießen	sonnig	gütig	küssen	vertrauen	träumen	gemein	sterben	gierig	krank	versagen	töten	1	acq_USunple_CSunple2_RW	acq2_RW	2	16	480	0	300	300	366	46	0	1	1	blank2r.bmp	0	1	+	0	1	blank2r.bmp	492	1	YFFY	492	1	blank2r.bmp	572	1	krank	866	1	!	-1	1	!	-1	0	0	0	0	0	0	0	0	0	0	0	0	0	0	0	0	0	0	0	0	0	0	0	0	0	0	0	0	0	0
073019	13:09:52	13:14:01	248698	5.0.10.0	5_exp_RW	91	Rpleas_acq	CS_A	LWWL	DXXD	ZHHZ	YFFY	JQQJ	CPPC	genießen	sonnig	gütig	küssen	vertrauen	träumen	gemein	sterben	gierig	krank	versagen	töten	1	acq_USpleas_CSpleas2_RW	acq2_RW	2	17	480	1	300	300	514	50	0	1	1	blank2r.bmp	0	1	+	0	1	blank2r.bmp	492	1	DXXD	492	1	blank2r.bmp	572	1	küssen	866	1	!	1319	1	!	1412	0	0	0	0	0	0	0	0	0	0	0	0	0	0	0	0	0	0	0	0	0	0	0	0	0	0	0	0	0	0
073019	13:09:52	13:14:03	250977	5.0.10.0	5_exp_RW	91	Rpleas_acq	CS_A	LWWL	DXXD	ZHHZ	YFFY	JQQJ	CPPC	genießen	sonnig	gütig	küssen	vertrauen	träumen	gemein	sterben	gierig	krank	versagen	töten	1	acq_USpleas_CSpleas2_RW	acq2_RW	2	18	480	1	300	300	487	50	0	1	1	blank2r.bmp	0	1	+	0	1	blank2r.bmp	492	1	DXXD	492	1	blank2r.bmp	572	2	vertrauen	866	1	!	1319	1	!	1386	0	0	0	0	0	0	0	0	0	0	0	0	0	0	0	0	0	0	0	0	0	0	0	0	0	0	0	0	0	0
073019	13:09:52	13:14:06	253403	5.0.10.0	5_exp_RW	91	Rpleas_acq	CS_A	LWWL	DXXD	ZHHZ	YFFY	JQQJ	CPPC	genießen	sonnig	gütig	küssen	vertrauen	träumen	gemein	sterben	gierig	krank	versagen	töten	1	acq_USunple_CSunple1_RW	acq2_RW	2	19	480	0	300	300	655	46	0	1	1	blank2r.bmp	0	1	+	0	1	blank2r.bmp	492	1	ZHHZ	492	1	blank2r.bmp	572	1	gemein	866	1	!	1319	1	!	-1	0	0	0	0	0	0	0	0	0	0	0	0	0	0	0	0	0	0	0	0	0	0	0	0	0	0	0	0	0	0
073019	13:09:52	13:14:08	255735	5.0.10.0	5_exp_RW	91	Rpleas_acq	CS_A	LWWL	DXXD	ZHHZ	YFFY	JQQJ	CPPC	genießen	sonnig	gütig	küssen	vertrauen	träumen	gemein	sterben	gierig	krank	versagen	töten	1	acq_USpleas_CSpleas2_RW	acq2_RW	2	20	480	1	300	300	531	50	0	1	1	blank2r.bmp	0	1	+	0	1	blank2r.bmp	492	1	DXXD	492	1	blank2r.bmp	572	3	träumen	866	1	!	1319	1	!	1426	0	0	0	0	0	0	0	0	0	0	0	0	0	0	0	0	0	0	0	0	0	0	0	0	0	0	0	0	0	0
073019	13:09:52	13:14:10	258067	5.0.10.0	5_exp_RW	91	Rpleas_acq	CS_A	LWWL	DXXD	ZHHZ	YFFY	JQQJ	CPPC	genießen	sonnig	gütig	küssen	vertrauen	träumen	gemein	sterben	gierig	krank	versagen	töten	1	acq_USunple_CSunple2_RW	acq2_RW	2	21	480	0	300	300	563	46	0	1	1	blank2r.bmp	0	1	+	0	1	blank2r.bmp	492	1	YFFY	492	1	blank2r.bmp	572	3	töten	866	1	!	1319	1	!	-1	0	0	0	0	0	0	0	0	0	0	0	0	0	0	0	0	0	0	0	0	0	0	0	0	0	0	0	0	0	0
073019	13:09:52	13:14:13	260386	5.0.10.0	5_exp_RW	91	Rpleas_acq	CS_A	LWWL	DXXD	ZHHZ	YFFY	JQQJ	CPPC	genießen	sonnig	gütig	küssen	vertrauen	träumen	gemein	sterben	gierig	krank	versagen	töten	1	acq_USpleas_CSpleas2_RW	acq2_RW	2	22	480	1	300	300	514	50	0	1	1	blank2r.bmp	0	1	+	0	1	blank2r.bmp	492	1	DXXD	492	1	blank2r.bmp	572	1	küssen	866	1	!	1319	1	!	1412	0	0	0	0	0	0	0	0	0	0	0	0	0	0	0	0	0	0	0	0	0	0	0	0	0	0	0	0	0	0
073019	13:09:52	13:14:15	262772	5.0.10.0	5_exp_RW	91	Rpleas_acq	CS_A	LWWL	DXXD	ZHHZ	YFFY	JQQJ	CPPC	genießen	sonnig	gütig	küssen	vertrauen	träumen	gemein	sterben	gierig	krank	versagen	töten	1	acq_USpleas_CSpleas1_RW	acq2_RW	2	23	480	0	300	300	615	50	0	1	1	blank2r.bmp	0	1	+	0	1	blank2r.bmp	492	1	LWWL	492	1	blank2r.bmp	572	3	gütig	866	1	!	1319	1	!	-1	0	0	0	0	0	0	0	0	0	0	0	0	0	0	0	0	0	0	0	0	0	0	0	0	0	0	0	0	0	0
073019	13:09:52	13:14:17	265091	5.0.10.0	5_exp_RW	91	Rpleas_acq	CS_A	LWWL	DXXD	ZHHZ	YFFY	JQQJ	CPPC	genießen	sonnig	gütig	küssen	vertrauen	träumen	gemein	sterben	gierig	krank	versagen	töten	1	acq_USunple_CSunple1_RW	acq2_RW	2	24	480	1	300	300	505	46	0	1	1	blank2r.bmp	0	1	+	0	1	blank2r.bmp	492	1	ZHHZ	492	1	blank2r.bmp	572	3	gierig	866	1	!	1319	1	!	1412	0	0	0	0	0	0	0	0	0	0	0	0	0	0	0	0	0	0	0	0	0	0	0	0	0	0	0	0	0	0
073019	13:09:52	13:14:36	283177	5.0.10.0	5_exp_RW	91	Rpleas_acq	CS_A	LWWL	DXXD	ZHHZ	YFFY	JQQJ	CPPC	genießen	sonnig	gütig	küssen	vertrauen	träumen	gemein	sterben	gierig	krank	versagen	töten	1	acq_USpleas_CSpleas1_RW	acq3_RW	3	1	453	0	300	300	740	50	0	1	1	blank2r.bmp	0	1	+	0	1	blank2r.bmp	492	1	LWWL	492	1	blank2r.bmp	572	1	genießen	866	1	!	1292	1	!	-1	0	0	0	0	0	0	0	0	0	0	0	0	0	0	0	0	0	0	0	0	0	0	0	0	0	0	0	0	0	0
073019	13:09:52	13:14:38	285510	5.0.10.0	5_exp_RW	91	Rpleas_acq	CS_A	LWWL	DXXD	ZHHZ	YFFY	JQQJ	CPPC	genießen	sonnig	gütig	küssen	vertrauen	träumen	gemein	sterben	gierig	krank	versagen	töten	1	acq_USunple_CSunple1_RW	acq3_RW	3	2	453	0	300	300	551	46	0	1	1	blank2r.bmp	0	1	+	0	1	blank2r.bmp	492	1	ZHHZ	492	1	blank2r.bmp	572	2	sterben	866	1	!	1292	1	!	-1	0	0	0	0	0	0	0	0	0	0	0	0	0	0	0	0	0	0	0	0	0	0	0	0	0	0	0	0	0	0
073019	13:09:52	13:14:40	287722	5.0.10.0	5_exp_RW	91	Rpleas_acq	CS_A	LWWL	DXXD	ZHHZ	YFFY	JQQJ	CPPC	genießen	sonnig	gütig	küssen	vertrauen	träumen	gemein	sterben	gierig	krank	versagen	töten	1	acq_USpleas_CSpleas1_RW	acq3_RW	3	3	453	1	300	300	399	50	0	1	1	blank2r.bmp	0	1	+	0	1	blank2r.bmp	492	1	LWWL	492	1	blank2r.bmp	572	2	sonnig	866	1	!	1292	1	!	1306	0	0	0	0	0	0	0	0	0	0	0	0	0	0	0	0	0	0	0	0	0	0	0	0	0	0	0	0	0	0
073019	13:09:52	13:14:42	289974	5.0.10.0	5_exp_RW	91	Rpleas_acq	CS_A	LWWL	DXXD	ZHHZ	YFFY	JQQJ	CPPC	genießen	sonnig	gütig	küssen	vertrauen	träumen	gemein	sterben	gierig	krank	versagen	töten	1	acq_USunple_CSunple2_RW	acq3_RW	3	4	453	1	300	300	462	46	0	1	1	blank2r.bmp	0	1	+	0	1	blank2r.bmp	492	1	YFFY	492	1	blank2r.bmp	572	2	versagen	866	1	!	1292	1	!	1359	0	0	0	0	0	0	0	0	0	0	0	0	0	0	0	0	0	0	0	0	0	0	0	0	0	0	0	0	0	0
073019	13:09:52	13:14:45	292307	5.0.10.0	5_exp_RW	91	Rpleas_acq	CS_A	LWWL	DXXD	ZHHZ	YFFY	JQQJ	CPPC	genießen	sonnig	gütig	küssen	vertrauen	träumen	gemein	sterben	gierig	krank	versagen	töten	1	acq_USunple_CSunple2_RW	acq3_RW	3	5	453	0	300	300	565	46	0	1	1	blank2r.bmp	0	1	+	0	1	blank2r.bmp	492	1	YFFY	492	1	blank2r.bmp	572	1	krank	866	1	!	1292	1	!	-1	0	0	0	0	0	0	0	0	0	0	0	0	0	0	0	0	0	0	0	0	0	0	0	0	0	0	0	0	0	0
073019	13:09:52	13:14:47	294639	5.0.10.0	5_exp_RW	91	Rpleas_acq	CS_A	LWWL	DXXD	ZHHZ	YFFY	JQQJ	CPPC	genießen	sonnig	gütig	küssen	vertrauen	träumen	gemein	sterben	gierig	krank	versagen	töten	1	acq_USunple_CSunple1_RW	acq3_RW	3	6	453	0	300	300	321	50	0	0	1	blank2r.bmp	0	1	+	0	1	blank2r.bmp	492	1	ZHHZ	492	1	blank2r.bmp	572	1	gemein	866	1	FEHLER	1532	1	!	-1	1	!	-1	0	0	0	0	0	0	0	0	0	0	0	0	0	0	0	0	0	0	0	0	0	0	0	0	0	0	0
073019	13:09:52	13:14:52	299650	5.0.10.0	5_exp_RW	91	Rpleas_acq	CS_A	LWWL	DXXD	ZHHZ	YFFY	JQQJ	CPPC	genießen	sonnig	gütig	küssen	vertrauen	träumen	gemein	sterben	gierig	krank	versagen	töten	1	acq_USpleas_CSpleas2_RW	acq3_RW	3	7	453	0	300	300	3450	50	0	1	1	blank2r.bmp	0	1	+	0	1	blank2r.bmp	492	1	DXXD	492	1	blank2r.bmp	572	2	vertrauen	866	1	!	1292	1	!	-1	0	0	0	0	0	0	0	0	0	0	0	0	0	0	0	0	0	0	0	0	0	0	0	0	0	0	0	0	0	0
073019	13:09:52	13:14:54	301863	5.0.10.0	5_exp_RW	91	Rpleas_acq	CS_A	LWWL	DXXD	ZHHZ	YFFY	JQQJ	CPPC	genießen	sonnig	gütig	küssen	vertrauen	träumen	gemein	sterben	gierig	krank	versagen	töten	1	acq_USunple_CSunple1_RW	acq3_RW	3	8	453	1	300	300	407	46	0	1	1	blank2r.bmp	0	1	+	0	1	blank2r.bmp	492	1	ZHHZ	492	1	blank2r.bmp	572	1	gemein	866	1	!	1292	1	!	1306	0	0	0	0	0	0	0	0	0	0	0	0	0	0	0	0	0	0	0	0	0	0	0	0	0	0	0	0	0	0
073019	13:09:52	13:14:57	304209	5.0.10.0	5_exp_RW	91	Rpleas_acq	CS_A	LWWL	DXXD	ZHHZ	YFFY	JQQJ	CPPC	genießen	sonnig	gütig	küssen	vertrauen	träumen	gemein	sterben	gierig	krank	versagen	töten	1	acq_USpleas_CSpleas2_RW	acq3_RW	3	9	453	0	300	300	578	50	0	1	1	blank2r.bmp	0	1	+	0	1	blank2r.bmp	492	1	DXXD	492	1	blank2r.bmp	572	3	träumen	866	1	!	1292	1	!	-1	0	0	0	0	0	0	0	0	0	0	0	0	0	0	0	0	0	0	0	0	0	0	0	0	0	0	0	0	0	0
073019	13:09:52	13:14:59	306421	5.0.10.0	5_exp_RW	91	Rpleas_acq	CS_A	LWWL	DXXD	ZHHZ	YFFY	JQQJ	CPPC	genießen	sonnig	gütig	küssen	vertrauen	träumen	gemein	sterben	gierig	krank	versagen	töten	1	acq_USpleas_CSpleas1_RW	acq3_RW	3	10	453	1	300	300	399	50	0	1	1	blank2r.bmp	0	1	+	0	1	blank2r.bmp	492	1	LWWL	492	1	blank2r.bmp	572	1	genießen	866	1	!	1292	1	!	1306	0	0	0	0	0	0	0	0	0	0	0	0	0	0	0	0	0	0	0	0	0	0	0	0	0	0	0	0	0	0
073019	13:09:52	13:15:01	308540	5.0.10.0	5_exp_RW	91	Rpleas_acq	CS_A	LWWL	DXXD	ZHHZ	YFFY	JQQJ	CPPC	genießen	sonnig	gütig	küssen	vertrauen	träumen	gemein	sterben	gierig	krank	versagen	töten	1	acq_USunple_CSunple2_RW	acq3_RW	3	11	453	0	300	300	348	46	0	1	1	blank2r.bmp	0	1	+	0	1	blank2r.bmp	492	1	YFFY	492	1	blank2r.bmp	572	2	versagen	866	1	!	-1	1	!	-1	0	0	0	0	0	0	0	0	0	0	0	0	0	0	0	0	0	0	0	0	0	0	0	0	0	0	0	0	0	0
073019	13:09:52	13:15:03	310859	5.0.10.0	5_exp_RW	91	Rpleas_acq	CS_A	LWWL	DXXD	ZHHZ	YFFY	JQQJ	CPPC	genießen	sonnig	gütig	küssen	vertrauen	träumen	gemein	sterben	gierig	krank	versagen	töten	1	acq_USpleas_CSpleas2_RW	acq3_RW	3	12	453	1	300	300	517	50	0	1	1	blank2r.bmp	0	1	+	0	1	blank2r.bmp	492	1	DXXD	492	1	blank2r.bmp	572	3	träumen	866	1	!	1292	1	!	1412	0	0	0	0	0	0	0	0	0	0	0	0	0	0	0	0	0	0	0	0	0	0	0	0	0	0	0	0	0	0
073019	13:09:52	13:15:06	313258	5.0.10.0	5_exp_RW	91	Rpleas_acq	CS_A	LWWL	DXXD	ZHHZ	YFFY	JQQJ	CPPC	genießen	sonnig	gütig	küssen	vertrauen	träumen	gemein	sterben	gierig	krank	versagen	töten	1	acq_USunple_CSunple1_RW	acq3_RW	3	13	453	0	300	300	619	46	0	1	1	blank2r.bmp	0	1	+	0	1	blank2r.bmp	492	1	ZHHZ	492	1	blank2r.bmp	572	2	sterben	866	1	!	1292	1	!	-1	0	0	0	0	0	0	0	0	0	0	0	0	0	0	0	0	0	0	0	0	0	0	0	0	0	0	0	0	0	0
073019	13:09:52	13:15:08	315471	5.0.10.0	5_exp_RW	91	Rpleas_acq	CS_A	LWWL	DXXD	ZHHZ	YFFY	JQQJ	CPPC	genießen	sonnig	gütig	küssen	vertrauen	träumen	gemein	sterben	gierig	krank	versagen	töten	1	acq_USunple_CSunple1_RW	acq3_RW	3	14	453	1	300	300	402	46	0	1	1	blank2r.bmp	0	1	+	0	1	blank2r.bmp	492	1	ZHHZ	492	1	blank2r.bmp	572	3	gierig	866	1	!	1292	1	!	1306	0	0	0	0	0	0	0	0	0	0	0	0	0	0	0	0	0	0	0	0	0	0	0	0	0	0	0	0	0	0
073019	13:09:52	13:15:10	317590	5.0.10.0	5_exp_RW	91	Rpleas_acq	CS_A	LWWL	DXXD	ZHHZ	YFFY	JQQJ	CPPC	genießen	sonnig	gütig	küssen	vertrauen	träumen	gemein	sterben	gierig	krank	versagen	töten	1	acq_USpleas_CSpleas1_RW	acq3_RW	3	15	453	0	300	300	345	50	0	1	1	blank2r.bmp	0	1	+	0	1	blank2r.bmp	492	1	LWWL	492	1	blank2r.bmp	572	2	sonnig	866	1	!	-1	1	!	-1	0	0	0	0	0	0	0	0	0	0	0	0	0	0	0	0	0	0	0	0	0	0	0	0	0	0	0	0	0	0
073019	13:09:52	13:15:12	320082	5.0.10.0	5_exp_RW	91	Rpleas_acq	CS_A	LWWL	DXXD	ZHHZ	YFFY	JQQJ	CPPC	genießen	sonnig	gütig	küssen	vertrauen	träumen	gemein	sterben	gierig	krank	versagen	töten	1	acq_USpleas_CSpleas2_RW	acq3_RW	3	16	453	1	300	300	470	46	0	0	1	blank2r.bmp	0	1	+	0	1	blank2r.bmp	492	1	DXXD	492	1	blank2r.bmp	572	2	vertrauen	866	1	FEHLER	1692	1	!	1292	1	!	1372	0	0	0	0	0	0	0	0	0	0	0	0	0	0	0	0	0	0	0	0	0	0	0	0	0	0	0
073019	13:09:52	13:15:15	322175	5.0.10.0	5_exp_RW	91	Rpleas_acq	CS_A	LWWL	DXXD	ZHHZ	YFFY	JQQJ	CPPC	genießen	sonnig	gütig	küssen	vertrauen	träumen	gemein	sterben	gierig	krank	versagen	töten	1	acq_USunple_CSunple2_RW	acq3_RW	3	17	453	1	300	300	506	46	0	1	1	blank2r.bmp	0	1	+	0	1	blank2r.bmp	492	1	YFFY	492	1	blank2r.bmp	572	3	töten	866	1	!	1292	1	!	1412	0	0	0	0	0	0	0	0	0	0	0	0	0	0	0	0	0	0	0	0	0	0	0	0	0	0	0	0	0	0
073019	13:09:52	13:15:17	324267	5.0.10.0	5_exp_RW	91	Rpleas_acq	CS_A	LWWL	DXXD	ZHHZ	YFFY	JQQJ	CPPC	genießen	sonnig	gütig	küssen	vertrauen	träumen	gemein	sterben	gierig	krank	versagen	töten	1	acq_USunple_CSunple2_RW	acq3_RW	3	18	453	0	300	300	325	46	0	1	1	blank2r.bmp	0	1	+	0	1	blank2r.bmp	492	1	YFFY	492	1	blank2r.bmp	572	1	krank	866	1	!	-1	1	!	-1	0	0	0	0	0	0	0	0	0	0	0	0	0	0	0	0	0	0	0	0	0	0	0	0	0	0	0	0	0	0
073019	13:09:52	13:15:19	326373	5.0.10.0	5_exp_RW	91	Rpleas_acq	CS_A	LWWL	DXXD	ZHHZ	YFFY	JQQJ	CPPC	genießen	sonnig	gütig	küssen	vertrauen	träumen	gemein	sterben	gierig	krank	versagen	töten	1	acq_USpleas_CSpleas2_RW	acq3_RW	3	19	453	0	300	300	323	50	0	1	1	blank2r.bmp	0	1	+	0	1	blank2r.bmp	492	1	DXXD	492	1	blank2r.bmp	572	1	küssen	866	1	!	-1	1	!	-1	0	0	0	0	0	0	0	0	0	0	0	0	0	0	0	0	0	0	0	0	0	0	0	0	0	0	0	0	0	0
073019	13:09:52	13:15:21	328679	5.0.10.0	5_exp_RW	91	Rpleas_acq	CS_A	LWWL	DXXD	ZHHZ	YFFY	JQQJ	CPPC	genießen	sonnig	gütig	küssen	vertrauen	träumen	gemein	sterben	gierig	krank	versagen	töten	1	acq_USpleas_CSpleas1_RW	acq3_RW	3	20	453	1	300	300	497	50	0	1	1	blank2r.bmp	0	1	+	0	1	blank2r.bmp	492	1	LWWL	492	1	blank2r.bmp	572	3	gütig	866	1	!	1292	1	!	1399	0	0	0	0	0	0	0	0	0	0	0	0	0	0	0	0	0	0	0	0	0	0	0	0	0	0	0	0	0	0
073019	13:09:52	13:15:23	330758	5.0.10.0	5_exp_RW	91	Rpleas_acq	CS_A	LWWL	DXXD	ZHHZ	YFFY	JQQJ	CPPC	genießen	sonnig	gütig	küssen	vertrauen	träumen	gemein	sterben	gierig	krank	versagen	töten	1	acq_USpleas_CSpleas2_RW	acq3_RW	3	21	453	0	300	300	317	50	0	1	1	blank2r.bmp	0	1	+	0	1	blank2r.bmp	492	1	DXXD	492	1	blank2r.bmp	572	2	vertrauen	866	1	!	-1	1	!	-1	0	0	0	0	0	0	0	0	0	0	0	0	0	0	0	0	0	0	0	0	0	0	0	0	0	0	0	0	0	0
073019	13:09:52	13:15:25	333010	5.0.10.0	5_exp_RW	91	Rpleas_acq	CS_A	LWWL	DXXD	ZHHZ	YFFY	JQQJ	CPPC	genießen	sonnig	gütig	küssen	vertrauen	träumen	gemein	sterben	gierig	krank	versagen	töten	1	acq_USunple_CSunple2_RW	acq3_RW	3	22	453	1	300	300	445	46	0	1	1	blank2r.bmp	0	1	+	0	1	blank2r.bmp	492	1	YFFY	492	1	blank2r.bmp	572	3	töten	866	1	!	1292	1	!	1346	0	0	0	0	0	0	0	0	0	0	0	0	0	0	0	0	0	0	0	0	0	0	0	0	0	0	0	0	0	0
073019	13:09:52	13:15:28	335223	5.0.10.0	5_exp_RW	91	Rpleas_acq	CS_A	LWWL	DXXD	ZHHZ	YFFY	JQQJ	CPPC	genießen	sonnig	gütig	küssen	vertrauen	träumen	gemein	sterben	gierig	krank	versagen	töten	1	acq_USpleas_CSpleas1_RW	acq3_RW	3	23	453	1	300	300	419	50	0	1	1	blank2r.bmp	0	1	+	0	1	blank2r.bmp	492	1	LWWL	492	1	blank2r.bmp	572	3	gütig	866	1	!	1292	1	!	1319	0	0	0	0	0	0	0	0	0	0	0	0	0	0	0	0	0	0	0	0	0	0	0	0	0	0	0	0	0	0
073019	13:09:52	13:15:30	337462	5.0.10.0	5_exp_RW	91	Rpleas_acq	CS_A	LWWL	DXXD	ZHHZ	YFFY	JQQJ	CPPC	genießen	sonnig	gütig	küssen	vertrauen	träumen	gemein	sterben	gierig	krank	versagen	töten	1	acq_USunple_CSunple1_RW	acq3_RW	3	24	453	1	300	300	448	46	0	1	1	blank2r.bmp	0	1	+	0	1	blank2r.bmp	492	1	ZHHZ	492	1	blank2r.bmp	572	2	sterben	866	1	!	1292	1	!	1346	0	0	0	0	0	0	0	0	0	0	0	0	0	0	0	0	0	0	0	0	0	0	0	0	0	0	0	0	0	0
073019	13:09:52	13:15:48	355308	5.0.10.0	5_exp_RW	91	Rpleas_acq	CS_A	LWWL	DXXD	ZHHZ	YFFY	JQQJ	CPPC	genießen	sonnig	gütig	küssen	vertrauen	träumen	gemein	sterben	gierig	krank	versagen	töten	1	acq_USunple_CSunple2_RW	acq4567_RW	4	1	400	0	300	300	532	46	0	1	1	blank2r.bmp	0	1	+	0	1	blank2r.bmp	492	1	YFFY	492	1	blank2r.bmp	572	2	versagen	866	1	!	1239	1	!	-1	0	0	0	0	0	0	0	0	0	0	0	0	0	0	0	0	0	0	0	0	0	0	0	0	0	0	0	0	0	0
073019	13:09:52	13:15:50	357387	5.0.10.0	5_exp_RW	91	Rpleas_acq	CS_A	LWWL	DXXD	ZHHZ	YFFY	JQQJ	CPPC	genießen	sonnig	gütig	küssen	vertrauen	träumen	gemein	sterben	gierig	krank	versagen	töten	1	acq_USunple_CSunple2_RW	acq4567_RW	4	2	400	0	300	300	289	50	0	0	1	blank2r.bmp	0	1	+	0	1	blank2r.bmp	492	1	YFFY	492	1	blank2r.bmp	572	1	krank	866	1	!	-1	1	!	-1	0	0	0	0	0	0	0	0	0	0	0	0	0	0	0	0	0	0	0	0	0	0	0	0	0	0	0	0	0	0
073019	13:09:52	13:15:52	359439	5.0.10.0	5_exp_RW	91	Rpleas_acq	CS_A	LWWL	DXXD	ZHHZ	YFFY	JQQJ	CPPC	genießen	sonnig	gütig	küssen	vertrauen	träumen	gemein	sterben	gierig	krank	versagen	töten	1	acq_USunple_CSunple2_RW	acq4567_RW	4	3	400	0	300	300	269	46	0	1	1	blank2r.bmp	0	1	+	0	1	blank2r.bmp	492	1	YFFY	492	1	blank2r.bmp	572	3	töten	866	1	!	-1	1	!	-1	0	0	0	0	0	0	0	0	0	0	0	0	0	0	0	0	0	0	0	0	0	0	0	0	0	0	0	0	0	0
073019	13:09:52	13:15:54	361532	5.0.10.0	5_exp_RW	91	Rpleas_acq	CS_A	LWWL	DXXD	ZHHZ	YFFY	JQQJ	CPPC	genießen	sonnig	gütig	küssen	vertrauen	träumen	gemein	sterben	gierig	krank	versagen	töten	1	acq_USpleas_CSpleas1_RW	acq4567_RW	4	4	400	0	300	300	317	50	0	1	1	blank2r.bmp	0	1	+	0	1	blank2r.bmp	492	1	LWWL	492	1	blank2r.bmp	572	2	sonnig	866	1	!	-1	1	!	-1	0	0	0	0	0	0	0	0	0	0	0	0	0	0	0	0	0	0	0	0	0	0	0	0	0	0	0	0	0	0
073019	13:09:52	13:15:56	363811	5.0.10.0	5_exp_RW	91	Rpleas_acq	CS_A	LWWL	DXXD	ZHHZ	YFFY	JQQJ	CPPC	genießen	sonnig	gütig	küssen	vertrauen	träumen	gemein	sterben	gierig	krank	versagen	töten	1	acq_USunple_CSunple1_RW	acq4567_RW	4	5	400	0	300	300	486	50	0	0	1	blank2r.bmp	0	1	+	0	1	blank2r.bmp	492	1	ZHHZ	492	1	blank2r.bmp	572	1	gemein	866	1	!	1239	1	!	-1	0	0	0	0	0	0	0	0	0	0	0	0	0	0	0	0	0	0	0	0	0	0	0	0	0	0	0	0	0	0
073019	13:09:52	13:15:58	366063	5.0.10.0	5_exp_RW	91	Rpleas_acq	CS_A	LWWL	DXXD	ZHHZ	YFFY	JQQJ	CPPC	genießen	sonnig	gütig	küssen	vertrauen	träumen	gemein	sterben	gierig	krank	versagen	töten	1	acq_USunple_CSunple2_RW	acq4567_RW	4	6	400	1	300	300	440	46	0	1	1	blank2r.bmp	0	1	+	0	1	blank2r.bmp	492	1	YFFY	492	1	blank2r.bmp	572	2	versagen	866	1	!	1239	1	!	1346	0	0	0	0	0	0	0	0	0	0	0	0	0	0	0	0	0	0	0	0	0	0	0	0	0	0	0	0	0	0
073019	13:09:52	13:16:01	368329	5.0.10.0	5_exp_RW	91	Rpleas_acq	CS_A	LWWL	DXXD	ZHHZ	YFFY	JQQJ	CPPC	genießen	sonnig	gütig	küssen	vertrauen	träumen	gemein	sterben	gierig	krank	versagen	töten	1	acq_USpleas_CSpleas2_RW	acq4567_RW	4	7	400	1	300	300	466	50	0	1	1	blank2r.bmp	0	1	+	0	1	blank2r.bmp	492	1	DXXD	492	1	blank2r.bmp	572	3	träumen	866	1	!	1239	1	!	1372	0	0	0	0	0	0	0	0	0	0	0	0	0	0	0	0	0	0	0	0	0	0	0	0	0	0	0	0	0	0
073019	13:09:52	13:16:03	370542	5.0.10.0	5_exp_RW	91	Rpleas_acq	CS_A	LWWL	DXXD	ZHHZ	YFFY	JQQJ	CPPC	genießen	sonnig	gütig	küssen	vertrauen	träumen	gemein	sterben	gierig	krank	versagen	töten	1	acq_USpleas_CSpleas2_RW	acq4567_RW	4	8	400	1	300	300	403	50	0	1	1	blank2r.bmp	0	1	+	0	1	blank2r.bmp	492	1	DXXD	492	1	blank2r.bmp	572	1	küssen	866	1	!	1239	1	!	1306	0	0	0	0	0	0	0	0	0	0	0	0	0	0	0	0	0	0	0	0	0	0	0	0	0	0	0	0	0	0
073019	13:09:52	13:16:05	372701	5.0.10.0	5_exp_RW	91	Rpleas_acq	CS_A	LWWL	DXXD	ZHHZ	YFFY	JQQJ	CPPC	genießen	sonnig	gütig	küssen	vertrauen	träumen	gemein	sterben	gierig	krank	versagen	töten	1	acq_USpleas_CSpleas2_RW	acq4567_RW	4	9	400	1	300	300	362	50	0	1	1	blank2r.bmp	0	1	+	0	1	blank2r.bmp	492	1	DXXD	492	1	blank2r.bmp	572	2	vertrauen	866	1	!	1239	1	!	1266	0	0	0	0	0	0	0	0	0	0	0	0	0	0	0	0	0	0	0	0	0	0	0	0	0	0	0	0	0	0
073019	13:09:52	13:16:07	374940	5.0.10.0	5_exp_RW	91	Rpleas_acq	CS_A	LWWL	DXXD	ZHHZ	YFFY	JQQJ	CPPC	genießen	sonnig	gütig	küssen	vertrauen	träumen	gemein	sterben	gierig	krank	versagen	töten	1	acq_USpleas_CSpleas1_RW	acq4567_RW	4	10	400	1	300	300	444	50	0	1	1	blank2r.bmp	0	1	+	0	1	blank2r.bmp	492	1	LWWL	492	1	blank2r.bmp	572	1	genießen	866	1	!	1239	1	!	1346	0	0	0	0	0	0	0	0	0	0	0	0	0	0	0	0	0	0	0	0	0	0	0	0	0	0	0	0	0	0
073019	13:09:52	13:16:10	377312	5.0.10.0	5_exp_RW	91	Rpleas_acq	CS_A	LWWL	DXXD	ZHHZ	YFFY	JQQJ	CPPC	genießen	sonnig	gütig	küssen	vertrauen	träumen	gemein	sterben	gierig	krank	versagen	töten	1	acq_USunple_CSunple1_RW	acq4567_RW	4	11	400	0	300	300	610	46	0	1	1	blank2r.bmp	0	1	+	0	1	blank2r.bmp	492	1	ZHHZ	492	1	blank2r.bmp	572	3	gierig	866	1	!	1239	1	!	-1	0	0	0	0	0	0	0	0	0	0	0	0	0	0	0	0	0	0	0	0	0	0	0	0	0	0	0	0	0	0
073019	13:09:52	13:16:12	379538	5.0.10.0	5_exp_RW	91	Rpleas_acq	CS_A	LWWL	DXXD	ZHHZ	YFFY	JQQJ	CPPC	genießen	sonnig	gütig	küssen	vertrauen	träumen	gemein	sterben	gierig	krank	versagen	töten	1	acq_USpleas_CSpleas2_RW	acq4567_RW	4	12	400	1	300	300	417	50	0	1	1	blank2r.bmp	0	1	+	0	1	blank2r.bmp	492	1	DXXD	492	1	blank2r.bmp	572	1	küssen	866	1	!	1239	1	!	1319	0	0	0	0	0	0	0	0	0	0	0	0	0	0	0	0	0	0	0	0	0	0	0	0	0	0	0	0	0	0
073019	13:09:52	13:16:14	381924	5.0.10.0	5_exp_RW	91	Rpleas_acq	CS_A	LWWL	DXXD	ZHHZ	YFFY	JQQJ	CPPC	genießen	sonnig	gütig	küssen	vertrauen	träumen	gemein	sterben	gierig	krank	versagen	töten	1	acq_USunple_CSunple1_RW	acq4567_RW	4	13	400	0	300	300	614	46	0	1	1	blank2r.bmp	0	1	+	0	1	blank2r.bmp	492	1	ZHHZ	492	1	blank2r.bmp	572	3	gierig	866	1	!	1239	1	!	-1	0	0	0	0	0	0	0	0	0	0	0	0	0	0	0	0	0	0	0	0	0	0	0	0	0	0	0	0	0	0
073019	13:09:52	13:16:17	384189	5.0.10.0	5_exp_RW	91	Rpleas_acq	CS_A	LWWL	DXXD	ZHHZ	YFFY	JQQJ	CPPC	genießen	sonnig	gütig	küssen	vertrauen	träumen	gemein	sterben	gierig	krank	versagen	töten	1	acq_USunple_CSunple1_RW	acq4567_RW	4	14	400	0	300	300	479	46	0	1	1	blank2r.bmp	0	1	+	0	1	blank2r.bmp	492	1	ZHHZ	492	1	blank2r.bmp	572	1	gemein	866	1	!	1239	1	!	-1	0	0	0	0	0	0	0	0	0	0	0	0	0	0	0	0	0	0	0	0	0	0	0	0	0	0	0	0	0	0
073019	13:09:52	13:16:19	386348	5.0.10.0	5_exp_RW	91	Rpleas_acq	CS_A	LWWL	DXXD	ZHHZ	YFFY	JQQJ	CPPC	genießen	sonnig	gütig	küssen	vertrauen	träumen	gemein	sterben	gierig	krank	versagen	töten	1	acq_USpleas_CSpleas1_RW	acq4567_RW	4	15	400	1	300	300	346	46	0	0	1	blank2r.bmp	0	1	+	0	1	blank2r.bmp	492	1	LWWL	492	1	blank2r.bmp	572	3	gütig	866	1	!	1239	1	!	1252	0	0	0	0	0	0	0	0	0	0	0	0	0	0	0	0	0	0	0	0	0	0	0	0	0	0	0	0	0	0
073019	13:09:52	13:16:21	388521	5.0.10.0	5_exp_RW	91	Rpleas_acq	CS_A	LWWL	DXXD	ZHHZ	YFFY	JQQJ	CPPC	genießen	sonnig	gütig	küssen	vertrauen	träumen	gemein	sterben	gierig	krank	versagen	töten	1	acq_USpleas_CSpleas1_RW	acq4567_RW	4	16	400	1	300	300	368	46	0	0	1	blank2r.bmp	0	1	+	0	1	blank2r.bmp	492	1	LWWL	492	1	blank2r.bmp	572	1	genießen	866	1	!	1239	1	!	1266	0	0	0	0	0	0	0	0	0	0	0	0	0	0	0	0	0	0	0	0	0	0	0	0	0	0	0	0	0	0
073019	13:09:52	13:16:23	390813	5.0.10.0	5_exp_RW	91	Rpleas_acq	CS_A	LWWL	DXXD	ZHHZ	YFFY	JQQJ	CPPC	genießen	sonnig	gütig	küssen	vertrauen	träumen	gemein	sterben	gierig	krank	versagen	töten	1	acq_USunple_CSunple1_RW	acq4567_RW	4	17	400	0	300	300	522	46	0	1	1	blank2r.bmp	0	1	+	0	1	blank2r.bmp	492	1	ZHHZ	492	1	blank2r.bmp	572	2	sterben	866	1	!	1239	1	!	-1	0	0	0	0	0	0	0	0	0	0	0	0	0	0	0	0	0	0	0	0	0	0	0	0	0	0	0	0	0	0
073019	13:09:52	13:16:25	392906	5.0.10.0	5_exp_RW	91	Rpleas_acq	CS_A	LWWL	DXXD	ZHHZ	YFFY	JQQJ	CPPC	genießen	sonnig	gütig	küssen	vertrauen	träumen	gemein	sterben	gierig	krank	versagen	töten	1	acq_USunple_CSunple2_RW	acq4567_RW	4	18	400	0	300	300	300	50	0	0	1	blank2r.bmp	0	1	+	0	1	blank2r.bmp	492	1	YFFY	492	1	blank2r.bmp	572	1	krank	866	1	!	-1	1	!	-1	0	0	0	0	0	0	0	0	0	0	0	0	0	0	0	0	0	0	0	0	0	0	0	0	0	0	0	0	0	0
073019	13:09:52	13:16:27	395105	5.0.10.0	5_exp_RW	91	Rpleas_acq	CS_A	LWWL	DXXD	ZHHZ	YFFY	JQQJ	CPPC	genießen	sonnig	gütig	küssen	vertrauen	träumen	gemein	sterben	gierig	krank	versagen	töten	1	acq_USpleas_CSpleas2_RW	acq4567_RW	4	19	400	1	300	300	386	50	0	1	1	blank2r.bmp	0	1	+	0	1	blank2r.bmp	492	1	DXXD	492	1	blank2r.bmp	572	3	träumen	866	1	!	1239	1	!	1292	0	0	0	0	0	0	0	0	0	0	0	0	0	0	0	0	0	0	0	0	0	0	0	0	0	0	0	0	0	0
073019	13:09:52	13:16:30	397264	5.0.10.0	5_exp_RW	91	Rpleas_acq	CS_A	LWWL	DXXD	ZHHZ	YFFY	JQQJ	CPPC	genießen	sonnig	gütig	küssen	vertrauen	träumen	gemein	sterben	gierig	krank	versagen	töten	1	acq_USpleas_CSpleas1_RW	acq4567_RW	4	20	400	1	300	300	359	50	0	1	1	blank2r.bmp	0	1	+	0	1	blank2r.bmp	492	1	LWWL	492	1	blank2r.bmp	572	2	sonnig	866	1	!	1239	1	!	1266	0	0	0	0	0	0	0	0	0	0	0	0	0	0	0	0	0	0	0	0	0	0	0	0	0	0	0	0	0	0
073019	13:09:52	13:16:32	399343	5.0.10.0	5_exp_RW	91	Rpleas_acq	CS_A	LWWL	DXXD	ZHHZ	YFFY	JQQJ	CPPC	genießen	sonnig	gütig	küssen	vertrauen	träumen	gemein	sterben	gierig	krank	versagen	töten	1	acq_USpleas_CSpleas2_RW	acq4567_RW	4	21	400	0	300	300	313	50	0	1	1	blank2r.bmp	0	1	+	0	1	blank2r.bmp	492	1	DXXD	492	1	blank2r.bmp	572	3	träumen	866	1	!	-1	1	!	-1	0	0	0	0	0	0	0	0	0	0	0	0	0	0	0	0	0	0	0	0	0	0	0	0	0	0	0	0	0	0
073019	13:09:52	13:16:34	401529	5.0.10.0	5_exp_RW	91	Rpleas_acq	CS_A	LWWL	DXXD	ZHHZ	YFFY	JQQJ	CPPC	genießen	sonnig	gütig	küssen	vertrauen	träumen	gemein	sterben	gierig	krank	versagen	töten	1	acq_USunple_CSunple2_RW	acq4567_RW	4	22	400	1	300	300	384	46	0	1	1	blank2r.bmp	0	1	+	0	1	blank2r.bmp	492	1	YFFY	492	1	blank2r.bmp	572	3	töten	866	1	!	1239	1	!	1279	0	0	0	0	0	0	0	0	0	0	0	0	0	0	0	0	0	0	0	0	0	0	0	0	0	0	0	0	0	0
073019	13:09:52	13:16:36	403741	5.0.10.0	5_exp_RW	91	Rpleas_acq	CS_A	LWWL	DXXD	ZHHZ	YFFY	JQQJ	CPPC	genießen	sonnig	gütig	küssen	vertrauen	träumen	gemein	sterben	gierig	krank	versagen	töten	1	acq_USunple_CSunple2_RW	acq4567_RW	4	23	400	1	300	300	412	46	0	1	1	blank2r.bmp	0	1	+	0	1	blank2r.bmp	492	1	YFFY	492	1	blank2r.bmp	572	1	krank	866	1	!	1239	1	!	1319	0	0	0	0	0	0	0	0	0	0	0	0	0	0	0	0	0	0	0	0	0	0	0	0	0	0	0	0	0	0
073019	13:09:52	13:16:38	405954	5.0.10.0	5_exp_RW	91	Rpleas_acq	CS_A	LWWL	DXXD	ZHHZ	YFFY	JQQJ	CPPC	genießen	sonnig	gütig	küssen	vertrauen	träumen	gemein	sterben	gierig	krank	versagen	töten	1	acq_USunple_CSunple1_RW	acq4567_RW	4	24	400	1	300	300	402	50	0	0	1	blank2r.bmp	0	1	+	0	1	blank2r.bmp	492	1	ZHHZ	492	1	blank2r.bmp	572	1	gemein	866	1	!	1239	1	!	1306	0	0	0	0	0	0	0	0	0	0	0	0	0	0	0	0	0	0	0	0	0	0	0	0	0	0	0	0	0	0
073019	13:09:52	13:16:41	408193	5.0.10.0	5_exp_RW	91	Rpleas_acq	CS_A	LWWL	DXXD	ZHHZ	YFFY	JQQJ	CPPC	genießen	sonnig	gütig	küssen	vertrauen	träumen	gemein	sterben	gierig	krank	versagen	töten	1	acq_USunple_CSunple2_RW	acq4567_RW	4	25	400	1	300	300	442	50	0	0	1	blank2r.bmp	0	1	+	0	1	blank2r.bmp	492	1	YFFY	492	1	blank2r.bmp	572	2	versagen	866	1	!	1239	1	!	1346	0	0	0	0	0	0	0	0	0	0	0	0	0	0	0	0	0	0	0	0	0	0	0	0	0	0	0	0	0	0
073019	13:09:52	13:16:43	410365	5.0.10.0	5_exp_RW	91	Rpleas_acq	CS_A	LWWL	DXXD	ZHHZ	YFFY	JQQJ	CPPC	genießen	sonnig	gütig	küssen	vertrauen	träumen	gemein	sterben	gierig	krank	versagen	töten	1	acq_USunple_CSunple1_RW	acq4567_RW	4	26	400	1	300	300	380	46	0	1	1	blank2r.bmp	0	1	+	0	1	blank2r.bmp	492	1	ZHHZ	492	1	blank2r.bmp	572	2	sterben	866	1	!	1239	1	!	1279	0	0	0	0	0	0	0	0	0	0	0	0	0	0	0	0	0	0	0	0	0	0	0	0	0	0	0	0	0	0
073019	13:09:52	13:16:45	412524	5.0.10.0	5_exp_RW	91	Rpleas_acq	CS_A	LWWL	DXXD	ZHHZ	YFFY	JQQJ	CPPC	genießen	sonnig	gütig	küssen	vertrauen	träumen	gemein	sterben	gierig	krank	versagen	töten	1	acq_USunple_CSunple1_RW	acq4567_RW	4	27	400	1	300	300	361	50	0	0	1	blank2r.bmp	0	1	+	0	1	blank2r.bmp	492	1	ZHHZ	492	1	blank2r.bmp	572	3	gierig	866	1	!	1239	1	!	1266	0	0	0	0	0	0	0	0	0	0	0	0	0	0	0	0	0	0	0	0	0	0	0	0	0	0	0	0	0	0
073019	13:09:52	13:16:47	414777	5.0.10.0	5_exp_RW	91	Rpleas_acq	CS_A	LWWL	DXXD	ZHHZ	YFFY	JQQJ	CPPC	genießen	sonnig	gütig	küssen	vertrauen	träumen	gemein	sterben	gierig	krank	versagen	töten	1	acq_USunple_CSunple2_RW	acq4567_RW	4	28	400	1	300	300	446	46	0	1	1	blank2r.bmp	0	1	+	0	1	blank2r.bmp	492	1	YFFY	492	1	blank2r.bmp	572	2	versagen	866	1	!	1239	1	!	1346	0	0	0	0	0	0	0	0	0	0	0	0	0	0	0	0	0	0	0	0	0	0	0	0	0	0	0	0	0	0
073019	13:09:52	13:16:49	417003	5.0.10.0	5_exp_RW	91	Rpleas_acq	CS_A	LWWL	DXXD	ZHHZ	YFFY	JQQJ	CPPC	genießen	sonnig	gütig	küssen	vertrauen	träumen	gemein	sterben	gierig	krank	versagen	töten	1	acq_USpleas_CSpleas2_RW	acq4567_RW	4	29	400	1	300	300	436	50	0	1	1	blank2r.bmp	0	1	+	0	1	blank2r.bmp	492	1	DXXD	492	1	blank2r.bmp	572	1	küssen	866	1	!	1239	1	!	1332	0	0	0	0	0	0	0	0	0	0	0	0	0	0	0	0	0	0	0	0	0	0	0	0	0	0	0	0	0	0
073019	13:09:52	13:16:52	419268	5.0.10.0	5_exp_RW	91	Rpleas_acq	CS_A	LWWL	DXXD	ZHHZ	YFFY	JQQJ	CPPC	genießen	sonnig	gütig	küssen	vertrauen	träumen	gemein	sterben	gierig	krank	versagen	töten	1	acq_USpleas_CSpleas1_RW	acq4567_RW	4	30	400	1	300	300	462	50	0	1	1	blank2r.bmp	0	1	+	0	1	blank2r.bmp	492	1	LWWL	492	1	blank2r.bmp	572	2	sonnig	866	1	!	1239	1	!	1359	0	0	0	0	0	0	0	0	0	0	0	0	0	0	0	0	0	0	0	0	0	0	0	0	0	0	0	0	0	0
073019	13:09:52	13:16:54	421427	5.0.10.0	5_exp_RW	91	Rpleas_acq	CS_A	LWWL	DXXD	ZHHZ	YFFY	JQQJ	CPPC	genießen	sonnig	gütig	küssen	vertrauen	träumen	gemein	sterben	gierig	krank	versagen	töten	1	acq_USpleas_CSpleas1_RW	acq4567_RW	4	31	400	1	300	300	362	50	0	1	1	blank2r.bmp	0	1	+	0	1	blank2r.bmp	492	1	LWWL	492	1	blank2r.bmp	572	3	gütig	866	1	!	1239	1	!	1266	0	0	0	0	0	0	0	0	0	0	0	0	0	0	0	0	0	0	0	0	0	0	0	0	0	0	0	0	0	0
073019	13:09:52	13:16:56	423587	5.0.10.0	5_exp_RW	91	Rpleas_acq	CS_A	LWWL	DXXD	ZHHZ	YFFY	JQQJ	CPPC	genießen	sonnig	gütig	küssen	vertrauen	träumen	gemein	sterben	gierig	krank	versagen	töten	1	acq_USunple_CSunple1_RW	acq4567_RW	4	32	400	1	300	300	368	46	0	1	1	blank2r.bmp	0	1	+	0	1	blank2r.bmp	492	1	ZHHZ	492	1	blank2r.bmp	572	1	gemein	866	1	!	1239	1	!	1266	0	0	0	0	0	0	0	0	0	0	0	0	0	0	0	0	0	0	0	0	0	0	0	0	0	0	0	0	0	0
073019	13:09:52	13:16:58	425852	5.0.10.0	5_exp_RW	91	Rpleas_acq	CS_A	LWWL	DXXD	ZHHZ	YFFY	JQQJ	CPPC	genießen	sonnig	gütig	küssen	vertrauen	träumen	gemein	sterben	gierig	krank	versagen	töten	1	acq_USunple_CSunple1_RW	acq4567_RW	4	33	400	0	300	300	479	46	0	1	1	blank2r.bmp	0	1	+	0	1	blank2r.bmp	492	1	ZHHZ	492	1	blank2r.bmp	572	2	sterben	866	1	!	1239	1	!	-1	0	0	0	0	0	0	0	0	0	0	0	0	0	0	0	0	0	0	0	0	0	0	0	0	0	0	0	0	0	0
073019	13:09:52	13:17:00	428118	5.0.10.0	5_exp_RW	91	Rpleas_acq	CS_A	LWWL	DXXD	ZHHZ	YFFY	JQQJ	CPPC	genießen	sonnig	gütig	küssen	vertrauen	träumen	gemein	sterben	gierig	krank	versagen	töten	1	acq_USpleas_CSpleas1_RW	acq4567_RW	4	34	400	0	300	300	487	50	0	1	1	blank2r.bmp	0	1	+	0	1	blank2r.bmp	492	1	LWWL	492	1	blank2r.bmp	572	1	genießen	866	1	!	1239	1	!	-1	0	0	0	0	0	0	0	0	0	0	0	0	0	0	0	0	0	0	0	0	0	0	0	0	0	0	0	0	0	0
073019	13:09:52	13:17:03	430304	5.0.10.0	5_exp_RW	91	Rpleas_acq	CS_A	LWWL	DXXD	ZHHZ	YFFY	JQQJ	CPPC	genießen	sonnig	gütig	küssen	vertrauen	träumen	gemein	sterben	gierig	krank	versagen	töten	1	acq_USpleas_CSpleas1_RW	acq4567_RW	4	35	400	1	300	300	382	50	0	1	1	blank2r.bmp	0	1	+	0	1	blank2r.bmp	492	1	LWWL	492	1	blank2r.bmp	572	1	genießen	866	1	!	1239	1	!	1279	0	0	0	0	0	0	0	0	0	0	0	0	0	0	0	0	0	0	0	0	0	0	0	0	0	0	0	0	0	0
073019	13:09:52	13:17:05	432463	5.0.10.0	5_exp_RW	91	Rpleas_acq	CS_A	LWWL	DXXD	ZHHZ	YFFY	JQQJ	CPPC	genießen	sonnig	gütig	küssen	vertrauen	träumen	gemein	sterben	gierig	krank	versagen	töten	1	acq_USpleas_CSpleas2_RW	acq4567_RW	4	36	400	1	300	300	370	50	0	1	1	blank2r.bmp	0	1	+	0	1	blank2r.bmp	492	1	DXXD	492	1	blank2r.bmp	572	2	vertrauen	866	1	!	1239	1	!	1266	0	0	0	0	0	0	0	0	0	0	0	0	0	0	0	0	0	0	0	0	0	0	0	0	0	0	0	0	0	0
073019	13:09:52	13:17:07	434662	5.0.10.0	5_exp_RW	91	Rpleas_acq	CS_A	LWWL	DXXD	ZHHZ	YFFY	JQQJ	CPPC	genießen	sonnig	gütig	küssen	vertrauen	träumen	gemein	sterben	gierig	krank	versagen	töten	1	acq_USpleas_CSpleas2_RW	acq4567_RW	4	37	400	1	300	300	398	50	0	1	1	blank2r.bmp	0	1	+	0	1	blank2r.bmp	492	1	DXXD	492	1	blank2r.bmp	572	2	vertrauen	866	1	!	1239	1	!	1292	0	0	0	0	0	0	0	0	0	0	0	0	0	0	0	0	0	0	0	0	0	0	0	0	0	0	0	0	0	0
073019	13:09:52	13:17:09	436874	5.0.10.0	5_exp_RW	91	Rpleas_acq	CS_A	LWWL	DXXD	ZHHZ	YFFY	JQQJ	CPPC	genießen	sonnig	gütig	küssen	vertrauen	träumen	gemein	sterben	gierig	krank	versagen	töten	1	acq_USunple_CSunple2_RW	acq4567_RW	4	38	400	1	300	300	407	46	0	1	1	blank2r.bmp	0	1	+	0	1	blank2r.bmp	492	1	YFFY	492	1	blank2r.bmp	572	1	krank	866	1	!	1239	1	!	1306	0	0	0	0	0	0	0	0	0	0	0	0	0	0	0	0	0	0	0	0	0	0	0	0	0	0	0	0	0	0
073019	13:09:52	13:17:11	439074	5.0.10.0	5_exp_RW	91	Rpleas_acq	CS_A	LWWL	DXXD	ZHHZ	YFFY	JQQJ	CPPC	genießen	sonnig	gütig	küssen	vertrauen	träumen	gemein	sterben	gierig	krank	versagen	töten	1	acq_USpleas_CSpleas1_RW	acq4567_RW	4	39	400	1	300	300	405	50	0	1	1	blank2r.bmp	0	1	+	0	1	blank2r.bmp	492	1	LWWL	492	1	blank2r.bmp	572	2	sonnig	866	1	!	1239	1	!	1306	0	0	0	0	0	0	0	0	0	0	0	0	0	0	0	0	0	0	0	0	0	0	0	0	0	0	0	0	0	0
073019	13:09:52	13:17:14	441326	5.0.10.0	5_exp_RW	91	Rpleas_acq	CS_A	LWWL	DXXD	ZHHZ	YFFY	JQQJ	CPPC	genießen	sonnig	gütig	küssen	vertrauen	träumen	gemein	sterben	gierig	krank	versagen	töten	1	acq_USpleas_CSpleas2_RW	acq4567_RW	4	40	400	1	300	300	462	50	0	1	1	blank2r.bmp	0	1	+	0	1	blank2r.bmp	492	1	DXXD	492	1	blank2r.bmp	572	3	träumen	866	1	!	1239	1	!	1359	0	0	0	0	0	0	0	0	0	0	0	0	0	0	0	0	0	0	0	0	0	0	0	0	0	0	0	0	0	0
073019	13:09:52	13:17:16	443552	5.0.10.0	5_exp_RW	91	Rpleas_acq	CS_A	LWWL	DXXD	ZHHZ	YFFY	JQQJ	CPPC	genießen	sonnig	gütig	küssen	vertrauen	träumen	gemein	sterben	gierig	krank	versagen	töten	1	acq_USpleas_CSpleas1_RW	acq4567_RW	4	41	400	1	300	300	428	46	0	0	1	blank2r.bmp	0	1	+	0	1	blank2r.bmp	492	1	LWWL	492	1	blank2r.bmp	572	3	gütig	866	1	!	1239	1	!	1332	0	0	0	0	0	0	0	0	0	0	0	0	0	0	0	0	0	0	0	0	0	0	0	0	0	0	0	0	0	0
073019	13:09:52	13:17:18	445884	5.0.10.0	5_exp_RW	91	Rpleas_acq	CS_A	LWWL	DXXD	ZHHZ	YFFY	JQQJ	CPPC	genießen	sonnig	gütig	küssen	vertrauen	träumen	gemein	sterben	gierig	krank	versagen	töten	1	acq_USunple_CSunple2_RW	acq4567_RW	4	42	400	0	300	300	567	46	0	1	1	blank2r.bmp	0	1	+	0	1	blank2r.bmp	492	1	YFFY	492	1	blank2r.bmp	572	3	töten	866	1	!	1239	1	!	-1	0	0	0	0	0	0	0	0	0	0	0	0	0	0	0	0	0	0	0	0	0	0	0	0	0	0	0	0	0	0
073019	13:09:52	13:17:20	448097	5.0.10.0	5_exp_RW	91	Rpleas_acq	CS_A	LWWL	DXXD	ZHHZ	YFFY	JQQJ	CPPC	genießen	sonnig	gütig	küssen	vertrauen	träumen	gemein	sterben	gierig	krank	versagen	töten	1	acq_USunple_CSunple1_RW	acq4567_RW	4	43	400	1	300	300	405	46	0	1	1	blank2r.bmp	0	1	+	0	1	blank2r.bmp	492	1	ZHHZ	492	1	blank2r.bmp	572	3	gierig	866	1	!	1239	1	!	1306	0	0	0	0	0	0	0	0	0	0	0	0	0	0	0	0	0	0	0	0	0	0	0	0	0	0	0	0	0	0
073019	13:09:52	13:17:23	450269	5.0.10.0	5_exp_RW	91	Rpleas_acq	CS_A	LWWL	DXXD	ZHHZ	YFFY	JQQJ	CPPC	genießen	sonnig	gütig	küssen	vertrauen	träumen	gemein	sterben	gierig	krank	versagen	töten	1	acq_USpleas_CSpleas1_RW	acq4567_RW	4	44	400	1	300	300	384	50	0	1	1	blank2r.bmp	0	1	+	0	1	blank2r.bmp	492	1	LWWL	492	1	blank2r.bmp	572	1	genießen	866	1	!	1239	1	!	1279	0	0	0	0	0	0	0	0	0	0	0	0	0	0	0	0	0	0	0	0	0	0	0	0	0	0	0	0	0	0
073019	13:09:52	13:17:25	452455	5.0.10.0	5_exp_RW	91	Rpleas_acq	CS_A	LWWL	DXXD	ZHHZ	YFFY	JQQJ	CPPC	genießen	sonnig	gütig	küssen	vertrauen	träumen	gemein	sterben	gierig	krank	versagen	töten	1	acq_USunple_CSunple2_RW	acq4567_RW	4	45	400	1	300	300	398	46	0	1	1	blank2r.bmp	0	1	+	0	1	blank2r.bmp	492	1	YFFY	492	1	blank2r.bmp	572	3	töten	866	1	!	1239	1	!	1292	0	0	0	0	0	0	0	0	0	0	0	0	0	0	0	0	0	0	0	0	0	0	0	0	0	0	0	0	0	0
073019	13:09:52	13:17:27	454614	5.0.10.0	5_exp_RW	91	Rpleas_acq	CS_A	LWWL	DXXD	ZHHZ	YFFY	JQQJ	CPPC	genießen	sonnig	gütig	küssen	vertrauen	träumen	gemein	sterben	gierig	krank	versagen	töten	1	acq_USpleas_CSpleas2_RW	acq4567_RW	4	46	400	1	300	300	367	50	0	1	1	blank2r.bmp	0	1	+	0	1	blank2r.bmp	492	1	DXXD	492	1	blank2r.bmp	572	1	küssen	866	1	!	1239	1	!	1266	0	0	0	0	0	0	0	0	0	0	0	0	0	0	0	0	0	0	0	0	0	0	0	0	0	0	0	0	0	0
073019	13:09:52	13:17:29	456840	5.0.10.0	5_exp_RW	91	Rpleas_acq	CS_A	LWWL	DXXD	ZHHZ	YFFY	JQQJ	CPPC	genießen	sonnig	gütig	küssen	vertrauen	träumen	gemein	sterben	gierig	krank	versagen	töten	1	acq_USunple_CSunple1_RW	acq4567_RW	4	47	400	1	300	300	423	50	0	0	1	blank2r.bmp	0	1	+	0	1	blank2r.bmp	492	1	ZHHZ	492	1	blank2r.bmp	572	2	sterben	866	1	!	1239	1	!	1319	0	0	0	0	0	0	0	0	0	0	0	0	0	0	0	0	0	0	0	0	0	0	0	0	0	0	0	0	0	0
073019	13:09:52	13:17:31	459012	5.0.10.0	5_exp_RW	91	Rpleas_acq	CS_A	LWWL	DXXD	ZHHZ	YFFY	JQQJ	CPPC	genießen	sonnig	gütig	küssen	vertrauen	träumen	gemein	sterben	gierig	krank	versagen	töten	1	acq_USunple_CSunple1_RW	acq4567_RW	4	48	400	1	300	300	377	50	0	0	1	blank2r.bmp	0	1	+	0	1	blank2r.bmp	492	1	ZHHZ	492	1	blank2r.bmp	572	1	gemein	866	1	!	1239	1	!	1279	0	0	0	0	0	0	0	0	0	0	0	0	0	0	0	0	0	0	0	0	0	0	0	0	0	0	0	0	0	0
073019	13:09:52	13:17:34	461198	5.0.10.0	5_exp_RW	91	Rpleas_acq	CS_A	LWWL	DXXD	ZHHZ	YFFY	JQQJ	CPPC	genießen	sonnig	gütig	küssen	vertrauen	träumen	gemein	sterben	gierig	krank	versagen	töten	1	acq_USpleas_CSpleas2_RW	acq4567_RW	4	49	400	1	300	300	384	50	0	1	1	blank2r.bmp	0	1	+	0	1	blank2r.bmp	492	1	DXXD	492	1	blank2r.bmp	572	2	vertrauen	866	1	!	1239	1	!	1279	0	0	0	0	0	0	0	0	0	0	0	0	0	0	0	0	0	0	0	0	0	0	0	0	0	0	0	0	0	0
073019	13:09:52	13:17:36	463397	5.0.10.0	5_exp_RW	91	Rpleas_acq	CS_A	LWWL	DXXD	ZHHZ	YFFY	JQQJ	CPPC	genießen	sonnig	gütig	küssen	vertrauen	träumen	gemein	sterben	gierig	krank	versagen	töten	1	acq_USpleas_CSpleas2_RW	acq4567_RW	4	50	400	1	300	300	387	50	0	1	1	blank2r.bmp	0	1	+	0	1	blank2r.bmp	492	1	DXXD	492	1	blank2r.bmp	572	1	küssen	866	1	!	1239	1	!	1292	0	0	0	0	0	0	0	0	0	0	0	0	0	0	0	0	0	0	0	0	0	0	0	0	0	0	0	0	0	0
073019	13:09:52	13:17:38	465663	5.0.10.0	5_exp_RW	91	Rpleas_acq	CS_A	LWWL	DXXD	ZHHZ	YFFY	JQQJ	CPPC	genießen	sonnig	gütig	küssen	vertrauen	träumen	gemein	sterben	gierig	krank	versagen	töten	1	acq_USpleas_CSpleas2_RW	acq4567_RW	4	51	400	0	300	300	484	50	0	1	1	blank2r.bmp	0	1	+	0	1	blank2r.bmp	492	1	DXXD	492	1	blank2r.bmp	572	3	träumen	866	1	!	1239	1	!	-1	0	0	0	0	0	0	0	0	0	0	0	0	0	0	0	0	0	0	0	0	0	0	0	0	0	0	0	0	0	0
073019	13:09:52	13:17:40	467942	5.0.10.0	5_exp_RW	91	Rpleas_acq	CS_A	LWWL	DXXD	ZHHZ	YFFY	JQQJ	CPPC	genießen	sonnig	gütig	küssen	vertrauen	träumen	gemein	sterben	gierig	krank	versagen	töten	1	acq_USunple_CSunple2_RW	acq4567_RW	4	52	400	1	300	300	465	46	0	1	1	blank2r.bmp	0	1	+	0	1	blank2r.bmp	492	1	YFFY	492	1	blank2r.bmp	572	1	krank	866	1	!	1239	1	!	1372	0	0	0	0	0	0	0	0	0	0	0	0	0	0	0	0	0	0	0	0	0	0	0	0	0	0	0	0	0	0
073019	13:09:52	13:17:43	470194	5.0.10.0	5_exp_RW	91	Rpleas_acq	CS_A	LWWL	DXXD	ZHHZ	YFFY	JQQJ	CPPC	genießen	sonnig	gütig	küssen	vertrauen	träumen	gemein	sterben	gierig	krank	versagen	töten	1	acq_USunple_CSunple2_RW	acq4567_RW	4	53	400	0	300	300	479	50	0	0	1	blank2r.bmp	0	1	+	0	1	blank2r.bmp	492	1	YFFY	492	1	blank2r.bmp	572	2	versagen	866	1	!	1239	1	!	-1	0	0	0	0	0	0	0	0	0	0	0	0	0	0	0	0	0	0	0	0	0	0	0	0	0	0	0	0	0	0
073019	13:09:52	13:17:45	472420	5.0.10.0	5_exp_RW	91	Rpleas_acq	CS_A	LWWL	DXXD	ZHHZ	YFFY	JQQJ	CPPC	genießen	sonnig	gütig	küssen	vertrauen	träumen	gemein	sterben	gierig	krank	versagen	töten	1	acq_USunple_CSunple2_RW	acq4567_RW	4	54	400	1	300	300	417	46	0	1	1	blank2r.bmp	0	1	+	0	1	blank2r.bmp	492	1	YFFY	492	1	blank2r.bmp	572	3	töten	866	1	!	1239	1	!	1319	0	0	0	0	0	0	0	0	0	0	0	0	0	0	0	0	0	0	0	0	0	0	0	0	0	0	0	0	0	0
073019	13:09:52	13:17:47	474632	5.0.10.0	5_exp_RW	91	Rpleas_acq	CS_A	LWWL	DXXD	ZHHZ	YFFY	JQQJ	CPPC	genießen	sonnig	gütig	küssen	vertrauen	träumen	gemein	sterben	gierig	krank	versagen	töten	1	acq_USunple_CSunple1_RW	acq4567_RW	4	55	400	1	300	300	425	46	0	1	1	blank2r.bmp	0	1	+	0	1	blank2r.bmp	492	1	ZHHZ	492	1	blank2r.bmp	572	3	gierig	866	1	!	1239	1	!	1319	0	0	0	0	0	0	0	0	0	0	0	0	0	0	0	0	0	0	0	0	0	0	0	0	0	0	0	0	0	0
073019	13:09:52	13:17:49	476845	5.0.10.0	5_exp_RW	91	Rpleas_acq	CS_A	LWWL	DXXD	ZHHZ	YFFY	JQQJ	CPPC	genießen	sonnig	gütig	küssen	vertrauen	träumen	gemein	sterben	gierig	krank	versagen	töten	1	acq_USunple_CSunple1_RW	acq4567_RW	4	56	400	1	300	300	424	46	0	1	1	blank2r.bmp	0	1	+	0	1	blank2r.bmp	492	1	ZHHZ	492	1	blank2r.bmp	572	3	gierig	866	1	!	1239	1	!	1319	0	0	0	0	0	0	0	0	0	0	0	0	0	0	0	0	0	0	0	0	0	0	0	0	0	0	0	0	0	0
073019	13:09:52	13:17:51	479071	5.0.10.0	5_exp_RW	91	Rpleas_acq	CS_A	LWWL	DXXD	ZHHZ	YFFY	JQQJ	CPPC	genießen	sonnig	gütig	küssen	vertrauen	träumen	gemein	sterben	gierig	krank	versagen	töten	1	acq_USpleas_CSpleas1_RW	acq4567_RW	4	57	400	1	300	300	419	50	0	1	1	blank2r.bmp	0	1	+	0	1	blank2r.bmp	492	1	LWWL	492	1	blank2r.bmp	572	2	sonnig	866	1	!	1239	1	!	1319	0	0	0	0	0	0	0	0	0	0	0	0	0	0	0	0	0	0	0	0	0	0	0	0	0	0	0	0	0	0
073019	13:09:52	13:17:54	481323	5.0.10.0	5_exp_RW	91	Rpleas_acq	CS_A	LWWL	DXXD	ZHHZ	YFFY	JQQJ	CPPC	genießen	sonnig	gütig	küssen	vertrauen	träumen	gemein	sterben	gierig	krank	versagen	töten	1	acq_USpleas_CSpleas1_RW	acq4567_RW	4	58	400	1	300	300	464	46	0	0	1	blank2r.bmp	0	1	+	0	1	blank2r.bmp	492	1	LWWL	492	1	blank2r.bmp	572	3	gütig	866	1	!	1239	1	!	1359	0	0	0	0	0	0	0	0	0	0	0	0	0	0	0	0	0	0	0	0	0	0	0	0	0	0	0	0	0	0
073019	13:09:52	13:17:56	483469	5.0.10.0	5_exp_RW	91	Rpleas_acq	CS_A	LWWL	DXXD	ZHHZ	YFFY	JQQJ	CPPC	genießen	sonnig	gütig	küssen	vertrauen	träumen	gemein	sterben	gierig	krank	versagen	töten	1	acq_USpleas_CSpleas1_RW	acq4567_RW	4	59	400	1	300	300	358	50	0	1	1	blank2r.bmp	0	1	+	0	1	blank2r.bmp	492	1	LWWL	492	1	blank2r.bmp	572	2	sonnig	866	1	!	1239	1	!	1252	0	0	0	0	0	0	0	0	0	0	0	0	0	0	0	0	0	0	0	0	0	0	0	0	0	0	0	0	0	0
073019	13:09:52	13:17:58	485708	5.0.10.0	5_exp_RW	91	Rpleas_acq	CS_A	LWWL	DXXD	ZHHZ	YFFY	JQQJ	CPPC	genießen	sonnig	gütig	küssen	vertrauen	träumen	gemein	sterben	gierig	krank	versagen	töten	1	acq_USpleas_CSpleas2_RW	acq4567_RW	4	60	400	1	300	300	446	50	0	1	1	blank2r.bmp	0	1	+	0	1	blank2r.bmp	492	1	DXXD	492	1	blank2r.bmp	572	2	vertrauen	866	1	!	1239	1	!	1346	0	0	0	0	0	0	0	0	0	0	0	0	0	0	0	0	0	0	0	0	0	0	0	0	0	0	0	0	0	0
073019	13:09:52	13:18:00	487854	5.0.10.0	5_exp_RW	91	Rpleas_acq	CS_A	LWWL	DXXD	ZHHZ	YFFY	JQQJ	CPPC	genießen	sonnig	gütig	küssen	vertrauen	träumen	gemein	sterben	gierig	krank	versagen	töten	1	acq_USpleas_CSpleas1_RW	acq4567_RW	4	61	400	1	300	300	348	50	0	1	1	blank2r.bmp	0	1	+	0	1	blank2r.bmp	492	1	LWWL	492	1	blank2r.bmp	572	1	genießen	866	1	!	1239	1	!	1252	0	0	0	0	0	0	0	0	0	0	0	0	0	0	0	0	0	0	0	0	0	0	0	0	0	0	0	0	0	0
073019	13:09:52	13:18:02	489933	5.0.10.0	5_exp_RW	91	Rpleas_acq	CS_A	LWWL	DXXD	ZHHZ	YFFY	JQQJ	CPPC	genießen	sonnig	gütig	küssen	vertrauen	träumen	gemein	sterben	gierig	krank	versagen	töten	1	acq_USpleas_CSpleas1_RW	acq4567_RW	4	62	400	0	300	300	310	50	0	1	1	blank2r.bmp	0	1	+	0	1	blank2r.bmp	492	1	LWWL	492	1	blank2r.bmp	572	3	gütig	866	1	!	-1	1	!	-1	0	0	0	0	0	0	0	0	0	0	0	0	0	0	0	0	0	0	0	0	0	0	0	0	0	0	0	0	0	0
073019	13:09:52	13:18:05	492212	5.0.10.0	5_exp_RW	91	Rpleas_acq	CS_A	LWWL	DXXD	ZHHZ	YFFY	JQQJ	CPPC	genießen	sonnig	gütig	küssen	vertrauen	träumen	gemein	sterben	gierig	krank	versagen	töten	1	acq_USunple_CSunple1_RW	acq4567_RW	4	63	400	1	300	300	461	46	0	1	1	blank2r.bmp	0	1	+	0	1	blank2r.bmp	492	1	ZHHZ	492	1	blank2r.bmp	572	1	gemein	866	1	!	1239	1	!	1359	0	0	0	0	0	0	0	0	0	0	0	0	0	0	0	0	0	0	0	0	0	0	0	0	0	0	0	0	0	0
073019	13:09:52	13:18:07	494451	5.0.10.0	5_exp_RW	91	Rpleas_acq	CS_A	LWWL	DXXD	ZHHZ	YFFY	JQQJ	CPPC	genießen	sonnig	gütig	küssen	vertrauen	träumen	gemein	sterben	gierig	krank	versagen	töten	1	acq_USpleas_CSpleas2_RW	acq4567_RW	4	64	400	1	300	300	441	50	0	1	1	blank2r.bmp	0	1	+	0	1	blank2r.bmp	492	1	DXXD	492	1	blank2r.bmp	572	3	träumen	866	1	!	1239	1	!	1346	0	0	0	0	0	0	0	0	0	0	0	0	0	0	0	0	0	0	0	0	0	0	0	0	0	0	0	0	0	0
073019	13:09:52	13:18:09	496650	5.0.10.0	5_exp_RW	91	Rpleas_acq	CS_A	LWWL	DXXD	ZHHZ	YFFY	JQQJ	CPPC	genießen	sonnig	gütig	küssen	vertrauen	träumen	gemein	sterben	gierig	krank	versagen	töten	1	acq_USunple_CSunple1_RW	acq4567_RW	4	65	400	1	300	300	399	50	0	0	1	blank2r.bmp	0	1	+	0	1	blank2r.bmp	492	1	ZHHZ	492	1	blank2r.bmp	572	2	sterben	866	1	!	1239	1	!	1306	0	0	0	0	0	0	0	0	0	0	0	0	0	0	0	0	0	0	0	0	0	0	0	0	0	0	0	0	0	0
073019	13:09:52	13:18:11	498929	5.0.10.0	5_exp_RW	91	Rpleas_acq	CS_A	LWWL	DXXD	ZHHZ	YFFY	JQQJ	CPPC	genießen	sonnig	gütig	küssen	vertrauen	träumen	gemein	sterben	gierig	krank	versagen	töten	1	acq_USunple_CSunple2_RW	acq4567_RW	4	66	400	0	300	300	515	50	0	0	1	blank2r.bmp	0	1	+	0	1	blank2r.bmp	492	1	YFFY	492	1	blank2r.bmp	572	2	versagen	866	1	!	1239	1	!	-1	0	0	0	0	0	0	0	0	0	0	0	0	0	0	0	0	0	0	0	0	0	0	0	0	0	0	0	0	0	0
073019	13:09:52	13:18:14	501182	5.0.10.0	5_exp_RW	91	Rpleas_acq	CS_A	LWWL	DXXD	ZHHZ	YFFY	JQQJ	CPPC	genießen	sonnig	gütig	küssen	vertrauen	träumen	gemein	sterben	gierig	krank	versagen	töten	1	acq_USunple_CSunple1_RW	acq4567_RW	4	67	400	1	300	300	445	46	0	1	1	blank2r.bmp	0	1	+	0	1	blank2r.bmp	492	1	ZHHZ	492	1	blank2r.bmp	572	3	gierig	866	1	!	1239	1	!	1346	0	0	0	0	0	0	0	0	0	0	0	0	0	0	0	0	0	0	0	0	0	0	0	0	0	0	0	0	0	0
073019	13:09:52	13:18:16	503327	5.0.10.0	5_exp_RW	91	Rpleas_acq	CS_A	LWWL	DXXD	ZHHZ	YFFY	JQQJ	CPPC	genießen	sonnig	gütig	küssen	vertrauen	träumen	gemein	sterben	gierig	krank	versagen	töten	1	acq_USunple_CSunple2_RW	acq4567_RW	4	68	400	1	300	300	346	46	0	1	1	blank2r.bmp	0	1	+	0	1	blank2r.bmp	492	1	YFFY	492	1	blank2r.bmp	572	1	krank	866	1	!	1239	1	!	1252	0	0	0	0	0	0	0	0	0	0	0	0	0	0	0	0	0	0	0	0	0	0	0	0	0	0	0	0	0	0
073019	13:09:52	13:18:18	505620	5.0.10.0	5_exp_RW	91	Rpleas_acq	CS_A	LWWL	DXXD	ZHHZ	YFFY	JQQJ	CPPC	genießen	sonnig	gütig	küssen	vertrauen	träumen	gemein	sterben	gierig	krank	versagen	töten	1	acq_USunple_CSunple1_RW	acq4567_RW	4	69	400	0	300	300	529	46	0	1	1	blank2r.bmp	0	1	+	0	1	blank2r.bmp	492	1	ZHHZ	492	1	blank2r.bmp	572	2	sterben	866	1	!	1239	1	!	-1	0	0	0	0	0	0	0	0	0	0	0	0	0	0	0	0	0	0	0	0	0	0	0	0	0	0	0	0	0	0
073019	13:09:52	13:18:20	507779	5.0.10.0	5_exp_RW	91	Rpleas_acq	CS_A	LWWL	DXXD	ZHHZ	YFFY	JQQJ	CPPC	genießen	sonnig	gütig	küssen	vertrauen	träumen	gemein	sterben	gierig	krank	versagen	töten	1	acq_USpleas_CSpleas1_RW	acq4567_RW	4	70	400	1	300	300	346	46	0	0	1	blank2r.bmp	0	1	+	0	1	blank2r.bmp	492	1	LWWL	492	1	blank2r.bmp	572	1	genießen	866	1	!	1239	1	!	1252	0	0	0	0	0	0	0	0	0	0	0	0	0	0	0	0	0	0	0	0	0	0	0	0	0	0	0	0	0	0
073019	13:09:52	13:18:22	509938	5.0.10.0	5_exp_RW	91	Rpleas_acq	CS_A	LWWL	DXXD	ZHHZ	YFFY	JQQJ	CPPC	genießen	sonnig	gütig	küssen	vertrauen	träumen	gemein	sterben	gierig	krank	versagen	töten	1	acq_USpleas_CSpleas1_RW	acq4567_RW	4	71	400	1	300	300	346	50	0	1	1	blank2r.bmp	0	1	+	0	1	blank2r.bmp	492	1	LWWL	492	1	blank2r.bmp	572	3	gütig	866	1	!	1239	1	!	1252	0	0	0	0	0	0	0	0	0	0	0	0	0	0	0	0	0	0	0	0	0	0	0	0	0	0	0	0	0	0
073019	13:09:52	13:18:24	512110	5.0.10.0	5_exp_RW	91	Rpleas_acq	CS_A	LWWL	DXXD	ZHHZ	YFFY	JQQJ	CPPC	genießen	sonnig	gütig	küssen	vertrauen	träumen	gemein	sterben	gierig	krank	versagen	töten	1	acq_USpleas_CSpleas1_RW	acq4567_RW	4	72	400	1	300	300	383	50	0	1	1	blank2r.bmp	0	1	+	0	1	blank2r.bmp	492	1	LWWL	492	1	blank2r.bmp	572	2	sonnig	866	1	!	1239	1	!	1279	0	0	0	0	0	0	0	0	0	0	0	0	0	0	0	0	0	0	0	0	0	0	0	0	0	0	0	0	0	0
073019	13:09:52	13:18:27	514310	5.0.10.0	5_exp_RW	91	Rpleas_acq	CS_A	LWWL	DXXD	ZHHZ	YFFY	JQQJ	CPPC	genießen	sonnig	gütig	küssen	vertrauen	träumen	gemein	sterben	gierig	krank	versagen	töten	1	acq_USunple_CSunple2_RW	acq4567_RW	4	73	400	1	300	300	411	46	0	1	1	blank2r.bmp	0	1	+	0	1	blank2r.bmp	492	1	YFFY	492	1	blank2r.bmp	572	1	krank	866	1	!	1239	1	!	1306	0	0	0	0	0	0	0	0	0	0	0	0	0	0	0	0	0	0	0	0	0	0	0	0	0	0	0	0	0	0
073019	13:09:52	13:18:29	516482	5.0.10.0	5_exp_RW	91	Rpleas_acq	CS_A	LWWL	DXXD	ZHHZ	YFFY	JQQJ	CPPC	genießen	sonnig	gütig	küssen	vertrauen	träumen	gemein	sterben	gierig	krank	versagen	töten	1	acq_USunple_CSunple2_RW	acq4567_RW	4	74	400	1	300	300	375	46	0	1	1	blank2r.bmp	0	1	+	0	1	blank2r.bmp	492	1	YFFY	492	1	blank2r.bmp	572	3	töten	866	1	!	1239	1	!	1279	0	0	0	0	0	0	0	0	0	0	0	0	0	0	0	0	0	0	0	0	0	0	0	0	0	0	0	0	0	0
073019	13:09:52	13:18:31	518641	5.0.10.0	5_exp_RW	91	Rpleas_acq	CS_A	LWWL	DXXD	ZHHZ	YFFY	JQQJ	CPPC	genießen	sonnig	gütig	küssen	vertrauen	träumen	gemein	sterben	gierig	krank	versagen	töten	1	acq_USpleas_CSpleas2_RW	acq4567_RW	4	75	400	1	300	300	346	50	0	1	1	blank2r.bmp	0	1	+	0	1	blank2r.bmp	492	1	DXXD	492	1	blank2r.bmp	572	1	küssen	866	1	!	1239	1	!	1252	0	0	0	0	0	0	0	0	0	0	0	0	0	0	0	0	0	0	0	0	0	0	0	0	0	0	0	0	0	0
073019	13:09:52	13:18:33	521027	5.0.10.0	5_exp_RW	91	Rpleas_acq	CS_A	LWWL	DXXD	ZHHZ	YFFY	JQQJ	CPPC	genießen	sonnig	gütig	küssen	vertrauen	träumen	gemein	sterben	gierig	krank	versagen	töten	1	acq_USunple_CSunple2_RW	acq4567_RW	4	76	400	0	300	300	622	46	0	1	1	blank2r.bmp	0	1	+	0	1	blank2r.bmp	492	1	YFFY	492	1	blank2r.bmp	572	2	versagen	866	1	!	1239	1	!	-1	0	0	0	0	0	0	0	0	0	0	0	0	0	0	0	0	0	0	0	0	0	0	0	0	0	0	0	0	0	0
073019	13:09:52	13:18:36	523346	5.0.10.0	5_exp_RW	91	Rpleas_acq	CS_A	LWWL	DXXD	ZHHZ	YFFY	JQQJ	CPPC	genießen	sonnig	gütig	küssen	vertrauen	träumen	gemein	sterben	gierig	krank	versagen	töten	1	acq_USpleas_CSpleas2_RW	acq4567_RW	4	77	400	0	300	300	540	50	0	1	1	blank2r.bmp	0	1	+	0	1	blank2r.bmp	492	1	DXXD	492	1	blank2r.bmp	572	3	träumen	866	1	!	1239	1	!	-1	0	0	0	0	0	0	0	0	0	0	0	0	0	0	0	0	0	0	0	0	0	0	0	0	0	0	0	0	0	0
073019	13:09:52	13:18:38	525545	5.0.10.0	5_exp_RW	91	Rpleas_acq	CS_A	LWWL	DXXD	ZHHZ	YFFY	JQQJ	CPPC	genießen	sonnig	gütig	küssen	vertrauen	träumen	gemein	sterben	gierig	krank	versagen	töten	1	acq_USpleas_CSpleas2_RW	acq4567_RW	4	78	400	1	300	300	394	50	0	1	1	blank2r.bmp	0	1	+	0	1	blank2r.bmp	492	1	DXXD	492	1	blank2r.bmp	572	1	küssen	866	1	!	1239	1	!	1292	0	0	0	0	0	0	0	0	0	0	0	0	0	0	0	0	0	0	0	0	0	0	0	0	0	0	0	0	0	0
073019	13:09:52	13:18:40	527757	5.0.10.0	5_exp_RW	91	Rpleas_acq	CS_A	LWWL	DXXD	ZHHZ	YFFY	JQQJ	CPPC	genießen	sonnig	gütig	küssen	vertrauen	träumen	gemein	sterben	gierig	krank	versagen	töten	1	acq_USunple_CSunple1_RW	acq4567_RW	4	79	400	1	300	300	400	46	0	1	1	blank2r.bmp	0	1	+	0	1	blank2r.bmp	492	1	ZHHZ	492	1	blank2r.bmp	572	1	gemein	866	1	!	1239	1	!	1306	0	0	0	0	0	0	0	0	0	0	0	0	0	0	0	0	0	0	0	0	0	0	0	0	0	0	0	0	0	0
073019	13:09:52	13:18:42	529930	5.0.10.0	5_exp_RW	91	Rpleas_acq	CS_A	LWWL	DXXD	ZHHZ	YFFY	JQQJ	CPPC	genießen	sonnig	gütig	küssen	vertrauen	träumen	gemein	sterben	gierig	krank	versagen	töten	1	acq_USpleas_CSpleas2_RW	acq4567_RW	4	80	400	1	300	300	375	50	0	1	1	blank2r.bmp	0	1	+	0	1	blank2r.bmp	492	1	DXXD	492	1	blank2r.bmp	572	2	vertrauen	866	1	!	1239	1	!	1279	0	0	0	0	0	0	0	0	0	0	0	0	0	0	0	0	0	0	0	0	0	0	0	0	0	0	0	0	0	0
073019	13:09:52	13:19:12	559318	5.0.10.0	5_exp_RW	91	Rpleas_acq	CS_A	LWWL	DXXD	ZHHZ	YFFY	JQQJ	CPPC	genießen	sonnig	gütig	küssen	vertrauen	träumen	gemein	sterben	gierig	krank	versagen	töten	1	acq_USpleas_CSpleas2_RW	acq4567_RW	5	1	400	1	300	300	354	50	0	1	1	blank2r.bmp	0	1	+	0	1	blank2r.bmp	492	1	DXXD	492	1	blank2r.bmp	572	1	küssen	866	1	!	1239	1	!	1252	0	0	0	0	0	0	0	0	0	0	0	0	0	0	0	0	0	0	0	0	0	0	0	0	0	0	0	0	0	0
073019	13:09:52	13:19:14	561464	5.0.10.0	5_exp_RW	91	Rpleas_acq	CS_A	LWWL	DXXD	ZHHZ	YFFY	JQQJ	CPPC	genießen	sonnig	gütig	küssen	vertrauen	träumen	gemein	sterben	gierig	krank	versagen	töten	1	acq_USpleas_CSpleas1_RW	acq4567_RW	5	2	400	1	300	300	351	50	0	1	1	blank2r.bmp	0	1	+	0	1	blank2r.bmp	492	1	LWWL	492	1	blank2r.bmp	572	1	genießen	866	1	!	1239	1	!	1252	0	0	0	0	0	0	0	0	0	0	0	0	0	0	0	0	0	0	0	0	0	0	0	0	0	0	0	0	0	0
073019	13:09:52	13:19:16	563556	5.0.10.0	5_exp_RW	91	Rpleas_acq	CS_A	LWWL	DXXD	ZHHZ	YFFY	JQQJ	CPPC	genießen	sonnig	gütig	küssen	vertrauen	träumen	gemein	sterben	gierig	krank	versagen	töten	1	acq_USunple_CSunple1_RW	acq4567_RW	5	3	400	0	300	300	331	50	0	0	1	blank2r.bmp	0	1	+	0	1	blank2r.bmp	492	1	ZHHZ	492	1	blank2r.bmp	572	1	gemein	866	1	!	-1	1	!	-1	0	0	0	0	0	0	0	0	0	0	0	0	0	0	0	0	0	0	0	0	0	0	0	0	0	0	0	0	0	0
073019	13:09:52	13:19:18	565902	5.0.10.0	5_exp_RW	91	Rpleas_acq	CS_A	LWWL	DXXD	ZHHZ	YFFY	JQQJ	CPPC	genießen	sonnig	gütig	küssen	vertrauen	träumen	gemein	sterben	gierig	krank	versagen	töten	1	acq_USpleas_CSpleas1_RW	acq4567_RW	5	4	400	0	300	300	565	50	0	1	1	blank2r.bmp	0	1	+	0	1	blank2r.bmp	492	1	LWWL	492	1	blank2r.bmp	572	3	gütig	866	1	!	1239	1	!	-1	0	0	0	0	0	0	0	0	0	0	0	0	0	0	0	0	0	0	0	0	0	0	0	0	0	0	0	0	0	0
073019	13:09:52	13:19:20	568061	5.0.10.0	5_exp_RW	91	Rpleas_acq	CS_A	LWWL	DXXD	ZHHZ	YFFY	JQQJ	CPPC	genießen	sonnig	gütig	küssen	vertrauen	träumen	gemein	sterben	gierig	krank	versagen	töten	1	acq_USpleas_CSpleas1_RW	acq4567_RW	5	5	400	1	300	300	355	50	0	1	1	blank2r.bmp	0	1	+	0	1	blank2r.bmp	492	1	LWWL	492	1	blank2r.bmp	572	2	sonnig	866	1	!	1239	1	!	1252	0	0	0	0	0	0	0	0	0	0	0	0	0	0	0	0	0	0	0	0	0	0	0	0	0	0	0	0	0	0
073019	13:09:52	13:19:23	570247	5.0.10.0	5_exp_RW	91	Rpleas_acq	CS_A	LWWL	DXXD	ZHHZ	YFFY	JQQJ	CPPC	genießen	sonnig	gütig	küssen	vertrauen	träumen	gemein	sterben	gierig	krank	versagen	töten	1	acq_USunple_CSunple1_RW	acq4567_RW	5	6	400	1	300	300	393	46	0	1	1	blank2r.bmp	0	1	+	0	1	blank2r.bmp	492	1	ZHHZ	492	1	blank2r.bmp	572	2	sterben	866	1	!	1239	1	!	1292	0	0	0	0	0	0	0	0	0	0	0	0	0	0	0	0	0	0	0	0	0	0	0	0	0	0	0	0	0	0
073019	13:09:52	13:19:25	572446	5.0.10.0	5_exp_RW	91	Rpleas_acq	CS_A	LWWL	DXXD	ZHHZ	YFFY	JQQJ	CPPC	genießen	sonnig	gütig	küssen	vertrauen	träumen	gemein	sterben	gierig	krank	versagen	töten	1	acq_USunple_CSunple1_RW	acq4567_RW	5	7	400	1	300	300	411	46	0	1	1	blank2r.bmp	0	1	+	0	1	blank2r.bmp	492	1	ZHHZ	492	1	blank2r.bmp	572	3	gierig	866	1	!	1239	1	!	1306	0	0	0	0	0	0	0	0	0	0	0	0	0	0	0	0	0	0	0	0	0	0	0	0	0	0	0	0	0	0
073019	13:09:52	13:19:27	574685	5.0.10.0	5_exp_RW	91	Rpleas_acq	CS_A	LWWL	DXXD	ZHHZ	YFFY	JQQJ	CPPC	genießen	sonnig	gütig	küssen	vertrauen	träumen	gemein	sterben	gierig	krank	versagen	töten	1	acq_USpleas_CSpleas2_RW	acq4567_RW	5	8	400	1	300	300	449	50	0	1	1	blank2r.bmp	0	1	+	0	1	blank2r.bmp	492	1	DXXD	492	1	blank2r.bmp	572	2	vertrauen	866	1	!	1239	1	!	1346	0	0	0	0	0	0	0	0	0	0	0	0	0	0	0	0	0	0	0	0	0	0	0	0	0	0	0	0	0	0
073019	13:09:52	13:19:29	576991	5.0.10.0	5_exp_RW	91	Rpleas_acq	CS_A	LWWL	DXXD	ZHHZ	YFFY	JQQJ	CPPC	genießen	sonnig	gütig	küssen	vertrauen	träumen	gemein	sterben	gierig	krank	versagen	töten	1	acq_USpleas_CSpleas1_RW	acq4567_RW	5	9	400	0	300	300	519	50	0	1	1	blank2r.bmp	0	1	+	0	1	blank2r.bmp	492	1	LWWL	492	1	blank2r.bmp	572	3	gütig	866	1	!	1239	1	!	-1	0	0	0	0	0	0	0	0	0	0	0	0	0	0	0	0	0	0	0	0	0	0	0	0	0	0	0	0	0	0
073019	13:09:52	13:19:32	579256	5.0.10.0	5_exp_RW	91	Rpleas_acq	CS_A	LWWL	DXXD	ZHHZ	YFFY	JQQJ	CPPC	genießen	sonnig	gütig	küssen	vertrauen	träumen	gemein	sterben	gierig	krank	versagen	töten	1	acq_USunple_CSunple2_RW	acq4567_RW	5	10	400	0	300	300	479	46	0	1	1	blank2r.bmp	0	1	+	0	1	blank2r.bmp	492	1	YFFY	492	1	blank2r.bmp	572	2	versagen	866	1	!	1239	1	!	-1	0	0	0	0	0	0	0	0	0	0	0	0	0	0	0	0	0	0	0	0	0	0	0	0	0	0	0	0	0	0
073019	13:09:52	13:19:34	581522	5.0.10.0	5_exp_RW	91	Rpleas_acq	CS_A	LWWL	DXXD	ZHHZ	YFFY	JQQJ	CPPC	genießen	sonnig	gütig	küssen	vertrauen	träumen	gemein	sterben	gierig	krank	versagen	töten	1	acq_USunple_CSunple1_RW	acq4567_RW	5	11	400	0	300	300	488	46	0	1	1	blank2r.bmp	0	1	+	0	1	blank2r.bmp	492	1	ZHHZ	492	1	blank2r.bmp	572	2	sterben	866	1	!	1239	1	!	-1	0	0	0	0	0	0	0	0	0	0	0	0	0	0	0	0	0	0	0	0	0	0	0	0	0	0	0	0	0	0
073019	13:09:52	13:19:36	583695	5.0.10.0	5_exp_RW	91	Rpleas_acq	CS_A	LWWL	DXXD	ZHHZ	YFFY	JQQJ	CPPC	genießen	sonnig	gütig	küssen	vertrauen	träumen	gemein	sterben	gierig	krank	versagen	töten	1	acq_USpleas_CSpleas2_RW	acq4567_RW	5	12	400	1	300	300	346	46	0	0	1	blank2r.bmp	0	1	+	0	1	blank2r.bmp	492	1	DXXD	492	1	blank2r.bmp	572	3	träumen	866	1	!	1239	1	!	1252	0	0	0	0	0	0	0	0	0	0	0	0	0	0	0	0	0	0	0	0	0	0	0	0	0	0	0	0	0	0
073019	13:09:52	13:19:38	585974	5.0.10.0	5_exp_RW	91	Rpleas_acq	CS_A	LWWL	DXXD	ZHHZ	YFFY	JQQJ	CPPC	genießen	sonnig	gütig	küssen	vertrauen	träumen	gemein	sterben	gierig	krank	versagen	töten	1	acq_USunple_CSunple1_RW	acq4567_RW	5	13	400	0	300	300	512	46	0	1	1	blank2r.bmp	0	1	+	0	1	blank2r.bmp	492	1	ZHHZ	492	1	blank2r.bmp	572	1	gemein	866	1	!	1239	1	!	-1	0	0	0	0	0	0	0	0	0	0	0	0	0	0	0	0	0	0	0	0	0	0	0	0	0	0	0	0	0	0
073019	13:09:52	13:19:40	588080	5.0.10.0	5_exp_RW	91	Rpleas_acq	CS_A	LWWL	DXXD	ZHHZ	YFFY	JQQJ	CPPC	genießen	sonnig	gütig	küssen	vertrauen	träumen	gemein	sterben	gierig	krank	versagen	töten	1	acq_USpleas_CSpleas1_RW	acq4567_RW	5	14	400	0	300	300	323	50	0	1	1	blank2r.bmp	0	1	+	0	1	blank2r.bmp	492	1	LWWL	492	1	blank2r.bmp	572	2	sonnig	866	1	!	-1	1	!	-1	0	0	0	0	0	0	0	0	0	0	0	0	0	0	0	0	0	0	0	0	0	0	0	0	0	0	0	0	0	0
073019	13:09:52	13:19:43	590345	5.0.10.0	5_exp_RW	91	Rpleas_acq	CS_A	LWWL	DXXD	ZHHZ	YFFY	JQQJ	CPPC	genießen	sonnig	gütig	küssen	vertrauen	träumen	gemein	sterben	gierig	krank	versagen	töten	1	acq_USunple_CSunple2_RW	acq4567_RW	5	15	400	1	300	300	459	46	0	1	1	blank2r.bmp	0	1	+	0	1	blank2r.bmp	492	1	YFFY	492	1	blank2r.bmp	572	3	töten	866	1	!	1239	1	!	1359	0	0	0	0	0	0	0	0	0	0	0	0	0	0	0	0	0	0	0	0	0	0	0	0	0	0	0	0	0	0
073019	13:09:52	13:19:45	592491	5.0.10.0	5_exp_RW	91	Rpleas_acq	CS_A	LWWL	DXXD	ZHHZ	YFFY	JQQJ	CPPC	genießen	sonnig	gütig	küssen	vertrauen	träumen	gemein	sterben	gierig	krank	versagen	töten	1	acq_USpleas_CSpleas2_RW	acq4567_RW	5	16	400	1	300	300	347	50	0	1	1	blank2r.bmp	0	1	+	0	1	blank2r.bmp	492	1	DXXD	492	1	blank2r.bmp	572	1	küssen	866	1	!	1239	1	!	1252	0	0	0	0	0	0	0	0	0	0	0	0	0	0	0	0	0	0	0	0	0	0	0	0	0	0	0	0	0	0
073019	13:09:52	13:19:47	594664	5.0.10.0	5_exp_RW	91	Rpleas_acq	CS_A	LWWL	DXXD	ZHHZ	YFFY	JQQJ	CPPC	genießen	sonnig	gütig	küssen	vertrauen	träumen	gemein	sterben	gierig	krank	versagen	töten	1	acq_USunple_CSunple2_RW	acq4567_RW	5	17	400	1	300	300	385	46	0	1	1	blank2r.bmp	0	1	+	0	1	blank2r.bmp	492	1	YFFY	492	1	blank2r.bmp	572	1	krank	866	1	!	1239	1	!	1279	0	0	0	0	0	0	0	0	0	0	0	0	0	0	0	0	0	0	0	0	0	0	0	0	0	0	0	0	0	0
073019	13:09:52	13:19:49	596889	5.0.10.0	5_exp_RW	91	Rpleas_acq	CS_A	LWWL	DXXD	ZHHZ	YFFY	JQQJ	CPPC	genießen	sonnig	gütig	küssen	vertrauen	träumen	gemein	sterben	gierig	krank	versagen	töten	1	acq_USunple_CSunple2_RW	acq4567_RW	5	18	400	1	300	300	435	50	0	0	1	blank2r.bmp	0	1	+	0	1	blank2r.bmp	492	1	YFFY	492	1	blank2r.bmp	572	1	krank	866	1	!	1239	1	!	1332	0	0	0	0	0	0	0	0	0	0	0	0	0	0	0	0	0	0	0	0	0	0	0	0	0	0	0	0	0	0
073019	13:09:52	13:19:51	599115	5.0.10.0	5_exp_RW	91	Rpleas_acq	CS_A	LWWL	DXXD	ZHHZ	YFFY	JQQJ	CPPC	genießen	sonnig	gütig	küssen	vertrauen	träumen	gemein	sterben	gierig	krank	versagen	töten	1	acq_USpleas_CSpleas2_RW	acq4567_RW	5	19	400	1	300	300	433	50	0	1	1	blank2r.bmp	0	1	+	0	1	blank2r.bmp	492	1	DXXD	492	1	blank2r.bmp	572	2	vertrauen	866	1	!	1239	1	!	1332	0	0	0	0	0	0	0	0	0	0	0	0	0	0	0	0	0	0	0	0	0	0	0	0	0	0	0	0	0	0
073019	13:09:52	13:19:54	601354	5.0.10.0	5_exp_RW	91	Rpleas_acq	CS_A	LWWL	DXXD	ZHHZ	YFFY	JQQJ	CPPC	genießen	sonnig	gütig	küssen	vertrauen	träumen	gemein	sterben	gierig	krank	versagen	töten	1	acq_USunple_CSunple2_RW	acq4567_RW	5	20	400	1	300	300	430	46	0	1	1	blank2r.bmp	0	1	+	0	1	blank2r.bmp	492	1	YFFY	492	1	blank2r.bmp	572	2	versagen	866	1	!	1239	1	!	1332	0	0	0	0	0	0	0	0	0	0	0	0	0	0	0	0	0	0	0	0	0	0	0	0	0	0	0	0	0	0
073019	13:09:52	13:19:56	603567	5.0.10.0	5_exp_RW	91	Rpleas_acq	CS_A	LWWL	DXXD	ZHHZ	YFFY	JQQJ	CPPC	genießen	sonnig	gütig	küssen	vertrauen	träumen	gemein	sterben	gierig	krank	versagen	töten	1	acq_USpleas_CSpleas2_RW	acq4567_RW	5	21	400	1	300	300	419	50	0	1	1	blank2r.bmp	0	1	+	0	1	blank2r.bmp	492	1	DXXD	492	1	blank2r.bmp	572	3	träumen	866	1	!	1239	1	!	1319	0	0	0	0	0	0	0	0	0	0	0	0	0	0	0	0	0	0	0	0	0	0	0	0	0	0	0	0	0	0
073019	13:09:52	13:19:58	605726	5.0.10.0	5_exp_RW	91	Rpleas_acq	CS_A	LWWL	DXXD	ZHHZ	YFFY	JQQJ	CPPC	genießen	sonnig	gütig	küssen	vertrauen	träumen	gemein	sterben	gierig	krank	versagen	töten	1	acq_USunple_CSunple2_RW	acq4567_RW	5	22	400	1	300	300	364	46	0	1	1	blank2r.bmp	0	1	+	0	1	blank2r.bmp	492	1	YFFY	492	1	blank2r.bmp	572	3	töten	866	1	!	1239	1	!	1266	0	0	0	0	0	0	0	0	0	0	0	0	0	0	0	0	0	0	0	0	0	0	0	0	0	0	0	0	0	0
073019	13:09:52	13:20:00	607871	5.0.10.0	5_exp_RW	91	Rpleas_acq	CS_A	LWWL	DXXD	ZHHZ	YFFY	JQQJ	CPPC	genießen	sonnig	gütig	küssen	vertrauen	träumen	gemein	sterben	gierig	krank	versagen	töten	1	acq_USunple_CSunple1_RW	acq4567_RW	5	23	400	1	300	300	351	50	0	0	1	blank2r.bmp	0	1	+	0	1	blank2r.bmp	492	1	ZHHZ	492	1	blank2r.bmp	572	3	gierig	866	1	!	1239	1	!	1252	0	0	0	0	0	0	0	0	0	0	0	0	0	0	0	0	0	0	0	0	0	0	0	0	0	0	0	0	0	0
073019	13:09:52	13:20:02	609964	5.0.10.0	5_exp_RW	91	Rpleas_acq	CS_A	LWWL	DXXD	ZHHZ	YFFY	JQQJ	CPPC	genießen	sonnig	gütig	küssen	vertrauen	träumen	gemein	sterben	gierig	krank	versagen	töten	1	acq_USunple_CSunple2_RW	acq4567_RW	5	24	400	0	300	300	329	50	0	0	1	blank2r.bmp	0	1	+	0	1	blank2r.bmp	492	1	YFFY	492	1	blank2r.bmp	572	2	versagen	866	1	!	-1	1	!	-1	0	0	0	0	0	0	0	0	0	0	0	0	0	0	0	0	0	0	0	0	0	0	0	0	0	0	0	0	0	0
073019	13:09:52	13:20:05	612163	5.0.10.0	5_exp_RW	91	Rpleas_acq	CS_A	LWWL	DXXD	ZHHZ	YFFY	JQQJ	CPPC	genießen	sonnig	gütig	küssen	vertrauen	träumen	gemein	sterben	gierig	krank	versagen	töten	1	acq_USunple_CSunple2_RW	acq4567_RW	5	25	400	1	300	300	390	46	0	1	1	blank2r.bmp	0	1	+	0	1	blank2r.bmp	492	1	YFFY	492	1	blank2r.bmp	572	3	töten	866	1	!	1239	1	!	1292	0	0	0	0	0	0	0	0	0	0	0	0	0	0	0	0	0	0	0	0	0	0	0	0	0	0	0	0	0	0
073019	13:09:52	13:20:07	614402	5.0.10.0	5_exp_RW	91	Rpleas_acq	CS_A	LWWL	DXXD	ZHHZ	YFFY	JQQJ	CPPC	genießen	sonnig	gütig	küssen	vertrauen	träumen	gemein	sterben	gierig	krank	versagen	töten	1	acq_USunple_CSunple1_RW	acq4567_RW	5	26	400	1	300	300	450	46	0	1	1	blank2r.bmp	0	1	+	0	1	blank2r.bmp	492	1	ZHHZ	492	1	blank2r.bmp	572	3	gierig	866	1	!	1239	1	!	1346	0	0	0	0	0	0	0	0	0	0	0	0	0	0	0	0	0	0	0	0	0	0	0	0	0	0	0	0	0	0
073019	13:09:52	13:20:09	616588	5.0.10.0	5_exp_RW	91	Rpleas_acq	CS_A	LWWL	DXXD	ZHHZ	YFFY	JQQJ	CPPC	genießen	sonnig	gütig	küssen	vertrauen	träumen	gemein	sterben	gierig	krank	versagen	töten	1	acq_USunple_CSunple2_RW	acq4567_RW	5	27	400	1	300	300	380	46	0	1	1	blank2r.bmp	0	1	+	0	1	blank2r.bmp	492	1	YFFY	492	1	blank2r.bmp	572	1	krank	866	1	!	1239	1	!	1279	0	0	0	0	0	0	0	0	0	0	0	0	0	0	0	0	0	0	0	0	0	0	0	0	0	0	0	0	0	0
073019	13:09:52	13:20:11	618920	5.0.10.0	5_exp_RW	91	Rpleas_acq	CS_A	LWWL	DXXD	ZHHZ	YFFY	JQQJ	CPPC	genießen	sonnig	gütig	küssen	vertrauen	träumen	gemein	sterben	gierig	krank	versagen	töten	1	acq_USpleas_CSpleas1_RW	acq4567_RW	5	28	400	0	300	300	552	46	0	0	1	blank2r.bmp	0	1	+	0	1	blank2r.bmp	492	1	LWWL	492	1	blank2r.bmp	572	1	genießen	866	1	!	1239	1	!	-1	0	0	0	0	0	0	0	0	0	0	0	0	0	0	0	0	0	0	0	0	0	0	0	0	0	0	0	0	0	0
073019	13:09:52	13:20:14	621173	5.0.10.0	5_exp_RW	91	Rpleas_acq	CS_A	LWWL	DXXD	ZHHZ	YFFY	JQQJ	CPPC	genießen	sonnig	gütig	küssen	vertrauen	träumen	gemein	sterben	gierig	krank	versagen	töten	1	acq_USpleas_CSpleas2_RW	acq4567_RW	5	29	400	1	300	300	450	50	0	1	1	blank2r.bmp	0	1	+	0	1	blank2r.bmp	492	1	DXXD	492	1	blank2r.bmp	572	3	träumen	866	1	!	1239	1	!	1346	0	0	0	0	0	0	0	0	0	0	0	0	0	0	0	0	0	0	0	0	0	0	0	0	0	0	0	0	0	0
073019	13:09:52	13:20:16	623438	5.0.10.0	5_exp_RW	91	Rpleas_acq	CS_A	LWWL	DXXD	ZHHZ	YFFY	JQQJ	CPPC	genießen	sonnig	gütig	küssen	vertrauen	träumen	gemein	sterben	gierig	krank	versagen	töten	1	acq_USunple_CSunple1_RW	acq4567_RW	5	30	400	1	300	300	452	46	0	1	1	blank2r.bmp	0	1	+	0	1	blank2r.bmp	492	1	ZHHZ	492	1	blank2r.bmp	572	2	sterben	866	1	!	1239	1	!	1359	0	0	0	0	0	0	0	0	0	0	0	0	0	0	0	0	0	0	0	0	0	0	0	0	0	0	0	0	0	0
073019	13:09:52	13:20:18	625678	5.0.10.0	5_exp_RW	91	Rpleas_acq	CS_A	LWWL	DXXD	ZHHZ	YFFY	JQQJ	CPPC	genießen	sonnig	gütig	küssen	vertrauen	träumen	gemein	sterben	gierig	krank	versagen	töten	1	acq_USunple_CSunple1_RW	acq4567_RW	5	31	400	1	300	300	451	46	0	1	1	blank2r.bmp	0	1	+	0	1	blank2r.bmp	492	1	ZHHZ	492	1	blank2r.bmp	572	1	gemein	866	1	!	1239	1	!	1346	0	0	0	0	0	0	0	0	0	0	0	0	0	0	0	0	0	0	0	0	0	0	0	0	0	0	0	0	0	0
073019	13:09:52	13:20:20	627903	5.0.10.0	5_exp_RW	91	Rpleas_acq	CS_A	LWWL	DXXD	ZHHZ	YFFY	JQQJ	CPPC	genießen	sonnig	gütig	küssen	vertrauen	träumen	gemein	sterben	gierig	krank	versagen	töten	1	acq_USunple_CSunple2_RW	acq4567_RW	5	32	400	1	300	300	433	46	0	1	1	blank2r.bmp	0	1	+	0	1	blank2r.bmp	492	1	YFFY	492	1	blank2r.bmp	572	1	krank	866	1	!	1239	1	!	1332	0	0	0	0	0	0	0	0	0	0	0	0	0	0	0	0	0	0	0	0	0	0	0	0	0	0	0	0	0	0
073019	13:09:52	13:20:22	630156	5.0.10.0	5_exp_RW	91	Rpleas_acq	CS_A	LWWL	DXXD	ZHHZ	YFFY	JQQJ	CPPC	genießen	sonnig	gütig	küssen	vertrauen	träumen	gemein	sterben	gierig	krank	versagen	töten	1	acq_USpleas_CSpleas2_RW	acq4567_RW	5	33	400	0	300	300	479	46	0	0	1	blank2r.bmp	0	1	+	0	1	blank2r.bmp	492	1	DXXD	492	1	blank2r.bmp	572	2	vertrauen	866	1	!	1239	1	!	-1	0	0	0	0	0	0	0	0	0	0	0	0	0	0	0	0	0	0	0	0	0	0	0	0	0	0	0	0	0	0
073019	13:09:52	13:20:25	632342	5.0.10.0	5_exp_RW	91	Rpleas_acq	CS_A	LWWL	DXXD	ZHHZ	YFFY	JQQJ	CPPC	genießen	sonnig	gütig	küssen	vertrauen	träumen	gemein	sterben	gierig	krank	versagen	töten	1	acq_USpleas_CSpleas1_RW	acq4567_RW	5	34	400	1	300	300	381	50	0	1	1	blank2r.bmp	0	1	+	0	1	blank2r.bmp	492	1	LWWL	492	1	blank2r.bmp	572	1	genießen	866	1	!	1239	1	!	1279	0	0	0	0	0	0	0	0	0	0	0	0	0	0	0	0	0	0	0	0	0	0	0	0	0	0	0	0	0	0
073019	13:09:52	13:20:27	634621	5.0.10.0	5_exp_RW	91	Rpleas_acq	CS_A	LWWL	DXXD	ZHHZ	YFFY	JQQJ	CPPC	genießen	sonnig	gütig	küssen	vertrauen	träumen	gemein	sterben	gierig	krank	versagen	töten	1	acq_USunple_CSunple1_RW	acq4567_RW	5	35	400	0	300	300	512	46	0	1	1	blank2r.bmp	0	1	+	0	1	blank2r.bmp	492	1	ZHHZ	492	1	blank2r.bmp	572	3	gierig	866	1	!	1239	1	!	-1	0	0	0	0	0	0	0	0	0	0	0	0	0	0	0	0	0	0	0	0	0	0	0	0	0	0	0	0	0	0
073019	13:09:52	13:20:29	636806	5.0.10.0	5_exp_RW	91	Rpleas_acq	CS_A	LWWL	DXXD	ZHHZ	YFFY	JQQJ	CPPC	genießen	sonnig	gütig	küssen	vertrauen	träumen	gemein	sterben	gierig	krank	versagen	töten	1	acq_USpleas_CSpleas2_RW	acq4567_RW	5	36	400	1	300	300	381	50	0	1	1	blank2r.bmp	0	1	+	0	1	blank2r.bmp	492	1	DXXD	492	1	blank2r.bmp	572	1	küssen	866	1	!	1239	1	!	1279	0	0	0	0	0	0	0	0	0	0	0	0	0	0	0	0	0	0	0	0	0	0	0	0	0	0	0	0	0	0
073019	13:09:52	13:20:31	639059	5.0.10.0	5_exp_RW	91	Rpleas_acq	CS_A	LWWL	DXXD	ZHHZ	YFFY	JQQJ	CPPC	genießen	sonnig	gütig	küssen	vertrauen	träumen	gemein	sterben	gierig	krank	versagen	töten	1	acq_USpleas_CSpleas1_RW	acq4567_RW	5	37	400	0	300	300	479	50	0	1	1	blank2r.bmp	0	1	+	0	1	blank2r.bmp	492	1	LWWL	492	1	blank2r.bmp	572	2	sonnig	866	1	!	1239	1	!	-1	0	0	0	0	0	0	0	0	0	0	0	0	0	0	0	0	0	0	0	0	0	0	0	0	0	0	0	0	0	0
073019	13:09:52	13:20:34	641324	5.0.10.0	5_exp_RW	91	Rpleas_acq	CS_A	LWWL	DXXD	ZHHZ	YFFY	JQQJ	CPPC	genießen	sonnig	gütig	küssen	vertrauen	träumen	gemein	sterben	gierig	krank	versagen	töten	1	acq_USpleas_CSpleas1_RW	acq4567_RW	5	38	400	1	300	300	457	50	0	1	1	blank2r.bmp	0	1	+	0	1	blank2r.bmp	492	1	LWWL	492	1	blank2r.bmp	572	3	gütig	866	1	!	1239	1	!	1359	0	0	0	0	0	0	0	0	0	0	0	0	0	0	0	0	0	0	0	0	0	0	0	0	0	0	0	0	0	0
073019	13:09:52	13:20:36	643537	5.0.10.0	5_exp_RW	91	Rpleas_acq	CS_A	LWWL	DXXD	ZHHZ	YFFY	JQQJ	CPPC	genießen	sonnig	gütig	küssen	vertrauen	träumen	gemein	sterben	gierig	krank	versagen	töten	1	acq_USpleas_CSpleas1_RW	acq4567_RW	5	39	400	1	300	300	420	50	0	1	1	blank2r.bmp	0	1	+	0	1	blank2r.bmp	492	1	LWWL	492	1	blank2r.bmp	572	1	genießen	866	1	!	1239	1	!	1319	0	0	0	0	0	0	0	0	0	0	0	0	0	0	0	0	0	0	0	0	0	0	0	0	0	0	0	0	0	0
073019	13:09:52	13:20:38	645696	5.0.10.0	5_exp_RW	91	Rpleas_acq	CS_A	LWWL	DXXD	ZHHZ	YFFY	JQQJ	CPPC	genießen	sonnig	gütig	küssen	vertrauen	träumen	gemein	sterben	gierig	krank	versagen	töten	1	acq_USpleas_CSpleas2_RW	acq4567_RW	5	40	400	1	300	300	372	50	0	1	1	blank2r.bmp	0	1	+	0	1	blank2r.bmp	492	1	DXXD	492	1	blank2r.bmp	572	1	küssen	866	1	!	1239	1	!	1266	0	0	0	0	0	0	0	0	0	0	0	0	0	0	0	0	0	0	0	0	0	0	0	0	0	0	0	0	0	0
073019	13:09:52	13:20:40	647948	5.0.10.0	5_exp_RW	91	Rpleas_acq	CS_A	LWWL	DXXD	ZHHZ	YFFY	JQQJ	CPPC	genießen	sonnig	gütig	küssen	vertrauen	träumen	gemein	sterben	gierig	krank	versagen	töten	1	acq_USunple_CSunple1_RW	acq4567_RW	5	41	400	1	300	300	448	46	0	1	1	blank2r.bmp	0	1	+	0	1	blank2r.bmp	492	1	ZHHZ	492	1	blank2r.bmp	572	2	sterben	866	1	!	1239	1	!	1346	0	0	0	0	0	0	0	0	0	0	0	0	0	0	0	0	0	0	0	0	0	0	0	0	0	0	0	0	0	0
073019	13:09:52	13:20:43	650188	5.0.10.0	5_exp_RW	91	Rpleas_acq	CS_A	LWWL	DXXD	ZHHZ	YFFY	JQQJ	CPPC	genießen	sonnig	gütig	küssen	vertrauen	träumen	gemein	sterben	gierig	krank	versagen	töten	1	acq_USpleas_CSpleas2_RW	acq4567_RW	5	42	400	1	300	300	449	46	0	0	1	blank2r.bmp	0	1	+	0	1	blank2r.bmp	492	1	DXXD	492	1	blank2r.bmp	572	3	träumen	866	1	!	1239	1	!	1346	0	0	0	0	0	0	0	0	0	0	0	0	0	0	0	0	0	0	0	0	0	0	0	0	0	0	0	0	0	0
073019	13:09:52	13:20:45	652333	5.0.10.0	5_exp_RW	91	Rpleas_acq	CS_A	LWWL	DXXD	ZHHZ	YFFY	JQQJ	CPPC	genießen	sonnig	gütig	küssen	vertrauen	träumen	gemein	sterben	gierig	krank	versagen	töten	1	acq_USunple_CSunple1_RW	acq4567_RW	5	43	400	1	300	300	354	50	0	0	1	blank2r.bmp	0	1	+	0	1	blank2r.bmp	492	1	ZHHZ	492	1	blank2r.bmp	572	1	gemein	866	1	!	1239	1	!	1252	0	0	0	0	0	0	0	0	0	0	0	0	0	0	0	0	0	0	0	0	0	0	0	0	0	0	0	0	0	0
073019	13:09:52	13:20:47	654492	5.0.10.0	5_exp_RW	91	Rpleas_acq	CS_A	LWWL	DXXD	ZHHZ	YFFY	JQQJ	CPPC	genießen	sonnig	gütig	küssen	vertrauen	träumen	gemein	sterben	gierig	krank	versagen	töten	1	acq_USpleas_CSpleas1_RW	acq4567_RW	5	44	400	1	300	300	361	50	0	1	1	blank2r.bmp	0	1	+	0	1	blank2r.bmp	492	1	LWWL	492	1	blank2r.bmp	572	2	sonnig	866	1	!	1239	1	!	1266	0	0	0	0	0	0	0	0	0	0	0	0	0	0	0	0	0	0	0	0	0	0	0	0	0	0	0	0	0	0
073019	13:09:52	13:20:49	656732	5.0.10.0	5_exp_RW	91	Rpleas_acq	CS_A	LWWL	DXXD	ZHHZ	YFFY	JQQJ	CPPC	genießen	sonnig	gütig	küssen	vertrauen	träumen	gemein	sterben	gierig	krank	versagen	töten	1	acq_USunple_CSunple1_RW	acq4567_RW	5	45	400	1	300	300	448	46	0	1	1	blank2r.bmp	0	1	+	0	1	blank2r.bmp	492	1	ZHHZ	492	1	blank2r.bmp	572	1	gemein	866	1	!	1239	1	!	1346	0	0	0	0	0	0	0	0	0	0	0	0	0	0	0	0	0	0	0	0	0	0	0	0	0	0	0	0	0	0
073019	13:09:52	13:20:51	658971	5.0.10.0	5_exp_RW	91	Rpleas_acq	CS_A	LWWL	DXXD	ZHHZ	YFFY	JQQJ	CPPC	genießen	sonnig	gütig	küssen	vertrauen	träumen	gemein	sterben	gierig	krank	versagen	töten	1	acq_USunple_CSunple2_RW	acq4567_RW	5	46	400	1	300	300	451	46	0	1	1	blank2r.bmp	0	1	+	0	1	blank2r.bmp	492	1	YFFY	492	1	blank2r.bmp	572	3	töten	866	1	!	1239	1	!	1346	0	0	0	0	0	0	0	0	0	0	0	0	0	0	0	0	0	0	0	0	0	0	0	0	0	0	0	0	0	0
073019	13:09:52	13:20:54	661263	5.0.10.0	5_exp_RW	91	Rpleas_acq	CS_A	LWWL	DXXD	ZHHZ	YFFY	JQQJ	CPPC	genießen	sonnig	gütig	küssen	vertrauen	träumen	gemein	sterben	gierig	krank	versagen	töten	1	acq_USunple_CSunple2_RW	acq4567_RW	5	47	400	0	300	300	528	46	0	1	1	blank2r.bmp	0	1	+	0	1	blank2r.bmp	492	1	YFFY	492	1	blank2r.bmp	572	2	versagen	866	1	!	1239	1	!	-1	0	0	0	0	0	0	0	0	0	0	0	0	0	0	0	0	0	0	0	0	0	0	0	0	0	0	0	0	0	0
073019	13:09:52	13:20:56	663529	5.0.10.0	5_exp_RW	91	Rpleas_acq	CS_A	LWWL	DXXD	ZHHZ	YFFY	JQQJ	CPPC	genießen	sonnig	gütig	küssen	vertrauen	träumen	gemein	sterben	gierig	krank	versagen	töten	1	acq_USunple_CSunple2_RW	acq4567_RW	5	48	400	1	300	300	462	46	0	1	1	blank2r.bmp	0	1	+	0	1	blank2r.bmp	492	1	YFFY	492	1	blank2r.bmp	572	1	krank	866	1	!	1239	1	!	1359	0	0	0	0	0	0	0	0	0	0	0	0	0	0	0	0	0	0	0	0	0	0	0	0	0	0	0	0	0	0
073019	13:09:52	13:20:58	665595	5.0.10.0	5_exp_RW	91	Rpleas_acq	CS_A	LWWL	DXXD	ZHHZ	YFFY	JQQJ	CPPC	genießen	sonnig	gütig	küssen	vertrauen	träumen	gemein	sterben	gierig	krank	versagen	töten	1	acq_USunple_CSunple2_RW	acq4567_RW	5	49	400	0	300	300	301	46	0	1	1	blank2r.bmp	0	1	+	0	1	blank2r.bmp	492	1	YFFY	492	1	blank2r.bmp	572	3	töten	866	1	!	-1	1	!	-1	0	0	0	0	0	0	0	0	0	0	0	0	0	0	0	0	0	0	0	0	0	0	0	0	0	0	0	0	0	0
073019	13:09:52	13:21:00	667820	5.0.10.0	5_exp_RW	91	Rpleas_acq	CS_A	LWWL	DXXD	ZHHZ	YFFY	JQQJ	CPPC	genießen	sonnig	gütig	küssen	vertrauen	träumen	gemein	sterben	gierig	krank	versagen	töten	1	acq_USpleas_CSpleas2_RW	acq4567_RW	5	50	400	1	300	300	413	46	0	0	1	blank2r.bmp	0	1	+	0	1	blank2r.bmp	492	1	DXXD	492	1	blank2r.bmp	572	2	vertrauen	866	1	!	1239	1	!	1319	0	0	0	0	0	0	0	0	0	0	0	0	0	0	0	0	0	0	0	0	0	0	0	0	0	0	0	0	0	0
073019	13:09:52	13:21:02	669993	5.0.10.0	5_exp_RW	91	Rpleas_acq	CS_A	LWWL	DXXD	ZHHZ	YFFY	JQQJ	CPPC	genießen	sonnig	gütig	küssen	vertrauen	träumen	gemein	sterben	gierig	krank	versagen	töten	1	acq_USpleas_CSpleas2_RW	acq4567_RW	5	51	400	1	300	300	382	50	0	1	1	blank2r.bmp	0	1	+	0	1	blank2r.bmp	492	1	DXXD	492	1	blank2r.bmp	572	1	küssen	866	1	!	1239	1	!	1279	0	0	0	0	0	0	0	0	0	0	0	0	0	0	0	0	0	0	0	0	0	0	0	0	0	0	0	0	0	0
073019	13:09:52	13:21:05	672219	5.0.10.0	5_exp_RW	91	Rpleas_acq	CS_A	LWWL	DXXD	ZHHZ	YFFY	JQQJ	CPPC	genießen	sonnig	gütig	küssen	vertrauen	träumen	gemein	sterben	gierig	krank	versagen	töten	1	acq_USpleas_CSpleas1_RW	acq4567_RW	5	52	400	1	300	300	429	50	0	1	1	blank2r.bmp	0	1	+	0	1	blank2r.bmp	492	1	LWWL	492	1	blank2r.bmp	572	3	gütig	866	1	!	1239	1	!	1332	0	0	0	0	0	0	0	0	0	0	0	0	0	0	0	0	0	0	0	0	0	0	0	0	0	0	0	0	0	0
073019	13:09:52	13:21:07	674564	5.0.10.0	5_exp_RW	91	Rpleas_acq	CS_A	LWWL	DXXD	ZHHZ	YFFY	JQQJ	CPPC	genießen	sonnig	gütig	küssen	vertrauen	träumen	gemein	sterben	gierig	krank	versagen	töten	1	acq_USunple_CSunple2_RW	acq4567_RW	5	53	400	0	300	300	576	46	0	1	1	blank2r.bmp	0	1	+	0	1	blank2r.bmp	492	1	YFFY	492	1	blank2r.bmp	572	2	versagen	866	1	!	1239	1	!	-1	0	0	0	0	0	0	0	0	0	0	0	0	0	0	0	0	0	0	0	0	0	0	0	0	0	0	0	0	0	0
073019	13:09:52	13:21:09	676763	5.0.10.0	5_exp_RW	91	Rpleas_acq	CS_A	LWWL	DXXD	ZHHZ	YFFY	JQQJ	CPPC	genießen	sonnig	gütig	küssen	vertrauen	träumen	gemein	sterben	gierig	krank	versagen	töten	1	acq_USunple_CSunple1_RW	acq4567_RW	5	54	400	1	300	300	388	46	0	1	1	blank2r.bmp	0	1	+	0	1	blank2r.bmp	492	1	ZHHZ	492	1	blank2r.bmp	572	2	sterben	866	1	!	1239	1	!	1292	0	0	0	0	0	0	0	0	0	0	0	0	0	0	0	0	0	0	0	0	0	0	0	0	0	0	0	0	0	0
073019	13:09:52	13:21:11	679069	5.0.10.0	5_exp_RW	91	Rpleas_acq	CS_A	LWWL	DXXD	ZHHZ	YFFY	JQQJ	CPPC	genießen	sonnig	gütig	küssen	vertrauen	träumen	gemein	sterben	gierig	krank	versagen	töten	1	acq_USpleas_CSpleas1_RW	acq4567_RW	5	55	400	0	300	300	540	50	0	1	1	blank2r.bmp	0	1	+	0	1	blank2r.bmp	492	1	LWWL	492	1	blank2r.bmp	572	1	genießen	866	1	!	1239	1	!	-1	0	0	0	0	0	0	0	0	0	0	0	0	0	0	0	0	0	0	0	0	0	0	0	0	0	0	0	0	0	0
073019	13:09:52	13:21:14	681228	5.0.10.0	5_exp_RW	91	Rpleas_acq	CS_A	LWWL	DXXD	ZHHZ	YFFY	JQQJ	CPPC	genießen	sonnig	gütig	küssen	vertrauen	träumen	gemein	sterben	gierig	krank	versagen	töten	1	acq_USpleas_CSpleas2_RW	acq4567_RW	5	56	400	1	300	300	358	50	0	1	1	blank2r.bmp	0	1	+	0	1	blank2r.bmp	492	1	DXXD	492	1	blank2r.bmp	572	2	vertrauen	866	1	!	1239	1	!	1252	0	0	0	0	0	0	0	0	0	0	0	0	0	0	0	0	0	0	0	0	0	0	0	0	0	0	0	0	0	0
073019	13:09:52	13:21:16	683481	5.0.10.0	5_exp_RW	91	Rpleas_acq	CS_A	LWWL	DXXD	ZHHZ	YFFY	JQQJ	CPPC	genießen	sonnig	gütig	küssen	vertrauen	träumen	gemein	sterben	gierig	krank	versagen	töten	1	acq_USpleas_CSpleas1_RW	acq4567_RW	5	57	400	0	300	300	487	50	0	1	1	blank2r.bmp	0	1	+	0	1	blank2r.bmp	492	1	LWWL	492	1	blank2r.bmp	572	3	gütig	866	1	!	1239	1	!	-1	0	0	0	0	0	0	0	0	0	0	0	0	0	0	0	0	0	0	0	0	0	0	0	0	0	0	0	0	0	0
073019	13:09:52	13:21:18	685746	5.0.10.0	5_exp_RW	91	Rpleas_acq	CS_A	LWWL	DXXD	ZHHZ	YFFY	JQQJ	CPPC	genießen	sonnig	gütig	küssen	vertrauen	träumen	gemein	sterben	gierig	krank	versagen	töten	1	acq_USpleas_CSpleas2_RW	acq4567_RW	5	58	400	0	300	300	479	50	0	1	1	blank2r.bmp	0	1	+	0	1	blank2r.bmp	492	1	DXXD	492	1	blank2r.bmp	572	3	träumen	866	1	!	1239	1	!	-1	0	0	0	0	0	0	0	0	0	0	0	0	0	0	0	0	0	0	0	0	0	0	0	0	0	0	0	0	0	0
073019	13:09:52	13:21:20	687959	5.0.10.0	5_exp_RW	91	Rpleas_acq	CS_A	LWWL	DXXD	ZHHZ	YFFY	JQQJ	CPPC	genießen	sonnig	gütig	küssen	vertrauen	träumen	gemein	sterben	gierig	krank	versagen	töten	1	acq_USpleas_CSpleas1_RW	acq4567_RW	5	59	400	1	300	300	399	46	0	0	1	blank2r.bmp	0	1	+	0	1	blank2r.bmp	492	1	LWWL	492	1	blank2r.bmp	572	2	sonnig	866	1	!	1239	1	!	1306	0	0	0	0	0	0	0	0	0	0	0	0	0	0	0	0	0	0	0	0	0	0	0	0	0	0	0	0	0	0
073019	13:09:52	13:21:23	690238	5.0.10.0	5_exp_RW	91	Rpleas_acq	CS_A	LWWL	DXXD	ZHHZ	YFFY	JQQJ	CPPC	genießen	sonnig	gütig	küssen	vertrauen	träumen	gemein	sterben	gierig	krank	versagen	töten	1	acq_USunple_CSunple1_RW	acq4567_RW	5	60	400	0	300	300	508	50	0	0	1	blank2r.bmp	0	1	+	0	1	blank2r.bmp	492	1	ZHHZ	492	1	blank2r.bmp	572	3	gierig	866	1	!	1239	1	!	-1	0	0	0	0	0	0	0	0	0	0	0	0	0	0	0	0	0	0	0	0	0	0	0	0	0	0	0	0	0	0
073019	13:09:52	13:21:25	692424	5.0.10.0	5_exp_RW	91	Rpleas_acq	CS_A	LWWL	DXXD	ZHHZ	YFFY	JQQJ	CPPC	genießen	sonnig	gütig	küssen	vertrauen	träumen	gemein	sterben	gierig	krank	versagen	töten	1	acq_USunple_CSunple1_RW	acq4567_RW	5	61	400	1	300	300	368	46	0	1	1	blank2r.bmp	0	1	+	0	1	blank2r.bmp	492	1	ZHHZ	492	1	blank2r.bmp	572	2	sterben	866	1	!	1239	1	!	1266	0	0	0	0	0	0	0	0	0	0	0	0	0	0	0	0	0	0	0	0	0	0	0	0	0	0	0	0	0	0
073019	13:09:52	13:21:27	694689	5.0.10.0	5_exp_RW	91	Rpleas_acq	CS_A	LWWL	DXXD	ZHHZ	YFFY	JQQJ	CPPC	genießen	sonnig	gütig	küssen	vertrauen	träumen	gemein	sterben	gierig	krank	versagen	töten	1	acq_USpleas_CSpleas2_RW	acq4567_RW	5	62	400	0	300	300	495	46	0	0	1	blank2r.bmp	0	1	+	0	1	blank2r.bmp	492	1	DXXD	492	1	blank2r.bmp	572	3	träumen	866	1	!	1239	1	!	-1	0	0	0	0	0	0	0	0	0	0	0	0	0	0	0	0	0	0	0	0	0	0	0	0	0	0	0	0	0	0
073019	13:09:52	13:21:29	696742	5.0.10.0	5_exp_RW	91	Rpleas_acq	CS_A	LWWL	DXXD	ZHHZ	YFFY	JQQJ	CPPC	genießen	sonnig	gütig	küssen	vertrauen	träumen	gemein	sterben	gierig	krank	versagen	töten	1	acq_USunple_CSunple2_RW	acq4567_RW	5	63	400	0	300	300	271	50	0	0	1	blank2r.bmp	0	1	+	0	1	blank2r.bmp	492	1	YFFY	492	1	blank2r.bmp	572	2	versagen	866	1	!	-1	1	!	-1	0	0	0	0	0	0	0	0	0	0	0	0	0	0	0	0	0	0	0	0	0	0	0	0	0	0	0	0	0	0
073019	13:09:52	13:21:31	698861	5.0.10.0	5_exp_RW	91	Rpleas_acq	CS_A	LWWL	DXXD	ZHHZ	YFFY	JQQJ	CPPC	genießen	sonnig	gütig	küssen	vertrauen	träumen	gemein	sterben	gierig	krank	versagen	töten	1	acq_USunple_CSunple1_RW	acq4567_RW	5	64	400	0	300	300	324	50	0	0	1	blank2r.bmp	0	1	+	0	1	blank2r.bmp	492	1	ZHHZ	492	1	blank2r.bmp	572	3	gierig	866	1	!	-1	1	!	-1	0	0	0	0	0	0	0	0	0	0	0	0	0	0	0	0	0	0	0	0	0	0	0	0	0	0	0	0	0	0
073019	13:09:52	13:21:33	701020	5.0.10.0	5_exp_RW	91	Rpleas_acq	CS_A	LWWL	DXXD	ZHHZ	YFFY	JQQJ	CPPC	genießen	sonnig	gütig	küssen	vertrauen	träumen	gemein	sterben	gierig	krank	versagen	töten	1	acq_USpleas_CSpleas2_RW	acq4567_RW	5	65	400	1	300	300	349	50	0	1	1	blank2r.bmp	0	1	+	0	1	blank2r.bmp	492	1	DXXD	492	1	blank2r.bmp	572	1	küssen	866	1	!	1239	1	!	1252	0	0	0	0	0	0	0	0	0	0	0	0	0	0	0	0	0	0	0	0	0	0	0	0	0	0	0	0	0	0
073019	13:09:52	13:21:36	703246	5.0.10.0	5_exp_RW	91	Rpleas_acq	CS_A	LWWL	DXXD	ZHHZ	YFFY	JQQJ	CPPC	genießen	sonnig	gütig	küssen	vertrauen	träumen	gemein	sterben	gierig	krank	versagen	töten	1	acq_USunple_CSunple1_RW	acq4567_RW	5	66	400	1	300	300	438	46	0	1	1	blank2r.bmp	0	1	+	0	1	blank2r.bmp	492	1	ZHHZ	492	1	blank2r.bmp	572	1	gemein	866	1	!	1239	1	!	1332	0	0	0	0	0	0	0	0	0	0	0	0	0	0	0	0	0	0	0	0	0	0	0	0	0	0	0	0	0	0
073019	13:09:52	13:21:38	705512	5.0.10.0	5_exp_RW	91	Rpleas_acq	CS_A	LWWL	DXXD	ZHHZ	YFFY	JQQJ	CPPC	genießen	sonnig	gütig	küssen	vertrauen	träumen	gemein	sterben	gierig	krank	versagen	töten	1	acq_USpleas_CSpleas2_RW	acq4567_RW	5	67	400	0	300	300	485	50	0	1	1	blank2r.bmp	0	1	+	0	1	blank2r.bmp	492	1	DXXD	492	1	blank2r.bmp	572	2	vertrauen	866	1	!	1239	1	!	-1	0	0	0	0	0	0	0	0	0	0	0	0	0	0	0	0	0	0	0	0	0	0	0	0	0	0	0	0	0	0
073019	13:09:52	13:21:40	707817	5.0.10.0	5_exp_RW	91	Rpleas_acq	CS_A	LWWL	DXXD	ZHHZ	YFFY	JQQJ	CPPC	genießen	sonnig	gütig	küssen	vertrauen	träumen	gemein	sterben	gierig	krank	versagen	töten	1	acq_USpleas_CSpleas1_RW	acq4567_RW	5	68	400	0	300	300	522	46	0	0	1	blank2r.bmp	0	1	+	0	1	blank2r.bmp	492	1	LWWL	492	1	blank2r.bmp	572	3	gütig	866	1	!	1239	1	!	-1	0	0	0	0	0	0	0	0	0	0	0	0	0	0	0	0	0	0	0	0	0	0	0	0	0	0	0	0	0	0
073019	13:09:52	13:21:42	709990	5.0.10.0	5_exp_RW	91	Rpleas_acq	CS_A	LWWL	DXXD	ZHHZ	YFFY	JQQJ	CPPC	genießen	sonnig	gütig	küssen	vertrauen	träumen	gemein	sterben	gierig	krank	versagen	töten	1	acq_USpleas_CSpleas1_RW	acq4567_RW	5	69	400	1	300	300	346	50	0	1	1	blank2r.bmp	0	1	+	0	1	blank2r.bmp	492	1	LWWL	492	1	blank2r.bmp	572	2	sonnig	866	1	!	1239	1	!	1252	0	0	0	0	0	0	0	0	0	0	0	0	0	0	0	0	0	0	0	0	0	0	0	0	0	0	0	0	0	0
073019	13:09:52	13:21:45	712242	5.0.10.0	5_exp_RW	91	Rpleas_acq	CS_A	LWWL	DXXD	ZHHZ	YFFY	JQQJ	CPPC	genießen	sonnig	gütig	küssen	vertrauen	träumen	gemein	sterben	gierig	krank	versagen	töten	1	acq_USpleas_CSpleas2_RW	acq4567_RW	5	70	400	0	300	300	479	50	0	1	1	blank2r.bmp	0	1	+	0	1	blank2r.bmp	492	1	DXXD	492	1	blank2r.bmp	572	2	vertrauen	866	1	!	1239	1	!	-1	0	0	0	0	0	0	0	0	0	0	0	0	0	0	0	0	0	0	0	0	0	0	0	0	0	0	0	0	0	0
073019	13:09:52	13:21:47	714508	5.0.10.0	5_exp_RW	91	Rpleas_acq	CS_A	LWWL	DXXD	ZHHZ	YFFY	JQQJ	CPPC	genießen	sonnig	gütig	küssen	vertrauen	träumen	gemein	sterben	gierig	krank	versagen	töten	1	acq_USunple_CSunple1_RW	acq4567_RW	5	71	400	0	300	300	479	46	0	1	1	blank2r.bmp	0	1	+	0	1	blank2r.bmp	492	1	ZHHZ	492	1	blank2r.bmp	572	1	gemein	866	1	!	1239	1	!	-1	0	0	0	0	0	0	0	0	0	0	0	0	0	0	0	0	0	0	0	0	0	0	0	0	0	0	0	0	0	0
073019	13:09:52	13:21:49	716720	5.0.10.0	5_exp_RW	91	Rpleas_acq	CS_A	LWWL	DXXD	ZHHZ	YFFY	JQQJ	CPPC	genießen	sonnig	gütig	küssen	vertrauen	träumen	gemein	sterben	gierig	krank	versagen	töten	1	acq_USpleas_CSpleas1_RW	acq4567_RW	5	72	400	1	300	300	405	50	0	1	1	blank2r.bmp	0	1	+	0	1	blank2r.bmp	492	1	LWWL	492	1	blank2r.bmp	572	1	genießen	866	1	!	1239	1	!	1306	0	0	0	0	0	0	0	0	0	0	0	0	0	0	0	0	0	0	0	0	0	0	0	0	0	0	0	0	0	0
073019	13:09:52	13:21:51	718973	5.0.10.0	5_exp_RW	91	Rpleas_acq	CS_A	LWWL	DXXD	ZHHZ	YFFY	JQQJ	CPPC	genießen	sonnig	gütig	küssen	vertrauen	träumen	gemein	sterben	gierig	krank	versagen	töten	1	acq_USunple_CSunple1_RW	acq4567_RW	5	73	400	1	300	300	461	46	0	1	1	blank2r.bmp	0	1	+	0	1	blank2r.bmp	492	1	ZHHZ	492	1	blank2r.bmp	572	2	sterben	866	1	!	1239	1	!	1359	0	0	0	0	0	0	0	0	0	0	0	0	0	0	0	0	0	0	0	0	0	0	0	0	0	0	0	0	0	0
073019	13:09:52	13:21:54	721225	5.0.10.0	5_exp_RW	91	Rpleas_acq	CS_A	LWWL	DXXD	ZHHZ	YFFY	JQQJ	CPPC	genießen	sonnig	gütig	küssen	vertrauen	träumen	gemein	sterben	gierig	krank	versagen	töten	1	acq_USunple_CSunple2_RW	acq4567_RW	5	74	400	0	300	300	491	46	0	1	1	blank2r.bmp	0	1	+	0	1	blank2r.bmp	492	1	YFFY	492	1	blank2r.bmp	572	3	töten	866	1	!	1239	1	!	-1	0	0	0	0	0	0	0	0	0	0	0	0	0	0	0	0	0	0	0	0	0	0	0	0	0	0	0	0	0	0
073019	13:09:52	13:21:56	723451	5.0.10.0	5_exp_RW	91	Rpleas_acq	CS_A	LWWL	DXXD	ZHHZ	YFFY	JQQJ	CPPC	genießen	sonnig	gütig	küssen	vertrauen	träumen	gemein	sterben	gierig	krank	versagen	töten	1	acq_USunple_CSunple2_RW	acq4567_RW	5	75	400	1	300	300	418	46	0	1	1	blank2r.bmp	0	1	+	0	1	blank2r.bmp	492	1	YFFY	492	1	blank2r.bmp	572	1	krank	866	1	!	1239	1	!	1319	0	0	0	0	0	0	0	0	0	0	0	0	0	0	0	0	0	0	0	0	0	0	0	0	0	0	0	0	0	0
073019	13:09:52	13:21:58	725703	5.0.10.0	5_exp_RW	91	Rpleas_acq	CS_A	LWWL	DXXD	ZHHZ	YFFY	JQQJ	CPPC	genießen	sonnig	gütig	küssen	vertrauen	träumen	gemein	sterben	gierig	krank	versagen	töten	1	acq_USunple_CSunple2_RW	acq4567_RW	5	76	400	0	300	300	480	50	0	0	1	blank2r.bmp	0	1	+	0	1	blank2r.bmp	492	1	YFFY	492	1	blank2r.bmp	572	2	versagen	866	1	!	1239	1	!	-1	0	0	0	0	0	0	0	0	0	0	0	0	0	0	0	0	0	0	0	0	0	0	0	0	0	0	0	0	0	0
073019	13:09:52	13:22:00	727929	5.0.10.0	5_exp_RW	91	Rpleas_acq	CS_A	LWWL	DXXD	ZHHZ	YFFY	JQQJ	CPPC	genießen	sonnig	gütig	küssen	vertrauen	träumen	gemein	sterben	gierig	krank	versagen	töten	1	acq_USpleas_CSpleas1_RW	acq4567_RW	5	77	400	1	300	300	413	50	0	1	1	blank2r.bmp	0	1	+	0	1	blank2r.bmp	492	1	LWWL	492	1	blank2r.bmp	572	1	genießen	866	1	!	1239	1	!	1319	0	0	0	0	0	0	0	0	0	0	0	0	0	0	0	0	0	0	0	0	0	0	0	0	0	0	0	0	0	0
073019	13:09:52	13:22:02	730128	5.0.10.0	5_exp_RW	91	Rpleas_acq	CS_A	LWWL	DXXD	ZHHZ	YFFY	JQQJ	CPPC	genießen	sonnig	gütig	küssen	vertrauen	träumen	gemein	sterben	gierig	krank	versagen	töten	1	acq_USpleas_CSpleas2_RW	acq4567_RW	5	78	400	1	300	300	405	46	0	0	1	blank2r.bmp	0	1	+	0	1	blank2r.bmp	492	1	DXXD	492	1	blank2r.bmp	572	1	küssen	866	1	!	1239	1	!	1306	0	0	0	0	0	0	0	0	0	0	0	0	0	0	0	0	0	0	0	0	0	0	0	0	0	0	0	0	0	0
073019	13:09:52	13:22:05	732327	5.0.10.0	5_exp_RW	91	Rpleas_acq	CS_A	LWWL	DXXD	ZHHZ	YFFY	JQQJ	CPPC	genießen	sonnig	gütig	küssen	vertrauen	träumen	gemein	sterben	gierig	krank	versagen	töten	1	acq_USpleas_CSpleas1_RW	acq4567_RW	5	79	400	1	300	300	405	50	0	1	1	blank2r.bmp	0	1	+	0	1	blank2r.bmp	492	1	LWWL	492	1	blank2r.bmp	572	2	sonnig	866	1	!	1239	1	!	1306	0	0	0	0	0	0	0	0	0	0	0	0	0	0	0	0	0	0	0	0	0	0	0	0	0	0	0	0	0	0
073019	13:09:52	13:22:07	734567	5.0.10.0	5_exp_RW	91	Rpleas_acq	CS_A	LWWL	DXXD	ZHHZ	YFFY	JQQJ	CPPC	genießen	sonnig	gütig	küssen	vertrauen	träumen	gemein	sterben	gierig	krank	versagen	töten	1	acq_USunple_CSunple2_RW	acq4567_RW	5	80	400	1	300	300	451	46	0	1	1	blank2r.bmp	0	1	+	0	1	blank2r.bmp	492	1	YFFY	492	1	blank2r.bmp	572	1	krank	866	1	!	1239	1	!	1346	0	0	0	0	0	0	0	0	0	0	0	0	0	0	0	0	0	0	0	0	0	0	0	0	0	0	0	0	0	0
073019	13:09:52	13:22:29	756891	5.0.10.0	5_exp_RW	91	Rpleas_acq	CS_A	LWWL	DXXD	ZHHZ	YFFY	JQQJ	CPPC	genießen	sonnig	gütig	küssen	vertrauen	träumen	gemein	sterben	gierig	krank	versagen	töten	1	acq_USunple_CSunple2_RW	acq4567_RW	6	1	400	1	300	300	346	46	0	1	1	blank2r.bmp	0	1	+	0	1	blank2r.bmp	492	1	YFFY	492	1	blank2r.bmp	572	3	töten	866	1	!	1239	1	!	1252	0	0	0	0	0	0	0	0	0	0	0	0	0	0	0	0	0	0	0	0	0	0	0	0	0	0	0	0	0	0
073019	13:09:52	13:22:31	759050	5.0.10.0	5_exp_RW	91	Rpleas_acq	CS_A	LWWL	DXXD	ZHHZ	YFFY	JQQJ	CPPC	genießen	sonnig	gütig	küssen	vertrauen	träumen	gemein	sterben	gierig	krank	versagen	töten	1	acq_USpleas_CSpleas2_RW	acq4567_RW	6	2	400	1	300	300	365	46	0	0	1	blank2r.bmp	0	1	+	0	1	blank2r.bmp	492	1	DXXD	492	1	blank2r.bmp	572	3	träumen	866	1	!	1239	1	!	1266	0	0	0	0	0	0	0	0	0	0	0	0	0	0	0	0	0	0	0	0	0	0	0	0	0	0	0	0	0	0
073019	13:09:52	13:22:34	761236	5.0.10.0	5_exp_RW	91	Rpleas_acq	CS_A	LWWL	DXXD	ZHHZ	YFFY	JQQJ	CPPC	genießen	sonnig	gütig	küssen	vertrauen	träumen	gemein	sterben	gierig	krank	versagen	töten	1	acq_USunple_CSunple1_RW	acq4567_RW	6	3	400	1	300	300	398	50	0	0	1	blank2r.bmp	0	1	+	0	1	blank2r.bmp	492	1	ZHHZ	492	1	blank2r.bmp	572	3	gierig	866	1	!	1239	1	!	1292	0	0	0	0	0	0	0	0	0	0	0	0	0	0	0	0	0	0	0	0	0	0	0	0	0	0	0	0	0	0
073019	13:09:52	13:22:36	763315	5.0.10.0	5_exp_RW	91	Rpleas_acq	CS_A	LWWL	DXXD	ZHHZ	YFFY	JQQJ	CPPC	genießen	sonnig	gütig	küssen	vertrauen	träumen	gemein	sterben	gierig	krank	versagen	töten	1	acq_USunple_CSunple2_RW	acq4567_RW	6	4	400	0	300	300	318	46	0	1	1	blank2r.bmp	0	1	+	0	1	blank2r.bmp	492	1	YFFY	492	1	blank2r.bmp	572	3	töten	866	1	!	-1	1	!	-1	0	0	0	0	0	0	0	0	0	0	0	0	0	0	0	0	0	0	0	0	0	0	0	0	0	0	0	0	0	0
073019	13:09:52	13:22:38	765621	5.0.10.0	5_exp_RW	91	Rpleas_acq	CS_A	LWWL	DXXD	ZHHZ	YFFY	JQQJ	CPPC	genießen	sonnig	gütig	küssen	vertrauen	träumen	gemein	sterben	gierig	krank	versagen	töten	1	acq_USpleas_CSpleas1_RW	acq4567_RW	6	5	400	0	300	300	521	50	0	1	1	blank2r.bmp	0	1	+	0	1	blank2r.bmp	492	1	LWWL	492	1	blank2r.bmp	572	3	gütig	866	1	!	1239	1	!	-1	0	0	0	0	0	0	0	0	0	0	0	0	0	0	0	0	0	0	0	0	0	0	0	0	0	0	0	0	0	0
073019	13:09:52	13:22:40	767886	5.0.10.0	5_exp_RW	91	Rpleas_acq	CS_A	LWWL	DXXD	ZHHZ	YFFY	JQQJ	CPPC	genießen	sonnig	gütig	küssen	vertrauen	träumen	gemein	sterben	gierig	krank	versagen	töten	1	acq_USunple_CSunple1_RW	acq4567_RW	6	6	400	0	300	300	479	46	0	1	1	blank2r.bmp	0	1	+	0	1	blank2r.bmp	492	1	ZHHZ	492	1	blank2r.bmp	572	1	gemein	866	1	!	1239	1	!	-1	0	0	0	0	0	0	0	0	0	0	0	0	0	0	0	0	0	0	0	0	0	0	0	0	0	0	0	0	0	0
073019	13:09:52	13:22:42	770125	5.0.10.0	5_exp_RW	91	Rpleas_acq	CS_A	LWWL	DXXD	ZHHZ	YFFY	JQQJ	CPPC	genießen	sonnig	gütig	küssen	vertrauen	träumen	gemein	sterben	gierig	krank	versagen	töten	1	acq_USunple_CSunple1_RW	acq4567_RW	6	7	400	1	300	300	427	46	0	1	1	blank2r.bmp	0	1	+	0	1	blank2r.bmp	492	1	ZHHZ	492	1	blank2r.bmp	572	2	sterben	866	1	!	1239	1	!	1332	0	0	0	0	0	0	0	0	0	0	0	0	0	0	0	0	0	0	0	0	0	0	0	0	0	0	0	0	0	0
073019	13:09:52	13:22:45	772298	5.0.10.0	5_exp_RW	91	Rpleas_acq	CS_A	LWWL	DXXD	ZHHZ	YFFY	JQQJ	CPPC	genießen	sonnig	gütig	küssen	vertrauen	träumen	gemein	sterben	gierig	krank	versagen	töten	1	acq_USpleas_CSpleas1_RW	acq4567_RW	6	8	400	1	300	300	373	50	0	1	1	blank2r.bmp	0	1	+	0	1	blank2r.bmp	492	1	LWWL	492	1	blank2r.bmp	572	2	sonnig	866	1	!	1239	1	!	1279	0	0	0	0	0	0	0	0	0	0	0	0	0	0	0	0	0	0	0	0	0	0	0	0	0	0	0	0	0	0
073019	13:09:52	13:22:47	774564	5.0.10.0	5_exp_RW	91	Rpleas_acq	CS_A	LWWL	DXXD	ZHHZ	YFFY	JQQJ	CPPC	genießen	sonnig	gütig	küssen	vertrauen	träumen	gemein	sterben	gierig	krank	versagen	töten	1	acq_USpleas_CSpleas2_RW	acq4567_RW	6	9	400	0	300	300	501	50	0	1	1	blank2r.bmp	0	1	+	0	1	blank2r.bmp	492	1	DXXD	492	1	blank2r.bmp	572	2	vertrauen	866	1	!	1239	1	!	-1	0	0	0	0	0	0	0	0	0	0	0	0	0	0	0	0	0	0	0	0	0	0	0	0	0	0	0	0	0	0
073019	13:09:52	13:22:49	776803	5.0.10.0	5_exp_RW	91	Rpleas_acq	CS_A	LWWL	DXXD	ZHHZ	YFFY	JQQJ	CPPC	genießen	sonnig	gütig	küssen	vertrauen	träumen	gemein	sterben	gierig	krank	versagen	töten	1	acq_USunple_CSunple1_RW	acq4567_RW	6	10	400	1	300	300	426	46	0	1	1	blank2r.bmp	0	1	+	0	1	blank2r.bmp	492	1	ZHHZ	492	1	blank2r.bmp	572	3	gierig	866	1	!	1239	1	!	1332	0	0	0	0	0	0	0	0	0	0	0	0	0	0	0	0	0	0	0	0	0	0	0	0	0	0	0	0	0	0
073019	13:09:52	13:22:51	779002	5.0.10.0	5_exp_RW	91	Rpleas_acq	CS_A	LWWL	DXXD	ZHHZ	YFFY	JQQJ	CPPC	genießen	sonnig	gütig	küssen	vertrauen	träumen	gemein	sterben	gierig	krank	versagen	töten	1	acq_USpleas_CSpleas2_RW	acq4567_RW	6	11	400	1	300	300	411	50	0	1	1	blank2r.bmp	0	1	+	0	1	blank2r.bmp	492	1	DXXD	492	1	blank2r.bmp	572	1	küssen	866	1	!	1239	1	!	1306	0	0	0	0	0	0	0	0	0	0	0	0	0	0	0	0	0	0	0	0	0	0	0	0	0	0	0	0	0	0
073019	13:09:52	13:22:54	781387	5.0.10.0	5_exp_RW	91	Rpleas_acq	CS_A	LWWL	DXXD	ZHHZ	YFFY	JQQJ	CPPC	genießen	sonnig	gütig	küssen	vertrauen	träumen	gemein	sterben	gierig	krank	versagen	töten	1	acq_USpleas_CSpleas1_RW	acq4567_RW	6	12	400	0	300	300	621	50	0	1	1	blank2r.bmp	0	1	+	0	1	blank2r.bmp	492	1	LWWL	492	1	blank2r.bmp	572	1	genießen	866	1	!	1239	1	!	-1	0	0	0	0	0	0	0	0	0	0	0	0	0	0	0	0	0	0	0	0	0	0	0	0	0	0	0	0	0	0
073019	13:09:52	13:22:56	783666	5.0.10.0	5_exp_RW	91	Rpleas_acq	CS_A	LWWL	DXXD	ZHHZ	YFFY	JQQJ	CPPC	genießen	sonnig	gütig	küssen	vertrauen	träumen	gemein	sterben	gierig	krank	versagen	töten	1	acq_USpleas_CSpleas1_RW	acq4567_RW	6	13	400	0	300	300	485	46	0	0	1	blank2r.bmp	0	1	+	0	1	blank2r.bmp	492	1	LWWL	492	1	blank2r.bmp	572	3	gütig	866	1	!	1239	1	!	-1	0	0	0	0	0	0	0	0	0	0	0	0	0	0	0	0	0	0	0	0	0	0	0	0	0	0	0	0	0	0
