date	time	script.currenttime	script.elapsedtime	build	script.currentexpt	subject	expressions.LRpleas_acq	expressions.conditionCS_A	expressions.CSpleas_1	expressions.CSpleas_2	expressions.CSunple_1	expressions.CSunple_2	expressions.distractor_1	expressions.distractor_2	expressions.US_pleas1	expressions.US_pleas2	expressions.US_pleas3	expressions.US_pleas4	expressions.US_pleas5	expressions.US_pleas6	expressions.US_unple1	expressions.US_unple2	expressions.US_unple3	expressions.US_unple4	expressions.US_unple5	expressions.US_unple6	counter.positions_noRW	trialcode	blockcode	blocknum	trialnum	windowcenter	inwindow	pretrialpause	posttrialpause	latency	response	expressions.correctedscore	correct	stimulusnumber1	stimulusitem1	stimulusonset1	stimulusnumber2	stimulusitem2	stimulusonset2	stimulusnumber3	stimulusitem3	stimulusonset3	stimulusnumber4	stimulusitem4	stimulusonset4	stimulusnumber5	stimulusitem5	stimulusonset5	stimulusnumber6	stimulusitem6	stimulusonset6	stimulusnumber7	stimulusitem7	stimulusonset7	stimulusnumber8	stimulusitem8	stimulusonset8	stimulusnumber9	stimulusitem9	stimulusonset9	stimulusnumber10	stimulusitem10	stimulusonset10	stimulusnumber11	stimulusitem11	stimulusonset11	stimulusnumber12	stimulusitem12	stimulusonset12	stimulusnumber13	stimulusitem13	stimulusonset13	stimulusnumber14	stimulusitem14	stimulusonset14	stimulusnumber15	stimulusitem15	stimulusonset15	stimulusnumber16	stimulusitem16	stimulusonset16	stimulusnumber17	stimulusitem17	stimulusonset17	stimulusnumber18	stimulusitem18	stimulusonset18
071019	12:16:05	12:17:09	63267	5.0.10.0	5_exp_RW	37	Rpleas_acq	CS_A	JQQJ	YFFY	LWWL	DXXD	ZHHZ	CPPC	küssen	sonnig	gütig	träumen	vertrauen	genießen	krank	sterben	gierig	töten	versagen	gemein	1	acq_USpleas_CSpleas2_RW	acq1_RW	1	1	0	0	300	300	1532	50	0	1	1	blank2r.bmp	0	1	+	0	1	blank2r.bmp	492	1	YFFY	492	1	blank2r.bmp	572	3	genießen	866	0	0	0	0	0	0	0	0	0	0	0	0	0	0	0	0	0	0	0	0	0	0	0	0	0	0	0	0	0	0	0	0	0	0	0	0
071019	12:16:05	12:17:11	65319	5.0.10.0	5_exp_RW	37	Rpleas_acq	CS_A	JQQJ	YFFY	LWWL	DXXD	ZHHZ	CPPC	küssen	sonnig	gütig	träumen	vertrauen	genießen	krank	sterben	gierig	töten	versagen	gemein	1	acq_USunple_CSunple2_RW	acq1_RW	1	2	0	0	300	300	577	46	0	1	1	blank2r.bmp	0	1	+	0	1	blank2r.bmp	492	1	DXXD	492	1	blank2r.bmp	572	2	versagen	866	0	0	0	0	0	0	0	0	0	0	0	0	0	0	0	0	0	0	0	0	0	0	0	0	0	0	0	0	0	0	0	0	0	0	0	0
071019	12:16:05	12:17:13	67358	5.0.10.0	5_exp_RW	37	Rpleas_acq	CS_A	JQQJ	YFFY	LWWL	DXXD	ZHHZ	CPPC	küssen	sonnig	gütig	träumen	vertrauen	genießen	krank	sterben	gierig	töten	versagen	gemein	1	acq_USunple_CSunple1_RW	acq1_RW	1	3	0	0	300	300	563	46	0	1	1	blank2r.bmp	0	1	+	0	1	blank2r.bmp	492	1	LWWL	492	1	blank2r.bmp	572	3	gierig	866	0	0	0	0	0	0	0	0	0	0	0	0	0	0	0	0	0	0	0	0	0	0	0	0	0	0	0	0	0	0	0	0	0	0	0	0
071019	12:16:05	12:17:15	69517	5.0.10.0	5_exp_RW	37	Rpleas_acq	CS_A	JQQJ	YFFY	LWWL	DXXD	ZHHZ	CPPC	küssen	sonnig	gütig	träumen	vertrauen	genießen	krank	sterben	gierig	töten	versagen	gemein	1	acq_USpleas_CSpleas1_RW	acq1_RW	1	4	0	0	300	300	455	46	0	0	1	blank2r.bmp	0	1	+	0	1	blank2r.bmp	492	1	JQQJ	492	1	blank2r.bmp	572	3	gütig	866	1	FEHLER	1359	0	0	0	0	0	0	0	0	0	0	0	0	0	0	0	0	0	0	0	0	0	0	0	0	0	0	0	0	0	0	0	0	0
071019	12:16:05	12:17:17	71290	5.0.10.0	5_exp_RW	37	Rpleas_acq	CS_A	JQQJ	YFFY	LWWL	DXXD	ZHHZ	CPPC	küssen	sonnig	gütig	träumen	vertrauen	genießen	krank	sterben	gierig	töten	versagen	gemein	1	acq_USunple_CSunple2_RW	acq1_RW	1	5	0	0	300	300	507	46	0	1	1	blank2r.bmp	0	1	+	0	1	blank2r.bmp	492	1	DXXD	492	1	blank2r.bmp	572	1	töten	866	0	0	0	0	0	0	0	0	0	0	0	0	0	0	0	0	0	0	0	0	0	0	0	0	0	0	0	0	0	0	0	0	0	0	0	0
071019	12:16:05	12:17:19	73369	5.0.10.0	5_exp_RW	37	Rpleas_acq	CS_A	JQQJ	YFFY	LWWL	DXXD	ZHHZ	CPPC	küssen	sonnig	gütig	träumen	vertrauen	genießen	krank	sterben	gierig	töten	versagen	gemein	1	acq_USpleas_CSpleas1_RW	acq1_RW	1	6	0	0	300	300	593	50	0	1	1	blank2r.bmp	0	1	+	0	1	blank2r.bmp	492	1	JQQJ	492	1	blank2r.bmp	572	1	küssen	866	0	0	0	0	0	0	0	0	0	0	0	0	0	0	0	0	0	0	0	0	0	0	0	0	0	0	0	0	0	0	0	0	0	0	0	0
071019	12:16:05	12:17:21	75408	5.0.10.0	5_exp_RW	37	Rpleas_acq	CS_A	JQQJ	YFFY	LWWL	DXXD	ZHHZ	CPPC	küssen	sonnig	gütig	träumen	vertrauen	genießen	krank	sterben	gierig	töten	versagen	gemein	1	acq_USunple_CSunple2_RW	acq1_RW	1	7	0	0	300	300	564	46	0	1	1	blank2r.bmp	0	1	+	0	1	blank2r.bmp	492	1	DXXD	492	1	blank2r.bmp	572	3	gemein	866	0	0	0	0	0	0	0	0	0	0	0	0	0	0	0	0	0	0	0	0	0	0	0	0	0	0	0	0	0	0	0	0	0	0	0	0
071019	12:16:05	12:17:23	77381	5.0.10.0	5_exp_RW	37	Rpleas_acq	CS_A	JQQJ	YFFY	LWWL	DXXD	ZHHZ	CPPC	küssen	sonnig	gütig	träumen	vertrauen	genießen	krank	sterben	gierig	töten	versagen	gemein	1	acq_USpleas_CSpleas2_RW	acq1_RW	1	8	0	0	300	300	490	50	0	1	1	blank2r.bmp	0	1	+	0	1	blank2r.bmp	492	1	YFFY	492	1	blank2r.bmp	572	1	träumen	866	0	0	0	0	0	0	0	0	0	0	0	0	0	0	0	0	0	0	0	0	0	0	0	0	0	0	0	0	0	0	0	0	0	0	0	0
071019	12:16:05	12:17:25	79367	5.0.10.0	5_exp_RW	37	Rpleas_acq	CS_A	JQQJ	YFFY	LWWL	DXXD	ZHHZ	CPPC	küssen	sonnig	gütig	träumen	vertrauen	genießen	krank	sterben	gierig	töten	versagen	gemein	1	acq_USunple_CSunple1_RW	acq1_RW	1	9	0	0	300	300	503	46	0	1	1	blank2r.bmp	0	1	+	0	1	blank2r.bmp	492	1	LWWL	492	1	blank2r.bmp	572	2	sterben	866	0	0	0	0	0	0	0	0	0	0	0	0	0	0	0	0	0	0	0	0	0	0	0	0	0	0	0	0	0	0	0	0	0	0	0	0
071019	12:16:05	12:17:27	81393	5.0.10.0	5_exp_RW	37	Rpleas_acq	CS_A	JQQJ	YFFY	LWWL	DXXD	ZHHZ	CPPC	küssen	sonnig	gütig	träumen	vertrauen	genießen	krank	sterben	gierig	töten	versagen	gemein	1	acq_USunple_CSunple1_RW	acq1_RW	1	10	0	0	300	300	534	46	0	1	1	blank2r.bmp	0	1	+	0	1	blank2r.bmp	492	1	LWWL	492	1	blank2r.bmp	572	1	krank	866	0	0	0	0	0	0	0	0	0	0	0	0	0	0	0	0	0	0	0	0	0	0	0	0	0	0	0	0	0	0	0	0	0	0	0	0
071019	12:16:05	12:17:29	83445	5.0.10.0	5_exp_RW	37	Rpleas_acq	CS_A	JQQJ	YFFY	LWWL	DXXD	ZHHZ	CPPC	küssen	sonnig	gütig	träumen	vertrauen	genießen	krank	sterben	gierig	töten	versagen	gemein	1	acq_USpleas_CSpleas2_RW	acq1_RW	1	11	0	0	300	300	583	50	0	1	1	blank2r.bmp	0	1	+	0	1	blank2r.bmp	492	1	YFFY	492	1	blank2r.bmp	572	2	vertrauen	866	0	0	0	0	0	0	0	0	0	0	0	0	0	0	0	0	0	0	0	0	0	0	0	0	0	0	0	0	0	0	0	0	0	0	0	0
071019	12:16:05	12:17:31	85578	5.0.10.0	5_exp_RW	37	Rpleas_acq	CS_A	JQQJ	YFFY	LWWL	DXXD	ZHHZ	CPPC	küssen	sonnig	gütig	träumen	vertrauen	genießen	krank	sterben	gierig	töten	versagen	gemein	1	acq_USunple_CSunple2_RW	acq1_RW	1	12	0	0	300	300	641	46	0	1	1	blank2r.bmp	0	1	+	0	1	blank2r.bmp	492	1	DXXD	492	1	blank2r.bmp	572	1	töten	866	0	0	0	0	0	0	0	0	0	0	0	0	0	0	0	0	0	0	0	0	0	0	0	0	0	0	0	0	0	0	0	0	0	0	0	0
071019	12:16:05	12:17:33	87550	5.0.10.0	5_exp_RW	37	Rpleas_acq	CS_A	JQQJ	YFFY	LWWL	DXXD	ZHHZ	CPPC	küssen	sonnig	gütig	träumen	vertrauen	genießen	krank	sterben	gierig	töten	versagen	gemein	1	acq_USunple_CSunple1_RW	acq1_RW	1	13	0	0	300	300	501	46	0	1	1	blank2r.bmp	0	1	+	0	1	blank2r.bmp	492	1	LWWL	492	1	blank2r.bmp	572	2	sterben	866	0	0	0	0	0	0	0	0	0	0	0	0	0	0	0	0	0	0	0	0	0	0	0	0	0	0	0	0	0	0	0	0	0	0	0	0
071019	12:16:05	12:17:35	89483	5.0.10.0	5_exp_RW	37	Rpleas_acq	CS_A	JQQJ	YFFY	LWWL	DXXD	ZHHZ	CPPC	küssen	sonnig	gütig	träumen	vertrauen	genießen	krank	sterben	gierig	töten	versagen	gemein	1	acq_USpleas_CSpleas2_RW	acq1_RW	1	14	0	0	300	300	462	50	0	1	1	blank2r.bmp	0	1	+	0	1	blank2r.bmp	492	1	YFFY	492	1	blank2r.bmp	572	2	vertrauen	866	0	0	0	0	0	0	0	0	0	0	0	0	0	0	0	0	0	0	0	0	0	0	0	0	0	0	0	0	0	0	0	0	0	0	0	0
071019	12:16:05	12:17:37	91468	5.0.10.0	5_exp_RW	37	Rpleas_acq	CS_A	JQQJ	YFFY	LWWL	DXXD	ZHHZ	CPPC	küssen	sonnig	gütig	träumen	vertrauen	genießen	krank	sterben	gierig	töten	versagen	gemein	1	acq_USpleas_CSpleas1_RW	acq1_RW	1	15	0	0	300	300	499	50	0	1	1	blank2r.bmp	0	1	+	0	1	blank2r.bmp	492	1	JQQJ	492	1	blank2r.bmp	572	2	sonnig	866	0	0	0	0	0	0	0	0	0	0	0	0	0	0	0	0	0	0	0	0	0	0	0	0	0	0	0	0	0	0	0	0	0	0	0	0
071019	12:16:05	12:17:39	93414	5.0.10.0	5_exp_RW	37	Rpleas_acq	CS_A	JQQJ	YFFY	LWWL	DXXD	ZHHZ	CPPC	küssen	sonnig	gütig	träumen	vertrauen	genießen	krank	sterben	gierig	töten	versagen	gemein	1	acq_USpleas_CSpleas1_RW	acq1_RW	1	16	0	0	300	300	471	50	0	1	1	blank2r.bmp	0	1	+	0	1	blank2r.bmp	492	1	JQQJ	492	1	blank2r.bmp	572	3	gütig	866	0	0	0	0	0	0	0	0	0	0	0	0	0	0	0	0	0	0	0	0	0	0	0	0	0	0	0	0	0	0	0	0	0	0	0	0
071019	12:16:05	12:18:03	117751	5.0.10.0	5_exp_RW	37	Rpleas_acq	CS_A	JQQJ	YFFY	LWWL	DXXD	ZHHZ	CPPC	küssen	sonnig	gütig	träumen	vertrauen	genießen	krank	sterben	gierig	töten	versagen	gemein	1	acq_USunple_CSunple2_RW	acq2_RW	2	1	480	0	300	300	1530	46	0	1	1	blank2r.bmp	0	1	+	0	1	blank2r.bmp	492	1	DXXD	492	1	blank2r.bmp	572	3	gemein	866	1	!	1319	1	!	-1	0	0	0	0	0	0	0	0	0	0	0	0	0	0	0	0	0	0	0	0	0	0	0	0	0	0	0	0	0	0
071019	12:16:05	12:18:07	121296	5.0.10.0	5_exp_RW	37	Rpleas_acq	CS_A	JQQJ	YFFY	LWWL	DXXD	ZHHZ	CPPC	küssen	sonnig	gütig	träumen	vertrauen	genießen	krank	sterben	gierig	töten	versagen	gemein	1	acq_USunple_CSunple2_RW	acq2_RW	2	2	480	0	300	300	1754	46	0	1	1	blank2r.bmp	0	1	+	0	1	blank2r.bmp	492	1	DXXD	492	1	blank2r.bmp	572	2	versagen	866	1	!	1319	1	!	-1	0	0	0	0	0	0	0	0	0	0	0	0	0	0	0	0	0	0	0	0	0	0	0	0	0	0	0	0	0	0
071019	12:16:05	12:18:09	123802	5.0.10.0	5_exp_RW	37	Rpleas_acq	CS_A	JQQJ	YFFY	LWWL	DXXD	ZHHZ	CPPC	küssen	sonnig	gütig	träumen	vertrauen	genießen	krank	sterben	gierig	töten	versagen	gemein	1	acq_USunple_CSunple1_RW	acq2_RW	2	3	480	1	300	300	486	50	0	0	1	blank2r.bmp	0	1	+	0	1	blank2r.bmp	492	1	LWWL	492	1	blank2r.bmp	572	3	gierig	866	1	FEHLER	1705	1	!	1319	1	!	1386	0	0	0	0	0	0	0	0	0	0	0	0	0	0	0	0	0	0	0	0	0	0	0	0	0	0	0
071019	12:16:05	12:18:11	125734	5.0.10.0	5_exp_RW	37	Rpleas_acq	CS_A	JQQJ	YFFY	LWWL	DXXD	ZHHZ	CPPC	küssen	sonnig	gütig	träumen	vertrauen	genießen	krank	sterben	gierig	töten	versagen	gemein	1	acq_USpleas_CSpleas1_RW	acq2_RW	2	4	480	0	300	300	374	50	0	1	1	blank2r.bmp	0	1	+	0	1	blank2r.bmp	492	1	JQQJ	492	1	blank2r.bmp	572	2	sonnig	866	1	!	-1	1	!	-1	0	0	0	0	0	0	0	0	0	0	0	0	0	0	0	0	0	0	0	0	0	0	0	0	0	0	0	0	0	0
071019	12:16:05	12:18:14	128240	5.0.10.0	5_exp_RW	37	Rpleas_acq	CS_A	JQQJ	YFFY	LWWL	DXXD	ZHHZ	CPPC	küssen	sonnig	gütig	träumen	vertrauen	genießen	krank	sterben	gierig	töten	versagen	gemein	1	acq_USpleas_CSpleas2_RW	acq2_RW	2	5	480	0	300	300	722	50	0	1	1	blank2r.bmp	0	1	+	0	1	blank2r.bmp	492	1	YFFY	492	1	blank2r.bmp	572	1	träumen	866	1	!	1319	1	!	-1	0	0	0	0	0	0	0	0	0	0	0	0	0	0	0	0	0	0	0	0	0	0	0	0	0	0	0	0	0	0
071019	12:16:05	12:18:16	130599	5.0.10.0	5_exp_RW	37	Rpleas_acq	CS_A	JQQJ	YFFY	LWWL	DXXD	ZHHZ	CPPC	küssen	sonnig	gütig	träumen	vertrauen	genießen	krank	sterben	gierig	töten	versagen	gemein	1	acq_USpleas_CSpleas2_RW	acq2_RW	2	6	480	0	300	300	584	50	0	1	1	blank2r.bmp	0	1	+	0	1	blank2r.bmp	492	1	YFFY	492	1	blank2r.bmp	572	3	genießen	866	1	!	1319	1	!	-1	0	0	0	0	0	0	0	0	0	0	0	0	0	0	0	0	0	0	0	0	0	0	0	0	0	0	0	0	0	0
071019	12:16:05	12:18:18	132838	5.0.10.0	5_exp_RW	37	Rpleas_acq	CS_A	JQQJ	YFFY	LWWL	DXXD	ZHHZ	CPPC	küssen	sonnig	gütig	träumen	vertrauen	genießen	krank	sterben	gierig	töten	versagen	gemein	1	acq_USunple_CSunple2_RW	acq2_RW	2	7	480	1	300	300	434	46	0	1	1	blank2r.bmp	0	1	+	0	1	blank2r.bmp	492	1	DXXD	492	1	blank2r.bmp	572	1	töten	866	1	!	1319	1	!	1332	0	0	0	0	0	0	0	0	0	0	0	0	0	0	0	0	0	0	0	0	0	0	0	0	0	0	0	0	0	0
071019	12:16:05	12:18:21	135304	5.0.10.0	5_exp_RW	37	Rpleas_acq	CS_A	JQQJ	YFFY	LWWL	DXXD	ZHHZ	CPPC	küssen	sonnig	gütig	träumen	vertrauen	genießen	krank	sterben	gierig	töten	versagen	gemein	1	acq_USpleas_CSpleas1_RW	acq2_RW	2	8	480	0	300	300	696	50	0	1	1	blank2r.bmp	0	1	+	0	1	blank2r.bmp	492	1	JQQJ	492	1	blank2r.bmp	572	1	küssen	866	1	!	1319	1	!	-1	0	0	0	0	0	0	0	0	0	0	0	0	0	0	0	0	0	0	0	0	0	0	0	0	0	0	0	0	0	0
071019	12:16:05	12:18:23	137756	5.0.10.0	5_exp_RW	37	Rpleas_acq	CS_A	JQQJ	YFFY	LWWL	DXXD	ZHHZ	CPPC	küssen	sonnig	gütig	träumen	vertrauen	genießen	krank	sterben	gierig	töten	versagen	gemein	1	acq_USunple_CSunple1_RW	acq2_RW	2	9	480	0	300	300	674	46	0	1	1	blank2r.bmp	0	1	+	0	1	blank2r.bmp	492	1	LWWL	492	1	blank2r.bmp	572	1	krank	866	1	!	1319	1	!	-1	0	0	0	0	0	0	0	0	0	0	0	0	0	0	0	0	0	0	0	0	0	0	0	0	0	0	0	0	0	0
071019	12:16:05	12:18:29	143820	5.0.10.0	5_exp_RW	37	Rpleas_acq	CS_A	JQQJ	YFFY	LWWL	DXXD	ZHHZ	CPPC	küssen	sonnig	gütig	träumen	vertrauen	genießen	krank	sterben	gierig	töten	versagen	gemein	1	acq_USunple_CSunple1_RW	acq2_RW	2	10	480	0	300	300	4281	46	0	1	1	blank2r.bmp	0	1	+	0	1	blank2r.bmp	492	1	LWWL	492	1	blank2r.bmp	572	3	gierig	866	1	!	1319	1	!	-1	0	0	0	0	0	0	0	0	0	0	0	0	0	0	0	0	0	0	0	0	0	0	0	0	0	0	0	0	0	0
071019	12:16:05	12:18:32	146273	5.0.10.0	5_exp_RW	37	Rpleas_acq	CS_A	JQQJ	YFFY	LWWL	DXXD	ZHHZ	CPPC	küssen	sonnig	gütig	träumen	vertrauen	genießen	krank	sterben	gierig	töten	versagen	gemein	1	acq_USpleas_CSpleas2_RW	acq2_RW	2	11	480	0	300	300	670	50	0	1	1	blank2r.bmp	0	1	+	0	1	blank2r.bmp	492	1	YFFY	492	1	blank2r.bmp	572	1	träumen	866	1	!	1319	1	!	-1	0	0	0	0	0	0	0	0	0	0	0	0	0	0	0	0	0	0	0	0	0	0	0	0	0	0	0	0	0	0
071019	12:16:05	12:18:34	148419	5.0.10.0	5_exp_RW	37	Rpleas_acq	CS_A	JQQJ	YFFY	LWWL	DXXD	ZHHZ	CPPC	küssen	sonnig	gütig	träumen	vertrauen	genießen	krank	sterben	gierig	töten	versagen	gemein	1	acq_USpleas_CSpleas2_RW	acq2_RW	2	12	480	0	300	300	370	50	0	1	1	blank2r.bmp	0	1	+	0	1	blank2r.bmp	492	1	YFFY	492	1	blank2r.bmp	572	2	vertrauen	866	1	!	-1	1	!	-1	0	0	0	0	0	0	0	0	0	0	0	0	0	0	0	0	0	0	0	0	0	0	0	0	0	0	0	0	0	0
071019	12:16:05	12:18:36	150884	5.0.10.0	5_exp_RW	37	Rpleas_acq	CS_A	JQQJ	YFFY	LWWL	DXXD	ZHHZ	CPPC	küssen	sonnig	gütig	träumen	vertrauen	genießen	krank	sterben	gierig	töten	versagen	gemein	1	acq_USpleas_CSpleas1_RW	acq2_RW	2	13	480	0	300	300	690	50	0	1	1	blank2r.bmp	0	1	+	0	1	blank2r.bmp	492	1	JQQJ	492	1	blank2r.bmp	572	1	küssen	866	1	!	1319	1	!	-1	0	0	0	0	0	0	0	0	0	0	0	0	0	0	0	0	0	0	0	0	0	0	0	0	0	0	0	0	0	0
071019	12:16:05	12:18:39	153323	5.0.10.0	5_exp_RW	37	Rpleas_acq	CS_A	JQQJ	YFFY	LWWL	DXXD	ZHHZ	CPPC	küssen	sonnig	gütig	träumen	vertrauen	genießen	krank	sterben	gierig	töten	versagen	gemein	1	acq_USunple_CSunple2_RW	acq2_RW	2	14	480	0	300	300	650	46	0	1	1	blank2r.bmp	0	1	+	0	1	blank2r.bmp	492	1	DXXD	492	1	blank2r.bmp	572	3	gemein	866	1	!	1319	1	!	-1	0	0	0	0	0	0	0	0	0	0	0	0	0	0	0	0	0	0	0	0	0	0	0	0	0	0	0	0	0	0
071019	12:16:05	12:18:41	155682	5.0.10.0	5_exp_RW	37	Rpleas_acq	CS_A	JQQJ	YFFY	LWWL	DXXD	ZHHZ	CPPC	küssen	sonnig	gütig	träumen	vertrauen	genießen	krank	sterben	gierig	töten	versagen	gemein	1	acq_USunple_CSunple2_RW	acq2_RW	2	15	480	0	300	300	579	46	0	1	1	blank2r.bmp	0	1	+	0	1	blank2r.bmp	492	1	DXXD	492	1	blank2r.bmp	572	2	versagen	866	1	!	1319	1	!	-1	0	0	0	0	0	0	0	0	0	0	0	0	0	0	0	0	0	0	0	0	0	0	0	0	0	0	0	0	0	0
071019	12:16:05	12:18:44	158068	5.0.10.0	5_exp_RW	37	Rpleas_acq	CS_A	JQQJ	YFFY	LWWL	DXXD	ZHHZ	CPPC	küssen	sonnig	gütig	träumen	vertrauen	genießen	krank	sterben	gierig	töten	versagen	gemein	1	acq_USpleas_CSpleas2_RW	acq2_RW	2	16	480	0	300	300	602	50	0	1	1	blank2r.bmp	0	1	+	0	1	blank2r.bmp	492	1	YFFY	492	1	blank2r.bmp	572	3	genießen	866	1	!	1319	1	!	-1	0	0	0	0	0	0	0	0	0	0	0	0	0	0	0	0	0	0	0	0	0	0	0	0	0	0	0	0	0	0
071019	12:16:05	12:18:46	160374	5.0.10.0	5_exp_RW	37	Rpleas_acq	CS_A	JQQJ	YFFY	LWWL	DXXD	ZHHZ	CPPC	küssen	sonnig	gütig	träumen	vertrauen	genießen	krank	sterben	gierig	töten	versagen	gemein	1	acq_USunple_CSunple1_RW	acq2_RW	2	17	480	1	300	300	498	46	0	1	1	blank2r.bmp	0	1	+	0	1	blank2r.bmp	492	1	LWWL	492	1	blank2r.bmp	572	1	krank	866	1	!	1319	1	!	1399	0	0	0	0	0	0	0	0	0	0	0	0	0	0	0	0	0	0	0	0	0	0	0	0	0	0	0	0	0	0
071019	12:16:05	12:18:48	162879	5.0.10.0	5_exp_RW	37	Rpleas_acq	CS_A	JQQJ	YFFY	LWWL	DXXD	ZHHZ	CPPC	küssen	sonnig	gütig	träumen	vertrauen	genießen	krank	sterben	gierig	töten	versagen	gemein	1	acq_USpleas_CSpleas1_RW	acq2_RW	2	18	480	0	300	300	737	50	0	1	1	blank2r.bmp	0	1	+	0	1	blank2r.bmp	492	1	JQQJ	492	1	blank2r.bmp	572	3	gütig	866	1	!	1319	1	!	-1	0	0	0	0	0	0	0	0	0	0	0	0	0	0	0	0	0	0	0	0	0	0	0	0	0	0	0	0	0	0
071019	12:16:05	12:18:51	165252	5.0.10.0	5_exp_RW	37	Rpleas_acq	CS_A	JQQJ	YFFY	LWWL	DXXD	ZHHZ	CPPC	küssen	sonnig	gütig	träumen	vertrauen	genießen	krank	sterben	gierig	töten	versagen	gemein	1	acq_USunple_CSunple2_RW	acq2_RW	2	19	480	0	300	300	585	46	0	1	1	blank2r.bmp	0	1	+	0	1	blank2r.bmp	492	1	DXXD	492	1	blank2r.bmp	572	1	töten	866	1	!	1319	1	!	-1	0	0	0	0	0	0	0	0	0	0	0	0	0	0	0	0	0	0	0	0	0	0	0	0	0	0	0	0	0	0
071019	12:16:05	12:18:53	167651	5.0.10.0	5_exp_RW	37	Rpleas_acq	CS_A	JQQJ	YFFY	LWWL	DXXD	ZHHZ	CPPC	küssen	sonnig	gütig	träumen	vertrauen	genießen	krank	sterben	gierig	töten	versagen	gemein	1	acq_USunple_CSunple1_RW	acq2_RW	2	20	480	0	300	300	604	46	0	1	1	blank2r.bmp	0	1	+	0	1	blank2r.bmp	492	1	LWWL	492	1	blank2r.bmp	572	2	sterben	866	1	!	1319	1	!	-1	0	0	0	0	0	0	0	0	0	0	0	0	0	0	0	0	0	0	0	0	0	0	0	0	0	0	0	0	0	0
071019	12:16:05	12:18:56	170010	5.0.10.0	5_exp_RW	37	Rpleas_acq	CS_A	JQQJ	YFFY	LWWL	DXXD	ZHHZ	CPPC	küssen	sonnig	gütig	träumen	vertrauen	genießen	krank	sterben	gierig	töten	versagen	gemein	1	acq_USpleas_CSpleas2_RW	acq2_RW	2	21	480	0	300	300	579	50	0	1	1	blank2r.bmp	0	1	+	0	1	blank2r.bmp	492	1	YFFY	492	1	blank2r.bmp	572	2	vertrauen	866	1	!	1319	1	!	-1	0	0	0	0	0	0	0	0	0	0	0	0	0	0	0	0	0	0	0	0	0	0	0	0	0	0	0	0	0	0
071019	12:16:05	12:18:58	172289	5.0.10.0	5_exp_RW	37	Rpleas_acq	CS_A	JQQJ	YFFY	LWWL	DXXD	ZHHZ	CPPC	küssen	sonnig	gütig	träumen	vertrauen	genießen	krank	sterben	gierig	töten	versagen	gemein	1	acq_USunple_CSunple1_RW	acq2_RW	2	22	480	0	300	300	264	50	0	0	1	blank2r.bmp	0	1	+	0	1	blank2r.bmp	492	1	LWWL	492	1	blank2r.bmp	572	3	gierig	866	1	FEHLER	1466	1	!	-1	1	!	-1	0	0	0	0	0	0	0	0	0	0	0	0	0	0	0	0	0	0	0	0	0	0	0	0	0	0	0
071019	12:16:05	12:19:00	174221	5.0.10.0	5_exp_RW	37	Rpleas_acq	CS_A	JQQJ	YFFY	LWWL	DXXD	ZHHZ	CPPC	küssen	sonnig	gütig	träumen	vertrauen	genießen	krank	sterben	gierig	töten	versagen	gemein	1	acq_USpleas_CSpleas1_RW	acq2_RW	2	23	480	0	300	300	381	50	0	1	1	blank2r.bmp	0	1	+	0	1	blank2r.bmp	492	1	JQQJ	492	1	blank2r.bmp	572	2	sonnig	866	1	!	-1	1	!	-1	0	0	0	0	0	0	0	0	0	0	0	0	0	0	0	0	0	0	0	0	0	0	0	0	0	0	0	0	0	0
071019	12:16:05	12:19:02	176500	5.0.10.0	5_exp_RW	37	Rpleas_acq	CS_A	JQQJ	YFFY	LWWL	DXXD	ZHHZ	CPPC	küssen	sonnig	gütig	träumen	vertrauen	genießen	krank	sterben	gierig	töten	versagen	gemein	1	acq_USpleas_CSpleas1_RW	acq2_RW	2	24	480	1	300	300	464	50	0	1	1	blank2r.bmp	0	1	+	0	1	blank2r.bmp	492	1	JQQJ	492	1	blank2r.bmp	572	1	küssen	866	1	!	1319	1	!	1359	0	0	0	0	0	0	0	0	0	0	0	0	0	0	0	0	0	0	0	0	0	0	0	0	0	0	0	0	0	0
071019	12:16:05	12:19:18	192680	5.0.10.0	5_exp_RW	37	Rpleas_acq	CS_A	JQQJ	YFFY	LWWL	DXXD	ZHHZ	CPPC	küssen	sonnig	gütig	träumen	vertrauen	genießen	krank	sterben	gierig	töten	versagen	gemein	1	acq_USpleas_CSpleas1_RW	acq3_RW	3	1	453	0	300	300	1379	50	0	1	1	blank2r.bmp	0	1	+	0	1	blank2r.bmp	492	1	JQQJ	492	1	blank2r.bmp	572	2	sonnig	866	1	!	1292	1	!	-1	0	0	0	0	0	0	0	0	0	0	0	0	0	0	0	0	0	0	0	0	0	0	0	0	0	0	0	0	0	0
071019	12:16:05	12:19:21	195039	5.0.10.0	5_exp_RW	37	Rpleas_acq	CS_A	JQQJ	YFFY	LWWL	DXXD	ZHHZ	CPPC	küssen	sonnig	gütig	träumen	vertrauen	genießen	krank	sterben	gierig	töten	versagen	gemein	1	acq_USpleas_CSpleas2_RW	acq3_RW	3	2	453	0	300	300	580	50	0	1	1	blank2r.bmp	0	1	+	0	1	blank2r.bmp	492	1	YFFY	492	1	blank2r.bmp	572	3	genießen	866	1	!	1292	1	!	-1	0	0	0	0	0	0	0	0	0	0	0	0	0	0	0	0	0	0	0	0	0	0	0	0	0	0	0	0	0	0
071019	12:16:05	12:19:23	197119	5.0.10.0	5_exp_RW	37	Rpleas_acq	CS_A	JQQJ	YFFY	LWWL	DXXD	ZHHZ	CPPC	küssen	sonnig	gütig	träumen	vertrauen	genießen	krank	sterben	gierig	töten	versagen	gemein	1	acq_USunple_CSunple1_RW	acq3_RW	3	3	453	0	300	300	293	46	0	1	1	blank2r.bmp	0	1	+	0	1	blank2r.bmp	492	1	LWWL	492	1	blank2r.bmp	572	2	sterben	866	1	!	-1	1	!	-1	0	0	0	0	0	0	0	0	0	0	0	0	0	0	0	0	0	0	0	0	0	0	0	0	0	0	0	0	0	0
071019	12:16:05	12:19:25	199438	5.0.10.0	5_exp_RW	37	Rpleas_acq	CS_A	JQQJ	YFFY	LWWL	DXXD	ZHHZ	CPPC	küssen	sonnig	gütig	träumen	vertrauen	genießen	krank	sterben	gierig	töten	versagen	gemein	1	acq_USunple_CSunple2_RW	acq3_RW	3	4	453	0	300	300	540	46	0	1	1	blank2r.bmp	0	1	+	0	1	blank2r.bmp	492	1	DXXD	492	1	blank2r.bmp	572	3	gemein	866	1	!	1292	1	!	-1	0	0	0	0	0	0	0	0	0	0	0	0	0	0	0	0	0	0	0	0	0	0	0	0	0	0	0	0	0	0
071019	12:16:05	12:19:27	201450	5.0.10.0	5_exp_RW	37	Rpleas_acq	CS_A	JQQJ	YFFY	LWWL	DXXD	ZHHZ	CPPC	küssen	sonnig	gütig	träumen	vertrauen	genießen	krank	sterben	gierig	töten	versagen	gemein	1	acq_USpleas_CSpleas1_RW	acq3_RW	3	5	453	0	300	300	234	50	0	1	1	blank2r.bmp	0	1	+	0	1	blank2r.bmp	492	1	JQQJ	492	1	blank2r.bmp	572	3	gütig	866	1	!	-1	1	!	-1	0	0	0	0	0	0	0	0	0	0	0	0	0	0	0	0	0	0	0	0	0	0	0	0	0	0	0	0	0	0
071019	12:16:05	12:19:29	203769	5.0.10.0	5_exp_RW	37	Rpleas_acq	CS_A	JQQJ	YFFY	LWWL	DXXD	ZHHZ	CPPC	küssen	sonnig	gütig	träumen	vertrauen	genießen	krank	sterben	gierig	töten	versagen	gemein	1	acq_USunple_CSunple2_RW	acq3_RW	3	6	453	0	300	300	536	46	0	1	1	blank2r.bmp	0	1	+	0	1	blank2r.bmp	492	1	DXXD	492	1	blank2r.bmp	572	2	versagen	866	1	!	1292	1	!	-1	0	0	0	0	0	0	0	0	0	0	0	0	0	0	0	0	0	0	0	0	0	0	0	0	0	0	0	0	0	0
071019	12:16:05	12:19:32	206128	5.0.10.0	5_exp_RW	37	Rpleas_acq	CS_A	JQQJ	YFFY	LWWL	DXXD	ZHHZ	CPPC	küssen	sonnig	gütig	träumen	vertrauen	genießen	krank	sterben	gierig	töten	versagen	gemein	1	acq_USunple_CSunple2_RW	acq3_RW	3	7	453	0	300	300	567	46	0	1	1	blank2r.bmp	0	1	+	0	1	blank2r.bmp	492	1	DXXD	492	1	blank2r.bmp	572	2	versagen	866	1	!	1292	1	!	-1	0	0	0	0	0	0	0	0	0	0	0	0	0	0	0	0	0	0	0	0	0	0	0	0	0	0	0	0	0	0
071019	12:16:05	12:19:34	208354	5.0.10.0	5_exp_RW	37	Rpleas_acq	CS_A	JQQJ	YFFY	LWWL	DXXD	ZHHZ	CPPC	küssen	sonnig	gütig	träumen	vertrauen	genießen	krank	sterben	gierig	töten	versagen	gemein	1	acq_USunple_CSunple2_RW	acq3_RW	3	8	453	1	300	300	422	46	0	1	1	blank2r.bmp	0	1	+	0	1	blank2r.bmp	492	1	DXXD	492	1	blank2r.bmp	572	3	gemein	866	1	!	1292	1	!	1319	0	0	0	0	0	0	0	0	0	0	0	0	0	0	0	0	0	0	0	0	0	0	0	0	0	0	0	0	0	0
071019	12:16:05	12:19:36	210726	5.0.10.0	5_exp_RW	37	Rpleas_acq	CS_A	JQQJ	YFFY	LWWL	DXXD	ZHHZ	CPPC	küssen	sonnig	gütig	träumen	vertrauen	genießen	krank	sterben	gierig	töten	versagen	gemein	1	acq_USpleas_CSpleas1_RW	acq3_RW	3	9	453	0	300	300	588	50	0	1	1	blank2r.bmp	0	1	+	0	1	blank2r.bmp	492	1	JQQJ	492	1	blank2r.bmp	572	2	sonnig	866	1	!	1292	1	!	-1	0	0	0	0	0	0	0	0	0	0	0	0	0	0	0	0	0	0	0	0	0	0	0	0	0	0	0	0	0	0
071019	12:16:05	12:19:39	213032	5.0.10.0	5_exp_RW	37	Rpleas_acq	CS_A	JQQJ	YFFY	LWWL	DXXD	ZHHZ	CPPC	küssen	sonnig	gütig	träumen	vertrauen	genießen	krank	sterben	gierig	töten	versagen	gemein	1	acq_USpleas_CSpleas2_RW	acq3_RW	3	10	453	1	300	300	481	50	0	1	1	blank2r.bmp	0	1	+	0	1	blank2r.bmp	492	1	YFFY	492	1	blank2r.bmp	572	1	träumen	866	1	!	1292	1	!	1386	0	0	0	0	0	0	0	0	0	0	0	0	0	0	0	0	0	0	0	0	0	0	0	0	0	0	0	0	0	0
071019	12:16:05	12:19:41	215364	5.0.10.0	5_exp_RW	37	Rpleas_acq	CS_A	JQQJ	YFFY	LWWL	DXXD	ZHHZ	CPPC	küssen	sonnig	gütig	träumen	vertrauen	genießen	krank	sterben	gierig	töten	versagen	gemein	1	acq_USpleas_CSpleas1_RW	acq3_RW	3	11	453	0	300	300	556	50	0	1	1	blank2r.bmp	0	1	+	0	1	blank2r.bmp	492	1	JQQJ	492	1	blank2r.bmp	572	3	gütig	866	1	!	1292	1	!	-1	0	0	0	0	0	0	0	0	0	0	0	0	0	0	0	0	0	0	0	0	0	0	0	0	0	0	0	0	0	0
071019	12:16:05	12:19:43	217724	5.0.10.0	5_exp_RW	37	Rpleas_acq	CS_A	JQQJ	YFFY	LWWL	DXXD	ZHHZ	CPPC	küssen	sonnig	gütig	träumen	vertrauen	genießen	krank	sterben	gierig	töten	versagen	gemein	1	acq_USpleas_CSpleas2_RW	acq3_RW	3	12	453	0	300	300	345	46	0	0	1	blank2r.bmp	0	1	+	0	1	blank2r.bmp	492	1	YFFY	492	1	blank2r.bmp	572	3	genießen	866	1	FEHLER	1559	1	!	-1	1	!	-1	0	0	0	0	0	0	0	0	0	0	0	0	0	0	0	0	0	0	0	0	0	0	0	0	0	0	0
071019	12:16:05	12:19:45	219736	5.0.10.0	5_exp_RW	37	Rpleas_acq	CS_A	JQQJ	YFFY	LWWL	DXXD	ZHHZ	CPPC	küssen	sonnig	gütig	träumen	vertrauen	genießen	krank	sterben	gierig	töten	versagen	gemein	1	acq_USunple_CSunple2_RW	acq3_RW	3	13	453	1	300	300	423	46	0	1	1	blank2r.bmp	0	1	+	0	1	blank2r.bmp	492	1	DXXD	492	1	blank2r.bmp	572	1	töten	866	1	!	1292	1	!	1319	0	0	0	0	0	0	0	0	0	0	0	0	0	0	0	0	0	0	0	0	0	0	0	0	0	0	0	0	0	0
071019	12:16:05	12:19:48	222042	5.0.10.0	5_exp_RW	37	Rpleas_acq	CS_A	JQQJ	YFFY	LWWL	DXXD	ZHHZ	CPPC	küssen	sonnig	gütig	träumen	vertrauen	genießen	krank	sterben	gierig	töten	versagen	gemein	1	acq_USpleas_CSpleas2_RW	acq3_RW	3	14	453	1	300	300	513	50	0	1	1	blank2r.bmp	0	1	+	0	1	blank2r.bmp	492	1	YFFY	492	1	blank2r.bmp	572	2	vertrauen	866	1	!	1292	1	!	1412	0	0	0	0	0	0	0	0	0	0	0	0	0	0	0	0	0	0	0	0	0	0	0	0	0	0	0	0	0	0
071019	12:16:05	12:19:50	224347	5.0.10.0	5_exp_RW	37	Rpleas_acq	CS_A	JQQJ	YFFY	LWWL	DXXD	ZHHZ	CPPC	küssen	sonnig	gütig	träumen	vertrauen	genießen	krank	sterben	gierig	töten	versagen	gemein	1	acq_USunple_CSunple1_RW	acq3_RW	3	15	453	1	300	300	516	46	0	1	1	blank2r.bmp	0	1	+	0	1	blank2r.bmp	492	1	LWWL	492	1	blank2r.bmp	572	1	krank	866	1	!	1292	1	!	1412	0	0	0	0	0	0	0	0	0	0	0	0	0	0	0	0	0	0	0	0	0	0	0	0	0	0	0	0	0	0
071019	12:16:05	12:19:52	226560	5.0.10.0	5_exp_RW	37	Rpleas_acq	CS_A	JQQJ	YFFY	LWWL	DXXD	ZHHZ	CPPC	küssen	sonnig	gütig	träumen	vertrauen	genießen	krank	sterben	gierig	töten	versagen	gemein	1	acq_USunple_CSunple1_RW	acq3_RW	3	16	453	1	300	300	422	46	0	1	1	blank2r.bmp	0	1	+	0	1	blank2r.bmp	492	1	LWWL	492	1	blank2r.bmp	572	2	sterben	866	1	!	1292	1	!	1319	0	0	0	0	0	0	0	0	0	0	0	0	0	0	0	0	0	0	0	0	0	0	0	0	0	0	0	0	0	0
071019	12:16:05	12:19:54	228812	5.0.10.0	5_exp_RW	37	Rpleas_acq	CS_A	JQQJ	YFFY	LWWL	DXXD	ZHHZ	CPPC	küssen	sonnig	gütig	träumen	vertrauen	genießen	krank	sterben	gierig	töten	versagen	gemein	1	acq_USpleas_CSpleas1_RW	acq3_RW	3	17	453	1	300	300	459	50	0	1	1	blank2r.bmp	0	1	+	0	1	blank2r.bmp	492	1	JQQJ	492	1	blank2r.bmp	572	1	küssen	866	1	!	1292	1	!	1359	0	0	0	0	0	0	0	0	0	0	0	0	0	0	0	0	0	0	0	0	0	0	0	0	0	0	0	0	0	0
071019	12:16:05	12:19:56	230918	5.0.10.0	5_exp_RW	37	Rpleas_acq	CS_A	JQQJ	YFFY	LWWL	DXXD	ZHHZ	CPPC	küssen	sonnig	gütig	träumen	vertrauen	genießen	krank	sterben	gierig	töten	versagen	gemein	1	acq_USunple_CSunple2_RW	acq3_RW	3	18	453	0	300	300	343	46	0	1	1	blank2r.bmp	0	1	+	0	1	blank2r.bmp	492	1	DXXD	492	1	blank2r.bmp	572	2	versagen	866	1	!	-1	1	!	-1	0	0	0	0	0	0	0	0	0	0	0	0	0	0	0	0	0	0	0	0	0	0	0	0	0	0	0	0	0	0
071019	12:16:05	12:19:59	233144	5.0.10.0	5_exp_RW	37	Rpleas_acq	CS_A	JQQJ	YFFY	LWWL	DXXD	ZHHZ	CPPC	küssen	sonnig	gütig	träumen	vertrauen	genießen	krank	sterben	gierig	töten	versagen	gemein	1	acq_USpleas_CSpleas1_RW	acq3_RW	3	19	453	1	300	300	420	50	0	1	1	blank2r.bmp	0	1	+	0	1	blank2r.bmp	492	1	JQQJ	492	1	blank2r.bmp	572	2	sonnig	866	1	!	1292	1	!	1319	0	0	0	0	0	0	0	0	0	0	0	0	0	0	0	0	0	0	0	0	0	0	0	0	0	0	0	0	0	0
071019	12:16:05	12:20:01	235476	5.0.10.0	5_exp_RW	37	Rpleas_acq	CS_A	JQQJ	YFFY	LWWL	DXXD	ZHHZ	CPPC	küssen	sonnig	gütig	träumen	vertrauen	genießen	krank	sterben	gierig	töten	versagen	gemein	1	acq_USunple_CSunple1_RW	acq3_RW	3	20	453	0	300	300	568	46	0	1	1	blank2r.bmp	0	1	+	0	1	blank2r.bmp	492	1	LWWL	492	1	blank2r.bmp	572	3	gierig	866	1	!	1292	1	!	-1	0	0	0	0	0	0	0	0	0	0	0	0	0	0	0	0	0	0	0	0	0	0	0	0	0	0	0	0	0	0
071019	12:16:05	12:20:03	237809	5.0.10.0	5_exp_RW	37	Rpleas_acq	CS_A	JQQJ	YFFY	LWWL	DXXD	ZHHZ	CPPC	küssen	sonnig	gütig	träumen	vertrauen	genießen	krank	sterben	gierig	töten	versagen	gemein	1	acq_USpleas_CSpleas2_RW	acq3_RW	3	21	453	1	300	300	519	50	0	1	1	blank2r.bmp	0	1	+	0	1	blank2r.bmp	492	1	YFFY	492	1	blank2r.bmp	572	1	träumen	866	1	!	1292	1	!	1426	0	0	0	0	0	0	0	0	0	0	0	0	0	0	0	0	0	0	0	0	0	0	0	0	0	0	0	0	0	0
071019	12:16:05	12:20:06	240114	5.0.10.0	5_exp_RW	37	Rpleas_acq	CS_A	JQQJ	YFFY	LWWL	DXXD	ZHHZ	CPPC	küssen	sonnig	gütig	träumen	vertrauen	genießen	krank	sterben	gierig	töten	versagen	gemein	1	acq_USpleas_CSpleas2_RW	acq3_RW	3	22	453	1	300	300	509	50	0	1	1	blank2r.bmp	0	1	+	0	1	blank2r.bmp	492	1	YFFY	492	1	blank2r.bmp	572	1	träumen	866	1	!	1292	1	!	1412	0	0	0	0	0	0	0	0	0	0	0	0	0	0	0	0	0	0	0	0	0	0	0	0	0	0	0	0	0	0
071019	12:16:05	12:20:08	242207	5.0.10.0	5_exp_RW	37	Rpleas_acq	CS_A	JQQJ	YFFY	LWWL	DXXD	ZHHZ	CPPC	küssen	sonnig	gütig	träumen	vertrauen	genießen	krank	sterben	gierig	töten	versagen	gemein	1	acq_USunple_CSunple1_RW	acq3_RW	3	23	453	0	300	300	310	46	0	1	1	blank2r.bmp	0	1	+	0	1	blank2r.bmp	492	1	LWWL	492	1	blank2r.bmp	572	1	krank	866	1	!	-1	1	!	-1	0	0	0	0	0	0	0	0	0	0	0	0	0	0	0	0	0	0	0	0	0	0	0	0	0	0	0	0	0	0
071019	12:16:05	12:20:10	244539	5.0.10.0	5_exp_RW	37	Rpleas_acq	CS_A	JQQJ	YFFY	LWWL	DXXD	ZHHZ	CPPC	küssen	sonnig	gütig	träumen	vertrauen	genießen	krank	sterben	gierig	töten	versagen	gemein	1	acq_USunple_CSunple1_RW	acq3_RW	3	24	453	0	300	300	532	46	0	1	1	blank2r.bmp	0	1	+	0	1	blank2r.bmp	492	1	LWWL	492	1	blank2r.bmp	572	3	gierig	866	1	!	1292	1	!	-1	0	0	0	0	0	0	0	0	0	0	0	0	0	0	0	0	0	0	0	0	0	0	0	0	0	0	0	0	0	0
071019	12:16:05	12:20:23	257467	5.0.10.0	5_exp_RW	37	Rpleas_acq	CS_A	JQQJ	YFFY	LWWL	DXXD	ZHHZ	CPPC	küssen	sonnig	gütig	träumen	vertrauen	genießen	krank	sterben	gierig	töten	versagen	gemein	1	acq_USunple_CSunple2_RW	acq4567_RW	4	1	400	0	300	300	532	46	0	1	1	blank2r.bmp	0	1	+	0	1	blank2r.bmp	492	1	DXXD	492	1	blank2r.bmp	572	3	gemein	866	1	!	1239	1	!	-1	0	0	0	0	0	0	0	0	0	0	0	0	0	0	0	0	0	0	0	0	0	0	0	0	0	0	0	0	0	0
071019	12:16:05	12:20:25	259733	5.0.10.0	5_exp_RW	37	Rpleas_acq	CS_A	JQQJ	YFFY	LWWL	DXXD	ZHHZ	CPPC	küssen	sonnig	gütig	träumen	vertrauen	genießen	krank	sterben	gierig	töten	versagen	gemein	1	acq_USpleas_CSpleas1_RW	acq4567_RW	4	2	400	1	300	300	452	50	0	1	1	blank2r.bmp	0	1	+	0	1	blank2r.bmp	492	1	JQQJ	492	1	blank2r.bmp	572	3	gütig	866	1	!	1239	1	!	1359	0	0	0	0	0	0	0	0	0	0	0	0	0	0	0	0	0	0	0	0	0	0	0	0	0	0	0	0	0	0
071019	12:16:05	12:20:28	261932	5.0.10.0	5_exp_RW	37	Rpleas_acq	CS_A	JQQJ	YFFY	LWWL	DXXD	ZHHZ	CPPC	küssen	sonnig	gütig	träumen	vertrauen	genießen	krank	sterben	gierig	töten	versagen	gemein	1	acq_USpleas_CSpleas1_RW	acq4567_RW	4	3	400	1	300	300	401	50	0	1	1	blank2r.bmp	0	1	+	0	1	blank2r.bmp	492	1	JQQJ	492	1	blank2r.bmp	572	1	küssen	866	1	!	1239	1	!	1306	0	0	0	0	0	0	0	0	0	0	0	0	0	0	0	0	0	0	0	0	0	0	0	0	0	0	0	0	0	0
071019	12:16:05	12:20:30	264118	5.0.10.0	5_exp_RW	37	Rpleas_acq	CS_A	JQQJ	YFFY	LWWL	DXXD	ZHHZ	CPPC	küssen	sonnig	gütig	träumen	vertrauen	genießen	krank	sterben	gierig	töten	versagen	gemein	1	acq_USpleas_CSpleas1_RW	acq4567_RW	4	4	400	1	300	300	397	50	0	1	1	blank2r.bmp	0	1	+	0	1	blank2r.bmp	492	1	JQQJ	492	1	blank2r.bmp	572	1	küssen	866	1	!	1239	1	!	1292	0	0	0	0	0	0	0	0	0	0	0	0	0	0	0	0	0	0	0	0	0	0	0	0	0	0	0	0	0	0
071019	12:16:05	12:20:32	266410	5.0.10.0	5_exp_RW	37	Rpleas_acq	CS_A	JQQJ	YFFY	LWWL	DXXD	ZHHZ	CPPC	küssen	sonnig	gütig	träumen	vertrauen	genießen	krank	sterben	gierig	töten	versagen	gemein	1	acq_USpleas_CSpleas1_RW	acq4567_RW	4	5	400	0	300	300	521	50	0	1	1	blank2r.bmp	0	1	+	0	1	blank2r.bmp	492	1	JQQJ	492	1	blank2r.bmp	572	3	gütig	866	1	!	1239	1	!	-1	0	0	0	0	0	0	0	0	0	0	0	0	0	0	0	0	0	0	0	0	0	0	0	0	0	0	0	0	0	0
071019	12:16:05	12:20:34	268689	5.0.10.0	5_exp_RW	37	Rpleas_acq	CS_A	JQQJ	YFFY	LWWL	DXXD	ZHHZ	CPPC	küssen	sonnig	gütig	träumen	vertrauen	genießen	krank	sterben	gierig	töten	versagen	gemein	1	acq_USpleas_CSpleas2_RW	acq4567_RW	4	6	400	0	300	300	492	50	0	1	1	blank2r.bmp	0	1	+	0	1	blank2r.bmp	492	1	YFFY	492	1	blank2r.bmp	572	2	vertrauen	866	1	!	1239	1	!	-1	0	0	0	0	0	0	0	0	0	0	0	0	0	0	0	0	0	0	0	0	0	0	0	0	0	0	0	0	0	0
071019	12:16:05	12:20:36	270875	5.0.10.0	5_exp_RW	37	Rpleas_acq	CS_A	JQQJ	YFFY	LWWL	DXXD	ZHHZ	CPPC	küssen	sonnig	gütig	träumen	vertrauen	genießen	krank	sterben	gierig	töten	versagen	gemein	1	acq_USpleas_CSpleas2_RW	acq4567_RW	4	7	400	1	300	300	376	50	0	1	1	blank2r.bmp	0	1	+	0	1	blank2r.bmp	492	1	YFFY	492	1	blank2r.bmp	572	3	genießen	866	1	!	1239	1	!	1279	0	0	0	0	0	0	0	0	0	0	0	0	0	0	0	0	0	0	0	0	0	0	0	0	0	0	0	0	0	0
071019	12:16:05	12:20:39	273101	5.0.10.0	5_exp_RW	37	Rpleas_acq	CS_A	JQQJ	YFFY	LWWL	DXXD	ZHHZ	CPPC	küssen	sonnig	gütig	träumen	vertrauen	genießen	krank	sterben	gierig	töten	versagen	gemein	1	acq_USunple_CSunple1_RW	acq4567_RW	4	8	400	1	300	300	435	46	0	1	1	blank2r.bmp	0	1	+	0	1	blank2r.bmp	492	1	LWWL	492	1	blank2r.bmp	572	2	sterben	866	1	!	1239	1	!	1332	0	0	0	0	0	0	0	0	0	0	0	0	0	0	0	0	0	0	0	0	0	0	0	0	0	0	0	0	0	0
071019	12:16:05	12:20:41	275340	5.0.10.0	5_exp_RW	37	Rpleas_acq	CS_A	JQQJ	YFFY	LWWL	DXXD	ZHHZ	CPPC	küssen	sonnig	gütig	träumen	vertrauen	genießen	krank	sterben	gierig	töten	versagen	gemein	1	acq_USunple_CSunple1_RW	acq4567_RW	4	9	400	1	300	300	441	46	0	1	1	blank2r.bmp	0	1	+	0	1	blank2r.bmp	492	1	LWWL	492	1	blank2r.bmp	572	1	krank	866	1	!	1239	1	!	1346	0	0	0	0	0	0	0	0	0	0	0	0	0	0	0	0	0	0	0	0	0	0	0	0	0	0	0	0	0	0
071019	12:16:05	12:20:43	277512	5.0.10.0	5_exp_RW	37	Rpleas_acq	CS_A	JQQJ	YFFY	LWWL	DXXD	ZHHZ	CPPC	küssen	sonnig	gütig	träumen	vertrauen	genießen	krank	sterben	gierig	töten	versagen	gemein	1	acq_USunple_CSunple1_RW	acq4567_RW	4	10	400	1	300	300	363	46	0	1	1	blank2r.bmp	0	1	+	0	1	blank2r.bmp	492	1	LWWL	492	1	blank2r.bmp	572	2	sterben	866	1	!	1239	1	!	1266	0	0	0	0	0	0	0	0	0	0	0	0	0	0	0	0	0	0	0	0	0	0	0	0	0	0	0	0	0	0
071019	12:16:05	12:20:45	279711	5.0.10.0	5_exp_RW	37	Rpleas_acq	CS_A	JQQJ	YFFY	LWWL	DXXD	ZHHZ	CPPC	küssen	sonnig	gütig	träumen	vertrauen	genießen	krank	sterben	gierig	töten	versagen	gemein	1	acq_USpleas_CSpleas1_RW	acq4567_RW	4	11	400	1	300	300	403	50	0	1	1	blank2r.bmp	0	1	+	0	1	blank2r.bmp	492	1	JQQJ	492	1	blank2r.bmp	572	2	sonnig	866	1	!	1239	1	!	1306	0	0	0	0	0	0	0	0	0	0	0	0	0	0	0	0	0	0	0	0	0	0	0	0	0	0	0	0	0	0
071019	12:16:05	12:20:47	281884	5.0.10.0	5_exp_RW	37	Rpleas_acq	CS_A	JQQJ	YFFY	LWWL	DXXD	ZHHZ	CPPC	küssen	sonnig	gütig	träumen	vertrauen	genießen	krank	sterben	gierig	töten	versagen	gemein	1	acq_USunple_CSunple1_RW	acq4567_RW	4	12	400	1	300	300	382	46	0	1	1	blank2r.bmp	0	1	+	0	1	blank2r.bmp	492	1	LWWL	492	1	blank2r.bmp	572	3	gierig	866	1	!	1239	1	!	1279	0	0	0	0	0	0	0	0	0	0	0	0	0	0	0	0	0	0	0	0	0	0	0	0	0	0	0	0	0	0
071019	12:16:05	12:20:50	283923	5.0.10.0	5_exp_RW	37	Rpleas_acq	CS_A	JQQJ	YFFY	LWWL	DXXD	ZHHZ	CPPC	küssen	sonnig	gütig	träumen	vertrauen	genießen	krank	sterben	gierig	töten	versagen	gemein	1	acq_USpleas_CSpleas2_RW	acq4567_RW	4	13	400	0	300	300	266	50	0	1	1	blank2r.bmp	0	1	+	0	1	blank2r.bmp	492	1	YFFY	492	1	blank2r.bmp	572	2	vertrauen	866	1	!	-1	1	!	-1	0	0	0	0	0	0	0	0	0	0	0	0	0	0	0	0	0	0	0	0	0	0	0	0	0	0	0	0	0	0
071019	12:16:05	12:20:52	286189	5.0.10.0	5_exp_RW	37	Rpleas_acq	CS_A	JQQJ	YFFY	LWWL	DXXD	ZHHZ	CPPC	küssen	sonnig	gütig	träumen	vertrauen	genießen	krank	sterben	gierig	töten	versagen	gemein	1	acq_USunple_CSunple2_RW	acq4567_RW	4	14	400	0	300	300	479	46	0	1	1	blank2r.bmp	0	1	+	0	1	blank2r.bmp	492	1	DXXD	492	1	blank2r.bmp	572	1	töten	866	1	!	1239	1	!	-1	0	0	0	0	0	0	0	0	0	0	0	0	0	0	0	0	0	0	0	0	0	0	0	0	0	0	0	0	0	0
071019	12:16:05	12:20:54	288388	5.0.10.0	5_exp_RW	37	Rpleas_acq	CS_A	JQQJ	YFFY	LWWL	DXXD	ZHHZ	CPPC	küssen	sonnig	gütig	träumen	vertrauen	genießen	krank	sterben	gierig	töten	versagen	gemein	1	acq_USunple_CSunple2_RW	acq4567_RW	4	15	400	1	300	300	395	46	0	1	1	blank2r.bmp	0	1	+	0	1	blank2r.bmp	492	1	DXXD	492	1	blank2r.bmp	572	3	gemein	866	1	!	1239	1	!	1292	0	0	0	0	0	0	0	0	0	0	0	0	0	0	0	0	0	0	0	0	0	0	0	0	0	0	0	0	0	0
071019	12:16:05	12:20:56	290640	5.0.10.0	5_exp_RW	37	Rpleas_acq	CS_A	JQQJ	YFFY	LWWL	DXXD	ZHHZ	CPPC	küssen	sonnig	gütig	träumen	vertrauen	genießen	krank	sterben	gierig	töten	versagen	gemein	1	acq_USunple_CSunple2_RW	acq4567_RW	4	16	400	1	300	300	463	46	0	1	1	blank2r.bmp	0	1	+	0	1	blank2r.bmp	492	1	DXXD	492	1	blank2r.bmp	572	2	versagen	866	1	!	1239	1	!	1359	0	0	0	0	0	0	0	0	0	0	0	0	0	0	0	0	0	0	0	0	0	0	0	0	0	0	0	0	0	0
071019	12:16:05	12:20:58	292893	5.0.10.0	5_exp_RW	37	Rpleas_acq	CS_A	JQQJ	YFFY	LWWL	DXXD	ZHHZ	CPPC	küssen	sonnig	gütig	träumen	vertrauen	genießen	krank	sterben	gierig	töten	versagen	gemein	1	acq_USunple_CSunple2_RW	acq4567_RW	4	17	400	0	300	300	480	46	0	1	1	blank2r.bmp	0	1	+	0	1	blank2r.bmp	492	1	DXXD	492	1	blank2r.bmp	572	1	töten	866	1	!	1239	1	!	-1	0	0	0	0	0	0	0	0	0	0	0	0	0	0	0	0	0	0	0	0	0	0	0	0	0	0	0	0	0	0
071019	12:16:05	12:21:01	295105	5.0.10.0	5_exp_RW	37	Rpleas_acq	CS_A	JQQJ	YFFY	LWWL	DXXD	ZHHZ	CPPC	küssen	sonnig	gütig	träumen	vertrauen	genießen	krank	sterben	gierig	töten	versagen	gemein	1	acq_USunple_CSunple1_RW	acq4567_RW	4	18	400	1	300	300	401	46	0	1	1	blank2r.bmp	0	1	+	0	1	blank2r.bmp	492	1	LWWL	492	1	blank2r.bmp	572	1	krank	866	1	!	1239	1	!	1306	0	0	0	0	0	0	0	0	0	0	0	0	0	0	0	0	0	0	0	0	0	0	0	0	0	0	0	0	0	0
071019	12:16:05	12:21:03	297358	5.0.10.0	5_exp_RW	37	Rpleas_acq	CS_A	JQQJ	YFFY	LWWL	DXXD	ZHHZ	CPPC	küssen	sonnig	gütig	träumen	vertrauen	genießen	krank	sterben	gierig	töten	versagen	gemein	1	acq_USpleas_CSpleas2_RW	acq4567_RW	4	19	400	1	300	300	452	50	0	1	1	blank2r.bmp	0	1	+	0	1	blank2r.bmp	492	1	YFFY	492	1	blank2r.bmp	572	3	genießen	866	1	!	1239	1	!	1346	0	0	0	0	0	0	0	0	0	0	0	0	0	0	0	0	0	0	0	0	0	0	0	0	0	0	0	0	0	0
071019	12:16:05	12:21:05	299383	5.0.10.0	5_exp_RW	37	Rpleas_acq	CS_A	JQQJ	YFFY	LWWL	DXXD	ZHHZ	CPPC	küssen	sonnig	gütig	träumen	vertrauen	genießen	krank	sterben	gierig	töten	versagen	gemein	1	acq_USpleas_CSpleas2_RW	acq4567_RW	4	20	400	0	300	300	260	46	0	0	1	blank2r.bmp	0	1	+	0	1	blank2r.bmp	492	1	YFFY	492	1	blank2r.bmp	572	1	träumen	866	1	!	-1	1	!	-1	0	0	0	0	0	0	0	0	0	0	0	0	0	0	0	0	0	0	0	0	0	0	0	0	0	0	0	0	0	0
071019	12:16:05	12:21:07	301623	5.0.10.0	5_exp_RW	37	Rpleas_acq	CS_A	JQQJ	YFFY	LWWL	DXXD	ZHHZ	CPPC	küssen	sonnig	gütig	träumen	vertrauen	genießen	krank	sterben	gierig	töten	versagen	gemein	1	acq_USpleas_CSpleas2_RW	acq4567_RW	4	21	400	1	300	300	436	50	0	1	1	blank2r.bmp	0	1	+	0	1	blank2r.bmp	492	1	YFFY	492	1	blank2r.bmp	572	3	genießen	866	1	!	1239	1	!	1332	0	0	0	0	0	0	0	0	0	0	0	0	0	0	0	0	0	0	0	0	0	0	0	0	0	0	0	0	0	0
071019	12:16:05	12:21:09	303875	5.0.10.0	5_exp_RW	37	Rpleas_acq	CS_A	JQQJ	YFFY	LWWL	DXXD	ZHHZ	CPPC	küssen	sonnig	gütig	träumen	vertrauen	genießen	krank	sterben	gierig	töten	versagen	gemein	1	acq_USunple_CSunple1_RW	acq4567_RW	4	22	400	1	300	300	457	46	0	1	1	blank2r.bmp	0	1	+	0	1	blank2r.bmp	492	1	LWWL	492	1	blank2r.bmp	572	3	gierig	866	1	!	1239	1	!	1359	0	0	0	0	0	0	0	0	0	0	0	0	0	0	0	0	0	0	0	0	0	0	0	0	0	0	0	0	0	0
071019	12:16:05	12:21:12	306034	5.0.10.0	5_exp_RW	37	Rpleas_acq	CS_A	JQQJ	YFFY	LWWL	DXXD	ZHHZ	CPPC	küssen	sonnig	gütig	träumen	vertrauen	genießen	krank	sterben	gierig	töten	versagen	gemein	1	acq_USunple_CSunple2_RW	acq4567_RW	4	23	400	1	300	300	361	46	0	1	1	blank2r.bmp	0	1	+	0	1	blank2r.bmp	492	1	DXXD	492	1	blank2r.bmp	572	1	töten	866	1	!	1239	1	!	1266	0	0	0	0	0	0	0	0	0	0	0	0	0	0	0	0	0	0	0	0	0	0	0	0	0	0	0	0	0	0
071019	12:16:05	12:21:14	308233	5.0.10.0	5_exp_RW	37	Rpleas_acq	CS_A	JQQJ	YFFY	LWWL	DXXD	ZHHZ	CPPC	küssen	sonnig	gütig	träumen	vertrauen	genießen	krank	sterben	gierig	töten	versagen	gemein	1	acq_USunple_CSunple2_RW	acq4567_RW	4	24	400	1	300	300	400	46	0	1	1	blank2r.bmp	0	1	+	0	1	blank2r.bmp	492	1	DXXD	492	1	blank2r.bmp	572	3	gemein	866	1	!	1239	1	!	1306	0	0	0	0	0	0	0	0	0	0	0	0	0	0	0	0	0	0	0	0	0	0	0	0	0	0	0	0	0	0
071019	12:16:05	12:21:16	310499	5.0.10.0	5_exp_RW	37	Rpleas_acq	CS_A	JQQJ	YFFY	LWWL	DXXD	ZHHZ	CPPC	küssen	sonnig	gütig	träumen	vertrauen	genießen	krank	sterben	gierig	töten	versagen	gemein	1	acq_USunple_CSunple1_RW	acq4567_RW	4	25	400	0	300	300	495	46	0	1	1	blank2r.bmp	0	1	+	0	1	blank2r.bmp	492	1	LWWL	492	1	blank2r.bmp	572	2	sterben	866	1	!	1239	1	!	-1	0	0	0	0	0	0	0	0	0	0	0	0	0	0	0	0	0	0	0	0	0	0	0	0	0	0	0	0	0	0
071019	12:16:05	12:21:18	312725	5.0.10.0	5_exp_RW	37	Rpleas_acq	CS_A	JQQJ	YFFY	LWWL	DXXD	ZHHZ	CPPC	küssen	sonnig	gütig	träumen	vertrauen	genießen	krank	sterben	gierig	töten	versagen	gemein	1	acq_USunple_CSunple2_RW	acq4567_RW	4	26	400	1	300	300	418	46	0	1	1	blank2r.bmp	0	1	+	0	1	blank2r.bmp	492	1	DXXD	492	1	blank2r.bmp	572	2	versagen	866	1	!	1239	1	!	1319	0	0	0	0	0	0	0	0	0	0	0	0	0	0	0	0	0	0	0	0	0	0	0	0	0	0	0	0	0	0
071019	12:16:05	12:21:20	314804	5.0.10.0	5_exp_RW	37	Rpleas_acq	CS_A	JQQJ	YFFY	LWWL	DXXD	ZHHZ	CPPC	küssen	sonnig	gütig	träumen	vertrauen	genießen	krank	sterben	gierig	töten	versagen	gemein	1	acq_USpleas_CSpleas2_RW	acq4567_RW	4	27	400	0	300	300	312	50	0	1	1	blank2r.bmp	0	1	+	0	1	blank2r.bmp	492	1	YFFY	492	1	blank2r.bmp	572	2	vertrauen	866	1	!	-1	1	!	-1	0	0	0	0	0	0	0	0	0	0	0	0	0	0	0	0	0	0	0	0	0	0	0	0	0	0	0	0	0	0
071019	12:16:05	12:21:22	316883	5.0.10.0	5_exp_RW	37	Rpleas_acq	CS_A	JQQJ	YFFY	LWWL	DXXD	ZHHZ	CPPC	küssen	sonnig	gütig	träumen	vertrauen	genießen	krank	sterben	gierig	töten	versagen	gemein	1	acq_USpleas_CSpleas1_RW	acq4567_RW	4	28	400	0	300	300	296	50	0	1	1	blank2r.bmp	0	1	+	0	1	blank2r.bmp	492	1	JQQJ	492	1	blank2r.bmp	572	2	sonnig	866	1	!	-1	1	!	-1	0	0	0	0	0	0	0	0	0	0	0	0	0	0	0	0	0	0	0	0	0	0	0	0	0	0	0	0	0	0
071019	12:16:05	12:21:25	319175	5.0.10.0	5_exp_RW	37	Rpleas_acq	CS_A	JQQJ	YFFY	LWWL	DXXD	ZHHZ	CPPC	küssen	sonnig	gütig	träumen	vertrauen	genießen	krank	sterben	gierig	töten	versagen	gemein	1	acq_USunple_CSunple1_RW	acq4567_RW	4	29	400	1	300	300	466	46	0	1	1	blank2r.bmp	0	1	+	0	1	blank2r.bmp	492	1	LWWL	492	1	blank2r.bmp	572	1	krank	866	1	!	1239	1	!	1372	0	0	0	0	0	0	0	0	0	0	0	0	0	0	0	0	0	0	0	0	0	0	0	0	0	0	0	0	0	0
071019	12:16:05	12:21:27	321401	5.0.10.0	5_exp_RW	37	Rpleas_acq	CS_A	JQQJ	YFFY	LWWL	DXXD	ZHHZ	CPPC	küssen	sonnig	gütig	träumen	vertrauen	genießen	krank	sterben	gierig	töten	versagen	gemein	1	acq_USunple_CSunple2_RW	acq4567_RW	4	30	400	1	300	300	418	46	0	1	1	blank2r.bmp	0	1	+	0	1	blank2r.bmp	492	1	DXXD	492	1	blank2r.bmp	572	3	gemein	866	1	!	1239	1	!	1319	0	0	0	0	0	0	0	0	0	0	0	0	0	0	0	0	0	0	0	0	0	0	0	0	0	0	0	0	0	0
071019	12:16:05	12:21:29	323694	5.0.10.0	5_exp_RW	37	Rpleas_acq	CS_A	JQQJ	YFFY	LWWL	DXXD	ZHHZ	CPPC	küssen	sonnig	gütig	träumen	vertrauen	genießen	krank	sterben	gierig	töten	versagen	gemein	1	acq_USpleas_CSpleas1_RW	acq4567_RW	4	31	400	0	300	300	520	50	0	1	1	blank2r.bmp	0	1	+	0	1	blank2r.bmp	492	1	JQQJ	492	1	blank2r.bmp	572	1	küssen	866	1	!	1239	1	!	-1	0	0	0	0	0	0	0	0	0	0	0	0	0	0	0	0	0	0	0	0	0	0	0	0	0	0	0	0	0	0
071019	12:16:05	12:21:31	325773	5.0.10.0	5_exp_RW	37	Rpleas_acq	CS_A	JQQJ	YFFY	LWWL	DXXD	ZHHZ	CPPC	küssen	sonnig	gütig	träumen	vertrauen	genießen	krank	sterben	gierig	töten	versagen	gemein	1	acq_USpleas_CSpleas1_RW	acq4567_RW	4	32	400	0	300	300	301	50	0	1	1	blank2r.bmp	0	1	+	0	1	blank2r.bmp	492	1	JQQJ	492	1	blank2r.bmp	572	3	gütig	866	1	!	-1	1	!	-1	0	0	0	0	0	0	0	0	0	0	0	0	0	0	0	0	0	0	0	0	0	0	0	0	0	0	0	0	0	0
071019	12:16:05	12:21:34	328065	5.0.10.0	5_exp_RW	37	Rpleas_acq	CS_A	JQQJ	YFFY	LWWL	DXXD	ZHHZ	CPPC	küssen	sonnig	gütig	träumen	vertrauen	genießen	krank	sterben	gierig	töten	versagen	gemein	1	acq_USpleas_CSpleas1_RW	acq4567_RW	4	33	400	0	300	300	513	50	0	1	1	blank2r.bmp	0	1	+	0	1	blank2r.bmp	492	1	JQQJ	492	1	blank2r.bmp	572	1	küssen	866	1	!	1239	1	!	-1	0	0	0	0	0	0	0	0	0	0	0	0	0	0	0	0	0	0	0	0	0	0	0	0	0	0	0	0	0	0
071019	12:16:05	12:21:36	330304	5.0.10.0	5_exp_RW	37	Rpleas_acq	CS_A	JQQJ	YFFY	LWWL	DXXD	ZHHZ	CPPC	küssen	sonnig	gütig	träumen	vertrauen	genießen	krank	sterben	gierig	töten	versagen	gemein	1	acq_USpleas_CSpleas2_RW	acq4567_RW	4	34	400	1	300	300	434	50	0	1	1	blank2r.bmp	0	1	+	0	1	blank2r.bmp	492	1	YFFY	492	1	blank2r.bmp	572	1	träumen	866	1	!	1239	1	!	1332	0	0	0	0	0	0	0	0	0	0	0	0	0	0	0	0	0	0	0	0	0	0	0	0	0	0	0	0	0	0
071019	12:16:05	12:21:38	332370	5.0.10.0	5_exp_RW	37	Rpleas_acq	CS_A	JQQJ	YFFY	LWWL	DXXD	ZHHZ	CPPC	küssen	sonnig	gütig	träumen	vertrauen	genießen	krank	sterben	gierig	töten	versagen	gemein	1	acq_USpleas_CSpleas2_RW	acq4567_RW	4	35	400	0	300	300	297	50	0	1	1	blank2r.bmp	0	1	+	0	1	blank2r.bmp	492	1	YFFY	492	1	blank2r.bmp	572	1	träumen	866	1	!	-1	1	!	-1	0	0	0	0	0	0	0	0	0	0	0	0	0	0	0	0	0	0	0	0	0	0	0	0	0	0	0	0	0	0
071019	12:16:05	12:21:40	334582	5.0.10.0	5_exp_RW	37	Rpleas_acq	CS_A	JQQJ	YFFY	LWWL	DXXD	ZHHZ	CPPC	küssen	sonnig	gütig	träumen	vertrauen	genießen	krank	sterben	gierig	töten	versagen	gemein	1	acq_USunple_CSunple2_RW	acq4567_RW	4	36	400	1	300	300	410	46	0	1	1	blank2r.bmp	0	1	+	0	1	blank2r.bmp	492	1	DXXD	492	1	blank2r.bmp	572	2	versagen	866	1	!	1239	1	!	1306	0	0	0	0	0	0	0	0	0	0	0	0	0	0	0	0	0	0	0	0	0	0	0	0	0	0	0	0	0	0
071019	12:16:05	12:21:42	336648	5.0.10.0	5_exp_RW	37	Rpleas_acq	CS_A	JQQJ	YFFY	LWWL	DXXD	ZHHZ	CPPC	küssen	sonnig	gütig	träumen	vertrauen	genießen	krank	sterben	gierig	töten	versagen	gemein	1	acq_USpleas_CSpleas1_RW	acq4567_RW	4	37	400	0	300	300	304	46	0	0	1	blank2r.bmp	0	1	+	0	1	blank2r.bmp	492	1	JQQJ	492	1	blank2r.bmp	572	3	gütig	866	1	!	-1	1	!	-1	0	0	0	0	0	0	0	0	0	0	0	0	0	0	0	0	0	0	0	0	0	0	0	0	0	0	0	0	0	0
071019	12:16:05	12:21:45	338927	5.0.10.0	5_exp_RW	37	Rpleas_acq	CS_A	JQQJ	YFFY	LWWL	DXXD	ZHHZ	CPPC	küssen	sonnig	gütig	träumen	vertrauen	genießen	krank	sterben	gierig	töten	versagen	gemein	1	acq_USpleas_CSpleas2_RW	acq4567_RW	4	38	400	0	300	300	479	46	0	0	1	blank2r.bmp	0	1	+	0	1	blank2r.bmp	492	1	YFFY	492	1	blank2r.bmp	572	3	genießen	866	1	!	1239	1	!	-1	0	0	0	0	0	0	0	0	0	0	0	0	0	0	0	0	0	0	0	0	0	0	0	0	0	0	0	0	0	0
071019	12:16:05	12:21:47	341020	5.0.10.0	5_exp_RW	37	Rpleas_acq	CS_A	JQQJ	YFFY	LWWL	DXXD	ZHHZ	CPPC	küssen	sonnig	gütig	träumen	vertrauen	genießen	krank	sterben	gierig	töten	versagen	gemein	1	acq_USunple_CSunple1_RW	acq4567_RW	4	39	400	0	300	300	304	46	0	1	1	blank2r.bmp	0	1	+	0	1	blank2r.bmp	492	1	LWWL	492	1	blank2r.bmp	572	1	krank	866	1	!	-1	1	!	-1	0	0	0	0	0	0	0	0	0	0	0	0	0	0	0	0	0	0	0	0	0	0	0	0	0	0	0	0	0	0
071019	12:16:05	12:21:49	343379	5.0.10.0	5_exp_RW	37	Rpleas_acq	CS_A	JQQJ	YFFY	LWWL	DXXD	ZHHZ	CPPC	küssen	sonnig	gütig	träumen	vertrauen	genießen	krank	sterben	gierig	töten	versagen	gemein	1	acq_USunple_CSunple1_RW	acq4567_RW	4	40	400	0	300	300	576	46	0	1	1	blank2r.bmp	0	1	+	0	1	blank2r.bmp	492	1	LWWL	492	1	blank2r.bmp	572	2	sterben	866	1	!	1239	1	!	-1	0	0	0	0	0	0	0	0	0	0	0	0	0	0	0	0	0	0	0	0	0	0	0	0	0	0	0	0	0	0
071019	12:16:05	12:21:51	345538	5.0.10.0	5_exp_RW	37	Rpleas_acq	CS_A	JQQJ	YFFY	LWWL	DXXD	ZHHZ	CPPC	küssen	sonnig	gütig	träumen	vertrauen	genießen	krank	sterben	gierig	töten	versagen	gemein	1	acq_USunple_CSunple1_RW	acq4567_RW	4	41	400	1	300	300	353	46	0	1	1	blank2r.bmp	0	1	+	0	1	blank2r.bmp	492	1	LWWL	492	1	blank2r.bmp	572	3	gierig	866	1	!	1239	1	!	1252	0	0	0	0	0	0	0	0	0	0	0	0	0	0	0	0	0	0	0	0	0	0	0	0	0	0	0	0	0	0
071019	12:16:05	12:21:53	347697	5.0.10.0	5_exp_RW	37	Rpleas_acq	CS_A	JQQJ	YFFY	LWWL	DXXD	ZHHZ	CPPC	küssen	sonnig	gütig	träumen	vertrauen	genießen	krank	sterben	gierig	töten	versagen	gemein	1	acq_USpleas_CSpleas1_RW	acq4567_RW	4	42	400	1	300	300	346	50	0	1	1	blank2r.bmp	0	1	+	0	1	blank2r.bmp	492	1	JQQJ	492	1	blank2r.bmp	572	2	sonnig	866	1	!	1239	1	!	1252	0	0	0	0	0	0	0	0	0	0	0	0	0	0	0	0	0	0	0	0	0	0	0	0	0	0	0	0	0	0
071019	12:16:05	12:21:56	349963	5.0.10.0	5_exp_RW	37	Rpleas_acq	CS_A	JQQJ	YFFY	LWWL	DXXD	ZHHZ	CPPC	küssen	sonnig	gütig	träumen	vertrauen	genießen	krank	sterben	gierig	töten	versagen	gemein	1	acq_USpleas_CSpleas2_RW	acq4567_RW	4	43	400	0	300	300	493	50	0	1	1	blank2r.bmp	0	1	+	0	1	blank2r.bmp	492	1	YFFY	492	1	blank2r.bmp	572	2	vertrauen	866	1	!	1239	1	!	-1	0	0	0	0	0	0	0	0	0	0	0	0	0	0	0	0	0	0	0	0	0	0	0	0	0	0	0	0	0	0
071019	12:16:05	12:21:58	352442	5.0.10.0	5_exp_RW	37	Rpleas_acq	CS_A	JQQJ	YFFY	LWWL	DXXD	ZHHZ	CPPC	küssen	sonnig	gütig	träumen	vertrauen	genießen	krank	sterben	gierig	töten	versagen	gemein	1	acq_USunple_CSunple1_RW	acq4567_RW	4	44	400	0	300	300	701	50	0	0	1	blank2r.bmp	0	1	+	0	1	blank2r.bmp	492	1	LWWL	492	1	blank2r.bmp	572	3	gierig	866	1	!	1239	1	!	-1	0	0	0	0	0	0	0	0	0	0	0	0	0	0	0	0	0	0	0	0	0	0	0	0	0	0	0	0	0	0
071019	12:16:05	12:22:01	354974	5.0.10.0	5_exp_RW	37	Rpleas_acq	CS_A	JQQJ	YFFY	LWWL	DXXD	ZHHZ	CPPC	küssen	sonnig	gütig	träumen	vertrauen	genießen	krank	sterben	gierig	töten	versagen	gemein	1	acq_USpleas_CSpleas2_RW	acq4567_RW	4	45	400	0	300	300	747	50	0	1	1	blank2r.bmp	0	1	+	0	1	blank2r.bmp	492	1	YFFY	492	1	blank2r.bmp	572	1	träumen	866	1	!	1239	1	!	-1	0	0	0	0	0	0	0	0	0	0	0	0	0	0	0	0	0	0	0	0	0	0	0	0	0	0	0	0	0	0
071019	12:16:05	12:22:03	357200	5.0.10.0	5_exp_RW	37	Rpleas_acq	CS_A	JQQJ	YFFY	LWWL	DXXD	ZHHZ	CPPC	küssen	sonnig	gütig	träumen	vertrauen	genießen	krank	sterben	gierig	töten	versagen	gemein	1	acq_USpleas_CSpleas1_RW	acq4567_RW	4	46	400	1	300	300	412	50	0	1	1	blank2r.bmp	0	1	+	0	1	blank2r.bmp	492	1	JQQJ	492	1	blank2r.bmp	572	1	küssen	866	1	!	1239	1	!	1319	0	0	0	0	0	0	0	0	0	0	0	0	0	0	0	0	0	0	0	0	0	0	0	0	0	0	0	0	0	0
071019	12:16:05	12:22:05	359412	5.0.10.0	5_exp_RW	37	Rpleas_acq	CS_A	JQQJ	YFFY	LWWL	DXXD	ZHHZ	CPPC	küssen	sonnig	gütig	träumen	vertrauen	genießen	krank	sterben	gierig	töten	versagen	gemein	1	acq_USunple_CSunple1_RW	acq4567_RW	4	47	400	1	300	300	414	46	0	1	1	blank2r.bmp	0	1	+	0	1	blank2r.bmp	492	1	LWWL	492	1	blank2r.bmp	572	1	krank	866	1	!	1239	1	!	1319	0	0	0	0	0	0	0	0	0	0	0	0	0	0	0	0	0	0	0	0	0	0	0	0	0	0	0	0	0	0
071019	12:16:05	12:22:07	361665	5.0.10.0	5_exp_RW	37	Rpleas_acq	CS_A	JQQJ	YFFY	LWWL	DXXD	ZHHZ	CPPC	küssen	sonnig	gütig	träumen	vertrauen	genießen	krank	sterben	gierig	töten	versagen	gemein	1	acq_USpleas_CSpleas2_RW	acq4567_RW	4	48	400	0	300	300	487	50	0	1	1	blank2r.bmp	0	1	+	0	1	blank2r.bmp	492	1	YFFY	492	1	blank2r.bmp	572	2	vertrauen	866	1	!	1239	1	!	-1	0	0	0	0	0	0	0	0	0	0	0	0	0	0	0	0	0	0	0	0	0	0	0	0	0	0	0	0	0	0
071019	12:16:05	12:22:09	363850	5.0.10.0	5_exp_RW	37	Rpleas_acq	CS_A	JQQJ	YFFY	LWWL	DXXD	ZHHZ	CPPC	küssen	sonnig	gütig	träumen	vertrauen	genießen	krank	sterben	gierig	töten	versagen	gemein	1	acq_USpleas_CSpleas2_RW	acq4567_RW	4	49	400	1	300	300	379	50	0	1	1	blank2r.bmp	0	1	+	0	1	blank2r.bmp	492	1	YFFY	492	1	blank2r.bmp	572	3	genießen	866	1	!	1239	1	!	1279	0	0	0	0	0	0	0	0	0	0	0	0	0	0	0	0	0	0	0	0	0	0	0	0	0	0	0	0	0	0
071019	12:16:05	12:22:12	366036	5.0.10.0	5_exp_RW	37	Rpleas_acq	CS_A	JQQJ	YFFY	LWWL	DXXD	ZHHZ	CPPC	küssen	sonnig	gütig	träumen	vertrauen	genießen	krank	sterben	gierig	töten	versagen	gemein	1	acq_USunple_CSunple2_RW	acq4567_RW	4	50	400	1	300	300	395	46	0	1	1	blank2r.bmp	0	1	+	0	1	blank2r.bmp	492	1	DXXD	492	1	blank2r.bmp	572	1	töten	866	1	!	1239	1	!	1292	0	0	0	0	0	0	0	0	0	0	0	0	0	0	0	0	0	0	0	0	0	0	0	0	0	0	0	0	0	0
071019	12:16:05	12:22:14	368142	5.0.10.0	5_exp_RW	37	Rpleas_acq	CS_A	JQQJ	YFFY	LWWL	DXXD	ZHHZ	CPPC	küssen	sonnig	gütig	träumen	vertrauen	genießen	krank	sterben	gierig	töten	versagen	gemein	1	acq_USpleas_CSpleas2_RW	acq4567_RW	4	51	400	0	300	300	326	46	0	0	1	blank2r.bmp	0	1	+	0	1	blank2r.bmp	492	1	YFFY	492	1	blank2r.bmp	572	2	vertrauen	866	1	!	-1	1	!	-1	0	0	0	0	0	0	0	0	0	0	0	0	0	0	0	0	0	0	0	0	0	0	0	0	0	0	0	0	0	0
071019	12:16:05	12:22:16	370408	5.0.10.0	5_exp_RW	37	Rpleas_acq	CS_A	JQQJ	YFFY	LWWL	DXXD	ZHHZ	CPPC	küssen	sonnig	gütig	träumen	vertrauen	genießen	krank	sterben	gierig	töten	versagen	gemein	1	acq_USpleas_CSpleas1_RW	acq4567_RW	4	52	400	1	300	300	459	50	0	1	1	blank2r.bmp	0	1	+	0	1	blank2r.bmp	492	1	JQQJ	492	1	blank2r.bmp	572	3	gütig	866	1	!	1239	1	!	1359	0	0	0	0	0	0	0	0	0	0	0	0	0	0	0	0	0	0	0	0	0	0	0	0	0	0	0	0	0	0
071019	12:16:05	12:22:18	372567	5.0.10.0	5_exp_RW	37	Rpleas_acq	CS_A	JQQJ	YFFY	LWWL	DXXD	ZHHZ	CPPC	küssen	sonnig	gütig	träumen	vertrauen	genießen	krank	sterben	gierig	töten	versagen	gemein	1	acq_USunple_CSunple2_RW	acq4567_RW	4	53	400	1	300	300	363	46	0	1	1	blank2r.bmp	0	1	+	0	1	blank2r.bmp	492	1	DXXD	492	1	blank2r.bmp	572	1	töten	866	1	!	1239	1	!	1266	0	0	0	0	0	0	0	0	0	0	0	0	0	0	0	0	0	0	0	0	0	0	0	0	0	0	0	0	0	0
071019	12:16:05	12:22:20	374646	5.0.10.0	5_exp_RW	37	Rpleas_acq	CS_A	JQQJ	YFFY	LWWL	DXXD	ZHHZ	CPPC	küssen	sonnig	gütig	träumen	vertrauen	genießen	krank	sterben	gierig	töten	versagen	gemein	1	acq_USpleas_CSpleas1_RW	acq4567_RW	4	54	400	0	300	300	317	50	0	1	1	blank2r.bmp	0	1	+	0	1	blank2r.bmp	492	1	JQQJ	492	1	blank2r.bmp	572	2	sonnig	866	1	!	-1	1	!	-1	0	0	0	0	0	0	0	0	0	0	0	0	0	0	0	0	0	0	0	0	0	0	0	0	0	0	0	0	0	0
071019	12:16:05	12:22:22	376832	5.0.10.0	5_exp_RW	37	Rpleas_acq	CS_A	JQQJ	YFFY	LWWL	DXXD	ZHHZ	CPPC	küssen	sonnig	gütig	träumen	vertrauen	genießen	krank	sterben	gierig	töten	versagen	gemein	1	acq_USpleas_CSpleas1_RW	acq4567_RW	4	55	400	1	300	300	384	50	0	1	1	blank2r.bmp	0	1	+	0	1	blank2r.bmp	492	1	JQQJ	492	1	blank2r.bmp	572	2	sonnig	866	1	!	1239	1	!	1279	0	0	0	0	0	0	0	0	0	0	0	0	0	0	0	0	0	0	0	0	0	0	0	0	0	0	0	0	0	0
071019	12:16:05	12:22:25	379164	5.0.10.0	5_exp_RW	37	Rpleas_acq	CS_A	JQQJ	YFFY	LWWL	DXXD	ZHHZ	CPPC	küssen	sonnig	gütig	träumen	vertrauen	genießen	krank	sterben	gierig	töten	versagen	gemein	1	acq_USunple_CSunple2_RW	acq4567_RW	4	56	400	0	300	300	556	46	0	1	1	blank2r.bmp	0	1	+	0	1	blank2r.bmp	492	1	DXXD	492	1	blank2r.bmp	572	3	gemein	866	1	!	1239	1	!	-1	0	0	0	0	0	0	0	0	0	0	0	0	0	0	0	0	0	0	0	0	0	0	0	0	0	0	0	0	0	0
071019	12:16:05	12:22:27	381430	5.0.10.0	5_exp_RW	37	Rpleas_acq	CS_A	JQQJ	YFFY	LWWL	DXXD	ZHHZ	CPPC	küssen	sonnig	gütig	träumen	vertrauen	genießen	krank	sterben	gierig	töten	versagen	gemein	1	acq_USunple_CSunple1_RW	acq4567_RW	4	57	400	0	300	300	484	46	0	1	1	blank2r.bmp	0	1	+	0	1	blank2r.bmp	492	1	LWWL	492	1	blank2r.bmp	572	2	sterben	866	1	!	1239	1	!	-1	0	0	0	0	0	0	0	0	0	0	0	0	0	0	0	0	0	0	0	0	0	0	0	0	0	0	0	0	0	0
071019	12:16:05	12:22:29	383762	5.0.10.0	5_exp_RW	37	Rpleas_acq	CS_A	JQQJ	YFFY	LWWL	DXXD	ZHHZ	CPPC	küssen	sonnig	gütig	träumen	vertrauen	genießen	krank	sterben	gierig	töten	versagen	gemein	1	acq_USunple_CSunple2_RW	acq4567_RW	4	58	400	0	300	300	555	46	0	1	1	blank2r.bmp	0	1	+	0	1	blank2r.bmp	492	1	DXXD	492	1	blank2r.bmp	572	2	versagen	866	1	!	1239	1	!	-1	0	0	0	0	0	0	0	0	0	0	0	0	0	0	0	0	0	0	0	0	0	0	0	0	0	0	0	0	0	0
071019	12:16:05	12:22:31	385841	5.0.10.0	5_exp_RW	37	Rpleas_acq	CS_A	JQQJ	YFFY	LWWL	DXXD	ZHHZ	CPPC	küssen	sonnig	gütig	träumen	vertrauen	genießen	krank	sterben	gierig	töten	versagen	gemein	1	acq_USunple_CSunple1_RW	acq4567_RW	4	59	400	0	300	300	305	46	0	1	1	blank2r.bmp	0	1	+	0	1	blank2r.bmp	492	1	LWWL	492	1	blank2r.bmp	572	2	sterben	866	1	!	-1	1	!	-1	0	0	0	0	0	0	0	0	0	0	0	0	0	0	0	0	0	0	0	0	0	0	0	0	0	0	0	0	0	0
071019	12:16:05	12:22:34	388041	5.0.10.0	5_exp_RW	37	Rpleas_acq	CS_A	JQQJ	YFFY	LWWL	DXXD	ZHHZ	CPPC	küssen	sonnig	gütig	träumen	vertrauen	genießen	krank	sterben	gierig	töten	versagen	gemein	1	acq_USunple_CSunple2_RW	acq4567_RW	4	60	400	1	300	300	396	46	0	1	1	blank2r.bmp	0	1	+	0	1	blank2r.bmp	492	1	DXXD	492	1	blank2r.bmp	572	3	gemein	866	1	!	1239	1	!	1292	0	0	0	0	0	0	0	0	0	0	0	0	0	0	0	0	0	0	0	0	0	0	0	0	0	0	0	0	0	0
071019	12:16:05	12:22:36	390146	5.0.10.0	5_exp_RW	37	Rpleas_acq	CS_A	JQQJ	YFFY	LWWL	DXXD	ZHHZ	CPPC	küssen	sonnig	gütig	träumen	vertrauen	genießen	krank	sterben	gierig	töten	versagen	gemein	1	acq_USpleas_CSpleas2_RW	acq4567_RW	4	61	400	0	300	300	333	50	0	1	1	blank2r.bmp	0	1	+	0	1	blank2r.bmp	492	1	YFFY	492	1	blank2r.bmp	572	1	träumen	866	1	!	-1	1	!	-1	0	0	0	0	0	0	0	0	0	0	0	0	0	0	0	0	0	0	0	0	0	0	0	0	0	0	0	0	0	0
071019	12:16:05	12:22:38	392359	5.0.10.0	5_exp_RW	37	Rpleas_acq	CS_A	JQQJ	YFFY	LWWL	DXXD	ZHHZ	CPPC	küssen	sonnig	gütig	träumen	vertrauen	genießen	krank	sterben	gierig	töten	versagen	gemein	1	acq_USpleas_CSpleas2_RW	acq4567_RW	4	62	400	1	300	300	399	50	0	1	1	blank2r.bmp	0	1	+	0	1	blank2r.bmp	492	1	YFFY	492	1	blank2r.bmp	572	3	genießen	866	1	!	1239	1	!	1306	0	0	0	0	0	0	0	0	0	0	0	0	0	0	0	0	0	0	0	0	0	0	0	0	0	0	0	0	0	0
071019	12:16:05	12:22:40	394505	5.0.10.0	5_exp_RW	37	Rpleas_acq	CS_A	JQQJ	YFFY	LWWL	DXXD	ZHHZ	CPPC	küssen	sonnig	gütig	träumen	vertrauen	genießen	krank	sterben	gierig	töten	versagen	gemein	1	acq_USunple_CSunple2_RW	acq4567_RW	4	63	400	1	300	300	351	46	0	1	1	blank2r.bmp	0	1	+	0	1	blank2r.bmp	492	1	DXXD	492	1	blank2r.bmp	572	2	versagen	866	1	!	1239	1	!	1252	0	0	0	0	0	0	0	0	0	0	0	0	0	0	0	0	0	0	0	0	0	0	0	0	0	0	0	0	0	0
071019	12:16:05	12:22:42	396517	5.0.10.0	5_exp_RW	37	Rpleas_acq	CS_A	JQQJ	YFFY	LWWL	DXXD	ZHHZ	CPPC	küssen	sonnig	gütig	träumen	vertrauen	genießen	krank	sterben	gierig	töten	versagen	gemein	1	acq_USpleas_CSpleas1_RW	acq4567_RW	4	64	400	0	300	300	244	50	0	1	1	blank2r.bmp	0	1	+	0	1	blank2r.bmp	492	1	JQQJ	492	1	blank2r.bmp	572	1	küssen	866	1	!	-1	1	!	-1	0	0	0	0	0	0	0	0	0	0	0	0	0	0	0	0	0	0	0	0	0	0	0	0	0	0	0	0	0	0
071019	12:16:05	12:22:44	398849	5.0.10.0	5_exp_RW	37	Rpleas_acq	CS_A	JQQJ	YFFY	LWWL	DXXD	ZHHZ	CPPC	küssen	sonnig	gütig	träumen	vertrauen	genießen	krank	sterben	gierig	töten	versagen	gemein	1	acq_USpleas_CSpleas1_RW	acq4567_RW	4	65	400	0	300	300	555	50	0	1	1	blank2r.bmp	0	1	+	0	1	blank2r.bmp	492	1	JQQJ	492	1	blank2r.bmp	572	3	gütig	866	1	!	1239	1	!	-1	0	0	0	0	0	0	0	0	0	0	0	0	0	0	0	0	0	0	0	0	0	0	0	0	0	0	0	0	0	0
071019	12:16:05	12:22:47	401248	5.0.10.0	5_exp_RW	37	Rpleas_acq	CS_A	JQQJ	YFFY	LWWL	DXXD	ZHHZ	CPPC	küssen	sonnig	gütig	träumen	vertrauen	genießen	krank	sterben	gierig	töten	versagen	gemein	1	acq_USpleas_CSpleas2_RW	acq4567_RW	4	66	400	0	300	300	618	50	0	1	1	blank2r.bmp	0	1	+	0	1	blank2r.bmp	492	1	YFFY	492	1	blank2r.bmp	572	1	träumen	866	1	!	1239	1	!	-1	0	0	0	0	0	0	0	0	0	0	0	0	0	0	0	0	0	0	0	0	0	0	0	0	0	0	0	0	0	0
071019	12:16:05	12:22:49	403354	5.0.10.0	5_exp_RW	37	Rpleas_acq	CS_A	JQQJ	YFFY	LWWL	DXXD	ZHHZ	CPPC	küssen	sonnig	gütig	träumen	vertrauen	genießen	krank	sterben	gierig	töten	versagen	gemein	1	acq_USunple_CSunple1_RW	acq4567_RW	4	67	400	0	300	300	310	46	0	1	1	blank2r.bmp	0	1	+	0	1	blank2r.bmp	492	1	LWWL	492	1	blank2r.bmp	572	3	gierig	866	1	!	-1	1	!	-1	0	0	0	0	0	0	0	0	0	0	0	0	0	0	0	0	0	0	0	0	0	0	0	0	0	0	0	0	0	0
071019	12:16:05	12:22:51	405660	5.0.10.0	5_exp_RW	37	Rpleas_acq	CS_A	JQQJ	YFFY	LWWL	DXXD	ZHHZ	CPPC	küssen	sonnig	gütig	träumen	vertrauen	genießen	krank	sterben	gierig	töten	versagen	gemein	1	acq_USpleas_CSpleas1_RW	acq4567_RW	4	68	400	0	300	300	510	50	0	1	1	blank2r.bmp	0	1	+	0	1	blank2r.bmp	492	1	JQQJ	492	1	blank2r.bmp	572	3	gütig	866	1	!	1239	1	!	-1	0	0	0	0	0	0	0	0	0	0	0	0	0	0	0	0	0	0	0	0	0	0	0	0	0	0	0	0	0	0
071019	12:16:05	12:22:53	407726	5.0.10.0	5_exp_RW	37	Rpleas_acq	CS_A	JQQJ	YFFY	LWWL	DXXD	ZHHZ	CPPC	küssen	sonnig	gütig	träumen	vertrauen	genießen	krank	sterben	gierig	töten	versagen	gemein	1	acq_USpleas_CSpleas2_RW	acq4567_RW	4	69	400	0	300	300	279	46	0	0	1	blank2r.bmp	0	1	+	0	1	blank2r.bmp	492	1	YFFY	492	1	blank2r.bmp	572	2	vertrauen	866	1	!	-1	1	!	-1	0	0	0	0	0	0	0	0	0	0	0	0	0	0	0	0	0	0	0	0	0	0	0	0	0	0	0	0	0	0
071019	12:16:05	12:22:55	409885	5.0.10.0	5_exp_RW	37	Rpleas_acq	CS_A	JQQJ	YFFY	LWWL	DXXD	ZHHZ	CPPC	küssen	sonnig	gütig	träumen	vertrauen	genießen	krank	sterben	gierig	töten	versagen	gemein	1	acq_USunple_CSunple1_RW	acq4567_RW	4	70	400	1	300	300	346	46	0	1	1	blank2r.bmp	0	1	+	0	1	blank2r.bmp	492	1	LWWL	492	1	blank2r.bmp	572	1	krank	866	1	!	1239	1	!	1252	0	0	0	0	0	0	0	0	0	0	0	0	0	0	0	0	0	0	0	0	0	0	0	0	0	0	0	0	0	0
071019	12:16:05	12:22:58	412137	5.0.10.0	5_exp_RW	37	Rpleas_acq	CS_A	JQQJ	YFFY	LWWL	DXXD	ZHHZ	CPPC	küssen	sonnig	gütig	träumen	vertrauen	genießen	krank	sterben	gierig	töten	versagen	gemein	1	acq_USunple_CSunple2_RW	acq4567_RW	4	71	400	1	300	300	456	46	0	1	1	blank2r.bmp	0	1	+	0	1	blank2r.bmp	492	1	DXXD	492	1	blank2r.bmp	572	1	töten	866	1	!	1239	1	!	1359	0	0	0	0	0	0	0	0	0	0	0	0	0	0	0	0	0	0	0	0	0	0	0	0	0	0	0	0	0	0
071019	12:16:05	12:23:00	414190	5.0.10.0	5_exp_RW	37	Rpleas_acq	CS_A	JQQJ	YFFY	LWWL	DXXD	ZHHZ	CPPC	küssen	sonnig	gütig	träumen	vertrauen	genießen	krank	sterben	gierig	töten	versagen	gemein	1	acq_USpleas_CSpleas1_RW	acq4567_RW	4	72	400	0	300	300	287	46	0	0	1	blank2r.bmp	0	1	+	0	1	blank2r.bmp	492	1	JQQJ	492	1	blank2r.bmp	572	2	sonnig	866	1	!	-1	1	!	-1	0	0	0	0	0	0	0	0	0	0	0	0	0	0	0	0	0	0	0	0	0	0	0	0	0	0	0	0	0	0
071019	12:16:05	12:23:02	416362	5.0.10.0	5_exp_RW	37	Rpleas_acq	CS_A	JQQJ	YFFY	LWWL	DXXD	ZHHZ	CPPC	küssen	sonnig	gütig	träumen	vertrauen	genießen	krank	sterben	gierig	töten	versagen	gemein	1	acq_USunple_CSunple2_RW	acq4567_RW	4	73	400	1	300	300	365	46	0	1	1	blank2r.bmp	0	1	+	0	1	blank2r.bmp	492	1	DXXD	492	1	blank2r.bmp	572	2	versagen	866	1	!	1239	1	!	1266	0	0	0	0	0	0	0	0	0	0	0	0	0	0	0	0	0	0	0	0	0	0	0	0	0	0	0	0	0	0
071019	12:16:05	12:23:04	418468	5.0.10.0	5_exp_RW	37	Rpleas_acq	CS_A	JQQJ	YFFY	LWWL	DXXD	ZHHZ	CPPC	küssen	sonnig	gütig	träumen	vertrauen	genießen	krank	sterben	gierig	töten	versagen	gemein	1	acq_USpleas_CSpleas1_RW	acq4567_RW	4	74	400	0	300	300	323	50	0	1	1	blank2r.bmp	0	1	+	0	1	blank2r.bmp	492	1	JQQJ	492	1	blank2r.bmp	572	1	küssen	866	1	!	-1	1	!	-1	0	0	0	0	0	0	0	0	0	0	0	0	0	0	0	0	0	0	0	0	0	0	0	0	0	0	0	0	0	0
071019	12:16:05	12:23:06	420734	5.0.10.0	5_exp_RW	37	Rpleas_acq	CS_A	JQQJ	YFFY	LWWL	DXXD	ZHHZ	CPPC	küssen	sonnig	gütig	träumen	vertrauen	genießen	krank	sterben	gierig	töten	versagen	gemein	1	acq_USunple_CSunple1_RW	acq4567_RW	4	75	400	1	300	300	462	46	0	1	1	blank2r.bmp	0	1	+	0	1	blank2r.bmp	492	1	LWWL	492	1	blank2r.bmp	572	2	sterben	866	1	!	1239	1	!	1359	0	0	0	0	0	0	0	0	0	0	0	0	0	0	0	0	0	0	0	0	0	0	0	0	0	0	0	0	0	0
071019	12:16:05	12:23:08	422813	5.0.10.0	5_exp_RW	37	Rpleas_acq	CS_A	JQQJ	YFFY	LWWL	DXXD	ZHHZ	CPPC	küssen	sonnig	gütig	träumen	vertrauen	genießen	krank	sterben	gierig	töten	versagen	gemein	1	acq_USunple_CSunple2_RW	acq4567_RW	4	76	400	0	300	300	310	46	0	1	1	blank2r.bmp	0	1	+	0	1	blank2r.bmp	492	1	DXXD	492	1	blank2r.bmp	572	1	töten	866	1	!	-1	1	!	-1	0	0	0	0	0	0	0	0	0	0	0	0	0	0	0	0	0	0	0	0	0	0	0	0	0	0	0	0	0	0
071019	12:16:05	12:23:11	425079	5.0.10.0	5_exp_RW	37	Rpleas_acq	CS_A	JQQJ	YFFY	LWWL	DXXD	ZHHZ	CPPC	küssen	sonnig	gütig	träumen	vertrauen	genießen	krank	sterben	gierig	töten	versagen	gemein	1	acq_USunple_CSunple2_RW	acq4567_RW	4	77	400	1	300	300	454	46	0	1	1	blank2r.bmp	0	1	+	0	1	blank2r.bmp	492	1	DXXD	492	1	blank2r.bmp	572	3	gemein	866	1	!	1239	1	!	1359	0	0	0	0	0	0	0	0	0	0	0	0	0	0	0	0	0	0	0	0	0	0	0	0	0	0	0	0	0	0
071019	12:16:05	12:23:13	427331	5.0.10.0	5_exp_RW	37	Rpleas_acq	CS_A	JQQJ	YFFY	LWWL	DXXD	ZHHZ	CPPC	küssen	sonnig	gütig	träumen	vertrauen	genießen	krank	sterben	gierig	töten	versagen	gemein	1	acq_USunple_CSunple1_RW	acq4567_RW	4	78	400	1	300	300	459	46	0	1	1	blank2r.bmp	0	1	+	0	1	blank2r.bmp	492	1	LWWL	492	1	blank2r.bmp	572	3	gierig	866	1	!	1239	1	!	1359	0	0	0	0	0	0	0	0	0	0	0	0	0	0	0	0	0	0	0	0	0	0	0	0	0	0	0	0	0	0
071019	12:16:05	12:23:15	429584	5.0.10.0	5_exp_RW	37	Rpleas_acq	CS_A	JQQJ	YFFY	LWWL	DXXD	ZHHZ	CPPC	küssen	sonnig	gütig	träumen	vertrauen	genießen	krank	sterben	gierig	töten	versagen	gemein	1	acq_USunple_CSunple1_RW	acq4567_RW	4	79	400	0	300	300	486	46	0	1	1	blank2r.bmp	0	1	+	0	1	blank2r.bmp	492	1	LWWL	492	1	blank2r.bmp	572	1	krank	866	1	!	1239	1	!	-1	0	0	0	0	0	0	0	0	0	0	0	0	0	0	0	0	0	0	0	0	0	0	0	0	0	0	0	0	0	0
071019	12:16:05	12:23:17	431849	5.0.10.0	5_exp_RW	37	Rpleas_acq	CS_A	JQQJ	YFFY	LWWL	DXXD	ZHHZ	CPPC	küssen	sonnig	gütig	träumen	vertrauen	genießen	krank	sterben	gierig	töten	versagen	gemein	1	acq_USpleas_CSpleas2_RW	acq4567_RW	4	80	400	0	300	300	479	50	0	1	1	blank2r.bmp	0	1	+	0	1	blank2r.bmp	492	1	YFFY	492	1	blank2r.bmp	572	3	genießen	866	1	!	1239	1	!	-1	0	0	0	0	0	0	0	0	0	0	0	0	0	0	0	0	0	0	0	0	0	0	0	0	0	0	0	0	0	0
071019	12:16:05	12:23:31	445524	5.0.10.0	5_exp_RW	37	Rpleas_acq	CS_A	JQQJ	YFFY	LWWL	DXXD	ZHHZ	CPPC	küssen	sonnig	gütig	träumen	vertrauen	genießen	krank	sterben	gierig	töten	versagen	gemein	1	acq_USpleas_CSpleas1_RW	acq4567_RW	5	1	400	1	300	300	346	50	0	1	1	blank2r.bmp	0	1	+	0	1	blank2r.bmp	492	1	JQQJ	492	1	blank2r.bmp	572	1	küssen	866	1	!	1239	1	!	1252	0	0	0	0	0	0	0	0	0	0	0	0	0	0	0	0	0	0	0	0	0	0	0	0	0	0	0	0	0	0
071019	12:16:05	12:23:33	447550	5.0.10.0	5_exp_RW	37	Rpleas_acq	CS_A	JQQJ	YFFY	LWWL	DXXD	ZHHZ	CPPC	küssen	sonnig	gütig	träumen	vertrauen	genießen	krank	sterben	gierig	töten	versagen	gemein	1	acq_USpleas_CSpleas2_RW	acq4567_RW	5	2	400	0	300	300	261	50	0	1	1	blank2r.bmp	0	1	+	0	1	blank2r.bmp	492	1	YFFY	492	1	blank2r.bmp	572	1	träumen	866	1	!	-1	1	!	-1	0	0	0	0	0	0	0	0	0	0	0	0	0	0	0	0	0	0	0	0	0	0	0	0	0	0	0	0	0	0
071019	12:16:05	12:23:35	449829	5.0.10.0	5_exp_RW	37	Rpleas_acq	CS_A	JQQJ	YFFY	LWWL	DXXD	ZHHZ	CPPC	küssen	sonnig	gütig	träumen	vertrauen	genießen	krank	sterben	gierig	töten	versagen	gemein	1	acq_USpleas_CSpleas1_RW	acq4567_RW	5	3	400	0	300	300	480	50	0	1	1	blank2r.bmp	0	1	+	0	1	blank2r.bmp	492	1	JQQJ	492	1	blank2r.bmp	572	3	gütig	866	1	!	1239	1	!	-1	0	0	0	0	0	0	0	0	0	0	0	0	0	0	0	0	0	0	0	0	0	0	0	0	0	0	0	0	0	0
071019	12:16:05	12:23:37	451894	5.0.10.0	5_exp_RW	37	Rpleas_acq	CS_A	JQQJ	YFFY	LWWL	DXXD	ZHHZ	CPPC	küssen	sonnig	gütig	träumen	vertrauen	genießen	krank	sterben	gierig	töten	versagen	gemein	1	acq_USpleas_CSpleas1_RW	acq4567_RW	5	4	400	0	300	300	290	50	0	1	1	blank2r.bmp	0	1	+	0	1	blank2r.bmp	492	1	JQQJ	492	1	blank2r.bmp	572	2	sonnig	866	1	!	-1	1	!	-1	0	0	0	0	0	0	0	0	0	0	0	0	0	0	0	0	0	0	0	0	0	0	0	0	0	0	0	0	0	0
071019	12:16:05	12:23:40	454307	5.0.10.0	5_exp_RW	37	Rpleas_acq	CS_A	JQQJ	YFFY	LWWL	DXXD	ZHHZ	CPPC	küssen	sonnig	gütig	träumen	vertrauen	genießen	krank	sterben	gierig	töten	versagen	gemein	1	acq_USpleas_CSpleas2_RW	acq4567_RW	5	5	400	0	300	300	627	50	0	1	1	blank2r.bmp	0	1	+	0	1	blank2r.bmp	492	1	YFFY	492	1	blank2r.bmp	572	2	vertrauen	866	1	!	1239	1	!	-1	0	0	0	0	0	0	0	0	0	0	0	0	0	0	0	0	0	0	0	0	0	0	0	0	0	0	0	0	0	0
071019	12:16:05	12:23:42	456519	5.0.10.0	5_exp_RW	37	Rpleas_acq	CS_A	JQQJ	YFFY	LWWL	DXXD	ZHHZ	CPPC	küssen	sonnig	gütig	träumen	vertrauen	genießen	krank	sterben	gierig	töten	versagen	gemein	1	acq_USunple_CSunple1_RW	acq4567_RW	5	6	400	1	300	300	406	46	0	1	1	blank2r.bmp	0	1	+	0	1	blank2r.bmp	492	1	LWWL	492	1	blank2r.bmp	572	1	krank	866	1	!	1239	1	!	1306	0	0	0	0	0	0	0	0	0	0	0	0	0	0	0	0	0	0	0	0	0	0	0	0	0	0	0	0	0	0
071019	12:16:05	12:23:44	458545	5.0.10.0	5_exp_RW	37	Rpleas_acq	CS_A	JQQJ	YFFY	LWWL	DXXD	ZHHZ	CPPC	küssen	sonnig	gütig	träumen	vertrauen	genießen	krank	sterben	gierig	töten	versagen	gemein	1	acq_USunple_CSunple1_RW	acq4567_RW	5	7	400	0	300	300	262	46	0	1	1	blank2r.bmp	0	1	+	0	1	blank2r.bmp	492	1	LWWL	492	1	blank2r.bmp	572	2	sterben	866	1	!	-1	1	!	-1	0	0	0	0	0	0	0	0	0	0	0	0	0	0	0	0	0	0	0	0	0	0	0	0	0	0	0	0	0	0
071019	12:16:05	12:23:46	460811	5.0.10.0	5_exp_RW	37	Rpleas_acq	CS_A	JQQJ	YFFY	LWWL	DXXD	ZHHZ	CPPC	küssen	sonnig	gütig	träumen	vertrauen	genießen	krank	sterben	gierig	töten	versagen	gemein	1	acq_USpleas_CSpleas1_RW	acq4567_RW	5	8	400	1	300	300	448	50	0	1	1	blank2r.bmp	0	1	+	0	1	blank2r.bmp	492	1	JQQJ	492	1	blank2r.bmp	572	2	sonnig	866	1	!	1239	1	!	1346	0	0	0	0	0	0	0	0	0	0	0	0	0	0	0	0	0	0	0	0	0	0	0	0	0	0	0	0	0	0
071019	12:16:05	12:23:49	463196	5.0.10.0	5_exp_RW	37	Rpleas_acq	CS_A	JQQJ	YFFY	LWWL	DXXD	ZHHZ	CPPC	küssen	sonnig	gütig	träumen	vertrauen	genießen	krank	sterben	gierig	töten	versagen	gemein	1	acq_USpleas_CSpleas2_RW	acq4567_RW	5	9	400	0	300	300	616	50	0	1	1	blank2r.bmp	0	1	+	0	1	blank2r.bmp	492	1	YFFY	492	1	blank2r.bmp	572	3	genießen	866	1	!	1239	1	!	-1	0	0	0	0	0	0	0	0	0	0	0	0	0	0	0	0	0	0	0	0	0	0	0	0	0	0	0	0	0	0
071019	12:16:05	12:23:51	465409	5.0.10.0	5_exp_RW	37	Rpleas_acq	CS_A	JQQJ	YFFY	LWWL	DXXD	ZHHZ	CPPC	küssen	sonnig	gütig	träumen	vertrauen	genießen	krank	sterben	gierig	töten	versagen	gemein	1	acq_USunple_CSunple1_RW	acq4567_RW	5	10	400	1	300	300	405	46	0	1	1	blank2r.bmp	0	1	+	0	1	blank2r.bmp	492	1	LWWL	492	1	blank2r.bmp	572	3	gierig	866	1	!	1239	1	!	1306	0	0	0	0	0	0	0	0	0	0	0	0	0	0	0	0	0	0	0	0	0	0	0	0	0	0	0	0	0	0
071019	12:16:05	12:23:53	467715	5.0.10.0	5_exp_RW	37	Rpleas_acq	CS_A	JQQJ	YFFY	LWWL	DXXD	ZHHZ	CPPC	küssen	sonnig	gütig	träumen	vertrauen	genießen	krank	sterben	gierig	töten	versagen	gemein	1	acq_USpleas_CSpleas2_RW	acq4567_RW	5	11	400	0	300	300	519	50	0	1	1	blank2r.bmp	0	1	+	0	1	blank2r.bmp	492	1	YFFY	492	1	blank2r.bmp	572	2	vertrauen	866	1	!	1239	1	!	-1	0	0	0	0	0	0	0	0	0	0	0	0	0	0	0	0	0	0	0	0	0	0	0	0	0	0	0	0	0	0
071019	12:16:05	12:23:56	470060	5.0.10.0	5_exp_RW	37	Rpleas_acq	CS_A	JQQJ	YFFY	LWWL	DXXD	ZHHZ	CPPC	küssen	sonnig	gütig	träumen	vertrauen	genießen	krank	sterben	gierig	töten	versagen	gemein	1	acq_USpleas_CSpleas2_RW	acq4567_RW	5	12	400	0	300	300	563	50	0	1	1	blank2r.bmp	0	1	+	0	1	blank2r.bmp	492	1	YFFY	492	1	blank2r.bmp	572	3	genießen	866	1	!	1239	1	!	-1	0	0	0	0	0	0	0	0	0	0	0	0	0	0	0	0	0	0	0	0	0	0	0	0	0	0	0	0	0	0
071019	12:16:05	12:23:58	472339	5.0.10.0	5_exp_RW	37	Rpleas_acq	CS_A	JQQJ	YFFY	LWWL	DXXD	ZHHZ	CPPC	küssen	sonnig	gütig	träumen	vertrauen	genießen	krank	sterben	gierig	töten	versagen	gemein	1	acq_USunple_CSunple2_RW	acq4567_RW	5	13	400	0	300	300	494	46	0	1	1	blank2r.bmp	0	1	+	0	1	blank2r.bmp	492	1	DXXD	492	1	blank2r.bmp	572	3	gemein	866	1	!	1239	1	!	-1	0	0	0	0	0	0	0	0	0	0	0	0	0	0	0	0	0	0	0	0	0	0	0	0	0	0	0	0	0	0
071019	12:16:05	12:24:00	474698	5.0.10.0	5_exp_RW	37	Rpleas_acq	CS_A	JQQJ	YFFY	LWWL	DXXD	ZHHZ	CPPC	küssen	sonnig	gütig	träumen	vertrauen	genießen	krank	sterben	gierig	töten	versagen	gemein	1	acq_USunple_CSunple2_RW	acq4567_RW	5	14	400	0	300	300	575	46	0	1	1	blank2r.bmp	0	1	+	0	1	blank2r.bmp	492	1	DXXD	492	1	blank2r.bmp	572	2	versagen	866	1	!	1239	1	!	-1	0	0	0	0	0	0	0	0	0	0	0	0	0	0	0	0	0	0	0	0	0	0	0	0	0	0	0	0	0	0
071019	12:16:05	12:24:03	476938	5.0.10.0	5_exp_RW	37	Rpleas_acq	CS_A	JQQJ	YFFY	LWWL	DXXD	ZHHZ	CPPC	küssen	sonnig	gütig	träumen	vertrauen	genießen	krank	sterben	gierig	töten	versagen	gemein	1	acq_USpleas_CSpleas1_RW	acq4567_RW	5	15	400	1	300	300	433	50	0	1	1	blank2r.bmp	0	1	+	0	1	blank2r.bmp	492	1	JQQJ	492	1	blank2r.bmp	572	3	gütig	866	1	!	1239	1	!	1332	0	0	0	0	0	0	0	0	0	0	0	0	0	0	0	0	0	0	0	0	0	0	0	0	0	0	0	0	0	0
071019	12:16:05	12:24:05	479137	5.0.10.0	5_exp_RW	37	Rpleas_acq	CS_A	JQQJ	YFFY	LWWL	DXXD	ZHHZ	CPPC	küssen	sonnig	gütig	träumen	vertrauen	genießen	krank	sterben	gierig	töten	versagen	gemein	1	acq_USunple_CSunple1_RW	acq4567_RW	5	16	400	1	300	300	388	46	0	1	1	blank2r.bmp	0	1	+	0	1	blank2r.bmp	492	1	LWWL	492	1	blank2r.bmp	572	1	krank	866	1	!	1239	1	!	1292	0	0	0	0	0	0	0	0	0	0	0	0	0	0	0	0	0	0	0	0	0	0	0	0	0	0	0	0	0	0
071019	12:16:05	12:24:07	481189	5.0.10.0	5_exp_RW	37	Rpleas_acq	CS_A	JQQJ	YFFY	LWWL	DXXD	ZHHZ	CPPC	küssen	sonnig	gütig	träumen	vertrauen	genießen	krank	sterben	gierig	töten	versagen	gemein	1	acq_USunple_CSunple2_RW	acq4567_RW	5	17	400	0	300	300	265	46	0	1	1	blank2r.bmp	0	1	+	0	1	blank2r.bmp	492	1	DXXD	492	1	blank2r.bmp	572	1	töten	866	1	!	-1	1	!	-1	0	0	0	0	0	0	0	0	0	0	0	0	0	0	0	0	0	0	0	0	0	0	0	0	0	0	0	0	0	0
071019	12:16:05	12:24:09	483508	5.0.10.0	5_exp_RW	37	Rpleas_acq	CS_A	JQQJ	YFFY	LWWL	DXXD	ZHHZ	CPPC	küssen	sonnig	gütig	träumen	vertrauen	genießen	krank	sterben	gierig	töten	versagen	gemein	1	acq_USunple_CSunple2_RW	acq4567_RW	5	18	400	0	300	300	542	46	0	1	1	blank2r.bmp	0	1	+	0	1	blank2r.bmp	492	1	DXXD	492	1	blank2r.bmp	572	2	versagen	866	1	!	1239	1	!	-1	0	0	0	0	0	0	0	0	0	0	0	0	0	0	0	0	0	0	0	0	0	0	0	0	0	0	0	0	0	0
071019	12:16:05	12:24:11	485801	5.0.10.0	5_exp_RW	37	Rpleas_acq	CS_A	JQQJ	YFFY	LWWL	DXXD	ZHHZ	CPPC	küssen	sonnig	gütig	träumen	vertrauen	genießen	krank	sterben	gierig	töten	versagen	gemein	1	acq_USunple_CSunple1_RW	acq4567_RW	5	19	400	0	300	300	511	46	0	1	1	blank2r.bmp	0	1	+	0	1	blank2r.bmp	492	1	LWWL	492	1	blank2r.bmp	572	2	sterben	866	1	!	1239	1	!	-1	0	0	0	0	0	0	0	0	0	0	0	0	0	0	0	0	0	0	0	0	0	0	0	0	0	0	0	0	0	0
071019	12:16:05	12:24:14	488000	5.0.10.0	5_exp_RW	37	Rpleas_acq	CS_A	JQQJ	YFFY	LWWL	DXXD	ZHHZ	CPPC	küssen	sonnig	gütig	träumen	vertrauen	genießen	krank	sterben	gierig	töten	versagen	gemein	1	acq_USunple_CSunple2_RW	acq4567_RW	5	20	400	1	300	300	381	46	0	1	1	blank2r.bmp	0	1	+	0	1	blank2r.bmp	492	1	DXXD	492	1	blank2r.bmp	572	1	töten	866	1	!	1239	1	!	1279	0	0	0	0	0	0	0	0	0	0	0	0	0	0	0	0	0	0	0	0	0	0	0	0	0	0	0	0	0	0
071019	12:16:05	12:24:16	490145	5.0.10.0	5_exp_RW	37	Rpleas_acq	CS_A	JQQJ	YFFY	LWWL	DXXD	ZHHZ	CPPC	küssen	sonnig	gütig	träumen	vertrauen	genießen	krank	sterben	gierig	töten	versagen	gemein	1	acq_USunple_CSunple1_RW	acq4567_RW	5	21	400	1	300	300	350	50	0	0	1	blank2r.bmp	0	1	+	0	1	blank2r.bmp	492	1	LWWL	492	1	blank2r.bmp	572	3	gierig	866	1	!	1239	1	!	1252	0	0	0	0	0	0	0	0	0	0	0	0	0	0	0	0	0	0	0	0	0	0	0	0	0	0	0	0	0	0
071019	12:16:05	12:24:18	492478	5.0.10.0	5_exp_RW	37	Rpleas_acq	CS_A	JQQJ	YFFY	LWWL	DXXD	ZHHZ	CPPC	küssen	sonnig	gütig	träumen	vertrauen	genießen	krank	sterben	gierig	töten	versagen	gemein	1	acq_USpleas_CSpleas2_RW	acq4567_RW	5	22	400	0	300	300	563	46	0	0	1	blank2r.bmp	0	1	+	0	1	blank2r.bmp	492	1	YFFY	492	1	blank2r.bmp	572	1	träumen	866	1	!	1239	1	!	-1	0	0	0	0	0	0	0	0	0	0	0	0	0	0	0	0	0	0	0	0	0	0	0	0	0	0	0	0	0	0
071019	12:16:05	12:24:20	494664	5.0.10.0	5_exp_RW	37	Rpleas_acq	CS_A	JQQJ	YFFY	LWWL	DXXD	ZHHZ	CPPC	küssen	sonnig	gütig	träumen	vertrauen	genießen	krank	sterben	gierig	töten	versagen	gemein	1	acq_USpleas_CSpleas1_RW	acq4567_RW	5	23	400	1	300	300	385	50	0	1	1	blank2r.bmp	0	1	+	0	1	blank2r.bmp	492	1	JQQJ	492	1	blank2r.bmp	572	1	küssen	866	1	!	1239	1	!	1279	0	0	0	0	0	0	0	0	0	0	0	0	0	0	0	0	0	0	0	0	0	0	0	0	0	0	0	0	0	0
071019	12:16:05	12:24:22	496809	5.0.10.0	5_exp_RW	37	Rpleas_acq	CS_A	JQQJ	YFFY	LWWL	DXXD	ZHHZ	CPPC	küssen	sonnig	gütig	träumen	vertrauen	genießen	krank	sterben	gierig	töten	versagen	gemein	1	acq_USpleas_CSpleas1_RW	acq4567_RW	5	24	400	1	300	300	346	50	0	1	1	blank2r.bmp	0	1	+	0	1	blank2r.bmp	492	1	JQQJ	492	1	blank2r.bmp	572	3	gütig	866	1	!	1239	1	!	1252	0	0	0	0	0	0	0	0	0	0	0	0	0	0	0	0	0	0	0	0	0	0	0	0	0	0	0	0	0	0
071019	12:16:05	12:24:25	499222	5.0.10.0	5_exp_RW	37	Rpleas_acq	CS_A	JQQJ	YFFY	LWWL	DXXD	ZHHZ	CPPC	küssen	sonnig	gütig	träumen	vertrauen	genießen	krank	sterben	gierig	töten	versagen	gemein	1	acq_USunple_CSunple1_RW	acq4567_RW	5	25	400	0	300	300	630	46	0	1	1	blank2r.bmp	0	1	+	0	1	blank2r.bmp	492	1	LWWL	492	1	blank2r.bmp	572	3	gierig	866	1	!	1239	1	!	-1	0	0	0	0	0	0	0	0	0	0	0	0	0	0	0	0	0	0	0	0	0	0	0	0	0	0	0	0	0	0
071019	12:16:05	12:24:27	501381	5.0.10.0	5_exp_RW	37	Rpleas_acq	CS_A	JQQJ	YFFY	LWWL	DXXD	ZHHZ	CPPC	küssen	sonnig	gütig	träumen	vertrauen	genießen	krank	sterben	gierig	töten	versagen	gemein	1	acq_USpleas_CSpleas2_RW	acq4567_RW	5	26	400	1	300	300	346	50	0	1	1	blank2r.bmp	0	1	+	0	1	blank2r.bmp	492	1	YFFY	492	1	blank2r.bmp	572	1	träumen	866	1	!	1239	1	!	1252	0	0	0	0	0	0	0	0	0	0	0	0	0	0	0	0	0	0	0	0	0	0	0	0	0	0	0	0	0	0
071019	12:16:05	12:24:29	503540	5.0.10.0	5_exp_RW	37	Rpleas_acq	CS_A	JQQJ	YFFY	LWWL	DXXD	ZHHZ	CPPC	küssen	sonnig	gütig	träumen	vertrauen	genießen	krank	sterben	gierig	töten	versagen	gemein	1	acq_USunple_CSunple1_RW	acq4567_RW	5	27	400	1	300	300	348	46	0	1	1	blank2r.bmp	0	1	+	0	1	blank2r.bmp	492	1	LWWL	492	1	blank2r.bmp	572	2	sterben	866	1	!	1239	1	!	1252	0	0	0	0	0	0	0	0	0	0	0	0	0	0	0	0	0	0	0	0	0	0	0	0	0	0	0	0	0	0
071019	12:16:05	12:24:31	505792	5.0.10.0	5_exp_RW	37	Rpleas_acq	CS_A	JQQJ	YFFY	LWWL	DXXD	ZHHZ	CPPC	küssen	sonnig	gütig	träumen	vertrauen	genießen	krank	sterben	gierig	töten	versagen	gemein	1	acq_USpleas_CSpleas2_RW	acq4567_RW	5	28	400	0	300	300	479	50	0	1	1	blank2r.bmp	0	1	+	0	1	blank2r.bmp	492	1	YFFY	492	1	blank2r.bmp	572	2	vertrauen	866	1	!	1239	1	!	-1	0	0	0	0	0	0	0	0	0	0	0	0	0	0	0	0	0	0	0	0	0	0	0	0	0	0	0	0	0	0
071019	12:16:05	12:24:34	508018	5.0.10.0	5_exp_RW	37	Rpleas_acq	CS_A	JQQJ	YFFY	LWWL	DXXD	ZHHZ	CPPC	küssen	sonnig	gütig	träumen	vertrauen	genießen	krank	sterben	gierig	töten	versagen	gemein	1	acq_USunple_CSunple2_RW	acq4567_RW	5	29	400	1	300	300	423	46	0	1	1	blank2r.bmp	0	1	+	0	1	blank2r.bmp	492	1	DXXD	492	1	blank2r.bmp	572	3	gemein	866	1	!	1239	1	!	1319	0	0	0	0	0	0	0	0	0	0	0	0	0	0	0	0	0	0	0	0	0	0	0	0	0	0	0	0	0	0
071019	12:16:05	12:24:36	510217	5.0.10.0	5_exp_RW	37	Rpleas_acq	CS_A	JQQJ	YFFY	LWWL	DXXD	ZHHZ	CPPC	küssen	sonnig	gütig	träumen	vertrauen	genießen	krank	sterben	gierig	töten	versagen	gemein	1	acq_USpleas_CSpleas1_RW	acq4567_RW	5	30	400	1	300	300	399	50	0	1	1	blank2r.bmp	0	1	+	0	1	blank2r.bmp	492	1	JQQJ	492	1	blank2r.bmp	572	2	sonnig	866	1	!	1239	1	!	1306	0	0	0	0	0	0	0	0	0	0	0	0	0	0	0	0	0	0	0	0	0	0	0	0	0	0	0	0	0	0
071019	12:16:05	12:24:38	512390	5.0.10.0	5_exp_RW	37	Rpleas_acq	CS_A	JQQJ	YFFY	LWWL	DXXD	ZHHZ	CPPC	küssen	sonnig	gütig	träumen	vertrauen	genießen	krank	sterben	gierig	töten	versagen	gemein	1	acq_USpleas_CSpleas1_RW	acq4567_RW	5	31	400	1	300	300	385	50	0	1	1	blank2r.bmp	0	1	+	0	1	blank2r.bmp	492	1	JQQJ	492	1	blank2r.bmp	572	1	küssen	866	1	!	1239	1	!	1279	0	0	0	0	0	0	0	0	0	0	0	0	0	0	0	0	0	0	0	0	0	0	0	0	0	0	0	0	0	0
071019	12:16:05	12:24:40	514655	5.0.10.0	5_exp_RW	37	Rpleas_acq	CS_A	JQQJ	YFFY	LWWL	DXXD	ZHHZ	CPPC	küssen	sonnig	gütig	träumen	vertrauen	genießen	krank	sterben	gierig	töten	versagen	gemein	1	acq_USpleas_CSpleas2_RW	acq4567_RW	5	32	400	0	300	300	498	50	0	1	1	blank2r.bmp	0	1	+	0	1	blank2r.bmp	492	1	YFFY	492	1	blank2r.bmp	572	3	genießen	866	1	!	1239	1	!	-1	0	0	0	0	0	0	0	0	0	0	0	0	0	0	0	0	0	0	0	0	0	0	0	0	0	0	0	0	0	0
071019	12:16:05	12:24:42	516815	5.0.10.0	5_exp_RW	37	Rpleas_acq	CS_A	JQQJ	YFFY	LWWL	DXXD	ZHHZ	CPPC	küssen	sonnig	gütig	träumen	vertrauen	genießen	krank	sterben	gierig	töten	versagen	gemein	1	acq_USunple_CSunple1_RW	acq4567_RW	5	33	400	1	300	300	356	46	0	1	1	blank2r.bmp	0	1	+	0	1	blank2r.bmp	492	1	LWWL	492	1	blank2r.bmp	572	1	krank	866	1	!	1239	1	!	1252	0	0	0	0	0	0	0	0	0	0	0	0	0	0	0	0	0	0	0	0	0	0	0	0	0	0	0	0	0	0
071019	12:16:05	12:24:45	518920	5.0.10.0	5_exp_RW	37	Rpleas_acq	CS_A	JQQJ	YFFY	LWWL	DXXD	ZHHZ	CPPC	küssen	sonnig	gütig	träumen	vertrauen	genießen	krank	sterben	gierig	töten	versagen	gemein	1	acq_USunple_CSunple1_RW	acq4567_RW	5	34	400	0	300	300	333	46	0	1	1	blank2r.bmp	0	1	+	0	1	blank2r.bmp	492	1	LWWL	492	1	blank2r.bmp	572	3	gierig	866	1	!	-1	1	!	-1	0	0	0	0	0	0	0	0	0	0	0	0	0	0	0	0	0	0	0	0	0	0	0	0	0	0	0	0	0	0
071019	12:16:05	12:24:47	521306	5.0.10.0	5_exp_RW	37	Rpleas_acq	CS_A	JQQJ	YFFY	LWWL	DXXD	ZHHZ	CPPC	küssen	sonnig	gütig	träumen	vertrauen	genießen	krank	sterben	gierig	töten	versagen	gemein	1	acq_USunple_CSunple2_RW	acq4567_RW	5	35	400	0	300	300	605	46	0	1	1	blank2r.bmp	0	1	+	0	1	blank2r.bmp	492	1	DXXD	492	1	blank2r.bmp	572	2	versagen	866	1	!	1239	1	!	-1	0	0	0	0	0	0	0	0	0	0	0	0	0	0	0	0	0	0	0	0	0	0	0	0	0	0	0	0	0	0
071019	12:16:05	12:24:49	523319	5.0.10.0	5_exp_RW	37	Rpleas_acq	CS_A	JQQJ	YFFY	LWWL	DXXD	ZHHZ	CPPC	küssen	sonnig	gütig	träumen	vertrauen	genießen	krank	sterben	gierig	töten	versagen	gemein	1	acq_USunple_CSunple2_RW	acq4567_RW	5	36	400	0	300	300	237	50	0	0	1	blank2r.bmp	0	1	+	0	1	blank2r.bmp	492	1	DXXD	492	1	blank2r.bmp	572	3	gemein	866	1	!	-1	1	!	-1	0	0	0	0	0	0	0	0	0	0	0	0	0	0	0	0	0	0	0	0	0	0	0	0	0	0	0	0	0	0
071019	12:16:05	12:24:51	525544	5.0.10.0	5_exp_RW	37	Rpleas_acq	CS_A	JQQJ	YFFY	LWWL	DXXD	ZHHZ	CPPC	küssen	sonnig	gütig	träumen	vertrauen	genießen	krank	sterben	gierig	töten	versagen	gemein	1	acq_USpleas_CSpleas2_RW	acq4567_RW	5	37	400	1	300	300	415	50	0	1	1	blank2r.bmp	0	1	+	0	1	blank2r.bmp	492	1	YFFY	492	1	blank2r.bmp	572	3	genießen	866	1	!	1239	1	!	1319	0	0	0	0	0	0	0	0	0	0	0	0	0	0	0	0	0	0	0	0	0	0	0	0	0	0	0	0	0	0
071019	12:16:05	12:24:53	527730	5.0.10.0	5_exp_RW	37	Rpleas_acq	CS_A	JQQJ	YFFY	LWWL	DXXD	ZHHZ	CPPC	küssen	sonnig	gütig	träumen	vertrauen	genießen	krank	sterben	gierig	töten	versagen	gemein	1	acq_USpleas_CSpleas1_RW	acq4567_RW	5	38	400	1	300	300	380	50	0	1	1	blank2r.bmp	0	1	+	0	1	blank2r.bmp	492	1	JQQJ	492	1	blank2r.bmp	572	1	küssen	866	1	!	1239	1	!	1279	0	0	0	0	0	0	0	0	0	0	0	0	0	0	0	0	0	0	0	0	0	0	0	0	0	0	0	0	0	0
071019	12:16:05	12:24:55	529903	5.0.10.0	5_exp_RW	37	Rpleas_acq	CS_A	JQQJ	YFFY	LWWL	DXXD	ZHHZ	CPPC	küssen	sonnig	gütig	träumen	vertrauen	genießen	krank	sterben	gierig	töten	versagen	gemein	1	acq_USunple_CSunple2_RW	acq4567_RW	5	39	400	1	300	300	360	46	0	1	1	blank2r.bmp	0	1	+	0	1	blank2r.bmp	492	1	DXXD	492	1	blank2r.bmp	572	1	töten	866	1	!	1239	1	!	1266	0	0	0	0	0	0	0	0	0	0	0	0	0	0	0	0	0	0	0	0	0	0	0	0	0	0	0	0	0	0
071019	12:16:05	12:24:58	532155	5.0.10.0	5_exp_RW	37	Rpleas_acq	CS_A	JQQJ	YFFY	LWWL	DXXD	ZHHZ	CPPC	küssen	sonnig	gütig	träumen	vertrauen	genießen	krank	sterben	gierig	töten	versagen	gemein	1	acq_USunple_CSunple2_RW	acq4567_RW	5	40	400	0	300	300	483	46	0	1	1	blank2r.bmp	0	1	+	0	1	blank2r.bmp	492	1	DXXD	492	1	blank2r.bmp	572	2	versagen	866	1	!	1239	1	!	-1	0	0	0	0	0	0	0	0	0	0	0	0	0	0	0	0	0	0	0	0	0	0	0	0	0	0	0	0	0	0
071019	12:16:05	12:25:00	534261	5.0.10.0	5_exp_RW	37	Rpleas_acq	CS_A	JQQJ	YFFY	LWWL	DXXD	ZHHZ	CPPC	küssen	sonnig	gütig	träumen	vertrauen	genießen	krank	sterben	gierig	töten	versagen	gemein	1	acq_USpleas_CSpleas1_RW	acq4567_RW	5	41	400	0	300	300	305	50	0	1	1	blank2r.bmp	0	1	+	0	1	blank2r.bmp	492	1	JQQJ	492	1	blank2r.bmp	572	3	gütig	866	1	!	-1	1	!	-1	0	0	0	0	0	0	0	0	0	0	0	0	0	0	0	0	0	0	0	0	0	0	0	0	0	0	0	0	0	0
071019	12:16:05	12:25:02	536526	5.0.10.0	5_exp_RW	37	Rpleas_acq	CS_A	JQQJ	YFFY	LWWL	DXXD	ZHHZ	CPPC	küssen	sonnig	gütig	träumen	vertrauen	genießen	krank	sterben	gierig	töten	versagen	gemein	1	acq_USunple_CSunple2_RW	acq4567_RW	5	42	400	0	300	300	499	46	0	1	1	blank2r.bmp	0	1	+	0	1	blank2r.bmp	492	1	DXXD	492	1	blank2r.bmp	572	3	gemein	866	1	!	1239	1	!	-1	0	0	0	0	0	0	0	0	0	0	0	0	0	0	0	0	0	0	0	0	0	0	0	0	0	0	0	0	0	0
071019	12:16:05	12:25:04	538726	5.0.10.0	5_exp_RW	37	Rpleas_acq	CS_A	JQQJ	YFFY	LWWL	DXXD	ZHHZ	CPPC	küssen	sonnig	gütig	träumen	vertrauen	genießen	krank	sterben	gierig	töten	versagen	gemein	1	acq_USpleas_CSpleas2_RW	acq4567_RW	5	43	400	1	300	300	387	50	0	1	1	blank2r.bmp	0	1	+	0	1	blank2r.bmp	492	1	YFFY	492	1	blank2r.bmp	572	2	vertrauen	866	1	!	1239	1	!	1292	0	0	0	0	0	0	0	0	0	0	0	0	0	0	0	0	0	0	0	0	0	0	0	0	0	0	0	0	0	0
071019	12:16:05	12:25:07	540978	5.0.10.0	5_exp_RW	37	Rpleas_acq	CS_A	JQQJ	YFFY	LWWL	DXXD	ZHHZ	CPPC	küssen	sonnig	gütig	träumen	vertrauen	genießen	krank	sterben	gierig	töten	versagen	gemein	1	acq_USunple_CSunple1_RW	acq4567_RW	5	44	400	0	300	300	487	46	0	1	1	blank2r.bmp	0	1	+	0	1	blank2r.bmp	492	1	LWWL	492	1	blank2r.bmp	572	2	sterben	866	1	!	1239	1	!	-1	0	0	0	0	0	0	0	0	0	0	0	0	0	0	0	0	0	0	0	0	0	0	0	0	0	0	0	0	0	0
071019	12:16:05	12:25:09	543084	5.0.10.0	5_exp_RW	37	Rpleas_acq	CS_A	JQQJ	YFFY	LWWL	DXXD	ZHHZ	CPPC	küssen	sonnig	gütig	träumen	vertrauen	genießen	krank	sterben	gierig	töten	versagen	gemein	1	acq_USunple_CSunple1_RW	acq4567_RW	5	45	400	0	300	300	324	46	0	1	1	blank2r.bmp	0	1	+	0	1	blank2r.bmp	492	1	LWWL	492	1	blank2r.bmp	572	1	krank	866	1	!	-1	1	!	-1	0	0	0	0	0	0	0	0	0	0	0	0	0	0	0	0	0	0	0	0	0	0	0	0	0	0	0	0	0	0
071019	12:16:05	12:25:11	545496	5.0.10.0	5_exp_RW	37	Rpleas_acq	CS_A	JQQJ	YFFY	LWWL	DXXD	ZHHZ	CPPC	küssen	sonnig	gütig	träumen	vertrauen	genießen	krank	sterben	gierig	töten	versagen	gemein	1	acq_USunple_CSunple2_RW	acq4567_RW	5	46	400	0	300	300	629	46	0	1	1	blank2r.bmp	0	1	+	0	1	blank2r.bmp	492	1	DXXD	492	1	blank2r.bmp	572	1	töten	866	1	!	1239	1	!	-1	0	0	0	0	0	0	0	0	0	0	0	0	0	0	0	0	0	0	0	0	0	0	0	0	0	0	0	0	0	0
071019	12:16:05	12:25:13	547682	5.0.10.0	5_exp_RW	37	Rpleas_acq	CS_A	JQQJ	YFFY	LWWL	DXXD	ZHHZ	CPPC	küssen	sonnig	gütig	träumen	vertrauen	genießen	krank	sterben	gierig	töten	versagen	gemein	1	acq_USpleas_CSpleas1_RW	acq4567_RW	5	47	400	1	300	300	384	50	0	1	1	blank2r.bmp	0	1	+	0	1	blank2r.bmp	492	1	JQQJ	492	1	blank2r.bmp	572	2	sonnig	866	1	!	1239	1	!	1279	0	0	0	0	0	0	0	0	0	0	0	0	0	0	0	0	0	0	0	0	0	0	0	0	0	0	0	0	0	0
071019	12:16:05	12:25:15	549894	5.0.10.0	5_exp_RW	37	Rpleas_acq	CS_A	JQQJ	YFFY	LWWL	DXXD	ZHHZ	CPPC	küssen	sonnig	gütig	träumen	vertrauen	genießen	krank	sterben	gierig	töten	versagen	gemein	1	acq_USunple_CSunple2_RW	acq4567_RW	5	48	400	1	300	300	402	46	0	1	1	blank2r.bmp	0	1	+	0	1	blank2r.bmp	492	1	DXXD	492	1	blank2r.bmp	572	2	versagen	866	1	!	1239	1	!	1306	0	0	0	0	0	0	0	0	0	0	0	0	0	0	0	0	0	0	0	0	0	0	0	0	0	0	0	0	0	0
071019	12:16:05	12:25:18	552040	5.0.10.0	5_exp_RW	37	Rpleas_acq	CS_A	JQQJ	YFFY	LWWL	DXXD	ZHHZ	CPPC	küssen	sonnig	gütig	träumen	vertrauen	genießen	krank	sterben	gierig	töten	versagen	gemein	1	acq_USunple_CSunple2_RW	acq4567_RW	5	49	400	1	300	300	346	46	0	1	1	blank2r.bmp	0	1	+	0	1	blank2r.bmp	492	1	DXXD	492	1	blank2r.bmp	572	1	töten	866	1	!	1239	1	!	1252	0	0	0	0	0	0	0	0	0	0	0	0	0	0	0	0	0	0	0	0	0	0	0	0	0	0	0	0	0	0
071019	12:16:05	12:25:20	554093	5.0.10.0	5_exp_RW	37	Rpleas_acq	CS_A	JQQJ	YFFY	LWWL	DXXD	ZHHZ	CPPC	küssen	sonnig	gütig	träumen	vertrauen	genießen	krank	sterben	gierig	töten	versagen	gemein	1	acq_USunple_CSunple1_RW	acq4567_RW	5	50	400	0	300	300	282	46	0	1	1	blank2r.bmp	0	1	+	0	1	blank2r.bmp	492	1	LWWL	492	1	blank2r.bmp	572	2	sterben	866	1	!	-1	1	!	-1	0	0	0	0	0	0	0	0	0	0	0	0	0	0	0	0	0	0	0	0	0	0	0	0	0	0	0	0	0	0
071019	12:16:05	12:25:22	556478	5.0.10.0	5_exp_RW	37	Rpleas_acq	CS_A	JQQJ	YFFY	LWWL	DXXD	ZHHZ	CPPC	küssen	sonnig	gütig	träumen	vertrauen	genießen	krank	sterben	gierig	töten	versagen	gemein	1	acq_USpleas_CSpleas2_RW	acq4567_RW	5	51	400	0	300	300	603	50	0	1	1	blank2r.bmp	0	1	+	0	1	blank2r.bmp	492	1	YFFY	492	1	blank2r.bmp	572	1	träumen	866	1	!	1239	1	!	-1	0	0	0	0	0	0	0	0	0	0	0	0	0	0	0	0	0	0	0	0	0	0	0	0	0	0	0	0	0	0
071019	12:16:05	12:25:24	558571	5.0.10.0	5_exp_RW	37	Rpleas_acq	CS_A	JQQJ	YFFY	LWWL	DXXD	ZHHZ	CPPC	küssen	sonnig	gütig	träumen	vertrauen	genießen	krank	sterben	gierig	töten	versagen	gemein	1	acq_USpleas_CSpleas2_RW	acq4567_RW	5	52	400	0	300	300	316	50	0	1	1	blank2r.bmp	0	1	+	0	1	blank2r.bmp	492	1	YFFY	492	1	blank2r.bmp	572	2	vertrauen	866	1	!	-1	1	!	-1	0	0	0	0	0	0	0	0	0	0	0	0	0	0	0	0	0	0	0	0	0	0	0	0	0	0	0	0	0	0
071019	12:16:05	12:25:26	560863	5.0.10.0	5_exp_RW	37	Rpleas_acq	CS_A	JQQJ	YFFY	LWWL	DXXD	ZHHZ	CPPC	küssen	sonnig	gütig	träumen	vertrauen	genießen	krank	sterben	gierig	töten	versagen	gemein	1	acq_USunple_CSunple2_RW	acq4567_RW	5	53	400	0	300	300	503	46	0	1	1	blank2r.bmp	0	1	+	0	1	blank2r.bmp	492	1	DXXD	492	1	blank2r.bmp	572	3	gemein	866	1	!	1239	1	!	-1	0	0	0	0	0	0	0	0	0	0	0	0	0	0	0	0	0	0	0	0	0	0	0	0	0	0	0	0	0	0
071019	12:16:05	12:25:29	563049	5.0.10.0	5_exp_RW	37	Rpleas_acq	CS_A	JQQJ	YFFY	LWWL	DXXD	ZHHZ	CPPC	küssen	sonnig	gütig	träumen	vertrauen	genießen	krank	sterben	gierig	töten	versagen	gemein	1	acq_USunple_CSunple1_RW	acq4567_RW	5	54	400	1	300	300	377	46	0	1	1	blank2r.bmp	0	1	+	0	1	blank2r.bmp	492	1	LWWL	492	1	blank2r.bmp	572	1	krank	866	1	!	1239	1	!	1279	0	0	0	0	0	0	0	0	0	0	0	0	0	0	0	0	0	0	0	0	0	0	0	0	0	0	0	0	0	0
071019	12:16:05	12:25:31	565208	5.0.10.0	5_exp_RW	37	Rpleas_acq	CS_A	JQQJ	YFFY	LWWL	DXXD	ZHHZ	CPPC	küssen	sonnig	gütig	träumen	vertrauen	genießen	krank	sterben	gierig	töten	versagen	gemein	1	acq_USpleas_CSpleas1_RW	acq4567_RW	5	55	400	1	300	300	353	50	0	1	1	blank2r.bmp	0	1	+	0	1	blank2r.bmp	492	1	JQQJ	492	1	blank2r.bmp	572	2	sonnig	866	1	!	1239	1	!	1252	0	0	0	0	0	0	0	0	0	0	0	0	0	0	0	0	0	0	0	0	0	0	0	0	0	0	0	0	0	0
071019	12:16:05	12:25:33	567261	5.0.10.0	5_exp_RW	37	Rpleas_acq	CS_A	JQQJ	YFFY	LWWL	DXXD	ZHHZ	CPPC	küssen	sonnig	gütig	träumen	vertrauen	genießen	krank	sterben	gierig	töten	versagen	gemein	1	acq_USpleas_CSpleas1_RW	acq4567_RW	5	56	400	0	300	300	285	50	0	1	1	blank2r.bmp	0	1	+	0	1	blank2r.bmp	492	1	JQQJ	492	1	blank2r.bmp	572	1	küssen	866	1	!	-1	1	!	-1	0	0	0	0	0	0	0	0	0	0	0	0	0	0	0	0	0	0	0	0	0	0	0	0	0	0	0	0	0	0
071019	12:16:05	12:25:35	569526	5.0.10.0	5_exp_RW	37	Rpleas_acq	CS_A	JQQJ	YFFY	LWWL	DXXD	ZHHZ	CPPC	küssen	sonnig	gütig	träumen	vertrauen	genießen	krank	sterben	gierig	töten	versagen	gemein	1	acq_USpleas_CSpleas1_RW	acq4567_RW	5	57	400	0	300	300	479	50	0	1	1	blank2r.bmp	0	1	+	0	1	blank2r.bmp	492	1	JQQJ	492	1	blank2r.bmp	572	3	gütig	866	1	!	1239	1	!	-1	0	0	0	0	0	0	0	0	0	0	0	0	0	0	0	0	0	0	0	0	0	0	0	0	0	0	0	0	0	0
071019	12:16:05	12:25:37	571805	5.0.10.0	5_exp_RW	37	Rpleas_acq	CS_A	JQQJ	YFFY	LWWL	DXXD	ZHHZ	CPPC	küssen	sonnig	gütig	träumen	vertrauen	genießen	krank	sterben	gierig	töten	versagen	gemein	1	acq_USpleas_CSpleas2_RW	acq4567_RW	5	58	400	0	300	300	497	50	0	1	1	blank2r.bmp	0	1	+	0	1	blank2r.bmp	492	1	YFFY	492	1	blank2r.bmp	572	1	träumen	866	1	!	1239	1	!	-1	0	0	0	0	0	0	0	0	0	0	0	0	0	0	0	0	0	0	0	0	0	0	0	0	0	0	0	0	0	0
071019	12:16:05	12:25:40	573991	5.0.10.0	5_exp_RW	37	Rpleas_acq	CS_A	JQQJ	YFFY	LWWL	DXXD	ZHHZ	CPPC	küssen	sonnig	gütig	träumen	vertrauen	genießen	krank	sterben	gierig	töten	versagen	gemein	1	acq_USpleas_CSpleas2_RW	acq4567_RW	5	59	400	1	300	300	382	50	0	1	1	blank2r.bmp	0	1	+	0	1	blank2r.bmp	492	1	YFFY	492	1	blank2r.bmp	572	3	genießen	866	1	!	1239	1	!	1279	0	0	0	0	0	0	0	0	0	0	0	0	0	0	0	0	0	0	0	0	0	0	0	0	0	0	0	0	0	0
071019	12:16:05	12:25:42	576244	5.0.10.0	5_exp_RW	37	Rpleas_acq	CS_A	JQQJ	YFFY	LWWL	DXXD	ZHHZ	CPPC	küssen	sonnig	gütig	träumen	vertrauen	genießen	krank	sterben	gierig	töten	versagen	gemein	1	acq_USunple_CSunple1_RW	acq4567_RW	5	60	400	1	300	300	463	50	0	0	1	blank2r.bmp	0	1	+	0	1	blank2r.bmp	492	1	LWWL	492	1	blank2r.bmp	572	3	gierig	866	1	!	1239	1	!	1359	0	0	0	0	0	0	0	0	0	0	0	0	0	0	0	0	0	0	0	0	0	0	0	0	0	0	0	0	0	0
071019	12:16:05	12:25:44	578309	5.0.10.0	5_exp_RW	37	Rpleas_acq	CS_A	JQQJ	YFFY	LWWL	DXXD	ZHHZ	CPPC	küssen	sonnig	gütig	träumen	vertrauen	genießen	krank	sterben	gierig	töten	versagen	gemein	1	acq_USpleas_CSpleas2_RW	acq4567_RW	5	61	400	0	300	300	287	50	0	1	1	blank2r.bmp	0	1	+	0	1	blank2r.bmp	492	1	YFFY	492	1	blank2r.bmp	572	2	vertrauen	866	1	!	-1	1	!	-1	0	0	0	0	0	0	0	0	0	0	0	0	0	0	0	0	0	0	0	0	0	0	0	0	0	0	0	0	0	0
071019	12:16:05	12:25:46	580508	5.0.10.0	5_exp_RW	37	Rpleas_acq	CS_A	JQQJ	YFFY	LWWL	DXXD	ZHHZ	CPPC	küssen	sonnig	gütig	träumen	vertrauen	genießen	krank	sterben	gierig	töten	versagen	gemein	1	acq_USunple_CSunple2_RW	acq4567_RW	5	62	400	1	300	300	392	46	0	1	1	blank2r.bmp	0	1	+	0	1	blank2r.bmp	492	1	DXXD	492	1	blank2r.bmp	572	1	töten	866	1	!	1239	1	!	1292	0	0	0	0	0	0	0	0	0	0	0	0	0	0	0	0	0	0	0	0	0	0	0	0	0	0	0	0	0	0
071019	12:16:05	12:25:48	582574	5.0.10.0	5_exp_RW	37	Rpleas_acq	CS_A	JQQJ	YFFY	LWWL	DXXD	ZHHZ	CPPC	küssen	sonnig	gütig	träumen	vertrauen	genießen	krank	sterben	gierig	töten	versagen	gemein	1	acq_USpleas_CSpleas1_RW	acq4567_RW	5	63	400	0	300	300	303	46	0	0	1	blank2r.bmp	0	1	+	0	1	blank2r.bmp	492	1	JQQJ	492	1	blank2r.bmp	572	2	sonnig	866	1	!	-1	1	!	-1	0	0	0	0	0	0	0	0	0	0	0	0	0	0	0	0	0	0	0	0	0	0	0	0	0	0	0	0	0	0
071019	12:16:05	12:25:51	585000	5.0.10.0	5_exp_RW	37	Rpleas_acq	CS_A	JQQJ	YFFY	LWWL	DXXD	ZHHZ	CPPC	küssen	sonnig	gütig	träumen	vertrauen	genießen	krank	sterben	gierig	töten	versagen	gemein	1	acq_USunple_CSunple2_RW	acq4567_RW	5	64	400	0	300	300	650	46	0	1	1	blank2r.bmp	0	1	+	0	1	blank2r.bmp	492	1	DXXD	492	1	blank2r.bmp	572	2	versagen	866	1	!	1239	1	!	-1	0	0	0	0	0	0	0	0	0	0	0	0	0	0	0	0	0	0	0	0	0	0	0	0	0	0	0	0	0	0
071019	12:16:05	12:25:53	587279	5.0.10.0	5_exp_RW	37	Rpleas_acq	CS_A	JQQJ	YFFY	LWWL	DXXD	ZHHZ	CPPC	küssen	sonnig	gütig	träumen	vertrauen	genießen	krank	sterben	gierig	töten	versagen	gemein	1	acq_USpleas_CSpleas2_RW	acq4567_RW	5	65	400	0	300	300	479	50	0	1	1	blank2r.bmp	0	1	+	0	1	blank2r.bmp	492	1	YFFY	492	1	blank2r.bmp	572	1	träumen	866	1	!	1239	1	!	-1	0	0	0	0	0	0	0	0	0	0	0	0	0	0	0	0	0	0	0	0	0	0	0	0	0	0	0	0	0	0
071019	12:16:05	12:25:55	589545	5.0.10.0	5_exp_RW	37	Rpleas_acq	CS_A	JQQJ	YFFY	LWWL	DXXD	ZHHZ	CPPC	küssen	sonnig	gütig	träumen	vertrauen	genießen	krank	sterben	gierig	töten	versagen	gemein	1	acq_USpleas_CSpleas2_RW	acq4567_RW	5	66	400	0	300	300	479	50	0	1	1	blank2r.bmp	0	1	+	0	1	blank2r.bmp	492	1	YFFY	492	1	blank2r.bmp	572	3	genießen	866	1	!	1239	1	!	-1	0	0	0	0	0	0	0	0	0	0	0	0	0	0	0	0	0	0	0	0	0	0	0	0	0	0	0	0	0	0
071019	12:16:05	12:25:59	593530	5.0.10.0	5_exp_RW	37	Rpleas_acq	CS_A	JQQJ	YFFY	LWWL	DXXD	ZHHZ	CPPC	küssen	sonnig	gütig	träumen	vertrauen	genießen	krank	sterben	gierig	töten	versagen	gemein	1	acq_USunple_CSunple1_RW	acq4567_RW	5	67	400	0	300	300	2203	46	0	1	1	blank2r.bmp	0	1	+	0	1	blank2r.bmp	492	1	LWWL	492	1	blank2r.bmp	572	1	krank	866	1	!	1239	1	!	-1	0	0	0	0	0	0	0	0	0	0	0	0	0	0	0	0	0	0	0	0	0	0	0	0	0	0	0	0	0	0
071019	12:16:05	12:26:02	595955	5.0.10.0	5_exp_RW	37	Rpleas_acq	CS_A	JQQJ	YFFY	LWWL	DXXD	ZHHZ	CPPC	küssen	sonnig	gütig	träumen	vertrauen	genießen	krank	sterben	gierig	töten	versagen	gemein	1	acq_USunple_CSunple1_RW	acq4567_RW	5	68	400	0	300	300	638	46	0	1	1	blank2r.bmp	0	1	+	0	1	blank2r.bmp	492	1	LWWL	492	1	blank2r.bmp	572	2	sterben	866	1	!	1239	1	!	-1	0	0	0	0	0	0	0	0	0	0	0	0	0	0	0	0	0	0	0	0	0	0	0	0	0	0	0	0	0	0
071019	12:16:05	12:26:04	598181	5.0.10.0	5_exp_RW	37	Rpleas_acq	CS_A	JQQJ	YFFY	LWWL	DXXD	ZHHZ	CPPC	küssen	sonnig	gütig	träumen	vertrauen	genießen	krank	sterben	gierig	töten	versagen	gemein	1	acq_USpleas_CSpleas1_RW	acq4567_RW	5	69	400	1	300	300	413	50	0	1	1	blank2r.bmp	0	1	+	0	1	blank2r.bmp	492	1	JQQJ	492	1	blank2r.bmp	572	1	küssen	866	1	!	1239	1	!	1319	0	0	0	0	0	0	0	0	0	0	0	0	0	0	0	0	0	0	0	0	0	0	0	0	0	0	0	0	0	0
071019	12:16:05	12:26:06	600327	5.0.10.0	5_exp_RW	37	Rpleas_acq	CS_A	JQQJ	YFFY	LWWL	DXXD	ZHHZ	CPPC	küssen	sonnig	gütig	träumen	vertrauen	genießen	krank	sterben	gierig	töten	versagen	gemein	1	acq_USunple_CSunple1_RW	acq4567_RW	5	70	400	1	300	300	346	50	0	0	1	blank2r.bmp	0	1	+	0	1	blank2r.bmp	492	1	LWWL	492	1	blank2r.bmp	572	3	gierig	866	1	!	1239	1	!	1252	0	0	0	0	0	0	0	0	0	0	0	0	0	0	0	0	0	0	0	0	0	0	0	0	0	0	0	0	0	0
071019	12:16:05	12:26:08	602393	5.0.10.0	5_exp_RW	37	Rpleas_acq	CS_A	JQQJ	YFFY	LWWL	DXXD	ZHHZ	CPPC	küssen	sonnig	gütig	träumen	vertrauen	genießen	krank	sterben	gierig	töten	versagen	gemein	1	acq_USpleas_CSpleas1_RW	acq4567_RW	5	71	400	0	300	300	293	50	0	1	1	blank2r.bmp	0	1	+	0	1	blank2r.bmp	492	1	JQQJ	492	1	blank2r.bmp	572	3	gütig	866	1	!	-1	1	!	-1	0	0	0	0	0	0	0	0	0	0	0	0	0	0	0	0	0	0	0	0	0	0	0	0	0	0	0	0	0	0
071019	12:16:05	12:26:10	604659	5.0.10.0	5_exp_RW	37	Rpleas_acq	CS_A	JQQJ	YFFY	LWWL	DXXD	ZHHZ	CPPC	küssen	sonnig	gütig	träumen	vertrauen	genießen	krank	sterben	gierig	töten	versagen	gemein	1	acq_USpleas_CSpleas2_RW	acq4567_RW	5	72	400	1	300	300	446	50	0	1	1	blank2r.bmp	0	1	+	0	1	blank2r.bmp	492	1	YFFY	492	1	blank2r.bmp	572	3	genießen	866	1	!	1239	1	!	1346	0	0	0	0	0	0	0	0	0	0	0	0	0	0	0	0	0	0	0	0	0	0	0	0	0	0	0	0	0	0
071019	12:16:05	12:26:12	606844	5.0.10.0	5_exp_RW	37	Rpleas_acq	CS_A	JQQJ	YFFY	LWWL	DXXD	ZHHZ	CPPC	küssen	sonnig	gütig	träumen	vertrauen	genießen	krank	sterben	gierig	töten	versagen	gemein	1	acq_USunple_CSunple2_RW	acq4567_RW	5	73	400	1	300	300	394	46	0	1	1	blank2r.bmp	0	1	+	0	1	blank2r.bmp	492	1	DXXD	492	1	blank2r.bmp	572	3	gemein	866	1	!	1239	1	!	1292	0	0	0	0	0	0	0	0	0	0	0	0	0	0	0	0	0	0	0	0	0	0	0	0	0	0	0	0	0	0
071019	12:16:05	12:26:14	608884	5.0.10.0	5_exp_RW	37	Rpleas_acq	CS_A	JQQJ	YFFY	LWWL	DXXD	ZHHZ	CPPC	küssen	sonnig	gütig	träumen	vertrauen	genießen	krank	sterben	gierig	töten	versagen	gemein	1	acq_USpleas_CSpleas1_RW	acq4567_RW	5	74	400	0	300	300	275	46	0	0	1	blank2r.bmp	0	1	+	0	1	blank2r.bmp	492	1	JQQJ	492	1	blank2r.bmp	572	2	sonnig	866	1	!	-1	1	!	-1	0	0	0	0	0	0	0	0	0	0	0	0	0	0	0	0	0	0	0	0	0	0	0	0	0	0	0	0	0	0
071019	12:16:05	12:26:17	611123	5.0.10.0	5_exp_RW	37	Rpleas_acq	CS_A	JQQJ	YFFY	LWWL	DXXD	ZHHZ	CPPC	küssen	sonnig	gütig	träumen	vertrauen	genießen	krank	sterben	gierig	töten	versagen	gemein	1	acq_USpleas_CSpleas2_RW	acq4567_RW	5	75	400	1	300	300	435	50	0	1	1	blank2r.bmp	0	1	+	0	1	blank2r.bmp	492	1	YFFY	492	1	blank2r.bmp	572	1	träumen	866	1	!	1239	1	!	1332	0	0	0	0	0	0	0	0	0	0	0	0	0	0	0	0	0	0	0	0	0	0	0	0	0	0	0	0	0	0
071019	12:16:05	12:26:19	613162	5.0.10.0	5_exp_RW	37	Rpleas_acq	CS_A	JQQJ	YFFY	LWWL	DXXD	ZHHZ	CPPC	küssen	sonnig	gütig	träumen	vertrauen	genießen	krank	sterben	gierig	töten	versagen	gemein	1	acq_USpleas_CSpleas1_RW	acq4567_RW	5	76	400	0	300	300	275	50	0	1	1	blank2r.bmp	0	1	+	0	1	blank2r.bmp	492	1	JQQJ	492	1	blank2r.bmp	572	1	küssen	866	1	!	-1	1	!	-1	0	0	0	0	0	0	0	0	0	0	0	0	0	0	0	0	0	0	0	0	0	0	0	0	0	0	0	0	0	0
071019	12:16:05	12:26:21	615454	5.0.10.0	5_exp_RW	37	Rpleas_acq	CS_A	JQQJ	YFFY	LWWL	DXXD	ZHHZ	CPPC	küssen	sonnig	gütig	träumen	vertrauen	genießen	krank	sterben	gierig	töten	versagen	gemein	1	acq_USunple_CSunple2_RW	acq4567_RW	5	77	400	0	300	300	509	46	0	1	1	blank2r.bmp	0	1	+	0	1	blank2r.bmp	492	1	DXXD	492	1	blank2r.bmp	572	3	gemein	866	1	!	1239	1	!	-1	0	0	0	0	0	0	0	0	0	0	0	0	0	0	0	0	0	0	0	0	0	0	0	0	0	0	0	0	0	0
071019	12:16:05	12:26:23	617560	5.0.10.0	5_exp_RW	37	Rpleas_acq	CS_A	JQQJ	YFFY	LWWL	DXXD	ZHHZ	CPPC	küssen	sonnig	gütig	träumen	vertrauen	genießen	krank	sterben	gierig	töten	versagen	gemein	1	acq_USunple_CSunple1_RW	acq4567_RW	5	78	400	0	300	300	324	50	0	0	1	blank2r.bmp	0	1	+	0	1	blank2r.bmp	492	1	LWWL	492	1	blank2r.bmp	572	1	krank	866	1	!	-1	1	!	-1	0	0	0	0	0	0	0	0	0	0	0	0	0	0	0	0	0	0	0	0	0	0	0	0	0	0	0	0	0	0
071019	12:16:05	12:26:25	619826	5.0.10.0	5_exp_RW	37	Rpleas_acq	CS_A	JQQJ	YFFY	LWWL	DXXD	ZHHZ	CPPC	küssen	sonnig	gütig	träumen	vertrauen	genießen	krank	sterben	gierig	töten	versagen	gemein	1	acq_USunple_CSunple1_RW	acq4567_RW	5	79	400	1	300	300	459	46	0	1	1	blank2r.bmp	0	1	+	0	1	blank2r.bmp	492	1	LWWL	492	1	blank2r.bmp	572	2	sterben	866	1	!	1239	1	!	1359	0	0	0	0	0	0	0	0	0	0	0	0	0	0	0	0	0	0	0	0	0	0	0	0	0	0	0	0	0	0
071019	12:16:05	12:26:28	622078	5.0.10.0	5_exp_RW	37	Rpleas_acq	CS_A	JQQJ	YFFY	LWWL	DXXD	ZHHZ	CPPC	küssen	sonnig	gütig	träumen	vertrauen	genießen	krank	sterben	gierig	töten	versagen	gemein	1	acq_USunple_CSunple2_RW	acq4567_RW	5	80	400	0	300	300	479	46	0	1	1	blank2r.bmp	0	1	+	0	1	blank2r.bmp	492	1	DXXD	492	1	blank2r.bmp	572	1	töten	866	1	!	1239	1	!	-1	0	0	0	0	0	0	0	0	0	0	0	0	0	0	0	0	0	0	0	0	0	0	0	0	0	0	0	0	0	0
071019	12:16:05	12:26:35	629408	5.0.10.0	5_exp_RW	37	Rpleas_acq	CS_A	JQQJ	YFFY	LWWL	DXXD	ZHHZ	CPPC	küssen	sonnig	gütig	träumen	vertrauen	genießen	krank	sterben	gierig	töten	versagen	gemein	1	acq_USpleas_CSpleas1_RW	acq4567_RW	6	1	400	1	300	300	437	50	0	1	1	blank2r.bmp	0	1	+	0	1	blank2r.bmp	492	1	JQQJ	492	1	blank2r.bmp	572	3	gütig	866	1	!	1239	1	!	1332	0	0	0	0	0	0	0	0	0	0	0	0	0	0	0	0	0	0	0	0	0	0	0	0	0	0	0	0	0	0
071019	12:16:05	12:26:37	631421	5.0.10.0	5_exp_RW	37	Rpleas_acq	CS_A	JQQJ	YFFY	LWWL	DXXD	ZHHZ	CPPC	küssen	sonnig	gütig	träumen	vertrauen	genießen	krank	sterben	gierig	töten	versagen	gemein	1	acq_USunple_CSunple1_RW	acq4567_RW	6	2	400	0	300	300	235	50	0	0	1	blank2r.bmp	0	1	+	0	1	blank2r.bmp	492	1	LWWL	492	1	blank2r.bmp	572	3	gierig	866	1	!	-1	1	!	-1	0	0	0	0	0	0	0	0	0	0	0	0	0	0	0	0	0	0	0	0	0	0	0	0	0	0	0	0	0	0
071019	12:16:05	12:26:39	633687	5.0.10.0	5_exp_RW	37	Rpleas_acq	CS_A	JQQJ	YFFY	LWWL	DXXD	ZHHZ	CPPC	küssen	sonnig	gütig	träumen	vertrauen	genießen	krank	sterben	gierig	töten	versagen	gemein	1	acq_USunple_CSunple2_RW	acq4567_RW	6	3	400	0	300	300	479	46	0	1	1	blank2r.bmp	0	1	+	0	1	blank2r.bmp	492	1	DXXD	492	1	blank2r.bmp	572	2	versagen	866	1	!	1239	1	!	-1	0	0	0	0	0	0	0	0	0	0	0	0	0	0	0	0	0	0	0	0	0	0	0	0	0	0	0	0	0	0
071019	12:16:05	12:26:41	635806	5.0.10.0	5_exp_RW	37	Rpleas_acq	CS_A	JQQJ	YFFY	LWWL	DXXD	ZHHZ	CPPC	küssen	sonnig	gütig	träumen	vertrauen	genießen	krank	sterben	gierig	töten	versagen	gemein	1	acq_USpleas_CSpleas1_RW	acq4567_RW	6	4	400	0	300	300	320	46	0	0	1	blank2r.bmp	0	1	+	0	1	blank2r.bmp	492	1	JQQJ	492	1	blank2r.bmp	572	1	küssen	866	1	!	-1	1	!	-1	0	0	0	0	0	0	0	0	0	0	0	0	0	0	0	0	0	0	0	0	0	0	0	0	0	0	0	0	0	0
071019	12:16:05	12:26:44	637965	5.0.10.0	5_exp_RW	37	Rpleas_acq	CS_A	JQQJ	YFFY	LWWL	DXXD	ZHHZ	CPPC	küssen	sonnig	gütig	träumen	vertrauen	genießen	krank	sterben	gierig	töten	versagen	gemein	1	acq_USpleas_CSpleas2_RW	acq4567_RW	6	5	400	1	300	300	346	50	0	1	1	blank2r.bmp	0	1	+	0	1	blank2r.bmp	492	1	YFFY	492	1	blank2r.bmp	572	2	vertrauen	866	1	!	1239	1	!	1252	0	0	0	0	0	0	0	0	0	0	0	0	0	0	0	0	0	0	0	0	0	0	0	0	0	0	0	0	0	0
071019	12:16:05	12:26:46	640151	5.0.10.0	5_exp_RW	37	Rpleas_acq	CS_A	JQQJ	YFFY	LWWL	DXXD	ZHHZ	CPPC	küssen	sonnig	gütig	träumen	vertrauen	genießen	krank	sterben	gierig	töten	versagen	gemein	1	acq_USpleas_CSpleas1_RW	acq4567_RW	6	6	400	1	300	300	391	50	0	1	1	blank2r.bmp	0	1	+	0	1	blank2r.bmp	492	1	JQQJ	492	1	blank2r.bmp	572	3	gütig	866	1	!	1239	1	!	1292	0	0	0	0	0	0	0	0	0	0	0	0	0	0	0	0	0	0	0	0	0	0	0	0	0	0	0	0	0	0
071019	12:16:05	12:26:48	642230	5.0.10.0	5_exp_RW	37	Rpleas_acq	CS_A	JQQJ	YFFY	LWWL	DXXD	ZHHZ	CPPC	küssen	sonnig	gütig	träumen	vertrauen	genießen	krank	sterben	gierig	töten	versagen	gemein	1	acq_USpleas_CSpleas2_RW	acq4567_RW	6	7	400	0	300	300	315	50	0	1	1	blank2r.bmp	0	1	+	0	1	blank2r.bmp	492	1	YFFY	492	1	blank2r.bmp	572	3	genießen	866	1	!	-1	1	!	-1	0	0	0	0	0	0	0	0	0	0	0	0	0	0	0	0	0	0	0	0	0	0	0	0	0	0	0	0	0	0
071019	12:16:05	12:26:50	644522	5.0.10.0	5_exp_RW	37	Rpleas_acq	CS_A	JQQJ	YFFY	LWWL	DXXD	ZHHZ	CPPC	küssen	sonnig	gütig	träumen	vertrauen	genießen	krank	sterben	gierig	töten	versagen	gemein	1	acq_USpleas_CSpleas2_RW	acq4567_RW	6	8	400	0	300	300	505	50	0	1	1	blank2r.bmp	0	1	+	0	1	blank2r.bmp	492	1	YFFY	492	1	blank2r.bmp	572	1	träumen	866	1	!	1239	1	!	-1	0	0	0	0	0	0	0	0	0	0	0	0	0	0	0	0	0	0	0	0	0	0	0	0	0	0	0	0	0	0
071019	12:16:05	12:26:54	648894	5.0.10.0	5_exp_RW	37	Rpleas_acq	CS_A	JQQJ	YFFY	LWWL	DXXD	ZHHZ	CPPC	küssen	sonnig	gütig	träumen	vertrauen	genießen	krank	sterben	gierig	töten	versagen	gemein	1	acq_USpleas_CSpleas2_RW	acq4567_RW	6	9	400	0	300	300	2588	50	0	1	1	blank2r.bmp	0	1	+	0	1	blank2r.bmp	492	1	YFFY	492	1	blank2r.bmp	572	2	vertrauen	866	1	!	1239	1	!	-1	0	0	0	0	0	0	0	0	0	0	0	0	0	0	0	0	0	0	0	0	0	0	0	0	0	0	0	0	0	0
071019	12:16:05	12:26:57	650960	5.0.10.0	5_exp_RW	37	Rpleas_acq	CS_A	JQQJ	YFFY	LWWL	DXXD	ZHHZ	CPPC	küssen	sonnig	gütig	träumen	vertrauen	genießen	krank	sterben	gierig	töten	versagen	gemein	1	acq_USpleas_CSpleas2_RW	acq4567_RW	6	10	400	0	300	300	287	50	0	1	1	blank2r.bmp	0	1	+	0	1	blank2r.bmp	492	1	YFFY	492	1	blank2r.bmp	572	3	genießen	866	1	!	-1	1	!	-1	0	0	0	0	0	0	0	0	0	0	0	0	0	0	0	0	0	0	0	0	0	0	0	0	0	0	0	0	0	0
071019	12:16:05	12:26:59	653239	5.0.10.0	5_exp_RW	37	Rpleas_acq	CS_A	JQQJ	YFFY	LWWL	DXXD	ZHHZ	CPPC	küssen	sonnig	gütig	träumen	vertrauen	genießen	krank	sterben	gierig	töten	versagen	gemein	1	acq_USunple_CSunple2_RW	acq4567_RW	6	11	400	0	300	300	500	46	0	1	1	blank2r.bmp	0	1	+	0	1	blank2r.bmp	492	1	DXXD	492	1	blank2r.bmp	572	2	versagen	866	1	!	1239	1	!	-1	0	0	0	0	0	0	0	0	0	0	0	0	0	0	0	0	0	0	0	0	0	0	0	0	0	0	0	0	0	0
071019	12:16:05	12:27:01	655305	5.0.10.0	5_exp_RW	37	Rpleas_acq	CS_A	JQQJ	YFFY	LWWL	DXXD	ZHHZ	CPPC	küssen	sonnig	gütig	träumen	vertrauen	genießen	krank	sterben	gierig	töten	versagen	gemein	1	acq_USunple_CSunple2_RW	acq4567_RW	6	12	400	0	300	300	281	46	0	1	1	blank2r.bmp	0	1	+	0	1	blank2r.bmp	492	1	DXXD	492	1	blank2r.bmp	572	3	gemein	866	1	!	-1	1	!	-1	0	0	0	0	0	0	0	0	0	0	0	0	0	0	0	0	0	0	0	0	0	0	0	0	0	0	0	0	0	0
071019	12:16:05	12:27:03	657637	5.0.10.0	5_exp_RW	37	Rpleas_acq	CS_A	JQQJ	YFFY	LWWL	DXXD	ZHHZ	CPPC	küssen	sonnig	gütig	träumen	vertrauen	genießen	krank	sterben	gierig	töten	versagen	gemein	1	acq_USunple_CSunple1_RW	acq4567_RW	6	13	400	0	300	300	546	46	0	1	1	blank2r.bmp	0	1	+	0	1	blank2r.bmp	492	1	LWWL	492	1	blank2r.bmp	572	1	krank	866	1	!	1239	1	!	-1	0	0	0	0	0	0	0	0	0	0	0	0	0	0	0	0	0	0	0	0	0	0	0	0	0	0	0	0	0	0
