date	time	script.currenttime	script.elapsedtime	build	script.currentexpt	subject	expressions.LRpleas_acq	expressions.conditionCS_A	expressions.CSpleas_1	expressions.CSpleas_2	expressions.CSunple_1	expressions.CSunple_2	expressions.distractor_1	expressions.distractor_2	expressions.US_pleas1	expressions.US_pleas2	expressions.US_pleas3	expressions.US_pleas4	expressions.US_pleas5	expressions.US_pleas6	expressions.US_unple1	expressions.US_unple2	expressions.US_unple3	expressions.US_unple4	expressions.US_unple5	expressions.US_unple6	counter.positions_noRW	trialcode	blockcode	blocknum	trialnum	windowcenter	inwindow	pretrialpause	posttrialpause	latency	response	expressions.correctedscore	correct	stimulusnumber1	stimulusitem1	stimulusonset1	stimulusnumber2	stimulusitem2	stimulusonset2	stimulusnumber3	stimulusitem3	stimulusonset3	stimulusnumber4	stimulusitem4	stimulusonset4	stimulusnumber5	stimulusitem5	stimulusonset5	stimulusnumber6	stimulusitem6	stimulusonset6	stimulusnumber7	stimulusitem7	stimulusonset7	stimulusnumber8	stimulusitem8	stimulusonset8	stimulusnumber9	stimulusitem9	stimulusonset9	stimulusnumber10	stimulusitem10	stimulusonset10	stimulusnumber11	stimulusitem11	stimulusonset11	stimulusnumber12	stimulusitem12	stimulusonset12	stimulusnumber13	stimulusitem13	stimulusonset13	stimulusnumber14	stimulusitem14	stimulusonset14	stimulusnumber15	stimulusitem15	stimulusonset15	stimulusnumber16	stimulusitem16	stimulusonset16	stimulusnumber17	stimulusitem17	stimulusonset17	stimulusnumber18	stimulusitem18	stimulusonset18
082719	11:36:12	11:38:35	142181	5.0.10.0	5_exp_noRW	116	Rpleas_acq	CS_B	BZZB	GWWG	VKKV	MQQM	YDDY	JXXJ	schön	fair	ehrlich	spielen	treu	retten	schlecht	faul	eitel	strafen	tot	rächen	53pct	acq_USpleas_CSpleas2_noRW	acq1_noRW	1	1	0	0	300	300	1235	50	0	1	1	blank2r.bmp	0	1	+	0	1	blank2r.bmp	252	1	GWWG	306	2	treu	559	0	0	0	0	0	0	0	0	0	0	0	0	0	0	0	0	0	0	0	0	0	0	0	0	0	0	0	0	0	0	0	0	0	0	0	0	0	0	0
082719	11:36:12	11:38:37	144260	5.0.10.0	5_exp_noRW	116	Rpleas_acq	CS_B	BZZB	GWWG	VKKV	MQQM	YDDY	JXXJ	schön	fair	ehrlich	spielen	treu	retten	schlecht	faul	eitel	strafen	tot	rächen	47pct	acq_USunple_CSunple1_noRW	acq1_noRW	1	2	0	0	300	300	904	46	0	1	1	blank2r.bmp	0	1	+	0	1	blank2r.bmp	252	1	VKKV	306	1	schlecht	559	0	0	0	0	0	0	0	0	0	0	0	0	0	0	0	0	0	0	0	0	0	0	0	0	0	0	0	0	0	0	0	0	0	0	0	0	0	0	0
082719	11:36:12	11:38:39	146260	5.0.10.0	5_exp_noRW	116	Rpleas_acq	CS_B	BZZB	GWWG	VKKV	MQQM	YDDY	JXXJ	schön	fair	ehrlich	spielen	treu	retten	schlecht	faul	eitel	strafen	tot	rächen	47pct	acq_USunple_CSunple1_noRW	acq1_noRW	1	3	0	0	300	300	607	50	0	0	1	blank2r.bmp	0	1	+	0	1	blank2r.bmp	252	1	VKKV	306	3	eitel	559	1	FEHLER	1199	0	0	0	0	0	0	0	0	0	0	0	0	0	0	0	0	0	0	0	0	0	0	0	0	0	0	0	0	0	0	0	0	0	0	0	0
082719	11:36:12	11:38:40	147846	5.0.10.0	5_exp_noRW	116	Rpleas_acq	CS_B	BZZB	GWWG	VKKV	MQQM	YDDY	JXXJ	schön	fair	ehrlich	spielen	treu	retten	schlecht	faul	eitel	strafen	tot	rächen	47pct	acq_USpleas_CSpleas1_noRW	acq1_noRW	1	4	0	0	300	300	623	50	0	1	1	blank2r.bmp	0	1	+	0	1	blank2r.bmp	252	1	BZZB	306	2	fair	559	0	0	0	0	0	0	0	0	0	0	0	0	0	0	0	0	0	0	0	0	0	0	0	0	0	0	0	0	0	0	0	0	0	0	0	0	0	0	0
082719	11:36:12	11:38:42	149591	5.0.10.0	5_exp_noRW	116	Rpleas_acq	CS_B	BZZB	GWWG	VKKV	MQQM	YDDY	JXXJ	schön	fair	ehrlich	spielen	treu	retten	schlecht	faul	eitel	strafen	tot	rächen	53pct	acq_USunple_CSunple2_noRW	acq1_noRW	1	5	0	0	300	300	559	46	0	1	1	blank2r.bmp	0	1	+	0	1	blank2r.bmp	252	1	MQQM	306	3	rächen	559	0	0	0	0	0	0	0	0	0	0	0	0	0	0	0	0	0	0	0	0	0	0	0	0	0	0	0	0	0	0	0	0	0	0	0	0	0	0	0
082719	11:36:12	11:38:44	151284	5.0.10.0	5_exp_noRW	116	Rpleas_acq	CS_B	BZZB	GWWG	VKKV	MQQM	YDDY	JXXJ	schön	fair	ehrlich	spielen	treu	retten	schlecht	faul	eitel	strafen	tot	rächen	47pct	acq_USunple_CSpleas1_noRW	acq1_noRW	1	6	0	0	300	300	521	46	0	1	1	blank2r.bmp	0	1	+	0	1	blank2r.bmp	252	1	BZZB	306	2	faul	559	0	0	0	0	0	0	0	0	0	0	0	0	0	0	0	0	0	0	0	0	0	0	0	0	0	0	0	0	0	0	0	0	0	0	0	0	0	0	0
082719	11:36:12	11:38:45	152843	5.0.10.0	5_exp_noRW	116	Rpleas_acq	CS_B	BZZB	GWWG	VKKV	MQQM	YDDY	JXXJ	schön	fair	ehrlich	spielen	treu	retten	schlecht	faul	eitel	strafen	tot	rächen	53pct	acq_USunple_CSunple2_noRW	acq1_noRW	1	7	0	0	300	300	385	46	0	1	1	blank2r.bmp	0	1	+	0	1	blank2r.bmp	252	1	MQQM	306	2	tot	559	0	0	0	0	0	0	0	0	0	0	0	0	0	0	0	0	0	0	0	0	0	0	0	0	0	0	0	0	0	0	0	0	0	0	0	0	0	0	0
082719	11:36:12	11:38:47	154430	5.0.10.0	5_exp_noRW	116	Rpleas_acq	CS_B	BZZB	GWWG	VKKV	MQQM	YDDY	JXXJ	schön	fair	ehrlich	spielen	treu	retten	schlecht	faul	eitel	strafen	tot	rächen	47pct	acq_USpleas_CSpleas1_noRW	acq1_noRW	1	8	0	0	300	300	416	50	0	1	1	blank2r.bmp	0	1	+	0	1	blank2r.bmp	252	1	BZZB	306	1	schön	559	0	0	0	0	0	0	0	0	0	0	0	0	0	0	0	0	0	0	0	0	0	0	0	0	0	0	0	0	0	0	0	0	0	0	0	0	0	0	0
082719	11:36:12	11:38:49	156229	5.0.10.0	5_exp_noRW	116	Rpleas_acq	CS_B	BZZB	GWWG	VKKV	MQQM	YDDY	JXXJ	schön	fair	ehrlich	spielen	treu	retten	schlecht	faul	eitel	strafen	tot	rächen	53pct	acq_USpleas_CSpleas1_noRW	acq1_noRW	1	9	0	0	300	300	612	50	0	1	1	blank2r.bmp	0	1	+	0	1	blank2r.bmp	252	1	BZZB	306	3	ehrlich	559	0	0	0	0	0	0	0	0	0	0	0	0	0	0	0	0	0	0	0	0	0	0	0	0	0	0	0	0	0	0	0	0	0	0	0	0	0	0	0
082719	11:36:12	11:38:50	157828	5.0.10.0	5_exp_noRW	116	Rpleas_acq	CS_B	BZZB	GWWG	VKKV	MQQM	YDDY	JXXJ	schön	fair	ehrlich	spielen	treu	retten	schlecht	faul	eitel	strafen	tot	rächen	47pct	acq_USunple_CSunple1_noRW	acq1_noRW	1	10	0	0	300	300	436	46	0	1	1	blank2r.bmp	0	1	+	0	1	blank2r.bmp	252	1	VKKV	306	2	faul	559	0	0	0	0	0	0	0	0	0	0	0	0	0	0	0	0	0	0	0	0	0	0	0	0	0	0	0	0	0	0	0	0	0	0	0	0	0	0	0
082719	11:36:12	11:38:52	159721	5.0.10.0	5_exp_noRW	116	Rpleas_acq	CS_B	BZZB	GWWG	VKKV	MQQM	YDDY	JXXJ	schön	fair	ehrlich	spielen	treu	retten	schlecht	faul	eitel	strafen	tot	rächen	47pct	acq_USunple_CSunple1_noRW	acq1_noRW	1	11	0	0	300	300	497	50	0	0	1	blank2r.bmp	0	1	+	0	1	blank2r.bmp	252	1	VKKV	306	3	eitel	559	1	FEHLER	1092	0	0	0	0	0	0	0	0	0	0	0	0	0	0	0	0	0	0	0	0	0	0	0	0	0	0	0	0	0	0	0	0	0	0	0	0
082719	11:36:12	11:38:54	161307	5.0.10.0	5_exp_noRW	116	Rpleas_acq	CS_B	BZZB	GWWG	VKKV	MQQM	YDDY	JXXJ	schön	fair	ehrlich	spielen	treu	retten	schlecht	faul	eitel	strafen	tot	rächen	47pct	acq_USpleas_CSunple1_noRW	acq1_noRW	1	12	0	0	300	300	629	50	0	1	1	blank2r.bmp	0	1	+	0	1	blank2r.bmp	252	1	VKKV	306	2	fair	559	0	0	0	0	0	0	0	0	0	0	0	0	0	0	0	0	0	0	0	0	0	0	0	0	0	0	0	0	0	0	0	0	0	0	0	0	0	0	0
082719	11:36:12	11:38:56	163173	5.0.10.0	5_exp_noRW	116	Rpleas_acq	CS_B	BZZB	GWWG	VKKV	MQQM	YDDY	JXXJ	schön	fair	ehrlich	spielen	treu	retten	schlecht	faul	eitel	strafen	tot	rächen	47pct	acq_USunple_CSpleas2_noRW	acq1_noRW	1	13	0	0	300	300	465	50	0	0	1	blank2r.bmp	0	1	+	0	1	blank2r.bmp	252	1	GWWG	306	2	tot	559	1	FEHLER	1066	0	0	0	0	0	0	0	0	0	0	0	0	0	0	0	0	0	0	0	0	0	0	0	0	0	0	0	0	0	0	0	0	0	0	0	0
082719	11:36:12	11:38:57	164652	5.0.10.0	5_exp_noRW	116	Rpleas_acq	CS_B	BZZB	GWWG	VKKV	MQQM	YDDY	JXXJ	schön	fair	ehrlich	spielen	treu	retten	schlecht	faul	eitel	strafen	tot	rächen	53pct	acq_USunple_CSunple2_noRW	acq1_noRW	1	14	0	0	300	300	519	46	0	1	1	blank2r.bmp	0	1	+	0	1	blank2r.bmp	252	1	MQQM	306	1	strafen	559	0	0	0	0	0	0	0	0	0	0	0	0	0	0	0	0	0	0	0	0	0	0	0	0	0	0	0	0	0	0	0	0	0	0	0	0	0	0	0
082719	11:36:12	11:38:59	166278	5.0.10.0	5_exp_noRW	116	Rpleas_acq	CS_B	BZZB	GWWG	VKKV	MQQM	YDDY	JXXJ	schön	fair	ehrlich	spielen	treu	retten	schlecht	faul	eitel	strafen	tot	rächen	53pct	acq_USpleas_CSpleas2_noRW	acq1_noRW	1	15	0	0	300	300	454	50	0	1	1	blank2r.bmp	0	1	+	0	1	blank2r.bmp	252	1	GWWG	306	1	spielen	559	0	0	0	0	0	0	0	0	0	0	0	0	0	0	0	0	0	0	0	0	0	0	0	0	0	0	0	0	0	0	0	0	0	0	0	0	0	0	0
082719	11:36:12	11:39:00	168077	5.0.10.0	5_exp_noRW	116	Rpleas_acq	CS_B	BZZB	GWWG	VKKV	MQQM	YDDY	JXXJ	schön	fair	ehrlich	spielen	treu	retten	schlecht	faul	eitel	strafen	tot	rächen	47pct	acq_USpleas_CSpleas2_noRW	acq1_noRW	1	16	0	0	300	300	416	46	0	0	1	blank2r.bmp	0	1	+	0	1	blank2r.bmp	252	1	GWWG	306	3	retten	559	1	FEHLER	1012	0	0	0	0	0	0	0	0	0	0	0	0	0	0	0	0	0	0	0	0	0	0	0	0	0	0	0	0	0	0	0	0	0	0	0	0
082719	11:36:12	11:39:02	169583	5.0.10.0	5_exp_noRW	116	Rpleas_acq	CS_B	BZZB	GWWG	VKKV	MQQM	YDDY	JXXJ	schön	fair	ehrlich	spielen	treu	retten	schlecht	faul	eitel	strafen	tot	rächen	53pct	acq_USpleas_CSunple2_noRW	acq1_noRW	1	17	0	0	300	300	541	50	0	1	1	blank2r.bmp	0	1	+	0	1	blank2r.bmp	252	1	MQQM	306	3	retten	559	0	0	0	0	0	0	0	0	0	0	0	0	0	0	0	0	0	0	0	0	0	0	0	0	0	0	0	0	0	0	0	0	0	0	0	0	0	0	0
082719	11:36:12	11:39:04	171396	5.0.10.0	5_exp_noRW	116	Rpleas_acq	CS_B	BZZB	GWWG	VKKV	MQQM	YDDY	JXXJ	schön	fair	ehrlich	spielen	treu	retten	schlecht	faul	eitel	strafen	tot	rächen	53pct	acq_USpleas_CSpleas1_noRW	acq1_noRW	1	18	0	0	300	300	427	46	0	0	1	blank2r.bmp	0	1	+	0	1	blank2r.bmp	252	1	BZZB	306	1	schön	559	1	FEHLER	1026	0	0	0	0	0	0	0	0	0	0	0	0	0	0	0	0	0	0	0	0	0	0	0	0	0	0	0	0	0	0	0	0	0	0	0	0
082719	11:36:12	11:39:05	173115	5.0.10.0	5_exp_noRW	116	Rpleas_acq	CS_B	BZZB	GWWG	VKKV	MQQM	YDDY	JXXJ	schön	fair	ehrlich	spielen	treu	retten	schlecht	faul	eitel	strafen	tot	rächen	47pct	acq_USunple_CSunple2_noRW	acq1_noRW	1	19	0	0	300	300	752	46	0	1	1	blank2r.bmp	0	1	+	0	1	blank2r.bmp	252	1	MQQM	306	1	strafen	559	0	0	0	0	0	0	0	0	0	0	0	0	0	0	0	0	0	0	0	0	0	0	0	0	0	0	0	0	0	0	0	0	0	0	0	0	0	0	0
082719	11:36:12	11:39:07	174821	5.0.10.0	5_exp_noRW	116	Rpleas_acq	CS_B	BZZB	GWWG	VKKV	MQQM	YDDY	JXXJ	schön	fair	ehrlich	spielen	treu	retten	schlecht	faul	eitel	strafen	tot	rächen	47pct	acq_USpleas_CSpleas2_noRW	acq1_noRW	1	20	0	0	300	300	531	50	0	1	1	blank2r.bmp	0	1	+	0	1	blank2r.bmp	252	1	GWWG	306	1	spielen	559	0	0	0	0	0	0	0	0	0	0	0	0	0	0	0	0	0	0	0	0	0	0	0	0	0	0	0	0	0	0	0	0	0	0	0	0	0	0	0
082719	11:36:12	11:39:09	176501	5.0.10.0	5_exp_noRW	116	Rpleas_acq	CS_B	BZZB	GWWG	VKKV	MQQM	YDDY	JXXJ	schön	fair	ehrlich	spielen	treu	retten	schlecht	faul	eitel	strafen	tot	rächen	53pct	acq_USpleas_CSpleas1_noRW	acq1_noRW	1	21	0	0	300	300	502	50	0	1	1	blank2r.bmp	0	1	+	0	1	blank2r.bmp	252	1	BZZB	306	3	ehrlich	559	0	0	0	0	0	0	0	0	0	0	0	0	0	0	0	0	0	0	0	0	0	0	0	0	0	0	0	0	0	0	0	0	0	0	0	0	0	0	0
082719	11:36:12	11:39:11	178166	5.0.10.0	5_exp_noRW	116	Rpleas_acq	CS_B	BZZB	GWWG	VKKV	MQQM	YDDY	JXXJ	schön	fair	ehrlich	spielen	treu	retten	schlecht	faul	eitel	strafen	tot	rächen	47pct	acq_USunple_CSunple1_noRW	acq1_noRW	1	22	0	0	300	300	484	46	0	1	1	blank2r.bmp	0	1	+	0	1	blank2r.bmp	252	1	VKKV	306	2	faul	559	0	0	0	0	0	0	0	0	0	0	0	0	0	0	0	0	0	0	0	0	0	0	0	0	0	0	0	0	0	0	0	0	0	0	0	0	0	0	0
082719	11:36:12	11:39:12	179832	5.0.10.0	5_exp_noRW	116	Rpleas_acq	CS_B	BZZB	GWWG	VKKV	MQQM	YDDY	JXXJ	schön	fair	ehrlich	spielen	treu	retten	schlecht	faul	eitel	strafen	tot	rächen	53pct	acq_USunple_CSunple1_noRW	acq1_noRW	1	23	0	0	300	300	499	46	0	1	1	blank2r.bmp	0	1	+	0	1	blank2r.bmp	252	1	VKKV	306	1	schlecht	559	0	0	0	0	0	0	0	0	0	0	0	0	0	0	0	0	0	0	0	0	0	0	0	0	0	0	0	0	0	0	0	0	0	0	0	0	0	0	0
082719	11:36:12	11:39:14	181485	5.0.10.0	5_exp_noRW	116	Rpleas_acq	CS_B	BZZB	GWWG	VKKV	MQQM	YDDY	JXXJ	schön	fair	ehrlich	spielen	treu	retten	schlecht	faul	eitel	strafen	tot	rächen	47pct	acq_USpleas_CSpleas1_noRW	acq1_noRW	1	24	0	0	300	300	490	50	0	1	1	blank2r.bmp	0	1	+	0	1	blank2r.bmp	252	1	BZZB	306	2	fair	559	0	0	0	0	0	0	0	0	0	0	0	0	0	0	0	0	0	0	0	0	0	0	0	0	0	0	0	0	0	0	0	0	0	0	0	0	0	0	0
082719	11:36:12	11:39:16	183191	5.0.10.0	5_exp_noRW	116	Rpleas_acq	CS_B	BZZB	GWWG	VKKV	MQQM	YDDY	JXXJ	schön	fair	ehrlich	spielen	treu	retten	schlecht	faul	eitel	strafen	tot	rächen	47pct	acq_USpleas_CSunple1_noRW	acq1_noRW	1	25	0	0	300	300	537	50	0	1	1	blank2r.bmp	0	1	+	0	1	blank2r.bmp	252	1	VKKV	306	3	ehrlich	559	0	0	0	0	0	0	0	0	0	0	0	0	0	0	0	0	0	0	0	0	0	0	0	0	0	0	0	0	0	0	0	0	0	0	0	0	0	0	0
082719	11:36:12	11:39:17	184804	5.0.10.0	5_exp_noRW	116	Rpleas_acq	CS_B	BZZB	GWWG	VKKV	MQQM	YDDY	JXXJ	schön	fair	ehrlich	spielen	treu	retten	schlecht	faul	eitel	strafen	tot	rächen	47pct	acq_USpleas_CSpleas1_noRW	acq1_noRW	1	26	0	0	300	300	438	50	0	1	1	blank2r.bmp	0	1	+	0	1	blank2r.bmp	252	1	BZZB	306	3	ehrlich	559	0	0	0	0	0	0	0	0	0	0	0	0	0	0	0	0	0	0	0	0	0	0	0	0	0	0	0	0	0	0	0	0	0	0	0	0	0	0	0
082719	11:36:12	11:39:19	186536	5.0.10.0	5_exp_noRW	116	Rpleas_acq	CS_B	BZZB	GWWG	VKKV	MQQM	YDDY	JXXJ	schön	fair	ehrlich	spielen	treu	retten	schlecht	faul	eitel	strafen	tot	rächen	47pct	acq_USpleas_CSunple2_noRW	acq1_noRW	1	27	0	0	300	300	554	50	0	1	1	blank2r.bmp	0	1	+	0	1	blank2r.bmp	252	1	MQQM	306	2	treu	559	0	0	0	0	0	0	0	0	0	0	0	0	0	0	0	0	0	0	0	0	0	0	0	0	0	0	0	0	0	0	0	0	0	0	0	0	0	0	0
082719	11:36:12	11:39:21	188176	5.0.10.0	5_exp_noRW	116	Rpleas_acq	CS_B	BZZB	GWWG	VKKV	MQQM	YDDY	JXXJ	schön	fair	ehrlich	spielen	treu	retten	schlecht	faul	eitel	strafen	tot	rächen	47pct	acq_USunple_CSunple2_noRW	acq1_noRW	1	28	0	0	300	300	458	46	0	1	1	blank2r.bmp	0	1	+	0	1	blank2r.bmp	252	1	MQQM	306	2	tot	559	0	0	0	0	0	0	0	0	0	0	0	0	0	0	0	0	0	0	0	0	0	0	0	0	0	0	0	0	0	0	0	0	0	0	0	0	0	0	0
082719	11:36:12	11:39:22	189815	5.0.10.0	5_exp_noRW	116	Rpleas_acq	CS_B	BZZB	GWWG	VKKV	MQQM	YDDY	JXXJ	schön	fair	ehrlich	spielen	treu	retten	schlecht	faul	eitel	strafen	tot	rächen	47pct	acq_USpleas_CSpleas1_noRW	acq1_noRW	1	29	0	0	300	300	468	50	0	1	1	blank2r.bmp	0	1	+	0	1	blank2r.bmp	252	1	BZZB	306	1	schön	559	0	0	0	0	0	0	0	0	0	0	0	0	0	0	0	0	0	0	0	0	0	0	0	0	0	0	0	0	0	0	0	0	0	0	0	0	0	0	0
082719	11:36:12	11:39:24	191561	5.0.10.0	5_exp_noRW	116	Rpleas_acq	CS_B	BZZB	GWWG	VKKV	MQQM	YDDY	JXXJ	schön	fair	ehrlich	spielen	treu	retten	schlecht	faul	eitel	strafen	tot	rächen	53pct	acq_USunple_CSpleas1_noRW	acq1_noRW	1	30	0	0	300	300	573	46	0	1	1	blank2r.bmp	0	1	+	0	1	blank2r.bmp	252	1	BZZB	306	3	eitel	559	0	0	0	0	0	0	0	0	0	0	0	0	0	0	0	0	0	0	0	0	0	0	0	0	0	0	0	0	0	0	0	0	0	0	0	0	0	0	0
082719	11:36:12	11:39:26	193280	5.0.10.0	5_exp_noRW	116	Rpleas_acq	CS_B	BZZB	GWWG	VKKV	MQQM	YDDY	JXXJ	schön	fair	ehrlich	spielen	treu	retten	schlecht	faul	eitel	strafen	tot	rächen	53pct	acq_USunple_CSunple1_noRW	acq1_noRW	1	31	0	0	300	300	546	46	0	1	1	blank2r.bmp	0	1	+	0	1	blank2r.bmp	252	1	VKKV	306	2	faul	559	0	0	0	0	0	0	0	0	0	0	0	0	0	0	0	0	0	0	0	0	0	0	0	0	0	0	0	0	0	0	0	0	0	0	0	0	0	0	0
082719	11:36:12	11:39:27	194893	5.0.10.0	5_exp_noRW	116	Rpleas_acq	CS_B	BZZB	GWWG	VKKV	MQQM	YDDY	JXXJ	schön	fair	ehrlich	spielen	treu	retten	schlecht	faul	eitel	strafen	tot	rächen	53pct	acq_USunple_CSunple2_noRW	acq1_noRW	1	32	0	0	300	300	446	46	0	1	1	blank2r.bmp	0	1	+	0	1	blank2r.bmp	252	1	MQQM	306	3	rächen	559	0	0	0	0	0	0	0	0	0	0	0	0	0	0	0	0	0	0	0	0	0	0	0	0	0	0	0	0	0	0	0	0	0	0	0	0	0	0	0
082719	11:36:12	11:39:29	196599	5.0.10.0	5_exp_noRW	116	Rpleas_acq	CS_B	BZZB	GWWG	VKKV	MQQM	YDDY	JXXJ	schön	fair	ehrlich	spielen	treu	retten	schlecht	faul	eitel	strafen	tot	rächen	47pct	acq_USpleas_CSpleas2_noRW	acq1_noRW	1	33	0	0	300	300	524	50	0	1	1	blank2r.bmp	0	1	+	0	1	blank2r.bmp	252	1	GWWG	306	2	treu	559	0	0	0	0	0	0	0	0	0	0	0	0	0	0	0	0	0	0	0	0	0	0	0	0	0	0	0	0	0	0	0	0	0	0	0	0	0	0	0
082719	11:36:12	11:39:31	198265	5.0.10.0	5_exp_noRW	116	Rpleas_acq	CS_B	BZZB	GWWG	VKKV	MQQM	YDDY	JXXJ	schön	fair	ehrlich	spielen	treu	retten	schlecht	faul	eitel	strafen	tot	rächen	47pct	acq_USunple_CSunple1_noRW	acq1_noRW	1	34	0	0	300	300	483	46	0	1	1	blank2r.bmp	0	1	+	0	1	blank2r.bmp	252	1	VKKV	306	1	schlecht	559	0	0	0	0	0	0	0	0	0	0	0	0	0	0	0	0	0	0	0	0	0	0	0	0	0	0	0	0	0	0	0	0	0	0	0	0	0	0	0
082719	11:36:12	11:39:32	199851	5.0.10.0	5_exp_noRW	116	Rpleas_acq	CS_B	BZZB	GWWG	VKKV	MQQM	YDDY	JXXJ	schön	fair	ehrlich	spielen	treu	retten	schlecht	faul	eitel	strafen	tot	rächen	47pct	acq_USunple_CSunple2_noRW	acq1_noRW	1	35	0	0	300	300	405	46	0	1	1	blank2r.bmp	0	1	+	0	1	blank2r.bmp	252	1	MQQM	306	2	tot	559	0	0	0	0	0	0	0	0	0	0	0	0	0	0	0	0	0	0	0	0	0	0	0	0	0	0	0	0	0	0	0	0	0	0	0	0	0	0	0
082719	11:36:12	11:39:34	201704	5.0.10.0	5_exp_noRW	116	Rpleas_acq	CS_B	BZZB	GWWG	VKKV	MQQM	YDDY	JXXJ	schön	fair	ehrlich	spielen	treu	retten	schlecht	faul	eitel	strafen	tot	rächen	53pct	acq_USpleas_CSpleas2_noRW	acq1_noRW	1	36	0	0	300	300	467	46	0	0	1	blank2r.bmp	0	1	+	0	1	blank2r.bmp	252	1	GWWG	306	3	retten	559	1	FEHLER	1066	0	0	0	0	0	0	0	0	0	0	0	0	0	0	0	0	0	0	0	0	0	0	0	0	0	0	0	0	0	0	0	0	0	0	0	0
082719	11:36:12	11:39:36	203210	5.0.10.0	5_exp_noRW	116	Rpleas_acq	CS_B	BZZB	GWWG	VKKV	MQQM	YDDY	JXXJ	schön	fair	ehrlich	spielen	treu	retten	schlecht	faul	eitel	strafen	tot	rächen	47pct	acq_USpleas_CSpleas2_noRW	acq1_noRW	1	37	0	0	300	300	549	50	0	1	1	blank2r.bmp	0	1	+	0	1	blank2r.bmp	252	1	GWWG	306	3	retten	559	0	0	0	0	0	0	0	0	0	0	0	0	0	0	0	0	0	0	0	0	0	0	0	0	0	0	0	0	0	0	0	0	0	0	0	0	0	0	0
082719	11:36:12	11:39:37	204822	5.0.10.0	5_exp_noRW	116	Rpleas_acq	CS_B	BZZB	GWWG	VKKV	MQQM	YDDY	JXXJ	schön	fair	ehrlich	spielen	treu	retten	schlecht	faul	eitel	strafen	tot	rächen	53pct	acq_USpleas_CSpleas2_noRW	acq1_noRW	1	38	0	0	300	300	428	50	0	1	1	blank2r.bmp	0	1	+	0	1	blank2r.bmp	252	1	GWWG	306	2	treu	559	0	0	0	0	0	0	0	0	0	0	0	0	0	0	0	0	0	0	0	0	0	0	0	0	0	0	0	0	0	0	0	0	0	0	0	0	0	0	0
082719	11:36:12	11:39:39	206462	5.0.10.0	5_exp_noRW	116	Rpleas_acq	CS_B	BZZB	GWWG	VKKV	MQQM	YDDY	JXXJ	schön	fair	ehrlich	spielen	treu	retten	schlecht	faul	eitel	strafen	tot	rächen	47pct	acq_USunple_CSpleas2_noRW	acq1_noRW	1	39	0	0	300	300	474	46	0	1	1	blank2r.bmp	0	1	+	0	1	blank2r.bmp	252	1	GWWG	306	1	strafen	559	0	0	0	0	0	0	0	0	0	0	0	0	0	0	0	0	0	0	0	0	0	0	0	0	0	0	0	0	0	0	0	0	0	0	0	0	0	0	0
082719	11:36:12	11:39:41	208181	5.0.10.0	5_exp_noRW	116	Rpleas_acq	CS_B	BZZB	GWWG	VKKV	MQQM	YDDY	JXXJ	schön	fair	ehrlich	spielen	treu	retten	schlecht	faul	eitel	strafen	tot	rächen	53pct	acq_USunple_CSunple2_noRW	acq1_noRW	1	40	0	0	300	300	552	46	0	1	1	blank2r.bmp	0	1	+	0	1	blank2r.bmp	252	1	MQQM	306	3	rächen	559	0	0	0	0	0	0	0	0	0	0	0	0	0	0	0	0	0	0	0	0	0	0	0	0	0	0	0	0	0	0	0	0	0	0	0	0	0	0	0
082719	11:36:12	11:39:42	209954	5.0.10.0	5_exp_noRW	116	Rpleas_acq	CS_B	BZZB	GWWG	VKKV	MQQM	YDDY	JXXJ	schön	fair	ehrlich	spielen	treu	retten	schlecht	faul	eitel	strafen	tot	rächen	47pct	acq_USpleas_CSpleas1_noRW	acq1_noRW	1	41	0	0	300	300	589	50	0	1	1	blank2r.bmp	0	1	+	0	1	blank2r.bmp	252	1	BZZB	306	2	fair	559	0	0	0	0	0	0	0	0	0	0	0	0	0	0	0	0	0	0	0	0	0	0	0	0	0	0	0	0	0	0	0	0	0	0	0	0	0	0	0
082719	11:36:12	11:39:44	212086	5.0.10.0	5_exp_noRW	116	Rpleas_acq	CS_B	BZZB	GWWG	VKKV	MQQM	YDDY	JXXJ	schön	fair	ehrlich	spielen	treu	retten	schlecht	faul	eitel	strafen	tot	rächen	53pct	acq_USunple_CSunple2_noRW	acq1_noRW	1	42	0	0	300	300	966	46	0	1	1	blank2r.bmp	0	1	+	0	1	blank2r.bmp	252	1	MQQM	306	1	strafen	559	0	0	0	0	0	0	0	0	0	0	0	0	0	0	0	0	0	0	0	0	0	0	0	0	0	0	0	0	0	0	0	0	0	0	0	0	0	0	0
082719	11:36:12	11:39:46	213845	5.0.10.0	5_exp_noRW	116	Rpleas_acq	CS_B	BZZB	GWWG	VKKV	MQQM	YDDY	JXXJ	schön	fair	ehrlich	spielen	treu	retten	schlecht	faul	eitel	strafen	tot	rächen	47pct	acq_USpleas_CSpleas1_noRW	acq1_noRW	1	43	0	0	300	300	575	50	0	1	1	blank2r.bmp	0	1	+	0	1	blank2r.bmp	252	1	BZZB	306	3	ehrlich	559	0	0	0	0	0	0	0	0	0	0	0	0	0	0	0	0	0	0	0	0	0	0	0	0	0	0	0	0	0	0	0	0	0	0	0	0	0	0	0
082719	11:36:12	11:39:48	215591	5.0.10.0	5_exp_noRW	116	Rpleas_acq	CS_B	BZZB	GWWG	VKKV	MQQM	YDDY	JXXJ	schön	fair	ehrlich	spielen	treu	retten	schlecht	faul	eitel	strafen	tot	rächen	53pct	acq_USpleas_CSunple2_noRW	acq1_noRW	1	44	0	0	300	300	584	50	0	1	1	blank2r.bmp	0	1	+	0	1	blank2r.bmp	252	1	MQQM	306	1	spielen	559	0	0	0	0	0	0	0	0	0	0	0	0	0	0	0	0	0	0	0	0	0	0	0	0	0	0	0	0	0	0	0	0	0	0	0	0	0	0	0
082719	11:36:12	11:39:50	217177	5.0.10.0	5_exp_noRW	116	Rpleas_acq	CS_B	BZZB	GWWG	VKKV	MQQM	YDDY	JXXJ	schön	fair	ehrlich	spielen	treu	retten	schlecht	faul	eitel	strafen	tot	rächen	53pct	acq_USpleas_CSpleas2_noRW	acq1_noRW	1	45	0	0	300	300	405	50	0	1	1	blank2r.bmp	0	1	+	0	1	blank2r.bmp	252	1	GWWG	306	1	spielen	559	0	0	0	0	0	0	0	0	0	0	0	0	0	0	0	0	0	0	0	0	0	0	0	0	0	0	0	0	0	0	0	0	0	0	0	0	0	0	0
082719	11:36:12	11:39:51	218883	5.0.10.0	5_exp_noRW	116	Rpleas_acq	CS_B	BZZB	GWWG	VKKV	MQQM	YDDY	JXXJ	schön	fair	ehrlich	spielen	treu	retten	schlecht	faul	eitel	strafen	tot	rächen	53pct	acq_USunple_CSunple2_noRW	acq1_noRW	1	46	0	0	300	300	544	46	0	1	1	blank2r.bmp	0	1	+	0	1	blank2r.bmp	252	1	MQQM	306	2	tot	559	0	0	0	0	0	0	0	0	0	0	0	0	0	0	0	0	0	0	0	0	0	0	0	0	0	0	0	0	0	0	0	0	0	0	0	0	0	0	0
082719	11:36:12	11:39:53	220776	5.0.10.0	5_exp_noRW	116	Rpleas_acq	CS_B	BZZB	GWWG	VKKV	MQQM	YDDY	JXXJ	schön	fair	ehrlich	spielen	treu	retten	schlecht	faul	eitel	strafen	tot	rächen	53pct	acq_USpleas_CSpleas2_noRW	acq1_noRW	1	47	0	0	300	300	503	46	0	0	1	blank2r.bmp	0	1	+	0	1	blank2r.bmp	252	1	GWWG	306	3	retten	559	1	FEHLER	1092	0	0	0	0	0	0	0	0	0	0	0	0	0	0	0	0	0	0	0	0	0	0	0	0	0	0	0	0	0	0	0	0	0	0	0	0
082719	11:36:12	11:39:55	222455	5.0.10.0	5_exp_noRW	116	Rpleas_acq	CS_B	BZZB	GWWG	VKKV	MQQM	YDDY	JXXJ	schön	fair	ehrlich	spielen	treu	retten	schlecht	faul	eitel	strafen	tot	rächen	47pct	acq_USunple_CSunple2_noRW	acq1_noRW	1	48	0	0	300	300	728	46	0	1	1	blank2r.bmp	0	1	+	0	1	blank2r.bmp	252	1	MQQM	306	3	rächen	559	0	0	0	0	0	0	0	0	0	0	0	0	0	0	0	0	0	0	0	0	0	0	0	0	0	0	0	0	0	0	0	0	0	0	0	0	0	0	0
082719	11:36:12	11:39:57	224228	5.0.10.0	5_exp_noRW	116	Rpleas_acq	CS_B	BZZB	GWWG	VKKV	MQQM	YDDY	JXXJ	schön	fair	ehrlich	spielen	treu	retten	schlecht	faul	eitel	strafen	tot	rächen	47pct	acq_USunple_CSunple1_noRW	acq1_noRW	1	49	0	0	300	300	594	46	0	1	1	blank2r.bmp	0	1	+	0	1	blank2r.bmp	252	1	VKKV	306	3	eitel	559	0	0	0	0	0	0	0	0	0	0	0	0	0	0	0	0	0	0	0	0	0	0	0	0	0	0	0	0	0	0	0	0	0	0	0	0	0	0	0
082719	11:36:12	11:39:58	225987	5.0.10.0	5_exp_noRW	116	Rpleas_acq	CS_B	BZZB	GWWG	VKKV	MQQM	YDDY	JXXJ	schön	fair	ehrlich	spielen	treu	retten	schlecht	faul	eitel	strafen	tot	rächen	53pct	acq_USunple_CSpleas1_noRW	acq1_noRW	1	50	0	0	300	300	586	46	0	1	1	blank2r.bmp	0	1	+	0	1	blank2r.bmp	252	1	BZZB	306	1	schlecht	559	0	0	0	0	0	0	0	0	0	0	0	0	0	0	0	0	0	0	0	0	0	0	0	0	0	0	0	0	0	0	0	0	0	0	0	0	0	0	0
082719	11:36:12	11:40:00	227666	5.0.10.0	5_exp_noRW	116	Rpleas_acq	CS_B	BZZB	GWWG	VKKV	MQQM	YDDY	JXXJ	schön	fair	ehrlich	spielen	treu	retten	schlecht	faul	eitel	strafen	tot	rächen	53pct	acq_USunple_CSunple2_noRW	acq1_noRW	1	51	0	0	300	300	504	46	0	1	1	blank2r.bmp	0	1	+	0	1	blank2r.bmp	252	1	MQQM	306	1	strafen	559	0	0	0	0	0	0	0	0	0	0	0	0	0	0	0	0	0	0	0	0	0	0	0	0	0	0	0	0	0	0	0	0	0	0	0	0	0	0	0
082719	11:36:12	11:40:02	229825	5.0.10.0	5_exp_noRW	116	Rpleas_acq	CS_B	BZZB	GWWG	VKKV	MQQM	YDDY	JXXJ	schön	fair	ehrlich	spielen	treu	retten	schlecht	faul	eitel	strafen	tot	rächen	47pct	acq_USunple_CSunple1_noRW	acq1_noRW	1	52	0	0	300	300	976	46	0	1	1	blank2r.bmp	0	1	+	0	1	blank2r.bmp	252	1	VKKV	306	3	eitel	559	0	0	0	0	0	0	0	0	0	0	0	0	0	0	0	0	0	0	0	0	0	0	0	0	0	0	0	0	0	0	0	0	0	0	0	0	0	0	0
082719	11:36:12	11:40:04	231718	5.0.10.0	5_exp_noRW	116	Rpleas_acq	CS_B	BZZB	GWWG	VKKV	MQQM	YDDY	JXXJ	schön	fair	ehrlich	spielen	treu	retten	schlecht	faul	eitel	strafen	tot	rächen	53pct	acq_USpleas_CSpleas1_noRW	acq1_noRW	1	53	0	0	300	300	716	50	0	1	1	blank2r.bmp	0	1	+	0	1	blank2r.bmp	252	1	BZZB	306	2	fair	559	0	0	0	0	0	0	0	0	0	0	0	0	0	0	0	0	0	0	0	0	0	0	0	0	0	0	0	0	0	0	0	0	0	0	0	0	0	0	0
082719	11:36:12	11:40:06	233291	5.0.10.0	5_exp_noRW	116	Rpleas_acq	CS_B	BZZB	GWWG	VKKV	MQQM	YDDY	JXXJ	schön	fair	ehrlich	spielen	treu	retten	schlecht	faul	eitel	strafen	tot	rächen	47pct	acq_USpleas_CSpleas2_noRW	acq1_noRW	1	54	0	0	300	300	400	50	0	1	1	blank2r.bmp	0	1	+	0	1	blank2r.bmp	252	1	GWWG	306	1	spielen	559	0	0	0	0	0	0	0	0	0	0	0	0	0	0	0	0	0	0	0	0	0	0	0	0	0	0	0	0	0	0	0	0	0	0	0	0	0	0	0
082719	11:36:12	11:40:07	234863	5.0.10.0	5_exp_noRW	116	Rpleas_acq	CS_B	BZZB	GWWG	VKKV	MQQM	YDDY	JXXJ	schön	fair	ehrlich	spielen	treu	retten	schlecht	faul	eitel	strafen	tot	rächen	47pct	acq_USpleas_CSunple1_noRW	acq1_noRW	1	55	0	0	300	300	403	50	0	1	1	blank2r.bmp	0	1	+	0	1	blank2r.bmp	252	1	VKKV	306	1	schön	559	0	0	0	0	0	0	0	0	0	0	0	0	0	0	0	0	0	0	0	0	0	0	0	0	0	0	0	0	0	0	0	0	0	0	0	0	0	0	0
082719	11:36:12	11:40:09	236489	5.0.10.0	5_exp_noRW	116	Rpleas_acq	CS_B	BZZB	GWWG	VKKV	MQQM	YDDY	JXXJ	schön	fair	ehrlich	spielen	treu	retten	schlecht	faul	eitel	strafen	tot	rächen	53pct	acq_USpleas_CSpleas2_noRW	acq1_noRW	1	56	0	0	300	300	449	50	0	1	1	blank2r.bmp	0	1	+	0	1	blank2r.bmp	252	1	GWWG	306	2	treu	559	0	0	0	0	0	0	0	0	0	0	0	0	0	0	0	0	0	0	0	0	0	0	0	0	0	0	0	0	0	0	0	0	0	0	0	0	0	0	0
082719	11:36:12	11:40:10	238009	5.0.10.0	5_exp_noRW	116	Rpleas_acq	CS_B	BZZB	GWWG	VKKV	MQQM	YDDY	JXXJ	schön	fair	ehrlich	spielen	treu	retten	schlecht	faul	eitel	strafen	tot	rächen	53pct	acq_USpleas_CSpleas1_noRW	acq1_noRW	1	57	0	0	300	300	356	50	0	1	1	blank2r.bmp	0	1	+	0	1	blank2r.bmp	252	1	BZZB	306	1	schön	559	0	0	0	0	0	0	0	0	0	0	0	0	0	0	0	0	0	0	0	0	0	0	0	0	0	0	0	0	0	0	0	0	0	0	0	0	0	0	0
082719	11:36:12	11:40:12	239648	5.0.10.0	5_exp_noRW	116	Rpleas_acq	CS_B	BZZB	GWWG	VKKV	MQQM	YDDY	JXXJ	schön	fair	ehrlich	spielen	treu	retten	schlecht	faul	eitel	strafen	tot	rächen	47pct	acq_USunple_CSunple1_noRW	acq1_noRW	1	58	0	0	300	300	457	46	0	1	1	blank2r.bmp	0	1	+	0	1	blank2r.bmp	252	1	VKKV	306	2	faul	559	0	0	0	0	0	0	0	0	0	0	0	0	0	0	0	0	0	0	0	0	0	0	0	0	0	0	0	0	0	0	0	0	0	0	0	0	0	0	0
082719	11:36:12	11:40:14	241287	5.0.10.0	5_exp_noRW	116	Rpleas_acq	CS_B	BZZB	GWWG	VKKV	MQQM	YDDY	JXXJ	schön	fair	ehrlich	spielen	treu	retten	schlecht	faul	eitel	strafen	tot	rächen	53pct	acq_USunple_CSpleas2_noRW	acq1_noRW	1	59	0	0	300	300	463	46	0	1	1	blank2r.bmp	0	1	+	0	1	blank2r.bmp	252	1	GWWG	306	3	rächen	559	0	0	0	0	0	0	0	0	0	0	0	0	0	0	0	0	0	0	0	0	0	0	0	0	0	0	0	0	0	0	0	0	0	0	0	0	0	0	0
082719	11:36:12	11:40:15	243060	5.0.10.0	5_exp_noRW	116	Rpleas_acq	CS_B	BZZB	GWWG	VKKV	MQQM	YDDY	JXXJ	schön	fair	ehrlich	spielen	treu	retten	schlecht	faul	eitel	strafen	tot	rächen	47pct	acq_USunple_CSunple1_noRW	acq1_noRW	1	60	0	0	300	300	587	46	0	1	1	blank2r.bmp	0	1	+	0	1	blank2r.bmp	252	1	VKKV	306	1	schlecht	559	0	0	0	0	0	0	0	0	0	0	0	0	0	0	0	0	0	0	0	0	0	0	0	0	0	0	0	0	0	0	0	0	0	0	0	0	0	0	0
082719	11:36:12	11:40:17	244646	5.0.10.0	5_exp_noRW	116	Rpleas_acq	CS_B	BZZB	GWWG	VKKV	MQQM	YDDY	JXXJ	schön	fair	ehrlich	spielen	treu	retten	schlecht	faul	eitel	strafen	tot	rächen	47pct	acq_USpleas_CSpleas2_noRW	acq1_noRW	1	61	0	0	300	300	418	50	0	1	1	blank2r.bmp	0	1	+	0	1	blank2r.bmp	252	1	GWWG	306	1	spielen	559	0	0	0	0	0	0	0	0	0	0	0	0	0	0	0	0	0	0	0	0	0	0	0	0	0	0	0	0	0	0	0	0	0	0	0	0	0	0	0
082719	11:36:12	11:40:19	246738	5.0.10.0	5_exp_noRW	116	Rpleas_acq	CS_B	BZZB	GWWG	VKKV	MQQM	YDDY	JXXJ	schön	fair	ehrlich	spielen	treu	retten	schlecht	faul	eitel	strafen	tot	rächen	47pct	acq_USpleas_CSunple2_noRW	acq1_noRW	1	62	0	0	300	300	701	46	0	0	1	blank2r.bmp	0	1	+	0	1	blank2r.bmp	252	1	MQQM	306	3	retten	559	1	FEHLER	1292	0	0	0	0	0	0	0	0	0	0	0	0	0	0	0	0	0	0	0	0	0	0	0	0	0	0	0	0	0	0	0	0	0	0	0	0
082719	11:36:12	11:40:21	248151	5.0.10.0	5_exp_noRW	116	Rpleas_acq	CS_B	BZZB	GWWG	VKKV	MQQM	YDDY	JXXJ	schön	fair	ehrlich	spielen	treu	retten	schlecht	faul	eitel	strafen	tot	rächen	47pct	acq_USunple_CSunple2_noRW	acq1_noRW	1	63	0	0	300	300	447	46	0	1	1	blank2r.bmp	0	1	+	0	1	blank2r.bmp	252	1	MQQM	306	2	tot	559	0	0	0	0	0	0	0	0	0	0	0	0	0	0	0	0	0	0	0	0	0	0	0	0	0	0	0	0	0	0	0	0	0	0	0	0	0	0	0
082719	11:36:12	11:40:22	249977	5.0.10.0	5_exp_noRW	116	Rpleas_acq	CS_B	BZZB	GWWG	VKKV	MQQM	YDDY	JXXJ	schön	fair	ehrlich	spielen	treu	retten	schlecht	faul	eitel	strafen	tot	rächen	47pct	acq_USpleas_CSpleas1_noRW	acq1_noRW	1	64	0	0	300	300	435	46	0	0	1	blank2r.bmp	0	1	+	0	1	blank2r.bmp	252	1	BZZB	306	2	fair	559	1	FEHLER	1026	0	0	0	0	0	0	0	0	0	0	0	0	0	0	0	0	0	0	0	0	0	0	0	0	0	0	0	0	0	0	0	0	0	0	0	0
082719	11:36:12	11:40:24	251470	5.0.10.0	5_exp_noRW	116	Rpleas_acq	CS_B	BZZB	GWWG	VKKV	MQQM	YDDY	JXXJ	schön	fair	ehrlich	spielen	treu	retten	schlecht	faul	eitel	strafen	tot	rächen	47pct	acq_USunple_CSunple1_noRW	acq1_noRW	1	65	0	0	300	300	538	46	0	1	1	blank2r.bmp	0	1	+	0	1	blank2r.bmp	252	1	VKKV	306	2	faul	559	0	0	0	0	0	0	0	0	0	0	0	0	0	0	0	0	0	0	0	0	0	0	0	0	0	0	0	0	0	0	0	0	0	0	0	0	0	0	0
082719	11:36:12	11:40:26	253576	5.0.10.0	5_exp_noRW	116	Rpleas_acq	CS_B	BZZB	GWWG	VKKV	MQQM	YDDY	JXXJ	schön	fair	ehrlich	spielen	treu	retten	schlecht	faul	eitel	strafen	tot	rächen	47pct	acq_USpleas_CSpleas2_noRW	acq1_noRW	1	66	0	0	300	300	938	50	0	1	1	blank2r.bmp	0	1	+	0	1	blank2r.bmp	252	1	GWWG	306	2	treu	559	0	0	0	0	0	0	0	0	0	0	0	0	0	0	0	0	0	0	0	0	0	0	0	0	0	0	0	0	0	0	0	0	0	0	0	0	0	0	0
082719	11:36:12	11:40:28	255375	5.0.10.0	5_exp_noRW	116	Rpleas_acq	CS_B	BZZB	GWWG	VKKV	MQQM	YDDY	JXXJ	schön	fair	ehrlich	spielen	treu	retten	schlecht	faul	eitel	strafen	tot	rächen	47pct	acq_USunple_CSpleas2_noRW	acq1_noRW	1	67	0	0	300	300	628	46	0	1	1	blank2r.bmp	0	1	+	0	1	blank2r.bmp	252	1	GWWG	306	2	tot	559	0	0	0	0	0	0	0	0	0	0	0	0	0	0	0	0	0	0	0	0	0	0	0	0	0	0	0	0	0	0	0	0	0	0	0	0	0	0	0
082719	11:36:12	11:40:29	257041	5.0.10.0	5_exp_noRW	116	Rpleas_acq	CS_B	BZZB	GWWG	VKKV	MQQM	YDDY	JXXJ	schön	fair	ehrlich	spielen	treu	retten	schlecht	faul	eitel	strafen	tot	rächen	47pct	acq_USpleas_CSpleas1_noRW	acq1_noRW	1	68	0	0	300	300	490	50	0	1	1	blank2r.bmp	0	1	+	0	1	blank2r.bmp	252	1	BZZB	306	1	schön	559	0	0	0	0	0	0	0	0	0	0	0	0	0	0	0	0	0	0	0	0	0	0	0	0	0	0	0	0	0	0	0	0	0	0	0	0	0	0	0
082719	11:36:12	11:40:31	258694	5.0.10.0	5_exp_noRW	116	Rpleas_acq	CS_B	BZZB	GWWG	VKKV	MQQM	YDDY	JXXJ	schön	fair	ehrlich	spielen	treu	retten	schlecht	faul	eitel	strafen	tot	rächen	47pct	acq_USunple_CSunple1_noRW	acq1_noRW	1	69	0	0	300	300	474	46	0	1	1	blank2r.bmp	0	1	+	0	1	blank2r.bmp	252	1	VKKV	306	1	schlecht	559	0	0	0	0	0	0	0	0	0	0	0	0	0	0	0	0	0	0	0	0	0	0	0	0	0	0	0	0	0	0	0	0	0	0	0	0	0	0	0
082719	11:36:12	11:40:33	260293	5.0.10.0	5_exp_noRW	116	Rpleas_acq	CS_B	BZZB	GWWG	VKKV	MQQM	YDDY	JXXJ	schön	fair	ehrlich	spielen	treu	retten	schlecht	faul	eitel	strafen	tot	rächen	53pct	acq_USunple_CSunple2_noRW	acq1_noRW	1	70	0	0	300	300	420	46	0	1	1	blank2r.bmp	0	1	+	0	1	blank2r.bmp	252	1	MQQM	306	3	rächen	559	0	0	0	0	0	0	0	0	0	0	0	0	0	0	0	0	0	0	0	0	0	0	0	0	0	0	0	0	0	0	0	0	0	0	0	0	0	0	0
082719	11:36:12	11:40:34	261932	5.0.10.0	5_exp_noRW	116	Rpleas_acq	CS_B	BZZB	GWWG	VKKV	MQQM	YDDY	JXXJ	schön	fair	ehrlich	spielen	treu	retten	schlecht	faul	eitel	strafen	tot	rächen	53pct	acq_USunple_CSunple2_noRW	acq1_noRW	1	71	0	0	300	300	453	46	0	1	1	blank2r.bmp	0	1	+	0	1	blank2r.bmp	252	1	MQQM	306	1	strafen	559	0	0	0	0	0	0	0	0	0	0	0	0	0	0	0	0	0	0	0	0	0	0	0	0	0	0	0	0	0	0	0	0	0	0	0	0	0	0	0
082719	11:36:12	11:40:36	264065	5.0.10.0	5_exp_noRW	116	Rpleas_acq	CS_B	BZZB	GWWG	VKKV	MQQM	YDDY	JXXJ	schön	fair	ehrlich	spielen	treu	retten	schlecht	faul	eitel	strafen	tot	rächen	47pct	acq_USunple_CSpleas1_noRW	acq1_noRW	1	72	0	0	300	300	968	46	0	1	1	blank2r.bmp	0	1	+	0	1	blank2r.bmp	252	1	BZZB	306	3	eitel	559	0	0	0	0	0	0	0	0	0	0	0	0	0	0	0	0	0	0	0	0	0	0	0	0	0	0	0	0	0	0	0	0	0	0	0	0	0	0	0
082719	11:36:12	11:40:38	265744	5.0.10.0	5_exp_noRW	116	Rpleas_acq	CS_B	BZZB	GWWG	VKKV	MQQM	YDDY	JXXJ	schön	fair	ehrlich	spielen	treu	retten	schlecht	faul	eitel	strafen	tot	rächen	53pct	acq_USpleas_CSpleas2_noRW	acq1_noRW	1	73	0	0	300	300	494	50	0	1	1	blank2r.bmp	0	1	+	0	1	blank2r.bmp	252	1	GWWG	306	3	retten	559	0	0	0	0	0	0	0	0	0	0	0	0	0	0	0	0	0	0	0	0	0	0	0	0	0	0	0	0	0	0	0	0	0	0	0	0	0	0	0
082719	11:36:12	11:40:40	267477	5.0.10.0	5_exp_noRW	116	Rpleas_acq	CS_B	BZZB	GWWG	VKKV	MQQM	YDDY	JXXJ	schön	fair	ehrlich	spielen	treu	retten	schlecht	faul	eitel	strafen	tot	rächen	47pct	acq_USunple_CSunple1_noRW	acq1_noRW	1	74	0	0	300	300	570	46	0	1	1	blank2r.bmp	0	1	+	0	1	blank2r.bmp	252	1	VKKV	306	3	eitel	559	0	0	0	0	0	0	0	0	0	0	0	0	0	0	0	0	0	0	0	0	0	0	0	0	0	0	0	0	0	0	0	0	0	0	0	0	0	0	0
082719	11:36:12	11:40:42	269143	5.0.10.0	5_exp_noRW	116	Rpleas_acq	CS_B	BZZB	GWWG	VKKV	MQQM	YDDY	JXXJ	schön	fair	ehrlich	spielen	treu	retten	schlecht	faul	eitel	strafen	tot	rächen	53pct	acq_USunple_CSunple2_noRW	acq1_noRW	1	75	0	0	300	300	485	46	0	1	1	blank2r.bmp	0	1	+	0	1	blank2r.bmp	252	1	MQQM	306	2	tot	559	0	0	0	0	0	0	0	0	0	0	0	0	0	0	0	0	0	0	0	0	0	0	0	0	0	0	0	0	0	0	0	0	0	0	0	0	0	0	0
082719	11:36:12	11:40:43	270955	5.0.10.0	5_exp_noRW	116	Rpleas_acq	CS_B	BZZB	GWWG	VKKV	MQQM	YDDY	JXXJ	schön	fair	ehrlich	spielen	treu	retten	schlecht	faul	eitel	strafen	tot	rächen	47pct	acq_USpleas_CSpleas2_noRW	acq1_noRW	1	76	0	0	300	300	648	50	0	1	1	blank2r.bmp	0	1	+	0	1	blank2r.bmp	252	1	GWWG	306	2	treu	559	0	0	0	0	0	0	0	0	0	0	0	0	0	0	0	0	0	0	0	0	0	0	0	0	0	0	0	0	0	0	0	0	0	0	0	0	0	0	0
082719	11:36:12	11:40:45	272648	5.0.10.0	5_exp_noRW	116	Rpleas_acq	CS_B	BZZB	GWWG	VKKV	MQQM	YDDY	JXXJ	schön	fair	ehrlich	spielen	treu	retten	schlecht	faul	eitel	strafen	tot	rächen	47pct	acq_USpleas_CSunple1_noRW	acq1_noRW	1	77	0	0	300	300	514	50	0	1	1	blank2r.bmp	0	1	+	0	1	blank2r.bmp	252	1	VKKV	306	2	fair	559	0	0	0	0	0	0	0	0	0	0	0	0	0	0	0	0	0	0	0	0	0	0	0	0	0	0	0	0	0	0	0	0	0	0	0	0	0	0	0
082719	11:36:12	11:40:47	274314	5.0.10.0	5_exp_noRW	116	Rpleas_acq	CS_B	BZZB	GWWG	VKKV	MQQM	YDDY	JXXJ	schön	fair	ehrlich	spielen	treu	retten	schlecht	faul	eitel	strafen	tot	rächen	53pct	acq_USpleas_CSpleas1_noRW	acq1_noRW	1	78	0	0	300	300	484	50	0	1	1	blank2r.bmp	0	1	+	0	1	blank2r.bmp	252	1	BZZB	306	3	ehrlich	559	0	0	0	0	0	0	0	0	0	0	0	0	0	0	0	0	0	0	0	0	0	0	0	0	0	0	0	0	0	0	0	0	0	0	0	0	0	0	0
082719	11:36:12	11:40:48	275940	5.0.10.0	5_exp_noRW	116	Rpleas_acq	CS_B	BZZB	GWWG	VKKV	MQQM	YDDY	JXXJ	schön	fair	ehrlich	spielen	treu	retten	schlecht	faul	eitel	strafen	tot	rächen	53pct	acq_USpleas_CSpleas1_noRW	acq1_noRW	1	79	0	0	300	300	450	50	0	1	1	blank2r.bmp	0	1	+	0	1	blank2r.bmp	252	1	BZZB	306	2	fair	559	0	0	0	0	0	0	0	0	0	0	0	0	0	0	0	0	0	0	0	0	0	0	0	0	0	0	0	0	0	0	0	0	0	0	0	0	0	0	0
082719	11:36:12	11:40:50	277979	5.0.10.0	5_exp_noRW	116	Rpleas_acq	CS_B	BZZB	GWWG	VKKV	MQQM	YDDY	JXXJ	schön	fair	ehrlich	spielen	treu	retten	schlecht	faul	eitel	strafen	tot	rächen	53pct	acq_USunple_CSunple1_noRW	acq1_noRW	1	80	0	0	300	300	854	46	0	1	1	blank2r.bmp	0	1	+	0	1	blank2r.bmp	252	1	VKKV	306	3	eitel	559	0	0	0	0	0	0	0	0	0	0	0	0	0	0	0	0	0	0	0	0	0	0	0	0	0	0	0	0	0	0	0	0	0	0	0	0	0	0	0
082719	11:36:12	11:41:06	293919	5.0.10.0	5_exp_noRW	116	Rpleas_acq	CS_B	BZZB	GWWG	VKKV	MQQM	YDDY	JXXJ	schön	fair	ehrlich	spielen	treu	retten	schlecht	faul	eitel	strafen	tot	rächen	47pct	acq_USpleas_CSunple2_noRW	acq23456_noRW	2	1	0	0	300	300	598	50	0	1	1	blank2r.bmp	0	1	+	0	1	blank2r.bmp	252	1	MQQM	306	2	treu	559	0	0	0	0	0	0	0	0	0	0	0	0	0	0	0	0	0	0	0	0	0	0	0	0	0	0	0	0	0	0	0	0	0	0	0	0	0	0	0
082719	11:36:12	11:41:08	295652	5.0.10.0	5_exp_noRW	116	Rpleas_acq	CS_B	BZZB	GWWG	VKKV	MQQM	YDDY	JXXJ	schön	fair	ehrlich	spielen	treu	retten	schlecht	faul	eitel	strafen	tot	rächen	53pct	acq_USunple_CSunple1_noRW	acq23456_noRW	2	2	0	0	300	300	556	46	0	1	1	blank2r.bmp	0	1	+	0	1	blank2r.bmp	252	1	VKKV	306	2	faul	559	0	0	0	0	0	0	0	0	0	0	0	0	0	0	0	0	0	0	0	0	0	0	0	0	0	0	0	0	0	0	0	0	0	0	0	0	0	0	0
082719	11:36:12	11:41:10	297278	5.0.10.0	5_exp_noRW	116	Rpleas_acq	CS_B	BZZB	GWWG	VKKV	MQQM	YDDY	JXXJ	schön	fair	ehrlich	spielen	treu	retten	schlecht	faul	eitel	strafen	tot	rächen	47pct	acq_USpleas_CSpleas1_noRW	acq23456_noRW	2	3	0	0	300	300	441	50	0	1	1	blank2r.bmp	0	1	+	0	1	blank2r.bmp	252	1	BZZB	306	3	ehrlich	559	0	0	0	0	0	0	0	0	0	0	0	0	0	0	0	0	0	0	0	0	0	0	0	0	0	0	0	0	0	0	0	0	0	0	0	0	0	0	0
082719	11:36:12	11:41:11	299050	5.0.10.0	5_exp_noRW	116	Rpleas_acq	CS_B	BZZB	GWWG	VKKV	MQQM	YDDY	JXXJ	schön	fair	ehrlich	spielen	treu	retten	schlecht	faul	eitel	strafen	tot	rächen	53pct	acq_USunple_CSunple2_noRW	acq23456_noRW	2	4	0	0	300	300	586	46	0	1	1	blank2r.bmp	0	1	+	0	1	blank2r.bmp	252	1	MQQM	306	1	strafen	559	0	0	0	0	0	0	0	0	0	0	0	0	0	0	0	0	0	0	0	0	0	0	0	0	0	0	0	0	0	0	0	0	0	0	0	0	0	0	0
082719	11:36:12	11:41:13	300743	5.0.10.0	5_exp_noRW	116	Rpleas_acq	CS_B	BZZB	GWWG	VKKV	MQQM	YDDY	JXXJ	schön	fair	ehrlich	spielen	treu	retten	schlecht	faul	eitel	strafen	tot	rächen	47pct	acq_USunple_CSunple1_noRW	acq23456_noRW	2	5	0	0	300	300	527	46	0	1	1	blank2r.bmp	0	1	+	0	1	blank2r.bmp	252	1	VKKV	306	1	schlecht	559	0	0	0	0	0	0	0	0	0	0	0	0	0	0	0	0	0	0	0	0	0	0	0	0	0	0	0	0	0	0	0	0	0	0	0	0	0	0	0
082719	11:36:12	11:41:15	302382	5.0.10.0	5_exp_noRW	116	Rpleas_acq	CS_B	BZZB	GWWG	VKKV	MQQM	YDDY	JXXJ	schön	fair	ehrlich	spielen	treu	retten	schlecht	faul	eitel	strafen	tot	rächen	47pct	acq_USpleas_CSunple1_noRW	acq23456_noRW	2	6	0	0	300	300	454	50	0	1	1	blank2r.bmp	0	1	+	0	1	blank2r.bmp	252	1	VKKV	306	1	schön	559	0	0	0	0	0	0	0	0	0	0	0	0	0	0	0	0	0	0	0	0	0	0	0	0	0	0	0	0	0	0	0	0	0	0	0	0	0	0	0
082719	11:36:12	11:41:16	303915	5.0.10.0	5_exp_noRW	116	Rpleas_acq	CS_B	BZZB	GWWG	VKKV	MQQM	YDDY	JXXJ	schön	fair	ehrlich	spielen	treu	retten	schlecht	faul	eitel	strafen	tot	rächen	53pct	acq_USpleas_CSpleas1_noRW	acq23456_noRW	2	7	0	0	300	300	365	50	0	1	1	blank2r.bmp	0	1	+	0	1	blank2r.bmp	252	1	BZZB	306	1	schön	559	0	0	0	0	0	0	0	0	0	0	0	0	0	0	0	0	0	0	0	0	0	0	0	0	0	0	0	0	0	0	0	0	0	0	0	0	0	0	0
082719	11:36:12	11:41:18	305568	5.0.10.0	5_exp_noRW	116	Rpleas_acq	CS_B	BZZB	GWWG	VKKV	MQQM	YDDY	JXXJ	schön	fair	ehrlich	spielen	treu	retten	schlecht	faul	eitel	strafen	tot	rächen	53pct	acq_USunple_CSunple2_noRW	acq23456_noRW	2	8	0	0	300	300	488	46	0	1	1	blank2r.bmp	0	1	+	0	1	blank2r.bmp	252	1	MQQM	306	3	rächen	559	0	0	0	0	0	0	0	0	0	0	0	0	0	0	0	0	0	0	0	0	0	0	0	0	0	0	0	0	0	0	0	0	0	0	0	0	0	0	0
082719	11:36:12	11:41:20	307194	5.0.10.0	5_exp_noRW	116	Rpleas_acq	CS_B	BZZB	GWWG	VKKV	MQQM	YDDY	JXXJ	schön	fair	ehrlich	spielen	treu	retten	schlecht	faul	eitel	strafen	tot	rächen	53pct	acq_USpleas_CSpleas1_noRW	acq23456_noRW	2	9	0	0	300	300	441	50	0	1	1	blank2r.bmp	0	1	+	0	1	blank2r.bmp	252	1	BZZB	306	3	ehrlich	559	0	0	0	0	0	0	0	0	0	0	0	0	0	0	0	0	0	0	0	0	0	0	0	0	0	0	0	0	0	0	0	0	0	0	0	0	0	0	0
082719	11:36:12	11:41:21	308727	5.0.10.0	5_exp_noRW	116	Rpleas_acq	CS_B	BZZB	GWWG	VKKV	MQQM	YDDY	JXXJ	schön	fair	ehrlich	spielen	treu	retten	schlecht	faul	eitel	strafen	tot	rächen	47pct	acq_USunple_CSunple2_noRW	acq23456_noRW	2	10	0	0	300	300	361	46	0	1	1	blank2r.bmp	0	1	+	0	1	blank2r.bmp	252	1	MQQM	306	3	rächen	559	0	0	0	0	0	0	0	0	0	0	0	0	0	0	0	0	0	0	0	0	0	0	0	0	0	0	0	0	0	0	0	0	0	0	0	0	0	0	0
082719	11:36:12	11:41:23	310486	5.0.10.0	5_exp_noRW	116	Rpleas_acq	CS_B	BZZB	GWWG	VKKV	MQQM	YDDY	JXXJ	schön	fair	ehrlich	spielen	treu	retten	schlecht	faul	eitel	strafen	tot	rächen	47pct	acq_USunple_CSpleas1_noRW	acq23456_noRW	2	11	0	0	300	300	380	50	0	0	1	blank2r.bmp	0	1	+	0	1	blank2r.bmp	252	1	BZZB	306	2	faul	559	1	FEHLER	972	0	0	0	0	0	0	0	0	0	0	0	0	0	0	0	0	0	0	0	0	0	0	0	0	0	0	0	0	0	0	0	0	0	0	0	0
082719	11:36:12	11:41:25	312245	5.0.10.0	5_exp_noRW	116	Rpleas_acq	CS_B	BZZB	GWWG	VKKV	MQQM	YDDY	JXXJ	schön	fair	ehrlich	spielen	treu	retten	schlecht	faul	eitel	strafen	tot	rächen	47pct	acq_USpleas_CSpleas2_noRW	acq23456_noRW	2	12	0	0	300	300	579	46	0	0	1	blank2r.bmp	0	1	+	0	1	blank2r.bmp	252	1	GWWG	306	3	retten	559	1	FEHLER	1172	0	0	0	0	0	0	0	0	0	0	0	0	0	0	0	0	0	0	0	0	0	0	0	0	0	0	0	0	0	0	0	0	0	0	0	0
082719	11:36:12	11:41:26	313858	5.0.10.0	5_exp_noRW	116	Rpleas_acq	CS_B	BZZB	GWWG	VKKV	MQQM	YDDY	JXXJ	schön	fair	ehrlich	spielen	treu	retten	schlecht	faul	eitel	strafen	tot	rächen	47pct	acq_USunple_CSunple1_noRW	acq23456_noRW	2	13	0	0	300	300	433	50	0	0	1	blank2r.bmp	0	1	+	0	1	blank2r.bmp	252	1	VKKV	306	2	faul	559	1	FEHLER	1026	0	0	0	0	0	0	0	0	0	0	0	0	0	0	0	0	0	0	0	0	0	0	0	0	0	0	0	0	0	0	0	0	0	0	0	0
082719	11:36:12	11:41:28	315271	5.0.10.0	5_exp_noRW	116	Rpleas_acq	CS_B	BZZB	GWWG	VKKV	MQQM	YDDY	JXXJ	schön	fair	ehrlich	spielen	treu	retten	schlecht	faul	eitel	strafen	tot	rächen	53pct	acq_USpleas_CSpleas2_noRW	acq23456_noRW	2	14	0	0	300	300	439	50	0	1	1	blank2r.bmp	0	1	+	0	1	blank2r.bmp	252	1	GWWG	306	1	spielen	559	0	0	0	0	0	0	0	0	0	0	0	0	0	0	0	0	0	0	0	0	0	0	0	0	0	0	0	0	0	0	0	0	0	0	0	0	0	0	0
082719	11:36:12	11:41:29	316910	5.0.10.0	5_exp_noRW	116	Rpleas_acq	CS_B	BZZB	GWWG	VKKV	MQQM	YDDY	JXXJ	schön	fair	ehrlich	spielen	treu	retten	schlecht	faul	eitel	strafen	tot	rächen	53pct	acq_USunple_CSunple1_noRW	acq23456_noRW	2	15	0	0	300	300	478	46	0	1	1	blank2r.bmp	0	1	+	0	1	blank2r.bmp	252	1	VKKV	306	1	schlecht	559	0	0	0	0	0	0	0	0	0	0	0	0	0	0	0	0	0	0	0	0	0	0	0	0	0	0	0	0	0	0	0	0	0	0	0	0	0	0	0
082719	11:36:12	11:41:31	318656	5.0.10.0	5_exp_noRW	116	Rpleas_acq	CS_B	BZZB	GWWG	VKKV	MQQM	YDDY	JXXJ	schön	fair	ehrlich	spielen	treu	retten	schlecht	faul	eitel	strafen	tot	rächen	53pct	acq_USpleas_CSpleas2_noRW	acq23456_noRW	2	16	0	0	300	300	567	50	0	1	1	blank2r.bmp	0	1	+	0	1	blank2r.bmp	252	1	GWWG	306	1	spielen	559	0	0	0	0	0	0	0	0	0	0	0	0	0	0	0	0	0	0	0	0	0	0	0	0	0	0	0	0	0	0	0	0	0	0	0	0	0	0	0
082719	11:36:12	11:41:33	320402	5.0.10.0	5_exp_noRW	116	Rpleas_acq	CS_B	BZZB	GWWG	VKKV	MQQM	YDDY	JXXJ	schön	fair	ehrlich	spielen	treu	retten	schlecht	faul	eitel	strafen	tot	rächen	53pct	acq_USpleas_CSpleas2_noRW	acq23456_noRW	2	17	0	0	300	300	582	50	0	1	1	blank2r.bmp	0	1	+	0	1	blank2r.bmp	252	1	GWWG	306	2	treu	559	0	0	0	0	0	0	0	0	0	0	0	0	0	0	0	0	0	0	0	0	0	0	0	0	0	0	0	0	0	0	0	0	0	0	0	0	0	0	0
082719	11:36:12	11:41:34	322001	5.0.10.0	5_exp_noRW	116	Rpleas_acq	CS_B	BZZB	GWWG	VKKV	MQQM	YDDY	JXXJ	schön	fair	ehrlich	spielen	treu	retten	schlecht	faul	eitel	strafen	tot	rächen	47pct	acq_USunple_CSpleas2_noRW	acq23456_noRW	2	18	0	0	300	300	432	46	0	1	1	blank2r.bmp	0	1	+	0	1	blank2r.bmp	252	1	GWWG	306	3	rächen	559	0	0	0	0	0	0	0	0	0	0	0	0	0	0	0	0	0	0	0	0	0	0	0	0	0	0	0	0	0	0	0	0	0	0	0	0	0	0	0
082719	11:36:12	11:41:36	323574	5.0.10.0	5_exp_noRW	116	Rpleas_acq	CS_B	BZZB	GWWG	VKKV	MQQM	YDDY	JXXJ	schön	fair	ehrlich	spielen	treu	retten	schlecht	faul	eitel	strafen	tot	rächen	53pct	acq_USpleas_CSpleas1_noRW	acq23456_noRW	2	19	0	0	300	300	392	50	0	1	1	blank2r.bmp	0	1	+	0	1	blank2r.bmp	252	1	BZZB	306	1	schön	559	0	0	0	0	0	0	0	0	0	0	0	0	0	0	0	0	0	0	0	0	0	0	0	0	0	0	0	0	0	0	0	0	0	0	0	0	0	0	0
082719	11:36:12	11:41:38	325173	5.0.10.0	5_exp_noRW	116	Rpleas_acq	CS_B	BZZB	GWWG	VKKV	MQQM	YDDY	JXXJ	schön	fair	ehrlich	spielen	treu	retten	schlecht	faul	eitel	strafen	tot	rächen	47pct	acq_USunple_CSunple2_noRW	acq23456_noRW	2	20	0	0	300	300	414	46	0	1	1	blank2r.bmp	0	1	+	0	1	blank2r.bmp	252	1	MQQM	306	2	tot	559	0	0	0	0	0	0	0	0	0	0	0	0	0	0	0	0	0	0	0	0	0	0	0	0	0	0	0	0	0	0	0	0	0	0	0	0	0	0	0
082719	11:36:12	11:41:39	326852	5.0.10.0	5_exp_noRW	116	Rpleas_acq	CS_B	BZZB	GWWG	VKKV	MQQM	YDDY	JXXJ	schön	fair	ehrlich	spielen	treu	retten	schlecht	faul	eitel	strafen	tot	rächen	53pct	acq_USunple_CSunple2_noRW	acq23456_noRW	2	21	0	0	300	300	500	46	0	1	1	blank2r.bmp	0	1	+	0	1	blank2r.bmp	252	1	MQQM	306	1	strafen	559	0	0	0	0	0	0	0	0	0	0	0	0	0	0	0	0	0	0	0	0	0	0	0	0	0	0	0	0	0	0	0	0	0	0	0	0	0	0	0
082719	11:36:12	11:41:41	328478	5.0.10.0	5_exp_noRW	116	Rpleas_acq	CS_B	BZZB	GWWG	VKKV	MQQM	YDDY	JXXJ	schön	fair	ehrlich	spielen	treu	retten	schlecht	faul	eitel	strafen	tot	rächen	53pct	acq_USpleas_CSpleas2_noRW	acq23456_noRW	2	22	0	0	300	300	447	50	0	1	1	blank2r.bmp	0	1	+	0	1	blank2r.bmp	252	1	GWWG	306	3	retten	559	0	0	0	0	0	0	0	0	0	0	0	0	0	0	0	0	0	0	0	0	0	0	0	0	0	0	0	0	0	0	0	0	0	0	0	0	0	0	0
082719	11:36:12	11:41:42	329998	5.0.10.0	5_exp_noRW	116	Rpleas_acq	CS_B	BZZB	GWWG	VKKV	MQQM	YDDY	JXXJ	schön	fair	ehrlich	spielen	treu	retten	schlecht	faul	eitel	strafen	tot	rächen	53pct	acq_USpleas_CSpleas2_noRW	acq23456_noRW	2	23	0	0	300	300	337	50	0	1	1	blank2r.bmp	0	1	+	0	1	blank2r.bmp	252	1	GWWG	306	3	retten	559	0	0	0	0	0	0	0	0	0	0	0	0	0	0	0	0	0	0	0	0	0	0	0	0	0	0	0	0	0	0	0	0	0	0	0	0	0	0	0
082719	11:36:12	11:41:44	331890	5.0.10.0	5_exp_noRW	116	Rpleas_acq	CS_B	BZZB	GWWG	VKKV	MQQM	YDDY	JXXJ	schön	fair	ehrlich	spielen	treu	retten	schlecht	faul	eitel	strafen	tot	rächen	47pct	acq_USunple_CSunple1_noRW	acq23456_noRW	2	24	0	0	300	300	513	50	0	0	1	blank2r.bmp	0	1	+	0	1	blank2r.bmp	252	1	VKKV	306	3	eitel	559	1	FEHLER	1106	0	0	0	0	0	0	0	0	0	0	0	0	0	0	0	0	0	0	0	0	0	0	0	0	0	0	0	0	0	0	0	0	0	0	0	0
082719	11:36:12	11:41:46	333370	5.0.10.0	5_exp_noRW	116	Rpleas_acq	CS_B	BZZB	GWWG	VKKV	MQQM	YDDY	JXXJ	schön	fair	ehrlich	spielen	treu	retten	schlecht	faul	eitel	strafen	tot	rächen	47pct	acq_USunple_CSunple1_noRW	acq23456_noRW	2	25	0	0	300	300	512	46	0	1	1	blank2r.bmp	0	1	+	0	1	blank2r.bmp	252	1	VKKV	306	2	faul	559	0	0	0	0	0	0	0	0	0	0	0	0	0	0	0	0	0	0	0	0	0	0	0	0	0	0	0	0	0	0	0	0	0	0	0	0	0	0	0
082719	11:36:12	11:41:47	334969	5.0.10.0	5_exp_noRW	116	Rpleas_acq	CS_B	BZZB	GWWG	VKKV	MQQM	YDDY	JXXJ	schön	fair	ehrlich	spielen	treu	retten	schlecht	faul	eitel	strafen	tot	rächen	53pct	acq_USpleas_CSunple2_noRW	acq23456_noRW	2	26	0	0	300	300	433	50	0	1	1	blank2r.bmp	0	1	+	0	1	blank2r.bmp	252	1	MQQM	306	1	spielen	559	0	0	0	0	0	0	0	0	0	0	0	0	0	0	0	0	0	0	0	0	0	0	0	0	0	0	0	0	0	0	0	0	0	0	0	0	0	0	0
082719	11:36:12	11:41:49	336768	5.0.10.0	5_exp_noRW	116	Rpleas_acq	CS_B	BZZB	GWWG	VKKV	MQQM	YDDY	JXXJ	schön	fair	ehrlich	spielen	treu	retten	schlecht	faul	eitel	strafen	tot	rächen	53pct	acq_USpleas_CSpleas1_noRW	acq23456_noRW	2	27	0	0	300	300	611	50	0	1	1	blank2r.bmp	0	1	+	0	1	blank2r.bmp	252	1	BZZB	306	2	fair	559	0	0	0	0	0	0	0	0	0	0	0	0	0	0	0	0	0	0	0	0	0	0	0	0	0	0	0	0	0	0	0	0	0	0	0	0	0	0	0
082719	11:36:12	11:41:51	338541	5.0.10.0	5_exp_noRW	116	Rpleas_acq	CS_B	BZZB	GWWG	VKKV	MQQM	YDDY	JXXJ	schön	fair	ehrlich	spielen	treu	retten	schlecht	faul	eitel	strafen	tot	rächen	53pct	acq_USunple_CSunple2_noRW	acq23456_noRW	2	28	0	0	300	300	609	46	0	1	1	blank2r.bmp	0	1	+	0	1	blank2r.bmp	252	1	MQQM	306	2	tot	559	0	0	0	0	0	0	0	0	0	0	0	0	0	0	0	0	0	0	0	0	0	0	0	0	0	0	0	0	0	0	0	0	0	0	0	0	0	0	0
082719	11:36:12	11:41:53	340167	5.0.10.0	5_exp_noRW	116	Rpleas_acq	CS_B	BZZB	GWWG	VKKV	MQQM	YDDY	JXXJ	schön	fair	ehrlich	spielen	treu	retten	schlecht	faul	eitel	strafen	tot	rächen	53pct	acq_USpleas_CSunple1_noRW	acq23456_noRW	2	29	0	0	300	300	443	50	0	1	1	blank2r.bmp	0	1	+	0	1	blank2r.bmp	252	1	VKKV	306	3	ehrlich	559	0	0	0	0	0	0	0	0	0	0	0	0	0	0	0	0	0	0	0	0	0	0	0	0	0	0	0	0	0	0	0	0	0	0	0	0	0	0	0
082719	11:36:12	11:41:54	341740	5.0.10.0	5_exp_noRW	116	Rpleas_acq	CS_B	BZZB	GWWG	VKKV	MQQM	YDDY	JXXJ	schön	fair	ehrlich	spielen	treu	retten	schlecht	faul	eitel	strafen	tot	rächen	53pct	acq_USunple_CSunple2_noRW	acq23456_noRW	2	30	0	0	300	300	409	46	0	1	1	blank2r.bmp	0	1	+	0	1	blank2r.bmp	252	1	MQQM	306	1	strafen	559	0	0	0	0	0	0	0	0	0	0	0	0	0	0	0	0	0	0	0	0	0	0	0	0	0	0	0	0	0	0	0	0	0	0	0	0	0	0	0
082719	11:36:12	11:41:56	343486	5.0.10.0	5_exp_noRW	116	Rpleas_acq	CS_B	BZZB	GWWG	VKKV	MQQM	YDDY	JXXJ	schön	fair	ehrlich	spielen	treu	retten	schlecht	faul	eitel	strafen	tot	rächen	53pct	acq_USunple_CSunple1_noRW	acq23456_noRW	2	31	0	0	300	300	568	46	0	1	1	blank2r.bmp	0	1	+	0	1	blank2r.bmp	252	1	VKKV	306	1	schlecht	559	0	0	0	0	0	0	0	0	0	0	0	0	0	0	0	0	0	0	0	0	0	0	0	0	0	0	0	0	0	0	0	0	0	0	0	0	0	0	0
082719	11:36:12	11:41:57	345058	5.0.10.0	5_exp_noRW	116	Rpleas_acq	CS_B	BZZB	GWWG	VKKV	MQQM	YDDY	JXXJ	schön	fair	ehrlich	spielen	treu	retten	schlecht	faul	eitel	strafen	tot	rächen	53pct	acq_USpleas_CSpleas1_noRW	acq23456_noRW	2	32	0	0	300	300	388	50	0	1	1	blank2r.bmp	0	1	+	0	1	blank2r.bmp	252	1	BZZB	306	2	fair	559	0	0	0	0	0	0	0	0	0	0	0	0	0	0	0	0	0	0	0	0	0	0	0	0	0	0	0	0	0	0	0	0	0	0	0	0	0	0	0
082719	11:36:12	11:41:59	346658	5.0.10.0	5_exp_noRW	116	Rpleas_acq	CS_B	BZZB	GWWG	VKKV	MQQM	YDDY	JXXJ	schön	fair	ehrlich	spielen	treu	retten	schlecht	faul	eitel	strafen	tot	rächen	53pct	acq_USunple_CSpleas1_noRW	acq23456_noRW	2	33	0	0	300	300	436	46	0	1	1	blank2r.bmp	0	1	+	0	1	blank2r.bmp	252	1	BZZB	306	1	schlecht	559	0	0	0	0	0	0	0	0	0	0	0	0	0	0	0	0	0	0	0	0	0	0	0	0	0	0	0	0	0	0	0	0	0	0	0	0	0	0	0
082719	11:36:12	11:42:01	348497	5.0.10.0	5_exp_noRW	116	Rpleas_acq	CS_B	BZZB	GWWG	VKKV	MQQM	YDDY	JXXJ	schön	fair	ehrlich	spielen	treu	retten	schlecht	faul	eitel	strafen	tot	rächen	47pct	acq_USunple_CSunple1_noRW	acq23456_noRW	2	34	0	0	300	300	457	50	0	0	1	blank2r.bmp	0	1	+	0	1	blank2r.bmp	252	1	VKKV	306	3	eitel	559	1	FEHLER	1052	0	0	0	0	0	0	0	0	0	0	0	0	0	0	0	0	0	0	0	0	0	0	0	0	0	0	0	0	0	0	0	0	0	0	0	0
082719	11:36:12	11:42:02	349883	5.0.10.0	5_exp_noRW	116	Rpleas_acq	CS_B	BZZB	GWWG	VKKV	MQQM	YDDY	JXXJ	schön	fair	ehrlich	spielen	treu	retten	schlecht	faul	eitel	strafen	tot	rächen	53pct	acq_USpleas_CSpleas1_noRW	acq23456_noRW	2	35	0	0	300	300	430	50	0	1	1	blank2r.bmp	0	1	+	0	1	blank2r.bmp	252	1	BZZB	306	3	ehrlich	559	0	0	0	0	0	0	0	0	0	0	0	0	0	0	0	0	0	0	0	0	0	0	0	0	0	0	0	0	0	0	0	0	0	0	0	0	0	0	0
082719	11:36:12	11:42:04	351536	5.0.10.0	5_exp_noRW	116	Rpleas_acq	CS_B	BZZB	GWWG	VKKV	MQQM	YDDY	JXXJ	schön	fair	ehrlich	spielen	treu	retten	schlecht	faul	eitel	strafen	tot	rächen	53pct	acq_USunple_CSunple2_noRW	acq23456_noRW	2	36	0	0	300	300	470	46	0	1	1	blank2r.bmp	0	1	+	0	1	blank2r.bmp	252	1	MQQM	306	3	rächen	559	0	0	0	0	0	0	0	0	0	0	0	0	0	0	0	0	0	0	0	0	0	0	0	0	0	0	0	0	0	0	0	0	0	0	0	0	0	0	0
082719	11:36:12	11:42:06	353295	5.0.10.0	5_exp_noRW	116	Rpleas_acq	CS_B	BZZB	GWWG	VKKV	MQQM	YDDY	JXXJ	schön	fair	ehrlich	spielen	treu	retten	schlecht	faul	eitel	strafen	tot	rächen	53pct	acq_USpleas_CSpleas2_noRW	acq23456_noRW	2	37	0	0	300	300	581	50	0	1	1	blank2r.bmp	0	1	+	0	1	blank2r.bmp	252	1	GWWG	306	2	treu	559	0	0	0	0	0	0	0	0	0	0	0	0	0	0	0	0	0	0	0	0	0	0	0	0	0	0	0	0	0	0	0	0	0	0	0	0	0	0	0
082719	11:36:12	11:42:07	354934	5.0.10.0	5_exp_noRW	116	Rpleas_acq	CS_B	BZZB	GWWG	VKKV	MQQM	YDDY	JXXJ	schön	fair	ehrlich	spielen	treu	retten	schlecht	faul	eitel	strafen	tot	rächen	53pct	acq_USunple_CSpleas2_noRW	acq23456_noRW	2	38	0	0	300	300	456	46	0	1	1	blank2r.bmp	0	1	+	0	1	blank2r.bmp	252	1	GWWG	306	1	strafen	559	0	0	0	0	0	0	0	0	0	0	0	0	0	0	0	0	0	0	0	0	0	0	0	0	0	0	0	0	0	0	0	0	0	0	0	0	0	0	0
082719	11:36:12	11:42:09	356600	5.0.10.0	5_exp_noRW	116	Rpleas_acq	CS_B	BZZB	GWWG	VKKV	MQQM	YDDY	JXXJ	schön	fair	ehrlich	spielen	treu	retten	schlecht	faul	eitel	strafen	tot	rächen	53pct	acq_USpleas_CSpleas1_noRW	acq23456_noRW	2	39	0	0	300	300	489	50	0	1	1	blank2r.bmp	0	1	+	0	1	blank2r.bmp	252	1	BZZB	306	1	schön	559	0	0	0	0	0	0	0	0	0	0	0	0	0	0	0	0	0	0	0	0	0	0	0	0	0	0	0	0	0	0	0	0	0	0	0	0	0	0	0
082719	11:36:12	11:42:11	358373	5.0.10.0	5_exp_noRW	116	Rpleas_acq	CS_B	BZZB	GWWG	VKKV	MQQM	YDDY	JXXJ	schön	fair	ehrlich	spielen	treu	retten	schlecht	faul	eitel	strafen	tot	rächen	53pct	acq_USpleas_CSpleas2_noRW	acq23456_noRW	2	40	0	0	300	300	593	50	0	1	1	blank2r.bmp	0	1	+	0	1	blank2r.bmp	252	1	GWWG	306	1	spielen	559	0	0	0	0	0	0	0	0	0	0	0	0	0	0	0	0	0	0	0	0	0	0	0	0	0	0	0	0	0	0	0	0	0	0	0	0	0	0	0
082719	11:36:12	11:42:12	359932	5.0.10.0	5_exp_noRW	116	Rpleas_acq	CS_B	BZZB	GWWG	VKKV	MQQM	YDDY	JXXJ	schön	fair	ehrlich	spielen	treu	retten	schlecht	faul	eitel	strafen	tot	rächen	47pct	acq_USpleas_CSpleas1_noRW	acq23456_noRW	2	41	0	0	300	300	391	50	0	1	1	blank2r.bmp	0	1	+	0	1	blank2r.bmp	252	1	BZZB	306	1	schön	559	0	0	0	0	0	0	0	0	0	0	0	0	0	0	0	0	0	0	0	0	0	0	0	0	0	0	0	0	0	0	0	0	0	0	0	0	0	0	0
082719	11:36:12	11:42:14	361558	5.0.10.0	5_exp_noRW	116	Rpleas_acq	CS_B	BZZB	GWWG	VKKV	MQQM	YDDY	JXXJ	schön	fair	ehrlich	spielen	treu	retten	schlecht	faul	eitel	strafen	tot	rächen	53pct	acq_USpleas_CSunple1_noRW	acq23456_noRW	2	42	0	0	300	300	455	50	0	1	1	blank2r.bmp	0	1	+	0	1	blank2r.bmp	252	1	VKKV	306	3	ehrlich	559	0	0	0	0	0	0	0	0	0	0	0	0	0	0	0	0	0	0	0	0	0	0	0	0	0	0	0	0	0	0	0	0	0	0	0	0	0	0	0
082719	11:36:12	11:42:15	363038	5.0.10.0	5_exp_noRW	116	Rpleas_acq	CS_B	BZZB	GWWG	VKKV	MQQM	YDDY	JXXJ	schön	fair	ehrlich	spielen	treu	retten	schlecht	faul	eitel	strafen	tot	rächen	53pct	acq_USpleas_CSpleas2_noRW	acq23456_noRW	2	43	0	0	300	300	314	50	0	1	1	blank2r.bmp	0	1	+	0	1	blank2r.bmp	252	1	GWWG	306	1	spielen	559	0	0	0	0	0	0	0	0	0	0	0	0	0	0	0	0	0	0	0	0	0	0	0	0	0	0	0	0	0	0	0	0	0	0	0	0	0	0	0
082719	11:36:12	11:42:17	364797	5.0.10.0	5_exp_noRW	116	Rpleas_acq	CS_B	BZZB	GWWG	VKKV	MQQM	YDDY	JXXJ	schön	fair	ehrlich	spielen	treu	retten	schlecht	faul	eitel	strafen	tot	rächen	47pct	acq_USunple_CSpleas1_noRW	acq23456_noRW	2	44	0	0	300	300	596	46	0	1	1	blank2r.bmp	0	1	+	0	1	blank2r.bmp	252	1	BZZB	306	3	eitel	559	0	0	0	0	0	0	0	0	0	0	0	0	0	0	0	0	0	0	0	0	0	0	0	0	0	0	0	0	0	0	0	0	0	0	0	0	0	0	0
082719	11:36:12	11:42:19	366756	5.0.10.0	5_exp_noRW	116	Rpleas_acq	CS_B	BZZB	GWWG	VKKV	MQQM	YDDY	JXXJ	schön	fair	ehrlich	spielen	treu	retten	schlecht	faul	eitel	strafen	tot	rächen	47pct	acq_USpleas_CSunple2_noRW	acq23456_noRW	2	45	0	0	300	300	773	50	0	1	1	blank2r.bmp	0	1	+	0	1	blank2r.bmp	252	1	MQQM	306	3	retten	559	0	0	0	0	0	0	0	0	0	0	0	0	0	0	0	0	0	0	0	0	0	0	0	0	0	0	0	0	0	0	0	0	0	0	0	0	0	0	0
082719	11:36:12	11:42:21	368369	5.0.10.0	5_exp_noRW	116	Rpleas_acq	CS_B	BZZB	GWWG	VKKV	MQQM	YDDY	JXXJ	schön	fair	ehrlich	spielen	treu	retten	schlecht	faul	eitel	strafen	tot	rächen	53pct	acq_USunple_CSunple2_noRW	acq23456_noRW	2	46	0	0	300	300	444	46	0	1	1	blank2r.bmp	0	1	+	0	1	blank2r.bmp	252	1	MQQM	306	1	strafen	559	0	0	0	0	0	0	0	0	0	0	0	0	0	0	0	0	0	0	0	0	0	0	0	0	0	0	0	0	0	0	0	0	0	0	0	0	0	0	0
082719	11:36:12	11:42:22	369982	5.0.10.0	5_exp_noRW	116	Rpleas_acq	CS_B	BZZB	GWWG	VKKV	MQQM	YDDY	JXXJ	schön	fair	ehrlich	spielen	treu	retten	schlecht	faul	eitel	strafen	tot	rächen	47pct	acq_USunple_CSunple2_noRW	acq23456_noRW	2	47	0	0	300	300	432	46	0	1	1	blank2r.bmp	0	1	+	0	1	blank2r.bmp	252	1	MQQM	306	2	tot	559	0	0	0	0	0	0	0	0	0	0	0	0	0	0	0	0	0	0	0	0	0	0	0	0	0	0	0	0	0	0	0	0	0	0	0	0	0	0	0
082719	11:36:12	11:42:24	371981	5.0.10.0	5_exp_noRW	116	Rpleas_acq	CS_B	BZZB	GWWG	VKKV	MQQM	YDDY	JXXJ	schön	fair	ehrlich	spielen	treu	retten	schlecht	faul	eitel	strafen	tot	rächen	47pct	acq_USunple_CSunple2_noRW	acq23456_noRW	2	48	0	0	300	300	837	46	0	1	1	blank2r.bmp	0	1	+	0	1	blank2r.bmp	252	1	MQQM	306	3	rächen	559	0	0	0	0	0	0	0	0	0	0	0	0	0	0	0	0	0	0	0	0	0	0	0	0	0	0	0	0	0	0	0	0	0	0	0	0	0	0	0
082719	11:36:12	11:42:26	373687	5.0.10.0	5_exp_noRW	116	Rpleas_acq	CS_B	BZZB	GWWG	VKKV	MQQM	YDDY	JXXJ	schön	fair	ehrlich	spielen	treu	retten	schlecht	faul	eitel	strafen	tot	rächen	47pct	acq_USunple_CSunple1_noRW	acq23456_noRW	2	49	0	0	300	300	523	46	0	1	1	blank2r.bmp	0	1	+	0	1	blank2r.bmp	252	1	VKKV	306	1	schlecht	559	0	0	0	0	0	0	0	0	0	0	0	0	0	0	0	0	0	0	0	0	0	0	0	0	0	0	0	0	0	0	0	0	0	0	0	0	0	0	0
082719	11:36:12	11:42:28	375259	5.0.10.0	5_exp_noRW	116	Rpleas_acq	CS_B	BZZB	GWWG	VKKV	MQQM	YDDY	JXXJ	schön	fair	ehrlich	spielen	treu	retten	schlecht	faul	eitel	strafen	tot	rächen	47pct	acq_USunple_CSunple1_noRW	acq23456_noRW	2	50	0	0	300	300	386	46	0	1	1	blank2r.bmp	0	1	+	0	1	blank2r.bmp	252	1	VKKV	306	3	eitel	559	0	0	0	0	0	0	0	0	0	0	0	0	0	0	0	0	0	0	0	0	0	0	0	0	0	0	0	0	0	0	0	0	0	0	0	0	0	0	0
082719	11:36:12	11:42:29	377059	5.0.10.0	5_exp_noRW	116	Rpleas_acq	CS_B	BZZB	GWWG	VKKV	MQQM	YDDY	JXXJ	schön	fair	ehrlich	spielen	treu	retten	schlecht	faul	eitel	strafen	tot	rächen	47pct	acq_USpleas_CSpleas2_noRW	acq23456_noRW	2	51	0	0	300	300	632	50	0	1	1	blank2r.bmp	0	1	+	0	1	blank2r.bmp	252	1	GWWG	306	3	retten	559	0	0	0	0	0	0	0	0	0	0	0	0	0	0	0	0	0	0	0	0	0	0	0	0	0	0	0	0	0	0	0	0	0	0	0	0	0	0	0
082719	11:36:12	11:42:31	378765	5.0.10.0	5_exp_noRW	116	Rpleas_acq	CS_B	BZZB	GWWG	VKKV	MQQM	YDDY	JXXJ	schön	fair	ehrlich	spielen	treu	retten	schlecht	faul	eitel	strafen	tot	rächen	47pct	acq_USpleas_CSpleas2_noRW	acq23456_noRW	2	52	0	0	300	300	525	50	0	1	1	blank2r.bmp	0	1	+	0	1	blank2r.bmp	252	1	GWWG	306	2	treu	559	0	0	0	0	0	0	0	0	0	0	0	0	0	0	0	0	0	0	0	0	0	0	0	0	0	0	0	0	0	0	0	0	0	0	0	0	0	0	0
082719	11:36:12	11:42:33	380404	5.0.10.0	5_exp_noRW	116	Rpleas_acq	CS_B	BZZB	GWWG	VKKV	MQQM	YDDY	JXXJ	schön	fair	ehrlich	spielen	treu	retten	schlecht	faul	eitel	strafen	tot	rächen	53pct	acq_USpleas_CSpleas2_noRW	acq23456_noRW	2	53	0	0	300	300	468	50	0	1	1	blank2r.bmp	0	1	+	0	1	blank2r.bmp	252	1	GWWG	306	2	treu	559	0	0	0	0	0	0	0	0	0	0	0	0	0	0	0	0	0	0	0	0	0	0	0	0	0	0	0	0	0	0	0	0	0	0	0	0	0	0	0
082719	11:36:12	11:42:35	382110	5.0.10.0	5_exp_noRW	116	Rpleas_acq	CS_B	BZZB	GWWG	VKKV	MQQM	YDDY	JXXJ	schön	fair	ehrlich	spielen	treu	retten	schlecht	faul	eitel	strafen	tot	rächen	47pct	acq_USunple_CSunple1_noRW	acq23456_noRW	2	54	0	0	300	300	542	46	0	1	1	blank2r.bmp	0	1	+	0	1	blank2r.bmp	252	1	VKKV	306	2	faul	559	0	0	0	0	0	0	0	0	0	0	0	0	0	0	0	0	0	0	0	0	0	0	0	0	0	0	0	0	0	0	0	0	0	0	0	0	0	0	0
082719	11:36:12	11:42:36	383963	5.0.10.0	5_exp_noRW	116	Rpleas_acq	CS_B	BZZB	GWWG	VKKV	MQQM	YDDY	JXXJ	schön	fair	ehrlich	spielen	treu	retten	schlecht	faul	eitel	strafen	tot	rächen	53pct	acq_USunple_CSunple1_noRW	acq23456_noRW	2	55	0	0	300	300	466	50	0	0	1	blank2r.bmp	0	1	+	0	1	blank2r.bmp	252	1	VKKV	306	3	eitel	559	1	FEHLER	1066	0	0	0	0	0	0	0	0	0	0	0	0	0	0	0	0	0	0	0	0	0	0	0	0	0	0	0	0	0	0	0	0	0	0	0	0
082719	11:36:12	11:42:38	385482	5.0.10.0	5_exp_noRW	116	Rpleas_acq	CS_B	BZZB	GWWG	VKKV	MQQM	YDDY	JXXJ	schön	fair	ehrlich	spielen	treu	retten	schlecht	faul	eitel	strafen	tot	rächen	53pct	acq_USunple_CSpleas2_noRW	acq23456_noRW	2	56	0	0	300	300	551	46	0	1	1	blank2r.bmp	0	1	+	0	1	blank2r.bmp	252	1	GWWG	306	2	tot	559	0	0	0	0	0	0	0	0	0	0	0	0	0	0	0	0	0	0	0	0	0	0	0	0	0	0	0	0	0	0	0	0	0	0	0	0	0	0	0
082719	11:36:12	11:42:40	387188	5.0.10.0	5_exp_noRW	116	Rpleas_acq	CS_B	BZZB	GWWG	VKKV	MQQM	YDDY	JXXJ	schön	fair	ehrlich	spielen	treu	retten	schlecht	faul	eitel	strafen	tot	rächen	53pct	acq_USpleas_CSpleas1_noRW	acq23456_noRW	2	57	0	0	300	300	521	50	0	1	1	blank2r.bmp	0	1	+	0	1	blank2r.bmp	252	1	BZZB	306	3	ehrlich	559	0	0	0	0	0	0	0	0	0	0	0	0	0	0	0	0	0	0	0	0	0	0	0	0	0	0	0	0	0	0	0	0	0	0	0	0	0	0	0
082719	11:36:12	11:42:41	388814	5.0.10.0	5_exp_noRW	116	Rpleas_acq	CS_B	BZZB	GWWG	VKKV	MQQM	YDDY	JXXJ	schön	fair	ehrlich	spielen	treu	retten	schlecht	faul	eitel	strafen	tot	rächen	53pct	acq_USpleas_CSpleas1_noRW	acq23456_noRW	2	58	0	0	300	300	458	50	0	1	1	blank2r.bmp	0	1	+	0	1	blank2r.bmp	252	1	BZZB	306	2	fair	559	0	0	0	0	0	0	0	0	0	0	0	0	0	0	0	0	0	0	0	0	0	0	0	0	0	0	0	0	0	0	0	0	0	0	0	0	0	0	0
082719	11:36:12	11:42:43	390400	5.0.10.0	5_exp_noRW	116	Rpleas_acq	CS_B	BZZB	GWWG	VKKV	MQQM	YDDY	JXXJ	schön	fair	ehrlich	spielen	treu	retten	schlecht	faul	eitel	strafen	tot	rächen	53pct	acq_USunple_CSunple2_noRW	acq23456_noRW	2	59	0	0	300	300	410	46	0	1	1	blank2r.bmp	0	1	+	0	1	blank2r.bmp	252	1	MQQM	306	2	tot	559	0	0	0	0	0	0	0	0	0	0	0	0	0	0	0	0	0	0	0	0	0	0	0	0	0	0	0	0	0	0	0	0	0	0	0	0	0	0	0
082719	11:36:12	11:42:44	391986	5.0.10.0	5_exp_noRW	116	Rpleas_acq	CS_B	BZZB	GWWG	VKKV	MQQM	YDDY	JXXJ	schön	fair	ehrlich	spielen	treu	retten	schlecht	faul	eitel	strafen	tot	rächen	53pct	acq_USpleas_CSpleas1_noRW	acq23456_noRW	2	60	0	0	300	300	409	50	0	1	1	blank2r.bmp	0	1	+	0	1	blank2r.bmp	252	1	BZZB	306	3	ehrlich	559	0	0	0	0	0	0	0	0	0	0	0	0	0	0	0	0	0	0	0	0	0	0	0	0	0	0	0	0	0	0	0	0	0	0	0	0	0	0	0
082719	11:36:12	11:42:46	393612	5.0.10.0	5_exp_noRW	116	Rpleas_acq	CS_B	BZZB	GWWG	VKKV	MQQM	YDDY	JXXJ	schön	fair	ehrlich	spielen	treu	retten	schlecht	faul	eitel	strafen	tot	rächen	47pct	acq_USunple_CSpleas2_noRW	acq23456_noRW	2	61	0	0	300	300	447	46	0	1	1	blank2r.bmp	0	1	+	0	1	blank2r.bmp	252	1	GWWG	306	1	strafen	559	0	0	0	0	0	0	0	0	0	0	0	0	0	0	0	0	0	0	0	0	0	0	0	0	0	0	0	0	0	0	0	0	0	0	0	0	0	0	0
082719	11:36:12	11:42:48	395291	5.0.10.0	5_exp_noRW	116	Rpleas_acq	CS_B	BZZB	GWWG	VKKV	MQQM	YDDY	JXXJ	schön	fair	ehrlich	spielen	treu	retten	schlecht	faul	eitel	strafen	tot	rächen	47pct	acq_USpleas_CSpleas1_noRW	acq23456_noRW	2	62	0	0	300	300	506	50	0	1	1	blank2r.bmp	0	1	+	0	1	blank2r.bmp	252	1	BZZB	306	2	fair	559	0	0	0	0	0	0	0	0	0	0	0	0	0	0	0	0	0	0	0	0	0	0	0	0	0	0	0	0	0	0	0	0	0	0	0	0	0	0	0
082719	11:36:12	11:42:49	396931	5.0.10.0	5_exp_noRW	116	Rpleas_acq	CS_B	BZZB	GWWG	VKKV	MQQM	YDDY	JXXJ	schön	fair	ehrlich	spielen	treu	retten	schlecht	faul	eitel	strafen	tot	rächen	53pct	acq_USpleas_CSpleas2_noRW	acq23456_noRW	2	63	0	0	300	300	468	50	0	1	1	blank2r.bmp	0	1	+	0	1	blank2r.bmp	252	1	GWWG	306	3	retten	559	0	0	0	0	0	0	0	0	0	0	0	0	0	0	0	0	0	0	0	0	0	0	0	0	0	0	0	0	0	0	0	0	0	0	0	0	0	0	0
082719	11:36:12	11:42:51	398557	5.0.10.0	5_exp_noRW	116	Rpleas_acq	CS_B	BZZB	GWWG	VKKV	MQQM	YDDY	JXXJ	schön	fair	ehrlich	spielen	treu	retten	schlecht	faul	eitel	strafen	tot	rächen	47pct	acq_USpleas_CSpleas2_noRW	acq23456_noRW	2	64	0	0	300	300	444	50	0	1	1	blank2r.bmp	0	1	+	0	1	blank2r.bmp	252	1	GWWG	306	1	spielen	559	0	0	0	0	0	0	0	0	0	0	0	0	0	0	0	0	0	0	0	0	0	0	0	0	0	0	0	0	0	0	0	0	0	0	0	0	0	0	0
082719	11:36:12	11:42:53	400143	5.0.10.0	5_exp_noRW	116	Rpleas_acq	CS_B	BZZB	GWWG	VKKV	MQQM	YDDY	JXXJ	schön	fair	ehrlich	spielen	treu	retten	schlecht	faul	eitel	strafen	tot	rächen	47pct	acq_USunple_CSunple2_noRW	acq23456_noRW	2	65	0	0	300	300	419	46	0	1	1	blank2r.bmp	0	1	+	0	1	blank2r.bmp	252	1	MQQM	306	1	strafen	559	0	0	0	0	0	0	0	0	0	0	0	0	0	0	0	0	0	0	0	0	0	0	0	0	0	0	0	0	0	0	0	0	0	0	0	0	0	0	0
082719	11:36:12	11:42:54	401715	5.0.10.0	5_exp_noRW	116	Rpleas_acq	CS_B	BZZB	GWWG	VKKV	MQQM	YDDY	JXXJ	schön	fair	ehrlich	spielen	treu	retten	schlecht	faul	eitel	strafen	tot	rächen	47pct	acq_USpleas_CSpleas1_noRW	acq23456_noRW	2	66	0	0	300	300	393	50	0	1	1	blank2r.bmp	0	1	+	0	1	blank2r.bmp	252	1	BZZB	306	1	schön	559	0	0	0	0	0	0	0	0	0	0	0	0	0	0	0	0	0	0	0	0	0	0	0	0	0	0	0	0	0	0	0	0	0	0	0	0	0	0	0
082719	11:36:12	11:42:56	403435	5.0.10.0	5_exp_noRW	116	Rpleas_acq	CS_B	BZZB	GWWG	VKKV	MQQM	YDDY	JXXJ	schön	fair	ehrlich	spielen	treu	retten	schlecht	faul	eitel	strafen	tot	rächen	53pct	acq_USpleas_CSpleas1_noRW	acq23456_noRW	2	67	0	0	300	300	532	50	0	1	1	blank2r.bmp	0	1	+	0	1	blank2r.bmp	252	1	BZZB	306	1	schön	559	0	0	0	0	0	0	0	0	0	0	0	0	0	0	0	0	0	0	0	0	0	0	0	0	0	0	0	0	0	0	0	0	0	0	0	0	0	0	0
082719	11:36:12	11:42:57	405061	5.0.10.0	5_exp_noRW	116	Rpleas_acq	CS_B	BZZB	GWWG	VKKV	MQQM	YDDY	JXXJ	schön	fair	ehrlich	spielen	treu	retten	schlecht	faul	eitel	strafen	tot	rächen	47pct	acq_USunple_CSunple1_noRW	acq23456_noRW	2	68	0	0	300	300	459	46	0	1	1	blank2r.bmp	0	1	+	0	1	blank2r.bmp	252	1	VKKV	306	1	schlecht	559	0	0	0	0	0	0	0	0	0	0	0	0	0	0	0	0	0	0	0	0	0	0	0	0	0	0	0	0	0	0	0	0	0	0	0	0	0	0	0
082719	11:36:12	11:42:59	407006	5.0.10.0	5_exp_noRW	116	Rpleas_acq	CS_B	BZZB	GWWG	VKKV	MQQM	YDDY	JXXJ	schön	fair	ehrlich	spielen	treu	retten	schlecht	faul	eitel	strafen	tot	rächen	53pct	acq_USunple_CSunple2_noRW	acq23456_noRW	2	69	0	0	300	300	557	50	0	0	1	blank2r.bmp	0	1	+	0	1	blank2r.bmp	252	1	MQQM	306	3	rächen	559	1	FEHLER	1146	0	0	0	0	0	0	0	0	0	0	0	0	0	0	0	0	0	0	0	0	0	0	0	0	0	0	0	0	0	0	0	0	0	0	0	0
082719	11:36:12	11:43:01	408459	5.0.10.0	5_exp_noRW	116	Rpleas_acq	CS_B	BZZB	GWWG	VKKV	MQQM	YDDY	JXXJ	schön	fair	ehrlich	spielen	treu	retten	schlecht	faul	eitel	strafen	tot	rächen	47pct	acq_USunple_CSunple1_noRW	acq23456_noRW	2	70	0	0	300	300	498	46	0	1	1	blank2r.bmp	0	1	+	0	1	blank2r.bmp	252	1	VKKV	306	2	faul	559	0	0	0	0	0	0	0	0	0	0	0	0	0	0	0	0	0	0	0	0	0	0	0	0	0	0	0	0	0	0	0	0	0	0	0	0	0	0	0
082719	11:36:12	11:43:02	410032	5.0.10.0	5_exp_noRW	116	Rpleas_acq	CS_B	BZZB	GWWG	VKKV	MQQM	YDDY	JXXJ	schön	fair	ehrlich	spielen	treu	retten	schlecht	faul	eitel	strafen	tot	rächen	47pct	acq_USunple_CSunple1_noRW	acq23456_noRW	2	71	0	0	300	300	392	46	0	1	1	blank2r.bmp	0	1	+	0	1	blank2r.bmp	252	1	VKKV	306	2	faul	559	0	0	0	0	0	0	0	0	0	0	0	0	0	0	0	0	0	0	0	0	0	0	0	0	0	0	0	0	0	0	0	0	0	0	0	0	0	0	0
082719	11:36:12	11:43:04	411844	5.0.10.0	5_exp_noRW	116	Rpleas_acq	CS_B	BZZB	GWWG	VKKV	MQQM	YDDY	JXXJ	schön	fair	ehrlich	spielen	treu	retten	schlecht	faul	eitel	strafen	tot	rächen	53pct	acq_USunple_CSpleas1_noRW	acq23456_noRW	2	72	0	0	300	300	637	46	0	1	1	blank2r.bmp	0	1	+	0	1	blank2r.bmp	252	1	BZZB	306	2	faul	559	0	0	0	0	0	0	0	0	0	0	0	0	0	0	0	0	0	0	0	0	0	0	0	0	0	0	0	0	0	0	0	0	0	0	0	0	0	0	0
082719	11:36:12	11:43:06	413524	5.0.10.0	5_exp_noRW	116	Rpleas_acq	CS_B	BZZB	GWWG	VKKV	MQQM	YDDY	JXXJ	schön	fair	ehrlich	spielen	treu	retten	schlecht	faul	eitel	strafen	tot	rächen	53pct	acq_USpleas_CSpleas1_noRW	acq23456_noRW	2	73	0	0	300	300	501	50	0	1	1	blank2r.bmp	0	1	+	0	1	blank2r.bmp	252	1	BZZB	306	3	ehrlich	559	0	0	0	0	0	0	0	0	0	0	0	0	0	0	0	0	0	0	0	0	0	0	0	0	0	0	0	0	0	0	0	0	0	0	0	0	0	0	0
082719	11:36:12	11:43:08	415443	5.0.10.0	5_exp_noRW	116	Rpleas_acq	CS_B	BZZB	GWWG	VKKV	MQQM	YDDY	JXXJ	schön	fair	ehrlich	spielen	treu	retten	schlecht	faul	eitel	strafen	tot	rächen	53pct	acq_USunple_CSunple1_noRW	acq23456_noRW	2	74	0	0	300	300	743	46	0	1	1	blank2r.bmp	0	1	+	0	1	blank2r.bmp	252	1	VKKV	306	3	eitel	559	0	0	0	0	0	0	0	0	0	0	0	0	0	0	0	0	0	0	0	0	0	0	0	0	0	0	0	0	0	0	0	0	0	0	0	0	0	0	0
082719	11:36:12	11:43:09	416976	5.0.10.0	5_exp_noRW	116	Rpleas_acq	CS_B	BZZB	GWWG	VKKV	MQQM	YDDY	JXXJ	schön	fair	ehrlich	spielen	treu	retten	schlecht	faul	eitel	strafen	tot	rächen	53pct	acq_USpleas_CSpleas2_noRW	acq23456_noRW	2	75	0	0	300	300	358	50	0	1	1	blank2r.bmp	0	1	+	0	1	blank2r.bmp	252	1	GWWG	306	1	spielen	559	0	0	0	0	0	0	0	0	0	0	0	0	0	0	0	0	0	0	0	0	0	0	0	0	0	0	0	0	0	0	0	0	0	0	0	0	0	0	0
082719	11:36:12	11:43:11	418535	5.0.10.0	5_exp_noRW	116	Rpleas_acq	CS_B	BZZB	GWWG	VKKV	MQQM	YDDY	JXXJ	schön	fair	ehrlich	spielen	treu	retten	schlecht	faul	eitel	strafen	tot	rächen	53pct	acq_USpleas_CSunple2_noRW	acq23456_noRW	2	76	0	0	300	300	378	50	0	1	1	blank2r.bmp	0	1	+	0	1	blank2r.bmp	252	1	MQQM	306	1	spielen	559	0	0	0	0	0	0	0	0	0	0	0	0	0	0	0	0	0	0	0	0	0	0	0	0	0	0	0	0	0	0	0	0	0	0	0	0	0	0	0
082719	11:36:12	11:43:13	420188	5.0.10.0	5_exp_noRW	116	Rpleas_acq	CS_B	BZZB	GWWG	VKKV	MQQM	YDDY	JXXJ	schön	fair	ehrlich	spielen	treu	retten	schlecht	faul	eitel	strafen	tot	rächen	47pct	acq_USunple_CSunple2_noRW	acq23456_noRW	2	77	0	0	300	300	477	46	0	1	1	blank2r.bmp	0	1	+	0	1	blank2r.bmp	252	1	MQQM	306	3	rächen	559	0	0	0	0	0	0	0	0	0	0	0	0	0	0	0	0	0	0	0	0	0	0	0	0	0	0	0	0	0	0	0	0	0	0	0	0	0	0	0
082719	11:36:12	11:43:14	421840	5.0.10.0	5_exp_noRW	116	Rpleas_acq	CS_B	BZZB	GWWG	VKKV	MQQM	YDDY	JXXJ	schön	fair	ehrlich	spielen	treu	retten	schlecht	faul	eitel	strafen	tot	rächen	47pct	acq_USpleas_CSunple1_noRW	acq23456_noRW	2	78	0	0	300	300	476	50	0	1	1	blank2r.bmp	0	1	+	0	1	blank2r.bmp	252	1	VKKV	306	1	schön	559	0	0	0	0	0	0	0	0	0	0	0	0	0	0	0	0	0	0	0	0	0	0	0	0	0	0	0	0	0	0	0	0	0	0	0	0	0	0	0
082719	11:36:12	11:43:16	423693	5.0.10.0	5_exp_noRW	116	Rpleas_acq	CS_B	BZZB	GWWG	VKKV	MQQM	YDDY	JXXJ	schön	fair	ehrlich	spielen	treu	retten	schlecht	faul	eitel	strafen	tot	rächen	53pct	acq_USpleas_CSpleas2_noRW	acq23456_noRW	2	79	0	0	300	300	452	46	0	0	1	blank2r.bmp	0	1	+	0	1	blank2r.bmp	252	1	GWWG	306	2	treu	559	1	FEHLER	1052	0	0	0	0	0	0	0	0	0	0	0	0	0	0	0	0	0	0	0	0	0	0	0	0	0	0	0	0	0	0	0	0	0	0	0	0
082719	11:36:12	11:43:18	425119	5.0.10.0	5_exp_noRW	116	Rpleas_acq	CS_B	BZZB	GWWG	VKKV	MQQM	YDDY	JXXJ	schön	fair	ehrlich	spielen	treu	retten	schlecht	faul	eitel	strafen	tot	rächen	53pct	acq_USunple_CSunple2_noRW	acq23456_noRW	2	80	0	0	300	300	477	46	0	1	1	blank2r.bmp	0	1	+	0	1	blank2r.bmp	252	1	MQQM	306	1	strafen	559	0	0	0	0	0	0	0	0	0	0	0	0	0	0	0	0	0	0	0	0	0	0	0	0	0	0	0	0	0	0	0	0	0	0	0	0	0	0	0
082719	11:36:12	11:43:27	434795	5.0.10.0	5_exp_noRW	116	Rpleas_acq	CS_B	BZZB	GWWG	VKKV	MQQM	YDDY	JXXJ	schön	fair	ehrlich	spielen	treu	retten	schlecht	faul	eitel	strafen	tot	rächen	53pct	acq_USpleas_CSpleas1_noRW	acq23456_noRW	3	1	0	0	300	300	783	50	0	1	1	blank2r.bmp	0	1	+	0	1	blank2r.bmp	252	1	BZZB	306	2	fair	559	0	0	0	0	0	0	0	0	0	0	0	0	0	0	0	0	0	0	0	0	0	0	0	0	0	0	0	0	0	0	0	0	0	0	0	0	0	0	0
082719	11:36:12	11:43:29	436501	5.0.10.0	5_exp_noRW	116	Rpleas_acq	CS_B	BZZB	GWWG	VKKV	MQQM	YDDY	JXXJ	schön	fair	ehrlich	spielen	treu	retten	schlecht	faul	eitel	strafen	tot	rächen	47pct	acq_USunple_CSunple1_noRW	acq23456_noRW	3	2	0	0	300	300	532	46	0	1	1	blank2r.bmp	0	1	+	0	1	blank2r.bmp	252	1	VKKV	306	1	schlecht	559	0	0	0	0	0	0	0	0	0	0	0	0	0	0	0	0	0	0	0	0	0	0	0	0	0	0	0	0	0	0	0	0	0	0	0	0	0	0	0
082719	11:36:12	11:43:31	438220	5.0.10.0	5_exp_noRW	116	Rpleas_acq	CS_B	BZZB	GWWG	VKKV	MQQM	YDDY	JXXJ	schön	fair	ehrlich	spielen	treu	retten	schlecht	faul	eitel	strafen	tot	rächen	53pct	acq_USunple_CSunple1_noRW	acq23456_noRW	3	3	0	0	300	300	556	46	0	1	1	blank2r.bmp	0	1	+	0	1	blank2r.bmp	252	1	VKKV	306	1	schlecht	559	0	0	0	0	0	0	0	0	0	0	0	0	0	0	0	0	0	0	0	0	0	0	0	0	0	0	0	0	0	0	0	0	0	0	0	0	0	0	0
082719	11:36:12	11:43:32	439833	5.0.10.0	5_exp_noRW	116	Rpleas_acq	CS_B	BZZB	GWWG	VKKV	MQQM	YDDY	JXXJ	schön	fair	ehrlich	spielen	treu	retten	schlecht	faul	eitel	strafen	tot	rächen	47pct	acq_USunple_CSunple2_noRW	acq23456_noRW	3	4	0	0	300	300	432	46	0	1	1	blank2r.bmp	0	1	+	0	1	blank2r.bmp	252	1	MQQM	306	2	tot	559	0	0	0	0	0	0	0	0	0	0	0	0	0	0	0	0	0	0	0	0	0	0	0	0	0	0	0	0	0	0	0	0	0	0	0	0	0	0	0
082719	11:36:12	11:43:34	441526	5.0.10.0	5_exp_noRW	116	Rpleas_acq	CS_B	BZZB	GWWG	VKKV	MQQM	YDDY	JXXJ	schön	fair	ehrlich	spielen	treu	retten	schlecht	faul	eitel	strafen	tot	rächen	53pct	acq_USpleas_CSpleas2_noRW	acq23456_noRW	3	5	0	0	300	300	522	50	0	1	1	blank2r.bmp	0	1	+	0	1	blank2r.bmp	252	1	GWWG	306	3	retten	559	0	0	0	0	0	0	0	0	0	0	0	0	0	0	0	0	0	0	0	0	0	0	0	0	0	0	0	0	0	0	0	0	0	0	0	0	0	0	0
082719	11:36:12	11:43:36	443552	5.0.10.0	5_exp_noRW	116	Rpleas_acq	CS_B	BZZB	GWWG	VKKV	MQQM	YDDY	JXXJ	schön	fair	ehrlich	spielen	treu	retten	schlecht	faul	eitel	strafen	tot	rächen	53pct	acq_USpleas_CSunple1_noRW	acq23456_noRW	3	6	0	0	300	300	854	50	0	1	1	blank2r.bmp	0	1	+	0	1	blank2r.bmp	252	1	VKKV	306	2	fair	559	0	0	0	0	0	0	0	0	0	0	0	0	0	0	0	0	0	0	0	0	0	0	0	0	0	0	0	0	0	0	0	0	0	0	0	0	0	0	0
082719	11:36:12	11:43:38	445191	5.0.10.0	5_exp_noRW	116	Rpleas_acq	CS_B	BZZB	GWWG	VKKV	MQQM	YDDY	JXXJ	schön	fair	ehrlich	spielen	treu	retten	schlecht	faul	eitel	strafen	tot	rächen	53pct	acq_USpleas_CSunple2_noRW	acq23456_noRW	3	7	0	0	300	300	477	50	0	1	1	blank2r.bmp	0	1	+	0	1	blank2r.bmp	252	1	MQQM	306	2	treu	559	0	0	0	0	0	0	0	0	0	0	0	0	0	0	0	0	0	0	0	0	0	0	0	0	0	0	0	0	0	0	0	0	0	0	0	0	0	0	0
082719	11:36:12	11:43:39	446790	5.0.10.0	5_exp_noRW	116	Rpleas_acq	CS_B	BZZB	GWWG	VKKV	MQQM	YDDY	JXXJ	schön	fair	ehrlich	spielen	treu	retten	schlecht	faul	eitel	strafen	tot	rächen	53pct	acq_USpleas_CSpleas2_noRW	acq23456_noRW	3	8	0	0	300	300	417	50	0	1	1	blank2r.bmp	0	1	+	0	1	blank2r.bmp	252	1	GWWG	306	2	treu	559	0	0	0	0	0	0	0	0	0	0	0	0	0	0	0	0	0	0	0	0	0	0	0	0	0	0	0	0	0	0	0	0	0	0	0	0	0	0	0
082719	11:36:12	11:43:41	448430	5.0.10.0	5_exp_noRW	116	Rpleas_acq	CS_B	BZZB	GWWG	VKKV	MQQM	YDDY	JXXJ	schön	fair	ehrlich	spielen	treu	retten	schlecht	faul	eitel	strafen	tot	rächen	47pct	acq_USunple_CSunple2_noRW	acq23456_noRW	3	9	0	0	300	300	455	46	0	1	1	blank2r.bmp	0	1	+	0	1	blank2r.bmp	252	1	MQQM	306	2	tot	559	0	0	0	0	0	0	0	0	0	0	0	0	0	0	0	0	0	0	0	0	0	0	0	0	0	0	0	0	0	0	0	0	0	0	0	0	0	0	0
082719	11:36:12	11:43:43	450229	5.0.10.0	5_exp_noRW	116	Rpleas_acq	CS_B	BZZB	GWWG	VKKV	MQQM	YDDY	JXXJ	schön	fair	ehrlich	spielen	treu	retten	schlecht	faul	eitel	strafen	tot	rächen	47pct	acq_USunple_CSunple1_noRW	acq23456_noRW	3	10	0	0	300	300	416	50	0	0	1	blank2r.bmp	0	1	+	0	1	blank2r.bmp	252	1	VKKV	306	2	faul	559	1	FEHLER	1012	0	0	0	0	0	0	0	0	0	0	0	0	0	0	0	0	0	0	0	0	0	0	0	0	0	0	0	0	0	0	0	0	0	0	0	0
082719	11:36:12	11:43:44	451668	5.0.10.0	5_exp_noRW	116	Rpleas_acq	CS_B	BZZB	GWWG	VKKV	MQQM	YDDY	JXXJ	schön	fair	ehrlich	spielen	treu	retten	schlecht	faul	eitel	strafen	tot	rächen	53pct	acq_USpleas_CSpleas1_noRW	acq23456_noRW	3	11	0	0	300	300	465	50	0	1	1	blank2r.bmp	0	1	+	0	1	blank2r.bmp	252	1	BZZB	306	3	ehrlich	559	0	0	0	0	0	0	0	0	0	0	0	0	0	0	0	0	0	0	0	0	0	0	0	0	0	0	0	0	0	0	0	0	0	0	0	0	0	0	0
082719	11:36:12	11:43:46	453481	5.0.10.0	5_exp_noRW	116	Rpleas_acq	CS_B	BZZB	GWWG	VKKV	MQQM	YDDY	JXXJ	schön	fair	ehrlich	spielen	treu	retten	schlecht	faul	eitel	strafen	tot	rächen	53pct	acq_USpleas_CSpleas1_noRW	acq23456_noRW	3	12	0	0	300	300	639	50	0	1	1	blank2r.bmp	0	1	+	0	1	blank2r.bmp	252	1	BZZB	306	2	fair	559	0	0	0	0	0	0	0	0	0	0	0	0	0	0	0	0	0	0	0	0	0	0	0	0	0	0	0	0	0	0	0	0	0	0	0	0	0	0	0
082719	11:36:12	11:43:48	455147	5.0.10.0	5_exp_noRW	116	Rpleas_acq	CS_B	BZZB	GWWG	VKKV	MQQM	YDDY	JXXJ	schön	fair	ehrlich	spielen	treu	retten	schlecht	faul	eitel	strafen	tot	rächen	47pct	acq_USpleas_CSpleas1_noRW	acq23456_noRW	3	13	0	0	300	300	484	50	0	1	1	blank2r.bmp	0	1	+	0	1	blank2r.bmp	252	1	BZZB	306	1	schön	559	0	0	0	0	0	0	0	0	0	0	0	0	0	0	0	0	0	0	0	0	0	0	0	0	0	0	0	0	0	0	0	0	0	0	0	0	0	0	0
082719	11:36:12	11:43:49	457093	5.0.10.0	5_exp_noRW	116	Rpleas_acq	CS_B	BZZB	GWWG	VKKV	MQQM	YDDY	JXXJ	schön	fair	ehrlich	spielen	treu	retten	schlecht	faul	eitel	strafen	tot	rächen	53pct	acq_USunple_CSunple1_noRW	acq23456_noRW	3	14	0	0	300	300	554	50	0	0	1	blank2r.bmp	0	1	+	0	1	blank2r.bmp	252	1	VKKV	306	3	eitel	559	1	FEHLER	1146	0	0	0	0	0	0	0	0	0	0	0	0	0	0	0	0	0	0	0	0	0	0	0	0	0	0	0	0	0	0	0	0	0	0	0	0
082719	11:36:12	11:43:51	458492	5.0.10.0	5_exp_noRW	116	Rpleas_acq	CS_B	BZZB	GWWG	VKKV	MQQM	YDDY	JXXJ	schön	fair	ehrlich	spielen	treu	retten	schlecht	faul	eitel	strafen	tot	rächen	47pct	acq_USunple_CSunple2_noRW	acq23456_noRW	3	15	0	0	300	300	427	46	0	1	1	blank2r.bmp	0	1	+	0	1	blank2r.bmp	252	1	MQQM	306	1	strafen	559	0	0	0	0	0	0	0	0	0	0	0	0	0	0	0	0	0	0	0	0	0	0	0	0	0	0	0	0	0	0	0	0	0	0	0	0	0	0	0
082719	11:36:12	11:43:53	460198	5.0.10.0	5_exp_noRW	116	Rpleas_acq	CS_B	BZZB	GWWG	VKKV	MQQM	YDDY	JXXJ	schön	fair	ehrlich	spielen	treu	retten	schlecht	faul	eitel	strafen	tot	rächen	53pct	acq_USpleas_CSpleas2_noRW	acq23456_noRW	3	16	0	0	300	300	536	50	0	1	1	blank2r.bmp	0	1	+	0	1	blank2r.bmp	252	1	GWWG	306	3	retten	559	0	0	0	0	0	0	0	0	0	0	0	0	0	0	0	0	0	0	0	0	0	0	0	0	0	0	0	0	0	0	0	0	0	0	0	0	0	0	0
082719	11:36:12	11:43:54	461944	5.0.10.0	5_exp_noRW	116	Rpleas_acq	CS_B	BZZB	GWWG	VKKV	MQQM	YDDY	JXXJ	schön	fair	ehrlich	spielen	treu	retten	schlecht	faul	eitel	strafen	tot	rächen	47pct	acq_USunple_CSunple2_noRW	acq23456_noRW	3	17	0	0	300	300	574	46	0	1	1	blank2r.bmp	0	1	+	0	1	blank2r.bmp	252	1	MQQM	306	3	rächen	559	0	0	0	0	0	0	0	0	0	0	0	0	0	0	0	0	0	0	0	0	0	0	0	0	0	0	0	0	0	0	0	0	0	0	0	0	0	0	0
082719	11:36:12	11:43:56	463570	5.0.10.0	5_exp_noRW	116	Rpleas_acq	CS_B	BZZB	GWWG	VKKV	MQQM	YDDY	JXXJ	schön	fair	ehrlich	spielen	treu	retten	schlecht	faul	eitel	strafen	tot	rächen	47pct	acq_USunple_CSpleas1_noRW	acq23456_noRW	3	18	0	0	300	300	461	46	0	1	1	blank2r.bmp	0	1	+	0	1	blank2r.bmp	252	1	BZZB	306	1	schlecht	559	0	0	0	0	0	0	0	0	0	0	0	0	0	0	0	0	0	0	0	0	0	0	0	0	0	0	0	0	0	0	0	0	0	0	0	0	0	0	0
082719	11:36:12	11:43:58	465223	5.0.10.0	5_exp_noRW	116	Rpleas_acq	CS_B	BZZB	GWWG	VKKV	MQQM	YDDY	JXXJ	schön	fair	ehrlich	spielen	treu	retten	schlecht	faul	eitel	strafen	tot	rächen	47pct	acq_USpleas_CSpleas2_noRW	acq23456_noRW	3	19	0	0	300	300	467	50	0	1	1	blank2r.bmp	0	1	+	0	1	blank2r.bmp	252	1	GWWG	306	1	spielen	559	0	0	0	0	0	0	0	0	0	0	0	0	0	0	0	0	0	0	0	0	0	0	0	0	0	0	0	0	0	0	0	0	0	0	0	0	0	0	0
082719	11:36:12	11:43:59	466862	5.0.10.0	5_exp_noRW	116	Rpleas_acq	CS_B	BZZB	GWWG	VKKV	MQQM	YDDY	JXXJ	schön	fair	ehrlich	spielen	treu	retten	schlecht	faul	eitel	strafen	tot	rächen	53pct	acq_USunple_CSpleas2_noRW	acq23456_noRW	3	20	0	0	300	300	477	46	0	1	1	blank2r.bmp	0	1	+	0	1	blank2r.bmp	252	1	GWWG	306	3	rächen	559	0	0	0	0	0	0	0	0	0	0	0	0	0	0	0	0	0	0	0	0	0	0	0	0	0	0	0	0	0	0	0	0	0	0	0	0	0	0	0
082719	11:36:12	11:44:01	468541	5.0.10.0	5_exp_noRW	116	Rpleas_acq	CS_B	BZZB	GWWG	VKKV	MQQM	YDDY	JXXJ	schön	fair	ehrlich	spielen	treu	retten	schlecht	faul	eitel	strafen	tot	rächen	53pct	acq_USunple_CSpleas2_noRW	acq23456_noRW	3	21	0	0	300	300	504	46	0	1	1	blank2r.bmp	0	1	+	0	1	blank2r.bmp	252	1	GWWG	306	1	strafen	559	0	0	0	0	0	0	0	0	0	0	0	0	0	0	0	0	0	0	0	0	0	0	0	0	0	0	0	0	0	0	0	0	0	0	0	0	0	0	0
082719	11:36:12	11:44:03	470141	5.0.10.0	5_exp_noRW	116	Rpleas_acq	CS_B	BZZB	GWWG	VKKV	MQQM	YDDY	JXXJ	schön	fair	ehrlich	spielen	treu	retten	schlecht	faul	eitel	strafen	tot	rächen	47pct	acq_USpleas_CSpleas2_noRW	acq23456_noRW	3	22	0	0	300	300	413	50	0	1	1	blank2r.bmp	0	1	+	0	1	blank2r.bmp	252	1	GWWG	306	1	spielen	559	0	0	0	0	0	0	0	0	0	0	0	0	0	0	0	0	0	0	0	0	0	0	0	0	0	0	0	0	0	0	0	0	0	0	0	0	0	0	0
082719	11:36:12	11:44:04	472033	5.0.10.0	5_exp_noRW	116	Rpleas_acq	CS_B	BZZB	GWWG	VKKV	MQQM	YDDY	JXXJ	schön	fair	ehrlich	spielen	treu	retten	schlecht	faul	eitel	strafen	tot	rächen	53pct	acq_USunple_CSunple1_noRW	acq23456_noRW	3	23	0	0	300	300	500	50	0	0	1	blank2r.bmp	0	1	+	0	1	blank2r.bmp	252	1	VKKV	306	3	eitel	559	1	FEHLER	1092	0	0	0	0	0	0	0	0	0	0	0	0	0	0	0	0	0	0	0	0	0	0	0	0	0	0	0	0	0	0	0	0	0	0	0	0
082719	11:36:12	11:44:06	473379	5.0.10.0	5_exp_noRW	116	Rpleas_acq	CS_B	BZZB	GWWG	VKKV	MQQM	YDDY	JXXJ	schön	fair	ehrlich	spielen	treu	retten	schlecht	faul	eitel	strafen	tot	rächen	53pct	acq_USpleas_CSpleas1_noRW	acq23456_noRW	3	24	0	0	300	300	376	50	0	1	1	blank2r.bmp	0	1	+	0	1	blank2r.bmp	252	1	BZZB	306	2	fair	559	0	0	0	0	0	0	0	0	0	0	0	0	0	0	0	0	0	0	0	0	0	0	0	0	0	0	0	0	0	0	0	0	0	0	0	0	0	0	0
082719	11:36:12	11:44:07	475085	5.0.10.0	5_exp_noRW	116	Rpleas_acq	CS_B	BZZB	GWWG	VKKV	MQQM	YDDY	JXXJ	schön	fair	ehrlich	spielen	treu	retten	schlecht	faul	eitel	strafen	tot	rächen	47pct	acq_USunple_CSunple1_noRW	acq23456_noRW	3	25	0	0	300	300	533	46	0	1	1	blank2r.bmp	0	1	+	0	1	blank2r.bmp	252	1	VKKV	306	2	faul	559	0	0	0	0	0	0	0	0	0	0	0	0	0	0	0	0	0	0	0	0	0	0	0	0	0	0	0	0	0	0	0	0	0	0	0	0	0	0	0
082719	11:36:12	11:44:09	476805	5.0.10.0	5_exp_noRW	116	Rpleas_acq	CS_B	BZZB	GWWG	VKKV	MQQM	YDDY	JXXJ	schön	fair	ehrlich	spielen	treu	retten	schlecht	faul	eitel	strafen	tot	rächen	47pct	acq_USpleas_CSpleas2_noRW	acq23456_noRW	3	26	0	0	300	300	537	50	0	1	1	blank2r.bmp	0	1	+	0	1	blank2r.bmp	252	1	GWWG	306	2	treu	559	0	0	0	0	0	0	0	0	0	0	0	0	0	0	0	0	0	0	0	0	0	0	0	0	0	0	0	0	0	0	0	0	0	0	0	0	0	0	0
082719	11:36:12	11:44:11	478431	5.0.10.0	5_exp_noRW	116	Rpleas_acq	CS_B	BZZB	GWWG	VKKV	MQQM	YDDY	JXXJ	schön	fair	ehrlich	spielen	treu	retten	schlecht	faul	eitel	strafen	tot	rächen	47pct	acq_USunple_CSunple2_noRW	acq23456_noRW	3	27	0	0	300	300	460	46	0	1	1	blank2r.bmp	0	1	+	0	1	blank2r.bmp	252	1	MQQM	306	2	tot	559	0	0	0	0	0	0	0	0	0	0	0	0	0	0	0	0	0	0	0	0	0	0	0	0	0	0	0	0	0	0	0	0	0	0	0	0	0	0	0
082719	11:36:12	11:44:12	479990	5.0.10.0	5_exp_noRW	116	Rpleas_acq	CS_B	BZZB	GWWG	VKKV	MQQM	YDDY	JXXJ	schön	fair	ehrlich	spielen	treu	retten	schlecht	faul	eitel	strafen	tot	rächen	47pct	acq_USpleas_CSpleas1_noRW	acq23456_noRW	3	28	0	0	300	300	392	50	0	1	1	blank2r.bmp	0	1	+	0	1	blank2r.bmp	252	1	BZZB	306	1	schön	559	0	0	0	0	0	0	0	0	0	0	0	0	0	0	0	0	0	0	0	0	0	0	0	0	0	0	0	0	0	0	0	0	0	0	0	0	0	0	0
082719	11:36:12	11:44:14	481643	5.0.10.0	5_exp_noRW	116	Rpleas_acq	CS_B	BZZB	GWWG	VKKV	MQQM	YDDY	JXXJ	schön	fair	ehrlich	spielen	treu	retten	schlecht	faul	eitel	strafen	tot	rächen	47pct	acq_USpleas_CSpleas1_noRW	acq23456_noRW	3	29	0	0	300	300	479	50	0	1	1	blank2r.bmp	0	1	+	0	1	blank2r.bmp	252	1	BZZB	306	3	ehrlich	559	0	0	0	0	0	0	0	0	0	0	0	0	0	0	0	0	0	0	0	0	0	0	0	0	0	0	0	0	0	0	0	0	0	0	0	0	0	0	0
082719	11:36:12	11:44:16	483175	5.0.10.0	5_exp_noRW	116	Rpleas_acq	CS_B	BZZB	GWWG	VKKV	MQQM	YDDY	JXXJ	schön	fair	ehrlich	spielen	treu	retten	schlecht	faul	eitel	strafen	tot	rächen	47pct	acq_USpleas_CSpleas1_noRW	acq23456_noRW	3	30	0	0	300	300	360	50	0	1	1	blank2r.bmp	0	1	+	0	1	blank2r.bmp	252	1	BZZB	306	3	ehrlich	559	0	0	0	0	0	0	0	0	0	0	0	0	0	0	0	0	0	0	0	0	0	0	0	0	0	0	0	0	0	0	0	0	0	0	0	0	0	0	0
082719	11:36:12	11:44:17	484921	5.0.10.0	5_exp_noRW	116	Rpleas_acq	CS_B	BZZB	GWWG	VKKV	MQQM	YDDY	JXXJ	schön	fair	ehrlich	spielen	treu	retten	schlecht	faul	eitel	strafen	tot	rächen	53pct	acq_USunple_CSunple2_noRW	acq23456_noRW	3	31	0	0	300	300	582	46	0	1	1	blank2r.bmp	0	1	+	0	1	blank2r.bmp	252	1	MQQM	306	1	strafen	559	0	0	0	0	0	0	0	0	0	0	0	0	0	0	0	0	0	0	0	0	0	0	0	0	0	0	0	0	0	0	0	0	0	0	0	0	0	0	0
082719	11:36:12	11:44:19	486694	5.0.10.0	5_exp_noRW	116	Rpleas_acq	CS_B	BZZB	GWWG	VKKV	MQQM	YDDY	JXXJ	schön	fair	ehrlich	spielen	treu	retten	schlecht	faul	eitel	strafen	tot	rächen	47pct	acq_USunple_CSpleas1_noRW	acq23456_noRW	3	32	0	0	300	300	382	50	0	0	1	blank2r.bmp	0	1	+	0	1	blank2r.bmp	252	1	BZZB	306	3	eitel	559	1	FEHLER	972	0	0	0	0	0	0	0	0	0	0	0	0	0	0	0	0	0	0	0	0	0	0	0	0	0	0	0	0	0	0	0	0	0	0	0	0
082719	11:36:12	11:44:21	488227	5.0.10.0	5_exp_noRW	116	Rpleas_acq	CS_B	BZZB	GWWG	VKKV	MQQM	YDDY	JXXJ	schön	fair	ehrlich	spielen	treu	retten	schlecht	faul	eitel	strafen	tot	rächen	53pct	acq_USunple_CSunple1_noRW	acq23456_noRW	3	33	0	0	300	300	357	50	0	0	1	blank2r.bmp	0	1	+	0	1	blank2r.bmp	252	1	VKKV	306	1	schlecht	559	1	FEHLER	946	0	0	0	0	0	0	0	0	0	0	0	0	0	0	0	0	0	0	0	0	0	0	0	0	0	0	0	0	0	0	0	0	0	0	0	0
082719	11:36:12	11:44:22	489653	5.0.10.0	5_exp_noRW	116	Rpleas_acq	CS_B	BZZB	GWWG	VKKV	MQQM	YDDY	JXXJ	schön	fair	ehrlich	spielen	treu	retten	schlecht	faul	eitel	strafen	tot	rächen	53pct	acq_USpleas_CSunple1_noRW	acq23456_noRW	3	34	0	0	300	300	452	50	0	1	1	blank2r.bmp	0	1	+	0	1	blank2r.bmp	252	1	VKKV	306	2	fair	559	0	0	0	0	0	0	0	0	0	0	0	0	0	0	0	0	0	0	0	0	0	0	0	0	0	0	0	0	0	0	0	0	0	0	0	0	0	0	0
082719	11:36:12	11:44:24	491412	5.0.10.0	5_exp_noRW	116	Rpleas_acq	CS_B	BZZB	GWWG	VKKV	MQQM	YDDY	JXXJ	schön	fair	ehrlich	spielen	treu	retten	schlecht	faul	eitel	strafen	tot	rächen	53pct	acq_USpleas_CSpleas2_noRW	acq23456_noRW	3	35	0	0	300	300	592	50	0	1	1	blank2r.bmp	0	1	+	0	1	blank2r.bmp	252	1	GWWG	306	3	retten	559	0	0	0	0	0	0	0	0	0	0	0	0	0	0	0	0	0	0	0	0	0	0	0	0	0	0	0	0	0	0	0	0	0	0	0	0	0	0	0
082719	11:36:12	11:44:25	493105	5.0.10.0	5_exp_noRW	116	Rpleas_acq	CS_B	BZZB	GWWG	VKKV	MQQM	YDDY	JXXJ	schön	fair	ehrlich	spielen	treu	retten	schlecht	faul	eitel	strafen	tot	rächen	47pct	acq_USpleas_CSpleas2_noRW	acq23456_noRW	3	36	0	0	300	300	527	50	0	1	1	blank2r.bmp	0	1	+	0	1	blank2r.bmp	252	1	GWWG	306	3	retten	559	0	0	0	0	0	0	0	0	0	0	0	0	0	0	0	0	0	0	0	0	0	0	0	0	0	0	0	0	0	0	0	0	0	0	0	0	0	0	0
082719	11:36:12	11:44:27	495024	5.0.10.0	5_exp_noRW	116	Rpleas_acq	CS_B	BZZB	GWWG	VKKV	MQQM	YDDY	JXXJ	schön	fair	ehrlich	spielen	treu	retten	schlecht	faul	eitel	strafen	tot	rächen	53pct	acq_USunple_CSunple1_noRW	acq23456_noRW	3	37	0	0	300	300	527	50	0	0	1	blank2r.bmp	0	1	+	0	1	blank2r.bmp	252	1	VKKV	306	3	eitel	559	1	FEHLER	1119	0	0	0	0	0	0	0	0	0	0	0	0	0	0	0	0	0	0	0	0	0	0	0	0	0	0	0	0	0	0	0	0	0	0	0	0
082719	11:36:12	11:44:29	496477	5.0.10.0	5_exp_noRW	116	Rpleas_acq	CS_B	BZZB	GWWG	VKKV	MQQM	YDDY	JXXJ	schön	fair	ehrlich	spielen	treu	retten	schlecht	faul	eitel	strafen	tot	rächen	53pct	acq_USunple_CSunple2_noRW	acq23456_noRW	3	38	0	0	300	300	494	46	0	1	1	blank2r.bmp	0	1	+	0	1	blank2r.bmp	252	1	MQQM	306	3	rächen	559	0	0	0	0	0	0	0	0	0	0	0	0	0	0	0	0	0	0	0	0	0	0	0	0	0	0	0	0	0	0	0	0	0	0	0	0	0	0	0
082719	11:36:12	11:44:31	498116	5.0.10.0	5_exp_noRW	116	Rpleas_acq	CS_B	BZZB	GWWG	VKKV	MQQM	YDDY	JXXJ	schön	fair	ehrlich	spielen	treu	retten	schlecht	faul	eitel	strafen	tot	rächen	53pct	acq_USunple_CSunple2_noRW	acq23456_noRW	3	39	0	0	300	300	475	46	0	1	1	blank2r.bmp	0	1	+	0	1	blank2r.bmp	252	1	MQQM	306	3	rächen	559	0	0	0	0	0	0	0	0	0	0	0	0	0	0	0	0	0	0	0	0	0	0	0	0	0	0	0	0	0	0	0	0	0	0	0	0	0	0	0
082719	11:36:12	11:44:32	499769	5.0.10.0	5_exp_noRW	116	Rpleas_acq	CS_B	BZZB	GWWG	VKKV	MQQM	YDDY	JXXJ	schön	fair	ehrlich	spielen	treu	retten	schlecht	faul	eitel	strafen	tot	rächen	53pct	acq_USpleas_CSunple2_noRW	acq23456_noRW	3	40	0	0	300	300	480	50	0	1	1	blank2r.bmp	0	1	+	0	1	blank2r.bmp	252	1	MQQM	306	3	retten	559	0	0	0	0	0	0	0	0	0	0	0	0	0	0	0	0	0	0	0	0	0	0	0	0	0	0	0	0	0	0	0	0	0	0	0	0	0	0	0
082719	11:36:12	11:44:34	501461	5.0.10.0	5_exp_noRW	116	Rpleas_acq	CS_B	BZZB	GWWG	VKKV	MQQM	YDDY	JXXJ	schön	fair	ehrlich	spielen	treu	retten	schlecht	faul	eitel	strafen	tot	rächen	47pct	acq_USunple_CSunple1_noRW	acq23456_noRW	3	41	0	0	300	300	528	46	0	1	1	blank2r.bmp	0	1	+	0	1	blank2r.bmp	252	1	VKKV	306	2	faul	559	0	0	0	0	0	0	0	0	0	0	0	0	0	0	0	0	0	0	0	0	0	0	0	0	0	0	0	0	0	0	0	0	0	0	0	0	0	0	0
082719	11:36:12	11:44:36	503127	5.0.10.0	5_exp_noRW	116	Rpleas_acq	CS_B	BZZB	GWWG	VKKV	MQQM	YDDY	JXXJ	schön	fair	ehrlich	spielen	treu	retten	schlecht	faul	eitel	strafen	tot	rächen	53pct	acq_USunple_CSunple1_noRW	acq23456_noRW	3	42	0	0	300	300	481	46	0	1	1	blank2r.bmp	0	1	+	0	1	blank2r.bmp	252	1	VKKV	306	1	schlecht	559	0	0	0	0	0	0	0	0	0	0	0	0	0	0	0	0	0	0	0	0	0	0	0	0	0	0	0	0	0	0	0	0	0	0	0	0	0	0	0
082719	11:36:12	11:44:37	504833	5.0.10.0	5_exp_noRW	116	Rpleas_acq	CS_B	BZZB	GWWG	VKKV	MQQM	YDDY	JXXJ	schön	fair	ehrlich	spielen	treu	retten	schlecht	faul	eitel	strafen	tot	rächen	47pct	acq_USpleas_CSpleas1_noRW	acq23456_noRW	3	43	0	0	300	300	538	50	0	1	1	blank2r.bmp	0	1	+	0	1	blank2r.bmp	252	1	BZZB	306	2	fair	559	0	0	0	0	0	0	0	0	0	0	0	0	0	0	0	0	0	0	0	0	0	0	0	0	0	0	0	0	0	0	0	0	0	0	0	0	0	0	0
082719	11:36:12	11:44:39	506499	5.0.10.0	5_exp_noRW	116	Rpleas_acq	CS_B	BZZB	GWWG	VKKV	MQQM	YDDY	JXXJ	schön	fair	ehrlich	spielen	treu	retten	schlecht	faul	eitel	strafen	tot	rächen	53pct	acq_USpleas_CSpleas1_noRW	acq23456_noRW	3	44	0	0	300	300	486	50	0	1	1	blank2r.bmp	0	1	+	0	1	blank2r.bmp	252	1	BZZB	306	1	schön	559	0	0	0	0	0	0	0	0	0	0	0	0	0	0	0	0	0	0	0	0	0	0	0	0	0	0	0	0	0	0	0	0	0	0	0	0	0	0	0
082719	11:36:12	11:44:41	508245	5.0.10.0	5_exp_noRW	116	Rpleas_acq	CS_B	BZZB	GWWG	VKKV	MQQM	YDDY	JXXJ	schön	fair	ehrlich	spielen	treu	retten	schlecht	faul	eitel	strafen	tot	rächen	47pct	acq_USunple_CSunple2_noRW	acq23456_noRW	3	45	0	0	300	300	563	46	0	1	1	blank2r.bmp	0	1	+	0	1	blank2r.bmp	252	1	MQQM	306	1	strafen	559	0	0	0	0	0	0	0	0	0	0	0	0	0	0	0	0	0	0	0	0	0	0	0	0	0	0	0	0	0	0	0	0	0	0	0	0	0	0	0
082719	11:36:12	11:44:42	509911	5.0.10.0	5_exp_noRW	116	Rpleas_acq	CS_B	BZZB	GWWG	VKKV	MQQM	YDDY	JXXJ	schön	fair	ehrlich	spielen	treu	retten	schlecht	faul	eitel	strafen	tot	rächen	53pct	acq_USunple_CSunple2_noRW	acq23456_noRW	3	46	0	0	300	300	498	46	0	1	1	blank2r.bmp	0	1	+	0	1	blank2r.bmp	252	1	MQQM	306	2	tot	559	0	0	0	0	0	0	0	0	0	0	0	0	0	0	0	0	0	0	0	0	0	0	0	0	0	0	0	0	0	0	0	0	0	0	0	0	0	0	0
082719	11:36:12	11:44:44	511617	5.0.10.0	5_exp_noRW	116	Rpleas_acq	CS_B	BZZB	GWWG	VKKV	MQQM	YDDY	JXXJ	schön	fair	ehrlich	spielen	treu	retten	schlecht	faul	eitel	strafen	tot	rächen	47pct	acq_USunple_CSpleas2_noRW	acq23456_noRW	3	47	0	0	300	300	537	46	0	1	1	blank2r.bmp	0	1	+	0	1	blank2r.bmp	252	1	GWWG	306	3	rächen	559	0	0	0	0	0	0	0	0	0	0	0	0	0	0	0	0	0	0	0	0	0	0	0	0	0	0	0	0	0	0	0	0	0	0	0	0	0	0	0
082719	11:36:12	11:44:46	513256	5.0.10.0	5_exp_noRW	116	Rpleas_acq	CS_B	BZZB	GWWG	VKKV	MQQM	YDDY	JXXJ	schön	fair	ehrlich	spielen	treu	retten	schlecht	faul	eitel	strafen	tot	rächen	47pct	acq_USunple_CSunple1_noRW	acq23456_noRW	3	48	0	0	300	300	454	46	0	1	1	blank2r.bmp	0	1	+	0	1	blank2r.bmp	252	1	VKKV	306	2	faul	559	0	0	0	0	0	0	0	0	0	0	0	0	0	0	0	0	0	0	0	0	0	0	0	0	0	0	0	0	0	0	0	0	0	0	0	0	0	0	0
082719	11:36:12	11:44:47	514869	5.0.10.0	5_exp_noRW	116	Rpleas_acq	CS_B	BZZB	GWWG	VKKV	MQQM	YDDY	JXXJ	schön	fair	ehrlich	spielen	treu	retten	schlecht	faul	eitel	strafen	tot	rächen	53pct	acq_USpleas_CSpleas1_noRW	acq23456_noRW	3	49	0	0	300	300	445	50	0	1	1	blank2r.bmp	0	1	+	0	1	blank2r.bmp	252	1	BZZB	306	1	schön	559	0	0	0	0	0	0	0	0	0	0	0	0	0	0	0	0	0	0	0	0	0	0	0	0	0	0	0	0	0	0	0	0	0	0	0	0	0	0	0
082719	11:36:12	11:44:49	516655	5.0.10.0	5_exp_noRW	116	Rpleas_acq	CS_B	BZZB	GWWG	VKKV	MQQM	YDDY	JXXJ	schön	fair	ehrlich	spielen	treu	retten	schlecht	faul	eitel	strafen	tot	rächen	47pct	acq_USunple_CSunple2_noRW	acq23456_noRW	3	50	0	0	300	300	622	46	0	1	1	blank2r.bmp	0	1	+	0	1	blank2r.bmp	252	1	MQQM	306	1	strafen	559	0	0	0	0	0	0	0	0	0	0	0	0	0	0	0	0	0	0	0	0	0	0	0	0	0	0	0	0	0	0	0	0	0	0	0	0	0	0	0
082719	11:36:12	11:44:51	518254	5.0.10.0	5_exp_noRW	116	Rpleas_acq	CS_B	BZZB	GWWG	VKKV	MQQM	YDDY	JXXJ	schön	fair	ehrlich	spielen	treu	retten	schlecht	faul	eitel	strafen	tot	rächen	53pct	acq_USpleas_CSpleas2_noRW	acq23456_noRW	3	51	0	0	300	300	414	50	0	1	1	blank2r.bmp	0	1	+	0	1	blank2r.bmp	252	1	GWWG	306	1	spielen	559	0	0	0	0	0	0	0	0	0	0	0	0	0	0	0	0	0	0	0	0	0	0	0	0	0	0	0	0	0	0	0	0	0	0	0	0	0	0	0
082719	11:36:12	11:44:52	519987	5.0.10.0	5_exp_noRW	116	Rpleas_acq	CS_B	BZZB	GWWG	VKKV	MQQM	YDDY	JXXJ	schön	fair	ehrlich	spielen	treu	retten	schlecht	faul	eitel	strafen	tot	rächen	47pct	acq_USpleas_CSunple1_noRW	acq23456_noRW	3	52	0	0	300	300	566	50	0	1	1	blank2r.bmp	0	1	+	0	1	blank2r.bmp	252	1	VKKV	306	3	ehrlich	559	0	0	0	0	0	0	0	0	0	0	0	0	0	0	0	0	0	0	0	0	0	0	0	0	0	0	0	0	0	0	0	0	0	0	0	0	0	0	0
082719	11:36:12	11:44:54	521760	5.0.10.0	5_exp_noRW	116	Rpleas_acq	CS_B	BZZB	GWWG	VKKV	MQQM	YDDY	JXXJ	schön	fair	ehrlich	spielen	treu	retten	schlecht	faul	eitel	strafen	tot	rächen	47pct	acq_USunple_CSunple1_noRW	acq23456_noRW	3	53	0	0	300	300	603	46	0	1	1	blank2r.bmp	0	1	+	0	1	blank2r.bmp	252	1	VKKV	306	3	eitel	559	0	0	0	0	0	0	0	0	0	0	0	0	0	0	0	0	0	0	0	0	0	0	0	0	0	0	0	0	0	0	0	0	0	0	0	0	0	0	0
082719	11:36:12	11:44:56	523332	5.0.10.0	5_exp_noRW	116	Rpleas_acq	CS_B	BZZB	GWWG	VKKV	MQQM	YDDY	JXXJ	schön	fair	ehrlich	spielen	treu	retten	schlecht	faul	eitel	strafen	tot	rächen	53pct	acq_USpleas_CSpleas1_noRW	acq23456_noRW	3	54	0	0	300	300	397	50	0	1	1	blank2r.bmp	0	1	+	0	1	blank2r.bmp	252	1	BZZB	306	3	ehrlich	559	0	0	0	0	0	0	0	0	0	0	0	0	0	0	0	0	0	0	0	0	0	0	0	0	0	0	0	0	0	0	0	0	0	0	0	0	0	0	0
082719	11:36:12	11:44:58	525132	5.0.10.0	5_exp_noRW	116	Rpleas_acq	CS_B	BZZB	GWWG	VKKV	MQQM	YDDY	JXXJ	schön	fair	ehrlich	spielen	treu	retten	schlecht	faul	eitel	strafen	tot	rächen	53pct	acq_USpleas_CSpleas2_noRW	acq23456_noRW	3	55	0	0	300	300	625	50	0	1	1	blank2r.bmp	0	1	+	0	1	blank2r.bmp	252	1	GWWG	306	2	treu	559	0	0	0	0	0	0	0	0	0	0	0	0	0	0	0	0	0	0	0	0	0	0	0	0	0	0	0	0	0	0	0	0	0	0	0	0	0	0	0
082719	11:36:12	11:44:59	526811	5.0.10.0	5_exp_noRW	116	Rpleas_acq	CS_B	BZZB	GWWG	VKKV	MQQM	YDDY	JXXJ	schön	fair	ehrlich	spielen	treu	retten	schlecht	faul	eitel	strafen	tot	rächen	47pct	acq_USunple_CSunple2_noRW	acq23456_noRW	3	56	0	0	300	300	495	46	0	1	1	blank2r.bmp	0	1	+	0	1	blank2r.bmp	252	1	MQQM	306	3	rächen	559	0	0	0	0	0	0	0	0	0	0	0	0	0	0	0	0	0	0	0	0	0	0	0	0	0	0	0	0	0	0	0	0	0	0	0	0	0	0	0
082719	11:36:12	11:45:01	528490	5.0.10.0	5_exp_noRW	116	Rpleas_acq	CS_B	BZZB	GWWG	VKKV	MQQM	YDDY	JXXJ	schön	fair	ehrlich	spielen	treu	retten	schlecht	faul	eitel	strafen	tot	rächen	53pct	acq_USpleas_CSunple2_noRW	acq23456_noRW	3	57	0	0	300	300	507	50	0	1	1	blank2r.bmp	0	1	+	0	1	blank2r.bmp	252	1	MQQM	306	1	spielen	559	0	0	0	0	0	0	0	0	0	0	0	0	0	0	0	0	0	0	0	0	0	0	0	0	0	0	0	0	0	0	0	0	0	0	0	0	0	0	0
082719	11:36:12	11:45:03	530130	5.0.10.0	5_exp_noRW	116	Rpleas_acq	CS_B	BZZB	GWWG	VKKV	MQQM	YDDY	JXXJ	schön	fair	ehrlich	spielen	treu	retten	schlecht	faul	eitel	strafen	tot	rächen	47pct	acq_USpleas_CSpleas2_noRW	acq23456_noRW	3	58	0	0	300	300	477	50	0	1	1	blank2r.bmp	0	1	+	0	1	blank2r.bmp	252	1	GWWG	306	3	retten	559	0	0	0	0	0	0	0	0	0	0	0	0	0	0	0	0	0	0	0	0	0	0	0	0	0	0	0	0	0	0	0	0	0	0	0	0	0	0	0
082719	11:36:12	11:45:04	531769	5.0.10.0	5_exp_noRW	116	Rpleas_acq	CS_B	BZZB	GWWG	VKKV	MQQM	YDDY	JXXJ	schön	fair	ehrlich	spielen	treu	retten	schlecht	faul	eitel	strafen	tot	rächen	53pct	acq_USpleas_CSpleas2_noRW	acq23456_noRW	3	59	0	0	300	300	462	50	0	1	1	blank2r.bmp	0	1	+	0	1	blank2r.bmp	252	1	GWWG	306	2	treu	559	0	0	0	0	0	0	0	0	0	0	0	0	0	0	0	0	0	0	0	0	0	0	0	0	0	0	0	0	0	0	0	0	0	0	0	0	0	0	0
082719	11:36:12	11:45:06	533395	5.0.10.0	5_exp_noRW	116	Rpleas_acq	CS_B	BZZB	GWWG	VKKV	MQQM	YDDY	JXXJ	schön	fair	ehrlich	spielen	treu	retten	schlecht	faul	eitel	strafen	tot	rächen	53pct	acq_USunple_CSpleas1_noRW	acq23456_noRW	3	60	0	0	300	300	445	46	0	1	1	blank2r.bmp	0	1	+	0	1	blank2r.bmp	252	1	BZZB	306	1	schlecht	559	0	0	0	0	0	0	0	0	0	0	0	0	0	0	0	0	0	0	0	0	0	0	0	0	0	0	0	0	0	0	0	0	0	0	0	0	0	0	0
082719	11:36:12	11:45:07	535061	5.0.10.0	5_exp_noRW	116	Rpleas_acq	CS_B	BZZB	GWWG	VKKV	MQQM	YDDY	JXXJ	schön	fair	ehrlich	spielen	treu	retten	schlecht	faul	eitel	strafen	tot	rächen	47pct	acq_USunple_CSunple1_noRW	acq23456_noRW	3	61	0	0	300	300	488	46	0	1	1	blank2r.bmp	0	1	+	0	1	blank2r.bmp	252	1	VKKV	306	1	schlecht	559	0	0	0	0	0	0	0	0	0	0	0	0	0	0	0	0	0	0	0	0	0	0	0	0	0	0	0	0	0	0	0	0	0	0	0	0	0	0	0
082719	11:36:12	11:45:10	537273	5.0.10.0	5_exp_noRW	116	Rpleas_acq	CS_B	BZZB	GWWG	VKKV	MQQM	YDDY	JXXJ	schön	fair	ehrlich	spielen	treu	retten	schlecht	faul	eitel	strafen	tot	rächen	47pct	acq_USunple_CSunple1_noRW	acq23456_noRW	3	62	0	0	300	300	1034	46	0	1	1	blank2r.bmp	0	1	+	0	1	blank2r.bmp	252	1	VKKV	306	3	eitel	559	0	0	0	0	0	0	0	0	0	0	0	0	0	0	0	0	0	0	0	0	0	0	0	0	0	0	0	0	0	0	0	0	0	0	0	0	0	0	0
082719	11:36:12	11:45:11	539006	5.0.10.0	5_exp_noRW	116	Rpleas_acq	CS_B	BZZB	GWWG	VKKV	MQQM	YDDY	JXXJ	schön	fair	ehrlich	spielen	treu	retten	schlecht	faul	eitel	strafen	tot	rächen	47pct	acq_USpleas_CSunple2_noRW	acq23456_noRW	3	63	0	0	300	300	563	50	0	1	1	blank2r.bmp	0	1	+	0	1	blank2r.bmp	252	1	MQQM	306	2	treu	559	0	0	0	0	0	0	0	0	0	0	0	0	0	0	0	0	0	0	0	0	0	0	0	0	0	0	0	0	0	0	0	0	0	0	0	0	0	0	0
082719	11:36:12	11:45:13	540645	5.0.10.0	5_exp_noRW	116	Rpleas_acq	CS_B	BZZB	GWWG	VKKV	MQQM	YDDY	JXXJ	schön	fair	ehrlich	spielen	treu	retten	schlecht	faul	eitel	strafen	tot	rächen	53pct	acq_USunple_CSunple1_noRW	acq23456_noRW	3	64	0	0	300	300	470	46	0	1	1	blank2r.bmp	0	1	+	0	1	blank2r.bmp	252	1	VKKV	306	1	schlecht	559	0	0	0	0	0	0	0	0	0	0	0	0	0	0	0	0	0	0	0	0	0	0	0	0	0	0	0	0	0	0	0	0	0	0	0	0	0	0	0
082719	11:36:12	11:45:15	542631	5.0.10.0	5_exp_noRW	116	Rpleas_acq	CS_B	BZZB	GWWG	VKKV	MQQM	YDDY	JXXJ	schön	fair	ehrlich	spielen	treu	retten	schlecht	faul	eitel	strafen	tot	rächen	47pct	acq_USpleas_CSpleas1_noRW	acq23456_noRW	3	65	0	0	300	300	603	46	0	0	1	blank2r.bmp	0	1	+	0	1	blank2r.bmp	252	1	BZZB	306	2	fair	559	1	FEHLER	1199	0	0	0	0	0	0	0	0	0	0	0	0	0	0	0	0	0	0	0	0	0	0	0	0	0	0	0	0	0	0	0	0	0	0	0	0
082719	11:36:12	11:45:16	544031	5.0.10.0	5_exp_noRW	116	Rpleas_acq	CS_B	BZZB	GWWG	VKKV	MQQM	YDDY	JXXJ	schön	fair	ehrlich	spielen	treu	retten	schlecht	faul	eitel	strafen	tot	rächen	47pct	acq_USpleas_CSunple1_noRW	acq23456_noRW	3	66	0	0	300	300	444	50	0	1	1	blank2r.bmp	0	1	+	0	1	blank2r.bmp	252	1	VKKV	306	1	schön	559	0	0	0	0	0	0	0	0	0	0	0	0	0	0	0	0	0	0	0	0	0	0	0	0	0	0	0	0	0	0	0	0	0	0	0	0	0	0	0
082719	11:36:12	11:45:18	545630	5.0.10.0	5_exp_noRW	116	Rpleas_acq	CS_B	BZZB	GWWG	VKKV	MQQM	YDDY	JXXJ	schön	fair	ehrlich	spielen	treu	retten	schlecht	faul	eitel	strafen	tot	rächen	47pct	acq_USpleas_CSpleas2_noRW	acq23456_noRW	3	67	0	0	300	300	435	50	0	1	1	blank2r.bmp	0	1	+	0	1	blank2r.bmp	252	1	GWWG	306	1	spielen	559	0	0	0	0	0	0	0	0	0	0	0	0	0	0	0	0	0	0	0	0	0	0	0	0	0	0	0	0	0	0	0	0	0	0	0	0	0	0	0
082719	11:36:12	11:45:20	547229	5.0.10.0	5_exp_noRW	116	Rpleas_acq	CS_B	BZZB	GWWG	VKKV	MQQM	YDDY	JXXJ	schön	fair	ehrlich	spielen	treu	retten	schlecht	faul	eitel	strafen	tot	rächen	53pct	acq_USpleas_CSpleas2_noRW	acq23456_noRW	3	68	0	0	300	300	419	50	0	1	1	blank2r.bmp	0	1	+	0	1	blank2r.bmp	252	1	GWWG	306	1	spielen	559	0	0	0	0	0	0	0	0	0	0	0	0	0	0	0	0	0	0	0	0	0	0	0	0	0	0	0	0	0	0	0	0	0	0	0	0	0	0	0
082719	11:36:12	11:45:21	548989	5.0.10.0	5_exp_noRW	116	Rpleas_acq	CS_B	BZZB	GWWG	VKKV	MQQM	YDDY	JXXJ	schön	fair	ehrlich	spielen	treu	retten	schlecht	faul	eitel	strafen	tot	rächen	53pct	acq_USpleas_CSpleas2_noRW	acq23456_noRW	3	69	0	0	300	300	578	50	0	1	1	blank2r.bmp	0	1	+	0	1	blank2r.bmp	252	1	GWWG	306	2	treu	559	0	0	0	0	0	0	0	0	0	0	0	0	0	0	0	0	0	0	0	0	0	0	0	0	0	0	0	0	0	0	0	0	0	0	0	0	0	0	0
082719	11:36:12	11:45:23	550708	5.0.10.0	5_exp_noRW	116	Rpleas_acq	CS_B	BZZB	GWWG	VKKV	MQQM	YDDY	JXXJ	schön	fair	ehrlich	spielen	treu	retten	schlecht	faul	eitel	strafen	tot	rächen	53pct	acq_USpleas_CSpleas1_noRW	acq23456_noRW	3	70	0	0	300	300	550	50	0	1	1	blank2r.bmp	0	1	+	0	1	blank2r.bmp	252	1	BZZB	306	2	fair	559	0	0	0	0	0	0	0	0	0	0	0	0	0	0	0	0	0	0	0	0	0	0	0	0	0	0	0	0	0	0	0	0	0	0	0	0	0	0	0
082719	11:36:12	11:45:25	552294	5.0.10.0	5_exp_noRW	116	Rpleas_acq	CS_B	BZZB	GWWG	VKKV	MQQM	YDDY	JXXJ	schön	fair	ehrlich	spielen	treu	retten	schlecht	faul	eitel	strafen	tot	rächen	53pct	acq_USunple_CSunple2_noRW	acq23456_noRW	3	71	0	0	300	300	422	46	0	1	1	blank2r.bmp	0	1	+	0	1	blank2r.bmp	252	1	MQQM	306	2	tot	559	0	0	0	0	0	0	0	0	0	0	0	0	0	0	0	0	0	0	0	0	0	0	0	0	0	0	0	0	0	0	0	0	0	0	0	0	0	0	0
082719	11:36:12	11:45:26	553867	5.0.10.0	5_exp_noRW	116	Rpleas_acq	CS_B	BZZB	GWWG	VKKV	MQQM	YDDY	JXXJ	schön	fair	ehrlich	spielen	treu	retten	schlecht	faul	eitel	strafen	tot	rächen	47pct	acq_USunple_CSunple1_noRW	acq23456_noRW	3	72	0	0	300	300	406	46	0	1	1	blank2r.bmp	0	1	+	0	1	blank2r.bmp	252	1	VKKV	306	2	faul	559	0	0	0	0	0	0	0	0	0	0	0	0	0	0	0	0	0	0	0	0	0	0	0	0	0	0	0	0	0	0	0	0	0	0	0	0	0	0	0
082719	11:36:12	11:45:28	555626	5.0.10.0	5_exp_noRW	116	Rpleas_acq	CS_B	BZZB	GWWG	VKKV	MQQM	YDDY	JXXJ	schön	fair	ehrlich	spielen	treu	retten	schlecht	faul	eitel	strafen	tot	rächen	53pct	acq_USpleas_CSpleas2_noRW	acq23456_noRW	3	73	0	0	300	300	369	46	0	0	1	blank2r.bmp	0	1	+	0	1	blank2r.bmp	252	1	GWWG	306	3	retten	559	1	FEHLER	959	0	0	0	0	0	0	0	0	0	0	0	0	0	0	0	0	0	0	0	0	0	0	0	0	0	0	0	0	0	0	0	0	0	0	0	0
082719	11:36:12	11:45:30	557145	5.0.10.0	5_exp_noRW	116	Rpleas_acq	CS_B	BZZB	GWWG	VKKV	MQQM	YDDY	JXXJ	schön	fair	ehrlich	spielen	treu	retten	schlecht	faul	eitel	strafen	tot	rächen	53pct	acq_USunple_CSpleas2_noRW	acq23456_noRW	3	74	0	0	300	300	347	50	0	0	1	blank2r.bmp	0	1	+	0	1	blank2r.bmp	252	1	GWWG	306	2	tot	559	1	FEHLER	946	0	0	0	0	0	0	0	0	0	0	0	0	0	0	0	0	0	0	0	0	0	0	0	0	0	0	0	0	0	0	0	0	0	0	0	0
082719	11:36:12	11:45:31	558558	5.0.10.0	5_exp_noRW	116	Rpleas_acq	CS_B	BZZB	GWWG	VKKV	MQQM	YDDY	JXXJ	schön	fair	ehrlich	spielen	treu	retten	schlecht	faul	eitel	strafen	tot	rächen	47pct	acq_USpleas_CSpleas1_noRW	acq23456_noRW	3	75	0	0	300	300	460	50	0	1	1	blank2r.bmp	0	1	+	0	1	blank2r.bmp	252	1	BZZB	306	1	schön	559	0	0	0	0	0	0	0	0	0	0	0	0	0	0	0	0	0	0	0	0	0	0	0	0	0	0	0	0	0	0	0	0	0	0	0	0	0	0	0
082719	11:36:12	11:45:33	560211	5.0.10.0	5_exp_noRW	116	Rpleas_acq	CS_B	BZZB	GWWG	VKKV	MQQM	YDDY	JXXJ	schön	fair	ehrlich	spielen	treu	retten	schlecht	faul	eitel	strafen	tot	rächen	53pct	acq_USunple_CSunple2_noRW	acq23456_noRW	3	76	0	0	300	300	475	46	0	1	1	blank2r.bmp	0	1	+	0	1	blank2r.bmp	252	1	MQQM	306	2	tot	559	0	0	0	0	0	0	0	0	0	0	0	0	0	0	0	0	0	0	0	0	0	0	0	0	0	0	0	0	0	0	0	0	0	0	0	0	0	0	0
082719	11:36:12	11:45:34	561903	5.0.10.0	5_exp_noRW	116	Rpleas_acq	CS_B	BZZB	GWWG	VKKV	MQQM	YDDY	JXXJ	schön	fair	ehrlich	spielen	treu	retten	schlecht	faul	eitel	strafen	tot	rächen	47pct	acq_USunple_CSunple2_noRW	acq23456_noRW	3	77	0	0	300	300	509	46	0	1	1	blank2r.bmp	0	1	+	0	1	blank2r.bmp	252	1	MQQM	306	3	rächen	559	0	0	0	0	0	0	0	0	0	0	0	0	0	0	0	0	0	0	0	0	0	0	0	0	0	0	0	0	0	0	0	0	0	0	0	0	0	0	0
082719	11:36:12	11:45:36	563503	5.0.10.0	5_exp_noRW	116	Rpleas_acq	CS_B	BZZB	GWWG	VKKV	MQQM	YDDY	JXXJ	schön	fair	ehrlich	spielen	treu	retten	schlecht	faul	eitel	strafen	tot	rächen	47pct	acq_USunple_CSpleas1_noRW	acq23456_noRW	3	78	0	0	300	300	430	46	0	1	1	blank2r.bmp	0	1	+	0	1	blank2r.bmp	252	1	BZZB	306	2	faul	559	0	0	0	0	0	0	0	0	0	0	0	0	0	0	0	0	0	0	0	0	0	0	0	0	0	0	0	0	0	0	0	0	0	0	0	0	0	0	0
082719	11:36:12	11:45:38	565115	5.0.10.0	5_exp_noRW	116	Rpleas_acq	CS_B	BZZB	GWWG	VKKV	MQQM	YDDY	JXXJ	schön	fair	ehrlich	spielen	treu	retten	schlecht	faul	eitel	strafen	tot	rächen	47pct	acq_USpleas_CSpleas1_noRW	acq23456_noRW	3	79	0	0	300	300	435	50	0	1	1	blank2r.bmp	0	1	+	0	1	blank2r.bmp	252	1	BZZB	306	3	ehrlich	559	0	0	0	0	0	0	0	0	0	0	0	0	0	0	0	0	0	0	0	0	0	0	0	0	0	0	0	0	0	0	0	0	0	0	0	0	0	0	0
082719	11:36:12	11:45:39	566821	5.0.10.0	5_exp_noRW	116	Rpleas_acq	CS_B	BZZB	GWWG	VKKV	MQQM	YDDY	JXXJ	schön	fair	ehrlich	spielen	treu	retten	schlecht	faul	eitel	strafen	tot	rächen	47pct	acq_USunple_CSunple2_noRW	acq23456_noRW	3	80	0	0	300	300	521	46	0	1	1	blank2r.bmp	0	1	+	0	1	blank2r.bmp	252	1	MQQM	306	1	strafen	559	0	0	0	0	0	0	0	0	0	0	0	0	0	0	0	0	0	0	0	0	0	0	0	0	0	0	0	0	0	0	0	0	0	0	0	0	0	0	0
082719	11:36:12	11:45:51	578137	5.0.10.0	5_exp_noRW	116	Rpleas_acq	CS_B	BZZB	GWWG	VKKV	MQQM	YDDY	JXXJ	schön	fair	ehrlich	spielen	treu	retten	schlecht	faul	eitel	strafen	tot	rächen	53pct	acq_USunple_CSpleas2_noRW	acq23456_noRW	4	1	0	0	300	300	505	46	0	1	1	blank2r.bmp	0	1	+	0	1	blank2r.bmp	252	1	GWWG	306	3	rächen	559	0	0	0	0	0	0	0	0	0	0	0	0	0	0	0	0	0	0	0	0	0	0	0	0	0	0	0	0	0	0	0	0	0	0	0	0	0	0	0
082719	11:36:12	11:45:52	579643	5.0.10.0	5_exp_noRW	116	Rpleas_acq	CS_B	BZZB	GWWG	VKKV	MQQM	YDDY	JXXJ	schön	fair	ehrlich	spielen	treu	retten	schlecht	faul	eitel	strafen	tot	rächen	53pct	acq_USunple_CSunple2_noRW	acq23456_noRW	4	2	0	0	300	300	337	46	0	1	1	blank2r.bmp	0	1	+	0	1	blank2r.bmp	252	1	MQQM	306	1	strafen	559	0	0	0	0	0	0	0	0	0	0	0	0	0	0	0	0	0	0	0	0	0	0	0	0	0	0	0	0	0	0	0	0	0	0	0	0	0	0	0
082719	11:36:12	11:45:54	581175	5.0.10.0	5_exp_noRW	116	Rpleas_acq	CS_B	BZZB	GWWG	VKKV	MQQM	YDDY	JXXJ	schön	fair	ehrlich	spielen	treu	retten	schlecht	faul	eitel	strafen	tot	rächen	53pct	acq_USunple_CSunple2_noRW	acq23456_noRW	4	3	0	0	300	300	365	46	0	1	1	blank2r.bmp	0	1	+	0	1	blank2r.bmp	252	1	MQQM	306	3	rächen	559	0	0	0	0	0	0	0	0	0	0	0	0	0	0	0	0	0	0	0	0	0	0	0	0	0	0	0	0	0	0	0	0	0	0	0	0	0	0	0
082719	11:36:12	11:45:55	582788	5.0.10.0	5_exp_noRW	116	Rpleas_acq	CS_B	BZZB	GWWG	VKKV	MQQM	YDDY	JXXJ	schön	fair	ehrlich	spielen	treu	retten	schlecht	faul	eitel	strafen	tot	rächen	47pct	acq_USpleas_CSpleas2_noRW	acq23456_noRW	4	4	0	0	300	300	431	50	0	1	1	blank2r.bmp	0	1	+	0	1	blank2r.bmp	252	1	GWWG	306	3	retten	559	0	0	0	0	0	0	0	0	0	0	0	0	0	0	0	0	0	0	0	0	0	0	0	0	0	0	0	0	0	0	0	0	0	0	0	0	0	0	0
082719	11:36:12	11:45:57	584627	5.0.10.0	5_exp_noRW	116	Rpleas_acq	CS_B	BZZB	GWWG	VKKV	MQQM	YDDY	JXXJ	schön	fair	ehrlich	spielen	treu	retten	schlecht	faul	eitel	strafen	tot	rächen	53pct	acq_USunple_CSunple1_noRW	acq23456_noRW	4	5	0	0	300	300	652	46	0	1	1	blank2r.bmp	0	1	+	0	1	blank2r.bmp	252	1	VKKV	306	3	eitel	559	0	0	0	0	0	0	0	0	0	0	0	0	0	0	0	0	0	0	0	0	0	0	0	0	0	0	0	0	0	0	0	0	0	0	0	0	0	0	0
082719	11:36:12	11:45:59	586227	5.0.10.0	5_exp_noRW	116	Rpleas_acq	CS_B	BZZB	GWWG	VKKV	MQQM	YDDY	JXXJ	schön	fair	ehrlich	spielen	treu	retten	schlecht	faul	eitel	strafen	tot	rächen	53pct	acq_USpleas_CSpleas2_noRW	acq23456_noRW	4	6	0	0	300	300	433	50	0	1	1	blank2r.bmp	0	1	+	0	1	blank2r.bmp	252	1	GWWG	306	2	treu	559	0	0	0	0	0	0	0	0	0	0	0	0	0	0	0	0	0	0	0	0	0	0	0	0	0	0	0	0	0	0	0	0	0	0	0	0	0	0	0
082719	11:36:12	11:46:01	588173	5.0.10.0	5_exp_noRW	116	Rpleas_acq	CS_B	BZZB	GWWG	VKKV	MQQM	YDDY	JXXJ	schön	fair	ehrlich	spielen	treu	retten	schlecht	faul	eitel	strafen	tot	rächen	47pct	acq_USpleas_CSpleas1_noRW	acq23456_noRW	4	7	0	0	300	300	559	46	0	0	1	blank2r.bmp	0	1	+	0	1	blank2r.bmp	252	1	BZZB	306	2	fair	559	1	FEHLER	1159	0	0	0	0	0	0	0	0	0	0	0	0	0	0	0	0	0	0	0	0	0	0	0	0	0	0	0	0	0	0	0	0	0	0	0	0
082719	11:36:12	11:46:02	589599	5.0.10.0	5_exp_noRW	116	Rpleas_acq	CS_B	BZZB	GWWG	VKKV	MQQM	YDDY	JXXJ	schön	fair	ehrlich	spielen	treu	retten	schlecht	faul	eitel	strafen	tot	rächen	53pct	acq_USunple_CSpleas1_noRW	acq23456_noRW	4	8	0	0	300	300	473	46	0	1	1	blank2r.bmp	0	1	+	0	1	blank2r.bmp	252	1	BZZB	306	1	schlecht	559	0	0	0	0	0	0	0	0	0	0	0	0	0	0	0	0	0	0	0	0	0	0	0	0	0	0	0	0	0	0	0	0	0	0	0	0	0	0	0
