date	time	script.currenttime	script.elapsedtime	build	script.currentexpt	subject	expressions.LRpleas_acq	expressions.conditionCS_A	expressions.CSpleas_1	expressions.CSpleas_2	expressions.CSunple_1	expressions.CSunple_2	expressions.distractor_1	expressions.distractor_2	expressions.US_pleas1	expressions.US_pleas2	expressions.US_pleas3	expressions.US_pleas4	expressions.US_pleas5	expressions.US_pleas6	expressions.US_unple1	expressions.US_unple2	expressions.US_unple3	expressions.US_unple4	expressions.US_unple5	expressions.US_unple6	counter.positions_noRW	trialcode	blockcode	blocknum	trialnum	windowcenter	inwindow	pretrialpause	posttrialpause	latency	response	expressions.correctedscore	correct	stimulusnumber1	stimulusitem1	stimulusonset1	stimulusnumber2	stimulusitem2	stimulusonset2	stimulusnumber3	stimulusitem3	stimulusonset3	stimulusnumber4	stimulusitem4	stimulusonset4	stimulusnumber5	stimulusitem5	stimulusonset5	stimulusnumber6	stimulusitem6	stimulusonset6	stimulusnumber7	stimulusitem7	stimulusonset7	stimulusnumber8	stimulusitem8	stimulusonset8	stimulusnumber9	stimulusitem9	stimulusonset9	stimulusnumber10	stimulusitem10	stimulusonset10	stimulusnumber11	stimulusitem11	stimulusonset11	stimulusnumber12	stimulusitem12	stimulusonset12	stimulusnumber13	stimulusitem13	stimulusonset13	stimulusnumber14	stimulusitem14	stimulusonset14	stimulusnumber15	stimulusitem15	stimulusonset15	stimulusnumber16	stimulusitem16	stimulusonset16	stimulusnumber17	stimulusitem17	stimulusonset17	stimulusnumber18	stimulusitem18	stimulusonset18
072419	14:20:20	14:21:44	82939	5.0.10.0	5_exp_noRW	82	Rpleas_acq	CS_A	JQQJ	YFFY	ZHHZ	DXXD	CPPC	LWWL	träumen	küssen	vertrauen	genießen	gütig	sonnig	töten	krank	versagen	gemein	gierig	sterben	47pct	acq_USunple_CSpleas1_noRW	acq1_noRW	1	1	0	0	300	300	2000	0	0	0	1	blank2r.bmp	0	1	+	0	1	blank2r.bmp	252	1	JQQJ	306	3	versagen	559	1	FEHLER	2598	1	Schneller!	2598	0	0	0	0	0	0	0	0	0	0	0	0	0	0	0	0	0	0	0	0	0	0	0	0	0	0	0	0	0	0	0	0	0
072419	14:20:20	14:21:45	84711	5.0.10.0	5_exp_noRW	82	Rpleas_acq	CS_A	JQQJ	YFFY	ZHHZ	DXXD	CPPC	LWWL	träumen	küssen	vertrauen	genießen	gütig	sonnig	töten	krank	versagen	gemein	gierig	sterben	47pct	acq_USunple_CSpleas2_noRW	acq1_noRW	1	2	0	0	300	300	884	46	0	1	1	blank2r.bmp	0	1	+	0	1	blank2r.bmp	252	1	YFFY	306	3	sterben	559	0	0	0	0	0	0	0	0	0	0	0	0	0	0	0	0	0	0	0	0	0	0	0	0	0	0	0	0	0	0	0	0	0	0	0	0	0	0	0
072419	14:20:20	14:21:47	86764	5.0.10.0	5_exp_noRW	82	Rpleas_acq	CS_A	JQQJ	YFFY	ZHHZ	DXXD	CPPC	LWWL	träumen	küssen	vertrauen	genießen	gütig	sonnig	töten	krank	versagen	gemein	gierig	sterben	53pct	acq_USpleas_CSpleas1_noRW	acq1_noRW	1	3	0	0	300	300	876	50	0	1	1	blank2r.bmp	0	1	+	0	1	blank2r.bmp	252	1	JQQJ	306	1	träumen	559	0	0	0	0	0	0	0	0	0	0	0	0	0	0	0	0	0	0	0	0	0	0	0	0	0	0	0	0	0	0	0	0	0	0	0	0	0	0	0
072419	14:20:20	14:21:50	88816	5.0.10.0	5_exp_noRW	82	Rpleas_acq	CS_A	JQQJ	YFFY	ZHHZ	DXXD	CPPC	LWWL	träumen	küssen	vertrauen	genießen	gütig	sonnig	töten	krank	versagen	gemein	gierig	sterben	53pct	acq_USpleas_CSpleas1_noRW	acq1_noRW	1	4	0	0	300	300	866	50	0	1	1	blank2r.bmp	0	1	+	0	1	blank2r.bmp	252	1	JQQJ	306	3	vertrauen	559	0	0	0	0	0	0	0	0	0	0	0	0	0	0	0	0	0	0	0	0	0	0	0	0	0	0	0	0	0	0	0	0	0	0	0	0	0	0	0
072419	14:20:20	14:21:51	90642	5.0.10.0	5_exp_noRW	82	Rpleas_acq	CS_A	JQQJ	YFFY	ZHHZ	DXXD	CPPC	LWWL	träumen	küssen	vertrauen	genießen	gütig	sonnig	töten	krank	versagen	gemein	gierig	sterben	53pct	acq_USunple_CSunple1_noRW	acq1_noRW	1	5	0	0	300	300	662	46	0	1	1	blank2r.bmp	0	1	+	0	1	blank2r.bmp	252	1	ZHHZ	306	1	töten	559	0	0	0	0	0	0	0	0	0	0	0	0	0	0	0	0	0	0	0	0	0	0	0	0	0	0	0	0	0	0	0	0	0	0	0	0	0	0	0
072419	14:20:20	14:21:53	92535	5.0.10.0	5_exp_noRW	82	Rpleas_acq	CS_A	JQQJ	YFFY	ZHHZ	DXXD	CPPC	LWWL	träumen	küssen	vertrauen	genießen	gütig	sonnig	töten	krank	versagen	gemein	gierig	sterben	47pct	acq_USunple_CSunple2_noRW	acq1_noRW	1	6	0	0	300	300	729	46	0	1	1	blank2r.bmp	0	1	+	0	1	blank2r.bmp	252	1	DXXD	306	3	sterben	559	0	0	0	0	0	0	0	0	0	0	0	0	0	0	0	0	0	0	0	0	0	0	0	0	0	0	0	0	0	0	0	0	0	0	0	0	0	0	0
072419	14:20:20	14:21:55	94227	5.0.10.0	5_exp_noRW	82	Rpleas_acq	CS_A	JQQJ	YFFY	ZHHZ	DXXD	CPPC	LWWL	träumen	küssen	vertrauen	genießen	gütig	sonnig	töten	krank	versagen	gemein	gierig	sterben	53pct	acq_USunple_CSunple2_noRW	acq1_noRW	1	7	0	0	300	300	505	46	0	1	1	blank2r.bmp	0	1	+	0	1	blank2r.bmp	252	1	DXXD	306	1	gemein	559	0	0	0	0	0	0	0	0	0	0	0	0	0	0	0	0	0	0	0	0	0	0	0	0	0	0	0	0	0	0	0	0	0	0	0	0	0	0	0
072419	14:20:20	14:21:57	95933	5.0.10.0	5_exp_noRW	82	Rpleas_acq	CS_A	JQQJ	YFFY	ZHHZ	DXXD	CPPC	LWWL	träumen	küssen	vertrauen	genießen	gütig	sonnig	töten	krank	versagen	gemein	gierig	sterben	53pct	acq_USunple_CSunple1_noRW	acq1_noRW	1	8	0	0	300	300	519	46	0	1	1	blank2r.bmp	0	1	+	0	1	blank2r.bmp	252	1	ZHHZ	306	3	versagen	559	0	0	0	0	0	0	0	0	0	0	0	0	0	0	0	0	0	0	0	0	0	0	0	0	0	0	0	0	0	0	0	0	0	0	0	0	0	0	0
072419	14:20:20	14:21:59	98012	5.0.10.0	5_exp_noRW	82	Rpleas_acq	CS_A	JQQJ	YFFY	ZHHZ	DXXD	CPPC	LWWL	träumen	küssen	vertrauen	genießen	gütig	sonnig	töten	krank	versagen	gemein	gierig	sterben	53pct	acq_USpleas_CSpleas2_noRW	acq1_noRW	1	9	0	0	300	300	915	50	0	1	1	blank2r.bmp	0	1	+	0	1	blank2r.bmp	252	1	YFFY	306	1	genießen	559	0	0	0	0	0	0	0	0	0	0	0	0	0	0	0	0	0	0	0	0	0	0	0	0	0	0	0	0	0	0	0	0	0	0	0	0	0	0	0
072419	14:20:20	14:22:01	99892	5.0.10.0	5_exp_noRW	82	Rpleas_acq	CS_A	JQQJ	YFFY	ZHHZ	DXXD	CPPC	LWWL	träumen	küssen	vertrauen	genießen	gütig	sonnig	töten	krank	versagen	gemein	gierig	sterben	47pct	acq_USpleas_CSunple1_noRW	acq1_noRW	1	10	0	0	300	300	700	50	0	1	1	blank2r.bmp	0	1	+	0	1	blank2r.bmp	252	1	ZHHZ	306	1	träumen	559	0	0	0	0	0	0	0	0	0	0	0	0	0	0	0	0	0	0	0	0	0	0	0	0	0	0	0	0	0	0	0	0	0	0	0	0	0	0	0
072419	14:20:20	14:22:03	101971	5.0.10.0	5_exp_noRW	82	Rpleas_acq	CS_A	JQQJ	YFFY	ZHHZ	DXXD	CPPC	LWWL	träumen	küssen	vertrauen	genießen	gütig	sonnig	töten	krank	versagen	gemein	gierig	sterben	53pct	acq_USpleas_CSpleas2_noRW	acq1_noRW	1	11	0	0	300	300	897	50	0	1	1	blank2r.bmp	0	1	+	0	1	blank2r.bmp	252	1	YFFY	306	2	gütig	559	0	0	0	0	0	0	0	0	0	0	0	0	0	0	0	0	0	0	0	0	0	0	0	0	0	0	0	0	0	0	0	0	0	0	0	0	0	0	0
072419	14:20:20	14:22:04	103623	5.0.10.0	5_exp_noRW	82	Rpleas_acq	CS_A	JQQJ	YFFY	ZHHZ	DXXD	CPPC	LWWL	träumen	küssen	vertrauen	genießen	gütig	sonnig	töten	krank	versagen	gemein	gierig	sterben	53pct	acq_USpleas_CSpleas1_noRW	acq1_noRW	1	12	0	0	300	300	479	50	0	1	1	blank2r.bmp	0	1	+	0	1	blank2r.bmp	252	1	JQQJ	306	2	küssen	559	0	0	0	0	0	0	0	0	0	0	0	0	0	0	0	0	0	0	0	0	0	0	0	0	0	0	0	0	0	0	0	0	0	0	0	0	0	0	0
072419	14:20:20	14:22:06	105343	5.0.10.0	5_exp_noRW	82	Rpleas_acq	CS_A	JQQJ	YFFY	ZHHZ	DXXD	CPPC	LWWL	träumen	küssen	vertrauen	genießen	gütig	sonnig	töten	krank	versagen	gemein	gierig	sterben	53pct	acq_USpleas_CSpleas2_noRW	acq1_noRW	1	13	0	0	300	300	552	50	0	1	1	blank2r.bmp	0	1	+	0	1	blank2r.bmp	252	1	YFFY	306	3	sonnig	559	0	0	0	0	0	0	0	0	0	0	0	0	0	0	0	0	0	0	0	0	0	0	0	0	0	0	0	0	0	0	0	0	0	0	0	0	0	0	0
072419	14:20:20	14:22:08	107075	5.0.10.0	5_exp_noRW	82	Rpleas_acq	CS_A	JQQJ	YFFY	ZHHZ	DXXD	CPPC	LWWL	träumen	küssen	vertrauen	genießen	gütig	sonnig	töten	krank	versagen	gemein	gierig	sterben	53pct	acq_USunple_CSunple1_noRW	acq1_noRW	1	14	0	0	300	300	548	46	0	1	1	blank2r.bmp	0	1	+	0	1	blank2r.bmp	252	1	ZHHZ	306	2	krank	559	0	0	0	0	0	0	0	0	0	0	0	0	0	0	0	0	0	0	0	0	0	0	0	0	0	0	0	0	0	0	0	0	0	0	0	0	0	0	0
072419	14:20:20	14:22:10	108888	5.0.10.0	5_exp_noRW	82	Rpleas_acq	CS_A	JQQJ	YFFY	ZHHZ	DXXD	CPPC	LWWL	träumen	küssen	vertrauen	genießen	gütig	sonnig	töten	krank	versagen	gemein	gierig	sterben	53pct	acq_USpleas_CSpleas2_noRW	acq1_noRW	1	15	0	0	300	300	639	50	0	1	1	blank2r.bmp	0	1	+	0	1	blank2r.bmp	252	1	YFFY	306	1	genießen	559	0	0	0	0	0	0	0	0	0	0	0	0	0	0	0	0	0	0	0	0	0	0	0	0	0	0	0	0	0	0	0	0	0	0	0	0	0	0	0
072419	14:20:20	14:22:12	111074	5.0.10.0	5_exp_noRW	82	Rpleas_acq	CS_A	JQQJ	YFFY	ZHHZ	DXXD	CPPC	LWWL	träumen	küssen	vertrauen	genießen	gütig	sonnig	töten	krank	versagen	gemein	gierig	sterben	47pct	acq_USunple_CSunple2_noRW	acq1_noRW	1	16	0	0	300	300	1017	46	0	1	1	blank2r.bmp	0	1	+	0	1	blank2r.bmp	252	1	DXXD	306	2	gierig	559	0	0	0	0	0	0	0	0	0	0	0	0	0	0	0	0	0	0	0	0	0	0	0	0	0	0	0	0	0	0	0	0	0	0	0	0	0	0	0
072419	14:20:20	14:22:13	112713	5.0.10.0	5_exp_noRW	82	Rpleas_acq	CS_A	JQQJ	YFFY	ZHHZ	DXXD	CPPC	LWWL	träumen	küssen	vertrauen	genießen	gütig	sonnig	töten	krank	versagen	gemein	gierig	sterben	47pct	acq_USpleas_CSunple2_noRW	acq1_noRW	1	17	0	0	300	300	458	50	0	1	1	blank2r.bmp	0	1	+	0	1	blank2r.bmp	252	1	DXXD	306	3	sonnig	559	0	0	0	0	0	0	0	0	0	0	0	0	0	0	0	0	0	0	0	0	0	0	0	0	0	0	0	0	0	0	0	0	0	0	0	0	0	0	0
072419	14:20:20	14:22:15	114379	5.0.10.0	5_exp_noRW	82	Rpleas_acq	CS_A	JQQJ	YFFY	ZHHZ	DXXD	CPPC	LWWL	träumen	küssen	vertrauen	genießen	gütig	sonnig	töten	krank	versagen	gemein	gierig	sterben	53pct	acq_USunple_CSunple1_noRW	acq1_noRW	1	18	0	0	300	300	483	46	0	1	1	blank2r.bmp	0	1	+	0	1	blank2r.bmp	252	1	ZHHZ	306	2	krank	559	0	0	0	0	0	0	0	0	0	0	0	0	0	0	0	0	0	0	0	0	0	0	0	0	0	0	0	0	0	0	0	0	0	0	0	0	0	0	0
072419	14:20:20	14:22:17	116125	5.0.10.0	5_exp_noRW	82	Rpleas_acq	CS_A	JQQJ	YFFY	ZHHZ	DXXD	CPPC	LWWL	träumen	küssen	vertrauen	genießen	gütig	sonnig	töten	krank	versagen	gemein	gierig	sterben	47pct	acq_USunple_CSunple2_noRW	acq1_noRW	1	19	0	0	300	300	569	46	0	1	1	blank2r.bmp	0	1	+	0	1	blank2r.bmp	252	1	DXXD	306	1	gemein	559	0	0	0	0	0	0	0	0	0	0	0	0	0	0	0	0	0	0	0	0	0	0	0	0	0	0	0	0	0	0	0	0	0	0	0	0	0	0	0
072419	14:20:20	14:22:18	117804	5.0.10.0	5_exp_noRW	82	Rpleas_acq	CS_A	JQQJ	YFFY	ZHHZ	DXXD	CPPC	LWWL	träumen	küssen	vertrauen	genießen	gütig	sonnig	töten	krank	versagen	gemein	gierig	sterben	53pct	acq_USpleas_CSpleas1_noRW	acq1_noRW	1	20	0	0	300	300	503	50	0	1	1	blank2r.bmp	0	1	+	0	1	blank2r.bmp	252	1	JQQJ	306	2	küssen	559	0	0	0	0	0	0	0	0	0	0	0	0	0	0	0	0	0	0	0	0	0	0	0	0	0	0	0	0	0	0	0	0	0	0	0	0	0	0	0
072419	14:20:20	14:22:20	119577	5.0.10.0	5_exp_noRW	82	Rpleas_acq	CS_A	JQQJ	YFFY	ZHHZ	DXXD	CPPC	LWWL	träumen	küssen	vertrauen	genießen	gütig	sonnig	töten	krank	versagen	gemein	gierig	sterben	53pct	acq_USpleas_CSpleas1_noRW	acq1_noRW	1	21	0	0	300	300	586	50	0	1	1	blank2r.bmp	0	1	+	0	1	blank2r.bmp	252	1	JQQJ	306	3	vertrauen	559	0	0	0	0	0	0	0	0	0	0	0	0	0	0	0	0	0	0	0	0	0	0	0	0	0	0	0	0	0	0	0	0	0	0	0	0	0	0	0
072419	14:20:20	14:22:22	121589	5.0.10.0	5_exp_noRW	82	Rpleas_acq	CS_A	JQQJ	YFFY	ZHHZ	DXXD	CPPC	LWWL	träumen	küssen	vertrauen	genießen	gütig	sonnig	töten	krank	versagen	gemein	gierig	sterben	53pct	acq_USunple_CSunple2_noRW	acq1_noRW	1	22	0	0	300	300	830	46	0	1	1	blank2r.bmp	0	1	+	0	1	blank2r.bmp	252	1	DXXD	306	3	sterben	559	0	0	0	0	0	0	0	0	0	0	0	0	0	0	0	0	0	0	0	0	0	0	0	0	0	0	0	0	0	0	0	0	0	0	0	0	0	0	0
072419	14:20:20	14:22:24	123215	5.0.10.0	5_exp_noRW	82	Rpleas_acq	CS_A	JQQJ	YFFY	ZHHZ	DXXD	CPPC	LWWL	träumen	küssen	vertrauen	genießen	gütig	sonnig	töten	krank	versagen	gemein	gierig	sterben	53pct	acq_USunple_CSunple1_noRW	acq1_noRW	1	23	0	0	300	300	448	46	0	1	1	blank2r.bmp	0	1	+	0	1	blank2r.bmp	252	1	ZHHZ	306	1	töten	559	0	0	0	0	0	0	0	0	0	0	0	0	0	0	0	0	0	0	0	0	0	0	0	0	0	0	0	0	0	0	0	0	0	0	0	0	0	0	0
072419	14:20:20	14:22:25	124775	5.0.10.0	5_exp_noRW	82	Rpleas_acq	CS_A	JQQJ	YFFY	ZHHZ	DXXD	CPPC	LWWL	träumen	küssen	vertrauen	genießen	gütig	sonnig	töten	krank	versagen	gemein	gierig	sterben	47pct	acq_USpleas_CSpleas2_noRW	acq1_noRW	1	24	0	0	300	300	398	50	0	1	1	blank2r.bmp	0	1	+	0	1	blank2r.bmp	252	1	YFFY	306	3	sonnig	559	0	0	0	0	0	0	0	0	0	0	0	0	0	0	0	0	0	0	0	0	0	0	0	0	0	0	0	0	0	0	0	0	0	0	0	0	0	0	0
072419	14:20:20	14:22:28	126814	5.0.10.0	5_exp_noRW	82	Rpleas_acq	CS_A	JQQJ	YFFY	ZHHZ	DXXD	CPPC	LWWL	träumen	küssen	vertrauen	genießen	gütig	sonnig	töten	krank	versagen	gemein	gierig	sterben	47pct	acq_USpleas_CSpleas1_noRW	acq1_noRW	1	25	0	0	300	300	846	50	0	1	1	blank2r.bmp	0	1	+	0	1	blank2r.bmp	252	1	JQQJ	306	1	träumen	559	0	0	0	0	0	0	0	0	0	0	0	0	0	0	0	0	0	0	0	0	0	0	0	0	0	0	0	0	0	0	0	0	0	0	0	0	0	0	0
072419	14:20:20	14:22:29	128467	5.0.10.0	5_exp_noRW	82	Rpleas_acq	CS_A	JQQJ	YFFY	ZHHZ	DXXD	CPPC	LWWL	träumen	küssen	vertrauen	genießen	gütig	sonnig	töten	krank	versagen	gemein	gierig	sterben	53pct	acq_USpleas_CSpleas1_noRW	acq1_noRW	1	26	0	0	300	300	478	50	0	1	1	blank2r.bmp	0	1	+	0	1	blank2r.bmp	252	1	JQQJ	306	3	vertrauen	559	0	0	0	0	0	0	0	0	0	0	0	0	0	0	0	0	0	0	0	0	0	0	0	0	0	0	0	0	0	0	0	0	0	0	0	0	0	0	0
072419	14:20:20	14:22:31	130173	5.0.10.0	5_exp_noRW	82	Rpleas_acq	CS_A	JQQJ	YFFY	ZHHZ	DXXD	CPPC	LWWL	träumen	küssen	vertrauen	genießen	gütig	sonnig	töten	krank	versagen	gemein	gierig	sterben	53pct	acq_USunple_CSunple1_noRW	acq1_noRW	1	27	0	0	300	300	527	46	0	1	1	blank2r.bmp	0	1	+	0	1	blank2r.bmp	252	1	ZHHZ	306	3	versagen	559	0	0	0	0	0	0	0	0	0	0	0	0	0	0	0	0	0	0	0	0	0	0	0	0	0	0	0	0	0	0	0	0	0	0	0	0	0	0	0
072419	14:20:20	14:22:33	132132	5.0.10.0	5_exp_noRW	82	Rpleas_acq	CS_A	JQQJ	YFFY	ZHHZ	DXXD	CPPC	LWWL	träumen	küssen	vertrauen	genießen	gütig	sonnig	töten	krank	versagen	gemein	gierig	sterben	53pct	acq_USunple_CSpleas1_noRW	acq1_noRW	1	28	0	0	300	300	786	46	0	1	1	blank2r.bmp	0	1	+	0	1	blank2r.bmp	252	1	JQQJ	306	2	krank	559	0	0	0	0	0	0	0	0	0	0	0	0	0	0	0	0	0	0	0	0	0	0	0	0	0	0	0	0	0	0	0	0	0	0	0	0	0	0	0
072419	14:20:20	14:22:35	133931	5.0.10.0	5_exp_noRW	82	Rpleas_acq	CS_A	JQQJ	YFFY	ZHHZ	DXXD	CPPC	LWWL	träumen	küssen	vertrauen	genießen	gütig	sonnig	töten	krank	versagen	gemein	gierig	sterben	53pct	acq_USpleas_CSpleas2_noRW	acq1_noRW	1	29	0	0	300	300	627	50	0	1	1	blank2r.bmp	0	1	+	0	1	blank2r.bmp	252	1	YFFY	306	2	gütig	559	0	0	0	0	0	0	0	0	0	0	0	0	0	0	0	0	0	0	0	0	0	0	0	0	0	0	0	0	0	0	0	0	0	0	0	0	0	0	0
072419	14:20:20	14:22:36	135650	5.0.10.0	5_exp_noRW	82	Rpleas_acq	CS_A	JQQJ	YFFY	ZHHZ	DXXD	CPPC	LWWL	träumen	küssen	vertrauen	genießen	gütig	sonnig	töten	krank	versagen	gemein	gierig	sterben	53pct	acq_USpleas_CSpleas1_noRW	acq1_noRW	1	30	0	0	300	300	546	50	0	1	1	blank2r.bmp	0	1	+	0	1	blank2r.bmp	252	1	JQQJ	306	1	träumen	559	0	0	0	0	0	0	0	0	0	0	0	0	0	0	0	0	0	0	0	0	0	0	0	0	0	0	0	0	0	0	0	0	0	0	0	0	0	0	0
072419	14:20:20	14:22:38	137636	5.0.10.0	5_exp_noRW	82	Rpleas_acq	CS_A	JQQJ	YFFY	ZHHZ	DXXD	CPPC	LWWL	träumen	küssen	vertrauen	genießen	gütig	sonnig	töten	krank	versagen	gemein	gierig	sterben	53pct	acq_USunple_CSunple2_noRW	acq1_noRW	1	31	0	0	300	300	610	50	0	0	1	blank2r.bmp	0	1	+	0	1	blank2r.bmp	252	1	DXXD	306	2	gierig	559	1	FEHLER	1199	0	0	0	0	0	0	0	0	0	0	0	0	0	0	0	0	0	0	0	0	0	0	0	0	0	0	0	0	0	0	0	0	0	0	0	0
072419	14:20:20	14:22:40	139089	5.0.10.0	5_exp_noRW	82	Rpleas_acq	CS_A	JQQJ	YFFY	ZHHZ	DXXD	CPPC	LWWL	träumen	küssen	vertrauen	genießen	gütig	sonnig	töten	krank	versagen	gemein	gierig	sterben	47pct	acq_USunple_CSunple1_noRW	acq1_noRW	1	32	0	0	300	300	491	46	0	1	1	blank2r.bmp	0	1	+	0	1	blank2r.bmp	252	1	ZHHZ	306	2	krank	559	0	0	0	0	0	0	0	0	0	0	0	0	0	0	0	0	0	0	0	0	0	0	0	0	0	0	0	0	0	0	0	0	0	0	0	0	0	0	0
072419	14:20:20	14:22:41	140742	5.0.10.0	5_exp_noRW	82	Rpleas_acq	CS_A	JQQJ	YFFY	ZHHZ	DXXD	CPPC	LWWL	träumen	küssen	vertrauen	genießen	gütig	sonnig	töten	krank	versagen	gemein	gierig	sterben	53pct	acq_USpleas_CSunple2_noRW	acq1_noRW	1	33	0	0	300	300	477	50	0	1	1	blank2r.bmp	0	1	+	0	1	blank2r.bmp	252	1	DXXD	306	1	genießen	559	0	0	0	0	0	0	0	0	0	0	0	0	0	0	0	0	0	0	0	0	0	0	0	0	0	0	0	0	0	0	0	0	0	0	0	0	0	0	0
072419	14:20:20	14:22:43	142408	5.0.10.0	5_exp_noRW	82	Rpleas_acq	CS_A	JQQJ	YFFY	ZHHZ	DXXD	CPPC	LWWL	träumen	küssen	vertrauen	genießen	gütig	sonnig	töten	krank	versagen	gemein	gierig	sterben	53pct	acq_USpleas_CSpleas2_noRW	acq1_noRW	1	34	0	0	300	300	485	50	0	1	1	blank2r.bmp	0	1	+	0	1	blank2r.bmp	252	1	YFFY	306	1	genießen	559	0	0	0	0	0	0	0	0	0	0	0	0	0	0	0	0	0	0	0	0	0	0	0	0	0	0	0	0	0	0	0	0	0	0	0	0	0	0	0
072419	14:20:20	14:22:45	144020	5.0.10.0	5_exp_noRW	82	Rpleas_acq	CS_A	JQQJ	YFFY	ZHHZ	DXXD	CPPC	LWWL	träumen	küssen	vertrauen	genießen	gütig	sonnig	töten	krank	versagen	gemein	gierig	sterben	53pct	acq_USunple_CSpleas2_noRW	acq1_noRW	1	35	0	0	300	300	444	46	0	1	1	blank2r.bmp	0	1	+	0	1	blank2r.bmp	252	1	YFFY	306	1	gemein	559	0	0	0	0	0	0	0	0	0	0	0	0	0	0	0	0	0	0	0	0	0	0	0	0	0	0	0	0	0	0	0	0	0	0	0	0	0	0	0
072419	14:20:20	14:22:46	145660	5.0.10.0	5_exp_noRW	82	Rpleas_acq	CS_A	JQQJ	YFFY	ZHHZ	DXXD	CPPC	LWWL	träumen	küssen	vertrauen	genießen	gütig	sonnig	töten	krank	versagen	gemein	gierig	sterben	53pct	acq_USunple_CSunple2_noRW	acq1_noRW	1	36	0	0	300	300	455	46	0	1	1	blank2r.bmp	0	1	+	0	1	blank2r.bmp	252	1	DXXD	306	2	gierig	559	0	0	0	0	0	0	0	0	0	0	0	0	0	0	0	0	0	0	0	0	0	0	0	0	0	0	0	0	0	0	0	0	0	0	0	0	0	0	0
072419	14:20:20	14:22:48	147365	5.0.10.0	5_exp_noRW	82	Rpleas_acq	CS_A	JQQJ	YFFY	ZHHZ	DXXD	CPPC	LWWL	träumen	küssen	vertrauen	genießen	gütig	sonnig	töten	krank	versagen	gemein	gierig	sterben	53pct	acq_USunple_CSunple2_noRW	acq1_noRW	1	37	0	0	300	300	529	46	0	1	1	blank2r.bmp	0	1	+	0	1	blank2r.bmp	252	1	DXXD	306	3	sterben	559	0	0	0	0	0	0	0	0	0	0	0	0	0	0	0	0	0	0	0	0	0	0	0	0	0	0	0	0	0	0	0	0	0	0	0	0	0	0	0
072419	14:20:20	14:22:50	149031	5.0.10.0	5_exp_noRW	82	Rpleas_acq	CS_A	JQQJ	YFFY	ZHHZ	DXXD	CPPC	LWWL	träumen	küssen	vertrauen	genießen	gütig	sonnig	töten	krank	versagen	gemein	gierig	sterben	47pct	acq_USunple_CSunple1_noRW	acq1_noRW	1	38	0	0	300	300	483	46	0	1	1	blank2r.bmp	0	1	+	0	1	blank2r.bmp	252	1	ZHHZ	306	3	versagen	559	0	0	0	0	0	0	0	0	0	0	0	0	0	0	0	0	0	0	0	0	0	0	0	0	0	0	0	0	0	0	0	0	0	0	0	0	0	0	0
072419	14:20:20	14:22:51	150711	5.0.10.0	5_exp_noRW	82	Rpleas_acq	CS_A	JQQJ	YFFY	ZHHZ	DXXD	CPPC	LWWL	träumen	küssen	vertrauen	genießen	gütig	sonnig	töten	krank	versagen	gemein	gierig	sterben	47pct	acq_USpleas_CSunple1_noRW	acq1_noRW	1	39	0	0	300	300	516	50	0	1	1	blank2r.bmp	0	1	+	0	1	blank2r.bmp	252	1	ZHHZ	306	3	vertrauen	559	0	0	0	0	0	0	0	0	0	0	0	0	0	0	0	0	0	0	0	0	0	0	0	0	0	0	0	0	0	0	0	0	0	0	0	0	0	0	0
072419	14:20:20	14:22:53	152310	5.0.10.0	5_exp_noRW	82	Rpleas_acq	CS_A	JQQJ	YFFY	ZHHZ	DXXD	CPPC	LWWL	träumen	küssen	vertrauen	genießen	gütig	sonnig	töten	krank	versagen	gemein	gierig	sterben	47pct	acq_USpleas_CSpleas2_noRW	acq1_noRW	1	40	0	0	300	300	414	50	0	1	1	blank2r.bmp	0	1	+	0	1	blank2r.bmp	252	1	YFFY	306	3	sonnig	559	0	0	0	0	0	0	0	0	0	0	0	0	0	0	0	0	0	0	0	0	0	0	0	0	0	0	0	0	0	0	0	0	0	0	0	0	0	0	0
072419	14:20:20	14:22:55	153909	5.0.10.0	5_exp_noRW	82	Rpleas_acq	CS_A	JQQJ	YFFY	ZHHZ	DXXD	CPPC	LWWL	träumen	küssen	vertrauen	genießen	gütig	sonnig	töten	krank	versagen	gemein	gierig	sterben	53pct	acq_USpleas_CSpleas1_noRW	acq1_noRW	1	41	0	0	300	300	426	50	0	1	1	blank2r.bmp	0	1	+	0	1	blank2r.bmp	252	1	JQQJ	306	2	küssen	559	0	0	0	0	0	0	0	0	0	0	0	0	0	0	0	0	0	0	0	0	0	0	0	0	0	0	0	0	0	0	0	0	0	0	0	0	0	0	0
072419	14:20:20	14:22:56	155482	5.0.10.0	5_exp_noRW	82	Rpleas_acq	CS_A	JQQJ	YFFY	ZHHZ	DXXD	CPPC	LWWL	träumen	küssen	vertrauen	genießen	gütig	sonnig	töten	krank	versagen	gemein	gierig	sterben	53pct	acq_USunple_CSunple2_noRW	acq1_noRW	1	42	0	0	300	300	402	46	0	1	1	blank2r.bmp	0	1	+	0	1	blank2r.bmp	252	1	DXXD	306	1	gemein	559	0	0	0	0	0	0	0	0	0	0	0	0	0	0	0	0	0	0	0	0	0	0	0	0	0	0	0	0	0	0	0	0	0	0	0	0	0	0	0
072419	14:20:20	14:22:58	157188	5.0.10.0	5_exp_noRW	82	Rpleas_acq	CS_A	JQQJ	YFFY	ZHHZ	DXXD	CPPC	LWWL	träumen	küssen	vertrauen	genießen	gütig	sonnig	töten	krank	versagen	gemein	gierig	sterben	53pct	acq_USunple_CSunple1_noRW	acq1_noRW	1	43	0	0	300	300	538	46	0	1	1	blank2r.bmp	0	1	+	0	1	blank2r.bmp	252	1	ZHHZ	306	1	töten	559	0	0	0	0	0	0	0	0	0	0	0	0	0	0	0	0	0	0	0	0	0	0	0	0	0	0	0	0	0	0	0	0	0	0	0	0	0	0	0
072419	14:20:20	14:22:59	158787	5.0.10.0	5_exp_noRW	82	Rpleas_acq	CS_A	JQQJ	YFFY	ZHHZ	DXXD	CPPC	LWWL	träumen	küssen	vertrauen	genießen	gütig	sonnig	töten	krank	versagen	gemein	gierig	sterben	53pct	acq_USunple_CSunple2_noRW	acq1_noRW	1	44	0	0	300	300	415	46	0	1	1	blank2r.bmp	0	1	+	0	1	blank2r.bmp	252	1	DXXD	306	2	gierig	559	0	0	0	0	0	0	0	0	0	0	0	0	0	0	0	0	0	0	0	0	0	0	0	0	0	0	0	0	0	0	0	0	0	0	0	0	0	0	0
072419	14:20:20	14:23:01	160480	5.0.10.0	5_exp_noRW	82	Rpleas_acq	CS_A	JQQJ	YFFY	ZHHZ	DXXD	CPPC	LWWL	träumen	küssen	vertrauen	genießen	gütig	sonnig	töten	krank	versagen	gemein	gierig	sterben	47pct	acq_USunple_CSunple1_noRW	acq1_noRW	1	45	0	0	300	300	526	46	0	1	1	blank2r.bmp	0	1	+	0	1	blank2r.bmp	252	1	ZHHZ	306	3	versagen	559	0	0	0	0	0	0	0	0	0	0	0	0	0	0	0	0	0	0	0	0	0	0	0	0	0	0	0	0	0	0	0	0	0	0	0	0	0	0	0
072419	14:20:20	14:23:03	162186	5.0.10.0	5_exp_noRW	82	Rpleas_acq	CS_A	JQQJ	YFFY	ZHHZ	DXXD	CPPC	LWWL	träumen	küssen	vertrauen	genießen	gütig	sonnig	töten	krank	versagen	gemein	gierig	sterben	53pct	acq_USpleas_CSpleas2_noRW	acq1_noRW	1	46	0	0	300	300	308	46	0	0	1	blank2r.bmp	0	1	+	0	1	blank2r.bmp	252	1	YFFY	306	2	gütig	559	1	FEHLER	906	0	0	0	0	0	0	0	0	0	0	0	0	0	0	0	0	0	0	0	0	0	0	0	0	0	0	0	0	0	0	0	0	0	0	0	0
072419	14:20:20	14:23:04	163585	5.0.10.0	5_exp_noRW	82	Rpleas_acq	CS_A	JQQJ	YFFY	ZHHZ	DXXD	CPPC	LWWL	träumen	küssen	vertrauen	genießen	gütig	sonnig	töten	krank	versagen	gemein	gierig	sterben	47pct	acq_USpleas_CSpleas2_noRW	acq1_noRW	1	47	0	0	300	300	237	46	0	0	1	blank2r.bmp	0	1	+	0	1	blank2r.bmp	252	1	YFFY	306	2	gütig	559	1	FEHLER	826	0	0	0	0	0	0	0	0	0	0	0	0	0	0	0	0	0	0	0	0	0	0	0	0	0	0	0	0	0	0	0	0	0	0	0	0
072419	14:20:20	14:23:06	165038	5.0.10.0	5_exp_noRW	82	Rpleas_acq	CS_A	JQQJ	YFFY	ZHHZ	DXXD	CPPC	LWWL	träumen	küssen	vertrauen	genießen	gütig	sonnig	töten	krank	versagen	gemein	gierig	sterben	53pct	acq_USpleas_CSpleas2_noRW	acq1_noRW	1	48	0	0	300	300	482	50	0	1	1	blank2r.bmp	0	1	+	0	1	blank2r.bmp	252	1	YFFY	306	3	sonnig	559	0	0	0	0	0	0	0	0	0	0	0	0	0	0	0	0	0	0	0	0	0	0	0	0	0	0	0	0	0	0	0	0	0	0	0	0	0	0	0
072419	14:20:20	14:23:07	166598	5.0.10.0	5_exp_noRW	82	Rpleas_acq	CS_A	JQQJ	YFFY	ZHHZ	DXXD	CPPC	LWWL	träumen	küssen	vertrauen	genießen	gütig	sonnig	töten	krank	versagen	gemein	gierig	sterben	53pct	acq_USunple_CSpleas1_noRW	acq1_noRW	1	49	0	0	300	300	395	46	0	1	1	blank2r.bmp	0	1	+	0	1	blank2r.bmp	252	1	JQQJ	306	1	töten	559	0	0	0	0	0	0	0	0	0	0	0	0	0	0	0	0	0	0	0	0	0	0	0	0	0	0	0	0	0	0	0	0	0	0	0	0	0	0	0
072419	14:20:20	14:23:09	168210	5.0.10.0	5_exp_noRW	82	Rpleas_acq	CS_A	JQQJ	YFFY	ZHHZ	DXXD	CPPC	LWWL	träumen	küssen	vertrauen	genießen	gütig	sonnig	töten	krank	versagen	gemein	gierig	sterben	47pct	acq_USpleas_CSpleas1_noRW	acq1_noRW	1	50	0	0	300	300	440	50	0	1	1	blank2r.bmp	0	1	+	0	1	blank2r.bmp	252	1	JQQJ	306	2	küssen	559	0	0	0	0	0	0	0	0	0	0	0	0	0	0	0	0	0	0	0	0	0	0	0	0	0	0	0	0	0	0	0	0	0	0	0	0	0	0	0
072419	14:20:20	14:23:11	169956	5.0.10.0	5_exp_noRW	82	Rpleas_acq	CS_A	JQQJ	YFFY	ZHHZ	DXXD	CPPC	LWWL	träumen	küssen	vertrauen	genießen	gütig	sonnig	töten	krank	versagen	gemein	gierig	sterben	47pct	acq_USpleas_CSunple2_noRW	acq1_noRW	1	51	0	0	300	300	582	50	0	1	1	blank2r.bmp	0	1	+	0	1	blank2r.bmp	252	1	DXXD	306	2	gütig	559	0	0	0	0	0	0	0	0	0	0	0	0	0	0	0	0	0	0	0	0	0	0	0	0	0	0	0	0	0	0	0	0	0	0	0	0	0	0	0
072419	14:20:20	14:23:12	171742	5.0.10.0	5_exp_noRW	82	Rpleas_acq	CS_A	JQQJ	YFFY	ZHHZ	DXXD	CPPC	LWWL	träumen	küssen	vertrauen	genießen	gütig	sonnig	töten	krank	versagen	gemein	gierig	sterben	53pct	acq_USpleas_CSpleas2_noRW	acq1_noRW	1	52	0	0	300	300	607	50	0	1	1	blank2r.bmp	0	1	+	0	1	blank2r.bmp	252	1	YFFY	306	1	genießen	559	0	0	0	0	0	0	0	0	0	0	0	0	0	0	0	0	0	0	0	0	0	0	0	0	0	0	0	0	0	0	0	0	0	0	0	0	0	0	0
072419	14:20:20	14:23:14	173315	5.0.10.0	5_exp_noRW	82	Rpleas_acq	CS_A	JQQJ	YFFY	ZHHZ	DXXD	CPPC	LWWL	träumen	küssen	vertrauen	genießen	gütig	sonnig	töten	krank	versagen	gemein	gierig	sterben	53pct	acq_USunple_CSunple1_noRW	acq1_noRW	1	53	0	0	300	300	397	46	0	1	1	blank2r.bmp	0	1	+	0	1	blank2r.bmp	252	1	ZHHZ	306	2	krank	559	0	0	0	0	0	0	0	0	0	0	0	0	0	0	0	0	0	0	0	0	0	0	0	0	0	0	0	0	0	0	0	0	0	0	0	0	0	0	0
072419	14:20:20	14:23:16	174954	5.0.10.0	5_exp_noRW	82	Rpleas_acq	CS_A	JQQJ	YFFY	ZHHZ	DXXD	CPPC	LWWL	träumen	küssen	vertrauen	genießen	gütig	sonnig	töten	krank	versagen	gemein	gierig	sterben	53pct	acq_USpleas_CSpleas1_noRW	acq1_noRW	1	54	0	0	300	300	462	50	0	1	1	blank2r.bmp	0	1	+	0	1	blank2r.bmp	252	1	JQQJ	306	1	träumen	559	0	0	0	0	0	0	0	0	0	0	0	0	0	0	0	0	0	0	0	0	0	0	0	0	0	0	0	0	0	0	0	0	0	0	0	0	0	0	0
072419	14:20:20	14:23:17	176660	5.0.10.0	5_exp_noRW	82	Rpleas_acq	CS_A	JQQJ	YFFY	ZHHZ	DXXD	CPPC	LWWL	träumen	küssen	vertrauen	genießen	gütig	sonnig	töten	krank	versagen	gemein	gierig	sterben	53pct	acq_USpleas_CSpleas1_noRW	acq1_noRW	1	55	0	0	300	300	526	50	0	1	1	blank2r.bmp	0	1	+	0	1	blank2r.bmp	252	1	JQQJ	306	3	vertrauen	559	0	0	0	0	0	0	0	0	0	0	0	0	0	0	0	0	0	0	0	0	0	0	0	0	0	0	0	0	0	0	0	0	0	0	0	0	0	0	0
072419	14:20:20	14:23:19	178353	5.0.10.0	5_exp_noRW	82	Rpleas_acq	CS_A	JQQJ	YFFY	ZHHZ	DXXD	CPPC	LWWL	träumen	küssen	vertrauen	genießen	gütig	sonnig	töten	krank	versagen	gemein	gierig	sterben	47pct	acq_USunple_CSunple2_noRW	acq1_noRW	1	56	0	0	300	300	520	46	0	1	1	blank2r.bmp	0	1	+	0	1	blank2r.bmp	252	1	DXXD	306	3	sterben	559	0	0	0	0	0	0	0	0	0	0	0	0	0	0	0	0	0	0	0	0	0	0	0	0	0	0	0	0	0	0	0	0	0	0	0	0	0	0	0
072419	14:20:20	14:23:21	180085	5.0.10.0	5_exp_noRW	82	Rpleas_acq	CS_A	JQQJ	YFFY	ZHHZ	DXXD	CPPC	LWWL	träumen	küssen	vertrauen	genießen	gütig	sonnig	töten	krank	versagen	gemein	gierig	sterben	47pct	acq_USunple_CSunple2_noRW	acq1_noRW	1	57	0	0	300	300	571	46	0	1	1	blank2r.bmp	0	1	+	0	1	blank2r.bmp	252	1	DXXD	306	1	gemein	559	0	0	0	0	0	0	0	0	0	0	0	0	0	0	0	0	0	0	0	0	0	0	0	0	0	0	0	0	0	0	0	0	0	0	0	0	0	0	0
072419	14:20:20	14:23:22	181711	5.0.10.0	5_exp_noRW	82	Rpleas_acq	CS_A	JQQJ	YFFY	ZHHZ	DXXD	CPPC	LWWL	träumen	küssen	vertrauen	genießen	gütig	sonnig	töten	krank	versagen	gemein	gierig	sterben	47pct	acq_USunple_CSpleas2_noRW	acq1_noRW	1	58	0	0	300	300	450	46	0	1	1	blank2r.bmp	0	1	+	0	1	blank2r.bmp	252	1	YFFY	306	2	gierig	559	0	0	0	0	0	0	0	0	0	0	0	0	0	0	0	0	0	0	0	0	0	0	0	0	0	0	0	0	0	0	0	0	0	0	0	0	0	0	0
072419	14:20:20	14:23:24	183231	5.0.10.0	5_exp_noRW	82	Rpleas_acq	CS_A	JQQJ	YFFY	ZHHZ	DXXD	CPPC	LWWL	träumen	küssen	vertrauen	genießen	gütig	sonnig	töten	krank	versagen	gemein	gierig	sterben	53pct	acq_USpleas_CSunple1_noRW	acq1_noRW	1	59	0	0	300	300	340	50	0	1	1	blank2r.bmp	0	1	+	0	1	blank2r.bmp	252	1	ZHHZ	306	2	küssen	559	0	0	0	0	0	0	0	0	0	0	0	0	0	0	0	0	0	0	0	0	0	0	0	0	0	0	0	0	0	0	0	0	0	0	0	0	0	0	0
072419	14:20:20	14:23:26	184857	5.0.10.0	5_exp_noRW	82	Rpleas_acq	CS_A	JQQJ	YFFY	ZHHZ	DXXD	CPPC	LWWL	träumen	küssen	vertrauen	genießen	gütig	sonnig	töten	krank	versagen	gemein	gierig	sterben	53pct	acq_USunple_CSunple1_noRW	acq1_noRW	1	60	0	0	300	300	456	46	0	1	1	blank2r.bmp	0	1	+	0	1	blank2r.bmp	252	1	ZHHZ	306	1	töten	559	0	0	0	0	0	0	0	0	0	0	0	0	0	0	0	0	0	0	0	0	0	0	0	0	0	0	0	0	0	0	0	0	0	0	0	0	0	0	0
072419	14:20:20	14:23:27	186616	5.0.10.0	5_exp_noRW	82	Rpleas_acq	CS_A	JQQJ	YFFY	ZHHZ	DXXD	CPPC	LWWL	träumen	küssen	vertrauen	genießen	gütig	sonnig	töten	krank	versagen	gemein	gierig	sterben	47pct	acq_USunple_CSunple2_noRW	acq1_noRW	1	61	0	0	300	300	584	46	0	1	1	blank2r.bmp	0	1	+	0	1	blank2r.bmp	252	1	DXXD	306	3	sterben	559	0	0	0	0	0	0	0	0	0	0	0	0	0	0	0	0	0	0	0	0	0	0	0	0	0	0	0	0	0	0	0	0	0	0	0	0	0	0	0
072419	14:20:20	14:23:29	188589	5.0.10.0	5_exp_noRW	82	Rpleas_acq	CS_A	JQQJ	YFFY	ZHHZ	DXXD	CPPC	LWWL	träumen	küssen	vertrauen	genießen	gütig	sonnig	töten	krank	versagen	gemein	gierig	sterben	53pct	acq_USpleas_CSpleas1_noRW	acq1_noRW	1	62	0	0	300	300	571	46	0	0	1	blank2r.bmp	0	1	+	0	1	blank2r.bmp	252	1	JQQJ	306	1	träumen	559	1	FEHLER	1172	0	0	0	0	0	0	0	0	0	0	0	0	0	0	0	0	0	0	0	0	0	0	0	0	0	0	0	0	0	0	0	0	0	0	0	0
072419	14:20:20	14:23:31	189935	5.0.10.0	5_exp_noRW	82	Rpleas_acq	CS_A	JQQJ	YFFY	ZHHZ	DXXD	CPPC	LWWL	träumen	küssen	vertrauen	genießen	gütig	sonnig	töten	krank	versagen	gemein	gierig	sterben	53pct	acq_USunple_CSunple1_noRW	acq1_noRW	1	63	0	0	300	300	391	46	0	1	1	blank2r.bmp	0	1	+	0	1	blank2r.bmp	252	1	ZHHZ	306	2	krank	559	0	0	0	0	0	0	0	0	0	0	0	0	0	0	0	0	0	0	0	0	0	0	0	0	0	0	0	0	0	0	0	0	0	0	0	0	0	0	0
072419	14:20:20	14:23:32	191534	5.0.10.0	5_exp_noRW	82	Rpleas_acq	CS_A	JQQJ	YFFY	ZHHZ	DXXD	CPPC	LWWL	träumen	küssen	vertrauen	genießen	gütig	sonnig	töten	krank	versagen	gemein	gierig	sterben	47pct	acq_USunple_CSunple2_noRW	acq1_noRW	1	64	0	0	300	300	437	46	0	1	1	blank2r.bmp	0	1	+	0	1	blank2r.bmp	252	1	DXXD	306	1	gemein	559	0	0	0	0	0	0	0	0	0	0	0	0	0	0	0	0	0	0	0	0	0	0	0	0	0	0	0	0	0	0	0	0	0	0	0	0	0	0	0
072419	14:20:20	14:23:34	193080	5.0.10.0	5_exp_noRW	82	Rpleas_acq	CS_A	JQQJ	YFFY	ZHHZ	DXXD	CPPC	LWWL	träumen	küssen	vertrauen	genießen	gütig	sonnig	töten	krank	versagen	gemein	gierig	sterben	53pct	acq_USunple_CSpleas2_noRW	acq1_noRW	1	65	0	0	300	300	371	46	0	1	1	blank2r.bmp	0	1	+	0	1	blank2r.bmp	252	1	YFFY	306	1	gemein	559	0	0	0	0	0	0	0	0	0	0	0	0	0	0	0	0	0	0	0	0	0	0	0	0	0	0	0	0	0	0	0	0	0	0	0	0	0	0	0
072419	14:20:20	14:23:35	194733	5.0.10.0	5_exp_noRW	82	Rpleas_acq	CS_A	JQQJ	YFFY	ZHHZ	DXXD	CPPC	LWWL	träumen	küssen	vertrauen	genießen	gütig	sonnig	töten	krank	versagen	gemein	gierig	sterben	53pct	acq_USpleas_CSpleas2_noRW	acq1_noRW	1	66	0	0	300	300	469	50	0	1	1	blank2r.bmp	0	1	+	0	1	blank2r.bmp	252	1	YFFY	306	1	genießen	559	0	0	0	0	0	0	0	0	0	0	0	0	0	0	0	0	0	0	0	0	0	0	0	0	0	0	0	0	0	0	0	0	0	0	0	0	0	0	0
072419	14:20:20	14:23:37	196465	5.0.10.0	5_exp_noRW	82	Rpleas_acq	CS_A	JQQJ	YFFY	ZHHZ	DXXD	CPPC	LWWL	träumen	küssen	vertrauen	genießen	gütig	sonnig	töten	krank	versagen	gemein	gierig	sterben	53pct	acq_USpleas_CSpleas1_noRW	acq1_noRW	1	67	0	0	300	300	548	50	0	1	1	blank2r.bmp	0	1	+	0	1	blank2r.bmp	252	1	JQQJ	306	3	vertrauen	559	0	0	0	0	0	0	0	0	0	0	0	0	0	0	0	0	0	0	0	0	0	0	0	0	0	0	0	0	0	0	0	0	0	0	0	0	0	0	0
072419	14:20:20	14:23:39	198131	5.0.10.0	5_exp_noRW	82	Rpleas_acq	CS_A	JQQJ	YFFY	ZHHZ	DXXD	CPPC	LWWL	träumen	küssen	vertrauen	genießen	gütig	sonnig	töten	krank	versagen	gemein	gierig	sterben	53pct	acq_USpleas_CSpleas1_noRW	acq1_noRW	1	68	0	0	300	300	497	50	0	1	1	blank2r.bmp	0	1	+	0	1	blank2r.bmp	252	1	JQQJ	306	2	küssen	559	0	0	0	0	0	0	0	0	0	0	0	0	0	0	0	0	0	0	0	0	0	0	0	0	0	0	0	0	0	0	0	0	0	0	0	0	0	0	0
072419	14:20:20	14:23:41	200091	5.0.10.0	5_exp_noRW	82	Rpleas_acq	CS_A	JQQJ	YFFY	ZHHZ	DXXD	CPPC	LWWL	träumen	küssen	vertrauen	genießen	gütig	sonnig	töten	krank	versagen	gemein	gierig	sterben	47pct	acq_USpleas_CSpleas2_noRW	acq1_noRW	1	69	0	0	300	300	575	46	0	0	1	blank2r.bmp	0	1	+	0	1	blank2r.bmp	252	1	YFFY	306	2	gütig	559	1	FEHLER	1172	0	0	0	0	0	0	0	0	0	0	0	0	0	0	0	0	0	0	0	0	0	0	0	0	0	0	0	0	0	0	0	0	0	0	0	0
072419	14:20:20	14:23:42	201517	5.0.10.0	5_exp_noRW	82	Rpleas_acq	CS_A	JQQJ	YFFY	ZHHZ	DXXD	CPPC	LWWL	träumen	küssen	vertrauen	genießen	gütig	sonnig	töten	krank	versagen	gemein	gierig	sterben	47pct	acq_USpleas_CSunple1_noRW	acq1_noRW	1	70	0	0	300	300	476	50	0	1	1	blank2r.bmp	0	1	+	0	1	blank2r.bmp	252	1	ZHHZ	306	1	träumen	559	0	0	0	0	0	0	0	0	0	0	0	0	0	0	0	0	0	0	0	0	0	0	0	0	0	0	0	0	0	0	0	0	0	0	0	0	0	0	0
072419	14:20:20	14:23:44	203076	5.0.10.0	5_exp_noRW	82	Rpleas_acq	CS_A	JQQJ	YFFY	ZHHZ	DXXD	CPPC	LWWL	träumen	küssen	vertrauen	genießen	gütig	sonnig	töten	krank	versagen	gemein	gierig	sterben	47pct	acq_USpleas_CSunple2_noRW	acq1_noRW	1	71	0	0	300	300	377	50	0	1	1	blank2r.bmp	0	1	+	0	1	blank2r.bmp	252	1	DXXD	306	1	genießen	559	0	0	0	0	0	0	0	0	0	0	0	0	0	0	0	0	0	0	0	0	0	0	0	0	0	0	0	0	0	0	0	0	0	0	0	0	0	0	0
072419	14:20:20	14:23:45	204742	5.0.10.0	5_exp_noRW	82	Rpleas_acq	CS_A	JQQJ	YFFY	ZHHZ	DXXD	CPPC	LWWL	träumen	küssen	vertrauen	genießen	gütig	sonnig	töten	krank	versagen	gemein	gierig	sterben	53pct	acq_USunple_CSpleas1_noRW	acq1_noRW	1	72	0	0	300	300	492	46	0	1	1	blank2r.bmp	0	1	+	0	1	blank2r.bmp	252	1	JQQJ	306	1	töten	559	0	0	0	0	0	0	0	0	0	0	0	0	0	0	0	0	0	0	0	0	0	0	0	0	0	0	0	0	0	0	0	0	0	0	0	0	0	0	0
072419	14:20:20	14:23:47	206555	5.0.10.0	5_exp_noRW	82	Rpleas_acq	CS_A	JQQJ	YFFY	ZHHZ	DXXD	CPPC	LWWL	träumen	küssen	vertrauen	genießen	gütig	sonnig	töten	krank	versagen	gemein	gierig	sterben	47pct	acq_USunple_CSunple1_noRW	acq1_noRW	1	73	0	0	300	300	650	46	0	1	1	blank2r.bmp	0	1	+	0	1	blank2r.bmp	252	1	ZHHZ	306	3	versagen	559	0	0	0	0	0	0	0	0	0	0	0	0	0	0	0	0	0	0	0	0	0	0	0	0	0	0	0	0	0	0	0	0	0	0	0	0	0	0	0
072419	14:20:20	14:23:49	208207	5.0.10.0	5_exp_noRW	82	Rpleas_acq	CS_A	JQQJ	YFFY	ZHHZ	DXXD	CPPC	LWWL	träumen	küssen	vertrauen	genießen	gütig	sonnig	töten	krank	versagen	gemein	gierig	sterben	53pct	acq_USunple_CSunple2_noRW	acq1_noRW	1	74	0	0	300	300	473	46	0	1	1	blank2r.bmp	0	1	+	0	1	blank2r.bmp	252	1	DXXD	306	2	gierig	559	0	0	0	0	0	0	0	0	0	0	0	0	0	0	0	0	0	0	0	0	0	0	0	0	0	0	0	0	0	0	0	0	0	0	0	0	0	0	0
072419	14:20:20	14:23:50	209753	5.0.10.0	5_exp_noRW	82	Rpleas_acq	CS_A	JQQJ	YFFY	ZHHZ	DXXD	CPPC	LWWL	träumen	küssen	vertrauen	genießen	gütig	sonnig	töten	krank	versagen	gemein	gierig	sterben	53pct	acq_USpleas_CSpleas2_noRW	acq1_noRW	1	75	0	0	300	300	370	50	0	1	1	blank2r.bmp	0	1	+	0	1	blank2r.bmp	252	1	YFFY	306	3	sonnig	559	0	0	0	0	0	0	0	0	0	0	0	0	0	0	0	0	0	0	0	0	0	0	0	0	0	0	0	0	0	0	0	0	0	0	0	0	0	0	0
072419	14:20:20	14:23:52	211353	5.0.10.0	5_exp_noRW	82	Rpleas_acq	CS_A	JQQJ	YFFY	ZHHZ	DXXD	CPPC	LWWL	träumen	küssen	vertrauen	genießen	gütig	sonnig	töten	krank	versagen	gemein	gierig	sterben	47pct	acq_USunple_CSunple1_noRW	acq1_noRW	1	76	0	0	300	300	412	46	0	1	1	blank2r.bmp	0	1	+	0	1	blank2r.bmp	252	1	ZHHZ	306	1	töten	559	0	0	0	0	0	0	0	0	0	0	0	0	0	0	0	0	0	0	0	0	0	0	0	0	0	0	0	0	0	0	0	0	0	0	0	0	0	0	0
072419	14:20:20	14:23:54	212872	5.0.10.0	5_exp_noRW	82	Rpleas_acq	CS_A	JQQJ	YFFY	ZHHZ	DXXD	CPPC	LWWL	träumen	küssen	vertrauen	genießen	gütig	sonnig	töten	krank	versagen	gemein	gierig	sterben	47pct	acq_USpleas_CSpleas1_noRW	acq1_noRW	1	77	0	0	300	300	334	50	0	1	1	blank2r.bmp	0	1	+	0	1	blank2r.bmp	252	1	JQQJ	306	2	küssen	559	0	0	0	0	0	0	0	0	0	0	0	0	0	0	0	0	0	0	0	0	0	0	0	0	0	0	0	0	0	0	0	0	0	0	0	0	0	0	0
072419	14:20:20	14:23:55	214418	5.0.10.0	5_exp_noRW	82	Rpleas_acq	CS_A	JQQJ	YFFY	ZHHZ	DXXD	CPPC	LWWL	träumen	küssen	vertrauen	genießen	gütig	sonnig	töten	krank	versagen	gemein	gierig	sterben	47pct	acq_USunple_CSunple2_noRW	acq1_noRW	1	78	0	0	300	300	371	46	0	1	1	blank2r.bmp	0	1	+	0	1	blank2r.bmp	252	1	DXXD	306	2	gierig	559	0	0	0	0	0	0	0	0	0	0	0	0	0	0	0	0	0	0	0	0	0	0	0	0	0	0	0	0	0	0	0	0	0	0	0	0	0	0	0
072419	14:20:20	14:23:57	216124	5.0.10.0	5_exp_noRW	82	Rpleas_acq	CS_A	JQQJ	YFFY	ZHHZ	DXXD	CPPC	LWWL	träumen	küssen	vertrauen	genießen	gütig	sonnig	töten	krank	versagen	gemein	gierig	sterben	53pct	acq_USpleas_CSpleas2_noRW	acq1_noRW	1	79	0	0	300	300	329	46	0	0	1	blank2r.bmp	0	1	+	0	1	blank2r.bmp	252	1	YFFY	306	1	genießen	559	1	FEHLER	919	0	0	0	0	0	0	0	0	0	0	0	0	0	0	0	0	0	0	0	0	0	0	0	0	0	0	0	0	0	0	0	0	0	0	0	0
072419	14:20:20	14:23:58	217457	5.0.10.0	5_exp_noRW	82	Rpleas_acq	CS_A	JQQJ	YFFY	ZHHZ	DXXD	CPPC	LWWL	träumen	küssen	vertrauen	genießen	gütig	sonnig	töten	krank	versagen	gemein	gierig	sterben	47pct	acq_USunple_CSunple1_noRW	acq1_noRW	1	80	0	0	300	300	376	46	0	1	1	blank2r.bmp	0	1	+	0	1	blank2r.bmp	252	1	ZHHZ	306	2	krank	559	0	0	0	0	0	0	0	0	0	0	0	0	0	0	0	0	0	0	0	0	0	0	0	0	0	0	0	0	0	0	0	0	0	0	0	0	0	0	0
072419	14:20:20	14:24:11	230518	5.0.10.0	5_exp_noRW	82	Rpleas_acq	CS_A	JQQJ	YFFY	ZHHZ	DXXD	CPPC	LWWL	träumen	küssen	vertrauen	genießen	gütig	sonnig	töten	krank	versagen	gemein	gierig	sterben	47pct	acq_USpleas_CSpleas2_noRW	acq23456_noRW	2	1	0	0	300	300	991	50	0	1	1	blank2r.bmp	0	1	+	0	1	blank2r.bmp	252	1	YFFY	306	3	sonnig	559	0	0	0	0	0	0	0	0	0	0	0	0	0	0	0	0	0	0	0	0	0	0	0	0	0	0	0	0	0	0	0	0	0	0	0	0	0	0	0
072419	14:20:20	14:24:13	232171	5.0.10.0	5_exp_noRW	82	Rpleas_acq	CS_A	JQQJ	YFFY	ZHHZ	DXXD	CPPC	LWWL	träumen	küssen	vertrauen	genießen	gütig	sonnig	töten	krank	versagen	gemein	gierig	sterben	53pct	acq_USpleas_CSpleas2_noRW	acq23456_noRW	2	2	0	0	300	300	465	50	0	1	1	blank2r.bmp	0	1	+	0	1	blank2r.bmp	252	1	YFFY	306	2	gütig	559	0	0	0	0	0	0	0	0	0	0	0	0	0	0	0	0	0	0	0	0	0	0	0	0	0	0	0	0	0	0	0	0	0	0	0	0	0	0	0
072419	14:20:20	14:24:15	233810	5.0.10.0	5_exp_noRW	82	Rpleas_acq	CS_A	JQQJ	YFFY	ZHHZ	DXXD	CPPC	LWWL	träumen	küssen	vertrauen	genießen	gütig	sonnig	töten	krank	versagen	gemein	gierig	sterben	47pct	acq_USpleas_CSpleas1_noRW	acq23456_noRW	2	3	0	0	300	300	477	50	0	1	1	blank2r.bmp	0	1	+	0	1	blank2r.bmp	252	1	JQQJ	306	1	träumen	559	0	0	0	0	0	0	0	0	0	0	0	0	0	0	0	0	0	0	0	0	0	0	0	0	0	0	0	0	0	0	0	0	0	0	0	0	0	0	0
072419	14:20:20	14:24:16	235449	5.0.10.0	5_exp_noRW	82	Rpleas_acq	CS_A	JQQJ	YFFY	ZHHZ	DXXD	CPPC	LWWL	träumen	küssen	vertrauen	genießen	gütig	sonnig	töten	krank	versagen	gemein	gierig	sterben	53pct	acq_USunple_CSunple1_noRW	acq23456_noRW	2	4	0	0	300	300	459	46	0	1	1	blank2r.bmp	0	1	+	0	1	blank2r.bmp	252	1	ZHHZ	306	3	versagen	559	0	0	0	0	0	0	0	0	0	0	0	0	0	0	0	0	0	0	0	0	0	0	0	0	0	0	0	0	0	0	0	0	0	0	0	0	0	0	0
072419	14:20:20	14:24:18	237115	5.0.10.0	5_exp_noRW	82	Rpleas_acq	CS_A	JQQJ	YFFY	ZHHZ	DXXD	CPPC	LWWL	träumen	küssen	vertrauen	genießen	gütig	sonnig	töten	krank	versagen	gemein	gierig	sterben	53pct	acq_USpleas_CSpleas2_noRW	acq23456_noRW	2	5	0	0	300	300	481	50	0	1	1	blank2r.bmp	0	1	+	0	1	blank2r.bmp	252	1	YFFY	306	3	sonnig	559	0	0	0	0	0	0	0	0	0	0	0	0	0	0	0	0	0	0	0	0	0	0	0	0	0	0	0	0	0	0	0	0	0	0	0	0	0	0	0
072419	14:20:20	14:24:19	238728	5.0.10.0	5_exp_noRW	82	Rpleas_acq	CS_A	JQQJ	YFFY	ZHHZ	DXXD	CPPC	LWWL	träumen	küssen	vertrauen	genießen	gütig	sonnig	töten	krank	versagen	gemein	gierig	sterben	47pct	acq_USunple_CSpleas1_noRW	acq23456_noRW	2	6	0	0	300	300	446	46	0	1	1	blank2r.bmp	0	1	+	0	1	blank2r.bmp	252	1	JQQJ	306	2	krank	559	0	0	0	0	0	0	0	0	0	0	0	0	0	0	0	0	0	0	0	0	0	0	0	0	0	0	0	0	0	0	0	0	0	0	0	0	0	0	0
072419	14:20:20	14:24:21	240301	5.0.10.0	5_exp_noRW	82	Rpleas_acq	CS_A	JQQJ	YFFY	ZHHZ	DXXD	CPPC	LWWL	träumen	küssen	vertrauen	genießen	gütig	sonnig	töten	krank	versagen	gemein	gierig	sterben	47pct	acq_USpleas_CSunple1_noRW	acq23456_noRW	2	7	0	0	300	300	394	50	0	1	1	blank2r.bmp	0	1	+	0	1	blank2r.bmp	252	1	ZHHZ	306	2	küssen	559	0	0	0	0	0	0	0	0	0	0	0	0	0	0	0	0	0	0	0	0	0	0	0	0	0	0	0	0	0	0	0	0	0	0	0	0	0	0	0
072419	14:20:20	14:24:23	241833	5.0.10.0	5_exp_noRW	82	Rpleas_acq	CS_A	JQQJ	YFFY	ZHHZ	DXXD	CPPC	LWWL	träumen	küssen	vertrauen	genießen	gütig	sonnig	töten	krank	versagen	gemein	gierig	sterben	53pct	acq_USunple_CSunple2_noRW	acq23456_noRW	2	8	0	0	300	300	350	46	0	1	1	blank2r.bmp	0	1	+	0	1	blank2r.bmp	252	1	DXXD	306	3	sterben	559	0	0	0	0	0	0	0	0	0	0	0	0	0	0	0	0	0	0	0	0	0	0	0	0	0	0	0	0	0	0	0	0	0	0	0	0	0	0	0
072419	14:20:20	14:24:24	243526	5.0.10.0	5_exp_noRW	82	Rpleas_acq	CS_A	JQQJ	YFFY	ZHHZ	DXXD	CPPC	LWWL	träumen	küssen	vertrauen	genießen	gütig	sonnig	töten	krank	versagen	gemein	gierig	sterben	53pct	acq_USpleas_CSpleas1_noRW	acq23456_noRW	2	9	0	0	300	300	507	50	0	1	1	blank2r.bmp	0	1	+	0	1	blank2r.bmp	252	1	JQQJ	306	3	vertrauen	559	0	0	0	0	0	0	0	0	0	0	0	0	0	0	0	0	0	0	0	0	0	0	0	0	0	0	0	0	0	0	0	0	0	0	0	0	0	0	0
072419	14:20:20	14:24:26	245112	5.0.10.0	5_exp_noRW	82	Rpleas_acq	CS_A	JQQJ	YFFY	ZHHZ	DXXD	CPPC	LWWL	träumen	küssen	vertrauen	genießen	gütig	sonnig	töten	krank	versagen	gemein	gierig	sterben	47pct	acq_USunple_CSunple1_noRW	acq23456_noRW	2	10	0	0	300	300	414	46	0	1	1	blank2r.bmp	0	1	+	0	1	blank2r.bmp	252	1	ZHHZ	306	1	töten	559	0	0	0	0	0	0	0	0	0	0	0	0	0	0	0	0	0	0	0	0	0	0	0	0	0	0	0	0	0	0	0	0	0	0	0	0	0	0	0
072419	14:20:20	14:24:28	246991	5.0.10.0	5_exp_noRW	82	Rpleas_acq	CS_A	JQQJ	YFFY	ZHHZ	DXXD	CPPC	LWWL	träumen	küssen	vertrauen	genießen	gütig	sonnig	töten	krank	versagen	gemein	gierig	sterben	47pct	acq_USunple_CSpleas2_noRW	acq23456_noRW	2	11	0	0	300	300	503	50	0	0	1	blank2r.bmp	0	1	+	0	1	blank2r.bmp	252	1	YFFY	306	2	gierig	559	1	FEHLER	1092	0	0	0	0	0	0	0	0	0	0	0	0	0	0	0	0	0	0	0	0	0	0	0	0	0	0	0	0	0	0	0	0	0	0	0	0
072419	14:20:20	14:24:29	248351	5.0.10.0	5_exp_noRW	82	Rpleas_acq	CS_A	JQQJ	YFFY	ZHHZ	DXXD	CPPC	LWWL	träumen	küssen	vertrauen	genießen	gütig	sonnig	töten	krank	versagen	gemein	gierig	sterben	47pct	acq_USpleas_CSpleas2_noRW	acq23456_noRW	2	12	0	0	300	300	388	50	0	1	1	blank2r.bmp	0	1	+	0	1	blank2r.bmp	252	1	YFFY	306	2	gütig	559	0	0	0	0	0	0	0	0	0	0	0	0	0	0	0	0	0	0	0	0	0	0	0	0	0	0	0	0	0	0	0	0	0	0	0	0	0	0	0
072419	14:20:20	14:24:31	250137	5.0.10.0	5_exp_noRW	82	Rpleas_acq	CS_A	JQQJ	YFFY	ZHHZ	DXXD	CPPC	LWWL	träumen	küssen	vertrauen	genießen	gütig	sonnig	töten	krank	versagen	gemein	gierig	sterben	53pct	acq_USunple_CSunple2_noRW	acq23456_noRW	2	13	0	0	300	300	397	50	0	0	1	blank2r.bmp	0	1	+	0	1	blank2r.bmp	252	1	DXXD	306	1	gemein	559	1	FEHLER	986	0	0	0	0	0	0	0	0	0	0	0	0	0	0	0	0	0	0	0	0	0	0	0	0	0	0	0	0	0	0	0	0	0	0	0	0
072419	14:20:20	14:24:32	251576	5.0.10.0	5_exp_noRW	82	Rpleas_acq	CS_A	JQQJ	YFFY	ZHHZ	DXXD	CPPC	LWWL	träumen	küssen	vertrauen	genießen	gütig	sonnig	töten	krank	versagen	gemein	gierig	sterben	53pct	acq_USunple_CSunple1_noRW	acq23456_noRW	2	14	0	0	300	300	475	46	0	1	1	blank2r.bmp	0	1	+	0	1	blank2r.bmp	252	1	ZHHZ	306	3	versagen	559	0	0	0	0	0	0	0	0	0	0	0	0	0	0	0	0	0	0	0	0	0	0	0	0	0	0	0	0	0	0	0	0	0	0	0	0	0	0	0
072419	14:20:20	14:24:34	253162	5.0.10.0	5_exp_noRW	82	Rpleas_acq	CS_A	JQQJ	YFFY	ZHHZ	DXXD	CPPC	LWWL	träumen	küssen	vertrauen	genießen	gütig	sonnig	töten	krank	versagen	gemein	gierig	sterben	53pct	acq_USpleas_CSpleas1_noRW	acq23456_noRW	2	15	0	0	300	300	400	50	0	1	1	blank2r.bmp	0	1	+	0	1	blank2r.bmp	252	1	JQQJ	306	1	träumen	559	0	0	0	0	0	0	0	0	0	0	0	0	0	0	0	0	0	0	0	0	0	0	0	0	0	0	0	0	0	0	0	0	0	0	0	0	0	0	0
072419	14:20:20	14:24:35	254801	5.0.10.0	5_exp_noRW	82	Rpleas_acq	CS_A	JQQJ	YFFY	ZHHZ	DXXD	CPPC	LWWL	träumen	küssen	vertrauen	genießen	gütig	sonnig	töten	krank	versagen	gemein	gierig	sterben	47pct	acq_USunple_CSunple2_noRW	acq23456_noRW	2	16	0	0	300	300	470	46	0	1	1	blank2r.bmp	0	1	+	0	1	blank2r.bmp	252	1	DXXD	306	3	sterben	559	0	0	0	0	0	0	0	0	0	0	0	0	0	0	0	0	0	0	0	0	0	0	0	0	0	0	0	0	0	0	0	0	0	0	0	0	0	0	0
072419	14:20:20	14:24:38	256961	5.0.10.0	5_exp_noRW	82	Rpleas_acq	CS_A	JQQJ	YFFY	ZHHZ	DXXD	CPPC	LWWL	träumen	küssen	vertrauen	genießen	gütig	sonnig	töten	krank	versagen	gemein	gierig	sterben	47pct	acq_USunple_CSunple2_noRW	acq23456_noRW	2	17	0	0	300	300	776	50	0	0	1	blank2r.bmp	0	1	+	0	1	blank2r.bmp	252	1	DXXD	306	1	gemein	559	1	FEHLER	1372	0	0	0	0	0	0	0	0	0	0	0	0	0	0	0	0	0	0	0	0	0	0	0	0	0	0	0	0	0	0	0	0	0	0	0	0
072419	14:20:20	14:24:39	258293	5.0.10.0	5_exp_noRW	82	Rpleas_acq	CS_A	JQQJ	YFFY	ZHHZ	DXXD	CPPC	LWWL	träumen	küssen	vertrauen	genießen	gütig	sonnig	töten	krank	versagen	gemein	gierig	sterben	47pct	acq_USpleas_CSunple2_noRW	acq23456_noRW	2	18	0	0	300	300	366	50	0	1	1	blank2r.bmp	0	1	+	0	1	blank2r.bmp	252	1	DXXD	306	2	gütig	559	0	0	0	0	0	0	0	0	0	0	0	0	0	0	0	0	0	0	0	0	0	0	0	0	0	0	0	0	0	0	0	0	0	0	0	0	0	0	0
072419	14:20:20	14:24:41	259906	5.0.10.0	5_exp_noRW	82	Rpleas_acq	CS_A	JQQJ	YFFY	ZHHZ	DXXD	CPPC	LWWL	träumen	küssen	vertrauen	genießen	gütig	sonnig	töten	krank	versagen	gemein	gierig	sterben	47pct	acq_USpleas_CSpleas1_noRW	acq23456_noRW	2	19	0	0	300	300	438	50	0	1	1	blank2r.bmp	0	1	+	0	1	blank2r.bmp	252	1	JQQJ	306	2	küssen	559	0	0	0	0	0	0	0	0	0	0	0	0	0	0	0	0	0	0	0	0	0	0	0	0	0	0	0	0	0	0	0	0	0	0	0	0	0	0	0
072419	14:20:20	14:24:42	261625	5.0.10.0	5_exp_noRW	82	Rpleas_acq	CS_A	JQQJ	YFFY	ZHHZ	DXXD	CPPC	LWWL	träumen	küssen	vertrauen	genießen	gütig	sonnig	töten	krank	versagen	gemein	gierig	sterben	53pct	acq_USunple_CSunple1_noRW	acq23456_noRW	2	20	0	0	300	300	546	46	0	1	1	blank2r.bmp	0	1	+	0	1	blank2r.bmp	252	1	ZHHZ	306	1	töten	559	0	0	0	0	0	0	0	0	0	0	0	0	0	0	0	0	0	0	0	0	0	0	0	0	0	0	0	0	0	0	0	0	0	0	0	0	0	0	0
072419	14:20:20	14:24:44	263291	5.0.10.0	5_exp_noRW	82	Rpleas_acq	CS_A	JQQJ	YFFY	ZHHZ	DXXD	CPPC	LWWL	träumen	küssen	vertrauen	genießen	gütig	sonnig	töten	krank	versagen	gemein	gierig	sterben	47pct	acq_USpleas_CSpleas2_noRW	acq23456_noRW	2	21	0	0	300	300	492	50	0	1	1	blank2r.bmp	0	1	+	0	1	blank2r.bmp	252	1	YFFY	306	1	genießen	559	0	0	0	0	0	0	0	0	0	0	0	0	0	0	0	0	0	0	0	0	0	0	0	0	0	0	0	0	0	0	0	0	0	0	0	0	0	0	0
072419	14:20:20	14:24:46	264957	5.0.10.0	5_exp_noRW	82	Rpleas_acq	CS_A	JQQJ	YFFY	ZHHZ	DXXD	CPPC	LWWL	träumen	küssen	vertrauen	genießen	gütig	sonnig	töten	krank	versagen	gemein	gierig	sterben	47pct	acq_USpleas_CSunple1_noRW	acq23456_noRW	2	22	0	0	300	300	493	50	0	1	1	blank2r.bmp	0	1	+	0	1	blank2r.bmp	252	1	ZHHZ	306	3	vertrauen	559	0	0	0	0	0	0	0	0	0	0	0	0	0	0	0	0	0	0	0	0	0	0	0	0	0	0	0	0	0	0	0	0	0	0	0	0	0	0	0
072419	14:20:20	14:24:48	266836	5.0.10.0	5_exp_noRW	82	Rpleas_acq	CS_A	JQQJ	YFFY	ZHHZ	DXXD	CPPC	LWWL	träumen	küssen	vertrauen	genießen	gütig	sonnig	töten	krank	versagen	gemein	gierig	sterben	53pct	acq_USpleas_CSpleas2_noRW	acq23456_noRW	2	23	0	0	300	300	516	46	0	0	1	blank2r.bmp	0	1	+	0	1	blank2r.bmp	252	1	YFFY	306	1	genießen	559	1	FEHLER	1106	0	0	0	0	0	0	0	0	0	0	0	0	0	0	0	0	0	0	0	0	0	0	0	0	0	0	0	0	0	0	0	0	0	0	0	0
072419	14:20:20	14:24:49	268329	5.0.10.0	5_exp_noRW	82	Rpleas_acq	CS_A	JQQJ	YFFY	ZHHZ	DXXD	CPPC	LWWL	träumen	küssen	vertrauen	genießen	gütig	sonnig	töten	krank	versagen	gemein	gierig	sterben	53pct	acq_USunple_CSunple1_noRW	acq23456_noRW	2	24	0	0	300	300	505	46	0	1	1	blank2r.bmp	0	1	+	0	1	blank2r.bmp	252	1	ZHHZ	306	2	krank	559	0	0	0	0	0	0	0	0	0	0	0	0	0	0	0	0	0	0	0	0	0	0	0	0	0	0	0	0	0	0	0	0	0	0	0	0	0	0	0
072419	14:20:20	14:24:51	270142	5.0.10.0	5_exp_noRW	82	Rpleas_acq	CS_A	JQQJ	YFFY	ZHHZ	DXXD	CPPC	LWWL	träumen	küssen	vertrauen	genießen	gütig	sonnig	töten	krank	versagen	gemein	gierig	sterben	47pct	acq_USpleas_CSpleas1_noRW	acq23456_noRW	2	25	0	0	300	300	641	50	0	1	1	blank2r.bmp	0	1	+	0	1	blank2r.bmp	252	1	JQQJ	306	3	vertrauen	559	0	0	0	0	0	0	0	0	0	0	0	0	0	0	0	0	0	0	0	0	0	0	0	0	0	0	0	0	0	0	0	0	0	0	0	0	0	0	0
072419	14:20:20	14:24:53	271821	5.0.10.0	5_exp_noRW	82	Rpleas_acq	CS_A	JQQJ	YFFY	ZHHZ	DXXD	CPPC	LWWL	träumen	küssen	vertrauen	genießen	gütig	sonnig	töten	krank	versagen	gemein	gierig	sterben	47pct	acq_USpleas_CSpleas1_noRW	acq23456_noRW	2	26	0	0	300	300	517	50	0	1	1	blank2r.bmp	0	1	+	0	1	blank2r.bmp	252	1	JQQJ	306	3	vertrauen	559	0	0	0	0	0	0	0	0	0	0	0	0	0	0	0	0	0	0	0	0	0	0	0	0	0	0	0	0	0	0	0	0	0	0	0	0	0	0	0
072419	14:20:20	14:24:54	273407	5.0.10.0	5_exp_noRW	82	Rpleas_acq	CS_A	JQQJ	YFFY	ZHHZ	DXXD	CPPC	LWWL	träumen	küssen	vertrauen	genießen	gütig	sonnig	töten	krank	versagen	gemein	gierig	sterben	53pct	acq_USunple_CSpleas1_noRW	acq23456_noRW	2	27	0	0	300	300	408	46	0	1	1	blank2r.bmp	0	1	+	0	1	blank2r.bmp	252	1	JQQJ	306	3	versagen	559	0	0	0	0	0	0	0	0	0	0	0	0	0	0	0	0	0	0	0	0	0	0	0	0	0	0	0	0	0	0	0	0	0	0	0	0	0	0	0
072419	14:20:20	14:24:56	275046	5.0.10.0	5_exp_noRW	82	Rpleas_acq	CS_A	JQQJ	YFFY	ZHHZ	DXXD	CPPC	LWWL	träumen	küssen	vertrauen	genießen	gütig	sonnig	töten	krank	versagen	gemein	gierig	sterben	53pct	acq_USpleas_CSpleas2_noRW	acq23456_noRW	2	28	0	0	300	300	454	50	0	1	1	blank2r.bmp	0	1	+	0	1	blank2r.bmp	252	1	YFFY	306	2	gütig	559	0	0	0	0	0	0	0	0	0	0	0	0	0	0	0	0	0	0	0	0	0	0	0	0	0	0	0	0	0	0	0	0	0	0	0	0	0	0	0
072419	14:20:20	14:24:58	276966	5.0.10.0	5_exp_noRW	82	Rpleas_acq	CS_A	JQQJ	YFFY	ZHHZ	DXXD	CPPC	LWWL	träumen	küssen	vertrauen	genießen	gütig	sonnig	töten	krank	versagen	gemein	gierig	sterben	53pct	acq_USunple_CSunple2_noRW	acq23456_noRW	2	29	0	0	300	300	522	50	0	0	1	blank2r.bmp	0	1	+	0	1	blank2r.bmp	252	1	DXXD	306	2	gierig	559	1	FEHLER	1119	0	0	0	0	0	0	0	0	0	0	0	0	0	0	0	0	0	0	0	0	0	0	0	0	0	0	0	0	0	0	0	0	0	0	0	0
072419	14:20:20	14:24:59	278352	5.0.10.0	5_exp_noRW	82	Rpleas_acq	CS_A	JQQJ	YFFY	ZHHZ	DXXD	CPPC	LWWL	träumen	küssen	vertrauen	genießen	gütig	sonnig	töten	krank	versagen	gemein	gierig	sterben	47pct	acq_USpleas_CSunple2_noRW	acq23456_noRW	2	30	0	0	300	300	437	50	0	1	1	blank2r.bmp	0	1	+	0	1	blank2r.bmp	252	1	DXXD	306	3	sonnig	559	0	0	0	0	0	0	0	0	0	0	0	0	0	0	0	0	0	0	0	0	0	0	0	0	0	0	0	0	0	0	0	0	0	0	0	0	0	0	0
072419	14:20:20	14:25:01	280004	5.0.10.0	5_exp_noRW	82	Rpleas_acq	CS_A	JQQJ	YFFY	ZHHZ	DXXD	CPPC	LWWL	träumen	küssen	vertrauen	genießen	gütig	sonnig	töten	krank	versagen	gemein	gierig	sterben	53pct	acq_USunple_CSunple1_noRW	acq23456_noRW	2	31	0	0	300	300	470	46	0	1	1	blank2r.bmp	0	1	+	0	1	blank2r.bmp	252	1	ZHHZ	306	2	krank	559	0	0	0	0	0	0	0	0	0	0	0	0	0	0	0	0	0	0	0	0	0	0	0	0	0	0	0	0	0	0	0	0	0	0	0	0	0	0	0
072419	14:20:20	14:25:02	281617	5.0.10.0	5_exp_noRW	82	Rpleas_acq	CS_A	JQQJ	YFFY	ZHHZ	DXXD	CPPC	LWWL	träumen	küssen	vertrauen	genießen	gütig	sonnig	töten	krank	versagen	gemein	gierig	sterben	53pct	acq_USpleas_CSpleas2_noRW	acq23456_noRW	2	32	0	0	300	300	431	50	0	1	1	blank2r.bmp	0	1	+	0	1	blank2r.bmp	252	1	YFFY	306	3	sonnig	559	0	0	0	0	0	0	0	0	0	0	0	0	0	0	0	0	0	0	0	0	0	0	0	0	0	0	0	0	0	0	0	0	0	0	0	0	0	0	0
072419	14:20:20	14:25:04	283310	5.0.10.0	5_exp_noRW	82	Rpleas_acq	CS_A	JQQJ	YFFY	ZHHZ	DXXD	CPPC	LWWL	träumen	küssen	vertrauen	genießen	gütig	sonnig	töten	krank	versagen	gemein	gierig	sterben	47pct	acq_USunple_CSunple2_noRW	acq23456_noRW	2	33	0	0	300	300	524	46	0	1	1	blank2r.bmp	0	1	+	0	1	blank2r.bmp	252	1	DXXD	306	1	gemein	559	0	0	0	0	0	0	0	0	0	0	0	0	0	0	0	0	0	0	0	0	0	0	0	0	0	0	0	0	0	0	0	0	0	0	0	0	0	0	0
072419	14:20:20	14:25:06	285002	5.0.10.0	5_exp_noRW	82	Rpleas_acq	CS_A	JQQJ	YFFY	ZHHZ	DXXD	CPPC	LWWL	träumen	küssen	vertrauen	genießen	gütig	sonnig	töten	krank	versagen	gemein	gierig	sterben	47pct	acq_USunple_CSpleas2_noRW	acq23456_noRW	2	34	0	0	300	300	511	46	0	1	1	blank2r.bmp	0	1	+	0	1	blank2r.bmp	252	1	YFFY	306	3	sterben	559	0	0	0	0	0	0	0	0	0	0	0	0	0	0	0	0	0	0	0	0	0	0	0	0	0	0	0	0	0	0	0	0	0	0	0	0	0	0	0
072419	14:20:20	14:25:07	286642	5.0.10.0	5_exp_noRW	82	Rpleas_acq	CS_A	JQQJ	YFFY	ZHHZ	DXXD	CPPC	LWWL	träumen	küssen	vertrauen	genießen	gütig	sonnig	töten	krank	versagen	gemein	gierig	sterben	53pct	acq_USunple_CSunple2_noRW	acq23456_noRW	2	35	0	0	300	300	475	46	0	1	1	blank2r.bmp	0	1	+	0	1	blank2r.bmp	252	1	DXXD	306	3	sterben	559	0	0	0	0	0	0	0	0	0	0	0	0	0	0	0	0	0	0	0	0	0	0	0	0	0	0	0	0	0	0	0	0	0	0	0	0	0	0	0
072419	14:20:20	14:25:09	288294	5.0.10.0	5_exp_noRW	82	Rpleas_acq	CS_A	JQQJ	YFFY	ZHHZ	DXXD	CPPC	LWWL	träumen	küssen	vertrauen	genießen	gütig	sonnig	töten	krank	versagen	gemein	gierig	sterben	53pct	acq_USunple_CSunple1_noRW	acq23456_noRW	2	36	0	0	300	300	478	46	0	1	1	blank2r.bmp	0	1	+	0	1	blank2r.bmp	252	1	ZHHZ	306	1	töten	559	0	0	0	0	0	0	0	0	0	0	0	0	0	0	0	0	0	0	0	0	0	0	0	0	0	0	0	0	0	0	0	0	0	0	0	0	0	0	0
072419	14:20:20	14:25:11	289947	5.0.10.0	5_exp_noRW	82	Rpleas_acq	CS_A	JQQJ	YFFY	ZHHZ	DXXD	CPPC	LWWL	träumen	küssen	vertrauen	genießen	gütig	sonnig	töten	krank	versagen	gemein	gierig	sterben	53pct	acq_USpleas_CSpleas1_noRW	acq23456_noRW	2	37	0	0	300	300	483	50	0	1	1	blank2r.bmp	0	1	+	0	1	blank2r.bmp	252	1	JQQJ	306	1	träumen	559	0	0	0	0	0	0	0	0	0	0	0	0	0	0	0	0	0	0	0	0	0	0	0	0	0	0	0	0	0	0	0	0	0	0	0	0	0	0	0
072419	14:20:20	14:25:13	291853	5.0.10.0	5_exp_noRW	82	Rpleas_acq	CS_A	JQQJ	YFFY	ZHHZ	DXXD	CPPC	LWWL	träumen	küssen	vertrauen	genießen	gütig	sonnig	töten	krank	versagen	gemein	gierig	sterben	53pct	acq_USunple_CSunple2_noRW	acq23456_noRW	2	38	0	0	300	300	732	46	0	1	1	blank2r.bmp	0	1	+	0	1	blank2r.bmp	252	1	DXXD	306	2	gierig	559	0	0	0	0	0	0	0	0	0	0	0	0	0	0	0	0	0	0	0	0	0	0	0	0	0	0	0	0	0	0	0	0	0	0	0	0	0	0	0
072419	14:20:20	14:25:14	293745	5.0.10.0	5_exp_noRW	82	Rpleas_acq	CS_A	JQQJ	YFFY	ZHHZ	DXXD	CPPC	LWWL	träumen	küssen	vertrauen	genießen	gütig	sonnig	töten	krank	versagen	gemein	gierig	sterben	53pct	acq_USunple_CSunple1_noRW	acq23456_noRW	2	39	0	0	300	300	516	50	0	0	1	blank2r.bmp	0	1	+	0	1	blank2r.bmp	252	1	ZHHZ	306	3	versagen	559	1	FEHLER	1106	0	0	0	0	0	0	0	0	0	0	0	0	0	0	0	0	0	0	0	0	0	0	0	0	0	0	0	0	0	0	0	0	0	0	0	0
072419	14:20:20	14:25:16	295078	5.0.10.0	5_exp_noRW	82	Rpleas_acq	CS_A	JQQJ	YFFY	ZHHZ	DXXD	CPPC	LWWL	träumen	küssen	vertrauen	genießen	gütig	sonnig	töten	krank	versagen	gemein	gierig	sterben	53pct	acq_USpleas_CSpleas1_noRW	acq23456_noRW	2	40	0	0	300	300	359	50	0	1	1	blank2r.bmp	0	1	+	0	1	blank2r.bmp	252	1	JQQJ	306	2	küssen	559	0	0	0	0	0	0	0	0	0	0	0	0	0	0	0	0	0	0	0	0	0	0	0	0	0	0	0	0	0	0	0	0	0	0	0	0	0	0	0
072419	14:20:20	14:25:18	296891	5.0.10.0	5_exp_noRW	82	Rpleas_acq	CS_A	JQQJ	YFFY	ZHHZ	DXXD	CPPC	LWWL	träumen	küssen	vertrauen	genießen	gütig	sonnig	töten	krank	versagen	gemein	gierig	sterben	47pct	acq_USunple_CSpleas2_noRW	acq23456_noRW	2	41	0	0	300	300	643	46	0	1	1	blank2r.bmp	0	1	+	0	1	blank2r.bmp	252	1	YFFY	306	3	sterben	559	0	0	0	0	0	0	0	0	0	0	0	0	0	0	0	0	0	0	0	0	0	0	0	0	0	0	0	0	0	0	0	0	0	0	0	0	0	0	0
072419	14:20:20	14:25:20	298863	5.0.10.0	5_exp_noRW	82	Rpleas_acq	CS_A	JQQJ	YFFY	ZHHZ	DXXD	CPPC	LWWL	träumen	küssen	vertrauen	genießen	gütig	sonnig	töten	krank	versagen	gemein	gierig	sterben	47pct	acq_USunple_CSunple2_noRW	acq23456_noRW	2	42	0	0	300	300	807	46	0	1	1	blank2r.bmp	0	1	+	0	1	blank2r.bmp	252	1	DXXD	306	2	gierig	559	0	0	0	0	0	0	0	0	0	0	0	0	0	0	0	0	0	0	0	0	0	0	0	0	0	0	0	0	0	0	0	0	0	0	0	0	0	0	0
072419	14:20:20	14:25:21	300743	5.0.10.0	5_exp_noRW	82	Rpleas_acq	CS_A	JQQJ	YFFY	ZHHZ	DXXD	CPPC	LWWL	träumen	küssen	vertrauen	genießen	gütig	sonnig	töten	krank	versagen	gemein	gierig	sterben	47pct	acq_USunple_CSunple2_noRW	acq23456_noRW	2	43	0	0	300	300	700	46	0	1	1	blank2r.bmp	0	1	+	0	1	blank2r.bmp	252	1	DXXD	306	1	gemein	559	0	0	0	0	0	0	0	0	0	0	0	0	0	0	0	0	0	0	0	0	0	0	0	0	0	0	0	0	0	0	0	0	0	0	0	0	0	0	0
072419	14:20:20	14:25:23	302395	5.0.10.0	5_exp_noRW	82	Rpleas_acq	CS_A	JQQJ	YFFY	ZHHZ	DXXD	CPPC	LWWL	träumen	küssen	vertrauen	genießen	gütig	sonnig	töten	krank	versagen	gemein	gierig	sterben	53pct	acq_USpleas_CSpleas2_noRW	acq23456_noRW	2	44	0	0	300	300	480	50	0	1	1	blank2r.bmp	0	1	+	0	1	blank2r.bmp	252	1	YFFY	306	3	sonnig	559	0	0	0	0	0	0	0	0	0	0	0	0	0	0	0	0	0	0	0	0	0	0	0	0	0	0	0	0	0	0	0	0	0	0	0	0	0	0	0
072419	14:20:20	14:25:25	304274	5.0.10.0	5_exp_noRW	82	Rpleas_acq	CS_A	JQQJ	YFFY	ZHHZ	DXXD	CPPC	LWWL	träumen	küssen	vertrauen	genießen	gütig	sonnig	töten	krank	versagen	gemein	gierig	sterben	53pct	acq_USpleas_CSpleas2_noRW	acq23456_noRW	2	45	0	0	300	300	709	50	0	1	1	blank2r.bmp	0	1	+	0	1	blank2r.bmp	252	1	YFFY	306	2	gütig	559	0	0	0	0	0	0	0	0	0	0	0	0	0	0	0	0	0	0	0	0	0	0	0	0	0	0	0	0	0	0	0	0	0	0	0	0	0	0	0
072419	14:20:20	14:25:27	306180	5.0.10.0	5_exp_noRW	82	Rpleas_acq	CS_A	JQQJ	YFFY	ZHHZ	DXXD	CPPC	LWWL	träumen	küssen	vertrauen	genießen	gütig	sonnig	töten	krank	versagen	gemein	gierig	sterben	53pct	acq_USunple_CSunple1_noRW	acq23456_noRW	2	46	0	0	300	300	739	46	0	1	1	blank2r.bmp	0	1	+	0	1	blank2r.bmp	252	1	ZHHZ	306	3	versagen	559	0	0	0	0	0	0	0	0	0	0	0	0	0	0	0	0	0	0	0	0	0	0	0	0	0	0	0	0	0	0	0	0	0	0	0	0	0	0	0
072419	14:20:20	14:25:29	307953	5.0.10.0	5_exp_noRW	82	Rpleas_acq	CS_A	JQQJ	YFFY	ZHHZ	DXXD	CPPC	LWWL	träumen	küssen	vertrauen	genießen	gütig	sonnig	töten	krank	versagen	gemein	gierig	sterben	47pct	acq_USunple_CSunple1_noRW	acq23456_noRW	2	47	0	0	300	300	593	46	0	1	1	blank2r.bmp	0	1	+	0	1	blank2r.bmp	252	1	ZHHZ	306	2	krank	559	0	0	0	0	0	0	0	0	0	0	0	0	0	0	0	0	0	0	0	0	0	0	0	0	0	0	0	0	0	0	0	0	0	0	0	0	0	0	0
072419	14:20:20	14:25:30	309592	5.0.10.0	5_exp_noRW	82	Rpleas_acq	CS_A	JQQJ	YFFY	ZHHZ	DXXD	CPPC	LWWL	träumen	küssen	vertrauen	genießen	gütig	sonnig	töten	krank	versagen	gemein	gierig	sterben	47pct	acq_USpleas_CSpleas1_noRW	acq23456_noRW	2	48	0	0	300	300	461	50	0	1	1	blank2r.bmp	0	1	+	0	1	blank2r.bmp	252	1	JQQJ	306	3	vertrauen	559	0	0	0	0	0	0	0	0	0	0	0	0	0	0	0	0	0	0	0	0	0	0	0	0	0	0	0	0	0	0	0	0	0	0	0	0	0	0	0
072419	14:20:20	14:25:32	311205	5.0.10.0	5_exp_noRW	82	Rpleas_acq	CS_A	JQQJ	YFFY	ZHHZ	DXXD	CPPC	LWWL	träumen	küssen	vertrauen	genießen	gütig	sonnig	töten	krank	versagen	gemein	gierig	sterben	53pct	acq_USunple_CSunple1_noRW	acq23456_noRW	2	49	0	0	300	300	426	46	0	1	1	blank2r.bmp	0	1	+	0	1	blank2r.bmp	252	1	ZHHZ	306	1	töten	559	0	0	0	0	0	0	0	0	0	0	0	0	0	0	0	0	0	0	0	0	0	0	0	0	0	0	0	0	0	0	0	0	0	0	0	0	0	0	0
072419	14:20:20	14:25:34	312858	5.0.10.0	5_exp_noRW	82	Rpleas_acq	CS_A	JQQJ	YFFY	ZHHZ	DXXD	CPPC	LWWL	träumen	küssen	vertrauen	genießen	gütig	sonnig	töten	krank	versagen	gemein	gierig	sterben	53pct	acq_USpleas_CSunple1_noRW	acq23456_noRW	2	50	0	0	300	300	491	50	0	1	1	blank2r.bmp	0	1	+	0	1	blank2r.bmp	252	1	ZHHZ	306	2	küssen	559	0	0	0	0	0	0	0	0	0	0	0	0	0	0	0	0	0	0	0	0	0	0	0	0	0	0	0	0	0	0	0	0	0	0	0	0	0	0	0
072419	14:20:20	14:25:35	314657	5.0.10.0	5_exp_noRW	82	Rpleas_acq	CS_A	JQQJ	YFFY	ZHHZ	DXXD	CPPC	LWWL	träumen	küssen	vertrauen	genießen	gütig	sonnig	töten	krank	versagen	gemein	gierig	sterben	47pct	acq_USpleas_CSpleas1_noRW	acq23456_noRW	2	51	0	0	300	300	623	50	0	1	1	blank2r.bmp	0	1	+	0	1	blank2r.bmp	252	1	JQQJ	306	1	träumen	559	0	0	0	0	0	0	0	0	0	0	0	0	0	0	0	0	0	0	0	0	0	0	0	0	0	0	0	0	0	0	0	0	0	0	0	0	0	0	0
072419	14:20:20	14:25:37	316323	5.0.10.0	5_exp_noRW	82	Rpleas_acq	CS_A	JQQJ	YFFY	ZHHZ	DXXD	CPPC	LWWL	träumen	küssen	vertrauen	genießen	gütig	sonnig	töten	krank	versagen	gemein	gierig	sterben	47pct	acq_USunple_CSpleas1_noRW	acq23456_noRW	2	52	0	0	300	300	494	46	0	1	1	blank2r.bmp	0	1	+	0	1	blank2r.bmp	252	1	JQQJ	306	1	töten	559	0	0	0	0	0	0	0	0	0	0	0	0	0	0	0	0	0	0	0	0	0	0	0	0	0	0	0	0	0	0	0	0	0	0	0	0	0	0	0
072419	14:20:20	14:25:39	318095	5.0.10.0	5_exp_noRW	82	Rpleas_acq	CS_A	JQQJ	YFFY	ZHHZ	DXXD	CPPC	LWWL	träumen	küssen	vertrauen	genießen	gütig	sonnig	töten	krank	versagen	gemein	gierig	sterben	53pct	acq_USpleas_CSpleas2_noRW	acq23456_noRW	2	53	0	0	300	300	594	50	0	1	1	blank2r.bmp	0	1	+	0	1	blank2r.bmp	252	1	YFFY	306	1	genießen	559	0	0	0	0	0	0	0	0	0	0	0	0	0	0	0	0	0	0	0	0	0	0	0	0	0	0	0	0	0	0	0	0	0	0	0	0	0	0	0
072419	14:20:20	14:25:40	319788	5.0.10.0	5_exp_noRW	82	Rpleas_acq	CS_A	JQQJ	YFFY	ZHHZ	DXXD	CPPC	LWWL	träumen	küssen	vertrauen	genießen	gütig	sonnig	töten	krank	versagen	gemein	gierig	sterben	47pct	acq_USunple_CSunple2_noRW	acq23456_noRW	2	54	0	0	300	300	512	46	0	1	1	blank2r.bmp	0	1	+	0	1	blank2r.bmp	252	1	DXXD	306	3	sterben	559	0	0	0	0	0	0	0	0	0	0	0	0	0	0	0	0	0	0	0	0	0	0	0	0	0	0	0	0	0	0	0	0	0	0	0	0	0	0	0
072419	14:20:20	14:25:42	321281	5.0.10.0	5_exp_noRW	82	Rpleas_acq	CS_A	JQQJ	YFFY	ZHHZ	DXXD	CPPC	LWWL	träumen	küssen	vertrauen	genießen	gütig	sonnig	töten	krank	versagen	gemein	gierig	sterben	47pct	acq_USpleas_CSpleas1_noRW	acq23456_noRW	2	55	0	0	300	300	321	50	0	1	1	blank2r.bmp	0	1	+	0	1	blank2r.bmp	252	1	JQQJ	306	2	küssen	559	0	0	0	0	0	0	0	0	0	0	0	0	0	0	0	0	0	0	0	0	0	0	0	0	0	0	0	0	0	0	0	0	0	0	0	0	0	0	0
072419	14:20:20	14:25:44	322814	5.0.10.0	5_exp_noRW	82	Rpleas_acq	CS_A	JQQJ	YFFY	ZHHZ	DXXD	CPPC	LWWL	träumen	küssen	vertrauen	genießen	gütig	sonnig	töten	krank	versagen	gemein	gierig	sterben	53pct	acq_USunple_CSunple2_noRW	acq23456_noRW	2	56	0	0	300	300	355	46	0	1	1	blank2r.bmp	0	1	+	0	1	blank2r.bmp	252	1	DXXD	306	1	gemein	559	0	0	0	0	0	0	0	0	0	0	0	0	0	0	0	0	0	0	0	0	0	0	0	0	0	0	0	0	0	0	0	0	0	0	0	0	0	0	0
072419	14:20:20	14:25:46	324906	5.0.10.0	5_exp_noRW	82	Rpleas_acq	CS_A	JQQJ	YFFY	ZHHZ	DXXD	CPPC	LWWL	träumen	küssen	vertrauen	genießen	gütig	sonnig	töten	krank	versagen	gemein	gierig	sterben	53pct	acq_USpleas_CSpleas1_noRW	acq23456_noRW	2	57	0	0	300	300	914	50	0	1	1	blank2r.bmp	0	1	+	0	1	blank2r.bmp	252	1	JQQJ	306	2	küssen	559	0	0	0	0	0	0	0	0	0	0	0	0	0	0	0	0	0	0	0	0	0	0	0	0	0	0	0	0	0	0	0	0	0	0	0	0	0	0	0
072419	14:20:20	14:25:47	326585	5.0.10.0	5_exp_noRW	82	Rpleas_acq	CS_A	JQQJ	YFFY	ZHHZ	DXXD	CPPC	LWWL	träumen	küssen	vertrauen	genießen	gütig	sonnig	töten	krank	versagen	gemein	gierig	sterben	53pct	acq_USpleas_CSunple2_noRW	acq23456_noRW	2	58	0	0	300	300	511	50	0	1	1	blank2r.bmp	0	1	+	0	1	blank2r.bmp	252	1	DXXD	306	1	genießen	559	0	0	0	0	0	0	0	0	0	0	0	0	0	0	0	0	0	0	0	0	0	0	0	0	0	0	0	0	0	0	0	0	0	0	0	0	0	0	0
072419	14:20:20	14:25:49	328185	5.0.10.0	5_exp_noRW	82	Rpleas_acq	CS_A	JQQJ	YFFY	ZHHZ	DXXD	CPPC	LWWL	träumen	küssen	vertrauen	genießen	gütig	sonnig	töten	krank	versagen	gemein	gierig	sterben	47pct	acq_USunple_CSunple1_noRW	acq23456_noRW	2	59	0	0	300	300	423	46	0	1	1	blank2r.bmp	0	1	+	0	1	blank2r.bmp	252	1	ZHHZ	306	3	versagen	559	0	0	0	0	0	0	0	0	0	0	0	0	0	0	0	0	0	0	0	0	0	0	0	0	0	0	0	0	0	0	0	0	0	0	0	0	0	0	0
072419	14:20:20	14:25:51	329877	5.0.10.0	5_exp_noRW	82	Rpleas_acq	CS_A	JQQJ	YFFY	ZHHZ	DXXD	CPPC	LWWL	träumen	küssen	vertrauen	genießen	gütig	sonnig	töten	krank	versagen	gemein	gierig	sterben	53pct	acq_USpleas_CSpleas2_noRW	acq23456_noRW	2	60	0	0	300	300	514	50	0	1	1	blank2r.bmp	0	1	+	0	1	blank2r.bmp	252	1	YFFY	306	2	gütig	559	0	0	0	0	0	0	0	0	0	0	0	0	0	0	0	0	0	0	0	0	0	0	0	0	0	0	0	0	0	0	0	0	0	0	0	0	0	0	0
072419	14:20:20	14:25:52	331663	5.0.10.0	5_exp_noRW	82	Rpleas_acq	CS_A	JQQJ	YFFY	ZHHZ	DXXD	CPPC	LWWL	träumen	küssen	vertrauen	genießen	gütig	sonnig	töten	krank	versagen	gemein	gierig	sterben	53pct	acq_USpleas_CSunple1_noRW	acq23456_noRW	2	61	0	0	300	300	608	50	0	1	1	blank2r.bmp	0	1	+	0	1	blank2r.bmp	252	1	ZHHZ	306	1	träumen	559	0	0	0	0	0	0	0	0	0	0	0	0	0	0	0	0	0	0	0	0	0	0	0	0	0	0	0	0	0	0	0	0	0	0	0	0	0	0	0
072419	14:20:20	14:25:54	333449	5.0.10.0	5_exp_noRW	82	Rpleas_acq	CS_A	JQQJ	YFFY	ZHHZ	DXXD	CPPC	LWWL	träumen	küssen	vertrauen	genießen	gütig	sonnig	töten	krank	versagen	gemein	gierig	sterben	47pct	acq_USpleas_CSunple2_noRW	acq23456_noRW	2	62	0	0	300	300	599	50	0	1	1	blank2r.bmp	0	1	+	0	1	blank2r.bmp	252	1	DXXD	306	2	gütig	559	0	0	0	0	0	0	0	0	0	0	0	0	0	0	0	0	0	0	0	0	0	0	0	0	0	0	0	0	0	0	0	0	0	0	0	0	0	0	0
072419	14:20:20	14:25:56	335168	5.0.10.0	5_exp_noRW	82	Rpleas_acq	CS_A	JQQJ	YFFY	ZHHZ	DXXD	CPPC	LWWL	träumen	küssen	vertrauen	genießen	gütig	sonnig	töten	krank	versagen	gemein	gierig	sterben	53pct	acq_USpleas_CSpleas1_noRW	acq23456_noRW	2	63	0	0	300	300	556	50	0	1	1	blank2r.bmp	0	1	+	0	1	blank2r.bmp	252	1	JQQJ	306	3	vertrauen	559	0	0	0	0	0	0	0	0	0	0	0	0	0	0	0	0	0	0	0	0	0	0	0	0	0	0	0	0	0	0	0	0	0	0	0	0	0	0	0
072419	14:20:20	14:25:57	336741	5.0.10.0	5_exp_noRW	82	Rpleas_acq	CS_A	JQQJ	YFFY	ZHHZ	DXXD	CPPC	LWWL	träumen	küssen	vertrauen	genießen	gütig	sonnig	töten	krank	versagen	gemein	gierig	sterben	53pct	acq_USunple_CSunple1_noRW	acq23456_noRW	2	64	0	0	300	300	388	46	0	1	1	blank2r.bmp	0	1	+	0	1	blank2r.bmp	252	1	ZHHZ	306	1	töten	559	0	0	0	0	0	0	0	0	0	0	0	0	0	0	0	0	0	0	0	0	0	0	0	0	0	0	0	0	0	0	0	0	0	0	0	0	0	0	0
072419	14:20:20	14:25:59	338407	5.0.10.0	5_exp_noRW	82	Rpleas_acq	CS_A	JQQJ	YFFY	ZHHZ	DXXD	CPPC	LWWL	träumen	küssen	vertrauen	genießen	gütig	sonnig	töten	krank	versagen	gemein	gierig	sterben	53pct	acq_USpleas_CSpleas1_noRW	acq23456_noRW	2	65	0	0	300	300	482	50	0	1	1	blank2r.bmp	0	1	+	0	1	blank2r.bmp	252	1	JQQJ	306	1	träumen	559	0	0	0	0	0	0	0	0	0	0	0	0	0	0	0	0	0	0	0	0	0	0	0	0	0	0	0	0	0	0	0	0	0	0	0	0	0	0	0
072419	14:20:20	14:26:01	339993	5.0.10.0	5_exp_noRW	82	Rpleas_acq	CS_A	JQQJ	YFFY	ZHHZ	DXXD	CPPC	LWWL	träumen	küssen	vertrauen	genießen	gütig	sonnig	töten	krank	versagen	gemein	gierig	sterben	53pct	acq_USunple_CSpleas1_noRW	acq23456_noRW	2	66	0	0	300	300	417	46	0	1	1	blank2r.bmp	0	1	+	0	1	blank2r.bmp	252	1	JQQJ	306	3	versagen	559	0	0	0	0	0	0	0	0	0	0	0	0	0	0	0	0	0	0	0	0	0	0	0	0	0	0	0	0	0	0	0	0	0	0	0	0	0	0	0
072419	14:20:20	14:26:03	341886	5.0.10.0	5_exp_noRW	82	Rpleas_acq	CS_A	JQQJ	YFFY	ZHHZ	DXXD	CPPC	LWWL	träumen	küssen	vertrauen	genießen	gütig	sonnig	töten	krank	versagen	gemein	gierig	sterben	47pct	acq_USunple_CSunple1_noRW	acq23456_noRW	2	67	0	0	300	300	722	46	0	1	1	blank2r.bmp	0	1	+	0	1	blank2r.bmp	252	1	ZHHZ	306	2	krank	559	0	0	0	0	0	0	0	0	0	0	0	0	0	0	0	0	0	0	0	0	0	0	0	0	0	0	0	0	0	0	0	0	0	0	0	0	0	0	0
072419	14:20:20	14:26:04	343578	5.0.10.0	5_exp_noRW	82	Rpleas_acq	CS_A	JQQJ	YFFY	ZHHZ	DXXD	CPPC	LWWL	träumen	küssen	vertrauen	genießen	gütig	sonnig	töten	krank	versagen	gemein	gierig	sterben	53pct	acq_USunple_CSunple1_noRW	acq23456_noRW	2	68	0	0	300	300	521	46	0	1	1	blank2r.bmp	0	1	+	0	1	blank2r.bmp	252	1	ZHHZ	306	1	töten	559	0	0	0	0	0	0	0	0	0	0	0	0	0	0	0	0	0	0	0	0	0	0	0	0	0	0	0	0	0	0	0	0	0	0	0	0	0	0	0
072419	14:20:20	14:26:06	345164	5.0.10.0	5_exp_noRW	82	Rpleas_acq	CS_A	JQQJ	YFFY	ZHHZ	DXXD	CPPC	LWWL	träumen	küssen	vertrauen	genießen	gütig	sonnig	töten	krank	versagen	gemein	gierig	sterben	47pct	acq_USpleas_CSpleas2_noRW	acq23456_noRW	2	69	0	0	300	300	413	50	0	1	1	blank2r.bmp	0	1	+	0	1	blank2r.bmp	252	1	YFFY	306	3	sonnig	559	0	0	0	0	0	0	0	0	0	0	0	0	0	0	0	0	0	0	0	0	0	0	0	0	0	0	0	0	0	0	0	0	0	0	0	0	0	0	0
072419	14:20:20	14:26:08	346857	5.0.10.0	5_exp_noRW	82	Rpleas_acq	CS_A	JQQJ	YFFY	ZHHZ	DXXD	CPPC	LWWL	träumen	küssen	vertrauen	genießen	gütig	sonnig	töten	krank	versagen	gemein	gierig	sterben	53pct	acq_USpleas_CSpleas2_noRW	acq23456_noRW	2	70	0	0	300	300	528	50	0	1	1	blank2r.bmp	0	1	+	0	1	blank2r.bmp	252	1	YFFY	306	1	genießen	559	0	0	0	0	0	0	0	0	0	0	0	0	0	0	0	0	0	0	0	0	0	0	0	0	0	0	0	0	0	0	0	0	0	0	0	0	0	0	0
072419	14:20:20	14:26:09	348616	5.0.10.0	5_exp_noRW	82	Rpleas_acq	CS_A	JQQJ	YFFY	ZHHZ	DXXD	CPPC	LWWL	träumen	küssen	vertrauen	genießen	gütig	sonnig	töten	krank	versagen	gemein	gierig	sterben	53pct	acq_USpleas_CSpleas1_noRW	acq23456_noRW	2	71	0	0	300	300	368	46	0	0	1	blank2r.bmp	0	1	+	0	1	blank2r.bmp	252	1	JQQJ	306	3	vertrauen	559	1	FEHLER	959	0	0	0	0	0	0	0	0	0	0	0	0	0	0	0	0	0	0	0	0	0	0	0	0	0	0	0	0	0	0	0	0	0	0	0	0
072419	14:20:20	14:26:11	350056	5.0.10.0	5_exp_noRW	82	Rpleas_acq	CS_A	JQQJ	YFFY	ZHHZ	DXXD	CPPC	LWWL	träumen	küssen	vertrauen	genießen	gütig	sonnig	töten	krank	versagen	gemein	gierig	sterben	47pct	acq_USunple_CSunple2_noRW	acq23456_noRW	2	72	0	0	300	300	467	46	0	1	1	blank2r.bmp	0	1	+	0	1	blank2r.bmp	252	1	DXXD	306	2	gierig	559	0	0	0	0	0	0	0	0	0	0	0	0	0	0	0	0	0	0	0	0	0	0	0	0	0	0	0	0	0	0	0	0	0	0	0	0	0	0	0
072419	14:20:20	14:26:12	351695	5.0.10.0	5_exp_noRW	82	Rpleas_acq	CS_A	JQQJ	YFFY	ZHHZ	DXXD	CPPC	LWWL	träumen	küssen	vertrauen	genießen	gütig	sonnig	töten	krank	versagen	gemein	gierig	sterben	53pct	acq_USpleas_CSpleas2_noRW	acq23456_noRW	2	73	0	0	300	300	468	50	0	1	1	blank2r.bmp	0	1	+	0	1	blank2r.bmp	252	1	YFFY	306	3	sonnig	559	0	0	0	0	0	0	0	0	0	0	0	0	0	0	0	0	0	0	0	0	0	0	0	0	0	0	0	0	0	0	0	0	0	0	0	0	0	0	0
072419	14:20:20	14:26:14	353454	5.0.10.0	5_exp_noRW	82	Rpleas_acq	CS_A	JQQJ	YFFY	ZHHZ	DXXD	CPPC	LWWL	träumen	küssen	vertrauen	genießen	gütig	sonnig	töten	krank	versagen	gemein	gierig	sterben	47pct	acq_USpleas_CSpleas1_noRW	acq23456_noRW	2	74	0	0	300	300	586	50	0	1	1	blank2r.bmp	0	1	+	0	1	blank2r.bmp	252	1	JQQJ	306	1	träumen	559	0	0	0	0	0	0	0	0	0	0	0	0	0	0	0	0	0	0	0	0	0	0	0	0	0	0	0	0	0	0	0	0	0	0	0	0	0	0	0
072419	14:20:20	14:26:16	355254	5.0.10.0	5_exp_noRW	82	Rpleas_acq	CS_A	JQQJ	YFFY	ZHHZ	DXXD	CPPC	LWWL	träumen	küssen	vertrauen	genießen	gütig	sonnig	töten	krank	versagen	gemein	gierig	sterben	53pct	acq_USunple_CSunple2_noRW	acq23456_noRW	2	75	0	0	300	300	637	46	0	1	1	blank2r.bmp	0	1	+	0	1	blank2r.bmp	252	1	DXXD	306	3	sterben	559	0	0	0	0	0	0	0	0	0	0	0	0	0	0	0	0	0	0	0	0	0	0	0	0	0	0	0	0	0	0	0	0	0	0	0	0	0	0	0
072419	14:20:20	14:26:18	357279	5.0.10.0	5_exp_noRW	82	Rpleas_acq	CS_A	JQQJ	YFFY	ZHHZ	DXXD	CPPC	LWWL	träumen	küssen	vertrauen	genießen	gütig	sonnig	töten	krank	versagen	gemein	gierig	sterben	47pct	acq_USunple_CSunple2_noRW	acq23456_noRW	2	76	0	0	300	300	629	50	0	0	1	blank2r.bmp	0	1	+	0	1	blank2r.bmp	252	1	DXXD	306	2	gierig	559	1	FEHLER	1226	0	0	0	0	0	0	0	0	0	0	0	0	0	0	0	0	0	0	0	0	0	0	0	0	0	0	0	0	0	0	0	0	0	0	0	0
072419	14:20:20	14:26:20	358972	5.0.10.0	5_exp_noRW	82	Rpleas_acq	CS_A	JQQJ	YFFY	ZHHZ	DXXD	CPPC	LWWL	träumen	küssen	vertrauen	genießen	gütig	sonnig	töten	krank	versagen	gemein	gierig	sterben	47pct	acq_USunple_CSunple2_noRW	acq23456_noRW	2	77	0	0	300	300	723	46	0	1	1	blank2r.bmp	0	1	+	0	1	blank2r.bmp	252	1	DXXD	306	1	gemein	559	0	0	0	0	0	0	0	0	0	0	0	0	0	0	0	0	0	0	0	0	0	0	0	0	0	0	0	0	0	0	0	0	0	0	0	0	0	0	0
072419	14:20:20	14:26:21	360678	5.0.10.0	5_exp_noRW	82	Rpleas_acq	CS_A	JQQJ	YFFY	ZHHZ	DXXD	CPPC	LWWL	träumen	küssen	vertrauen	genießen	gütig	sonnig	töten	krank	versagen	gemein	gierig	sterben	53pct	acq_USunple_CSunple1_noRW	acq23456_noRW	2	78	0	0	300	300	522	46	0	1	1	blank2r.bmp	0	1	+	0	1	blank2r.bmp	252	1	ZHHZ	306	3	versagen	559	0	0	0	0	0	0	0	0	0	0	0	0	0	0	0	0	0	0	0	0	0	0	0	0	0	0	0	0	0	0	0	0	0	0	0	0	0	0	0
072419	14:20:20	14:26:23	362371	5.0.10.0	5_exp_noRW	82	Rpleas_acq	CS_A	JQQJ	YFFY	ZHHZ	DXXD	CPPC	LWWL	träumen	küssen	vertrauen	genießen	gütig	sonnig	töten	krank	versagen	gemein	gierig	sterben	47pct	acq_USunple_CSpleas2_noRW	acq23456_noRW	2	79	0	0	300	300	529	46	0	1	1	blank2r.bmp	0	1	+	0	1	blank2r.bmp	252	1	YFFY	306	2	gierig	559	0	0	0	0	0	0	0	0	0	0	0	0	0	0	0	0	0	0	0	0	0	0	0	0	0	0	0	0	0	0	0	0	0	0	0	0	0	0	0
072419	14:20:20	14:26:25	364050	5.0.10.0	5_exp_noRW	82	Rpleas_acq	CS_A	JQQJ	YFFY	ZHHZ	DXXD	CPPC	LWWL	träumen	küssen	vertrauen	genießen	gütig	sonnig	töten	krank	versagen	gemein	gierig	sterben	53pct	acq_USpleas_CSpleas2_noRW	acq23456_noRW	2	80	0	0	300	300	493	50	0	1	1	blank2r.bmp	0	1	+	0	1	blank2r.bmp	252	1	YFFY	306	2	gütig	559	0	0	0	0	0	0	0	0	0	0	0	0	0	0	0	0	0	0	0	0	0	0	0	0	0	0	0	0	0	0	0	0	0	0	0	0	0	0	0
072419	14:20:20	14:26:35	374112	5.0.10.0	5_exp_noRW	82	Rpleas_acq	CS_A	JQQJ	YFFY	ZHHZ	DXXD	CPPC	LWWL	träumen	küssen	vertrauen	genießen	gütig	sonnig	töten	krank	versagen	gemein	gierig	sterben	47pct	acq_USunple_CSunple1_noRW	acq23456_noRW	3	1	0	0	300	300	864	46	0	1	1	blank2r.bmp	0	1	+	0	1	blank2r.bmp	252	1	ZHHZ	306	2	krank	559	0	0	0	0	0	0	0	0	0	0	0	0	0	0	0	0	0	0	0	0	0	0	0	0	0	0	0	0	0	0	0	0	0	0	0	0	0	0	0
072419	14:20:20	14:26:36	375792	5.0.10.0	5_exp_noRW	82	Rpleas_acq	CS_A	JQQJ	YFFY	ZHHZ	DXXD	CPPC	LWWL	träumen	küssen	vertrauen	genießen	gütig	sonnig	töten	krank	versagen	gemein	gierig	sterben	47pct	acq_USpleas_CSpleas2_noRW	acq23456_noRW	3	2	0	0	300	300	499	50	0	1	1	blank2r.bmp	0	1	+	0	1	blank2r.bmp	252	1	YFFY	306	1	genießen	559	0	0	0	0	0	0	0	0	0	0	0	0	0	0	0	0	0	0	0	0	0	0	0	0	0	0	0	0	0	0	0	0	0	0	0	0	0	0	0
072419	14:20:20	14:26:38	377418	5.0.10.0	5_exp_noRW	82	Rpleas_acq	CS_A	JQQJ	YFFY	ZHHZ	DXXD	CPPC	LWWL	träumen	küssen	vertrauen	genießen	gütig	sonnig	töten	krank	versagen	gemein	gierig	sterben	53pct	acq_USunple_CSpleas2_noRW	acq23456_noRW	3	3	0	0	300	300	456	46	0	1	1	blank2r.bmp	0	1	+	0	1	blank2r.bmp	252	1	YFFY	306	1	gemein	559	0	0	0	0	0	0	0	0	0	0	0	0	0	0	0	0	0	0	0	0	0	0	0	0	0	0	0	0	0	0	0	0	0	0	0	0	0	0	0
072419	14:20:20	14:26:40	379017	5.0.10.0	5_exp_noRW	82	Rpleas_acq	CS_A	JQQJ	YFFY	ZHHZ	DXXD	CPPC	LWWL	träumen	küssen	vertrauen	genießen	gütig	sonnig	töten	krank	versagen	gemein	gierig	sterben	53pct	acq_USpleas_CSunple2_noRW	acq23456_noRW	3	4	0	0	300	300	437	50	0	1	1	blank2r.bmp	0	1	+	0	1	blank2r.bmp	252	1	DXXD	306	3	sonnig	559	0	0	0	0	0	0	0	0	0	0	0	0	0	0	0	0	0	0	0	0	0	0	0	0	0	0	0	0	0	0	0	0	0	0	0	0	0	0	0
072419	14:20:20	14:26:41	380683	5.0.10.0	5_exp_noRW	82	Rpleas_acq	CS_A	JQQJ	YFFY	ZHHZ	DXXD	CPPC	LWWL	träumen	küssen	vertrauen	genießen	gütig	sonnig	töten	krank	versagen	gemein	gierig	sterben	47pct	acq_USunple_CSunple2_noRW	acq23456_noRW	3	5	0	0	300	300	486	46	0	1	1	blank2r.bmp	0	1	+	0	1	blank2r.bmp	252	1	DXXD	306	3	sterben	559	0	0	0	0	0	0	0	0	0	0	0	0	0	0	0	0	0	0	0	0	0	0	0	0	0	0	0	0	0	0	0	0	0	0	0	0	0	0	0
072419	14:20:20	14:26:43	382389	5.0.10.0	5_exp_noRW	82	Rpleas_acq	CS_A	JQQJ	YFFY	ZHHZ	DXXD	CPPC	LWWL	träumen	küssen	vertrauen	genießen	gütig	sonnig	töten	krank	versagen	gemein	gierig	sterben	47pct	acq_USunple_CSunple1_noRW	acq23456_noRW	3	6	0	0	300	300	520	46	0	1	1	blank2r.bmp	0	1	+	0	1	blank2r.bmp	252	1	ZHHZ	306	1	töten	559	0	0	0	0	0	0	0	0	0	0	0	0	0	0	0	0	0	0	0	0	0	0	0	0	0	0	0	0	0	0	0	0	0	0	0	0	0	0	0
072419	14:20:20	14:26:45	384002	5.0.10.0	5_exp_noRW	82	Rpleas_acq	CS_A	JQQJ	YFFY	ZHHZ	DXXD	CPPC	LWWL	träumen	küssen	vertrauen	genießen	gütig	sonnig	töten	krank	versagen	gemein	gierig	sterben	47pct	acq_USpleas_CSpleas1_noRW	acq23456_noRW	3	7	0	0	300	300	435	50	0	1	1	blank2r.bmp	0	1	+	0	1	blank2r.bmp	252	1	JQQJ	306	2	küssen	559	0	0	0	0	0	0	0	0	0	0	0	0	0	0	0	0	0	0	0	0	0	0	0	0	0	0	0	0	0	0	0	0	0	0	0	0	0	0	0
072419	14:20:20	14:26:47	385828	5.0.10.0	5_exp_noRW	82	Rpleas_acq	CS_A	JQQJ	YFFY	ZHHZ	DXXD	CPPC	LWWL	träumen	küssen	vertrauen	genießen	gütig	sonnig	töten	krank	versagen	gemein	gierig	sterben	47pct	acq_USpleas_CSpleas1_noRW	acq23456_noRW	3	8	0	0	300	300	430	46	0	0	1	blank2r.bmp	0	1	+	0	1	blank2r.bmp	252	1	JQQJ	306	1	träumen	559	1	FEHLER	1026	0	0	0	0	0	0	0	0	0	0	0	0	0	0	0	0	0	0	0	0	0	0	0	0	0	0	0	0	0	0	0	0	0	0	0	0
072419	14:20:20	14:26:48	387334	5.0.10.0	5_exp_noRW	82	Rpleas_acq	CS_A	JQQJ	YFFY	ZHHZ	DXXD	CPPC	LWWL	träumen	küssen	vertrauen	genießen	gütig	sonnig	töten	krank	versagen	gemein	gierig	sterben	47pct	acq_USunple_CSunple2_noRW	acq23456_noRW	3	9	0	0	300	300	534	46	0	1	1	blank2r.bmp	0	1	+	0	1	blank2r.bmp	252	1	DXXD	306	1	gemein	559	0	0	0	0	0	0	0	0	0	0	0	0	0	0	0	0	0	0	0	0	0	0	0	0	0	0	0	0	0	0	0	0	0	0	0	0	0	0	0
072419	14:20:20	14:26:50	389000	5.0.10.0	5_exp_noRW	82	Rpleas_acq	CS_A	JQQJ	YFFY	ZHHZ	DXXD	CPPC	LWWL	träumen	küssen	vertrauen	genießen	gütig	sonnig	töten	krank	versagen	gemein	gierig	sterben	47pct	acq_USunple_CSpleas1_noRW	acq23456_noRW	3	10	0	0	300	300	483	46	0	1	1	blank2r.bmp	0	1	+	0	1	blank2r.bmp	252	1	JQQJ	306	2	krank	559	0	0	0	0	0	0	0	0	0	0	0	0	0	0	0	0	0	0	0	0	0	0	0	0	0	0	0	0	0	0	0	0	0	0	0	0	0	0	0
072419	14:20:20	14:26:51	390679	5.0.10.0	5_exp_noRW	82	Rpleas_acq	CS_A	JQQJ	YFFY	ZHHZ	DXXD	CPPC	LWWL	träumen	küssen	vertrauen	genießen	gütig	sonnig	töten	krank	versagen	gemein	gierig	sterben	47pct	acq_USpleas_CSpleas2_noRW	acq23456_noRW	3	11	0	0	300	300	496	50	0	1	1	blank2r.bmp	0	1	+	0	1	blank2r.bmp	252	1	YFFY	306	1	genießen	559	0	0	0	0	0	0	0	0	0	0	0	0	0	0	0	0	0	0	0	0	0	0	0	0	0	0	0	0	0	0	0	0	0	0	0	0	0	0	0
072419	14:20:20	14:26:53	392332	5.0.10.0	5_exp_noRW	82	Rpleas_acq	CS_A	JQQJ	YFFY	ZHHZ	DXXD	CPPC	LWWL	träumen	küssen	vertrauen	genießen	gütig	sonnig	töten	krank	versagen	gemein	gierig	sterben	53pct	acq_USpleas_CSpleas2_noRW	acq23456_noRW	3	12	0	0	300	300	488	50	0	1	1	blank2r.bmp	0	1	+	0	1	blank2r.bmp	252	1	YFFY	306	3	sonnig	559	0	0	0	0	0	0	0	0	0	0	0	0	0	0	0	0	0	0	0	0	0	0	0	0	0	0	0	0	0	0	0	0	0	0	0	0	0	0	0
072419	14:20:20	14:26:55	393998	5.0.10.0	5_exp_noRW	82	Rpleas_acq	CS_A	JQQJ	YFFY	ZHHZ	DXXD	CPPC	LWWL	träumen	küssen	vertrauen	genießen	gütig	sonnig	töten	krank	versagen	gemein	gierig	sterben	53pct	acq_USunple_CSunple1_noRW	acq23456_noRW	3	13	0	0	300	300	480	46	0	1	1	blank2r.bmp	0	1	+	0	1	blank2r.bmp	252	1	ZHHZ	306	3	versagen	559	0	0	0	0	0	0	0	0	0	0	0	0	0	0	0	0	0	0	0	0	0	0	0	0	0	0	0	0	0	0	0	0	0	0	0	0	0	0	0
072419	14:20:20	14:26:57	395810	5.0.10.0	5_exp_noRW	82	Rpleas_acq	CS_A	JQQJ	YFFY	ZHHZ	DXXD	CPPC	LWWL	träumen	küssen	vertrauen	genießen	gütig	sonnig	töten	krank	versagen	gemein	gierig	sterben	47pct	acq_USunple_CSunple2_noRW	acq23456_noRW	3	14	0	0	300	300	427	50	0	0	1	blank2r.bmp	0	1	+	0	1	blank2r.bmp	252	1	DXXD	306	3	sterben	559	1	FEHLER	1026	0	0	0	0	0	0	0	0	0	0	0	0	0	0	0	0	0	0	0	0	0	0	0	0	0	0	0	0	0	0	0	0	0	0	0	0
072419	14:20:20	14:26:58	397210	5.0.10.0	5_exp_noRW	82	Rpleas_acq	CS_A	JQQJ	YFFY	ZHHZ	DXXD	CPPC	LWWL	träumen	küssen	vertrauen	genießen	gütig	sonnig	töten	krank	versagen	gemein	gierig	sterben	47pct	acq_USunple_CSunple1_noRW	acq23456_noRW	3	15	0	0	300	300	441	46	0	1	1	blank2r.bmp	0	1	+	0	1	blank2r.bmp	252	1	ZHHZ	306	2	krank	559	0	0	0	0	0	0	0	0	0	0	0	0	0	0	0	0	0	0	0	0	0	0	0	0	0	0	0	0	0	0	0	0	0	0	0	0	0	0	0
072419	14:20:20	14:27:00	398889	5.0.10.0	5_exp_noRW	82	Rpleas_acq	CS_A	JQQJ	YFFY	ZHHZ	DXXD	CPPC	LWWL	träumen	küssen	vertrauen	genießen	gütig	sonnig	töten	krank	versagen	gemein	gierig	sterben	53pct	acq_USpleas_CSpleas1_noRW	acq23456_noRW	3	16	0	0	300	300	500	50	0	1	1	blank2r.bmp	0	1	+	0	1	blank2r.bmp	252	1	JQQJ	306	2	küssen	559	0	0	0	0	0	0	0	0	0	0	0	0	0	0	0	0	0	0	0	0	0	0	0	0	0	0	0	0	0	0	0	0	0	0	0	0	0	0	0
072419	14:20:20	14:27:01	400715	5.0.10.0	5_exp_noRW	82	Rpleas_acq	CS_A	JQQJ	YFFY	ZHHZ	DXXD	CPPC	LWWL	träumen	küssen	vertrauen	genießen	gütig	sonnig	töten	krank	versagen	gemein	gierig	sterben	53pct	acq_USpleas_CSunple1_noRW	acq23456_noRW	3	17	0	0	300	300	647	50	0	1	1	blank2r.bmp	0	1	+	0	1	blank2r.bmp	252	1	ZHHZ	306	3	vertrauen	559	0	0	0	0	0	0	0	0	0	0	0	0	0	0	0	0	0	0	0	0	0	0	0	0	0	0	0	0	0	0	0	0	0	0	0	0	0	0	0
072419	14:20:20	14:27:03	402527	5.0.10.0	5_exp_noRW	82	Rpleas_acq	CS_A	JQQJ	YFFY	ZHHZ	DXXD	CPPC	LWWL	träumen	küssen	vertrauen	genießen	gütig	sonnig	töten	krank	versagen	gemein	gierig	sterben	47pct	acq_USpleas_CSpleas1_noRW	acq23456_noRW	3	18	0	0	300	300	625	50	0	1	1	blank2r.bmp	0	1	+	0	1	blank2r.bmp	252	1	JQQJ	306	3	vertrauen	559	0	0	0	0	0	0	0	0	0	0	0	0	0	0	0	0	0	0	0	0	0	0	0	0	0	0	0	0	0	0	0	0	0	0	0	0	0	0	0
072419	14:20:20	14:27:05	404260	5.0.10.0	5_exp_noRW	82	Rpleas_acq	CS_A	JQQJ	YFFY	ZHHZ	DXXD	CPPC	LWWL	träumen	küssen	vertrauen	genießen	gütig	sonnig	töten	krank	versagen	gemein	gierig	sterben	53pct	acq_USunple_CSunple2_noRW	acq23456_noRW	3	19	0	0	300	300	576	46	0	1	1	blank2r.bmp	0	1	+	0	1	blank2r.bmp	252	1	DXXD	306	2	gierig	559	0	0	0	0	0	0	0	0	0	0	0	0	0	0	0	0	0	0	0	0	0	0	0	0	0	0	0	0	0	0	0	0	0	0	0	0	0	0	0
072419	14:20:20	14:27:07	405953	5.0.10.0	5_exp_noRW	82	Rpleas_acq	CS_A	JQQJ	YFFY	ZHHZ	DXXD	CPPC	LWWL	träumen	küssen	vertrauen	genießen	gütig	sonnig	töten	krank	versagen	gemein	gierig	sterben	53pct	acq_USpleas_CSpleas2_noRW	acq23456_noRW	3	20	0	0	300	300	510	50	0	1	1	blank2r.bmp	0	1	+	0	1	blank2r.bmp	252	1	YFFY	306	2	gütig	559	0	0	0	0	0	0	0	0	0	0	0	0	0	0	0	0	0	0	0	0	0	0	0	0	0	0	0	0	0	0	0	0	0	0	0	0	0	0	0
072419	14:20:20	14:27:09	407819	5.0.10.0	5_exp_noRW	82	Rpleas_acq	CS_A	JQQJ	YFFY	ZHHZ	DXXD	CPPC	LWWL	träumen	küssen	vertrauen	genießen	gütig	sonnig	töten	krank	versagen	gemein	gierig	sterben	47pct	acq_USunple_CSunple2_noRW	acq23456_noRW	3	21	0	0	300	300	692	46	0	1	1	blank2r.bmp	0	1	+	0	1	blank2r.bmp	252	1	DXXD	306	1	gemein	559	0	0	0	0	0	0	0	0	0	0	0	0	0	0	0	0	0	0	0	0	0	0	0	0	0	0	0	0	0	0	0	0	0	0	0	0	0	0	0
072419	14:20:20	14:27:10	409445	5.0.10.0	5_exp_noRW	82	Rpleas_acq	CS_A	JQQJ	YFFY	ZHHZ	DXXD	CPPC	LWWL	träumen	küssen	vertrauen	genießen	gütig	sonnig	töten	krank	versagen	gemein	gierig	sterben	47pct	acq_USpleas_CSunple2_noRW	acq23456_noRW	3	22	0	0	300	300	459	50	0	1	1	blank2r.bmp	0	1	+	0	1	blank2r.bmp	252	1	DXXD	306	1	genießen	559	0	0	0	0	0	0	0	0	0	0	0	0	0	0	0	0	0	0	0	0	0	0	0	0	0	0	0	0	0	0	0	0	0	0	0	0	0	0	0
072419	14:20:20	14:27:12	411084	5.0.10.0	5_exp_noRW	82	Rpleas_acq	CS_A	JQQJ	YFFY	ZHHZ	DXXD	CPPC	LWWL	träumen	küssen	vertrauen	genießen	gütig	sonnig	töten	krank	versagen	gemein	gierig	sterben	47pct	acq_USpleas_CSunple1_noRW	acq23456_noRW	3	23	0	0	300	300	476	50	0	1	1	blank2r.bmp	0	1	+	0	1	blank2r.bmp	252	1	ZHHZ	306	3	vertrauen	559	0	0	0	0	0	0	0	0	0	0	0	0	0	0	0	0	0	0	0	0	0	0	0	0	0	0	0	0	0	0	0	0	0	0	0	0	0	0	0
072419	14:20:20	14:27:14	413256	5.0.10.0	5_exp_noRW	82	Rpleas_acq	CS_A	JQQJ	YFFY	ZHHZ	DXXD	CPPC	LWWL	träumen	küssen	vertrauen	genießen	gütig	sonnig	töten	krank	versagen	gemein	gierig	sterben	53pct	acq_USunple_CSunple2_noRW	acq23456_noRW	3	24	0	0	300	300	780	50	0	0	1	blank2r.bmp	0	1	+	0	1	blank2r.bmp	252	1	DXXD	306	2	gierig	559	1	FEHLER	1372	0	0	0	0	0	0	0	0	0	0	0	0	0	0	0	0	0	0	0	0	0	0	0	0	0	0	0	0	0	0	0	0	0	0	0	0
072419	14:20:20	14:27:15	414736	5.0.10.0	5_exp_noRW	82	Rpleas_acq	CS_A	JQQJ	YFFY	ZHHZ	DXXD	CPPC	LWWL	träumen	küssen	vertrauen	genießen	gütig	sonnig	töten	krank	versagen	gemein	gierig	sterben	47pct	acq_USpleas_CSpleas1_noRW	acq23456_noRW	3	25	0	0	300	300	292	46	0	0	1	blank2r.bmp	0	1	+	0	1	blank2r.bmp	252	1	JQQJ	306	2	küssen	559	1	FEHLER	892	0	0	0	0	0	0	0	0	0	0	0	0	0	0	0	0	0	0	0	0	0	0	0	0	0	0	0	0	0	0	0	0	0	0	0	0
072419	14:20:20	14:27:17	416255	5.0.10.0	5_exp_noRW	82	Rpleas_acq	CS_A	JQQJ	YFFY	ZHHZ	DXXD	CPPC	LWWL	träumen	küssen	vertrauen	genießen	gütig	sonnig	töten	krank	versagen	gemein	gierig	sterben	47pct	acq_USunple_CSunple1_noRW	acq23456_noRW	3	26	0	0	300	300	560	46	0	1	1	blank2r.bmp	0	1	+	0	1	blank2r.bmp	252	1	ZHHZ	306	2	krank	559	0	0	0	0	0	0	0	0	0	0	0	0	0	0	0	0	0	0	0	0	0	0	0	0	0	0	0	0	0	0	0	0	0	0	0	0	0	0	0
072419	14:20:20	14:27:19	418014	5.0.10.0	5_exp_noRW	82	Rpleas_acq	CS_A	JQQJ	YFFY	ZHHZ	DXXD	CPPC	LWWL	träumen	küssen	vertrauen	genießen	gütig	sonnig	töten	krank	versagen	gemein	gierig	sterben	47pct	acq_USpleas_CSpleas1_noRW	acq23456_noRW	3	27	0	0	300	300	370	46	0	0	1	blank2r.bmp	0	1	+	0	1	blank2r.bmp	252	1	JQQJ	306	1	träumen	559	1	FEHLER	959	0	0	0	0	0	0	0	0	0	0	0	0	0	0	0	0	0	0	0	0	0	0	0	0	0	0	0	0	0	0	0	0	0	0	0	0
072419	14:20:20	14:27:20	419654	5.0.10.0	5_exp_noRW	82	Rpleas_acq	CS_A	JQQJ	YFFY	ZHHZ	DXXD	CPPC	LWWL	träumen	küssen	vertrauen	genießen	gütig	sonnig	töten	krank	versagen	gemein	gierig	sterben	47pct	acq_USunple_CSunple1_noRW	acq23456_noRW	3	28	0	0	300	300	665	46	0	1	1	blank2r.bmp	0	1	+	0	1	blank2r.bmp	252	1	ZHHZ	306	3	versagen	559	0	0	0	0	0	0	0	0	0	0	0	0	0	0	0	0	0	0	0	0	0	0	0	0	0	0	0	0	0	0	0	0	0	0	0	0	0	0	0
072419	14:20:20	14:27:22	421346	5.0.10.0	5_exp_noRW	82	Rpleas_acq	CS_A	JQQJ	YFFY	ZHHZ	DXXD	CPPC	LWWL	träumen	küssen	vertrauen	genießen	gütig	sonnig	töten	krank	versagen	gemein	gierig	sterben	53pct	acq_USunple_CSpleas1_noRW	acq23456_noRW	3	29	0	0	300	300	521	46	0	1	1	blank2r.bmp	0	1	+	0	1	blank2r.bmp	252	1	JQQJ	306	1	töten	559	0	0	0	0	0	0	0	0	0	0	0	0	0	0	0	0	0	0	0	0	0	0	0	0	0	0	0	0	0	0	0	0	0	0	0	0	0	0	0
072419	14:20:20	14:27:24	423026	5.0.10.0	5_exp_noRW	82	Rpleas_acq	CS_A	JQQJ	YFFY	ZHHZ	DXXD	CPPC	LWWL	träumen	küssen	vertrauen	genießen	gütig	sonnig	töten	krank	versagen	gemein	gierig	sterben	53pct	acq_USpleas_CSpleas2_noRW	acq23456_noRW	3	30	0	0	300	300	505	50	0	1	1	blank2r.bmp	0	1	+	0	1	blank2r.bmp	252	1	YFFY	306	3	sonnig	559	0	0	0	0	0	0	0	0	0	0	0	0	0	0	0	0	0	0	0	0	0	0	0	0	0	0	0	0	0	0	0	0	0	0	0	0	0	0	0
072419	14:20:20	14:27:25	424718	5.0.10.0	5_exp_noRW	82	Rpleas_acq	CS_A	JQQJ	YFFY	ZHHZ	DXXD	CPPC	LWWL	träumen	küssen	vertrauen	genießen	gütig	sonnig	töten	krank	versagen	gemein	gierig	sterben	47pct	acq_USpleas_CSpleas1_noRW	acq23456_noRW	3	31	0	0	300	300	506	50	0	1	1	blank2r.bmp	0	1	+	0	1	blank2r.bmp	252	1	JQQJ	306	3	vertrauen	559	0	0	0	0	0	0	0	0	0	0	0	0	0	0	0	0	0	0	0	0	0	0	0	0	0	0	0	0	0	0	0	0	0	0	0	0	0	0	0
072419	14:20:20	14:27:27	426331	5.0.10.0	5_exp_noRW	82	Rpleas_acq	CS_A	JQQJ	YFFY	ZHHZ	DXXD	CPPC	LWWL	träumen	küssen	vertrauen	genießen	gütig	sonnig	töten	krank	versagen	gemein	gierig	sterben	47pct	acq_USunple_CSunple1_noRW	acq23456_noRW	3	32	0	0	300	300	443	46	0	1	1	blank2r.bmp	0	1	+	0	1	blank2r.bmp	252	1	ZHHZ	306	1	töten	559	0	0	0	0	0	0	0	0	0	0	0	0	0	0	0	0	0	0	0	0	0	0	0	0	0	0	0	0	0	0	0	0	0	0	0	0	0	0	0
072419	14:20:20	14:27:29	427944	5.0.10.0	5_exp_noRW	82	Rpleas_acq	CS_A	JQQJ	YFFY	ZHHZ	DXXD	CPPC	LWWL	träumen	küssen	vertrauen	genießen	gütig	sonnig	töten	krank	versagen	gemein	gierig	sterben	47pct	acq_USunple_CSunple2_noRW	acq23456_noRW	3	33	0	0	300	300	432	46	0	1	1	blank2r.bmp	0	1	+	0	1	blank2r.bmp	252	1	DXXD	306	3	sterben	559	0	0	0	0	0	0	0	0	0	0	0	0	0	0	0	0	0	0	0	0	0	0	0	0	0	0	0	0	0	0	0	0	0	0	0	0	0	0	0
072419	14:20:20	14:27:30	429516	5.0.10.0	5_exp_noRW	82	Rpleas_acq	CS_A	JQQJ	YFFY	ZHHZ	DXXD	CPPC	LWWL	träumen	küssen	vertrauen	genießen	gütig	sonnig	töten	krank	versagen	gemein	gierig	sterben	47pct	acq_USunple_CSunple1_noRW	acq23456_noRW	3	34	0	0	300	300	403	46	0	1	1	blank2r.bmp	0	1	+	0	1	blank2r.bmp	252	1	ZHHZ	306	1	töten	559	0	0	0	0	0	0	0	0	0	0	0	0	0	0	0	0	0	0	0	0	0	0	0	0	0	0	0	0	0	0	0	0	0	0	0	0	0	0	0
072419	14:20:20	14:27:32	431116	5.0.10.0	5_exp_noRW	82	Rpleas_acq	CS_A	JQQJ	YFFY	ZHHZ	DXXD	CPPC	LWWL	träumen	küssen	vertrauen	genießen	gütig	sonnig	töten	krank	versagen	gemein	gierig	sterben	47pct	acq_USunple_CSpleas2_noRW	acq23456_noRW	3	35	0	0	300	300	423	46	0	1	1	blank2r.bmp	0	1	+	0	1	blank2r.bmp	252	1	YFFY	306	1	gemein	559	0	0	0	0	0	0	0	0	0	0	0	0	0	0	0	0	0	0	0	0	0	0	0	0	0	0	0	0	0	0	0	0	0	0	0	0	0	0	0
072419	14:20:20	14:27:33	432648	5.0.10.0	5_exp_noRW	82	Rpleas_acq	CS_A	JQQJ	YFFY	ZHHZ	DXXD	CPPC	LWWL	träumen	küssen	vertrauen	genießen	gütig	sonnig	töten	krank	versagen	gemein	gierig	sterben	47pct	acq_USpleas_CSpleas1_noRW	acq23456_noRW	3	36	0	0	300	300	357	50	0	1	1	blank2r.bmp	0	1	+	0	1	blank2r.bmp	252	1	JQQJ	306	2	küssen	559	0	0	0	0	0	0	0	0	0	0	0	0	0	0	0	0	0	0	0	0	0	0	0	0	0	0	0	0	0	0	0	0	0	0	0	0	0	0	0
072419	14:20:20	14:27:35	434581	5.0.10.0	5_exp_noRW	82	Rpleas_acq	CS_A	JQQJ	YFFY	ZHHZ	DXXD	CPPC	LWWL	träumen	küssen	vertrauen	genießen	gütig	sonnig	töten	krank	versagen	gemein	gierig	sterben	53pct	acq_USpleas_CSpleas2_noRW	acq23456_noRW	3	37	0	0	300	300	757	50	0	1	1	blank2r.bmp	0	1	+	0	1	blank2r.bmp	252	1	YFFY	306	2	gütig	559	0	0	0	0	0	0	0	0	0	0	0	0	0	0	0	0	0	0	0	0	0	0	0	0	0	0	0	0	0	0	0	0	0	0	0	0	0	0	0
072419	14:20:20	14:27:37	436247	5.0.10.0	5_exp_noRW	82	Rpleas_acq	CS_A	JQQJ	YFFY	ZHHZ	DXXD	CPPC	LWWL	träumen	küssen	vertrauen	genießen	gütig	sonnig	töten	krank	versagen	gemein	gierig	sterben	47pct	acq_USpleas_CSpleas2_noRW	acq23456_noRW	3	38	0	0	300	300	485	50	0	1	1	blank2r.bmp	0	1	+	0	1	blank2r.bmp	252	1	YFFY	306	1	genießen	559	0	0	0	0	0	0	0	0	0	0	0	0	0	0	0	0	0	0	0	0	0	0	0	0	0	0	0	0	0	0	0	0	0	0	0	0	0	0	0
072419	14:20:20	14:27:39	438006	5.0.10.0	5_exp_noRW	82	Rpleas_acq	CS_A	JQQJ	YFFY	ZHHZ	DXXD	CPPC	LWWL	träumen	küssen	vertrauen	genießen	gütig	sonnig	töten	krank	versagen	gemein	gierig	sterben	47pct	acq_USpleas_CSpleas2_noRW	acq23456_noRW	3	39	0	0	300	300	595	50	0	1	1	blank2r.bmp	0	1	+	0	1	blank2r.bmp	252	1	YFFY	306	2	gütig	559	0	0	0	0	0	0	0	0	0	0	0	0	0	0	0	0	0	0	0	0	0	0	0	0	0	0	0	0	0	0	0	0	0	0	0	0	0	0	0
072419	14:20:20	14:27:41	439845	5.0.10.0	5_exp_noRW	82	Rpleas_acq	CS_A	JQQJ	YFFY	ZHHZ	DXXD	CPPC	LWWL	träumen	küssen	vertrauen	genießen	gütig	sonnig	töten	krank	versagen	gemein	gierig	sterben	53pct	acq_USunple_CSunple2_noRW	acq23456_noRW	3	40	0	0	300	300	665	46	0	1	1	blank2r.bmp	0	1	+	0	1	blank2r.bmp	252	1	DXXD	306	2	gierig	559	0	0	0	0	0	0	0	0	0	0	0	0	0	0	0	0	0	0	0	0	0	0	0	0	0	0	0	0	0	0	0	0	0	0	0	0	0	0	0
072419	14:20:20	14:27:42	441618	5.0.10.0	5_exp_noRW	82	Rpleas_acq	CS_A	JQQJ	YFFY	ZHHZ	DXXD	CPPC	LWWL	träumen	küssen	vertrauen	genießen	gütig	sonnig	töten	krank	versagen	gemein	gierig	sterben	47pct	acq_USpleas_CSunple1_noRW	acq23456_noRW	3	41	0	0	300	300	604	50	0	1	1	blank2r.bmp	0	1	+	0	1	blank2r.bmp	252	1	ZHHZ	306	1	träumen	559	0	0	0	0	0	0	0	0	0	0	0	0	0	0	0	0	0	0	0	0	0	0	0	0	0	0	0	0	0	0	0	0	0	0	0	0	0	0	0
072419	14:20:20	14:27:44	443297	5.0.10.0	5_exp_noRW	82	Rpleas_acq	CS_A	JQQJ	YFFY	ZHHZ	DXXD	CPPC	LWWL	träumen	küssen	vertrauen	genießen	gütig	sonnig	töten	krank	versagen	gemein	gierig	sterben	47pct	acq_USunple_CSunple1_noRW	acq23456_noRW	3	42	0	0	300	300	500	46	0	1	1	blank2r.bmp	0	1	+	0	1	blank2r.bmp	252	1	ZHHZ	306	3	versagen	559	0	0	0	0	0	0	0	0	0	0	0	0	0	0	0	0	0	0	0	0	0	0	0	0	0	0	0	0	0	0	0	0	0	0	0	0	0	0	0
072419	14:20:20	14:27:46	444937	5.0.10.0	5_exp_noRW	82	Rpleas_acq	CS_A	JQQJ	YFFY	ZHHZ	DXXD	CPPC	LWWL	träumen	küssen	vertrauen	genießen	gütig	sonnig	töten	krank	versagen	gemein	gierig	sterben	47pct	acq_USpleas_CSpleas2_noRW	acq23456_noRW	3	43	0	0	300	300	470	50	0	1	1	blank2r.bmp	0	1	+	0	1	blank2r.bmp	252	1	YFFY	306	3	sonnig	559	0	0	0	0	0	0	0	0	0	0	0	0	0	0	0	0	0	0	0	0	0	0	0	0	0	0	0	0	0	0	0	0	0	0	0	0	0	0	0
072419	14:20:20	14:27:47	446576	5.0.10.0	5_exp_noRW	82	Rpleas_acq	CS_A	JQQJ	YFFY	ZHHZ	DXXD	CPPC	LWWL	träumen	küssen	vertrauen	genießen	gütig	sonnig	töten	krank	versagen	gemein	gierig	sterben	53pct	acq_USpleas_CSpleas2_noRW	acq23456_noRW	3	44	0	0	300	300	471	50	0	1	1	blank2r.bmp	0	1	+	0	1	blank2r.bmp	252	1	YFFY	306	1	genießen	559	0	0	0	0	0	0	0	0	0	0	0	0	0	0	0	0	0	0	0	0	0	0	0	0	0	0	0	0	0	0	0	0	0	0	0	0	0	0	0
072419	14:20:20	14:27:49	448149	5.0.10.0	5_exp_noRW	82	Rpleas_acq	CS_A	JQQJ	YFFY	ZHHZ	DXXD	CPPC	LWWL	träumen	küssen	vertrauen	genießen	gütig	sonnig	töten	krank	versagen	gemein	gierig	sterben	53pct	acq_USpleas_CSpleas1_noRW	acq23456_noRW	3	45	0	0	300	300	394	50	0	1	1	blank2r.bmp	0	1	+	0	1	blank2r.bmp	252	1	JQQJ	306	3	vertrauen	559	0	0	0	0	0	0	0	0	0	0	0	0	0	0	0	0	0	0	0	0	0	0	0	0	0	0	0	0	0	0	0	0	0	0	0	0	0	0	0
072419	14:20:20	14:27:51	449828	5.0.10.0	5_exp_noRW	82	Rpleas_acq	CS_A	JQQJ	YFFY	ZHHZ	DXXD	CPPC	LWWL	träumen	küssen	vertrauen	genießen	gütig	sonnig	töten	krank	versagen	gemein	gierig	sterben	53pct	acq_USpleas_CSpleas2_noRW	acq23456_noRW	3	46	0	0	300	300	502	50	0	1	1	blank2r.bmp	0	1	+	0	1	blank2r.bmp	252	1	YFFY	306	2	gütig	559	0	0	0	0	0	0	0	0	0	0	0	0	0	0	0	0	0	0	0	0	0	0	0	0	0	0	0	0	0	0	0	0	0	0	0	0	0	0	0
072419	14:20:20	14:27:52	451547	5.0.10.0	5_exp_noRW	82	Rpleas_acq	CS_A	JQQJ	YFFY	ZHHZ	DXXD	CPPC	LWWL	träumen	küssen	vertrauen	genießen	gütig	sonnig	töten	krank	versagen	gemein	gierig	sterben	53pct	acq_USunple_CSunple2_noRW	acq23456_noRW	3	47	0	0	300	300	539	46	0	1	1	blank2r.bmp	0	1	+	0	1	blank2r.bmp	252	1	DXXD	306	3	sterben	559	0	0	0	0	0	0	0	0	0	0	0	0	0	0	0	0	0	0	0	0	0	0	0	0	0	0	0	0	0	0	0	0	0	0	0	0	0	0	0
072419	14:20:20	14:27:54	453253	5.0.10.0	5_exp_noRW	82	Rpleas_acq	CS_A	JQQJ	YFFY	ZHHZ	DXXD	CPPC	LWWL	träumen	küssen	vertrauen	genießen	gütig	sonnig	töten	krank	versagen	gemein	gierig	sterben	53pct	acq_USpleas_CSunple2_noRW	acq23456_noRW	3	48	0	0	300	300	534	50	0	1	1	blank2r.bmp	0	1	+	0	1	blank2r.bmp	252	1	DXXD	306	2	gütig	559	0	0	0	0	0	0	0	0	0	0	0	0	0	0	0	0	0	0	0	0	0	0	0	0	0	0	0	0	0	0	0	0	0	0	0	0	0	0	0
072419	14:20:20	14:27:56	455252	5.0.10.0	5_exp_noRW	82	Rpleas_acq	CS_A	JQQJ	YFFY	ZHHZ	DXXD	CPPC	LWWL	träumen	küssen	vertrauen	genießen	gütig	sonnig	töten	krank	versagen	gemein	gierig	sterben	53pct	acq_USunple_CSpleas2_noRW	acq23456_noRW	3	49	0	0	300	300	617	50	0	0	1	blank2r.bmp	0	1	+	0	1	blank2r.bmp	252	1	YFFY	306	2	gierig	559	1	FEHLER	1212	0	0	0	0	0	0	0	0	0	0	0	0	0	0	0	0	0	0	0	0	0	0	0	0	0	0	0	0	0	0	0	0	0	0	0	0
072419	14:20:20	14:27:57	456758	5.0.10.0	5_exp_noRW	82	Rpleas_acq	CS_A	JQQJ	YFFY	ZHHZ	DXXD	CPPC	LWWL	träumen	küssen	vertrauen	genießen	gütig	sonnig	töten	krank	versagen	gemein	gierig	sterben	53pct	acq_USunple_CSunple1_noRW	acq23456_noRW	3	50	0	0	300	300	546	46	0	1	1	blank2r.bmp	0	1	+	0	1	blank2r.bmp	252	1	ZHHZ	306	2	krank	559	0	0	0	0	0	0	0	0	0	0	0	0	0	0	0	0	0	0	0	0	0	0	0	0	0	0	0	0	0	0	0	0	0	0	0	0	0	0	0
072419	14:20:20	14:27:59	458424	5.0.10.0	5_exp_noRW	82	Rpleas_acq	CS_A	JQQJ	YFFY	ZHHZ	DXXD	CPPC	LWWL	träumen	küssen	vertrauen	genießen	gütig	sonnig	töten	krank	versagen	gemein	gierig	sterben	47pct	acq_USunple_CSunple2_noRW	acq23456_noRW	3	51	0	0	300	300	500	46	0	1	1	blank2r.bmp	0	1	+	0	1	blank2r.bmp	252	1	DXXD	306	1	gemein	559	0	0	0	0	0	0	0	0	0	0	0	0	0	0	0	0	0	0	0	0	0	0	0	0	0	0	0	0	0	0	0	0	0	0	0	0	0	0	0
072419	14:20:20	14:28:01	460077	5.0.10.0	5_exp_noRW	82	Rpleas_acq	CS_A	JQQJ	YFFY	ZHHZ	DXXD	CPPC	LWWL	träumen	küssen	vertrauen	genießen	gütig	sonnig	töten	krank	versagen	gemein	gierig	sterben	53pct	acq_USpleas_CSpleas2_noRW	acq23456_noRW	3	52	0	0	300	300	479	50	0	1	1	blank2r.bmp	0	1	+	0	1	blank2r.bmp	252	1	YFFY	306	1	genießen	559	0	0	0	0	0	0	0	0	0	0	0	0	0	0	0	0	0	0	0	0	0	0	0	0	0	0	0	0	0	0	0	0	0	0	0	0	0	0	0
072419	14:20:20	14:28:03	461930	5.0.10.0	5_exp_noRW	82	Rpleas_acq	CS_A	JQQJ	YFFY	ZHHZ	DXXD	CPPC	LWWL	träumen	küssen	vertrauen	genießen	gütig	sonnig	töten	krank	versagen	gemein	gierig	sterben	47pct	acq_USpleas_CSpleas1_noRW	acq23456_noRW	3	53	0	0	300	300	669	50	0	1	1	blank2r.bmp	0	1	+	0	1	blank2r.bmp	252	1	JQQJ	306	1	träumen	559	0	0	0	0	0	0	0	0	0	0	0	0	0	0	0	0	0	0	0	0	0	0	0	0	0	0	0	0	0	0	0	0	0	0	0	0	0	0	0
072419	14:20:20	14:28:04	463582	5.0.10.0	5_exp_noRW	82	Rpleas_acq	CS_A	JQQJ	YFFY	ZHHZ	DXXD	CPPC	LWWL	träumen	küssen	vertrauen	genießen	gütig	sonnig	töten	krank	versagen	gemein	gierig	sterben	53pct	acq_USpleas_CSpleas1_noRW	acq23456_noRW	3	54	0	0	300	300	470	50	0	1	1	blank2r.bmp	0	1	+	0	1	blank2r.bmp	252	1	JQQJ	306	2	küssen	559	0	0	0	0	0	0	0	0	0	0	0	0	0	0	0	0	0	0	0	0	0	0	0	0	0	0	0	0	0	0	0	0	0	0	0	0	0	0	0
072419	14:20:20	14:28:06	465248	5.0.10.0	5_exp_noRW	82	Rpleas_acq	CS_A	JQQJ	YFFY	ZHHZ	DXXD	CPPC	LWWL	träumen	küssen	vertrauen	genießen	gütig	sonnig	töten	krank	versagen	gemein	gierig	sterben	53pct	acq_USunple_CSpleas1_noRW	acq23456_noRW	3	55	0	0	300	300	484	46	0	1	1	blank2r.bmp	0	1	+	0	1	blank2r.bmp	252	1	JQQJ	306	2	krank	559	0	0	0	0	0	0	0	0	0	0	0	0	0	0	0	0	0	0	0	0	0	0	0	0	0	0	0	0	0	0	0	0	0	0	0	0	0	0	0
072419	14:20:20	14:28:08	467527	5.0.10.0	5_exp_noRW	82	Rpleas_acq	CS_A	JQQJ	YFFY	ZHHZ	DXXD	CPPC	LWWL	träumen	küssen	vertrauen	genießen	gütig	sonnig	töten	krank	versagen	gemein	gierig	sterben	53pct	acq_USunple_CSunple2_noRW	acq23456_noRW	3	56	0	0	300	300	1110	46	0	1	1	blank2r.bmp	0	1	+	0	1	blank2r.bmp	252	1	DXXD	306	3	sterben	559	0	0	0	0	0	0	0	0	0	0	0	0	0	0	0	0	0	0	0	0	0	0	0	0	0	0	0	0	0	0	0	0	0	0	0	0	0	0	0
072419	14:20:20	14:28:10	469153	5.0.10.0	5_exp_noRW	82	Rpleas_acq	CS_A	JQQJ	YFFY	ZHHZ	DXXD	CPPC	LWWL	träumen	küssen	vertrauen	genießen	gütig	sonnig	töten	krank	versagen	gemein	gierig	sterben	47pct	acq_USunple_CSunple1_noRW	acq23456_noRW	3	57	0	0	300	300	448	46	0	1	1	blank2r.bmp	0	1	+	0	1	blank2r.bmp	252	1	ZHHZ	306	2	krank	559	0	0	0	0	0	0	0	0	0	0	0	0	0	0	0	0	0	0	0	0	0	0	0	0	0	0	0	0	0	0	0	0	0	0	0	0	0	0	0
072419	14:20:20	14:28:12	470833	5.0.10.0	5_exp_noRW	82	Rpleas_acq	CS_A	JQQJ	YFFY	ZHHZ	DXXD	CPPC	LWWL	träumen	küssen	vertrauen	genießen	gütig	sonnig	töten	krank	versagen	gemein	gierig	sterben	53pct	acq_USunple_CSunple2_noRW	acq23456_noRW	3	58	0	0	300	300	499	46	0	1	1	blank2r.bmp	0	1	+	0	1	blank2r.bmp	252	1	DXXD	306	1	gemein	559	0	0	0	0	0	0	0	0	0	0	0	0	0	0	0	0	0	0	0	0	0	0	0	0	0	0	0	0	0	0	0	0	0	0	0	0	0	0	0
072419	14:20:20	14:28:13	472539	5.0.10.0	5_exp_noRW	82	Rpleas_acq	CS_A	JQQJ	YFFY	ZHHZ	DXXD	CPPC	LWWL	träumen	küssen	vertrauen	genießen	gütig	sonnig	töten	krank	versagen	gemein	gierig	sterben	47pct	acq_USunple_CSunple1_noRW	acq23456_noRW	3	59	0	0	300	300	541	46	0	1	1	blank2r.bmp	0	1	+	0	1	blank2r.bmp	252	1	ZHHZ	306	3	versagen	559	0	0	0	0	0	0	0	0	0	0	0	0	0	0	0	0	0	0	0	0	0	0	0	0	0	0	0	0	0	0	0	0	0	0	0	0	0	0	0
072419	14:20:20	14:28:15	474271	5.0.10.0	5_exp_noRW	82	Rpleas_acq	CS_A	JQQJ	YFFY	ZHHZ	DXXD	CPPC	LWWL	träumen	küssen	vertrauen	genießen	gütig	sonnig	töten	krank	versagen	gemein	gierig	sterben	53pct	acq_USpleas_CSpleas1_noRW	acq23456_noRW	3	60	0	0	300	300	552	50	0	1	1	blank2r.bmp	0	1	+	0	1	blank2r.bmp	252	1	JQQJ	306	3	vertrauen	559	0	0	0	0	0	0	0	0	0	0	0	0	0	0	0	0	0	0	0	0	0	0	0	0	0	0	0	0	0	0	0	0	0	0	0	0	0	0	0
072419	14:20:20	14:28:17	475951	5.0.10.0	5_exp_noRW	82	Rpleas_acq	CS_A	JQQJ	YFFY	ZHHZ	DXXD	CPPC	LWWL	träumen	küssen	vertrauen	genießen	gütig	sonnig	töten	krank	versagen	gemein	gierig	sterben	47pct	acq_USpleas_CSpleas1_noRW	acq23456_noRW	3	61	0	0	300	300	494	50	0	1	1	blank2r.bmp	0	1	+	0	1	blank2r.bmp	252	1	JQQJ	306	1	träumen	559	0	0	0	0	0	0	0	0	0	0	0	0	0	0	0	0	0	0	0	0	0	0	0	0	0	0	0	0	0	0	0	0	0	0	0	0	0	0	0
072419	14:20:20	14:28:18	477670	5.0.10.0	5_exp_noRW	82	Rpleas_acq	CS_A	JQQJ	YFFY	ZHHZ	DXXD	CPPC	LWWL	träumen	küssen	vertrauen	genießen	gütig	sonnig	töten	krank	versagen	gemein	gierig	sterben	53pct	acq_USpleas_CSpleas2_noRW	acq23456_noRW	3	62	0	0	300	300	552	50	0	1	1	blank2r.bmp	0	1	+	0	1	blank2r.bmp	252	1	YFFY	306	3	sonnig	559	0	0	0	0	0	0	0	0	0	0	0	0	0	0	0	0	0	0	0	0	0	0	0	0	0	0	0	0	0	0	0	0	0	0	0	0	0	0	0
072419	14:20:20	14:28:20	479696	5.0.10.0	5_exp_noRW	82	Rpleas_acq	CS_A	JQQJ	YFFY	ZHHZ	DXXD	CPPC	LWWL	träumen	küssen	vertrauen	genießen	gütig	sonnig	töten	krank	versagen	gemein	gierig	sterben	53pct	acq_USunple_CSunple1_noRW	acq23456_noRW	3	63	0	0	300	300	851	46	0	1	1	blank2r.bmp	0	1	+	0	1	blank2r.bmp	252	1	ZHHZ	306	1	töten	559	0	0	0	0	0	0	0	0	0	0	0	0	0	0	0	0	0	0	0	0	0	0	0	0	0	0	0	0	0	0	0	0	0	0	0	0	0	0	0
072419	14:20:20	14:28:22	481575	5.0.10.0	5_exp_noRW	82	Rpleas_acq	CS_A	JQQJ	YFFY	ZHHZ	DXXD	CPPC	LWWL	träumen	küssen	vertrauen	genießen	gütig	sonnig	töten	krank	versagen	gemein	gierig	sterben	47pct	acq_USunple_CSunple2_noRW	acq23456_noRW	3	64	0	0	300	300	702	46	0	1	1	blank2r.bmp	0	1	+	0	1	blank2r.bmp	252	1	DXXD	306	2	gierig	559	0	0	0	0	0	0	0	0	0	0	0	0	0	0	0	0	0	0	0	0	0	0	0	0	0	0	0	0	0	0	0	0	0	0	0	0	0	0	0
072419	14:20:20	14:28:24	483547	5.0.10.0	5_exp_noRW	82	Rpleas_acq	CS_A	JQQJ	YFFY	ZHHZ	DXXD	CPPC	LWWL	träumen	küssen	vertrauen	genießen	gütig	sonnig	töten	krank	versagen	gemein	gierig	sterben	47pct	acq_USunple_CSunple2_noRW	acq23456_noRW	3	65	0	0	300	300	806	46	0	1	1	blank2r.bmp	0	1	+	0	1	blank2r.bmp	252	1	DXXD	306	2	gierig	559	0	0	0	0	0	0	0	0	0	0	0	0	0	0	0	0	0	0	0	0	0	0	0	0	0	0	0	0	0	0	0	0	0	0	0	0	0	0	0
072419	14:20:20	14:28:26	485253	5.0.10.0	5_exp_noRW	82	Rpleas_acq	CS_A	JQQJ	YFFY	ZHHZ	DXXD	CPPC	LWWL	träumen	küssen	vertrauen	genießen	gütig	sonnig	töten	krank	versagen	gemein	gierig	sterben	53pct	acq_USpleas_CSpleas1_noRW	acq23456_noRW	3	66	0	0	300	300	523	50	0	1	1	blank2r.bmp	0	1	+	0	1	blank2r.bmp	252	1	JQQJ	306	1	träumen	559	0	0	0	0	0	0	0	0	0	0	0	0	0	0	0	0	0	0	0	0	0	0	0	0	0	0	0	0	0	0	0	0	0	0	0	0	0	0	0
072419	14:20:20	14:28:28	487066	5.0.10.0	5_exp_noRW	82	Rpleas_acq	CS_A	JQQJ	YFFY	ZHHZ	DXXD	CPPC	LWWL	träumen	küssen	vertrauen	genießen	gütig	sonnig	töten	krank	versagen	gemein	gierig	sterben	53pct	acq_USunple_CSunple1_noRW	acq23456_noRW	3	67	0	0	300	300	633	46	0	1	1	blank2r.bmp	0	1	+	0	1	blank2r.bmp	252	1	ZHHZ	306	3	versagen	559	0	0	0	0	0	0	0	0	0	0	0	0	0	0	0	0	0	0	0	0	0	0	0	0	0	0	0	0	0	0	0	0	0	0	0	0	0	0	0
072419	14:20:20	14:28:29	488665	5.0.10.0	5_exp_noRW	82	Rpleas_acq	CS_A	JQQJ	YFFY	ZHHZ	DXXD	CPPC	LWWL	träumen	küssen	vertrauen	genießen	gütig	sonnig	töten	krank	versagen	gemein	gierig	sterben	53pct	acq_USpleas_CSpleas1_noRW	acq23456_noRW	3	68	0	0	300	300	427	50	0	1	1	blank2r.bmp	0	1	+	0	1	blank2r.bmp	252	1	JQQJ	306	2	küssen	559	0	0	0	0	0	0	0	0	0	0	0	0	0	0	0	0	0	0	0	0	0	0	0	0	0	0	0	0	0	0	0	0	0	0	0	0	0	0	0
072419	14:20:20	14:28:32	490825	5.0.10.0	5_exp_noRW	82	Rpleas_acq	CS_A	JQQJ	YFFY	ZHHZ	DXXD	CPPC	LWWL	träumen	küssen	vertrauen	genießen	gütig	sonnig	töten	krank	versagen	gemein	gierig	sterben	53pct	acq_USpleas_CSpleas2_noRW	acq23456_noRW	3	69	0	0	300	300	992	50	0	1	1	blank2r.bmp	0	1	+	0	1	blank2r.bmp	252	1	YFFY	306	3	sonnig	559	0	0	0	0	0	0	0	0	0	0	0	0	0	0	0	0	0	0	0	0	0	0	0	0	0	0	0	0	0	0	0	0	0	0	0	0	0	0	0
072419	14:20:20	14:28:33	492544	5.0.10.0	5_exp_noRW	82	Rpleas_acq	CS_A	JQQJ	YFFY	ZHHZ	DXXD	CPPC	LWWL	träumen	küssen	vertrauen	genießen	gütig	sonnig	töten	krank	versagen	gemein	gierig	sterben	53pct	acq_USunple_CSpleas2_noRW	acq23456_noRW	3	70	0	0	300	300	540	46	0	1	1	blank2r.bmp	0	1	+	0	1	blank2r.bmp	252	1	YFFY	306	3	sterben	559	0	0	0	0	0	0	0	0	0	0	0	0	0	0	0	0	0	0	0	0	0	0	0	0	0	0	0	0	0	0	0	0	0	0	0	0	0	0	0
072419	14:20:20	14:28:35	494436	5.0.10.0	5_exp_noRW	82	Rpleas_acq	CS_A	JQQJ	YFFY	ZHHZ	DXXD	CPPC	LWWL	träumen	küssen	vertrauen	genießen	gütig	sonnig	töten	krank	versagen	gemein	gierig	sterben	53pct	acq_USunple_CSunple1_noRW	acq23456_noRW	3	71	0	0	300	300	724	46	0	1	1	blank2r.bmp	0	1	+	0	1	blank2r.bmp	252	1	ZHHZ	306	1	töten	559	0	0	0	0	0	0	0	0	0	0	0	0	0	0	0	0	0	0	0	0	0	0	0	0	0	0	0	0	0	0	0	0	0	0	0	0	0	0	0
072419	14:20:20	14:28:37	496516	5.0.10.0	5_exp_noRW	82	Rpleas_acq	CS_A	JQQJ	YFFY	ZHHZ	DXXD	CPPC	LWWL	träumen	küssen	vertrauen	genießen	gütig	sonnig	töten	krank	versagen	gemein	gierig	sterben	53pct	acq_USpleas_CSunple2_noRW	acq23456_noRW	3	72	0	0	300	300	900	50	0	1	1	blank2r.bmp	0	1	+	0	1	blank2r.bmp	252	1	DXXD	306	3	sonnig	559	0	0	0	0	0	0	0	0	0	0	0	0	0	0	0	0	0	0	0	0	0	0	0	0	0	0	0	0	0	0	0	0	0	0	0	0	0	0	0
072419	14:20:20	14:28:39	498315	5.0.10.0	5_exp_noRW	82	Rpleas_acq	CS_A	JQQJ	YFFY	ZHHZ	DXXD	CPPC	LWWL	träumen	küssen	vertrauen	genießen	gütig	sonnig	töten	krank	versagen	gemein	gierig	sterben	47pct	acq_USunple_CSunple2_noRW	acq23456_noRW	3	73	0	0	300	300	623	46	0	1	1	blank2r.bmp	0	1	+	0	1	blank2r.bmp	252	1	DXXD	306	3	sterben	559	0	0	0	0	0	0	0	0	0	0	0	0	0	0	0	0	0	0	0	0	0	0	0	0	0	0	0	0	0	0	0	0	0	0	0	0	0	0	0
072419	14:20:20	14:28:41	500021	5.0.10.0	5_exp_noRW	82	Rpleas_acq	CS_A	JQQJ	YFFY	ZHHZ	DXXD	CPPC	LWWL	träumen	küssen	vertrauen	genießen	gütig	sonnig	töten	krank	versagen	gemein	gierig	sterben	47pct	acq_USpleas_CSunple1_noRW	acq23456_noRW	3	74	0	0	300	300	538	50	0	1	1	blank2r.bmp	0	1	+	0	1	blank2r.bmp	252	1	ZHHZ	306	2	küssen	559	0	0	0	0	0	0	0	0	0	0	0	0	0	0	0	0	0	0	0	0	0	0	0	0	0	0	0	0	0	0	0	0	0	0	0	0	0	0	0
072419	14:20:20	14:28:43	501833	5.0.10.0	5_exp_noRW	82	Rpleas_acq	CS_A	JQQJ	YFFY	ZHHZ	DXXD	CPPC	LWWL	träumen	küssen	vertrauen	genießen	gütig	sonnig	töten	krank	versagen	gemein	gierig	sterben	47pct	acq_USpleas_CSpleas2_noRW	acq23456_noRW	3	75	0	0	300	300	629	50	0	1	1	blank2r.bmp	0	1	+	0	1	blank2r.bmp	252	1	YFFY	306	1	genießen	559	0	0	0	0	0	0	0	0	0	0	0	0	0	0	0	0	0	0	0	0	0	0	0	0	0	0	0	0	0	0	0	0	0	0	0	0	0	0	0
072419	14:20:20	14:28:44	503606	5.0.10.0	5_exp_noRW	82	Rpleas_acq	CS_A	JQQJ	YFFY	ZHHZ	DXXD	CPPC	LWWL	träumen	küssen	vertrauen	genießen	gütig	sonnig	töten	krank	versagen	gemein	gierig	sterben	53pct	acq_USpleas_CSpleas1_noRW	acq23456_noRW	3	76	0	0	300	300	594	50	0	1	1	blank2r.bmp	0	1	+	0	1	blank2r.bmp	252	1	JQQJ	306	3	vertrauen	559	0	0	0	0	0	0	0	0	0	0	0	0	0	0	0	0	0	0	0	0	0	0	0	0	0	0	0	0	0	0	0	0	0	0	0	0	0	0	0
072419	14:20:20	14:28:46	505352	5.0.10.0	5_exp_noRW	82	Rpleas_acq	CS_A	JQQJ	YFFY	ZHHZ	DXXD	CPPC	LWWL	träumen	küssen	vertrauen	genießen	gütig	sonnig	töten	krank	versagen	gemein	gierig	sterben	53pct	acq_USunple_CSunple2_noRW	acq23456_noRW	3	77	0	0	300	300	565	46	0	1	1	blank2r.bmp	0	1	+	0	1	blank2r.bmp	252	1	DXXD	306	1	gemein	559	0	0	0	0	0	0	0	0	0	0	0	0	0	0	0	0	0	0	0	0	0	0	0	0	0	0	0	0	0	0	0	0	0	0	0	0	0	0	0
072419	14:20:20	14:28:48	507538	5.0.10.0	5_exp_noRW	82	Rpleas_acq	CS_A	JQQJ	YFFY	ZHHZ	DXXD	CPPC	LWWL	träumen	küssen	vertrauen	genießen	gütig	sonnig	töten	krank	versagen	gemein	gierig	sterben	47pct	acq_USpleas_CSpleas2_noRW	acq23456_noRW	3	78	0	0	300	300	1021	50	0	1	1	blank2r.bmp	0	1	+	0	1	blank2r.bmp	252	1	YFFY	306	2	gütig	559	0	0	0	0	0	0	0	0	0	0	0	0	0	0	0	0	0	0	0	0	0	0	0	0	0	0	0	0	0	0	0	0	0	0	0	0	0	0	0
072419	14:20:20	14:28:50	509137	5.0.10.0	5_exp_noRW	82	Rpleas_acq	CS_A	JQQJ	YFFY	ZHHZ	DXXD	CPPC	LWWL	träumen	küssen	vertrauen	genießen	gütig	sonnig	töten	krank	versagen	gemein	gierig	sterben	47pct	acq_USunple_CSunple1_noRW	acq23456_noRW	3	79	0	0	300	300	424	46	0	1	1	blank2r.bmp	0	1	+	0	1	blank2r.bmp	252	1	ZHHZ	306	2	krank	559	0	0	0	0	0	0	0	0	0	0	0	0	0	0	0	0	0	0	0	0	0	0	0	0	0	0	0	0	0	0	0	0	0	0	0	0	0	0	0
072419	14:20:20	14:28:52	511149	5.0.10.0	5_exp_noRW	82	Rpleas_acq	CS_A	JQQJ	YFFY	ZHHZ	DXXD	CPPC	LWWL	träumen	küssen	vertrauen	genießen	gütig	sonnig	töten	krank	versagen	gemein	gierig	sterben	47pct	acq_USunple_CSpleas1_noRW	acq23456_noRW	3	80	0	0	300	300	616	50	0	0	1	blank2r.bmp	0	1	+	0	1	blank2r.bmp	252	1	JQQJ	306	3	versagen	559	1	FEHLER	1212	0	0	0	0	0	0	0	0	0	0	0	0	0	0	0	0	0	0	0	0	0	0	0	0	0	0	0	0	0	0	0	0	0	0	0	0
072419	14:20:20	14:29:00	519759	5.0.10.0	5_exp_noRW	82	Rpleas_acq	CS_A	JQQJ	YFFY	ZHHZ	DXXD	CPPC	LWWL	träumen	küssen	vertrauen	genießen	gütig	sonnig	töten	krank	versagen	gemein	gierig	sterben	53pct	acq_USunple_CSunple1_noRW	acq23456_noRW	4	1	0	0	300	300	896	46	0	1	1	blank2r.bmp	0	1	+	0	1	blank2r.bmp	252	1	ZHHZ	306	3	versagen	559	0	0	0	0	0	0	0	0	0	0	0	0	0	0	0	0	0	0	0	0	0	0	0	0	0	0	0	0	0	0	0	0	0	0	0	0	0	0	0
