date	time	script.currenttime	script.elapsedtime	build	script.currentexpt	subject	expressions.LRpleas_acq	expressions.conditionCS_A	expressions.CSpleas_1	expressions.CSpleas_2	expressions.CSunple_1	expressions.CSunple_2	expressions.distractor_1	expressions.distractor_2	expressions.US_pleas1	expressions.US_pleas2	expressions.US_pleas3	expressions.US_pleas4	expressions.US_pleas5	expressions.US_pleas6	expressions.US_unple1	expressions.US_unple2	expressions.US_unple3	expressions.US_unple4	expressions.US_unple5	expressions.US_unple6	counter.positions_noRW	trialcode	blockcode	blocknum	trialnum	windowcenter	inwindow	pretrialpause	posttrialpause	latency	response	expressions.correctedscore	correct	stimulusnumber1	stimulusitem1	stimulusonset1	stimulusnumber2	stimulusitem2	stimulusonset2	stimulusnumber3	stimulusitem3	stimulusonset3	stimulusnumber4	stimulusitem4	stimulusonset4	stimulusnumber5	stimulusitem5	stimulusonset5	stimulusnumber6	stimulusitem6	stimulusonset6	stimulusnumber7	stimulusitem7	stimulusonset7	stimulusnumber8	stimulusitem8	stimulusonset8	stimulusnumber9	stimulusitem9	stimulusonset9	stimulusnumber10	stimulusitem10	stimulusonset10	stimulusnumber11	stimulusitem11	stimulusonset11	stimulusnumber12	stimulusitem12	stimulusonset12	stimulusnumber13	stimulusitem13	stimulusonset13	stimulusnumber14	stimulusitem14	stimulusonset14	stimulusnumber15	stimulusitem15	stimulusonset15	stimulusnumber16	stimulusitem16	stimulusonset16	stimulusnumber17	stimulusitem17	stimulusonset17	stimulusnumber18	stimulusitem18	stimulusonset18
071019	10:10:17	10:11:19	62133	5.0.10.0	5_exp_RW	33	Rpleas_acq	CS_A	YFFY	JQQJ	ZHHZ	LWWL	CPPC	DXXD	sonnig	gütig	genießen	küssen	vertrauen	träumen	sterben	gierig	gemein	krank	versagen	töten	1	acq_USpleas_CSpleas2_RW	acq1_RW	1	1	0	0	300	300	7302	50	0	1	1	blank2r.bmp	0	1	+	0	1	blank2r.bmp	492	1	JQQJ	492	1	blank2r.bmp	572	3	träumen	866	0	0	0	0	0	0	0	0	0	0	0	0	0	0	0	0	0	0	0	0	0	0	0	0	0	0	0	0	0	0	0	0	0	0	0	0
071019	10:10:17	10:11:22	64705	5.0.10.0	5_exp_RW	33	Rpleas_acq	CS_A	YFFY	JQQJ	ZHHZ	LWWL	CPPC	DXXD	sonnig	gütig	genießen	küssen	vertrauen	träumen	sterben	gierig	gemein	krank	versagen	töten	1	acq_USpleas_CSpleas1_RW	acq1_RW	1	2	0	0	300	300	1095	50	0	1	1	blank2r.bmp	0	1	+	0	1	blank2r.bmp	492	1	YFFY	492	1	blank2r.bmp	572	1	sonnig	866	0	0	0	0	0	0	0	0	0	0	0	0	0	0	0	0	0	0	0	0	0	0	0	0	0	0	0	0	0	0	0	0	0	0	0	0
071019	10:10:17	10:11:24	66918	5.0.10.0	5_exp_RW	33	Rpleas_acq	CS_A	YFFY	JQQJ	ZHHZ	LWWL	CPPC	DXXD	sonnig	gütig	genießen	küssen	vertrauen	träumen	sterben	gierig	gemein	krank	versagen	töten	1	acq_USpleas_CSpleas2_RW	acq1_RW	1	3	0	0	300	300	728	50	0	1	1	blank2r.bmp	0	1	+	0	1	blank2r.bmp	492	1	JQQJ	492	1	blank2r.bmp	572	1	küssen	866	0	0	0	0	0	0	0	0	0	0	0	0	0	0	0	0	0	0	0	0	0	0	0	0	0	0	0	0	0	0	0	0	0	0	0	0
071019	10:10:17	10:11:26	69024	5.0.10.0	5_exp_RW	33	Rpleas_acq	CS_A	YFFY	JQQJ	ZHHZ	LWWL	CPPC	DXXD	sonnig	gütig	genießen	küssen	vertrauen	träumen	sterben	gierig	gemein	krank	versagen	töten	1	acq_USunple_CSunple2_RW	acq1_RW	1	4	0	0	300	300	611	46	0	1	1	blank2r.bmp	0	1	+	0	1	blank2r.bmp	492	1	LWWL	492	1	blank2r.bmp	572	3	töten	866	0	0	0	0	0	0	0	0	0	0	0	0	0	0	0	0	0	0	0	0	0	0	0	0	0	0	0	0	0	0	0	0	0	0	0	0
071019	10:10:17	10:11:28	71103	5.0.10.0	5_exp_RW	33	Rpleas_acq	CS_A	YFFY	JQQJ	ZHHZ	LWWL	CPPC	DXXD	sonnig	gütig	genießen	küssen	vertrauen	träumen	sterben	gierig	gemein	krank	versagen	töten	1	acq_USpleas_CSpleas2_RW	acq1_RW	1	5	0	0	300	300	601	50	0	1	1	blank2r.bmp	0	1	+	0	1	blank2r.bmp	492	1	JQQJ	492	1	blank2r.bmp	572	2	vertrauen	866	0	0	0	0	0	0	0	0	0	0	0	0	0	0	0	0	0	0	0	0	0	0	0	0	0	0	0	0	0	0	0	0	0	0	0	0
071019	10:10:17	10:11:31	74062	5.0.10.0	5_exp_RW	33	Rpleas_acq	CS_A	YFFY	JQQJ	ZHHZ	LWWL	CPPC	DXXD	sonnig	gütig	genießen	küssen	vertrauen	träumen	sterben	gierig	gemein	krank	versagen	töten	1	acq_USpleas_CSpleas1_RW	acq1_RW	1	6	0	0	300	300	1472	50	0	1	1	blank2r.bmp	0	1	+	0	1	blank2r.bmp	492	1	YFFY	492	1	blank2r.bmp	572	2	gütig	866	0	0	0	0	0	0	0	0	0	0	0	0	0	0	0	0	0	0	0	0	0	0	0	0	0	0	0	0	0	0	0	0	0	0	0	0
071019	10:10:17	10:11:34	76287	5.0.10.0	5_exp_RW	33	Rpleas_acq	CS_A	YFFY	JQQJ	ZHHZ	LWWL	CPPC	DXXD	sonnig	gütig	genießen	küssen	vertrauen	träumen	sterben	gierig	gemein	krank	versagen	töten	1	acq_USpleas_CSpleas1_RW	acq1_RW	1	7	0	0	300	300	742	50	0	1	1	blank2r.bmp	0	1	+	0	1	blank2r.bmp	492	1	YFFY	492	1	blank2r.bmp	572	3	genießen	866	0	0	0	0	0	0	0	0	0	0	0	0	0	0	0	0	0	0	0	0	0	0	0	0	0	0	0	0	0	0	0	0	0	0	0	0
071019	10:10:17	10:11:36	78726	5.0.10.0	5_exp_RW	33	Rpleas_acq	CS_A	YFFY	JQQJ	ZHHZ	LWWL	CPPC	DXXD	sonnig	gütig	genießen	küssen	vertrauen	träumen	sterben	gierig	gemein	krank	versagen	töten	1	acq_USunple_CSunple2_RW	acq1_RW	1	8	0	0	300	300	967	46	0	1	1	blank2r.bmp	0	1	+	0	1	blank2r.bmp	492	1	LWWL	492	1	blank2r.bmp	572	1	krank	866	0	0	0	0	0	0	0	0	0	0	0	0	0	0	0	0	0	0	0	0	0	0	0	0	0	0	0	0	0	0	0	0	0	0	0	0
071019	10:10:17	10:11:38	81045	5.0.10.0	5_exp_RW	33	Rpleas_acq	CS_A	YFFY	JQQJ	ZHHZ	LWWL	CPPC	DXXD	sonnig	gütig	genießen	küssen	vertrauen	träumen	sterben	gierig	gemein	krank	versagen	töten	1	acq_USunple_CSunple1_RW	acq1_RW	1	9	0	0	300	300	833	46	0	1	1	blank2r.bmp	0	1	+	0	1	blank2r.bmp	492	1	ZHHZ	492	1	blank2r.bmp	572	3	gemein	866	0	0	0	0	0	0	0	0	0	0	0	0	0	0	0	0	0	0	0	0	0	0	0	0	0	0	0	0	0	0	0	0	0	0	0	0
071019	10:10:17	10:11:40	83058	5.0.10.0	5_exp_RW	33	Rpleas_acq	CS_A	YFFY	JQQJ	ZHHZ	LWWL	CPPC	DXXD	sonnig	gütig	genießen	küssen	vertrauen	träumen	sterben	gierig	gemein	krank	versagen	töten	1	acq_USunple_CSunple1_RW	acq1_RW	1	10	0	0	300	300	534	46	0	1	1	blank2r.bmp	0	1	+	0	1	blank2r.bmp	492	1	ZHHZ	492	1	blank2r.bmp	572	1	sterben	866	0	0	0	0	0	0	0	0	0	0	0	0	0	0	0	0	0	0	0	0	0	0	0	0	0	0	0	0	0	0	0	0	0	0	0	0
071019	10:10:17	10:11:43	85230	5.0.10.0	5_exp_RW	33	Rpleas_acq	CS_A	YFFY	JQQJ	ZHHZ	LWWL	CPPC	DXXD	sonnig	gütig	genießen	küssen	vertrauen	träumen	sterben	gierig	gemein	krank	versagen	töten	1	acq_USpleas_CSpleas1_RW	acq1_RW	1	11	0	0	300	300	696	50	0	1	1	blank2r.bmp	0	1	+	0	1	blank2r.bmp	492	1	YFFY	492	1	blank2r.bmp	572	3	genießen	866	0	0	0	0	0	0	0	0	0	0	0	0	0	0	0	0	0	0	0	0	0	0	0	0	0	0	0	0	0	0	0	0	0	0	0	0
071019	10:10:17	10:11:45	87616	5.0.10.0	5_exp_RW	33	Rpleas_acq	CS_A	YFFY	JQQJ	ZHHZ	LWWL	CPPC	DXXD	sonnig	gütig	genießen	küssen	vertrauen	träumen	sterben	gierig	gemein	krank	versagen	töten	1	acq_USunple_CSunple1_RW	acq1_RW	1	12	0	0	300	300	911	46	0	1	1	blank2r.bmp	0	1	+	0	1	blank2r.bmp	492	1	ZHHZ	492	1	blank2r.bmp	572	2	gierig	866	0	0	0	0	0	0	0	0	0	0	0	0	0	0	0	0	0	0	0	0	0	0	0	0	0	0	0	0	0	0	0	0	0	0	0	0
071019	10:10:17	10:11:47	89642	5.0.10.0	5_exp_RW	33	Rpleas_acq	CS_A	YFFY	JQQJ	ZHHZ	LWWL	CPPC	DXXD	sonnig	gütig	genießen	küssen	vertrauen	träumen	sterben	gierig	gemein	krank	versagen	töten	1	acq_USunple_CSunple1_RW	acq1_RW	1	13	0	0	300	300	553	46	0	1	1	blank2r.bmp	0	1	+	0	1	blank2r.bmp	492	1	ZHHZ	492	1	blank2r.bmp	572	1	sterben	866	0	0	0	0	0	0	0	0	0	0	0	0	0	0	0	0	0	0	0	0	0	0	0	0	0	0	0	0	0	0	0	0	0	0	0	0
071019	10:10:17	10:11:49	91841	5.0.10.0	5_exp_RW	33	Rpleas_acq	CS_A	YFFY	JQQJ	ZHHZ	LWWL	CPPC	DXXD	sonnig	gütig	genießen	küssen	vertrauen	träumen	sterben	gierig	gemein	krank	versagen	töten	1	acq_USpleas_CSpleas2_RW	acq1_RW	1	14	0	0	300	300	727	50	0	1	1	blank2r.bmp	0	1	+	0	1	blank2r.bmp	492	1	JQQJ	492	1	blank2r.bmp	572	2	vertrauen	866	0	0	0	0	0	0	0	0	0	0	0	0	0	0	0	0	0	0	0	0	0	0	0	0	0	0	0	0	0	0	0	0	0	0	0	0
071019	10:10:17	10:11:52	94240	5.0.10.0	5_exp_RW	33	Rpleas_acq	CS_A	YFFY	JQQJ	ZHHZ	LWWL	CPPC	DXXD	sonnig	gütig	genießen	küssen	vertrauen	träumen	sterben	gierig	gemein	krank	versagen	töten	1	acq_USunple_CSunple2_RW	acq1_RW	1	15	0	0	300	300	924	46	0	1	1	blank2r.bmp	0	1	+	0	1	blank2r.bmp	492	1	LWWL	492	1	blank2r.bmp	572	2	versagen	866	0	0	0	0	0	0	0	0	0	0	0	0	0	0	0	0	0	0	0	0	0	0	0	0	0	0	0	0	0	0	0	0	0	0	0	0
071019	10:10:17	10:11:54	96199	5.0.10.0	5_exp_RW	33	Rpleas_acq	CS_A	YFFY	JQQJ	ZHHZ	LWWL	CPPC	DXXD	sonnig	gütig	genießen	küssen	vertrauen	träumen	sterben	gierig	gemein	krank	versagen	töten	1	acq_USunple_CSunple2_RW	acq1_RW	1	16	0	0	300	300	473	46	0	1	1	blank2r.bmp	0	1	+	0	1	blank2r.bmp	492	1	LWWL	492	1	blank2r.bmp	572	3	töten	866	0	0	0	0	0	0	0	0	0	0	0	0	0	0	0	0	0	0	0	0	0	0	0	0	0	0	0	0	0	0	0	0	0	0	0	0
071019	10:10:17	10:12:47	149177	5.0.10.0	5_exp_RW	33	Rpleas_acq	CS_A	YFFY	JQQJ	ZHHZ	LWWL	CPPC	DXXD	sonnig	gütig	genießen	küssen	vertrauen	träumen	sterben	gierig	gemein	krank	versagen	töten	1	acq_USpleas_CSpleas1_RW	acq2_RW	2	1	480	0	300	300	1549	46	0	0	1	blank2r.bmp	0	1	+	0	1	blank2r.bmp	492	1	YFFY	492	1	blank2r.bmp	572	2	gütig	866	1	FEHLER	2758	1	!	1319	1	!	-1	0	0	0	0	0	0	0	0	0	0	0	0	0	0	0	0	0	0	0	0	0	0	0	0	0	0	0
071019	10:10:17	10:12:50	152282	5.0.10.0	5_exp_RW	33	Rpleas_acq	CS_A	YFFY	JQQJ	ZHHZ	LWWL	CPPC	DXXD	sonnig	gütig	genießen	küssen	vertrauen	träumen	sterben	gierig	gemein	krank	versagen	töten	1	acq_USunple_CSunple2_RW	acq2_RW	2	2	480	0	300	300	1537	46	0	1	1	blank2r.bmp	0	1	+	0	1	blank2r.bmp	492	1	LWWL	492	1	blank2r.bmp	572	1	krank	866	1	!	1319	1	!	-1	0	0	0	0	0	0	0	0	0	0	0	0	0	0	0	0	0	0	0	0	0	0	0	0	0	0	0	0	0	0
071019	10:10:17	10:12:53	155201	5.0.10.0	5_exp_RW	33	Rpleas_acq	CS_A	YFFY	JQQJ	ZHHZ	LWWL	CPPC	DXXD	sonnig	gütig	genießen	küssen	vertrauen	träumen	sterben	gierig	gemein	krank	versagen	töten	1	acq_USpleas_CSpleas1_RW	acq2_RW	2	3	480	0	300	300	1133	50	0	1	1	blank2r.bmp	0	1	+	0	1	blank2r.bmp	492	1	YFFY	492	1	blank2r.bmp	572	1	sonnig	866	1	!	1319	1	!	-1	0	0	0	0	0	0	0	0	0	0	0	0	0	0	0	0	0	0	0	0	0	0	0	0	0	0	0	0	0	0
071019	10:10:17	10:12:56	158333	5.0.10.0	5_exp_RW	33	Rpleas_acq	CS_A	YFFY	JQQJ	ZHHZ	LWWL	CPPC	DXXD	sonnig	gütig	genießen	küssen	vertrauen	träumen	sterben	gierig	gemein	krank	versagen	töten	1	acq_USpleas_CSpleas1_RW	acq2_RW	2	4	480	0	300	300	1348	50	0	1	1	blank2r.bmp	0	1	+	0	1	blank2r.bmp	492	1	YFFY	492	1	blank2r.bmp	572	3	genießen	866	1	!	1319	1	!	-1	0	0	0	0	0	0	0	0	0	0	0	0	0	0	0	0	0	0	0	0	0	0	0	0	0	0	0	0	0	0
071019	10:10:17	10:12:59	161438	5.0.10.0	5_exp_RW	33	Rpleas_acq	CS_A	YFFY	JQQJ	ZHHZ	LWWL	CPPC	DXXD	sonnig	gütig	genießen	küssen	vertrauen	träumen	sterben	gierig	gemein	krank	versagen	töten	1	acq_USpleas_CSpleas1_RW	acq2_RW	2	5	480	0	300	300	1326	50	0	1	1	blank2r.bmp	0	1	+	0	1	blank2r.bmp	492	1	YFFY	492	1	blank2r.bmp	572	1	sonnig	866	1	!	1319	1	!	-1	0	0	0	0	0	0	0	0	0	0	0	0	0	0	0	0	0	0	0	0	0	0	0	0	0	0	0	0	0	0
071019	10:10:17	10:13:02	164157	5.0.10.0	5_exp_RW	33	Rpleas_acq	CS_A	YFFY	JQQJ	ZHHZ	LWWL	CPPC	DXXD	sonnig	gütig	genießen	küssen	vertrauen	träumen	sterben	gierig	gemein	krank	versagen	töten	1	acq_USunple_CSunple2_RW	acq2_RW	2	6	480	0	300	300	934	46	0	1	1	blank2r.bmp	0	1	+	0	1	blank2r.bmp	492	1	LWWL	492	1	blank2r.bmp	572	2	versagen	866	1	!	1319	1	!	-1	0	0	0	0	0	0	0	0	0	0	0	0	0	0	0	0	0	0	0	0	0	0	0	0	0	0	0	0	0	0
071019	10:10:17	10:13:04	166943	5.0.10.0	5_exp_RW	33	Rpleas_acq	CS_A	YFFY	JQQJ	ZHHZ	LWWL	CPPC	DXXD	sonnig	gütig	genießen	küssen	vertrauen	träumen	sterben	gierig	gemein	krank	versagen	töten	1	acq_USunple_CSunple1_RW	acq2_RW	2	7	480	0	300	300	1008	46	0	1	1	blank2r.bmp	0	1	+	0	1	blank2r.bmp	492	1	ZHHZ	492	1	blank2r.bmp	572	2	gierig	866	1	!	1319	1	!	-1	0	0	0	0	0	0	0	0	0	0	0	0	0	0	0	0	0	0	0	0	0	0	0	0	0	0	0	0	0	0
071019	10:10:17	10:13:09	171474	5.0.10.0	5_exp_RW	33	Rpleas_acq	CS_A	YFFY	JQQJ	ZHHZ	LWWL	CPPC	DXXD	sonnig	gütig	genießen	küssen	vertrauen	träumen	sterben	gierig	gemein	krank	versagen	töten	1	acq_USpleas_CSpleas2_RW	acq2_RW	2	8	480	0	300	300	2528	46	0	0	1	blank2r.bmp	0	1	+	0	1	blank2r.bmp	492	1	JQQJ	492	1	blank2r.bmp	572	3	träumen	866	1	FEHLER	3731	1	!	1319	1	!	-1	0	0	0	0	0	0	0	0	0	0	0	0	0	0	0	0	0	0	0	0	0	0	0	0	0	0	0
071019	10:10:17	10:13:12	174246	5.0.10.0	5_exp_RW	33	Rpleas_acq	CS_A	YFFY	JQQJ	ZHHZ	LWWL	CPPC	DXXD	sonnig	gütig	genießen	küssen	vertrauen	träumen	sterben	gierig	gemein	krank	versagen	töten	1	acq_USunple_CSunple2_RW	acq2_RW	2	9	480	0	300	300	1211	46	0	1	1	blank2r.bmp	0	1	+	0	1	blank2r.bmp	492	1	LWWL	492	1	blank2r.bmp	572	2	versagen	866	1	!	1319	1	!	-1	0	0	0	0	0	0	0	0	0	0	0	0	0	0	0	0	0	0	0	0	0	0	0	0	0	0	0	0	0	0
071019	10:10:17	10:13:14	176952	5.0.10.0	5_exp_RW	33	Rpleas_acq	CS_A	YFFY	JQQJ	ZHHZ	LWWL	CPPC	DXXD	sonnig	gütig	genießen	küssen	vertrauen	träumen	sterben	gierig	gemein	krank	versagen	töten	1	acq_USunple_CSunple2_RW	acq2_RW	2	10	480	0	300	300	919	46	0	1	1	blank2r.bmp	0	1	+	0	1	blank2r.bmp	492	1	LWWL	492	1	blank2r.bmp	572	3	töten	866	1	!	1319	1	!	-1	0	0	0	0	0	0	0	0	0	0	0	0	0	0	0	0	0	0	0	0	0	0	0	0	0	0	0	0	0	0
071019	10:10:17	10:13:17	179591	5.0.10.0	5_exp_RW	33	Rpleas_acq	CS_A	YFFY	JQQJ	ZHHZ	LWWL	CPPC	DXXD	sonnig	gütig	genießen	küssen	vertrauen	träumen	sterben	gierig	gemein	krank	versagen	töten	1	acq_USunple_CSunple1_RW	acq2_RW	2	11	480	0	300	300	851	46	0	1	1	blank2r.bmp	0	1	+	0	1	blank2r.bmp	492	1	ZHHZ	492	1	blank2r.bmp	572	3	gemein	866	1	!	1319	1	!	-1	0	0	0	0	0	0	0	0	0	0	0	0	0	0	0	0	0	0	0	0	0	0	0	0	0	0	0	0	0	0
071019	10:10:17	10:13:20	182270	5.0.10.0	5_exp_RW	33	Rpleas_acq	CS_A	YFFY	JQQJ	ZHHZ	LWWL	CPPC	DXXD	sonnig	gütig	genießen	küssen	vertrauen	träumen	sterben	gierig	gemein	krank	versagen	töten	1	acq_USpleas_CSpleas2_RW	acq2_RW	2	12	480	0	300	300	885	50	0	1	1	blank2r.bmp	0	1	+	0	1	blank2r.bmp	492	1	JQQJ	492	1	blank2r.bmp	572	1	küssen	866	1	!	1319	1	!	-1	0	0	0	0	0	0	0	0	0	0	0	0	0	0	0	0	0	0	0	0	0	0	0	0	0	0	0	0	0	0
071019	10:10:17	10:13:22	185002	5.0.10.0	5_exp_RW	33	Rpleas_acq	CS_A	YFFY	JQQJ	ZHHZ	LWWL	CPPC	DXXD	sonnig	gütig	genießen	küssen	vertrauen	träumen	sterben	gierig	gemein	krank	versagen	töten	1	acq_USunple_CSunple1_RW	acq2_RW	2	13	480	0	300	300	952	46	0	1	1	blank2r.bmp	0	1	+	0	1	blank2r.bmp	492	1	ZHHZ	492	1	blank2r.bmp	572	2	gierig	866	1	!	1319	1	!	-1	0	0	0	0	0	0	0	0	0	0	0	0	0	0	0	0	0	0	0	0	0	0	0	0	0	0	0	0	0	0
071019	10:10:17	10:13:26	188147	5.0.10.0	5_exp_RW	33	Rpleas_acq	CS_A	YFFY	JQQJ	ZHHZ	LWWL	CPPC	DXXD	sonnig	gütig	genießen	küssen	vertrauen	träumen	sterben	gierig	gemein	krank	versagen	töten	1	acq_USpleas_CSpleas2_RW	acq2_RW	2	14	480	0	300	300	1355	50	0	1	1	blank2r.bmp	0	1	+	0	1	blank2r.bmp	492	1	JQQJ	492	1	blank2r.bmp	572	3	träumen	866	1	!	1319	1	!	-1	0	0	0	0	0	0	0	0	0	0	0	0	0	0	0	0	0	0	0	0	0	0	0	0	0	0	0	0	0	0
071019	10:10:17	10:13:28	190866	5.0.10.0	5_exp_RW	33	Rpleas_acq	CS_A	YFFY	JQQJ	ZHHZ	LWWL	CPPC	DXXD	sonnig	gütig	genießen	küssen	vertrauen	träumen	sterben	gierig	gemein	krank	versagen	töten	1	acq_USunple_CSunple2_RW	acq2_RW	2	15	480	0	300	300	934	46	0	1	1	blank2r.bmp	0	1	+	0	1	blank2r.bmp	492	1	LWWL	492	1	blank2r.bmp	572	1	krank	866	1	!	1319	1	!	-1	0	0	0	0	0	0	0	0	0	0	0	0	0	0	0	0	0	0	0	0	0	0	0	0	0	0	0	0	0	0
071019	10:10:17	10:13:31	193572	5.0.10.0	5_exp_RW	33	Rpleas_acq	CS_A	YFFY	JQQJ	ZHHZ	LWWL	CPPC	DXXD	sonnig	gütig	genießen	küssen	vertrauen	träumen	sterben	gierig	gemein	krank	versagen	töten	1	acq_USunple_CSunple1_RW	acq2_RW	2	16	480	0	300	300	923	46	0	1	1	blank2r.bmp	0	1	+	0	1	blank2r.bmp	492	1	ZHHZ	492	1	blank2r.bmp	572	1	sterben	866	1	!	1319	1	!	-1	0	0	0	0	0	0	0	0	0	0	0	0	0	0	0	0	0	0	0	0	0	0	0	0	0	0	0	0	0	0
071019	10:10:17	10:13:34	196290	5.0.10.0	5_exp_RW	33	Rpleas_acq	CS_A	YFFY	JQQJ	ZHHZ	LWWL	CPPC	DXXD	sonnig	gütig	genießen	küssen	vertrauen	träumen	sterben	gierig	gemein	krank	versagen	töten	1	acq_USunple_CSunple2_RW	acq2_RW	2	17	480	0	300	300	944	46	0	1	1	blank2r.bmp	0	1	+	0	1	blank2r.bmp	492	1	LWWL	492	1	blank2r.bmp	572	1	krank	866	1	!	1319	1	!	-1	0	0	0	0	0	0	0	0	0	0	0	0	0	0	0	0	0	0	0	0	0	0	0	0	0	0	0	0	0	0
071019	10:10:17	10:13:37	199263	5.0.10.0	5_exp_RW	33	Rpleas_acq	CS_A	YFFY	JQQJ	ZHHZ	LWWL	CPPC	DXXD	sonnig	gütig	genießen	küssen	vertrauen	träumen	sterben	gierig	gemein	krank	versagen	töten	1	acq_USunple_CSunple1_RW	acq2_RW	2	18	480	0	300	300	1190	46	0	1	1	blank2r.bmp	0	1	+	0	1	blank2r.bmp	492	1	ZHHZ	492	1	blank2r.bmp	572	3	gemein	866	1	!	1319	1	!	-1	0	0	0	0	0	0	0	0	0	0	0	0	0	0	0	0	0	0	0	0	0	0	0	0	0	0	0	0	0	0
071019	10:10:17	10:13:40	202168	5.0.10.0	5_exp_RW	33	Rpleas_acq	CS_A	YFFY	JQQJ	ZHHZ	LWWL	CPPC	DXXD	sonnig	gütig	genießen	küssen	vertrauen	träumen	sterben	gierig	gemein	krank	versagen	töten	1	acq_USpleas_CSpleas2_RW	acq2_RW	2	19	480	0	300	300	1120	50	0	1	1	blank2r.bmp	0	1	+	0	1	blank2r.bmp	492	1	JQQJ	492	1	blank2r.bmp	572	1	küssen	866	1	!	1319	1	!	-1	0	0	0	0	0	0	0	0	0	0	0	0	0	0	0	0	0	0	0	0	0	0	0	0	0	0	0	0	0	0
071019	10:10:17	10:13:42	205113	5.0.10.0	5_exp_RW	33	Rpleas_acq	CS_A	YFFY	JQQJ	ZHHZ	LWWL	CPPC	DXXD	sonnig	gütig	genießen	küssen	vertrauen	träumen	sterben	gierig	gemein	krank	versagen	töten	1	acq_USpleas_CSpleas2_RW	acq2_RW	2	20	480	0	300	300	1159	50	0	1	1	blank2r.bmp	0	1	+	0	1	blank2r.bmp	492	1	JQQJ	492	1	blank2r.bmp	572	2	vertrauen	866	1	!	1319	1	!	-1	0	0	0	0	0	0	0	0	0	0	0	0	0	0	0	0	0	0	0	0	0	0	0	0	0	0	0	0	0	0
071019	10:10:17	10:13:46	208605	5.0.10.0	5_exp_RW	33	Rpleas_acq	CS_A	YFFY	JQQJ	ZHHZ	LWWL	CPPC	DXXD	sonnig	gütig	genießen	küssen	vertrauen	träumen	sterben	gierig	gemein	krank	versagen	töten	1	acq_USunple_CSunple1_RW	acq2_RW	2	21	480	0	300	300	1707	46	0	1	1	blank2r.bmp	0	1	+	0	1	blank2r.bmp	492	1	ZHHZ	492	1	blank2r.bmp	572	2	gierig	866	1	!	1319	1	!	-1	0	0	0	0	0	0	0	0	0	0	0	0	0	0	0	0	0	0	0	0	0	0	0	0	0	0	0	0	0	0
071019	10:10:17	10:13:49	211378	5.0.10.0	5_exp_RW	33	Rpleas_acq	CS_A	YFFY	JQQJ	ZHHZ	LWWL	CPPC	DXXD	sonnig	gütig	genießen	küssen	vertrauen	träumen	sterben	gierig	gemein	krank	versagen	töten	1	acq_USpleas_CSpleas2_RW	acq2_RW	2	22	480	0	300	300	981	50	0	1	1	blank2r.bmp	0	1	+	0	1	blank2r.bmp	492	1	JQQJ	492	1	blank2r.bmp	572	1	küssen	866	1	!	1319	1	!	-1	0	0	0	0	0	0	0	0	0	0	0	0	0	0	0	0	0	0	0	0	0	0	0	0	0	0	0	0	0	0
071019	10:10:17	10:13:52	214989	5.0.10.0	5_exp_RW	33	Rpleas_acq	CS_A	YFFY	JQQJ	ZHHZ	LWWL	CPPC	DXXD	sonnig	gütig	genießen	küssen	vertrauen	träumen	sterben	gierig	gemein	krank	versagen	töten	1	acq_USpleas_CSpleas1_RW	acq2_RW	2	23	480	0	300	300	1826	50	0	1	1	blank2r.bmp	0	1	+	0	1	blank2r.bmp	492	1	YFFY	492	1	blank2r.bmp	572	2	gütig	866	1	!	1319	1	!	-1	0	0	0	0	0	0	0	0	0	0	0	0	0	0	0	0	0	0	0	0	0	0	0	0	0	0	0	0	0	0
071019	10:10:17	10:13:55	217722	5.0.10.0	5_exp_RW	33	Rpleas_acq	CS_A	YFFY	JQQJ	ZHHZ	LWWL	CPPC	DXXD	sonnig	gütig	genießen	küssen	vertrauen	träumen	sterben	gierig	gemein	krank	versagen	töten	1	acq_USpleas_CSpleas1_RW	acq2_RW	2	24	480	0	300	300	945	50	0	1	1	blank2r.bmp	0	1	+	0	1	blank2r.bmp	492	1	YFFY	492	1	blank2r.bmp	572	1	sonnig	866	1	!	1319	1	!	-1	0	0	0	0	0	0	0	0	0	0	0	0	0	0	0	0	0	0	0	0	0	0	0	0	0	0	0	0	0	0
071019	10:10:17	10:14:13	235554	5.0.10.0	5_exp_RW	33	Rpleas_acq	CS_A	YFFY	JQQJ	ZHHZ	LWWL	CPPC	DXXD	sonnig	gütig	genießen	küssen	vertrauen	träumen	sterben	gierig	gemein	krank	versagen	töten	1	acq_USpleas_CSpleas1_RW	acq3_RW	3	1	453	0	300	300	944	50	0	1	1	blank2r.bmp	0	1	+	0	1	blank2r.bmp	492	1	YFFY	492	1	blank2r.bmp	572	3	genießen	866	1	!	1292	1	!	-1	0	0	0	0	0	0	0	0	0	0	0	0	0	0	0	0	0	0	0	0	0	0	0	0	0	0	0	0	0	0
071019	10:10:17	10:14:16	238393	5.0.10.0	5_exp_RW	33	Rpleas_acq	CS_A	YFFY	JQQJ	ZHHZ	LWWL	CPPC	DXXD	sonnig	gütig	genießen	küssen	vertrauen	träumen	sterben	gierig	gemein	krank	versagen	töten	1	acq_USunple_CSunple2_RW	acq3_RW	3	2	453	0	300	300	1054	46	0	1	1	blank2r.bmp	0	1	+	0	1	blank2r.bmp	492	1	LWWL	492	1	blank2r.bmp	572	2	versagen	866	1	!	1292	1	!	-1	0	0	0	0	0	0	0	0	0	0	0	0	0	0	0	0	0	0	0	0	0	0	0	0	0	0	0	0	0	0
071019	10:10:17	10:14:19	241432	5.0.10.0	5_exp_RW	33	Rpleas_acq	CS_A	YFFY	JQQJ	ZHHZ	LWWL	CPPC	DXXD	sonnig	gütig	genießen	küssen	vertrauen	träumen	sterben	gierig	gemein	krank	versagen	töten	1	acq_USpleas_CSpleas2_RW	acq3_RW	3	3	453	0	300	300	1264	50	0	1	1	blank2r.bmp	0	1	+	0	1	blank2r.bmp	492	1	JQQJ	492	1	blank2r.bmp	572	3	träumen	866	1	!	1292	1	!	-1	0	0	0	0	0	0	0	0	0	0	0	0	0	0	0	0	0	0	0	0	0	0	0	0	0	0	0	0	0	0
071019	10:10:17	10:14:22	244244	5.0.10.0	5_exp_RW	33	Rpleas_acq	CS_A	YFFY	JQQJ	ZHHZ	LWWL	CPPC	DXXD	sonnig	gütig	genießen	küssen	vertrauen	träumen	sterben	gierig	gemein	krank	versagen	töten	1	acq_USunple_CSunple2_RW	acq3_RW	3	4	453	0	300	300	1026	46	0	1	1	blank2r.bmp	0	1	+	0	1	blank2r.bmp	492	1	LWWL	492	1	blank2r.bmp	572	3	töten	866	1	!	1292	1	!	-1	0	0	0	0	0	0	0	0	0	0	0	0	0	0	0	0	0	0	0	0	0	0	0	0	0	0	0	0	0	0
071019	10:10:17	10:14:24	247096	5.0.10.0	5_exp_RW	33	Rpleas_acq	CS_A	YFFY	JQQJ	ZHHZ	LWWL	CPPC	DXXD	sonnig	gütig	genießen	küssen	vertrauen	träumen	sterben	gierig	gemein	krank	versagen	töten	1	acq_USpleas_CSpleas2_RW	acq3_RW	3	5	453	0	300	300	1073	50	0	1	1	blank2r.bmp	0	1	+	0	1	blank2r.bmp	492	1	JQQJ	492	1	blank2r.bmp	572	2	vertrauen	866	1	!	1292	1	!	-1	0	0	0	0	0	0	0	0	0	0	0	0	0	0	0	0	0	0	0	0	0	0	0	0	0	0	0	0	0	0
071019	10:10:17	10:14:27	249868	5.0.10.0	5_exp_RW	33	Rpleas_acq	CS_A	YFFY	JQQJ	ZHHZ	LWWL	CPPC	DXXD	sonnig	gütig	genießen	küssen	vertrauen	träumen	sterben	gierig	gemein	krank	versagen	töten	1	acq_USunple_CSunple1_RW	acq3_RW	3	6	453	0	300	300	995	46	0	1	1	blank2r.bmp	0	1	+	0	1	blank2r.bmp	492	1	ZHHZ	492	1	blank2r.bmp	572	1	sterben	866	1	!	1292	1	!	-1	0	0	0	0	0	0	0	0	0	0	0	0	0	0	0	0	0	0	0	0	0	0	0	0	0	0	0	0	0	0
071019	10:10:17	10:14:30	252667	5.0.10.0	5_exp_RW	33	Rpleas_acq	CS_A	YFFY	JQQJ	ZHHZ	LWWL	CPPC	DXXD	sonnig	gütig	genießen	küssen	vertrauen	träumen	sterben	gierig	gemein	krank	versagen	töten	1	acq_USpleas_CSpleas1_RW	acq3_RW	3	7	453	0	300	300	998	50	0	1	1	blank2r.bmp	0	1	+	0	1	blank2r.bmp	492	1	YFFY	492	1	blank2r.bmp	572	2	gütig	866	1	!	1292	1	!	-1	0	0	0	0	0	0	0	0	0	0	0	0	0	0	0	0	0	0	0	0	0	0	0	0	0	0	0	0	0	0
071019	10:10:17	10:14:33	255412	5.0.10.0	5_exp_RW	33	Rpleas_acq	CS_A	YFFY	JQQJ	ZHHZ	LWWL	CPPC	DXXD	sonnig	gütig	genießen	küssen	vertrauen	träumen	sterben	gierig	gemein	krank	versagen	töten	1	acq_USpleas_CSpleas1_RW	acq3_RW	3	8	453	0	300	300	970	50	0	1	1	blank2r.bmp	0	1	+	0	1	blank2r.bmp	492	1	YFFY	492	1	blank2r.bmp	572	1	sonnig	866	1	!	1292	1	!	-1	0	0	0	0	0	0	0	0	0	0	0	0	0	0	0	0	0	0	0	0	0	0	0	0	0	0	0	0	0	0
071019	10:10:17	10:14:35	257891	5.0.10.0	5_exp_RW	33	Rpleas_acq	CS_A	YFFY	JQQJ	ZHHZ	LWWL	CPPC	DXXD	sonnig	gütig	genießen	küssen	vertrauen	träumen	sterben	gierig	gemein	krank	versagen	töten	1	acq_USpleas_CSpleas1_RW	acq3_RW	3	9	453	0	300	300	699	50	0	1	1	blank2r.bmp	0	1	+	0	1	blank2r.bmp	492	1	YFFY	492	1	blank2r.bmp	572	2	gütig	866	1	!	1292	1	!	-1	0	0	0	0	0	0	0	0	0	0	0	0	0	0	0	0	0	0	0	0	0	0	0	0	0	0	0	0	0	0
071019	10:10:17	10:14:38	260637	5.0.10.0	5_exp_RW	33	Rpleas_acq	CS_A	YFFY	JQQJ	ZHHZ	LWWL	CPPC	DXXD	sonnig	gütig	genießen	küssen	vertrauen	träumen	sterben	gierig	gemein	krank	versagen	töten	1	acq_USunple_CSunple1_RW	acq3_RW	3	10	453	0	300	300	971	46	0	1	1	blank2r.bmp	0	1	+	0	1	blank2r.bmp	492	1	ZHHZ	492	1	blank2r.bmp	572	3	gemein	866	1	!	1292	1	!	-1	0	0	0	0	0	0	0	0	0	0	0	0	0	0	0	0	0	0	0	0	0	0	0	0	0	0	0	0	0	0
071019	10:10:17	10:14:41	263476	5.0.10.0	5_exp_RW	33	Rpleas_acq	CS_A	YFFY	JQQJ	ZHHZ	LWWL	CPPC	DXXD	sonnig	gütig	genießen	küssen	vertrauen	träumen	sterben	gierig	gemein	krank	versagen	töten	1	acq_USunple_CSunple2_RW	acq3_RW	3	11	453	0	300	300	1052	46	0	1	1	blank2r.bmp	0	1	+	0	1	blank2r.bmp	492	1	LWWL	492	1	blank2r.bmp	572	2	versagen	866	1	!	1292	1	!	-1	0	0	0	0	0	0	0	0	0	0	0	0	0	0	0	0	0	0	0	0	0	0	0	0	0	0	0	0	0	0
071019	10:10:17	10:14:44	266155	5.0.10.0	5_exp_RW	33	Rpleas_acq	CS_A	YFFY	JQQJ	ZHHZ	LWWL	CPPC	DXXD	sonnig	gütig	genießen	küssen	vertrauen	träumen	sterben	gierig	gemein	krank	versagen	töten	1	acq_USunple_CSunple1_RW	acq3_RW	3	12	453	0	300	300	896	46	0	1	1	blank2r.bmp	0	1	+	0	1	blank2r.bmp	492	1	ZHHZ	492	1	blank2r.bmp	572	1	sterben	866	1	!	1292	1	!	-1	0	0	0	0	0	0	0	0	0	0	0	0	0	0	0	0	0	0	0	0	0	0	0	0	0	0	0	0	0	0
071019	10:10:17	10:14:46	268754	5.0.10.0	5_exp_RW	33	Rpleas_acq	CS_A	YFFY	JQQJ	ZHHZ	LWWL	CPPC	DXXD	sonnig	gütig	genießen	küssen	vertrauen	träumen	sterben	gierig	gemein	krank	versagen	töten	1	acq_USpleas_CSpleas2_RW	acq3_RW	3	13	453	0	300	300	818	50	0	1	1	blank2r.bmp	0	1	+	0	1	blank2r.bmp	492	1	JQQJ	492	1	blank2r.bmp	572	2	vertrauen	866	1	!	1292	1	!	-1	0	0	0	0	0	0	0	0	0	0	0	0	0	0	0	0	0	0	0	0	0	0	0	0	0	0	0	0	0	0
071019	10:10:17	10:14:49	271552	5.0.10.0	5_exp_RW	33	Rpleas_acq	CS_A	YFFY	JQQJ	ZHHZ	LWWL	CPPC	DXXD	sonnig	gütig	genießen	küssen	vertrauen	träumen	sterben	gierig	gemein	krank	versagen	töten	1	acq_USpleas_CSpleas2_RW	acq3_RW	3	14	453	0	300	300	1020	50	0	1	1	blank2r.bmp	0	1	+	0	1	blank2r.bmp	492	1	JQQJ	492	1	blank2r.bmp	572	3	träumen	866	1	!	1292	1	!	-1	0	0	0	0	0	0	0	0	0	0	0	0	0	0	0	0	0	0	0	0	0	0	0	0	0	0	0	0	0	0
071019	10:10:17	10:14:51	274045	5.0.10.0	5_exp_RW	33	Rpleas_acq	CS_A	YFFY	JQQJ	ZHHZ	LWWL	CPPC	DXXD	sonnig	gütig	genießen	küssen	vertrauen	träumen	sterben	gierig	gemein	krank	versagen	töten	1	acq_USunple_CSunple2_RW	acq3_RW	3	15	453	0	300	300	713	46	0	1	1	blank2r.bmp	0	1	+	0	1	blank2r.bmp	492	1	LWWL	492	1	blank2r.bmp	572	3	töten	866	1	!	1292	1	!	-1	0	0	0	0	0	0	0	0	0	0	0	0	0	0	0	0	0	0	0	0	0	0	0	0	0	0	0	0	0	0
071019	10:10:17	10:14:54	276564	5.0.10.0	5_exp_RW	33	Rpleas_acq	CS_A	YFFY	JQQJ	ZHHZ	LWWL	CPPC	DXXD	sonnig	gütig	genießen	küssen	vertrauen	träumen	sterben	gierig	gemein	krank	versagen	töten	1	acq_USunple_CSunple2_RW	acq3_RW	3	16	453	0	300	300	736	46	0	1	1	blank2r.bmp	0	1	+	0	1	blank2r.bmp	492	1	LWWL	492	1	blank2r.bmp	572	1	krank	866	1	!	1292	1	!	-1	0	0	0	0	0	0	0	0	0	0	0	0	0	0	0	0	0	0	0	0	0	0	0	0	0	0	0	0	0	0
071019	10:10:17	10:14:57	279362	5.0.10.0	5_exp_RW	33	Rpleas_acq	CS_A	YFFY	JQQJ	ZHHZ	LWWL	CPPC	DXXD	sonnig	gütig	genießen	küssen	vertrauen	träumen	sterben	gierig	gemein	krank	versagen	töten	1	acq_USpleas_CSpleas1_RW	acq3_RW	3	17	453	0	300	300	1011	50	0	1	1	blank2r.bmp	0	1	+	0	1	blank2r.bmp	492	1	YFFY	492	1	blank2r.bmp	572	3	genießen	866	1	!	1292	1	!	-1	0	0	0	0	0	0	0	0	0	0	0	0	0	0	0	0	0	0	0	0	0	0	0	0	0	0	0	0	0	0
071019	10:10:17	10:15:00	282334	5.0.10.0	5_exp_RW	33	Rpleas_acq	CS_A	YFFY	JQQJ	ZHHZ	LWWL	CPPC	DXXD	sonnig	gütig	genießen	küssen	vertrauen	träumen	sterben	gierig	gemein	krank	versagen	töten	1	acq_USunple_CSunple1_RW	acq3_RW	3	18	453	0	300	300	1184	46	0	1	1	blank2r.bmp	0	1	+	0	1	blank2r.bmp	492	1	ZHHZ	492	1	blank2r.bmp	572	2	gierig	866	1	!	1292	1	!	-1	0	0	0	0	0	0	0	0	0	0	0	0	0	0	0	0	0	0	0	0	0	0	0	0	0	0	0	0	0	0
071019	10:10:17	10:15:03	285507	5.0.10.0	5_exp_RW	33	Rpleas_acq	CS_A	YFFY	JQQJ	ZHHZ	LWWL	CPPC	DXXD	sonnig	gütig	genießen	küssen	vertrauen	träumen	sterben	gierig	gemein	krank	versagen	töten	1	acq_USunple_CSunple1_RW	acq3_RW	3	19	453	0	300	300	1389	46	0	1	1	blank2r.bmp	0	1	+	0	1	blank2r.bmp	492	1	ZHHZ	492	1	blank2r.bmp	572	3	gemein	866	1	!	1292	1	!	-1	0	0	0	0	0	0	0	0	0	0	0	0	0	0	0	0	0	0	0	0	0	0	0	0	0	0	0	0	0	0
071019	10:10:17	10:15:06	288519	5.0.10.0	5_exp_RW	33	Rpleas_acq	CS_A	YFFY	JQQJ	ZHHZ	LWWL	CPPC	DXXD	sonnig	gütig	genießen	küssen	vertrauen	träumen	sterben	gierig	gemein	krank	versagen	töten	1	acq_USpleas_CSpleas2_RW	acq3_RW	3	20	453	0	300	300	1225	50	0	1	1	blank2r.bmp	0	1	+	0	1	blank2r.bmp	492	1	JQQJ	492	1	blank2r.bmp	572	1	küssen	866	1	!	1292	1	!	-1	0	0	0	0	0	0	0	0	0	0	0	0	0	0	0	0	0	0	0	0	0	0	0	0	0	0	0	0	0	0
071019	10:10:17	10:15:09	291411	5.0.10.0	5_exp_RW	33	Rpleas_acq	CS_A	YFFY	JQQJ	ZHHZ	LWWL	CPPC	DXXD	sonnig	gütig	genießen	küssen	vertrauen	träumen	sterben	gierig	gemein	krank	versagen	töten	1	acq_USunple_CSunple1_RW	acq3_RW	3	21	453	0	300	300	1114	46	0	1	1	blank2r.bmp	0	1	+	0	1	blank2r.bmp	492	1	ZHHZ	492	1	blank2r.bmp	572	2	gierig	866	1	!	1292	1	!	-1	0	0	0	0	0	0	0	0	0	0	0	0	0	0	0	0	0	0	0	0	0	0	0	0	0	0	0	0	0	0
071019	10:10:17	10:15:12	294276	5.0.10.0	5_exp_RW	33	Rpleas_acq	CS_A	YFFY	JQQJ	ZHHZ	LWWL	CPPC	DXXD	sonnig	gütig	genießen	küssen	vertrauen	träumen	sterben	gierig	gemein	krank	versagen	töten	1	acq_USunple_CSunple2_RW	acq3_RW	3	22	453	0	300	300	1074	46	0	1	1	blank2r.bmp	0	1	+	0	1	blank2r.bmp	492	1	LWWL	492	1	blank2r.bmp	572	1	krank	866	1	!	1292	1	!	-1	0	0	0	0	0	0	0	0	0	0	0	0	0	0	0	0	0	0	0	0	0	0	0	0	0	0	0	0	0	0
071019	10:10:17	10:15:14	297142	5.0.10.0	5_exp_RW	33	Rpleas_acq	CS_A	YFFY	JQQJ	ZHHZ	LWWL	CPPC	DXXD	sonnig	gütig	genießen	küssen	vertrauen	träumen	sterben	gierig	gemein	krank	versagen	töten	1	acq_USpleas_CSpleas1_RW	acq3_RW	3	23	453	0	300	300	1085	50	0	1	1	blank2r.bmp	0	1	+	0	1	blank2r.bmp	492	1	YFFY	492	1	blank2r.bmp	572	2	gütig	866	1	!	1292	1	!	-1	0	0	0	0	0	0	0	0	0	0	0	0	0	0	0	0	0	0	0	0	0	0	0	0	0	0	0	0	0	0
071019	10:10:17	10:15:17	299914	5.0.10.0	5_exp_RW	33	Rpleas_acq	CS_A	YFFY	JQQJ	ZHHZ	LWWL	CPPC	DXXD	sonnig	gütig	genießen	küssen	vertrauen	träumen	sterben	gierig	gemein	krank	versagen	töten	1	acq_USpleas_CSpleas2_RW	acq3_RW	3	24	453	0	300	300	995	50	0	1	1	blank2r.bmp	0	1	+	0	1	blank2r.bmp	492	1	JQQJ	492	1	blank2r.bmp	572	2	vertrauen	866	1	!	1292	1	!	-1	0	0	0	0	0	0	0	0	0	0	0	0	0	0	0	0	0	0	0	0	0	0	0	0	0	0	0	0	0	0
071019	10:10:17	10:15:34	316920	5.0.10.0	5_exp_RW	33	Rpleas_acq	CS_A	YFFY	JQQJ	ZHHZ	LWWL	CPPC	DXXD	sonnig	gütig	genießen	küssen	vertrauen	träumen	sterben	gierig	gemein	krank	versagen	töten	1	acq_USpleas_CSpleas2_RW	acq4567_RW	4	1	400	0	300	300	1061	50	0	1	1	blank2r.bmp	0	1	+	0	1	blank2r.bmp	492	1	JQQJ	492	1	blank2r.bmp	572	1	küssen	866	1	!	1239	1	!	-1	0	0	0	0	0	0	0	0	0	0	0	0	0	0	0	0	0	0	0	0	0	0	0	0	0	0	0	0	0	0
071019	10:10:17	10:15:37	319879	5.0.10.0	5_exp_RW	33	Rpleas_acq	CS_A	YFFY	JQQJ	ZHHZ	LWWL	CPPC	DXXD	sonnig	gütig	genießen	küssen	vertrauen	träumen	sterben	gierig	gemein	krank	versagen	töten	1	acq_USunple_CSunple2_RW	acq4567_RW	4	2	400	0	300	300	1181	46	0	1	1	blank2r.bmp	0	1	+	0	1	blank2r.bmp	492	1	LWWL	492	1	blank2r.bmp	572	3	töten	866	1	!	1239	1	!	-1	0	0	0	0	0	0	0	0	0	0	0	0	0	0	0	0	0	0	0	0	0	0	0	0	0	0	0	0	0	0
071019	10:10:17	10:15:40	322744	5.0.10.0	5_exp_RW	33	Rpleas_acq	CS_A	YFFY	JQQJ	ZHHZ	LWWL	CPPC	DXXD	sonnig	gütig	genießen	küssen	vertrauen	träumen	sterben	gierig	gemein	krank	versagen	töten	1	acq_USpleas_CSpleas1_RW	acq4567_RW	4	3	400	0	300	300	1064	50	0	1	1	blank2r.bmp	0	1	+	0	1	blank2r.bmp	492	1	YFFY	492	1	blank2r.bmp	572	1	sonnig	866	1	!	1239	1	!	-1	0	0	0	0	0	0	0	0	0	0	0	0	0	0	0	0	0	0	0	0	0	0	0	0	0	0	0	0	0	0
071019	10:10:17	10:15:43	325663	5.0.10.0	5_exp_RW	33	Rpleas_acq	CS_A	YFFY	JQQJ	ZHHZ	LWWL	CPPC	DXXD	sonnig	gütig	genießen	küssen	vertrauen	träumen	sterben	gierig	gemein	krank	versagen	töten	1	acq_USunple_CSunple1_RW	acq4567_RW	4	4	400	0	300	300	1137	46	0	1	1	blank2r.bmp	0	1	+	0	1	blank2r.bmp	492	1	ZHHZ	492	1	blank2r.bmp	572	1	sterben	866	1	!	1239	1	!	-1	0	0	0	0	0	0	0	0	0	0	0	0	0	0	0	0	0	0	0	0	0	0	0	0	0	0	0	0	0	0
071019	10:10:17	10:15:46	328662	5.0.10.0	5_exp_RW	33	Rpleas_acq	CS_A	YFFY	JQQJ	ZHHZ	LWWL	CPPC	DXXD	sonnig	gütig	genießen	küssen	vertrauen	träumen	sterben	gierig	gemein	krank	versagen	töten	1	acq_USunple_CSunple2_RW	acq4567_RW	4	5	400	0	300	300	1217	46	0	1	1	blank2r.bmp	0	1	+	0	1	blank2r.bmp	492	1	LWWL	492	1	blank2r.bmp	572	2	versagen	866	1	!	1239	1	!	-1	0	0	0	0	0	0	0	0	0	0	0	0	0	0	0	0	0	0	0	0	0	0	0	0	0	0	0	0	0	0
071019	10:10:17	10:15:49	331780	5.0.10.0	5_exp_RW	33	Rpleas_acq	CS_A	YFFY	JQQJ	ZHHZ	LWWL	CPPC	DXXD	sonnig	gütig	genießen	küssen	vertrauen	träumen	sterben	gierig	gemein	krank	versagen	töten	1	acq_USunple_CSunple1_RW	acq4567_RW	4	6	400	0	300	300	1329	46	0	1	1	blank2r.bmp	0	1	+	0	1	blank2r.bmp	492	1	ZHHZ	492	1	blank2r.bmp	572	3	gemein	866	1	!	1239	1	!	-1	0	0	0	0	0	0	0	0	0	0	0	0	0	0	0	0	0	0	0	0	0	0	0	0	0	0	0	0	0	0
071019	10:10:17	10:15:52	334646	5.0.10.0	5_exp_RW	33	Rpleas_acq	CS_A	YFFY	JQQJ	ZHHZ	LWWL	CPPC	DXXD	sonnig	gütig	genießen	küssen	vertrauen	träumen	sterben	gierig	gemein	krank	versagen	töten	1	acq_USpleas_CSpleas2_RW	acq4567_RW	4	7	400	0	300	300	1089	50	0	1	1	blank2r.bmp	0	1	+	0	1	blank2r.bmp	492	1	JQQJ	492	1	blank2r.bmp	572	3	träumen	866	1	!	1239	1	!	-1	0	0	0	0	0	0	0	0	0	0	0	0	0	0	0	0	0	0	0	0	0	0	0	0	0	0	0	0	0	0
071019	10:10:17	10:15:55	337698	5.0.10.0	5_exp_RW	33	Rpleas_acq	CS_A	YFFY	JQQJ	ZHHZ	LWWL	CPPC	DXXD	sonnig	gütig	genießen	küssen	vertrauen	träumen	sterben	gierig	gemein	krank	versagen	töten	1	acq_USunple_CSunple1_RW	acq4567_RW	4	8	400	0	300	300	1268	46	0	1	1	blank2r.bmp	0	1	+	0	1	blank2r.bmp	492	1	ZHHZ	492	1	blank2r.bmp	572	2	gierig	866	1	!	1239	1	!	-1	0	0	0	0	0	0	0	0	0	0	0	0	0	0	0	0	0	0	0	0	0	0	0	0	0	0	0	0	0	0
071019	10:10:17	10:15:58	340590	5.0.10.0	5_exp_RW	33	Rpleas_acq	CS_A	YFFY	JQQJ	ZHHZ	LWWL	CPPC	DXXD	sonnig	gütig	genießen	küssen	vertrauen	träumen	sterben	gierig	gemein	krank	versagen	töten	1	acq_USunple_CSunple2_RW	acq4567_RW	4	9	400	0	300	300	1105	46	0	1	1	blank2r.bmp	0	1	+	0	1	blank2r.bmp	492	1	LWWL	492	1	blank2r.bmp	572	3	töten	866	1	!	1239	1	!	-1	0	0	0	0	0	0	0	0	0	0	0	0	0	0	0	0	0	0	0	0	0	0	0	0	0	0	0	0	0	0
071019	10:10:17	10:16:01	343482	5.0.10.0	5_exp_RW	33	Rpleas_acq	CS_A	YFFY	JQQJ	ZHHZ	LWWL	CPPC	DXXD	sonnig	gütig	genießen	küssen	vertrauen	träumen	sterben	gierig	gemein	krank	versagen	töten	1	acq_USpleas_CSpleas2_RW	acq4567_RW	4	10	400	0	300	300	1105	50	0	1	1	blank2r.bmp	0	1	+	0	1	blank2r.bmp	492	1	JQQJ	492	1	blank2r.bmp	572	1	küssen	866	1	!	1239	1	!	-1	0	0	0	0	0	0	0	0	0	0	0	0	0	0	0	0	0	0	0	0	0	0	0	0	0	0	0	0	0	0
071019	10:10:17	10:16:04	346534	5.0.10.0	5_exp_RW	33	Rpleas_acq	CS_A	YFFY	JQQJ	ZHHZ	LWWL	CPPC	DXXD	sonnig	gütig	genießen	küssen	vertrauen	träumen	sterben	gierig	gemein	krank	versagen	töten	1	acq_USpleas_CSpleas2_RW	acq4567_RW	4	11	400	0	300	300	1252	50	0	1	1	blank2r.bmp	0	1	+	0	1	blank2r.bmp	492	1	JQQJ	492	1	blank2r.bmp	572	3	träumen	866	1	!	1239	1	!	-1	0	0	0	0	0	0	0	0	0	0	0	0	0	0	0	0	0	0	0	0	0	0	0	0	0	0	0	0	0	0
071019	10:10:17	10:16:07	349346	5.0.10.0	5_exp_RW	33	Rpleas_acq	CS_A	YFFY	JQQJ	ZHHZ	LWWL	CPPC	DXXD	sonnig	gütig	genießen	küssen	vertrauen	träumen	sterben	gierig	gemein	krank	versagen	töten	1	acq_USpleas_CSpleas2_RW	acq4567_RW	4	12	400	0	300	300	1034	50	0	1	1	blank2r.bmp	0	1	+	0	1	blank2r.bmp	492	1	JQQJ	492	1	blank2r.bmp	572	2	vertrauen	866	1	!	1239	1	!	-1	0	0	0	0	0	0	0	0	0	0	0	0	0	0	0	0	0	0	0	0	0	0	0	0	0	0	0	0	0	0
071019	10:10:17	10:16:10	352225	5.0.10.0	5_exp_RW	33	Rpleas_acq	CS_A	YFFY	JQQJ	ZHHZ	LWWL	CPPC	DXXD	sonnig	gütig	genießen	küssen	vertrauen	träumen	sterben	gierig	gemein	krank	versagen	töten	1	acq_USpleas_CSpleas1_RW	acq4567_RW	4	13	400	0	300	300	1084	50	0	1	1	blank2r.bmp	0	1	+	0	1	blank2r.bmp	492	1	YFFY	492	1	blank2r.bmp	572	3	genießen	866	1	!	1239	1	!	-1	0	0	0	0	0	0	0	0	0	0	0	0	0	0	0	0	0	0	0	0	0	0	0	0	0	0	0	0	0	0
071019	10:10:17	10:16:12	355131	5.0.10.0	5_exp_RW	33	Rpleas_acq	CS_A	YFFY	JQQJ	ZHHZ	LWWL	CPPC	DXXD	sonnig	gütig	genießen	küssen	vertrauen	träumen	sterben	gierig	gemein	krank	versagen	töten	1	acq_USpleas_CSpleas1_RW	acq4567_RW	4	14	400	0	300	300	1125	50	0	1	1	blank2r.bmp	0	1	+	0	1	blank2r.bmp	492	1	YFFY	492	1	blank2r.bmp	572	3	genießen	866	1	!	1239	1	!	-1	0	0	0	0	0	0	0	0	0	0	0	0	0	0	0	0	0	0	0	0	0	0	0	0	0	0	0	0	0	0
071019	10:10:17	10:16:15	357930	5.0.10.0	5_exp_RW	33	Rpleas_acq	CS_A	YFFY	JQQJ	ZHHZ	LWWL	CPPC	DXXD	sonnig	gütig	genießen	küssen	vertrauen	träumen	sterben	gierig	gemein	krank	versagen	töten	1	acq_USunple_CSunple1_RW	acq4567_RW	4	15	400	0	300	300	1019	46	0	1	1	blank2r.bmp	0	1	+	0	1	blank2r.bmp	492	1	ZHHZ	492	1	blank2r.bmp	572	3	gemein	866	1	!	1239	1	!	-1	0	0	0	0	0	0	0	0	0	0	0	0	0	0	0	0	0	0	0	0	0	0	0	0	0	0	0	0	0	0
071019	10:10:17	10:16:18	360768	5.0.10.0	5_exp_RW	33	Rpleas_acq	CS_A	YFFY	JQQJ	ZHHZ	LWWL	CPPC	DXXD	sonnig	gütig	genießen	küssen	vertrauen	träumen	sterben	gierig	gemein	krank	versagen	töten	1	acq_USunple_CSunple2_RW	acq4567_RW	4	16	400	0	300	300	1063	46	0	1	1	blank2r.bmp	0	1	+	0	1	blank2r.bmp	492	1	LWWL	492	1	blank2r.bmp	572	1	krank	866	1	!	1239	1	!	-1	0	0	0	0	0	0	0	0	0	0	0	0	0	0	0	0	0	0	0	0	0	0	0	0	0	0	0	0	0	0
071019	10:10:17	10:16:21	363634	5.0.10.0	5_exp_RW	33	Rpleas_acq	CS_A	YFFY	JQQJ	ZHHZ	LWWL	CPPC	DXXD	sonnig	gütig	genießen	küssen	vertrauen	träumen	sterben	gierig	gemein	krank	versagen	töten	1	acq_USpleas_CSpleas1_RW	acq4567_RW	4	17	400	0	300	300	1084	50	0	1	1	blank2r.bmp	0	1	+	0	1	blank2r.bmp	492	1	YFFY	492	1	blank2r.bmp	572	2	gütig	866	1	!	1239	1	!	-1	0	0	0	0	0	0	0	0	0	0	0	0	0	0	0	0	0	0	0	0	0	0	0	0	0	0	0	0	0	0
071019	10:10:17	10:16:24	366539	5.0.10.0	5_exp_RW	33	Rpleas_acq	CS_A	YFFY	JQQJ	ZHHZ	LWWL	CPPC	DXXD	sonnig	gütig	genießen	küssen	vertrauen	träumen	sterben	gierig	gemein	krank	versagen	töten	1	acq_USpleas_CSpleas1_RW	acq4567_RW	4	18	400	0	300	300	1123	50	0	1	1	blank2r.bmp	0	1	+	0	1	blank2r.bmp	492	1	YFFY	492	1	blank2r.bmp	572	1	sonnig	866	1	!	1239	1	!	-1	0	0	0	0	0	0	0	0	0	0	0	0	0	0	0	0	0	0	0	0	0	0	0	0	0	0	0	0	0	0
071019	10:10:17	10:16:27	369485	5.0.10.0	5_exp_RW	33	Rpleas_acq	CS_A	YFFY	JQQJ	ZHHZ	LWWL	CPPC	DXXD	sonnig	gütig	genießen	küssen	vertrauen	träumen	sterben	gierig	gemein	krank	versagen	töten	1	acq_USunple_CSunple1_RW	acq4567_RW	4	19	400	0	300	300	1149	46	0	1	1	blank2r.bmp	0	1	+	0	1	blank2r.bmp	492	1	ZHHZ	492	1	blank2r.bmp	572	1	sterben	866	1	!	1239	1	!	-1	0	0	0	0	0	0	0	0	0	0	0	0	0	0	0	0	0	0	0	0	0	0	0	0	0	0	0	0	0	0
071019	10:10:17	10:16:30	372337	5.0.10.0	5_exp_RW	33	Rpleas_acq	CS_A	YFFY	JQQJ	ZHHZ	LWWL	CPPC	DXXD	sonnig	gütig	genießen	küssen	vertrauen	träumen	sterben	gierig	gemein	krank	versagen	töten	1	acq_USunple_CSunple2_RW	acq4567_RW	4	20	400	0	300	300	1070	46	0	1	1	blank2r.bmp	0	1	+	0	1	blank2r.bmp	492	1	LWWL	492	1	blank2r.bmp	572	2	versagen	866	1	!	1239	1	!	-1	0	0	0	0	0	0	0	0	0	0	0	0	0	0	0	0	0	0	0	0	0	0	0	0	0	0	0	0	0	0
071019	10:10:17	10:16:33	375149	5.0.10.0	5_exp_RW	33	Rpleas_acq	CS_A	YFFY	JQQJ	ZHHZ	LWWL	CPPC	DXXD	sonnig	gütig	genießen	küssen	vertrauen	träumen	sterben	gierig	gemein	krank	versagen	töten	1	acq_USpleas_CSpleas1_RW	acq4567_RW	4	21	400	0	300	300	1027	50	0	1	1	blank2r.bmp	0	1	+	0	1	blank2r.bmp	492	1	YFFY	492	1	blank2r.bmp	572	1	sonnig	866	1	!	1239	1	!	-1	0	0	0	0	0	0	0	0	0	0	0	0	0	0	0	0	0	0	0	0	0	0	0	0	0	0	0	0	0	0
071019	10:10:17	10:16:35	378054	5.0.10.0	5_exp_RW	33	Rpleas_acq	CS_A	YFFY	JQQJ	ZHHZ	LWWL	CPPC	DXXD	sonnig	gütig	genießen	küssen	vertrauen	träumen	sterben	gierig	gemein	krank	versagen	töten	1	acq_USunple_CSunple1_RW	acq4567_RW	4	22	400	0	300	300	1117	46	0	1	1	blank2r.bmp	0	1	+	0	1	blank2r.bmp	492	1	ZHHZ	492	1	blank2r.bmp	572	3	gemein	866	1	!	1239	1	!	-1	0	0	0	0	0	0	0	0	0	0	0	0	0	0	0	0	0	0	0	0	0	0	0	0	0	0	0	0	0	0
071019	10:10:17	10:16:38	380840	5.0.10.0	5_exp_RW	33	Rpleas_acq	CS_A	YFFY	JQQJ	ZHHZ	LWWL	CPPC	DXXD	sonnig	gütig	genießen	küssen	vertrauen	träumen	sterben	gierig	gemein	krank	versagen	töten	1	acq_USpleas_CSpleas1_RW	acq4567_RW	4	23	400	0	300	300	1004	50	0	1	1	blank2r.bmp	0	1	+	0	1	blank2r.bmp	492	1	YFFY	492	1	blank2r.bmp	572	3	genießen	866	1	!	1239	1	!	-1	0	0	0	0	0	0	0	0	0	0	0	0	0	0	0	0	0	0	0	0	0	0	0	0	0	0	0	0	0	0
071019	10:10:17	10:16:41	383599	5.0.10.0	5_exp_RW	33	Rpleas_acq	CS_A	YFFY	JQQJ	ZHHZ	LWWL	CPPC	DXXD	sonnig	gütig	genießen	küssen	vertrauen	träumen	sterben	gierig	gemein	krank	versagen	töten	1	acq_USunple_CSunple1_RW	acq4567_RW	4	24	400	0	300	300	972	46	0	1	1	blank2r.bmp	0	1	+	0	1	blank2r.bmp	492	1	ZHHZ	492	1	blank2r.bmp	572	2	gierig	866	1	!	1239	1	!	-1	0	0	0	0	0	0	0	0	0	0	0	0	0	0	0	0	0	0	0	0	0	0	0	0	0	0	0	0	0	0
071019	10:10:17	10:16:44	386358	5.0.10.0	5_exp_RW	33	Rpleas_acq	CS_A	YFFY	JQQJ	ZHHZ	LWWL	CPPC	DXXD	sonnig	gütig	genießen	küssen	vertrauen	träumen	sterben	gierig	gemein	krank	versagen	töten	1	acq_USpleas_CSpleas1_RW	acq4567_RW	4	25	400	0	300	300	980	50	0	1	1	blank2r.bmp	0	1	+	0	1	blank2r.bmp	492	1	YFFY	492	1	blank2r.bmp	572	2	gütig	866	1	!	1239	1	!	-1	0	0	0	0	0	0	0	0	0	0	0	0	0	0	0	0	0	0	0	0	0	0	0	0	0	0	0	0	0	0
071019	10:10:17	10:16:47	389196	5.0.10.0	5_exp_RW	33	Rpleas_acq	CS_A	YFFY	JQQJ	ZHHZ	LWWL	CPPC	DXXD	sonnig	gütig	genießen	küssen	vertrauen	träumen	sterben	gierig	gemein	krank	versagen	töten	1	acq_USunple_CSunple2_RW	acq4567_RW	4	26	400	0	300	300	1054	46	0	1	1	blank2r.bmp	0	1	+	0	1	blank2r.bmp	492	1	LWWL	492	1	blank2r.bmp	572	3	töten	866	1	!	1239	1	!	-1	0	0	0	0	0	0	0	0	0	0	0	0	0	0	0	0	0	0	0	0	0	0	0	0	0	0	0	0	0	0
071019	10:10:17	10:16:50	392142	5.0.10.0	5_exp_RW	33	Rpleas_acq	CS_A	YFFY	JQQJ	ZHHZ	LWWL	CPPC	DXXD	sonnig	gütig	genießen	küssen	vertrauen	träumen	sterben	gierig	gemein	krank	versagen	töten	1	acq_USpleas_CSpleas2_RW	acq4567_RW	4	27	400	0	300	300	1164	50	0	1	1	blank2r.bmp	0	1	+	0	1	blank2r.bmp	492	1	JQQJ	492	1	blank2r.bmp	572	3	träumen	866	1	!	1239	1	!	-1	0	0	0	0	0	0	0	0	0	0	0	0	0	0	0	0	0	0	0	0	0	0	0	0	0	0	0	0	0	0
071019	10:10:17	10:16:52	394981	5.0.10.0	5_exp_RW	33	Rpleas_acq	CS_A	YFFY	JQQJ	ZHHZ	LWWL	CPPC	DXXD	sonnig	gütig	genießen	küssen	vertrauen	träumen	sterben	gierig	gemein	krank	versagen	töten	1	acq_USunple_CSunple2_RW	acq4567_RW	4	28	400	0	300	300	1060	46	0	1	1	blank2r.bmp	0	1	+	0	1	blank2r.bmp	492	1	LWWL	492	1	blank2r.bmp	572	2	versagen	866	1	!	1239	1	!	-1	0	0	0	0	0	0	0	0	0	0	0	0	0	0	0	0	0	0	0	0	0	0	0	0	0	0	0	0	0	0
071019	10:10:17	10:16:55	397660	5.0.10.0	5_exp_RW	33	Rpleas_acq	CS_A	YFFY	JQQJ	ZHHZ	LWWL	CPPC	DXXD	sonnig	gütig	genießen	küssen	vertrauen	träumen	sterben	gierig	gemein	krank	versagen	töten	1	acq_USpleas_CSpleas2_RW	acq4567_RW	4	29	400	0	300	300	901	50	0	1	1	blank2r.bmp	0	1	+	0	1	blank2r.bmp	492	1	JQQJ	492	1	blank2r.bmp	572	2	vertrauen	866	1	!	1239	1	!	-1	0	0	0	0	0	0	0	0	0	0	0	0	0	0	0	0	0	0	0	0	0	0	0	0	0	0	0	0	0	0
071019	10:10:17	10:16:58	400512	5.0.10.0	5_exp_RW	33	Rpleas_acq	CS_A	YFFY	JQQJ	ZHHZ	LWWL	CPPC	DXXD	sonnig	gütig	genießen	küssen	vertrauen	träumen	sterben	gierig	gemein	krank	versagen	töten	1	acq_USunple_CSunple2_RW	acq4567_RW	4	30	400	0	300	300	1052	46	0	1	1	blank2r.bmp	0	1	+	0	1	blank2r.bmp	492	1	LWWL	492	1	blank2r.bmp	572	1	krank	866	1	!	1239	1	!	-1	0	0	0	0	0	0	0	0	0	0	0	0	0	0	0	0	0	0	0	0	0	0	0	0	0	0	0	0	0	0
071019	10:10:17	10:17:01	403284	5.0.10.0	5_exp_RW	33	Rpleas_acq	CS_A	YFFY	JQQJ	ZHHZ	LWWL	CPPC	DXXD	sonnig	gütig	genießen	küssen	vertrauen	träumen	sterben	gierig	gemein	krank	versagen	töten	1	acq_USpleas_CSpleas2_RW	acq4567_RW	4	31	400	0	300	300	997	50	0	1	1	blank2r.bmp	0	1	+	0	1	blank2r.bmp	492	1	JQQJ	492	1	blank2r.bmp	572	1	küssen	866	1	!	1239	1	!	-1	0	0	0	0	0	0	0	0	0	0	0	0	0	0	0	0	0	0	0	0	0	0	0	0	0	0	0	0	0	0
071019	10:10:17	10:17:03	406056	5.0.10.0	5_exp_RW	33	Rpleas_acq	CS_A	YFFY	JQQJ	ZHHZ	LWWL	CPPC	DXXD	sonnig	gütig	genießen	küssen	vertrauen	träumen	sterben	gierig	gemein	krank	versagen	töten	1	acq_USpleas_CSpleas1_RW	acq4567_RW	4	32	400	0	300	300	994	50	0	1	1	blank2r.bmp	0	1	+	0	1	blank2r.bmp	492	1	YFFY	492	1	blank2r.bmp	572	3	genießen	866	1	!	1239	1	!	-1	0	0	0	0	0	0	0	0	0	0	0	0	0	0	0	0	0	0	0	0	0	0	0	0	0	0	0	0	0	0
071019	10:10:17	10:17:06	408802	5.0.10.0	5_exp_RW	33	Rpleas_acq	CS_A	YFFY	JQQJ	ZHHZ	LWWL	CPPC	DXXD	sonnig	gütig	genießen	küssen	vertrauen	träumen	sterben	gierig	gemein	krank	versagen	töten	1	acq_USunple_CSunple1_RW	acq4567_RW	4	33	400	0	300	300	969	46	0	1	1	blank2r.bmp	0	1	+	0	1	blank2r.bmp	492	1	ZHHZ	492	1	blank2r.bmp	572	1	sterben	866	1	!	1239	1	!	-1	0	0	0	0	0	0	0	0	0	0	0	0	0	0	0	0	0	0	0	0	0	0	0	0	0	0	0	0	0	0
071019	10:10:17	10:17:09	411520	5.0.10.0	5_exp_RW	33	Rpleas_acq	CS_A	YFFY	JQQJ	ZHHZ	LWWL	CPPC	DXXD	sonnig	gütig	genießen	küssen	vertrauen	träumen	sterben	gierig	gemein	krank	versagen	töten	1	acq_USpleas_CSpleas1_RW	acq4567_RW	4	34	400	0	300	300	943	50	0	1	1	blank2r.bmp	0	1	+	0	1	blank2r.bmp	492	1	YFFY	492	1	blank2r.bmp	572	2	gütig	866	1	!	1239	1	!	-1	0	0	0	0	0	0	0	0	0	0	0	0	0	0	0	0	0	0	0	0	0	0	0	0	0	0	0	0	0	0
071019	10:10:17	10:17:12	414333	5.0.10.0	5_exp_RW	33	Rpleas_acq	CS_A	YFFY	JQQJ	ZHHZ	LWWL	CPPC	DXXD	sonnig	gütig	genießen	küssen	vertrauen	träumen	sterben	gierig	gemein	krank	versagen	töten	1	acq_USunple_CSunple2_RW	acq4567_RW	4	35	400	0	300	300	1034	46	0	1	1	blank2r.bmp	0	1	+	0	1	blank2r.bmp	492	1	LWWL	492	1	blank2r.bmp	572	3	töten	866	1	!	1239	1	!	-1	0	0	0	0	0	0	0	0	0	0	0	0	0	0	0	0	0	0	0	0	0	0	0	0	0	0	0	0	0	0
071019	10:10:17	10:17:15	417331	5.0.10.0	5_exp_RW	33	Rpleas_acq	CS_A	YFFY	JQQJ	ZHHZ	LWWL	CPPC	DXXD	sonnig	gütig	genießen	küssen	vertrauen	träumen	sterben	gierig	gemein	krank	versagen	töten	1	acq_USpleas_CSpleas2_RW	acq4567_RW	4	36	400	0	300	300	1221	50	0	1	1	blank2r.bmp	0	1	+	0	1	blank2r.bmp	492	1	JQQJ	492	1	blank2r.bmp	572	3	träumen	866	1	!	1239	1	!	-1	0	0	0	0	0	0	0	0	0	0	0	0	0	0	0	0	0	0	0	0	0	0	0	0	0	0	0	0	0	0
071019	10:10:17	10:17:17	420117	5.0.10.0	5_exp_RW	33	Rpleas_acq	CS_A	YFFY	JQQJ	ZHHZ	LWWL	CPPC	DXXD	sonnig	gütig	genießen	küssen	vertrauen	träumen	sterben	gierig	gemein	krank	versagen	töten	1	acq_USpleas_CSpleas2_RW	acq4567_RW	4	37	400	0	300	300	980	50	0	1	1	blank2r.bmp	0	1	+	0	1	blank2r.bmp	492	1	JQQJ	492	1	blank2r.bmp	572	2	vertrauen	866	1	!	1239	1	!	-1	0	0	0	0	0	0	0	0	0	0	0	0	0	0	0	0	0	0	0	0	0	0	0	0	0	0	0	0	0	0
071019	10:10:17	10:17:20	422836	5.0.10.0	5_exp_RW	33	Rpleas_acq	CS_A	YFFY	JQQJ	ZHHZ	LWWL	CPPC	DXXD	sonnig	gütig	genießen	küssen	vertrauen	träumen	sterben	gierig	gemein	krank	versagen	töten	1	acq_USunple_CSunple2_RW	acq4567_RW	4	38	400	0	300	300	945	46	0	1	1	blank2r.bmp	0	1	+	0	1	blank2r.bmp	492	1	LWWL	492	1	blank2r.bmp	572	1	krank	866	1	!	1239	1	!	-1	0	0	0	0	0	0	0	0	0	0	0	0	0	0	0	0	0	0	0	0	0	0	0	0	0	0	0	0	0	0
071019	10:10:17	10:17:23	425741	5.0.10.0	5_exp_RW	33	Rpleas_acq	CS_A	YFFY	JQQJ	ZHHZ	LWWL	CPPC	DXXD	sonnig	gütig	genießen	küssen	vertrauen	träumen	sterben	gierig	gemein	krank	versagen	töten	1	acq_USunple_CSunple1_RW	acq4567_RW	4	39	400	0	300	300	1120	46	0	1	1	blank2r.bmp	0	1	+	0	1	blank2r.bmp	492	1	ZHHZ	492	1	blank2r.bmp	572	3	gemein	866	1	!	1239	1	!	-1	0	0	0	0	0	0	0	0	0	0	0	0	0	0	0	0	0	0	0	0	0	0	0	0	0	0	0	0	0	0
071019	10:10:17	10:17:26	428647	5.0.10.0	5_exp_RW	33	Rpleas_acq	CS_A	YFFY	JQQJ	ZHHZ	LWWL	CPPC	DXXD	sonnig	gütig	genießen	küssen	vertrauen	träumen	sterben	gierig	gemein	krank	versagen	töten	1	acq_USunple_CSunple1_RW	acq4567_RW	4	40	400	0	300	300	1108	46	0	1	1	blank2r.bmp	0	1	+	0	1	blank2r.bmp	492	1	ZHHZ	492	1	blank2r.bmp	572	1	sterben	866	1	!	1239	1	!	-1	0	0	0	0	0	0	0	0	0	0	0	0	0	0	0	0	0	0	0	0	0	0	0	0	0	0	0	0	0	0
071019	10:10:17	10:17:29	431352	5.0.10.0	5_exp_RW	33	Rpleas_acq	CS_A	YFFY	JQQJ	ZHHZ	LWWL	CPPC	DXXD	sonnig	gütig	genießen	küssen	vertrauen	träumen	sterben	gierig	gemein	krank	versagen	töten	1	acq_USpleas_CSpleas1_RW	acq4567_RW	4	41	400	0	300	300	919	50	0	1	1	blank2r.bmp	0	1	+	0	1	blank2r.bmp	492	1	YFFY	492	1	blank2r.bmp	572	1	sonnig	866	1	!	1239	1	!	-1	0	0	0	0	0	0	0	0	0	0	0	0	0	0	0	0	0	0	0	0	0	0	0	0	0	0	0	0	0	0
071019	10:10:17	10:17:32	434151	5.0.10.0	5_exp_RW	33	Rpleas_acq	CS_A	YFFY	JQQJ	ZHHZ	LWWL	CPPC	DXXD	sonnig	gütig	genießen	küssen	vertrauen	träumen	sterben	gierig	gemein	krank	versagen	töten	1	acq_USunple_CSunple1_RW	acq4567_RW	4	42	400	0	300	300	1013	46	0	1	1	blank2r.bmp	0	1	+	0	1	blank2r.bmp	492	1	ZHHZ	492	1	blank2r.bmp	572	2	gierig	866	1	!	1239	1	!	-1	0	0	0	0	0	0	0	0	0	0	0	0	0	0	0	0	0	0	0	0	0	0	0	0	0	0	0	0	0	0
071019	10:10:17	10:17:34	436817	5.0.10.0	5_exp_RW	33	Rpleas_acq	CS_A	YFFY	JQQJ	ZHHZ	LWWL	CPPC	DXXD	sonnig	gütig	genießen	küssen	vertrauen	träumen	sterben	gierig	gemein	krank	versagen	töten	1	acq_USpleas_CSpleas2_RW	acq4567_RW	4	43	400	0	300	300	878	50	0	1	1	blank2r.bmp	0	1	+	0	1	blank2r.bmp	492	1	JQQJ	492	1	blank2r.bmp	572	1	küssen	866	1	!	1239	1	!	-1	0	0	0	0	0	0	0	0	0	0	0	0	0	0	0	0	0	0	0	0	0	0	0	0	0	0	0	0	0	0
071019	10:10:17	10:17:37	439762	5.0.10.0	5_exp_RW	33	Rpleas_acq	CS_A	YFFY	JQQJ	ZHHZ	LWWL	CPPC	DXXD	sonnig	gütig	genießen	küssen	vertrauen	träumen	sterben	gierig	gemein	krank	versagen	töten	1	acq_USunple_CSunple2_RW	acq4567_RW	4	44	400	0	300	300	1151	46	0	1	1	blank2r.bmp	0	1	+	0	1	blank2r.bmp	492	1	LWWL	492	1	blank2r.bmp	572	2	versagen	866	1	!	1239	1	!	-1	0	0	0	0	0	0	0	0	0	0	0	0	0	0	0	0	0	0	0	0	0	0	0	0	0	0	0	0	0	0
071019	10:10:17	10:17:40	442374	5.0.10.0	5_exp_RW	33	Rpleas_acq	CS_A	YFFY	JQQJ	ZHHZ	LWWL	CPPC	DXXD	sonnig	gütig	genießen	küssen	vertrauen	träumen	sterben	gierig	gemein	krank	versagen	töten	1	acq_USpleas_CSpleas1_RW	acq4567_RW	4	45	400	0	300	300	834	50	0	1	1	blank2r.bmp	0	1	+	0	1	blank2r.bmp	492	1	YFFY	492	1	blank2r.bmp	572	2	gütig	866	1	!	1239	1	!	-1	0	0	0	0	0	0	0	0	0	0	0	0	0	0	0	0	0	0	0	0	0	0	0	0	0	0	0	0	0	0
071019	10:10:17	10:17:42	444973	5.0.10.0	5_exp_RW	33	Rpleas_acq	CS_A	YFFY	JQQJ	ZHHZ	LWWL	CPPC	DXXD	sonnig	gütig	genießen	küssen	vertrauen	träumen	sterben	gierig	gemein	krank	versagen	töten	1	acq_USunple_CSunple2_RW	acq4567_RW	4	46	400	0	300	300	816	46	0	1	1	blank2r.bmp	0	1	+	0	1	blank2r.bmp	492	1	LWWL	492	1	blank2r.bmp	572	2	versagen	866	1	!	1239	1	!	-1	0	0	0	0	0	0	0	0	0	0	0	0	0	0	0	0	0	0	0	0	0	0	0	0	0	0	0	0	0	0
071019	10:10:17	10:17:45	447479	5.0.10.0	5_exp_RW	33	Rpleas_acq	CS_A	YFFY	JQQJ	ZHHZ	LWWL	CPPC	DXXD	sonnig	gütig	genießen	küssen	vertrauen	träumen	sterben	gierig	gemein	krank	versagen	töten	1	acq_USunple_CSunple2_RW	acq4567_RW	4	47	400	0	300	300	723	46	0	1	1	blank2r.bmp	0	1	+	0	1	blank2r.bmp	492	1	LWWL	492	1	blank2r.bmp	572	3	töten	866	1	!	1239	1	!	-1	0	0	0	0	0	0	0	0	0	0	0	0	0	0	0	0	0	0	0	0	0	0	0	0	0	0	0	0	0	0
071019	10:10:17	10:17:47	449998	5.0.10.0	5_exp_RW	33	Rpleas_acq	CS_A	YFFY	JQQJ	ZHHZ	LWWL	CPPC	DXXD	sonnig	gütig	genießen	küssen	vertrauen	träumen	sterben	gierig	gemein	krank	versagen	töten	1	acq_USpleas_CSpleas1_RW	acq4567_RW	4	48	400	0	300	300	732	50	0	1	1	blank2r.bmp	0	1	+	0	1	blank2r.bmp	492	1	YFFY	492	1	blank2r.bmp	572	3	genießen	866	1	!	1239	1	!	-1	0	0	0	0	0	0	0	0	0	0	0	0	0	0	0	0	0	0	0	0	0	0	0	0	0	0	0	0	0	0
071019	10:10:17	10:17:50	452663	5.0.10.0	5_exp_RW	33	Rpleas_acq	CS_A	YFFY	JQQJ	ZHHZ	LWWL	CPPC	DXXD	sonnig	gütig	genießen	küssen	vertrauen	träumen	sterben	gierig	gemein	krank	versagen	töten	1	acq_USunple_CSunple1_RW	acq4567_RW	4	49	400	0	300	300	866	46	0	1	1	blank2r.bmp	0	1	+	0	1	blank2r.bmp	492	1	ZHHZ	492	1	blank2r.bmp	572	3	gemein	866	1	!	1239	1	!	-1	0	0	0	0	0	0	0	0	0	0	0	0	0	0	0	0	0	0	0	0	0	0	0	0	0	0	0	0	0	0
071019	10:10:17	10:17:53	455236	5.0.10.0	5_exp_RW	33	Rpleas_acq	CS_A	YFFY	JQQJ	ZHHZ	LWWL	CPPC	DXXD	sonnig	gütig	genießen	küssen	vertrauen	träumen	sterben	gierig	gemein	krank	versagen	töten	1	acq_USpleas_CSpleas2_RW	acq4567_RW	4	50	400	0	300	300	790	50	0	1	1	blank2r.bmp	0	1	+	0	1	blank2r.bmp	492	1	JQQJ	492	1	blank2r.bmp	572	1	küssen	866	1	!	1239	1	!	-1	0	0	0	0	0	0	0	0	0	0	0	0	0	0	0	0	0	0	0	0	0	0	0	0	0	0	0	0	0	0
071019	10:10:17	10:17:55	457848	5.0.10.0	5_exp_RW	33	Rpleas_acq	CS_A	YFFY	JQQJ	ZHHZ	LWWL	CPPC	DXXD	sonnig	gütig	genießen	küssen	vertrauen	träumen	sterben	gierig	gemein	krank	versagen	töten	1	acq_USpleas_CSpleas2_RW	acq4567_RW	4	51	400	0	300	300	828	50	0	1	1	blank2r.bmp	0	1	+	0	1	blank2r.bmp	492	1	JQQJ	492	1	blank2r.bmp	572	3	träumen	866	1	!	1239	1	!	-1	0	0	0	0	0	0	0	0	0	0	0	0	0	0	0	0	0	0	0	0	0	0	0	0	0	0	0	0	0	0
071019	10:10:17	10:17:58	460433	5.0.10.0	5_exp_RW	33	Rpleas_acq	CS_A	YFFY	JQQJ	ZHHZ	LWWL	CPPC	DXXD	sonnig	gütig	genießen	küssen	vertrauen	träumen	sterben	gierig	gemein	krank	versagen	töten	1	acq_USunple_CSunple1_RW	acq4567_RW	4	52	400	0	300	300	802	46	0	1	1	blank2r.bmp	0	1	+	0	1	blank2r.bmp	492	1	ZHHZ	492	1	blank2r.bmp	572	2	gierig	866	1	!	1239	1	!	-1	0	0	0	0	0	0	0	0	0	0	0	0	0	0	0	0	0	0	0	0	0	0	0	0	0	0	0	0	0	0
071019	10:10:17	10:18:00	462966	5.0.10.0	5_exp_RW	33	Rpleas_acq	CS_A	YFFY	JQQJ	ZHHZ	LWWL	CPPC	DXXD	sonnig	gütig	genießen	küssen	vertrauen	träumen	sterben	gierig	gemein	krank	versagen	töten	1	acq_USpleas_CSpleas1_RW	acq4567_RW	4	53	400	0	300	300	744	50	0	1	1	blank2r.bmp	0	1	+	0	1	blank2r.bmp	492	1	YFFY	492	1	blank2r.bmp	572	1	sonnig	866	1	!	1239	1	!	-1	0	0	0	0	0	0	0	0	0	0	0	0	0	0	0	0	0	0	0	0	0	0	0	0	0	0	0	0	0	0
071019	10:10:17	10:18:03	465644	5.0.10.0	5_exp_RW	33	Rpleas_acq	CS_A	YFFY	JQQJ	ZHHZ	LWWL	CPPC	DXXD	sonnig	gütig	genießen	küssen	vertrauen	träumen	sterben	gierig	gemein	krank	versagen	töten	1	acq_USpleas_CSpleas2_RW	acq4567_RW	4	54	400	0	300	300	898	50	0	1	1	blank2r.bmp	0	1	+	0	1	blank2r.bmp	492	1	JQQJ	492	1	blank2r.bmp	572	2	vertrauen	866	1	!	1239	1	!	-1	0	0	0	0	0	0	0	0	0	0	0	0	0	0	0	0	0	0	0	0	0	0	0	0	0	0	0	0	0	0
071019	10:10:17	10:18:06	468550	5.0.10.0	5_exp_RW	33	Rpleas_acq	CS_A	YFFY	JQQJ	ZHHZ	LWWL	CPPC	DXXD	sonnig	gütig	genießen	küssen	vertrauen	träumen	sterben	gierig	gemein	krank	versagen	töten	1	acq_USunple_CSunple1_RW	acq4567_RW	4	55	400	0	300	300	1106	46	0	1	1	blank2r.bmp	0	1	+	0	1	blank2r.bmp	492	1	ZHHZ	492	1	blank2r.bmp	572	1	sterben	866	1	!	1239	1	!	-1	0	0	0	0	0	0	0	0	0	0	0	0	0	0	0	0	0	0	0	0	0	0	0	0	0	0	0	0	0	0
071019	10:10:17	10:18:09	471349	5.0.10.0	5_exp_RW	33	Rpleas_acq	CS_A	YFFY	JQQJ	ZHHZ	LWWL	CPPC	DXXD	sonnig	gütig	genießen	küssen	vertrauen	träumen	sterben	gierig	gemein	krank	versagen	töten	1	acq_USunple_CSunple2_RW	acq4567_RW	4	56	400	0	300	300	1017	46	0	1	1	blank2r.bmp	0	1	+	0	1	blank2r.bmp	492	1	LWWL	492	1	blank2r.bmp	572	1	krank	866	1	!	1239	1	!	-1	0	0	0	0	0	0	0	0	0	0	0	0	0	0	0	0	0	0	0	0	0	0	0	0	0	0	0	0	0	0
071019	10:10:17	10:18:11	473934	5.0.10.0	5_exp_RW	33	Rpleas_acq	CS_A	YFFY	JQQJ	ZHHZ	LWWL	CPPC	DXXD	sonnig	gütig	genießen	küssen	vertrauen	träumen	sterben	gierig	gemein	krank	versagen	töten	1	acq_USpleas_CSpleas2_RW	acq4567_RW	4	57	400	0	300	300	801	50	0	1	1	blank2r.bmp	0	1	+	0	1	blank2r.bmp	492	1	JQQJ	492	1	blank2r.bmp	572	1	küssen	866	1	!	1239	1	!	-1	0	0	0	0	0	0	0	0	0	0	0	0	0	0	0	0	0	0	0	0	0	0	0	0	0	0	0	0	0	0
071019	10:10:17	10:18:14	476480	5.0.10.0	5_exp_RW	33	Rpleas_acq	CS_A	YFFY	JQQJ	ZHHZ	LWWL	CPPC	DXXD	sonnig	gütig	genießen	küssen	vertrauen	träumen	sterben	gierig	gemein	krank	versagen	töten	1	acq_USunple_CSunple1_RW	acq4567_RW	4	58	400	0	300	300	760	46	0	1	1	blank2r.bmp	0	1	+	0	1	blank2r.bmp	492	1	ZHHZ	492	1	blank2r.bmp	572	2	gierig	866	1	!	1239	1	!	-1	0	0	0	0	0	0	0	0	0	0	0	0	0	0	0	0	0	0	0	0	0	0	0	0	0	0	0	0	0	0
071019	10:10:17	10:18:17	479265	5.0.10.0	5_exp_RW	33	Rpleas_acq	CS_A	YFFY	JQQJ	ZHHZ	LWWL	CPPC	DXXD	sonnig	gütig	genießen	küssen	vertrauen	träumen	sterben	gierig	gemein	krank	versagen	töten	1	acq_USpleas_CSpleas1_RW	acq4567_RW	4	59	400	0	300	300	1003	50	0	1	1	blank2r.bmp	0	1	+	0	1	blank2r.bmp	492	1	YFFY	492	1	blank2r.bmp	572	3	genießen	866	1	!	1239	1	!	-1	0	0	0	0	0	0	0	0	0	0	0	0	0	0	0	0	0	0	0	0	0	0	0	0	0	0	0	0	0	0
071019	10:10:17	10:18:19	482024	5.0.10.0	5_exp_RW	33	Rpleas_acq	CS_A	YFFY	JQQJ	ZHHZ	LWWL	CPPC	DXXD	sonnig	gütig	genießen	küssen	vertrauen	träumen	sterben	gierig	gemein	krank	versagen	töten	1	acq_USunple_CSunple2_RW	acq4567_RW	4	60	400	0	300	300	977	46	0	1	1	blank2r.bmp	0	1	+	0	1	blank2r.bmp	492	1	LWWL	492	1	blank2r.bmp	572	2	versagen	866	1	!	1239	1	!	-1	0	0	0	0	0	0	0	0	0	0	0	0	0	0	0	0	0	0	0	0	0	0	0	0	0	0	0	0	0	0
071019	10:10:17	10:18:22	484996	5.0.10.0	5_exp_RW	33	Rpleas_acq	CS_A	YFFY	JQQJ	ZHHZ	LWWL	CPPC	DXXD	sonnig	gütig	genießen	küssen	vertrauen	träumen	sterben	gierig	gemein	krank	versagen	töten	1	acq_USunple_CSunple1_RW	acq4567_RW	4	61	400	0	300	300	1183	46	0	1	1	blank2r.bmp	0	1	+	0	1	blank2r.bmp	492	1	ZHHZ	492	1	blank2r.bmp	572	3	gemein	866	1	!	1239	1	!	-1	0	0	0	0	0	0	0	0	0	0	0	0	0	0	0	0	0	0	0	0	0	0	0	0	0	0	0	0	0	0
071019	10:10:17	10:18:25	487675	5.0.10.0	5_exp_RW	33	Rpleas_acq	CS_A	YFFY	JQQJ	ZHHZ	LWWL	CPPC	DXXD	sonnig	gütig	genießen	küssen	vertrauen	träumen	sterben	gierig	gemein	krank	versagen	töten	1	acq_USunple_CSunple2_RW	acq4567_RW	4	62	400	0	300	300	892	46	0	1	1	blank2r.bmp	0	1	+	0	1	blank2r.bmp	492	1	LWWL	492	1	blank2r.bmp	572	1	krank	866	1	!	1239	1	!	-1	0	0	0	0	0	0	0	0	0	0	0	0	0	0	0	0	0	0	0	0	0	0	0	0	0	0	0	0	0	0
071019	10:10:17	10:18:28	490314	5.0.10.0	5_exp_RW	33	Rpleas_acq	CS_A	YFFY	JQQJ	ZHHZ	LWWL	CPPC	DXXD	sonnig	gütig	genießen	küssen	vertrauen	träumen	sterben	gierig	gemein	krank	versagen	töten	1	acq_USpleas_CSpleas2_RW	acq4567_RW	4	63	400	0	300	300	862	50	0	1	1	blank2r.bmp	0	1	+	0	1	blank2r.bmp	492	1	JQQJ	492	1	blank2r.bmp	572	3	träumen	866	1	!	1239	1	!	-1	0	0	0	0	0	0	0	0	0	0	0	0	0	0	0	0	0	0	0	0	0	0	0	0	0	0	0	0	0	0
071019	10:10:17	10:18:30	492940	5.0.10.0	5_exp_RW	33	Rpleas_acq	CS_A	YFFY	JQQJ	ZHHZ	LWWL	CPPC	DXXD	sonnig	gütig	genießen	küssen	vertrauen	träumen	sterben	gierig	gemein	krank	versagen	töten	1	acq_USunple_CSunple1_RW	acq4567_RW	4	64	400	0	300	300	845	46	0	1	1	blank2r.bmp	0	1	+	0	1	blank2r.bmp	492	1	ZHHZ	492	1	blank2r.bmp	572	1	sterben	866	1	!	1239	1	!	-1	0	0	0	0	0	0	0	0	0	0	0	0	0	0	0	0	0	0	0	0	0	0	0	0	0	0	0	0	0	0
071019	10:10:17	10:18:33	495525	5.0.10.0	5_exp_RW	33	Rpleas_acq	CS_A	YFFY	JQQJ	ZHHZ	LWWL	CPPC	DXXD	sonnig	gütig	genießen	küssen	vertrauen	träumen	sterben	gierig	gemein	krank	versagen	töten	1	acq_USpleas_CSpleas1_RW	acq4567_RW	4	65	400	0	300	300	805	50	0	1	1	blank2r.bmp	0	1	+	0	1	blank2r.bmp	492	1	YFFY	492	1	blank2r.bmp	572	2	gütig	866	1	!	1239	1	!	-1	0	0	0	0	0	0	0	0	0	0	0	0	0	0	0	0	0	0	0	0	0	0	0	0	0	0	0	0	0	0
071019	10:10:17	10:18:36	498244	5.0.10.0	5_exp_RW	33	Rpleas_acq	CS_A	YFFY	JQQJ	ZHHZ	LWWL	CPPC	DXXD	sonnig	gütig	genießen	küssen	vertrauen	träumen	sterben	gierig	gemein	krank	versagen	töten	1	acq_USunple_CSunple2_RW	acq4567_RW	4	66	400	0	300	300	943	46	0	1	1	blank2r.bmp	0	1	+	0	1	blank2r.bmp	492	1	LWWL	492	1	blank2r.bmp	572	3	töten	866	1	!	1239	1	!	-1	0	0	0	0	0	0	0	0	0	0	0	0	0	0	0	0	0	0	0	0	0	0	0	0	0	0	0	0	0	0
071019	10:10:17	10:18:38	500790	5.0.10.0	5_exp_RW	33	Rpleas_acq	CS_A	YFFY	JQQJ	ZHHZ	LWWL	CPPC	DXXD	sonnig	gütig	genießen	küssen	vertrauen	träumen	sterben	gierig	gemein	krank	versagen	töten	1	acq_USunple_CSunple1_RW	acq4567_RW	4	67	400	0	300	300	765	46	0	1	1	blank2r.bmp	0	1	+	0	1	blank2r.bmp	492	1	ZHHZ	492	1	blank2r.bmp	572	1	sterben	866	1	!	1239	1	!	-1	0	0	0	0	0	0	0	0	0	0	0	0	0	0	0	0	0	0	0	0	0	0	0	0	0	0	0	0	0	0
071019	10:10:17	10:18:41	503295	5.0.10.0	5_exp_RW	33	Rpleas_acq	CS_A	YFFY	JQQJ	ZHHZ	LWWL	CPPC	DXXD	sonnig	gütig	genießen	küssen	vertrauen	träumen	sterben	gierig	gemein	krank	versagen	töten	1	acq_USunple_CSunple2_RW	acq4567_RW	4	68	400	0	300	300	714	46	0	1	1	blank2r.bmp	0	1	+	0	1	blank2r.bmp	492	1	LWWL	492	1	blank2r.bmp	572	2	versagen	866	1	!	1239	1	!	-1	0	0	0	0	0	0	0	0	0	0	0	0	0	0	0	0	0	0	0	0	0	0	0	0	0	0	0	0	0	0
071019	10:10:17	10:18:43	505868	5.0.10.0	5_exp_RW	33	Rpleas_acq	CS_A	YFFY	JQQJ	ZHHZ	LWWL	CPPC	DXXD	sonnig	gütig	genießen	küssen	vertrauen	träumen	sterben	gierig	gemein	krank	versagen	töten	1	acq_USpleas_CSpleas2_RW	acq4567_RW	4	69	400	0	300	300	797	50	0	1	1	blank2r.bmp	0	1	+	0	1	blank2r.bmp	492	1	JQQJ	492	1	blank2r.bmp	572	2	vertrauen	866	1	!	1239	1	!	-1	0	0	0	0	0	0	0	0	0	0	0	0	0	0	0	0	0	0	0	0	0	0	0	0	0	0	0	0	0	0
071019	10:10:17	10:18:46	508440	5.0.10.0	5_exp_RW	33	Rpleas_acq	CS_A	YFFY	JQQJ	ZHHZ	LWWL	CPPC	DXXD	sonnig	gütig	genießen	küssen	vertrauen	träumen	sterben	gierig	gemein	krank	versagen	töten	1	acq_USpleas_CSpleas2_RW	acq4567_RW	4	70	400	0	300	300	785	50	0	1	1	blank2r.bmp	0	1	+	0	1	blank2r.bmp	492	1	JQQJ	492	1	blank2r.bmp	572	1	küssen	866	1	!	1239	1	!	-1	0	0	0	0	0	0	0	0	0	0	0	0	0	0	0	0	0	0	0	0	0	0	0	0	0	0	0	0	0	0
071019	10:10:17	10:18:48	510999	5.0.10.0	5_exp_RW	33	Rpleas_acq	CS_A	YFFY	JQQJ	ZHHZ	LWWL	CPPC	DXXD	sonnig	gütig	genießen	küssen	vertrauen	träumen	sterben	gierig	gemein	krank	versagen	töten	1	acq_USunple_CSunple2_RW	acq4567_RW	4	71	400	0	300	300	771	46	0	1	1	blank2r.bmp	0	1	+	0	1	blank2r.bmp	492	1	LWWL	492	1	blank2r.bmp	572	3	töten	866	1	!	1239	1	!	-1	0	0	0	0	0	0	0	0	0	0	0	0	0	0	0	0	0	0	0	0	0	0	0	0	0	0	0	0	0	0
071019	10:10:17	10:18:51	513491	5.0.10.0	5_exp_RW	33	Rpleas_acq	CS_A	YFFY	JQQJ	ZHHZ	LWWL	CPPC	DXXD	sonnig	gütig	genießen	küssen	vertrauen	träumen	sterben	gierig	gemein	krank	versagen	töten	1	acq_USpleas_CSpleas1_RW	acq4567_RW	4	72	400	0	300	300	711	50	0	1	1	blank2r.bmp	0	1	+	0	1	blank2r.bmp	492	1	YFFY	492	1	blank2r.bmp	572	1	sonnig	866	1	!	1239	1	!	-1	0	0	0	0	0	0	0	0	0	0	0	0	0	0	0	0	0	0	0	0	0	0	0	0	0	0	0	0	0	0
071019	10:10:17	10:18:53	516063	5.0.10.0	5_exp_RW	33	Rpleas_acq	CS_A	YFFY	JQQJ	ZHHZ	LWWL	CPPC	DXXD	sonnig	gütig	genießen	küssen	vertrauen	träumen	sterben	gierig	gemein	krank	versagen	töten	1	acq_USpleas_CSpleas2_RW	acq4567_RW	4	73	400	0	300	300	793	50	0	1	1	blank2r.bmp	0	1	+	0	1	blank2r.bmp	492	1	JQQJ	492	1	blank2r.bmp	572	2	vertrauen	866	1	!	1239	1	!	-1	0	0	0	0	0	0	0	0	0	0	0	0	0	0	0	0	0	0	0	0	0	0	0	0	0	0	0	0	0	0
071019	10:10:17	10:18:56	518636	5.0.10.0	5_exp_RW	33	Rpleas_acq	CS_A	YFFY	JQQJ	ZHHZ	LWWL	CPPC	DXXD	sonnig	gütig	genießen	küssen	vertrauen	träumen	sterben	gierig	gemein	krank	versagen	töten	1	acq_USpleas_CSpleas2_RW	acq4567_RW	4	74	400	0	300	300	774	50	0	1	1	blank2r.bmp	0	1	+	0	1	blank2r.bmp	492	1	JQQJ	492	1	blank2r.bmp	572	3	träumen	866	1	!	1239	1	!	-1	0	0	0	0	0	0	0	0	0	0	0	0	0	0	0	0	0	0	0	0	0	0	0	0	0	0	0	0	0	0
071019	10:10:17	10:18:58	520955	5.0.10.0	5_exp_RW	33	Rpleas_acq	CS_A	YFFY	JQQJ	ZHHZ	LWWL	CPPC	DXXD	sonnig	gütig	genießen	küssen	vertrauen	träumen	sterben	gierig	gemein	krank	versagen	töten	1	acq_USpleas_CSpleas1_RW	acq4567_RW	4	75	400	0	300	300	540	50	0	1	1	blank2r.bmp	0	1	+	0	1	blank2r.bmp	492	1	YFFY	492	1	blank2r.bmp	572	1	sonnig	866	1	!	1239	1	!	-1	0	0	0	0	0	0	0	0	0	0	0	0	0	0	0	0	0	0	0	0	0	0	0	0	0	0	0	0	0	0
071019	10:10:17	10:19:01	523540	5.0.10.0	5_exp_RW	33	Rpleas_acq	CS_A	YFFY	JQQJ	ZHHZ	LWWL	CPPC	DXXD	sonnig	gütig	genießen	küssen	vertrauen	träumen	sterben	gierig	gemein	krank	versagen	töten	1	acq_USunple_CSunple2_RW	acq4567_RW	4	76	400	0	300	300	808	46	0	1	1	blank2r.bmp	0	1	+	0	1	blank2r.bmp	492	1	LWWL	492	1	blank2r.bmp	572	1	krank	866	1	!	1239	1	!	-1	0	0	0	0	0	0	0	0	0	0	0	0	0	0	0	0	0	0	0	0	0	0	0	0	0	0	0	0	0	0
071019	10:10:17	10:19:04	526166	5.0.10.0	5_exp_RW	33	Rpleas_acq	CS_A	YFFY	JQQJ	ZHHZ	LWWL	CPPC	DXXD	sonnig	gütig	genießen	küssen	vertrauen	träumen	sterben	gierig	gemein	krank	versagen	töten	1	acq_USunple_CSunple1_RW	acq4567_RW	4	77	400	0	300	300	838	46	0	1	1	blank2r.bmp	0	1	+	0	1	blank2r.bmp	492	1	ZHHZ	492	1	blank2r.bmp	572	3	gemein	866	1	!	1239	1	!	-1	0	0	0	0	0	0	0	0	0	0	0	0	0	0	0	0	0	0	0	0	0	0	0	0	0	0	0	0	0	0
071019	10:10:17	10:19:06	528725	5.0.10.0	5_exp_RW	33	Rpleas_acq	CS_A	YFFY	JQQJ	ZHHZ	LWWL	CPPC	DXXD	sonnig	gütig	genießen	küssen	vertrauen	träumen	sterben	gierig	gemein	krank	versagen	töten	1	acq_USunple_CSunple1_RW	acq4567_RW	4	78	400	0	300	300	772	46	0	1	1	blank2r.bmp	0	1	+	0	1	blank2r.bmp	492	1	ZHHZ	492	1	blank2r.bmp	572	2	gierig	866	1	!	1239	1	!	-1	0	0	0	0	0	0	0	0	0	0	0	0	0	0	0	0	0	0	0	0	0	0	0	0	0	0	0	0	0	0
071019	10:10:17	10:19:09	531230	5.0.10.0	5_exp_RW	33	Rpleas_acq	CS_A	YFFY	JQQJ	ZHHZ	LWWL	CPPC	DXXD	sonnig	gütig	genießen	küssen	vertrauen	träumen	sterben	gierig	gemein	krank	versagen	töten	1	acq_USpleas_CSpleas1_RW	acq4567_RW	4	79	400	0	300	300	718	50	0	1	1	blank2r.bmp	0	1	+	0	1	blank2r.bmp	492	1	YFFY	492	1	blank2r.bmp	572	3	genießen	866	1	!	1239	1	!	-1	0	0	0	0	0	0	0	0	0	0	0	0	0	0	0	0	0	0	0	0	0	0	0	0	0	0	0	0	0	0
071019	10:10:17	10:19:11	533749	5.0.10.0	5_exp_RW	33	Rpleas_acq	CS_A	YFFY	JQQJ	ZHHZ	LWWL	CPPC	DXXD	sonnig	gütig	genießen	küssen	vertrauen	träumen	sterben	gierig	gemein	krank	versagen	töten	1	acq_USpleas_CSpleas1_RW	acq4567_RW	4	80	400	0	300	300	735	50	0	1	1	blank2r.bmp	0	1	+	0	1	blank2r.bmp	492	1	YFFY	492	1	blank2r.bmp	572	2	gütig	866	1	!	1239	1	!	-1	0	0	0	0	0	0	0	0	0	0	0	0	0	0	0	0	0	0	0	0	0	0	0	0	0	0	0	0	0	0
071019	10:10:17	10:19:31	554008	5.0.10.0	5_exp_RW	33	Rpleas_acq	CS_A	YFFY	JQQJ	ZHHZ	LWWL	CPPC	DXXD	sonnig	gütig	genießen	küssen	vertrauen	träumen	sterben	gierig	gemein	krank	versagen	töten	1	acq_USpleas_CSpleas2_RW	acq4567_RW	5	1	400	0	300	300	1056	50	0	1	1	blank2r.bmp	0	1	+	0	1	blank2r.bmp	492	1	JQQJ	492	1	blank2r.bmp	572	3	träumen	866	1	!	1239	1	!	-1	0	0	0	0	0	0	0	0	0	0	0	0	0	0	0	0	0	0	0	0	0	0	0	0	0	0	0	0	0	0
071019	10:10:17	10:19:34	556513	5.0.10.0	5_exp_RW	33	Rpleas_acq	CS_A	YFFY	JQQJ	ZHHZ	LWWL	CPPC	DXXD	sonnig	gütig	genießen	küssen	vertrauen	träumen	sterben	gierig	gemein	krank	versagen	töten	1	acq_USunple_CSunple2_RW	acq4567_RW	5	2	400	0	300	300	721	46	0	1	1	blank2r.bmp	0	1	+	0	1	blank2r.bmp	492	1	LWWL	492	1	blank2r.bmp	572	1	krank	866	1	!	1239	1	!	-1	0	0	0	0	0	0	0	0	0	0	0	0	0	0	0	0	0	0	0	0	0	0	0	0	0	0	0	0	0	0
071019	10:10:17	10:19:36	559072	5.0.10.0	5_exp_RW	33	Rpleas_acq	CS_A	YFFY	JQQJ	ZHHZ	LWWL	CPPC	DXXD	sonnig	gütig	genießen	küssen	vertrauen	träumen	sterben	gierig	gemein	krank	versagen	töten	1	acq_USunple_CSunple1_RW	acq4567_RW	5	3	400	0	300	300	758	46	0	1	1	blank2r.bmp	0	1	+	0	1	blank2r.bmp	492	1	ZHHZ	492	1	blank2r.bmp	572	1	sterben	866	1	!	1239	1	!	-1	0	0	0	0	0	0	0	0	0	0	0	0	0	0	0	0	0	0	0	0	0	0	0	0	0	0	0	0	0	0
071019	10:10:17	10:19:39	561658	5.0.10.0	5_exp_RW	33	Rpleas_acq	CS_A	YFFY	JQQJ	ZHHZ	LWWL	CPPC	DXXD	sonnig	gütig	genießen	küssen	vertrauen	träumen	sterben	gierig	gemein	krank	versagen	töten	1	acq_USpleas_CSpleas2_RW	acq4567_RW	5	4	400	0	300	300	789	50	0	1	1	blank2r.bmp	0	1	+	0	1	blank2r.bmp	492	1	JQQJ	492	1	blank2r.bmp	572	2	vertrauen	866	1	!	1239	1	!	-1	0	0	0	0	0	0	0	0	0	0	0	0	0	0	0	0	0	0	0	0	0	0	0	0	0	0	0	0	0	0
071019	10:10:17	10:19:42	564203	5.0.10.0	5_exp_RW	33	Rpleas_acq	CS_A	YFFY	JQQJ	ZHHZ	LWWL	CPPC	DXXD	sonnig	gütig	genießen	küssen	vertrauen	träumen	sterben	gierig	gemein	krank	versagen	töten	1	acq_USunple_CSunple2_RW	acq4567_RW	5	5	400	0	300	300	768	46	0	1	1	blank2r.bmp	0	1	+	0	1	blank2r.bmp	492	1	LWWL	492	1	blank2r.bmp	572	3	töten	866	1	!	1239	1	!	-1	0	0	0	0	0	0	0	0	0	0	0	0	0	0	0	0	0	0	0	0	0	0	0	0	0	0	0	0	0	0
071019	10:10:17	10:19:44	566776	5.0.10.0	5_exp_RW	33	Rpleas_acq	CS_A	YFFY	JQQJ	ZHHZ	LWWL	CPPC	DXXD	sonnig	gütig	genießen	küssen	vertrauen	träumen	sterben	gierig	gemein	krank	versagen	töten	1	acq_USpleas_CSpleas2_RW	acq4567_RW	5	6	400	0	300	300	791	50	0	1	1	blank2r.bmp	0	1	+	0	1	blank2r.bmp	492	1	JQQJ	492	1	blank2r.bmp	572	1	küssen	866	1	!	1239	1	!	-1	0	0	0	0	0	0	0	0	0	0	0	0	0	0	0	0	0	0	0	0	0	0	0	0	0	0	0	0	0	0
071019	10:10:17	10:19:47	569361	5.0.10.0	5_exp_RW	33	Rpleas_acq	CS_A	YFFY	JQQJ	ZHHZ	LWWL	CPPC	DXXD	sonnig	gütig	genießen	küssen	vertrauen	träumen	sterben	gierig	gemein	krank	versagen	töten	1	acq_USunple_CSunple2_RW	acq4567_RW	5	7	400	0	300	300	809	46	0	1	1	blank2r.bmp	0	1	+	0	1	blank2r.bmp	492	1	LWWL	492	1	blank2r.bmp	572	2	versagen	866	1	!	1239	1	!	-1	0	0	0	0	0	0	0	0	0	0	0	0	0	0	0	0	0	0	0	0	0	0	0	0	0	0	0	0	0	0
071019	10:10:17	10:19:49	571973	5.0.10.0	5_exp_RW	33	Rpleas_acq	CS_A	YFFY	JQQJ	ZHHZ	LWWL	CPPC	DXXD	sonnig	gütig	genießen	küssen	vertrauen	träumen	sterben	gierig	gemein	krank	versagen	töten	1	acq_USpleas_CSpleas2_RW	acq4567_RW	5	8	400	0	300	300	833	50	0	1	1	blank2r.bmp	0	1	+	0	1	blank2r.bmp	492	1	JQQJ	492	1	blank2r.bmp	572	1	küssen	866	1	!	1239	1	!	-1	0	0	0	0	0	0	0	0	0	0	0	0	0	0	0	0	0	0	0	0	0	0	0	0	0	0	0	0	0	0
071019	10:10:17	10:19:52	574706	5.0.10.0	5_exp_RW	33	Rpleas_acq	CS_A	YFFY	JQQJ	ZHHZ	LWWL	CPPC	DXXD	sonnig	gütig	genießen	küssen	vertrauen	träumen	sterben	gierig	gemein	krank	versagen	töten	1	acq_USpleas_CSpleas1_RW	acq4567_RW	5	9	400	0	300	300	936	50	0	1	1	blank2r.bmp	0	1	+	0	1	blank2r.bmp	492	1	YFFY	492	1	blank2r.bmp	572	2	gütig	866	1	!	1239	1	!	-1	0	0	0	0	0	0	0	0	0	0	0	0	0	0	0	0	0	0	0	0	0	0	0	0	0	0	0	0	0	0
071019	10:10:17	10:19:55	577304	5.0.10.0	5_exp_RW	33	Rpleas_acq	CS_A	YFFY	JQQJ	ZHHZ	LWWL	CPPC	DXXD	sonnig	gütig	genießen	küssen	vertrauen	träumen	sterben	gierig	gemein	krank	versagen	töten	1	acq_USunple_CSunple1_RW	acq4567_RW	5	10	400	0	300	300	817	46	0	1	1	blank2r.bmp	0	1	+	0	1	blank2r.bmp	492	1	ZHHZ	492	1	blank2r.bmp	572	2	gierig	866	1	!	1239	1	!	-1	0	0	0	0	0	0	0	0	0	0	0	0	0	0	0	0	0	0	0	0	0	0	0	0	0	0	0	0	0	0
071019	10:10:17	10:19:57	579877	5.0.10.0	5_exp_RW	33	Rpleas_acq	CS_A	YFFY	JQQJ	ZHHZ	LWWL	CPPC	DXXD	sonnig	gütig	genießen	küssen	vertrauen	träumen	sterben	gierig	gemein	krank	versagen	töten	1	acq_USunple_CSunple1_RW	acq4567_RW	5	11	400	0	300	300	785	46	0	1	1	blank2r.bmp	0	1	+	0	1	blank2r.bmp	492	1	ZHHZ	492	1	blank2r.bmp	572	3	gemein	866	1	!	1239	1	!	-1	0	0	0	0	0	0	0	0	0	0	0	0	0	0	0	0	0	0	0	0	0	0	0	0	0	0	0	0	0	0
071019	10:10:17	10:20:00	582409	5.0.10.0	5_exp_RW	33	Rpleas_acq	CS_A	YFFY	JQQJ	ZHHZ	LWWL	CPPC	DXXD	sonnig	gütig	genießen	küssen	vertrauen	träumen	sterben	gierig	gemein	krank	versagen	töten	1	acq_USpleas_CSpleas1_RW	acq4567_RW	5	12	400	0	300	300	754	50	0	1	1	blank2r.bmp	0	1	+	0	1	blank2r.bmp	492	1	YFFY	492	1	blank2r.bmp	572	1	sonnig	866	1	!	1239	1	!	-1	0	0	0	0	0	0	0	0	0	0	0	0	0	0	0	0	0	0	0	0	0	0	0	0	0	0	0	0	0	0
071019	10:10:17	10:20:02	584955	5.0.10.0	5_exp_RW	33	Rpleas_acq	CS_A	YFFY	JQQJ	ZHHZ	LWWL	CPPC	DXXD	sonnig	gütig	genießen	küssen	vertrauen	träumen	sterben	gierig	gemein	krank	versagen	töten	1	acq_USunple_CSunple2_RW	acq4567_RW	5	13	400	0	300	300	749	46	0	1	1	blank2r.bmp	0	1	+	0	1	blank2r.bmp	492	1	LWWL	492	1	blank2r.bmp	572	1	krank	866	1	!	1239	1	!	-1	0	0	0	0	0	0	0	0	0	0	0	0	0	0	0	0	0	0	0	0	0	0	0	0	0	0	0	0	0	0
071019	10:10:17	10:20:05	587553	5.0.10.0	5_exp_RW	33	Rpleas_acq	CS_A	YFFY	JQQJ	ZHHZ	LWWL	CPPC	DXXD	sonnig	gütig	genießen	küssen	vertrauen	träumen	sterben	gierig	gemein	krank	versagen	töten	1	acq_USpleas_CSpleas1_RW	acq4567_RW	5	14	400	0	300	300	816	50	0	1	1	blank2r.bmp	0	1	+	0	1	blank2r.bmp	492	1	YFFY	492	1	blank2r.bmp	572	3	genießen	866	1	!	1239	1	!	-1	0	0	0	0	0	0	0	0	0	0	0	0	0	0	0	0	0	0	0	0	0	0	0	0	0	0	0	0	0	0
071019	10:10:17	10:20:08	590166	5.0.10.0	5_exp_RW	33	Rpleas_acq	CS_A	YFFY	JQQJ	ZHHZ	LWWL	CPPC	DXXD	sonnig	gütig	genießen	küssen	vertrauen	träumen	sterben	gierig	gemein	krank	versagen	töten	1	acq_USunple_CSunple2_RW	acq4567_RW	5	15	400	0	300	300	826	46	0	1	1	blank2r.bmp	0	1	+	0	1	blank2r.bmp	492	1	LWWL	492	1	blank2r.bmp	572	3	töten	866	1	!	1239	1	!	-1	0	0	0	0	0	0	0	0	0	0	0	0	0	0	0	0	0	0	0	0	0	0	0	0	0	0	0	0	0	0
071019	10:10:17	10:20:10	592765	5.0.10.0	5_exp_RW	33	Rpleas_acq	CS_A	YFFY	JQQJ	ZHHZ	LWWL	CPPC	DXXD	sonnig	gütig	genießen	küssen	vertrauen	träumen	sterben	gierig	gemein	krank	versagen	töten	1	acq_USunple_CSunple1_RW	acq4567_RW	5	16	400	0	300	300	817	46	0	1	1	blank2r.bmp	0	1	+	0	1	blank2r.bmp	492	1	ZHHZ	492	1	blank2r.bmp	572	3	gemein	866	1	!	1239	1	!	-1	0	0	0	0	0	0	0	0	0	0	0	0	0	0	0	0	0	0	0	0	0	0	0	0	0	0	0	0	0	0
071019	10:10:17	10:20:13	595377	5.0.10.0	5_exp_RW	33	Rpleas_acq	CS_A	YFFY	JQQJ	ZHHZ	LWWL	CPPC	DXXD	sonnig	gütig	genießen	küssen	vertrauen	träumen	sterben	gierig	gemein	krank	versagen	töten	1	acq_USpleas_CSpleas1_RW	acq4567_RW	5	17	400	0	300	300	824	50	0	1	1	blank2r.bmp	0	1	+	0	1	blank2r.bmp	492	1	YFFY	492	1	blank2r.bmp	572	1	sonnig	866	1	!	1239	1	!	-1	0	0	0	0	0	0	0	0	0	0	0	0	0	0	0	0	0	0	0	0	0	0	0	0	0	0	0	0	0	0
071019	10:10:17	10:20:15	597949	5.0.10.0	5_exp_RW	33	Rpleas_acq	CS_A	YFFY	JQQJ	ZHHZ	LWWL	CPPC	DXXD	sonnig	gütig	genießen	küssen	vertrauen	träumen	sterben	gierig	gemein	krank	versagen	töten	1	acq_USpleas_CSpleas1_RW	acq4567_RW	5	18	400	0	300	300	796	50	0	1	1	blank2r.bmp	0	1	+	0	1	blank2r.bmp	492	1	YFFY	492	1	blank2r.bmp	572	2	gütig	866	1	!	1239	1	!	-1	0	0	0	0	0	0	0	0	0	0	0	0	0	0	0	0	0	0	0	0	0	0	0	0	0	0	0	0	0	0
071019	10:10:17	10:20:18	600455	5.0.10.0	5_exp_RW	33	Rpleas_acq	CS_A	YFFY	JQQJ	ZHHZ	LWWL	CPPC	DXXD	sonnig	gütig	genießen	küssen	vertrauen	träumen	sterben	gierig	gemein	krank	versagen	töten	1	acq_USunple_CSunple1_RW	acq4567_RW	5	19	400	0	300	300	728	46	0	1	1	blank2r.bmp	0	1	+	0	1	blank2r.bmp	492	1	ZHHZ	492	1	blank2r.bmp	572	1	sterben	866	1	!	1239	1	!	-1	0	0	0	0	0	0	0	0	0	0	0	0	0	0	0	0	0	0	0	0	0	0	0	0	0	0	0	0	0	0
071019	10:10:17	10:20:20	603107	5.0.10.0	5_exp_RW	33	Rpleas_acq	CS_A	YFFY	JQQJ	ZHHZ	LWWL	CPPC	DXXD	sonnig	gütig	genießen	küssen	vertrauen	träumen	sterben	gierig	gemein	krank	versagen	töten	1	acq_USpleas_CSpleas2_RW	acq4567_RW	5	20	400	0	300	300	874	50	0	1	1	blank2r.bmp	0	1	+	0	1	blank2r.bmp	492	1	JQQJ	492	1	blank2r.bmp	572	2	vertrauen	866	1	!	1239	1	!	-1	0	0	0	0	0	0	0	0	0	0	0	0	0	0	0	0	0	0	0	0	0	0	0	0	0	0	0	0	0	0
071019	10:10:17	10:20:23	605733	5.0.10.0	5_exp_RW	33	Rpleas_acq	CS_A	YFFY	JQQJ	ZHHZ	LWWL	CPPC	DXXD	sonnig	gütig	genießen	küssen	vertrauen	träumen	sterben	gierig	gemein	krank	versagen	töten	1	acq_USunple_CSunple2_RW	acq4567_RW	5	21	400	0	300	300	849	46	0	1	1	blank2r.bmp	0	1	+	0	1	blank2r.bmp	492	1	LWWL	492	1	blank2r.bmp	572	2	versagen	866	1	!	1239	1	!	-1	0	0	0	0	0	0	0	0	0	0	0	0	0	0	0	0	0	0	0	0	0	0	0	0	0	0	0	0	0	0
071019	10:10:17	10:20:26	608371	5.0.10.0	5_exp_RW	33	Rpleas_acq	CS_A	YFFY	JQQJ	ZHHZ	LWWL	CPPC	DXXD	sonnig	gütig	genießen	küssen	vertrauen	träumen	sterben	gierig	gemein	krank	versagen	töten	1	acq_USpleas_CSpleas2_RW	acq4567_RW	5	22	400	0	300	300	844	50	0	1	1	blank2r.bmp	0	1	+	0	1	blank2r.bmp	492	1	JQQJ	492	1	blank2r.bmp	572	3	träumen	866	1	!	1239	1	!	-1	0	0	0	0	0	0	0	0	0	0	0	0	0	0	0	0	0	0	0	0	0	0	0	0	0	0	0	0	0	0
071019	10:10:17	10:20:29	611184	5.0.10.0	5_exp_RW	33	Rpleas_acq	CS_A	YFFY	JQQJ	ZHHZ	LWWL	CPPC	DXXD	sonnig	gütig	genießen	küssen	vertrauen	träumen	sterben	gierig	gemein	krank	versagen	töten	1	acq_USpleas_CSpleas1_RW	acq4567_RW	5	23	400	0	300	300	1030	50	0	1	1	blank2r.bmp	0	1	+	0	1	blank2r.bmp	492	1	YFFY	492	1	blank2r.bmp	572	3	genießen	866	1	!	1239	1	!	-1	0	0	0	0	0	0	0	0	0	0	0	0	0	0	0	0	0	0	0	0	0	0	0	0	0	0	0	0	0	0
071019	10:10:17	10:20:31	613743	5.0.10.0	5_exp_RW	33	Rpleas_acq	CS_A	YFFY	JQQJ	ZHHZ	LWWL	CPPC	DXXD	sonnig	gütig	genießen	küssen	vertrauen	träumen	sterben	gierig	gemein	krank	versagen	töten	1	acq_USpleas_CSpleas2_RW	acq4567_RW	5	24	400	0	300	300	778	50	0	1	1	blank2r.bmp	0	1	+	0	1	blank2r.bmp	492	1	JQQJ	492	1	blank2r.bmp	572	2	vertrauen	866	1	!	1239	1	!	-1	0	0	0	0	0	0	0	0	0	0	0	0	0	0	0	0	0	0	0	0	0	0	0	0	0	0	0	0	0	0
071019	10:10:17	10:20:34	616328	5.0.10.0	5_exp_RW	33	Rpleas_acq	CS_A	YFFY	JQQJ	ZHHZ	LWWL	CPPC	DXXD	sonnig	gütig	genießen	küssen	vertrauen	träumen	sterben	gierig	gemein	krank	versagen	töten	1	acq_USpleas_CSpleas1_RW	acq4567_RW	5	25	400	0	300	300	805	50	0	1	1	blank2r.bmp	0	1	+	0	1	blank2r.bmp	492	1	YFFY	492	1	blank2r.bmp	572	3	genießen	866	1	!	1239	1	!	-1	0	0	0	0	0	0	0	0	0	0	0	0	0	0	0	0	0	0	0	0	0	0	0	0	0	0	0	0	0	0
071019	10:10:17	10:20:36	618980	5.0.10.0	5_exp_RW	33	Rpleas_acq	CS_A	YFFY	JQQJ	ZHHZ	LWWL	CPPC	DXXD	sonnig	gütig	genießen	küssen	vertrauen	träumen	sterben	gierig	gemein	krank	versagen	töten	1	acq_USpleas_CSpleas2_RW	acq4567_RW	5	26	400	0	300	300	866	50	0	1	1	blank2r.bmp	0	1	+	0	1	blank2r.bmp	492	1	JQQJ	492	1	blank2r.bmp	572	3	träumen	866	1	!	1239	1	!	-1	0	0	0	0	0	0	0	0	0	0	0	0	0	0	0	0	0	0	0	0	0	0	0	0	0	0	0	0	0	0
071019	10:10:17	10:20:39	621606	5.0.10.0	5_exp_RW	33	Rpleas_acq	CS_A	YFFY	JQQJ	ZHHZ	LWWL	CPPC	DXXD	sonnig	gütig	genießen	küssen	vertrauen	träumen	sterben	gierig	gemein	krank	versagen	töten	1	acq_USpleas_CSpleas2_RW	acq4567_RW	5	27	400	0	300	300	842	50	0	1	1	blank2r.bmp	0	1	+	0	1	blank2r.bmp	492	1	JQQJ	492	1	blank2r.bmp	572	1	küssen	866	1	!	1239	1	!	-1	0	0	0	0	0	0	0	0	0	0	0	0	0	0	0	0	0	0	0	0	0	0	0	0	0	0	0	0	0	0
071019	10:10:17	10:20:42	624338	5.0.10.0	5_exp_RW	33	Rpleas_acq	CS_A	YFFY	JQQJ	ZHHZ	LWWL	CPPC	DXXD	sonnig	gütig	genießen	küssen	vertrauen	träumen	sterben	gierig	gemein	krank	versagen	töten	1	acq_USunple_CSunple2_RW	acq4567_RW	5	28	400	0	300	300	945	46	0	1	1	blank2r.bmp	0	1	+	0	1	blank2r.bmp	492	1	LWWL	492	1	blank2r.bmp	572	3	töten	866	1	!	1239	1	!	-1	0	0	0	0	0	0	0	0	0	0	0	0	0	0	0	0	0	0	0	0	0	0	0	0	0	0	0	0	0	0
071019	10:10:17	10:20:44	627017	5.0.10.0	5_exp_RW	33	Rpleas_acq	CS_A	YFFY	JQQJ	ZHHZ	LWWL	CPPC	DXXD	sonnig	gütig	genießen	küssen	vertrauen	träumen	sterben	gierig	gemein	krank	versagen	töten	1	acq_USunple_CSunple1_RW	acq4567_RW	5	29	400	0	300	300	899	46	0	1	1	blank2r.bmp	0	1	+	0	1	blank2r.bmp	492	1	ZHHZ	492	1	blank2r.bmp	572	2	gierig	866	1	!	1239	1	!	-1	0	0	0	0	0	0	0	0	0	0	0	0	0	0	0	0	0	0	0	0	0	0	0	0	0	0	0	0	0	0
071019	10:10:17	10:20:47	629896	5.0.10.0	5_exp_RW	33	Rpleas_acq	CS_A	YFFY	JQQJ	ZHHZ	LWWL	CPPC	DXXD	sonnig	gütig	genießen	küssen	vertrauen	träumen	sterben	gierig	gemein	krank	versagen	töten	1	acq_USunple_CSunple2_RW	acq4567_RW	5	30	400	0	300	300	1101	46	0	1	1	blank2r.bmp	0	1	+	0	1	blank2r.bmp	492	1	LWWL	492	1	blank2r.bmp	572	2	versagen	866	1	!	1239	1	!	-1	0	0	0	0	0	0	0	0	0	0	0	0	0	0	0	0	0	0	0	0	0	0	0	0	0	0	0	0	0	0
071019	10:10:17	10:20:50	632575	5.0.10.0	5_exp_RW	33	Rpleas_acq	CS_A	YFFY	JQQJ	ZHHZ	LWWL	CPPC	DXXD	sonnig	gütig	genießen	küssen	vertrauen	träumen	sterben	gierig	gemein	krank	versagen	töten	1	acq_USunple_CSunple1_RW	acq4567_RW	5	31	400	0	300	300	887	46	0	1	1	blank2r.bmp	0	1	+	0	1	blank2r.bmp	492	1	ZHHZ	492	1	blank2r.bmp	572	1	sterben	866	1	!	1239	1	!	-1	0	0	0	0	0	0	0	0	0	0	0	0	0	0	0	0	0	0	0	0	0	0	0	0	0	0	0	0	0	0
071019	10:10:17	10:20:53	635240	5.0.10.0	5_exp_RW	33	Rpleas_acq	CS_A	YFFY	JQQJ	ZHHZ	LWWL	CPPC	DXXD	sonnig	gütig	genießen	küssen	vertrauen	träumen	sterben	gierig	gemein	krank	versagen	töten	1	acq_USunple_CSunple1_RW	acq4567_RW	5	32	400	0	300	300	880	46	0	1	1	blank2r.bmp	0	1	+	0	1	blank2r.bmp	492	1	ZHHZ	492	1	blank2r.bmp	572	3	gemein	866	1	!	1239	1	!	-1	0	0	0	0	0	0	0	0	0	0	0	0	0	0	0	0	0	0	0	0	0	0	0	0	0	0	0	0	0	0
071019	10:10:17	10:20:55	637906	5.0.10.0	5_exp_RW	33	Rpleas_acq	CS_A	YFFY	JQQJ	ZHHZ	LWWL	CPPC	DXXD	sonnig	gütig	genießen	küssen	vertrauen	träumen	sterben	gierig	gemein	krank	versagen	töten	1	acq_USunple_CSunple2_RW	acq4567_RW	5	33	400	0	300	300	878	46	0	1	1	blank2r.bmp	0	1	+	0	1	blank2r.bmp	492	1	LWWL	492	1	blank2r.bmp	572	1	krank	866	1	!	1239	1	!	-1	0	0	0	0	0	0	0	0	0	0	0	0	0	0	0	0	0	0	0	0	0	0	0	0	0	0	0	0	0	0
071019	10:10:17	10:20:58	640518	5.0.10.0	5_exp_RW	33	Rpleas_acq	CS_A	YFFY	JQQJ	ZHHZ	LWWL	CPPC	DXXD	sonnig	gütig	genießen	küssen	vertrauen	träumen	sterben	gierig	gemein	krank	versagen	töten	1	acq_USunple_CSunple1_RW	acq4567_RW	5	34	400	0	300	300	827	46	0	1	1	blank2r.bmp	0	1	+	0	1	blank2r.bmp	492	1	ZHHZ	492	1	blank2r.bmp	572	2	gierig	866	1	!	1239	1	!	-1	0	0	0	0	0	0	0	0	0	0	0	0	0	0	0	0	0	0	0	0	0	0	0	0	0	0	0	0	0	0
071019	10:10:17	10:21:00	643024	5.0.10.0	5_exp_RW	33	Rpleas_acq	CS_A	YFFY	JQQJ	ZHHZ	LWWL	CPPC	DXXD	sonnig	gütig	genießen	küssen	vertrauen	träumen	sterben	gierig	gemein	krank	versagen	töten	1	acq_USpleas_CSpleas1_RW	acq4567_RW	5	35	400	0	300	300	700	50	0	1	1	blank2r.bmp	0	1	+	0	1	blank2r.bmp	492	1	YFFY	492	1	blank2r.bmp	572	1	sonnig	866	1	!	1239	1	!	-1	0	0	0	0	0	0	0	0	0	0	0	0	0	0	0	0	0	0	0	0	0	0	0	0	0	0	0	0	0	0
071019	10:10:17	10:21:03	645543	5.0.10.0	5_exp_RW	33	Rpleas_acq	CS_A	YFFY	JQQJ	ZHHZ	LWWL	CPPC	DXXD	sonnig	gütig	genießen	küssen	vertrauen	träumen	sterben	gierig	gemein	krank	versagen	töten	1	acq_USpleas_CSpleas2_RW	acq4567_RW	5	36	400	0	300	300	756	50	0	1	1	blank2r.bmp	0	1	+	0	1	blank2r.bmp	492	1	JQQJ	492	1	blank2r.bmp	572	2	vertrauen	866	1	!	1239	1	!	-1	0	0	0	0	0	0	0	0	0	0	0	0	0	0	0	0	0	0	0	0	0	0	0	0	0	0	0	0	0	0
071019	10:10:17	10:21:05	648022	5.0.10.0	5_exp_RW	33	Rpleas_acq	CS_A	YFFY	JQQJ	ZHHZ	LWWL	CPPC	DXXD	sonnig	gütig	genießen	küssen	vertrauen	träumen	sterben	gierig	gemein	krank	versagen	töten	1	acq_USpleas_CSpleas1_RW	acq4567_RW	5	37	400	0	300	300	691	50	0	1	1	blank2r.bmp	0	1	+	0	1	blank2r.bmp	492	1	YFFY	492	1	blank2r.bmp	572	2	gütig	866	1	!	1239	1	!	-1	0	0	0	0	0	0	0	0	0	0	0	0	0	0	0	0	0	0	0	0	0	0	0	0	0	0	0	0	0	0
071019	10:10:17	10:21:08	650567	5.0.10.0	5_exp_RW	33	Rpleas_acq	CS_A	YFFY	JQQJ	ZHHZ	LWWL	CPPC	DXXD	sonnig	gütig	genießen	küssen	vertrauen	träumen	sterben	gierig	gemein	krank	versagen	töten	1	acq_USunple_CSunple1_RW	acq4567_RW	5	38	400	0	300	300	769	46	0	1	1	blank2r.bmp	0	1	+	0	1	blank2r.bmp	492	1	ZHHZ	492	1	blank2r.bmp	572	2	gierig	866	1	!	1239	1	!	-1	0	0	0	0	0	0	0	0	0	0	0	0	0	0	0	0	0	0	0	0	0	0	0	0	0	0	0	0	0	0
071019	10:10:17	10:21:11	653153	5.0.10.0	5_exp_RW	33	Rpleas_acq	CS_A	YFFY	JQQJ	ZHHZ	LWWL	CPPC	DXXD	sonnig	gütig	genießen	küssen	vertrauen	träumen	sterben	gierig	gemein	krank	versagen	töten	1	acq_USpleas_CSpleas1_RW	acq4567_RW	5	39	400	0	300	300	803	50	0	1	1	blank2r.bmp	0	1	+	0	1	blank2r.bmp	492	1	YFFY	492	1	blank2r.bmp	572	1	sonnig	866	1	!	1239	1	!	-1	0	0	0	0	0	0	0	0	0	0	0	0	0	0	0	0	0	0	0	0	0	0	0	0	0	0	0	0	0	0
071019	10:10:17	10:21:13	655725	5.0.10.0	5_exp_RW	33	Rpleas_acq	CS_A	YFFY	JQQJ	ZHHZ	LWWL	CPPC	DXXD	sonnig	gütig	genießen	küssen	vertrauen	träumen	sterben	gierig	gemein	krank	versagen	töten	1	acq_USunple_CSunple2_RW	acq4567_RW	5	40	400	0	300	300	788	46	0	1	1	blank2r.bmp	0	1	+	0	1	blank2r.bmp	492	1	LWWL	492	1	blank2r.bmp	572	1	krank	866	1	!	1239	1	!	-1	0	0	0	0	0	0	0	0	0	0	0	0	0	0	0	0	0	0	0	0	0	0	0	0	0	0	0	0	0	0
071019	10:10:17	10:21:16	658510	5.0.10.0	5_exp_RW	33	Rpleas_acq	CS_A	YFFY	JQQJ	ZHHZ	LWWL	CPPC	DXXD	sonnig	gütig	genießen	küssen	vertrauen	träumen	sterben	gierig	gemein	krank	versagen	töten	1	acq_USunple_CSunple2_RW	acq4567_RW	5	41	400	0	300	300	1003	46	0	1	1	blank2r.bmp	0	1	+	0	1	blank2r.bmp	492	1	LWWL	492	1	blank2r.bmp	572	3	töten	866	1	!	1239	1	!	-1	0	0	0	0	0	0	0	0	0	0	0	0	0	0	0	0	0	0	0	0	0	0	0	0	0	0	0	0	0	0
071019	10:10:17	10:21:18	660989	5.0.10.0	5_exp_RW	33	Rpleas_acq	CS_A	YFFY	JQQJ	ZHHZ	LWWL	CPPC	DXXD	sonnig	gütig	genießen	küssen	vertrauen	träumen	sterben	gierig	gemein	krank	versagen	töten	1	acq_USpleas_CSpleas2_RW	acq4567_RW	5	42	400	0	300	300	701	50	0	1	1	blank2r.bmp	0	1	+	0	1	blank2r.bmp	492	1	JQQJ	492	1	blank2r.bmp	572	3	träumen	866	1	!	1239	1	!	-1	0	0	0	0	0	0	0	0	0	0	0	0	0	0	0	0	0	0	0	0	0	0	0	0	0	0	0	0	0	0
071019	10:10:17	10:21:21	663615	5.0.10.0	5_exp_RW	33	Rpleas_acq	CS_A	YFFY	JQQJ	ZHHZ	LWWL	CPPC	DXXD	sonnig	gütig	genießen	küssen	vertrauen	träumen	sterben	gierig	gemein	krank	versagen	töten	1	acq_USunple_CSunple2_RW	acq4567_RW	5	43	400	0	300	300	840	46	0	1	1	blank2r.bmp	0	1	+	0	1	blank2r.bmp	492	1	LWWL	492	1	blank2r.bmp	572	2	versagen	866	1	!	1239	1	!	-1	0	0	0	0	0	0	0	0	0	0	0	0	0	0	0	0	0	0	0	0	0	0	0	0	0	0	0	0	0	0
071019	10:10:17	10:21:24	666134	5.0.10.0	5_exp_RW	33	Rpleas_acq	CS_A	YFFY	JQQJ	ZHHZ	LWWL	CPPC	DXXD	sonnig	gütig	genießen	küssen	vertrauen	träumen	sterben	gierig	gemein	krank	versagen	töten	1	acq_USpleas_CSpleas1_RW	acq4567_RW	5	44	400	0	300	300	732	50	0	1	1	blank2r.bmp	0	1	+	0	1	blank2r.bmp	492	1	YFFY	492	1	blank2r.bmp	572	2	gütig	866	1	!	1239	1	!	-1	0	0	0	0	0	0	0	0	0	0	0	0	0	0	0	0	0	0	0	0	0	0	0	0	0	0	0	0	0	0
071019	10:10:17	10:21:26	668733	5.0.10.0	5_exp_RW	33	Rpleas_acq	CS_A	YFFY	JQQJ	ZHHZ	LWWL	CPPC	DXXD	sonnig	gütig	genießen	küssen	vertrauen	träumen	sterben	gierig	gemein	krank	versagen	töten	1	acq_USunple_CSunple1_RW	acq4567_RW	5	45	400	0	300	300	809	46	0	1	1	blank2r.bmp	0	1	+	0	1	blank2r.bmp	492	1	ZHHZ	492	1	blank2r.bmp	572	3	gemein	866	1	!	1239	1	!	-1	0	0	0	0	0	0	0	0	0	0	0	0	0	0	0	0	0	0	0	0	0	0	0	0	0	0	0	0	0	0
071019	10:10:17	10:21:29	671278	5.0.10.0	5_exp_RW	33	Rpleas_acq	CS_A	YFFY	JQQJ	ZHHZ	LWWL	CPPC	DXXD	sonnig	gütig	genießen	küssen	vertrauen	träumen	sterben	gierig	gemein	krank	versagen	töten	1	acq_USunple_CSunple2_RW	acq4567_RW	5	46	400	0	300	300	758	46	0	1	1	blank2r.bmp	0	1	+	0	1	blank2r.bmp	492	1	LWWL	492	1	blank2r.bmp	572	1	krank	866	1	!	1239	1	!	-1	0	0	0	0	0	0	0	0	0	0	0	0	0	0	0	0	0	0	0	0	0	0	0	0	0	0	0	0	0	0
071019	10:10:17	10:21:31	673731	5.0.10.0	5_exp_RW	33	Rpleas_acq	CS_A	YFFY	JQQJ	ZHHZ	LWWL	CPPC	DXXD	sonnig	gütig	genießen	küssen	vertrauen	träumen	sterben	gierig	gemein	krank	versagen	töten	1	acq_USpleas_CSpleas2_RW	acq4567_RW	5	47	400	0	300	300	675	50	0	1	1	blank2r.bmp	0	1	+	0	1	blank2r.bmp	492	1	JQQJ	492	1	blank2r.bmp	572	1	küssen	866	1	!	1239	1	!	-1	0	0	0	0	0	0	0	0	0	0	0	0	0	0	0	0	0	0	0	0	0	0	0	0	0	0	0	0	0	0
071019	10:10:17	10:21:34	676250	5.0.10.0	5_exp_RW	33	Rpleas_acq	CS_A	YFFY	JQQJ	ZHHZ	LWWL	CPPC	DXXD	sonnig	gütig	genießen	küssen	vertrauen	träumen	sterben	gierig	gemein	krank	versagen	töten	1	acq_USunple_CSunple1_RW	acq4567_RW	5	48	400	0	300	300	727	46	0	1	1	blank2r.bmp	0	1	+	0	1	blank2r.bmp	492	1	ZHHZ	492	1	blank2r.bmp	572	1	sterben	866	1	!	1239	1	!	-1	0	0	0	0	0	0	0	0	0	0	0	0	0	0	0	0	0	0	0	0	0	0	0	0	0	0	0	0	0	0
071019	10:10:17	10:21:36	678809	5.0.10.0	5_exp_RW	33	Rpleas_acq	CS_A	YFFY	JQQJ	ZHHZ	LWWL	CPPC	DXXD	sonnig	gütig	genießen	küssen	vertrauen	träumen	sterben	gierig	gemein	krank	versagen	töten	1	acq_USpleas_CSpleas1_RW	acq4567_RW	5	49	400	0	300	300	784	50	0	1	1	blank2r.bmp	0	1	+	0	1	blank2r.bmp	492	1	YFFY	492	1	blank2r.bmp	572	3	genießen	866	1	!	1239	1	!	-1	0	0	0	0	0	0	0	0	0	0	0	0	0	0	0	0	0	0	0	0	0	0	0	0	0	0	0	0	0	0
071019	10:10:17	10:21:39	681221	5.0.10.0	5_exp_RW	33	Rpleas_acq	CS_A	YFFY	JQQJ	ZHHZ	LWWL	CPPC	DXXD	sonnig	gütig	genießen	küssen	vertrauen	träumen	sterben	gierig	gemein	krank	versagen	töten	1	acq_USunple_CSunple2_RW	acq4567_RW	5	50	400	0	300	300	626	46	0	1	1	blank2r.bmp	0	1	+	0	1	blank2r.bmp	492	1	LWWL	492	1	blank2r.bmp	572	3	töten	866	1	!	1239	1	!	-1	0	0	0	0	0	0	0	0	0	0	0	0	0	0	0	0	0	0	0	0	0	0	0	0	0	0	0	0	0	0
071019	10:10:17	10:21:41	683740	5.0.10.0	5_exp_RW	33	Rpleas_acq	CS_A	YFFY	JQQJ	ZHHZ	LWWL	CPPC	DXXD	sonnig	gütig	genießen	küssen	vertrauen	träumen	sterben	gierig	gemein	krank	versagen	töten	1	acq_USpleas_CSpleas1_RW	acq4567_RW	5	51	400	0	300	300	732	50	0	1	1	blank2r.bmp	0	1	+	0	1	blank2r.bmp	492	1	YFFY	492	1	blank2r.bmp	572	3	genießen	866	1	!	1239	1	!	-1	0	0	0	0	0	0	0	0	0	0	0	0	0	0	0	0	0	0	0	0	0	0	0	0	0	0	0	0	0	0
071019	10:10:17	10:21:44	686299	5.0.10.0	5_exp_RW	33	Rpleas_acq	CS_A	YFFY	JQQJ	ZHHZ	LWWL	CPPC	DXXD	sonnig	gütig	genießen	küssen	vertrauen	träumen	sterben	gierig	gemein	krank	versagen	töten	1	acq_USpleas_CSpleas2_RW	acq4567_RW	5	52	400	0	300	300	781	50	0	1	1	blank2r.bmp	0	1	+	0	1	blank2r.bmp	492	1	JQQJ	492	1	blank2r.bmp	572	3	träumen	866	1	!	1239	1	!	-1	0	0	0	0	0	0	0	0	0	0	0	0	0	0	0	0	0	0	0	0	0	0	0	0	0	0	0	0	0	0
071019	10:10:17	10:21:46	688725	5.0.10.0	5_exp_RW	33	Rpleas_acq	CS_A	YFFY	JQQJ	ZHHZ	LWWL	CPPC	DXXD	sonnig	gütig	genießen	küssen	vertrauen	träumen	sterben	gierig	gemein	krank	versagen	töten	1	acq_USunple_CSunple1_RW	acq4567_RW	5	53	400	0	300	300	647	46	0	1	1	blank2r.bmp	0	1	+	0	1	blank2r.bmp	492	1	ZHHZ	492	1	blank2r.bmp	572	1	sterben	866	1	!	1239	1	!	-1	0	0	0	0	0	0	0	0	0	0	0	0	0	0	0	0	0	0	0	0	0	0	0	0	0	0	0	0	0	0
071019	10:10:17	10:21:48	691097	5.0.10.0	5_exp_RW	33	Rpleas_acq	CS_A	YFFY	JQQJ	ZHHZ	LWWL	CPPC	DXXD	sonnig	gütig	genießen	küssen	vertrauen	träumen	sterben	gierig	gemein	krank	versagen	töten	1	acq_USpleas_CSpleas1_RW	acq4567_RW	5	54	400	0	300	300	592	50	0	1	1	blank2r.bmp	0	1	+	0	1	blank2r.bmp	492	1	YFFY	492	1	blank2r.bmp	572	1	sonnig	866	1	!	1239	1	!	-1	0	0	0	0	0	0	0	0	0	0	0	0	0	0	0	0	0	0	0	0	0	0	0	0	0	0	0	0	0	0
071019	10:10:17	10:21:51	693802	5.0.10.0	5_exp_RW	33	Rpleas_acq	CS_A	YFFY	JQQJ	ZHHZ	LWWL	CPPC	DXXD	sonnig	gütig	genießen	küssen	vertrauen	träumen	sterben	gierig	gemein	krank	versagen	töten	1	acq_USunple_CSunple1_RW	acq4567_RW	5	55	400	0	300	300	923	46	0	1	1	blank2r.bmp	0	1	+	0	1	blank2r.bmp	492	1	ZHHZ	492	1	blank2r.bmp	572	3	gemein	866	1	!	1239	1	!	-1	0	0	0	0	0	0	0	0	0	0	0	0	0	0	0	0	0	0	0	0	0	0	0	0	0	0	0	0	0	0
071019	10:10:17	10:21:54	696241	5.0.10.0	5_exp_RW	33	Rpleas_acq	CS_A	YFFY	JQQJ	ZHHZ	LWWL	CPPC	DXXD	sonnig	gütig	genießen	küssen	vertrauen	träumen	sterben	gierig	gemein	krank	versagen	töten	1	acq_USpleas_CSpleas1_RW	acq4567_RW	5	56	400	0	300	300	664	50	0	1	1	blank2r.bmp	0	1	+	0	1	blank2r.bmp	492	1	YFFY	492	1	blank2r.bmp	572	2	gütig	866	1	!	1239	1	!	-1	0	0	0	0	0	0	0	0	0	0	0	0	0	0	0	0	0	0	0	0	0	0	0	0	0	0	0	0	0	0
071019	10:10:17	10:21:56	698747	5.0.10.0	5_exp_RW	33	Rpleas_acq	CS_A	YFFY	JQQJ	ZHHZ	LWWL	CPPC	DXXD	sonnig	gütig	genießen	küssen	vertrauen	träumen	sterben	gierig	gemein	krank	versagen	töten	1	acq_USunple_CSunple1_RW	acq4567_RW	5	57	400	0	300	300	711	46	0	1	1	blank2r.bmp	0	1	+	0	1	blank2r.bmp	492	1	ZHHZ	492	1	blank2r.bmp	572	2	gierig	866	1	!	1239	1	!	-1	0	0	0	0	0	0	0	0	0	0	0	0	0	0	0	0	0	0	0	0	0	0	0	0	0	0	0	0	0	0
071019	10:10:17	10:21:58	701106	5.0.10.0	5_exp_RW	33	Rpleas_acq	CS_A	YFFY	JQQJ	ZHHZ	LWWL	CPPC	DXXD	sonnig	gütig	genießen	küssen	vertrauen	träumen	sterben	gierig	gemein	krank	versagen	töten	1	acq_USpleas_CSpleas2_RW	acq4567_RW	5	58	400	0	300	300	578	50	0	1	1	blank2r.bmp	0	1	+	0	1	blank2r.bmp	492	1	JQQJ	492	1	blank2r.bmp	572	2	vertrauen	866	1	!	1239	1	!	-1	0	0	0	0	0	0	0	0	0	0	0	0	0	0	0	0	0	0	0	0	0	0	0	0	0	0	0	0	0	0
071019	10:10:17	10:22:01	703478	5.0.10.0	5_exp_RW	33	Rpleas_acq	CS_A	YFFY	JQQJ	ZHHZ	LWWL	CPPC	DXXD	sonnig	gütig	genießen	küssen	vertrauen	träumen	sterben	gierig	gemein	krank	versagen	töten	1	acq_USunple_CSunple2_RW	acq4567_RW	5	59	400	0	300	300	589	46	0	1	1	blank2r.bmp	0	1	+	0	1	blank2r.bmp	492	1	LWWL	492	1	blank2r.bmp	572	2	versagen	866	1	!	1239	1	!	-1	0	0	0	0	0	0	0	0	0	0	0	0	0	0	0	0	0	0	0	0	0	0	0	0	0	0	0	0	0	0
071019	10:10:17	10:22:03	705824	5.0.10.0	5_exp_RW	33	Rpleas_acq	CS_A	YFFY	JQQJ	ZHHZ	LWWL	CPPC	DXXD	sonnig	gütig	genießen	küssen	vertrauen	träumen	sterben	gierig	gemein	krank	versagen	töten	1	acq_USpleas_CSpleas2_RW	acq4567_RW	5	60	400	0	300	300	569	50	0	1	1	blank2r.bmp	0	1	+	0	1	blank2r.bmp	492	1	JQQJ	492	1	blank2r.bmp	572	1	küssen	866	1	!	1239	1	!	-1	0	0	0	0	0	0	0	0	0	0	0	0	0	0	0	0	0	0	0	0	0	0	0	0	0	0	0	0	0	0
071019	10:10:17	10:22:06	708276	5.0.10.0	5_exp_RW	33	Rpleas_acq	CS_A	YFFY	JQQJ	ZHHZ	LWWL	CPPC	DXXD	sonnig	gütig	genießen	küssen	vertrauen	träumen	sterben	gierig	gemein	krank	versagen	töten	1	acq_USpleas_CSpleas2_RW	acq4567_RW	5	61	400	0	300	300	665	50	0	1	1	blank2r.bmp	0	1	+	0	1	blank2r.bmp	492	1	JQQJ	492	1	blank2r.bmp	572	1	küssen	866	1	!	1239	1	!	-1	0	0	0	0	0	0	0	0	0	0	0	0	0	0	0	0	0	0	0	0	0	0	0	0	0	0	0	0	0	0
071019	10:10:17	10:22:08	710662	5.0.10.0	5_exp_RW	33	Rpleas_acq	CS_A	YFFY	JQQJ	ZHHZ	LWWL	CPPC	DXXD	sonnig	gütig	genießen	küssen	vertrauen	träumen	sterben	gierig	gemein	krank	versagen	töten	1	acq_USpleas_CSpleas1_RW	acq4567_RW	5	62	400	0	300	300	605	50	0	1	1	blank2r.bmp	0	1	+	0	1	blank2r.bmp	492	1	YFFY	492	1	blank2r.bmp	572	1	sonnig	866	1	!	1239	1	!	-1	0	0	0	0	0	0	0	0	0	0	0	0	0	0	0	0	0	0	0	0	0	0	0	0	0	0	0	0	0	0
071019	10:10:17	10:22:10	712954	5.0.10.0	5_exp_RW	33	Rpleas_acq	CS_A	YFFY	JQQJ	ZHHZ	LWWL	CPPC	DXXD	sonnig	gütig	genießen	küssen	vertrauen	träumen	sterben	gierig	gemein	krank	versagen	töten	1	acq_USunple_CSunple2_RW	acq4567_RW	5	63	400	0	300	300	510	46	0	1	1	blank2r.bmp	0	1	+	0	1	blank2r.bmp	492	1	LWWL	492	1	blank2r.bmp	572	3	töten	866	1	!	1239	1	!	-1	0	0	0	0	0	0	0	0	0	0	0	0	0	0	0	0	0	0	0	0	0	0	0	0	0	0	0	0	0	0
071019	10:10:17	10:22:13	715287	5.0.10.0	5_exp_RW	33	Rpleas_acq	CS_A	YFFY	JQQJ	ZHHZ	LWWL	CPPC	DXXD	sonnig	gütig	genießen	küssen	vertrauen	träumen	sterben	gierig	gemein	krank	versagen	töten	1	acq_USunple_CSunple2_RW	acq4567_RW	5	64	400	0	300	300	557	46	0	1	1	blank2r.bmp	0	1	+	0	1	blank2r.bmp	492	1	LWWL	492	1	blank2r.bmp	572	1	krank	866	1	!	1239	1	!	-1	0	0	0	0	0	0	0	0	0	0	0	0	0	0	0	0	0	0	0	0	0	0	0	0	0	0	0	0	0	0
071019	10:10:17	10:22:15	717659	5.0.10.0	5_exp_RW	33	Rpleas_acq	CS_A	YFFY	JQQJ	ZHHZ	LWWL	CPPC	DXXD	sonnig	gütig	genießen	küssen	vertrauen	träumen	sterben	gierig	gemein	krank	versagen	töten	1	acq_USpleas_CSpleas2_RW	acq4567_RW	5	65	400	0	300	300	587	50	0	1	1	blank2r.bmp	0	1	+	0	1	blank2r.bmp	492	1	JQQJ	492	1	blank2r.bmp	572	3	träumen	866	1	!	1239	1	!	-1	0	0	0	0	0	0	0	0	0	0	0	0	0	0	0	0	0	0	0	0	0	0	0	0	0	0	0	0	0	0
071019	10:10:17	10:22:17	720031	5.0.10.0	5_exp_RW	33	Rpleas_acq	CS_A	YFFY	JQQJ	ZHHZ	LWWL	CPPC	DXXD	sonnig	gütig	genießen	küssen	vertrauen	träumen	sterben	gierig	gemein	krank	versagen	töten	1	acq_USpleas_CSpleas1_RW	acq4567_RW	5	66	400	0	300	300	586	50	0	1	1	blank2r.bmp	0	1	+	0	1	blank2r.bmp	492	1	YFFY	492	1	blank2r.bmp	572	2	gütig	866	1	!	1239	1	!	-1	0	0	0	0	0	0	0	0	0	0	0	0	0	0	0	0	0	0	0	0	0	0	0	0	0	0	0	0	0	0
071019	10:10:17	10:22:20	722577	5.0.10.0	5_exp_RW	33	Rpleas_acq	CS_A	YFFY	JQQJ	ZHHZ	LWWL	CPPC	DXXD	sonnig	gütig	genießen	küssen	vertrauen	träumen	sterben	gierig	gemein	krank	versagen	töten	1	acq_USpleas_CSpleas1_RW	acq4567_RW	5	67	400	0	300	300	747	50	0	1	1	blank2r.bmp	0	1	+	0	1	blank2r.bmp	492	1	YFFY	492	1	blank2r.bmp	572	3	genießen	866	1	!	1239	1	!	-1	0	0	0	0	0	0	0	0	0	0	0	0	0	0	0	0	0	0	0	0	0	0	0	0	0	0	0	0	0	0
071019	10:10:17	10:22:22	724749	5.0.10.0	5_exp_RW	33	Rpleas_acq	CS_A	YFFY	JQQJ	ZHHZ	LWWL	CPPC	DXXD	sonnig	gütig	genießen	küssen	vertrauen	träumen	sterben	gierig	gemein	krank	versagen	töten	1	acq_USunple_CSunple1_RW	acq4567_RW	5	68	400	1	300	300	368	46	0	1	1	blank2r.bmp	0	1	+	0	1	blank2r.bmp	492	1	ZHHZ	492	1	blank2r.bmp	572	1	sterben	866	1	!	1239	1	!	1266	0	0	0	0	0	0	0	0	0	0	0	0	0	0	0	0	0	0	0	0	0	0	0	0	0	0	0	0	0	0
071019	10:10:17	10:22:24	727135	5.0.10.0	5_exp_RW	33	Rpleas_acq	CS_A	YFFY	JQQJ	ZHHZ	LWWL	CPPC	DXXD	sonnig	gütig	genießen	küssen	vertrauen	träumen	sterben	gierig	gemein	krank	versagen	töten	1	acq_USunple_CSunple1_RW	acq4567_RW	5	69	400	0	300	300	608	46	0	1	1	blank2r.bmp	0	1	+	0	1	blank2r.bmp	492	1	ZHHZ	492	1	blank2r.bmp	572	2	gierig	866	1	!	1239	1	!	-1	0	0	0	0	0	0	0	0	0	0	0	0	0	0	0	0	0	0	0	0	0	0	0	0	0	0	0	0	0	0
071019	10:10:17	10:22:27	729654	5.0.10.0	5_exp_RW	33	Rpleas_acq	CS_A	YFFY	JQQJ	ZHHZ	LWWL	CPPC	DXXD	sonnig	gütig	genießen	küssen	vertrauen	träumen	sterben	gierig	gemein	krank	versagen	töten	1	acq_USpleas_CSpleas2_RW	acq4567_RW	5	70	400	0	300	300	752	50	0	1	1	blank2r.bmp	0	1	+	0	1	blank2r.bmp	492	1	JQQJ	492	1	blank2r.bmp	572	2	vertrauen	866	1	!	1239	1	!	-1	0	0	0	0	0	0	0	0	0	0	0	0	0	0	0	0	0	0	0	0	0	0	0	0	0	0	0	0	0	0
071019	10:10:17	10:22:29	731946	5.0.10.0	5_exp_RW	33	Rpleas_acq	CS_A	YFFY	JQQJ	ZHHZ	LWWL	CPPC	DXXD	sonnig	gütig	genießen	küssen	vertrauen	träumen	sterben	gierig	gemein	krank	versagen	töten	1	acq_USpleas_CSpleas1_RW	acq4567_RW	5	71	400	0	300	300	514	50	0	1	1	blank2r.bmp	0	1	+	0	1	blank2r.bmp	492	1	YFFY	492	1	blank2r.bmp	572	1	sonnig	866	1	!	1239	1	!	-1	0	0	0	0	0	0	0	0	0	0	0	0	0	0	0	0	0	0	0	0	0	0	0	0	0	0	0	0	0	0
071019	10:10:17	10:22:32	734212	5.0.10.0	5_exp_RW	33	Rpleas_acq	CS_A	YFFY	JQQJ	ZHHZ	LWWL	CPPC	DXXD	sonnig	gütig	genießen	küssen	vertrauen	träumen	sterben	gierig	gemein	krank	versagen	töten	1	acq_USunple_CSunple2_RW	acq4567_RW	5	72	400	0	300	300	479	46	0	1	1	blank2r.bmp	0	1	+	0	1	blank2r.bmp	492	1	LWWL	492	1	blank2r.bmp	572	2	versagen	866	1	!	1239	1	!	-1	0	0	0	0	0	0	0	0	0	0	0	0	0	0	0	0	0	0	0	0	0	0	0	0	0	0	0	0	0	0
071019	10:10:17	10:22:34	736531	5.0.10.0	5_exp_RW	33	Rpleas_acq	CS_A	YFFY	JQQJ	ZHHZ	LWWL	CPPC	DXXD	sonnig	gütig	genießen	küssen	vertrauen	träumen	sterben	gierig	gemein	krank	versagen	töten	1	acq_USpleas_CSpleas2_RW	acq4567_RW	5	73	400	0	300	300	521	50	0	1	1	blank2r.bmp	0	1	+	0	1	blank2r.bmp	492	1	JQQJ	492	1	blank2r.bmp	572	3	träumen	866	1	!	1239	1	!	-1	0	0	0	0	0	0	0	0	0	0	0	0	0	0	0	0	0	0	0	0	0	0	0	0	0	0	0	0	0	0
071019	10:10:17	10:22:36	738810	5.0.10.0	5_exp_RW	33	Rpleas_acq	CS_A	YFFY	JQQJ	ZHHZ	LWWL	CPPC	DXXD	sonnig	gütig	genießen	küssen	vertrauen	träumen	sterben	gierig	gemein	krank	versagen	töten	1	acq_USpleas_CSpleas2_RW	acq4567_RW	5	74	400	0	300	300	501	50	0	1	1	blank2r.bmp	0	1	+	0	1	blank2r.bmp	492	1	JQQJ	492	1	blank2r.bmp	572	1	küssen	866	1	!	1239	1	!	-1	0	0	0	0	0	0	0	0	0	0	0	0	0	0	0	0	0	0	0	0	0	0	0	0	0	0	0	0	0	0
071019	10:10:17	10:22:39	741209	5.0.10.0	5_exp_RW	33	Rpleas_acq	CS_A	YFFY	JQQJ	ZHHZ	LWWL	CPPC	DXXD	sonnig	gütig	genießen	küssen	vertrauen	träumen	sterben	gierig	gemein	krank	versagen	töten	1	acq_USunple_CSunple1_RW	acq4567_RW	5	75	400	0	300	300	621	46	0	1	1	blank2r.bmp	0	1	+	0	1	blank2r.bmp	492	1	ZHHZ	492	1	blank2r.bmp	572	3	gemein	866	1	!	1239	1	!	-1	0	0	0	0	0	0	0	0	0	0	0	0	0	0	0	0	0	0	0	0	0	0	0	0	0	0	0	0	0	0
071019	10:10:17	10:22:41	743542	5.0.10.0	5_exp_RW	33	Rpleas_acq	CS_A	YFFY	JQQJ	ZHHZ	LWWL	CPPC	DXXD	sonnig	gütig	genießen	küssen	vertrauen	träumen	sterben	gierig	gemein	krank	versagen	töten	1	acq_USunple_CSunple2_RW	acq4567_RW	5	76	400	0	300	300	546	46	0	1	1	blank2r.bmp	0	1	+	0	1	blank2r.bmp	492	1	LWWL	492	1	blank2r.bmp	572	2	versagen	866	1	!	1239	1	!	-1	0	0	0	0	0	0	0	0	0	0	0	0	0	0	0	0	0	0	0	0	0	0	0	0	0	0	0	0	0	0
071019	10:10:17	10:22:43	746034	5.0.10.0	5_exp_RW	33	Rpleas_acq	CS_A	YFFY	JQQJ	ZHHZ	LWWL	CPPC	DXXD	sonnig	gütig	genießen	küssen	vertrauen	träumen	sterben	gierig	gemein	krank	versagen	töten	1	acq_USpleas_CSpleas1_RW	acq4567_RW	5	77	400	0	300	300	693	50	0	1	1	blank2r.bmp	0	1	+	0	1	blank2r.bmp	492	1	YFFY	492	1	blank2r.bmp	572	2	gütig	866	1	!	1239	1	!	-1	0	0	0	0	0	0	0	0	0	0	0	0	0	0	0	0	0	0	0	0	0	0	0	0	0	0	0	0	0	0
071019	10:10:17	10:22:46	748313	5.0.10.0	5_exp_RW	33	Rpleas_acq	CS_A	YFFY	JQQJ	ZHHZ	LWWL	CPPC	DXXD	sonnig	gütig	genießen	küssen	vertrauen	träumen	sterben	gierig	gemein	krank	versagen	töten	1	acq_USunple_CSunple1_RW	acq4567_RW	5	78	400	0	300	300	503	46	0	1	1	blank2r.bmp	0	1	+	0	1	blank2r.bmp	492	1	ZHHZ	492	1	blank2r.bmp	572	3	gemein	866	1	!	1239	1	!	-1	0	0	0	0	0	0	0	0	0	0	0	0	0	0	0	0	0	0	0	0	0	0	0	0	0	0	0	0	0	0
071019	10:10:17	10:22:48	750659	5.0.10.0	5_exp_RW	33	Rpleas_acq	CS_A	YFFY	JQQJ	ZHHZ	LWWL	CPPC	DXXD	sonnig	gütig	genießen	küssen	vertrauen	träumen	sterben	gierig	gemein	krank	versagen	töten	1	acq_USunple_CSunple2_RW	acq4567_RW	5	79	400	0	300	300	546	46	0	1	1	blank2r.bmp	0	1	+	0	1	blank2r.bmp	492	1	LWWL	492	1	blank2r.bmp	572	1	krank	866	1	!	1239	1	!	-1	0	0	0	0	0	0	0	0	0	0	0	0	0	0	0	0	0	0	0	0	0	0	0	0	0	0	0	0	0	0
071019	10:10:17	10:22:50	753058	5.0.10.0	5_exp_RW	33	Rpleas_acq	CS_A	YFFY	JQQJ	ZHHZ	LWWL	CPPC	DXXD	sonnig	gütig	genießen	küssen	vertrauen	träumen	sterben	gierig	gemein	krank	versagen	töten	1	acq_USunple_CSunple1_RW	acq4567_RW	5	80	400	0	300	300	619	46	0	1	1	blank2r.bmp	0	1	+	0	1	blank2r.bmp	492	1	ZHHZ	492	1	blank2r.bmp	572	1	sterben	866	1	!	1239	1	!	-1	0	0	0	0	0	0	0	0	0	0	0	0	0	0	0	0	0	0	0	0	0	0	0	0	0	0	0	0	0	0
071019	10:10:17	10:23:11	774009	5.0.10.0	5_exp_RW	33	Rpleas_acq	CS_A	YFFY	JQQJ	ZHHZ	LWWL	CPPC	DXXD	sonnig	gütig	genießen	küssen	vertrauen	träumen	sterben	gierig	gemein	krank	versagen	töten	1	acq_USpleas_CSpleas2_RW	acq4567_RW	6	1	400	0	300	300	637	50	0	1	1	blank2r.bmp	0	1	+	0	1	blank2r.bmp	492	1	JQQJ	492	1	blank2r.bmp	572	2	vertrauen	866	1	!	1239	1	!	-1	0	0	0	0	0	0	0	0	0	0	0	0	0	0	0	0	0	0	0	0	0	0	0	0	0	0	0	0	0	0
071019	10:10:17	10:23:14	776501	5.0.10.0	5_exp_RW	33	Rpleas_acq	CS_A	YFFY	JQQJ	ZHHZ	LWWL	CPPC	DXXD	sonnig	gütig	genießen	küssen	vertrauen	träumen	sterben	gierig	gemein	krank	versagen	töten	1	acq_USunple_CSunple2_RW	acq4567_RW	6	2	400	0	300	300	708	46	0	1	1	blank2r.bmp	0	1	+	0	1	blank2r.bmp	492	1	LWWL	492	1	blank2r.bmp	572	3	töten	866	1	!	1239	1	!	-1	0	0	0	0	0	0	0	0	0	0	0	0	0	0	0	0	0	0	0	0	0	0	0	0	0	0	0	0	0	0
071019	10:10:17	10:23:16	778940	5.0.10.0	5_exp_RW	33	Rpleas_acq	CS_A	YFFY	JQQJ	ZHHZ	LWWL	CPPC	DXXD	sonnig	gütig	genießen	küssen	vertrauen	träumen	sterben	gierig	gemein	krank	versagen	töten	1	acq_USpleas_CSpleas1_RW	acq4567_RW	6	3	400	0	300	300	660	50	0	1	1	blank2r.bmp	0	1	+	0	1	blank2r.bmp	492	1	YFFY	492	1	blank2r.bmp	572	3	genießen	866	1	!	1239	1	!	-1	0	0	0	0	0	0	0	0	0	0	0	0	0	0	0	0	0	0	0	0	0	0	0	0	0	0	0	0	0	0
071019	10:10:17	10:23:19	781406	5.0.10.0	5_exp_RW	33	Rpleas_acq	CS_A	YFFY	JQQJ	ZHHZ	LWWL	CPPC	DXXD	sonnig	gütig	genießen	küssen	vertrauen	träumen	sterben	gierig	gemein	krank	versagen	töten	1	acq_USpleas_CSpleas2_RW	acq4567_RW	6	4	400	0	300	300	688	50	0	1	1	blank2r.bmp	0	1	+	0	1	blank2r.bmp	492	1	JQQJ	492	1	blank2r.bmp	572	1	küssen	866	1	!	1239	1	!	-1	0	0	0	0	0	0	0	0	0	0	0	0	0	0	0	0	0	0	0	0	0	0	0	0	0	0	0	0	0	0
071019	10:10:17	10:23:21	783818	5.0.10.0	5_exp_RW	33	Rpleas_acq	CS_A	YFFY	JQQJ	ZHHZ	LWWL	CPPC	DXXD	sonnig	gütig	genießen	küssen	vertrauen	träumen	sterben	gierig	gemein	krank	versagen	töten	1	acq_USunple_CSunple2_RW	acq4567_RW	6	5	400	0	300	300	633	46	0	1	1	blank2r.bmp	0	1	+	0	1	blank2r.bmp	492	1	LWWL	492	1	blank2r.bmp	572	3	töten	866	1	!	1239	1	!	-1	0	0	0	0	0	0	0	0	0	0	0	0	0	0	0	0	0	0	0	0	0	0	0	0	0	0	0	0	0	0
071019	10:10:17	10:23:24	786350	5.0.10.0	5_exp_RW	33	Rpleas_acq	CS_A	YFFY	JQQJ	ZHHZ	LWWL	CPPC	DXXD	sonnig	gütig	genießen	küssen	vertrauen	träumen	sterben	gierig	gemein	krank	versagen	töten	1	acq_USunple_CSunple2_RW	acq4567_RW	6	6	400	0	300	300	745	46	0	1	1	blank2r.bmp	0	1	+	0	1	blank2r.bmp	492	1	LWWL	492	1	blank2r.bmp	572	2	versagen	866	1	!	1239	1	!	-1	0	0	0	0	0	0	0	0	0	0	0	0	0	0	0	0	0	0	0	0	0	0	0	0	0	0	0	0	0	0
071019	10:10:17	10:23:27	789149	5.0.10.0	5_exp_RW	33	Rpleas_acq	CS_A	YFFY	JQQJ	ZHHZ	LWWL	CPPC	DXXD	sonnig	gütig	genießen	küssen	vertrauen	träumen	sterben	gierig	gemein	krank	versagen	töten	1	acq_USpleas_CSpleas1_RW	acq4567_RW	6	7	400	0	300	300	1022	50	0	1	1	blank2r.bmp	0	1	+	0	1	blank2r.bmp	492	1	YFFY	492	1	blank2r.bmp	572	3	genießen	866	1	!	1239	1	!	-1	0	0	0	0	0	0	0	0	0	0	0	0	0	0	0	0	0	0	0	0	0	0	0	0	0	0	0	0	0	0
071019	10:10:17	10:23:29	791402	5.0.10.0	5_exp_RW	33	Rpleas_acq	CS_A	YFFY	JQQJ	ZHHZ	LWWL	CPPC	DXXD	sonnig	gütig	genießen	küssen	vertrauen	träumen	sterben	gierig	gemein	krank	versagen	töten	1	acq_USpleas_CSpleas2_RW	acq4567_RW	6	8	400	1	300	300	451	50	0	1	1	blank2r.bmp	0	1	+	0	1	blank2r.bmp	492	1	JQQJ	492	1	blank2r.bmp	572	3	träumen	866	1	!	1239	1	!	1346	0	0	0	0	0	0	0	0	0	0	0	0	0	0	0	0	0	0	0	0	0	0	0	0	0	0	0	0	0	0
071019	10:10:17	10:23:31	793907	5.0.10.0	5_exp_RW	33	Rpleas_acq	CS_A	YFFY	JQQJ	ZHHZ	LWWL	CPPC	DXXD	sonnig	gütig	genießen	küssen	vertrauen	träumen	sterben	gierig	gemein	krank	versagen	töten	1	acq_USunple_CSunple2_RW	acq4567_RW	6	9	400	0	300	300	739	46	0	1	1	blank2r.bmp	0	1	+	0	1	blank2r.bmp	492	1	LWWL	492	1	blank2r.bmp	572	1	krank	866	1	!	1239	1	!	-1	0	0	0	0	0	0	0	0	0	0	0	0	0	0	0	0	0	0	0	0	0	0	0	0	0	0	0	0	0	0
071019	10:10:17	10:23:34	796413	5.0.10.0	5_exp_RW	33	Rpleas_acq	CS_A	YFFY	JQQJ	ZHHZ	LWWL	CPPC	DXXD	sonnig	gütig	genießen	küssen	vertrauen	träumen	sterben	gierig	gemein	krank	versagen	töten	1	acq_USpleas_CSpleas2_RW	acq4567_RW	6	10	400	0	300	300	718	50	0	1	1	blank2r.bmp	0	1	+	0	1	blank2r.bmp	492	1	JQQJ	492	1	blank2r.bmp	572	2	vertrauen	866	1	!	1239	1	!	-1	0	0	0	0	0	0	0	0	0	0	0	0	0	0	0	0	0	0	0	0	0	0	0	0	0	0	0	0	0	0
071019	10:10:17	10:23:36	798812	5.0.10.0	5_exp_RW	33	Rpleas_acq	CS_A	YFFY	JQQJ	ZHHZ	LWWL	CPPC	DXXD	sonnig	gütig	genießen	küssen	vertrauen	träumen	sterben	gierig	gemein	krank	versagen	töten	1	acq_USpleas_CSpleas1_RW	acq4567_RW	6	11	400	0	300	300	618	50	0	1	1	blank2r.bmp	0	1	+	0	1	blank2r.bmp	492	1	YFFY	492	1	blank2r.bmp	572	2	gütig	866	1	!	1239	1	!	-1	0	0	0	0	0	0	0	0	0	0	0	0	0	0	0	0	0	0	0	0	0	0	0	0	0	0	0	0	0	0
071019	10:10:17	10:23:39	801277	5.0.10.0	5_exp_RW	33	Rpleas_acq	CS_A	YFFY	JQQJ	ZHHZ	LWWL	CPPC	DXXD	sonnig	gütig	genießen	küssen	vertrauen	träumen	sterben	gierig	gemein	krank	versagen	töten	1	acq_USunple_CSunple1_RW	acq4567_RW	6	12	400	0	300	300	670	46	0	1	1	blank2r.bmp	0	1	+	0	1	blank2r.bmp	492	1	ZHHZ	492	1	blank2r.bmp	572	2	gierig	866	1	!	1239	1	!	-1	0	0	0	0	0	0	0	0	0	0	0	0	0	0	0	0	0	0	0	0	0	0	0	0	0	0	0	0	0	0
071019	10:10:17	10:23:41	803703	5.0.10.0	5_exp_RW	33	Rpleas_acq	CS_A	YFFY	JQQJ	ZHHZ	LWWL	CPPC	DXXD	sonnig	gütig	genießen	küssen	vertrauen	träumen	sterben	gierig	gemein	krank	versagen	töten	1	acq_USunple_CSunple1_RW	acq4567_RW	6	13	400	0	300	300	626	46	0	1	1	blank2r.bmp	0	1	+	0	1	blank2r.bmp	492	1	ZHHZ	492	1	blank2r.bmp	572	2	gierig	866	1	!	1239	1	!	-1	0	0	0	0	0	0	0	0	0	0	0	0	0	0	0	0	0	0	0	0	0	0	0	0	0	0	0	0	0	0
