date	time	script.currenttime	script.elapsedtime	build	script.currentexpt	subject	expressions.LRpleas_acq	expressions.conditionCS_A	expressions.CSpleas_1	expressions.CSpleas_2	expressions.CSunple_1	expressions.CSunple_2	expressions.distractor_1	expressions.distractor_2	expressions.US_pleas1	expressions.US_pleas2	expressions.US_pleas3	expressions.US_pleas4	expressions.US_pleas5	expressions.US_pleas6	expressions.US_unple1	expressions.US_unple2	expressions.US_unple3	expressions.US_unple4	expressions.US_unple5	expressions.US_unple6	counter.positions_noRW	trialcode	blockcode	blocknum	trialnum	windowcenter	inwindow	pretrialpause	posttrialpause	latency	response	expressions.correctedscore	correct	stimulusnumber1	stimulusitem1	stimulusonset1	stimulusnumber2	stimulusitem2	stimulusonset2	stimulusnumber3	stimulusitem3	stimulusonset3	stimulusnumber4	stimulusitem4	stimulusonset4	stimulusnumber5	stimulusitem5	stimulusonset5	stimulusnumber6	stimulusitem6	stimulusonset6	stimulusnumber7	stimulusitem7	stimulusonset7	stimulusnumber8	stimulusitem8	stimulusonset8	stimulusnumber9	stimulusitem9	stimulusonset9	stimulusnumber10	stimulusitem10	stimulusonset10	stimulusnumber11	stimulusitem11	stimulusonset11	stimulusnumber12	stimulusitem12	stimulusonset12	stimulusnumber13	stimulusitem13	stimulusonset13	stimulusnumber14	stimulusitem14	stimulusonset14	stimulusnumber15	stimulusitem15	stimulusonset15	stimulusnumber16	stimulusitem16	stimulusonset16	stimulusnumber17	stimulusitem17	stimulusonset17	stimulusnumber18	stimulusitem18	stimulusonset18
072419	14:34:02	14:35:32	88576	5.0.10.0	5_exp_noRW	84	Rpleas_acq	CS_A	LWWL	JQQJ	DXXD	YFFY	ZHHZ	CPPC	genießen	vertrauen	gütig	küssen	träumen	sonnig	gemein	versagen	gierig	krank	töten	sterben	53pct	acq_USunple_CSunple1_noRW	acq1_noRW	1	1	0	0	300	300	1669	46	0	1	1	blank2r.bmp	0	1	+	0	1	blank2r.bmp	252	1	DXXD	306	2	versagen	559	0	0	0	0	0	0	0	0	0	0	0	0	0	0	0	0	0	0	0	0	0	0	0	0	0	0	0	0	0	0	0	0	0	0	0	0	0	0	0
072419	14:34:02	14:35:34	90748	5.0.10.0	5_exp_noRW	84	Rpleas_acq	CS_A	LWWL	JQQJ	DXXD	YFFY	ZHHZ	CPPC	genießen	vertrauen	gütig	küssen	träumen	sonnig	gemein	versagen	gierig	krank	töten	sterben	47pct	acq_USpleas_CSpleas2_noRW	acq1_noRW	1	2	0	0	300	300	998	50	0	1	1	blank2r.bmp	0	1	+	0	1	blank2r.bmp	252	1	JQQJ	306	1	küssen	559	0	0	0	0	0	0	0	0	0	0	0	0	0	0	0	0	0	0	0	0	0	0	0	0	0	0	0	0	0	0	0	0	0	0	0	0	0	0	0
072419	14:34:02	14:35:36	92560	5.0.10.0	5_exp_noRW	84	Rpleas_acq	CS_A	LWWL	JQQJ	DXXD	YFFY	ZHHZ	CPPC	genießen	vertrauen	gütig	küssen	träumen	sonnig	gemein	versagen	gierig	krank	töten	sterben	47pct	acq_USpleas_CSpleas1_noRW	acq1_noRW	1	3	0	0	300	300	648	50	0	1	1	blank2r.bmp	0	1	+	0	1	blank2r.bmp	252	1	LWWL	306	1	genießen	559	0	0	0	0	0	0	0	0	0	0	0	0	0	0	0	0	0	0	0	0	0	0	0	0	0	0	0	0	0	0	0	0	0	0	0	0	0	0	0
072419	14:34:02	14:35:38	94306	5.0.10.0	5_exp_noRW	84	Rpleas_acq	CS_A	LWWL	JQQJ	DXXD	YFFY	ZHHZ	CPPC	genießen	vertrauen	gütig	küssen	träumen	sonnig	gemein	versagen	gierig	krank	töten	sterben	47pct	acq_USpleas_CSunple1_noRW	acq1_noRW	1	4	0	0	300	300	558	50	0	1	1	blank2r.bmp	0	1	+	0	1	blank2r.bmp	252	1	DXXD	306	2	vertrauen	559	0	0	0	0	0	0	0	0	0	0	0	0	0	0	0	0	0	0	0	0	0	0	0	0	0	0	0	0	0	0	0	0	0	0	0	0	0	0	0
072419	14:34:02	14:35:40	96172	5.0.10.0	5_exp_noRW	84	Rpleas_acq	CS_A	LWWL	JQQJ	DXXD	YFFY	ZHHZ	CPPC	genießen	vertrauen	gütig	küssen	träumen	sonnig	gemein	versagen	gierig	krank	töten	sterben	47pct	acq_USunple_CSpleas1_noRW	acq1_noRW	1	5	0	0	300	300	693	46	0	1	1	blank2r.bmp	0	1	+	0	1	blank2r.bmp	252	1	LWWL	306	3	gierig	559	0	0	0	0	0	0	0	0	0	0	0	0	0	0	0	0	0	0	0	0	0	0	0	0	0	0	0	0	0	0	0	0	0	0	0	0	0	0	0
072419	14:34:02	14:35:42	97932	5.0.10.0	5_exp_noRW	84	Rpleas_acq	CS_A	LWWL	JQQJ	DXXD	YFFY	ZHHZ	CPPC	genießen	vertrauen	gütig	küssen	träumen	sonnig	gemein	versagen	gierig	krank	töten	sterben	47pct	acq_USunple_CSunple2_noRW	acq1_noRW	1	6	0	0	300	300	597	46	0	1	1	blank2r.bmp	0	1	+	0	1	blank2r.bmp	252	1	YFFY	306	2	töten	559	0	0	0	0	0	0	0	0	0	0	0	0	0	0	0	0	0	0	0	0	0	0	0	0	0	0	0	0	0	0	0	0	0	0	0	0	0	0	0
072419	14:34:02	14:35:43	99664	5.0.10.0	5_exp_noRW	84	Rpleas_acq	CS_A	LWWL	JQQJ	DXXD	YFFY	ZHHZ	CPPC	genießen	vertrauen	gütig	küssen	träumen	sonnig	gemein	versagen	gierig	krank	töten	sterben	47pct	acq_USunple_CSunple2_noRW	acq1_noRW	1	7	0	0	300	300	568	46	0	1	1	blank2r.bmp	0	1	+	0	1	blank2r.bmp	252	1	YFFY	306	1	krank	559	0	0	0	0	0	0	0	0	0	0	0	0	0	0	0	0	0	0	0	0	0	0	0	0	0	0	0	0	0	0	0	0	0	0	0	0	0	0	0
072419	14:34:02	14:35:45	101370	5.0.10.0	5_exp_noRW	84	Rpleas_acq	CS_A	LWWL	JQQJ	DXXD	YFFY	ZHHZ	CPPC	genießen	vertrauen	gütig	küssen	träumen	sonnig	gemein	versagen	gierig	krank	töten	sterben	47pct	acq_USpleas_CSpleas1_noRW	acq1_noRW	1	8	0	0	300	300	544	50	0	1	1	blank2r.bmp	0	1	+	0	1	blank2r.bmp	252	1	LWWL	306	2	vertrauen	559	0	0	0	0	0	0	0	0	0	0	0	0	0	0	0	0	0	0	0	0	0	0	0	0	0	0	0	0	0	0	0	0	0	0	0	0	0	0	0
072419	14:34:02	14:35:47	103169	5.0.10.0	5_exp_noRW	84	Rpleas_acq	CS_A	LWWL	JQQJ	DXXD	YFFY	ZHHZ	CPPC	genießen	vertrauen	gütig	küssen	träumen	sonnig	gemein	versagen	gierig	krank	töten	sterben	53pct	acq_USunple_CSunple1_noRW	acq1_noRW	1	9	0	0	300	300	623	46	0	1	1	blank2r.bmp	0	1	+	0	1	blank2r.bmp	252	1	DXXD	306	3	gierig	559	0	0	0	0	0	0	0	0	0	0	0	0	0	0	0	0	0	0	0	0	0	0	0	0	0	0	0	0	0	0	0	0	0	0	0	0	0	0	0
072419	14:34:02	14:35:49	104982	5.0.10.0	5_exp_noRW	84	Rpleas_acq	CS_A	LWWL	JQQJ	DXXD	YFFY	ZHHZ	CPPC	genießen	vertrauen	gütig	küssen	träumen	sonnig	gemein	versagen	gierig	krank	töten	sterben	53pct	acq_USunple_CSunple2_noRW	acq1_noRW	1	10	0	0	300	300	631	46	0	1	1	blank2r.bmp	0	1	+	0	1	blank2r.bmp	252	1	YFFY	306	3	sterben	559	0	0	0	0	0	0	0	0	0	0	0	0	0	0	0	0	0	0	0	0	0	0	0	0	0	0	0	0	0	0	0	0	0	0	0	0	0	0	0
072419	14:34:02	14:35:50	106621	5.0.10.0	5_exp_noRW	84	Rpleas_acq	CS_A	LWWL	JQQJ	DXXD	YFFY	ZHHZ	CPPC	genießen	vertrauen	gütig	küssen	träumen	sonnig	gemein	versagen	gierig	krank	töten	sterben	47pct	acq_USunple_CSunple2_noRW	acq1_noRW	1	11	0	0	300	300	455	46	0	1	1	blank2r.bmp	0	1	+	0	1	blank2r.bmp	252	1	YFFY	306	1	krank	559	0	0	0	0	0	0	0	0	0	0	0	0	0	0	0	0	0	0	0	0	0	0	0	0	0	0	0	0	0	0	0	0	0	0	0	0	0	0	0
072419	14:34:02	14:35:52	108341	5.0.10.0	5_exp_noRW	84	Rpleas_acq	CS_A	LWWL	JQQJ	DXXD	YFFY	ZHHZ	CPPC	genießen	vertrauen	gütig	küssen	träumen	sonnig	gemein	versagen	gierig	krank	töten	sterben	47pct	acq_USpleas_CSpleas2_noRW	acq1_noRW	1	12	0	0	300	300	551	50	0	1	1	blank2r.bmp	0	1	+	0	1	blank2r.bmp	252	1	JQQJ	306	3	sonnig	559	0	0	0	0	0	0	0	0	0	0	0	0	0	0	0	0	0	0	0	0	0	0	0	0	0	0	0	0	0	0	0	0	0	0	0	0	0	0	0
072419	14:34:02	14:35:54	110113	5.0.10.0	5_exp_noRW	84	Rpleas_acq	CS_A	LWWL	JQQJ	DXXD	YFFY	ZHHZ	CPPC	genießen	vertrauen	gütig	küssen	träumen	sonnig	gemein	versagen	gierig	krank	töten	sterben	47pct	acq_USpleas_CSpleas1_noRW	acq1_noRW	1	13	0	0	300	300	607	50	0	1	1	blank2r.bmp	0	1	+	0	1	blank2r.bmp	252	1	LWWL	306	3	gütig	559	0	0	0	0	0	0	0	0	0	0	0	0	0	0	0	0	0	0	0	0	0	0	0	0	0	0	0	0	0	0	0	0	0	0	0	0	0	0	0
072419	14:34:02	14:35:55	111752	5.0.10.0	5_exp_noRW	84	Rpleas_acq	CS_A	LWWL	JQQJ	DXXD	YFFY	ZHHZ	CPPC	genießen	vertrauen	gütig	küssen	träumen	sonnig	gemein	versagen	gierig	krank	töten	sterben	47pct	acq_USpleas_CSpleas1_noRW	acq1_noRW	1	14	0	0	300	300	456	50	0	1	1	blank2r.bmp	0	1	+	0	1	blank2r.bmp	252	1	LWWL	306	3	gütig	559	0	0	0	0	0	0	0	0	0	0	0	0	0	0	0	0	0	0	0	0	0	0	0	0	0	0	0	0	0	0	0	0	0	0	0	0	0	0	0
072419	14:34:02	14:35:57	113485	5.0.10.0	5_exp_noRW	84	Rpleas_acq	CS_A	LWWL	JQQJ	DXXD	YFFY	ZHHZ	CPPC	genießen	vertrauen	gütig	küssen	träumen	sonnig	gemein	versagen	gierig	krank	töten	sterben	53pct	acq_USunple_CSunple1_noRW	acq1_noRW	1	15	0	0	300	300	555	46	0	1	1	blank2r.bmp	0	1	+	0	1	blank2r.bmp	252	1	DXXD	306	1	gemein	559	0	0	0	0	0	0	0	0	0	0	0	0	0	0	0	0	0	0	0	0	0	0	0	0	0	0	0	0	0	0	0	0	0	0	0	0	0	0	0
072419	14:34:02	14:35:59	115164	5.0.10.0	5_exp_noRW	84	Rpleas_acq	CS_A	LWWL	JQQJ	DXXD	YFFY	ZHHZ	CPPC	genießen	vertrauen	gütig	küssen	träumen	sonnig	gemein	versagen	gierig	krank	töten	sterben	53pct	acq_USunple_CSpleas2_noRW	acq1_noRW	1	16	0	0	300	300	518	46	0	1	1	blank2r.bmp	0	1	+	0	1	blank2r.bmp	252	1	JQQJ	306	3	sterben	559	0	0	0	0	0	0	0	0	0	0	0	0	0	0	0	0	0	0	0	0	0	0	0	0	0	0	0	0	0	0	0	0	0	0	0	0	0	0	0
072419	14:34:02	14:36:01	117190	5.0.10.0	5_exp_noRW	84	Rpleas_acq	CS_A	LWWL	JQQJ	DXXD	YFFY	ZHHZ	CPPC	genießen	vertrauen	gütig	küssen	träumen	sonnig	gemein	versagen	gierig	krank	töten	sterben	47pct	acq_USunple_CSunple1_noRW	acq1_noRW	1	17	0	0	300	300	841	46	0	1	1	blank2r.bmp	0	1	+	0	1	blank2r.bmp	252	1	DXXD	306	2	versagen	559	0	0	0	0	0	0	0	0	0	0	0	0	0	0	0	0	0	0	0	0	0	0	0	0	0	0	0	0	0	0	0	0	0	0	0	0	0	0	0
072419	14:34:02	14:36:03	118936	5.0.10.0	5_exp_noRW	84	Rpleas_acq	CS_A	LWWL	JQQJ	DXXD	YFFY	ZHHZ	CPPC	genießen	vertrauen	gütig	küssen	träumen	sonnig	gemein	versagen	gierig	krank	töten	sterben	47pct	acq_USpleas_CSpleas2_noRW	acq1_noRW	1	18	0	0	300	300	576	50	0	1	1	blank2r.bmp	0	1	+	0	1	blank2r.bmp	252	1	JQQJ	306	2	träumen	559	0	0	0	0	0	0	0	0	0	0	0	0	0	0	0	0	0	0	0	0	0	0	0	0	0	0	0	0	0	0	0	0	0	0	0	0	0	0	0
072419	14:34:02	14:36:04	120589	5.0.10.0	5_exp_noRW	84	Rpleas_acq	CS_A	LWWL	JQQJ	DXXD	YFFY	ZHHZ	CPPC	genießen	vertrauen	gütig	küssen	träumen	sonnig	gemein	versagen	gierig	krank	töten	sterben	53pct	acq_USpleas_CSunple2_noRW	acq1_noRW	1	19	0	0	300	300	483	50	0	1	1	blank2r.bmp	0	1	+	0	1	blank2r.bmp	252	1	YFFY	306	3	sonnig	559	0	0	0	0	0	0	0	0	0	0	0	0	0	0	0	0	0	0	0	0	0	0	0	0	0	0	0	0	0	0	0	0	0	0	0	0	0	0	0
072419	14:34:02	14:36:06	122215	5.0.10.0	5_exp_noRW	84	Rpleas_acq	CS_A	LWWL	JQQJ	DXXD	YFFY	ZHHZ	CPPC	genießen	vertrauen	gütig	küssen	träumen	sonnig	gemein	versagen	gierig	krank	töten	sterben	53pct	acq_USpleas_CSpleas2_noRW	acq1_noRW	1	20	0	0	300	300	456	50	0	1	1	blank2r.bmp	0	1	+	0	1	blank2r.bmp	252	1	JQQJ	306	2	träumen	559	0	0	0	0	0	0	0	0	0	0	0	0	0	0	0	0	0	0	0	0	0	0	0	0	0	0	0	0	0	0	0	0	0	0	0	0	0	0	0
072419	14:34:02	14:36:08	123854	5.0.10.0	5_exp_noRW	84	Rpleas_acq	CS_A	LWWL	JQQJ	DXXD	YFFY	ZHHZ	CPPC	genießen	vertrauen	gütig	küssen	träumen	sonnig	gemein	versagen	gierig	krank	töten	sterben	53pct	acq_USunple_CSunple1_noRW	acq1_noRW	1	21	0	0	300	300	462	46	0	1	1	blank2r.bmp	0	1	+	0	1	blank2r.bmp	252	1	DXXD	306	3	gierig	559	0	0	0	0	0	0	0	0	0	0	0	0	0	0	0	0	0	0	0	0	0	0	0	0	0	0	0	0	0	0	0	0	0	0	0	0	0	0	0
072419	14:34:02	14:36:09	125507	5.0.10.0	5_exp_noRW	84	Rpleas_acq	CS_A	LWWL	JQQJ	DXXD	YFFY	ZHHZ	CPPC	genießen	vertrauen	gütig	küssen	träumen	sonnig	gemein	versagen	gierig	krank	töten	sterben	47pct	acq_USunple_CSpleas2_noRW	acq1_noRW	1	22	0	0	300	300	466	46	0	1	1	blank2r.bmp	0	1	+	0	1	blank2r.bmp	252	1	JQQJ	306	1	krank	559	0	0	0	0	0	0	0	0	0	0	0	0	0	0	0	0	0	0	0	0	0	0	0	0	0	0	0	0	0	0	0	0	0	0	0	0	0	0	0
072419	14:34:02	14:36:11	127266	5.0.10.0	5_exp_noRW	84	Rpleas_acq	CS_A	LWWL	JQQJ	DXXD	YFFY	ZHHZ	CPPC	genießen	vertrauen	gütig	küssen	träumen	sonnig	gemein	versagen	gierig	krank	töten	sterben	53pct	acq_USpleas_CSpleas1_noRW	acq1_noRW	1	23	0	0	300	300	589	50	0	1	1	blank2r.bmp	0	1	+	0	1	blank2r.bmp	252	1	LWWL	306	1	genießen	559	0	0	0	0	0	0	0	0	0	0	0	0	0	0	0	0	0	0	0	0	0	0	0	0	0	0	0	0	0	0	0	0	0	0	0	0	0	0	0
072419	14:34:02	14:36:13	129052	5.0.10.0	5_exp_noRW	84	Rpleas_acq	CS_A	LWWL	JQQJ	DXXD	YFFY	ZHHZ	CPPC	genießen	vertrauen	gütig	küssen	träumen	sonnig	gemein	versagen	gierig	krank	töten	sterben	53pct	acq_USunple_CSunple1_noRW	acq1_noRW	1	24	0	0	300	300	615	46	0	1	1	blank2r.bmp	0	1	+	0	1	blank2r.bmp	252	1	DXXD	306	1	gemein	559	0	0	0	0	0	0	0	0	0	0	0	0	0	0	0	0	0	0	0	0	0	0	0	0	0	0	0	0	0	0	0	0	0	0	0	0	0	0	0
072419	14:34:02	14:36:14	130611	5.0.10.0	5_exp_noRW	84	Rpleas_acq	CS_A	LWWL	JQQJ	DXXD	YFFY	ZHHZ	CPPC	genießen	vertrauen	gütig	küssen	träumen	sonnig	gemein	versagen	gierig	krank	töten	sterben	53pct	acq_USunple_CSunple2_noRW	acq1_noRW	1	25	0	0	300	300	381	46	0	1	1	blank2r.bmp	0	1	+	0	1	blank2r.bmp	252	1	YFFY	306	2	töten	559	0	0	0	0	0	0	0	0	0	0	0	0	0	0	0	0	0	0	0	0	0	0	0	0	0	0	0	0	0	0	0	0	0	0	0	0	0	0	0
072419	14:34:02	14:36:16	132291	5.0.10.0	5_exp_noRW	84	Rpleas_acq	CS_A	LWWL	JQQJ	DXXD	YFFY	ZHHZ	CPPC	genießen	vertrauen	gütig	küssen	träumen	sonnig	gemein	versagen	gierig	krank	töten	sterben	53pct	acq_USunple_CSunple1_noRW	acq1_noRW	1	26	0	0	300	300	500	46	0	1	1	blank2r.bmp	0	1	+	0	1	blank2r.bmp	252	1	DXXD	306	2	versagen	559	0	0	0	0	0	0	0	0	0	0	0	0	0	0	0	0	0	0	0	0	0	0	0	0	0	0	0	0	0	0	0	0	0	0	0	0	0	0	0
072419	14:34:02	14:36:18	133850	5.0.10.0	5_exp_noRW	84	Rpleas_acq	CS_A	LWWL	JQQJ	DXXD	YFFY	ZHHZ	CPPC	genießen	vertrauen	gütig	küssen	träumen	sonnig	gemein	versagen	gierig	krank	töten	sterben	53pct	acq_USpleas_CSpleas2_noRW	acq1_noRW	1	27	0	0	300	300	382	50	0	1	1	blank2r.bmp	0	1	+	0	1	blank2r.bmp	252	1	JQQJ	306	1	küssen	559	0	0	0	0	0	0	0	0	0	0	0	0	0	0	0	0	0	0	0	0	0	0	0	0	0	0	0	0	0	0	0	0	0	0	0	0	0	0	0
072419	14:34:02	14:36:19	135583	5.0.10.0	5_exp_noRW	84	Rpleas_acq	CS_A	LWWL	JQQJ	DXXD	YFFY	ZHHZ	CPPC	genießen	vertrauen	gütig	küssen	träumen	sonnig	gemein	versagen	gierig	krank	töten	sterben	53pct	acq_USpleas_CSunple1_noRW	acq1_noRW	1	28	0	0	300	300	554	50	0	1	1	blank2r.bmp	0	1	+	0	1	blank2r.bmp	252	1	DXXD	306	3	gütig	559	0	0	0	0	0	0	0	0	0	0	0	0	0	0	0	0	0	0	0	0	0	0	0	0	0	0	0	0	0	0	0	0	0	0	0	0	0	0	0
072419	14:34:02	14:36:21	137302	5.0.10.0	5_exp_noRW	84	Rpleas_acq	CS_A	LWWL	JQQJ	DXXD	YFFY	ZHHZ	CPPC	genießen	vertrauen	gütig	küssen	träumen	sonnig	gemein	versagen	gierig	krank	töten	sterben	47pct	acq_USpleas_CSunple2_noRW	acq1_noRW	1	29	0	0	300	300	543	50	0	1	1	blank2r.bmp	0	1	+	0	1	blank2r.bmp	252	1	YFFY	306	1	küssen	559	0	0	0	0	0	0	0	0	0	0	0	0	0	0	0	0	0	0	0	0	0	0	0	0	0	0	0	0	0	0	0	0	0	0	0	0	0	0	0
072419	14:34:02	14:36:23	138874	5.0.10.0	5_exp_noRW	84	Rpleas_acq	CS_A	LWWL	JQQJ	DXXD	YFFY	ZHHZ	CPPC	genießen	vertrauen	gütig	küssen	träumen	sonnig	gemein	versagen	gierig	krank	töten	sterben	53pct	acq_USunple_CSunple2_noRW	acq1_noRW	1	30	0	0	300	300	388	46	0	1	1	blank2r.bmp	0	1	+	0	1	blank2r.bmp	252	1	YFFY	306	3	sterben	559	0	0	0	0	0	0	0	0	0	0	0	0	0	0	0	0	0	0	0	0	0	0	0	0	0	0	0	0	0	0	0	0	0	0	0	0	0	0	0
072419	14:34:02	14:36:24	140620	5.0.10.0	5_exp_noRW	84	Rpleas_acq	CS_A	LWWL	JQQJ	DXXD	YFFY	ZHHZ	CPPC	genießen	vertrauen	gütig	küssen	träumen	sonnig	gemein	versagen	gierig	krank	töten	sterben	53pct	acq_USpleas_CSpleas2_noRW	acq1_noRW	1	31	0	0	300	300	579	50	0	1	1	blank2r.bmp	0	1	+	0	1	blank2r.bmp	252	1	JQQJ	306	3	sonnig	559	0	0	0	0	0	0	0	0	0	0	0	0	0	0	0	0	0	0	0	0	0	0	0	0	0	0	0	0	0	0	0	0	0	0	0	0	0	0	0
072419	14:34:02	14:36:26	142380	5.0.10.0	5_exp_noRW	84	Rpleas_acq	CS_A	LWWL	JQQJ	DXXD	YFFY	ZHHZ	CPPC	genießen	vertrauen	gütig	küssen	träumen	sonnig	gemein	versagen	gierig	krank	töten	sterben	53pct	acq_USpleas_CSpleas1_noRW	acq1_noRW	1	32	0	0	300	300	579	50	0	1	1	blank2r.bmp	0	1	+	0	1	blank2r.bmp	252	1	LWWL	306	2	vertrauen	559	0	0	0	0	0	0	0	0	0	0	0	0	0	0	0	0	0	0	0	0	0	0	0	0	0	0	0	0	0	0	0	0	0	0	0	0	0	0	0
072419	14:34:02	14:36:28	144006	5.0.10.0	5_exp_noRW	84	Rpleas_acq	CS_A	LWWL	JQQJ	DXXD	YFFY	ZHHZ	CPPC	genießen	vertrauen	gütig	küssen	träumen	sonnig	gemein	versagen	gierig	krank	töten	sterben	47pct	acq_USunple_CSunple1_noRW	acq1_noRW	1	33	0	0	300	300	453	46	0	1	1	blank2r.bmp	0	1	+	0	1	blank2r.bmp	252	1	DXXD	306	1	gemein	559	0	0	0	0	0	0	0	0	0	0	0	0	0	0	0	0	0	0	0	0	0	0	0	0	0	0	0	0	0	0	0	0	0	0	0	0	0	0	0
072419	14:34:02	14:36:29	145578	5.0.10.0	5_exp_noRW	84	Rpleas_acq	CS_A	LWWL	JQQJ	DXXD	YFFY	ZHHZ	CPPC	genießen	vertrauen	gütig	küssen	träumen	sonnig	gemein	versagen	gierig	krank	töten	sterben	53pct	acq_USpleas_CSpleas1_noRW	acq1_noRW	1	34	0	0	300	300	400	50	0	1	1	blank2r.bmp	0	1	+	0	1	blank2r.bmp	252	1	LWWL	306	3	gütig	559	0	0	0	0	0	0	0	0	0	0	0	0	0	0	0	0	0	0	0	0	0	0	0	0	0	0	0	0	0	0	0	0	0	0	0	0	0	0	0
072419	14:34:02	14:36:31	147231	5.0.10.0	5_exp_noRW	84	Rpleas_acq	CS_A	LWWL	JQQJ	DXXD	YFFY	ZHHZ	CPPC	genießen	vertrauen	gütig	küssen	träumen	sonnig	gemein	versagen	gierig	krank	töten	sterben	47pct	acq_USpleas_CSpleas2_noRW	acq1_noRW	1	35	0	0	300	300	480	50	0	1	1	blank2r.bmp	0	1	+	0	1	blank2r.bmp	252	1	JQQJ	306	3	sonnig	559	0	0	0	0	0	0	0	0	0	0	0	0	0	0	0	0	0	0	0	0	0	0	0	0	0	0	0	0	0	0	0	0	0	0	0	0	0	0	0
072419	14:34:02	14:36:32	148817	5.0.10.0	5_exp_noRW	84	Rpleas_acq	CS_A	LWWL	JQQJ	DXXD	YFFY	ZHHZ	CPPC	genießen	vertrauen	gütig	küssen	träumen	sonnig	gemein	versagen	gierig	krank	töten	sterben	47pct	acq_USunple_CSunple2_noRW	acq1_noRW	1	36	0	0	300	300	420	46	0	1	1	blank2r.bmp	0	1	+	0	1	blank2r.bmp	252	1	YFFY	306	3	sterben	559	0	0	0	0	0	0	0	0	0	0	0	0	0	0	0	0	0	0	0	0	0	0	0	0	0	0	0	0	0	0	0	0	0	0	0	0	0	0	0
072419	14:34:02	14:36:34	150696	5.0.10.0	5_exp_noRW	84	Rpleas_acq	CS_A	LWWL	JQQJ	DXXD	YFFY	ZHHZ	CPPC	genießen	vertrauen	gütig	küssen	träumen	sonnig	gemein	versagen	gierig	krank	töten	sterben	47pct	acq_USunple_CSpleas1_noRW	acq1_noRW	1	37	0	0	300	300	691	46	0	1	1	blank2r.bmp	0	1	+	0	1	blank2r.bmp	252	1	LWWL	306	1	gemein	559	0	0	0	0	0	0	0	0	0	0	0	0	0	0	0	0	0	0	0	0	0	0	0	0	0	0	0	0	0	0	0	0	0	0	0	0	0	0	0
072419	14:34:02	14:36:36	152256	5.0.10.0	5_exp_noRW	84	Rpleas_acq	CS_A	LWWL	JQQJ	DXXD	YFFY	ZHHZ	CPPC	genießen	vertrauen	gütig	küssen	träumen	sonnig	gemein	versagen	gierig	krank	töten	sterben	53pct	acq_USpleas_CSpleas2_noRW	acq1_noRW	1	38	0	0	300	300	396	50	0	1	1	blank2r.bmp	0	1	+	0	1	blank2r.bmp	252	1	JQQJ	306	2	träumen	559	0	0	0	0	0	0	0	0	0	0	0	0	0	0	0	0	0	0	0	0	0	0	0	0	0	0	0	0	0	0	0	0	0	0	0	0	0	0	0
072419	14:34:02	14:36:38	153842	5.0.10.0	5_exp_noRW	84	Rpleas_acq	CS_A	LWWL	JQQJ	DXXD	YFFY	ZHHZ	CPPC	genießen	vertrauen	gütig	küssen	träumen	sonnig	gemein	versagen	gierig	krank	töten	sterben	53pct	acq_USunple_CSunple2_noRW	acq1_noRW	1	39	0	0	300	300	403	46	0	1	1	blank2r.bmp	0	1	+	0	1	blank2r.bmp	252	1	YFFY	306	1	krank	559	0	0	0	0	0	0	0	0	0	0	0	0	0	0	0	0	0	0	0	0	0	0	0	0	0	0	0	0	0	0	0	0	0	0	0	0	0	0	0
072419	14:34:02	14:36:39	155681	5.0.10.0	5_exp_noRW	84	Rpleas_acq	CS_A	LWWL	JQQJ	DXXD	YFFY	ZHHZ	CPPC	genießen	vertrauen	gütig	küssen	träumen	sonnig	gemein	versagen	gierig	krank	töten	sterben	47pct	acq_USpleas_CSpleas1_noRW	acq1_noRW	1	40	0	0	300	300	670	50	0	1	1	blank2r.bmp	0	1	+	0	1	blank2r.bmp	252	1	LWWL	306	2	vertrauen	559	0	0	0	0	0	0	0	0	0	0	0	0	0	0	0	0	0	0	0	0	0	0	0	0	0	0	0	0	0	0	0	0	0	0	0	0	0	0	0
072419	14:34:02	14:36:41	157373	5.0.10.0	5_exp_noRW	84	Rpleas_acq	CS_A	LWWL	JQQJ	DXXD	YFFY	ZHHZ	CPPC	genießen	vertrauen	gütig	küssen	träumen	sonnig	gemein	versagen	gierig	krank	töten	sterben	53pct	acq_USpleas_CSpleas2_noRW	acq1_noRW	1	41	0	0	300	300	505	50	0	1	1	blank2r.bmp	0	1	+	0	1	blank2r.bmp	252	1	JQQJ	306	1	küssen	559	0	0	0	0	0	0	0	0	0	0	0	0	0	0	0	0	0	0	0	0	0	0	0	0	0	0	0	0	0	0	0	0	0	0	0	0	0	0	0
072419	14:34:02	14:36:43	159119	5.0.10.0	5_exp_noRW	84	Rpleas_acq	CS_A	LWWL	JQQJ	DXXD	YFFY	ZHHZ	CPPC	genießen	vertrauen	gütig	küssen	träumen	sonnig	gemein	versagen	gierig	krank	töten	sterben	53pct	acq_USpleas_CSunple1_noRW	acq1_noRW	1	42	0	0	300	300	575	50	0	1	1	blank2r.bmp	0	1	+	0	1	blank2r.bmp	252	1	DXXD	306	1	genießen	559	0	0	0	0	0	0	0	0	0	0	0	0	0	0	0	0	0	0	0	0	0	0	0	0	0	0	0	0	0	0	0	0	0	0	0	0	0	0	0
072419	14:34:02	14:36:44	160665	5.0.10.0	5_exp_noRW	84	Rpleas_acq	CS_A	LWWL	JQQJ	DXXD	YFFY	ZHHZ	CPPC	genießen	vertrauen	gütig	küssen	träumen	sonnig	gemein	versagen	gierig	krank	töten	sterben	53pct	acq_USunple_CSpleas1_noRW	acq1_noRW	1	43	0	0	300	300	383	46	0	1	1	blank2r.bmp	0	1	+	0	1	blank2r.bmp	252	1	LWWL	306	2	versagen	559	0	0	0	0	0	0	0	0	0	0	0	0	0	0	0	0	0	0	0	0	0	0	0	0	0	0	0	0	0	0	0	0	0	0	0	0	0	0	0
072419	14:34:02	14:36:46	162278	5.0.10.0	5_exp_noRW	84	Rpleas_acq	CS_A	LWWL	JQQJ	DXXD	YFFY	ZHHZ	CPPC	genießen	vertrauen	gütig	küssen	träumen	sonnig	gemein	versagen	gierig	krank	töten	sterben	53pct	acq_USpleas_CSpleas2_noRW	acq1_noRW	1	44	0	0	300	300	433	50	0	1	1	blank2r.bmp	0	1	+	0	1	blank2r.bmp	252	1	JQQJ	306	3	sonnig	559	0	0	0	0	0	0	0	0	0	0	0	0	0	0	0	0	0	0	0	0	0	0	0	0	0	0	0	0	0	0	0	0	0	0	0	0	0	0	0
072419	14:34:02	14:36:48	163904	5.0.10.0	5_exp_noRW	84	Rpleas_acq	CS_A	LWWL	JQQJ	DXXD	YFFY	ZHHZ	CPPC	genießen	vertrauen	gütig	küssen	träumen	sonnig	gemein	versagen	gierig	krank	töten	sterben	47pct	acq_USunple_CSpleas2_noRW	acq1_noRW	1	45	0	0	300	300	443	46	0	1	1	blank2r.bmp	0	1	+	0	1	blank2r.bmp	252	1	JQQJ	306	2	töten	559	0	0	0	0	0	0	0	0	0	0	0	0	0	0	0	0	0	0	0	0	0	0	0	0	0	0	0	0	0	0	0	0	0	0	0	0	0	0	0
072419	14:34:02	14:36:49	165437	5.0.10.0	5_exp_noRW	84	Rpleas_acq	CS_A	LWWL	JQQJ	DXXD	YFFY	ZHHZ	CPPC	genießen	vertrauen	gütig	küssen	träumen	sonnig	gemein	versagen	gierig	krank	töten	sterben	47pct	acq_USunple_CSunple2_noRW	acq1_noRW	1	46	0	0	300	300	363	46	0	1	1	blank2r.bmp	0	1	+	0	1	blank2r.bmp	252	1	YFFY	306	2	töten	559	0	0	0	0	0	0	0	0	0	0	0	0	0	0	0	0	0	0	0	0	0	0	0	0	0	0	0	0	0	0	0	0	0	0	0	0	0	0	0
072419	14:34:02	14:36:51	167489	5.0.10.0	5_exp_noRW	84	Rpleas_acq	CS_A	LWWL	JQQJ	DXXD	YFFY	ZHHZ	CPPC	genießen	vertrauen	gütig	küssen	träumen	sonnig	gemein	versagen	gierig	krank	töten	sterben	47pct	acq_USpleas_CSpleas1_noRW	acq1_noRW	1	47	0	0	300	300	887	50	0	1	1	blank2r.bmp	0	1	+	0	1	blank2r.bmp	252	1	LWWL	306	1	genießen	559	0	0	0	0	0	0	0	0	0	0	0	0	0	0	0	0	0	0	0	0	0	0	0	0	0	0	0	0	0	0	0	0	0	0	0	0	0	0	0
072419	14:34:02	14:36:53	169128	5.0.10.0	5_exp_noRW	84	Rpleas_acq	CS_A	LWWL	JQQJ	DXXD	YFFY	ZHHZ	CPPC	genießen	vertrauen	gütig	küssen	träumen	sonnig	gemein	versagen	gierig	krank	töten	sterben	47pct	acq_USunple_CSunple2_noRW	acq1_noRW	1	48	0	0	300	300	461	46	0	1	1	blank2r.bmp	0	1	+	0	1	blank2r.bmp	252	1	YFFY	306	3	sterben	559	0	0	0	0	0	0	0	0	0	0	0	0	0	0	0	0	0	0	0	0	0	0	0	0	0	0	0	0	0	0	0	0	0	0	0	0	0	0	0
072419	14:34:02	14:36:54	170834	5.0.10.0	5_exp_noRW	84	Rpleas_acq	CS_A	LWWL	JQQJ	DXXD	YFFY	ZHHZ	CPPC	genießen	vertrauen	gütig	küssen	träumen	sonnig	gemein	versagen	gierig	krank	töten	sterben	53pct	acq_USpleas_CSpleas1_noRW	acq1_noRW	1	49	0	0	300	300	526	50	0	1	1	blank2r.bmp	0	1	+	0	1	blank2r.bmp	252	1	LWWL	306	1	genießen	559	0	0	0	0	0	0	0	0	0	0	0	0	0	0	0	0	0	0	0	0	0	0	0	0	0	0	0	0	0	0	0	0	0	0	0	0	0	0	0
072419	14:34:02	14:36:56	172540	5.0.10.0	5_exp_noRW	84	Rpleas_acq	CS_A	LWWL	JQQJ	DXXD	YFFY	ZHHZ	CPPC	genießen	vertrauen	gütig	küssen	träumen	sonnig	gemein	versagen	gierig	krank	töten	sterben	47pct	acq_USpleas_CSpleas2_noRW	acq1_noRW	1	50	0	0	300	300	535	50	0	1	1	blank2r.bmp	0	1	+	0	1	blank2r.bmp	252	1	JQQJ	306	1	küssen	559	0	0	0	0	0	0	0	0	0	0	0	0	0	0	0	0	0	0	0	0	0	0	0	0	0	0	0	0	0	0	0	0	0	0	0	0	0	0	0
072419	14:34:02	14:36:58	174340	5.0.10.0	5_exp_noRW	84	Rpleas_acq	CS_A	LWWL	JQQJ	DXXD	YFFY	ZHHZ	CPPC	genießen	vertrauen	gütig	küssen	träumen	sonnig	gemein	versagen	gierig	krank	töten	sterben	47pct	acq_USunple_CSunple1_noRW	acq1_noRW	1	51	0	0	300	300	618	46	0	1	1	blank2r.bmp	0	1	+	0	1	blank2r.bmp	252	1	DXXD	306	3	gierig	559	0	0	0	0	0	0	0	0	0	0	0	0	0	0	0	0	0	0	0	0	0	0	0	0	0	0	0	0	0	0	0	0	0	0	0	0	0	0	0
072419	14:34:02	14:37:00	175979	5.0.10.0	5_exp_noRW	84	Rpleas_acq	CS_A	LWWL	JQQJ	DXXD	YFFY	ZHHZ	CPPC	genießen	vertrauen	gütig	küssen	träumen	sonnig	gemein	versagen	gierig	krank	töten	sterben	47pct	acq_USpleas_CSpleas1_noRW	acq1_noRW	1	52	0	0	300	300	477	50	0	1	1	blank2r.bmp	0	1	+	0	1	blank2r.bmp	252	1	LWWL	306	2	vertrauen	559	0	0	0	0	0	0	0	0	0	0	0	0	0	0	0	0	0	0	0	0	0	0	0	0	0	0	0	0	0	0	0	0	0	0	0	0	0	0	0
072419	14:34:02	14:37:01	177805	5.0.10.0	5_exp_noRW	84	Rpleas_acq	CS_A	LWWL	JQQJ	DXXD	YFFY	ZHHZ	CPPC	genießen	vertrauen	gütig	küssen	träumen	sonnig	gemein	versagen	gierig	krank	töten	sterben	47pct	acq_USpleas_CSpleas1_noRW	acq1_noRW	1	53	0	0	300	300	634	50	0	1	1	blank2r.bmp	0	1	+	0	1	blank2r.bmp	252	1	LWWL	306	3	gütig	559	0	0	0	0	0	0	0	0	0	0	0	0	0	0	0	0	0	0	0	0	0	0	0	0	0	0	0	0	0	0	0	0	0	0	0	0	0	0	0
072419	14:34:02	14:37:03	179431	5.0.10.0	5_exp_noRW	84	Rpleas_acq	CS_A	LWWL	JQQJ	DXXD	YFFY	ZHHZ	CPPC	genießen	vertrauen	gütig	küssen	träumen	sonnig	gemein	versagen	gierig	krank	töten	sterben	47pct	acq_USunple_CSunple2_noRW	acq1_noRW	1	54	0	0	300	300	458	46	0	1	1	blank2r.bmp	0	1	+	0	1	blank2r.bmp	252	1	YFFY	306	2	töten	559	0	0	0	0	0	0	0	0	0	0	0	0	0	0	0	0	0	0	0	0	0	0	0	0	0	0	0	0	0	0	0	0	0	0	0	0	0	0	0
072419	14:34:02	14:37:05	181083	5.0.10.0	5_exp_noRW	84	Rpleas_acq	CS_A	LWWL	JQQJ	DXXD	YFFY	ZHHZ	CPPC	genießen	vertrauen	gütig	küssen	träumen	sonnig	gemein	versagen	gierig	krank	töten	sterben	47pct	acq_USunple_CSunple1_noRW	acq1_noRW	1	55	0	0	300	300	486	46	0	1	1	blank2r.bmp	0	1	+	0	1	blank2r.bmp	252	1	DXXD	306	1	gemein	559	0	0	0	0	0	0	0	0	0	0	0	0	0	0	0	0	0	0	0	0	0	0	0	0	0	0	0	0	0	0	0	0	0	0	0	0	0	0	0
072419	14:34:02	14:37:06	182630	5.0.10.0	5_exp_noRW	84	Rpleas_acq	CS_A	LWWL	JQQJ	DXXD	YFFY	ZHHZ	CPPC	genießen	vertrauen	gütig	küssen	träumen	sonnig	gemein	versagen	gierig	krank	töten	sterben	53pct	acq_USunple_CSunple2_noRW	acq1_noRW	1	56	0	0	300	300	382	46	0	1	1	blank2r.bmp	0	1	+	0	1	blank2r.bmp	252	1	YFFY	306	1	krank	559	0	0	0	0	0	0	0	0	0	0	0	0	0	0	0	0	0	0	0	0	0	0	0	0	0	0	0	0	0	0	0	0	0	0	0	0	0	0	0
072419	14:34:02	14:37:08	184202	5.0.10.0	5_exp_noRW	84	Rpleas_acq	CS_A	LWWL	JQQJ	DXXD	YFFY	ZHHZ	CPPC	genießen	vertrauen	gütig	küssen	träumen	sonnig	gemein	versagen	gierig	krank	töten	sterben	53pct	acq_USpleas_CSunple2_noRW	acq1_noRW	1	57	0	0	300	300	396	50	0	1	1	blank2r.bmp	0	1	+	0	1	blank2r.bmp	252	1	YFFY	306	2	träumen	559	0	0	0	0	0	0	0	0	0	0	0	0	0	0	0	0	0	0	0	0	0	0	0	0	0	0	0	0	0	0	0	0	0	0	0	0	0	0	0
072419	14:34:02	14:37:09	185815	5.0.10.0	5_exp_noRW	84	Rpleas_acq	CS_A	LWWL	JQQJ	DXXD	YFFY	ZHHZ	CPPC	genießen	vertrauen	gütig	küssen	träumen	sonnig	gemein	versagen	gierig	krank	töten	sterben	47pct	acq_USunple_CSunple1_noRW	acq1_noRW	1	58	0	0	300	300	434	46	0	1	1	blank2r.bmp	0	1	+	0	1	blank2r.bmp	252	1	DXXD	306	2	versagen	559	0	0	0	0	0	0	0	0	0	0	0	0	0	0	0	0	0	0	0	0	0	0	0	0	0	0	0	0	0	0	0	0	0	0	0	0	0	0	0
072419	14:34:02	14:37:11	187667	5.0.10.0	5_exp_noRW	84	Rpleas_acq	CS_A	LWWL	JQQJ	DXXD	YFFY	ZHHZ	CPPC	genießen	vertrauen	gütig	küssen	träumen	sonnig	gemein	versagen	gierig	krank	töten	sterben	47pct	acq_USpleas_CSpleas2_noRW	acq1_noRW	1	59	0	0	300	300	456	46	0	0	1	blank2r.bmp	0	1	+	0	1	blank2r.bmp	252	1	JQQJ	306	2	träumen	559	1	FEHLER	1052	0	0	0	0	0	0	0	0	0	0	0	0	0	0	0	0	0	0	0	0	0	0	0	0	0	0	0	0	0	0	0	0	0	0	0	0
072419	14:34:02	14:37:13	189173	5.0.10.0	5_exp_noRW	84	Rpleas_acq	CS_A	LWWL	JQQJ	DXXD	YFFY	ZHHZ	CPPC	genießen	vertrauen	gütig	küssen	träumen	sonnig	gemein	versagen	gierig	krank	töten	sterben	47pct	acq_USunple_CSunple1_noRW	acq1_noRW	1	60	0	0	300	300	534	46	0	1	1	blank2r.bmp	0	1	+	0	1	blank2r.bmp	252	1	DXXD	306	3	gierig	559	0	0	0	0	0	0	0	0	0	0	0	0	0	0	0	0	0	0	0	0	0	0	0	0	0	0	0	0	0	0	0	0	0	0	0	0	0	0	0
072419	14:34:02	14:37:14	190813	5.0.10.0	5_exp_noRW	84	Rpleas_acq	CS_A	LWWL	JQQJ	DXXD	YFFY	ZHHZ	CPPC	genießen	vertrauen	gütig	küssen	träumen	sonnig	gemein	versagen	gierig	krank	töten	sterben	47pct	acq_USunple_CSunple2_noRW	acq1_noRW	1	61	0	0	300	300	457	46	0	1	1	blank2r.bmp	0	1	+	0	1	blank2r.bmp	252	1	YFFY	306	2	töten	559	0	0	0	0	0	0	0	0	0	0	0	0	0	0	0	0	0	0	0	0	0	0	0	0	0	0	0	0	0	0	0	0	0	0	0	0	0	0	0
072419	14:34:02	14:37:16	192532	5.0.10.0	5_exp_noRW	84	Rpleas_acq	CS_A	LWWL	JQQJ	DXXD	YFFY	ZHHZ	CPPC	genießen	vertrauen	gütig	küssen	träumen	sonnig	gemein	versagen	gierig	krank	töten	sterben	47pct	acq_USunple_CSunple1_noRW	acq1_noRW	1	62	0	0	300	300	533	46	0	1	1	blank2r.bmp	0	1	+	0	1	blank2r.bmp	252	1	DXXD	306	3	gierig	559	0	0	0	0	0	0	0	0	0	0	0	0	0	0	0	0	0	0	0	0	0	0	0	0	0	0	0	0	0	0	0	0	0	0	0	0	0	0	0
072419	14:34:02	14:37:18	194091	5.0.10.0	5_exp_noRW	84	Rpleas_acq	CS_A	LWWL	JQQJ	DXXD	YFFY	ZHHZ	CPPC	genießen	vertrauen	gütig	küssen	träumen	sonnig	gemein	versagen	gierig	krank	töten	sterben	53pct	acq_USpleas_CSpleas1_noRW	acq1_noRW	1	63	0	0	300	300	385	50	0	1	1	blank2r.bmp	0	1	+	0	1	blank2r.bmp	252	1	LWWL	306	2	vertrauen	559	0	0	0	0	0	0	0	0	0	0	0	0	0	0	0	0	0	0	0	0	0	0	0	0	0	0	0	0	0	0	0	0	0	0	0	0	0	0	0
072419	14:34:02	14:37:19	195691	5.0.10.0	5_exp_noRW	84	Rpleas_acq	CS_A	LWWL	JQQJ	DXXD	YFFY	ZHHZ	CPPC	genießen	vertrauen	gütig	küssen	träumen	sonnig	gemein	versagen	gierig	krank	töten	sterben	53pct	acq_USpleas_CSpleas2_noRW	acq1_noRW	1	64	0	0	300	300	429	50	0	1	1	blank2r.bmp	0	1	+	0	1	blank2r.bmp	252	1	JQQJ	306	1	küssen	559	0	0	0	0	0	0	0	0	0	0	0	0	0	0	0	0	0	0	0	0	0	0	0	0	0	0	0	0	0	0	0	0	0	0	0	0	0	0	0
072419	14:34:02	14:37:21	197303	5.0.10.0	5_exp_noRW	84	Rpleas_acq	CS_A	LWWL	JQQJ	DXXD	YFFY	ZHHZ	CPPC	genießen	vertrauen	gütig	küssen	träumen	sonnig	gemein	versagen	gierig	krank	töten	sterben	53pct	acq_USunple_CSunple1_noRW	acq1_noRW	1	65	0	0	300	300	425	46	0	1	1	blank2r.bmp	0	1	+	0	1	blank2r.bmp	252	1	DXXD	306	1	gemein	559	0	0	0	0	0	0	0	0	0	0	0	0	0	0	0	0	0	0	0	0	0	0	0	0	0	0	0	0	0	0	0	0	0	0	0	0	0	0	0
072419	14:34:02	14:37:23	198876	5.0.10.0	5_exp_noRW	84	Rpleas_acq	CS_A	LWWL	JQQJ	DXXD	YFFY	ZHHZ	CPPC	genießen	vertrauen	gütig	küssen	träumen	sonnig	gemein	versagen	gierig	krank	töten	sterben	53pct	acq_USunple_CSunple2_noRW	acq1_noRW	1	66	0	0	300	300	406	46	0	1	1	blank2r.bmp	0	1	+	0	1	blank2r.bmp	252	1	YFFY	306	1	krank	559	0	0	0	0	0	0	0	0	0	0	0	0	0	0	0	0	0	0	0	0	0	0	0	0	0	0	0	0	0	0	0	0	0	0	0	0	0	0	0
072419	14:34:02	14:37:24	200489	5.0.10.0	5_exp_noRW	84	Rpleas_acq	CS_A	LWWL	JQQJ	DXXD	YFFY	ZHHZ	CPPC	genießen	vertrauen	gütig	küssen	träumen	sonnig	gemein	versagen	gierig	krank	töten	sterben	47pct	acq_USpleas_CSpleas1_noRW	acq1_noRW	1	67	0	0	300	300	432	50	0	1	1	blank2r.bmp	0	1	+	0	1	blank2r.bmp	252	1	LWWL	306	3	gütig	559	0	0	0	0	0	0	0	0	0	0	0	0	0	0	0	0	0	0	0	0	0	0	0	0	0	0	0	0	0	0	0	0	0	0	0	0	0	0	0
072419	14:34:02	14:37:26	202208	5.0.10.0	5_exp_noRW	84	Rpleas_acq	CS_A	LWWL	JQQJ	DXXD	YFFY	ZHHZ	CPPC	genießen	vertrauen	gütig	küssen	träumen	sonnig	gemein	versagen	gierig	krank	töten	sterben	47pct	acq_USunple_CSunple1_noRW	acq1_noRW	1	68	0	0	300	300	557	46	0	1	1	blank2r.bmp	0	1	+	0	1	blank2r.bmp	252	1	DXXD	306	2	versagen	559	0	0	0	0	0	0	0	0	0	0	0	0	0	0	0	0	0	0	0	0	0	0	0	0	0	0	0	0	0	0	0	0	0	0	0	0	0	0	0
072419	14:34:02	14:37:28	204047	5.0.10.0	5_exp_noRW	84	Rpleas_acq	CS_A	LWWL	JQQJ	DXXD	YFFY	ZHHZ	CPPC	genießen	vertrauen	gütig	küssen	träumen	sonnig	gemein	versagen	gierig	krank	töten	sterben	47pct	acq_USpleas_CSpleas2_noRW	acq1_noRW	1	69	0	0	300	300	654	50	0	1	1	blank2r.bmp	0	1	+	0	1	blank2r.bmp	252	1	JQQJ	306	2	träumen	559	0	0	0	0	0	0	0	0	0	0	0	0	0	0	0	0	0	0	0	0	0	0	0	0	0	0	0	0	0	0	0	0	0	0	0	0	0	0	0
072419	14:34:02	14:37:29	205633	5.0.10.0	5_exp_noRW	84	Rpleas_acq	CS_A	LWWL	JQQJ	DXXD	YFFY	ZHHZ	CPPC	genießen	vertrauen	gütig	küssen	träumen	sonnig	gemein	versagen	gierig	krank	töten	sterben	47pct	acq_USunple_CSunple2_noRW	acq1_noRW	1	70	0	0	300	300	416	46	0	1	1	blank2r.bmp	0	1	+	0	1	blank2r.bmp	252	1	YFFY	306	3	sterben	559	0	0	0	0	0	0	0	0	0	0	0	0	0	0	0	0	0	0	0	0	0	0	0	0	0	0	0	0	0	0	0	0	0	0	0	0	0	0	0
072419	14:34:02	14:37:31	207459	5.0.10.0	5_exp_noRW	84	Rpleas_acq	CS_A	LWWL	JQQJ	DXXD	YFFY	ZHHZ	CPPC	genießen	vertrauen	gütig	küssen	träumen	sonnig	gemein	versagen	gierig	krank	töten	sterben	53pct	acq_USpleas_CSpleas1_noRW	acq1_noRW	1	71	0	0	300	300	656	50	0	1	1	blank2r.bmp	0	1	+	0	1	blank2r.bmp	252	1	LWWL	306	1	genießen	559	0	0	0	0	0	0	0	0	0	0	0	0	0	0	0	0	0	0	0	0	0	0	0	0	0	0	0	0	0	0	0	0	0	0	0	0	0	0	0
072419	14:34:02	14:37:33	209365	5.0.10.0	5_exp_noRW	84	Rpleas_acq	CS_A	LWWL	JQQJ	DXXD	YFFY	ZHHZ	CPPC	genießen	vertrauen	gütig	küssen	träumen	sonnig	gemein	versagen	gierig	krank	töten	sterben	47pct	acq_USpleas_CSunple2_noRW	acq1_noRW	1	72	0	0	300	300	735	50	0	1	1	blank2r.bmp	0	1	+	0	1	blank2r.bmp	252	1	YFFY	306	3	sonnig	559	0	0	0	0	0	0	0	0	0	0	0	0	0	0	0	0	0	0	0	0	0	0	0	0	0	0	0	0	0	0	0	0	0	0	0	0	0	0	0
072419	14:34:02	14:37:35	211084	5.0.10.0	5_exp_noRW	84	Rpleas_acq	CS_A	LWWL	JQQJ	DXXD	YFFY	ZHHZ	CPPC	genießen	vertrauen	gütig	küssen	träumen	sonnig	gemein	versagen	gierig	krank	töten	sterben	47pct	acq_USunple_CSpleas1_noRW	acq1_noRW	1	73	0	0	300	300	547	46	0	1	1	blank2r.bmp	0	1	+	0	1	blank2r.bmp	252	1	LWWL	306	2	versagen	559	0	0	0	0	0	0	0	0	0	0	0	0	0	0	0	0	0	0	0	0	0	0	0	0	0	0	0	0	0	0	0	0	0	0	0	0	0	0	0
072419	14:34:02	14:37:37	212844	5.0.10.0	5_exp_noRW	84	Rpleas_acq	CS_A	LWWL	JQQJ	DXXD	YFFY	ZHHZ	CPPC	genießen	vertrauen	gütig	küssen	träumen	sonnig	gemein	versagen	gierig	krank	töten	sterben	47pct	acq_USunple_CSunple2_noRW	acq1_noRW	1	74	0	0	300	300	594	46	0	1	1	blank2r.bmp	0	1	+	0	1	blank2r.bmp	252	1	YFFY	306	2	töten	559	0	0	0	0	0	0	0	0	0	0	0	0	0	0	0	0	0	0	0	0	0	0	0	0	0	0	0	0	0	0	0	0	0	0	0	0	0	0	0
072419	14:34:02	14:37:38	214483	5.0.10.0	5_exp_noRW	84	Rpleas_acq	CS_A	LWWL	JQQJ	DXXD	YFFY	ZHHZ	CPPC	genießen	vertrauen	gütig	küssen	träumen	sonnig	gemein	versagen	gierig	krank	töten	sterben	53pct	acq_USpleas_CSpleas2_noRW	acq1_noRW	1	75	0	0	300	300	467	50	0	1	1	blank2r.bmp	0	1	+	0	1	blank2r.bmp	252	1	JQQJ	306	3	sonnig	559	0	0	0	0	0	0	0	0	0	0	0	0	0	0	0	0	0	0	0	0	0	0	0	0	0	0	0	0	0	0	0	0	0	0	0	0	0	0	0
072419	14:34:02	14:37:40	216149	5.0.10.0	5_exp_noRW	84	Rpleas_acq	CS_A	LWWL	JQQJ	DXXD	YFFY	ZHHZ	CPPC	genießen	vertrauen	gütig	küssen	träumen	sonnig	gemein	versagen	gierig	krank	töten	sterben	53pct	acq_USpleas_CSpleas1_noRW	acq1_noRW	1	76	0	0	300	300	500	50	0	1	1	blank2r.bmp	0	1	+	0	1	blank2r.bmp	252	1	LWWL	306	3	gütig	559	0	0	0	0	0	0	0	0	0	0	0	0	0	0	0	0	0	0	0	0	0	0	0	0	0	0	0	0	0	0	0	0	0	0	0	0	0	0	0
072419	14:34:02	14:37:41	217801	5.0.10.0	5_exp_noRW	84	Rpleas_acq	CS_A	LWWL	JQQJ	DXXD	YFFY	ZHHZ	CPPC	genießen	vertrauen	gütig	küssen	träumen	sonnig	gemein	versagen	gierig	krank	töten	sterben	53pct	acq_USunple_CSunple1_noRW	acq1_noRW	1	77	0	0	300	300	478	46	0	1	1	blank2r.bmp	0	1	+	0	1	blank2r.bmp	252	1	DXXD	306	3	gierig	559	0	0	0	0	0	0	0	0	0	0	0	0	0	0	0	0	0	0	0	0	0	0	0	0	0	0	0	0	0	0	0	0	0	0	0	0	0	0	0
072419	14:34:02	14:37:43	219481	5.0.10.0	5_exp_noRW	84	Rpleas_acq	CS_A	LWWL	JQQJ	DXXD	YFFY	ZHHZ	CPPC	genießen	vertrauen	gütig	küssen	träumen	sonnig	gemein	versagen	gierig	krank	töten	sterben	53pct	acq_USpleas_CSpleas2_noRW	acq1_noRW	1	78	0	0	300	300	509	50	0	1	1	blank2r.bmp	0	1	+	0	1	blank2r.bmp	252	1	JQQJ	306	1	küssen	559	0	0	0	0	0	0	0	0	0	0	0	0	0	0	0	0	0	0	0	0	0	0	0	0	0	0	0	0	0	0	0	0	0	0	0	0	0	0	0
072419	14:34:02	14:37:45	221107	5.0.10.0	5_exp_noRW	84	Rpleas_acq	CS_A	LWWL	JQQJ	DXXD	YFFY	ZHHZ	CPPC	genießen	vertrauen	gütig	küssen	träumen	sonnig	gemein	versagen	gierig	krank	töten	sterben	47pct	acq_USunple_CSpleas2_noRW	acq1_noRW	1	79	0	0	300	300	438	46	0	1	1	blank2r.bmp	0	1	+	0	1	blank2r.bmp	252	1	JQQJ	306	3	sterben	559	0	0	0	0	0	0	0	0	0	0	0	0	0	0	0	0	0	0	0	0	0	0	0	0	0	0	0	0	0	0	0	0	0	0	0	0	0	0	0
072419	14:34:02	14:37:47	222839	5.0.10.0	5_exp_noRW	84	Rpleas_acq	CS_A	LWWL	JQQJ	DXXD	YFFY	ZHHZ	CPPC	genießen	vertrauen	gütig	küssen	träumen	sonnig	gemein	versagen	gierig	krank	töten	sterben	53pct	acq_USpleas_CSunple1_noRW	acq1_noRW	1	80	0	0	300	300	547	50	0	1	1	blank2r.bmp	0	1	+	0	1	blank2r.bmp	252	1	DXXD	306	3	gütig	559	0	0	0	0	0	0	0	0	0	0	0	0	0	0	0	0	0	0	0	0	0	0	0	0	0	0	0	0	0	0	0	0	0	0	0	0	0	0	0
072419	14:34:02	14:38:41	277763	5.0.10.0	5_exp_noRW	84	Rpleas_acq	CS_A	LWWL	JQQJ	DXXD	YFFY	ZHHZ	CPPC	genießen	vertrauen	gütig	küssen	träumen	sonnig	gemein	versagen	gierig	krank	töten	sterben	47pct	acq_USpleas_CSpleas1_noRW	acq23456_noRW	2	1	0	0	300	300	569	50	0	1	1	blank2r.bmp	0	1	+	0	1	blank2r.bmp	252	1	LWWL	306	2	vertrauen	559	0	0	0	0	0	0	0	0	0	0	0	0	0	0	0	0	0	0	0	0	0	0	0	0	0	0	0	0	0	0	0	0	0	0	0	0	0	0	0
072419	14:34:02	14:38:43	279323	5.0.10.0	5_exp_noRW	84	Rpleas_acq	CS_A	LWWL	JQQJ	DXXD	YFFY	ZHHZ	CPPC	genießen	vertrauen	gütig	küssen	träumen	sonnig	gemein	versagen	gierig	krank	töten	sterben	53pct	acq_USunple_CSunple2_noRW	acq23456_noRW	2	2	0	0	300	300	378	46	0	1	1	blank2r.bmp	0	1	+	0	1	blank2r.bmp	252	1	YFFY	306	1	krank	559	0	0	0	0	0	0	0	0	0	0	0	0	0	0	0	0	0	0	0	0	0	0	0	0	0	0	0	0	0	0	0	0	0	0	0	0	0	0	0
072419	14:34:02	14:38:45	281042	5.0.10.0	5_exp_noRW	84	Rpleas_acq	CS_A	LWWL	JQQJ	DXXD	YFFY	ZHHZ	CPPC	genießen	vertrauen	gütig	küssen	träumen	sonnig	gemein	versagen	gierig	krank	töten	sterben	47pct	acq_USunple_CSunple2_noRW	acq23456_noRW	2	3	0	0	300	300	539	46	0	1	1	blank2r.bmp	0	1	+	0	1	blank2r.bmp	252	1	YFFY	306	3	sterben	559	0	0	0	0	0	0	0	0	0	0	0	0	0	0	0	0	0	0	0	0	0	0	0	0	0	0	0	0	0	0	0	0	0	0	0	0	0	0	0
072419	14:34:02	14:38:46	282774	5.0.10.0	5_exp_noRW	84	Rpleas_acq	CS_A	LWWL	JQQJ	DXXD	YFFY	ZHHZ	CPPC	genießen	vertrauen	gütig	küssen	träumen	sonnig	gemein	versagen	gierig	krank	töten	sterben	53pct	acq_USpleas_CSpleas2_noRW	acq23456_noRW	2	4	0	0	300	300	554	50	0	1	1	blank2r.bmp	0	1	+	0	1	blank2r.bmp	252	1	JQQJ	306	3	sonnig	559	0	0	0	0	0	0	0	0	0	0	0	0	0	0	0	0	0	0	0	0	0	0	0	0	0	0	0	0	0	0	0	0	0	0	0	0	0	0	0
072419	14:34:02	14:38:48	284347	5.0.10.0	5_exp_noRW	84	Rpleas_acq	CS_A	LWWL	JQQJ	DXXD	YFFY	ZHHZ	CPPC	genießen	vertrauen	gütig	küssen	träumen	sonnig	gemein	versagen	gierig	krank	töten	sterben	53pct	acq_USunple_CSunple1_noRW	acq23456_noRW	2	5	0	0	300	300	404	46	0	1	1	blank2r.bmp	0	1	+	0	1	blank2r.bmp	252	1	DXXD	306	2	versagen	559	0	0	0	0	0	0	0	0	0	0	0	0	0	0	0	0	0	0	0	0	0	0	0	0	0	0	0	0	0	0	0	0	0	0	0	0	0	0	0
072419	14:34:02	14:38:50	285946	5.0.10.0	5_exp_noRW	84	Rpleas_acq	CS_A	LWWL	JQQJ	DXXD	YFFY	ZHHZ	CPPC	genießen	vertrauen	gütig	küssen	träumen	sonnig	gemein	versagen	gierig	krank	töten	sterben	47pct	acq_USpleas_CSunple2_noRW	acq23456_noRW	2	6	0	0	300	300	415	50	0	1	1	blank2r.bmp	0	1	+	0	1	blank2r.bmp	252	1	YFFY	306	1	küssen	559	0	0	0	0	0	0	0	0	0	0	0	0	0	0	0	0	0	0	0	0	0	0	0	0	0	0	0	0	0	0	0	0	0	0	0	0	0	0	0
072419	14:34:02	14:38:51	287519	5.0.10.0	5_exp_noRW	84	Rpleas_acq	CS_A	LWWL	JQQJ	DXXD	YFFY	ZHHZ	CPPC	genießen	vertrauen	gütig	küssen	träumen	sonnig	gemein	versagen	gierig	krank	töten	sterben	53pct	acq_USunple_CSunple1_noRW	acq23456_noRW	2	7	0	0	300	300	403	46	0	1	1	blank2r.bmp	0	1	+	0	1	blank2r.bmp	252	1	DXXD	306	1	gemein	559	0	0	0	0	0	0	0	0	0	0	0	0	0	0	0	0	0	0	0	0	0	0	0	0	0	0	0	0	0	0	0	0	0	0	0	0	0	0	0
072419	14:34:02	14:38:53	289078	5.0.10.0	5_exp_noRW	84	Rpleas_acq	CS_A	LWWL	JQQJ	DXXD	YFFY	ZHHZ	CPPC	genießen	vertrauen	gütig	küssen	träumen	sonnig	gemein	versagen	gierig	krank	töten	sterben	53pct	acq_USunple_CSpleas2_noRW	acq23456_noRW	2	8	0	0	300	300	398	46	0	1	1	blank2r.bmp	0	1	+	0	1	blank2r.bmp	252	1	JQQJ	306	2	töten	559	0	0	0	0	0	0	0	0	0	0	0	0	0	0	0	0	0	0	0	0	0	0	0	0	0	0	0	0	0	0	0	0	0	0	0	0	0	0	0
072419	14:34:02	14:38:54	290731	5.0.10.0	5_exp_noRW	84	Rpleas_acq	CS_A	LWWL	JQQJ	DXXD	YFFY	ZHHZ	CPPC	genießen	vertrauen	gütig	küssen	träumen	sonnig	gemein	versagen	gierig	krank	töten	sterben	47pct	acq_USpleas_CSpleas2_noRW	acq23456_noRW	2	9	0	0	300	300	457	50	0	1	1	blank2r.bmp	0	1	+	0	1	blank2r.bmp	252	1	JQQJ	306	2	träumen	559	0	0	0	0	0	0	0	0	0	0	0	0	0	0	0	0	0	0	0	0	0	0	0	0	0	0	0	0	0	0	0	0	0	0	0	0	0	0	0
072419	14:34:02	14:38:56	292277	5.0.10.0	5_exp_noRW	84	Rpleas_acq	CS_A	LWWL	JQQJ	DXXD	YFFY	ZHHZ	CPPC	genießen	vertrauen	gütig	küssen	träumen	sonnig	gemein	versagen	gierig	krank	töten	sterben	47pct	acq_USunple_CSunple2_noRW	acq23456_noRW	2	10	0	0	300	300	384	46	0	1	1	blank2r.bmp	0	1	+	0	1	blank2r.bmp	252	1	YFFY	306	2	töten	559	0	0	0	0	0	0	0	0	0	0	0	0	0	0	0	0	0	0	0	0	0	0	0	0	0	0	0	0	0	0	0	0	0	0	0	0	0	0	0
072419	14:34:02	14:38:58	294010	5.0.10.0	5_exp_noRW	84	Rpleas_acq	CS_A	LWWL	JQQJ	DXXD	YFFY	ZHHZ	CPPC	genießen	vertrauen	gütig	küssen	träumen	sonnig	gemein	versagen	gierig	krank	töten	sterben	47pct	acq_USunple_CSunple1_noRW	acq23456_noRW	2	11	0	0	300	300	555	46	0	1	1	blank2r.bmp	0	1	+	0	1	blank2r.bmp	252	1	DXXD	306	2	versagen	559	0	0	0	0	0	0	0	0	0	0	0	0	0	0	0	0	0	0	0	0	0	0	0	0	0	0	0	0	0	0	0	0	0	0	0	0	0	0	0
072419	14:34:02	14:38:59	295662	5.0.10.0	5_exp_noRW	84	Rpleas_acq	CS_A	LWWL	JQQJ	DXXD	YFFY	ZHHZ	CPPC	genießen	vertrauen	gütig	küssen	träumen	sonnig	gemein	versagen	gierig	krank	töten	sterben	47pct	acq_USpleas_CSpleas1_noRW	acq23456_noRW	2	12	0	0	300	300	476	50	0	1	1	blank2r.bmp	0	1	+	0	1	blank2r.bmp	252	1	LWWL	306	1	genießen	559	0	0	0	0	0	0	0	0	0	0	0	0	0	0	0	0	0	0	0	0	0	0	0	0	0	0	0	0	0	0	0	0	0	0	0	0	0	0	0
072419	14:34:02	14:39:01	297288	5.0.10.0	5_exp_noRW	84	Rpleas_acq	CS_A	LWWL	JQQJ	DXXD	YFFY	ZHHZ	CPPC	genießen	vertrauen	gütig	küssen	träumen	sonnig	gemein	versagen	gierig	krank	töten	sterben	53pct	acq_USunple_CSpleas1_noRW	acq23456_noRW	2	13	0	0	300	300	453	46	0	1	1	blank2r.bmp	0	1	+	0	1	blank2r.bmp	252	1	LWWL	306	3	gierig	559	0	0	0	0	0	0	0	0	0	0	0	0	0	0	0	0	0	0	0	0	0	0	0	0	0	0	0	0	0	0	0	0	0	0	0	0	0	0	0
072419	14:34:02	14:39:03	299048	5.0.10.0	5_exp_noRW	84	Rpleas_acq	CS_A	LWWL	JQQJ	DXXD	YFFY	ZHHZ	CPPC	genießen	vertrauen	gütig	küssen	träumen	sonnig	gemein	versagen	gierig	krank	töten	sterben	47pct	acq_USpleas_CSpleas1_noRW	acq23456_noRW	2	14	0	0	300	300	592	50	0	1	1	blank2r.bmp	0	1	+	0	1	blank2r.bmp	252	1	LWWL	306	2	vertrauen	559	0	0	0	0	0	0	0	0	0	0	0	0	0	0	0	0	0	0	0	0	0	0	0	0	0	0	0	0	0	0	0	0	0	0	0	0	0	0	0
072419	14:34:02	14:39:04	300660	5.0.10.0	5_exp_noRW	84	Rpleas_acq	CS_A	LWWL	JQQJ	DXXD	YFFY	ZHHZ	CPPC	genießen	vertrauen	gütig	küssen	träumen	sonnig	gemein	versagen	gierig	krank	töten	sterben	53pct	acq_USpleas_CSpleas2_noRW	acq23456_noRW	2	15	0	0	300	300	449	50	0	1	1	blank2r.bmp	0	1	+	0	1	blank2r.bmp	252	1	JQQJ	306	3	sonnig	559	0	0	0	0	0	0	0	0	0	0	0	0	0	0	0	0	0	0	0	0	0	0	0	0	0	0	0	0	0	0	0	0	0	0	0	0	0	0	0
072419	14:34:02	14:39:06	302326	5.0.10.0	5_exp_noRW	84	Rpleas_acq	CS_A	LWWL	JQQJ	DXXD	YFFY	ZHHZ	CPPC	genießen	vertrauen	gütig	küssen	träumen	sonnig	gemein	versagen	gierig	krank	töten	sterben	53pct	acq_USpleas_CSunple1_noRW	acq23456_noRW	2	16	0	0	300	300	489	50	0	1	1	blank2r.bmp	0	1	+	0	1	blank2r.bmp	252	1	DXXD	306	1	genießen	559	0	0	0	0	0	0	0	0	0	0	0	0	0	0	0	0	0	0	0	0	0	0	0	0	0	0	0	0	0	0	0	0	0	0	0	0	0	0	0
072419	14:34:02	14:39:08	304352	5.0.10.0	5_exp_noRW	84	Rpleas_acq	CS_A	LWWL	JQQJ	DXXD	YFFY	ZHHZ	CPPC	genießen	vertrauen	gütig	küssen	träumen	sonnig	gemein	versagen	gierig	krank	töten	sterben	47pct	acq_USpleas_CSpleas2_noRW	acq23456_noRW	2	17	0	0	300	300	847	50	0	1	1	blank2r.bmp	0	1	+	0	1	blank2r.bmp	252	1	JQQJ	306	2	träumen	559	0	0	0	0	0	0	0	0	0	0	0	0	0	0	0	0	0	0	0	0	0	0	0	0	0	0	0	0	0	0	0	0	0	0	0	0	0	0	0
072419	14:34:02	14:39:10	305925	5.0.10.0	5_exp_noRW	84	Rpleas_acq	CS_A	LWWL	JQQJ	DXXD	YFFY	ZHHZ	CPPC	genießen	vertrauen	gütig	küssen	träumen	sonnig	gemein	versagen	gierig	krank	töten	sterben	53pct	acq_USunple_CSunple1_noRW	acq23456_noRW	2	18	0	0	300	300	401	46	0	1	1	blank2r.bmp	0	1	+	0	1	blank2r.bmp	252	1	DXXD	306	3	gierig	559	0	0	0	0	0	0	0	0	0	0	0	0	0	0	0	0	0	0	0	0	0	0	0	0	0	0	0	0	0	0	0	0	0	0	0	0	0	0	0
072419	14:34:02	14:39:11	307497	5.0.10.0	5_exp_noRW	84	Rpleas_acq	CS_A	LWWL	JQQJ	DXXD	YFFY	ZHHZ	CPPC	genießen	vertrauen	gütig	küssen	träumen	sonnig	gemein	versagen	gierig	krank	töten	sterben	53pct	acq_USunple_CSunple2_noRW	acq23456_noRW	2	19	0	0	300	300	403	46	0	1	1	blank2r.bmp	0	1	+	0	1	blank2r.bmp	252	1	YFFY	306	3	sterben	559	0	0	0	0	0	0	0	0	0	0	0	0	0	0	0	0	0	0	0	0	0	0	0	0	0	0	0	0	0	0	0	0	0	0	0	0	0	0	0
072419	14:34:02	14:39:13	309163	5.0.10.0	5_exp_noRW	84	Rpleas_acq	CS_A	LWWL	JQQJ	DXXD	YFFY	ZHHZ	CPPC	genießen	vertrauen	gütig	küssen	träumen	sonnig	gemein	versagen	gierig	krank	töten	sterben	47pct	acq_USpleas_CSpleas1_noRW	acq23456_noRW	2	20	0	0	300	300	482	50	0	1	1	blank2r.bmp	0	1	+	0	1	blank2r.bmp	252	1	LWWL	306	1	genießen	559	0	0	0	0	0	0	0	0	0	0	0	0	0	0	0	0	0	0	0	0	0	0	0	0	0	0	0	0	0	0	0	0	0	0	0	0	0	0	0
072419	14:34:02	14:39:14	310763	5.0.10.0	5_exp_noRW	84	Rpleas_acq	CS_A	LWWL	JQQJ	DXXD	YFFY	ZHHZ	CPPC	genießen	vertrauen	gütig	küssen	träumen	sonnig	gemein	versagen	gierig	krank	töten	sterben	47pct	acq_USunple_CSunple2_noRW	acq23456_noRW	2	21	0	0	300	300	436	46	0	1	1	blank2r.bmp	0	1	+	0	1	blank2r.bmp	252	1	YFFY	306	1	krank	559	0	0	0	0	0	0	0	0	0	0	0	0	0	0	0	0	0	0	0	0	0	0	0	0	0	0	0	0	0	0	0	0	0	0	0	0	0	0	0
072419	14:34:02	14:39:16	312535	5.0.10.0	5_exp_noRW	84	Rpleas_acq	CS_A	LWWL	JQQJ	DXXD	YFFY	ZHHZ	CPPC	genießen	vertrauen	gütig	küssen	träumen	sonnig	gemein	versagen	gierig	krank	töten	sterben	47pct	acq_USpleas_CSpleas2_noRW	acq23456_noRW	2	22	0	0	300	300	573	50	0	1	1	blank2r.bmp	0	1	+	0	1	blank2r.bmp	252	1	JQQJ	306	1	küssen	559	0	0	0	0	0	0	0	0	0	0	0	0	0	0	0	0	0	0	0	0	0	0	0	0	0	0	0	0	0	0	0	0	0	0	0	0	0	0	0
072419	14:34:02	14:39:18	314241	5.0.10.0	5_exp_noRW	84	Rpleas_acq	CS_A	LWWL	JQQJ	DXXD	YFFY	ZHHZ	CPPC	genießen	vertrauen	gütig	küssen	träumen	sonnig	gemein	versagen	gierig	krank	töten	sterben	47pct	acq_USunple_CSunple2_noRW	acq23456_noRW	2	23	0	0	300	300	521	46	0	1	1	blank2r.bmp	0	1	+	0	1	blank2r.bmp	252	1	YFFY	306	3	sterben	559	0	0	0	0	0	0	0	0	0	0	0	0	0	0	0	0	0	0	0	0	0	0	0	0	0	0	0	0	0	0	0	0	0	0	0	0	0	0	0
072419	14:34:02	14:39:20	315854	5.0.10.0	5_exp_noRW	84	Rpleas_acq	CS_A	LWWL	JQQJ	DXXD	YFFY	ZHHZ	CPPC	genießen	vertrauen	gütig	küssen	träumen	sonnig	gemein	versagen	gierig	krank	töten	sterben	47pct	acq_USpleas_CSpleas1_noRW	acq23456_noRW	2	24	0	0	300	300	445	50	0	1	1	blank2r.bmp	0	1	+	0	1	blank2r.bmp	252	1	LWWL	306	3	gütig	559	0	0	0	0	0	0	0	0	0	0	0	0	0	0	0	0	0	0	0	0	0	0	0	0	0	0	0	0	0	0	0	0	0	0	0	0	0	0	0
072419	14:34:02	14:39:21	317347	5.0.10.0	5_exp_noRW	84	Rpleas_acq	CS_A	LWWL	JQQJ	DXXD	YFFY	ZHHZ	CPPC	genießen	vertrauen	gütig	küssen	träumen	sonnig	gemein	versagen	gierig	krank	töten	sterben	47pct	acq_USunple_CSunple1_noRW	acq23456_noRW	2	25	0	0	300	300	309	46	0	1	1	blank2r.bmp	0	1	+	0	1	blank2r.bmp	252	1	DXXD	306	1	gemein	559	0	0	0	0	0	0	0	0	0	0	0	0	0	0	0	0	0	0	0	0	0	0	0	0	0	0	0	0	0	0	0	0	0	0	0	0	0	0	0
072419	14:34:02	14:39:23	319066	5.0.10.0	5_exp_noRW	84	Rpleas_acq	CS_A	LWWL	JQQJ	DXXD	YFFY	ZHHZ	CPPC	genießen	vertrauen	gütig	küssen	träumen	sonnig	gemein	versagen	gierig	krank	töten	sterben	47pct	acq_USunple_CSunple2_noRW	acq23456_noRW	2	26	0	0	300	300	557	46	0	1	1	blank2r.bmp	0	1	+	0	1	blank2r.bmp	252	1	YFFY	306	1	krank	559	0	0	0	0	0	0	0	0	0	0	0	0	0	0	0	0	0	0	0	0	0	0	0	0	0	0	0	0	0	0	0	0	0	0	0	0	0	0	0
072419	14:34:02	14:39:24	320745	5.0.10.0	5_exp_noRW	84	Rpleas_acq	CS_A	LWWL	JQQJ	DXXD	YFFY	ZHHZ	CPPC	genießen	vertrauen	gütig	küssen	träumen	sonnig	gemein	versagen	gierig	krank	töten	sterben	47pct	acq_USunple_CSpleas2_noRW	acq23456_noRW	2	27	0	0	300	300	492	46	0	1	1	blank2r.bmp	0	1	+	0	1	blank2r.bmp	252	1	JQQJ	306	1	krank	559	0	0	0	0	0	0	0	0	0	0	0	0	0	0	0	0	0	0	0	0	0	0	0	0	0	0	0	0	0	0	0	0	0	0	0	0	0	0	0
072419	14:34:02	14:39:26	322464	5.0.10.0	5_exp_noRW	84	Rpleas_acq	CS_A	LWWL	JQQJ	DXXD	YFFY	ZHHZ	CPPC	genießen	vertrauen	gütig	küssen	träumen	sonnig	gemein	versagen	gierig	krank	töten	sterben	53pct	acq_USunple_CSunple2_noRW	acq23456_noRW	2	28	0	0	300	300	554	46	0	1	1	blank2r.bmp	0	1	+	0	1	blank2r.bmp	252	1	YFFY	306	2	töten	559	0	0	0	0	0	0	0	0	0	0	0	0	0	0	0	0	0	0	0	0	0	0	0	0	0	0	0	0	0	0	0	0	0	0	0	0	0	0	0
072419	14:34:02	14:39:28	324050	5.0.10.0	5_exp_noRW	84	Rpleas_acq	CS_A	LWWL	JQQJ	DXXD	YFFY	ZHHZ	CPPC	genießen	vertrauen	gütig	küssen	träumen	sonnig	gemein	versagen	gierig	krank	töten	sterben	53pct	acq_USpleas_CSunple1_noRW	acq23456_noRW	2	29	0	0	300	300	414	50	0	1	1	blank2r.bmp	0	1	+	0	1	blank2r.bmp	252	1	DXXD	306	2	vertrauen	559	0	0	0	0	0	0	0	0	0	0	0	0	0	0	0	0	0	0	0	0	0	0	0	0	0	0	0	0	0	0	0	0	0	0	0	0	0	0	0
072419	14:34:02	14:39:29	325836	5.0.10.0	5_exp_noRW	84	Rpleas_acq	CS_A	LWWL	JQQJ	DXXD	YFFY	ZHHZ	CPPC	genießen	vertrauen	gütig	küssen	träumen	sonnig	gemein	versagen	gierig	krank	töten	sterben	53pct	acq_USpleas_CSpleas1_noRW	acq23456_noRW	2	30	0	0	300	300	397	46	0	0	1	blank2r.bmp	0	1	+	0	1	blank2r.bmp	252	1	LWWL	306	1	genießen	559	1	FEHLER	986	0	0	0	0	0	0	0	0	0	0	0	0	0	0	0	0	0	0	0	0	0	0	0	0	0	0	0	0	0	0	0	0	0	0	0	0
072419	14:34:02	14:39:31	327262	5.0.10.0	5_exp_noRW	84	Rpleas_acq	CS_A	LWWL	JQQJ	DXXD	YFFY	ZHHZ	CPPC	genießen	vertrauen	gütig	küssen	träumen	sonnig	gemein	versagen	gierig	krank	töten	sterben	47pct	acq_USunple_CSpleas1_noRW	acq23456_noRW	2	31	0	0	300	300	459	46	0	1	1	blank2r.bmp	0	1	+	0	1	blank2r.bmp	252	1	LWWL	306	1	gemein	559	0	0	0	0	0	0	0	0	0	0	0	0	0	0	0	0	0	0	0	0	0	0	0	0	0	0	0	0	0	0	0	0	0	0	0	0	0	0	0
072419	14:34:02	14:39:33	329022	5.0.10.0	5_exp_noRW	84	Rpleas_acq	CS_A	LWWL	JQQJ	DXXD	YFFY	ZHHZ	CPPC	genießen	vertrauen	gütig	küssen	träumen	sonnig	gemein	versagen	gierig	krank	töten	sterben	47pct	acq_USunple_CSunple1_noRW	acq23456_noRW	2	32	0	0	300	300	578	46	0	1	1	blank2r.bmp	0	1	+	0	1	blank2r.bmp	252	1	DXXD	306	2	versagen	559	0	0	0	0	0	0	0	0	0	0	0	0	0	0	0	0	0	0	0	0	0	0	0	0	0	0	0	0	0	0	0	0	0	0	0	0	0	0	0
072419	14:34:02	14:39:34	330608	5.0.10.0	5_exp_noRW	84	Rpleas_acq	CS_A	LWWL	JQQJ	DXXD	YFFY	ZHHZ	CPPC	genießen	vertrauen	gütig	küssen	träumen	sonnig	gemein	versagen	gierig	krank	töten	sterben	47pct	acq_USpleas_CSpleas2_noRW	acq23456_noRW	2	33	0	0	300	300	410	50	0	1	1	blank2r.bmp	0	1	+	0	1	blank2r.bmp	252	1	JQQJ	306	2	träumen	559	0	0	0	0	0	0	0	0	0	0	0	0	0	0	0	0	0	0	0	0	0	0	0	0	0	0	0	0	0	0	0	0	0	0	0	0	0	0	0
072419	14:34:02	14:39:36	332247	5.0.10.0	5_exp_noRW	84	Rpleas_acq	CS_A	LWWL	JQQJ	DXXD	YFFY	ZHHZ	CPPC	genießen	vertrauen	gütig	küssen	träumen	sonnig	gemein	versagen	gierig	krank	töten	sterben	53pct	acq_USunple_CSunple1_noRW	acq23456_noRW	2	34	0	0	300	300	465	46	0	1	1	blank2r.bmp	0	1	+	0	1	blank2r.bmp	252	1	DXXD	306	1	gemein	559	0	0	0	0	0	0	0	0	0	0	0	0	0	0	0	0	0	0	0	0	0	0	0	0	0	0	0	0	0	0	0	0	0	0	0	0	0	0	0
072419	14:34:02	14:39:38	333980	5.0.10.0	5_exp_noRW	84	Rpleas_acq	CS_A	LWWL	JQQJ	DXXD	YFFY	ZHHZ	CPPC	genießen	vertrauen	gütig	küssen	träumen	sonnig	gemein	versagen	gierig	krank	töten	sterben	53pct	acq_USpleas_CSunple2_noRW	acq23456_noRW	2	35	0	0	300	300	555	50	0	1	1	blank2r.bmp	0	1	+	0	1	blank2r.bmp	252	1	YFFY	306	2	träumen	559	0	0	0	0	0	0	0	0	0	0	0	0	0	0	0	0	0	0	0	0	0	0	0	0	0	0	0	0	0	0	0	0	0	0	0	0	0	0	0
072419	14:34:02	14:39:39	335659	5.0.10.0	5_exp_noRW	84	Rpleas_acq	CS_A	LWWL	JQQJ	DXXD	YFFY	ZHHZ	CPPC	genießen	vertrauen	gütig	küssen	träumen	sonnig	gemein	versagen	gierig	krank	töten	sterben	53pct	acq_USpleas_CSpleas2_noRW	acq23456_noRW	2	36	0	0	300	300	493	50	0	1	1	blank2r.bmp	0	1	+	0	1	blank2r.bmp	252	1	JQQJ	306	3	sonnig	559	0	0	0	0	0	0	0	0	0	0	0	0	0	0	0	0	0	0	0	0	0	0	0	0	0	0	0	0	0	0	0	0	0	0	0	0	0	0	0
072419	14:34:02	14:39:41	337285	5.0.10.0	5_exp_noRW	84	Rpleas_acq	CS_A	LWWL	JQQJ	DXXD	YFFY	ZHHZ	CPPC	genießen	vertrauen	gütig	küssen	träumen	sonnig	gemein	versagen	gierig	krank	töten	sterben	53pct	acq_USpleas_CSpleas2_noRW	acq23456_noRW	2	37	0	0	300	300	455	50	0	1	1	blank2r.bmp	0	1	+	0	1	blank2r.bmp	252	1	JQQJ	306	1	küssen	559	0	0	0	0	0	0	0	0	0	0	0	0	0	0	0	0	0	0	0	0	0	0	0	0	0	0	0	0	0	0	0	0	0	0	0	0	0	0	0
072419	14:34:02	14:39:43	339017	5.0.10.0	5_exp_noRW	84	Rpleas_acq	CS_A	LWWL	JQQJ	DXXD	YFFY	ZHHZ	CPPC	genießen	vertrauen	gütig	küssen	träumen	sonnig	gemein	versagen	gierig	krank	töten	sterben	53pct	acq_USpleas_CSpleas1_noRW	acq23456_noRW	2	38	0	0	300	300	364	46	0	0	1	blank2r.bmp	0	1	+	0	1	blank2r.bmp	252	1	LWWL	306	2	vertrauen	559	1	FEHLER	959	0	0	0	0	0	0	0	0	0	0	0	0	0	0	0	0	0	0	0	0	0	0	0	0	0	0	0	0	0	0	0	0	0	0	0	0
072419	14:34:02	14:39:44	340763	5.0.10.0	5_exp_noRW	84	Rpleas_acq	CS_A	LWWL	JQQJ	DXXD	YFFY	ZHHZ	CPPC	genießen	vertrauen	gütig	küssen	träumen	sonnig	gemein	versagen	gierig	krank	töten	sterben	53pct	acq_USpleas_CSpleas1_noRW	acq23456_noRW	2	39	0	0	300	300	553	46	0	0	1	blank2r.bmp	0	1	+	0	1	blank2r.bmp	252	1	LWWL	306	3	gütig	559	1	FEHLER	1146	0	0	0	0	0	0	0	0	0	0	0	0	0	0	0	0	0	0	0	0	0	0	0	0	0	0	0	0	0	0	0	0	0	0	0	0
072419	14:34:02	14:39:46	342429	5.0.10.0	5_exp_noRW	84	Rpleas_acq	CS_A	LWWL	JQQJ	DXXD	YFFY	ZHHZ	CPPC	genießen	vertrauen	gütig	küssen	träumen	sonnig	gemein	versagen	gierig	krank	töten	sterben	47pct	acq_USunple_CSunple1_noRW	acq23456_noRW	2	40	0	0	300	300	692	46	0	1	1	blank2r.bmp	0	1	+	0	1	blank2r.bmp	252	1	DXXD	306	3	gierig	559	0	0	0	0	0	0	0	0	0	0	0	0	0	0	0	0	0	0	0	0	0	0	0	0	0	0	0	0	0	0	0	0	0	0	0	0	0	0	0
072419	14:34:02	14:39:48	344135	5.0.10.0	5_exp_noRW	84	Rpleas_acq	CS_A	LWWL	JQQJ	DXXD	YFFY	ZHHZ	CPPC	genießen	vertrauen	gütig	küssen	träumen	sonnig	gemein	versagen	gierig	krank	töten	sterben	47pct	acq_USpleas_CSpleas2_noRW	acq23456_noRW	2	41	0	0	300	300	537	50	0	1	1	blank2r.bmp	0	1	+	0	1	blank2r.bmp	252	1	JQQJ	306	2	träumen	559	0	0	0	0	0	0	0	0	0	0	0	0	0	0	0	0	0	0	0	0	0	0	0	0	0	0	0	0	0	0	0	0	0	0	0	0	0	0	0
072419	14:34:02	14:39:50	346294	5.0.10.0	5_exp_noRW	84	Rpleas_acq	CS_A	LWWL	JQQJ	DXXD	YFFY	ZHHZ	CPPC	genießen	vertrauen	gütig	küssen	träumen	sonnig	gemein	versagen	gierig	krank	töten	sterben	47pct	acq_USpleas_CSpleas1_noRW	acq23456_noRW	2	42	0	0	300	300	995	50	0	1	1	blank2r.bmp	0	1	+	0	1	blank2r.bmp	252	1	LWWL	306	2	vertrauen	559	0	0	0	0	0	0	0	0	0	0	0	0	0	0	0	0	0	0	0	0	0	0	0	0	0	0	0	0	0	0	0	0	0	0	0	0	0	0	0
072419	14:34:02	14:39:52	347987	5.0.10.0	5_exp_noRW	84	Rpleas_acq	CS_A	LWWL	JQQJ	DXXD	YFFY	ZHHZ	CPPC	genießen	vertrauen	gütig	küssen	träumen	sonnig	gemein	versagen	gierig	krank	töten	sterben	53pct	acq_USunple_CSpleas1_noRW	acq23456_noRW	2	43	0	0	300	300	505	46	0	1	1	blank2r.bmp	0	1	+	0	1	blank2r.bmp	252	1	LWWL	306	2	versagen	559	0	0	0	0	0	0	0	0	0	0	0	0	0	0	0	0	0	0	0	0	0	0	0	0	0	0	0	0	0	0	0	0	0	0	0	0	0	0	0
072419	14:34:02	14:39:53	349573	5.0.10.0	5_exp_noRW	84	Rpleas_acq	CS_A	LWWL	JQQJ	DXXD	YFFY	ZHHZ	CPPC	genießen	vertrauen	gütig	küssen	träumen	sonnig	gemein	versagen	gierig	krank	töten	sterben	53pct	acq_USunple_CSunple1_noRW	acq23456_noRW	2	44	0	0	300	300	421	46	0	1	1	blank2r.bmp	0	1	+	0	1	blank2r.bmp	252	1	DXXD	306	2	versagen	559	0	0	0	0	0	0	0	0	0	0	0	0	0	0	0	0	0	0	0	0	0	0	0	0	0	0	0	0	0	0	0	0	0	0	0	0	0	0	0
072419	14:34:02	14:39:55	351212	5.0.10.0	5_exp_noRW	84	Rpleas_acq	CS_A	LWWL	JQQJ	DXXD	YFFY	ZHHZ	CPPC	genießen	vertrauen	gütig	küssen	träumen	sonnig	gemein	versagen	gierig	krank	töten	sterben	47pct	acq_USpleas_CSunple2_noRW	acq23456_noRW	2	45	0	0	300	300	466	50	0	1	1	blank2r.bmp	0	1	+	0	1	blank2r.bmp	252	1	YFFY	306	2	träumen	559	0	0	0	0	0	0	0	0	0	0	0	0	0	0	0	0	0	0	0	0	0	0	0	0	0	0	0	0	0	0	0	0	0	0	0	0	0	0	0
072419	14:34:02	14:39:56	352705	5.0.10.0	5_exp_noRW	84	Rpleas_acq	CS_A	LWWL	JQQJ	DXXD	YFFY	ZHHZ	CPPC	genießen	vertrauen	gütig	küssen	träumen	sonnig	gemein	versagen	gierig	krank	töten	sterben	53pct	acq_USunple_CSpleas2_noRW	acq23456_noRW	2	46	0	0	300	300	327	46	0	1	1	blank2r.bmp	0	1	+	0	1	blank2r.bmp	252	1	JQQJ	306	3	sterben	559	0	0	0	0	0	0	0	0	0	0	0	0	0	0	0	0	0	0	0	0	0	0	0	0	0	0	0	0	0	0	0	0	0	0	0	0	0	0	0
072419	14:34:02	14:39:58	354438	5.0.10.0	5_exp_noRW	84	Rpleas_acq	CS_A	LWWL	JQQJ	DXXD	YFFY	ZHHZ	CPPC	genießen	vertrauen	gütig	küssen	träumen	sonnig	gemein	versagen	gierig	krank	töten	sterben	47pct	acq_USpleas_CSpleas2_noRW	acq23456_noRW	2	47	0	0	300	300	551	50	0	1	1	blank2r.bmp	0	1	+	0	1	blank2r.bmp	252	1	JQQJ	306	1	küssen	559	0	0	0	0	0	0	0	0	0	0	0	0	0	0	0	0	0	0	0	0	0	0	0	0	0	0	0	0	0	0	0	0	0	0	0	0	0	0	0
072419	14:34:02	14:40:00	356197	5.0.10.0	5_exp_noRW	84	Rpleas_acq	CS_A	LWWL	JQQJ	DXXD	YFFY	ZHHZ	CPPC	genießen	vertrauen	gütig	küssen	träumen	sonnig	gemein	versagen	gierig	krank	töten	sterben	53pct	acq_USpleas_CSpleas1_noRW	acq23456_noRW	2	48	0	0	300	300	576	50	0	1	1	blank2r.bmp	0	1	+	0	1	blank2r.bmp	252	1	LWWL	306	1	genießen	559	0	0	0	0	0	0	0	0	0	0	0	0	0	0	0	0	0	0	0	0	0	0	0	0	0	0	0	0	0	0	0	0	0	0	0	0	0	0	0
072419	14:34:02	14:40:01	357770	5.0.10.0	5_exp_noRW	84	Rpleas_acq	CS_A	LWWL	JQQJ	DXXD	YFFY	ZHHZ	CPPC	genießen	vertrauen	gütig	küssen	träumen	sonnig	gemein	versagen	gierig	krank	töten	sterben	53pct	acq_USunple_CSunple1_noRW	acq23456_noRW	2	49	0	0	300	300	398	46	0	1	1	blank2r.bmp	0	1	+	0	1	blank2r.bmp	252	1	DXXD	306	3	gierig	559	0	0	0	0	0	0	0	0	0	0	0	0	0	0	0	0	0	0	0	0	0	0	0	0	0	0	0	0	0	0	0	0	0	0	0	0	0	0	0
072419	14:34:02	14:40:03	359369	5.0.10.0	5_exp_noRW	84	Rpleas_acq	CS_A	LWWL	JQQJ	DXXD	YFFY	ZHHZ	CPPC	genießen	vertrauen	gütig	küssen	träumen	sonnig	gemein	versagen	gierig	krank	töten	sterben	47pct	acq_USunple_CSunple2_noRW	acq23456_noRW	2	50	0	0	300	300	424	46	0	1	1	blank2r.bmp	0	1	+	0	1	blank2r.bmp	252	1	YFFY	306	1	krank	559	0	0	0	0	0	0	0	0	0	0	0	0	0	0	0	0	0	0	0	0	0	0	0	0	0	0	0	0	0	0	0	0	0	0	0	0	0	0	0
072419	14:34:02	14:40:05	360995	5.0.10.0	5_exp_noRW	84	Rpleas_acq	CS_A	LWWL	JQQJ	DXXD	YFFY	ZHHZ	CPPC	genießen	vertrauen	gütig	küssen	träumen	sonnig	gemein	versagen	gierig	krank	töten	sterben	47pct	acq_USpleas_CSpleas2_noRW	acq23456_noRW	2	51	0	0	300	300	439	50	0	1	1	blank2r.bmp	0	1	+	0	1	blank2r.bmp	252	1	JQQJ	306	3	sonnig	559	0	0	0	0	0	0	0	0	0	0	0	0	0	0	0	0	0	0	0	0	0	0	0	0	0	0	0	0	0	0	0	0	0	0	0	0	0	0	0
072419	14:34:02	14:40:06	362501	5.0.10.0	5_exp_noRW	84	Rpleas_acq	CS_A	LWWL	JQQJ	DXXD	YFFY	ZHHZ	CPPC	genießen	vertrauen	gütig	küssen	träumen	sonnig	gemein	versagen	gierig	krank	töten	sterben	53pct	acq_USunple_CSunple1_noRW	acq23456_noRW	2	52	0	0	300	300	339	46	0	1	1	blank2r.bmp	0	1	+	0	1	blank2r.bmp	252	1	DXXD	306	1	gemein	559	0	0	0	0	0	0	0	0	0	0	0	0	0	0	0	0	0	0	0	0	0	0	0	0	0	0	0	0	0	0	0	0	0	0	0	0	0	0	0
072419	14:34:02	14:40:08	364340	5.0.10.0	5_exp_noRW	84	Rpleas_acq	CS_A	LWWL	JQQJ	DXXD	YFFY	ZHHZ	CPPC	genießen	vertrauen	gütig	küssen	träumen	sonnig	gemein	versagen	gierig	krank	töten	sterben	47pct	acq_USpleas_CSpleas1_noRW	acq23456_noRW	2	53	0	0	300	300	662	50	0	1	1	blank2r.bmp	0	1	+	0	1	blank2r.bmp	252	1	LWWL	306	3	gütig	559	0	0	0	0	0	0	0	0	0	0	0	0	0	0	0	0	0	0	0	0	0	0	0	0	0	0	0	0	0	0	0	0	0	0	0	0	0	0	0
072419	14:34:02	14:40:10	365900	5.0.10.0	5_exp_noRW	84	Rpleas_acq	CS_A	LWWL	JQQJ	DXXD	YFFY	ZHHZ	CPPC	genießen	vertrauen	gütig	küssen	träumen	sonnig	gemein	versagen	gierig	krank	töten	sterben	47pct	acq_USpleas_CSpleas1_noRW	acq23456_noRW	2	54	0	0	300	300	377	50	0	1	1	blank2r.bmp	0	1	+	0	1	blank2r.bmp	252	1	LWWL	306	3	gütig	559	0	0	0	0	0	0	0	0	0	0	0	0	0	0	0	0	0	0	0	0	0	0	0	0	0	0	0	0	0	0	0	0	0	0	0	0	0	0	0
072419	14:34:02	14:40:11	367432	5.0.10.0	5_exp_noRW	84	Rpleas_acq	CS_A	LWWL	JQQJ	DXXD	YFFY	ZHHZ	CPPC	genießen	vertrauen	gütig	küssen	träumen	sonnig	gemein	versagen	gierig	krank	töten	sterben	53pct	acq_USpleas_CSunple1_noRW	acq23456_noRW	2	55	0	0	300	300	356	50	0	1	1	blank2r.bmp	0	1	+	0	1	blank2r.bmp	252	1	DXXD	306	3	gütig	559	0	0	0	0	0	0	0	0	0	0	0	0	0	0	0	0	0	0	0	0	0	0	0	0	0	0	0	0	0	0	0	0	0	0	0	0	0	0	0
072419	14:34:02	14:40:13	369098	5.0.10.0	5_exp_noRW	84	Rpleas_acq	CS_A	LWWL	JQQJ	DXXD	YFFY	ZHHZ	CPPC	genießen	vertrauen	gütig	küssen	träumen	sonnig	gemein	versagen	gierig	krank	töten	sterben	47pct	acq_USunple_CSunple2_noRW	acq23456_noRW	2	56	0	0	300	300	487	46	0	1	1	blank2r.bmp	0	1	+	0	1	blank2r.bmp	252	1	YFFY	306	3	sterben	559	0	0	0	0	0	0	0	0	0	0	0	0	0	0	0	0	0	0	0	0	0	0	0	0	0	0	0	0	0	0	0	0	0	0	0	0	0	0	0
072419	14:34:02	14:40:14	370831	5.0.10.0	5_exp_noRW	84	Rpleas_acq	CS_A	LWWL	JQQJ	DXXD	YFFY	ZHHZ	CPPC	genießen	vertrauen	gütig	küssen	träumen	sonnig	gemein	versagen	gierig	krank	töten	sterben	53pct	acq_USunple_CSunple2_noRW	acq23456_noRW	2	57	0	0	300	300	549	46	0	1	1	blank2r.bmp	0	1	+	0	1	blank2r.bmp	252	1	YFFY	306	2	töten	559	0	0	0	0	0	0	0	0	0	0	0	0	0	0	0	0	0	0	0	0	0	0	0	0	0	0	0	0	0	0	0	0	0	0	0	0	0	0	0
072419	14:34:02	14:40:16	372390	5.0.10.0	5_exp_noRW	84	Rpleas_acq	CS_A	LWWL	JQQJ	DXXD	YFFY	ZHHZ	CPPC	genießen	vertrauen	gütig	küssen	träumen	sonnig	gemein	versagen	gierig	krank	töten	sterben	47pct	acq_USunple_CSunple2_noRW	acq23456_noRW	2	58	0	0	300	300	375	46	0	1	1	blank2r.bmp	0	1	+	0	1	blank2r.bmp	252	1	YFFY	306	2	töten	559	0	0	0	0	0	0	0	0	0	0	0	0	0	0	0	0	0	0	0	0	0	0	0	0	0	0	0	0	0	0	0	0	0	0	0	0	0	0	0
072419	14:34:02	14:40:18	374016	5.0.10.0	5_exp_noRW	84	Rpleas_acq	CS_A	LWWL	JQQJ	DXXD	YFFY	ZHHZ	CPPC	genießen	vertrauen	gütig	küssen	träumen	sonnig	gemein	versagen	gierig	krank	töten	sterben	47pct	acq_USpleas_CSpleas2_noRW	acq23456_noRW	2	59	0	0	300	300	453	50	0	1	1	blank2r.bmp	0	1	+	0	1	blank2r.bmp	252	1	JQQJ	306	3	sonnig	559	0	0	0	0	0	0	0	0	0	0	0	0	0	0	0	0	0	0	0	0	0	0	0	0	0	0	0	0	0	0	0	0	0	0	0	0	0	0	0
072419	14:34:02	14:40:19	375669	5.0.10.0	5_exp_noRW	84	Rpleas_acq	CS_A	LWWL	JQQJ	DXXD	YFFY	ZHHZ	CPPC	genießen	vertrauen	gütig	küssen	träumen	sonnig	gemein	versagen	gierig	krank	töten	sterben	53pct	acq_USunple_CSunple1_noRW	acq23456_noRW	2	60	0	0	300	300	476	46	0	1	1	blank2r.bmp	0	1	+	0	1	blank2r.bmp	252	1	DXXD	306	1	gemein	559	0	0	0	0	0	0	0	0	0	0	0	0	0	0	0	0	0	0	0	0	0	0	0	0	0	0	0	0	0	0	0	0	0	0	0	0	0	0	0
072419	14:34:02	14:40:21	377468	5.0.10.0	5_exp_noRW	84	Rpleas_acq	CS_A	LWWL	JQQJ	DXXD	YFFY	ZHHZ	CPPC	genießen	vertrauen	gütig	küssen	träumen	sonnig	gemein	versagen	gierig	krank	töten	sterben	53pct	acq_USpleas_CSpleas1_noRW	acq23456_noRW	2	61	0	0	300	300	618	50	0	1	1	blank2r.bmp	0	1	+	0	1	blank2r.bmp	252	1	LWWL	306	2	vertrauen	559	0	0	0	0	0	0	0	0	0	0	0	0	0	0	0	0	0	0	0	0	0	0	0	0	0	0	0	0	0	0	0	0	0	0	0	0	0	0	0
072419	14:34:02	14:40:23	379187	5.0.10.0	5_exp_noRW	84	Rpleas_acq	CS_A	LWWL	JQQJ	DXXD	YFFY	ZHHZ	CPPC	genießen	vertrauen	gütig	küssen	träumen	sonnig	gemein	versagen	gierig	krank	töten	sterben	47pct	acq_USpleas_CSpleas2_noRW	acq23456_noRW	2	62	0	0	300	300	547	50	0	1	1	blank2r.bmp	0	1	+	0	1	blank2r.bmp	252	1	JQQJ	306	2	träumen	559	0	0	0	0	0	0	0	0	0	0	0	0	0	0	0	0	0	0	0	0	0	0	0	0	0	0	0	0	0	0	0	0	0	0	0	0	0	0	0
072419	14:34:02	14:40:24	380733	5.0.10.0	5_exp_noRW	84	Rpleas_acq	CS_A	LWWL	JQQJ	DXXD	YFFY	ZHHZ	CPPC	genießen	vertrauen	gütig	küssen	träumen	sonnig	gemein	versagen	gierig	krank	töten	sterben	47pct	acq_USunple_CSunple2_noRW	acq23456_noRW	2	63	0	0	300	300	375	46	0	1	1	blank2r.bmp	0	1	+	0	1	blank2r.bmp	252	1	YFFY	306	3	sterben	559	0	0	0	0	0	0	0	0	0	0	0	0	0	0	0	0	0	0	0	0	0	0	0	0	0	0	0	0	0	0	0	0	0	0	0	0	0	0	0
072419	14:34:02	14:40:26	382239	5.0.10.0	5_exp_noRW	84	Rpleas_acq	CS_A	LWWL	JQQJ	DXXD	YFFY	ZHHZ	CPPC	genießen	vertrauen	gütig	küssen	träumen	sonnig	gemein	versagen	gierig	krank	töten	sterben	53pct	acq_USunple_CSunple2_noRW	acq23456_noRW	2	64	0	0	300	300	337	46	0	1	1	blank2r.bmp	0	1	+	0	1	blank2r.bmp	252	1	YFFY	306	1	krank	559	0	0	0	0	0	0	0	0	0	0	0	0	0	0	0	0	0	0	0	0	0	0	0	0	0	0	0	0	0	0	0	0	0	0	0	0	0	0	0
072419	14:34:02	14:40:28	384065	5.0.10.0	5_exp_noRW	84	Rpleas_acq	CS_A	LWWL	JQQJ	DXXD	YFFY	ZHHZ	CPPC	genießen	vertrauen	gütig	küssen	träumen	sonnig	gemein	versagen	gierig	krank	töten	sterben	47pct	acq_USunple_CSunple1_noRW	acq23456_noRW	2	65	0	0	300	300	662	46	0	1	1	blank2r.bmp	0	1	+	0	1	blank2r.bmp	252	1	DXXD	306	3	gierig	559	0	0	0	0	0	0	0	0	0	0	0	0	0	0	0	0	0	0	0	0	0	0	0	0	0	0	0	0	0	0	0	0	0	0	0	0	0	0	0
072419	14:34:02	14:40:29	385731	5.0.10.0	5_exp_noRW	84	Rpleas_acq	CS_A	LWWL	JQQJ	DXXD	YFFY	ZHHZ	CPPC	genießen	vertrauen	gütig	küssen	träumen	sonnig	gemein	versagen	gierig	krank	töten	sterben	53pct	acq_USpleas_CSunple1_noRW	acq23456_noRW	2	66	0	0	300	300	493	50	0	1	1	blank2r.bmp	0	1	+	0	1	blank2r.bmp	252	1	DXXD	306	2	vertrauen	559	0	0	0	0	0	0	0	0	0	0	0	0	0	0	0	0	0	0	0	0	0	0	0	0	0	0	0	0	0	0	0	0	0	0	0	0	0	0	0
072419	14:34:02	14:40:31	387397	5.0.10.0	5_exp_noRW	84	Rpleas_acq	CS_A	LWWL	JQQJ	DXXD	YFFY	ZHHZ	CPPC	genießen	vertrauen	gütig	küssen	träumen	sonnig	gemein	versagen	gierig	krank	töten	sterben	47pct	acq_USpleas_CSpleas2_noRW	acq23456_noRW	2	67	0	0	300	300	485	50	0	1	1	blank2r.bmp	0	1	+	0	1	blank2r.bmp	252	1	JQQJ	306	1	küssen	559	0	0	0	0	0	0	0	0	0	0	0	0	0	0	0	0	0	0	0	0	0	0	0	0	0	0	0	0	0	0	0	0	0	0	0	0	0	0	0
072419	14:34:02	14:40:33	389023	5.0.10.0	5_exp_noRW	84	Rpleas_acq	CS_A	LWWL	JQQJ	DXXD	YFFY	ZHHZ	CPPC	genießen	vertrauen	gütig	küssen	träumen	sonnig	gemein	versagen	gierig	krank	töten	sterben	53pct	acq_USpleas_CSunple2_noRW	acq23456_noRW	2	68	0	0	300	300	447	50	0	1	1	blank2r.bmp	0	1	+	0	1	blank2r.bmp	252	1	YFFY	306	3	sonnig	559	0	0	0	0	0	0	0	0	0	0	0	0	0	0	0	0	0	0	0	0	0	0	0	0	0	0	0	0	0	0	0	0	0	0	0	0	0	0	0
072419	14:34:02	14:40:34	390609	5.0.10.0	5_exp_noRW	84	Rpleas_acq	CS_A	LWWL	JQQJ	DXXD	YFFY	ZHHZ	CPPC	genießen	vertrauen	gütig	küssen	träumen	sonnig	gemein	versagen	gierig	krank	töten	sterben	47pct	acq_USpleas_CSpleas2_noRW	acq23456_noRW	2	69	0	0	300	300	409	50	0	1	1	blank2r.bmp	0	1	+	0	1	blank2r.bmp	252	1	JQQJ	306	3	sonnig	559	0	0	0	0	0	0	0	0	0	0	0	0	0	0	0	0	0	0	0	0	0	0	0	0	0	0	0	0	0	0	0	0	0	0	0	0	0	0	0
072419	14:34:02	14:40:36	392102	5.0.10.0	5_exp_noRW	84	Rpleas_acq	CS_A	LWWL	JQQJ	DXXD	YFFY	ZHHZ	CPPC	genießen	vertrauen	gütig	küssen	träumen	sonnig	gemein	versagen	gierig	krank	töten	sterben	53pct	acq_USunple_CSpleas2_noRW	acq23456_noRW	2	70	0	0	300	300	315	46	0	1	1	blank2r.bmp	0	1	+	0	1	blank2r.bmp	252	1	JQQJ	306	1	krank	559	0	0	0	0	0	0	0	0	0	0	0	0	0	0	0	0	0	0	0	0	0	0	0	0	0	0	0	0	0	0	0	0	0	0	0	0	0	0	0
072419	14:34:02	14:40:37	393768	5.0.10.0	5_exp_noRW	84	Rpleas_acq	CS_A	LWWL	JQQJ	DXXD	YFFY	ZHHZ	CPPC	genießen	vertrauen	gütig	küssen	träumen	sonnig	gemein	versagen	gierig	krank	töten	sterben	47pct	acq_USunple_CSunple1_noRW	acq23456_noRW	2	71	0	0	300	300	501	46	0	1	1	blank2r.bmp	0	1	+	0	1	blank2r.bmp	252	1	DXXD	306	2	versagen	559	0	0	0	0	0	0	0	0	0	0	0	0	0	0	0	0	0	0	0	0	0	0	0	0	0	0	0	0	0	0	0	0	0	0	0	0	0	0	0
072419	14:34:02	14:40:39	395407	5.0.10.0	5_exp_noRW	84	Rpleas_acq	CS_A	LWWL	JQQJ	DXXD	YFFY	ZHHZ	CPPC	genießen	vertrauen	gütig	küssen	träumen	sonnig	gemein	versagen	gierig	krank	töten	sterben	47pct	acq_USpleas_CSpleas1_noRW	acq23456_noRW	2	72	0	0	300	300	474	50	0	1	1	blank2r.bmp	0	1	+	0	1	blank2r.bmp	252	1	LWWL	306	1	genießen	559	0	0	0	0	0	0	0	0	0	0	0	0	0	0	0	0	0	0	0	0	0	0	0	0	0	0	0	0	0	0	0	0	0	0	0	0	0	0	0
072419	14:34:02	14:40:41	397073	5.0.10.0	5_exp_noRW	84	Rpleas_acq	CS_A	LWWL	JQQJ	DXXD	YFFY	ZHHZ	CPPC	genießen	vertrauen	gütig	küssen	träumen	sonnig	gemein	versagen	gierig	krank	töten	sterben	47pct	acq_USpleas_CSpleas1_noRW	acq23456_noRW	2	73	0	0	300	300	495	50	0	1	1	blank2r.bmp	0	1	+	0	1	blank2r.bmp	252	1	LWWL	306	3	gütig	559	0	0	0	0	0	0	0	0	0	0	0	0	0	0	0	0	0	0	0	0	0	0	0	0	0	0	0	0	0	0	0	0	0	0	0	0	0	0	0
072419	14:34:02	14:40:42	398659	5.0.10.0	5_exp_noRW	84	Rpleas_acq	CS_A	LWWL	JQQJ	DXXD	YFFY	ZHHZ	CPPC	genießen	vertrauen	gütig	küssen	träumen	sonnig	gemein	versagen	gierig	krank	töten	sterben	47pct	acq_USunple_CSunple2_noRW	acq23456_noRW	2	74	0	0	300	300	410	46	0	1	1	blank2r.bmp	0	1	+	0	1	blank2r.bmp	252	1	YFFY	306	1	krank	559	0	0	0	0	0	0	0	0	0	0	0	0	0	0	0	0	0	0	0	0	0	0	0	0	0	0	0	0	0	0	0	0	0	0	0	0	0	0	0
072419	14:34:02	14:40:44	400259	5.0.10.0	5_exp_noRW	84	Rpleas_acq	CS_A	LWWL	JQQJ	DXXD	YFFY	ZHHZ	CPPC	genießen	vertrauen	gütig	küssen	träumen	sonnig	gemein	versagen	gierig	krank	töten	sterben	53pct	acq_USunple_CSunple1_noRW	acq23456_noRW	2	75	0	0	300	300	415	46	0	1	1	blank2r.bmp	0	1	+	0	1	blank2r.bmp	252	1	DXXD	306	1	gemein	559	0	0	0	0	0	0	0	0	0	0	0	0	0	0	0	0	0	0	0	0	0	0	0	0	0	0	0	0	0	0	0	0	0	0	0	0	0	0	0
072419	14:34:02	14:40:46	401978	5.0.10.0	5_exp_noRW	84	Rpleas_acq	CS_A	LWWL	JQQJ	DXXD	YFFY	ZHHZ	CPPC	genießen	vertrauen	gütig	küssen	träumen	sonnig	gemein	versagen	gierig	krank	töten	sterben	53pct	acq_USpleas_CSpleas2_noRW	acq23456_noRW	2	76	0	0	300	300	551	50	0	1	1	blank2r.bmp	0	1	+	0	1	blank2r.bmp	252	1	JQQJ	306	2	träumen	559	0	0	0	0	0	0	0	0	0	0	0	0	0	0	0	0	0	0	0	0	0	0	0	0	0	0	0	0	0	0	0	0	0	0	0	0	0	0	0
072419	14:34:02	14:40:47	403564	5.0.10.0	5_exp_noRW	84	Rpleas_acq	CS_A	LWWL	JQQJ	DXXD	YFFY	ZHHZ	CPPC	genießen	vertrauen	gütig	küssen	träumen	sonnig	gemein	versagen	gierig	krank	töten	sterben	47pct	acq_USunple_CSunple2_noRW	acq23456_noRW	2	77	0	0	300	300	421	46	0	1	1	blank2r.bmp	0	1	+	0	1	blank2r.bmp	252	1	YFFY	306	3	sterben	559	0	0	0	0	0	0	0	0	0	0	0	0	0	0	0	0	0	0	0	0	0	0	0	0	0	0	0	0	0	0	0	0	0	0	0	0	0	0	0
072419	14:34:02	14:40:49	405296	5.0.10.0	5_exp_noRW	84	Rpleas_acq	CS_A	LWWL	JQQJ	DXXD	YFFY	ZHHZ	CPPC	genießen	vertrauen	gütig	küssen	träumen	sonnig	gemein	versagen	gierig	krank	töten	sterben	47pct	acq_USpleas_CSpleas1_noRW	acq23456_noRW	2	78	0	0	300	300	556	50	0	1	1	blank2r.bmp	0	1	+	0	1	blank2r.bmp	252	1	LWWL	306	2	vertrauen	559	0	0	0	0	0	0	0	0	0	0	0	0	0	0	0	0	0	0	0	0	0	0	0	0	0	0	0	0	0	0	0	0	0	0	0	0	0	0	0
072419	14:34:02	14:40:51	406936	5.0.10.0	5_exp_noRW	84	Rpleas_acq	CS_A	LWWL	JQQJ	DXXD	YFFY	ZHHZ	CPPC	genießen	vertrauen	gütig	küssen	träumen	sonnig	gemein	versagen	gierig	krank	töten	sterben	47pct	acq_USunple_CSunple1_noRW	acq23456_noRW	2	79	0	0	300	300	465	46	0	1	1	blank2r.bmp	0	1	+	0	1	blank2r.bmp	252	1	DXXD	306	3	gierig	559	0	0	0	0	0	0	0	0	0	0	0	0	0	0	0	0	0	0	0	0	0	0	0	0	0	0	0	0	0	0	0	0	0	0	0	0	0	0	0
072419	14:34:02	14:40:52	408482	5.0.10.0	5_exp_noRW	84	Rpleas_acq	CS_A	LWWL	JQQJ	DXXD	YFFY	ZHHZ	CPPC	genießen	vertrauen	gütig	küssen	träumen	sonnig	gemein	versagen	gierig	krank	töten	sterben	53pct	acq_USunple_CSpleas1_noRW	acq23456_noRW	2	80	0	0	300	300	381	46	0	1	1	blank2r.bmp	0	1	+	0	1	blank2r.bmp	252	1	LWWL	306	3	gierig	559	0	0	0	0	0	0	0	0	0	0	0	0	0	0	0	0	0	0	0	0	0	0	0	0	0	0	0	0	0	0	0	0	0	0	0	0	0	0	0
072419	14:34:02	14:41:32	448318	5.0.10.0	5_exp_noRW	84	Rpleas_acq	CS_A	LWWL	JQQJ	DXXD	YFFY	ZHHZ	CPPC	genießen	vertrauen	gütig	küssen	träumen	sonnig	gemein	versagen	gierig	krank	töten	sterben	53pct	acq_USpleas_CSunple1_noRW	acq23456_noRW	3	1	0	0	300	300	606	50	0	1	1	blank2r.bmp	0	1	+	0	1	blank2r.bmp	252	1	DXXD	306	1	genießen	559	0	0	0	0	0	0	0	0	0	0	0	0	0	0	0	0	0	0	0	0	0	0	0	0	0	0	0	0	0	0	0	0	0	0	0	0	0	0	0
072419	14:34:02	14:41:33	449824	5.0.10.0	5_exp_noRW	84	Rpleas_acq	CS_A	LWWL	JQQJ	DXXD	YFFY	ZHHZ	CPPC	genießen	vertrauen	gütig	küssen	träumen	sonnig	gemein	versagen	gierig	krank	töten	sterben	53pct	acq_USunple_CSpleas2_noRW	acq23456_noRW	3	2	0	0	300	300	322	46	0	1	1	blank2r.bmp	0	1	+	0	1	blank2r.bmp	252	1	JQQJ	306	2	töten	559	0	0	0	0	0	0	0	0	0	0	0	0	0	0	0	0	0	0	0	0	0	0	0	0	0	0	0	0	0	0	0	0	0	0	0	0	0	0	0
072419	14:34:02	14:41:35	451291	5.0.10.0	5_exp_noRW	84	Rpleas_acq	CS_A	LWWL	JQQJ	DXXD	YFFY	ZHHZ	CPPC	genießen	vertrauen	gütig	küssen	träumen	sonnig	gemein	versagen	gierig	krank	töten	sterben	47pct	acq_USunple_CSunple2_noRW	acq23456_noRW	3	3	0	0	300	300	300	46	0	1	1	blank2r.bmp	0	1	+	0	1	blank2r.bmp	252	1	YFFY	306	2	töten	559	0	0	0	0	0	0	0	0	0	0	0	0	0	0	0	0	0	0	0	0	0	0	0	0	0	0	0	0	0	0	0	0	0	0	0	0	0	0	0
072419	14:34:02	14:41:36	452837	5.0.10.0	5_exp_noRW	84	Rpleas_acq	CS_A	LWWL	JQQJ	DXXD	YFFY	ZHHZ	CPPC	genießen	vertrauen	gütig	küssen	träumen	sonnig	gemein	versagen	gierig	krank	töten	sterben	53pct	acq_USunple_CSunple2_noRW	acq23456_noRW	3	4	0	0	300	300	370	46	0	1	1	blank2r.bmp	0	1	+	0	1	blank2r.bmp	252	1	YFFY	306	1	krank	559	0	0	0	0	0	0	0	0	0	0	0	0	0	0	0	0	0	0	0	0	0	0	0	0	0	0	0	0	0	0	0	0	0	0	0	0	0	0	0
072419	14:34:02	14:41:38	454383	5.0.10.0	5_exp_noRW	84	Rpleas_acq	CS_A	LWWL	JQQJ	DXXD	YFFY	ZHHZ	CPPC	genießen	vertrauen	gütig	küssen	träumen	sonnig	gemein	versagen	gierig	krank	töten	sterben	47pct	acq_USpleas_CSpleas2_noRW	acq23456_noRW	3	5	0	0	300	300	368	50	0	1	1	blank2r.bmp	0	1	+	0	1	blank2r.bmp	252	1	JQQJ	306	1	küssen	559	0	0	0	0	0	0	0	0	0	0	0	0	0	0	0	0	0	0	0	0	0	0	0	0	0	0	0	0	0	0	0	0	0	0	0	0	0	0	0
072419	14:34:02	14:41:40	455969	5.0.10.0	5_exp_noRW	84	Rpleas_acq	CS_A	LWWL	JQQJ	DXXD	YFFY	ZHHZ	CPPC	genießen	vertrauen	gütig	küssen	träumen	sonnig	gemein	versagen	gierig	krank	töten	sterben	53pct	acq_USunple_CSunple1_noRW	acq23456_noRW	3	6	0	0	300	300	400	46	0	1	1	blank2r.bmp	0	1	+	0	1	blank2r.bmp	252	1	DXXD	306	2	versagen	559	0	0	0	0	0	0	0	0	0	0	0	0	0	0	0	0	0	0	0	0	0	0	0	0	0	0	0	0	0	0	0	0	0	0	0	0	0	0	0
072419	14:34:02	14:41:41	457581	5.0.10.0	5_exp_noRW	84	Rpleas_acq	CS_A	LWWL	JQQJ	DXXD	YFFY	ZHHZ	CPPC	genießen	vertrauen	gütig	küssen	träumen	sonnig	gemein	versagen	gierig	krank	töten	sterben	53pct	acq_USpleas_CSunple2_noRW	acq23456_noRW	3	7	0	0	300	300	445	50	0	1	1	blank2r.bmp	0	1	+	0	1	blank2r.bmp	252	1	YFFY	306	1	küssen	559	0	0	0	0	0	0	0	0	0	0	0	0	0	0	0	0	0	0	0	0	0	0	0	0	0	0	0	0	0	0	0	0	0	0	0	0	0	0	0
072419	14:34:02	14:41:43	459141	5.0.10.0	5_exp_noRW	84	Rpleas_acq	CS_A	LWWL	JQQJ	DXXD	YFFY	ZHHZ	CPPC	genießen	vertrauen	gütig	küssen	träumen	sonnig	gemein	versagen	gierig	krank	töten	sterben	47pct	acq_USunple_CSunple2_noRW	acq23456_noRW	3	8	0	0	300	300	384	46	0	1	1	blank2r.bmp	0	1	+	0	1	blank2r.bmp	252	1	YFFY	306	2	töten	559	0	0	0	0	0	0	0	0	0	0	0	0	0	0	0	0	0	0	0	0	0	0	0	0	0	0	0	0	0	0	0	0	0	0	0	0	0	0	0
072419	14:34:02	14:41:44	460647	5.0.10.0	5_exp_noRW	84	Rpleas_acq	CS_A	LWWL	JQQJ	DXXD	YFFY	ZHHZ	CPPC	genießen	vertrauen	gütig	küssen	träumen	sonnig	gemein	versagen	gierig	krank	töten	sterben	47pct	acq_USunple_CSunple1_noRW	acq23456_noRW	3	9	0	0	300	300	323	46	0	1	1	blank2r.bmp	0	1	+	0	1	blank2r.bmp	252	1	DXXD	306	3	gierig	559	0	0	0	0	0	0	0	0	0	0	0	0	0	0	0	0	0	0	0	0	0	0	0	0	0	0	0	0	0	0	0	0	0	0	0	0	0	0	0
072419	14:34:02	14:41:46	462379	5.0.10.0	5_exp_noRW	84	Rpleas_acq	CS_A	LWWL	JQQJ	DXXD	YFFY	ZHHZ	CPPC	genießen	vertrauen	gütig	küssen	träumen	sonnig	gemein	versagen	gierig	krank	töten	sterben	53pct	acq_USpleas_CSpleas1_noRW	acq23456_noRW	3	10	0	0	300	300	571	50	0	1	1	blank2r.bmp	0	1	+	0	1	blank2r.bmp	252	1	LWWL	306	1	genießen	559	0	0	0	0	0	0	0	0	0	0	0	0	0	0	0	0	0	0	0	0	0	0	0	0	0	0	0	0	0	0	0	0	0	0	0	0	0	0	0
072419	14:34:02	14:41:48	464005	5.0.10.0	5_exp_noRW	84	Rpleas_acq	CS_A	LWWL	JQQJ	DXXD	YFFY	ZHHZ	CPPC	genießen	vertrauen	gütig	küssen	träumen	sonnig	gemein	versagen	gierig	krank	töten	sterben	47pct	acq_USpleas_CSpleas2_noRW	acq23456_noRW	3	11	0	0	300	300	450	50	0	1	1	blank2r.bmp	0	1	+	0	1	blank2r.bmp	252	1	JQQJ	306	1	küssen	559	0	0	0	0	0	0	0	0	0	0	0	0	0	0	0	0	0	0	0	0	0	0	0	0	0	0	0	0	0	0	0	0	0	0	0	0	0	0	0
072419	14:34:02	14:41:49	465685	5.0.10.0	5_exp_noRW	84	Rpleas_acq	CS_A	LWWL	JQQJ	DXXD	YFFY	ZHHZ	CPPC	genießen	vertrauen	gütig	küssen	träumen	sonnig	gemein	versagen	gierig	krank	töten	sterben	53pct	acq_USunple_CSunple1_noRW	acq23456_noRW	3	12	0	0	300	300	504	46	0	1	1	blank2r.bmp	0	1	+	0	1	blank2r.bmp	252	1	DXXD	306	2	versagen	559	0	0	0	0	0	0	0	0	0	0	0	0	0	0	0	0	0	0	0	0	0	0	0	0	0	0	0	0	0	0	0	0	0	0	0	0	0	0	0
072419	14:34:02	14:41:51	467297	5.0.10.0	5_exp_noRW	84	Rpleas_acq	CS_A	LWWL	JQQJ	DXXD	YFFY	ZHHZ	CPPC	genießen	vertrauen	gütig	küssen	träumen	sonnig	gemein	versagen	gierig	krank	töten	sterben	53pct	acq_USpleas_CSpleas2_noRW	acq23456_noRW	3	13	0	0	300	300	415	50	0	1	1	blank2r.bmp	0	1	+	0	1	blank2r.bmp	252	1	JQQJ	306	2	träumen	559	0	0	0	0	0	0	0	0	0	0	0	0	0	0	0	0	0	0	0	0	0	0	0	0	0	0	0	0	0	0	0	0	0	0	0	0	0	0	0
072419	14:34:02	14:41:53	469136	5.0.10.0	5_exp_noRW	84	Rpleas_acq	CS_A	LWWL	JQQJ	DXXD	YFFY	ZHHZ	CPPC	genießen	vertrauen	gütig	küssen	träumen	sonnig	gemein	versagen	gierig	krank	töten	sterben	47pct	acq_USunple_CSunple1_noRW	acq23456_noRW	3	14	0	0	300	300	665	46	0	1	1	blank2r.bmp	0	1	+	0	1	blank2r.bmp	252	1	DXXD	306	1	gemein	559	0	0	0	0	0	0	0	0	0	0	0	0	0	0	0	0	0	0	0	0	0	0	0	0	0	0	0	0	0	0	0	0	0	0	0	0	0	0	0
072419	14:34:02	14:41:55	470842	5.0.10.0	5_exp_noRW	84	Rpleas_acq	CS_A	LWWL	JQQJ	DXXD	YFFY	ZHHZ	CPPC	genießen	vertrauen	gütig	küssen	träumen	sonnig	gemein	versagen	gierig	krank	töten	sterben	53pct	acq_USpleas_CSpleas2_noRW	acq23456_noRW	3	15	0	0	300	300	535	50	0	1	1	blank2r.bmp	0	1	+	0	1	blank2r.bmp	252	1	JQQJ	306	3	sonnig	559	0	0	0	0	0	0	0	0	0	0	0	0	0	0	0	0	0	0	0	0	0	0	0	0	0	0	0	0	0	0	0	0	0	0	0	0	0	0	0
072419	14:34:02	14:41:56	472655	5.0.10.0	5_exp_noRW	84	Rpleas_acq	CS_A	LWWL	JQQJ	DXXD	YFFY	ZHHZ	CPPC	genießen	vertrauen	gütig	küssen	träumen	sonnig	gemein	versagen	gierig	krank	töten	sterben	47pct	acq_USpleas_CSpleas1_noRW	acq23456_noRW	3	16	0	0	300	300	415	46	0	0	1	blank2r.bmp	0	1	+	0	1	blank2r.bmp	252	1	LWWL	306	3	gütig	559	1	FEHLER	1012	0	0	0	0	0	0	0	0	0	0	0	0	0	0	0	0	0	0	0	0	0	0	0	0	0	0	0	0	0	0	0	0	0	0	0	0
072419	14:34:02	14:41:58	474388	5.0.10.0	5_exp_noRW	84	Rpleas_acq	CS_A	LWWL	JQQJ	DXXD	YFFY	ZHHZ	CPPC	genießen	vertrauen	gütig	küssen	träumen	sonnig	gemein	versagen	gierig	krank	töten	sterben	53pct	acq_USpleas_CSpleas1_noRW	acq23456_noRW	3	17	0	0	300	300	782	50	0	1	1	blank2r.bmp	0	1	+	0	1	blank2r.bmp	252	1	LWWL	306	1	genießen	559	0	0	0	0	0	0	0	0	0	0	0	0	0	0	0	0	0	0	0	0	0	0	0	0	0	0	0	0	0	0	0	0	0	0	0	0	0	0	0
072419	14:34:02	14:42:00	476200	5.0.10.0	5_exp_noRW	84	Rpleas_acq	CS_A	LWWL	JQQJ	DXXD	YFFY	ZHHZ	CPPC	genießen	vertrauen	gütig	küssen	träumen	sonnig	gemein	versagen	gierig	krank	töten	sterben	47pct	acq_USunple_CSpleas1_noRW	acq23456_noRW	3	18	0	0	300	300	627	46	0	1	1	blank2r.bmp	0	1	+	0	1	blank2r.bmp	252	1	LWWL	306	1	gemein	559	0	0	0	0	0	0	0	0	0	0	0	0	0	0	0	0	0	0	0	0	0	0	0	0	0	0	0	0	0	0	0	0	0	0	0	0	0	0	0
072419	14:34:02	14:42:02	478106	5.0.10.0	5_exp_noRW	84	Rpleas_acq	CS_A	LWWL	JQQJ	DXXD	YFFY	ZHHZ	CPPC	genießen	vertrauen	gütig	küssen	träumen	sonnig	gemein	versagen	gierig	krank	töten	sterben	53pct	acq_USunple_CSunple2_noRW	acq23456_noRW	3	19	0	0	300	300	733	46	0	1	1	blank2r.bmp	0	1	+	0	1	blank2r.bmp	252	1	YFFY	306	3	sterben	559	0	0	0	0	0	0	0	0	0	0	0	0	0	0	0	0	0	0	0	0	0	0	0	0	0	0	0	0	0	0	0	0	0	0	0	0	0	0	0
072419	14:34:02	14:42:04	479865	5.0.10.0	5_exp_noRW	84	Rpleas_acq	CS_A	LWWL	JQQJ	DXXD	YFFY	ZHHZ	CPPC	genießen	vertrauen	gütig	küssen	träumen	sonnig	gemein	versagen	gierig	krank	töten	sterben	47pct	acq_USpleas_CSpleas1_noRW	acq23456_noRW	3	20	0	0	300	300	586	50	0	1	1	blank2r.bmp	0	1	+	0	1	blank2r.bmp	252	1	LWWL	306	2	vertrauen	559	0	0	0	0	0	0	0	0	0	0	0	0	0	0	0	0	0	0	0	0	0	0	0	0	0	0	0	0	0	0	0	0	0	0	0	0	0	0	0
072419	14:34:02	14:42:05	481478	5.0.10.0	5_exp_noRW	84	Rpleas_acq	CS_A	LWWL	JQQJ	DXXD	YFFY	ZHHZ	CPPC	genießen	vertrauen	gütig	küssen	träumen	sonnig	gemein	versagen	gierig	krank	töten	sterben	47pct	acq_USunple_CSunple2_noRW	acq23456_noRW	3	21	0	0	300	300	439	46	0	1	1	blank2r.bmp	0	1	+	0	1	blank2r.bmp	252	1	YFFY	306	2	töten	559	0	0	0	0	0	0	0	0	0	0	0	0	0	0	0	0	0	0	0	0	0	0	0	0	0	0	0	0	0	0	0	0	0	0	0	0	0	0	0
072419	14:34:02	14:42:07	483237	5.0.10.0	5_exp_noRW	84	Rpleas_acq	CS_A	LWWL	JQQJ	DXXD	YFFY	ZHHZ	CPPC	genießen	vertrauen	gütig	küssen	träumen	sonnig	gemein	versagen	gierig	krank	töten	sterben	47pct	acq_USpleas_CSpleas1_noRW	acq23456_noRW	3	22	0	0	300	300	591	50	0	1	1	blank2r.bmp	0	1	+	0	1	blank2r.bmp	252	1	LWWL	306	3	gütig	559	0	0	0	0	0	0	0	0	0	0	0	0	0	0	0	0	0	0	0	0	0	0	0	0	0	0	0	0	0	0	0	0	0	0	0	0	0	0	0
072419	14:34:02	14:42:09	484983	5.0.10.0	5_exp_noRW	84	Rpleas_acq	CS_A	LWWL	JQQJ	DXXD	YFFY	ZHHZ	CPPC	genießen	vertrauen	gütig	küssen	träumen	sonnig	gemein	versagen	gierig	krank	töten	sterben	47pct	acq_USunple_CSunple1_noRW	acq23456_noRW	3	23	0	0	300	300	572	46	0	1	1	blank2r.bmp	0	1	+	0	1	blank2r.bmp	252	1	DXXD	306	3	gierig	559	0	0	0	0	0	0	0	0	0	0	0	0	0	0	0	0	0	0	0	0	0	0	0	0	0	0	0	0	0	0	0	0	0	0	0	0	0	0	0
072419	14:34:02	14:42:10	486796	5.0.10.0	5_exp_noRW	84	Rpleas_acq	CS_A	LWWL	JQQJ	DXXD	YFFY	ZHHZ	CPPC	genießen	vertrauen	gütig	küssen	träumen	sonnig	gemein	versagen	gierig	krank	töten	sterben	53pct	acq_USunple_CSunple2_noRW	acq23456_noRW	3	24	0	0	300	300	641	46	0	1	1	blank2r.bmp	0	1	+	0	1	blank2r.bmp	252	1	YFFY	306	1	krank	559	0	0	0	0	0	0	0	0	0	0	0	0	0	0	0	0	0	0	0	0	0	0	0	0	0	0	0	0	0	0	0	0	0	0	0	0	0	0	0
072419	14:34:02	14:42:12	488528	5.0.10.0	5_exp_noRW	84	Rpleas_acq	CS_A	LWWL	JQQJ	DXXD	YFFY	ZHHZ	CPPC	genießen	vertrauen	gütig	küssen	träumen	sonnig	gemein	versagen	gierig	krank	töten	sterben	53pct	acq_USunple_CSunple1_noRW	acq23456_noRW	3	25	0	0	300	300	559	46	0	1	1	blank2r.bmp	0	1	+	0	1	blank2r.bmp	252	1	DXXD	306	2	versagen	559	0	0	0	0	0	0	0	0	0	0	0	0	0	0	0	0	0	0	0	0	0	0	0	0	0	0	0	0	0	0	0	0	0	0	0	0	0	0	0
072419	14:34:02	14:42:14	490194	5.0.10.0	5_exp_noRW	84	Rpleas_acq	CS_A	LWWL	JQQJ	DXXD	YFFY	ZHHZ	CPPC	genießen	vertrauen	gütig	küssen	träumen	sonnig	gemein	versagen	gierig	krank	töten	sterben	53pct	acq_USpleas_CSpleas2_noRW	acq23456_noRW	3	26	0	0	300	300	499	50	0	1	1	blank2r.bmp	0	1	+	0	1	blank2r.bmp	252	1	JQQJ	306	1	küssen	559	0	0	0	0	0	0	0	0	0	0	0	0	0	0	0	0	0	0	0	0	0	0	0	0	0	0	0	0	0	0	0	0	0	0	0	0	0	0	0
072419	14:34:02	14:42:16	492034	5.0.10.0	5_exp_noRW	84	Rpleas_acq	CS_A	LWWL	JQQJ	DXXD	YFFY	ZHHZ	CPPC	genießen	vertrauen	gütig	küssen	träumen	sonnig	gemein	versagen	gierig	krank	töten	sterben	53pct	acq_USpleas_CSpleas1_noRW	acq23456_noRW	3	27	0	0	300	300	673	50	0	1	1	blank2r.bmp	0	1	+	0	1	blank2r.bmp	252	1	LWWL	306	1	genießen	559	0	0	0	0	0	0	0	0	0	0	0	0	0	0	0	0	0	0	0	0	0	0	0	0	0	0	0	0	0	0	0	0	0	0	0	0	0	0	0
072419	14:34:02	14:42:17	493633	5.0.10.0	5_exp_noRW	84	Rpleas_acq	CS_A	LWWL	JQQJ	DXXD	YFFY	ZHHZ	CPPC	genießen	vertrauen	gütig	küssen	träumen	sonnig	gemein	versagen	gierig	krank	töten	sterben	53pct	acq_USpleas_CSunple1_noRW	acq23456_noRW	3	28	0	0	300	300	428	50	0	1	1	blank2r.bmp	0	1	+	0	1	blank2r.bmp	252	1	DXXD	306	1	genießen	559	0	0	0	0	0	0	0	0	0	0	0	0	0	0	0	0	0	0	0	0	0	0	0	0	0	0	0	0	0	0	0	0	0	0	0	0	0	0	0
072419	14:34:02	14:42:19	495299	5.0.10.0	5_exp_noRW	84	Rpleas_acq	CS_A	LWWL	JQQJ	DXXD	YFFY	ZHHZ	CPPC	genießen	vertrauen	gütig	küssen	träumen	sonnig	gemein	versagen	gierig	krank	töten	sterben	47pct	acq_USpleas_CSpleas2_noRW	acq23456_noRW	3	29	0	0	300	300	484	50	0	1	1	blank2r.bmp	0	1	+	0	1	blank2r.bmp	252	1	JQQJ	306	2	träumen	559	0	0	0	0	0	0	0	0	0	0	0	0	0	0	0	0	0	0	0	0	0	0	0	0	0	0	0	0	0	0	0	0	0	0	0	0	0	0	0
072419	14:34:02	14:42:20	496805	5.0.10.0	5_exp_noRW	84	Rpleas_acq	CS_A	LWWL	JQQJ	DXXD	YFFY	ZHHZ	CPPC	genießen	vertrauen	gütig	küssen	träumen	sonnig	gemein	versagen	gierig	krank	töten	sterben	53pct	acq_USunple_CSunple1_noRW	acq23456_noRW	3	30	0	0	300	300	329	46	0	1	1	blank2r.bmp	0	1	+	0	1	blank2r.bmp	252	1	DXXD	306	1	gemein	559	0	0	0	0	0	0	0	0	0	0	0	0	0	0	0	0	0	0	0	0	0	0	0	0	0	0	0	0	0	0	0	0	0	0	0	0	0	0	0
072419	14:34:02	14:42:22	498458	5.0.10.0	5_exp_noRW	84	Rpleas_acq	CS_A	LWWL	JQQJ	DXXD	YFFY	ZHHZ	CPPC	genießen	vertrauen	gütig	küssen	träumen	sonnig	gemein	versagen	gierig	krank	töten	sterben	53pct	acq_USpleas_CSpleas2_noRW	acq23456_noRW	3	31	0	0	300	300	486	50	0	1	1	blank2r.bmp	0	1	+	0	1	blank2r.bmp	252	1	JQQJ	306	3	sonnig	559	0	0	0	0	0	0	0	0	0	0	0	0	0	0	0	0	0	0	0	0	0	0	0	0	0	0	0	0	0	0	0	0	0	0	0	0	0	0	0
072419	14:34:02	14:42:24	500110	5.0.10.0	5_exp_noRW	84	Rpleas_acq	CS_A	LWWL	JQQJ	DXXD	YFFY	ZHHZ	CPPC	genießen	vertrauen	gütig	küssen	träumen	sonnig	gemein	versagen	gierig	krank	töten	sterben	47pct	acq_USpleas_CSpleas2_noRW	acq23456_noRW	3	32	0	0	300	300	473	50	0	1	1	blank2r.bmp	0	1	+	0	1	blank2r.bmp	252	1	JQQJ	306	3	sonnig	559	0	0	0	0	0	0	0	0	0	0	0	0	0	0	0	0	0	0	0	0	0	0	0	0	0	0	0	0	0	0	0	0	0	0	0	0	0	0	0
072419	14:34:02	14:42:26	501869	5.0.10.0	5_exp_noRW	84	Rpleas_acq	CS_A	LWWL	JQQJ	DXXD	YFFY	ZHHZ	CPPC	genießen	vertrauen	gütig	küssen	träumen	sonnig	gemein	versagen	gierig	krank	töten	sterben	53pct	acq_USpleas_CSpleas1_noRW	acq23456_noRW	3	33	0	0	300	300	579	50	0	1	1	blank2r.bmp	0	1	+	0	1	blank2r.bmp	252	1	LWWL	306	2	vertrauen	559	0	0	0	0	0	0	0	0	0	0	0	0	0	0	0	0	0	0	0	0	0	0	0	0	0	0	0	0	0	0	0	0	0	0	0	0	0	0	0
072419	14:34:02	14:42:27	503495	5.0.10.0	5_exp_noRW	84	Rpleas_acq	CS_A	LWWL	JQQJ	DXXD	YFFY	ZHHZ	CPPC	genießen	vertrauen	gütig	küssen	träumen	sonnig	gemein	versagen	gierig	krank	töten	sterben	47pct	acq_USunple_CSpleas2_noRW	acq23456_noRW	3	34	0	0	300	300	444	46	0	1	1	blank2r.bmp	0	1	+	0	1	blank2r.bmp	252	1	JQQJ	306	2	töten	559	0	0	0	0	0	0	0	0	0	0	0	0	0	0	0	0	0	0	0	0	0	0	0	0	0	0	0	0	0	0	0	0	0	0	0	0	0	0	0
072419	14:34:02	14:42:29	505348	5.0.10.0	5_exp_noRW	84	Rpleas_acq	CS_A	LWWL	JQQJ	DXXD	YFFY	ZHHZ	CPPC	genießen	vertrauen	gütig	küssen	träumen	sonnig	gemein	versagen	gierig	krank	töten	sterben	53pct	acq_USunple_CSpleas1_noRW	acq23456_noRW	3	35	0	0	300	300	673	46	0	1	1	blank2r.bmp	0	1	+	0	1	blank2r.bmp	252	1	LWWL	306	1	gemein	559	0	0	0	0	0	0	0	0	0	0	0	0	0	0	0	0	0	0	0	0	0	0	0	0	0	0	0	0	0	0	0	0	0	0	0	0	0	0	0
072419	14:34:02	14:42:31	506894	5.0.10.0	5_exp_noRW	84	Rpleas_acq	CS_A	LWWL	JQQJ	DXXD	YFFY	ZHHZ	CPPC	genießen	vertrauen	gütig	küssen	träumen	sonnig	gemein	versagen	gierig	krank	töten	sterben	53pct	acq_USunple_CSunple2_noRW	acq23456_noRW	3	36	0	0	300	300	366	46	0	1	1	blank2r.bmp	0	1	+	0	1	blank2r.bmp	252	1	YFFY	306	3	sterben	559	0	0	0	0	0	0	0	0	0	0	0	0	0	0	0	0	0	0	0	0	0	0	0	0	0	0	0	0	0	0	0	0	0	0	0	0	0	0	0
072419	14:34:02	14:42:32	508493	5.0.10.0	5_exp_noRW	84	Rpleas_acq	CS_A	LWWL	JQQJ	DXXD	YFFY	ZHHZ	CPPC	genießen	vertrauen	gütig	küssen	träumen	sonnig	gemein	versagen	gierig	krank	töten	sterben	47pct	acq_USunple_CSunple2_noRW	acq23456_noRW	3	37	0	0	300	300	416	46	0	1	1	blank2r.bmp	0	1	+	0	1	blank2r.bmp	252	1	YFFY	306	3	sterben	559	0	0	0	0	0	0	0	0	0	0	0	0	0	0	0	0	0	0	0	0	0	0	0	0	0	0	0	0	0	0	0	0	0	0	0	0	0	0	0
072419	14:34:02	14:42:34	510213	5.0.10.0	5_exp_noRW	84	Rpleas_acq	CS_A	LWWL	JQQJ	DXXD	YFFY	ZHHZ	CPPC	genießen	vertrauen	gütig	küssen	träumen	sonnig	gemein	versagen	gierig	krank	töten	sterben	53pct	acq_USunple_CSunple1_noRW	acq23456_noRW	3	38	0	0	300	300	553	46	0	1	1	blank2r.bmp	0	1	+	0	1	blank2r.bmp	252	1	DXXD	306	2	versagen	559	0	0	0	0	0	0	0	0	0	0	0	0	0	0	0	0	0	0	0	0	0	0	0	0	0	0	0	0	0	0	0	0	0	0	0	0	0	0	0
072419	14:34:02	14:42:36	511879	5.0.10.0	5_exp_noRW	84	Rpleas_acq	CS_A	LWWL	JQQJ	DXXD	YFFY	ZHHZ	CPPC	genießen	vertrauen	gütig	küssen	träumen	sonnig	gemein	versagen	gierig	krank	töten	sterben	53pct	acq_USpleas_CSpleas1_noRW	acq23456_noRW	3	39	0	0	300	300	489	50	0	1	1	blank2r.bmp	0	1	+	0	1	blank2r.bmp	252	1	LWWL	306	3	gütig	559	0	0	0	0	0	0	0	0	0	0	0	0	0	0	0	0	0	0	0	0	0	0	0	0	0	0	0	0	0	0	0	0	0	0	0	0	0	0	0
072419	14:34:02	14:42:38	513944	5.0.10.0	5_exp_noRW	84	Rpleas_acq	CS_A	LWWL	JQQJ	DXXD	YFFY	ZHHZ	CPPC	genießen	vertrauen	gütig	küssen	träumen	sonnig	gemein	versagen	gierig	krank	töten	sterben	53pct	acq_USpleas_CSunple2_noRW	acq23456_noRW	3	40	0	0	300	300	879	50	0	1	1	blank2r.bmp	0	1	+	0	1	blank2r.bmp	252	1	YFFY	306	2	träumen	559	0	0	0	0	0	0	0	0	0	0	0	0	0	0	0	0	0	0	0	0	0	0	0	0	0	0	0	0	0	0	0	0	0	0	0	0	0	0	0
072419	14:34:02	14:42:39	515690	5.0.10.0	5_exp_noRW	84	Rpleas_acq	CS_A	LWWL	JQQJ	DXXD	YFFY	ZHHZ	CPPC	genießen	vertrauen	gütig	küssen	träumen	sonnig	gemein	versagen	gierig	krank	töten	sterben	53pct	acq_USpleas_CSpleas1_noRW	acq23456_noRW	3	41	0	0	300	300	582	50	0	1	1	blank2r.bmp	0	1	+	0	1	blank2r.bmp	252	1	LWWL	306	2	vertrauen	559	0	0	0	0	0	0	0	0	0	0	0	0	0	0	0	0	0	0	0	0	0	0	0	0	0	0	0	0	0	0	0	0	0	0	0	0	0	0	0
072419	14:34:02	14:42:41	517370	5.0.10.0	5_exp_noRW	84	Rpleas_acq	CS_A	LWWL	JQQJ	DXXD	YFFY	ZHHZ	CPPC	genießen	vertrauen	gütig	küssen	träumen	sonnig	gemein	versagen	gierig	krank	töten	sterben	53pct	acq_USpleas_CSpleas2_noRW	acq23456_noRW	3	42	0	0	300	300	501	50	0	1	1	blank2r.bmp	0	1	+	0	1	blank2r.bmp	252	1	JQQJ	306	1	küssen	559	0	0	0	0	0	0	0	0	0	0	0	0	0	0	0	0	0	0	0	0	0	0	0	0	0	0	0	0	0	0	0	0	0	0	0	0	0	0	0
072419	14:34:02	14:42:43	518996	5.0.10.0	5_exp_noRW	84	Rpleas_acq	CS_A	LWWL	JQQJ	DXXD	YFFY	ZHHZ	CPPC	genießen	vertrauen	gütig	küssen	träumen	sonnig	gemein	versagen	gierig	krank	töten	sterben	53pct	acq_USunple_CSunple1_noRW	acq23456_noRW	3	43	0	0	300	300	443	46	0	1	1	blank2r.bmp	0	1	+	0	1	blank2r.bmp	252	1	DXXD	306	1	gemein	559	0	0	0	0	0	0	0	0	0	0	0	0	0	0	0	0	0	0	0	0	0	0	0	0	0	0	0	0	0	0	0	0	0	0	0	0	0	0	0
072419	14:34:02	14:42:44	520835	5.0.10.0	5_exp_noRW	84	Rpleas_acq	CS_A	LWWL	JQQJ	DXXD	YFFY	ZHHZ	CPPC	genießen	vertrauen	gütig	küssen	träumen	sonnig	gemein	versagen	gierig	krank	töten	sterben	53pct	acq_USpleas_CSpleas1_noRW	acq23456_noRW	3	44	0	0	300	300	673	50	0	1	1	blank2r.bmp	0	1	+	0	1	blank2r.bmp	252	1	LWWL	306	1	genießen	559	0	0	0	0	0	0	0	0	0	0	0	0	0	0	0	0	0	0	0	0	0	0	0	0	0	0	0	0	0	0	0	0	0	0	0	0	0	0	0
072419	14:34:02	14:42:46	522567	5.0.10.0	5_exp_noRW	84	Rpleas_acq	CS_A	LWWL	JQQJ	DXXD	YFFY	ZHHZ	CPPC	genießen	vertrauen	gütig	küssen	träumen	sonnig	gemein	versagen	gierig	krank	töten	sterben	47pct	acq_USunple_CSunple2_noRW	acq23456_noRW	3	45	0	0	300	300	557	46	0	1	1	blank2r.bmp	0	1	+	0	1	blank2r.bmp	252	1	YFFY	306	2	töten	559	0	0	0	0	0	0	0	0	0	0	0	0	0	0	0	0	0	0	0	0	0	0	0	0	0	0	0	0	0	0	0	0	0	0	0	0	0	0	0
072419	14:34:02	14:42:48	524167	5.0.10.0	5_exp_noRW	84	Rpleas_acq	CS_A	LWWL	JQQJ	DXXD	YFFY	ZHHZ	CPPC	genießen	vertrauen	gütig	küssen	träumen	sonnig	gemein	versagen	gierig	krank	töten	sterben	47pct	acq_USpleas_CSpleas2_noRW	acq23456_noRW	3	46	0	0	300	300	416	50	0	1	1	blank2r.bmp	0	1	+	0	1	blank2r.bmp	252	1	JQQJ	306	2	träumen	559	0	0	0	0	0	0	0	0	0	0	0	0	0	0	0	0	0	0	0	0	0	0	0	0	0	0	0	0	0	0	0	0	0	0	0	0	0	0	0
072419	14:34:02	14:42:50	525833	5.0.10.0	5_exp_noRW	84	Rpleas_acq	CS_A	LWWL	JQQJ	DXXD	YFFY	ZHHZ	CPPC	genießen	vertrauen	gütig	küssen	träumen	sonnig	gemein	versagen	gierig	krank	töten	sterben	53pct	acq_USunple_CSunple2_noRW	acq23456_noRW	3	47	0	0	300	300	489	46	0	1	1	blank2r.bmp	0	1	+	0	1	blank2r.bmp	252	1	YFFY	306	1	krank	559	0	0	0	0	0	0	0	0	0	0	0	0	0	0	0	0	0	0	0	0	0	0	0	0	0	0	0	0	0	0	0	0	0	0	0	0	0	0	0
072419	14:34:02	14:42:51	527419	5.0.10.0	5_exp_noRW	84	Rpleas_acq	CS_A	LWWL	JQQJ	DXXD	YFFY	ZHHZ	CPPC	genießen	vertrauen	gütig	küssen	träumen	sonnig	gemein	versagen	gierig	krank	töten	sterben	47pct	acq_USpleas_CSunple2_noRW	acq23456_noRW	3	48	0	0	300	300	404	50	0	1	1	blank2r.bmp	0	1	+	0	1	blank2r.bmp	252	1	YFFY	306	3	sonnig	559	0	0	0	0	0	0	0	0	0	0	0	0	0	0	0	0	0	0	0	0	0	0	0	0	0	0	0	0	0	0	0	0	0	0	0	0	0	0	0
072419	14:34:02	14:42:53	529005	5.0.10.0	5_exp_noRW	84	Rpleas_acq	CS_A	LWWL	JQQJ	DXXD	YFFY	ZHHZ	CPPC	genießen	vertrauen	gütig	küssen	träumen	sonnig	gemein	versagen	gierig	krank	töten	sterben	53pct	acq_USunple_CSunple2_noRW	acq23456_noRW	3	49	0	0	300	300	417	46	0	1	1	blank2r.bmp	0	1	+	0	1	blank2r.bmp	252	1	YFFY	306	1	krank	559	0	0	0	0	0	0	0	0	0	0	0	0	0	0	0	0	0	0	0	0	0	0	0	0	0	0	0	0	0	0	0	0	0	0	0	0	0	0	0
072419	14:34:02	14:42:55	531071	5.0.10.0	5_exp_noRW	84	Rpleas_acq	CS_A	LWWL	JQQJ	DXXD	YFFY	ZHHZ	CPPC	genießen	vertrauen	gütig	küssen	träumen	sonnig	gemein	versagen	gierig	krank	töten	sterben	47pct	acq_USunple_CSunple1_noRW	acq23456_noRW	3	50	0	0	300	300	899	46	0	1	1	blank2r.bmp	0	1	+	0	1	blank2r.bmp	252	1	DXXD	306	3	gierig	559	0	0	0	0	0	0	0	0	0	0	0	0	0	0	0	0	0	0	0	0	0	0	0	0	0	0	0	0	0	0	0	0	0	0	0	0	0	0	0
072419	14:34:02	14:42:56	532670	5.0.10.0	5_exp_noRW	84	Rpleas_acq	CS_A	LWWL	JQQJ	DXXD	YFFY	ZHHZ	CPPC	genießen	vertrauen	gütig	küssen	träumen	sonnig	gemein	versagen	gierig	krank	töten	sterben	53pct	acq_USunple_CSpleas1_noRW	acq23456_noRW	3	51	0	0	300	300	421	46	0	1	1	blank2r.bmp	0	1	+	0	1	blank2r.bmp	252	1	LWWL	306	3	gierig	559	0	0	0	0	0	0	0	0	0	0	0	0	0	0	0	0	0	0	0	0	0	0	0	0	0	0	0	0	0	0	0	0	0	0	0	0	0	0	0
072419	14:34:02	14:42:58	534283	5.0.10.0	5_exp_noRW	84	Rpleas_acq	CS_A	LWWL	JQQJ	DXXD	YFFY	ZHHZ	CPPC	genießen	vertrauen	gütig	küssen	träumen	sonnig	gemein	versagen	gierig	krank	töten	sterben	47pct	acq_USpleas_CSpleas2_noRW	acq23456_noRW	3	52	0	0	300	300	447	50	0	1	1	blank2r.bmp	0	1	+	0	1	blank2r.bmp	252	1	JQQJ	306	1	küssen	559	0	0	0	0	0	0	0	0	0	0	0	0	0	0	0	0	0	0	0	0	0	0	0	0	0	0	0	0	0	0	0	0	0	0	0	0	0	0	0
072419	14:34:02	14:43:00	535855	5.0.10.0	5_exp_noRW	84	Rpleas_acq	CS_A	LWWL	JQQJ	DXXD	YFFY	ZHHZ	CPPC	genießen	vertrauen	gütig	küssen	träumen	sonnig	gemein	versagen	gierig	krank	töten	sterben	47pct	acq_USunple_CSunple1_noRW	acq23456_noRW	3	53	0	0	300	300	388	46	0	1	1	blank2r.bmp	0	1	+	0	1	blank2r.bmp	252	1	DXXD	306	3	gierig	559	0	0	0	0	0	0	0	0	0	0	0	0	0	0	0	0	0	0	0	0	0	0	0	0	0	0	0	0	0	0	0	0	0	0	0	0	0	0	0
072419	14:34:02	14:43:01	537481	5.0.10.0	5_exp_noRW	84	Rpleas_acq	CS_A	LWWL	JQQJ	DXXD	YFFY	ZHHZ	CPPC	genießen	vertrauen	gütig	küssen	träumen	sonnig	gemein	versagen	gierig	krank	töten	sterben	53pct	acq_USunple_CSunple2_noRW	acq23456_noRW	3	54	0	0	300	300	463	46	0	1	1	blank2r.bmp	0	1	+	0	1	blank2r.bmp	252	1	YFFY	306	3	sterben	559	0	0	0	0	0	0	0	0	0	0	0	0	0	0	0	0	0	0	0	0	0	0	0	0	0	0	0	0	0	0	0	0	0	0	0	0	0	0	0
072419	14:34:02	14:43:03	539187	5.0.10.0	5_exp_noRW	84	Rpleas_acq	CS_A	LWWL	JQQJ	DXXD	YFFY	ZHHZ	CPPC	genießen	vertrauen	gütig	küssen	träumen	sonnig	gemein	versagen	gierig	krank	töten	sterben	47pct	acq_USunple_CSpleas2_noRW	acq23456_noRW	3	55	0	0	300	300	527	46	0	1	1	blank2r.bmp	0	1	+	0	1	blank2r.bmp	252	1	JQQJ	306	1	krank	559	0	0	0	0	0	0	0	0	0	0	0	0	0	0	0	0	0	0	0	0	0	0	0	0	0	0	0	0	0	0	0	0	0	0	0	0	0	0	0
072419	14:34:02	14:43:05	540946	5.0.10.0	5_exp_noRW	84	Rpleas_acq	CS_A	LWWL	JQQJ	DXXD	YFFY	ZHHZ	CPPC	genießen	vertrauen	gütig	küssen	träumen	sonnig	gemein	versagen	gierig	krank	töten	sterben	47pct	acq_USpleas_CSpleas2_noRW	acq23456_noRW	3	56	0	0	300	300	574	50	0	1	1	blank2r.bmp	0	1	+	0	1	blank2r.bmp	252	1	JQQJ	306	2	träumen	559	0	0	0	0	0	0	0	0	0	0	0	0	0	0	0	0	0	0	0	0	0	0	0	0	0	0	0	0	0	0	0	0	0	0	0	0	0	0	0
072419	14:34:02	14:43:06	542772	5.0.10.0	5_exp_noRW	84	Rpleas_acq	CS_A	LWWL	JQQJ	DXXD	YFFY	ZHHZ	CPPC	genießen	vertrauen	gütig	küssen	träumen	sonnig	gemein	versagen	gierig	krank	töten	sterben	53pct	acq_USpleas_CSpleas1_noRW	acq23456_noRW	3	57	0	0	300	300	451	46	0	0	1	blank2r.bmp	0	1	+	0	1	blank2r.bmp	252	1	LWWL	306	2	vertrauen	559	1	FEHLER	1039	0	0	0	0	0	0	0	0	0	0	0	0	0	0	0	0	0	0	0	0	0	0	0	0	0	0	0	0	0	0	0	0	0	0	0	0
072419	14:34:02	14:43:08	544172	5.0.10.0	5_exp_noRW	84	Rpleas_acq	CS_A	LWWL	JQQJ	DXXD	YFFY	ZHHZ	CPPC	genießen	vertrauen	gütig	küssen	träumen	sonnig	gemein	versagen	gierig	krank	töten	sterben	53pct	acq_USunple_CSunple1_noRW	acq23456_noRW	3	58	0	0	300	300	426	46	0	1	1	blank2r.bmp	0	1	+	0	1	blank2r.bmp	252	1	DXXD	306	1	gemein	559	0	0	0	0	0	0	0	0	0	0	0	0	0	0	0	0	0	0	0	0	0	0	0	0	0	0	0	0	0	0	0	0	0	0	0	0	0	0	0
072419	14:34:02	14:43:10	545918	5.0.10.0	5_exp_noRW	84	Rpleas_acq	CS_A	LWWL	JQQJ	DXXD	YFFY	ZHHZ	CPPC	genießen	vertrauen	gütig	küssen	träumen	sonnig	gemein	versagen	gierig	krank	töten	sterben	53pct	acq_USpleas_CSunple1_noRW	acq23456_noRW	3	59	0	0	300	300	574	50	0	1	1	blank2r.bmp	0	1	+	0	1	blank2r.bmp	252	1	DXXD	306	3	gütig	559	0	0	0	0	0	0	0	0	0	0	0	0	0	0	0	0	0	0	0	0	0	0	0	0	0	0	0	0	0	0	0	0	0	0	0	0	0	0	0
072419	14:34:02	14:43:12	548050	5.0.10.0	5_exp_noRW	84	Rpleas_acq	CS_A	LWWL	JQQJ	DXXD	YFFY	ZHHZ	CPPC	genießen	vertrauen	gütig	küssen	träumen	sonnig	gemein	versagen	gierig	krank	töten	sterben	47pct	acq_USpleas_CSpleas1_noRW	acq23456_noRW	3	60	0	0	300	300	750	46	0	0	1	blank2r.bmp	0	1	+	0	1	blank2r.bmp	252	1	LWWL	306	3	gütig	559	1	FEHLER	1346	0	0	0	0	0	0	0	0	0	0	0	0	0	0	0	0	0	0	0	0	0	0	0	0	0	0	0	0	0	0	0	0	0	0	0	0
072419	14:34:02	14:43:13	549609	5.0.10.0	5_exp_noRW	84	Rpleas_acq	CS_A	LWWL	JQQJ	DXXD	YFFY	ZHHZ	CPPC	genießen	vertrauen	gütig	küssen	träumen	sonnig	gemein	versagen	gierig	krank	töten	sterben	53pct	acq_USpleas_CSpleas2_noRW	acq23456_noRW	3	61	0	0	300	300	606	50	0	1	1	blank2r.bmp	0	1	+	0	1	blank2r.bmp	252	1	JQQJ	306	3	sonnig	559	0	0	0	0	0	0	0	0	0	0	0	0	0	0	0	0	0	0	0	0	0	0	0	0	0	0	0	0	0	0	0	0	0	0	0	0	0	0	0
072419	14:34:02	14:43:16	552155	5.0.10.0	5_exp_noRW	84	Rpleas_acq	CS_A	LWWL	JQQJ	DXXD	YFFY	ZHHZ	CPPC	genießen	vertrauen	gütig	küssen	träumen	sonnig	gemein	versagen	gierig	krank	töten	sterben	53pct	acq_USunple_CSunple1_noRW	acq23456_noRW	3	62	0	0	300	300	1361	46	0	1	1	blank2r.bmp	0	1	+	0	1	blank2r.bmp	252	1	DXXD	306	2	versagen	559	0	0	0	0	0	0	0	0	0	0	0	0	0	0	0	0	0	0	0	0	0	0	0	0	0	0	0	0	0	0	0	0	0	0	0	0	0	0	0
072419	14:34:02	14:43:18	553981	5.0.10.0	5_exp_noRW	84	Rpleas_acq	CS_A	LWWL	JQQJ	DXXD	YFFY	ZHHZ	CPPC	genießen	vertrauen	gütig	küssen	träumen	sonnig	gemein	versagen	gierig	krank	töten	sterben	47pct	acq_USpleas_CSpleas1_noRW	acq23456_noRW	3	63	0	0	300	300	659	50	0	1	1	blank2r.bmp	0	1	+	0	1	blank2r.bmp	252	1	LWWL	306	1	genießen	559	0	0	0	0	0	0	0	0	0	0	0	0	0	0	0	0	0	0	0	0	0	0	0	0	0	0	0	0	0	0	0	0	0	0	0	0	0	0	0
072419	14:34:02	14:43:19	555754	5.0.10.0	5_exp_noRW	84	Rpleas_acq	CS_A	LWWL	JQQJ	DXXD	YFFY	ZHHZ	CPPC	genießen	vertrauen	gütig	küssen	träumen	sonnig	gemein	versagen	gierig	krank	töten	sterben	47pct	acq_USpleas_CSpleas2_noRW	acq23456_noRW	3	64	0	0	300	300	610	50	0	1	1	blank2r.bmp	0	1	+	0	1	blank2r.bmp	252	1	JQQJ	306	2	träumen	559	0	0	0	0	0	0	0	0	0	0	0	0	0	0	0	0	0	0	0	0	0	0	0	0	0	0	0	0	0	0	0	0	0	0	0	0	0	0	0
072419	14:34:02	14:43:21	557739	5.0.10.0	5_exp_noRW	84	Rpleas_acq	CS_A	LWWL	JQQJ	DXXD	YFFY	ZHHZ	CPPC	genießen	vertrauen	gütig	küssen	träumen	sonnig	gemein	versagen	gierig	krank	töten	sterben	47pct	acq_USunple_CSunple1_noRW	acq23456_noRW	3	65	0	0	300	300	809	46	0	1	1	blank2r.bmp	0	1	+	0	1	blank2r.bmp	252	1	DXXD	306	3	gierig	559	0	0	0	0	0	0	0	0	0	0	0	0	0	0	0	0	0	0	0	0	0	0	0	0	0	0	0	0	0	0	0	0	0	0	0	0	0	0	0
072419	14:34:02	14:43:24	560098	5.0.10.0	5_exp_noRW	84	Rpleas_acq	CS_A	LWWL	JQQJ	DXXD	YFFY	ZHHZ	CPPC	genießen	vertrauen	gütig	küssen	träumen	sonnig	gemein	versagen	gierig	krank	töten	sterben	47pct	acq_USunple_CSunple2_noRW	acq23456_noRW	3	66	0	0	300	300	1190	46	0	1	1	blank2r.bmp	0	1	+	0	1	blank2r.bmp	252	1	YFFY	306	2	töten	559	0	0	0	0	0	0	0	0	0	0	0	0	0	0	0	0	0	0	0	0	0	0	0	0	0	0	0	0	0	0	0	0	0	0	0	0	0	0	0
072419	14:34:02	14:43:26	562084	5.0.10.0	5_exp_noRW	84	Rpleas_acq	CS_A	LWWL	JQQJ	DXXD	YFFY	ZHHZ	CPPC	genießen	vertrauen	gütig	küssen	träumen	sonnig	gemein	versagen	gierig	krank	töten	sterben	47pct	acq_USunple_CSunple2_noRW	acq23456_noRW	3	67	0	0	300	300	815	46	0	1	1	blank2r.bmp	0	1	+	0	1	blank2r.bmp	252	1	YFFY	306	2	töten	559	0	0	0	0	0	0	0	0	0	0	0	0	0	0	0	0	0	0	0	0	0	0	0	0	0	0	0	0	0	0	0	0	0	0	0	0	0	0	0
072419	14:34:02	14:43:27	563790	5.0.10.0	5_exp_noRW	84	Rpleas_acq	CS_A	LWWL	JQQJ	DXXD	YFFY	ZHHZ	CPPC	genießen	vertrauen	gütig	küssen	träumen	sonnig	gemein	versagen	gierig	krank	töten	sterben	47pct	acq_USpleas_CSunple1_noRW	acq23456_noRW	3	68	0	0	300	300	531	50	0	1	1	blank2r.bmp	0	1	+	0	1	blank2r.bmp	252	1	DXXD	306	2	vertrauen	559	0	0	0	0	0	0	0	0	0	0	0	0	0	0	0	0	0	0	0	0	0	0	0	0	0	0	0	0	0	0	0	0	0	0	0	0	0	0	0
072419	14:34:02	14:43:29	565363	5.0.10.0	5_exp_noRW	84	Rpleas_acq	CS_A	LWWL	JQQJ	DXXD	YFFY	ZHHZ	CPPC	genießen	vertrauen	gütig	küssen	träumen	sonnig	gemein	versagen	gierig	krank	töten	sterben	47pct	acq_USpleas_CSpleas2_noRW	acq23456_noRW	3	69	0	0	300	300	388	50	0	1	1	blank2r.bmp	0	1	+	0	1	blank2r.bmp	252	1	JQQJ	306	1	küssen	559	0	0	0	0	0	0	0	0	0	0	0	0	0	0	0	0	0	0	0	0	0	0	0	0	0	0	0	0	0	0	0	0	0	0	0	0	0	0	0
072419	14:34:02	14:43:31	567042	5.0.10.0	5_exp_noRW	84	Rpleas_acq	CS_A	LWWL	JQQJ	DXXD	YFFY	ZHHZ	CPPC	genießen	vertrauen	gütig	küssen	träumen	sonnig	gemein	versagen	gierig	krank	töten	sterben	53pct	acq_USpleas_CSpleas1_noRW	acq23456_noRW	3	70	0	0	300	300	497	50	0	1	1	blank2r.bmp	0	1	+	0	1	blank2r.bmp	252	1	LWWL	306	1	genießen	559	0	0	0	0	0	0	0	0	0	0	0	0	0	0	0	0	0	0	0	0	0	0	0	0	0	0	0	0	0	0	0	0	0	0	0	0	0	0	0
072419	14:34:02	14:43:32	568708	5.0.10.0	5_exp_noRW	84	Rpleas_acq	CS_A	LWWL	JQQJ	DXXD	YFFY	ZHHZ	CPPC	genießen	vertrauen	gütig	küssen	träumen	sonnig	gemein	versagen	gierig	krank	töten	sterben	47pct	acq_USpleas_CSunple2_noRW	acq23456_noRW	3	71	0	0	300	300	500	50	0	1	1	blank2r.bmp	0	1	+	0	1	blank2r.bmp	252	1	YFFY	306	1	küssen	559	0	0	0	0	0	0	0	0	0	0	0	0	0	0	0	0	0	0	0	0	0	0	0	0	0	0	0	0	0	0	0	0	0	0	0	0	0	0	0
072419	14:34:02	14:43:34	570281	5.0.10.0	5_exp_noRW	84	Rpleas_acq	CS_A	LWWL	JQQJ	DXXD	YFFY	ZHHZ	CPPC	genießen	vertrauen	gütig	küssen	träumen	sonnig	gemein	versagen	gierig	krank	töten	sterben	47pct	acq_USunple_CSunple2_noRW	acq23456_noRW	3	72	0	0	300	300	402	46	0	1	1	blank2r.bmp	0	1	+	0	1	blank2r.bmp	252	1	YFFY	306	3	sterben	559	0	0	0	0	0	0	0	0	0	0	0	0	0	0	0	0	0	0	0	0	0	0	0	0	0	0	0	0	0	0	0	0	0	0	0	0	0	0	0
072419	14:34:02	14:43:36	571933	5.0.10.0	5_exp_noRW	84	Rpleas_acq	CS_A	LWWL	JQQJ	DXXD	YFFY	ZHHZ	CPPC	genießen	vertrauen	gütig	küssen	träumen	sonnig	gemein	versagen	gierig	krank	töten	sterben	47pct	acq_USunple_CSunple1_noRW	acq23456_noRW	3	73	0	0	300	300	482	46	0	1	1	blank2r.bmp	0	1	+	0	1	blank2r.bmp	252	1	DXXD	306	2	versagen	559	0	0	0	0	0	0	0	0	0	0	0	0	0	0	0	0	0	0	0	0	0	0	0	0	0	0	0	0	0	0	0	0	0	0	0	0	0	0	0
072419	14:34:02	14:43:37	573626	5.0.10.0	5_exp_noRW	84	Rpleas_acq	CS_A	LWWL	JQQJ	DXXD	YFFY	ZHHZ	CPPC	genießen	vertrauen	gütig	küssen	träumen	sonnig	gemein	versagen	gierig	krank	töten	sterben	53pct	acq_USunple_CSpleas2_noRW	acq23456_noRW	3	74	0	0	300	300	514	46	0	1	1	blank2r.bmp	0	1	+	0	1	blank2r.bmp	252	1	JQQJ	306	3	sterben	559	0	0	0	0	0	0	0	0	0	0	0	0	0	0	0	0	0	0	0	0	0	0	0	0	0	0	0	0	0	0	0	0	0	0	0	0	0	0	0
072419	14:34:02	14:43:39	575332	5.0.10.0	5_exp_noRW	84	Rpleas_acq	CS_A	LWWL	JQQJ	DXXD	YFFY	ZHHZ	CPPC	genießen	vertrauen	gütig	küssen	träumen	sonnig	gemein	versagen	gierig	krank	töten	sterben	47pct	acq_USpleas_CSpleas1_noRW	acq23456_noRW	3	75	0	0	300	300	524	50	0	1	1	blank2r.bmp	0	1	+	0	1	blank2r.bmp	252	1	LWWL	306	3	gütig	559	0	0	0	0	0	0	0	0	0	0	0	0	0	0	0	0	0	0	0	0	0	0	0	0	0	0	0	0	0	0	0	0	0	0	0	0	0	0	0
072419	14:34:02	14:43:41	577025	5.0.10.0	5_exp_noRW	84	Rpleas_acq	CS_A	LWWL	JQQJ	DXXD	YFFY	ZHHZ	CPPC	genießen	vertrauen	gütig	küssen	träumen	sonnig	gemein	versagen	gierig	krank	töten	sterben	47pct	acq_USpleas_CSpleas2_noRW	acq23456_noRW	3	76	0	0	300	300	515	50	0	1	1	blank2r.bmp	0	1	+	0	1	blank2r.bmp	252	1	JQQJ	306	3	sonnig	559	0	0	0	0	0	0	0	0	0	0	0	0	0	0	0	0	0	0	0	0	0	0	0	0	0	0	0	0	0	0	0	0	0	0	0	0	0	0	0
072419	14:34:02	14:43:42	578704	5.0.10.0	5_exp_noRW	84	Rpleas_acq	CS_A	LWWL	JQQJ	DXXD	YFFY	ZHHZ	CPPC	genießen	vertrauen	gütig	küssen	träumen	sonnig	gemein	versagen	gierig	krank	töten	sterben	53pct	acq_USunple_CSunple1_noRW	acq23456_noRW	3	77	0	0	300	300	496	46	0	1	1	blank2r.bmp	0	1	+	0	1	blank2r.bmp	252	1	DXXD	306	1	gemein	559	0	0	0	0	0	0	0	0	0	0	0	0	0	0	0	0	0	0	0	0	0	0	0	0	0	0	0	0	0	0	0	0	0	0	0	0	0	0	0
072419	14:34:02	14:43:44	580676	5.0.10.0	5_exp_noRW	84	Rpleas_acq	CS_A	LWWL	JQQJ	DXXD	YFFY	ZHHZ	CPPC	genießen	vertrauen	gütig	küssen	träumen	sonnig	gemein	versagen	gierig	krank	töten	sterben	53pct	acq_USunple_CSunple2_noRW	acq23456_noRW	3	78	0	0	300	300	787	46	0	1	1	blank2r.bmp	0	1	+	0	1	blank2r.bmp	252	1	YFFY	306	1	krank	559	0	0	0	0	0	0	0	0	0	0	0	0	0	0	0	0	0	0	0	0	0	0	0	0	0	0	0	0	0	0	0	0	0	0	0	0	0	0	0
072419	14:34:02	14:43:46	582316	5.0.10.0	5_exp_noRW	84	Rpleas_acq	CS_A	LWWL	JQQJ	DXXD	YFFY	ZHHZ	CPPC	genießen	vertrauen	gütig	küssen	träumen	sonnig	gemein	versagen	gierig	krank	töten	sterben	53pct	acq_USunple_CSpleas1_noRW	acq23456_noRW	3	79	0	0	300	300	471	46	0	1	1	blank2r.bmp	0	1	+	0	1	blank2r.bmp	252	1	LWWL	306	2	versagen	559	0	0	0	0	0	0	0	0	0	0	0	0	0	0	0	0	0	0	0	0	0	0	0	0	0	0	0	0	0	0	0	0	0	0	0	0	0	0	0
072419	14:34:02	14:43:48	584262	5.0.10.0	5_exp_noRW	84	Rpleas_acq	CS_A	LWWL	JQQJ	DXXD	YFFY	ZHHZ	CPPC	genießen	vertrauen	gütig	küssen	träumen	sonnig	gemein	versagen	gierig	krank	töten	sterben	47pct	acq_USpleas_CSpleas1_noRW	acq23456_noRW	3	80	0	0	300	300	761	50	0	1	1	blank2r.bmp	0	1	+	0	1	blank2r.bmp	252	1	LWWL	306	2	vertrauen	559	0	0	0	0	0	0	0	0	0	0	0	0	0	0	0	0	0	0	0	0	0	0	0	0	0	0	0	0	0	0	0	0	0	0	0	0	0	0	0
072419	14:34:02	14:44:40	636200	5.0.10.0	5_exp_noRW	84	Rpleas_acq	CS_A	LWWL	JQQJ	DXXD	YFFY	ZHHZ	CPPC	genießen	vertrauen	gütig	küssen	träumen	sonnig	gemein	versagen	gierig	krank	töten	sterben	47pct	acq_USunple_CSunple1_noRW	acq23456_noRW	4	1	0	0	300	300	554	46	0	1	1	blank2r.bmp	0	1	+	0	1	blank2r.bmp	252	1	DXXD	306	3	gierig	559	0	0	0	0	0	0	0	0	0	0	0	0	0	0	0	0	0	0	0	0	0	0	0	0	0	0	0	0	0	0	0	0	0	0	0	0	0	0	0
