date	time	script.currenttime	script.elapsedtime	build	script.currentexpt	subject	expressions.LRpleas_acq	expressions.conditionCS_A	expressions.CSpleas_1	expressions.CSpleas_2	expressions.CSunple_1	expressions.CSunple_2	expressions.distractor_1	expressions.distractor_2	expressions.US_pleas1	expressions.US_pleas2	expressions.US_pleas3	expressions.US_pleas4	expressions.US_pleas5	expressions.US_pleas6	expressions.US_unple1	expressions.US_unple2	expressions.US_unple3	expressions.US_unple4	expressions.US_unple5	expressions.US_unple6	counter.positions_noRW	trialcode	blockcode	blocknum	trialnum	windowcenter	inwindow	pretrialpause	posttrialpause	latency	response	expressions.correctedscore	correct	stimulusnumber1	stimulusitem1	stimulusonset1	stimulusnumber2	stimulusitem2	stimulusonset2	stimulusnumber3	stimulusitem3	stimulusonset3	stimulusnumber4	stimulusitem4	stimulusonset4	stimulusnumber5	stimulusitem5	stimulusonset5	stimulusnumber6	stimulusitem6	stimulusonset6	stimulusnumber7	stimulusitem7	stimulusonset7	stimulusnumber8	stimulusitem8	stimulusonset8	stimulusnumber9	stimulusitem9	stimulusonset9	stimulusnumber10	stimulusitem10	stimulusonset10	stimulusnumber11	stimulusitem11	stimulusonset11	stimulusnumber12	stimulusitem12	stimulusonset12	stimulusnumber13	stimulusitem13	stimulusonset13	stimulusnumber14	stimulusitem14	stimulusonset14	stimulusnumber15	stimulusitem15	stimulusonset15	stimulusnumber16	stimulusitem16	stimulusonset16	stimulusnumber17	stimulusitem17	stimulusonset17	stimulusnumber18	stimulusitem18	stimulusonset18
070319	14:06:00	14:08:29	149045	5.0.10.0	5_exp_RW	13	Rpleas_acq	CS_B	GWWG	JXXJ	YDDY	VKKV	BZZB	MQQM	fair	retten	spielen	ehrlich	treu	schön	faul	rächen	strafen	eitel	tot	schlecht	1	acq_USpleas_CSpleas2_RW	acq1_RW	1	1	0	0	300	300	3600	50	0	1	1	blank2r.bmp	0	1	+	0	1	blank2r.bmp	492	1	JXXJ	492	1	blank2r.bmp	572	2	treu	866	0	0	0	0	0	0	0	0	0	0	0	0	0	0	0	0	0	0	0	0	0	0	0	0	0	0	0	0	0	0	0	0	0	0	0	0
070319	14:06:00	14:08:34	153150	5.0.10.0	5_exp_RW	13	Rpleas_acq	CS_B	GWWG	JXXJ	YDDY	VKKV	BZZB	MQQM	fair	retten	spielen	ehrlich	treu	schön	faul	rächen	strafen	eitel	tot	schlecht	1	acq_USunple_CSunple1_RW	acq1_RW	1	2	0	0	300	300	2626	46	0	1	1	blank2r.bmp	0	1	+	0	1	blank2r.bmp	492	1	YDDY	492	1	blank2r.bmp	572	1	faul	866	0	0	0	0	0	0	0	0	0	0	0	0	0	0	0	0	0	0	0	0	0	0	0	0	0	0	0	0	0	0	0	0	0	0	0	0
070319	14:06:00	14:08:40	159188	5.0.10.0	5_exp_RW	13	Rpleas_acq	CS_B	GWWG	JXXJ	YDDY	VKKV	BZZB	MQQM	fair	retten	spielen	ehrlich	treu	schön	faul	rächen	strafen	eitel	tot	schlecht	1	acq_USpleas_CSpleas2_RW	acq1_RW	1	3	0	0	300	300	4550	50	0	1	1	blank2r.bmp	0	1	+	0	1	blank2r.bmp	492	1	JXXJ	492	1	blank2r.bmp	572	1	ehrlich	866	0	0	0	0	0	0	0	0	0	0	0	0	0	0	0	0	0	0	0	0	0	0	0	0	0	0	0	0	0	0	0	0	0	0	0	0
070319	14:06:00	14:08:42	161800	5.0.10.0	5_exp_RW	13	Rpleas_acq	CS_B	GWWG	JXXJ	YDDY	VKKV	BZZB	MQQM	fair	retten	spielen	ehrlich	treu	schön	faul	rächen	strafen	eitel	tot	schlecht	1	acq_USunple_CSunple1_RW	acq1_RW	1	4	0	0	300	300	1126	46	0	1	1	blank2r.bmp	0	1	+	0	1	blank2r.bmp	492	1	YDDY	492	1	blank2r.bmp	572	3	strafen	866	0	0	0	0	0	0	0	0	0	0	0	0	0	0	0	0	0	0	0	0	0	0	0	0	0	0	0	0	0	0	0	0	0	0	0	0
070319	14:06:00	14:08:46	165465	5.0.10.0	5_exp_RW	13	Rpleas_acq	CS_B	GWWG	JXXJ	YDDY	VKKV	BZZB	MQQM	fair	retten	spielen	ehrlich	treu	schön	faul	rächen	strafen	eitel	tot	schlecht	1	acq_USunple_CSunple2_RW	acq1_RW	1	5	0	0	300	300	2188	46	0	1	1	blank2r.bmp	0	1	+	0	1	blank2r.bmp	492	1	VKKV	492	1	blank2r.bmp	572	3	schlecht	866	0	0	0	0	0	0	0	0	0	0	0	0	0	0	0	0	0	0	0	0	0	0	0	0	0	0	0	0	0	0	0	0	0	0	0	0
070319	14:06:00	14:08:48	167625	5.0.10.0	5_exp_RW	13	Rpleas_acq	CS_B	GWWG	JXXJ	YDDY	VKKV	BZZB	MQQM	fair	retten	spielen	ehrlich	treu	schön	faul	rächen	strafen	eitel	tot	schlecht	1	acq_USpleas_CSpleas2_RW	acq1_RW	1	6	0	0	300	300	685	50	0	1	1	blank2r.bmp	0	1	+	0	1	blank2r.bmp	492	1	JXXJ	492	1	blank2r.bmp	572	3	schön	866	0	0	0	0	0	0	0	0	0	0	0	0	0	0	0	0	0	0	0	0	0	0	0	0	0	0	0	0	0	0	0	0	0	0	0	0
070319	14:06:00	14:08:50	169877	5.0.10.0	5_exp_RW	13	Rpleas_acq	CS_B	GWWG	JXXJ	YDDY	VKKV	BZZB	MQQM	fair	retten	spielen	ehrlich	treu	schön	faul	rächen	strafen	eitel	tot	schlecht	1	acq_USunple_CSunple1_RW	acq1_RW	1	7	0	0	300	300	768	46	0	1	1	blank2r.bmp	0	1	+	0	1	blank2r.bmp	492	1	YDDY	492	1	blank2r.bmp	572	2	rächen	866	0	0	0	0	0	0	0	0	0	0	0	0	0	0	0	0	0	0	0	0	0	0	0	0	0	0	0	0	0	0	0	0	0	0	0	0
070319	14:06:00	14:08:53	172822	5.0.10.0	5_exp_RW	13	Rpleas_acq	CS_B	GWWG	JXXJ	YDDY	VKKV	BZZB	MQQM	fair	retten	spielen	ehrlich	treu	schön	faul	rächen	strafen	eitel	tot	schlecht	1	acq_USunple_CSunple2_RW	acq1_RW	1	8	0	0	300	300	1458	46	0	1	1	blank2r.bmp	0	1	+	0	1	blank2r.bmp	492	1	VKKV	492	1	blank2r.bmp	572	1	eitel	866	0	0	0	0	0	0	0	0	0	0	0	0	0	0	0	0	0	0	0	0	0	0	0	0	0	0	0	0	0	0	0	0	0	0	0	0
070319	14:06:00	14:08:56	175235	5.0.10.0	5_exp_RW	13	Rpleas_acq	CS_B	GWWG	JXXJ	YDDY	VKKV	BZZB	MQQM	fair	retten	spielen	ehrlich	treu	schön	faul	rächen	strafen	eitel	tot	schlecht	1	acq_USpleas_CSpleas1_RW	acq1_RW	1	9	0	0	300	300	928	50	0	1	1	blank2r.bmp	0	1	+	0	1	blank2r.bmp	492	1	GWWG	492	1	blank2r.bmp	572	2	retten	866	0	0	0	0	0	0	0	0	0	0	0	0	0	0	0	0	0	0	0	0	0	0	0	0	0	0	0	0	0	0	0	0	0	0	0	0
070319	14:06:00	14:08:58	177447	5.0.10.0	5_exp_RW	13	Rpleas_acq	CS_B	GWWG	JXXJ	YDDY	VKKV	BZZB	MQQM	fair	retten	spielen	ehrlich	treu	schön	faul	rächen	strafen	eitel	tot	schlecht	1	acq_USpleas_CSpleas2_RW	acq1_RW	1	10	0	0	300	300	727	50	0	1	1	blank2r.bmp	0	1	+	0	1	blank2r.bmp	492	1	JXXJ	492	1	blank2r.bmp	572	2	treu	866	0	0	0	0	0	0	0	0	0	0	0	0	0	0	0	0	0	0	0	0	0	0	0	0	0	0	0	0	0	0	0	0	0	0	0	0
070319	14:06:00	14:09:00	179740	5.0.10.0	5_exp_RW	13	Rpleas_acq	CS_B	GWWG	JXXJ	YDDY	VKKV	BZZB	MQQM	fair	retten	spielen	ehrlich	treu	schön	faul	rächen	strafen	eitel	tot	schlecht	1	acq_USpleas_CSpleas1_RW	acq1_RW	1	11	0	0	300	300	821	50	0	1	1	blank2r.bmp	0	1	+	0	1	blank2r.bmp	492	1	GWWG	492	1	blank2r.bmp	572	1	fair	866	0	0	0	0	0	0	0	0	0	0	0	0	0	0	0	0	0	0	0	0	0	0	0	0	0	0	0	0	0	0	0	0	0	0	0	0
070319	14:06:00	14:09:02	181872	5.0.10.0	5_exp_RW	13	Rpleas_acq	CS_B	GWWG	JXXJ	YDDY	VKKV	BZZB	MQQM	fair	retten	spielen	ehrlich	treu	schön	faul	rächen	strafen	eitel	tot	schlecht	1	acq_USpleas_CSpleas1_RW	acq1_RW	1	12	0	0	300	300	657	50	0	1	1	blank2r.bmp	0	1	+	0	1	blank2r.bmp	492	1	GWWG	492	1	blank2r.bmp	572	3	spielen	866	0	0	0	0	0	0	0	0	0	0	0	0	0	0	0	0	0	0	0	0	0	0	0	0	0	0	0	0	0	0	0	0	0	0	0	0
070319	14:06:00	14:09:04	183818	5.0.10.0	5_exp_RW	13	Rpleas_acq	CS_B	GWWG	JXXJ	YDDY	VKKV	BZZB	MQQM	fair	retten	spielen	ehrlich	treu	schön	faul	rächen	strafen	eitel	tot	schlecht	1	acq_USunple_CSunple2_RW	acq1_RW	1	13	0	0	300	300	458	46	0	1	1	blank2r.bmp	0	1	+	0	1	blank2r.bmp	492	1	VKKV	492	1	blank2r.bmp	572	2	tot	866	0	0	0	0	0	0	0	0	0	0	0	0	0	0	0	0	0	0	0	0	0	0	0	0	0	0	0	0	0	0	0	0	0	0	0	0
070319	14:06:00	14:09:06	185724	5.0.10.0	5_exp_RW	13	Rpleas_acq	CS_B	GWWG	JXXJ	YDDY	VKKV	BZZB	MQQM	fair	retten	spielen	ehrlich	treu	schön	faul	rächen	strafen	eitel	tot	schlecht	1	acq_USunple_CSunple1_RW	acq1_RW	1	14	0	0	300	300	414	46	0	1	1	blank2r.bmp	0	1	+	0	1	blank2r.bmp	492	1	YDDY	492	1	blank2r.bmp	572	3	strafen	866	0	0	0	0	0	0	0	0	0	0	0	0	0	0	0	0	0	0	0	0	0	0	0	0	0	0	0	0	0	0	0	0	0	0	0	0
070319	14:06:00	14:09:08	188043	5.0.10.0	5_exp_RW	13	Rpleas_acq	CS_B	GWWG	JXXJ	YDDY	VKKV	BZZB	MQQM	fair	retten	spielen	ehrlich	treu	schön	faul	rächen	strafen	eitel	tot	schlecht	1	acq_USunple_CSunple2_RW	acq1_RW	1	15	0	0	300	300	830	46	0	1	1	blank2r.bmp	0	1	+	0	1	blank2r.bmp	492	1	VKKV	492	1	blank2r.bmp	572	2	tot	866	0	0	0	0	0	0	0	0	0	0	0	0	0	0	0	0	0	0	0	0	0	0	0	0	0	0	0	0	0	0	0	0	0	0	0	0
070319	14:06:00	14:09:11	190629	5.0.10.0	5_exp_RW	13	Rpleas_acq	CS_B	GWWG	JXXJ	YDDY	VKKV	BZZB	MQQM	fair	retten	spielen	ehrlich	treu	schön	faul	rächen	strafen	eitel	tot	schlecht	1	acq_USpleas_CSpleas1_RW	acq1_RW	1	16	0	0	300	300	1110	50	0	1	1	blank2r.bmp	0	1	+	0	1	blank2r.bmp	492	1	GWWG	492	1	blank2r.bmp	572	3	spielen	866	0	0	0	0	0	0	0	0	0	0	0	0	0	0	0	0	0	0	0	0	0	0	0	0	0	0	0	0	0	0	0	0	0	0	0	0
070319	14:06:00	14:10:01	240835	5.0.10.0	5_exp_RW	13	Rpleas_acq	CS_B	GWWG	JXXJ	YDDY	VKKV	BZZB	MQQM	fair	retten	spielen	ehrlich	treu	schön	faul	rächen	strafen	eitel	tot	schlecht	1	acq_USunple_CSunple1_RW	acq2_RW	2	1	480	0	300	300	1332	46	0	1	1	blank2r.bmp	0	1	+	0	1	blank2r.bmp	492	1	YDDY	492	1	blank2r.bmp	572	1	faul	866	1	!	1319	1	!	-1	0	0	0	0	0	0	0	0	0	0	0	0	0	0	0	0	0	0	0	0	0	0	0	0	0	0	0	0	0	0
070319	14:06:00	14:10:04	243660	5.0.10.0	5_exp_RW	13	Rpleas_acq	CS_B	GWWG	JXXJ	YDDY	VKKV	BZZB	MQQM	fair	retten	spielen	ehrlich	treu	schön	faul	rächen	strafen	eitel	tot	schlecht	1	acq_USpleas_CSpleas2_RW	acq2_RW	2	2	480	0	300	300	1043	50	0	1	1	blank2r.bmp	0	1	+	0	1	blank2r.bmp	492	1	JXXJ	492	1	blank2r.bmp	572	3	schön	866	1	!	1319	1	!	-1	0	0	0	0	0	0	0	0	0	0	0	0	0	0	0	0	0	0	0	0	0	0	0	0	0	0	0	0	0	0
070319	14:06:00	14:10:06	246006	5.0.10.0	5_exp_RW	13	Rpleas_acq	CS_B	GWWG	JXXJ	YDDY	VKKV	BZZB	MQQM	fair	retten	spielen	ehrlich	treu	schön	faul	rächen	strafen	eitel	tot	schlecht	1	acq_USpleas_CSpleas1_RW	acq2_RW	2	3	480	0	300	300	569	50	0	1	1	blank2r.bmp	0	1	+	0	1	blank2r.bmp	492	1	GWWG	492	1	blank2r.bmp	572	2	retten	866	1	!	1319	1	!	-1	0	0	0	0	0	0	0	0	0	0	0	0	0	0	0	0	0	0	0	0	0	0	0	0	0	0	0	0	0	0
070319	14:06:00	14:10:09	248512	5.0.10.0	5_exp_RW	13	Rpleas_acq	CS_B	GWWG	JXXJ	YDDY	VKKV	BZZB	MQQM	fair	retten	spielen	ehrlich	treu	schön	faul	rächen	strafen	eitel	tot	schlecht	1	acq_USunple_CSunple2_RW	acq2_RW	2	4	480	1	300	300	467	50	0	0	1	blank2r.bmp	0	1	+	0	1	blank2r.bmp	492	1	VKKV	492	1	blank2r.bmp	572	1	eitel	866	1	FEHLER	1692	1	!	1319	1	!	1372	0	0	0	0	0	0	0	0	0	0	0	0	0	0	0	0	0	0	0	0	0	0	0	0	0	0	0
070319	14:06:00	14:10:11	250658	5.0.10.0	5_exp_RW	13	Rpleas_acq	CS_B	GWWG	JXXJ	YDDY	VKKV	BZZB	MQQM	fair	retten	spielen	ehrlich	treu	schön	faul	rächen	strafen	eitel	tot	schlecht	1	acq_USpleas_CSpleas1_RW	acq2_RW	2	5	480	0	300	300	596	50	0	1	1	blank2r.bmp	0	1	+	0	1	blank2r.bmp	492	1	GWWG	492	1	blank2r.bmp	572	1	fair	866	1	!	1319	1	!	-1	0	0	0	0	0	0	0	0	0	0	0	0	0	0	0	0	0	0	0	0	0	0	0	0	0	0	0	0	0	0
070319	14:06:00	14:10:13	252923	5.0.10.0	5_exp_RW	13	Rpleas_acq	CS_B	GWWG	JXXJ	YDDY	VKKV	BZZB	MQQM	fair	retten	spielen	ehrlich	treu	schön	faul	rächen	strafen	eitel	tot	schlecht	1	acq_USunple_CSunple1_RW	acq2_RW	2	6	480	1	300	300	465	46	0	1	1	blank2r.bmp	0	1	+	0	1	blank2r.bmp	492	1	YDDY	492	1	blank2r.bmp	572	2	rächen	866	1	!	1319	1	!	1359	0	0	0	0	0	0	0	0	0	0	0	0	0	0	0	0	0	0	0	0	0	0	0	0	0	0	0	0	0	0
070319	14:06:00	14:10:16	255256	5.0.10.0	5_exp_RW	13	Rpleas_acq	CS_B	GWWG	JXXJ	YDDY	VKKV	BZZB	MQQM	fair	retten	spielen	ehrlich	treu	schön	faul	rächen	strafen	eitel	tot	schlecht	1	acq_USpleas_CSpleas1_RW	acq2_RW	2	7	480	1	300	300	542	50	0	1	1	blank2r.bmp	0	1	+	0	1	blank2r.bmp	492	1	GWWG	492	1	blank2r.bmp	572	2	retten	866	1	!	1319	1	!	1439	0	0	0	0	0	0	0	0	0	0	0	0	0	0	0	0	0	0	0	0	0	0	0	0	0	0	0	0	0	0
070319	14:06:00	14:10:18	257495	5.0.10.0	5_exp_RW	13	Rpleas_acq	CS_B	GWWG	JXXJ	YDDY	VKKV	BZZB	MQQM	fair	retten	spielen	ehrlich	treu	schön	faul	rächen	strafen	eitel	tot	schlecht	1	acq_USpleas_CSpleas2_RW	acq2_RW	2	8	480	1	300	300	426	50	0	1	1	blank2r.bmp	0	1	+	0	1	blank2r.bmp	492	1	JXXJ	492	1	blank2r.bmp	572	1	ehrlich	866	1	!	1319	1	!	1332	0	0	0	0	0	0	0	0	0	0	0	0	0	0	0	0	0	0	0	0	0	0	0	0	0	0	0	0	0	0
070319	14:06:00	14:10:20	259734	5.0.10.0	5_exp_RW	13	Rpleas_acq	CS_B	GWWG	JXXJ	YDDY	VKKV	BZZB	MQQM	fair	retten	spielen	ehrlich	treu	schön	faul	rächen	strafen	eitel	tot	schlecht	1	acq_USunple_CSunple1_RW	acq2_RW	2	9	480	1	300	300	439	46	0	1	1	blank2r.bmp	0	1	+	0	1	blank2r.bmp	492	1	YDDY	492	1	blank2r.bmp	572	3	strafen	866	1	!	1319	1	!	1346	0	0	0	0	0	0	0	0	0	0	0	0	0	0	0	0	0	0	0	0	0	0	0	0	0	0	0	0	0	0
070319	14:06:00	14:10:23	262146	5.0.10.0	5_exp_RW	13	Rpleas_acq	CS_B	GWWG	JXXJ	YDDY	VKKV	BZZB	MQQM	fair	retten	spielen	ehrlich	treu	schön	faul	rächen	strafen	eitel	tot	schlecht	1	acq_USunple_CSunple2_RW	acq2_RW	2	10	480	0	300	300	647	46	0	1	1	blank2r.bmp	0	1	+	0	1	blank2r.bmp	492	1	VKKV	492	1	blank2r.bmp	572	3	schlecht	866	1	!	1319	1	!	-1	0	0	0	0	0	0	0	0	0	0	0	0	0	0	0	0	0	0	0	0	0	0	0	0	0	0	0	0	0	0
070319	14:06:00	14:10:25	264252	5.0.10.0	5_exp_RW	13	Rpleas_acq	CS_B	GWWG	JXXJ	YDDY	VKKV	BZZB	MQQM	fair	retten	spielen	ehrlich	treu	schön	faul	rächen	strafen	eitel	tot	schlecht	1	acq_USunple_CSunple2_RW	acq2_RW	2	11	480	0	300	300	324	46	0	1	1	blank2r.bmp	0	1	+	0	1	blank2r.bmp	492	1	VKKV	492	1	blank2r.bmp	572	3	schlecht	866	1	!	-1	1	!	-1	0	0	0	0	0	0	0	0	0	0	0	0	0	0	0	0	0	0	0	0	0	0	0	0	0	0	0	0	0	0
070319	14:06:00	14:10:40	279473	5.0.10.0	5_exp_RW	13	Rpleas_acq	CS_B	GWWG	JXXJ	YDDY	VKKV	BZZB	MQQM	fair	retten	spielen	ehrlich	treu	schön	faul	rächen	strafen	eitel	tot	schlecht	1	acq_USpleas_CSpleas1_RW	acq2_RW	2	12	480	0	300	300	13441	50	0	1	1	blank2r.bmp	0	1	+	0	1	blank2r.bmp	492	1	GWWG	492	1	blank2r.bmp	572	3	spielen	866	1	!	1319	1	!	-1	0	0	0	0	0	0	0	0	0	0	0	0	0	0	0	0	0	0	0	0	0	0	0	0	0	0	0	0	0	0
070319	14:06:00	14:10:43	282231	5.0.10.0	5_exp_RW	13	Rpleas_acq	CS_B	GWWG	JXXJ	YDDY	VKKV	BZZB	MQQM	fair	retten	spielen	ehrlich	treu	schön	faul	rächen	strafen	eitel	tot	schlecht	1	acq_USpleas_CSpleas2_RW	acq2_RW	2	13	480	0	300	300	983	50	0	1	1	blank2r.bmp	0	1	+	0	1	blank2r.bmp	492	1	JXXJ	492	1	blank2r.bmp	572	2	treu	866	1	!	1319	1	!	-1	0	0	0	0	0	0	0	0	0	0	0	0	0	0	0	0	0	0	0	0	0	0	0	0	0	0	0	0	0	0
070319	14:06:00	14:10:45	284617	5.0.10.0	5_exp_RW	13	Rpleas_acq	CS_B	GWWG	JXXJ	YDDY	VKKV	BZZB	MQQM	fair	retten	spielen	ehrlich	treu	schön	faul	rächen	strafen	eitel	tot	schlecht	1	acq_USpleas_CSpleas1_RW	acq2_RW	2	14	480	0	300	300	606	50	0	1	1	blank2r.bmp	0	1	+	0	1	blank2r.bmp	492	1	GWWG	492	1	blank2r.bmp	572	1	fair	866	1	!	1319	1	!	-1	0	0	0	0	0	0	0	0	0	0	0	0	0	0	0	0	0	0	0	0	0	0	0	0	0	0	0	0	0	0
070319	14:06:00	14:10:47	287029	5.0.10.0	5_exp_RW	13	Rpleas_acq	CS_B	GWWG	JXXJ	YDDY	VKKV	BZZB	MQQM	fair	retten	spielen	ehrlich	treu	schön	faul	rächen	strafen	eitel	tot	schlecht	1	acq_USunple_CSunple2_RW	acq2_RW	2	15	480	0	300	300	398	50	0	0	1	blank2r.bmp	0	1	+	0	1	blank2r.bmp	492	1	VKKV	492	1	blank2r.bmp	572	1	eitel	866	1	FEHLER	1599	1	!	-1	1	!	-1	0	0	0	0	0	0	0	0	0	0	0	0	0	0	0	0	0	0	0	0	0	0	0	0	0	0	0
070319	14:06:00	14:10:50	289202	5.0.10.0	5_exp_RW	13	Rpleas_acq	CS_B	GWWG	JXXJ	YDDY	VKKV	BZZB	MQQM	fair	retten	spielen	ehrlich	treu	schön	faul	rächen	strafen	eitel	tot	schlecht	1	acq_USunple_CSunple2_RW	acq2_RW	2	16	480	0	300	300	619	46	0	1	1	blank2r.bmp	0	1	+	0	1	blank2r.bmp	492	1	VKKV	492	1	blank2r.bmp	572	2	tot	866	1	!	1319	1	!	-1	0	0	0	0	0	0	0	0	0	0	0	0	0	0	0	0	0	0	0	0	0	0	0	0	0	0	0	0	0	0
070319	14:06:00	14:10:52	291454	5.0.10.0	5_exp_RW	13	Rpleas_acq	CS_B	GWWG	JXXJ	YDDY	VKKV	BZZB	MQQM	fair	retten	spielen	ehrlich	treu	schön	faul	rächen	strafen	eitel	tot	schlecht	1	acq_USunple_CSunple1_RW	acq2_RW	2	17	480	1	300	300	426	46	0	1	1	blank2r.bmp	0	1	+	0	1	blank2r.bmp	492	1	YDDY	492	1	blank2r.bmp	572	1	faul	866	1	!	1319	1	!	1332	0	0	0	0	0	0	0	0	0	0	0	0	0	0	0	0	0	0	0	0	0	0	0	0	0	0	0	0	0	0
070319	14:06:00	14:10:54	293947	5.0.10.0	5_exp_RW	13	Rpleas_acq	CS_B	GWWG	JXXJ	YDDY	VKKV	BZZB	MQQM	fair	retten	spielen	ehrlich	treu	schön	faul	rächen	strafen	eitel	tot	schlecht	1	acq_USpleas_CSpleas1_RW	acq2_RW	2	18	480	0	300	300	729	50	0	1	1	blank2r.bmp	0	1	+	0	1	blank2r.bmp	492	1	GWWG	492	1	blank2r.bmp	572	2	retten	866	1	!	1319	1	!	-1	0	0	0	0	0	0	0	0	0	0	0	0	0	0	0	0	0	0	0	0	0	0	0	0	0	0	0	0	0	0
070319	14:06:00	14:10:57	296266	5.0.10.0	5_exp_RW	13	Rpleas_acq	CS_B	GWWG	JXXJ	YDDY	VKKV	BZZB	MQQM	fair	retten	spielen	ehrlich	treu	schön	faul	rächen	strafen	eitel	tot	schlecht	1	acq_USpleas_CSpleas2_RW	acq2_RW	2	19	480	1	300	300	512	50	0	1	1	blank2r.bmp	0	1	+	0	1	blank2r.bmp	492	1	JXXJ	492	1	blank2r.bmp	572	3	schön	866	1	!	1319	1	!	1412	0	0	0	0	0	0	0	0	0	0	0	0	0	0	0	0	0	0	0	0	0	0	0	0	0	0	0	0	0	0
070319	14:06:00	14:10:59	298651	5.0.10.0	5_exp_RW	13	Rpleas_acq	CS_B	GWWG	JXXJ	YDDY	VKKV	BZZB	MQQM	fair	retten	spielen	ehrlich	treu	schön	faul	rächen	strafen	eitel	tot	schlecht	1	acq_USpleas_CSpleas2_RW	acq2_RW	2	20	480	0	300	300	616	50	0	1	1	blank2r.bmp	0	1	+	0	1	blank2r.bmp	492	1	JXXJ	492	1	blank2r.bmp	572	1	ehrlich	866	1	!	1319	1	!	-1	0	0	0	0	0	0	0	0	0	0	0	0	0	0	0	0	0	0	0	0	0	0	0	0	0	0	0	0	0	0
070319	14:06:00	14:11:01	300890	5.0.10.0	5_exp_RW	13	Rpleas_acq	CS_B	GWWG	JXXJ	YDDY	VKKV	BZZB	MQQM	fair	retten	spielen	ehrlich	treu	schön	faul	rächen	strafen	eitel	tot	schlecht	1	acq_USunple_CSunple1_RW	acq2_RW	2	21	480	1	300	300	434	46	0	1	1	blank2r.bmp	0	1	+	0	1	blank2r.bmp	492	1	YDDY	492	1	blank2r.bmp	572	2	rächen	866	1	!	1319	1	!	1332	0	0	0	0	0	0	0	0	0	0	0	0	0	0	0	0	0	0	0	0	0	0	0	0	0	0	0	0	0	0
070319	14:06:00	14:11:03	303023	5.0.10.0	5_exp_RW	13	Rpleas_acq	CS_B	GWWG	JXXJ	YDDY	VKKV	BZZB	MQQM	fair	retten	spielen	ehrlich	treu	schön	faul	rächen	strafen	eitel	tot	schlecht	1	acq_USpleas_CSpleas2_RW	acq2_RW	2	22	480	0	300	300	365	50	0	1	1	blank2r.bmp	0	1	+	0	1	blank2r.bmp	492	1	JXXJ	492	1	blank2r.bmp	572	2	treu	866	1	!	-1	1	!	-1	0	0	0	0	0	0	0	0	0	0	0	0	0	0	0	0	0	0	0	0	0	0	0	0	0	0	0	0	0	0
070319	14:06:00	14:11:09	308407	5.0.10.0	5_exp_RW	13	Rpleas_acq	CS_B	GWWG	JXXJ	YDDY	VKKV	BZZB	MQQM	fair	retten	spielen	ehrlich	treu	schön	faul	rächen	strafen	eitel	tot	schlecht	1	acq_USunple_CSunple1_RW	acq2_RW	2	23	480	0	300	300	3358	50	0	0	1	blank2r.bmp	0	1	+	0	1	blank2r.bmp	492	1	YDDY	492	1	blank2r.bmp	572	1	faul	866	1	FEHLER	4571	1	!	1319	1	!	-1	0	0	0	0	0	0	0	0	0	0	0	0	0	0	0	0	0	0	0	0	0	0	0	0	0	0	0
070319	14:06:00	14:11:11	310593	5.0.10.0	5_exp_RW	13	Rpleas_acq	CS_B	GWWG	JXXJ	YDDY	VKKV	BZZB	MQQM	fair	retten	spielen	ehrlich	treu	schön	faul	rächen	strafen	eitel	tot	schlecht	1	acq_USunple_CSunple2_RW	acq2_RW	2	24	480	0	300	300	628	46	0	1	1	blank2r.bmp	0	1	+	0	1	blank2r.bmp	492	1	VKKV	492	1	blank2r.bmp	572	1	eitel	866	1	!	1319	1	!	-1	0	0	0	0	0	0	0	0	0	0	0	0	0	0	0	0	0	0	0	0	0	0	0	0	0	0	0	0	0	0
070319	14:06:00	14:11:30	329519	5.0.10.0	5_exp_RW	13	Rpleas_acq	CS_B	GWWG	JXXJ	YDDY	VKKV	BZZB	MQQM	fair	retten	spielen	ehrlich	treu	schön	faul	rächen	strafen	eitel	tot	schlecht	1	acq_USpleas_CSpleas1_RW	acq3_RW	3	1	453	1	300	300	464	50	0	1	1	blank2r.bmp	0	1	+	0	1	blank2r.bmp	492	1	GWWG	492	1	blank2r.bmp	572	3	spielen	866	1	!	1292	1	!	1359	0	0	0	0	0	0	0	0	0	0	0	0	0	0	0	0	0	0	0	0	0	0	0	0	0	0	0	0	0	0
070319	14:06:00	14:11:32	331945	5.0.10.0	5_exp_RW	13	Rpleas_acq	CS_B	GWWG	JXXJ	YDDY	VKKV	BZZB	MQQM	fair	retten	spielen	ehrlich	treu	schön	faul	rächen	strafen	eitel	tot	schlecht	1	acq_USunple_CSunple2_RW	acq3_RW	3	2	453	0	300	300	662	46	0	1	1	blank2r.bmp	0	1	+	0	1	blank2r.bmp	492	1	VKKV	492	1	blank2r.bmp	572	3	schlecht	866	1	!	1292	1	!	-1	0	0	0	0	0	0	0	0	0	0	0	0	0	0	0	0	0	0	0	0	0	0	0	0	0	0	0	0	0	0
070319	14:06:00	14:11:35	334264	5.0.10.0	5_exp_RW	13	Rpleas_acq	CS_B	GWWG	JXXJ	YDDY	VKKV	BZZB	MQQM	fair	retten	spielen	ehrlich	treu	schön	faul	rächen	strafen	eitel	tot	schlecht	1	acq_USunple_CSunple1_RW	acq3_RW	3	3	453	0	300	300	532	46	0	1	1	blank2r.bmp	0	1	+	0	1	blank2r.bmp	492	1	YDDY	492	1	blank2r.bmp	572	3	strafen	866	1	!	1292	1	!	-1	0	0	0	0	0	0	0	0	0	0	0	0	0	0	0	0	0	0	0	0	0	0	0	0	0	0	0	0	0	0
070319	14:06:00	14:11:37	336409	5.0.10.0	5_exp_RW	13	Rpleas_acq	CS_B	GWWG	JXXJ	YDDY	VKKV	BZZB	MQQM	fair	retten	spielen	ehrlich	treu	schön	faul	rächen	strafen	eitel	tot	schlecht	1	acq_USpleas_CSpleas2_RW	acq3_RW	3	4	453	0	300	300	362	50	0	1	1	blank2r.bmp	0	1	+	0	1	blank2r.bmp	492	1	JXXJ	492	1	blank2r.bmp	572	3	schön	866	1	!	-1	1	!	-1	0	0	0	0	0	0	0	0	0	0	0	0	0	0	0	0	0	0	0	0	0	0	0	0	0	0	0	0	0	0
070319	14:06:00	14:11:39	338768	5.0.10.0	5_exp_RW	13	Rpleas_acq	CS_B	GWWG	JXXJ	YDDY	VKKV	BZZB	MQQM	fair	retten	spielen	ehrlich	treu	schön	faul	rächen	strafen	eitel	tot	schlecht	1	acq_USpleas_CSpleas2_RW	acq3_RW	3	5	453	0	300	300	575	50	0	1	1	blank2r.bmp	0	1	+	0	1	blank2r.bmp	492	1	JXXJ	492	1	blank2r.bmp	572	1	ehrlich	866	1	!	1292	1	!	-1	0	0	0	0	0	0	0	0	0	0	0	0	0	0	0	0	0	0	0	0	0	0	0	0	0	0	0	0	0	0
070319	14:06:00	14:11:41	340888	5.0.10.0	5_exp_RW	13	Rpleas_acq	CS_B	GWWG	JXXJ	YDDY	VKKV	BZZB	MQQM	fair	retten	spielen	ehrlich	treu	schön	faul	rächen	strafen	eitel	tot	schlecht	1	acq_USpleas_CSpleas2_RW	acq3_RW	3	6	453	0	300	300	336	50	0	1	1	blank2r.bmp	0	1	+	0	1	blank2r.bmp	492	1	JXXJ	492	1	blank2r.bmp	572	1	ehrlich	866	1	!	-1	1	!	-1	0	0	0	0	0	0	0	0	0	0	0	0	0	0	0	0	0	0	0	0	0	0	0	0	0	0	0	0	0	0
070319	14:06:00	14:11:44	343193	5.0.10.0	5_exp_RW	13	Rpleas_acq	CS_B	GWWG	JXXJ	YDDY	VKKV	BZZB	MQQM	fair	retten	spielen	ehrlich	treu	schön	faul	rächen	strafen	eitel	tot	schlecht	1	acq_USpleas_CSpleas1_RW	acq3_RW	3	7	453	1	300	300	503	50	0	1	1	blank2r.bmp	0	1	+	0	1	blank2r.bmp	492	1	GWWG	492	1	blank2r.bmp	572	1	fair	866	1	!	1292	1	!	1399	0	0	0	0	0	0	0	0	0	0	0	0	0	0	0	0	0	0	0	0	0	0	0	0	0	0	0	0	0	0
070319	14:06:00	14:11:46	345606	5.0.10.0	5_exp_RW	13	Rpleas_acq	CS_B	GWWG	JXXJ	YDDY	VKKV	BZZB	MQQM	fair	retten	spielen	ehrlich	treu	schön	faul	rächen	strafen	eitel	tot	schlecht	1	acq_USpleas_CSpleas1_RW	acq3_RW	3	8	453	0	300	300	641	50	0	1	1	blank2r.bmp	0	1	+	0	1	blank2r.bmp	492	1	GWWG	492	1	blank2r.bmp	572	2	retten	866	1	!	1292	1	!	-1	0	0	0	0	0	0	0	0	0	0	0	0	0	0	0	0	0	0	0	0	0	0	0	0	0	0	0	0	0	0
070319	14:06:00	14:11:48	347845	5.0.10.0	5_exp_RW	13	Rpleas_acq	CS_B	GWWG	JXXJ	YDDY	VKKV	BZZB	MQQM	fair	retten	spielen	ehrlich	treu	schön	faul	rächen	strafen	eitel	tot	schlecht	1	acq_USunple_CSunple1_RW	acq3_RW	3	9	453	1	300	300	435	46	0	1	1	blank2r.bmp	0	1	+	0	1	blank2r.bmp	492	1	YDDY	492	1	blank2r.bmp	572	2	rächen	866	1	!	1292	1	!	1332	0	0	0	0	0	0	0	0	0	0	0	0	0	0	0	0	0	0	0	0	0	0	0	0	0	0	0	0	0	0
070319	14:06:00	14:11:51	350124	5.0.10.0	5_exp_RW	13	Rpleas_acq	CS_B	GWWG	JXXJ	YDDY	VKKV	BZZB	MQQM	fair	retten	spielen	ehrlich	treu	schön	faul	rächen	strafen	eitel	tot	schlecht	1	acq_USpleas_CSpleas2_RW	acq3_RW	3	10	453	1	300	300	482	50	0	1	1	blank2r.bmp	0	1	+	0	1	blank2r.bmp	492	1	JXXJ	492	1	blank2r.bmp	572	2	treu	866	1	!	1292	1	!	1386	0	0	0	0	0	0	0	0	0	0	0	0	0	0	0	0	0	0	0	0	0	0	0	0	0	0	0	0	0	0
070319	14:06:00	14:11:53	352443	5.0.10.0	5_exp_RW	13	Rpleas_acq	CS_B	GWWG	JXXJ	YDDY	VKKV	BZZB	MQQM	fair	retten	spielen	ehrlich	treu	schön	faul	rächen	strafen	eitel	tot	schlecht	1	acq_USpleas_CSpleas1_RW	acq3_RW	3	11	453	0	300	300	550	50	0	1	1	blank2r.bmp	0	1	+	0	1	blank2r.bmp	492	1	GWWG	492	1	blank2r.bmp	572	3	spielen	866	1	!	1292	1	!	-1	0	0	0	0	0	0	0	0	0	0	0	0	0	0	0	0	0	0	0	0	0	0	0	0	0	0	0	0	0	0
070319	14:06:00	14:11:55	354669	5.0.10.0	5_exp_RW	13	Rpleas_acq	CS_B	GWWG	JXXJ	YDDY	VKKV	BZZB	MQQM	fair	retten	spielen	ehrlich	treu	schön	faul	rächen	strafen	eitel	tot	schlecht	1	acq_USpleas_CSpleas1_RW	acq3_RW	3	12	453	1	300	300	399	50	0	1	1	blank2r.bmp	0	1	+	0	1	blank2r.bmp	492	1	GWWG	492	1	blank2r.bmp	572	1	fair	866	1	!	1292	1	!	1306	0	0	0	0	0	0	0	0	0	0	0	0	0	0	0	0	0	0	0	0	0	0	0	0	0	0	0	0	0	0
070319	14:06:00	14:11:57	356788	5.0.10.0	5_exp_RW	13	Rpleas_acq	CS_B	GWWG	JXXJ	YDDY	VKKV	BZZB	MQQM	fair	retten	spielen	ehrlich	treu	schön	faul	rächen	strafen	eitel	tot	schlecht	1	acq_USunple_CSunple2_RW	acq3_RW	3	13	453	0	300	300	346	46	0	1	1	blank2r.bmp	0	1	+	0	1	blank2r.bmp	492	1	VKKV	492	1	blank2r.bmp	572	2	tot	866	1	!	-1	1	!	-1	0	0	0	0	0	0	0	0	0	0	0	0	0	0	0	0	0	0	0	0	0	0	0	0	0	0	0	0	0	0
070319	14:06:00	14:11:59	359027	5.0.10.0	5_exp_RW	13	Rpleas_acq	CS_B	GWWG	JXXJ	YDDY	VKKV	BZZB	MQQM	fair	retten	spielen	ehrlich	treu	schön	faul	rächen	strafen	eitel	tot	schlecht	1	acq_USpleas_CSpleas2_RW	acq3_RW	3	14	453	1	300	300	430	50	0	1	1	blank2r.bmp	0	1	+	0	1	blank2r.bmp	492	1	JXXJ	492	1	blank2r.bmp	572	3	schön	866	1	!	1292	1	!	1332	0	0	0	0	0	0	0	0	0	0	0	0	0	0	0	0	0	0	0	0	0	0	0	0	0	0	0	0	0	0
070319	14:06:00	14:12:02	361279	5.0.10.0	5_exp_RW	13	Rpleas_acq	CS_B	GWWG	JXXJ	YDDY	VKKV	BZZB	MQQM	fair	retten	spielen	ehrlich	treu	schön	faul	rächen	strafen	eitel	tot	schlecht	1	acq_USunple_CSunple1_RW	acq3_RW	3	15	453	1	300	300	455	46	0	1	1	blank2r.bmp	0	1	+	0	1	blank2r.bmp	492	1	YDDY	492	1	blank2r.bmp	572	1	faul	866	1	!	1292	1	!	1359	0	0	0	0	0	0	0	0	0	0	0	0	0	0	0	0	0	0	0	0	0	0	0	0	0	0	0	0	0	0
070319	14:06:00	14:12:04	363585	5.0.10.0	5_exp_RW	13	Rpleas_acq	CS_B	GWWG	JXXJ	YDDY	VKKV	BZZB	MQQM	fair	retten	spielen	ehrlich	treu	schön	faul	rächen	strafen	eitel	tot	schlecht	1	acq_USunple_CSunple1_RW	acq3_RW	3	16	453	0	300	300	537	46	0	1	1	blank2r.bmp	0	1	+	0	1	blank2r.bmp	492	1	YDDY	492	1	blank2r.bmp	572	3	strafen	866	1	!	1292	1	!	-1	0	0	0	0	0	0	0	0	0	0	0	0	0	0	0	0	0	0	0	0	0	0	0	0	0	0	0	0	0	0
070319	14:06:00	14:12:06	365957	5.0.10.0	5_exp_RW	13	Rpleas_acq	CS_B	GWWG	JXXJ	YDDY	VKKV	BZZB	MQQM	fair	retten	spielen	ehrlich	treu	schön	faul	rächen	strafen	eitel	tot	schlecht	1	acq_USunple_CSunple1_RW	acq3_RW	3	17	453	0	300	300	593	46	0	1	1	blank2r.bmp	0	1	+	0	1	blank2r.bmp	492	1	YDDY	492	1	blank2r.bmp	572	2	rächen	866	1	!	1292	1	!	-1	0	0	0	0	0	0	0	0	0	0	0	0	0	0	0	0	0	0	0	0	0	0	0	0	0	0	0	0	0	0
070319	14:06:00	14:12:08	368023	5.0.10.0	5_exp_RW	13	Rpleas_acq	CS_B	GWWG	JXXJ	YDDY	VKKV	BZZB	MQQM	fair	retten	spielen	ehrlich	treu	schön	faul	rächen	strafen	eitel	tot	schlecht	1	acq_USpleas_CSpleas2_RW	acq3_RW	3	18	453	0	300	300	287	50	0	1	1	blank2r.bmp	0	1	+	0	1	blank2r.bmp	492	1	JXXJ	492	1	blank2r.bmp	572	3	schön	866	1	!	-1	1	!	-1	0	0	0	0	0	0	0	0	0	0	0	0	0	0	0	0	0	0	0	0	0	0	0	0	0	0	0	0	0	0
070319	14:06:00	14:12:11	370449	5.0.10.0	5_exp_RW	13	Rpleas_acq	CS_B	GWWG	JXXJ	YDDY	VKKV	BZZB	MQQM	fair	retten	spielen	ehrlich	treu	schön	faul	rächen	strafen	eitel	tot	schlecht	1	acq_USunple_CSunple2_RW	acq3_RW	3	19	453	1	300	300	399	50	0	0	1	blank2r.bmp	0	1	+	0	1	blank2r.bmp	492	1	VKKV	492	1	blank2r.bmp	572	1	eitel	866	1	FEHLER	1625	1	!	1292	1	!	1306	0	0	0	0	0	0	0	0	0	0	0	0	0	0	0	0	0	0	0	0	0	0	0	0	0	0	0
070319	14:06:00	14:12:13	372621	5.0.10.0	5_exp_RW	13	Rpleas_acq	CS_B	GWWG	JXXJ	YDDY	VKKV	BZZB	MQQM	fair	retten	spielen	ehrlich	treu	schön	faul	rächen	strafen	eitel	tot	schlecht	1	acq_USunple_CSunple2_RW	acq3_RW	3	20	453	0	300	300	621	46	0	1	1	blank2r.bmp	0	1	+	0	1	blank2r.bmp	492	1	VKKV	492	1	blank2r.bmp	572	2	tot	866	1	!	1292	1	!	-1	0	0	0	0	0	0	0	0	0	0	0	0	0	0	0	0	0	0	0	0	0	0	0	0	0	0	0	0	0	0
070319	14:06:00	14:12:15	374860	5.0.10.0	5_exp_RW	13	Rpleas_acq	CS_B	GWWG	JXXJ	YDDY	VKKV	BZZB	MQQM	fair	retten	spielen	ehrlich	treu	schön	faul	rächen	strafen	eitel	tot	schlecht	1	acq_USunple_CSunple1_RW	acq3_RW	3	21	453	1	300	300	426	46	0	1	1	blank2r.bmp	0	1	+	0	1	blank2r.bmp	492	1	YDDY	492	1	blank2r.bmp	572	2	rächen	866	1	!	1292	1	!	1332	0	0	0	0	0	0	0	0	0	0	0	0	0	0	0	0	0	0	0	0	0	0	0	0	0	0	0	0	0	0
070319	14:06:00	14:12:18	377113	5.0.10.0	5_exp_RW	13	Rpleas_acq	CS_B	GWWG	JXXJ	YDDY	VKKV	BZZB	MQQM	fair	retten	spielen	ehrlich	treu	schön	faul	rächen	strafen	eitel	tot	schlecht	1	acq_USunple_CSunple2_RW	acq3_RW	3	22	453	1	300	300	455	46	0	1	1	blank2r.bmp	0	1	+	0	1	blank2r.bmp	492	1	VKKV	492	1	blank2r.bmp	572	3	schlecht	866	1	!	1292	1	!	1359	0	0	0	0	0	0	0	0	0	0	0	0	0	0	0	0	0	0	0	0	0	0	0	0	0	0	0	0	0	0
070319	14:06:00	14:12:20	379485	5.0.10.0	5_exp_RW	13	Rpleas_acq	CS_B	GWWG	JXXJ	YDDY	VKKV	BZZB	MQQM	fair	retten	spielen	ehrlich	treu	schön	faul	rächen	strafen	eitel	tot	schlecht	1	acq_USunple_CSunple2_RW	acq3_RW	3	23	453	0	300	300	602	46	0	1	1	blank2r.bmp	0	1	+	0	1	blank2r.bmp	492	1	VKKV	492	1	blank2r.bmp	572	1	eitel	866	1	!	1292	1	!	-1	0	0	0	0	0	0	0	0	0	0	0	0	0	0	0	0	0	0	0	0	0	0	0	0	0	0	0	0	0	0
070319	14:06:00	14:12:22	381804	5.0.10.0	5_exp_RW	13	Rpleas_acq	CS_B	GWWG	JXXJ	YDDY	VKKV	BZZB	MQQM	fair	retten	spielen	ehrlich	treu	schön	faul	rächen	strafen	eitel	tot	schlecht	1	acq_USpleas_CSpleas1_RW	acq3_RW	3	24	453	0	300	300	532	50	0	1	1	blank2r.bmp	0	1	+	0	1	blank2r.bmp	492	1	GWWG	492	1	blank2r.bmp	572	2	retten	866	1	!	1292	1	!	-1	0	0	0	0	0	0	0	0	0	0	0	0	0	0	0	0	0	0	0	0	0	0	0	0	0	0	0	0	0	0
070319	14:06:00	14:12:45	404555	5.0.10.0	5_exp_RW	13	Rpleas_acq	CS_B	GWWG	JXXJ	YDDY	VKKV	BZZB	MQQM	fair	retten	spielen	ehrlich	treu	schön	faul	rächen	strafen	eitel	tot	schlecht	1	acq_USunple_CSunple1_RW	acq4567_RW	4	1	400	1	300	300	461	46	0	1	1	blank2r.bmp	0	1	+	0	1	blank2r.bmp	492	1	YDDY	492	1	blank2r.bmp	572	1	faul	866	1	!	1239	1	!	1359	0	0	0	0	0	0	0	0	0	0	0	0	0	0	0	0	0	0	0	0	0	0	0	0	0	0	0	0	0	0
070319	14:06:00	14:12:47	406754	5.0.10.0	5_exp_RW	13	Rpleas_acq	CS_B	GWWG	JXXJ	YDDY	VKKV	BZZB	MQQM	fair	retten	spielen	ehrlich	treu	schön	faul	rächen	strafen	eitel	tot	schlecht	1	acq_USunple_CSunple1_RW	acq4567_RW	4	2	400	1	300	300	403	46	0	1	1	blank2r.bmp	0	1	+	0	1	blank2r.bmp	492	1	YDDY	492	1	blank2r.bmp	572	3	strafen	866	1	!	1239	1	!	1306	0	0	0	0	0	0	0	0	0	0	0	0	0	0	0	0	0	0	0	0	0	0	0	0	0	0	0	0	0	0
070319	14:06:00	14:12:49	409020	5.0.10.0	5_exp_RW	13	Rpleas_acq	CS_B	GWWG	JXXJ	YDDY	VKKV	BZZB	MQQM	fair	retten	spielen	ehrlich	treu	schön	faul	rächen	strafen	eitel	tot	schlecht	1	acq_USpleas_CSpleas2_RW	acq4567_RW	4	3	400	0	300	300	503	50	0	1	1	blank2r.bmp	0	1	+	0	1	blank2r.bmp	492	1	JXXJ	492	1	blank2r.bmp	572	2	treu	866	1	!	1239	1	!	-1	0	0	0	0	0	0	0	0	0	0	0	0	0	0	0	0	0	0	0	0	0	0	0	0	0	0	0	0	0	0
070319	14:06:00	14:12:52	411286	5.0.10.0	5_exp_RW	13	Rpleas_acq	CS_B	GWWG	JXXJ	YDDY	VKKV	BZZB	MQQM	fair	retten	spielen	ehrlich	treu	schön	faul	rächen	strafen	eitel	tot	schlecht	1	acq_USunple_CSunple1_RW	acq4567_RW	4	4	400	1	300	300	456	46	0	1	1	blank2r.bmp	0	1	+	0	1	blank2r.bmp	492	1	YDDY	492	1	blank2r.bmp	572	2	rächen	866	1	!	1239	1	!	1359	0	0	0	0	0	0	0	0	0	0	0	0	0	0	0	0	0	0	0	0	0	0	0	0	0	0	0	0	0	0
070319	14:06:00	14:12:54	413551	5.0.10.0	5_exp_RW	13	Rpleas_acq	CS_B	GWWG	JXXJ	YDDY	VKKV	BZZB	MQQM	fair	retten	spielen	ehrlich	treu	schön	faul	rächen	strafen	eitel	tot	schlecht	1	acq_USpleas_CSpleas1_RW	acq4567_RW	4	5	400	0	300	300	482	50	0	1	1	blank2r.bmp	0	1	+	0	1	blank2r.bmp	492	1	GWWG	492	1	blank2r.bmp	572	3	spielen	866	1	!	1239	1	!	-1	0	0	0	0	0	0	0	0	0	0	0	0	0	0	0	0	0	0	0	0	0	0	0	0	0	0	0	0	0	0
070319	14:06:00	14:12:56	415871	5.0.10.0	5_exp_RW	13	Rpleas_acq	CS_B	GWWG	JXXJ	YDDY	VKKV	BZZB	MQQM	fair	retten	spielen	ehrlich	treu	schön	faul	rächen	strafen	eitel	tot	schlecht	1	acq_USunple_CSunple1_RW	acq4567_RW	4	6	400	0	300	300	543	46	0	1	1	blank2r.bmp	0	1	+	0	1	blank2r.bmp	492	1	YDDY	492	1	blank2r.bmp	572	3	strafen	866	1	!	1239	1	!	-1	0	0	0	0	0	0	0	0	0	0	0	0	0	0	0	0	0	0	0	0	0	0	0	0	0	0	0	0	0	0
070319	14:06:00	14:12:59	418110	5.0.10.0	5_exp_RW	13	Rpleas_acq	CS_B	GWWG	JXXJ	YDDY	VKKV	BZZB	MQQM	fair	retten	spielen	ehrlich	treu	schön	faul	rächen	strafen	eitel	tot	schlecht	1	acq_USpleas_CSpleas2_RW	acq4567_RW	4	7	400	1	300	300	435	50	0	1	1	blank2r.bmp	0	1	+	0	1	blank2r.bmp	492	1	JXXJ	492	1	blank2r.bmp	572	1	ehrlich	866	1	!	1239	1	!	1332	0	0	0	0	0	0	0	0	0	0	0	0	0	0	0	0	0	0	0	0	0	0	0	0	0	0	0	0	0	0
070319	14:06:00	14:13:01	420362	5.0.10.0	5_exp_RW	13	Rpleas_acq	CS_B	GWWG	JXXJ	YDDY	VKKV	BZZB	MQQM	fair	retten	spielen	ehrlich	treu	schön	faul	rächen	strafen	eitel	tot	schlecht	1	acq_USunple_CSunple2_RW	acq4567_RW	4	8	400	1	300	300	462	46	0	1	1	blank2r.bmp	0	1	+	0	1	blank2r.bmp	492	1	VKKV	492	1	blank2r.bmp	572	3	schlecht	866	1	!	1239	1	!	1359	0	0	0	0	0	0	0	0	0	0	0	0	0	0	0	0	0	0	0	0	0	0	0	0	0	0	0	0	0	0
070319	14:06:00	14:13:03	422614	5.0.10.0	5_exp_RW	13	Rpleas_acq	CS_B	GWWG	JXXJ	YDDY	VKKV	BZZB	MQQM	fair	retten	spielen	ehrlich	treu	schön	faul	rächen	strafen	eitel	tot	schlecht	1	acq_USpleas_CSpleas1_RW	acq4567_RW	4	9	400	1	300	300	444	50	0	1	1	blank2r.bmp	0	1	+	0	1	blank2r.bmp	492	1	GWWG	492	1	blank2r.bmp	572	1	fair	866	1	!	1239	1	!	1346	0	0	0	0	0	0	0	0	0	0	0	0	0	0	0	0	0	0	0	0	0	0	0	0	0	0	0	0	0	0
070319	14:06:00	14:13:05	424894	5.0.10.0	5_exp_RW	13	Rpleas_acq	CS_B	GWWG	JXXJ	YDDY	VKKV	BZZB	MQQM	fair	retten	spielen	ehrlich	treu	schön	faul	rächen	strafen	eitel	tot	schlecht	1	acq_USpleas_CSpleas2_RW	acq4567_RW	4	10	400	0	300	300	511	50	0	1	1	blank2r.bmp	0	1	+	0	1	blank2r.bmp	492	1	JXXJ	492	1	blank2r.bmp	572	1	ehrlich	866	1	!	1239	1	!	-1	0	0	0	0	0	0	0	0	0	0	0	0	0	0	0	0	0	0	0	0	0	0	0	0	0	0	0	0	0	0
070319	14:06:00	14:13:08	427199	5.0.10.0	5_exp_RW	13	Rpleas_acq	CS_B	GWWG	JXXJ	YDDY	VKKV	BZZB	MQQM	fair	retten	spielen	ehrlich	treu	schön	faul	rächen	strafen	eitel	tot	schlecht	1	acq_USpleas_CSpleas1_RW	acq4567_RW	4	11	400	0	300	300	522	50	0	1	1	blank2r.bmp	0	1	+	0	1	blank2r.bmp	492	1	GWWG	492	1	blank2r.bmp	572	2	retten	866	1	!	1239	1	!	-1	0	0	0	0	0	0	0	0	0	0	0	0	0	0	0	0	0	0	0	0	0	0	0	0	0	0	0	0	0	0
070319	14:06:00	14:13:10	429372	5.0.10.0	5_exp_RW	13	Rpleas_acq	CS_B	GWWG	JXXJ	YDDY	VKKV	BZZB	MQQM	fair	retten	spielen	ehrlich	treu	schön	faul	rächen	strafen	eitel	tot	schlecht	1	acq_USunple_CSunple2_RW	acq4567_RW	4	12	400	1	300	300	346	46	0	1	1	blank2r.bmp	0	1	+	0	1	blank2r.bmp	492	1	VKKV	492	1	blank2r.bmp	572	2	tot	866	1	!	1239	1	!	1252	0	0	0	0	0	0	0	0	0	0	0	0	0	0	0	0	0	0	0	0	0	0	0	0	0	0	0	0	0	0
070319	14:06:00	14:13:12	431464	5.0.10.0	5_exp_RW	13	Rpleas_acq	CS_B	GWWG	JXXJ	YDDY	VKKV	BZZB	MQQM	fair	retten	spielen	ehrlich	treu	schön	faul	rächen	strafen	eitel	tot	schlecht	1	acq_USunple_CSunple2_RW	acq4567_RW	4	13	400	0	300	300	328	50	0	0	1	blank2r.bmp	0	1	+	0	1	blank2r.bmp	492	1	VKKV	492	1	blank2r.bmp	572	2	tot	866	1	!	-1	1	!	-1	0	0	0	0	0	0	0	0	0	0	0	0	0	0	0	0	0	0	0	0	0	0	0	0	0	0	0	0	0	0
070319	14:06:00	14:13:14	433810	5.0.10.0	5_exp_RW	13	Rpleas_acq	CS_B	GWWG	JXXJ	YDDY	VKKV	BZZB	MQQM	fair	retten	spielen	ehrlich	treu	schön	faul	rächen	strafen	eitel	tot	schlecht	1	acq_USunple_CSunple2_RW	acq4567_RW	4	14	400	0	300	300	559	46	0	1	1	blank2r.bmp	0	1	+	0	1	blank2r.bmp	492	1	VKKV	492	1	blank2r.bmp	572	3	schlecht	866	1	!	1239	1	!	-1	0	0	0	0	0	0	0	0	0	0	0	0	0	0	0	0	0	0	0	0	0	0	0	0	0	0	0	0	0	0
070319	14:06:00	14:13:17	436076	5.0.10.0	5_exp_RW	13	Rpleas_acq	CS_B	GWWG	JXXJ	YDDY	VKKV	BZZB	MQQM	fair	retten	spielen	ehrlich	treu	schön	faul	rächen	strafen	eitel	tot	schlecht	1	acq_USunple_CSunple2_RW	acq4567_RW	4	15	400	1	300	300	455	50	0	0	1	blank2r.bmp	0	1	+	0	1	blank2r.bmp	492	1	VKKV	492	1	blank2r.bmp	572	1	eitel	866	1	!	1239	1	!	1359	0	0	0	0	0	0	0	0	0	0	0	0	0	0	0	0	0	0	0	0	0	0	0	0	0	0	0	0	0	0
070319	14:06:00	14:13:19	438328	5.0.10.0	5_exp_RW	13	Rpleas_acq	CS_B	GWWG	JXXJ	YDDY	VKKV	BZZB	MQQM	fair	retten	spielen	ehrlich	treu	schön	faul	rächen	strafen	eitel	tot	schlecht	1	acq_USpleas_CSpleas1_RW	acq4567_RW	4	16	400	1	300	300	463	50	0	1	1	blank2r.bmp	0	1	+	0	1	blank2r.bmp	492	1	GWWG	492	1	blank2r.bmp	572	3	spielen	866	1	!	1239	1	!	1359	0	0	0	0	0	0	0	0	0	0	0	0	0	0	0	0	0	0	0	0	0	0	0	0	0	0	0	0	0	0
070319	14:06:00	14:13:21	440500	5.0.10.0	5_exp_RW	13	Rpleas_acq	CS_B	GWWG	JXXJ	YDDY	VKKV	BZZB	MQQM	fair	retten	spielen	ehrlich	treu	schön	faul	rächen	strafen	eitel	tot	schlecht	1	acq_USpleas_CSpleas2_RW	acq4567_RW	4	17	400	1	300	300	378	50	0	1	1	blank2r.bmp	0	1	+	0	1	blank2r.bmp	492	1	JXXJ	492	1	blank2r.bmp	572	3	schön	866	1	!	1239	1	!	1279	0	0	0	0	0	0	0	0	0	0	0	0	0	0	0	0	0	0	0	0	0	0	0	0	0	0	0	0	0	0
070319	14:06:00	14:13:23	442913	5.0.10.0	5_exp_RW	13	Rpleas_acq	CS_B	GWWG	JXXJ	YDDY	VKKV	BZZB	MQQM	fair	retten	spielen	ehrlich	treu	schön	faul	rächen	strafen	eitel	tot	schlecht	1	acq_USpleas_CSpleas1_RW	acq4567_RW	4	18	400	0	300	300	644	46	0	0	1	blank2r.bmp	0	1	+	0	1	blank2r.bmp	492	1	GWWG	492	1	blank2r.bmp	572	1	fair	866	1	!	1239	1	!	-1	0	0	0	0	0	0	0	0	0	0	0	0	0	0	0	0	0	0	0	0	0	0	0	0	0	0	0	0	0	0
070319	14:06:00	14:13:26	445219	5.0.10.0	5_exp_RW	13	Rpleas_acq	CS_B	GWWG	JXXJ	YDDY	VKKV	BZZB	MQQM	fair	retten	spielen	ehrlich	treu	schön	faul	rächen	strafen	eitel	tot	schlecht	1	acq_USunple_CSunple1_RW	acq4567_RW	4	19	400	0	300	300	523	46	0	1	1	blank2r.bmp	0	1	+	0	1	blank2r.bmp	492	1	YDDY	492	1	blank2r.bmp	572	1	faul	866	1	!	1239	1	!	-1	0	0	0	0	0	0	0	0	0	0	0	0	0	0	0	0	0	0	0	0	0	0	0	0	0	0	0	0	0	0
070319	14:06:00	14:13:28	447511	5.0.10.0	5_exp_RW	13	Rpleas_acq	CS_B	GWWG	JXXJ	YDDY	VKKV	BZZB	MQQM	fair	retten	spielen	ehrlich	treu	schön	faul	rächen	strafen	eitel	tot	schlecht	1	acq_USpleas_CSpleas2_RW	acq4567_RW	4	20	400	0	300	300	509	50	0	1	1	blank2r.bmp	0	1	+	0	1	blank2r.bmp	492	1	JXXJ	492	1	blank2r.bmp	572	2	treu	866	1	!	1239	1	!	-1	0	0	0	0	0	0	0	0	0	0	0	0	0	0	0	0	0	0	0	0	0	0	0	0	0	0	0	0	0	0
070319	14:06:00	14:13:30	449817	5.0.10.0	5_exp_RW	13	Rpleas_acq	CS_B	GWWG	JXXJ	YDDY	VKKV	BZZB	MQQM	fair	retten	spielen	ehrlich	treu	schön	faul	rächen	strafen	eitel	tot	schlecht	1	acq_USunple_CSunple1_RW	acq4567_RW	4	21	400	0	300	300	514	46	0	1	1	blank2r.bmp	0	1	+	0	1	blank2r.bmp	492	1	YDDY	492	1	blank2r.bmp	572	1	faul	866	1	!	1239	1	!	-1	0	0	0	0	0	0	0	0	0	0	0	0	0	0	0	0	0	0	0	0	0	0	0	0	0	0	0	0	0	0
070319	14:06:00	14:13:32	452042	5.0.10.0	5_exp_RW	13	Rpleas_acq	CS_B	GWWG	JXXJ	YDDY	VKKV	BZZB	MQQM	fair	retten	spielen	ehrlich	treu	schön	faul	rächen	strafen	eitel	tot	schlecht	1	acq_USpleas_CSpleas1_RW	acq4567_RW	4	22	400	1	300	300	423	46	0	0	1	blank2r.bmp	0	1	+	0	1	blank2r.bmp	492	1	GWWG	492	1	blank2r.bmp	572	1	fair	866	1	!	1239	1	!	1319	0	0	0	0	0	0	0	0	0	0	0	0	0	0	0	0	0	0	0	0	0	0	0	0	0	0	0	0	0	0
070319	14:06:00	14:13:35	454335	5.0.10.0	5_exp_RW	13	Rpleas_acq	CS_B	GWWG	JXXJ	YDDY	VKKV	BZZB	MQQM	fair	retten	spielen	ehrlich	treu	schön	faul	rächen	strafen	eitel	tot	schlecht	1	acq_USunple_CSunple2_RW	acq4567_RW	4	23	400	0	300	300	531	46	0	1	1	blank2r.bmp	0	1	+	0	1	blank2r.bmp	492	1	VKKV	492	1	blank2r.bmp	572	3	schlecht	866	1	!	1239	1	!	-1	0	0	0	0	0	0	0	0	0	0	0	0	0	0	0	0	0	0	0	0	0	0	0	0	0	0	0	0	0	0
070319	14:06:00	14:13:37	456494	5.0.10.0	5_exp_RW	13	Rpleas_acq	CS_B	GWWG	JXXJ	YDDY	VKKV	BZZB	MQQM	fair	retten	spielen	ehrlich	treu	schön	faul	rächen	strafen	eitel	tot	schlecht	1	acq_USpleas_CSpleas1_RW	acq4567_RW	4	24	400	1	300	300	358	50	0	1	1	blank2r.bmp	0	1	+	0	1	blank2r.bmp	492	1	GWWG	492	1	blank2r.bmp	572	2	retten	866	1	!	1239	1	!	1252	0	0	0	0	0	0	0	0	0	0	0	0	0	0	0	0	0	0	0	0	0	0	0	0	0	0	0	0	0	0
070319	14:06:00	14:13:39	458653	5.0.10.0	5_exp_RW	13	Rpleas_acq	CS_B	GWWG	JXXJ	YDDY	VKKV	BZZB	MQQM	fair	retten	spielen	ehrlich	treu	schön	faul	rächen	strafen	eitel	tot	schlecht	1	acq_USpleas_CSpleas2_RW	acq4567_RW	4	25	400	1	300	300	347	50	0	1	1	blank2r.bmp	0	1	+	0	1	blank2r.bmp	492	1	JXXJ	492	1	blank2r.bmp	572	3	schön	866	1	!	1239	1	!	1252	0	0	0	0	0	0	0	0	0	0	0	0	0	0	0	0	0	0	0	0	0	0	0	0	0	0	0	0	0	0
070319	14:06:00	14:13:41	460799	5.0.10.0	5_exp_RW	13	Rpleas_acq	CS_B	GWWG	JXXJ	YDDY	VKKV	BZZB	MQQM	fair	retten	spielen	ehrlich	treu	schön	faul	rächen	strafen	eitel	tot	schlecht	1	acq_USpleas_CSpleas1_RW	acq4567_RW	4	26	400	1	300	300	346	50	0	1	1	blank2r.bmp	0	1	+	0	1	blank2r.bmp	492	1	GWWG	492	1	blank2r.bmp	572	3	spielen	866	1	!	1239	1	!	1252	0	0	0	0	0	0	0	0	0	0	0	0	0	0	0	0	0	0	0	0	0	0	0	0	0	0	0	0	0	0
070319	14:06:00	14:13:43	463065	5.0.10.0	5_exp_RW	13	Rpleas_acq	CS_B	GWWG	JXXJ	YDDY	VKKV	BZZB	MQQM	fair	retten	spielen	ehrlich	treu	schön	faul	rächen	strafen	eitel	tot	schlecht	1	acq_USunple_CSunple1_RW	acq4567_RW	4	27	400	1	300	300	457	46	0	1	1	blank2r.bmp	0	1	+	0	1	blank2r.bmp	492	1	YDDY	492	1	blank2r.bmp	572	3	strafen	866	1	!	1239	1	!	1359	0	0	0	0	0	0	0	0	0	0	0	0	0	0	0	0	0	0	0	0	0	0	0	0	0	0	0	0	0	0
070319	14:06:00	14:13:46	465317	5.0.10.0	5_exp_RW	13	Rpleas_acq	CS_B	GWWG	JXXJ	YDDY	VKKV	BZZB	MQQM	fair	retten	spielen	ehrlich	treu	schön	faul	rächen	strafen	eitel	tot	schlecht	1	acq_USpleas_CSpleas2_RW	acq4567_RW	4	28	400	0	300	300	479	50	0	1	1	blank2r.bmp	0	1	+	0	1	blank2r.bmp	492	1	JXXJ	492	1	blank2r.bmp	572	1	ehrlich	866	1	!	1239	1	!	-1	0	0	0	0	0	0	0	0	0	0	0	0	0	0	0	0	0	0	0	0	0	0	0	0	0	0	0	0	0	0
070319	14:06:00	14:13:48	467516	5.0.10.0	5_exp_RW	13	Rpleas_acq	CS_B	GWWG	JXXJ	YDDY	VKKV	BZZB	MQQM	fair	retten	spielen	ehrlich	treu	schön	faul	rächen	strafen	eitel	tot	schlecht	1	acq_USunple_CSunple1_RW	acq4567_RW	4	29	400	1	300	300	395	46	0	1	1	blank2r.bmp	0	1	+	0	1	blank2r.bmp	492	1	YDDY	492	1	blank2r.bmp	572	2	rächen	866	1	!	1239	1	!	1292	0	0	0	0	0	0	0	0	0	0	0	0	0	0	0	0	0	0	0	0	0	0	0	0	0	0	0	0	0	0
070319	14:06:00	14:13:50	469702	5.0.10.0	5_exp_RW	13	Rpleas_acq	CS_B	GWWG	JXXJ	YDDY	VKKV	BZZB	MQQM	fair	retten	spielen	ehrlich	treu	schön	faul	rächen	strafen	eitel	tot	schlecht	1	acq_USpleas_CSpleas1_RW	acq4567_RW	4	30	400	1	300	300	391	50	0	1	1	blank2r.bmp	0	1	+	0	1	blank2r.bmp	492	1	GWWG	492	1	blank2r.bmp	572	2	retten	866	1	!	1239	1	!	1292	0	0	0	0	0	0	0	0	0	0	0	0	0	0	0	0	0	0	0	0	0	0	0	0	0	0	0	0	0	0
070319	14:06:00	14:13:52	471954	5.0.10.0	5_exp_RW	13	Rpleas_acq	CS_B	GWWG	JXXJ	YDDY	VKKV	BZZB	MQQM	fair	retten	spielen	ehrlich	treu	schön	faul	rächen	strafen	eitel	tot	schlecht	1	acq_USunple_CSunple2_RW	acq4567_RW	4	31	400	0	300	300	479	50	0	0	1	blank2r.bmp	0	1	+	0	1	blank2r.bmp	492	1	VKKV	492	1	blank2r.bmp	572	1	eitel	866	1	!	1239	1	!	-1	0	0	0	0	0	0	0	0	0	0	0	0	0	0	0	0	0	0	0	0	0	0	0	0	0	0	0	0	0	0
070319	14:06:00	14:13:55	474167	5.0.10.0	5_exp_RW	13	Rpleas_acq	CS_B	GWWG	JXXJ	YDDY	VKKV	BZZB	MQQM	fair	retten	spielen	ehrlich	treu	schön	faul	rächen	strafen	eitel	tot	schlecht	1	acq_USunple_CSunple1_RW	acq4567_RW	4	32	400	1	300	300	395	46	0	1	1	blank2r.bmp	0	1	+	0	1	blank2r.bmp	492	1	YDDY	492	1	blank2r.bmp	572	1	faul	866	1	!	1239	1	!	1292	0	0	0	0	0	0	0	0	0	0	0	0	0	0	0	0	0	0	0	0	0	0	0	0	0	0	0	0	0	0
070319	14:06:00	14:13:57	476433	5.0.10.0	5_exp_RW	13	Rpleas_acq	CS_B	GWWG	JXXJ	YDDY	VKKV	BZZB	MQQM	fair	retten	spielen	ehrlich	treu	schön	faul	rächen	strafen	eitel	tot	schlecht	1	acq_USunple_CSunple2_RW	acq4567_RW	4	33	400	0	300	300	484	46	0	1	1	blank2r.bmp	0	1	+	0	1	blank2r.bmp	492	1	VKKV	492	1	blank2r.bmp	572	2	tot	866	1	!	1239	1	!	-1	0	0	0	0	0	0	0	0	0	0	0	0	0	0	0	0	0	0	0	0	0	0	0	0	0	0	0	0	0	0
070319	14:06:00	14:13:59	478725	5.0.10.0	5_exp_RW	13	Rpleas_acq	CS_B	GWWG	JXXJ	YDDY	VKKV	BZZB	MQQM	fair	retten	spielen	ehrlich	treu	schön	faul	rächen	strafen	eitel	tot	schlecht	1	acq_USpleas_CSpleas2_RW	acq4567_RW	4	34	400	0	300	300	494	50	0	1	1	blank2r.bmp	0	1	+	0	1	blank2r.bmp	492	1	JXXJ	492	1	blank2r.bmp	572	2	treu	866	1	!	1239	1	!	-1	0	0	0	0	0	0	0	0	0	0	0	0	0	0	0	0	0	0	0	0	0	0	0	0	0	0	0	0	0	0
070319	14:06:00	14:14:01	481031	5.0.10.0	5_exp_RW	13	Rpleas_acq	CS_B	GWWG	JXXJ	YDDY	VKKV	BZZB	MQQM	fair	retten	spielen	ehrlich	treu	schön	faul	rächen	strafen	eitel	tot	schlecht	1	acq_USunple_CSunple2_RW	acq4567_RW	4	35	400	0	300	300	518	46	0	1	1	blank2r.bmp	0	1	+	0	1	blank2r.bmp	492	1	VKKV	492	1	blank2r.bmp	572	2	tot	866	1	!	1239	1	!	-1	0	0	0	0	0	0	0	0	0	0	0	0	0	0	0	0	0	0	0	0	0	0	0	0	0	0	0	0	0	0
070319	14:06:00	14:14:04	483323	5.0.10.0	5_exp_RW	13	Rpleas_acq	CS_B	GWWG	JXXJ	YDDY	VKKV	BZZB	MQQM	fair	retten	spielen	ehrlich	treu	schön	faul	rächen	strafen	eitel	tot	schlecht	1	acq_USunple_CSunple2_RW	acq4567_RW	4	36	400	0	300	300	515	50	0	0	1	blank2r.bmp	0	1	+	0	1	blank2r.bmp	492	1	VKKV	492	1	blank2r.bmp	572	3	schlecht	866	1	!	1239	1	!	-1	0	0	0	0	0	0	0	0	0	0	0	0	0	0	0	0	0	0	0	0	0	0	0	0	0	0	0	0	0	0
070319	14:06:00	14:14:06	485589	5.0.10.0	5_exp_RW	13	Rpleas_acq	CS_B	GWWG	JXXJ	YDDY	VKKV	BZZB	MQQM	fair	retten	spielen	ehrlich	treu	schön	faul	rächen	strafen	eitel	tot	schlecht	1	acq_USpleas_CSpleas2_RW	acq4567_RW	4	37	400	0	300	300	479	50	0	1	1	blank2r.bmp	0	1	+	0	1	blank2r.bmp	492	1	JXXJ	492	1	blank2r.bmp	572	1	ehrlich	866	1	!	1239	1	!	-1	0	0	0	0	0	0	0	0	0	0	0	0	0	0	0	0	0	0	0	0	0	0	0	0	0	0	0	0	0	0
070319	14:06:00	14:14:08	487828	5.0.10.0	5_exp_RW	13	Rpleas_acq	CS_B	GWWG	JXXJ	YDDY	VKKV	BZZB	MQQM	fair	retten	spielen	ehrlich	treu	schön	faul	rächen	strafen	eitel	tot	schlecht	1	acq_USpleas_CSpleas1_RW	acq4567_RW	4	38	400	1	300	300	412	50	0	1	1	blank2r.bmp	0	1	+	0	1	blank2r.bmp	492	1	GWWG	492	1	blank2r.bmp	572	3	spielen	866	1	!	1239	1	!	1319	0	0	0	0	0	0	0	0	0	0	0	0	0	0	0	0	0	0	0	0	0	0	0	0	0	0	0	0	0	0
070319	14:06:00	14:14:10	490000	5.0.10.0	5_exp_RW	13	Rpleas_acq	CS_B	GWWG	JXXJ	YDDY	VKKV	BZZB	MQQM	fair	retten	spielen	ehrlich	treu	schön	faul	rächen	strafen	eitel	tot	schlecht	1	acq_USunple_CSunple1_RW	acq4567_RW	4	39	400	1	300	300	380	46	0	1	1	blank2r.bmp	0	1	+	0	1	blank2r.bmp	492	1	YDDY	492	1	blank2r.bmp	572	3	strafen	866	1	!	1239	1	!	1279	0	0	0	0	0	0	0	0	0	0	0	0	0	0	0	0	0	0	0	0	0	0	0	0	0	0	0	0	0	0
070319	14:06:00	14:14:13	492266	5.0.10.0	5_exp_RW	13	Rpleas_acq	CS_B	GWWG	JXXJ	YDDY	VKKV	BZZB	MQQM	fair	retten	spielen	ehrlich	treu	schön	faul	rächen	strafen	eitel	tot	schlecht	1	acq_USpleas_CSpleas2_RW	acq4567_RW	4	40	400	0	300	300	479	50	0	1	1	blank2r.bmp	0	1	+	0	1	blank2r.bmp	492	1	JXXJ	492	1	blank2r.bmp	572	2	treu	866	1	!	1239	1	!	-1	0	0	0	0	0	0	0	0	0	0	0	0	0	0	0	0	0	0	0	0	0	0	0	0	0	0	0	0	0	0
070319	14:06:00	14:14:15	494505	5.0.10.0	5_exp_RW	13	Rpleas_acq	CS_B	GWWG	JXXJ	YDDY	VKKV	BZZB	MQQM	fair	retten	spielen	ehrlich	treu	schön	faul	rächen	strafen	eitel	tot	schlecht	1	acq_USpleas_CSpleas1_RW	acq4567_RW	4	41	400	1	300	300	424	50	0	1	1	blank2r.bmp	0	1	+	0	1	blank2r.bmp	492	1	GWWG	492	1	blank2r.bmp	572	1	fair	866	1	!	1239	1	!	1319	0	0	0	0	0	0	0	0	0	0	0	0	0	0	0	0	0	0	0	0	0	0	0	0	0	0	0	0	0	0
070319	14:06:00	14:14:17	496584	5.0.10.0	5_exp_RW	13	Rpleas_acq	CS_B	GWWG	JXXJ	YDDY	VKKV	BZZB	MQQM	fair	retten	spielen	ehrlich	treu	schön	faul	rächen	strafen	eitel	tot	schlecht	1	acq_USpleas_CSpleas1_RW	acq4567_RW	4	42	400	0	300	300	316	50	0	1	1	blank2r.bmp	0	1	+	0	1	blank2r.bmp	492	1	GWWG	492	1	blank2r.bmp	572	3	spielen	866	1	!	-1	1	!	-1	0	0	0	0	0	0	0	0	0	0	0	0	0	0	0	0	0	0	0	0	0	0	0	0	0	0	0	0	0	0
070319	14:06:00	14:14:19	498864	5.0.10.0	5_exp_RW	13	Rpleas_acq	CS_B	GWWG	JXXJ	YDDY	VKKV	BZZB	MQQM	fair	retten	spielen	ehrlich	treu	schön	faul	rächen	strafen	eitel	tot	schlecht	1	acq_USunple_CSunple1_RW	acq4567_RW	4	43	400	0	300	300	503	46	0	1	1	blank2r.bmp	0	1	+	0	1	blank2r.bmp	492	1	YDDY	492	1	blank2r.bmp	572	2	rächen	866	1	!	1239	1	!	-1	0	0	0	0	0	0	0	0	0	0	0	0	0	0	0	0	0	0	0	0	0	0	0	0	0	0	0	0	0	0
070319	14:06:00	14:14:21	501023	5.0.10.0	5_exp_RW	13	Rpleas_acq	CS_B	GWWG	JXXJ	YDDY	VKKV	BZZB	MQQM	fair	retten	spielen	ehrlich	treu	schön	faul	rächen	strafen	eitel	tot	schlecht	1	acq_USunple_CSunple2_RW	acq4567_RW	4	44	400	1	300	300	348	50	0	0	1	blank2r.bmp	0	1	+	0	1	blank2r.bmp	492	1	VKKV	492	1	blank2r.bmp	572	1	eitel	866	1	!	1239	1	!	1252	0	0	0	0	0	0	0	0	0	0	0	0	0	0	0	0	0	0	0	0	0	0	0	0	0	0	0	0	0	0
070319	14:06:00	14:14:24	503182	5.0.10.0	5_exp_RW	13	Rpleas_acq	CS_B	GWWG	JXXJ	YDDY	VKKV	BZZB	MQQM	fair	retten	spielen	ehrlich	treu	schön	faul	rächen	strafen	eitel	tot	schlecht	1	acq_USpleas_CSpleas2_RW	acq4567_RW	4	45	400	1	300	300	370	50	0	1	1	blank2r.bmp	0	1	+	0	1	blank2r.bmp	492	1	JXXJ	492	1	blank2r.bmp	572	3	schön	866	1	!	1239	1	!	1266	0	0	0	0	0	0	0	0	0	0	0	0	0	0	0	0	0	0	0	0	0	0	0	0	0	0	0	0	0	0
070319	14:06:00	14:14:26	505354	5.0.10.0	5_exp_RW	13	Rpleas_acq	CS_B	GWWG	JXXJ	YDDY	VKKV	BZZB	MQQM	fair	retten	spielen	ehrlich	treu	schön	faul	rächen	strafen	eitel	tot	schlecht	1	acq_USunple_CSunple1_RW	acq4567_RW	4	46	400	1	300	300	380	46	0	1	1	blank2r.bmp	0	1	+	0	1	blank2r.bmp	492	1	YDDY	492	1	blank2r.bmp	572	2	rächen	866	1	!	1239	1	!	1279	0	0	0	0	0	0	0	0	0	0	0	0	0	0	0	0	0	0	0	0	0	0	0	0	0	0	0	0	0	0
070319	14:06:00	14:14:28	507580	5.0.10.0	5_exp_RW	13	Rpleas_acq	CS_B	GWWG	JXXJ	YDDY	VKKV	BZZB	MQQM	fair	retten	spielen	ehrlich	treu	schön	faul	rächen	strafen	eitel	tot	schlecht	1	acq_USpleas_CSpleas2_RW	acq4567_RW	4	47	400	1	300	300	431	50	0	1	1	blank2r.bmp	0	1	+	0	1	blank2r.bmp	492	1	JXXJ	492	1	blank2r.bmp	572	2	treu	866	1	!	1239	1	!	1332	0	0	0	0	0	0	0	0	0	0	0	0	0	0	0	0	0	0	0	0	0	0	0	0	0	0	0	0	0	0
070319	14:06:00	14:14:30	509646	5.0.10.0	5_exp_RW	13	Rpleas_acq	CS_B	GWWG	JXXJ	YDDY	VKKV	BZZB	MQQM	fair	retten	spielen	ehrlich	treu	schön	faul	rächen	strafen	eitel	tot	schlecht	1	acq_USpleas_CSpleas1_RW	acq4567_RW	4	48	400	0	300	300	303	50	0	1	1	blank2r.bmp	0	1	+	0	1	blank2r.bmp	492	1	GWWG	492	1	blank2r.bmp	572	1	fair	866	1	!	-1	1	!	-1	0	0	0	0	0	0	0	0	0	0	0	0	0	0	0	0	0	0	0	0	0	0	0	0	0	0	0	0	0	0
070319	14:06:00	14:14:32	511832	5.0.10.0	5_exp_RW	13	Rpleas_acq	CS_B	GWWG	JXXJ	YDDY	VKKV	BZZB	MQQM	fair	retten	spielen	ehrlich	treu	schön	faul	rächen	strafen	eitel	tot	schlecht	1	acq_USpleas_CSpleas2_RW	acq4567_RW	4	49	400	1	300	300	380	50	0	1	1	blank2r.bmp	0	1	+	0	1	blank2r.bmp	492	1	JXXJ	492	1	blank2r.bmp	572	3	schön	866	1	!	1239	1	!	1279	0	0	0	0	0	0	0	0	0	0	0	0	0	0	0	0	0	0	0	0	0	0	0	0	0	0	0	0	0	0
070319	14:06:00	14:14:35	514084	5.0.10.0	5_exp_RW	13	Rpleas_acq	CS_B	GWWG	JXXJ	YDDY	VKKV	BZZB	MQQM	fair	retten	spielen	ehrlich	treu	schön	faul	rächen	strafen	eitel	tot	schlecht	1	acq_USunple_CSunple1_RW	acq4567_RW	4	50	400	0	300	300	479	46	0	1	1	blank2r.bmp	0	1	+	0	1	blank2r.bmp	492	1	YDDY	492	1	blank2r.bmp	572	3	strafen	866	1	!	1239	1	!	-1	0	0	0	0	0	0	0	0	0	0	0	0	0	0	0	0	0	0	0	0	0	0	0	0	0	0	0	0	0	0
070319	14:06:00	14:14:37	516256	5.0.10.0	5_exp_RW	13	Rpleas_acq	CS_B	GWWG	JXXJ	YDDY	VKKV	BZZB	MQQM	fair	retten	spielen	ehrlich	treu	schön	faul	rächen	strafen	eitel	tot	schlecht	1	acq_USpleas_CSpleas1_RW	acq4567_RW	4	51	400	1	300	300	362	46	0	0	1	blank2r.bmp	0	1	+	0	1	blank2r.bmp	492	1	GWWG	492	1	blank2r.bmp	572	2	retten	866	1	!	1239	1	!	1266	0	0	0	0	0	0	0	0	0	0	0	0	0	0	0	0	0	0	0	0	0	0	0	0	0	0	0	0	0	0
070319	14:06:00	14:14:39	518509	5.0.10.0	5_exp_RW	13	Rpleas_acq	CS_B	GWWG	JXXJ	YDDY	VKKV	BZZB	MQQM	fair	retten	spielen	ehrlich	treu	schön	faul	rächen	strafen	eitel	tot	schlecht	1	acq_USunple_CSunple1_RW	acq4567_RW	4	52	400	1	300	300	450	46	0	1	1	blank2r.bmp	0	1	+	0	1	blank2r.bmp	492	1	YDDY	492	1	blank2r.bmp	572	1	faul	866	1	!	1239	1	!	1346	0	0	0	0	0	0	0	0	0	0	0	0	0	0	0	0	0	0	0	0	0	0	0	0	0	0	0	0	0	0
070319	14:06:00	14:14:41	520655	5.0.10.0	5_exp_RW	13	Rpleas_acq	CS_B	GWWG	JXXJ	YDDY	VKKV	BZZB	MQQM	fair	retten	spielen	ehrlich	treu	schön	faul	rächen	strafen	eitel	tot	schlecht	1	acq_USunple_CSunple2_RW	acq4567_RW	4	53	400	1	300	300	357	46	0	1	1	blank2r.bmp	0	1	+	0	1	blank2r.bmp	492	1	VKKV	492	1	blank2r.bmp	572	2	tot	866	1	!	1239	1	!	1252	0	0	0	0	0	0	0	0	0	0	0	0	0	0	0	0	0	0	0	0	0	0	0	0	0	0	0	0	0	0
070319	14:06:00	14:14:43	522880	5.0.10.0	5_exp_RW	13	Rpleas_acq	CS_B	GWWG	JXXJ	YDDY	VKKV	BZZB	MQQM	fair	retten	spielen	ehrlich	treu	schön	faul	rächen	strafen	eitel	tot	schlecht	1	acq_USunple_CSunple2_RW	acq4567_RW	4	54	400	1	300	300	423	50	0	0	1	blank2r.bmp	0	1	+	0	1	blank2r.bmp	492	1	VKKV	492	1	blank2r.bmp	572	1	eitel	866	1	!	1239	1	!	1319	0	0	0	0	0	0	0	0	0	0	0	0	0	0	0	0	0	0	0	0	0	0	0	0	0	0	0	0	0	0
070319	14:06:00	14:14:46	525599	5.0.10.0	5_exp_RW	13	Rpleas_acq	CS_B	GWWG	JXXJ	YDDY	VKKV	BZZB	MQQM	fair	retten	spielen	ehrlich	treu	schön	faul	rächen	strafen	eitel	tot	schlecht	1	acq_USunple_CSunple1_RW	acq4567_RW	4	55	400	0	300	300	947	46	0	1	1	blank2r.bmp	0	1	+	0	1	blank2r.bmp	492	1	YDDY	492	1	blank2r.bmp	572	3	strafen	866	1	!	1239	1	!	-1	0	0	0	0	0	0	0	0	0	0	0	0	0	0	0	0	0	0	0	0	0	0	0	0	0	0	0	0	0	0
070319	14:06:00	14:14:48	527838	5.0.10.0	5_exp_RW	13	Rpleas_acq	CS_B	GWWG	JXXJ	YDDY	VKKV	BZZB	MQQM	fair	retten	spielen	ehrlich	treu	schön	faul	rächen	strafen	eitel	tot	schlecht	1	acq_USunple_CSunple2_RW	acq4567_RW	4	56	400	1	300	300	426	46	0	1	1	blank2r.bmp	0	1	+	0	1	blank2r.bmp	492	1	VKKV	492	1	blank2r.bmp	572	3	schlecht	866	1	!	1239	1	!	1332	0	0	0	0	0	0	0	0	0	0	0	0	0	0	0	0	0	0	0	0	0	0	0	0	0	0	0	0	0	0
070319	14:06:00	14:14:51	530104	5.0.10.0	5_exp_RW	13	Rpleas_acq	CS_B	GWWG	JXXJ	YDDY	VKKV	BZZB	MQQM	fair	retten	spielen	ehrlich	treu	schön	faul	rächen	strafen	eitel	tot	schlecht	1	acq_USpleas_CSpleas2_RW	acq4567_RW	4	57	400	0	300	300	503	50	0	1	1	blank2r.bmp	0	1	+	0	1	blank2r.bmp	492	1	JXXJ	492	1	blank2r.bmp	572	1	ehrlich	866	1	!	1239	1	!	-1	0	0	0	0	0	0	0	0	0	0	0	0	0	0	0	0	0	0	0	0	0	0	0	0	0	0	0	0	0	0
070319	14:06:00	14:14:53	532383	5.0.10.0	5_exp_RW	13	Rpleas_acq	CS_B	GWWG	JXXJ	YDDY	VKKV	BZZB	MQQM	fair	retten	spielen	ehrlich	treu	schön	faul	rächen	strafen	eitel	tot	schlecht	1	acq_USpleas_CSpleas1_RW	acq4567_RW	4	58	400	0	300	300	494	50	0	1	1	blank2r.bmp	0	1	+	0	1	blank2r.bmp	492	1	GWWG	492	1	blank2r.bmp	572	2	retten	866	1	!	1239	1	!	-1	0	0	0	0	0	0	0	0	0	0	0	0	0	0	0	0	0	0	0	0	0	0	0	0	0	0	0	0	0	0
070319	14:06:00	14:14:55	534662	5.0.10.0	5_exp_RW	13	Rpleas_acq	CS_B	GWWG	JXXJ	YDDY	VKKV	BZZB	MQQM	fair	retten	spielen	ehrlich	treu	schön	faul	rächen	strafen	eitel	tot	schlecht	1	acq_USunple_CSunple2_RW	acq4567_RW	4	59	400	0	300	300	505	50	0	0	1	blank2r.bmp	0	1	+	0	1	blank2r.bmp	492	1	VKKV	492	1	blank2r.bmp	572	1	eitel	866	1	!	1239	1	!	-1	0	0	0	0	0	0	0	0	0	0	0	0	0	0	0	0	0	0	0	0	0	0	0	0	0	0	0	0	0	0
070319	14:06:00	14:14:57	536848	5.0.10.0	5_exp_RW	13	Rpleas_acq	CS_B	GWWG	JXXJ	YDDY	VKKV	BZZB	MQQM	fair	retten	spielen	ehrlich	treu	schön	faul	rächen	strafen	eitel	tot	schlecht	1	acq_USpleas_CSpleas2_RW	acq4567_RW	4	60	400	1	300	300	382	50	0	1	1	blank2r.bmp	0	1	+	0	1	blank2r.bmp	492	1	JXXJ	492	1	blank2r.bmp	572	3	schön	866	1	!	1239	1	!	1279	0	0	0	0	0	0	0	0	0	0	0	0	0	0	0	0	0	0	0	0	0	0	0	0	0	0	0	0	0	0
070319	14:06:00	14:15:00	539101	5.0.10.0	5_exp_RW	13	Rpleas_acq	CS_B	GWWG	JXXJ	YDDY	VKKV	BZZB	MQQM	fair	retten	spielen	ehrlich	treu	schön	faul	rächen	strafen	eitel	tot	schlecht	1	acq_USpleas_CSpleas2_RW	acq4567_RW	4	61	400	1	300	300	447	50	0	1	1	blank2r.bmp	0	1	+	0	1	blank2r.bmp	492	1	JXXJ	492	1	blank2r.bmp	572	1	ehrlich	866	1	!	1239	1	!	1346	0	0	0	0	0	0	0	0	0	0	0	0	0	0	0	0	0	0	0	0	0	0	0	0	0	0	0	0	0	0
070319	14:06:00	14:15:02	541393	5.0.10.0	5_exp_RW	13	Rpleas_acq	CS_B	GWWG	JXXJ	YDDY	VKKV	BZZB	MQQM	fair	retten	spielen	ehrlich	treu	schön	faul	rächen	strafen	eitel	tot	schlecht	1	acq_USunple_CSunple2_RW	acq4567_RW	4	62	400	0	300	300	522	46	0	1	1	blank2r.bmp	0	1	+	0	1	blank2r.bmp	492	1	VKKV	492	1	blank2r.bmp	572	2	tot	866	1	!	1239	1	!	-1	0	0	0	0	0	0	0	0	0	0	0	0	0	0	0	0	0	0	0	0	0	0	0	0	0	0	0	0	0	0
070319	14:06:00	14:15:04	543739	5.0.10.0	5_exp_RW	13	Rpleas_acq	CS_B	GWWG	JXXJ	YDDY	VKKV	BZZB	MQQM	fair	retten	spielen	ehrlich	treu	schön	faul	rächen	strafen	eitel	tot	schlecht	1	acq_USpleas_CSpleas1_RW	acq4567_RW	4	63	400	0	300	300	565	50	0	1	1	blank2r.bmp	0	1	+	0	1	blank2r.bmp	492	1	GWWG	492	1	blank2r.bmp	572	1	fair	866	1	!	1239	1	!	-1	0	0	0	0	0	0	0	0	0	0	0	0	0	0	0	0	0	0	0	0	0	0	0	0	0	0	0	0	0	0
070319	14:06:00	14:15:06	545924	5.0.10.0	5_exp_RW	13	Rpleas_acq	CS_B	GWWG	JXXJ	YDDY	VKKV	BZZB	MQQM	fair	retten	spielen	ehrlich	treu	schön	faul	rächen	strafen	eitel	tot	schlecht	1	acq_USunple_CSunple1_RW	acq4567_RW	4	64	400	1	300	300	383	46	0	1	1	blank2r.bmp	0	1	+	0	1	blank2r.bmp	492	1	YDDY	492	1	blank2r.bmp	572	2	rächen	866	1	!	1239	1	!	1279	0	0	0	0	0	0	0	0	0	0	0	0	0	0	0	0	0	0	0	0	0	0	0	0	0	0	0	0	0	0
070319	14:06:00	14:15:09	548297	5.0.10.0	5_exp_RW	13	Rpleas_acq	CS_B	GWWG	JXXJ	YDDY	VKKV	BZZB	MQQM	fair	retten	spielen	ehrlich	treu	schön	faul	rächen	strafen	eitel	tot	schlecht	1	acq_USpleas_CSpleas2_RW	acq4567_RW	4	65	400	0	300	300	600	50	0	1	1	blank2r.bmp	0	1	+	0	1	blank2r.bmp	492	1	JXXJ	492	1	blank2r.bmp	572	2	treu	866	1	!	1239	1	!	-1	0	0	0	0	0	0	0	0	0	0	0	0	0	0	0	0	0	0	0	0	0	0	0	0	0	0	0	0	0	0
070319	14:06:00	14:15:11	550589	5.0.10.0	5_exp_RW	13	Rpleas_acq	CS_B	GWWG	JXXJ	YDDY	VKKV	BZZB	MQQM	fair	retten	spielen	ehrlich	treu	schön	faul	rächen	strafen	eitel	tot	schlecht	1	acq_USpleas_CSpleas1_RW	acq4567_RW	4	66	400	0	300	300	508	50	0	1	1	blank2r.bmp	0	1	+	0	1	blank2r.bmp	492	1	GWWG	492	1	blank2r.bmp	572	3	spielen	866	1	!	1239	1	!	-1	0	0	0	0	0	0	0	0	0	0	0	0	0	0	0	0	0	0	0	0	0	0	0	0	0	0	0	0	0	0
070319	14:06:00	14:15:13	552842	5.0.10.0	5_exp_RW	13	Rpleas_acq	CS_B	GWWG	JXXJ	YDDY	VKKV	BZZB	MQQM	fair	retten	spielen	ehrlich	treu	schön	faul	rächen	strafen	eitel	tot	schlecht	1	acq_USunple_CSunple1_RW	acq4567_RW	4	67	400	1	300	300	439	46	0	1	1	blank2r.bmp	0	1	+	0	1	blank2r.bmp	492	1	YDDY	492	1	blank2r.bmp	572	1	faul	866	1	!	1239	1	!	1346	0	0	0	0	0	0	0	0	0	0	0	0	0	0	0	0	0	0	0	0	0	0	0	0	0	0	0	0	0	0
070319	14:06:00	14:15:15	555041	5.0.10.0	5_exp_RW	13	Rpleas_acq	CS_B	GWWG	JXXJ	YDDY	VKKV	BZZB	MQQM	fair	retten	spielen	ehrlich	treu	schön	faul	rächen	strafen	eitel	tot	schlecht	1	acq_USpleas_CSpleas2_RW	acq4567_RW	4	68	400	1	300	300	409	50	0	1	1	blank2r.bmp	0	1	+	0	1	blank2r.bmp	492	1	JXXJ	492	1	blank2r.bmp	572	1	ehrlich	866	1	!	1239	1	!	1306	0	0	0	0	0	0	0	0	0	0	0	0	0	0	0	0	0	0	0	0	0	0	0	0	0	0	0	0	0	0
070319	14:06:00	14:15:18	557293	5.0.10.0	5_exp_RW	13	Rpleas_acq	CS_B	GWWG	JXXJ	YDDY	VKKV	BZZB	MQQM	fair	retten	spielen	ehrlich	treu	schön	faul	rächen	strafen	eitel	tot	schlecht	1	acq_USunple_CSunple2_RW	acq4567_RW	4	69	400	0	300	300	479	46	0	1	1	blank2r.bmp	0	1	+	0	1	blank2r.bmp	492	1	VKKV	492	1	blank2r.bmp	572	3	schlecht	866	1	!	1239	1	!	-1	0	0	0	0	0	0	0	0	0	0	0	0	0	0	0	0	0	0	0	0	0	0	0	0	0	0	0	0	0	0
070319	14:06:00	14:15:20	559519	5.0.10.0	5_exp_RW	13	Rpleas_acq	CS_B	GWWG	JXXJ	YDDY	VKKV	BZZB	MQQM	fair	retten	spielen	ehrlich	treu	schön	faul	rächen	strafen	eitel	tot	schlecht	1	acq_USpleas_CSpleas2_RW	acq4567_RW	4	70	400	1	300	300	424	50	0	1	1	blank2r.bmp	0	1	+	0	1	blank2r.bmp	492	1	JXXJ	492	1	blank2r.bmp	572	2	treu	866	1	!	1239	1	!	1319	0	0	0	0	0	0	0	0	0	0	0	0	0	0	0	0	0	0	0	0	0	0	0	0	0	0	0	0	0	0
070319	14:06:00	14:15:22	561825	5.0.10.0	5_exp_RW	13	Rpleas_acq	CS_B	GWWG	JXXJ	YDDY	VKKV	BZZB	MQQM	fair	retten	spielen	ehrlich	treu	schön	faul	rächen	strafen	eitel	tot	schlecht	1	acq_USpleas_CSpleas1_RW	acq4567_RW	4	71	400	0	300	300	536	50	0	1	1	blank2r.bmp	0	1	+	0	1	blank2r.bmp	492	1	GWWG	492	1	blank2r.bmp	572	2	retten	866	1	!	1239	1	!	-1	0	0	0	0	0	0	0	0	0	0	0	0	0	0	0	0	0	0	0	0	0	0	0	0	0	0	0	0	0	0
070319	14:06:00	14:15:25	564077	5.0.10.0	5_exp_RW	13	Rpleas_acq	CS_B	GWWG	JXXJ	YDDY	VKKV	BZZB	MQQM	fair	retten	spielen	ehrlich	treu	schön	faul	rächen	strafen	eitel	tot	schlecht	1	acq_USunple_CSunple1_RW	acq4567_RW	4	72	400	1	300	300	439	46	0	1	1	blank2r.bmp	0	1	+	0	1	blank2r.bmp	492	1	YDDY	492	1	blank2r.bmp	572	2	rächen	866	1	!	1239	1	!	1346	0	0	0	0	0	0	0	0	0	0	0	0	0	0	0	0	0	0	0	0	0	0	0	0	0	0	0	0	0	0
070319	14:06:00	14:15:27	566289	5.0.10.0	5_exp_RW	13	Rpleas_acq	CS_B	GWWG	JXXJ	YDDY	VKKV	BZZB	MQQM	fair	retten	spielen	ehrlich	treu	schön	faul	rächen	strafen	eitel	tot	schlecht	1	acq_USpleas_CSpleas1_RW	acq4567_RW	4	73	400	1	300	300	412	50	0	1	1	blank2r.bmp	0	1	+	0	1	blank2r.bmp	492	1	GWWG	492	1	blank2r.bmp	572	3	spielen	866	1	!	1239	1	!	1319	0	0	0	0	0	0	0	0	0	0	0	0	0	0	0	0	0	0	0	0	0	0	0	0	0	0	0	0	0	0
070319	14:06:00	14:15:29	568529	5.0.10.0	5_exp_RW	13	Rpleas_acq	CS_B	GWWG	JXXJ	YDDY	VKKV	BZZB	MQQM	fair	retten	spielen	ehrlich	treu	schön	faul	rächen	strafen	eitel	tot	schlecht	1	acq_USunple_CSunple1_RW	acq4567_RW	4	74	400	1	300	300	451	46	0	1	1	blank2r.bmp	0	1	+	0	1	blank2r.bmp	492	1	YDDY	492	1	blank2r.bmp	572	1	faul	866	1	!	1239	1	!	1346	0	0	0	0	0	0	0	0	0	0	0	0	0	0	0	0	0	0	0	0	0	0	0	0	0	0	0	0	0	0
070319	14:06:00	14:15:31	570808	5.0.10.0	5_exp_RW	13	Rpleas_acq	CS_B	GWWG	JXXJ	YDDY	VKKV	BZZB	MQQM	fair	retten	spielen	ehrlich	treu	schön	faul	rächen	strafen	eitel	tot	schlecht	1	acq_USunple_CSunple2_RW	acq4567_RW	4	75	400	0	300	300	518	46	0	1	1	blank2r.bmp	0	1	+	0	1	blank2r.bmp	492	1	VKKV	492	1	blank2r.bmp	572	2	tot	866	1	!	1239	1	!	-1	0	0	0	0	0	0	0	0	0	0	0	0	0	0	0	0	0	0	0	0	0	0	0	0	0	0	0	0	0	0
070319	14:06:00	14:15:33	572913	5.0.10.0	5_exp_RW	13	Rpleas_acq	CS_B	GWWG	JXXJ	YDDY	VKKV	BZZB	MQQM	fair	retten	spielen	ehrlich	treu	schön	faul	rächen	strafen	eitel	tot	schlecht	1	acq_USpleas_CSpleas1_RW	acq4567_RW	4	76	400	0	300	300	318	50	0	1	1	blank2r.bmp	0	1	+	0	1	blank2r.bmp	492	1	GWWG	492	1	blank2r.bmp	572	1	fair	866	1	!	-1	1	!	-1	0	0	0	0	0	0	0	0	0	0	0	0	0	0	0	0	0	0	0	0	0	0	0	0	0	0	0	0	0	0
070319	14:06:00	14:15:36	575193	5.0.10.0	5_exp_RW	13	Rpleas_acq	CS_B	GWWG	JXXJ	YDDY	VKKV	BZZB	MQQM	fair	retten	spielen	ehrlich	treu	schön	faul	rächen	strafen	eitel	tot	schlecht	1	acq_USunple_CSunple1_RW	acq4567_RW	4	77	400	0	300	300	499	46	0	1	1	blank2r.bmp	0	1	+	0	1	blank2r.bmp	492	1	YDDY	492	1	blank2r.bmp	572	3	strafen	866	1	!	1239	1	!	-1	0	0	0	0	0	0	0	0	0	0	0	0	0	0	0	0	0	0	0	0	0	0	0	0	0	0	0	0	0	0
070319	14:06:00	14:15:38	577432	5.0.10.0	5_exp_RW	13	Rpleas_acq	CS_B	GWWG	JXXJ	YDDY	VKKV	BZZB	MQQM	fair	retten	spielen	ehrlich	treu	schön	faul	rächen	strafen	eitel	tot	schlecht	1	acq_USpleas_CSpleas2_RW	acq4567_RW	4	78	400	1	300	300	436	50	0	1	1	blank2r.bmp	0	1	+	0	1	blank2r.bmp	492	1	JXXJ	492	1	blank2r.bmp	572	3	schön	866	1	!	1239	1	!	1332	0	0	0	0	0	0	0	0	0	0	0	0	0	0	0	0	0	0	0	0	0	0	0	0	0	0	0	0	0	0
070319	14:06:00	14:15:40	579684	5.0.10.0	5_exp_RW	13	Rpleas_acq	CS_B	GWWG	JXXJ	YDDY	VKKV	BZZB	MQQM	fair	retten	spielen	ehrlich	treu	schön	faul	rächen	strafen	eitel	tot	schlecht	1	acq_USunple_CSunple2_RW	acq4567_RW	4	79	400	1	300	300	460	46	0	1	1	blank2r.bmp	0	1	+	0	1	blank2r.bmp	492	1	VKKV	492	1	blank2r.bmp	572	3	schlecht	866	1	!	1239	1	!	1359	0	0	0	0	0	0	0	0	0	0	0	0	0	0	0	0	0	0	0	0	0	0	0	0	0	0	0	0	0	0
070319	14:06:00	14:15:42	581950	5.0.10.0	5_exp_RW	13	Rpleas_acq	CS_B	GWWG	JXXJ	YDDY	VKKV	BZZB	MQQM	fair	retten	spielen	ehrlich	treu	schön	faul	rächen	strafen	eitel	tot	schlecht	1	acq_USunple_CSunple2_RW	acq4567_RW	4	80	400	0	300	300	479	50	0	0	1	blank2r.bmp	0	1	+	0	1	blank2r.bmp	492	1	VKKV	492	1	blank2r.bmp	572	1	eitel	866	1	!	1239	1	!	-1	0	0	0	0	0	0	0	0	0	0	0	0	0	0	0	0	0	0	0	0	0	0	0	0	0	0	0	0	0	0
070319	14:06:00	14:15:59	598636	5.0.10.0	5_exp_RW	13	Rpleas_acq	CS_B	GWWG	JXXJ	YDDY	VKKV	BZZB	MQQM	fair	retten	spielen	ehrlich	treu	schön	faul	rächen	strafen	eitel	tot	schlecht	1	acq_USpleas_CSpleas1_RW	acq4567_RW	5	1	400	0	300	300	868	50	0	1	1	blank2r.bmp	0	1	+	0	1	blank2r.bmp	492	1	GWWG	492	1	blank2r.bmp	572	2	retten	866	1	!	1239	1	!	-1	0	0	0	0	0	0	0	0	0	0	0	0	0	0	0	0	0	0	0	0	0	0	0	0	0	0	0	0	0	0
070319	14:06:00	14:16:01	600822	5.0.10.0	5_exp_RW	13	Rpleas_acq	CS_B	GWWG	JXXJ	YDDY	VKKV	BZZB	MQQM	fair	retten	spielen	ehrlich	treu	schön	faul	rächen	strafen	eitel	tot	schlecht	1	acq_USpleas_CSpleas1_RW	acq4567_RW	5	2	400	1	300	300	383	50	0	1	1	blank2r.bmp	0	1	+	0	1	blank2r.bmp	492	1	GWWG	492	1	blank2r.bmp	572	1	fair	866	1	!	1239	1	!	1279	0	0	0	0	0	0	0	0	0	0	0	0	0	0	0	0	0	0	0	0	0	0	0	0	0	0	0	0	0	0
070319	14:06:00	14:16:03	603061	5.0.10.0	5_exp_RW	13	Rpleas_acq	CS_B	GWWG	JXXJ	YDDY	VKKV	BZZB	MQQM	fair	retten	spielen	ehrlich	treu	schön	faul	rächen	strafen	eitel	tot	schlecht	1	acq_USunple_CSunple1_RW	acq4567_RW	5	3	400	1	300	300	435	46	0	1	1	blank2r.bmp	0	1	+	0	1	blank2r.bmp	492	1	YDDY	492	1	blank2r.bmp	572	3	strafen	866	1	!	1239	1	!	1332	0	0	0	0	0	0	0	0	0	0	0	0	0	0	0	0	0	0	0	0	0	0	0	0	0	0	0	0	0	0
070319	14:06:00	14:16:06	605327	5.0.10.0	5_exp_RW	13	Rpleas_acq	CS_B	GWWG	JXXJ	YDDY	VKKV	BZZB	MQQM	fair	retten	spielen	ehrlich	treu	schön	faul	rächen	strafen	eitel	tot	schlecht	1	acq_USpleas_CSpleas2_RW	acq4567_RW	5	4	400	0	300	300	500	50	0	1	1	blank2r.bmp	0	1	+	0	1	blank2r.bmp	492	1	JXXJ	492	1	blank2r.bmp	572	3	schön	866	1	!	1239	1	!	-1	0	0	0	0	0	0	0	0	0	0	0	0	0	0	0	0	0	0	0	0	0	0	0	0	0	0	0	0	0	0
070319	14:06:00	14:16:08	607619	5.0.10.0	5_exp_RW	13	Rpleas_acq	CS_B	GWWG	JXXJ	YDDY	VKKV	BZZB	MQQM	fair	retten	spielen	ehrlich	treu	schön	faul	rächen	strafen	eitel	tot	schlecht	1	acq_USunple_CSunple2_RW	acq4567_RW	5	5	400	0	300	300	514	46	0	1	1	blank2r.bmp	0	1	+	0	1	blank2r.bmp	492	1	VKKV	492	1	blank2r.bmp	572	3	schlecht	866	1	!	1239	1	!	-1	0	0	0	0	0	0	0	0	0	0	0	0	0	0	0	0	0	0	0	0	0	0	0	0	0	0	0	0	0	0
070319	14:06:00	14:16:10	609739	5.0.10.0	5_exp_RW	13	Rpleas_acq	CS_B	GWWG	JXXJ	YDDY	VKKV	BZZB	MQQM	fair	retten	spielen	ehrlich	treu	schön	faul	rächen	strafen	eitel	tot	schlecht	1	acq_USpleas_CSpleas2_RW	acq4567_RW	5	6	400	0	300	300	332	50	0	1	1	blank2r.bmp	0	1	+	0	1	blank2r.bmp	492	1	JXXJ	492	1	blank2r.bmp	572	2	treu	866	1	!	-1	1	!	-1	0	0	0	0	0	0	0	0	0	0	0	0	0	0	0	0	0	0	0	0	0	0	0	0	0	0	0	0	0	0
070319	14:06:00	14:16:12	612004	5.0.10.0	5_exp_RW	13	Rpleas_acq	CS_B	GWWG	JXXJ	YDDY	VKKV	BZZB	MQQM	fair	retten	spielen	ehrlich	treu	schön	faul	rächen	strafen	eitel	tot	schlecht	1	acq_USunple_CSunple2_RW	acq4567_RW	5	7	400	0	300	300	479	46	0	1	1	blank2r.bmp	0	1	+	0	1	blank2r.bmp	492	1	VKKV	492	1	blank2r.bmp	572	2	tot	866	1	!	1239	1	!	-1	0	0	0	0	0	0	0	0	0	0	0	0	0	0	0	0	0	0	0	0	0	0	0	0	0	0	0	0	0	0
070319	14:06:00	14:16:15	614203	5.0.10.0	5_exp_RW	13	Rpleas_acq	CS_B	GWWG	JXXJ	YDDY	VKKV	BZZB	MQQM	fair	retten	spielen	ehrlich	treu	schön	faul	rächen	strafen	eitel	tot	schlecht	1	acq_USunple_CSunple2_RW	acq4567_RW	5	8	400	1	300	300	389	50	0	0	1	blank2r.bmp	0	1	+	0	1	blank2r.bmp	492	1	VKKV	492	1	blank2r.bmp	572	1	eitel	866	1	!	1239	1	!	1292	0	0	0	0	0	0	0	0	0	0	0	0	0	0	0	0	0	0	0	0	0	0	0	0	0	0	0	0	0	0
070319	14:06:00	14:16:17	616469	5.0.10.0	5_exp_RW	13	Rpleas_acq	CS_B	GWWG	JXXJ	YDDY	VKKV	BZZB	MQQM	fair	retten	spielen	ehrlich	treu	schön	faul	rächen	strafen	eitel	tot	schlecht	1	acq_USunple_CSunple2_RW	acq4567_RW	5	9	400	0	300	300	504	50	0	0	1	blank2r.bmp	0	1	+	0	1	blank2r.bmp	492	1	VKKV	492	1	blank2r.bmp	572	1	eitel	866	1	!	1239	1	!	-1	0	0	0	0	0	0	0	0	0	0	0	0	0	0	0	0	0	0	0	0	0	0	0	0	0	0	0	0	0	0
070319	14:06:00	14:16:19	618815	5.0.10.0	5_exp_RW	13	Rpleas_acq	CS_B	GWWG	JXXJ	YDDY	VKKV	BZZB	MQQM	fair	retten	spielen	ehrlich	treu	schön	faul	rächen	strafen	eitel	tot	schlecht	1	acq_USunple_CSunple2_RW	acq4567_RW	5	10	400	0	300	300	560	46	0	1	1	blank2r.bmp	0	1	+	0	1	blank2r.bmp	492	1	VKKV	492	1	blank2r.bmp	572	3	schlecht	866	1	!	1239	1	!	-1	0	0	0	0	0	0	0	0	0	0	0	0	0	0	0	0	0	0	0	0	0	0	0	0	0	0	0	0	0	0
070319	14:06:00	14:16:21	620907	5.0.10.0	5_exp_RW	13	Rpleas_acq	CS_B	GWWG	JXXJ	YDDY	VKKV	BZZB	MQQM	fair	retten	spielen	ehrlich	treu	schön	faul	rächen	strafen	eitel	tot	schlecht	1	acq_USpleas_CSpleas2_RW	acq4567_RW	5	11	400	0	300	300	316	46	0	0	1	blank2r.bmp	0	1	+	0	1	blank2r.bmp	492	1	JXXJ	492	1	blank2r.bmp	572	1	ehrlich	866	1	!	-1	1	!	-1	0	0	0	0	0	0	0	0	0	0	0	0	0	0	0	0	0	0	0	0	0	0	0	0	0	0	0	0	0	0
070319	14:06:00	14:16:24	623306	5.0.10.0	5_exp_RW	13	Rpleas_acq	CS_B	GWWG	JXXJ	YDDY	VKKV	BZZB	MQQM	fair	retten	spielen	ehrlich	treu	schön	faul	rächen	strafen	eitel	tot	schlecht	1	acq_USpleas_CSpleas1_RW	acq4567_RW	5	12	400	0	300	300	624	50	0	1	1	blank2r.bmp	0	1	+	0	1	blank2r.bmp	492	1	GWWG	492	1	blank2r.bmp	572	3	spielen	866	1	!	1239	1	!	-1	0	0	0	0	0	0	0	0	0	0	0	0	0	0	0	0	0	0	0	0	0	0	0	0	0	0	0	0	0	0
070319	14:06:00	14:16:26	625479	5.0.10.0	5_exp_RW	13	Rpleas_acq	CS_B	GWWG	JXXJ	YDDY	VKKV	BZZB	MQQM	fair	retten	spielen	ehrlich	treu	schön	faul	rächen	strafen	eitel	tot	schlecht	1	acq_USpleas_CSpleas2_RW	acq4567_RW	5	13	400	1	300	300	346	50	0	1	1	blank2r.bmp	0	1	+	0	1	blank2r.bmp	492	1	JXXJ	492	1	blank2r.bmp	572	3	schön	866	1	!	1239	1	!	1252	0	0	0	0	0	0	0	0	0	0	0	0	0	0	0	0	0	0	0	0	0	0	0	0	0	0	0	0	0	0
070319	14:06:00	14:16:28	627691	5.0.10.0	5_exp_RW	13	Rpleas_acq	CS_B	GWWG	JXXJ	YDDY	VKKV	BZZB	MQQM	fair	retten	spielen	ehrlich	treu	schön	faul	rächen	strafen	eitel	tot	schlecht	1	acq_USunple_CSunple1_RW	acq4567_RW	5	14	400	1	300	300	423	46	0	1	1	blank2r.bmp	0	1	+	0	1	blank2r.bmp	492	1	YDDY	492	1	blank2r.bmp	572	1	faul	866	1	!	1239	1	!	1319	0	0	0	0	0	0	0	0	0	0	0	0	0	0	0	0	0	0	0	0	0	0	0	0	0	0	0	0	0	0
070319	14:06:00	14:16:30	629784	5.0.10.0	5_exp_RW	13	Rpleas_acq	CS_B	GWWG	JXXJ	YDDY	VKKV	BZZB	MQQM	fair	retten	spielen	ehrlich	treu	schön	faul	rächen	strafen	eitel	tot	schlecht	1	acq_USpleas_CSpleas2_RW	acq4567_RW	5	15	400	0	300	300	327	50	0	1	1	blank2r.bmp	0	1	+	0	1	blank2r.bmp	492	1	JXXJ	492	1	blank2r.bmp	572	2	treu	866	1	!	-1	1	!	-1	0	0	0	0	0	0	0	0	0	0	0	0	0	0	0	0	0	0	0	0	0	0	0	0	0	0	0	0	0	0
070319	14:06:00	14:16:32	631876	5.0.10.0	5_exp_RW	13	Rpleas_acq	CS_B	GWWG	JXXJ	YDDY	VKKV	BZZB	MQQM	fair	retten	spielen	ehrlich	treu	schön	faul	rächen	strafen	eitel	tot	schlecht	1	acq_USpleas_CSpleas1_RW	acq4567_RW	5	16	400	0	300	300	307	50	0	1	1	blank2r.bmp	0	1	+	0	1	blank2r.bmp	492	1	GWWG	492	1	blank2r.bmp	572	3	spielen	866	1	!	-1	1	!	-1	0	0	0	0	0	0	0	0	0	0	0	0	0	0	0	0	0	0	0	0	0	0	0	0	0	0	0	0	0	0
070319	14:06:00	14:16:34	634049	5.0.10.0	5_exp_RW	13	Rpleas_acq	CS_B	GWWG	JXXJ	YDDY	VKKV	BZZB	MQQM	fair	retten	spielen	ehrlich	treu	schön	faul	rächen	strafen	eitel	tot	schlecht	1	acq_USunple_CSunple1_RW	acq4567_RW	5	17	400	1	300	300	360	46	0	1	1	blank2r.bmp	0	1	+	0	1	blank2r.bmp	492	1	YDDY	492	1	blank2r.bmp	572	2	rächen	866	1	!	1239	1	!	1266	0	0	0	0	0	0	0	0	0	0	0	0	0	0	0	0	0	0	0	0	0	0	0	0	0	0	0	0	0	0
070319	14:06:00	14:16:37	636221	5.0.10.0	5_exp_RW	13	Rpleas_acq	CS_B	GWWG	JXXJ	YDDY	VKKV	BZZB	MQQM	fair	retten	spielen	ehrlich	treu	schön	faul	rächen	strafen	eitel	tot	schlecht	1	acq_USpleas_CSpleas1_RW	acq4567_RW	5	18	400	1	300	300	378	50	0	1	1	blank2r.bmp	0	1	+	0	1	blank2r.bmp	492	1	GWWG	492	1	blank2r.bmp	572	1	fair	866	1	!	1239	1	!	1279	0	0	0	0	0	0	0	0	0	0	0	0	0	0	0	0	0	0	0	0	0	0	0	0	0	0	0	0	0	0
070319	14:06:00	14:16:39	638447	5.0.10.0	5_exp_RW	13	Rpleas_acq	CS_B	GWWG	JXXJ	YDDY	VKKV	BZZB	MQQM	fair	retten	spielen	ehrlich	treu	schön	faul	rächen	strafen	eitel	tot	schlecht	1	acq_USunple_CSunple1_RW	acq4567_RW	5	19	400	1	300	300	432	46	0	1	1	blank2r.bmp	0	1	+	0	1	blank2r.bmp	492	1	YDDY	492	1	blank2r.bmp	572	1	faul	866	1	!	1239	1	!	1332	0	0	0	0	0	0	0	0	0	0	0	0	0	0	0	0	0	0	0	0	0	0	0	0	0	0	0	0	0	0
070319	14:06:00	14:16:41	640646	5.0.10.0	5_exp_RW	13	Rpleas_acq	CS_B	GWWG	JXXJ	YDDY	VKKV	BZZB	MQQM	fair	retten	spielen	ehrlich	treu	schön	faul	rächen	strafen	eitel	tot	schlecht	1	acq_USunple_CSunple1_RW	acq4567_RW	5	20	400	1	300	300	411	46	0	1	1	blank2r.bmp	0	1	+	0	1	blank2r.bmp	492	1	YDDY	492	1	blank2r.bmp	572	3	strafen	866	1	!	1239	1	!	1306	0	0	0	0	0	0	0	0	0	0	0	0	0	0	0	0	0	0	0	0	0	0	0	0	0	0	0	0	0	0
070319	14:06:00	14:16:43	642885	5.0.10.0	5_exp_RW	13	Rpleas_acq	CS_B	GWWG	JXXJ	YDDY	VKKV	BZZB	MQQM	fair	retten	spielen	ehrlich	treu	schön	faul	rächen	strafen	eitel	tot	schlecht	1	acq_USunple_CSunple2_RW	acq4567_RW	5	21	400	1	300	300	441	46	0	1	1	blank2r.bmp	0	1	+	0	1	blank2r.bmp	492	1	VKKV	492	1	blank2r.bmp	572	2	tot	866	1	!	1239	1	!	1346	0	0	0	0	0	0	0	0	0	0	0	0	0	0	0	0	0	0	0	0	0	0	0	0	0	0	0	0	0	0
070319	14:06:00	14:16:46	645284	5.0.10.0	5_exp_RW	13	Rpleas_acq	CS_B	GWWG	JXXJ	YDDY	VKKV	BZZB	MQQM	fair	retten	spielen	ehrlich	treu	schön	faul	rächen	strafen	eitel	tot	schlecht	1	acq_USunple_CSunple1_RW	acq4567_RW	5	22	400	0	300	300	627	46	0	1	1	blank2r.bmp	0	1	+	0	1	blank2r.bmp	492	1	YDDY	492	1	blank2r.bmp	572	2	rächen	866	1	!	1239	1	!	-1	0	0	0	0	0	0	0	0	0	0	0	0	0	0	0	0	0	0	0	0	0	0	0	0	0	0	0	0	0	0
070319	14:06:00	14:16:48	647523	5.0.10.0	5_exp_RW	13	Rpleas_acq	CS_B	GWWG	JXXJ	YDDY	VKKV	BZZB	MQQM	fair	retten	spielen	ehrlich	treu	schön	faul	rächen	strafen	eitel	tot	schlecht	1	acq_USpleas_CSpleas2_RW	acq4567_RW	5	23	400	1	300	300	414	50	0	1	1	blank2r.bmp	0	1	+	0	1	blank2r.bmp	492	1	JXXJ	492	1	blank2r.bmp	572	1	ehrlich	866	1	!	1239	1	!	1319	0	0	0	0	0	0	0	0	0	0	0	0	0	0	0	0	0	0	0	0	0	0	0	0	0	0	0	0	0	0
070319	14:06:00	14:16:50	649776	5.0.10.0	5_exp_RW	13	Rpleas_acq	CS_B	GWWG	JXXJ	YDDY	VKKV	BZZB	MQQM	fair	retten	spielen	ehrlich	treu	schön	faul	rächen	strafen	eitel	tot	schlecht	1	acq_USunple_CSunple1_RW	acq4567_RW	5	24	400	1	300	300	464	46	0	1	1	blank2r.bmp	0	1	+	0	1	blank2r.bmp	492	1	YDDY	492	1	blank2r.bmp	572	2	rächen	866	1	!	1239	1	!	1359	0	0	0	0	0	0	0	0	0	0	0	0	0	0	0	0	0	0	0	0	0	0	0	0	0	0	0	0	0	0
070319	14:06:00	14:16:53	652215	5.0.10.0	5_exp_RW	13	Rpleas_acq	CS_B	GWWG	JXXJ	YDDY	VKKV	BZZB	MQQM	fair	retten	spielen	ehrlich	treu	schön	faul	rächen	strafen	eitel	tot	schlecht	1	acq_USpleas_CSpleas1_RW	acq4567_RW	5	25	400	0	300	300	656	50	0	1	1	blank2r.bmp	0	1	+	0	1	blank2r.bmp	492	1	GWWG	492	1	blank2r.bmp	572	2	retten	866	1	!	1239	1	!	-1	0	0	0	0	0	0	0	0	0	0	0	0	0	0	0	0	0	0	0	0	0	0	0	0	0	0	0	0	0	0
070319	14:06:00	14:16:55	654480	5.0.10.0	5_exp_RW	13	Rpleas_acq	CS_B	GWWG	JXXJ	YDDY	VKKV	BZZB	MQQM	fair	retten	spielen	ehrlich	treu	schön	faul	rächen	strafen	eitel	tot	schlecht	1	acq_USpleas_CSpleas1_RW	acq4567_RW	5	26	400	0	300	300	491	50	0	1	1	blank2r.bmp	0	1	+	0	1	blank2r.bmp	492	1	GWWG	492	1	blank2r.bmp	572	1	fair	866	1	!	1239	1	!	-1	0	0	0	0	0	0	0	0	0	0	0	0	0	0	0	0	0	0	0	0	0	0	0	0	0	0	0	0	0	0
070319	14:06:00	14:16:57	656679	5.0.10.0	5_exp_RW	13	Rpleas_acq	CS_B	GWWG	JXXJ	YDDY	VKKV	BZZB	MQQM	fair	retten	spielen	ehrlich	treu	schön	faul	rächen	strafen	eitel	tot	schlecht	1	acq_USunple_CSunple2_RW	acq4567_RW	5	27	400	1	300	300	395	50	0	0	1	blank2r.bmp	0	1	+	0	1	blank2r.bmp	492	1	VKKV	492	1	blank2r.bmp	572	1	eitel	866	1	!	1239	1	!	1292	0	0	0	0	0	0	0	0	0	0	0	0	0	0	0	0	0	0	0	0	0	0	0	0	0	0	0	0	0	0
070319	14:06:00	14:16:59	658932	5.0.10.0	5_exp_RW	13	Rpleas_acq	CS_B	GWWG	JXXJ	YDDY	VKKV	BZZB	MQQM	fair	retten	spielen	ehrlich	treu	schön	faul	rächen	strafen	eitel	tot	schlecht	1	acq_USunple_CSunple1_RW	acq4567_RW	5	28	400	0	300	300	484	46	0	1	1	blank2r.bmp	0	1	+	0	1	blank2r.bmp	492	1	YDDY	492	1	blank2r.bmp	572	3	strafen	866	1	!	1239	1	!	-1	0	0	0	0	0	0	0	0	0	0	0	0	0	0	0	0	0	0	0	0	0	0	0	0	0	0	0	0	0	0
070319	14:06:00	14:17:02	661238	5.0.10.0	5_exp_RW	13	Rpleas_acq	CS_B	GWWG	JXXJ	YDDY	VKKV	BZZB	MQQM	fair	retten	spielen	ehrlich	treu	schön	faul	rächen	strafen	eitel	tot	schlecht	1	acq_USpleas_CSpleas2_RW	acq4567_RW	5	29	400	0	300	300	531	50	0	1	1	blank2r.bmp	0	1	+	0	1	blank2r.bmp	492	1	JXXJ	492	1	blank2r.bmp	572	3	schön	866	1	!	1239	1	!	-1	0	0	0	0	0	0	0	0	0	0	0	0	0	0	0	0	0	0	0	0	0	0	0	0	0	0	0	0	0	0
070319	14:06:00	14:17:04	663463	5.0.10.0	5_exp_RW	13	Rpleas_acq	CS_B	GWWG	JXXJ	YDDY	VKKV	BZZB	MQQM	fair	retten	spielen	ehrlich	treu	schön	faul	rächen	strafen	eitel	tot	schlecht	1	acq_USpleas_CSpleas1_RW	acq4567_RW	5	30	400	1	300	300	417	50	0	1	1	blank2r.bmp	0	1	+	0	1	blank2r.bmp	492	1	GWWG	492	1	blank2r.bmp	572	2	retten	866	1	!	1239	1	!	1319	0	0	0	0	0	0	0	0	0	0	0	0	0	0	0	0	0	0	0	0	0	0	0	0	0	0	0	0	0	0
070319	14:06:00	14:17:06	665689	5.0.10.0	5_exp_RW	13	Rpleas_acq	CS_B	GWWG	JXXJ	YDDY	VKKV	BZZB	MQQM	fair	retten	spielen	ehrlich	treu	schön	faul	rächen	strafen	eitel	tot	schlecht	1	acq_USunple_CSunple2_RW	acq4567_RW	5	31	400	1	300	300	434	46	0	1	1	blank2r.bmp	0	1	+	0	1	blank2r.bmp	492	1	VKKV	492	1	blank2r.bmp	572	2	tot	866	1	!	1239	1	!	1332	0	0	0	0	0	0	0	0	0	0	0	0	0	0	0	0	0	0	0	0	0	0	0	0	0	0	0	0	0	0
070319	14:06:00	14:17:08	667888	5.0.10.0	5_exp_RW	13	Rpleas_acq	CS_B	GWWG	JXXJ	YDDY	VKKV	BZZB	MQQM	fair	retten	spielen	ehrlich	treu	schön	faul	rächen	strafen	eitel	tot	schlecht	1	acq_USpleas_CSpleas2_RW	acq4567_RW	5	32	400	1	300	300	401	50	0	1	1	blank2r.bmp	0	1	+	0	1	blank2r.bmp	492	1	JXXJ	492	1	blank2r.bmp	572	2	treu	866	1	!	1239	1	!	1306	0	0	0	0	0	0	0	0	0	0	0	0	0	0	0	0	0	0	0	0	0	0	0	0	0	0	0	0	0	0
070319	14:06:00	14:17:10	670047	5.0.10.0	5_exp_RW	13	Rpleas_acq	CS_B	GWWG	JXXJ	YDDY	VKKV	BZZB	MQQM	fair	retten	spielen	ehrlich	treu	schön	faul	rächen	strafen	eitel	tot	schlecht	1	acq_USpleas_CSpleas1_RW	acq4567_RW	5	33	400	1	300	300	346	50	0	1	1	blank2r.bmp	0	1	+	0	1	blank2r.bmp	492	1	GWWG	492	1	blank2r.bmp	572	3	spielen	866	1	!	1239	1	!	1252	0	0	0	0	0	0	0	0	0	0	0	0	0	0	0	0	0	0	0	0	0	0	0	0	0	0	0	0	0	0
070319	14:06:00	14:17:13	672433	5.0.10.0	5_exp_RW	13	Rpleas_acq	CS_B	GWWG	JXXJ	YDDY	VKKV	BZZB	MQQM	fair	retten	spielen	ehrlich	treu	schön	faul	rächen	strafen	eitel	tot	schlecht	1	acq_USpleas_CSpleas1_RW	acq4567_RW	5	34	400	0	300	300	614	50	0	1	1	blank2r.bmp	0	1	+	0	1	blank2r.bmp	492	1	GWWG	492	1	blank2r.bmp	572	1	fair	866	1	!	1239	1	!	-1	0	0	0	0	0	0	0	0	0	0	0	0	0	0	0	0	0	0	0	0	0	0	0	0	0	0	0	0	0	0
070319	14:06:00	14:17:15	674832	5.0.10.0	5_exp_RW	13	Rpleas_acq	CS_B	GWWG	JXXJ	YDDY	VKKV	BZZB	MQQM	fair	retten	spielen	ehrlich	treu	schön	faul	rächen	strafen	eitel	tot	schlecht	1	acq_USunple_CSunple2_RW	acq4567_RW	5	35	400	0	300	300	624	46	0	1	1	blank2r.bmp	0	1	+	0	1	blank2r.bmp	492	1	VKKV	492	1	blank2r.bmp	572	3	schlecht	866	1	!	1239	1	!	-1	0	0	0	0	0	0	0	0	0	0	0	0	0	0	0	0	0	0	0	0	0	0	0	0	0	0	0	0	0	0
070319	14:06:00	14:17:17	676885	5.0.10.0	5_exp_RW	13	Rpleas_acq	CS_B	GWWG	JXXJ	YDDY	VKKV	BZZB	MQQM	fair	retten	spielen	ehrlich	treu	schön	faul	rächen	strafen	eitel	tot	schlecht	1	acq_USunple_CSunple2_RW	acq4567_RW	5	36	400	0	300	300	259	50	0	0	1	blank2r.bmp	0	1	+	0	1	blank2r.bmp	492	1	VKKV	492	1	blank2r.bmp	572	3	schlecht	866	1	!	-1	1	!	-1	0	0	0	0	0	0	0	0	0	0	0	0	0	0	0	0	0	0	0	0	0	0	0	0	0	0	0	0	0	0
070319	14:06:00	14:17:20	679150	5.0.10.0	5_exp_RW	13	Rpleas_acq	CS_B	GWWG	JXXJ	YDDY	VKKV	BZZB	MQQM	fair	retten	spielen	ehrlich	treu	schön	faul	rächen	strafen	eitel	tot	schlecht	1	acq_USpleas_CSpleas2_RW	acq4567_RW	5	37	400	1	300	300	462	50	0	1	1	blank2r.bmp	0	1	+	0	1	blank2r.bmp	492	1	JXXJ	492	1	blank2r.bmp	572	1	ehrlich	866	1	!	1239	1	!	1359	0	0	0	0	0	0	0	0	0	0	0	0	0	0	0	0	0	0	0	0	0	0	0	0	0	0	0	0	0	0
070319	14:06:00	14:17:22	681309	5.0.10.0	5_exp_RW	13	Rpleas_acq	CS_B	GWWG	JXXJ	YDDY	VKKV	BZZB	MQQM	fair	retten	spielen	ehrlich	treu	schön	faul	rächen	strafen	eitel	tot	schlecht	1	acq_USpleas_CSpleas2_RW	acq4567_RW	5	38	400	1	300	300	346	50	0	1	1	blank2r.bmp	0	1	+	0	1	blank2r.bmp	492	1	JXXJ	492	1	blank2r.bmp	572	3	schön	866	1	!	1239	1	!	1252	0	0	0	0	0	0	0	0	0	0	0	0	0	0	0	0	0	0	0	0	0	0	0	0	0	0	0	0	0	0
070319	14:06:00	14:17:24	683562	5.0.10.0	5_exp_RW	13	Rpleas_acq	CS_B	GWWG	JXXJ	YDDY	VKKV	BZZB	MQQM	fair	retten	spielen	ehrlich	treu	schön	faul	rächen	strafen	eitel	tot	schlecht	1	acq_USunple_CSunple1_RW	acq4567_RW	5	39	400	0	300	300	488	46	0	1	1	blank2r.bmp	0	1	+	0	1	blank2r.bmp	492	1	YDDY	492	1	blank2r.bmp	572	1	faul	866	1	!	1239	1	!	-1	0	0	0	0	0	0	0	0	0	0	0	0	0	0	0	0	0	0	0	0	0	0	0	0	0	0	0	0	0	0
070319	14:06:00	14:17:26	685721	5.0.10.0	5_exp_RW	13	Rpleas_acq	CS_B	GWWG	JXXJ	YDDY	VKKV	BZZB	MQQM	fair	retten	spielen	ehrlich	treu	schön	faul	rächen	strafen	eitel	tot	schlecht	1	acq_USunple_CSunple1_RW	acq4567_RW	5	40	400	1	300	300	358	50	0	0	1	blank2r.bmp	0	1	+	0	1	blank2r.bmp	492	1	YDDY	492	1	blank2r.bmp	572	1	faul	866	1	!	1239	1	!	1252	0	0	0	0	0	0	0	0	0	0	0	0	0	0	0	0	0	0	0	0	0	0	0	0	0	0	0	0	0	0
070319	14:06:00	14:17:28	687907	5.0.10.0	5_exp_RW	13	Rpleas_acq	CS_B	GWWG	JXXJ	YDDY	VKKV	BZZB	MQQM	fair	retten	spielen	ehrlich	treu	schön	faul	rächen	strafen	eitel	tot	schlecht	1	acq_USunple_CSunple2_RW	acq4567_RW	5	41	400	1	300	300	395	46	0	1	1	blank2r.bmp	0	1	+	0	1	blank2r.bmp	492	1	VKKV	492	1	blank2r.bmp	572	2	tot	866	1	!	1239	1	!	1292	0	0	0	0	0	0	0	0	0	0	0	0	0	0	0	0	0	0	0	0	0	0	0	0	0	0	0	0	0	0
070319	14:06:00	14:17:31	690079	5.0.10.0	5_exp_RW	13	Rpleas_acq	CS_B	GWWG	JXXJ	YDDY	VKKV	BZZB	MQQM	fair	retten	spielen	ehrlich	treu	schön	faul	rächen	strafen	eitel	tot	schlecht	1	acq_USunple_CSunple2_RW	acq4567_RW	5	42	400	1	300	300	380	50	0	0	1	blank2r.bmp	0	1	+	0	1	blank2r.bmp	492	1	VKKV	492	1	blank2r.bmp	572	1	eitel	866	1	!	1239	1	!	1279	0	0	0	0	0	0	0	0	0	0	0	0	0	0	0	0	0	0	0	0	0	0	0	0	0	0	0	0	0	0
070319	14:06:00	14:17:33	692345	5.0.10.0	5_exp_RW	13	Rpleas_acq	CS_B	GWWG	JXXJ	YDDY	VKKV	BZZB	MQQM	fair	retten	spielen	ehrlich	treu	schön	faul	rächen	strafen	eitel	tot	schlecht	1	acq_USpleas_CSpleas2_RW	acq4567_RW	5	43	400	1	300	300	466	50	0	1	1	blank2r.bmp	0	1	+	0	1	blank2r.bmp	492	1	JXXJ	492	1	blank2r.bmp	572	2	treu	866	1	!	1239	1	!	1372	0	0	0	0	0	0	0	0	0	0	0	0	0	0	0	0	0	0	0	0	0	0	0	0	0	0	0	0	0	0
070319	14:06:00	14:17:35	694517	5.0.10.0	5_exp_RW	13	Rpleas_acq	CS_B	GWWG	JXXJ	YDDY	VKKV	BZZB	MQQM	fair	retten	spielen	ehrlich	treu	schön	faul	rächen	strafen	eitel	tot	schlecht	1	acq_USpleas_CSpleas1_RW	acq4567_RW	5	44	400	1	300	300	381	50	0	1	1	blank2r.bmp	0	1	+	0	1	blank2r.bmp	492	1	GWWG	492	1	blank2r.bmp	572	3	spielen	866	1	!	1239	1	!	1279	0	0	0	0	0	0	0	0	0	0	0	0	0	0	0	0	0	0	0	0	0	0	0	0	0	0	0	0	0	0
070319	14:06:00	14:17:37	696743	5.0.10.0	5_exp_RW	13	Rpleas_acq	CS_B	GWWG	JXXJ	YDDY	VKKV	BZZB	MQQM	fair	retten	spielen	ehrlich	treu	schön	faul	rächen	strafen	eitel	tot	schlecht	1	acq_USpleas_CSpleas1_RW	acq4567_RW	5	45	400	1	300	300	418	50	0	1	1	blank2r.bmp	0	1	+	0	1	blank2r.bmp	492	1	GWWG	492	1	blank2r.bmp	572	2	retten	866	1	!	1239	1	!	1319	0	0	0	0	0	0	0	0	0	0	0	0	0	0	0	0	0	0	0	0	0	0	0	0	0	0	0	0	0	0
070319	14:06:00	14:17:39	698889	5.0.10.0	5_exp_RW	13	Rpleas_acq	CS_B	GWWG	JXXJ	YDDY	VKKV	BZZB	MQQM	fair	retten	spielen	ehrlich	treu	schön	faul	rächen	strafen	eitel	tot	schlecht	1	acq_USunple_CSunple1_RW	acq4567_RW	5	46	400	1	300	300	353	50	0	0	1	blank2r.bmp	0	1	+	0	1	blank2r.bmp	492	1	YDDY	492	1	blank2r.bmp	572	3	strafen	866	1	!	1239	1	!	1252	0	0	0	0	0	0	0	0	0	0	0	0	0	0	0	0	0	0	0	0	0	0	0	0	0	0	0	0	0	0
070319	14:06:00	14:17:42	701195	5.0.10.0	5_exp_RW	13	Rpleas_acq	CS_B	GWWG	JXXJ	YDDY	VKKV	BZZB	MQQM	fair	retten	spielen	ehrlich	treu	schön	faul	rächen	strafen	eitel	tot	schlecht	1	acq_USunple_CSunple2_RW	acq4567_RW	5	47	400	0	300	300	543	46	0	1	1	blank2r.bmp	0	1	+	0	1	blank2r.bmp	492	1	VKKV	492	1	blank2r.bmp	572	3	schlecht	866	1	!	1239	1	!	-1	0	0	0	0	0	0	0	0	0	0	0	0	0	0	0	0	0	0	0	0	0	0	0	0	0	0	0	0	0	0
070319	14:06:00	14:17:44	703487	5.0.10.0	5_exp_RW	13	Rpleas_acq	CS_B	GWWG	JXXJ	YDDY	VKKV	BZZB	MQQM	fair	retten	spielen	ehrlich	treu	schön	faul	rächen	strafen	eitel	tot	schlecht	1	acq_USpleas_CSpleas2_RW	acq4567_RW	5	48	400	0	300	300	495	50	0	1	1	blank2r.bmp	0	1	+	0	1	blank2r.bmp	492	1	JXXJ	492	1	blank2r.bmp	572	1	ehrlich	866	1	!	1239	1	!	-1	0	0	0	0	0	0	0	0	0	0	0	0	0	0	0	0	0	0	0	0	0	0	0	0	0	0	0	0	0	0
070319	14:06:00	14:17:46	705686	5.0.10.0	5_exp_RW	13	Rpleas_acq	CS_B	GWWG	JXXJ	YDDY	VKKV	BZZB	MQQM	fair	retten	spielen	ehrlich	treu	schön	faul	rächen	strafen	eitel	tot	schlecht	1	acq_USunple_CSunple1_RW	acq4567_RW	5	49	400	1	300	300	383	46	0	1	1	blank2r.bmp	0	1	+	0	1	blank2r.bmp	492	1	YDDY	492	1	blank2r.bmp	572	2	rächen	866	1	!	1239	1	!	1279	0	0	0	0	0	0	0	0	0	0	0	0	0	0	0	0	0	0	0	0	0	0	0	0	0	0	0	0	0	0
070319	14:06:00	14:17:48	707952	5.0.10.0	5_exp_RW	13	Rpleas_acq	CS_B	GWWG	JXXJ	YDDY	VKKV	BZZB	MQQM	fair	retten	spielen	ehrlich	treu	schön	faul	rächen	strafen	eitel	tot	schlecht	1	acq_USunple_CSunple2_RW	acq4567_RW	5	50	400	0	300	300	479	50	0	0	1	blank2r.bmp	0	1	+	0	1	blank2r.bmp	492	1	VKKV	492	1	blank2r.bmp	572	1	eitel	866	1	!	1239	1	!	-1	0	0	0	0	0	0	0	0	0	0	0	0	0	0	0	0	0	0	0	0	0	0	0	0	0	0	0	0	0	0
070319	14:06:00	14:17:51	710191	5.0.10.0	5_exp_RW	13	Rpleas_acq	CS_B	GWWG	JXXJ	YDDY	VKKV	BZZB	MQQM	fair	retten	spielen	ehrlich	treu	schön	faul	rächen	strafen	eitel	tot	schlecht	1	acq_USpleas_CSpleas2_RW	acq4567_RW	5	51	400	1	300	300	433	50	0	1	1	blank2r.bmp	0	1	+	0	1	blank2r.bmp	492	1	JXXJ	492	1	blank2r.bmp	572	1	ehrlich	866	1	!	1239	1	!	1332	0	0	0	0	0	0	0	0	0	0	0	0	0	0	0	0	0	0	0	0	0	0	0	0	0	0	0	0	0	0
070319	14:06:00	14:17:53	712364	5.0.10.0	5_exp_RW	13	Rpleas_acq	CS_B	GWWG	JXXJ	YDDY	VKKV	BZZB	MQQM	fair	retten	spielen	ehrlich	treu	schön	faul	rächen	strafen	eitel	tot	schlecht	1	acq_USpleas_CSpleas2_RW	acq4567_RW	5	52	400	1	300	300	374	50	0	1	1	blank2r.bmp	0	1	+	0	1	blank2r.bmp	492	1	JXXJ	492	1	blank2r.bmp	572	2	treu	866	1	!	1239	1	!	1279	0	0	0	0	0	0	0	0	0	0	0	0	0	0	0	0	0	0	0	0	0	0	0	0	0	0	0	0	0	0
070319	14:06:00	14:17:55	714536	5.0.10.0	5_exp_RW	13	Rpleas_acq	CS_B	GWWG	JXXJ	YDDY	VKKV	BZZB	MQQM	fair	retten	spielen	ehrlich	treu	schön	faul	rächen	strafen	eitel	tot	schlecht	1	acq_USpleas_CSpleas1_RW	acq4567_RW	5	53	400	1	300	300	367	50	0	1	1	blank2r.bmp	0	1	+	0	1	blank2r.bmp	492	1	GWWG	492	1	blank2r.bmp	572	3	spielen	866	1	!	1239	1	!	1266	0	0	0	0	0	0	0	0	0	0	0	0	0	0	0	0	0	0	0	0	0	0	0	0	0	0	0	0	0	0
070319	14:06:00	14:17:57	716788	5.0.10.0	5_exp_RW	13	Rpleas_acq	CS_B	GWWG	JXXJ	YDDY	VKKV	BZZB	MQQM	fair	retten	spielen	ehrlich	treu	schön	faul	rächen	strafen	eitel	tot	schlecht	1	acq_USpleas_CSpleas1_RW	acq4567_RW	5	54	400	1	300	300	452	50	0	1	1	blank2r.bmp	0	1	+	0	1	blank2r.bmp	492	1	GWWG	492	1	blank2r.bmp	572	1	fair	866	1	!	1239	1	!	1359	0	0	0	0	0	0	0	0	0	0	0	0	0	0	0	0	0	0	0	0	0	0	0	0	0	0	0	0	0	0
070319	14:06:00	14:17:59	718988	5.0.10.0	5_exp_RW	13	Rpleas_acq	CS_B	GWWG	JXXJ	YDDY	VKKV	BZZB	MQQM	fair	retten	spielen	ehrlich	treu	schön	faul	rächen	strafen	eitel	tot	schlecht	1	acq_USpleas_CSpleas2_RW	acq4567_RW	5	55	400	1	300	300	408	50	0	1	1	blank2r.bmp	0	1	+	0	1	blank2r.bmp	492	1	JXXJ	492	1	blank2r.bmp	572	3	schön	866	1	!	1239	1	!	1306	0	0	0	0	0	0	0	0	0	0	0	0	0	0	0	0	0	0	0	0	0	0	0	0	0	0	0	0	0	0
070319	14:06:00	14:18:02	721147	5.0.10.0	5_exp_RW	13	Rpleas_acq	CS_B	GWWG	JXXJ	YDDY	VKKV	BZZB	MQQM	fair	retten	spielen	ehrlich	treu	schön	faul	rächen	strafen	eitel	tot	schlecht	1	acq_USunple_CSunple1_RW	acq4567_RW	5	56	400	1	300	300	371	46	0	1	1	blank2r.bmp	0	1	+	0	1	blank2r.bmp	492	1	YDDY	492	1	blank2r.bmp	572	1	faul	866	1	!	1239	1	!	1266	0	0	0	0	0	0	0	0	0	0	0	0	0	0	0	0	0	0	0	0	0	0	0	0	0	0	0	0	0	0
070319	14:06:00	14:18:04	723319	5.0.10.0	5_exp_RW	13	Rpleas_acq	CS_B	GWWG	JXXJ	YDDY	VKKV	BZZB	MQQM	fair	retten	spielen	ehrlich	treu	schön	faul	rächen	strafen	eitel	tot	schlecht	1	acq_USunple_CSunple2_RW	acq4567_RW	5	57	400	1	300	300	369	46	0	1	1	blank2r.bmp	0	1	+	0	1	blank2r.bmp	492	1	VKKV	492	1	blank2r.bmp	572	2	tot	866	1	!	1239	1	!	1266	0	0	0	0	0	0	0	0	0	0	0	0	0	0	0	0	0	0	0	0	0	0	0	0	0	0	0	0	0	0
070319	14:06:00	14:18:06	725412	5.0.10.0	5_exp_RW	13	Rpleas_acq	CS_B	GWWG	JXXJ	YDDY	VKKV	BZZB	MQQM	fair	retten	spielen	ehrlich	treu	schön	faul	rächen	strafen	eitel	tot	schlecht	1	acq_USpleas_CSpleas1_RW	acq4567_RW	5	58	400	0	300	300	324	46	0	0	1	blank2r.bmp	0	1	+	0	1	blank2r.bmp	492	1	GWWG	492	1	blank2r.bmp	572	2	retten	866	1	!	-1	1	!	-1	0	0	0	0	0	0	0	0	0	0	0	0	0	0	0	0	0	0	0	0	0	0	0	0	0	0	0	0	0	0
070319	14:06:00	14:18:08	727637	5.0.10.0	5_exp_RW	13	Rpleas_acq	CS_B	GWWG	JXXJ	YDDY	VKKV	BZZB	MQQM	fair	retten	spielen	ehrlich	treu	schön	faul	rächen	strafen	eitel	tot	schlecht	1	acq_USunple_CSunple1_RW	acq4567_RW	5	59	400	1	300	300	421	46	0	1	1	blank2r.bmp	0	1	+	0	1	blank2r.bmp	492	1	YDDY	492	1	blank2r.bmp	572	2	rächen	866	1	!	1239	1	!	1319	0	0	0	0	0	0	0	0	0	0	0	0	0	0	0	0	0	0	0	0	0	0	0	0	0	0	0	0	0	0
070319	14:06:00	14:18:10	729823	5.0.10.0	5_exp_RW	13	Rpleas_acq	CS_B	GWWG	JXXJ	YDDY	VKKV	BZZB	MQQM	fair	retten	spielen	ehrlich	treu	schön	faul	rächen	strafen	eitel	tot	schlecht	1	acq_USunple_CSunple1_RW	acq4567_RW	5	60	400	1	300	300	387	50	0	0	1	blank2r.bmp	0	1	+	0	1	blank2r.bmp	492	1	YDDY	492	1	blank2r.bmp	572	3	strafen	866	1	!	1239	1	!	1292	0	0	0	0	0	0	0	0	0	0	0	0	0	0	0	0	0	0	0	0	0	0	0	0	0	0	0	0	0	0
070319	14:06:00	14:18:13	732196	5.0.10.0	5_exp_RW	13	Rpleas_acq	CS_B	GWWG	JXXJ	YDDY	VKKV	BZZB	MQQM	fair	retten	spielen	ehrlich	treu	schön	faul	rächen	strafen	eitel	tot	schlecht	1	acq_USpleas_CSpleas2_RW	acq4567_RW	5	61	400	0	300	300	603	50	0	1	1	blank2r.bmp	0	1	+	0	1	blank2r.bmp	492	1	JXXJ	492	1	blank2r.bmp	572	3	schön	866	1	!	1239	1	!	-1	0	0	0	0	0	0	0	0	0	0	0	0	0	0	0	0	0	0	0	0	0	0	0	0	0	0	0	0	0	0
070319	14:06:00	14:18:15	734421	5.0.10.0	5_exp_RW	13	Rpleas_acq	CS_B	GWWG	JXXJ	YDDY	VKKV	BZZB	MQQM	fair	retten	spielen	ehrlich	treu	schön	faul	rächen	strafen	eitel	tot	schlecht	1	acq_USunple_CSunple2_RW	acq4567_RW	5	62	400	1	300	300	422	50	0	0	1	blank2r.bmp	0	1	+	0	1	blank2r.bmp	492	1	VKKV	492	1	blank2r.bmp	572	1	eitel	866	1	!	1239	1	!	1319	0	0	0	0	0	0	0	0	0	0	0	0	0	0	0	0	0	0	0	0	0	0	0	0	0	0	0	0	0	0
070319	14:06:00	14:18:17	736687	5.0.10.0	5_exp_RW	13	Rpleas_acq	CS_B	GWWG	JXXJ	YDDY	VKKV	BZZB	MQQM	fair	retten	spielen	ehrlich	treu	schön	faul	rächen	strafen	eitel	tot	schlecht	1	acq_USpleas_CSpleas2_RW	acq4567_RW	5	63	400	0	300	300	479	50	0	1	1	blank2r.bmp	0	1	+	0	1	blank2r.bmp	492	1	JXXJ	492	1	blank2r.bmp	572	1	ehrlich	866	1	!	1239	1	!	-1	0	0	0	0	0	0	0	0	0	0	0	0	0	0	0	0	0	0	0	0	0	0	0	0	0	0	0	0	0	0
070319	14:06:00	14:18:19	738899	5.0.10.0	5_exp_RW	13	Rpleas_acq	CS_B	GWWG	JXXJ	YDDY	VKKV	BZZB	MQQM	fair	retten	spielen	ehrlich	treu	schön	faul	rächen	strafen	eitel	tot	schlecht	1	acq_USunple_CSunple1_RW	acq4567_RW	5	64	400	1	300	300	402	46	0	1	1	blank2r.bmp	0	1	+	0	1	blank2r.bmp	492	1	YDDY	492	1	blank2r.bmp	572	2	rächen	866	1	!	1239	1	!	1306	0	0	0	0	0	0	0	0	0	0	0	0	0	0	0	0	0	0	0	0	0	0	0	0	0	0	0	0	0	0
070319	14:06:00	14:18:21	740979	5.0.10.0	5_exp_RW	13	Rpleas_acq	CS_B	GWWG	JXXJ	YDDY	VKKV	BZZB	MQQM	fair	retten	spielen	ehrlich	treu	schön	faul	rächen	strafen	eitel	tot	schlecht	1	acq_USpleas_CSpleas1_RW	acq4567_RW	5	65	400	0	300	300	310	50	0	1	1	blank2r.bmp	0	1	+	0	1	blank2r.bmp	492	1	GWWG	492	1	blank2r.bmp	572	3	spielen	866	1	!	-1	1	!	-1	0	0	0	0	0	0	0	0	0	0	0	0	0	0	0	0	0	0	0	0	0	0	0	0	0	0	0	0	0	0
070319	14:06:00	14:18:23	743058	5.0.10.0	5_exp_RW	13	Rpleas_acq	CS_B	GWWG	JXXJ	YDDY	VKKV	BZZB	MQQM	fair	retten	spielen	ehrlich	treu	schön	faul	rächen	strafen	eitel	tot	schlecht	1	acq_USpleas_CSpleas1_RW	acq4567_RW	5	66	400	0	300	300	298	46	0	0	1	blank2r.bmp	0	1	+	0	1	blank2r.bmp	492	1	GWWG	492	1	blank2r.bmp	572	1	fair	866	1	!	-1	1	!	-1	0	0	0	0	0	0	0	0	0	0	0	0	0	0	0	0	0	0	0	0	0	0	0	0	0	0	0	0	0	0
070319	14:06:00	14:18:26	745364	5.0.10.0	5_exp_RW	13	Rpleas_acq	CS_B	GWWG	JXXJ	YDDY	VKKV	BZZB	MQQM	fair	retten	spielen	ehrlich	treu	schön	faul	rächen	strafen	eitel	tot	schlecht	1	acq_USunple_CSunple2_RW	acq4567_RW	5	67	400	0	300	300	517	46	0	1	1	blank2r.bmp	0	1	+	0	1	blank2r.bmp	492	1	VKKV	492	1	blank2r.bmp	572	2	tot	866	1	!	1239	1	!	-1	0	0	0	0	0	0	0	0	0	0	0	0	0	0	0	0	0	0	0	0	0	0	0	0	0	0	0	0	0	0
070319	14:06:00	14:18:28	747576	5.0.10.0	5_exp_RW	13	Rpleas_acq	CS_B	GWWG	JXXJ	YDDY	VKKV	BZZB	MQQM	fair	retten	spielen	ehrlich	treu	schön	faul	rächen	strafen	eitel	tot	schlecht	1	acq_USpleas_CSpleas1_RW	acq4567_RW	5	68	400	1	300	300	412	50	0	1	1	blank2r.bmp	0	1	+	0	1	blank2r.bmp	492	1	GWWG	492	1	blank2r.bmp	572	2	retten	866	1	!	1239	1	!	1319	0	0	0	0	0	0	0	0	0	0	0	0	0	0	0	0	0	0	0	0	0	0	0	0	0	0	0	0	0	0
070319	14:06:00	14:18:30	749842	5.0.10.0	5_exp_RW	13	Rpleas_acq	CS_B	GWWG	JXXJ	YDDY	VKKV	BZZB	MQQM	fair	retten	spielen	ehrlich	treu	schön	faul	rächen	strafen	eitel	tot	schlecht	1	acq_USpleas_CSpleas2_RW	acq4567_RW	5	69	400	0	300	300	505	50	0	1	1	blank2r.bmp	0	1	+	0	1	blank2r.bmp	492	1	JXXJ	492	1	blank2r.bmp	572	2	treu	866	1	!	1239	1	!	-1	0	0	0	0	0	0	0	0	0	0	0	0	0	0	0	0	0	0	0	0	0	0	0	0	0	0	0	0	0	0
070319	14:06:00	14:18:33	752107	5.0.10.0	5_exp_RW	13	Rpleas_acq	CS_B	GWWG	JXXJ	YDDY	VKKV	BZZB	MQQM	fair	retten	spielen	ehrlich	treu	schön	faul	rächen	strafen	eitel	tot	schlecht	1	acq_USunple_CSunple1_RW	acq4567_RW	5	70	400	0	300	300	482	46	0	1	1	blank2r.bmp	0	1	+	0	1	blank2r.bmp	492	1	YDDY	492	1	blank2r.bmp	572	3	strafen	866	1	!	1239	1	!	-1	0	0	0	0	0	0	0	0	0	0	0	0	0	0	0	0	0	0	0	0	0	0	0	0	0	0	0	0	0	0
070319	14:06:00	14:18:35	754360	5.0.10.0	5_exp_RW	13	Rpleas_acq	CS_B	GWWG	JXXJ	YDDY	VKKV	BZZB	MQQM	fair	retten	spielen	ehrlich	treu	schön	faul	rächen	strafen	eitel	tot	schlecht	1	acq_USunple_CSunple1_RW	acq4567_RW	5	71	400	1	300	300	442	46	0	1	1	blank2r.bmp	0	1	+	0	1	blank2r.bmp	492	1	YDDY	492	1	blank2r.bmp	572	1	faul	866	1	!	1239	1	!	1346	0	0	0	0	0	0	0	0	0	0	0	0	0	0	0	0	0	0	0	0	0	0	0	0	0	0	0	0	0	0
070319	14:06:00	14:18:37	756532	5.0.10.0	5_exp_RW	13	Rpleas_acq	CS_B	GWWG	JXXJ	YDDY	VKKV	BZZB	MQQM	fair	retten	spielen	ehrlich	treu	schön	faul	rächen	strafen	eitel	tot	schlecht	1	acq_USpleas_CSpleas1_RW	acq4567_RW	5	72	400	1	300	300	378	50	0	1	1	blank2r.bmp	0	1	+	0	1	blank2r.bmp	492	1	GWWG	492	1	blank2r.bmp	572	3	spielen	866	1	!	1239	1	!	1279	0	0	0	0	0	0	0	0	0	0	0	0	0	0	0	0	0	0	0	0	0	0	0	0	0	0	0	0	0	0
070319	14:06:00	14:18:39	758598	5.0.10.0	5_exp_RW	13	Rpleas_acq	CS_B	GWWG	JXXJ	YDDY	VKKV	BZZB	MQQM	fair	retten	spielen	ehrlich	treu	schön	faul	rächen	strafen	eitel	tot	schlecht	1	acq_USpleas_CSpleas2_RW	acq4567_RW	5	73	400	0	300	300	300	50	0	1	1	blank2r.bmp	0	1	+	0	1	blank2r.bmp	492	1	JXXJ	492	1	blank2r.bmp	572	3	schön	866	1	!	-1	1	!	-1	0	0	0	0	0	0	0	0	0	0	0	0	0	0	0	0	0	0	0	0	0	0	0	0	0	0	0	0	0	0
070319	14:06:00	14:18:41	760811	5.0.10.0	5_exp_RW	13	Rpleas_acq	CS_B	GWWG	JXXJ	YDDY	VKKV	BZZB	MQQM	fair	retten	spielen	ehrlich	treu	schön	faul	rächen	strafen	eitel	tot	schlecht	1	acq_USunple_CSunple2_RW	acq4567_RW	5	74	400	1	300	300	405	46	0	1	1	blank2r.bmp	0	1	+	0	1	blank2r.bmp	492	1	VKKV	492	1	blank2r.bmp	572	3	schlecht	866	1	!	1239	1	!	1306	0	0	0	0	0	0	0	0	0	0	0	0	0	0	0	0	0	0	0	0	0	0	0	0	0	0	0	0	0	0
070319	14:06:00	14:18:43	763063	5.0.10.0	5_exp_RW	13	Rpleas_acq	CS_B	GWWG	JXXJ	YDDY	VKKV	BZZB	MQQM	fair	retten	spielen	ehrlich	treu	schön	faul	rächen	strafen	eitel	tot	schlecht	1	acq_USunple_CSunple2_RW	acq4567_RW	5	75	400	1	300	300	458	46	0	1	1	blank2r.bmp	0	1	+	0	1	blank2r.bmp	492	1	VKKV	492	1	blank2r.bmp	572	2	tot	866	1	!	1239	1	!	1359	0	0	0	0	0	0	0	0	0	0	0	0	0	0	0	0	0	0	0	0	0	0	0	0	0	0	0	0	0	0
070319	14:06:00	14:18:46	765275	5.0.10.0	5_exp_RW	13	Rpleas_acq	CS_B	GWWG	JXXJ	YDDY	VKKV	BZZB	MQQM	fair	retten	spielen	ehrlich	treu	schön	faul	rächen	strafen	eitel	tot	schlecht	1	acq_USunple_CSunple1_RW	acq4567_RW	5	76	400	1	300	300	399	46	0	1	1	blank2r.bmp	0	1	+	0	1	blank2r.bmp	492	1	YDDY	492	1	blank2r.bmp	572	1	faul	866	1	!	1239	1	!	1306	0	0	0	0	0	0	0	0	0	0	0	0	0	0	0	0	0	0	0	0	0	0	0	0	0	0	0	0	0	0
070319	14:06:00	14:18:48	767368	5.0.10.0	5_exp_RW	13	Rpleas_acq	CS_B	GWWG	JXXJ	YDDY	VKKV	BZZB	MQQM	fair	retten	spielen	ehrlich	treu	schön	faul	rächen	strafen	eitel	tot	schlecht	1	acq_USunple_CSunple2_RW	acq4567_RW	5	77	400	0	300	300	328	46	0	1	1	blank2r.bmp	0	1	+	0	1	blank2r.bmp	492	1	VKKV	492	1	blank2r.bmp	572	1	eitel	866	1	!	-1	1	!	-1	0	0	0	0	0	0	0	0	0	0	0	0	0	0	0	0	0	0	0	0	0	0	0	0	0	0	0	0	0	0
070319	14:06:00	14:18:50	769594	5.0.10.0	5_exp_RW	13	Rpleas_acq	CS_B	GWWG	JXXJ	YDDY	VKKV	BZZB	MQQM	fair	retten	spielen	ehrlich	treu	schön	faul	rächen	strafen	eitel	tot	schlecht	1	acq_USunple_CSunple1_RW	acq4567_RW	5	78	400	1	300	300	423	46	0	1	1	blank2r.bmp	0	1	+	0	1	blank2r.bmp	492	1	YDDY	492	1	blank2r.bmp	572	2	rächen	866	1	!	1239	1	!	1319	0	0	0	0	0	0	0	0	0	0	0	0	0	0	0	0	0	0	0	0	0	0	0	0	0	0	0	0	0	0
070319	14:06:00	14:18:52	771673	5.0.10.0	5_exp_RW	13	Rpleas_acq	CS_B	GWWG	JXXJ	YDDY	VKKV	BZZB	MQQM	fair	retten	spielen	ehrlich	treu	schön	faul	rächen	strafen	eitel	tot	schlecht	1	acq_USpleas_CSpleas1_RW	acq4567_RW	5	79	400	0	300	300	308	46	0	0	1	blank2r.bmp	0	1	+	0	1	blank2r.bmp	492	1	GWWG	492	1	blank2r.bmp	572	1	fair	866	1	!	-1	1	!	-1	0	0	0	0	0	0	0	0	0	0	0	0	0	0	0	0	0	0	0	0	0	0	0	0	0	0	0	0	0	0
070319	14:06:00	14:18:54	773925	5.0.10.0	5_exp_RW	13	Rpleas_acq	CS_B	GWWG	JXXJ	YDDY	VKKV	BZZB	MQQM	fair	retten	spielen	ehrlich	treu	schön	faul	rächen	strafen	eitel	tot	schlecht	1	acq_USpleas_CSpleas2_RW	acq4567_RW	5	80	400	1	300	300	441	50	0	1	1	blank2r.bmp	0	1	+	0	1	blank2r.bmp	492	1	JXXJ	492	1	blank2r.bmp	572	1	ehrlich	866	1	!	1239	1	!	1346	0	0	0	0	0	0	0	0	0	0	0	0	0	0	0	0	0	0	0	0	0	0	0	0	0	0	0	0	0	0
070319	14:06:00	14:19:15	794264	5.0.10.0	5_exp_RW	13	Rpleas_acq	CS_B	GWWG	JXXJ	YDDY	VKKV	BZZB	MQQM	fair	retten	spielen	ehrlich	treu	schön	faul	rächen	strafen	eitel	tot	schlecht	1	acq_USunple_CSunple1_RW	acq4567_RW	6	1	400	1	300	300	439	46	0	1	1	blank2r.bmp	0	1	+	0	1	blank2r.bmp	492	1	YDDY	492	1	blank2r.bmp	572	3	strafen	866	1	!	1239	1	!	1346	0	0	0	0	0	0	0	0	0	0	0	0	0	0	0	0	0	0	0	0	0	0	0	0	0	0	0	0	0	0
070319	14:06:00	14:19:17	796449	5.0.10.0	5_exp_RW	13	Rpleas_acq	CS_B	GWWG	JXXJ	YDDY	VKKV	BZZB	MQQM	fair	retten	spielen	ehrlich	treu	schön	faul	rächen	strafen	eitel	tot	schlecht	1	acq_USunple_CSunple1_RW	acq4567_RW	6	2	400	1	300	300	389	46	0	1	1	blank2r.bmp	0	1	+	0	1	blank2r.bmp	492	1	YDDY	492	1	blank2r.bmp	572	1	faul	866	1	!	1239	1	!	1292	0	0	0	0	0	0	0	0	0	0	0	0	0	0	0	0	0	0	0	0	0	0	0	0	0	0	0	0	0	0
070319	14:06:00	14:19:19	798609	5.0.10.0	5_exp_RW	13	Rpleas_acq	CS_B	GWWG	JXXJ	YDDY	VKKV	BZZB	MQQM	fair	retten	spielen	ehrlich	treu	schön	faul	rächen	strafen	eitel	tot	schlecht	1	acq_USunple_CSunple1_RW	acq4567_RW	6	3	400	1	300	300	364	46	0	1	1	blank2r.bmp	0	1	+	0	1	blank2r.bmp	492	1	YDDY	492	1	blank2r.bmp	572	3	strafen	866	1	!	1239	1	!	1266	0	0	0	0	0	0	0	0	0	0	0	0	0	0	0	0	0	0	0	0	0	0	0	0	0	0	0	0	0	0
070319	14:06:00	14:19:21	800874	5.0.10.0	5_exp_RW	13	Rpleas_acq	CS_B	GWWG	JXXJ	YDDY	VKKV	BZZB	MQQM	fair	retten	spielen	ehrlich	treu	schön	faul	rächen	strafen	eitel	tot	schlecht	1	acq_USpleas_CSpleas1_RW	acq4567_RW	6	4	400	0	300	300	492	50	0	1	1	blank2r.bmp	0	1	+	0	1	blank2r.bmp	492	1	GWWG	492	1	blank2r.bmp	572	2	retten	866	1	!	1239	1	!	-1	0	0	0	0	0	0	0	0	0	0	0	0	0	0	0	0	0	0	0	0	0	0	0	0	0	0	0	0	0	0
070319	14:06:00	14:19:23	803060	5.0.10.0	5_exp_RW	13	Rpleas_acq	CS_B	GWWG	JXXJ	YDDY	VKKV	BZZB	MQQM	fair	retten	spielen	ehrlich	treu	schön	faul	rächen	strafen	eitel	tot	schlecht	1	acq_USunple_CSunple1_RW	acq4567_RW	6	5	400	1	300	300	379	46	0	1	1	blank2r.bmp	0	1	+	0	1	blank2r.bmp	492	1	YDDY	492	1	blank2r.bmp	572	2	rächen	866	1	!	1239	1	!	1279	0	0	0	0	0	0	0	0	0	0	0	0	0	0	0	0	0	0	0	0	0	0	0	0	0	0	0	0	0	0
070319	14:06:00	14:19:26	805273	5.0.10.0	5_exp_RW	13	Rpleas_acq	CS_B	GWWG	JXXJ	YDDY	VKKV	BZZB	MQQM	fair	retten	spielen	ehrlich	treu	schön	faul	rächen	strafen	eitel	tot	schlecht	1	acq_USunple_CSunple2_RW	acq4567_RW	6	6	400	1	300	300	400	46	0	1	1	blank2r.bmp	0	1	+	0	1	blank2r.bmp	492	1	VKKV	492	1	blank2r.bmp	572	3	schlecht	866	1	!	1239	1	!	1306	0	0	0	0	0	0	0	0	0	0	0	0	0	0	0	0	0	0	0	0	0	0	0	0	0	0	0	0	0	0
070319	14:06:00	14:19:28	807512	5.0.10.0	5_exp_RW	13	Rpleas_acq	CS_B	GWWG	JXXJ	YDDY	VKKV	BZZB	MQQM	fair	retten	spielen	ehrlich	treu	schön	faul	rächen	strafen	eitel	tot	schlecht	1	acq_USpleas_CSpleas1_RW	acq4567_RW	6	7	400	1	300	300	448	46	0	0	1	blank2r.bmp	0	1	+	0	1	blank2r.bmp	492	1	GWWG	492	1	blank2r.bmp	572	2	retten	866	1	!	1239	1	!	1346	0	0	0	0	0	0	0	0	0	0	0	0	0	0	0	0	0	0	0	0	0	0	0	0	0	0	0	0	0	0
070319	14:06:00	14:19:30	809751	5.0.10.0	5_exp_RW	13	Rpleas_acq	CS_B	GWWG	JXXJ	YDDY	VKKV	BZZB	MQQM	fair	retten	spielen	ehrlich	treu	schön	faul	rächen	strafen	eitel	tot	schlecht	1	acq_USunple_CSunple2_RW	acq4567_RW	6	8	400	1	300	300	448	50	0	0	1	blank2r.bmp	0	1	+	0	1	blank2r.bmp	492	1	VKKV	492	1	blank2r.bmp	572	1	eitel	866	1	!	1239	1	!	1346	0	0	0	0	0	0	0	0	0	0	0	0	0	0	0	0	0	0	0	0	0	0	0	0	0	0	0	0	0	0
070319	14:06:00	14:19:32	812003	5.0.10.0	5_exp_RW	13	Rpleas_acq	CS_B	GWWG	JXXJ	YDDY	VKKV	BZZB	MQQM	fair	retten	spielen	ehrlich	treu	schön	faul	rächen	strafen	eitel	tot	schlecht	1	acq_USpleas_CSpleas1_RW	acq4567_RW	6	9	400	1	300	300	454	50	0	1	1	blank2r.bmp	0	1	+	0	1	blank2r.bmp	492	1	GWWG	492	1	blank2r.bmp	572	3	spielen	866	1	!	1239	1	!	1359	0	0	0	0	0	0	0	0	0	0	0	0	0	0	0	0	0	0	0	0	0	0	0	0	0	0	0	0	0	0
070319	14:06:00	14:19:35	814242	5.0.10.0	5_exp_RW	13	Rpleas_acq	CS_B	GWWG	JXXJ	YDDY	VKKV	BZZB	MQQM	fair	retten	spielen	ehrlich	treu	schön	faul	rächen	strafen	eitel	tot	schlecht	1	acq_USunple_CSunple1_RW	acq4567_RW	6	10	400	1	300	300	438	46	0	1	1	blank2r.bmp	0	1	+	0	1	blank2r.bmp	492	1	YDDY	492	1	blank2r.bmp	572	3	strafen	866	1	!	1239	1	!	1346	0	0	0	0	0	0	0	0	0	0	0	0	0	0	0	0	0	0	0	0	0	0	0	0	0	0	0	0	0	0
070319	14:06:00	14:19:37	816508	5.0.10.0	5_exp_RW	13	Rpleas_acq	CS_B	GWWG	JXXJ	YDDY	VKKV	BZZB	MQQM	fair	retten	spielen	ehrlich	treu	schön	faul	rächen	strafen	eitel	tot	schlecht	1	acq_USpleas_CSpleas1_RW	acq4567_RW	6	11	400	1	300	300	466	50	0	1	1	blank2r.bmp	0	1	+	0	1	blank2r.bmp	492	1	GWWG	492	1	blank2r.bmp	572	1	fair	866	1	!	1239	1	!	1372	0	0	0	0	0	0	0	0	0	0	0	0	0	0	0	0	0	0	0	0	0	0	0	0	0	0	0	0	0	0
070319	14:06:00	14:19:39	818680	5.0.10.0	5_exp_RW	13	Rpleas_acq	CS_B	GWWG	JXXJ	YDDY	VKKV	BZZB	MQQM	fair	retten	spielen	ehrlich	treu	schön	faul	rächen	strafen	eitel	tot	schlecht	1	acq_USpleas_CSpleas1_RW	acq4567_RW	6	12	400	1	300	300	365	50	0	1	1	blank2r.bmp	0	1	+	0	1	blank2r.bmp	492	1	GWWG	492	1	blank2r.bmp	572	3	spielen	866	1	!	1239	1	!	1266	0	0	0	0	0	0	0	0	0	0	0	0	0	0	0	0	0	0	0	0	0	0	0	0	0	0	0	0	0	0
070319	14:06:00	14:19:41	820960	5.0.10.0	5_exp_RW	13	Rpleas_acq	CS_B	GWWG	JXXJ	YDDY	VKKV	BZZB	MQQM	fair	retten	spielen	ehrlich	treu	schön	faul	rächen	strafen	eitel	tot	schlecht	1	acq_USpleas_CSpleas2_RW	acq4567_RW	6	13	400	0	300	300	513	50	0	1	1	blank2r.bmp	0	1	+	0	1	blank2r.bmp	492	1	JXXJ	492	1	blank2r.bmp	572	2	treu	866	1	!	1239	1	!	-1	0	0	0	0	0	0	0	0	0	0	0	0	0	0	0	0	0	0	0	0	0	0	0	0	0	0	0	0	0	0
070319	14:06:00	14:19:44	823119	5.0.10.0	5_exp_RW	13	Rpleas_acq	CS_B	GWWG	JXXJ	YDDY	VKKV	BZZB	MQQM	fair	retten	spielen	ehrlich	treu	schön	faul	rächen	strafen	eitel	tot	schlecht	1	acq_USpleas_CSpleas2_RW	acq4567_RW	6	14	400	1	300	300	355	50	0	1	1	blank2r.bmp	0	1	+	0	1	blank2r.bmp	492	1	JXXJ	492	1	blank2r.bmp	572	1	ehrlich	866	1	!	1239	1	!	1252	0	0	0	0	0	0	0	0	0	0	0	0	0	0	0	0	0	0	0	0	0	0	0	0	0	0	0	0	0	0
070319	14:06:00	14:19:46	825318	5.0.10.0	5_exp_RW	13	Rpleas_acq	CS_B	GWWG	JXXJ	YDDY	VKKV	BZZB	MQQM	fair	retten	spielen	ehrlich	treu	schön	faul	rächen	strafen	eitel	tot	schlecht	1	acq_USunple_CSunple2_RW	acq4567_RW	6	15	400	1	300	300	410	46	0	1	1	blank2r.bmp	0	1	+	0	1	blank2r.bmp	492	1	VKKV	492	1	blank2r.bmp	572	2	tot	866	1	!	1239	1	!	1306	0	0	0	0	0	0	0	0	0	0	0	0	0	0	0	0	0	0	0	0	0	0	0	0	0	0	0	0	0	0
070319	14:06:00	14:19:48	827517	5.0.10.0	5_exp_RW	13	Rpleas_acq	CS_B	GWWG	JXXJ	YDDY	VKKV	BZZB	MQQM	fair	retten	spielen	ehrlich	treu	schön	faul	rächen	strafen	eitel	tot	schlecht	1	acq_USunple_CSunple2_RW	acq4567_RW	6	16	400	1	300	300	408	46	0	1	1	blank2r.bmp	0	1	+	0	1	blank2r.bmp	492	1	VKKV	492	1	blank2r.bmp	572	3	schlecht	866	1	!	1239	1	!	1306	0	0	0	0	0	0	0	0	0	0	0	0	0	0	0	0	0	0	0	0	0	0	0	0	0	0	0	0	0	0
070319	14:06:00	14:19:50	829663	5.0.10.0	5_exp_RW	13	Rpleas_acq	CS_B	GWWG	JXXJ	YDDY	VKKV	BZZB	MQQM	fair	retten	spielen	ehrlich	treu	schön	faul	rächen	strafen	eitel	tot	schlecht	1	acq_USpleas_CSpleas2_RW	acq4567_RW	6	17	400	1	300	300	357	50	0	1	1	blank2r.bmp	0	1	+	0	1	blank2r.bmp	492	1	JXXJ	492	1	blank2r.bmp	572	3	schön	866	1	!	1239	1	!	1252	0	0	0	0	0	0	0	0	0	0	0	0	0	0	0	0	0	0	0	0	0	0	0	0	0	0	0	0	0	0
070319	14:06:00	14:19:52	831888	5.0.10.0	5_exp_RW	13	Rpleas_acq	CS_B	GWWG	JXXJ	YDDY	VKKV	BZZB	MQQM	fair	retten	spielen	ehrlich	treu	schön	faul	rächen	strafen	eitel	tot	schlecht	1	acq_USunple_CSunple2_RW	acq4567_RW	6	18	400	1	300	300	435	46	0	1	1	blank2r.bmp	0	1	+	0	1	blank2r.bmp	492	1	VKKV	492	1	blank2r.bmp	572	3	schlecht	866	1	!	1239	1	!	1332	0	0	0	0	0	0	0	0	0	0	0	0	0	0	0	0	0	0	0	0	0	0	0	0	0	0	0	0	0	0
070319	14:06:00	14:19:54	833968	5.0.10.0	5_exp_RW	13	Rpleas_acq	CS_B	GWWG	JXXJ	YDDY	VKKV	BZZB	MQQM	fair	retten	spielen	ehrlich	treu	schön	faul	rächen	strafen	eitel	tot	schlecht	1	acq_USpleas_CSpleas2_RW	acq4567_RW	6	19	400	0	300	300	297	50	0	1	1	blank2r.bmp	0	1	+	0	1	blank2r.bmp	492	1	JXXJ	492	1	blank2r.bmp	572	2	treu	866	1	!	-1	1	!	-1	0	0	0	0	0	0	0	0	0	0	0	0	0	0	0	0	0	0	0	0	0	0	0	0	0	0	0	0	0	0
070319	14:06:00	14:19:57	836287	5.0.10.0	5_exp_RW	13	Rpleas_acq	CS_B	GWWG	JXXJ	YDDY	VKKV	BZZB	MQQM	fair	retten	spielen	ehrlich	treu	schön	faul	rächen	strafen	eitel	tot	schlecht	1	acq_USpleas_CSpleas2_RW	acq4567_RW	6	20	400	0	300	300	539	50	0	1	1	blank2r.bmp	0	1	+	0	1	blank2r.bmp	492	1	JXXJ	492	1	blank2r.bmp	572	3	schön	866	1	!	1239	1	!	-1	0	0	0	0	0	0	0	0	0	0	0	0	0	0	0	0	0	0	0	0	0	0	0	0	0	0	0	0	0	0
