date	time	script.currenttime	script.elapsedtime	build	script.currentexpt	subject	expressions.LRpleas_acq	expressions.conditionCS_A	expressions.CSpleas_1	expressions.CSpleas_2	expressions.CSunple_1	expressions.CSunple_2	expressions.distractor_1	expressions.distractor_2	expressions.US_pleas1	expressions.US_pleas2	expressions.US_pleas3	expressions.US_pleas4	expressions.US_pleas5	expressions.US_pleas6	expressions.US_unple1	expressions.US_unple2	expressions.US_unple3	expressions.US_unple4	expressions.US_unple5	expressions.US_unple6	counter.positions_noRW	trialcode	blockcode	blocknum	trialnum	windowcenter	inwindow	pretrialpause	posttrialpause	latency	response	expressions.correctedscore	correct	stimulusnumber1	stimulusitem1	stimulusonset1	stimulusnumber2	stimulusitem2	stimulusonset2	stimulusnumber3	stimulusitem3	stimulusonset3	stimulusnumber4	stimulusitem4	stimulusonset4	stimulusnumber5	stimulusitem5	stimulusonset5	stimulusnumber6	stimulusitem6	stimulusonset6	stimulusnumber7	stimulusitem7	stimulusonset7	stimulusnumber8	stimulusitem8	stimulusonset8	stimulusnumber9	stimulusitem9	stimulusonset9	stimulusnumber10	stimulusitem10	stimulusonset10	stimulusnumber11	stimulusitem11	stimulusonset11	stimulusnumber12	stimulusitem12	stimulusonset12	stimulusnumber13	stimulusitem13	stimulusonset13	stimulusnumber14	stimulusitem14	stimulusonset14	stimulusnumber15	stimulusitem15	stimulusonset15	stimulusnumber16	stimulusitem16	stimulusonset16	stimulusnumber17	stimulusitem17	stimulusonset17	stimulusnumber18	stimulusitem18	stimulusonset18
070319	11:01:15	11:02:10	55070	5.0.10.0	5_exp_noRW	6	Rpleas_acq	CS_A	JQQJ	CPPC	LWWL	ZHHZ	YFFY	DXXD	sonnig	träumen	vertrauen	küssen	gütig	genießen	sterben	töten	versagen	krank	gierig	gemein	53pct	acq_USpleas_CSpleas2_noRW	acq1_noRW	1	1	0	0	300	300	607	50	0	1	1	blank2r.bmp	0	1	+	0	1	blank2r.bmp	252	1	CPPC	306	1	küssen	559	0	0	0	0	0	0	0	0	0	0	0	0	0	0	0	0	0	0	0	0	0	0	0	0	0	0	0	0	0	0	0	0	0	0	0	0	0	0	0
070319	11:01:15	11:02:12	56735	5.0.10.0	5_exp_noRW	6	Rpleas_acq	CS_A	JQQJ	CPPC	LWWL	ZHHZ	YFFY	DXXD	sonnig	träumen	vertrauen	küssen	gütig	genießen	sterben	töten	versagen	krank	gierig	gemein	53pct	acq_USpleas_CSpleas1_noRW	acq1_noRW	1	2	0	0	300	300	482	50	0	1	1	blank2r.bmp	0	1	+	0	1	blank2r.bmp	252	1	JQQJ	306	1	sonnig	559	0	0	0	0	0	0	0	0	0	0	0	0	0	0	0	0	0	0	0	0	0	0	0	0	0	0	0	0	0	0	0	0	0	0	0	0	0	0	0
070319	11:01:15	11:02:14	58388	5.0.10.0	5_exp_noRW	6	Rpleas_acq	CS_A	JQQJ	CPPC	LWWL	ZHHZ	YFFY	DXXD	sonnig	träumen	vertrauen	küssen	gütig	genießen	sterben	töten	versagen	krank	gierig	gemein	53pct	acq_USunple_CSpleas1_noRW	acq1_noRW	1	3	0	0	300	300	269	50	0	0	1	blank2r.bmp	0	1	+	0	1	blank2r.bmp	252	1	JQQJ	306	3	versagen	559	1	FEHLER	866	0	0	0	0	0	0	0	0	0	0	0	0	0	0	0	0	0	0	0	0	0	0	0	0	0	0	0	0	0	0	0	0	0	0	0	0
070319	11:01:15	11:02:15	60014	5.0.10.0	5_exp_noRW	6	Rpleas_acq	CS_A	JQQJ	CPPC	LWWL	ZHHZ	YFFY	DXXD	sonnig	träumen	vertrauen	küssen	gütig	genießen	sterben	töten	versagen	krank	gierig	gemein	47pct	acq_USpleas_CSunple2_noRW	acq1_noRW	1	4	0	0	300	300	450	46	0	0	1	blank2r.bmp	0	1	+	0	1	blank2r.bmp	252	1	ZHHZ	306	1	küssen	559	1	FEHLER	1039	0	0	0	0	0	0	0	0	0	0	0	0	0	0	0	0	0	0	0	0	0	0	0	0	0	0	0	0	0	0	0	0	0	0	0	0
070319	11:01:15	11:02:17	61507	5.0.10.0	5_exp_noRW	6	Rpleas_acq	CS_A	JQQJ	CPPC	LWWL	ZHHZ	YFFY	DXXD	sonnig	träumen	vertrauen	küssen	gütig	genießen	sterben	töten	versagen	krank	gierig	gemein	53pct	acq_USunple_CSunple1_noRW	acq1_noRW	1	5	0	0	300	300	515	46	0	1	1	blank2r.bmp	0	1	+	0	1	blank2r.bmp	252	1	LWWL	306	3	versagen	559	0	0	0	0	0	0	0	0	0	0	0	0	0	0	0	0	0	0	0	0	0	0	0	0	0	0	0	0	0	0	0	0	0	0	0	0	0	0	0
070319	11:01:15	11:02:18	63133	5.0.10.0	5_exp_noRW	6	Rpleas_acq	CS_A	JQQJ	CPPC	LWWL	ZHHZ	YFFY	DXXD	sonnig	träumen	vertrauen	küssen	gütig	genießen	sterben	töten	versagen	krank	gierig	gemein	47pct	acq_USpleas_CSunple1_noRW	acq1_noRW	1	6	0	0	300	300	450	50	0	1	1	blank2r.bmp	0	1	+	0	1	blank2r.bmp	252	1	LWWL	306	2	träumen	559	0	0	0	0	0	0	0	0	0	0	0	0	0	0	0	0	0	0	0	0	0	0	0	0	0	0	0	0	0	0	0	0	0	0	0	0	0	0	0
070319	11:01:15	11:02:20	64652	5.0.10.0	5_exp_noRW	6	Rpleas_acq	CS_A	JQQJ	CPPC	LWWL	ZHHZ	YFFY	DXXD	sonnig	träumen	vertrauen	küssen	gütig	genießen	sterben	töten	versagen	krank	gierig	gemein	53pct	acq_USunple_CSunple1_noRW	acq1_noRW	1	7	0	0	300	300	341	46	0	1	1	blank2r.bmp	0	1	+	0	1	blank2r.bmp	252	1	LWWL	306	1	sterben	559	0	0	0	0	0	0	0	0	0	0	0	0	0	0	0	0	0	0	0	0	0	0	0	0	0	0	0	0	0	0	0	0	0	0	0	0	0	0	0
070319	11:01:15	11:02:21	66252	5.0.10.0	5_exp_noRW	6	Rpleas_acq	CS_A	JQQJ	CPPC	LWWL	ZHHZ	YFFY	DXXD	sonnig	träumen	vertrauen	küssen	gütig	genießen	sterben	töten	versagen	krank	gierig	gemein	47pct	acq_USunple_CSunple2_noRW	acq1_noRW	1	8	0	0	300	300	426	46	0	1	1	blank2r.bmp	0	1	+	0	1	blank2r.bmp	252	1	ZHHZ	306	1	krank	559	0	0	0	0	0	0	0	0	0	0	0	0	0	0	0	0	0	0	0	0	0	0	0	0	0	0	0	0	0	0	0	0	0	0	0	0	0	0	0
070319	11:01:15	11:02:23	67744	5.0.10.0	5_exp_noRW	6	Rpleas_acq	CS_A	JQQJ	CPPC	LWWL	ZHHZ	YFFY	DXXD	sonnig	träumen	vertrauen	küssen	gütig	genießen	sterben	töten	versagen	krank	gierig	gemein	53pct	acq_USpleas_CSpleas2_noRW	acq1_noRW	1	9	0	0	300	300	318	50	0	1	1	blank2r.bmp	0	1	+	0	1	blank2r.bmp	252	1	CPPC	306	2	gütig	559	0	0	0	0	0	0	0	0	0	0	0	0	0	0	0	0	0	0	0	0	0	0	0	0	0	0	0	0	0	0	0	0	0	0	0	0	0	0	0
070319	11:01:15	11:02:25	69330	5.0.10.0	5_exp_noRW	6	Rpleas_acq	CS_A	JQQJ	CPPC	LWWL	ZHHZ	YFFY	DXXD	sonnig	träumen	vertrauen	küssen	gütig	genießen	sterben	töten	versagen	krank	gierig	gemein	53pct	acq_USpleas_CSpleas1_noRW	acq1_noRW	1	10	0	0	300	300	412	50	0	1	1	blank2r.bmp	0	1	+	0	1	blank2r.bmp	252	1	JQQJ	306	3	vertrauen	559	0	0	0	0	0	0	0	0	0	0	0	0	0	0	0	0	0	0	0	0	0	0	0	0	0	0	0	0	0	0	0	0	0	0	0	0	0	0	0
070319	11:01:15	11:02:26	71063	5.0.10.0	5_exp_noRW	6	Rpleas_acq	CS_A	JQQJ	CPPC	LWWL	ZHHZ	YFFY	DXXD	sonnig	träumen	vertrauen	küssen	gütig	genießen	sterben	töten	versagen	krank	gierig	gemein	47pct	acq_USunple_CSunple2_noRW	acq1_noRW	1	11	0	0	300	300	339	50	0	0	1	blank2r.bmp	0	1	+	0	1	blank2r.bmp	252	1	ZHHZ	306	2	gierig	559	1	FEHLER	932	0	0	0	0	0	0	0	0	0	0	0	0	0	0	0	0	0	0	0	0	0	0	0	0	0	0	0	0	0	0	0	0	0	0	0	0
070319	11:01:15	11:02:28	72329	5.0.10.0	5_exp_noRW	6	Rpleas_acq	CS_A	JQQJ	CPPC	LWWL	ZHHZ	YFFY	DXXD	sonnig	träumen	vertrauen	küssen	gütig	genießen	sterben	töten	versagen	krank	gierig	gemein	53pct	acq_USpleas_CSpleas1_noRW	acq1_noRW	1	12	0	0	300	300	311	50	0	1	1	blank2r.bmp	0	1	+	0	1	blank2r.bmp	252	1	JQQJ	306	2	träumen	559	0	0	0	0	0	0	0	0	0	0	0	0	0	0	0	0	0	0	0	0	0	0	0	0	0	0	0	0	0	0	0	0	0	0	0	0	0	0	0
070319	11:01:15	11:02:29	73888	5.0.10.0	5_exp_noRW	6	Rpleas_acq	CS_A	JQQJ	CPPC	LWWL	ZHHZ	YFFY	DXXD	sonnig	träumen	vertrauen	küssen	gütig	genießen	sterben	töten	versagen	krank	gierig	gemein	47pct	acq_USunple_CSunple2_noRW	acq1_noRW	1	13	0	0	300	300	397	46	0	1	1	blank2r.bmp	0	1	+	0	1	blank2r.bmp	252	1	ZHHZ	306	3	gemein	559	0	0	0	0	0	0	0	0	0	0	0	0	0	0	0	0	0	0	0	0	0	0	0	0	0	0	0	0	0	0	0	0	0	0	0	0	0	0	0
070319	11:01:15	11:02:31	75394	5.0.10.0	5_exp_noRW	6	Rpleas_acq	CS_A	JQQJ	CPPC	LWWL	ZHHZ	YFFY	DXXD	sonnig	träumen	vertrauen	küssen	gütig	genießen	sterben	töten	versagen	krank	gierig	gemein	47pct	acq_USpleas_CSpleas1_noRW	acq1_noRW	1	14	0	0	300	300	328	50	0	1	1	blank2r.bmp	0	1	+	0	1	blank2r.bmp	252	1	JQQJ	306	2	träumen	559	0	0	0	0	0	0	0	0	0	0	0	0	0	0	0	0	0	0	0	0	0	0	0	0	0	0	0	0	0	0	0	0	0	0	0	0	0	0	0
070319	11:01:15	11:02:32	76940	5.0.10.0	5_exp_noRW	6	Rpleas_acq	CS_A	JQQJ	CPPC	LWWL	ZHHZ	YFFY	DXXD	sonnig	träumen	vertrauen	küssen	gütig	genießen	sterben	töten	versagen	krank	gierig	gemein	47pct	acq_USunple_CSunple2_noRW	acq1_noRW	1	15	0	0	300	300	368	46	0	1	1	blank2r.bmp	0	1	+	0	1	blank2r.bmp	252	1	ZHHZ	306	3	gemein	559	0	0	0	0	0	0	0	0	0	0	0	0	0	0	0	0	0	0	0	0	0	0	0	0	0	0	0	0	0	0	0	0	0	0	0	0	0	0	0
070319	11:01:15	11:02:34	78473	5.0.10.0	5_exp_noRW	6	Rpleas_acq	CS_A	JQQJ	CPPC	LWWL	ZHHZ	YFFY	DXXD	sonnig	träumen	vertrauen	küssen	gütig	genießen	sterben	töten	versagen	krank	gierig	gemein	47pct	acq_USunple_CSpleas2_noRW	acq1_noRW	1	16	0	0	300	300	351	46	0	1	1	blank2r.bmp	0	1	+	0	1	blank2r.bmp	252	1	CPPC	306	1	krank	559	0	0	0	0	0	0	0	0	0	0	0	0	0	0	0	0	0	0	0	0	0	0	0	0	0	0	0	0	0	0	0	0	0	0	0	0	0	0	0
070319	11:01:15	11:02:35	80099	5.0.10.0	5_exp_noRW	6	Rpleas_acq	CS_A	JQQJ	CPPC	LWWL	ZHHZ	YFFY	DXXD	sonnig	träumen	vertrauen	küssen	gütig	genießen	sterben	töten	versagen	krank	gierig	gemein	53pct	acq_USpleas_CSpleas2_noRW	acq1_noRW	1	17	0	0	300	300	246	46	0	0	1	blank2r.bmp	0	1	+	0	1	blank2r.bmp	252	1	CPPC	306	3	genießen	559	1	FEHLER	839	0	0	0	0	0	0	0	0	0	0	0	0	0	0	0	0	0	0	0	0	0	0	0	0	0	0	0	0	0	0	0	0	0	0	0	0
070319	11:01:15	11:02:37	81432	5.0.10.0	5_exp_noRW	6	Rpleas_acq	CS_A	JQQJ	CPPC	LWWL	ZHHZ	YFFY	DXXD	sonnig	träumen	vertrauen	küssen	gütig	genießen	sterben	töten	versagen	krank	gierig	gemein	53pct	acq_USunple_CSunple1_noRW	acq1_noRW	1	18	0	0	300	300	360	46	0	1	1	blank2r.bmp	0	1	+	0	1	blank2r.bmp	252	1	LWWL	306	2	töten	559	0	0	0	0	0	0	0	0	0	0	0	0	0	0	0	0	0	0	0	0	0	0	0	0	0	0	0	0	0	0	0	0	0	0	0	0	0	0	0
070319	11:01:15	11:02:38	83044	5.0.10.0	5_exp_noRW	6	Rpleas_acq	CS_A	JQQJ	CPPC	LWWL	ZHHZ	YFFY	DXXD	sonnig	träumen	vertrauen	küssen	gütig	genießen	sterben	töten	versagen	krank	gierig	gemein	47pct	acq_USpleas_CSpleas2_noRW	acq1_noRW	1	19	0	0	300	300	444	50	0	1	1	blank2r.bmp	0	1	+	0	1	blank2r.bmp	252	1	CPPC	306	1	küssen	559	0	0	0	0	0	0	0	0	0	0	0	0	0	0	0	0	0	0	0	0	0	0	0	0	0	0	0	0	0	0	0	0	0	0	0	0	0	0	0
070319	11:01:15	11:02:40	84644	5.0.10.0	5_exp_noRW	6	Rpleas_acq	CS_A	JQQJ	CPPC	LWWL	ZHHZ	YFFY	DXXD	sonnig	träumen	vertrauen	küssen	gütig	genießen	sterben	töten	versagen	krank	gierig	gemein	47pct	acq_USunple_CSunple1_noRW	acq1_noRW	1	20	0	0	300	300	431	46	0	1	1	blank2r.bmp	0	1	+	0	1	blank2r.bmp	252	1	LWWL	306	3	versagen	559	0	0	0	0	0	0	0	0	0	0	0	0	0	0	0	0	0	0	0	0	0	0	0	0	0	0	0	0	0	0	0	0	0	0	0	0	0	0	0
070319	11:01:15	11:02:41	86150	5.0.10.0	5_exp_noRW	6	Rpleas_acq	CS_A	JQQJ	CPPC	LWWL	ZHHZ	YFFY	DXXD	sonnig	träumen	vertrauen	küssen	gütig	genießen	sterben	töten	versagen	krank	gierig	gemein	47pct	acq_USunple_CSunple1_noRW	acq1_noRW	1	21	0	0	300	300	319	46	0	1	1	blank2r.bmp	0	1	+	0	1	blank2r.bmp	252	1	LWWL	306	1	sterben	559	0	0	0	0	0	0	0	0	0	0	0	0	0	0	0	0	0	0	0	0	0	0	0	0	0	0	0	0	0	0	0	0	0	0	0	0	0	0	0
070319	11:01:15	11:02:43	87696	5.0.10.0	5_exp_noRW	6	Rpleas_acq	CS_A	JQQJ	CPPC	LWWL	ZHHZ	YFFY	DXXD	sonnig	träumen	vertrauen	küssen	gütig	genießen	sterben	töten	versagen	krank	gierig	gemein	53pct	acq_USpleas_CSunple1_noRW	acq1_noRW	1	22	0	0	300	300	374	50	0	1	1	blank2r.bmp	0	1	+	0	1	blank2r.bmp	252	1	LWWL	306	1	sonnig	559	0	0	0	0	0	0	0	0	0	0	0	0	0	0	0	0	0	0	0	0	0	0	0	0	0	0	0	0	0	0	0	0	0	0	0	0	0	0	0
070319	11:01:15	11:02:45	89269	5.0.10.0	5_exp_noRW	6	Rpleas_acq	CS_A	JQQJ	CPPC	LWWL	ZHHZ	YFFY	DXXD	sonnig	träumen	vertrauen	küssen	gütig	genießen	sterben	töten	versagen	krank	gierig	gemein	53pct	acq_USpleas_CSunple2_noRW	acq1_noRW	1	23	0	0	300	300	404	50	0	1	1	blank2r.bmp	0	1	+	0	1	blank2r.bmp	252	1	ZHHZ	306	3	genießen	559	0	0	0	0	0	0	0	0	0	0	0	0	0	0	0	0	0	0	0	0	0	0	0	0	0	0	0	0	0	0	0	0	0	0	0	0	0	0	0
070319	11:01:15	11:02:46	90761	5.0.10.0	5_exp_noRW	6	Rpleas_acq	CS_A	JQQJ	CPPC	LWWL	ZHHZ	YFFY	DXXD	sonnig	träumen	vertrauen	küssen	gütig	genießen	sterben	töten	versagen	krank	gierig	gemein	53pct	acq_USpleas_CSpleas2_noRW	acq1_noRW	1	24	0	0	300	300	324	50	0	1	1	blank2r.bmp	0	1	+	0	1	blank2r.bmp	252	1	CPPC	306	2	gütig	559	0	0	0	0	0	0	0	0	0	0	0	0	0	0	0	0	0	0	0	0	0	0	0	0	0	0	0	0	0	0	0	0	0	0	0	0	0	0	0
070319	11:01:15	11:02:48	92281	5.0.10.0	5_exp_noRW	6	Rpleas_acq	CS_A	JQQJ	CPPC	LWWL	ZHHZ	YFFY	DXXD	sonnig	träumen	vertrauen	küssen	gütig	genießen	sterben	töten	versagen	krank	gierig	gemein	47pct	acq_USunple_CSunple2_noRW	acq1_noRW	1	25	0	0	300	300	340	46	0	1	1	blank2r.bmp	0	1	+	0	1	blank2r.bmp	252	1	ZHHZ	306	1	krank	559	0	0	0	0	0	0	0	0	0	0	0	0	0	0	0	0	0	0	0	0	0	0	0	0	0	0	0	0	0	0	0	0	0	0	0	0	0	0	0
070319	11:01:15	11:02:49	93840	5.0.10.0	5_exp_noRW	6	Rpleas_acq	CS_A	JQQJ	CPPC	LWWL	ZHHZ	YFFY	DXXD	sonnig	träumen	vertrauen	küssen	gütig	genießen	sterben	töten	versagen	krank	gierig	gemein	53pct	acq_USpleas_CSpleas2_noRW	acq1_noRW	1	26	0	0	300	300	391	50	0	1	1	blank2r.bmp	0	1	+	0	1	blank2r.bmp	252	1	CPPC	306	3	genießen	559	0	0	0	0	0	0	0	0	0	0	0	0	0	0	0	0	0	0	0	0	0	0	0	0	0	0	0	0	0	0	0	0	0	0	0	0	0	0	0
070319	11:01:15	11:02:51	95346	5.0.10.0	5_exp_noRW	6	Rpleas_acq	CS_A	JQQJ	CPPC	LWWL	ZHHZ	YFFY	DXXD	sonnig	träumen	vertrauen	küssen	gütig	genießen	sterben	töten	versagen	krank	gierig	gemein	53pct	acq_USunple_CSunple1_noRW	acq1_noRW	1	27	0	0	300	300	337	46	0	1	1	blank2r.bmp	0	1	+	0	1	blank2r.bmp	252	1	LWWL	306	2	töten	559	0	0	0	0	0	0	0	0	0	0	0	0	0	0	0	0	0	0	0	0	0	0	0	0	0	0	0	0	0	0	0	0	0	0	0	0	0	0	0
070319	11:01:15	11:02:52	96919	5.0.10.0	5_exp_noRW	6	Rpleas_acq	CS_A	JQQJ	CPPC	LWWL	ZHHZ	YFFY	DXXD	sonnig	träumen	vertrauen	küssen	gütig	genießen	sterben	töten	versagen	krank	gierig	gemein	53pct	acq_USpleas_CSpleas2_noRW	acq1_noRW	1	28	0	0	300	300	393	50	0	1	1	blank2r.bmp	0	1	+	0	1	blank2r.bmp	252	1	CPPC	306	3	genießen	559	0	0	0	0	0	0	0	0	0	0	0	0	0	0	0	0	0	0	0	0	0	0	0	0	0	0	0	0	0	0	0	0	0	0	0	0	0	0	0
070319	11:01:15	11:02:54	98451	5.0.10.0	5_exp_noRW	6	Rpleas_acq	CS_A	JQQJ	CPPC	LWWL	ZHHZ	YFFY	DXXD	sonnig	träumen	vertrauen	küssen	gütig	genießen	sterben	töten	versagen	krank	gierig	gemein	53pct	acq_USpleas_CSpleas1_noRW	acq1_noRW	1	29	0	0	300	300	347	50	0	1	1	blank2r.bmp	0	1	+	0	1	blank2r.bmp	252	1	JQQJ	306	1	sonnig	559	0	0	0	0	0	0	0	0	0	0	0	0	0	0	0	0	0	0	0	0	0	0	0	0	0	0	0	0	0	0	0	0	0	0	0	0	0	0	0
070319	11:01:15	11:02:55	100091	5.0.10.0	5_exp_noRW	6	Rpleas_acq	CS_A	JQQJ	CPPC	LWWL	ZHHZ	YFFY	DXXD	sonnig	träumen	vertrauen	küssen	gütig	genießen	sterben	töten	versagen	krank	gierig	gemein	47pct	acq_USunple_CSunple2_noRW	acq1_noRW	1	30	0	0	300	300	466	46	0	1	1	blank2r.bmp	0	1	+	0	1	blank2r.bmp	252	1	ZHHZ	306	2	gierig	559	0	0	0	0	0	0	0	0	0	0	0	0	0	0	0	0	0	0	0	0	0	0	0	0	0	0	0	0	0	0	0	0	0	0	0	0	0	0	0
070319	11:01:15	11:02:57	101770	5.0.10.0	5_exp_noRW	6	Rpleas_acq	CS_A	JQQJ	CPPC	LWWL	ZHHZ	YFFY	DXXD	sonnig	träumen	vertrauen	küssen	gütig	genießen	sterben	töten	versagen	krank	gierig	gemein	47pct	acq_USunple_CSunple2_noRW	acq1_noRW	1	31	0	0	300	300	496	46	0	1	1	blank2r.bmp	0	1	+	0	1	blank2r.bmp	252	1	ZHHZ	306	3	gemein	559	0	0	0	0	0	0	0	0	0	0	0	0	0	0	0	0	0	0	0	0	0	0	0	0	0	0	0	0	0	0	0	0	0	0	0	0	0	0	0
070319	11:01:15	11:02:59	103329	5.0.10.0	5_exp_noRW	6	Rpleas_acq	CS_A	JQQJ	CPPC	LWWL	ZHHZ	YFFY	DXXD	sonnig	träumen	vertrauen	küssen	gütig	genießen	sterben	töten	versagen	krank	gierig	gemein	53pct	acq_USpleas_CSpleas2_noRW	acq1_noRW	1	32	0	0	300	300	390	50	0	1	1	blank2r.bmp	0	1	+	0	1	blank2r.bmp	252	1	CPPC	306	2	gütig	559	0	0	0	0	0	0	0	0	0	0	0	0	0	0	0	0	0	0	0	0	0	0	0	0	0	0	0	0	0	0	0	0	0	0	0	0	0	0	0
070319	11:01:15	11:03:00	104889	5.0.10.0	5_exp_noRW	6	Rpleas_acq	CS_A	JQQJ	CPPC	LWWL	ZHHZ	YFFY	DXXD	sonnig	träumen	vertrauen	küssen	gütig	genießen	sterben	töten	versagen	krank	gierig	gemein	53pct	acq_USunple_CSpleas1_noRW	acq1_noRW	1	33	0	0	300	300	392	46	0	1	1	blank2r.bmp	0	1	+	0	1	blank2r.bmp	252	1	JQQJ	306	1	sterben	559	0	0	0	0	0	0	0	0	0	0	0	0	0	0	0	0	0	0	0	0	0	0	0	0	0	0	0	0	0	0	0	0	0	0	0	0	0	0	0
070319	11:01:15	11:03:02	106848	5.0.10.0	5_exp_noRW	6	Rpleas_acq	CS_A	JQQJ	CPPC	LWWL	ZHHZ	YFFY	DXXD	sonnig	träumen	vertrauen	küssen	gütig	genießen	sterben	töten	versagen	krank	gierig	gemein	47pct	acq_USunple_CSpleas2_noRW	acq1_noRW	1	34	0	0	300	300	582	50	0	0	1	blank2r.bmp	0	1	+	0	1	blank2r.bmp	252	1	CPPC	306	2	gierig	559	1	FEHLER	1172	0	0	0	0	0	0	0	0	0	0	0	0	0	0	0	0	0	0	0	0	0	0	0	0	0	0	0	0	0	0	0	0	0	0	0	0
070319	11:01:15	11:03:03	108247	5.0.10.0	5_exp_noRW	6	Rpleas_acq	CS_A	JQQJ	CPPC	LWWL	ZHHZ	YFFY	DXXD	sonnig	träumen	vertrauen	küssen	gütig	genießen	sterben	töten	versagen	krank	gierig	gemein	53pct	acq_USunple_CSunple1_noRW	acq1_noRW	1	35	0	0	300	300	433	46	0	1	1	blank2r.bmp	0	1	+	0	1	blank2r.bmp	252	1	LWWL	306	2	töten	559	0	0	0	0	0	0	0	0	0	0	0	0	0	0	0	0	0	0	0	0	0	0	0	0	0	0	0	0	0	0	0	0	0	0	0	0	0	0	0
070319	11:01:15	11:03:05	109780	5.0.10.0	5_exp_noRW	6	Rpleas_acq	CS_A	JQQJ	CPPC	LWWL	ZHHZ	YFFY	DXXD	sonnig	träumen	vertrauen	küssen	gütig	genießen	sterben	töten	versagen	krank	gierig	gemein	53pct	acq_USpleas_CSpleas1_noRW	acq1_noRW	1	36	0	0	300	300	357	50	0	1	1	blank2r.bmp	0	1	+	0	1	blank2r.bmp	252	1	JQQJ	306	3	vertrauen	559	0	0	0	0	0	0	0	0	0	0	0	0	0	0	0	0	0	0	0	0	0	0	0	0	0	0	0	0	0	0	0	0	0	0	0	0	0	0	0
070319	11:01:15	11:03:07	111633	5.0.10.0	5_exp_noRW	6	Rpleas_acq	CS_A	JQQJ	CPPC	LWWL	ZHHZ	YFFY	DXXD	sonnig	träumen	vertrauen	küssen	gütig	genießen	sterben	töten	versagen	krank	gierig	gemein	47pct	acq_USunple_CSunple2_noRW	acq1_noRW	1	37	0	0	300	300	457	50	0	0	1	blank2r.bmp	0	1	+	0	1	blank2r.bmp	252	1	ZHHZ	306	2	gierig	559	1	FEHLER	1052	0	0	0	0	0	0	0	0	0	0	0	0	0	0	0	0	0	0	0	0	0	0	0	0	0	0	0	0	0	0	0	0	0	0	0	0
070319	11:01:15	11:03:08	112939	5.0.10.0	5_exp_noRW	6	Rpleas_acq	CS_A	JQQJ	CPPC	LWWL	ZHHZ	YFFY	DXXD	sonnig	träumen	vertrauen	küssen	gütig	genießen	sterben	töten	versagen	krank	gierig	gemein	53pct	acq_USunple_CSunple1_noRW	acq1_noRW	1	38	0	0	300	300	347	46	0	1	1	blank2r.bmp	0	1	+	0	1	blank2r.bmp	252	1	LWWL	306	3	versagen	559	0	0	0	0	0	0	0	0	0	0	0	0	0	0	0	0	0	0	0	0	0	0	0	0	0	0	0	0	0	0	0	0	0	0	0	0	0	0	0
070319	11:01:15	11:03:10	114551	5.0.10.0	5_exp_noRW	6	Rpleas_acq	CS_A	JQQJ	CPPC	LWWL	ZHHZ	YFFY	DXXD	sonnig	träumen	vertrauen	küssen	gütig	genießen	sterben	töten	versagen	krank	gierig	gemein	47pct	acq_USpleas_CSpleas1_noRW	acq1_noRW	1	39	0	0	300	300	439	50	0	1	1	blank2r.bmp	0	1	+	0	1	blank2r.bmp	252	1	JQQJ	306	1	sonnig	559	0	0	0	0	0	0	0	0	0	0	0	0	0	0	0	0	0	0	0	0	0	0	0	0	0	0	0	0	0	0	0	0	0	0	0	0	0	0	0
070319	11:01:15	11:03:11	116071	5.0.10.0	5_exp_noRW	6	Rpleas_acq	CS_A	JQQJ	CPPC	LWWL	ZHHZ	YFFY	DXXD	sonnig	träumen	vertrauen	küssen	gütig	genießen	sterben	töten	versagen	krank	gierig	gemein	53pct	acq_USpleas_CSpleas1_noRW	acq1_noRW	1	40	0	0	300	300	356	50	0	1	1	blank2r.bmp	0	1	+	0	1	blank2r.bmp	252	1	JQQJ	306	3	vertrauen	559	0	0	0	0	0	0	0	0	0	0	0	0	0	0	0	0	0	0	0	0	0	0	0	0	0	0	0	0	0	0	0	0	0	0	0	0	0	0	0
070319	11:01:15	11:03:13	117883	5.0.10.0	5_exp_noRW	6	Rpleas_acq	CS_A	JQQJ	CPPC	LWWL	ZHHZ	YFFY	DXXD	sonnig	träumen	vertrauen	küssen	gütig	genießen	sterben	töten	versagen	krank	gierig	gemein	47pct	acq_USpleas_CSunple1_noRW	acq1_noRW	1	41	0	0	300	300	417	46	0	0	1	blank2r.bmp	0	1	+	0	1	blank2r.bmp	252	1	LWWL	306	3	vertrauen	559	1	FEHLER	1012	0	0	0	0	0	0	0	0	0	0	0	0	0	0	0	0	0	0	0	0	0	0	0	0	0	0	0	0	0	0	0	0	0	0	0	0
070319	11:01:15	11:03:15	119269	5.0.10.0	5_exp_noRW	6	Rpleas_acq	CS_A	JQQJ	CPPC	LWWL	ZHHZ	YFFY	DXXD	sonnig	träumen	vertrauen	küssen	gütig	genießen	sterben	töten	versagen	krank	gierig	gemein	47pct	acq_USunple_CSunple2_noRW	acq1_noRW	1	42	0	0	300	300	423	46	0	1	1	blank2r.bmp	0	1	+	0	1	blank2r.bmp	252	1	ZHHZ	306	1	krank	559	0	0	0	0	0	0	0	0	0	0	0	0	0	0	0	0	0	0	0	0	0	0	0	0	0	0	0	0	0	0	0	0	0	0	0	0	0	0	0
070319	11:01:15	11:03:16	120789	5.0.10.0	5_exp_noRW	6	Rpleas_acq	CS_A	JQQJ	CPPC	LWWL	ZHHZ	YFFY	DXXD	sonnig	träumen	vertrauen	küssen	gütig	genießen	sterben	töten	versagen	krank	gierig	gemein	53pct	acq_USpleas_CSpleas1_noRW	acq1_noRW	1	43	0	0	300	300	336	50	0	1	1	blank2r.bmp	0	1	+	0	1	blank2r.bmp	252	1	JQQJ	306	2	träumen	559	0	0	0	0	0	0	0	0	0	0	0	0	0	0	0	0	0	0	0	0	0	0	0	0	0	0	0	0	0	0	0	0	0	0	0	0	0	0	0
070319	11:01:15	11:03:18	122415	5.0.10.0	5_exp_noRW	6	Rpleas_acq	CS_A	JQQJ	CPPC	LWWL	ZHHZ	YFFY	DXXD	sonnig	träumen	vertrauen	küssen	gütig	genießen	sterben	töten	versagen	krank	gierig	gemein	53pct	acq_USunple_CSunple1_noRW	acq1_noRW	1	44	0	0	300	300	444	46	0	1	1	blank2r.bmp	0	1	+	0	1	blank2r.bmp	252	1	LWWL	306	1	sterben	559	0	0	0	0	0	0	0	0	0	0	0	0	0	0	0	0	0	0	0	0	0	0	0	0	0	0	0	0	0	0	0	0	0	0	0	0	0	0	0
070319	11:01:15	11:03:20	124321	5.0.10.0	5_exp_noRW	6	Rpleas_acq	CS_A	JQQJ	CPPC	LWWL	ZHHZ	YFFY	DXXD	sonnig	träumen	vertrauen	küssen	gütig	genießen	sterben	töten	versagen	krank	gierig	gemein	47pct	acq_USunple_CSunple2_noRW	acq1_noRW	1	45	0	0	300	300	505	50	0	0	1	blank2r.bmp	0	1	+	0	1	blank2r.bmp	252	1	ZHHZ	306	2	gierig	559	1	FEHLER	1106	0	0	0	0	0	0	0	0	0	0	0	0	0	0	0	0	0	0	0	0	0	0	0	0	0	0	0	0	0	0	0	0	0	0	0	0
070319	11:01:15	11:03:21	125600	5.0.10.0	5_exp_noRW	6	Rpleas_acq	CS_A	JQQJ	CPPC	LWWL	ZHHZ	YFFY	DXXD	sonnig	träumen	vertrauen	küssen	gütig	genießen	sterben	töten	versagen	krank	gierig	gemein	53pct	acq_USpleas_CSpleas2_noRW	acq1_noRW	1	46	0	0	300	300	329	50	0	1	1	blank2r.bmp	0	1	+	0	1	blank2r.bmp	252	1	CPPC	306	1	küssen	559	0	0	0	0	0	0	0	0	0	0	0	0	0	0	0	0	0	0	0	0	0	0	0	0	0	0	0	0	0	0	0	0	0	0	0	0	0	0	0
070319	11:01:15	11:03:22	127239	5.0.10.0	5_exp_noRW	6	Rpleas_acq	CS_A	JQQJ	CPPC	LWWL	ZHHZ	YFFY	DXXD	sonnig	träumen	vertrauen	küssen	gütig	genießen	sterben	töten	versagen	krank	gierig	gemein	47pct	acq_USpleas_CSpleas2_noRW	acq1_noRW	1	47	0	0	300	300	474	50	0	1	1	blank2r.bmp	0	1	+	0	1	blank2r.bmp	252	1	CPPC	306	2	gütig	559	0	0	0	0	0	0	0	0	0	0	0	0	0	0	0	0	0	0	0	0	0	0	0	0	0	0	0	0	0	0	0	0	0	0	0	0	0	0	0
070319	11:01:15	11:03:24	128945	5.0.10.0	5_exp_noRW	6	Rpleas_acq	CS_A	JQQJ	CPPC	LWWL	ZHHZ	YFFY	DXXD	sonnig	träumen	vertrauen	küssen	gütig	genießen	sterben	töten	versagen	krank	gierig	gemein	53pct	acq_USunple_CSunple2_noRW	acq1_noRW	1	48	0	0	300	300	532	46	0	1	1	blank2r.bmp	0	1	+	0	1	blank2r.bmp	252	1	ZHHZ	306	3	gemein	559	0	0	0	0	0	0	0	0	0	0	0	0	0	0	0	0	0	0	0	0	0	0	0	0	0	0	0	0	0	0	0	0	0	0	0	0	0	0	0
070319	11:01:15	11:03:26	130558	5.0.10.0	5_exp_noRW	6	Rpleas_acq	CS_A	JQQJ	CPPC	LWWL	ZHHZ	YFFY	DXXD	sonnig	träumen	vertrauen	küssen	gütig	genießen	sterben	töten	versagen	krank	gierig	gemein	53pct	acq_USpleas_CSunple2_noRW	acq1_noRW	1	49	0	0	300	300	441	50	0	1	1	blank2r.bmp	0	1	+	0	1	blank2r.bmp	252	1	ZHHZ	306	2	gütig	559	0	0	0	0	0	0	0	0	0	0	0	0	0	0	0	0	0	0	0	0	0	0	0	0	0	0	0	0	0	0	0	0	0	0	0	0	0	0	0
070319	11:01:15	11:03:27	132144	5.0.10.0	5_exp_noRW	6	Rpleas_acq	CS_A	JQQJ	CPPC	LWWL	ZHHZ	YFFY	DXXD	sonnig	träumen	vertrauen	küssen	gütig	genießen	sterben	töten	versagen	krank	gierig	gemein	47pct	acq_USunple_CSpleas1_noRW	acq1_noRW	1	50	0	0	300	300	411	46	0	1	1	blank2r.bmp	0	1	+	0	1	blank2r.bmp	252	1	JQQJ	306	2	töten	559	0	0	0	0	0	0	0	0	0	0	0	0	0	0	0	0	0	0	0	0	0	0	0	0	0	0	0	0	0	0	0	0	0	0	0	0	0	0	0
070319	11:01:15	11:03:29	133797	5.0.10.0	5_exp_noRW	6	Rpleas_acq	CS_A	JQQJ	CPPC	LWWL	ZHHZ	YFFY	DXXD	sonnig	träumen	vertrauen	küssen	gütig	genießen	sterben	töten	versagen	krank	gierig	gemein	53pct	acq_USunple_CSpleas2_noRW	acq1_noRW	1	51	0	0	300	300	261	50	0	0	1	blank2r.bmp	0	1	+	0	1	blank2r.bmp	252	1	CPPC	306	3	gemein	559	1	FEHLER	852	0	0	0	0	0	0	0	0	0	0	0	0	0	0	0	0	0	0	0	0	0	0	0	0	0	0	0	0	0	0	0	0	0	0	0	0
070319	11:01:15	11:03:30	135236	5.0.10.0	5_exp_noRW	6	Rpleas_acq	CS_A	JQQJ	CPPC	LWWL	ZHHZ	YFFY	DXXD	sonnig	träumen	vertrauen	küssen	gütig	genießen	sterben	töten	versagen	krank	gierig	gemein	53pct	acq_USpleas_CSpleas2_noRW	acq1_noRW	1	52	0	0	300	300	465	50	0	1	1	blank2r.bmp	0	1	+	0	1	blank2r.bmp	252	1	CPPC	306	3	genießen	559	0	0	0	0	0	0	0	0	0	0	0	0	0	0	0	0	0	0	0	0	0	0	0	0	0	0	0	0	0	0	0	0	0	0	0	0	0	0	0
070319	11:01:15	11:03:32	136902	5.0.10.0	5_exp_noRW	6	Rpleas_acq	CS_A	JQQJ	CPPC	LWWL	ZHHZ	YFFY	DXXD	sonnig	träumen	vertrauen	küssen	gütig	genießen	sterben	töten	versagen	krank	gierig	gemein	53pct	acq_USunple_CSunple1_noRW	acq1_noRW	1	53	0	0	300	300	504	46	0	1	1	blank2r.bmp	0	1	+	0	1	blank2r.bmp	252	1	LWWL	306	3	versagen	559	0	0	0	0	0	0	0	0	0	0	0	0	0	0	0	0	0	0	0	0	0	0	0	0	0	0	0	0	0	0	0	0	0	0	0	0	0	0	0
070319	11:01:15	11:03:34	138541	5.0.10.0	5_exp_noRW	6	Rpleas_acq	CS_A	JQQJ	CPPC	LWWL	ZHHZ	YFFY	DXXD	sonnig	träumen	vertrauen	küssen	gütig	genießen	sterben	töten	versagen	krank	gierig	gemein	47pct	acq_USunple_CSunple1_noRW	acq1_noRW	1	54	0	0	300	300	460	46	0	1	1	blank2r.bmp	0	1	+	0	1	blank2r.bmp	252	1	LWWL	306	1	sterben	559	0	0	0	0	0	0	0	0	0	0	0	0	0	0	0	0	0	0	0	0	0	0	0	0	0	0	0	0	0	0	0	0	0	0	0	0	0	0	0
070319	11:01:15	11:03:35	140127	5.0.10.0	5_exp_noRW	6	Rpleas_acq	CS_A	JQQJ	CPPC	LWWL	ZHHZ	YFFY	DXXD	sonnig	träumen	vertrauen	küssen	gütig	genießen	sterben	töten	versagen	krank	gierig	gemein	47pct	acq_USpleas_CSpleas1_noRW	acq1_noRW	1	55	0	0	300	300	402	50	0	1	1	blank2r.bmp	0	1	+	0	1	blank2r.bmp	252	1	JQQJ	306	2	träumen	559	0	0	0	0	0	0	0	0	0	0	0	0	0	0	0	0	0	0	0	0	0	0	0	0	0	0	0	0	0	0	0	0	0	0	0	0	0	0	0
070319	11:01:15	11:03:37	141700	5.0.10.0	5_exp_noRW	6	Rpleas_acq	CS_A	JQQJ	CPPC	LWWL	ZHHZ	YFFY	DXXD	sonnig	träumen	vertrauen	küssen	gütig	genießen	sterben	töten	versagen	krank	gierig	gemein	53pct	acq_USpleas_CSpleas1_noRW	acq1_noRW	1	56	0	0	300	300	401	50	0	1	1	blank2r.bmp	0	1	+	0	1	blank2r.bmp	252	1	JQQJ	306	1	sonnig	559	0	0	0	0	0	0	0	0	0	0	0	0	0	0	0	0	0	0	0	0	0	0	0	0	0	0	0	0	0	0	0	0	0	0	0	0	0	0	0
070319	11:01:15	11:03:39	143326	5.0.10.0	5_exp_noRW	6	Rpleas_acq	CS_A	JQQJ	CPPC	LWWL	ZHHZ	YFFY	DXXD	sonnig	träumen	vertrauen	küssen	gütig	genießen	sterben	töten	versagen	krank	gierig	gemein	47pct	acq_USunple_CSunple2_noRW	acq1_noRW	1	57	0	0	300	300	458	46	0	1	1	blank2r.bmp	0	1	+	0	1	blank2r.bmp	252	1	ZHHZ	306	1	krank	559	0	0	0	0	0	0	0	0	0	0	0	0	0	0	0	0	0	0	0	0	0	0	0	0	0	0	0	0	0	0	0	0	0	0	0	0	0	0	0
070319	11:01:15	11:03:40	144859	5.0.10.0	5_exp_noRW	6	Rpleas_acq	CS_A	JQQJ	CPPC	LWWL	ZHHZ	YFFY	DXXD	sonnig	träumen	vertrauen	küssen	gütig	genießen	sterben	töten	versagen	krank	gierig	gemein	47pct	acq_USpleas_CSpleas1_noRW	acq1_noRW	1	58	0	0	300	300	359	50	0	1	1	blank2r.bmp	0	1	+	0	1	blank2r.bmp	252	1	JQQJ	306	3	vertrauen	559	0	0	0	0	0	0	0	0	0	0	0	0	0	0	0	0	0	0	0	0	0	0	0	0	0	0	0	0	0	0	0	0	0	0	0	0	0	0	0
070319	11:01:15	11:03:42	146578	5.0.10.0	5_exp_noRW	6	Rpleas_acq	CS_A	JQQJ	CPPC	LWWL	ZHHZ	YFFY	DXXD	sonnig	träumen	vertrauen	küssen	gütig	genießen	sterben	töten	versagen	krank	gierig	gemein	47pct	acq_USpleas_CSpleas2_noRW	acq1_noRW	1	59	0	0	300	300	334	46	0	0	1	blank2r.bmp	0	1	+	0	1	blank2r.bmp	252	1	CPPC	306	1	küssen	559	1	FEHLER	932	0	0	0	0	0	0	0	0	0	0	0	0	0	0	0	0	0	0	0	0	0	0	0	0	0	0	0	0	0	0	0	0	0	0	0	0
070319	11:01:15	11:03:43	147991	5.0.10.0	5_exp_noRW	6	Rpleas_acq	CS_A	JQQJ	CPPC	LWWL	ZHHZ	YFFY	DXXD	sonnig	träumen	vertrauen	küssen	gütig	genießen	sterben	töten	versagen	krank	gierig	gemein	53pct	acq_USunple_CSunple1_noRW	acq1_noRW	1	60	0	0	300	300	462	46	0	1	1	blank2r.bmp	0	1	+	0	1	blank2r.bmp	252	1	LWWL	306	2	töten	559	0	0	0	0	0	0	0	0	0	0	0	0	0	0	0	0	0	0	0	0	0	0	0	0	0	0	0	0	0	0	0	0	0	0	0	0	0	0	0
070319	11:01:15	11:03:45	149550	5.0.10.0	5_exp_noRW	6	Rpleas_acq	CS_A	JQQJ	CPPC	LWWL	ZHHZ	YFFY	DXXD	sonnig	träumen	vertrauen	küssen	gütig	genießen	sterben	töten	versagen	krank	gierig	gemein	53pct	acq_USpleas_CSpleas1_noRW	acq1_noRW	1	61	0	0	300	300	377	50	0	1	1	blank2r.bmp	0	1	+	0	1	blank2r.bmp	252	1	JQQJ	306	1	sonnig	559	0	0	0	0	0	0	0	0	0	0	0	0	0	0	0	0	0	0	0	0	0	0	0	0	0	0	0	0	0	0	0	0	0	0	0	0	0	0	0
070319	11:01:15	11:03:47	151256	5.0.10.0	5_exp_noRW	6	Rpleas_acq	CS_A	JQQJ	CPPC	LWWL	ZHHZ	YFFY	DXXD	sonnig	träumen	vertrauen	küssen	gütig	genießen	sterben	töten	versagen	krank	gierig	gemein	53pct	acq_USunple_CSunple2_noRW	acq1_noRW	1	62	0	0	300	300	534	46	0	1	1	blank2r.bmp	0	1	+	0	1	blank2r.bmp	252	1	ZHHZ	306	2	gierig	559	0	0	0	0	0	0	0	0	0	0	0	0	0	0	0	0	0	0	0	0	0	0	0	0	0	0	0	0	0	0	0	0	0	0	0	0	0	0	0
070319	11:01:15	11:03:48	153002	5.0.10.0	5_exp_noRW	6	Rpleas_acq	CS_A	JQQJ	CPPC	LWWL	ZHHZ	YFFY	DXXD	sonnig	träumen	vertrauen	küssen	gütig	genießen	sterben	töten	versagen	krank	gierig	gemein	47pct	acq_USunple_CSunple2_noRW	acq1_noRW	1	63	0	0	300	300	370	50	0	0	1	blank2r.bmp	0	1	+	0	1	blank2r.bmp	252	1	ZHHZ	306	3	gemein	559	1	FEHLER	959	0	0	0	0	0	0	0	0	0	0	0	0	0	0	0	0	0	0	0	0	0	0	0	0	0	0	0	0	0	0	0	0	0	0	0	0
070319	11:01:15	11:03:50	154268	5.0.10.0	5_exp_noRW	6	Rpleas_acq	CS_A	JQQJ	CPPC	LWWL	ZHHZ	YFFY	DXXD	sonnig	träumen	vertrauen	küssen	gütig	genießen	sterben	töten	versagen	krank	gierig	gemein	47pct	acq_USpleas_CSunple2_noRW	acq1_noRW	1	64	0	0	300	300	293	50	0	1	1	blank2r.bmp	0	1	+	0	1	blank2r.bmp	252	1	ZHHZ	306	2	gütig	559	0	0	0	0	0	0	0	0	0	0	0	0	0	0	0	0	0	0	0	0	0	0	0	0	0	0	0	0	0	0	0	0	0	0	0	0	0	0	0
070319	11:01:15	11:03:51	155841	5.0.10.0	5_exp_noRW	6	Rpleas_acq	CS_A	JQQJ	CPPC	LWWL	ZHHZ	YFFY	DXXD	sonnig	träumen	vertrauen	küssen	gütig	genießen	sterben	töten	versagen	krank	gierig	gemein	53pct	acq_USunple_CSunple1_noRW	acq1_noRW	1	65	0	0	300	300	406	46	0	1	1	blank2r.bmp	0	1	+	0	1	blank2r.bmp	252	1	LWWL	306	1	sterben	559	0	0	0	0	0	0	0	0	0	0	0	0	0	0	0	0	0	0	0	0	0	0	0	0	0	0	0	0	0	0	0	0	0	0	0	0	0	0	0
070319	11:01:15	11:03:53	157413	5.0.10.0	5_exp_noRW	6	Rpleas_acq	CS_A	JQQJ	CPPC	LWWL	ZHHZ	YFFY	DXXD	sonnig	träumen	vertrauen	küssen	gütig	genießen	sterben	töten	versagen	krank	gierig	gemein	47pct	acq_USpleas_CSpleas2_noRW	acq1_noRW	1	66	0	0	300	300	390	50	0	1	1	blank2r.bmp	0	1	+	0	1	blank2r.bmp	252	1	CPPC	306	3	genießen	559	0	0	0	0	0	0	0	0	0	0	0	0	0	0	0	0	0	0	0	0	0	0	0	0	0	0	0	0	0	0	0	0	0	0	0	0	0	0	0
070319	11:01:15	11:03:54	158986	5.0.10.0	5_exp_noRW	6	Rpleas_acq	CS_A	JQQJ	CPPC	LWWL	ZHHZ	YFFY	DXXD	sonnig	träumen	vertrauen	küssen	gütig	genießen	sterben	töten	versagen	krank	gierig	gemein	53pct	acq_USunple_CSunple2_noRW	acq1_noRW	1	67	0	0	300	300	410	46	0	1	1	blank2r.bmp	0	1	+	0	1	blank2r.bmp	252	1	ZHHZ	306	1	krank	559	0	0	0	0	0	0	0	0	0	0	0	0	0	0	0	0	0	0	0	0	0	0	0	0	0	0	0	0	0	0	0	0	0	0	0	0	0	0	0
070319	11:01:15	11:03:56	160572	5.0.10.0	5_exp_noRW	6	Rpleas_acq	CS_A	JQQJ	CPPC	LWWL	ZHHZ	YFFY	DXXD	sonnig	träumen	vertrauen	küssen	gütig	genießen	sterben	töten	versagen	krank	gierig	gemein	47pct	acq_USpleas_CSpleas2_noRW	acq1_noRW	1	68	0	0	300	300	408	50	0	1	1	blank2r.bmp	0	1	+	0	1	blank2r.bmp	252	1	CPPC	306	2	gütig	559	0	0	0	0	0	0	0	0	0	0	0	0	0	0	0	0	0	0	0	0	0	0	0	0	0	0	0	0	0	0	0	0	0	0	0	0	0	0	0
070319	11:01:15	11:03:58	162251	5.0.10.0	5_exp_noRW	6	Rpleas_acq	CS_A	JQQJ	CPPC	LWWL	ZHHZ	YFFY	DXXD	sonnig	träumen	vertrauen	küssen	gütig	genießen	sterben	töten	versagen	krank	gierig	gemein	47pct	acq_USpleas_CSpleas1_noRW	acq1_noRW	1	69	0	0	300	300	498	50	0	1	1	blank2r.bmp	0	1	+	0	1	blank2r.bmp	252	1	JQQJ	306	2	träumen	559	0	0	0	0	0	0	0	0	0	0	0	0	0	0	0	0	0	0	0	0	0	0	0	0	0	0	0	0	0	0	0	0	0	0	0	0	0	0	0
070319	11:01:15	11:03:59	163744	5.0.10.0	5_exp_noRW	6	Rpleas_acq	CS_A	JQQJ	CPPC	LWWL	ZHHZ	YFFY	DXXD	sonnig	träumen	vertrauen	küssen	gütig	genießen	sterben	töten	versagen	krank	gierig	gemein	47pct	acq_USpleas_CSpleas1_noRW	acq1_noRW	1	70	0	0	300	300	313	50	0	1	1	blank2r.bmp	0	1	+	0	1	blank2r.bmp	252	1	JQQJ	306	3	vertrauen	559	0	0	0	0	0	0	0	0	0	0	0	0	0	0	0	0	0	0	0	0	0	0	0	0	0	0	0	0	0	0	0	0	0	0	0	0	0	0	0
070319	11:01:15	11:04:01	165317	5.0.10.0	5_exp_noRW	6	Rpleas_acq	CS_A	JQQJ	CPPC	LWWL	ZHHZ	YFFY	DXXD	sonnig	träumen	vertrauen	küssen	gütig	genießen	sterben	töten	versagen	krank	gierig	gemein	53pct	acq_USunple_CSpleas2_noRW	acq1_noRW	1	71	0	0	300	300	405	46	0	1	1	blank2r.bmp	0	1	+	0	1	blank2r.bmp	252	1	CPPC	306	2	gierig	559	0	0	0	0	0	0	0	0	0	0	0	0	0	0	0	0	0	0	0	0	0	0	0	0	0	0	0	0	0	0	0	0	0	0	0	0	0	0	0
070319	11:01:15	11:04:02	166836	5.0.10.0	5_exp_noRW	6	Rpleas_acq	CS_A	JQQJ	CPPC	LWWL	ZHHZ	YFFY	DXXD	sonnig	träumen	vertrauen	küssen	gütig	genießen	sterben	töten	versagen	krank	gierig	gemein	47pct	acq_USpleas_CSpleas2_noRW	acq1_noRW	1	72	0	0	300	300	357	50	0	1	1	blank2r.bmp	0	1	+	0	1	blank2r.bmp	252	1	CPPC	306	1	küssen	559	0	0	0	0	0	0	0	0	0	0	0	0	0	0	0	0	0	0	0	0	0	0	0	0	0	0	0	0	0	0	0	0	0	0	0	0	0	0	0
070319	11:01:15	11:04:04	168329	5.0.10.0	5_exp_noRW	6	Rpleas_acq	CS_A	JQQJ	CPPC	LWWL	ZHHZ	YFFY	DXXD	sonnig	träumen	vertrauen	küssen	gütig	genießen	sterben	töten	versagen	krank	gierig	gemein	47pct	acq_USpleas_CSpleas2_noRW	acq1_noRW	1	73	0	0	300	300	315	50	0	1	1	blank2r.bmp	0	1	+	0	1	blank2r.bmp	252	1	CPPC	306	2	gütig	559	0	0	0	0	0	0	0	0	0	0	0	0	0	0	0	0	0	0	0	0	0	0	0	0	0	0	0	0	0	0	0	0	0	0	0	0	0	0	0
070319	11:01:15	11:04:05	169955	5.0.10.0	5_exp_noRW	6	Rpleas_acq	CS_A	JQQJ	CPPC	LWWL	ZHHZ	YFFY	DXXD	sonnig	träumen	vertrauen	küssen	gütig	genießen	sterben	töten	versagen	krank	gierig	gemein	47pct	acq_USunple_CSunple2_noRW	acq1_noRW	1	74	0	0	300	300	459	46	0	1	1	blank2r.bmp	0	1	+	0	1	blank2r.bmp	252	1	ZHHZ	306	3	gemein	559	0	0	0	0	0	0	0	0	0	0	0	0	0	0	0	0	0	0	0	0	0	0	0	0	0	0	0	0	0	0	0	0	0	0	0	0	0	0	0
070319	11:01:15	11:04:07	171488	5.0.10.0	5_exp_noRW	6	Rpleas_acq	CS_A	JQQJ	CPPC	LWWL	ZHHZ	YFFY	DXXD	sonnig	träumen	vertrauen	küssen	gütig	genießen	sterben	töten	versagen	krank	gierig	gemein	53pct	acq_USunple_CSunple1_noRW	acq1_noRW	1	75	0	0	300	300	371	46	0	1	1	blank2r.bmp	0	1	+	0	1	blank2r.bmp	252	1	LWWL	306	2	töten	559	0	0	0	0	0	0	0	0	0	0	0	0	0	0	0	0	0	0	0	0	0	0	0	0	0	0	0	0	0	0	0	0	0	0	0	0	0	0	0
070319	11:01:15	11:04:08	173074	5.0.10.0	5_exp_noRW	6	Rpleas_acq	CS_A	JQQJ	CPPC	LWWL	ZHHZ	YFFY	DXXD	sonnig	träumen	vertrauen	küssen	gütig	genießen	sterben	töten	versagen	krank	gierig	gemein	53pct	acq_USpleas_CSunple1_noRW	acq1_noRW	1	76	0	0	300	300	399	50	0	1	1	blank2r.bmp	0	1	+	0	1	blank2r.bmp	252	1	LWWL	306	2	träumen	559	0	0	0	0	0	0	0	0	0	0	0	0	0	0	0	0	0	0	0	0	0	0	0	0	0	0	0	0	0	0	0	0	0	0	0	0	0	0	0
070319	11:01:15	11:04:10	174620	5.0.10.0	5_exp_noRW	6	Rpleas_acq	CS_A	JQQJ	CPPC	LWWL	ZHHZ	YFFY	DXXD	sonnig	träumen	vertrauen	küssen	gütig	genießen	sterben	töten	versagen	krank	gierig	gemein	47pct	acq_USpleas_CSpleas1_noRW	acq1_noRW	1	77	0	0	300	300	379	50	0	1	1	blank2r.bmp	0	1	+	0	1	blank2r.bmp	252	1	JQQJ	306	2	träumen	559	0	0	0	0	0	0	0	0	0	0	0	0	0	0	0	0	0	0	0	0	0	0	0	0	0	0	0	0	0	0	0	0	0	0	0	0	0	0	0
070319	11:01:15	11:04:12	176299	5.0.10.0	5_exp_noRW	6	Rpleas_acq	CS_A	JQQJ	CPPC	LWWL	ZHHZ	YFFY	DXXD	sonnig	träumen	vertrauen	küssen	gütig	genießen	sterben	töten	versagen	krank	gierig	gemein	53pct	acq_USunple_CSunple1_noRW	acq1_noRW	1	78	0	0	300	300	514	46	0	1	1	blank2r.bmp	0	1	+	0	1	blank2r.bmp	252	1	LWWL	306	3	versagen	559	0	0	0	0	0	0	0	0	0	0	0	0	0	0	0	0	0	0	0	0	0	0	0	0	0	0	0	0	0	0	0	0	0	0	0	0	0	0	0
070319	11:01:15	11:04:13	177951	5.0.10.0	5_exp_noRW	6	Rpleas_acq	CS_A	JQQJ	CPPC	LWWL	ZHHZ	YFFY	DXXD	sonnig	träumen	vertrauen	küssen	gütig	genießen	sterben	töten	versagen	krank	gierig	gemein	53pct	acq_USunple_CSunple1_noRW	acq1_noRW	1	79	0	0	300	300	260	50	0	0	1	blank2r.bmp	0	1	+	0	1	blank2r.bmp	252	1	LWWL	306	2	töten	559	1	FEHLER	852	0	0	0	0	0	0	0	0	0	0	0	0	0	0	0	0	0	0	0	0	0	0	0	0	0	0	0	0	0	0	0	0	0	0	0	0
070319	11:01:15	11:04:15	179284	5.0.10.0	5_exp_noRW	6	Rpleas_acq	CS_A	JQQJ	CPPC	LWWL	ZHHZ	YFFY	DXXD	sonnig	träumen	vertrauen	küssen	gütig	genießen	sterben	töten	versagen	krank	gierig	gemein	53pct	acq_USunple_CSpleas1_noRW	acq1_noRW	1	80	0	0	300	300	381	46	0	1	1	blank2r.bmp	0	1	+	0	1	blank2r.bmp	252	1	JQQJ	306	1	sterben	559	0	0	0	0	0	0	0	0	0	0	0	0	0	0	0	0	0	0	0	0	0	0	0	0	0	0	0	0	0	0	0	0	0	0	0	0	0	0	0
070319	11:01:15	11:04:28	193078	5.0.10.0	5_exp_noRW	6	Rpleas_acq	CS_A	JQQJ	CPPC	LWWL	ZHHZ	YFFY	DXXD	sonnig	träumen	vertrauen	küssen	gütig	genießen	sterben	töten	versagen	krank	gierig	gemein	47pct	acq_USpleas_CSpleas2_noRW	acq23456_noRW	2	1	0	0	300	300	372	50	0	1	1	blank2r.bmp	0	1	+	0	1	blank2r.bmp	252	1	CPPC	306	3	genießen	559	0	0	0	0	0	0	0	0	0	0	0	0	0	0	0	0	0	0	0	0	0	0	0	0	0	0	0	0	0	0	0	0	0	0	0	0	0	0	0
070319	11:01:15	11:04:30	194758	5.0.10.0	5_exp_noRW	6	Rpleas_acq	CS_A	JQQJ	CPPC	LWWL	ZHHZ	YFFY	DXXD	sonnig	träumen	vertrauen	küssen	gütig	genießen	sterben	töten	versagen	krank	gierig	gemein	47pct	acq_USpleas_CSunple1_noRW	acq23456_noRW	2	2	0	0	300	300	303	46	0	0	1	blank2r.bmp	0	1	+	0	1	blank2r.bmp	252	1	LWWL	306	3	vertrauen	559	1	FEHLER	892	0	0	0	0	0	0	0	0	0	0	0	0	0	0	0	0	0	0	0	0	0	0	0	0	0	0	0	0	0	0	0	0	0	0	0	0
070319	11:01:15	11:04:31	196131	5.0.10.0	5_exp_noRW	6	Rpleas_acq	CS_A	JQQJ	CPPC	LWWL	ZHHZ	YFFY	DXXD	sonnig	träumen	vertrauen	küssen	gütig	genießen	sterben	töten	versagen	krank	gierig	gemein	53pct	acq_USunple_CSunple1_noRW	acq23456_noRW	2	3	0	0	300	300	410	46	0	1	1	blank2r.bmp	0	1	+	0	1	blank2r.bmp	252	1	LWWL	306	1	sterben	559	0	0	0	0	0	0	0	0	0	0	0	0	0	0	0	0	0	0	0	0	0	0	0	0	0	0	0	0	0	0	0	0	0	0	0	0	0	0	0
070319	11:01:15	11:04:33	197623	5.0.10.0	5_exp_noRW	6	Rpleas_acq	CS_A	JQQJ	CPPC	LWWL	ZHHZ	YFFY	DXXD	sonnig	träumen	vertrauen	küssen	gütig	genießen	sterben	töten	versagen	krank	gierig	gemein	47pct	acq_USpleas_CSpleas1_noRW	acq23456_noRW	2	4	0	0	300	300	308	50	0	1	1	blank2r.bmp	0	1	+	0	1	blank2r.bmp	252	1	JQQJ	306	3	vertrauen	559	0	0	0	0	0	0	0	0	0	0	0	0	0	0	0	0	0	0	0	0	0	0	0	0	0	0	0	0	0	0	0	0	0	0	0	0	0	0	0
070319	11:01:15	11:04:35	199289	5.0.10.0	5_exp_noRW	6	Rpleas_acq	CS_A	JQQJ	CPPC	LWWL	ZHHZ	YFFY	DXXD	sonnig	träumen	vertrauen	küssen	gütig	genießen	sterben	töten	versagen	krank	gierig	gemein	53pct	acq_USunple_CSunple1_noRW	acq23456_noRW	2	5	0	0	300	300	483	46	0	1	1	blank2r.bmp	0	1	+	0	1	blank2r.bmp	252	1	LWWL	306	3	versagen	559	0	0	0	0	0	0	0	0	0	0	0	0	0	0	0	0	0	0	0	0	0	0	0	0	0	0	0	0	0	0	0	0	0	0	0	0	0	0	0
070319	11:01:15	11:04:36	200822	5.0.10.0	5_exp_noRW	6	Rpleas_acq	CS_A	JQQJ	CPPC	LWWL	ZHHZ	YFFY	DXXD	sonnig	träumen	vertrauen	küssen	gütig	genießen	sterben	töten	versagen	krank	gierig	gemein	53pct	acq_USpleas_CSpleas1_noRW	acq23456_noRW	2	6	0	0	300	300	346	50	0	1	1	blank2r.bmp	0	1	+	0	1	blank2r.bmp	252	1	JQQJ	306	1	sonnig	559	0	0	0	0	0	0	0	0	0	0	0	0	0	0	0	0	0	0	0	0	0	0	0	0	0	0	0	0	0	0	0	0	0	0	0	0	0	0	0
070319	11:01:15	11:04:38	202501	5.0.10.0	5_exp_noRW	6	Rpleas_acq	CS_A	JQQJ	CPPC	LWWL	ZHHZ	YFFY	DXXD	sonnig	träumen	vertrauen	küssen	gütig	genießen	sterben	töten	versagen	krank	gierig	gemein	47pct	acq_USunple_CSpleas2_noRW	acq23456_noRW	2	7	0	0	300	300	499	46	0	1	1	blank2r.bmp	0	1	+	0	1	blank2r.bmp	252	1	CPPC	306	3	gemein	559	0	0	0	0	0	0	0	0	0	0	0	0	0	0	0	0	0	0	0	0	0	0	0	0	0	0	0	0	0	0	0	0	0	0	0	0	0	0	0
070319	11:01:15	11:04:39	204114	5.0.10.0	5_exp_noRW	6	Rpleas_acq	CS_A	JQQJ	CPPC	LWWL	ZHHZ	YFFY	DXXD	sonnig	träumen	vertrauen	küssen	gütig	genießen	sterben	töten	versagen	krank	gierig	gemein	47pct	acq_USpleas_CSpleas2_noRW	acq23456_noRW	2	8	0	0	300	300	434	50	0	1	1	blank2r.bmp	0	1	+	0	1	blank2r.bmp	252	1	CPPC	306	1	küssen	559	0	0	0	0	0	0	0	0	0	0	0	0	0	0	0	0	0	0	0	0	0	0	0	0	0	0	0	0	0	0	0	0	0	0	0	0	0	0	0
070319	11:01:15	11:04:41	205753	5.0.10.0	5_exp_noRW	6	Rpleas_acq	CS_A	JQQJ	CPPC	LWWL	ZHHZ	YFFY	DXXD	sonnig	träumen	vertrauen	küssen	gütig	genießen	sterben	töten	versagen	krank	gierig	gemein	53pct	acq_USpleas_CSpleas2_noRW	acq23456_noRW	2	9	0	0	300	300	472	50	0	1	1	blank2r.bmp	0	1	+	0	1	blank2r.bmp	252	1	CPPC	306	3	genießen	559	0	0	0	0	0	0	0	0	0	0	0	0	0	0	0	0	0	0	0	0	0	0	0	0	0	0	0	0	0	0	0	0	0	0	0	0	0	0	0
070319	11:01:15	11:04:43	207539	5.0.10.0	5_exp_noRW	6	Rpleas_acq	CS_A	JQQJ	CPPC	LWWL	ZHHZ	YFFY	DXXD	sonnig	träumen	vertrauen	küssen	gütig	genießen	sterben	töten	versagen	krank	gierig	gemein	47pct	acq_USunple_CSunple2_noRW	acq23456_noRW	2	10	0	0	300	300	399	50	0	0	1	blank2r.bmp	0	1	+	0	1	blank2r.bmp	252	1	ZHHZ	306	2	gierig	559	1	FEHLER	999	0	0	0	0	0	0	0	0	0	0	0	0	0	0	0	0	0	0	0	0	0	0	0	0	0	0	0	0	0	0	0	0	0	0	0	0
070319	11:01:15	11:04:44	209018	5.0.10.0	5_exp_noRW	6	Rpleas_acq	CS_A	JQQJ	CPPC	LWWL	ZHHZ	YFFY	DXXD	sonnig	träumen	vertrauen	küssen	gütig	genießen	sterben	töten	versagen	krank	gierig	gemein	53pct	acq_USunple_CSunple1_noRW	acq23456_noRW	2	11	0	0	300	300	510	46	0	1	1	blank2r.bmp	0	1	+	0	1	blank2r.bmp	252	1	LWWL	306	3	versagen	559	0	0	0	0	0	0	0	0	0	0	0	0	0	0	0	0	0	0	0	0	0	0	0	0	0	0	0	0	0	0	0	0	0	0	0	0	0	0	0
070319	11:01:15	11:04:46	210511	5.0.10.0	5_exp_noRW	6	Rpleas_acq	CS_A	JQQJ	CPPC	LWWL	ZHHZ	YFFY	DXXD	sonnig	träumen	vertrauen	küssen	gütig	genießen	sterben	töten	versagen	krank	gierig	gemein	47pct	acq_USunple_CSunple2_noRW	acq23456_noRW	2	12	0	0	300	300	327	46	0	1	1	blank2r.bmp	0	1	+	0	1	blank2r.bmp	252	1	ZHHZ	306	1	krank	559	0	0	0	0	0	0	0	0	0	0	0	0	0	0	0	0	0	0	0	0	0	0	0	0	0	0	0	0	0	0	0	0	0	0	0	0	0	0	0
070319	11:01:15	11:04:47	212044	5.0.10.0	5_exp_noRW	6	Rpleas_acq	CS_A	JQQJ	CPPC	LWWL	ZHHZ	YFFY	DXXD	sonnig	träumen	vertrauen	küssen	gütig	genießen	sterben	töten	versagen	krank	gierig	gemein	53pct	acq_USpleas_CSpleas2_noRW	acq23456_noRW	2	13	0	0	300	300	362	50	0	1	1	blank2r.bmp	0	1	+	0	1	blank2r.bmp	252	1	CPPC	306	1	küssen	559	0	0	0	0	0	0	0	0	0	0	0	0	0	0	0	0	0	0	0	0	0	0	0	0	0	0	0	0	0	0	0	0	0	0	0	0	0	0	0
070319	11:01:15	11:04:49	213550	5.0.10.0	5_exp_noRW	6	Rpleas_acq	CS_A	JQQJ	CPPC	LWWL	ZHHZ	YFFY	DXXD	sonnig	träumen	vertrauen	küssen	gütig	genießen	sterben	töten	versagen	krank	gierig	gemein	47pct	acq_USunple_CSpleas1_noRW	acq23456_noRW	2	14	0	0	300	300	333	46	0	1	1	blank2r.bmp	0	1	+	0	1	blank2r.bmp	252	1	JQQJ	306	2	töten	559	0	0	0	0	0	0	0	0	0	0	0	0	0	0	0	0	0	0	0	0	0	0	0	0	0	0	0	0	0	0	0	0	0	0	0	0	0	0	0
070319	11:01:15	11:04:51	215283	5.0.10.0	5_exp_noRW	6	Rpleas_acq	CS_A	JQQJ	CPPC	LWWL	ZHHZ	YFFY	DXXD	sonnig	träumen	vertrauen	küssen	gütig	genießen	sterben	töten	versagen	krank	gierig	gemein	47pct	acq_USunple_CSunple2_noRW	acq23456_noRW	2	15	0	0	300	300	556	46	0	1	1	blank2r.bmp	0	1	+	0	1	blank2r.bmp	252	1	ZHHZ	306	2	gierig	559	0	0	0	0	0	0	0	0	0	0	0	0	0	0	0	0	0	0	0	0	0	0	0	0	0	0	0	0	0	0	0	0	0	0	0	0	0	0	0
070319	11:01:15	11:04:52	216775	5.0.10.0	5_exp_noRW	6	Rpleas_acq	CS_A	JQQJ	CPPC	LWWL	ZHHZ	YFFY	DXXD	sonnig	träumen	vertrauen	küssen	gütig	genießen	sterben	töten	versagen	krank	gierig	gemein	47pct	acq_USpleas_CSpleas1_noRW	acq23456_noRW	2	16	0	0	300	300	308	50	0	1	1	blank2r.bmp	0	1	+	0	1	blank2r.bmp	252	1	JQQJ	306	1	sonnig	559	0	0	0	0	0	0	0	0	0	0	0	0	0	0	0	0	0	0	0	0	0	0	0	0	0	0	0	0	0	0	0	0	0	0	0	0	0	0	0
070319	11:01:15	11:04:54	218281	5.0.10.0	5_exp_noRW	6	Rpleas_acq	CS_A	JQQJ	CPPC	LWWL	ZHHZ	YFFY	DXXD	sonnig	träumen	vertrauen	küssen	gütig	genießen	sterben	töten	versagen	krank	gierig	gemein	53pct	acq_USpleas_CSpleas1_noRW	acq23456_noRW	2	17	0	0	300	300	344	50	0	1	1	blank2r.bmp	0	1	+	0	1	blank2r.bmp	252	1	JQQJ	306	2	träumen	559	0	0	0	0	0	0	0	0	0	0	0	0	0	0	0	0	0	0	0	0	0	0	0	0	0	0	0	0	0	0	0	0	0	0	0	0	0	0	0
070319	11:01:15	11:04:55	219854	5.0.10.0	5_exp_noRW	6	Rpleas_acq	CS_A	JQQJ	CPPC	LWWL	ZHHZ	YFFY	DXXD	sonnig	träumen	vertrauen	küssen	gütig	genießen	sterben	töten	versagen	krank	gierig	gemein	53pct	acq_USpleas_CSunple2_noRW	acq23456_noRW	2	18	0	0	300	300	391	50	0	1	1	blank2r.bmp	0	1	+	0	1	blank2r.bmp	252	1	ZHHZ	306	3	genießen	559	0	0	0	0	0	0	0	0	0	0	0	0	0	0	0	0	0	0	0	0	0	0	0	0	0	0	0	0	0	0	0	0	0	0	0	0	0	0	0
070319	11:01:15	11:04:57	221440	5.0.10.0	5_exp_noRW	6	Rpleas_acq	CS_A	JQQJ	CPPC	LWWL	ZHHZ	YFFY	DXXD	sonnig	träumen	vertrauen	küssen	gütig	genießen	sterben	töten	versagen	krank	gierig	gemein	47pct	acq_USunple_CSunple1_noRW	acq23456_noRW	2	19	0	0	300	300	414	46	0	1	1	blank2r.bmp	0	1	+	0	1	blank2r.bmp	252	1	LWWL	306	2	töten	559	0	0	0	0	0	0	0	0	0	0	0	0	0	0	0	0	0	0	0	0	0	0	0	0	0	0	0	0	0	0	0	0	0	0	0	0	0	0	0
070319	11:01:15	11:04:58	223053	5.0.10.0	5_exp_noRW	6	Rpleas_acq	CS_A	JQQJ	CPPC	LWWL	ZHHZ	YFFY	DXXD	sonnig	träumen	vertrauen	küssen	gütig	genießen	sterben	töten	versagen	krank	gierig	gemein	53pct	acq_USunple_CSunple2_noRW	acq23456_noRW	2	20	0	0	300	300	441	46	0	1	1	blank2r.bmp	0	1	+	0	1	blank2r.bmp	252	1	ZHHZ	306	3	gemein	559	0	0	0	0	0	0	0	0	0	0	0	0	0	0	0	0	0	0	0	0	0	0	0	0	0	0	0	0	0	0	0	0	0	0	0	0	0	0	0
070319	11:01:15	11:05:00	224679	5.0.10.0	5_exp_noRW	6	Rpleas_acq	CS_A	JQQJ	CPPC	LWWL	ZHHZ	YFFY	DXXD	sonnig	träumen	vertrauen	küssen	gütig	genießen	sterben	töten	versagen	krank	gierig	gemein	47pct	acq_USunple_CSunple1_noRW	acq23456_noRW	2	21	0	0	300	300	465	46	0	1	1	blank2r.bmp	0	1	+	0	1	blank2r.bmp	252	1	LWWL	306	1	sterben	559	0	0	0	0	0	0	0	0	0	0	0	0	0	0	0	0	0	0	0	0	0	0	0	0	0	0	0	0	0	0	0	0	0	0	0	0	0	0	0
070319	11:01:15	11:05:02	226505	5.0.10.0	5_exp_noRW	6	Rpleas_acq	CS_A	JQQJ	CPPC	LWWL	ZHHZ	YFFY	DXXD	sonnig	träumen	vertrauen	küssen	gütig	genießen	sterben	töten	versagen	krank	gierig	gemein	47pct	acq_USunple_CSunple2_noRW	acq23456_noRW	2	22	0	0	300	300	429	50	0	0	1	blank2r.bmp	0	1	+	0	1	blank2r.bmp	252	1	ZHHZ	306	1	krank	559	1	FEHLER	1026	0	0	0	0	0	0	0	0	0	0	0	0	0	0	0	0	0	0	0	0	0	0	0	0	0	0	0	0	0	0	0	0	0	0	0	0
070319	11:01:15	11:05:03	228170	5.0.10.0	5_exp_noRW	6	Rpleas_acq	CS_A	JQQJ	CPPC	LWWL	ZHHZ	YFFY	DXXD	sonnig	träumen	vertrauen	küssen	gütig	genießen	sterben	töten	versagen	krank	gierig	gemein	53pct	acq_USpleas_CSunple1_noRW	acq23456_noRW	2	23	0	0	300	300	497	46	0	0	1	blank2r.bmp	0	1	+	0	1	blank2r.bmp	252	1	LWWL	306	1	sonnig	559	1	FEHLER	1092	0	0	0	0	0	0	0	0	0	0	0	0	0	0	0	0	0	0	0	0	0	0	0	0	0	0	0	0	0	0	0	0	0	0	0	0
070319	11:01:15	11:05:05	229570	5.0.10.0	5_exp_noRW	6	Rpleas_acq	CS_A	JQQJ	CPPC	LWWL	ZHHZ	YFFY	DXXD	sonnig	träumen	vertrauen	küssen	gütig	genießen	sterben	töten	versagen	krank	gierig	gemein	53pct	acq_USpleas_CSunple2_noRW	acq23456_noRW	2	24	0	0	300	300	429	50	0	1	1	blank2r.bmp	0	1	+	0	1	blank2r.bmp	252	1	ZHHZ	306	1	küssen	559	0	0	0	0	0	0	0	0	0	0	0	0	0	0	0	0	0	0	0	0	0	0	0	0	0	0	0	0	0	0	0	0	0	0	0	0	0	0	0
070319	11:01:15	11:05:06	231156	5.0.10.0	5_exp_noRW	6	Rpleas_acq	CS_A	JQQJ	CPPC	LWWL	ZHHZ	YFFY	DXXD	sonnig	träumen	vertrauen	küssen	gütig	genießen	sterben	töten	versagen	krank	gierig	gemein	47pct	acq_USpleas_CSpleas1_noRW	acq23456_noRW	2	25	0	0	300	300	401	50	0	1	1	blank2r.bmp	0	1	+	0	1	blank2r.bmp	252	1	JQQJ	306	3	vertrauen	559	0	0	0	0	0	0	0	0	0	0	0	0	0	0	0	0	0	0	0	0	0	0	0	0	0	0	0	0	0	0	0	0	0	0	0	0	0	0	0
070319	11:01:15	11:05:08	232715	5.0.10.0	5_exp_noRW	6	Rpleas_acq	CS_A	JQQJ	CPPC	LWWL	ZHHZ	YFFY	DXXD	sonnig	träumen	vertrauen	küssen	gütig	genießen	sterben	töten	versagen	krank	gierig	gemein	53pct	acq_USunple_CSunple1_noRW	acq23456_noRW	2	26	0	0	300	300	391	46	0	1	1	blank2r.bmp	0	1	+	0	1	blank2r.bmp	252	1	LWWL	306	2	töten	559	0	0	0	0	0	0	0	0	0	0	0	0	0	0	0	0	0	0	0	0	0	0	0	0	0	0	0	0	0	0	0	0	0	0	0	0	0	0	0
070319	11:01:15	11:05:10	234328	5.0.10.0	5_exp_noRW	6	Rpleas_acq	CS_A	JQQJ	CPPC	LWWL	ZHHZ	YFFY	DXXD	sonnig	träumen	vertrauen	küssen	gütig	genießen	sterben	töten	versagen	krank	gierig	gemein	53pct	acq_USunple_CSpleas1_noRW	acq23456_noRW	2	27	0	0	300	300	443	46	0	1	1	blank2r.bmp	0	1	+	0	1	blank2r.bmp	252	1	JQQJ	306	3	versagen	559	0	0	0	0	0	0	0	0	0	0	0	0	0	0	0	0	0	0	0	0	0	0	0	0	0	0	0	0	0	0	0	0	0	0	0	0	0	0	0
070319	11:01:15	11:05:11	235861	5.0.10.0	5_exp_noRW	6	Rpleas_acq	CS_A	JQQJ	CPPC	LWWL	ZHHZ	YFFY	DXXD	sonnig	träumen	vertrauen	küssen	gütig	genießen	sterben	töten	versagen	krank	gierig	gemein	47pct	acq_USpleas_CSpleas2_noRW	acq23456_noRW	2	28	0	0	300	300	353	50	0	1	1	blank2r.bmp	0	1	+	0	1	blank2r.bmp	252	1	CPPC	306	2	gütig	559	0	0	0	0	0	0	0	0	0	0	0	0	0	0	0	0	0	0	0	0	0	0	0	0	0	0	0	0	0	0	0	0	0	0	0	0	0	0	0
070319	11:01:15	11:05:13	237380	5.0.10.0	5_exp_noRW	6	Rpleas_acq	CS_A	JQQJ	CPPC	LWWL	ZHHZ	YFFY	DXXD	sonnig	träumen	vertrauen	küssen	gütig	genießen	sterben	töten	versagen	krank	gierig	gemein	53pct	acq_USunple_CSunple2_noRW	acq23456_noRW	2	29	0	0	300	300	347	46	0	1	1	blank2r.bmp	0	1	+	0	1	blank2r.bmp	252	1	ZHHZ	306	3	gemein	559	0	0	0	0	0	0	0	0	0	0	0	0	0	0	0	0	0	0	0	0	0	0	0	0	0	0	0	0	0	0	0	0	0	0	0	0	0	0	0
070319	11:01:15	11:05:14	238966	5.0.10.0	5_exp_noRW	6	Rpleas_acq	CS_A	JQQJ	CPPC	LWWL	ZHHZ	YFFY	DXXD	sonnig	träumen	vertrauen	küssen	gütig	genießen	sterben	töten	versagen	krank	gierig	gemein	47pct	acq_USpleas_CSpleas2_noRW	acq23456_noRW	2	30	0	0	300	300	419	50	0	1	1	blank2r.bmp	0	1	+	0	1	blank2r.bmp	252	1	CPPC	306	2	gütig	559	0	0	0	0	0	0	0	0	0	0	0	0	0	0	0	0	0	0	0	0	0	0	0	0	0	0	0	0	0	0	0	0	0	0	0	0	0	0	0
070319	11:01:15	11:05:16	240525	5.0.10.0	5_exp_noRW	6	Rpleas_acq	CS_A	JQQJ	CPPC	LWWL	ZHHZ	YFFY	DXXD	sonnig	träumen	vertrauen	küssen	gütig	genießen	sterben	töten	versagen	krank	gierig	gemein	47pct	acq_USpleas_CSpleas2_noRW	acq23456_noRW	2	31	0	0	300	300	386	50	0	1	1	blank2r.bmp	0	1	+	0	1	blank2r.bmp	252	1	CPPC	306	1	küssen	559	0	0	0	0	0	0	0	0	0	0	0	0	0	0	0	0	0	0	0	0	0	0	0	0	0	0	0	0	0	0	0	0	0	0	0	0	0	0	0
070319	11:01:15	11:05:17	242045	5.0.10.0	5_exp_noRW	6	Rpleas_acq	CS_A	JQQJ	CPPC	LWWL	ZHHZ	YFFY	DXXD	sonnig	träumen	vertrauen	küssen	gütig	genießen	sterben	töten	versagen	krank	gierig	gemein	47pct	acq_USpleas_CSpleas1_noRW	acq23456_noRW	2	32	0	0	300	300	355	50	0	1	1	blank2r.bmp	0	1	+	0	1	blank2r.bmp	252	1	JQQJ	306	2	träumen	559	0	0	0	0	0	0	0	0	0	0	0	0	0	0	0	0	0	0	0	0	0	0	0	0	0	0	0	0	0	0	0	0	0	0	0	0	0	0	0
070319	11:01:15	11:05:19	243671	5.0.10.0	5_exp_noRW	6	Rpleas_acq	CS_A	JQQJ	CPPC	LWWL	ZHHZ	YFFY	DXXD	sonnig	träumen	vertrauen	küssen	gütig	genießen	sterben	töten	versagen	krank	gierig	gemein	53pct	acq_USunple_CSunple2_noRW	acq23456_noRW	2	33	0	0	300	300	438	46	0	1	1	blank2r.bmp	0	1	+	0	1	blank2r.bmp	252	1	ZHHZ	306	2	gierig	559	0	0	0	0	0	0	0	0	0	0	0	0	0	0	0	0	0	0	0	0	0	0	0	0	0	0	0	0	0	0	0	0	0	0	0	0	0	0	0
070319	11:01:15	11:05:21	245323	5.0.10.0	5_exp_noRW	6	Rpleas_acq	CS_A	JQQJ	CPPC	LWWL	ZHHZ	YFFY	DXXD	sonnig	träumen	vertrauen	küssen	gütig	genießen	sterben	töten	versagen	krank	gierig	gemein	47pct	acq_USunple_CSunple2_noRW	acq23456_noRW	2	34	0	0	300	300	491	46	0	1	1	blank2r.bmp	0	1	+	0	1	blank2r.bmp	252	1	ZHHZ	306	1	krank	559	0	0	0	0	0	0	0	0	0	0	0	0	0	0	0	0	0	0	0	0	0	0	0	0	0	0	0	0	0	0	0	0	0	0	0	0	0	0	0
070319	11:01:15	11:05:22	246936	5.0.10.0	5_exp_noRW	6	Rpleas_acq	CS_A	JQQJ	CPPC	LWWL	ZHHZ	YFFY	DXXD	sonnig	träumen	vertrauen	küssen	gütig	genießen	sterben	töten	versagen	krank	gierig	gemein	47pct	acq_USunple_CSpleas2_noRW	acq23456_noRW	2	35	0	0	300	300	431	46	0	1	1	blank2r.bmp	0	1	+	0	1	blank2r.bmp	252	1	CPPC	306	1	krank	559	0	0	0	0	0	0	0	0	0	0	0	0	0	0	0	0	0	0	0	0	0	0	0	0	0	0	0	0	0	0	0	0	0	0	0	0	0	0	0
070319	11:01:15	11:05:24	248669	5.0.10.0	5_exp_noRW	6	Rpleas_acq	CS_A	JQQJ	CPPC	LWWL	ZHHZ	YFFY	DXXD	sonnig	träumen	vertrauen	küssen	gütig	genießen	sterben	töten	versagen	krank	gierig	gemein	47pct	acq_USunple_CSunple1_noRW	acq23456_noRW	2	36	0	0	300	300	560	46	0	1	1	blank2r.bmp	0	1	+	0	1	blank2r.bmp	252	1	LWWL	306	3	versagen	559	0	0	0	0	0	0	0	0	0	0	0	0	0	0	0	0	0	0	0	0	0	0	0	0	0	0	0	0	0	0	0	0	0	0	0	0	0	0	0
070319	11:01:15	11:05:25	250201	5.0.10.0	5_exp_noRW	6	Rpleas_acq	CS_A	JQQJ	CPPC	LWWL	ZHHZ	YFFY	DXXD	sonnig	träumen	vertrauen	küssen	gütig	genießen	sterben	töten	versagen	krank	gierig	gemein	53pct	acq_USpleas_CSpleas1_noRW	acq23456_noRW	2	37	0	0	300	300	366	50	0	1	1	blank2r.bmp	0	1	+	0	1	blank2r.bmp	252	1	JQQJ	306	3	vertrauen	559	0	0	0	0	0	0	0	0	0	0	0	0	0	0	0	0	0	0	0	0	0	0	0	0	0	0	0	0	0	0	0	0	0	0	0	0	0	0	0
070319	11:01:15	11:05:27	251961	5.0.10.0	5_exp_noRW	6	Rpleas_acq	CS_A	JQQJ	CPPC	LWWL	ZHHZ	YFFY	DXXD	sonnig	träumen	vertrauen	küssen	gütig	genießen	sterben	töten	versagen	krank	gierig	gemein	53pct	acq_USpleas_CSpleas1_noRW	acq23456_noRW	2	38	0	0	300	300	372	46	0	0	1	blank2r.bmp	0	1	+	0	1	blank2r.bmp	252	1	JQQJ	306	1	sonnig	559	1	FEHLER	972	0	0	0	0	0	0	0	0	0	0	0	0	0	0	0	0	0	0	0	0	0	0	0	0	0	0	0	0	0	0	0	0	0	0	0	0
070319	11:01:15	11:05:29	253320	5.0.10.0	5_exp_noRW	6	Rpleas_acq	CS_A	JQQJ	CPPC	LWWL	ZHHZ	YFFY	DXXD	sonnig	träumen	vertrauen	küssen	gütig	genießen	sterben	töten	versagen	krank	gierig	gemein	47pct	acq_USpleas_CSpleas2_noRW	acq23456_noRW	2	39	0	0	300	300	408	50	0	1	1	blank2r.bmp	0	1	+	0	1	blank2r.bmp	252	1	CPPC	306	3	genießen	559	0	0	0	0	0	0	0	0	0	0	0	0	0	0	0	0	0	0	0	0	0	0	0	0	0	0	0	0	0	0	0	0	0	0	0	0	0	0	0
070319	11:01:15	11:05:30	254919	5.0.10.0	5_exp_noRW	6	Rpleas_acq	CS_A	JQQJ	CPPC	LWWL	ZHHZ	YFFY	DXXD	sonnig	träumen	vertrauen	küssen	gütig	genießen	sterben	töten	versagen	krank	gierig	gemein	53pct	acq_USunple_CSunple1_noRW	acq23456_noRW	2	40	0	0	300	300	422	46	0	1	1	blank2r.bmp	0	1	+	0	1	blank2r.bmp	252	1	LWWL	306	1	sterben	559	0	0	0	0	0	0	0	0	0	0	0	0	0	0	0	0	0	0	0	0	0	0	0	0	0	0	0	0	0	0	0	0	0	0	0	0	0	0	0
070319	11:01:15	11:05:32	256585	5.0.10.0	5_exp_noRW	6	Rpleas_acq	CS_A	JQQJ	CPPC	LWWL	ZHHZ	YFFY	DXXD	sonnig	träumen	vertrauen	küssen	gütig	genießen	sterben	töten	versagen	krank	gierig	gemein	53pct	acq_USunple_CSunple2_noRW	acq23456_noRW	2	41	0	0	300	300	488	46	0	1	1	blank2r.bmp	0	1	+	0	1	blank2r.bmp	252	1	ZHHZ	306	1	krank	559	0	0	0	0	0	0	0	0	0	0	0	0	0	0	0	0	0	0	0	0	0	0	0	0	0	0	0	0	0	0	0	0	0	0	0	0	0	0	0
070319	11:01:15	11:05:33	258158	5.0.10.0	5_exp_noRW	6	Rpleas_acq	CS_A	JQQJ	CPPC	LWWL	ZHHZ	YFFY	DXXD	sonnig	träumen	vertrauen	küssen	gütig	genießen	sterben	töten	versagen	krank	gierig	gemein	47pct	acq_USunple_CSunple1_noRW	acq23456_noRW	2	42	0	0	300	300	393	46	0	1	1	blank2r.bmp	0	1	+	0	1	blank2r.bmp	252	1	LWWL	306	2	töten	559	0	0	0	0	0	0	0	0	0	0	0	0	0	0	0	0	0	0	0	0	0	0	0	0	0	0	0	0	0	0	0	0	0	0	0	0	0	0	0
070319	11:01:15	11:05:35	259797	5.0.10.0	5_exp_noRW	6	Rpleas_acq	CS_A	JQQJ	CPPC	LWWL	ZHHZ	YFFY	DXXD	sonnig	träumen	vertrauen	küssen	gütig	genießen	sterben	töten	versagen	krank	gierig	gemein	47pct	acq_USpleas_CSpleas2_noRW	acq23456_noRW	2	43	0	0	300	300	459	50	0	1	1	blank2r.bmp	0	1	+	0	1	blank2r.bmp	252	1	CPPC	306	1	küssen	559	0	0	0	0	0	0	0	0	0	0	0	0	0	0	0	0	0	0	0	0	0	0	0	0	0	0	0	0	0	0	0	0	0	0	0	0	0	0	0
070319	11:01:15	11:05:37	261357	5.0.10.0	5_exp_noRW	6	Rpleas_acq	CS_A	JQQJ	CPPC	LWWL	ZHHZ	YFFY	DXXD	sonnig	träumen	vertrauen	küssen	gütig	genießen	sterben	töten	versagen	krank	gierig	gemein	53pct	acq_USunple_CSpleas1_noRW	acq23456_noRW	2	44	0	0	300	300	380	46	0	1	1	blank2r.bmp	0	1	+	0	1	blank2r.bmp	252	1	JQQJ	306	1	sterben	559	0	0	0	0	0	0	0	0	0	0	0	0	0	0	0	0	0	0	0	0	0	0	0	0	0	0	0	0	0	0	0	0	0	0	0	0	0	0	0
070319	11:01:15	11:05:38	262969	5.0.10.0	5_exp_noRW	6	Rpleas_acq	CS_A	JQQJ	CPPC	LWWL	ZHHZ	YFFY	DXXD	sonnig	träumen	vertrauen	küssen	gütig	genießen	sterben	töten	versagen	krank	gierig	gemein	47pct	acq_USpleas_CSpleas1_noRW	acq23456_noRW	2	45	0	0	300	300	435	50	0	1	1	blank2r.bmp	0	1	+	0	1	blank2r.bmp	252	1	JQQJ	306	1	sonnig	559	0	0	0	0	0	0	0	0	0	0	0	0	0	0	0	0	0	0	0	0	0	0	0	0	0	0	0	0	0	0	0	0	0	0	0	0	0	0	0
070319	11:01:15	11:05:40	264595	5.0.10.0	5_exp_noRW	6	Rpleas_acq	CS_A	JQQJ	CPPC	LWWL	ZHHZ	YFFY	DXXD	sonnig	träumen	vertrauen	küssen	gütig	genießen	sterben	töten	versagen	krank	gierig	gemein	47pct	acq_USunple_CSunple2_noRW	acq23456_noRW	2	46	0	0	300	300	449	46	0	1	1	blank2r.bmp	0	1	+	0	1	blank2r.bmp	252	1	ZHHZ	306	2	gierig	559	0	0	0	0	0	0	0	0	0	0	0	0	0	0	0	0	0	0	0	0	0	0	0	0	0	0	0	0	0	0	0	0	0	0	0	0	0	0	0
070319	11:01:15	11:05:41	266168	5.0.10.0	5_exp_noRW	6	Rpleas_acq	CS_A	JQQJ	CPPC	LWWL	ZHHZ	YFFY	DXXD	sonnig	träumen	vertrauen	küssen	gütig	genießen	sterben	töten	versagen	krank	gierig	gemein	53pct	acq_USpleas_CSunple1_noRW	acq23456_noRW	2	47	0	0	300	300	408	50	0	1	1	blank2r.bmp	0	1	+	0	1	blank2r.bmp	252	1	LWWL	306	1	sonnig	559	0	0	0	0	0	0	0	0	0	0	0	0	0	0	0	0	0	0	0	0	0	0	0	0	0	0	0	0	0	0	0	0	0	0	0	0	0	0	0
070319	11:01:15	11:05:43	267847	5.0.10.0	5_exp_noRW	6	Rpleas_acq	CS_A	JQQJ	CPPC	LWWL	ZHHZ	YFFY	DXXD	sonnig	träumen	vertrauen	küssen	gütig	genießen	sterben	töten	versagen	krank	gierig	gemein	47pct	acq_USunple_CSunple2_noRW	acq23456_noRW	2	48	0	0	300	300	492	46	0	1	1	blank2r.bmp	0	1	+	0	1	blank2r.bmp	252	1	ZHHZ	306	3	gemein	559	0	0	0	0	0	0	0	0	0	0	0	0	0	0	0	0	0	0	0	0	0	0	0	0	0	0	0	0	0	0	0	0	0	0	0	0	0	0	0
070319	11:01:15	11:05:45	269407	5.0.10.0	5_exp_noRW	6	Rpleas_acq	CS_A	JQQJ	CPPC	LWWL	ZHHZ	YFFY	DXXD	sonnig	träumen	vertrauen	küssen	gütig	genießen	sterben	töten	versagen	krank	gierig	gemein	47pct	acq_USpleas_CSpleas2_noRW	acq23456_noRW	2	49	0	0	300	300	385	50	0	1	1	blank2r.bmp	0	1	+	0	1	blank2r.bmp	252	1	CPPC	306	3	genießen	559	0	0	0	0	0	0	0	0	0	0	0	0	0	0	0	0	0	0	0	0	0	0	0	0	0	0	0	0	0	0	0	0	0	0	0	0	0	0	0
070319	11:01:15	11:05:46	271046	5.0.10.0	5_exp_noRW	6	Rpleas_acq	CS_A	JQQJ	CPPC	LWWL	ZHHZ	YFFY	DXXD	sonnig	träumen	vertrauen	küssen	gütig	genießen	sterben	töten	versagen	krank	gierig	gemein	47pct	acq_USpleas_CSpleas1_noRW	acq23456_noRW	2	50	0	0	300	300	468	50	0	1	1	blank2r.bmp	0	1	+	0	1	blank2r.bmp	252	1	JQQJ	306	2	träumen	559	0	0	0	0	0	0	0	0	0	0	0	0	0	0	0	0	0	0	0	0	0	0	0	0	0	0	0	0	0	0	0	0	0	0	0	0	0	0	0
070319	11:01:15	11:05:48	272632	5.0.10.0	5_exp_noRW	6	Rpleas_acq	CS_A	JQQJ	CPPC	LWWL	ZHHZ	YFFY	DXXD	sonnig	träumen	vertrauen	küssen	gütig	genießen	sterben	töten	versagen	krank	gierig	gemein	53pct	acq_USunple_CSunple1_noRW	acq23456_noRW	2	51	0	0	300	300	416	46	0	1	1	blank2r.bmp	0	1	+	0	1	blank2r.bmp	252	1	LWWL	306	1	sterben	559	0	0	0	0	0	0	0	0	0	0	0	0	0	0	0	0	0	0	0	0	0	0	0	0	0	0	0	0	0	0	0	0	0	0	0	0	0	0	0
070319	11:01:15	11:05:50	274325	5.0.10.0	5_exp_noRW	6	Rpleas_acq	CS_A	JQQJ	CPPC	LWWL	ZHHZ	YFFY	DXXD	sonnig	träumen	vertrauen	küssen	gütig	genießen	sterben	töten	versagen	krank	gierig	gemein	47pct	acq_USpleas_CSpleas2_noRW	acq23456_noRW	2	52	0	0	300	300	526	50	0	1	1	blank2r.bmp	0	1	+	0	1	blank2r.bmp	252	1	CPPC	306	2	gütig	559	0	0	0	0	0	0	0	0	0	0	0	0	0	0	0	0	0	0	0	0	0	0	0	0	0	0	0	0	0	0	0	0	0	0	0	0	0	0	0
070319	11:01:15	11:05:51	276030	5.0.10.0	5_exp_noRW	6	Rpleas_acq	CS_A	JQQJ	CPPC	LWWL	ZHHZ	YFFY	DXXD	sonnig	träumen	vertrauen	küssen	gütig	genießen	sterben	töten	versagen	krank	gierig	gemein	53pct	acq_USunple_CSunple1_noRW	acq23456_noRW	2	53	0	0	300	300	524	46	0	1	1	blank2r.bmp	0	1	+	0	1	blank2r.bmp	252	1	LWWL	306	3	versagen	559	0	0	0	0	0	0	0	0	0	0	0	0	0	0	0	0	0	0	0	0	0	0	0	0	0	0	0	0	0	0	0	0	0	0	0	0	0	0	0
070319	11:01:15	11:05:53	277656	5.0.10.0	5_exp_noRW	6	Rpleas_acq	CS_A	JQQJ	CPPC	LWWL	ZHHZ	YFFY	DXXD	sonnig	träumen	vertrauen	küssen	gütig	genießen	sterben	töten	versagen	krank	gierig	gemein	47pct	acq_USpleas_CSunple2_noRW	acq23456_noRW	2	54	0	0	300	300	454	50	0	1	1	blank2r.bmp	0	1	+	0	1	blank2r.bmp	252	1	ZHHZ	306	3	genießen	559	0	0	0	0	0	0	0	0	0	0	0	0	0	0	0	0	0	0	0	0	0	0	0	0	0	0	0	0	0	0	0	0	0	0	0	0	0	0	0
070319	11:01:15	11:05:54	279202	5.0.10.0	5_exp_noRW	6	Rpleas_acq	CS_A	JQQJ	CPPC	LWWL	ZHHZ	YFFY	DXXD	sonnig	träumen	vertrauen	küssen	gütig	genießen	sterben	töten	versagen	krank	gierig	gemein	47pct	acq_USpleas_CSpleas2_noRW	acq23456_noRW	2	55	0	0	300	300	383	50	0	1	1	blank2r.bmp	0	1	+	0	1	blank2r.bmp	252	1	CPPC	306	1	küssen	559	0	0	0	0	0	0	0	0	0	0	0	0	0	0	0	0	0	0	0	0	0	0	0	0	0	0	0	0	0	0	0	0	0	0	0	0	0	0	0
070319	11:01:15	11:05:56	280802	5.0.10.0	5_exp_noRW	6	Rpleas_acq	CS_A	JQQJ	CPPC	LWWL	ZHHZ	YFFY	DXXD	sonnig	träumen	vertrauen	küssen	gütig	genießen	sterben	töten	versagen	krank	gierig	gemein	53pct	acq_USunple_CSunple2_noRW	acq23456_noRW	2	56	0	0	300	300	418	46	0	1	1	blank2r.bmp	0	1	+	0	1	blank2r.bmp	252	1	ZHHZ	306	1	krank	559	0	0	0	0	0	0	0	0	0	0	0	0	0	0	0	0	0	0	0	0	0	0	0	0	0	0	0	0	0	0	0	0	0	0	0	0	0	0	0
070319	11:01:15	11:05:58	282428	5.0.10.0	5_exp_noRW	6	Rpleas_acq	CS_A	JQQJ	CPPC	LWWL	ZHHZ	YFFY	DXXD	sonnig	träumen	vertrauen	küssen	gütig	genießen	sterben	töten	versagen	krank	gierig	gemein	47pct	acq_USunple_CSpleas2_noRW	acq23456_noRW	2	57	0	0	300	300	442	46	0	1	1	blank2r.bmp	0	1	+	0	1	blank2r.bmp	252	1	CPPC	306	1	krank	559	0	0	0	0	0	0	0	0	0	0	0	0	0	0	0	0	0	0	0	0	0	0	0	0	0	0	0	0	0	0	0	0	0	0	0	0	0	0	0
070319	11:01:15	11:05:59	284014	5.0.10.0	5_exp_noRW	6	Rpleas_acq	CS_A	JQQJ	CPPC	LWWL	ZHHZ	YFFY	DXXD	sonnig	träumen	vertrauen	küssen	gütig	genießen	sterben	töten	versagen	krank	gierig	gemein	47pct	acq_USunple_CSunple1_noRW	acq23456_noRW	2	58	0	0	300	300	413	46	0	1	1	blank2r.bmp	0	1	+	0	1	blank2r.bmp	252	1	LWWL	306	1	sterben	559	0	0	0	0	0	0	0	0	0	0	0	0	0	0	0	0	0	0	0	0	0	0	0	0	0	0	0	0	0	0	0	0	0	0	0	0	0	0	0
070319	11:01:15	11:06:01	285560	5.0.10.0	5_exp_noRW	6	Rpleas_acq	CS_A	JQQJ	CPPC	LWWL	ZHHZ	YFFY	DXXD	sonnig	träumen	vertrauen	küssen	gütig	genießen	sterben	töten	versagen	krank	gierig	gemein	47pct	acq_USpleas_CSpleas1_noRW	acq23456_noRW	2	59	0	0	300	300	358	50	0	1	1	blank2r.bmp	0	1	+	0	1	blank2r.bmp	252	1	JQQJ	306	3	vertrauen	559	0	0	0	0	0	0	0	0	0	0	0	0	0	0	0	0	0	0	0	0	0	0	0	0	0	0	0	0	0	0	0	0	0	0	0	0	0	0	0
070319	11:01:15	11:06:02	287093	5.0.10.0	5_exp_noRW	6	Rpleas_acq	CS_A	JQQJ	CPPC	LWWL	ZHHZ	YFFY	DXXD	sonnig	träumen	vertrauen	küssen	gütig	genießen	sterben	töten	versagen	krank	gierig	gemein	47pct	acq_USpleas_CSpleas1_noRW	acq23456_noRW	2	60	0	0	300	300	350	50	0	1	1	blank2r.bmp	0	1	+	0	1	blank2r.bmp	252	1	JQQJ	306	2	träumen	559	0	0	0	0	0	0	0	0	0	0	0	0	0	0	0	0	0	0	0	0	0	0	0	0	0	0	0	0	0	0	0	0	0	0	0	0	0	0	0
070319	11:01:15	11:06:04	288772	5.0.10.0	5_exp_noRW	6	Rpleas_acq	CS_A	JQQJ	CPPC	LWWL	ZHHZ	YFFY	DXXD	sonnig	träumen	vertrauen	küssen	gütig	genießen	sterben	töten	versagen	krank	gierig	gemein	47pct	acq_USunple_CSunple1_noRW	acq23456_noRW	2	61	0	0	300	300	508	46	0	1	1	blank2r.bmp	0	1	+	0	1	blank2r.bmp	252	1	LWWL	306	3	versagen	559	0	0	0	0	0	0	0	0	0	0	0	0	0	0	0	0	0	0	0	0	0	0	0	0	0	0	0	0	0	0	0	0	0	0	0	0	0	0	0
070319	11:01:15	11:06:06	290531	5.0.10.0	5_exp_noRW	6	Rpleas_acq	CS_A	JQQJ	CPPC	LWWL	ZHHZ	YFFY	DXXD	sonnig	träumen	vertrauen	küssen	gütig	genießen	sterben	töten	versagen	krank	gierig	gemein	47pct	acq_USunple_CSunple2_noRW	acq23456_noRW	2	62	0	0	300	300	359	50	0	0	1	blank2r.bmp	0	1	+	0	1	blank2r.bmp	252	1	ZHHZ	306	3	gemein	559	1	FEHLER	959	0	0	0	0	0	0	0	0	0	0	0	0	0	0	0	0	0	0	0	0	0	0	0	0	0	0	0	0	0	0	0	0	0	0	0	0
070319	11:01:15	11:06:07	291997	5.0.10.0	5_exp_noRW	6	Rpleas_acq	CS_A	JQQJ	CPPC	LWWL	ZHHZ	YFFY	DXXD	sonnig	träumen	vertrauen	küssen	gütig	genießen	sterben	töten	versagen	krank	gierig	gemein	47pct	acq_USunple_CSunple1_noRW	acq23456_noRW	2	63	0	0	300	300	499	46	0	1	1	blank2r.bmp	0	1	+	0	1	blank2r.bmp	252	1	LWWL	306	2	töten	559	0	0	0	0	0	0	0	0	0	0	0	0	0	0	0	0	0	0	0	0	0	0	0	0	0	0	0	0	0	0	0	0	0	0	0	0	0	0	0
070319	11:01:15	11:06:09	293650	5.0.10.0	5_exp_noRW	6	Rpleas_acq	CS_A	JQQJ	CPPC	LWWL	ZHHZ	YFFY	DXXD	sonnig	träumen	vertrauen	küssen	gütig	genießen	sterben	töten	versagen	krank	gierig	gemein	53pct	acq_USpleas_CSpleas2_noRW	acq23456_noRW	2	64	0	0	300	300	466	50	0	1	1	blank2r.bmp	0	1	+	0	1	blank2r.bmp	252	1	CPPC	306	2	gütig	559	0	0	0	0	0	0	0	0	0	0	0	0	0	0	0	0	0	0	0	0	0	0	0	0	0	0	0	0	0	0	0	0	0	0	0	0	0	0	0
070319	11:01:15	11:06:11	295329	5.0.10.0	5_exp_noRW	6	Rpleas_acq	CS_A	JQQJ	CPPC	LWWL	ZHHZ	YFFY	DXXD	sonnig	träumen	vertrauen	küssen	gütig	genießen	sterben	töten	versagen	krank	gierig	gemein	47pct	acq_USpleas_CSpleas1_noRW	acq23456_noRW	2	65	0	0	300	300	505	50	0	1	1	blank2r.bmp	0	1	+	0	1	blank2r.bmp	252	1	JQQJ	306	1	sonnig	559	0	0	0	0	0	0	0	0	0	0	0	0	0	0	0	0	0	0	0	0	0	0	0	0	0	0	0	0	0	0	0	0	0	0	0	0	0	0	0
070319	11:01:15	11:06:12	296888	5.0.10.0	5_exp_noRW	6	Rpleas_acq	CS_A	JQQJ	CPPC	LWWL	ZHHZ	YFFY	DXXD	sonnig	träumen	vertrauen	küssen	gütig	genießen	sterben	töten	versagen	krank	gierig	gemein	53pct	acq_USunple_CSpleas1_noRW	acq23456_noRW	2	66	0	0	300	300	388	46	0	1	1	blank2r.bmp	0	1	+	0	1	blank2r.bmp	252	1	JQQJ	306	3	versagen	559	0	0	0	0	0	0	0	0	0	0	0	0	0	0	0	0	0	0	0	0	0	0	0	0	0	0	0	0	0	0	0	0	0	0	0	0	0	0	0
070319	11:01:15	11:06:14	298488	5.0.10.0	5_exp_noRW	6	Rpleas_acq	CS_A	JQQJ	CPPC	LWWL	ZHHZ	YFFY	DXXD	sonnig	träumen	vertrauen	küssen	gütig	genießen	sterben	töten	versagen	krank	gierig	gemein	53pct	acq_USpleas_CSpleas2_noRW	acq23456_noRW	2	67	0	0	300	300	433	50	0	1	1	blank2r.bmp	0	1	+	0	1	blank2r.bmp	252	1	CPPC	306	3	genießen	559	0	0	0	0	0	0	0	0	0	0	0	0	0	0	0	0	0	0	0	0	0	0	0	0	0	0	0	0	0	0	0	0	0	0	0	0	0	0	0
070319	11:01:15	11:06:15	300180	5.0.10.0	5_exp_noRW	6	Rpleas_acq	CS_A	JQQJ	CPPC	LWWL	ZHHZ	YFFY	DXXD	sonnig	träumen	vertrauen	küssen	gütig	genießen	sterben	töten	versagen	krank	gierig	gemein	53pct	acq_USunple_CSunple1_noRW	acq23456_noRW	2	68	0	0	300	300	505	46	0	1	1	blank2r.bmp	0	1	+	0	1	blank2r.bmp	252	1	LWWL	306	3	versagen	559	0	0	0	0	0	0	0	0	0	0	0	0	0	0	0	0	0	0	0	0	0	0	0	0	0	0	0	0	0	0	0	0	0	0	0	0	0	0	0
070319	11:01:15	11:06:17	301860	5.0.10.0	5_exp_noRW	6	Rpleas_acq	CS_A	JQQJ	CPPC	LWWL	ZHHZ	YFFY	DXXD	sonnig	träumen	vertrauen	küssen	gütig	genießen	sterben	töten	versagen	krank	gierig	gemein	47pct	acq_USpleas_CSpleas1_noRW	acq23456_noRW	2	69	0	0	300	300	505	50	0	1	1	blank2r.bmp	0	1	+	0	1	blank2r.bmp	252	1	JQQJ	306	3	vertrauen	559	0	0	0	0	0	0	0	0	0	0	0	0	0	0	0	0	0	0	0	0	0	0	0	0	0	0	0	0	0	0	0	0	0	0	0	0	0	0	0
070319	11:01:15	11:06:19	303992	5.0.10.0	5_exp_noRW	6	Rpleas_acq	CS_A	JQQJ	CPPC	LWWL	ZHHZ	YFFY	DXXD	sonnig	träumen	vertrauen	küssen	gütig	genießen	sterben	töten	versagen	krank	gierig	gemein	53pct	acq_USunple_CSpleas2_noRW	acq23456_noRW	2	70	0	0	300	300	751	50	0	0	1	blank2r.bmp	0	1	+	0	1	blank2r.bmp	252	1	CPPC	306	2	gierig	559	1	FEHLER	1346	0	0	0	0	0	0	0	0	0	0	0	0	0	0	0	0	0	0	0	0	0	0	0	0	0	0	0	0	0	0	0	0	0	0	0	0
070319	11:01:15	11:06:21	305538	5.0.10.0	5_exp_noRW	6	Rpleas_acq	CS_A	JQQJ	CPPC	LWWL	ZHHZ	YFFY	DXXD	sonnig	träumen	vertrauen	küssen	gütig	genießen	sterben	töten	versagen	krank	gierig	gemein	53pct	acq_USpleas_CSunple2_noRW	acq23456_noRW	2	71	0	0	300	300	363	46	0	0	1	blank2r.bmp	0	1	+	0	1	blank2r.bmp	252	1	ZHHZ	306	2	gütig	559	1	FEHLER	959	0	0	0	0	0	0	0	0	0	0	0	0	0	0	0	0	0	0	0	0	0	0	0	0	0	0	0	0	0	0	0	0	0	0	0	0
070319	11:01:15	11:06:22	307097	5.0.10.0	5_exp_noRW	6	Rpleas_acq	CS_A	JQQJ	CPPC	LWWL	ZHHZ	YFFY	DXXD	sonnig	träumen	vertrauen	küssen	gütig	genießen	sterben	töten	versagen	krank	gierig	gemein	53pct	acq_USunple_CSunple2_noRW	acq23456_noRW	2	72	0	0	300	300	376	50	0	0	1	blank2r.bmp	0	1	+	0	1	blank2r.bmp	252	1	ZHHZ	306	2	gierig	559	1	FEHLER	972	0	0	0	0	0	0	0	0	0	0	0	0	0	0	0	0	0	0	0	0	0	0	0	0	0	0	0	0	0	0	0	0	0	0	0	0
070319	11:01:15	11:06:24	308470	5.0.10.0	5_exp_noRW	6	Rpleas_acq	CS_A	JQQJ	CPPC	LWWL	ZHHZ	YFFY	DXXD	sonnig	träumen	vertrauen	küssen	gütig	genießen	sterben	töten	versagen	krank	gierig	gemein	53pct	acq_USunple_CSunple2_noRW	acq23456_noRW	2	73	0	0	300	300	399	46	0	1	1	blank2r.bmp	0	1	+	0	1	blank2r.bmp	252	1	ZHHZ	306	3	gemein	559	0	0	0	0	0	0	0	0	0	0	0	0	0	0	0	0	0	0	0	0	0	0	0	0	0	0	0	0	0	0	0	0	0	0	0	0	0	0	0
070319	11:01:15	11:06:25	310003	5.0.10.0	5_exp_noRW	6	Rpleas_acq	CS_A	JQQJ	CPPC	LWWL	ZHHZ	YFFY	DXXD	sonnig	träumen	vertrauen	küssen	gütig	genießen	sterben	töten	versagen	krank	gierig	gemein	47pct	acq_USpleas_CSpleas1_noRW	acq23456_noRW	2	74	0	0	300	300	358	50	0	1	1	blank2r.bmp	0	1	+	0	1	blank2r.bmp	252	1	JQQJ	306	1	sonnig	559	0	0	0	0	0	0	0	0	0	0	0	0	0	0	0	0	0	0	0	0	0	0	0	0	0	0	0	0	0	0	0	0	0	0	0	0	0	0	0
070319	11:01:15	11:06:27	311562	5.0.10.0	5_exp_noRW	6	Rpleas_acq	CS_A	JQQJ	CPPC	LWWL	ZHHZ	YFFY	DXXD	sonnig	träumen	vertrauen	küssen	gütig	genießen	sterben	töten	versagen	krank	gierig	gemein	53pct	acq_USpleas_CSpleas1_noRW	acq23456_noRW	2	75	0	0	300	300	385	50	0	1	1	blank2r.bmp	0	1	+	0	1	blank2r.bmp	252	1	JQQJ	306	2	träumen	559	0	0	0	0	0	0	0	0	0	0	0	0	0	0	0	0	0	0	0	0	0	0	0	0	0	0	0	0	0	0	0	0	0	0	0	0	0	0	0
070319	11:01:15	11:06:28	313108	5.0.10.0	5_exp_noRW	6	Rpleas_acq	CS_A	JQQJ	CPPC	LWWL	ZHHZ	YFFY	DXXD	sonnig	träumen	vertrauen	küssen	gütig	genießen	sterben	töten	versagen	krank	gierig	gemein	47pct	acq_USpleas_CSpleas2_noRW	acq23456_noRW	2	76	0	0	300	300	381	50	0	1	1	blank2r.bmp	0	1	+	0	1	blank2r.bmp	252	1	CPPC	306	1	küssen	559	0	0	0	0	0	0	0	0	0	0	0	0	0	0	0	0	0	0	0	0	0	0	0	0	0	0	0	0	0	0	0	0	0	0	0	0	0	0	0
070319	11:01:15	11:06:30	314708	5.0.10.0	5_exp_noRW	6	Rpleas_acq	CS_A	JQQJ	CPPC	LWWL	ZHHZ	YFFY	DXXD	sonnig	träumen	vertrauen	küssen	gütig	genießen	sterben	töten	versagen	krank	gierig	gemein	53pct	acq_USunple_CSunple1_noRW	acq23456_noRW	2	77	0	0	300	300	422	46	0	1	1	blank2r.bmp	0	1	+	0	1	blank2r.bmp	252	1	LWWL	306	1	sterben	559	0	0	0	0	0	0	0	0	0	0	0	0	0	0	0	0	0	0	0	0	0	0	0	0	0	0	0	0	0	0	0	0	0	0	0	0	0	0	0
070319	11:01:15	11:06:32	316347	5.0.10.0	5_exp_noRW	6	Rpleas_acq	CS_A	JQQJ	CPPC	LWWL	ZHHZ	YFFY	DXXD	sonnig	träumen	vertrauen	küssen	gütig	genießen	sterben	töten	versagen	krank	gierig	gemein	53pct	acq_USpleas_CSunple1_noRW	acq23456_noRW	2	78	0	0	300	300	456	50	0	1	1	blank2r.bmp	0	1	+	0	1	blank2r.bmp	252	1	LWWL	306	3	vertrauen	559	0	0	0	0	0	0	0	0	0	0	0	0	0	0	0	0	0	0	0	0	0	0	0	0	0	0	0	0	0	0	0	0	0	0	0	0	0	0	0
070319	11:01:15	11:06:33	317893	5.0.10.0	5_exp_noRW	6	Rpleas_acq	CS_A	JQQJ	CPPC	LWWL	ZHHZ	YFFY	DXXD	sonnig	träumen	vertrauen	küssen	gütig	genießen	sterben	töten	versagen	krank	gierig	gemein	47pct	acq_USpleas_CSpleas2_noRW	acq23456_noRW	2	79	0	0	300	300	384	50	0	1	1	blank2r.bmp	0	1	+	0	1	blank2r.bmp	252	1	CPPC	306	3	genießen	559	0	0	0	0	0	0	0	0	0	0	0	0	0	0	0	0	0	0	0	0	0	0	0	0	0	0	0	0	0	0	0	0	0	0	0	0	0	0	0
070319	11:01:15	11:06:35	319466	5.0.10.0	5_exp_noRW	6	Rpleas_acq	CS_A	JQQJ	CPPC	LWWL	ZHHZ	YFFY	DXXD	sonnig	träumen	vertrauen	küssen	gütig	genießen	sterben	töten	versagen	krank	gierig	gemein	47pct	acq_USunple_CSunple2_noRW	acq23456_noRW	2	80	0	0	300	300	392	46	0	1	1	blank2r.bmp	0	1	+	0	1	blank2r.bmp	252	1	ZHHZ	306	1	krank	559	0	0	0	0	0	0	0	0	0	0	0	0	0	0	0	0	0	0	0	0	0	0	0	0	0	0	0	0	0	0	0	0	0	0	0	0	0	0	0
070319	11:01:15	11:06:45	330154	5.0.10.0	5_exp_noRW	6	Rpleas_acq	CS_A	JQQJ	CPPC	LWWL	ZHHZ	YFFY	DXXD	sonnig	träumen	vertrauen	küssen	gütig	genießen	sterben	töten	versagen	krank	gierig	gemein	53pct	acq_USpleas_CSunple2_noRW	acq23456_noRW	3	1	0	0	300	300	390	50	0	1	1	blank2r.bmp	0	1	+	0	1	blank2r.bmp	252	1	ZHHZ	306	1	küssen	559	0	0	0	0	0	0	0	0	0	0	0	0	0	0	0	0	0	0	0	0	0	0	0	0	0	0	0	0	0	0	0	0	0	0	0	0	0	0	0
070319	11:01:15	11:06:47	331714	5.0.10.0	5_exp_noRW	6	Rpleas_acq	CS_A	JQQJ	CPPC	LWWL	ZHHZ	YFFY	DXXD	sonnig	träumen	vertrauen	küssen	gütig	genießen	sterben	töten	versagen	krank	gierig	gemein	53pct	acq_USpleas_CSpleas1_noRW	acq23456_noRW	3	2	0	0	300	300	373	50	0	1	1	blank2r.bmp	0	1	+	0	1	blank2r.bmp	252	1	JQQJ	306	3	vertrauen	559	0	0	0	0	0	0	0	0	0	0	0	0	0	0	0	0	0	0	0	0	0	0	0	0	0	0	0	0	0	0	0	0	0	0	0	0	0	0	0
070319	11:01:15	11:06:48	333167	5.0.10.0	5_exp_noRW	6	Rpleas_acq	CS_A	JQQJ	CPPC	LWWL	ZHHZ	YFFY	DXXD	sonnig	träumen	vertrauen	küssen	gütig	genießen	sterben	töten	versagen	krank	gierig	gemein	53pct	acq_USpleas_CSpleas1_noRW	acq23456_noRW	3	3	0	0	300	300	283	50	0	1	1	blank2r.bmp	0	1	+	0	1	blank2r.bmp	252	1	JQQJ	306	1	sonnig	559	0	0	0	0	0	0	0	0	0	0	0	0	0	0	0	0	0	0	0	0	0	0	0	0	0	0	0	0	0	0	0	0	0	0	0	0	0	0	0
070319	11:01:15	11:06:50	334873	5.0.10.0	5_exp_noRW	6	Rpleas_acq	CS_A	JQQJ	CPPC	LWWL	ZHHZ	YFFY	DXXD	sonnig	träumen	vertrauen	küssen	gütig	genießen	sterben	töten	versagen	krank	gierig	gemein	53pct	acq_USpleas_CSpleas1_noRW	acq23456_noRW	3	4	0	0	300	300	316	46	0	0	1	blank2r.bmp	0	1	+	0	1	blank2r.bmp	252	1	JQQJ	306	3	vertrauen	559	1	FEHLER	906	0	0	0	0	0	0	0	0	0	0	0	0	0	0	0	0	0	0	0	0	0	0	0	0	0	0	0	0	0	0	0	0	0	0	0	0
070319	11:01:15	11:06:52	336379	5.0.10.0	5_exp_noRW	6	Rpleas_acq	CS_A	JQQJ	CPPC	LWWL	ZHHZ	YFFY	DXXD	sonnig	träumen	vertrauen	küssen	gütig	genießen	sterben	töten	versagen	krank	gierig	gemein	47pct	acq_USpleas_CSpleas2_noRW	acq23456_noRW	3	5	0	0	300	300	536	50	0	1	1	blank2r.bmp	0	1	+	0	1	blank2r.bmp	252	1	CPPC	306	2	gütig	559	0	0	0	0	0	0	0	0	0	0	0	0	0	0	0	0	0	0	0	0	0	0	0	0	0	0	0	0	0	0	0	0	0	0	0	0	0	0	0
070319	11:01:15	11:06:53	337978	5.0.10.0	5_exp_noRW	6	Rpleas_acq	CS_A	JQQJ	CPPC	LWWL	ZHHZ	YFFY	DXXD	sonnig	träumen	vertrauen	küssen	gütig	genießen	sterben	töten	versagen	krank	gierig	gemein	53pct	acq_USunple_CSunple1_noRW	acq23456_noRW	3	6	0	0	300	300	416	46	0	1	1	blank2r.bmp	0	1	+	0	1	blank2r.bmp	252	1	LWWL	306	2	töten	559	0	0	0	0	0	0	0	0	0	0	0	0	0	0	0	0	0	0	0	0	0	0	0	0	0	0	0	0	0	0	0	0	0	0	0	0	0	0	0
070319	11:01:15	11:06:55	339684	5.0.10.0	5_exp_noRW	6	Rpleas_acq	CS_A	JQQJ	CPPC	LWWL	ZHHZ	YFFY	DXXD	sonnig	träumen	vertrauen	küssen	gütig	genießen	sterben	töten	versagen	krank	gierig	gemein	53pct	acq_USunple_CSunple2_noRW	acq23456_noRW	3	7	0	0	300	300	532	46	0	1	1	blank2r.bmp	0	1	+	0	1	blank2r.bmp	252	1	ZHHZ	306	2	gierig	559	0	0	0	0	0	0	0	0	0	0	0	0	0	0	0	0	0	0	0	0	0	0	0	0	0	0	0	0	0	0	0	0	0	0	0	0	0	0	0
070319	11:01:15	11:06:56	341243	5.0.10.0	5_exp_noRW	6	Rpleas_acq	CS_A	JQQJ	CPPC	LWWL	ZHHZ	YFFY	DXXD	sonnig	träumen	vertrauen	küssen	gütig	genießen	sterben	töten	versagen	krank	gierig	gemein	53pct	acq_USpleas_CSpleas2_noRW	acq23456_noRW	3	8	0	0	300	300	387	50	0	1	1	blank2r.bmp	0	1	+	0	1	blank2r.bmp	252	1	CPPC	306	2	gütig	559	0	0	0	0	0	0	0	0	0	0	0	0	0	0	0	0	0	0	0	0	0	0	0	0	0	0	0	0	0	0	0	0	0	0	0	0	0	0	0
070319	11:01:15	11:06:58	342763	5.0.10.0	5_exp_noRW	6	Rpleas_acq	CS_A	JQQJ	CPPC	LWWL	ZHHZ	YFFY	DXXD	sonnig	träumen	vertrauen	küssen	gütig	genießen	sterben	töten	versagen	krank	gierig	gemein	53pct	acq_USpleas_CSpleas1_noRW	acq23456_noRW	3	9	0	0	300	300	350	50	0	1	1	blank2r.bmp	0	1	+	0	1	blank2r.bmp	252	1	JQQJ	306	2	träumen	559	0	0	0	0	0	0	0	0	0	0	0	0	0	0	0	0	0	0	0	0	0	0	0	0	0	0	0	0	0	0	0	0	0	0	0	0	0	0	0
070319	11:01:15	11:07:00	344375	5.0.10.0	5_exp_noRW	6	Rpleas_acq	CS_A	JQQJ	CPPC	LWWL	ZHHZ	YFFY	DXXD	sonnig	träumen	vertrauen	küssen	gütig	genießen	sterben	töten	versagen	krank	gierig	gemein	47pct	acq_USpleas_CSpleas2_noRW	acq23456_noRW	3	10	0	0	300	300	435	50	0	1	1	blank2r.bmp	0	1	+	0	1	blank2r.bmp	252	1	CPPC	306	3	genießen	559	0	0	0	0	0	0	0	0	0	0	0	0	0	0	0	0	0	0	0	0	0	0	0	0	0	0	0	0	0	0	0	0	0	0	0	0	0	0	0
070319	11:01:15	11:07:01	346015	5.0.10.0	5_exp_noRW	6	Rpleas_acq	CS_A	JQQJ	CPPC	LWWL	ZHHZ	YFFY	DXXD	sonnig	träumen	vertrauen	küssen	gütig	genießen	sterben	töten	versagen	krank	gierig	gemein	47pct	acq_USunple_CSunple2_noRW	acq23456_noRW	3	11	0	0	300	300	465	46	0	1	1	blank2r.bmp	0	1	+	0	1	blank2r.bmp	252	1	ZHHZ	306	1	krank	559	0	0	0	0	0	0	0	0	0	0	0	0	0	0	0	0	0	0	0	0	0	0	0	0	0	0	0	0	0	0	0	0	0	0	0	0	0	0	0
070319	11:01:15	11:07:03	347627	5.0.10.0	5_exp_noRW	6	Rpleas_acq	CS_A	JQQJ	CPPC	LWWL	ZHHZ	YFFY	DXXD	sonnig	träumen	vertrauen	küssen	gütig	genießen	sterben	töten	versagen	krank	gierig	gemein	53pct	acq_USunple_CSunple1_noRW	acq23456_noRW	3	12	0	0	300	300	451	46	0	1	1	blank2r.bmp	0	1	+	0	1	blank2r.bmp	252	1	LWWL	306	2	töten	559	0	0	0	0	0	0	0	0	0	0	0	0	0	0	0	0	0	0	0	0	0	0	0	0	0	0	0	0	0	0	0	0	0	0	0	0	0	0	0
070319	11:01:15	11:07:05	349360	5.0.10.0	5_exp_noRW	6	Rpleas_acq	CS_A	JQQJ	CPPC	LWWL	ZHHZ	YFFY	DXXD	sonnig	träumen	vertrauen	küssen	gütig	genießen	sterben	töten	versagen	krank	gierig	gemein	53pct	acq_USunple_CSpleas2_noRW	acq23456_noRW	3	13	0	0	300	300	557	46	0	1	1	blank2r.bmp	0	1	+	0	1	blank2r.bmp	252	1	CPPC	306	3	gemein	559	0	0	0	0	0	0	0	0	0	0	0	0	0	0	0	0	0	0	0	0	0	0	0	0	0	0	0	0	0	0	0	0	0	0	0	0	0	0	0
070319	11:01:15	11:07:06	350972	5.0.10.0	5_exp_noRW	6	Rpleas_acq	CS_A	JQQJ	CPPC	LWWL	ZHHZ	YFFY	DXXD	sonnig	träumen	vertrauen	küssen	gütig	genießen	sterben	töten	versagen	krank	gierig	gemein	47pct	acq_USpleas_CSunple1_noRW	acq23456_noRW	3	14	0	0	300	300	430	50	0	1	1	blank2r.bmp	0	1	+	0	1	blank2r.bmp	252	1	LWWL	306	2	träumen	559	0	0	0	0	0	0	0	0	0	0	0	0	0	0	0	0	0	0	0	0	0	0	0	0	0	0	0	0	0	0	0	0	0	0	0	0	0	0	0
070319	11:01:15	11:07:08	352572	5.0.10.0	5_exp_noRW	6	Rpleas_acq	CS_A	JQQJ	CPPC	LWWL	ZHHZ	YFFY	DXXD	sonnig	träumen	vertrauen	küssen	gütig	genießen	sterben	töten	versagen	krank	gierig	gemein	53pct	acq_USunple_CSunple1_noRW	acq23456_noRW	3	15	0	0	300	300	434	46	0	1	1	blank2r.bmp	0	1	+	0	1	blank2r.bmp	252	1	LWWL	306	3	versagen	559	0	0	0	0	0	0	0	0	0	0	0	0	0	0	0	0	0	0	0	0	0	0	0	0	0	0	0	0	0	0	0	0	0	0	0	0	0	0	0
070319	11:01:15	11:07:10	354264	5.0.10.0	5_exp_noRW	6	Rpleas_acq	CS_A	JQQJ	CPPC	LWWL	ZHHZ	YFFY	DXXD	sonnig	träumen	vertrauen	küssen	gütig	genießen	sterben	töten	versagen	krank	gierig	gemein	53pct	acq_USunple_CSunple2_noRW	acq23456_noRW	3	16	0	0	300	300	514	46	0	1	1	blank2r.bmp	0	1	+	0	1	blank2r.bmp	252	1	ZHHZ	306	3	gemein	559	0	0	0	0	0	0	0	0	0	0	0	0	0	0	0	0	0	0	0	0	0	0	0	0	0	0	0	0	0	0	0	0	0	0	0	0	0	0	0
070319	11:01:15	11:07:11	356237	5.0.10.0	5_exp_noRW	6	Rpleas_acq	CS_A	JQQJ	CPPC	LWWL	ZHHZ	YFFY	DXXD	sonnig	träumen	vertrauen	küssen	gütig	genießen	sterben	töten	versagen	krank	gierig	gemein	53pct	acq_USunple_CSunple2_noRW	acq23456_noRW	3	17	0	0	300	300	585	50	0	0	1	blank2r.bmp	0	1	+	0	1	blank2r.bmp	252	1	ZHHZ	306	2	gierig	559	1	FEHLER	1186	0	0	0	0	0	0	0	0	0	0	0	0	0	0	0	0	0	0	0	0	0	0	0	0	0	0	0	0	0	0	0	0	0	0	0	0
070319	11:01:15	11:07:13	357596	5.0.10.0	5_exp_noRW	6	Rpleas_acq	CS_A	JQQJ	CPPC	LWWL	ZHHZ	YFFY	DXXD	sonnig	träumen	vertrauen	küssen	gütig	genießen	sterben	töten	versagen	krank	gierig	gemein	53pct	acq_USunple_CSunple1_noRW	acq23456_noRW	3	18	0	0	300	300	423	46	0	1	1	blank2r.bmp	0	1	+	0	1	blank2r.bmp	252	1	LWWL	306	1	sterben	559	0	0	0	0	0	0	0	0	0	0	0	0	0	0	0	0	0	0	0	0	0	0	0	0	0	0	0	0	0	0	0	0	0	0	0	0	0	0	0
070319	11:01:15	11:07:14	359142	5.0.10.0	5_exp_noRW	6	Rpleas_acq	CS_A	JQQJ	CPPC	LWWL	ZHHZ	YFFY	DXXD	sonnig	träumen	vertrauen	küssen	gütig	genießen	sterben	töten	versagen	krank	gierig	gemein	53pct	acq_USpleas_CSpleas2_noRW	acq23456_noRW	3	19	0	0	300	300	371	50	0	1	1	blank2r.bmp	0	1	+	0	1	blank2r.bmp	252	1	CPPC	306	1	küssen	559	0	0	0	0	0	0	0	0	0	0	0	0	0	0	0	0	0	0	0	0	0	0	0	0	0	0	0	0	0	0	0	0	0	0	0	0	0	0	0
070319	11:01:15	11:07:16	360808	5.0.10.0	5_exp_noRW	6	Rpleas_acq	CS_A	JQQJ	CPPC	LWWL	ZHHZ	YFFY	DXXD	sonnig	träumen	vertrauen	küssen	gütig	genießen	sterben	töten	versagen	krank	gierig	gemein	47pct	acq_USunple_CSpleas1_noRW	acq23456_noRW	3	20	0	0	300	300	489	46	0	1	1	blank2r.bmp	0	1	+	0	1	blank2r.bmp	252	1	JQQJ	306	2	töten	559	0	0	0	0	0	0	0	0	0	0	0	0	0	0	0	0	0	0	0	0	0	0	0	0	0	0	0	0	0	0	0	0	0	0	0	0	0	0	0
070319	11:01:15	11:07:18	362354	5.0.10.0	5_exp_noRW	6	Rpleas_acq	CS_A	JQQJ	CPPC	LWWL	ZHHZ	YFFY	DXXD	sonnig	träumen	vertrauen	küssen	gütig	genießen	sterben	töten	versagen	krank	gierig	gemein	53pct	acq_USpleas_CSunple1_noRW	acq23456_noRW	3	21	0	0	300	300	362	50	0	1	1	blank2r.bmp	0	1	+	0	1	blank2r.bmp	252	1	LWWL	306	1	sonnig	559	0	0	0	0	0	0	0	0	0	0	0	0	0	0	0	0	0	0	0	0	0	0	0	0	0	0	0	0	0	0	0	0	0	0	0	0	0	0	0
070319	11:01:15	11:07:19	363967	5.0.10.0	5_exp_noRW	6	Rpleas_acq	CS_A	JQQJ	CPPC	LWWL	ZHHZ	YFFY	DXXD	sonnig	träumen	vertrauen	küssen	gütig	genießen	sterben	töten	versagen	krank	gierig	gemein	53pct	acq_USpleas_CSpleas1_noRW	acq23456_noRW	3	22	0	0	300	300	434	50	0	1	1	blank2r.bmp	0	1	+	0	1	blank2r.bmp	252	1	JQQJ	306	2	träumen	559	0	0	0	0	0	0	0	0	0	0	0	0	0	0	0	0	0	0	0	0	0	0	0	0	0	0	0	0	0	0	0	0	0	0	0	0	0	0	0
070319	11:01:15	11:07:21	365513	5.0.10.0	5_exp_noRW	6	Rpleas_acq	CS_A	JQQJ	CPPC	LWWL	ZHHZ	YFFY	DXXD	sonnig	träumen	vertrauen	küssen	gütig	genießen	sterben	töten	versagen	krank	gierig	gemein	47pct	acq_USpleas_CSunple2_noRW	acq23456_noRW	3	23	0	0	300	300	376	50	0	1	1	blank2r.bmp	0	1	+	0	1	blank2r.bmp	252	1	ZHHZ	306	3	genießen	559	0	0	0	0	0	0	0	0	0	0	0	0	0	0	0	0	0	0	0	0	0	0	0	0	0	0	0	0	0	0	0	0	0	0	0	0	0	0	0
070319	11:01:15	11:07:22	367126	5.0.10.0	5_exp_noRW	6	Rpleas_acq	CS_A	JQQJ	CPPC	LWWL	ZHHZ	YFFY	DXXD	sonnig	träumen	vertrauen	küssen	gütig	genießen	sterben	töten	versagen	krank	gierig	gemein	47pct	acq_USpleas_CSpleas2_noRW	acq23456_noRW	3	24	0	0	300	300	447	50	0	1	1	blank2r.bmp	0	1	+	0	1	blank2r.bmp	252	1	CPPC	306	3	genießen	559	0	0	0	0	0	0	0	0	0	0	0	0	0	0	0	0	0	0	0	0	0	0	0	0	0	0	0	0	0	0	0	0	0	0	0	0	0	0	0
070319	11:01:15	11:07:24	368712	5.0.10.0	5_exp_noRW	6	Rpleas_acq	CS_A	JQQJ	CPPC	LWWL	ZHHZ	YFFY	DXXD	sonnig	träumen	vertrauen	küssen	gütig	genießen	sterben	töten	versagen	krank	gierig	gemein	47pct	acq_USpleas_CSpleas2_noRW	acq23456_noRW	3	25	0	0	300	300	402	50	0	1	1	blank2r.bmp	0	1	+	0	1	blank2r.bmp	252	1	CPPC	306	1	küssen	559	0	0	0	0	0	0	0	0	0	0	0	0	0	0	0	0	0	0	0	0	0	0	0	0	0	0	0	0	0	0	0	0	0	0	0	0	0	0	0
070319	11:01:15	11:07:26	370431	5.0.10.0	5_exp_noRW	6	Rpleas_acq	CS_A	JQQJ	CPPC	LWWL	ZHHZ	YFFY	DXXD	sonnig	träumen	vertrauen	küssen	gütig	genießen	sterben	töten	versagen	krank	gierig	gemein	53pct	acq_USunple_CSunple2_noRW	acq23456_noRW	3	26	0	0	300	300	545	46	0	1	1	blank2r.bmp	0	1	+	0	1	blank2r.bmp	252	1	ZHHZ	306	2	gierig	559	0	0	0	0	0	0	0	0	0	0	0	0	0	0	0	0	0	0	0	0	0	0	0	0	0	0	0	0	0	0	0	0	0	0	0	0	0	0	0
070319	11:01:15	11:07:27	371924	5.0.10.0	5_exp_noRW	6	Rpleas_acq	CS_A	JQQJ	CPPC	LWWL	ZHHZ	YFFY	DXXD	sonnig	träumen	vertrauen	küssen	gütig	genießen	sterben	töten	versagen	krank	gierig	gemein	53pct	acq_USunple_CSpleas2_noRW	acq23456_noRW	3	27	0	0	300	300	331	46	0	1	1	blank2r.bmp	0	1	+	0	1	blank2r.bmp	252	1	CPPC	306	2	gierig	559	0	0	0	0	0	0	0	0	0	0	0	0	0	0	0	0	0	0	0	0	0	0	0	0	0	0	0	0	0	0	0	0	0	0	0	0	0	0	0
070319	11:01:15	11:07:29	373576	5.0.10.0	5_exp_noRW	6	Rpleas_acq	CS_A	JQQJ	CPPC	LWWL	ZHHZ	YFFY	DXXD	sonnig	träumen	vertrauen	küssen	gütig	genießen	sterben	töten	versagen	krank	gierig	gemein	53pct	acq_USunple_CSunple1_noRW	acq23456_noRW	3	28	0	0	300	300	453	46	0	1	1	blank2r.bmp	0	1	+	0	1	blank2r.bmp	252	1	LWWL	306	1	sterben	559	0	0	0	0	0	0	0	0	0	0	0	0	0	0	0	0	0	0	0	0	0	0	0	0	0	0	0	0	0	0	0	0	0	0	0	0	0	0	0
070319	11:01:15	11:07:30	375162	5.0.10.0	5_exp_noRW	6	Rpleas_acq	CS_A	JQQJ	CPPC	LWWL	ZHHZ	YFFY	DXXD	sonnig	träumen	vertrauen	küssen	gütig	genießen	sterben	töten	versagen	krank	gierig	gemein	53pct	acq_USpleas_CSpleas1_noRW	acq23456_noRW	3	29	0	0	300	300	421	50	0	1	1	blank2r.bmp	0	1	+	0	1	blank2r.bmp	252	1	JQQJ	306	3	vertrauen	559	0	0	0	0	0	0	0	0	0	0	0	0	0	0	0	0	0	0	0	0	0	0	0	0	0	0	0	0	0	0	0	0	0	0	0	0	0	0	0
070319	11:01:15	11:07:32	376855	5.0.10.0	5_exp_noRW	6	Rpleas_acq	CS_A	JQQJ	CPPC	LWWL	ZHHZ	YFFY	DXXD	sonnig	träumen	vertrauen	küssen	gütig	genießen	sterben	töten	versagen	krank	gierig	gemein	47pct	acq_USunple_CSunple2_noRW	acq23456_noRW	3	30	0	0	300	300	512	46	0	1	1	blank2r.bmp	0	1	+	0	1	blank2r.bmp	252	1	ZHHZ	306	1	krank	559	0	0	0	0	0	0	0	0	0	0	0	0	0	0	0	0	0	0	0	0	0	0	0	0	0	0	0	0	0	0	0	0	0	0	0	0	0	0	0
070319	11:01:15	11:07:34	378441	5.0.10.0	5_exp_noRW	6	Rpleas_acq	CS_A	JQQJ	CPPC	LWWL	ZHHZ	YFFY	DXXD	sonnig	träumen	vertrauen	küssen	gütig	genießen	sterben	töten	versagen	krank	gierig	gemein	47pct	acq_USunple_CSunple2_noRW	acq23456_noRW	3	31	0	0	300	300	414	46	0	1	1	blank2r.bmp	0	1	+	0	1	blank2r.bmp	252	1	ZHHZ	306	3	gemein	559	0	0	0	0	0	0	0	0	0	0	0	0	0	0	0	0	0	0	0	0	0	0	0	0	0	0	0	0	0	0	0	0	0	0	0	0	0	0	0
070319	11:01:15	11:07:35	380080	5.0.10.0	5_exp_noRW	6	Rpleas_acq	CS_A	JQQJ	CPPC	LWWL	ZHHZ	YFFY	DXXD	sonnig	träumen	vertrauen	küssen	gütig	genießen	sterben	töten	versagen	krank	gierig	gemein	47pct	acq_USpleas_CSpleas1_noRW	acq23456_noRW	3	32	0	0	300	300	461	50	0	1	1	blank2r.bmp	0	1	+	0	1	blank2r.bmp	252	1	JQQJ	306	1	sonnig	559	0	0	0	0	0	0	0	0	0	0	0	0	0	0	0	0	0	0	0	0	0	0	0	0	0	0	0	0	0	0	0	0	0	0	0	0	0	0	0
070319	11:01:15	11:07:37	381613	5.0.10.0	5_exp_noRW	6	Rpleas_acq	CS_A	JQQJ	CPPC	LWWL	ZHHZ	YFFY	DXXD	sonnig	träumen	vertrauen	küssen	gütig	genießen	sterben	töten	versagen	krank	gierig	gemein	53pct	acq_USpleas_CSpleas1_noRW	acq23456_noRW	3	33	0	0	300	300	352	50	0	1	1	blank2r.bmp	0	1	+	0	1	blank2r.bmp	252	1	JQQJ	306	1	sonnig	559	0	0	0	0	0	0	0	0	0	0	0	0	0	0	0	0	0	0	0	0	0	0	0	0	0	0	0	0	0	0	0	0	0	0	0	0	0	0	0
070319	11:01:15	11:07:39	383372	5.0.10.0	5_exp_noRW	6	Rpleas_acq	CS_A	JQQJ	CPPC	LWWL	ZHHZ	YFFY	DXXD	sonnig	träumen	vertrauen	küssen	gütig	genießen	sterben	töten	versagen	krank	gierig	gemein	53pct	acq_USpleas_CSpleas2_noRW	acq23456_noRW	3	34	0	0	300	300	373	46	0	0	1	blank2r.bmp	0	1	+	0	1	blank2r.bmp	252	1	CPPC	306	2	gütig	559	1	FEHLER	972	0	0	0	0	0	0	0	0	0	0	0	0	0	0	0	0	0	0	0	0	0	0	0	0	0	0	0	0	0	0	0	0	0	0	0	0
070319	11:01:15	11:07:40	384825	5.0.10.0	5_exp_noRW	6	Rpleas_acq	CS_A	JQQJ	CPPC	LWWL	ZHHZ	YFFY	DXXD	sonnig	träumen	vertrauen	küssen	gütig	genießen	sterben	töten	versagen	krank	gierig	gemein	47pct	acq_USunple_CSunple1_noRW	acq23456_noRW	3	35	0	0	300	300	501	46	0	1	1	blank2r.bmp	0	1	+	0	1	blank2r.bmp	252	1	LWWL	306	2	töten	559	0	0	0	0	0	0	0	0	0	0	0	0	0	0	0	0	0	0	0	0	0	0	0	0	0	0	0	0	0	0	0	0	0	0	0	0	0	0	0
070319	11:01:15	11:07:42	386678	5.0.10.0	5_exp_noRW	6	Rpleas_acq	CS_A	JQQJ	CPPC	LWWL	ZHHZ	YFFY	DXXD	sonnig	träumen	vertrauen	küssen	gütig	genießen	sterben	töten	versagen	krank	gierig	gemein	53pct	acq_USpleas_CSpleas2_noRW	acq23456_noRW	3	36	0	0	300	300	469	46	0	0	1	blank2r.bmp	0	1	+	0	1	blank2r.bmp	252	1	CPPC	306	2	gütig	559	1	FEHLER	1066	0	0	0	0	0	0	0	0	0	0	0	0	0	0	0	0	0	0	0	0	0	0	0	0	0	0	0	0	0	0	0	0	0	0	0	0
070319	11:01:15	11:07:43	388117	5.0.10.0	5_exp_noRW	6	Rpleas_acq	CS_A	JQQJ	CPPC	LWWL	ZHHZ	YFFY	DXXD	sonnig	träumen	vertrauen	küssen	gütig	genießen	sterben	töten	versagen	krank	gierig	gemein	53pct	acq_USunple_CSunple2_noRW	acq23456_noRW	3	37	0	0	300	300	491	46	0	1	1	blank2r.bmp	0	1	+	0	1	blank2r.bmp	252	1	ZHHZ	306	2	gierig	559	0	0	0	0	0	0	0	0	0	0	0	0	0	0	0	0	0	0	0	0	0	0	0	0	0	0	0	0	0	0	0	0	0	0	0	0	0	0	0
070319	11:01:15	11:07:45	389890	5.0.10.0	5_exp_noRW	6	Rpleas_acq	CS_A	JQQJ	CPPC	LWWL	ZHHZ	YFFY	DXXD	sonnig	träumen	vertrauen	küssen	gütig	genießen	sterben	töten	versagen	krank	gierig	gemein	53pct	acq_USunple_CSpleas1_noRW	acq23456_noRW	3	38	0	0	300	300	378	50	0	0	1	blank2r.bmp	0	1	+	0	1	blank2r.bmp	252	1	JQQJ	306	3	versagen	559	1	FEHLER	972	0	0	0	0	0	0	0	0	0	0	0	0	0	0	0	0	0	0	0	0	0	0	0	0	0	0	0	0	0	0	0	0	0	0	0	0
070319	11:01:15	11:07:47	391382	5.0.10.0	5_exp_noRW	6	Rpleas_acq	CS_A	JQQJ	CPPC	LWWL	ZHHZ	YFFY	DXXD	sonnig	träumen	vertrauen	küssen	gütig	genießen	sterben	töten	versagen	krank	gierig	gemein	53pct	acq_USunple_CSunple1_noRW	acq23456_noRW	3	39	0	0	300	300	534	46	0	1	1	blank2r.bmp	0	1	+	0	1	blank2r.bmp	252	1	LWWL	306	3	versagen	559	0	0	0	0	0	0	0	0	0	0	0	0	0	0	0	0	0	0	0	0	0	0	0	0	0	0	0	0	0	0	0	0	0	0	0	0	0	0	0
070319	11:01:15	11:07:48	392995	5.0.10.0	5_exp_noRW	6	Rpleas_acq	CS_A	JQQJ	CPPC	LWWL	ZHHZ	YFFY	DXXD	sonnig	träumen	vertrauen	küssen	gütig	genießen	sterben	töten	versagen	krank	gierig	gemein	47pct	acq_USunple_CSunple1_noRW	acq23456_noRW	3	40	0	0	300	300	446	46	0	1	1	blank2r.bmp	0	1	+	0	1	blank2r.bmp	252	1	LWWL	306	2	töten	559	0	0	0	0	0	0	0	0	0	0	0	0	0	0	0	0	0	0	0	0	0	0	0	0	0	0	0	0	0	0	0	0	0	0	0	0	0	0	0
070319	11:01:15	11:07:50	394714	5.0.10.0	5_exp_noRW	6	Rpleas_acq	CS_A	JQQJ	CPPC	LWWL	ZHHZ	YFFY	DXXD	sonnig	träumen	vertrauen	küssen	gütig	genießen	sterben	töten	versagen	krank	gierig	gemein	47pct	acq_USunple_CSunple2_noRW	acq23456_noRW	3	41	0	0	300	300	536	46	0	1	1	blank2r.bmp	0	1	+	0	1	blank2r.bmp	252	1	ZHHZ	306	1	krank	559	0	0	0	0	0	0	0	0	0	0	0	0	0	0	0	0	0	0	0	0	0	0	0	0	0	0	0	0	0	0	0	0	0	0	0	0	0	0	0
070319	11:01:15	11:07:52	396380	5.0.10.0	5_exp_noRW	6	Rpleas_acq	CS_A	JQQJ	CPPC	LWWL	ZHHZ	YFFY	DXXD	sonnig	träumen	vertrauen	küssen	gütig	genießen	sterben	töten	versagen	krank	gierig	gemein	53pct	acq_USpleas_CSpleas2_noRW	acq23456_noRW	3	42	0	0	300	300	502	50	0	1	1	blank2r.bmp	0	1	+	0	1	blank2r.bmp	252	1	CPPC	306	3	genießen	559	0	0	0	0	0	0	0	0	0	0	0	0	0	0	0	0	0	0	0	0	0	0	0	0	0	0	0	0	0	0	0	0	0	0	0	0	0	0	0
070319	11:01:15	11:07:53	398139	5.0.10.0	5_exp_noRW	6	Rpleas_acq	CS_A	JQQJ	CPPC	LWWL	ZHHZ	YFFY	DXXD	sonnig	träumen	vertrauen	küssen	gütig	genießen	sterben	töten	versagen	krank	gierig	gemein	47pct	acq_USunple_CSunple1_noRW	acq23456_noRW	3	43	0	0	300	300	575	46	0	1	1	blank2r.bmp	0	1	+	0	1	blank2r.bmp	252	1	LWWL	306	3	versagen	559	0	0	0	0	0	0	0	0	0	0	0	0	0	0	0	0	0	0	0	0	0	0	0	0	0	0	0	0	0	0	0	0	0	0	0	0	0	0	0
070319	11:01:15	11:07:55	399765	5.0.10.0	5_exp_noRW	6	Rpleas_acq	CS_A	JQQJ	CPPC	LWWL	ZHHZ	YFFY	DXXD	sonnig	träumen	vertrauen	küssen	gütig	genießen	sterben	töten	versagen	krank	gierig	gemein	53pct	acq_USunple_CSpleas1_noRW	acq23456_noRW	3	44	0	0	300	300	464	46	0	1	1	blank2r.bmp	0	1	+	0	1	blank2r.bmp	252	1	JQQJ	306	2	töten	559	0	0	0	0	0	0	0	0	0	0	0	0	0	0	0	0	0	0	0	0	0	0	0	0	0	0	0	0	0	0	0	0	0	0	0	0	0	0	0
070319	11:01:15	11:07:57	401365	5.0.10.0	5_exp_noRW	6	Rpleas_acq	CS_A	JQQJ	CPPC	LWWL	ZHHZ	YFFY	DXXD	sonnig	träumen	vertrauen	küssen	gütig	genießen	sterben	töten	versagen	krank	gierig	gemein	47pct	acq_USpleas_CSpleas1_noRW	acq23456_noRW	3	45	0	0	300	300	421	50	0	1	1	blank2r.bmp	0	1	+	0	1	blank2r.bmp	252	1	JQQJ	306	3	vertrauen	559	0	0	0	0	0	0	0	0	0	0	0	0	0	0	0	0	0	0	0	0	0	0	0	0	0	0	0	0	0	0	0	0	0	0	0	0	0	0	0
070319	11:01:15	11:07:58	402951	5.0.10.0	5_exp_noRW	6	Rpleas_acq	CS_A	JQQJ	CPPC	LWWL	ZHHZ	YFFY	DXXD	sonnig	träumen	vertrauen	küssen	gütig	genießen	sterben	töten	versagen	krank	gierig	gemein	47pct	acq_USpleas_CSunple1_noRW	acq23456_noRW	3	46	0	0	300	300	407	50	0	1	1	blank2r.bmp	0	1	+	0	1	blank2r.bmp	252	1	LWWL	306	2	träumen	559	0	0	0	0	0	0	0	0	0	0	0	0	0	0	0	0	0	0	0	0	0	0	0	0	0	0	0	0	0	0	0	0	0	0	0	0	0	0	0
070319	11:01:15	11:08:00	404603	5.0.10.0	5_exp_noRW	6	Rpleas_acq	CS_A	JQQJ	CPPC	LWWL	ZHHZ	YFFY	DXXD	sonnig	träumen	vertrauen	küssen	gütig	genießen	sterben	töten	versagen	krank	gierig	gemein	53pct	acq_USpleas_CSpleas2_noRW	acq23456_noRW	3	47	0	0	300	300	484	50	0	1	1	blank2r.bmp	0	1	+	0	1	blank2r.bmp	252	1	CPPC	306	1	küssen	559	0	0	0	0	0	0	0	0	0	0	0	0	0	0	0	0	0	0	0	0	0	0	0	0	0	0	0	0	0	0	0	0	0	0	0	0	0	0	0
070319	11:01:15	11:08:02	406349	5.0.10.0	5_exp_noRW	6	Rpleas_acq	CS_A	JQQJ	CPPC	LWWL	ZHHZ	YFFY	DXXD	sonnig	träumen	vertrauen	küssen	gütig	genießen	sterben	töten	versagen	krank	gierig	gemein	53pct	acq_USpleas_CSunple2_noRW	acq23456_noRW	3	48	0	0	300	300	570	50	0	1	1	blank2r.bmp	0	1	+	0	1	blank2r.bmp	252	1	ZHHZ	306	2	gütig	559	0	0	0	0	0	0	0	0	0	0	0	0	0	0	0	0	0	0	0	0	0	0	0	0	0	0	0	0	0	0	0	0	0	0	0	0	0	0	0
070319	11:01:15	11:08:03	407975	5.0.10.0	5_exp_noRW	6	Rpleas_acq	CS_A	JQQJ	CPPC	LWWL	ZHHZ	YFFY	DXXD	sonnig	träumen	vertrauen	küssen	gütig	genießen	sterben	töten	versagen	krank	gierig	gemein	53pct	acq_USunple_CSunple2_noRW	acq23456_noRW	3	49	0	0	300	300	445	46	0	1	1	blank2r.bmp	0	1	+	0	1	blank2r.bmp	252	1	ZHHZ	306	3	gemein	559	0	0	0	0	0	0	0	0	0	0	0	0	0	0	0	0	0	0	0	0	0	0	0	0	0	0	0	0	0	0	0	0	0	0	0	0	0	0	0
070319	11:01:15	11:08:05	409508	5.0.10.0	5_exp_noRW	6	Rpleas_acq	CS_A	JQQJ	CPPC	LWWL	ZHHZ	YFFY	DXXD	sonnig	träumen	vertrauen	küssen	gütig	genießen	sterben	töten	versagen	krank	gierig	gemein	47pct	acq_USunple_CSunple1_noRW	acq23456_noRW	3	50	0	0	300	300	363	46	0	1	1	blank2r.bmp	0	1	+	0	1	blank2r.bmp	252	1	LWWL	306	1	sterben	559	0	0	0	0	0	0	0	0	0	0	0	0	0	0	0	0	0	0	0	0	0	0	0	0	0	0	0	0	0	0	0	0	0	0	0	0	0	0	0
070319	11:01:15	11:08:06	411027	5.0.10.0	5_exp_noRW	6	Rpleas_acq	CS_A	JQQJ	CPPC	LWWL	ZHHZ	YFFY	DXXD	sonnig	träumen	vertrauen	küssen	gütig	genießen	sterben	töten	versagen	krank	gierig	gemein	53pct	acq_USunple_CSpleas2_noRW	acq23456_noRW	3	51	0	0	300	300	354	46	0	1	1	blank2r.bmp	0	1	+	0	1	blank2r.bmp	252	1	CPPC	306	1	krank	559	0	0	0	0	0	0	0	0	0	0	0	0	0	0	0	0	0	0	0	0	0	0	0	0	0	0	0	0	0	0	0	0	0	0	0	0	0	0	0
070319	11:01:15	11:08:08	412653	5.0.10.0	5_exp_noRW	6	Rpleas_acq	CS_A	JQQJ	CPPC	LWWL	ZHHZ	YFFY	DXXD	sonnig	träumen	vertrauen	küssen	gütig	genießen	sterben	töten	versagen	krank	gierig	gemein	53pct	acq_USpleas_CSpleas2_noRW	acq23456_noRW	3	52	0	0	300	300	450	50	0	1	1	blank2r.bmp	0	1	+	0	1	blank2r.bmp	252	1	CPPC	306	2	gütig	559	0	0	0	0	0	0	0	0	0	0	0	0	0	0	0	0	0	0	0	0	0	0	0	0	0	0	0	0	0	0	0	0	0	0	0	0	0	0	0
070319	11:01:15	11:08:09	414199	5.0.10.0	5_exp_noRW	6	Rpleas_acq	CS_A	JQQJ	CPPC	LWWL	ZHHZ	YFFY	DXXD	sonnig	träumen	vertrauen	küssen	gütig	genießen	sterben	töten	versagen	krank	gierig	gemein	47pct	acq_USpleas_CSpleas1_noRW	acq23456_noRW	3	53	0	0	300	300	380	50	0	1	1	blank2r.bmp	0	1	+	0	1	blank2r.bmp	252	1	JQQJ	306	2	träumen	559	0	0	0	0	0	0	0	0	0	0	0	0	0	0	0	0	0	0	0	0	0	0	0	0	0	0	0	0	0	0	0	0	0	0	0	0	0	0	0
070319	11:01:15	11:08:11	415745	5.0.10.0	5_exp_noRW	6	Rpleas_acq	CS_A	JQQJ	CPPC	LWWL	ZHHZ	YFFY	DXXD	sonnig	träumen	vertrauen	küssen	gütig	genießen	sterben	töten	versagen	krank	gierig	gemein	53pct	acq_USunple_CSunple1_noRW	acq23456_noRW	3	54	0	0	300	300	373	46	0	1	1	blank2r.bmp	0	1	+	0	1	blank2r.bmp	252	1	LWWL	306	2	töten	559	0	0	0	0	0	0	0	0	0	0	0	0	0	0	0	0	0	0	0	0	0	0	0	0	0	0	0	0	0	0	0	0	0	0	0	0	0	0	0
070319	11:01:15	11:08:13	417425	5.0.10.0	5_exp_noRW	6	Rpleas_acq	CS_A	JQQJ	CPPC	LWWL	ZHHZ	YFFY	DXXD	sonnig	träumen	vertrauen	küssen	gütig	genießen	sterben	töten	versagen	krank	gierig	gemein	47pct	acq_USunple_CSunple2_noRW	acq23456_noRW	3	55	0	0	300	300	304	50	0	0	1	blank2r.bmp	0	1	+	0	1	blank2r.bmp	252	1	ZHHZ	306	1	krank	559	1	FEHLER	892	0	0	0	0	0	0	0	0	0	0	0	0	0	0	0	0	0	0	0	0	0	0	0	0	0	0	0	0	0	0	0	0	0	0	0	0
070319	11:01:15	11:08:14	418744	5.0.10.0	5_exp_noRW	6	Rpleas_acq	CS_A	JQQJ	CPPC	LWWL	ZHHZ	YFFY	DXXD	sonnig	träumen	vertrauen	küssen	gütig	genießen	sterben	töten	versagen	krank	gierig	gemein	53pct	acq_USunple_CSunple2_noRW	acq23456_noRW	3	56	0	0	300	300	356	46	0	1	1	blank2r.bmp	0	1	+	0	1	blank2r.bmp	252	1	ZHHZ	306	2	gierig	559	0	0	0	0	0	0	0	0	0	0	0	0	0	0	0	0	0	0	0	0	0	0	0	0	0	0	0	0	0	0	0	0	0	0	0	0	0	0	0
070319	11:01:15	11:08:16	420383	5.0.10.0	5_exp_noRW	6	Rpleas_acq	CS_A	JQQJ	CPPC	LWWL	ZHHZ	YFFY	DXXD	sonnig	träumen	vertrauen	küssen	gütig	genießen	sterben	töten	versagen	krank	gierig	gemein	53pct	acq_USpleas_CSpleas1_noRW	acq23456_noRW	3	57	0	0	300	300	464	50	0	1	1	blank2r.bmp	0	1	+	0	1	blank2r.bmp	252	1	JQQJ	306	2	träumen	559	0	0	0	0	0	0	0	0	0	0	0	0	0	0	0	0	0	0	0	0	0	0	0	0	0	0	0	0	0	0	0	0	0	0	0	0	0	0	0
070319	11:01:15	11:08:17	422023	5.0.10.0	5_exp_noRW	6	Rpleas_acq	CS_A	JQQJ	CPPC	LWWL	ZHHZ	YFFY	DXXD	sonnig	träumen	vertrauen	küssen	gütig	genießen	sterben	töten	versagen	krank	gierig	gemein	47pct	acq_USunple_CSunple1_noRW	acq23456_noRW	3	58	0	0	300	300	459	46	0	1	1	blank2r.bmp	0	1	+	0	1	blank2r.bmp	252	1	LWWL	306	1	sterben	559	0	0	0	0	0	0	0	0	0	0	0	0	0	0	0	0	0	0	0	0	0	0	0	0	0	0	0	0	0	0	0	0	0	0	0	0	0	0	0
070319	11:01:15	11:08:19	423542	5.0.10.0	5_exp_noRW	6	Rpleas_acq	CS_A	JQQJ	CPPC	LWWL	ZHHZ	YFFY	DXXD	sonnig	träumen	vertrauen	küssen	gütig	genießen	sterben	töten	versagen	krank	gierig	gemein	53pct	acq_USpleas_CSpleas2_noRW	acq23456_noRW	3	59	0	0	300	300	343	50	0	1	1	blank2r.bmp	0	1	+	0	1	blank2r.bmp	252	1	CPPC	306	1	küssen	559	0	0	0	0	0	0	0	0	0	0	0	0	0	0	0	0	0	0	0	0	0	0	0	0	0	0	0	0	0	0	0	0	0	0	0	0	0	0	0
070319	11:01:15	11:08:20	425061	5.0.10.0	5_exp_noRW	6	Rpleas_acq	CS_A	JQQJ	CPPC	LWWL	ZHHZ	YFFY	DXXD	sonnig	träumen	vertrauen	küssen	gütig	genießen	sterben	töten	versagen	krank	gierig	gemein	47pct	acq_USpleas_CSpleas1_noRW	acq23456_noRW	3	60	0	0	300	300	353	50	0	1	1	blank2r.bmp	0	1	+	0	1	blank2r.bmp	252	1	JQQJ	306	1	sonnig	559	0	0	0	0	0	0	0	0	0	0	0	0	0	0	0	0	0	0	0	0	0	0	0	0	0	0	0	0	0	0	0	0	0	0	0	0	0	0	0
070319	11:01:15	11:08:22	426861	5.0.10.0	5_exp_noRW	6	Rpleas_acq	CS_A	JQQJ	CPPC	LWWL	ZHHZ	YFFY	DXXD	sonnig	träumen	vertrauen	küssen	gütig	genießen	sterben	töten	versagen	krank	gierig	gemein	47pct	acq_USpleas_CSpleas2_noRW	acq23456_noRW	3	61	0	0	300	300	404	46	0	0	1	blank2r.bmp	0	1	+	0	1	blank2r.bmp	252	1	CPPC	306	3	genießen	559	1	FEHLER	999	0	0	0	0	0	0	0	0	0	0	0	0	0	0	0	0	0	0	0	0	0	0	0	0	0	0	0	0	0	0	0	0	0	0	0	0
070319	11:01:15	11:08:24	428300	5.0.10.0	5_exp_noRW	6	Rpleas_acq	CS_A	JQQJ	CPPC	LWWL	ZHHZ	YFFY	DXXD	sonnig	träumen	vertrauen	küssen	gütig	genießen	sterben	töten	versagen	krank	gierig	gemein	53pct	acq_USpleas_CSunple2_noRW	acq23456_noRW	3	62	0	0	300	300	485	50	0	1	1	blank2r.bmp	0	1	+	0	1	blank2r.bmp	252	1	ZHHZ	306	1	küssen	559	0	0	0	0	0	0	0	0	0	0	0	0	0	0	0	0	0	0	0	0	0	0	0	0	0	0	0	0	0	0	0	0	0	0	0	0	0	0	0
070319	11:01:15	11:08:25	429886	5.0.10.0	5_exp_noRW	6	Rpleas_acq	CS_A	JQQJ	CPPC	LWWL	ZHHZ	YFFY	DXXD	sonnig	träumen	vertrauen	küssen	gütig	genießen	sterben	töten	versagen	krank	gierig	gemein	53pct	acq_USunple_CSunple1_noRW	acq23456_noRW	3	63	0	0	300	300	415	46	0	1	1	blank2r.bmp	0	1	+	0	1	blank2r.bmp	252	1	LWWL	306	3	versagen	559	0	0	0	0	0	0	0	0	0	0	0	0	0	0	0	0	0	0	0	0	0	0	0	0	0	0	0	0	0	0	0	0	0	0	0	0	0	0	0
070319	11:01:15	11:08:27	431605	5.0.10.0	5_exp_noRW	6	Rpleas_acq	CS_A	JQQJ	CPPC	LWWL	ZHHZ	YFFY	DXXD	sonnig	träumen	vertrauen	küssen	gütig	genießen	sterben	töten	versagen	krank	gierig	gemein	53pct	acq_USpleas_CSpleas1_noRW	acq23456_noRW	3	64	0	0	300	300	532	50	0	1	1	blank2r.bmp	0	1	+	0	1	blank2r.bmp	252	1	JQQJ	306	3	vertrauen	559	0	0	0	0	0	0	0	0	0	0	0	0	0	0	0	0	0	0	0	0	0	0	0	0	0	0	0	0	0	0	0	0	0	0	0	0	0	0	0
070319	11:01:15	11:08:28	433125	5.0.10.0	5_exp_noRW	6	Rpleas_acq	CS_A	JQQJ	CPPC	LWWL	ZHHZ	YFFY	DXXD	sonnig	träumen	vertrauen	küssen	gütig	genießen	sterben	töten	versagen	krank	gierig	gemein	47pct	acq_USpleas_CSpleas1_noRW	acq23456_noRW	3	65	0	0	300	300	341	50	0	1	1	blank2r.bmp	0	1	+	0	1	blank2r.bmp	252	1	JQQJ	306	2	träumen	559	0	0	0	0	0	0	0	0	0	0	0	0	0	0	0	0	0	0	0	0	0	0	0	0	0	0	0	0	0	0	0	0	0	0	0	0	0	0	0
070319	11:01:15	11:08:30	434697	5.0.10.0	5_exp_noRW	6	Rpleas_acq	CS_A	JQQJ	CPPC	LWWL	ZHHZ	YFFY	DXXD	sonnig	träumen	vertrauen	küssen	gütig	genießen	sterben	töten	versagen	krank	gierig	gemein	47pct	acq_USpleas_CSpleas1_noRW	acq23456_noRW	3	66	0	0	300	300	389	50	0	1	1	blank2r.bmp	0	1	+	0	1	blank2r.bmp	252	1	JQQJ	306	1	sonnig	559	0	0	0	0	0	0	0	0	0	0	0	0	0	0	0	0	0	0	0	0	0	0	0	0	0	0	0	0	0	0	0	0	0	0	0	0	0	0	0
070319	11:01:15	11:08:32	436377	5.0.10.0	5_exp_noRW	6	Rpleas_acq	CS_A	JQQJ	CPPC	LWWL	ZHHZ	YFFY	DXXD	sonnig	träumen	vertrauen	küssen	gütig	genießen	sterben	töten	versagen	krank	gierig	gemein	47pct	acq_USpleas_CSunple1_noRW	acq23456_noRW	3	67	0	0	300	300	513	50	0	1	1	blank2r.bmp	0	1	+	0	1	blank2r.bmp	252	1	LWWL	306	3	vertrauen	559	0	0	0	0	0	0	0	0	0	0	0	0	0	0	0	0	0	0	0	0	0	0	0	0	0	0	0	0	0	0	0	0	0	0	0	0	0	0	0
070319	11:01:15	11:08:33	437896	5.0.10.0	5_exp_noRW	6	Rpleas_acq	CS_A	JQQJ	CPPC	LWWL	ZHHZ	YFFY	DXXD	sonnig	träumen	vertrauen	küssen	gütig	genießen	sterben	töten	versagen	krank	gierig	gemein	53pct	acq_USunple_CSunple1_noRW	acq23456_noRW	3	68	0	0	300	300	338	46	0	1	1	blank2r.bmp	0	1	+	0	1	blank2r.bmp	252	1	LWWL	306	1	sterben	559	0	0	0	0	0	0	0	0	0	0	0	0	0	0	0	0	0	0	0	0	0	0	0	0	0	0	0	0	0	0	0	0	0	0	0	0	0	0	0
070319	11:01:15	11:08:35	439482	5.0.10.0	5_exp_noRW	6	Rpleas_acq	CS_A	JQQJ	CPPC	LWWL	ZHHZ	YFFY	DXXD	sonnig	träumen	vertrauen	küssen	gütig	genießen	sterben	töten	versagen	krank	gierig	gemein	53pct	acq_USunple_CSpleas2_noRW	acq23456_noRW	3	69	0	0	300	300	412	46	0	1	1	blank2r.bmp	0	1	+	0	1	blank2r.bmp	252	1	CPPC	306	3	gemein	559	0	0	0	0	0	0	0	0	0	0	0	0	0	0	0	0	0	0	0	0	0	0	0	0	0	0	0	0	0	0	0	0	0	0	0	0	0	0	0
070319	11:01:15	11:08:36	441055	5.0.10.0	5_exp_noRW	6	Rpleas_acq	CS_A	JQQJ	CPPC	LWWL	ZHHZ	YFFY	DXXD	sonnig	träumen	vertrauen	küssen	gütig	genießen	sterben	töten	versagen	krank	gierig	gemein	53pct	acq_USunple_CSunple1_noRW	acq23456_noRW	3	70	0	0	300	300	386	46	0	1	1	blank2r.bmp	0	1	+	0	1	blank2r.bmp	252	1	LWWL	306	2	töten	559	0	0	0	0	0	0	0	0	0	0	0	0	0	0	0	0	0	0	0	0	0	0	0	0	0	0	0	0	0	0	0	0	0	0	0	0	0	0	0
070319	11:01:15	11:08:38	442841	5.0.10.0	5_exp_noRW	6	Rpleas_acq	CS_A	JQQJ	CPPC	LWWL	ZHHZ	YFFY	DXXD	sonnig	träumen	vertrauen	küssen	gütig	genießen	sterben	töten	versagen	krank	gierig	gemein	47pct	acq_USunple_CSunple1_noRW	acq23456_noRW	3	71	0	0	300	300	405	50	0	0	1	blank2r.bmp	0	1	+	0	1	blank2r.bmp	252	1	LWWL	306	3	versagen	559	1	FEHLER	999	0	0	0	0	0	0	0	0	0	0	0	0	0	0	0	0	0	0	0	0	0	0	0	0	0	0	0	0	0	0	0	0	0	0	0	0
070319	11:01:15	11:08:40	444280	5.0.10.0	5_exp_noRW	6	Rpleas_acq	CS_A	JQQJ	CPPC	LWWL	ZHHZ	YFFY	DXXD	sonnig	träumen	vertrauen	küssen	gütig	genießen	sterben	töten	versagen	krank	gierig	gemein	53pct	acq_USpleas_CSpleas2_noRW	acq23456_noRW	3	72	0	0	300	300	475	50	0	1	1	blank2r.bmp	0	1	+	0	1	blank2r.bmp	252	1	CPPC	306	3	genießen	559	0	0	0	0	0	0	0	0	0	0	0	0	0	0	0	0	0	0	0	0	0	0	0	0	0	0	0	0	0	0	0	0	0	0	0	0	0	0	0
070319	11:01:15	11:08:41	445813	5.0.10.0	5_exp_noRW	6	Rpleas_acq	CS_A	JQQJ	CPPC	LWWL	ZHHZ	YFFY	DXXD	sonnig	träumen	vertrauen	küssen	gütig	genießen	sterben	töten	versagen	krank	gierig	gemein	47pct	acq_USpleas_CSpleas2_noRW	acq23456_noRW	3	73	0	0	300	300	356	50	0	1	1	blank2r.bmp	0	1	+	0	1	blank2r.bmp	252	1	CPPC	306	1	küssen	559	0	0	0	0	0	0	0	0	0	0	0	0	0	0	0	0	0	0	0	0	0	0	0	0	0	0	0	0	0	0	0	0	0	0	0	0	0	0	0
070319	11:01:15	11:08:43	447505	5.0.10.0	5_exp_noRW	6	Rpleas_acq	CS_A	JQQJ	CPPC	LWWL	ZHHZ	YFFY	DXXD	sonnig	träumen	vertrauen	küssen	gütig	genießen	sterben	töten	versagen	krank	gierig	gemein	53pct	acq_USunple_CSunple2_noRW	acq23456_noRW	3	74	0	0	300	300	509	46	0	1	1	blank2r.bmp	0	1	+	0	1	blank2r.bmp	252	1	ZHHZ	306	3	gemein	559	0	0	0	0	0	0	0	0	0	0	0	0	0	0	0	0	0	0	0	0	0	0	0	0	0	0	0	0	0	0	0	0	0	0	0	0	0	0	0
070319	11:01:15	11:08:44	449038	5.0.10.0	5_exp_noRW	6	Rpleas_acq	CS_A	JQQJ	CPPC	LWWL	ZHHZ	YFFY	DXXD	sonnig	träumen	vertrauen	küssen	gütig	genießen	sterben	töten	versagen	krank	gierig	gemein	53pct	acq_USpleas_CSpleas2_noRW	acq23456_noRW	3	75	0	0	300	300	361	50	0	1	1	blank2r.bmp	0	1	+	0	1	blank2r.bmp	252	1	CPPC	306	2	gütig	559	0	0	0	0	0	0	0	0	0	0	0	0	0	0	0	0	0	0	0	0	0	0	0	0	0	0	0	0	0	0	0	0	0	0	0	0	0	0	0
070319	11:01:15	11:08:46	450731	5.0.10.0	5_exp_noRW	6	Rpleas_acq	CS_A	JQQJ	CPPC	LWWL	ZHHZ	YFFY	DXXD	sonnig	träumen	vertrauen	küssen	gütig	genießen	sterben	töten	versagen	krank	gierig	gemein	47pct	acq_USunple_CSunple2_noRW	acq23456_noRW	3	76	0	0	300	300	523	46	0	1	1	blank2r.bmp	0	1	+	0	1	blank2r.bmp	252	1	ZHHZ	306	3	gemein	559	0	0	0	0	0	0	0	0	0	0	0	0	0	0	0	0	0	0	0	0	0	0	0	0	0	0	0	0	0	0	0	0	0	0	0	0	0	0	0
070319	11:01:15	11:08:48	452423	5.0.10.0	5_exp_noRW	6	Rpleas_acq	CS_A	JQQJ	CPPC	LWWL	ZHHZ	YFFY	DXXD	sonnig	träumen	vertrauen	küssen	gütig	genießen	sterben	töten	versagen	krank	gierig	gemein	53pct	acq_USunple_CSunple2_noRW	acq23456_noRW	3	77	0	0	300	300	506	46	0	1	1	blank2r.bmp	0	1	+	0	1	blank2r.bmp	252	1	ZHHZ	306	1	krank	559	0	0	0	0	0	0	0	0	0	0	0	0	0	0	0	0	0	0	0	0	0	0	0	0	0	0	0	0	0	0	0	0	0	0	0	0	0	0	0
070319	11:01:15	11:08:49	454223	5.0.10.0	5_exp_noRW	6	Rpleas_acq	CS_A	JQQJ	CPPC	LWWL	ZHHZ	YFFY	DXXD	sonnig	träumen	vertrauen	küssen	gütig	genießen	sterben	töten	versagen	krank	gierig	gemein	47pct	acq_USunple_CSunple2_noRW	acq23456_noRW	3	78	0	0	300	300	637	46	0	1	1	blank2r.bmp	0	1	+	0	1	blank2r.bmp	252	1	ZHHZ	306	2	gierig	559	0	0	0	0	0	0	0	0	0	0	0	0	0	0	0	0	0	0	0	0	0	0	0	0	0	0	0	0	0	0	0	0	0	0	0	0	0	0	0
070319	11:01:15	11:08:51	455769	5.0.10.0	5_exp_noRW	6	Rpleas_acq	CS_A	JQQJ	CPPC	LWWL	ZHHZ	YFFY	DXXD	sonnig	träumen	vertrauen	küssen	gütig	genießen	sterben	töten	versagen	krank	gierig	gemein	47pct	acq_USpleas_CSpleas1_noRW	acq23456_noRW	3	79	0	0	300	300	363	50	0	1	1	blank2r.bmp	0	1	+	0	1	blank2r.bmp	252	1	JQQJ	306	3	vertrauen	559	0	0	0	0	0	0	0	0	0	0	0	0	0	0	0	0	0	0	0	0	0	0	0	0	0	0	0	0	0	0	0	0	0	0	0	0	0	0	0
070319	11:01:15	11:08:53	457355	5.0.10.0	5_exp_noRW	6	Rpleas_acq	CS_A	JQQJ	CPPC	LWWL	ZHHZ	YFFY	DXXD	sonnig	träumen	vertrauen	küssen	gütig	genießen	sterben	töten	versagen	krank	gierig	gemein	53pct	acq_USunple_CSpleas1_noRW	acq23456_noRW	3	80	0	0	300	300	402	46	0	1	1	blank2r.bmp	0	1	+	0	1	blank2r.bmp	252	1	JQQJ	306	1	sterben	559	0	0	0	0	0	0	0	0	0	0	0	0	0	0	0	0	0	0	0	0	0	0	0	0	0	0	0	0	0	0	0	0	0	0	0	0	0	0	0
070319	11:01:15	11:09:00	464991	5.0.10.0	5_exp_noRW	6	Rpleas_acq	CS_A	JQQJ	CPPC	LWWL	ZHHZ	YFFY	DXXD	sonnig	träumen	vertrauen	küssen	gütig	genießen	sterben	töten	versagen	krank	gierig	gemein	53pct	acq_USpleas_CSunple1_noRW	acq23456_noRW	4	1	0	0	300	300	394	50	0	1	1	blank2r.bmp	0	1	+	0	1	blank2r.bmp	252	1	LWWL	306	3	vertrauen	559	0	0	0	0	0	0	0	0	0	0	0	0	0	0	0	0	0	0	0	0	0	0	0	0	0	0	0	0	0	0	0	0	0	0	0	0	0	0	0
070319	11:01:15	11:09:02	466844	5.0.10.0	5_exp_noRW	6	Rpleas_acq	CS_A	JQQJ	CPPC	LWWL	ZHHZ	YFFY	DXXD	sonnig	träumen	vertrauen	küssen	gütig	genießen	sterben	töten	versagen	krank	gierig	gemein	47pct	acq_USunple_CSunple1_noRW	acq23456_noRW	4	2	0	0	300	300	465	50	0	0	1	blank2r.bmp	0	1	+	0	1	blank2r.bmp	252	1	LWWL	306	3	versagen	559	1	FEHLER	1066	0	0	0	0	0	0	0	0	0	0	0	0	0	0	0	0	0	0	0	0	0	0	0	0	0	0	0	0	0	0	0	0	0	0	0	0
