date	time	script.currenttime	script.elapsedtime	build	script.currentexpt	subject	expressions.LRpleas_acq	expressions.conditionCS_A	expressions.CSpleas_1	expressions.CSpleas_2	expressions.CSunple_1	expressions.CSunple_2	expressions.distractor_1	expressions.distractor_2	expressions.US_pleas1	expressions.US_pleas2	expressions.US_pleas3	expressions.US_pleas4	expressions.US_pleas5	expressions.US_pleas6	expressions.US_unple1	expressions.US_unple2	expressions.US_unple3	expressions.US_unple4	expressions.US_unple5	expressions.US_unple6	counter.positions_noRW	trialcode	blockcode	blocknum	trialnum	windowcenter	inwindow	pretrialpause	posttrialpause	latency	response	expressions.correctedscore	correct	stimulusnumber1	stimulusitem1	stimulusonset1	stimulusnumber2	stimulusitem2	stimulusonset2	stimulusnumber3	stimulusitem3	stimulusonset3	stimulusnumber4	stimulusitem4	stimulusonset4	stimulusnumber5	stimulusitem5	stimulusonset5	stimulusnumber6	stimulusitem6	stimulusonset6	stimulusnumber7	stimulusitem7	stimulusonset7	stimulusnumber8	stimulusitem8	stimulusonset8	stimulusnumber9	stimulusitem9	stimulusonset9	stimulusnumber10	stimulusitem10	stimulusonset10	stimulusnumber11	stimulusitem11	stimulusonset11	stimulusnumber12	stimulusitem12	stimulusonset12	stimulusnumber13	stimulusitem13	stimulusonset13	stimulusnumber14	stimulusitem14	stimulusonset14	stimulusnumber15	stimulusitem15	stimulusonset15	stimulusnumber16	stimulusitem16	stimulusonset16	stimulusnumber17	stimulusitem17	stimulusonset17	stimulusnumber18	stimulusitem18	stimulusonset18
071719	11:56:04	11:57:15	70250	5.0.10.0	5_exp_noRW	62	Rpleas_acq	CS_A	ZHHZ	CPPC	YFFY	JQQJ	LWWL	DXXD	küssen	genießen	träumen	vertrauen	gütig	sonnig	krank	gemein	töten	versagen	gierig	sterben	47pct	acq_USpleas_CSpleas2_noRW	acq1_noRW	1	1	0	0	300	300	1323	50	0	1	1	blank2r.bmp	0	1	+	0	1	blank2r.bmp	252	1	CPPC	306	2	gütig	559	0	0	0	0	0	0	0	0	0	0	0	0	0	0	0	0	0	0	0	0	0	0	0	0	0	0	0	0	0	0	0	0	0	0	0	0	0	0	0
071719	11:56:04	11:57:17	72062	5.0.10.0	5_exp_noRW	62	Rpleas_acq	CS_A	ZHHZ	CPPC	YFFY	JQQJ	LWWL	DXXD	küssen	genießen	träumen	vertrauen	gütig	sonnig	krank	gemein	töten	versagen	gierig	sterben	47pct	acq_USunple_CSunple2_noRW	acq1_noRW	1	2	0	0	300	300	649	46	0	1	1	blank2r.bmp	0	1	+	0	1	blank2r.bmp	252	1	JQQJ	306	2	gierig	559	0	0	0	0	0	0	0	0	0	0	0	0	0	0	0	0	0	0	0	0	0	0	0	0	0	0	0	0	0	0	0	0	0	0	0	0	0	0	0
071719	11:56:04	11:57:18	73822	5.0.10.0	5_exp_noRW	62	Rpleas_acq	CS_A	ZHHZ	CPPC	YFFY	JQQJ	LWWL	DXXD	küssen	genießen	träumen	vertrauen	gütig	sonnig	krank	gemein	töten	versagen	gierig	sterben	53pct	acq_USpleas_CSpleas2_noRW	acq1_noRW	1	3	0	0	300	300	576	50	0	1	1	blank2r.bmp	0	1	+	0	1	blank2r.bmp	252	1	CPPC	306	1	vertrauen	559	0	0	0	0	0	0	0	0	0	0	0	0	0	0	0	0	0	0	0	0	0	0	0	0	0	0	0	0	0	0	0	0	0	0	0	0	0	0	0
071719	11:56:04	11:57:20	75568	5.0.10.0	5_exp_noRW	62	Rpleas_acq	CS_A	ZHHZ	CPPC	YFFY	JQQJ	LWWL	DXXD	küssen	genießen	träumen	vertrauen	gütig	sonnig	krank	gemein	töten	versagen	gierig	sterben	53pct	acq_USpleas_CSpleas1_noRW	acq1_noRW	1	4	0	0	300	300	578	50	0	1	1	blank2r.bmp	0	1	+	0	1	blank2r.bmp	252	1	ZHHZ	306	1	küssen	559	0	0	0	0	0	0	0	0	0	0	0	0	0	0	0	0	0	0	0	0	0	0	0	0	0	0	0	0	0	0	0	0	0	0	0	0	0	0	0
071719	11:56:04	11:57:22	77154	5.0.10.0	5_exp_noRW	62	Rpleas_acq	CS_A	ZHHZ	CPPC	YFFY	JQQJ	LWWL	DXXD	küssen	genießen	träumen	vertrauen	gütig	sonnig	krank	gemein	töten	versagen	gierig	sterben	47pct	acq_USpleas_CSpleas1_noRW	acq1_noRW	1	5	0	0	300	300	424	50	0	1	1	blank2r.bmp	0	1	+	0	1	blank2r.bmp	252	1	ZHHZ	306	2	genießen	559	0	0	0	0	0	0	0	0	0	0	0	0	0	0	0	0	0	0	0	0	0	0	0	0	0	0	0	0	0	0	0	0	0	0	0	0	0	0	0
071719	11:56:04	11:57:23	78900	5.0.10.0	5_exp_noRW	62	Rpleas_acq	CS_A	ZHHZ	CPPC	YFFY	JQQJ	LWWL	DXXD	küssen	genießen	träumen	vertrauen	gütig	sonnig	krank	gemein	töten	versagen	gierig	sterben	47pct	acq_USpleas_CSunple2_noRW	acq1_noRW	1	6	0	0	300	300	563	50	0	1	1	blank2r.bmp	0	1	+	0	1	blank2r.bmp	252	1	JQQJ	306	2	gütig	559	0	0	0	0	0	0	0	0	0	0	0	0	0	0	0	0	0	0	0	0	0	0	0	0	0	0	0	0	0	0	0	0	0	0	0	0	0	0	0
071719	11:56:04	11:57:25	80512	5.0.10.0	5_exp_noRW	62	Rpleas_acq	CS_A	ZHHZ	CPPC	YFFY	JQQJ	LWWL	DXXD	küssen	genießen	träumen	vertrauen	gütig	sonnig	krank	gemein	töten	versagen	gierig	sterben	53pct	acq_USpleas_CSpleas2_noRW	acq1_noRW	1	7	0	0	300	300	435	50	0	1	1	blank2r.bmp	0	1	+	0	1	blank2r.bmp	252	1	CPPC	306	3	sonnig	559	0	0	0	0	0	0	0	0	0	0	0	0	0	0	0	0	0	0	0	0	0	0	0	0	0	0	0	0	0	0	0	0	0	0	0	0	0	0	0
071719	11:56:04	11:57:27	82191	5.0.10.0	5_exp_noRW	62	Rpleas_acq	CS_A	ZHHZ	CPPC	YFFY	JQQJ	LWWL	DXXD	küssen	genießen	träumen	vertrauen	gütig	sonnig	krank	gemein	töten	versagen	gierig	sterben	47pct	acq_USunple_CSunple1_noRW	acq1_noRW	1	8	0	0	300	300	517	46	0	1	1	blank2r.bmp	0	1	+	0	1	blank2r.bmp	252	1	YFFY	306	1	krank	559	0	0	0	0	0	0	0	0	0	0	0	0	0	0	0	0	0	0	0	0	0	0	0	0	0	0	0	0	0	0	0	0	0	0	0	0	0	0	0
071719	11:56:04	11:57:28	83804	5.0.10.0	5_exp_noRW	62	Rpleas_acq	CS_A	ZHHZ	CPPC	YFFY	JQQJ	LWWL	DXXD	küssen	genießen	träumen	vertrauen	gütig	sonnig	krank	gemein	töten	versagen	gierig	sterben	47pct	acq_USunple_CSunple1_noRW	acq1_noRW	1	9	0	0	300	300	427	46	0	1	1	blank2r.bmp	0	1	+	0	1	blank2r.bmp	252	1	YFFY	306	3	töten	559	0	0	0	0	0	0	0	0	0	0	0	0	0	0	0	0	0	0	0	0	0	0	0	0	0	0	0	0	0	0	0	0	0	0	0	0	0	0	0
071719	11:56:04	11:57:30	85417	5.0.10.0	5_exp_noRW	62	Rpleas_acq	CS_A	ZHHZ	CPPC	YFFY	JQQJ	LWWL	DXXD	küssen	genießen	träumen	vertrauen	gütig	sonnig	krank	gemein	töten	versagen	gierig	sterben	53pct	acq_USpleas_CSpleas2_noRW	acq1_noRW	1	10	0	0	300	300	447	50	0	1	1	blank2r.bmp	0	1	+	0	1	blank2r.bmp	252	1	CPPC	306	1	vertrauen	559	0	0	0	0	0	0	0	0	0	0	0	0	0	0	0	0	0	0	0	0	0	0	0	0	0	0	0	0	0	0	0	0	0	0	0	0	0	0	0
071719	11:56:04	11:57:32	87136	5.0.10.0	5_exp_noRW	62	Rpleas_acq	CS_A	ZHHZ	CPPC	YFFY	JQQJ	LWWL	DXXD	küssen	genießen	träumen	vertrauen	gütig	sonnig	krank	gemein	töten	versagen	gierig	sterben	53pct	acq_USunple_CSunple2_noRW	acq1_noRW	1	11	0	0	300	300	531	46	0	1	1	blank2r.bmp	0	1	+	0	1	blank2r.bmp	252	1	JQQJ	306	1	versagen	559	0	0	0	0	0	0	0	0	0	0	0	0	0	0	0	0	0	0	0	0	0	0	0	0	0	0	0	0	0	0	0	0	0	0	0	0	0	0	0
071719	11:56:04	11:57:33	88722	5.0.10.0	5_exp_noRW	62	Rpleas_acq	CS_A	ZHHZ	CPPC	YFFY	JQQJ	LWWL	DXXD	küssen	genießen	träumen	vertrauen	gütig	sonnig	krank	gemein	töten	versagen	gierig	sterben	53pct	acq_USunple_CSpleas2_noRW	acq1_noRW	1	12	0	0	300	300	416	46	0	1	1	blank2r.bmp	0	1	+	0	1	blank2r.bmp	252	1	CPPC	306	1	versagen	559	0	0	0	0	0	0	0	0	0	0	0	0	0	0	0	0	0	0	0	0	0	0	0	0	0	0	0	0	0	0	0	0	0	0	0	0	0	0	0
071719	11:56:04	11:57:35	90375	5.0.10.0	5_exp_noRW	62	Rpleas_acq	CS_A	ZHHZ	CPPC	YFFY	JQQJ	LWWL	DXXD	küssen	genießen	träumen	vertrauen	gütig	sonnig	krank	gemein	töten	versagen	gierig	sterben	47pct	acq_USpleas_CSpleas1_noRW	acq1_noRW	1	13	0	0	300	300	490	50	0	1	1	blank2r.bmp	0	1	+	0	1	blank2r.bmp	252	1	ZHHZ	306	3	träumen	559	0	0	0	0	0	0	0	0	0	0	0	0	0	0	0	0	0	0	0	0	0	0	0	0	0	0	0	0	0	0	0	0	0	0	0	0	0	0	0
071719	11:56:04	11:57:37	91974	5.0.10.0	5_exp_noRW	62	Rpleas_acq	CS_A	ZHHZ	CPPC	YFFY	JQQJ	LWWL	DXXD	küssen	genießen	träumen	vertrauen	gütig	sonnig	krank	gemein	töten	versagen	gierig	sterben	47pct	acq_USunple_CSunple1_noRW	acq1_noRW	1	14	0	0	300	300	417	46	0	1	1	blank2r.bmp	0	1	+	0	1	blank2r.bmp	252	1	YFFY	306	2	gemein	559	0	0	0	0	0	0	0	0	0	0	0	0	0	0	0	0	0	0	0	0	0	0	0	0	0	0	0	0	0	0	0	0	0	0	0	0	0	0	0
071719	11:56:04	11:57:38	93667	5.0.10.0	5_exp_noRW	62	Rpleas_acq	CS_A	ZHHZ	CPPC	YFFY	JQQJ	LWWL	DXXD	küssen	genießen	träumen	vertrauen	gütig	sonnig	krank	gemein	töten	versagen	gierig	sterben	47pct	acq_USunple_CSunple2_noRW	acq1_noRW	1	15	0	0	300	300	514	46	0	1	1	blank2r.bmp	0	1	+	0	1	blank2r.bmp	252	1	JQQJ	306	3	sterben	559	0	0	0	0	0	0	0	0	0	0	0	0	0	0	0	0	0	0	0	0	0	0	0	0	0	0	0	0	0	0	0	0	0	0	0	0	0	0	0
071719	11:56:04	11:57:40	95226	5.0.10.0	5_exp_noRW	62	Rpleas_acq	CS_A	ZHHZ	CPPC	YFFY	JQQJ	LWWL	DXXD	küssen	genießen	träumen	vertrauen	gütig	sonnig	krank	gemein	töten	versagen	gierig	sterben	53pct	acq_USunple_CSpleas1_noRW	acq1_noRW	1	16	0	0	300	300	372	46	0	1	1	blank2r.bmp	0	1	+	0	1	blank2r.bmp	252	1	ZHHZ	306	3	töten	559	0	0	0	0	0	0	0	0	0	0	0	0	0	0	0	0	0	0	0	0	0	0	0	0	0	0	0	0	0	0	0	0	0	0	0	0	0	0	0
071719	11:56:04	11:57:41	96879	5.0.10.0	5_exp_noRW	62	Rpleas_acq	CS_A	ZHHZ	CPPC	YFFY	JQQJ	LWWL	DXXD	küssen	genießen	träumen	vertrauen	gütig	sonnig	krank	gemein	töten	versagen	gierig	sterben	47pct	acq_USpleas_CSunple1_noRW	acq1_noRW	1	17	0	0	300	300	483	50	0	1	1	blank2r.bmp	0	1	+	0	1	blank2r.bmp	252	1	YFFY	306	1	küssen	559	0	0	0	0	0	0	0	0	0	0	0	0	0	0	0	0	0	0	0	0	0	0	0	0	0	0	0	0	0	0	0	0	0	0	0	0	0	0	0
071719	11:56:04	11:57:43	98505	5.0.10.0	5_exp_noRW	62	Rpleas_acq	CS_A	ZHHZ	CPPC	YFFY	JQQJ	LWWL	DXXD	küssen	genießen	träumen	vertrauen	gütig	sonnig	krank	gemein	töten	versagen	gierig	sterben	47pct	acq_USunple_CSunple2_noRW	acq1_noRW	1	18	0	0	300	300	452	46	0	1	1	blank2r.bmp	0	1	+	0	1	blank2r.bmp	252	1	JQQJ	306	2	gierig	559	0	0	0	0	0	0	0	0	0	0	0	0	0	0	0	0	0	0	0	0	0	0	0	0	0	0	0	0	0	0	0	0	0	0	0	0	0	0	0
071719	11:56:04	11:57:45	100197	5.0.10.0	5_exp_noRW	62	Rpleas_acq	CS_A	ZHHZ	CPPC	YFFY	JQQJ	LWWL	DXXD	küssen	genießen	träumen	vertrauen	gütig	sonnig	krank	gemein	töten	versagen	gierig	sterben	53pct	acq_USunple_CSunple1_noRW	acq1_noRW	1	19	0	0	300	300	527	46	0	1	1	blank2r.bmp	0	1	+	0	1	blank2r.bmp	252	1	YFFY	306	2	gemein	559	0	0	0	0	0	0	0	0	0	0	0	0	0	0	0	0	0	0	0	0	0	0	0	0	0	0	0	0	0	0	0	0	0	0	0	0	0	0	0
071719	11:56:04	11:57:46	101837	5.0.10.0	5_exp_noRW	62	Rpleas_acq	CS_A	ZHHZ	CPPC	YFFY	JQQJ	LWWL	DXXD	küssen	genießen	träumen	vertrauen	gütig	sonnig	krank	gemein	töten	versagen	gierig	sterben	53pct	acq_USpleas_CSpleas1_noRW	acq1_noRW	1	20	0	0	300	300	463	50	0	1	1	blank2r.bmp	0	1	+	0	1	blank2r.bmp	252	1	ZHHZ	306	1	küssen	559	0	0	0	0	0	0	0	0	0	0	0	0	0	0	0	0	0	0	0	0	0	0	0	0	0	0	0	0	0	0	0	0	0	0	0	0	0	0	0
071719	11:56:04	11:57:48	103556	5.0.10.0	5_exp_noRW	62	Rpleas_acq	CS_A	ZHHZ	CPPC	YFFY	JQQJ	LWWL	DXXD	küssen	genießen	träumen	vertrauen	gütig	sonnig	krank	gemein	töten	versagen	gierig	sterben	47pct	acq_USpleas_CSpleas2_noRW	acq1_noRW	1	21	0	0	300	300	550	50	0	1	1	blank2r.bmp	0	1	+	0	1	blank2r.bmp	252	1	CPPC	306	3	sonnig	559	0	0	0	0	0	0	0	0	0	0	0	0	0	0	0	0	0	0	0	0	0	0	0	0	0	0	0	0	0	0	0	0	0	0	0	0	0	0	0
071719	11:56:04	11:57:50	105129	5.0.10.0	5_exp_noRW	62	Rpleas_acq	CS_A	ZHHZ	CPPC	YFFY	JQQJ	LWWL	DXXD	küssen	genießen	träumen	vertrauen	gütig	sonnig	krank	gemein	töten	versagen	gierig	sterben	53pct	acq_USpleas_CSunple1_noRW	acq1_noRW	1	22	0	0	300	300	403	50	0	1	1	blank2r.bmp	0	1	+	0	1	blank2r.bmp	252	1	YFFY	306	2	genießen	559	0	0	0	0	0	0	0	0	0	0	0	0	0	0	0	0	0	0	0	0	0	0	0	0	0	0	0	0	0	0	0	0	0	0	0	0	0	0	0
071719	11:56:04	11:57:52	106981	5.0.10.0	5_exp_noRW	62	Rpleas_acq	CS_A	ZHHZ	CPPC	YFFY	JQQJ	LWWL	DXXD	küssen	genießen	träumen	vertrauen	gütig	sonnig	krank	gemein	töten	versagen	gierig	sterben	53pct	acq_USpleas_CSpleas2_noRW	acq1_noRW	1	23	0	0	300	300	682	50	0	1	1	blank2r.bmp	0	1	+	0	1	blank2r.bmp	252	1	CPPC	306	2	gütig	559	0	0	0	0	0	0	0	0	0	0	0	0	0	0	0	0	0	0	0	0	0	0	0	0	0	0	0	0	0	0	0	0	0	0	0	0	0	0	0
071719	11:56:04	11:57:53	108580	5.0.10.0	5_exp_noRW	62	Rpleas_acq	CS_A	ZHHZ	CPPC	YFFY	JQQJ	LWWL	DXXD	küssen	genießen	träumen	vertrauen	gütig	sonnig	krank	gemein	töten	versagen	gierig	sterben	47pct	acq_USpleas_CSpleas1_noRW	acq1_noRW	1	24	0	0	300	300	424	50	0	1	1	blank2r.bmp	0	1	+	0	1	blank2r.bmp	252	1	ZHHZ	306	2	genießen	559	0	0	0	0	0	0	0	0	0	0	0	0	0	0	0	0	0	0	0	0	0	0	0	0	0	0	0	0	0	0	0	0	0	0	0	0	0	0	0
071719	11:56:04	11:57:55	110273	5.0.10.0	5_exp_noRW	62	Rpleas_acq	CS_A	ZHHZ	CPPC	YFFY	JQQJ	LWWL	DXXD	küssen	genießen	träumen	vertrauen	gütig	sonnig	krank	gemein	töten	versagen	gierig	sterben	47pct	acq_USunple_CSunple1_noRW	acq1_noRW	1	25	0	0	300	300	508	46	0	1	1	blank2r.bmp	0	1	+	0	1	blank2r.bmp	252	1	YFFY	306	3	töten	559	0	0	0	0	0	0	0	0	0	0	0	0	0	0	0	0	0	0	0	0	0	0	0	0	0	0	0	0	0	0	0	0	0	0	0	0	0	0	0
071719	11:56:04	11:57:56	111926	5.0.10.0	5_exp_noRW	62	Rpleas_acq	CS_A	ZHHZ	CPPC	YFFY	JQQJ	LWWL	DXXD	küssen	genießen	träumen	vertrauen	gütig	sonnig	krank	gemein	töten	versagen	gierig	sterben	53pct	acq_USpleas_CSunple2_noRW	acq1_noRW	1	26	0	0	300	300	472	50	0	1	1	blank2r.bmp	0	1	+	0	1	blank2r.bmp	252	1	JQQJ	306	1	vertrauen	559	0	0	0	0	0	0	0	0	0	0	0	0	0	0	0	0	0	0	0	0	0	0	0	0	0	0	0	0	0	0	0	0	0	0	0	0	0	0	0
071719	11:56:04	11:57:58	113525	5.0.10.0	5_exp_noRW	62	Rpleas_acq	CS_A	ZHHZ	CPPC	YFFY	JQQJ	LWWL	DXXD	küssen	genießen	träumen	vertrauen	gütig	sonnig	krank	gemein	töten	versagen	gierig	sterben	53pct	acq_USunple_CSpleas1_noRW	acq1_noRW	1	27	0	0	300	300	412	46	0	1	1	blank2r.bmp	0	1	+	0	1	blank2r.bmp	252	1	ZHHZ	306	1	krank	559	0	0	0	0	0	0	0	0	0	0	0	0	0	0	0	0	0	0	0	0	0	0	0	0	0	0	0	0	0	0	0	0	0	0	0	0	0	0	0
071719	11:56:04	11:58:00	115138	5.0.10.0	5_exp_noRW	62	Rpleas_acq	CS_A	ZHHZ	CPPC	YFFY	JQQJ	LWWL	DXXD	küssen	genießen	träumen	vertrauen	gütig	sonnig	krank	gemein	töten	versagen	gierig	sterben	47pct	acq_USunple_CSunple2_noRW	acq1_noRW	1	28	0	0	300	300	444	46	0	1	1	blank2r.bmp	0	1	+	0	1	blank2r.bmp	252	1	JQQJ	306	3	sterben	559	0	0	0	0	0	0	0	0	0	0	0	0	0	0	0	0	0	0	0	0	0	0	0	0	0	0	0	0	0	0	0	0	0	0	0	0	0	0	0
071719	11:56:04	11:58:01	116830	5.0.10.0	5_exp_noRW	62	Rpleas_acq	CS_A	ZHHZ	CPPC	YFFY	JQQJ	LWWL	DXXD	küssen	genießen	träumen	vertrauen	gütig	sonnig	krank	gemein	töten	versagen	gierig	sterben	47pct	acq_USpleas_CSpleas2_noRW	acq1_noRW	1	29	0	0	300	300	508	50	0	1	1	blank2r.bmp	0	1	+	0	1	blank2r.bmp	252	1	CPPC	306	2	gütig	559	0	0	0	0	0	0	0	0	0	0	0	0	0	0	0	0	0	0	0	0	0	0	0	0	0	0	0	0	0	0	0	0	0	0	0	0	0	0	0
071719	11:56:04	11:58:04	119043	5.0.10.0	5_exp_noRW	62	Rpleas_acq	CS_A	ZHHZ	CPPC	YFFY	JQQJ	LWWL	DXXD	küssen	genießen	träumen	vertrauen	gütig	sonnig	krank	gemein	töten	versagen	gierig	sterben	47pct	acq_USunple_CSunple2_noRW	acq1_noRW	1	30	0	0	300	300	1050	46	0	1	1	blank2r.bmp	0	1	+	0	1	blank2r.bmp	252	1	JQQJ	306	1	versagen	559	0	0	0	0	0	0	0	0	0	0	0	0	0	0	0	0	0	0	0	0	0	0	0	0	0	0	0	0	0	0	0	0	0	0	0	0	0	0	0
071719	11:56:04	11:58:05	120682	5.0.10.0	5_exp_noRW	62	Rpleas_acq	CS_A	ZHHZ	CPPC	YFFY	JQQJ	LWWL	DXXD	küssen	genießen	träumen	vertrauen	gütig	sonnig	krank	gemein	töten	versagen	gierig	sterben	47pct	acq_USpleas_CSpleas1_noRW	acq1_noRW	1	31	0	0	300	300	456	50	0	1	1	blank2r.bmp	0	1	+	0	1	blank2r.bmp	252	1	ZHHZ	306	3	träumen	559	0	0	0	0	0	0	0	0	0	0	0	0	0	0	0	0	0	0	0	0	0	0	0	0	0	0	0	0	0	0	0	0	0	0	0	0	0	0	0
071719	11:56:04	11:58:07	122295	5.0.10.0	5_exp_noRW	62	Rpleas_acq	CS_A	ZHHZ	CPPC	YFFY	JQQJ	LWWL	DXXD	küssen	genießen	träumen	vertrauen	gütig	sonnig	krank	gemein	töten	versagen	gierig	sterben	47pct	acq_USpleas_CSpleas2_noRW	acq1_noRW	1	32	0	0	300	300	451	50	0	1	1	blank2r.bmp	0	1	+	0	1	blank2r.bmp	252	1	CPPC	306	1	vertrauen	559	0	0	0	0	0	0	0	0	0	0	0	0	0	0	0	0	0	0	0	0	0	0	0	0	0	0	0	0	0	0	0	0	0	0	0	0	0	0	0
071719	11:56:04	11:58:09	124187	5.0.10.0	5_exp_noRW	62	Rpleas_acq	CS_A	ZHHZ	CPPC	YFFY	JQQJ	LWWL	DXXD	küssen	genießen	träumen	vertrauen	gütig	sonnig	krank	gemein	töten	versagen	gierig	sterben	47pct	acq_USunple_CSpleas2_noRW	acq1_noRW	1	33	0	0	300	300	498	50	0	0	1	blank2r.bmp	0	1	+	0	1	blank2r.bmp	252	1	CPPC	306	2	gierig	559	1	FEHLER	1092	0	0	0	0	0	0	0	0	0	0	0	0	0	0	0	0	0	0	0	0	0	0	0	0	0	0	0	0	0	0	0	0	0	0	0	0
071719	11:56:04	11:58:10	125560	5.0.10.0	5_exp_noRW	62	Rpleas_acq	CS_A	ZHHZ	CPPC	YFFY	JQQJ	LWWL	DXXD	küssen	genießen	träumen	vertrauen	gütig	sonnig	krank	gemein	töten	versagen	gierig	sterben	53pct	acq_USunple_CSunple2_noRW	acq1_noRW	1	34	0	0	300	300	421	46	0	1	1	blank2r.bmp	0	1	+	0	1	blank2r.bmp	252	1	JQQJ	306	2	gierig	559	0	0	0	0	0	0	0	0	0	0	0	0	0	0	0	0	0	0	0	0	0	0	0	0	0	0	0	0	0	0	0	0	0	0	0	0	0	0	0
071719	11:56:04	11:58:12	127266	5.0.10.0	5_exp_noRW	62	Rpleas_acq	CS_A	ZHHZ	CPPC	YFFY	JQQJ	LWWL	DXXD	küssen	genießen	träumen	vertrauen	gütig	sonnig	krank	gemein	töten	versagen	gierig	sterben	53pct	acq_USpleas_CSpleas1_noRW	acq1_noRW	1	35	0	0	300	300	531	50	0	1	1	blank2r.bmp	0	1	+	0	1	blank2r.bmp	252	1	ZHHZ	306	3	träumen	559	0	0	0	0	0	0	0	0	0	0	0	0	0	0	0	0	0	0	0	0	0	0	0	0	0	0	0	0	0	0	0	0	0	0	0	0	0	0	0
071719	11:56:04	11:58:14	128972	5.0.10.0	5_exp_noRW	62	Rpleas_acq	CS_A	ZHHZ	CPPC	YFFY	JQQJ	LWWL	DXXD	küssen	genießen	träumen	vertrauen	gütig	sonnig	krank	gemein	töten	versagen	gierig	sterben	47pct	acq_USunple_CSunple1_noRW	acq1_noRW	1	36	0	0	300	300	512	46	0	1	1	blank2r.bmp	0	1	+	0	1	blank2r.bmp	252	1	YFFY	306	1	krank	559	0	0	0	0	0	0	0	0	0	0	0	0	0	0	0	0	0	0	0	0	0	0	0	0	0	0	0	0	0	0	0	0	0	0	0	0	0	0	0
071719	11:56:04	11:58:15	130531	5.0.10.0	5_exp_noRW	62	Rpleas_acq	CS_A	ZHHZ	CPPC	YFFY	JQQJ	LWWL	DXXD	küssen	genießen	träumen	vertrauen	gütig	sonnig	krank	gemein	töten	versagen	gierig	sterben	53pct	acq_USunple_CSunple1_noRW	acq1_noRW	1	37	0	0	300	300	381	46	0	1	1	blank2r.bmp	0	1	+	0	1	blank2r.bmp	252	1	YFFY	306	3	töten	559	0	0	0	0	0	0	0	0	0	0	0	0	0	0	0	0	0	0	0	0	0	0	0	0	0	0	0	0	0	0	0	0	0	0	0	0	0	0	0
071719	11:56:04	11:58:17	132024	5.0.10.0	5_exp_noRW	62	Rpleas_acq	CS_A	ZHHZ	CPPC	YFFY	JQQJ	LWWL	DXXD	küssen	genießen	träumen	vertrauen	gütig	sonnig	krank	gemein	töten	versagen	gierig	sterben	53pct	acq_USunple_CSunple1_noRW	acq1_noRW	1	38	0	0	300	300	315	46	0	1	1	blank2r.bmp	0	1	+	0	1	blank2r.bmp	252	1	YFFY	306	1	krank	559	0	0	0	0	0	0	0	0	0	0	0	0	0	0	0	0	0	0	0	0	0	0	0	0	0	0	0	0	0	0	0	0	0	0	0	0	0	0	0
071719	11:56:04	11:58:18	133543	5.0.10.0	5_exp_noRW	62	Rpleas_acq	CS_A	ZHHZ	CPPC	YFFY	JQQJ	LWWL	DXXD	küssen	genießen	träumen	vertrauen	gütig	sonnig	krank	gemein	töten	versagen	gierig	sterben	47pct	acq_USunple_CSunple2_noRW	acq1_noRW	1	39	0	0	300	300	352	46	0	1	1	blank2r.bmp	0	1	+	0	1	blank2r.bmp	252	1	JQQJ	306	1	versagen	559	0	0	0	0	0	0	0	0	0	0	0	0	0	0	0	0	0	0	0	0	0	0	0	0	0	0	0	0	0	0	0	0	0	0	0	0	0	0	0
071719	11:56:04	11:58:20	135076	5.0.10.0	5_exp_noRW	62	Rpleas_acq	CS_A	ZHHZ	CPPC	YFFY	JQQJ	LWWL	DXXD	küssen	genießen	träumen	vertrauen	gütig	sonnig	krank	gemein	töten	versagen	gierig	sterben	53pct	acq_USpleas_CSpleas1_noRW	acq1_noRW	1	40	0	0	300	300	347	50	0	1	1	blank2r.bmp	0	1	+	0	1	blank2r.bmp	252	1	ZHHZ	306	1	küssen	559	0	0	0	0	0	0	0	0	0	0	0	0	0	0	0	0	0	0	0	0	0	0	0	0	0	0	0	0	0	0	0	0	0	0	0	0	0	0	0
071719	11:56:04	11:58:21	136689	5.0.10.0	5_exp_noRW	62	Rpleas_acq	CS_A	ZHHZ	CPPC	YFFY	JQQJ	LWWL	DXXD	küssen	genießen	träumen	vertrauen	gütig	sonnig	krank	gemein	töten	versagen	gierig	sterben	53pct	acq_USpleas_CSpleas2_noRW	acq1_noRW	1	41	0	0	300	300	437	50	0	1	1	blank2r.bmp	0	1	+	0	1	blank2r.bmp	252	1	CPPC	306	3	sonnig	559	0	0	0	0	0	0	0	0	0	0	0	0	0	0	0	0	0	0	0	0	0	0	0	0	0	0	0	0	0	0	0	0	0	0	0	0	0	0	0
071719	11:56:04	11:58:23	138435	5.0.10.0	5_exp_noRW	62	Rpleas_acq	CS_A	ZHHZ	CPPC	YFFY	JQQJ	LWWL	DXXD	küssen	genießen	träumen	vertrauen	gütig	sonnig	krank	gemein	töten	versagen	gierig	sterben	47pct	acq_USpleas_CSunple2_noRW	acq1_noRW	1	42	0	0	300	300	549	50	0	1	1	blank2r.bmp	0	1	+	0	1	blank2r.bmp	252	1	JQQJ	306	3	sonnig	559	0	0	0	0	0	0	0	0	0	0	0	0	0	0	0	0	0	0	0	0	0	0	0	0	0	0	0	0	0	0	0	0	0	0	0	0	0	0	0
071719	11:56:04	11:58:25	140034	5.0.10.0	5_exp_noRW	62	Rpleas_acq	CS_A	ZHHZ	CPPC	YFFY	JQQJ	LWWL	DXXD	küssen	genießen	träumen	vertrauen	gütig	sonnig	krank	gemein	töten	versagen	gierig	sterben	53pct	acq_USpleas_CSpleas2_noRW	acq1_noRW	1	43	0	0	300	300	429	50	0	1	1	blank2r.bmp	0	1	+	0	1	blank2r.bmp	252	1	CPPC	306	3	sonnig	559	0	0	0	0	0	0	0	0	0	0	0	0	0	0	0	0	0	0	0	0	0	0	0	0	0	0	0	0	0	0	0	0	0	0	0	0	0	0	0
071719	11:56:04	11:58:26	141807	5.0.10.0	5_exp_noRW	62	Rpleas_acq	CS_A	ZHHZ	CPPC	YFFY	JQQJ	LWWL	DXXD	küssen	genießen	träumen	vertrauen	gütig	sonnig	krank	gemein	töten	versagen	gierig	sterben	47pct	acq_USunple_CSunple1_noRW	acq1_noRW	1	44	0	0	300	300	601	46	0	1	1	blank2r.bmp	0	1	+	0	1	blank2r.bmp	252	1	YFFY	306	2	gemein	559	0	0	0	0	0	0	0	0	0	0	0	0	0	0	0	0	0	0	0	0	0	0	0	0	0	0	0	0	0	0	0	0	0	0	0	0	0	0	0
071719	11:56:04	11:58:28	143326	5.0.10.0	5_exp_noRW	62	Rpleas_acq	CS_A	ZHHZ	CPPC	YFFY	JQQJ	LWWL	DXXD	küssen	genießen	träumen	vertrauen	gütig	sonnig	krank	gemein	töten	versagen	gierig	sterben	53pct	acq_USunple_CSunple1_noRW	acq1_noRW	1	45	0	0	300	300	357	46	0	1	1	blank2r.bmp	0	1	+	0	1	blank2r.bmp	252	1	YFFY	306	3	töten	559	0	0	0	0	0	0	0	0	0	0	0	0	0	0	0	0	0	0	0	0	0	0	0	0	0	0	0	0	0	0	0	0	0	0	0	0	0	0	0
071719	11:56:04	11:58:30	145218	5.0.10.0	5_exp_noRW	62	Rpleas_acq	CS_A	ZHHZ	CPPC	YFFY	JQQJ	LWWL	DXXD	küssen	genießen	träumen	vertrauen	gütig	sonnig	krank	gemein	töten	versagen	gierig	sterben	47pct	acq_USpleas_CSpleas1_noRW	acq1_noRW	1	46	0	0	300	300	708	50	0	1	1	blank2r.bmp	0	1	+	0	1	blank2r.bmp	252	1	ZHHZ	306	2	genießen	559	0	0	0	0	0	0	0	0	0	0	0	0	0	0	0	0	0	0	0	0	0	0	0	0	0	0	0	0	0	0	0	0	0	0	0	0	0	0	0
071719	11:56:04	11:58:31	146831	5.0.10.0	5_exp_noRW	62	Rpleas_acq	CS_A	ZHHZ	CPPC	YFFY	JQQJ	LWWL	DXXD	küssen	genießen	träumen	vertrauen	gütig	sonnig	krank	gemein	töten	versagen	gierig	sterben	47pct	acq_USpleas_CSunple1_noRW	acq1_noRW	1	47	0	0	300	300	432	50	0	1	1	blank2r.bmp	0	1	+	0	1	blank2r.bmp	252	1	YFFY	306	3	träumen	559	0	0	0	0	0	0	0	0	0	0	0	0	0	0	0	0	0	0	0	0	0	0	0	0	0	0	0	0	0	0	0	0	0	0	0	0	0	0	0
071719	11:56:04	11:58:33	148404	5.0.10.0	5_exp_noRW	62	Rpleas_acq	CS_A	ZHHZ	CPPC	YFFY	JQQJ	LWWL	DXXD	küssen	genießen	träumen	vertrauen	gütig	sonnig	krank	gemein	töten	versagen	gierig	sterben	53pct	acq_USpleas_CSpleas1_noRW	acq1_noRW	1	48	0	0	300	300	401	50	0	1	1	blank2r.bmp	0	1	+	0	1	blank2r.bmp	252	1	ZHHZ	306	1	küssen	559	0	0	0	0	0	0	0	0	0	0	0	0	0	0	0	0	0	0	0	0	0	0	0	0	0	0	0	0	0	0	0	0	0	0	0	0	0	0	0
071719	11:56:04	11:58:35	149936	5.0.10.0	5_exp_noRW	62	Rpleas_acq	CS_A	ZHHZ	CPPC	YFFY	JQQJ	LWWL	DXXD	küssen	genießen	träumen	vertrauen	gütig	sonnig	krank	gemein	töten	versagen	gierig	sterben	53pct	acq_USunple_CSunple1_noRW	acq1_noRW	1	49	0	0	300	300	367	46	0	1	1	blank2r.bmp	0	1	+	0	1	blank2r.bmp	252	1	YFFY	306	1	krank	559	0	0	0	0	0	0	0	0	0	0	0	0	0	0	0	0	0	0	0	0	0	0	0	0	0	0	0	0	0	0	0	0	0	0	0	0	0	0	0
071719	11:56:04	11:58:36	151536	5.0.10.0	5_exp_noRW	62	Rpleas_acq	CS_A	ZHHZ	CPPC	YFFY	JQQJ	LWWL	DXXD	küssen	genießen	träumen	vertrauen	gütig	sonnig	krank	gemein	töten	versagen	gierig	sterben	47pct	acq_USunple_CSpleas1_noRW	acq1_noRW	1	50	0	0	300	300	416	46	0	1	1	blank2r.bmp	0	1	+	0	1	blank2r.bmp	252	1	ZHHZ	306	2	gemein	559	0	0	0	0	0	0	0	0	0	0	0	0	0	0	0	0	0	0	0	0	0	0	0	0	0	0	0	0	0	0	0	0	0	0	0	0	0	0	0
071719	11:56:04	11:58:38	153108	5.0.10.0	5_exp_noRW	62	Rpleas_acq	CS_A	ZHHZ	CPPC	YFFY	JQQJ	LWWL	DXXD	küssen	genießen	träumen	vertrauen	gütig	sonnig	krank	gemein	töten	versagen	gierig	sterben	47pct	acq_USunple_CSunple1_noRW	acq1_noRW	1	51	0	0	300	300	386	46	0	1	1	blank2r.bmp	0	1	+	0	1	blank2r.bmp	252	1	YFFY	306	2	gemein	559	0	0	0	0	0	0	0	0	0	0	0	0	0	0	0	0	0	0	0	0	0	0	0	0	0	0	0	0	0	0	0	0	0	0	0	0	0	0	0
071719	11:56:04	11:58:39	154628	5.0.10.0	5_exp_noRW	62	Rpleas_acq	CS_A	ZHHZ	CPPC	YFFY	JQQJ	LWWL	DXXD	küssen	genießen	träumen	vertrauen	gütig	sonnig	krank	gemein	töten	versagen	gierig	sterben	53pct	acq_USunple_CSunple2_noRW	acq1_noRW	1	52	0	0	300	300	357	46	0	1	1	blank2r.bmp	0	1	+	0	1	blank2r.bmp	252	1	JQQJ	306	3	sterben	559	0	0	0	0	0	0	0	0	0	0	0	0	0	0	0	0	0	0	0	0	0	0	0	0	0	0	0	0	0	0	0	0	0	0	0	0	0	0	0
071719	11:56:04	11:58:41	156307	5.0.10.0	5_exp_noRW	62	Rpleas_acq	CS_A	ZHHZ	CPPC	YFFY	JQQJ	LWWL	DXXD	küssen	genießen	träumen	vertrauen	gütig	sonnig	krank	gemein	töten	versagen	gierig	sterben	47pct	acq_USpleas_CSpleas1_noRW	acq1_noRW	1	53	0	0	300	300	507	50	0	1	1	blank2r.bmp	0	1	+	0	1	blank2r.bmp	252	1	ZHHZ	306	2	genießen	559	0	0	0	0	0	0	0	0	0	0	0	0	0	0	0	0	0	0	0	0	0	0	0	0	0	0	0	0	0	0	0	0	0	0	0	0	0	0	0
071719	11:56:04	11:58:42	157893	5.0.10.0	5_exp_noRW	62	Rpleas_acq	CS_A	ZHHZ	CPPC	YFFY	JQQJ	LWWL	DXXD	küssen	genießen	träumen	vertrauen	gütig	sonnig	krank	gemein	töten	versagen	gierig	sterben	53pct	acq_USunple_CSpleas2_noRW	acq1_noRW	1	54	0	0	300	300	413	46	0	1	1	blank2r.bmp	0	1	+	0	1	blank2r.bmp	252	1	CPPC	306	3	sterben	559	0	0	0	0	0	0	0	0	0	0	0	0	0	0	0	0	0	0	0	0	0	0	0	0	0	0	0	0	0	0	0	0	0	0	0	0	0	0	0
071719	11:56:04	11:58:44	159546	5.0.10.0	5_exp_noRW	62	Rpleas_acq	CS_A	ZHHZ	CPPC	YFFY	JQQJ	LWWL	DXXD	küssen	genießen	träumen	vertrauen	gütig	sonnig	krank	gemein	töten	versagen	gierig	sterben	53pct	acq_USpleas_CSpleas2_noRW	acq1_noRW	1	55	0	0	300	300	485	50	0	1	1	blank2r.bmp	0	1	+	0	1	blank2r.bmp	252	1	CPPC	306	1	vertrauen	559	0	0	0	0	0	0	0	0	0	0	0	0	0	0	0	0	0	0	0	0	0	0	0	0	0	0	0	0	0	0	0	0	0	0	0	0	0	0	0
071719	11:56:04	11:58:46	161252	5.0.10.0	5_exp_noRW	62	Rpleas_acq	CS_A	ZHHZ	CPPC	YFFY	JQQJ	LWWL	DXXD	küssen	genießen	träumen	vertrauen	gütig	sonnig	krank	gemein	töten	versagen	gierig	sterben	47pct	acq_USpleas_CSpleas2_noRW	acq1_noRW	1	56	0	0	300	300	533	50	0	1	1	blank2r.bmp	0	1	+	0	1	blank2r.bmp	252	1	CPPC	306	2	gütig	559	0	0	0	0	0	0	0	0	0	0	0	0	0	0	0	0	0	0	0	0	0	0	0	0	0	0	0	0	0	0	0	0	0	0	0	0	0	0	0
071719	11:56:04	11:58:47	162784	5.0.10.0	5_exp_noRW	62	Rpleas_acq	CS_A	ZHHZ	CPPC	YFFY	JQQJ	LWWL	DXXD	küssen	genießen	träumen	vertrauen	gütig	sonnig	krank	gemein	töten	versagen	gierig	sterben	47pct	acq_USpleas_CSpleas1_noRW	acq1_noRW	1	57	0	0	300	300	361	50	0	1	1	blank2r.bmp	0	1	+	0	1	blank2r.bmp	252	1	ZHHZ	306	3	träumen	559	0	0	0	0	0	0	0	0	0	0	0	0	0	0	0	0	0	0	0	0	0	0	0	0	0	0	0	0	0	0	0	0	0	0	0	0	0	0	0
071719	11:56:04	11:58:49	164304	5.0.10.0	5_exp_noRW	62	Rpleas_acq	CS_A	ZHHZ	CPPC	YFFY	JQQJ	LWWL	DXXD	küssen	genießen	träumen	vertrauen	gütig	sonnig	krank	gemein	töten	versagen	gierig	sterben	53pct	acq_USunple_CSunple2_noRW	acq1_noRW	1	58	0	0	300	300	344	46	0	1	1	blank2r.bmp	0	1	+	0	1	blank2r.bmp	252	1	JQQJ	306	3	sterben	559	0	0	0	0	0	0	0	0	0	0	0	0	0	0	0	0	0	0	0	0	0	0	0	0	0	0	0	0	0	0	0	0	0	0	0	0	0	0	0
071719	11:56:04	11:58:50	165850	5.0.10.0	5_exp_noRW	62	Rpleas_acq	CS_A	ZHHZ	CPPC	YFFY	JQQJ	LWWL	DXXD	küssen	genießen	träumen	vertrauen	gütig	sonnig	krank	gemein	töten	versagen	gierig	sterben	53pct	acq_USunple_CSunple2_noRW	acq1_noRW	1	59	0	0	300	300	366	46	0	1	1	blank2r.bmp	0	1	+	0	1	blank2r.bmp	252	1	JQQJ	306	1	versagen	559	0	0	0	0	0	0	0	0	0	0	0	0	0	0	0	0	0	0	0	0	0	0	0	0	0	0	0	0	0	0	0	0	0	0	0	0	0	0	0
071719	11:56:04	11:58:52	167356	5.0.10.0	5_exp_noRW	62	Rpleas_acq	CS_A	ZHHZ	CPPC	YFFY	JQQJ	LWWL	DXXD	küssen	genießen	träumen	vertrauen	gütig	sonnig	krank	gemein	töten	versagen	gierig	sterben	47pct	acq_USunple_CSunple2_noRW	acq1_noRW	1	60	0	0	300	300	323	46	0	1	1	blank2r.bmp	0	1	+	0	1	blank2r.bmp	252	1	JQQJ	306	2	gierig	559	0	0	0	0	0	0	0	0	0	0	0	0	0	0	0	0	0	0	0	0	0	0	0	0	0	0	0	0	0	0	0	0	0	0	0	0	0	0	0
071719	11:56:04	11:58:54	169022	5.0.10.0	5_exp_noRW	62	Rpleas_acq	CS_A	ZHHZ	CPPC	YFFY	JQQJ	LWWL	DXXD	küssen	genießen	träumen	vertrauen	gütig	sonnig	krank	gemein	töten	versagen	gierig	sterben	47pct	acq_USpleas_CSpleas1_noRW	acq1_noRW	1	61	0	0	300	300	482	50	0	1	1	blank2r.bmp	0	1	+	0	1	blank2r.bmp	252	1	ZHHZ	306	2	genießen	559	0	0	0	0	0	0	0	0	0	0	0	0	0	0	0	0	0	0	0	0	0	0	0	0	0	0	0	0	0	0	0	0	0	0	0	0	0	0	0
071719	11:56:04	11:58:55	170635	5.0.10.0	5_exp_noRW	62	Rpleas_acq	CS_A	ZHHZ	CPPC	YFFY	JQQJ	LWWL	DXXD	küssen	genießen	träumen	vertrauen	gütig	sonnig	krank	gemein	töten	versagen	gierig	sterben	53pct	acq_USunple_CSunple2_noRW	acq1_noRW	1	62	0	0	300	300	433	46	0	1	1	blank2r.bmp	0	1	+	0	1	blank2r.bmp	252	1	JQQJ	306	1	versagen	559	0	0	0	0	0	0	0	0	0	0	0	0	0	0	0	0	0	0	0	0	0	0	0	0	0	0	0	0	0	0	0	0	0	0	0	0	0	0	0
071719	11:56:04	11:58:57	172167	5.0.10.0	5_exp_noRW	62	Rpleas_acq	CS_A	ZHHZ	CPPC	YFFY	JQQJ	LWWL	DXXD	küssen	genießen	träumen	vertrauen	gütig	sonnig	krank	gemein	töten	versagen	gierig	sterben	47pct	acq_USunple_CSunple1_noRW	acq1_noRW	1	63	0	0	300	300	367	46	0	1	1	blank2r.bmp	0	1	+	0	1	blank2r.bmp	252	1	YFFY	306	2	gemein	559	0	0	0	0	0	0	0	0	0	0	0	0	0	0	0	0	0	0	0	0	0	0	0	0	0	0	0	0	0	0	0	0	0	0	0	0	0	0	0
071719	11:56:04	11:58:58	173793	5.0.10.0	5_exp_noRW	62	Rpleas_acq	CS_A	ZHHZ	CPPC	YFFY	JQQJ	LWWL	DXXD	küssen	genießen	träumen	vertrauen	gütig	sonnig	krank	gemein	töten	versagen	gierig	sterben	53pct	acq_USunple_CSunple1_noRW	acq1_noRW	1	64	0	0	300	300	443	46	0	1	1	blank2r.bmp	0	1	+	0	1	blank2r.bmp	252	1	YFFY	306	3	töten	559	0	0	0	0	0	0	0	0	0	0	0	0	0	0	0	0	0	0	0	0	0	0	0	0	0	0	0	0	0	0	0	0	0	0	0	0	0	0	0
071719	11:56:04	11:59:00	175406	5.0.10.0	5_exp_noRW	62	Rpleas_acq	CS_A	ZHHZ	CPPC	YFFY	JQQJ	LWWL	DXXD	küssen	genießen	träumen	vertrauen	gütig	sonnig	krank	gemein	töten	versagen	gierig	sterben	47pct	acq_USunple_CSunple2_noRW	acq1_noRW	1	65	0	0	300	300	434	46	0	1	1	blank2r.bmp	0	1	+	0	1	blank2r.bmp	252	1	JQQJ	306	2	gierig	559	0	0	0	0	0	0	0	0	0	0	0	0	0	0	0	0	0	0	0	0	0	0	0	0	0	0	0	0	0	0	0	0	0	0	0	0	0	0	0
071719	11:56:04	11:59:02	177032	5.0.10.0	5_exp_noRW	62	Rpleas_acq	CS_A	ZHHZ	CPPC	YFFY	JQQJ	LWWL	DXXD	küssen	genießen	träumen	vertrauen	gütig	sonnig	krank	gemein	töten	versagen	gierig	sterben	53pct	acq_USpleas_CSpleas2_noRW	acq1_noRW	1	66	0	0	300	300	462	50	0	1	1	blank2r.bmp	0	1	+	0	1	blank2r.bmp	252	1	CPPC	306	2	gütig	559	0	0	0	0	0	0	0	0	0	0	0	0	0	0	0	0	0	0	0	0	0	0	0	0	0	0	0	0	0	0	0	0	0	0	0	0	0	0	0
071719	11:56:04	11:59:03	178658	5.0.10.0	5_exp_noRW	62	Rpleas_acq	CS_A	ZHHZ	CPPC	YFFY	JQQJ	LWWL	DXXD	küssen	genießen	träumen	vertrauen	gütig	sonnig	krank	gemein	töten	versagen	gierig	sterben	47pct	acq_USpleas_CSunple1_noRW	acq1_noRW	1	67	0	0	300	300	450	50	0	1	1	blank2r.bmp	0	1	+	0	1	blank2r.bmp	252	1	YFFY	306	2	genießen	559	0	0	0	0	0	0	0	0	0	0	0	0	0	0	0	0	0	0	0	0	0	0	0	0	0	0	0	0	0	0	0	0	0	0	0	0	0	0	0
071719	11:56:04	11:59:05	180257	5.0.10.0	5_exp_noRW	62	Rpleas_acq	CS_A	ZHHZ	CPPC	YFFY	JQQJ	LWWL	DXXD	küssen	genießen	träumen	vertrauen	gütig	sonnig	krank	gemein	töten	versagen	gierig	sterben	47pct	acq_USunple_CSpleas1_noRW	acq1_noRW	1	68	0	0	300	300	419	46	0	1	1	blank2r.bmp	0	1	+	0	1	blank2r.bmp	252	1	ZHHZ	306	3	töten	559	0	0	0	0	0	0	0	0	0	0	0	0	0	0	0	0	0	0	0	0	0	0	0	0	0	0	0	0	0	0	0	0	0	0	0	0	0	0	0
071719	11:56:04	11:59:06	181803	5.0.10.0	5_exp_noRW	62	Rpleas_acq	CS_A	ZHHZ	CPPC	YFFY	JQQJ	LWWL	DXXD	küssen	genießen	träumen	vertrauen	gütig	sonnig	krank	gemein	töten	versagen	gierig	sterben	47pct	acq_USunple_CSunple1_noRW	acq1_noRW	1	69	0	0	300	300	367	46	0	1	1	blank2r.bmp	0	1	+	0	1	blank2r.bmp	252	1	YFFY	306	1	krank	559	0	0	0	0	0	0	0	0	0	0	0	0	0	0	0	0	0	0	0	0	0	0	0	0	0	0	0	0	0	0	0	0	0	0	0	0	0	0	0
071719	11:56:04	11:59:08	183336	5.0.10.0	5_exp_noRW	62	Rpleas_acq	CS_A	ZHHZ	CPPC	YFFY	JQQJ	LWWL	DXXD	küssen	genießen	träumen	vertrauen	gütig	sonnig	krank	gemein	töten	versagen	gierig	sterben	47pct	acq_USunple_CSunple2_noRW	acq1_noRW	1	70	0	0	300	300	358	46	0	1	1	blank2r.bmp	0	1	+	0	1	blank2r.bmp	252	1	JQQJ	306	3	sterben	559	0	0	0	0	0	0	0	0	0	0	0	0	0	0	0	0	0	0	0	0	0	0	0	0	0	0	0	0	0	0	0	0	0	0	0	0	0	0	0
071719	11:56:04	11:59:09	184909	5.0.10.0	5_exp_noRW	62	Rpleas_acq	CS_A	ZHHZ	CPPC	YFFY	JQQJ	LWWL	DXXD	küssen	genießen	träumen	vertrauen	gütig	sonnig	krank	gemein	töten	versagen	gierig	sterben	53pct	acq_USunple_CSpleas2_noRW	acq1_noRW	1	71	0	0	300	300	401	46	0	1	1	blank2r.bmp	0	1	+	0	1	blank2r.bmp	252	1	CPPC	306	1	versagen	559	0	0	0	0	0	0	0	0	0	0	0	0	0	0	0	0	0	0	0	0	0	0	0	0	0	0	0	0	0	0	0	0	0	0	0	0	0	0	0
071719	11:56:04	11:59:11	186401	5.0.10.0	5_exp_noRW	62	Rpleas_acq	CS_A	ZHHZ	CPPC	YFFY	JQQJ	LWWL	DXXD	küssen	genießen	träumen	vertrauen	gütig	sonnig	krank	gemein	töten	versagen	gierig	sterben	53pct	acq_USunple_CSunple2_noRW	acq1_noRW	1	72	0	0	300	300	323	46	0	1	1	blank2r.bmp	0	1	+	0	1	blank2r.bmp	252	1	JQQJ	306	1	versagen	559	0	0	0	0	0	0	0	0	0	0	0	0	0	0	0	0	0	0	0	0	0	0	0	0	0	0	0	0	0	0	0	0	0	0	0	0	0	0	0
071719	11:56:04	11:59:12	187894	5.0.10.0	5_exp_noRW	62	Rpleas_acq	CS_A	ZHHZ	CPPC	YFFY	JQQJ	LWWL	DXXD	küssen	genießen	träumen	vertrauen	gütig	sonnig	krank	gemein	töten	versagen	gierig	sterben	53pct	acq_USpleas_CSpleas1_noRW	acq1_noRW	1	73	0	0	300	300	315	50	0	1	1	blank2r.bmp	0	1	+	0	1	blank2r.bmp	252	1	ZHHZ	306	1	küssen	559	0	0	0	0	0	0	0	0	0	0	0	0	0	0	0	0	0	0	0	0	0	0	0	0	0	0	0	0	0	0	0	0	0	0	0	0	0	0	0
071719	11:56:04	11:59:14	189520	5.0.10.0	5_exp_noRW	62	Rpleas_acq	CS_A	ZHHZ	CPPC	YFFY	JQQJ	LWWL	DXXD	küssen	genießen	träumen	vertrauen	gütig	sonnig	krank	gemein	töten	versagen	gierig	sterben	47pct	acq_USpleas_CSpleas2_noRW	acq1_noRW	1	74	0	0	300	300	447	50	0	1	1	blank2r.bmp	0	1	+	0	1	blank2r.bmp	252	1	CPPC	306	3	sonnig	559	0	0	0	0	0	0	0	0	0	0	0	0	0	0	0	0	0	0	0	0	0	0	0	0	0	0	0	0	0	0	0	0	0	0	0	0	0	0	0
071719	11:56:04	11:59:16	191146	5.0.10.0	5_exp_noRW	62	Rpleas_acq	CS_A	ZHHZ	CPPC	YFFY	JQQJ	LWWL	DXXD	küssen	genießen	träumen	vertrauen	gütig	sonnig	krank	gemein	töten	versagen	gierig	sterben	47pct	acq_USunple_CSunple1_noRW	acq1_noRW	1	75	0	0	300	300	449	46	0	1	1	blank2r.bmp	0	1	+	0	1	blank2r.bmp	252	1	YFFY	306	3	töten	559	0	0	0	0	0	0	0	0	0	0	0	0	0	0	0	0	0	0	0	0	0	0	0	0	0	0	0	0	0	0	0	0	0	0	0	0	0	0	0
071719	11:56:04	11:59:17	192705	5.0.10.0	5_exp_noRW	62	Rpleas_acq	CS_A	ZHHZ	CPPC	YFFY	JQQJ	LWWL	DXXD	küssen	genießen	träumen	vertrauen	gütig	sonnig	krank	gemein	töten	versagen	gierig	sterben	53pct	acq_USpleas_CSunple2_noRW	acq1_noRW	1	76	0	0	300	300	384	50	0	1	1	blank2r.bmp	0	1	+	0	1	blank2r.bmp	252	1	JQQJ	306	1	vertrauen	559	0	0	0	0	0	0	0	0	0	0	0	0	0	0	0	0	0	0	0	0	0	0	0	0	0	0	0	0	0	0	0	0	0	0	0	0	0	0	0
071719	11:56:04	11:59:19	194385	5.0.10.0	5_exp_noRW	62	Rpleas_acq	CS_A	ZHHZ	CPPC	YFFY	JQQJ	LWWL	DXXD	küssen	genießen	träumen	vertrauen	gütig	sonnig	krank	gemein	töten	versagen	gierig	sterben	53pct	acq_USpleas_CSpleas2_noRW	acq1_noRW	1	77	0	0	300	300	493	50	0	1	1	blank2r.bmp	0	1	+	0	1	blank2r.bmp	252	1	CPPC	306	1	vertrauen	559	0	0	0	0	0	0	0	0	0	0	0	0	0	0	0	0	0	0	0	0	0	0	0	0	0	0	0	0	0	0	0	0	0	0	0	0	0	0	0
071719	11:56:04	11:59:21	195997	5.0.10.0	5_exp_noRW	62	Rpleas_acq	CS_A	ZHHZ	CPPC	YFFY	JQQJ	LWWL	DXXD	küssen	genießen	träumen	vertrauen	gütig	sonnig	krank	gemein	töten	versagen	gierig	sterben	47pct	acq_USpleas_CSpleas1_noRW	acq1_noRW	1	78	0	0	300	300	442	50	0	1	1	blank2r.bmp	0	1	+	0	1	blank2r.bmp	252	1	ZHHZ	306	3	träumen	559	0	0	0	0	0	0	0	0	0	0	0	0	0	0	0	0	0	0	0	0	0	0	0	0	0	0	0	0	0	0	0	0	0	0	0	0	0	0	0
071719	11:56:04	11:59:22	197570	5.0.10.0	5_exp_noRW	62	Rpleas_acq	CS_A	ZHHZ	CPPC	YFFY	JQQJ	LWWL	DXXD	küssen	genießen	träumen	vertrauen	gütig	sonnig	krank	gemein	töten	versagen	gierig	sterben	53pct	acq_USpleas_CSpleas2_noRW	acq1_noRW	1	79	0	0	300	300	396	50	0	1	1	blank2r.bmp	0	1	+	0	1	blank2r.bmp	252	1	CPPC	306	1	vertrauen	559	0	0	0	0	0	0	0	0	0	0	0	0	0	0	0	0	0	0	0	0	0	0	0	0	0	0	0	0	0	0	0	0	0	0	0	0	0	0	0
071719	11:56:04	11:59:24	199169	5.0.10.0	5_exp_noRW	62	Rpleas_acq	CS_A	ZHHZ	CPPC	YFFY	JQQJ	LWWL	DXXD	küssen	genießen	träumen	vertrauen	gütig	sonnig	krank	gemein	töten	versagen	gierig	sterben	47pct	acq_USpleas_CSpleas1_noRW	acq1_noRW	1	80	0	0	300	300	424	50	0	1	1	blank2r.bmp	0	1	+	0	1	blank2r.bmp	252	1	ZHHZ	306	3	träumen	559	0	0	0	0	0	0	0	0	0	0	0	0	0	0	0	0	0	0	0	0	0	0	0	0	0	0	0	0	0	0	0	0	0	0	0	0	0	0	0
071719	11:56:04	11:59:40	215029	5.0.10.0	5_exp_noRW	62	Rpleas_acq	CS_A	ZHHZ	CPPC	YFFY	JQQJ	LWWL	DXXD	küssen	genießen	träumen	vertrauen	gütig	sonnig	krank	gemein	töten	versagen	gierig	sterben	47pct	acq_USpleas_CSpleas1_noRW	acq23456_noRW	2	1	0	0	300	300	419	50	0	1	1	blank2r.bmp	0	1	+	0	1	blank2r.bmp	252	1	ZHHZ	306	1	küssen	559	0	0	0	0	0	0	0	0	0	0	0	0	0	0	0	0	0	0	0	0	0	0	0	0	0	0	0	0	0	0	0	0	0	0	0	0	0	0	0
071719	11:56:04	11:59:41	216669	5.0.10.0	5_exp_noRW	62	Rpleas_acq	CS_A	ZHHZ	CPPC	YFFY	JQQJ	LWWL	DXXD	küssen	genießen	träumen	vertrauen	gütig	sonnig	krank	gemein	töten	versagen	gierig	sterben	53pct	acq_USpleas_CSpleas1_noRW	acq23456_noRW	2	2	0	0	300	300	458	50	0	1	1	blank2r.bmp	0	1	+	0	1	blank2r.bmp	252	1	ZHHZ	306	2	genießen	559	0	0	0	0	0	0	0	0	0	0	0	0	0	0	0	0	0	0	0	0	0	0	0	0	0	0	0	0	0	0	0	0	0	0	0	0	0	0	0
071719	11:56:04	11:59:43	218308	5.0.10.0	5_exp_noRW	62	Rpleas_acq	CS_A	ZHHZ	CPPC	YFFY	JQQJ	LWWL	DXXD	küssen	genießen	träumen	vertrauen	gütig	sonnig	krank	gemein	töten	versagen	gierig	sterben	53pct	acq_USpleas_CSpleas1_noRW	acq23456_noRW	2	3	0	0	300	300	465	50	0	1	1	blank2r.bmp	0	1	+	0	1	blank2r.bmp	252	1	ZHHZ	306	1	küssen	559	0	0	0	0	0	0	0	0	0	0	0	0	0	0	0	0	0	0	0	0	0	0	0	0	0	0	0	0	0	0	0	0	0	0	0	0	0	0	0
071719	11:56:04	11:59:45	220467	5.0.10.0	5_exp_noRW	62	Rpleas_acq	CS_A	ZHHZ	CPPC	YFFY	JQQJ	LWWL	DXXD	küssen	genießen	träumen	vertrauen	gütig	sonnig	krank	gemein	töten	versagen	gierig	sterben	47pct	acq_USpleas_CSpleas2_noRW	acq23456_noRW	2	4	0	0	300	300	994	50	0	1	1	blank2r.bmp	0	1	+	0	1	blank2r.bmp	252	1	CPPC	306	2	gütig	559	0	0	0	0	0	0	0	0	0	0	0	0	0	0	0	0	0	0	0	0	0	0	0	0	0	0	0	0	0	0	0	0	0	0	0	0	0	0	0
071719	11:56:04	11:59:47	222186	5.0.10.0	5_exp_noRW	62	Rpleas_acq	CS_A	ZHHZ	CPPC	YFFY	JQQJ	LWWL	DXXD	küssen	genießen	träumen	vertrauen	gütig	sonnig	krank	gemein	töten	versagen	gierig	sterben	53pct	acq_USunple_CSunple2_noRW	acq23456_noRW	2	5	0	0	300	300	533	46	0	1	1	blank2r.bmp	0	1	+	0	1	blank2r.bmp	252	1	JQQJ	306	2	gierig	559	0	0	0	0	0	0	0	0	0	0	0	0	0	0	0	0	0	0	0	0	0	0	0	0	0	0	0	0	0	0	0	0	0	0	0	0	0	0	0
071719	11:56:04	11:59:49	223972	5.0.10.0	5_exp_noRW	62	Rpleas_acq	CS_A	ZHHZ	CPPC	YFFY	JQQJ	LWWL	DXXD	küssen	genießen	träumen	vertrauen	gütig	sonnig	krank	gemein	töten	versagen	gierig	sterben	53pct	acq_USunple_CSunple1_noRW	acq23456_noRW	2	6	0	0	300	300	599	46	0	1	1	blank2r.bmp	0	1	+	0	1	blank2r.bmp	252	1	YFFY	306	2	gemein	559	0	0	0	0	0	0	0	0	0	0	0	0	0	0	0	0	0	0	0	0	0	0	0	0	0	0	0	0	0	0	0	0	0	0	0	0	0	0	0
071719	11:56:04	11:59:50	225572	5.0.10.0	5_exp_noRW	62	Rpleas_acq	CS_A	ZHHZ	CPPC	YFFY	JQQJ	LWWL	DXXD	küssen	genießen	träumen	vertrauen	gütig	sonnig	krank	gemein	töten	versagen	gierig	sterben	53pct	acq_USunple_CSunple2_noRW	acq23456_noRW	2	7	0	0	300	300	436	46	0	1	1	blank2r.bmp	0	1	+	0	1	blank2r.bmp	252	1	JQQJ	306	3	sterben	559	0	0	0	0	0	0	0	0	0	0	0	0	0	0	0	0	0	0	0	0	0	0	0	0	0	0	0	0	0	0	0	0	0	0	0	0	0	0	0
071719	11:56:04	11:59:52	227171	5.0.10.0	5_exp_noRW	62	Rpleas_acq	CS_A	ZHHZ	CPPC	YFFY	JQQJ	LWWL	DXXD	küssen	genießen	träumen	vertrauen	gütig	sonnig	krank	gemein	töten	versagen	gierig	sterben	47pct	acq_USpleas_CSpleas2_noRW	acq23456_noRW	2	8	0	0	300	300	412	50	0	1	1	blank2r.bmp	0	1	+	0	1	blank2r.bmp	252	1	CPPC	306	3	sonnig	559	0	0	0	0	0	0	0	0	0	0	0	0	0	0	0	0	0	0	0	0	0	0	0	0	0	0	0	0	0	0	0	0	0	0	0	0	0	0	0
071719	11:56:04	11:59:53	228690	5.0.10.0	5_exp_noRW	62	Rpleas_acq	CS_A	ZHHZ	CPPC	YFFY	JQQJ	LWWL	DXXD	küssen	genießen	träumen	vertrauen	gütig	sonnig	krank	gemein	töten	versagen	gierig	sterben	47pct	acq_USunple_CSunple1_noRW	acq23456_noRW	2	9	0	0	300	300	356	46	0	1	1	blank2r.bmp	0	1	+	0	1	blank2r.bmp	252	1	YFFY	306	1	krank	559	0	0	0	0	0	0	0	0	0	0	0	0	0	0	0	0	0	0	0	0	0	0	0	0	0	0	0	0	0	0	0	0	0	0	0	0	0	0	0
071719	11:56:04	11:59:55	230290	5.0.10.0	5_exp_noRW	62	Rpleas_acq	CS_A	ZHHZ	CPPC	YFFY	JQQJ	LWWL	DXXD	küssen	genießen	träumen	vertrauen	gütig	sonnig	krank	gemein	töten	versagen	gierig	sterben	53pct	acq_USpleas_CSpleas1_noRW	acq23456_noRW	2	10	0	0	300	300	421	50	0	1	1	blank2r.bmp	0	1	+	0	1	blank2r.bmp	252	1	ZHHZ	306	2	genießen	559	0	0	0	0	0	0	0	0	0	0	0	0	0	0	0	0	0	0	0	0	0	0	0	0	0	0	0	0	0	0	0	0	0	0	0	0	0	0	0
071719	11:56:04	11:59:56	231916	5.0.10.0	5_exp_noRW	62	Rpleas_acq	CS_A	ZHHZ	CPPC	YFFY	JQQJ	LWWL	DXXD	küssen	genießen	träumen	vertrauen	gütig	sonnig	krank	gemein	töten	versagen	gierig	sterben	53pct	acq_USpleas_CSpleas2_noRW	acq23456_noRW	2	11	0	0	300	300	461	50	0	1	1	blank2r.bmp	0	1	+	0	1	blank2r.bmp	252	1	CPPC	306	3	sonnig	559	0	0	0	0	0	0	0	0	0	0	0	0	0	0	0	0	0	0	0	0	0	0	0	0	0	0	0	0	0	0	0	0	0	0	0	0	0	0	0
071719	11:56:04	11:59:58	233555	5.0.10.0	5_exp_noRW	62	Rpleas_acq	CS_A	ZHHZ	CPPC	YFFY	JQQJ	LWWL	DXXD	küssen	genießen	träumen	vertrauen	gütig	sonnig	krank	gemein	töten	versagen	gierig	sterben	53pct	acq_USunple_CSunple1_noRW	acq23456_noRW	2	12	0	0	300	300	459	46	0	1	1	blank2r.bmp	0	1	+	0	1	blank2r.bmp	252	1	YFFY	306	3	töten	559	0	0	0	0	0	0	0	0	0	0	0	0	0	0	0	0	0	0	0	0	0	0	0	0	0	0	0	0	0	0	0	0	0	0	0	0	0	0	0
071719	11:56:04	12:00:00	235407	5.0.10.0	5_exp_noRW	62	Rpleas_acq	CS_A	ZHHZ	CPPC	YFFY	JQQJ	LWWL	DXXD	küssen	genießen	träumen	vertrauen	gütig	sonnig	krank	gemein	töten	versagen	gierig	sterben	53pct	acq_USunple_CSunple2_noRW	acq23456_noRW	2	13	0	0	300	300	668	46	0	1	1	blank2r.bmp	0	1	+	0	1	blank2r.bmp	252	1	JQQJ	306	3	sterben	559	0	0	0	0	0	0	0	0	0	0	0	0	0	0	0	0	0	0	0	0	0	0	0	0	0	0	0	0	0	0	0	0	0	0	0	0	0	0	0
071719	11:56:04	12:00:02	237220	5.0.10.0	5_exp_noRW	62	Rpleas_acq	CS_A	ZHHZ	CPPC	YFFY	JQQJ	LWWL	DXXD	küssen	genießen	träumen	vertrauen	gütig	sonnig	krank	gemein	töten	versagen	gierig	sterben	47pct	acq_USpleas_CSpleas2_noRW	acq23456_noRW	2	14	0	0	300	300	628	50	0	1	1	blank2r.bmp	0	1	+	0	1	blank2r.bmp	252	1	CPPC	306	1	vertrauen	559	0	0	0	0	0	0	0	0	0	0	0	0	0	0	0	0	0	0	0	0	0	0	0	0	0	0	0	0	0	0	0	0	0	0	0	0	0	0	0
071719	11:56:04	12:00:04	238953	5.0.10.0	5_exp_noRW	62	Rpleas_acq	CS_A	ZHHZ	CPPC	YFFY	JQQJ	LWWL	DXXD	küssen	genießen	träumen	vertrauen	gütig	sonnig	krank	gemein	töten	versagen	gierig	sterben	47pct	acq_USunple_CSpleas2_noRW	acq23456_noRW	2	15	0	0	300	300	560	46	0	1	1	blank2r.bmp	0	1	+	0	1	blank2r.bmp	252	1	CPPC	306	3	sterben	559	0	0	0	0	0	0	0	0	0	0	0	0	0	0	0	0	0	0	0	0	0	0	0	0	0	0	0	0	0	0	0	0	0	0	0	0	0	0	0
071719	11:56:04	12:00:06	241058	5.0.10.0	5_exp_noRW	62	Rpleas_acq	CS_A	ZHHZ	CPPC	YFFY	JQQJ	LWWL	DXXD	küssen	genießen	träumen	vertrauen	gütig	sonnig	krank	gemein	töten	versagen	gierig	sterben	53pct	acq_USunple_CSunple2_noRW	acq23456_noRW	2	16	0	0	300	300	932	46	0	1	1	blank2r.bmp	0	1	+	0	1	blank2r.bmp	252	1	JQQJ	306	1	versagen	559	0	0	0	0	0	0	0	0	0	0	0	0	0	0	0	0	0	0	0	0	0	0	0	0	0	0	0	0	0	0	0	0	0	0	0	0	0	0	0
071719	11:56:04	12:00:07	242604	5.0.10.0	5_exp_noRW	62	Rpleas_acq	CS_A	ZHHZ	CPPC	YFFY	JQQJ	LWWL	DXXD	küssen	genießen	träumen	vertrauen	gütig	sonnig	krank	gemein	töten	versagen	gierig	sterben	53pct	acq_USunple_CSunple1_noRW	acq23456_noRW	2	17	0	0	300	300	380	46	0	1	1	blank2r.bmp	0	1	+	0	1	blank2r.bmp	252	1	YFFY	306	1	krank	559	0	0	0	0	0	0	0	0	0	0	0	0	0	0	0	0	0	0	0	0	0	0	0	0	0	0	0	0	0	0	0	0	0	0	0	0	0	0	0
071719	11:56:04	12:00:09	244204	5.0.10.0	5_exp_noRW	62	Rpleas_acq	CS_A	ZHHZ	CPPC	YFFY	JQQJ	LWWL	DXXD	küssen	genießen	träumen	vertrauen	gütig	sonnig	krank	gemein	töten	versagen	gierig	sterben	53pct	acq_USpleas_CSunple1_noRW	acq23456_noRW	2	18	0	0	300	300	418	50	0	1	1	blank2r.bmp	0	1	+	0	1	blank2r.bmp	252	1	YFFY	306	1	küssen	559	0	0	0	0	0	0	0	0	0	0	0	0	0	0	0	0	0	0	0	0	0	0	0	0	0	0	0	0	0	0	0	0	0	0	0	0	0	0	0
071719	11:56:04	12:00:10	245830	5.0.10.0	5_exp_noRW	62	Rpleas_acq	CS_A	ZHHZ	CPPC	YFFY	JQQJ	LWWL	DXXD	küssen	genießen	träumen	vertrauen	gütig	sonnig	krank	gemein	töten	versagen	gierig	sterben	53pct	acq_USpleas_CSunple2_noRW	acq23456_noRW	2	19	0	0	300	300	452	50	0	1	1	blank2r.bmp	0	1	+	0	1	blank2r.bmp	252	1	JQQJ	306	3	sonnig	559	0	0	0	0	0	0	0	0	0	0	0	0	0	0	0	0	0	0	0	0	0	0	0	0	0	0	0	0	0	0	0	0	0	0	0	0	0	0	0
071719	11:56:04	12:00:12	247456	5.0.10.0	5_exp_noRW	62	Rpleas_acq	CS_A	ZHHZ	CPPC	YFFY	JQQJ	LWWL	DXXD	küssen	genießen	träumen	vertrauen	gütig	sonnig	krank	gemein	töten	versagen	gierig	sterben	53pct	acq_USunple_CSpleas1_noRW	acq23456_noRW	2	20	0	0	300	300	462	46	0	1	1	blank2r.bmp	0	1	+	0	1	blank2r.bmp	252	1	ZHHZ	306	2	gemein	559	0	0	0	0	0	0	0	0	0	0	0	0	0	0	0	0	0	0	0	0	0	0	0	0	0	0	0	0	0	0	0	0	0	0	0	0	0	0	0
071719	11:56:04	12:00:14	249162	5.0.10.0	5_exp_noRW	62	Rpleas_acq	CS_A	ZHHZ	CPPC	YFFY	JQQJ	LWWL	DXXD	küssen	genießen	träumen	vertrauen	gütig	sonnig	krank	gemein	töten	versagen	gierig	sterben	47pct	acq_USunple_CSunple2_noRW	acq23456_noRW	2	21	0	0	300	300	530	46	0	1	1	blank2r.bmp	0	1	+	0	1	blank2r.bmp	252	1	JQQJ	306	2	gierig	559	0	0	0	0	0	0	0	0	0	0	0	0	0	0	0	0	0	0	0	0	0	0	0	0	0	0	0	0	0	0	0	0	0	0	0	0	0	0	0
071719	11:56:04	12:00:15	250881	5.0.10.0	5_exp_noRW	62	Rpleas_acq	CS_A	ZHHZ	CPPC	YFFY	JQQJ	LWWL	DXXD	küssen	genießen	träumen	vertrauen	gütig	sonnig	krank	gemein	töten	versagen	gierig	sterben	53pct	acq_USpleas_CSpleas2_noRW	acq23456_noRW	2	22	0	0	300	300	331	46	0	0	1	blank2r.bmp	0	1	+	0	1	blank2r.bmp	252	1	CPPC	306	2	gütig	559	1	FEHLER	919	0	0	0	0	0	0	0	0	0	0	0	0	0	0	0	0	0	0	0	0	0	0	0	0	0	0	0	0	0	0	0	0	0	0	0	0
071719	11:56:04	12:00:17	252347	5.0.10.0	5_exp_noRW	62	Rpleas_acq	CS_A	ZHHZ	CPPC	YFFY	JQQJ	LWWL	DXXD	küssen	genießen	träumen	vertrauen	gütig	sonnig	krank	gemein	töten	versagen	gierig	sterben	47pct	acq_USunple_CSunple2_noRW	acq23456_noRW	2	23	0	0	300	300	501	46	0	1	1	blank2r.bmp	0	1	+	0	1	blank2r.bmp	252	1	JQQJ	306	1	versagen	559	0	0	0	0	0	0	0	0	0	0	0	0	0	0	0	0	0	0	0	0	0	0	0	0	0	0	0	0	0	0	0	0	0	0	0	0	0	0	0
071719	11:56:04	12:00:19	254066	5.0.10.0	5_exp_noRW	62	Rpleas_acq	CS_A	ZHHZ	CPPC	YFFY	JQQJ	LWWL	DXXD	küssen	genießen	träumen	vertrauen	gütig	sonnig	krank	gemein	töten	versagen	gierig	sterben	47pct	acq_USunple_CSpleas2_noRW	acq23456_noRW	2	24	0	0	300	300	556	46	0	1	1	blank2r.bmp	0	1	+	0	1	blank2r.bmp	252	1	CPPC	306	2	gierig	559	0	0	0	0	0	0	0	0	0	0	0	0	0	0	0	0	0	0	0	0	0	0	0	0	0	0	0	0	0	0	0	0	0	0	0	0	0	0	0
071719	11:56:04	12:00:20	255719	5.0.10.0	5_exp_noRW	62	Rpleas_acq	CS_A	ZHHZ	CPPC	YFFY	JQQJ	LWWL	DXXD	küssen	genießen	träumen	vertrauen	gütig	sonnig	krank	gemein	töten	versagen	gierig	sterben	47pct	acq_USunple_CSunple1_noRW	acq23456_noRW	2	25	0	0	300	300	477	46	0	1	1	blank2r.bmp	0	1	+	0	1	blank2r.bmp	252	1	YFFY	306	2	gemein	559	0	0	0	0	0	0	0	0	0	0	0	0	0	0	0	0	0	0	0	0	0	0	0	0	0	0	0	0	0	0	0	0	0	0	0	0	0	0	0
071719	11:56:04	12:00:22	257332	5.0.10.0	5_exp_noRW	62	Rpleas_acq	CS_A	ZHHZ	CPPC	YFFY	JQQJ	LWWL	DXXD	küssen	genießen	träumen	vertrauen	gütig	sonnig	krank	gemein	töten	versagen	gierig	sterben	53pct	acq_USpleas_CSpleas1_noRW	acq23456_noRW	2	26	0	0	300	300	429	50	0	1	1	blank2r.bmp	0	1	+	0	1	blank2r.bmp	252	1	ZHHZ	306	3	träumen	559	0	0	0	0	0	0	0	0	0	0	0	0	0	0	0	0	0	0	0	0	0	0	0	0	0	0	0	0	0	0	0	0	0	0	0	0	0	0	0
071719	11:56:04	12:00:24	259118	5.0.10.0	5_exp_noRW	62	Rpleas_acq	CS_A	ZHHZ	CPPC	YFFY	JQQJ	LWWL	DXXD	küssen	genießen	träumen	vertrauen	gütig	sonnig	krank	gemein	töten	versagen	gierig	sterben	47pct	acq_USunple_CSunple1_noRW	acq23456_noRW	2	27	0	0	300	300	608	46	0	1	1	blank2r.bmp	0	1	+	0	1	blank2r.bmp	252	1	YFFY	306	2	gemein	559	0	0	0	0	0	0	0	0	0	0	0	0	0	0	0	0	0	0	0	0	0	0	0	0	0	0	0	0	0	0	0	0	0	0	0	0	0	0	0
071719	11:56:04	12:00:25	260810	5.0.10.0	5_exp_noRW	62	Rpleas_acq	CS_A	ZHHZ	CPPC	YFFY	JQQJ	LWWL	DXXD	küssen	genießen	träumen	vertrauen	gütig	sonnig	krank	gemein	töten	versagen	gierig	sterben	53pct	acq_USpleas_CSunple2_noRW	acq23456_noRW	2	28	0	0	300	300	531	50	0	1	1	blank2r.bmp	0	1	+	0	1	blank2r.bmp	252	1	JQQJ	306	2	gütig	559	0	0	0	0	0	0	0	0	0	0	0	0	0	0	0	0	0	0	0	0	0	0	0	0	0	0	0	0	0	0	0	0	0	0	0	0	0	0	0
071719	11:56:04	12:00:27	262649	5.0.10.0	5_exp_noRW	62	Rpleas_acq	CS_A	ZHHZ	CPPC	YFFY	JQQJ	LWWL	DXXD	küssen	genießen	träumen	vertrauen	gütig	sonnig	krank	gemein	töten	versagen	gierig	sterben	53pct	acq_USpleas_CSunple1_noRW	acq23456_noRW	2	29	0	0	300	300	652	50	0	1	1	blank2r.bmp	0	1	+	0	1	blank2r.bmp	252	1	YFFY	306	3	träumen	559	0	0	0	0	0	0	0	0	0	0	0	0	0	0	0	0	0	0	0	0	0	0	0	0	0	0	0	0	0	0	0	0	0	0	0	0	0	0	0
071719	11:56:04	12:00:29	264329	5.0.10.0	5_exp_noRW	62	Rpleas_acq	CS_A	ZHHZ	CPPC	YFFY	JQQJ	LWWL	DXXD	küssen	genießen	träumen	vertrauen	gütig	sonnig	krank	gemein	töten	versagen	gierig	sterben	47pct	acq_USunple_CSunple2_noRW	acq23456_noRW	2	30	0	0	300	300	513	46	0	1	1	blank2r.bmp	0	1	+	0	1	blank2r.bmp	252	1	JQQJ	306	2	gierig	559	0	0	0	0	0	0	0	0	0	0	0	0	0	0	0	0	0	0	0	0	0	0	0	0	0	0	0	0	0	0	0	0	0	0	0	0	0	0	0
071719	11:56:04	12:00:31	265968	5.0.10.0	5_exp_noRW	62	Rpleas_acq	CS_A	ZHHZ	CPPC	YFFY	JQQJ	LWWL	DXXD	küssen	genießen	träumen	vertrauen	gütig	sonnig	krank	gemein	töten	versagen	gierig	sterben	53pct	acq_USpleas_CSpleas2_noRW	acq23456_noRW	2	31	0	0	300	300	476	50	0	1	1	blank2r.bmp	0	1	+	0	1	blank2r.bmp	252	1	CPPC	306	1	vertrauen	559	0	0	0	0	0	0	0	0	0	0	0	0	0	0	0	0	0	0	0	0	0	0	0	0	0	0	0	0	0	0	0	0	0	0	0	0	0	0	0
071719	11:56:04	12:00:32	267621	5.0.10.0	5_exp_noRW	62	Rpleas_acq	CS_A	ZHHZ	CPPC	YFFY	JQQJ	LWWL	DXXD	küssen	genießen	träumen	vertrauen	gütig	sonnig	krank	gemein	töten	versagen	gierig	sterben	47pct	acq_USpleas_CSpleas2_noRW	acq23456_noRW	2	32	0	0	300	300	468	50	0	1	1	blank2r.bmp	0	1	+	0	1	blank2r.bmp	252	1	CPPC	306	2	gütig	559	0	0	0	0	0	0	0	0	0	0	0	0	0	0	0	0	0	0	0	0	0	0	0	0	0	0	0	0	0	0	0	0	0	0	0	0	0	0	0
071719	11:56:04	12:00:34	269460	5.0.10.0	5_exp_noRW	62	Rpleas_acq	CS_A	ZHHZ	CPPC	YFFY	JQQJ	LWWL	DXXD	küssen	genießen	träumen	vertrauen	gütig	sonnig	krank	gemein	töten	versagen	gierig	sterben	53pct	acq_USunple_CSunple1_noRW	acq23456_noRW	2	33	0	0	300	300	666	46	0	1	1	blank2r.bmp	0	1	+	0	1	blank2r.bmp	252	1	YFFY	306	1	krank	559	0	0	0	0	0	0	0	0	0	0	0	0	0	0	0	0	0	0	0	0	0	0	0	0	0	0	0	0	0	0	0	0	0	0	0	0	0	0	0
071719	11:56:04	12:00:36	271152	5.0.10.0	5_exp_noRW	62	Rpleas_acq	CS_A	ZHHZ	CPPC	YFFY	JQQJ	LWWL	DXXD	küssen	genießen	träumen	vertrauen	gütig	sonnig	krank	gemein	töten	versagen	gierig	sterben	47pct	acq_USunple_CSpleas1_noRW	acq23456_noRW	2	34	0	0	300	300	521	46	0	1	1	blank2r.bmp	0	1	+	0	1	blank2r.bmp	252	1	ZHHZ	306	1	krank	559	0	0	0	0	0	0	0	0	0	0	0	0	0	0	0	0	0	0	0	0	0	0	0	0	0	0	0	0	0	0	0	0	0	0	0	0	0	0	0
071719	11:56:04	12:00:37	272792	5.0.10.0	5_exp_noRW	62	Rpleas_acq	CS_A	ZHHZ	CPPC	YFFY	JQQJ	LWWL	DXXD	küssen	genießen	träumen	vertrauen	gütig	sonnig	krank	gemein	töten	versagen	gierig	sterben	53pct	acq_USpleas_CSpleas1_noRW	acq23456_noRW	2	35	0	0	300	300	468	50	0	1	1	blank2r.bmp	0	1	+	0	1	blank2r.bmp	252	1	ZHHZ	306	3	träumen	559	0	0	0	0	0	0	0	0	0	0	0	0	0	0	0	0	0	0	0	0	0	0	0	0	0	0	0	0	0	0	0	0	0	0	0	0	0	0	0
071719	11:56:04	12:00:39	274484	5.0.10.0	5_exp_noRW	62	Rpleas_acq	CS_A	ZHHZ	CPPC	YFFY	JQQJ	LWWL	DXXD	küssen	genießen	träumen	vertrauen	gütig	sonnig	krank	gemein	töten	versagen	gierig	sterben	53pct	acq_USunple_CSunple1_noRW	acq23456_noRW	2	36	0	0	300	300	512	46	0	1	1	blank2r.bmp	0	1	+	0	1	blank2r.bmp	252	1	YFFY	306	3	töten	559	0	0	0	0	0	0	0	0	0	0	0	0	0	0	0	0	0	0	0	0	0	0	0	0	0	0	0	0	0	0	0	0	0	0	0	0	0	0	0
071719	11:56:04	12:00:41	276084	5.0.10.0	5_exp_noRW	62	Rpleas_acq	CS_A	ZHHZ	CPPC	YFFY	JQQJ	LWWL	DXXD	küssen	genießen	träumen	vertrauen	gütig	sonnig	krank	gemein	töten	versagen	gierig	sterben	47pct	acq_USpleas_CSpleas2_noRW	acq23456_noRW	2	37	0	0	300	300	431	50	0	1	1	blank2r.bmp	0	1	+	0	1	blank2r.bmp	252	1	CPPC	306	3	sonnig	559	0	0	0	0	0	0	0	0	0	0	0	0	0	0	0	0	0	0	0	0	0	0	0	0	0	0	0	0	0	0	0	0	0	0	0	0	0	0	0
071719	11:56:04	12:00:42	277723	5.0.10.0	5_exp_noRW	62	Rpleas_acq	CS_A	ZHHZ	CPPC	YFFY	JQQJ	LWWL	DXXD	küssen	genießen	träumen	vertrauen	gütig	sonnig	krank	gemein	töten	versagen	gierig	sterben	53pct	acq_USpleas_CSpleas1_noRW	acq23456_noRW	2	38	0	0	300	300	456	50	0	1	1	blank2r.bmp	0	1	+	0	1	blank2r.bmp	252	1	ZHHZ	306	1	küssen	559	0	0	0	0	0	0	0	0	0	0	0	0	0	0	0	0	0	0	0	0	0	0	0	0	0	0	0	0	0	0	0	0	0	0	0	0	0	0	0
071719	11:56:04	12:00:44	279322	5.0.10.0	5_exp_noRW	62	Rpleas_acq	CS_A	ZHHZ	CPPC	YFFY	JQQJ	LWWL	DXXD	küssen	genießen	träumen	vertrauen	gütig	sonnig	krank	gemein	töten	versagen	gierig	sterben	47pct	acq_USpleas_CSpleas1_noRW	acq23456_noRW	2	39	0	0	300	300	419	50	0	1	1	blank2r.bmp	0	1	+	0	1	blank2r.bmp	252	1	ZHHZ	306	2	genießen	559	0	0	0	0	0	0	0	0	0	0	0	0	0	0	0	0	0	0	0	0	0	0	0	0	0	0	0	0	0	0	0	0	0	0	0	0	0	0	0
071719	11:56:04	12:00:45	280882	5.0.10.0	5_exp_noRW	62	Rpleas_acq	CS_A	ZHHZ	CPPC	YFFY	JQQJ	LWWL	DXXD	küssen	genießen	träumen	vertrauen	gütig	sonnig	krank	gemein	töten	versagen	gierig	sterben	47pct	acq_USunple_CSunple2_noRW	acq23456_noRW	2	40	0	0	300	300	397	46	0	1	1	blank2r.bmp	0	1	+	0	1	blank2r.bmp	252	1	JQQJ	306	3	sterben	559	0	0	0	0	0	0	0	0	0	0	0	0	0	0	0	0	0	0	0	0	0	0	0	0	0	0	0	0	0	0	0	0	0	0	0	0	0	0	0
071719	11:56:04	12:00:47	282574	5.0.10.0	5_exp_noRW	62	Rpleas_acq	CS_A	ZHHZ	CPPC	YFFY	JQQJ	LWWL	DXXD	küssen	genießen	träumen	vertrauen	gütig	sonnig	krank	gemein	töten	versagen	gierig	sterben	47pct	acq_USpleas_CSpleas1_noRW	acq23456_noRW	2	41	0	0	300	300	513	50	0	1	1	blank2r.bmp	0	1	+	0	1	blank2r.bmp	252	1	ZHHZ	306	2	genießen	559	0	0	0	0	0	0	0	0	0	0	0	0	0	0	0	0	0	0	0	0	0	0	0	0	0	0	0	0	0	0	0	0	0	0	0	0	0	0	0
071719	11:56:04	12:00:49	284160	5.0.10.0	5_exp_noRW	62	Rpleas_acq	CS_A	ZHHZ	CPPC	YFFY	JQQJ	LWWL	DXXD	küssen	genießen	träumen	vertrauen	gütig	sonnig	krank	gemein	töten	versagen	gierig	sterben	47pct	acq_USpleas_CSpleas2_noRW	acq23456_noRW	2	42	0	0	300	300	404	50	0	1	1	blank2r.bmp	0	1	+	0	1	blank2r.bmp	252	1	CPPC	306	1	vertrauen	559	0	0	0	0	0	0	0	0	0	0	0	0	0	0	0	0	0	0	0	0	0	0	0	0	0	0	0	0	0	0	0	0	0	0	0	0	0	0	0
071719	11:56:04	12:00:50	285733	5.0.10.0	5_exp_noRW	62	Rpleas_acq	CS_A	ZHHZ	CPPC	YFFY	JQQJ	LWWL	DXXD	küssen	genießen	träumen	vertrauen	gütig	sonnig	krank	gemein	töten	versagen	gierig	sterben	53pct	acq_USunple_CSunple2_noRW	acq23456_noRW	2	43	0	0	300	300	389	46	0	1	1	blank2r.bmp	0	1	+	0	1	blank2r.bmp	252	1	JQQJ	306	1	versagen	559	0	0	0	0	0	0	0	0	0	0	0	0	0	0	0	0	0	0	0	0	0	0	0	0	0	0	0	0	0	0	0	0	0	0	0	0	0	0	0
071719	11:56:04	12:00:52	287386	5.0.10.0	5_exp_noRW	62	Rpleas_acq	CS_A	ZHHZ	CPPC	YFFY	JQQJ	LWWL	DXXD	küssen	genießen	träumen	vertrauen	gütig	sonnig	krank	gemein	töten	versagen	gierig	sterben	47pct	acq_USpleas_CSunple2_noRW	acq23456_noRW	2	44	0	0	300	300	490	50	0	1	1	blank2r.bmp	0	1	+	0	1	blank2r.bmp	252	1	JQQJ	306	1	vertrauen	559	0	0	0	0	0	0	0	0	0	0	0	0	0	0	0	0	0	0	0	0	0	0	0	0	0	0	0	0	0	0	0	0	0	0	0	0	0	0	0
071719	11:56:04	12:00:54	289118	5.0.10.0	5_exp_noRW	62	Rpleas_acq	CS_A	ZHHZ	CPPC	YFFY	JQQJ	LWWL	DXXD	küssen	genießen	träumen	vertrauen	gütig	sonnig	krank	gemein	töten	versagen	gierig	sterben	53pct	acq_USpleas_CSpleas1_noRW	acq23456_noRW	2	45	0	0	300	300	555	50	0	1	1	blank2r.bmp	0	1	+	0	1	blank2r.bmp	252	1	ZHHZ	306	1	küssen	559	0	0	0	0	0	0	0	0	0	0	0	0	0	0	0	0	0	0	0	0	0	0	0	0	0	0	0	0	0	0	0	0	0	0	0	0	0	0	0
071719	11:56:04	12:00:55	290758	5.0.10.0	5_exp_noRW	62	Rpleas_acq	CS_A	ZHHZ	CPPC	YFFY	JQQJ	LWWL	DXXD	küssen	genießen	träumen	vertrauen	gütig	sonnig	krank	gemein	töten	versagen	gierig	sterben	53pct	acq_USpleas_CSunple1_noRW	acq23456_noRW	2	46	0	0	300	300	452	50	0	1	1	blank2r.bmp	0	1	+	0	1	blank2r.bmp	252	1	YFFY	306	1	küssen	559	0	0	0	0	0	0	0	0	0	0	0	0	0	0	0	0	0	0	0	0	0	0	0	0	0	0	0	0	0	0	0	0	0	0	0	0	0	0	0
071719	11:56:04	12:00:57	292317	5.0.10.0	5_exp_noRW	62	Rpleas_acq	CS_A	ZHHZ	CPPC	YFFY	JQQJ	LWWL	DXXD	küssen	genießen	träumen	vertrauen	gütig	sonnig	krank	gemein	töten	versagen	gierig	sterben	47pct	acq_USpleas_CSpleas1_noRW	acq23456_noRW	2	47	0	0	300	300	391	50	0	1	1	blank2r.bmp	0	1	+	0	1	blank2r.bmp	252	1	ZHHZ	306	3	träumen	559	0	0	0	0	0	0	0	0	0	0	0	0	0	0	0	0	0	0	0	0	0	0	0	0	0	0	0	0	0	0	0	0	0	0	0	0	0	0	0
071719	11:56:04	12:00:59	293970	5.0.10.0	5_exp_noRW	62	Rpleas_acq	CS_A	ZHHZ	CPPC	YFFY	JQQJ	LWWL	DXXD	küssen	genießen	träumen	vertrauen	gütig	sonnig	krank	gemein	töten	versagen	gierig	sterben	53pct	acq_USunple_CSunple1_noRW	acq23456_noRW	2	48	0	0	300	300	491	46	0	1	1	blank2r.bmp	0	1	+	0	1	blank2r.bmp	252	1	YFFY	306	2	gemein	559	0	0	0	0	0	0	0	0	0	0	0	0	0	0	0	0	0	0	0	0	0	0	0	0	0	0	0	0	0	0	0	0	0	0	0	0	0	0	0
071719	11:56:04	12:01:00	295662	5.0.10.0	5_exp_noRW	62	Rpleas_acq	CS_A	ZHHZ	CPPC	YFFY	JQQJ	LWWL	DXXD	küssen	genießen	träumen	vertrauen	gütig	sonnig	krank	gemein	töten	versagen	gierig	sterben	47pct	acq_USunple_CSunple2_noRW	acq23456_noRW	2	49	0	0	300	300	509	46	0	1	1	blank2r.bmp	0	1	+	0	1	blank2r.bmp	252	1	JQQJ	306	2	gierig	559	0	0	0	0	0	0	0	0	0	0	0	0	0	0	0	0	0	0	0	0	0	0	0	0	0	0	0	0	0	0	0	0	0	0	0	0	0	0	0
071719	11:56:04	12:01:02	297288	5.0.10.0	5_exp_noRW	62	Rpleas_acq	CS_A	ZHHZ	CPPC	YFFY	JQQJ	LWWL	DXXD	küssen	genießen	träumen	vertrauen	gütig	sonnig	krank	gemein	töten	versagen	gierig	sterben	47pct	acq_USunple_CSunple1_noRW	acq23456_noRW	2	50	0	0	300	300	443	46	0	1	1	blank2r.bmp	0	1	+	0	1	blank2r.bmp	252	1	YFFY	306	1	krank	559	0	0	0	0	0	0	0	0	0	0	0	0	0	0	0	0	0	0	0	0	0	0	0	0	0	0	0	0	0	0	0	0	0	0	0	0	0	0	0
071719	11:56:04	12:01:04	298941	5.0.10.0	5_exp_noRW	62	Rpleas_acq	CS_A	ZHHZ	CPPC	YFFY	JQQJ	LWWL	DXXD	küssen	genießen	träumen	vertrauen	gütig	sonnig	krank	gemein	töten	versagen	gierig	sterben	53pct	acq_USunple_CSpleas2_noRW	acq23456_noRW	2	51	0	0	300	300	478	46	0	1	1	blank2r.bmp	0	1	+	0	1	blank2r.bmp	252	1	CPPC	306	2	gierig	559	0	0	0	0	0	0	0	0	0	0	0	0	0	0	0	0	0	0	0	0	0	0	0	0	0	0	0	0	0	0	0	0	0	0	0	0	0	0	0
071719	11:56:04	12:01:05	300553	5.0.10.0	5_exp_noRW	62	Rpleas_acq	CS_A	ZHHZ	CPPC	YFFY	JQQJ	LWWL	DXXD	küssen	genießen	träumen	vertrauen	gütig	sonnig	krank	gemein	töten	versagen	gierig	sterben	47pct	acq_USunple_CSunple2_noRW	acq23456_noRW	2	52	0	0	300	300	428	46	0	1	1	blank2r.bmp	0	1	+	0	1	blank2r.bmp	252	1	JQQJ	306	3	sterben	559	0	0	0	0	0	0	0	0	0	0	0	0	0	0	0	0	0	0	0	0	0	0	0	0	0	0	0	0	0	0	0	0	0	0	0	0	0	0	0
071719	11:56:04	12:01:07	302100	5.0.10.0	5_exp_noRW	62	Rpleas_acq	CS_A	ZHHZ	CPPC	YFFY	JQQJ	LWWL	DXXD	küssen	genießen	träumen	vertrauen	gütig	sonnig	krank	gemein	töten	versagen	gierig	sterben	53pct	acq_USpleas_CSpleas1_noRW	acq23456_noRW	2	53	0	0	300	300	379	50	0	1	1	blank2r.bmp	0	1	+	0	1	blank2r.bmp	252	1	ZHHZ	306	1	küssen	559	0	0	0	0	0	0	0	0	0	0	0	0	0	0	0	0	0	0	0	0	0	0	0	0	0	0	0	0	0	0	0	0	0	0	0	0	0	0	0
071719	11:56:04	12:01:08	303699	5.0.10.0	5_exp_noRW	62	Rpleas_acq	CS_A	ZHHZ	CPPC	YFFY	JQQJ	LWWL	DXXD	küssen	genießen	träumen	vertrauen	gütig	sonnig	krank	gemein	töten	versagen	gierig	sterben	47pct	acq_USpleas_CSpleas2_noRW	acq23456_noRW	2	54	0	0	300	300	422	50	0	1	1	blank2r.bmp	0	1	+	0	1	blank2r.bmp	252	1	CPPC	306	3	sonnig	559	0	0	0	0	0	0	0	0	0	0	0	0	0	0	0	0	0	0	0	0	0	0	0	0	0	0	0	0	0	0	0	0	0	0	0	0	0	0	0
071719	11:56:04	12:01:10	305565	5.0.10.0	5_exp_noRW	62	Rpleas_acq	CS_A	ZHHZ	CPPC	YFFY	JQQJ	LWWL	DXXD	küssen	genießen	träumen	vertrauen	gütig	sonnig	krank	gemein	töten	versagen	gierig	sterben	47pct	acq_USpleas_CSpleas2_noRW	acq23456_noRW	2	55	0	0	300	300	471	46	0	0	1	blank2r.bmp	0	1	+	0	1	blank2r.bmp	252	1	CPPC	306	2	gütig	559	1	FEHLER	1066	0	0	0	0	0	0	0	0	0	0	0	0	0	0	0	0	0	0	0	0	0	0	0	0	0	0	0	0	0	0	0	0	0	0	0	0
071719	11:56:04	12:01:12	307324	5.0.10.0	5_exp_noRW	62	Rpleas_acq	CS_A	ZHHZ	CPPC	YFFY	JQQJ	LWWL	DXXD	küssen	genießen	träumen	vertrauen	gütig	sonnig	krank	gemein	töten	versagen	gierig	sterben	47pct	acq_USunple_CSunple1_noRW	acq23456_noRW	2	56	0	0	300	300	795	46	0	1	1	blank2r.bmp	0	1	+	0	1	blank2r.bmp	252	1	YFFY	306	3	töten	559	0	0	0	0	0	0	0	0	0	0	0	0	0	0	0	0	0	0	0	0	0	0	0	0	0	0	0	0	0	0	0	0	0	0	0	0	0	0	0
071719	11:56:04	12:01:14	308937	5.0.10.0	5_exp_noRW	62	Rpleas_acq	CS_A	ZHHZ	CPPC	YFFY	JQQJ	LWWL	DXXD	küssen	genießen	träumen	vertrauen	gütig	sonnig	krank	gemein	töten	versagen	gierig	sterben	53pct	acq_USpleas_CSpleas2_noRW	acq23456_noRW	2	57	0	0	300	300	425	50	0	1	1	blank2r.bmp	0	1	+	0	1	blank2r.bmp	252	1	CPPC	306	3	sonnig	559	0	0	0	0	0	0	0	0	0	0	0	0	0	0	0	0	0	0	0	0	0	0	0	0	0	0	0	0	0	0	0	0	0	0	0	0	0	0	0
071719	11:56:04	12:01:15	310616	5.0.10.0	5_exp_noRW	62	Rpleas_acq	CS_A	ZHHZ	CPPC	YFFY	JQQJ	LWWL	DXXD	küssen	genießen	träumen	vertrauen	gütig	sonnig	krank	gemein	töten	versagen	gierig	sterben	53pct	acq_USunple_CSpleas1_noRW	acq23456_noRW	2	58	0	0	300	300	512	46	0	1	1	blank2r.bmp	0	1	+	0	1	blank2r.bmp	252	1	ZHHZ	306	1	krank	559	0	0	0	0	0	0	0	0	0	0	0	0	0	0	0	0	0	0	0	0	0	0	0	0	0	0	0	0	0	0	0	0	0	0	0	0	0	0	0
071719	11:56:04	12:01:17	312242	5.0.10.0	5_exp_noRW	62	Rpleas_acq	CS_A	ZHHZ	CPPC	YFFY	JQQJ	LWWL	DXXD	küssen	genießen	träumen	vertrauen	gütig	sonnig	krank	gemein	töten	versagen	gierig	sterben	47pct	acq_USunple_CSunple2_noRW	acq23456_noRW	2	59	0	0	300	300	460	46	0	1	1	blank2r.bmp	0	1	+	0	1	blank2r.bmp	252	1	JQQJ	306	3	sterben	559	0	0	0	0	0	0	0	0	0	0	0	0	0	0	0	0	0	0	0	0	0	0	0	0	0	0	0	0	0	0	0	0	0	0	0	0	0	0	0
071719	11:56:04	12:01:18	313841	5.0.10.0	5_exp_noRW	62	Rpleas_acq	CS_A	ZHHZ	CPPC	YFFY	JQQJ	LWWL	DXXD	küssen	genießen	träumen	vertrauen	gütig	sonnig	krank	gemein	töten	versagen	gierig	sterben	47pct	acq_USunple_CSunple1_noRW	acq23456_noRW	2	60	0	0	300	300	414	46	0	1	1	blank2r.bmp	0	1	+	0	1	blank2r.bmp	252	1	YFFY	306	3	töten	559	0	0	0	0	0	0	0	0	0	0	0	0	0	0	0	0	0	0	0	0	0	0	0	0	0	0	0	0	0	0	0	0	0	0	0	0	0	0	0
071719	11:56:04	12:01:20	315481	5.0.10.0	5_exp_noRW	62	Rpleas_acq	CS_A	ZHHZ	CPPC	YFFY	JQQJ	LWWL	DXXD	küssen	genießen	träumen	vertrauen	gütig	sonnig	krank	gemein	töten	versagen	gierig	sterben	53pct	acq_USunple_CSunple2_noRW	acq23456_noRW	2	61	0	0	300	300	467	46	0	1	1	blank2r.bmp	0	1	+	0	1	blank2r.bmp	252	1	JQQJ	306	2	gierig	559	0	0	0	0	0	0	0	0	0	0	0	0	0	0	0	0	0	0	0	0	0	0	0	0	0	0	0	0	0	0	0	0	0	0	0	0	0	0	0
071719	11:56:04	12:01:22	317107	5.0.10.0	5_exp_noRW	62	Rpleas_acq	CS_A	ZHHZ	CPPC	YFFY	JQQJ	LWWL	DXXD	küssen	genießen	träumen	vertrauen	gütig	sonnig	krank	gemein	töten	versagen	gierig	sterben	47pct	acq_USpleas_CSpleas1_noRW	acq23456_noRW	2	62	0	0	300	300	463	50	0	1	1	blank2r.bmp	0	1	+	0	1	blank2r.bmp	252	1	ZHHZ	306	2	genießen	559	0	0	0	0	0	0	0	0	0	0	0	0	0	0	0	0	0	0	0	0	0	0	0	0	0	0	0	0	0	0	0	0	0	0	0	0	0	0	0
071719	11:56:04	12:01:23	318759	5.0.10.0	5_exp_noRW	62	Rpleas_acq	CS_A	ZHHZ	CPPC	YFFY	JQQJ	LWWL	DXXD	küssen	genießen	träumen	vertrauen	gütig	sonnig	krank	gemein	töten	versagen	gierig	sterben	47pct	acq_USunple_CSunple1_noRW	acq23456_noRW	2	63	0	0	300	300	472	46	0	1	1	blank2r.bmp	0	1	+	0	1	blank2r.bmp	252	1	YFFY	306	2	gemein	559	0	0	0	0	0	0	0	0	0	0	0	0	0	0	0	0	0	0	0	0	0	0	0	0	0	0	0	0	0	0	0	0	0	0	0	0	0	0	0
071719	11:56:04	12:01:25	320758	5.0.10.0	5_exp_noRW	62	Rpleas_acq	CS_A	ZHHZ	CPPC	YFFY	JQQJ	LWWL	DXXD	küssen	genießen	träumen	vertrauen	gütig	sonnig	krank	gemein	töten	versagen	gierig	sterben	53pct	acq_USunple_CSunple2_noRW	acq23456_noRW	2	64	0	0	300	300	826	46	0	1	1	blank2r.bmp	0	1	+	0	1	blank2r.bmp	252	1	JQQJ	306	1	versagen	559	0	0	0	0	0	0	0	0	0	0	0	0	0	0	0	0	0	0	0	0	0	0	0	0	0	0	0	0	0	0	0	0	0	0	0	0	0	0	0
071719	11:56:04	12:01:27	322411	5.0.10.0	5_exp_noRW	62	Rpleas_acq	CS_A	ZHHZ	CPPC	YFFY	JQQJ	LWWL	DXXD	küssen	genießen	träumen	vertrauen	gütig	sonnig	krank	gemein	töten	versagen	gierig	sterben	47pct	acq_USpleas_CSpleas1_noRW	acq23456_noRW	2	65	0	0	300	300	481	50	0	1	1	blank2r.bmp	0	1	+	0	1	blank2r.bmp	252	1	ZHHZ	306	3	träumen	559	0	0	0	0	0	0	0	0	0	0	0	0	0	0	0	0	0	0	0	0	0	0	0	0	0	0	0	0	0	0	0	0	0	0	0	0	0	0	0
071719	11:56:04	12:01:29	324090	5.0.10.0	5_exp_noRW	62	Rpleas_acq	CS_A	ZHHZ	CPPC	YFFY	JQQJ	LWWL	DXXD	küssen	genießen	träumen	vertrauen	gütig	sonnig	krank	gemein	töten	versagen	gierig	sterben	47pct	acq_USpleas_CSpleas1_noRW	acq23456_noRW	2	66	0	0	300	300	515	50	0	1	1	blank2r.bmp	0	1	+	0	1	blank2r.bmp	252	1	ZHHZ	306	3	träumen	559	0	0	0	0	0	0	0	0	0	0	0	0	0	0	0	0	0	0	0	0	0	0	0	0	0	0	0	0	0	0	0	0	0	0	0	0	0	0	0
071719	11:56:04	12:01:30	325623	5.0.10.0	5_exp_noRW	62	Rpleas_acq	CS_A	ZHHZ	CPPC	YFFY	JQQJ	LWWL	DXXD	küssen	genießen	träumen	vertrauen	gütig	sonnig	krank	gemein	töten	versagen	gierig	sterben	47pct	acq_USunple_CSunple1_noRW	acq23456_noRW	2	67	0	0	300	300	362	46	0	1	1	blank2r.bmp	0	1	+	0	1	blank2r.bmp	252	1	YFFY	306	1	krank	559	0	0	0	0	0	0	0	0	0	0	0	0	0	0	0	0	0	0	0	0	0	0	0	0	0	0	0	0	0	0	0	0	0	0	0	0	0	0	0
071719	11:56:04	12:01:32	327462	5.0.10.0	5_exp_noRW	62	Rpleas_acq	CS_A	ZHHZ	CPPC	YFFY	JQQJ	LWWL	DXXD	küssen	genießen	träumen	vertrauen	gütig	sonnig	krank	gemein	töten	versagen	gierig	sterben	53pct	acq_USpleas_CSunple2_noRW	acq23456_noRW	2	68	0	0	300	300	674	50	0	1	1	blank2r.bmp	0	1	+	0	1	blank2r.bmp	252	1	JQQJ	306	2	gütig	559	0	0	0	0	0	0	0	0	0	0	0	0	0	0	0	0	0	0	0	0	0	0	0	0	0	0	0	0	0	0	0	0	0	0	0	0	0	0	0
071719	11:56:04	12:01:34	329088	5.0.10.0	5_exp_noRW	62	Rpleas_acq	CS_A	ZHHZ	CPPC	YFFY	JQQJ	LWWL	DXXD	küssen	genießen	träumen	vertrauen	gütig	sonnig	krank	gemein	töten	versagen	gierig	sterben	47pct	acq_USunple_CSpleas2_noRW	acq23456_noRW	2	69	0	0	300	300	456	46	0	1	1	blank2r.bmp	0	1	+	0	1	blank2r.bmp	252	1	CPPC	306	3	sterben	559	0	0	0	0	0	0	0	0	0	0	0	0	0	0	0	0	0	0	0	0	0	0	0	0	0	0	0	0	0	0	0	0	0	0	0	0	0	0	0
071719	11:56:04	12:01:36	331074	5.0.10.0	5_exp_noRW	62	Rpleas_acq	CS_A	ZHHZ	CPPC	YFFY	JQQJ	LWWL	DXXD	küssen	genießen	träumen	vertrauen	gütig	sonnig	krank	gemein	töten	versagen	gierig	sterben	47pct	acq_USpleas_CSpleas1_noRW	acq23456_noRW	2	70	0	0	300	300	823	50	0	1	1	blank2r.bmp	0	1	+	0	1	blank2r.bmp	252	1	ZHHZ	306	2	genießen	559	0	0	0	0	0	0	0	0	0	0	0	0	0	0	0	0	0	0	0	0	0	0	0	0	0	0	0	0	0	0	0	0	0	0	0	0	0	0	0
071719	11:56:04	12:01:37	332647	5.0.10.0	5_exp_noRW	62	Rpleas_acq	CS_A	ZHHZ	CPPC	YFFY	JQQJ	LWWL	DXXD	küssen	genießen	träumen	vertrauen	gütig	sonnig	krank	gemein	töten	versagen	gierig	sterben	47pct	acq_USunple_CSpleas1_noRW	acq23456_noRW	2	71	0	0	300	300	397	46	0	1	1	blank2r.bmp	0	1	+	0	1	blank2r.bmp	252	1	ZHHZ	306	3	töten	559	0	0	0	0	0	0	0	0	0	0	0	0	0	0	0	0	0	0	0	0	0	0	0	0	0	0	0	0	0	0	0	0	0	0	0	0	0	0	0
071719	11:56:04	12:01:39	334539	5.0.10.0	5_exp_noRW	62	Rpleas_acq	CS_A	ZHHZ	CPPC	YFFY	JQQJ	LWWL	DXXD	küssen	genießen	träumen	vertrauen	gütig	sonnig	krank	gemein	töten	versagen	gierig	sterben	47pct	acq_USpleas_CSpleas2_noRW	acq23456_noRW	2	72	0	0	300	300	708	50	0	1	1	blank2r.bmp	0	1	+	0	1	blank2r.bmp	252	1	CPPC	306	2	gütig	559	0	0	0	0	0	0	0	0	0	0	0	0	0	0	0	0	0	0	0	0	0	0	0	0	0	0	0	0	0	0	0	0	0	0	0	0	0	0	0
071719	11:56:04	12:01:41	336325	5.0.10.0	5_exp_noRW	62	Rpleas_acq	CS_A	ZHHZ	CPPC	YFFY	JQQJ	LWWL	DXXD	küssen	genießen	träumen	vertrauen	gütig	sonnig	krank	gemein	töten	versagen	gierig	sterben	47pct	acq_USunple_CSunple1_noRW	acq23456_noRW	2	73	0	0	300	300	602	46	0	1	1	blank2r.bmp	0	1	+	0	1	blank2r.bmp	252	1	YFFY	306	1	krank	559	0	0	0	0	0	0	0	0	0	0	0	0	0	0	0	0	0	0	0	0	0	0	0	0	0	0	0	0	0	0	0	0	0	0	0	0	0	0	0
071719	11:56:04	12:01:43	338058	5.0.10.0	5_exp_noRW	62	Rpleas_acq	CS_A	ZHHZ	CPPC	YFFY	JQQJ	LWWL	DXXD	küssen	genießen	träumen	vertrauen	gütig	sonnig	krank	gemein	töten	versagen	gierig	sterben	53pct	acq_USpleas_CSunple1_noRW	acq23456_noRW	2	74	0	0	300	300	560	50	0	1	1	blank2r.bmp	0	1	+	0	1	blank2r.bmp	252	1	YFFY	306	2	genießen	559	0	0	0	0	0	0	0	0	0	0	0	0	0	0	0	0	0	0	0	0	0	0	0	0	0	0	0	0	0	0	0	0	0	0	0	0	0	0	0
071719	11:56:04	12:01:44	339684	5.0.10.0	5_exp_noRW	62	Rpleas_acq	CS_A	ZHHZ	CPPC	YFFY	JQQJ	LWWL	DXXD	küssen	genießen	träumen	vertrauen	gütig	sonnig	krank	gemein	töten	versagen	gierig	sterben	47pct	acq_USunple_CSunple1_noRW	acq23456_noRW	2	75	0	0	300	300	454	46	0	1	1	blank2r.bmp	0	1	+	0	1	blank2r.bmp	252	1	YFFY	306	2	gemein	559	0	0	0	0	0	0	0	0	0	0	0	0	0	0	0	0	0	0	0	0	0	0	0	0	0	0	0	0	0	0	0	0	0	0	0	0	0	0	0
071719	11:56:04	12:01:46	341456	5.0.10.0	5_exp_noRW	62	Rpleas_acq	CS_A	ZHHZ	CPPC	YFFY	JQQJ	LWWL	DXXD	küssen	genießen	träumen	vertrauen	gütig	sonnig	krank	gemein	töten	versagen	gierig	sterben	53pct	acq_USpleas_CSpleas2_noRW	acq23456_noRW	2	76	0	0	300	300	592	50	0	1	1	blank2r.bmp	0	1	+	0	1	blank2r.bmp	252	1	CPPC	306	1	vertrauen	559	0	0	0	0	0	0	0	0	0	0	0	0	0	0	0	0	0	0	0	0	0	0	0	0	0	0	0	0	0	0	0	0	0	0	0	0	0	0	0
071719	11:56:04	12:01:48	343349	5.0.10.0	5_exp_noRW	62	Rpleas_acq	CS_A	ZHHZ	CPPC	YFFY	JQQJ	LWWL	DXXD	küssen	genießen	träumen	vertrauen	gütig	sonnig	krank	gemein	töten	versagen	gierig	sterben	53pct	acq_USpleas_CSpleas2_noRW	acq23456_noRW	2	77	0	0	300	300	725	50	0	1	1	blank2r.bmp	0	1	+	0	1	blank2r.bmp	252	1	CPPC	306	2	gütig	559	0	0	0	0	0	0	0	0	0	0	0	0	0	0	0	0	0	0	0	0	0	0	0	0	0	0	0	0	0	0	0	0	0	0	0	0	0	0	0
071719	11:56:04	12:01:50	345068	5.0.10.0	5_exp_noRW	62	Rpleas_acq	CS_A	ZHHZ	CPPC	YFFY	JQQJ	LWWL	DXXD	küssen	genießen	träumen	vertrauen	gütig	sonnig	krank	gemein	töten	versagen	gierig	sterben	47pct	acq_USunple_CSunple2_noRW	acq23456_noRW	2	78	0	0	300	300	541	46	0	1	1	blank2r.bmp	0	1	+	0	1	blank2r.bmp	252	1	JQQJ	306	1	versagen	559	0	0	0	0	0	0	0	0	0	0	0	0	0	0	0	0	0	0	0	0	0	0	0	0	0	0	0	0	0	0	0	0	0	0	0	0	0	0	0
071719	11:56:04	12:01:51	346774	5.0.10.0	5_exp_noRW	62	Rpleas_acq	CS_A	ZHHZ	CPPC	YFFY	JQQJ	LWWL	DXXD	küssen	genießen	träumen	vertrauen	gütig	sonnig	krank	gemein	töten	versagen	gierig	sterben	53pct	acq_USunple_CSunple2_noRW	acq23456_noRW	2	79	0	0	300	300	527	46	0	1	1	blank2r.bmp	0	1	+	0	1	blank2r.bmp	252	1	JQQJ	306	3	sterben	559	0	0	0	0	0	0	0	0	0	0	0	0	0	0	0	0	0	0	0	0	0	0	0	0	0	0	0	0	0	0	0	0	0	0	0	0	0	0	0
071719	11:56:04	12:01:53	348480	5.0.10.0	5_exp_noRW	62	Rpleas_acq	CS_A	ZHHZ	CPPC	YFFY	JQQJ	LWWL	DXXD	küssen	genießen	träumen	vertrauen	gütig	sonnig	krank	gemein	töten	versagen	gierig	sterben	53pct	acq_USpleas_CSpleas2_noRW	acq23456_noRW	2	80	0	0	300	300	544	50	0	1	1	blank2r.bmp	0	1	+	0	1	blank2r.bmp	252	1	CPPC	306	1	vertrauen	559	0	0	0	0	0	0	0	0	0	0	0	0	0	0	0	0	0	0	0	0	0	0	0	0	0	0	0	0	0	0	0	0	0	0	0	0	0	0	0
071719	11:56:04	12:02:02	357383	5.0.10.0	5_exp_noRW	62	Rpleas_acq	CS_A	ZHHZ	CPPC	YFFY	JQQJ	LWWL	DXXD	küssen	genießen	träumen	vertrauen	gütig	sonnig	krank	gemein	töten	versagen	gierig	sterben	53pct	acq_USpleas_CSpleas2_noRW	acq23456_noRW	3	1	0	0	300	300	423	50	0	1	1	blank2r.bmp	0	1	+	0	1	blank2r.bmp	252	1	CPPC	306	3	sonnig	559	0	0	0	0	0	0	0	0	0	0	0	0	0	0	0	0	0	0	0	0	0	0	0	0	0	0	0	0	0	0	0	0	0	0	0	0	0	0	0
071719	11:56:04	12:02:04	358969	5.0.10.0	5_exp_noRW	62	Rpleas_acq	CS_A	ZHHZ	CPPC	YFFY	JQQJ	LWWL	DXXD	küssen	genießen	träumen	vertrauen	gütig	sonnig	krank	gemein	töten	versagen	gierig	sterben	53pct	acq_USunple_CSunple1_noRW	acq23456_noRW	3	2	0	0	300	300	407	46	0	1	1	blank2r.bmp	0	1	+	0	1	blank2r.bmp	252	1	YFFY	306	3	töten	559	0	0	0	0	0	0	0	0	0	0	0	0	0	0	0	0	0	0	0	0	0	0	0	0	0	0	0	0	0	0	0	0	0	0	0	0	0	0	0
071719	11:56:04	12:02:05	360715	5.0.10.0	5_exp_noRW	62	Rpleas_acq	CS_A	ZHHZ	CPPC	YFFY	JQQJ	LWWL	DXXD	küssen	genießen	träumen	vertrauen	gütig	sonnig	krank	gemein	töten	versagen	gierig	sterben	47pct	acq_USpleas_CSpleas2_noRW	acq23456_noRW	3	3	0	0	300	300	564	50	0	1	1	blank2r.bmp	0	1	+	0	1	blank2r.bmp	252	1	CPPC	306	2	gütig	559	0	0	0	0	0	0	0	0	0	0	0	0	0	0	0	0	0	0	0	0	0	0	0	0	0	0	0	0	0	0	0	0	0	0	0	0	0	0	0
071719	11:56:04	12:02:07	362288	5.0.10.0	5_exp_noRW	62	Rpleas_acq	CS_A	ZHHZ	CPPC	YFFY	JQQJ	LWWL	DXXD	küssen	genießen	träumen	vertrauen	gütig	sonnig	krank	gemein	töten	versagen	gierig	sterben	53pct	acq_USunple_CSunple1_noRW	acq23456_noRW	3	4	0	0	300	300	396	46	0	1	1	blank2r.bmp	0	1	+	0	1	blank2r.bmp	252	1	YFFY	306	3	töten	559	0	0	0	0	0	0	0	0	0	0	0	0	0	0	0	0	0	0	0	0	0	0	0	0	0	0	0	0	0	0	0	0	0	0	0	0	0	0	0
071719	11:56:04	12:02:08	363887	5.0.10.0	5_exp_noRW	62	Rpleas_acq	CS_A	ZHHZ	CPPC	YFFY	JQQJ	LWWL	DXXD	küssen	genießen	träumen	vertrauen	gütig	sonnig	krank	gemein	töten	versagen	gierig	sterben	47pct	acq_USpleas_CSpleas2_noRW	acq23456_noRW	3	5	0	0	300	300	418	50	0	1	1	blank2r.bmp	0	1	+	0	1	blank2r.bmp	252	1	CPPC	306	3	sonnig	559	0	0	0	0	0	0	0	0	0	0	0	0	0	0	0	0	0	0	0	0	0	0	0	0	0	0	0	0	0	0	0	0	0	0	0	0	0	0	0
071719	11:56:04	12:02:10	365433	5.0.10.0	5_exp_noRW	62	Rpleas_acq	CS_A	ZHHZ	CPPC	YFFY	JQQJ	LWWL	DXXD	küssen	genießen	träumen	vertrauen	gütig	sonnig	krank	gemein	töten	versagen	gierig	sterben	47pct	acq_USpleas_CSpleas1_noRW	acq23456_noRW	3	6	0	0	300	300	373	50	0	1	1	blank2r.bmp	0	1	+	0	1	blank2r.bmp	252	1	ZHHZ	306	1	küssen	559	0	0	0	0	0	0	0	0	0	0	0	0	0	0	0	0	0	0	0	0	0	0	0	0	0	0	0	0	0	0	0	0	0	0	0	0	0	0	0
071719	11:56:04	12:02:12	367019	5.0.10.0	5_exp_noRW	62	Rpleas_acq	CS_A	ZHHZ	CPPC	YFFY	JQQJ	LWWL	DXXD	küssen	genießen	träumen	vertrauen	gütig	sonnig	krank	gemein	töten	versagen	gierig	sterben	47pct	acq_USunple_CSunple1_noRW	acq23456_noRW	3	7	0	0	300	300	424	46	0	1	1	blank2r.bmp	0	1	+	0	1	blank2r.bmp	252	1	YFFY	306	1	krank	559	0	0	0	0	0	0	0	0	0	0	0	0	0	0	0	0	0	0	0	0	0	0	0	0	0	0	0	0	0	0	0	0	0	0	0	0	0	0	0
071719	11:56:04	12:02:13	368552	5.0.10.0	5_exp_noRW	62	Rpleas_acq	CS_A	ZHHZ	CPPC	YFFY	JQQJ	LWWL	DXXD	küssen	genießen	träumen	vertrauen	gütig	sonnig	krank	gemein	töten	versagen	gierig	sterben	53pct	acq_USunple_CSunple1_noRW	acq23456_noRW	3	8	0	0	300	300	352	46	0	1	1	blank2r.bmp	0	1	+	0	1	blank2r.bmp	252	1	YFFY	306	2	gemein	559	0	0	0	0	0	0	0	0	0	0	0	0	0	0	0	0	0	0	0	0	0	0	0	0	0	0	0	0	0	0	0	0	0	0	0	0	0	0	0
071719	11:56:04	12:02:15	370151	5.0.10.0	5_exp_noRW	62	Rpleas_acq	CS_A	ZHHZ	CPPC	YFFY	JQQJ	LWWL	DXXD	küssen	genießen	träumen	vertrauen	gütig	sonnig	krank	gemein	töten	versagen	gierig	sterben	47pct	acq_USpleas_CSpleas2_noRW	acq23456_noRW	3	9	0	0	300	300	435	50	0	1	1	blank2r.bmp	0	1	+	0	1	blank2r.bmp	252	1	CPPC	306	1	vertrauen	559	0	0	0	0	0	0	0	0	0	0	0	0	0	0	0	0	0	0	0	0	0	0	0	0	0	0	0	0	0	0	0	0	0	0	0	0	0	0	0
071719	11:56:04	12:02:16	371764	5.0.10.0	5_exp_noRW	62	Rpleas_acq	CS_A	ZHHZ	CPPC	YFFY	JQQJ	LWWL	DXXD	küssen	genießen	träumen	vertrauen	gütig	sonnig	krank	gemein	töten	versagen	gierig	sterben	53pct	acq_USunple_CSunple2_noRW	acq23456_noRW	3	10	0	0	300	300	430	46	0	1	1	blank2r.bmp	0	1	+	0	1	blank2r.bmp	252	1	JQQJ	306	2	gierig	559	0	0	0	0	0	0	0	0	0	0	0	0	0	0	0	0	0	0	0	0	0	0	0	0	0	0	0	0	0	0	0	0	0	0	0	0	0	0	0
071719	11:56:04	12:02:18	373283	5.0.10.0	5_exp_noRW	62	Rpleas_acq	CS_A	ZHHZ	CPPC	YFFY	JQQJ	LWWL	DXXD	küssen	genießen	träumen	vertrauen	gütig	sonnig	krank	gemein	töten	versagen	gierig	sterben	47pct	acq_USpleas_CSunple2_noRW	acq23456_noRW	3	11	0	0	300	300	351	50	0	1	1	blank2r.bmp	0	1	+	0	1	blank2r.bmp	252	1	JQQJ	306	3	sonnig	559	0	0	0	0	0	0	0	0	0	0	0	0	0	0	0	0	0	0	0	0	0	0	0	0	0	0	0	0	0	0	0	0	0	0	0	0	0	0	0
071719	11:56:04	12:02:19	374909	5.0.10.0	5_exp_noRW	62	Rpleas_acq	CS_A	ZHHZ	CPPC	YFFY	JQQJ	LWWL	DXXD	küssen	genießen	träumen	vertrauen	gütig	sonnig	krank	gemein	töten	versagen	gierig	sterben	47pct	acq_USunple_CSpleas2_noRW	acq23456_noRW	3	12	0	0	300	300	450	46	0	1	1	blank2r.bmp	0	1	+	0	1	blank2r.bmp	252	1	CPPC	306	1	versagen	559	0	0	0	0	0	0	0	0	0	0	0	0	0	0	0	0	0	0	0	0	0	0	0	0	0	0	0	0	0	0	0	0	0	0	0	0	0	0	0
071719	11:56:04	12:02:21	376442	5.0.10.0	5_exp_noRW	62	Rpleas_acq	CS_A	ZHHZ	CPPC	YFFY	JQQJ	LWWL	DXXD	küssen	genießen	träumen	vertrauen	gütig	sonnig	krank	gemein	töten	versagen	gierig	sterben	47pct	acq_USunple_CSpleas1_noRW	acq23456_noRW	3	13	0	0	300	300	349	46	0	1	1	blank2r.bmp	0	1	+	0	1	blank2r.bmp	252	1	ZHHZ	306	2	gemein	559	0	0	0	0	0	0	0	0	0	0	0	0	0	0	0	0	0	0	0	0	0	0	0	0	0	0	0	0	0	0	0	0	0	0	0	0	0	0	0
071719	11:56:04	12:02:23	378014	5.0.10.0	5_exp_noRW	62	Rpleas_acq	CS_A	ZHHZ	CPPC	YFFY	JQQJ	LWWL	DXXD	küssen	genießen	träumen	vertrauen	gütig	sonnig	krank	gemein	töten	versagen	gierig	sterben	53pct	acq_USunple_CSunple2_noRW	acq23456_noRW	3	14	0	0	300	300	399	46	0	1	1	blank2r.bmp	0	1	+	0	1	blank2r.bmp	252	1	JQQJ	306	1	versagen	559	0	0	0	0	0	0	0	0	0	0	0	0	0	0	0	0	0	0	0	0	0	0	0	0	0	0	0	0	0	0	0	0	0	0	0	0	0	0	0
071719	11:56:04	12:02:24	379574	5.0.10.0	5_exp_noRW	62	Rpleas_acq	CS_A	ZHHZ	CPPC	YFFY	JQQJ	LWWL	DXXD	küssen	genießen	träumen	vertrauen	gütig	sonnig	krank	gemein	töten	versagen	gierig	sterben	53pct	acq_USunple_CSunple2_noRW	acq23456_noRW	3	15	0	0	300	300	381	46	0	1	1	blank2r.bmp	0	1	+	0	1	blank2r.bmp	252	1	JQQJ	306	2	gierig	559	0	0	0	0	0	0	0	0	0	0	0	0	0	0	0	0	0	0	0	0	0	0	0	0	0	0	0	0	0	0	0	0	0	0	0	0	0	0	0
071719	11:56:04	12:02:26	381213	5.0.10.0	5_exp_noRW	62	Rpleas_acq	CS_A	ZHHZ	CPPC	YFFY	JQQJ	LWWL	DXXD	küssen	genießen	träumen	vertrauen	gütig	sonnig	krank	gemein	töten	versagen	gierig	sterben	47pct	acq_USunple_CSunple2_noRW	acq23456_noRW	3	16	0	0	300	300	455	46	0	1	1	blank2r.bmp	0	1	+	0	1	blank2r.bmp	252	1	JQQJ	306	3	sterben	559	0	0	0	0	0	0	0	0	0	0	0	0	0	0	0	0	0	0	0	0	0	0	0	0	0	0	0	0	0	0	0	0	0	0	0	0	0	0	0
071719	11:56:04	12:02:28	382999	5.0.10.0	5_exp_noRW	62	Rpleas_acq	CS_A	ZHHZ	CPPC	YFFY	JQQJ	LWWL	DXXD	küssen	genießen	träumen	vertrauen	gütig	sonnig	krank	gemein	töten	versagen	gierig	sterben	47pct	acq_USpleas_CSpleas1_noRW	acq23456_noRW	3	17	0	0	300	300	394	46	0	0	1	blank2r.bmp	0	1	+	0	1	blank2r.bmp	252	1	ZHHZ	306	2	genießen	559	1	FEHLER	986	0	0	0	0	0	0	0	0	0	0	0	0	0	0	0	0	0	0	0	0	0	0	0	0	0	0	0	0	0	0	0	0	0	0	0	0
071719	11:56:04	12:02:29	384385	5.0.10.0	5_exp_noRW	62	Rpleas_acq	CS_A	ZHHZ	CPPC	YFFY	JQQJ	LWWL	DXXD	küssen	genießen	träumen	vertrauen	gütig	sonnig	krank	gemein	töten	versagen	gierig	sterben	47pct	acq_USpleas_CSpleas1_noRW	acq23456_noRW	3	18	0	0	300	300	412	50	0	1	1	blank2r.bmp	0	1	+	0	1	blank2r.bmp	252	1	ZHHZ	306	1	küssen	559	0	0	0	0	0	0	0	0	0	0	0	0	0	0	0	0	0	0	0	0	0	0	0	0	0	0	0	0	0	0	0	0	0	0	0	0	0	0	0
071719	11:56:04	12:02:31	386171	5.0.10.0	5_exp_noRW	62	Rpleas_acq	CS_A	ZHHZ	CPPC	YFFY	JQQJ	LWWL	DXXD	küssen	genießen	träumen	vertrauen	gütig	sonnig	krank	gemein	töten	versagen	gierig	sterben	47pct	acq_USpleas_CSpleas1_noRW	acq23456_noRW	3	19	0	0	300	300	615	50	0	1	1	blank2r.bmp	0	1	+	0	1	blank2r.bmp	252	1	ZHHZ	306	3	träumen	559	0	0	0	0	0	0	0	0	0	0	0	0	0	0	0	0	0	0	0	0	0	0	0	0	0	0	0	0	0	0	0	0	0	0	0	0	0	0	0
071719	11:56:04	12:02:32	387930	5.0.10.0	5_exp_noRW	62	Rpleas_acq	CS_A	ZHHZ	CPPC	YFFY	JQQJ	LWWL	DXXD	küssen	genießen	träumen	vertrauen	gütig	sonnig	krank	gemein	töten	versagen	gierig	sterben	53pct	acq_USpleas_CSunple1_noRW	acq23456_noRW	3	20	0	0	300	300	370	46	0	0	1	blank2r.bmp	0	1	+	0	1	blank2r.bmp	252	1	YFFY	306	3	träumen	559	1	FEHLER	959	0	0	0	0	0	0	0	0	0	0	0	0	0	0	0	0	0	0	0	0	0	0	0	0	0	0	0	0	0	0	0	0	0	0	0	0
071719	11:56:04	12:02:34	389410	5.0.10.0	5_exp_noRW	62	Rpleas_acq	CS_A	ZHHZ	CPPC	YFFY	JQQJ	LWWL	DXXD	küssen	genießen	träumen	vertrauen	gütig	sonnig	krank	gemein	töten	versagen	gierig	sterben	47pct	acq_USpleas_CSpleas1_noRW	acq23456_noRW	3	21	0	0	300	300	509	50	0	1	1	blank2r.bmp	0	1	+	0	1	blank2r.bmp	252	1	ZHHZ	306	3	träumen	559	0	0	0	0	0	0	0	0	0	0	0	0	0	0	0	0	0	0	0	0	0	0	0	0	0	0	0	0	0	0	0	0	0	0	0	0	0	0	0
071719	11:56:04	12:02:36	391049	5.0.10.0	5_exp_noRW	62	Rpleas_acq	CS_A	ZHHZ	CPPC	YFFY	JQQJ	LWWL	DXXD	küssen	genießen	träumen	vertrauen	gütig	sonnig	krank	gemein	töten	versagen	gierig	sterben	47pct	acq_USunple_CSpleas1_noRW	acq23456_noRW	3	22	0	0	300	300	471	46	0	1	1	blank2r.bmp	0	1	+	0	1	blank2r.bmp	252	1	ZHHZ	306	3	töten	559	0	0	0	0	0	0	0	0	0	0	0	0	0	0	0	0	0	0	0	0	0	0	0	0	0	0	0	0	0	0	0	0	0	0	0	0	0	0	0
071719	11:56:04	12:02:37	392862	5.0.10.0	5_exp_noRW	62	Rpleas_acq	CS_A	ZHHZ	CPPC	YFFY	JQQJ	LWWL	DXXD	küssen	genießen	träumen	vertrauen	gütig	sonnig	krank	gemein	töten	versagen	gierig	sterben	53pct	acq_USpleas_CSunple1_noRW	acq23456_noRW	3	23	0	0	300	300	649	50	0	1	1	blank2r.bmp	0	1	+	0	1	blank2r.bmp	252	1	YFFY	306	2	genießen	559	0	0	0	0	0	0	0	0	0	0	0	0	0	0	0	0	0	0	0	0	0	0	0	0	0	0	0	0	0	0	0	0	0	0	0	0	0	0	0
071719	11:56:04	12:02:39	394474	5.0.10.0	5_exp_noRW	62	Rpleas_acq	CS_A	ZHHZ	CPPC	YFFY	JQQJ	LWWL	DXXD	küssen	genießen	träumen	vertrauen	gütig	sonnig	krank	gemein	töten	versagen	gierig	sterben	53pct	acq_USunple_CSunple2_noRW	acq23456_noRW	3	24	0	0	300	300	430	46	0	1	1	blank2r.bmp	0	1	+	0	1	blank2r.bmp	252	1	JQQJ	306	3	sterben	559	0	0	0	0	0	0	0	0	0	0	0	0	0	0	0	0	0	0	0	0	0	0	0	0	0	0	0	0	0	0	0	0	0	0	0	0	0	0	0
071719	11:56:04	12:02:41	396087	5.0.10.0	5_exp_noRW	62	Rpleas_acq	CS_A	ZHHZ	CPPC	YFFY	JQQJ	LWWL	DXXD	küssen	genießen	träumen	vertrauen	gütig	sonnig	krank	gemein	töten	versagen	gierig	sterben	47pct	acq_USunple_CSpleas2_noRW	acq23456_noRW	3	25	0	0	300	300	436	46	0	1	1	blank2r.bmp	0	1	+	0	1	blank2r.bmp	252	1	CPPC	306	1	versagen	559	0	0	0	0	0	0	0	0	0	0	0	0	0	0	0	0	0	0	0	0	0	0	0	0	0	0	0	0	0	0	0	0	0	0	0	0	0	0	0
071719	11:56:04	12:02:42	397793	5.0.10.0	5_exp_noRW	62	Rpleas_acq	CS_A	ZHHZ	CPPC	YFFY	JQQJ	LWWL	DXXD	küssen	genießen	träumen	vertrauen	gütig	sonnig	krank	gemein	töten	versagen	gierig	sterben	47pct	acq_USpleas_CSpleas2_noRW	acq23456_noRW	3	26	0	0	300	300	519	50	0	1	1	blank2r.bmp	0	1	+	0	1	blank2r.bmp	252	1	CPPC	306	2	gütig	559	0	0	0	0	0	0	0	0	0	0	0	0	0	0	0	0	0	0	0	0	0	0	0	0	0	0	0	0	0	0	0	0	0	0	0	0	0	0	0
071719	11:56:04	12:02:44	399739	5.0.10.0	5_exp_noRW	62	Rpleas_acq	CS_A	ZHHZ	CPPC	YFFY	JQQJ	LWWL	DXXD	küssen	genießen	träumen	vertrauen	gütig	sonnig	krank	gemein	töten	versagen	gierig	sterben	47pct	acq_USunple_CSunple2_noRW	acq23456_noRW	3	27	0	0	300	300	774	46	0	1	1	blank2r.bmp	0	1	+	0	1	blank2r.bmp	252	1	JQQJ	306	2	gierig	559	0	0	0	0	0	0	0	0	0	0	0	0	0	0	0	0	0	0	0	0	0	0	0	0	0	0	0	0	0	0	0	0	0	0	0	0	0	0	0
071719	11:56:04	12:02:46	401338	5.0.10.0	5_exp_noRW	62	Rpleas_acq	CS_A	ZHHZ	CPPC	YFFY	JQQJ	LWWL	DXXD	küssen	genießen	träumen	vertrauen	gütig	sonnig	krank	gemein	töten	versagen	gierig	sterben	47pct	acq_USunple_CSunple1_noRW	acq23456_noRW	3	28	0	0	300	300	437	46	0	1	1	blank2r.bmp	0	1	+	0	1	blank2r.bmp	252	1	YFFY	306	1	krank	559	0	0	0	0	0	0	0	0	0	0	0	0	0	0	0	0	0	0	0	0	0	0	0	0	0	0	0	0	0	0	0	0	0	0	0	0	0	0	0
071719	11:56:04	12:02:48	402977	5.0.10.0	5_exp_noRW	62	Rpleas_acq	CS_A	ZHHZ	CPPC	YFFY	JQQJ	LWWL	DXXD	küssen	genießen	träumen	vertrauen	gütig	sonnig	krank	gemein	töten	versagen	gierig	sterben	47pct	acq_USunple_CSunple2_noRW	acq23456_noRW	3	29	0	0	300	300	460	46	0	1	1	blank2r.bmp	0	1	+	0	1	blank2r.bmp	252	1	JQQJ	306	1	versagen	559	0	0	0	0	0	0	0	0	0	0	0	0	0	0	0	0	0	0	0	0	0	0	0	0	0	0	0	0	0	0	0	0	0	0	0	0	0	0	0
071719	11:56:04	12:02:49	404550	5.0.10.0	5_exp_noRW	62	Rpleas_acq	CS_A	ZHHZ	CPPC	YFFY	JQQJ	LWWL	DXXD	küssen	genießen	träumen	vertrauen	gütig	sonnig	krank	gemein	töten	versagen	gierig	sterben	53pct	acq_USpleas_CSpleas1_noRW	acq23456_noRW	3	30	0	0	300	300	409	50	0	1	1	blank2r.bmp	0	1	+	0	1	blank2r.bmp	252	1	ZHHZ	306	2	genießen	559	0	0	0	0	0	0	0	0	0	0	0	0	0	0	0	0	0	0	0	0	0	0	0	0	0	0	0	0	0	0	0	0	0	0	0	0	0	0	0
071719	11:56:04	12:02:51	406216	5.0.10.0	5_exp_noRW	62	Rpleas_acq	CS_A	ZHHZ	CPPC	YFFY	JQQJ	LWWL	DXXD	küssen	genießen	träumen	vertrauen	gütig	sonnig	krank	gemein	töten	versagen	gierig	sterben	53pct	acq_USpleas_CSpleas2_noRW	acq23456_noRW	3	31	0	0	300	300	491	50	0	1	1	blank2r.bmp	0	1	+	0	1	blank2r.bmp	252	1	CPPC	306	3	sonnig	559	0	0	0	0	0	0	0	0	0	0	0	0	0	0	0	0	0	0	0	0	0	0	0	0	0	0	0	0	0	0	0	0	0	0	0	0	0	0	0
071719	11:56:04	12:02:52	407909	5.0.10.0	5_exp_noRW	62	Rpleas_acq	CS_A	ZHHZ	CPPC	YFFY	JQQJ	LWWL	DXXD	küssen	genießen	träumen	vertrauen	gütig	sonnig	krank	gemein	töten	versagen	gierig	sterben	53pct	acq_USpleas_CSpleas2_noRW	acq23456_noRW	3	32	0	0	300	300	301	46	0	0	1	blank2r.bmp	0	1	+	0	1	blank2r.bmp	252	1	CPPC	306	1	vertrauen	559	1	FEHLER	892	0	0	0	0	0	0	0	0	0	0	0	0	0	0	0	0	0	0	0	0	0	0	0	0	0	0	0	0	0	0	0	0	0	0	0	0
071719	11:56:04	12:02:54	409535	5.0.10.0	5_exp_noRW	62	Rpleas_acq	CS_A	ZHHZ	CPPC	YFFY	JQQJ	LWWL	DXXD	küssen	genießen	träumen	vertrauen	gütig	sonnig	krank	gemein	töten	versagen	gierig	sterben	53pct	acq_USunple_CSunple1_noRW	acq23456_noRW	3	33	0	0	300	300	652	46	0	1	1	blank2r.bmp	0	1	+	0	1	blank2r.bmp	252	1	YFFY	306	2	gemein	559	0	0	0	0	0	0	0	0	0	0	0	0	0	0	0	0	0	0	0	0	0	0	0	0	0	0	0	0	0	0	0	0	0	0	0	0	0	0	0
071719	11:56:04	12:02:56	411134	5.0.10.0	5_exp_noRW	62	Rpleas_acq	CS_A	ZHHZ	CPPC	YFFY	JQQJ	LWWL	DXXD	küssen	genießen	träumen	vertrauen	gütig	sonnig	krank	gemein	töten	versagen	gierig	sterben	53pct	acq_USunple_CSunple1_noRW	acq23456_noRW	3	34	0	0	300	300	426	46	0	1	1	blank2r.bmp	0	1	+	0	1	blank2r.bmp	252	1	YFFY	306	3	töten	559	0	0	0	0	0	0	0	0	0	0	0	0	0	0	0	0	0	0	0	0	0	0	0	0	0	0	0	0	0	0	0	0	0	0	0	0	0	0	0
071719	11:56:04	12:02:57	412867	5.0.10.0	5_exp_noRW	62	Rpleas_acq	CS_A	ZHHZ	CPPC	YFFY	JQQJ	LWWL	DXXD	küssen	genießen	träumen	vertrauen	gütig	sonnig	krank	gemein	töten	versagen	gierig	sterben	47pct	acq_USunple_CSunple1_noRW	acq23456_noRW	3	35	0	0	300	300	550	46	0	1	1	blank2r.bmp	0	1	+	0	1	blank2r.bmp	252	1	YFFY	306	2	gemein	559	0	0	0	0	0	0	0	0	0	0	0	0	0	0	0	0	0	0	0	0	0	0	0	0	0	0	0	0	0	0	0	0	0	0	0	0	0	0	0
071719	11:56:04	12:02:59	414839	5.0.10.0	5_exp_noRW	62	Rpleas_acq	CS_A	ZHHZ	CPPC	YFFY	JQQJ	LWWL	DXXD	küssen	genießen	träumen	vertrauen	gütig	sonnig	krank	gemein	töten	versagen	gierig	sterben	53pct	acq_USpleas_CSpleas2_noRW	acq23456_noRW	3	36	0	0	300	300	797	50	0	1	1	blank2r.bmp	0	1	+	0	1	blank2r.bmp	252	1	CPPC	306	2	gütig	559	0	0	0	0	0	0	0	0	0	0	0	0	0	0	0	0	0	0	0	0	0	0	0	0	0	0	0	0	0	0	0	0	0	0	0	0	0	0	0
071719	11:56:04	12:03:02	416998	5.0.10.0	5_exp_noRW	62	Rpleas_acq	CS_A	ZHHZ	CPPC	YFFY	JQQJ	LWWL	DXXD	küssen	genießen	träumen	vertrauen	gütig	sonnig	krank	gemein	töten	versagen	gierig	sterben	47pct	acq_USunple_CSunple2_noRW	acq23456_noRW	3	37	0	0	300	300	983	46	0	1	1	blank2r.bmp	0	1	+	0	1	blank2r.bmp	252	1	JQQJ	306	2	gierig	559	0	0	0	0	0	0	0	0	0	0	0	0	0	0	0	0	0	0	0	0	0	0	0	0	0	0	0	0	0	0	0	0	0	0	0	0	0	0	0
071719	11:56:04	12:03:03	418637	5.0.10.0	5_exp_noRW	62	Rpleas_acq	CS_A	ZHHZ	CPPC	YFFY	JQQJ	LWWL	DXXD	küssen	genießen	träumen	vertrauen	gütig	sonnig	krank	gemein	töten	versagen	gierig	sterben	53pct	acq_USpleas_CSpleas1_noRW	acq23456_noRW	3	38	0	0	300	300	454	50	0	1	1	blank2r.bmp	0	1	+	0	1	blank2r.bmp	252	1	ZHHZ	306	1	küssen	559	0	0	0	0	0	0	0	0	0	0	0	0	0	0	0	0	0	0	0	0	0	0	0	0	0	0	0	0	0	0	0	0	0	0	0	0	0	0	0
071719	11:56:04	12:03:05	420303	5.0.10.0	5_exp_noRW	62	Rpleas_acq	CS_A	ZHHZ	CPPC	YFFY	JQQJ	LWWL	DXXD	küssen	genießen	träumen	vertrauen	gütig	sonnig	krank	gemein	töten	versagen	gierig	sterben	53pct	acq_USpleas_CSunple2_noRW	acq23456_noRW	3	39	0	0	300	300	483	50	0	1	1	blank2r.bmp	0	1	+	0	1	blank2r.bmp	252	1	JQQJ	306	3	sonnig	559	0	0	0	0	0	0	0	0	0	0	0	0	0	0	0	0	0	0	0	0	0	0	0	0	0	0	0	0	0	0	0	0	0	0	0	0	0	0	0
071719	11:56:04	12:03:06	421903	5.0.10.0	5_exp_noRW	62	Rpleas_acq	CS_A	ZHHZ	CPPC	YFFY	JQQJ	LWWL	DXXD	küssen	genießen	träumen	vertrauen	gütig	sonnig	krank	gemein	töten	versagen	gierig	sterben	47pct	acq_USpleas_CSpleas1_noRW	acq23456_noRW	3	40	0	0	300	300	415	50	0	1	1	blank2r.bmp	0	1	+	0	1	blank2r.bmp	252	1	ZHHZ	306	3	träumen	559	0	0	0	0	0	0	0	0	0	0	0	0	0	0	0	0	0	0	0	0	0	0	0	0	0	0	0	0	0	0	0	0	0	0	0	0	0	0	0
071719	11:56:04	12:03:08	423449	5.0.10.0	5_exp_noRW	62	Rpleas_acq	CS_A	ZHHZ	CPPC	YFFY	JQQJ	LWWL	DXXD	küssen	genießen	träumen	vertrauen	gütig	sonnig	krank	gemein	töten	versagen	gierig	sterben	53pct	acq_USunple_CSpleas2_noRW	acq23456_noRW	3	41	0	0	300	300	383	46	0	1	1	blank2r.bmp	0	1	+	0	1	blank2r.bmp	252	1	CPPC	306	2	gierig	559	0	0	0	0	0	0	0	0	0	0	0	0	0	0	0	0	0	0	0	0	0	0	0	0	0	0	0	0	0	0	0	0	0	0	0	0	0	0	0
071719	11:56:04	12:03:10	425181	5.0.10.0	5_exp_noRW	62	Rpleas_acq	CS_A	ZHHZ	CPPC	YFFY	JQQJ	LWWL	DXXD	küssen	genießen	träumen	vertrauen	gütig	sonnig	krank	gemein	töten	versagen	gierig	sterben	53pct	acq_USpleas_CSpleas1_noRW	acq23456_noRW	3	42	0	0	300	300	550	50	0	1	1	blank2r.bmp	0	1	+	0	1	blank2r.bmp	252	1	ZHHZ	306	2	genießen	559	0	0	0	0	0	0	0	0	0	0	0	0	0	0	0	0	0	0	0	0	0	0	0	0	0	0	0	0	0	0	0	0	0	0	0	0	0	0	0
071719	11:56:04	12:03:12	426967	5.0.10.0	5_exp_noRW	62	Rpleas_acq	CS_A	ZHHZ	CPPC	YFFY	JQQJ	LWWL	DXXD	küssen	genießen	träumen	vertrauen	gütig	sonnig	krank	gemein	töten	versagen	gierig	sterben	53pct	acq_USpleas_CSunple1_noRW	acq23456_noRW	3	43	0	0	300	300	613	50	0	1	1	blank2r.bmp	0	1	+	0	1	blank2r.bmp	252	1	YFFY	306	3	träumen	559	0	0	0	0	0	0	0	0	0	0	0	0	0	0	0	0	0	0	0	0	0	0	0	0	0	0	0	0	0	0	0	0	0	0	0	0	0	0	0
071719	11:56:04	12:03:13	428620	5.0.10.0	5_exp_noRW	62	Rpleas_acq	CS_A	ZHHZ	CPPC	YFFY	JQQJ	LWWL	DXXD	küssen	genießen	träumen	vertrauen	gütig	sonnig	krank	gemein	töten	versagen	gierig	sterben	53pct	acq_USpleas_CSpleas1_noRW	acq23456_noRW	3	44	0	0	300	300	467	50	0	1	1	blank2r.bmp	0	1	+	0	1	blank2r.bmp	252	1	ZHHZ	306	1	küssen	559	0	0	0	0	0	0	0	0	0	0	0	0	0	0	0	0	0	0	0	0	0	0	0	0	0	0	0	0	0	0	0	0	0	0	0	0	0	0	0
071719	11:56:04	12:03:15	430259	5.0.10.0	5_exp_noRW	62	Rpleas_acq	CS_A	ZHHZ	CPPC	YFFY	JQQJ	LWWL	DXXD	küssen	genießen	träumen	vertrauen	gütig	sonnig	krank	gemein	töten	versagen	gierig	sterben	53pct	acq_USpleas_CSpleas1_noRW	acq23456_noRW	3	45	0	0	300	300	454	50	0	1	1	blank2r.bmp	0	1	+	0	1	blank2r.bmp	252	1	ZHHZ	306	1	küssen	559	0	0	0	0	0	0	0	0	0	0	0	0	0	0	0	0	0	0	0	0	0	0	0	0	0	0	0	0	0	0	0	0	0	0	0	0	0	0	0
071719	11:56:04	12:03:17	431939	5.0.10.0	5_exp_noRW	62	Rpleas_acq	CS_A	ZHHZ	CPPC	YFFY	JQQJ	LWWL	DXXD	küssen	genießen	träumen	vertrauen	gütig	sonnig	krank	gemein	töten	versagen	gierig	sterben	47pct	acq_USpleas_CSpleas2_noRW	acq23456_noRW	3	46	0	0	300	300	504	50	0	1	1	blank2r.bmp	0	1	+	0	1	blank2r.bmp	252	1	CPPC	306	1	vertrauen	559	0	0	0	0	0	0	0	0	0	0	0	0	0	0	0	0	0	0	0	0	0	0	0	0	0	0	0	0	0	0	0	0	0	0	0	0	0	0	0
071719	11:56:04	12:03:18	433511	5.0.10.0	5_exp_noRW	62	Rpleas_acq	CS_A	ZHHZ	CPPC	YFFY	JQQJ	LWWL	DXXD	küssen	genießen	träumen	vertrauen	gütig	sonnig	krank	gemein	töten	versagen	gierig	sterben	53pct	acq_USpleas_CSpleas2_noRW	acq23456_noRW	3	47	0	0	300	300	388	50	0	1	1	blank2r.bmp	0	1	+	0	1	blank2r.bmp	252	1	CPPC	306	3	sonnig	559	0	0	0	0	0	0	0	0	0	0	0	0	0	0	0	0	0	0	0	0	0	0	0	0	0	0	0	0	0	0	0	0	0	0	0	0	0	0	0
071719	11:56:04	12:03:20	435044	5.0.10.0	5_exp_noRW	62	Rpleas_acq	CS_A	ZHHZ	CPPC	YFFY	JQQJ	LWWL	DXXD	küssen	genießen	träumen	vertrauen	gütig	sonnig	krank	gemein	töten	versagen	gierig	sterben	53pct	acq_USpleas_CSpleas1_noRW	acq23456_noRW	3	48	0	0	300	300	371	50	0	1	1	blank2r.bmp	0	1	+	0	1	blank2r.bmp	252	1	ZHHZ	306	3	träumen	559	0	0	0	0	0	0	0	0	0	0	0	0	0	0	0	0	0	0	0	0	0	0	0	0	0	0	0	0	0	0	0	0	0	0	0	0	0	0	0
071719	11:56:04	12:03:21	436670	5.0.10.0	5_exp_noRW	62	Rpleas_acq	CS_A	ZHHZ	CPPC	YFFY	JQQJ	LWWL	DXXD	küssen	genießen	träumen	vertrauen	gütig	sonnig	krank	gemein	töten	versagen	gierig	sterben	53pct	acq_USunple_CSunple1_noRW	acq23456_noRW	3	49	0	0	300	300	443	46	0	1	1	blank2r.bmp	0	1	+	0	1	blank2r.bmp	252	1	YFFY	306	3	töten	559	0	0	0	0	0	0	0	0	0	0	0	0	0	0	0	0	0	0	0	0	0	0	0	0	0	0	0	0	0	0	0	0	0	0	0	0	0	0	0
071719	11:56:04	12:03:23	438682	5.0.10.0	5_exp_noRW	62	Rpleas_acq	CS_A	ZHHZ	CPPC	YFFY	JQQJ	LWWL	DXXD	küssen	genießen	träumen	vertrauen	gütig	sonnig	krank	gemein	töten	versagen	gierig	sterben	53pct	acq_USpleas_CSpleas2_noRW	acq23456_noRW	3	50	0	0	300	300	831	50	0	1	1	blank2r.bmp	0	1	+	0	1	blank2r.bmp	252	1	CPPC	306	2	gütig	559	0	0	0	0	0	0	0	0	0	0	0	0	0	0	0	0	0	0	0	0	0	0	0	0	0	0	0	0	0	0	0	0	0	0	0	0	0	0	0
071719	11:56:04	12:03:25	440335	5.0.10.0	5_exp_noRW	62	Rpleas_acq	CS_A	ZHHZ	CPPC	YFFY	JQQJ	LWWL	DXXD	küssen	genießen	träumen	vertrauen	gütig	sonnig	krank	gemein	töten	versagen	gierig	sterben	47pct	acq_USunple_CSunple2_noRW	acq23456_noRW	3	51	0	0	300	300	466	46	0	1	1	blank2r.bmp	0	1	+	0	1	blank2r.bmp	252	1	JQQJ	306	3	sterben	559	0	0	0	0	0	0	0	0	0	0	0	0	0	0	0	0	0	0	0	0	0	0	0	0	0	0	0	0	0	0	0	0	0	0	0	0	0	0	0
071719	11:56:04	12:03:27	442028	5.0.10.0	5_exp_noRW	62	Rpleas_acq	CS_A	ZHHZ	CPPC	YFFY	JQQJ	LWWL	DXXD	küssen	genießen	träumen	vertrauen	gütig	sonnig	krank	gemein	töten	versagen	gierig	sterben	47pct	acq_USunple_CSunple1_noRW	acq23456_noRW	3	52	0	0	300	300	521	46	0	1	1	blank2r.bmp	0	1	+	0	1	blank2r.bmp	252	1	YFFY	306	1	krank	559	0	0	0	0	0	0	0	0	0	0	0	0	0	0	0	0	0	0	0	0	0	0	0	0	0	0	0	0	0	0	0	0	0	0	0	0	0	0	0
071719	11:56:04	12:03:28	443654	5.0.10.0	5_exp_noRW	62	Rpleas_acq	CS_A	ZHHZ	CPPC	YFFY	JQQJ	LWWL	DXXD	küssen	genießen	träumen	vertrauen	gütig	sonnig	krank	gemein	töten	versagen	gierig	sterben	47pct	acq_USunple_CSunple2_noRW	acq23456_noRW	3	53	0	0	300	300	464	46	0	1	1	blank2r.bmp	0	1	+	0	1	blank2r.bmp	252	1	JQQJ	306	1	versagen	559	0	0	0	0	0	0	0	0	0	0	0	0	0	0	0	0	0	0	0	0	0	0	0	0	0	0	0	0	0	0	0	0	0	0	0	0	0	0	0
071719	11:56:04	12:03:30	445293	5.0.10.0	5_exp_noRW	62	Rpleas_acq	CS_A	ZHHZ	CPPC	YFFY	JQQJ	LWWL	DXXD	küssen	genießen	träumen	vertrauen	gütig	sonnig	krank	gemein	töten	versagen	gierig	sterben	53pct	acq_USunple_CSunple2_noRW	acq23456_noRW	3	54	0	0	300	300	462	46	0	1	1	blank2r.bmp	0	1	+	0	1	blank2r.bmp	252	1	JQQJ	306	3	sterben	559	0	0	0	0	0	0	0	0	0	0	0	0	0	0	0	0	0	0	0	0	0	0	0	0	0	0	0	0	0	0	0	0	0	0	0	0	0	0	0
071719	11:56:04	12:03:31	446906	5.0.10.0	5_exp_noRW	62	Rpleas_acq	CS_A	ZHHZ	CPPC	YFFY	JQQJ	LWWL	DXXD	küssen	genießen	träumen	vertrauen	gütig	sonnig	krank	gemein	töten	versagen	gierig	sterben	47pct	acq_USunple_CSpleas1_noRW	acq23456_noRW	3	55	0	0	300	300	434	46	0	1	1	blank2r.bmp	0	1	+	0	1	blank2r.bmp	252	1	ZHHZ	306	1	krank	559	0	0	0	0	0	0	0	0	0	0	0	0	0	0	0	0	0	0	0	0	0	0	0	0	0	0	0	0	0	0	0	0	0	0	0	0	0	0	0
071719	11:56:04	12:03:34	449118	5.0.10.0	5_exp_noRW	62	Rpleas_acq	CS_A	ZHHZ	CPPC	YFFY	JQQJ	LWWL	DXXD	küssen	genießen	träumen	vertrauen	gütig	sonnig	krank	gemein	töten	versagen	gierig	sterben	47pct	acq_USunple_CSunple1_noRW	acq23456_noRW	3	56	0	0	300	300	1026	46	0	1	1	blank2r.bmp	0	1	+	0	1	blank2r.bmp	252	1	YFFY	306	2	gemein	559	0	0	0	0	0	0	0	0	0	0	0	0	0	0	0	0	0	0	0	0	0	0	0	0	0	0	0	0	0	0	0	0	0	0	0	0	0	0	0
071719	11:56:04	12:03:35	450851	5.0.10.0	5_exp_noRW	62	Rpleas_acq	CS_A	ZHHZ	CPPC	YFFY	JQQJ	LWWL	DXXD	küssen	genießen	träumen	vertrauen	gütig	sonnig	krank	gemein	töten	versagen	gierig	sterben	53pct	acq_USunple_CSunple2_noRW	acq23456_noRW	3	57	0	0	300	300	566	46	0	1	1	blank2r.bmp	0	1	+	0	1	blank2r.bmp	252	1	JQQJ	306	1	versagen	559	0	0	0	0	0	0	0	0	0	0	0	0	0	0	0	0	0	0	0	0	0	0	0	0	0	0	0	0	0	0	0	0	0	0	0	0	0	0	0
071719	11:56:04	12:03:37	452770	5.0.10.0	5_exp_noRW	62	Rpleas_acq	CS_A	ZHHZ	CPPC	YFFY	JQQJ	LWWL	DXXD	küssen	genießen	träumen	vertrauen	gütig	sonnig	krank	gemein	töten	versagen	gierig	sterben	53pct	acq_USpleas_CSunple2_noRW	acq23456_noRW	3	58	0	0	300	300	738	50	0	1	1	blank2r.bmp	0	1	+	0	1	blank2r.bmp	252	1	JQQJ	306	2	gütig	559	0	0	0	0	0	0	0	0	0	0	0	0	0	0	0	0	0	0	0	0	0	0	0	0	0	0	0	0	0	0	0	0	0	0	0	0	0	0	0
071719	11:56:04	12:03:39	454369	5.0.10.0	5_exp_noRW	62	Rpleas_acq	CS_A	ZHHZ	CPPC	YFFY	JQQJ	LWWL	DXXD	küssen	genießen	träumen	vertrauen	gütig	sonnig	krank	gemein	töten	versagen	gierig	sterben	47pct	acq_USpleas_CSpleas2_noRW	acq23456_noRW	3	59	0	0	300	300	416	50	0	1	1	blank2r.bmp	0	1	+	0	1	blank2r.bmp	252	1	CPPC	306	1	vertrauen	559	0	0	0	0	0	0	0	0	0	0	0	0	0	0	0	0	0	0	0	0	0	0	0	0	0	0	0	0	0	0	0	0	0	0	0	0	0	0	0
071719	11:56:04	12:03:41	456008	5.0.10.0	5_exp_noRW	62	Rpleas_acq	CS_A	ZHHZ	CPPC	YFFY	JQQJ	LWWL	DXXD	küssen	genießen	träumen	vertrauen	gütig	sonnig	krank	gemein	töten	versagen	gierig	sterben	47pct	acq_USunple_CSunple1_noRW	acq23456_noRW	3	60	0	0	300	300	469	46	0	1	1	blank2r.bmp	0	1	+	0	1	blank2r.bmp	252	1	YFFY	306	1	krank	559	0	0	0	0	0	0	0	0	0	0	0	0	0	0	0	0	0	0	0	0	0	0	0	0	0	0	0	0	0	0	0	0	0	0	0	0	0	0	0
071719	11:56:04	12:03:42	457621	5.0.10.0	5_exp_noRW	62	Rpleas_acq	CS_A	ZHHZ	CPPC	YFFY	JQQJ	LWWL	DXXD	küssen	genießen	träumen	vertrauen	gütig	sonnig	krank	gemein	töten	versagen	gierig	sterben	47pct	acq_USpleas_CSpleas1_noRW	acq23456_noRW	3	61	0	0	300	300	442	50	0	1	1	blank2r.bmp	0	1	+	0	1	blank2r.bmp	252	1	ZHHZ	306	2	genießen	559	0	0	0	0	0	0	0	0	0	0	0	0	0	0	0	0	0	0	0	0	0	0	0	0	0	0	0	0	0	0	0	0	0	0	0	0	0	0	0
071719	11:56:04	12:03:44	459314	5.0.10.0	5_exp_noRW	62	Rpleas_acq	CS_A	ZHHZ	CPPC	YFFY	JQQJ	LWWL	DXXD	küssen	genießen	träumen	vertrauen	gütig	sonnig	krank	gemein	töten	versagen	gierig	sterben	53pct	acq_USunple_CSunple2_noRW	acq23456_noRW	3	62	0	0	300	300	508	46	0	1	1	blank2r.bmp	0	1	+	0	1	blank2r.bmp	252	1	JQQJ	306	2	gierig	559	0	0	0	0	0	0	0	0	0	0	0	0	0	0	0	0	0	0	0	0	0	0	0	0	0	0	0	0	0	0	0	0	0	0	0	0	0	0	0
071719	11:56:04	12:03:45	460860	5.0.10.0	5_exp_noRW	62	Rpleas_acq	CS_A	ZHHZ	CPPC	YFFY	JQQJ	LWWL	DXXD	küssen	genießen	träumen	vertrauen	gütig	sonnig	krank	gemein	töten	versagen	gierig	sterben	53pct	acq_USunple_CSunple2_noRW	acq23456_noRW	3	63	0	0	300	300	373	46	0	1	1	blank2r.bmp	0	1	+	0	1	blank2r.bmp	252	1	JQQJ	306	3	sterben	559	0	0	0	0	0	0	0	0	0	0	0	0	0	0	0	0	0	0	0	0	0	0	0	0	0	0	0	0	0	0	0	0	0	0	0	0	0	0	0
071719	11:56:04	12:03:47	462446	5.0.10.0	5_exp_noRW	62	Rpleas_acq	CS_A	ZHHZ	CPPC	YFFY	JQQJ	LWWL	DXXD	küssen	genießen	träumen	vertrauen	gütig	sonnig	krank	gemein	töten	versagen	gierig	sterben	53pct	acq_USunple_CSunple2_noRW	acq23456_noRW	3	64	0	0	300	300	413	46	0	1	1	blank2r.bmp	0	1	+	0	1	blank2r.bmp	252	1	JQQJ	306	2	gierig	559	0	0	0	0	0	0	0	0	0	0	0	0	0	0	0	0	0	0	0	0	0	0	0	0	0	0	0	0	0	0	0	0	0	0	0	0	0	0	0
071719	11:56:04	12:03:49	464018	5.0.10.0	5_exp_noRW	62	Rpleas_acq	CS_A	ZHHZ	CPPC	YFFY	JQQJ	LWWL	DXXD	küssen	genießen	träumen	vertrauen	gütig	sonnig	krank	gemein	töten	versagen	gierig	sterben	53pct	acq_USunple_CSpleas1_noRW	acq23456_noRW	3	65	0	0	300	300	409	46	0	1	1	blank2r.bmp	0	1	+	0	1	blank2r.bmp	252	1	ZHHZ	306	2	gemein	559	0	0	0	0	0	0	0	0	0	0	0	0	0	0	0	0	0	0	0	0	0	0	0	0	0	0	0	0	0	0	0	0	0	0	0	0	0	0	0
071719	11:56:04	12:03:50	465658	5.0.10.0	5_exp_noRW	62	Rpleas_acq	CS_A	ZHHZ	CPPC	YFFY	JQQJ	LWWL	DXXD	küssen	genießen	träumen	vertrauen	gütig	sonnig	krank	gemein	töten	versagen	gierig	sterben	47pct	acq_USunple_CSunple1_noRW	acq23456_noRW	3	66	0	0	300	300	452	46	0	1	1	blank2r.bmp	0	1	+	0	1	blank2r.bmp	252	1	YFFY	306	3	töten	559	0	0	0	0	0	0	0	0	0	0	0	0	0	0	0	0	0	0	0	0	0	0	0	0	0	0	0	0	0	0	0	0	0	0	0	0	0	0	0
071719	11:56:04	12:03:52	467244	5.0.10.0	5_exp_noRW	62	Rpleas_acq	CS_A	ZHHZ	CPPC	YFFY	JQQJ	LWWL	DXXD	küssen	genießen	träumen	vertrauen	gütig	sonnig	krank	gemein	töten	versagen	gierig	sterben	53pct	acq_USpleas_CSpleas2_noRW	acq23456_noRW	3	67	0	0	300	300	419	50	0	1	1	blank2r.bmp	0	1	+	0	1	blank2r.bmp	252	1	CPPC	306	3	sonnig	559	0	0	0	0	0	0	0	0	0	0	0	0	0	0	0	0	0	0	0	0	0	0	0	0	0	0	0	0	0	0	0	0	0	0	0	0	0	0	0
071719	11:56:04	12:03:53	468910	5.0.10.0	5_exp_noRW	62	Rpleas_acq	CS_A	ZHHZ	CPPC	YFFY	JQQJ	LWWL	DXXD	küssen	genießen	träumen	vertrauen	gütig	sonnig	krank	gemein	töten	versagen	gierig	sterben	47pct	acq_USpleas_CSunple1_noRW	acq23456_noRW	3	68	0	0	300	300	484	50	0	1	1	blank2r.bmp	0	1	+	0	1	blank2r.bmp	252	1	YFFY	306	1	küssen	559	0	0	0	0	0	0	0	0	0	0	0	0	0	0	0	0	0	0	0	0	0	0	0	0	0	0	0	0	0	0	0	0	0	0	0	0	0	0	0
071719	11:56:04	12:03:55	470589	5.0.10.0	5_exp_noRW	62	Rpleas_acq	CS_A	ZHHZ	CPPC	YFFY	JQQJ	LWWL	DXXD	küssen	genießen	träumen	vertrauen	gütig	sonnig	krank	gemein	töten	versagen	gierig	sterben	53pct	acq_USunple_CSunple1_noRW	acq23456_noRW	3	69	0	0	300	300	506	46	0	1	1	blank2r.bmp	0	1	+	0	1	blank2r.bmp	252	1	YFFY	306	1	krank	559	0	0	0	0	0	0	0	0	0	0	0	0	0	0	0	0	0	0	0	0	0	0	0	0	0	0	0	0	0	0	0	0	0	0	0	0	0	0	0
071719	11:56:04	12:03:57	472282	5.0.10.0	5_exp_noRW	62	Rpleas_acq	CS_A	ZHHZ	CPPC	YFFY	JQQJ	LWWL	DXXD	küssen	genießen	träumen	vertrauen	gütig	sonnig	krank	gemein	töten	versagen	gierig	sterben	53pct	acq_USunple_CSunple1_noRW	acq23456_noRW	3	70	0	0	300	300	521	46	0	1	1	blank2r.bmp	0	1	+	0	1	blank2r.bmp	252	1	YFFY	306	2	gemein	559	0	0	0	0	0	0	0	0	0	0	0	0	0	0	0	0	0	0	0	0	0	0	0	0	0	0	0	0	0	0	0	0	0	0	0	0	0	0	0
071719	11:56:04	12:03:59	473948	5.0.10.0	5_exp_noRW	62	Rpleas_acq	CS_A	ZHHZ	CPPC	YFFY	JQQJ	LWWL	DXXD	küssen	genießen	träumen	vertrauen	gütig	sonnig	krank	gemein	töten	versagen	gierig	sterben	53pct	acq_USunple_CSpleas2_noRW	acq23456_noRW	3	71	0	0	300	300	491	46	0	1	1	blank2r.bmp	0	1	+	0	1	blank2r.bmp	252	1	CPPC	306	3	sterben	559	0	0	0	0	0	0	0	0	0	0	0	0	0	0	0	0	0	0	0	0	0	0	0	0	0	0	0	0	0	0	0	0	0	0	0	0	0	0	0
071719	11:56:04	12:04:00	475614	5.0.10.0	5_exp_noRW	62	Rpleas_acq	CS_A	ZHHZ	CPPC	YFFY	JQQJ	LWWL	DXXD	küssen	genießen	träumen	vertrauen	gütig	sonnig	krank	gemein	töten	versagen	gierig	sterben	53pct	acq_USpleas_CSpleas1_noRW	acq23456_noRW	3	72	0	0	300	300	502	50	0	1	1	blank2r.bmp	0	1	+	0	1	blank2r.bmp	252	1	ZHHZ	306	2	genießen	559	0	0	0	0	0	0	0	0	0	0	0	0	0	0	0	0	0	0	0	0	0	0	0	0	0	0	0	0	0	0	0	0	0	0	0	0	0	0	0
071719	11:56:04	12:04:02	477173	5.0.10.0	5_exp_noRW	62	Rpleas_acq	CS_A	ZHHZ	CPPC	YFFY	JQQJ	LWWL	DXXD	küssen	genießen	träumen	vertrauen	gütig	sonnig	krank	gemein	töten	versagen	gierig	sterben	53pct	acq_USpleas_CSpleas1_noRW	acq23456_noRW	3	73	0	0	300	300	373	50	0	1	1	blank2r.bmp	0	1	+	0	1	blank2r.bmp	252	1	ZHHZ	306	3	träumen	559	0	0	0	0	0	0	0	0	0	0	0	0	0	0	0	0	0	0	0	0	0	0	0	0	0	0	0	0	0	0	0	0	0	0	0	0	0	0	0
071719	11:56:04	12:04:03	478786	5.0.10.0	5_exp_noRW	62	Rpleas_acq	CS_A	ZHHZ	CPPC	YFFY	JQQJ	LWWL	DXXD	küssen	genießen	träumen	vertrauen	gütig	sonnig	krank	gemein	töten	versagen	gierig	sterben	47pct	acq_USpleas_CSunple2_noRW	acq23456_noRW	3	74	0	0	300	300	440	50	0	1	1	blank2r.bmp	0	1	+	0	1	blank2r.bmp	252	1	JQQJ	306	1	vertrauen	559	0	0	0	0	0	0	0	0	0	0	0	0	0	0	0	0	0	0	0	0	0	0	0	0	0	0	0	0	0	0	0	0	0	0	0	0	0	0	0
071719	11:56:04	12:04:05	480372	5.0.10.0	5_exp_noRW	62	Rpleas_acq	CS_A	ZHHZ	CPPC	YFFY	JQQJ	LWWL	DXXD	küssen	genießen	träumen	vertrauen	gütig	sonnig	krank	gemein	töten	versagen	gierig	sterben	47pct	acq_USpleas_CSpleas2_noRW	acq23456_noRW	3	75	0	0	300	300	424	50	0	1	1	blank2r.bmp	0	1	+	0	1	blank2r.bmp	252	1	CPPC	306	3	sonnig	559	0	0	0	0	0	0	0	0	0	0	0	0	0	0	0	0	0	0	0	0	0	0	0	0	0	0	0	0	0	0	0	0	0	0	0	0	0	0	0
071719	11:56:04	12:04:07	482011	5.0.10.0	5_exp_noRW	62	Rpleas_acq	CS_A	ZHHZ	CPPC	YFFY	JQQJ	LWWL	DXXD	küssen	genießen	träumen	vertrauen	gütig	sonnig	krank	gemein	töten	versagen	gierig	sterben	53pct	acq_USpleas_CSpleas2_noRW	acq23456_noRW	3	76	0	0	300	300	460	50	0	1	1	blank2r.bmp	0	1	+	0	1	blank2r.bmp	252	1	CPPC	306	1	vertrauen	559	0	0	0	0	0	0	0	0	0	0	0	0	0	0	0	0	0	0	0	0	0	0	0	0	0	0	0	0	0	0	0	0	0	0	0	0	0	0	0
071719	11:56:04	12:04:08	483597	5.0.10.0	5_exp_noRW	62	Rpleas_acq	CS_A	ZHHZ	CPPC	YFFY	JQQJ	LWWL	DXXD	küssen	genießen	träumen	vertrauen	gütig	sonnig	krank	gemein	töten	versagen	gierig	sterben	53pct	acq_USpleas_CSpleas1_noRW	acq23456_noRW	3	77	0	0	300	300	405	50	0	1	1	blank2r.bmp	0	1	+	0	1	blank2r.bmp	252	1	ZHHZ	306	1	küssen	559	0	0	0	0	0	0	0	0	0	0	0	0	0	0	0	0	0	0	0	0	0	0	0	0	0	0	0	0	0	0	0	0	0	0	0	0	0	0	0
071719	11:56:04	12:04:10	485316	5.0.10.0	5_exp_noRW	62	Rpleas_acq	CS_A	ZHHZ	CPPC	YFFY	JQQJ	LWWL	DXXD	küssen	genießen	träumen	vertrauen	gütig	sonnig	krank	gemein	töten	versagen	gierig	sterben	53pct	acq_USunple_CSunple2_noRW	acq23456_noRW	3	78	0	0	300	300	544	46	0	1	1	blank2r.bmp	0	1	+	0	1	blank2r.bmp	252	1	JQQJ	306	1	versagen	559	0	0	0	0	0	0	0	0	0	0	0	0	0	0	0	0	0	0	0	0	0	0	0	0	0	0	0	0	0	0	0	0	0	0	0	0	0	0	0
071719	11:56:04	12:04:12	487569	5.0.10.0	5_exp_noRW	62	Rpleas_acq	CS_A	ZHHZ	CPPC	YFFY	JQQJ	LWWL	DXXD	küssen	genießen	träumen	vertrauen	gütig	sonnig	krank	gemein	töten	versagen	gierig	sterben	53pct	acq_USunple_CSunple1_noRW	acq23456_noRW	3	79	0	0	300	300	1066	46	0	1	1	blank2r.bmp	0	1	+	0	1	blank2r.bmp	252	1	YFFY	306	3	töten	559	0	0	0	0	0	0	0	0	0	0	0	0	0	0	0	0	0	0	0	0	0	0	0	0	0	0	0	0	0	0	0	0	0	0	0	0	0	0	0
071719	11:56:04	12:04:14	489221	5.0.10.0	5_exp_noRW	62	Rpleas_acq	CS_A	ZHHZ	CPPC	YFFY	JQQJ	LWWL	DXXD	küssen	genießen	träumen	vertrauen	gütig	sonnig	krank	gemein	töten	versagen	gierig	sterben	47pct	acq_USpleas_CSpleas2_noRW	acq23456_noRW	3	80	0	0	300	300	485	50	0	1	1	blank2r.bmp	0	1	+	0	1	blank2r.bmp	252	1	CPPC	306	2	gütig	559	0	0	0	0	0	0	0	0	0	0	0	0	0	0	0	0	0	0	0	0	0	0	0	0	0	0	0	0	0	0	0	0	0	0	0	0	0	0	0
071719	11:56:04	12:04:24	499630	5.0.10.0	5_exp_noRW	62	Rpleas_acq	CS_A	ZHHZ	CPPC	YFFY	JQQJ	LWWL	DXXD	küssen	genießen	träumen	vertrauen	gütig	sonnig	krank	gemein	töten	versagen	gierig	sterben	47pct	acq_USunple_CSunple2_noRW	acq23456_noRW	4	1	0	0	300	300	426	46	0	1	1	blank2r.bmp	0	1	+	0	1	blank2r.bmp	252	1	JQQJ	306	3	sterben	559	0	0	0	0	0	0	0	0	0	0	0	0	0	0	0	0	0	0	0	0	0	0	0	0	0	0	0	0	0	0	0	0	0	0	0	0	0	0	0
