date	time	script.currenttime	script.elapsedtime	build	script.currentexpt	subject	expressions.LRpleas_acq	expressions.conditionCS_A	expressions.CSpleas_1	expressions.CSpleas_2	expressions.CSunple_1	expressions.CSunple_2	expressions.distractor_1	expressions.distractor_2	expressions.US_pleas1	expressions.US_pleas2	expressions.US_pleas3	expressions.US_pleas4	expressions.US_pleas5	expressions.US_pleas6	expressions.US_unple1	expressions.US_unple2	expressions.US_unple3	expressions.US_unple4	expressions.US_unple5	expressions.US_unple6	counter.positions_noRW	trialcode	blockcode	blocknum	trialnum	windowcenter	inwindow	pretrialpause	posttrialpause	latency	response	expressions.correctedscore	correct	stimulusnumber1	stimulusitem1	stimulusonset1	stimulusnumber2	stimulusitem2	stimulusonset2	stimulusnumber3	stimulusitem3	stimulusonset3	stimulusnumber4	stimulusitem4	stimulusonset4	stimulusnumber5	stimulusitem5	stimulusonset5	stimulusnumber6	stimulusitem6	stimulusonset6	stimulusnumber7	stimulusitem7	stimulusonset7	stimulusnumber8	stimulusitem8	stimulusonset8	stimulusnumber9	stimulusitem9	stimulusonset9	stimulusnumber10	stimulusitem10	stimulusonset10	stimulusnumber11	stimulusitem11	stimulusonset11	stimulusnumber12	stimulusitem12	stimulusonset12	stimulusnumber13	stimulusitem13	stimulusonset13	stimulusnumber14	stimulusitem14	stimulusonset14	stimulusnumber15	stimulusitem15	stimulusonset15	stimulusnumber16	stimulusitem16	stimulusonset16	stimulusnumber17	stimulusitem17	stimulusonset17	stimulusnumber18	stimulusitem18	stimulusonset18
070319	16:14:52	16:15:55	62054	5.0.10.0	5_exp_noRW	18	Rpleas_acq	CS_B	BZZB	VKKV	GWWG	YDDY	JXXJ	MQQM	retten	treu	schön	fair	ehrlich	spielen	rächen	tot	schlecht	faul	eitel	strafen	47pct	acq_USunple_CSunple2_noRW	acq1_noRW	1	1	0	0	300	300	889	46	0	1	1	blank2r.bmp	0	1	+	0	1	blank2r.bmp	252	1	YDDY	306	1	faul	559	0	0	0	0	0	0	0	0	0	0	0	0	0	0	0	0	0	0	0	0	0	0	0	0	0	0	0	0	0	0	0	0	0	0	0	0	0	0	0
070319	16:14:52	16:15:57	64093	5.0.10.0	5_exp_noRW	18	Rpleas_acq	CS_B	BZZB	VKKV	GWWG	YDDY	JXXJ	MQQM	retten	treu	schön	fair	ehrlich	spielen	rächen	tot	schlecht	faul	eitel	strafen	47pct	acq_USpleas_CSpleas1_noRW	acq1_noRW	1	2	0	0	300	300	851	50	0	1	1	blank2r.bmp	0	1	+	0	1	blank2r.bmp	252	1	BZZB	306	2	treu	559	0	0	0	0	0	0	0	0	0	0	0	0	0	0	0	0	0	0	0	0	0	0	0	0	0	0	0	0	0	0	0	0	0	0	0	0	0	0	0
070319	16:14:52	16:15:58	65706	5.0.10.0	5_exp_noRW	18	Rpleas_acq	CS_B	BZZB	VKKV	GWWG	YDDY	JXXJ	MQQM	retten	treu	schön	fair	ehrlich	spielen	rächen	tot	schlecht	faul	eitel	strafen	47pct	acq_USunple_CSpleas1_noRW	acq1_noRW	1	3	0	0	300	300	444	46	0	1	1	blank2r.bmp	0	1	+	0	1	blank2r.bmp	252	1	BZZB	306	1	rächen	559	0	0	0	0	0	0	0	0	0	0	0	0	0	0	0	0	0	0	0	0	0	0	0	0	0	0	0	0	0	0	0	0	0	0	0	0	0	0	0
070319	16:14:52	16:16:00	67519	5.0.10.0	5_exp_noRW	18	Rpleas_acq	CS_B	BZZB	VKKV	GWWG	YDDY	JXXJ	MQQM	retten	treu	schön	fair	ehrlich	spielen	rächen	tot	schlecht	faul	eitel	strafen	53pct	acq_USunple_CSunple2_noRW	acq1_noRW	1	4	0	0	300	300	644	46	0	1	1	blank2r.bmp	0	1	+	0	1	blank2r.bmp	252	1	YDDY	306	3	strafen	559	0	0	0	0	0	0	0	0	0	0	0	0	0	0	0	0	0	0	0	0	0	0	0	0	0	0	0	0	0	0	0	0	0	0	0	0	0	0	0
070319	16:14:52	16:16:02	69171	5.0.10.0	5_exp_noRW	18	Rpleas_acq	CS_B	BZZB	VKKV	GWWG	YDDY	JXXJ	MQQM	retten	treu	schön	fair	ehrlich	spielen	rächen	tot	schlecht	faul	eitel	strafen	53pct	acq_USpleas_CSpleas1_noRW	acq1_noRW	1	5	0	0	300	300	483	50	0	1	1	blank2r.bmp	0	1	+	0	1	blank2r.bmp	252	1	BZZB	306	3	schön	559	0	0	0	0	0	0	0	0	0	0	0	0	0	0	0	0	0	0	0	0	0	0	0	0	0	0	0	0	0	0	0	0	0	0	0	0	0	0	0
070319	16:14:52	16:16:03	70784	5.0.10.0	5_exp_noRW	18	Rpleas_acq	CS_B	BZZB	VKKV	GWWG	YDDY	JXXJ	MQQM	retten	treu	schön	fair	ehrlich	spielen	rächen	tot	schlecht	faul	eitel	strafen	47pct	acq_USunple_CSpleas2_noRW	acq1_noRW	1	6	0	0	300	300	445	46	0	1	1	blank2r.bmp	0	1	+	0	1	blank2r.bmp	252	1	VKKV	306	3	strafen	559	0	0	0	0	0	0	0	0	0	0	0	0	0	0	0	0	0	0	0	0	0	0	0	0	0	0	0	0	0	0	0	0	0	0	0	0	0	0	0
070319	16:14:52	16:16:05	72503	5.0.10.0	5_exp_noRW	18	Rpleas_acq	CS_B	BZZB	VKKV	GWWG	YDDY	JXXJ	MQQM	retten	treu	schön	fair	ehrlich	spielen	rächen	tot	schlecht	faul	eitel	strafen	47pct	acq_USunple_CSunple1_noRW	acq1_noRW	1	7	0	0	300	300	542	46	0	1	1	blank2r.bmp	0	1	+	0	1	blank2r.bmp	252	1	GWWG	306	3	schlecht	559	0	0	0	0	0	0	0	0	0	0	0	0	0	0	0	0	0	0	0	0	0	0	0	0	0	0	0	0	0	0	0	0	0	0	0	0	0	0	0
070319	16:14:52	16:16:07	74316	5.0.10.0	5_exp_noRW	18	Rpleas_acq	CS_B	BZZB	VKKV	GWWG	YDDY	JXXJ	MQQM	retten	treu	schön	fair	ehrlich	spielen	rächen	tot	schlecht	faul	eitel	strafen	53pct	acq_USpleas_CSpleas1_noRW	acq1_noRW	1	8	0	0	300	300	637	50	0	1	1	blank2r.bmp	0	1	+	0	1	blank2r.bmp	252	1	BZZB	306	1	retten	559	0	0	0	0	0	0	0	0	0	0	0	0	0	0	0	0	0	0	0	0	0	0	0	0	0	0	0	0	0	0	0	0	0	0	0	0	0	0	0
070319	16:14:52	16:16:09	76102	5.0.10.0	5_exp_noRW	18	Rpleas_acq	CS_B	BZZB	VKKV	GWWG	YDDY	JXXJ	MQQM	retten	treu	schön	fair	ehrlich	spielen	rächen	tot	schlecht	faul	eitel	strafen	53pct	acq_USpleas_CSpleas2_noRW	acq1_noRW	1	9	0	0	300	300	605	50	0	1	1	blank2r.bmp	0	1	+	0	1	blank2r.bmp	252	1	VKKV	306	1	fair	559	0	0	0	0	0	0	0	0	0	0	0	0	0	0	0	0	0	0	0	0	0	0	0	0	0	0	0	0	0	0	0	0	0	0	0	0	0	0	0
070319	16:14:52	16:16:10	77768	5.0.10.0	5_exp_noRW	18	Rpleas_acq	CS_B	BZZB	VKKV	GWWG	YDDY	JXXJ	MQQM	retten	treu	schön	fair	ehrlich	spielen	rächen	tot	schlecht	faul	eitel	strafen	47pct	acq_USpleas_CSunple2_noRW	acq1_noRW	1	10	0	0	300	300	483	50	0	1	1	blank2r.bmp	0	1	+	0	1	blank2r.bmp	252	1	YDDY	306	3	spielen	559	0	0	0	0	0	0	0	0	0	0	0	0	0	0	0	0	0	0	0	0	0	0	0	0	0	0	0	0	0	0	0	0	0	0	0	0	0	0	0
070319	16:14:52	16:16:12	79380	5.0.10.0	5_exp_noRW	18	Rpleas_acq	CS_B	BZZB	VKKV	GWWG	YDDY	JXXJ	MQQM	retten	treu	schön	fair	ehrlich	spielen	rächen	tot	schlecht	faul	eitel	strafen	47pct	acq_USpleas_CSpleas2_noRW	acq1_noRW	1	11	0	0	300	300	441	50	0	1	1	blank2r.bmp	0	1	+	0	1	blank2r.bmp	252	1	VKKV	306	3	spielen	559	0	0	0	0	0	0	0	0	0	0	0	0	0	0	0	0	0	0	0	0	0	0	0	0	0	0	0	0	0	0	0	0	0	0	0	0	0	0	0
070319	16:14:52	16:16:13	81020	5.0.10.0	5_exp_noRW	18	Rpleas_acq	CS_B	BZZB	VKKV	GWWG	YDDY	JXXJ	MQQM	retten	treu	schön	fair	ehrlich	spielen	rächen	tot	schlecht	faul	eitel	strafen	53pct	acq_USunple_CSunple1_noRW	acq1_noRW	1	12	0	0	300	300	478	46	0	1	1	blank2r.bmp	0	1	+	0	1	blank2r.bmp	252	1	GWWG	306	1	rächen	559	0	0	0	0	0	0	0	0	0	0	0	0	0	0	0	0	0	0	0	0	0	0	0	0	0	0	0	0	0	0	0	0	0	0	0	0	0	0	0
070319	16:14:52	16:16:15	82712	5.0.10.0	5_exp_noRW	18	Rpleas_acq	CS_B	BZZB	VKKV	GWWG	YDDY	JXXJ	MQQM	retten	treu	schön	fair	ehrlich	spielen	rächen	tot	schlecht	faul	eitel	strafen	53pct	acq_USpleas_CSpleas2_noRW	acq1_noRW	1	13	0	0	300	300	512	50	0	1	1	blank2r.bmp	0	1	+	0	1	blank2r.bmp	252	1	VKKV	306	2	ehrlich	559	0	0	0	0	0	0	0	0	0	0	0	0	0	0	0	0	0	0	0	0	0	0	0	0	0	0	0	0	0	0	0	0	0	0	0	0	0	0	0
070319	16:14:52	16:16:17	84298	5.0.10.0	5_exp_noRW	18	Rpleas_acq	CS_B	BZZB	VKKV	GWWG	YDDY	JXXJ	MQQM	retten	treu	schön	fair	ehrlich	spielen	rächen	tot	schlecht	faul	eitel	strafen	47pct	acq_USpleas_CSunple1_noRW	acq1_noRW	1	14	0	0	300	300	418	50	0	1	1	blank2r.bmp	0	1	+	0	1	blank2r.bmp	252	1	GWWG	306	3	schön	559	0	0	0	0	0	0	0	0	0	0	0	0	0	0	0	0	0	0	0	0	0	0	0	0	0	0	0	0	0	0	0	0	0	0	0	0	0	0	0
070319	16:14:52	16:16:19	86391	5.0.10.0	5_exp_noRW	18	Rpleas_acq	CS_B	BZZB	VKKV	GWWG	YDDY	JXXJ	MQQM	retten	treu	schön	fair	ehrlich	spielen	rächen	tot	schlecht	faul	eitel	strafen	47pct	acq_USunple_CSunple2_noRW	acq1_noRW	1	15	0	0	300	300	917	46	0	1	1	blank2r.bmp	0	1	+	0	1	blank2r.bmp	252	1	YDDY	306	2	eitel	559	0	0	0	0	0	0	0	0	0	0	0	0	0	0	0	0	0	0	0	0	0	0	0	0	0	0	0	0	0	0	0	0	0	0	0	0	0	0	0
070319	16:14:52	16:16:21	88137	5.0.10.0	5_exp_noRW	18	Rpleas_acq	CS_B	BZZB	VKKV	GWWG	YDDY	JXXJ	MQQM	retten	treu	schön	fair	ehrlich	spielen	rächen	tot	schlecht	faul	eitel	strafen	47pct	acq_USunple_CSunple2_noRW	acq1_noRW	1	16	0	0	300	300	584	46	0	1	1	blank2r.bmp	0	1	+	0	1	blank2r.bmp	252	1	YDDY	306	3	strafen	559	0	0	0	0	0	0	0	0	0	0	0	0	0	0	0	0	0	0	0	0	0	0	0	0	0	0	0	0	0	0	0	0	0	0	0	0	0	0	0
070319	16:14:52	16:16:22	89696	5.0.10.0	5_exp_noRW	18	Rpleas_acq	CS_B	BZZB	VKKV	GWWG	YDDY	JXXJ	MQQM	retten	treu	schön	fair	ehrlich	spielen	rächen	tot	schlecht	faul	eitel	strafen	47pct	acq_USunple_CSunple1_noRW	acq1_noRW	1	17	0	0	300	300	381	46	0	1	1	blank2r.bmp	0	1	+	0	1	blank2r.bmp	252	1	GWWG	306	2	tot	559	0	0	0	0	0	0	0	0	0	0	0	0	0	0	0	0	0	0	0	0	0	0	0	0	0	0	0	0	0	0	0	0	0	0	0	0	0	0	0
070319	16:14:52	16:16:24	91349	5.0.10.0	5_exp_noRW	18	Rpleas_acq	CS_B	BZZB	VKKV	GWWG	YDDY	JXXJ	MQQM	retten	treu	schön	fair	ehrlich	spielen	rächen	tot	schlecht	faul	eitel	strafen	47pct	acq_USunple_CSunple1_noRW	acq1_noRW	1	18	0	0	300	300	476	46	0	1	1	blank2r.bmp	0	1	+	0	1	blank2r.bmp	252	1	GWWG	306	1	rächen	559	0	0	0	0	0	0	0	0	0	0	0	0	0	0	0	0	0	0	0	0	0	0	0	0	0	0	0	0	0	0	0	0	0	0	0	0	0	0	0
070319	16:14:52	16:16:25	92975	5.0.10.0	5_exp_noRW	18	Rpleas_acq	CS_B	BZZB	VKKV	GWWG	YDDY	JXXJ	MQQM	retten	treu	schön	fair	ehrlich	spielen	rächen	tot	schlecht	faul	eitel	strafen	53pct	acq_USpleas_CSpleas2_noRW	acq1_noRW	1	19	0	0	300	300	445	50	0	1	1	blank2r.bmp	0	1	+	0	1	blank2r.bmp	252	1	VKKV	306	1	fair	559	0	0	0	0	0	0	0	0	0	0	0	0	0	0	0	0	0	0	0	0	0	0	0	0	0	0	0	0	0	0	0	0	0	0	0	0	0	0	0
070319	16:14:52	16:16:27	94894	5.0.10.0	5_exp_noRW	18	Rpleas_acq	CS_B	BZZB	VKKV	GWWG	YDDY	JXXJ	MQQM	retten	treu	schön	fair	ehrlich	spielen	rächen	tot	schlecht	faul	eitel	strafen	53pct	acq_USpleas_CSpleas1_noRW	acq1_noRW	1	20	0	0	300	300	757	50	0	1	1	blank2r.bmp	0	1	+	0	1	blank2r.bmp	252	1	BZZB	306	2	treu	559	0	0	0	0	0	0	0	0	0	0	0	0	0	0	0	0	0	0	0	0	0	0	0	0	0	0	0	0	0	0	0	0	0	0	0	0	0	0	0
070319	16:14:52	16:16:29	96627	5.0.10.0	5_exp_noRW	18	Rpleas_acq	CS_B	BZZB	VKKV	GWWG	YDDY	JXXJ	MQQM	retten	treu	schön	fair	ehrlich	spielen	rächen	tot	schlecht	faul	eitel	strafen	53pct	acq_USpleas_CSpleas2_noRW	acq1_noRW	1	21	0	0	300	300	533	50	0	1	1	blank2r.bmp	0	1	+	0	1	blank2r.bmp	252	1	VKKV	306	2	ehrlich	559	0	0	0	0	0	0	0	0	0	0	0	0	0	0	0	0	0	0	0	0	0	0	0	0	0	0	0	0	0	0	0	0	0	0	0	0	0	0	0
070319	16:14:52	16:16:31	98173	5.0.10.0	5_exp_noRW	18	Rpleas_acq	CS_B	BZZB	VKKV	GWWG	YDDY	JXXJ	MQQM	retten	treu	schön	fair	ehrlich	spielen	rächen	tot	schlecht	faul	eitel	strafen	47pct	acq_USpleas_CSpleas1_noRW	acq1_noRW	1	22	0	0	300	300	372	50	0	1	1	blank2r.bmp	0	1	+	0	1	blank2r.bmp	252	1	BZZB	306	3	schön	559	0	0	0	0	0	0	0	0	0	0	0	0	0	0	0	0	0	0	0	0	0	0	0	0	0	0	0	0	0	0	0	0	0	0	0	0	0	0	0
070319	16:14:52	16:16:32	99999	5.0.10.0	5_exp_noRW	18	Rpleas_acq	CS_B	BZZB	VKKV	GWWG	YDDY	JXXJ	MQQM	retten	treu	schön	fair	ehrlich	spielen	rächen	tot	schlecht	faul	eitel	strafen	53pct	acq_USpleas_CSpleas2_noRW	acq1_noRW	1	23	0	0	300	300	655	50	0	1	1	blank2r.bmp	0	1	+	0	1	blank2r.bmp	252	1	VKKV	306	3	spielen	559	0	0	0	0	0	0	0	0	0	0	0	0	0	0	0	0	0	0	0	0	0	0	0	0	0	0	0	0	0	0	0	0	0	0	0	0	0	0	0
070319	16:14:52	16:16:34	101745	5.0.10.0	5_exp_noRW	18	Rpleas_acq	CS_B	BZZB	VKKV	GWWG	YDDY	JXXJ	MQQM	retten	treu	schön	fair	ehrlich	spielen	rächen	tot	schlecht	faul	eitel	strafen	53pct	acq_USunple_CSunple2_noRW	acq1_noRW	1	24	0	0	300	300	574	46	0	1	1	blank2r.bmp	0	1	+	0	1	blank2r.bmp	252	1	YDDY	306	1	faul	559	0	0	0	0	0	0	0	0	0	0	0	0	0	0	0	0	0	0	0	0	0	0	0	0	0	0	0	0	0	0	0	0	0	0	0	0	0	0	0
070319	16:14:52	16:16:36	103597	5.0.10.0	5_exp_noRW	18	Rpleas_acq	CS_B	BZZB	VKKV	GWWG	YDDY	JXXJ	MQQM	retten	treu	schön	fair	ehrlich	spielen	rächen	tot	schlecht	faul	eitel	strafen	47pct	acq_USunple_CSunple2_noRW	acq1_noRW	1	25	0	0	300	300	689	46	0	1	1	blank2r.bmp	0	1	+	0	1	blank2r.bmp	252	1	YDDY	306	2	eitel	559	0	0	0	0	0	0	0	0	0	0	0	0	0	0	0	0	0	0	0	0	0	0	0	0	0	0	0	0	0	0	0	0	0	0	0	0	0	0	0
070319	16:14:52	16:16:38	105237	5.0.10.0	5_exp_noRW	18	Rpleas_acq	CS_B	BZZB	VKKV	GWWG	YDDY	JXXJ	MQQM	retten	treu	schön	fair	ehrlich	spielen	rächen	tot	schlecht	faul	eitel	strafen	47pct	acq_USunple_CSunple2_noRW	acq1_noRW	1	26	0	0	300	300	475	46	0	1	1	blank2r.bmp	0	1	+	0	1	blank2r.bmp	252	1	YDDY	306	1	faul	559	0	0	0	0	0	0	0	0	0	0	0	0	0	0	0	0	0	0	0	0	0	0	0	0	0	0	0	0	0	0	0	0	0	0	0	0	0	0	0
070319	16:14:52	16:16:39	106969	5.0.10.0	5_exp_noRW	18	Rpleas_acq	CS_B	BZZB	VKKV	GWWG	YDDY	JXXJ	MQQM	retten	treu	schön	fair	ehrlich	spielen	rächen	tot	schlecht	faul	eitel	strafen	53pct	acq_USpleas_CSpleas2_noRW	acq1_noRW	1	27	0	0	300	300	561	50	0	1	1	blank2r.bmp	0	1	+	0	1	blank2r.bmp	252	1	VKKV	306	2	ehrlich	559	0	0	0	0	0	0	0	0	0	0	0	0	0	0	0	0	0	0	0	0	0	0	0	0	0	0	0	0	0	0	0	0	0	0	0	0	0	0	0
070319	16:14:52	16:16:41	108755	5.0.10.0	5_exp_noRW	18	Rpleas_acq	CS_B	BZZB	VKKV	GWWG	YDDY	JXXJ	MQQM	retten	treu	schön	fair	ehrlich	spielen	rächen	tot	schlecht	faul	eitel	strafen	47pct	acq_USunple_CSunple1_noRW	acq1_noRW	1	28	0	0	300	300	619	46	0	1	1	blank2r.bmp	0	1	+	0	1	blank2r.bmp	252	1	GWWG	306	3	schlecht	559	0	0	0	0	0	0	0	0	0	0	0	0	0	0	0	0	0	0	0	0	0	0	0	0	0	0	0	0	0	0	0	0	0	0	0	0	0	0	0
070319	16:14:52	16:16:43	110541	5.0.10.0	5_exp_noRW	18	Rpleas_acq	CS_B	BZZB	VKKV	GWWG	YDDY	JXXJ	MQQM	retten	treu	schön	fair	ehrlich	spielen	rächen	tot	schlecht	faul	eitel	strafen	47pct	acq_USpleas_CSpleas1_noRW	acq1_noRW	1	29	0	0	300	300	599	50	0	1	1	blank2r.bmp	0	1	+	0	1	blank2r.bmp	252	1	BZZB	306	1	retten	559	0	0	0	0	0	0	0	0	0	0	0	0	0	0	0	0	0	0	0	0	0	0	0	0	0	0	0	0	0	0	0	0	0	0	0	0	0	0	0
070319	16:14:52	16:16:45	112274	5.0.10.0	5_exp_noRW	18	Rpleas_acq	CS_B	BZZB	VKKV	GWWG	YDDY	JXXJ	MQQM	retten	treu	schön	fair	ehrlich	spielen	rächen	tot	schlecht	faul	eitel	strafen	53pct	acq_USunple_CSunple2_noRW	acq1_noRW	1	30	0	0	300	300	569	46	0	1	1	blank2r.bmp	0	1	+	0	1	blank2r.bmp	252	1	YDDY	306	2	eitel	559	0	0	0	0	0	0	0	0	0	0	0	0	0	0	0	0	0	0	0	0	0	0	0	0	0	0	0	0	0	0	0	0	0	0	0	0	0	0	0
070319	16:14:52	16:16:46	113966	5.0.10.0	5_exp_noRW	18	Rpleas_acq	CS_B	BZZB	VKKV	GWWG	YDDY	JXXJ	MQQM	retten	treu	schön	fair	ehrlich	spielen	rächen	tot	schlecht	faul	eitel	strafen	47pct	acq_USpleas_CSpleas2_noRW	acq1_noRW	1	31	0	0	300	300	513	50	0	1	1	blank2r.bmp	0	1	+	0	1	blank2r.bmp	252	1	VKKV	306	1	fair	559	0	0	0	0	0	0	0	0	0	0	0	0	0	0	0	0	0	0	0	0	0	0	0	0	0	0	0	0	0	0	0	0	0	0	0	0	0	0	0
070319	16:14:52	16:16:48	115539	5.0.10.0	5_exp_noRW	18	Rpleas_acq	CS_B	BZZB	VKKV	GWWG	YDDY	JXXJ	MQQM	retten	treu	schön	fair	ehrlich	spielen	rächen	tot	schlecht	faul	eitel	strafen	47pct	acq_USpleas_CSunple2_noRW	acq1_noRW	1	32	0	0	300	300	398	50	0	1	1	blank2r.bmp	0	1	+	0	1	blank2r.bmp	252	1	YDDY	306	1	fair	559	0	0	0	0	0	0	0	0	0	0	0	0	0	0	0	0	0	0	0	0	0	0	0	0	0	0	0	0	0	0	0	0	0	0	0	0	0	0	0
070319	16:14:52	16:16:50	117205	5.0.10.0	5_exp_noRW	18	Rpleas_acq	CS_B	BZZB	VKKV	GWWG	YDDY	JXXJ	MQQM	retten	treu	schön	fair	ehrlich	spielen	rächen	tot	schlecht	faul	eitel	strafen	47pct	acq_USpleas_CSunple1_noRW	acq1_noRW	1	33	0	0	300	300	487	50	0	1	1	blank2r.bmp	0	1	+	0	1	blank2r.bmp	252	1	GWWG	306	2	treu	559	0	0	0	0	0	0	0	0	0	0	0	0	0	0	0	0	0	0	0	0	0	0	0	0	0	0	0	0	0	0	0	0	0	0	0	0	0	0	0
070319	16:14:52	16:16:51	118764	5.0.10.0	5_exp_noRW	18	Rpleas_acq	CS_B	BZZB	VKKV	GWWG	YDDY	JXXJ	MQQM	retten	treu	schön	fair	ehrlich	spielen	rächen	tot	schlecht	faul	eitel	strafen	47pct	acq_USunple_CSunple1_noRW	acq1_noRW	1	34	0	0	300	300	397	46	0	1	1	blank2r.bmp	0	1	+	0	1	blank2r.bmp	252	1	GWWG	306	2	tot	559	0	0	0	0	0	0	0	0	0	0	0	0	0	0	0	0	0	0	0	0	0	0	0	0	0	0	0	0	0	0	0	0	0	0	0	0	0	0	0
070319	16:14:52	16:16:53	120457	5.0.10.0	5_exp_noRW	18	Rpleas_acq	CS_B	BZZB	VKKV	GWWG	YDDY	JXXJ	MQQM	retten	treu	schön	fair	ehrlich	spielen	rächen	tot	schlecht	faul	eitel	strafen	53pct	acq_USunple_CSpleas2_noRW	acq1_noRW	1	35	0	0	300	300	507	46	0	1	1	blank2r.bmp	0	1	+	0	1	blank2r.bmp	252	1	VKKV	306	1	faul	559	0	0	0	0	0	0	0	0	0	0	0	0	0	0	0	0	0	0	0	0	0	0	0	0	0	0	0	0	0	0	0	0	0	0	0	0	0	0	0
070319	16:14:52	16:16:55	122176	5.0.10.0	5_exp_noRW	18	Rpleas_acq	CS_B	BZZB	VKKV	GWWG	YDDY	JXXJ	MQQM	retten	treu	schön	fair	ehrlich	spielen	rächen	tot	schlecht	faul	eitel	strafen	53pct	acq_USpleas_CSpleas1_noRW	acq1_noRW	1	36	0	0	300	300	537	50	0	1	1	blank2r.bmp	0	1	+	0	1	blank2r.bmp	252	1	BZZB	306	1	retten	559	0	0	0	0	0	0	0	0	0	0	0	0	0	0	0	0	0	0	0	0	0	0	0	0	0	0	0	0	0	0	0	0	0	0	0	0	0	0	0
070319	16:14:52	16:16:56	123882	5.0.10.0	5_exp_noRW	18	Rpleas_acq	CS_B	BZZB	VKKV	GWWG	YDDY	JXXJ	MQQM	retten	treu	schön	fair	ehrlich	spielen	rächen	tot	schlecht	faul	eitel	strafen	53pct	acq_USunple_CSpleas1_noRW	acq1_noRW	1	37	0	0	300	300	527	46	0	1	1	blank2r.bmp	0	1	+	0	1	blank2r.bmp	252	1	BZZB	306	3	schlecht	559	0	0	0	0	0	0	0	0	0	0	0	0	0	0	0	0	0	0	0	0	0	0	0	0	0	0	0	0	0	0	0	0	0	0	0	0	0	0	0
070319	16:14:52	16:16:58	125495	5.0.10.0	5_exp_noRW	18	Rpleas_acq	CS_B	BZZB	VKKV	GWWG	YDDY	JXXJ	MQQM	retten	treu	schön	fair	ehrlich	spielen	rächen	tot	schlecht	faul	eitel	strafen	47pct	acq_USunple_CSunple1_noRW	acq1_noRW	1	38	0	0	300	300	429	46	0	1	1	blank2r.bmp	0	1	+	0	1	blank2r.bmp	252	1	GWWG	306	1	rächen	559	0	0	0	0	0	0	0	0	0	0	0	0	0	0	0	0	0	0	0	0	0	0	0	0	0	0	0	0	0	0	0	0	0	0	0	0	0	0	0
070319	16:14:52	16:17:00	127241	5.0.10.0	5_exp_noRW	18	Rpleas_acq	CS_B	BZZB	VKKV	GWWG	YDDY	JXXJ	MQQM	retten	treu	schön	fair	ehrlich	spielen	rächen	tot	schlecht	faul	eitel	strafen	47pct	acq_USpleas_CSpleas1_noRW	acq1_noRW	1	39	0	0	300	300	559	50	0	1	1	blank2r.bmp	0	1	+	0	1	blank2r.bmp	252	1	BZZB	306	3	schön	559	0	0	0	0	0	0	0	0	0	0	0	0	0	0	0	0	0	0	0	0	0	0	0	0	0	0	0	0	0	0	0	0	0	0	0	0	0	0	0
070319	16:14:52	16:17:01	128827	5.0.10.0	5_exp_noRW	18	Rpleas_acq	CS_B	BZZB	VKKV	GWWG	YDDY	JXXJ	MQQM	retten	treu	schön	fair	ehrlich	spielen	rächen	tot	schlecht	faul	eitel	strafen	53pct	acq_USunple_CSunple1_noRW	acq1_noRW	1	40	0	0	300	300	415	46	0	1	1	blank2r.bmp	0	1	+	0	1	blank2r.bmp	252	1	GWWG	306	3	schlecht	559	0	0	0	0	0	0	0	0	0	0	0	0	0	0	0	0	0	0	0	0	0	0	0	0	0	0	0	0	0	0	0	0	0	0	0	0	0	0	0
070319	16:14:52	16:17:03	130506	5.0.10.0	5_exp_noRW	18	Rpleas_acq	CS_B	BZZB	VKKV	GWWG	YDDY	JXXJ	MQQM	retten	treu	schön	fair	ehrlich	spielen	rächen	tot	schlecht	faul	eitel	strafen	47pct	acq_USpleas_CSpleas2_noRW	acq1_noRW	1	41	0	0	300	300	509	50	0	1	1	blank2r.bmp	0	1	+	0	1	blank2r.bmp	252	1	VKKV	306	3	spielen	559	0	0	0	0	0	0	0	0	0	0	0	0	0	0	0	0	0	0	0	0	0	0	0	0	0	0	0	0	0	0	0	0	0	0	0	0	0	0	0
070319	16:14:52	16:17:05	132212	5.0.10.0	5_exp_noRW	18	Rpleas_acq	CS_B	BZZB	VKKV	GWWG	YDDY	JXXJ	MQQM	retten	treu	schön	fair	ehrlich	spielen	rächen	tot	schlecht	faul	eitel	strafen	53pct	acq_USunple_CSunple2_noRW	acq1_noRW	1	42	0	0	300	300	530	46	0	1	1	blank2r.bmp	0	1	+	0	1	blank2r.bmp	252	1	YDDY	306	3	strafen	559	0	0	0	0	0	0	0	0	0	0	0	0	0	0	0	0	0	0	0	0	0	0	0	0	0	0	0	0	0	0	0	0	0	0	0	0	0	0	0
070319	16:14:52	16:17:06	133838	5.0.10.0	5_exp_noRW	18	Rpleas_acq	CS_B	BZZB	VKKV	GWWG	YDDY	JXXJ	MQQM	retten	treu	schön	fair	ehrlich	spielen	rächen	tot	schlecht	faul	eitel	strafen	53pct	acq_USunple_CSunple1_noRW	acq1_noRW	1	43	0	0	300	300	440	46	0	1	1	blank2r.bmp	0	1	+	0	1	blank2r.bmp	252	1	GWWG	306	2	tot	559	0	0	0	0	0	0	0	0	0	0	0	0	0	0	0	0	0	0	0	0	0	0	0	0	0	0	0	0	0	0	0	0	0	0	0	0	0	0	0
070319	16:14:52	16:17:08	135478	5.0.10.0	5_exp_noRW	18	Rpleas_acq	CS_B	BZZB	VKKV	GWWG	YDDY	JXXJ	MQQM	retten	treu	schön	fair	ehrlich	spielen	rächen	tot	schlecht	faul	eitel	strafen	47pct	acq_USunple_CSunple2_noRW	acq1_noRW	1	44	0	0	300	300	468	46	0	1	1	blank2r.bmp	0	1	+	0	1	blank2r.bmp	252	1	YDDY	306	2	eitel	559	0	0	0	0	0	0	0	0	0	0	0	0	0	0	0	0	0	0	0	0	0	0	0	0	0	0	0	0	0	0	0	0	0	0	0	0	0	0	0
070319	16:14:52	16:17:10	137170	5.0.10.0	5_exp_noRW	18	Rpleas_acq	CS_B	BZZB	VKKV	GWWG	YDDY	JXXJ	MQQM	retten	treu	schön	fair	ehrlich	spielen	rächen	tot	schlecht	faul	eitel	strafen	53pct	acq_USunple_CSunple2_noRW	acq1_noRW	1	45	0	0	300	300	514	46	0	1	1	blank2r.bmp	0	1	+	0	1	blank2r.bmp	252	1	YDDY	306	3	strafen	559	0	0	0	0	0	0	0	0	0	0	0	0	0	0	0	0	0	0	0	0	0	0	0	0	0	0	0	0	0	0	0	0	0	0	0	0	0	0	0
070319	16:14:52	16:17:11	138823	5.0.10.0	5_exp_noRW	18	Rpleas_acq	CS_B	BZZB	VKKV	GWWG	YDDY	JXXJ	MQQM	retten	treu	schön	fair	ehrlich	spielen	rächen	tot	schlecht	faul	eitel	strafen	47pct	acq_USpleas_CSunple1_noRW	acq1_noRW	1	46	0	0	300	300	481	50	0	1	1	blank2r.bmp	0	1	+	0	1	blank2r.bmp	252	1	GWWG	306	1	retten	559	0	0	0	0	0	0	0	0	0	0	0	0	0	0	0	0	0	0	0	0	0	0	0	0	0	0	0	0	0	0	0	0	0	0	0	0	0	0	0
070319	16:14:52	16:17:13	140476	5.0.10.0	5_exp_noRW	18	Rpleas_acq	CS_B	BZZB	VKKV	GWWG	YDDY	JXXJ	MQQM	retten	treu	schön	fair	ehrlich	spielen	rächen	tot	schlecht	faul	eitel	strafen	53pct	acq_USunple_CSunple1_noRW	acq1_noRW	1	47	0	0	300	300	483	46	0	1	1	blank2r.bmp	0	1	+	0	1	blank2r.bmp	252	1	GWWG	306	3	schlecht	559	0	0	0	0	0	0	0	0	0	0	0	0	0	0	0	0	0	0	0	0	0	0	0	0	0	0	0	0	0	0	0	0	0	0	0	0	0	0	0
070319	16:14:52	16:17:15	142102	5.0.10.0	5_exp_noRW	18	Rpleas_acq	CS_B	BZZB	VKKV	GWWG	YDDY	JXXJ	MQQM	retten	treu	schön	fair	ehrlich	spielen	rächen	tot	schlecht	faul	eitel	strafen	53pct	acq_USunple_CSpleas1_noRW	acq1_noRW	1	48	0	0	300	300	454	46	0	1	1	blank2r.bmp	0	1	+	0	1	blank2r.bmp	252	1	BZZB	306	2	tot	559	0	0	0	0	0	0	0	0	0	0	0	0	0	0	0	0	0	0	0	0	0	0	0	0	0	0	0	0	0	0	0	0	0	0	0	0	0	0	0
070319	16:14:52	16:17:16	143741	5.0.10.0	5_exp_noRW	18	Rpleas_acq	CS_B	BZZB	VKKV	GWWG	YDDY	JXXJ	MQQM	retten	treu	schön	fair	ehrlich	spielen	rächen	tot	schlecht	faul	eitel	strafen	53pct	acq_USpleas_CSpleas1_noRW	acq1_noRW	1	49	0	0	300	300	471	50	0	1	1	blank2r.bmp	0	1	+	0	1	blank2r.bmp	252	1	BZZB	306	2	treu	559	0	0	0	0	0	0	0	0	0	0	0	0	0	0	0	0	0	0	0	0	0	0	0	0	0	0	0	0	0	0	0	0	0	0	0	0	0	0	0
070319	16:14:52	16:17:18	145420	5.0.10.0	5_exp_noRW	18	Rpleas_acq	CS_B	BZZB	VKKV	GWWG	YDDY	JXXJ	MQQM	retten	treu	schön	fair	ehrlich	spielen	rächen	tot	schlecht	faul	eitel	strafen	53pct	acq_USpleas_CSpleas2_noRW	acq1_noRW	1	50	0	0	300	300	510	50	0	1	1	blank2r.bmp	0	1	+	0	1	blank2r.bmp	252	1	VKKV	306	1	fair	559	0	0	0	0	0	0	0	0	0	0	0	0	0	0	0	0	0	0	0	0	0	0	0	0	0	0	0	0	0	0	0	0	0	0	0	0	0	0	0
070319	16:14:52	16:17:20	147113	5.0.10.0	5_exp_noRW	18	Rpleas_acq	CS_B	BZZB	VKKV	GWWG	YDDY	JXXJ	MQQM	retten	treu	schön	fair	ehrlich	spielen	rächen	tot	schlecht	faul	eitel	strafen	53pct	acq_USunple_CSpleas2_noRW	acq1_noRW	1	51	0	0	300	300	508	46	0	1	1	blank2r.bmp	0	1	+	0	1	blank2r.bmp	252	1	VKKV	306	2	eitel	559	0	0	0	0	0	0	0	0	0	0	0	0	0	0	0	0	0	0	0	0	0	0	0	0	0	0	0	0	0	0	0	0	0	0	0	0	0	0	0
070319	16:14:52	16:17:21	148832	5.0.10.0	5_exp_noRW	18	Rpleas_acq	CS_B	BZZB	VKKV	GWWG	YDDY	JXXJ	MQQM	retten	treu	schön	fair	ehrlich	spielen	rächen	tot	schlecht	faul	eitel	strafen	47pct	acq_USunple_CSunple1_noRW	acq1_noRW	1	52	0	0	300	300	554	46	0	1	1	blank2r.bmp	0	1	+	0	1	blank2r.bmp	252	1	GWWG	306	1	rächen	559	0	0	0	0	0	0	0	0	0	0	0	0	0	0	0	0	0	0	0	0	0	0	0	0	0	0	0	0	0	0	0	0	0	0	0	0	0	0	0
070319	16:14:52	16:17:23	150432	5.0.10.0	5_exp_noRW	18	Rpleas_acq	CS_B	BZZB	VKKV	GWWG	YDDY	JXXJ	MQQM	retten	treu	schön	fair	ehrlich	spielen	rächen	tot	schlecht	faul	eitel	strafen	47pct	acq_USpleas_CSpleas2_noRW	acq1_noRW	1	53	0	0	300	300	422	50	0	1	1	blank2r.bmp	0	1	+	0	1	blank2r.bmp	252	1	VKKV	306	3	spielen	559	0	0	0	0	0	0	0	0	0	0	0	0	0	0	0	0	0	0	0	0	0	0	0	0	0	0	0	0	0	0	0	0	0	0	0	0	0	0	0
070319	16:14:52	16:17:25	152178	5.0.10.0	5_exp_noRW	18	Rpleas_acq	CS_B	BZZB	VKKV	GWWG	YDDY	JXXJ	MQQM	retten	treu	schön	fair	ehrlich	spielen	rächen	tot	schlecht	faul	eitel	strafen	47pct	acq_USunple_CSunple1_noRW	acq1_noRW	1	54	0	0	300	300	568	46	0	1	1	blank2r.bmp	0	1	+	0	1	blank2r.bmp	252	1	GWWG	306	2	tot	559	0	0	0	0	0	0	0	0	0	0	0	0	0	0	0	0	0	0	0	0	0	0	0	0	0	0	0	0	0	0	0	0	0	0	0	0	0	0	0
070319	16:14:52	16:17:26	153764	5.0.10.0	5_exp_noRW	18	Rpleas_acq	CS_B	BZZB	VKKV	GWWG	YDDY	JXXJ	MQQM	retten	treu	schön	fair	ehrlich	spielen	rächen	tot	schlecht	faul	eitel	strafen	53pct	acq_USpleas_CSpleas1_noRW	acq1_noRW	1	55	0	0	300	300	423	50	0	1	1	blank2r.bmp	0	1	+	0	1	blank2r.bmp	252	1	BZZB	306	3	schön	559	0	0	0	0	0	0	0	0	0	0	0	0	0	0	0	0	0	0	0	0	0	0	0	0	0	0	0	0	0	0	0	0	0	0	0	0	0	0	0
070319	16:14:52	16:17:28	155336	5.0.10.0	5_exp_noRW	18	Rpleas_acq	CS_B	BZZB	VKKV	GWWG	YDDY	JXXJ	MQQM	retten	treu	schön	fair	ehrlich	spielen	rächen	tot	schlecht	faul	eitel	strafen	47pct	acq_USunple_CSunple2_noRW	acq1_noRW	1	56	0	0	300	300	392	46	0	1	1	blank2r.bmp	0	1	+	0	1	blank2r.bmp	252	1	YDDY	306	1	faul	559	0	0	0	0	0	0	0	0	0	0	0	0	0	0	0	0	0	0	0	0	0	0	0	0	0	0	0	0	0	0	0	0	0	0	0	0	0	0	0
070319	16:14:52	16:17:29	156989	5.0.10.0	5_exp_noRW	18	Rpleas_acq	CS_B	BZZB	VKKV	GWWG	YDDY	JXXJ	MQQM	retten	treu	schön	fair	ehrlich	spielen	rächen	tot	schlecht	faul	eitel	strafen	47pct	acq_USpleas_CSunple2_noRW	acq1_noRW	1	57	0	0	300	300	472	50	0	1	1	blank2r.bmp	0	1	+	0	1	blank2r.bmp	252	1	YDDY	306	2	ehrlich	559	0	0	0	0	0	0	0	0	0	0	0	0	0	0	0	0	0	0	0	0	0	0	0	0	0	0	0	0	0	0	0	0	0	0	0	0	0	0	0
070319	16:14:52	16:17:31	158615	5.0.10.0	5_exp_noRW	18	Rpleas_acq	CS_B	BZZB	VKKV	GWWG	YDDY	JXXJ	MQQM	retten	treu	schön	fair	ehrlich	spielen	rächen	tot	schlecht	faul	eitel	strafen	47pct	acq_USpleas_CSpleas1_noRW	acq1_noRW	1	58	0	0	300	300	439	50	0	1	1	blank2r.bmp	0	1	+	0	1	blank2r.bmp	252	1	BZZB	306	1	retten	559	0	0	0	0	0	0	0	0	0	0	0	0	0	0	0	0	0	0	0	0	0	0	0	0	0	0	0	0	0	0	0	0	0	0	0	0	0	0	0
070319	16:14:52	16:17:33	160201	5.0.10.0	5_exp_noRW	18	Rpleas_acq	CS_B	BZZB	VKKV	GWWG	YDDY	JXXJ	MQQM	retten	treu	schön	fair	ehrlich	spielen	rächen	tot	schlecht	faul	eitel	strafen	53pct	acq_USpleas_CSpleas2_noRW	acq1_noRW	1	59	0	0	300	300	401	50	0	1	1	blank2r.bmp	0	1	+	0	1	blank2r.bmp	252	1	VKKV	306	2	ehrlich	559	0	0	0	0	0	0	0	0	0	0	0	0	0	0	0	0	0	0	0	0	0	0	0	0	0	0	0	0	0	0	0	0	0	0	0	0	0	0	0
070319	16:14:52	16:17:34	161734	5.0.10.0	5_exp_noRW	18	Rpleas_acq	CS_B	BZZB	VKKV	GWWG	YDDY	JXXJ	MQQM	retten	treu	schön	fair	ehrlich	spielen	rächen	tot	schlecht	faul	eitel	strafen	47pct	acq_USpleas_CSpleas1_noRW	acq1_noRW	1	60	0	0	300	300	370	50	0	1	1	blank2r.bmp	0	1	+	0	1	blank2r.bmp	252	1	BZZB	306	2	treu	559	0	0	0	0	0	0	0	0	0	0	0	0	0	0	0	0	0	0	0	0	0	0	0	0	0	0	0	0	0	0	0	0	0	0	0	0	0	0	0
070319	16:14:52	16:17:36	163600	5.0.10.0	5_exp_noRW	18	Rpleas_acq	CS_B	BZZB	VKKV	GWWG	YDDY	JXXJ	MQQM	retten	treu	schön	fair	ehrlich	spielen	rächen	tot	schlecht	faul	eitel	strafen	47pct	acq_USunple_CSunple2_noRW	acq1_noRW	1	61	0	0	300	300	685	46	0	1	1	blank2r.bmp	0	1	+	0	1	blank2r.bmp	252	1	YDDY	306	3	strafen	559	0	0	0	0	0	0	0	0	0	0	0	0	0	0	0	0	0	0	0	0	0	0	0	0	0	0	0	0	0	0	0	0	0	0	0	0	0	0	0
070319	16:14:52	16:17:38	165279	5.0.10.0	5_exp_noRW	18	Rpleas_acq	CS_B	BZZB	VKKV	GWWG	YDDY	JXXJ	MQQM	retten	treu	schön	fair	ehrlich	spielen	rächen	tot	schlecht	faul	eitel	strafen	53pct	acq_USpleas_CSpleas1_noRW	acq1_noRW	1	62	0	0	300	300	512	50	0	1	1	blank2r.bmp	0	1	+	0	1	blank2r.bmp	252	1	BZZB	306	2	treu	559	0	0	0	0	0	0	0	0	0	0	0	0	0	0	0	0	0	0	0	0	0	0	0	0	0	0	0	0	0	0	0	0	0	0	0	0	0	0	0
070319	16:14:52	16:17:40	167078	5.0.10.0	5_exp_noRW	18	Rpleas_acq	CS_B	BZZB	VKKV	GWWG	YDDY	JXXJ	MQQM	retten	treu	schön	fair	ehrlich	spielen	rächen	tot	schlecht	faul	eitel	strafen	53pct	acq_USpleas_CSpleas2_noRW	acq1_noRW	1	63	0	0	300	300	614	50	0	1	1	blank2r.bmp	0	1	+	0	1	blank2r.bmp	252	1	VKKV	306	2	ehrlich	559	0	0	0	0	0	0	0	0	0	0	0	0	0	0	0	0	0	0	0	0	0	0	0	0	0	0	0	0	0	0	0	0	0	0	0	0	0	0	0
070319	16:14:52	16:17:41	168731	5.0.10.0	5_exp_noRW	18	Rpleas_acq	CS_B	BZZB	VKKV	GWWG	YDDY	JXXJ	MQQM	retten	treu	schön	fair	ehrlich	spielen	rächen	tot	schlecht	faul	eitel	strafen	53pct	acq_USunple_CSunple1_noRW	acq1_noRW	1	64	0	0	300	300	487	46	0	1	1	blank2r.bmp	0	1	+	0	1	blank2r.bmp	252	1	GWWG	306	1	rächen	559	0	0	0	0	0	0	0	0	0	0	0	0	0	0	0	0	0	0	0	0	0	0	0	0	0	0	0	0	0	0	0	0	0	0	0	0	0	0	0
070319	16:14:52	16:17:43	170383	5.0.10.0	5_exp_noRW	18	Rpleas_acq	CS_B	BZZB	VKKV	GWWG	YDDY	JXXJ	MQQM	retten	treu	schön	fair	ehrlich	spielen	rächen	tot	schlecht	faul	eitel	strafen	47pct	acq_USunple_CSunple2_noRW	acq1_noRW	1	65	0	0	300	300	465	46	0	1	1	blank2r.bmp	0	1	+	0	1	blank2r.bmp	252	1	YDDY	306	1	faul	559	0	0	0	0	0	0	0	0	0	0	0	0	0	0	0	0	0	0	0	0	0	0	0	0	0	0	0	0	0	0	0	0	0	0	0	0	0	0	0
070319	16:14:52	16:17:45	172289	5.0.10.0	5_exp_noRW	18	Rpleas_acq	CS_B	BZZB	VKKV	GWWG	YDDY	JXXJ	MQQM	retten	treu	schön	fair	ehrlich	spielen	rächen	tot	schlecht	faul	eitel	strafen	47pct	acq_USpleas_CSpleas2_noRW	acq1_noRW	1	66	0	0	300	300	525	46	0	0	1	blank2r.bmp	0	1	+	0	1	blank2r.bmp	252	1	VKKV	306	1	fair	559	1	FEHLER	1119	0	0	0	0	0	0	0	0	0	0	0	0	0	0	0	0	0	0	0	0	0	0	0	0	0	0	0	0	0	0	0	0	0	0	0	0
070319	16:14:52	16:17:47	174395	5.0.10.0	5_exp_noRW	18	Rpleas_acq	CS_B	BZZB	VKKV	GWWG	YDDY	JXXJ	MQQM	retten	treu	schön	fair	ehrlich	spielen	rächen	tot	schlecht	faul	eitel	strafen	47pct	acq_USunple_CSunple2_noRW	acq1_noRW	1	67	0	0	300	300	1136	46	0	1	1	blank2r.bmp	0	1	+	0	1	blank2r.bmp	252	1	YDDY	306	2	eitel	559	0	0	0	0	0	0	0	0	0	0	0	0	0	0	0	0	0	0	0	0	0	0	0	0	0	0	0	0	0	0	0	0	0	0	0	0	0	0	0
070319	16:14:52	16:17:49	176128	5.0.10.0	5_exp_noRW	18	Rpleas_acq	CS_B	BZZB	VKKV	GWWG	YDDY	JXXJ	MQQM	retten	treu	schön	fair	ehrlich	spielen	rächen	tot	schlecht	faul	eitel	strafen	47pct	acq_USpleas_CSunple1_noRW	acq1_noRW	1	68	0	0	300	300	571	50	0	1	1	blank2r.bmp	0	1	+	0	1	blank2r.bmp	252	1	GWWG	306	2	treu	559	0	0	0	0	0	0	0	0	0	0	0	0	0	0	0	0	0	0	0	0	0	0	0	0	0	0	0	0	0	0	0	0	0	0	0	0	0	0	0
070319	16:14:52	16:17:50	177780	5.0.10.0	5_exp_noRW	18	Rpleas_acq	CS_B	BZZB	VKKV	GWWG	YDDY	JXXJ	MQQM	retten	treu	schön	fair	ehrlich	spielen	rächen	tot	schlecht	faul	eitel	strafen	53pct	acq_USpleas_CSpleas2_noRW	acq1_noRW	1	69	0	0	300	300	472	50	0	1	1	blank2r.bmp	0	1	+	0	1	blank2r.bmp	252	1	VKKV	306	3	spielen	559	0	0	0	0	0	0	0	0	0	0	0	0	0	0	0	0	0	0	0	0	0	0	0	0	0	0	0	0	0	0	0	0	0	0	0	0	0	0	0
070319	16:14:52	16:17:52	179433	5.0.10.0	5_exp_noRW	18	Rpleas_acq	CS_B	BZZB	VKKV	GWWG	YDDY	JXXJ	MQQM	retten	treu	schön	fair	ehrlich	spielen	rächen	tot	schlecht	faul	eitel	strafen	47pct	acq_USunple_CSpleas1_noRW	acq1_noRW	1	70	0	0	300	300	489	46	0	1	1	blank2r.bmp	0	1	+	0	1	blank2r.bmp	252	1	BZZB	306	1	rächen	559	0	0	0	0	0	0	0	0	0	0	0	0	0	0	0	0	0	0	0	0	0	0	0	0	0	0	0	0	0	0	0	0	0	0	0	0	0	0	0
070319	16:14:52	16:17:54	181086	5.0.10.0	5_exp_noRW	18	Rpleas_acq	CS_B	BZZB	VKKV	GWWG	YDDY	JXXJ	MQQM	retten	treu	schön	fair	ehrlich	spielen	rächen	tot	schlecht	faul	eitel	strafen	47pct	acq_USpleas_CSpleas1_noRW	acq1_noRW	1	71	0	0	300	300	467	50	0	1	1	blank2r.bmp	0	1	+	0	1	blank2r.bmp	252	1	BZZB	306	3	schön	559	0	0	0	0	0	0	0	0	0	0	0	0	0	0	0	0	0	0	0	0	0	0	0	0	0	0	0	0	0	0	0	0	0	0	0	0	0	0	0
070319	16:14:52	16:17:55	182712	5.0.10.0	5_exp_noRW	18	Rpleas_acq	CS_B	BZZB	VKKV	GWWG	YDDY	JXXJ	MQQM	retten	treu	schön	fair	ehrlich	spielen	rächen	tot	schlecht	faul	eitel	strafen	53pct	acq_USunple_CSpleas2_noRW	acq1_noRW	1	72	0	0	300	300	460	46	0	1	1	blank2r.bmp	0	1	+	0	1	blank2r.bmp	252	1	VKKV	306	3	strafen	559	0	0	0	0	0	0	0	0	0	0	0	0	0	0	0	0	0	0	0	0	0	0	0	0	0	0	0	0	0	0	0	0	0	0	0	0	0	0	0
070319	16:14:52	16:17:57	184338	5.0.10.0	5_exp_noRW	18	Rpleas_acq	CS_B	BZZB	VKKV	GWWG	YDDY	JXXJ	MQQM	retten	treu	schön	fair	ehrlich	spielen	rächen	tot	schlecht	faul	eitel	strafen	47pct	acq_USpleas_CSunple2_noRW	acq1_noRW	1	73	0	0	300	300	450	50	0	1	1	blank2r.bmp	0	1	+	0	1	blank2r.bmp	252	1	YDDY	306	3	spielen	559	0	0	0	0	0	0	0	0	0	0	0	0	0	0	0	0	0	0	0	0	0	0	0	0	0	0	0	0	0	0	0	0	0	0	0	0	0	0	0
070319	16:14:52	16:17:58	185990	5.0.10.0	5_exp_noRW	18	Rpleas_acq	CS_B	BZZB	VKKV	GWWG	YDDY	JXXJ	MQQM	retten	treu	schön	fair	ehrlich	spielen	rächen	tot	schlecht	faul	eitel	strafen	47pct	acq_USunple_CSunple1_noRW	acq1_noRW	1	74	0	0	300	300	477	46	0	1	1	blank2r.bmp	0	1	+	0	1	blank2r.bmp	252	1	GWWG	306	3	schlecht	559	0	0	0	0	0	0	0	0	0	0	0	0	0	0	0	0	0	0	0	0	0	0	0	0	0	0	0	0	0	0	0	0	0	0	0	0	0	0	0
070319	16:14:52	16:18:00	187710	5.0.10.0	5_exp_noRW	18	Rpleas_acq	CS_B	BZZB	VKKV	GWWG	YDDY	JXXJ	MQQM	retten	treu	schön	fair	ehrlich	spielen	rächen	tot	schlecht	faul	eitel	strafen	53pct	acq_USpleas_CSpleas1_noRW	acq1_noRW	1	75	0	0	300	300	536	50	0	1	1	blank2r.bmp	0	1	+	0	1	blank2r.bmp	252	1	BZZB	306	1	retten	559	0	0	0	0	0	0	0	0	0	0	0	0	0	0	0	0	0	0	0	0	0	0	0	0	0	0	0	0	0	0	0	0	0	0	0	0	0	0	0
070319	16:14:52	16:18:02	189269	5.0.10.0	5_exp_noRW	18	Rpleas_acq	CS_B	BZZB	VKKV	GWWG	YDDY	JXXJ	MQQM	retten	treu	schön	fair	ehrlich	spielen	rächen	tot	schlecht	faul	eitel	strafen	47pct	acq_USpleas_CSpleas1_noRW	acq1_noRW	1	76	0	0	300	300	378	50	0	1	1	blank2r.bmp	0	1	+	0	1	blank2r.bmp	252	1	BZZB	306	1	retten	559	0	0	0	0	0	0	0	0	0	0	0	0	0	0	0	0	0	0	0	0	0	0	0	0	0	0	0	0	0	0	0	0	0	0	0	0	0	0	0
070319	16:14:52	16:18:03	190988	5.0.10.0	5_exp_noRW	18	Rpleas_acq	CS_B	BZZB	VKKV	GWWG	YDDY	JXXJ	MQQM	retten	treu	schön	fair	ehrlich	spielen	rächen	tot	schlecht	faul	eitel	strafen	53pct	acq_USunple_CSunple2_noRW	acq1_noRW	1	77	0	0	300	300	535	46	0	1	1	blank2r.bmp	0	1	+	0	1	blank2r.bmp	252	1	YDDY	306	1	faul	559	0	0	0	0	0	0	0	0	0	0	0	0	0	0	0	0	0	0	0	0	0	0	0	0	0	0	0	0	0	0	0	0	0	0	0	0	0	0	0
070319	16:14:52	16:18:05	192641	5.0.10.0	5_exp_noRW	18	Rpleas_acq	CS_B	BZZB	VKKV	GWWG	YDDY	JXXJ	MQQM	retten	treu	schön	fair	ehrlich	spielen	rächen	tot	schlecht	faul	eitel	strafen	53pct	acq_USpleas_CSpleas2_noRW	acq1_noRW	1	78	0	0	300	300	484	50	0	1	1	blank2r.bmp	0	1	+	0	1	blank2r.bmp	252	1	VKKV	306	2	ehrlich	559	0	0	0	0	0	0	0	0	0	0	0	0	0	0	0	0	0	0	0	0	0	0	0	0	0	0	0	0	0	0	0	0	0	0	0	0	0	0	0
070319	16:14:52	16:18:07	194387	5.0.10.0	5_exp_noRW	18	Rpleas_acq	CS_B	BZZB	VKKV	GWWG	YDDY	JXXJ	MQQM	retten	treu	schön	fair	ehrlich	spielen	rächen	tot	schlecht	faul	eitel	strafen	53pct	acq_USunple_CSunple1_noRW	acq1_noRW	1	79	0	0	300	300	571	46	0	1	1	blank2r.bmp	0	1	+	0	1	blank2r.bmp	252	1	GWWG	306	2	tot	559	0	0	0	0	0	0	0	0	0	0	0	0	0	0	0	0	0	0	0	0	0	0	0	0	0	0	0	0	0	0	0	0	0	0	0	0	0	0	0
070319	16:14:52	16:18:09	196320	5.0.10.0	5_exp_noRW	18	Rpleas_acq	CS_B	BZZB	VKKV	GWWG	YDDY	JXXJ	MQQM	retten	treu	schön	fair	ehrlich	spielen	rächen	tot	schlecht	faul	eitel	strafen	47pct	acq_USunple_CSunple1_noRW	acq1_noRW	1	80	0	0	300	300	752	46	0	1	1	blank2r.bmp	0	1	+	0	1	blank2r.bmp	252	1	GWWG	306	3	schlecht	559	0	0	0	0	0	0	0	0	0	0	0	0	0	0	0	0	0	0	0	0	0	0	0	0	0	0	0	0	0	0	0	0	0	0	0	0	0	0	0
070319	16:14:52	16:18:21	208848	5.0.10.0	5_exp_noRW	18	Rpleas_acq	CS_B	BZZB	VKKV	GWWG	YDDY	JXXJ	MQQM	retten	treu	schön	fair	ehrlich	spielen	rächen	tot	schlecht	faul	eitel	strafen	53pct	acq_USunple_CSunple2_noRW	acq23456_noRW	2	1	0	0	300	300	892	46	0	1	1	blank2r.bmp	0	1	+	0	1	blank2r.bmp	252	1	YDDY	306	2	eitel	559	0	0	0	0	0	0	0	0	0	0	0	0	0	0	0	0	0	0	0	0	0	0	0	0	0	0	0	0	0	0	0	0	0	0	0	0	0	0	0
070319	16:14:52	16:18:23	210580	5.0.10.0	5_exp_noRW	18	Rpleas_acq	CS_B	BZZB	VKKV	GWWG	YDDY	JXXJ	MQQM	retten	treu	schön	fair	ehrlich	spielen	rächen	tot	schlecht	faul	eitel	strafen	47pct	acq_USpleas_CSpleas2_noRW	acq23456_noRW	2	2	0	0	300	300	554	50	0	1	1	blank2r.bmp	0	1	+	0	1	blank2r.bmp	252	1	VKKV	306	1	fair	559	0	0	0	0	0	0	0	0	0	0	0	0	0	0	0	0	0	0	0	0	0	0	0	0	0	0	0	0	0	0	0	0	0	0	0	0	0	0	0
070319	16:14:52	16:18:25	212460	5.0.10.0	5_exp_noRW	18	Rpleas_acq	CS_B	BZZB	VKKV	GWWG	YDDY	JXXJ	MQQM	retten	treu	schön	fair	ehrlich	spielen	rächen	tot	schlecht	faul	eitel	strafen	53pct	acq_USpleas_CSpleas1_noRW	acq23456_noRW	2	3	0	0	300	300	702	50	0	1	1	blank2r.bmp	0	1	+	0	1	blank2r.bmp	252	1	BZZB	306	2	treu	559	0	0	0	0	0	0	0	0	0	0	0	0	0	0	0	0	0	0	0	0	0	0	0	0	0	0	0	0	0	0	0	0	0	0	0	0	0	0	0
070319	16:14:52	16:18:26	214046	5.0.10.0	5_exp_noRW	18	Rpleas_acq	CS_B	BZZB	VKKV	GWWG	YDDY	JXXJ	MQQM	retten	treu	schön	fair	ehrlich	spielen	rächen	tot	schlecht	faul	eitel	strafen	53pct	acq_USpleas_CSpleas1_noRW	acq23456_noRW	2	4	0	0	300	300	401	50	0	1	1	blank2r.bmp	0	1	+	0	1	blank2r.bmp	252	1	BZZB	306	3	schön	559	0	0	0	0	0	0	0	0	0	0	0	0	0	0	0	0	0	0	0	0	0	0	0	0	0	0	0	0	0	0	0	0	0	0	0	0	0	0	0
070319	16:14:52	16:18:28	215698	5.0.10.0	5_exp_noRW	18	Rpleas_acq	CS_B	BZZB	VKKV	GWWG	YDDY	JXXJ	MQQM	retten	treu	schön	fair	ehrlich	spielen	rächen	tot	schlecht	faul	eitel	strafen	53pct	acq_USpleas_CSpleas2_noRW	acq23456_noRW	2	5	0	0	300	300	483	50	0	1	1	blank2r.bmp	0	1	+	0	1	blank2r.bmp	252	1	VKKV	306	3	spielen	559	0	0	0	0	0	0	0	0	0	0	0	0	0	0	0	0	0	0	0	0	0	0	0	0	0	0	0	0	0	0	0	0	0	0	0	0	0	0	0
070319	16:14:52	16:18:30	217351	5.0.10.0	5_exp_noRW	18	Rpleas_acq	CS_B	BZZB	VKKV	GWWG	YDDY	JXXJ	MQQM	retten	treu	schön	fair	ehrlich	spielen	rächen	tot	schlecht	faul	eitel	strafen	53pct	acq_USunple_CSunple1_noRW	acq23456_noRW	2	6	0	0	300	300	488	46	0	1	1	blank2r.bmp	0	1	+	0	1	blank2r.bmp	252	1	GWWG	306	1	rächen	559	0	0	0	0	0	0	0	0	0	0	0	0	0	0	0	0	0	0	0	0	0	0	0	0	0	0	0	0	0	0	0	0	0	0	0	0	0	0	0
070319	16:14:52	16:18:31	219030	5.0.10.0	5_exp_noRW	18	Rpleas_acq	CS_B	BZZB	VKKV	GWWG	YDDY	JXXJ	MQQM	retten	treu	schön	fair	ehrlich	spielen	rächen	tot	schlecht	faul	eitel	strafen	47pct	acq_USpleas_CSunple1_noRW	acq23456_noRW	2	7	0	0	300	300	501	50	0	1	1	blank2r.bmp	0	1	+	0	1	blank2r.bmp	252	1	GWWG	306	3	schön	559	0	0	0	0	0	0	0	0	0	0	0	0	0	0	0	0	0	0	0	0	0	0	0	0	0	0	0	0	0	0	0	0	0	0	0	0	0	0	0
070319	16:14:52	16:18:33	220656	5.0.10.0	5_exp_noRW	18	Rpleas_acq	CS_B	BZZB	VKKV	GWWG	YDDY	JXXJ	MQQM	retten	treu	schön	fair	ehrlich	spielen	rächen	tot	schlecht	faul	eitel	strafen	47pct	acq_USunple_CSunple1_noRW	acq23456_noRW	2	8	0	0	300	300	449	46	0	1	1	blank2r.bmp	0	1	+	0	1	blank2r.bmp	252	1	GWWG	306	2	tot	559	0	0	0	0	0	0	0	0	0	0	0	0	0	0	0	0	0	0	0	0	0	0	0	0	0	0	0	0	0	0	0	0	0	0	0	0	0	0	0
070319	16:14:52	16:18:35	222282	5.0.10.0	5_exp_noRW	18	Rpleas_acq	CS_B	BZZB	VKKV	GWWG	YDDY	JXXJ	MQQM	retten	treu	schön	fair	ehrlich	spielen	rächen	tot	schlecht	faul	eitel	strafen	53pct	acq_USpleas_CSpleas2_noRW	acq23456_noRW	2	9	0	0	300	300	450	50	0	1	1	blank2r.bmp	0	1	+	0	1	blank2r.bmp	252	1	VKKV	306	2	ehrlich	559	0	0	0	0	0	0	0	0	0	0	0	0	0	0	0	0	0	0	0	0	0	0	0	0	0	0	0	0	0	0	0	0	0	0	0	0	0	0	0
070319	16:14:52	16:18:36	223948	5.0.10.0	5_exp_noRW	18	Rpleas_acq	CS_B	BZZB	VKKV	GWWG	YDDY	JXXJ	MQQM	retten	treu	schön	fair	ehrlich	spielen	rächen	tot	schlecht	faul	eitel	strafen	53pct	acq_USpleas_CSunple2_noRW	acq23456_noRW	2	10	0	0	300	300	497	50	0	1	1	blank2r.bmp	0	1	+	0	1	blank2r.bmp	252	1	YDDY	306	1	fair	559	0	0	0	0	0	0	0	0	0	0	0	0	0	0	0	0	0	0	0	0	0	0	0	0	0	0	0	0	0	0	0	0	0	0	0	0	0	0	0
070319	16:14:52	16:18:38	225601	5.0.10.0	5_exp_noRW	18	Rpleas_acq	CS_B	BZZB	VKKV	GWWG	YDDY	JXXJ	MQQM	retten	treu	schön	fair	ehrlich	spielen	rächen	tot	schlecht	faul	eitel	strafen	53pct	acq_USunple_CSpleas1_noRW	acq23456_noRW	2	11	0	0	300	300	470	46	0	1	1	blank2r.bmp	0	1	+	0	1	blank2r.bmp	252	1	BZZB	306	3	schlecht	559	0	0	0	0	0	0	0	0	0	0	0	0	0	0	0	0	0	0	0	0	0	0	0	0	0	0	0	0	0	0	0	0	0	0	0	0	0	0	0
070319	16:14:52	16:18:40	227200	5.0.10.0	5_exp_noRW	18	Rpleas_acq	CS_B	BZZB	VKKV	GWWG	YDDY	JXXJ	MQQM	retten	treu	schön	fair	ehrlich	spielen	rächen	tot	schlecht	faul	eitel	strafen	53pct	acq_USunple_CSunple2_noRW	acq23456_noRW	2	12	0	0	300	300	413	46	0	1	1	blank2r.bmp	0	1	+	0	1	blank2r.bmp	252	1	YDDY	306	3	strafen	559	0	0	0	0	0	0	0	0	0	0	0	0	0	0	0	0	0	0	0	0	0	0	0	0	0	0	0	0	0	0	0	0	0	0	0	0	0	0	0
070319	16:14:52	16:18:41	228813	5.0.10.0	5_exp_noRW	18	Rpleas_acq	CS_B	BZZB	VKKV	GWWG	YDDY	JXXJ	MQQM	retten	treu	schön	fair	ehrlich	spielen	rächen	tot	schlecht	faul	eitel	strafen	47pct	acq_USunple_CSunple1_noRW	acq23456_noRW	2	13	0	0	300	300	444	46	0	1	1	blank2r.bmp	0	1	+	0	1	blank2r.bmp	252	1	GWWG	306	2	tot	559	0	0	0	0	0	0	0	0	0	0	0	0	0	0	0	0	0	0	0	0	0	0	0	0	0	0	0	0	0	0	0	0	0	0	0	0	0	0	0
070319	16:14:52	16:18:43	230346	5.0.10.0	5_exp_noRW	18	Rpleas_acq	CS_B	BZZB	VKKV	GWWG	YDDY	JXXJ	MQQM	retten	treu	schön	fair	ehrlich	spielen	rächen	tot	schlecht	faul	eitel	strafen	53pct	acq_USunple_CSpleas2_noRW	acq23456_noRW	2	14	0	0	300	300	353	46	0	1	1	blank2r.bmp	0	1	+	0	1	blank2r.bmp	252	1	VKKV	306	1	faul	559	0	0	0	0	0	0	0	0	0	0	0	0	0	0	0	0	0	0	0	0	0	0	0	0	0	0	0	0	0	0	0	0	0	0	0	0	0	0	0
070319	16:14:52	16:18:44	231985	5.0.10.0	5_exp_noRW	18	Rpleas_acq	CS_B	BZZB	VKKV	GWWG	YDDY	JXXJ	MQQM	retten	treu	schön	fair	ehrlich	spielen	rächen	tot	schlecht	faul	eitel	strafen	53pct	acq_USpleas_CSpleas1_noRW	acq23456_noRW	2	15	0	0	300	300	456	50	0	1	1	blank2r.bmp	0	1	+	0	1	blank2r.bmp	252	1	BZZB	306	1	retten	559	0	0	0	0	0	0	0	0	0	0	0	0	0	0	0	0	0	0	0	0	0	0	0	0	0	0	0	0	0	0	0	0	0	0	0	0	0	0	0
070319	16:14:52	16:18:46	233571	5.0.10.0	5_exp_noRW	18	Rpleas_acq	CS_B	BZZB	VKKV	GWWG	YDDY	JXXJ	MQQM	retten	treu	schön	fair	ehrlich	spielen	rächen	tot	schlecht	faul	eitel	strafen	53pct	acq_USunple_CSunple1_noRW	acq23456_noRW	2	16	0	0	300	300	424	46	0	1	1	blank2r.bmp	0	1	+	0	1	blank2r.bmp	252	1	GWWG	306	3	schlecht	559	0	0	0	0	0	0	0	0	0	0	0	0	0	0	0	0	0	0	0	0	0	0	0	0	0	0	0	0	0	0	0	0	0	0	0	0	0	0	0
070319	16:14:52	16:18:48	235290	5.0.10.0	5_exp_noRW	18	Rpleas_acq	CS_B	BZZB	VKKV	GWWG	YDDY	JXXJ	MQQM	retten	treu	schön	fair	ehrlich	spielen	rächen	tot	schlecht	faul	eitel	strafen	47pct	acq_USunple_CSunple2_noRW	acq23456_noRW	2	17	0	0	300	300	539	46	0	1	1	blank2r.bmp	0	1	+	0	1	blank2r.bmp	252	1	YDDY	306	1	faul	559	0	0	0	0	0	0	0	0	0	0	0	0	0	0	0	0	0	0	0	0	0	0	0	0	0	0	0	0	0	0	0	0	0	0	0	0	0	0	0
070319	16:14:52	16:18:49	236983	5.0.10.0	5_exp_noRW	18	Rpleas_acq	CS_B	BZZB	VKKV	GWWG	YDDY	JXXJ	MQQM	retten	treu	schön	fair	ehrlich	spielen	rächen	tot	schlecht	faul	eitel	strafen	53pct	acq_USpleas_CSpleas2_noRW	acq23456_noRW	2	18	0	0	300	300	517	50	0	1	1	blank2r.bmp	0	1	+	0	1	blank2r.bmp	252	1	VKKV	306	1	fair	559	0	0	0	0	0	0	0	0	0	0	0	0	0	0	0	0	0	0	0	0	0	0	0	0	0	0	0	0	0	0	0	0	0	0	0	0	0	0	0
070319	16:14:52	16:18:51	238702	5.0.10.0	5_exp_noRW	18	Rpleas_acq	CS_B	BZZB	VKKV	GWWG	YDDY	JXXJ	MQQM	retten	treu	schön	fair	ehrlich	spielen	rächen	tot	schlecht	faul	eitel	strafen	47pct	acq_USpleas_CSpleas1_noRW	acq23456_noRW	2	19	0	0	300	300	534	50	0	1	1	blank2r.bmp	0	1	+	0	1	blank2r.bmp	252	1	BZZB	306	2	treu	559	0	0	0	0	0	0	0	0	0	0	0	0	0	0	0	0	0	0	0	0	0	0	0	0	0	0	0	0	0	0	0	0	0	0	0	0	0	0	0
070319	16:14:52	16:18:53	240435	5.0.10.0	5_exp_noRW	18	Rpleas_acq	CS_B	BZZB	VKKV	GWWG	YDDY	JXXJ	MQQM	retten	treu	schön	fair	ehrlich	spielen	rächen	tot	schlecht	faul	eitel	strafen	47pct	acq_USunple_CSunple2_noRW	acq23456_noRW	2	20	0	0	300	300	561	46	0	1	1	blank2r.bmp	0	1	+	0	1	blank2r.bmp	252	1	YDDY	306	2	eitel	559	0	0	0	0	0	0	0	0	0	0	0	0	0	0	0	0	0	0	0	0	0	0	0	0	0	0	0	0	0	0	0	0	0	0	0	0	0	0	0
070319	16:14:52	16:18:55	242194	5.0.10.0	5_exp_noRW	18	Rpleas_acq	CS_B	BZZB	VKKV	GWWG	YDDY	JXXJ	MQQM	retten	treu	schön	fair	ehrlich	spielen	rächen	tot	schlecht	faul	eitel	strafen	53pct	acq_USunple_CSpleas1_noRW	acq23456_noRW	2	21	0	0	300	300	574	46	0	1	1	blank2r.bmp	0	1	+	0	1	blank2r.bmp	252	1	BZZB	306	2	tot	559	0	0	0	0	0	0	0	0	0	0	0	0	0	0	0	0	0	0	0	0	0	0	0	0	0	0	0	0	0	0	0	0	0	0	0	0	0	0	0
070319	16:14:52	16:18:56	243914	5.0.10.0	5_exp_noRW	18	Rpleas_acq	CS_B	BZZB	VKKV	GWWG	YDDY	JXXJ	MQQM	retten	treu	schön	fair	ehrlich	spielen	rächen	tot	schlecht	faul	eitel	strafen	53pct	acq_USpleas_CSpleas2_noRW	acq23456_noRW	2	22	0	0	300	300	554	50	0	1	1	blank2r.bmp	0	1	+	0	1	blank2r.bmp	252	1	VKKV	306	3	spielen	559	0	0	0	0	0	0	0	0	0	0	0	0	0	0	0	0	0	0	0	0	0	0	0	0	0	0	0	0	0	0	0	0	0	0	0	0	0	0	0
070319	16:14:52	16:18:58	245540	5.0.10.0	5_exp_noRW	18	Rpleas_acq	CS_B	BZZB	VKKV	GWWG	YDDY	JXXJ	MQQM	retten	treu	schön	fair	ehrlich	spielen	rächen	tot	schlecht	faul	eitel	strafen	53pct	acq_USunple_CSunple2_noRW	acq23456_noRW	2	23	0	0	300	300	440	46	0	1	1	blank2r.bmp	0	1	+	0	1	blank2r.bmp	252	1	YDDY	306	3	strafen	559	0	0	0	0	0	0	0	0	0	0	0	0	0	0	0	0	0	0	0	0	0	0	0	0	0	0	0	0	0	0	0	0	0	0	0	0	0	0	0
070319	16:14:52	16:19:00	247179	5.0.10.0	5_exp_noRW	18	Rpleas_acq	CS_B	BZZB	VKKV	GWWG	YDDY	JXXJ	MQQM	retten	treu	schön	fair	ehrlich	spielen	rächen	tot	schlecht	faul	eitel	strafen	47pct	acq_USunple_CSunple1_noRW	acq23456_noRW	2	24	0	0	300	300	464	46	0	1	1	blank2r.bmp	0	1	+	0	1	blank2r.bmp	252	1	GWWG	306	1	rächen	559	0	0	0	0	0	0	0	0	0	0	0	0	0	0	0	0	0	0	0	0	0	0	0	0	0	0	0	0	0	0	0	0	0	0	0	0	0	0	0
070319	16:14:52	16:19:01	248792	5.0.10.0	5_exp_noRW	18	Rpleas_acq	CS_B	BZZB	VKKV	GWWG	YDDY	JXXJ	MQQM	retten	treu	schön	fair	ehrlich	spielen	rächen	tot	schlecht	faul	eitel	strafen	53pct	acq_USpleas_CSunple2_noRW	acq23456_noRW	2	25	0	0	300	300	450	50	0	1	1	blank2r.bmp	0	1	+	0	1	blank2r.bmp	252	1	YDDY	306	2	ehrlich	559	0	0	0	0	0	0	0	0	0	0	0	0	0	0	0	0	0	0	0	0	0	0	0	0	0	0	0	0	0	0	0	0	0	0	0	0	0	0	0
070319	16:14:52	16:19:03	250498	5.0.10.0	5_exp_noRW	18	Rpleas_acq	CS_B	BZZB	VKKV	GWWG	YDDY	JXXJ	MQQM	retten	treu	schön	fair	ehrlich	spielen	rächen	tot	schlecht	faul	eitel	strafen	53pct	acq_USpleas_CSunple1_noRW	acq23456_noRW	2	26	0	0	300	300	531	50	0	1	1	blank2r.bmp	0	1	+	0	1	blank2r.bmp	252	1	GWWG	306	1	retten	559	0	0	0	0	0	0	0	0	0	0	0	0	0	0	0	0	0	0	0	0	0	0	0	0	0	0	0	0	0	0	0	0	0	0	0	0	0	0	0
070319	16:14:52	16:19:04	252030	5.0.10.0	5_exp_noRW	18	Rpleas_acq	CS_B	BZZB	VKKV	GWWG	YDDY	JXXJ	MQQM	retten	treu	schön	fair	ehrlich	spielen	rächen	tot	schlecht	faul	eitel	strafen	53pct	acq_USpleas_CSpleas1_noRW	acq23456_noRW	2	27	0	0	300	300	356	50	0	1	1	blank2r.bmp	0	1	+	0	1	blank2r.bmp	252	1	BZZB	306	3	schön	559	0	0	0	0	0	0	0	0	0	0	0	0	0	0	0	0	0	0	0	0	0	0	0	0	0	0	0	0	0	0	0	0	0	0	0	0	0	0	0
070319	16:14:52	16:19:07	254136	5.0.10.0	5_exp_noRW	18	Rpleas_acq	CS_B	BZZB	VKKV	GWWG	YDDY	JXXJ	MQQM	retten	treu	schön	fair	ehrlich	spielen	rächen	tot	schlecht	faul	eitel	strafen	53pct	acq_USunple_CSunple2_noRW	acq23456_noRW	2	28	0	0	300	300	721	50	0	0	1	blank2r.bmp	0	1	+	0	1	blank2r.bmp	252	1	YDDY	306	2	eitel	559	1	FEHLER	1319	0	0	0	0	0	0	0	0	0	0	0	0	0	0	0	0	0	0	0	0	0	0	0	0	0	0	0	0	0	0	0	0	0	0	0	0
070319	16:14:52	16:19:08	255589	5.0.10.0	5_exp_noRW	18	Rpleas_acq	CS_B	BZZB	VKKV	GWWG	YDDY	JXXJ	MQQM	retten	treu	schön	fair	ehrlich	spielen	rächen	tot	schlecht	faul	eitel	strafen	47pct	acq_USpleas_CSpleas2_noRW	acq23456_noRW	2	29	0	0	300	300	495	50	0	1	1	blank2r.bmp	0	1	+	0	1	blank2r.bmp	252	1	VKKV	306	2	ehrlich	559	0	0	0	0	0	0	0	0	0	0	0	0	0	0	0	0	0	0	0	0	0	0	0	0	0	0	0	0	0	0	0	0	0	0	0	0	0	0	0
070319	16:14:52	16:19:10	257268	5.0.10.0	5_exp_noRW	18	Rpleas_acq	CS_B	BZZB	VKKV	GWWG	YDDY	JXXJ	MQQM	retten	treu	schön	fair	ehrlich	spielen	rächen	tot	schlecht	faul	eitel	strafen	47pct	acq_USunple_CSunple1_noRW	acq23456_noRW	2	30	0	0	300	300	513	46	0	1	1	blank2r.bmp	0	1	+	0	1	blank2r.bmp	252	1	GWWG	306	1	rächen	559	0	0	0	0	0	0	0	0	0	0	0	0	0	0	0	0	0	0	0	0	0	0	0	0	0	0	0	0	0	0	0	0	0	0	0	0	0	0	0
070319	16:14:52	16:19:11	258987	5.0.10.0	5_exp_noRW	18	Rpleas_acq	CS_B	BZZB	VKKV	GWWG	YDDY	JXXJ	MQQM	retten	treu	schön	fair	ehrlich	spielen	rächen	tot	schlecht	faul	eitel	strafen	47pct	acq_USunple_CSpleas2_noRW	acq23456_noRW	2	31	0	0	300	300	544	46	0	1	1	blank2r.bmp	0	1	+	0	1	blank2r.bmp	252	1	VKKV	306	2	eitel	559	0	0	0	0	0	0	0	0	0	0	0	0	0	0	0	0	0	0	0	0	0	0	0	0	0	0	0	0	0	0	0	0	0	0	0	0	0	0	0
070319	16:14:52	16:19:13	260880	5.0.10.0	5_exp_noRW	18	Rpleas_acq	CS_B	BZZB	VKKV	GWWG	YDDY	JXXJ	MQQM	retten	treu	schön	fair	ehrlich	spielen	rächen	tot	schlecht	faul	eitel	strafen	53pct	acq_USpleas_CSpleas1_noRW	acq23456_noRW	2	32	0	0	300	300	707	50	0	1	1	blank2r.bmp	0	1	+	0	1	blank2r.bmp	252	1	BZZB	306	2	treu	559	0	0	0	0	0	0	0	0	0	0	0	0	0	0	0	0	0	0	0	0	0	0	0	0	0	0	0	0	0	0	0	0	0	0	0	0	0	0	0
070319	16:14:52	16:19:15	262573	5.0.10.0	5_exp_noRW	18	Rpleas_acq	CS_B	BZZB	VKKV	GWWG	YDDY	JXXJ	MQQM	retten	treu	schön	fair	ehrlich	spielen	rächen	tot	schlecht	faul	eitel	strafen	47pct	acq_USpleas_CSpleas2_noRW	acq23456_noRW	2	33	0	0	300	300	527	50	0	1	1	blank2r.bmp	0	1	+	0	1	blank2r.bmp	252	1	VKKV	306	3	spielen	559	0	0	0	0	0	0	0	0	0	0	0	0	0	0	0	0	0	0	0	0	0	0	0	0	0	0	0	0	0	0	0	0	0	0	0	0	0	0	0
070319	16:14:52	16:19:17	264319	5.0.10.0	5_exp_noRW	18	Rpleas_acq	CS_B	BZZB	VKKV	GWWG	YDDY	JXXJ	MQQM	retten	treu	schön	fair	ehrlich	spielen	rächen	tot	schlecht	faul	eitel	strafen	47pct	acq_USunple_CSunple2_noRW	acq23456_noRW	2	34	0	0	300	300	562	46	0	1	1	blank2r.bmp	0	1	+	0	1	blank2r.bmp	252	1	YDDY	306	3	strafen	559	0	0	0	0	0	0	0	0	0	0	0	0	0	0	0	0	0	0	0	0	0	0	0	0	0	0	0	0	0	0	0	0	0	0	0	0	0	0	0
070319	16:14:52	16:19:19	266091	5.0.10.0	5_exp_noRW	18	Rpleas_acq	CS_B	BZZB	VKKV	GWWG	YDDY	JXXJ	MQQM	retten	treu	schön	fair	ehrlich	spielen	rächen	tot	schlecht	faul	eitel	strafen	47pct	acq_USpleas_CSpleas1_noRW	acq23456_noRW	2	35	0	0	300	300	597	50	0	1	1	blank2r.bmp	0	1	+	0	1	blank2r.bmp	252	1	BZZB	306	1	retten	559	0	0	0	0	0	0	0	0	0	0	0	0	0	0	0	0	0	0	0	0	0	0	0	0	0	0	0	0	0	0	0	0	0	0	0	0	0	0	0
070319	16:14:52	16:19:20	267851	5.0.10.0	5_exp_noRW	18	Rpleas_acq	CS_B	BZZB	VKKV	GWWG	YDDY	JXXJ	MQQM	retten	treu	schön	fair	ehrlich	spielen	rächen	tot	schlecht	faul	eitel	strafen	53pct	acq_USunple_CSunple1_noRW	acq23456_noRW	2	36	0	0	300	300	581	46	0	1	1	blank2r.bmp	0	1	+	0	1	blank2r.bmp	252	1	GWWG	306	3	schlecht	559	0	0	0	0	0	0	0	0	0	0	0	0	0	0	0	0	0	0	0	0	0	0	0	0	0	0	0	0	0	0	0	0	0	0	0	0	0	0	0
070319	16:14:52	16:19:22	269463	5.0.10.0	5_exp_noRW	18	Rpleas_acq	CS_B	BZZB	VKKV	GWWG	YDDY	JXXJ	MQQM	retten	treu	schön	fair	ehrlich	spielen	rächen	tot	schlecht	faul	eitel	strafen	53pct	acq_USunple_CSunple1_noRW	acq23456_noRW	2	37	0	0	300	300	438	46	0	1	1	blank2r.bmp	0	1	+	0	1	blank2r.bmp	252	1	GWWG	306	2	tot	559	0	0	0	0	0	0	0	0	0	0	0	0	0	0	0	0	0	0	0	0	0	0	0	0	0	0	0	0	0	0	0	0	0	0	0	0	0	0	0
070319	16:14:52	16:19:24	271103	5.0.10.0	5_exp_noRW	18	Rpleas_acq	CS_B	BZZB	VKKV	GWWG	YDDY	JXXJ	MQQM	retten	treu	schön	fair	ehrlich	spielen	rächen	tot	schlecht	faul	eitel	strafen	47pct	acq_USpleas_CSpleas1_noRW	acq23456_noRW	2	38	0	0	300	300	472	50	0	1	1	blank2r.bmp	0	1	+	0	1	blank2r.bmp	252	1	BZZB	306	3	schön	559	0	0	0	0	0	0	0	0	0	0	0	0	0	0	0	0	0	0	0	0	0	0	0	0	0	0	0	0	0	0	0	0	0	0	0	0	0	0	0
070319	16:14:52	16:19:25	272822	5.0.10.0	5_exp_noRW	18	Rpleas_acq	CS_B	BZZB	VKKV	GWWG	YDDY	JXXJ	MQQM	retten	treu	schön	fair	ehrlich	spielen	rächen	tot	schlecht	faul	eitel	strafen	53pct	acq_USpleas_CSpleas2_noRW	acq23456_noRW	2	39	0	0	300	300	542	50	0	1	1	blank2r.bmp	0	1	+	0	1	blank2r.bmp	252	1	VKKV	306	1	fair	559	0	0	0	0	0	0	0	0	0	0	0	0	0	0	0	0	0	0	0	0	0	0	0	0	0	0	0	0	0	0	0	0	0	0	0	0	0	0	0
070319	16:14:52	16:19:27	274608	5.0.10.0	5_exp_noRW	18	Rpleas_acq	CS_B	BZZB	VKKV	GWWG	YDDY	JXXJ	MQQM	retten	treu	schön	fair	ehrlich	spielen	rächen	tot	schlecht	faul	eitel	strafen	47pct	acq_USunple_CSunple2_noRW	acq23456_noRW	2	40	0	0	300	300	600	46	0	1	1	blank2r.bmp	0	1	+	0	1	blank2r.bmp	252	1	YDDY	306	1	faul	559	0	0	0	0	0	0	0	0	0	0	0	0	0	0	0	0	0	0	0	0	0	0	0	0	0	0	0	0	0	0	0	0	0	0	0	0	0	0	0
070319	16:14:52	16:19:29	276260	5.0.10.0	5_exp_noRW	18	Rpleas_acq	CS_B	BZZB	VKKV	GWWG	YDDY	JXXJ	MQQM	retten	treu	schön	fair	ehrlich	spielen	rächen	tot	schlecht	faul	eitel	strafen	47pct	acq_USpleas_CSpleas2_noRW	acq23456_noRW	2	41	0	0	300	300	481	50	0	1	1	blank2r.bmp	0	1	+	0	1	blank2r.bmp	252	1	VKKV	306	2	ehrlich	559	0	0	0	0	0	0	0	0	0	0	0	0	0	0	0	0	0	0	0	0	0	0	0	0	0	0	0	0	0	0	0	0	0	0	0	0	0	0	0
070319	16:14:52	16:19:30	277886	5.0.10.0	5_exp_noRW	18	Rpleas_acq	CS_B	BZZB	VKKV	GWWG	YDDY	JXXJ	MQQM	retten	treu	schön	fair	ehrlich	spielen	rächen	tot	schlecht	faul	eitel	strafen	47pct	acq_USunple_CSpleas1_noRW	acq23456_noRW	2	42	0	0	300	300	457	46	0	1	1	blank2r.bmp	0	1	+	0	1	blank2r.bmp	252	1	BZZB	306	1	rächen	559	0	0	0	0	0	0	0	0	0	0	0	0	0	0	0	0	0	0	0	0	0	0	0	0	0	0	0	0	0	0	0	0	0	0	0	0	0	0	0
070319	16:14:52	16:19:32	279499	5.0.10.0	5_exp_noRW	18	Rpleas_acq	CS_B	BZZB	VKKV	GWWG	YDDY	JXXJ	MQQM	retten	treu	schön	fair	ehrlich	spielen	rächen	tot	schlecht	faul	eitel	strafen	47pct	acq_USunple_CSunple2_noRW	acq23456_noRW	2	43	0	0	300	300	443	46	0	1	1	blank2r.bmp	0	1	+	0	1	blank2r.bmp	252	1	YDDY	306	1	faul	559	0	0	0	0	0	0	0	0	0	0	0	0	0	0	0	0	0	0	0	0	0	0	0	0	0	0	0	0	0	0	0	0	0	0	0	0	0	0	0
070319	16:14:52	16:19:34	281178	5.0.10.0	5_exp_noRW	18	Rpleas_acq	CS_B	BZZB	VKKV	GWWG	YDDY	JXXJ	MQQM	retten	treu	schön	fair	ehrlich	spielen	rächen	tot	schlecht	faul	eitel	strafen	53pct	acq_USunple_CSunple2_noRW	acq23456_noRW	2	44	0	0	300	300	502	46	0	1	1	blank2r.bmp	0	1	+	0	1	blank2r.bmp	252	1	YDDY	306	3	strafen	559	0	0	0	0	0	0	0	0	0	0	0	0	0	0	0	0	0	0	0	0	0	0	0	0	0	0	0	0	0	0	0	0	0	0	0	0	0	0	0
070319	16:14:52	16:19:35	282951	5.0.10.0	5_exp_noRW	18	Rpleas_acq	CS_B	BZZB	VKKV	GWWG	YDDY	JXXJ	MQQM	retten	treu	schön	fair	ehrlich	spielen	rächen	tot	schlecht	faul	eitel	strafen	53pct	acq_USunple_CSpleas2_noRW	acq23456_noRW	2	45	0	0	300	300	598	46	0	1	1	blank2r.bmp	0	1	+	0	1	blank2r.bmp	252	1	VKKV	306	2	eitel	559	0	0	0	0	0	0	0	0	0	0	0	0	0	0	0	0	0	0	0	0	0	0	0	0	0	0	0	0	0	0	0	0	0	0	0	0	0	0	0
070319	16:14:52	16:19:37	284604	5.0.10.0	5_exp_noRW	18	Rpleas_acq	CS_B	BZZB	VKKV	GWWG	YDDY	JXXJ	MQQM	retten	treu	schön	fair	ehrlich	spielen	rächen	tot	schlecht	faul	eitel	strafen	53pct	acq_USunple_CSunple1_noRW	acq23456_noRW	2	46	0	0	300	300	463	46	0	1	1	blank2r.bmp	0	1	+	0	1	blank2r.bmp	252	1	GWWG	306	1	rächen	559	0	0	0	0	0	0	0	0	0	0	0	0	0	0	0	0	0	0	0	0	0	0	0	0	0	0	0	0	0	0	0	0	0	0	0	0	0	0	0
070319	16:14:52	16:19:39	286216	5.0.10.0	5_exp_noRW	18	Rpleas_acq	CS_B	BZZB	VKKV	GWWG	YDDY	JXXJ	MQQM	retten	treu	schön	fair	ehrlich	spielen	rächen	tot	schlecht	faul	eitel	strafen	47pct	acq_USunple_CSunple1_noRW	acq23456_noRW	2	47	0	0	300	300	439	46	0	1	1	blank2r.bmp	0	1	+	0	1	blank2r.bmp	252	1	GWWG	306	2	tot	559	0	0	0	0	0	0	0	0	0	0	0	0	0	0	0	0	0	0	0	0	0	0	0	0	0	0	0	0	0	0	0	0	0	0	0	0	0	0	0
070319	16:14:52	16:19:40	287896	5.0.10.0	5_exp_noRW	18	Rpleas_acq	CS_B	BZZB	VKKV	GWWG	YDDY	JXXJ	MQQM	retten	treu	schön	fair	ehrlich	spielen	rächen	tot	schlecht	faul	eitel	strafen	53pct	acq_USunple_CSunple2_noRW	acq23456_noRW	2	48	0	0	300	300	506	46	0	1	1	blank2r.bmp	0	1	+	0	1	blank2r.bmp	252	1	YDDY	306	2	eitel	559	0	0	0	0	0	0	0	0	0	0	0	0	0	0	0	0	0	0	0	0	0	0	0	0	0	0	0	0	0	0	0	0	0	0	0	0	0	0	0
070319	16:14:52	16:19:42	289588	5.0.10.0	5_exp_noRW	18	Rpleas_acq	CS_B	BZZB	VKKV	GWWG	YDDY	JXXJ	MQQM	retten	treu	schön	fair	ehrlich	spielen	rächen	tot	schlecht	faul	eitel	strafen	47pct	acq_USpleas_CSpleas1_noRW	acq23456_noRW	2	49	0	0	300	300	526	50	0	1	1	blank2r.bmp	0	1	+	0	1	blank2r.bmp	252	1	BZZB	306	1	retten	559	0	0	0	0	0	0	0	0	0	0	0	0	0	0	0	0	0	0	0	0	0	0	0	0	0	0	0	0	0	0	0	0	0	0	0	0	0	0	0
070319	16:14:52	16:19:44	291294	5.0.10.0	5_exp_noRW	18	Rpleas_acq	CS_B	BZZB	VKKV	GWWG	YDDY	JXXJ	MQQM	retten	treu	schön	fair	ehrlich	spielen	rächen	tot	schlecht	faul	eitel	strafen	53pct	acq_USpleas_CSpleas2_noRW	acq23456_noRW	2	50	0	0	300	300	519	50	0	1	1	blank2r.bmp	0	1	+	0	1	blank2r.bmp	252	1	VKKV	306	3	spielen	559	0	0	0	0	0	0	0	0	0	0	0	0	0	0	0	0	0	0	0	0	0	0	0	0	0	0	0	0	0	0	0	0	0	0	0	0	0	0	0
070319	16:14:52	16:19:45	292867	5.0.10.0	5_exp_noRW	18	Rpleas_acq	CS_B	BZZB	VKKV	GWWG	YDDY	JXXJ	MQQM	retten	treu	schön	fair	ehrlich	spielen	rächen	tot	schlecht	faul	eitel	strafen	53pct	acq_USpleas_CSpleas1_noRW	acq23456_noRW	2	51	0	0	300	300	386	50	0	1	1	blank2r.bmp	0	1	+	0	1	blank2r.bmp	252	1	BZZB	306	3	schön	559	0	0	0	0	0	0	0	0	0	0	0	0	0	0	0	0	0	0	0	0	0	0	0	0	0	0	0	0	0	0	0	0	0	0	0	0	0	0	0
070319	16:14:52	16:19:47	294546	5.0.10.0	5_exp_noRW	18	Rpleas_acq	CS_B	BZZB	VKKV	GWWG	YDDY	JXXJ	MQQM	retten	treu	schön	fair	ehrlich	spielen	rächen	tot	schlecht	faul	eitel	strafen	53pct	acq_USpleas_CSpleas1_noRW	acq23456_noRW	2	52	0	0	300	300	505	50	0	1	1	blank2r.bmp	0	1	+	0	1	blank2r.bmp	252	1	BZZB	306	2	treu	559	0	0	0	0	0	0	0	0	0	0	0	0	0	0	0	0	0	0	0	0	0	0	0	0	0	0	0	0	0	0	0	0	0	0	0	0	0	0	0
070319	16:14:52	16:19:49	296119	5.0.10.0	5_exp_noRW	18	Rpleas_acq	CS_B	BZZB	VKKV	GWWG	YDDY	JXXJ	MQQM	retten	treu	schön	fair	ehrlich	spielen	rächen	tot	schlecht	faul	eitel	strafen	47pct	acq_USunple_CSunple1_noRW	acq23456_noRW	2	53	0	0	300	300	409	46	0	1	1	blank2r.bmp	0	1	+	0	1	blank2r.bmp	252	1	GWWG	306	3	schlecht	559	0	0	0	0	0	0	0	0	0	0	0	0	0	0	0	0	0	0	0	0	0	0	0	0	0	0	0	0	0	0	0	0	0	0	0	0	0	0	0
070319	16:14:52	16:19:50	297745	5.0.10.0	5_exp_noRW	18	Rpleas_acq	CS_B	BZZB	VKKV	GWWG	YDDY	JXXJ	MQQM	retten	treu	schön	fair	ehrlich	spielen	rächen	tot	schlecht	faul	eitel	strafen	53pct	acq_USunple_CSunple1_noRW	acq23456_noRW	2	54	0	0	300	300	451	46	0	1	1	blank2r.bmp	0	1	+	0	1	blank2r.bmp	252	1	GWWG	306	3	schlecht	559	0	0	0	0	0	0	0	0	0	0	0	0	0	0	0	0	0	0	0	0	0	0	0	0	0	0	0	0	0	0	0	0	0	0	0	0	0	0	0
070319	16:14:52	16:19:52	299331	5.0.10.0	5_exp_noRW	18	Rpleas_acq	CS_B	BZZB	VKKV	GWWG	YDDY	JXXJ	MQQM	retten	treu	schön	fair	ehrlich	spielen	rächen	tot	schlecht	faul	eitel	strafen	53pct	acq_USpleas_CSpleas1_noRW	acq23456_noRW	2	55	0	0	300	300	401	50	0	1	1	blank2r.bmp	0	1	+	0	1	blank2r.bmp	252	1	BZZB	306	2	treu	559	0	0	0	0	0	0	0	0	0	0	0	0	0	0	0	0	0	0	0	0	0	0	0	0	0	0	0	0	0	0	0	0	0	0	0	0	0	0	0
070319	16:14:52	16:19:53	300957	5.0.10.0	5_exp_noRW	18	Rpleas_acq	CS_B	BZZB	VKKV	GWWG	YDDY	JXXJ	MQQM	retten	treu	schön	fair	ehrlich	spielen	rächen	tot	schlecht	faul	eitel	strafen	53pct	acq_USpleas_CSpleas2_noRW	acq23456_noRW	2	56	0	0	300	300	464	50	0	1	1	blank2r.bmp	0	1	+	0	1	blank2r.bmp	252	1	VKKV	306	1	fair	559	0	0	0	0	0	0	0	0	0	0	0	0	0	0	0	0	0	0	0	0	0	0	0	0	0	0	0	0	0	0	0	0	0	0	0	0	0	0	0
070319	16:14:52	16:19:55	302703	5.0.10.0	5_exp_noRW	18	Rpleas_acq	CS_B	BZZB	VKKV	GWWG	YDDY	JXXJ	MQQM	retten	treu	schön	fair	ehrlich	spielen	rächen	tot	schlecht	faul	eitel	strafen	53pct	acq_USpleas_CSpleas2_noRW	acq23456_noRW	2	57	0	0	300	300	561	50	0	1	1	blank2r.bmp	0	1	+	0	1	blank2r.bmp	252	1	VKKV	306	2	ehrlich	559	0	0	0	0	0	0	0	0	0	0	0	0	0	0	0	0	0	0	0	0	0	0	0	0	0	0	0	0	0	0	0	0	0	0	0	0	0	0	0
070319	16:14:52	16:19:57	304342	5.0.10.0	5_exp_noRW	18	Rpleas_acq	CS_B	BZZB	VKKV	GWWG	YDDY	JXXJ	MQQM	retten	treu	schön	fair	ehrlich	spielen	rächen	tot	schlecht	faul	eitel	strafen	53pct	acq_USunple_CSunple2_noRW	acq23456_noRW	2	58	0	0	300	300	475	46	0	1	1	blank2r.bmp	0	1	+	0	1	blank2r.bmp	252	1	YDDY	306	1	faul	559	0	0	0	0	0	0	0	0	0	0	0	0	0	0	0	0	0	0	0	0	0	0	0	0	0	0	0	0	0	0	0	0	0	0	0	0	0	0	0
070319	16:14:52	16:19:58	305942	5.0.10.0	5_exp_noRW	18	Rpleas_acq	CS_B	BZZB	VKKV	GWWG	YDDY	JXXJ	MQQM	retten	treu	schön	fair	ehrlich	spielen	rächen	tot	schlecht	faul	eitel	strafen	53pct	acq_USpleas_CSunple2_noRW	acq23456_noRW	2	59	0	0	300	300	423	50	0	1	1	blank2r.bmp	0	1	+	0	1	blank2r.bmp	252	1	YDDY	306	2	ehrlich	559	0	0	0	0	0	0	0	0	0	0	0	0	0	0	0	0	0	0	0	0	0	0	0	0	0	0	0	0	0	0	0	0	0	0	0	0	0	0	0
070319	16:14:52	16:20:00	307688	5.0.10.0	5_exp_noRW	18	Rpleas_acq	CS_B	BZZB	VKKV	GWWG	YDDY	JXXJ	MQQM	retten	treu	schön	fair	ehrlich	spielen	rächen	tot	schlecht	faul	eitel	strafen	47pct	acq_USpleas_CSunple1_noRW	acq23456_noRW	2	60	0	0	300	300	563	50	0	1	1	blank2r.bmp	0	1	+	0	1	blank2r.bmp	252	1	GWWG	306	2	treu	559	0	0	0	0	0	0	0	0	0	0	0	0	0	0	0	0	0	0	0	0	0	0	0	0	0	0	0	0	0	0	0	0	0	0	0	0	0	0	0
070319	16:14:52	16:20:02	309354	5.0.10.0	5_exp_noRW	18	Rpleas_acq	CS_B	BZZB	VKKV	GWWG	YDDY	JXXJ	MQQM	retten	treu	schön	fair	ehrlich	spielen	rächen	tot	schlecht	faul	eitel	strafen	53pct	acq_USpleas_CSunple1_noRW	acq23456_noRW	2	61	0	0	300	300	486	50	0	1	1	blank2r.bmp	0	1	+	0	1	blank2r.bmp	252	1	GWWG	306	1	retten	559	0	0	0	0	0	0	0	0	0	0	0	0	0	0	0	0	0	0	0	0	0	0	0	0	0	0	0	0	0	0	0	0	0	0	0	0	0	0	0
070319	16:14:52	16:20:03	310980	5.0.10.0	5_exp_noRW	18	Rpleas_acq	CS_B	BZZB	VKKV	GWWG	YDDY	JXXJ	MQQM	retten	treu	schön	fair	ehrlich	spielen	rächen	tot	schlecht	faul	eitel	strafen	53pct	acq_USpleas_CSpleas2_noRW	acq23456_noRW	2	62	0	0	300	300	449	50	0	1	1	blank2r.bmp	0	1	+	0	1	blank2r.bmp	252	1	VKKV	306	1	fair	559	0	0	0	0	0	0	0	0	0	0	0	0	0	0	0	0	0	0	0	0	0	0	0	0	0	0	0	0	0	0	0	0	0	0	0	0	0	0	0
070319	16:14:52	16:20:05	312619	5.0.10.0	5_exp_noRW	18	Rpleas_acq	CS_B	BZZB	VKKV	GWWG	YDDY	JXXJ	MQQM	retten	treu	schön	fair	ehrlich	spielen	rächen	tot	schlecht	faul	eitel	strafen	53pct	acq_USunple_CSunple2_noRW	acq23456_noRW	2	63	0	0	300	300	457	46	0	1	1	blank2r.bmp	0	1	+	0	1	blank2r.bmp	252	1	YDDY	306	2	eitel	559	0	0	0	0	0	0	0	0	0	0	0	0	0	0	0	0	0	0	0	0	0	0	0	0	0	0	0	0	0	0	0	0	0	0	0	0	0	0	0
070319	16:14:52	16:20:07	314258	5.0.10.0	5_exp_noRW	18	Rpleas_acq	CS_B	BZZB	VKKV	GWWG	YDDY	JXXJ	MQQM	retten	treu	schön	fair	ehrlich	spielen	rächen	tot	schlecht	faul	eitel	strafen	53pct	acq_USpleas_CSunple2_noRW	acq23456_noRW	2	64	0	0	300	300	454	50	0	1	1	blank2r.bmp	0	1	+	0	1	blank2r.bmp	252	1	YDDY	306	3	spielen	559	0	0	0	0	0	0	0	0	0	0	0	0	0	0	0	0	0	0	0	0	0	0	0	0	0	0	0	0	0	0	0	0	0	0	0	0	0	0	0
070319	16:14:52	16:20:08	316031	5.0.10.0	5_exp_noRW	18	Rpleas_acq	CS_B	BZZB	VKKV	GWWG	YDDY	JXXJ	MQQM	retten	treu	schön	fair	ehrlich	spielen	rächen	tot	schlecht	faul	eitel	strafen	47pct	acq_USpleas_CSpleas1_noRW	acq23456_noRW	2	65	0	0	300	300	602	50	0	1	1	blank2r.bmp	0	1	+	0	1	blank2r.bmp	252	1	BZZB	306	1	retten	559	0	0	0	0	0	0	0	0	0	0	0	0	0	0	0	0	0	0	0	0	0	0	0	0	0	0	0	0	0	0	0	0	0	0	0	0	0	0	0
070319	16:14:52	16:20:10	317657	5.0.10.0	5_exp_noRW	18	Rpleas_acq	CS_B	BZZB	VKKV	GWWG	YDDY	JXXJ	MQQM	retten	treu	schön	fair	ehrlich	spielen	rächen	tot	schlecht	faul	eitel	strafen	53pct	acq_USunple_CSunple1_noRW	acq23456_noRW	2	66	0	0	300	300	447	46	0	1	1	blank2r.bmp	0	1	+	0	1	blank2r.bmp	252	1	GWWG	306	2	tot	559	0	0	0	0	0	0	0	0	0	0	0	0	0	0	0	0	0	0	0	0	0	0	0	0	0	0	0	0	0	0	0	0	0	0	0	0	0	0	0
070319	16:14:52	16:20:12	319550	5.0.10.0	5_exp_noRW	18	Rpleas_acq	CS_B	BZZB	VKKV	GWWG	YDDY	JXXJ	MQQM	retten	treu	schön	fair	ehrlich	spielen	rächen	tot	schlecht	faul	eitel	strafen	47pct	acq_USpleas_CSpleas2_noRW	acq23456_noRW	2	67	0	0	300	300	706	50	0	1	1	blank2r.bmp	0	1	+	0	1	blank2r.bmp	252	1	VKKV	306	3	spielen	559	0	0	0	0	0	0	0	0	0	0	0	0	0	0	0	0	0	0	0	0	0	0	0	0	0	0	0	0	0	0	0	0	0	0	0	0	0	0	0
070319	16:14:52	16:20:14	321149	5.0.10.0	5_exp_noRW	18	Rpleas_acq	CS_B	BZZB	VKKV	GWWG	YDDY	JXXJ	MQQM	retten	treu	schön	fair	ehrlich	spielen	rächen	tot	schlecht	faul	eitel	strafen	47pct	acq_USunple_CSpleas1_noRW	acq23456_noRW	2	68	0	0	300	300	437	46	0	1	1	blank2r.bmp	0	1	+	0	1	blank2r.bmp	252	1	BZZB	306	3	schlecht	559	0	0	0	0	0	0	0	0	0	0	0	0	0	0	0	0	0	0	0	0	0	0	0	0	0	0	0	0	0	0	0	0	0	0	0	0	0	0	0
070319	16:14:52	16:20:15	322802	5.0.10.0	5_exp_noRW	18	Rpleas_acq	CS_B	BZZB	VKKV	GWWG	YDDY	JXXJ	MQQM	retten	treu	schön	fair	ehrlich	spielen	rächen	tot	schlecht	faul	eitel	strafen	47pct	acq_USunple_CSunple1_noRW	acq23456_noRW	2	69	0	0	300	300	472	46	0	1	1	blank2r.bmp	0	1	+	0	1	blank2r.bmp	252	1	GWWG	306	1	rächen	559	0	0	0	0	0	0	0	0	0	0	0	0	0	0	0	0	0	0	0	0	0	0	0	0	0	0	0	0	0	0	0	0	0	0	0	0	0	0	0
070319	16:14:52	16:20:17	324321	5.0.10.0	5_exp_noRW	18	Rpleas_acq	CS_B	BZZB	VKKV	GWWG	YDDY	JXXJ	MQQM	retten	treu	schön	fair	ehrlich	spielen	rächen	tot	schlecht	faul	eitel	strafen	47pct	acq_USunple_CSunple1_noRW	acq23456_noRW	2	70	0	0	300	300	333	46	0	1	1	blank2r.bmp	0	1	+	0	1	blank2r.bmp	252	1	GWWG	306	2	tot	559	0	0	0	0	0	0	0	0	0	0	0	0	0	0	0	0	0	0	0	0	0	0	0	0	0	0	0	0	0	0	0	0	0	0	0	0	0	0	0
070319	16:14:52	16:20:18	325894	5.0.10.0	5_exp_noRW	18	Rpleas_acq	CS_B	BZZB	VKKV	GWWG	YDDY	JXXJ	MQQM	retten	treu	schön	fair	ehrlich	spielen	rächen	tot	schlecht	faul	eitel	strafen	53pct	acq_USunple_CSpleas2_noRW	acq23456_noRW	2	71	0	0	300	300	407	46	0	1	1	blank2r.bmp	0	1	+	0	1	blank2r.bmp	252	1	VKKV	306	1	faul	559	0	0	0	0	0	0	0	0	0	0	0	0	0	0	0	0	0	0	0	0	0	0	0	0	0	0	0	0	0	0	0	0	0	0	0	0	0	0	0
070319	16:14:52	16:20:20	327440	5.0.10.0	5_exp_noRW	18	Rpleas_acq	CS_B	BZZB	VKKV	GWWG	YDDY	JXXJ	MQQM	retten	treu	schön	fair	ehrlich	spielen	rächen	tot	schlecht	faul	eitel	strafen	47pct	acq_USunple_CSunple2_noRW	acq23456_noRW	2	72	0	0	300	300	362	46	0	1	1	blank2r.bmp	0	1	+	0	1	blank2r.bmp	252	1	YDDY	306	3	strafen	559	0	0	0	0	0	0	0	0	0	0	0	0	0	0	0	0	0	0	0	0	0	0	0	0	0	0	0	0	0	0	0	0	0	0	0	0	0	0	0
070319	16:14:52	16:20:21	328999	5.0.10.0	5_exp_noRW	18	Rpleas_acq	CS_B	BZZB	VKKV	GWWG	YDDY	JXXJ	MQQM	retten	treu	schön	fair	ehrlich	spielen	rächen	tot	schlecht	faul	eitel	strafen	47pct	acq_USpleas_CSpleas1_noRW	acq23456_noRW	2	73	0	0	300	300	372	50	0	1	1	blank2r.bmp	0	1	+	0	1	blank2r.bmp	252	1	BZZB	306	3	schön	559	0	0	0	0	0	0	0	0	0	0	0	0	0	0	0	0	0	0	0	0	0	0	0	0	0	0	0	0	0	0	0	0	0	0	0	0	0	0	0
070319	16:14:52	16:20:23	330585	5.0.10.0	5_exp_noRW	18	Rpleas_acq	CS_B	BZZB	VKKV	GWWG	YDDY	JXXJ	MQQM	retten	treu	schön	fair	ehrlich	spielen	rächen	tot	schlecht	faul	eitel	strafen	53pct	acq_USunple_CSunple2_noRW	acq23456_noRW	2	74	0	0	300	300	408	46	0	1	1	blank2r.bmp	0	1	+	0	1	blank2r.bmp	252	1	YDDY	306	2	eitel	559	0	0	0	0	0	0	0	0	0	0	0	0	0	0	0	0	0	0	0	0	0	0	0	0	0	0	0	0	0	0	0	0	0	0	0	0	0	0	0
070319	16:14:52	16:20:25	332304	5.0.10.0	5_exp_noRW	18	Rpleas_acq	CS_B	BZZB	VKKV	GWWG	YDDY	JXXJ	MQQM	retten	treu	schön	fair	ehrlich	spielen	rächen	tot	schlecht	faul	eitel	strafen	53pct	acq_USpleas_CSpleas1_noRW	acq23456_noRW	2	75	0	0	300	300	542	50	0	1	1	blank2r.bmp	0	1	+	0	1	blank2r.bmp	252	1	BZZB	306	2	treu	559	0	0	0	0	0	0	0	0	0	0	0	0	0	0	0	0	0	0	0	0	0	0	0	0	0	0	0	0	0	0	0	0	0	0	0	0	0	0	0
070319	16:14:52	16:20:26	334037	5.0.10.0	5_exp_noRW	18	Rpleas_acq	CS_B	BZZB	VKKV	GWWG	YDDY	JXXJ	MQQM	retten	treu	schön	fair	ehrlich	spielen	rächen	tot	schlecht	faul	eitel	strafen	47pct	acq_USpleas_CSpleas2_noRW	acq23456_noRW	2	76	0	0	300	300	546	50	0	1	1	blank2r.bmp	0	1	+	0	1	blank2r.bmp	252	1	VKKV	306	2	ehrlich	559	0	0	0	0	0	0	0	0	0	0	0	0	0	0	0	0	0	0	0	0	0	0	0	0	0	0	0	0	0	0	0	0	0	0	0	0	0	0	0
070319	16:14:52	16:20:28	335703	5.0.10.0	5_exp_noRW	18	Rpleas_acq	CS_B	BZZB	VKKV	GWWG	YDDY	JXXJ	MQQM	retten	treu	schön	fair	ehrlich	spielen	rächen	tot	schlecht	faul	eitel	strafen	47pct	acq_USunple_CSunple1_noRW	acq23456_noRW	2	77	0	0	300	300	488	46	0	1	1	blank2r.bmp	0	1	+	0	1	blank2r.bmp	252	1	GWWG	306	3	schlecht	559	0	0	0	0	0	0	0	0	0	0	0	0	0	0	0	0	0	0	0	0	0	0	0	0	0	0	0	0	0	0	0	0	0	0	0	0	0	0	0
070319	16:14:52	16:20:30	337302	5.0.10.0	5_exp_noRW	18	Rpleas_acq	CS_B	BZZB	VKKV	GWWG	YDDY	JXXJ	MQQM	retten	treu	schön	fair	ehrlich	spielen	rächen	tot	schlecht	faul	eitel	strafen	53pct	acq_USunple_CSunple2_noRW	acq23456_noRW	2	78	0	0	300	300	415	46	0	1	1	blank2r.bmp	0	1	+	0	1	blank2r.bmp	252	1	YDDY	306	1	faul	559	0	0	0	0	0	0	0	0	0	0	0	0	0	0	0	0	0	0	0	0	0	0	0	0	0	0	0	0	0	0	0	0	0	0	0	0	0	0	0
070319	16:14:52	16:20:31	338888	5.0.10.0	5_exp_noRW	18	Rpleas_acq	CS_B	BZZB	VKKV	GWWG	YDDY	JXXJ	MQQM	retten	treu	schön	fair	ehrlich	spielen	rächen	tot	schlecht	faul	eitel	strafen	53pct	acq_USpleas_CSpleas1_noRW	acq23456_noRW	2	79	0	0	300	300	417	50	0	1	1	blank2r.bmp	0	1	+	0	1	blank2r.bmp	252	1	BZZB	306	1	retten	559	0	0	0	0	0	0	0	0	0	0	0	0	0	0	0	0	0	0	0	0	0	0	0	0	0	0	0	0	0	0	0	0	0	0	0	0	0	0	0
070319	16:14:52	16:20:33	340381	5.0.10.0	5_exp_noRW	18	Rpleas_acq	CS_B	BZZB	VKKV	GWWG	YDDY	JXXJ	MQQM	retten	treu	schön	fair	ehrlich	spielen	rächen	tot	schlecht	faul	eitel	strafen	53pct	acq_USpleas_CSpleas2_noRW	acq23456_noRW	2	80	0	0	300	300	313	50	0	1	1	blank2r.bmp	0	1	+	0	1	blank2r.bmp	252	1	VKKV	306	1	fair	559	0	0	0	0	0	0	0	0	0	0	0	0	0	0	0	0	0	0	0	0	0	0	0	0	0	0	0	0	0	0	0	0	0	0	0	0	0	0	0
070319	16:14:52	16:20:44	351896	5.0.10.0	5_exp_noRW	18	Rpleas_acq	CS_B	BZZB	VKKV	GWWG	YDDY	JXXJ	MQQM	retten	treu	schön	fair	ehrlich	spielen	rächen	tot	schlecht	faul	eitel	strafen	53pct	acq_USunple_CSunple1_noRW	acq23456_noRW	3	1	0	0	300	300	453	46	0	1	1	blank2r.bmp	0	1	+	0	1	blank2r.bmp	252	1	GWWG	306	1	rächen	559	0	0	0	0	0	0	0	0	0	0	0	0	0	0	0	0	0	0	0	0	0	0	0	0	0	0	0	0	0	0	0	0	0	0	0	0	0	0	0
070319	16:14:52	16:20:46	353429	5.0.10.0	5_exp_noRW	18	Rpleas_acq	CS_B	BZZB	VKKV	GWWG	YDDY	JXXJ	MQQM	retten	treu	schön	fair	ehrlich	spielen	rächen	tot	schlecht	faul	eitel	strafen	47pct	acq_USunple_CSunple2_noRW	acq23456_noRW	3	2	0	0	300	300	364	46	0	1	1	blank2r.bmp	0	1	+	0	1	blank2r.bmp	252	1	YDDY	306	3	strafen	559	0	0	0	0	0	0	0	0	0	0	0	0	0	0	0	0	0	0	0	0	0	0	0	0	0	0	0	0	0	0	0	0	0	0	0	0	0	0	0
070319	16:14:52	16:20:47	354988	5.0.10.0	5_exp_noRW	18	Rpleas_acq	CS_B	BZZB	VKKV	GWWG	YDDY	JXXJ	MQQM	retten	treu	schön	fair	ehrlich	spielen	rächen	tot	schlecht	faul	eitel	strafen	53pct	acq_USpleas_CSpleas2_noRW	acq23456_noRW	3	3	0	0	300	300	383	50	0	1	1	blank2r.bmp	0	1	+	0	1	blank2r.bmp	252	1	VKKV	306	3	spielen	559	0	0	0	0	0	0	0	0	0	0	0	0	0	0	0	0	0	0	0	0	0	0	0	0	0	0	0	0	0	0	0	0	0	0	0	0	0	0	0
070319	16:14:52	16:20:49	356575	5.0.10.0	5_exp_noRW	18	Rpleas_acq	CS_B	BZZB	VKKV	GWWG	YDDY	JXXJ	MQQM	retten	treu	schön	fair	ehrlich	spielen	rächen	tot	schlecht	faul	eitel	strafen	53pct	acq_USunple_CSpleas2_noRW	acq23456_noRW	3	4	0	0	300	300	407	46	0	1	1	blank2r.bmp	0	1	+	0	1	blank2r.bmp	252	1	VKKV	306	3	strafen	559	0	0	0	0	0	0	0	0	0	0	0	0	0	0	0	0	0	0	0	0	0	0	0	0	0	0	0	0	0	0	0	0	0	0	0	0	0	0	0
070319	16:14:52	16:20:51	358121	5.0.10.0	5_exp_noRW	18	Rpleas_acq	CS_B	BZZB	VKKV	GWWG	YDDY	JXXJ	MQQM	retten	treu	schön	fair	ehrlich	spielen	rächen	tot	schlecht	faul	eitel	strafen	47pct	acq_USpleas_CSpleas2_noRW	acq23456_noRW	3	5	0	0	300	300	369	50	0	1	1	blank2r.bmp	0	1	+	0	1	blank2r.bmp	252	1	VKKV	306	3	spielen	559	0	0	0	0	0	0	0	0	0	0	0	0	0	0	0	0	0	0	0	0	0	0	0	0	0	0	0	0	0	0	0	0	0	0	0	0	0	0	0
070319	16:14:52	16:20:52	359600	5.0.10.0	5_exp_noRW	18	Rpleas_acq	CS_B	BZZB	VKKV	GWWG	YDDY	JXXJ	MQQM	retten	treu	schön	fair	ehrlich	spielen	rächen	tot	schlecht	faul	eitel	strafen	53pct	acq_USunple_CSpleas1_noRW	acq23456_noRW	3	6	0	0	300	300	302	46	0	1	1	blank2r.bmp	0	1	+	0	1	blank2r.bmp	252	1	BZZB	306	2	tot	559	0	0	0	0	0	0	0	0	0	0	0	0	0	0	0	0	0	0	0	0	0	0	0	0	0	0	0	0	0	0	0	0	0	0	0	0	0	0	0
070319	16:14:52	16:20:54	361119	5.0.10.0	5_exp_noRW	18	Rpleas_acq	CS_B	BZZB	VKKV	GWWG	YDDY	JXXJ	MQQM	retten	treu	schön	fair	ehrlich	spielen	rächen	tot	schlecht	faul	eitel	strafen	47pct	acq_USpleas_CSpleas1_noRW	acq23456_noRW	3	7	0	0	300	300	342	50	0	1	1	blank2r.bmp	0	1	+	0	1	blank2r.bmp	252	1	BZZB	306	3	schön	559	0	0	0	0	0	0	0	0	0	0	0	0	0	0	0	0	0	0	0	0	0	0	0	0	0	0	0	0	0	0	0	0	0	0	0	0	0	0	0
070319	16:14:52	16:20:55	362759	5.0.10.0	5_exp_noRW	18	Rpleas_acq	CS_B	BZZB	VKKV	GWWG	YDDY	JXXJ	MQQM	retten	treu	schön	fair	ehrlich	spielen	rächen	tot	schlecht	faul	eitel	strafen	47pct	acq_USunple_CSunple2_noRW	acq23456_noRW	3	8	0	0	300	300	453	46	0	1	1	blank2r.bmp	0	1	+	0	1	blank2r.bmp	252	1	YDDY	306	3	strafen	559	0	0	0	0	0	0	0	0	0	0	0	0	0	0	0	0	0	0	0	0	0	0	0	0	0	0	0	0	0	0	0	0	0	0	0	0	0	0	0
070319	16:14:52	16:20:57	364265	5.0.10.0	5_exp_noRW	18	Rpleas_acq	CS_B	BZZB	VKKV	GWWG	YDDY	JXXJ	MQQM	retten	treu	schön	fair	ehrlich	spielen	rächen	tot	schlecht	faul	eitel	strafen	53pct	acq_USpleas_CSpleas1_noRW	acq23456_noRW	3	9	0	0	300	300	336	50	0	1	1	blank2r.bmp	0	1	+	0	1	blank2r.bmp	252	1	BZZB	306	3	schön	559	0	0	0	0	0	0	0	0	0	0	0	0	0	0	0	0	0	0	0	0	0	0	0	0	0	0	0	0	0	0	0	0	0	0	0	0	0	0	0
070319	16:14:52	16:20:58	365771	5.0.10.0	5_exp_noRW	18	Rpleas_acq	CS_B	BZZB	VKKV	GWWG	YDDY	JXXJ	MQQM	retten	treu	schön	fair	ehrlich	spielen	rächen	tot	schlecht	faul	eitel	strafen	47pct	acq_USunple_CSunple1_noRW	acq23456_noRW	3	10	0	0	300	300	330	46	0	1	1	blank2r.bmp	0	1	+	0	1	blank2r.bmp	252	1	GWWG	306	3	schlecht	559	0	0	0	0	0	0	0	0	0	0	0	0	0	0	0	0	0	0	0	0	0	0	0	0	0	0	0	0	0	0	0	0	0	0	0	0	0	0	0
070319	16:14:52	16:21:00	367690	5.0.10.0	5_exp_noRW	18	Rpleas_acq	CS_B	BZZB	VKKV	GWWG	YDDY	JXXJ	MQQM	retten	treu	schön	fair	ehrlich	spielen	rächen	tot	schlecht	faul	eitel	strafen	47pct	acq_USunple_CSunple1_noRW	acq23456_noRW	3	11	0	0	300	300	746	46	0	1	1	blank2r.bmp	0	1	+	0	1	blank2r.bmp	252	1	GWWG	306	1	rächen	559	0	0	0	0	0	0	0	0	0	0	0	0	0	0	0	0	0	0	0	0	0	0	0	0	0	0	0	0	0	0	0	0	0	0	0	0	0	0	0
070319	16:14:52	16:21:02	369303	5.0.10.0	5_exp_noRW	18	Rpleas_acq	CS_B	BZZB	VKKV	GWWG	YDDY	JXXJ	MQQM	retten	treu	schön	fair	ehrlich	spielen	rächen	tot	schlecht	faul	eitel	strafen	47pct	acq_USunple_CSunple2_noRW	acq23456_noRW	3	12	0	0	300	300	444	46	0	1	1	blank2r.bmp	0	1	+	0	1	blank2r.bmp	252	1	YDDY	306	1	faul	559	0	0	0	0	0	0	0	0	0	0	0	0	0	0	0	0	0	0	0	0	0	0	0	0	0	0	0	0	0	0	0	0	0	0	0	0	0	0	0
070319	16:14:52	16:21:04	371089	5.0.10.0	5_exp_noRW	18	Rpleas_acq	CS_B	BZZB	VKKV	GWWG	YDDY	JXXJ	MQQM	retten	treu	schön	fair	ehrlich	spielen	rächen	tot	schlecht	faul	eitel	strafen	53pct	acq_USpleas_CSunple2_noRW	acq23456_noRW	3	13	0	0	300	300	397	46	0	0	1	blank2r.bmp	0	1	+	0	1	blank2r.bmp	252	1	YDDY	306	1	fair	559	1	FEHLER	986	0	0	0	0	0	0	0	0	0	0	0	0	0	0	0	0	0	0	0	0	0	0	0	0	0	0	0	0	0	0	0	0	0	0	0	0
070319	16:14:52	16:21:05	372581	5.0.10.0	5_exp_noRW	18	Rpleas_acq	CS_B	BZZB	VKKV	GWWG	YDDY	JXXJ	MQQM	retten	treu	schön	fair	ehrlich	spielen	rächen	tot	schlecht	faul	eitel	strafen	47pct	acq_USpleas_CSpleas1_noRW	acq23456_noRW	3	14	0	0	300	300	307	46	0	0	1	blank2r.bmp	0	1	+	0	1	blank2r.bmp	252	1	BZZB	306	1	retten	559	1	FEHLER	906	0	0	0	0	0	0	0	0	0	0	0	0	0	0	0	0	0	0	0	0	0	0	0	0	0	0	0	0	0	0	0	0	0	0	0	0
070319	16:14:52	16:21:07	374087	5.0.10.0	5_exp_noRW	18	Rpleas_acq	CS_B	BZZB	VKKV	GWWG	YDDY	JXXJ	MQQM	retten	treu	schön	fair	ehrlich	spielen	rächen	tot	schlecht	faul	eitel	strafen	53pct	acq_USpleas_CSunple1_noRW	acq23456_noRW	3	15	0	0	300	300	554	50	0	1	1	blank2r.bmp	0	1	+	0	1	blank2r.bmp	252	1	GWWG	306	3	schön	559	0	0	0	0	0	0	0	0	0	0	0	0	0	0	0	0	0	0	0	0	0	0	0	0	0	0	0	0	0	0	0	0	0	0	0	0	0	0	0
070319	16:14:52	16:21:08	375873	5.0.10.0	5_exp_noRW	18	Rpleas_acq	CS_B	BZZB	VKKV	GWWG	YDDY	JXXJ	MQQM	retten	treu	schön	fair	ehrlich	spielen	rächen	tot	schlecht	faul	eitel	strafen	47pct	acq_USpleas_CSpleas2_noRW	acq23456_noRW	3	16	0	0	300	300	624	50	0	1	1	blank2r.bmp	0	1	+	0	1	blank2r.bmp	252	1	VKKV	306	1	fair	559	0	0	0	0	0	0	0	0	0	0	0	0	0	0	0	0	0	0	0	0	0	0	0	0	0	0	0	0	0	0	0	0	0	0	0	0	0	0	0
070319	16:14:52	16:21:10	377739	5.0.10.0	5_exp_noRW	18	Rpleas_acq	CS_B	BZZB	VKKV	GWWG	YDDY	JXXJ	MQQM	retten	treu	schön	fair	ehrlich	spielen	rächen	tot	schlecht	faul	eitel	strafen	47pct	acq_USunple_CSunple1_noRW	acq23456_noRW	3	17	0	0	300	300	689	46	0	1	1	blank2r.bmp	0	1	+	0	1	blank2r.bmp	252	1	GWWG	306	2	tot	559	0	0	0	0	0	0	0	0	0	0	0	0	0	0	0	0	0	0	0	0	0	0	0	0	0	0	0	0	0	0	0	0	0	0	0	0	0	0	0
070319	16:14:52	16:21:12	379419	5.0.10.0	5_exp_noRW	18	Rpleas_acq	CS_B	BZZB	VKKV	GWWG	YDDY	JXXJ	MQQM	retten	treu	schön	fair	ehrlich	spielen	rächen	tot	schlecht	faul	eitel	strafen	47pct	acq_USpleas_CSpleas1_noRW	acq23456_noRW	3	18	0	0	300	300	498	50	0	1	1	blank2r.bmp	0	1	+	0	1	blank2r.bmp	252	1	BZZB	306	2	treu	559	0	0	0	0	0	0	0	0	0	0	0	0	0	0	0	0	0	0	0	0	0	0	0	0	0	0	0	0	0	0	0	0	0	0	0	0	0	0	0
070319	16:14:52	16:21:14	381165	5.0.10.0	5_exp_noRW	18	Rpleas_acq	CS_B	BZZB	VKKV	GWWG	YDDY	JXXJ	MQQM	retten	treu	schön	fair	ehrlich	spielen	rächen	tot	schlecht	faul	eitel	strafen	53pct	acq_USpleas_CSpleas2_noRW	acq23456_noRW	3	19	0	0	300	300	560	50	0	1	1	blank2r.bmp	0	1	+	0	1	blank2r.bmp	252	1	VKKV	306	2	ehrlich	559	0	0	0	0	0	0	0	0	0	0	0	0	0	0	0	0	0	0	0	0	0	0	0	0	0	0	0	0	0	0	0	0	0	0	0	0	0	0	0
070319	16:14:52	16:21:15	382804	5.0.10.0	5_exp_noRW	18	Rpleas_acq	CS_B	BZZB	VKKV	GWWG	YDDY	JXXJ	MQQM	retten	treu	schön	fair	ehrlich	spielen	rächen	tot	schlecht	faul	eitel	strafen	53pct	acq_USunple_CSunple2_noRW	acq23456_noRW	3	20	0	0	300	300	463	46	0	1	1	blank2r.bmp	0	1	+	0	1	blank2r.bmp	252	1	YDDY	306	2	eitel	559	0	0	0	0	0	0	0	0	0	0	0	0	0	0	0	0	0	0	0	0	0	0	0	0	0	0	0	0	0	0	0	0	0	0	0	0	0	0	0
070319	16:14:52	16:21:17	384443	5.0.10.0	5_exp_noRW	18	Rpleas_acq	CS_B	BZZB	VKKV	GWWG	YDDY	JXXJ	MQQM	retten	treu	schön	fair	ehrlich	spielen	rächen	tot	schlecht	faul	eitel	strafen	47pct	acq_USpleas_CSpleas2_noRW	acq23456_noRW	3	21	0	0	300	300	467	50	0	1	1	blank2r.bmp	0	1	+	0	1	blank2r.bmp	252	1	VKKV	306	2	ehrlich	559	0	0	0	0	0	0	0	0	0	0	0	0	0	0	0	0	0	0	0	0	0	0	0	0	0	0	0	0	0	0	0	0	0	0	0	0	0	0	0
070319	16:14:52	16:21:19	386442	5.0.10.0	5_exp_noRW	18	Rpleas_acq	CS_B	BZZB	VKKV	GWWG	YDDY	JXXJ	MQQM	retten	treu	schön	fair	ehrlich	spielen	rächen	tot	schlecht	faul	eitel	strafen	53pct	acq_USunple_CSpleas2_noRW	acq23456_noRW	3	22	0	0	300	300	834	46	0	1	1	blank2r.bmp	0	1	+	0	1	blank2r.bmp	252	1	VKKV	306	2	eitel	559	0	0	0	0	0	0	0	0	0	0	0	0	0	0	0	0	0	0	0	0	0	0	0	0	0	0	0	0	0	0	0	0	0	0	0	0	0	0	0
070319	16:14:52	16:21:20	388055	5.0.10.0	5_exp_noRW	18	Rpleas_acq	CS_B	BZZB	VKKV	GWWG	YDDY	JXXJ	MQQM	retten	treu	schön	fair	ehrlich	spielen	rächen	tot	schlecht	faul	eitel	strafen	53pct	acq_USunple_CSunple2_noRW	acq23456_noRW	3	23	0	0	300	300	442	46	0	1	1	blank2r.bmp	0	1	+	0	1	blank2r.bmp	252	1	YDDY	306	1	faul	559	0	0	0	0	0	0	0	0	0	0	0	0	0	0	0	0	0	0	0	0	0	0	0	0	0	0	0	0	0	0	0	0	0	0	0	0	0	0	0
070319	16:14:52	16:21:22	389708	5.0.10.0	5_exp_noRW	18	Rpleas_acq	CS_B	BZZB	VKKV	GWWG	YDDY	JXXJ	MQQM	retten	treu	schön	fair	ehrlich	spielen	rächen	tot	schlecht	faul	eitel	strafen	47pct	acq_USpleas_CSunple2_noRW	acq23456_noRW	3	24	0	0	300	300	486	50	0	1	1	blank2r.bmp	0	1	+	0	1	blank2r.bmp	252	1	YDDY	306	2	ehrlich	559	0	0	0	0	0	0	0	0	0	0	0	0	0	0	0	0	0	0	0	0	0	0	0	0	0	0	0	0	0	0	0	0	0	0	0	0	0	0	0
070319	16:14:52	16:21:24	391387	5.0.10.0	5_exp_noRW	18	Rpleas_acq	CS_B	BZZB	VKKV	GWWG	YDDY	JXXJ	MQQM	retten	treu	schön	fair	ehrlich	spielen	rächen	tot	schlecht	faul	eitel	strafen	53pct	acq_USpleas_CSpleas2_noRW	acq23456_noRW	3	25	0	0	300	300	502	50	0	1	1	blank2r.bmp	0	1	+	0	1	blank2r.bmp	252	1	VKKV	306	1	fair	559	0	0	0	0	0	0	0	0	0	0	0	0	0	0	0	0	0	0	0	0	0	0	0	0	0	0	0	0	0	0	0	0	0	0	0	0	0	0	0
070319	16:14:52	16:21:26	393080	5.0.10.0	5_exp_noRW	18	Rpleas_acq	CS_B	BZZB	VKKV	GWWG	YDDY	JXXJ	MQQM	retten	treu	schön	fair	ehrlich	spielen	rächen	tot	schlecht	faul	eitel	strafen	47pct	acq_USpleas_CSpleas1_noRW	acq23456_noRW	3	26	0	0	300	300	519	50	0	1	1	blank2r.bmp	0	1	+	0	1	blank2r.bmp	252	1	BZZB	306	2	treu	559	0	0	0	0	0	0	0	0	0	0	0	0	0	0	0	0	0	0	0	0	0	0	0	0	0	0	0	0	0	0	0	0	0	0	0	0	0	0	0
070319	16:14:52	16:21:27	394652	5.0.10.0	5_exp_noRW	18	Rpleas_acq	CS_B	BZZB	VKKV	GWWG	YDDY	JXXJ	MQQM	retten	treu	schön	fair	ehrlich	spielen	rächen	tot	schlecht	faul	eitel	strafen	53pct	acq_USunple_CSunple1_noRW	acq23456_noRW	3	27	0	0	300	300	400	46	0	1	1	blank2r.bmp	0	1	+	0	1	blank2r.bmp	252	1	GWWG	306	1	rächen	559	0	0	0	0	0	0	0	0	0	0	0	0	0	0	0	0	0	0	0	0	0	0	0	0	0	0	0	0	0	0	0	0	0	0	0	0	0	0	0
070319	16:14:52	16:21:29	396385	5.0.10.0	5_exp_noRW	18	Rpleas_acq	CS_B	BZZB	VKKV	GWWG	YDDY	JXXJ	MQQM	retten	treu	schön	fair	ehrlich	spielen	rächen	tot	schlecht	faul	eitel	strafen	53pct	acq_USunple_CSpleas1_noRW	acq23456_noRW	3	28	0	0	300	300	560	46	0	1	1	blank2r.bmp	0	1	+	0	1	blank2r.bmp	252	1	BZZB	306	3	schlecht	559	0	0	0	0	0	0	0	0	0	0	0	0	0	0	0	0	0	0	0	0	0	0	0	0	0	0	0	0	0	0	0	0	0	0	0	0	0	0	0
070319	16:14:52	16:21:30	397998	5.0.10.0	5_exp_noRW	18	Rpleas_acq	CS_B	BZZB	VKKV	GWWG	YDDY	JXXJ	MQQM	retten	treu	schön	fair	ehrlich	spielen	rächen	tot	schlecht	faul	eitel	strafen	47pct	acq_USunple_CSunple2_noRW	acq23456_noRW	3	29	0	0	300	300	444	46	0	1	1	blank2r.bmp	0	1	+	0	1	blank2r.bmp	252	1	YDDY	306	3	strafen	559	0	0	0	0	0	0	0	0	0	0	0	0	0	0	0	0	0	0	0	0	0	0	0	0	0	0	0	0	0	0	0	0	0	0	0	0	0	0	0
070319	16:14:52	16:21:32	399744	5.0.10.0	5_exp_noRW	18	Rpleas_acq	CS_B	BZZB	VKKV	GWWG	YDDY	JXXJ	MQQM	retten	treu	schön	fair	ehrlich	spielen	rächen	tot	schlecht	faul	eitel	strafen	47pct	acq_USpleas_CSpleas1_noRW	acq23456_noRW	3	30	0	0	300	300	564	50	0	1	1	blank2r.bmp	0	1	+	0	1	blank2r.bmp	252	1	BZZB	306	1	retten	559	0	0	0	0	0	0	0	0	0	0	0	0	0	0	0	0	0	0	0	0	0	0	0	0	0	0	0	0	0	0	0	0	0	0	0	0	0	0	0
070319	16:14:52	16:21:34	401370	5.0.10.0	5_exp_noRW	18	Rpleas_acq	CS_B	BZZB	VKKV	GWWG	YDDY	JXXJ	MQQM	retten	treu	schön	fair	ehrlich	spielen	rächen	tot	schlecht	faul	eitel	strafen	47pct	acq_USpleas_CSpleas2_noRW	acq23456_noRW	3	31	0	0	300	300	448	50	0	1	1	blank2r.bmp	0	1	+	0	1	blank2r.bmp	252	1	VKKV	306	3	spielen	559	0	0	0	0	0	0	0	0	0	0	0	0	0	0	0	0	0	0	0	0	0	0	0	0	0	0	0	0	0	0	0	0	0	0	0	0	0	0	0
070319	16:14:52	16:21:35	403009	5.0.10.0	5_exp_noRW	18	Rpleas_acq	CS_B	BZZB	VKKV	GWWG	YDDY	JXXJ	MQQM	retten	treu	schön	fair	ehrlich	spielen	rächen	tot	schlecht	faul	eitel	strafen	53pct	acq_USunple_CSunple2_noRW	acq23456_noRW	3	32	0	0	300	300	465	46	0	1	1	blank2r.bmp	0	1	+	0	1	blank2r.bmp	252	1	YDDY	306	2	eitel	559	0	0	0	0	0	0	0	0	0	0	0	0	0	0	0	0	0	0	0	0	0	0	0	0	0	0	0	0	0	0	0	0	0	0	0	0	0	0	0
070319	16:14:52	16:21:37	404542	5.0.10.0	5_exp_noRW	18	Rpleas_acq	CS_B	BZZB	VKKV	GWWG	YDDY	JXXJ	MQQM	retten	treu	schön	fair	ehrlich	spielen	rächen	tot	schlecht	faul	eitel	strafen	47pct	acq_USunple_CSunple1_noRW	acq23456_noRW	3	33	0	0	300	300	371	46	0	1	1	blank2r.bmp	0	1	+	0	1	blank2r.bmp	252	1	GWWG	306	2	tot	559	0	0	0	0	0	0	0	0	0	0	0	0	0	0	0	0	0	0	0	0	0	0	0	0	0	0	0	0	0	0	0	0	0	0	0	0	0	0	0
070319	16:14:52	16:21:39	406234	5.0.10.0	5_exp_noRW	18	Rpleas_acq	CS_B	BZZB	VKKV	GWWG	YDDY	JXXJ	MQQM	retten	treu	schön	fair	ehrlich	spielen	rächen	tot	schlecht	faul	eitel	strafen	47pct	acq_USpleas_CSunple1_noRW	acq23456_noRW	3	34	0	0	300	300	506	50	0	1	1	blank2r.bmp	0	1	+	0	1	blank2r.bmp	252	1	GWWG	306	2	treu	559	0	0	0	0	0	0	0	0	0	0	0	0	0	0	0	0	0	0	0	0	0	0	0	0	0	0	0	0	0	0	0	0	0	0	0	0	0	0	0
070319	16:14:52	16:21:40	407820	5.0.10.0	5_exp_noRW	18	Rpleas_acq	CS_B	BZZB	VKKV	GWWG	YDDY	JXXJ	MQQM	retten	treu	schön	fair	ehrlich	spielen	rächen	tot	schlecht	faul	eitel	strafen	47pct	acq_USunple_CSunple1_noRW	acq23456_noRW	3	35	0	0	300	300	409	46	0	1	1	blank2r.bmp	0	1	+	0	1	blank2r.bmp	252	1	GWWG	306	3	schlecht	559	0	0	0	0	0	0	0	0	0	0	0	0	0	0	0	0	0	0	0	0	0	0	0	0	0	0	0	0	0	0	0	0	0	0	0	0	0	0	0
070319	16:14:52	16:21:42	409393	5.0.10.0	5_exp_noRW	18	Rpleas_acq	CS_B	BZZB	VKKV	GWWG	YDDY	JXXJ	MQQM	retten	treu	schön	fair	ehrlich	spielen	rächen	tot	schlecht	faul	eitel	strafen	47pct	acq_USunple_CSunple1_noRW	acq23456_noRW	3	36	0	0	300	300	385	46	0	1	1	blank2r.bmp	0	1	+	0	1	blank2r.bmp	252	1	GWWG	306	2	tot	559	0	0	0	0	0	0	0	0	0	0	0	0	0	0	0	0	0	0	0	0	0	0	0	0	0	0	0	0	0	0	0	0	0	0	0	0	0	0	0
070319	16:14:52	16:21:43	411019	5.0.10.0	5_exp_noRW	18	Rpleas_acq	CS_B	BZZB	VKKV	GWWG	YDDY	JXXJ	MQQM	retten	treu	schön	fair	ehrlich	spielen	rächen	tot	schlecht	faul	eitel	strafen	53pct	acq_USpleas_CSpleas1_noRW	acq23456_noRW	3	37	0	0	300	300	455	50	0	1	1	blank2r.bmp	0	1	+	0	1	blank2r.bmp	252	1	BZZB	306	3	schön	559	0	0	0	0	0	0	0	0	0	0	0	0	0	0	0	0	0	0	0	0	0	0	0	0	0	0	0	0	0	0	0	0	0	0	0	0	0	0	0
070319	16:14:52	16:21:45	412578	5.0.10.0	5_exp_noRW	18	Rpleas_acq	CS_B	BZZB	VKKV	GWWG	YDDY	JXXJ	MQQM	retten	treu	schön	fair	ehrlich	spielen	rächen	tot	schlecht	faul	eitel	strafen	53pct	acq_USpleas_CSpleas1_noRW	acq23456_noRW	3	38	0	0	300	300	385	50	0	1	1	blank2r.bmp	0	1	+	0	1	blank2r.bmp	252	1	BZZB	306	2	treu	559	0	0	0	0	0	0	0	0	0	0	0	0	0	0	0	0	0	0	0	0	0	0	0	0	0	0	0	0	0	0	0	0	0	0	0	0	0	0	0
070319	16:14:52	16:21:47	414138	5.0.10.0	5_exp_noRW	18	Rpleas_acq	CS_B	BZZB	VKKV	GWWG	YDDY	JXXJ	MQQM	retten	treu	schön	fair	ehrlich	spielen	rächen	tot	schlecht	faul	eitel	strafen	47pct	acq_USpleas_CSpleas2_noRW	acq23456_noRW	3	39	0	0	300	300	382	50	0	1	1	blank2r.bmp	0	1	+	0	1	blank2r.bmp	252	1	VKKV	306	2	ehrlich	559	0	0	0	0	0	0	0	0	0	0	0	0	0	0	0	0	0	0	0	0	0	0	0	0	0	0	0	0	0	0	0	0	0	0	0	0	0	0	0
070319	16:14:52	16:21:48	415697	5.0.10.0	5_exp_noRW	18	Rpleas_acq	CS_B	BZZB	VKKV	GWWG	YDDY	JXXJ	MQQM	retten	treu	schön	fair	ehrlich	spielen	rächen	tot	schlecht	faul	eitel	strafen	53pct	acq_USunple_CSunple2_noRW	acq23456_noRW	3	40	0	0	300	300	375	46	0	1	1	blank2r.bmp	0	1	+	0	1	blank2r.bmp	252	1	YDDY	306	2	eitel	559	0	0	0	0	0	0	0	0	0	0	0	0	0	0	0	0	0	0	0	0	0	0	0	0	0	0	0	0	0	0	0	0	0	0	0	0	0	0	0
070319	16:14:52	16:21:50	417270	5.0.10.0	5_exp_noRW	18	Rpleas_acq	CS_B	BZZB	VKKV	GWWG	YDDY	JXXJ	MQQM	retten	treu	schön	fair	ehrlich	spielen	rächen	tot	schlecht	faul	eitel	strafen	53pct	acq_USpleas_CSpleas2_noRW	acq23456_noRW	3	41	0	0	300	300	403	50	0	1	1	blank2r.bmp	0	1	+	0	1	blank2r.bmp	252	1	VKKV	306	1	fair	559	0	0	0	0	0	0	0	0	0	0	0	0	0	0	0	0	0	0	0	0	0	0	0	0	0	0	0	0	0	0	0	0	0	0	0	0	0	0	0
070319	16:14:52	16:21:51	418923	5.0.10.0	5_exp_noRW	18	Rpleas_acq	CS_B	BZZB	VKKV	GWWG	YDDY	JXXJ	MQQM	retten	treu	schön	fair	ehrlich	spielen	rächen	tot	schlecht	faul	eitel	strafen	47pct	acq_USunple_CSunple1_noRW	acq23456_noRW	3	42	0	0	300	300	486	46	0	1	1	blank2r.bmp	0	1	+	0	1	blank2r.bmp	252	1	GWWG	306	3	schlecht	559	0	0	0	0	0	0	0	0	0	0	0	0	0	0	0	0	0	0	0	0	0	0	0	0	0	0	0	0	0	0	0	0	0	0	0	0	0	0	0
070319	16:14:52	16:21:53	420415	5.0.10.0	5_exp_noRW	18	Rpleas_acq	CS_B	BZZB	VKKV	GWWG	YDDY	JXXJ	MQQM	retten	treu	schön	fair	ehrlich	spielen	rächen	tot	schlecht	faul	eitel	strafen	53pct	acq_USpleas_CSpleas2_noRW	acq23456_noRW	3	43	0	0	300	300	322	50	0	1	1	blank2r.bmp	0	1	+	0	1	blank2r.bmp	252	1	VKKV	306	3	spielen	559	0	0	0	0	0	0	0	0	0	0	0	0	0	0	0	0	0	0	0	0	0	0	0	0	0	0	0	0	0	0	0	0	0	0	0	0	0	0	0
070319	16:14:52	16:21:55	422108	5.0.10.0	5_exp_noRW	18	Rpleas_acq	CS_B	BZZB	VKKV	GWWG	YDDY	JXXJ	MQQM	retten	treu	schön	fair	ehrlich	spielen	rächen	tot	schlecht	faul	eitel	strafen	47pct	acq_USpleas_CSpleas1_noRW	acq23456_noRW	3	44	0	0	300	300	527	50	0	1	1	blank2r.bmp	0	1	+	0	1	blank2r.bmp	252	1	BZZB	306	1	retten	559	0	0	0	0	0	0	0	0	0	0	0	0	0	0	0	0	0	0	0	0	0	0	0	0	0	0	0	0	0	0	0	0	0	0	0	0	0	0	0
070319	16:14:52	16:21:56	423774	5.0.10.0	5_exp_noRW	18	Rpleas_acq	CS_B	BZZB	VKKV	GWWG	YDDY	JXXJ	MQQM	retten	treu	schön	fair	ehrlich	spielen	rächen	tot	schlecht	faul	eitel	strafen	47pct	acq_USunple_CSunple2_noRW	acq23456_noRW	3	45	0	0	300	300	482	46	0	1	1	blank2r.bmp	0	1	+	0	1	blank2r.bmp	252	1	YDDY	306	1	faul	559	0	0	0	0	0	0	0	0	0	0	0	0	0	0	0	0	0	0	0	0	0	0	0	0	0	0	0	0	0	0	0	0	0	0	0	0	0	0	0
070319	16:14:52	16:21:58	425440	5.0.10.0	5_exp_noRW	18	Rpleas_acq	CS_B	BZZB	VKKV	GWWG	YDDY	JXXJ	MQQM	retten	treu	schön	fair	ehrlich	spielen	rächen	tot	schlecht	faul	eitel	strafen	53pct	acq_USunple_CSpleas1_noRW	acq23456_noRW	3	46	0	0	300	300	500	46	0	1	1	blank2r.bmp	0	1	+	0	1	blank2r.bmp	252	1	BZZB	306	2	tot	559	0	0	0	0	0	0	0	0	0	0	0	0	0	0	0	0	0	0	0	0	0	0	0	0	0	0	0	0	0	0	0	0	0	0	0	0	0	0	0
070319	16:14:52	16:21:59	426959	5.0.10.0	5_exp_noRW	18	Rpleas_acq	CS_B	BZZB	VKKV	GWWG	YDDY	JXXJ	MQQM	retten	treu	schön	fair	ehrlich	spielen	rächen	tot	schlecht	faul	eitel	strafen	53pct	acq_USpleas_CSpleas1_noRW	acq23456_noRW	3	47	0	0	300	300	347	50	0	1	1	blank2r.bmp	0	1	+	0	1	blank2r.bmp	252	1	BZZB	306	3	schön	559	0	0	0	0	0	0	0	0	0	0	0	0	0	0	0	0	0	0	0	0	0	0	0	0	0	0	0	0	0	0	0	0	0	0	0	0	0	0	0
070319	16:14:52	16:22:01	428545	5.0.10.0	5_exp_noRW	18	Rpleas_acq	CS_B	BZZB	VKKV	GWWG	YDDY	JXXJ	MQQM	retten	treu	schön	fair	ehrlich	spielen	rächen	tot	schlecht	faul	eitel	strafen	47pct	acq_USunple_CSpleas2_noRW	acq23456_noRW	3	48	0	0	300	300	415	46	0	1	1	blank2r.bmp	0	1	+	0	1	blank2r.bmp	252	1	VKKV	306	3	strafen	559	0	0	0	0	0	0	0	0	0	0	0	0	0	0	0	0	0	0	0	0	0	0	0	0	0	0	0	0	0	0	0	0	0	0	0	0	0	0	0
070319	16:14:52	16:22:03	430158	5.0.10.0	5_exp_noRW	18	Rpleas_acq	CS_B	BZZB	VKKV	GWWG	YDDY	JXXJ	MQQM	retten	treu	schön	fair	ehrlich	spielen	rächen	tot	schlecht	faul	eitel	strafen	47pct	acq_USunple_CSunple2_noRW	acq23456_noRW	3	49	0	0	300	300	449	46	0	1	1	blank2r.bmp	0	1	+	0	1	blank2r.bmp	252	1	YDDY	306	3	strafen	559	0	0	0	0	0	0	0	0	0	0	0	0	0	0	0	0	0	0	0	0	0	0	0	0	0	0	0	0	0	0	0	0	0	0	0	0	0	0	0
070319	16:14:52	16:22:04	431797	5.0.10.0	5_exp_noRW	18	Rpleas_acq	CS_B	BZZB	VKKV	GWWG	YDDY	JXXJ	MQQM	retten	treu	schön	fair	ehrlich	spielen	rächen	tot	schlecht	faul	eitel	strafen	47pct	acq_USpleas_CSpleas2_noRW	acq23456_noRW	3	50	0	0	300	300	461	50	0	1	1	blank2r.bmp	0	1	+	0	1	blank2r.bmp	252	1	VKKV	306	1	fair	559	0	0	0	0	0	0	0	0	0	0	0	0	0	0	0	0	0	0	0	0	0	0	0	0	0	0	0	0	0	0	0	0	0	0	0	0	0	0	0
070319	16:14:52	16:22:06	433570	5.0.10.0	5_exp_noRW	18	Rpleas_acq	CS_B	BZZB	VKKV	GWWG	YDDY	JXXJ	MQQM	retten	treu	schön	fair	ehrlich	spielen	rächen	tot	schlecht	faul	eitel	strafen	47pct	acq_USpleas_CSunple2_noRW	acq23456_noRW	3	51	0	0	300	300	589	50	0	1	1	blank2r.bmp	0	1	+	0	1	blank2r.bmp	252	1	YDDY	306	3	spielen	559	0	0	0	0	0	0	0	0	0	0	0	0	0	0	0	0	0	0	0	0	0	0	0	0	0	0	0	0	0	0	0	0	0	0	0	0	0	0	0
070319	16:14:52	16:22:08	435183	5.0.10.0	5_exp_noRW	18	Rpleas_acq	CS_B	BZZB	VKKV	GWWG	YDDY	JXXJ	MQQM	retten	treu	schön	fair	ehrlich	spielen	rächen	tot	schlecht	faul	eitel	strafen	47pct	acq_USunple_CSunple2_noRW	acq23456_noRW	3	52	0	0	300	300	441	46	0	1	1	blank2r.bmp	0	1	+	0	1	blank2r.bmp	252	1	YDDY	306	2	eitel	559	0	0	0	0	0	0	0	0	0	0	0	0	0	0	0	0	0	0	0	0	0	0	0	0	0	0	0	0	0	0	0	0	0	0	0	0	0	0	0
070319	16:14:52	16:22:09	436862	5.0.10.0	5_exp_noRW	18	Rpleas_acq	CS_B	BZZB	VKKV	GWWG	YDDY	JXXJ	MQQM	retten	treu	schön	fair	ehrlich	spielen	rächen	tot	schlecht	faul	eitel	strafen	53pct	acq_USunple_CSunple1_noRW	acq23456_noRW	3	53	0	0	300	300	505	46	0	1	1	blank2r.bmp	0	1	+	0	1	blank2r.bmp	252	1	GWWG	306	1	rächen	559	0	0	0	0	0	0	0	0	0	0	0	0	0	0	0	0	0	0	0	0	0	0	0	0	0	0	0	0	0	0	0	0	0	0	0	0	0	0	0
070319	16:14:52	16:22:11	438608	5.0.10.0	5_exp_noRW	18	Rpleas_acq	CS_B	BZZB	VKKV	GWWG	YDDY	JXXJ	MQQM	retten	treu	schön	fair	ehrlich	spielen	rächen	tot	schlecht	faul	eitel	strafen	47pct	acq_USunple_CSunple2_noRW	acq23456_noRW	3	54	0	0	300	300	573	46	0	1	1	blank2r.bmp	0	1	+	0	1	blank2r.bmp	252	1	YDDY	306	1	faul	559	0	0	0	0	0	0	0	0	0	0	0	0	0	0	0	0	0	0	0	0	0	0	0	0	0	0	0	0	0	0	0	0	0	0	0	0	0	0	0
070319	16:14:52	16:22:13	440194	5.0.10.0	5_exp_noRW	18	Rpleas_acq	CS_B	BZZB	VKKV	GWWG	YDDY	JXXJ	MQQM	retten	treu	schön	fair	ehrlich	spielen	rächen	tot	schlecht	faul	eitel	strafen	53pct	acq_USpleas_CSpleas2_noRW	acq23456_noRW	3	55	0	0	300	300	423	50	0	1	1	blank2r.bmp	0	1	+	0	1	blank2r.bmp	252	1	VKKV	306	2	ehrlich	559	0	0	0	0	0	0	0	0	0	0	0	0	0	0	0	0	0	0	0	0	0	0	0	0	0	0	0	0	0	0	0	0	0	0	0	0	0	0	0
070319	16:14:52	16:22:14	441753	5.0.10.0	5_exp_noRW	18	Rpleas_acq	CS_B	BZZB	VKKV	GWWG	YDDY	JXXJ	MQQM	retten	treu	schön	fair	ehrlich	spielen	rächen	tot	schlecht	faul	eitel	strafen	47pct	acq_USunple_CSunple1_noRW	acq23456_noRW	3	56	0	0	300	300	383	46	0	1	1	blank2r.bmp	0	1	+	0	1	blank2r.bmp	252	1	GWWG	306	1	rächen	559	0	0	0	0	0	0	0	0	0	0	0	0	0	0	0	0	0	0	0	0	0	0	0	0	0	0	0	0	0	0	0	0	0	0	0	0	0	0	0
070319	16:14:52	16:22:16	443433	5.0.10.0	5_exp_noRW	18	Rpleas_acq	CS_B	BZZB	VKKV	GWWG	YDDY	JXXJ	MQQM	retten	treu	schön	fair	ehrlich	spielen	rächen	tot	schlecht	faul	eitel	strafen	47pct	acq_USpleas_CSunple1_noRW	acq23456_noRW	3	57	0	0	300	300	503	50	0	1	1	blank2r.bmp	0	1	+	0	1	blank2r.bmp	252	1	GWWG	306	1	retten	559	0	0	0	0	0	0	0	0	0	0	0	0	0	0	0	0	0	0	0	0	0	0	0	0	0	0	0	0	0	0	0	0	0	0	0	0	0	0	0
070319	16:14:52	16:22:18	445085	5.0.10.0	5_exp_noRW	18	Rpleas_acq	CS_B	BZZB	VKKV	GWWG	YDDY	JXXJ	MQQM	retten	treu	schön	fair	ehrlich	spielen	rächen	tot	schlecht	faul	eitel	strafen	47pct	acq_USunple_CSunple1_noRW	acq23456_noRW	3	58	0	0	300	300	477	46	0	1	1	blank2r.bmp	0	1	+	0	1	blank2r.bmp	252	1	GWWG	306	3	schlecht	559	0	0	0	0	0	0	0	0	0	0	0	0	0	0	0	0	0	0	0	0	0	0	0	0	0	0	0	0	0	0	0	0	0	0	0	0	0	0	0
070319	16:14:52	16:22:19	446845	5.0.10.0	5_exp_noRW	18	Rpleas_acq	CS_B	BZZB	VKKV	GWWG	YDDY	JXXJ	MQQM	retten	treu	schön	fair	ehrlich	spielen	rächen	tot	schlecht	faul	eitel	strafen	53pct	acq_USpleas_CSpleas1_noRW	acq23456_noRW	3	59	0	0	300	300	581	50	0	1	1	blank2r.bmp	0	1	+	0	1	blank2r.bmp	252	1	BZZB	306	1	retten	559	0	0	0	0	0	0	0	0	0	0	0	0	0	0	0	0	0	0	0	0	0	0	0	0	0	0	0	0	0	0	0	0	0	0	0	0	0	0	0
070319	16:14:52	16:22:21	448511	5.0.10.0	5_exp_noRW	18	Rpleas_acq	CS_B	BZZB	VKKV	GWWG	YDDY	JXXJ	MQQM	retten	treu	schön	fair	ehrlich	spielen	rächen	tot	schlecht	faul	eitel	strafen	47pct	acq_USpleas_CSpleas1_noRW	acq23456_noRW	3	60	0	0	300	300	495	50	0	1	1	blank2r.bmp	0	1	+	0	1	blank2r.bmp	252	1	BZZB	306	2	treu	559	0	0	0	0	0	0	0	0	0	0	0	0	0	0	0	0	0	0	0	0	0	0	0	0	0	0	0	0	0	0	0	0	0	0	0	0	0	0	0
070319	16:14:52	16:22:23	450283	5.0.10.0	5_exp_noRW	18	Rpleas_acq	CS_B	BZZB	VKKV	GWWG	YDDY	JXXJ	MQQM	retten	treu	schön	fair	ehrlich	spielen	rächen	tot	schlecht	faul	eitel	strafen	53pct	acq_USpleas_CSpleas2_noRW	acq23456_noRW	3	61	0	0	300	300	600	50	0	1	1	blank2r.bmp	0	1	+	0	1	blank2r.bmp	252	1	VKKV	306	3	spielen	559	0	0	0	0	0	0	0	0	0	0	0	0	0	0	0	0	0	0	0	0	0	0	0	0	0	0	0	0	0	0	0	0	0	0	0	0	0	0	0
070319	16:14:52	16:22:24	451949	5.0.10.0	5_exp_noRW	18	Rpleas_acq	CS_B	BZZB	VKKV	GWWG	YDDY	JXXJ	MQQM	retten	treu	schön	fair	ehrlich	spielen	rächen	tot	schlecht	faul	eitel	strafen	53pct	acq_USpleas_CSpleas1_noRW	acq23456_noRW	3	62	0	0	300	300	501	50	0	1	1	blank2r.bmp	0	1	+	0	1	blank2r.bmp	252	1	BZZB	306	3	schön	559	0	0	0	0	0	0	0	0	0	0	0	0	0	0	0	0	0	0	0	0	0	0	0	0	0	0	0	0	0	0	0	0	0	0	0	0	0	0	0
070319	16:14:52	16:22:26	453602	5.0.10.0	5_exp_noRW	18	Rpleas_acq	CS_B	BZZB	VKKV	GWWG	YDDY	JXXJ	MQQM	retten	treu	schön	fair	ehrlich	spielen	rächen	tot	schlecht	faul	eitel	strafen	47pct	acq_USunple_CSunple1_noRW	acq23456_noRW	3	63	0	0	300	300	472	46	0	1	1	blank2r.bmp	0	1	+	0	1	blank2r.bmp	252	1	GWWG	306	2	tot	559	0	0	0	0	0	0	0	0	0	0	0	0	0	0	0	0	0	0	0	0	0	0	0	0	0	0	0	0	0	0	0	0	0	0	0	0	0	0	0
070319	16:14:52	16:22:28	455134	5.0.10.0	5_exp_noRW	18	Rpleas_acq	CS_B	BZZB	VKKV	GWWG	YDDY	JXXJ	MQQM	retten	treu	schön	fair	ehrlich	spielen	rächen	tot	schlecht	faul	eitel	strafen	47pct	acq_USpleas_CSpleas1_noRW	acq23456_noRW	3	64	0	0	300	300	358	50	0	1	1	blank2r.bmp	0	1	+	0	1	blank2r.bmp	252	1	BZZB	306	3	schön	559	0	0	0	0	0	0	0	0	0	0	0	0	0	0	0	0	0	0	0	0	0	0	0	0	0	0	0	0	0	0	0	0	0	0	0	0	0	0	0
070319	16:14:52	16:22:29	456894	5.0.10.0	5_exp_noRW	18	Rpleas_acq	CS_B	BZZB	VKKV	GWWG	YDDY	JXXJ	MQQM	retten	treu	schön	fair	ehrlich	spielen	rächen	tot	schlecht	faul	eitel	strafen	53pct	acq_USpleas_CSpleas1_noRW	acq23456_noRW	3	65	0	0	300	300	596	50	0	1	1	blank2r.bmp	0	1	+	0	1	blank2r.bmp	252	1	BZZB	306	2	treu	559	0	0	0	0	0	0	0	0	0	0	0	0	0	0	0	0	0	0	0	0	0	0	0	0	0	0	0	0	0	0	0	0	0	0	0	0	0	0	0
070319	16:14:52	16:22:31	458906	5.0.10.0	5_exp_noRW	18	Rpleas_acq	CS_B	BZZB	VKKV	GWWG	YDDY	JXXJ	MQQM	retten	treu	schön	fair	ehrlich	spielen	rächen	tot	schlecht	faul	eitel	strafen	47pct	acq_USunple_CSunple2_noRW	acq23456_noRW	3	66	0	0	300	300	837	46	0	1	1	blank2r.bmp	0	1	+	0	1	blank2r.bmp	252	1	YDDY	306	3	strafen	559	0	0	0	0	0	0	0	0	0	0	0	0	0	0	0	0	0	0	0	0	0	0	0	0	0	0	0	0	0	0	0	0	0	0	0	0	0	0	0
070319	16:14:52	16:22:33	460546	5.0.10.0	5_exp_noRW	18	Rpleas_acq	CS_B	BZZB	VKKV	GWWG	YDDY	JXXJ	MQQM	retten	treu	schön	fair	ehrlich	spielen	rächen	tot	schlecht	faul	eitel	strafen	47pct	acq_USunple_CSunple2_noRW	acq23456_noRW	3	67	0	0	300	300	452	46	0	1	1	blank2r.bmp	0	1	+	0	1	blank2r.bmp	252	1	YDDY	306	1	faul	559	0	0	0	0	0	0	0	0	0	0	0	0	0	0	0	0	0	0	0	0	0	0	0	0	0	0	0	0	0	0	0	0	0	0	0	0	0	0	0
070319	16:14:52	16:22:35	462198	5.0.10.0	5_exp_noRW	18	Rpleas_acq	CS_B	BZZB	VKKV	GWWG	YDDY	JXXJ	MQQM	retten	treu	schön	fair	ehrlich	spielen	rächen	tot	schlecht	faul	eitel	strafen	47pct	acq_USpleas_CSpleas1_noRW	acq23456_noRW	3	68	0	0	300	300	488	50	0	1	1	blank2r.bmp	0	1	+	0	1	blank2r.bmp	252	1	BZZB	306	1	retten	559	0	0	0	0	0	0	0	0	0	0	0	0	0	0	0	0	0	0	0	0	0	0	0	0	0	0	0	0	0	0	0	0	0	0	0	0	0	0	0
070319	16:14:52	16:22:36	463998	5.0.10.0	5_exp_noRW	18	Rpleas_acq	CS_B	BZZB	VKKV	GWWG	YDDY	JXXJ	MQQM	retten	treu	schön	fair	ehrlich	spielen	rächen	tot	schlecht	faul	eitel	strafen	47pct	acq_USunple_CSunple2_noRW	acq23456_noRW	3	69	0	0	300	300	624	46	0	1	1	blank2r.bmp	0	1	+	0	1	blank2r.bmp	252	1	YDDY	306	3	strafen	559	0	0	0	0	0	0	0	0	0	0	0	0	0	0	0	0	0	0	0	0	0	0	0	0	0	0	0	0	0	0	0	0	0	0	0	0	0	0	0
070319	16:14:52	16:22:38	465797	5.0.10.0	5_exp_noRW	18	Rpleas_acq	CS_B	BZZB	VKKV	GWWG	YDDY	JXXJ	MQQM	retten	treu	schön	fair	ehrlich	spielen	rächen	tot	schlecht	faul	eitel	strafen	47pct	acq_USpleas_CSpleas2_noRW	acq23456_noRW	3	70	0	0	300	300	622	50	0	1	1	blank2r.bmp	0	1	+	0	1	blank2r.bmp	252	1	VKKV	306	1	fair	559	0	0	0	0	0	0	0	0	0	0	0	0	0	0	0	0	0	0	0	0	0	0	0	0	0	0	0	0	0	0	0	0	0	0	0	0	0	0	0
070319	16:14:52	16:22:40	467423	5.0.10.0	5_exp_noRW	18	Rpleas_acq	CS_B	BZZB	VKKV	GWWG	YDDY	JXXJ	MQQM	retten	treu	schön	fair	ehrlich	spielen	rächen	tot	schlecht	faul	eitel	strafen	47pct	acq_USunple_CSpleas1_noRW	acq23456_noRW	3	71	0	0	300	300	458	46	0	1	1	blank2r.bmp	0	1	+	0	1	blank2r.bmp	252	1	BZZB	306	1	rächen	559	0	0	0	0	0	0	0	0	0	0	0	0	0	0	0	0	0	0	0	0	0	0	0	0	0	0	0	0	0	0	0	0	0	0	0	0	0	0	0
070319	16:14:52	16:22:42	469249	5.0.10.0	5_exp_noRW	18	Rpleas_acq	CS_B	BZZB	VKKV	GWWG	YDDY	JXXJ	MQQM	retten	treu	schön	fair	ehrlich	spielen	rächen	tot	schlecht	faul	eitel	strafen	53pct	acq_USunple_CSunple2_noRW	acq23456_noRW	3	72	0	0	300	300	660	46	0	1	1	blank2r.bmp	0	1	+	0	1	blank2r.bmp	252	1	YDDY	306	2	eitel	559	0	0	0	0	0	0	0	0	0	0	0	0	0	0	0	0	0	0	0	0	0	0	0	0	0	0	0	0	0	0	0	0	0	0	0	0	0	0	0
070319	16:14:52	16:22:44	471075	5.0.10.0	5_exp_noRW	18	Rpleas_acq	CS_B	BZZB	VKKV	GWWG	YDDY	JXXJ	MQQM	retten	treu	schön	fair	ehrlich	spielen	rächen	tot	schlecht	faul	eitel	strafen	47pct	acq_USpleas_CSpleas2_noRW	acq23456_noRW	3	73	0	0	300	300	643	50	0	1	1	blank2r.bmp	0	1	+	0	1	blank2r.bmp	252	1	VKKV	306	2	ehrlich	559	0	0	0	0	0	0	0	0	0	0	0	0	0	0	0	0	0	0	0	0	0	0	0	0	0	0	0	0	0	0	0	0	0	0	0	0	0	0	0
070319	16:14:52	16:22:45	472794	5.0.10.0	5_exp_noRW	18	Rpleas_acq	CS_B	BZZB	VKKV	GWWG	YDDY	JXXJ	MQQM	retten	treu	schön	fair	ehrlich	spielen	rächen	tot	schlecht	faul	eitel	strafen	53pct	acq_USpleas_CSpleas2_noRW	acq23456_noRW	3	74	0	0	300	300	550	50	0	1	1	blank2r.bmp	0	1	+	0	1	blank2r.bmp	252	1	VKKV	306	3	spielen	559	0	0	0	0	0	0	0	0	0	0	0	0	0	0	0	0	0	0	0	0	0	0	0	0	0	0	0	0	0	0	0	0	0	0	0	0	0	0	0
070319	16:14:52	16:22:47	474460	5.0.10.0	5_exp_noRW	18	Rpleas_acq	CS_B	BZZB	VKKV	GWWG	YDDY	JXXJ	MQQM	retten	treu	schön	fair	ehrlich	spielen	rächen	tot	schlecht	faul	eitel	strafen	47pct	acq_USunple_CSunple1_noRW	acq23456_noRW	3	75	0	0	300	300	482	46	0	1	1	blank2r.bmp	0	1	+	0	1	blank2r.bmp	252	1	GWWG	306	3	schlecht	559	0	0	0	0	0	0	0	0	0	0	0	0	0	0	0	0	0	0	0	0	0	0	0	0	0	0	0	0	0	0	0	0	0	0	0	0	0	0	0
070319	16:14:52	16:22:49	476273	5.0.10.0	5_exp_noRW	18	Rpleas_acq	CS_B	BZZB	VKKV	GWWG	YDDY	JXXJ	MQQM	retten	treu	schön	fair	ehrlich	spielen	rächen	tot	schlecht	faul	eitel	strafen	47pct	acq_USunple_CSunple1_noRW	acq23456_noRW	3	76	0	0	300	300	431	50	0	0	1	blank2r.bmp	0	1	+	0	1	blank2r.bmp	252	1	GWWG	306	1	rächen	559	1	FEHLER	1026	0	0	0	0	0	0	0	0	0	0	0	0	0	0	0	0	0	0	0	0	0	0	0	0	0	0	0	0	0	0	0	0	0	0	0	0
070319	16:14:52	16:22:50	477645	5.0.10.0	5_exp_noRW	18	Rpleas_acq	CS_B	BZZB	VKKV	GWWG	YDDY	JXXJ	MQQM	retten	treu	schön	fair	ehrlich	spielen	rächen	tot	schlecht	faul	eitel	strafen	53pct	acq_USpleas_CSunple1_noRW	acq23456_noRW	3	77	0	0	300	300	401	50	0	1	1	blank2r.bmp	0	1	+	0	1	blank2r.bmp	252	1	GWWG	306	3	schön	559	0	0	0	0	0	0	0	0	0	0	0	0	0	0	0	0	0	0	0	0	0	0	0	0	0	0	0	0	0	0	0	0	0	0	0	0	0	0	0
070319	16:14:52	16:22:52	479245	5.0.10.0	5_exp_noRW	18	Rpleas_acq	CS_B	BZZB	VKKV	GWWG	YDDY	JXXJ	MQQM	retten	treu	schön	fair	ehrlich	spielen	rächen	tot	schlecht	faul	eitel	strafen	47pct	acq_USunple_CSunple1_noRW	acq23456_noRW	3	78	0	0	300	300	432	46	0	1	1	blank2r.bmp	0	1	+	0	1	blank2r.bmp	252	1	GWWG	306	2	tot	559	0	0	0	0	0	0	0	0	0	0	0	0	0	0	0	0	0	0	0	0	0	0	0	0	0	0	0	0	0	0	0	0	0	0	0	0	0	0	0
070319	16:14:52	16:22:53	480977	5.0.10.0	5_exp_noRW	18	Rpleas_acq	CS_B	BZZB	VKKV	GWWG	YDDY	JXXJ	MQQM	retten	treu	schön	fair	ehrlich	spielen	rächen	tot	schlecht	faul	eitel	strafen	53pct	acq_USpleas_CSunple2_noRW	acq23456_noRW	3	79	0	0	300	300	566	50	0	1	1	blank2r.bmp	0	1	+	0	1	blank2r.bmp	252	1	YDDY	306	1	fair	559	0	0	0	0	0	0	0	0	0	0	0	0	0	0	0	0	0	0	0	0	0	0	0	0	0	0	0	0	0	0	0	0	0	0	0	0	0	0	0
070319	16:14:52	16:22:55	482630	5.0.10.0	5_exp_noRW	18	Rpleas_acq	CS_B	BZZB	VKKV	GWWG	YDDY	JXXJ	MQQM	retten	treu	schön	fair	ehrlich	spielen	rächen	tot	schlecht	faul	eitel	strafen	47pct	acq_USunple_CSpleas2_noRW	acq23456_noRW	3	80	0	0	300	300	490	46	0	1	1	blank2r.bmp	0	1	+	0	1	blank2r.bmp	252	1	VKKV	306	1	faul	559	0	0	0	0	0	0	0	0	0	0	0	0	0	0	0	0	0	0	0	0	0	0	0	0	0	0	0	0	0	0	0	0	0	0	0	0	0	0	0
070319	16:14:52	16:23:07	494785	5.0.10.0	5_exp_noRW	18	Rpleas_acq	CS_B	BZZB	VKKV	GWWG	YDDY	JXXJ	MQQM	retten	treu	schön	fair	ehrlich	spielen	rächen	tot	schlecht	faul	eitel	strafen	53pct	acq_USpleas_CSpleas2_noRW	acq23456_noRW	4	1	0	0	300	300	764	50	0	1	1	blank2r.bmp	0	1	+	0	1	blank2r.bmp	252	1	VKKV	306	1	fair	559	0	0	0	0	0	0	0	0	0	0	0	0	0	0	0	0	0	0	0	0	0	0	0	0	0	0	0	0	0	0	0	0	0	0	0	0	0	0	0
070319	16:14:52	16:23:09	496331	5.0.10.0	5_exp_noRW	18	Rpleas_acq	CS_B	BZZB	VKKV	GWWG	YDDY	JXXJ	MQQM	retten	treu	schön	fair	ehrlich	spielen	rächen	tot	schlecht	faul	eitel	strafen	47pct	acq_USunple_CSpleas1_noRW	acq23456_noRW	4	2	0	0	300	300	378	46	0	1	1	blank2r.bmp	0	1	+	0	1	blank2r.bmp	252	1	BZZB	306	2	tot	559	0	0	0	0	0	0	0	0	0	0	0	0	0	0	0	0	0	0	0	0	0	0	0	0	0	0	0	0	0	0	0	0	0	0	0	0	0	0	0
070319	16:14:52	16:23:10	497930	5.0.10.0	5_exp_noRW	18	Rpleas_acq	CS_B	BZZB	VKKV	GWWG	YDDY	JXXJ	MQQM	retten	treu	schön	fair	ehrlich	spielen	rächen	tot	schlecht	faul	eitel	strafen	53pct	acq_USunple_CSunple2_noRW	acq23456_noRW	4	3	0	0	300	300	428	46	0	1	1	blank2r.bmp	0	1	+	0	1	blank2r.bmp	252	1	YDDY	306	1	faul	559	0	0	0	0	0	0	0	0	0	0	0	0	0	0	0	0	0	0	0	0	0	0	0	0	0	0	0	0	0	0	0	0	0	0	0	0	0	0	0
070319	16:14:52	16:23:12	499890	5.0.10.0	5_exp_noRW	18	Rpleas_acq	CS_B	BZZB	VKKV	GWWG	YDDY	JXXJ	MQQM	retten	treu	schön	fair	ehrlich	spielen	rächen	tot	schlecht	faul	eitel	strafen	53pct	acq_USunple_CSunple2_noRW	acq23456_noRW	4	4	0	0	300	300	569	50	0	0	1	blank2r.bmp	0	1	+	0	1	blank2r.bmp	252	1	YDDY	306	2	eitel	559	1	FEHLER	1159	0	0	0	0	0	0	0	0	0	0	0	0	0	0	0	0	0	0	0	0	0	0	0	0	0	0	0	0	0	0	0	0	0	0	0	0
070319	16:14:52	16:23:14	501329	5.0.10.0	5_exp_noRW	18	Rpleas_acq	CS_B	BZZB	VKKV	GWWG	YDDY	JXXJ	MQQM	retten	treu	schön	fair	ehrlich	spielen	rächen	tot	schlecht	faul	eitel	strafen	53pct	acq_USunple_CSunple1_noRW	acq23456_noRW	4	5	0	0	300	300	472	46	0	1	1	blank2r.bmp	0	1	+	0	1	blank2r.bmp	252	1	GWWG	306	1	rächen	559	0	0	0	0	0	0	0	0	0	0	0	0	0	0	0	0	0	0	0	0	0	0	0	0	0	0	0	0	0	0	0	0	0	0	0	0	0	0	0
070319	16:14:52	16:23:15	503022	5.0.10.0	5_exp_noRW	18	Rpleas_acq	CS_B	BZZB	VKKV	GWWG	YDDY	JXXJ	MQQM	retten	treu	schön	fair	ehrlich	spielen	rächen	tot	schlecht	faul	eitel	strafen	47pct	acq_USpleas_CSunple2_noRW	acq23456_noRW	4	6	0	0	300	300	516	50	0	1	1	blank2r.bmp	0	1	+	0	1	blank2r.bmp	252	1	YDDY	306	2	ehrlich	559	0	0	0	0	0	0	0	0	0	0	0	0	0	0	0	0	0	0	0	0	0	0	0	0	0	0	0	0	0	0	0	0	0	0	0	0	0	0	0
070319	16:14:52	16:23:17	504621	5.0.10.0	5_exp_noRW	18	Rpleas_acq	CS_B	BZZB	VKKV	GWWG	YDDY	JXXJ	MQQM	retten	treu	schön	fair	ehrlich	spielen	rächen	tot	schlecht	faul	eitel	strafen	53pct	acq_USpleas_CSpleas2_noRW	acq23456_noRW	4	7	0	0	300	300	419	50	0	1	1	blank2r.bmp	0	1	+	0	1	blank2r.bmp	252	1	VKKV	306	2	ehrlich	559	0	0	0	0	0	0	0	0	0	0	0	0	0	0	0	0	0	0	0	0	0	0	0	0	0	0	0	0	0	0	0	0	0	0	0	0	0	0	0
070319	16:14:52	16:23:19	506247	5.0.10.0	5_exp_noRW	18	Rpleas_acq	CS_B	BZZB	VKKV	GWWG	YDDY	JXXJ	MQQM	retten	treu	schön	fair	ehrlich	spielen	rächen	tot	schlecht	faul	eitel	strafen	47pct	acq_USunple_CSunple2_noRW	acq23456_noRW	4	8	0	0	300	300	446	46	0	1	1	blank2r.bmp	0	1	+	0	1	blank2r.bmp	252	1	YDDY	306	3	strafen	559	0	0	0	0	0	0	0	0	0	0	0	0	0	0	0	0	0	0	0	0	0	0	0	0	0	0	0	0	0	0	0	0	0	0	0	0	0	0	0
070319	16:14:52	16:23:20	507820	5.0.10.0	5_exp_noRW	18	Rpleas_acq	CS_B	BZZB	VKKV	GWWG	YDDY	JXXJ	MQQM	retten	treu	schön	fair	ehrlich	spielen	rächen	tot	schlecht	faul	eitel	strafen	53pct	acq_USunple_CSunple1_noRW	acq23456_noRW	4	9	0	0	300	300	401	46	0	1	1	blank2r.bmp	0	1	+	0	1	blank2r.bmp	252	1	GWWG	306	2	tot	559	0	0	0	0	0	0	0	0	0	0	0	0	0	0	0	0	0	0	0	0	0	0	0	0	0	0	0	0	0	0	0	0	0	0	0	0	0	0	0
